raw_reward_magnitude,stim_reward,stepwise_reward_magnitude,paired_with_stopping,stim_location,response,reaction_time,block,num_trial_presentations,which_phase,stop_signal_trial_type,left_SSD,right_SSD,accuracy,chosen_bidding_amount,chosen_bidding_level,possible_bid_1,possible_bid_2,possible_bid_3,possible_bid_4,possible_bid_5,possible_bid_6,color_text,shape_text
637.0,3.0,2.0,0.0,4.0,4.0,476.9837970000026,1.0,2.0,phase_1,,,,,,,,,,,,,yellow,I
0.0,7.0,0.0,1.0,3.0,3.0,290.9865310000441,1.0,1.0,phase_1,,,,,,,,,,,,,magenta,triangle
0.0,2.0,0.0,0.0,3.0,3.0,287.9315959999076,1.0,1.0,phase_1,,,,,,,,,,,,,gray,diamond
1320.0,8.0,4.0,1.0,3.0,3.0,307.5512650000291,1.0,1.0,phase_1,,,,,,,,,,,,,orange,square
343.0,2.0,1.0,0.0,4.0,4.0,271.0723270000699,1.0,2.0,phase_1,,,,,,,,,,,,,gray,diamond
1299.0,8.0,4.0,1.0,2.0,2.0,386.3676890000533,1.0,1.0,phase_1,,,,,,,,,,,,,orange,square
669.0,3.0,2.0,0.0,2.0,2.0,357.7880960000357,1.0,1.0,phase_1,,,,,,,,,,,,,yellow,I
1287.0,8.0,4.0,1.0,1.0,1.0,418.444165999972,1.0,1.0,phase_1,,,,,,,,,,,,,orange,square
323.0,2.0,1.0,0.0,2.0,2.0,314.6024180000495,1.0,2.0,phase_1,,,,,,,,,,,,,gray,diamond
1289.0,4.0,4.0,0.0,1.0,1.0,340.2886369999578,1.0,2.0,phase_1,,,,,,,,,,,,,green,hexagon
301.0,6.0,1.0,1.0,2.0,2.0,313.001909000036,1.0,1.0,phase_1,,,,,,,,,,,,,cyan,circle
1298.0,8.0,4.0,1.0,4.0,4.0,448.8920309999002,1.0,1.0,phase_1,,,,,,,,,,,,,orange,square
646.0,3.0,2.0,0.0,3.0,3.0,402.9097989999854,1.0,1.0,phase_1,,,,,,,,,,,,,yellow,I
185.0,5.0,0.5,1.0,4.0,4.0,376.8876540000292,1.0,1.0,phase_1,,,,,,,,,,,,,white,flipped triangle
665.0,3.0,2.0,0.0,2.0,2.0,318.2555610000008,1.0,1.0,phase_1,,,,,,,,,,,,,yellow,I
670.0,7.0,2.0,1.0,3.0,3.0,352.6967539999077,1.0,1.0,phase_1,,,,,,,,,,,,,magenta,triangle
162.0,1.0,0.5,0.0,4.0,4.0,319.1636069999504,1.0,1.0,phase_1,,,,,,,,,,,,,blue,cross
626.0,3.0,2.0,0.0,1.0,1.0,401.321605000021,1.0,1.0,phase_1,,,,,,,,,,,,,yellow,I
1304.0,4.0,4.0,0.0,2.0,2.0,326.0209769999846,1.0,1.0,phase_1,,,,,,,,,,,,,green,hexagon
1281.0,8.0,4.0,1.0,2.0,2.0,338.6968629999956,1.0,1.0,phase_1,,,,,,,,,,,,,orange,square
151.0,1.0,0.5,0.0,1.0,1.0,296.7072169999483,1.0,1.0,phase_1,,,,,,,,,,,,,blue,cross
1277.0,4.0,4.0,0.0,3.0,3.0,444.0468340000052,1.0,1.0,phase_1,,,,,,,,,,,,,green,hexagon
626.0,3.0,2.0,0.0,1.0,1.0,305.2966100000276,1.0,1.0,phase_1,,,,,,,,,,,,,yellow,I
345.0,2.0,1.0,0.0,2.0,2.0,392.0352160000675,1.0,1.0,phase_1,,,,,,,,,,,,,gray,diamond
327.0,2.0,1.0,0.0,1.0,1.0,361.8820350000078,1.0,1.0,phase_1,,,,,,,,,,,,,gray,diamond
1318.0,8.0,4.0,1.0,1.0,1.0,353.0672980000418,1.0,1.0,phase_1,,,,,,,,,,,,,orange,square
156.0,5.0,0.5,1.0,1.0,1.0,299.2775019999953,1.0,1.0,phase_1,,,,,,,,,,,,,white,flipped triangle
163.0,5.0,0.5,1.0,2.0,2.0,319.7258149999697,1.0,1.0,phase_1,,,,,,,,,,,,,white,flipped triangle
647.0,7.0,2.0,1.0,3.0,3.0,444.5457549999219,1.0,1.0,phase_1,,,,,,,,,,,,,magenta,triangle
0.0,7.0,0.0,1.0,2.0,2.0,441.3369259999626,1.0,1.0,phase_1,,,,,,,,,,,,,magenta,triangle
674.0,3.0,2.0,0.0,2.0,2.0,340.7968290000553,1.0,1.0,phase_1,,,,,,,,,,,,,yellow,I
333.0,2.0,1.0,0.0,1.0,1.0,337.8532969999241,1.0,1.0,phase_1,,,,,,,,,,,,,gray,diamond
666.0,3.0,2.0,0.0,3.0,3.0,334.4479319999891,1.0,1.0,phase_1,,,,,,,,,,,,,yellow,I
139.0,1.0,0.5,0.0,2.0,2.0,332.54795799996367,1.0,1.0,phase_1,,,,,,,,,,,,,blue,cross
324.0,6.0,1.0,1.0,1.0,1.0,280.9344849999888,1.0,1.0,phase_1,,,,,,,,,,,,,cyan,circle
1277.0,8.0,4.0,1.0,4.0,4.0,355.9697599999936,1.0,1.0,phase_1,,,,,,,,,,,,,orange,square
1295.0,4.0,4.0,0.0,1.0,1.0,296.3650819999657,1.0,1.0,phase_1,,,,,,,,,,,,,green,hexagon
145.0,1.0,0.5,0.0,1.0,1.0,303.4280860000535,1.0,1.0,phase_1,,,,,,,,,,,,,blue,cross
665.0,3.0,2.0,0.0,1.0,1.0,299.1866099999924,1.0,1.0,phase_1,,,,,,,,,,,,,yellow,I
137.0,5.0,0.5,1.0,1.0,1.0,294.6824760000481,1.0,1.0,phase_1,,,,,,,,,,,,,white,flipped triangle
174.0,5.0,0.5,1.0,4.0,4.0,364.546808,1.0,1.0,phase_1,,,,,,,,,,,,,white,flipped triangle
314.0,2.0,1.0,0.0,2.0,2.0,330.0497349999887,1.0,1.0,phase_1,,,,,,,,,,,,,gray,diamond
314.0,6.0,1.0,1.0,4.0,4.0,332.4205239999855,1.0,1.0,phase_1,,,,,,,,,,,,,cyan,circle
648.0,7.0,2.0,1.0,4.0,4.0,315.0791809999873,1.0,1.0,phase_1,,,,,,,,,,,,,magenta,triangle
336.0,2.0,1.0,0.0,2.0,2.0,302.4952789999133,1.0,1.0,phase_1,,,,,,,,,,,,,gray,diamond
335.0,6.0,1.0,1.0,3.0,3.0,299.4229419999783,1.0,1.0,phase_1,,,,,,,,,,,,,cyan,circle
0.0,3.0,0.0,0.0,2.0,2.0,311.1037500000293,1.0,1.0,phase_1,,,,,,,,,,,,,yellow,I
0.0,1.0,0.0,0.0,4.0,4.0,347.7290680000351,1.0,1.0,phase_1,,,,,,,,,,,,,blue,cross
179.0,1.0,0.5,0.0,3.0,3.0,304.6639830000686,1.0,1.0,phase_1,,,,,,,,,,,,,blue,cross
1287.0,4.0,4.0,0.0,3.0,3.0,279.5643209999525,1.0,1.0,phase_1,,,,,,,,,,,,,green,hexagon
1323.0,8.0,4.0,1.0,3.0,3.0,308.0802550000499,1.0,1.0,phase_1,,,,,,,,,,,,,orange,square
349.0,2.0,1.0,0.0,3.0,3.0,334.8619460000464,1.0,1.0,phase_1,,,,,,,,,,,,,gray,diamond
1292.0,4.0,4.0,0.0,1.0,1.0,343.7715759999946,1.0,2.0,phase_1,,,,,,,,,,,,,green,hexagon
1308.0,4.0,4.0,0.0,4.0,4.0,340.3561060000584,1.0,1.0,phase_1,,,,,,,,,,,,,green,hexagon
0.0,8.0,0.0,1.0,4.0,4.0,331.901710000011,1.0,1.0,phase_1,,,,,,,,,,,,,orange,square
324.0,2.0,1.0,0.0,4.0,4.0,278.3527940000567,1.0,1.0,phase_1,,,,,,,,,,,,,gray,diamond
0.0,3.0,0.0,0.0,1.0,1.0,365.1714530000163,1.0,1.0,phase_1,,,,,,,,,,,,,yellow,I
1280.0,4.0,4.0,0.0,2.0,2.0,364.7260999999844,1.0,2.0,phase_1,,,,,,,,,,,,,green,hexagon
0.0,5.0,0.0,1.0,2.0,2.0,385.3248209999265,1.0,1.0,phase_1,,,,,,,,,,,,,white,flipped triangle
637.0,7.0,2.0,1.0,1.0,1.0,420.9405539999125,1.0,1.0,phase_1,,,,,,,,,,,,,magenta,triangle
328.0,6.0,1.0,1.0,3.0,3.0,353.4276350000027,1.0,1.0,phase_1,,,,,,,,,,,,,cyan,circle
319.0,6.0,1.0,1.0,1.0,1.0,342.14486999997,1.0,1.0,phase_1,,,,,,,,,,,,,cyan,circle
301.0,2.0,1.0,0.0,4.0,4.0,338.3962689999862,1.0,1.0,phase_1,,,,,,,,,,,,,gray,diamond
1312.0,4.0,4.0,0.0,1.0,1.0,343.223504999969,1.0,1.0,phase_1,,,,,,,,,,,,,green,hexagon
627.0,3.0,2.0,0.0,2.0,2.0,379.2494750000514,1.0,1.0,phase_1,,,,,,,,,,,,,yellow,I
648.0,3.0,2.0,0.0,1.0,1.0,272.4946289999934,1.0,1.0,phase_1,,,,,,,,,,,,,yellow,I
180.0,5.0,0.5,1.0,3.0,3.0,336.1996200000021,1.0,1.0,phase_1,,,,,,,,,,,,,white,flipped triangle
0.0,1.0,0.0,0.0,1.0,1.0,315.9658540000691,1.0,1.0,phase_1,,,,,,,,,,,,,blue,cross
158.0,1.0,0.5,0.0,2.0,2.0,424.0709310000738,1.0,1.0,phase_1,,,,,,,,,,,,,blue,cross
302.0,6.0,1.0,1.0,3.0,3.0,365.5314799999587,1.0,1.0,phase_1,,,,,,,,,,,,,cyan,circle
0.0,8.0,0.0,1.0,1.0,1.0,311.6993050000474,1.0,1.0,phase_1,,,,,,,,,,,,,orange,square
671.0,7.0,2.0,1.0,1.0,1.0,326.6331830000126,1.0,1.0,phase_1,,,,,,,,,,,,,magenta,triangle
148.0,1.0,0.5,0.0,3.0,3.0,361.7713940000158,1.0,1.0,phase_1,,,,,,,,,,,,,blue,cross
335.0,2.0,1.0,0.0,3.0,3.0,357.7711809999755,1.0,1.0,phase_1,,,,,,,,,,,,,gray,diamond
318.0,2.0,1.0,0.0,2.0,2.0,338.4210680000024,1.0,1.0,phase_1,,,,,,,,,,,,,gray,diamond
180.0,1.0,0.5,0.0,2.0,2.0,359.0136830000574,1.0,1.0,phase_1,,,,,,,,,,,,,blue,cross
650.0,3.0,2.0,0.0,3.0,3.0,323.3851240000831,1.0,1.0,phase_1,,,,,,,,,,,,,yellow,I
174.0,5.0,0.5,1.0,1.0,1.0,369.1828589999204,1.0,1.0,phase_1,,,,,,,,,,,,,white,flipped triangle
316.0,6.0,1.0,1.0,4.0,4.0,461.1799250000103,1.0,1.0,phase_1,,,,,,,,,,,,,cyan,circle
0.0,7.0,0.0,1.0,4.0,4.0,353.2600280000224,1.0,1.0,phase_1,,,,,,,,,,,,,magenta,triangle
1311.0,8.0,4.0,1.0,3.0,3.0,401.1308269999745,1.0,1.0,phase_1,,,,,,,,,,,,,orange,square
1313.0,4.0,4.0,0.0,2.0,2.0,386.8342770000481,1.0,1.0,phase_1,,,,,,,,,,,,,green,hexagon
141.0,1.0,0.5,0.0,4.0,4.0,409.2110049999746,1.0,1.0,phase_1,,,,,,,,,,,,,blue,cross
0.0,1.0,0.0,0.0,3.0,3.0,340.9713870000814,1.0,1.0,phase_1,,,,,,,,,,,,,blue,cross
176.0,1.0,0.5,0.0,1.0,1.0,368.4942859999864,1.0,1.0,phase_1,,,,,,,,,,,,,blue,cross
304.0,2.0,1.0,0.0,1.0,1.0,429.5182340001702,1.0,1.0,phase_1,,,,,,,,,,,,,gray,diamond
0.0,7.0,0.0,1.0,2.0,2.0,409.0166450000652,1.0,1.0,phase_1,,,,,,,,,,,,,magenta,triangle
0.0,1.0,0.0,0.0,3.0,3.0,359.4419819999075,1.0,1.0,phase_1,,,,,,,,,,,,,blue,cross
660.0,7.0,2.0,1.0,2.0,2.0,385.9001719999924,1.0,1.0,phase_1,,,,,,,,,,,,,magenta,triangle
662.0,3.0,2.0,0.0,3.0,3.0,335.6817950000277,1.0,1.0,phase_1,,,,,,,,,,,,,yellow,I
1281.0,8.0,4.0,1.0,3.0,3.0,334.5503210000515,1.0,1.0,phase_1,,,,,,,,,,,,,orange,square
1280.0,8.0,4.0,1.0,1.0,1.0,346.8795669998599,1.0,1.0,phase_1,,,,,,,,,,,,,orange,square
336.0,2.0,1.0,0.0,2.0,2.0,387.9281330000594,1.0,2.0,phase_1,,,,,,,,,,,,,gray,diamond
343.0,6.0,1.0,1.0,2.0,2.0,367.4904039999092,1.0,1.0,phase_1,,,,,,,,,,,,,cyan,circle
185.0,1.0,0.5,0.0,2.0,2.0,346.6692950000833,1.0,1.0,phase_1,,,,,,,,,,,,,blue,cross
302.0,2.0,1.0,0.0,2.0,2.0,337.2240529999999,1.0,1.0,phase_1,,,,,,,,,,,,,gray,diamond
333.0,6.0,1.0,1.0,4.0,4.0,359.0508759998556,1.0,1.0,phase_1,,,,,,,,,,,,,cyan,circle
638.0,3.0,2.0,0.0,4.0,4.0,353.4688739998728,1.0,1.0,phase_1,,,,,,,,,,,,,yellow,I
657.0,7.0,2.0,1.0,1.0,1.0,373.7729969998327,1.0,1.0,phase_1,,,,,,,,,,,,,magenta,triangle
626.0,7.0,2.0,1.0,1.0,1.0,490.142533000153,1.0,1.0,phase_1,,,,,,,,,,,,,magenta,triangle
665.0,7.0,2.0,1.0,1.0,1.0,360.3963540001587,2.0,1.0,phase_1,,,,,,,,,,,,,magenta,triangle
0.0,4.0,0.0,0.0,3.0,3.0,371.3407669999924,2.0,1.0,phase_1,,,,,,,,,,,,,green,hexagon
307.0,6.0,1.0,1.0,4.0,4.0,628.2839279999735,2.0,2.0,phase_1,,,,,,,,,,,,,cyan,circle
0.0,6.0,0.0,1.0,3.0,3.0,347.1768780000275,2.0,1.0,phase_1,,,,,,,,,,,,,cyan,circle
318.0,6.0,1.0,1.0,1.0,1.0,367.5965269999324,2.0,1.0,phase_1,,,,,,,,,,,,,cyan,circle
347.0,6.0,1.0,1.0,2.0,2.0,386.5512059999219,2.0,1.0,phase_1,,,,,,,,,,,,,cyan,circle
1313.0,4.0,4.0,0.0,3.0,3.0,352.9145269999389,2.0,1.0,phase_1,,,,,,,,,,,,,green,hexagon
183.0,1.0,0.5,0.0,2.0,2.0,426.9876519999798,2.0,1.0,phase_1,,,,,,,,,,,,,blue,cross
1289.0,8.0,4.0,1.0,4.0,4.0,362.4950860000808,2.0,1.0,phase_1,,,,,,,,,,,,,orange,square
1306.0,8.0,4.0,1.0,4.0,4.0,316.7037040000195,2.0,1.0,phase_1,,,,,,,,,,,,,orange,square
653.0,7.0,2.0,1.0,4.0,4.0,360.8226059998287,2.0,1.0,phase_1,,,,,,,,,,,,,magenta,triangle
632.0,3.0,2.0,0.0,1.0,1.0,391.1613750001379,2.0,1.0,phase_1,,,,,,,,,,,,,yellow,I
0.0,1.0,0.0,0.0,3.0,3.0,396.7763709999872,2.0,1.0,phase_1,,,,,,,,,,,,,blue,cross
642.0,7.0,2.0,1.0,3.0,3.0,305.6052470001305,2.0,1.0,phase_1,,,,,,,,,,,,,magenta,triangle
1283.0,4.0,4.0,0.0,1.0,1.0,372.7935309998429,2.0,1.0,phase_1,,,,,,,,,,,,,green,hexagon
164.0,5.0,0.5,1.0,1.0,1.0,352.7448439999716,2.0,1.0,phase_1,,,,,,,,,,,,,white,flipped triangle
627.0,3.0,2.0,0.0,3.0,3.0,333.1671610001194,2.0,1.0,phase_1,,,,,,,,,,,,,yellow,I
1304.0,8.0,4.0,1.0,4.0,4.0,353.1431019998763,2.0,1.0,phase_1,,,,,,,,,,,,,orange,square
349.0,6.0,1.0,1.0,4.0,4.0,358.6414559999866,2.0,1.0,phase_1,,,,,,,,,,,,,cyan,circle
185.0,1.0,0.5,0.0,4.0,4.0,332.0344040000691,2.0,1.0,phase_1,,,,,,,,,,,,,blue,cross
0.0,4.0,0.0,0.0,2.0,2.0,326.1109689999557,2.0,1.0,phase_1,,,,,,,,,,,,,green,hexagon
1293.0,4.0,4.0,0.0,1.0,1.0,309.7529900001063,2.0,1.0,phase_1,,,,,,,,,,,,,green,hexagon
660.0,7.0,2.0,1.0,2.0,2.0,383.6441890000515,2.0,1.0,phase_1,,,,,,,,,,,,,magenta,triangle
0.0,2.0,0.0,0.0,2.0,2.0,372.7209280000352,2.0,1.0,phase_1,,,,,,,,,,,,,gray,diamond
1283.0,8.0,4.0,1.0,2.0,2.0,323.6449850001008,2.0,1.0,phase_1,,,,,,,,,,,,,orange,square
150.0,1.0,0.5,0.0,4.0,4.0,368.3636729999762,2.0,1.0,phase_1,,,,,,,,,,,,,blue,cross
661.0,3.0,2.0,0.0,3.0,3.0,389.1143729999839,2.0,1.0,phase_1,,,,,,,,,,,,,yellow,I
139.0,5.0,0.5,1.0,3.0,3.0,385.5243370001062,2.0,1.0,phase_1,,,,,,,,,,,,,white,flipped triangle
654.0,7.0,2.0,1.0,1.0,1.0,323.1972500000211,2.0,1.0,phase_1,,,,,,,,,,,,,magenta,triangle
164.0,1.0,0.5,0.0,1.0,1.0,320.921202999898,2.0,1.0,phase_1,,,,,,,,,,,,,blue,cross
306.0,2.0,1.0,0.0,3.0,3.0,316.7856350000875,2.0,1.0,phase_1,,,,,,,,,,,,,gray,diamond
0.0,7.0,0.0,1.0,3.0,3.0,324.3528210000477,2.0,1.0,phase_1,,,,,,,,,,,,,magenta,triangle
1313.0,8.0,4.0,1.0,3.0,3.0,334.7832430001745,2.0,1.0,phase_1,,,,,,,,,,,,,orange,square
661.0,7.0,2.0,1.0,2.0,2.0,316.5421040000638,2.0,1.0,phase_1,,,,,,,,,,,,,magenta,triangle
651.0,3.0,2.0,0.0,4.0,4.0,305.7134700000006,2.0,1.0,phase_1,,,,,,,,,,,,,yellow,I
0.0,8.0,0.0,1.0,3.0,3.0,340.1763500000925,2.0,1.0,phase_1,,,,,,,,,,,,,orange,square
303.0,2.0,1.0,0.0,3.0,3.0,305.8134109999173,2.0,1.0,phase_1,,,,,,,,,,,,,gray,diamond
646.0,7.0,2.0,1.0,3.0,3.0,335.4733920000399,2.0,1.0,phase_1,,,,,,,,,,,,,magenta,triangle
1306.0,8.0,4.0,1.0,4.0,4.0,298.0581839999559,2.0,1.0,phase_1,,,,,,,,,,,,,orange,square
0.0,4.0,0.0,0.0,3.0,3.0,353.0242839999573,2.0,1.0,phase_1,,,,,,,,,,,,,green,hexagon
1293.0,8.0,4.0,1.0,2.0,2.0,330.9414889999971,2.0,1.0,phase_1,,,,,,,,,,,,,orange,square
0.0,6.0,0.0,1.0,4.0,4.0,503.48962700013544,2.0,1.0,phase_1,,,,,,,,,,,,,cyan,circle
330.0,6.0,1.0,1.0,2.0,2.0,358.2913440000084,2.0,1.0,phase_1,,,,,,,,,,,,,cyan,circle
1299.0,4.0,4.0,0.0,4.0,4.0,328.8041880000492,2.0,1.0,phase_1,,,,,,,,,,,,,green,hexagon
0.0,3.0,0.0,0.0,4.0,4.0,340.9894869998879,2.0,1.0,phase_1,,,,,,,,,,,,,yellow,I
1323.0,4.0,4.0,0.0,2.0,2.0,337.9903070001546,2.0,1.0,phase_1,,,,,,,,,,,,,green,hexagon
642.0,3.0,2.0,0.0,4.0,4.0,297.1032810000906,2.0,1.0,phase_1,,,,,,,,,,,,,yellow,I
1303.0,4.0,4.0,0.0,2.0,2.0,373.6840209999172,2.0,1.0,phase_1,,,,,,,,,,,,,green,hexagon
0.0,2.0,0.0,0.0,1.0,1.0,374.5089600001847,2.0,2.0,phase_1,,,,,,,,,,,,,gray,diamond
657.0,3.0,2.0,0.0,2.0,2.0,392.7812569997968,2.0,1.0,phase_1,,,,,,,,,,,,,yellow,I
0.0,7.0,0.0,1.0,2.0,2.0,349.4161899998289,2.0,1.0,phase_1,,,,,,,,,,,,,magenta,triangle
0.0,8.0,0.0,1.0,4.0,4.0,330.3985469999588,2.0,1.0,phase_1,,,,,,,,,,,,,orange,square
0.0,3.0,0.0,0.0,3.0,3.0,320.9706640000149,2.0,1.0,phase_1,,,,,,,,,,,,,yellow,I
1306.0,4.0,4.0,0.0,2.0,2.0,329.7560040000462,2.0,2.0,phase_1,,,,,,,,,,,,,green,hexagon
1293.0,4.0,4.0,0.0,2.0,2.0,349.147400999982,2.0,1.0,phase_1,,,,,,,,,,,,,green,hexagon
319.0,2.0,1.0,0.0,3.0,3.0,313.9276679999057,2.0,1.0,phase_1,,,,,,,,,,,,,gray,diamond
1281.0,4.0,4.0,0.0,4.0,4.0,381.815935999839,2.0,1.0,phase_1,,,,,,,,,,,,,green,hexagon
307.0,2.0,1.0,0.0,2.0,2.0,364.3740130000878,2.0,1.0,phase_1,,,,,,,,,,,,,gray,diamond
1293.0,8.0,4.0,1.0,1.0,1.0,487.2842859999764,2.0,1.0,phase_1,,,,,,,,,,,,,orange,square
0.0,1.0,0.0,0.0,4.0,4.0,379.7659199999543,2.0,1.0,phase_1,,,,,,,,,,,,,blue,cross
630.0,3.0,2.0,0.0,4.0,4.0,379.0362839999943,2.0,1.0,phase_1,,,,,,,,,,,,,yellow,I
0.0,1.0,0.0,0.0,1.0,1.0,420.7087400000091,2.0,1.0,phase_1,,,,,,,,,,,,,blue,cross
182.0,5.0,0.5,1.0,1.0,1.0,338.0633450001369,2.0,1.0,phase_1,,,,,,,,,,,,,white,flipped triangle
1300.0,4.0,4.0,0.0,4.0,4.0,319.2878340000789,2.0,1.0,phase_1,,,,,,,,,,,,,green,hexagon
653.0,3.0,2.0,0.0,1.0,1.0,373.2784500000434,2.0,1.0,phase_1,,,,,,,,,,,,,yellow,I
306.0,6.0,1.0,1.0,1.0,1.0,391.1610329998893,2.0,1.0,phase_1,,,,,,,,,,,,,cyan,circle
0.0,6.0,0.0,1.0,2.0,2.0,453.8642580000669,2.0,1.0,phase_1,,,,,,,,,,,,,cyan,circle
0.0,4.0,0.0,0.0,2.0,2.0,329.1903280000952,2.0,1.0,phase_1,,,,,,,,,,,,,green,hexagon
0.0,1.0,0.0,0.0,2.0,2.0,380.7568120000724,2.0,1.0,phase_1,,,,,,,,,,,,,blue,cross
1278.0,4.0,4.0,0.0,1.0,1.0,331.9184089998543,2.0,1.0,phase_1,,,,,,,,,,,,,green,hexagon
328.0,2.0,1.0,0.0,1.0,1.0,342.4440480000612,2.0,1.0,phase_1,,,,,,,,,,,,,gray,diamond
0.0,2.0,0.0,0.0,1.0,1.0,349.4131400000242,2.0,1.0,phase_1,,,,,,,,,,,,,gray,diamond
151.0,5.0,0.5,1.0,3.0,3.0,442.3703380000461,2.0,1.0,phase_1,,,,,,,,,,,,,white,flipped triangle
1296.0,4.0,4.0,0.0,3.0,3.0,388.5399010000583,2.0,1.0,phase_1,,,,,,,,,,,,,green,hexagon
1320.0,8.0,4.0,1.0,2.0,2.0,370.8167379998031,2.0,1.0,phase_1,,,,,,,,,,,,,orange,square
146.0,5.0,0.5,1.0,2.0,2.0,431.9063139998889,2.0,1.0,phase_1,,,,,,,,,,,,,white,flipped triangle
674.0,7.0,2.0,1.0,3.0,3.0,396.3731890000872,2.0,1.0,phase_1,,,,,,,,,,,,,magenta,triangle
1315.0,4.0,4.0,0.0,4.0,4.0,361.5521140000055,2.0,1.0,phase_1,,,,,,,,,,,,,green,hexagon
1312.0,8.0,4.0,1.0,2.0,2.0,388.0510920000688,2.0,1.0,phase_1,,,,,,,,,,,,,orange,square
1285.0,4.0,4.0,0.0,2.0,2.0,306.0131260001526,2.0,1.0,phase_1,,,,,,,,,,,,,green,hexagon
0.0,2.0,0.0,0.0,2.0,2.0,341.1662390001311,2.0,1.0,phase_1,,,,,,,,,,,,,gray,diamond
176.0,5.0,0.5,1.0,1.0,1.0,436.241796999866,2.0,1.0,phase_1,,,,,,,,,,,,,white,flipped triangle
146.0,5.0,0.5,1.0,2.0,2.0,350.5000359998576,2.0,1.0,phase_1,,,,,,,,,,,,,white,flipped triangle
629.0,3.0,2.0,0.0,2.0,2.0,317.5012659999083,2.0,1.0,phase_1,,,,,,,,,,,,,yellow,I
174.0,1.0,0.5,0.0,1.0,1.0,399.3229899999733,2.0,1.0,phase_1,,,,,,,,,,,,,blue,cross
348.0,2.0,1.0,0.0,4.0,4.0,464.8442989998784,2.0,2.0,phase_1,,,,,,,,,,,,,gray,diamond
345.0,6.0,1.0,1.0,3.0,3.0,421.5343610001127,2.0,1.0,phase_1,,,,,,,,,,,,,cyan,circle
154.0,5.0,0.5,1.0,1.0,1.0,379.3652850001763,2.0,1.0,phase_1,,,,,,,,,,,,,white,flipped triangle
666.0,7.0,2.0,1.0,4.0,4.0,465.8049950000986,2.0,1.0,phase_1,,,,,,,,,,,,,magenta,triangle
145.0,5.0,0.5,1.0,2.0,2.0,395.8087120001892,2.0,1.0,phase_1,,,,,,,,,,,,,white,flipped triangle
0.0,5.0,0.0,1.0,3.0,3.0,407.9106439999123,2.0,1.0,phase_1,,,,,,,,,,,,,white,flipped triangle
170.0,5.0,0.5,1.0,2.0,2.0,359.3372820000695,2.0,1.0,phase_1,,,,,,,,,,,,,white,flipped triangle
664.0,3.0,2.0,0.0,2.0,2.0,353.2243270001345,2.0,1.0,phase_1,,,,,,,,,,,,,yellow,I
1303.0,8.0,4.0,1.0,1.0,1.0,360.5689690000417,2.0,1.0,phase_1,,,,,,,,,,,,,orange,square
0.0,5.0,0.0,1.0,1.0,1.0,444.486452999854,2.0,1.0,phase_1,,,,,,,,,,,,,white,flipped triangle
0.0,6.0,0.0,1.0,4.0,4.0,343.7507679998361,2.0,1.0,phase_1,,,,,,,,,,,,,cyan,circle
326.0,6.0,1.0,1.0,1.0,1.0,373.2929819998389,2.0,1.0,phase_1,,,,,,,,,,,,,cyan,circle
0.0,4.0,0.0,0.0,4.0,4.0,513.0283390001296,2.0,1.0,phase_1,,,,,,,,,,,,,green,hexagon
1321.0,8.0,4.0,1.0,1.0,1.0,340.9261479998804,2.0,1.0,phase_1,,,,,,,,,,,,,orange,square
180.0,1.0,0.5,0.0,2.0,2.0,361.0574250001264,2.0,1.0,phase_1,,,,,,,,,,,,,blue,cross
313.0,6.0,1.0,1.0,1.0,1.0,392.04100500001,3.0,1.0,phase_1,,,,,,,,,,,,,cyan,circle
654.0,3.0,2.0,0.0,4.0,4.0,308.286038999995,3.0,1.0,phase_1,,,,,,,,,,,,,yellow,I
321.0,2.0,1.0,0.0,4.0,4.0,355.4012489998968,3.0,1.0,phase_1,,,,,,,,,,,,,gray,diamond
179.0,5.0,0.5,1.0,4.0,4.0,336.0604360000252,3.0,1.0,phase_1,,,,,,,,,,,,,white,flipped triangle
164.0,5.0,0.5,1.0,4.0,4.0,290.1393900001494,3.0,1.0,phase_1,,,,,,,,,,,,,white,flipped triangle
626.0,7.0,2.0,1.0,3.0,3.0,575.346780000018,3.0,1.0,phase_1,,,,,,,,,,,,,magenta,triangle
146.0,1.0,0.5,0.0,4.0,4.0,350.0914419998935,3.0,1.0,phase_1,,,,,,,,,,,,,blue,cross
0.0,7.0,0.0,1.0,4.0,4.0,346.8838680000772,3.0,1.0,phase_1,,,,,,,,,,,,,magenta,triangle
0.0,8.0,0.0,1.0,2.0,2.0,399.3482409998705,3.0,1.0,phase_1,,,,,,,,,,,,,orange,square
674.0,7.0,2.0,1.0,2.0,2.0,394.0910490000533,3.0,1.0,phase_1,,,,,,,,,,,,,magenta,triangle
0.0,6.0,0.0,1.0,2.0,2.0,358.0154300000231,3.0,1.0,phase_1,,,,,,,,,,,,,cyan,circle
340.0,6.0,1.0,1.0,1.0,1.0,509.47984200001883,3.0,1.0,phase_1,,,,,,,,,,,,,cyan,circle
653.0,7.0,2.0,1.0,4.0,4.0,418.4767660001398,3.0,1.0,phase_1,,,,,,,,,,,,,magenta,triangle
640.0,3.0,2.0,0.0,3.0,3.0,364.0314070000841,3.0,1.0,phase_1,,,,,,,,,,,,,yellow,I
1311.0,4.0,4.0,0.0,4.0,4.0,347.542298999997,3.0,1.0,phase_1,,,,,,,,,,,,,green,hexagon
166.0,5.0,0.5,1.0,4.0,4.0,341.249044000051,3.0,1.0,phase_1,,,,,,,,,,,,,white,flipped triangle
1294.0,4.0,4.0,0.0,1.0,1.0,379.1476510000393,3.0,1.0,phase_1,,,,,,,,,,,,,green,hexagon
1298.0,4.0,4.0,0.0,4.0,4.0,360.2708349999375,3.0,1.0,phase_1,,,,,,,,,,,,,green,hexagon
163.0,1.0,0.5,0.0,4.0,4.0,331.6536280001401,3.0,1.0,phase_1,,,,,,,,,,,,,blue,cross
634.0,3.0,2.0,0.0,1.0,1.0,370.0519649999023,3.0,1.0,phase_1,,,,,,,,,,,,,yellow,I
182.0,1.0,0.5,0.0,2.0,2.0,382.7015880001454,3.0,1.0,phase_1,,,,,,,,,,,,,blue,cross
0.0,3.0,0.0,0.0,1.0,1.0,458.8105309999264,3.0,1.0,phase_1,,,,,,,,,,,,,yellow,I
323.0,6.0,1.0,1.0,4.0,4.0,342.0162800000526,3.0,1.0,phase_1,,,,,,,,,,,,,cyan,circle
0.0,8.0,0.0,1.0,4.0,4.0,357.0914160000029,3.0,1.0,phase_1,,,,,,,,,,,,,orange,square
160.0,5.0,0.5,1.0,3.0,3.0,417.9182320001473,3.0,1.0,phase_1,,,,,,,,,,,,,white,flipped triangle
161.0,1.0,0.5,0.0,3.0,3.0,398.2493799999247,3.0,1.0,phase_1,,,,,,,,,,,,,blue,cross
1295.0,8.0,4.0,1.0,4.0,4.0,361.6071730000385,3.0,1.0,phase_1,,,,,,,,,,,,,orange,square
148.0,5.0,0.5,1.0,1.0,1.0,367.4712049999016,3.0,1.0,phase_1,,,,,,,,,,,,,white,flipped triangle
637.0,3.0,2.0,0.0,3.0,3.0,362.1501580000767,3.0,1.0,phase_1,,,,,,,,,,,,,yellow,I
0.0,6.0,0.0,1.0,3.0,3.0,361.0844639999868,3.0,1.0,phase_1,,,,,,,,,,,,,cyan,circle
627.0,7.0,2.0,1.0,4.0,4.0,379.1654860001472,3.0,1.0,phase_1,,,,,,,,,,,,,magenta,triangle
0.0,4.0,0.0,0.0,1.0,1.0,375.8401420000155,3.0,1.0,phase_1,,,,,,,,,,,,,green,hexagon
150.0,5.0,0.5,1.0,4.0,4.0,317.588859999887,3.0,1.0,phase_1,,,,,,,,,,,,,white,flipped triangle
148.0,5.0,0.5,1.0,1.0,1.0,385.494498999833,3.0,1.0,phase_1,,,,,,,,,,,,,white,flipped triangle
0.0,5.0,0.0,1.0,2.0,2.0,583.6050789998808,3.0,1.0,phase_1,,,,,,,,,,,,,white,flipped triangle
627.0,7.0,2.0,1.0,2.0,2.0,378.0981340000835,3.0,1.0,phase_1,,,,,,,,,,,,,magenta,triangle
0.0,1.0,0.0,0.0,1.0,1.0,400.2569120000316,3.0,1.0,phase_1,,,,,,,,,,,,,blue,cross
632.0,7.0,2.0,1.0,1.0,1.0,445.1058379997903,3.0,1.0,phase_1,,,,,,,,,,,,,magenta,triangle
1294.0,8.0,4.0,1.0,1.0,1.0,344.1167099999802,3.0,1.0,phase_1,,,,,,,,,,,,,orange,square
1313.0,8.0,4.0,1.0,3.0,3.0,350.3646130000106,3.0,1.0,phase_1,,,,,,,,,,,,,orange,square
629.0,7.0,2.0,1.0,3.0,3.0,361.5102090000164,3.0,1.0,phase_1,,,,,,,,,,,,,magenta,triangle
665.0,7.0,2.0,1.0,2.0,2.0,438.2072339999467,3.0,1.0,phase_1,,,,,,,,,,,,,magenta,triangle
645.0,3.0,2.0,0.0,2.0,2.0,363.9649040001131,3.0,1.0,phase_1,,,,,,,,,,,,,yellow,I
350.0,2.0,1.0,0.0,4.0,4.0,367.3053930001515,3.0,1.0,phase_1,,,,,,,,,,,,,gray,diamond
0.0,5.0,0.0,1.0,2.0,2.0,355.9567990000687,3.0,1.0,phase_1,,,,,,,,,,,,,white,flipped triangle
0.0,4.0,0.0,0.0,2.0,2.0,376.6007110000373,3.0,1.0,phase_1,,,,,,,,,,,,,green,hexagon
316.0,6.0,1.0,1.0,4.0,4.0,367.5664980000874,3.0,1.0,phase_1,,,,,,,,,,,,,cyan,circle
320.0,2.0,1.0,0.0,2.0,2.0,355.718435999961,3.0,1.0,phase_1,,,,,,,,,,,,,gray,diamond
0.0,2.0,0.0,0.0,4.0,4.0,367.2441570001865,3.0,1.0,phase_1,,,,,,,,,,,,,gray,diamond
666.0,3.0,2.0,0.0,1.0,1.0,397.7312449999317,3.0,1.0,phase_1,,,,,,,,,,,,,yellow,I
324.0,6.0,1.0,1.0,2.0,2.0,338.3375480000268,3.0,1.0,phase_1,,,,,,,,,,,,,cyan,circle
637.0,7.0,2.0,1.0,4.0,4.0,348.8906920001682,3.0,1.0,phase_1,,,,,,,,,,,,,magenta,triangle
139.0,1.0,0.5,0.0,4.0,4.0,385.3201370000079,3.0,1.0,phase_1,,,,,,,,,,,,,blue,cross
303.0,6.0,1.0,1.0,3.0,3.0,405.462506999811,3.0,1.0,phase_1,,,,,,,,,,,,,cyan,circle
666.0,3.0,2.0,0.0,4.0,4.0,314.2595299998447,3.0,1.0,phase_1,,,,,,,,,,,,,yellow,I
1289.0,8.0,4.0,1.0,1.0,1.0,390.6935339998654,3.0,1.0,phase_1,,,,,,,,,,,,,orange,square
160.0,1.0,0.5,0.0,1.0,1.0,405.0154659998952,3.0,1.0,phase_1,,,,,,,,,,,,,blue,cross
0.0,2.0,0.0,0.0,2.0,2.0,359.5397309998134,3.0,1.0,phase_1,,,,,,,,,,,,,gray,diamond
336.0,6.0,1.0,1.0,3.0,3.0,373.2358219999696,3.0,1.0,phase_1,,,,,,,,,,,,,cyan,circle
0.0,4.0,0.0,0.0,3.0,3.0,281.529909000028,3.0,1.0,phase_1,,,,,,,,,,,,,green,hexagon
670.0,3.0,2.0,0.0,3.0,3.0,301.5590920001614,3.0,1.0,phase_1,,,,,,,,,,,,,yellow,I
0.0,5.0,0.0,1.0,3.0,3.0,317.4696240000685,3.0,1.0,phase_1,,,,,,,,,,,,,white,flipped triangle
149.0,1.0,0.5,0.0,3.0,3.0,334.9176960000477,3.0,1.0,phase_1,,,,,,,,,,,,,blue,cross
0.0,1.0,0.0,0.0,1.0,1.0,366.0209019999456,3.0,1.0,phase_1,,,,,,,,,,,,,blue,cross
1317.0,4.0,4.0,0.0,3.0,3.0,312.5147509999806,3.0,1.0,phase_1,,,,,,,,,,,,,green,hexagon
0.0,6.0,0.0,1.0,1.0,1.0,415.4979799998273,3.0,1.0,phase_1,,,,,,,,,,,,,cyan,circle
308.0,2.0,1.0,0.0,3.0,3.0,337.5746730000628,3.0,1.0,phase_1,,,,,,,,,,,,,gray,diamond
141.0,5.0,0.5,1.0,2.0,2.0,352.8592600000593,3.0,1.0,phase_1,,,,,,,,,,,,,white,flipped triangle
1319.0,8.0,4.0,1.0,2.0,2.0,370.9642750000057,3.0,1.0,phase_1,,,,,,,,,,,,,orange,square
1278.0,8.0,4.0,1.0,3.0,3.0,319.5298729999649,3.0,1.0,phase_1,,,,,,,,,,,,,orange,square
340.0,6.0,1.0,1.0,3.0,3.0,311.2691420001283,3.0,1.0,phase_1,,,,,,,,,,,,,cyan,circle
0.0,7.0,0.0,1.0,4.0,4.0,344.5292060000611,3.0,1.0,phase_1,,,,,,,,,,,,,magenta,triangle
664.0,7.0,2.0,1.0,3.0,3.0,344.2985760000283,3.0,1.0,phase_1,,,,,,,,,,,,,magenta,triangle
313.0,2.0,1.0,0.0,1.0,1.0,429.0515999998661,3.0,1.0,phase_1,,,,,,,,,,,,,gray,diamond
666.0,7.0,2.0,1.0,2.0,2.0,423.45279999995,3.0,1.0,phase_1,,,,,,,,,,,,,magenta,triangle
1311.0,8.0,4.0,1.0,1.0,1.0,379.4596230000024,3.0,1.0,phase_1,,,,,,,,,,,,,orange,square
653.0,3.0,2.0,0.0,4.0,4.0,362.4990870000601,3.0,1.0,phase_1,,,,,,,,,,,,,yellow,I
154.0,1.0,0.5,0.0,3.0,3.0,383.3304209999824,3.0,1.0,phase_1,,,,,,,,,,,,,blue,cross
316.0,2.0,1.0,0.0,3.0,3.0,361.2328760000309,3.0,1.0,phase_1,,,,,,,,,,,,,gray,diamond
182.0,5.0,0.5,1.0,2.0,2.0,359.4104969999989,3.0,1.0,phase_1,,,,,,,,,,,,,white,flipped triangle
1318.0,4.0,4.0,0.0,2.0,2.0,441.9803250000313,3.0,1.0,phase_1,,,,,,,,,,,,,green,hexagon
183.0,1.0,0.5,0.0,2.0,2.0,414.6545460000652,3.0,1.0,phase_1,,,,,,,,,,,,,blue,cross
1319.0,4.0,4.0,0.0,3.0,3.0,382.3609070000202,3.0,1.0,phase_1,,,,,,,,,,,,,green,hexagon
1321.0,4.0,4.0,0.0,4.0,4.0,395.1325830000769,3.0,1.0,phase_1,,,,,,,,,,,,,green,hexagon
1317.0,8.0,4.0,1.0,2.0,2.0,391.3851830000112,3.0,1.0,phase_1,,,,,,,,,,,,,orange,square
308.0,6.0,1.0,1.0,2.0,2.0,361.60501199992717,3.0,1.0,phase_1,,,,,,,,,,,,,cyan,circle
170.0,1.0,0.5,0.0,2.0,2.0,376.1663020000014,3.0,1.0,phase_1,,,,,,,,,,,,,blue,cross
341.0,2.0,1.0,0.0,3.0,3.0,379.2625979999684,3.0,1.0,phase_1,,,,,,,,,,,,,gray,diamond
183.0,5.0,0.5,1.0,3.0,3.0,367.6902160000281,3.0,1.0,phase_1,,,,,,,,,,,,,white,flipped triangle
310.0,2.0,1.0,0.0,1.0,1.0,339.7867070000302,3.0,1.0,phase_1,,,,,,,,,,,,,gray,diamond
1281.0,4.0,4.0,0.0,2.0,2.0,376.7063029999917,3.0,1.0,phase_1,,,,,,,,,,,,,green,hexagon
185.0,5.0,0.5,1.0,2.0,2.0,414.0669449998313,3.0,1.0,phase_1,,,,,,,,,,,,,white,flipped triangle
0.0,6.0,0.0,1.0,4.0,4.0,364.692949999835,3.0,1.0,phase_1,,,,,,,,,,,,,cyan,circle
173.0,1.0,0.5,0.0,1.0,1.0,382.9718489998868,3.0,1.0,phase_1,,,,,,,,,,,,,blue,cross
0.0,5.0,0.0,1.0,4.0,4.0,356.6168649999781,3.0,1.0,phase_1,,,,,,,,,,,,,white,flipped triangle
153.0,5.0,0.5,1.0,3.0,3.0,376.7745319998994,3.0,1.0,phase_1,,,,,,,,,,,,,white,flipped triangle
1292.0,8.0,4.0,1.0,3.0,3.0,326.3244519998807,3.0,1.0,phase_1,,,,,,,,,,,,,orange,square
642.0,7.0,2.0,1.0,3.0,3.0,324.3463559999782,3.0,1.0,phase_1,,,,,,,,,,,,,magenta,triangle
0.0,2.0,0.0,0.0,3.0,3.0,344.5095490001222,3.0,1.0,phase_1,,,,,,,,,,,,,gray,diamond
1306.0,4.0,4.0,0.0,4.0,4.0,308.744021999928,3.0,1.0,phase_1,,,,,,,,,,,,,green,hexagon
642.0,3.0,2.0,0.0,1.0,1.0,408.5099220001211,4.0,1.0,phase_1,,,,,,,,,,,,,yellow,I
1296.0,8.0,4.0,1.0,2.0,2.0,326.1156559999563,4.0,1.0,phase_1,,,,,,,,,,,,,orange,square
638.0,7.0,2.0,1.0,2.0,2.0,328.8846479999847,4.0,1.0,phase_1,,,,,,,,,,,,,magenta,triangle
0.0,5.0,0.0,1.0,4.0,4.0,317.6341900000352,4.0,1.0,phase_1,,,,,,,,,,,,,white,flipped triangle
650.0,7.0,2.0,1.0,4.0,4.0,409.0294830000403,4.0,1.0,phase_1,,,,,,,,,,,,,magenta,triangle
0.0,5.0,0.0,1.0,4.0,4.0,303.2461450000028,4.0,1.0,phase_1,,,,,,,,,,,,,white,flipped triangle
310.0,6.0,1.0,1.0,1.0,1.0,451.3292540000293,4.0,1.0,phase_1,,,,,,,,,,,,,cyan,circle
1285.0,8.0,4.0,1.0,2.0,2.0,344.0357750000657,4.0,1.0,phase_1,,,,,,,,,,,,,orange,square
637.0,3.0,2.0,0.0,2.0,2.0,325.6619879998652,4.0,1.0,phase_1,,,,,,,,,,,,,yellow,I
1277.0,8.0,4.0,1.0,3.0,3.0,379.4491840001228,4.0,1.0,phase_1,,,,,,,,,,,,,orange,square
0.0,8.0,0.0,1.0,1.0,1.0,326.0196409999025,4.0,1.0,phase_1,,,,,,,,,,,,,orange,square
326.0,2.0,1.0,0.0,1.0,1.0,363.1094899999425,4.0,1.0,phase_1,,,,,,,,,,,,,gray,diamond
637.0,7.0,2.0,1.0,4.0,4.0,377.6540000001205,4.0,1.0,phase_1,,,,,,,,,,,,,magenta,triangle
660.0,3.0,2.0,0.0,1.0,1.0,373.6029149999922,4.0,1.0,phase_1,,,,,,,,,,,,,yellow,I
161.0,5.0,0.5,1.0,3.0,3.0,346.3710359999368,4.0,1.0,phase_1,,,,,,,,,,,,,white,flipped triangle
674.0,3.0,2.0,0.0,4.0,4.0,351.9268339998689,4.0,1.0,phase_1,,,,,,,,,,,,,yellow,I
137.0,1.0,0.5,0.0,1.0,1.0,369.8259760001292,4.0,1.0,phase_1,,,,,,,,,,,,,blue,cross
174.0,1.0,0.5,0.0,3.0,3.0,336.1120459999256,4.0,1.0,phase_1,,,,,,,,,,,,,blue,cross
307.0,2.0,1.0,0.0,1.0,1.0,347.1106599999984,4.0,1.0,phase_1,,,,,,,,,,,,,gray,diamond
150.0,5.0,0.5,1.0,4.0,4.0,295.9733259999666,4.0,1.0,phase_1,,,,,,,,,,,,,white,flipped triangle
318.0,2.0,1.0,0.0,4.0,4.0,335.1046549998955,4.0,1.0,phase_1,,,,,,,,,,,,,gray,diamond
170.0,1.0,0.5,0.0,3.0,3.0,338.05419600003,4.0,1.0,phase_1,,,,,,,,,,,,,blue,cross
1311.0,4.0,4.0,0.0,1.0,1.0,341.225828000006,4.0,1.0,phase_1,,,,,,,,,,,,,green,hexagon
343.0,6.0,1.0,1.0,2.0,2.0,372.3582929999338,4.0,1.0,phase_1,,,,,,,,,,,,,cyan,circle
0.0,2.0,0.0,0.0,4.0,4.0,376.6346879999673,4.0,1.0,phase_1,,,,,,,,,,,,,gray,diamond
164.0,1.0,0.5,0.0,3.0,3.0,331.7803519998961,4.0,1.0,phase_1,,,,,,,,,,,,,blue,cross
304.0,6.0,1.0,1.0,2.0,2.0,360.922316999904,4.0,1.0,phase_1,,,,,,,,,,,,,cyan,circle
153.0,1.0,0.5,0.0,3.0,3.0,373.0718270001034,4.0,1.0,phase_1,,,,,,,,,,,,,blue,cross
348.0,6.0,1.0,1.0,4.0,4.0,329.9732870000298,4.0,1.0,phase_1,,,,,,,,,,,,,cyan,circle
347.0,2.0,1.0,0.0,1.0,1.0,367.9192839999814,4.0,1.0,phase_1,,,,,,,,,,,,,gray,diamond
139.0,5.0,0.5,1.0,3.0,3.0,379.9046230001295,4.0,1.0,phase_1,,,,,,,,,,,,,white,flipped triangle
0.0,6.0,0.0,1.0,4.0,4.0,359.3118009998761,4.0,1.0,phase_1,,,,,,,,,,,,,cyan,circle
166.0,1.0,0.5,0.0,4.0,4.0,339.9703269999463,4.0,1.0,phase_1,,,,,,,,,,,,,blue,cross
0.0,6.0,0.0,1.0,1.0,1.0,353.8612109998666,4.0,1.0,phase_1,,,,,,,,,,,,,cyan,circle
666.0,7.0,2.0,1.0,1.0,1.0,429.8217329999261,4.0,1.0,phase_1,,,,,,,,,,,,,magenta,triangle
1300.0,8.0,4.0,1.0,4.0,4.0,386.5441069999633,4.0,1.0,phase_1,,,,,,,,,,,,,orange,square
630.0,7.0,2.0,1.0,4.0,4.0,320.6645510001635,4.0,1.0,phase_1,,,,,,,,,,,,,magenta,triangle
0.0,8.0,0.0,1.0,2.0,2.0,364.047772000049,4.0,1.0,phase_1,,,,,,,,,,,,,orange,square
634.0,7.0,2.0,1.0,1.0,1.0,448.1505090000155,4.0,1.0,phase_1,,,,,,,,,,,,,magenta,triangle
0.0,5.0,0.0,1.0,2.0,2.0,388.5599289999391,4.0,1.0,phase_1,,,,,,,,,,,,,white,flipped triangle
645.0,7.0,2.0,1.0,2.0,2.0,384.6300610000526,4.0,1.0,phase_1,,,,,,,,,,,,,magenta,triangle
640.0,7.0,2.0,1.0,2.0,2.0,373.7830109998867,4.0,1.0,phase_1,,,,,,,,,,,,,magenta,triangle
158.0,5.0,0.5,1.0,2.0,2.0,323.7360779999108,4.0,1.0,phase_1,,,,,,,,,,,,,white,flipped triangle
1320.0,4.0,4.0,0.0,3.0,3.0,390.764542999932,4.0,1.0,phase_1,,,,,,,,,,,,,green,hexagon
340.0,2.0,1.0,0.0,1.0,1.0,365.6279750000522,4.0,1.0,phase_1,,,,,,,,,,,,,gray,diamond
0.0,8.0,0.0,1.0,4.0,4.0,400.8324500000526,4.0,1.0,phase_1,,,,,,,,,,,,,orange,square
1278.0,8.0,4.0,1.0,4.0,4.0,364.8440789997949,4.0,1.0,phase_1,,,,,,,,,,,,,orange,square
0.0,3.0,0.0,0.0,3.0,3.0,324.2364840000391,4.0,1.0,phase_1,,,,,,,,,,,,,yellow,I
651.0,7.0,2.0,1.0,1.0,1.0,424.216523000041,4.0,1.0,phase_1,,,,,,,,,,,,,magenta,triangle
0.0,3.0,0.0,0.0,4.0,4.0,331.3295339999058,4.0,1.0,phase_1,,,,,,,,,,,,,yellow,I
324.0,2.0,1.0,0.0,4.0,4.0,361.5661579999596,4.0,1.0,phase_1,,,,,,,,,,,,,gray,diamond
311.0,6.0,1.0,1.0,2.0,2.0,387.8913859998647,4.0,1.0,phase_1,,,,,,,,,,,,,cyan,circle
0.0,4.0,0.0,0.0,4.0,4.0,385.0413889999799,4.0,1.0,phase_1,,,,,,,,,,,,,green,hexagon
149.0,5.0,0.5,1.0,3.0,3.0,344.2616130000715,4.0,1.0,phase_1,,,,,,,,,,,,,white,flipped triangle
162.0,5.0,0.5,1.0,2.0,2.0,370.1927699999032,4.0,1.0,phase_1,,,,,,,,,,,,,white,flipped triangle
330.0,2.0,1.0,0.0,2.0,2.0,358.2485949998499,4.0,1.0,phase_1,,,,,,,,,,,,,gray,diamond
1303.0,4.0,4.0,0.0,3.0,3.0,331.2049000001025,4.0,1.0,phase_1,,,,,,,,,,,,,green,hexagon
1320.0,4.0,4.0,0.0,3.0,3.0,376.3867029999801,4.0,1.0,phase_1,,,,,,,,,,,,,green,hexagon
182.0,1.0,0.5,0.0,2.0,2.0,414.3470379999598,4.0,1.0,phase_1,,,,,,,,,,,,,blue,cross
0.0,4.0,0.0,0.0,3.0,3.0,354.3079670000679,4.0,1.0,phase_1,,,,,,,,,,,,,green,hexagon
163.0,5.0,0.5,1.0,4.0,4.0,334.7082580000915,4.0,1.0,phase_1,,,,,,,,,,,,,white,flipped triangle
0.0,3.0,0.0,0.0,1.0,1.0,403.6388629999692,4.0,1.0,phase_1,,,,,,,,,,,,,yellow,I
156.0,1.0,0.5,0.0,4.0,4.0,366.5934779999134,4.0,1.0,phase_1,,,,,,,,,,,,,blue,cross
146.0,1.0,0.5,0.0,1.0,1.0,341.0514239999429,4.0,1.0,phase_1,,,,,,,,,,,,,blue,cross
307.0,6.0,1.0,1.0,3.0,3.0,375.431221999861,4.0,1.0,phase_1,,,,,,,,,,,,,cyan,circle
341.0,6.0,1.0,1.0,4.0,4.0,350.9138290000919,4.0,1.0,phase_1,,,,,,,,,,,,,cyan,circle
1308.0,8.0,4.0,1.0,1.0,1.0,353.2145239998954,4.0,1.0,phase_1,,,,,,,,,,,,,orange,square
0.0,3.0,0.0,0.0,3.0,3.0,397.2666870001831,4.0,1.0,phase_1,,,,,,,,,,,,,yellow,I
316.0,2.0,1.0,0.0,3.0,3.0,393.904460000158,4.0,1.0,phase_1,,,,,,,,,,,,,gray,diamond
1289.0,4.0,4.0,0.0,1.0,1.0,358.7244509999436,4.0,1.0,phase_1,,,,,,,,,,,,,green,hexagon
1277.0,4.0,4.0,0.0,3.0,3.0,331.5436509999472,4.0,1.0,phase_1,,,,,,,,,,,,,green,hexagon
662.0,7.0,2.0,1.0,3.0,3.0,367.7624310000738,4.0,1.0,phase_1,,,,,,,,,,,,,magenta,triangle
660.0,3.0,2.0,0.0,3.0,3.0,335.586289000048,4.0,1.0,phase_1,,,,,,,,,,,,,yellow,I
320.0,6.0,1.0,1.0,2.0,2.0,369.6724490000633,4.0,1.0,phase_1,,,,,,,,,,,,,cyan,circle
170.0,5.0,0.5,1.0,4.0,4.0,325.8449319998817,4.0,1.0,phase_1,,,,,,,,,,,,,white,flipped triangle
0.0,2.0,0.0,0.0,2.0,2.0,389.0042600000924,4.0,1.0,phase_1,,,,,,,,,,,,,gray,diamond
669.0,7.0,2.0,1.0,4.0,4.0,423.6023969999678,4.0,1.0,phase_1,,,,,,,,,,,,,magenta,triangle
343.0,2.0,1.0,0.0,4.0,4.0,403.543443999979,4.0,1.0,phase_1,,,,,,,,,,,,,gray,diamond
183.0,5.0,0.5,1.0,1.0,1.0,394.3265979999069,4.0,1.0,phase_1,,,,,,,,,,,,,white,flipped triangle
647.0,3.0,2.0,0.0,2.0,2.0,470.6822709999869,4.0,1.0,phase_1,,,,,,,,,,,,,yellow,I
0.0,3.0,0.0,0.0,4.0,4.0,355.6386079999356,4.0,1.0,phase_1,,,,,,,,,,,,,yellow,I
350.0,6.0,1.0,1.0,4.0,4.0,352.7120080000259,4.0,1.0,phase_1,,,,,,,,,,,,,cyan,circle
321.0,6.0,1.0,1.0,3.0,3.0,364.7637910000867,4.0,1.0,phase_1,,,,,,,,,,,,,cyan,circle
163.0,1.0,0.5,0.0,1.0,1.0,329.3252839998786,4.0,1.0,phase_1,,,,,,,,,,,,,blue,cross
340.0,2.0,1.0,0.0,4.0,4.0,316.5512530001706,4.0,1.0,phase_1,,,,,,,,,,,,,gray,diamond
336.0,6.0,1.0,1.0,1.0,1.0,355.4066439999133,4.0,1.0,phase_1,,,,,,,,,,,,,cyan,circle
671.0,3.0,2.0,0.0,4.0,4.0,357.9149469999265,4.0,1.0,phase_1,,,,,,,,,,,,,yellow,I
1278.0,4.0,4.0,0.0,4.0,4.0,314.5237100000031,4.0,1.0,phase_1,,,,,,,,,,,,,green,hexagon
0.0,8.0,0.0,1.0,3.0,3.0,391.067927999984,4.0,1.0,phase_1,,,,,,,,,,,,,orange,square
173.0,5.0,0.5,1.0,3.0,3.0,523.7786190000406,4.0,1.0,phase_1,,,,,,,,,,,,,white,flipped triangle
1315.0,8.0,4.0,1.0,4.0,4.0,385.9063259999402,4.0,1.0,phase_1,,,,,,,,,,,,,orange,square
327.0,6.0,1.0,1.0,1.0,1.0,340.8144229999834,4.0,1.0,phase_1,,,,,,,,,,,,,cyan,circle
0.0,7.0,0.0,1.0,4.0,4.0,323.4608980001212,4.0,1.0,phase_1,,,,,,,,,,,,,magenta,triangle
311.0,2.0,1.0,0.0,3.0,3.0,367.5143630000548,4.0,1.0,phase_1,,,,,,,,,,,,,gray,diamond
150.0,1.0,0.5,0.0,3.0,3.0,331.8796519999978,4.0,1.0,phase_1,,,,,,,,,,,,,blue,cross
1303.0,8.0,4.0,1.0,3.0,3.0,329.8722939998697,4.0,1.0,phase_1,,,,,,,,,,,,,orange,square
0.0,7.0,0.0,1.0,1.0,1.0,341.504372999907,4.0,1.0,phase_1,,,,,,,,,,,,,magenta,triangle
318.0,6.0,1.0,1.0,3.0,3.0,361.01225099992,4.0,1.0,phase_1,,,,,,,,,,,,,cyan,circle
148.0,1.0,0.5,0.0,4.0,4.0,383.6141219999263,4.0,1.0,phase_1,,,,,,,,,,,,,blue,cross
180.0,5.0,0.5,1.0,4.0,4.0,322.744812999872,4.0,1.0,phase_1,,,,,,,,,,,,,white,flipped triangle
0.0,5.0,0.5,1.0,5.0,0.0,0.0,1.0,1.0,phase_2,stop,250.0,250.0,4.0,,,,,,,,,white,flipped triangle
0.0,4.0,4.0,0.0,6.0,6.0,289.9414859998614,1.0,1.0,phase_2,go,300.0,250.0,1.0,,,,,,,,,green,hexagon
0.0,3.0,2.0,0.0,5.0,5.0,275.5399679999755,1.0,1.0,phase_2,go,300.0,250.0,1.0,,,,,,,,,yellow,I
0.0,5.0,0.5,1.0,5.0,5.0,289.0068560000145,1.0,1.0,phase_2,go,300.0,250.0,1.0,,,,,,,,,white,flipped triangle
0.0,6.0,1.0,1.0,6.0,6.0,352.5215069998921,1.0,1.0,phase_2,go,300.0,250.0,1.0,,,,,,,,,cyan,circle
0.0,6.0,1.0,1.0,6.0,6.0,302.7242839998507,1.0,1.0,phase_2,stop,300.0,250.0,3.0,,,,,,,,,cyan,circle
0.0,5.0,0.5,1.0,6.0,6.0,351.7661829996541,1.0,1.0,phase_2,stop,300.0,200.0,3.0,,,,,,,,,white,flipped triangle
0.0,4.0,4.0,0.0,5.0,5.0,277.3297640001146,1.0,1.0,phase_2,go,300.0,150.0,1.0,,,,,,,,,green,hexagon
0.0,1.0,0.5,0.0,6.0,6.0,286.4412060002905,1.0,1.0,phase_2,go,300.0,150.0,1.0,,,,,,,,,blue,cross
0.0,2.0,1.0,0.0,5.0,5.0,301.0151629996471,1.0,1.0,phase_2,go,300.0,150.0,1.0,,,,,,,,,gray,diamond
0.0,7.0,2.0,1.0,5.0,5.0,302.74513099993777,1.0,1.0,phase_2,go,300.0,150.0,1.0,,,,,,,,,magenta,triangle
0.0,5.0,0.5,1.0,6.0,6.0,308.5239600000022,1.0,1.0,phase_2,stop,300.0,150.0,3.0,,,,,,,,,white,flipped triangle
0.0,3.0,2.0,0.0,6.0,6.0,378.889215000072,1.0,1.0,phase_2,go,300.0,100.0,1.0,,,,,,,,,yellow,I
0.0,3.0,2.0,0.0,5.0,5.0,322.4758030000885,1.0,1.0,phase_2,go,300.0,100.0,1.0,,,,,,,,,yellow,I
0.0,5.0,0.5,1.0,6.0,0.0,0.0,1.0,1.0,phase_2,stop,300.0,100.0,4.0,,,,,,,,,white,flipped triangle
0.0,8.0,4.0,1.0,5.0,5.0,298.1572230000893,1.0,1.0,phase_2,stop,300.0,150.0,3.0,,,,,,,,,orange,square
0.0,8.0,4.0,1.0,6.0,0.0,0.0,1.0,1.0,phase_2,stop,250.0,150.0,4.0,,,,,,,,,orange,square
0.0,4.0,4.0,0.0,6.0,6.0,471.6405179997309,1.0,1.0,phase_2,go,250.0,200.0,1.0,,,,,,,,,green,hexagon
0.0,5.0,0.5,1.0,6.0,6.0,353.4912239997538,1.0,1.0,phase_2,stop,250.0,200.0,3.0,,,,,,,,,white,flipped triangle
0.0,2.0,1.0,0.0,5.0,5.0,447.7875589996074,1.0,1.0,phase_2,go,250.0,150.0,1.0,,,,,,,,,gray,diamond
0.0,2.0,1.0,0.0,5.0,5.0,510.3234240000347,1.0,1.0,phase_2,go,250.0,150.0,1.0,,,,,,,,,gray,diamond
0.0,7.0,2.0,1.0,5.0,5.0,300.7446460001119,1.0,1.0,phase_2,stop,250.0,150.0,3.0,,,,,,,,,magenta,triangle
0.0,3.0,2.0,0.0,6.0,6.0,524.9911000000793,1.0,1.0,phase_2,go,200.0,150.0,1.0,,,,,,,,,yellow,I
0.0,1.0,0.5,0.0,6.0,6.0,412.2209550000661,1.0,1.0,phase_2,go,200.0,150.0,1.0,,,,,,,,,blue,cross
0.0,5.0,0.5,1.0,6.0,0.0,0.0,1.0,1.0,phase_2,stop,200.0,150.0,4.0,,,,,,,,,white,flipped triangle
0.0,3.0,2.0,0.0,6.0,6.0,388.3682149999004,1.0,1.0,phase_2,go,200.0,200.0,1.0,,,,,,,,,yellow,I
0.0,5.0,0.5,1.0,6.0,6.0,346.8413319997125,1.0,1.0,phase_2,stop,200.0,200.0,3.0,,,,,,,,,white,flipped triangle
0.0,3.0,2.0,0.0,5.0,5.0,401.851914999952,1.0,1.0,phase_2,go,200.0,150.0,1.0,,,,,,,,,yellow,I
0.0,3.0,2.0,0.0,6.0,6.0,328.7136629996894,1.0,1.0,phase_2,go,200.0,150.0,1.0,,,,,,,,,yellow,I
0.0,7.0,2.0,1.0,5.0,5.0,343.8791710000259,1.0,1.0,phase_2,go,200.0,150.0,1.0,,,,,,,,,magenta,triangle
0.0,7.0,2.0,1.0,5.0,5.0,320.0143279996155,1.0,1.0,phase_2,stop,200.0,150.0,3.0,,,,,,,,,magenta,triangle
0.0,2.0,1.0,0.0,5.0,5.0,375.8908009999686,1.0,1.0,phase_2,go,150.0,150.0,1.0,,,,,,,,,gray,diamond
0.0,1.0,0.5,0.0,6.0,6.0,423.2732139998916,1.0,1.0,phase_2,go,150.0,150.0,1.0,,,,,,,,,blue,cross
0.0,8.0,4.0,1.0,5.0,0.0,0.0,1.0,1.0,phase_2,stop,150.0,150.0,4.0,,,,,,,,,orange,square
0.0,1.0,0.5,0.0,5.0,5.0,319.7106939996956,1.0,1.0,phase_2,go,200.0,150.0,1.0,,,,,,,,,blue,cross
0.0,7.0,2.0,1.0,6.0,0.0,0.0,1.0,1.0,phase_2,stop,200.0,150.0,4.0,,,,,,,,,magenta,triangle
0.0,6.0,1.0,1.0,6.0,6.0,452.3956759999237,2.0,1.0,phase_2,stop,200.0,200.0,3.0,,,,,,,,,cyan,circle
0.0,8.0,4.0,1.0,6.0,0.0,0.0,2.0,1.0,phase_2,stop,200.0,150.0,4.0,,,,,,,,,orange,square
0.0,2.0,1.0,0.0,5.0,5.0,371.0409179998351,2.0,1.0,phase_2,go,200.0,200.0,1.0,,,,,,,,,gray,diamond
0.0,7.0,2.0,1.0,6.0,6.0,369.190523999805,2.0,1.0,phase_2,stop,200.0,200.0,3.0,,,,,,,,,magenta,triangle
0.0,8.0,4.0,1.0,6.0,0.0,0.0,2.0,1.0,phase_2,stop,200.0,150.0,4.0,,,,,,,,,orange,square
0.0,1.0,0.5,0.0,5.0,5.0,439.3902589999925,2.0,1.0,phase_2,go,200.0,200.0,1.0,,,,,,,,,blue,cross
0.0,4.0,4.0,0.0,5.0,5.0,409.5769030000156,2.0,1.0,phase_2,go,200.0,200.0,1.0,,,,,,,,,green,hexagon
0.0,4.0,4.0,0.0,6.0,6.0,480.2005960000315,2.0,1.0,phase_2,go,200.0,200.0,1.0,,,,,,,,,green,hexagon
0.0,8.0,4.0,1.0,6.0,0.0,0.0,2.0,1.0,phase_2,stop,200.0,200.0,4.0,,,,,,,,,orange,square
0.0,6.0,1.0,1.0,6.0,0.0,0.0,2.0,1.0,phase_2,stop,200.0,250.0,4.0,,,,,,,,,cyan,circle
0.0,1.0,0.5,0.0,5.0,5.0,399.2855340002279,2.0,1.0,phase_2,go,200.0,300.0,1.0,,,,,,,,,blue,cross
0.0,2.0,1.0,0.0,5.0,5.0,356.635830000414,2.0,1.0,phase_2,go,200.0,300.0,1.0,,,,,,,,,gray,diamond
0.0,7.0,2.0,1.0,5.0,0.0,0.0,2.0,1.0,phase_2,stop,200.0,300.0,4.0,,,,,,,,,magenta,triangle
0.0,5.0,0.5,1.0,5.0,5.0,691.1833250001109,2.0,1.0,phase_2,go,250.0,300.0,1.0,,,,,,,,,white,flipped triangle
0.0,6.0,1.0,1.0,6.0,0.0,0.0,2.0,1.0,phase_2,stop,250.0,300.0,4.0,,,,,,,,,cyan,circle
0.0,4.0,4.0,0.0,6.0,6.0,521.8590710001081,2.0,1.0,phase_2,go,250.0,350.0,1.0,,,,,,,,,green,hexagon
0.0,6.0,1.0,1.0,6.0,6.0,704.7544209999614,2.0,1.0,phase_2,go,250.0,350.0,1.0,,,,,,,,,cyan,circle
0.0,1.0,0.5,0.0,6.0,6.0,416.2802179998834,2.0,1.0,phase_2,go,250.0,350.0,1.0,,,,,,,,,blue,cross
0.0,3.0,2.0,0.0,5.0,5.0,463.7557720002405,2.0,1.0,phase_2,go,250.0,350.0,1.0,,,,,,,,,yellow,I
0.0,5.0,0.5,1.0,5.0,0.0,0.0,2.0,1.0,phase_2,stop,250.0,350.0,4.0,,,,,,,,,white,flipped triangle
0.0,6.0,1.0,1.0,6.0,0.0,0.0,2.0,1.0,phase_2,stop,300.0,350.0,4.0,,,,,,,,,cyan,circle
0.0,5.0,0.5,1.0,5.0,5.0,439.4748830000026,2.0,1.0,phase_2,stop,300.0,400.0,3.0,,,,,,,,,white,flipped triangle
0.0,2.0,1.0,0.0,6.0,6.0,693.5928160000913,2.0,1.0,phase_2,go,250.0,400.0,1.0,,,,,,,,,gray,diamond
0.0,8.0,4.0,1.0,6.0,0.0,0.0,2.0,1.0,phase_2,stop,250.0,400.0,4.0,,,,,,,,,orange,square
0.0,7.0,2.0,1.0,5.0,0.0,0.0,2.0,1.0,phase_2,stop,250.0,450.0,4.0,,,,,,,,,magenta,triangle
0.0,1.0,0.5,0.0,6.0,6.0,684.9615979999726,2.0,1.0,phase_2,go,300.0,450.0,1.0,,,,,,,,,blue,cross
0.0,7.0,2.0,1.0,5.0,5.0,748.9567530001295,2.0,1.0,phase_2,go,300.0,450.0,1.0,,,,,,,,,magenta,triangle
0.0,1.0,0.5,0.0,5.0,5.0,786.6700950003178,2.0,1.0,phase_2,go,300.0,450.0,1.0,,,,,,,,,blue,cross
0.0,4.0,4.0,0.0,5.0,5.0,850.2787020001961,2.0,1.0,phase_2,go,300.0,450.0,1.0,,,,,,,,,green,hexagon
0.0,3.0,2.0,0.0,6.0,6.0,699.4504890003554,2.0,1.0,phase_2,go,300.0,450.0,1.0,,,,,,,,,yellow,I
0.0,3.0,2.0,0.0,5.0,5.0,744.4641709998905,2.0,1.0,phase_2,go,300.0,450.0,1.0,,,,,,,,,yellow,I
0.0,4.0,4.0,0.0,5.0,5.0,602.0078299998204,2.0,1.0,phase_2,go,300.0,450.0,1.0,,,,,,,,,green,hexagon
0.0,1.0,0.5,0.0,5.0,5.0,559.392040000148,2.0,1.0,phase_2,go,300.0,450.0,1.0,,,,,,,,,blue,cross
0.0,5.0,0.5,1.0,5.0,0.0,0.0,2.0,1.0,phase_2,stop,300.0,450.0,4.0,,,,,,,,,white,flipped triangle
0.0,3.0,2.0,0.0,5.0,5.0,670.2032880002662,2.0,1.0,phase_2,go,350.0,450.0,1.0,,,,,,,,,yellow,I
0.0,1.0,0.5,0.0,5.0,5.0,695.8629209998435,2.0,1.0,phase_2,go,350.0,450.0,1.0,,,,,,,,,blue,cross
0.0,7.0,2.0,1.0,6.0,6.0,463.8808559998324,3.0,1.0,phase_2,go,350.0,450.0,1.0,,,,,,,,,magenta,triangle
0.0,6.0,1.0,1.0,5.0,5.0,479.3169169997782,3.0,1.0,phase_2,stop,350.0,450.0,3.0,,,,,,,,,cyan,circle
0.0,2.0,1.0,0.0,5.0,5.0,607.2001140000793,3.0,1.0,phase_2,go,300.0,450.0,1.0,,,,,,,,,gray,diamond
0.0,3.0,2.0,0.0,5.0,5.0,646.3675499999226,3.0,1.0,phase_2,go,300.0,450.0,1.0,,,,,,,,,yellow,I
0.0,4.0,4.0,0.0,6.0,6.0,653.0253999999331,3.0,1.0,phase_2,go,300.0,450.0,1.0,,,,,,,,,green,hexagon
0.0,6.0,1.0,1.0,5.0,0.0,0.0,3.0,1.0,phase_2,stop,300.0,450.0,4.0,,,,,,,,,cyan,circle
0.0,3.0,2.0,0.0,5.0,5.0,614.9791630000436,3.0,1.0,phase_2,go,350.0,450.0,1.0,,,,,,,,,yellow,I
0.0,5.0,0.5,1.0,6.0,0.0,0.0,3.0,1.0,phase_2,stop,350.0,450.0,4.0,,,,,,,,,white,flipped triangle
0.0,5.0,0.5,1.0,6.0,6.0,587.7704800000174,3.0,1.0,phase_2,stop,350.0,500.0,3.0,,,,,,,,,white,flipped triangle
0.0,2.0,1.0,0.0,6.0,6.0,778.8750989998334,3.0,1.0,phase_2,go,350.0,450.0,1.0,,,,,,,,,gray,diamond
0.0,8.0,4.0,1.0,6.0,0.0,0.0,3.0,1.0,phase_2,stop,350.0,450.0,4.0,,,,,,,,,orange,square
0.0,1.0,0.5,0.0,5.0,5.0,688.884465999763,3.0,1.0,phase_2,go,350.0,500.0,1.0,,,,,,,,,blue,cross
0.0,5.0,0.5,1.0,5.0,5.0,688.1231939996724,3.0,1.0,phase_2,go,350.0,500.0,1.0,,,,,,,,,white,flipped triangle
0.0,1.0,0.5,0.0,6.0,6.0,682.8364829998463,3.0,1.0,phase_2,go,350.0,500.0,1.0,,,,,,,,,blue,cross
0.0,1.0,0.5,0.0,5.0,5.0,735.53872399998,3.0,1.0,phase_2,go,350.0,500.0,1.0,,,,,,,,,blue,cross
0.0,3.0,2.0,0.0,6.0,6.0,710.7148479999523,3.0,1.0,phase_2,go,350.0,500.0,1.0,,,,,,,,,yellow,I
0.0,5.0,0.5,1.0,5.0,0.0,0.0,3.0,1.0,phase_2,stop,350.0,500.0,4.0,,,,,,,,,white,flipped triangle
0.0,7.0,2.0,1.0,5.0,0.0,0.0,3.0,1.0,phase_2,stop,400.0,500.0,4.0,,,,,,,,,magenta,triangle
0.0,2.0,1.0,0.0,6.0,6.0,500.39738399982525,3.0,1.0,phase_2,go,450.0,500.0,1.0,,,,,,,,,gray,diamond
0.0,6.0,1.0,1.0,5.0,0.0,0.0,3.0,1.0,phase_2,stop,450.0,500.0,4.0,,,,,,,,,cyan,circle
0.0,7.0,2.0,1.0,5.0,5.0,940.0332579998576,3.0,1.0,phase_2,go,500.0,500.0,1.0,,,,,,,,,magenta,triangle
0.0,4.0,4.0,0.0,5.0,5.0,819.4717960000162,3.0,1.0,phase_2,go,500.0,500.0,1.0,,,,,,,,,green,hexagon
0.0,5.0,0.5,1.0,5.0,5.0,1026.458287999958,3.0,1.0,phase_2,go,500.0,500.0,1.0,,,,,,,,,white,flipped triangle
0.0,8.0,4.0,1.0,5.0,0.0,0.0,3.0,1.0,phase_2,stop,500.0,500.0,4.0,,,,,,,,,orange,square
0.0,1.0,0.5,0.0,6.0,6.0,841.2183650002589,3.0,1.0,phase_2,go,550.0,500.0,1.0,,,,,,,,,blue,cross
0.0,8.0,4.0,1.0,6.0,0.0,0.0,3.0,1.0,phase_2,stop,550.0,500.0,4.0,,,,,,,,,orange,square
0.0,4.0,4.0,0.0,6.0,6.0,785.1751089997379,3.0,1.0,phase_2,go,550.0,550.0,1.0,,,,,,,,,green,hexagon
0.0,6.0,1.0,1.0,6.0,0.0,0.0,3.0,1.0,phase_2,stop,550.0,550.0,4.0,,,,,,,,,cyan,circle
0.0,4.0,4.0,0.0,5.0,5.0,817.5294789998588,3.0,1.0,phase_2,go,550.0,600.0,1.0,,,,,,,,,green,hexagon
0.0,7.0,2.0,1.0,5.0,0.0,0.0,3.0,1.0,phase_2,stop,550.0,600.0,4.0,,,,,,,,,magenta,triangle
0.0,3.0,2.0,0.0,6.0,6.0,871.5161619998071,3.0,1.0,phase_2,go,600.0,600.0,1.0,,,,,,,,,yellow,I
0.0,4.0,4.0,0.0,5.0,5.0,1029.1111789997558,3.0,1.0,phase_2,go,600.0,600.0,1.0,,,,,,,,,green,hexagon
0.0,7.0,2.0,1.0,5.0,0.0,0.0,3.0,1.0,phase_2,stop,600.0,600.0,4.0,,,,,,,,,magenta,triangle
0.0,2.0,1.0,0.0,5.0,5.0,804.1391379997549,3.0,1.0,phase_2,go,650.0,600.0,1.0,,,,,,,,,gray,diamond
0.0,7.0,2.0,1.0,5.0,0.0,0.0,3.0,1.0,phase_2,stop,650.0,600.0,4.0,,,,,,,,,magenta,triangle
0.0,1.0,0.5,0.0,6.0,6.0,978.7854290002542,3.0,1.0,phase_2,go,700.0,600.0,1.0,,,,,,,,,blue,cross
0.0,4.0,4.0,0.0,5.0,5.0,745.0279390000105,4.0,1.0,phase_2,go,700.0,600.0,1.0,,,,,,,,,green,hexagon
0.0,1.0,0.5,0.0,5.0,5.0,768.26027099969,4.0,1.0,phase_2,go,700.0,600.0,1.0,,,,,,,,,blue,cross
0.0,2.0,1.0,0.0,6.0,6.0,727.7068509997662,4.0,1.0,phase_2,go,700.0,600.0,1.0,,,,,,,,,gray,diamond
0.0,4.0,4.0,0.0,5.0,5.0,686.106774000109,4.0,1.0,phase_2,go,700.0,600.0,1.0,,,,,,,,,green,hexagon
0.0,6.0,1.0,1.0,6.0,6.0,678.4421850002218,4.0,1.0,phase_2,go,700.0,600.0,1.0,,,,,,,,,cyan,circle
0.0,7.0,2.0,1.0,6.0,6.0,709.4399799998428,4.0,1.0,phase_2,stop,700.0,600.0,3.0,,,,,,,,,magenta,triangle
0.0,3.0,2.0,0.0,5.0,5.0,692.7991279999333,4.0,1.0,phase_2,go,700.0,550.0,1.0,,,,,,,,,yellow,I
0.0,6.0,1.0,1.0,5.0,5.0,722.1115610000197,4.0,1.0,phase_2,stop,700.0,550.0,3.0,,,,,,,,,cyan,circle
0.0,3.0,2.0,0.0,5.0,5.0,700.396821999675,4.0,1.0,phase_2,go,650.0,550.0,1.0,,,,,,,,,yellow,I
0.0,3.0,2.0,0.0,5.0,5.0,740.9706230000666,4.0,1.0,phase_2,go,650.0,550.0,1.0,,,,,,,,,yellow,I
0.0,7.0,2.0,1.0,6.0,0.0,0.0,4.0,1.0,phase_2,stop,650.0,550.0,4.0,,,,,,,,,magenta,triangle
0.0,8.0,4.0,1.0,6.0,6.0,754.569593999804,4.0,1.0,phase_2,go,650.0,600.0,1.0,,,,,,,,,orange,square
0.0,8.0,4.0,1.0,5.0,0.0,0.0,4.0,1.0,phase_2,stop,650.0,600.0,4.0,,,,,,,,,orange,square
0.0,2.0,1.0,0.0,5.0,5.0,810.0328149998859,4.0,1.0,phase_2,go,700.0,600.0,1.0,,,,,,,,,gray,diamond
0.0,2.0,1.0,0.0,5.0,5.0,511.732130999917,4.0,1.0,phase_2,go,700.0,600.0,1.0,,,,,,,,,gray,diamond
0.0,2.0,1.0,0.0,6.0,6.0,968.5143179999612,4.0,1.0,phase_2,go,700.0,600.0,1.0,,,,,,,,,gray,diamond
0.0,4.0,4.0,0.0,6.0,6.0,1062.72380900009,4.0,1.0,phase_2,go,700.0,600.0,1.0,,,,,,,,,green,hexagon
0.0,8.0,4.0,1.0,5.0,0.0,0.0,4.0,1.0,phase_2,stop,700.0,600.0,4.0,,,,,,,,,orange,square
0.0,6.0,1.0,1.0,5.0,5.0,853.3636290003415,4.0,1.0,phase_2,stop,750.0,600.0,3.0,,,,,,,,,cyan,circle
0.0,6.0,1.0,1.0,5.0,0.0,0.0,4.0,1.0,phase_2,stop,700.0,600.0,4.0,,,,,,,,,cyan,circle
0.0,3.0,2.0,0.0,5.0,5.0,830.5019450003783,4.0,1.0,phase_2,go,750.0,600.0,1.0,,,,,,,,,yellow,I
0.0,2.0,1.0,0.0,5.0,5.0,1125.4863410003964,4.0,1.0,phase_2,go,750.0,600.0,1.0,,,,,,,,,gray,diamond
0.0,6.0,1.0,1.0,5.0,0.0,0.0,4.0,1.0,phase_2,stop,750.0,600.0,4.0,,,,,,,,,cyan,circle
0.0,8.0,4.0,1.0,5.0,5.0,1035.088025999812,4.0,1.0,phase_2,go,800.0,600.0,1.0,,,,,,,,,orange,square
0.0,5.0,0.5,1.0,6.0,0.0,0.0,4.0,1.0,phase_2,stop,800.0,600.0,4.0,,,,,,,,,white,flipped triangle
0.0,2.0,1.0,0.0,6.0,6.0,729.1477140001916,4.0,1.0,phase_2,go,800.0,650.0,1.0,,,,,,,,,gray,diamond
0.0,2.0,1.0,0.0,6.0,6.0,1216.3173690000804,4.0,1.0,phase_2,go,800.0,650.0,1.0,,,,,,,,,gray,diamond
0.0,7.0,2.0,1.0,5.0,0.0,0.0,4.0,1.0,phase_2,stop,800.0,650.0,4.0,,,,,,,,,magenta,triangle
0.0,3.0,2.0,0.0,6.0,6.0,1071.0444709998228,4.0,1.0,phase_2,go,850.0,650.0,1.0,,,,,,,,,yellow,I
0.0,8.0,4.0,1.0,5.0,5.0,888.8951859998997,4.0,1.0,phase_2,stop,850.0,650.0,3.0,,,,,,,,,orange,square
0.0,5.0,0.5,1.0,5.0,5.0,765.2969350001513,4.0,1.0,phase_2,stop,800.0,650.0,3.0,,,,,,,,,white,flipped triangle
0.0,7.0,2.0,1.0,5.0,0.0,0.0,4.0,1.0,phase_2,stop,750.0,650.0,4.0,,,,,,,,,magenta,triangle
0.0,8.0,4.0,1.0,5.0,5.0,1062.4307719999706,4.0,1.0,phase_2,go,800.0,650.0,1.0,,,,,,,,,orange,square
0.0,3.0,2.0,0.0,6.0,6.0,1246.265529000084,4.0,1.0,phase_2,go,800.0,650.0,1.0,,,,,,,,,yellow,I
0.0,6.0,1.0,1.0,5.0,0.0,0.0,4.0,1.0,phase_2,stop,800.0,650.0,4.0,,,,,,,,,cyan,circle
0.0,8.0,4.0,1.0,5.0,0.0,0.0,4.0,1.0,phase_2,stop,850.0,650.0,4.0,,,,,,,,,orange,square
0.0,1.0,0.5,0.0,6.0,6.0,878.7025419997008,5.0,1.0,phase_2,go,900.0,650.0,1.0,,,,,,,,,blue,cross
0.0,7.0,2.0,1.0,6.0,0.0,0.0,5.0,1.0,phase_2,stop,900.0,650.0,4.0,,,,,,,,,magenta,triangle
0.0,2.0,1.0,0.0,6.0,6.0,852.3718129999907,5.0,1.0,phase_2,go,900.0,700.0,1.0,,,,,,,,,gray,diamond
0.0,8.0,4.0,1.0,6.0,6.0,924.1912749998846,5.0,1.0,phase_2,go,900.0,700.0,1.0,,,,,,,,,orange,square
0.0,1.0,0.5,0.0,5.0,5.0,946.9936830000734,5.0,1.0,phase_2,go,900.0,700.0,1.0,,,,,,,,,blue,cross
0.0,2.0,1.0,0.0,5.0,5.0,969.789039999796,5.0,1.0,phase_2,go,900.0,700.0,1.0,,,,,,,,,gray,diamond
0.0,7.0,2.0,1.0,5.0,5.0,723.1895650002116,5.0,1.0,phase_2,stop,900.0,700.0,3.0,,,,,,,,,magenta,triangle
0.0,8.0,4.0,1.0,5.0,5.0,785.4453290001402,5.0,1.0,phase_2,stop,850.0,700.0,3.0,,,,,,,,,orange,square
0.0,2.0,1.0,0.0,6.0,6.0,1096.8398300001354,5.0,1.0,phase_2,go,800.0,700.0,1.0,,,,,,,,,gray,diamond
0.0,6.0,1.0,1.0,5.0,0.0,0.0,5.0,1.0,phase_2,stop,800.0,700.0,4.0,,,,,,,,,cyan,circle
0.0,4.0,4.0,0.0,6.0,6.0,993.6628069999642,5.0,1.0,phase_2,go,850.0,700.0,1.0,,,,,,,,,green,hexagon
0.0,5.0,0.5,1.0,6.0,0.0,0.0,5.0,1.0,phase_2,stop,850.0,700.0,4.0,,,,,,,,,white,flipped triangle
0.0,6.0,1.0,1.0,6.0,6.0,1030.2338159999636,5.0,1.0,phase_2,go,850.0,750.0,1.0,,,,,,,,,cyan,circle
0.0,4.0,4.0,0.0,6.0,6.0,1295.9570329999224,5.0,1.0,phase_2,go,850.0,750.0,1.0,,,,,,,,,green,hexagon
0.0,3.0,2.0,0.0,5.0,5.0,991.065092000099,5.0,1.0,phase_2,go,850.0,750.0,1.0,,,,,,,,,yellow,I
0.0,8.0,4.0,1.0,5.0,0.0,0.0,5.0,1.0,phase_2,stop,850.0,750.0,4.0,,,,,,,,,orange,square
0.0,6.0,1.0,1.0,5.0,5.0,940.4826720001438,5.0,1.0,phase_2,stop,900.0,750.0,3.0,,,,,,,,,cyan,circle
0.0,6.0,1.0,1.0,5.0,5.0,692.7342530002534,5.0,1.0,phase_2,stop,850.0,750.0,3.0,,,,,,,,,cyan,circle
0.0,3.0,2.0,0.0,6.0,6.0,666.760191999856,5.0,1.0,phase_2,go,800.0,750.0,1.0,,,,,,,,,yellow,I
0.0,1.0,0.5,0.0,6.0,6.0,1434.1117919998396,5.0,1.0,phase_2,go,800.0,750.0,1.0,,,,,,,,,blue,cross
0.0,5.0,0.5,1.0,6.0,6.0,1371.4124680000168,5.0,1.0,phase_2,go,800.0,750.0,1.0,,,,,,,,,white,flipped triangle
0.0,6.0,1.0,1.0,6.0,6.0,1265.2398089999224,5.0,1.0,phase_2,go,800.0,750.0,1.0,,,,,,,,,cyan,circle
0.0,5.0,0.5,1.0,6.0,0.0,0.0,5.0,1.0,phase_2,stop,800.0,750.0,4.0,,,,,,,,,white,flipped triangle
0.0,8.0,4.0,1.0,5.0,0.0,0.0,5.0,1.0,phase_2,stop,800.0,800.0,4.0,,,,,,,,,orange,square
0.0,3.0,2.0,0.0,6.0,6.0,1119.154854000044,5.0,1.0,phase_2,go,850.0,800.0,1.0,,,,,,,,,yellow,I
0.0,4.0,4.0,0.0,5.0,5.0,1214.9127029997544,5.0,1.0,phase_2,go,850.0,800.0,1.0,,,,,,,,,green,hexagon
0.0,4.0,4.0,0.0,5.0,5.0,1446.1115369999789,5.0,1.0,phase_2,go,850.0,800.0,1.0,,,,,,,,,green,hexagon
0.0,6.0,1.0,1.0,6.0,0.0,0.0,5.0,1.0,phase_2,stop,850.0,800.0,4.0,,,,,,,,,cyan,circle
0.0,4.0,4.0,0.0,5.0,5.0,1094.1677230002824,5.0,1.0,phase_2,go,850.0,850.0,1.0,,,,,,,,,green,hexagon
0.0,7.0,2.0,1.0,6.0,6.0,795.1579949999541,5.0,1.0,phase_2,stop,850.0,850.0,3.0,,,,,,,,,magenta,triangle
0.0,5.0,0.5,1.0,6.0,0.0,0.0,5.0,1.0,phase_2,stop,850.0,800.0,4.0,,,,,,,,,white,flipped triangle
0.0,3.0,2.0,0.0,5.0,5.0,932.9285769999842,5.0,1.0,phase_2,go,850.0,850.0,1.0,,,,,,,,,yellow,I
0.0,4.0,4.0,0.0,5.0,5.0,1009.3479359998128,5.0,1.0,phase_2,go,850.0,850.0,1.0,,,,,,,,,green,hexagon
0.0,7.0,2.0,1.0,6.0,0.0,0.0,5.0,1.0,phase_2,stop,850.0,850.0,4.0,,,,,,,,,magenta,triangle
0.0,4.0,4.0,0.0,5.0,5.0,864.7930970000743,5.0,1.0,phase_2,go,850.0,900.0,1.0,,,,,,,,,green,hexagon
0.0,8.0,4.0,1.0,5.0,0.0,0.0,5.0,1.0,phase_2,stop,850.0,900.0,4.0,,,,,,,,,orange,square
0.0,6.0,1.0,1.0,5.0,5.0,835.4950449997887,6.0,1.0,phase_2,stop,900.0,900.0,3.0,,,,,,,,,cyan,circle
0.0,3.0,2.0,0.0,6.0,6.0,1051.8900639999629,6.0,1.0,phase_2,go,850.0,900.0,1.0,,,,,,,,,yellow,I
0.0,2.0,1.0,0.0,5.0,5.0,937.6865489998636,6.0,1.0,phase_2,go,850.0,900.0,1.0,,,,,,,,,gray,diamond
0.0,4.0,4.0,0.0,5.0,5.0,1033.042943000055,6.0,1.0,phase_2,go,850.0,900.0,1.0,,,,,,,,,green,hexagon
0.0,2.0,1.0,0.0,5.0,5.0,794.3717879998076,6.0,1.0,phase_2,go,850.0,900.0,1.0,,,,,,,,,gray,diamond
0.0,3.0,2.0,0.0,5.0,5.0,953.9021489999868,6.0,1.0,phase_2,go,850.0,900.0,1.0,,,,,,,,,yellow,I
0.0,5.0,0.5,1.0,5.0,5.0,919.90622000003,6.0,1.0,phase_2,stop,850.0,900.0,3.0,,,,,,,,,white,flipped triangle
0.0,2.0,1.0,0.0,6.0,6.0,998.4472020000794,6.0,1.0,phase_2,go,800.0,900.0,1.0,,,,,,,,,gray,diamond
0.0,2.0,1.0,0.0,6.0,6.0,998.7469610000516,6.0,1.0,phase_2,go,800.0,900.0,1.0,,,,,,,,,gray,diamond
0.0,7.0,2.0,1.0,6.0,6.0,1024.2363229999685,6.0,1.0,phase_2,stop,800.0,900.0,3.0,,,,,,,,,magenta,triangle
0.0,8.0,4.0,1.0,6.0,6.0,941.3757070001338,6.0,1.0,phase_2,stop,800.0,850.0,3.0,,,,,,,,,orange,square
0.0,8.0,4.0,1.0,5.0,5.0,628.8208480000321,6.0,1.0,phase_2,go,800.0,800.0,1.0,,,,,,,,,orange,square
0.0,4.0,4.0,0.0,6.0,6.0,933.6252539997076,6.0,1.0,phase_2,go,800.0,800.0,1.0,,,,,,,,,green,hexagon
0.0,7.0,2.0,1.0,6.0,6.0,939.010389000032,6.0,1.0,phase_2,go,800.0,800.0,1.0,,,,,,,,,magenta,triangle
0.0,5.0,0.5,1.0,6.0,0.0,0.0,6.0,1.0,phase_2,stop,800.0,800.0,4.0,,,,,,,,,white,flipped triangle
0.0,7.0,2.0,1.0,5.0,5.0,1106.572167000195,6.0,1.0,phase_2,go,800.0,850.0,1.0,,,,,,,,,magenta,triangle
0.0,5.0,0.5,1.0,5.0,5.0,1145.6446249999317,6.0,1.0,phase_2,go,800.0,850.0,1.0,,,,,,,,,white,flipped triangle
0.0,8.0,4.0,1.0,6.0,6.0,864.3408459997772,6.0,1.0,phase_2,go,800.0,850.0,1.0,,,,,,,,,orange,square
0.0,1.0,0.5,0.0,5.0,5.0,1087.7847110000405,6.0,1.0,phase_2,go,800.0,850.0,1.0,,,,,,,,,blue,cross
0.0,5.0,0.5,1.0,5.0,5.0,991.7883910002274,6.0,1.0,phase_2,go,800.0,850.0,1.0,,,,,,,,,white,flipped triangle
0.0,4.0,4.0,0.0,6.0,6.0,1208.2785719999265,6.0,1.0,phase_2,go,800.0,850.0,1.0,,,,,,,,,green,hexagon
0.0,1.0,0.5,0.0,6.0,6.0,990.19758500026,6.0,1.0,phase_2,go,800.0,850.0,1.0,,,,,,,,,blue,cross
0.0,8.0,4.0,1.0,6.0,6.0,1175.855195999702,6.0,1.0,phase_2,go,800.0,850.0,1.0,,,,,,,,,orange,square
0.0,5.0,0.5,1.0,5.0,0.0,0.0,6.0,1.0,phase_2,stop,800.0,850.0,4.0,,,,,,,,,white,flipped triangle
0.0,2.0,1.0,0.0,6.0,6.0,1127.1794760000375,6.0,1.0,phase_2,go,850.0,850.0,1.0,,,,,,,,,gray,diamond
0.0,1.0,0.5,0.0,5.0,5.0,957.3560449998696,6.0,1.0,phase_2,go,850.0,850.0,1.0,,,,,,,,,blue,cross
0.0,2.0,1.0,0.0,5.0,5.0,1043.1475139998838,6.0,1.0,phase_2,go,850.0,850.0,1.0,,,,,,,,,gray,diamond
0.0,1.0,0.5,0.0,5.0,5.0,1058.7168709998878,6.0,1.0,phase_2,go,850.0,850.0,1.0,,,,,,,,,blue,cross
0.0,3.0,2.0,0.0,5.0,5.0,778.1305749999774,6.0,1.0,phase_2,go,850.0,850.0,1.0,,,,,,,,,yellow,I
0.0,8.0,4.0,1.0,5.0,0.0,0.0,6.0,1.0,phase_2,stop,850.0,850.0,4.0,,,,,,,,,orange,square
0.0,1.0,0.5,0.0,5.0,5.0,1203.5352410002815,6.0,1.0,phase_2,go,900.0,850.0,1.0,,,,,,,,,blue,cross
0.0,1.0,0.5,0.0,6.0,6.0,1271.9973140001457,6.0,1.0,phase_2,go,900.0,850.0,1.0,,,,,,,,,blue,cross
0.0,7.0,2.0,1.0,6.0,0.0,0.0,6.0,1.0,phase_2,stop,900.0,850.0,4.0,,,,,,,,,magenta,triangle
0.0,4.0,4.0,0.0,6.0,6.0,1185.5265229996803,6.0,1.0,phase_2,go,900.0,900.0,1.0,,,,,,,,,green,hexagon
0.0,8.0,4.0,1.0,5.0,0.0,0.0,6.0,1.0,phase_2,stop,900.0,900.0,4.0,,,,,,,,,orange,square
0.0,8.0,4.0,1.0,6.0,0.0,0.0,6.0,1.0,phase_2,stop,950.0,900.0,4.0,,,,,,,,,orange,square
0.0,5.0,0.5,1.0,6.0,6.0,1071.8105810001362,7.0,1.0,phase_2,stop,950.0,950.0,3.0,,,,,,,,,white,flipped triangle
0.0,1.0,0.5,0.0,5.0,5.0,950.6958319998377,7.0,1.0,phase_2,go,950.0,900.0,1.0,,,,,,,,,blue,cross
0.0,8.0,4.0,1.0,6.0,6.0,1056.694077999964,7.0,1.0,phase_2,stop,950.0,900.0,3.0,,,,,,,,,orange,square
0.0,4.0,4.0,0.0,5.0,5.0,1191.1524380002447,7.0,1.0,phase_2,go,950.0,850.0,1.0,,,,,,,,,green,hexagon
0.0,5.0,0.5,1.0,5.0,5.0,1094.551240000328,7.0,1.0,phase_2,stop,950.0,850.0,3.0,,,,,,,,,white,flipped triangle
0.0,2.0,1.0,0.0,6.0,6.0,1212.6811329999327,7.0,1.0,phase_2,go,900.0,850.0,1.0,,,,,,,,,gray,diamond
0.0,3.0,2.0,0.0,6.0,6.0,1189.3247670000164,7.0,1.0,phase_2,go,900.0,850.0,1.0,,,,,,,,,yellow,I
0.0,3.0,2.0,0.0,6.0,6.0,1211.4392540001973,7.0,1.0,phase_2,go,900.0,850.0,1.0,,,,,,,,,yellow,I
0.0,6.0,1.0,1.0,5.0,5.0,1061.0239930001626,7.0,1.0,phase_2,go,900.0,850.0,1.0,,,,,,,,,cyan,circle
0.0,6.0,1.0,1.0,5.0,5.0,1044.998474999829,7.0,1.0,phase_2,stop,900.0,850.0,3.0,,,,,,,,,cyan,circle
0.0,6.0,1.0,1.0,6.0,6.0,1056.8776559998696,7.0,1.0,phase_2,go,850.0,850.0,1.0,,,,,,,,,cyan,circle
0.0,3.0,2.0,0.0,5.0,5.0,1049.786593000135,7.0,1.0,phase_2,go,850.0,850.0,1.0,,,,,,,,,yellow,I
0.0,2.0,1.0,0.0,6.0,6.0,1056.459557999915,7.0,1.0,phase_2,go,850.0,850.0,1.0,,,,,,,,,gray,diamond
0.0,1.0,0.5,0.0,6.0,6.0,927.8576390001944,7.0,1.0,phase_2,go,850.0,850.0,1.0,,,,,,,,,blue,cross
0.0,7.0,2.0,1.0,6.0,6.0,951.1334419999002,7.0,1.0,phase_2,go,850.0,850.0,1.0,,,,,,,,,magenta,triangle
0.0,8.0,4.0,1.0,6.0,6.0,1015.9338040002694,7.0,1.0,phase_2,go,850.0,850.0,1.0,,,,,,,,,orange,square
0.0,5.0,0.5,1.0,5.0,5.0,990.0887479998346,7.0,1.0,phase_2,stop,850.0,850.0,3.0,,,,,,,,,white,flipped triangle
0.0,3.0,2.0,0.0,6.0,6.0,940.798008999991,7.0,1.0,phase_2,go,800.0,850.0,1.0,,,,,,,,,yellow,I
0.0,7.0,2.0,1.0,6.0,0.0,0.0,7.0,1.0,phase_2,stop,800.0,850.0,4.0,,,,,,,,,magenta,triangle
0.0,2.0,1.0,0.0,6.0,6.0,1044.1329619998214,7.0,1.0,phase_2,go,800.0,900.0,1.0,,,,,,,,,gray,diamond
0.0,6.0,1.0,1.0,6.0,0.0,0.0,7.0,1.0,phase_2,stop,800.0,900.0,4.0,,,,,,,,,cyan,circle
0.0,1.0,0.5,0.0,5.0,5.0,869.0088170001218,7.0,1.0,phase_2,go,800.0,950.0,1.0,,,,,,,,,blue,cross
0.0,8.0,4.0,1.0,5.0,0.0,0.0,7.0,1.0,phase_2,stop,800.0,950.0,4.0,,,,,,,,,orange,square
0.0,6.0,1.0,1.0,6.0,6.0,961.4523039999768,7.0,1.0,phase_2,go,850.0,950.0,1.0,,,,,,,,,cyan,circle
0.0,2.0,1.0,0.0,5.0,5.0,1129.203880000205,7.0,1.0,phase_2,go,850.0,950.0,1.0,,,,,,,,,gray,diamond
0.0,6.0,1.0,1.0,6.0,0.0,0.0,7.0,1.0,phase_2,stop,850.0,950.0,4.0,,,,,,,,,cyan,circle
0.0,1.0,0.5,0.0,5.0,5.0,863.1875900000523,7.0,1.0,phase_2,go,850.0,1000.0,1.0,,,,,,,,,blue,cross
0.0,8.0,4.0,1.0,5.0,0.0,0.0,7.0,1.0,phase_2,stop,850.0,1000.0,4.0,,,,,,,,,orange,square
0.0,6.0,1.0,1.0,5.0,0.0,0.0,7.0,1.0,phase_2,stop,900.0,1000.0,4.0,,,,,,,,,cyan,circle
0.0,7.0,2.0,1.0,5.0,5.0,764.9240639998425,7.0,1.0,phase_2,stop,950.0,1000.0,3.0,,,,,,,,,magenta,triangle
0.0,4.0,4.0,0.0,6.0,6.0,1181.2320140002155,7.0,1.0,phase_2,go,900.0,1000.0,1.0,,,,,,,,,green,hexagon
0.0,4.0,4.0,0.0,5.0,5.0,1196.5763839998544,7.0,1.0,phase_2,go,900.0,1000.0,1.0,,,,,,,,,green,hexagon
0.0,8.0,4.0,1.0,6.0,0.0,0.0,7.0,1.0,phase_2,stop,900.0,1000.0,4.0,,,,,,,,,orange,square
0.0,5.0,0.5,1.0,5.0,5.0,1276.0511270003008,7.0,1.0,phase_2,go,900.0,1050.0,1.0,,,,,,,,,white,flipped triangle
0.0,5.0,0.5,1.0,6.0,6.0,1275.6289909998486,7.0,1.0,phase_2,go,900.0,1050.0,1.0,,,,,,,,,white,flipped triangle
0.0,7.0,2.0,1.0,5.0,0.0,0.0,7.0,1.0,phase_2,stop,900.0,1050.0,4.0,,,,,,,,,magenta,triangle
0.0,7.0,2.0,1.0,6.0,6.0,1110.9704130003593,8.0,1.0,phase_2,stop,950.0,1050.0,3.0,,,,,,,,,magenta,triangle
0.0,4.0,4.0,0.0,6.0,6.0,878.0198300000848,8.0,1.0,phase_2,go,950.0,1000.0,1.0,,,,,,,,,green,hexagon
0.0,1.0,0.5,0.0,6.0,6.0,591.6757869999856,8.0,1.0,phase_2,go,950.0,1000.0,1.0,,,,,,,,,blue,cross
0.0,4.0,4.0,0.0,5.0,5.0,965.779983000175,8.0,1.0,phase_2,go,950.0,1000.0,1.0,,,,,,,,,green,hexagon
0.0,6.0,1.0,1.0,6.0,6.0,997.0828900000016,8.0,1.0,phase_2,stop,950.0,1000.0,3.0,,,,,,,,,cyan,circle
0.0,2.0,1.0,0.0,6.0,6.0,1037.660724000034,8.0,1.0,phase_2,go,950.0,950.0,1.0,,,,,,,,,gray,diamond
0.0,4.0,4.0,0.0,6.0,6.0,890.7246549997581,8.0,1.0,phase_2,go,950.0,950.0,1.0,,,,,,,,,green,hexagon
0.0,2.0,1.0,0.0,5.0,5.0,313.6443030002738,8.0,1.0,phase_2,go,950.0,950.0,1.0,,,,,,,,,gray,diamond
0.0,5.0,0.5,1.0,6.0,6.0,993.1174190001002,8.0,1.0,phase_2,stop,950.0,950.0,3.0,,,,,,,,,white,flipped triangle
0.0,3.0,2.0,0.0,6.0,6.0,1336.978863999775,8.0,1.0,phase_2,go,950.0,900.0,1.0,,,,,,,,,yellow,I
0.0,7.0,2.0,1.0,6.0,6.0,1008.2081609998568,8.0,1.0,phase_2,go,950.0,900.0,1.0,,,,,,,,,magenta,triangle
0.0,1.0,0.5,0.0,6.0,6.0,1072.8972859997157,8.0,1.0,phase_2,go,950.0,900.0,1.0,,,,,,,,,blue,cross
0.0,5.0,0.5,1.0,6.0,0.0,0.0,8.0,1.0,phase_2,stop,950.0,900.0,4.0,,,,,,,,,white,flipped triangle
0.0,7.0,2.0,1.0,6.0,6.0,1006.077145999825,8.0,1.0,phase_2,stop,950.0,950.0,3.0,,,,,,,,,magenta,triangle
0.0,6.0,1.0,1.0,5.0,5.0,1151.1216899998544,8.0,1.0,phase_2,go,950.0,900.0,1.0,,,,,,,,,cyan,circle
0.0,5.0,0.5,1.0,5.0,0.0,0.0,8.0,1.0,phase_2,stop,950.0,900.0,4.0,,,,,,,,,white,flipped triangle
0.0,6.0,1.0,1.0,5.0,5.0,1142.525434000163,8.0,1.0,phase_2,stop,1000.0,900.0,3.0,,,,,,,,,cyan,circle
0.0,8.0,4.0,1.0,6.0,6.0,1148.582468999848,8.0,1.0,phase_2,go,950.0,900.0,1.0,,,,,,,,,orange,square
0.0,2.0,1.0,0.0,5.0,5.0,1012.4270989999786,8.0,1.0,phase_2,go,950.0,900.0,1.0,,,,,,,,,gray,diamond
0.0,3.0,2.0,0.0,5.0,5.0,346.7652580002323,8.0,1.0,phase_2,go,950.0,900.0,1.0,,,,,,,,,yellow,I
0.0,4.0,4.0,0.0,6.0,6.0,1033.359362000283,8.0,1.0,phase_2,go,950.0,900.0,1.0,,,,,,,,,green,hexagon
0.0,1.0,0.5,0.0,6.0,6.0,996.4500810001482,8.0,1.0,phase_2,go,950.0,900.0,1.0,,,,,,,,,blue,cross
0.0,6.0,1.0,1.0,6.0,6.0,347.1886050001558,8.0,1.0,phase_2,stop,950.0,900.0,3.0,,,,,,,,,cyan,circle
0.0,1.0,0.5,0.0,6.0,6.0,730.0952010000401,8.0,1.0,phase_2,go,950.0,850.0,1.0,,,,,,,,,blue,cross
0.0,4.0,4.0,0.0,6.0,6.0,401.3511970001673,8.0,1.0,phase_2,go,950.0,850.0,1.0,,,,,,,,,green,hexagon
0.0,7.0,2.0,1.0,6.0,0.0,0.0,8.0,1.0,phase_2,stop,950.0,850.0,4.0,,,,,,,,,magenta,triangle
0.0,7.0,2.0,1.0,6.0,6.0,734.2568789999859,8.0,1.0,phase_2,stop,950.0,900.0,3.0,,,,,,,,,magenta,triangle
0.0,1.0,0.5,0.0,6.0,6.0,398.7166340002659,8.0,1.0,phase_2,go,950.0,850.0,1.0,,,,,,,,,blue,cross
0.0,2.0,1.0,0.0,6.0,6.0,879.0219150000667,8.0,1.0,phase_2,go,950.0,850.0,1.0,,,,,,,,,gray,diamond
0.0,8.0,4.0,1.0,6.0,0.0,0.0,8.0,1.0,phase_2,stop,950.0,850.0,4.0,,,,,,,,,orange,square
0.0,4.0,4.0,0.0,6.0,6.0,1070.700233000025,8.0,1.0,phase_2,go,950.0,900.0,1.0,,,,,,,,,green,hexagon
0.0,1.0,0.5,0.0,5.0,5.0,941.1302540001998,8.0,1.0,phase_2,go,950.0,900.0,1.0,,,,,,,,,blue,cross
0.0,3.0,2.0,0.0,6.0,6.0,346.6439539997736,8.0,1.0,phase_2,go,950.0,900.0,1.0,,,,,,,,,yellow,I
0.0,6.0,1.0,1.0,5.0,5.0,572.6339650000227,8.0,1.0,phase_2,stop,950.0,900.0,3.0,,,,,,,,,cyan,circle
0.0,2.0,1.0,0.0,6.0,6.0,339.154150000013,8.0,1.0,phase_2,go,900.0,900.0,1.0,,,,,,,,,gray,diamond
0.0,3.0,2.0,0.0,6.0,6.0,673.0782669997097,8.0,1.0,phase_2,go,900.0,900.0,1.0,,,,,,,,,yellow,I
0.0,3.0,2.0,0.0,7.0,5.0,1712.2747849998632,1.0,1.0,phase_3,,,,,576.0,3.0,384.0,1152.0,960.0,768.0,576.0,192.0,yellow,I
0.0,5.0,0.5,1.0,7.0,1.0,1212.241231999997,1.0,1.0,phase_3,,,,,405.0,3.0,405.0,675.0,270.0,540.0,135.0,810.0,white,flipped triangle
0.0,4.0,4.0,0.0,7.0,2.0,987.6767569999174,1.0,1.0,phase_3,,,,,464.0,4.0,696.0,464.0,348.0,232.0,580.0,116.0,green,hexagon
0.0,5.0,0.5,1.0,7.0,5.0,1084.3974979998166,1.0,1.0,phase_3,,,,,270.0,2.0,675.0,405.0,540.0,810.0,270.0,135.0,white,flipped triangle
0.0,1.0,0.5,0.0,7.0,3.0,919.860387999961,1.0,1.0,phase_3,,,,,462.0,3.0,924.0,770.0,462.0,616.0,308.0,154.0,blue,cross
0.0,3.0,2.0,0.0,7.0,6.0,1345.2770889998646,1.0,1.0,phase_3,,,,,692.0,4.0,173.0,1038.0,865.0,519.0,346.0,692.0,yellow,I
0.0,7.0,2.0,1.0,7.0,6.0,1552.4916409999605,1.0,1.0,phase_3,,,,,770.0,5.0,616.0,924.0,154.0,462.0,308.0,770.0,magenta,triangle
0.0,1.0,0.5,0.0,7.0,6.0,1299.3403300001771,1.0,1.0,phase_3,,,,,768.0,4.0,576.0,960.0,1152.0,192.0,384.0,768.0,blue,cross
0.0,2.0,1.0,0.0,7.0,2.0,868.8397669998267,1.0,1.0,phase_3,,,,,770.0,5.0,308.0,770.0,462.0,616.0,924.0,154.0,gray,diamond
0.0,2.0,1.0,0.0,7.0,3.0,822.1737209996718,1.0,1.0,phase_3,,,,,173.0,1.0,1038.0,692.0,173.0,865.0,346.0,519.0,gray,diamond
0.0,7.0,2.0,1.0,7.0,6.0,1510.8860290001758,1.0,1.0,phase_3,,,,,1038.0,6.0,173.0,519.0,865.0,346.0,692.0,1038.0,magenta,triangle
0.0,1.0,0.5,0.0,7.0,2.0,641.0090009999294,1.0,1.0,phase_3,,,,,696.0,6.0,116.0,696.0,580.0,232.0,464.0,348.0,blue,cross
0.0,6.0,1.0,1.0,7.0,5.0,912.0363109996106,1.0,1.0,phase_3,,,,,960.0,5.0,768.0,1152.0,192.0,384.0,960.0,576.0,cyan,circle
0.0,2.0,1.0,0.0,7.0,1.0,617.9365359998883,1.0,1.0,phase_3,,,,,308.0,2.0,308.0,924.0,154.0,770.0,462.0,616.0,gray,diamond
0.0,2.0,1.0,0.0,7.0,5.0,1154.2555660003018,1.0,1.0,phase_3,,,,,540.0,4.0,675.0,135.0,270.0,810.0,540.0,405.0,gray,diamond
0.0,4.0,4.0,0.0,7.0,2.0,476.4159029996335,1.0,1.0,phase_3,,,,,405.0,3.0,810.0,405.0,675.0,540.0,135.0,270.0,green,hexagon
0.0,6.0,1.0,1.0,7.0,6.0,957.0037420003246,1.0,1.0,phase_3,,,,,116.0,1.0,464.0,696.0,348.0,232.0,580.0,116.0,cyan,circle
0.0,5.0,0.5,1.0,7.0,2.0,791.2025159998848,1.0,1.0,phase_3,,,,,616.0,4.0,154.0,616.0,462.0,924.0,770.0,308.0,white,flipped triangle
0.0,6.0,1.0,1.0,7.0,2.0,1290.2962879998086,1.0,1.0,phase_3,,,,,865.0,5.0,1038.0,865.0,346.0,519.0,692.0,173.0,cyan,circle
0.0,4.0,4.0,0.0,7.0,3.0,1105.180105999807,1.0,1.0,phase_3,,,,,768.0,4.0,1152.0,384.0,768.0,576.0,192.0,960.0,green,hexagon
0.0,7.0,2.0,1.0,7.0,1.0,883.7207440001293,2.0,1.0,phase_3,,,,,1038.0,6.0,1038.0,692.0,173.0,865.0,346.0,519.0,magenta,triangle
0.0,7.0,2.0,1.0,7.0,3.0,749.2004960004124,2.0,1.0,phase_3,,,,,1152.0,6.0,960.0,384.0,1152.0,768.0,576.0,192.0,magenta,triangle
0.0,1.0,0.5,0.0,7.0,2.0,934.702763000132,2.0,1.0,phase_3,,,,,576.0,3.0,768.0,576.0,384.0,192.0,960.0,1152.0,blue,cross
0.0,8.0,4.0,1.0,7.0,5.0,617.1652960001666,2.0,1.0,phase_3,,,,,768.0,4.0,384.0,576.0,1152.0,192.0,768.0,960.0,orange,square
0.0,4.0,4.0,0.0,7.0,5.0,1098.1634810004834,2.0,1.0,phase_3,,,,,770.0,5.0,616.0,308.0,462.0,924.0,770.0,154.0,green,hexagon
0.0,1.0,0.5,0.0,7.0,1.0,721.3283669998418,2.0,1.0,phase_3,,,,,405.0,3.0,405.0,810.0,675.0,135.0,540.0,270.0,blue,cross
0.0,5.0,0.5,1.0,7.0,1.0,955.220984999869,2.0,1.0,phase_3,,,,,232.0,2.0,232.0,116.0,464.0,696.0,348.0,580.0,white,flipped triangle
0.0,4.0,4.0,0.0,7.0,5.0,972.04120600054,2.0,1.0,phase_3,,,,,692.0,4.0,346.0,1038.0,519.0,865.0,692.0,173.0,green,hexagon
0.0,8.0,4.0,1.0,7.0,2.0,1223.2815610004764,2.0,1.0,phase_3,,,,,135.0,1.0,270.0,135.0,810.0,405.0,540.0,675.0,orange,square
0.0,3.0,2.0,0.0,7.0,1.0,1056.9974030004232,2.0,1.0,phase_3,,,,,464.0,4.0,464.0,348.0,580.0,116.0,232.0,696.0,yellow,I
0.0,7.0,2.0,1.0,7.0,3.0,1176.6951299996435,2.0,1.0,phase_3,,,,,768.0,4.0,192.0,1152.0,768.0,960.0,384.0,576.0,magenta,triangle
0.0,3.0,2.0,0.0,7.0,1.0,945.4127480003079,2.0,1.0,phase_3,,,,,924.0,6.0,924.0,462.0,770.0,616.0,308.0,154.0,yellow,I
0.0,5.0,0.5,1.0,7.0,3.0,653.186771000037,2.0,1.0,phase_3,,,,,960.0,5.0,576.0,192.0,960.0,768.0,384.0,1152.0,white,flipped triangle
0.0,2.0,1.0,0.0,7.0,1.0,1094.6076589998484,2.0,1.0,phase_3,,,,,865.0,5.0,865.0,692.0,1038.0,346.0,519.0,173.0,gray,diamond
0.0,7.0,2.0,1.0,7.0,1.0,719.0608559994871,2.0,1.0,phase_3,,,,,675.0,5.0,675.0,405.0,540.0,810.0,270.0,135.0,magenta,triangle
0.0,3.0,2.0,0.0,7.0,2.0,991.0810920000586,2.0,1.0,phase_3,,,,,384.0,2.0,192.0,384.0,768.0,1152.0,576.0,960.0,yellow,I
0.0,8.0,4.0,1.0,7.0,1.0,921.8611270007386,2.0,1.0,phase_3,,,,,692.0,4.0,692.0,1038.0,173.0,865.0,346.0,519.0,orange,square
0.0,1.0,0.5,0.0,7.0,6.0,977.0277429997803,2.0,1.0,phase_3,,,,,696.0,6.0,348.0,580.0,116.0,232.0,464.0,696.0,blue,cross
0.0,5.0,0.5,1.0,7.0,2.0,700.3070099999604,2.0,1.0,phase_3,,,,,770.0,5.0,308.0,770.0,924.0,462.0,616.0,154.0,white,flipped triangle
0.0,6.0,1.0,1.0,7.0,1.0,501.2772700001733,2.0,1.0,phase_3,,,,,308.0,2.0,308.0,770.0,154.0,462.0,616.0,924.0,cyan,circle
0.0,1.0,0.5,0.0,7.0,3.0,960.678454999652,3.0,1.0,phase_3,,,,,865.0,5.0,346.0,173.0,865.0,519.0,1038.0,692.0,blue,cross
0.0,8.0,4.0,1.0,7.0,1.0,572.3490090003907,3.0,1.0,phase_3,,,,,232.0,2.0,232.0,348.0,580.0,464.0,116.0,696.0,orange,square
0.0,6.0,1.0,1.0,7.0,4.0,1284.6886209999866,3.0,1.0,phase_3,,,,,675.0,5.0,405.0,540.0,810.0,675.0,135.0,270.0,cyan,circle
0.0,8.0,4.0,1.0,7.0,6.0,630.68254800055,3.0,1.0,phase_3,,,,,924.0,6.0,308.0,154.0,616.0,462.0,770.0,924.0,orange,square
0.0,5.0,0.5,1.0,7.0,2.0,1167.981270999917,3.0,1.0,phase_3,,,,,346.0,2.0,173.0,346.0,865.0,1038.0,519.0,692.0,white,flipped triangle
0.0,8.0,4.0,1.0,7.0,2.0,896.1760960000902,3.0,1.0,phase_3,,,,,1152.0,6.0,576.0,1152.0,960.0,768.0,384.0,192.0,orange,square
0.0,4.0,4.0,0.0,7.0,4.0,792.8680980003264,3.0,1.0,phase_3,,,,,540.0,4.0,405.0,135.0,810.0,540.0,675.0,270.0,green,hexagon
0.0,2.0,1.0,0.0,7.0,2.0,817.2903960003168,3.0,1.0,phase_3,,,,,768.0,4.0,960.0,768.0,192.0,576.0,1152.0,384.0,gray,diamond
0.0,6.0,1.0,1.0,7.0,3.0,1002.8127690002293,3.0,1.0,phase_3,,,,,580.0,5.0,464.0,348.0,580.0,232.0,696.0,116.0,cyan,circle
0.0,3.0,2.0,0.0,7.0,2.0,837.9232920005961,3.0,1.0,phase_3,,,,,924.0,6.0,462.0,924.0,308.0,616.0,154.0,770.0,yellow,I
0.0,2.0,1.0,0.0,7.0,2.0,549.037968000448,3.0,1.0,phase_3,,,,,675.0,5.0,405.0,675.0,270.0,135.0,540.0,810.0,gray,diamond
0.0,4.0,4.0,0.0,7.0,6.0,470.1477400003568,3.0,1.0,phase_3,,,,,308.0,2.0,616.0,770.0,924.0,154.0,462.0,308.0,green,hexagon
0.0,6.0,1.0,1.0,7.0,1.0,703.879238000809,3.0,1.0,phase_3,,,,,462.0,3.0,462.0,616.0,924.0,154.0,770.0,308.0,cyan,circle
0.0,2.0,1.0,0.0,7.0,3.0,1107.1279280004092,3.0,1.0,phase_3,,,,,696.0,6.0,116.0,348.0,696.0,580.0,464.0,232.0,gray,diamond
0.0,1.0,0.5,0.0,7.0,4.0,1076.584788999753,3.0,1.0,phase_3,,,,,865.0,5.0,346.0,1038.0,519.0,865.0,173.0,692.0,blue,cross
0.0,2.0,1.0,0.0,7.0,5.0,1211.8521630000032,3.0,1.0,phase_3,,,,,576.0,3.0,768.0,384.0,1152.0,192.0,576.0,960.0,gray,diamond
0.0,8.0,4.0,1.0,7.0,1.0,606.7081719993439,3.0,1.0,phase_3,,,,,810.0,6.0,810.0,675.0,270.0,135.0,540.0,405.0,orange,square
0.0,6.0,1.0,1.0,7.0,3.0,1064.5877850001852,3.0,1.0,phase_3,,,,,768.0,4.0,576.0,384.0,768.0,192.0,1152.0,960.0,cyan,circle
0.0,2.0,1.0,0.0,7.0,1.0,1111.0259480001332,3.0,1.0,phase_3,,,,,348.0,3.0,348.0,580.0,696.0,232.0,116.0,464.0,gray,diamond
0.0,5.0,0.5,1.0,7.0,5.0,1136.3496979993215,3.0,1.0,phase_3,,,,,865.0,5.0,346.0,519.0,173.0,1038.0,865.0,692.0,white,flipped triangle
0.0,6.0,1.0,1.0,7.0,4.0,1065.6859099999565,4.0,1.0,phase_3,,,,,405.0,3.0,540.0,270.0,810.0,405.0,135.0,675.0,cyan,circle
0.0,8.0,4.0,1.0,7.0,2.0,665.233793999505,4.0,1.0,phase_3,,,,,865.0,5.0,173.0,865.0,692.0,519.0,346.0,1038.0,orange,square
0.0,3.0,2.0,0.0,7.0,5.0,658.6773649996758,4.0,1.0,phase_3,,,,,464.0,4.0,116.0,696.0,580.0,348.0,464.0,232.0,yellow,I
0.0,1.0,0.5,0.0,7.0,1.0,748.4193199998117,4.0,1.0,phase_3,,,,,810.0,6.0,810.0,540.0,135.0,405.0,675.0,270.0,blue,cross
0.0,7.0,2.0,1.0,7.0,3.0,1182.3474360007822,4.0,1.0,phase_3,,,,,616.0,4.0,462.0,924.0,616.0,770.0,308.0,154.0,magenta,triangle
0.0,3.0,2.0,0.0,7.0,6.0,1169.4724079998196,4.0,1.0,phase_3,,,,,810.0,6.0,675.0,135.0,405.0,270.0,540.0,810.0,yellow,I
0.0,4.0,4.0,0.0,7.0,1.0,874.0149279992693,4.0,1.0,phase_3,,,,,576.0,3.0,576.0,960.0,768.0,1152.0,192.0,384.0,green,hexagon
0.0,7.0,2.0,1.0,7.0,5.0,1585.379682999701,4.0,1.0,phase_3,,,,,580.0,5.0,232.0,464.0,348.0,116.0,580.0,696.0,magenta,triangle
0.0,8.0,4.0,1.0,7.0,2.0,1397.1090900004128,4.0,1.0,phase_3,,,,,348.0,3.0,232.0,348.0,580.0,116.0,696.0,464.0,orange,square
0.0,4.0,4.0,0.0,7.0,2.0,1293.8151219996143,4.0,1.0,phase_3,,,,,1038.0,6.0,519.0,1038.0,692.0,173.0,865.0,346.0,green,hexagon
0.0,3.0,2.0,0.0,7.0,6.0,1493.2550470002752,4.0,1.0,phase_3,,,,,692.0,4.0,865.0,1038.0,519.0,173.0,346.0,692.0,yellow,I
0.0,7.0,2.0,1.0,7.0,2.0,629.7262310008591,4.0,1.0,phase_3,,,,,540.0,4.0,675.0,540.0,135.0,270.0,810.0,405.0,magenta,triangle
0.0,5.0,0.5,1.0,7.0,1.0,656.6923680002219,4.0,1.0,phase_3,,,,,576.0,3.0,576.0,384.0,1152.0,192.0,768.0,960.0,white,flipped triangle
0.0,1.0,0.5,0.0,7.0,2.0,1064.5204489992466,4.0,1.0,phase_3,,,,,770.0,5.0,616.0,770.0,462.0,924.0,154.0,308.0,blue,cross
0.0,8.0,4.0,1.0,7.0,1.0,905.6796649992976,4.0,1.0,phase_3,,,,,924.0,6.0,924.0,462.0,308.0,154.0,770.0,616.0,orange,square
0.0,4.0,4.0,0.0,7.0,6.0,1339.6556659999987,4.0,1.0,phase_3,,,,,696.0,6.0,348.0,232.0,464.0,580.0,116.0,696.0,green,hexagon
0.0,7.0,2.0,1.0,7.0,2.0,678.1460359998164,4.0,1.0,phase_3,,,,,696.0,6.0,348.0,696.0,116.0,232.0,580.0,464.0,magenta,triangle
0.0,6.0,1.0,1.0,7.0,3.0,1069.9918390000676,4.0,1.0,phase_3,,,,,346.0,2.0,519.0,692.0,346.0,173.0,1038.0,865.0,cyan,circle
0.0,3.0,2.0,0.0,7.0,6.0,1088.953378000042,4.0,1.0,phase_3,,,,,675.0,5.0,405.0,270.0,135.0,540.0,810.0,675.0,yellow,I
0.0,5.0,0.5,1.0,7.0,2.0,752.2132399999464,4.0,1.0,phase_3,,,,,232.0,2.0,116.0,232.0,464.0,348.0,696.0,580.0,white,flipped triangle
