raw_reward_magnitude,stim_reward,stepwise_reward_magnitude,paired_with_stopping,stim_location,response,reaction_time,block,num_trial_presentations,which_phase,stop_signal_trial_type,left_SSD,right_SSD,accuracy,chosen_bidding_amount,chosen_bidding_level,possible_bid_1,possible_bid_2,possible_bid_3,possible_bid_4,possible_bid_5,possible_bid_6,color_text,shape_text
1317.0,4.0,4.0,0.0,3.0,3.0,385.0684189997082,1.0,1.0,phase_1,,,,,,,,,,,,,orange,I
0.0,7.0,0.0,1.0,3.0,3.0,364.8455229999854,1.0,1.0,phase_1,,,,,,,,,,,,,green,circle
669.0,7.0,2.0,1.0,3.0,3.0,354.0509960002964,1.0,1.0,phase_1,,,,,,,,,,,,,green,circle
637.0,7.0,2.0,1.0,1.0,1.0,482.4489329998869,1.0,2.0,phase_1,,,,,,,,,,,,,green,circle
147.0,5.0,0.5,1.0,3.0,3.0,375.2306840001438,1.0,1.0,phase_1,,,,,,,,,,,,,cyan,triangle
345.0,2.0,1.0,0.0,2.0,2.0,604.4782769999983,1.0,1.0,phase_1,,,,,,,,,,,,,magenta,diamond
343.0,2.0,1.0,0.0,1.0,1.0,431.8701619999956,1.0,1.0,phase_1,,,,,,,,,,,,,magenta,diamond
1293.0,8.0,4.0,1.0,3.0,3.0,414.3899340001553,1.0,1.0,phase_1,,,,,,,,,,,,,gray,square
0.0,8.0,0.0,1.0,4.0,4.0,393.5635949997049,1.0,1.0,phase_1,,,,,,,,,,,,,gray,square
659.0,3.0,2.0,0.0,1.0,1.0,390.6734940001115,1.0,1.0,phase_1,,,,,,,,,,,,,white,flipped triangle
1316.0,4.0,4.0,0.0,3.0,3.0,299.1675409998606,1.0,1.0,phase_1,,,,,,,,,,,,,orange,I
1312.0,4.0,4.0,0.0,1.0,1.0,447.7337850003096,1.0,1.0,phase_1,,,,,,,,,,,,,orange,I
0.0,6.0,0.0,1.0,4.0,4.0,406.5594819999205,1.0,1.0,phase_1,,,,,,,,,,,,,blue,hexagon
170.0,5.0,0.5,1.0,2.0,2.0,346.2194489998182,1.0,1.0,phase_1,,,,,,,,,,,,,cyan,triangle
0.0,8.0,0.0,1.0,3.0,3.0,325.8285810002235,1.0,1.0,phase_1,,,,,,,,,,,,,gray,square
157.0,1.0,0.5,0.0,2.0,2.0,379.1008020002664,1.0,1.0,phase_1,,,,,,,,,,,,,yellow,cross
658.0,3.0,2.0,0.0,4.0,4.0,342.9834790003951,1.0,1.0,phase_1,,,,,,,,,,,,,white,flipped triangle
1304.0,8.0,4.0,1.0,2.0,2.0,309.858222999992,1.0,1.0,phase_1,,,,,,,,,,,,,gray,square
0.0,3.0,0.0,0.0,3.0,3.0,314.4780299999183,1.0,1.0,phase_1,,,,,,,,,,,,,white,flipped triangle
0.0,7.0,0.0,1.0,4.0,4.0,541.5284489999976,1.0,1.0,phase_1,,,,,,,,,,,,,green,circle
659.0,3.0,2.0,0.0,3.0,3.0,337.0282340001722,1.0,1.0,phase_1,,,,,,,,,,,,,white,flipped triangle
309.0,6.0,1.0,1.0,1.0,1.0,414.174919999823,1.0,1.0,phase_1,,,,,,,,,,,,,blue,hexagon
144.0,1.0,0.5,0.0,4.0,4.0,411.5775870000107,1.0,1.0,phase_1,,,,,,,,,,,,,yellow,cross
628.0,7.0,2.0,1.0,1.0,1.0,479.5410950000587,1.0,1.0,phase_1,,,,,,,,,,,,,green,circle
0.0,5.0,0.0,1.0,2.0,2.0,355.5653410003287,1.0,1.0,phase_1,,,,,,,,,,,,,cyan,triangle
345.0,6.0,1.0,1.0,1.0,1.0,440.4884829996263,1.0,1.0,phase_1,,,,,,,,,,,,,blue,hexagon
634.0,3.0,2.0,0.0,1.0,1.0,367.5083440002709,1.0,1.0,phase_1,,,,,,,,,,,,,white,flipped triangle
662.0,3.0,2.0,0.0,4.0,4.0,356.6142399999989,1.0,1.0,phase_1,,,,,,,,,,,,,white,flipped triangle
634.0,7.0,2.0,1.0,3.0,3.0,358.2103460003054,1.0,1.0,phase_1,,,,,,,,,,,,,green,circle
1304.0,4.0,4.0,0.0,3.0,3.0,365.181487999962,1.0,1.0,phase_1,,,,,,,,,,,,,orange,I
1285.0,8.0,4.0,1.0,2.0,2.0,352.8273060001083,1.0,1.0,phase_1,,,,,,,,,,,,,gray,square
155.0,1.0,0.5,0.0,1.0,1.0,388.1253979998291,1.0,1.0,phase_1,,,,,,,,,,,,,yellow,cross
316.0,6.0,1.0,1.0,3.0,3.0,403.9511360001597,1.0,1.0,phase_1,,,,,,,,,,,,,blue,hexagon
631.0,7.0,2.0,1.0,3.0,3.0,343.9039429999866,1.0,1.0,phase_1,,,,,,,,,,,,,green,circle
330.0,2.0,1.0,0.0,3.0,3.0,324.3603679998159,1.0,1.0,phase_1,,,,,,,,,,,,,magenta,diamond
161.0,5.0,0.5,1.0,4.0,4.0,414.7472360000392,1.0,1.0,phase_1,,,,,,,,,,,,,cyan,triangle
150.0,1.0,0.5,0.0,4.0,4.0,379.3769630001407,1.0,1.0,phase_1,,,,,,,,,,,,,yellow,cross
0.0,2.0,0.0,0.0,4.0,4.0,400.0002720003976,1.0,1.0,phase_1,,,,,,,,,,,,,magenta,diamond
151.0,5.0,0.5,1.0,3.0,3.0,486.7738230000213,1.0,1.0,phase_1,,,,,,,,,,,,,cyan,triangle
0.0,1.0,0.0,0.0,1.0,1.0,572.1510729999864,1.0,1.0,phase_1,,,,,,,,,,,,,yellow,cross
0.0,3.0,0.0,0.0,2.0,2.0,565.906570000152,1.0,1.0,phase_1,,,,,,,,,,,,,white,flipped triangle
173.0,5.0,0.5,1.0,2.0,2.0,347.1521809997284,1.0,1.0,phase_1,,,,,,,,,,,,,cyan,triangle
0.0,7.0,0.0,1.0,2.0,2.0,375.949023999965,1.0,1.0,phase_1,,,,,,,,,,,,,green,circle
637.0,7.0,2.0,1.0,4.0,4.0,421.0659769996709,1.0,1.0,phase_1,,,,,,,,,,,,,green,circle
0.0,3.0,0.0,0.0,1.0,1.0,488.9286150000771,1.0,1.0,phase_1,,,,,,,,,,,,,white,flipped triangle
166.0,5.0,0.5,1.0,4.0,4.0,461.1732409998694,1.0,1.0,phase_1,,,,,,,,,,,,,cyan,triangle
674.0,7.0,2.0,1.0,2.0,2.0,426.3672410002073,1.0,1.0,phase_1,,,,,,,,,,,,,green,circle
344.0,2.0,1.0,0.0,2.0,2.0,374.82228499993647,1.0,1.0,phase_1,,,,,,,,,,,,,magenta,diamond
0.0,5.0,0.0,1.0,4.0,4.0,396.4704159998291,1.0,1.0,phase_1,,,,,,,,,,,,,cyan,triangle
147.0,1.0,0.5,0.0,1.0,1.0,402.4897859999328,1.0,1.0,phase_1,,,,,,,,,,,,,yellow,cross
311.0,2.0,1.0,0.0,1.0,1.0,422.1114140000281,1.0,1.0,phase_1,,,,,,,,,,,,,magenta,diamond
667.0,7.0,2.0,1.0,4.0,4.0,417.9208959999414,1.0,1.0,phase_1,,,,,,,,,,,,,green,circle
333.0,2.0,1.0,0.0,1.0,1.0,310.9340060000249,1.0,1.0,phase_1,,,,,,,,,,,,,magenta,diamond
306.0,6.0,1.0,1.0,2.0,2.0,417.6053790001788,1.0,1.0,phase_1,,,,,,,,,,,,,blue,hexagon
337.0,2.0,1.0,0.0,3.0,3.0,422.8552839999793,1.0,1.0,phase_1,,,,,,,,,,,,,magenta,diamond
0.0,7.0,0.0,1.0,2.0,2.0,387.3288549998506,1.0,1.0,phase_1,,,,,,,,,,,,,green,circle
1318.0,8.0,4.0,1.0,1.0,1.0,456.5169890001925,1.0,1.0,phase_1,,,,,,,,,,,,,gray,square
0.0,8.0,0.0,1.0,1.0,1.0,500.4768779999722,1.0,1.0,phase_1,,,,,,,,,,,,,gray,square
320.0,6.0,1.0,1.0,1.0,1.0,458.5532760002024,1.0,1.0,phase_1,,,,,,,,,,,,,blue,hexagon
141.0,1.0,0.5,0.0,2.0,2.0,446.4452199999869,1.0,1.0,phase_1,,,,,,,,,,,,,yellow,cross
1294.0,4.0,4.0,0.0,3.0,3.0,452.7917259997593,1.0,1.0,phase_1,,,,,,,,,,,,,orange,I
330.0,6.0,1.0,1.0,4.0,4.0,447.0825700000205,1.0,1.0,phase_1,,,,,,,,,,,,,blue,hexagon
0.0,2.0,0.0,0.0,4.0,4.0,467.7655340001365,1.0,1.0,phase_1,,,,,,,,,,,,,magenta,diamond
0.0,4.0,0.0,0.0,1.0,1.0,450.0017800000933,1.0,1.0,phase_1,,,,,,,,,,,,,orange,I
1308.0,4.0,4.0,0.0,4.0,4.0,566.4423630000783,1.0,1.0,phase_1,,,,,,,,,,,,,orange,I
148.0,5.0,0.5,1.0,3.0,3.0,394.1836180001701,1.0,1.0,phase_1,,,,,,,,,,,,,cyan,triangle
304.0,2.0,1.0,0.0,2.0,2.0,456.6567059996487,1.0,1.0,phase_1,,,,,,,,,,,,,magenta,diamond
0.0,6.0,0.0,1.0,1.0,1.0,485.85703200024,1.0,1.0,phase_1,,,,,,,,,,,,,blue,hexagon
151.0,1.0,0.5,0.0,3.0,3.0,375.7864549997975,1.0,1.0,phase_1,,,,,,,,,,,,,yellow,cross
163.0,5.0,0.5,1.0,3.0,3.0,438.2284049997906,1.0,1.0,phase_1,,,,,,,,,,,,,cyan,triangle
161.0,1.0,0.5,0.0,2.0,2.0,569.227064000188,1.0,1.0,phase_1,,,,,,,,,,,,,yellow,cross
320.0,2.0,1.0,0.0,3.0,3.0,405.1426820001325,1.0,1.0,phase_1,,,,,,,,,,,,,magenta,diamond
0.0,6.0,0.0,1.0,2.0,2.0,460.2823320001334,1.0,1.0,phase_1,,,,,,,,,,,,,blue,hexagon
650.0,3.0,2.0,0.0,2.0,2.0,440.3192599997965,1.0,1.0,phase_1,,,,,,,,,,,,,white,flipped triangle
671.0,3.0,2.0,0.0,1.0,1.0,507.0847870001671,1.0,1.0,phase_1,,,,,,,,,,,,,white,flipped triangle
1310.0,4.0,4.0,0.0,3.0,3.0,471.7610480001895,1.0,1.0,phase_1,,,,,,,,,,,,,orange,I
0.0,5.0,0.0,1.0,1.0,1.0,405.0449779997507,1.0,1.0,phase_1,,,,,,,,,,,,,cyan,triangle
175.0,1.0,0.5,0.0,4.0,4.0,420.0683700000809,1.0,1.0,phase_1,,,,,,,,,,,,,yellow,cross
0.0,1.0,0.0,0.0,1.0,1.0,502.5355309999213,1.0,1.0,phase_1,,,,,,,,,,,,,yellow,cross
672.0,3.0,2.0,0.0,3.0,3.0,437.3552320003,1.0,1.0,phase_1,,,,,,,,,,,,,white,flipped triangle
0.0,5.0,0.0,1.0,4.0,4.0,478.9756979998856,1.0,1.0,phase_1,,,,,,,,,,,,,cyan,triangle
637.0,3.0,2.0,0.0,4.0,4.0,467.5070610001057,1.0,1.0,phase_1,,,,,,,,,,,,,white,flipped triangle
0.0,1.0,0.0,0.0,4.0,4.0,402.8790659999686,1.0,1.0,phase_1,,,,,,,,,,,,,yellow,cross
648.0,3.0,2.0,0.0,4.0,4.0,389.5138670000051,1.0,1.0,phase_1,,,,,,,,,,,,,white,flipped triangle
143.0,1.0,0.5,0.0,1.0,1.0,435.5416280000099,1.0,1.0,phase_1,,,,,,,,,,,,,yellow,cross
656.0,7.0,2.0,1.0,2.0,2.0,592.5913030000629,1.0,1.0,phase_1,,,,,,,,,,,,,green,circle
0.0,1.0,0.0,0.0,4.0,4.0,434.6718340002553,1.0,1.0,phase_1,,,,,,,,,,,,,yellow,cross
344.0,6.0,1.0,1.0,3.0,3.0,416.6194679996806,1.0,1.0,phase_1,,,,,,,,,,,,,blue,hexagon
1316.0,8.0,4.0,1.0,4.0,4.0,460.7160450000265,1.0,1.0,phase_1,,,,,,,,,,,,,gray,square
179.0,5.0,0.5,1.0,4.0,4.0,354.8087889998896,1.0,1.0,phase_1,,,,,,,,,,,,,cyan,triangle
1296.0,8.0,4.0,1.0,4.0,4.0,405.439527999988,1.0,1.0,phase_1,,,,,,,,,,,,,gray,square
626.0,7.0,2.0,1.0,2.0,2.0,522.2635979998813,1.0,1.0,phase_1,,,,,,,,,,,,,green,circle
0.0,4.0,0.0,0.0,3.0,3.0,375.9147670002676,1.0,1.0,phase_1,,,,,,,,,,,,,orange,I
329.0,2.0,1.0,0.0,1.0,1.0,483.3401959999719,1.0,1.0,phase_1,,,,,,,,,,,,,magenta,diamond
1308.0,8.0,4.0,1.0,2.0,2.0,338.0536089998713,1.0,1.0,phase_1,,,,,,,,,,,,,gray,square
331.0,6.0,1.0,1.0,1.0,1.0,396.8468570001278,1.0,1.0,phase_1,,,,,,,,,,,,,blue,hexagon
154.0,1.0,0.5,0.0,1.0,1.0,377.7534910000213,1.0,1.0,phase_1,,,,,,,,,,,,,yellow,cross
641.0,3.0,2.0,0.0,3.0,3.0,438.3018120001907,1.0,1.0,phase_1,,,,,,,,,,,,,white,flipped triangle
171.0,5.0,0.5,1.0,1.0,1.0,444.6319319999929,1.0,1.0,phase_1,,,,,,,,,,,,,cyan,triangle
639.0,3.0,2.0,0.0,3.0,3.0,455.1580409997768,1.0,1.0,phase_1,,,,,,,,,,,,,white,flipped triangle
1294.0,4.0,4.0,0.0,3.0,3.0,399.539143000311,2.0,1.0,phase_1,,,,,,,,,,,,,orange,I
316.0,2.0,1.0,0.0,2.0,2.0,333.2500070000606,2.0,1.0,phase_1,,,,,,,,,,,,,magenta,diamond
179.0,1.0,0.5,0.0,2.0,2.0,487.5604389999353,2.0,1.0,phase_1,,,,,,,,,,,,,yellow,cross
141.0,5.0,0.5,1.0,4.0,4.0,452.5760450001144,2.0,1.0,phase_1,,,,,,,,,,,,,cyan,triangle
0.0,5.0,0.0,1.0,4.0,4.0,466.9556450003256,2.0,1.0,phase_1,,,,,,,,,,,,,cyan,triangle
315.0,6.0,1.0,1.0,3.0,3.0,399.8085570001422,2.0,1.0,phase_1,,,,,,,,,,,,,blue,hexagon
1315.0,8.0,4.0,1.0,2.0,2.0,307.8553639998063,2.0,1.0,phase_1,,,,,,,,,,,,,gray,square
328.0,2.0,1.0,0.0,2.0,2.0,304.8021039999185,2.0,1.0,phase_1,,,,,,,,,,,,,magenta,diamond
153.0,5.0,0.5,1.0,3.0,3.0,387.8220940000574,2.0,1.0,phase_1,,,,,,,,,,,,,cyan,triangle
1315.0,4.0,4.0,0.0,2.0,2.0,511.9282310001836,2.0,2.0,phase_1,,,,,,,,,,,,,orange,I
172.0,1.0,0.5,0.0,1.0,1.0,476.7822290000367,2.0,1.0,phase_1,,,,,,,,,,,,,yellow,cross
674.0,3.0,2.0,0.0,4.0,4.0,407.6363440003661,2.0,1.0,phase_1,,,,,,,,,,,,,white,flipped triangle
343.0,6.0,1.0,1.0,4.0,4.0,517.5385200000164,2.0,1.0,phase_1,,,,,,,,,,,,,blue,hexagon
0.0,5.0,0.0,1.0,3.0,3.0,423.8374480000857,2.0,1.0,phase_1,,,,,,,,,,,,,cyan,triangle
0.0,4.0,0.0,0.0,3.0,3.0,381.9782810001015,2.0,1.0,phase_1,,,,,,,,,,,,,orange,I
0.0,3.0,0.0,0.0,1.0,1.0,459.2187270000067,2.0,1.0,phase_1,,,,,,,,,,,,,white,flipped triangle
669.0,3.0,2.0,0.0,2.0,2.0,301.3320079999175,2.0,1.0,phase_1,,,,,,,,,,,,,white,flipped triangle
1306.0,8.0,4.0,1.0,4.0,4.0,604.975168999772,2.0,1.0,phase_1,,,,,,,,,,,,,gray,square
138.0,5.0,0.5,1.0,2.0,2.0,423.2678570001553,2.0,1.0,phase_1,,,,,,,,,,,,,cyan,triangle
331.0,2.0,1.0,0.0,4.0,4.0,420.0645640003131,2.0,1.0,phase_1,,,,,,,,,,,,,magenta,diamond
645.0,7.0,2.0,1.0,1.0,1.0,367.8970930000105,2.0,1.0,phase_1,,,,,,,,,,,,,green,circle
152.0,5.0,0.5,1.0,3.0,3.0,518.0110090000198,2.0,1.0,phase_1,,,,,,,,,,,,,cyan,triangle
0.0,1.0,0.0,0.0,1.0,1.0,563.8678860000255,2.0,1.0,phase_1,,,,,,,,,,,,,yellow,cross
657.0,7.0,2.0,1.0,4.0,4.0,671.1200380000264,2.0,1.0,phase_1,,,,,,,,,,,,,green,circle
1299.0,4.0,4.0,0.0,4.0,4.0,460.1507820002553,2.0,1.0,phase_1,,,,,,,,,,,,,orange,I
156.0,5.0,0.5,1.0,4.0,4.0,478.4665160000259,2.0,1.0,phase_1,,,,,,,,,,,,,cyan,triangle
1321.0,8.0,4.0,1.0,4.0,4.0,397.0164829997884,2.0,1.0,phase_1,,,,,,,,,,,,,gray,square
317.0,2.0,1.0,0.0,1.0,1.0,393.8086240000302,2.0,1.0,phase_1,,,,,,,,,,,,,magenta,diamond
0.0,3.0,0.0,0.0,1.0,1.0,428.3700589999171,2.0,1.0,phase_1,,,,,,,,,,,,,white,flipped triangle
1285.0,8.0,4.0,1.0,4.0,4.0,452.2335679998832,2.0,1.0,phase_1,,,,,,,,,,,,,gray,square
0.0,2.0,0.0,0.0,3.0,3.0,454.9013089999789,2.0,1.0,phase_1,,,,,,,,,,,,,magenta,diamond
174.0,1.0,0.5,0.0,3.0,3.0,418.0762229998436,2.0,1.0,phase_1,,,,,,,,,,,,,yellow,cross
651.0,3.0,2.0,0.0,1.0,1.0,487.9882519999228,2.0,1.0,phase_1,,,,,,,,,,,,,white,flipped triangle
1297.0,4.0,4.0,0.0,1.0,1.0,475.7826180002666,2.0,1.0,phase_1,,,,,,,,,,,,,orange,I
637.0,3.0,2.0,0.0,3.0,3.0,400.0434450003922,2.0,1.0,phase_1,,,,,,,,,,,,,white,flipped triangle
0.0,6.0,0.0,1.0,2.0,2.0,429.6729559996493,2.0,1.0,phase_1,,,,,,,,,,,,,blue,hexagon
0.0,8.0,0.0,1.0,4.0,4.0,467.6018310001382,2.0,1.0,phase_1,,,,,,,,,,,,,gray,square
662.0,7.0,2.0,1.0,4.0,4.0,534.9221470000884,2.0,1.0,phase_1,,,,,,,,,,,,,green,circle
663.0,7.0,2.0,1.0,3.0,3.0,340.3469999998378,2.0,1.0,phase_1,,,,,,,,,,,,,green,circle
0.0,7.0,0.0,1.0,1.0,1.0,473.6548739997488,2.0,1.0,phase_1,,,,,,,,,,,,,green,circle
337.0,2.0,1.0,0.0,3.0,3.0,364.2771700001503,2.0,1.0,phase_1,,,,,,,,,,,,,magenta,diamond
641.0,3.0,2.0,0.0,1.0,1.0,458.3963159998347,2.0,1.0,phase_1,,,,,,,,,,,,,white,flipped triangle
1279.0,4.0,4.0,0.0,4.0,4.0,509.87358100019264,2.0,1.0,phase_1,,,,,,,,,,,,,orange,I
306.0,2.0,1.0,0.0,3.0,3.0,458.1848160000845,2.0,1.0,phase_1,,,,,,,,,,,,,magenta,diamond
181.0,1.0,0.5,0.0,3.0,3.0,408.6727429998973,2.0,1.0,phase_1,,,,,,,,,,,,,yellow,cross
138.0,1.0,0.5,0.0,3.0,3.0,453.1475929998123,2.0,1.0,phase_1,,,,,,,,,,,,,yellow,cross
1320.0,4.0,4.0,0.0,2.0,2.0,409.1751239998302,2.0,1.0,phase_1,,,,,,,,,,,,,orange,I
0.0,5.0,0.0,1.0,4.0,4.0,503.10954799988394,2.0,1.0,phase_1,,,,,,,,,,,,,cyan,triangle
306.0,6.0,1.0,1.0,1.0,1.0,417.0692149996284,2.0,1.0,phase_1,,,,,,,,,,,,,blue,hexagon
669.0,7.0,2.0,1.0,2.0,2.0,352.272739,2.0,1.0,phase_1,,,,,,,,,,,,,green,circle
1294.0,8.0,4.0,1.0,1.0,1.0,466.3497689998621,2.0,1.0,phase_1,,,,,,,,,,,,,gray,square
650.0,3.0,2.0,0.0,1.0,1.0,473.2816689997889,2.0,1.0,phase_1,,,,,,,,,,,,,white,flipped triangle
1323.0,4.0,4.0,0.0,3.0,3.0,443.414083999869,2.0,1.0,phase_1,,,,,,,,,,,,,orange,I
0.0,8.0,0.0,1.0,3.0,3.0,417.886417000318,2.0,1.0,phase_1,,,,,,,,,,,,,gray,square
1312.0,8.0,4.0,1.0,3.0,3.0,415.4646179999872,2.0,1.0,phase_1,,,,,,,,,,,,,gray,square
0.0,6.0,0.0,1.0,3.0,3.0,313.673265000034,2.0,1.0,phase_1,,,,,,,,,,,,,blue,hexagon
317.0,6.0,1.0,1.0,2.0,2.0,454.7464639999816,2.0,1.0,phase_1,,,,,,,,,,,,,blue,hexagon
0.0,8.0,0.0,1.0,2.0,2.0,322.4353450000308,2.0,1.0,phase_1,,,,,,,,,,,,,gray,square
0.0,4.0,0.0,0.0,2.0,2.0,393.3236109996869,2.0,1.0,phase_1,,,,,,,,,,,,,orange,I
1289.0,8.0,4.0,1.0,4.0,4.0,518.9390149998871,2.0,1.0,phase_1,,,,,,,,,,,,,gray,square
1295.0,4.0,4.0,0.0,4.0,4.0,411.2232590000531,2.0,1.0,phase_1,,,,,,,,,,,,,orange,I
170.0,1.0,0.5,0.0,4.0,4.0,391.3548949999494,2.0,1.0,phase_1,,,,,,,,,,,,,yellow,cross
155.0,5.0,0.5,1.0,3.0,3.0,458.8770809996276,2.0,1.0,phase_1,,,,,,,,,,,,,cyan,triangle
314.0,2.0,1.0,0.0,3.0,3.0,376.2625950002984,2.0,1.0,phase_1,,,,,,,,,,,,,magenta,diamond
1295.0,8.0,4.0,1.0,3.0,3.0,438.1711829996675,2.0,1.0,phase_1,,,,,,,,,,,,,gray,square
0.0,4.0,0.0,0.0,3.0,3.0,360.7335399997282,2.0,1.0,phase_1,,,,,,,,,,,,,orange,I
173.0,1.0,0.5,0.0,4.0,4.0,485.8412230000795,2.0,1.0,phase_1,,,,,,,,,,,,,yellow,cross
337.0,6.0,1.0,1.0,4.0,4.0,388.1051319999642,2.0,1.0,phase_1,,,,,,,,,,,,,blue,hexagon
652.0,7.0,2.0,1.0,4.0,4.0,349.547641999834,2.0,1.0,phase_1,,,,,,,,,,,,,green,circle
313.0,6.0,1.0,1.0,2.0,2.0,443.8814519999141,2.0,1.0,phase_1,,,,,,,,,,,,,blue,hexagon
329.0,6.0,1.0,1.0,3.0,3.0,510.98094899998614,2.0,1.0,phase_1,,,,,,,,,,,,,blue,hexagon
0.0,4.0,0.0,0.0,3.0,3.0,388.3436020000772,2.0,1.0,phase_1,,,,,,,,,,,,,orange,I
172.0,5.0,0.5,1.0,2.0,2.0,431.7473420001079,2.0,1.0,phase_1,,,,,,,,,,,,,cyan,triangle
141.0,1.0,0.5,0.0,2.0,2.0,381.2513409998246,2.0,1.0,phase_1,,,,,,,,,,,,,yellow,cross
161.0,5.0,0.5,1.0,2.0,2.0,377.6551880000625,2.0,1.0,phase_1,,,,,,,,,,,,,cyan,triangle
344.0,6.0,1.0,1.0,1.0,1.0,479.620289000195,2.0,1.0,phase_1,,,,,,,,,,,,,blue,hexagon
311.0,6.0,1.0,1.0,3.0,3.0,547.6269690002482,2.0,1.0,phase_1,,,,,,,,,,,,,blue,hexagon
326.0,6.0,1.0,1.0,3.0,3.0,328.8185169999451,2.0,1.0,phase_1,,,,,,,,,,,,,blue,hexagon
0.0,5.0,0.0,1.0,2.0,2.0,357.5183530001595,2.0,1.0,phase_1,,,,,,,,,,,,,cyan,triangle
304.0,6.0,1.0,1.0,1.0,1.0,449.134886000138,2.0,1.0,phase_1,,,,,,,,,,,,,blue,hexagon
314.0,6.0,1.0,1.0,4.0,4.0,462.5521859998116,2.0,1.0,phase_1,,,,,,,,,,,,,blue,hexagon
309.0,2.0,1.0,0.0,4.0,4.0,476.7926929998793,2.0,1.0,phase_1,,,,,,,,,,,,,magenta,diamond
0.0,5.0,0.0,1.0,3.0,3.0,462.8585370001019,2.0,1.0,phase_1,,,,,,,,,,,,,cyan,triangle
637.0,3.0,2.0,0.0,2.0,2.0,363.5766700003842,2.0,1.0,phase_1,,,,,,,,,,,,,white,flipped triangle
1312.0,4.0,4.0,0.0,2.0,2.0,384.6272119999412,2.0,1.0,phase_1,,,,,,,,,,,,,orange,I
0.0,6.0,0.0,1.0,3.0,3.0,405.7090160004009,2.0,1.0,phase_1,,,,,,,,,,,,,blue,hexagon
152.0,1.0,0.5,0.0,4.0,4.0,524.0616619998946,2.0,1.0,phase_1,,,,,,,,,,,,,yellow,cross
322.0,2.0,1.0,0.0,3.0,3.0,421.8603880003684,2.0,1.0,phase_1,,,,,,,,,,,,,magenta,diamond
148.0,1.0,0.5,0.0,4.0,4.0,483.9070850002827,2.0,1.0,phase_1,,,,,,,,,,,,,yellow,cross
333.0,6.0,1.0,1.0,2.0,2.0,471.5898180002114,2.0,1.0,phase_1,,,,,,,,,,,,,blue,hexagon
181.0,5.0,0.5,1.0,1.0,1.0,556.503322000026,2.0,1.0,phase_1,,,,,,,,,,,,,cyan,triangle
639.0,7.0,2.0,1.0,4.0,4.0,402.9586940000627,2.0,1.0,phase_1,,,,,,,,,,,,,green,circle
1301.0,8.0,4.0,1.0,1.0,1.0,438.0872020001334,2.0,1.0,phase_1,,,,,,,,,,,,,gray,square
143.0,5.0,0.5,1.0,3.0,3.0,378.2746710003266,2.0,1.0,phase_1,,,,,,,,,,,,,cyan,triangle
626.0,3.0,2.0,0.0,1.0,1.0,416.9537620000483,2.0,1.0,phase_1,,,,,,,,,,,,,white,flipped triangle
1290.0,8.0,4.0,1.0,1.0,1.0,460.3471229997922,2.0,1.0,phase_1,,,,,,,,,,,,,gray,square
346.0,2.0,1.0,0.0,1.0,1.0,568.8501310000902,2.0,1.0,phase_1,,,,,,,,,,,,,magenta,diamond
183.0,1.0,0.5,0.0,3.0,3.0,587.9307619998144,2.0,1.0,phase_1,,,,,,,,,,,,,yellow,cross
337.0,6.0,1.0,1.0,4.0,4.0,513.0707559997063,2.0,1.0,phase_1,,,,,,,,,,,,,blue,hexagon
350.0,2.0,1.0,0.0,3.0,3.0,509.0531840000949,2.0,1.0,phase_1,,,,,,,,,,,,,magenta,diamond
1279.0,4.0,4.0,0.0,1.0,1.0,348.8943080001263,3.0,1.0,phase_1,,,,,,,,,,,,,orange,I
0.0,2.0,0.0,0.0,3.0,3.0,425.8482710001772,3.0,1.0,phase_1,,,,,,,,,,,,,magenta,diamond
637.0,7.0,2.0,1.0,1.0,1.0,446.7162319997442,3.0,1.0,phase_1,,,,,,,,,,,,,green,circle
629.0,3.0,2.0,0.0,3.0,3.0,381.9211710001582,3.0,1.0,phase_1,,,,,,,,,,,,,white,flipped triangle
166.0,1.0,0.5,0.0,2.0,2.0,423.2874320000519,3.0,1.0,phase_1,,,,,,,,,,,,,yellow,cross
1301.0,4.0,4.0,0.0,4.0,4.0,526.9582219998483,3.0,1.0,phase_1,,,,,,,,,,,,,orange,I
631.0,3.0,2.0,0.0,1.0,1.0,434.7691309999391,3.0,1.0,phase_1,,,,,,,,,,,,,white,flipped triangle
150.0,5.0,0.5,1.0,1.0,1.0,477.6904349996584,3.0,1.0,phase_1,,,,,,,,,,,,,cyan,triangle
140.0,5.0,0.5,1.0,4.0,4.0,586.449550999987,3.0,1.0,phase_1,,,,,,,,,,,,,cyan,triangle
670.0,3.0,2.0,0.0,4.0,4.0,375.5145119998815,3.0,1.0,phase_1,,,,,,,,,,,,,white,flipped triangle
0.0,1.0,0.0,0.0,4.0,4.0,411.8932619999214,3.0,1.0,phase_1,,,,,,,,,,,,,yellow,cross
1317.0,8.0,4.0,1.0,3.0,3.0,639.6722269996644,3.0,1.0,phase_1,,,,,,,,,,,,,gray,square
632.0,7.0,2.0,1.0,3.0,3.0,415.3496949998043,3.0,1.0,phase_1,,,,,,,,,,,,,green,circle
632.0,3.0,2.0,0.0,2.0,2.0,395.4832590002297,3.0,1.0,phase_1,,,,,,,,,,,,,white,flipped triangle
1309.0,8.0,4.0,1.0,3.0,3.0,461.9961329999569,3.0,1.0,phase_1,,,,,,,,,,,,,gray,square
1284.0,4.0,4.0,0.0,4.0,4.0,522.9640729999119,3.0,1.0,phase_1,,,,,,,,,,,,,orange,I
650.0,7.0,2.0,1.0,2.0,2.0,471.0694990003503,3.0,1.0,phase_1,,,,,,,,,,,,,green,circle
1297.0,8.0,4.0,1.0,2.0,2.0,469.4042490000356,3.0,1.0,phase_1,,,,,,,,,,,,,gray,square
169.0,1.0,0.5,0.0,2.0,2.0,529.6818770002574,3.0,1.0,phase_1,,,,,,,,,,,,,yellow,cross
658.0,7.0,2.0,1.0,4.0,4.0,535.7725199996821,3.0,1.0,phase_1,,,,,,,,,,,,,green,circle
628.0,3.0,2.0,0.0,4.0,4.0,500.0373889997718,3.0,1.0,phase_1,,,,,,,,,,,,,white,flipped triangle
173.0,1.0,0.5,0.0,3.0,3.0,446.7840819997946,3.0,1.0,phase_1,,,,,,,,,,,,,yellow,cross
1294.0,8.0,4.0,1.0,1.0,1.0,459.0144849998978,3.0,1.0,phase_1,,,,,,,,,,,,,gray,square
674.0,7.0,2.0,1.0,3.0,3.0,466.3789659998656,3.0,1.0,phase_1,,,,,,,,,,,,,green,circle
630.0,7.0,2.0,1.0,3.0,3.0,493.5232890002226,3.0,1.0,phase_1,,,,,,,,,,,,,green,circle
156.0,1.0,0.5,0.0,3.0,3.0,427.1245209997687,3.0,1.0,phase_1,,,,,,,,,,,,,yellow,cross
669.0,7.0,2.0,1.0,1.0,1.0,405.2628980002737,3.0,1.0,phase_1,,,,,,,,,,,,,green,circle
1285.0,8.0,4.0,1.0,2.0,2.0,410.7298190001529,3.0,1.0,phase_1,,,,,,,,,,,,,gray,square
657.0,3.0,2.0,0.0,3.0,3.0,462.4035409997304,3.0,1.0,phase_1,,,,,,,,,,,,,white,flipped triangle
640.0,3.0,2.0,0.0,3.0,3.0,414.1844929999934,3.0,1.0,phase_1,,,,,,,,,,,,,white,flipped triangle
0.0,3.0,0.0,0.0,1.0,1.0,496.5454279999903,3.0,1.0,phase_1,,,,,,,,,,,,,white,flipped triangle
350.0,6.0,1.0,1.0,4.0,4.0,484.4809799997165,3.0,1.0,phase_1,,,,,,,,,,,,,blue,hexagon
0.0,4.0,0.0,0.0,1.0,1.0,458.9952810001705,3.0,1.0,phase_1,,,,,,,,,,,,,orange,I
670.0,7.0,2.0,1.0,2.0,2.0,504.1663020001579,3.0,1.0,phase_1,,,,,,,,,,,,,green,circle
0.0,2.0,0.0,0.0,1.0,1.0,453.4534009999333,3.0,1.0,phase_1,,,,,,,,,,,,,magenta,diamond
0.0,3.0,0.0,0.0,1.0,1.0,721.5141390001918,3.0,1.0,phase_1,,,,,,,,,,,,,white,flipped triangle
317.0,2.0,1.0,0.0,2.0,2.0,516.7046740002661,3.0,1.0,phase_1,,,,,,,,,,,,,magenta,diamond
637.0,7.0,2.0,1.0,1.0,1.0,448.9637240003503,3.0,1.0,phase_1,,,,,,,,,,,,,green,circle
0.0,1.0,0.0,0.0,3.0,3.0,485.4634710000027,3.0,1.0,phase_1,,,,,,,,,,,,,yellow,cross
629.0,7.0,2.0,1.0,4.0,4.0,514.9280519999593,3.0,1.0,phase_1,,,,,,,,,,,,,green,circle
344.0,2.0,1.0,0.0,3.0,3.0,423.3718870000302,3.0,1.0,phase_1,,,,,,,,,,,,,magenta,diamond
1299.0,8.0,4.0,1.0,1.0,1.0,468.585953999991,3.0,1.0,phase_1,,,,,,,,,,,,,gray,square
329.0,6.0,1.0,1.0,2.0,2.0,399.7220640003434,3.0,1.0,phase_1,,,,,,,,,,,,,blue,hexagon
178.0,5.0,0.5,1.0,1.0,1.0,415.066372000183,3.0,1.0,phase_1,,,,,,,,,,,,,cyan,triangle
0.0,2.0,0.0,0.0,1.0,1.0,393.1250209998325,3.0,1.0,phase_1,,,,,,,,,,,,,magenta,diamond
0.0,8.0,0.0,1.0,4.0,4.0,480.3249139999934,3.0,1.0,phase_1,,,,,,,,,,,,,gray,square
187.0,5.0,0.5,1.0,2.0,2.0,340.7971389997328,3.0,1.0,phase_1,,,,,,,,,,,,,cyan,triangle
173.0,5.0,0.5,1.0,3.0,3.0,367.1058090003498,3.0,1.0,phase_1,,,,,,,,,,,,,cyan,triangle
0.0,6.0,0.0,1.0,2.0,2.0,621.0254009997698,3.0,1.0,phase_1,,,,,,,,,,,,,blue,hexagon
0.0,1.0,0.0,0.0,3.0,3.0,648.3104090002598,3.0,1.0,phase_1,,,,,,,,,,,,,yellow,cross
315.0,2.0,1.0,0.0,3.0,3.0,396.6436890000295,3.0,1.0,phase_1,,,,,,,,,,,,,magenta,diamond
1306.0,4.0,4.0,0.0,1.0,1.0,440.8071329999075,3.0,1.0,phase_1,,,,,,,,,,,,,orange,I
1316.0,8.0,4.0,1.0,3.0,3.0,408.4816469999168,3.0,1.0,phase_1,,,,,,,,,,,,,gray,square
0.0,7.0,0.0,1.0,2.0,2.0,396.2081519998719,3.0,1.0,phase_1,,,,,,,,,,,,,green,circle
173.0,5.0,0.5,1.0,2.0,2.0,423.094337999828,3.0,1.0,phase_1,,,,,,,,,,,,,cyan,triangle
1298.0,8.0,4.0,1.0,1.0,1.0,475.6680159998723,3.0,1.0,phase_1,,,,,,,,,,,,,gray,square
0.0,5.0,0.0,1.0,2.0,2.0,394.440521999968,3.0,1.0,phase_1,,,,,,,,,,,,,cyan,triangle
1303.0,4.0,4.0,0.0,3.0,3.0,352.1021070000643,3.0,1.0,phase_1,,,,,,,,,,,,,orange,I
645.0,3.0,2.0,0.0,2.0,2.0,369.1312750001998,3.0,1.0,phase_1,,,,,,,,,,,,,white,flipped triangle
0.0,2.0,0.0,0.0,2.0,2.0,373.7050949998775,3.0,1.0,phase_1,,,,,,,,,,,,,magenta,diamond
187.0,1.0,0.5,0.0,4.0,4.0,947.2967970000354,3.0,1.0,phase_1,,,,,,,,,,,,,yellow,cross
314.0,6.0,1.0,1.0,4.0,4.0,463.7862949998634,3.0,1.0,phase_1,,,,,,,,,,,,,blue,hexagon
1285.0,4.0,4.0,0.0,4.0,4.0,500.6134860000202,3.0,1.0,phase_1,,,,,,,,,,,,,orange,I
330.0,2.0,1.0,0.0,1.0,1.0,505.0444469998183,3.0,1.0,phase_1,,,,,,,,,,,,,magenta,diamond
1280.0,4.0,4.0,0.0,2.0,2.0,429.3674239997926,3.0,1.0,phase_1,,,,,,,,,,,,,orange,I
141.0,5.0,0.5,1.0,4.0,4.0,394.4891799997094,3.0,1.0,phase_1,,,,,,,,,,,,,cyan,triangle
1321.0,4.0,4.0,0.0,2.0,2.0,488.0042839999987,3.0,1.0,phase_1,,,,,,,,,,,,,orange,I
181.0,1.0,0.5,0.0,2.0,2.0,354.9010890001227,3.0,1.0,phase_1,,,,,,,,,,,,,yellow,cross
1294.0,4.0,4.0,0.0,1.0,1.0,394.4242229999872,3.0,1.0,phase_1,,,,,,,,,,,,,orange,I
317.0,6.0,1.0,1.0,3.0,3.0,606.6171309998936,3.0,1.0,phase_1,,,,,,,,,,,,,blue,hexagon
1290.0,4.0,4.0,0.0,1.0,1.0,440.9451080000508,3.0,1.0,phase_1,,,,,,,,,,,,,orange,I
0.0,3.0,0.0,0.0,4.0,4.0,423.3680649999769,3.0,1.0,phase_1,,,,,,,,,,,,,white,flipped triangle
1293.0,4.0,4.0,0.0,2.0,2.0,339.1468130002977,3.0,1.0,phase_1,,,,,,,,,,,,,orange,I
0.0,7.0,0.0,1.0,1.0,1.0,447.0051439998315,3.0,1.0,phase_1,,,,,,,,,,,,,green,circle
317.0,2.0,1.0,0.0,4.0,4.0,371.8368849999933,3.0,1.0,phase_1,,,,,,,,,,,,,magenta,diamond
1294.0,8.0,4.0,1.0,1.0,1.0,402.4613130000034,3.0,1.0,phase_1,,,,,,,,,,,,,gray,square
304.0,6.0,1.0,1.0,4.0,4.0,381.2695219999114,3.0,1.0,phase_1,,,,,,,,,,,,,blue,hexagon
346.0,6.0,1.0,1.0,3.0,3.0,452.1176529997319,3.0,1.0,phase_1,,,,,,,,,,,,,blue,hexagon
666.0,3.0,2.0,0.0,4.0,4.0,464.9602819999927,3.0,1.0,phase_1,,,,,,,,,,,,,white,flipped triangle
0.0,7.0,0.0,1.0,1.0,1.0,467.1107730000585,3.0,1.0,phase_1,,,,,,,,,,,,,green,circle
1299.0,4.0,4.0,0.0,4.0,4.0,407.8941329998997,3.0,1.0,phase_1,,,,,,,,,,,,,orange,I
1316.0,4.0,4.0,0.0,3.0,3.0,343.3328310002252,3.0,1.0,phase_1,,,,,,,,,,,,,orange,I
317.0,6.0,1.0,1.0,2.0,2.0,304.4273390000853,3.0,1.0,phase_1,,,,,,,,,,,,,blue,hexagon
629.0,7.0,2.0,1.0,2.0,2.0,431.9123999998737,3.0,1.0,phase_1,,,,,,,,,,,,,green,circle
171.0,1.0,0.5,0.0,2.0,2.0,369.4593640002495,3.0,1.0,phase_1,,,,,,,,,,,,,yellow,cross
329.0,2.0,1.0,0.0,2.0,2.0,374.8441049997382,3.0,1.0,phase_1,,,,,,,,,,,,,magenta,diamond
329.0,2.0,1.0,0.0,4.0,4.0,461.5946790004273,3.0,1.0,phase_1,,,,,,,,,,,,,magenta,diamond
320.0,6.0,1.0,1.0,2.0,2.0,343.599931999961,3.0,1.0,phase_1,,,,,,,,,,,,,blue,hexagon
169.0,5.0,0.5,1.0,4.0,4.0,412.9697170001236,3.0,1.0,phase_1,,,,,,,,,,,,,cyan,triangle
671.0,7.0,2.0,1.0,1.0,1.0,441.2939789999655,3.0,1.0,phase_1,,,,,,,,,,,,,green,circle
650.0,7.0,2.0,1.0,1.0,1.0,408.7040479998904,3.0,1.0,phase_1,,,,,,,,,,,,,green,circle
330.0,6.0,1.0,1.0,2.0,2.0,435.0972629999887,3.0,1.0,phase_1,,,,,,,,,,,,,blue,hexagon
169.0,5.0,0.5,1.0,2.0,2.0,472.4368209999738,3.0,1.0,phase_1,,,,,,,,,,,,,cyan,triangle
1284.0,8.0,4.0,1.0,4.0,4.0,899.9242520003463,3.0,1.0,phase_1,,,,,,,,,,,,,gray,square
0.0,1.0,0.0,0.0,4.0,4.0,512.1198100000584,3.0,1.0,phase_1,,,,,,,,,,,,,yellow,cross
659.0,7.0,2.0,1.0,3.0,3.0,381.6883399999824,3.0,1.0,phase_1,,,,,,,,,,,,,green,circle
1285.0,4.0,4.0,0.0,2.0,2.0,338.6150019996421,3.0,1.0,phase_1,,,,,,,,,,,,,orange,I
630.0,3.0,2.0,0.0,2.0,2.0,334.5841840000503,3.0,1.0,phase_1,,,,,,,,,,,,,white,flipped triangle
313.0,2.0,1.0,0.0,2.0,2.0,331.4503139999942,3.0,1.0,phase_1,,,,,,,,,,,,,magenta,diamond
154.0,5.0,0.5,1.0,1.0,1.0,407.9866400002174,3.0,1.0,phase_1,,,,,,,,,,,,,cyan,triangle
1320.0,8.0,4.0,1.0,1.0,1.0,417.6998660000208,4.0,1.0,phase_1,,,,,,,,,,,,,gray,square
0.0,8.0,0.0,1.0,1.0,1.0,446.0744279999744,4.0,1.0,phase_1,,,,,,,,,,,,,gray,square
0.0,3.0,0.0,0.0,2.0,2.0,403.3183359997565,4.0,1.0,phase_1,,,,,,,,,,,,,white,flipped triangle
170.0,1.0,0.5,0.0,1.0,1.0,423.1921569999031,4.0,1.0,phase_1,,,,,,,,,,,,,yellow,cross
343.0,2.0,1.0,0.0,1.0,1.0,396.951799999897,4.0,1.0,phase_1,,,,,,,,,,,,,magenta,diamond
326.0,6.0,1.0,1.0,1.0,1.0,360.7819819999349,4.0,1.0,phase_1,,,,,,,,,,,,,blue,hexagon
648.0,3.0,2.0,0.0,2.0,2.0,428.0721899999662,4.0,1.0,phase_1,,,,,,,,,,,,,white,flipped triangle
150.0,1.0,0.5,0.0,1.0,1.0,385.4059700001926,4.0,1.0,phase_1,,,,,,,,,,,,,yellow,cross
669.0,3.0,2.0,0.0,2.0,2.0,381.3342660000671,4.0,1.0,phase_1,,,,,,,,,,,,,white,flipped triangle
641.0,7.0,2.0,1.0,2.0,2.0,357.1628560002864,4.0,1.0,phase_1,,,,,,,,,,,,,green,circle
169.0,1.0,0.5,0.0,1.0,1.0,417.6505359996554,4.0,1.0,phase_1,,,,,,,,,,,,,yellow,cross
0.0,6.0,0.0,1.0,1.0,1.0,492.9877710001165,4.0,1.0,phase_1,,,,,,,,,,,,,blue,hexagon
0.0,6.0,0.0,1.0,3.0,3.0,521.6819350002879,4.0,1.0,phase_1,,,,,,,,,,,,,blue,hexagon
1277.0,8.0,4.0,1.0,1.0,1.0,404.9589159999414,4.0,1.0,phase_1,,,,,,,,,,,,,gray,square
320.0,2.0,1.0,0.0,4.0,4.0,354.2051530002936,4.0,1.0,phase_1,,,,,,,,,,,,,magenta,diamond
1298.0,4.0,4.0,0.0,1.0,1.0,366.2492280000151,4.0,1.0,phase_1,,,,,,,,,,,,,orange,I
170.0,5.0,0.5,1.0,3.0,3.0,451.4136499997221,4.0,1.0,phase_1,,,,,,,,,,,,,cyan,triangle
306.0,2.0,1.0,0.0,2.0,2.0,375.4899229998045,4.0,1.0,phase_1,,,,,,,,,,,,,magenta,diamond
174.0,5.0,0.5,1.0,1.0,1.0,452.2575630003302,4.0,1.0,phase_1,,,,,,,,,,,,,cyan,triangle
663.0,3.0,2.0,0.0,1.0,1.0,336.8628520001948,4.0,1.0,phase_1,,,,,,,,,,,,,white,flipped triangle
163.0,1.0,0.5,0.0,4.0,4.0,423.9013030000933,4.0,1.0,phase_1,,,,,,,,,,,,,yellow,cross
1323.0,8.0,4.0,1.0,3.0,3.0,524.2255580001256,4.0,1.0,phase_1,,,,,,,,,,,,,gray,square
0.0,4.0,0.0,0.0,4.0,4.0,513.0931870003224,4.0,1.0,phase_1,,,,,,,,,,,,,orange,I
1279.0,8.0,4.0,1.0,2.0,2.0,597.5952839999081,4.0,1.0,phase_1,,,,,,,,,,,,,gray,square
1289.0,4.0,4.0,0.0,1.0,1.0,375.7987710000634,4.0,1.0,phase_1,,,,,,,,,,,,,orange,I
178.0,1.0,0.5,0.0,3.0,3.0,533.032976999948,4.0,1.0,phase_1,,,,,,,,,,,,,yellow,cross
0.0,2.0,0.0,0.0,2.0,2.0,370.4562129996702,4.0,1.0,phase_1,,,,,,,,,,,,,magenta,diamond
304.0,2.0,1.0,0.0,1.0,1.0,376.7455719998906,4.0,1.0,phase_1,,,,,,,,,,,,,magenta,diamond
0.0,2.0,0.0,0.0,1.0,1.0,378.6830569997619,4.0,1.0,phase_1,,,,,,,,,,,,,magenta,diamond
1280.0,8.0,4.0,1.0,4.0,4.0,423.2921409998198,4.0,1.0,phase_1,,,,,,,,,,,,,gray,square
322.0,6.0,1.0,1.0,2.0,2.0,355.5514409999887,4.0,1.0,phase_1,,,,,,,,,,,,,blue,hexagon
641.0,7.0,2.0,1.0,1.0,1.0,489.7334100000989,4.0,1.0,phase_1,,,,,,,,,,,,,green,circle
652.0,3.0,2.0,0.0,2.0,2.0,446.1014349999459,4.0,1.0,phase_1,,,,,,,,,,,,,white,flipped triangle
1313.0,8.0,4.0,1.0,2.0,2.0,378.3926720002455,4.0,1.0,phase_1,,,,,,,,,,,,,gray,square
1310.0,8.0,4.0,1.0,4.0,4.0,446.2078789997576,4.0,1.0,phase_1,,,,,,,,,,,,,gray,square
138.0,1.0,0.5,0.0,3.0,3.0,513.5278570000992,4.0,1.0,phase_1,,,,,,,,,,,,,yellow,cross
674.0,3.0,2.0,0.0,2.0,2.0,417.4016709998795,4.0,1.0,phase_1,,,,,,,,,,,,,white,flipped triangle
672.0,7.0,2.0,1.0,4.0,4.0,859.8437939999712,4.0,1.0,phase_1,,,,,,,,,,,,,green,circle
1294.0,4.0,4.0,0.0,4.0,4.0,393.2997470001282,4.0,1.0,phase_1,,,,,,,,,,,,,orange,I
1294.0,8.0,4.0,1.0,3.0,3.0,526.4660780003396,4.0,1.0,phase_1,,,,,,,,,,,,,gray,square
0.0,2.0,0.0,0.0,1.0,1.0,474.006516999907,4.0,1.0,phase_1,,,,,,,,,,,,,magenta,diamond
302.0,2.0,1.0,0.0,4.0,4.0,422.6928250000128,4.0,1.0,phase_1,,,,,,,,,,,,,magenta,diamond
329.0,6.0,1.0,1.0,3.0,3.0,541.29313500016,4.0,1.0,phase_1,,,,,,,,,,,,,blue,hexagon
640.0,7.0,2.0,1.0,4.0,4.0,402.94422199986,4.0,1.0,phase_1,,,,,,,,,,,,,green,circle
0.0,3.0,0.0,0.0,1.0,1.0,396.6269219999958,4.0,1.0,phase_1,,,,,,,,,,,,,white,flipped triangle
328.0,6.0,1.0,1.0,3.0,3.0,411.6527790001782,4.0,1.0,phase_1,,,,,,,,,,,,,blue,hexagon
0.0,8.0,0.0,1.0,2.0,2.0,344.41548399991,4.0,1.0,phase_1,,,,,,,,,,,,,gray,square
173.0,1.0,0.5,0.0,4.0,4.0,363.9539400001013,4.0,1.0,phase_1,,,,,,,,,,,,,yellow,cross
157.0,5.0,0.5,1.0,2.0,2.0,351.4985239999078,4.0,1.0,phase_1,,,,,,,,,,,,,cyan,triangle
669.0,3.0,2.0,0.0,4.0,4.0,475.8557149998523,4.0,1.0,phase_1,,,,,,,,,,,,,white,flipped triangle
0.0,4.0,0.0,0.0,1.0,1.0,387.0825319995674,4.0,1.0,phase_1,,,,,,,,,,,,,orange,I
1303.0,8.0,4.0,1.0,3.0,3.0,424.070242000198,4.0,1.0,phase_1,,,,,,,,,,,,,gray,square
138.0,5.0,0.5,1.0,1.0,1.0,378.8019059998078,4.0,1.0,phase_1,,,,,,,,,,,,,cyan,triangle
1306.0,4.0,4.0,0.0,2.0,2.0,454.5273710000401,4.0,1.0,phase_1,,,,,,,,,,,,,orange,I
328.0,6.0,1.0,1.0,1.0,1.0,507.6451550003185,4.0,1.0,phase_1,,,,,,,,,,,,,blue,hexagon
0.0,4.0,0.0,0.0,1.0,1.0,352.0094960003916,4.0,1.0,phase_1,,,,,,,,,,,,,orange,I
648.0,7.0,2.0,1.0,2.0,2.0,389.53093300006,4.0,1.0,phase_1,,,,,,,,,,,,,green,circle
326.0,2.0,1.0,0.0,1.0,1.0,425.9920770000462,4.0,1.0,phase_1,,,,,,,,,,,,,magenta,diamond
629.0,3.0,2.0,0.0,3.0,3.0,421.9644939998943,4.0,1.0,phase_1,,,,,,,,,,,,,white,flipped triangle
184.0,5.0,0.5,1.0,1.0,1.0,434.017570999913,4.0,1.0,phase_1,,,,,,,,,,,,,cyan,triangle
1277.0,4.0,4.0,0.0,1.0,1.0,383.2621270003074,4.0,1.0,phase_1,,,,,,,,,,,,,orange,I
1299.0,8.0,4.0,1.0,4.0,4.0,438.0635469997287,4.0,1.0,phase_1,,,,,,,,,,,,,gray,square
1285.0,4.0,4.0,0.0,4.0,4.0,407.4356010000883,4.0,1.0,phase_1,,,,,,,,,,,,,orange,I
656.0,3.0,2.0,0.0,4.0,4.0,371.6835360000914,4.0,1.0,phase_1,,,,,,,,,,,,,white,flipped triangle
1279.0,8.0,4.0,1.0,3.0,3.0,571.7617260002044,4.0,1.0,phase_1,,,,,,,,,,,,,gray,square
337.0,2.0,1.0,0.0,4.0,4.0,525.867758000004,4.0,1.0,phase_1,,,,,,,,,,,,,magenta,diamond
343.0,6.0,1.0,1.0,4.0,4.0,401.9840410001052,4.0,1.0,phase_1,,,,,,,,,,,,,blue,hexagon
153.0,1.0,0.5,0.0,3.0,3.0,465.4381939999439,4.0,1.0,phase_1,,,,,,,,,,,,,yellow,cross
0.0,8.0,0.0,1.0,2.0,2.0,613.3768549998422,4.0,1.0,phase_1,,,,,,,,,,,,,gray,square
161.0,1.0,0.5,0.0,1.0,1.0,511.4429979998931,4.0,1.0,phase_1,,,,,,,,,,,,,yellow,cross
183.0,5.0,0.5,1.0,4.0,4.0,396.8372580002324,4.0,1.0,phase_1,,,,,,,,,,,,,cyan,triangle
302.0,6.0,1.0,1.0,4.0,4.0,547.2963810002511,4.0,1.0,phase_1,,,,,,,,,,,,,blue,hexagon
0.0,7.0,0.0,1.0,4.0,4.0,391.137824999987,4.0,1.0,phase_1,,,,,,,,,,,,,green,circle
328.0,2.0,1.0,0.0,4.0,4.0,443.3976690002055,4.0,1.0,phase_1,,,,,,,,,,,,,magenta,diamond
150.0,5.0,0.5,1.0,1.0,1.0,472.9255009997359,4.0,1.0,phase_1,,,,,,,,,,,,,cyan,triangle
637.0,3.0,2.0,0.0,1.0,1.0,404.9477160001515,4.0,1.0,phase_1,,,,,,,,,,,,,white,flipped triangle
314.0,2.0,1.0,0.0,4.0,4.0,426.1595800003306,4.0,1.0,phase_1,,,,,,,,,,,,,magenta,diamond
181.0,5.0,0.5,1.0,4.0,4.0,438.0102660002194,4.0,1.0,phase_1,,,,,,,,,,,,,cyan,triangle
326.0,2.0,1.0,0.0,2.0,2.0,609.421237999868,4.0,1.0,phase_1,,,,,,,,,,,,,magenta,diamond
1318.0,4.0,4.0,0.0,2.0,2.0,360.4896469996674,4.0,1.0,phase_1,,,,,,,,,,,,,orange,I
330.0,2.0,1.0,0.0,4.0,4.0,434.5320930001435,4.0,1.0,phase_1,,,,,,,,,,,,,magenta,diamond
337.0,6.0,1.0,1.0,1.0,1.0,408.0120609996811,4.0,1.0,phase_1,,,,,,,,,,,,,blue,hexagon
1306.0,8.0,4.0,1.0,2.0,2.0,611.2702129998979,4.0,1.0,phase_1,,,,,,,,,,,,,gray,square
184.0,1.0,0.5,0.0,2.0,2.0,544.915390999904,4.0,1.0,phase_1,,,,,,,,,,,,,yellow,cross
1296.0,4.0,4.0,0.0,1.0,1.0,454.8884899995755,4.0,1.0,phase_1,,,,,,,,,,,,,orange,I
666.0,7.0,2.0,1.0,3.0,3.0,412.3350239997307,4.0,1.0,phase_1,,,,,,,,,,,,,green,circle
0.0,1.0,0.0,0.0,4.0,4.0,478.2610460001706,4.0,1.0,phase_1,,,,,,,,,,,,,yellow,cross
667.0,3.0,2.0,0.0,3.0,3.0,493.9048240003103,4.0,1.0,phase_1,,,,,,,,,,,,,white,flipped triangle
648.0,7.0,2.0,1.0,1.0,1.0,513.3143389998622,4.0,1.0,phase_1,,,,,,,,,,,,,green,circle
1309.0,4.0,4.0,0.0,2.0,2.0,516.8840970000019,4.0,1.0,phase_1,,,,,,,,,,,,,orange,I
1312.0,8.0,4.0,1.0,2.0,2.0,378.338807000091,4.0,1.0,phase_1,,,,,,,,,,,,,gray,square
1313.0,4.0,4.0,0.0,3.0,3.0,456.2830670001858,4.0,1.0,phase_1,,,,,,,,,,,,,orange,I
0.0,6.0,0.0,1.0,3.0,3.0,587.4402090003059,4.0,1.0,phase_1,,,,,,,,,,,,,blue,hexagon
659.0,7.0,2.0,1.0,3.0,3.0,527.3909860002277,4.0,1.0,phase_1,,,,,,,,,,,,,green,circle
651.0,7.0,2.0,1.0,2.0,2.0,356.63326599978967,4.0,1.0,phase_1,,,,,,,,,,,,,green,circle
0.0,7.0,0.0,1.0,4.0,4.0,435.43259899979597,4.0,1.0,phase_1,,,,,,,,,,,,,green,circle
144.0,5.0,0.5,1.0,1.0,1.0,511.00928099958765,4.0,1.0,phase_1,,,,,,,,,,,,,cyan,triangle
175.0,5.0,0.5,1.0,2.0,2.0,529.1874859999552,4.0,1.0,phase_1,,,,,,,,,,,,,cyan,triangle
140.0,1.0,0.5,0.0,1.0,1.0,416.6538819999914,4.0,1.0,phase_1,,,,,,,,,,,,,yellow,cross
330.0,6.0,1.0,1.0,2.0,2.0,538.6974250000094,4.0,1.0,phase_1,,,,,,,,,,,,,blue,hexagon
0.0,5.0,0.5,1.0,5.0,5.0,614.9883449998015,1.0,1.0,phase_2,stop,250.0,250.0,3.0,,,,,,,,,cyan,triangle
0.0,2.0,1.0,0.0,6.0,6.0,825.4232980002598,1.0,1.0,phase_2,go,200.0,250.0,1.0,,,,,,,,,magenta,diamond
0.0,4.0,4.0,0.0,5.0,5.0,982.0905569999924,1.0,1.0,phase_2,go,200.0,250.0,1.0,,,,,,,,,orange,I
0.0,1.0,0.5,0.0,6.0,6.0,967.3692860001212,1.0,1.0,phase_2,go,200.0,250.0,1.0,,,,,,,,,yellow,cross
0.0,6.0,1.0,1.0,5.0,5.0,884.9155150001025,1.0,1.0,phase_2,go,200.0,250.0,1.0,,,,,,,,,blue,hexagon
0.0,4.0,4.0,0.0,5.0,5.0,990.823035000176,1.0,1.0,phase_2,go,200.0,250.0,1.0,,,,,,,,,orange,I
0.0,1.0,0.5,0.0,6.0,6.0,918.3308970000326,1.0,1.0,phase_2,go,200.0,250.0,1.0,,,,,,,,,yellow,cross
0.0,2.0,1.0,0.0,5.0,5.0,739.3465889999788,1.0,1.0,phase_2,go,200.0,250.0,1.0,,,,,,,,,magenta,diamond
0.0,8.0,4.0,1.0,6.0,6.0,316.2337200001275,1.0,1.0,phase_2,stop,200.0,250.0,3.0,,,,,,,,,gray,square
0.0,5.0,0.5,1.0,6.0,0.0,0.0,1.0,1.0,phase_2,stop,200.0,200.0,4.0,,,,,,,,,cyan,triangle
0.0,2.0,1.0,0.0,6.0,6.0,753.9110809998419,1.0,1.0,phase_2,go,200.0,250.0,1.0,,,,,,,,,magenta,diamond
0.0,3.0,2.0,0.0,6.0,6.0,745.5397140001878,1.0,1.0,phase_2,go,200.0,250.0,1.0,,,,,,,,,white,flipped triangle
0.0,6.0,1.0,1.0,5.0,5.0,711.8098040000405,1.0,1.0,phase_2,go,200.0,250.0,1.0,,,,,,,,,blue,hexagon
0.0,4.0,4.0,0.0,6.0,6.0,799.847206999857,1.0,1.0,phase_2,go,200.0,250.0,1.0,,,,,,,,,orange,I
0.0,8.0,4.0,1.0,5.0,0.0,0.0,1.0,1.0,phase_2,stop,200.0,250.0,4.0,,,,,,,,,gray,square
0.0,4.0,4.0,0.0,5.0,5.0,814.3484679999347,1.0,1.0,phase_2,go,250.0,250.0,1.0,,,,,,,,,orange,I
0.0,8.0,4.0,1.0,6.0,0.0,0.0,1.0,1.0,phase_2,stop,250.0,250.0,4.0,,,,,,,,,gray,square
0.0,4.0,4.0,0.0,5.0,5.0,988.8534290003008,1.0,1.0,phase_2,go,250.0,300.0,1.0,,,,,,,,,orange,I
0.0,4.0,4.0,0.0,5.0,5.0,812.2499910000442,1.0,1.0,phase_2,go,250.0,300.0,1.0,,,,,,,,,orange,I
0.0,2.0,1.0,0.0,5.0,5.0,851.6543709997677,1.0,1.0,phase_2,go,250.0,300.0,1.0,,,,,,,,,magenta,diamond
0.0,3.0,2.0,0.0,5.0,5.0,956.0085110001636,1.0,1.0,phase_2,go,250.0,300.0,1.0,,,,,,,,,white,flipped triangle
0.0,4.0,4.0,0.0,6.0,6.0,788.849035000112,1.0,1.0,phase_2,go,250.0,300.0,1.0,,,,,,,,,orange,I
0.0,2.0,1.0,0.0,5.0,5.0,827.0513259999461,1.0,1.0,phase_2,go,250.0,300.0,1.0,,,,,,,,,magenta,diamond
0.0,3.0,2.0,0.0,6.0,6.0,848.4805129996857,1.0,1.0,phase_2,go,250.0,300.0,1.0,,,,,,,,,white,flipped triangle
0.0,2.0,1.0,0.0,6.0,6.0,1034.5499019999806,1.0,1.0,phase_2,go,250.0,300.0,1.0,,,,,,,,,magenta,diamond
0.0,3.0,2.0,0.0,5.0,5.0,847.8494440000759,1.0,1.0,phase_2,go,250.0,300.0,1.0,,,,,,,,,white,flipped triangle
0.0,7.0,2.0,1.0,6.0,0.0,0.0,1.0,1.0,phase_2,stop,250.0,300.0,4.0,,,,,,,,,green,circle
0.0,1.0,0.5,0.0,5.0,5.0,1144.1600279999875,1.0,1.0,phase_2,go,250.0,350.0,1.0,,,,,,,,,yellow,cross
0.0,7.0,2.0,1.0,6.0,0.0,0.0,1.0,1.0,phase_2,stop,250.0,350.0,4.0,,,,,,,,,green,circle
0.0,5.0,0.5,1.0,5.0,0.0,0.0,1.0,1.0,phase_2,stop,250.0,400.0,4.0,,,,,,,,,cyan,triangle
0.0,4.0,4.0,0.0,6.0,6.0,742.1609769999122,1.0,1.0,phase_2,go,300.0,400.0,1.0,,,,,,,,,orange,I
0.0,7.0,2.0,1.0,5.0,5.0,788.1720219997987,1.0,1.0,phase_2,go,300.0,400.0,1.0,,,,,,,,,green,circle
0.0,1.0,0.5,0.0,5.0,5.0,762.9004969999187,1.0,1.0,phase_2,go,300.0,400.0,1.0,,,,,,,,,yellow,cross
0.0,1.0,0.5,0.0,5.0,5.0,773.3019180000156,1.0,1.0,phase_2,go,300.0,400.0,1.0,,,,,,,,,yellow,cross
0.0,1.0,0.5,0.0,6.0,6.0,763.8127260001966,1.0,1.0,phase_2,go,300.0,400.0,1.0,,,,,,,,,yellow,cross
0.0,5.0,0.5,1.0,5.0,5.0,642.6872189999813,1.0,1.0,phase_2,go,300.0,400.0,1.0,,,,,,,,,cyan,triangle
0.0,4.0,4.0,0.0,5.0,5.0,780.6022749996373,2.0,1.0,phase_2,go,300.0,400.0,1.0,,,,,,,,,orange,I
0.0,8.0,4.0,1.0,5.0,0.0,0.0,2.0,1.0,phase_2,stop,300.0,400.0,4.0,,,,,,,,,gray,square
0.0,3.0,2.0,0.0,6.0,6.0,533.8191320001897,2.0,1.0,phase_2,go,350.0,400.0,1.0,,,,,,,,,white,flipped triangle
0.0,1.0,0.5,0.0,5.0,5.0,563.2766990001983,2.0,1.0,phase_2,go,350.0,400.0,1.0,,,,,,,,,yellow,cross
0.0,5.0,0.5,1.0,5.0,5.0,556.1256790001607,2.0,1.0,phase_2,go,350.0,400.0,1.0,,,,,,,,,cyan,triangle
0.0,4.0,4.0,0.0,5.0,5.0,545.6939189998593,2.0,1.0,phase_2,go,350.0,400.0,1.0,,,,,,,,,orange,I
0.0,5.0,0.5,1.0,6.0,0.0,0.0,2.0,1.0,phase_2,stop,350.0,400.0,4.0,,,,,,,,,cyan,triangle
0.0,5.0,0.5,1.0,5.0,5.0,371.8943159997252,2.0,1.0,phase_2,stop,350.0,450.0,3.0,,,,,,,,,cyan,triangle
0.0,2.0,1.0,0.0,5.0,5.0,809.541593999711,2.0,1.0,phase_2,go,300.0,450.0,1.0,,,,,,,,,magenta,diamond
0.0,6.0,1.0,1.0,5.0,0.0,0.0,2.0,1.0,phase_2,stop,300.0,450.0,4.0,,,,,,,,,blue,hexagon
0.0,1.0,0.5,0.0,5.0,5.0,830.9403479997854,2.0,1.0,phase_2,go,350.0,450.0,1.0,,,,,,,,,yellow,cross
0.0,2.0,1.0,0.0,5.0,5.0,752.0810070000152,2.0,1.0,phase_2,go,350.0,450.0,1.0,,,,,,,,,magenta,diamond
0.0,6.0,1.0,1.0,6.0,0.0,0.0,2.0,1.0,phase_2,stop,350.0,450.0,4.0,,,,,,,,,blue,hexagon
0.0,7.0,2.0,1.0,5.0,0.0,0.0,2.0,1.0,phase_2,stop,350.0,500.0,4.0,,,,,,,,,green,circle
0.0,6.0,1.0,1.0,5.0,0.0,0.0,2.0,1.0,phase_2,stop,400.0,500.0,4.0,,,,,,,,,blue,hexagon
0.0,4.0,4.0,0.0,6.0,6.0,460.1920809996045,2.0,1.0,phase_2,go,450.0,500.0,1.0,,,,,,,,,orange,I
0.0,5.0,0.5,1.0,5.0,5.0,723.3966440003314,2.0,1.0,phase_2,go,450.0,500.0,1.0,,,,,,,,,cyan,triangle
0.0,3.0,2.0,0.0,6.0,6.0,523.9886519998436,2.0,1.0,phase_2,go,450.0,500.0,1.0,,,,,,,,,white,flipped triangle
0.0,4.0,4.0,0.0,5.0,5.0,410.0386479999542,2.0,1.0,phase_2,go,450.0,500.0,1.0,,,,,,,,,orange,I
0.0,7.0,2.0,1.0,5.0,0.0,0.0,2.0,1.0,phase_2,stop,450.0,500.0,4.0,,,,,,,,,green,circle
0.0,3.0,2.0,0.0,6.0,6.0,713.056607999988,2.0,1.0,phase_2,go,500.0,500.0,1.0,,,,,,,,,white,flipped triangle
0.0,5.0,0.5,1.0,5.0,5.0,625.0395309998567,2.0,1.0,phase_2,go,500.0,500.0,1.0,,,,,,,,,cyan,triangle
0.0,1.0,0.5,0.0,5.0,5.0,487.4975049997374,2.0,1.0,phase_2,go,500.0,500.0,1.0,,,,,,,,,yellow,cross
0.0,5.0,0.5,1.0,6.0,6.0,495.5719649997263,2.0,1.0,phase_2,stop,500.0,500.0,3.0,,,,,,,,,cyan,triangle
0.0,3.0,2.0,0.0,5.0,5.0,749.9175589996412,2.0,1.0,phase_2,go,500.0,450.0,1.0,,,,,,,,,white,flipped triangle
0.0,6.0,1.0,1.0,6.0,6.0,351.4261180002904,2.0,1.0,phase_2,stop,500.0,450.0,3.0,,,,,,,,,blue,hexagon
0.0,6.0,1.0,1.0,5.0,0.0,0.0,2.0,1.0,phase_2,stop,500.0,400.0,4.0,,,,,,,,,blue,hexagon
0.0,8.0,4.0,1.0,5.0,0.0,0.0,2.0,1.0,phase_2,stop,550.0,400.0,4.0,,,,,,,,,gray,square
0.0,4.0,4.0,0.0,5.0,5.0,1051.9760949996453,2.0,1.0,phase_2,go,600.0,400.0,1.0,,,,,,,,,orange,I
0.0,2.0,1.0,0.0,6.0,6.0,885.1774949998799,2.0,1.0,phase_2,go,600.0,400.0,1.0,,,,,,,,,magenta,diamond
0.0,1.0,0.5,0.0,5.0,5.0,602.8730110001561,2.0,1.0,phase_2,go,600.0,400.0,1.0,,,,,,,,,yellow,cross
0.0,7.0,2.0,1.0,5.0,5.0,419.2648350003765,2.0,1.0,phase_2,stop,600.0,400.0,3.0,,,,,,,,,green,circle
0.0,1.0,0.5,0.0,6.0,6.0,737.496984000245,2.0,1.0,phase_2,go,550.0,400.0,1.0,,,,,,,,,yellow,cross
0.0,5.0,0.5,1.0,6.0,6.0,440.1872179996644,2.0,1.0,phase_2,stop,550.0,400.0,3.0,,,,,,,,,cyan,triangle
0.0,4.0,4.0,0.0,6.0,6.0,729.9904859996786,2.0,1.0,phase_2,go,550.0,350.0,1.0,,,,,,,,,orange,I
0.0,2.0,1.0,0.0,6.0,6.0,487.5044200002776,2.0,1.0,phase_2,go,550.0,350.0,1.0,,,,,,,,,magenta,diamond
0.0,6.0,1.0,1.0,6.0,6.0,567.2629969999434,3.0,1.0,phase_2,go,550.0,350.0,1.0,,,,,,,,,blue,hexagon
0.0,2.0,1.0,0.0,5.0,5.0,463.3064259996899,3.0,1.0,phase_2,go,550.0,350.0,1.0,,,,,,,,,magenta,diamond
0.0,1.0,0.5,0.0,5.0,5.0,630.1416050000626,3.0,1.0,phase_2,go,550.0,350.0,1.0,,,,,,,,,yellow,cross
0.0,8.0,4.0,1.0,6.0,6.0,459.6051600001374,3.0,1.0,phase_2,stop,550.0,350.0,3.0,,,,,,,,,gray,square
0.0,7.0,2.0,1.0,6.0,0.0,0.0,3.0,1.0,phase_2,stop,550.0,300.0,4.0,,,,,,,,,green,circle
0.0,5.0,0.5,1.0,6.0,0.0,0.0,3.0,1.0,phase_2,stop,550.0,350.0,4.0,,,,,,,,,cyan,triangle
0.0,3.0,2.0,0.0,5.0,5.0,636.0065380004016,3.0,1.0,phase_2,go,550.0,400.0,1.0,,,,,,,,,white,flipped triangle
0.0,8.0,4.0,1.0,5.0,5.0,643.2363789999727,3.0,1.0,phase_2,stop,550.0,400.0,3.0,,,,,,,,,gray,square
0.0,5.0,0.5,1.0,6.0,0.0,0.0,3.0,1.0,phase_2,stop,500.0,400.0,4.0,,,,,,,,,cyan,triangle
0.0,7.0,2.0,1.0,6.0,6.0,808.8613760000953,3.0,1.0,phase_2,go,500.0,450.0,1.0,,,,,,,,,green,circle
0.0,5.0,0.5,1.0,5.0,5.0,674.1740130000835,3.0,1.0,phase_2,stop,500.0,450.0,3.0,,,,,,,,,cyan,triangle
0.0,7.0,2.0,1.0,6.0,0.0,0.0,3.0,1.0,phase_2,stop,450.0,450.0,4.0,,,,,,,,,green,circle
0.0,8.0,4.0,1.0,5.0,0.0,0.0,3.0,1.0,phase_2,stop,450.0,500.0,4.0,,,,,,,,,gray,square
0.0,1.0,0.5,0.0,6.0,6.0,718.0895950000377,3.0,1.0,phase_2,go,500.0,500.0,1.0,,,,,,,,,yellow,cross
0.0,1.0,0.5,0.0,6.0,6.0,661.6667079997569,3.0,1.0,phase_2,go,500.0,500.0,1.0,,,,,,,,,yellow,cross
0.0,3.0,2.0,0.0,5.0,5.0,694.0338529993824,3.0,1.0,phase_2,go,500.0,500.0,1.0,,,,,,,,,white,flipped triangle
0.0,5.0,0.5,1.0,6.0,6.0,579.5035580003969,3.0,1.0,phase_2,stop,500.0,500.0,3.0,,,,,,,,,cyan,triangle
0.0,6.0,1.0,1.0,5.0,0.0,0.0,3.0,1.0,phase_2,stop,500.0,450.0,4.0,,,,,,,,,blue,hexagon
0.0,6.0,1.0,1.0,6.0,0.0,0.0,3.0,1.0,phase_2,stop,550.0,450.0,4.0,,,,,,,,,blue,hexagon
0.0,3.0,2.0,0.0,5.0,5.0,763.8086850001855,3.0,1.0,phase_2,go,550.0,500.0,1.0,,,,,,,,,white,flipped triangle
0.0,1.0,0.5,0.0,6.0,6.0,649.829115999637,3.0,1.0,phase_2,go,550.0,500.0,1.0,,,,,,,,,yellow,cross
0.0,6.0,1.0,1.0,5.0,5.0,473.4656760001599,3.0,1.0,phase_2,go,550.0,500.0,1.0,,,,,,,,,blue,hexagon
0.0,8.0,4.0,1.0,6.0,6.0,482.3846330000378,3.0,1.0,phase_2,stop,550.0,500.0,3.0,,,,,,,,,gray,square
0.0,8.0,4.0,1.0,5.0,5.0,897.8248419998636,3.0,1.0,phase_2,go,550.0,450.0,1.0,,,,,,,,,gray,square
0.0,3.0,2.0,0.0,6.0,6.0,687.419750999652,3.0,1.0,phase_2,go,550.0,450.0,1.0,,,,,,,,,white,flipped triangle
0.0,4.0,4.0,0.0,5.0,5.0,710.7460449997234,3.0,1.0,phase_2,go,550.0,450.0,1.0,,,,,,,,,orange,I
0.0,3.0,2.0,0.0,6.0,6.0,662.6333419999355,3.0,1.0,phase_2,go,550.0,450.0,1.0,,,,,,,,,white,flipped triangle
0.0,3.0,2.0,0.0,6.0,6.0,405.5790500005969,3.0,1.0,phase_2,go,550.0,450.0,1.0,,,,,,,,,white,flipped triangle
0.0,8.0,4.0,1.0,5.0,5.0,484.6125139993091,3.0,1.0,phase_2,stop,550.0,450.0,3.0,,,,,,,,,gray,square
0.0,3.0,2.0,0.0,5.0,5.0,797.2825139995621,3.0,1.0,phase_2,go,500.0,450.0,1.0,,,,,,,,,white,flipped triangle
0.0,5.0,0.5,1.0,5.0,0.0,0.0,3.0,1.0,phase_2,stop,500.0,450.0,4.0,,,,,,,,,cyan,triangle
0.0,4.0,4.0,0.0,6.0,6.0,371.2139660001412,3.0,1.0,phase_2,go,550.0,450.0,1.0,,,,,,,,,orange,I
0.0,3.0,2.0,0.0,5.0,5.0,913.70471800019,3.0,1.0,phase_2,go,550.0,450.0,1.0,,,,,,,,,white,flipped triangle
0.0,8.0,4.0,1.0,5.0,0.0,0.0,3.0,1.0,phase_2,stop,550.0,450.0,4.0,,,,,,,,,gray,square
0.0,2.0,1.0,0.0,5.0,5.0,1081.2339759995666,3.0,1.0,phase_2,go,600.0,450.0,1.0,,,,,,,,,magenta,diamond
0.0,4.0,4.0,0.0,5.0,5.0,744.697962999453,3.0,1.0,phase_2,go,600.0,450.0,1.0,,,,,,,,,orange,I
0.0,7.0,2.0,1.0,5.0,5.0,748.7914089997503,4.0,1.0,phase_2,stop,600.0,450.0,3.0,,,,,,,,,green,circle
0.0,2.0,1.0,0.0,5.0,5.0,859.2006609997043,4.0,1.0,phase_2,go,550.0,450.0,1.0,,,,,,,,,magenta,diamond
0.0,4.0,4.0,0.0,6.0,6.0,651.9922830002542,4.0,1.0,phase_2,go,550.0,450.0,1.0,,,,,,,,,orange,I
0.0,8.0,4.0,1.0,5.0,5.0,601.569768000445,4.0,1.0,phase_2,stop,550.0,450.0,3.0,,,,,,,,,gray,square
0.0,3.0,2.0,0.0,6.0,6.0,690.9515999996074,4.0,1.0,phase_2,go,500.0,450.0,1.0,,,,,,,,,white,flipped triangle
0.0,7.0,2.0,1.0,5.0,0.0,0.0,4.0,1.0,phase_2,stop,500.0,450.0,4.0,,,,,,,,,green,circle
0.0,3.0,2.0,0.0,5.0,5.0,770.0184120003541,4.0,1.0,phase_2,go,550.0,450.0,1.0,,,,,,,,,white,flipped triangle
0.0,8.0,4.0,1.0,6.0,0.0,0.0,4.0,1.0,phase_2,stop,550.0,450.0,4.0,,,,,,,,,gray,square
0.0,3.0,2.0,0.0,6.0,6.0,622.8685200003383,4.0,1.0,phase_2,go,550.0,500.0,1.0,,,,,,,,,white,flipped triangle
0.0,6.0,1.0,1.0,5.0,0.0,0.0,4.0,1.0,phase_2,stop,550.0,500.0,4.0,,,,,,,,,blue,hexagon
0.0,4.0,4.0,0.0,5.0,5.0,860.9629870006756,4.0,1.0,phase_2,go,600.0,500.0,1.0,,,,,,,,,orange,I
0.0,2.0,1.0,0.0,5.0,5.0,916.6159619999236,4.0,1.0,phase_2,go,600.0,500.0,1.0,,,,,,,,,magenta,diamond
0.0,1.0,0.5,0.0,5.0,5.0,596.6151049997279,4.0,1.0,phase_2,go,600.0,500.0,1.0,,,,,,,,,yellow,cross
0.0,2.0,1.0,0.0,5.0,5.0,805.1725619998251,4.0,1.0,phase_2,go,600.0,500.0,1.0,,,,,,,,,magenta,diamond
0.0,3.0,2.0,0.0,6.0,6.0,523.0414259995086,4.0,1.0,phase_2,go,600.0,500.0,1.0,,,,,,,,,white,flipped triangle
0.0,5.0,0.5,1.0,5.0,5.0,500.33616200016695,4.0,1.0,phase_2,stop,600.0,500.0,3.0,,,,,,,,,cyan,triangle
0.0,8.0,4.0,1.0,6.0,6.0,625.228939000408,4.0,1.0,phase_2,stop,550.0,500.0,3.0,,,,,,,,,gray,square
0.0,6.0,1.0,1.0,6.0,6.0,722.9345489995467,4.0,1.0,phase_2,go,550.0,450.0,1.0,,,,,,,,,blue,hexagon
0.0,1.0,0.5,0.0,6.0,6.0,696.791552999457,4.0,1.0,phase_2,go,550.0,450.0,1.0,,,,,,,,,yellow,cross
0.0,4.0,4.0,0.0,5.0,5.0,704.2560110003251,4.0,1.0,phase_2,go,550.0,450.0,1.0,,,,,,,,,orange,I
0.0,5.0,0.5,1.0,5.0,5.0,511.4785429996118,4.0,1.0,phase_2,go,550.0,450.0,1.0,,,,,,,,,cyan,triangle
0.0,5.0,0.5,1.0,6.0,6.0,566.8926309999733,4.0,1.0,phase_2,stop,550.0,450.0,3.0,,,,,,,,,cyan,triangle
0.0,1.0,0.5,0.0,6.0,6.0,703.9413180000338,4.0,1.0,phase_2,go,550.0,400.0,1.0,,,,,,,,,yellow,cross
0.0,8.0,4.0,1.0,6.0,6.0,662.937520000014,4.0,1.0,phase_2,go,550.0,400.0,1.0,,,,,,,,,gray,square
0.0,6.0,1.0,1.0,6.0,0.0,0.0,4.0,1.0,phase_2,stop,550.0,400.0,4.0,,,,,,,,,blue,hexagon
0.0,2.0,1.0,0.0,6.0,6.0,627.3599549995197,4.0,1.0,phase_2,go,550.0,450.0,1.0,,,,,,,,,magenta,diamond
0.0,4.0,4.0,0.0,6.0,6.0,613.3545410002625,4.0,1.0,phase_2,go,550.0,450.0,1.0,,,,,,,,,orange,I
0.0,2.0,1.0,0.0,5.0,5.0,500.2303490000486,4.0,1.0,phase_2,go,550.0,450.0,1.0,,,,,,,,,magenta,diamond
0.0,5.0,0.5,1.0,6.0,0.0,0.0,4.0,1.0,phase_2,stop,550.0,450.0,4.0,,,,,,,,,cyan,triangle
0.0,4.0,4.0,0.0,6.0,6.0,689.7711170004186,4.0,1.0,phase_2,go,550.0,500.0,1.0,,,,,,,,,orange,I
0.0,6.0,1.0,1.0,5.0,5.0,713.6850019996928,4.0,1.0,phase_2,stop,550.0,500.0,3.0,,,,,,,,,blue,hexagon
0.0,3.0,2.0,0.0,6.0,6.0,890.4742999993687,4.0,1.0,phase_2,go,500.0,500.0,1.0,,,,,,,,,white,flipped triangle
0.0,5.0,0.5,1.0,6.0,0.0,0.0,4.0,1.0,phase_2,stop,500.0,500.0,4.0,,,,,,,,,cyan,triangle
0.0,2.0,1.0,0.0,6.0,6.0,857.273496999369,4.0,1.0,phase_2,go,500.0,550.0,1.0,,,,,,,,,magenta,diamond
0.0,2.0,1.0,0.0,6.0,6.0,696.7713340000046,4.0,1.0,phase_2,go,500.0,550.0,1.0,,,,,,,,,magenta,diamond
0.0,2.0,1.0,0.0,6.0,6.0,534.1619130003892,4.0,1.0,phase_2,go,500.0,550.0,1.0,,,,,,,,,magenta,diamond
0.0,6.0,1.0,1.0,6.0,6.0,415.644135000548,5.0,1.0,phase_2,stop,500.0,550.0,3.0,,,,,,,,,blue,hexagon
0.0,5.0,0.5,1.0,5.0,5.0,663.7770309998814,5.0,1.0,phase_2,go,500.0,500.0,1.0,,,,,,,,,cyan,triangle
0.0,7.0,2.0,1.0,6.0,6.0,639.0134869998292,5.0,1.0,phase_2,stop,500.0,500.0,3.0,,,,,,,,,green,circle
0.0,7.0,2.0,1.0,6.0,0.0,0.0,5.0,1.0,phase_2,stop,500.0,450.0,4.0,,,,,,,,,green,circle
0.0,8.0,4.0,1.0,6.0,0.0,0.0,5.0,1.0,phase_2,stop,500.0,500.0,4.0,,,,,,,,,gray,square
0.0,7.0,2.0,1.0,6.0,6.0,724.593095000273,5.0,1.0,phase_2,go,500.0,550.0,1.0,,,,,,,,,green,circle
0.0,1.0,0.5,0.0,5.0,5.0,694.1366159999234,5.0,1.0,phase_2,go,500.0,550.0,1.0,,,,,,,,,yellow,cross
0.0,1.0,0.5,0.0,5.0,5.0,691.9669019998764,5.0,1.0,phase_2,go,500.0,550.0,1.0,,,,,,,,,yellow,cross
0.0,1.0,0.5,0.0,5.0,5.0,516.9688460000543,5.0,1.0,phase_2,go,500.0,550.0,1.0,,,,,,,,,yellow,cross
0.0,2.0,1.0,0.0,6.0,6.0,587.0553980003024,5.0,1.0,phase_2,go,500.0,550.0,1.0,,,,,,,,,magenta,diamond
0.0,4.0,4.0,0.0,6.0,6.0,610.0626629995531,5.0,1.0,phase_2,go,500.0,550.0,1.0,,,,,,,,,orange,I
0.0,2.0,1.0,0.0,6.0,6.0,401.5533820002019,5.0,1.0,phase_2,go,500.0,550.0,1.0,,,,,,,,,magenta,diamond
0.0,8.0,4.0,1.0,6.0,6.0,376.1766389998229,5.0,1.0,phase_2,stop,500.0,550.0,3.0,,,,,,,,,gray,square
0.0,6.0,1.0,1.0,5.0,5.0,768.4567999995124,5.0,1.0,phase_2,go,500.0,500.0,1.0,,,,,,,,,blue,hexagon
0.0,3.0,2.0,0.0,6.0,6.0,607.9785840001932,5.0,1.0,phase_2,go,500.0,500.0,1.0,,,,,,,,,white,flipped triangle
0.0,6.0,1.0,1.0,5.0,5.0,326.3799670003209,5.0,1.0,phase_2,stop,500.0,500.0,3.0,,,,,,,,,blue,hexagon
0.0,5.0,0.5,1.0,6.0,6.0,318.6444759994629,5.0,1.0,phase_2,stop,450.0,500.0,3.0,,,,,,,,,cyan,triangle
0.0,4.0,4.0,0.0,6.0,6.0,581.5639570000712,5.0,1.0,phase_2,go,450.0,450.0,1.0,,,,,,,,,orange,I
0.0,7.0,2.0,1.0,5.0,5.0,333.5815750006077,5.0,1.0,phase_2,stop,450.0,450.0,3.0,,,,,,,,,green,circle
0.0,6.0,1.0,1.0,5.0,0.0,0.0,5.0,1.0,phase_2,stop,400.0,450.0,4.0,,,,,,,,,blue,hexagon
0.0,7.0,2.0,1.0,6.0,6.0,724.0141080001194,5.0,1.0,phase_2,go,450.0,450.0,1.0,,,,,,,,,green,circle
0.0,6.0,1.0,1.0,6.0,0.0,0.0,5.0,1.0,phase_2,stop,450.0,450.0,4.0,,,,,,,,,blue,hexagon
0.0,8.0,4.0,1.0,5.0,0.0,0.0,5.0,1.0,phase_2,stop,450.0,500.0,4.0,,,,,,,,,gray,square
0.0,1.0,0.5,0.0,6.0,6.0,698.4441570002673,5.0,1.0,phase_2,go,500.0,500.0,1.0,,,,,,,,,yellow,cross
0.0,3.0,2.0,0.0,6.0,6.0,665.6538060005914,5.0,1.0,phase_2,go,500.0,500.0,1.0,,,,,,,,,white,flipped triangle
0.0,1.0,0.5,0.0,6.0,6.0,633.1864369994946,5.0,1.0,phase_2,go,500.0,500.0,1.0,,,,,,,,,yellow,cross
0.0,7.0,2.0,1.0,5.0,5.0,562.3246240002118,5.0,1.0,phase_2,stop,500.0,500.0,3.0,,,,,,,,,green,circle
0.0,8.0,4.0,1.0,6.0,0.0,0.0,5.0,1.0,phase_2,stop,450.0,500.0,4.0,,,,,,,,,gray,square
0.0,8.0,4.0,1.0,6.0,6.0,751.680782999756,5.0,1.0,phase_2,go,450.0,550.0,1.0,,,,,,,,,gray,square
0.0,7.0,2.0,1.0,5.0,0.0,0.0,5.0,1.0,phase_2,stop,450.0,550.0,4.0,,,,,,,,,green,circle
0.0,7.0,2.0,1.0,6.0,6.0,631.2024449998717,5.0,1.0,phase_2,stop,500.0,550.0,3.0,,,,,,,,,green,circle
0.0,8.0,4.0,1.0,6.0,0.0,0.0,5.0,1.0,phase_2,stop,500.0,500.0,4.0,,,,,,,,,gray,square
0.0,1.0,0.5,0.0,5.0,5.0,710.152936000668,5.0,1.0,phase_2,go,500.0,550.0,1.0,,,,,,,,,yellow,cross
0.0,8.0,4.0,1.0,5.0,5.0,739.9601520000942,5.0,1.0,phase_2,go,500.0,550.0,1.0,,,,,,,,,gray,square
0.0,2.0,1.0,0.0,5.0,5.0,731.3421310000194,5.0,1.0,phase_2,go,500.0,550.0,1.0,,,,,,,,,magenta,diamond
0.0,6.0,1.0,1.0,5.0,0.0,0.0,5.0,1.0,phase_2,stop,500.0,550.0,4.0,,,,,,,,,blue,hexagon
0.0,6.0,1.0,1.0,6.0,0.0,0.0,6.0,1.0,phase_2,stop,550.0,550.0,4.0,,,,,,,,,blue,hexagon
0.0,1.0,0.5,0.0,6.0,6.0,624.7649199995067,6.0,1.0,phase_2,go,550.0,600.0,1.0,,,,,,,,,yellow,cross
0.0,6.0,1.0,1.0,6.0,6.0,600.819311000123,6.0,1.0,phase_2,go,550.0,600.0,1.0,,,,,,,,,blue,hexagon
0.0,4.0,4.0,0.0,5.0,5.0,535.9887730000992,6.0,1.0,phase_2,go,550.0,600.0,1.0,,,,,,,,,orange,I
0.0,6.0,1.0,1.0,6.0,6.0,620.8195199997135,6.0,1.0,phase_2,stop,550.0,600.0,3.0,,,,,,,,,blue,hexagon
0.0,1.0,0.5,0.0,6.0,6.0,606.326748000356,6.0,1.0,phase_2,go,550.0,550.0,1.0,,,,,,,,,yellow,cross
0.0,8.0,4.0,1.0,5.0,0.0,0.0,6.0,1.0,phase_2,stop,550.0,550.0,4.0,,,,,,,,,gray,square
0.0,2.0,1.0,0.0,5.0,5.0,877.8908779995618,6.0,1.0,phase_2,go,600.0,550.0,1.0,,,,,,,,,magenta,diamond
0.0,2.0,1.0,0.0,6.0,6.0,718.5567660008019,6.0,1.0,phase_2,go,600.0,550.0,1.0,,,,,,,,,magenta,diamond
0.0,5.0,0.5,1.0,5.0,5.0,709.3600550006158,6.0,1.0,phase_2,go,600.0,550.0,1.0,,,,,,,,,cyan,triangle
0.0,1.0,0.5,0.0,5.0,5.0,747.6039499997569,6.0,1.0,phase_2,go,600.0,550.0,1.0,,,,,,,,,yellow,cross
0.0,6.0,1.0,1.0,5.0,5.0,626.6759010004535,6.0,1.0,phase_2,stop,600.0,550.0,3.0,,,,,,,,,blue,hexagon
0.0,7.0,2.0,1.0,5.0,5.0,643.1373360001089,6.0,1.0,phase_2,stop,550.0,550.0,3.0,,,,,,,,,green,circle
0.0,8.0,4.0,1.0,6.0,0.0,0.0,6.0,1.0,phase_2,go,500.0,550.0,5.0,,,,,,,,,gray,square
0.0,8.0,4.0,1.0,5.0,0.0,0.0,6.0,1.0,phase_2,stop,500.0,550.0,4.0,,,,,,,,,gray,square
0.0,3.0,2.0,0.0,5.0,5.0,816.568191999977,6.0,1.0,phase_2,go,550.0,550.0,1.0,,,,,,,,,white,flipped triangle
0.0,2.0,1.0,0.0,6.0,6.0,921.4937390006526,6.0,1.0,phase_2,go,550.0,550.0,1.0,,,,,,,,,magenta,diamond
0.0,8.0,4.0,1.0,5.0,0.0,0.0,6.0,1.0,phase_2,stop,550.0,550.0,4.0,,,,,,,,,gray,square
0.0,8.0,4.0,1.0,6.0,6.0,743.8057149993256,6.0,1.0,phase_2,go,600.0,550.0,1.0,,,,,,,,,gray,square
0.0,3.0,2.0,0.0,5.0,5.0,726.5022530000351,6.0,1.0,phase_2,go,600.0,550.0,1.0,,,,,,,,,white,flipped triangle
0.0,1.0,0.5,0.0,6.0,6.0,629.8516679999011,6.0,1.0,phase_2,go,600.0,550.0,1.0,,,,,,,,,yellow,cross
0.0,2.0,1.0,0.0,6.0,6.0,589.1830339996886,6.0,1.0,phase_2,go,600.0,550.0,1.0,,,,,,,,,magenta,diamond
0.0,6.0,1.0,1.0,5.0,5.0,742.139455999677,6.0,1.0,phase_2,stop,600.0,550.0,3.0,,,,,,,,,blue,hexagon
0.0,4.0,4.0,0.0,5.0,5.0,669.4641409994802,6.0,1.0,phase_2,go,550.0,550.0,1.0,,,,,,,,,orange,I
0.0,3.0,2.0,0.0,5.0,5.0,634.8758209996959,6.0,1.0,phase_2,go,550.0,550.0,1.0,,,,,,,,,white,flipped triangle
0.0,1.0,0.5,0.0,6.0,6.0,673.8051459997223,6.0,1.0,phase_2,go,550.0,550.0,1.0,,,,,,,,,yellow,cross
0.0,7.0,2.0,1.0,6.0,6.0,747.6867730001686,6.0,1.0,phase_2,go,550.0,550.0,1.0,,,,,,,,,green,circle
0.0,1.0,0.5,0.0,6.0,6.0,353.4399529999064,6.0,1.0,phase_2,go,550.0,550.0,1.0,,,,,,,,,yellow,cross
0.0,4.0,4.0,0.0,5.0,5.0,560.9400200000891,6.0,1.0,phase_2,go,550.0,550.0,1.0,,,,,,,,,orange,I
0.0,8.0,4.0,1.0,5.0,5.0,841.6824039995845,6.0,1.0,phase_2,go,550.0,550.0,1.0,,,,,,,,,gray,square
0.0,3.0,2.0,0.0,5.0,5.0,599.6434300004694,6.0,1.0,phase_2,go,550.0,550.0,1.0,,,,,,,,,white,flipped triangle
0.0,7.0,2.0,1.0,6.0,6.0,545.0037620003059,6.0,1.0,phase_2,stop,550.0,550.0,3.0,,,,,,,,,green,circle
0.0,1.0,0.5,0.0,5.0,5.0,614.3614050006363,6.0,1.0,phase_2,go,550.0,500.0,1.0,,,,,,,,,yellow,cross
0.0,5.0,0.5,1.0,5.0,5.0,654.4792389995564,6.0,1.0,phase_2,stop,550.0,500.0,3.0,,,,,,,,,cyan,triangle
0.0,2.0,1.0,0.0,5.0,5.0,981.0357659998772,6.0,1.0,phase_2,go,500.0,500.0,1.0,,,,,,,,,magenta,diamond
0.0,6.0,1.0,1.0,6.0,0.0,0.0,6.0,1.0,phase_2,stop,500.0,500.0,4.0,,,,,,,,,blue,hexagon
0.0,8.0,4.0,1.0,6.0,0.0,0.0,7.0,1.0,phase_2,stop,500.0,550.0,4.0,,,,,,,,,gray,square
0.0,3.0,2.0,0.0,6.0,6.0,660.6577560005462,7.0,1.0,phase_2,go,500.0,600.0,1.0,,,,,,,,,white,flipped triangle
0.0,7.0,2.0,1.0,6.0,6.0,587.3553149995132,7.0,1.0,phase_2,stop,500.0,600.0,3.0,,,,,,,,,green,circle
0.0,5.0,0.5,1.0,6.0,0.0,0.0,7.0,1.0,phase_2,stop,500.0,550.0,4.0,,,,,,,,,cyan,triangle
0.0,3.0,2.0,0.0,5.0,5.0,832.5574880000204,7.0,1.0,phase_2,go,500.0,600.0,1.0,,,,,,,,,white,flipped triangle
0.0,5.0,0.5,1.0,6.0,0.0,0.0,7.0,1.0,phase_2,stop,500.0,600.0,4.0,,,,,,,,,cyan,triangle
0.0,7.0,2.0,1.0,5.0,5.0,774.5590310005355,7.0,1.0,phase_2,go,500.0,650.0,1.0,,,,,,,,,green,circle
0.0,7.0,2.0,1.0,5.0,0.0,0.0,7.0,1.0,phase_2,stop,500.0,650.0,4.0,,,,,,,,,green,circle
0.0,7.0,2.0,1.0,5.0,0.0,0.0,7.0,1.0,phase_2,stop,550.0,650.0,4.0,,,,,,,,,green,circle
0.0,2.0,1.0,0.0,6.0,6.0,839.3118590001905,7.0,1.0,phase_2,go,600.0,650.0,1.0,,,,,,,,,magenta,diamond
0.0,5.0,0.5,1.0,6.0,6.0,366.2974310000209,7.0,1.0,phase_2,stop,600.0,650.0,3.0,,,,,,,,,cyan,triangle
0.0,6.0,1.0,1.0,6.0,0.0,0.0,7.0,1.0,phase_2,stop,600.0,600.0,4.0,,,,,,,,,blue,hexagon
0.0,6.0,1.0,1.0,5.0,0.0,0.0,7.0,1.0,phase_2,stop,600.0,650.0,4.0,,,,,,,,,blue,hexagon
0.0,8.0,4.0,1.0,6.0,6.0,826.9041680005103,7.0,1.0,phase_2,go,650.0,650.0,1.0,,,,,,,,,gray,square
0.0,2.0,1.0,0.0,5.0,5.0,708.8482260005549,7.0,1.0,phase_2,go,650.0,650.0,1.0,,,,,,,,,magenta,diamond
0.0,1.0,0.5,0.0,5.0,5.0,610.3467490002004,7.0,1.0,phase_2,go,650.0,650.0,1.0,,,,,,,,,yellow,cross
0.0,4.0,4.0,0.0,6.0,6.0,488.6888179999005,7.0,1.0,phase_2,go,650.0,650.0,1.0,,,,,,,,,orange,I
0.0,4.0,4.0,0.0,6.0,6.0,313.3398240006499,7.0,1.0,phase_2,go,650.0,650.0,1.0,,,,,,,,,orange,I
0.0,1.0,0.5,0.0,6.0,6.0,479.0243249999548,7.0,1.0,phase_2,go,650.0,650.0,1.0,,,,,,,,,yellow,cross
0.0,2.0,1.0,0.0,6.0,6.0,366.2908609994701,7.0,1.0,phase_2,go,650.0,650.0,1.0,,,,,,,,,magenta,diamond
0.0,1.0,0.5,0.0,5.0,5.0,551.6109939999296,7.0,1.0,phase_2,go,650.0,650.0,1.0,,,,,,,,,yellow,cross
0.0,7.0,2.0,1.0,5.0,5.0,567.2713569992993,7.0,1.0,phase_2,go,650.0,650.0,1.0,,,,,,,,,green,circle
0.0,7.0,2.0,1.0,6.0,6.0,407.2089280007276,7.0,1.0,phase_2,stop,650.0,650.0,3.0,,,,,,,,,green,circle
0.0,6.0,1.0,1.0,6.0,6.0,620.636948999163,7.0,1.0,phase_2,stop,650.0,600.0,3.0,,,,,,,,,blue,hexagon
0.0,7.0,2.0,1.0,6.0,0.0,0.0,7.0,1.0,phase_2,stop,650.0,550.0,4.0,,,,,,,,,green,circle
0.0,3.0,2.0,0.0,6.0,6.0,771.0306330000094,7.0,1.0,phase_2,go,650.0,600.0,1.0,,,,,,,,,white,flipped triangle
0.0,5.0,0.5,1.0,6.0,6.0,683.1740130000981,7.0,1.0,phase_2,go,650.0,600.0,1.0,,,,,,,,,cyan,triangle
0.0,5.0,0.5,1.0,6.0,6.0,545.3080509996653,7.0,1.0,phase_2,stop,650.0,600.0,3.0,,,,,,,,,cyan,triangle
0.0,2.0,1.0,0.0,6.0,6.0,915.5832459991872,7.0,1.0,phase_2,go,650.0,550.0,1.0,,,,,,,,,magenta,diamond
0.0,7.0,2.0,1.0,5.0,5.0,706.6969289999179,7.0,1.0,phase_2,stop,650.0,550.0,3.0,,,,,,,,,green,circle
0.0,4.0,4.0,0.0,6.0,6.0,768.6218469998494,7.0,1.0,phase_2,go,600.0,550.0,1.0,,,,,,,,,orange,I
0.0,7.0,2.0,1.0,6.0,0.0,0.0,7.0,1.0,phase_2,stop,600.0,550.0,4.0,,,,,,,,,green,circle
0.0,4.0,4.0,0.0,6.0,6.0,519.6094560005804,7.0,1.0,phase_2,go,600.0,600.0,1.0,,,,,,,,,orange,I
0.0,3.0,2.0,0.0,5.0,5.0,769.0004330006559,7.0,1.0,phase_2,go,600.0,600.0,1.0,,,,,,,,,white,flipped triangle
0.0,3.0,2.0,0.0,5.0,5.0,335.841600999629,7.0,1.0,phase_2,go,600.0,600.0,1.0,,,,,,,,,white,flipped triangle
0.0,1.0,0.5,0.0,5.0,5.0,388.6166419997607,7.0,1.0,phase_2,go,600.0,600.0,1.0,,,,,,,,,yellow,cross
0.0,5.0,0.5,1.0,6.0,0.0,0.0,8.0,1.0,phase_2,stop,600.0,600.0,4.0,,,,,,,,,cyan,triangle
0.0,2.0,1.0,0.0,5.0,5.0,635.7519739995041,8.0,1.0,phase_2,go,600.0,650.0,1.0,,,,,,,,,magenta,diamond
0.0,4.0,4.0,0.0,5.0,5.0,387.1075499992003,8.0,1.0,phase_2,go,600.0,650.0,1.0,,,,,,,,,orange,I
0.0,7.0,2.0,1.0,6.0,6.0,611.8827250002141,8.0,1.0,phase_2,stop,600.0,650.0,3.0,,,,,,,,,green,circle
0.0,2.0,1.0,0.0,6.0,6.0,849.8019889993884,8.0,1.0,phase_2,go,600.0,600.0,1.0,,,,,,,,,magenta,diamond
0.0,6.0,1.0,1.0,6.0,6.0,913.129403000312,8.0,1.0,phase_2,go,600.0,600.0,1.0,,,,,,,,,blue,hexagon
0.0,3.0,2.0,0.0,6.0,6.0,743.7657749997015,8.0,1.0,phase_2,go,600.0,600.0,1.0,,,,,,,,,white,flipped triangle
0.0,7.0,2.0,1.0,5.0,5.0,639.620200000536,8.0,1.0,phase_2,stop,600.0,600.0,3.0,,,,,,,,,green,circle
0.0,4.0,4.0,0.0,6.0,6.0,639.075254999625,8.0,1.0,phase_2,go,550.0,600.0,1.0,,,,,,,,,orange,I
0.0,2.0,1.0,0.0,5.0,5.0,712.5935140002184,8.0,1.0,phase_2,go,550.0,600.0,1.0,,,,,,,,,magenta,diamond
0.0,8.0,4.0,1.0,5.0,5.0,791.6595979995691,8.0,1.0,phase_2,go,550.0,600.0,1.0,,,,,,,,,gray,square
0.0,1.0,0.5,0.0,6.0,6.0,709.8054670004785,8.0,1.0,phase_2,go,550.0,600.0,1.0,,,,,,,,,yellow,cross
0.0,5.0,0.5,1.0,6.0,0.0,0.0,8.0,1.0,phase_2,stop,550.0,600.0,4.0,,,,,,,,,cyan,triangle
0.0,8.0,4.0,1.0,5.0,0.0,0.0,8.0,1.0,phase_2,stop,550.0,650.0,4.0,,,,,,,,,gray,square
0.0,3.0,2.0,0.0,6.0,6.0,747.6250340005208,8.0,1.0,phase_2,go,600.0,650.0,1.0,,,,,,,,,white,flipped triangle
0.0,8.0,4.0,1.0,5.0,0.0,0.0,8.0,1.0,phase_2,stop,600.0,650.0,4.0,,,,,,,,,gray,square
0.0,4.0,4.0,0.0,5.0,5.0,578.3965049995459,8.0,1.0,phase_2,go,650.0,650.0,1.0,,,,,,,,,orange,I
0.0,6.0,1.0,1.0,6.0,6.0,963.519076999546,8.0,1.0,phase_2,go,650.0,650.0,1.0,,,,,,,,,blue,hexagon
0.0,5.0,0.5,1.0,5.0,5.0,593.1709500000579,8.0,1.0,phase_2,stop,650.0,650.0,3.0,,,,,,,,,cyan,triangle
0.0,6.0,1.0,1.0,6.0,0.0,0.0,8.0,1.0,phase_2,stop,600.0,650.0,4.0,,,,,,,,,blue,hexagon
0.0,7.0,2.0,1.0,6.0,6.0,745.3582859998278,8.0,1.0,phase_2,go,600.0,700.0,1.0,,,,,,,,,green,circle
0.0,5.0,0.5,1.0,5.0,5.0,681.3462599993727,8.0,1.0,phase_2,go,600.0,700.0,1.0,,,,,,,,,cyan,triangle
0.0,5.0,0.5,1.0,5.0,5.0,726.6058629993495,8.0,1.0,phase_2,stop,600.0,700.0,3.0,,,,,,,,,cyan,triangle
0.0,3.0,2.0,0.0,5.0,5.0,845.5088270002307,8.0,1.0,phase_2,go,550.0,700.0,1.0,,,,,,,,,white,flipped triangle
0.0,7.0,2.0,1.0,5.0,0.0,0.0,8.0,1.0,phase_2,stop,550.0,700.0,4.0,,,,,,,,,green,circle
0.0,5.0,0.5,1.0,5.0,0.0,0.0,8.0,1.0,phase_2,stop,600.0,700.0,4.0,,,,,,,,,cyan,triangle
0.0,4.0,4.0,0.0,6.0,6.0,644.3365549994269,8.0,1.0,phase_2,go,650.0,700.0,1.0,,,,,,,,,orange,I
0.0,6.0,1.0,1.0,5.0,5.0,787.5884439999936,8.0,1.0,phase_2,stop,650.0,700.0,3.0,,,,,,,,,blue,hexagon
0.0,2.0,1.0,0.0,5.0,5.0,1202.9573350000646,8.0,1.0,phase_2,go,600.0,700.0,1.0,,,,,,,,,magenta,diamond
0.0,7.0,2.0,1.0,5.0,5.0,1059.1119740001886,8.0,1.0,phase_2,go,600.0,700.0,1.0,,,,,,,,,green,circle
0.0,8.0,4.0,1.0,6.0,0.0,0.0,8.0,1.0,phase_2,stop,600.0,700.0,4.0,,,,,,,,,gray,square
0.0,3.0,2.0,0.0,5.0,5.0,857.6961420003499,8.0,1.0,phase_2,go,600.0,750.0,1.0,,,,,,,,,white,flipped triangle
0.0,4.0,4.0,0.0,6.0,6.0,544.5115520005857,8.0,1.0,phase_2,go,600.0,750.0,1.0,,,,,,,,,orange,I
0.0,6.0,1.0,1.0,5.0,0.0,0.0,8.0,1.0,phase_2,stop,600.0,750.0,4.0,,,,,,,,,blue,hexagon
0.0,6.0,1.0,1.0,6.0,6.0,888.1500240004243,8.0,1.0,phase_2,stop,650.0,750.0,3.0,,,,,,,,,blue,hexagon
0.0,8.0,4.0,1.0,6.0,0.0,0.0,8.0,1.0,phase_2,stop,650.0,700.0,4.0,,,,,,,,,gray,square
0.0,3.0,2.0,0.0,7.0,3.0,3845.5410050000864,1.0,1.0,phase_3,,,,,768.0,4.0,576.0,192.0,768.0,960.0,384.0,1152.0,white,flipped triangle
0.0,5.0,0.5,1.0,7.0,2.0,3687.92599400058,1.0,1.0,phase_3,,,,,519.0,3.0,865.0,519.0,1038.0,173.0,346.0,692.0,cyan,triangle
0.0,8.0,4.0,1.0,7.0,2.0,3112.835511999947,1.0,1.0,phase_3,,,,,696.0,6.0,580.0,696.0,348.0,116.0,232.0,464.0,gray,square
0.0,7.0,2.0,1.0,7.0,5.0,3788.5320629993657,1.0,1.0,phase_3,,,,,348.0,3.0,464.0,696.0,580.0,116.0,348.0,232.0,green,circle
0.0,8.0,4.0,1.0,7.0,6.0,4053.389247999803,1.0,1.0,phase_3,,,,,270.0,2.0,675.0,405.0,810.0,135.0,540.0,270.0,gray,square
0.0,5.0,0.5,1.0,7.0,1.0,815.5468230006591,1.0,2.0,phase_3,,,,,692.0,4.0,692.0,865.0,346.0,173.0,519.0,1038.0,cyan,triangle
0.0,1.0,0.5,0.0,7.0,1.0,1921.074564000264,1.0,1.0,phase_3,,,,,384.0,2.0,384.0,1152.0,768.0,960.0,576.0,192.0,yellow,cross
0.0,3.0,2.0,0.0,7.0,5.0,1172.6225900001737,1.0,1.0,phase_3,,,,,810.0,6.0,540.0,405.0,675.0,135.0,810.0,270.0,white,flipped triangle
0.0,6.0,1.0,1.0,7.0,2.0,1435.1470729998257,1.0,1.0,phase_3,,,,,576.0,3.0,1152.0,576.0,960.0,384.0,768.0,192.0,blue,hexagon
0.0,4.0,4.0,0.0,7.0,1.0,1926.4326900001836,1.0,1.0,phase_3,,,,,810.0,6.0,810.0,135.0,540.0,270.0,405.0,675.0,orange,I
0.0,5.0,0.5,1.0,7.0,4.0,1055.4516259999218,1.0,1.0,phase_3,,,,,232.0,2.0,580.0,116.0,464.0,232.0,696.0,348.0,cyan,triangle
0.0,4.0,4.0,0.0,7.0,5.0,2311.1825890000546,1.0,1.0,phase_3,,,,,768.0,4.0,384.0,192.0,1152.0,576.0,768.0,960.0,orange,I
0.0,8.0,4.0,1.0,7.0,6.0,1153.8110729998152,1.0,1.0,phase_3,,,,,616.0,4.0,462.0,154.0,770.0,924.0,308.0,616.0,gray,square
0.0,8.0,4.0,1.0,7.0,4.0,1450.2999189999173,1.0,1.0,phase_3,,,,,1038.0,6.0,865.0,692.0,519.0,1038.0,173.0,346.0,gray,square
0.0,1.0,0.5,0.0,7.0,3.0,1323.1345700005477,1.0,1.0,phase_3,,,,,696.0,6.0,464.0,116.0,696.0,348.0,232.0,580.0,yellow,cross
0.0,6.0,1.0,1.0,7.0,2.0,926.8156210000598,1.0,1.0,phase_3,,,,,519.0,3.0,173.0,519.0,346.0,692.0,1038.0,865.0,blue,hexagon
0.0,8.0,4.0,1.0,7.0,5.0,886.9119609998961,1.0,1.0,phase_3,,,,,464.0,4.0,696.0,348.0,580.0,116.0,464.0,232.0,gray,square
0.0,2.0,1.0,0.0,7.0,2.0,855.3262799996446,1.0,1.0,phase_3,,,,,616.0,4.0,924.0,616.0,154.0,770.0,308.0,462.0,magenta,diamond
0.0,3.0,2.0,0.0,7.0,6.0,1675.1361030001135,1.0,1.0,phase_3,,,,,696.0,6.0,348.0,580.0,232.0,464.0,116.0,696.0,white,flipped triangle
0.0,5.0,0.5,1.0,7.0,3.0,988.1423119995816,1.0,1.0,phase_3,,,,,924.0,6.0,770.0,462.0,924.0,616.0,308.0,154.0,cyan,triangle
0.0,7.0,2.0,1.0,7.0,4.0,1190.0078629996642,2.0,1.0,phase_3,,,,,540.0,4.0,810.0,135.0,405.0,540.0,270.0,675.0,green,circle
0.0,3.0,2.0,0.0,7.0,1.0,1240.5154620000758,2.0,1.0,phase_3,,,,,405.0,3.0,405.0,135.0,675.0,270.0,540.0,810.0,white,flipped triangle
0.0,2.0,1.0,0.0,7.0,3.0,832.373075999385,2.0,1.0,phase_3,,,,,346.0,2.0,865.0,519.0,346.0,692.0,1038.0,173.0,magenta,diamond
0.0,6.0,1.0,1.0,7.0,6.0,970.7486750003228,2.0,1.0,phase_3,,,,,675.0,5.0,810.0,135.0,270.0,540.0,405.0,675.0,blue,hexagon
0.0,8.0,4.0,1.0,7.0,4.0,842.7465329996267,2.0,1.0,phase_3,,,,,768.0,4.0,1152.0,384.0,960.0,768.0,576.0,192.0,gray,square
0.0,1.0,0.5,0.0,7.0,2.0,571.6522700004134,2.0,1.0,phase_3,,,,,692.0,4.0,519.0,692.0,346.0,865.0,173.0,1038.0,yellow,cross
0.0,1.0,0.5,0.0,7.0,6.0,813.2649919998585,2.0,1.0,phase_3,,,,,770.0,5.0,308.0,616.0,462.0,154.0,924.0,770.0,yellow,cross
0.0,2.0,1.0,0.0,7.0,2.0,446.5001730004587,2.0,1.0,phase_3,,,,,696.0,6.0,232.0,696.0,464.0,348.0,116.0,580.0,magenta,diamond
0.0,3.0,2.0,0.0,7.0,4.0,568.8265709995903,2.0,1.0,phase_3,,,,,462.0,3.0,924.0,770.0,308.0,462.0,616.0,154.0,white,flipped triangle
0.0,2.0,1.0,0.0,7.0,5.0,601.7121809991295,2.0,1.0,phase_3,,,,,580.0,5.0,116.0,232.0,696.0,464.0,580.0,348.0,magenta,diamond
0.0,7.0,2.0,1.0,7.0,4.0,610.7854749998296,2.0,1.0,phase_3,,,,,616.0,4.0,462.0,924.0,770.0,616.0,308.0,154.0,green,circle
0.0,3.0,2.0,0.0,7.0,1.0,613.3851919994413,2.0,1.0,phase_3,,,,,1152.0,6.0,1152.0,192.0,576.0,960.0,768.0,384.0,white,flipped triangle
0.0,2.0,1.0,0.0,7.0,5.0,557.6072560006651,2.0,1.0,phase_3,,,,,576.0,3.0,384.0,1152.0,960.0,768.0,576.0,192.0,magenta,diamond
0.0,1.0,0.5,0.0,7.0,3.0,367.2408259999429,2.0,1.0,phase_3,,,,,116.0,1.0,348.0,464.0,116.0,232.0,580.0,696.0,yellow,cross
0.0,3.0,2.0,0.0,7.0,6.0,607.1302430000287,2.0,1.0,phase_3,,,,,116.0,1.0,580.0,232.0,464.0,696.0,348.0,116.0,white,flipped triangle
0.0,7.0,2.0,1.0,7.0,2.0,755.4422249995696,2.0,1.0,phase_3,,,,,924.0,6.0,154.0,924.0,616.0,308.0,462.0,770.0,green,circle
0.0,1.0,0.5,0.0,7.0,4.0,1058.1726030004577,2.0,1.0,phase_3,,,,,1038.0,6.0,173.0,692.0,865.0,1038.0,346.0,519.0,yellow,cross
0.0,7.0,2.0,1.0,7.0,5.0,779.3403549994764,2.0,1.0,phase_3,,,,,346.0,2.0,1038.0,519.0,692.0,173.0,346.0,865.0,green,circle
0.0,5.0,0.5,1.0,7.0,2.0,636.4354769993952,2.0,1.0,phase_3,,,,,308.0,2.0,462.0,308.0,770.0,616.0,154.0,924.0,cyan,triangle
0.0,5.0,0.5,1.0,7.0,4.0,837.8420039998673,2.0,1.0,phase_3,,,,,768.0,4.0,576.0,1152.0,192.0,768.0,384.0,960.0,cyan,triangle
0.0,3.0,2.0,0.0,7.0,6.0,657.3755629997322,3.0,1.0,phase_3,,,,,154.0,1.0,770.0,308.0,924.0,616.0,462.0,154.0,white,flipped triangle
0.0,3.0,2.0,0.0,7.0,5.0,498.3032190002632,3.0,1.0,phase_3,,,,,519.0,3.0,865.0,173.0,692.0,346.0,519.0,1038.0,white,flipped triangle
0.0,1.0,0.5,0.0,7.0,4.0,515.0946240000849,3.0,1.0,phase_3,,,,,384.0,2.0,576.0,960.0,1152.0,384.0,192.0,768.0,yellow,cross
0.0,8.0,4.0,1.0,7.0,3.0,284.3172029997731,3.0,1.0,phase_3,,,,,135.0,1.0,810.0,540.0,135.0,675.0,270.0,405.0,gray,square
0.0,7.0,2.0,1.0,7.0,2.0,237.7817830001731,3.0,1.0,phase_3,,,,,580.0,5.0,696.0,580.0,464.0,232.0,116.0,348.0,green,circle
0.0,4.0,4.0,0.0,7.0,1.0,444.4681450004282,3.0,1.0,phase_3,,,,,384.0,2.0,384.0,960.0,1152.0,192.0,576.0,768.0,orange,I
0.0,1.0,0.5,0.0,7.0,2.0,406.0214540004381,3.0,1.0,phase_3,,,,,770.0,5.0,616.0,770.0,462.0,308.0,924.0,154.0,yellow,cross
0.0,4.0,4.0,0.0,7.0,3.0,329.349319999892,3.0,1.0,phase_3,,,,,232.0,2.0,348.0,464.0,232.0,580.0,696.0,116.0,orange,I
0.0,4.0,4.0,0.0,7.0,4.0,416.7451530001926,3.0,1.0,phase_3,,,,,405.0,3.0,810.0,135.0,270.0,405.0,540.0,675.0,orange,I
0.0,6.0,1.0,1.0,7.0,5.0,410.0200150005548,3.0,1.0,phase_3,,,,,580.0,5.0,232.0,116.0,696.0,464.0,580.0,348.0,blue,hexagon
0.0,6.0,1.0,1.0,7.0,6.0,355.3707040000518,3.0,1.0,phase_3,,,,,692.0,4.0,1038.0,346.0,865.0,519.0,173.0,692.0,blue,hexagon
0.0,2.0,1.0,0.0,7.0,3.0,542.0846020006138,3.0,1.0,phase_3,,,,,770.0,5.0,308.0,462.0,770.0,924.0,616.0,154.0,magenta,diamond
0.0,8.0,4.0,1.0,7.0,4.0,559.9155800000517,3.0,1.0,phase_3,,,,,154.0,1.0,616.0,924.0,462.0,154.0,770.0,308.0,gray,square
0.0,8.0,4.0,1.0,7.0,2.0,391.1377099993842,3.0,1.0,phase_3,,,,,173.0,1.0,865.0,173.0,346.0,1038.0,519.0,692.0,gray,square
0.0,4.0,4.0,0.0,7.0,1.0,291.0083079996184,3.0,1.0,phase_3,,,,,346.0,2.0,346.0,173.0,692.0,1038.0,519.0,865.0,orange,I
0.0,5.0,0.5,1.0,7.0,6.0,242.9071039996415,3.0,1.0,phase_3,,,,,405.0,3.0,810.0,675.0,540.0,270.0,135.0,405.0,cyan,triangle
0.0,2.0,1.0,0.0,7.0,5.0,260.7147299995631,3.0,1.0,phase_3,,,,,192.0,1.0,576.0,384.0,1152.0,768.0,192.0,960.0,magenta,diamond
0.0,1.0,0.5,0.0,7.0,3.0,292.9511100001036,3.0,1.0,phase_3,,,,,675.0,5.0,405.0,810.0,675.0,135.0,540.0,270.0,yellow,cross
0.0,4.0,4.0,0.0,7.0,2.0,446.2650949999442,3.0,1.0,phase_3,,,,,308.0,2.0,770.0,308.0,924.0,462.0,154.0,616.0,orange,I
0.0,6.0,1.0,1.0,7.0,4.0,296.3425569996616,3.0,1.0,phase_3,,,,,696.0,6.0,116.0,348.0,232.0,696.0,464.0,580.0,blue,hexagon
0.0,6.0,1.0,1.0,7.0,6.0,278.3227049994821,4.0,1.0,phase_3,,,,,308.0,2.0,462.0,770.0,616.0,154.0,924.0,308.0,blue,hexagon
0.0,4.0,4.0,0.0,7.0,1.0,89.85742999993809,4.0,1.0,phase_3,,,,,865.0,5.0,865.0,346.0,692.0,173.0,1038.0,519.0,orange,I
0.0,1.0,0.5,0.0,7.0,5.0,169.7582299993882,4.0,1.0,phase_3,,,,,540.0,4.0,405.0,135.0,270.0,810.0,540.0,675.0,yellow,cross
0.0,5.0,0.5,1.0,7.0,2.0,266.3197619995117,4.0,1.0,phase_3,,,,,405.0,3.0,270.0,405.0,810.0,135.0,540.0,675.0,cyan,triangle
0.0,5.0,0.5,1.0,7.0,4.0,563.0301519995555,4.0,1.0,phase_3,,,,,348.0,3.0,232.0,580.0,464.0,348.0,696.0,116.0,cyan,triangle
0.0,6.0,1.0,1.0,7.0,3.0,636.8448309995074,4.0,1.0,phase_3,,,,,768.0,4.0,1152.0,960.0,768.0,384.0,576.0,192.0,blue,hexagon
0.0,8.0,4.0,1.0,7.0,3.0,278.5243340003944,4.0,1.0,phase_3,,,,,576.0,3.0,192.0,768.0,576.0,384.0,1152.0,960.0,gray,square
0.0,6.0,1.0,1.0,7.0,4.0,345.4413990002649,4.0,1.0,phase_3,,,,,154.0,1.0,462.0,770.0,308.0,154.0,616.0,924.0,blue,hexagon
0.0,6.0,1.0,1.0,7.0,2.0,441.8379110002206,4.0,1.0,phase_3,,,,,810.0,6.0,135.0,810.0,270.0,540.0,675.0,405.0,blue,hexagon
0.0,7.0,2.0,1.0,7.0,5.0,275.3464069992333,4.0,1.0,phase_3,,,,,960.0,5.0,576.0,768.0,1152.0,192.0,960.0,384.0,green,circle
0.0,7.0,2.0,1.0,7.0,1.0,483.7003200000254,4.0,1.0,phase_3,,,,,692.0,4.0,692.0,346.0,1038.0,173.0,865.0,519.0,green,circle
0.0,5.0,0.5,1.0,7.0,6.0,411.7675449997477,4.0,1.0,phase_3,,,,,192.0,1.0,768.0,1152.0,960.0,576.0,384.0,192.0,cyan,triangle
0.0,2.0,1.0,0.0,7.0,2.0,447.7611940001225,4.0,1.0,phase_3,,,,,270.0,2.0,135.0,270.0,405.0,810.0,540.0,675.0,magenta,diamond
0.0,7.0,2.0,1.0,7.0,2.0,326.0497329993086,4.0,1.0,phase_3,,,,,405.0,3.0,810.0,405.0,540.0,135.0,270.0,675.0,green,circle
0.0,2.0,1.0,0.0,7.0,5.0,562.5701669996488,4.0,1.0,phase_3,,,,,692.0,4.0,519.0,346.0,173.0,865.0,692.0,1038.0,magenta,diamond
0.0,4.0,4.0,0.0,7.0,2.0,290.4556150006101,4.0,1.0,phase_3,,,,,116.0,1.0,696.0,116.0,348.0,464.0,580.0,232.0,orange,I
0.0,7.0,2.0,1.0,7.0,5.0,252.9185820003476,4.0,1.0,phase_3,,,,,768.0,4.0,1152.0,192.0,576.0,960.0,768.0,384.0,green,circle
0.0,3.0,2.0,0.0,7.0,6.0,260.8321849993444,4.0,1.0,phase_3,,,,,346.0,2.0,173.0,692.0,865.0,519.0,1038.0,346.0,white,flipped triangle
0.0,2.0,1.0,0.0,7.0,4.0,494.9486920004347,4.0,1.0,phase_3,,,,,810.0,6.0,675.0,270.0,405.0,810.0,540.0,135.0,magenta,diamond
0.0,4.0,4.0,0.0,7.0,2.0,270.3529769996748,4.0,1.0,phase_3,,,,,924.0,6.0,616.0,924.0,770.0,308.0,154.0,462.0,orange,I
