raw_reward_magnitude,stim_reward,stepwise_reward_magnitude,paired_with_stopping,stim_location,response,reaction_time,block,num_trial_presentations,which_phase,stop_signal_trial_type,left_SSD,right_SSD,accuracy,chosen_bidding_amount,chosen_bidding_level,possible_bid_1,possible_bid_2,possible_bid_3,possible_bid_4,possible_bid_5,possible_bid_6,color_text,shape_text
319.0,2.0,1.0,0.0,1.0,1.0,533.6948129997836,1.0,1.0,phase_1,,,,,,,,,,,,,magenta,circle
661.0,7.0,2.0,1.0,2.0,2.0,780.2849210002023,1.0,1.0,phase_1,,,,,,,,,,,,,white,hexagon
1320.0,8.0,4.0,1.0,3.0,3.0,486.5163929998743,1.0,1.0,phase_1,,,,,,,,,,,,,orange,diamond
0.0,1.0,0.0,0.0,3.0,3.0,557.4446979999266,1.0,1.0,phase_1,,,,,,,,,,,,,cyan,cross
661.0,3.0,2.0,0.0,1.0,1.0,552.3297969998566,1.0,1.0,phase_1,,,,,,,,,,,,,blue,square
146.0,1.0,0.5,0.0,4.0,4.0,444.4968220000191,1.0,1.0,phase_1,,,,,,,,,,,,,cyan,cross
146.0,1.0,0.5,0.0,4.0,4.0,433.5040099999787,1.0,1.0,phase_1,,,,,,,,,,,,,cyan,cross
1303.0,8.0,4.0,1.0,2.0,2.0,438.4335049999208,1.0,1.0,phase_1,,,,,,,,,,,,,orange,diamond
626.0,3.0,2.0,0.0,4.0,4.0,426.210668999829,1.0,1.0,phase_1,,,,,,,,,,,,,blue,square
1284.0,8.0,4.0,1.0,2.0,2.0,433.0512989999988,1.0,1.0,phase_1,,,,,,,,,,,,,orange,diamond
184.0,1.0,0.5,0.0,2.0,2.0,514.9661690002176,1.0,1.0,phase_1,,,,,,,,,,,,,cyan,cross
650.0,3.0,2.0,0.0,2.0,2.0,560.6612430001405,1.0,1.0,phase_1,,,,,,,,,,,,,blue,square
1317.0,4.0,4.0,0.0,1.0,1.0,532.7667739998105,1.0,1.0,phase_1,,,,,,,,,,,,,gray,triangle
671.0,3.0,2.0,0.0,4.0,4.0,337.61588800007297,1.0,1.0,phase_1,,,,,,,,,,,,,blue,square
143.0,1.0,0.5,0.0,4.0,4.0,408.5273640002924,1.0,1.0,phase_1,,,,,,,,,,,,,cyan,cross
1285.0,8.0,4.0,1.0,3.0,3.0,466.0266139999294,1.0,2.0,phase_1,,,,,,,,,,,,,orange,diamond
347.0,6.0,1.0,1.0,3.0,3.0,302.4332310001227,1.0,1.0,phase_1,,,,,,,,,,,,,green,I
0.0,8.0,0.0,1.0,4.0,4.0,371.7477280001731,1.0,1.0,phase_1,,,,,,,,,,,,,orange,diamond
319.0,6.0,1.0,1.0,2.0,2.0,621.2626309998086,1.0,1.0,phase_1,,,,,,,,,,,,,green,I
633.0,3.0,2.0,0.0,4.0,4.0,394.0703230000508,1.0,1.0,phase_1,,,,,,,,,,,,,blue,square
337.0,6.0,1.0,1.0,2.0,2.0,528.3739730002708,1.0,1.0,phase_1,,,,,,,,,,,,,green,I
0.0,8.0,0.0,1.0,1.0,1.0,547.8311950000716,1.0,1.0,phase_1,,,,,,,,,,,,,orange,diamond
168.0,5.0,0.5,1.0,4.0,4.0,423.8526809999712,1.0,1.0,phase_1,,,,,,,,,,,,,yellow,flipped triangle
146.0,5.0,0.5,1.0,3.0,3.0,444.4636509997508,1.0,1.0,phase_1,,,,,,,,,,,,,yellow,flipped triangle
626.0,7.0,2.0,1.0,1.0,1.0,451.043373000175,1.0,1.0,phase_1,,,,,,,,,,,,,white,hexagon
0.0,4.0,0.0,0.0,4.0,4.0,350.1968139999007,1.0,1.0,phase_1,,,,,,,,,,,,,gray,triangle
311.0,2.0,1.0,0.0,3.0,3.0,365.5160240000441,1.0,1.0,phase_1,,,,,,,,,,,,,magenta,circle
1286.0,4.0,4.0,0.0,2.0,2.0,334.7966689998429,1.0,1.0,phase_1,,,,,,,,,,,,,gray,triangle
301.0,6.0,1.0,1.0,3.0,3.0,317.5376099998175,1.0,1.0,phase_1,,,,,,,,,,,,,green,I
1279.0,8.0,4.0,1.0,4.0,4.0,320.209524999882,1.0,1.0,phase_1,,,,,,,,,,,,,orange,diamond
323.0,6.0,1.0,1.0,1.0,1.0,423.5393839999233,1.0,1.0,phase_1,,,,,,,,,,,,,green,I
324.0,2.0,1.0,0.0,2.0,2.0,385.229105000235,1.0,1.0,phase_1,,,,,,,,,,,,,magenta,circle
669.0,7.0,2.0,1.0,4.0,4.0,390.5554629996004,1.0,1.0,phase_1,,,,,,,,,,,,,white,hexagon
1279.0,4.0,4.0,0.0,4.0,4.0,445.2873539999018,1.0,1.0,phase_1,,,,,,,,,,,,,gray,triangle
148.0,5.0,0.5,1.0,3.0,3.0,407.1550599996953,1.0,1.0,phase_1,,,,,,,,,,,,,yellow,flipped triangle
347.0,6.0,1.0,1.0,3.0,3.0,427.6548819998425,1.0,1.0,phase_1,,,,,,,,,,,,,green,I
1275.0,8.0,4.0,1.0,1.0,1.0,537.1318990000873,1.0,1.0,phase_1,,,,,,,,,,,,,orange,diamond
1300.0,4.0,4.0,0.0,2.0,2.0,470.6143630000952,1.0,1.0,phase_1,,,,,,,,,,,,,gray,triangle
347.0,2.0,1.0,0.0,4.0,4.0,444.9347529998704,1.0,1.0,phase_1,,,,,,,,,,,,,magenta,circle
323.0,2.0,1.0,0.0,2.0,2.0,510.67186599993875,1.0,1.0,phase_1,,,,,,,,,,,,,magenta,circle
304.0,6.0,1.0,1.0,1.0,1.0,485.7831940003052,1.0,1.0,phase_1,,,,,,,,,,,,,green,I
167.0,1.0,0.5,0.0,1.0,1.0,370.5624839999473,1.0,1.0,phase_1,,,,,,,,,,,,,cyan,cross
181.0,5.0,0.5,1.0,2.0,2.0,430.5294819996561,1.0,1.0,phase_1,,,,,,,,,,,,,yellow,flipped triangle
328.0,2.0,1.0,0.0,3.0,3.0,328.9385470002344,1.0,1.0,phase_1,,,,,,,,,,,,,magenta,circle
1310.0,8.0,4.0,1.0,3.0,3.0,397.4047249998875,1.0,1.0,phase_1,,,,,,,,,,,,,orange,diamond
0.0,4.0,0.0,0.0,4.0,4.0,420.9867340000528,1.0,1.0,phase_1,,,,,,,,,,,,,gray,triangle
657.0,3.0,2.0,0.0,3.0,3.0,400.6136080001852,1.0,1.0,phase_1,,,,,,,,,,,,,blue,square
650.0,7.0,2.0,1.0,4.0,4.0,366.6593850002755,1.0,1.0,phase_1,,,,,,,,,,,,,white,hexagon
1318.0,4.0,4.0,0.0,1.0,1.0,531.1334089997217,1.0,1.0,phase_1,,,,,,,,,,,,,gray,triangle
319.0,6.0,1.0,1.0,2.0,2.0,454.3952340000032,1.0,1.0,phase_1,,,,,,,,,,,,,green,I
627.0,7.0,2.0,1.0,1.0,1.0,426.0200789999544,1.0,1.0,phase_1,,,,,,,,,,,,,white,hexagon
1283.0,8.0,4.0,1.0,2.0,2.0,405.8386880001308,1.0,1.0,phase_1,,,,,,,,,,,,,orange,diamond
0.0,1.0,0.0,0.0,2.0,2.0,738.9023549999365,1.0,1.0,phase_1,,,,,,,,,,,,,cyan,cross
647.0,3.0,2.0,0.0,3.0,3.0,407.4385740000252,1.0,1.0,phase_1,,,,,,,,,,,,,blue,square
642.0,7.0,2.0,1.0,1.0,1.0,398.8301190001948,1.0,1.0,phase_1,,,,,,,,,,,,,white,hexagon
166.0,5.0,0.5,1.0,2.0,2.0,393.4436189997541,1.0,1.0,phase_1,,,,,,,,,,,,,yellow,flipped triangle
1309.0,8.0,4.0,1.0,2.0,2.0,335.1805389997935,1.0,1.0,phase_1,,,,,,,,,,,,,orange,diamond
321.0,2.0,1.0,0.0,3.0,3.0,332.2209160000966,1.0,1.0,phase_1,,,,,,,,,,,,,magenta,circle
0.0,3.0,0.0,0.0,4.0,4.0,366.6015990002051,1.0,1.0,phase_1,,,,,,,,,,,,,blue,square
641.0,7.0,2.0,1.0,2.0,2.0,420.8000270000411,1.0,1.0,phase_1,,,,,,,,,,,,,white,hexagon
1279.0,8.0,4.0,1.0,2.0,2.0,408.1717910003135,1.0,1.0,phase_1,,,,,,,,,,,,,orange,diamond
1300.0,4.0,4.0,0.0,1.0,1.0,407.0639530000335,1.0,1.0,phase_1,,,,,,,,,,,,,gray,triangle
336.0,6.0,1.0,1.0,1.0,1.0,355.5634240001382,1.0,1.0,phase_1,,,,,,,,,,,,,green,I
0.0,7.0,0.0,1.0,4.0,4.0,429.7987920003834,1.0,1.0,phase_1,,,,,,,,,,,,,white,hexagon
172.0,1.0,0.5,0.0,3.0,3.0,446.6055210000377,1.0,2.0,phase_1,,,,,,,,,,,,,cyan,cross
1309.0,8.0,4.0,1.0,4.0,4.0,428.2833649999702,1.0,1.0,phase_1,,,,,,,,,,,,,orange,diamond
1283.0,4.0,4.0,0.0,1.0,1.0,498.1772999999521,1.0,1.0,phase_1,,,,,,,,,,,,,gray,triangle
337.0,2.0,1.0,0.0,2.0,2.0,494.5363669999096,1.0,1.0,phase_1,,,,,,,,,,,,,magenta,circle
1281.0,4.0,4.0,0.0,1.0,1.0,508.10833200011984,1.0,1.0,phase_1,,,,,,,,,,,,,gray,triangle
0.0,2.0,0.0,0.0,2.0,2.0,470.8274090003215,1.0,1.0,phase_1,,,,,,,,,,,,,magenta,circle
0.0,8.0,0.0,1.0,2.0,2.0,540.8783880002375,1.0,1.0,phase_1,,,,,,,,,,,,,orange,diamond
0.0,4.0,0.0,0.0,3.0,3.0,481.0253569999076,1.0,1.0,phase_1,,,,,,,,,,,,,gray,triangle
149.0,1.0,0.5,0.0,4.0,4.0,470.3313700001672,1.0,1.0,phase_1,,,,,,,,,,,,,cyan,cross
629.0,3.0,2.0,0.0,1.0,1.0,449.0067329998055,1.0,1.0,phase_1,,,,,,,,,,,,,blue,square
0.0,2.0,0.0,0.0,4.0,4.0,376.3632740001412,1.0,1.0,phase_1,,,,,,,,,,,,,magenta,circle
324.0,6.0,1.0,1.0,4.0,4.0,420.8445360000041,1.0,1.0,phase_1,,,,,,,,,,,,,green,I
167.0,5.0,0.5,1.0,4.0,4.0,305.665007999778,1.0,1.0,phase_1,,,,,,,,,,,,,yellow,flipped triangle
182.0,1.0,0.5,0.0,1.0,1.0,413.7670860000071,1.0,1.0,phase_1,,,,,,,,,,,,,cyan,cross
1314.0,8.0,4.0,1.0,2.0,2.0,450.5913860002692,1.0,1.0,phase_1,,,,,,,,,,,,,orange,diamond
182.0,5.0,0.5,1.0,1.0,1.0,420.3339559999222,1.0,1.0,phase_1,,,,,,,,,,,,,yellow,flipped triangle
663.0,7.0,2.0,1.0,3.0,3.0,367.1037900003284,1.0,2.0,phase_1,,,,,,,,,,,,,white,hexagon
0.0,3.0,0.0,0.0,1.0,1.0,604.104100999848,1.0,1.0,phase_1,,,,,,,,,,,,,blue,square
0.0,6.0,0.0,1.0,3.0,3.0,431.7409020000013,1.0,1.0,phase_1,,,,,,,,,,,,,green,I
174.0,5.0,0.5,1.0,4.0,4.0,411.5654790002736,1.0,1.0,phase_1,,,,,,,,,,,,,yellow,flipped triangle
167.0,5.0,0.5,1.0,3.0,3.0,571.2494730000799,1.0,1.0,phase_1,,,,,,,,,,,,,yellow,flipped triangle
340.0,2.0,1.0,0.0,2.0,2.0,551.1127110003144,1.0,1.0,phase_1,,,,,,,,,,,,,magenta,circle
326.0,6.0,1.0,1.0,2.0,2.0,562.1780689998559,1.0,1.0,phase_1,,,,,,,,,,,,,green,I
1309.0,8.0,4.0,1.0,4.0,4.0,489.0807480001058,1.0,1.0,phase_1,,,,,,,,,,,,,orange,diamond
1293.0,8.0,4.0,1.0,2.0,2.0,458.6204010001893,1.0,1.0,phase_1,,,,,,,,,,,,,orange,diamond
162.0,5.0,0.5,1.0,1.0,1.0,447.3645289999695,1.0,1.0,phase_1,,,,,,,,,,,,,yellow,flipped triangle
665.0,3.0,2.0,0.0,1.0,1.0,451.9543930000509,1.0,1.0,phase_1,,,,,,,,,,,,,blue,square
174.0,1.0,0.5,0.0,2.0,2.0,473.3583269999144,1.0,1.0,phase_1,,,,,,,,,,,,,cyan,cross
1288.0,4.0,4.0,0.0,4.0,4.0,358.4132709997902,1.0,1.0,phase_1,,,,,,,,,,,,,gray,triangle
646.0,7.0,2.0,1.0,3.0,3.0,458.6568429999715,1.0,1.0,phase_1,,,,,,,,,,,,,white,hexagon
0.0,2.0,0.0,0.0,4.0,4.0,446.319399999993,1.0,1.0,phase_1,,,,,,,,,,,,,magenta,circle
1313.0,8.0,4.0,1.0,4.0,4.0,379.2319529998167,1.0,1.0,phase_1,,,,,,,,,,,,,orange,diamond
653.0,3.0,2.0,0.0,1.0,1.0,535.7997999999498,1.0,1.0,phase_1,,,,,,,,,,,,,blue,square
629.0,7.0,2.0,1.0,4.0,4.0,406.4921770000183,1.0,1.0,phase_1,,,,,,,,,,,,,white,hexagon
143.0,1.0,0.5,0.0,3.0,3.0,436.1220000000685,1.0,1.0,phase_1,,,,,,,,,,,,,cyan,cross
0.0,5.0,0.0,1.0,2.0,2.0,589.689824999823,1.0,1.0,phase_1,,,,,,,,,,,,,yellow,flipped triangle
344.0,2.0,1.0,0.0,2.0,2.0,498.6993309998979,2.0,1.0,phase_1,,,,,,,,,,,,,magenta,circle
0.0,7.0,0.0,1.0,2.0,2.0,503.50784800002657,2.0,1.0,phase_1,,,,,,,,,,,,,white,hexagon
627.0,3.0,2.0,0.0,3.0,3.0,420.4346729998178,2.0,1.0,phase_1,,,,,,,,,,,,,blue,square
1305.0,8.0,4.0,1.0,3.0,3.0,393.6302770002839,2.0,1.0,phase_1,,,,,,,,,,,,,orange,diamond
0.0,8.0,0.0,1.0,2.0,2.0,479.2616639997504,2.0,1.0,phase_1,,,,,,,,,,,,,orange,diamond
645.0,7.0,2.0,1.0,3.0,3.0,338.1248349996895,2.0,1.0,phase_1,,,,,,,,,,,,,white,hexagon
141.0,1.0,0.5,0.0,2.0,2.0,358.4510710002178,2.0,1.0,phase_1,,,,,,,,,,,,,cyan,cross
658.0,7.0,2.0,1.0,3.0,3.0,387.7094999998007,2.0,1.0,phase_1,,,,,,,,,,,,,white,hexagon
141.0,5.0,0.5,1.0,4.0,4.0,418.1337780000831,2.0,1.0,phase_1,,,,,,,,,,,,,yellow,flipped triangle
308.0,2.0,1.0,0.0,4.0,4.0,439.6130179998181,2.0,1.0,phase_1,,,,,,,,,,,,,magenta,circle
1317.0,8.0,4.0,1.0,1.0,1.0,450.5363289999877,2.0,1.0,phase_1,,,,,,,,,,,,,orange,diamond
160.0,5.0,0.5,1.0,3.0,3.0,470.0645860002623,2.0,1.0,phase_1,,,,,,,,,,,,,yellow,flipped triangle
655.0,7.0,2.0,1.0,3.0,3.0,365.5424290000155,2.0,1.0,phase_1,,,,,,,,,,,,,white,hexagon
1291.0,4.0,4.0,0.0,1.0,1.0,407.8206449999015,2.0,1.0,phase_1,,,,,,,,,,,,,gray,triangle
0.0,7.0,0.0,1.0,1.0,1.0,390.403077999963,2.0,1.0,phase_1,,,,,,,,,,,,,white,hexagon
0.0,6.0,0.0,1.0,1.0,1.0,408.9470100002472,2.0,1.0,phase_1,,,,,,,,,,,,,green,I
657.0,3.0,2.0,0.0,3.0,3.0,341.0585090000495,2.0,1.0,phase_1,,,,,,,,,,,,,blue,square
326.0,2.0,1.0,0.0,3.0,3.0,420.6641629998557,2.0,1.0,phase_1,,,,,,,,,,,,,magenta,circle
669.0,7.0,2.0,1.0,1.0,1.0,473.3758359998319,2.0,1.0,phase_1,,,,,,,,,,,,,white,hexagon
153.0,1.0,0.5,0.0,4.0,4.0,451.9066640000346,2.0,1.0,phase_1,,,,,,,,,,,,,cyan,cross
173.0,5.0,0.5,1.0,4.0,4.0,456.2494840001818,2.0,1.0,phase_1,,,,,,,,,,,,,yellow,flipped triangle
166.0,1.0,0.5,0.0,2.0,2.0,558.833637999669,2.0,1.0,phase_1,,,,,,,,,,,,,cyan,cross
307.0,6.0,1.0,1.0,4.0,4.0,489.2310320001343,2.0,1.0,phase_1,,,,,,,,,,,,,green,I
647.0,7.0,2.0,1.0,2.0,2.0,358.0440939999789,2.0,1.0,phase_1,,,,,,,,,,,,,white,hexagon
673.0,3.0,2.0,0.0,2.0,2.0,452.1642900003826,2.0,1.0,phase_1,,,,,,,,,,,,,blue,square
1305.0,4.0,4.0,0.0,3.0,3.0,431.5082480002274,2.0,1.0,phase_1,,,,,,,,,,,,,gray,triangle
646.0,3.0,2.0,0.0,1.0,1.0,523.5712910002803,2.0,1.0,phase_1,,,,,,,,,,,,,blue,square
334.0,6.0,1.0,1.0,2.0,2.0,352.1756059999461,2.0,1.0,phase_1,,,,,,,,,,,,,green,I
311.0,6.0,1.0,1.0,2.0,2.0,476.5844539997488,2.0,1.0,phase_1,,,,,,,,,,,,,green,I
641.0,3.0,2.0,0.0,2.0,2.0,458.8150929998846,2.0,1.0,phase_1,,,,,,,,,,,,,blue,square
631.0,3.0,2.0,0.0,4.0,4.0,414.9966830000267,2.0,1.0,phase_1,,,,,,,,,,,,,blue,square
161.0,5.0,0.5,1.0,2.0,2.0,313.373101000252,2.0,1.0,phase_1,,,,,,,,,,,,,yellow,flipped triangle
654.0,3.0,2.0,0.0,2.0,2.0,447.4088339998161,2.0,1.0,phase_1,,,,,,,,,,,,,blue,square
349.0,6.0,1.0,1.0,4.0,4.0,411.0916059998999,2.0,1.0,phase_1,,,,,,,,,,,,,green,I
638.0,7.0,2.0,1.0,1.0,1.0,511.04622700040636,2.0,1.0,phase_1,,,,,,,,,,,,,white,hexagon
633.0,3.0,2.0,0.0,2.0,2.0,348.6637269998027,2.0,1.0,phase_1,,,,,,,,,,,,,blue,square
0.0,7.0,0.0,1.0,3.0,3.0,440.69189199990427,2.0,1.0,phase_1,,,,,,,,,,,,,white,hexagon
1291.0,8.0,4.0,1.0,4.0,4.0,396.8604320002669,2.0,1.0,phase_1,,,,,,,,,,,,,orange,diamond
166.0,1.0,0.5,0.0,2.0,2.0,370.3174669999498,2.0,1.0,phase_1,,,,,,,,,,,,,cyan,cross
309.0,2.0,1.0,0.0,1.0,1.0,390.1306369998565,2.0,1.0,phase_1,,,,,,,,,,,,,magenta,circle
301.0,2.0,1.0,0.0,2.0,2.0,458.9823880000949,2.0,1.0,phase_1,,,,,,,,,,,,,magenta,circle
0.0,5.0,0.0,1.0,3.0,3.0,375.8063469999797,2.0,1.0,phase_1,,,,,,,,,,,,,yellow,flipped triangle
309.0,6.0,1.0,1.0,1.0,1.0,372.7672899999561,2.0,1.0,phase_1,,,,,,,,,,,,,green,I
661.0,3.0,2.0,0.0,3.0,3.0,561.3552580002761,2.0,1.0,phase_1,,,,,,,,,,,,,blue,square
334.0,2.0,1.0,0.0,4.0,4.0,438.5498169999664,2.0,1.0,phase_1,,,,,,,,,,,,,magenta,circle
146.0,1.0,0.5,0.0,3.0,3.0,373.3700390002923,2.0,1.0,phase_1,,,,,,,,,,,,,cyan,cross
638.0,3.0,2.0,0.0,1.0,1.0,335.1597400001083,2.0,1.0,phase_1,,,,,,,,,,,,,blue,square
642.0,3.0,2.0,0.0,1.0,1.0,355.4137299997819,2.0,1.0,phase_1,,,,,,,,,,,,,blue,square
184.0,5.0,0.5,1.0,4.0,4.0,394.2094409999299,2.0,1.0,phase_1,,,,,,,,,,,,,yellow,flipped triangle
645.0,3.0,2.0,0.0,2.0,2.0,357.7785560000848,2.0,1.0,phase_1,,,,,,,,,,,,,blue,square
0.0,5.0,0.0,1.0,2.0,2.0,385.0877869999749,2.0,1.0,phase_1,,,,,,,,,,,,,yellow,flipped triangle
0.0,2.0,0.0,0.0,2.0,2.0,437.896253999952,2.0,1.0,phase_1,,,,,,,,,,,,,magenta,circle
157.0,1.0,0.5,0.0,1.0,1.0,490.7442690000607,2.0,1.0,phase_1,,,,,,,,,,,,,cyan,cross
1309.0,4.0,4.0,0.0,4.0,4.0,431.3869669999803,2.0,1.0,phase_1,,,,,,,,,,,,,gray,triangle
0.0,6.0,0.0,1.0,1.0,1.0,476.3406279998889,2.0,1.0,phase_1,,,,,,,,,,,,,green,I
307.0,2.0,1.0,0.0,1.0,1.0,403.3311590001176,2.0,1.0,phase_1,,,,,,,,,,,,,magenta,circle
1299.0,8.0,4.0,1.0,1.0,1.0,381.2317910001184,2.0,1.0,phase_1,,,,,,,,,,,,,orange,diamond
666.0,7.0,2.0,1.0,1.0,1.0,387.5926780001464,2.0,1.0,phase_1,,,,,,,,,,,,,white,hexagon
0.0,4.0,0.0,0.0,2.0,2.0,423.8545670000349,2.0,1.0,phase_1,,,,,,,,,,,,,gray,triangle
0.0,7.0,0.0,1.0,4.0,4.0,554.1453230002844,2.0,1.0,phase_1,,,,,,,,,,,,,white,hexagon
0.0,2.0,0.0,0.0,2.0,2.0,366.5320840000277,2.0,1.0,phase_1,,,,,,,,,,,,,magenta,circle
626.0,7.0,2.0,1.0,3.0,3.0,461.7045740001231,2.0,1.0,phase_1,,,,,,,,,,,,,white,hexagon
0.0,4.0,0.0,0.0,2.0,2.0,496.6721519999737,2.0,1.0,phase_1,,,,,,,,,,,,,gray,triangle
180.0,1.0,0.5,0.0,3.0,3.0,399.7933740001826,2.0,1.0,phase_1,,,,,,,,,,,,,cyan,cross
0.0,7.0,0.0,1.0,3.0,3.0,402.0415910003976,2.0,1.0,phase_1,,,,,,,,,,,,,white,hexagon
654.0,7.0,2.0,1.0,1.0,1.0,392.413287999716,2.0,1.0,phase_1,,,,,,,,,,,,,white,hexagon
1281.0,4.0,4.0,0.0,4.0,4.0,453.7253660000715,2.0,1.0,phase_1,,,,,,,,,,,,,gray,triangle
161.0,1.0,0.5,0.0,2.0,2.0,479.9635459999081,2.0,1.0,phase_1,,,,,,,,,,,,,cyan,cross
0.0,6.0,0.0,1.0,3.0,3.0,350.6514190003145,2.0,1.0,phase_1,,,,,,,,,,,,,green,I
0.0,5.0,0.0,1.0,3.0,3.0,369.7968410001522,2.0,1.0,phase_1,,,,,,,,,,,,,yellow,flipped triangle
162.0,1.0,0.5,0.0,3.0,3.0,342.9380320003474,2.0,1.0,phase_1,,,,,,,,,,,,,cyan,cross
0.0,2.0,0.0,0.0,3.0,3.0,316.6362590000062,2.0,1.0,phase_1,,,,,,,,,,,,,magenta,circle
343.0,2.0,1.0,0.0,4.0,4.0,415.2607639998678,2.0,1.0,phase_1,,,,,,,,,,,,,magenta,circle
301.0,6.0,1.0,1.0,3.0,3.0,325.7948710001983,2.0,1.0,phase_1,,,,,,,,,,,,,green,I
0.0,5.0,0.0,1.0,1.0,1.0,337.2522539998499,2.0,1.0,phase_1,,,,,,,,,,,,,yellow,flipped triangle
158.0,5.0,0.5,1.0,1.0,1.0,404.9016220001249,2.0,1.0,phase_1,,,,,,,,,,,,,yellow,flipped triangle
633.0,7.0,2.0,1.0,3.0,3.0,281.0905179999281,2.0,1.0,phase_1,,,,,,,,,,,,,white,hexagon
650.0,7.0,2.0,1.0,2.0,2.0,514.2448340002375,2.0,2.0,phase_1,,,,,,,,,,,,,white,hexagon
146.0,5.0,0.5,1.0,3.0,3.0,455.3966800003763,2.0,1.0,phase_1,,,,,,,,,,,,,yellow,flipped triangle
305.0,6.0,1.0,1.0,4.0,4.0,435.3613930002211,2.0,1.0,phase_1,,,,,,,,,,,,,green,I
339.0,2.0,1.0,0.0,1.0,1.0,482.3900850001337,2.0,1.0,phase_1,,,,,,,,,,,,,magenta,circle
657.0,7.0,2.0,1.0,1.0,1.0,446.5048960000786,2.0,1.0,phase_1,,,,,,,,,,,,,white,hexagon
305.0,2.0,1.0,0.0,4.0,4.0,388.7210120001327,2.0,1.0,phase_1,,,,,,,,,,,,,magenta,circle
654.0,7.0,2.0,1.0,2.0,2.0,502.9242199998407,2.0,1.0,phase_1,,,,,,,,,,,,,white,hexagon
1281.0,8.0,4.0,1.0,3.0,3.0,363.7018730000818,2.0,1.0,phase_1,,,,,,,,,,,,,orange,diamond
315.0,6.0,1.0,1.0,3.0,3.0,361.3285900000846,2.0,1.0,phase_1,,,,,,,,,,,,,green,I
319.0,2.0,1.0,0.0,1.0,1.0,382.8789270000925,2.0,1.0,phase_1,,,,,,,,,,,,,magenta,circle
153.0,5.0,0.5,1.0,2.0,2.0,545.1839769998514,2.0,1.0,phase_1,,,,,,,,,,,,,yellow,flipped triangle
0.0,1.0,0.0,0.0,4.0,4.0,447.6226570000108,2.0,1.0,phase_1,,,,,,,,,,,,,cyan,cross
301.0,2.0,1.0,0.0,3.0,3.0,396.7280229999232,2.0,1.0,phase_1,,,,,,,,,,,,,magenta,circle
328.0,2.0,1.0,0.0,4.0,4.0,374.4482970000717,2.0,1.0,phase_1,,,,,,,,,,,,,magenta,circle
149.0,5.0,0.5,1.0,3.0,3.0,499.8606819999622,2.0,1.0,phase_1,,,,,,,,,,,,,yellow,flipped triangle
341.0,2.0,1.0,0.0,2.0,2.0,560.3132389996972,2.0,1.0,phase_1,,,,,,,,,,,,,magenta,circle
626.0,3.0,2.0,0.0,3.0,3.0,364.6808639996379,2.0,1.0,phase_1,,,,,,,,,,,,,blue,square
1316.0,4.0,4.0,0.0,3.0,3.0,459.0668020000521,2.0,1.0,phase_1,,,,,,,,,,,,,gray,triangle
0.0,2.0,0.0,0.0,2.0,2.0,472.0400979999795,2.0,1.0,phase_1,,,,,,,,,,,,,magenta,circle
183.0,5.0,0.5,1.0,1.0,1.0,516.2723869998445,2.0,1.0,phase_1,,,,,,,,,,,,,yellow,flipped triangle
181.0,1.0,0.5,0.0,3.0,3.0,295.0379720000455,2.0,1.0,phase_1,,,,,,,,,,,,,cyan,cross
661.0,7.0,2.0,1.0,3.0,3.0,501.0641499998201,2.0,1.0,phase_1,,,,,,,,,,,,,white,hexagon
640.0,3.0,2.0,0.0,4.0,4.0,408.3814770001481,2.0,1.0,phase_1,,,,,,,,,,,,,blue,square
0.0,7.0,0.0,1.0,4.0,4.0,471.7344570003661,3.0,1.0,phase_1,,,,,,,,,,,,,white,hexagon
0.0,8.0,0.0,1.0,3.0,3.0,379.8012059996836,3.0,1.0,phase_1,,,,,,,,,,,,,orange,diamond
1300.0,8.0,4.0,1.0,4.0,4.0,399.3244169996615,3.0,1.0,phase_1,,,,,,,,,,,,,orange,diamond
642.0,3.0,2.0,0.0,3.0,3.0,322.8491730001224,3.0,1.0,phase_1,,,,,,,,,,,,,blue,square
1312.0,4.0,4.0,0.0,2.0,2.0,544.4336090004072,3.0,1.0,phase_1,,,,,,,,,,,,,gray,triangle
339.0,6.0,1.0,1.0,1.0,1.0,364.0366849999736,3.0,1.0,phase_1,,,,,,,,,,,,,green,I
324.0,2.0,1.0,0.0,3.0,3.0,323.6084689997369,3.0,1.0,phase_1,,,,,,,,,,,,,magenta,circle
148.0,1.0,0.5,0.0,3.0,3.0,293.9377259999673,3.0,1.0,phase_1,,,,,,,,,,,,,cyan,cross
157.0,5.0,0.5,1.0,4.0,4.0,354.5305580000786,3.0,1.0,phase_1,,,,,,,,,,,,,yellow,flipped triangle
633.0,7.0,2.0,1.0,2.0,2.0,414.5464240000365,3.0,1.0,phase_1,,,,,,,,,,,,,white,hexagon
0.0,4.0,0.0,0.0,4.0,4.0,355.2932640000108,3.0,1.0,phase_1,,,,,,,,,,,,,gray,triangle
0.0,3.0,0.0,0.0,4.0,4.0,506.84480800009624,3.0,1.0,phase_1,,,,,,,,,,,,,blue,square
340.0,6.0,1.0,1.0,3.0,3.0,471.2700889999723,3.0,1.0,phase_1,,,,,,,,,,,,,green,I
325.0,2.0,1.0,0.0,4.0,4.0,441.3054389997342,3.0,1.0,phase_1,,,,,,,,,,,,,magenta,circle
1299.0,4.0,4.0,0.0,3.0,3.0,376.1451490004219,3.0,1.0,phase_1,,,,,,,,,,,,,gray,triangle
160.0,1.0,0.5,0.0,2.0,2.0,499.0078920000087,3.0,1.0,phase_1,,,,,,,,,,,,,cyan,cross
342.0,6.0,1.0,1.0,4.0,4.0,343.2051720001254,3.0,1.0,phase_1,,,,,,,,,,,,,green,I
642.0,3.0,2.0,0.0,4.0,4.0,398.3649249998962,3.0,1.0,phase_1,,,,,,,,,,,,,blue,square
157.0,1.0,0.5,0.0,4.0,4.0,403.084497999771,3.0,1.0,phase_1,,,,,,,,,,,,,cyan,cross
1315.0,4.0,4.0,0.0,1.0,1.0,885.3538970001864,3.0,1.0,phase_1,,,,,,,,,,,,,gray,triangle
0.0,1.0,0.0,0.0,3.0,3.0,545.6698240000151,3.0,1.0,phase_1,,,,,,,,,,,,,cyan,cross
653.0,7.0,2.0,1.0,4.0,4.0,398.3614459998534,3.0,1.0,phase_1,,,,,,,,,,,,,white,hexagon
669.0,3.0,2.0,0.0,2.0,2.0,707.2764829999869,3.0,1.0,phase_1,,,,,,,,,,,,,blue,square
315.0,2.0,1.0,0.0,4.0,4.0,432.8126740001607,3.0,1.0,phase_1,,,,,,,,,,,,,magenta,circle
334.0,2.0,1.0,0.0,1.0,1.0,508.0906920002235,3.0,1.0,phase_1,,,,,,,,,,,,,magenta,circle
1314.0,4.0,4.0,0.0,3.0,3.0,403.1816259998777,3.0,1.0,phase_1,,,,,,,,,,,,,gray,triangle
674.0,3.0,2.0,0.0,1.0,1.0,485.3995799999211,3.0,1.0,phase_1,,,,,,,,,,,,,blue,square
1303.0,4.0,4.0,0.0,4.0,4.0,397.3072650001086,3.0,1.0,phase_1,,,,,,,,,,,,,gray,triangle
1285.0,4.0,4.0,0.0,3.0,3.0,441.1867389999315,3.0,1.0,phase_1,,,,,,,,,,,,,gray,triangle
666.0,3.0,2.0,0.0,4.0,4.0,364.536383000086,3.0,1.0,phase_1,,,,,,,,,,,,,blue,square
673.0,7.0,2.0,1.0,4.0,4.0,394.02929400012,3.0,1.0,phase_1,,,,,,,,,,,,,white,hexagon
333.0,6.0,1.0,1.0,3.0,3.0,421.180841000023,3.0,1.0,phase_1,,,,,,,,,,,,,green,I
180.0,1.0,0.5,0.0,2.0,2.0,585.918281999966,3.0,1.0,phase_1,,,,,,,,,,,,,cyan,cross
183.0,1.0,0.5,0.0,4.0,4.0,423.9812129999336,3.0,1.0,phase_1,,,,,,,,,,,,,cyan,cross
665.0,7.0,2.0,1.0,2.0,2.0,601.5409599999657,3.0,2.0,phase_1,,,,,,,,,,,,,white,hexagon
1313.0,4.0,4.0,0.0,2.0,2.0,636.2967960003516,3.0,1.0,phase_1,,,,,,,,,,,,,gray,triangle
660.0,7.0,2.0,1.0,1.0,1.0,600.5570659999648,3.0,1.0,phase_1,,,,,,,,,,,,,white,hexagon
1279.0,4.0,4.0,0.0,3.0,3.0,460.8791760001622,3.0,1.0,phase_1,,,,,,,,,,,,,gray,triangle
321.0,6.0,1.0,1.0,3.0,3.0,529.522107000048,3.0,1.0,phase_1,,,,,,,,,,,,,green,I
180.0,5.0,0.5,1.0,2.0,2.0,536.5724469997986,3.0,1.0,phase_1,,,,,,,,,,,,,yellow,flipped triangle
163.0,5.0,0.5,1.0,3.0,3.0,405.9558640001341,3.0,1.0,phase_1,,,,,,,,,,,,,yellow,flipped triangle
146.0,5.0,0.5,1.0,4.0,4.0,375.8937879997575,3.0,1.0,phase_1,,,,,,,,,,,,,yellow,flipped triangle
631.0,3.0,2.0,0.0,3.0,3.0,452.9744609999397,3.0,1.0,phase_1,,,,,,,,,,,,,blue,square
0.0,7.0,0.0,1.0,1.0,1.0,656.9378459998916,3.0,1.0,phase_1,,,,,,,,,,,,,white,hexagon
143.0,5.0,0.5,1.0,1.0,1.0,470.8754289999888,3.0,1.0,phase_1,,,,,,,,,,,,,yellow,flipped triangle
1312.0,8.0,4.0,1.0,4.0,4.0,397.1161650001704,3.0,1.0,phase_1,,,,,,,,,,,,,orange,diamond
1318.0,8.0,4.0,1.0,3.0,3.0,399.3792729997949,3.0,1.0,phase_1,,,,,,,,,,,,,orange,diamond
0.0,5.0,0.0,1.0,3.0,3.0,396.8751779998456,3.0,1.0,phase_1,,,,,,,,,,,,,yellow,flipped triangle
1309.0,8.0,4.0,1.0,1.0,1.0,450.2594680002403,3.0,1.0,phase_1,,,,,,,,,,,,,orange,diamond
642.0,7.0,2.0,1.0,4.0,4.0,358.0455740002435,3.0,1.0,phase_1,,,,,,,,,,,,,white,hexagon
655.0,3.0,2.0,0.0,2.0,2.0,457.6504410001689,3.0,1.0,phase_1,,,,,,,,,,,,,blue,square
0.0,4.0,0.0,0.0,3.0,3.0,333.9070219999485,3.0,1.0,phase_1,,,,,,,,,,,,,gray,triangle
0.0,6.0,0.0,1.0,3.0,3.0,428.9373090000481,3.0,1.0,phase_1,,,,,,,,,,,,,green,I
1291.0,8.0,4.0,1.0,1.0,1.0,511.64144299991676,3.0,1.0,phase_1,,,,,,,,,,,,,orange,diamond
148.0,5.0,0.5,1.0,2.0,2.0,542.7559159998054,3.0,1.0,phase_1,,,,,,,,,,,,,yellow,flipped triangle
325.0,2.0,1.0,0.0,4.0,4.0,431.5915360002691,3.0,1.0,phase_1,,,,,,,,,,,,,magenta,circle
336.0,2.0,1.0,0.0,2.0,2.0,532.9493929998534,3.0,1.0,phase_1,,,,,,,,,,,,,magenta,circle
1321.0,8.0,4.0,1.0,2.0,2.0,497.3003359996255,3.0,1.0,phase_1,,,,,,,,,,,,,orange,diamond
163.0,1.0,0.5,0.0,1.0,1.0,559.4456529997842,3.0,1.0,phase_1,,,,,,,,,,,,,cyan,cross
0.0,5.0,0.0,1.0,1.0,1.0,458.0357479999293,3.0,1.0,phase_1,,,,,,,,,,,,,yellow,flipped triangle
321.0,2.0,1.0,0.0,1.0,1.0,447.3184019998371,3.0,1.0,phase_1,,,,,,,,,,,,,magenta,circle
319.0,2.0,1.0,0.0,1.0,1.0,365.3810209998482,3.0,1.0,phase_1,,,,,,,,,,,,,magenta,circle
311.0,6.0,1.0,1.0,1.0,1.0,370.3098589999172,3.0,1.0,phase_1,,,,,,,,,,,,,green,I
649.0,3.0,2.0,0.0,4.0,4.0,463.8908300003095,3.0,1.0,phase_1,,,,,,,,,,,,,blue,square
0.0,5.0,0.0,1.0,4.0,4.0,636.3467520000086,3.0,1.0,phase_1,,,,,,,,,,,,,yellow,flipped triangle
152.0,1.0,0.5,0.0,2.0,2.0,645.786293999663,3.0,1.0,phase_1,,,,,,,,,,,,,cyan,cross
0.0,4.0,0.0,0.0,1.0,1.0,427.2435119996771,3.0,1.0,phase_1,,,,,,,,,,,,,gray,triangle
0.0,8.0,0.0,1.0,2.0,2.0,535.9291350000603,3.0,1.0,phase_1,,,,,,,,,,,,,orange,diamond
308.0,6.0,1.0,1.0,4.0,4.0,355.7404620000852,3.0,1.0,phase_1,,,,,,,,,,,,,green,I
325.0,6.0,1.0,1.0,1.0,1.0,536.1696559998563,3.0,1.0,phase_1,,,,,,,,,,,,,green,I
306.0,6.0,1.0,1.0,3.0,3.0,517.7600239999265,3.0,1.0,phase_1,,,,,,,,,,,,,green,I
304.0,2.0,1.0,0.0,3.0,3.0,459.0360520001013,3.0,1.0,phase_1,,,,,,,,,,,,,magenta,circle
1317.0,4.0,4.0,0.0,1.0,1.0,441.1216389999026,3.0,1.0,phase_1,,,,,,,,,,,,,gray,triangle
674.0,7.0,2.0,1.0,4.0,4.0,478.252250999958,3.0,1.0,phase_1,,,,,,,,,,,,,white,hexagon
642.0,7.0,2.0,1.0,2.0,2.0,817.1633150000162,3.0,1.0,phase_1,,,,,,,,,,,,,white,hexagon
338.0,6.0,1.0,1.0,1.0,1.0,556.7853659999855,3.0,1.0,phase_1,,,,,,,,,,,,,green,I
146.0,1.0,0.5,0.0,3.0,3.0,388.1421189998946,3.0,1.0,phase_1,,,,,,,,,,,,,cyan,cross
333.0,2.0,1.0,0.0,3.0,3.0,438.1913739998708,3.0,1.0,phase_1,,,,,,,,,,,,,magenta,circle
639.0,7.0,2.0,1.0,2.0,2.0,667.8890969997155,3.0,1.0,phase_1,,,,,,,,,,,,,white,hexagon
631.0,7.0,2.0,1.0,4.0,4.0,512.8346940000483,3.0,1.0,phase_1,,,,,,,,,,,,,white,hexagon
0.0,1.0,0.0,0.0,4.0,4.0,438.4094440001718,3.0,1.0,phase_1,,,,,,,,,,,,,cyan,cross
639.0,3.0,2.0,0.0,2.0,2.0,512.6431479998246,3.0,1.0,phase_1,,,,,,,,,,,,,blue,square
0.0,7.0,0.0,1.0,3.0,3.0,487.2374320002564,3.0,1.0,phase_1,,,,,,,,,,,,,white,hexagon
0.0,1.0,0.0,0.0,3.0,3.0,331.6953300000023,3.0,1.0,phase_1,,,,,,,,,,,,,cyan,cross
152.0,5.0,0.5,1.0,2.0,2.0,519.5161599999665,3.0,1.0,phase_1,,,,,,,,,,,,,yellow,flipped triangle
1298.0,4.0,4.0,0.0,1.0,1.0,546.2251220001235,3.0,1.0,phase_1,,,,,,,,,,,,,gray,triangle
658.0,3.0,2.0,0.0,4.0,4.0,415.0054759998056,3.0,1.0,phase_1,,,,,,,,,,,,,blue,square
148.0,1.0,0.5,0.0,1.0,1.0,539.813378999952,3.0,1.0,phase_1,,,,,,,,,,,,,cyan,cross
181.0,5.0,0.5,1.0,1.0,1.0,481.931572999656,3.0,1.0,phase_1,,,,,,,,,,,,,yellow,flipped triangle
0.0,1.0,0.0,0.0,1.0,1.0,511.78266999977495,3.0,1.0,phase_1,,,,,,,,,,,,,cyan,cross
344.0,6.0,1.0,1.0,2.0,2.0,537.8607499997088,3.0,1.0,phase_1,,,,,,,,,,,,,green,I
165.0,1.0,0.5,0.0,3.0,3.0,504.85636800021894,3.0,1.0,phase_1,,,,,,,,,,,,,cyan,cross
1292.0,8.0,4.0,1.0,3.0,3.0,341.7315729998336,3.0,1.0,phase_1,,,,,,,,,,,,,orange,diamond
325.0,6.0,1.0,1.0,1.0,1.0,562.1699959997386,3.0,1.0,phase_1,,,,,,,,,,,,,green,I
1281.0,8.0,4.0,1.0,1.0,1.0,503.07825699974273,3.0,1.0,phase_1,,,,,,,,,,,,,orange,diamond
338.0,2.0,1.0,0.0,4.0,4.0,416.8955039999673,3.0,1.0,phase_1,,,,,,,,,,,,,magenta,circle
1288.0,8.0,4.0,1.0,2.0,2.0,590.21351399997,3.0,1.0,phase_1,,,,,,,,,,,,,orange,diamond
0.0,3.0,0.0,0.0,4.0,4.0,365.029745999891,3.0,1.0,phase_1,,,,,,,,,,,,,blue,square
1320.0,4.0,4.0,0.0,2.0,2.0,375.438619000306,3.0,1.0,phase_1,,,,,,,,,,,,,gray,triangle
1279.0,8.0,4.0,1.0,4.0,4.0,499.375844000042,3.0,1.0,phase_1,,,,,,,,,,,,,orange,diamond
640.0,7.0,2.0,1.0,4.0,4.0,399.839386000167,4.0,1.0,phase_1,,,,,,,,,,,,,white,hexagon
0.0,2.0,0.0,0.0,1.0,1.0,503.12658699976964,4.0,1.0,phase_1,,,,,,,,,,,,,magenta,circle
650.0,3.0,2.0,0.0,1.0,1.0,465.1798760000929,4.0,1.0,phase_1,,,,,,,,,,,,,blue,square
347.0,2.0,1.0,0.0,2.0,2.0,534.6075630000087,4.0,1.0,phase_1,,,,,,,,,,,,,magenta,circle
1321.0,4.0,4.0,0.0,4.0,4.0,434.9401499998748,4.0,1.0,phase_1,,,,,,,,,,,,,gray,triangle
0.0,7.0,0.0,1.0,1.0,1.0,313.4208359997501,4.0,1.0,phase_1,,,,,,,,,,,,,white,hexagon
319.0,6.0,1.0,1.0,1.0,1.0,348.2353529998363,4.0,1.0,phase_1,,,,,,,,,,,,,green,I
328.0,6.0,1.0,1.0,2.0,2.0,400.8103130004201,4.0,1.0,phase_1,,,,,,,,,,,,,green,I
1319.0,4.0,4.0,0.0,2.0,2.0,438.693463999698,4.0,1.0,phase_1,,,,,,,,,,,,,gray,triangle
1299.0,4.0,4.0,0.0,1.0,1.0,499.8281499997574,4.0,1.0,phase_1,,,,,,,,,,,,,gray,triangle
0.0,6.0,0.0,1.0,3.0,3.0,478.5211609996622,4.0,1.0,phase_1,,,,,,,,,,,,,green,I
1298.0,8.0,4.0,1.0,1.0,1.0,469.2137900001398,4.0,1.0,phase_1,,,,,,,,,,,,,orange,diamond
0.0,8.0,0.0,1.0,2.0,2.0,360.7086609999896,4.0,1.0,phase_1,,,,,,,,,,,,,orange,diamond
1310.0,4.0,4.0,0.0,2.0,2.0,510.6844629999614,4.0,1.0,phase_1,,,,,,,,,,,,,gray,triangle
672.0,7.0,2.0,1.0,3.0,3.0,459.6528410002065,4.0,1.0,phase_1,,,,,,,,,,,,,white,hexagon
342.0,2.0,1.0,0.0,1.0,1.0,453.6402879998604,4.0,1.0,phase_1,,,,,,,,,,,,,magenta,circle
311.0,2.0,1.0,0.0,3.0,3.0,532.2014980001768,4.0,1.0,phase_1,,,,,,,,,,,,,magenta,circle
1279.0,4.0,4.0,0.0,4.0,4.0,440.84470100006,4.0,1.0,phase_1,,,,,,,,,,,,,gray,triangle
328.0,6.0,1.0,1.0,2.0,2.0,372.0021280000765,4.0,1.0,phase_1,,,,,,,,,,,,,green,I
0.0,3.0,0.0,0.0,4.0,4.0,399.9288939999132,4.0,1.0,phase_1,,,,,,,,,,,,,blue,square
334.0,6.0,1.0,1.0,4.0,4.0,540.8979419999014,4.0,1.0,phase_1,,,,,,,,,,,,,green,I
181.0,1.0,0.5,0.0,1.0,1.0,483.9454799998748,4.0,1.0,phase_1,,,,,,,,,,,,,cyan,cross
0.0,3.0,0.0,0.0,1.0,1.0,406.8686750001689,4.0,1.0,phase_1,,,,,,,,,,,,,blue,square
0.0,1.0,0.0,0.0,2.0,2.0,514.514316000259,4.0,1.0,phase_1,,,,,,,,,,,,,cyan,cross
146.0,5.0,0.5,1.0,1.0,1.0,438.9202349998413,4.0,1.0,phase_1,,,,,,,,,,,,,yellow,flipped triangle
321.0,6.0,1.0,1.0,3.0,3.0,460.150629999589,4.0,1.0,phase_1,,,,,,,,,,,,,green,I
143.0,5.0,0.5,1.0,3.0,3.0,432.8837110001586,4.0,1.0,phase_1,,,,,,,,,,,,,yellow,flipped triangle
0.0,3.0,0.0,0.0,1.0,1.0,517.1568929999921,4.0,1.0,phase_1,,,,,,,,,,,,,blue,square
1309.0,4.0,4.0,0.0,2.0,2.0,505.4533280003852,4.0,1.0,phase_1,,,,,,,,,,,,,gray,triangle
166.0,5.0,0.5,1.0,2.0,2.0,661.0613030002241,4.0,2.0,phase_1,,,,,,,,,,,,,yellow,flipped triangle
173.0,1.0,0.5,0.0,4.0,4.0,538.6158960000103,4.0,1.0,phase_1,,,,,,,,,,,,,cyan,cross
1296.0,8.0,4.0,1.0,1.0,1.0,502.8705100003208,4.0,1.0,phase_1,,,,,,,,,,,,,orange,diamond
1319.0,8.0,4.0,1.0,1.0,1.0,425.5638109998472,4.0,1.0,phase_1,,,,,,,,,,,,,orange,diamond
1309.0,4.0,4.0,0.0,4.0,4.0,552.1304740000232,4.0,1.0,phase_1,,,,,,,,,,,,,gray,triangle
141.0,5.0,0.5,1.0,2.0,2.0,706.6654420000305,4.0,1.0,phase_1,,,,,,,,,,,,,yellow,flipped triangle
0.0,5.0,0.0,1.0,3.0,3.0,453.2150739996723,4.0,2.0,phase_1,,,,,,,,,,,,,yellow,flipped triangle
343.0,6.0,1.0,1.0,2.0,2.0,809.2790030000288,4.0,1.0,phase_1,,,,,,,,,,,,,green,I
0.0,3.0,0.0,0.0,1.0,1.0,831.5212689999498,4.0,1.0,phase_1,,,,,,,,,,,,,blue,square
0.0,8.0,0.0,1.0,1.0,1.0,549.8645440002292,4.0,2.0,phase_1,,,,,,,,,,,,,orange,diamond
0.0,4.0,0.0,0.0,1.0,1.0,668.0731310002557,4.0,1.0,phase_1,,,,,,,,,,,,,gray,triangle
0.0,4.0,0.0,0.0,1.0,1.0,407.494472000053,4.0,1.0,phase_1,,,,,,,,,,,,,gray,triangle
0.0,6.0,0.0,1.0,1.0,1.0,636.0307260001719,4.0,1.0,phase_1,,,,,,,,,,,,,green,I
153.0,1.0,0.5,0.0,1.0,1.0,424.7315899997375,4.0,1.0,phase_1,,,,,,,,,,,,,cyan,cross
1300.0,8.0,4.0,1.0,3.0,3.0,381.3461380000262,4.0,1.0,phase_1,,,,,,,,,,,,,orange,diamond
0.0,8.0,0.0,1.0,1.0,1.0,481.4413379999678,4.0,1.0,phase_1,,,,,,,,,,,,,orange,diamond
0.0,3.0,0.0,0.0,4.0,4.0,422.6389519999429,4.0,1.0,phase_1,,,,,,,,,,,,,blue,square
1291.0,4.0,4.0,0.0,3.0,3.0,483.2259960003284,4.0,1.0,phase_1,,,,,,,,,,,,,gray,triangle
153.0,5.0,0.5,1.0,4.0,4.0,463.7558169997646,4.0,1.0,phase_1,,,,,,,,,,,,,yellow,flipped triangle
172.0,5.0,0.5,1.0,1.0,1.0,564.7431020001932,4.0,1.0,phase_1,,,,,,,,,,,,,yellow,flipped triangle
165.0,5.0,0.5,1.0,2.0,2.0,545.3104380003424,4.0,1.0,phase_1,,,,,,,,,,,,,yellow,flipped triangle
649.0,7.0,2.0,1.0,4.0,4.0,413.8068890001705,4.0,1.0,phase_1,,,,,,,,,,,,,white,hexagon
654.0,3.0,2.0,0.0,1.0,1.0,635.2182709997578,4.0,1.0,phase_1,,,,,,,,,,,,,blue,square
0.0,3.0,0.0,0.0,3.0,3.0,432.6325030001499,4.0,1.0,phase_1,,,,,,,,,,,,,blue,square
660.0,3.0,2.0,0.0,3.0,3.0,491.1373279996951,4.0,1.0,phase_1,,,,,,,,,,,,,blue,square
0.0,6.0,0.0,1.0,3.0,3.0,399.2582780001612,4.0,1.0,phase_1,,,,,,,,,,,,,green,I
657.0,7.0,2.0,1.0,3.0,3.0,475.8985730004497,4.0,1.0,phase_1,,,,,,,,,,,,,white,hexagon
1286.0,8.0,4.0,1.0,4.0,4.0,475.0972969995928,4.0,1.0,phase_1,,,,,,,,,,,,,orange,diamond
1309.0,4.0,4.0,0.0,4.0,4.0,383.9174740000999,4.0,1.0,phase_1,,,,,,,,,,,,,gray,triangle
1299.0,8.0,4.0,1.0,1.0,1.0,529.4388210004399,4.0,1.0,phase_1,,,,,,,,,,,,,orange,diamond
157.0,5.0,0.5,1.0,3.0,3.0,465.540067999882,4.0,1.0,phase_1,,,,,,,,,,,,,yellow,flipped triangle
307.0,2.0,1.0,0.0,2.0,2.0,474.9209900001006,4.0,1.0,phase_1,,,,,,,,,,,,,magenta,circle
0.0,2.0,0.0,0.0,2.0,2.0,495.8584219998556,4.0,1.0,phase_1,,,,,,,,,,,,,magenta,circle
1311.0,4.0,4.0,0.0,4.0,4.0,423.5142919997088,4.0,1.0,phase_1,,,,,,,,,,,,,gray,triangle
1316.0,8.0,4.0,1.0,2.0,2.0,504.8377069997514,4.0,1.0,phase_1,,,,,,,,,,,,,orange,diamond
663.0,3.0,2.0,0.0,2.0,2.0,405.0288890002775,4.0,1.0,phase_1,,,,,,,,,,,,,blue,square
0.0,8.0,0.0,1.0,4.0,4.0,442.5441270000192,4.0,1.0,phase_1,,,,,,,,,,,,,orange,diamond
0.0,1.0,0.0,0.0,4.0,4.0,496.8660889999228,4.0,1.0,phase_1,,,,,,,,,,,,,cyan,cross
324.0,6.0,1.0,1.0,4.0,4.0,731.260487000327,4.0,1.0,phase_1,,,,,,,,,,,,,green,I
672.0,3.0,2.0,0.0,3.0,3.0,425.3522910003084,4.0,1.0,phase_1,,,,,,,,,,,,,blue,square
1317.0,8.0,4.0,1.0,3.0,3.0,429.179202999876,4.0,1.0,phase_1,,,,,,,,,,,,,orange,diamond
1311.0,8.0,4.0,1.0,4.0,4.0,435.2768540002216,4.0,1.0,phase_1,,,,,,,,,,,,,orange,diamond
0.0,5.0,0.0,1.0,3.0,3.0,366.5777890000754,4.0,1.0,phase_1,,,,,,,,,,,,,yellow,flipped triangle
141.0,1.0,0.5,0.0,4.0,4.0,445.1487999999699,4.0,1.0,phase_1,,,,,,,,,,,,,cyan,cross
186.0,1.0,0.5,0.0,1.0,1.0,599.4217059997027,4.0,1.0,phase_1,,,,,,,,,,,,,cyan,cross
0.0,6.0,0.0,1.0,2.0,2.0,499.3853340001806,4.0,1.0,phase_1,,,,,,,,,,,,,green,I
306.0,2.0,1.0,0.0,1.0,1.0,400.6321859997115,4.0,1.0,phase_1,,,,,,,,,,,,,magenta,circle
669.0,3.0,2.0,0.0,4.0,4.0,413.8993039996421,4.0,1.0,phase_1,,,,,,,,,,,,,blue,square
158.0,1.0,0.5,0.0,3.0,3.0,449.6776440000758,4.0,1.0,phase_1,,,,,,,,,,,,,cyan,cross
341.0,6.0,1.0,1.0,4.0,4.0,462.278809000054,4.0,1.0,phase_1,,,,,,,,,,,,,green,I
180.0,5.0,0.5,1.0,1.0,1.0,406.1430419997123,4.0,1.0,phase_1,,,,,,,,,,,,,yellow,flipped triangle
1292.0,4.0,4.0,0.0,2.0,2.0,512.2413400004007,4.0,1.0,phase_1,,,,,,,,,,,,,gray,triangle
671.0,7.0,2.0,1.0,2.0,2.0,494.280754999636,4.0,1.0,phase_1,,,,,,,,,,,,,white,hexagon
1315.0,8.0,4.0,1.0,3.0,3.0,473.0371689993262,4.0,1.0,phase_1,,,,,,,,,,,,,orange,diamond
1275.0,4.0,4.0,0.0,3.0,3.0,389.7599989995797,4.0,1.0,phase_1,,,,,,,,,,,,,gray,triangle
168.0,1.0,0.5,0.0,4.0,4.0,461.3479800000277,4.0,1.0,phase_1,,,,,,,,,,,,,cyan,cross
181.0,1.0,0.5,0.0,1.0,1.0,487.4077939994095,4.0,1.0,phase_1,,,,,,,,,,,,,cyan,cross
0.0,1.0,0.0,0.0,3.0,3.0,452.7895049996004,4.0,1.0,phase_1,,,,,,,,,,,,,cyan,cross
186.0,5.0,0.5,1.0,1.0,1.0,346.037179000632,4.0,1.0,phase_1,,,,,,,,,,,,,yellow,flipped triangle
1293.0,4.0,4.0,0.0,2.0,2.0,556.5233359993726,4.0,1.0,phase_1,,,,,,,,,,,,,gray,triangle
0.0,2.0,0.0,0.0,1.0,1.0,379.5804820001649,4.0,1.0,phase_1,,,,,,,,,,,,,magenta,circle
167.0,1.0,0.5,0.0,1.0,1.0,502.44073900012154,4.0,1.0,phase_1,,,,,,,,,,,,,cyan,cross
146.0,1.0,0.5,0.0,2.0,2.0,460.4065899993657,4.0,1.0,phase_1,,,,,,,,,,,,,cyan,cross
631.0,7.0,2.0,1.0,1.0,1.0,378.2614860001558,4.0,1.0,phase_1,,,,,,,,,,,,,white,hexagon
1284.0,4.0,4.0,0.0,3.0,3.0,558.7226670004384,4.0,1.0,phase_1,,,,,,,,,,,,,gray,triangle
1296.0,4.0,4.0,0.0,3.0,3.0,408.136807000119,4.0,1.0,phase_1,,,,,,,,,,,,,gray,triangle
146.0,5.0,0.5,1.0,4.0,4.0,647.8319040006681,4.0,1.0,phase_1,,,,,,,,,,,,,yellow,flipped triangle
349.0,2.0,1.0,0.0,3.0,3.0,475.3933469992262,4.0,1.0,phase_1,,,,,,,,,,,,,magenta,circle
307.0,6.0,1.0,1.0,4.0,4.0,520.0582540001051,4.0,1.0,phase_1,,,,,,,,,,,,,green,I
0.0,6.0,0.0,1.0,4.0,4.0,429.6910419998312,4.0,1.0,phase_1,,,,,,,,,,,,,green,I
181.0,5.0,0.5,1.0,3.0,3.0,375.9012330001496,4.0,1.0,phase_1,,,,,,,,,,,,,yellow,flipped triangle
0.0,8.0,4.0,1.0,6.0,6.0,587.714256000254,1.0,1.0,phase_2,stop,250.0,250.0,3.0,,,,,,,,,orange,diamond
0.0,8.0,4.0,1.0,5.0,0.0,0.0,1.0,1.0,phase_2,stop,250.0,200.0,4.0,,,,,,,,,orange,diamond
0.0,8.0,4.0,1.0,6.0,0.0,0.0,1.0,1.0,phase_2,stop,300.0,200.0,4.0,,,,,,,,,orange,diamond
0.0,3.0,2.0,0.0,6.0,6.0,798.0108790006852,1.0,1.0,phase_2,go,300.0,250.0,1.0,,,,,,,,,blue,square
0.0,1.0,0.5,0.0,6.0,6.0,1119.4226289999278,1.0,1.0,phase_2,go,300.0,250.0,1.0,,,,,,,,,cyan,cross
0.0,1.0,0.5,0.0,5.0,5.0,822.8182900002139,1.0,1.0,phase_2,go,300.0,250.0,1.0,,,,,,,,,cyan,cross
0.0,3.0,2.0,0.0,5.0,5.0,1093.2004890000826,1.0,1.0,phase_2,go,300.0,250.0,1.0,,,,,,,,,blue,square
0.0,2.0,1.0,0.0,5.0,5.0,835.0693940001293,1.0,1.0,phase_2,go,300.0,250.0,1.0,,,,,,,,,magenta,circle
0.0,1.0,0.5,0.0,6.0,6.0,765.1941200001602,1.0,1.0,phase_2,go,300.0,250.0,1.0,,,,,,,,,cyan,cross
0.0,8.0,4.0,1.0,6.0,6.0,666.508358000101,1.0,1.0,phase_2,go,300.0,250.0,1.0,,,,,,,,,orange,diamond
0.0,3.0,2.0,0.0,5.0,5.0,371.7532330001631,1.0,1.0,phase_2,go,300.0,250.0,1.0,,,,,,,,,blue,square
0.0,3.0,2.0,0.0,5.0,5.0,401.3050140001724,1.0,1.0,phase_2,go,300.0,250.0,1.0,,,,,,,,,blue,square
0.0,8.0,4.0,1.0,5.0,5.0,368.4716669995396,1.0,1.0,phase_2,stop,300.0,250.0,3.0,,,,,,,,,orange,diamond
0.0,6.0,1.0,1.0,6.0,0.0,0.0,1.0,1.0,phase_2,stop,250.0,250.0,4.0,,,,,,,,,green,I
0.0,4.0,4.0,0.0,5.0,0.0,0.0,1.0,1.0,phase_2,go,250.0,300.0,5.0,,,,,,,,,gray,triangle
0.0,8.0,4.0,1.0,6.0,0.0,0.0,1.0,1.0,phase_2,stop,250.0,300.0,4.0,,,,,,,,,orange,diamond
0.0,3.0,2.0,0.0,5.0,5.0,814.3879629997173,1.0,1.0,phase_2,go,250.0,350.0,1.0,,,,,,,,,blue,square
0.0,7.0,2.0,1.0,5.0,0.0,0.0,1.0,1.0,phase_2,stop,250.0,350.0,4.0,,,,,,,,,white,hexagon
0.0,6.0,1.0,1.0,6.0,0.0,0.0,1.0,1.0,phase_2,stop,300.0,350.0,4.0,,,,,,,,,green,I
0.0,7.0,2.0,1.0,5.0,0.0,0.0,1.0,1.0,phase_2,stop,300.0,400.0,4.0,,,,,,,,,white,hexagon
0.0,4.0,4.0,0.0,6.0,6.0,667.1623949996501,1.0,1.0,phase_2,go,350.0,400.0,1.0,,,,,,,,,gray,triangle
0.0,1.0,0.5,0.0,5.0,5.0,803.222232000735,1.0,1.0,phase_2,go,350.0,400.0,1.0,,,,,,,,,cyan,cross
0.0,5.0,0.5,1.0,6.0,6.0,596.236934999979,1.0,1.0,phase_2,go,350.0,400.0,1.0,,,,,,,,,yellow,flipped triangle
0.0,3.0,2.0,0.0,6.0,6.0,707.4468900000284,1.0,1.0,phase_2,go,350.0,400.0,1.0,,,,,,,,,blue,square
0.0,4.0,4.0,0.0,6.0,6.0,642.0207510000182,1.0,1.0,phase_2,go,350.0,400.0,1.0,,,,,,,,,gray,triangle
0.0,3.0,2.0,0.0,6.0,6.0,520.81297299992,1.0,1.0,phase_2,go,350.0,400.0,1.0,,,,,,,,,blue,square
0.0,2.0,1.0,0.0,6.0,6.0,456.3169290004225,1.0,1.0,phase_2,go,350.0,400.0,1.0,,,,,,,,,magenta,circle
0.0,6.0,1.0,1.0,6.0,6.0,439.0411260001201,1.0,1.0,phase_2,stop,350.0,400.0,3.0,,,,,,,,,green,I
0.0,8.0,4.0,1.0,6.0,0.0,0.0,1.0,1.0,phase_2,stop,350.0,350.0,4.0,,,,,,,,,orange,diamond
0.0,8.0,4.0,1.0,6.0,6.0,872.0600489996286,1.0,1.0,phase_2,go,350.0,400.0,1.0,,,,,,,,,orange,diamond
0.0,6.0,1.0,1.0,5.0,0.0,0.0,1.0,1.0,phase_2,stop,350.0,400.0,4.0,,,,,,,,,green,I
0.0,8.0,4.0,1.0,6.0,0.0,0.0,1.0,1.0,phase_2,stop,400.0,400.0,4.0,,,,,,,,,orange,diamond
0.0,2.0,1.0,0.0,5.0,5.0,764.6747819999291,1.0,1.0,phase_2,go,400.0,450.0,1.0,,,,,,,,,magenta,circle
0.0,8.0,4.0,1.0,5.0,0.0,0.0,1.0,1.0,phase_2,stop,400.0,450.0,4.0,,,,,,,,,orange,diamond
0.0,8.0,4.0,1.0,6.0,6.0,602.3472059996493,1.0,1.0,phase_2,stop,450.0,450.0,3.0,,,,,,,,,orange,diamond
0.0,1.0,0.5,0.0,5.0,5.0,708.3552149997558,1.0,1.0,phase_2,go,450.0,400.0,1.0,,,,,,,,,cyan,cross
0.0,1.0,0.5,0.0,6.0,6.0,452.4112809995131,2.0,1.0,phase_2,go,450.0,400.0,1.0,,,,,,,,,cyan,cross
0.0,4.0,4.0,0.0,5.0,5.0,545.1240219999818,2.0,1.0,phase_2,go,450.0,400.0,1.0,,,,,,,,,gray,triangle
0.0,5.0,0.5,1.0,6.0,6.0,497.4531649995697,2.0,1.0,phase_2,stop,450.0,400.0,3.0,,,,,,,,,yellow,flipped triangle
0.0,8.0,4.0,1.0,6.0,6.0,559.5620739995866,2.0,1.0,phase_2,stop,450.0,350.0,3.0,,,,,,,,,orange,diamond
0.0,7.0,2.0,1.0,6.0,6.0,880.0495309997132,2.0,1.0,phase_2,go,450.0,300.0,1.0,,,,,,,,,white,hexagon
0.0,4.0,4.0,0.0,6.0,6.0,793.0381429996487,2.0,1.0,phase_2,go,450.0,300.0,1.0,,,,,,,,,gray,triangle
0.0,8.0,4.0,1.0,6.0,6.0,622.9750040001818,2.0,1.0,phase_2,go,450.0,300.0,1.0,,,,,,,,,orange,diamond
0.0,4.0,4.0,0.0,6.0,6.0,438.2660359997317,2.0,1.0,phase_2,go,450.0,300.0,1.0,,,,,,,,,gray,triangle
0.0,8.0,4.0,1.0,6.0,6.0,510.6215499999962,2.0,1.0,phase_2,stop,450.0,300.0,3.0,,,,,,,,,orange,diamond
0.0,7.0,2.0,1.0,5.0,5.0,638.0170780003027,2.0,1.0,phase_2,stop,450.0,250.0,3.0,,,,,,,,,white,hexagon
0.0,1.0,0.5,0.0,6.0,6.0,773.9897849996851,2.0,1.0,phase_2,go,400.0,250.0,1.0,,,,,,,,,cyan,cross
0.0,8.0,4.0,1.0,6.0,6.0,803.7204309994195,2.0,1.0,phase_2,go,400.0,250.0,1.0,,,,,,,,,orange,diamond
0.0,4.0,4.0,0.0,6.0,6.0,779.3530429999009,2.0,1.0,phase_2,go,400.0,250.0,1.0,,,,,,,,,gray,triangle
0.0,3.0,2.0,0.0,6.0,6.0,914.7485850007796,2.0,1.0,phase_2,go,400.0,250.0,1.0,,,,,,,,,blue,square
0.0,6.0,1.0,1.0,5.0,0.0,0.0,2.0,1.0,phase_2,stop,400.0,250.0,4.0,,,,,,,,,green,I
0.0,1.0,0.5,0.0,5.0,5.0,690.3606999994736,2.0,1.0,phase_2,go,450.0,250.0,1.0,,,,,,,,,cyan,cross
0.0,7.0,2.0,1.0,6.0,6.0,842.50383699964,2.0,1.0,phase_2,go,450.0,250.0,1.0,,,,,,,,,white,hexagon
0.0,2.0,1.0,0.0,5.0,5.0,650.0287809994916,2.0,1.0,phase_2,go,450.0,250.0,1.0,,,,,,,,,magenta,circle
0.0,4.0,4.0,0.0,6.0,6.0,841.3504259997353,2.0,1.0,phase_2,go,450.0,250.0,1.0,,,,,,,,,gray,triangle
0.0,6.0,1.0,1.0,5.0,5.0,574.7269569992568,2.0,1.0,phase_2,go,450.0,250.0,1.0,,,,,,,,,green,I
0.0,8.0,4.0,1.0,5.0,5.0,559.2108179998831,2.0,1.0,phase_2,go,450.0,250.0,1.0,,,,,,,,,orange,diamond
0.0,5.0,0.5,1.0,5.0,5.0,493.6968049996721,2.0,1.0,phase_2,go,450.0,250.0,1.0,,,,,,,,,yellow,flipped triangle
0.0,4.0,4.0,0.0,6.0,6.0,492.8553200006718,2.0,1.0,phase_2,go,450.0,250.0,1.0,,,,,,,,,gray,triangle
0.0,1.0,0.5,0.0,5.0,5.0,357.6160409993463,2.0,1.0,phase_2,go,450.0,250.0,1.0,,,,,,,,,cyan,cross
0.0,7.0,2.0,1.0,5.0,5.0,469.724036000116,2.0,1.0,phase_2,stop,450.0,250.0,3.0,,,,,,,,,white,hexagon
0.0,2.0,1.0,0.0,5.0,5.0,683.4281379997265,2.0,1.0,phase_2,go,400.0,250.0,1.0,,,,,,,,,magenta,circle
0.0,6.0,1.0,1.0,6.0,0.0,0.0,2.0,1.0,phase_2,stop,400.0,250.0,4.0,,,,,,,,,green,I
0.0,7.0,2.0,1.0,6.0,0.0,0.0,2.0,1.0,phase_2,stop,400.0,300.0,4.0,,,,,,,,,white,hexagon
0.0,8.0,4.0,1.0,5.0,5.0,329.0608459992654,2.0,1.0,phase_2,go,400.0,350.0,1.0,,,,,,,,,orange,diamond
0.0,7.0,2.0,1.0,5.0,0.0,0.0,2.0,1.0,phase_2,stop,400.0,350.0,4.0,,,,,,,,,white,hexagon
0.0,6.0,1.0,1.0,5.0,5.0,601.3007689998631,2.0,1.0,phase_2,stop,450.0,350.0,3.0,,,,,,,,,green,I
0.0,4.0,4.0,0.0,5.0,5.0,902.5813480002398,2.0,1.0,phase_2,go,400.0,350.0,1.0,,,,,,,,,gray,triangle
0.0,7.0,2.0,1.0,5.0,0.0,0.0,2.0,1.0,phase_2,stop,400.0,350.0,4.0,,,,,,,,,white,hexagon
0.0,5.0,0.5,1.0,6.0,0.0,0.0,2.0,1.0,phase_2,stop,450.0,350.0,4.0,,,,,,,,,yellow,flipped triangle
0.0,3.0,2.0,0.0,5.0,5.0,975.4041480000524,2.0,1.0,phase_2,go,450.0,400.0,1.0,,,,,,,,,blue,square
0.0,5.0,0.5,1.0,5.0,5.0,1260.9586369999306,2.0,1.0,phase_2,go,450.0,400.0,1.0,,,,,,,,,yellow,flipped triangle
0.0,1.0,0.5,0.0,6.0,6.0,829.4072149992644,3.0,1.0,phase_2,go,450.0,400.0,1.0,,,,,,,,,cyan,cross
0.0,6.0,1.0,1.0,5.0,5.0,748.8741990000563,3.0,1.0,phase_2,go,450.0,400.0,1.0,,,,,,,,,green,I
0.0,2.0,1.0,0.0,6.0,6.0,957.1476669998448,3.0,1.0,phase_2,go,450.0,400.0,1.0,,,,,,,,,magenta,circle
0.0,8.0,4.0,1.0,6.0,6.0,850.647394000589,3.0,1.0,phase_2,go,450.0,400.0,1.0,,,,,,,,,orange,diamond
0.0,2.0,1.0,0.0,5.0,5.0,754.7777899999346,3.0,1.0,phase_2,go,450.0,400.0,1.0,,,,,,,,,magenta,circle
0.0,7.0,2.0,1.0,6.0,0.0,0.0,3.0,1.0,phase_2,stop,450.0,400.0,4.0,,,,,,,,,white,hexagon
0.0,4.0,4.0,0.0,6.0,6.0,739.9324180005351,3.0,1.0,phase_2,go,450.0,450.0,1.0,,,,,,,,,gray,triangle
0.0,1.0,0.5,0.0,6.0,6.0,1002.4471859996993,3.0,1.0,phase_2,go,450.0,450.0,1.0,,,,,,,,,cyan,cross
0.0,2.0,1.0,0.0,6.0,6.0,936.7146009999489,3.0,1.0,phase_2,go,450.0,450.0,1.0,,,,,,,,,magenta,circle
0.0,2.0,1.0,0.0,6.0,6.0,767.7967039999203,3.0,1.0,phase_2,go,450.0,450.0,1.0,,,,,,,,,magenta,circle
0.0,6.0,1.0,1.0,5.0,0.0,0.0,3.0,1.0,phase_2,stop,450.0,450.0,4.0,,,,,,,,,green,I
0.0,4.0,4.0,0.0,6.0,6.0,414.8636379995878,3.0,1.0,phase_2,go,500.0,450.0,1.0,,,,,,,,,gray,triangle
0.0,3.0,2.0,0.0,6.0,6.0,623.4635410000919,3.0,1.0,phase_2,go,500.0,450.0,1.0,,,,,,,,,blue,square
0.0,5.0,0.5,1.0,6.0,6.0,637.171440000202,3.0,1.0,phase_2,stop,500.0,450.0,3.0,,,,,,,,,yellow,flipped triangle
0.0,5.0,0.5,1.0,5.0,5.0,670.9109159992295,3.0,1.0,phase_2,stop,500.0,400.0,3.0,,,,,,,,,yellow,flipped triangle
0.0,3.0,2.0,0.0,6.0,6.0,635.2610029998687,3.0,1.0,phase_2,go,450.0,400.0,1.0,,,,,,,,,blue,square
0.0,3.0,2.0,0.0,6.0,6.0,811.4589219994741,3.0,1.0,phase_2,go,450.0,400.0,1.0,,,,,,,,,blue,square
0.0,3.0,2.0,0.0,6.0,6.0,876.5993400002117,3.0,1.0,phase_2,go,450.0,400.0,1.0,,,,,,,,,blue,square
0.0,6.0,1.0,1.0,6.0,0.0,0.0,3.0,1.0,phase_2,stop,450.0,400.0,4.0,,,,,,,,,green,I
0.0,6.0,1.0,1.0,5.0,5.0,864.7496479998154,3.0,1.0,phase_2,go,450.0,450.0,1.0,,,,,,,,,green,I
0.0,2.0,1.0,0.0,6.0,6.0,1082.5660119999156,3.0,1.0,phase_2,go,450.0,450.0,1.0,,,,,,,,,magenta,circle
0.0,4.0,4.0,0.0,5.0,5.0,727.5378969998201,3.0,1.0,phase_2,go,450.0,450.0,1.0,,,,,,,,,gray,triangle
0.0,7.0,2.0,1.0,5.0,5.0,703.6469330005275,3.0,1.0,phase_2,go,450.0,450.0,1.0,,,,,,,,,white,hexagon
0.0,3.0,2.0,0.0,5.0,5.0,841.1980439996114,3.0,1.0,phase_2,go,450.0,450.0,1.0,,,,,,,,,blue,square
0.0,7.0,2.0,1.0,5.0,0.0,0.0,3.0,1.0,phase_2,stop,450.0,450.0,4.0,,,,,,,,,white,hexagon
0.0,1.0,0.5,0.0,6.0,6.0,598.8558439994449,3.0,1.0,phase_2,go,500.0,450.0,1.0,,,,,,,,,cyan,cross
0.0,5.0,0.5,1.0,5.0,0.0,0.0,3.0,1.0,phase_2,stop,500.0,450.0,4.0,,,,,,,,,yellow,flipped triangle
0.0,5.0,0.5,1.0,6.0,0.0,0.0,3.0,1.0,phase_2,stop,550.0,450.0,4.0,,,,,,,,,yellow,flipped triangle
0.0,3.0,2.0,0.0,5.0,5.0,1012.7448110006301,3.0,1.0,phase_2,go,550.0,500.0,1.0,,,,,,,,,blue,square
0.0,7.0,2.0,1.0,6.0,6.0,884.5198740000342,3.0,1.0,phase_2,go,550.0,500.0,1.0,,,,,,,,,white,hexagon
0.0,7.0,2.0,1.0,6.0,6.0,490.6261780006389,3.0,1.0,phase_2,stop,550.0,500.0,3.0,,,,,,,,,white,hexagon
0.0,3.0,2.0,0.0,5.0,5.0,1154.394871000477,3.0,1.0,phase_2,go,550.0,450.0,1.0,,,,,,,,,blue,square
0.0,7.0,2.0,1.0,6.0,0.0,0.0,3.0,1.0,phase_2,stop,550.0,450.0,4.0,,,,,,,,,white,hexagon
0.0,3.0,2.0,0.0,5.0,5.0,1010.7388839996929,3.0,1.0,phase_2,go,550.0,500.0,1.0,,,,,,,,,blue,square
0.0,8.0,4.0,1.0,5.0,0.0,0.0,3.0,1.0,phase_2,stop,550.0,500.0,4.0,,,,,,,,,orange,diamond
0.0,1.0,0.5,0.0,5.0,5.0,839.7425880002629,3.0,1.0,phase_2,go,600.0,500.0,1.0,,,,,,,,,cyan,cross
0.0,5.0,0.5,1.0,5.0,5.0,491.6441830000622,4.0,1.0,phase_2,stop,600.0,500.0,3.0,,,,,,,,,yellow,flipped triangle
0.0,8.0,4.0,1.0,5.0,0.0,0.0,4.0,1.0,phase_2,stop,550.0,500.0,4.0,,,,,,,,,orange,diamond
0.0,7.0,2.0,1.0,5.0,5.0,593.9080189991728,4.0,1.0,phase_2,stop,600.0,500.0,3.0,,,,,,,,,white,hexagon
0.0,2.0,1.0,0.0,6.0,6.0,584.8750530003599,4.0,1.0,phase_2,go,550.0,500.0,1.0,,,,,,,,,magenta,circle
0.0,2.0,1.0,0.0,5.0,5.0,823.4685889992761,4.0,1.0,phase_2,go,550.0,500.0,1.0,,,,,,,,,magenta,circle
0.0,6.0,1.0,1.0,5.0,5.0,653.9044440005455,4.0,1.0,phase_2,stop,550.0,500.0,3.0,,,,,,,,,green,I
0.0,5.0,0.5,1.0,6.0,6.0,1109.3212679998032,4.0,1.0,phase_2,go,500.0,500.0,1.0,,,,,,,,,yellow,flipped triangle
0.0,7.0,2.0,1.0,5.0,0.0,0.0,4.0,1.0,phase_2,stop,500.0,500.0,4.0,,,,,,,,,white,hexagon
0.0,8.0,4.0,1.0,5.0,0.0,0.0,4.0,1.0,phase_2,stop,550.0,500.0,4.0,,,,,,,,,orange,diamond
0.0,1.0,0.5,0.0,5.0,5.0,860.2076320003107,4.0,1.0,phase_2,go,600.0,500.0,1.0,,,,,,,,,cyan,cross
0.0,4.0,4.0,0.0,6.0,6.0,892.6249260002805,4.0,1.0,phase_2,go,600.0,500.0,1.0,,,,,,,,,gray,triangle
0.0,1.0,0.5,0.0,6.0,6.0,674.9934960007522,4.0,1.0,phase_2,go,600.0,500.0,1.0,,,,,,,,,cyan,cross
0.0,8.0,4.0,1.0,5.0,0.0,0.0,4.0,1.0,phase_2,stop,600.0,500.0,4.0,,,,,,,,,orange,diamond
0.0,5.0,0.5,1.0,6.0,0.0,0.0,4.0,1.0,phase_2,stop,650.0,500.0,4.0,,,,,,,,,yellow,flipped triangle
0.0,7.0,2.0,1.0,5.0,0.0,0.0,4.0,1.0,phase_2,stop,650.0,550.0,4.0,,,,,,,,,white,hexagon
0.0,4.0,4.0,0.0,6.0,6.0,945.6535319995965,4.0,1.0,phase_2,go,700.0,550.0,1.0,,,,,,,,,gray,triangle
0.0,6.0,1.0,1.0,6.0,0.0,0.0,4.0,1.0,phase_2,stop,700.0,550.0,4.0,,,,,,,,,green,I
0.0,4.0,4.0,0.0,5.0,5.0,887.8106380007011,4.0,1.0,phase_2,go,700.0,600.0,1.0,,,,,,,,,gray,triangle
0.0,3.0,2.0,0.0,5.0,5.0,1176.1759849996452,4.0,1.0,phase_2,go,700.0,600.0,1.0,,,,,,,,,blue,square
0.0,6.0,1.0,1.0,6.0,6.0,1079.2633549999664,4.0,1.0,phase_2,go,700.0,600.0,1.0,,,,,,,,,green,I
0.0,1.0,0.5,0.0,6.0,6.0,855.2227349991881,4.0,1.0,phase_2,go,700.0,600.0,1.0,,,,,,,,,cyan,cross
0.0,1.0,0.5,0.0,5.0,5.0,787.9359820008176,4.0,1.0,phase_2,go,700.0,600.0,1.0,,,,,,,,,cyan,cross
0.0,6.0,1.0,1.0,5.0,0.0,0.0,4.0,1.0,phase_2,stop,700.0,600.0,4.0,,,,,,,,,green,I
0.0,8.0,4.0,1.0,6.0,0.0,0.0,4.0,1.0,phase_2,stop,750.0,600.0,4.0,,,,,,,,,orange,diamond
0.0,4.0,4.0,0.0,5.0,5.0,1180.6674399995245,4.0,1.0,phase_2,go,750.0,650.0,1.0,,,,,,,,,gray,triangle
0.0,2.0,1.0,0.0,5.0,5.0,905.1303260002896,4.0,1.0,phase_2,go,750.0,650.0,1.0,,,,,,,,,magenta,circle
0.0,3.0,2.0,0.0,6.0,6.0,859.6622850000131,4.0,1.0,phase_2,go,750.0,650.0,1.0,,,,,,,,,blue,square
0.0,6.0,1.0,1.0,6.0,0.0,0.0,4.0,1.0,phase_2,stop,750.0,650.0,4.0,,,,,,,,,green,I
0.0,5.0,0.5,1.0,5.0,5.0,1127.4588750002297,4.0,1.0,phase_2,go,750.0,700.0,1.0,,,,,,,,,yellow,flipped triangle
0.0,5.0,0.5,1.0,5.0,5.0,648.6752490000072,4.0,1.0,phase_2,stop,750.0,700.0,3.0,,,,,,,,,yellow,flipped triangle
0.0,3.0,2.0,0.0,5.0,5.0,1063.756339000065,4.0,1.0,phase_2,go,700.0,700.0,1.0,,,,,,,,,blue,square
0.0,8.0,4.0,1.0,5.0,0.0,0.0,4.0,1.0,phase_2,stop,700.0,700.0,4.0,,,,,,,,,orange,diamond
0.0,4.0,4.0,0.0,6.0,6.0,925.702984000054,4.0,1.0,phase_2,go,750.0,700.0,1.0,,,,,,,,,gray,triangle
0.0,1.0,0.5,0.0,5.0,5.0,902.8288440003962,4.0,1.0,phase_2,go,750.0,700.0,1.0,,,,,,,,,cyan,cross
0.0,5.0,0.5,1.0,5.0,5.0,900.5960579997918,4.0,1.0,phase_2,stop,750.0,700.0,3.0,,,,,,,,,yellow,flipped triangle
0.0,2.0,1.0,0.0,5.0,5.0,797.9572949998328,4.0,1.0,phase_2,go,700.0,700.0,1.0,,,,,,,,,magenta,circle
0.0,3.0,2.0,0.0,6.0,6.0,865.1284810002835,5.0,1.0,phase_2,go,700.0,700.0,1.0,,,,,,,,,blue,square
0.0,5.0,0.5,1.0,6.0,6.0,593.0493979994935,5.0,1.0,phase_2,stop,700.0,700.0,3.0,,,,,,,,,yellow,flipped triangle
0.0,7.0,2.0,1.0,5.0,0.0,0.0,5.0,1.0,phase_2,stop,700.0,650.0,4.0,,,,,,,,,white,hexagon
0.0,2.0,1.0,0.0,6.0,6.0,1134.2108689996169,5.0,1.0,phase_2,go,750.0,650.0,1.0,,,,,,,,,magenta,circle
0.0,1.0,0.5,0.0,5.0,5.0,1101.3853029999154,5.0,1.0,phase_2,go,750.0,650.0,1.0,,,,,,,,,cyan,cross
0.0,1.0,0.5,0.0,6.0,6.0,789.2301869997027,5.0,1.0,phase_2,go,750.0,650.0,1.0,,,,,,,,,cyan,cross
0.0,7.0,2.0,1.0,6.0,6.0,420.4679570002554,5.0,1.0,phase_2,stop,750.0,650.0,3.0,,,,,,,,,white,hexagon
0.0,8.0,4.0,1.0,6.0,6.0,821.2191269994946,5.0,1.0,phase_2,stop,750.0,600.0,3.0,,,,,,,,,orange,diamond
0.0,4.0,4.0,0.0,5.0,5.0,733.2278160001806,5.0,1.0,phase_2,go,750.0,550.0,1.0,,,,,,,,,gray,triangle
0.0,4.0,4.0,0.0,6.0,6.0,762.7313630000572,5.0,1.0,phase_2,go,750.0,550.0,1.0,,,,,,,,,gray,triangle
0.0,1.0,0.5,0.0,6.0,6.0,961.3358269998572,5.0,1.0,phase_2,go,750.0,550.0,1.0,,,,,,,,,cyan,cross
0.0,6.0,1.0,1.0,5.0,5.0,775.5007189998651,5.0,1.0,phase_2,stop,750.0,550.0,3.0,,,,,,,,,green,I
0.0,1.0,0.5,0.0,5.0,0.0,0.0,5.0,1.0,phase_2,go,700.0,550.0,5.0,,,,,,,,,cyan,cross
0.0,4.0,4.0,0.0,6.0,6.0,609.6855069999947,5.0,1.0,phase_2,go,700.0,550.0,1.0,,,,,,,,,gray,triangle
0.0,4.0,4.0,0.0,6.0,6.0,735.8448360000693,5.0,1.0,phase_2,go,700.0,550.0,1.0,,,,,,,,,gray,triangle
0.0,6.0,1.0,1.0,6.0,0.0,0.0,5.0,1.0,phase_2,stop,700.0,550.0,4.0,,,,,,,,,green,I
0.0,1.0,0.5,0.0,6.0,6.0,1366.6456050004854,5.0,1.0,phase_2,go,700.0,600.0,1.0,,,,,,,,,cyan,cross
0.0,8.0,4.0,1.0,5.0,0.0,0.0,5.0,1.0,phase_2,stop,700.0,600.0,4.0,,,,,,,,,orange,diamond
0.0,2.0,1.0,0.0,6.0,6.0,886.5232080006535,5.0,1.0,phase_2,go,750.0,600.0,1.0,,,,,,,,,magenta,circle
0.0,4.0,4.0,0.0,5.0,5.0,1244.9398979997568,5.0,1.0,phase_2,go,750.0,600.0,1.0,,,,,,,,,gray,triangle
0.0,5.0,0.5,1.0,5.0,5.0,949.1136819997336,5.0,1.0,phase_2,go,750.0,600.0,1.0,,,,,,,,,yellow,flipped triangle
0.0,8.0,4.0,1.0,5.0,5.0,603.8162819995705,5.0,1.0,phase_2,stop,750.0,600.0,3.0,,,,,,,,,orange,diamond
0.0,7.0,2.0,1.0,6.0,6.0,379.3356019996281,5.0,1.0,phase_2,stop,700.0,600.0,3.0,,,,,,,,,white,hexagon
0.0,6.0,1.0,1.0,5.0,0.0,0.0,5.0,1.0,phase_2,stop,700.0,550.0,4.0,,,,,,,,,green,I
0.0,4.0,4.0,0.0,5.0,5.0,816.7025769998872,5.0,1.0,phase_2,go,750.0,550.0,1.0,,,,,,,,,gray,triangle
0.0,7.0,2.0,1.0,5.0,5.0,754.6328589996847,5.0,1.0,phase_2,go,750.0,550.0,1.0,,,,,,,,,white,hexagon
0.0,5.0,0.5,1.0,6.0,0.0,0.0,5.0,1.0,phase_2,stop,750.0,550.0,4.0,,,,,,,,,yellow,flipped triangle
0.0,5.0,0.5,1.0,6.0,6.0,782.5639809998393,5.0,1.0,phase_2,stop,750.0,600.0,3.0,,,,,,,,,yellow,flipped triangle
0.0,4.0,4.0,0.0,5.0,5.0,864.4558249998227,5.0,1.0,phase_2,go,750.0,550.0,1.0,,,,,,,,,gray,triangle
0.0,5.0,0.5,1.0,5.0,5.0,544.4770080002854,5.0,1.0,phase_2,stop,750.0,550.0,3.0,,,,,,,,,yellow,flipped triangle
0.0,1.0,0.5,0.0,5.0,5.0,1037.9950850001478,5.0,1.0,phase_2,go,700.0,550.0,1.0,,,,,,,,,cyan,cross
0.0,2.0,1.0,0.0,5.0,5.0,679.2940680006723,5.0,1.0,phase_2,go,700.0,550.0,1.0,,,,,,,,,magenta,circle
0.0,7.0,2.0,1.0,5.0,5.0,766.0053899999184,5.0,1.0,phase_2,go,700.0,550.0,1.0,,,,,,,,,white,hexagon
0.0,7.0,2.0,1.0,5.0,5.0,611.015753999709,5.0,1.0,phase_2,stop,700.0,550.0,3.0,,,,,,,,,white,hexagon
0.0,8.0,4.0,1.0,5.0,5.0,907.8179890002502,5.0,1.0,phase_2,go,650.0,550.0,1.0,,,,,,,,,orange,diamond
0.0,3.0,2.0,0.0,5.0,5.0,922.3889189997864,5.0,1.0,phase_2,go,650.0,550.0,1.0,,,,,,,,,blue,square
0.0,2.0,1.0,0.0,6.0,6.0,545.1994590002869,6.0,1.0,phase_2,go,650.0,550.0,1.0,,,,,,,,,magenta,circle
0.0,3.0,2.0,0.0,6.0,6.0,786.973558999307,6.0,1.0,phase_2,go,650.0,550.0,1.0,,,,,,,,,blue,square
0.0,5.0,0.5,1.0,5.0,0.0,0.0,6.0,1.0,phase_2,stop,650.0,550.0,4.0,,,,,,,,,yellow,flipped triangle
0.0,5.0,0.5,1.0,6.0,0.0,0.0,6.0,1.0,phase_2,stop,700.0,550.0,4.0,,,,,,,,,yellow,flipped triangle
0.0,8.0,4.0,1.0,5.0,0.0,0.0,6.0,1.0,phase_2,stop,700.0,600.0,4.0,,,,,,,,,orange,diamond
0.0,2.0,1.0,0.0,6.0,6.0,933.8520129995233,6.0,1.0,phase_2,go,750.0,600.0,1.0,,,,,,,,,magenta,circle
0.0,6.0,1.0,1.0,6.0,6.0,1158.086007999373,6.0,1.0,phase_2,go,750.0,600.0,1.0,,,,,,,,,green,I
0.0,5.0,0.5,1.0,6.0,0.0,0.0,6.0,1.0,phase_2,stop,750.0,600.0,4.0,,,,,,,,,yellow,flipped triangle
0.0,2.0,1.0,0.0,5.0,5.0,892.1900180002922,6.0,1.0,phase_2,go,750.0,650.0,1.0,,,,,,,,,magenta,circle
0.0,2.0,1.0,0.0,5.0,5.0,939.619046000189,6.0,1.0,phase_2,go,750.0,650.0,1.0,,,,,,,,,magenta,circle
0.0,1.0,0.5,0.0,6.0,6.0,1314.393126000141,6.0,1.0,phase_2,go,750.0,650.0,1.0,,,,,,,,,cyan,cross
0.0,6.0,1.0,1.0,6.0,0.0,0.0,6.0,1.0,phase_2,stop,750.0,650.0,4.0,,,,,,,,,green,I
0.0,2.0,1.0,0.0,5.0,5.0,1025.8465110000543,6.0,1.0,phase_2,go,750.0,700.0,1.0,,,,,,,,,magenta,circle
0.0,6.0,1.0,1.0,5.0,5.0,1322.8967479999485,6.0,1.0,phase_2,go,750.0,700.0,1.0,,,,,,,,,green,I
0.0,5.0,0.5,1.0,5.0,5.0,895.9172689992556,6.0,1.0,phase_2,stop,750.0,700.0,3.0,,,,,,,,,yellow,flipped triangle
0.0,7.0,2.0,1.0,5.0,0.0,0.0,6.0,1.0,phase_2,stop,700.0,700.0,4.0,,,,,,,,,white,hexagon
0.0,3.0,2.0,0.0,6.0,6.0,999.3415320004716,6.0,1.0,phase_2,go,750.0,700.0,1.0,,,,,,,,,blue,square
0.0,6.0,1.0,1.0,6.0,0.0,0.0,6.0,1.0,phase_2,stop,750.0,700.0,4.0,,,,,,,,,green,I
0.0,4.0,4.0,0.0,6.0,6.0,830.874293999841,6.0,1.0,phase_2,go,750.0,750.0,1.0,,,,,,,,,gray,triangle
0.0,5.0,0.5,1.0,5.0,5.0,647.0740439999645,6.0,1.0,phase_2,stop,750.0,750.0,3.0,,,,,,,,,yellow,flipped triangle
0.0,6.0,1.0,1.0,6.0,6.0,1364.9608080004327,6.0,1.0,phase_2,go,700.0,750.0,1.0,,,,,,,,,green,I
0.0,6.0,1.0,1.0,5.0,0.0,0.0,6.0,1.0,phase_2,stop,700.0,750.0,4.0,,,,,,,,,green,I
0.0,6.0,1.0,1.0,6.0,0.0,0.0,6.0,1.0,phase_2,stop,750.0,750.0,4.0,,,,,,,,,green,I
0.0,3.0,2.0,0.0,6.0,6.0,1124.292231000254,6.0,1.0,phase_2,go,750.0,800.0,1.0,,,,,,,,,blue,square
0.0,2.0,1.0,0.0,5.0,5.0,954.7418719994312,6.0,1.0,phase_2,go,750.0,800.0,1.0,,,,,,,,,magenta,circle
0.0,3.0,2.0,0.0,6.0,6.0,987.5193920006496,6.0,1.0,phase_2,go,750.0,800.0,1.0,,,,,,,,,blue,square
0.0,8.0,4.0,1.0,5.0,0.0,0.0,6.0,1.0,phase_2,stop,750.0,800.0,4.0,,,,,,,,,orange,diamond
0.0,4.0,4.0,0.0,5.0,5.0,809.9472180001612,6.0,1.0,phase_2,go,800.0,800.0,1.0,,,,,,,,,gray,triangle
0.0,5.0,0.5,1.0,6.0,0.0,0.0,6.0,1.0,phase_2,stop,800.0,800.0,4.0,,,,,,,,,yellow,flipped triangle
0.0,5.0,0.5,1.0,6.0,6.0,1407.4401990001206,6.0,1.0,phase_2,go,800.0,850.0,1.0,,,,,,,,,yellow,flipped triangle
0.0,8.0,4.0,1.0,6.0,6.0,982.0937100002992,6.0,1.0,phase_2,stop,800.0,850.0,3.0,,,,,,,,,orange,diamond
0.0,6.0,1.0,1.0,5.0,0.0,0.0,6.0,1.0,phase_2,stop,800.0,800.0,4.0,,,,,,,,,green,I
0.0,3.0,2.0,0.0,6.0,6.0,1007.2324800003116,6.0,1.0,phase_2,go,850.0,800.0,1.0,,,,,,,,,blue,square
0.0,6.0,1.0,1.0,5.0,0.0,0.0,6.0,1.0,phase_2,stop,850.0,800.0,4.0,,,,,,,,,green,I
0.0,1.0,0.5,0.0,5.0,5.0,860.3058750004493,6.0,1.0,phase_2,go,900.0,800.0,1.0,,,,,,,,,cyan,cross
0.0,7.0,2.0,1.0,6.0,0.0,0.0,6.0,1.0,phase_2,stop,900.0,800.0,4.0,,,,,,,,,white,hexagon
0.0,6.0,1.0,1.0,6.0,6.0,474.994732999221,7.0,1.0,phase_2,stop,900.0,850.0,3.0,,,,,,,,,green,I
0.0,7.0,2.0,1.0,5.0,5.0,859.8217209992072,7.0,1.0,phase_2,stop,900.0,800.0,3.0,,,,,,,,,white,hexagon
0.0,2.0,1.0,0.0,5.0,5.0,1144.6315220000542,7.0,1.0,phase_2,go,850.0,800.0,1.0,,,,,,,,,magenta,circle
0.0,7.0,2.0,1.0,6.0,6.0,930.21596699964,7.0,1.0,phase_2,go,850.0,800.0,1.0,,,,,,,,,white,hexagon
0.0,2.0,1.0,0.0,6.0,6.0,1161.871902000712,7.0,1.0,phase_2,go,850.0,800.0,1.0,,,,,,,,,magenta,circle
0.0,4.0,4.0,0.0,5.0,5.0,1007.7981750000615,7.0,1.0,phase_2,go,850.0,800.0,1.0,,,,,,,,,gray,triangle
0.0,7.0,2.0,1.0,6.0,6.0,624.8143310003798,7.0,1.0,phase_2,stop,850.0,800.0,3.0,,,,,,,,,white,hexagon
0.0,7.0,2.0,1.0,6.0,6.0,824.5415060000596,7.0,1.0,phase_2,go,850.0,750.0,1.0,,,,,,,,,white,hexagon
0.0,4.0,4.0,0.0,5.0,5.0,981.6467550008384,7.0,1.0,phase_2,go,850.0,750.0,1.0,,,,,,,,,gray,triangle
0.0,7.0,2.0,1.0,6.0,6.0,1012.4183320003797,7.0,1.0,phase_2,go,850.0,750.0,1.0,,,,,,,,,white,hexagon
0.0,5.0,0.5,1.0,5.0,5.0,781.211159999657,7.0,1.0,phase_2,stop,850.0,750.0,3.0,,,,,,,,,yellow,flipped triangle
0.0,1.0,0.5,0.0,5.0,5.0,923.8290109997253,7.0,1.0,phase_2,go,800.0,750.0,1.0,,,,,,,,,cyan,cross
0.0,4.0,4.0,0.0,5.0,5.0,1100.6426339999962,7.0,1.0,phase_2,go,800.0,750.0,1.0,,,,,,,,,gray,triangle
0.0,5.0,0.5,1.0,6.0,6.0,1140.3401400002622,7.0,1.0,phase_2,go,800.0,750.0,1.0,,,,,,,,,yellow,flipped triangle
0.0,2.0,1.0,0.0,6.0,6.0,1497.8901109998333,7.0,1.0,phase_2,go,800.0,750.0,1.0,,,,,,,,,magenta,circle
0.0,6.0,1.0,1.0,5.0,0.0,0.0,7.0,1.0,phase_2,stop,800.0,750.0,4.0,,,,,,,,,green,I
0.0,1.0,0.5,0.0,5.0,5.0,1049.5937720006625,7.0,1.0,phase_2,go,850.0,750.0,1.0,,,,,,,,,cyan,cross
0.0,4.0,4.0,0.0,5.0,5.0,1144.7948360000737,7.0,1.0,phase_2,go,850.0,750.0,1.0,,,,,,,,,gray,triangle
0.0,3.0,2.0,0.0,5.0,0.0,0.0,7.0,1.0,phase_2,go,850.0,750.0,5.0,,,,,,,,,blue,square
0.0,1.0,0.5,0.0,6.0,6.0,512.3055359999853,7.0,1.0,phase_2,go,850.0,750.0,1.0,,,,,,,,,cyan,cross
0.0,2.0,1.0,0.0,6.0,6.0,565.6858749998719,7.0,1.0,phase_2,go,850.0,750.0,1.0,,,,,,,,,magenta,circle
0.0,2.0,1.0,0.0,6.0,6.0,533.5470060008447,7.0,1.0,phase_2,go,850.0,750.0,1.0,,,,,,,,,magenta,circle
0.0,1.0,0.5,0.0,6.0,6.0,558.3054520002406,7.0,1.0,phase_2,go,850.0,750.0,1.0,,,,,,,,,cyan,cross
0.0,3.0,2.0,0.0,5.0,5.0,547.6001429997268,7.0,1.0,phase_2,go,850.0,750.0,1.0,,,,,,,,,blue,square
0.0,2.0,1.0,0.0,5.0,5.0,573.0721190002441,7.0,1.0,phase_2,go,850.0,750.0,1.0,,,,,,,,,magenta,circle
0.0,7.0,2.0,1.0,6.0,6.0,509.0662060001705,7.0,1.0,phase_2,stop,850.0,750.0,3.0,,,,,,,,,white,hexagon
0.0,8.0,4.0,1.0,6.0,6.0,650.4714290003903,7.0,1.0,phase_2,stop,850.0,700.0,3.0,,,,,,,,,orange,diamond
0.0,3.0,2.0,0.0,6.0,6.0,881.5051800002038,7.0,1.0,phase_2,go,850.0,650.0,1.0,,,,,,,,,blue,square
0.0,7.0,2.0,1.0,6.0,6.0,714.6179979999943,7.0,1.0,phase_2,stop,850.0,650.0,3.0,,,,,,,,,white,hexagon
0.0,2.0,1.0,0.0,5.0,5.0,704.0220529997896,7.0,1.0,phase_2,go,850.0,600.0,1.0,,,,,,,,,magenta,circle
0.0,8.0,4.0,1.0,5.0,5.0,968.181917000038,7.0,1.0,phase_2,stop,850.0,600.0,3.0,,,,,,,,,orange,diamond
0.0,1.0,0.5,0.0,5.0,5.0,943.6158099997556,7.0,1.0,phase_2,go,800.0,600.0,1.0,,,,,,,,,cyan,cross
0.0,4.0,4.0,0.0,6.0,6.0,920.221925000078,7.0,1.0,phase_2,go,800.0,600.0,1.0,,,,,,,,,gray,triangle
0.0,8.0,4.0,1.0,5.0,5.0,936.505057999966,7.0,1.0,phase_2,stop,800.0,600.0,3.0,,,,,,,,,orange,diamond
0.0,5.0,0.5,1.0,6.0,0.0,0.0,7.0,1.0,phase_2,stop,750.0,600.0,4.0,,,,,,,,,yellow,flipped triangle
0.0,6.0,1.0,1.0,5.0,5.0,1365.2408600000854,7.0,1.0,phase_2,go,750.0,650.0,1.0,,,,,,,,,green,I
0.0,3.0,2.0,0.0,6.0,6.0,768.3465889995205,8.0,1.0,phase_2,go,750.0,650.0,1.0,,,,,,,,,blue,square
0.0,1.0,0.5,0.0,6.0,6.0,520.1137330004713,8.0,1.0,phase_2,go,750.0,650.0,1.0,,,,,,,,,cyan,cross
0.0,4.0,4.0,0.0,5.0,5.0,623.4783009995226,8.0,1.0,phase_2,go,750.0,650.0,1.0,,,,,,,,,gray,triangle
0.0,1.0,0.5,0.0,5.0,5.0,405.4649370000334,8.0,1.0,phase_2,go,750.0,650.0,1.0,,,,,,,,,cyan,cross
0.0,6.0,1.0,1.0,5.0,5.0,444.8681940002643,8.0,1.0,phase_2,stop,750.0,650.0,3.0,,,,,,,,,green,I
0.0,3.0,2.0,0.0,5.0,5.0,812.5676169993312,8.0,1.0,phase_2,go,700.0,650.0,1.0,,,,,,,,,blue,square
0.0,3.0,2.0,0.0,5.0,5.0,899.7731790004764,8.0,1.0,phase_2,go,700.0,650.0,1.0,,,,,,,,,blue,square
0.0,2.0,1.0,0.0,6.0,6.0,723.0151889998524,8.0,1.0,phase_2,go,700.0,650.0,1.0,,,,,,,,,magenta,circle
0.0,2.0,1.0,0.0,5.0,5.0,635.937128000478,8.0,1.0,phase_2,go,700.0,650.0,1.0,,,,,,,,,magenta,circle
0.0,5.0,0.5,1.0,5.0,5.0,497.7419889992234,8.0,1.0,phase_2,stop,700.0,650.0,3.0,,,,,,,,,yellow,flipped triangle
0.0,3.0,2.0,0.0,5.0,5.0,912.806321000062,8.0,1.0,phase_2,go,650.0,650.0,1.0,,,,,,,,,blue,square
0.0,5.0,0.5,1.0,5.0,5.0,585.756386999492,8.0,1.0,phase_2,stop,650.0,650.0,3.0,,,,,,,,,yellow,flipped triangle
0.0,6.0,1.0,1.0,6.0,6.0,967.7983769997808,8.0,1.0,phase_2,go,600.0,650.0,1.0,,,,,,,,,green,I
0.0,5.0,0.5,1.0,6.0,6.0,920.449376999386,8.0,1.0,phase_2,go,600.0,650.0,1.0,,,,,,,,,yellow,flipped triangle
0.0,4.0,4.0,0.0,5.0,0.0,0.0,8.0,1.0,phase_2,go,600.0,650.0,5.0,,,,,,,,,gray,triangle
0.0,5.0,0.5,1.0,6.0,6.0,381.4393259999633,8.0,1.0,phase_2,stop,600.0,650.0,3.0,,,,,,,,,yellow,flipped triangle
0.0,1.0,0.5,0.0,6.0,6.0,541.263075999268,8.0,1.0,phase_2,go,600.0,600.0,1.0,,,,,,,,,cyan,cross
0.0,6.0,1.0,1.0,6.0,6.0,564.9466849999953,8.0,1.0,phase_2,stop,600.0,600.0,3.0,,,,,,,,,green,I
0.0,7.0,2.0,1.0,5.0,5.0,444.287099999201,8.0,1.0,phase_2,stop,600.0,550.0,3.0,,,,,,,,,white,hexagon
0.0,8.0,4.0,1.0,6.0,6.0,795.4452339999989,8.0,1.0,phase_2,go,550.0,550.0,1.0,,,,,,,,,orange,diamond
0.0,6.0,1.0,1.0,6.0,0.0,0.0,8.0,1.0,phase_2,stop,550.0,550.0,4.0,,,,,,,,,green,I
0.0,1.0,0.5,0.0,6.0,6.0,851.6253750003671,8.0,1.0,phase_2,go,550.0,600.0,1.0,,,,,,,,,cyan,cross
0.0,2.0,1.0,0.0,5.0,5.0,978.7178770002356,8.0,1.0,phase_2,go,550.0,600.0,1.0,,,,,,,,,magenta,circle
0.0,4.0,4.0,0.0,5.0,5.0,978.2433939999464,8.0,1.0,phase_2,go,550.0,600.0,1.0,,,,,,,,,gray,triangle
0.0,7.0,2.0,1.0,6.0,0.0,0.0,8.0,1.0,phase_2,stop,550.0,600.0,4.0,,,,,,,,,white,hexagon
0.0,1.0,0.5,0.0,5.0,5.0,1055.3158930006248,8.0,1.0,phase_2,go,550.0,650.0,1.0,,,,,,,,,cyan,cross
0.0,4.0,4.0,0.0,6.0,6.0,680.1003769996896,8.0,1.0,phase_2,go,550.0,650.0,1.0,,,,,,,,,gray,triangle
0.0,5.0,0.5,1.0,5.0,0.0,0.0,8.0,1.0,phase_2,stop,550.0,650.0,4.0,,,,,,,,,yellow,flipped triangle
0.0,5.0,0.5,1.0,5.0,0.0,0.0,8.0,1.0,phase_2,stop,600.0,650.0,4.0,,,,,,,,,yellow,flipped triangle
0.0,8.0,4.0,1.0,5.0,5.0,837.2442970003249,8.0,1.0,phase_2,stop,650.0,650.0,3.0,,,,,,,,,orange,diamond
0.0,3.0,2.0,0.0,5.0,5.0,899.9450209994393,8.0,1.0,phase_2,go,600.0,650.0,1.0,,,,,,,,,blue,square
0.0,2.0,1.0,0.0,6.0,0.0,0.0,8.0,1.0,phase_2,go,600.0,650.0,5.0,,,,,,,,,magenta,circle
0.0,2.0,1.0,0.0,6.0,6.0,484.6434150003915,8.0,1.0,phase_2,go,600.0,650.0,1.0,,,,,,,,,magenta,circle
0.0,7.0,2.0,1.0,6.0,6.0,682.0448170001328,8.0,1.0,phase_2,stop,600.0,650.0,3.0,,,,,,,,,white,hexagon
0.0,2.0,1.0,0.0,6.0,6.0,977.5344089994178,8.0,1.0,phase_2,go,600.0,600.0,1.0,,,,,,,,,magenta,circle
0.0,3.0,2.0,0.0,6.0,6.0,952.71473899993,8.0,1.0,phase_2,go,600.0,600.0,1.0,,,,,,,,,blue,square
0.0,1.0,0.5,0.0,7.0,1.0,2060.9408210002584,1.0,2.0,phase_3,,,,,865.0,5.0,865.0,1038.0,692.0,519.0,346.0,173.0,cyan,cross
0.0,6.0,1.0,1.0,7.0,3.0,1568.988540000646,1.0,2.0,phase_3,,,,,692.0,4.0,519.0,346.0,692.0,1038.0,173.0,865.0,green,I
0.0,8.0,4.0,1.0,7.0,3.0,4871.055509000144,1.0,1.0,phase_3,,,,,580.0,5.0,232.0,696.0,580.0,348.0,116.0,464.0,orange,diamond
0.0,2.0,1.0,0.0,7.0,4.0,2794.2440260003423,1.0,1.0,phase_3,,,,,576.0,3.0,768.0,192.0,384.0,576.0,1152.0,960.0,magenta,circle
0.0,8.0,4.0,1.0,7.0,5.0,3099.08547500072,1.0,1.0,phase_3,,,,,770.0,5.0,308.0,924.0,616.0,154.0,770.0,462.0,orange,diamond
0.0,7.0,2.0,1.0,7.0,6.0,2279.645911999978,1.0,1.0,phase_3,,,,,675.0,5.0,135.0,810.0,405.0,270.0,540.0,675.0,white,hexagon
0.0,6.0,1.0,1.0,7.0,3.0,2974.4711439998355,1.0,1.0,phase_3,,,,,810.0,6.0,270.0,135.0,810.0,675.0,540.0,405.0,green,I
0.0,5.0,0.5,1.0,7.0,4.0,1497.838143000081,1.0,1.0,phase_3,,,,,154.0,1.0,308.0,462.0,770.0,154.0,616.0,924.0,yellow,flipped triangle
0.0,8.0,4.0,1.0,7.0,5.0,2208.1448160006403,1.0,1.0,phase_3,,,,,1038.0,6.0,173.0,692.0,519.0,346.0,1038.0,865.0,orange,diamond
0.0,7.0,2.0,1.0,7.0,3.0,2105.6917179994343,1.0,1.0,phase_3,,,,,768.0,4.0,960.0,1152.0,768.0,384.0,576.0,192.0,white,hexagon
0.0,4.0,4.0,0.0,7.0,5.0,2427.089783000156,1.0,1.0,phase_3,,,,,616.0,4.0,770.0,462.0,154.0,924.0,616.0,308.0,gray,triangle
0.0,5.0,0.5,1.0,7.0,3.0,2300.970853999388,1.0,1.0,phase_3,,,,,464.0,4.0,580.0,232.0,464.0,696.0,116.0,348.0,yellow,flipped triangle
0.0,8.0,4.0,1.0,7.0,3.0,2277.5111119999565,1.0,1.0,phase_3,,,,,770.0,5.0,462.0,924.0,770.0,154.0,308.0,616.0,orange,diamond
0.0,4.0,4.0,0.0,7.0,3.0,2897.5067310002487,1.0,1.0,phase_3,,,,,675.0,5.0,810.0,540.0,675.0,270.0,135.0,405.0,gray,triangle
0.0,8.0,4.0,1.0,7.0,6.0,3248.885943999994,1.0,1.0,phase_3,,,,,580.0,5.0,696.0,116.0,348.0,464.0,232.0,580.0,orange,diamond
0.0,3.0,2.0,0.0,7.0,1.0,2260.0189329996283,1.0,1.0,phase_3,,,,,346.0,2.0,346.0,173.0,692.0,519.0,1038.0,865.0,blue,square
0.0,6.0,1.0,1.0,7.0,3.0,3428.6760559998584,1.0,1.0,phase_3,,,,,576.0,3.0,768.0,960.0,576.0,384.0,1152.0,192.0,green,I
0.0,8.0,4.0,1.0,7.0,3.0,3348.1397549994654,1.0,1.0,phase_3,,,,,865.0,5.0,346.0,519.0,865.0,692.0,173.0,1038.0,orange,diamond
0.0,3.0,2.0,0.0,7.0,3.0,2677.693687999636,1.0,1.0,phase_3,,,,,348.0,3.0,696.0,232.0,348.0,580.0,464.0,116.0,blue,square
0.0,8.0,4.0,1.0,7.0,6.0,2510.0056339997536,1.0,1.0,phase_3,,,,,960.0,5.0,192.0,384.0,1152.0,768.0,576.0,960.0,orange,diamond
0.0,3.0,2.0,0.0,7.0,3.0,1428.5806240004604,2.0,1.0,phase_3,,,,,384.0,2.0,768.0,192.0,384.0,960.0,1152.0,576.0,blue,square
0.0,2.0,1.0,0.0,7.0,2.0,2771.9513379997807,2.0,1.0,phase_3,,,,,308.0,2.0,770.0,308.0,462.0,924.0,154.0,616.0,magenta,circle
0.0,6.0,1.0,1.0,7.0,4.0,1287.3653870001365,2.0,1.0,phase_3,,,,,464.0,4.0,232.0,696.0,348.0,464.0,580.0,116.0,green,I
0.0,5.0,0.5,1.0,7.0,4.0,2550.5123009997988,2.0,1.0,phase_3,,,,,346.0,2.0,692.0,865.0,1038.0,346.0,519.0,173.0,yellow,flipped triangle
0.0,2.0,1.0,0.0,7.0,5.0,2127.955920000204,2.0,1.0,phase_3,,,,,464.0,4.0,580.0,696.0,116.0,232.0,464.0,348.0,magenta,circle
0.0,7.0,2.0,1.0,7.0,4.0,2185.383560000446,2.0,1.0,phase_3,,,,,116.0,1.0,348.0,232.0,464.0,116.0,580.0,696.0,white,hexagon
0.0,6.0,1.0,1.0,7.0,5.0,2827.2904149998794,2.0,1.0,phase_3,,,,,540.0,4.0,810.0,675.0,135.0,405.0,540.0,270.0,green,I
0.0,7.0,2.0,1.0,7.0,2.0,2718.2622959999208,2.0,1.0,phase_3,,,,,462.0,3.0,616.0,462.0,770.0,924.0,154.0,308.0,white,hexagon
0.0,1.0,0.5,0.0,7.0,4.0,3364.4480859993564,2.0,1.0,phase_3,,,,,192.0,1.0,960.0,384.0,1152.0,192.0,768.0,576.0,cyan,cross
0.0,5.0,0.5,1.0,7.0,5.0,2072.8188809998755,2.0,1.0,phase_3,,,,,270.0,2.0,405.0,675.0,540.0,135.0,270.0,810.0,yellow,flipped triangle
0.0,4.0,4.0,0.0,7.0,3.0,2865.2053919995524,2.0,1.0,phase_3,,,,,960.0,5.0,1152.0,384.0,960.0,192.0,576.0,768.0,gray,triangle
0.0,8.0,4.0,1.0,7.0,5.0,3106.682329999785,2.0,1.0,phase_3,,,,,810.0,6.0,270.0,135.0,405.0,675.0,810.0,540.0,orange,diamond
0.0,6.0,1.0,1.0,7.0,5.0,2610.374431999844,2.0,1.0,phase_3,,,,,384.0,2.0,576.0,960.0,768.0,192.0,384.0,1152.0,green,I
0.0,6.0,1.0,1.0,7.0,3.0,3291.515965000144,2.0,1.0,phase_3,,,,,462.0,3.0,924.0,616.0,462.0,154.0,308.0,770.0,green,I
0.0,2.0,1.0,0.0,7.0,4.0,3605.224618000648,2.0,1.0,phase_3,,,,,346.0,2.0,1038.0,519.0,692.0,346.0,865.0,173.0,magenta,circle
0.0,6.0,1.0,1.0,7.0,3.0,2572.976739000296,2.0,1.0,phase_3,,,,,348.0,3.0,464.0,696.0,348.0,116.0,232.0,580.0,green,I
0.0,1.0,0.5,0.0,7.0,2.0,2399.4691150001017,2.0,1.0,phase_3,,,,,519.0,3.0,1038.0,519.0,346.0,865.0,692.0,173.0,cyan,cross
0.0,2.0,1.0,0.0,7.0,4.0,2753.5947019996456,2.0,1.0,phase_3,,,,,384.0,2.0,192.0,576.0,960.0,384.0,768.0,1152.0,magenta,circle
0.0,2.0,1.0,0.0,7.0,2.0,3089.295166999364,2.0,1.0,phase_3,,,,,519.0,3.0,1038.0,519.0,865.0,346.0,173.0,692.0,magenta,circle
0.0,2.0,1.0,0.0,7.0,6.0,2948.5966610000105,2.0,1.0,phase_3,,,,,540.0,4.0,675.0,135.0,405.0,270.0,810.0,540.0,magenta,circle
0.0,1.0,0.5,0.0,7.0,4.0,1836.3775770003483,3.0,1.0,phase_3,,,,,576.0,3.0,384.0,960.0,192.0,576.0,1152.0,768.0,cyan,cross
0.0,3.0,2.0,0.0,7.0,3.0,2816.2818810005774,3.0,1.0,phase_3,,,,,519.0,3.0,692.0,865.0,519.0,173.0,1038.0,346.0,blue,square
0.0,3.0,2.0,0.0,7.0,2.0,2481.180795999535,3.0,1.0,phase_3,,,,,270.0,2.0,540.0,270.0,810.0,135.0,675.0,405.0,blue,square
0.0,6.0,1.0,1.0,7.0,3.0,2394.7557299998152,3.0,1.0,phase_3,,,,,462.0,3.0,616.0,154.0,462.0,308.0,770.0,924.0,green,I
0.0,3.0,2.0,0.0,7.0,5.0,3121.308563999264,3.0,1.0,phase_3,,,,,462.0,3.0,770.0,154.0,308.0,616.0,462.0,924.0,blue,square
0.0,2.0,1.0,0.0,7.0,3.0,3437.0099580000897,3.0,1.0,phase_3,,,,,540.0,4.0,135.0,810.0,540.0,405.0,675.0,270.0,magenta,circle
0.0,5.0,0.5,1.0,7.0,5.0,2315.6668089995947,3.0,1.0,phase_3,,,,,308.0,2.0,154.0,770.0,924.0,462.0,308.0,616.0,yellow,flipped triangle
0.0,4.0,4.0,0.0,7.0,2.0,2572.668761999921,3.0,1.0,phase_3,,,,,770.0,5.0,462.0,770.0,616.0,308.0,154.0,924.0,gray,triangle
0.0,5.0,0.5,1.0,7.0,5.0,2568.231047000154,3.0,1.0,phase_3,,,,,384.0,2.0,1152.0,192.0,768.0,960.0,384.0,576.0,yellow,flipped triangle
0.0,5.0,0.5,1.0,7.0,5.0,1984.2322560007235,3.0,1.0,phase_3,,,,,346.0,2.0,692.0,519.0,173.0,1038.0,346.0,865.0,yellow,flipped triangle
0.0,4.0,4.0,0.0,7.0,2.0,2536.671710999144,3.0,1.0,phase_3,,,,,810.0,6.0,405.0,810.0,270.0,135.0,675.0,540.0,gray,triangle
0.0,4.0,4.0,0.0,7.0,2.0,2483.6077079999086,3.0,1.0,phase_3,,,,,865.0,5.0,346.0,865.0,1038.0,173.0,692.0,519.0,gray,triangle
0.0,7.0,2.0,1.0,7.0,2.0,3154.913602000306,3.0,1.0,phase_3,,,,,1038.0,6.0,519.0,1038.0,692.0,865.0,346.0,173.0,white,hexagon
0.0,1.0,0.5,0.0,7.0,5.0,1828.941714999928,3.0,1.0,phase_3,,,,,616.0,4.0,462.0,154.0,924.0,308.0,616.0,770.0,cyan,cross
0.0,3.0,2.0,0.0,7.0,2.0,2006.275060999542,3.0,1.0,phase_3,,,,,384.0,2.0,768.0,384.0,192.0,576.0,960.0,1152.0,blue,square
0.0,4.0,4.0,0.0,7.0,2.0,1817.6496559999575,3.0,1.0,phase_3,,,,,384.0,2.0,960.0,384.0,1152.0,192.0,768.0,576.0,gray,triangle
0.0,1.0,0.5,0.0,7.0,2.0,1874.524223999288,3.0,1.0,phase_3,,,,,696.0,6.0,116.0,696.0,464.0,232.0,580.0,348.0,cyan,cross
0.0,7.0,2.0,1.0,7.0,6.0,2185.772900999837,3.0,1.0,phase_3,,,,,768.0,4.0,1152.0,384.0,960.0,576.0,192.0,768.0,white,hexagon
0.0,1.0,0.5,0.0,7.0,3.0,2676.2603619999936,3.0,1.0,phase_3,,,,,770.0,5.0,154.0,616.0,770.0,924.0,462.0,308.0,cyan,cross
0.0,8.0,4.0,1.0,7.0,5.0,1966.758557000503,3.0,1.0,phase_3,,,,,810.0,6.0,540.0,675.0,270.0,135.0,810.0,405.0,orange,diamond
0.0,7.0,2.0,1.0,7.0,1.0,2262.9261410002077,4.0,1.0,phase_3,,,,,540.0,4.0,540.0,270.0,810.0,675.0,135.0,405.0,white,hexagon
0.0,3.0,2.0,0.0,7.0,5.0,2305.1694890000363,4.0,1.0,phase_3,,,,,308.0,2.0,154.0,770.0,462.0,616.0,308.0,924.0,blue,square
0.0,3.0,2.0,0.0,7.0,2.0,2289.1278550005154,4.0,1.0,phase_3,,,,,405.0,3.0,270.0,405.0,810.0,135.0,675.0,540.0,blue,square
0.0,8.0,4.0,1.0,7.0,6.0,2209.793652000372,4.0,1.0,phase_3,,,,,768.0,4.0,576.0,1152.0,192.0,960.0,384.0,768.0,orange,diamond
0.0,4.0,4.0,0.0,7.0,1.0,2570.9705069994016,4.0,1.0,phase_3,,,,,696.0,6.0,696.0,232.0,464.0,580.0,348.0,116.0,gray,triangle
0.0,4.0,4.0,0.0,7.0,5.0,2254.5485460004784,4.0,1.0,phase_3,,,,,696.0,6.0,464.0,348.0,580.0,232.0,696.0,116.0,gray,triangle
0.0,5.0,0.5,1.0,7.0,2.0,2621.6795880000063,4.0,1.0,phase_3,,,,,580.0,5.0,464.0,580.0,348.0,232.0,696.0,116.0,yellow,flipped triangle
0.0,6.0,1.0,1.0,7.0,2.0,3318.382993000341,4.0,1.0,phase_3,,,,,519.0,3.0,346.0,519.0,865.0,173.0,692.0,1038.0,green,I
0.0,2.0,1.0,0.0,7.0,2.0,2328.596182000183,4.0,1.0,phase_3,,,,,308.0,2.0,462.0,308.0,924.0,154.0,770.0,616.0,magenta,circle
0.0,4.0,4.0,0.0,7.0,3.0,2248.692717999802,4.0,1.0,phase_3,,,,,1038.0,6.0,346.0,692.0,1038.0,519.0,865.0,173.0,gray,triangle
0.0,1.0,0.5,0.0,7.0,6.0,2409.627463000106,4.0,1.0,phase_3,,,,,464.0,4.0,580.0,696.0,116.0,232.0,348.0,464.0,cyan,cross
0.0,5.0,0.5,1.0,7.0,2.0,2387.6499569996668,4.0,1.0,phase_3,,,,,270.0,2.0,405.0,270.0,540.0,675.0,810.0,135.0,yellow,flipped triangle
0.0,3.0,2.0,0.0,7.0,3.0,2767.1134000001985,4.0,1.0,phase_3,,,,,580.0,5.0,464.0,696.0,580.0,116.0,348.0,232.0,blue,square
0.0,1.0,0.5,0.0,7.0,5.0,3055.600274000426,4.0,1.0,phase_3,,,,,540.0,4.0,675.0,270.0,135.0,810.0,540.0,405.0,cyan,cross
0.0,7.0,2.0,1.0,7.0,2.0,3166.873621999912,4.0,1.0,phase_3,,,,,692.0,4.0,865.0,692.0,1038.0,173.0,346.0,519.0,white,hexagon
0.0,1.0,0.5,0.0,7.0,2.0,2369.6363819999533,4.0,1.0,phase_3,,,,,675.0,5.0,405.0,675.0,810.0,135.0,270.0,540.0,cyan,cross
0.0,5.0,0.5,1.0,7.0,5.0,2867.8057659999467,4.0,1.0,phase_3,,,,,192.0,1.0,768.0,576.0,1152.0,384.0,192.0,960.0,yellow,flipped triangle
0.0,7.0,2.0,1.0,7.0,2.0,2995.0854199996684,4.0,1.0,phase_3,,,,,924.0,6.0,308.0,924.0,616.0,462.0,770.0,154.0,white,hexagon
0.0,7.0,2.0,1.0,7.0,4.0,3764.604942000005,4.0,1.0,phase_3,,,,,580.0,5.0,464.0,116.0,696.0,580.0,232.0,348.0,white,hexagon
0.0,2.0,1.0,0.0,7.0,5.0,2926.226270999905,4.0,1.0,phase_3,,,,,580.0,5.0,464.0,696.0,348.0,232.0,580.0,116.0,magenta,circle
