raw_reward_magnitude,stim_reward,stepwise_reward_magnitude,paired_with_stopping,stim_location,response,reaction_time,block,num_trial_presentations,which_phase,stop_signal_trial_type,left_SSD,right_SSD,accuracy,chosen_bidding_amount,chosen_bidding_level,possible_bid_1,possible_bid_2,possible_bid_3,possible_bid_4,possible_bid_5,possible_bid_6,color_text,shape_text
1287.0,8.0,4.0,1.0,4.0,4.0,422.2421559998111,1.0,1.0,phase_1,,,,,,,,,,,,,gray,flipped triangle
160.0,5.0,0.5,1.0,2.0,2.0,457.4476390000654,1.0,1.0,phase_1,,,,,,,,,,,,,white,hexagon
673.0,7.0,2.0,1.0,3.0,3.0,333.9924729998529,1.0,1.0,phase_1,,,,,,,,,,,,,cyan,triangle
1294.0,4.0,4.0,0.0,4.0,4.0,370.2615700001388,1.0,1.0,phase_1,,,,,,,,,,,,,green,circle
0.0,3.0,0.0,0.0,2.0,2.0,411.9314189999841,1.0,2.0,phase_1,,,,,,,,,,,,,yellow,square
1290.0,4.0,4.0,0.0,2.0,2.0,433.5583999998107,1.0,1.0,phase_1,,,,,,,,,,,,,green,circle
0.0,1.0,0.0,0.0,1.0,1.0,492.9447269998945,1.0,1.0,phase_1,,,,,,,,,,,,,blue,cross
177.0,5.0,0.5,1.0,1.0,1.0,491.2583060001907,1.0,1.0,phase_1,,,,,,,,,,,,,white,hexagon
0.0,8.0,0.0,1.0,4.0,4.0,361.3304699999844,1.0,1.0,phase_1,,,,,,,,,,,,,gray,flipped triangle
666.0,3.0,2.0,0.0,4.0,4.0,421.4406339999641,1.0,1.0,phase_1,,,,,,,,,,,,,yellow,square
0.0,7.0,0.0,1.0,4.0,4.0,386.2789699999212,1.0,1.0,phase_1,,,,,,,,,,,,,cyan,triangle
158.0,1.0,0.5,0.0,3.0,3.0,372.2251659999074,1.0,1.0,phase_1,,,,,,,,,,,,,blue,cross
661.0,3.0,2.0,0.0,2.0,2.0,520.4539999999724,1.0,1.0,phase_1,,,,,,,,,,,,,yellow,square
180.0,1.0,0.5,0.0,1.0,1.0,368.4446780000598,1.0,1.0,phase_1,,,,,,,,,,,,,blue,cross
156.0,1.0,0.5,0.0,2.0,2.0,338.2414630000312,1.0,1.0,phase_1,,,,,,,,,,,,,blue,cross
0.0,7.0,0.0,1.0,2.0,2.0,471.6542400001344,1.0,1.0,phase_1,,,,,,,,,,,,,cyan,triangle
339.0,6.0,1.0,1.0,2.0,2.0,444.7125270000924,1.0,1.0,phase_1,,,,,,,,,,,,,orange,I
347.0,6.0,1.0,1.0,4.0,4.0,304.3244660000255,1.0,1.0,phase_1,,,,,,,,,,,,,orange,I
1302.0,8.0,4.0,1.0,3.0,3.0,396.3517869999577,1.0,1.0,phase_1,,,,,,,,,,,,,gray,flipped triangle
0.0,3.0,0.0,0.0,3.0,3.0,376.8337649999012,1.0,1.0,phase_1,,,,,,,,,,,,,yellow,square
1288.0,4.0,4.0,0.0,2.0,2.0,424.6948219999922,1.0,1.0,phase_1,,,,,,,,,,,,,green,circle
0.0,7.0,0.0,1.0,3.0,3.0,421.5198250001322,1.0,1.0,phase_1,,,,,,,,,,,,,cyan,triangle
675.0,3.0,2.0,0.0,1.0,1.0,366.5284570001859,1.0,2.0,phase_1,,,,,,,,,,,,,yellow,square
1294.0,4.0,4.0,0.0,2.0,2.0,491.2384880001355,1.0,1.0,phase_1,,,,,,,,,,,,,green,circle
332.0,2.0,1.0,0.0,2.0,2.0,398.7205679998169,1.0,1.0,phase_1,,,,,,,,,,,,,magenta,diamond
1287.0,4.0,4.0,0.0,3.0,3.0,457.8143520000139,1.0,1.0,phase_1,,,,,,,,,,,,,green,circle
1310.0,8.0,4.0,1.0,3.0,3.0,415.9017250001398,1.0,1.0,phase_1,,,,,,,,,,,,,gray,flipped triangle
1298.0,4.0,4.0,0.0,3.0,3.0,434.968402000095,1.0,1.0,phase_1,,,,,,,,,,,,,green,circle
185.0,5.0,0.5,1.0,4.0,4.0,408.9732239999648,1.0,1.0,phase_1,,,,,,,,,,,,,white,hexagon
1307.0,4.0,4.0,0.0,1.0,1.0,439.0455579998615,1.0,1.0,phase_1,,,,,,,,,,,,,green,circle
0.0,2.0,0.0,0.0,1.0,1.0,376.7167830001199,1.0,1.0,phase_1,,,,,,,,,,,,,magenta,diamond
0.0,3.0,0.0,0.0,4.0,4.0,357.0395659999121,1.0,1.0,phase_1,,,,,,,,,,,,,yellow,square
0.0,5.0,0.0,1.0,3.0,3.0,411.60160000004,1.0,1.0,phase_1,,,,,,,,,,,,,white,hexagon
1320.0,4.0,4.0,0.0,3.0,3.0,366.9010909998178,1.0,1.0,phase_1,,,,,,,,,,,,,green,circle
0.0,3.0,0.0,0.0,4.0,4.0,355.6954680000217,1.0,1.0,phase_1,,,,,,,,,,,,,yellow,square
652.0,7.0,2.0,1.0,3.0,3.0,387.02064600011,1.0,1.0,phase_1,,,,,,,,,,,,,cyan,triangle
673.0,3.0,2.0,0.0,2.0,2.0,497.4026360000607,1.0,2.0,phase_1,,,,,,,,,,,,,yellow,square
312.0,6.0,1.0,1.0,3.0,3.0,438.3467150000797,1.0,1.0,phase_1,,,,,,,,,,,,,orange,I
630.0,7.0,2.0,1.0,1.0,1.0,429.483264000055,1.0,1.0,phase_1,,,,,,,,,,,,,cyan,triangle
0.0,4.0,0.0,0.0,1.0,1.0,409.9602019998656,1.0,1.0,phase_1,,,,,,,,,,,,,green,circle
0.0,2.0,0.0,0.0,4.0,4.0,259.9012569999104,1.0,1.0,phase_1,,,,,,,,,,,,,magenta,diamond
139.0,5.0,0.5,1.0,3.0,3.0,440.27754800004,1.0,1.0,phase_1,,,,,,,,,,,,,white,hexagon
1316.0,8.0,4.0,1.0,4.0,4.0,461.4224510000895,1.0,1.0,phase_1,,,,,,,,,,,,,gray,flipped triangle
334.0,6.0,1.0,1.0,1.0,1.0,338.6064029998579,1.0,1.0,phase_1,,,,,,,,,,,,,orange,I
0.0,8.0,0.0,1.0,2.0,2.0,470.4140769999867,1.0,1.0,phase_1,,,,,,,,,,,,,gray,flipped triangle
153.0,5.0,0.5,1.0,2.0,2.0,363.5807189998559,1.0,1.0,phase_1,,,,,,,,,,,,,white,hexagon
658.0,7.0,2.0,1.0,2.0,2.0,340.4149449997931,1.0,2.0,phase_1,,,,,,,,,,,,,cyan,triangle
1310.0,8.0,4.0,1.0,1.0,1.0,472.6093020001372,1.0,1.0,phase_1,,,,,,,,,,,,,gray,flipped triangle
331.0,6.0,1.0,1.0,1.0,1.0,421.8882609998218,1.0,1.0,phase_1,,,,,,,,,,,,,orange,I
0.0,2.0,0.0,0.0,4.0,4.0,379.4889759999478,1.0,1.0,phase_1,,,,,,,,,,,,,magenta,diamond
1320.0,8.0,4.0,1.0,2.0,2.0,543.1224199999178,1.0,1.0,phase_1,,,,,,,,,,,,,gray,flipped triangle
1324.0,8.0,4.0,1.0,3.0,3.0,445.6861480000498,1.0,1.0,phase_1,,,,,,,,,,,,,gray,flipped triangle
335.0,2.0,1.0,0.0,4.0,4.0,352.177440000105,1.0,1.0,phase_1,,,,,,,,,,,,,magenta,diamond
323.0,6.0,1.0,1.0,2.0,2.0,404.7597250000763,1.0,1.0,phase_1,,,,,,,,,,,,,orange,I
0.0,5.0,0.0,1.0,1.0,1.0,697.2298320001755,1.0,1.0,phase_1,,,,,,,,,,,,,white,hexagon
654.0,7.0,2.0,1.0,3.0,3.0,486.0898829999769,1.0,1.0,phase_1,,,,,,,,,,,,,cyan,triangle
0.0,8.0,0.0,1.0,3.0,3.0,370.462716999782,1.0,1.0,phase_1,,,,,,,,,,,,,gray,flipped triangle
665.0,7.0,2.0,1.0,4.0,4.0,383.6848840001039,1.0,1.0,phase_1,,,,,,,,,,,,,cyan,triangle
1307.0,8.0,4.0,1.0,1.0,1.0,397.6833889998943,1.0,1.0,phase_1,,,,,,,,,,,,,gray,flipped triangle
1290.0,8.0,4.0,1.0,3.0,3.0,400.4670719998557,1.0,1.0,phase_1,,,,,,,,,,,,,gray,flipped triangle
0.0,2.0,0.0,0.0,1.0,1.0,389.2735950000769,1.0,1.0,phase_1,,,,,,,,,,,,,magenta,diamond
0.0,8.0,0.0,1.0,4.0,4.0,460.4370970000673,1.0,1.0,phase_1,,,,,,,,,,,,,gray,flipped triangle
0.0,1.0,0.0,0.0,3.0,3.0,416.2890770001013,1.0,1.0,phase_1,,,,,,,,,,,,,blue,cross
1293.0,4.0,4.0,0.0,4.0,4.0,430.0041999999848,1.0,1.0,phase_1,,,,,,,,,,,,,green,circle
173.0,1.0,0.5,0.0,4.0,4.0,361.071332000165,1.0,1.0,phase_1,,,,,,,,,,,,,blue,cross
318.0,6.0,1.0,1.0,3.0,3.0,412.0269990000906,1.0,1.0,phase_1,,,,,,,,,,,,,orange,I
163.0,1.0,0.5,0.0,3.0,3.0,458.235145000117,1.0,1.0,phase_1,,,,,,,,,,,,,blue,cross
314.0,6.0,1.0,1.0,4.0,4.0,415.8965130000069,1.0,1.0,phase_1,,,,,,,,,,,,,orange,I
1321.0,8.0,4.0,1.0,2.0,2.0,403.4435149999353,1.0,1.0,phase_1,,,,,,,,,,,,,gray,flipped triangle
655.0,7.0,2.0,1.0,1.0,1.0,477.5261229999614,1.0,1.0,phase_1,,,,,,,,,,,,,cyan,triangle
348.0,6.0,1.0,1.0,4.0,4.0,347.1218880001743,1.0,1.0,phase_1,,,,,,,,,,,,,orange,I
335.0,2.0,1.0,0.0,1.0,1.0,420.0271100000918,1.0,2.0,phase_1,,,,,,,,,,,,,magenta,diamond
307.0,6.0,1.0,1.0,1.0,1.0,408.6542539998845,1.0,1.0,phase_1,,,,,,,,,,,,,orange,I
300.0,2.0,1.0,0.0,2.0,2.0,492.5120670000069,1.0,1.0,phase_1,,,,,,,,,,,,,magenta,diamond
163.0,1.0,0.5,0.0,3.0,3.0,540.9583150001254,1.0,1.0,phase_1,,,,,,,,,,,,,blue,cross
0.0,6.0,0.0,1.0,2.0,2.0,445.9160569999767,1.0,1.0,phase_1,,,,,,,,,,,,,orange,I
1283.0,4.0,4.0,0.0,4.0,4.0,525.6470130000253,1.0,1.0,phase_1,,,,,,,,,,,,,green,circle
655.0,7.0,2.0,1.0,2.0,2.0,562.4987050000527,1.0,1.0,phase_1,,,,,,,,,,,,,cyan,triangle
1289.0,8.0,4.0,1.0,4.0,4.0,340.531288999955,1.0,1.0,phase_1,,,,,,,,,,,,,gray,flipped triangle
639.0,7.0,2.0,1.0,4.0,4.0,425.9823630000028,1.0,1.0,phase_1,,,,,,,,,,,,,cyan,triangle
0.0,4.0,0.0,0.0,2.0,2.0,341.8721130001358,1.0,1.0,phase_1,,,,,,,,,,,,,green,circle
139.0,1.0,0.5,0.0,4.0,4.0,349.0633859998979,1.0,1.0,phase_1,,,,,,,,,,,,,blue,cross
321.0,2.0,1.0,0.0,1.0,1.0,441.822527000113,1.0,1.0,phase_1,,,,,,,,,,,,,magenta,diamond
1301.0,8.0,4.0,1.0,3.0,3.0,387.3106890000599,1.0,1.0,phase_1,,,,,,,,,,,,,gray,flipped triangle
172.0,5.0,0.5,1.0,4.0,4.0,384.7002600000451,1.0,1.0,phase_1,,,,,,,,,,,,,white,hexagon
324.0,6.0,1.0,1.0,1.0,1.0,399.7089280001091,1.0,1.0,phase_1,,,,,,,,,,,,,orange,I
646.0,3.0,2.0,0.0,4.0,4.0,410.8562710000569,1.0,1.0,phase_1,,,,,,,,,,,,,yellow,square
1315.0,8.0,4.0,1.0,4.0,4.0,479.5075609999912,1.0,1.0,phase_1,,,,,,,,,,,,,gray,flipped triangle
300.0,6.0,1.0,1.0,1.0,1.0,330.9631229999468,1.0,1.0,phase_1,,,,,,,,,,,,,orange,I
300.0,2.0,1.0,0.0,1.0,1.0,375.6230410001535,1.0,1.0,phase_1,,,,,,,,,,,,,magenta,diamond
322.0,6.0,1.0,1.0,4.0,4.0,366.7545939999854,1.0,1.0,phase_1,,,,,,,,,,,,,orange,I
139.0,5.0,0.5,1.0,2.0,2.0,368.5364370001025,1.0,1.0,phase_1,,,,,,,,,,,,,white,hexagon
307.0,2.0,1.0,0.0,4.0,4.0,335.9660080000139,1.0,1.0,phase_1,,,,,,,,,,,,,magenta,diamond
139.0,5.0,0.5,1.0,3.0,3.0,385.4638420000356,1.0,1.0,phase_1,,,,,,,,,,,,,white,hexagon
165.0,1.0,0.5,0.0,3.0,3.0,400.7205760001397,1.0,1.0,phase_1,,,,,,,,,,,,,blue,cross
151.0,1.0,0.5,0.0,1.0,1.0,346.8136510000477,1.0,1.0,phase_1,,,,,,,,,,,,,blue,cross
177.0,1.0,0.5,0.0,2.0,2.0,408.0157789999248,1.0,1.0,phase_1,,,,,,,,,,,,,blue,cross
640.0,3.0,2.0,0.0,3.0,3.0,468.268997999985,1.0,1.0,phase_1,,,,,,,,,,,,,yellow,square
1288.0,8.0,4.0,1.0,3.0,3.0,370.6487599999946,1.0,1.0,phase_1,,,,,,,,,,,,,gray,flipped triangle
1310.0,4.0,4.0,0.0,2.0,2.0,397.9107600000588,1.0,1.0,phase_1,,,,,,,,,,,,,green,circle
142.0,5.0,0.5,1.0,2.0,2.0,544.6152380000058,2.0,1.0,phase_1,,,,,,,,,,,,,white,hexagon
654.0,3.0,2.0,0.0,1.0,1.0,343.7939580001057,2.0,1.0,phase_1,,,,,,,,,,,,,yellow,square
671.0,3.0,2.0,0.0,4.0,4.0,412.9820910000035,2.0,1.0,phase_1,,,,,,,,,,,,,yellow,square
185.0,1.0,0.5,0.0,1.0,1.0,446.3932129999648,2.0,1.0,phase_1,,,,,,,,,,,,,blue,cross
653.0,7.0,2.0,1.0,2.0,2.0,412.02158100009,2.0,1.0,phase_1,,,,,,,,,,,,,cyan,triangle
325.0,6.0,1.0,1.0,1.0,1.0,391.7749540000841,2.0,1.0,phase_1,,,,,,,,,,,,,orange,I
0.0,7.0,0.0,1.0,3.0,3.0,484.5581649999531,2.0,1.0,phase_1,,,,,,,,,,,,,cyan,triangle
0.0,1.0,0.0,0.0,2.0,2.0,344.5842790001734,2.0,1.0,phase_1,,,,,,,,,,,,,blue,cross
1295.0,4.0,4.0,0.0,4.0,4.0,367.9662960000769,2.0,1.0,phase_1,,,,,,,,,,,,,green,circle
662.0,3.0,2.0,0.0,3.0,3.0,467.1280449999813,2.0,1.0,phase_1,,,,,,,,,,,,,yellow,square
1298.0,4.0,4.0,0.0,1.0,1.0,481.7411659998925,2.0,1.0,phase_1,,,,,,,,,,,,,green,circle
1282.0,4.0,4.0,0.0,3.0,3.0,358.9932200000021,2.0,1.0,phase_1,,,,,,,,,,,,,green,circle
0.0,3.0,0.0,0.0,1.0,1.0,419.4194680001146,2.0,1.0,phase_1,,,,,,,,,,,,,yellow,square
1301.0,4.0,4.0,0.0,1.0,1.0,479.4988139999532,2.0,1.0,phase_1,,,,,,,,,,,,,green,circle
1295.0,8.0,4.0,1.0,2.0,2.0,329.4811329999447,2.0,1.0,phase_1,,,,,,,,,,,,,gray,flipped triangle
0.0,4.0,0.0,0.0,3.0,3.0,438.4663170001204,2.0,1.0,phase_1,,,,,,,,,,,,,green,circle
1289.0,4.0,4.0,0.0,3.0,3.0,440.1123800000732,2.0,2.0,phase_1,,,,,,,,,,,,,green,circle
1277.0,8.0,4.0,1.0,4.0,4.0,415.3592960001333,2.0,1.0,phase_1,,,,,,,,,,,,,gray,flipped triangle
1279.0,4.0,4.0,0.0,3.0,3.0,418.20531999997,2.0,1.0,phase_1,,,,,,,,,,,,,green,circle
664.0,7.0,2.0,1.0,3.0,3.0,350.2738590000263,2.0,1.0,phase_1,,,,,,,,,,,,,cyan,triangle
628.0,7.0,2.0,1.0,2.0,2.0,338.8962139999876,2.0,1.0,phase_1,,,,,,,,,,,,,cyan,triangle
173.0,5.0,0.5,1.0,4.0,4.0,359.2085469999801,2.0,1.0,phase_1,,,,,,,,,,,,,white,hexagon
142.0,1.0,0.5,0.0,2.0,2.0,507.7938259998973,2.0,1.0,phase_1,,,,,,,,,,,,,blue,cross
317.0,6.0,1.0,1.0,3.0,3.0,360.5972199998177,2.0,1.0,phase_1,,,,,,,,,,,,,orange,I
656.0,3.0,2.0,0.0,3.0,3.0,358.624951000138,2.0,1.0,phase_1,,,,,,,,,,,,,yellow,square
1298.0,8.0,4.0,1.0,2.0,2.0,538.7961720000476,2.0,1.0,phase_1,,,,,,,,,,,,,gray,flipped triangle
151.0,5.0,0.5,1.0,4.0,4.0,368.8677860000098,2.0,1.0,phase_1,,,,,,,,,,,,,white,hexagon
1295.0,4.0,4.0,0.0,4.0,4.0,532.0472109999628,2.0,1.0,phase_1,,,,,,,,,,,,,green,circle
1283.0,8.0,4.0,1.0,2.0,2.0,575.9404169998561,2.0,1.0,phase_1,,,,,,,,,,,,,gray,flipped triangle
311.0,2.0,1.0,0.0,1.0,1.0,596.0588230000212,2.0,1.0,phase_1,,,,,,,,,,,,,magenta,diamond
0.0,8.0,0.0,1.0,1.0,1.0,576.7469190000156,2.0,1.0,phase_1,,,,,,,,,,,,,gray,flipped triangle
1297.0,4.0,4.0,0.0,3.0,3.0,463.0576110000675,2.0,1.0,phase_1,,,,,,,,,,,,,green,circle
627.0,3.0,2.0,0.0,1.0,1.0,483.7806479999926,2.0,1.0,phase_1,,,,,,,,,,,,,yellow,square
335.0,6.0,1.0,1.0,3.0,3.0,377.0188940000025,2.0,1.0,phase_1,,,,,,,,,,,,,orange,I
160.0,1.0,0.5,0.0,2.0,2.0,427.580861000024,2.0,1.0,phase_1,,,,,,,,,,,,,blue,cross
158.0,5.0,0.5,1.0,4.0,4.0,375.5787009999949,2.0,1.0,phase_1,,,,,,,,,,,,,white,hexagon
340.0,6.0,1.0,1.0,3.0,3.0,421.651589000021,2.0,1.0,phase_1,,,,,,,,,,,,,orange,I
157.0,1.0,0.5,0.0,1.0,1.0,505.16526800015527,2.0,1.0,phase_1,,,,,,,,,,,,,blue,cross
180.0,5.0,0.5,1.0,2.0,2.0,335.4383460000463,2.0,1.0,phase_1,,,,,,,,,,,,,white,hexagon
665.0,3.0,2.0,0.0,2.0,2.0,403.9711099999294,2.0,1.0,phase_1,,,,,,,,,,,,,yellow,square
186.0,5.0,0.5,1.0,3.0,3.0,425.9090199998354,2.0,1.0,phase_1,,,,,,,,,,,,,white,hexagon
627.0,3.0,2.0,0.0,3.0,3.0,397.3259800000051,2.0,1.0,phase_1,,,,,,,,,,,,,yellow,square
1287.0,8.0,4.0,1.0,4.0,4.0,337.6299690000905,2.0,1.0,phase_1,,,,,,,,,,,,,gray,flipped triangle
1285.0,8.0,4.0,1.0,1.0,1.0,374.3138899999394,2.0,1.0,phase_1,,,,,,,,,,,,,gray,flipped triangle
153.0,1.0,0.5,0.0,2.0,2.0,305.2362960002028,2.0,1.0,phase_1,,,,,,,,,,,,,blue,cross
0.0,3.0,0.0,0.0,4.0,4.0,429.7067570000763,2.0,1.0,phase_1,,,,,,,,,,,,,yellow,square
143.0,1.0,0.5,0.0,1.0,1.0,370.6886469999517,2.0,1.0,phase_1,,,,,,,,,,,,,blue,cross
165.0,5.0,0.5,1.0,1.0,1.0,343.5989570002675,2.0,1.0,phase_1,,,,,,,,,,,,,white,hexagon
175.0,5.0,0.5,1.0,3.0,3.0,412.0680909995826,2.0,1.0,phase_1,,,,,,,,,,,,,white,hexagon
638.0,3.0,2.0,0.0,2.0,2.0,514.6075839998048,2.0,1.0,phase_1,,,,,,,,,,,,,yellow,square
341.0,2.0,1.0,0.0,3.0,3.0,373.1035700002394,2.0,1.0,phase_1,,,,,,,,,,,,,magenta,diamond
178.0,1.0,0.5,0.0,4.0,4.0,412.4594639997667,2.0,1.0,phase_1,,,,,,,,,,,,,blue,cross
1315.0,4.0,4.0,0.0,2.0,2.0,376.5786040003149,2.0,1.0,phase_1,,,,,,,,,,,,,green,circle
1275.0,4.0,4.0,0.0,1.0,1.0,355.6041930000901,2.0,1.0,phase_1,,,,,,,,,,,,,green,circle
172.0,5.0,0.5,1.0,4.0,4.0,345.1388339999539,2.0,1.0,phase_1,,,,,,,,,,,,,white,hexagon
178.0,5.0,0.5,1.0,2.0,2.0,509.60978600005546,2.0,1.0,phase_1,,,,,,,,,,,,,white,hexagon
650.0,7.0,2.0,1.0,3.0,3.0,523.9370039998903,2.0,1.0,phase_1,,,,,,,,,,,,,cyan,triangle
1287.0,4.0,4.0,0.0,3.0,3.0,384.3345069999486,2.0,1.0,phase_1,,,,,,,,,,,,,green,circle
0.0,4.0,0.0,0.0,4.0,4.0,338.4886860003462,2.0,1.0,phase_1,,,,,,,,,,,,,green,circle
325.0,6.0,1.0,1.0,4.0,4.0,391.2274919998708,2.0,1.0,phase_1,,,,,,,,,,,,,orange,I
635.0,3.0,2.0,0.0,1.0,1.0,525.8937720000176,2.0,1.0,phase_1,,,,,,,,,,,,,yellow,square
166.0,5.0,0.5,1.0,3.0,3.0,377.394632999767,2.0,1.0,phase_1,,,,,,,,,,,,,white,hexagon
160.0,1.0,0.5,0.0,3.0,3.0,405.6050850003885,2.0,1.0,phase_1,,,,,,,,,,,,,blue,cross
1298.0,8.0,4.0,1.0,4.0,4.0,362.9952819997015,2.0,1.0,phase_1,,,,,,,,,,,,,gray,flipped triangle
340.0,2.0,1.0,0.0,3.0,3.0,374.1865770002732,2.0,1.0,phase_1,,,,,,,,,,,,,magenta,diamond
152.0,1.0,0.5,0.0,1.0,1.0,419.1039739998814,2.0,1.0,phase_1,,,,,,,,,,,,,blue,cross
1302.0,4.0,4.0,0.0,1.0,1.0,464.3843929998184,2.0,1.0,phase_1,,,,,,,,,,,,,green,circle
300.0,6.0,1.0,1.0,1.0,1.0,435.4522470002848,2.0,1.0,phase_1,,,,,,,,,,,,,orange,I
148.0,5.0,0.5,1.0,2.0,2.0,418.3522779999293,2.0,1.0,phase_1,,,,,,,,,,,,,white,hexagon
1310.0,8.0,4.0,1.0,4.0,4.0,407.5633759998709,2.0,1.0,phase_1,,,,,,,,,,,,,gray,flipped triangle
0.0,6.0,0.0,1.0,3.0,3.0,337.847733000217,2.0,1.0,phase_1,,,,,,,,,,,,,orange,I
139.0,5.0,0.5,1.0,3.0,3.0,470.0459369996679,2.0,1.0,phase_1,,,,,,,,,,,,,white,hexagon
1301.0,4.0,4.0,0.0,1.0,1.0,388.5311410003851,2.0,1.0,phase_1,,,,,,,,,,,,,green,circle
653.0,3.0,2.0,0.0,4.0,4.0,328.993913999966,2.0,1.0,phase_1,,,,,,,,,,,,,yellow,square
323.0,6.0,1.0,1.0,1.0,1.0,388.1714759995702,2.0,1.0,phase_1,,,,,,,,,,,,,orange,I
647.0,3.0,2.0,0.0,1.0,1.0,403.5646969996378,2.0,1.0,phase_1,,,,,,,,,,,,,yellow,square
675.0,7.0,2.0,1.0,1.0,1.0,502.40805100020225,2.0,1.0,phase_1,,,,,,,,,,,,,cyan,triangle
324.0,6.0,1.0,1.0,4.0,4.0,405.3328899999542,2.0,1.0,phase_1,,,,,,,,,,,,,orange,I
317.0,2.0,1.0,0.0,3.0,3.0,456.0810600000877,2.0,1.0,phase_1,,,,,,,,,,,,,magenta,diamond
139.0,1.0,0.5,0.0,4.0,4.0,363.4659470003498,2.0,1.0,phase_1,,,,,,,,,,,,,blue,cross
1317.0,4.0,4.0,0.0,2.0,2.0,552.3630630000298,2.0,1.0,phase_1,,,,,,,,,,,,,green,circle
180.0,1.0,0.5,0.0,1.0,1.0,454.062865999731,2.0,1.0,phase_1,,,,,,,,,,,,,blue,cross
302.0,6.0,1.0,1.0,2.0,2.0,499.8430850000659,2.0,1.0,phase_1,,,,,,,,,,,,,orange,I
340.0,6.0,1.0,1.0,2.0,2.0,511.67149200000495,2.0,1.0,phase_1,,,,,,,,,,,,,orange,I
0.0,1.0,0.0,0.0,2.0,2.0,460.4289120002249,2.0,1.0,phase_1,,,,,,,,,,,,,blue,cross
339.0,2.0,1.0,0.0,3.0,3.0,407.3702549999325,2.0,1.0,phase_1,,,,,,,,,,,,,magenta,diamond
167.0,5.0,0.5,1.0,1.0,1.0,412.1085360002325,2.0,1.0,phase_1,,,,,,,,,,,,,white,hexagon
1295.0,8.0,4.0,1.0,1.0,1.0,490.1647689998754,2.0,1.0,phase_1,,,,,,,,,,,,,gray,flipped triangle
1303.0,8.0,4.0,1.0,2.0,2.0,509.17687199989814,2.0,1.0,phase_1,,,,,,,,,,,,,gray,flipped triangle
0.0,5.0,0.0,1.0,1.0,1.0,378.2074000000648,2.0,1.0,phase_1,,,,,,,,,,,,,white,hexagon
1286.0,4.0,4.0,0.0,4.0,4.0,454.8215760000857,2.0,1.0,phase_1,,,,,,,,,,,,,green,circle
185.0,1.0,0.5,0.0,2.0,2.0,484.6703889998025,2.0,1.0,phase_1,,,,,,,,,,,,,blue,cross
627.0,7.0,2.0,1.0,4.0,4.0,674.3103359999623,2.0,1.0,phase_1,,,,,,,,,,,,,cyan,triangle
170.0,1.0,0.5,0.0,1.0,1.0,652.7495870000166,2.0,1.0,phase_1,,,,,,,,,,,,,blue,cross
633.0,7.0,2.0,1.0,3.0,3.0,513.6079359999712,2.0,1.0,phase_1,,,,,,,,,,,,,cyan,triangle
1282.0,8.0,4.0,1.0,1.0,1.0,421.933459000229,2.0,1.0,phase_1,,,,,,,,,,,,,gray,flipped triangle
660.0,3.0,2.0,0.0,3.0,3.0,386.1589359999016,2.0,1.0,phase_1,,,,,,,,,,,,,yellow,square
1303.0,4.0,4.0,0.0,2.0,2.0,487.0336700000734,2.0,1.0,phase_1,,,,,,,,,,,,,green,circle
1283.0,8.0,4.0,1.0,1.0,1.0,406.3388829999894,2.0,1.0,phase_1,,,,,,,,,,,,,gray,flipped triangle
1323.0,8.0,4.0,1.0,3.0,3.0,328.4607580003467,2.0,1.0,phase_1,,,,,,,,,,,,,gray,flipped triangle
1310.0,8.0,4.0,1.0,2.0,2.0,587.9530059996796,3.0,1.0,phase_1,,,,,,,,,,,,,gray,flipped triangle
341.0,6.0,1.0,1.0,2.0,2.0,439.9901670003601,3.0,1.0,phase_1,,,,,,,,,,,,,orange,I
648.0,7.0,2.0,1.0,1.0,1.0,471.0942930000783,3.0,1.0,phase_1,,,,,,,,,,,,,cyan,triangle
308.0,6.0,1.0,1.0,3.0,3.0,514.0064900001562,3.0,1.0,phase_1,,,,,,,,,,,,,orange,I
338.0,2.0,1.0,0.0,4.0,4.0,424.1974500000651,3.0,1.0,phase_1,,,,,,,,,,,,,magenta,diamond
662.0,7.0,2.0,1.0,1.0,1.0,372.0217770001,3.0,1.0,phase_1,,,,,,,,,,,,,cyan,triangle
302.0,2.0,1.0,0.0,3.0,3.0,457.2270779999599,3.0,1.0,phase_1,,,,,,,,,,,,,magenta,diamond
638.0,7.0,2.0,1.0,4.0,4.0,396.0148050000498,3.0,1.0,phase_1,,,,,,,,,,,,,cyan,triangle
0.0,4.0,0.0,0.0,4.0,4.0,443.5454689996732,3.0,1.0,phase_1,,,,,,,,,,,,,green,circle
330.0,2.0,1.0,0.0,1.0,1.0,453.5348210001757,3.0,1.0,phase_1,,,,,,,,,,,,,magenta,diamond
1323.0,4.0,4.0,0.0,2.0,2.0,401.8087310000737,3.0,1.0,phase_1,,,,,,,,,,,,,green,circle
0.0,6.0,0.0,1.0,2.0,2.0,430.887198000164,3.0,1.0,phase_1,,,,,,,,,,,,,orange,I
0.0,1.0,0.0,0.0,2.0,2.0,605.6185860002188,3.0,1.0,phase_1,,,,,,,,,,,,,blue,cross
0.0,5.0,0.0,1.0,4.0,4.0,439.8766520002937,3.0,1.0,phase_1,,,,,,,,,,,,,white,hexagon
172.0,1.0,0.5,0.0,3.0,3.0,660.7960259998436,3.0,1.0,phase_1,,,,,,,,,,,,,blue,cross
152.0,5.0,0.5,1.0,1.0,1.0,449.150900999939,3.0,1.0,phase_1,,,,,,,,,,,,,white,hexagon
0.0,2.0,0.0,0.0,4.0,4.0,439.7750089997316,3.0,1.0,phase_1,,,,,,,,,,,,,magenta,diamond
0.0,6.0,0.0,1.0,2.0,2.0,620.0394540001071,3.0,1.0,phase_1,,,,,,,,,,,,,orange,I
177.0,1.0,0.5,0.0,1.0,1.0,670.5106510003134,3.0,1.0,phase_1,,,,,,,,,,,,,blue,cross
1320.0,8.0,4.0,1.0,2.0,2.0,523.5800030000064,3.0,1.0,phase_1,,,,,,,,,,,,,gray,flipped triangle
158.0,5.0,0.5,1.0,4.0,4.0,586.0955049997756,3.0,1.0,phase_1,,,,,,,,,,,,,white,hexagon
349.0,6.0,1.0,1.0,4.0,4.0,556.5100059998258,3.0,1.0,phase_1,,,,,,,,,,,,,orange,I
322.0,2.0,1.0,0.0,3.0,3.0,433.5695929999019,3.0,1.0,phase_1,,,,,,,,,,,,,magenta,diamond
1322.0,8.0,4.0,1.0,1.0,1.0,493.8987309997174,3.0,1.0,phase_1,,,,,,,,,,,,,gray,flipped triangle
657.0,7.0,2.0,1.0,2.0,2.0,459.1721409997262,3.0,1.0,phase_1,,,,,,,,,,,,,cyan,triangle
347.0,2.0,1.0,0.0,2.0,2.0,495.8643959998881,3.0,1.0,phase_1,,,,,,,,,,,,,magenta,diamond
638.0,3.0,2.0,0.0,3.0,3.0,509.82451600020795,3.0,1.0,phase_1,,,,,,,,,,,,,yellow,square
630.0,3.0,2.0,0.0,3.0,3.0,451.5842719997636,3.0,1.0,phase_1,,,,,,,,,,,,,yellow,square
0.0,7.0,0.0,1.0,1.0,1.0,412.9721750000499,3.0,1.0,phase_1,,,,,,,,,,,,,cyan,triangle
633.0,7.0,2.0,1.0,4.0,4.0,505.8949780000148,3.0,1.0,phase_1,,,,,,,,,,,,,cyan,triangle
143.0,1.0,0.5,0.0,3.0,3.0,382.8200460002335,3.0,1.0,phase_1,,,,,,,,,,,,,blue,cross
627.0,7.0,2.0,1.0,2.0,2.0,403.3200090002538,3.0,1.0,phase_1,,,,,,,,,,,,,cyan,triangle
0.0,6.0,0.0,1.0,3.0,3.0,400.1462549999814,3.0,1.0,phase_1,,,,,,,,,,,,,orange,I
335.0,6.0,1.0,1.0,1.0,1.0,532.6558659999137,3.0,1.0,phase_1,,,,,,,,,,,,,orange,I
628.0,3.0,2.0,0.0,2.0,2.0,563.6861080001836,3.0,1.0,phase_1,,,,,,,,,,,,,yellow,square
0.0,4.0,0.0,0.0,2.0,2.0,606.1170129996754,3.0,1.0,phase_1,,,,,,,,,,,,,green,circle
660.0,7.0,2.0,1.0,3.0,3.0,545.8330540000134,3.0,1.0,phase_1,,,,,,,,,,,,,cyan,triangle
139.0,1.0,0.5,0.0,4.0,4.0,392.5933989999066,3.0,1.0,phase_1,,,,,,,,,,,,,blue,cross
340.0,2.0,1.0,0.0,4.0,4.0,388.4940980001374,3.0,1.0,phase_1,,,,,,,,,,,,,magenta,diamond
646.0,7.0,2.0,1.0,2.0,2.0,657.6762499998949,3.0,1.0,phase_1,,,,,,,,,,,,,cyan,triangle
642.0,3.0,2.0,0.0,1.0,1.0,534.206321000056,3.0,1.0,phase_1,,,,,,,,,,,,,yellow,square
302.0,6.0,1.0,1.0,1.0,1.0,594.8253490000752,3.0,1.0,phase_1,,,,,,,,,,,,,orange,I
0.0,5.0,0.0,1.0,3.0,3.0,414.8740709997582,3.0,1.0,phase_1,,,,,,,,,,,,,white,hexagon
662.0,7.0,2.0,1.0,1.0,1.0,763.1203239998285,3.0,1.0,phase_1,,,,,,,,,,,,,cyan,triangle
321.0,6.0,1.0,1.0,3.0,3.0,410.0648030002958,3.0,1.0,phase_1,,,,,,,,,,,,,orange,I
1322.0,4.0,4.0,0.0,1.0,1.0,452.1614669997689,3.0,1.0,phase_1,,,,,,,,,,,,,green,circle
1321.0,4.0,4.0,0.0,1.0,1.0,522.3001019999174,3.0,1.0,phase_1,,,,,,,,,,,,,green,circle
666.0,7.0,2.0,1.0,3.0,3.0,565.1113849999092,3.0,1.0,phase_1,,,,,,,,,,,,,cyan,triangle
0.0,1.0,0.0,0.0,4.0,4.0,658.5657489999903,3.0,1.0,phase_1,,,,,,,,,,,,,blue,cross
175.0,1.0,0.5,0.0,1.0,1.0,429.8571760000413,3.0,1.0,phase_1,,,,,,,,,,,,,blue,cross
664.0,3.0,2.0,0.0,3.0,3.0,413.6990880001576,3.0,1.0,phase_1,,,,,,,,,,,,,yellow,square
1277.0,4.0,4.0,0.0,4.0,4.0,584.4062669998493,3.0,1.0,phase_1,,,,,,,,,,,,,green,circle
185.0,5.0,0.5,1.0,1.0,1.0,580.4605309999715,3.0,1.0,phase_1,,,,,,,,,,,,,white,hexagon
0.0,3.0,0.0,0.0,3.0,3.0,392.8010579998044,3.0,1.0,phase_1,,,,,,,,,,,,,yellow,square
335.0,6.0,1.0,1.0,2.0,2.0,461.3611549998495,3.0,1.0,phase_1,,,,,,,,,,,,,orange,I
315.0,2.0,1.0,0.0,2.0,2.0,577.7233290000368,3.0,1.0,phase_1,,,,,,,,,,,,,magenta,diamond
349.0,2.0,1.0,0.0,1.0,1.0,473.7869780001347,3.0,1.0,phase_1,,,,,,,,,,,,,magenta,diamond
331.0,2.0,1.0,0.0,2.0,2.0,491.9630710001001,3.0,1.0,phase_1,,,,,,,,,,,,,magenta,diamond
642.0,7.0,2.0,1.0,4.0,4.0,538.3517179998307,3.0,1.0,phase_1,,,,,,,,,,,,,cyan,triangle
656.0,7.0,2.0,1.0,2.0,2.0,540.3201660001287,3.0,1.0,phase_1,,,,,,,,,,,,,cyan,triangle
0.0,5.0,0.0,1.0,1.0,1.0,673.8198339999144,3.0,1.0,phase_1,,,,,,,,,,,,,white,hexagon
138.0,5.0,0.5,1.0,1.0,1.0,445.5028600000332,3.0,1.0,phase_1,,,,,,,,,,,,,white,hexagon
0.0,7.0,0.0,1.0,4.0,4.0,442.4792410000009,3.0,1.0,phase_1,,,,,,,,,,,,,cyan,triangle
143.0,5.0,0.5,1.0,1.0,1.0,591.2316250000913,3.0,1.0,phase_1,,,,,,,,,,,,,white,hexagon
183.0,5.0,0.5,1.0,2.0,2.0,484.3943790001503,3.0,1.0,phase_1,,,,,,,,,,,,,white,hexagon
0.0,7.0,0.0,1.0,4.0,4.0,395.6010669999159,3.0,1.0,phase_1,,,,,,,,,,,,,cyan,triangle
662.0,7.0,2.0,1.0,1.0,1.0,414.0315329996156,3.0,1.0,phase_1,,,,,,,,,,,,,cyan,triangle
655.0,3.0,2.0,0.0,3.0,3.0,466.7244860002029,3.0,1.0,phase_1,,,,,,,,,,,,,yellow,square
662.0,3.0,2.0,0.0,4.0,4.0,390.7638109999425,3.0,1.0,phase_1,,,,,,,,,,,,,yellow,square
330.0,2.0,1.0,0.0,1.0,1.0,611.0295610001231,3.0,1.0,phase_1,,,,,,,,,,,,,magenta,diamond
315.0,6.0,1.0,1.0,4.0,4.0,391.5726740001446,3.0,1.0,phase_1,,,,,,,,,,,,,orange,I
0.0,1.0,0.0,0.0,1.0,1.0,492.8627750000487,3.0,1.0,phase_1,,,,,,,,,,,,,blue,cross
1279.0,8.0,4.0,1.0,3.0,3.0,577.2356510001373,3.0,1.0,phase_1,,,,,,,,,,,,,gray,flipped triangle
327.0,6.0,1.0,1.0,3.0,3.0,469.0045350002947,3.0,1.0,phase_1,,,,,,,,,,,,,orange,I
0.0,3.0,0.0,0.0,1.0,1.0,457.2950440001477,3.0,1.0,phase_1,,,,,,,,,,,,,yellow,square
177.0,5.0,0.5,1.0,3.0,3.0,424.5628459998443,3.0,1.0,phase_1,,,,,,,,,,,,,white,hexagon
162.0,5.0,0.5,1.0,4.0,4.0,685.743526999886,3.0,1.0,phase_1,,,,,,,,,,,,,white,hexagon
633.0,3.0,2.0,0.0,1.0,1.0,559.7699049999392,3.0,1.0,phase_1,,,,,,,,,,,,,yellow,square
1310.0,4.0,4.0,0.0,1.0,1.0,572.4502379998739,3.0,1.0,phase_1,,,,,,,,,,,,,green,circle
160.0,5.0,0.5,1.0,4.0,4.0,425.0009699999282,3.0,1.0,phase_1,,,,,,,,,,,,,white,hexagon
0.0,3.0,0.0,0.0,2.0,2.0,621.6898150000816,3.0,1.0,phase_1,,,,,,,,,,,,,yellow,square
314.0,6.0,1.0,1.0,4.0,4.0,419.1754940002283,3.0,1.0,phase_1,,,,,,,,,,,,,orange,I
635.0,7.0,2.0,1.0,1.0,1.0,439.1866840001057,3.0,1.0,phase_1,,,,,,,,,,,,,cyan,triangle
1317.0,8.0,4.0,1.0,1.0,1.0,659.5549240000764,3.0,1.0,phase_1,,,,,,,,,,,,,gray,flipped triangle
311.0,6.0,1.0,1.0,3.0,3.0,600.0916240000151,3.0,1.0,phase_1,,,,,,,,,,,,,orange,I
163.0,5.0,0.5,1.0,3.0,3.0,605.9668910002074,3.0,1.0,phase_1,,,,,,,,,,,,,white,hexagon
338.0,6.0,1.0,1.0,3.0,3.0,420.1745150003262,3.0,1.0,phase_1,,,,,,,,,,,,,orange,I
655.0,3.0,2.0,0.0,2.0,2.0,485.7176410000647,3.0,1.0,phase_1,,,,,,,,,,,,,yellow,square
647.0,7.0,2.0,1.0,3.0,3.0,419.2470650000359,3.0,1.0,phase_1,,,,,,,,,,,,,cyan,triangle
627.0,7.0,2.0,1.0,3.0,3.0,590.7718119997298,3.0,1.0,phase_1,,,,,,,,,,,,,cyan,triangle
1294.0,8.0,4.0,1.0,1.0,1.0,612.2165389997463,3.0,1.0,phase_1,,,,,,,,,,,,,gray,flipped triangle
1293.0,8.0,4.0,1.0,2.0,2.0,449.1040739999334,3.0,1.0,phase_1,,,,,,,,,,,,,gray,flipped triangle
325.0,2.0,1.0,0.0,4.0,4.0,607.3573580001721,3.0,1.0,phase_1,,,,,,,,,,,,,magenta,diamond
312.0,2.0,1.0,0.0,2.0,2.0,657.6285869996354,3.0,1.0,phase_1,,,,,,,,,,,,,magenta,diamond
0.0,7.0,0.0,1.0,1.0,1.0,478.1537190001472,3.0,1.0,phase_1,,,,,,,,,,,,,cyan,triangle
314.0,2.0,1.0,0.0,3.0,3.0,450.9297920003519,3.0,1.0,phase_1,,,,,,,,,,,,,magenta,diamond
138.0,1.0,0.5,0.0,4.0,4.0,496.8661959997007,3.0,1.0,phase_1,,,,,,,,,,,,,blue,cross
650.0,3.0,2.0,0.0,4.0,4.0,420.5344509996394,3.0,1.0,phase_1,,,,,,,,,,,,,yellow,square
0.0,4.0,0.0,0.0,1.0,1.0,856.1771189997671,3.0,1.0,phase_1,,,,,,,,,,,,,green,circle
302.0,2.0,1.0,0.0,4.0,4.0,565.5300989997158,3.0,1.0,phase_1,,,,,,,,,,,,,magenta,diamond
157.0,5.0,0.5,1.0,3.0,3.0,438.8530829996853,4.0,1.0,phase_1,,,,,,,,,,,,,white,hexagon
0.0,5.0,0.0,1.0,3.0,3.0,362.9466000002139,4.0,1.0,phase_1,,,,,,,,,,,,,white,hexagon
1320.0,4.0,4.0,0.0,4.0,4.0,417.6473830002578,4.0,1.0,phase_1,,,,,,,,,,,,,green,circle
0.0,2.0,0.0,0.0,2.0,2.0,412.0391110000128,4.0,1.0,phase_1,,,,,,,,,,,,,magenta,diamond
347.0,2.0,1.0,0.0,2.0,2.0,385.0192189997869,4.0,1.0,phase_1,,,,,,,,,,,,,magenta,diamond
166.0,1.0,0.5,0.0,2.0,2.0,383.7239879999288,4.0,1.0,phase_1,,,,,,,,,,,,,blue,cross
1275.0,8.0,4.0,1.0,2.0,2.0,410.0234969996563,4.0,1.0,phase_1,,,,,,,,,,,,,gray,flipped triangle
1316.0,4.0,4.0,0.0,3.0,3.0,385.4125710004155,4.0,1.0,phase_1,,,,,,,,,,,,,green,circle
318.0,2.0,1.0,0.0,3.0,3.0,444.1680959998848,4.0,1.0,phase_1,,,,,,,,,,,,,magenta,diamond
657.0,3.0,2.0,0.0,1.0,1.0,472.0395479998842,4.0,1.0,phase_1,,,,,,,,,,,,,yellow,square
1309.0,8.0,4.0,1.0,3.0,3.0,471.8802680004046,4.0,1.0,phase_1,,,,,,,,,,,,,gray,flipped triangle
0.0,8.0,0.0,1.0,3.0,3.0,945.1345749998836,4.0,1.0,phase_1,,,,,,,,,,,,,gray,flipped triangle
170.0,5.0,0.5,1.0,1.0,1.0,446.4161729997613,4.0,1.0,phase_1,,,,,,,,,,,,,white,hexagon
0.0,2.0,0.0,0.0,4.0,4.0,403.65160500005,4.0,1.0,phase_1,,,,,,,,,,,,,magenta,diamond
321.0,6.0,1.0,1.0,2.0,2.0,430.8519450000858,4.0,1.0,phase_1,,,,,,,,,,,,,orange,I
0.0,6.0,0.0,1.0,4.0,4.0,477.9872109997995,4.0,1.0,phase_1,,,,,,,,,,,,,orange,I
166.0,5.0,0.5,1.0,1.0,1.0,385.0969519999125,4.0,1.0,phase_1,,,,,,,,,,,,,white,hexagon
670.0,7.0,2.0,1.0,4.0,4.0,357.6821960000416,4.0,1.0,phase_1,,,,,,,,,,,,,cyan,triangle
665.0,7.0,2.0,1.0,2.0,2.0,443.3998570002586,4.0,1.0,phase_1,,,,,,,,,,,,,cyan,triangle
148.0,1.0,0.5,0.0,3.0,3.0,353.4063100000821,4.0,1.0,phase_1,,,,,,,,,,,,,blue,cross
156.0,5.0,0.5,1.0,2.0,2.0,403.5610250002719,4.0,1.0,phase_1,,,,,,,,,,,,,white,hexagon
166.0,1.0,0.5,0.0,4.0,4.0,439.6427859996947,4.0,1.0,phase_1,,,,,,,,,,,,,blue,cross
314.0,2.0,1.0,0.0,3.0,3.0,398.4330490002321,4.0,1.0,phase_1,,,,,,,,,,,,,magenta,diamond
139.0,1.0,0.5,0.0,2.0,2.0,568.938542000069,4.0,1.0,phase_1,,,,,,,,,,,,,blue,cross
671.0,7.0,2.0,1.0,4.0,4.0,406.5436810001301,4.0,1.0,phase_1,,,,,,,,,,,,,cyan,triangle
0.0,8.0,0.0,1.0,4.0,4.0,419.196011999702,4.0,1.0,phase_1,,,,,,,,,,,,,gray,flipped triangle
1285.0,4.0,4.0,0.0,2.0,2.0,503.1657479999012,4.0,1.0,phase_1,,,,,,,,,,,,,green,circle
0.0,8.0,0.0,1.0,1.0,1.0,563.4481889997005,4.0,1.0,phase_1,,,,,,,,,,,,,gray,flipped triangle
0.0,3.0,0.0,0.0,2.0,2.0,410.4828520003138,4.0,1.0,phase_1,,,,,,,,,,,,,yellow,square
0.0,5.0,0.0,1.0,4.0,4.0,375.8018749999792,4.0,1.0,phase_1,,,,,,,,,,,,,white,hexagon
1310.0,4.0,4.0,0.0,1.0,1.0,651.2876669999059,4.0,1.0,phase_1,,,,,,,,,,,,,green,circle
0.0,8.0,0.0,1.0,4.0,4.0,808.6993150000126,4.0,1.0,phase_1,,,,,,,,,,,,,gray,flipped triangle
323.0,2.0,1.0,0.0,4.0,4.0,451.1324989998684,4.0,1.0,phase_1,,,,,,,,,,,,,magenta,diamond
658.0,3.0,2.0,0.0,2.0,2.0,512.098115000299,4.0,1.0,phase_1,,,,,,,,,,,,,yellow,square
656.0,3.0,2.0,0.0,2.0,2.0,589.7621929998422,4.0,1.0,phase_1,,,,,,,,,,,,,yellow,square
640.0,7.0,2.0,1.0,1.0,1.0,528.4754449999127,4.0,1.0,phase_1,,,,,,,,,,,,,cyan,triangle
670.0,3.0,2.0,0.0,2.0,2.0,756.9781369998054,4.0,1.0,phase_1,,,,,,,,,,,,,yellow,square
334.0,2.0,1.0,0.0,2.0,2.0,818.7723010000809,4.0,1.0,phase_1,,,,,,,,,,,,,magenta,diamond
180.0,5.0,0.5,1.0,3.0,3.0,729.0972599998895,4.0,1.0,phase_1,,,,,,,,,,,,,white,hexagon
167.0,1.0,0.5,0.0,3.0,3.0,683.2133500001873,4.0,1.0,phase_1,,,,,,,,,,,,,blue,cross
162.0,1.0,0.5,0.0,4.0,4.0,362.844832999599,4.0,1.0,phase_1,,,,,,,,,,,,,blue,cross
1310.0,4.0,4.0,0.0,3.0,3.0,636.3033650000034,4.0,1.0,phase_1,,,,,,,,,,,,,green,circle
324.0,2.0,1.0,0.0,1.0,1.0,787.4105319997398,4.0,1.0,phase_1,,,,,,,,,,,,,magenta,diamond
172.0,1.0,0.5,0.0,4.0,4.0,382.0964840001579,4.0,1.0,phase_1,,,,,,,,,,,,,blue,cross
0.0,6.0,0.0,1.0,3.0,3.0,417.9829180002343,4.0,1.0,phase_1,,,,,,,,,,,,,orange,I
0.0,1.0,0.0,0.0,2.0,2.0,486.8100650000997,4.0,1.0,phase_1,,,,,,,,,,,,,blue,cross
656.0,7.0,2.0,1.0,4.0,4.0,374.2920600002435,4.0,1.0,phase_1,,,,,,,,,,,,,cyan,triangle
661.0,7.0,2.0,1.0,4.0,4.0,416.068333000112,4.0,1.0,phase_1,,,,,,,,,,,,,cyan,triangle
330.0,6.0,1.0,1.0,2.0,2.0,462.9884850000962,4.0,1.0,phase_1,,,,,,,,,,,,,orange,I
163.0,5.0,0.5,1.0,1.0,1.0,433.9747690000877,4.0,1.0,phase_1,,,,,,,,,,,,,white,hexagon
348.0,2.0,1.0,0.0,2.0,2.0,397.616716000357,4.0,1.0,phase_1,,,,,,,,,,,,,magenta,diamond
330.0,6.0,1.0,1.0,4.0,4.0,381.6795669999919,4.0,1.0,phase_1,,,,,,,,,,,,,orange,I
335.0,2.0,1.0,0.0,2.0,2.0,546.2196799999219,4.0,1.0,phase_1,,,,,,,,,,,,,magenta,diamond
178.0,1.0,0.5,0.0,4.0,4.0,379.7283280000556,4.0,1.0,phase_1,,,,,,,,,,,,,blue,cross
0.0,2.0,0.0,0.0,2.0,2.0,441.4613650001229,4.0,1.0,phase_1,,,,,,,,,,,,,magenta,diamond
332.0,6.0,1.0,1.0,2.0,2.0,429.2188800000076,4.0,1.0,phase_1,,,,,,,,,,,,,orange,I
324.0,2.0,1.0,0.0,4.0,4.0,403.7694479998208,4.0,1.0,phase_1,,,,,,,,,,,,,magenta,diamond
0.0,4.0,0.0,0.0,1.0,1.0,478.2881430000998,4.0,1.0,phase_1,,,,,,,,,,,,,green,circle
0.0,8.0,0.0,1.0,1.0,1.0,677.4688569998943,4.0,1.0,phase_1,,,,,,,,,,,,,gray,flipped triangle
1283.0,4.0,4.0,0.0,4.0,4.0,407.0268020000185,4.0,1.0,phase_1,,,,,,,,,,,,,green,circle
662.0,3.0,2.0,0.0,4.0,4.0,398.3106430000589,4.0,1.0,phase_1,,,,,,,,,,,,,yellow,square
0.0,6.0,0.0,1.0,1.0,1.0,395.0814270001501,4.0,1.0,phase_1,,,,,,,,,,,,,orange,I
1301.0,8.0,4.0,1.0,4.0,4.0,373.4247259999392,4.0,1.0,phase_1,,,,,,,,,,,,,gray,flipped triangle
1309.0,4.0,4.0,0.0,4.0,4.0,380.6834969996089,4.0,1.0,phase_1,,,,,,,,,,,,,green,circle
308.0,2.0,1.0,0.0,4.0,4.0,382.5441979997777,4.0,1.0,phase_1,,,,,,,,,,,,,magenta,diamond
639.0,3.0,2.0,0.0,1.0,1.0,427.802518000135,4.0,1.0,phase_1,,,,,,,,,,,,,yellow,square
0.0,4.0,0.0,0.0,4.0,4.0,336.0970779999661,4.0,1.0,phase_1,,,,,,,,,,,,,green,circle
0.0,2.0,0.0,0.0,1.0,1.0,332.5659980000637,4.0,1.0,phase_1,,,,,,,,,,,,,magenta,diamond
652.0,3.0,2.0,0.0,2.0,2.0,360.9068609998758,4.0,1.0,phase_1,,,,,,,,,,,,,yellow,square
178.0,5.0,0.5,1.0,4.0,4.0,421.9247050000376,4.0,1.0,phase_1,,,,,,,,,,,,,white,hexagon
186.0,1.0,0.5,0.0,2.0,2.0,418.2523220001712,4.0,1.0,phase_1,,,,,,,,,,,,,blue,cross
1324.0,4.0,4.0,0.0,2.0,2.0,376.5126940002119,4.0,1.0,phase_1,,,,,,,,,,,,,green,circle
0.0,1.0,0.0,0.0,1.0,1.0,483.8490340002863,4.0,1.0,phase_1,,,,,,,,,,,,,blue,cross
0.0,4.0,0.0,0.0,3.0,3.0,480.0176449998616,4.0,1.0,phase_1,,,,,,,,,,,,,green,circle
347.0,6.0,1.0,1.0,2.0,2.0,366.1199319999468,4.0,1.0,phase_1,,,,,,,,,,,,,orange,I
325.0,2.0,1.0,0.0,1.0,1.0,394.8312160000569,4.0,1.0,phase_1,,,,,,,,,,,,,magenta,diamond
627.0,3.0,2.0,0.0,4.0,4.0,392.7283940001871,4.0,1.0,phase_1,,,,,,,,,,,,,yellow,square
143.0,5.0,0.5,1.0,2.0,2.0,458.0560320000586,4.0,1.0,phase_1,,,,,,,,,,,,,white,hexagon
321.0,2.0,1.0,0.0,4.0,4.0,634.2502290003722,4.0,1.0,phase_1,,,,,,,,,,,,,magenta,diamond
0.0,2.0,0.0,0.0,4.0,4.0,427.6837929996873,4.0,1.0,phase_1,,,,,,,,,,,,,magenta,diamond
158.0,1.0,0.5,0.0,3.0,3.0,435.5355329998929,4.0,1.0,phase_1,,,,,,,,,,,,,blue,cross
0.0,1.0,0.0,0.0,2.0,2.0,647.5160820000383,4.0,1.0,phase_1,,,,,,,,,,,,,blue,cross
1297.0,8.0,4.0,1.0,3.0,3.0,537.5192209999113,4.0,1.0,phase_1,,,,,,,,,,,,,gray,flipped triangle
0.0,7.0,0.0,1.0,2.0,2.0,526.4450639997449,4.0,1.0,phase_1,,,,,,,,,,,,,cyan,triangle
630.0,3.0,2.0,0.0,4.0,4.0,362.7233689999229,4.0,1.0,phase_1,,,,,,,,,,,,,yellow,square
648.0,3.0,2.0,0.0,3.0,3.0,401.672662999772,4.0,1.0,phase_1,,,,,,,,,,,,,yellow,square
0.0,6.0,0.0,1.0,1.0,1.0,444.984339000257,4.0,1.0,phase_1,,,,,,,,,,,,,orange,I
327.0,2.0,1.0,0.0,3.0,3.0,538.6580649997086,4.0,1.0,phase_1,,,,,,,,,,,,,magenta,diamond
183.0,1.0,0.5,0.0,2.0,2.0,469.207489999917,4.0,1.0,phase_1,,,,,,,,,,,,,blue,cross
0.0,7.0,0.0,1.0,3.0,3.0,458.6342109996622,4.0,1.0,phase_1,,,,,,,,,,,,,cyan,triangle
638.0,7.0,2.0,1.0,2.0,2.0,398.2955259998562,4.0,1.0,phase_1,,,,,,,,,,,,,cyan,triangle
0.0,5.0,0.0,1.0,2.0,2.0,484.0111600001364,4.0,1.0,phase_1,,,,,,,,,,,,,white,hexagon
0.0,6.0,0.0,1.0,1.0,1.0,608.0150500001764,4.0,1.0,phase_1,,,,,,,,,,,,,orange,I
0.0,5.0,0.0,1.0,2.0,2.0,421.5760140000384,4.0,1.0,phase_1,,,,,,,,,,,,,white,hexagon
633.0,3.0,2.0,0.0,1.0,1.0,329.242104000059,4.0,1.0,phase_1,,,,,,,,,,,,,yellow,square
1286.0,8.0,4.0,1.0,1.0,1.0,397.2971670000333,4.0,1.0,phase_1,,,,,,,,,,,,,gray,flipped triangle
1294.0,8.0,4.0,1.0,4.0,4.0,394.5901729998695,4.0,1.0,phase_1,,,,,,,,,,,,,gray,flipped triangle
665.0,3.0,2.0,0.0,4.0,4.0,383.4204440004214,4.0,1.0,phase_1,,,,,,,,,,,,,yellow,square
630.0,7.0,2.0,1.0,1.0,1.0,413.5286219998306,4.0,1.0,phase_1,,,,,,,,,,,,,cyan,triangle
323.0,2.0,1.0,0.0,1.0,1.0,496.1568090002402,4.0,1.0,phase_1,,,,,,,,,,,,,magenta,diamond
0.0,1.0,0.5,0.0,6.0,6.0,599.0708730000733,1.0,1.0,phase_2,go,250.0,250.0,1.0,,,,,,,,,blue,cross
0.0,5.0,0.5,1.0,5.0,5.0,533.9705100000174,1.0,1.0,phase_2,go,250.0,250.0,1.0,,,,,,,,,white,hexagon
0.0,1.0,0.5,0.0,6.0,6.0,987.8862189998472,1.0,1.0,phase_2,go,250.0,250.0,1.0,,,,,,,,,blue,cross
0.0,5.0,0.5,1.0,5.0,0.0,0.0,1.0,1.0,phase_2,stop,250.0,250.0,4.0,,,,,,,,,white,hexagon
0.0,6.0,1.0,1.0,5.0,0.0,0.0,1.0,1.0,phase_2,stop,300.0,250.0,4.0,,,,,,,,,orange,I
0.0,1.0,0.5,0.0,6.0,6.0,562.2003780003979,1.0,1.0,phase_2,go,350.0,250.0,1.0,,,,,,,,,blue,cross
0.0,5.0,0.5,1.0,6.0,6.0,787.1693820002292,1.0,1.0,phase_2,go,350.0,250.0,1.0,,,,,,,,,white,hexagon
0.0,2.0,1.0,0.0,6.0,6.0,658.8524230000985,1.0,1.0,phase_2,go,350.0,250.0,1.0,,,,,,,,,magenta,diamond
0.0,5.0,0.5,1.0,6.0,0.0,0.0,1.0,1.0,phase_2,stop,350.0,250.0,4.0,,,,,,,,,white,hexagon
0.0,1.0,0.5,0.0,6.0,6.0,919.0639380003632,1.0,1.0,phase_2,go,350.0,300.0,1.0,,,,,,,,,blue,cross
0.0,1.0,0.5,0.0,6.0,6.0,814.486807999856,1.0,1.0,phase_2,go,350.0,300.0,1.0,,,,,,,,,blue,cross
0.0,4.0,4.0,0.0,6.0,6.0,869.4518960001005,1.0,1.0,phase_2,go,350.0,300.0,1.0,,,,,,,,,green,circle
0.0,7.0,2.0,1.0,6.0,0.0,0.0,1.0,1.0,phase_2,stop,350.0,300.0,4.0,,,,,,,,,cyan,triangle
0.0,4.0,4.0,0.0,6.0,6.0,685.4397199999767,1.0,1.0,phase_2,go,350.0,350.0,1.0,,,,,,,,,green,circle
0.0,3.0,2.0,0.0,6.0,6.0,878.2079239999803,1.0,1.0,phase_2,go,350.0,350.0,1.0,,,,,,,,,yellow,square
0.0,1.0,0.5,0.0,5.0,5.0,885.5882160000874,1.0,1.0,phase_2,go,350.0,350.0,1.0,,,,,,,,,blue,cross
0.0,8.0,4.0,1.0,6.0,0.0,0.0,1.0,1.0,phase_2,stop,350.0,350.0,4.0,,,,,,,,,gray,flipped triangle
0.0,5.0,0.5,1.0,6.0,0.0,0.0,1.0,1.0,phase_2,stop,350.0,400.0,4.0,,,,,,,,,white,hexagon
0.0,6.0,1.0,1.0,6.0,0.0,0.0,1.0,1.0,phase_2,stop,350.0,450.0,4.0,,,,,,,,,orange,I
0.0,7.0,2.0,1.0,6.0,6.0,867.6366099998631,1.0,1.0,phase_2,go,350.0,500.0,1.0,,,,,,,,,cyan,triangle
0.0,3.0,2.0,0.0,6.0,6.0,993.1282019997524,1.0,1.0,phase_2,go,350.0,500.0,1.0,,,,,,,,,yellow,square
0.0,3.0,2.0,0.0,5.0,5.0,1017.0814020002581,1.0,1.0,phase_2,go,350.0,500.0,1.0,,,,,,,,,yellow,square
0.0,1.0,0.5,0.0,5.0,5.0,671.8606080003156,1.0,1.0,phase_2,go,350.0,500.0,1.0,,,,,,,,,blue,cross
0.0,4.0,4.0,0.0,5.0,5.0,871.0435279999729,1.0,1.0,phase_2,go,350.0,500.0,1.0,,,,,,,,,green,circle
0.0,2.0,1.0,0.0,6.0,6.0,1197.7172269998846,1.0,1.0,phase_2,go,350.0,500.0,1.0,,,,,,,,,magenta,diamond
0.0,6.0,1.0,1.0,6.0,0.0,0.0,1.0,1.0,phase_2,stop,350.0,500.0,4.0,,,,,,,,,orange,I
0.0,5.0,0.5,1.0,5.0,0.0,0.0,1.0,1.0,phase_2,stop,350.0,550.0,4.0,,,,,,,,,white,hexagon
0.0,5.0,0.5,1.0,6.0,0.0,0.0,1.0,1.0,phase_2,stop,400.0,550.0,4.0,,,,,,,,,white,hexagon
0.0,4.0,4.0,0.0,6.0,6.0,757.675895000375,1.0,1.0,phase_2,go,400.0,600.0,1.0,,,,,,,,,green,circle
0.0,2.0,1.0,0.0,6.0,6.0,882.7025850000609,1.0,1.0,phase_2,go,400.0,600.0,1.0,,,,,,,,,magenta,diamond
0.0,6.0,1.0,1.0,6.0,0.0,0.0,1.0,1.0,phase_2,stop,400.0,600.0,4.0,,,,,,,,,orange,I
0.0,8.0,4.0,1.0,6.0,0.0,0.0,1.0,1.0,phase_2,stop,400.0,650.0,4.0,,,,,,,,,gray,flipped triangle
0.0,7.0,2.0,1.0,6.0,6.0,849.6986069999366,1.0,1.0,phase_2,stop,400.0,700.0,3.0,,,,,,,,,cyan,triangle
0.0,2.0,1.0,0.0,5.0,5.0,738.9070399999582,1.0,1.0,phase_2,go,400.0,650.0,1.0,,,,,,,,,magenta,diamond
0.0,8.0,4.0,1.0,6.0,0.0,0.0,1.0,1.0,phase_2,stop,400.0,650.0,4.0,,,,,,,,,gray,flipped triangle
0.0,4.0,4.0,0.0,5.0,5.0,1015.5731270001525,1.0,1.0,phase_2,go,400.0,700.0,1.0,,,,,,,,,green,circle
0.0,1.0,0.5,0.0,6.0,6.0,762.8518309998071,2.0,1.0,phase_2,go,400.0,700.0,1.0,,,,,,,,,blue,cross
0.0,2.0,1.0,0.0,5.0,5.0,323.4042849999241,2.0,1.0,phase_2,go,400.0,700.0,1.0,,,,,,,,,magenta,diamond
0.0,5.0,0.5,1.0,6.0,0.0,0.0,2.0,1.0,phase_2,stop,400.0,700.0,4.0,,,,,,,,,white,hexagon
0.0,7.0,2.0,1.0,5.0,0.0,0.0,2.0,1.0,phase_2,stop,400.0,750.0,4.0,,,,,,,,,cyan,triangle
0.0,3.0,2.0,0.0,5.0,5.0,689.0991499999473,2.0,1.0,phase_2,go,450.0,750.0,1.0,,,,,,,,,yellow,square
0.0,3.0,2.0,0.0,5.0,5.0,937.858623000011,2.0,1.0,phase_2,go,450.0,750.0,1.0,,,,,,,,,yellow,square
0.0,3.0,2.0,0.0,5.0,5.0,937.7849580000656,2.0,1.0,phase_2,go,450.0,750.0,1.0,,,,,,,,,yellow,square
0.0,8.0,4.0,1.0,6.0,0.0,0.0,2.0,1.0,phase_2,stop,450.0,750.0,4.0,,,,,,,,,gray,flipped triangle
0.0,8.0,4.0,1.0,5.0,0.0,0.0,2.0,1.0,phase_2,stop,450.0,800.0,4.0,,,,,,,,,gray,flipped triangle
0.0,7.0,2.0,1.0,5.0,0.0,0.0,2.0,1.0,phase_2,stop,500.0,800.0,4.0,,,,,,,,,cyan,triangle
0.0,2.0,1.0,0.0,5.0,5.0,383.263115000318,2.0,1.0,phase_2,go,550.0,800.0,1.0,,,,,,,,,magenta,diamond
0.0,4.0,4.0,0.0,5.0,5.0,694.9571089999154,2.0,1.0,phase_2,go,550.0,800.0,1.0,,,,,,,,,green,circle
0.0,1.0,0.5,0.0,6.0,6.0,692.2370980000778,2.0,1.0,phase_2,go,550.0,800.0,1.0,,,,,,,,,blue,cross
0.0,3.0,2.0,0.0,6.0,6.0,668.1359019999036,2.0,1.0,phase_2,go,550.0,800.0,1.0,,,,,,,,,yellow,square
0.0,1.0,0.5,0.0,6.0,6.0,1044.754256000033,2.0,1.0,phase_2,go,550.0,800.0,1.0,,,,,,,,,blue,cross
0.0,7.0,2.0,1.0,5.0,0.0,0.0,2.0,1.0,phase_2,stop,550.0,800.0,4.0,,,,,,,,,cyan,triangle
0.0,3.0,2.0,0.0,6.0,6.0,1105.1118529999258,2.0,1.0,phase_2,go,600.0,800.0,1.0,,,,,,,,,yellow,square
0.0,8.0,4.0,1.0,6.0,0.0,0.0,2.0,1.0,phase_2,stop,600.0,800.0,4.0,,,,,,,,,gray,flipped triangle
0.0,2.0,1.0,0.0,6.0,6.0,1073.974883000119,2.0,1.0,phase_2,go,600.0,850.0,1.0,,,,,,,,,magenta,diamond
0.0,5.0,0.5,1.0,5.0,0.0,0.0,2.0,1.0,phase_2,stop,600.0,850.0,4.0,,,,,,,,,white,hexagon
0.0,8.0,4.0,1.0,6.0,0.0,0.0,2.0,1.0,phase_2,stop,650.0,850.0,4.0,,,,,,,,,gray,flipped triangle
0.0,5.0,0.5,1.0,5.0,5.0,1461.8460970000342,2.0,1.0,phase_2,go,650.0,900.0,1.0,,,,,,,,,white,hexagon
0.0,2.0,1.0,0.0,5.0,5.0,605.5132299998149,2.0,1.0,phase_2,go,650.0,900.0,1.0,,,,,,,,,magenta,diamond
0.0,8.0,4.0,1.0,6.0,6.0,886.8492970000261,2.0,1.0,phase_2,stop,650.0,900.0,3.0,,,,,,,,,gray,flipped triangle
0.0,6.0,1.0,1.0,5.0,5.0,684.4908650000434,2.0,1.0,phase_2,stop,650.0,850.0,3.0,,,,,,,,,orange,I
0.0,8.0,4.0,1.0,6.0,0.0,0.0,2.0,1.0,phase_2,stop,600.0,850.0,4.0,,,,,,,,,gray,flipped triangle
0.0,4.0,4.0,0.0,5.0,5.0,875.7589759998154,2.0,1.0,phase_2,go,600.0,900.0,1.0,,,,,,,,,green,circle
0.0,3.0,2.0,0.0,5.0,5.0,491.5589849997559,2.0,1.0,phase_2,go,600.0,900.0,1.0,,,,,,,,,yellow,square
0.0,6.0,1.0,1.0,5.0,0.0,0.0,2.0,1.0,phase_2,stop,600.0,900.0,4.0,,,,,,,,,orange,I
0.0,1.0,0.5,0.0,5.0,5.0,1139.4388240000808,2.0,1.0,phase_2,go,650.0,900.0,1.0,,,,,,,,,blue,cross
0.0,4.0,4.0,0.0,6.0,6.0,1192.3044719997051,2.0,1.0,phase_2,go,650.0,900.0,1.0,,,,,,,,,green,circle
0.0,8.0,4.0,1.0,5.0,0.0,0.0,2.0,1.0,phase_2,stop,650.0,900.0,4.0,,,,,,,,,gray,flipped triangle
0.0,1.0,0.5,0.0,5.0,5.0,1015.3821220001191,2.0,1.0,phase_2,go,700.0,900.0,1.0,,,,,,,,,blue,cross
0.0,3.0,2.0,0.0,6.0,6.0,1142.455591000271,2.0,1.0,phase_2,go,700.0,900.0,1.0,,,,,,,,,yellow,square
0.0,2.0,1.0,0.0,6.0,6.0,1104.4659320000392,2.0,1.0,phase_2,go,700.0,900.0,1.0,,,,,,,,,magenta,diamond
0.0,6.0,1.0,1.0,6.0,6.0,1087.9071260001183,2.0,1.0,phase_2,go,700.0,900.0,1.0,,,,,,,,,orange,I
0.0,1.0,0.5,0.0,5.0,5.0,996.7128130001583,3.0,1.0,phase_2,go,700.0,900.0,1.0,,,,,,,,,blue,cross
0.0,4.0,4.0,0.0,6.0,6.0,413.0723570001464,3.0,1.0,phase_2,go,700.0,900.0,1.0,,,,,,,,,green,circle
0.0,5.0,0.5,1.0,6.0,6.0,411.5693260000626,3.0,1.0,phase_2,stop,700.0,900.0,3.0,,,,,,,,,white,hexagon
0.0,3.0,2.0,0.0,5.0,5.0,866.3457590000689,3.0,1.0,phase_2,go,700.0,850.0,1.0,,,,,,,,,yellow,square
0.0,6.0,1.0,1.0,5.0,5.0,717.3884630001339,3.0,1.0,phase_2,stop,700.0,850.0,3.0,,,,,,,,,orange,I
0.0,1.0,0.5,0.0,5.0,5.0,665.4148090001399,3.0,1.0,phase_2,go,650.0,850.0,1.0,,,,,,,,,blue,cross
0.0,7.0,2.0,1.0,5.0,5.0,617.6621590002469,3.0,1.0,phase_2,stop,650.0,850.0,3.0,,,,,,,,,cyan,triangle
0.0,3.0,2.0,0.0,6.0,6.0,969.9241600001188,3.0,1.0,phase_2,go,600.0,850.0,1.0,,,,,,,,,yellow,square
0.0,7.0,2.0,1.0,6.0,6.0,410.1334980000501,3.0,1.0,phase_2,stop,600.0,850.0,3.0,,,,,,,,,cyan,triangle
0.0,7.0,2.0,1.0,6.0,0.0,0.0,3.0,1.0,phase_2,stop,600.0,800.0,4.0,,,,,,,,,cyan,triangle
0.0,4.0,4.0,0.0,6.0,6.0,926.9771889998992,3.0,1.0,phase_2,go,600.0,850.0,1.0,,,,,,,,,green,circle
0.0,1.0,0.5,0.0,6.0,6.0,661.4922759999899,3.0,1.0,phase_2,go,600.0,850.0,1.0,,,,,,,,,blue,cross
0.0,5.0,0.5,1.0,6.0,6.0,583.2167730000037,3.0,1.0,phase_2,stop,600.0,850.0,3.0,,,,,,,,,white,hexagon
0.0,7.0,2.0,1.0,6.0,6.0,950.075396000102,3.0,1.0,phase_2,stop,600.0,800.0,3.0,,,,,,,,,cyan,triangle
0.0,4.0,4.0,0.0,6.0,6.0,1499.4090250002046,3.0,1.0,phase_2,go,600.0,750.0,1.0,,,,,,,,,green,circle
0.0,6.0,1.0,1.0,6.0,6.0,827.6556729997537,3.0,1.0,phase_2,stop,600.0,750.0,3.0,,,,,,,,,orange,I
0.0,6.0,1.0,1.0,6.0,0.0,0.0,3.0,1.0,phase_2,stop,600.0,700.0,4.0,,,,,,,,,orange,I
0.0,8.0,4.0,1.0,6.0,0.0,0.0,3.0,1.0,phase_2,stop,600.0,750.0,4.0,,,,,,,,,gray,flipped triangle
0.0,3.0,2.0,0.0,6.0,6.0,842.702095000277,3.0,1.0,phase_2,go,600.0,800.0,1.0,,,,,,,,,yellow,square
0.0,6.0,1.0,1.0,6.0,6.0,729.7550230000525,3.0,1.0,phase_2,stop,600.0,800.0,3.0,,,,,,,,,orange,I
0.0,2.0,1.0,0.0,5.0,5.0,1072.2576829998616,3.0,1.0,phase_2,go,600.0,750.0,1.0,,,,,,,,,magenta,diamond
0.0,8.0,4.0,1.0,5.0,0.0,0.0,3.0,1.0,phase_2,stop,600.0,750.0,4.0,,,,,,,,,gray,flipped triangle
0.0,7.0,2.0,1.0,5.0,5.0,944.014371999856,3.0,1.0,phase_2,go,650.0,750.0,1.0,,,,,,,,,cyan,triangle
0.0,2.0,1.0,0.0,6.0,6.0,838.1863869999506,3.0,1.0,phase_2,go,650.0,750.0,1.0,,,,,,,,,magenta,diamond
0.0,3.0,2.0,0.0,6.0,6.0,1054.0742230000433,3.0,1.0,phase_2,go,650.0,750.0,1.0,,,,,,,,,yellow,square
0.0,2.0,1.0,0.0,5.0,5.0,351.3630550000926,3.0,1.0,phase_2,go,650.0,750.0,1.0,,,,,,,,,magenta,diamond
0.0,6.0,1.0,1.0,5.0,5.0,1301.9842590001645,3.0,1.0,phase_2,go,650.0,750.0,1.0,,,,,,,,,orange,I
0.0,8.0,4.0,1.0,6.0,0.0,0.0,3.0,1.0,phase_2,stop,650.0,750.0,4.0,,,,,,,,,gray,flipped triangle
0.0,1.0,0.5,0.0,5.0,5.0,925.9037900001204,3.0,1.0,phase_2,go,650.0,800.0,1.0,,,,,,,,,blue,cross
0.0,5.0,0.5,1.0,5.0,0.0,0.0,3.0,1.0,phase_2,stop,650.0,800.0,4.0,,,,,,,,,white,hexagon
0.0,8.0,4.0,1.0,5.0,5.0,1106.7603980000058,3.0,1.0,phase_2,go,700.0,800.0,1.0,,,,,,,,,gray,flipped triangle
0.0,2.0,1.0,0.0,6.0,0.0,0.0,3.0,1.0,phase_2,go,700.0,800.0,5.0,,,,,,,,,magenta,diamond
0.0,8.0,4.0,1.0,5.0,0.0,0.0,3.0,1.0,phase_2,stop,700.0,800.0,4.0,,,,,,,,,gray,flipped triangle
0.0,1.0,0.5,0.0,5.0,5.0,880.9928780001428,3.0,1.0,phase_2,go,750.0,800.0,1.0,,,,,,,,,blue,cross
0.0,4.0,4.0,0.0,6.0,6.0,782.7321639997535,3.0,1.0,phase_2,go,750.0,800.0,1.0,,,,,,,,,green,circle
0.0,1.0,0.5,0.0,5.0,5.0,471.7683869998836,3.0,1.0,phase_2,go,750.0,800.0,1.0,,,,,,,,,blue,cross
0.0,1.0,0.5,0.0,5.0,5.0,799.2742679998628,4.0,1.0,phase_2,go,750.0,800.0,1.0,,,,,,,,,blue,cross
0.0,5.0,0.5,1.0,5.0,5.0,423.2678490002399,4.0,1.0,phase_2,stop,750.0,800.0,3.0,,,,,,,,,white,hexagon
0.0,6.0,1.0,1.0,6.0,6.0,911.7915960000572,4.0,1.0,phase_2,go,700.0,800.0,1.0,,,,,,,,,orange,I
0.0,6.0,1.0,1.0,5.0,5.0,756.3245599999391,4.0,1.0,phase_2,go,700.0,800.0,1.0,,,,,,,,,orange,I
0.0,2.0,1.0,0.0,6.0,6.0,1052.4625789998936,4.0,1.0,phase_2,go,700.0,800.0,1.0,,,,,,,,,magenta,diamond
0.0,3.0,2.0,0.0,6.0,6.0,1002.8618589999496,4.0,1.0,phase_2,go,700.0,800.0,1.0,,,,,,,,,yellow,square
0.0,8.0,4.0,1.0,5.0,5.0,955.4557960000238,4.0,1.0,phase_2,stop,700.0,800.0,3.0,,,,,,,,,gray,flipped triangle
0.0,6.0,1.0,1.0,5.0,0.0,0.0,4.0,1.0,phase_2,stop,650.0,800.0,4.0,,,,,,,,,orange,I
0.0,4.0,4.0,0.0,5.0,5.0,810.2289879998352,4.0,1.0,phase_2,go,700.0,800.0,1.0,,,,,,,,,green,circle
0.0,1.0,0.5,0.0,6.0,6.0,817.9617549999421,4.0,1.0,phase_2,go,700.0,800.0,1.0,,,,,,,,,blue,cross
0.0,4.0,4.0,0.0,6.0,6.0,936.7064550001488,4.0,1.0,phase_2,go,700.0,800.0,1.0,,,,,,,,,green,circle
0.0,2.0,1.0,0.0,5.0,5.0,785.9151100001327,4.0,1.0,phase_2,go,700.0,800.0,1.0,,,,,,,,,magenta,diamond
0.0,5.0,0.5,1.0,5.0,5.0,918.5683769997012,4.0,1.0,phase_2,go,700.0,800.0,1.0,,,,,,,,,white,hexagon
0.0,1.0,0.5,0.0,5.0,5.0,784.421686999849,4.0,1.0,phase_2,go,700.0,800.0,1.0,,,,,,,,,blue,cross
0.0,2.0,1.0,0.0,6.0,6.0,792.1924799998123,4.0,1.0,phase_2,go,700.0,800.0,1.0,,,,,,,,,magenta,diamond
0.0,2.0,1.0,0.0,5.0,5.0,783.300381999652,4.0,1.0,phase_2,go,700.0,800.0,1.0,,,,,,,,,magenta,diamond
0.0,5.0,0.5,1.0,6.0,6.0,383.1547660001888,4.0,1.0,phase_2,stop,700.0,800.0,3.0,,,,,,,,,white,hexagon
0.0,1.0,0.5,0.0,5.0,5.0,796.3520089997473,4.0,1.0,phase_2,go,700.0,750.0,1.0,,,,,,,,,blue,cross
0.0,6.0,1.0,1.0,5.0,0.0,0.0,4.0,1.0,phase_2,stop,700.0,750.0,4.0,,,,,,,,,orange,I
0.0,7.0,2.0,1.0,5.0,5.0,906.4675169997828,4.0,1.0,phase_2,stop,750.0,750.0,3.0,,,,,,,,,cyan,triangle
0.0,6.0,1.0,1.0,6.0,6.0,1234.5570039997256,4.0,1.0,phase_2,go,700.0,750.0,1.0,,,,,,,,,orange,I
0.0,6.0,1.0,1.0,6.0,6.0,883.7269760001618,4.0,1.0,phase_2,stop,700.0,750.0,3.0,,,,,,,,,orange,I
0.0,7.0,2.0,1.0,6.0,6.0,1274.491814999692,4.0,1.0,phase_2,go,700.0,700.0,1.0,,,,,,,,,cyan,triangle
0.0,7.0,2.0,1.0,5.0,5.0,1128.1314299999394,4.0,1.0,phase_2,go,700.0,700.0,1.0,,,,,,,,,cyan,triangle
0.0,1.0,0.5,0.0,6.0,6.0,1096.3419820000126,4.0,1.0,phase_2,go,700.0,700.0,1.0,,,,,,,,,blue,cross
0.0,6.0,1.0,1.0,5.0,0.0,0.0,4.0,1.0,phase_2,stop,700.0,700.0,4.0,,,,,,,,,orange,I
0.0,2.0,1.0,0.0,5.0,5.0,1150.1364089999695,4.0,1.0,phase_2,go,750.0,700.0,1.0,,,,,,,,,magenta,diamond
0.0,5.0,0.5,1.0,5.0,0.0,0.0,4.0,1.0,phase_2,stop,750.0,700.0,4.0,,,,,,,,,white,hexagon
0.0,1.0,0.5,0.0,5.0,5.0,1038.138508999964,4.0,1.0,phase_2,go,800.0,700.0,1.0,,,,,,,,,blue,cross
0.0,6.0,1.0,1.0,5.0,0.0,0.0,4.0,1.0,phase_2,stop,800.0,700.0,4.0,,,,,,,,,orange,I
0.0,5.0,0.5,1.0,5.0,0.0,0.0,4.0,1.0,phase_2,stop,850.0,700.0,4.0,,,,,,,,,white,hexagon
0.0,6.0,1.0,1.0,5.0,5.0,1197.0906159999686,4.0,1.0,phase_2,go,900.0,700.0,1.0,,,,,,,,,orange,I
0.0,6.0,1.0,1.0,5.0,0.0,0.0,4.0,1.0,phase_2,stop,900.0,700.0,4.0,,,,,,,,,orange,I
0.0,5.0,0.5,1.0,5.0,0.0,0.0,4.0,1.0,phase_2,stop,950.0,700.0,4.0,,,,,,,,,white,hexagon
0.0,5.0,0.5,1.0,6.0,0.0,0.0,4.0,1.0,phase_2,stop,1000.0,700.0,4.0,,,,,,,,,white,hexagon
0.0,3.0,2.0,0.0,5.0,5.0,810.0554449997617,4.0,1.0,phase_2,go,1000.0,750.0,1.0,,,,,,,,,yellow,square
0.0,3.0,2.0,0.0,5.0,5.0,544.7088989999429,5.0,1.0,phase_2,go,1000.0,750.0,1.0,,,,,,,,,yellow,square
0.0,2.0,1.0,0.0,6.0,6.0,353.9255689997844,5.0,1.0,phase_2,go,1000.0,750.0,1.0,,,,,,,,,magenta,diamond
0.0,2.0,1.0,0.0,6.0,6.0,313.7773480002579,5.0,1.0,phase_2,go,1000.0,750.0,1.0,,,,,,,,,magenta,diamond
0.0,4.0,4.0,0.0,5.0,5.0,383.4644190001199,5.0,1.0,phase_2,go,1000.0,750.0,1.0,,,,,,,,,green,circle
0.0,6.0,1.0,1.0,5.0,5.0,749.7093569995741,5.0,1.0,phase_2,stop,1000.0,750.0,3.0,,,,,,,,,orange,I
0.0,5.0,0.5,1.0,6.0,6.0,781.6033200001584,5.0,1.0,phase_2,stop,950.0,750.0,3.0,,,,,,,,,white,hexagon
0.0,7.0,2.0,1.0,5.0,5.0,1029.3176210002457,5.0,1.0,phase_2,go,950.0,700.0,1.0,,,,,,,,,cyan,triangle
0.0,8.0,4.0,1.0,6.0,0.0,0.0,5.0,1.0,phase_2,stop,950.0,700.0,4.0,,,,,,,,,gray,flipped triangle
0.0,7.0,2.0,1.0,5.0,5.0,987.8961140002502,5.0,1.0,phase_2,stop,950.0,750.0,3.0,,,,,,,,,cyan,triangle
0.0,7.0,2.0,1.0,5.0,5.0,874.6767170000567,5.0,1.0,phase_2,stop,900.0,750.0,3.0,,,,,,,,,cyan,triangle
0.0,2.0,1.0,0.0,5.0,5.0,1234.7130119997018,5.0,1.0,phase_2,go,850.0,750.0,1.0,,,,,,,,,magenta,diamond
0.0,7.0,2.0,1.0,6.0,6.0,609.8986740003056,5.0,1.0,phase_2,go,850.0,750.0,1.0,,,,,,,,,cyan,triangle
0.0,4.0,4.0,0.0,5.0,5.0,355.2376389998244,5.0,1.0,phase_2,go,850.0,750.0,1.0,,,,,,,,,green,circle
0.0,4.0,4.0,0.0,5.0,5.0,377.1645410001838,5.0,1.0,phase_2,go,850.0,750.0,1.0,,,,,,,,,green,circle
0.0,1.0,0.5,0.0,5.0,5.0,759.9496520001594,5.0,1.0,phase_2,go,850.0,750.0,1.0,,,,,,,,,blue,cross
0.0,1.0,0.5,0.0,6.0,6.0,1239.4928329999857,5.0,1.0,phase_2,go,850.0,750.0,1.0,,,,,,,,,blue,cross
0.0,1.0,0.5,0.0,5.0,5.0,976.179434000187,5.0,1.0,phase_2,go,850.0,750.0,1.0,,,,,,,,,blue,cross
0.0,7.0,2.0,1.0,6.0,6.0,509.6239110002898,5.0,1.0,phase_2,stop,850.0,750.0,3.0,,,,,,,,,cyan,triangle
0.0,3.0,2.0,0.0,6.0,6.0,975.4688719999648,5.0,1.0,phase_2,go,850.0,700.0,1.0,,,,,,,,,yellow,square
0.0,6.0,1.0,1.0,5.0,5.0,1262.8602120003052,5.0,1.0,phase_2,go,850.0,700.0,1.0,,,,,,,,,orange,I
0.0,1.0,0.5,0.0,6.0,6.0,876.5762450002512,5.0,1.0,phase_2,go,850.0,700.0,1.0,,,,,,,,,blue,cross
0.0,4.0,4.0,0.0,6.0,6.0,949.3604379999852,5.0,1.0,phase_2,go,850.0,700.0,1.0,,,,,,,,,green,circle
0.0,5.0,0.5,1.0,6.0,0.0,0.0,5.0,1.0,phase_2,stop,850.0,700.0,4.0,,,,,,,,,white,hexagon
0.0,7.0,2.0,1.0,5.0,0.0,0.0,5.0,1.0,phase_2,stop,850.0,750.0,4.0,,,,,,,,,cyan,triangle
0.0,5.0,0.5,1.0,6.0,0.0,0.0,5.0,1.0,phase_2,stop,900.0,750.0,4.0,,,,,,,,,white,hexagon
0.0,4.0,4.0,0.0,6.0,6.0,1209.3115249999755,5.0,1.0,phase_2,go,900.0,800.0,1.0,,,,,,,,,green,circle
0.0,2.0,1.0,0.0,6.0,6.0,954.099430000042,5.0,1.0,phase_2,go,900.0,800.0,1.0,,,,,,,,,magenta,diamond
0.0,3.0,2.0,0.0,5.0,5.0,391.2505960001908,5.0,1.0,phase_2,go,900.0,800.0,1.0,,,,,,,,,yellow,square
0.0,2.0,1.0,0.0,5.0,5.0,825.5501809999259,5.0,1.0,phase_2,go,900.0,800.0,1.0,,,,,,,,,magenta,diamond
0.0,8.0,4.0,1.0,5.0,5.0,448.59957200014827,5.0,1.0,phase_2,stop,900.0,800.0,3.0,,,,,,,,,gray,flipped triangle
0.0,3.0,2.0,0.0,5.0,5.0,1262.1397109996906,5.0,1.0,phase_2,go,850.0,800.0,1.0,,,,,,,,,yellow,square
0.0,1.0,0.5,0.0,5.0,5.0,1279.0361170000324,5.0,1.0,phase_2,go,850.0,800.0,1.0,,,,,,,,,blue,cross
0.0,3.0,2.0,0.0,6.0,6.0,1229.7041710003214,5.0,1.0,phase_2,go,850.0,800.0,1.0,,,,,,,,,yellow,square
0.0,6.0,1.0,1.0,5.0,0.0,0.0,5.0,1.0,phase_2,stop,850.0,800.0,4.0,,,,,,,,,orange,I
0.0,4.0,4.0,0.0,5.0,5.0,1469.189913000264,5.0,1.0,phase_2,go,900.0,800.0,1.0,,,,,,,,,green,circle
0.0,4.0,4.0,0.0,6.0,6.0,1060.23560299991,5.0,1.0,phase_2,go,900.0,800.0,1.0,,,,,,,,,green,circle
0.0,5.0,0.5,1.0,5.0,0.0,0.0,6.0,1.0,phase_2,stop,900.0,800.0,4.0,,,,,,,,,white,hexagon
0.0,3.0,2.0,0.0,5.0,5.0,567.8989240000192,6.0,1.0,phase_2,go,950.0,800.0,1.0,,,,,,,,,yellow,square
0.0,2.0,1.0,0.0,5.0,5.0,504.1648790002,6.0,1.0,phase_2,go,950.0,800.0,1.0,,,,,,,,,magenta,diamond
0.0,6.0,1.0,1.0,5.0,5.0,369.4837050002206,6.0,1.0,phase_2,stop,950.0,800.0,3.0,,,,,,,,,orange,I
0.0,7.0,2.0,1.0,6.0,6.0,758.964646000095,6.0,1.0,phase_2,stop,900.0,800.0,3.0,,,,,,,,,cyan,triangle
0.0,6.0,1.0,1.0,6.0,6.0,888.6111209999399,6.0,1.0,phase_2,go,900.0,750.0,1.0,,,,,,,,,orange,I
0.0,4.0,4.0,0.0,6.0,6.0,1118.191879999813,6.0,1.0,phase_2,go,900.0,750.0,1.0,,,,,,,,,green,circle
0.0,4.0,4.0,0.0,6.0,6.0,429.4154750000416,6.0,1.0,phase_2,go,900.0,750.0,1.0,,,,,,,,,green,circle
0.0,4.0,4.0,0.0,6.0,6.0,412.6488639999479,6.0,1.0,phase_2,go,900.0,750.0,1.0,,,,,,,,,green,circle
0.0,8.0,4.0,1.0,5.0,5.0,459.2598730000645,6.0,1.0,phase_2,go,900.0,750.0,1.0,,,,,,,,,gray,flipped triangle
0.0,2.0,1.0,0.0,5.0,5.0,595.1608850000412,6.0,1.0,phase_2,go,900.0,750.0,1.0,,,,,,,,,magenta,diamond
0.0,5.0,0.5,1.0,5.0,5.0,930.1457790002132,6.0,1.0,phase_2,stop,900.0,750.0,3.0,,,,,,,,,white,hexagon
0.0,6.0,1.0,1.0,6.0,0.0,0.0,6.0,1.0,phase_2,stop,850.0,750.0,4.0,,,,,,,,,orange,I
0.0,4.0,4.0,0.0,5.0,5.0,945.3863270000512,6.0,1.0,phase_2,go,850.0,800.0,1.0,,,,,,,,,green,circle
0.0,8.0,4.0,1.0,5.0,5.0,714.3697739998061,6.0,1.0,phase_2,go,850.0,800.0,1.0,,,,,,,,,gray,flipped triangle
0.0,4.0,4.0,0.0,6.0,6.0,529.8677910000151,6.0,1.0,phase_2,go,850.0,800.0,1.0,,,,,,,,,green,circle
0.0,3.0,2.0,0.0,5.0,5.0,334.5129900003485,6.0,1.0,phase_2,go,850.0,800.0,1.0,,,,,,,,,yellow,square
0.0,5.0,0.5,1.0,6.0,6.0,846.3387120000334,6.0,1.0,phase_2,stop,850.0,800.0,3.0,,,,,,,,,white,hexagon
0.0,3.0,2.0,0.0,5.0,5.0,1086.5639449998523,6.0,1.0,phase_2,go,850.0,750.0,1.0,,,,,,,,,yellow,square
0.0,3.0,2.0,0.0,5.0,5.0,645.0542259999565,6.0,1.0,phase_2,go,850.0,750.0,1.0,,,,,,,,,yellow,square
0.0,2.0,1.0,0.0,6.0,6.0,1092.3772090000057,6.0,1.0,phase_2,go,850.0,750.0,1.0,,,,,,,,,magenta,diamond
0.0,5.0,0.5,1.0,6.0,6.0,542.3370180001257,6.0,1.0,phase_2,go,850.0,750.0,1.0,,,,,,,,,white,hexagon
0.0,8.0,4.0,1.0,5.0,5.0,1068.6066179996487,6.0,1.0,phase_2,go,850.0,750.0,1.0,,,,,,,,,gray,flipped triangle
0.0,3.0,2.0,0.0,6.0,6.0,1124.7806589999527,6.0,1.0,phase_2,go,850.0,750.0,1.0,,,,,,,,,yellow,square
0.0,4.0,4.0,0.0,5.0,5.0,876.4561680000043,6.0,1.0,phase_2,go,850.0,750.0,1.0,,,,,,,,,green,circle
0.0,6.0,1.0,1.0,6.0,0.0,0.0,6.0,1.0,phase_2,stop,850.0,750.0,4.0,,,,,,,,,orange,I
0.0,2.0,1.0,0.0,6.0,6.0,1281.343641999683,6.0,1.0,phase_2,go,850.0,800.0,1.0,,,,,,,,,magenta,diamond
0.0,1.0,0.5,0.0,5.0,5.0,1138.3693669999957,6.0,1.0,phase_2,go,850.0,800.0,1.0,,,,,,,,,blue,cross
0.0,4.0,4.0,0.0,5.0,5.0,1033.1850980001036,6.0,1.0,phase_2,go,850.0,800.0,1.0,,,,,,,,,green,circle
0.0,7.0,2.0,1.0,5.0,5.0,374.7298640000736,6.0,1.0,phase_2,stop,850.0,800.0,3.0,,,,,,,,,cyan,triangle
0.0,4.0,4.0,0.0,5.0,5.0,968.42175699976,6.0,1.0,phase_2,go,800.0,800.0,1.0,,,,,,,,,green,circle
0.0,1.0,0.5,0.0,6.0,6.0,629.5704719996138,6.0,1.0,phase_2,go,800.0,800.0,1.0,,,,,,,,,blue,cross
0.0,6.0,1.0,1.0,6.0,0.0,0.0,6.0,1.0,phase_2,stop,800.0,800.0,4.0,,,,,,,,,orange,I
0.0,7.0,2.0,1.0,5.0,0.0,0.0,6.0,1.0,phase_2,stop,800.0,850.0,4.0,,,,,,,,,cyan,triangle
0.0,1.0,0.5,0.0,6.0,0.0,0.0,6.0,1.0,phase_2,go,850.0,850.0,5.0,,,,,,,,,blue,cross
0.0,1.0,0.5,0.0,6.0,6.0,572.0615850000286,6.0,1.0,phase_2,go,850.0,850.0,1.0,,,,,,,,,blue,cross
0.0,3.0,2.0,0.0,5.0,5.0,360.3378739999243,7.0,1.0,phase_2,go,850.0,850.0,1.0,,,,,,,,,yellow,square
0.0,6.0,1.0,1.0,6.0,6.0,464.9139250000189,7.0,1.0,phase_2,stop,850.0,850.0,3.0,,,,,,,,,orange,I
0.0,8.0,4.0,1.0,5.0,5.0,694.2978160000166,7.0,1.0,phase_2,stop,850.0,800.0,3.0,,,,,,,,,gray,flipped triangle
0.0,7.0,2.0,1.0,5.0,5.0,1078.874561000248,7.0,1.0,phase_2,go,800.0,800.0,1.0,,,,,,,,,cyan,triangle
0.0,8.0,4.0,1.0,6.0,6.0,324.0972410003451,7.0,1.0,phase_2,stop,800.0,800.0,3.0,,,,,,,,,gray,flipped triangle
0.0,2.0,1.0,0.0,6.0,6.0,452.8629980000005,7.0,1.0,phase_2,go,800.0,750.0,1.0,,,,,,,,,magenta,diamond
0.0,3.0,2.0,0.0,6.0,6.0,453.7734219998128,7.0,1.0,phase_2,go,800.0,750.0,1.0,,,,,,,,,yellow,square
0.0,8.0,4.0,1.0,6.0,6.0,365.2974890001133,7.0,1.0,phase_2,go,800.0,750.0,1.0,,,,,,,,,gray,flipped triangle
0.0,1.0,0.5,0.0,6.0,6.0,403.9542440000332,7.0,1.0,phase_2,go,800.0,750.0,1.0,,,,,,,,,blue,cross
0.0,4.0,4.0,0.0,5.0,5.0,578.4613360001458,7.0,1.0,phase_2,go,800.0,750.0,1.0,,,,,,,,,green,circle
0.0,8.0,4.0,1.0,6.0,6.0,377.738865000083,7.0,1.0,phase_2,stop,800.0,750.0,3.0,,,,,,,,,gray,flipped triangle
0.0,1.0,0.5,0.0,6.0,6.0,642.2629439998673,7.0,1.0,phase_2,go,800.0,700.0,1.0,,,,,,,,,blue,cross
0.0,2.0,1.0,0.0,5.0,5.0,353.8512310001351,7.0,1.0,phase_2,go,800.0,700.0,1.0,,,,,,,,,magenta,diamond
0.0,3.0,2.0,0.0,5.0,5.0,327.0196690000375,7.0,1.0,phase_2,go,800.0,700.0,1.0,,,,,,,,,yellow,square
0.0,4.0,4.0,0.0,5.0,5.0,328.7143070001548,7.0,1.0,phase_2,go,800.0,700.0,1.0,,,,,,,,,green,circle
0.0,8.0,4.0,1.0,5.0,5.0,710.846073999619,7.0,1.0,phase_2,stop,800.0,700.0,3.0,,,,,,,,,gray,flipped triangle
0.0,2.0,1.0,0.0,5.0,5.0,285.9545740002431,7.0,1.0,phase_2,go,750.0,700.0,1.0,,,,,,,,,magenta,diamond
0.0,5.0,0.5,1.0,5.0,0.0,0.0,7.0,1.0,phase_2,stop,750.0,700.0,4.0,,,,,,,,,white,hexagon
0.0,8.0,4.0,1.0,5.0,5.0,1206.1042320001434,7.0,1.0,phase_2,go,800.0,700.0,1.0,,,,,,,,,gray,flipped triangle
0.0,3.0,2.0,0.0,6.0,6.0,331.4326899999287,7.0,1.0,phase_2,go,800.0,700.0,1.0,,,,,,,,,yellow,square
0.0,5.0,0.5,1.0,5.0,5.0,700.6274840000515,7.0,1.0,phase_2,go,800.0,700.0,1.0,,,,,,,,,white,hexagon
0.0,2.0,1.0,0.0,6.0,6.0,873.8077040002281,7.0,1.0,phase_2,go,800.0,700.0,1.0,,,,,,,,,magenta,diamond
0.0,5.0,0.5,1.0,6.0,6.0,866.1363139999594,7.0,1.0,phase_2,stop,800.0,700.0,3.0,,,,,,,,,white,hexagon
0.0,7.0,2.0,1.0,5.0,5.0,432.7409009997609,7.0,1.0,phase_2,stop,800.0,650.0,3.0,,,,,,,,,cyan,triangle
0.0,7.0,2.0,1.0,6.0,0.0,0.0,7.0,1.0,phase_2,stop,750.0,650.0,4.0,,,,,,,,,cyan,triangle
0.0,2.0,1.0,0.0,6.0,6.0,576.7449150002903,7.0,1.0,phase_2,go,750.0,700.0,1.0,,,,,,,,,magenta,diamond
0.0,6.0,1.0,1.0,5.0,5.0,414.5520239999314,7.0,1.0,phase_2,stop,750.0,700.0,3.0,,,,,,,,,orange,I
0.0,6.0,1.0,1.0,6.0,6.0,398.4112520001872,7.0,1.0,phase_2,stop,700.0,700.0,3.0,,,,,,,,,orange,I
0.0,3.0,2.0,0.0,6.0,6.0,950.2050020000752,7.0,1.0,phase_2,go,700.0,650.0,1.0,,,,,,,,,yellow,square
0.0,8.0,4.0,1.0,5.0,5.0,374.3565740001031,7.0,1.0,phase_2,stop,700.0,650.0,3.0,,,,,,,,,gray,flipped triangle
0.0,5.0,0.5,1.0,6.0,6.0,1028.1282519999877,7.0,1.0,phase_2,go,650.0,650.0,1.0,,,,,,,,,white,hexagon
0.0,8.0,4.0,1.0,5.0,5.0,558.0763530001605,7.0,1.0,phase_2,go,650.0,650.0,1.0,,,,,,,,,gray,flipped triangle
0.0,7.0,2.0,1.0,6.0,6.0,444.8357050000595,7.0,1.0,phase_2,stop,650.0,650.0,3.0,,,,,,,,,cyan,triangle
0.0,8.0,4.0,1.0,6.0,0.0,0.0,7.0,1.0,phase_2,stop,650.0,600.0,4.0,,,,,,,,,gray,flipped triangle
0.0,5.0,0.5,1.0,5.0,0.0,0.0,7.0,1.0,phase_2,stop,650.0,650.0,4.0,,,,,,,,,white,hexagon
0.0,1.0,0.5,0.0,5.0,5.0,1130.0522829997135,7.0,1.0,phase_2,go,700.0,650.0,1.0,,,,,,,,,blue,cross
0.0,7.0,2.0,1.0,6.0,6.0,834.993117000522,8.0,1.0,phase_2,stop,700.0,650.0,3.0,,,,,,,,,cyan,triangle
0.0,7.0,2.0,1.0,6.0,6.0,777.6358709998021,8.0,1.0,phase_2,go,700.0,600.0,1.0,,,,,,,,,cyan,triangle
0.0,8.0,4.0,1.0,6.0,6.0,761.5406439999788,8.0,1.0,phase_2,stop,700.0,600.0,3.0,,,,,,,,,gray,flipped triangle
0.0,6.0,1.0,1.0,6.0,0.0,0.0,8.0,1.0,phase_2,stop,700.0,550.0,4.0,,,,,,,,,orange,I
0.0,5.0,0.5,1.0,6.0,6.0,1118.310476000261,8.0,1.0,phase_2,go,700.0,600.0,1.0,,,,,,,,,white,hexagon
0.0,7.0,2.0,1.0,5.0,5.0,847.5589429999673,8.0,1.0,phase_2,stop,700.0,600.0,3.0,,,,,,,,,cyan,triangle
0.0,8.0,4.0,1.0,5.0,0.0,0.0,8.0,1.0,phase_2,stop,650.0,600.0,4.0,,,,,,,,,gray,flipped triangle
0.0,5.0,0.5,1.0,6.0,6.0,412.5253289994361,8.0,1.0,phase_2,stop,700.0,600.0,3.0,,,,,,,,,white,hexagon
0.0,4.0,4.0,0.0,6.0,6.0,1045.2825159991337,8.0,1.0,phase_2,go,700.0,550.0,1.0,,,,,,,,,green,circle
0.0,6.0,1.0,1.0,6.0,0.0,0.0,8.0,1.0,phase_2,stop,700.0,550.0,4.0,,,,,,,,,orange,I
0.0,4.0,4.0,0.0,6.0,6.0,724.6058099999573,8.0,1.0,phase_2,go,700.0,600.0,1.0,,,,,,,,,green,circle
0.0,7.0,2.0,1.0,5.0,0.0,0.0,8.0,1.0,phase_2,stop,700.0,600.0,4.0,,,,,,,,,cyan,triangle
0.0,8.0,4.0,1.0,5.0,5.0,730.191929999819,8.0,1.0,phase_2,go,750.0,600.0,1.0,,,,,,,,,gray,flipped triangle
0.0,8.0,4.0,1.0,6.0,6.0,752.768045999801,8.0,1.0,phase_2,stop,750.0,600.0,3.0,,,,,,,,,gray,flipped triangle
0.0,4.0,4.0,0.0,5.0,5.0,753.5717250002563,8.0,1.0,phase_2,go,750.0,550.0,1.0,,,,,,,,,green,circle
0.0,5.0,0.5,1.0,5.0,5.0,906.4176759993644,8.0,1.0,phase_2,stop,750.0,550.0,3.0,,,,,,,,,white,hexagon
0.0,3.0,2.0,0.0,6.0,6.0,783.7161759998708,8.0,1.0,phase_2,go,700.0,550.0,1.0,,,,,,,,,yellow,square
0.0,3.0,2.0,0.0,5.0,5.0,1088.0218049996984,8.0,1.0,phase_2,go,700.0,550.0,1.0,,,,,,,,,yellow,square
0.0,2.0,1.0,0.0,5.0,5.0,551.7501329995866,8.0,1.0,phase_2,go,700.0,550.0,1.0,,,,,,,,,magenta,diamond
0.0,3.0,2.0,0.0,6.0,6.0,790.0878909995299,8.0,1.0,phase_2,go,700.0,550.0,1.0,,,,,,,,,yellow,square
0.0,8.0,4.0,1.0,5.0,5.0,964.4414689992118,8.0,1.0,phase_2,go,700.0,550.0,1.0,,,,,,,,,gray,flipped triangle
0.0,3.0,2.0,0.0,6.0,6.0,726.2046319992805,8.0,1.0,phase_2,go,700.0,550.0,1.0,,,,,,,,,yellow,square
0.0,7.0,2.0,1.0,6.0,6.0,572.1947440006261,8.0,1.0,phase_2,go,700.0,550.0,1.0,,,,,,,,,cyan,triangle
0.0,7.0,2.0,1.0,6.0,6.0,355.5364270005157,8.0,1.0,phase_2,stop,700.0,550.0,3.0,,,,,,,,,cyan,triangle
0.0,3.0,2.0,0.0,5.0,5.0,608.2662979997622,8.0,1.0,phase_2,go,700.0,500.0,1.0,,,,,,,,,yellow,square
0.0,4.0,4.0,0.0,5.0,5.0,843.6077110000042,8.0,1.0,phase_2,go,700.0,500.0,1.0,,,,,,,,,green,circle
0.0,5.0,0.5,1.0,5.0,5.0,1072.6798850000705,8.0,1.0,phase_2,go,700.0,500.0,1.0,,,,,,,,,white,hexagon
0.0,6.0,1.0,1.0,5.0,5.0,1152.3904879995823,8.0,1.0,phase_2,go,700.0,500.0,1.0,,,,,,,,,orange,I
0.0,8.0,4.0,1.0,6.0,0.0,0.0,8.0,1.0,phase_2,stop,700.0,500.0,4.0,,,,,,,,,gray,flipped triangle
0.0,7.0,2.0,1.0,6.0,6.0,745.118547999482,8.0,1.0,phase_2,stop,700.0,550.0,3.0,,,,,,,,,cyan,triangle
0.0,7.0,2.0,1.0,5.0,0.0,0.0,8.0,1.0,phase_2,stop,700.0,500.0,4.0,,,,,,,,,cyan,triangle
0.0,2.0,1.0,0.0,6.0,6.0,823.4811249994891,8.0,1.0,phase_2,go,750.0,500.0,1.0,,,,,,,,,magenta,diamond
0.0,2.0,1.0,0.0,5.0,5.0,476.6556779995881,8.0,1.0,phase_2,go,750.0,500.0,1.0,,,,,,,,,magenta,diamond
0.0,7.0,2.0,1.0,6.0,0.0,0.0,8.0,1.0,phase_2,stop,750.0,500.0,4.0,,,,,,,,,cyan,triangle
0.0,2.0,1.0,0.0,5.0,5.0,908.780432999265,8.0,1.0,phase_2,go,750.0,550.0,1.0,,,,,,,,,magenta,diamond
0.0,4.0,4.0,0.0,5.0,5.0,980.2138240002024,8.0,1.0,phase_2,go,750.0,550.0,1.0,,,,,,,,,green,circle
0.0,5.0,0.5,1.0,7.0,2.0,2335.707683999317,1.0,1.0,phase_3,,,,,616.0,4.0,770.0,616.0,308.0,154.0,462.0,924.0,white,hexagon
0.0,7.0,2.0,1.0,7.0,3.0,1479.6285149996038,1.0,1.0,phase_3,,,,,768.0,4.0,576.0,384.0,768.0,192.0,1152.0,960.0,cyan,triangle
0.0,2.0,1.0,0.0,7.0,1.0,1472.931491000054,1.0,1.0,phase_3,,,,,696.0,6.0,696.0,116.0,580.0,464.0,232.0,348.0,magenta,diamond
0.0,5.0,0.5,1.0,7.0,3.0,3316.411449000043,1.0,1.0,phase_3,,,,,810.0,6.0,675.0,135.0,810.0,270.0,540.0,405.0,white,hexagon
0.0,1.0,0.5,0.0,7.0,5.0,2902.624162999928,1.0,1.0,phase_3,,,,,675.0,5.0,270.0,135.0,405.0,810.0,675.0,540.0,blue,cross
0.0,7.0,2.0,1.0,7.0,6.0,3805.168005999803,1.0,1.0,phase_3,,,,,1038.0,6.0,865.0,173.0,519.0,692.0,346.0,1038.0,cyan,triangle
0.0,8.0,4.0,1.0,7.0,3.0,2905.270031999862,1.0,1.0,phase_3,,,,,270.0,2.0,675.0,540.0,270.0,810.0,405.0,135.0,gray,flipped triangle
0.0,8.0,4.0,1.0,7.0,1.0,1831.7601369999463,1.0,1.0,phase_3,,,,,1038.0,6.0,1038.0,173.0,865.0,692.0,346.0,519.0,gray,flipped triangle
0.0,8.0,4.0,1.0,7.0,2.0,2065.5006129991307,1.0,1.0,phase_3,,,,,580.0,5.0,116.0,580.0,464.0,696.0,348.0,232.0,gray,flipped triangle
0.0,4.0,4.0,0.0,7.0,4.0,2081.8386569999348,1.0,1.0,phase_3,,,,,1038.0,6.0,173.0,692.0,519.0,1038.0,865.0,346.0,green,circle
0.0,6.0,1.0,1.0,7.0,1.0,3236.754993000432,1.0,1.0,phase_3,,,,,384.0,2.0,384.0,192.0,768.0,576.0,1152.0,960.0,orange,I
0.0,8.0,4.0,1.0,7.0,2.0,4468.389225999999,1.0,1.0,phase_3,,,,,675.0,5.0,135.0,675.0,405.0,810.0,540.0,270.0,gray,flipped triangle
0.0,2.0,1.0,0.0,7.0,3.0,2633.578959999795,1.0,1.0,phase_3,,,,,540.0,4.0,405.0,135.0,540.0,810.0,270.0,675.0,magenta,diamond
0.0,1.0,0.5,0.0,7.0,4.0,1600.781864000055,1.0,1.0,phase_3,,,,,1152.0,6.0,768.0,384.0,576.0,1152.0,960.0,192.0,blue,cross
0.0,8.0,4.0,1.0,7.0,1.0,2125.222249000217,1.0,1.0,phase_3,,,,,770.0,5.0,770.0,616.0,462.0,308.0,154.0,924.0,gray,flipped triangle
0.0,1.0,0.5,0.0,7.0,1.0,1628.1187219992717,1.0,1.0,phase_3,,,,,770.0,5.0,770.0,462.0,308.0,616.0,924.0,154.0,blue,cross
0.0,4.0,4.0,0.0,7.0,1.0,4238.983398000528,1.0,1.0,phase_3,,,,,462.0,3.0,462.0,154.0,616.0,924.0,770.0,308.0,green,circle
0.0,5.0,0.5,1.0,7.0,4.0,3474.574204999953,1.0,1.0,phase_3,,,,,865.0,5.0,519.0,173.0,346.0,865.0,1038.0,692.0,white,hexagon
0.0,3.0,2.0,0.0,7.0,4.0,3786.780863999411,1.0,1.0,phase_3,,,,,696.0,6.0,348.0,464.0,116.0,696.0,580.0,232.0,yellow,square
0.0,7.0,2.0,1.0,7.0,3.0,2739.948596999966,1.0,1.0,phase_3,,,,,810.0,6.0,135.0,405.0,810.0,270.0,675.0,540.0,cyan,triangle
0.0,3.0,2.0,0.0,7.0,2.0,1451.1715970002117,2.0,1.0,phase_3,,,,,1038.0,6.0,173.0,1038.0,346.0,519.0,692.0,865.0,yellow,square
0.0,6.0,1.0,1.0,7.0,4.0,2164.2174209991936,2.0,1.0,phase_3,,,,,770.0,5.0,154.0,462.0,924.0,770.0,616.0,308.0,orange,I
0.0,3.0,2.0,0.0,7.0,3.0,1525.3369209995071,2.0,1.0,phase_3,,,,,924.0,6.0,308.0,462.0,924.0,616.0,154.0,770.0,yellow,square
0.0,2.0,1.0,0.0,7.0,4.0,1616.8763769992438,2.0,1.0,phase_3,,,,,462.0,3.0,616.0,770.0,924.0,462.0,308.0,154.0,magenta,diamond
0.0,3.0,2.0,0.0,7.0,3.0,1218.7770050004474,2.0,1.0,phase_3,,,,,1152.0,6.0,384.0,960.0,1152.0,768.0,192.0,576.0,yellow,square
0.0,4.0,4.0,0.0,7.0,4.0,2210.597185000552,2.0,1.0,phase_3,,,,,384.0,2.0,960.0,1152.0,192.0,384.0,768.0,576.0,green,circle
0.0,7.0,2.0,1.0,7.0,1.0,1386.4743290005208,2.0,1.0,phase_3,,,,,1152.0,6.0,1152.0,960.0,576.0,192.0,384.0,768.0,cyan,triangle
0.0,2.0,1.0,0.0,7.0,2.0,2070.1024680001865,2.0,1.0,phase_3,,,,,692.0,4.0,519.0,692.0,346.0,865.0,1038.0,173.0,magenta,diamond
0.0,5.0,0.5,1.0,7.0,4.0,4478.818747000332,2.0,1.0,phase_3,,,,,696.0,6.0,232.0,116.0,580.0,696.0,348.0,464.0,white,hexagon
0.0,1.0,0.5,0.0,7.0,5.0,1385.5878370004575,2.0,1.0,phase_3,,,,,1152.0,6.0,384.0,576.0,192.0,960.0,1152.0,768.0,blue,cross
0.0,3.0,2.0,0.0,7.0,1.0,2674.255889000051,2.0,1.0,phase_3,,,,,696.0,6.0,696.0,232.0,580.0,464.0,348.0,116.0,yellow,square
0.0,2.0,1.0,0.0,7.0,3.0,2235.296433000258,2.0,1.0,phase_3,,,,,348.0,3.0,116.0,232.0,348.0,580.0,464.0,696.0,magenta,diamond
0.0,6.0,1.0,1.0,7.0,2.0,1278.843676000179,2.0,1.0,phase_3,,,,,519.0,3.0,1038.0,519.0,865.0,173.0,346.0,692.0,orange,I
0.0,7.0,2.0,1.0,7.0,4.0,3040.0114640005995,2.0,1.0,phase_3,,,,,770.0,5.0,462.0,924.0,308.0,770.0,616.0,154.0,cyan,triangle
0.0,2.0,1.0,0.0,7.0,1.0,2263.3699970001544,2.0,1.0,phase_3,,,,,960.0,5.0,960.0,384.0,192.0,768.0,576.0,1152.0,magenta,diamond
0.0,8.0,4.0,1.0,7.0,1.0,3328.0050339999434,2.0,1.0,phase_3,,,,,308.0,2.0,308.0,154.0,616.0,770.0,924.0,462.0,gray,flipped triangle
0.0,1.0,0.5,0.0,7.0,3.0,2968.856945999505,2.0,1.0,phase_3,,,,,810.0,6.0,270.0,135.0,810.0,675.0,540.0,405.0,blue,cross
0.0,5.0,0.5,1.0,7.0,5.0,2084.6283640003094,2.0,1.0,phase_3,,,,,810.0,6.0,675.0,540.0,270.0,135.0,810.0,405.0,white,hexagon
0.0,5.0,0.5,1.0,7.0,4.0,1668.018941999435,2.0,1.0,phase_3,,,,,1152.0,6.0,960.0,384.0,192.0,1152.0,768.0,576.0,white,hexagon
0.0,5.0,0.5,1.0,7.0,6.0,1933.084052000595,2.0,1.0,phase_3,,,,,1038.0,6.0,173.0,346.0,865.0,519.0,692.0,1038.0,white,hexagon
0.0,6.0,1.0,1.0,7.0,5.0,2174.574636000216,3.0,1.0,phase_3,,,,,580.0,5.0,464.0,232.0,696.0,116.0,580.0,348.0,orange,I
0.0,3.0,2.0,0.0,7.0,6.0,1720.0195890000032,3.0,1.0,phase_3,,,,,810.0,6.0,405.0,675.0,270.0,135.0,540.0,810.0,yellow,square
0.0,3.0,2.0,0.0,7.0,5.0,1943.7058960002105,3.0,1.0,phase_3,,,,,1038.0,6.0,173.0,346.0,519.0,692.0,1038.0,865.0,yellow,square
0.0,8.0,4.0,1.0,7.0,2.0,3105.052220000289,3.0,1.0,phase_3,,,,,384.0,2.0,768.0,384.0,576.0,1152.0,192.0,960.0,gray,flipped triangle
0.0,1.0,0.5,0.0,7.0,4.0,2544.994905999374,3.0,1.0,phase_3,,,,,865.0,5.0,1038.0,519.0,346.0,865.0,692.0,173.0,blue,cross
0.0,6.0,1.0,1.0,7.0,2.0,2970.69804199964,3.0,1.0,phase_3,,,,,464.0,4.0,580.0,464.0,232.0,696.0,116.0,348.0,orange,I
0.0,5.0,0.5,1.0,7.0,3.0,2243.564904999402,3.0,1.0,phase_3,,,,,924.0,6.0,308.0,616.0,924.0,154.0,770.0,462.0,white,hexagon
0.0,1.0,0.5,0.0,7.0,2.0,2580.9087030002047,3.0,1.0,phase_3,,,,,616.0,4.0,924.0,616.0,770.0,154.0,462.0,308.0,blue,cross
0.0,3.0,2.0,0.0,7.0,6.0,2192.1907310006645,3.0,1.0,phase_3,,,,,770.0,5.0,616.0,462.0,308.0,924.0,154.0,770.0,yellow,square
0.0,2.0,1.0,0.0,7.0,1.0,2279.2297730002247,3.0,1.0,phase_3,,,,,540.0,4.0,540.0,810.0,675.0,270.0,405.0,135.0,magenta,diamond
0.0,4.0,4.0,0.0,7.0,3.0,3616.255364000608,3.0,1.0,phase_3,,,,,135.0,1.0,810.0,675.0,135.0,270.0,405.0,540.0,green,circle
0.0,7.0,2.0,1.0,7.0,4.0,2684.528714999942,3.0,1.0,phase_3,,,,,580.0,5.0,696.0,116.0,232.0,580.0,464.0,348.0,cyan,triangle
0.0,6.0,1.0,1.0,7.0,3.0,1251.4878219999446,3.0,1.0,phase_3,,,,,405.0,3.0,135.0,810.0,405.0,540.0,270.0,675.0,orange,I
0.0,3.0,2.0,0.0,7.0,2.0,2119.0644449998217,3.0,1.0,phase_3,,,,,810.0,6.0,270.0,810.0,675.0,135.0,405.0,540.0,yellow,square
0.0,4.0,4.0,0.0,7.0,4.0,2840.178618000209,3.0,1.0,phase_3,,,,,173.0,1.0,865.0,346.0,1038.0,173.0,519.0,692.0,green,circle
0.0,1.0,0.5,0.0,7.0,3.0,2110.752687999593,3.0,1.0,phase_3,,,,,519.0,3.0,1038.0,173.0,519.0,865.0,692.0,346.0,blue,cross
0.0,4.0,4.0,0.0,7.0,6.0,2503.8936339997235,3.0,1.0,phase_3,,,,,192.0,1.0,960.0,576.0,768.0,384.0,1152.0,192.0,green,circle
0.0,2.0,1.0,0.0,7.0,5.0,2810.535679000168,3.0,1.0,phase_3,,,,,616.0,4.0,770.0,462.0,154.0,308.0,616.0,924.0,magenta,diamond
0.0,8.0,4.0,1.0,7.0,2.0,2226.401717999579,3.0,1.0,phase_3,,,,,346.0,2.0,692.0,346.0,865.0,173.0,519.0,1038.0,gray,flipped triangle
0.0,1.0,0.5,0.0,7.0,4.0,2892.730462000145,3.0,1.0,phase_3,,,,,580.0,5.0,464.0,116.0,232.0,580.0,696.0,348.0,blue,cross
0.0,8.0,4.0,1.0,7.0,6.0,2232.027721999657,4.0,1.0,phase_3,,,,,232.0,2.0,348.0,116.0,580.0,464.0,696.0,232.0,gray,flipped triangle
0.0,4.0,4.0,0.0,7.0,1.0,2136.2244289994123,4.0,1.0,phase_3,,,,,116.0,1.0,116.0,696.0,348.0,232.0,580.0,464.0,green,circle
0.0,4.0,4.0,0.0,7.0,6.0,1712.4628699993991,4.0,1.0,phase_3,,,,,135.0,1.0,540.0,405.0,270.0,810.0,675.0,135.0,green,circle
0.0,7.0,2.0,1.0,7.0,2.0,1937.5466189994768,4.0,1.0,phase_3,,,,,464.0,4.0,696.0,464.0,348.0,116.0,232.0,580.0,cyan,triangle
0.0,6.0,1.0,1.0,7.0,5.0,3578.623900999446,4.0,1.0,phase_3,,,,,616.0,4.0,924.0,770.0,154.0,462.0,616.0,308.0,orange,I
0.0,7.0,2.0,1.0,7.0,6.0,2253.378626000085,4.0,1.0,phase_3,,,,,308.0,2.0,770.0,924.0,616.0,462.0,154.0,308.0,cyan,triangle
0.0,2.0,1.0,0.0,7.0,1.0,3447.4246500003574,4.0,1.0,phase_3,,,,,692.0,4.0,692.0,865.0,1038.0,519.0,173.0,346.0,magenta,diamond
0.0,7.0,2.0,1.0,7.0,4.0,1679.071821999969,4.0,1.0,phase_3,,,,,346.0,2.0,1038.0,173.0,519.0,346.0,692.0,865.0,cyan,triangle
0.0,6.0,1.0,1.0,7.0,6.0,2403.0184200000804,4.0,1.0,phase_3,,,,,346.0,2.0,519.0,1038.0,865.0,692.0,173.0,346.0,orange,I
0.0,2.0,1.0,0.0,7.0,4.0,1593.693746000099,4.0,2.0,phase_3,,,,,768.0,4.0,384.0,1152.0,192.0,768.0,960.0,576.0,magenta,diamond
0.0,6.0,1.0,1.0,7.0,1.0,1517.112773000008,4.0,1.0,phase_3,,,,,405.0,3.0,405.0,135.0,810.0,270.0,540.0,675.0,orange,I
0.0,4.0,4.0,0.0,7.0,5.0,1405.6831070001865,4.0,1.0,phase_3,,,,,154.0,1.0,462.0,616.0,308.0,924.0,154.0,770.0,green,circle
0.0,1.0,0.5,0.0,7.0,2.0,2245.872657000291,4.0,1.0,phase_3,,,,,696.0,6.0,232.0,696.0,348.0,116.0,580.0,464.0,blue,cross
0.0,5.0,0.5,1.0,7.0,6.0,2358.838879999894,4.0,1.0,phase_3,,,,,696.0,6.0,348.0,464.0,580.0,232.0,116.0,696.0,white,hexagon
0.0,4.0,4.0,0.0,7.0,2.0,1495.7981819998167,4.0,1.0,phase_3,,,,,116.0,1.0,232.0,116.0,464.0,580.0,696.0,348.0,green,circle
0.0,5.0,0.5,1.0,7.0,4.0,1635.3261559997918,4.0,1.0,phase_3,,,,,1152.0,6.0,960.0,384.0,768.0,1152.0,576.0,192.0,white,hexagon
0.0,3.0,2.0,0.0,7.0,3.0,1195.2544440000563,4.0,1.0,phase_3,,,,,1152.0,6.0,384.0,192.0,1152.0,576.0,768.0,960.0,yellow,square
0.0,7.0,2.0,1.0,7.0,1.0,2092.5287180007217,4.0,1.0,phase_3,,,,,540.0,4.0,540.0,675.0,405.0,810.0,270.0,135.0,cyan,triangle
0.0,8.0,4.0,1.0,7.0,3.0,1845.196045999728,4.0,1.0,phase_3,,,,,384.0,2.0,960.0,1152.0,384.0,768.0,576.0,192.0,gray,flipped triangle
0.0,6.0,1.0,1.0,7.0,3.0,2520.172730000013,4.0,1.0,phase_3,,,,,192.0,1.0,576.0,1152.0,192.0,960.0,768.0,384.0,orange,I
