raw_reward_magnitude,stim_reward,stepwise_reward_magnitude,paired_with_stopping,stim_location,response,reaction_time,block,num_trial_presentations,which_phase,stop_signal_trial_type,left_SSD,right_SSD,accuracy,chosen_bidding_amount,chosen_bidding_level,possible_bid_1,possible_bid_2,possible_bid_3,possible_bid_4,possible_bid_5,possible_bid_6,color_text,shape_text
142.0,5.0,0.5,1.0,1.0,1.0,552.2297130000311,1.0,1.0,phase_1,,,,,,,,,,,,,blue,I
1316.0,4.0,4.0,0.0,2.0,2.0,492.9455619999885,1.0,1.0,phase_1,,,,,,,,,,,,,magenta,flipped triangle
0.0,2.0,0.0,0.0,3.0,3.0,324.1202560000147,1.0,1.0,phase_1,,,,,,,,,,,,,yellow,circle
1292.0,8.0,4.0,1.0,1.0,1.0,478.7320089999411,1.0,1.0,phase_1,,,,,,,,,,,,,green,hexagon
180.0,1.0,0.5,0.0,4.0,4.0,372.7982739999333,1.0,1.0,phase_1,,,,,,,,,,,,,orange,diamond
0.0,6.0,0.0,1.0,2.0,2.0,385.8430889999908,1.0,1.0,phase_1,,,,,,,,,,,,,gray,square
630.0,7.0,2.0,1.0,3.0,3.0,316.6657019999093,1.0,1.0,phase_1,,,,,,,,,,,,,cyan,triangle
327.0,6.0,1.0,1.0,1.0,1.0,328.8065310000547,1.0,1.0,phase_1,,,,,,,,,,,,,gray,square
0.0,8.0,0.0,1.0,3.0,3.0,381.7264620000742,1.0,1.0,phase_1,,,,,,,,,,,,,green,hexagon
1309.0,4.0,4.0,0.0,4.0,4.0,329.9441119999073,1.0,1.0,phase_1,,,,,,,,,,,,,magenta,flipped triangle
1277.0,8.0,4.0,1.0,4.0,4.0,439.0542149999419,1.0,1.0,phase_1,,,,,,,,,,,,,green,hexagon
662.0,3.0,2.0,0.0,1.0,1.0,325.5491489999258,1.0,1.0,phase_1,,,,,,,,,,,,,white,cross
329.0,6.0,1.0,1.0,3.0,3.0,337.6590940000596,1.0,1.0,phase_1,,,,,,,,,,,,,gray,square
1312.0,8.0,4.0,1.0,2.0,2.0,474.658260999945,1.0,2.0,phase_1,,,,,,,,,,,,,green,hexagon
0.0,6.0,0.0,1.0,1.0,1.0,421.9262079999453,1.0,1.0,phase_1,,,,,,,,,,,,,gray,square
665.0,7.0,2.0,1.0,2.0,2.0,540.6038260000514,1.0,1.0,phase_1,,,,,,,,,,,,,cyan,triangle
150.0,5.0,0.5,1.0,2.0,2.0,423.055862999945,1.0,1.0,phase_1,,,,,,,,,,,,,blue,I
147.0,1.0,0.5,0.0,2.0,2.0,302.3711040000307,1.0,1.0,phase_1,,,,,,,,,,,,,orange,diamond
1292.0,4.0,4.0,0.0,4.0,4.0,417.7172689999224,1.0,1.0,phase_1,,,,,,,,,,,,,magenta,flipped triangle
630.0,3.0,2.0,0.0,3.0,3.0,351.3361340000074,1.0,1.0,phase_1,,,,,,,,,,,,,white,cross
306.0,6.0,1.0,1.0,2.0,2.0,370.6299620000663,1.0,1.0,phase_1,,,,,,,,,,,,,gray,square
186.0,5.0,0.5,1.0,2.0,2.0,406.75738799996,1.0,1.0,phase_1,,,,,,,,,,,,,blue,I
165.0,5.0,0.5,1.0,1.0,1.0,349.6538959999498,1.0,1.0,phase_1,,,,,,,,,,,,,blue,I
309.0,2.0,1.0,0.0,2.0,2.0,464.1595780000216,1.0,1.0,phase_1,,,,,,,,,,,,,yellow,circle
180.0,5.0,0.5,1.0,2.0,2.0,396.7057240000713,1.0,1.0,phase_1,,,,,,,,,,,,,blue,I
346.0,2.0,1.0,0.0,3.0,3.0,402.0980750000262,1.0,1.0,phase_1,,,,,,,,,,,,,yellow,circle
1302.0,4.0,4.0,0.0,3.0,3.0,421.5328500000623,1.0,1.0,phase_1,,,,,,,,,,,,,magenta,flipped triangle
322.0,6.0,1.0,1.0,4.0,4.0,387.958888000071,1.0,1.0,phase_1,,,,,,,,,,,,,gray,square
330.0,2.0,1.0,0.0,4.0,4.0,463.6518820000219,1.0,1.0,phase_1,,,,,,,,,,,,,yellow,circle
0.0,8.0,0.0,1.0,1.0,1.0,467.5456950000125,1.0,1.0,phase_1,,,,,,,,,,,,,green,hexagon
638.0,7.0,2.0,1.0,4.0,4.0,480.0521779999371,1.0,1.0,phase_1,,,,,,,,,,,,,cyan,triangle
330.0,6.0,1.0,1.0,2.0,2.0,516.1715010000307,1.0,1.0,phase_1,,,,,,,,,,,,,gray,square
349.0,6.0,1.0,1.0,4.0,4.0,417.7356359999749,1.0,1.0,phase_1,,,,,,,,,,,,,gray,square
0.0,2.0,0.0,0.0,1.0,1.0,446.4698350000162,1.0,1.0,phase_1,,,,,,,,,,,,,yellow,circle
320.0,6.0,1.0,1.0,2.0,2.0,452.97832699998247,1.0,1.0,phase_1,,,,,,,,,,,,,gray,square
0.0,8.0,0.0,1.0,3.0,3.0,302.9777389999708,1.0,1.0,phase_1,,,,,,,,,,,,,green,hexagon
1305.0,8.0,4.0,1.0,1.0,1.0,510.5996879999566,1.0,1.0,phase_1,,,,,,,,,,,,,green,hexagon
1303.0,8.0,4.0,1.0,1.0,1.0,434.3345989999534,1.0,1.0,phase_1,,,,,,,,,,,,,green,hexagon
647.0,3.0,2.0,0.0,4.0,4.0,430.7496789999732,1.0,1.0,phase_1,,,,,,,,,,,,,white,cross
165.0,1.0,0.5,0.0,4.0,4.0,418.3219459999918,1.0,1.0,phase_1,,,,,,,,,,,,,orange,diamond
642.0,7.0,2.0,1.0,2.0,2.0,558.7949160000107,1.0,1.0,phase_1,,,,,,,,,,,,,cyan,triangle
670.0,7.0,2.0,1.0,2.0,2.0,427.7167239999926,1.0,1.0,phase_1,,,,,,,,,,,,,cyan,triangle
1280.0,8.0,4.0,1.0,3.0,3.0,401.8956250000656,1.0,1.0,phase_1,,,,,,,,,,,,,green,hexagon
0.0,8.0,0.0,1.0,1.0,1.0,364.8920250000174,1.0,1.0,phase_1,,,,,,,,,,,,,green,hexagon
0.0,3.0,0.0,0.0,1.0,1.0,433.5879259999728,1.0,1.0,phase_1,,,,,,,,,,,,,white,cross
658.0,7.0,2.0,1.0,4.0,4.0,501.45312999995895,1.0,1.0,phase_1,,,,,,,,,,,,,cyan,triangle
347.0,6.0,1.0,1.0,3.0,3.0,354.3264930000305,1.0,1.0,phase_1,,,,,,,,,,,,,gray,square
141.0,5.0,0.5,1.0,3.0,3.0,392.941010999948,1.0,1.0,phase_1,,,,,,,,,,,,,blue,I
1320.0,8.0,4.0,1.0,3.0,3.0,349.4427750000568,1.0,1.0,phase_1,,,,,,,,,,,,,green,hexagon
660.0,3.0,2.0,0.0,1.0,1.0,400.7744990000219,1.0,1.0,phase_1,,,,,,,,,,,,,white,cross
1322.0,8.0,4.0,1.0,4.0,4.0,327.2310830000151,1.0,1.0,phase_1,,,,,,,,,,,,,green,hexagon
0.0,7.0,0.0,1.0,4.0,4.0,361.2565910000285,1.0,1.0,phase_1,,,,,,,,,,,,,cyan,triangle
1309.0,8.0,4.0,1.0,1.0,1.0,382.9881569999998,1.0,1.0,phase_1,,,,,,,,,,,,,green,hexagon
300.0,2.0,1.0,0.0,1.0,1.0,331.7247069999212,1.0,1.0,phase_1,,,,,,,,,,,,,yellow,circle
1300.0,8.0,4.0,1.0,1.0,1.0,329.441640999903,1.0,1.0,phase_1,,,,,,,,,,,,,green,hexagon
345.0,6.0,1.0,1.0,1.0,1.0,332.933457000081,1.0,1.0,phase_1,,,,,,,,,,,,,gray,square
635.0,3.0,2.0,0.0,3.0,3.0,440.7548240000096,1.0,1.0,phase_1,,,,,,,,,,,,,white,cross
330.0,2.0,1.0,0.0,4.0,4.0,469.787397999994,1.0,1.0,phase_1,,,,,,,,,,,,,yellow,circle
660.0,3.0,2.0,0.0,3.0,3.0,409.7781129999021,1.0,1.0,phase_1,,,,,,,,,,,,,white,cross
306.0,6.0,1.0,1.0,2.0,2.0,310.0852740000164,1.0,1.0,phase_1,,,,,,,,,,,,,gray,square
186.0,5.0,0.5,1.0,3.0,3.0,411.188179000078,1.0,1.0,phase_1,,,,,,,,,,,,,blue,I
0.0,1.0,0.0,0.0,1.0,1.0,304.2999890000146,1.0,1.0,phase_1,,,,,,,,,,,,,orange,diamond
312.0,2.0,1.0,0.0,3.0,3.0,404.7218509999766,1.0,1.0,phase_1,,,,,,,,,,,,,yellow,circle
1288.0,8.0,4.0,1.0,2.0,2.0,681.1504510000077,1.0,1.0,phase_1,,,,,,,,,,,,,green,hexagon
1288.0,4.0,4.0,0.0,3.0,3.0,479.1164729999764,1.0,1.0,phase_1,,,,,,,,,,,,,magenta,flipped triangle
320.0,6.0,1.0,1.0,1.0,1.0,403.236215999982,1.0,1.0,phase_1,,,,,,,,,,,,,gray,square
647.0,7.0,2.0,1.0,3.0,3.0,465.9910469999886,1.0,1.0,phase_1,,,,,,,,,,,,,cyan,triangle
150.0,1.0,0.5,0.0,3.0,3.0,508.83431100010057,1.0,1.0,phase_1,,,,,,,,,,,,,orange,diamond
0.0,3.0,0.0,0.0,2.0,2.0,608.5530660000131,1.0,1.0,phase_1,,,,,,,,,,,,,white,cross
1300.0,4.0,4.0,0.0,1.0,1.0,365.3277990000561,1.0,1.0,phase_1,,,,,,,,,,,,,magenta,flipped triangle
158.0,5.0,0.5,1.0,4.0,4.0,401.1438549999866,1.0,1.0,phase_1,,,,,,,,,,,,,blue,I
171.0,5.0,0.5,1.0,3.0,3.0,320.398976999968,1.0,1.0,phase_1,,,,,,,,,,,,,blue,I
181.0,1.0,0.5,0.0,2.0,2.0,532.7968149999833,1.0,1.0,phase_1,,,,,,,,,,,,,orange,diamond
0.0,2.0,0.0,0.0,4.0,4.0,528.1019360000982,1.0,1.0,phase_1,,,,,,,,,,,,,yellow,circle
0.0,2.0,0.0,0.0,3.0,3.0,388.3308859999488,1.0,1.0,phase_1,,,,,,,,,,,,,yellow,circle
0.0,8.0,0.0,1.0,1.0,1.0,409.8539770000116,1.0,1.0,phase_1,,,,,,,,,,,,,green,hexagon
345.0,6.0,1.0,1.0,3.0,3.0,477.8918160000103,1.0,1.0,phase_1,,,,,,,,,,,,,gray,square
670.0,3.0,2.0,0.0,1.0,1.0,433.4612910000714,1.0,1.0,phase_1,,,,,,,,,,,,,white,cross
637.0,7.0,2.0,1.0,1.0,1.0,487.4075359999779,1.0,1.0,phase_1,,,,,,,,,,,,,cyan,triangle
171.0,1.0,0.5,0.0,2.0,2.0,714.6990629998982,1.0,1.0,phase_1,,,,,,,,,,,,,orange,diamond
1293.0,4.0,4.0,0.0,1.0,1.0,472.6783940000132,1.0,1.0,phase_1,,,,,,,,,,,,,magenta,flipped triangle
658.0,3.0,2.0,0.0,4.0,4.0,565.947035000022,1.0,1.0,phase_1,,,,,,,,,,,,,white,cross
633.0,7.0,2.0,1.0,2.0,2.0,592.6032120000855,1.0,1.0,phase_1,,,,,,,,,,,,,cyan,triangle
1285.0,4.0,4.0,0.0,2.0,2.0,518.2370009999886,1.0,1.0,phase_1,,,,,,,,,,,,,magenta,flipped triangle
659.0,7.0,2.0,1.0,1.0,1.0,338.9332429999285,1.0,1.0,phase_1,,,,,,,,,,,,,cyan,triangle
161.0,5.0,0.5,1.0,1.0,1.0,455.8308679999072,1.0,1.0,phase_1,,,,,,,,,,,,,blue,I
1309.0,8.0,4.0,1.0,3.0,3.0,507.776573000001,1.0,1.0,phase_1,,,,,,,,,,,,,green,hexagon
340.0,6.0,1.0,1.0,4.0,4.0,409.6087170000828,1.0,1.0,phase_1,,,,,,,,,,,,,gray,square
154.0,5.0,0.5,1.0,4.0,4.0,397.2408640000822,1.0,1.0,phase_1,,,,,,,,,,,,,blue,I
642.0,3.0,2.0,0.0,4.0,4.0,427.937586999974,1.0,1.0,phase_1,,,,,,,,,,,,,white,cross
158.0,1.0,0.5,0.0,2.0,2.0,660.9757579999496,1.0,1.0,phase_1,,,,,,,,,,,,,orange,diamond
0.0,3.0,0.0,0.0,4.0,4.0,387.0719669999971,1.0,1.0,phase_1,,,,,,,,,,,,,white,cross
172.0,1.0,0.5,0.0,3.0,3.0,567.2575590000406,1.0,1.0,phase_1,,,,,,,,,,,,,orange,diamond
644.0,3.0,2.0,0.0,2.0,2.0,636.680264000006,1.0,1.0,phase_1,,,,,,,,,,,,,white,cross
158.0,5.0,0.5,1.0,1.0,1.0,351.8702210000128,1.0,1.0,phase_1,,,,,,,,,,,,,blue,I
1291.0,8.0,4.0,1.0,1.0,1.0,421.5310839999802,1.0,1.0,phase_1,,,,,,,,,,,,,green,hexagon
182.0,1.0,0.5,0.0,4.0,4.0,433.6073870000518,1.0,1.0,phase_1,,,,,,,,,,,,,orange,diamond
658.0,3.0,2.0,0.0,4.0,4.0,358.765027000004,1.0,1.0,phase_1,,,,,,,,,,,,,white,cross
0.0,6.0,0.0,1.0,3.0,3.0,338.1066040000178,1.0,1.0,phase_1,,,,,,,,,,,,,gray,square
0.0,1.0,0.0,0.0,4.0,4.0,407.7506790000598,1.0,1.0,phase_1,,,,,,,,,,,,,orange,diamond
1316.0,8.0,4.0,1.0,4.0,4.0,454.5677100001057,2.0,1.0,phase_1,,,,,,,,,,,,,green,hexagon
1293.0,8.0,4.0,1.0,3.0,3.0,435.4638720000139,2.0,1.0,phase_1,,,,,,,,,,,,,green,hexagon
143.0,1.0,0.5,0.0,2.0,2.0,362.1959590000188,2.0,1.0,phase_1,,,,,,,,,,,,,orange,diamond
306.0,2.0,1.0,0.0,2.0,2.0,548.087326999962,2.0,1.0,phase_1,,,,,,,,,,,,,yellow,circle
0.0,7.0,0.0,1.0,3.0,3.0,459.3710620000593,2.0,1.0,phase_1,,,,,,,,,,,,,cyan,triangle
0.0,4.0,0.0,0.0,3.0,3.0,349.530542000025,2.0,1.0,phase_1,,,,,,,,,,,,,magenta,flipped triangle
0.0,2.0,0.0,0.0,1.0,1.0,445.0728410000693,2.0,1.0,phase_1,,,,,,,,,,,,,yellow,circle
310.0,2.0,1.0,0.0,4.0,4.0,369.605745000058,2.0,1.0,phase_1,,,,,,,,,,,,,yellow,circle
0.0,6.0,0.0,1.0,3.0,3.0,323.8242190000164,2.0,1.0,phase_1,,,,,,,,,,,,,gray,square
0.0,1.0,0.0,0.0,4.0,4.0,529.7856460000503,2.0,1.0,phase_1,,,,,,,,,,,,,orange,diamond
340.0,2.0,1.0,0.0,2.0,2.0,406.8940869999551,2.0,1.0,phase_1,,,,,,,,,,,,,yellow,circle
184.0,1.0,0.5,0.0,3.0,3.0,410.0280589999556,2.0,1.0,phase_1,,,,,,,,,,,,,orange,diamond
645.0,3.0,2.0,0.0,3.0,3.0,359.2156710000154,2.0,1.0,phase_1,,,,,,,,,,,,,white,cross
0.0,6.0,0.0,1.0,2.0,2.0,430.6367079999518,2.0,2.0,phase_1,,,,,,,,,,,,,gray,square
0.0,5.0,0.0,1.0,2.0,2.0,404.6104589999686,2.0,1.0,phase_1,,,,,,,,,,,,,blue,I
0.0,7.0,0.0,1.0,1.0,1.0,459.1179190000503,2.0,1.0,phase_1,,,,,,,,,,,,,cyan,triangle
666.0,7.0,2.0,1.0,1.0,1.0,365.3477619999421,2.0,1.0,phase_1,,,,,,,,,,,,,cyan,triangle
329.0,2.0,1.0,0.0,1.0,1.0,354.6160220000729,2.0,1.0,phase_1,,,,,,,,,,,,,yellow,circle
662.0,3.0,2.0,0.0,2.0,2.0,408.5135080000555,2.0,1.0,phase_1,,,,,,,,,,,,,white,cross
0.0,7.0,0.0,1.0,3.0,3.0,514.7050360000094,2.0,1.0,phase_1,,,,,,,,,,,,,cyan,triangle
0.0,4.0,0.0,0.0,1.0,1.0,495.3433599999925,2.0,1.0,phase_1,,,,,,,,,,,,,magenta,flipped triangle
1288.0,4.0,4.0,0.0,2.0,2.0,580.8157199999187,2.0,1.0,phase_1,,,,,,,,,,,,,magenta,flipped triangle
660.0,7.0,2.0,1.0,1.0,1.0,553.3093880000024,2.0,1.0,phase_1,,,,,,,,,,,,,cyan,triangle
0.0,3.0,0.0,0.0,2.0,2.0,533.1609380000373,2.0,1.0,phase_1,,,,,,,,,,,,,white,cross
1325.0,4.0,4.0,0.0,3.0,3.0,492.3176979999653,2.0,1.0,phase_1,,,,,,,,,,,,,magenta,flipped triangle
635.0,7.0,2.0,1.0,3.0,3.0,496.2283730000081,2.0,1.0,phase_1,,,,,,,,,,,,,cyan,triangle
635.0,7.0,2.0,1.0,4.0,4.0,467.4032220000299,2.0,1.0,phase_1,,,,,,,,,,,,,cyan,triangle
149.0,5.0,0.5,1.0,1.0,1.0,394.5670229999223,2.0,1.0,phase_1,,,,,,,,,,,,,blue,I
630.0,7.0,2.0,1.0,3.0,3.0,510.4935829999704,2.0,1.0,phase_1,,,,,,,,,,,,,cyan,triangle
187.0,5.0,0.5,1.0,1.0,1.0,555.9100719999606,2.0,1.0,phase_1,,,,,,,,,,,,,blue,I
326.0,2.0,1.0,0.0,1.0,1.0,430.0830050000286,2.0,1.0,phase_1,,,,,,,,,,,,,yellow,circle
147.0,1.0,0.5,0.0,3.0,3.0,458.2983520000425,2.0,1.0,phase_1,,,,,,,,,,,,,orange,diamond
0.0,3.0,0.0,0.0,4.0,4.0,600.4262700000709,2.0,1.0,phase_1,,,,,,,,,,,,,white,cross
658.0,7.0,2.0,1.0,3.0,3.0,445.9821130000136,2.0,1.0,phase_1,,,,,,,,,,,,,cyan,triangle
653.0,7.0,2.0,1.0,4.0,4.0,704.2746140000418,2.0,1.0,phase_1,,,,,,,,,,,,,cyan,triangle
187.0,5.0,0.5,1.0,4.0,4.0,614.7602240000651,2.0,1.0,phase_1,,,,,,,,,,,,,blue,I
1281.0,4.0,4.0,0.0,1.0,1.0,610.1768989999528,2.0,1.0,phase_1,,,,,,,,,,,,,magenta,flipped triangle
155.0,5.0,0.5,1.0,4.0,4.0,521.3273260000051,2.0,1.0,phase_1,,,,,,,,,,,,,blue,I
164.0,5.0,0.5,1.0,4.0,4.0,506.74768299995776,2.0,1.0,phase_1,,,,,,,,,,,,,blue,I
137.0,5.0,0.5,1.0,3.0,3.0,400.0706820000914,2.0,1.0,phase_1,,,,,,,,,,,,,blue,I
1302.0,8.0,4.0,1.0,2.0,2.0,333.9736450000146,2.0,1.0,phase_1,,,,,,,,,,,,,green,hexagon
625.0,7.0,2.0,1.0,4.0,4.0,336.8229479999627,2.0,1.0,phase_1,,,,,,,,,,,,,cyan,triangle
0.0,6.0,0.0,1.0,2.0,2.0,565.9622509999735,2.0,1.0,phase_1,,,,,,,,,,,,,gray,square
315.0,6.0,1.0,1.0,1.0,1.0,436.872515999994,2.0,1.0,phase_1,,,,,,,,,,,,,gray,square
177.0,5.0,0.5,1.0,4.0,4.0,360.2572769999597,2.0,1.0,phase_1,,,,,,,,,,,,,blue,I
1291.0,4.0,4.0,0.0,2.0,2.0,484.0747040000224,2.0,1.0,phase_1,,,,,,,,,,,,,magenta,flipped triangle
0.0,4.0,0.0,0.0,1.0,1.0,506.8045159999883,2.0,1.0,phase_1,,,,,,,,,,,,,magenta,flipped triangle
648.0,7.0,2.0,1.0,2.0,2.0,564.0581199999133,2.0,1.0,phase_1,,,,,,,,,,,,,cyan,triangle
314.0,6.0,1.0,1.0,2.0,2.0,435.8550319999494,2.0,1.0,phase_1,,,,,,,,,,,,,gray,square
330.0,6.0,1.0,1.0,3.0,3.0,510.8992400000716,2.0,1.0,phase_1,,,,,,,,,,,,,gray,square
332.0,2.0,1.0,0.0,1.0,1.0,332.9289040000276,2.0,1.0,phase_1,,,,,,,,,,,,,yellow,circle
180.0,5.0,0.5,1.0,1.0,1.0,368.5493390000829,2.0,1.0,phase_1,,,,,,,,,,,,,blue,I
187.0,5.0,0.5,1.0,3.0,3.0,356.3904800000728,2.0,1.0,phase_1,,,,,,,,,,,,,blue,I
1279.0,4.0,4.0,0.0,4.0,4.0,949.8563070000046,2.0,2.0,phase_1,,,,,,,,,,,,,magenta,flipped triangle
634.0,3.0,2.0,0.0,4.0,4.0,522.4547500000654,2.0,1.0,phase_1,,,,,,,,,,,,,white,cross
648.0,3.0,2.0,0.0,2.0,2.0,695.2669430000924,2.0,1.0,phase_1,,,,,,,,,,,,,white,cross
349.0,2.0,1.0,0.0,1.0,1.0,499.4107609999219,2.0,1.0,phase_1,,,,,,,,,,,,,yellow,circle
1279.0,4.0,4.0,0.0,1.0,1.0,472.0915929999592,2.0,1.0,phase_1,,,,,,,,,,,,,magenta,flipped triangle
341.0,6.0,1.0,1.0,4.0,4.0,564.6870340000305,2.0,1.0,phase_1,,,,,,,,,,,,,gray,square
137.0,1.0,0.5,0.0,3.0,3.0,362.9883520000021,2.0,1.0,phase_1,,,,,,,,,,,,,orange,diamond
0.0,1.0,0.0,0.0,4.0,4.0,567.2937420000608,2.0,1.0,phase_1,,,,,,,,,,,,,orange,diamond
181.0,5.0,0.5,1.0,4.0,4.0,514.1948710000861,2.0,1.0,phase_1,,,,,,,,,,,,,blue,I
347.0,2.0,1.0,0.0,2.0,2.0,510.89546799994423,2.0,1.0,phase_1,,,,,,,,,,,,,yellow,circle
670.0,7.0,2.0,1.0,3.0,3.0,437.9019960000505,2.0,1.0,phase_1,,,,,,,,,,,,,cyan,triangle
0.0,3.0,0.0,0.0,2.0,2.0,632.4978149999652,2.0,1.0,phase_1,,,,,,,,,,,,,white,cross
320.0,6.0,1.0,1.0,4.0,4.0,510.27076599984866,2.0,1.0,phase_1,,,,,,,,,,,,,gray,square
0.0,8.0,0.0,1.0,2.0,2.0,626.4404829998966,2.0,1.0,phase_1,,,,,,,,,,,,,green,hexagon
300.0,2.0,1.0,0.0,2.0,2.0,502.31110400000034,2.0,1.0,phase_1,,,,,,,,,,,,,yellow,circle
1277.0,4.0,4.0,0.0,2.0,2.0,388.6046720001559,2.0,1.0,phase_1,,,,,,,,,,,,,magenta,flipped triangle
326.0,6.0,1.0,1.0,4.0,4.0,415.6887120000192,2.0,1.0,phase_1,,,,,,,,,,,,,gray,square
0.0,3.0,0.0,0.0,3.0,3.0,445.6224100001691,2.0,1.0,phase_1,,,,,,,,,,,,,white,cross
0.0,4.0,0.0,0.0,2.0,2.0,480.9200180000061,2.0,1.0,phase_1,,,,,,,,,,,,,magenta,flipped triangle
648.0,3.0,2.0,0.0,2.0,2.0,460.6207130000257,2.0,1.0,phase_1,,,,,,,,,,,,,white,cross
672.0,3.0,2.0,0.0,3.0,3.0,338.1823420002092,2.0,1.0,phase_1,,,,,,,,,,,,,white,cross
144.0,1.0,0.5,0.0,4.0,4.0,406.2178120000226,2.0,1.0,phase_1,,,,,,,,,,,,,orange,diamond
300.0,2.0,1.0,0.0,3.0,3.0,522.8947190000781,2.0,1.0,phase_1,,,,,,,,,,,,,yellow,circle
645.0,7.0,2.0,1.0,3.0,3.0,398.7180890001127,2.0,1.0,phase_1,,,,,,,,,,,,,cyan,triangle
634.0,7.0,2.0,1.0,4.0,4.0,427.7182490000086,2.0,1.0,phase_1,,,,,,,,,,,,,cyan,triangle
339.0,6.0,1.0,1.0,2.0,2.0,632.6393250001274,2.0,1.0,phase_1,,,,,,,,,,,,,gray,square
307.0,6.0,1.0,1.0,3.0,3.0,532.6060780000716,2.0,1.0,phase_1,,,,,,,,,,,,,gray,square
314.0,2.0,1.0,0.0,3.0,3.0,441.6572149998501,2.0,1.0,phase_1,,,,,,,,,,,,,yellow,circle
345.0,2.0,1.0,0.0,3.0,3.0,398.7942440001006,2.0,1.0,phase_1,,,,,,,,,,,,,yellow,circle
660.0,7.0,2.0,1.0,2.0,2.0,603.2844920000571,2.0,1.0,phase_1,,,,,,,,,,,,,cyan,triangle
0.0,5.0,0.0,1.0,3.0,3.0,441.4006380000046,2.0,1.0,phase_1,,,,,,,,,,,,,blue,I
320.0,6.0,1.0,1.0,2.0,2.0,461.3560999998753,2.0,1.0,phase_1,,,,,,,,,,,,,gray,square
0.0,3.0,0.0,0.0,4.0,4.0,451.5173620000041,2.0,1.0,phase_1,,,,,,,,,,,,,white,cross
339.0,2.0,1.0,0.0,3.0,3.0,397.8532799999357,2.0,1.0,phase_1,,,,,,,,,,,,,yellow,circle
311.0,2.0,1.0,0.0,2.0,2.0,450.6441799999265,2.0,1.0,phase_1,,,,,,,,,,,,,yellow,circle
307.0,2.0,1.0,0.0,1.0,1.0,443.2712679999895,2.0,2.0,phase_1,,,,,,,,,,,,,yellow,circle
337.0,2.0,1.0,0.0,4.0,4.0,520.5677290000494,2.0,1.0,phase_1,,,,,,,,,,,,,yellow,circle
0.0,8.0,0.0,1.0,2.0,2.0,494.9964999998428,2.0,1.0,phase_1,,,,,,,,,,,,,green,hexagon
337.0,6.0,1.0,1.0,4.0,4.0,444.1134740000052,2.0,1.0,phase_1,,,,,,,,,,,,,gray,square
659.0,3.0,2.0,0.0,4.0,4.0,517.8369000000203,2.0,1.0,phase_1,,,,,,,,,,,,,white,cross
665.0,3.0,2.0,0.0,1.0,1.0,473.9733229998819,2.0,1.0,phase_1,,,,,,,,,,,,,white,cross
330.0,2.0,1.0,0.0,2.0,2.0,575.4596120000315,2.0,1.0,phase_1,,,,,,,,,,,,,yellow,circle
147.0,5.0,0.5,1.0,2.0,2.0,564.3941609998819,2.0,1.0,phase_1,,,,,,,,,,,,,blue,I
1301.0,4.0,4.0,0.0,3.0,3.0,555.352474999836,2.0,1.0,phase_1,,,,,,,,,,,,,magenta,flipped triangle
644.0,7.0,2.0,1.0,2.0,2.0,575.459685999931,2.0,1.0,phase_1,,,,,,,,,,,,,cyan,triangle
0.0,5.0,0.0,1.0,3.0,3.0,617.2073049999653,2.0,1.0,phase_1,,,,,,,,,,,,,blue,I
0.0,4.0,0.0,0.0,3.0,3.0,407.2146349999457,2.0,1.0,phase_1,,,,,,,,,,,,,magenta,flipped triangle
1283.0,8.0,4.0,1.0,3.0,3.0,532.1224039998924,3.0,1.0,phase_1,,,,,,,,,,,,,green,hexagon
1314.0,4.0,4.0,0.0,4.0,4.0,446.012021000115,3.0,2.0,phase_1,,,,,,,,,,,,,magenta,flipped triangle
0.0,2.0,0.0,0.0,1.0,1.0,448.8333819999752,3.0,1.0,phase_1,,,,,,,,,,,,,yellow,circle
345.0,2.0,1.0,0.0,4.0,4.0,448.4505980001358,3.0,1.0,phase_1,,,,,,,,,,,,,yellow,circle
626.0,7.0,2.0,1.0,1.0,1.0,410.3904670000702,3.0,1.0,phase_1,,,,,,,,,,,,,cyan,triangle
330.0,6.0,1.0,1.0,1.0,1.0,495.4464810000445,3.0,1.0,phase_1,,,,,,,,,,,,,gray,square
655.0,7.0,2.0,1.0,4.0,4.0,491.8183109998608,3.0,1.0,phase_1,,,,,,,,,,,,,cyan,triangle
0.0,4.0,0.0,0.0,1.0,1.0,538.2223379999687,3.0,1.0,phase_1,,,,,,,,,,,,,magenta,flipped triangle
156.0,5.0,0.5,1.0,1.0,1.0,360.0145640000391,3.0,1.0,phase_1,,,,,,,,,,,,,blue,I
1306.0,4.0,4.0,0.0,2.0,2.0,498.2942980000189,3.0,1.0,phase_1,,,,,,,,,,,,,magenta,flipped triangle
0.0,4.0,0.0,0.0,1.0,1.0,510.7701540000562,3.0,1.0,phase_1,,,,,,,,,,,,,magenta,flipped triangle
0.0,5.0,0.0,1.0,3.0,3.0,563.5270959999161,3.0,1.0,phase_1,,,,,,,,,,,,,blue,I
662.0,7.0,2.0,1.0,1.0,1.0,584.7055009999167,3.0,1.0,phase_1,,,,,,,,,,,,,cyan,triangle
1295.0,4.0,4.0,0.0,4.0,4.0,404.0313450000212,3.0,1.0,phase_1,,,,,,,,,,,,,magenta,flipped triangle
655.0,3.0,2.0,0.0,1.0,1.0,433.1702930001029,3.0,1.0,phase_1,,,,,,,,,,,,,white,cross
0.0,1.0,0.0,0.0,2.0,2.0,894.3993969999156,3.0,1.0,phase_1,,,,,,,,,,,,,orange,diamond
0.0,7.0,0.0,1.0,3.0,3.0,571.8351329999223,3.0,1.0,phase_1,,,,,,,,,,,,,cyan,triangle
1321.0,8.0,4.0,1.0,1.0,1.0,353.5420799998974,3.0,1.0,phase_1,,,,,,,,,,,,,green,hexagon
653.0,3.0,2.0,0.0,1.0,1.0,403.9306100000885,3.0,1.0,phase_1,,,,,,,,,,,,,white,cross
345.0,6.0,1.0,1.0,1.0,1.0,362.3426239998935,3.0,1.0,phase_1,,,,,,,,,,,,,gray,square
1314.0,8.0,4.0,1.0,4.0,4.0,374.46878500009,3.0,1.0,phase_1,,,,,,,,,,,,,green,hexagon
322.0,2.0,1.0,0.0,3.0,3.0,457.8530310000133,3.0,1.0,phase_1,,,,,,,,,,,,,yellow,circle
645.0,7.0,2.0,1.0,3.0,3.0,496.0250189999442,3.0,1.0,phase_1,,,,,,,,,,,,,cyan,triangle
143.0,5.0,0.5,1.0,2.0,2.0,474.9615000000631,3.0,1.0,phase_1,,,,,,,,,,,,,blue,I
345.0,2.0,1.0,0.0,4.0,4.0,407.0103179999478,3.0,1.0,phase_1,,,,,,,,,,,,,yellow,circle
1283.0,4.0,4.0,0.0,1.0,1.0,347.6878839999244,3.0,1.0,phase_1,,,,,,,,,,,,,magenta,flipped triangle
306.0,2.0,1.0,0.0,3.0,3.0,392.4961899999744,3.0,1.0,phase_1,,,,,,,,,,,,,yellow,circle
1322.0,8.0,4.0,1.0,3.0,3.0,469.4513540000571,3.0,1.0,phase_1,,,,,,,,,,,,,green,hexagon
670.0,7.0,2.0,1.0,2.0,2.0,507.3649180001212,3.0,1.0,phase_1,,,,,,,,,,,,,cyan,triangle
0.0,2.0,0.0,0.0,3.0,3.0,421.6751829999339,3.0,1.0,phase_1,,,,,,,,,,,,,yellow,circle
309.0,6.0,1.0,1.0,3.0,3.0,379.3542930000058,3.0,1.0,phase_1,,,,,,,,,,,,,gray,square
0.0,8.0,0.0,1.0,3.0,3.0,407.3662519999743,3.0,1.0,phase_1,,,,,,,,,,,,,green,hexagon
319.0,6.0,1.0,1.0,3.0,3.0,364.4721070002106,3.0,1.0,phase_1,,,,,,,,,,,,,gray,square
644.0,3.0,2.0,0.0,2.0,2.0,520.2599250001185,3.0,1.0,phase_1,,,,,,,,,,,,,white,cross
145.0,1.0,0.5,0.0,1.0,1.0,462.8752709998025,3.0,1.0,phase_1,,,,,,,,,,,,,orange,diamond
300.0,6.0,1.0,1.0,1.0,1.0,395.1023189999887,3.0,1.0,phase_1,,,,,,,,,,,,,gray,square
662.0,7.0,2.0,1.0,4.0,4.0,552.2710109999025,3.0,1.0,phase_1,,,,,,,,,,,,,cyan,triangle
143.0,5.0,0.5,1.0,3.0,3.0,507.39296299980197,3.0,1.0,phase_1,,,,,,,,,,,,,blue,I
1309.0,8.0,4.0,1.0,2.0,2.0,432.4881319998894,3.0,1.0,phase_1,,,,,,,,,,,,,green,hexagon
311.0,6.0,1.0,1.0,2.0,2.0,477.2508900000503,3.0,1.0,phase_1,,,,,,,,,,,,,gray,square
310.0,6.0,1.0,1.0,4.0,4.0,489.5808450000913,3.0,1.0,phase_1,,,,,,,,,,,,,gray,square
645.0,3.0,2.0,0.0,3.0,3.0,512.6399759999458,3.0,1.0,phase_1,,,,,,,,,,,,,white,cross
1285.0,8.0,4.0,1.0,4.0,4.0,397.5103699999636,3.0,1.0,phase_1,,,,,,,,,,,,,green,hexagon
645.0,3.0,2.0,0.0,2.0,2.0,514.1052789999776,3.0,1.0,phase_1,,,,,,,,,,,,,white,cross
1277.0,8.0,4.0,1.0,4.0,4.0,638.1475970001702,3.0,1.0,phase_1,,,,,,,,,,,,,green,hexagon
1291.0,4.0,4.0,0.0,2.0,2.0,451.0721060000833,3.0,1.0,phase_1,,,,,,,,,,,,,magenta,flipped triangle
0.0,5.0,0.0,1.0,2.0,2.0,431.5739669998493,3.0,1.0,phase_1,,,,,,,,,,,,,blue,I
1305.0,4.0,4.0,0.0,4.0,4.0,385.7152540001607,3.0,1.0,phase_1,,,,,,,,,,,,,magenta,flipped triangle
1317.0,4.0,4.0,0.0,2.0,2.0,368.313358000023,3.0,1.0,phase_1,,,,,,,,,,,,,magenta,flipped triangle
319.0,2.0,1.0,0.0,4.0,4.0,412.25868000015,3.0,1.0,phase_1,,,,,,,,,,,,,yellow,circle
630.0,3.0,2.0,0.0,4.0,4.0,513.5904900000696,3.0,1.0,phase_1,,,,,,,,,,,,,white,cross
633.0,3.0,2.0,0.0,4.0,4.0,364.2691699999432,3.0,1.0,phase_1,,,,,,,,,,,,,white,cross
0.0,4.0,0.0,0.0,3.0,3.0,514.1113019999466,3.0,1.0,phase_1,,,,,,,,,,,,,magenta,flipped triangle
153.0,5.0,0.5,1.0,3.0,3.0,414.9141579998741,3.0,1.0,phase_1,,,,,,,,,,,,,blue,I
311.0,6.0,1.0,1.0,2.0,2.0,569.9514420000469,3.0,1.0,phase_1,,,,,,,,,,,,,gray,square
648.0,7.0,2.0,1.0,2.0,2.0,777.029968999841,3.0,1.0,phase_1,,,,,,,,,,,,,cyan,triangle
155.0,1.0,0.5,0.0,2.0,2.0,427.3911569998745,3.0,1.0,phase_1,,,,,,,,,,,,,orange,diamond
670.0,3.0,2.0,0.0,1.0,1.0,511.1768619999566,3.0,1.0,phase_1,,,,,,,,,,,,,white,cross
652.0,3.0,2.0,0.0,4.0,4.0,511.1419659999683,3.0,1.0,phase_1,,,,,,,,,,,,,white,cross
163.0,5.0,0.5,1.0,2.0,2.0,505.21754900000815,3.0,1.0,phase_1,,,,,,,,,,,,,blue,I
1295.0,8.0,4.0,1.0,1.0,1.0,389.3692899998768,3.0,1.0,phase_1,,,,,,,,,,,,,green,hexagon
338.0,2.0,1.0,0.0,2.0,2.0,435.5078410001169,3.0,1.0,phase_1,,,,,,,,,,,,,yellow,circle
186.0,1.0,0.5,0.0,3.0,3.0,360.840195000037,3.0,1.0,phase_1,,,,,,,,,,,,,orange,diamond
177.0,1.0,0.5,0.0,1.0,1.0,450.9973490000902,3.0,1.0,phase_1,,,,,,,,,,,,,orange,diamond
1279.0,8.0,4.0,1.0,1.0,1.0,456.5267119999134,3.0,1.0,phase_1,,,,,,,,,,,,,green,hexagon
172.0,1.0,0.5,0.0,2.0,2.0,541.0292930000651,3.0,1.0,phase_1,,,,,,,,,,,,,orange,diamond
0.0,7.0,0.0,1.0,4.0,4.0,723.9672939999764,3.0,1.0,phase_1,,,,,,,,,,,,,cyan,triangle
1280.0,8.0,4.0,1.0,3.0,3.0,400.7753640000828,3.0,1.0,phase_1,,,,,,,,,,,,,green,hexagon
1310.0,8.0,4.0,1.0,3.0,3.0,380.3983560001143,3.0,1.0,phase_1,,,,,,,,,,,,,green,hexagon
141.0,1.0,0.5,0.0,2.0,2.0,503.17442999994455,3.0,1.0,phase_1,,,,,,,,,,,,,orange,diamond
154.0,1.0,0.5,0.0,2.0,2.0,507.5563179998426,3.0,1.0,phase_1,,,,,,,,,,,,,orange,diamond
0.0,1.0,0.0,0.0,2.0,2.0,418.8768139999865,3.0,1.0,phase_1,,,,,,,,,,,,,orange,diamond
187.0,1.0,0.5,0.0,4.0,4.0,646.1094710000452,3.0,1.0,phase_1,,,,,,,,,,,,,orange,diamond
0.0,7.0,0.0,1.0,4.0,4.0,370.3064159999485,3.0,1.0,phase_1,,,,,,,,,,,,,cyan,triangle
1317.0,4.0,4.0,0.0,3.0,3.0,350.0499079998462,3.0,1.0,phase_1,,,,,,,,,,,,,magenta,flipped triangle
670.0,3.0,2.0,0.0,1.0,1.0,411.3931909998882,3.0,1.0,phase_1,,,,,,,,,,,,,white,cross
625.0,3.0,2.0,0.0,3.0,3.0,527.9108719998931,3.0,1.0,phase_1,,,,,,,,,,,,,white,cross
0.0,1.0,0.0,0.0,1.0,1.0,406.0263540000051,3.0,1.0,phase_1,,,,,,,,,,,,,orange,diamond
315.0,2.0,1.0,0.0,4.0,4.0,395.886050999934,3.0,1.0,phase_1,,,,,,,,,,,,,yellow,circle
1309.0,4.0,4.0,0.0,1.0,1.0,510.960151000063,3.0,1.0,phase_1,,,,,,,,,,,,,magenta,flipped triangle
0.0,1.0,0.0,0.0,1.0,1.0,545.7191240000157,3.0,1.0,phase_1,,,,,,,,,,,,,orange,diamond
187.0,1.0,0.5,0.0,1.0,1.0,344.9525169999106,3.0,1.0,phase_1,,,,,,,,,,,,,orange,diamond
0.0,1.0,0.0,0.0,4.0,4.0,264.4010839999282,3.0,2.0,phase_1,,,,,,,,,,,,,orange,diamond
644.0,7.0,2.0,1.0,1.0,1.0,486.6067700002077,3.0,1.0,phase_1,,,,,,,,,,,,,cyan,triangle
155.0,5.0,0.5,1.0,3.0,3.0,521.0229300000719,3.0,1.0,phase_1,,,,,,,,,,,,,blue,I
142.0,1.0,0.5,0.0,1.0,1.0,541.2980680000601,3.0,1.0,phase_1,,,,,,,,,,,,,orange,diamond
140.0,5.0,0.5,1.0,1.0,1.0,460.0465419998727,3.0,1.0,phase_1,,,,,,,,,,,,,blue,I
1281.0,8.0,4.0,1.0,2.0,2.0,638.373761000139,3.0,1.0,phase_1,,,,,,,,,,,,,green,hexagon
181.0,5.0,0.5,1.0,4.0,4.0,403.7378040000021,3.0,1.0,phase_1,,,,,,,,,,,,,blue,I
0.0,7.0,0.0,1.0,3.0,3.0,440.0078759999815,3.0,1.0,phase_1,,,,,,,,,,,,,cyan,triangle
0.0,2.0,0.0,0.0,3.0,3.0,517.5928549999753,3.0,1.0,phase_1,,,,,,,,,,,,,yellow,circle
0.0,7.0,0.0,1.0,3.0,3.0,323.8502670001253,3.0,1.0,phase_1,,,,,,,,,,,,,cyan,triangle
1309.0,4.0,4.0,0.0,3.0,3.0,424.6178389998931,3.0,1.0,phase_1,,,,,,,,,,,,,magenta,flipped triangle
0.0,6.0,0.0,1.0,3.0,3.0,370.6999949999954,3.0,1.0,phase_1,,,,,,,,,,,,,gray,square
1297.0,8.0,4.0,1.0,3.0,3.0,335.3433810000297,3.0,1.0,phase_1,,,,,,,,,,,,,green,hexagon
300.0,6.0,1.0,1.0,4.0,4.0,875.4474739998841,3.0,1.0,phase_1,,,,,,,,,,,,,gray,square
0.0,5.0,0.0,1.0,4.0,4.0,416.2042350001229,3.0,1.0,phase_1,,,,,,,,,,,,,blue,I
332.0,6.0,1.0,1.0,3.0,3.0,453.7935129999368,3.0,1.0,phase_1,,,,,,,,,,,,,gray,square
0.0,6.0,0.0,1.0,1.0,1.0,409.152868000092,3.0,1.0,phase_1,,,,,,,,,,,,,gray,square
0.0,6.0,0.0,1.0,4.0,4.0,504.36277799985874,3.0,1.0,phase_1,,,,,,,,,,,,,gray,square
626.0,3.0,2.0,0.0,4.0,4.0,584.6881639999992,4.0,1.0,phase_1,,,,,,,,,,,,,white,cross
1320.0,4.0,4.0,0.0,1.0,1.0,477.1890530000746,4.0,1.0,phase_1,,,,,,,,,,,,,magenta,flipped triangle
172.0,5.0,0.5,1.0,3.0,3.0,396.0490529998424,4.0,1.0,phase_1,,,,,,,,,,,,,blue,I
320.0,2.0,1.0,0.0,3.0,3.0,438.4640639998451,4.0,1.0,phase_1,,,,,,,,,,,,,yellow,circle
666.0,3.0,2.0,0.0,2.0,2.0,525.8821359998365,4.0,1.0,phase_1,,,,,,,,,,,,,white,cross
1321.0,4.0,4.0,0.0,1.0,1.0,409.7177740000006,4.0,1.0,phase_1,,,,,,,,,,,,,magenta,flipped triangle
161.0,1.0,0.5,0.0,1.0,1.0,518.7880149999273,4.0,1.0,phase_1,,,,,,,,,,,,,orange,diamond
1322.0,4.0,4.0,0.0,1.0,1.0,403.9304420000462,4.0,1.0,phase_1,,,,,,,,,,,,,magenta,flipped triangle
1280.0,4.0,4.0,0.0,3.0,3.0,397.6473130001068,4.0,1.0,phase_1,,,,,,,,,,,,,magenta,flipped triangle
143.0,1.0,0.5,0.0,4.0,4.0,490.7239869999102,4.0,1.0,phase_1,,,,,,,,,,,,,orange,diamond
652.0,7.0,2.0,1.0,2.0,2.0,520.2365190000364,4.0,1.0,phase_1,,,,,,,,,,,,,cyan,triangle
0.0,8.0,0.0,1.0,1.0,1.0,379.9826409999696,4.0,1.0,phase_1,,,,,,,,,,,,,green,hexagon
181.0,1.0,0.5,0.0,3.0,3.0,376.5784329998496,4.0,1.0,phase_1,,,,,,,,,,,,,orange,diamond
346.0,6.0,1.0,1.0,1.0,1.0,492.8612960000009,4.0,1.0,phase_1,,,,,,,,,,,,,gray,square
1322.0,8.0,4.0,1.0,4.0,4.0,329.8308040000393,4.0,1.0,phase_1,,,,,,,,,,,,,green,hexagon
177.0,1.0,0.5,0.0,1.0,1.0,509.60179799994876,4.0,1.0,phase_1,,,,,,,,,,,,,orange,diamond
0.0,4.0,0.0,0.0,1.0,1.0,436.7885709998518,4.0,1.0,phase_1,,,,,,,,,,,,,magenta,flipped triangle
153.0,1.0,0.5,0.0,1.0,1.0,368.3094670000173,4.0,1.0,phase_1,,,,,,,,,,,,,orange,diamond
155.0,1.0,0.5,0.0,4.0,4.0,469.2036629999165,4.0,1.0,phase_1,,,,,,,,,,,,,orange,diamond
1301.0,8.0,4.0,1.0,2.0,2.0,721.0663700000168,4.0,1.0,phase_1,,,,,,,,,,,,,green,hexagon
172.0,5.0,0.5,1.0,4.0,4.0,421.3970129999325,4.0,1.0,phase_1,,,,,,,,,,,,,blue,I
629.0,3.0,2.0,0.0,2.0,2.0,507.5883929998781,4.0,1.0,phase_1,,,,,,,,,,,,,white,cross
311.0,2.0,1.0,0.0,1.0,1.0,321.2070329998369,4.0,1.0,phase_1,,,,,,,,,,,,,yellow,circle
672.0,7.0,2.0,1.0,1.0,1.0,460.2023070001451,4.0,1.0,phase_1,,,,,,,,,,,,,cyan,triangle
645.0,7.0,2.0,1.0,4.0,4.0,448.4963190000144,4.0,1.0,phase_1,,,,,,,,,,,,,cyan,triangle
0.0,8.0,0.0,1.0,2.0,2.0,549.7703300000012,4.0,1.0,phase_1,,,,,,,,,,,,,green,hexagon
635.0,3.0,2.0,0.0,1.0,1.0,449.1590239999823,4.0,1.0,phase_1,,,,,,,,,,,,,white,cross
147.0,5.0,0.5,1.0,3.0,3.0,375.2154850001261,4.0,1.0,phase_1,,,,,,,,,,,,,blue,I
1322.0,4.0,4.0,0.0,3.0,3.0,346.5096659999744,4.0,1.0,phase_1,,,,,,,,,,,,,magenta,flipped triangle
1291.0,8.0,4.0,1.0,3.0,3.0,320.1619640001354,4.0,1.0,phase_1,,,,,,,,,,,,,green,hexagon
187.0,1.0,0.5,0.0,4.0,4.0,517.6367689998642,4.0,1.0,phase_1,,,,,,,,,,,,,orange,diamond
320.0,2.0,1.0,0.0,1.0,1.0,504.5397259998481,4.0,1.0,phase_1,,,,,,,,,,,,,yellow,circle
320.0,2.0,1.0,0.0,1.0,1.0,413.4259880001991,4.0,1.0,phase_1,,,,,,,,,,,,,yellow,circle
343.0,2.0,1.0,0.0,2.0,2.0,507.53977900012615,4.0,1.0,phase_1,,,,,,,,,,,,,yellow,circle
0.0,4.0,0.0,0.0,1.0,1.0,367.5029589999212,4.0,1.0,phase_1,,,,,,,,,,,,,magenta,flipped triangle
330.0,2.0,1.0,0.0,2.0,2.0,523.3808059999774,4.0,1.0,phase_1,,,,,,,,,,,,,yellow,circle
666.0,7.0,2.0,1.0,3.0,3.0,335.5489209998268,4.0,1.0,phase_1,,,,,,,,,,,,,cyan,triangle
338.0,6.0,1.0,1.0,2.0,2.0,484.1181480001069,4.0,1.0,phase_1,,,,,,,,,,,,,gray,square
0.0,2.0,0.0,0.0,4.0,4.0,560.5322699998396,4.0,1.0,phase_1,,,,,,,,,,,,,yellow,circle
670.0,7.0,2.0,1.0,1.0,1.0,381.3128130000223,4.0,1.0,phase_1,,,,,,,,,,,,,cyan,triangle
320.0,2.0,1.0,0.0,4.0,4.0,436.5511129999504,4.0,1.0,phase_1,,,,,,,,,,,,,yellow,circle
164.0,1.0,0.5,0.0,1.0,1.0,382.8653729999587,4.0,1.0,phase_1,,,,,,,,,,,,,orange,diamond
1297.0,4.0,4.0,0.0,4.0,4.0,380.8255100000224,4.0,1.0,phase_1,,,,,,,,,,,,,magenta,flipped triangle
149.0,1.0,0.5,0.0,3.0,3.0,408.6044680000213,4.0,1.0,phase_1,,,,,,,,,,,,,orange,diamond
0.0,3.0,0.0,0.0,1.0,1.0,430.7985529999314,4.0,1.0,phase_1,,,,,,,,,,,,,white,cross
137.0,5.0,0.5,1.0,4.0,4.0,353.5483970001678,4.0,1.0,phase_1,,,,,,,,,,,,,blue,I
1306.0,8.0,4.0,1.0,4.0,4.0,430.100376999917,4.0,1.0,phase_1,,,,,,,,,,,,,green,hexagon
644.0,3.0,2.0,0.0,1.0,1.0,404.558421000047,4.0,1.0,phase_1,,,,,,,,,,,,,white,cross
177.0,5.0,0.5,1.0,2.0,2.0,275.56118899997267,4.0,2.0,phase_1,,,,,,,,,,,,,blue,I
637.0,3.0,2.0,0.0,2.0,2.0,505.12991100004,4.0,1.0,phase_1,,,,,,,,,,,,,white,cross
1288.0,8.0,4.0,1.0,1.0,1.0,397.1656909998273,4.0,1.0,phase_1,,,,,,,,,,,,,green,hexagon
666.0,3.0,2.0,0.0,2.0,2.0,376.827196000022,4.0,1.0,phase_1,,,,,,,,,,,,,white,cross
156.0,1.0,0.5,0.0,4.0,4.0,560.6474240000807,4.0,1.0,phase_1,,,,,,,,,,,,,orange,diamond
1322.0,4.0,4.0,0.0,1.0,1.0,419.2338790001031,4.0,1.0,phase_1,,,,,,,,,,,,,magenta,flipped triangle
321.0,6.0,1.0,1.0,4.0,4.0,455.051395000055,4.0,1.0,phase_1,,,,,,,,,,,,,gray,square
629.0,7.0,2.0,1.0,1.0,1.0,460.1155739999285,4.0,1.0,phase_1,,,,,,,,,,,,,cyan,triangle
184.0,5.0,0.5,1.0,2.0,2.0,651.2113789999603,4.0,1.0,phase_1,,,,,,,,,,,,,blue,I
0.0,1.0,0.0,0.0,1.0,1.0,471.7758409999533,4.0,1.0,phase_1,,,,,,,,,,,,,orange,diamond
321.0,2.0,1.0,0.0,4.0,4.0,427.9845290000139,4.0,1.0,phase_1,,,,,,,,,,,,,yellow,circle
1277.0,4.0,4.0,0.0,2.0,2.0,622.8372610000861,4.0,1.0,phase_1,,,,,,,,,,,,,magenta,flipped triangle
1302.0,8.0,4.0,1.0,2.0,2.0,539.7095569999237,4.0,1.0,phase_1,,,,,,,,,,,,,green,hexagon
137.0,1.0,0.5,0.0,3.0,3.0,634.851382999841,4.0,1.0,phase_1,,,,,,,,,,,,,orange,diamond
186.0,1.0,0.5,0.0,1.0,1.0,502.12051099993005,4.0,1.0,phase_1,,,,,,,,,,,,,orange,diamond
1310.0,4.0,4.0,0.0,2.0,2.0,776.8835759998183,4.0,1.0,phase_1,,,,,,,,,,,,,magenta,flipped triangle
180.0,1.0,0.5,0.0,3.0,3.0,414.4203529999686,4.0,1.0,phase_1,,,,,,,,,,,,,orange,diamond
0.0,5.0,0.0,1.0,3.0,3.0,403.7181559999681,4.0,1.0,phase_1,,,,,,,,,,,,,blue,I
140.0,1.0,0.5,0.0,4.0,4.0,430.7353629999397,4.0,1.0,phase_1,,,,,,,,,,,,,orange,diamond
0.0,6.0,0.0,1.0,2.0,2.0,715.2867319998677,4.0,1.0,phase_1,,,,,,,,,,,,,gray,square
1325.0,8.0,4.0,1.0,4.0,4.0,561.3716119999026,4.0,1.0,phase_1,,,,,,,,,,,,,green,hexagon
1285.0,4.0,4.0,0.0,4.0,4.0,572.7843840002151,4.0,1.0,phase_1,,,,,,,,,,,,,magenta,flipped triangle
1302.0,4.0,4.0,0.0,4.0,4.0,444.4926359999499,4.0,1.0,phase_1,,,,,,,,,,,,,magenta,flipped triangle
145.0,5.0,0.5,1.0,1.0,1.0,576.1150790001466,4.0,1.0,phase_1,,,,,,,,,,,,,blue,I
1280.0,4.0,4.0,0.0,3.0,3.0,451.4485329998479,4.0,1.0,phase_1,,,,,,,,,,,,,magenta,flipped triangle
670.0,3.0,2.0,0.0,3.0,3.0,506.0788139999204,4.0,1.0,phase_1,,,,,,,,,,,,,white,cross
669.0,3.0,2.0,0.0,3.0,3.0,436.5770580000117,4.0,1.0,phase_1,,,,,,,,,,,,,white,cross
638.0,3.0,2.0,0.0,3.0,3.0,328.687501000104,4.0,1.0,phase_1,,,,,,,,,,,,,white,cross
0.0,5.0,0.0,1.0,1.0,1.0,375.6148620000203,4.0,1.0,phase_1,,,,,,,,,,,,,blue,I
1303.0,4.0,4.0,0.0,4.0,4.0,635.1772269999856,4.0,1.0,phase_1,,,,,,,,,,,,,magenta,flipped triangle
1285.0,8.0,4.0,1.0,4.0,4.0,464.5234629999777,4.0,1.0,phase_1,,,,,,,,,,,,,green,hexagon
312.0,6.0,1.0,1.0,3.0,3.0,299.5378620000792,4.0,1.0,phase_1,,,,,,,,,,,,,gray,square
182.0,5.0,0.5,1.0,2.0,2.0,262.2532810000848,4.0,2.0,phase_1,,,,,,,,,,,,,blue,I
330.0,6.0,1.0,1.0,1.0,1.0,448.8126290000309,4.0,1.0,phase_1,,,,,,,,,,,,,gray,square
1317.0,8.0,4.0,1.0,2.0,2.0,869.7992279999198,4.0,1.0,phase_1,,,,,,,,,,,,,green,hexagon
1312.0,4.0,4.0,0.0,3.0,3.0,467.2202489998653,4.0,1.0,phase_1,,,,,,,,,,,,,magenta,flipped triangle
0.0,3.0,0.0,0.0,4.0,4.0,455.1584719999937,4.0,1.0,phase_1,,,,,,,,,,,,,white,cross
341.0,2.0,1.0,0.0,3.0,3.0,436.6807290000452,4.0,1.0,phase_1,,,,,,,,,,,,,yellow,circle
163.0,1.0,0.5,0.0,2.0,2.0,344.7662669998408,4.0,1.0,phase_1,,,,,,,,,,,,,orange,diamond
669.0,7.0,2.0,1.0,4.0,4.0,487.1232539999255,4.0,1.0,phase_1,,,,,,,,,,,,,cyan,triangle
327.0,2.0,1.0,0.0,1.0,1.0,417.9601779999302,4.0,1.0,phase_1,,,,,,,,,,,,,yellow,circle
0.0,7.0,0.0,1.0,4.0,4.0,421.8567370000983,4.0,1.0,phase_1,,,,,,,,,,,,,cyan,triangle
1317.0,8.0,4.0,1.0,2.0,2.0,493.2998270001008,4.0,1.0,phase_1,,,,,,,,,,,,,green,hexagon
144.0,5.0,0.5,1.0,2.0,2.0,463.361113000019,4.0,1.0,phase_1,,,,,,,,,,,,,blue,I
0.0,5.0,0.0,1.0,4.0,4.0,492.603365999912,4.0,1.0,phase_1,,,,,,,,,,,,,blue,I
300.0,6.0,1.0,1.0,3.0,3.0,529.7973650001495,4.0,1.0,phase_1,,,,,,,,,,,,,gray,square
1279.0,8.0,4.0,1.0,2.0,2.0,750.0694079999448,4.0,1.0,phase_1,,,,,,,,,,,,,green,hexagon
158.0,1.0,0.5,0.0,1.0,1.0,467.1088819998203,4.0,1.0,phase_1,,,,,,,,,,,,,orange,diamond
0.0,5.0,0.0,1.0,4.0,4.0,397.903918999873,4.0,1.0,phase_1,,,,,,,,,,,,,blue,I
343.0,6.0,1.0,1.0,1.0,1.0,452.8424569998606,4.0,1.0,phase_1,,,,,,,,,,,,,gray,square
0.0,2.0,0.0,0.0,3.0,3.0,417.6735500000177,4.0,1.0,phase_1,,,,,,,,,,,,,yellow,circle
644.0,7.0,2.0,1.0,3.0,3.0,435.8355850001771,4.0,1.0,phase_1,,,,,,,,,,,,,cyan,triangle
0.0,3.0,2.0,0.0,6.0,6.0,893.7471990000176,1.0,1.0,phase_2,go,250.0,250.0,1.0,,,,,,,,,white,cross
0.0,5.0,0.5,1.0,6.0,0.0,0.0,1.0,1.0,phase_2,stop,250.0,250.0,4.0,,,,,,,,,blue,I
0.0,2.0,1.0,0.0,6.0,6.0,852.111566999838,1.0,1.0,phase_2,go,250.0,300.0,1.0,,,,,,,,,yellow,circle
0.0,8.0,4.0,1.0,5.0,0.0,0.0,1.0,1.0,phase_2,stop,250.0,300.0,4.0,,,,,,,,,green,hexagon
0.0,3.0,2.0,0.0,6.0,6.0,819.3147529998441,1.0,1.0,phase_2,go,300.0,300.0,1.0,,,,,,,,,white,cross
0.0,2.0,1.0,0.0,5.0,5.0,994.7081410000465,1.0,1.0,phase_2,go,300.0,300.0,1.0,,,,,,,,,yellow,circle
0.0,7.0,2.0,1.0,5.0,5.0,1041.710084999977,1.0,1.0,phase_2,go,300.0,300.0,1.0,,,,,,,,,cyan,triangle
0.0,8.0,4.0,1.0,6.0,0.0,0.0,1.0,1.0,phase_2,stop,300.0,300.0,4.0,,,,,,,,,green,hexagon
0.0,3.0,2.0,0.0,6.0,6.0,992.79323199994,1.0,1.0,phase_2,go,300.0,350.0,1.0,,,,,,,,,white,cross
0.0,8.0,4.0,1.0,5.0,5.0,1081.564662999881,1.0,1.0,phase_2,go,300.0,350.0,1.0,,,,,,,,,green,hexagon
0.0,1.0,0.5,0.0,6.0,6.0,1111.6910829998687,1.0,1.0,phase_2,go,300.0,350.0,1.0,,,,,,,,,orange,diamond
0.0,8.0,4.0,1.0,6.0,0.0,0.0,1.0,1.0,phase_2,stop,300.0,350.0,4.0,,,,,,,,,green,hexagon
0.0,8.0,4.0,1.0,5.0,0.0,0.0,1.0,1.0,phase_2,stop,300.0,400.0,4.0,,,,,,,,,green,hexagon
0.0,5.0,0.5,1.0,6.0,6.0,773.8840980000532,1.0,1.0,phase_2,go,350.0,400.0,1.0,,,,,,,,,blue,I
0.0,8.0,4.0,1.0,6.0,6.0,1174.8296079999818,1.0,1.0,phase_2,go,350.0,400.0,1.0,,,,,,,,,green,hexagon
0.0,1.0,0.5,0.0,5.0,5.0,790.5708000000686,1.0,1.0,phase_2,go,350.0,400.0,1.0,,,,,,,,,orange,diamond
0.0,7.0,2.0,1.0,5.0,0.0,0.0,1.0,1.0,phase_2,stop,350.0,400.0,4.0,,,,,,,,,cyan,triangle
0.0,4.0,4.0,0.0,6.0,6.0,795.8512189998146,1.0,1.0,phase_2,go,400.0,400.0,1.0,,,,,,,,,magenta,flipped triangle
0.0,7.0,2.0,1.0,6.0,0.0,0.0,1.0,1.0,phase_2,stop,400.0,400.0,4.0,,,,,,,,,cyan,triangle
0.0,6.0,1.0,1.0,6.0,0.0,0.0,1.0,1.0,phase_2,stop,400.0,450.0,4.0,,,,,,,,,gray,square
0.0,3.0,2.0,0.0,5.0,5.0,696.5672880000966,1.0,1.0,phase_2,go,400.0,500.0,1.0,,,,,,,,,white,cross
0.0,4.0,4.0,0.0,6.0,6.0,936.0877950000486,1.0,1.0,phase_2,go,400.0,500.0,1.0,,,,,,,,,magenta,flipped triangle
0.0,8.0,4.0,1.0,6.0,0.0,0.0,1.0,1.0,phase_2,stop,400.0,500.0,4.0,,,,,,,,,green,hexagon
0.0,2.0,1.0,0.0,5.0,5.0,1006.6125929999998,1.0,1.0,phase_2,go,400.0,550.0,1.0,,,,,,,,,yellow,circle
0.0,1.0,0.5,0.0,5.0,5.0,847.1203700000842,1.0,1.0,phase_2,go,400.0,550.0,1.0,,,,,,,,,orange,diamond
0.0,3.0,2.0,0.0,6.0,6.0,750.3720540000813,1.0,1.0,phase_2,go,400.0,550.0,1.0,,,,,,,,,white,cross
0.0,4.0,4.0,0.0,5.0,5.0,759.2575730000135,1.0,1.0,phase_2,go,400.0,550.0,1.0,,,,,,,,,magenta,flipped triangle
0.0,4.0,4.0,0.0,5.0,5.0,981.1652670000512,1.0,1.0,phase_2,go,400.0,550.0,1.0,,,,,,,,,magenta,flipped triangle
0.0,5.0,0.5,1.0,6.0,0.0,0.0,1.0,1.0,phase_2,stop,400.0,550.0,4.0,,,,,,,,,blue,I
0.0,5.0,0.5,1.0,5.0,0.0,0.0,1.0,1.0,phase_2,stop,400.0,600.0,4.0,,,,,,,,,blue,I
0.0,7.0,2.0,1.0,5.0,0.0,0.0,1.0,1.0,phase_2,stop,450.0,600.0,4.0,,,,,,,,,cyan,triangle
0.0,3.0,2.0,0.0,5.0,5.0,892.3047440002847,1.0,1.0,phase_2,go,500.0,600.0,1.0,,,,,,,,,white,cross
0.0,1.0,0.5,0.0,5.0,5.0,1451.0707069998716,1.0,1.0,phase_2,go,500.0,600.0,1.0,,,,,,,,,orange,diamond
0.0,4.0,4.0,0.0,5.0,5.0,857.5841899996703,1.0,1.0,phase_2,go,500.0,600.0,1.0,,,,,,,,,magenta,flipped triangle
0.0,6.0,1.0,1.0,5.0,0.0,0.0,1.0,1.0,phase_2,stop,500.0,600.0,4.0,,,,,,,,,gray,square
0.0,5.0,0.5,1.0,6.0,6.0,976.3903600000958,1.0,1.0,phase_2,stop,550.0,600.0,3.0,,,,,,,,,blue,I
0.0,5.0,0.5,1.0,5.0,0.0,0.0,2.0,1.0,phase_2,stop,550.0,550.0,4.0,,,,,,,,,blue,I
0.0,2.0,1.0,0.0,5.0,5.0,860.4428819999157,2.0,1.0,phase_2,go,600.0,550.0,1.0,,,,,,,,,yellow,circle
0.0,7.0,2.0,1.0,5.0,0.0,0.0,2.0,1.0,phase_2,stop,600.0,550.0,4.0,,,,,,,,,cyan,triangle
0.0,6.0,1.0,1.0,6.0,0.0,0.0,2.0,1.0,phase_2,stop,650.0,550.0,4.0,,,,,,,,,gray,square
0.0,7.0,2.0,1.0,5.0,5.0,1100.086379000004,2.0,1.0,phase_2,go,650.0,600.0,1.0,,,,,,,,,cyan,triangle
0.0,2.0,1.0,0.0,6.0,0.0,0.0,2.0,1.0,phase_2,go,650.0,600.0,5.0,,,,,,,,,yellow,circle
0.0,6.0,1.0,1.0,6.0,6.0,762.4612169997818,2.0,1.0,phase_2,go,650.0,600.0,1.0,,,,,,,,,gray,square
0.0,5.0,0.5,1.0,6.0,0.0,0.0,2.0,1.0,phase_2,stop,650.0,600.0,4.0,,,,,,,,,blue,I
0.0,5.0,0.5,1.0,6.0,6.0,882.2368109999843,2.0,1.0,phase_2,go,650.0,650.0,1.0,,,,,,,,,blue,I
0.0,7.0,2.0,1.0,6.0,6.0,961.636245000136,2.0,1.0,phase_2,go,650.0,650.0,1.0,,,,,,,,,cyan,triangle
0.0,8.0,4.0,1.0,5.0,5.0,857.4428879996958,2.0,1.0,phase_2,go,650.0,650.0,1.0,,,,,,,,,green,hexagon
0.0,4.0,4.0,0.0,5.0,5.0,841.1759309997251,2.0,1.0,phase_2,go,650.0,650.0,1.0,,,,,,,,,magenta,flipped triangle
0.0,3.0,2.0,0.0,6.0,6.0,854.8151619997952,2.0,1.0,phase_2,go,650.0,650.0,1.0,,,,,,,,,white,cross
0.0,6.0,1.0,1.0,5.0,5.0,815.3923820000273,2.0,1.0,phase_2,go,650.0,650.0,1.0,,,,,,,,,gray,square
0.0,4.0,4.0,0.0,6.0,6.0,991.2777350000396,2.0,1.0,phase_2,go,650.0,650.0,1.0,,,,,,,,,magenta,flipped triangle
0.0,8.0,4.0,1.0,5.0,5.0,756.1931069999446,2.0,1.0,phase_2,stop,650.0,650.0,3.0,,,,,,,,,green,hexagon
0.0,1.0,0.5,0.0,6.0,6.0,980.3626140001144,2.0,1.0,phase_2,go,600.0,650.0,1.0,,,,,,,,,orange,diamond
0.0,2.0,1.0,0.0,6.0,6.0,899.0515000000414,2.0,1.0,phase_2,go,600.0,650.0,1.0,,,,,,,,,yellow,circle
0.0,4.0,4.0,0.0,6.0,0.0,0.0,2.0,1.0,phase_2,go,600.0,650.0,5.0,,,,,,,,,magenta,flipped triangle
0.0,4.0,4.0,0.0,6.0,6.0,676.2790989996574,2.0,1.0,phase_2,go,600.0,650.0,1.0,,,,,,,,,magenta,flipped triangle
0.0,4.0,4.0,0.0,5.0,5.0,1075.2175020002142,2.0,1.0,phase_2,go,600.0,650.0,1.0,,,,,,,,,magenta,flipped triangle
0.0,5.0,0.5,1.0,6.0,6.0,816.8824829999721,2.0,1.0,phase_2,stop,600.0,650.0,3.0,,,,,,,,,blue,I
0.0,7.0,2.0,1.0,5.0,5.0,1114.2080439999518,2.0,1.0,phase_2,go,600.0,600.0,1.0,,,,,,,,,cyan,triangle
0.0,5.0,0.5,1.0,5.0,0.0,0.0,2.0,1.0,phase_2,stop,600.0,600.0,4.0,,,,,,,,,blue,I
0.0,1.0,0.5,0.0,5.0,0.0,0.0,2.0,1.0,phase_2,go,650.0,600.0,5.0,,,,,,,,,orange,diamond
0.0,7.0,2.0,1.0,5.0,5.0,823.4308030000648,2.0,1.0,phase_2,stop,650.0,600.0,3.0,,,,,,,,,cyan,triangle
0.0,6.0,1.0,1.0,6.0,0.0,0.0,2.0,1.0,phase_2,stop,600.0,600.0,4.0,,,,,,,,,gray,square
0.0,2.0,1.0,0.0,6.0,6.0,759.165665999717,2.0,1.0,phase_2,go,600.0,650.0,1.0,,,,,,,,,yellow,circle
0.0,5.0,0.5,1.0,5.0,0.0,0.0,2.0,1.0,phase_2,stop,600.0,650.0,4.0,,,,,,,,,blue,I
0.0,7.0,2.0,1.0,6.0,0.0,0.0,2.0,1.0,phase_2,stop,650.0,650.0,4.0,,,,,,,,,cyan,triangle
0.0,3.0,2.0,0.0,5.0,5.0,954.8642049999216,2.0,1.0,phase_2,go,650.0,700.0,1.0,,,,,,,,,white,cross
0.0,7.0,2.0,1.0,6.0,0.0,0.0,2.0,1.0,phase_2,stop,650.0,700.0,4.0,,,,,,,,,cyan,triangle
0.0,4.0,4.0,0.0,6.0,6.0,842.4168769997777,2.0,1.0,phase_2,go,650.0,750.0,1.0,,,,,,,,,magenta,flipped triangle
0.0,1.0,0.5,0.0,5.0,5.0,842.0349120001447,2.0,1.0,phase_2,go,650.0,750.0,1.0,,,,,,,,,orange,diamond
0.0,3.0,2.0,0.0,5.0,5.0,1026.761634000195,2.0,1.0,phase_2,go,650.0,750.0,1.0,,,,,,,,,white,cross
0.0,6.0,1.0,1.0,6.0,6.0,1010.0232939998932,2.0,1.0,phase_2,go,650.0,750.0,1.0,,,,,,,,,gray,square
0.0,5.0,0.5,1.0,5.0,0.0,0.0,3.0,1.0,phase_2,stop,650.0,750.0,4.0,,,,,,,,,blue,I
0.0,2.0,1.0,0.0,6.0,6.0,831.9323480000094,3.0,1.0,phase_2,go,700.0,750.0,1.0,,,,,,,,,yellow,circle
0.0,7.0,2.0,1.0,5.0,5.0,804.9341920000188,3.0,1.0,phase_2,stop,700.0,750.0,3.0,,,,,,,,,cyan,triangle
0.0,3.0,2.0,0.0,6.0,0.0,0.0,3.0,1.0,phase_2,go,650.0,750.0,5.0,,,,,,,,,white,cross
0.0,8.0,4.0,1.0,6.0,6.0,790.6000129996755,3.0,1.0,phase_2,stop,650.0,750.0,3.0,,,,,,,,,green,hexagon
0.0,6.0,1.0,1.0,5.0,0.0,0.0,3.0,1.0,phase_2,stop,650.0,700.0,4.0,,,,,,,,,gray,square
0.0,2.0,1.0,0.0,5.0,5.0,979.346607000025,3.0,1.0,phase_2,go,700.0,700.0,1.0,,,,,,,,,yellow,circle
0.0,7.0,2.0,1.0,5.0,0.0,0.0,3.0,1.0,phase_2,stop,700.0,700.0,4.0,,,,,,,,,cyan,triangle
0.0,5.0,0.5,1.0,6.0,0.0,0.0,3.0,1.0,phase_2,stop,750.0,700.0,4.0,,,,,,,,,blue,I
0.0,7.0,2.0,1.0,6.0,6.0,890.6101970001146,3.0,1.0,phase_2,stop,750.0,750.0,3.0,,,,,,,,,cyan,triangle
0.0,4.0,4.0,0.0,5.0,0.0,0.0,3.0,1.0,phase_2,go,750.0,700.0,5.0,,,,,,,,,magenta,flipped triangle
0.0,7.0,2.0,1.0,5.0,5.0,793.202231000123,3.0,1.0,phase_2,stop,750.0,700.0,3.0,,,,,,,,,cyan,triangle
0.0,2.0,1.0,0.0,6.0,6.0,1223.8804950002304,3.0,1.0,phase_2,go,700.0,700.0,1.0,,,,,,,,,yellow,circle
0.0,3.0,2.0,0.0,6.0,6.0,919.1816739999012,3.0,1.0,phase_2,go,700.0,700.0,1.0,,,,,,,,,white,cross
0.0,1.0,0.5,0.0,6.0,6.0,878.4100820003005,3.0,1.0,phase_2,go,700.0,700.0,1.0,,,,,,,,,orange,diamond
0.0,8.0,4.0,1.0,6.0,0.0,0.0,3.0,1.0,phase_2,stop,700.0,700.0,4.0,,,,,,,,,green,hexagon
0.0,2.0,1.0,0.0,5.0,5.0,996.3317920000918,3.0,1.0,phase_2,go,700.0,750.0,1.0,,,,,,,,,yellow,circle
0.0,1.0,0.5,0.0,5.0,5.0,1148.6287079997055,3.0,1.0,phase_2,go,700.0,750.0,1.0,,,,,,,,,orange,diamond
0.0,5.0,0.5,1.0,5.0,0.0,0.0,3.0,1.0,phase_2,stop,700.0,750.0,4.0,,,,,,,,,blue,I
0.0,5.0,0.5,1.0,6.0,0.0,0.0,3.0,1.0,phase_2,stop,750.0,750.0,4.0,,,,,,,,,blue,I
0.0,4.0,4.0,0.0,6.0,6.0,1020.011422999687,3.0,1.0,phase_2,go,750.0,800.0,1.0,,,,,,,,,magenta,flipped triangle
0.0,1.0,0.5,0.0,5.0,5.0,971.7554290000407,3.0,1.0,phase_2,go,750.0,800.0,1.0,,,,,,,,,orange,diamond
0.0,8.0,4.0,1.0,6.0,6.0,1313.4852349999164,3.0,1.0,phase_2,go,750.0,800.0,1.0,,,,,,,,,green,hexagon
0.0,1.0,0.5,0.0,6.0,0.0,0.0,3.0,1.0,phase_2,go,750.0,800.0,5.0,,,,,,,,,orange,diamond
0.0,8.0,4.0,1.0,6.0,0.0,0.0,3.0,1.0,phase_2,stop,750.0,800.0,4.0,,,,,,,,,green,hexagon
0.0,5.0,0.5,1.0,6.0,6.0,760.5835459999071,3.0,1.0,phase_2,stop,750.0,850.0,3.0,,,,,,,,,blue,I
0.0,2.0,1.0,0.0,5.0,5.0,591.1843180001597,3.0,1.0,phase_2,go,750.0,800.0,1.0,,,,,,,,,yellow,circle
0.0,5.0,0.5,1.0,5.0,0.0,0.0,3.0,1.0,phase_2,stop,750.0,800.0,4.0,,,,,,,,,blue,I
0.0,5.0,0.5,1.0,5.0,0.0,0.0,3.0,1.0,phase_2,go,800.0,800.0,5.0,,,,,,,,,blue,I
0.0,7.0,2.0,1.0,5.0,5.0,764.2848909999884,3.0,1.0,phase_2,stop,800.0,800.0,3.0,,,,,,,,,cyan,triangle
0.0,1.0,0.5,0.0,5.0,5.0,1468.5196659997928,3.0,1.0,phase_2,go,750.0,800.0,1.0,,,,,,,,,orange,diamond
0.0,8.0,4.0,1.0,5.0,5.0,1189.44113400039,3.0,1.0,phase_2,go,750.0,800.0,1.0,,,,,,,,,green,hexagon
0.0,1.0,0.5,0.0,6.0,6.0,539.5529600000373,3.0,1.0,phase_2,go,750.0,800.0,1.0,,,,,,,,,orange,diamond
0.0,2.0,1.0,0.0,5.0,5.0,722.7806669998245,3.0,1.0,phase_2,go,750.0,800.0,1.0,,,,,,,,,yellow,circle
0.0,1.0,0.5,0.0,6.0,6.0,795.6857710000804,3.0,1.0,phase_2,go,750.0,800.0,1.0,,,,,,,,,orange,diamond
0.0,1.0,0.5,0.0,6.0,6.0,929.5092759998624,3.0,1.0,phase_2,go,750.0,800.0,1.0,,,,,,,,,orange,diamond
0.0,7.0,2.0,1.0,6.0,6.0,764.8609269999724,4.0,1.0,phase_2,stop,750.0,800.0,3.0,,,,,,,,,cyan,triangle
0.0,4.0,4.0,0.0,5.0,5.0,500.632497999959,4.0,1.0,phase_2,go,750.0,750.0,1.0,,,,,,,,,magenta,flipped triangle
0.0,2.0,1.0,0.0,6.0,6.0,707.5258449999637,4.0,1.0,phase_2,go,750.0,750.0,1.0,,,,,,,,,yellow,circle
0.0,4.0,4.0,0.0,5.0,5.0,746.6452310000022,4.0,1.0,phase_2,go,750.0,750.0,1.0,,,,,,,,,magenta,flipped triangle
0.0,7.0,2.0,1.0,6.0,6.0,898.1900610001503,4.0,1.0,phase_2,stop,750.0,750.0,3.0,,,,,,,,,cyan,triangle
0.0,2.0,1.0,0.0,6.0,6.0,969.44501400003,4.0,1.0,phase_2,go,750.0,700.0,1.0,,,,,,,,,yellow,circle
0.0,2.0,1.0,0.0,6.0,6.0,592.1058730000368,4.0,1.0,phase_2,go,750.0,700.0,1.0,,,,,,,,,yellow,circle
0.0,8.0,4.0,1.0,5.0,5.0,633.5935669999344,4.0,1.0,phase_2,stop,750.0,700.0,3.0,,,,,,,,,green,hexagon
0.0,8.0,4.0,1.0,6.0,0.0,0.0,4.0,1.0,phase_2,stop,700.0,700.0,4.0,,,,,,,,,green,hexagon
0.0,4.0,4.0,0.0,6.0,6.0,855.2169370000229,4.0,1.0,phase_2,go,700.0,750.0,1.0,,,,,,,,,magenta,flipped triangle
0.0,6.0,1.0,1.0,5.0,0.0,0.0,4.0,1.0,phase_2,stop,700.0,750.0,4.0,,,,,,,,,gray,square
0.0,7.0,2.0,1.0,6.0,0.0,0.0,4.0,1.0,phase_2,stop,750.0,750.0,4.0,,,,,,,,,cyan,triangle
0.0,5.0,0.5,1.0,6.0,6.0,908.7307599997984,4.0,1.0,phase_2,stop,750.0,800.0,3.0,,,,,,,,,blue,I
0.0,2.0,1.0,0.0,5.0,5.0,1044.6831890003525,4.0,1.0,phase_2,go,750.0,750.0,1.0,,,,,,,,,yellow,circle
0.0,6.0,1.0,1.0,5.0,0.0,0.0,4.0,1.0,phase_2,stop,750.0,750.0,4.0,,,,,,,,,gray,square
0.0,3.0,2.0,0.0,6.0,6.0,1091.7797839997547,4.0,1.0,phase_2,go,800.0,750.0,1.0,,,,,,,,,white,cross
0.0,6.0,1.0,1.0,6.0,6.0,852.4009130001104,4.0,1.0,phase_2,stop,800.0,750.0,3.0,,,,,,,,,gray,square
0.0,4.0,4.0,0.0,6.0,6.0,1450.9184339999592,4.0,1.0,phase_2,go,800.0,700.0,1.0,,,,,,,,,magenta,flipped triangle
0.0,4.0,4.0,0.0,6.0,6.0,970.8226769998872,4.0,1.0,phase_2,go,800.0,700.0,1.0,,,,,,,,,magenta,flipped triangle
0.0,1.0,0.5,0.0,5.0,5.0,608.9234890000625,4.0,1.0,phase_2,go,800.0,700.0,1.0,,,,,,,,,orange,diamond
0.0,2.0,1.0,0.0,5.0,5.0,705.5951190000087,4.0,1.0,phase_2,go,800.0,700.0,1.0,,,,,,,,,yellow,circle
0.0,3.0,2.0,0.0,6.0,6.0,753.0399369998122,4.0,1.0,phase_2,go,800.0,700.0,1.0,,,,,,,,,white,cross
0.0,6.0,1.0,1.0,6.0,6.0,1103.338001999873,4.0,1.0,phase_2,go,800.0,700.0,1.0,,,,,,,,,gray,square
0.0,4.0,4.0,0.0,5.0,5.0,896.3950719999048,4.0,1.0,phase_2,go,800.0,700.0,1.0,,,,,,,,,magenta,flipped triangle
0.0,6.0,1.0,1.0,5.0,0.0,0.0,4.0,1.0,phase_2,stop,800.0,700.0,4.0,,,,,,,,,gray,square
0.0,6.0,1.0,1.0,6.0,0.0,0.0,4.0,1.0,phase_2,stop,850.0,700.0,4.0,,,,,,,,,gray,square
0.0,5.0,0.5,1.0,6.0,6.0,981.8248340002356,4.0,1.0,phase_2,go,850.0,750.0,1.0,,,,,,,,,blue,I
0.0,3.0,2.0,0.0,5.0,5.0,1083.9787670001897,4.0,1.0,phase_2,go,850.0,750.0,1.0,,,,,,,,,white,cross
0.0,1.0,0.5,0.0,5.0,5.0,859.0735900002073,4.0,1.0,phase_2,go,850.0,750.0,1.0,,,,,,,,,orange,diamond
0.0,1.0,0.5,0.0,5.0,5.0,977.9122730001292,4.0,1.0,phase_2,go,850.0,750.0,1.0,,,,,,,,,orange,diamond
0.0,7.0,2.0,1.0,6.0,0.0,0.0,4.0,1.0,phase_2,stop,850.0,750.0,4.0,,,,,,,,,cyan,triangle
0.0,4.0,4.0,0.0,6.0,6.0,1081.6086089998862,4.0,1.0,phase_2,go,850.0,800.0,1.0,,,,,,,,,magenta,flipped triangle
0.0,7.0,2.0,1.0,6.0,6.0,929.1961859998992,4.0,1.0,phase_2,go,850.0,800.0,1.0,,,,,,,,,cyan,triangle
0.0,3.0,2.0,0.0,6.0,6.0,679.6388349998779,4.0,1.0,phase_2,go,850.0,800.0,1.0,,,,,,,,,white,cross
0.0,3.0,2.0,0.0,5.0,5.0,993.4590779998872,4.0,1.0,phase_2,go,850.0,800.0,1.0,,,,,,,,,white,cross
0.0,6.0,1.0,1.0,5.0,5.0,807.514534999882,4.0,1.0,phase_2,stop,850.0,800.0,3.0,,,,,,,,,gray,square
0.0,6.0,1.0,1.0,6.0,6.0,721.5981030003604,5.0,1.0,phase_2,stop,800.0,800.0,3.0,,,,,,,,,gray,square
0.0,2.0,1.0,0.0,5.0,5.0,578.6936859999514,5.0,1.0,phase_2,go,800.0,750.0,1.0,,,,,,,,,yellow,circle
0.0,6.0,1.0,1.0,5.0,5.0,1016.3430840002547,5.0,1.0,phase_2,go,800.0,750.0,1.0,,,,,,,,,gray,square
0.0,4.0,4.0,0.0,5.0,5.0,720.6601940001747,5.0,1.0,phase_2,go,800.0,750.0,1.0,,,,,,,,,magenta,flipped triangle
0.0,2.0,1.0,0.0,5.0,5.0,567.587967000236,5.0,1.0,phase_2,go,800.0,750.0,1.0,,,,,,,,,yellow,circle
0.0,3.0,2.0,0.0,6.0,6.0,758.6086739997882,5.0,1.0,phase_2,go,800.0,750.0,1.0,,,,,,,,,white,cross
0.0,6.0,1.0,1.0,5.0,0.0,0.0,5.0,1.0,phase_2,stop,800.0,750.0,4.0,,,,,,,,,gray,square
0.0,2.0,1.0,0.0,6.0,6.0,758.3006060003754,5.0,1.0,phase_2,go,850.0,750.0,1.0,,,,,,,,,yellow,circle
0.0,7.0,2.0,1.0,5.0,5.0,870.3277449999405,5.0,1.0,phase_2,stop,850.0,750.0,3.0,,,,,,,,,cyan,triangle
0.0,3.0,2.0,0.0,5.0,5.0,1165.3967510001166,5.0,1.0,phase_2,go,800.0,750.0,1.0,,,,,,,,,white,cross
0.0,1.0,0.5,0.0,6.0,6.0,1019.5284320002429,5.0,1.0,phase_2,go,800.0,750.0,1.0,,,,,,,,,orange,diamond
0.0,4.0,4.0,0.0,6.0,6.0,683.3614259999194,5.0,1.0,phase_2,go,800.0,750.0,1.0,,,,,,,,,magenta,flipped triangle
0.0,1.0,0.5,0.0,6.0,6.0,1066.6260169996349,5.0,1.0,phase_2,go,800.0,750.0,1.0,,,,,,,,,orange,diamond
0.0,8.0,4.0,1.0,6.0,6.0,403.3972770002947,5.0,1.0,phase_2,go,800.0,750.0,1.0,,,,,,,,,green,hexagon
0.0,8.0,4.0,1.0,5.0,5.0,593.3271129997593,5.0,1.0,phase_2,stop,800.0,750.0,3.0,,,,,,,,,green,hexagon
0.0,3.0,2.0,0.0,5.0,5.0,929.849301000104,5.0,1.0,phase_2,go,750.0,750.0,1.0,,,,,,,,,white,cross
0.0,5.0,0.5,1.0,6.0,6.0,551.781858999675,5.0,1.0,phase_2,stop,750.0,750.0,3.0,,,,,,,,,blue,I
0.0,4.0,4.0,0.0,6.0,6.0,752.6406669999233,5.0,1.0,phase_2,go,750.0,700.0,1.0,,,,,,,,,magenta,flipped triangle
0.0,1.0,0.5,0.0,6.0,6.0,798.5646700003599,5.0,1.0,phase_2,go,750.0,700.0,1.0,,,,,,,,,orange,diamond
0.0,5.0,0.5,1.0,5.0,5.0,454.0475789999618,5.0,1.0,phase_2,stop,750.0,700.0,3.0,,,,,,,,,blue,I
0.0,8.0,4.0,1.0,6.0,6.0,854.846075000296,5.0,1.0,phase_2,go,700.0,700.0,1.0,,,,,,,,,green,hexagon
0.0,7.0,2.0,1.0,5.0,5.0,476.9080989999565,5.0,1.0,phase_2,stop,700.0,700.0,3.0,,,,,,,,,cyan,triangle
0.0,5.0,0.5,1.0,5.0,5.0,819.886267000129,5.0,1.0,phase_2,stop,650.0,700.0,3.0,,,,,,,,,blue,I
0.0,8.0,4.0,1.0,6.0,0.0,0.0,5.0,1.0,phase_2,stop,600.0,700.0,4.0,,,,,,,,,green,hexagon
0.0,3.0,2.0,0.0,5.0,5.0,1074.115387999882,5.0,1.0,phase_2,go,600.0,750.0,1.0,,,,,,,,,white,cross
0.0,1.0,0.5,0.0,6.0,6.0,867.8380399996968,5.0,1.0,phase_2,go,600.0,750.0,1.0,,,,,,,,,orange,diamond
0.0,2.0,1.0,0.0,6.0,6.0,683.2714649999616,5.0,1.0,phase_2,go,600.0,750.0,1.0,,,,,,,,,yellow,circle
0.0,1.0,0.5,0.0,6.0,6.0,689.0250799997375,5.0,1.0,phase_2,go,600.0,750.0,1.0,,,,,,,,,orange,diamond
0.0,4.0,4.0,0.0,6.0,6.0,952.480770999955,5.0,1.0,phase_2,go,600.0,750.0,1.0,,,,,,,,,magenta,flipped triangle
0.0,7.0,2.0,1.0,6.0,0.0,0.0,5.0,1.0,phase_2,stop,600.0,750.0,4.0,,,,,,,,,cyan,triangle
0.0,7.0,2.0,1.0,6.0,6.0,656.5796240001873,5.0,1.0,phase_2,stop,600.0,800.0,3.0,,,,,,,,,cyan,triangle
0.0,4.0,4.0,0.0,5.0,5.0,663.013557999875,5.0,1.0,phase_2,go,600.0,750.0,1.0,,,,,,,,,magenta,flipped triangle
0.0,4.0,4.0,0.0,5.0,5.0,1061.9840060003298,5.0,1.0,phase_2,go,600.0,750.0,1.0,,,,,,,,,magenta,flipped triangle
0.0,7.0,2.0,1.0,5.0,5.0,454.7853669996584,5.0,1.0,phase_2,stop,600.0,750.0,3.0,,,,,,,,,cyan,triangle
0.0,8.0,4.0,1.0,5.0,0.0,0.0,5.0,1.0,phase_2,stop,550.0,750.0,4.0,,,,,,,,,green,hexagon
0.0,1.0,0.5,0.0,6.0,6.0,685.3433510000286,5.0,1.0,phase_2,go,600.0,750.0,1.0,,,,,,,,,orange,diamond
0.0,5.0,0.5,1.0,6.0,6.0,684.0821349996986,6.0,1.0,phase_2,go,600.0,750.0,1.0,,,,,,,,,blue,I
0.0,8.0,4.0,1.0,5.0,0.0,0.0,6.0,1.0,phase_2,stop,600.0,750.0,4.0,,,,,,,,,green,hexagon
0.0,7.0,2.0,1.0,6.0,6.0,786.215839000306,6.0,1.0,phase_2,stop,650.0,750.0,3.0,,,,,,,,,cyan,triangle
0.0,2.0,1.0,0.0,5.0,5.0,835.1323110000521,6.0,1.0,phase_2,go,650.0,700.0,1.0,,,,,,,,,yellow,circle
0.0,3.0,2.0,0.0,5.0,5.0,666.7351410001174,6.0,1.0,phase_2,go,650.0,700.0,1.0,,,,,,,,,white,cross
0.0,5.0,0.5,1.0,6.0,6.0,1088.4905940001772,6.0,1.0,phase_2,go,650.0,700.0,1.0,,,,,,,,,blue,I
0.0,7.0,2.0,1.0,6.0,6.0,950.576030999855,6.0,1.0,phase_2,go,650.0,700.0,1.0,,,,,,,,,cyan,triangle
0.0,1.0,0.5,0.0,6.0,6.0,750.9895530001813,6.0,1.0,phase_2,go,650.0,700.0,1.0,,,,,,,,,orange,diamond
0.0,2.0,1.0,0.0,6.0,6.0,430.6327869999222,6.0,1.0,phase_2,go,650.0,700.0,1.0,,,,,,,,,yellow,circle
0.0,2.0,1.0,0.0,6.0,6.0,365.8392890001778,6.0,1.0,phase_2,go,650.0,700.0,1.0,,,,,,,,,yellow,circle
0.0,4.0,4.0,0.0,5.0,5.0,925.2975120002702,6.0,1.0,phase_2,go,650.0,700.0,1.0,,,,,,,,,magenta,flipped triangle
0.0,3.0,2.0,0.0,5.0,5.0,884.3257230000745,6.0,1.0,phase_2,go,650.0,700.0,1.0,,,,,,,,,white,cross
0.0,6.0,1.0,1.0,5.0,0.0,0.0,6.0,1.0,phase_2,stop,650.0,700.0,4.0,,,,,,,,,gray,square
0.0,7.0,2.0,1.0,5.0,0.0,0.0,6.0,1.0,phase_2,stop,700.0,700.0,4.0,,,,,,,,,cyan,triangle
0.0,3.0,2.0,0.0,5.0,5.0,706.6134040001089,6.0,1.0,phase_2,go,750.0,700.0,1.0,,,,,,,,,white,cross
0.0,6.0,1.0,1.0,5.0,5.0,833.4258650002084,6.0,1.0,phase_2,stop,750.0,700.0,3.0,,,,,,,,,gray,square
0.0,2.0,1.0,0.0,6.0,6.0,881.3879029999043,6.0,1.0,phase_2,go,700.0,700.0,1.0,,,,,,,,,yellow,circle
0.0,7.0,2.0,1.0,6.0,6.0,724.0847350003605,6.0,1.0,phase_2,stop,700.0,700.0,3.0,,,,,,,,,cyan,triangle
0.0,5.0,0.5,1.0,6.0,0.0,0.0,6.0,1.0,phase_2,stop,700.0,650.0,4.0,,,,,,,,,blue,I
0.0,1.0,0.5,0.0,5.0,5.0,1086.698088999583,6.0,1.0,phase_2,go,700.0,700.0,1.0,,,,,,,,,orange,diamond
0.0,8.0,4.0,1.0,5.0,0.0,0.0,6.0,1.0,phase_2,stop,700.0,700.0,4.0,,,,,,,,,green,hexagon
0.0,8.0,4.0,1.0,6.0,0.0,0.0,6.0,1.0,phase_2,stop,750.0,700.0,4.0,,,,,,,,,green,hexagon
0.0,5.0,0.5,1.0,5.0,5.0,1133.579223000197,6.0,1.0,phase_2,go,750.0,750.0,1.0,,,,,,,,,blue,I
0.0,1.0,0.5,0.0,5.0,5.0,805.2098100001785,6.0,1.0,phase_2,go,750.0,750.0,1.0,,,,,,,,,orange,diamond
0.0,1.0,0.5,0.0,5.0,5.0,452.3380629998428,6.0,1.0,phase_2,go,750.0,750.0,1.0,,,,,,,,,orange,diamond
0.0,6.0,1.0,1.0,6.0,6.0,683.4402639997279,6.0,1.0,phase_2,go,750.0,750.0,1.0,,,,,,,,,gray,square
0.0,7.0,2.0,1.0,6.0,6.0,773.0947170002764,6.0,1.0,phase_2,stop,750.0,750.0,3.0,,,,,,,,,cyan,triangle
0.0,6.0,1.0,1.0,6.0,0.0,0.0,6.0,1.0,phase_2,stop,750.0,700.0,4.0,,,,,,,,,gray,square
0.0,3.0,2.0,0.0,6.0,6.0,803.7491130003218,6.0,1.0,phase_2,go,750.0,750.0,1.0,,,,,,,,,white,cross
0.0,8.0,4.0,1.0,6.0,0.0,0.0,6.0,1.0,phase_2,stop,750.0,750.0,4.0,,,,,,,,,green,hexagon
0.0,2.0,1.0,0.0,5.0,5.0,591.8681619996278,6.0,1.0,phase_2,go,750.0,800.0,1.0,,,,,,,,,yellow,circle
0.0,2.0,1.0,0.0,5.0,5.0,616.111816999819,6.0,1.0,phase_2,go,750.0,800.0,1.0,,,,,,,,,yellow,circle
0.0,3.0,2.0,0.0,5.0,5.0,895.222492999892,6.0,1.0,phase_2,go,750.0,800.0,1.0,,,,,,,,,white,cross
0.0,6.0,1.0,1.0,5.0,0.0,0.0,6.0,1.0,phase_2,stop,750.0,800.0,4.0,,,,,,,,,gray,square
0.0,3.0,2.0,0.0,6.0,6.0,1093.5710889998518,6.0,1.0,phase_2,go,800.0,800.0,1.0,,,,,,,,,white,cross
0.0,3.0,2.0,0.0,6.0,6.0,629.5302570001695,6.0,1.0,phase_2,go,800.0,800.0,1.0,,,,,,,,,white,cross
0.0,1.0,0.5,0.0,5.0,5.0,574.7741770001085,7.0,1.0,phase_2,go,800.0,800.0,1.0,,,,,,,,,orange,diamond
0.0,5.0,0.5,1.0,5.0,5.0,405.1197320000028,7.0,1.0,phase_2,stop,800.0,800.0,3.0,,,,,,,,,blue,I
0.0,8.0,4.0,1.0,5.0,0.0,0.0,7.0,1.0,phase_2,stop,750.0,800.0,4.0,,,,,,,,,green,hexagon
0.0,2.0,1.0,0.0,6.0,6.0,604.6720589997676,7.0,1.0,phase_2,go,800.0,800.0,1.0,,,,,,,,,yellow,circle
0.0,6.0,1.0,1.0,5.0,5.0,765.7381250000981,7.0,1.0,phase_2,stop,800.0,800.0,3.0,,,,,,,,,gray,square
0.0,3.0,2.0,0.0,5.0,5.0,675.1270879999538,7.0,1.0,phase_2,go,750.0,800.0,1.0,,,,,,,,,white,cross
0.0,1.0,0.5,0.0,5.0,5.0,650.9150400002,7.0,1.0,phase_2,go,750.0,800.0,1.0,,,,,,,,,orange,diamond
0.0,8.0,4.0,1.0,6.0,6.0,682.1683420002955,7.0,1.0,phase_2,stop,750.0,800.0,3.0,,,,,,,,,green,hexagon
0.0,4.0,4.0,0.0,6.0,6.0,1187.004456000068,7.0,1.0,phase_2,go,750.0,750.0,1.0,,,,,,,,,magenta,flipped triangle
0.0,5.0,0.5,1.0,5.0,5.0,825.62512100003,7.0,1.0,phase_2,go,750.0,750.0,1.0,,,,,,,,,blue,I
0.0,7.0,2.0,1.0,5.0,5.0,857.0582180000201,7.0,1.0,phase_2,go,750.0,750.0,1.0,,,,,,,,,cyan,triangle
0.0,4.0,4.0,0.0,6.0,6.0,895.782252999652,7.0,1.0,phase_2,go,750.0,750.0,1.0,,,,,,,,,magenta,flipped triangle
0.0,4.0,4.0,0.0,6.0,6.0,639.2212300002029,7.0,1.0,phase_2,go,750.0,750.0,1.0,,,,,,,,,magenta,flipped triangle
0.0,4.0,4.0,0.0,5.0,5.0,983.3224789999804,7.0,1.0,phase_2,go,750.0,750.0,1.0,,,,,,,,,magenta,flipped triangle
0.0,8.0,4.0,1.0,5.0,5.0,893.9955400001054,7.0,1.0,phase_2,stop,750.0,750.0,3.0,,,,,,,,,green,hexagon
0.0,4.0,4.0,0.0,5.0,5.0,661.0794039997927,7.0,1.0,phase_2,go,700.0,750.0,1.0,,,,,,,,,magenta,flipped triangle
0.0,6.0,1.0,1.0,6.0,0.0,0.0,7.0,1.0,phase_2,stop,700.0,750.0,4.0,,,,,,,,,gray,square
0.0,7.0,2.0,1.0,6.0,6.0,844.4914120000249,7.0,1.0,phase_2,go,700.0,800.0,1.0,,,,,,,,,cyan,triangle
0.0,2.0,1.0,0.0,6.0,6.0,627.309110999704,7.0,1.0,phase_2,go,700.0,800.0,1.0,,,,,,,,,yellow,circle
0.0,6.0,1.0,1.0,5.0,5.0,850.0628120000329,7.0,1.0,phase_2,go,700.0,800.0,1.0,,,,,,,,,gray,square
0.0,1.0,0.5,0.0,6.0,6.0,714.5798670003387,7.0,1.0,phase_2,go,700.0,800.0,1.0,,,,,,,,,orange,diamond
0.0,1.0,0.5,0.0,6.0,6.0,394.4182999998702,7.0,1.0,phase_2,go,700.0,800.0,1.0,,,,,,,,,orange,diamond
0.0,2.0,1.0,0.0,5.0,5.0,433.0666309997468,7.0,1.0,phase_2,go,700.0,800.0,1.0,,,,,,,,,yellow,circle
0.0,2.0,1.0,0.0,5.0,5.0,560.8323970000129,7.0,1.0,phase_2,go,700.0,800.0,1.0,,,,,,,,,yellow,circle
0.0,3.0,2.0,0.0,6.0,6.0,808.3373559998108,7.0,1.0,phase_2,go,700.0,800.0,1.0,,,,,,,,,white,cross
0.0,8.0,4.0,1.0,5.0,0.0,0.0,7.0,1.0,phase_2,stop,700.0,800.0,4.0,,,,,,,,,green,hexagon
0.0,6.0,1.0,1.0,6.0,6.0,710.4952200002117,7.0,1.0,phase_2,stop,750.0,800.0,3.0,,,,,,,,,gray,square
0.0,3.0,2.0,0.0,5.0,5.0,733.9058919997115,7.0,1.0,phase_2,go,750.0,750.0,1.0,,,,,,,,,white,cross
0.0,6.0,1.0,1.0,6.0,0.0,0.0,7.0,1.0,phase_2,stop,750.0,750.0,4.0,,,,,,,,,gray,square
0.0,5.0,0.5,1.0,5.0,0.0,0.0,7.0,1.0,phase_2,stop,750.0,800.0,4.0,,,,,,,,,blue,I
0.0,3.0,2.0,0.0,6.0,6.0,1013.4206709999489,7.0,1.0,phase_2,go,800.0,800.0,1.0,,,,,,,,,white,cross
0.0,8.0,4.0,1.0,5.0,0.0,0.0,7.0,1.0,phase_2,stop,800.0,800.0,4.0,,,,,,,,,green,hexagon
0.0,5.0,0.5,1.0,5.0,5.0,684.6217659999638,7.0,1.0,phase_2,stop,850.0,800.0,3.0,,,,,,,,,blue,I
0.0,5.0,0.5,1.0,5.0,5.0,1139.0204899998937,7.0,1.0,phase_2,go,800.0,800.0,1.0,,,,,,,,,blue,I
0.0,8.0,4.0,1.0,6.0,0.0,0.0,7.0,1.0,phase_2,stop,800.0,800.0,4.0,,,,,,,,,green,hexagon
0.0,2.0,1.0,0.0,5.0,5.0,666.0269939998216,7.0,1.0,phase_2,go,800.0,850.0,1.0,,,,,,,,,yellow,circle
0.0,6.0,1.0,1.0,5.0,5.0,759.5739420003156,8.0,1.0,phase_2,stop,800.0,850.0,3.0,,,,,,,,,gray,square
0.0,6.0,1.0,1.0,5.0,5.0,535.1625579996835,8.0,1.0,phase_2,stop,750.0,850.0,3.0,,,,,,,,,gray,square
0.0,5.0,0.5,1.0,6.0,6.0,397.8644459998577,8.0,1.0,phase_2,stop,700.0,850.0,3.0,,,,,,,,,blue,I
0.0,7.0,2.0,1.0,5.0,5.0,726.9480589998238,8.0,1.0,phase_2,go,700.0,800.0,1.0,,,,,,,,,cyan,triangle
0.0,2.0,1.0,0.0,6.0,6.0,446.6963699996995,8.0,1.0,phase_2,go,700.0,800.0,1.0,,,,,,,,,yellow,circle
0.0,1.0,0.5,0.0,5.0,5.0,333.5886459999528,8.0,1.0,phase_2,go,700.0,800.0,1.0,,,,,,,,,orange,diamond
0.0,6.0,1.0,1.0,6.0,6.0,339.6432339995954,8.0,1.0,phase_2,stop,700.0,800.0,3.0,,,,,,,,,gray,square
0.0,8.0,4.0,1.0,5.0,5.0,1210.9295870000096,8.0,1.0,phase_2,go,700.0,750.0,1.0,,,,,,,,,green,hexagon
0.0,7.0,2.0,1.0,6.0,6.0,570.2305560002969,8.0,1.0,phase_2,stop,700.0,750.0,3.0,,,,,,,,,cyan,triangle
0.0,8.0,4.0,1.0,5.0,0.0,0.0,8.0,1.0,phase_2,stop,700.0,700.0,4.0,,,,,,,,,green,hexagon
0.0,5.0,0.5,1.0,5.0,0.0,0.0,8.0,1.0,phase_2,stop,750.0,700.0,4.0,,,,,,,,,blue,I
0.0,3.0,2.0,0.0,6.0,6.0,770.1871210001627,8.0,1.0,phase_2,go,800.0,700.0,1.0,,,,,,,,,white,cross
0.0,5.0,0.5,1.0,5.0,0.0,0.0,8.0,1.0,phase_2,stop,800.0,700.0,4.0,,,,,,,,,blue,I
0.0,5.0,0.5,1.0,6.0,0.0,0.0,8.0,1.0,phase_2,stop,850.0,700.0,4.0,,,,,,,,,blue,I
0.0,6.0,1.0,1.0,6.0,6.0,671.0658330002843,8.0,1.0,phase_2,stop,850.0,750.0,3.0,,,,,,,,,gray,square
0.0,4.0,4.0,0.0,5.0,5.0,936.4304999999148,8.0,1.0,phase_2,go,850.0,700.0,1.0,,,,,,,,,magenta,flipped triangle
0.0,6.0,1.0,1.0,6.0,6.0,1015.1553810001133,8.0,1.0,phase_2,go,850.0,700.0,1.0,,,,,,,,,gray,square
0.0,8.0,4.0,1.0,6.0,0.0,0.0,8.0,1.0,phase_2,stop,850.0,700.0,4.0,,,,,,,,,green,hexagon
0.0,1.0,0.5,0.0,5.0,5.0,717.8047910001624,8.0,1.0,phase_2,go,850.0,750.0,1.0,,,,,,,,,orange,diamond
0.0,7.0,2.0,1.0,5.0,0.0,0.0,8.0,1.0,phase_2,stop,850.0,750.0,4.0,,,,,,,,,cyan,triangle
0.0,6.0,1.0,1.0,5.0,5.0,818.8807080000515,8.0,1.0,phase_2,go,900.0,750.0,1.0,,,,,,,,,gray,square
0.0,4.0,4.0,0.0,5.0,5.0,1276.1422180001318,8.0,1.0,phase_2,go,900.0,750.0,1.0,,,,,,,,,magenta,flipped triangle
0.0,4.0,4.0,0.0,5.0,5.0,987.1849659998588,8.0,1.0,phase_2,go,900.0,750.0,1.0,,,,,,,,,magenta,flipped triangle
0.0,6.0,1.0,1.0,6.0,6.0,713.8186679999308,8.0,1.0,phase_2,stop,900.0,750.0,3.0,,,,,,,,,gray,square
0.0,3.0,2.0,0.0,5.0,5.0,1129.1297839998151,8.0,1.0,phase_2,go,900.0,700.0,1.0,,,,,,,,,white,cross
0.0,4.0,4.0,0.0,6.0,6.0,863.7595770001099,8.0,1.0,phase_2,go,900.0,700.0,1.0,,,,,,,,,magenta,flipped triangle
0.0,2.0,1.0,0.0,5.0,5.0,600.4186279997157,8.0,1.0,phase_2,go,900.0,700.0,1.0,,,,,,,,,yellow,circle
0.0,8.0,4.0,1.0,6.0,0.0,0.0,8.0,1.0,phase_2,stop,900.0,700.0,4.0,,,,,,,,,green,hexagon
0.0,2.0,1.0,0.0,6.0,6.0,621.7561019998357,8.0,1.0,phase_2,go,900.0,750.0,1.0,,,,,,,,,yellow,circle
0.0,6.0,1.0,1.0,5.0,5.0,757.3257650001324,8.0,1.0,phase_2,stop,900.0,750.0,3.0,,,,,,,,,gray,square
0.0,3.0,2.0,0.0,6.0,6.0,925.3074779999224,8.0,1.0,phase_2,go,850.0,750.0,1.0,,,,,,,,,white,cross
0.0,8.0,4.0,1.0,5.0,5.0,1180.416764000256,8.0,1.0,phase_2,go,850.0,750.0,1.0,,,,,,,,,green,hexagon
0.0,1.0,0.5,0.0,6.0,6.0,467.5972889999684,8.0,1.0,phase_2,go,850.0,750.0,1.0,,,,,,,,,orange,diamond
0.0,3.0,2.0,0.0,5.0,5.0,626.6112590001285,8.0,1.0,phase_2,go,850.0,750.0,1.0,,,,,,,,,white,cross
0.0,3.0,2.0,0.0,5.0,5.0,650.3676190000078,8.0,1.0,phase_2,go,850.0,750.0,1.0,,,,,,,,,white,cross
0.0,1.0,0.5,0.0,6.0,6.0,473.8806270001987,8.0,1.0,phase_2,go,850.0,750.0,1.0,,,,,,,,,orange,diamond
0.0,6.0,1.0,1.0,7.0,1.0,1773.3269010000186,1.0,2.0,phase_3,,,,,405.0,3.0,405.0,540.0,135.0,270.0,810.0,675.0,gray,square
0.0,5.0,0.5,1.0,7.0,5.0,1511.2750630000846,1.0,1.0,phase_3,,,,,616.0,4.0,770.0,308.0,924.0,154.0,616.0,462.0,blue,I
0.0,2.0,1.0,0.0,7.0,5.0,2257.327355000143,1.0,1.0,phase_3,,,,,405.0,3.0,675.0,810.0,135.0,540.0,405.0,270.0,yellow,circle
0.0,1.0,0.5,0.0,7.0,1.0,1921.577702999912,1.0,1.0,phase_3,,,,,580.0,5.0,580.0,696.0,116.0,464.0,348.0,232.0,orange,diamond
0.0,8.0,4.0,1.0,7.0,2.0,1546.163475999947,1.0,1.0,phase_3,,,,,270.0,2.0,810.0,270.0,405.0,675.0,540.0,135.0,green,hexagon
0.0,4.0,4.0,0.0,7.0,3.0,2182.5894779999544,1.0,1.0,phase_3,,,,,270.0,2.0,675.0,135.0,270.0,405.0,540.0,810.0,magenta,flipped triangle
0.0,3.0,2.0,0.0,7.0,5.0,1276.8209030000437,1.0,1.0,phase_3,,,,,348.0,3.0,696.0,116.0,232.0,580.0,348.0,464.0,white,cross
0.0,8.0,4.0,1.0,7.0,6.0,2182.7746569997544,1.0,1.0,phase_3,,,,,464.0,4.0,232.0,116.0,696.0,348.0,580.0,464.0,green,hexagon
0.0,1.0,0.5,0.0,7.0,3.0,1376.4666070001113,1.0,1.0,phase_3,,,,,384.0,2.0,960.0,1152.0,384.0,576.0,192.0,768.0,orange,diamond
0.0,2.0,1.0,0.0,7.0,1.0,2497.237280999798,1.0,1.0,phase_3,,,,,346.0,2.0,346.0,173.0,1038.0,692.0,519.0,865.0,yellow,circle
0.0,1.0,0.5,0.0,7.0,5.0,2498.481179999999,1.0,1.0,phase_3,,,,,519.0,3.0,865.0,1038.0,692.0,173.0,519.0,346.0,orange,diamond
0.0,3.0,2.0,0.0,7.0,4.0,2252.659779000169,1.0,1.0,phase_3,,,,,384.0,2.0,192.0,960.0,576.0,384.0,768.0,1152.0,white,cross
0.0,2.0,1.0,0.0,7.0,1.0,2742.3407500000394,1.0,1.0,phase_3,,,,,405.0,3.0,405.0,135.0,675.0,540.0,810.0,270.0,yellow,circle
0.0,2.0,1.0,0.0,7.0,3.0,2549.279393999768,1.0,1.0,phase_3,,,,,576.0,3.0,960.0,384.0,576.0,192.0,768.0,1152.0,yellow,circle
0.0,3.0,2.0,0.0,7.0,1.0,1926.6762469997047,1.0,1.0,phase_3,,,,,576.0,3.0,576.0,1152.0,960.0,384.0,192.0,768.0,white,cross
0.0,7.0,2.0,1.0,7.0,5.0,1746.5169540000716,1.0,1.0,phase_3,,,,,519.0,3.0,346.0,692.0,1038.0,865.0,519.0,173.0,cyan,triangle
0.0,5.0,0.5,1.0,7.0,1.0,2873.893856999985,1.0,1.0,phase_3,,,,,348.0,3.0,348.0,232.0,580.0,464.0,116.0,696.0,blue,I
0.0,2.0,1.0,0.0,7.0,1.0,3220.922248000079,1.0,1.0,phase_3,,,,,464.0,4.0,464.0,696.0,580.0,348.0,116.0,232.0,yellow,circle
0.0,4.0,4.0,0.0,7.0,5.0,2317.480798999896,1.0,1.0,phase_3,,,,,270.0,2.0,540.0,810.0,675.0,405.0,270.0,135.0,magenta,flipped triangle
0.0,1.0,0.5,0.0,7.0,3.0,1824.109020999913,1.0,1.0,phase_3,,,,,519.0,3.0,692.0,1038.0,519.0,173.0,865.0,346.0,orange,diamond
0.0,6.0,1.0,1.0,7.0,5.0,1846.9916100002592,2.0,1.0,phase_3,,,,,308.0,2.0,462.0,616.0,770.0,154.0,308.0,924.0,gray,square
0.0,4.0,4.0,0.0,7.0,6.0,2856.835716000205,2.0,1.0,phase_3,,,,,348.0,3.0,696.0,232.0,464.0,116.0,580.0,348.0,magenta,flipped triangle
0.0,6.0,1.0,1.0,7.0,3.0,2202.5214220002454,2.0,1.0,phase_3,,,,,348.0,3.0,464.0,696.0,348.0,232.0,580.0,116.0,gray,square
0.0,2.0,1.0,0.0,7.0,3.0,3707.8090150002936,2.0,1.0,phase_3,,,,,192.0,1.0,384.0,768.0,192.0,576.0,1152.0,960.0,yellow,circle
0.0,8.0,4.0,1.0,7.0,1.0,4444.124497000303,2.0,1.0,phase_3,,,,,462.0,3.0,462.0,924.0,308.0,770.0,154.0,616.0,green,hexagon
0.0,8.0,4.0,1.0,7.0,3.0,2450.3326720000587,2.0,1.0,phase_3,,,,,348.0,3.0,464.0,232.0,348.0,580.0,116.0,696.0,green,hexagon
0.0,5.0,0.5,1.0,7.0,3.0,2201.126484999804,2.0,1.0,phase_3,,,,,173.0,1.0,865.0,519.0,173.0,1038.0,346.0,692.0,blue,I
0.0,2.0,1.0,0.0,7.0,2.0,2218.136566999874,2.0,1.0,phase_3,,,,,348.0,3.0,580.0,348.0,232.0,696.0,116.0,464.0,yellow,circle
0.0,6.0,1.0,1.0,7.0,5.0,2270.5362380002043,2.0,1.0,phase_3,,,,,960.0,5.0,192.0,768.0,384.0,576.0,960.0,1152.0,gray,square
0.0,7.0,2.0,1.0,7.0,1.0,2437.164032000055,2.0,1.0,phase_3,,,,,576.0,3.0,576.0,192.0,384.0,1152.0,960.0,768.0,cyan,triangle
0.0,6.0,1.0,1.0,7.0,5.0,3536.7948239995712,2.0,1.0,phase_3,,,,,348.0,3.0,696.0,580.0,232.0,464.0,348.0,116.0,gray,square
0.0,6.0,1.0,1.0,7.0,2.0,2722.088271999837,2.0,1.0,phase_3,,,,,405.0,3.0,135.0,405.0,810.0,270.0,540.0,675.0,gray,square
0.0,1.0,0.5,0.0,7.0,5.0,2746.114299000056,2.0,1.0,phase_3,,,,,135.0,1.0,270.0,540.0,810.0,405.0,135.0,675.0,orange,diamond
0.0,7.0,2.0,1.0,7.0,6.0,2843.377553999744,2.0,2.0,phase_3,,,,,405.0,3.0,675.0,270.0,540.0,810.0,135.0,405.0,cyan,triangle
0.0,5.0,0.5,1.0,7.0,5.0,2582.917834,2.0,1.0,phase_3,,,,,173.0,1.0,692.0,865.0,346.0,519.0,173.0,1038.0,blue,I
0.0,5.0,0.5,1.0,7.0,4.0,1918.808407999677,2.0,1.0,phase_3,,,,,576.0,3.0,960.0,192.0,384.0,576.0,1152.0,768.0,blue,I
0.0,3.0,2.0,0.0,7.0,3.0,2447.244468000008,2.0,1.0,phase_3,,,,,405.0,3.0,270.0,540.0,405.0,810.0,135.0,675.0,white,cross
0.0,8.0,4.0,1.0,7.0,5.0,3586.969534999753,2.0,1.0,phase_3,,,,,519.0,3.0,346.0,692.0,173.0,865.0,519.0,1038.0,green,hexagon
0.0,4.0,4.0,0.0,7.0,1.0,2417.3930830002064,2.0,1.0,phase_3,,,,,519.0,3.0,519.0,173.0,865.0,1038.0,346.0,692.0,magenta,flipped triangle
0.0,7.0,2.0,1.0,7.0,2.0,3109.0526769999087,2.0,1.0,phase_3,,,,,576.0,3.0,768.0,576.0,960.0,192.0,1152.0,384.0,cyan,triangle
0.0,6.0,1.0,1.0,7.0,2.0,1791.3563829997656,3.0,1.0,phase_3,,,,,576.0,3.0,1152.0,576.0,768.0,192.0,384.0,960.0,gray,square
0.0,6.0,1.0,1.0,7.0,1.0,1336.2267749998864,3.0,1.0,phase_3,,,,,519.0,3.0,519.0,346.0,1038.0,692.0,865.0,173.0,gray,square
0.0,2.0,1.0,0.0,7.0,1.0,2682.427472999734,3.0,1.0,phase_3,,,,,462.0,3.0,462.0,154.0,924.0,770.0,616.0,308.0,yellow,circle
0.0,4.0,4.0,0.0,7.0,4.0,3900.714831000186,3.0,1.0,phase_3,,,,,576.0,3.0,960.0,768.0,384.0,576.0,1152.0,192.0,magenta,flipped triangle
0.0,3.0,2.0,0.0,7.0,2.0,3091.4099049996366,3.0,1.0,phase_3,,,,,519.0,3.0,346.0,519.0,1038.0,692.0,173.0,865.0,white,cross
0.0,3.0,2.0,0.0,7.0,1.0,3924.90064499998,3.0,1.0,phase_3,,,,,462.0,3.0,462.0,770.0,616.0,924.0,154.0,308.0,white,cross
0.0,3.0,2.0,0.0,7.0,3.0,4253.652580999642,3.0,1.0,phase_3,,,,,405.0,3.0,135.0,810.0,405.0,675.0,540.0,270.0,white,cross
0.0,1.0,0.5,0.0,7.0,3.0,4994.292941999902,3.0,1.0,phase_3,,,,,462.0,3.0,616.0,770.0,462.0,924.0,308.0,154.0,orange,diamond
0.0,8.0,4.0,1.0,7.0,6.0,3417.4948450004194,3.0,1.0,phase_3,,,,,462.0,3.0,154.0,770.0,924.0,308.0,616.0,462.0,green,hexagon
0.0,1.0,0.5,0.0,7.0,3.0,4290.94757699977,3.0,1.0,phase_3,,,,,348.0,3.0,232.0,464.0,348.0,696.0,116.0,580.0,orange,diamond
0.0,7.0,2.0,1.0,7.0,1.0,2908.889799999997,3.0,1.0,phase_3,,,,,405.0,3.0,405.0,810.0,675.0,540.0,135.0,270.0,cyan,triangle
0.0,4.0,4.0,0.0,7.0,6.0,4261.937821000174,3.0,1.0,phase_3,,,,,348.0,3.0,696.0,116.0,464.0,232.0,580.0,348.0,magenta,flipped triangle
0.0,6.0,1.0,1.0,7.0,5.0,2258.955186000094,3.0,2.0,phase_3,,,,,462.0,3.0,308.0,616.0,770.0,154.0,462.0,924.0,gray,square
0.0,1.0,0.5,0.0,7.0,4.0,4167.064032000781,3.0,1.0,phase_3,,,,,462.0,3.0,154.0,308.0,924.0,462.0,770.0,616.0,orange,diamond
0.0,8.0,4.0,1.0,7.0,2.0,3155.96445600022,3.0,1.0,phase_3,,,,,576.0,3.0,384.0,576.0,768.0,960.0,1152.0,192.0,green,hexagon
0.0,4.0,4.0,0.0,7.0,6.0,2799.153801999637,3.0,1.0,phase_3,,,,,462.0,3.0,770.0,924.0,308.0,616.0,154.0,462.0,magenta,flipped triangle
0.0,3.0,2.0,0.0,7.0,5.0,1855.5634309996092,3.0,1.0,phase_3,,,,,519.0,3.0,173.0,865.0,1038.0,692.0,519.0,346.0,white,cross
0.0,7.0,2.0,1.0,7.0,6.0,2275.099561999923,3.0,1.0,phase_3,,,,,519.0,3.0,1038.0,692.0,346.0,173.0,865.0,519.0,cyan,triangle
0.0,1.0,0.5,0.0,7.0,5.0,2409.800237000127,3.0,1.0,phase_3,,,,,384.0,2.0,192.0,768.0,1152.0,576.0,384.0,960.0,orange,diamond
0.0,7.0,2.0,1.0,7.0,6.0,3267.34007199957,3.0,1.0,phase_3,,,,,348.0,3.0,232.0,580.0,696.0,464.0,116.0,348.0,cyan,triangle
0.0,2.0,1.0,0.0,7.0,5.0,2947.755385000164,4.0,1.0,phase_3,,,,,519.0,3.0,692.0,865.0,1038.0,173.0,519.0,346.0,yellow,circle
0.0,7.0,2.0,1.0,7.0,1.0,2269.1736930000843,4.0,1.0,phase_3,,,,,348.0,3.0,348.0,696.0,464.0,232.0,580.0,116.0,cyan,triangle
0.0,7.0,2.0,1.0,7.0,6.0,1600.4754750001666,4.0,2.0,phase_3,,,,,462.0,3.0,308.0,154.0,924.0,770.0,616.0,462.0,cyan,triangle
0.0,6.0,1.0,1.0,7.0,2.0,2096.5382379999937,4.0,1.0,phase_3,,,,,519.0,3.0,173.0,519.0,1038.0,346.0,692.0,865.0,gray,square
0.0,5.0,0.5,1.0,7.0,2.0,4681.260708000082,4.0,1.0,phase_3,,,,,540.0,4.0,810.0,540.0,270.0,405.0,675.0,135.0,blue,I
0.0,7.0,2.0,1.0,7.0,4.0,3935.0564579999623,4.0,1.0,phase_3,,,,,462.0,3.0,308.0,154.0,770.0,462.0,924.0,616.0,cyan,triangle
0.0,4.0,4.0,0.0,7.0,6.0,3191.9977600000493,4.0,1.0,phase_3,,,,,462.0,3.0,308.0,770.0,616.0,924.0,154.0,462.0,magenta,flipped triangle
0.0,8.0,4.0,1.0,7.0,1.0,2726.8495969992728,4.0,1.0,phase_3,,,,,576.0,3.0,576.0,384.0,1152.0,768.0,192.0,960.0,green,hexagon
0.0,5.0,0.5,1.0,7.0,3.0,3874.582997999824,4.0,1.0,phase_3,,,,,462.0,3.0,154.0,308.0,462.0,924.0,616.0,770.0,blue,I
0.0,8.0,4.0,1.0,7.0,1.0,962.6813909999328,4.0,2.0,phase_3,,,,,519.0,3.0,519.0,173.0,1038.0,865.0,346.0,692.0,green,hexagon
0.0,1.0,0.5,0.0,7.0,6.0,4174.873192000632,4.0,2.0,phase_3,,,,,405.0,3.0,270.0,810.0,135.0,540.0,675.0,405.0,orange,diamond
0.0,4.0,4.0,0.0,7.0,6.0,3006.585336000171,4.0,1.0,phase_3,,,,,576.0,3.0,384.0,768.0,192.0,960.0,1152.0,576.0,magenta,flipped triangle
0.0,8.0,4.0,1.0,7.0,1.0,3303.0021710001165,4.0,1.0,phase_3,,,,,405.0,3.0,405.0,675.0,135.0,270.0,810.0,540.0,green,hexagon
0.0,5.0,0.5,1.0,7.0,2.0,1864.919083000132,4.0,1.0,phase_3,,,,,576.0,3.0,384.0,576.0,960.0,1152.0,192.0,768.0,blue,I
0.0,4.0,4.0,0.0,7.0,5.0,1983.5055040002767,4.0,1.0,phase_3,,,,,519.0,3.0,865.0,173.0,346.0,692.0,519.0,1038.0,magenta,flipped triangle
0.0,5.0,0.5,1.0,7.0,3.0,569.4654930002798,4.0,2.0,phase_3,,,,,348.0,3.0,232.0,464.0,348.0,580.0,696.0,116.0,blue,I
0.0,5.0,0.5,1.0,7.0,2.0,3404.477303999556,4.0,1.0,phase_3,,,,,405.0,3.0,810.0,405.0,540.0,675.0,135.0,270.0,blue,I
0.0,3.0,2.0,0.0,7.0,6.0,3132.637595999768,4.0,1.0,phase_3,,,,,348.0,3.0,580.0,464.0,232.0,116.0,696.0,348.0,white,cross
0.0,2.0,1.0,0.0,7.0,6.0,4341.455348000636,4.0,1.0,phase_3,,,,,462.0,3.0,924.0,154.0,616.0,770.0,308.0,462.0,yellow,circle
0.0,3.0,2.0,0.0,7.0,6.0,3153.0985530007456,4.0,1.0,phase_3,,,,,462.0,3.0,308.0,154.0,616.0,770.0,924.0,462.0,white,cross
