raw_reward_magnitude,stim_reward,stepwise_reward_magnitude,paired_with_stopping,stim_location,response,reaction_time,block,num_trial_presentations,which_phase,stop_signal_trial_type,left_SSD,right_SSD,accuracy,chosen_bidding_amount,chosen_bidding_level,possible_bid_1,possible_bid_2,possible_bid_3,possible_bid_4,possible_bid_5,possible_bid_6,color_text,shape_text
350.0,6.0,2.0,1.0,4.0,4.0,545.8090619999894,1.0,1.0,phase_1,,,,,,,,,,,,,magenta,diamond
641.0,7.0,3.0,1.0,3.0,3.0,452.3126779999984,1.0,1.0,phase_1,,,,,,,,,,,,,yellow,hexagon
180.0,5.0,1.0,1.0,1.0,1.0,672.8442119999727,1.0,1.0,phase_1,,,,,,,,,,,,,blue,circle
0.0,5.0,0.0,1.0,4.0,4.0,488.4207139999716,1.0,1.0,phase_1,,,,,,,,,,,,,blue,circle
626.0,3.0,3.0,0.0,1.0,1.0,539.5700660000102,1.0,1.0,phase_1,,,,,,,,,,,,,cyan,I
1280.0,4.0,4.0,0.0,2.0,2.0,552.7329399999417,1.0,1.0,phase_1,,,,,,,,,,,,,white,flipped triangle
1323.0,8.0,4.0,1.0,2.0,2.0,435.5461029999787,1.0,1.0,phase_1,,,,,,,,,,,,,orange,triangle
0.0,5.0,0.0,1.0,2.0,2.0,423.8570909999453,1.0,1.0,phase_1,,,,,,,,,,,,,blue,circle
633.0,3.0,3.0,0.0,4.0,4.0,542.5241130000131,1.0,1.0,phase_1,,,,,,,,,,,,,cyan,I
0.0,8.0,0.0,1.0,3.0,3.0,514.4800129999112,1.0,1.0,phase_1,,,,,,,,,,,,,orange,triangle
631.0,7.0,3.0,1.0,1.0,1.0,645.3232719999278,1.0,1.0,phase_1,,,,,,,,,,,,,yellow,hexagon
628.0,3.0,3.0,0.0,1.0,1.0,618.843523999999,1.0,1.0,phase_1,,,,,,,,,,,,,cyan,I
0.0,6.0,0.0,1.0,4.0,4.0,434.026579000033,1.0,1.0,phase_1,,,,,,,,,,,,,magenta,diamond
185.0,1.0,1.0,0.0,4.0,4.0,364.6755969999731,1.0,1.0,phase_1,,,,,,,,,,,,,green,square
318.0,2.0,2.0,0.0,1.0,1.0,648.3647269999437,1.0,1.0,phase_1,,,,,,,,,,,,,gray,cross
0.0,6.0,0.0,1.0,3.0,3.0,460.9457120000115,1.0,1.0,phase_1,,,,,,,,,,,,,magenta,diamond
142.0,5.0,1.0,1.0,2.0,2.0,683.2170249999763,1.0,1.0,phase_1,,,,,,,,,,,,,blue,circle
322.0,2.0,2.0,0.0,1.0,1.0,625.0870940000368,1.0,1.0,phase_1,,,,,,,,,,,,,gray,cross
637.0,7.0,3.0,1.0,4.0,4.0,365.5144059999884,1.0,1.0,phase_1,,,,,,,,,,,,,yellow,hexagon
1295.0,8.0,4.0,1.0,2.0,2.0,336.594835000028,1.0,1.0,phase_1,,,,,,,,,,,,,orange,triangle
335.0,6.0,2.0,1.0,3.0,3.0,396.5256500000578,1.0,1.0,phase_1,,,,,,,,,,,,,magenta,diamond
1310.0,8.0,4.0,1.0,1.0,1.0,480.5044619999989,1.0,1.0,phase_1,,,,,,,,,,,,,orange,triangle
183.0,5.0,1.0,1.0,3.0,3.0,399.6530419999544,1.0,1.0,phase_1,,,,,,,,,,,,,blue,circle
325.0,6.0,2.0,1.0,2.0,2.0,497.2600560000728,1.0,1.0,phase_1,,,,,,,,,,,,,magenta,diamond
1286.0,8.0,4.0,1.0,1.0,1.0,544.9206019999338,1.0,1.0,phase_1,,,,,,,,,,,,,orange,triangle
0.0,8.0,0.0,1.0,4.0,4.0,477.5115019999703,1.0,1.0,phase_1,,,,,,,,,,,,,orange,triangle
313.0,6.0,2.0,1.0,2.0,2.0,527.2943790000681,1.0,1.0,phase_1,,,,,,,,,,,,,magenta,diamond
0.0,1.0,0.0,0.0,4.0,4.0,413.6295800000198,1.0,1.0,phase_1,,,,,,,,,,,,,green,square
300.0,6.0,2.0,1.0,1.0,1.0,491.4218810000648,1.0,1.0,phase_1,,,,,,,,,,,,,magenta,diamond
1301.0,4.0,4.0,0.0,4.0,4.0,398.9760040000192,1.0,1.0,phase_1,,,,,,,,,,,,,white,flipped triangle
1310.0,4.0,4.0,0.0,1.0,1.0,418.0056630000308,1.0,1.0,phase_1,,,,,,,,,,,,,white,flipped triangle
1306.0,4.0,4.0,0.0,3.0,3.0,374.7367359999316,1.0,1.0,phase_1,,,,,,,,,,,,,white,flipped triangle
1295.0,8.0,4.0,1.0,3.0,3.0,437.9323240000303,1.0,1.0,phase_1,,,,,,,,,,,,,orange,triangle
0.0,2.0,0.0,0.0,4.0,4.0,463.9433899999403,1.0,1.0,phase_1,,,,,,,,,,,,,gray,cross
315.0,6.0,2.0,1.0,2.0,2.0,436.3796339999908,1.0,1.0,phase_1,,,,,,,,,,,,,magenta,diamond
337.0,2.0,2.0,0.0,3.0,3.0,355.752083000084,1.0,1.0,phase_1,,,,,,,,,,,,,gray,cross
0.0,6.0,0.0,1.0,1.0,1.0,557.6759389999779,1.0,1.0,phase_1,,,,,,,,,,,,,magenta,diamond
315.0,2.0,2.0,0.0,1.0,1.0,706.5772289998904,1.0,1.0,phase_1,,,,,,,,,,,,,gray,cross
142.0,5.0,1.0,1.0,3.0,3.0,478.7217809999902,1.0,1.0,phase_1,,,,,,,,,,,,,blue,circle
0.0,3.0,0.0,0.0,4.0,4.0,555.5258880000338,1.0,1.0,phase_1,,,,,,,,,,,,,cyan,I
626.0,7.0,3.0,1.0,2.0,2.0,544.8779450000529,1.0,1.0,phase_1,,,,,,,,,,,,,yellow,hexagon
0.0,8.0,0.0,1.0,2.0,2.0,467.9480720000128,1.0,1.0,phase_1,,,,,,,,,,,,,orange,triangle
655.0,7.0,3.0,1.0,1.0,1.0,497.8209030000471,1.0,1.0,phase_1,,,,,,,,,,,,,yellow,hexagon
0.0,8.0,0.0,1.0,4.0,4.0,445.8400380000284,1.0,1.0,phase_1,,,,,,,,,,,,,orange,triangle
670.0,7.0,3.0,1.0,2.0,2.0,377.878719000023,1.0,1.0,phase_1,,,,,,,,,,,,,yellow,hexagon
1279.0,8.0,4.0,1.0,4.0,4.0,415.6611529999736,1.0,1.0,phase_1,,,,,,,,,,,,,orange,triangle
0.0,1.0,0.0,0.0,2.0,2.0,707.5655780000716,1.0,1.0,phase_1,,,,,,,,,,,,,green,square
0.0,3.0,0.0,0.0,4.0,4.0,464.4719440000244,1.0,1.0,phase_1,,,,,,,,,,,,,cyan,I
341.0,6.0,2.0,1.0,4.0,4.0,397.1240079999916,1.0,1.0,phase_1,,,,,,,,,,,,,magenta,diamond
1325.0,4.0,4.0,0.0,1.0,1.0,539.9808509999957,1.0,1.0,phase_1,,,,,,,,,,,,,white,flipped triangle
655.0,3.0,3.0,0.0,3.0,3.0,454.2431470000565,1.0,1.0,phase_1,,,,,,,,,,,,,cyan,I
311.0,6.0,2.0,1.0,3.0,3.0,410.6187900000577,1.0,1.0,phase_1,,,,,,,,,,,,,magenta,diamond
168.0,5.0,1.0,1.0,1.0,1.0,608.0940329999294,1.0,1.0,phase_1,,,,,,,,,,,,,blue,circle
172.0,5.0,1.0,1.0,1.0,1.0,447.0842079999784,1.0,1.0,phase_1,,,,,,,,,,,,,blue,circle
0.0,5.0,0.0,1.0,3.0,3.0,465.7031780000125,1.0,1.0,phase_1,,,,,,,,,,,,,blue,circle
660.0,7.0,3.0,1.0,2.0,2.0,525.8270339999171,1.0,1.0,phase_1,,,,,,,,,,,,,yellow,hexagon
142.0,1.0,1.0,0.0,3.0,3.0,449.9803420000035,1.0,1.0,phase_1,,,,,,,,,,,,,green,square
337.0,6.0,2.0,1.0,1.0,1.0,513.4878710000521,1.0,1.0,phase_1,,,,,,,,,,,,,magenta,diamond
0.0,1.0,0.0,0.0,4.0,4.0,406.4124640000273,1.0,1.0,phase_1,,,,,,,,,,,,,green,square
0.0,8.0,0.0,1.0,4.0,4.0,375.8395809999229,1.0,1.0,phase_1,,,,,,,,,,,,,orange,triangle
645.0,3.0,3.0,0.0,1.0,1.0,469.456599999944,1.0,1.0,phase_1,,,,,,,,,,,,,cyan,I
657.0,7.0,3.0,1.0,4.0,4.0,420.0375960000428,1.0,1.0,phase_1,,,,,,,,,,,,,yellow,hexagon
346.0,6.0,2.0,1.0,3.0,3.0,422.3600440000155,1.0,1.0,phase_1,,,,,,,,,,,,,magenta,diamond
0.0,2.0,0.0,0.0,4.0,4.0,498.7788769999497,1.0,1.0,phase_1,,,,,,,,,,,,,gray,cross
161.0,1.0,1.0,0.0,4.0,4.0,432.161576999988,1.0,1.0,phase_1,,,,,,,,,,,,,green,square
1324.0,8.0,4.0,1.0,3.0,3.0,427.8210060000447,1.0,1.0,phase_1,,,,,,,,,,,,,orange,triangle
648.0,3.0,3.0,0.0,3.0,3.0,464.1996850000396,1.0,1.0,phase_1,,,,,,,,,,,,,cyan,I
1295.0,4.0,4.0,0.0,3.0,3.0,424.2141590000301,1.0,1.0,phase_1,,,,,,,,,,,,,white,flipped triangle
150.0,5.0,1.0,1.0,2.0,2.0,481.5607000000454,1.0,1.0,phase_1,,,,,,,,,,,,,blue,circle
156.0,5.0,1.0,1.0,4.0,4.0,424.4292759999553,1.0,1.0,phase_1,,,,,,,,,,,,,blue,circle
1317.0,8.0,4.0,1.0,3.0,3.0,396.9231329999729,1.0,1.0,phase_1,,,,,,,,,,,,,orange,triangle
641.0,7.0,3.0,1.0,1.0,1.0,520.266154000069,1.0,1.0,phase_1,,,,,,,,,,,,,yellow,hexagon
0.0,3.0,0.0,0.0,4.0,4.0,516.3860610000484,1.0,1.0,phase_1,,,,,,,,,,,,,cyan,I
138.0,5.0,1.0,1.0,4.0,4.0,387.0093570000108,1.0,1.0,phase_1,,,,,,,,,,,,,blue,circle
1306.0,8.0,4.0,1.0,4.0,4.0,351.4659000001074,1.0,1.0,phase_1,,,,,,,,,,,,,orange,triangle
151.0,5.0,1.0,1.0,4.0,4.0,362.5243060000684,1.0,1.0,phase_1,,,,,,,,,,,,,blue,circle
312.0,6.0,2.0,1.0,1.0,1.0,495.8904149999625,1.0,1.0,phase_1,,,,,,,,,,,,,magenta,diamond
638.0,3.0,3.0,0.0,4.0,4.0,374.1285360000574,1.0,1.0,phase_1,,,,,,,,,,,,,cyan,I
184.0,5.0,1.0,1.0,2.0,2.0,688.3815810000442,1.0,1.0,phase_1,,,,,,,,,,,,,blue,circle
0.0,2.0,0.0,0.0,2.0,2.0,446.6373519999251,1.0,1.0,phase_1,,,,,,,,,,,,,gray,cross
1306.0,8.0,4.0,1.0,1.0,1.0,579.618355999969,1.0,1.0,phase_1,,,,,,,,,,,,,orange,triangle
303.0,6.0,2.0,1.0,3.0,3.0,526.9638280000208,1.0,1.0,phase_1,,,,,,,,,,,,,magenta,diamond
674.0,3.0,3.0,0.0,4.0,4.0,355.8981180000273,1.0,1.0,phase_1,,,,,,,,,,,,,cyan,I
625.0,3.0,3.0,0.0,4.0,4.0,362.1949999999287,1.0,1.0,phase_1,,,,,,,,,,,,,cyan,I
657.0,3.0,3.0,0.0,4.0,4.0,310.3005690001055,1.0,1.0,phase_1,,,,,,,,,,,,,cyan,I
1280.0,8.0,4.0,1.0,1.0,1.0,376.9333019999976,1.0,1.0,phase_1,,,,,,,,,,,,,orange,triangle
183.0,1.0,1.0,0.0,4.0,4.0,342.4446430000216,1.0,1.0,phase_1,,,,,,,,,,,,,green,square
341.0,2.0,2.0,0.0,3.0,3.0,386.0633469998902,1.0,1.0,phase_1,,,,,,,,,,,,,gray,cross
655.0,3.0,3.0,0.0,3.0,3.0,335.4311329999291,1.0,1.0,phase_1,,,,,,,,,,,,,cyan,I
168.0,1.0,1.0,0.0,1.0,1.0,426.4992969999639,1.0,2.0,phase_1,,,,,,,,,,,,,green,square
175.0,5.0,1.0,1.0,3.0,3.0,436.7832829999543,1.0,1.0,phase_1,,,,,,,,,,,,,blue,circle
138.0,1.0,1.0,0.0,3.0,3.0,427.8941709999344,1.0,1.0,phase_1,,,,,,,,,,,,,green,square
1299.0,8.0,4.0,1.0,3.0,3.0,544.149243999982,1.0,1.0,phase_1,,,,,,,,,,,,,orange,triangle
0.0,4.0,0.0,0.0,3.0,3.0,427.3916360000385,1.0,1.0,phase_1,,,,,,,,,,,,,white,flipped triangle
161.0,5.0,1.0,1.0,1.0,1.0,454.8737290000417,1.0,1.0,phase_1,,,,,,,,,,,,,blue,circle
1290.0,4.0,4.0,0.0,4.0,4.0,805.4992520000042,1.0,1.0,phase_1,,,,,,,,,,,,,white,flipped triangle
344.0,6.0,2.0,1.0,2.0,2.0,703.7478669999473,1.0,1.0,phase_1,,,,,,,,,,,,,magenta,diamond
141.0,1.0,1.0,0.0,1.0,1.0,484.7095909999552,1.0,1.0,phase_1,,,,,,,,,,,,,green,square
306.0,2.0,2.0,0.0,3.0,3.0,561.7349799999829,1.0,1.0,phase_1,,,,,,,,,,,,,gray,cross
0.0,5.0,0.0,1.0,2.0,2.0,624.5507400000179,1.0,1.0,phase_1,,,,,,,,,,,,,blue,circle
1301.0,8.0,4.0,1.0,1.0,1.0,654.8571079999874,2.0,1.0,phase_1,,,,,,,,,,,,,orange,triangle
1295.0,4.0,4.0,0.0,2.0,2.0,596.0459149999906,2.0,1.0,phase_1,,,,,,,,,,,,,white,flipped triangle
1285.0,4.0,4.0,0.0,2.0,2.0,455.8015749998958,2.0,1.0,phase_1,,,,,,,,,,,,,white,flipped triangle
146.0,5.0,1.0,1.0,4.0,4.0,390.6254029999445,2.0,1.0,phase_1,,,,,,,,,,,,,blue,circle
0.0,6.0,0.0,1.0,2.0,2.0,490.6810809999342,2.0,1.0,phase_1,,,,,,,,,,,,,magenta,diamond
1286.0,4.0,4.0,0.0,2.0,2.0,431.2486110000009,2.0,1.0,phase_1,,,,,,,,,,,,,white,flipped triangle
178.0,5.0,1.0,1.0,4.0,4.0,475.1691030000984,2.0,1.0,phase_1,,,,,,,,,,,,,blue,circle
0.0,2.0,0.0,0.0,1.0,1.0,832.6813329999823,2.0,1.0,phase_1,,,,,,,,,,,,,gray,cross
319.0,2.0,2.0,0.0,2.0,2.0,572.0658299999286,2.0,1.0,phase_1,,,,,,,,,,,,,gray,cross
1298.0,8.0,4.0,1.0,2.0,2.0,530.3731409999273,2.0,1.0,phase_1,,,,,,,,,,,,,orange,triangle
335.0,2.0,2.0,0.0,3.0,3.0,371.6318100000535,2.0,4.0,phase_1,,,,,,,,,,,,,gray,cross
138.0,1.0,1.0,0.0,2.0,2.0,457.8340010000374,2.0,1.0,phase_1,,,,,,,,,,,,,green,square
0.0,4.0,0.0,0.0,1.0,1.0,472.8766339999311,2.0,2.0,phase_1,,,,,,,,,,,,,white,flipped triangle
666.0,3.0,3.0,0.0,4.0,4.0,559.2380430000503,2.0,1.0,phase_1,,,,,,,,,,,,,cyan,I
340.0,2.0,2.0,0.0,1.0,1.0,498.870846999921,2.0,1.0,phase_1,,,,,,,,,,,,,gray,cross
173.0,5.0,1.0,1.0,3.0,3.0,359.2862820000846,2.0,1.0,phase_1,,,,,,,,,,,,,blue,circle
0.0,2.0,0.0,0.0,2.0,2.0,636.353520000057,2.0,1.0,phase_1,,,,,,,,,,,,,gray,cross
320.0,6.0,2.0,1.0,2.0,2.0,448.77402599991,2.0,1.0,phase_1,,,,,,,,,,,,,magenta,diamond
1286.0,8.0,4.0,1.0,4.0,4.0,437.6604289999477,2.0,1.0,phase_1,,,,,,,,,,,,,orange,triangle
1306.0,4.0,4.0,0.0,2.0,2.0,418.8174089999847,2.0,1.0,phase_1,,,,,,,,,,,,,white,flipped triangle
627.0,3.0,3.0,0.0,2.0,2.0,392.6725410000244,2.0,1.0,phase_1,,,,,,,,,,,,,cyan,I
142.0,1.0,1.0,0.0,3.0,3.0,410.9566319999658,2.0,1.0,phase_1,,,,,,,,,,,,,green,square
658.0,3.0,3.0,0.0,4.0,4.0,496.5678910000406,2.0,1.0,phase_1,,,,,,,,,,,,,cyan,I
670.0,3.0,3.0,0.0,1.0,1.0,692.3883270000033,2.0,1.0,phase_1,,,,,,,,,,,,,cyan,I
163.0,1.0,1.0,0.0,1.0,1.0,528.7967880000224,2.0,1.0,phase_1,,,,,,,,,,,,,green,square
672.0,3.0,3.0,0.0,1.0,1.0,454.6652689999746,2.0,1.0,phase_1,,,,,,,,,,,,,cyan,I
1310.0,8.0,4.0,1.0,4.0,4.0,443.581608000045,2.0,1.0,phase_1,,,,,,,,,,,,,orange,triangle
668.0,7.0,3.0,1.0,4.0,4.0,390.4725270000426,2.0,1.0,phase_1,,,,,,,,,,,,,yellow,hexagon
0.0,4.0,0.0,0.0,1.0,1.0,579.3308909999269,2.0,1.0,phase_1,,,,,,,,,,,,,white,flipped triangle
163.0,5.0,1.0,1.0,2.0,2.0,476.0701229999995,2.0,2.0,phase_1,,,,,,,,,,,,,blue,circle
674.0,3.0,3.0,0.0,1.0,1.0,547.5105520000625,2.0,1.0,phase_1,,,,,,,,,,,,,cyan,I
161.0,1.0,1.0,0.0,2.0,2.0,653.7826109999969,2.0,1.0,phase_1,,,,,,,,,,,,,green,square
0.0,5.0,0.0,1.0,2.0,2.0,451.3815239999985,2.0,1.0,phase_1,,,,,,,,,,,,,blue,circle
1276.0,8.0,4.0,1.0,4.0,4.0,375.6650359999867,2.0,1.0,phase_1,,,,,,,,,,,,,orange,triangle
339.0,6.0,2.0,1.0,4.0,4.0,390.6859940000231,2.0,1.0,phase_1,,,,,,,,,,,,,magenta,diamond
0.0,1.0,0.0,0.0,3.0,3.0,513.4262509999417,2.0,1.0,phase_1,,,,,,,,,,,,,green,square
347.0,6.0,2.0,1.0,4.0,4.0,396.5074650000133,2.0,1.0,phase_1,,,,,,,,,,,,,magenta,diamond
0.0,1.0,0.0,0.0,2.0,2.0,345.7432149999704,2.0,1.0,phase_1,,,,,,,,,,,,,green,square
0.0,3.0,0.0,0.0,1.0,1.0,517.9171339999584,2.0,1.0,phase_1,,,,,,,,,,,,,cyan,I
1322.0,8.0,4.0,1.0,4.0,4.0,413.1154359999982,2.0,1.0,phase_1,,,,,,,,,,,,,orange,triangle
1279.0,4.0,4.0,0.0,3.0,3.0,416.2462410000671,2.0,1.0,phase_1,,,,,,,,,,,,,white,flipped triangle
0.0,3.0,0.0,0.0,3.0,3.0,422.9207509999924,2.0,1.0,phase_1,,,,,,,,,,,,,cyan,I
337.0,2.0,2.0,0.0,3.0,3.0,450.5809209999825,2.0,1.0,phase_1,,,,,,,,,,,,,gray,cross
631.0,3.0,3.0,0.0,4.0,4.0,381.262955000011,2.0,1.0,phase_1,,,,,,,,,,,,,cyan,I
305.0,2.0,2.0,0.0,3.0,3.0,387.1186030000899,2.0,1.0,phase_1,,,,,,,,,,,,,gray,cross
649.0,7.0,3.0,1.0,1.0,1.0,462.6933839999765,2.0,1.0,phase_1,,,,,,,,,,,,,yellow,hexagon
166.0,1.0,1.0,0.0,4.0,4.0,493.1494750001093,2.0,1.0,phase_1,,,,,,,,,,,,,green,square
322.0,6.0,2.0,1.0,2.0,2.0,505.89813299995967,2.0,1.0,phase_1,,,,,,,,,,,,,magenta,diamond
300.0,2.0,2.0,0.0,2.0,2.0,428.6621119999836,2.0,1.0,phase_1,,,,,,,,,,,,,gray,cross
343.0,2.0,2.0,0.0,1.0,1.0,585.2956749999976,2.0,1.0,phase_1,,,,,,,,,,,,,gray,cross
1325.0,8.0,4.0,1.0,2.0,2.0,509.0612259999716,2.0,1.0,phase_1,,,,,,,,,,,,,orange,triangle
1294.0,8.0,4.0,1.0,2.0,2.0,362.823843000001,2.0,1.0,phase_1,,,,,,,,,,,,,orange,triangle
179.0,1.0,1.0,0.0,2.0,2.0,358.6633539999866,2.0,1.0,phase_1,,,,,,,,,,,,,green,square
0.0,4.0,0.0,0.0,2.0,2.0,316.1167920000025,2.0,1.0,phase_1,,,,,,,,,,,,,white,flipped triangle
674.0,7.0,3.0,1.0,2.0,2.0,377.0481230001223,2.0,1.0,phase_1,,,,,,,,,,,,,yellow,hexagon
350.0,6.0,2.0,1.0,3.0,3.0,439.5942369999375,2.0,1.0,phase_1,,,,,,,,,,,,,magenta,diamond
330.0,6.0,2.0,1.0,1.0,1.0,483.7533139998413,2.0,1.0,phase_1,,,,,,,,,,,,,magenta,diamond
350.0,2.0,2.0,0.0,3.0,3.0,350.6893760002185,2.0,1.0,phase_1,,,,,,,,,,,,,gray,cross
1276.0,4.0,4.0,0.0,4.0,4.0,578.7212800000816,2.0,1.0,phase_1,,,,,,,,,,,,,white,flipped triangle
0.0,4.0,0.0,0.0,1.0,1.0,600.0400750001518,2.0,1.0,phase_1,,,,,,,,,,,,,white,flipped triangle
155.0,5.0,1.0,1.0,1.0,1.0,494.7057769998082,2.0,1.0,phase_1,,,,,,,,,,,,,blue,circle
0.0,8.0,0.0,1.0,3.0,3.0,346.0766570001397,2.0,1.0,phase_1,,,,,,,,,,,,,orange,triangle
166.0,5.0,1.0,1.0,4.0,4.0,406.7195049999554,2.0,1.0,phase_1,,,,,,,,,,,,,blue,circle
337.0,2.0,2.0,0.0,2.0,2.0,481.7522280000048,2.0,1.0,phase_1,,,,,,,,,,,,,gray,cross
648.0,7.0,3.0,1.0,3.0,3.0,375.1773530000264,2.0,1.0,phase_1,,,,,,,,,,,,,yellow,hexagon
173.0,1.0,1.0,0.0,4.0,4.0,286.2208260000898,2.0,1.0,phase_1,,,,,,,,,,,,,green,square
1317.0,4.0,4.0,0.0,3.0,3.0,424.2919650000658,2.0,1.0,phase_1,,,,,,,,,,,,,white,flipped triangle
346.0,2.0,2.0,0.0,4.0,4.0,404.5873150000716,2.0,1.0,phase_1,,,,,,,,,,,,,gray,cross
668.0,7.0,3.0,1.0,2.0,2.0,363.0557379999573,2.0,1.0,phase_1,,,,,,,,,,,,,yellow,hexagon
179.0,1.0,1.0,0.0,3.0,3.0,389.6505939999315,2.0,1.0,phase_1,,,,,,,,,,,,,green,square
323.0,6.0,2.0,1.0,2.0,2.0,474.952845000189,2.0,1.0,phase_1,,,,,,,,,,,,,magenta,diamond
173.0,1.0,1.0,0.0,3.0,3.0,456.1086940000223,2.0,1.0,phase_1,,,,,,,,,,,,,green,square
1301.0,8.0,4.0,1.0,1.0,1.0,523.8204569998288,2.0,1.0,phase_1,,,,,,,,,,,,,orange,triangle
0.0,1.0,0.0,0.0,1.0,1.0,442.6533490000111,2.0,1.0,phase_1,,,,,,,,,,,,,green,square
653.0,3.0,3.0,0.0,1.0,1.0,351.7198779998125,2.0,1.0,phase_1,,,,,,,,,,,,,cyan,I
648.0,3.0,3.0,0.0,2.0,2.0,401.0253630001443,2.0,1.0,phase_1,,,,,,,,,,,,,cyan,I
625.0,7.0,3.0,1.0,4.0,4.0,361.0596460000579,2.0,1.0,phase_1,,,,,,,,,,,,,yellow,hexagon
640.0,3.0,3.0,0.0,1.0,1.0,474.8824589999003,2.0,1.0,phase_1,,,,,,,,,,,,,cyan,I
168.0,5.0,1.0,1.0,4.0,4.0,383.2925400001841,2.0,1.0,phase_1,,,,,,,,,,,,,blue,circle
1297.0,8.0,4.0,1.0,1.0,1.0,340.2171519999228,2.0,1.0,phase_1,,,,,,,,,,,,,orange,triangle
312.0,2.0,2.0,0.0,3.0,3.0,384.3601179999041,2.0,1.0,phase_1,,,,,,,,,,,,,gray,cross
666.0,7.0,3.0,1.0,3.0,3.0,415.6184949999897,2.0,1.0,phase_1,,,,,,,,,,,,,yellow,hexagon
322.0,6.0,2.0,1.0,4.0,4.0,395.6110350000017,2.0,1.0,phase_1,,,,,,,,,,,,,magenta,diamond
156.0,1.0,1.0,0.0,3.0,3.0,366.1937780000244,2.0,1.0,phase_1,,,,,,,,,,,,,green,square
1309.0,4.0,4.0,0.0,3.0,3.0,363.7302319998525,2.0,1.0,phase_1,,,,,,,,,,,,,white,flipped triangle
0.0,7.0,0.0,1.0,3.0,3.0,416.0148420000951,2.0,1.0,phase_1,,,,,,,,,,,,,yellow,hexagon
648.0,7.0,3.0,1.0,2.0,2.0,517.6692689999527,2.0,1.0,phase_1,,,,,,,,,,,,,yellow,hexagon
312.0,2.0,2.0,0.0,3.0,3.0,387.7327840000362,2.0,1.0,phase_1,,,,,,,,,,,,,gray,cross
668.0,3.0,3.0,0.0,3.0,3.0,390.063573000134,2.0,1.0,phase_1,,,,,,,,,,,,,cyan,I
312.0,6.0,2.0,1.0,2.0,2.0,429.1695260001233,2.0,1.0,phase_1,,,,,,,,,,,,,magenta,diamond
185.0,5.0,1.0,1.0,3.0,3.0,430.8879140000954,2.0,1.0,phase_1,,,,,,,,,,,,,blue,circle
343.0,6.0,2.0,1.0,3.0,3.0,437.1994170001017,2.0,1.0,phase_1,,,,,,,,,,,,,magenta,diamond
1313.0,8.0,4.0,1.0,4.0,4.0,458.7885569999343,2.0,1.0,phase_1,,,,,,,,,,,,,orange,triangle
333.0,2.0,2.0,0.0,1.0,1.0,497.2567719999006,2.0,2.0,phase_1,,,,,,,,,,,,,gray,cross
0.0,5.0,0.0,1.0,4.0,4.0,662.4204249999366,2.0,1.0,phase_1,,,,,,,,,,,,,blue,circle
0.0,2.0,0.0,0.0,4.0,4.0,405.9691099998872,2.0,1.0,phase_1,,,,,,,,,,,,,gray,cross
642.0,3.0,3.0,0.0,2.0,2.0,751.5606100000696,2.0,1.0,phase_1,,,,,,,,,,,,,cyan,I
0.0,4.0,0.0,0.0,1.0,1.0,612.486323999974,2.0,1.0,phase_1,,,,,,,,,,,,,white,flipped triangle
659.0,3.0,3.0,0.0,1.0,1.0,627.5952000000871,2.0,1.0,phase_1,,,,,,,,,,,,,cyan,I
0.0,7.0,0.0,1.0,3.0,3.0,663.7124030000905,2.0,1.0,phase_1,,,,,,,,,,,,,yellow,hexagon
350.0,2.0,2.0,0.0,4.0,4.0,526.7917860001035,3.0,1.0,phase_1,,,,,,,,,,,,,gray,cross
159.0,1.0,1.0,0.0,3.0,3.0,472.9388979999385,3.0,1.0,phase_1,,,,,,,,,,,,,green,square
150.0,5.0,1.0,1.0,3.0,3.0,460.6806809999852,3.0,1.0,phase_1,,,,,,,,,,,,,blue,circle
170.0,1.0,1.0,0.0,1.0,1.0,538.0607390000023,3.0,1.0,phase_1,,,,,,,,,,,,,green,square
0.0,3.0,0.0,0.0,1.0,1.0,409.1118129999813,3.0,1.0,phase_1,,,,,,,,,,,,,cyan,I
672.0,7.0,3.0,1.0,1.0,1.0,546.5935570000511,3.0,1.0,phase_1,,,,,,,,,,,,,yellow,hexagon
319.0,6.0,2.0,1.0,1.0,1.0,344.2123009999704,3.0,1.0,phase_1,,,,,,,,,,,,,magenta,diamond
0.0,5.0,0.0,1.0,2.0,2.0,392.8484399998524,3.0,2.0,phase_1,,,,,,,,,,,,,blue,circle
303.0,2.0,2.0,0.0,2.0,2.0,398.7365210000462,3.0,1.0,phase_1,,,,,,,,,,,,,gray,cross
168.0,1.0,1.0,0.0,1.0,1.0,466.5283479998834,3.0,1.0,phase_1,,,,,,,,,,,,,green,square
652.0,3.0,3.0,0.0,3.0,3.0,512.5244400001066,3.0,1.0,phase_1,,,,,,,,,,,,,cyan,I
0.0,4.0,0.0,0.0,4.0,4.0,387.4561659999926,3.0,1.0,phase_1,,,,,,,,,,,,,white,flipped triangle
649.0,3.0,3.0,0.0,2.0,2.0,439.9640849999287,3.0,1.0,phase_1,,,,,,,,,,,,,cyan,I
305.0,6.0,2.0,1.0,4.0,4.0,375.3115960000741,3.0,1.0,phase_1,,,,,,,,,,,,,magenta,diamond
161.0,5.0,1.0,1.0,4.0,4.0,411.9105300001138,3.0,1.0,phase_1,,,,,,,,,,,,,blue,circle
1314.0,4.0,4.0,0.0,2.0,2.0,422.2971950000556,3.0,1.0,phase_1,,,,,,,,,,,,,white,flipped triangle
652.0,7.0,3.0,1.0,4.0,4.0,413.4117630001128,3.0,1.0,phase_1,,,,,,,,,,,,,yellow,hexagon
139.0,1.0,1.0,0.0,2.0,2.0,449.6707800001331,3.0,1.0,phase_1,,,,,,,,,,,,,green,square
312.0,2.0,2.0,0.0,2.0,2.0,468.2085950000783,3.0,1.0,phase_1,,,,,,,,,,,,,gray,cross
637.0,3.0,3.0,0.0,2.0,2.0,386.9816429998991,3.0,1.0,phase_1,,,,,,,,,,,,,cyan,I
1320.0,8.0,4.0,1.0,2.0,2.0,308.7266090001321,3.0,1.0,phase_1,,,,,,,,,,,,,orange,triangle
186.0,5.0,1.0,1.0,2.0,2.0,411.5220440000939,3.0,1.0,phase_1,,,,,,,,,,,,,blue,circle
1283.0,4.0,4.0,0.0,4.0,4.0,350.8858400000463,3.0,1.0,phase_1,,,,,,,,,,,,,white,flipped triangle
0.0,6.0,0.0,1.0,2.0,2.0,315.1572320000468,3.0,1.0,phase_1,,,,,,,,,,,,,magenta,diamond
0.0,7.0,0.0,1.0,2.0,2.0,313.1872909998492,3.0,1.0,phase_1,,,,,,,,,,,,,yellow,hexagon
648.0,7.0,3.0,1.0,4.0,4.0,340.1143270000375,3.0,1.0,phase_1,,,,,,,,,,,,,yellow,hexagon
639.0,7.0,3.0,1.0,1.0,1.0,632.941781999989,3.0,1.0,phase_1,,,,,,,,,,,,,yellow,hexagon
156.0,5.0,1.0,1.0,3.0,3.0,591.1082080001506,3.0,1.0,phase_1,,,,,,,,,,,,,blue,circle
155.0,1.0,1.0,0.0,2.0,2.0,595.3079690000322,3.0,1.0,phase_1,,,,,,,,,,,,,green,square
179.0,5.0,1.0,1.0,3.0,3.0,382.8407580001567,3.0,1.0,phase_1,,,,,,,,,,,,,blue,circle
0.0,1.0,0.0,0.0,1.0,1.0,730.7930949998536,3.0,1.0,phase_1,,,,,,,,,,,,,green,square
1301.0,8.0,4.0,1.0,1.0,1.0,408.3322320000206,3.0,1.0,phase_1,,,,,,,,,,,,,orange,triangle
0.0,7.0,0.0,1.0,4.0,4.0,455.1939320001565,3.0,1.0,phase_1,,,,,,,,,,,,,yellow,hexagon
1317.0,4.0,4.0,0.0,3.0,3.0,417.0737740000731,3.0,1.0,phase_1,,,,,,,,,,,,,white,flipped triangle
0.0,6.0,0.0,1.0,1.0,1.0,485.9395359999325,3.0,1.0,phase_1,,,,,,,,,,,,,magenta,diamond
320.0,6.0,2.0,1.0,4.0,4.0,386.7191130000265,3.0,1.0,phase_1,,,,,,,,,,,,,magenta,diamond
0.0,7.0,0.0,1.0,2.0,2.0,407.0857599999726,3.0,1.0,phase_1,,,,,,,,,,,,,yellow,hexagon
157.0,5.0,1.0,1.0,2.0,2.0,356.9093749999865,3.0,1.0,phase_1,,,,,,,,,,,,,blue,circle
640.0,7.0,3.0,1.0,1.0,1.0,461.57347999997,3.0,2.0,phase_1,,,,,,,,,,,,,yellow,hexagon
653.0,3.0,3.0,0.0,3.0,3.0,515.0471029999153,3.0,1.0,phase_1,,,,,,,,,,,,,cyan,I
179.0,5.0,1.0,1.0,4.0,4.0,846.1274200001299,3.0,1.0,phase_1,,,,,,,,,,,,,blue,circle
139.0,5.0,1.0,1.0,1.0,1.0,547.2364760000801,3.0,1.0,phase_1,,,,,,,,,,,,,blue,circle
311.0,2.0,2.0,0.0,4.0,4.0,440.1743470000383,3.0,1.0,phase_1,,,,,,,,,,,,,gray,cross
1289.0,8.0,4.0,1.0,3.0,3.0,387.8852990001178,3.0,1.0,phase_1,,,,,,,,,,,,,orange,triangle
668.0,3.0,3.0,0.0,4.0,4.0,379.5150920000196,3.0,1.0,phase_1,,,,,,,,,,,,,cyan,I
345.0,2.0,2.0,0.0,4.0,4.0,414.0827539999918,3.0,1.0,phase_1,,,,,,,,,,,,,gray,cross
170.0,5.0,1.0,1.0,1.0,1.0,450.0592240001424,3.0,1.0,phase_1,,,,,,,,,,,,,blue,circle
658.0,7.0,3.0,1.0,2.0,2.0,454.4857450000563,3.0,1.0,phase_1,,,,,,,,,,,,,yellow,hexagon
655.0,3.0,3.0,0.0,3.0,3.0,444.6074750001116,3.0,1.0,phase_1,,,,,,,,,,,,,cyan,I
162.0,1.0,1.0,0.0,1.0,1.0,464.0339739999035,3.0,1.0,phase_1,,,,,,,,,,,,,green,square
312.0,6.0,2.0,1.0,2.0,2.0,414.5017230000576,3.0,1.0,phase_1,,,,,,,,,,,,,magenta,diamond
0.0,7.0,0.0,1.0,1.0,1.0,465.7584480000878,3.0,1.0,phase_1,,,,,,,,,,,,,yellow,hexagon
306.0,6.0,2.0,1.0,4.0,4.0,398.4728890000042,3.0,1.0,phase_1,,,,,,,,,,,,,magenta,diamond
143.0,1.0,1.0,0.0,3.0,3.0,524.1771109999718,3.0,1.0,phase_1,,,,,,,,,,,,,green,square
1276.0,4.0,4.0,0.0,1.0,1.0,615.5833349998829,3.0,1.0,phase_1,,,,,,,,,,,,,white,flipped triangle
159.0,5.0,1.0,1.0,3.0,3.0,413.1235519998881,3.0,1.0,phase_1,,,,,,,,,,,,,blue,circle
143.0,5.0,1.0,1.0,2.0,2.0,432.3410289998719,3.0,1.0,phase_1,,,,,,,,,,,,,blue,circle
661.0,7.0,3.0,1.0,1.0,1.0,526.0540830001901,3.0,1.0,phase_1,,,,,,,,,,,,,yellow,hexagon
627.0,7.0,3.0,1.0,3.0,3.0,401.6658140001254,3.0,1.0,phase_1,,,,,,,,,,,,,yellow,hexagon
655.0,7.0,3.0,1.0,4.0,4.0,422.3974689998613,3.0,1.0,phase_1,,,,,,,,,,,,,yellow,hexagon
339.0,2.0,2.0,0.0,3.0,3.0,405.7231030001276,3.0,1.0,phase_1,,,,,,,,,,,,,gray,cross
674.0,7.0,3.0,1.0,4.0,4.0,407.4356290000196,3.0,1.0,phase_1,,,,,,,,,,,,,yellow,hexagon
1310.0,8.0,4.0,1.0,3.0,3.0,372.2539609998421,3.0,1.0,phase_1,,,,,,,,,,,,,orange,triangle
1309.0,8.0,4.0,1.0,4.0,4.0,464.4863140001689,3.0,1.0,phase_1,,,,,,,,,,,,,orange,triangle
0.0,5.0,0.0,1.0,1.0,1.0,428.8173700001607,3.0,1.0,phase_1,,,,,,,,,,,,,blue,circle
334.0,6.0,2.0,1.0,3.0,3.0,380.8317949999491,3.0,1.0,phase_1,,,,,,,,,,,,,magenta,diamond
307.0,2.0,2.0,0.0,4.0,4.0,422.4369910000405,3.0,1.0,phase_1,,,,,,,,,,,,,gray,cross
1301.0,4.0,4.0,0.0,1.0,1.0,491.2269300000389,3.0,1.0,phase_1,,,,,,,,,,,,,white,flipped triangle
1320.0,4.0,4.0,0.0,3.0,3.0,391.597615000137,3.0,1.0,phase_1,,,,,,,,,,,,,white,flipped triangle
164.0,5.0,1.0,1.0,1.0,1.0,404.0572579999661,3.0,1.0,phase_1,,,,,,,,,,,,,blue,circle
661.0,3.0,3.0,0.0,2.0,2.0,466.2684400000216,3.0,1.0,phase_1,,,,,,,,,,,,,cyan,I
184.0,1.0,1.0,0.0,4.0,4.0,414.0017419999822,3.0,1.0,phase_1,,,,,,,,,,,,,green,square
313.0,2.0,2.0,0.0,2.0,2.0,378.117285999906,3.0,1.0,phase_1,,,,,,,,,,,,,gray,cross
320.0,2.0,2.0,0.0,2.0,2.0,343.8669300001038,3.0,1.0,phase_1,,,,,,,,,,,,,gray,cross
661.0,3.0,3.0,0.0,3.0,3.0,451.7011489999731,3.0,1.0,phase_1,,,,,,,,,,,,,cyan,I
150.0,1.0,1.0,0.0,2.0,2.0,384.0309570000499,3.0,1.0,phase_1,,,,,,,,,,,,,green,square
334.0,2.0,2.0,0.0,1.0,1.0,447.0580659999541,3.0,1.0,phase_1,,,,,,,,,,,,,gray,cross
639.0,3.0,3.0,0.0,2.0,2.0,393.3651280001413,3.0,1.0,phase_1,,,,,,,,,,,,,cyan,I
312.0,2.0,2.0,0.0,4.0,4.0,361.0187639999367,3.0,1.0,phase_1,,,,,,,,,,,,,gray,cross
0.0,6.0,0.0,1.0,3.0,3.0,381.5239799998835,3.0,1.0,phase_1,,,,,,,,,,,,,magenta,diamond
1290.0,8.0,4.0,1.0,2.0,2.0,407.2819559999061,3.0,1.0,phase_1,,,,,,,,,,,,,orange,triangle
330.0,2.0,2.0,0.0,2.0,2.0,414.0120370000204,3.0,1.0,phase_1,,,,,,,,,,,,,gray,cross
150.0,1.0,1.0,0.0,3.0,3.0,426.1414100001275,3.0,1.0,phase_1,,,,,,,,,,,,,green,square
1298.0,4.0,4.0,0.0,1.0,1.0,503.3516999999392,3.0,1.0,phase_1,,,,,,,,,,,,,white,flipped triangle
1307.0,8.0,4.0,1.0,3.0,3.0,410.778978000053,3.0,1.0,phase_1,,,,,,,,,,,,,orange,triangle
162.0,5.0,1.0,1.0,2.0,2.0,465.302746999896,3.0,1.0,phase_1,,,,,,,,,,,,,blue,circle
340.0,6.0,2.0,1.0,4.0,4.0,413.8316579999355,3.0,1.0,phase_1,,,,,,,,,,,,,magenta,diamond
645.0,7.0,3.0,1.0,4.0,4.0,631.5766949999215,3.0,1.0,phase_1,,,,,,,,,,,,,yellow,hexagon
660.0,3.0,3.0,0.0,2.0,2.0,469.882342000119,3.0,1.0,phase_1,,,,,,,,,,,,,cyan,I
641.0,3.0,3.0,0.0,1.0,1.0,475.2148160000615,3.0,1.0,phase_1,,,,,,,,,,,,,cyan,I
1292.0,4.0,4.0,0.0,1.0,1.0,386.2090580000767,3.0,2.0,phase_1,,,,,,,,,,,,,white,flipped triangle
0.0,6.0,0.0,1.0,1.0,1.0,417.0100779999757,3.0,1.0,phase_1,,,,,,,,,,,,,magenta,diamond
0.0,7.0,0.0,1.0,3.0,3.0,642.8169479997905,3.0,1.0,phase_1,,,,,,,,,,,,,yellow,hexagon
1323.0,4.0,4.0,0.0,4.0,4.0,425.5725339999117,3.0,1.0,phase_1,,,,,,,,,,,,,white,flipped triangle
1281.0,4.0,4.0,0.0,2.0,2.0,381.030002999978,3.0,1.0,phase_1,,,,,,,,,,,,,white,flipped triangle
333.0,6.0,2.0,1.0,3.0,3.0,419.535617000065,3.0,1.0,phase_1,,,,,,,,,,,,,magenta,diamond
1294.0,4.0,4.0,0.0,1.0,1.0,471.800617999861,3.0,1.0,phase_1,,,,,,,,,,,,,white,flipped triangle
1314.0,8.0,4.0,1.0,2.0,2.0,425.9720029999698,3.0,1.0,phase_1,,,,,,,,,,,,,orange,triangle
0.0,5.0,0.0,1.0,1.0,1.0,488.0798540000342,3.0,1.0,phase_1,,,,,,,,,,,,,blue,circle
178.0,1.0,1.0,0.0,1.0,1.0,419.9164980000205,3.0,1.0,phase_1,,,,,,,,,,,,,green,square
309.0,6.0,2.0,1.0,3.0,3.0,510.4273980000471,4.0,1.0,phase_1,,,,,,,,,,,,,magenta,diamond
309.0,2.0,2.0,0.0,2.0,2.0,423.4608240001307,4.0,1.0,phase_1,,,,,,,,,,,,,gray,cross
1281.0,8.0,4.0,1.0,4.0,4.0,567.2694940001293,4.0,1.0,phase_1,,,,,,,,,,,,,orange,triangle
0.0,8.0,0.0,1.0,2.0,2.0,625.5804429999898,4.0,1.0,phase_1,,,,,,,,,,,,,orange,triangle
628.0,7.0,3.0,1.0,2.0,2.0,438.0394300001171,4.0,1.0,phase_1,,,,,,,,,,,,,yellow,hexagon
141.0,5.0,1.0,1.0,1.0,1.0,548.6361329999454,4.0,1.0,phase_1,,,,,,,,,,,,,blue,circle
1289.0,4.0,4.0,0.0,3.0,3.0,378.3337509999001,4.0,1.0,phase_1,,,,,,,,,,,,,white,flipped triangle
628.0,7.0,3.0,1.0,3.0,3.0,467.8233600000112,4.0,1.0,phase_1,,,,,,,,,,,,,yellow,hexagon
0.0,3.0,0.0,0.0,3.0,3.0,440.6286010000713,4.0,1.0,phase_1,,,,,,,,,,,,,cyan,I
162.0,5.0,1.0,1.0,3.0,3.0,407.6322539999637,4.0,1.0,phase_1,,,,,,,,,,,,,blue,circle
163.0,5.0,1.0,1.0,2.0,2.0,435.2856210000482,4.0,1.0,phase_1,,,,,,,,,,,,,blue,circle
1322.0,8.0,4.0,1.0,4.0,4.0,527.0472619999964,4.0,1.0,phase_1,,,,,,,,,,,,,orange,triangle
628.0,3.0,3.0,0.0,4.0,4.0,387.349820000054,4.0,1.0,phase_1,,,,,,,,,,,,,cyan,I
320.0,2.0,2.0,0.0,1.0,1.0,431.3583919999928,4.0,1.0,phase_1,,,,,,,,,,,,,gray,cross
0.0,2.0,0.0,0.0,4.0,4.0,422.1132499999385,4.0,1.0,phase_1,,,,,,,,,,,,,gray,cross
0.0,3.0,0.0,0.0,4.0,4.0,386.5637420001349,4.0,1.0,phase_1,,,,,,,,,,,,,cyan,I
175.0,1.0,1.0,0.0,4.0,4.0,421.6112789999897,4.0,1.0,phase_1,,,,,,,,,,,,,green,square
304.0,6.0,2.0,1.0,3.0,3.0,396.1148599998978,4.0,1.0,phase_1,,,,,,,,,,,,,magenta,diamond
1310.0,4.0,4.0,0.0,1.0,1.0,527.0219250000991,4.0,1.0,phase_1,,,,,,,,,,,,,white,flipped triangle
0.0,7.0,0.0,1.0,3.0,3.0,347.8801389999262,4.0,1.0,phase_1,,,,,,,,,,,,,yellow,hexagon
138.0,5.0,1.0,1.0,4.0,4.0,449.5919549999598,4.0,1.0,phase_1,,,,,,,,,,,,,blue,circle
1292.0,8.0,4.0,1.0,3.0,3.0,356.986716999927,4.0,1.0,phase_1,,,,,,,,,,,,,orange,triangle
0.0,8.0,0.0,1.0,1.0,1.0,595.4777429999467,4.0,1.0,phase_1,,,,,,,,,,,,,orange,triangle
345.0,6.0,2.0,1.0,1.0,1.0,526.8348319998495,4.0,1.0,phase_1,,,,,,,,,,,,,magenta,diamond
1322.0,4.0,4.0,0.0,1.0,1.0,324.201500000072,4.0,1.0,phase_1,,,,,,,,,,,,,white,flipped triangle
0.0,3.0,0.0,0.0,4.0,4.0,375.5538699999761,4.0,1.0,phase_1,,,,,,,,,,,,,cyan,I
302.0,6.0,2.0,1.0,1.0,1.0,396.042585000032,4.0,1.0,phase_1,,,,,,,,,,,,,magenta,diamond
0.0,1.0,0.0,0.0,3.0,3.0,313.8141540000561,4.0,1.0,phase_1,,,,,,,,,,,,,green,square
304.0,2.0,2.0,0.0,4.0,4.0,424.0715420000924,4.0,1.0,phase_1,,,,,,,,,,,,,gray,cross
151.0,1.0,1.0,0.0,1.0,1.0,393.3399560000907,4.0,1.0,phase_1,,,,,,,,,,,,,green,square
322.0,2.0,2.0,0.0,1.0,1.0,478.9040929999828,4.0,1.0,phase_1,,,,,,,,,,,,,gray,cross
650.0,7.0,3.0,1.0,3.0,3.0,411.1557460000767,4.0,1.0,phase_1,,,,,,,,,,,,,yellow,hexagon
653.0,7.0,3.0,1.0,3.0,3.0,344.0532360000361,4.0,1.0,phase_1,,,,,,,,,,,,,yellow,hexagon
0.0,1.0,0.0,0.0,2.0,2.0,459.8312230000374,4.0,1.0,phase_1,,,,,,,,,,,,,green,square
661.0,7.0,3.0,1.0,1.0,1.0,593.4150400000817,4.0,1.0,phase_1,,,,,,,,,,,,,yellow,hexagon
0.0,7.0,0.0,1.0,1.0,1.0,518.4650459998466,4.0,1.0,phase_1,,,,,,,,,,,,,yellow,hexagon
157.0,1.0,1.0,0.0,4.0,4.0,453.0023360000541,4.0,1.0,phase_1,,,,,,,,,,,,,green,square
0.0,4.0,0.0,0.0,2.0,2.0,399.3927159999657,4.0,1.0,phase_1,,,,,,,,,,,,,white,flipped triangle
173.0,5.0,1.0,1.0,2.0,2.0,339.7598879998895,4.0,1.0,phase_1,,,,,,,,,,,,,blue,circle
0.0,7.0,0.0,1.0,2.0,2.0,295.5420479997883,4.0,1.0,phase_1,,,,,,,,,,,,,yellow,hexagon
1281.0,8.0,4.0,1.0,3.0,3.0,404.557683999883,4.0,1.0,phase_1,,,,,,,,,,,,,orange,triangle
648.0,3.0,3.0,0.0,2.0,2.0,425.8364120000806,4.0,1.0,phase_1,,,,,,,,,,,,,cyan,I
1283.0,8.0,4.0,1.0,3.0,3.0,374.7710850000203,4.0,1.0,phase_1,,,,,,,,,,,,,orange,triangle
663.0,7.0,3.0,1.0,3.0,3.0,482.4094289999721,4.0,1.0,phase_1,,,,,,,,,,,,,yellow,hexagon
0.0,4.0,0.0,0.0,3.0,3.0,401.0421709999718,4.0,1.0,phase_1,,,,,,,,,,,,,white,flipped triangle
318.0,6.0,2.0,1.0,4.0,4.0,419.8027110001021,4.0,1.0,phase_1,,,,,,,,,,,,,magenta,diamond
186.0,1.0,1.0,0.0,1.0,1.0,410.9317620000183,4.0,1.0,phase_1,,,,,,,,,,,,,green,square
180.0,1.0,1.0,0.0,3.0,3.0,349.1241429999263,4.0,1.0,phase_1,,,,,,,,,,,,,green,square
0.0,8.0,0.0,1.0,3.0,3.0,372.330040999941,4.0,1.0,phase_1,,,,,,,,,,,,,orange,triangle
0.0,4.0,0.0,0.0,2.0,2.0,464.6123420000094,4.0,1.0,phase_1,,,,,,,,,,,,,white,flipped triangle
0.0,6.0,0.0,1.0,1.0,1.0,557.5187500000993,4.0,1.0,phase_1,,,,,,,,,,,,,magenta,diamond
156.0,1.0,1.0,0.0,2.0,2.0,369.452148999926,4.0,1.0,phase_1,,,,,,,,,,,,,green,square
307.0,6.0,2.0,1.0,1.0,1.0,516.893656999855,4.0,1.0,phase_1,,,,,,,,,,,,,magenta,diamond
638.0,7.0,3.0,1.0,2.0,2.0,338.7247420000676,4.0,1.0,phase_1,,,,,,,,,,,,,yellow,hexagon
172.0,1.0,1.0,0.0,2.0,2.0,318.1043059998956,4.0,1.0,phase_1,,,,,,,,,,,,,green,square
0.0,2.0,0.0,0.0,4.0,4.0,411.6127219999725,4.0,1.0,phase_1,,,,,,,,,,,,,gray,cross
172.0,1.0,1.0,0.0,4.0,4.0,342.9694290000498,4.0,1.0,phase_1,,,,,,,,,,,,,green,square
0.0,8.0,0.0,1.0,1.0,1.0,443.9388890000373,4.0,1.0,phase_1,,,,,,,,,,,,,orange,triangle
1299.0,8.0,4.0,1.0,2.0,2.0,303.4765939999033,4.0,1.0,phase_1,,,,,,,,,,,,,orange,triangle
323.0,2.0,2.0,0.0,2.0,2.0,348.5885350000899,4.0,1.0,phase_1,,,,,,,,,,,,,gray,cross
655.0,7.0,3.0,1.0,2.0,2.0,337.0534380001118,4.0,1.0,phase_1,,,,,,,,,,,,,yellow,hexagon
1286.0,4.0,4.0,0.0,4.0,4.0,351.0846209999272,4.0,1.0,phase_1,,,,,,,,,,,,,white,flipped triangle
344.0,2.0,2.0,0.0,1.0,1.0,395.8982560000095,4.0,1.0,phase_1,,,,,,,,,,,,,gray,cross
653.0,7.0,3.0,1.0,4.0,4.0,383.5791970000173,4.0,1.0,phase_1,,,,,,,,,,,,,yellow,hexagon
663.0,3.0,3.0,0.0,3.0,3.0,492.4399150002045,4.0,1.0,phase_1,,,,,,,,,,,,,cyan,I
0.0,5.0,0.0,1.0,3.0,3.0,464.6487590000561,4.0,1.0,phase_1,,,,,,,,,,,,,blue,circle
1297.0,4.0,4.0,0.0,4.0,4.0,408.0592349998824,4.0,1.0,phase_1,,,,,,,,,,,,,white,flipped triangle
0.0,2.0,0.0,0.0,4.0,4.0,340.2178209998965,4.0,1.0,phase_1,,,,,,,,,,,,,gray,cross
1322.0,4.0,4.0,0.0,4.0,4.0,366.5364250000493,4.0,1.0,phase_1,,,,,,,,,,,,,white,flipped triangle
1299.0,4.0,4.0,0.0,2.0,2.0,405.0538100000267,4.0,1.0,phase_1,,,,,,,,,,,,,white,flipped triangle
162.0,1.0,1.0,0.0,1.0,1.0,527.6096560000951,4.0,1.0,phase_1,,,,,,,,,,,,,green,square
1310.0,4.0,4.0,0.0,4.0,4.0,372.8702010000688,4.0,1.0,phase_1,,,,,,,,,,,,,white,flipped triangle
163.0,1.0,1.0,0.0,2.0,2.0,377.2674969998206,4.0,1.0,phase_1,,,,,,,,,,,,,green,square
1285.0,8.0,4.0,1.0,1.0,1.0,447.0196629999918,4.0,1.0,phase_1,,,,,,,,,,,,,orange,triangle
337.0,6.0,2.0,1.0,2.0,2.0,346.1646240000391,4.0,1.0,phase_1,,,,,,,,,,,,,magenta,diamond
1313.0,4.0,4.0,0.0,2.0,2.0,375.0060749998738,4.0,1.0,phase_1,,,,,,,,,,,,,white,flipped triangle
337.0,6.0,2.0,1.0,1.0,1.0,461.0663430000841,4.0,1.0,phase_1,,,,,,,,,,,,,magenta,diamond
302.0,2.0,2.0,0.0,4.0,4.0,488.5405479999463,4.0,1.0,phase_1,,,,,,,,,,,,,gray,cross
325.0,2.0,2.0,0.0,4.0,4.0,367.3012980000294,4.0,1.0,phase_1,,,,,,,,,,,,,gray,cross
312.0,6.0,2.0,1.0,1.0,1.0,473.7630800000261,4.0,1.0,phase_1,,,,,,,,,,,,,magenta,diamond
659.0,7.0,3.0,1.0,3.0,3.0,502.46400300011373,4.0,1.0,phase_1,,,,,,,,,,,,,yellow,hexagon
0.0,1.0,0.0,0.0,4.0,4.0,386.4149660000748,4.0,1.0,phase_1,,,,,,,,,,,,,green,square
0.0,2.0,0.0,0.0,2.0,2.0,463.7441529998796,4.0,1.0,phase_1,,,,,,,,,,,,,gray,cross
164.0,1.0,1.0,0.0,4.0,4.0,475.4861290000463,4.0,1.0,phase_1,,,,,,,,,,,,,green,square
1276.0,8.0,4.0,1.0,2.0,2.0,392.0625069999914,4.0,1.0,phase_1,,,,,,,,,,,,,orange,triangle
1317.0,8.0,4.0,1.0,1.0,1.0,551.0226569999759,4.0,1.0,phase_1,,,,,,,,,,,,,orange,triangle
1281.0,4.0,4.0,0.0,3.0,3.0,454.8140719998628,4.0,2.0,phase_1,,,,,,,,,,,,,white,flipped triangle
650.0,3.0,3.0,0.0,2.0,2.0,437.2583829999712,4.0,1.0,phase_1,,,,,,,,,,,,,cyan,I
0.0,3.0,0.0,0.0,2.0,2.0,360.0609019999865,4.0,1.0,phase_1,,,,,,,,,,,,,cyan,I
1301.0,4.0,4.0,0.0,3.0,3.0,438.2606000001487,4.0,1.0,phase_1,,,,,,,,,,,,,white,flipped triangle
146.0,1.0,1.0,0.0,2.0,2.0,435.4050480001206,4.0,1.0,phase_1,,,,,,,,,,,,,green,square
1324.0,4.0,4.0,0.0,4.0,4.0,397.7703699999892,4.0,1.0,phase_1,,,,,,,,,,,,,white,flipped triangle
641.0,3.0,3.0,0.0,3.0,3.0,473.9475920000586,4.0,1.0,phase_1,,,,,,,,,,,,,cyan,I
347.0,2.0,2.0,0.0,4.0,4.0,408.2012190001478,4.0,1.0,phase_1,,,,,,,,,,,,,gray,cross
1299.0,4.0,4.0,0.0,1.0,1.0,534.1394170000058,4.0,1.0,phase_1,,,,,,,,,,,,,white,flipped triangle
642.0,7.0,3.0,1.0,1.0,1.0,416.3648169999305,4.0,1.0,phase_1,,,,,,,,,,,,,yellow,hexagon
633.0,7.0,3.0,1.0,3.0,3.0,374.731064000116,4.0,1.0,phase_1,,,,,,,,,,,,,yellow,hexagon
1307.0,4.0,4.0,0.0,2.0,2.0,425.6067459998576,4.0,1.0,phase_1,,,,,,,,,,,,,white,flipped triangle
0.0,6.0,0.0,1.0,3.0,3.0,430.6045050000193,4.0,1.0,phase_1,,,,,,,,,,,,,magenta,diamond
172.0,5.0,1.0,1.0,1.0,1.0,607.3553840001296,4.0,2.0,phase_1,,,,,,,,,,,,,blue,circle
0.0,2.0,2.0,0.0,5.0,5.0,430.2549209999142,1.0,1.0,phase_2,go,250.0,250.0,1.0,,,,,,,,,gray,cross
0.0,8.0,4.0,1.0,5.0,5.0,454.3061970000508,1.0,1.0,phase_2,go,250.0,250.0,1.0,,,,,,,,,orange,triangle
0.0,8.0,4.0,1.0,5.0,0.0,0.0,1.0,1.0,phase_2,stop,250.0,250.0,4.0,,,,,,,,,orange,triangle
0.0,1.0,1.0,0.0,5.0,5.0,397.3112820001461,1.0,1.0,phase_2,go,300.0,250.0,1.0,,,,,,,,,green,square
0.0,2.0,2.0,0.0,6.0,6.0,596.6396809999424,1.0,1.0,phase_2,go,300.0,250.0,1.0,,,,,,,,,gray,cross
0.0,4.0,4.0,0.0,5.0,5.0,339.9529260000236,1.0,1.0,phase_2,go,300.0,250.0,1.0,,,,,,,,,white,flipped triangle
0.0,8.0,4.0,1.0,6.0,0.0,0.0,1.0,1.0,phase_2,stop,300.0,250.0,4.0,,,,,,,,,orange,triangle
0.0,1.0,1.0,0.0,5.0,5.0,580.5367479999859,1.0,1.0,phase_2,go,300.0,300.0,1.0,,,,,,,,,green,square
0.0,8.0,4.0,1.0,5.0,5.0,337.6587249999829,1.0,1.0,phase_2,stop,300.0,300.0,3.0,,,,,,,,,orange,triangle
0.0,5.0,1.0,1.0,6.0,6.0,650.8099229999971,1.0,1.0,phase_2,go,250.0,300.0,1.0,,,,,,,,,blue,circle
0.0,3.0,3.0,0.0,5.0,5.0,458.0963660000634,1.0,1.0,phase_2,go,250.0,300.0,1.0,,,,,,,,,cyan,I
0.0,6.0,2.0,1.0,5.0,5.0,376.5584290001698,1.0,1.0,phase_2,stop,250.0,300.0,3.0,,,,,,,,,magenta,diamond
0.0,6.0,2.0,1.0,5.0,0.0,0.0,1.0,1.0,phase_2,stop,200.0,300.0,4.0,,,,,,,,,magenta,diamond
0.0,4.0,4.0,0.0,6.0,6.0,568.4914910000316,1.0,1.0,phase_2,go,250.0,300.0,1.0,,,,,,,,,white,flipped triangle
0.0,5.0,1.0,1.0,5.0,0.0,0.0,1.0,1.0,phase_2,stop,250.0,300.0,4.0,,,,,,,,,blue,circle
0.0,3.0,3.0,0.0,5.0,5.0,622.2449130000314,1.0,1.0,phase_2,go,300.0,300.0,1.0,,,,,,,,,cyan,I
0.0,4.0,4.0,0.0,5.0,5.0,423.2247059999281,1.0,1.0,phase_2,go,300.0,300.0,1.0,,,,,,,,,white,flipped triangle
0.0,5.0,1.0,1.0,6.0,0.0,0.0,1.0,1.0,phase_2,stop,300.0,300.0,4.0,,,,,,,,,blue,circle
0.0,1.0,1.0,0.0,5.0,5.0,542.0394699999633,1.0,1.0,phase_2,go,300.0,350.0,1.0,,,,,,,,,green,square
0.0,8.0,4.0,1.0,5.0,0.0,0.0,1.0,1.0,phase_2,stop,300.0,350.0,4.0,,,,,,,,,orange,triangle
0.0,1.0,1.0,0.0,6.0,6.0,682.0696520001093,1.0,1.0,phase_2,go,350.0,350.0,1.0,,,,,,,,,green,square
0.0,3.0,3.0,0.0,5.0,5.0,594.7841239999434,1.0,1.0,phase_2,go,350.0,350.0,1.0,,,,,,,,,cyan,I
0.0,5.0,1.0,1.0,5.0,0.0,0.0,1.0,1.0,phase_2,stop,350.0,350.0,4.0,,,,,,,,,blue,circle
0.0,8.0,4.0,1.0,6.0,0.0,0.0,1.0,1.0,phase_2,stop,400.0,350.0,4.0,,,,,,,,,orange,triangle
0.0,8.0,4.0,1.0,5.0,0.0,0.0,1.0,1.0,phase_2,stop,400.0,400.0,4.0,,,,,,,,,orange,triangle
0.0,1.0,1.0,0.0,6.0,6.0,879.9755229999846,1.0,1.0,phase_2,go,450.0,400.0,1.0,,,,,,,,,green,square
0.0,1.0,1.0,0.0,5.0,5.0,886.621704999925,1.0,1.0,phase_2,go,450.0,400.0,1.0,,,,,,,,,green,square
0.0,7.0,3.0,1.0,5.0,5.0,534.9448360000224,1.0,1.0,phase_2,stop,450.0,400.0,3.0,,,,,,,,,yellow,hexagon
0.0,2.0,2.0,0.0,5.0,5.0,692.3708719998558,1.0,1.0,phase_2,go,400.0,400.0,1.0,,,,,,,,,gray,cross
0.0,6.0,2.0,1.0,6.0,6.0,374.6599019998484,1.0,1.0,phase_2,go,400.0,400.0,1.0,,,,,,,,,magenta,diamond
0.0,1.0,1.0,0.0,5.0,5.0,389.9278260000756,1.0,1.0,phase_2,go,400.0,400.0,1.0,,,,,,,,,green,square
0.0,7.0,3.0,1.0,6.0,6.0,428.8644700000077,1.0,1.0,phase_2,stop,400.0,400.0,3.0,,,,,,,,,yellow,hexagon
0.0,1.0,1.0,0.0,6.0,6.0,787.3030449998168,1.0,1.0,phase_2,go,400.0,350.0,1.0,,,,,,,,,green,square
0.0,7.0,3.0,1.0,5.0,5.0,420.5456130000584,1.0,1.0,phase_2,stop,400.0,350.0,3.0,,,,,,,,,yellow,hexagon
0.0,5.0,1.0,1.0,6.0,6.0,625.6090370000038,1.0,1.0,phase_2,go,350.0,350.0,1.0,,,,,,,,,blue,circle
0.0,3.0,3.0,0.0,6.0,6.0,752.4050319998423,1.0,1.0,phase_2,go,350.0,350.0,1.0,,,,,,,,,cyan,I
0.0,1.0,1.0,0.0,6.0,6.0,481.9476449999911,2.0,1.0,phase_2,go,350.0,350.0,1.0,,,,,,,,,green,square
0.0,3.0,3.0,0.0,6.0,6.0,423.5107940000944,2.0,1.0,phase_2,go,350.0,350.0,1.0,,,,,,,,,cyan,I
0.0,1.0,1.0,0.0,5.0,5.0,342.9035720000684,2.0,1.0,phase_2,go,350.0,350.0,1.0,,,,,,,,,green,square
0.0,8.0,4.0,1.0,6.0,6.0,390.3101839998726,2.0,1.0,phase_2,stop,350.0,350.0,3.0,,,,,,,,,orange,triangle
0.0,7.0,3.0,1.0,5.0,5.0,369.9813299999732,2.0,1.0,phase_2,stop,350.0,300.0,3.0,,,,,,,,,yellow,hexagon
0.0,2.0,2.0,0.0,6.0,6.0,502.76902999985396,2.0,1.0,phase_2,go,300.0,300.0,1.0,,,,,,,,,gray,cross
0.0,7.0,3.0,1.0,5.0,5.0,414.8286850004297,2.0,1.0,phase_2,stop,300.0,300.0,3.0,,,,,,,,,yellow,hexagon
0.0,6.0,2.0,1.0,5.0,0.0,0.0,2.0,1.0,phase_2,stop,250.0,300.0,4.0,,,,,,,,,magenta,diamond
0.0,4.0,4.0,0.0,6.0,6.0,523.1990840002254,2.0,1.0,phase_2,go,300.0,300.0,1.0,,,,,,,,,white,flipped triangle
0.0,5.0,1.0,1.0,5.0,5.0,410.6224699999075,2.0,1.0,phase_2,go,300.0,300.0,1.0,,,,,,,,,blue,circle
0.0,2.0,2.0,0.0,6.0,6.0,585.9876079998685,2.0,1.0,phase_2,go,300.0,300.0,1.0,,,,,,,,,gray,cross
0.0,5.0,1.0,1.0,5.0,0.0,0.0,2.0,1.0,phase_2,stop,300.0,300.0,4.0,,,,,,,,,blue,circle
0.0,8.0,4.0,1.0,6.0,6.0,497.1483439999247,2.0,1.0,phase_2,stop,350.0,300.0,3.0,,,,,,,,,orange,triangle
0.0,7.0,3.0,1.0,6.0,0.0,0.0,2.0,1.0,phase_2,stop,350.0,250.0,4.0,,,,,,,,,yellow,hexagon
0.0,4.0,4.0,0.0,6.0,6.0,719.8247400001492,2.0,1.0,phase_2,go,350.0,300.0,1.0,,,,,,,,,white,flipped triangle
0.0,1.0,1.0,0.0,6.0,6.0,565.8869730000333,2.0,1.0,phase_2,go,350.0,300.0,1.0,,,,,,,,,green,square
0.0,3.0,3.0,0.0,5.0,5.0,552.2816699999566,2.0,1.0,phase_2,go,350.0,300.0,1.0,,,,,,,,,cyan,I
0.0,7.0,3.0,1.0,6.0,6.0,501.9287660002192,2.0,1.0,phase_2,go,350.0,300.0,1.0,,,,,,,,,yellow,hexagon
0.0,8.0,4.0,1.0,5.0,5.0,438.9936490001673,2.0,1.0,phase_2,stop,350.0,300.0,3.0,,,,,,,,,orange,triangle
0.0,4.0,4.0,0.0,5.0,5.0,717.4809049997748,2.0,1.0,phase_2,go,300.0,300.0,1.0,,,,,,,,,white,flipped triangle
0.0,6.0,2.0,1.0,5.0,0.0,0.0,2.0,1.0,phase_2,stop,300.0,300.0,4.0,,,,,,,,,magenta,diamond
0.0,1.0,1.0,0.0,5.0,5.0,571.1105479999787,2.0,1.0,phase_2,go,350.0,300.0,1.0,,,,,,,,,green,square
0.0,5.0,1.0,1.0,6.0,6.0,587.1388509999633,2.0,1.0,phase_2,go,350.0,300.0,1.0,,,,,,,,,blue,circle
0.0,5.0,1.0,1.0,5.0,0.0,0.0,2.0,1.0,phase_2,stop,350.0,300.0,4.0,,,,,,,,,blue,circle
0.0,2.0,2.0,0.0,6.0,6.0,497.4379770001178,2.0,1.0,phase_2,go,400.0,300.0,1.0,,,,,,,,,gray,cross
0.0,4.0,4.0,0.0,5.0,5.0,538.9879519998431,2.0,1.0,phase_2,go,400.0,300.0,1.0,,,,,,,,,white,flipped triangle
0.0,3.0,3.0,0.0,5.0,5.0,609.1651029996683,2.0,1.0,phase_2,go,400.0,300.0,1.0,,,,,,,,,cyan,I
0.0,5.0,1.0,1.0,6.0,0.0,0.0,2.0,1.0,phase_2,stop,400.0,300.0,4.0,,,,,,,,,blue,circle
0.0,3.0,3.0,0.0,5.0,5.0,704.5738440001514,2.0,1.0,phase_2,go,400.0,350.0,1.0,,,,,,,,,cyan,I
0.0,3.0,3.0,0.0,6.0,6.0,639.6698509997805,2.0,1.0,phase_2,go,400.0,350.0,1.0,,,,,,,,,cyan,I
0.0,7.0,3.0,1.0,5.0,5.0,469.8662840000907,2.0,1.0,phase_2,go,400.0,350.0,1.0,,,,,,,,,yellow,hexagon
0.0,7.0,3.0,1.0,5.0,5.0,430.6407480003145,2.0,1.0,phase_2,stop,400.0,350.0,3.0,,,,,,,,,yellow,hexagon
0.0,7.0,3.0,1.0,6.0,0.0,0.0,2.0,1.0,phase_2,stop,350.0,350.0,4.0,,,,,,,,,yellow,hexagon
0.0,5.0,1.0,1.0,6.0,6.0,579.8057219999464,2.0,1.0,phase_2,go,350.0,400.0,1.0,,,,,,,,,blue,circle
0.0,5.0,1.0,1.0,6.0,6.0,451.1859080002978,2.0,1.0,phase_2,stop,350.0,400.0,3.0,,,,,,,,,blue,circle
0.0,6.0,2.0,1.0,5.0,0.0,0.0,2.0,1.0,phase_2,stop,350.0,350.0,4.0,,,,,,,,,magenta,diamond
0.0,4.0,4.0,0.0,6.0,6.0,560.9576540000489,3.0,1.0,phase_2,go,400.0,350.0,1.0,,,,,,,,,white,flipped triangle
0.0,1.0,1.0,0.0,5.0,5.0,442.8688370003328,3.0,1.0,phase_2,go,400.0,350.0,1.0,,,,,,,,,green,square
0.0,4.0,4.0,0.0,5.0,5.0,352.7922129997023,3.0,1.0,phase_2,go,400.0,350.0,1.0,,,,,,,,,white,flipped triangle
0.0,8.0,4.0,1.0,5.0,5.0,353.2171840001865,3.0,1.0,phase_2,go,400.0,350.0,1.0,,,,,,,,,orange,triangle
0.0,1.0,1.0,0.0,6.0,6.0,361.3507929999286,3.0,1.0,phase_2,go,400.0,350.0,1.0,,,,,,,,,green,square
0.0,6.0,2.0,1.0,5.0,5.0,342.0087989998137,3.0,1.0,phase_2,stop,400.0,350.0,3.0,,,,,,,,,magenta,diamond
0.0,6.0,2.0,1.0,5.0,0.0,0.0,3.0,1.0,phase_2,stop,350.0,350.0,4.0,,,,,,,,,magenta,diamond
0.0,1.0,1.0,0.0,5.0,5.0,646.7659820000335,3.0,1.0,phase_2,go,400.0,350.0,1.0,,,,,,,,,green,square
0.0,5.0,1.0,1.0,5.0,5.0,508.7942559998737,3.0,1.0,phase_2,stop,400.0,350.0,3.0,,,,,,,,,blue,circle
0.0,7.0,3.0,1.0,5.0,5.0,708.1254599997919,3.0,1.0,phase_2,go,350.0,350.0,1.0,,,,,,,,,yellow,hexagon
0.0,6.0,2.0,1.0,6.0,6.0,459.6055350002643,3.0,1.0,phase_2,stop,350.0,350.0,3.0,,,,,,,,,magenta,diamond
0.0,7.0,3.0,1.0,5.0,0.0,0.0,3.0,1.0,phase_2,stop,350.0,300.0,4.0,,,,,,,,,yellow,hexagon
0.0,6.0,2.0,1.0,6.0,0.0,0.0,3.0,1.0,phase_2,stop,400.0,300.0,4.0,,,,,,,,,magenta,diamond
0.0,5.0,1.0,1.0,6.0,6.0,707.6429020003161,3.0,1.0,phase_2,go,400.0,350.0,1.0,,,,,,,,,blue,circle
0.0,6.0,2.0,1.0,5.0,5.0,387.1700859999691,3.0,1.0,phase_2,stop,400.0,350.0,3.0,,,,,,,,,magenta,diamond
0.0,6.0,2.0,1.0,6.0,0.0,0.0,3.0,1.0,phase_2,stop,350.0,350.0,4.0,,,,,,,,,magenta,diamond
0.0,8.0,4.0,1.0,6.0,6.0,838.9518720000524,3.0,1.0,phase_2,go,350.0,400.0,1.0,,,,,,,,,orange,triangle
0.0,1.0,1.0,0.0,6.0,6.0,622.5777370000287,3.0,1.0,phase_2,go,350.0,400.0,1.0,,,,,,,,,green,square
0.0,4.0,4.0,0.0,5.0,5.0,478.9948419997927,3.0,1.0,phase_2,go,350.0,400.0,1.0,,,,,,,,,white,flipped triangle
0.0,2.0,2.0,0.0,6.0,6.0,406.6681969998171,3.0,1.0,phase_2,go,350.0,400.0,1.0,,,,,,,,,gray,cross
0.0,5.0,1.0,1.0,6.0,6.0,557.7714510000078,3.0,1.0,phase_2,go,350.0,400.0,1.0,,,,,,,,,blue,circle
0.0,4.0,4.0,0.0,5.0,5.0,469.5143449998795,3.0,1.0,phase_2,go,350.0,400.0,1.0,,,,,,,,,white,flipped triangle
0.0,6.0,2.0,1.0,6.0,6.0,382.3426939998171,3.0,1.0,phase_2,go,350.0,400.0,1.0,,,,,,,,,magenta,diamond
0.0,6.0,2.0,1.0,6.0,6.0,421.9878720000451,3.0,1.0,phase_2,stop,350.0,400.0,3.0,,,,,,,,,magenta,diamond
0.0,2.0,2.0,0.0,5.0,5.0,650.7008550001956,3.0,1.0,phase_2,go,350.0,350.0,1.0,,,,,,,,,gray,cross
0.0,3.0,3.0,0.0,5.0,5.0,433.6150529998122,3.0,1.0,phase_2,go,350.0,350.0,1.0,,,,,,,,,cyan,I
0.0,8.0,4.0,1.0,5.0,5.0,433.9340779997656,3.0,1.0,phase_2,stop,350.0,350.0,3.0,,,,,,,,,orange,triangle
0.0,7.0,3.0,1.0,6.0,6.0,688.5627490000843,3.0,1.0,phase_2,go,300.0,350.0,1.0,,,,,,,,,yellow,hexagon
0.0,7.0,3.0,1.0,6.0,6.0,528.6437109998587,3.0,1.0,phase_2,go,300.0,350.0,1.0,,,,,,,,,yellow,hexagon
0.0,7.0,3.0,1.0,5.0,0.0,0.0,3.0,1.0,phase_2,stop,300.0,350.0,4.0,,,,,,,,,yellow,hexagon
0.0,3.0,3.0,0.0,6.0,6.0,582.6138639999954,3.0,1.0,phase_2,go,350.0,350.0,1.0,,,,,,,,,cyan,I
0.0,8.0,4.0,1.0,6.0,0.0,0.0,3.0,1.0,phase_2,stop,350.0,350.0,4.0,,,,,,,,,orange,triangle
0.0,2.0,2.0,0.0,6.0,6.0,702.3114449998502,3.0,1.0,phase_2,go,350.0,400.0,1.0,,,,,,,,,gray,cross
0.0,5.0,1.0,1.0,5.0,0.0,0.0,3.0,1.0,phase_2,stop,350.0,400.0,4.0,,,,,,,,,blue,circle
0.0,4.0,4.0,0.0,6.0,6.0,677.0000299998173,3.0,1.0,phase_2,go,400.0,400.0,1.0,,,,,,,,,white,flipped triangle
0.0,4.0,4.0,0.0,6.0,6.0,595.4503660000228,3.0,1.0,phase_2,go,400.0,400.0,1.0,,,,,,,,,white,flipped triangle
0.0,2.0,2.0,0.0,6.0,6.0,554.4916379999449,4.0,1.0,phase_2,go,400.0,400.0,1.0,,,,,,,,,gray,cross
0.0,1.0,1.0,0.0,6.0,6.0,427.190401000189,4.0,1.0,phase_2,go,400.0,400.0,1.0,,,,,,,,,green,square
0.0,3.0,3.0,0.0,5.0,5.0,457.3699040001884,4.0,1.0,phase_2,go,400.0,400.0,1.0,,,,,,,,,cyan,I
0.0,6.0,2.0,1.0,5.0,5.0,353.0674180001369,4.0,1.0,phase_2,go,400.0,400.0,1.0,,,,,,,,,magenta,diamond
0.0,6.0,2.0,1.0,6.0,6.0,352.1008960001381,4.0,1.0,phase_2,stop,400.0,400.0,3.0,,,,,,,,,magenta,diamond
0.0,1.0,1.0,0.0,5.0,5.0,631.1900609998702,4.0,1.0,phase_2,go,400.0,350.0,1.0,,,,,,,,,green,square
0.0,4.0,4.0,0.0,5.0,5.0,574.080782999772,4.0,1.0,phase_2,go,400.0,350.0,1.0,,,,,,,,,white,flipped triangle
0.0,3.0,3.0,0.0,5.0,5.0,654.4105160000981,4.0,1.0,phase_2,go,400.0,350.0,1.0,,,,,,,,,cyan,I
0.0,5.0,1.0,1.0,5.0,0.0,0.0,4.0,1.0,phase_2,stop,400.0,350.0,4.0,,,,,,,,,blue,circle
0.0,8.0,4.0,1.0,6.0,6.0,645.5263480002031,4.0,1.0,phase_2,go,450.0,350.0,1.0,,,,,,,,,orange,triangle
0.0,2.0,2.0,0.0,5.0,5.0,613.8537839997298,4.0,1.0,phase_2,go,450.0,350.0,1.0,,,,,,,,,gray,cross
0.0,4.0,4.0,0.0,6.0,6.0,421.2872650000463,4.0,1.0,phase_2,go,450.0,350.0,1.0,,,,,,,,,white,flipped triangle
0.0,4.0,4.0,0.0,5.0,5.0,492.0755540001664,4.0,1.0,phase_2,go,450.0,350.0,1.0,,,,,,,,,white,flipped triangle
0.0,8.0,4.0,1.0,6.0,6.0,433.7371530000382,4.0,1.0,phase_2,stop,450.0,350.0,3.0,,,,,,,,,orange,triangle
0.0,8.0,4.0,1.0,5.0,5.0,737.0904710001014,4.0,1.0,phase_2,go,450.0,300.0,1.0,,,,,,,,,orange,triangle
0.0,2.0,2.0,0.0,5.0,5.0,633.3445149998624,4.0,1.0,phase_2,go,450.0,300.0,1.0,,,,,,,,,gray,cross
0.0,8.0,4.0,1.0,5.0,5.0,554.6822399996927,4.0,1.0,phase_2,stop,450.0,300.0,3.0,,,,,,,,,orange,triangle
0.0,3.0,3.0,0.0,6.0,6.0,697.5793560000056,4.0,1.0,phase_2,go,400.0,300.0,1.0,,,,,,,,,cyan,I
0.0,8.0,4.0,1.0,6.0,6.0,737.2618710001007,4.0,1.0,phase_2,go,400.0,300.0,1.0,,,,,,,,,orange,triangle
0.0,7.0,3.0,1.0,6.0,0.0,0.0,4.0,1.0,phase_2,stop,400.0,300.0,4.0,,,,,,,,,yellow,hexagon
0.0,3.0,3.0,0.0,6.0,6.0,869.3706990002283,4.0,1.0,phase_2,go,400.0,350.0,1.0,,,,,,,,,cyan,I
0.0,8.0,4.0,1.0,5.0,5.0,508.6643270001332,4.0,1.0,phase_2,stop,400.0,350.0,3.0,,,,,,,,,orange,triangle
0.0,7.0,3.0,1.0,5.0,0.0,0.0,4.0,1.0,phase_2,stop,350.0,350.0,4.0,,,,,,,,,yellow,hexagon
0.0,7.0,3.0,1.0,6.0,0.0,0.0,4.0,1.0,phase_2,stop,400.0,350.0,4.0,,,,,,,,,yellow,hexagon
0.0,1.0,1.0,0.0,5.0,5.0,757.2628069997336,4.0,1.0,phase_2,go,400.0,400.0,1.0,,,,,,,,,green,square
0.0,3.0,3.0,0.0,6.0,6.0,547.2382759999164,4.0,1.0,phase_2,go,400.0,400.0,1.0,,,,,,,,,cyan,I
0.0,6.0,2.0,1.0,6.0,6.0,450.4761560001498,4.0,1.0,phase_2,go,400.0,400.0,1.0,,,,,,,,,magenta,diamond
0.0,7.0,3.0,1.0,6.0,6.0,420.0309190000553,4.0,1.0,phase_2,stop,400.0,400.0,3.0,,,,,,,,,yellow,hexagon
0.0,1.0,1.0,0.0,5.0,5.0,432.38963400017377,4.0,1.0,phase_2,go,400.0,350.0,1.0,,,,,,,,,green,square
0.0,5.0,1.0,1.0,6.0,6.0,328.6946440002793,4.0,1.0,phase_2,stop,400.0,350.0,3.0,,,,,,,,,blue,circle
0.0,6.0,2.0,1.0,5.0,5.0,488.1240520003302,4.0,1.0,phase_2,stop,400.0,300.0,3.0,,,,,,,,,magenta,diamond
0.0,8.0,4.0,1.0,6.0,0.0,0.0,4.0,1.0,phase_2,stop,350.0,300.0,4.0,,,,,,,,,orange,triangle
0.0,7.0,3.0,1.0,5.0,5.0,679.1336950000186,4.0,1.0,phase_2,go,350.0,350.0,1.0,,,,,,,,,yellow,hexagon
0.0,5.0,1.0,1.0,6.0,6.0,462.2126389999721,4.0,1.0,phase_2,stop,350.0,350.0,3.0,,,,,,,,,blue,circle
0.0,3.0,3.0,0.0,6.0,6.0,764.3737670000519,4.0,1.0,phase_2,go,350.0,300.0,1.0,,,,,,,,,cyan,I
0.0,8.0,4.0,1.0,6.0,6.0,412.8941609997127,4.0,1.0,phase_2,stop,350.0,300.0,3.0,,,,,,,,,orange,triangle
0.0,8.0,4.0,1.0,6.0,6.0,451.5531199999714,5.0,1.0,phase_2,stop,350.0,250.0,3.0,,,,,,,,,orange,triangle
0.0,1.0,1.0,0.0,5.0,5.0,354.2489980000027,5.0,1.0,phase_2,go,350.0,200.0,1.0,,,,,,,,,green,square
0.0,3.0,3.0,0.0,5.0,5.0,458.6750630001006,5.0,1.0,phase_2,go,350.0,200.0,1.0,,,,,,,,,cyan,I
0.0,4.0,4.0,0.0,5.0,5.0,489.6677179999642,5.0,1.0,phase_2,go,350.0,200.0,1.0,,,,,,,,,white,flipped triangle
0.0,1.0,1.0,0.0,5.0,5.0,433.6401499999738,5.0,1.0,phase_2,go,350.0,200.0,1.0,,,,,,,,,green,square
0.0,2.0,2.0,0.0,5.0,5.0,385.9734010002285,5.0,1.0,phase_2,go,350.0,200.0,1.0,,,,,,,,,gray,cross
0.0,7.0,3.0,1.0,5.0,5.0,511.8027059997985,5.0,1.0,phase_2,stop,350.0,200.0,3.0,,,,,,,,,yellow,hexagon
0.0,1.0,1.0,0.0,6.0,6.0,767.2152519999145,5.0,1.0,phase_2,go,300.0,200.0,1.0,,,,,,,,,green,square
0.0,6.0,2.0,1.0,6.0,0.0,0.0,5.0,1.0,phase_2,stop,300.0,200.0,4.0,,,,,,,,,magenta,diamond
0.0,2.0,2.0,0.0,6.0,6.0,719.5346619996599,5.0,1.0,phase_2,go,300.0,250.0,1.0,,,,,,,,,gray,cross
0.0,2.0,2.0,0.0,6.0,6.0,815.4318950000743,5.0,1.0,phase_2,go,300.0,250.0,1.0,,,,,,,,,gray,cross
0.0,6.0,2.0,1.0,5.0,5.0,428.8389250000364,5.0,1.0,phase_2,stop,300.0,250.0,3.0,,,,,,,,,magenta,diamond
0.0,8.0,4.0,1.0,5.0,0.0,0.0,5.0,1.0,phase_2,stop,250.0,250.0,4.0,,,,,,,,,orange,triangle
0.0,8.0,4.0,1.0,5.0,0.0,0.0,5.0,1.0,phase_2,stop,300.0,250.0,4.0,,,,,,,,,orange,triangle
0.0,2.0,2.0,0.0,6.0,6.0,547.526401000141,5.0,1.0,phase_2,go,350.0,250.0,1.0,,,,,,,,,gray,cross
0.0,4.0,4.0,0.0,6.0,6.0,603.5830749997331,5.0,1.0,phase_2,go,350.0,250.0,1.0,,,,,,,,,white,flipped triangle
0.0,2.0,2.0,0.0,5.0,5.0,745.1390669998545,5.0,1.0,phase_2,go,350.0,250.0,1.0,,,,,,,,,gray,cross
0.0,8.0,4.0,1.0,6.0,6.0,594.8321020000549,5.0,1.0,phase_2,go,350.0,250.0,1.0,,,,,,,,,orange,triangle
0.0,2.0,2.0,0.0,5.0,5.0,474.0307999995821,5.0,1.0,phase_2,go,350.0,250.0,1.0,,,,,,,,,gray,cross
0.0,4.0,4.0,0.0,6.0,6.0,361.4615369997409,5.0,1.0,phase_2,go,350.0,250.0,1.0,,,,,,,,,white,flipped triangle
0.0,3.0,3.0,0.0,6.0,6.0,343.5266290002801,5.0,1.0,phase_2,go,350.0,250.0,1.0,,,,,,,,,cyan,I
0.0,7.0,3.0,1.0,5.0,5.0,502.5560700000824,5.0,1.0,phase_2,stop,350.0,250.0,3.0,,,,,,,,,yellow,hexagon
0.0,5.0,1.0,1.0,6.0,0.0,0.0,5.0,1.0,phase_2,stop,300.0,250.0,4.0,,,,,,,,,blue,circle
0.0,4.0,4.0,0.0,6.0,6.0,639.0863630003878,5.0,1.0,phase_2,go,300.0,300.0,1.0,,,,,,,,,white,flipped triangle
0.0,7.0,3.0,1.0,6.0,0.0,0.0,5.0,1.0,phase_2,stop,300.0,300.0,4.0,,,,,,,,,yellow,hexagon
0.0,4.0,4.0,0.0,5.0,5.0,596.1864240002797,5.0,1.0,phase_2,go,300.0,350.0,1.0,,,,,,,,,white,flipped triangle
0.0,4.0,4.0,0.0,5.0,5.0,691.0681210001712,5.0,1.0,phase_2,go,300.0,350.0,1.0,,,,,,,,,white,flipped triangle
0.0,7.0,3.0,1.0,6.0,0.0,0.0,5.0,1.0,phase_2,stop,300.0,350.0,4.0,,,,,,,,,yellow,hexagon
0.0,1.0,1.0,0.0,5.0,5.0,627.933664000011,5.0,1.0,phase_2,go,300.0,400.0,1.0,,,,,,,,,green,square
0.0,8.0,4.0,1.0,5.0,0.0,0.0,5.0,1.0,phase_2,stop,300.0,400.0,4.0,,,,,,,,,orange,triangle
0.0,7.0,3.0,1.0,5.0,0.0,0.0,5.0,1.0,phase_2,stop,350.0,400.0,4.0,,,,,,,,,yellow,hexagon
0.0,5.0,1.0,1.0,5.0,0.0,0.0,5.0,1.0,phase_2,stop,400.0,400.0,4.0,,,,,,,,,blue,circle
0.0,2.0,2.0,0.0,5.0,5.0,792.1063919998232,5.0,1.0,phase_2,go,450.0,400.0,1.0,,,,,,,,,gray,cross
0.0,2.0,2.0,0.0,5.0,5.0,503.31221399983406,5.0,1.0,phase_2,go,450.0,400.0,1.0,,,,,,,,,gray,cross
0.0,4.0,4.0,0.0,6.0,6.0,494.22320099984057,5.0,1.0,phase_2,go,450.0,400.0,1.0,,,,,,,,,white,flipped triangle
0.0,5.0,1.0,1.0,5.0,5.0,494.5839919996615,5.0,1.0,phase_2,stop,450.0,400.0,3.0,,,,,,,,,blue,circle
0.0,7.0,3.0,1.0,5.0,5.0,433.6096030001499,6.0,1.0,phase_2,stop,400.0,400.0,3.0,,,,,,,,,yellow,hexagon
0.0,2.0,2.0,0.0,6.0,6.0,551.7884519999825,6.0,1.0,phase_2,go,350.0,400.0,1.0,,,,,,,,,gray,cross
0.0,1.0,1.0,0.0,6.0,6.0,416.8276240002342,6.0,1.0,phase_2,go,350.0,400.0,1.0,,,,,,,,,green,square
0.0,5.0,1.0,1.0,5.0,5.0,328.5120360001201,6.0,1.0,phase_2,stop,350.0,400.0,3.0,,,,,,,,,blue,circle
0.0,1.0,1.0,0.0,6.0,6.0,430.5460180003138,6.0,1.0,phase_2,go,300.0,400.0,1.0,,,,,,,,,green,square
0.0,2.0,2.0,0.0,6.0,6.0,421.1357020003561,6.0,1.0,phase_2,go,300.0,400.0,1.0,,,,,,,,,gray,cross
0.0,2.0,2.0,0.0,5.0,5.0,492.9503849998582,6.0,1.0,phase_2,go,300.0,400.0,1.0,,,,,,,,,gray,cross
0.0,8.0,4.0,1.0,6.0,6.0,502.1812360000695,6.0,1.0,phase_2,stop,300.0,400.0,3.0,,,,,,,,,orange,triangle
0.0,4.0,4.0,0.0,6.0,6.0,604.3092079999042,6.0,1.0,phase_2,go,300.0,350.0,1.0,,,,,,,,,white,flipped triangle
0.0,2.0,2.0,0.0,5.0,5.0,539.2370690001371,6.0,1.0,phase_2,go,300.0,350.0,1.0,,,,,,,,,gray,cross
0.0,1.0,1.0,0.0,6.0,6.0,561.717198000224,6.0,1.0,phase_2,go,300.0,350.0,1.0,,,,,,,,,green,square
0.0,8.0,4.0,1.0,6.0,6.0,370.2815890001147,6.0,1.0,phase_2,go,300.0,350.0,1.0,,,,,,,,,orange,triangle
0.0,1.0,1.0,0.0,6.0,6.0,499.1335509998862,6.0,1.0,phase_2,go,300.0,350.0,1.0,,,,,,,,,green,square
0.0,3.0,3.0,0.0,6.0,6.0,417.4132459997963,6.0,1.0,phase_2,go,300.0,350.0,1.0,,,,,,,,,cyan,I
0.0,3.0,3.0,0.0,6.0,6.0,712.1881160001067,6.0,1.0,phase_2,go,300.0,350.0,1.0,,,,,,,,,cyan,I
0.0,5.0,1.0,1.0,5.0,5.0,486.7316569998365,6.0,1.0,phase_2,stop,300.0,350.0,3.0,,,,,,,,,blue,circle
0.0,6.0,2.0,1.0,6.0,0.0,0.0,6.0,1.0,phase_2,stop,250.0,350.0,4.0,,,,,,,,,magenta,diamond
0.0,7.0,3.0,1.0,6.0,6.0,775.9767050001756,6.0,1.0,phase_2,go,250.0,400.0,1.0,,,,,,,,,yellow,hexagon
0.0,8.0,4.0,1.0,5.0,0.0,0.0,6.0,1.0,phase_2,stop,250.0,400.0,4.0,,,,,,,,,orange,triangle
0.0,7.0,3.0,1.0,6.0,6.0,548.8119080000615,6.0,1.0,phase_2,stop,300.0,400.0,3.0,,,,,,,,,yellow,hexagon
0.0,3.0,3.0,0.0,6.0,6.0,700.8200350001061,6.0,1.0,phase_2,go,300.0,350.0,1.0,,,,,,,,,cyan,I
0.0,3.0,3.0,0.0,6.0,6.0,595.5305430002227,6.0,1.0,phase_2,go,300.0,350.0,1.0,,,,,,,,,cyan,I
0.0,4.0,4.0,0.0,6.0,6.0,674.1449509995618,6.0,1.0,phase_2,go,300.0,350.0,1.0,,,,,,,,,white,flipped triangle
0.0,1.0,1.0,0.0,6.0,6.0,722.5425149999865,6.0,1.0,phase_2,go,300.0,350.0,1.0,,,,,,,,,green,square
0.0,3.0,3.0,0.0,6.0,6.0,451.655765000396,6.0,1.0,phase_2,go,300.0,350.0,1.0,,,,,,,,,cyan,I
0.0,6.0,2.0,1.0,5.0,0.0,0.0,6.0,1.0,phase_2,stop,300.0,350.0,4.0,,,,,,,,,magenta,diamond
0.0,2.0,2.0,0.0,5.0,5.0,688.6929779998354,6.0,1.0,phase_2,go,350.0,350.0,1.0,,,,,,,,,gray,cross
0.0,2.0,2.0,0.0,5.0,5.0,513.5913720000644,6.0,1.0,phase_2,go,350.0,350.0,1.0,,,,,,,,,gray,cross
0.0,1.0,1.0,0.0,6.0,6.0,519.6818199997324,6.0,1.0,phase_2,go,350.0,350.0,1.0,,,,,,,,,green,square
0.0,6.0,2.0,1.0,6.0,6.0,367.8066200000103,6.0,1.0,phase_2,stop,350.0,350.0,3.0,,,,,,,,,magenta,diamond
0.0,3.0,3.0,0.0,5.0,5.0,686.328119999871,6.0,1.0,phase_2,go,350.0,300.0,1.0,,,,,,,,,cyan,I
0.0,4.0,4.0,0.0,5.0,5.0,550.8186920001208,6.0,1.0,phase_2,go,350.0,300.0,1.0,,,,,,,,,white,flipped triangle
0.0,3.0,3.0,0.0,5.0,5.0,444.3505599997479,6.0,1.0,phase_2,go,350.0,300.0,1.0,,,,,,,,,cyan,I
0.0,2.0,2.0,0.0,5.0,5.0,500.2771560002657,6.0,1.0,phase_2,go,350.0,300.0,1.0,,,,,,,,,gray,cross
0.0,6.0,2.0,1.0,5.0,5.0,386.9143289998646,6.0,1.0,phase_2,stop,350.0,300.0,3.0,,,,,,,,,magenta,diamond
0.0,8.0,4.0,1.0,6.0,6.0,668.7242490002063,6.0,1.0,phase_2,go,300.0,300.0,1.0,,,,,,,,,orange,triangle
0.0,6.0,2.0,1.0,5.0,5.0,641.8758219997471,7.0,1.0,phase_2,go,300.0,300.0,1.0,,,,,,,,,magenta,diamond
0.0,4.0,4.0,0.0,5.0,5.0,385.6361999996807,7.0,1.0,phase_2,go,300.0,300.0,1.0,,,,,,,,,white,flipped triangle
0.0,5.0,1.0,1.0,6.0,6.0,322.6179889998093,7.0,1.0,phase_2,stop,300.0,300.0,3.0,,,,,,,,,blue,circle
0.0,8.0,4.0,1.0,5.0,5.0,440.2534490000107,7.0,1.0,phase_2,stop,300.0,250.0,3.0,,,,,,,,,orange,triangle
0.0,5.0,1.0,1.0,5.0,5.0,480.7015810001758,7.0,1.0,phase_2,go,250.0,250.0,1.0,,,,,,,,,blue,circle
0.0,8.0,4.0,1.0,5.0,5.0,1032.9132759998174,7.0,1.0,phase_2,stop,250.0,250.0,3.0,,,,,,,,,orange,triangle
0.0,4.0,4.0,0.0,6.0,6.0,576.3378790002207,7.0,1.0,phase_2,go,200.0,250.0,1.0,,,,,,,,,white,flipped triangle
0.0,6.0,2.0,1.0,6.0,6.0,567.6603590000013,7.0,1.0,phase_2,go,200.0,250.0,1.0,,,,,,,,,magenta,diamond
0.0,4.0,4.0,0.0,5.0,5.0,565.8234370002901,7.0,1.0,phase_2,go,200.0,250.0,1.0,,,,,,,,,white,flipped triangle
0.0,4.0,4.0,0.0,6.0,6.0,428.52822099985127,7.0,1.0,phase_2,go,200.0,250.0,1.0,,,,,,,,,white,flipped triangle
0.0,2.0,2.0,0.0,6.0,6.0,341.9128499999715,7.0,1.0,phase_2,go,200.0,250.0,1.0,,,,,,,,,gray,cross
0.0,1.0,1.0,0.0,5.0,5.0,627.8392569997777,7.0,1.0,phase_2,go,200.0,250.0,1.0,,,,,,,,,green,square
0.0,8.0,4.0,1.0,5.0,0.0,0.0,7.0,1.0,phase_2,stop,200.0,250.0,4.0,,,,,,,,,orange,triangle
0.0,3.0,3.0,0.0,5.0,5.0,667.7818800003479,7.0,1.0,phase_2,go,250.0,250.0,1.0,,,,,,,,,cyan,I
0.0,2.0,2.0,0.0,6.0,6.0,521.6153050000685,7.0,1.0,phase_2,go,250.0,250.0,1.0,,,,,,,,,gray,cross
0.0,3.0,3.0,0.0,6.0,6.0,377.0153929999651,7.0,1.0,phase_2,go,250.0,250.0,1.0,,,,,,,,,cyan,I
0.0,5.0,1.0,1.0,6.0,0.0,0.0,7.0,1.0,phase_2,stop,250.0,250.0,4.0,,,,,,,,,blue,circle
0.0,5.0,1.0,1.0,5.0,0.0,0.0,7.0,1.0,phase_2,stop,250.0,300.0,4.0,,,,,,,,,blue,circle
0.0,7.0,3.0,1.0,6.0,6.0,695.5341170000793,7.0,1.0,phase_2,go,300.0,300.0,1.0,,,,,,,,,yellow,hexagon
0.0,2.0,2.0,0.0,6.0,6.0,574.4169139998121,7.0,1.0,phase_2,go,300.0,300.0,1.0,,,,,,,,,gray,cross
0.0,2.0,2.0,0.0,5.0,5.0,583.2841440001175,7.0,1.0,phase_2,go,300.0,300.0,1.0,,,,,,,,,gray,cross
0.0,2.0,2.0,0.0,6.0,6.0,364.8863280000114,7.0,1.0,phase_2,go,300.0,300.0,1.0,,,,,,,,,gray,cross
0.0,3.0,3.0,0.0,6.0,6.0,469.1979369999899,7.0,1.0,phase_2,go,300.0,300.0,1.0,,,,,,,,,cyan,I
0.0,1.0,1.0,0.0,6.0,6.0,515.9992710000552,7.0,1.0,phase_2,go,300.0,300.0,1.0,,,,,,,,,green,square
0.0,4.0,4.0,0.0,5.0,5.0,515.4477409996616,7.0,1.0,phase_2,go,300.0,300.0,1.0,,,,,,,,,white,flipped triangle
0.0,3.0,3.0,0.0,6.0,6.0,364.2307699997218,7.0,1.0,phase_2,go,300.0,300.0,1.0,,,,,,,,,cyan,I
0.0,5.0,1.0,1.0,6.0,6.0,426.1250590002419,7.0,1.0,phase_2,stop,300.0,300.0,3.0,,,,,,,,,blue,circle
0.0,7.0,3.0,1.0,5.0,5.0,529.7714650000671,7.0,1.0,phase_2,go,300.0,250.0,1.0,,,,,,,,,yellow,hexagon
0.0,1.0,1.0,0.0,5.0,5.0,576.9385700000385,7.0,1.0,phase_2,go,300.0,250.0,1.0,,,,,,,,,green,square
0.0,7.0,3.0,1.0,5.0,0.0,0.0,7.0,1.0,phase_2,stop,300.0,250.0,4.0,,,,,,,,,yellow,hexagon
0.0,3.0,3.0,0.0,6.0,6.0,343.5894580002241,7.0,1.0,phase_2,go,350.0,250.0,1.0,,,,,,,,,cyan,I
0.0,8.0,4.0,1.0,6.0,0.0,0.0,7.0,1.0,phase_2,stop,350.0,250.0,4.0,,,,,,,,,orange,triangle
0.0,4.0,4.0,0.0,6.0,6.0,534.7437280001941,7.0,1.0,phase_2,go,350.0,300.0,1.0,,,,,,,,,white,flipped triangle
0.0,2.0,2.0,0.0,6.0,6.0,437.7251089999845,7.0,1.0,phase_2,go,350.0,300.0,1.0,,,,,,,,,gray,cross
0.0,6.0,2.0,1.0,5.0,5.0,661.1295409998093,7.0,1.0,phase_2,go,350.0,300.0,1.0,,,,,,,,,magenta,diamond
0.0,6.0,2.0,1.0,6.0,6.0,334.3724999999722,7.0,1.0,phase_2,go,350.0,300.0,1.0,,,,,,,,,magenta,diamond
0.0,8.0,4.0,1.0,6.0,6.0,452.6699929997448,8.0,1.0,phase_2,stop,350.0,300.0,3.0,,,,,,,,,orange,triangle
0.0,1.0,1.0,0.0,5.0,5.0,402.3904229998152,8.0,1.0,phase_2,go,350.0,250.0,1.0,,,,,,,,,green,square
0.0,5.0,1.0,1.0,6.0,0.0,0.0,8.0,1.0,phase_2,stop,350.0,250.0,4.0,,,,,,,,,blue,circle
0.0,6.0,2.0,1.0,6.0,0.0,0.0,8.0,1.0,phase_2,stop,350.0,300.0,4.0,,,,,,,,,magenta,diamond
0.0,5.0,1.0,1.0,5.0,5.0,393.9106130001164,8.0,1.0,phase_2,stop,350.0,350.0,3.0,,,,,,,,,blue,circle
0.0,5.0,1.0,1.0,5.0,5.0,641.1190409999108,8.0,1.0,phase_2,go,300.0,350.0,1.0,,,,,,,,,blue,circle
0.0,6.0,2.0,1.0,6.0,6.0,407.0052510001005,8.0,1.0,phase_2,stop,300.0,350.0,3.0,,,,,,,,,magenta,diamond
0.0,5.0,1.0,1.0,5.0,0.0,0.0,8.0,1.0,phase_2,stop,300.0,300.0,4.0,,,,,,,,,blue,circle
0.0,7.0,3.0,1.0,6.0,6.0,430.2020800000719,8.0,1.0,phase_2,stop,350.0,300.0,3.0,,,,,,,,,yellow,hexagon
0.0,2.0,2.0,0.0,5.0,5.0,685.774992000006,8.0,1.0,phase_2,go,350.0,250.0,1.0,,,,,,,,,gray,cross
0.0,2.0,2.0,0.0,5.0,5.0,564.6909490001235,8.0,1.0,phase_2,go,350.0,250.0,1.0,,,,,,,,,gray,cross
0.0,6.0,2.0,1.0,6.0,0.0,0.0,8.0,1.0,phase_2,stop,350.0,250.0,4.0,,,,,,,,,magenta,diamond
0.0,3.0,3.0,0.0,5.0,5.0,621.0110030001488,8.0,1.0,phase_2,go,350.0,300.0,1.0,,,,,,,,,cyan,I
0.0,4.0,4.0,0.0,5.0,5.0,658.2589120002922,8.0,1.0,phase_2,go,350.0,300.0,1.0,,,,,,,,,white,flipped triangle
0.0,6.0,2.0,1.0,5.0,5.0,497.7088030000232,8.0,1.0,phase_2,stop,350.0,300.0,3.0,,,,,,,,,magenta,diamond
0.0,5.0,1.0,1.0,6.0,0.0,0.0,8.0,1.0,phase_2,stop,300.0,300.0,4.0,,,,,,,,,blue,circle
0.0,6.0,2.0,1.0,6.0,0.0,0.0,8.0,1.0,phase_2,stop,300.0,350.0,4.0,,,,,,,,,magenta,diamond
0.0,4.0,4.0,0.0,6.0,6.0,680.4802779997772,8.0,1.0,phase_2,go,300.0,400.0,1.0,,,,,,,,,white,flipped triangle
0.0,7.0,3.0,1.0,5.0,0.0,0.0,8.0,1.0,phase_2,stop,300.0,400.0,4.0,,,,,,,,,yellow,hexagon
0.0,3.0,3.0,0.0,5.0,5.0,800.299277999784,8.0,1.0,phase_2,go,350.0,400.0,1.0,,,,,,,,,cyan,I
0.0,4.0,4.0,0.0,6.0,6.0,606.5156399999978,8.0,1.0,phase_2,go,350.0,400.0,1.0,,,,,,,,,white,flipped triangle
0.0,1.0,1.0,0.0,6.0,6.0,501.2671849999606,8.0,1.0,phase_2,go,350.0,400.0,1.0,,,,,,,,,green,square
0.0,6.0,2.0,1.0,5.0,5.0,493.2377810000616,8.0,1.0,phase_2,go,350.0,400.0,1.0,,,,,,,,,magenta,diamond
0.0,6.0,2.0,1.0,5.0,0.0,0.0,8.0,1.0,phase_2,stop,350.0,400.0,4.0,,,,,,,,,magenta,diamond
0.0,3.0,3.0,0.0,5.0,5.0,708.6502709998967,8.0,1.0,phase_2,go,400.0,400.0,1.0,,,,,,,,,cyan,I
0.0,7.0,3.0,1.0,6.0,6.0,555.1188399999774,8.0,1.0,phase_2,stop,400.0,400.0,3.0,,,,,,,,,yellow,hexagon
0.0,5.0,1.0,1.0,6.0,0.0,0.0,8.0,1.0,phase_2,stop,400.0,350.0,4.0,,,,,,,,,blue,circle
0.0,3.0,3.0,0.0,5.0,5.0,690.5389079997803,8.0,1.0,phase_2,go,400.0,400.0,1.0,,,,,,,,,cyan,I
0.0,7.0,3.0,1.0,6.0,6.0,539.5225749998644,8.0,1.0,phase_2,stop,400.0,400.0,3.0,,,,,,,,,yellow,hexagon
0.0,6.0,2.0,1.0,6.0,0.0,0.0,8.0,1.0,phase_2,stop,400.0,350.0,4.0,,,,,,,,,magenta,diamond
0.0,3.0,3.0,0.0,5.0,5.0,704.3654900003276,8.0,1.0,phase_2,go,400.0,400.0,1.0,,,,,,,,,cyan,I
0.0,5.0,1.0,1.0,5.0,0.0,0.0,8.0,1.0,phase_2,stop,400.0,400.0,4.0,,,,,,,,,blue,circle
0.0,7.0,3.0,1.0,6.0,0.0,0.0,8.0,1.0,phase_2,stop,450.0,400.0,4.0,,,,,,,,,yellow,hexagon
0.0,1.0,1.0,0.0,6.0,6.0,751.8164109997088,8.0,1.0,phase_2,go,450.0,450.0,1.0,,,,,,,,,green,square
0.0,4.0,4.0,0.0,5.0,5.0,566.302018999977,8.0,1.0,phase_2,go,450.0,450.0,1.0,,,,,,,,,white,flipped triangle
0.0,2.0,2.0,0.0,6.0,6.0,430.8146789999227,8.0,1.0,phase_2,go,450.0,450.0,1.0,,,,,,,,,gray,cross
0.0,3.0,3.0,0.0,7.0,5.0,1621.7023229996812,1.0,1.0,phase_3,,,,,116.0,1.0,696.0,464.0,232.0,348.0,116.0,580.0,cyan,I
0.0,2.0,2.0,0.0,7.0,6.0,2929.008169000099,1.0,1.0,phase_3,,,,,462.0,3.0,154.0,924.0,308.0,770.0,616.0,462.0,gray,cross
0.0,4.0,4.0,0.0,7.0,1.0,3602.588047000154,1.0,1.0,phase_3,,,,,675.0,5.0,675.0,405.0,270.0,135.0,540.0,810.0,white,flipped triangle
0.0,5.0,1.0,1.0,7.0,5.0,3122.106139999687,1.0,1.0,phase_3,,,,,173.0,1.0,865.0,346.0,519.0,1038.0,173.0,692.0,blue,circle
0.0,7.0,3.0,1.0,7.0,3.0,1987.9313729998105,1.0,1.0,phase_3,,,,,576.0,3.0,1152.0,384.0,576.0,768.0,192.0,960.0,yellow,hexagon
0.0,6.0,2.0,1.0,7.0,4.0,2359.8953830000937,1.0,1.0,phase_3,,,,,1038.0,6.0,346.0,865.0,692.0,1038.0,519.0,173.0,magenta,diamond
0.0,5.0,1.0,1.0,7.0,2.0,1462.9019489998427,1.0,1.0,phase_3,,,,,173.0,1.0,692.0,173.0,1038.0,865.0,346.0,519.0,blue,circle
0.0,4.0,4.0,0.0,7.0,3.0,1415.6293299997742,1.0,1.0,phase_3,,,,,1152.0,6.0,768.0,192.0,1152.0,960.0,384.0,576.0,white,flipped triangle
0.0,3.0,3.0,0.0,7.0,1.0,2345.9025269999074,1.0,1.0,phase_3,,,,,346.0,2.0,346.0,692.0,1038.0,173.0,519.0,865.0,cyan,I
0.0,7.0,3.0,1.0,7.0,5.0,1308.2345930001793,1.0,1.0,phase_3,,,,,192.0,1.0,1152.0,384.0,576.0,960.0,192.0,768.0,yellow,hexagon
0.0,2.0,2.0,0.0,7.0,2.0,756.5515909996066,1.0,1.0,phase_3,,,,,1038.0,6.0,519.0,1038.0,346.0,173.0,865.0,692.0,gray,cross
0.0,6.0,2.0,1.0,7.0,5.0,2023.2215609998998,1.0,1.0,phase_3,,,,,696.0,6.0,464.0,348.0,232.0,116.0,696.0,580.0,magenta,diamond
0.0,7.0,3.0,1.0,7.0,6.0,1718.070808000448,1.0,1.0,phase_3,,,,,232.0,2.0,464.0,348.0,116.0,580.0,696.0,232.0,yellow,hexagon
0.0,7.0,3.0,1.0,7.0,2.0,2678.3761659999072,1.0,1.0,phase_3,,,,,346.0,2.0,173.0,346.0,1038.0,692.0,865.0,519.0,yellow,hexagon
0.0,4.0,4.0,0.0,7.0,3.0,952.2925020000912,1.0,1.0,phase_3,,,,,192.0,1.0,960.0,768.0,192.0,1152.0,384.0,576.0,white,flipped triangle
0.0,8.0,4.0,1.0,7.0,6.0,922.6404060000276,1.0,1.0,phase_3,,,,,308.0,2.0,462.0,154.0,770.0,616.0,924.0,308.0,orange,triangle
0.0,7.0,3.0,1.0,7.0,5.0,972.5081040000988,1.0,1.0,phase_3,,,,,464.0,4.0,348.0,580.0,696.0,232.0,464.0,116.0,yellow,hexagon
0.0,1.0,1.0,0.0,7.0,2.0,1142.1451989999696,1.0,1.0,phase_3,,,,,924.0,6.0,154.0,924.0,770.0,616.0,462.0,308.0,green,square
0.0,1.0,1.0,0.0,7.0,3.0,717.4150439996083,1.0,1.0,phase_3,,,,,308.0,2.0,770.0,462.0,308.0,616.0,154.0,924.0,green,square
0.0,4.0,4.0,0.0,7.0,4.0,582.4462069999754,1.0,1.0,phase_3,,,,,462.0,3.0,616.0,770.0,154.0,462.0,924.0,308.0,white,flipped triangle
0.0,6.0,2.0,1.0,7.0,2.0,553.7637200000063,2.0,1.0,phase_3,,,,,464.0,4.0,696.0,464.0,580.0,348.0,116.0,232.0,magenta,diamond
0.0,6.0,2.0,1.0,7.0,6.0,458.2303540000794,2.0,1.0,phase_3,,,,,1038.0,6.0,692.0,519.0,173.0,346.0,865.0,1038.0,magenta,diamond
0.0,2.0,2.0,0.0,7.0,5.0,393.4583410000414,2.0,1.0,phase_3,,,,,692.0,4.0,519.0,346.0,173.0,1038.0,692.0,865.0,gray,cross
0.0,3.0,3.0,0.0,7.0,6.0,1547.7983840000888,2.0,1.0,phase_3,,,,,135.0,1.0,675.0,405.0,540.0,270.0,810.0,135.0,cyan,I
0.0,5.0,1.0,1.0,7.0,5.0,2326.752895000027,2.0,1.0,phase_3,,,,,154.0,1.0,770.0,924.0,308.0,462.0,154.0,616.0,blue,circle
0.0,3.0,3.0,0.0,7.0,2.0,1653.19184100008,2.0,1.0,phase_3,,,,,135.0,1.0,270.0,135.0,810.0,675.0,405.0,540.0,cyan,I
0.0,4.0,4.0,0.0,7.0,5.0,1230.5604049997785,2.0,1.0,phase_3,,,,,348.0,3.0,232.0,464.0,116.0,580.0,348.0,696.0,white,flipped triangle
0.0,2.0,2.0,0.0,7.0,5.0,417.5120469999456,2.0,1.0,phase_3,,,,,116.0,1.0,232.0,348.0,464.0,580.0,116.0,696.0,gray,cross
0.0,7.0,3.0,1.0,7.0,2.0,361.0997299997507,2.0,1.0,phase_3,,,,,540.0,4.0,270.0,540.0,675.0,405.0,135.0,810.0,yellow,hexagon
0.0,8.0,4.0,1.0,7.0,3.0,362.2332390000338,2.0,1.0,phase_3,,,,,116.0,1.0,464.0,348.0,116.0,232.0,580.0,696.0,orange,triangle
0.0,8.0,4.0,1.0,7.0,6.0,475.5819690003591,2.0,1.0,phase_3,,,,,696.0,6.0,348.0,232.0,464.0,580.0,116.0,696.0,orange,triangle
0.0,8.0,4.0,1.0,7.0,5.0,423.1321259999276,2.0,1.0,phase_3,,,,,519.0,3.0,173.0,346.0,1038.0,692.0,519.0,865.0,orange,triangle
0.0,8.0,4.0,1.0,7.0,2.0,392.8945120001117,2.0,1.0,phase_3,,,,,768.0,4.0,960.0,768.0,384.0,576.0,192.0,1152.0,orange,triangle
0.0,2.0,2.0,0.0,7.0,5.0,457.8983560004417,2.0,1.0,phase_3,,,,,192.0,1.0,576.0,384.0,768.0,960.0,192.0,1152.0,gray,cross
0.0,8.0,4.0,1.0,7.0,3.0,466.7674269999224,2.0,1.0,phase_3,,,,,173.0,1.0,692.0,346.0,173.0,865.0,1038.0,519.0,orange,triangle
0.0,3.0,3.0,0.0,7.0,2.0,1346.552673000133,2.0,1.0,phase_3,,,,,462.0,3.0,770.0,462.0,154.0,616.0,924.0,308.0,cyan,I
0.0,2.0,2.0,0.0,7.0,5.0,2547.7358500002083,2.0,1.0,phase_3,,,,,135.0,1.0,675.0,405.0,270.0,810.0,135.0,540.0,gray,cross
0.0,2.0,2.0,0.0,7.0,3.0,2004.9816709997685,2.0,1.0,phase_3,,,,,810.0,6.0,270.0,540.0,810.0,675.0,405.0,135.0,gray,cross
0.0,8.0,4.0,1.0,7.0,5.0,943.5677460000989,2.0,1.0,phase_3,,,,,270.0,2.0,135.0,675.0,810.0,405.0,270.0,540.0,orange,triangle
0.0,7.0,3.0,1.0,7.0,4.0,478.4950539997226,2.0,1.0,phase_3,,,,,405.0,3.0,675.0,135.0,270.0,405.0,540.0,810.0,yellow,hexagon
0.0,4.0,4.0,0.0,7.0,5.0,327.7391019996685,3.0,1.0,phase_3,,,,,348.0,3.0,464.0,580.0,232.0,116.0,348.0,696.0,white,flipped triangle
0.0,6.0,2.0,1.0,7.0,2.0,362.1205350000309,3.0,1.0,phase_3,,,,,576.0,3.0,768.0,576.0,192.0,384.0,1152.0,960.0,magenta,diamond
0.0,1.0,1.0,0.0,7.0,5.0,434.6666820001701,3.0,1.0,phase_3,,,,,135.0,1.0,675.0,810.0,405.0,540.0,135.0,270.0,green,square
0.0,1.0,1.0,0.0,7.0,4.0,550.8114849999401,3.0,1.0,phase_3,,,,,540.0,4.0,270.0,135.0,405.0,540.0,675.0,810.0,green,square
0.0,7.0,3.0,1.0,7.0,2.0,405.06884000024,3.0,1.0,phase_3,,,,,462.0,3.0,770.0,462.0,308.0,154.0,616.0,924.0,yellow,hexagon
0.0,8.0,4.0,1.0,7.0,5.0,318.9253900000039,3.0,1.0,phase_3,,,,,1152.0,6.0,960.0,384.0,576.0,768.0,1152.0,192.0,orange,triangle
0.0,5.0,1.0,1.0,7.0,5.0,311.8066099996213,3.0,1.0,phase_3,,,,,405.0,3.0,270.0,135.0,810.0,540.0,405.0,675.0,blue,circle
0.0,1.0,1.0,0.0,7.0,6.0,259.1041260002384,3.0,1.0,phase_3,,,,,192.0,1.0,960.0,768.0,384.0,576.0,1152.0,192.0,green,square
0.0,4.0,4.0,0.0,7.0,4.0,338.9624270002969,3.0,1.0,phase_3,,,,,405.0,3.0,270.0,675.0,810.0,405.0,135.0,540.0,white,flipped triangle
0.0,1.0,1.0,0.0,7.0,2.0,324.2346429997269,3.0,1.0,phase_3,,,,,116.0,1.0,580.0,116.0,348.0,232.0,696.0,464.0,green,square
0.0,1.0,1.0,0.0,7.0,5.0,399.7800039996946,3.0,1.0,phase_3,,,,,1152.0,6.0,192.0,768.0,576.0,384.0,1152.0,960.0,green,square
0.0,6.0,2.0,1.0,7.0,1.0,966.397915000016,3.0,1.0,phase_3,,,,,770.0,5.0,770.0,154.0,924.0,616.0,308.0,462.0,magenta,diamond
0.0,5.0,1.0,1.0,7.0,2.0,1063.4991760002777,3.0,1.0,phase_3,,,,,770.0,5.0,462.0,770.0,616.0,308.0,154.0,924.0,blue,circle
0.0,5.0,1.0,1.0,7.0,5.0,824.7967449997304,3.0,1.0,phase_3,,,,,960.0,5.0,1152.0,384.0,768.0,576.0,960.0,192.0,blue,circle
0.0,1.0,1.0,0.0,7.0,4.0,546.2902889998986,3.0,1.0,phase_3,,,,,580.0,5.0,232.0,696.0,116.0,580.0,348.0,464.0,green,square
0.0,7.0,3.0,1.0,7.0,6.0,421.3400210001055,3.0,1.0,phase_3,,,,,1038.0,6.0,865.0,346.0,692.0,519.0,173.0,1038.0,yellow,hexagon
0.0,3.0,3.0,0.0,7.0,2.0,1103.1250370001544,3.0,1.0,phase_3,,,,,924.0,6.0,308.0,924.0,770.0,462.0,154.0,616.0,cyan,I
0.0,3.0,3.0,0.0,7.0,2.0,886.1795270004222,3.0,1.0,phase_3,,,,,519.0,3.0,692.0,519.0,1038.0,346.0,173.0,865.0,cyan,I
0.0,8.0,4.0,1.0,7.0,5.0,352.7129849999255,3.0,1.0,phase_3,,,,,135.0,1.0,405.0,270.0,810.0,675.0,135.0,540.0,orange,triangle
0.0,8.0,4.0,1.0,7.0,4.0,377.7567960000851,3.0,1.0,phase_3,,,,,924.0,6.0,462.0,154.0,308.0,924.0,770.0,616.0,orange,triangle
0.0,5.0,1.0,1.0,7.0,5.0,330.0481109999964,4.0,1.0,phase_3,,,,,696.0,6.0,464.0,348.0,116.0,580.0,696.0,232.0,blue,circle
0.0,4.0,4.0,0.0,7.0,2.0,333.6165360001359,4.0,1.0,phase_3,,,,,346.0,2.0,519.0,346.0,173.0,1038.0,865.0,692.0,white,flipped triangle
0.0,4.0,4.0,0.0,7.0,6.0,347.6896890001626,4.0,1.0,phase_3,,,,,616.0,4.0,770.0,924.0,462.0,308.0,154.0,616.0,white,flipped triangle
0.0,3.0,3.0,0.0,7.0,2.0,404.6418510001786,4.0,1.0,phase_3,,,,,192.0,1.0,576.0,192.0,1152.0,960.0,384.0,768.0,cyan,I
0.0,1.0,1.0,0.0,7.0,6.0,415.1192750000518,4.0,1.0,phase_3,,,,,519.0,3.0,1038.0,692.0,173.0,346.0,865.0,519.0,green,square
0.0,6.0,2.0,1.0,7.0,4.0,448.6567230001128,4.0,1.0,phase_3,,,,,192.0,1.0,960.0,1152.0,768.0,192.0,576.0,384.0,magenta,diamond
0.0,5.0,1.0,1.0,7.0,2.0,490.5363719999513,4.0,1.0,phase_3,,,,,348.0,3.0,464.0,348.0,232.0,696.0,116.0,580.0,blue,circle
0.0,7.0,3.0,1.0,7.0,3.0,1196.8755220000276,4.0,1.0,phase_3,,,,,770.0,5.0,308.0,616.0,770.0,154.0,924.0,462.0,yellow,hexagon
0.0,6.0,2.0,1.0,7.0,5.0,1003.2093859999804,4.0,1.0,phase_3,,,,,405.0,3.0,810.0,540.0,135.0,270.0,405.0,675.0,magenta,diamond
0.0,3.0,3.0,0.0,7.0,6.0,285.1622260000113,4.0,1.0,phase_3,,,,,232.0,2.0,116.0,696.0,464.0,580.0,348.0,232.0,cyan,I
0.0,4.0,4.0,0.0,7.0,2.0,727.3148999997829,4.0,1.0,phase_3,,,,,692.0,4.0,1038.0,692.0,346.0,519.0,173.0,865.0,white,flipped triangle
0.0,3.0,3.0,0.0,7.0,5.0,352.9535950001445,4.0,1.0,phase_3,,,,,576.0,3.0,768.0,960.0,384.0,192.0,576.0,1152.0,cyan,I
0.0,6.0,2.0,1.0,7.0,1.0,538.665397999921,4.0,1.0,phase_3,,,,,616.0,4.0,616.0,154.0,462.0,924.0,770.0,308.0,magenta,diamond
0.0,1.0,1.0,0.0,7.0,5.0,396.4937350001492,4.0,1.0,phase_3,,,,,519.0,3.0,865.0,173.0,692.0,346.0,519.0,1038.0,green,square
0.0,5.0,1.0,1.0,7.0,6.0,634.7772750000331,4.0,1.0,phase_3,,,,,810.0,6.0,675.0,540.0,270.0,405.0,135.0,810.0,blue,circle
0.0,2.0,2.0,0.0,7.0,2.0,390.3493669999989,4.0,1.0,phase_3,,,,,154.0,1.0,462.0,154.0,770.0,308.0,924.0,616.0,gray,cross
0.0,6.0,2.0,1.0,7.0,1.0,894.9088550002671,4.0,1.0,phase_3,,,,,810.0,6.0,810.0,675.0,135.0,405.0,540.0,270.0,magenta,diamond
0.0,2.0,2.0,0.0,7.0,3.0,1063.4691549998934,4.0,1.0,phase_3,,,,,696.0,6.0,580.0,232.0,696.0,464.0,348.0,116.0,gray,cross
0.0,2.0,2.0,0.0,7.0,5.0,848.2993500001612,4.0,1.0,phase_3,,,,,192.0,1.0,384.0,576.0,960.0,768.0,192.0,1152.0,gray,cross
0.0,5.0,1.0,1.0,7.0,4.0,524.4620179996673,4.0,1.0,phase_3,,,,,576.0,3.0,192.0,768.0,1152.0,576.0,384.0,960.0,blue,circle
