raw_reward_magnitude,stim_reward,stepwise_reward_magnitude,paired_with_stopping,quadrant,response,reaction_time,block,num_trial_presentations,which_part,stop_signal_trial_type,left_SSD,right_SSD,accuracy,chosen_bidding_amount,chosen_bidding_level,possible_bid_1,possible_bid_2,possible_bid_3,possible_bid_4,possible_bid_5,possible_bid_6,color_text,shape_text
175.0,1.0,1.0,0.0,1.0,1.0,470.9543660001145,1.0,1.0,part_1,,,,,,,,,,,,,magenta,I
640.0,3.0,3.0,0.0,1.0,1.0,381.6483310001786,1.0,1.0,part_1,,,,,,,,,,,,,white,triangle
0.0,8.0,0.0,1.0,1.0,1.0,376.1192670003765,1.0,1.0,part_1,,,,,,,,,,,,,green,square
661.0,7.0,3.0,1.0,4.0,4.0,301.3681200000064,1.0,1.0,part_1,,,,,,,,,,,,,cyan,flipped triangle
651.0,3.0,3.0,0.0,2.0,2.0,838.3668920000673,1.0,2.0,part_1,,,,,,,,,,,,,white,triangle
650.0,7.0,3.0,1.0,3.0,3.0,499.0355179998005,1.0,1.0,part_1,,,,,,,,,,,,,cyan,flipped triangle
170.0,5.0,1.0,1.0,4.0,4.0,512.6502530001744,1.0,1.0,part_1,,,,,,,,,,,,,orange,cross
0.0,8.0,0.0,1.0,1.0,1.0,357.7545930002088,1.0,1.0,part_1,,,,,,,,,,,,,green,square
651.0,7.0,3.0,1.0,4.0,4.0,393.3042439998644,1.0,1.0,part_1,,,,,,,,,,,,,cyan,flipped triangle
1299.0,4.0,4.0,0.0,2.0,2.0,333.3295850002287,1.0,1.0,part_1,,,,,,,,,,,,,gray,circle
0.0,4.0,0.0,0.0,4.0,4.0,356.8452759996035,1.0,1.0,part_1,,,,,,,,,,,,,gray,circle
1308.0,8.0,4.0,1.0,3.0,3.0,416.2681529996916,1.0,1.0,part_1,,,,,,,,,,,,,green,square
0.0,6.0,0.0,1.0,3.0,3.0,355.5806929998653,1.0,1.0,part_1,,,,,,,,,,,,,yellow,diamond
0.0,4.0,0.0,0.0,3.0,3.0,512.7295719998983,1.0,1.0,part_1,,,,,,,,,,,,,gray,circle
170.0,1.0,1.0,0.0,4.0,4.0,460.2790630001436,1.0,1.0,part_1,,,,,,,,,,,,,magenta,I
0.0,4.0,0.0,0.0,2.0,2.0,509.8098700000264,1.0,2.0,part_1,,,,,,,,,,,,,gray,circle
1287.0,8.0,4.0,1.0,2.0,2.0,420.8966340002007,1.0,1.0,part_1,,,,,,,,,,,,,green,square
1303.0,8.0,4.0,1.0,1.0,1.0,494.462680000197,1.0,1.0,part_1,,,,,,,,,,,,,green,square
1282.0,4.0,4.0,0.0,2.0,2.0,541.6522320001604,1.0,1.0,part_1,,,,,,,,,,,,,gray,circle
149.0,5.0,1.0,1.0,1.0,1.0,418.1112149999535,1.0,1.0,part_1,,,,,,,,,,,,,orange,cross
1320.0,4.0,4.0,0.0,2.0,2.0,380.4665569996359,1.0,1.0,part_1,,,,,,,,,,,,,gray,circle
637.0,3.0,3.0,0.0,4.0,4.0,363.4035529998982,1.0,1.0,part_1,,,,,,,,,,,,,white,triangle
144.0,5.0,1.0,1.0,3.0,3.0,357.8502929999558,1.0,1.0,part_1,,,,,,,,,,,,,orange,cross
637.0,7.0,3.0,1.0,3.0,3.0,426.4601200002289,1.0,1.0,part_1,,,,,,,,,,,,,cyan,flipped triangle
154.0,1.0,1.0,0.0,4.0,4.0,431.1661300002924,1.0,1.0,part_1,,,,,,,,,,,,,magenta,I
627.0,3.0,3.0,0.0,2.0,2.0,380.3786619996572,1.0,1.0,part_1,,,,,,,,,,,,,white,triangle
1313.0,8.0,4.0,1.0,1.0,1.0,423.8042639999548,1.0,1.0,part_1,,,,,,,,,,,,,green,square
159.0,1.0,1.0,0.0,1.0,1.0,391.3991590002297,1.0,1.0,part_1,,,,,,,,,,,,,magenta,I
1323.0,8.0,4.0,1.0,4.0,4.0,388.2903589997113,1.0,1.0,part_1,,,,,,,,,,,,,green,square
1284.0,4.0,4.0,0.0,2.0,2.0,445.9099740001875,1.0,1.0,part_1,,,,,,,,,,,,,gray,circle
331.0,6.0,2.0,1.0,1.0,1.0,419.4644839999455,1.0,1.0,part_1,,,,,,,,,,,,,yellow,diamond
0.0,6.0,0.0,1.0,2.0,2.0,386.0217259998535,1.0,1.0,part_1,,,,,,,,,,,,,yellow,diamond
648.0,3.0,3.0,0.0,4.0,4.0,324.9792820001858,1.0,1.0,part_1,,,,,,,,,,,,,white,triangle
178.0,5.0,1.0,1.0,3.0,3.0,360.8123150002029,1.0,1.0,part_1,,,,,,,,,,,,,orange,cross
0.0,2.0,0.0,0.0,1.0,1.0,372.7246639996338,1.0,1.0,part_1,,,,,,,,,,,,,blue,hexagon
1316.0,8.0,4.0,1.0,1.0,1.0,356.3330279998808,1.0,1.0,part_1,,,,,,,,,,,,,green,square
341.0,2.0,2.0,0.0,1.0,1.0,462.3122019997936,1.0,1.0,part_1,,,,,,,,,,,,,blue,hexagon
181.0,5.0,1.0,1.0,3.0,3.0,509.69644199994946,1.0,1.0,part_1,,,,,,,,,,,,,orange,cross
1320.0,4.0,4.0,0.0,4.0,4.0,440.3096440000809,1.0,1.0,part_1,,,,,,,,,,,,,gray,circle
309.0,6.0,2.0,1.0,3.0,3.0,404.7322830001576,1.0,1.0,part_1,,,,,,,,,,,,,yellow,diamond
0.0,3.0,0.0,0.0,1.0,1.0,379.3473509999785,1.0,1.0,part_1,,,,,,,,,,,,,white,triangle
1285.0,8.0,4.0,1.0,4.0,4.0,309.7310299999662,1.0,1.0,part_1,,,,,,,,,,,,,green,square
348.0,2.0,2.0,0.0,4.0,4.0,333.023176000097,1.0,1.0,part_1,,,,,,,,,,,,,blue,hexagon
1288.0,4.0,4.0,0.0,1.0,1.0,321.5454340001997,1.0,1.0,part_1,,,,,,,,,,,,,gray,circle
0.0,4.0,0.0,0.0,2.0,2.0,372.3988390001977,1.0,1.0,part_1,,,,,,,,,,,,,gray,circle
320.0,2.0,2.0,0.0,4.0,4.0,369.9498150003819,1.0,1.0,part_1,,,,,,,,,,,,,blue,hexagon
0.0,5.0,0.0,1.0,2.0,2.0,481.5628740002466,1.0,2.0,part_1,,,,,,,,,,,,,orange,cross
0.0,4.0,0.0,0.0,3.0,3.0,416.0590080000474,1.0,1.0,part_1,,,,,,,,,,,,,gray,circle
144.0,5.0,1.0,1.0,2.0,2.0,539.0414799999235,1.0,1.0,part_1,,,,,,,,,,,,,orange,cross
152.0,1.0,1.0,0.0,3.0,3.0,441.5919890002442,1.0,1.0,part_1,,,,,,,,,,,,,magenta,I
1316.0,4.0,4.0,0.0,3.0,3.0,366.7275830002836,1.0,1.0,part_1,,,,,,,,,,,,,gray,circle
0.0,5.0,0.0,1.0,4.0,4.0,426.4735269998709,1.0,1.0,part_1,,,,,,,,,,,,,orange,cross
159.0,1.0,1.0,0.0,2.0,2.0,351.8282289996932,1.0,1.0,part_1,,,,,,,,,,,,,magenta,I
1304.0,8.0,4.0,1.0,3.0,3.0,378.163233000123,1.0,1.0,part_1,,,,,,,,,,,,,green,square
674.0,3.0,3.0,0.0,1.0,1.0,518.4797010001603,1.0,1.0,part_1,,,,,,,,,,,,,white,triangle
323.0,6.0,2.0,1.0,4.0,4.0,413.3792229999926,1.0,1.0,part_1,,,,,,,,,,,,,yellow,diamond
672.0,7.0,3.0,1.0,4.0,4.0,479.999011000018,1.0,1.0,part_1,,,,,,,,,,,,,cyan,flipped triangle
0.0,3.0,0.0,0.0,4.0,4.0,404.9794990000919,1.0,1.0,part_1,,,,,,,,,,,,,white,triangle
1285.0,8.0,4.0,1.0,4.0,4.0,401.9448889998784,1.0,1.0,part_1,,,,,,,,,,,,,green,square
1281.0,4.0,4.0,0.0,1.0,1.0,381.8565030001082,1.0,1.0,part_1,,,,,,,,,,,,,gray,circle
664.0,7.0,3.0,1.0,3.0,3.0,410.5113989999154,1.0,1.0,part_1,,,,,,,,,,,,,cyan,flipped triangle
1304.0,4.0,4.0,0.0,3.0,3.0,375.6735169999956,1.0,1.0,part_1,,,,,,,,,,,,,gray,circle
324.0,2.0,2.0,0.0,3.0,3.0,333.2710419999785,1.0,1.0,part_1,,,,,,,,,,,,,blue,hexagon
671.0,3.0,3.0,0.0,1.0,1.0,448.899235999761,1.0,1.0,part_1,,,,,,,,,,,,,white,triangle
643.0,7.0,3.0,1.0,4.0,4.0,300.5067210001471,1.0,1.0,part_1,,,,,,,,,,,,,cyan,flipped triangle
642.0,3.0,3.0,0.0,3.0,3.0,345.4868300000271,1.0,1.0,part_1,,,,,,,,,,,,,white,triangle
154.0,5.0,1.0,1.0,3.0,3.0,520.7999750000454,1.0,1.0,part_1,,,,,,,,,,,,,orange,cross
1295.0,4.0,4.0,0.0,2.0,2.0,338.482976999785,1.0,1.0,part_1,,,,,,,,,,,,,gray,circle
331.0,6.0,2.0,1.0,4.0,4.0,287.7624200000355,1.0,1.0,part_1,,,,,,,,,,,,,yellow,diamond
154.0,1.0,1.0,0.0,1.0,1.0,428.7144350000744,1.0,1.0,part_1,,,,,,,,,,,,,magenta,I
1318.0,8.0,4.0,1.0,4.0,4.0,362.4228559997391,1.0,1.0,part_1,,,,,,,,,,,,,green,square
329.0,2.0,2.0,0.0,2.0,2.0,372.8062360000876,1.0,1.0,part_1,,,,,,,,,,,,,blue,hexagon
635.0,7.0,3.0,1.0,1.0,1.0,410.5672189998586,1.0,1.0,part_1,,,,,,,,,,,,,cyan,flipped triangle
664.0,3.0,3.0,0.0,2.0,2.0,438.1780389999221,1.0,1.0,part_1,,,,,,,,,,,,,white,triangle
0.0,3.0,0.0,0.0,4.0,4.0,429.8218300000371,1.0,1.0,part_1,,,,,,,,,,,,,white,triangle
0.0,6.0,0.0,1.0,2.0,2.0,360.3005460004169,1.0,1.0,part_1,,,,,,,,,,,,,yellow,diamond
158.0,1.0,1.0,0.0,1.0,1.0,387.926736999816,1.0,1.0,part_1,,,,,,,,,,,,,magenta,I
159.0,5.0,1.0,1.0,1.0,1.0,369.4863440000517,1.0,1.0,part_1,,,,,,,,,,,,,orange,cross
142.0,1.0,1.0,0.0,4.0,4.0,349.0520189998278,1.0,1.0,part_1,,,,,,,,,,,,,magenta,I
663.0,3.0,3.0,0.0,3.0,3.0,386.5844290003224,1.0,1.0,part_1,,,,,,,,,,,,,white,triangle
150.0,5.0,1.0,1.0,2.0,2.0,446.3146459997915,1.0,1.0,part_1,,,,,,,,,,,,,orange,cross
307.0,2.0,2.0,0.0,2.0,2.0,349.5592219996979,1.0,1.0,part_1,,,,,,,,,,,,,blue,hexagon
166.0,5.0,1.0,1.0,3.0,3.0,375.8293370001411,1.0,1.0,part_1,,,,,,,,,,,,,orange,cross
1288.0,4.0,4.0,0.0,1.0,1.0,364.727018999929,1.0,1.0,part_1,,,,,,,,,,,,,gray,circle
306.0,6.0,2.0,1.0,3.0,3.0,425.10420600001447,1.0,1.0,part_1,,,,,,,,,,,,,yellow,diamond
329.0,6.0,2.0,1.0,2.0,2.0,621.5616280001086,1.0,1.0,part_1,,,,,,,,,,,,,yellow,diamond
0.0,1.0,0.0,0.0,3.0,3.0,362.5542819995644,1.0,1.0,part_1,,,,,,,,,,,,,magenta,I
347.0,2.0,2.0,0.0,2.0,2.0,369.7604769999998,1.0,1.0,part_1,,,,,,,,,,,,,blue,hexagon
0.0,1.0,0.0,0.0,3.0,3.0,339.6289820002494,1.0,1.0,part_1,,,,,,,,,,,,,magenta,I
667.0,3.0,3.0,0.0,2.0,2.0,330.6240120000439,1.0,1.0,part_1,,,,,,,,,,,,,white,triangle
301.0,2.0,2.0,0.0,3.0,3.0,237.8590690000237,1.0,1.0,part_1,,,,,,,,,,,,,blue,hexagon
150.0,1.0,1.0,0.0,4.0,4.0,283.1385629997385,1.0,1.0,part_1,,,,,,,,,,,,,magenta,I
0.0,5.0,0.0,1.0,1.0,1.0,254.77603999979692,1.0,1.0,part_1,,,,,,,,,,,,,orange,cross
349.0,6.0,2.0,1.0,4.0,4.0,243.9349209998909,1.0,1.0,part_1,,,,,,,,,,,,,yellow,diamond
165.0,5.0,1.0,1.0,1.0,1.0,256.0946830003558,1.0,1.0,part_1,,,,,,,,,,,,,orange,cross
0.0,6.0,0.0,1.0,3.0,3.0,381.2188970000534,1.0,1.0,part_1,,,,,,,,,,,,,yellow,diamond
318.0,6.0,2.0,1.0,3.0,3.0,363.1583859996681,1.0,1.0,part_1,,,,,,,,,,,,,yellow,diamond
335.0,2.0,2.0,0.0,2.0,2.0,398.4834160000901,1.0,1.0,part_1,,,,,,,,,,,,,blue,hexagon
648.0,3.0,3.0,0.0,2.0,2.0,428.0887849999999,1.0,1.0,part_1,,,,,,,,,,,,,white,triangle
320.0,6.0,2.0,1.0,1.0,1.0,609.1423650000252,1.0,1.0,part_1,,,,,,,,,,,,,yellow,diamond
666.0,3.0,3.0,0.0,4.0,4.0,418.74046599969,2.0,1.0,part_1,,,,,,,,,,,,,white,triangle
659.0,3.0,3.0,0.0,4.0,4.0,270.8665260001908,2.0,1.0,part_1,,,,,,,,,,,,,white,triangle
1323.0,4.0,4.0,0.0,3.0,3.0,357.358591999855,2.0,1.0,part_1,,,,,,,,,,,,,gray,circle
647.0,3.0,3.0,0.0,4.0,4.0,368.7802409999676,2.0,1.0,part_1,,,,,,,,,,,,,white,triangle
0.0,8.0,0.0,1.0,2.0,2.0,413.492910000059,2.0,1.0,part_1,,,,,,,,,,,,,green,square
0.0,1.0,0.0,0.0,1.0,1.0,561.7792759999247,2.0,1.0,part_1,,,,,,,,,,,,,magenta,I
149.0,1.0,1.0,0.0,3.0,3.0,320.8432160004122,2.0,1.0,part_1,,,,,,,,,,,,,magenta,I
0.0,5.0,0.0,1.0,3.0,3.0,407.0987439999953,2.0,2.0,part_1,,,,,,,,,,,,,orange,cross
1302.0,8.0,4.0,1.0,2.0,2.0,460.706810999909,2.0,1.0,part_1,,,,,,,,,,,,,green,square
1291.0,4.0,4.0,0.0,3.0,3.0,321.0302960001172,2.0,1.0,part_1,,,,,,,,,,,,,gray,circle
0.0,6.0,0.0,1.0,4.0,4.0,400.237683999876,2.0,1.0,part_1,,,,,,,,,,,,,yellow,diamond
186.0,5.0,1.0,1.0,2.0,2.0,561.722483000267,2.0,1.0,part_1,,,,,,,,,,,,,orange,cross
158.0,5.0,1.0,1.0,1.0,1.0,487.114874999861,2.0,1.0,part_1,,,,,,,,,,,,,orange,cross
650.0,3.0,3.0,0.0,3.0,3.0,339.3154179998419,2.0,1.0,part_1,,,,,,,,,,,,,white,triangle
186.0,1.0,1.0,0.0,2.0,2.0,303.3677670000543,2.0,1.0,part_1,,,,,,,,,,,,,magenta,I
0.0,2.0,0.0,0.0,3.0,3.0,286.8369739999252,2.0,1.0,part_1,,,,,,,,,,,,,blue,hexagon
1281.0,8.0,4.0,1.0,4.0,4.0,312.9413569999997,2.0,1.0,part_1,,,,,,,,,,,,,green,square
167.0,5.0,1.0,1.0,4.0,4.0,366.1776209996787,2.0,1.0,part_1,,,,,,,,,,,,,orange,cross
1310.0,4.0,4.0,0.0,3.0,3.0,363.3556609997868,2.0,1.0,part_1,,,,,,,,,,,,,gray,circle
138.0,1.0,1.0,0.0,2.0,2.0,335.2665150000575,2.0,1.0,part_1,,,,,,,,,,,,,magenta,I
318.0,6.0,2.0,1.0,2.0,2.0,512.2526580003068,2.0,2.0,part_1,,,,,,,,,,,,,yellow,diamond
0.0,5.0,0.0,1.0,2.0,2.0,325.0214599997889,2.0,1.0,part_1,,,,,,,,,,,,,orange,cross
350.0,2.0,2.0,0.0,4.0,4.0,452.4559910000789,2.0,1.0,part_1,,,,,,,,,,,,,blue,hexagon
0.0,3.0,0.0,0.0,4.0,4.0,359.5620300002338,2.0,1.0,part_1,,,,,,,,,,,,,white,triangle
0.0,4.0,0.0,0.0,2.0,2.0,434.9625620002371,2.0,1.0,part_1,,,,,,,,,,,,,gray,circle
1291.0,8.0,4.0,1.0,2.0,2.0,383.9011530003517,2.0,1.0,part_1,,,,,,,,,,,,,green,square
0.0,7.0,0.0,1.0,4.0,4.0,451.7889499998091,2.0,1.0,part_1,,,,,,,,,,,,,cyan,flipped triangle
0.0,7.0,0.0,1.0,3.0,3.0,457.3918730002333,2.0,1.0,part_1,,,,,,,,,,,,,cyan,flipped triangle
0.0,4.0,0.0,0.0,3.0,3.0,373.952503000055,2.0,1.0,part_1,,,,,,,,,,,,,gray,circle
657.0,3.0,3.0,0.0,1.0,1.0,362.5484610001876,2.0,1.0,part_1,,,,,,,,,,,,,white,triangle
302.0,2.0,2.0,0.0,4.0,4.0,359.2337279997082,2.0,1.0,part_1,,,,,,,,,,,,,blue,hexagon
643.0,3.0,3.0,0.0,3.0,3.0,395.6739039999775,2.0,1.0,part_1,,,,,,,,,,,,,white,triangle
172.0,5.0,1.0,1.0,3.0,3.0,403.0137149998154,2.0,1.0,part_1,,,,,,,,,,,,,orange,cross
139.0,1.0,1.0,0.0,4.0,4.0,380.31415200021,2.0,1.0,part_1,,,,,,,,,,,,,magenta,I
142.0,5.0,1.0,1.0,2.0,2.0,410.3608260002147,2.0,1.0,part_1,,,,,,,,,,,,,orange,cross
0.0,7.0,0.0,1.0,4.0,4.0,300.9938969998984,2.0,1.0,part_1,,,,,,,,,,,,,cyan,flipped triangle
660.0,7.0,3.0,1.0,2.0,2.0,401.1980119998952,2.0,1.0,part_1,,,,,,,,,,,,,cyan,flipped triangle
1301.0,8.0,4.0,1.0,1.0,1.0,448.8803570002346,2.0,1.0,part_1,,,,,,,,,,,,,green,square
305.0,6.0,2.0,1.0,1.0,1.0,372.2832779999407,2.0,1.0,part_1,,,,,,,,,,,,,yellow,diamond
317.0,6.0,2.0,1.0,4.0,4.0,271.4012550000007,2.0,1.0,part_1,,,,,,,,,,,,,yellow,diamond
657.0,7.0,3.0,1.0,1.0,1.0,389.9002799998925,2.0,1.0,part_1,,,,,,,,,,,,,cyan,flipped triangle
0.0,6.0,0.0,1.0,2.0,2.0,392.5411259997418,2.0,1.0,part_1,,,,,,,,,,,,,yellow,diamond
343.0,2.0,2.0,0.0,3.0,3.0,272.7365890000328,2.0,1.0,part_1,,,,,,,,,,,,,blue,hexagon
1301.0,4.0,4.0,0.0,4.0,4.0,349.330301000009,2.0,1.0,part_1,,,,,,,,,,,,,gray,circle
0.0,1.0,0.0,0.0,2.0,2.0,408.6060039999211,2.0,1.0,part_1,,,,,,,,,,,,,magenta,I
0.0,8.0,0.0,1.0,2.0,2.0,395.3390029996626,2.0,1.0,part_1,,,,,,,,,,,,,green,square
323.0,2.0,2.0,0.0,3.0,3.0,312.4987830001373,2.0,1.0,part_1,,,,,,,,,,,,,blue,hexagon
0.0,1.0,0.0,0.0,3.0,3.0,333.7726330000805,2.0,1.0,part_1,,,,,,,,,,,,,magenta,I
642.0,7.0,3.0,1.0,3.0,3.0,369.3116879999252,2.0,1.0,part_1,,,,,,,,,,,,,cyan,flipped triangle
139.0,5.0,1.0,1.0,1.0,1.0,362.5012210000022,2.0,2.0,part_1,,,,,,,,,,,,,orange,cross
629.0,7.0,3.0,1.0,1.0,1.0,375.2347079998799,2.0,1.0,part_1,,,,,,,,,,,,,cyan,flipped triangle
634.0,7.0,3.0,1.0,4.0,4.0,357.7993419999075,2.0,1.0,part_1,,,,,,,,,,,,,cyan,flipped triangle
659.0,7.0,3.0,1.0,1.0,1.0,368.7949010000011,2.0,1.0,part_1,,,,,,,,,,,,,cyan,flipped triangle
1293.0,8.0,4.0,1.0,3.0,3.0,341.7351839998446,2.0,1.0,part_1,,,,,,,,,,,,,green,square
320.0,2.0,2.0,0.0,4.0,4.0,338.3977929997854,2.0,1.0,part_1,,,,,,,,,,,,,blue,hexagon
349.0,2.0,2.0,0.0,1.0,1.0,407.0047359996351,2.0,1.0,part_1,,,,,,,,,,,,,blue,hexagon
0.0,3.0,0.0,0.0,3.0,3.0,389.9354310001399,2.0,1.0,part_1,,,,,,,,,,,,,white,triangle
648.0,7.0,3.0,1.0,3.0,3.0,345.1377410001441,2.0,1.0,part_1,,,,,,,,,,,,,cyan,flipped triangle
0.0,6.0,0.0,1.0,4.0,4.0,347.8374910000639,2.0,1.0,part_1,,,,,,,,,,,,,yellow,diamond
162.0,5.0,1.0,1.0,1.0,1.0,530.3204939996249,2.0,1.0,part_1,,,,,,,,,,,,,orange,cross
338.0,2.0,2.0,0.0,4.0,4.0,420.7778770000914,2.0,1.0,part_1,,,,,,,,,,,,,blue,hexagon
177.0,5.0,1.0,1.0,2.0,2.0,852.1580530000392,2.0,1.0,part_1,,,,,,,,,,,,,orange,cross
1320.0,8.0,4.0,1.0,3.0,3.0,408.8356020001811,2.0,1.0,part_1,,,,,,,,,,,,,green,square
0.0,2.0,0.0,0.0,3.0,3.0,365.5776909999986,2.0,1.0,part_1,,,,,,,,,,,,,blue,hexagon
0.0,5.0,0.0,1.0,1.0,1.0,415.5414120000387,2.0,1.0,part_1,,,,,,,,,,,,,orange,cross
1302.0,4.0,4.0,0.0,3.0,3.0,390.8864340000946,2.0,1.0,part_1,,,,,,,,,,,,,gray,circle
1281.0,8.0,4.0,1.0,1.0,1.0,488.7822370001231,2.0,1.0,part_1,,,,,,,,,,,,,green,square
318.0,6.0,2.0,1.0,4.0,4.0,333.7532569998984,2.0,1.0,part_1,,,,,,,,,,,,,yellow,diamond
186.0,1.0,1.0,0.0,3.0,3.0,395.391195999764,2.0,1.0,part_1,,,,,,,,,,,,,magenta,I
301.0,2.0,2.0,0.0,1.0,1.0,327.0640779996938,2.0,1.0,part_1,,,,,,,,,,,,,blue,hexagon
315.0,2.0,2.0,0.0,3.0,3.0,315.2792370001407,2.0,1.0,part_1,,,,,,,,,,,,,blue,hexagon
1308.0,4.0,4.0,0.0,3.0,3.0,392.2301790003075,2.0,1.0,part_1,,,,,,,,,,,,,gray,circle
663.0,7.0,3.0,1.0,3.0,3.0,364.9605420000625,2.0,1.0,part_1,,,,,,,,,,,,,cyan,flipped triangle
665.0,7.0,3.0,1.0,4.0,4.0,330.6828919999134,2.0,1.0,part_1,,,,,,,,,,,,,cyan,flipped triangle
138.0,5.0,1.0,1.0,4.0,4.0,384.9843839998357,2.0,1.0,part_1,,,,,,,,,,,,,orange,cross
660.0,3.0,3.0,0.0,2.0,2.0,410.7734899998831,2.0,1.0,part_1,,,,,,,,,,,,,white,triangle
138.0,1.0,1.0,0.0,4.0,4.0,434.2499089998455,2.0,1.0,part_1,,,,,,,,,,,,,magenta,I
1276.0,4.0,4.0,0.0,1.0,1.0,782.3126709999997,2.0,1.0,part_1,,,,,,,,,,,,,gray,circle
661.0,7.0,3.0,1.0,1.0,1.0,482.8209160000369,2.0,1.0,part_1,,,,,,,,,,,,,cyan,flipped triangle
317.0,2.0,2.0,0.0,2.0,2.0,436.8948779997481,2.0,1.0,part_1,,,,,,,,,,,,,blue,hexagon
318.0,2.0,2.0,0.0,3.0,3.0,347.3103390001597,2.0,1.0,part_1,,,,,,,,,,,,,blue,hexagon
1288.0,8.0,4.0,1.0,2.0,2.0,374.2912109996723,2.0,1.0,part_1,,,,,,,,,,,,,green,square
628.0,7.0,3.0,1.0,3.0,3.0,339.2171810000945,2.0,1.0,part_1,,,,,,,,,,,,,cyan,flipped triangle
317.0,6.0,2.0,1.0,2.0,2.0,274.0427899998394,2.0,1.0,part_1,,,,,,,,,,,,,yellow,diamond
1316.0,4.0,4.0,0.0,2.0,2.0,357.2806940001101,2.0,1.0,part_1,,,,,,,,,,,,,gray,circle
0.0,2.0,0.0,0.0,4.0,4.0,369.3036899999242,2.0,1.0,part_1,,,,,,,,,,,,,blue,hexagon
320.0,6.0,2.0,1.0,3.0,3.0,350.578368999777,2.0,1.0,part_1,,,,,,,,,,,,,yellow,diamond
1318.0,4.0,4.0,0.0,4.0,4.0,419.2044870001155,2.0,1.0,part_1,,,,,,,,,,,,,gray,circle
0.0,3.0,0.0,0.0,1.0,1.0,454.7517119999611,2.0,1.0,part_1,,,,,,,,,,,,,white,triangle
654.0,7.0,3.0,1.0,1.0,1.0,419.6646649998001,2.0,1.0,part_1,,,,,,,,,,,,,cyan,flipped triangle
1287.0,4.0,4.0,0.0,3.0,3.0,431.9643779999751,2.0,1.0,part_1,,,,,,,,,,,,,gray,circle
1287.0,4.0,4.0,0.0,4.0,4.0,357.6956269998845,2.0,1.0,part_1,,,,,,,,,,,,,gray,circle
0.0,2.0,0.0,0.0,2.0,2.0,312.5603929997851,2.0,1.0,part_1,,,,,,,,,,,,,blue,hexagon
0.0,1.0,0.0,0.0,2.0,2.0,226.2171289999059,2.0,2.0,part_1,,,,,,,,,,,,,magenta,I
673.0,3.0,3.0,0.0,2.0,2.0,374.9858800001675,2.0,1.0,part_1,,,,,,,,,,,,,white,triangle
310.0,6.0,2.0,1.0,1.0,1.0,387.4532579998231,2.0,1.0,part_1,,,,,,,,,,,,,yellow,diamond
658.0,3.0,3.0,0.0,3.0,3.0,384.5992229998956,2.0,1.0,part_1,,,,,,,,,,,,,white,triangle
1305.0,4.0,4.0,0.0,1.0,1.0,493.6889880000308,2.0,1.0,part_1,,,,,,,,,,,,,gray,circle
660.0,3.0,3.0,0.0,1.0,1.0,360.4157109998596,2.0,2.0,part_1,,,,,,,,,,,,,white,triangle
179.0,1.0,1.0,0.0,2.0,2.0,443.9617309999448,2.0,1.0,part_1,,,,,,,,,,,,,magenta,I
152.0,5.0,1.0,1.0,4.0,4.0,431.295873000181,3.0,1.0,part_1,,,,,,,,,,,,,orange,cross
630.0,7.0,3.0,1.0,3.0,3.0,338.9827480000349,3.0,1.0,part_1,,,,,,,,,,,,,cyan,flipped triangle
647.0,7.0,3.0,1.0,1.0,1.0,359.5931449999625,3.0,1.0,part_1,,,,,,,,,,,,,cyan,flipped triangle
331.0,2.0,2.0,0.0,4.0,4.0,380.5752160001248,3.0,1.0,part_1,,,,,,,,,,,,,blue,hexagon
0.0,2.0,0.0,0.0,2.0,2.0,321.003421000114,3.0,1.0,part_1,,,,,,,,,,,,,blue,hexagon
307.0,6.0,2.0,1.0,1.0,1.0,432.17655799981,3.0,1.0,part_1,,,,,,,,,,,,,yellow,diamond
1297.0,8.0,4.0,1.0,4.0,4.0,467.3166010002205,3.0,1.0,part_1,,,,,,,,,,,,,green,square
631.0,3.0,3.0,0.0,1.0,1.0,336.0908469999231,3.0,1.0,part_1,,,,,,,,,,,,,white,triangle
0.0,5.0,0.0,1.0,3.0,3.0,366.0609799999292,3.0,1.0,part_1,,,,,,,,,,,,,orange,cross
181.0,1.0,1.0,0.0,2.0,2.0,329.4263190000492,3.0,1.0,part_1,,,,,,,,,,,,,magenta,I
0.0,8.0,0.0,1.0,1.0,1.0,445.6551680000302,3.0,1.0,part_1,,,,,,,,,,,,,green,square
666.0,7.0,3.0,1.0,1.0,1.0,576.6091680002319,3.0,1.0,part_1,,,,,,,,,,,,,cyan,flipped triangle
1310.0,8.0,4.0,1.0,3.0,3.0,375.1060770000549,3.0,1.0,part_1,,,,,,,,,,,,,green,square
1284.0,8.0,4.0,1.0,4.0,4.0,395.2339229999779,3.0,1.0,part_1,,,,,,,,,,,,,green,square
340.0,2.0,2.0,0.0,1.0,1.0,472.2411809998448,3.0,1.0,part_1,,,,,,,,,,,,,blue,hexagon
661.0,3.0,3.0,0.0,1.0,1.0,395.2192480001031,3.0,1.0,part_1,,,,,,,,,,,,,white,triangle
175.0,5.0,1.0,1.0,4.0,4.0,415.9764649998578,3.0,1.0,part_1,,,,,,,,,,,,,orange,cross
1323.0,4.0,4.0,0.0,4.0,4.0,357.0440420003251,3.0,1.0,part_1,,,,,,,,,,,,,gray,circle
331.0,2.0,2.0,0.0,4.0,4.0,362.1645890002583,3.0,1.0,part_1,,,,,,,,,,,,,blue,hexagon
138.0,5.0,1.0,1.0,3.0,3.0,374.0746439998474,3.0,1.0,part_1,,,,,,,,,,,,,orange,cross
330.0,6.0,2.0,1.0,4.0,4.0,413.084438000169,3.0,1.0,part_1,,,,,,,,,,,,,yellow,diamond
1293.0,4.0,4.0,0.0,4.0,4.0,353.8333120000061,3.0,1.0,part_1,,,,,,,,,,,,,gray,circle
648.0,7.0,3.0,1.0,4.0,4.0,348.3610769999359,3.0,1.0,part_1,,,,,,,,,,,,,cyan,flipped triangle
1282.0,8.0,4.0,1.0,1.0,1.0,496.2820989999272,3.0,1.0,part_1,,,,,,,,,,,,,green,square
1297.0,8.0,4.0,1.0,3.0,3.0,463.8815270000123,3.0,1.0,part_1,,,,,,,,,,,,,green,square
163.0,5.0,1.0,1.0,4.0,4.0,371.7153749998942,3.0,1.0,part_1,,,,,,,,,,,,,orange,cross
0.0,4.0,0.0,0.0,1.0,1.0,374.6868709999944,3.0,1.0,part_1,,,,,,,,,,,,,gray,circle
0.0,6.0,0.0,1.0,2.0,2.0,395.3550500000347,3.0,1.0,part_1,,,,,,,,,,,,,yellow,diamond
0.0,7.0,0.0,1.0,1.0,1.0,320.9631800000352,3.0,1.0,part_1,,,,,,,,,,,,,cyan,flipped triangle
163.0,5.0,1.0,1.0,2.0,2.0,331.8792650002251,3.0,1.0,part_1,,,,,,,,,,,,,orange,cross
630.0,3.0,3.0,0.0,1.0,1.0,401.413353999942,3.0,1.0,part_1,,,,,,,,,,,,,white,triangle
1293.0,8.0,4.0,1.0,4.0,4.0,312.7001370003199,3.0,1.0,part_1,,,,,,,,,,,,,green,square
0.0,7.0,0.0,1.0,4.0,4.0,330.4028530001233,3.0,1.0,part_1,,,,,,,,,,,,,cyan,flipped triangle
0.0,7.0,0.0,1.0,2.0,2.0,329.4184619999214,3.0,1.0,part_1,,,,,,,,,,,,,cyan,flipped triangle
165.0,1.0,1.0,0.0,1.0,1.0,414.1877110000678,3.0,1.0,part_1,,,,,,,,,,,,,magenta,I
152.0,5.0,1.0,1.0,2.0,2.0,344.2612570001984,3.0,1.0,part_1,,,,,,,,,,,,,orange,cross
1281.0,4.0,4.0,0.0,2.0,2.0,446.3914130001285,3.0,1.0,part_1,,,,,,,,,,,,,gray,circle
179.0,5.0,1.0,1.0,2.0,2.0,348.1339779996233,3.0,1.0,part_1,,,,,,,,,,,,,orange,cross
1297.0,4.0,4.0,0.0,4.0,4.0,359.2426559998785,3.0,1.0,part_1,,,,,,,,,,,,,gray,circle
182.0,5.0,1.0,1.0,4.0,4.0,356.1447289998796,3.0,1.0,part_1,,,,,,,,,,,,,orange,cross
159.0,5.0,1.0,1.0,3.0,3.0,401.2058879998221,3.0,1.0,part_1,,,,,,,,,,,,,orange,cross
324.0,6.0,2.0,1.0,2.0,2.0,357.0195919996877,3.0,1.0,part_1,,,,,,,,,,,,,yellow,diamond
642.0,3.0,3.0,0.0,4.0,4.0,314.1189200000553,3.0,1.0,part_1,,,,,,,,,,,,,white,triangle
631.0,7.0,3.0,1.0,3.0,3.0,341.2424510001983,3.0,1.0,part_1,,,,,,,,,,,,,cyan,flipped triangle
163.0,1.0,1.0,0.0,3.0,3.0,332.47335599980937,3.0,1.0,part_1,,,,,,,,,,,,,magenta,I
0.0,2.0,0.0,0.0,1.0,1.0,422.1422390000953,3.0,1.0,part_1,,,,,,,,,,,,,blue,hexagon
152.0,5.0,1.0,1.0,1.0,1.0,347.4454679999326,3.0,1.0,part_1,,,,,,,,,,,,,orange,cross
661.0,3.0,3.0,0.0,4.0,4.0,354.3660109999109,3.0,1.0,part_1,,,,,,,,,,,,,white,triangle
167.0,1.0,1.0,0.0,1.0,1.0,356.4699900002779,3.0,1.0,part_1,,,,,,,,,,,,,magenta,I
301.0,6.0,2.0,1.0,1.0,1.0,338.6804790002315,3.0,1.0,part_1,,,,,,,,,,,,,yellow,diamond
176.0,5.0,1.0,1.0,1.0,1.0,360.3073870003754,3.0,1.0,part_1,,,,,,,,,,,,,orange,cross
0.0,2.0,0.0,0.0,3.0,3.0,347.7375470001789,3.0,1.0,part_1,,,,,,,,,,,,,blue,hexagon
335.0,2.0,2.0,0.0,3.0,3.0,430.607057999623,3.0,1.0,part_1,,,,,,,,,,,,,blue,hexagon
1297.0,4.0,4.0,0.0,3.0,3.0,371.7572669997935,3.0,1.0,part_1,,,,,,,,,,,,,gray,circle
335.0,6.0,2.0,1.0,1.0,1.0,303.9100690002669,3.0,1.0,part_1,,,,,,,,,,,,,yellow,diamond
1314.0,4.0,4.0,0.0,4.0,4.0,364.1896490003091,3.0,1.0,part_1,,,,,,,,,,,,,gray,circle
318.0,2.0,2.0,0.0,1.0,1.0,305.6972879999193,3.0,1.0,part_1,,,,,,,,,,,,,blue,hexagon
0.0,5.0,0.0,1.0,3.0,3.0,312.2708079999938,3.0,1.0,part_1,,,,,,,,,,,,,orange,cross
148.0,1.0,1.0,0.0,4.0,4.0,362.9689979998147,3.0,1.0,part_1,,,,,,,,,,,,,magenta,I
642.0,7.0,3.0,1.0,2.0,2.0,751.0721589997047,3.0,1.0,part_1,,,,,,,,,,,,,cyan,flipped triangle
181.0,1.0,1.0,0.0,3.0,3.0,395.9933260002799,3.0,1.0,part_1,,,,,,,,,,,,,magenta,I
0.0,3.0,0.0,0.0,4.0,4.0,339.1229640001256,3.0,1.0,part_1,,,,,,,,,,,,,white,triangle
144.0,1.0,1.0,0.0,1.0,1.0,383.3225980001771,3.0,1.0,part_1,,,,,,,,,,,,,magenta,I
660.0,7.0,3.0,1.0,2.0,2.0,356.1538100002508,3.0,1.0,part_1,,,,,,,,,,,,,cyan,flipped triangle
182.0,1.0,1.0,0.0,3.0,3.0,321.3744680001582,3.0,1.0,part_1,,,,,,,,,,,,,magenta,I
671.0,7.0,3.0,1.0,4.0,4.0,390.2187569997295,3.0,1.0,part_1,,,,,,,,,,,,,cyan,flipped triangle
1302.0,4.0,4.0,0.0,4.0,4.0,383.4369390001484,3.0,1.0,part_1,,,,,,,,,,,,,gray,circle
335.0,2.0,2.0,0.0,2.0,2.0,388.5776059996715,3.0,1.0,part_1,,,,,,,,,,,,,blue,hexagon
629.0,3.0,3.0,0.0,2.0,2.0,337.4014809996879,3.0,1.0,part_1,,,,,,,,,,,,,white,triangle
1282.0,8.0,4.0,1.0,3.0,3.0,350.2002649993301,3.0,1.0,part_1,,,,,,,,,,,,,green,square
350.0,6.0,2.0,1.0,4.0,4.0,420.3919900000983,3.0,1.0,part_1,,,,,,,,,,,,,yellow,diamond
160.0,5.0,1.0,1.0,1.0,1.0,376.3304039994182,3.0,1.0,part_1,,,,,,,,,,,,,orange,cross
0.0,3.0,0.0,0.0,2.0,2.0,363.7770820005244,3.0,1.0,part_1,,,,,,,,,,,,,white,triangle
334.0,2.0,2.0,0.0,4.0,4.0,288.0356229998142,3.0,1.0,part_1,,,,,,,,,,,,,blue,hexagon
330.0,2.0,2.0,0.0,3.0,3.0,343.2834369996271,3.0,1.0,part_1,,,,,,,,,,,,,blue,hexagon
163.0,1.0,1.0,0.0,4.0,4.0,339.8744260002786,3.0,1.0,part_1,,,,,,,,,,,,,magenta,I
0.0,1.0,0.0,0.0,4.0,4.0,320.2103379999244,3.0,1.0,part_1,,,,,,,,,,,,,magenta,I
640.0,7.0,3.0,1.0,4.0,4.0,244.5195969994529,3.0,1.0,part_1,,,,,,,,,,,,,cyan,flipped triangle
311.0,6.0,2.0,1.0,2.0,2.0,352.6056159998916,3.0,1.0,part_1,,,,,,,,,,,,,yellow,diamond
332.0,6.0,2.0,1.0,2.0,2.0,357.6239639996856,3.0,1.0,part_1,,,,,,,,,,,,,yellow,diamond
332.0,2.0,2.0,0.0,3.0,3.0,320.9392520002438,3.0,1.0,part_1,,,,,,,,,,,,,blue,hexagon
162.0,1.0,1.0,0.0,2.0,2.0,324.6963150004376,3.0,1.0,part_1,,,,,,,,,,,,,magenta,I
1287.0,8.0,4.0,1.0,2.0,2.0,321.7092249997222,3.0,1.0,part_1,,,,,,,,,,,,,green,square
634.0,3.0,3.0,0.0,4.0,4.0,326.9775910002863,3.0,1.0,part_1,,,,,,,,,,,,,white,triangle
1285.0,4.0,4.0,0.0,1.0,1.0,436.504244000389,3.0,1.0,part_1,,,,,,,,,,,,,gray,circle
326.0,6.0,2.0,1.0,3.0,3.0,359.4444259997544,3.0,1.0,part_1,,,,,,,,,,,,,yellow,diamond
0.0,5.0,0.0,1.0,4.0,4.0,340.8514669999931,3.0,1.0,part_1,,,,,,,,,,,,,orange,cross
1313.0,8.0,4.0,1.0,1.0,1.0,305.5483139996795,3.0,1.0,part_1,,,,,,,,,,,,,green,square
1288.0,8.0,4.0,1.0,2.0,2.0,406.794025999261,3.0,1.0,part_1,,,,,,,,,,,,,green,square
1276.0,8.0,4.0,1.0,2.0,2.0,330.234773000484,3.0,1.0,part_1,,,,,,,,,,,,,green,square
1313.0,4.0,4.0,0.0,1.0,1.0,221.0563769995133,3.0,2.0,part_1,,,,,,,,,,,,,gray,circle
1323.0,8.0,4.0,1.0,2.0,2.0,377.5172730001941,3.0,1.0,part_1,,,,,,,,,,,,,green,square
1302.0,8.0,4.0,1.0,3.0,3.0,253.0467120004687,3.0,1.0,part_1,,,,,,,,,,,,,green,square
665.0,3.0,3.0,0.0,2.0,2.0,322.1657679996497,3.0,1.0,part_1,,,,,,,,,,,,,white,triangle
1303.0,4.0,4.0,0.0,2.0,2.0,333.4942920000685,3.0,1.0,part_1,,,,,,,,,,,,,gray,circle
0.0,1.0,0.0,0.0,4.0,4.0,378.5264709995317,3.0,1.0,part_1,,,,,,,,,,,,,magenta,I
317.0,2.0,2.0,0.0,4.0,4.0,368.8037170004463,3.0,1.0,part_1,,,,,,,,,,,,,blue,hexagon
658.0,7.0,3.0,1.0,1.0,1.0,325.5098059999,3.0,1.0,part_1,,,,,,,,,,,,,cyan,flipped triangle
151.0,1.0,1.0,0.0,2.0,2.0,377.2583250001844,3.0,1.0,part_1,,,,,,,,,,,,,magenta,I
0.0,3.0,0.0,0.0,4.0,4.0,336.3164659995163,3.0,1.0,part_1,,,,,,,,,,,,,white,triangle
1292.0,8.0,4.0,1.0,3.0,3.0,396.9471849995898,4.0,1.0,part_1,,,,,,,,,,,,,green,square
0.0,8.0,0.0,1.0,3.0,3.0,321.7630210001516,4.0,1.0,part_1,,,,,,,,,,,,,green,square
318.0,6.0,2.0,1.0,3.0,3.0,360.742186000607,4.0,1.0,part_1,,,,,,,,,,,,,yellow,diamond
311.0,2.0,2.0,0.0,1.0,1.0,302.8819049995945,4.0,2.0,part_1,,,,,,,,,,,,,blue,hexagon
341.0,6.0,2.0,1.0,1.0,1.0,371.3326710003457,4.0,1.0,part_1,,,,,,,,,,,,,yellow,diamond
151.0,5.0,1.0,1.0,4.0,4.0,312.3217160000422,4.0,1.0,part_1,,,,,,,,,,,,,orange,cross
669.0,3.0,3.0,0.0,3.0,3.0,360.1608300004955,4.0,1.0,part_1,,,,,,,,,,,,,white,triangle
629.0,3.0,3.0,0.0,3.0,3.0,323.2813070007978,4.0,1.0,part_1,,,,,,,,,,,,,white,triangle
0.0,8.0,0.0,1.0,3.0,3.0,321.2592289992244,4.0,1.0,part_1,,,,,,,,,,,,,green,square
0.0,1.0,0.0,0.0,4.0,4.0,338.9364289996592,4.0,1.0,part_1,,,,,,,,,,,,,magenta,I
1313.0,4.0,4.0,0.0,3.0,3.0,344.3326549995618,4.0,1.0,part_1,,,,,,,,,,,,,gray,circle
674.0,7.0,3.0,1.0,3.0,3.0,347.8499200000442,4.0,1.0,part_1,,,,,,,,,,,,,cyan,flipped triangle
328.0,6.0,2.0,1.0,1.0,1.0,395.479558000261,4.0,1.0,part_1,,,,,,,,,,,,,yellow,diamond
334.0,6.0,2.0,1.0,2.0,2.0,294.2230709995783,4.0,1.0,part_1,,,,,,,,,,,,,yellow,diamond
159.0,1.0,1.0,0.0,4.0,4.0,363.0220229997576,4.0,1.0,part_1,,,,,,,,,,,,,magenta,I
1299.0,8.0,4.0,1.0,1.0,1.0,367.2275190001528,4.0,1.0,part_1,,,,,,,,,,,,,green,square
148.0,5.0,1.0,1.0,4.0,4.0,347.3084380002547,4.0,1.0,part_1,,,,,,,,,,,,,orange,cross
0.0,4.0,0.0,0.0,4.0,4.0,387.0798150001064,4.0,1.0,part_1,,,,,,,,,,,,,gray,circle
1314.0,8.0,4.0,1.0,1.0,1.0,300.6016260005708,4.0,1.0,part_1,,,,,,,,,,,,,green,square
1305.0,8.0,4.0,1.0,2.0,2.0,345.3462629995556,4.0,1.0,part_1,,,,,,,,,,,,,green,square
1307.0,8.0,4.0,1.0,4.0,4.0,374.564033999377,4.0,1.0,part_1,,,,,,,,,,,,,green,square
0.0,6.0,0.0,1.0,2.0,2.0,434.20112900003,4.0,1.0,part_1,,,,,,,,,,,,,yellow,diamond
1320.0,8.0,4.0,1.0,2.0,2.0,313.4368549999635,4.0,1.0,part_1,,,,,,,,,,,,,green,square
628.0,3.0,3.0,0.0,4.0,4.0,366.8810250001115,4.0,1.0,part_1,,,,,,,,,,,,,white,triangle
1292.0,4.0,4.0,0.0,1.0,1.0,321.4047150004262,4.0,1.0,part_1,,,,,,,,,,,,,gray,circle
627.0,7.0,3.0,1.0,2.0,2.0,479.9339319997671,4.0,1.0,part_1,,,,,,,,,,,,,cyan,flipped triangle
0.0,2.0,0.0,0.0,3.0,3.0,403.8397400008762,4.0,1.0,part_1,,,,,,,,,,,,,blue,hexagon
310.0,2.0,2.0,0.0,2.0,2.0,318.2022049995794,4.0,1.0,part_1,,,,,,,,,,,,,blue,hexagon
159.0,5.0,1.0,1.0,3.0,3.0,468.8439900000958,4.0,1.0,part_1,,,,,,,,,,,,,orange,cross
638.0,7.0,3.0,1.0,2.0,2.0,306.1930730000313,4.0,1.0,part_1,,,,,,,,,,,,,cyan,flipped triangle
152.0,1.0,1.0,0.0,1.0,1.0,479.1400409994821,4.0,1.0,part_1,,,,,,,,,,,,,magenta,I
186.0,5.0,1.0,1.0,4.0,4.0,378.6457099995459,4.0,1.0,part_1,,,,,,,,,,,,,orange,cross
640.0,7.0,3.0,1.0,2.0,2.0,359.7751480001534,4.0,1.0,part_1,,,,,,,,,,,,,cyan,flipped triangle
672.0,3.0,3.0,0.0,3.0,3.0,338.6491749997731,4.0,1.0,part_1,,,,,,,,,,,,,white,triangle
0.0,1.0,0.0,0.0,1.0,1.0,336.4241549998041,4.0,1.0,part_1,,,,,,,,,,,,,magenta,I
1323.0,4.0,4.0,0.0,1.0,1.0,422.0761300002777,4.0,1.0,part_1,,,,,,,,,,,,,gray,circle
1293.0,4.0,4.0,0.0,2.0,2.0,338.2996989994353,4.0,1.0,part_1,,,,,,,,,,,,,gray,circle
144.0,1.0,1.0,0.0,3.0,3.0,431.6416789997674,4.0,1.0,part_1,,,,,,,,,,,,,magenta,I
640.0,3.0,3.0,0.0,3.0,3.0,420.1832419994389,4.0,1.0,part_1,,,,,,,,,,,,,white,triangle
160.0,1.0,1.0,0.0,1.0,1.0,432.6212739997572,4.0,1.0,part_1,,,,,,,,,,,,,magenta,I
166.0,1.0,1.0,0.0,4.0,4.0,381.5092129998447,4.0,1.0,part_1,,,,,,,,,,,,,magenta,I
177.0,1.0,1.0,0.0,3.0,3.0,303.5379729999476,4.0,1.0,part_1,,,,,,,,,,,,,magenta,I
328.0,2.0,2.0,0.0,1.0,1.0,323.8602249994073,4.0,1.0,part_1,,,,,,,,,,,,,blue,hexagon
154.0,5.0,1.0,1.0,3.0,3.0,314.3627409999681,4.0,1.0,part_1,,,,,,,,,,,,,orange,cross
305.0,2.0,2.0,0.0,1.0,1.0,469.4471459997658,4.0,1.0,part_1,,,,,,,,,,,,,blue,hexagon
181.0,5.0,1.0,1.0,1.0,1.0,387.8898200000549,4.0,1.0,part_1,,,,,,,,,,,,,orange,cross
0.0,6.0,0.0,1.0,2.0,2.0,310.7391679995999,4.0,1.0,part_1,,,,,,,,,,,,,yellow,diamond
654.0,3.0,3.0,0.0,3.0,3.0,347.1190539994495,4.0,1.0,part_1,,,,,,,,,,,,,white,triangle
178.0,1.0,1.0,0.0,2.0,2.0,287.6032660005876,4.0,1.0,part_1,,,,,,,,,,,,,magenta,I
0.0,7.0,0.0,1.0,2.0,2.0,356.8261360005635,4.0,1.0,part_1,,,,,,,,,,,,,cyan,flipped triangle
0.0,8.0,0.0,1.0,3.0,3.0,345.1812310004243,4.0,1.0,part_1,,,,,,,,,,,,,green,square
177.0,5.0,1.0,1.0,2.0,2.0,309.6925339996232,4.0,1.0,part_1,,,,,,,,,,,,,orange,cross
642.0,7.0,3.0,1.0,2.0,2.0,338.2946429992444,4.0,1.0,part_1,,,,,,,,,,,,,cyan,flipped triangle
152.0,1.0,1.0,0.0,2.0,2.0,321.4576620002844,4.0,1.0,part_1,,,,,,,,,,,,,magenta,I
343.0,6.0,2.0,1.0,2.0,2.0,346.7961540000033,4.0,1.0,part_1,,,,,,,,,,,,,yellow,diamond
326.0,2.0,2.0,0.0,3.0,3.0,345.1925009994738,4.0,1.0,part_1,,,,,,,,,,,,,blue,hexagon
0.0,8.0,0.0,1.0,3.0,3.0,366.6919199995391,4.0,1.0,part_1,,,,,,,,,,,,,green,square
335.0,6.0,2.0,1.0,4.0,4.0,385.851504999664,4.0,1.0,part_1,,,,,,,,,,,,,yellow,diamond
170.0,1.0,1.0,0.0,2.0,2.0,375.393301999793,4.0,1.0,part_1,,,,,,,,,,,,,magenta,I
0.0,7.0,0.0,1.0,4.0,4.0,363.2501040001443,4.0,1.0,part_1,,,,,,,,,,,,,cyan,flipped triangle
669.0,7.0,3.0,1.0,2.0,2.0,312.6071149999916,4.0,1.0,part_1,,,,,,,,,,,,,cyan,flipped triangle
629.0,7.0,3.0,1.0,2.0,2.0,357.6842350003062,4.0,1.0,part_1,,,,,,,,,,,,,cyan,flipped triangle
338.0,6.0,2.0,1.0,2.0,2.0,411.4310369996019,4.0,1.0,part_1,,,,,,,,,,,,,yellow,diamond
177.0,1.0,1.0,0.0,1.0,1.0,365.5783619997237,4.0,1.0,part_1,,,,,,,,,,,,,magenta,I
667.0,7.0,3.0,1.0,1.0,1.0,419.574360000297,4.0,1.0,part_1,,,,,,,,,,,,,cyan,flipped triangle
0.0,3.0,0.0,0.0,4.0,4.0,431.1401549994116,4.0,1.0,part_1,,,,,,,,,,,,,white,triangle
1295.0,8.0,4.0,1.0,4.0,4.0,339.7818610001195,4.0,1.0,part_1,,,,,,,,,,,,,green,square
335.0,6.0,2.0,1.0,4.0,4.0,335.365296999953,4.0,1.0,part_1,,,,,,,,,,,,,yellow,diamond
309.0,2.0,2.0,0.0,1.0,1.0,454.8856350002097,4.0,1.0,part_1,,,,,,,,,,,,,blue,hexagon
324.0,6.0,2.0,1.0,3.0,3.0,329.7317280002971,4.0,1.0,part_1,,,,,,,,,,,,,yellow,diamond
0.0,7.0,0.0,1.0,3.0,3.0,374.0089459997762,4.0,1.0,part_1,,,,,,,,,,,,,cyan,flipped triangle
301.0,6.0,2.0,1.0,3.0,3.0,282.0282909997331,4.0,1.0,part_1,,,,,,,,,,,,,yellow,diamond
318.0,2.0,2.0,0.0,1.0,1.0,416.41023900046997,4.0,1.0,part_1,,,,,,,,,,,,,blue,hexagon
1285.0,4.0,4.0,0.0,2.0,2.0,427.6310669993108,4.0,1.0,part_1,,,,,,,,,,,,,gray,circle
653.0,7.0,3.0,1.0,2.0,2.0,345.17404700000037,4.0,1.0,part_1,,,,,,,,,,,,,cyan,flipped triangle
176.0,1.0,1.0,0.0,3.0,3.0,301.0325619998184,4.0,1.0,part_1,,,,,,,,,,,,,magenta,I
348.0,6.0,2.0,1.0,2.0,2.0,354.5342329998675,4.0,1.0,part_1,,,,,,,,,,,,,yellow,diamond
347.0,6.0,2.0,1.0,4.0,4.0,350.3965919999245,4.0,1.0,part_1,,,,,,,,,,,,,yellow,diamond
635.0,3.0,3.0,0.0,1.0,1.0,371.1377680001533,4.0,1.0,part_1,,,,,,,,,,,,,white,triangle
1316.0,8.0,4.0,1.0,1.0,1.0,377.6821840001503,4.0,1.0,part_1,,,,,,,,,,,,,green,square
170.0,5.0,1.0,1.0,2.0,2.0,380.4971009994915,4.0,1.0,part_1,,,,,,,,,,,,,orange,cross
0.0,5.0,0.0,1.0,1.0,1.0,298.0577100006485,4.0,1.0,part_1,,,,,,,,,,,,,orange,cross
172.0,1.0,1.0,0.0,3.0,3.0,320.160622000003,4.0,1.0,part_1,,,,,,,,,,,,,magenta,I
0.0,2.0,0.0,0.0,1.0,1.0,345.5295059993659,4.0,1.0,part_1,,,,,,,,,,,,,blue,hexagon
315.0,6.0,2.0,1.0,3.0,3.0,303.4039119993394,4.0,1.0,part_1,,,,,,,,,,,,,yellow,diamond
0.0,8.0,0.0,1.0,2.0,2.0,389.3364479999945,4.0,1.0,part_1,,,,,,,,,,,,,green,square
0.0,4.0,0.0,0.0,3.0,3.0,378.2373610001741,4.0,1.0,part_1,,,,,,,,,,,,,gray,circle
1323.0,8.0,4.0,1.0,3.0,3.0,332.9656050000267,4.0,1.0,part_1,,,,,,,,,,,,,green,square
0.0,7.0,0.0,1.0,1.0,1.0,339.4399199996769,4.0,1.0,part_1,,,,,,,,,,,,,cyan,flipped triangle
1307.0,4.0,4.0,0.0,4.0,4.0,373.8417080003273,4.0,1.0,part_1,,,,,,,,,,,,,gray,circle
653.0,3.0,3.0,0.0,2.0,2.0,394.6849289995953,4.0,1.0,part_1,,,,,,,,,,,,,white,triangle
642.0,3.0,3.0,0.0,1.0,1.0,543.250118999822,4.0,1.0,part_1,,,,,,,,,,,,,white,triangle
673.0,7.0,3.0,1.0,4.0,4.0,342.5397249993693,4.0,1.0,part_1,,,,,,,,,,,,,cyan,flipped triangle
306.0,2.0,2.0,0.0,2.0,2.0,362.9928429991196,4.0,1.0,part_1,,,,,,,,,,,,,blue,hexagon
1282.0,4.0,4.0,0.0,1.0,1.0,365.7695870006137,4.0,1.0,part_1,,,,,,,,,,,,,gray,circle
638.0,3.0,3.0,0.0,4.0,4.0,314.2886149998958,4.0,1.0,part_1,,,,,,,,,,,,,white,triangle
340.0,6.0,2.0,1.0,1.0,1.0,479.8792539995702,4.0,1.0,part_1,,,,,,,,,,,,,yellow,diamond
318.0,2.0,2.0,0.0,2.0,2.0,363.773926000249,4.0,1.0,part_1,,,,,,,,,,,,,blue,hexagon
324.0,2.0,2.0,0.0,2.0,2.0,278.9733010004056,4.0,1.0,part_1,,,,,,,,,,,,,blue,hexagon
302.0,6.0,2.0,1.0,3.0,3.0,374.8074020004424,4.0,1.0,part_1,,,,,,,,,,,,,yellow,diamond
0.0,5.0,1.0,1.0,5.0,5.0,727.7777830004197,1.0,0.0,part_2,stop,250.0,250.0,3.0,,,,,,,,,orange,cross
0.0,3.0,3.0,0.0,5.0,5.0,750.5504190003194,1.0,0.0,part_2,go,200.0,250.0,1.0,,,,,,,,,white,triangle
0.0,7.0,3.0,1.0,5.0,0.0,0.0,1.0,0.0,part_2,stop,200.0,250.0,4.0,,,,,,,,,cyan,flipped triangle
0.0,3.0,3.0,0.0,6.0,6.0,706.9338629999038,1.0,0.0,part_2,go,250.0,250.0,1.0,,,,,,,,,white,triangle
0.0,8.0,4.0,1.0,5.0,0.0,0.0,1.0,0.0,part_2,stop,250.0,250.0,4.0,,,,,,,,,green,square
0.0,4.0,4.0,0.0,6.0,6.0,724.4964109995635,1.0,0.0,part_2,go,300.0,250.0,1.0,,,,,,,,,gray,circle
0.0,8.0,4.0,1.0,6.0,6.0,827.577207000104,1.0,0.0,part_2,go,300.0,250.0,1.0,,,,,,,,,green,square
0.0,4.0,4.0,0.0,5.0,5.0,785.250926000117,1.0,0.0,part_2,go,300.0,250.0,1.0,,,,,,,,,gray,circle
0.0,5.0,1.0,1.0,5.0,0.0,0.0,1.0,0.0,part_2,stop,300.0,250.0,4.0,,,,,,,,,orange,cross
0.0,6.0,2.0,1.0,6.0,6.0,303.116914000384,1.0,0.0,part_2,stop,350.0,250.0,3.0,,,,,,,,,yellow,diamond
0.0,7.0,3.0,1.0,5.0,5.0,649.3316850001065,1.0,0.0,part_2,go,350.0,200.0,1.0,,,,,,,,,cyan,flipped triangle
0.0,3.0,3.0,0.0,6.0,6.0,726.8847870000172,1.0,0.0,part_2,go,350.0,200.0,1.0,,,,,,,,,white,triangle
0.0,2.0,2.0,0.0,5.0,5.0,632.0282469996528,1.0,0.0,part_2,go,350.0,200.0,1.0,,,,,,,,,blue,hexagon
0.0,6.0,2.0,1.0,6.0,0.0,0.0,1.0,0.0,part_2,stop,350.0,200.0,4.0,,,,,,,,,yellow,diamond
0.0,3.0,3.0,0.0,5.0,5.0,734.7173399994062,1.0,0.0,part_2,go,350.0,250.0,1.0,,,,,,,,,white,triangle
0.0,8.0,4.0,1.0,6.0,6.0,485.9593529999984,1.0,0.0,part_2,go,350.0,250.0,1.0,,,,,,,,,green,square
0.0,5.0,1.0,1.0,6.0,0.0,0.0,1.0,0.0,part_2,stop,350.0,250.0,4.0,,,,,,,,,orange,cross
0.0,5.0,1.0,1.0,6.0,0.0,0.0,1.0,0.0,part_2,stop,350.0,300.0,4.0,,,,,,,,,orange,cross
0.0,1.0,1.0,0.0,5.0,5.0,603.4611989998666,1.0,0.0,part_2,go,350.0,350.0,1.0,,,,,,,,,magenta,I
0.0,4.0,4.0,0.0,5.0,5.0,553.0925369994293,1.0,0.0,part_2,go,350.0,350.0,1.0,,,,,,,,,gray,circle
0.0,3.0,3.0,0.0,5.0,5.0,664.970629999516,1.0,0.0,part_2,go,350.0,350.0,1.0,,,,,,,,,white,triangle
0.0,6.0,2.0,1.0,5.0,0.0,0.0,1.0,0.0,part_2,stop,350.0,350.0,4.0,,,,,,,,,yellow,diamond
0.0,6.0,2.0,1.0,5.0,0.0,0.0,1.0,0.0,part_2,stop,400.0,350.0,4.0,,,,,,,,,yellow,diamond
0.0,7.0,3.0,1.0,5.0,0.0,0.0,1.0,0.0,part_2,stop,450.0,350.0,4.0,,,,,,,,,cyan,flipped triangle
0.0,3.0,3.0,0.0,6.0,6.0,713.0915159996221,1.0,0.0,part_2,go,500.0,350.0,1.0,,,,,,,,,white,triangle
0.0,5.0,1.0,1.0,5.0,5.0,693.9808470006028,1.0,0.0,part_2,stop,500.0,350.0,3.0,,,,,,,,,orange,cross
0.0,8.0,4.0,1.0,5.0,0.0,0.0,1.0,0.0,part_2,stop,450.0,350.0,4.0,,,,,,,,,green,square
0.0,7.0,3.0,1.0,6.0,6.0,852.701053000601,1.0,0.0,part_2,go,500.0,350.0,1.0,,,,,,,,,cyan,flipped triangle
0.0,1.0,1.0,0.0,6.0,6.0,725.2355259997785,1.0,0.0,part_2,go,500.0,350.0,1.0,,,,,,,,,magenta,I
0.0,6.0,2.0,1.0,6.0,0.0,0.0,1.0,0.0,part_2,stop,500.0,350.0,4.0,,,,,,,,,yellow,diamond
0.0,7.0,3.0,1.0,6.0,6.0,717.3317500000849,1.0,0.0,part_2,go,500.0,400.0,1.0,,,,,,,,,cyan,flipped triangle
0.0,7.0,3.0,1.0,6.0,0.0,0.0,1.0,0.0,part_2,stop,500.0,400.0,4.0,,,,,,,,,cyan,flipped triangle
0.0,1.0,1.0,0.0,6.0,6.0,697.3596610005188,1.0,0.0,part_2,go,500.0,450.0,1.0,,,,,,,,,magenta,I
0.0,2.0,2.0,0.0,6.0,6.0,817.6750010006799,1.0,0.0,part_2,go,500.0,450.0,1.0,,,,,,,,,blue,hexagon
0.0,5.0,1.0,1.0,6.0,0.0,0.0,1.0,0.0,part_2,stop,500.0,450.0,4.0,,,,,,,,,orange,cross
0.0,5.0,1.0,1.0,5.0,0.0,0.0,1.0,0.0,part_2,stop,500.0,500.0,4.0,,,,,,,,,orange,cross
0.0,5.0,1.0,1.0,5.0,0.0,0.0,2.0,0.0,part_2,stop,550.0,500.0,4.0,,,,,,,,,orange,cross
0.0,1.0,1.0,0.0,6.0,6.0,375.1049879992933,2.0,0.0,part_2,go,600.0,500.0,1.0,,,,,,,,,magenta,I
0.0,4.0,4.0,0.0,5.0,5.0,559.4150130000344,2.0,0.0,part_2,go,600.0,500.0,1.0,,,,,,,,,gray,circle
0.0,1.0,1.0,0.0,6.0,6.0,374.2571470002076,2.0,0.0,part_2,go,600.0,500.0,1.0,,,,,,,,,magenta,I
0.0,6.0,2.0,1.0,5.0,5.0,389.9005940002098,2.0,0.0,part_2,stop,600.0,500.0,3.0,,,,,,,,,yellow,diamond
0.0,3.0,3.0,0.0,6.0,6.0,587.43560899984,2.0,0.0,part_2,go,550.0,500.0,1.0,,,,,,,,,white,triangle
0.0,8.0,4.0,1.0,6.0,6.0,467.4703919999956,2.0,0.0,part_2,stop,550.0,500.0,3.0,,,,,,,,,green,square
0.0,1.0,1.0,0.0,6.0,6.0,732.7474250005253,2.0,0.0,part_2,go,550.0,450.0,1.0,,,,,,,,,magenta,I
0.0,5.0,1.0,1.0,6.0,6.0,659.1978970000127,2.0,0.0,part_2,go,550.0,450.0,1.0,,,,,,,,,orange,cross
0.0,5.0,1.0,1.0,6.0,0.0,0.0,2.0,0.0,part_2,stop,550.0,450.0,4.0,,,,,,,,,orange,cross
0.0,5.0,1.0,1.0,6.0,0.0,0.0,2.0,0.0,part_2,stop,550.0,500.0,4.0,,,,,,,,,orange,cross
0.0,8.0,4.0,1.0,5.0,5.0,559.6160290006083,2.0,0.0,part_2,go,550.0,550.0,1.0,,,,,,,,,green,square
0.0,7.0,3.0,1.0,6.0,6.0,633.6269079993144,2.0,0.0,part_2,stop,550.0,550.0,3.0,,,,,,,,,cyan,flipped triangle
0.0,7.0,3.0,1.0,5.0,0.0,0.0,2.0,0.0,part_2,stop,550.0,500.0,4.0,,,,,,,,,cyan,flipped triangle
0.0,8.0,4.0,1.0,6.0,6.0,807.2022010001092,2.0,0.0,part_2,go,600.0,500.0,1.0,,,,,,,,,green,square
0.0,3.0,3.0,0.0,6.0,6.0,645.5344400001195,2.0,0.0,part_2,go,600.0,500.0,1.0,,,,,,,,,white,triangle
0.0,8.0,4.0,1.0,5.0,5.0,596.9302490002519,2.0,0.0,part_2,go,600.0,500.0,1.0,,,,,,,,,green,square
0.0,3.0,3.0,0.0,6.0,6.0,460.0035270004809,2.0,0.0,part_2,go,600.0,500.0,1.0,,,,,,,,,white,triangle
0.0,7.0,3.0,1.0,6.0,0.0,0.0,2.0,0.0,part_2,stop,600.0,500.0,4.0,,,,,,,,,cyan,flipped triangle
0.0,8.0,4.0,1.0,5.0,0.0,0.0,2.0,0.0,part_2,stop,600.0,550.0,4.0,,,,,,,,,green,square
0.0,2.0,2.0,0.0,6.0,6.0,740.4394820005109,2.0,0.0,part_2,go,650.0,550.0,1.0,,,,,,,,,blue,hexagon
0.0,5.0,1.0,1.0,5.0,0.0,0.0,2.0,0.0,part_2,stop,650.0,550.0,4.0,,,,,,,,,orange,cross
0.0,4.0,4.0,0.0,6.0,6.0,771.2113719999252,2.0,0.0,part_2,go,700.0,550.0,1.0,,,,,,,,,gray,circle
0.0,3.0,3.0,0.0,5.0,5.0,745.1304160003929,2.0,0.0,part_2,go,700.0,550.0,1.0,,,,,,,,,white,triangle
0.0,2.0,2.0,0.0,6.0,6.0,514.2223869997906,2.0,0.0,part_2,go,700.0,550.0,1.0,,,,,,,,,blue,hexagon
0.0,3.0,3.0,0.0,5.0,5.0,687.7736280002864,2.0,0.0,part_2,go,700.0,550.0,1.0,,,,,,,,,white,triangle
0.0,2.0,2.0,0.0,6.0,6.0,470.8822689999579,2.0,0.0,part_2,go,700.0,550.0,1.0,,,,,,,,,blue,hexagon
0.0,3.0,3.0,0.0,6.0,6.0,766.0014299999602,2.0,0.0,part_2,go,700.0,550.0,1.0,,,,,,,,,white,triangle
0.0,2.0,2.0,0.0,5.0,5.0,468.7632799996208,2.0,0.0,part_2,go,700.0,550.0,1.0,,,,,,,,,blue,hexagon
0.0,4.0,4.0,0.0,6.0,6.0,439.4030539997402,2.0,0.0,part_2,go,700.0,550.0,1.0,,,,,,,,,gray,circle
0.0,3.0,3.0,0.0,5.0,5.0,415.0386629999048,2.0,0.0,part_2,go,700.0,550.0,1.0,,,,,,,,,white,triangle
0.0,5.0,1.0,1.0,6.0,0.0,0.0,2.0,0.0,part_2,stop,700.0,550.0,4.0,,,,,,,,,orange,cross
0.0,2.0,2.0,0.0,5.0,5.0,587.2768680001172,2.0,0.0,part_2,go,700.0,600.0,1.0,,,,,,,,,blue,hexagon
0.0,3.0,3.0,0.0,6.0,6.0,553.9197600000989,2.0,0.0,part_2,go,700.0,600.0,1.0,,,,,,,,,white,triangle
0.0,8.0,4.0,1.0,5.0,0.0,0.0,2.0,0.0,part_2,stop,700.0,600.0,4.0,,,,,,,,,green,square
0.0,2.0,2.0,0.0,5.0,5.0,441.121216999818,2.0,0.0,part_2,go,750.0,600.0,1.0,,,,,,,,,blue,hexagon
0.0,3.0,3.0,0.0,5.0,5.0,822.6009700001669,3.0,0.0,part_2,go,750.0,600.0,1.0,,,,,,,,,white,triangle
0.0,8.0,4.0,1.0,5.0,5.0,804.2847579999943,3.0,0.0,part_2,stop,750.0,600.0,3.0,,,,,,,,,green,square
0.0,6.0,2.0,1.0,6.0,6.0,675.6315840002571,3.0,0.0,part_2,go,700.0,600.0,1.0,,,,,,,,,yellow,diamond
0.0,6.0,2.0,1.0,5.0,5.0,660.421943000074,3.0,0.0,part_2,go,700.0,600.0,1.0,,,,,,,,,yellow,diamond
0.0,7.0,3.0,1.0,5.0,5.0,732.0840869997483,3.0,0.0,part_2,go,700.0,600.0,1.0,,,,,,,,,cyan,flipped triangle
0.0,7.0,3.0,1.0,6.0,6.0,474.7473390007144,3.0,0.0,part_2,stop,700.0,600.0,3.0,,,,,,,,,cyan,flipped triangle
0.0,8.0,4.0,1.0,5.0,0.0,0.0,3.0,0.0,part_2,stop,700.0,550.0,4.0,,,,,,,,,green,square
0.0,4.0,4.0,0.0,5.0,5.0,560.0567420005973,3.0,0.0,part_2,go,750.0,550.0,1.0,,,,,,,,,gray,circle
0.0,2.0,2.0,0.0,6.0,6.0,494.8859470005118,3.0,0.0,part_2,go,750.0,550.0,1.0,,,,,,,,,blue,hexagon
0.0,4.0,4.0,0.0,5.0,5.0,495.9699110004294,3.0,0.0,part_2,go,750.0,550.0,1.0,,,,,,,,,gray,circle
0.0,4.0,4.0,0.0,5.0,5.0,382.1900570001162,3.0,0.0,part_2,go,750.0,550.0,1.0,,,,,,,,,gray,circle
0.0,7.0,3.0,1.0,6.0,0.0,0.0,3.0,0.0,part_2,stop,750.0,550.0,4.0,,,,,,,,,cyan,flipped triangle
0.0,8.0,4.0,1.0,5.0,0.0,0.0,3.0,0.0,part_2,stop,750.0,600.0,4.0,,,,,,,,,green,square
0.0,4.0,4.0,0.0,6.0,6.0,653.2777970005554,3.0,0.0,part_2,go,800.0,600.0,1.0,,,,,,,,,gray,circle
0.0,5.0,1.0,1.0,6.0,0.0,0.0,3.0,0.0,part_2,stop,800.0,600.0,4.0,,,,,,,,,orange,cross
0.0,5.0,1.0,1.0,5.0,0.0,0.0,3.0,0.0,part_2,stop,800.0,650.0,4.0,,,,,,,,,orange,cross
0.0,2.0,2.0,0.0,6.0,6.0,427.9480199993486,3.0,0.0,part_2,go,850.0,650.0,1.0,,,,,,,,,blue,hexagon
0.0,4.0,4.0,0.0,5.0,5.0,356.416782999986,3.0,0.0,part_2,go,850.0,650.0,1.0,,,,,,,,,gray,circle
0.0,4.0,4.0,0.0,5.0,5.0,376.8061800001305,3.0,0.0,part_2,go,850.0,650.0,1.0,,,,,,,,,gray,circle
0.0,6.0,2.0,1.0,6.0,0.0,0.0,3.0,0.0,part_2,stop,850.0,650.0,4.0,,,,,,,,,yellow,diamond
0.0,7.0,3.0,1.0,6.0,0.0,0.0,3.0,0.0,part_2,stop,850.0,700.0,4.0,,,,,,,,,cyan,flipped triangle
0.0,8.0,4.0,1.0,5.0,5.0,1105.4691569997883,3.0,0.0,part_2,go,850.0,750.0,1.0,,,,,,,,,green,square
0.0,5.0,1.0,1.0,5.0,5.0,792.8531580000708,3.0,0.0,part_2,go,850.0,750.0,1.0,,,,,,,,,orange,cross
0.0,2.0,2.0,0.0,6.0,6.0,398.3899730001212,3.0,0.0,part_2,go,850.0,750.0,1.0,,,,,,,,,blue,hexagon
0.0,3.0,3.0,0.0,5.0,5.0,542.0136580005419,3.0,0.0,part_2,go,850.0,750.0,1.0,,,,,,,,,white,triangle
0.0,1.0,1.0,0.0,5.0,5.0,399.3370570005936,3.0,0.0,part_2,go,850.0,750.0,1.0,,,,,,,,,magenta,I
0.0,8.0,4.0,1.0,5.0,5.0,1107.6674019996062,3.0,0.0,part_2,stop,850.0,750.0,3.0,,,,,,,,,green,square
0.0,6.0,2.0,1.0,5.0,0.0,0.0,3.0,0.0,part_2,stop,800.0,750.0,4.0,,,,,,,,,yellow,diamond
0.0,4.0,4.0,0.0,6.0,6.0,516.5702089998376,3.0,0.0,part_2,go,850.0,750.0,1.0,,,,,,,,,gray,circle
0.0,3.0,3.0,0.0,5.0,5.0,916.4357040008326,3.0,0.0,part_2,go,850.0,750.0,1.0,,,,,,,,,white,triangle
0.0,8.0,4.0,1.0,5.0,0.0,0.0,3.0,0.0,part_2,stop,850.0,750.0,4.0,,,,,,,,,green,square
0.0,1.0,1.0,0.0,5.0,5.0,458.7584880000577,3.0,0.0,part_2,go,900.0,750.0,1.0,,,,,,,,,magenta,I
0.0,7.0,3.0,1.0,6.0,0.0,0.0,3.0,0.0,part_2,stop,900.0,750.0,4.0,,,,,,,,,cyan,flipped triangle
0.0,3.0,3.0,0.0,6.0,6.0,914.2480720001912,3.0,0.0,part_2,go,900.0,800.0,1.0,,,,,,,,,white,triangle
0.0,1.0,1.0,0.0,5.0,5.0,478.5662429994772,3.0,0.0,part_2,go,900.0,800.0,1.0,,,,,,,,,magenta,I
0.0,4.0,4.0,0.0,6.0,6.0,440.8845620000647,3.0,0.0,part_2,go,900.0,800.0,1.0,,,,,,,,,gray,circle
0.0,4.0,4.0,0.0,6.0,6.0,496.5719270003319,4.0,0.0,part_2,go,900.0,800.0,1.0,,,,,,,,,gray,circle
0.0,5.0,1.0,1.0,5.0,5.0,951.1381410002286,4.0,0.0,part_2,stop,900.0,800.0,3.0,,,,,,,,,orange,cross
0.0,1.0,1.0,0.0,5.0,5.0,447.9972839999391,4.0,0.0,part_2,go,850.0,800.0,1.0,,,,,,,,,magenta,I
0.0,2.0,2.0,0.0,5.0,5.0,456.1669210006585,4.0,0.0,part_2,go,850.0,800.0,1.0,,,,,,,,,blue,hexagon
0.0,2.0,2.0,0.0,6.0,6.0,455.5860399996163,4.0,0.0,part_2,go,850.0,800.0,1.0,,,,,,,,,blue,hexagon
0.0,2.0,2.0,0.0,5.0,5.0,341.801870999916,4.0,0.0,part_2,go,850.0,800.0,1.0,,,,,,,,,blue,hexagon
0.0,3.0,3.0,0.0,5.0,5.0,1164.2415320002328,4.0,0.0,part_2,go,850.0,800.0,1.0,,,,,,,,,white,triangle
0.0,1.0,1.0,0.0,6.0,6.0,371.4531670002543,4.0,0.0,part_2,go,850.0,800.0,1.0,,,,,,,,,magenta,I
0.0,5.0,1.0,1.0,6.0,0.0,0.0,4.0,0.0,part_2,stop,850.0,800.0,4.0,,,,,,,,,orange,cross
0.0,4.0,4.0,0.0,6.0,6.0,515.2096169995275,4.0,0.0,part_2,go,850.0,850.0,1.0,,,,,,,,,gray,circle
0.0,1.0,1.0,0.0,6.0,6.0,387.19849799963407,4.0,0.0,part_2,go,850.0,850.0,1.0,,,,,,,,,magenta,I
0.0,7.0,3.0,1.0,6.0,6.0,1153.042099999766,4.0,0.0,part_2,go,850.0,850.0,1.0,,,,,,,,,cyan,flipped triangle
0.0,2.0,2.0,0.0,6.0,6.0,458.5241549993952,4.0,0.0,part_2,go,850.0,850.0,1.0,,,,,,,,,blue,hexagon
0.0,7.0,3.0,1.0,6.0,6.0,385.8209849995546,4.0,0.0,part_2,stop,850.0,850.0,3.0,,,,,,,,,cyan,flipped triangle
0.0,3.0,3.0,0.0,5.0,5.0,599.588479999511,4.0,0.0,part_2,go,850.0,800.0,1.0,,,,,,,,,white,triangle
0.0,4.0,4.0,0.0,6.0,6.0,432.5271409998095,4.0,0.0,part_2,go,850.0,800.0,1.0,,,,,,,,,gray,circle
0.0,6.0,2.0,1.0,6.0,0.0,0.0,4.0,0.0,part_2,stop,850.0,800.0,4.0,,,,,,,,,yellow,diamond
0.0,6.0,2.0,1.0,5.0,0.0,0.0,4.0,0.0,part_2,stop,850.0,850.0,4.0,,,,,,,,,yellow,diamond
0.0,4.0,4.0,0.0,6.0,6.0,491.8756870001743,4.0,0.0,part_2,go,900.0,850.0,1.0,,,,,,,,,gray,circle
0.0,5.0,1.0,1.0,6.0,0.0,0.0,4.0,0.0,part_2,stop,900.0,850.0,4.0,,,,,,,,,orange,cross
0.0,6.0,2.0,1.0,6.0,6.0,1477.5358039996718,4.0,0.0,part_2,go,900.0,900.0,1.0,,,,,,,,,yellow,diamond
0.0,8.0,4.0,1.0,6.0,6.0,922.83086200041,4.0,0.0,part_2,stop,900.0,900.0,3.0,,,,,,,,,green,square
0.0,7.0,3.0,1.0,5.0,0.0,0.0,4.0,0.0,part_2,stop,900.0,850.0,4.0,,,,,,,,,cyan,flipped triangle
0.0,7.0,3.0,1.0,6.0,6.0,1177.9026519998297,4.0,0.0,part_2,go,950.0,850.0,1.0,,,,,,,,,cyan,flipped triangle
0.0,1.0,1.0,0.0,6.0,6.0,473.8953209998726,4.0,0.0,part_2,go,950.0,850.0,1.0,,,,,,,,,magenta,I
0.0,1.0,1.0,0.0,5.0,5.0,416.8084200000521,4.0,0.0,part_2,go,950.0,850.0,1.0,,,,,,,,,magenta,I
0.0,6.0,2.0,1.0,6.0,0.0,0.0,4.0,0.0,part_2,stop,950.0,850.0,4.0,,,,,,,,,yellow,diamond
0.0,1.0,1.0,0.0,6.0,6.0,438.4633500003474,4.0,0.0,part_2,go,950.0,900.0,1.0,,,,,,,,,magenta,I
0.0,3.0,3.0,0.0,6.0,6.0,382.6644499995382,4.0,0.0,part_2,go,950.0,900.0,1.0,,,,,,,,,white,triangle
0.0,8.0,4.0,1.0,5.0,5.0,1031.3820089995716,4.0,0.0,part_2,stop,950.0,900.0,3.0,,,,,,,,,green,square
0.0,2.0,2.0,0.0,6.0,6.0,516.208318000281,4.0,0.0,part_2,go,900.0,900.0,1.0,,,,,,,,,blue,hexagon
0.0,1.0,1.0,0.0,5.0,5.0,379.9698709999575,4.0,0.0,part_2,go,900.0,900.0,1.0,,,,,,,,,magenta,I
0.0,1.0,1.0,0.0,5.0,5.0,373.787880999771,4.0,0.0,part_2,go,900.0,900.0,1.0,,,,,,,,,magenta,I
0.0,7.0,3.0,1.0,5.0,0.0,0.0,4.0,0.0,part_2,stop,900.0,900.0,4.0,,,,,,,,,cyan,flipped triangle
0.0,4.0,4.0,0.0,6.0,6.0,428.8576959997954,4.0,0.0,part_2,go,950.0,900.0,1.0,,,,,,,,,gray,circle
0.0,1.0,1.0,0.0,6.0,6.0,450.333509000302,4.0,0.0,part_2,go,950.0,900.0,1.0,,,,,,,,,magenta,I
0.0,4.0,4.0,0.0,5.0,5.0,461.5662120004344,5.0,0.0,part_2,go,950.0,900.0,1.0,,,,,,,,,gray,circle
0.0,8.0,4.0,1.0,5.0,5.0,979.4511119998788,5.0,0.0,part_2,go,950.0,900.0,1.0,,,,,,,,,green,square
0.0,6.0,2.0,1.0,5.0,5.0,987.1308190004128,5.0,0.0,part_2,stop,950.0,900.0,3.0,,,,,,,,,yellow,diamond
0.0,7.0,3.0,1.0,6.0,6.0,387.1877109995694,5.0,0.0,part_2,stop,900.0,900.0,3.0,,,,,,,,,cyan,flipped triangle
0.0,4.0,4.0,0.0,6.0,6.0,474.0017949998218,5.0,0.0,part_2,go,900.0,850.0,1.0,,,,,,,,,gray,circle
0.0,3.0,3.0,0.0,5.0,5.0,699.2632439996669,5.0,0.0,part_2,go,900.0,850.0,1.0,,,,,,,,,white,triangle
0.0,7.0,3.0,1.0,5.0,5.0,994.6883480006364,5.0,0.0,part_2,stop,900.0,850.0,3.0,,,,,,,,,cyan,flipped triangle
0.0,6.0,2.0,1.0,5.0,0.0,0.0,5.0,0.0,part_2,stop,850.0,850.0,4.0,,,,,,,,,yellow,diamond
0.0,5.0,1.0,1.0,6.0,6.0,1328.3154309992824,5.0,0.0,part_2,go,900.0,850.0,1.0,,,,,,,,,orange,cross
0.0,7.0,3.0,1.0,5.0,0.0,0.0,5.0,0.0,part_2,stop,900.0,850.0,4.0,,,,,,,,,cyan,flipped triangle
0.0,8.0,4.0,1.0,6.0,6.0,1013.751484999375,5.0,0.0,part_2,stop,950.0,850.0,3.0,,,,,,,,,green,square
0.0,8.0,4.0,1.0,5.0,0.0,0.0,5.0,0.0,part_2,stop,950.0,800.0,4.0,,,,,,,,,green,square
0.0,6.0,2.0,1.0,5.0,5.0,1412.259706000441,5.0,0.0,part_2,go,1000.0,800.0,1.0,,,,,,,,,yellow,diamond
0.0,4.0,4.0,0.0,5.0,5.0,459.6653130001868,5.0,0.0,part_2,go,1000.0,800.0,1.0,,,,,,,,,gray,circle
0.0,5.0,1.0,1.0,6.0,6.0,403.5349359992324,5.0,0.0,part_2,stop,1000.0,800.0,3.0,,,,,,,,,orange,cross
0.0,6.0,2.0,1.0,6.0,6.0,1187.15193800017,5.0,0.0,part_2,go,1000.0,750.0,1.0,,,,,,,,,yellow,diamond
0.0,6.0,2.0,1.0,5.0,5.0,1024.6966499998962,5.0,0.0,part_2,stop,1000.0,750.0,3.0,,,,,,,,,yellow,diamond
0.0,4.0,4.0,0.0,6.0,6.0,457.4199409998982,5.0,0.0,part_2,go,950.0,750.0,1.0,,,,,,,,,gray,circle
0.0,3.0,3.0,0.0,5.0,5.0,633.755464999922,5.0,0.0,part_2,go,950.0,750.0,1.0,,,,,,,,,white,triangle
0.0,1.0,1.0,0.0,5.0,5.0,472.3554189995411,5.0,0.0,part_2,go,950.0,750.0,1.0,,,,,,,,,magenta,I
0.0,3.0,3.0,0.0,5.0,5.0,391.3923279997107,5.0,0.0,part_2,go,950.0,750.0,1.0,,,,,,,,,white,triangle
0.0,8.0,4.0,1.0,5.0,5.0,1014.7791869994762,5.0,0.0,part_2,stop,950.0,750.0,3.0,,,,,,,,,green,square
0.0,4.0,4.0,0.0,5.0,5.0,480.2604460001021,5.0,0.0,part_2,go,900.0,750.0,1.0,,,,,,,,,gray,circle
0.0,2.0,2.0,0.0,5.0,5.0,558.319298999777,5.0,0.0,part_2,go,900.0,750.0,1.0,,,,,,,,,blue,hexagon
0.0,1.0,1.0,0.0,6.0,6.0,629.1381420005564,5.0,0.0,part_2,go,900.0,750.0,1.0,,,,,,,,,magenta,I
0.0,1.0,1.0,0.0,6.0,6.0,630.8308640000178,5.0,0.0,part_2,go,900.0,750.0,1.0,,,,,,,,,magenta,I
0.0,3.0,3.0,0.0,5.0,5.0,523.7519299998894,5.0,0.0,part_2,go,900.0,750.0,1.0,,,,,,,,,white,triangle
0.0,7.0,3.0,1.0,5.0,0.0,0.0,5.0,0.0,part_2,stop,900.0,750.0,4.0,,,,,,,,,cyan,flipped triangle
0.0,1.0,1.0,0.0,5.0,5.0,587.0868899992274,5.0,0.0,part_2,go,950.0,750.0,1.0,,,,,,,,,magenta,I
0.0,5.0,1.0,1.0,5.0,0.0,0.0,5.0,0.0,part_2,stop,950.0,750.0,4.0,,,,,,,,,orange,cross
0.0,2.0,2.0,0.0,6.0,6.0,656.9275129995731,5.0,0.0,part_2,go,1000.0,750.0,1.0,,,,,,,,,blue,hexagon
0.0,7.0,3.0,1.0,6.0,0.0,0.0,5.0,0.0,part_2,stop,1000.0,750.0,4.0,,,,,,,,,cyan,flipped triangle
0.0,7.0,3.0,1.0,6.0,0.0,0.0,5.0,0.0,part_2,stop,1000.0,800.0,4.0,,,,,,,,,cyan,flipped triangle
0.0,6.0,2.0,1.0,6.0,6.0,1385.4246880000574,5.0,0.0,part_2,go,1000.0,850.0,1.0,,,,,,,,,yellow,diamond
0.0,7.0,3.0,1.0,6.0,0.0,0.0,5.0,0.0,part_2,stop,1000.0,850.0,4.0,,,,,,,,,cyan,flipped triangle
0.0,5.0,1.0,1.0,6.0,0.0,0.0,5.0,0.0,part_2,stop,1000.0,900.0,4.0,,,,,,,,,orange,cross
0.0,7.0,3.0,1.0,6.0,6.0,468.0456590003814,6.0,0.0,part_2,go,1000.0,950.0,1.0,,,,,,,,,cyan,flipped triangle
0.0,1.0,1.0,0.0,6.0,6.0,539.673911999671,6.0,0.0,part_2,go,1000.0,950.0,1.0,,,,,,,,,magenta,I
0.0,4.0,4.0,0.0,6.0,6.0,440.881884999726,6.0,0.0,part_2,go,1000.0,950.0,1.0,,,,,,,,,gray,circle
0.0,6.0,2.0,1.0,5.0,0.0,0.0,6.0,0.0,part_2,stop,1000.0,950.0,4.0,,,,,,,,,yellow,diamond
0.0,7.0,3.0,1.0,5.0,0.0,0.0,6.0,0.0,part_2,stop,1050.0,950.0,4.0,,,,,,,,,cyan,flipped triangle
0.0,5.0,1.0,1.0,6.0,0.0,0.0,6.0,0.0,part_2,stop,1100.0,950.0,4.0,,,,,,,,,orange,cross
0.0,2.0,2.0,0.0,5.0,5.0,606.7293209998752,6.0,0.0,part_2,go,1100.0,1000.0,1.0,,,,,,,,,blue,hexagon
0.0,6.0,2.0,1.0,5.0,5.0,1374.2560500004402,6.0,0.0,part_2,go,1100.0,1000.0,1.0,,,,,,,,,yellow,diamond
0.0,2.0,2.0,0.0,6.0,6.0,470.8992180003406,6.0,0.0,part_2,go,1100.0,1000.0,1.0,,,,,,,,,blue,hexagon
0.0,7.0,3.0,1.0,5.0,5.0,1078.7760879993584,6.0,0.0,part_2,stop,1100.0,1000.0,3.0,,,,,,,,,cyan,flipped triangle
0.0,1.0,1.0,0.0,5.0,5.0,459.9862850000136,6.0,0.0,part_2,go,1050.0,1000.0,1.0,,,,,,,,,magenta,I
0.0,2.0,2.0,0.0,5.0,5.0,427.6435699994181,6.0,0.0,part_2,go,1050.0,1000.0,1.0,,,,,,,,,blue,hexagon
0.0,7.0,3.0,1.0,6.0,6.0,1108.394662000137,6.0,0.0,part_2,go,1050.0,1000.0,1.0,,,,,,,,,cyan,flipped triangle
0.0,8.0,4.0,1.0,6.0,6.0,724.0901750001285,6.0,0.0,part_2,stop,1050.0,1000.0,3.0,,,,,,,,,green,square
0.0,2.0,2.0,0.0,5.0,5.0,435.0374619998547,6.0,0.0,part_2,go,1050.0,950.0,1.0,,,,,,,,,blue,hexagon
0.0,6.0,2.0,1.0,5.0,5.0,1249.6593109999594,6.0,0.0,part_2,stop,1050.0,950.0,3.0,,,,,,,,,yellow,diamond
0.0,4.0,4.0,0.0,6.0,6.0,513.6165550002261,6.0,0.0,part_2,go,1000.0,950.0,1.0,,,,,,,,,gray,circle
0.0,1.0,1.0,0.0,5.0,5.0,434.251650999613,6.0,0.0,part_2,go,1000.0,950.0,1.0,,,,,,,,,magenta,I
0.0,6.0,2.0,1.0,6.0,0.0,0.0,6.0,0.0,part_2,stop,1000.0,950.0,4.0,,,,,,,,,yellow,diamond
0.0,8.0,4.0,1.0,6.0,0.0,0.0,6.0,0.0,part_2,stop,1000.0,1000.0,4.0,,,,,,,,,green,square
0.0,1.0,1.0,0.0,6.0,6.0,503.9785540002413,6.0,0.0,part_2,go,1000.0,1050.0,1.0,,,,,,,,,magenta,I
0.0,3.0,3.0,0.0,6.0,6.0,813.666314999864,6.0,0.0,part_2,go,1000.0,1050.0,1.0,,,,,,,,,white,triangle
0.0,6.0,2.0,1.0,5.0,0.0,0.0,6.0,0.0,part_2,stop,1000.0,1050.0,4.0,,,,,,,,,yellow,diamond
0.0,5.0,1.0,1.0,6.0,0.0,0.0,6.0,0.0,part_2,stop,1050.0,1050.0,4.0,,,,,,,,,orange,cross
0.0,7.0,3.0,1.0,5.0,0.0,0.0,6.0,0.0,part_2,stop,1050.0,1100.0,4.0,,,,,,,,,cyan,flipped triangle
0.0,3.0,3.0,0.0,5.0,5.0,554.9719760001608,6.0,0.0,part_2,go,1100.0,1100.0,1.0,,,,,,,,,white,triangle
0.0,8.0,4.0,1.0,5.0,5.0,1106.6554139997606,6.0,0.0,part_2,go,1100.0,1100.0,1.0,,,,,,,,,green,square
0.0,8.0,4.0,1.0,6.0,6.0,643.482425000002,6.0,0.0,part_2,stop,1100.0,1100.0,3.0,,,,,,,,,green,square
0.0,3.0,3.0,0.0,6.0,6.0,531.2455029998091,6.0,0.0,part_2,go,1100.0,1050.0,1.0,,,,,,,,,white,triangle
0.0,8.0,4.0,1.0,6.0,6.0,673.0641559997821,6.0,0.0,part_2,stop,1100.0,1050.0,3.0,,,,,,,,,green,square
0.0,3.0,3.0,0.0,6.0,6.0,552.4434130002192,6.0,0.0,part_2,go,1100.0,1000.0,1.0,,,,,,,,,white,triangle
0.0,3.0,3.0,0.0,6.0,6.0,672.3983250003585,6.0,0.0,part_2,go,1100.0,1000.0,1.0,,,,,,,,,white,triangle
0.0,5.0,1.0,1.0,6.0,0.0,0.0,6.0,0.0,part_2,stop,1100.0,1000.0,4.0,,,,,,,,,orange,cross
0.0,6.0,2.0,1.0,5.0,0.0,0.0,6.0,0.0,part_2,stop,1100.0,1050.0,4.0,,,,,,,,,yellow,diamond
0.0,6.0,2.0,1.0,6.0,0.0,0.0,6.0,0.0,part_2,stop,1150.0,1050.0,4.0,,,,,,,,,yellow,diamond
0.0,5.0,1.0,1.0,5.0,0.0,0.0,6.0,0.0,part_2,go,1150.0,1100.0,5.0,,,,,,,,,orange,cross
0.0,3.0,3.0,0.0,6.0,6.0,507.93389400041633,7.0,0.0,part_2,go,1150.0,1100.0,1.0,,,,,,,,,white,triangle
0.0,4.0,4.0,0.0,5.0,5.0,362.8604169998652,7.0,0.0,part_2,go,1150.0,1100.0,1.0,,,,,,,,,gray,circle
0.0,3.0,3.0,0.0,6.0,6.0,331.39038300032547,7.0,0.0,part_2,go,1150.0,1100.0,1.0,,,,,,,,,white,triangle
0.0,6.0,2.0,1.0,6.0,6.0,1234.0079980003793,7.0,0.0,part_2,stop,1150.0,1100.0,3.0,,,,,,,,,yellow,diamond
0.0,8.0,4.0,1.0,6.0,6.0,1121.8150370004878,7.0,0.0,part_2,stop,1150.0,1050.0,3.0,,,,,,,,,green,square
0.0,1.0,1.0,0.0,5.0,5.0,511.4173430001756,7.0,0.0,part_2,go,1150.0,1000.0,1.0,,,,,,,,,magenta,I
0.0,5.0,1.0,1.0,5.0,5.0,1077.494700999523,7.0,0.0,part_2,stop,1150.0,1000.0,3.0,,,,,,,,,orange,cross
0.0,5.0,1.0,1.0,5.0,0.0,0.0,7.0,0.0,part_2,stop,1100.0,1000.0,4.0,,,,,,,,,orange,cross
0.0,8.0,4.0,1.0,5.0,0.0,0.0,7.0,0.0,part_2,stop,1150.0,1000.0,4.0,,,,,,,,,green,square
0.0,4.0,4.0,0.0,5.0,5.0,478.8067199997385,7.0,0.0,part_2,go,1200.0,1000.0,1.0,,,,,,,,,gray,circle
0.0,2.0,2.0,0.0,5.0,5.0,516.0273869996672,7.0,0.0,part_2,go,1200.0,1000.0,1.0,,,,,,,,,blue,hexagon
0.0,6.0,2.0,1.0,6.0,6.0,1347.9532530000142,7.0,0.0,part_2,go,1200.0,1000.0,1.0,,,,,,,,,yellow,diamond
0.0,1.0,1.0,0.0,5.0,5.0,506.49874700047803,7.0,0.0,part_2,go,1200.0,1000.0,1.0,,,,,,,,,magenta,I
0.0,7.0,3.0,1.0,5.0,5.0,427.0174289995339,7.0,0.0,part_2,stop,1200.0,1000.0,3.0,,,,,,,,,cyan,flipped triangle
0.0,8.0,4.0,1.0,6.0,6.0,1192.9904299995542,7.0,0.0,part_2,go,1150.0,1000.0,1.0,,,,,,,,,green,square
0.0,2.0,2.0,0.0,5.0,5.0,499.5425930001147,7.0,0.0,part_2,go,1150.0,1000.0,1.0,,,,,,,,,blue,hexagon
0.0,1.0,1.0,0.0,6.0,6.0,528.3526079992953,7.0,0.0,part_2,go,1150.0,1000.0,1.0,,,,,,,,,magenta,I
0.0,2.0,2.0,0.0,6.0,6.0,408.0837070005145,7.0,0.0,part_2,go,1150.0,1000.0,1.0,,,,,,,,,blue,hexagon
0.0,4.0,4.0,0.0,6.0,6.0,408.2816569998613,7.0,0.0,part_2,go,1150.0,1000.0,1.0,,,,,,,,,gray,circle
0.0,2.0,2.0,0.0,6.0,6.0,398.0943899996418,7.0,0.0,part_2,go,1150.0,1000.0,1.0,,,,,,,,,blue,hexagon
0.0,5.0,1.0,1.0,5.0,5.0,1248.2678920005128,7.0,0.0,part_2,go,1150.0,1000.0,1.0,,,,,,,,,orange,cross
0.0,4.0,4.0,0.0,5.0,5.0,398.8614049994794,7.0,0.0,part_2,go,1150.0,1000.0,1.0,,,,,,,,,gray,circle
0.0,6.0,2.0,1.0,5.0,5.0,1148.2471149993216,7.0,0.0,part_2,stop,1150.0,1000.0,3.0,,,,,,,,,yellow,diamond
0.0,1.0,1.0,0.0,6.0,6.0,405.8546920005028,7.0,0.0,part_2,go,1100.0,1000.0,1.0,,,,,,,,,magenta,I
0.0,1.0,1.0,0.0,5.0,5.0,451.7600389999643,7.0,0.0,part_2,go,1100.0,1000.0,1.0,,,,,,,,,magenta,I
0.0,2.0,2.0,0.0,5.0,5.0,469.1034360002959,7.0,0.0,part_2,go,1100.0,1000.0,1.0,,,,,,,,,blue,hexagon
0.0,8.0,4.0,1.0,6.0,0.0,0.0,7.0,0.0,part_2,stop,1100.0,1000.0,4.0,,,,,,,,,green,square
0.0,1.0,1.0,0.0,5.0,5.0,459.4516050001402,7.0,0.0,part_2,go,1100.0,1050.0,1.0,,,,,,,,,magenta,I
0.0,6.0,2.0,1.0,6.0,0.0,0.0,7.0,0.0,part_2,stop,1100.0,1050.0,4.0,,,,,,,,,yellow,diamond
0.0,4.0,4.0,0.0,5.0,5.0,433.7588700000196,7.0,0.0,part_2,go,1100.0,1100.0,1.0,,,,,,,,,gray,circle
0.0,1.0,1.0,0.0,6.0,6.0,505.85697800033813,7.0,0.0,part_2,go,1100.0,1100.0,1.0,,,,,,,,,magenta,I
0.0,1.0,1.0,0.0,6.0,6.0,463.1784660004996,7.0,0.0,part_2,go,1100.0,1100.0,1.0,,,,,,,,,magenta,I
0.0,3.0,3.0,0.0,5.0,5.0,761.0033359997033,7.0,0.0,part_2,go,1100.0,1100.0,1.0,,,,,,,,,white,triangle
0.0,4.0,4.0,0.0,5.0,5.0,349.6474739995392,7.0,0.0,part_2,go,1100.0,1100.0,1.0,,,,,,,,,gray,circle
0.0,7.0,3.0,1.0,5.0,5.0,349.8575549992893,7.0,0.0,part_2,stop,1100.0,1100.0,3.0,,,,,,,,,cyan,flipped triangle
0.0,7.0,3.0,1.0,5.0,0.0,0.0,7.0,0.0,part_2,stop,1050.0,1100.0,4.0,,,,,,,,,cyan,flipped triangle
0.0,6.0,2.0,1.0,6.0,0.0,0.0,8.0,0.0,part_2,stop,1100.0,1100.0,4.0,,,,,,,,,yellow,diamond
0.0,2.0,2.0,0.0,5.0,5.0,487.2123089999149,8.0,0.0,part_2,go,1100.0,1150.0,1.0,,,,,,,,,blue,hexagon
0.0,5.0,1.0,1.0,5.0,5.0,1229.299405999882,8.0,0.0,part_2,go,1100.0,1150.0,1.0,,,,,,,,,orange,cross
0.0,2.0,2.0,0.0,6.0,6.0,469.5384950000516,8.0,0.0,part_2,go,1100.0,1150.0,1.0,,,,,,,,,blue,hexagon
0.0,3.0,3.0,0.0,6.0,6.0,574.302281999735,8.0,0.0,part_2,go,1100.0,1150.0,1.0,,,,,,,,,white,triangle
0.0,2.0,2.0,0.0,5.0,5.0,404.1212109996195,8.0,0.0,part_2,go,1100.0,1150.0,1.0,,,,,,,,,blue,hexagon
0.0,4.0,4.0,0.0,5.0,5.0,419.4807049998417,8.0,0.0,part_2,go,1100.0,1150.0,1.0,,,,,,,,,gray,circle
0.0,5.0,1.0,1.0,5.0,5.0,1194.504629000221,8.0,0.0,part_2,go,1100.0,1150.0,1.0,,,,,,,,,orange,cross
0.0,8.0,4.0,1.0,6.0,6.0,1273.455561999981,8.0,0.0,part_2,stop,1100.0,1150.0,3.0,,,,,,,,,green,square
0.0,4.0,4.0,0.0,6.0,6.0,481.9991840004149,8.0,0.0,part_2,go,1100.0,1100.0,1.0,,,,,,,,,gray,circle
0.0,5.0,1.0,1.0,5.0,0.0,0.0,8.0,0.0,part_2,stop,1100.0,1100.0,4.0,,,,,,,,,orange,cross
0.0,2.0,2.0,0.0,5.0,5.0,464.1827559999001,8.0,0.0,part_2,go,1150.0,1100.0,1.0,,,,,,,,,blue,hexagon
0.0,2.0,2.0,0.0,5.0,5.0,399.173131999305,8.0,0.0,part_2,go,1150.0,1100.0,1.0,,,,,,,,,blue,hexagon
0.0,7.0,3.0,1.0,5.0,0.0,0.0,8.0,0.0,part_2,stop,1150.0,1100.0,4.0,,,,,,,,,cyan,flipped triangle
0.0,6.0,2.0,1.0,6.0,0.0,0.0,8.0,0.0,part_2,stop,1200.0,1100.0,4.0,,,,,,,,,yellow,diamond
0.0,5.0,1.0,1.0,5.0,0.0,0.0,8.0,0.0,part_2,go,1200.0,1150.0,5.0,,,,,,,,,orange,cross
0.0,8.0,4.0,1.0,6.0,6.0,1021.1482880004039,8.0,0.0,part_2,stop,1200.0,1150.0,3.0,,,,,,,,,green,square
0.0,4.0,4.0,0.0,6.0,6.0,444.199411000227,8.0,0.0,part_2,go,1200.0,1100.0,1.0,,,,,,,,,gray,circle
0.0,5.0,1.0,1.0,6.0,6.0,1277.6222180000332,8.0,0.0,part_2,go,1200.0,1100.0,1.0,,,,,,,,,orange,cross
0.0,2.0,2.0,0.0,6.0,6.0,508.4354450000319,8.0,0.0,part_2,go,1200.0,1100.0,1.0,,,,,,,,,blue,hexagon
0.0,8.0,4.0,1.0,6.0,6.0,553.7169449999055,8.0,0.0,part_2,stop,1200.0,1100.0,3.0,,,,,,,,,green,square
0.0,8.0,4.0,1.0,6.0,6.0,1297.7647600000637,8.0,0.0,part_2,stop,1200.0,1050.0,3.0,,,,,,,,,green,square
0.0,2.0,2.0,0.0,5.0,5.0,465.4481730003681,8.0,0.0,part_2,go,1200.0,1000.0,1.0,,,,,,,,,blue,hexagon
0.0,3.0,3.0,0.0,5.0,5.0,616.1558859994329,8.0,0.0,part_2,go,1200.0,1000.0,1.0,,,,,,,,,white,triangle
0.0,6.0,2.0,1.0,5.0,5.0,1219.0610600000582,8.0,0.0,part_2,stop,1200.0,1000.0,3.0,,,,,,,,,yellow,diamond
0.0,5.0,1.0,1.0,6.0,0.0,0.0,8.0,0.0,part_2,stop,1150.0,1000.0,4.0,,,,,,,,,orange,cross
0.0,2.0,2.0,0.0,6.0,6.0,573.6220979997597,8.0,0.0,part_2,go,1150.0,1050.0,1.0,,,,,,,,,blue,hexagon
0.0,6.0,2.0,1.0,6.0,6.0,1376.1549689997992,8.0,0.0,part_2,go,1150.0,1050.0,1.0,,,,,,,,,yellow,diamond
0.0,6.0,2.0,1.0,5.0,5.0,1181.152899999688,8.0,0.0,part_2,stop,1150.0,1050.0,3.0,,,,,,,,,yellow,diamond
0.0,7.0,3.0,1.0,5.0,0.0,0.0,8.0,0.0,part_2,go,1100.0,1050.0,5.0,,,,,,,,,cyan,flipped triangle
0.0,3.0,3.0,0.0,6.0,6.0,518.0629830001635,8.0,0.0,part_2,go,1100.0,1050.0,1.0,,,,,,,,,white,triangle
0.0,1.0,1.0,0.0,5.0,5.0,389.5443649998924,8.0,0.0,part_2,go,1100.0,1050.0,1.0,,,,,,,,,magenta,I
0.0,4.0,4.0,0.0,5.0,5.0,409.9047099998643,8.0,0.0,part_2,go,1100.0,1050.0,1.0,,,,,,,,,gray,circle
0.0,1.0,1.0,0.0,5.0,5.0,372.0457270001134,8.0,0.0,part_2,go,1100.0,1050.0,1.0,,,,,,,,,magenta,I
0.0,2.0,2.0,0.0,6.0,6.0,378.5861970000042,8.0,0.0,part_2,go,1100.0,1050.0,1.0,,,,,,,,,blue,hexagon
0.0,8.0,4.0,1.0,6.0,6.0,1113.360310000644,8.0,0.0,part_2,stop,1100.0,1050.0,3.0,,,,,,,,,green,square
0.0,2.0,2.0,0.0,7.0,5.0,2540.2275559999907,1.0,1.0,part_3,go,0.0,0.0,0.0,1038.0,6.0,692.0,346.0,519.0,865.0,1038.0,173.0,blue,hexagon
0.0,7.0,3.0,1.0,7.0,5.0,2128.0651309998575,1.0,2.0,part_3,go,0.0,0.0,0.0,519.0,3.0,692.0,173.0,865.0,346.0,519.0,1038.0,cyan,flipped triangle
0.0,4.0,4.0,0.0,7.0,3.0,4334.609049999926,1.0,1.0,part_3,go,0.0,0.0,0.0,865.0,5.0,1038.0,173.0,865.0,346.0,692.0,519.0,gray,circle
0.0,4.0,4.0,0.0,7.0,6.0,3856.140476999826,1.0,1.0,part_3,go,0.0,0.0,0.0,960.0,5.0,576.0,192.0,1152.0,384.0,768.0,960.0,gray,circle
0.0,5.0,1.0,1.0,7.0,6.0,3193.331553000462,1.0,1.0,part_3,go,0.0,0.0,0.0,696.0,6.0,348.0,116.0,580.0,464.0,232.0,696.0,orange,cross
0.0,2.0,2.0,0.0,7.0,1.0,2109.2920940000113,1.0,2.0,part_3,go,0.0,0.0,0.0,675.0,5.0,675.0,540.0,270.0,810.0,135.0,405.0,blue,hexagon
0.0,2.0,2.0,0.0,7.0,6.0,3718.4753800002,1.0,1.0,part_3,go,0.0,0.0,0.0,960.0,5.0,192.0,1152.0,384.0,768.0,576.0,960.0,blue,hexagon
0.0,8.0,4.0,1.0,7.0,1.0,3190.5959910000092,1.0,2.0,part_3,go,0.0,0.0,0.0,346.0,2.0,346.0,1038.0,519.0,173.0,692.0,865.0,green,square
0.0,3.0,3.0,0.0,7.0,2.0,1504.8793460000525,1.0,2.0,part_3,go,0.0,0.0,0.0,576.0,3.0,384.0,576.0,960.0,192.0,1152.0,768.0,white,triangle
0.0,5.0,1.0,1.0,7.0,5.0,1738.9539200003128,1.0,2.0,part_3,go,0.0,0.0,0.0,865.0,5.0,692.0,173.0,346.0,1038.0,865.0,519.0,orange,cross
0.0,8.0,4.0,1.0,7.0,5.0,2580.2078579999943,1.0,1.0,part_3,go,0.0,0.0,0.0,405.0,3.0,270.0,810.0,540.0,675.0,405.0,135.0,green,square
0.0,1.0,1.0,0.0,7.0,3.0,2253.6686230005216,1.0,1.0,part_3,go,0.0,0.0,0.0,1152.0,6.0,192.0,384.0,1152.0,960.0,768.0,576.0,magenta,I
0.0,2.0,2.0,0.0,7.0,3.0,3279.9740390000807,1.0,1.0,part_3,go,0.0,0.0,0.0,1038.0,6.0,692.0,519.0,1038.0,865.0,346.0,173.0,blue,hexagon
0.0,8.0,4.0,1.0,7.0,1.0,4154.52300600009,1.0,1.0,part_3,go,0.0,0.0,0.0,384.0,2.0,384.0,1152.0,192.0,768.0,960.0,576.0,green,square
0.0,3.0,3.0,0.0,7.0,4.0,4952.265482000257,1.0,1.0,part_3,go,0.0,0.0,0.0,346.0,2.0,865.0,519.0,692.0,346.0,1038.0,173.0,white,triangle
0.0,6.0,2.0,1.0,7.0,3.0,896.342860999539,1.0,3.0,part_3,go,0.0,0.0,0.0,768.0,4.0,192.0,576.0,768.0,1152.0,384.0,960.0,yellow,diamond
0.0,1.0,1.0,0.0,7.0,4.0,2140.4453040004228,1.0,1.0,part_3,go,0.0,0.0,0.0,924.0,6.0,770.0,308.0,154.0,924.0,616.0,462.0,magenta,I
0.0,3.0,3.0,0.0,7.0,4.0,4027.1080749998873,1.0,1.0,part_3,go,0.0,0.0,0.0,616.0,4.0,462.0,924.0,154.0,616.0,770.0,308.0,white,triangle
0.0,7.0,3.0,1.0,7.0,2.0,3067.633501000273,1.0,1.0,part_3,go,0.0,0.0,0.0,768.0,4.0,1152.0,768.0,576.0,384.0,960.0,192.0,cyan,flipped triangle
0.0,6.0,2.0,1.0,7.0,5.0,2788.8611509997645,1.0,1.0,part_3,go,0.0,0.0,0.0,346.0,2.0,865.0,173.0,1038.0,692.0,346.0,519.0,yellow,diamond
0.0,4.0,4.0,0.0,7.0,5.0,680.93367199981,2.0,2.0,part_3,go,0.0,0.0,0.0,810.0,6.0,540.0,675.0,135.0,270.0,810.0,405.0,gray,circle
0.0,3.0,3.0,0.0,7.0,1.0,2712.0218970003407,2.0,3.0,part_3,go,0.0,0.0,0.0,576.0,3.0,576.0,960.0,384.0,1152.0,192.0,768.0,white,triangle
0.0,8.0,4.0,1.0,7.0,2.0,2764.33594899936,2.0,1.0,part_3,go,0.0,0.0,0.0,675.0,5.0,540.0,675.0,270.0,405.0,135.0,810.0,green,square
0.0,4.0,4.0,0.0,7.0,3.0,3924.859534999996,2.0,1.0,part_3,go,0.0,0.0,0.0,580.0,5.0,116.0,348.0,580.0,232.0,696.0,464.0,gray,circle
0.0,8.0,4.0,1.0,7.0,6.0,3309.0584599995054,2.0,1.0,part_3,go,0.0,0.0,0.0,462.0,3.0,616.0,770.0,308.0,154.0,924.0,462.0,green,square
0.0,6.0,2.0,1.0,7.0,1.0,3664.0239099997416,2.0,1.0,part_3,go,0.0,0.0,0.0,462.0,3.0,462.0,154.0,308.0,924.0,770.0,616.0,yellow,diamond
0.0,7.0,3.0,1.0,7.0,2.0,3582.371853000041,2.0,1.0,part_3,go,0.0,0.0,0.0,692.0,4.0,173.0,692.0,1038.0,865.0,519.0,346.0,cyan,flipped triangle
0.0,4.0,4.0,0.0,7.0,5.0,3703.555588999734,2.0,1.0,part_3,go,0.0,0.0,0.0,696.0,6.0,464.0,232.0,580.0,116.0,696.0,348.0,gray,circle
0.0,5.0,1.0,1.0,7.0,3.0,2852.7892839993,2.0,2.0,part_3,go,0.0,0.0,0.0,924.0,6.0,308.0,616.0,924.0,462.0,154.0,770.0,orange,cross
0.0,6.0,2.0,1.0,7.0,5.0,3238.6227139995754,2.0,2.0,part_3,go,0.0,0.0,0.0,464.0,4.0,232.0,580.0,696.0,116.0,464.0,348.0,yellow,diamond
0.0,7.0,3.0,1.0,7.0,2.0,1990.5377289996975,2.0,2.0,part_3,go,0.0,0.0,0.0,464.0,4.0,116.0,464.0,348.0,696.0,232.0,580.0,cyan,flipped triangle
0.0,1.0,1.0,0.0,7.0,5.0,3183.889292000458,2.0,2.0,part_3,go,0.0,0.0,0.0,1038.0,6.0,173.0,692.0,865.0,346.0,1038.0,519.0,magenta,I
0.0,3.0,3.0,0.0,7.0,3.0,3564.282653999726,2.0,4.0,part_3,go,0.0,0.0,0.0,464.0,4.0,580.0,116.0,464.0,696.0,232.0,348.0,white,triangle
0.0,4.0,4.0,0.0,7.0,5.0,3294.420225999602,2.0,2.0,part_3,go,0.0,0.0,0.0,770.0,5.0,616.0,308.0,462.0,924.0,770.0,154.0,gray,circle
0.0,2.0,2.0,0.0,7.0,3.0,2328.5919549998653,2.0,1.0,part_3,go,0.0,0.0,0.0,696.0,6.0,464.0,348.0,696.0,580.0,116.0,232.0,blue,hexagon
0.0,7.0,3.0,1.0,7.0,3.0,2664.6238539997285,2.0,1.0,part_3,go,0.0,0.0,0.0,384.0,2.0,576.0,960.0,384.0,768.0,192.0,1152.0,cyan,flipped triangle
0.0,6.0,2.0,1.0,7.0,2.0,1404.941036999844,2.0,2.0,part_3,go,0.0,0.0,0.0,576.0,3.0,768.0,576.0,960.0,384.0,192.0,1152.0,yellow,diamond
0.0,2.0,2.0,0.0,7.0,2.0,2435.6400659999053,2.0,1.0,part_3,go,0.0,0.0,0.0,960.0,5.0,768.0,960.0,192.0,576.0,384.0,1152.0,blue,hexagon
0.0,6.0,2.0,1.0,7.0,5.0,4413.613200999862,2.0,1.0,part_3,go,0.0,0.0,0.0,692.0,4.0,1038.0,865.0,519.0,346.0,692.0,173.0,yellow,diamond
0.0,2.0,2.0,0.0,7.0,6.0,3307.735612000215,2.0,1.0,part_3,go,0.0,0.0,0.0,405.0,3.0,135.0,810.0,270.0,540.0,675.0,405.0,blue,hexagon
0.0,5.0,1.0,1.0,7.0,5.0,3164.8754459993143,3.0,2.0,part_3,go,0.0,0.0,0.0,810.0,6.0,675.0,135.0,540.0,405.0,810.0,270.0,orange,cross
0.0,7.0,3.0,1.0,7.0,4.0,3023.521356999481,3.0,2.0,part_3,go,0.0,0.0,0.0,405.0,3.0,135.0,810.0,540.0,405.0,270.0,675.0,cyan,flipped triangle
0.0,1.0,1.0,0.0,7.0,3.0,809.2618549999315,3.0,3.0,part_3,go,0.0,0.0,0.0,580.0,5.0,348.0,232.0,580.0,696.0,464.0,116.0,magenta,I
0.0,8.0,4.0,1.0,7.0,4.0,3938.886382000419,3.0,1.0,part_3,go,0.0,0.0,0.0,464.0,4.0,116.0,580.0,696.0,464.0,348.0,232.0,green,square
0.0,8.0,4.0,1.0,7.0,4.0,4310.55631900017,3.0,1.0,part_3,go,0.0,0.0,0.0,348.0,3.0,464.0,116.0,696.0,348.0,580.0,232.0,green,square
0.0,1.0,1.0,0.0,7.0,4.0,617.3950150005112,3.0,2.0,part_3,go,0.0,0.0,0.0,960.0,5.0,192.0,768.0,1152.0,960.0,576.0,384.0,magenta,I
0.0,3.0,3.0,0.0,7.0,6.0,1666.0064420002527,3.0,2.0,part_3,go,0.0,0.0,0.0,462.0,3.0,616.0,924.0,308.0,154.0,770.0,462.0,white,triangle
0.0,8.0,4.0,1.0,7.0,6.0,1690.432016000159,3.0,2.0,part_3,go,0.0,0.0,0.0,346.0,2.0,1038.0,865.0,692.0,519.0,173.0,346.0,green,square
0.0,2.0,2.0,0.0,7.0,3.0,4723.141878999741,3.0,1.0,part_3,go,0.0,0.0,0.0,616.0,4.0,924.0,154.0,616.0,462.0,308.0,770.0,blue,hexagon
0.0,1.0,1.0,0.0,7.0,5.0,3342.8130259999307,3.0,1.0,part_3,go,0.0,0.0,0.0,675.0,5.0,405.0,810.0,270.0,135.0,675.0,540.0,magenta,I
0.0,5.0,1.0,1.0,7.0,1.0,2392.179830000714,3.0,2.0,part_3,go,0.0,0.0,0.0,576.0,3.0,576.0,384.0,192.0,960.0,1152.0,768.0,orange,cross
0.0,5.0,1.0,1.0,7.0,3.0,3688.555931999872,3.0,1.0,part_3,go,0.0,0.0,0.0,616.0,4.0,770.0,154.0,616.0,462.0,924.0,308.0,orange,cross
0.0,1.0,1.0,0.0,7.0,5.0,4068.754097999772,3.0,2.0,part_3,go,0.0,0.0,0.0,696.0,6.0,348.0,464.0,580.0,232.0,696.0,116.0,magenta,I
0.0,7.0,3.0,1.0,7.0,5.0,2414.653952999288,3.0,2.0,part_3,go,0.0,0.0,0.0,464.0,4.0,580.0,696.0,116.0,232.0,464.0,348.0,cyan,flipped triangle
0.0,4.0,4.0,0.0,7.0,3.0,961.1456650000036,3.0,2.0,part_3,go,0.0,0.0,0.0,1038.0,6.0,865.0,173.0,1038.0,346.0,519.0,692.0,gray,circle
0.0,2.0,2.0,0.0,7.0,1.0,4033.9406949997283,3.0,1.0,part_3,go,0.0,0.0,0.0,580.0,5.0,580.0,116.0,348.0,696.0,232.0,464.0,blue,hexagon
0.0,1.0,1.0,0.0,7.0,1.0,968.1215749997136,3.0,2.0,part_3,go,0.0,0.0,0.0,770.0,5.0,770.0,616.0,154.0,462.0,924.0,308.0,magenta,I
0.0,2.0,2.0,0.0,7.0,3.0,4545.140435000576,3.0,1.0,part_3,go,0.0,0.0,0.0,770.0,5.0,924.0,616.0,770.0,462.0,154.0,308.0,blue,hexagon
0.0,3.0,3.0,0.0,7.0,2.0,1501.4306640005088,3.0,2.0,part_3,go,0.0,0.0,0.0,464.0,4.0,696.0,464.0,232.0,348.0,580.0,116.0,white,triangle
0.0,6.0,2.0,1.0,7.0,3.0,485.7044359996507,3.0,3.0,part_3,go,0.0,0.0,0.0,405.0,3.0,675.0,135.0,405.0,540.0,810.0,270.0,yellow,diamond
0.0,7.0,3.0,1.0,7.0,4.0,2223.9775210000516,4.0,2.0,part_3,go,0.0,0.0,0.0,616.0,4.0,308.0,462.0,770.0,616.0,924.0,154.0,cyan,flipped triangle
0.0,6.0,2.0,1.0,7.0,4.0,2465.7794060003653,4.0,1.0,part_3,go,0.0,0.0,0.0,462.0,3.0,924.0,154.0,308.0,462.0,770.0,616.0,yellow,diamond
0.0,1.0,1.0,0.0,7.0,4.0,3036.2734030004503,4.0,1.0,part_3,go,0.0,0.0,0.0,810.0,6.0,540.0,270.0,405.0,810.0,675.0,135.0,magenta,I
0.0,1.0,1.0,0.0,7.0,4.0,3083.809399000529,4.0,1.0,part_3,go,0.0,0.0,0.0,346.0,2.0,865.0,692.0,173.0,346.0,519.0,1038.0,magenta,I
0.0,5.0,1.0,1.0,7.0,5.0,4093.5034570002244,4.0,1.0,part_3,go,0.0,0.0,0.0,675.0,5.0,540.0,270.0,810.0,135.0,675.0,405.0,orange,cross
0.0,3.0,3.0,0.0,7.0,5.0,4681.482498999685,4.0,2.0,part_3,go,0.0,0.0,0.0,405.0,3.0,135.0,810.0,270.0,675.0,405.0,540.0,white,triangle
0.0,7.0,3.0,1.0,7.0,4.0,4629.918394000015,4.0,1.0,part_3,go,0.0,0.0,0.0,405.0,3.0,135.0,270.0,540.0,405.0,810.0,675.0,cyan,flipped triangle
0.0,8.0,4.0,1.0,7.0,3.0,2999.9589890003335,4.0,1.0,part_3,go,0.0,0.0,0.0,462.0,3.0,616.0,154.0,462.0,308.0,924.0,770.0,green,square
0.0,5.0,1.0,1.0,7.0,5.0,3717.922482000176,4.0,3.0,part_3,go,0.0,0.0,0.0,768.0,4.0,960.0,384.0,192.0,576.0,768.0,1152.0,orange,cross
0.0,5.0,1.0,1.0,7.0,4.0,3454.42745299988,4.0,1.0,part_3,go,0.0,0.0,0.0,580.0,5.0,464.0,348.0,696.0,580.0,232.0,116.0,orange,cross
0.0,5.0,1.0,1.0,7.0,2.0,2688.404892000108,4.0,1.0,part_3,go,0.0,0.0,0.0,1038.0,6.0,865.0,1038.0,519.0,692.0,173.0,346.0,orange,cross
0.0,3.0,3.0,0.0,7.0,5.0,3339.0414020004755,4.0,3.0,part_3,go,0.0,0.0,0.0,519.0,3.0,173.0,1038.0,692.0,865.0,519.0,346.0,white,triangle
0.0,8.0,4.0,1.0,7.0,4.0,4156.57985100006,4.0,1.0,part_3,go,0.0,0.0,0.0,960.0,5.0,1152.0,768.0,192.0,960.0,576.0,384.0,green,square
0.0,4.0,4.0,0.0,7.0,4.0,1684.655444999407,4.0,1.0,part_3,go,0.0,0.0,0.0,576.0,3.0,192.0,960.0,768.0,576.0,1152.0,384.0,gray,circle
0.0,6.0,2.0,1.0,7.0,2.0,4741.267124999467,4.0,1.0,part_3,go,0.0,0.0,0.0,540.0,4.0,810.0,540.0,675.0,135.0,405.0,270.0,yellow,diamond
0.0,4.0,4.0,0.0,7.0,4.0,516.7690729995229,4.0,2.0,part_3,go,0.0,0.0,0.0,675.0,5.0,540.0,405.0,135.0,675.0,270.0,810.0,gray,circle
0.0,7.0,3.0,1.0,7.0,1.0,3943.493708999995,4.0,1.0,part_3,go,0.0,0.0,0.0,462.0,3.0,462.0,154.0,770.0,616.0,924.0,308.0,cyan,flipped triangle
0.0,6.0,2.0,1.0,7.0,3.0,3568.3319600002505,4.0,2.0,part_3,go,0.0,0.0,0.0,464.0,4.0,348.0,580.0,464.0,696.0,116.0,232.0,yellow,diamond
0.0,3.0,3.0,0.0,7.0,2.0,3819.6914019999895,4.0,1.0,part_3,go,0.0,0.0,0.0,270.0,2.0,675.0,270.0,810.0,540.0,135.0,405.0,white,triangle
0.0,4.0,4.0,0.0,7.0,1.0,4332.167309000397,4.0,1.0,part_3,go,0.0,0.0,0.0,462.0,3.0,462.0,770.0,616.0,924.0,154.0,308.0,gray,circle
