raw_reward_magnitude,stim_reward,stepwise_reward_magnitude,paired_with_stopping,quadrant,response,reaction_time,block,num_trial_presentations,which_part,stop_signal_trial_type,left_SSD,right_SSD,accuracy,chosen_bidding_amount,chosen_bidding_level,possible_bid_1,possible_bid_2,possible_bid_3,possible_bid_4,possible_bid_5,possible_bid_6,color_text,shape_text
180.0,5.0,1.0,1.0,1.0,1.0,356.6306379998423,1.0,1.0,part_1,,,,,,,,,,,,,magenta,triangle
656.0,7.0,3.0,1.0,4.0,4.0,377.1544729997913,1.0,1.0,part_1,,,,,,,,,,,,,green,square
627.0,7.0,3.0,1.0,3.0,3.0,383.9784649999274,1.0,1.0,part_1,,,,,,,,,,,,,green,square
1286.0,8.0,4.0,1.0,4.0,4.0,377.9554780003309,1.0,1.0,part_1,,,,,,,,,,,,,yellow,cross
647.0,7.0,3.0,1.0,3.0,3.0,351.0703749998356,1.0,1.0,part_1,,,,,,,,,,,,,green,square
660.0,7.0,3.0,1.0,2.0,2.0,459.1296099997635,1.0,1.0,part_1,,,,,,,,,,,,,green,square
0.0,6.0,0.0,1.0,4.0,4.0,338.0190909997509,1.0,1.0,part_1,,,,,,,,,,,,,blue,I
627.0,3.0,3.0,0.0,3.0,3.0,348.9817320000838,1.0,1.0,part_1,,,,,,,,,,,,,white,hexagon
0.0,7.0,0.0,1.0,3.0,3.0,337.3047899999619,1.0,1.0,part_1,,,,,,,,,,,,,green,square
328.0,2.0,2.0,0.0,2.0,2.0,493.8170549999086,1.0,1.0,part_1,,,,,,,,,,,,,gray,flipped triangle
1279.0,4.0,4.0,0.0,2.0,2.0,482.3526099999071,1.0,1.0,part_1,,,,,,,,,,,,,cyan,circle
327.0,6.0,2.0,1.0,3.0,3.0,303.3390209998288,1.0,1.0,part_1,,,,,,,,,,,,,blue,I
0.0,8.0,0.0,1.0,1.0,1.0,404.927587000202,1.0,1.0,part_1,,,,,,,,,,,,,yellow,cross
1281.0,4.0,4.0,0.0,2.0,2.0,464.8609350001607,1.0,1.0,part_1,,,,,,,,,,,,,cyan,circle
665.0,7.0,3.0,1.0,3.0,3.0,405.1727129999563,1.0,1.0,part_1,,,,,,,,,,,,,green,square
325.0,2.0,2.0,0.0,4.0,4.0,364.5352469998215,1.0,1.0,part_1,,,,,,,,,,,,,gray,flipped triangle
0.0,1.0,0.0,0.0,2.0,2.0,453.5672860001796,1.0,1.0,part_1,,,,,,,,,,,,,orange,diamond
1315.0,4.0,4.0,0.0,2.0,2.0,434.5853260001604,1.0,1.0,part_1,,,,,,,,,,,,,cyan,circle
1301.0,4.0,4.0,0.0,3.0,3.0,327.9669879998437,1.0,1.0,part_1,,,,,,,,,,,,,cyan,circle
185.0,5.0,1.0,1.0,4.0,4.0,389.2189529997267,1.0,1.0,part_1,,,,,,,,,,,,,magenta,triangle
152.0,1.0,1.0,0.0,4.0,4.0,369.9784099999306,1.0,1.0,part_1,,,,,,,,,,,,,orange,diamond
665.0,3.0,3.0,0.0,4.0,4.0,360.3317030001562,1.0,1.0,part_1,,,,,,,,,,,,,white,hexagon
660.0,3.0,3.0,0.0,2.0,2.0,449.5550249998814,1.0,1.0,part_1,,,,,,,,,,,,,white,hexagon
636.0,3.0,3.0,0.0,2.0,2.0,496.2796249997154,1.0,1.0,part_1,,,,,,,,,,,,,white,hexagon
651.0,3.0,3.0,0.0,1.0,1.0,451.9944630001191,1.0,1.0,part_1,,,,,,,,,,,,,white,hexagon
1282.0,4.0,4.0,0.0,3.0,3.0,394.88433799988337,1.0,1.0,part_1,,,,,,,,,,,,,cyan,circle
331.0,6.0,2.0,1.0,3.0,3.0,348.2205659997817,1.0,1.0,part_1,,,,,,,,,,,,,blue,I
1286.0,8.0,4.0,1.0,3.0,3.0,450.1685239997641,1.0,1.0,part_1,,,,,,,,,,,,,yellow,cross
658.0,7.0,3.0,1.0,1.0,1.0,472.4147329998232,1.0,1.0,part_1,,,,,,,,,,,,,green,square
152.0,1.0,1.0,0.0,4.0,4.0,570.6420629999229,1.0,1.0,part_1,,,,,,,,,,,,,orange,diamond
0.0,7.0,0.0,1.0,1.0,1.0,521.6467990003366,1.0,1.0,part_1,,,,,,,,,,,,,green,square
1300.0,4.0,4.0,0.0,1.0,1.0,414.3759329999739,1.0,1.0,part_1,,,,,,,,,,,,,cyan,circle
152.0,5.0,1.0,1.0,4.0,4.0,480.416679999962,1.0,1.0,part_1,,,,,,,,,,,,,magenta,triangle
347.0,6.0,2.0,1.0,3.0,3.0,391.2364200000411,1.0,1.0,part_1,,,,,,,,,,,,,blue,I
0.0,1.0,0.0,0.0,2.0,2.0,371.0835570000199,1.0,1.0,part_1,,,,,,,,,,,,,orange,diamond
182.0,5.0,1.0,1.0,2.0,2.0,501.0781699998006,1.0,1.0,part_1,,,,,,,,,,,,,magenta,triangle
0.0,6.0,0.0,1.0,3.0,3.0,444.2610330002026,1.0,1.0,part_1,,,,,,,,,,,,,blue,I
1307.0,8.0,4.0,1.0,4.0,4.0,400.2071310001156,1.0,1.0,part_1,,,,,,,,,,,,,yellow,cross
635.0,3.0,3.0,0.0,1.0,1.0,387.3485629997049,1.0,1.0,part_1,,,,,,,,,,,,,white,hexagon
345.0,2.0,2.0,0.0,1.0,1.0,456.3495359998342,1.0,1.0,part_1,,,,,,,,,,,,,gray,flipped triangle
325.0,6.0,2.0,1.0,1.0,1.0,372.7544049997959,1.0,1.0,part_1,,,,,,,,,,,,,blue,I
177.0,5.0,1.0,1.0,3.0,3.0,339.2569350003214,1.0,1.0,part_1,,,,,,,,,,,,,magenta,triangle
162.0,1.0,1.0,0.0,1.0,1.0,357.75881499967,1.0,1.0,part_1,,,,,,,,,,,,,orange,diamond
0.0,5.0,0.0,1.0,1.0,1.0,355.8623119997719,1.0,1.0,part_1,,,,,,,,,,,,,magenta,triangle
304.0,2.0,2.0,0.0,1.0,1.0,391.1239240001123,1.0,1.0,part_1,,,,,,,,,,,,,gray,flipped triangle
324.0,6.0,2.0,1.0,4.0,4.0,380.664980000347,1.0,1.0,part_1,,,,,,,,,,,,,blue,I
0.0,5.0,0.0,1.0,4.0,4.0,331.2616120001621,1.0,1.0,part_1,,,,,,,,,,,,,magenta,triangle
327.0,2.0,2.0,0.0,4.0,4.0,351.4758709998204,1.0,1.0,part_1,,,,,,,,,,,,,gray,flipped triangle
1302.0,4.0,4.0,0.0,3.0,3.0,412.092826999924,1.0,1.0,part_1,,,,,,,,,,,,,cyan,circle
137.0,1.0,1.0,0.0,1.0,1.0,350.6409839997104,1.0,1.0,part_1,,,,,,,,,,,,,orange,diamond
0.0,5.0,0.0,1.0,2.0,2.0,581.6765520003173,1.0,1.0,part_1,,,,,,,,,,,,,magenta,triangle
0.0,6.0,0.0,1.0,4.0,4.0,383.9381369998591,1.0,1.0,part_1,,,,,,,,,,,,,blue,I
1302.0,8.0,4.0,1.0,4.0,4.0,422.8681770000548,1.0,1.0,part_1,,,,,,,,,,,,,yellow,cross
1305.0,8.0,4.0,1.0,1.0,1.0,400.9408359997906,1.0,1.0,part_1,,,,,,,,,,,,,yellow,cross
633.0,3.0,3.0,0.0,4.0,4.0,398.5365680000541,1.0,1.0,part_1,,,,,,,,,,,,,white,hexagon
348.0,6.0,2.0,1.0,4.0,4.0,413.0106179991344,1.0,1.0,part_1,,,,,,,,,,,,,blue,I
0.0,5.0,0.0,1.0,4.0,4.0,439.3516330001148,1.0,1.0,part_1,,,,,,,,,,,,,magenta,triangle
177.0,1.0,1.0,0.0,2.0,2.0,557.3609599996416,1.0,1.0,part_1,,,,,,,,,,,,,orange,diamond
1290.0,4.0,4.0,0.0,4.0,4.0,383.9860449998014,1.0,1.0,part_1,,,,,,,,,,,,,cyan,circle
180.0,1.0,1.0,0.0,4.0,4.0,477.6915250004094,1.0,1.0,part_1,,,,,,,,,,,,,orange,diamond
1323.0,8.0,4.0,1.0,4.0,4.0,497.0449709999229,1.0,1.0,part_1,,,,,,,,,,,,,yellow,cross
0.0,2.0,0.0,0.0,4.0,4.0,471.5106540006673,1.0,1.0,part_1,,,,,,,,,,,,,gray,flipped triangle
0.0,8.0,0.0,1.0,1.0,1.0,528.0867700003,1.0,1.0,part_1,,,,,,,,,,,,,yellow,cross
633.0,7.0,3.0,1.0,1.0,1.0,559.424095000395,1.0,1.0,part_1,,,,,,,,,,,,,green,square
645.0,7.0,3.0,1.0,4.0,4.0,442.9969149996395,1.0,1.0,part_1,,,,,,,,,,,,,green,square
324.0,2.0,2.0,0.0,2.0,2.0,527.0644029997129,1.0,1.0,part_1,,,,,,,,,,,,,gray,flipped triangle
0.0,1.0,0.0,0.0,2.0,2.0,541.9231389996639,1.0,1.0,part_1,,,,,,,,,,,,,orange,diamond
168.0,1.0,1.0,0.0,3.0,3.0,369.358975999603,1.0,1.0,part_1,,,,,,,,,,,,,orange,diamond
1305.0,4.0,4.0,0.0,2.0,2.0,438.0922609998379,1.0,1.0,part_1,,,,,,,,,,,,,cyan,circle
645.0,3.0,3.0,0.0,2.0,2.0,346.4400539996859,1.0,1.0,part_1,,,,,,,,,,,,,white,hexagon
1301.0,8.0,4.0,1.0,1.0,1.0,488.0950209999355,1.0,1.0,part_1,,,,,,,,,,,,,yellow,cross
663.0,3.0,3.0,0.0,4.0,4.0,428.6814799997955,1.0,1.0,part_1,,,,,,,,,,,,,white,hexagon
0.0,1.0,0.0,0.0,3.0,3.0,345.4421940004977,1.0,1.0,part_1,,,,,,,,,,,,,orange,diamond
166.0,1.0,1.0,0.0,4.0,4.0,319.926918999954,1.0,1.0,part_1,,,,,,,,,,,,,orange,diamond
326.0,6.0,2.0,1.0,3.0,3.0,387.6787239996702,1.0,1.0,part_1,,,,,,,,,,,,,blue,I
674.0,3.0,3.0,0.0,3.0,3.0,383.4412359992711,1.0,1.0,part_1,,,,,,,,,,,,,white,hexagon
636.0,7.0,3.0,1.0,2.0,2.0,506.2241150008049,1.0,1.0,part_1,,,,,,,,,,,,,green,square
183.0,1.0,1.0,0.0,1.0,1.0,504.07051399997727,1.0,1.0,part_1,,,,,,,,,,,,,orange,diamond
0.0,7.0,0.0,1.0,4.0,4.0,291.6804269998465,1.0,1.0,part_1,,,,,,,,,,,,,green,square
674.0,7.0,3.0,1.0,2.0,2.0,344.326465999984,1.0,1.0,part_1,,,,,,,,,,,,,green,square
650.0,7.0,3.0,1.0,1.0,1.0,485.4542269995363,1.0,1.0,part_1,,,,,,,,,,,,,green,square
641.0,3.0,3.0,0.0,1.0,1.0,482.3146130001987,1.0,1.0,part_1,,,,,,,,,,,,,white,hexagon
651.0,7.0,3.0,1.0,3.0,3.0,344.9839320001047,1.0,1.0,part_1,,,,,,,,,,,,,green,square
321.0,2.0,2.0,0.0,1.0,1.0,571.1834789999557,1.0,1.0,part_1,,,,,,,,,,,,,gray,flipped triangle
179.0,5.0,1.0,1.0,2.0,2.0,616.0780360005447,1.0,1.0,part_1,,,,,,,,,,,,,magenta,triangle
177.0,1.0,1.0,0.0,2.0,2.0,414.7187670005223,1.0,1.0,part_1,,,,,,,,,,,,,orange,diamond
0.0,7.0,0.0,1.0,2.0,2.0,386.0858890002419,1.0,1.0,part_1,,,,,,,,,,,,,green,square
174.0,1.0,1.0,0.0,3.0,3.0,408.5599099998944,1.0,1.0,part_1,,,,,,,,,,,,,orange,diamond
162.0,5.0,1.0,1.0,2.0,2.0,458.0573230005029,1.0,1.0,part_1,,,,,,,,,,,,,magenta,triangle
300.0,2.0,2.0,0.0,3.0,3.0,353.2713699996748,1.0,1.0,part_1,,,,,,,,,,,,,gray,flipped triangle
0.0,1.0,0.0,0.0,3.0,3.0,325.2522089997001,1.0,1.0,part_1,,,,,,,,,,,,,orange,diamond
1294.0,4.0,4.0,0.0,4.0,4.0,449.4744280000304,1.0,1.0,part_1,,,,,,,,,,,,,cyan,circle
0.0,1.0,0.0,0.0,4.0,4.0,356.9719399993118,1.0,1.0,part_1,,,,,,,,,,,,,orange,diamond
1286.0,4.0,4.0,0.0,4.0,4.0,354.2786640000486,1.0,1.0,part_1,,,,,,,,,,,,,cyan,circle
1279.0,8.0,4.0,1.0,2.0,2.0,559.6123959994657,1.0,1.0,part_1,,,,,,,,,,,,,yellow,cross
0.0,5.0,0.0,1.0,3.0,3.0,453.1059679993632,1.0,1.0,part_1,,,,,,,,,,,,,magenta,triangle
170.0,1.0,1.0,0.0,4.0,4.0,303.7760220004202,1.0,1.0,part_1,,,,,,,,,,,,,orange,diamond
0.0,5.0,0.0,1.0,4.0,4.0,340.3447949995097,1.0,1.0,part_1,,,,,,,,,,,,,magenta,triangle
1315.0,8.0,4.0,1.0,2.0,2.0,326.0512940005355,1.0,2.0,part_1,,,,,,,,,,,,,yellow,cross
1295.0,4.0,4.0,0.0,4.0,4.0,330.3408740002851,1.0,1.0,part_1,,,,,,,,,,,,,cyan,circle
668.0,3.0,3.0,0.0,4.0,4.0,452.9635349999807,2.0,1.0,part_1,,,,,,,,,,,,,white,hexagon
1286.0,4.0,4.0,0.0,2.0,2.0,489.1996149999613,2.0,1.0,part_1,,,,,,,,,,,,,cyan,circle
636.0,7.0,3.0,1.0,3.0,3.0,424.0698319999865,2.0,1.0,part_1,,,,,,,,,,,,,green,square
1315.0,4.0,4.0,0.0,1.0,1.0,418.8690069995573,2.0,1.0,part_1,,,,,,,,,,,,,cyan,circle
628.0,7.0,3.0,1.0,2.0,2.0,422.860896000202,2.0,1.0,part_1,,,,,,,,,,,,,green,square
0.0,2.0,0.0,0.0,2.0,2.0,396.0376479999468,2.0,1.0,part_1,,,,,,,,,,,,,gray,flipped triangle
316.0,6.0,2.0,1.0,3.0,3.0,394.9703420003061,2.0,1.0,part_1,,,,,,,,,,,,,blue,I
0.0,8.0,0.0,1.0,3.0,3.0,447.661173000597,2.0,1.0,part_1,,,,,,,,,,,,,yellow,cross
1319.0,4.0,4.0,0.0,3.0,3.0,332.0944500001133,2.0,1.0,part_1,,,,,,,,,,,,,cyan,circle
304.0,6.0,2.0,1.0,4.0,4.0,453.7674209996112,2.0,1.0,part_1,,,,,,,,,,,,,blue,I
0.0,2.0,0.0,0.0,3.0,3.0,378.5666670000864,2.0,1.0,part_1,,,,,,,,,,,,,gray,flipped triangle
671.0,3.0,3.0,0.0,4.0,4.0,407.5665620002837,2.0,1.0,part_1,,,,,,,,,,,,,white,hexagon
1275.0,4.0,4.0,0.0,1.0,1.0,413.7015050000627,2.0,1.0,part_1,,,,,,,,,,,,,cyan,circle
166.0,1.0,1.0,0.0,1.0,1.0,465.1817560006748,2.0,1.0,part_1,,,,,,,,,,,,,orange,diamond
0.0,3.0,0.0,0.0,3.0,3.0,334.4152600002417,2.0,1.0,part_1,,,,,,,,,,,,,white,hexagon
331.0,2.0,2.0,0.0,3.0,3.0,330.2019909997398,2.0,1.0,part_1,,,,,,,,,,,,,gray,flipped triangle
168.0,5.0,1.0,1.0,2.0,2.0,375.6534679996548,2.0,1.0,part_1,,,,,,,,,,,,,magenta,triangle
166.0,5.0,1.0,1.0,4.0,4.0,411.1478189997797,2.0,1.0,part_1,,,,,,,,,,,,,magenta,triangle
348.0,2.0,2.0,0.0,3.0,3.0,346.728656999403,2.0,1.0,part_1,,,,,,,,,,,,,gray,flipped triangle
335.0,6.0,2.0,1.0,1.0,1.0,319.2541540001912,2.0,1.0,part_1,,,,,,,,,,,,,blue,I
1299.0,8.0,4.0,1.0,2.0,2.0,530.441496000094,2.0,1.0,part_1,,,,,,,,,,,,,yellow,cross
318.0,6.0,2.0,1.0,2.0,2.0,566.5650989994901,2.0,1.0,part_1,,,,,,,,,,,,,blue,I
663.0,7.0,3.0,1.0,2.0,2.0,476.3485459998264,2.0,1.0,part_1,,,,,,,,,,,,,green,square
302.0,2.0,2.0,0.0,2.0,2.0,351.2561550005557,2.0,1.0,part_1,,,,,,,,,,,,,gray,flipped triangle
153.0,5.0,1.0,1.0,3.0,3.0,395.6840850005392,2.0,1.0,part_1,,,,,,,,,,,,,magenta,triangle
345.0,2.0,2.0,0.0,4.0,4.0,393.7164339995433,2.0,1.0,part_1,,,,,,,,,,,,,gray,flipped triangle
140.0,5.0,1.0,1.0,4.0,4.0,324.8454300000958,2.0,1.0,part_1,,,,,,,,,,,,,magenta,triangle
1315.0,8.0,4.0,1.0,4.0,4.0,345.5650610003431,2.0,1.0,part_1,,,,,,,,,,,,,yellow,cross
154.0,1.0,1.0,0.0,3.0,3.0,384.7689630001696,2.0,1.0,part_1,,,,,,,,,,,,,orange,diamond
661.0,3.0,3.0,0.0,2.0,2.0,443.3078669999304,2.0,1.0,part_1,,,,,,,,,,,,,white,hexagon
0.0,3.0,0.0,0.0,2.0,2.0,425.4332330001489,2.0,1.0,part_1,,,,,,,,,,,,,white,hexagon
170.0,1.0,1.0,0.0,1.0,1.0,453.2029680003688,2.0,1.0,part_1,,,,,,,,,,,,,orange,diamond
1311.0,4.0,4.0,0.0,3.0,3.0,360.4471720000219,2.0,1.0,part_1,,,,,,,,,,,,,cyan,circle
178.0,1.0,1.0,0.0,2.0,2.0,422.6720659999046,2.0,1.0,part_1,,,,,,,,,,,,,orange,diamond
639.0,7.0,3.0,1.0,2.0,2.0,411.5291810003327,2.0,1.0,part_1,,,,,,,,,,,,,green,square
171.0,1.0,1.0,0.0,3.0,3.0,417.6498150000043,2.0,1.0,part_1,,,,,,,,,,,,,orange,diamond
324.0,2.0,2.0,0.0,1.0,1.0,420.9385829999519,2.0,1.0,part_1,,,,,,,,,,,,,gray,flipped triangle
141.0,1.0,1.0,0.0,1.0,1.0,361.4522910002051,2.0,1.0,part_1,,,,,,,,,,,,,orange,diamond
0.0,3.0,0.0,0.0,2.0,2.0,508.0938230003085,2.0,1.0,part_1,,,,,,,,,,,,,white,hexagon
1322.0,8.0,4.0,1.0,4.0,4.0,559.0112709996902,2.0,2.0,part_1,,,,,,,,,,,,,yellow,cross
338.0,2.0,2.0,0.0,3.0,3.0,476.9229530002121,2.0,1.0,part_1,,,,,,,,,,,,,gray,flipped triangle
146.0,1.0,1.0,0.0,3.0,3.0,384.5003529995665,2.0,1.0,part_1,,,,,,,,,,,,,orange,diamond
671.0,3.0,3.0,0.0,1.0,1.0,411.4048849996834,2.0,1.0,part_1,,,,,,,,,,,,,white,hexagon
1309.0,8.0,4.0,1.0,3.0,3.0,352.6314309992813,2.0,1.0,part_1,,,,,,,,,,,,,yellow,cross
647.0,3.0,3.0,0.0,3.0,3.0,390.5374780006241,2.0,1.0,part_1,,,,,,,,,,,,,white,hexagon
341.0,6.0,2.0,1.0,1.0,1.0,361.1104170004182,2.0,1.0,part_1,,,,,,,,,,,,,blue,I
637.0,3.0,3.0,0.0,3.0,3.0,352.8811989999667,2.0,1.0,part_1,,,,,,,,,,,,,white,hexagon
1278.0,8.0,4.0,1.0,3.0,3.0,349.8771029999261,2.0,1.0,part_1,,,,,,,,,,,,,yellow,cross
0.0,2.0,0.0,0.0,1.0,1.0,431.1132199991334,2.0,1.0,part_1,,,,,,,,,,,,,gray,flipped triangle
668.0,7.0,3.0,1.0,1.0,1.0,528.2539419995373,2.0,2.0,part_1,,,,,,,,,,,,,green,square
149.0,1.0,1.0,0.0,3.0,3.0,399.9044040001536,2.0,1.0,part_1,,,,,,,,,,,,,orange,diamond
345.0,6.0,2.0,1.0,3.0,3.0,396.0716029996547,2.0,1.0,part_1,,,,,,,,,,,,,blue,I
1300.0,8.0,4.0,1.0,1.0,1.0,582.1899219999978,2.0,1.0,part_1,,,,,,,,,,,,,yellow,cross
1323.0,8.0,4.0,1.0,1.0,1.0,477.5935289999324,2.0,1.0,part_1,,,,,,,,,,,,,yellow,cross
172.0,1.0,1.0,0.0,4.0,4.0,431.9966299999578,2.0,1.0,part_1,,,,,,,,,,,,,orange,diamond
636.0,3.0,3.0,0.0,3.0,3.0,396.4685830005692,2.0,1.0,part_1,,,,,,,,,,,,,white,hexagon
305.0,6.0,2.0,1.0,4.0,4.0,441.1390570003277,2.0,1.0,part_1,,,,,,,,,,,,,blue,I
0.0,8.0,0.0,1.0,1.0,1.0,430.1748979996773,2.0,1.0,part_1,,,,,,,,,,,,,yellow,cross
1275.0,8.0,4.0,1.0,3.0,3.0,362.9827639997529,2.0,1.0,part_1,,,,,,,,,,,,,yellow,cross
1299.0,4.0,4.0,0.0,3.0,3.0,383.2920920003744,2.0,1.0,part_1,,,,,,,,,,,,,cyan,circle
0.0,2.0,0.0,0.0,4.0,4.0,396.6673279992392,2.0,1.0,part_1,,,,,,,,,,,,,gray,flipped triangle
144.0,1.0,1.0,0.0,2.0,2.0,525.9526919999189,2.0,1.0,part_1,,,,,,,,,,,,,orange,diamond
0.0,8.0,0.0,1.0,2.0,2.0,460.4687219998595,2.0,1.0,part_1,,,,,,,,,,,,,yellow,cross
0.0,1.0,0.0,0.0,1.0,1.0,553.5005969995836,2.0,1.0,part_1,,,,,,,,,,,,,orange,diamond
0.0,1.0,0.0,0.0,4.0,4.0,325.8596230007242,2.0,1.0,part_1,,,,,,,,,,,,,orange,diamond
1302.0,4.0,4.0,0.0,2.0,2.0,500.9719350000523,2.0,1.0,part_1,,,,,,,,,,,,,cyan,circle
625.0,3.0,3.0,0.0,2.0,2.0,391.0836919994835,2.0,1.0,part_1,,,,,,,,,,,,,white,hexagon
1304.0,4.0,4.0,0.0,1.0,1.0,509.4133660004445,2.0,1.0,part_1,,,,,,,,,,,,,cyan,circle
138.0,1.0,1.0,0.0,2.0,2.0,458.4861650000675,2.0,1.0,part_1,,,,,,,,,,,,,orange,diamond
647.0,7.0,3.0,1.0,1.0,1.0,495.305905999885,2.0,1.0,part_1,,,,,,,,,,,,,green,square
310.0,2.0,2.0,0.0,1.0,1.0,403.5023760006879,2.0,1.0,part_1,,,,,,,,,,,,,gray,flipped triangle
144.0,5.0,1.0,1.0,3.0,3.0,445.562425999924,2.0,1.0,part_1,,,,,,,,,,,,,magenta,triangle
319.0,2.0,2.0,0.0,2.0,2.0,556.8797949999862,2.0,1.0,part_1,,,,,,,,,,,,,gray,flipped triangle
1279.0,8.0,4.0,1.0,2.0,2.0,513.0439730000944,2.0,1.0,part_1,,,,,,,,,,,,,yellow,cross
0.0,3.0,0.0,0.0,4.0,4.0,462.2925100002248,2.0,1.0,part_1,,,,,,,,,,,,,white,hexagon
0.0,4.0,0.0,0.0,1.0,1.0,416.3796050006567,2.0,1.0,part_1,,,,,,,,,,,,,cyan,circle
1302.0,8.0,4.0,1.0,2.0,2.0,661.1102590004521,2.0,1.0,part_1,,,,,,,,,,,,,yellow,cross
634.0,3.0,3.0,0.0,3.0,3.0,331.7037550004897,2.0,1.0,part_1,,,,,,,,,,,,,white,hexagon
301.0,6.0,2.0,1.0,3.0,3.0,342.2883900002489,2.0,1.0,part_1,,,,,,,,,,,,,blue,I
0.0,2.0,0.0,0.0,4.0,4.0,402.7078589997472,2.0,1.0,part_1,,,,,,,,,,,,,gray,flipped triangle
665.0,3.0,3.0,0.0,2.0,2.0,512.8248680002798,2.0,1.0,part_1,,,,,,,,,,,,,white,hexagon
1281.0,8.0,4.0,1.0,2.0,2.0,462.2654889999467,2.0,1.0,part_1,,,,,,,,,,,,,yellow,cross
327.0,2.0,2.0,0.0,3.0,3.0,482.3969229992144,2.0,1.0,part_1,,,,,,,,,,,,,gray,flipped triangle
1298.0,8.0,4.0,1.0,3.0,3.0,503.6890350002068,2.0,1.0,part_1,,,,,,,,,,,,,yellow,cross
1322.0,4.0,4.0,0.0,4.0,4.0,459.7609540005578,2.0,1.0,part_1,,,,,,,,,,,,,cyan,circle
335.0,2.0,2.0,0.0,3.0,3.0,342.4315330003082,2.0,1.0,part_1,,,,,,,,,,,,,gray,flipped triangle
341.0,6.0,2.0,1.0,1.0,1.0,524.9563690003924,2.0,1.0,part_1,,,,,,,,,,,,,blue,I
1282.0,8.0,4.0,1.0,1.0,1.0,377.2925370003577,2.0,1.0,part_1,,,,,,,,,,,,,yellow,cross
628.0,3.0,3.0,0.0,2.0,2.0,638.7523310004326,2.0,1.0,part_1,,,,,,,,,,,,,white,hexagon
152.0,5.0,1.0,1.0,2.0,2.0,545.0057889993332,2.0,1.0,part_1,,,,,,,,,,,,,magenta,triangle
653.0,3.0,3.0,0.0,4.0,4.0,421.9741469996734,2.0,1.0,part_1,,,,,,,,,,,,,white,hexagon
0.0,2.0,0.0,0.0,4.0,4.0,516.2765550003314,2.0,1.0,part_1,,,,,,,,,,,,,gray,flipped triangle
302.0,6.0,2.0,1.0,1.0,1.0,503.84684300024674,2.0,1.0,part_1,,,,,,,,,,,,,blue,I
0.0,5.0,0.0,1.0,4.0,4.0,347.9078439995646,2.0,1.0,part_1,,,,,,,,,,,,,magenta,triangle
0.0,3.0,0.0,0.0,2.0,2.0,546.5729500001544,2.0,1.0,part_1,,,,,,,,,,,,,white,hexagon
1284.0,4.0,4.0,0.0,1.0,1.0,557.7833429997554,2.0,1.0,part_1,,,,,,,,,,,,,cyan,circle
152.0,5.0,1.0,1.0,1.0,1.0,416.9657410002401,2.0,1.0,part_1,,,,,,,,,,,,,magenta,triangle
1290.0,8.0,4.0,1.0,4.0,4.0,384.7448559999975,2.0,1.0,part_1,,,,,,,,,,,,,yellow,cross
137.0,5.0,1.0,1.0,2.0,2.0,571.3300120005442,2.0,1.0,part_1,,,,,,,,,,,,,magenta,triangle
644.0,7.0,3.0,1.0,4.0,4.0,335.4021920004015,2.0,1.0,part_1,,,,,,,,,,,,,green,square
182.0,1.0,1.0,0.0,4.0,4.0,448.8763019999169,3.0,1.0,part_1,,,,,,,,,,,,,orange,diamond
317.0,2.0,2.0,0.0,2.0,2.0,418.0271719997108,3.0,1.0,part_1,,,,,,,,,,,,,gray,flipped triangle
150.0,1.0,1.0,0.0,4.0,4.0,327.5443880002058,3.0,1.0,part_1,,,,,,,,,,,,,orange,diamond
0.0,3.0,0.0,0.0,4.0,4.0,340.0773779994779,3.0,1.0,part_1,,,,,,,,,,,,,white,hexagon
663.0,3.0,3.0,0.0,1.0,1.0,488.9803870000833,3.0,1.0,part_1,,,,,,,,,,,,,white,hexagon
302.0,2.0,2.0,0.0,1.0,1.0,381.0668480000458,3.0,1.0,part_1,,,,,,,,,,,,,gray,flipped triangle
144.0,1.0,1.0,0.0,2.0,2.0,443.6129690002417,3.0,1.0,part_1,,,,,,,,,,,,,orange,diamond
331.0,6.0,2.0,1.0,4.0,4.0,351.5937510001095,3.0,1.0,part_1,,,,,,,,,,,,,blue,I
1315.0,4.0,4.0,0.0,3.0,3.0,315.4922759995315,3.0,1.0,part_1,,,,,,,,,,,,,cyan,circle
663.0,7.0,3.0,1.0,1.0,1.0,383.7926420001167,3.0,1.0,part_1,,,,,,,,,,,,,green,square
1323.0,4.0,4.0,0.0,4.0,4.0,413.1110970001828,3.0,1.0,part_1,,,,,,,,,,,,,cyan,circle
312.0,2.0,2.0,0.0,3.0,3.0,412.1507979998569,3.0,1.0,part_1,,,,,,,,,,,,,gray,flipped triangle
323.0,6.0,2.0,1.0,2.0,2.0,368.3111059999646,3.0,1.0,part_1,,,,,,,,,,,,,blue,I
634.0,7.0,3.0,1.0,3.0,3.0,373.037820000718,3.0,1.0,part_1,,,,,,,,,,,,,green,square
171.0,5.0,1.0,1.0,2.0,2.0,447.8503000000273,3.0,1.0,part_1,,,,,,,,,,,,,magenta,triangle
340.0,6.0,2.0,1.0,3.0,3.0,396.6668650000429,3.0,1.0,part_1,,,,,,,,,,,,,blue,I
663.0,3.0,3.0,0.0,3.0,3.0,360.2015229998869,3.0,1.0,part_1,,,,,,,,,,,,,white,hexagon
625.0,7.0,3.0,1.0,4.0,4.0,430.1447810003083,3.0,1.0,part_1,,,,,,,,,,,,,green,square
171.0,5.0,1.0,1.0,3.0,3.0,331.9407359995239,3.0,1.0,part_1,,,,,,,,,,,,,magenta,triangle
1284.0,8.0,4.0,1.0,1.0,1.0,517.8000119994977,3.0,1.0,part_1,,,,,,,,,,,,,yellow,cross
628.0,3.0,3.0,0.0,1.0,1.0,458.6394590005511,3.0,1.0,part_1,,,,,,,,,,,,,white,hexagon
0.0,3.0,0.0,0.0,4.0,4.0,319.17046900071,3.0,1.0,part_1,,,,,,,,,,,,,white,hexagon
647.0,3.0,3.0,0.0,3.0,3.0,364.0240289996654,3.0,1.0,part_1,,,,,,,,,,,,,white,hexagon
661.0,7.0,3.0,1.0,1.0,1.0,360.5200590000095,3.0,1.0,part_1,,,,,,,,,,,,,green,square
152.0,1.0,1.0,0.0,3.0,3.0,381.608308000068,3.0,1.0,part_1,,,,,,,,,,,,,orange,diamond
0.0,6.0,0.0,1.0,3.0,3.0,363.1980339996516,3.0,1.0,part_1,,,,,,,,,,,,,blue,I
0.0,7.0,0.0,1.0,3.0,3.0,310.3108320001411,3.0,1.0,part_1,,,,,,,,,,,,,green,square
335.0,6.0,2.0,1.0,4.0,4.0,333.5370619997775,3.0,1.0,part_1,,,,,,,,,,,,,blue,I
630.0,3.0,3.0,0.0,1.0,1.0,488.9684230001876,3.0,1.0,part_1,,,,,,,,,,,,,white,hexagon
185.0,1.0,1.0,0.0,3.0,3.0,334.3660020000243,3.0,1.0,part_1,,,,,,,,,,,,,orange,diamond
329.0,2.0,2.0,0.0,3.0,3.0,376.7530830000396,3.0,1.0,part_1,,,,,,,,,,,,,gray,flipped triangle
319.0,6.0,2.0,1.0,2.0,2.0,511.62927899986244,3.0,1.0,part_1,,,,,,,,,,,,,blue,I
0.0,3.0,0.0,0.0,1.0,1.0,386.920807000024,3.0,1.0,part_1,,,,,,,,,,,,,white,hexagon
150.0,5.0,1.0,1.0,2.0,2.0,455.2319909998914,3.0,1.0,part_1,,,,,,,,,,,,,magenta,triangle
341.0,2.0,2.0,0.0,4.0,4.0,390.4053060005026,3.0,1.0,part_1,,,,,,,,,,,,,gray,flipped triangle
645.0,3.0,3.0,0.0,4.0,4.0,456.5139469996211,3.0,1.0,part_1,,,,,,,,,,,,,white,hexagon
0.0,6.0,0.0,1.0,2.0,2.0,604.6386620000703,3.0,1.0,part_1,,,,,,,,,,,,,blue,I
0.0,4.0,0.0,0.0,3.0,3.0,465.3003179992083,3.0,1.0,part_1,,,,,,,,,,,,,cyan,circle
146.0,5.0,1.0,1.0,4.0,4.0,366.8382910000218,3.0,1.0,part_1,,,,,,,,,,,,,magenta,triangle
340.0,2.0,2.0,0.0,4.0,4.0,394.7040849998302,3.0,1.0,part_1,,,,,,,,,,,,,gray,flipped triangle
1281.0,4.0,4.0,0.0,4.0,4.0,351.6360080002414,3.0,1.0,part_1,,,,,,,,,,,,,cyan,circle
0.0,7.0,0.0,1.0,1.0,1.0,485.5635300000358,3.0,1.0,part_1,,,,,,,,,,,,,green,square
1311.0,8.0,4.0,1.0,4.0,4.0,426.2439800004358,3.0,1.0,part_1,,,,,,,,,,,,,yellow,cross
0.0,4.0,0.0,0.0,2.0,2.0,608.0377239995869,3.0,1.0,part_1,,,,,,,,,,,,,cyan,circle
0.0,3.0,0.0,0.0,4.0,4.0,307.8658909998921,3.0,1.0,part_1,,,,,,,,,,,,,white,hexagon
301.0,2.0,2.0,0.0,4.0,4.0,415.0080330000492,3.0,1.0,part_1,,,,,,,,,,,,,gray,flipped triangle
150.0,1.0,1.0,0.0,2.0,2.0,458.4495190001689,3.0,1.0,part_1,,,,,,,,,,,,,orange,diamond
0.0,4.0,0.0,0.0,2.0,2.0,360.1250490000893,3.0,1.0,part_1,,,,,,,,,,,,,cyan,circle
336.0,2.0,2.0,0.0,1.0,1.0,438.9270290002969,3.0,1.0,part_1,,,,,,,,,,,,,gray,flipped triangle
318.0,2.0,2.0,0.0,1.0,1.0,417.0894459994088,3.0,1.0,part_1,,,,,,,,,,,,,gray,flipped triangle
653.0,3.0,3.0,0.0,2.0,2.0,654.5100329994966,3.0,1.0,part_1,,,,,,,,,,,,,white,hexagon
0.0,4.0,0.0,0.0,4.0,4.0,396.7473309994602,3.0,1.0,part_1,,,,,,,,,,,,,cyan,circle
182.0,1.0,1.0,0.0,2.0,2.0,471.1851709998882,3.0,1.0,part_1,,,,,,,,,,,,,orange,diamond
1284.0,8.0,4.0,1.0,2.0,2.0,395.5278299999918,3.0,1.0,part_1,,,,,,,,,,,,,yellow,cross
335.0,2.0,2.0,0.0,1.0,1.0,626.9468729997243,3.0,1.0,part_1,,,,,,,,,,,,,gray,flipped triangle
149.0,5.0,1.0,1.0,1.0,1.0,518.6612890001925,3.0,1.0,part_1,,,,,,,,,,,,,magenta,triangle
639.0,3.0,3.0,0.0,1.0,1.0,402.0310490004704,3.0,1.0,part_1,,,,,,,,,,,,,white,hexagon
628.0,7.0,3.0,1.0,4.0,4.0,358.0280599999241,3.0,1.0,part_1,,,,,,,,,,,,,green,square
0.0,8.0,0.0,1.0,3.0,3.0,515.6978669992895,3.0,1.0,part_1,,,,,,,,,,,,,yellow,cross
305.0,2.0,2.0,0.0,2.0,2.0,366.7689210005846,3.0,1.0,part_1,,,,,,,,,,,,,gray,flipped triangle
0.0,4.0,0.0,0.0,3.0,3.0,348.3744690001913,3.0,1.0,part_1,,,,,,,,,,,,,cyan,circle
312.0,6.0,2.0,1.0,3.0,3.0,344.5830959999512,3.0,1.0,part_1,,,,,,,,,,,,,blue,I
1304.0,8.0,4.0,1.0,3.0,3.0,357.8788820004774,3.0,1.0,part_1,,,,,,,,,,,,,yellow,cross
1295.0,8.0,4.0,1.0,4.0,4.0,364.784762000454,3.0,1.0,part_1,,,,,,,,,,,,,yellow,cross
0.0,1.0,0.0,0.0,4.0,4.0,369.1885849993923,3.0,1.0,part_1,,,,,,,,,,,,,orange,diamond
0.0,5.0,0.0,1.0,3.0,3.0,315.0479070000074,3.0,1.0,part_1,,,,,,,,,,,,,magenta,triangle
347.0,2.0,2.0,0.0,1.0,1.0,519.4279099996493,3.0,1.0,part_1,,,,,,,,,,,,,gray,flipped triangle
637.0,7.0,3.0,1.0,3.0,3.0,356.6310739997789,3.0,1.0,part_1,,,,,,,,,,,,,green,square
671.0,7.0,3.0,1.0,2.0,2.0,523.6028659992371,3.0,1.0,part_1,,,,,,,,,,,,,green,square
1309.0,4.0,4.0,0.0,3.0,3.0,421.9207320002169,3.0,1.0,part_1,,,,,,,,,,,,,cyan,circle
675.0,7.0,3.0,1.0,4.0,4.0,338.9310610000393,3.0,1.0,part_1,,,,,,,,,,,,,green,square
1322.0,8.0,4.0,1.0,2.0,2.0,494.7052099996654,3.0,1.0,part_1,,,,,,,,,,,,,yellow,cross
177.0,5.0,1.0,1.0,4.0,4.0,373.9166199993633,3.0,1.0,part_1,,,,,,,,,,,,,magenta,triangle
182.0,1.0,1.0,0.0,2.0,2.0,913.3812410000246,3.0,1.0,part_1,,,,,,,,,,,,,orange,diamond
328.0,6.0,2.0,1.0,2.0,2.0,524.8495339992587,3.0,1.0,part_1,,,,,,,,,,,,,blue,I
166.0,5.0,1.0,1.0,1.0,1.0,435.4866710000351,3.0,1.0,part_1,,,,,,,,,,,,,magenta,triangle
0.0,6.0,0.0,1.0,1.0,1.0,480.0318699999479,3.0,1.0,part_1,,,,,,,,,,,,,blue,I
1310.0,4.0,4.0,0.0,3.0,3.0,490.9884559992861,3.0,1.0,part_1,,,,,,,,,,,,,cyan,circle
0.0,5.0,0.0,1.0,2.0,2.0,465.7257069993648,3.0,1.0,part_1,,,,,,,,,,,,,magenta,triangle
316.0,2.0,2.0,0.0,2.0,2.0,467.7255919996241,3.0,1.0,part_1,,,,,,,,,,,,,gray,flipped triangle
0.0,7.0,0.0,1.0,4.0,4.0,474.9864190007429,3.0,1.0,part_1,,,,,,,,,,,,,green,square
326.0,2.0,2.0,0.0,2.0,2.0,446.8740449992765,3.0,1.0,part_1,,,,,,,,,,,,,gray,flipped triangle
0.0,3.0,0.0,0.0,2.0,2.0,425.9741460000441,3.0,1.0,part_1,,,,,,,,,,,,,white,hexagon
0.0,2.0,0.0,0.0,2.0,2.0,502.19159799962654,3.0,1.0,part_1,,,,,,,,,,,,,gray,flipped triangle
138.0,5.0,1.0,1.0,3.0,3.0,491.4797800001906,3.0,1.0,part_1,,,,,,,,,,,,,magenta,triangle
302.0,6.0,2.0,1.0,1.0,1.0,657.9247109993958,3.0,1.0,part_1,,,,,,,,,,,,,blue,I
323.0,2.0,2.0,0.0,2.0,2.0,555.7260669993411,3.0,1.0,part_1,,,,,,,,,,,,,gray,flipped triangle
1284.0,4.0,4.0,0.0,4.0,4.0,393.0808429995522,3.0,1.0,part_1,,,,,,,,,,,,,cyan,circle
0.0,4.0,0.0,0.0,4.0,4.0,454.2488249999223,3.0,1.0,part_1,,,,,,,,,,,,,cyan,circle
1279.0,4.0,4.0,0.0,4.0,4.0,387.6367860002574,3.0,1.0,part_1,,,,,,,,,,,,,cyan,circle
140.0,1.0,1.0,0.0,2.0,2.0,560.7118810003158,3.0,1.0,part_1,,,,,,,,,,,,,orange,diamond
348.0,6.0,2.0,1.0,1.0,1.0,507.1589889994357,3.0,1.0,part_1,,,,,,,,,,,,,blue,I
324.0,6.0,2.0,1.0,2.0,2.0,798.9190580001377,3.0,1.0,part_1,,,,,,,,,,,,,blue,I
0.0,6.0,0.0,1.0,2.0,2.0,388.7525589998404,3.0,1.0,part_1,,,,,,,,,,,,,blue,I
1298.0,4.0,4.0,0.0,4.0,4.0,408.7076810001235,3.0,1.0,part_1,,,,,,,,,,,,,cyan,circle
0.0,8.0,0.0,1.0,4.0,4.0,381.5618270000414,3.0,1.0,part_1,,,,,,,,,,,,,yellow,cross
655.0,3.0,3.0,0.0,4.0,4.0,330.7445469999948,3.0,1.0,part_1,,,,,,,,,,,,,white,hexagon
158.0,1.0,1.0,0.0,3.0,3.0,607.7232899997398,3.0,1.0,part_1,,,,,,,,,,,,,orange,diamond
645.0,7.0,3.0,1.0,4.0,4.0,403.0060439999943,3.0,1.0,part_1,,,,,,,,,,,,,green,square
182.0,5.0,1.0,1.0,3.0,3.0,416.3118110000141,3.0,1.0,part_1,,,,,,,,,,,,,magenta,triangle
138.0,1.0,1.0,0.0,3.0,3.0,499.9540569997407,4.0,1.0,part_1,,,,,,,,,,,,,orange,diamond
1285.0,8.0,4.0,1.0,1.0,1.0,417.1279140000479,4.0,1.0,part_1,,,,,,,,,,,,,yellow,cross
178.0,5.0,1.0,1.0,4.0,4.0,294.7335959997872,4.0,1.0,part_1,,,,,,,,,,,,,magenta,triangle
0.0,8.0,0.0,1.0,4.0,4.0,330.3085809993717,4.0,1.0,part_1,,,,,,,,,,,,,yellow,cross
1285.0,4.0,4.0,0.0,1.0,1.0,421.4310480001586,4.0,1.0,part_1,,,,,,,,,,,,,cyan,circle
310.0,6.0,2.0,1.0,4.0,4.0,388.1314890004432,4.0,1.0,part_1,,,,,,,,,,,,,blue,I
171.0,1.0,1.0,0.0,1.0,1.0,488.6911079993297,4.0,1.0,part_1,,,,,,,,,,,,,orange,diamond
1323.0,4.0,4.0,0.0,2.0,2.0,419.459769000241,4.0,1.0,part_1,,,,,,,,,,,,,cyan,circle
0.0,6.0,0.0,1.0,4.0,4.0,370.4043999996429,4.0,1.0,part_1,,,,,,,,,,,,,blue,I
336.0,6.0,2.0,1.0,2.0,2.0,452.353416000733,4.0,1.0,part_1,,,,,,,,,,,,,blue,I
0.0,2.0,0.0,0.0,4.0,4.0,345.4218929991839,4.0,1.0,part_1,,,,,,,,,,,,,gray,flipped triangle
650.0,3.0,3.0,0.0,4.0,4.0,366.0149269999238,4.0,1.0,part_1,,,,,,,,,,,,,white,hexagon
312.0,2.0,2.0,0.0,2.0,2.0,434.7838929998033,4.0,1.0,part_1,,,,,,,,,,,,,gray,flipped triangle
1310.0,8.0,4.0,1.0,3.0,3.0,440.2276420005364,4.0,1.0,part_1,,,,,,,,,,,,,yellow,cross
655.0,7.0,3.0,1.0,2.0,2.0,555.7009730000573,4.0,1.0,part_1,,,,,,,,,,,,,green,square
661.0,3.0,3.0,0.0,4.0,4.0,320.8873170005972,4.0,1.0,part_1,,,,,,,,,,,,,white,hexagon
655.0,7.0,3.0,1.0,1.0,1.0,463.0202539992751,4.0,1.0,part_1,,,,,,,,,,,,,green,square
635.0,7.0,3.0,1.0,2.0,2.0,820.6610099996396,4.0,1.0,part_1,,,,,,,,,,,,,green,square
0.0,8.0,0.0,1.0,2.0,2.0,477.625686000465,4.0,1.0,part_1,,,,,,,,,,,,,yellow,cross
0.0,2.0,0.0,0.0,1.0,1.0,383.4723970003324,4.0,2.0,part_1,,,,,,,,,,,,,gray,flipped triangle
0.0,5.0,0.0,1.0,4.0,4.0,390.1675589995648,4.0,1.0,part_1,,,,,,,,,,,,,magenta,triangle
1307.0,4.0,4.0,0.0,1.0,1.0,578.2738160005465,4.0,1.0,part_1,,,,,,,,,,,,,cyan,circle
311.0,2.0,2.0,0.0,4.0,4.0,517.4620600000708,4.0,1.0,part_1,,,,,,,,,,,,,gray,flipped triangle
309.0,6.0,2.0,1.0,4.0,4.0,402.2061659998144,4.0,1.0,part_1,,,,,,,,,,,,,blue,I
661.0,7.0,3.0,1.0,3.0,3.0,494.687905000319,4.0,1.0,part_1,,,,,,,,,,,,,green,square
630.0,7.0,3.0,1.0,3.0,3.0,381.0845890002383,4.0,1.0,part_1,,,,,,,,,,,,,green,square
141.0,5.0,1.0,1.0,4.0,4.0,521.5830659999483,4.0,1.0,part_1,,,,,,,,,,,,,magenta,triangle
1310.0,8.0,4.0,1.0,1.0,1.0,565.3782070003217,4.0,1.0,part_1,,,,,,,,,,,,,yellow,cross
345.0,6.0,2.0,1.0,1.0,1.0,473.5776400002578,4.0,1.0,part_1,,,,,,,,,,,,,blue,I
182.0,5.0,1.0,1.0,1.0,1.0,456.2695710001208,4.0,1.0,part_1,,,,,,,,,,,,,magenta,triangle
1315.0,8.0,4.0,1.0,2.0,2.0,617.8045839997139,4.0,1.0,part_1,,,,,,,,,,,,,yellow,cross
653.0,7.0,3.0,1.0,4.0,4.0,464.6144629996342,4.0,1.0,part_1,,,,,,,,,,,,,green,square
655.0,3.0,3.0,0.0,1.0,1.0,539.1117069993925,4.0,1.0,part_1,,,,,,,,,,,,,white,hexagon
653.0,7.0,3.0,1.0,1.0,1.0,536.6281340002388,4.0,1.0,part_1,,,,,,,,,,,,,green,square
0.0,7.0,0.0,1.0,2.0,2.0,796.9487919999665,4.0,1.0,part_1,,,,,,,,,,,,,green,square
168.0,1.0,1.0,0.0,1.0,1.0,521.6924979995383,4.0,1.0,part_1,,,,,,,,,,,,,orange,diamond
641.0,7.0,3.0,1.0,4.0,4.0,422.1559860006891,4.0,1.0,part_1,,,,,,,,,,,,,green,square
329.0,6.0,2.0,1.0,1.0,1.0,437.4926779992165,4.0,1.0,part_1,,,,,,,,,,,,,blue,I
0.0,6.0,0.0,1.0,1.0,1.0,399.5783640002628,4.0,1.0,part_1,,,,,,,,,,,,,blue,I
174.0,5.0,1.0,1.0,1.0,1.0,454.9606769996899,4.0,1.0,part_1,,,,,,,,,,,,,magenta,triangle
179.0,1.0,1.0,0.0,4.0,4.0,699.5649099999355,4.0,1.0,part_1,,,,,,,,,,,,,orange,diamond
170.0,5.0,1.0,1.0,3.0,3.0,413.2892869993156,4.0,1.0,part_1,,,,,,,,,,,,,magenta,triangle
153.0,1.0,1.0,0.0,1.0,1.0,778.4568919996673,4.0,1.0,part_1,,,,,,,,,,,,,orange,diamond
341.0,2.0,2.0,0.0,4.0,4.0,438.8883699994039,4.0,1.0,part_1,,,,,,,,,,,,,gray,flipped triangle
1310.0,4.0,4.0,0.0,1.0,1.0,915.0880839997626,4.0,1.0,part_1,,,,,,,,,,,,,cyan,circle
312.0,6.0,2.0,1.0,4.0,4.0,570.3310200005944,4.0,1.0,part_1,,,,,,,,,,,,,blue,I
0.0,4.0,0.0,0.0,2.0,2.0,612.5476879997223,4.0,1.0,part_1,,,,,,,,,,,,,cyan,circle
338.0,6.0,2.0,1.0,2.0,2.0,513.4894710008666,4.0,1.0,part_1,,,,,,,,,,,,,blue,I
162.0,1.0,1.0,0.0,4.0,4.0,480.2431329999308,4.0,1.0,part_1,,,,,,,,,,,,,orange,diamond
1322.0,4.0,4.0,0.0,2.0,2.0,562.5269330002993,4.0,1.0,part_1,,,,,,,,,,,,,cyan,circle
661.0,7.0,3.0,1.0,3.0,3.0,456.1338960002103,4.0,1.0,part_1,,,,,,,,,,,,,green,square
1301.0,4.0,4.0,0.0,2.0,2.0,460.906272000102,4.0,1.0,part_1,,,,,,,,,,,,,cyan,circle
0.0,7.0,0.0,1.0,2.0,2.0,464.2404039996108,4.0,1.0,part_1,,,,,,,,,,,,,green,square
150.0,5.0,1.0,1.0,1.0,1.0,621.295820999876,4.0,1.0,part_1,,,,,,,,,,,,,magenta,triangle
321.0,6.0,2.0,1.0,2.0,2.0,586.023452999143,4.0,1.0,part_1,,,,,,,,,,,,,blue,I
665.0,7.0,3.0,1.0,4.0,4.0,374.8630620002586,4.0,1.0,part_1,,,,,,,,,,,,,green,square
1294.0,8.0,4.0,1.0,3.0,3.0,451.7038980002326,4.0,1.0,part_1,,,,,,,,,,,,,yellow,cross
183.0,5.0,1.0,1.0,3.0,3.0,479.952520999177,4.0,1.0,part_1,,,,,,,,,,,,,magenta,triangle
162.0,5.0,1.0,1.0,1.0,1.0,499.8407650000445,4.0,1.0,part_1,,,,,,,,,,,,,magenta,triangle
658.0,3.0,3.0,0.0,3.0,3.0,347.6769849994525,4.0,1.0,part_1,,,,,,,,,,,,,white,hexagon
327.0,6.0,2.0,1.0,2.0,2.0,622.6052929996513,4.0,1.0,part_1,,,,,,,,,,,,,blue,I
1319.0,4.0,4.0,0.0,2.0,2.0,442.9391339999711,4.0,1.0,part_1,,,,,,,,,,,,,cyan,circle
309.0,2.0,2.0,0.0,3.0,3.0,439.7811339995314,4.0,1.0,part_1,,,,,,,,,,,,,gray,flipped triangle
348.0,2.0,2.0,0.0,3.0,3.0,434.4938810008898,4.0,1.0,part_1,,,,,,,,,,,,,gray,flipped triangle
172.0,5.0,1.0,1.0,2.0,2.0,559.9403400001393,4.0,1.0,part_1,,,,,,,,,,,,,magenta,triangle
1281.0,8.0,4.0,1.0,3.0,3.0,429.2099080003027,4.0,1.0,part_1,,,,,,,,,,,,,yellow,cross
345.0,6.0,2.0,1.0,1.0,1.0,435.4047009992428,4.0,1.0,part_1,,,,,,,,,,,,,blue,I
170.0,5.0,1.0,1.0,4.0,4.0,375.39777100028,4.0,1.0,part_1,,,,,,,,,,,,,magenta,triangle
345.0,2.0,2.0,0.0,4.0,4.0,426.0263360001772,4.0,1.0,part_1,,,,,,,,,,,,,gray,flipped triangle
154.0,5.0,1.0,1.0,3.0,3.0,407.1827929992651,4.0,1.0,part_1,,,,,,,,,,,,,magenta,triangle
1302.0,4.0,4.0,0.0,3.0,3.0,461.6024950000792,4.0,1.0,part_1,,,,,,,,,,,,,cyan,circle
1278.0,4.0,4.0,0.0,1.0,1.0,615.5730310001672,4.0,1.0,part_1,,,,,,,,,,,,,cyan,circle
300.0,6.0,2.0,1.0,4.0,4.0,415.0661710000349,4.0,1.0,part_1,,,,,,,,,,,,,blue,I
0.0,4.0,0.0,0.0,1.0,1.0,523.0313629999728,4.0,1.0,part_1,,,,,,,,,,,,,cyan,circle
0.0,4.0,0.0,0.0,3.0,3.0,389.6365600003264,4.0,1.0,part_1,,,,,,,,,,,,,cyan,circle
1319.0,8.0,4.0,1.0,1.0,1.0,522.7963670004101,4.0,1.0,part_1,,,,,,,,,,,,,yellow,cross
0.0,8.0,0.0,1.0,4.0,4.0,398.9976290004051,4.0,1.0,part_1,,,,,,,,,,,,,yellow,cross
644.0,3.0,3.0,0.0,3.0,3.0,427.8582179995283,4.0,1.0,part_1,,,,,,,,,,,,,white,hexagon
311.0,6.0,2.0,1.0,3.0,3.0,544.6413919999031,4.0,1.0,part_1,,,,,,,,,,,,,blue,I
1302.0,8.0,4.0,1.0,2.0,2.0,613.1460169999627,4.0,1.0,part_1,,,,,,,,,,,,,yellow,cross
0.0,6.0,0.0,1.0,1.0,1.0,681.8806929995844,4.0,1.0,part_1,,,,,,,,,,,,,blue,I
1310.0,8.0,4.0,1.0,4.0,4.0,384.7637899998517,4.0,1.0,part_1,,,,,,,,,,,,,yellow,cross
144.0,5.0,1.0,1.0,4.0,4.0,482.8776940003081,4.0,1.0,part_1,,,,,,,,,,,,,magenta,triangle
0.0,1.0,0.0,0.0,1.0,1.0,559.605542999634,4.0,1.0,part_1,,,,,,,,,,,,,orange,diamond
1319.0,8.0,4.0,1.0,3.0,3.0,374.910968000222,4.0,1.0,part_1,,,,,,,,,,,,,yellow,cross
663.0,7.0,3.0,1.0,2.0,2.0,624.9530169998252,4.0,1.0,part_1,,,,,,,,,,,,,green,square
0.0,7.0,0.0,1.0,4.0,4.0,440.1482329994906,4.0,1.0,part_1,,,,,,,,,,,,,green,square
168.0,5.0,1.0,1.0,1.0,1.0,476.4082920000874,4.0,1.0,part_1,,,,,,,,,,,,,magenta,triangle
1310.0,4.0,4.0,0.0,1.0,1.0,488.6436509996201,4.0,1.0,part_1,,,,,,,,,,,,,cyan,circle
656.0,3.0,3.0,0.0,1.0,1.0,419.3945130000429,4.0,1.0,part_1,,,,,,,,,,,,,white,hexagon
159.0,5.0,1.0,1.0,1.0,1.0,407.7884469998025,4.0,1.0,part_1,,,,,,,,,,,,,magenta,triangle
331.0,2.0,2.0,0.0,4.0,4.0,451.5419420004036,4.0,1.0,part_1,,,,,,,,,,,,,gray,flipped triangle
138.0,5.0,1.0,1.0,2.0,2.0,544.2234249994726,4.0,1.0,part_1,,,,,,,,,,,,,magenta,triangle
675.0,3.0,3.0,0.0,2.0,2.0,415.3269139997064,4.0,1.0,part_1,,,,,,,,,,,,,white,hexagon
158.0,5.0,1.0,1.0,3.0,3.0,380.027741000049,4.0,1.0,part_1,,,,,,,,,,,,,magenta,triangle
661.0,3.0,3.0,0.0,2.0,2.0,517.9261149996819,4.0,1.0,part_1,,,,,,,,,,,,,white,hexagon
159.0,1.0,1.0,0.0,1.0,1.0,547.1567180002239,4.0,1.0,part_1,,,,,,,,,,,,,orange,diamond
1301.0,8.0,4.0,1.0,1.0,1.0,447.254652999618,4.0,1.0,part_1,,,,,,,,,,,,,yellow,cross
671.0,7.0,3.0,1.0,1.0,1.0,475.5471389999002,4.0,1.0,part_1,,,,,,,,,,,,,green,square
317.0,6.0,2.0,1.0,2.0,2.0,536.7097059997832,4.0,1.0,part_1,,,,,,,,,,,,,blue,I
0.0,7.0,3.0,1.0,5.0,5.0,367.0651759994143,1.0,0.0,part_2,go,250.0,250.0,1.0,,,,,,,,,green,square
0.0,2.0,2.0,0.0,5.0,5.0,350.7662080000955,1.0,0.0,part_2,go,250.0,250.0,1.0,,,,,,,,,gray,flipped triangle
0.0,7.0,3.0,1.0,5.0,0.0,0.0,1.0,0.0,part_2,stop,250.0,250.0,4.0,,,,,,,,,green,square
0.0,7.0,3.0,1.0,6.0,6.0,478.1680630003393,1.0,0.0,part_2,go,300.0,250.0,1.0,,,,,,,,,green,square
0.0,1.0,1.0,0.0,6.0,6.0,349.7057590002441,1.0,0.0,part_2,go,300.0,250.0,1.0,,,,,,,,,orange,diamond
0.0,8.0,4.0,1.0,5.0,5.0,413.0272319998767,1.0,0.0,part_2,stop,300.0,250.0,3.0,,,,,,,,,yellow,cross
0.0,8.0,4.0,1.0,6.0,0.0,0.0,1.0,0.0,part_2,stop,250.0,250.0,4.0,,,,,,,,,yellow,cross
0.0,4.0,4.0,0.0,5.0,5.0,826.6866009998921,1.0,0.0,part_2,go,250.0,300.0,1.0,,,,,,,,,cyan,circle
0.0,5.0,1.0,1.0,6.0,6.0,643.057494000459,1.0,0.0,part_2,go,250.0,300.0,1.0,,,,,,,,,magenta,triangle
0.0,5.0,1.0,1.0,6.0,6.0,443.3667029998105,1.0,0.0,part_2,go,250.0,300.0,1.0,,,,,,,,,magenta,triangle
0.0,1.0,1.0,0.0,5.0,5.0,401.4153219995933,1.0,0.0,part_2,go,250.0,300.0,1.0,,,,,,,,,orange,diamond
0.0,7.0,3.0,1.0,6.0,6.0,385.5419829997117,1.0,0.0,part_2,stop,250.0,300.0,3.0,,,,,,,,,green,square
0.0,7.0,3.0,1.0,6.0,0.0,0.0,1.0,0.0,part_2,stop,250.0,250.0,4.0,,,,,,,,,green,square
0.0,5.0,1.0,1.0,6.0,6.0,623.7692109998534,1.0,0.0,part_2,go,250.0,300.0,1.0,,,,,,,,,magenta,triangle
0.0,2.0,2.0,0.0,5.0,5.0,543.12753800059,1.0,0.0,part_2,go,250.0,300.0,1.0,,,,,,,,,gray,flipped triangle
0.0,3.0,3.0,0.0,5.0,5.0,494.356835999497,1.0,0.0,part_2,go,250.0,300.0,1.0,,,,,,,,,white,hexagon
0.0,8.0,4.0,1.0,6.0,6.0,422.0670419999806,1.0,0.0,part_2,go,250.0,300.0,1.0,,,,,,,,,yellow,cross
0.0,5.0,1.0,1.0,6.0,6.0,381.0069539995311,1.0,0.0,part_2,stop,250.0,300.0,3.0,,,,,,,,,magenta,triangle
0.0,2.0,2.0,0.0,5.0,5.0,662.0499740001833,1.0,0.0,part_2,go,250.0,250.0,1.0,,,,,,,,,gray,flipped triangle
0.0,3.0,3.0,0.0,6.0,6.0,597.4061269998856,1.0,0.0,part_2,go,250.0,250.0,1.0,,,,,,,,,white,hexagon
0.0,5.0,1.0,1.0,5.0,0.0,0.0,1.0,0.0,part_2,stop,250.0,250.0,4.0,,,,,,,,,magenta,triangle
0.0,6.0,2.0,1.0,6.0,6.0,612.4984059997587,1.0,0.0,part_2,go,300.0,250.0,1.0,,,,,,,,,blue,I
0.0,2.0,2.0,0.0,6.0,6.0,707.1164979997775,1.0,0.0,part_2,go,300.0,250.0,1.0,,,,,,,,,gray,flipped triangle
0.0,6.0,2.0,1.0,6.0,0.0,0.0,1.0,0.0,part_2,stop,300.0,250.0,4.0,,,,,,,,,blue,I
0.0,7.0,3.0,1.0,5.0,5.0,371.4539410002544,1.0,0.0,part_2,go,300.0,300.0,1.0,,,,,,,,,green,square
0.0,4.0,4.0,0.0,5.0,5.0,378.3650440000201,1.0,0.0,part_2,go,300.0,300.0,1.0,,,,,,,,,cyan,circle
0.0,8.0,4.0,1.0,5.0,0.0,0.0,1.0,0.0,part_2,stop,300.0,300.0,4.0,,,,,,,,,yellow,cross
0.0,5.0,1.0,1.0,5.0,0.0,0.0,1.0,0.0,part_2,stop,350.0,300.0,4.0,,,,,,,,,magenta,triangle
0.0,3.0,3.0,0.0,5.0,5.0,550.692257999799,1.0,0.0,part_2,go,400.0,300.0,1.0,,,,,,,,,white,hexagon
0.0,6.0,2.0,1.0,5.0,0.0,0.0,1.0,0.0,part_2,stop,400.0,300.0,4.0,,,,,,,,,blue,I
0.0,8.0,4.0,1.0,5.0,0.0,0.0,1.0,0.0,part_2,stop,450.0,300.0,4.0,,,,,,,,,yellow,cross
0.0,1.0,1.0,0.0,5.0,5.0,556.7549389998021,1.0,0.0,part_2,go,500.0,300.0,1.0,,,,,,,,,orange,diamond
0.0,4.0,4.0,0.0,6.0,6.0,436.0450149997632,1.0,0.0,part_2,go,500.0,300.0,1.0,,,,,,,,,cyan,circle
0.0,3.0,3.0,0.0,6.0,6.0,475.8731000001717,1.0,0.0,part_2,go,500.0,300.0,1.0,,,,,,,,,white,hexagon
0.0,8.0,4.0,1.0,5.0,5.0,518.0972930002099,1.0,0.0,part_2,stop,500.0,300.0,3.0,,,,,,,,,yellow,cross
0.0,1.0,1.0,0.0,6.0,6.0,771.916097999565,1.0,0.0,part_2,go,450.0,300.0,1.0,,,,,,,,,orange,diamond
0.0,1.0,1.0,0.0,5.0,5.0,702.496424999481,2.0,0.0,part_2,go,450.0,300.0,1.0,,,,,,,,,orange,diamond
0.0,6.0,2.0,1.0,6.0,6.0,429.8417429999972,2.0,0.0,part_2,stop,450.0,300.0,3.0,,,,,,,,,blue,I
0.0,4.0,4.0,0.0,5.0,5.0,443.1301849999727,2.0,0.0,part_2,go,450.0,250.0,1.0,,,,,,,,,cyan,circle
0.0,3.0,3.0,0.0,5.0,5.0,386.5893820002384,2.0,0.0,part_2,go,450.0,250.0,1.0,,,,,,,,,white,hexagon
0.0,4.0,4.0,0.0,5.0,5.0,386.1790549999568,2.0,0.0,part_2,go,450.0,250.0,1.0,,,,,,,,,cyan,circle
0.0,1.0,1.0,0.0,5.0,5.0,369.9037500000486,2.0,0.0,part_2,go,450.0,250.0,1.0,,,,,,,,,orange,diamond
0.0,3.0,3.0,0.0,5.0,5.0,384.4462590004696,2.0,0.0,part_2,go,450.0,250.0,1.0,,,,,,,,,white,hexagon
0.0,5.0,1.0,1.0,5.0,5.0,543.6926970005516,2.0,0.0,part_2,stop,450.0,250.0,3.0,,,,,,,,,magenta,triangle
0.0,1.0,1.0,0.0,5.0,5.0,753.4756329996526,2.0,0.0,part_2,go,400.0,250.0,1.0,,,,,,,,,orange,diamond
0.0,1.0,1.0,0.0,6.0,6.0,361.5784469993741,2.0,0.0,part_2,go,400.0,250.0,1.0,,,,,,,,,orange,diamond
0.0,5.0,1.0,1.0,6.0,6.0,374.7865440000169,2.0,0.0,part_2,stop,400.0,250.0,3.0,,,,,,,,,magenta,triangle
0.0,2.0,2.0,0.0,6.0,6.0,791.151563999847,2.0,0.0,part_2,go,400.0,200.0,1.0,,,,,,,,,gray,flipped triangle
0.0,3.0,3.0,0.0,6.0,6.0,678.7890710002102,2.0,0.0,part_2,go,400.0,200.0,1.0,,,,,,,,,white,hexagon
0.0,7.0,3.0,1.0,5.0,5.0,597.0737709994864,2.0,0.0,part_2,go,400.0,200.0,1.0,,,,,,,,,green,square
0.0,6.0,2.0,1.0,5.0,5.0,379.8317560003852,2.0,0.0,part_2,stop,400.0,200.0,3.0,,,,,,,,,blue,I
0.0,5.0,1.0,1.0,5.0,0.0,0.0,2.0,0.0,part_2,stop,350.0,200.0,4.0,,,,,,,,,magenta,triangle
0.0,6.0,2.0,1.0,6.0,0.0,0.0,2.0,0.0,part_2,stop,400.0,200.0,4.0,,,,,,,,,blue,I
0.0,4.0,4.0,0.0,5.0,5.0,692.1351779992619,2.0,0.0,part_2,go,400.0,250.0,1.0,,,,,,,,,cyan,circle
0.0,7.0,3.0,1.0,5.0,0.0,0.0,2.0,0.0,part_2,stop,400.0,250.0,4.0,,,,,,,,,green,square
0.0,5.0,1.0,1.0,6.0,0.0,0.0,2.0,0.0,part_2,stop,450.0,250.0,4.0,,,,,,,,,magenta,triangle
0.0,6.0,2.0,1.0,6.0,0.0,0.0,2.0,0.0,part_2,stop,450.0,300.0,4.0,,,,,,,,,blue,I
0.0,3.0,3.0,0.0,6.0,6.0,712.2669109994604,2.0,0.0,part_2,go,450.0,350.0,1.0,,,,,,,,,white,hexagon
0.0,1.0,1.0,0.0,6.0,6.0,625.0334070000463,2.0,0.0,part_2,go,450.0,350.0,1.0,,,,,,,,,orange,diamond
0.0,1.0,1.0,0.0,5.0,5.0,430.0499940000009,2.0,0.0,part_2,go,450.0,350.0,1.0,,,,,,,,,orange,diamond
0.0,7.0,3.0,1.0,5.0,5.0,494.4262879998859,2.0,0.0,part_2,stop,450.0,350.0,3.0,,,,,,,,,green,square
0.0,1.0,1.0,0.0,5.0,5.0,878.0254539997259,2.0,0.0,part_2,go,400.0,350.0,1.0,,,,,,,,,orange,diamond
0.0,6.0,2.0,1.0,5.0,0.0,0.0,2.0,0.0,part_2,stop,400.0,350.0,4.0,,,,,,,,,blue,I
0.0,4.0,4.0,0.0,5.0,5.0,667.2896760001095,2.0,0.0,part_2,go,450.0,350.0,1.0,,,,,,,,,cyan,circle
0.0,5.0,1.0,1.0,6.0,6.0,469.6025769999323,2.0,0.0,part_2,go,450.0,350.0,1.0,,,,,,,,,magenta,triangle
0.0,8.0,4.0,1.0,5.0,5.0,410.365560000173,2.0,0.0,part_2,stop,450.0,350.0,3.0,,,,,,,,,yellow,cross
0.0,8.0,4.0,1.0,6.0,0.0,0.0,2.0,0.0,part_2,stop,400.0,350.0,4.0,,,,,,,,,yellow,cross
0.0,6.0,2.0,1.0,5.0,0.0,0.0,2.0,0.0,part_2,stop,400.0,400.0,4.0,,,,,,,,,blue,I
0.0,3.0,3.0,0.0,5.0,5.0,857.2936359996675,2.0,0.0,part_2,go,450.0,400.0,1.0,,,,,,,,,white,hexagon
0.0,8.0,4.0,1.0,5.0,5.0,474.8741540006449,2.0,0.0,part_2,stop,450.0,400.0,3.0,,,,,,,,,yellow,cross
0.0,5.0,1.0,1.0,6.0,0.0,0.0,2.0,0.0,part_2,stop,400.0,400.0,4.0,,,,,,,,,magenta,triangle
0.0,3.0,3.0,0.0,6.0,6.0,783.5707079993881,2.0,0.0,part_2,go,400.0,450.0,1.0,,,,,,,,,white,hexagon
0.0,8.0,4.0,1.0,5.0,0.0,0.0,3.0,0.0,part_2,stop,400.0,450.0,4.0,,,,,,,,,yellow,cross
0.0,5.0,1.0,1.0,5.0,0.0,0.0,3.0,0.0,part_2,stop,450.0,450.0,4.0,,,,,,,,,magenta,triangle
0.0,7.0,3.0,1.0,6.0,6.0,393.9740260002509,3.0,0.0,part_2,stop,500.0,450.0,3.0,,,,,,,,,green,square
0.0,2.0,2.0,0.0,5.0,5.0,769.7817570006009,3.0,0.0,part_2,go,500.0,400.0,1.0,,,,,,,,,gray,flipped triangle
0.0,4.0,4.0,0.0,5.0,5.0,503.8723010002286,3.0,0.0,part_2,go,500.0,400.0,1.0,,,,,,,,,cyan,circle
0.0,5.0,1.0,1.0,5.0,5.0,536.9367339999371,3.0,0.0,part_2,stop,500.0,400.0,3.0,,,,,,,,,magenta,triangle
0.0,1.0,1.0,0.0,5.0,5.0,686.8303050005125,3.0,0.0,part_2,go,450.0,400.0,1.0,,,,,,,,,orange,diamond
0.0,1.0,1.0,0.0,5.0,5.0,861.3310219998311,3.0,0.0,part_2,go,450.0,400.0,1.0,,,,,,,,,orange,diamond
0.0,6.0,2.0,1.0,5.0,5.0,543.5335359998135,3.0,0.0,part_2,stop,450.0,400.0,3.0,,,,,,,,,blue,I
0.0,6.0,2.0,1.0,5.0,0.0,0.0,3.0,0.0,part_2,stop,400.0,400.0,4.0,,,,,,,,,blue,I
0.0,3.0,3.0,0.0,6.0,6.0,475.8226730000388,3.0,0.0,part_2,go,450.0,400.0,1.0,,,,,,,,,white,hexagon
0.0,8.0,4.0,1.0,6.0,6.0,980.189908000284,3.0,0.0,part_2,go,450.0,400.0,1.0,,,,,,,,,yellow,cross
0.0,3.0,3.0,0.0,6.0,6.0,779.208125999503,3.0,0.0,part_2,go,450.0,400.0,1.0,,,,,,,,,white,hexagon
0.0,4.0,4.0,0.0,6.0,6.0,450.6664589998763,3.0,0.0,part_2,go,450.0,400.0,1.0,,,,,,,,,cyan,circle
0.0,5.0,1.0,1.0,6.0,0.0,0.0,3.0,0.0,part_2,stop,450.0,400.0,4.0,,,,,,,,,magenta,triangle
0.0,6.0,2.0,1.0,5.0,5.0,1130.7902880007532,3.0,0.0,part_2,go,450.0,450.0,1.0,,,,,,,,,blue,I
0.0,5.0,1.0,1.0,6.0,0.0,0.0,3.0,0.0,part_2,stop,450.0,450.0,4.0,,,,,,,,,magenta,triangle
0.0,4.0,4.0,0.0,6.0,6.0,617.5162869994892,3.0,0.0,part_2,go,450.0,500.0,1.0,,,,,,,,,cyan,circle
0.0,2.0,2.0,0.0,5.0,5.0,601.162320000185,3.0,0.0,part_2,go,450.0,500.0,1.0,,,,,,,,,gray,flipped triangle
0.0,4.0,4.0,0.0,5.0,5.0,759.9513949999164,3.0,0.0,part_2,go,450.0,500.0,1.0,,,,,,,,,cyan,circle
0.0,7.0,3.0,1.0,6.0,0.0,0.0,3.0,0.0,part_2,stop,450.0,500.0,4.0,,,,,,,,,green,square
0.0,1.0,1.0,0.0,6.0,6.0,909.6618540006602,3.0,0.0,part_2,go,450.0,550.0,1.0,,,,,,,,,orange,diamond
0.0,3.0,3.0,0.0,5.0,5.0,788.9161100001729,3.0,0.0,part_2,go,450.0,550.0,1.0,,,,,,,,,white,hexagon
0.0,6.0,2.0,1.0,5.0,0.0,0.0,3.0,0.0,part_2,stop,450.0,550.0,4.0,,,,,,,,,blue,I
0.0,2.0,2.0,0.0,6.0,6.0,684.0234860001146,3.0,0.0,part_2,go,500.0,550.0,1.0,,,,,,,,,gray,flipped triangle
0.0,2.0,2.0,0.0,5.0,5.0,413.5618620002788,3.0,0.0,part_2,go,500.0,550.0,1.0,,,,,,,,,gray,flipped triangle
0.0,1.0,1.0,0.0,5.0,5.0,899.9769370002468,3.0,0.0,part_2,go,500.0,550.0,1.0,,,,,,,,,orange,diamond
0.0,8.0,4.0,1.0,6.0,6.0,515.440311999555,3.0,0.0,part_2,stop,500.0,550.0,3.0,,,,,,,,,yellow,cross
0.0,3.0,3.0,0.0,6.0,6.0,608.4285549995911,3.0,0.0,part_2,go,500.0,500.0,1.0,,,,,,,,,white,hexagon
0.0,6.0,2.0,1.0,5.0,5.0,856.6193819997352,3.0,0.0,part_2,go,500.0,500.0,1.0,,,,,,,,,blue,I
0.0,6.0,2.0,1.0,6.0,6.0,407.9920849999325,3.0,0.0,part_2,stop,500.0,500.0,3.0,,,,,,,,,blue,I
0.0,8.0,4.0,1.0,5.0,5.0,624.2471059995296,3.0,0.0,part_2,stop,500.0,450.0,3.0,,,,,,,,,yellow,cross
0.0,5.0,1.0,1.0,6.0,0.0,0.0,3.0,0.0,part_2,stop,450.0,450.0,4.0,,,,,,,,,magenta,triangle
0.0,2.0,2.0,0.0,6.0,6.0,686.2732730005519,3.0,0.0,part_2,go,450.0,500.0,1.0,,,,,,,,,gray,flipped triangle
0.0,8.0,4.0,1.0,5.0,5.0,510.5486610000298,3.0,0.0,part_2,stop,450.0,500.0,3.0,,,,,,,,,yellow,cross
0.0,7.0,3.0,1.0,5.0,5.0,1006.7900340000051,3.0,0.0,part_2,go,400.0,500.0,1.0,,,,,,,,,green,square
0.0,3.0,3.0,0.0,5.0,5.0,724.069087999851,4.0,0.0,part_2,go,400.0,500.0,1.0,,,,,,,,,white,hexagon
0.0,4.0,4.0,0.0,5.0,5.0,475.0269539999863,4.0,0.0,part_2,go,400.0,500.0,1.0,,,,,,,,,cyan,circle
0.0,2.0,2.0,0.0,6.0,6.0,354.1051390002394,4.0,0.0,part_2,go,400.0,500.0,1.0,,,,,,,,,gray,flipped triangle
0.0,2.0,2.0,0.0,5.0,5.0,342.5687139997535,4.0,0.0,part_2,go,400.0,500.0,1.0,,,,,,,,,gray,flipped triangle
0.0,7.0,3.0,1.0,6.0,6.0,295.908529999906,4.0,0.0,part_2,go,400.0,500.0,1.0,,,,,,,,,green,square
0.0,7.0,3.0,1.0,6.0,6.0,319.2890919999627,4.0,0.0,part_2,stop,400.0,500.0,3.0,,,,,,,,,green,square
0.0,4.0,4.0,0.0,6.0,6.0,600.5459540001539,4.0,0.0,part_2,go,400.0,450.0,1.0,,,,,,,,,cyan,circle
0.0,2.0,2.0,0.0,6.0,6.0,408.2631129995206,4.0,0.0,part_2,go,400.0,450.0,1.0,,,,,,,,,gray,flipped triangle
0.0,2.0,2.0,0.0,5.0,5.0,399.0988429995923,4.0,0.0,part_2,go,400.0,450.0,1.0,,,,,,,,,gray,flipped triangle
0.0,5.0,1.0,1.0,5.0,5.0,406.223424000018,4.0,0.0,part_2,go,400.0,450.0,1.0,,,,,,,,,magenta,triangle
0.0,6.0,2.0,1.0,6.0,6.0,468.0966309997529,4.0,0.0,part_2,stop,400.0,450.0,3.0,,,,,,,,,blue,I
0.0,7.0,3.0,1.0,5.0,0.0,0.0,4.0,0.0,part_2,stop,400.0,400.0,4.0,,,,,,,,,green,square
0.0,6.0,2.0,1.0,6.0,0.0,0.0,4.0,0.0,part_2,stop,450.0,400.0,4.0,,,,,,,,,blue,I
0.0,3.0,3.0,0.0,5.0,5.0,610.360763999779,4.0,0.0,part_2,go,450.0,450.0,1.0,,,,,,,,,white,hexagon
0.0,3.0,3.0,0.0,5.0,5.0,962.421257000642,4.0,0.0,part_2,go,450.0,450.0,1.0,,,,,,,,,white,hexagon
0.0,2.0,2.0,0.0,6.0,6.0,723.304654000458,4.0,0.0,part_2,go,450.0,450.0,1.0,,,,,,,,,gray,flipped triangle
0.0,1.0,1.0,0.0,5.0,5.0,392.2162979997665,4.0,0.0,part_2,go,450.0,450.0,1.0,,,,,,,,,orange,diamond
0.0,3.0,3.0,0.0,6.0,6.0,400.0480179993246,4.0,0.0,part_2,go,450.0,450.0,1.0,,,,,,,,,white,hexagon
0.0,4.0,4.0,0.0,6.0,6.0,368.7222829994425,4.0,0.0,part_2,go,450.0,450.0,1.0,,,,,,,,,cyan,circle
0.0,7.0,3.0,1.0,6.0,6.0,390.0762329994904,4.0,0.0,part_2,stop,450.0,450.0,3.0,,,,,,,,,green,square
0.0,1.0,1.0,0.0,6.0,6.0,727.3178030000054,4.0,0.0,part_2,go,450.0,400.0,1.0,,,,,,,,,orange,diamond
0.0,8.0,4.0,1.0,6.0,0.0,0.0,4.0,0.0,part_2,stop,450.0,400.0,4.0,,,,,,,,,yellow,cross
0.0,2.0,2.0,0.0,6.0,6.0,989.2815899993366,4.0,0.0,part_2,go,450.0,450.0,1.0,,,,,,,,,gray,flipped triangle
0.0,8.0,4.0,1.0,6.0,6.0,381.8084459999227,4.0,0.0,part_2,go,450.0,450.0,1.0,,,,,,,,,yellow,cross
0.0,6.0,2.0,1.0,6.0,6.0,348.9486979997309,4.0,0.0,part_2,stop,450.0,450.0,3.0,,,,,,,,,blue,I
0.0,5.0,1.0,1.0,6.0,6.0,916.3295850003124,4.0,0.0,part_2,go,450.0,400.0,1.0,,,,,,,,,magenta,triangle
0.0,7.0,3.0,1.0,6.0,6.0,421.9978099999935,4.0,0.0,part_2,stop,450.0,400.0,3.0,,,,,,,,,green,square
0.0,2.0,2.0,0.0,6.0,6.0,715.7916770001975,4.0,0.0,part_2,go,450.0,350.0,1.0,,,,,,,,,gray,flipped triangle
0.0,2.0,2.0,0.0,5.0,5.0,417.3764570005005,4.0,0.0,part_2,go,450.0,350.0,1.0,,,,,,,,,gray,flipped triangle
0.0,8.0,4.0,1.0,5.0,5.0,471.7116940000778,4.0,0.0,part_2,stop,450.0,350.0,3.0,,,,,,,,,yellow,cross
0.0,1.0,1.0,0.0,6.0,6.0,1064.1577610003878,4.0,0.0,part_2,go,400.0,350.0,1.0,,,,,,,,,orange,diamond
0.0,5.0,1.0,1.0,5.0,0.0,0.0,4.0,0.0,part_2,stop,400.0,350.0,4.0,,,,,,,,,magenta,triangle
0.0,2.0,2.0,0.0,6.0,6.0,365.520424999886,4.0,0.0,part_2,go,450.0,350.0,1.0,,,,,,,,,gray,flipped triangle
0.0,3.0,3.0,0.0,6.0,6.0,526.7204450001373,4.0,0.0,part_2,go,450.0,350.0,1.0,,,,,,,,,white,hexagon
0.0,5.0,1.0,1.0,5.0,0.0,0.0,4.0,0.0,part_2,stop,450.0,350.0,4.0,,,,,,,,,magenta,triangle
0.0,7.0,3.0,1.0,6.0,0.0,0.0,4.0,0.0,part_2,stop,500.0,350.0,4.0,,,,,,,,,green,square
0.0,1.0,1.0,0.0,5.0,5.0,1131.499778999569,5.0,0.0,part_2,go,500.0,400.0,1.0,,,,,,,,,orange,diamond
0.0,1.0,1.0,0.0,5.0,5.0,451.2509240003055,5.0,0.0,part_2,go,500.0,400.0,1.0,,,,,,,,,orange,diamond
0.0,2.0,2.0,0.0,5.0,5.0,368.8909319998856,5.0,0.0,part_2,go,500.0,400.0,1.0,,,,,,,,,gray,flipped triangle
0.0,4.0,4.0,0.0,6.0,6.0,408.6952580000798,5.0,0.0,part_2,go,500.0,400.0,1.0,,,,,,,,,cyan,circle
0.0,6.0,2.0,1.0,5.0,5.0,392.2004830001242,5.0,0.0,part_2,stop,500.0,400.0,3.0,,,,,,,,,blue,I
0.0,6.0,2.0,1.0,5.0,5.0,559.2831300000398,5.0,0.0,part_2,stop,450.0,400.0,3.0,,,,,,,,,blue,I
0.0,2.0,2.0,0.0,6.0,6.0,654.787868999847,5.0,0.0,part_2,go,400.0,400.0,1.0,,,,,,,,,gray,flipped triangle
0.0,4.0,4.0,0.0,5.0,5.0,678.085944000486,5.0,0.0,part_2,go,400.0,400.0,1.0,,,,,,,,,cyan,circle
0.0,2.0,2.0,0.0,6.0,6.0,359.2068909993031,5.0,0.0,part_2,go,400.0,400.0,1.0,,,,,,,,,gray,flipped triangle
0.0,3.0,3.0,0.0,6.0,6.0,388.9191259995641,5.0,0.0,part_2,go,400.0,400.0,1.0,,,,,,,,,white,hexagon
0.0,2.0,2.0,0.0,5.0,5.0,372.421141999439,5.0,0.0,part_2,go,400.0,400.0,1.0,,,,,,,,,gray,flipped triangle
0.0,1.0,1.0,0.0,5.0,5.0,419.5440439998492,5.0,0.0,part_2,go,400.0,400.0,1.0,,,,,,,,,orange,diamond
0.0,7.0,3.0,1.0,5.0,0.0,0.0,5.0,0.0,part_2,stop,400.0,400.0,4.0,,,,,,,,,green,square
0.0,8.0,4.0,1.0,5.0,5.0,938.5174710005232,5.0,0.0,part_2,go,450.0,400.0,1.0,,,,,,,,,yellow,cross
0.0,8.0,4.0,1.0,6.0,6.0,393.9748459997645,5.0,0.0,part_2,stop,450.0,400.0,3.0,,,,,,,,,yellow,cross
0.0,6.0,2.0,1.0,6.0,0.0,0.0,5.0,0.0,part_2,stop,450.0,350.0,4.0,,,,,,,,,blue,I
0.0,6.0,2.0,1.0,5.0,0.0,0.0,5.0,0.0,part_2,stop,450.0,400.0,4.0,,,,,,,,,blue,I
0.0,8.0,4.0,1.0,6.0,6.0,729.0618259994517,5.0,0.0,part_2,go,500.0,400.0,1.0,,,,,,,,,yellow,cross
0.0,8.0,4.0,1.0,5.0,0.0,0.0,5.0,0.0,part_2,stop,500.0,400.0,4.0,,,,,,,,,yellow,cross
0.0,6.0,2.0,1.0,6.0,6.0,742.692640000314,5.0,0.0,part_2,go,550.0,400.0,1.0,,,,,,,,,blue,I
0.0,5.0,1.0,1.0,5.0,0.0,0.0,5.0,0.0,part_2,stop,550.0,400.0,4.0,,,,,,,,,magenta,triangle
0.0,8.0,4.0,1.0,6.0,0.0,0.0,5.0,0.0,part_2,stop,600.0,400.0,4.0,,,,,,,,,yellow,cross
0.0,5.0,1.0,1.0,6.0,6.0,749.9201480004558,5.0,0.0,part_2,go,600.0,450.0,1.0,,,,,,,,,magenta,triangle
0.0,5.0,1.0,1.0,5.0,5.0,558.0273410005248,5.0,0.0,part_2,stop,600.0,450.0,3.0,,,,,,,,,magenta,triangle
0.0,2.0,2.0,0.0,5.0,5.0,804.7206029996232,5.0,0.0,part_2,go,550.0,450.0,1.0,,,,,,,,,gray,flipped triangle
0.0,7.0,3.0,1.0,5.0,5.0,604.212371000358,5.0,0.0,part_2,stop,550.0,450.0,3.0,,,,,,,,,green,square
0.0,1.0,1.0,0.0,6.0,6.0,554.3888319998587,5.0,0.0,part_2,go,500.0,450.0,1.0,,,,,,,,,orange,diamond
0.0,5.0,1.0,1.0,5.0,5.0,441.8829470005221,5.0,0.0,part_2,stop,500.0,450.0,3.0,,,,,,,,,magenta,triangle
0.0,4.0,4.0,0.0,5.0,5.0,737.0607749999181,5.0,0.0,part_2,go,450.0,450.0,1.0,,,,,,,,,cyan,circle
0.0,4.0,4.0,0.0,5.0,5.0,776.3398400002188,5.0,0.0,part_2,go,450.0,450.0,1.0,,,,,,,,,cyan,circle
0.0,2.0,2.0,0.0,6.0,6.0,1049.252417000389,5.0,0.0,part_2,go,450.0,450.0,1.0,,,,,,,,,gray,flipped triangle
0.0,4.0,4.0,0.0,6.0,6.0,336.2537259999953,5.0,0.0,part_2,go,450.0,450.0,1.0,,,,,,,,,cyan,circle
0.0,2.0,2.0,0.0,5.0,5.0,670.7248060001803,5.0,0.0,part_2,go,450.0,450.0,1.0,,,,,,,,,gray,flipped triangle
0.0,6.0,2.0,1.0,5.0,0.0,0.0,5.0,0.0,part_2,stop,450.0,450.0,4.0,,,,,,,,,blue,I
0.0,5.0,1.0,1.0,6.0,0.0,0.0,5.0,0.0,part_2,stop,500.0,450.0,4.0,,,,,,,,,magenta,triangle
0.0,4.0,4.0,0.0,6.0,6.0,652.4152410001989,5.0,0.0,part_2,go,500.0,500.0,1.0,,,,,,,,,cyan,circle
0.0,8.0,4.0,1.0,6.0,6.0,958.5586860002876,6.0,0.0,part_2,stop,500.0,500.0,3.0,,,,,,,,,yellow,cross
0.0,5.0,1.0,1.0,6.0,6.0,613.3294199999,6.0,0.0,part_2,stop,500.0,450.0,3.0,,,,,,,,,magenta,triangle
0.0,4.0,4.0,0.0,6.0,6.0,731.2428699997326,6.0,0.0,part_2,go,500.0,400.0,1.0,,,,,,,,,cyan,circle
0.0,6.0,2.0,1.0,6.0,0.0,0.0,6.0,0.0,part_2,stop,500.0,400.0,4.0,,,,,,,,,blue,I
0.0,7.0,3.0,1.0,6.0,0.0,0.0,6.0,0.0,part_2,stop,500.0,450.0,4.0,,,,,,,,,green,square
0.0,5.0,1.0,1.0,5.0,0.0,0.0,6.0,0.0,part_2,stop,500.0,500.0,4.0,,,,,,,,,magenta,triangle
0.0,4.0,4.0,0.0,6.0,6.0,946.8876930004626,6.0,0.0,part_2,go,550.0,500.0,1.0,,,,,,,,,cyan,circle
0.0,4.0,4.0,0.0,5.0,5.0,848.7414239998543,6.0,0.0,part_2,go,550.0,500.0,1.0,,,,,,,,,cyan,circle
0.0,6.0,2.0,1.0,6.0,0.0,0.0,6.0,0.0,part_2,stop,550.0,500.0,4.0,,,,,,,,,blue,I
0.0,7.0,3.0,1.0,6.0,0.0,0.0,6.0,0.0,part_2,stop,550.0,550.0,4.0,,,,,,,,,green,square
0.0,1.0,1.0,0.0,6.0,6.0,1479.8812339995493,6.0,0.0,part_2,go,550.0,600.0,1.0,,,,,,,,,orange,diamond
0.0,2.0,2.0,0.0,5.0,5.0,1007.9354510007761,6.0,0.0,part_2,go,550.0,600.0,1.0,,,,,,,,,gray,flipped triangle
0.0,2.0,2.0,0.0,5.0,5.0,430.1938959997642,6.0,0.0,part_2,go,550.0,600.0,1.0,,,,,,,,,gray,flipped triangle
0.0,1.0,1.0,0.0,6.0,6.0,669.2268180004248,6.0,0.0,part_2,go,550.0,600.0,1.0,,,,,,,,,orange,diamond
0.0,8.0,4.0,1.0,6.0,6.0,357.4962399998185,6.0,0.0,part_2,stop,550.0,600.0,3.0,,,,,,,,,yellow,cross
0.0,3.0,3.0,0.0,5.0,5.0,587.8401280006074,6.0,0.0,part_2,go,550.0,550.0,1.0,,,,,,,,,white,hexagon
0.0,4.0,4.0,0.0,5.0,5.0,644.644750000225,6.0,0.0,part_2,go,550.0,550.0,1.0,,,,,,,,,cyan,circle
0.0,3.0,3.0,0.0,5.0,5.0,563.4583269993527,6.0,0.0,part_2,go,550.0,550.0,1.0,,,,,,,,,white,hexagon
0.0,1.0,1.0,0.0,6.0,6.0,563.4796149997783,6.0,0.0,part_2,go,550.0,550.0,1.0,,,,,,,,,orange,diamond
0.0,7.0,3.0,1.0,6.0,6.0,378.7988510002833,6.0,0.0,part_2,stop,550.0,550.0,3.0,,,,,,,,,green,square
0.0,7.0,3.0,1.0,6.0,0.0,0.0,6.0,0.0,part_2,stop,550.0,500.0,4.0,,,,,,,,,green,square
0.0,6.0,2.0,1.0,5.0,5.0,682.5144399999772,6.0,0.0,part_2,stop,550.0,550.0,3.0,,,,,,,,,blue,I
0.0,3.0,3.0,0.0,6.0,6.0,686.1571580002419,6.0,0.0,part_2,go,500.0,550.0,1.0,,,,,,,,,white,hexagon
0.0,8.0,4.0,1.0,6.0,0.0,0.0,6.0,0.0,part_2,stop,500.0,550.0,4.0,,,,,,,,,yellow,cross
0.0,4.0,4.0,0.0,6.0,6.0,663.2338500003243,6.0,0.0,part_2,go,500.0,600.0,1.0,,,,,,,,,cyan,circle
0.0,5.0,1.0,1.0,5.0,5.0,629.2998979997719,6.0,0.0,part_2,stop,500.0,600.0,3.0,,,,,,,,,magenta,triangle
0.0,8.0,4.0,1.0,6.0,6.0,701.6827800007377,6.0,0.0,part_2,go,450.0,600.0,1.0,,,,,,,,,yellow,cross
0.0,6.0,2.0,1.0,5.0,5.0,603.053028999966,6.0,0.0,part_2,stop,450.0,600.0,3.0,,,,,,,,,blue,I
0.0,3.0,3.0,0.0,6.0,6.0,635.3602229992248,6.0,0.0,part_2,go,400.0,600.0,1.0,,,,,,,,,white,hexagon
0.0,3.0,3.0,0.0,6.0,6.0,458.7159150005391,6.0,0.0,part_2,go,400.0,600.0,1.0,,,,,,,,,white,hexagon
0.0,4.0,4.0,0.0,5.0,5.0,738.0210880000959,6.0,0.0,part_2,go,400.0,600.0,1.0,,,,,,,,,cyan,circle
0.0,6.0,2.0,1.0,6.0,6.0,610.752300999593,6.0,0.0,part_2,go,400.0,600.0,1.0,,,,,,,,,blue,I
0.0,7.0,3.0,1.0,5.0,0.0,0.0,6.0,0.0,part_2,stop,400.0,600.0,4.0,,,,,,,,,green,square
0.0,7.0,3.0,1.0,5.0,0.0,0.0,6.0,0.0,part_2,go,450.0,600.0,5.0,,,,,,,,,green,square
0.0,7.0,3.0,1.0,5.0,5.0,374.9504940005863,6.0,0.0,part_2,stop,450.0,600.0,3.0,,,,,,,,,green,square
0.0,4.0,4.0,0.0,6.0,6.0,631.1043609994158,6.0,0.0,part_2,go,400.0,600.0,1.0,,,,,,,,,cyan,circle
0.0,4.0,4.0,0.0,5.0,5.0,529.6759109996856,7.0,0.0,part_2,go,400.0,600.0,1.0,,,,,,,,,cyan,circle
0.0,8.0,4.0,1.0,5.0,5.0,522.6136239998596,7.0,0.0,part_2,go,400.0,600.0,1.0,,,,,,,,,yellow,cross
0.0,5.0,1.0,1.0,6.0,6.0,424.6249629995873,7.0,0.0,part_2,go,400.0,600.0,1.0,,,,,,,,,magenta,triangle
0.0,4.0,4.0,0.0,6.0,6.0,399.1642559994943,7.0,0.0,part_2,go,400.0,600.0,1.0,,,,,,,,,cyan,circle
0.0,8.0,4.0,1.0,5.0,5.0,537.270236999575,7.0,0.0,part_2,stop,400.0,600.0,3.0,,,,,,,,,yellow,cross
0.0,6.0,2.0,1.0,6.0,6.0,711.2389670000994,7.0,0.0,part_2,go,350.0,600.0,1.0,,,,,,,,,blue,I
0.0,7.0,3.0,1.0,6.0,6.0,381.7342579995966,7.0,0.0,part_2,go,350.0,600.0,1.0,,,,,,,,,green,square
0.0,3.0,3.0,0.0,5.0,5.0,485.7546700004604,7.0,0.0,part_2,go,350.0,600.0,1.0,,,,,,,,,white,hexagon
0.0,7.0,3.0,1.0,5.0,5.0,390.9786949998306,7.0,0.0,part_2,stop,350.0,600.0,3.0,,,,,,,,,green,square
0.0,7.0,3.0,1.0,6.0,6.0,524.6768720007822,7.0,0.0,part_2,stop,300.0,600.0,3.0,,,,,,,,,green,square
0.0,3.0,3.0,0.0,5.0,5.0,635.7446800002435,7.0,0.0,part_2,go,300.0,550.0,1.0,,,,,,,,,white,hexagon
0.0,1.0,1.0,0.0,6.0,6.0,667.1696889998202,7.0,0.0,part_2,go,300.0,550.0,1.0,,,,,,,,,orange,diamond
0.0,2.0,2.0,0.0,5.0,5.0,427.580592000595,7.0,0.0,part_2,go,300.0,550.0,1.0,,,,,,,,,gray,flipped triangle
0.0,3.0,3.0,0.0,5.0,5.0,507.3931420001827,7.0,0.0,part_2,go,300.0,550.0,1.0,,,,,,,,,white,hexagon
0.0,2.0,2.0,0.0,5.0,5.0,497.3659379993478,7.0,0.0,part_2,go,300.0,550.0,1.0,,,,,,,,,gray,flipped triangle
0.0,6.0,2.0,1.0,5.0,5.0,600.3058790001887,7.0,0.0,part_2,go,300.0,550.0,1.0,,,,,,,,,blue,I
0.0,7.0,3.0,1.0,6.0,6.0,367.0517529999415,7.0,0.0,part_2,stop,300.0,550.0,3.0,,,,,,,,,green,square
0.0,5.0,1.0,1.0,5.0,5.0,615.319516999989,7.0,0.0,part_2,go,300.0,500.0,1.0,,,,,,,,,magenta,triangle
0.0,8.0,4.0,1.0,6.0,0.0,0.0,7.0,0.0,part_2,stop,300.0,500.0,4.0,,,,,,,,,yellow,cross
0.0,3.0,3.0,0.0,5.0,5.0,653.8570190004975,7.0,0.0,part_2,go,300.0,550.0,1.0,,,,,,,,,white,hexagon
0.0,7.0,3.0,1.0,5.0,5.0,359.6563069995682,7.0,0.0,part_2,stop,300.0,550.0,3.0,,,,,,,,,green,square
0.0,5.0,1.0,1.0,5.0,0.0,0.0,7.0,0.0,part_2,stop,250.0,550.0,4.0,,,,,,,,,magenta,triangle
0.0,8.0,4.0,1.0,6.0,6.0,469.1449030005969,7.0,0.0,part_2,stop,300.0,550.0,3.0,,,,,,,,,yellow,cross
0.0,3.0,3.0,0.0,6.0,6.0,780.0730680000925,7.0,0.0,part_2,go,300.0,500.0,1.0,,,,,,,,,white,hexagon
0.0,7.0,3.0,1.0,5.0,0.0,0.0,7.0,0.0,part_2,stop,300.0,500.0,4.0,,,,,,,,,green,square
0.0,6.0,2.0,1.0,6.0,0.0,0.0,7.0,0.0,part_2,stop,350.0,500.0,4.0,,,,,,,,,blue,I
0.0,6.0,2.0,1.0,5.0,0.0,0.0,7.0,0.0,part_2,stop,350.0,550.0,4.0,,,,,,,,,blue,I
0.0,4.0,4.0,0.0,5.0,5.0,731.3433640001676,7.0,0.0,part_2,go,400.0,550.0,1.0,,,,,,,,,cyan,circle
0.0,5.0,1.0,1.0,6.0,6.0,719.6830980001323,7.0,0.0,part_2,stop,400.0,550.0,3.0,,,,,,,,,magenta,triangle
0.0,3.0,3.0,0.0,6.0,6.0,647.71080599985,7.0,0.0,part_2,go,400.0,500.0,1.0,,,,,,,,,white,hexagon
0.0,3.0,3.0,0.0,5.0,5.0,536.8406130000949,7.0,0.0,part_2,go,400.0,500.0,1.0,,,,,,,,,white,hexagon
0.0,1.0,1.0,0.0,6.0,6.0,389.9874329999875,7.0,0.0,part_2,go,400.0,500.0,1.0,,,,,,,,,orange,diamond
0.0,4.0,4.0,0.0,6.0,6.0,566.6380230004506,7.0,0.0,part_2,go,400.0,500.0,1.0,,,,,,,,,cyan,circle
0.0,2.0,2.0,0.0,6.0,6.0,412.5948749997405,7.0,0.0,part_2,go,400.0,500.0,1.0,,,,,,,,,gray,flipped triangle
0.0,1.0,1.0,0.0,6.0,6.0,452.9577400007838,7.0,0.0,part_2,go,400.0,500.0,1.0,,,,,,,,,orange,diamond
0.0,6.0,2.0,1.0,6.0,6.0,420.0864019994696,7.0,0.0,part_2,stop,400.0,500.0,3.0,,,,,,,,,blue,I
0.0,4.0,4.0,0.0,5.0,5.0,1239.8805800003174,8.0,0.0,part_2,go,400.0,450.0,1.0,,,,,,,,,cyan,circle
0.0,7.0,3.0,1.0,5.0,5.0,423.6432890002106,8.0,0.0,part_2,stop,400.0,450.0,3.0,,,,,,,,,green,square
0.0,5.0,1.0,1.0,5.0,0.0,0.0,8.0,0.0,part_2,stop,350.0,450.0,4.0,,,,,,,,,magenta,triangle
0.0,1.0,1.0,0.0,5.0,5.0,726.1816150003142,8.0,0.0,part_2,go,400.0,450.0,1.0,,,,,,,,,orange,diamond
0.0,1.0,1.0,0.0,6.0,6.0,423.5180119994766,8.0,0.0,part_2,go,400.0,450.0,1.0,,,,,,,,,orange,diamond
0.0,8.0,4.0,1.0,5.0,5.0,413.6045519999243,8.0,0.0,part_2,go,400.0,450.0,1.0,,,,,,,,,yellow,cross
0.0,2.0,2.0,0.0,5.0,5.0,653.0665340005726,8.0,0.0,part_2,go,400.0,450.0,1.0,,,,,,,,,gray,flipped triangle
0.0,2.0,2.0,0.0,6.0,6.0,531.5443899999082,8.0,0.0,part_2,go,400.0,450.0,1.0,,,,,,,,,gray,flipped triangle
0.0,2.0,2.0,0.0,6.0,6.0,355.6224330004625,8.0,0.0,part_2,go,400.0,450.0,1.0,,,,,,,,,gray,flipped triangle
0.0,8.0,4.0,1.0,5.0,5.0,451.2914349998027,8.0,0.0,part_2,stop,400.0,450.0,3.0,,,,,,,,,yellow,cross
0.0,4.0,4.0,0.0,6.0,6.0,577.9692160003833,8.0,0.0,part_2,go,350.0,450.0,1.0,,,,,,,,,cyan,circle
0.0,2.0,2.0,0.0,6.0,6.0,738.0173040000955,8.0,0.0,part_2,go,350.0,450.0,1.0,,,,,,,,,gray,flipped triangle
0.0,6.0,2.0,1.0,5.0,5.0,658.9502840006389,8.0,0.0,part_2,go,350.0,450.0,1.0,,,,,,,,,blue,I
0.0,1.0,1.0,0.0,5.0,5.0,640.1057279999804,8.0,0.0,part_2,go,350.0,450.0,1.0,,,,,,,,,orange,diamond
0.0,1.0,1.0,0.0,5.0,5.0,440.1014119994215,8.0,0.0,part_2,go,350.0,450.0,1.0,,,,,,,,,orange,diamond
0.0,7.0,3.0,1.0,6.0,6.0,449.7261910000816,8.0,0.0,part_2,go,350.0,450.0,1.0,,,,,,,,,green,square
0.0,3.0,3.0,0.0,6.0,6.0,358.9899840008002,8.0,0.0,part_2,go,350.0,450.0,1.0,,,,,,,,,white,hexagon
0.0,1.0,1.0,0.0,5.0,5.0,455.4294780000418,8.0,0.0,part_2,go,350.0,450.0,1.0,,,,,,,,,orange,diamond
0.0,3.0,3.0,0.0,5.0,5.0,484.9990430002435,8.0,0.0,part_2,go,350.0,450.0,1.0,,,,,,,,,white,hexagon
0.0,5.0,1.0,1.0,5.0,0.0,0.0,8.0,0.0,part_2,stop,350.0,450.0,4.0,,,,,,,,,magenta,triangle
0.0,4.0,4.0,0.0,6.0,6.0,564.2622069999561,8.0,0.0,part_2,go,400.0,450.0,1.0,,,,,,,,,cyan,circle
0.0,4.0,4.0,0.0,6.0,6.0,523.9750540004025,8.0,0.0,part_2,go,400.0,450.0,1.0,,,,,,,,,cyan,circle
0.0,2.0,2.0,0.0,6.0,6.0,514.7187680004208,8.0,0.0,part_2,go,400.0,450.0,1.0,,,,,,,,,gray,flipped triangle
0.0,4.0,4.0,0.0,6.0,6.0,547.4000650001472,8.0,0.0,part_2,go,400.0,450.0,1.0,,,,,,,,,cyan,circle
0.0,8.0,4.0,1.0,6.0,0.0,0.0,8.0,0.0,part_2,stop,400.0,450.0,4.0,,,,,,,,,yellow,cross
0.0,8.0,4.0,1.0,6.0,0.0,0.0,8.0,0.0,part_2,stop,400.0,500.0,4.0,,,,,,,,,yellow,cross
0.0,3.0,3.0,0.0,6.0,6.0,832.3907220001274,8.0,0.0,part_2,go,400.0,550.0,1.0,,,,,,,,,white,hexagon
0.0,6.0,2.0,1.0,6.0,6.0,855.4370159999962,8.0,0.0,part_2,go,400.0,550.0,1.0,,,,,,,,,blue,I
0.0,1.0,1.0,0.0,6.0,6.0,479.1736180004591,8.0,0.0,part_2,go,400.0,550.0,1.0,,,,,,,,,orange,diamond
0.0,5.0,1.0,1.0,6.0,6.0,408.4258340008091,8.0,0.0,part_2,stop,400.0,550.0,3.0,,,,,,,,,magenta,triangle
0.0,3.0,3.0,0.0,5.0,5.0,600.5751840002631,8.0,0.0,part_2,go,400.0,500.0,1.0,,,,,,,,,white,hexagon
0.0,1.0,1.0,0.0,6.0,6.0,494.0610450003078,8.0,0.0,part_2,go,400.0,500.0,1.0,,,,,,,,,orange,diamond
0.0,7.0,3.0,1.0,5.0,5.0,446.871572999953,8.0,0.0,part_2,stop,400.0,500.0,3.0,,,,,,,,,green,square
0.0,1.0,1.0,0.0,6.0,6.0,573.3638290003,8.0,0.0,part_2,go,350.0,500.0,1.0,,,,,,,,,orange,diamond
0.0,8.0,4.0,1.0,5.0,5.0,379.4379789997038,8.0,0.0,part_2,stop,350.0,500.0,3.0,,,,,,,,,yellow,cross
0.0,8.0,4.0,1.0,5.0,5.0,666.3798019999376,8.0,0.0,part_2,go,300.0,500.0,1.0,,,,,,,,,yellow,cross
0.0,4.0,4.0,0.0,7.0,5.0,4775.25893299935,1.0,1.0,part_3,go,0.0,0.0,0.0,540.0,4.0,135.0,405.0,675.0,810.0,540.0,270.0,cyan,circle
0.0,4.0,4.0,0.0,7.0,3.0,2144.698160999724,1.0,2.0,part_3,go,0.0,0.0,0.0,1038.0,6.0,519.0,173.0,1038.0,692.0,865.0,346.0,cyan,circle
0.0,3.0,3.0,0.0,7.0,5.0,3759.561052000208,1.0,1.0,part_3,go,0.0,0.0,0.0,580.0,5.0,348.0,464.0,696.0,232.0,580.0,116.0,white,hexagon
0.0,5.0,1.0,1.0,7.0,2.0,3602.843220999602,1.0,1.0,part_3,go,0.0,0.0,0.0,1152.0,6.0,768.0,1152.0,192.0,384.0,576.0,960.0,magenta,triangle
0.0,3.0,3.0,0.0,7.0,3.0,2491.9251729997995,1.0,1.0,part_3,go,0.0,0.0,0.0,770.0,5.0,924.0,154.0,770.0,462.0,308.0,616.0,white,hexagon
0.0,6.0,2.0,1.0,7.0,5.0,4301.62006899991,1.0,1.0,part_3,go,0.0,0.0,0.0,924.0,6.0,462.0,154.0,770.0,616.0,924.0,308.0,blue,I
0.0,4.0,4.0,0.0,7.0,2.0,3765.33149000079,1.0,1.0,part_3,go,0.0,0.0,0.0,580.0,5.0,348.0,580.0,232.0,696.0,116.0,464.0,cyan,circle
0.0,1.0,1.0,0.0,7.0,3.0,3998.4065460002967,1.0,1.0,part_3,go,0.0,0.0,0.0,580.0,5.0,116.0,348.0,580.0,696.0,464.0,232.0,orange,diamond
0.0,5.0,1.0,1.0,7.0,4.0,3151.302981000299,1.0,2.0,part_3,go,0.0,0.0,0.0,675.0,5.0,810.0,135.0,270.0,675.0,540.0,405.0,magenta,triangle
0.0,2.0,2.0,0.0,7.0,2.0,3664.697454999441,1.0,1.0,part_3,go,0.0,0.0,0.0,580.0,5.0,464.0,580.0,116.0,696.0,232.0,348.0,gray,flipped triangle
0.0,5.0,1.0,1.0,7.0,2.0,4137.506281999777,1.0,1.0,part_3,go,0.0,0.0,0.0,696.0,6.0,580.0,696.0,232.0,116.0,464.0,348.0,magenta,triangle
0.0,8.0,4.0,1.0,7.0,2.0,2981.06752700005,1.0,1.0,part_3,go,0.0,0.0,0.0,675.0,5.0,405.0,675.0,810.0,540.0,135.0,270.0,yellow,cross
0.0,8.0,4.0,1.0,7.0,4.0,3525.362820000737,1.0,1.0,part_3,go,0.0,0.0,0.0,770.0,5.0,154.0,462.0,308.0,770.0,616.0,924.0,yellow,cross
0.0,7.0,3.0,1.0,7.0,1.0,4124.287691999598,1.0,1.0,part_3,go,0.0,0.0,0.0,810.0,6.0,810.0,675.0,270.0,540.0,405.0,135.0,green,square
0.0,4.0,4.0,0.0,7.0,2.0,1798.7783649996345,1.0,1.0,part_3,go,0.0,0.0,0.0,1038.0,6.0,173.0,1038.0,865.0,346.0,692.0,519.0,cyan,circle
0.0,8.0,4.0,1.0,7.0,2.0,3562.533665999581,1.0,1.0,part_3,go,0.0,0.0,0.0,770.0,5.0,462.0,770.0,308.0,924.0,616.0,154.0,yellow,cross
0.0,7.0,3.0,1.0,7.0,6.0,2616.9539040001837,1.0,1.0,part_3,go,0.0,0.0,0.0,810.0,6.0,135.0,270.0,540.0,675.0,405.0,810.0,green,square
0.0,6.0,2.0,1.0,7.0,4.0,3883.292974999677,1.0,1.0,part_3,go,0.0,0.0,0.0,675.0,5.0,405.0,135.0,270.0,675.0,540.0,810.0,blue,I
0.0,1.0,1.0,0.0,7.0,5.0,1795.2329639992968,1.0,1.0,part_3,go,0.0,0.0,0.0,1152.0,6.0,192.0,768.0,960.0,384.0,1152.0,576.0,orange,diamond
0.0,3.0,3.0,0.0,7.0,5.0,2717.4368939995475,1.0,1.0,part_3,go,0.0,0.0,0.0,696.0,6.0,232.0,464.0,116.0,580.0,696.0,348.0,white,hexagon
0.0,5.0,1.0,1.0,7.0,1.0,1745.8561049998025,2.0,1.0,part_3,go,0.0,0.0,0.0,1038.0,6.0,1038.0,346.0,173.0,692.0,519.0,865.0,magenta,triangle
0.0,7.0,3.0,1.0,7.0,4.0,2923.3373629995185,2.0,1.0,part_3,go,0.0,0.0,0.0,960.0,5.0,576.0,192.0,768.0,960.0,384.0,1152.0,green,square
0.0,1.0,1.0,0.0,7.0,2.0,2859.7830809994775,2.0,1.0,part_3,go,0.0,0.0,0.0,865.0,5.0,519.0,865.0,692.0,173.0,1038.0,346.0,orange,diamond
0.0,8.0,4.0,1.0,7.0,1.0,3054.157471000508,2.0,1.0,part_3,go,0.0,0.0,0.0,1038.0,6.0,1038.0,519.0,865.0,692.0,173.0,346.0,yellow,cross
0.0,4.0,4.0,0.0,7.0,3.0,4135.695462000513,2.0,1.0,part_3,go,0.0,0.0,0.0,768.0,4.0,960.0,384.0,768.0,192.0,1152.0,576.0,cyan,circle
0.0,4.0,4.0,0.0,7.0,1.0,3304.379627000344,2.0,1.0,part_3,go,0.0,0.0,0.0,770.0,5.0,770.0,154.0,616.0,924.0,308.0,462.0,cyan,circle
0.0,5.0,1.0,1.0,7.0,5.0,4026.7851130001873,2.0,1.0,part_3,go,0.0,0.0,0.0,810.0,6.0,270.0,540.0,675.0,405.0,810.0,135.0,magenta,triangle
0.0,6.0,2.0,1.0,7.0,1.0,3246.4784490002785,2.0,1.0,part_3,go,0.0,0.0,0.0,865.0,5.0,865.0,1038.0,519.0,692.0,173.0,346.0,blue,I
0.0,7.0,3.0,1.0,7.0,4.0,3201.2168580004072,2.0,1.0,part_3,go,0.0,0.0,0.0,770.0,5.0,616.0,462.0,154.0,770.0,308.0,924.0,green,square
0.0,4.0,4.0,0.0,7.0,5.0,3322.3746940002457,2.0,1.0,part_3,go,0.0,0.0,0.0,696.0,6.0,464.0,232.0,580.0,348.0,696.0,116.0,cyan,circle
0.0,3.0,3.0,0.0,7.0,1.0,4066.157360000034,2.0,1.0,part_3,go,0.0,0.0,0.0,462.0,3.0,462.0,154.0,770.0,308.0,616.0,924.0,white,hexagon
0.0,2.0,2.0,0.0,7.0,3.0,2969.8065380007392,2.0,1.0,part_3,go,0.0,0.0,0.0,616.0,4.0,308.0,462.0,616.0,154.0,924.0,770.0,gray,flipped triangle
0.0,1.0,1.0,0.0,7.0,3.0,4423.805096000251,2.0,1.0,part_3,go,0.0,0.0,0.0,810.0,6.0,405.0,675.0,810.0,135.0,540.0,270.0,orange,diamond
0.0,6.0,2.0,1.0,7.0,2.0,2767.809316000239,2.0,1.0,part_3,go,0.0,0.0,0.0,675.0,5.0,405.0,675.0,810.0,135.0,270.0,540.0,blue,I
0.0,3.0,3.0,0.0,7.0,6.0,1945.5471609999224,2.0,1.0,part_3,go,0.0,0.0,0.0,1038.0,6.0,865.0,692.0,519.0,173.0,346.0,1038.0,white,hexagon
0.0,4.0,4.0,0.0,7.0,2.0,2743.916243000058,2.0,1.0,part_3,go,0.0,0.0,0.0,924.0,6.0,154.0,924.0,308.0,616.0,462.0,770.0,cyan,circle
0.0,1.0,1.0,0.0,7.0,1.0,3594.0679230006936,2.0,1.0,part_3,go,0.0,0.0,0.0,1152.0,6.0,1152.0,192.0,960.0,384.0,576.0,768.0,orange,diamond
0.0,1.0,1.0,0.0,7.0,2.0,3362.522829000227,2.0,1.0,part_3,go,0.0,0.0,0.0,924.0,6.0,770.0,924.0,308.0,154.0,462.0,616.0,orange,diamond
0.0,2.0,2.0,0.0,7.0,1.0,3349.093916000129,2.0,1.0,part_3,go,0.0,0.0,0.0,692.0,4.0,692.0,346.0,173.0,865.0,1038.0,519.0,gray,flipped triangle
0.0,6.0,2.0,1.0,7.0,6.0,2756.9833020006627,2.0,1.0,part_3,go,0.0,0.0,0.0,770.0,5.0,616.0,154.0,924.0,462.0,308.0,770.0,blue,I
0.0,4.0,4.0,0.0,7.0,2.0,3203.7383099996077,3.0,1.0,part_3,go,0.0,0.0,0.0,960.0,5.0,768.0,960.0,192.0,384.0,1152.0,576.0,cyan,circle
0.0,1.0,1.0,0.0,7.0,4.0,3069.9261049994675,3.0,1.0,part_3,go,0.0,0.0,0.0,692.0,4.0,173.0,865.0,519.0,692.0,346.0,1038.0,orange,diamond
0.0,4.0,4.0,0.0,7.0,2.0,2985.2890669999397,3.0,1.0,part_3,go,0.0,0.0,0.0,810.0,6.0,675.0,810.0,540.0,270.0,135.0,405.0,cyan,circle
0.0,3.0,3.0,0.0,7.0,4.0,3384.679700000561,3.0,1.0,part_3,go,0.0,0.0,0.0,675.0,5.0,405.0,270.0,135.0,675.0,810.0,540.0,white,hexagon
0.0,7.0,3.0,1.0,7.0,2.0,3561.989617999643,3.0,1.0,part_3,go,0.0,0.0,0.0,462.0,3.0,770.0,462.0,616.0,154.0,924.0,308.0,green,square
0.0,8.0,4.0,1.0,7.0,2.0,819.4002030004413,3.0,2.0,part_3,go,0.0,0.0,0.0,348.0,3.0,232.0,348.0,464.0,696.0,116.0,580.0,yellow,cross
0.0,1.0,1.0,0.0,7.0,6.0,3148.6427180007013,3.0,1.0,part_3,go,0.0,0.0,0.0,464.0,4.0,116.0,232.0,580.0,348.0,696.0,464.0,orange,diamond
0.0,5.0,1.0,1.0,7.0,4.0,992.8279340001608,3.0,2.0,part_3,go,0.0,0.0,0.0,1152.0,6.0,192.0,960.0,768.0,1152.0,384.0,576.0,magenta,triangle
0.0,8.0,4.0,1.0,7.0,1.0,2808.7102279996543,3.0,1.0,part_3,go,0.0,0.0,0.0,405.0,3.0,405.0,810.0,270.0,675.0,540.0,135.0,yellow,cross
0.0,6.0,2.0,1.0,7.0,4.0,4042.094030000044,3.0,1.0,part_3,go,0.0,0.0,0.0,768.0,4.0,384.0,192.0,1152.0,768.0,576.0,960.0,blue,I
0.0,2.0,2.0,0.0,7.0,6.0,2735.760740999467,3.0,1.0,part_3,go,0.0,0.0,0.0,580.0,5.0,348.0,696.0,116.0,232.0,464.0,580.0,gray,flipped triangle
0.0,7.0,3.0,1.0,7.0,5.0,2727.540260000751,3.0,1.0,part_3,go,0.0,0.0,0.0,1152.0,6.0,192.0,384.0,768.0,960.0,1152.0,576.0,green,square
0.0,3.0,3.0,0.0,7.0,1.0,2744.9449579999055,3.0,1.0,part_3,go,0.0,0.0,0.0,692.0,4.0,692.0,1038.0,173.0,346.0,519.0,865.0,white,hexagon
0.0,5.0,1.0,1.0,7.0,5.0,2426.6301879997627,3.0,1.0,part_3,go,0.0,0.0,0.0,580.0,5.0,696.0,348.0,232.0,464.0,580.0,116.0,magenta,triangle
0.0,8.0,4.0,1.0,7.0,4.0,3771.244788000331,3.0,1.0,part_3,go,0.0,0.0,0.0,865.0,5.0,519.0,346.0,692.0,865.0,173.0,1038.0,yellow,cross
0.0,2.0,2.0,0.0,7.0,2.0,3030.561948000468,3.0,1.0,part_3,go,0.0,0.0,0.0,576.0,3.0,1152.0,576.0,384.0,192.0,960.0,768.0,gray,flipped triangle
0.0,7.0,3.0,1.0,7.0,1.0,2774.5611509999435,3.0,1.0,part_3,go,0.0,0.0,0.0,346.0,2.0,346.0,865.0,519.0,1038.0,692.0,173.0,green,square
0.0,8.0,4.0,1.0,7.0,1.0,1487.5406669998483,3.0,2.0,part_3,go,0.0,0.0,0.0,384.0,2.0,384.0,1152.0,768.0,960.0,192.0,576.0,yellow,cross
0.0,5.0,1.0,1.0,7.0,6.0,2955.529681000371,3.0,1.0,part_3,go,0.0,0.0,0.0,519.0,3.0,346.0,173.0,1038.0,692.0,865.0,519.0,magenta,triangle
0.0,6.0,2.0,1.0,7.0,2.0,4101.538117000018,3.0,1.0,part_3,go,0.0,0.0,0.0,1038.0,6.0,519.0,1038.0,346.0,865.0,692.0,173.0,blue,I
0.0,2.0,2.0,0.0,7.0,3.0,3451.290525999866,4.0,1.0,part_3,go,0.0,0.0,0.0,675.0,5.0,405.0,810.0,675.0,135.0,540.0,270.0,gray,flipped triangle
0.0,2.0,2.0,0.0,7.0,4.0,4595.111650000035,4.0,1.0,part_3,go,0.0,0.0,0.0,865.0,5.0,692.0,173.0,1038.0,865.0,346.0,519.0,gray,flipped triangle
0.0,8.0,4.0,1.0,7.0,6.0,1968.7485699996616,4.0,1.0,part_3,go,0.0,0.0,0.0,580.0,5.0,116.0,348.0,232.0,464.0,696.0,580.0,yellow,cross
0.0,3.0,3.0,0.0,7.0,5.0,3274.8243730002287,4.0,1.0,part_3,go,0.0,0.0,0.0,540.0,4.0,270.0,405.0,135.0,675.0,540.0,810.0,white,hexagon
0.0,5.0,1.0,1.0,7.0,4.0,2491.3204080003197,4.0,1.0,part_3,go,0.0,0.0,0.0,770.0,5.0,616.0,308.0,154.0,770.0,924.0,462.0,magenta,triangle
0.0,1.0,1.0,0.0,7.0,1.0,3527.2392139995645,4.0,1.0,part_3,go,0.0,0.0,0.0,540.0,4.0,540.0,675.0,135.0,405.0,270.0,810.0,orange,diamond
0.0,8.0,4.0,1.0,7.0,6.0,3526.189909000095,4.0,1.0,part_3,go,0.0,0.0,0.0,1152.0,6.0,768.0,384.0,576.0,960.0,192.0,1152.0,yellow,cross
0.0,6.0,2.0,1.0,7.0,2.0,2552.417306999814,4.0,1.0,part_3,go,0.0,0.0,0.0,696.0,6.0,116.0,696.0,464.0,232.0,348.0,580.0,blue,I
0.0,7.0,3.0,1.0,7.0,2.0,2423.9542069999516,4.0,1.0,part_3,go,0.0,0.0,0.0,580.0,5.0,348.0,580.0,116.0,464.0,696.0,232.0,green,square
0.0,2.0,2.0,0.0,7.0,2.0,4236.19628600045,4.0,1.0,part_3,go,0.0,0.0,0.0,960.0,5.0,576.0,960.0,192.0,1152.0,384.0,768.0,gray,flipped triangle
0.0,7.0,3.0,1.0,7.0,5.0,3760.8627429999615,4.0,1.0,part_3,go,0.0,0.0,0.0,346.0,2.0,1038.0,692.0,173.0,519.0,346.0,865.0,green,square
0.0,2.0,2.0,0.0,7.0,3.0,4224.077808000402,4.0,1.0,part_3,go,0.0,0.0,0.0,810.0,6.0,135.0,405.0,810.0,540.0,675.0,270.0,gray,flipped triangle
0.0,7.0,3.0,1.0,7.0,2.0,4023.9436009997007,4.0,1.0,part_3,go,0.0,0.0,0.0,348.0,3.0,232.0,348.0,464.0,580.0,696.0,116.0,green,square
0.0,6.0,2.0,1.0,7.0,2.0,4883.45195599959,4.0,1.0,part_3,go,0.0,0.0,0.0,580.0,5.0,464.0,580.0,348.0,116.0,232.0,696.0,blue,I
0.0,3.0,3.0,0.0,7.0,3.0,4048.8418539998747,4.0,1.0,part_3,go,0.0,0.0,0.0,384.0,2.0,192.0,960.0,384.0,1152.0,768.0,576.0,white,hexagon
0.0,2.0,2.0,0.0,7.0,5.0,3203.9622330003112,4.0,1.0,part_3,go,0.0,0.0,0.0,616.0,4.0,154.0,308.0,924.0,770.0,616.0,462.0,gray,flipped triangle
0.0,5.0,1.0,1.0,7.0,2.0,2940.4285179998624,4.0,1.0,part_3,go,0.0,0.0,0.0,770.0,5.0,616.0,770.0,308.0,924.0,462.0,154.0,magenta,triangle
0.0,3.0,3.0,0.0,7.0,6.0,2311.9224889996985,4.0,1.0,part_3,go,0.0,0.0,0.0,1152.0,6.0,576.0,768.0,192.0,384.0,960.0,1152.0,white,hexagon
0.0,6.0,2.0,1.0,7.0,4.0,1897.26952699948,4.0,1.0,part_3,go,0.0,0.0,0.0,768.0,4.0,576.0,192.0,960.0,768.0,1152.0,384.0,blue,I
0.0,1.0,1.0,0.0,7.0,2.0,2258.611514000222,4.0,1.0,part_3,go,0.0,0.0,0.0,462.0,3.0,924.0,462.0,154.0,308.0,616.0,770.0,orange,diamond
