raw_reward_magnitude,stim_reward,stepwise_reward_magnitude,paired_with_stopping,stim_location,response,reaction_time,block,num_trial_presentations,which_phase,stop_signal_trial_type,left_SSD,right_SSD,accuracy,chosen_bidding_amount,chosen_bidding_level,possible_bid_1,possible_bid_2,possible_bid_3,possible_bid_4,possible_bid_5,possible_bid_6,color_text,shape_text
629.0,7.0,2.0,1.0,4.0,4.0,547.1564029999172,1.0,1.0,phase_1,,,,,,,,,,,,,white,flipped triangle
314.0,2.0,1.0,0.0,3.0,3.0,408.0478920000132,1.0,1.0,phase_1,,,,,,,,,,,,,orange,I
0.0,1.0,0.0,0.0,1.0,1.0,283.7895509999271,1.0,1.0,phase_1,,,,,,,,,,,,,green,triangle
347.0,6.0,1.0,1.0,1.0,1.0,457.1839990001081,1.0,1.0,phase_1,,,,,,,,,,,,,cyan,diamond
1312.0,8.0,4.0,1.0,2.0,2.0,463.279896999893,1.0,1.0,phase_1,,,,,,,,,,,,,magenta,cross
671.0,7.0,2.0,1.0,3.0,3.0,562.5967700000274,1.0,1.0,phase_1,,,,,,,,,,,,,white,flipped triangle
0.0,4.0,0.0,0.0,1.0,1.0,464.077800999803,1.0,1.0,phase_1,,,,,,,,,,,,,yellow,circle
179.0,1.0,0.5,0.0,2.0,2.0,379.6420549999766,1.0,1.0,phase_1,,,,,,,,,,,,,green,triangle
671.0,3.0,2.0,0.0,3.0,3.0,361.6311930002212,1.0,1.0,phase_1,,,,,,,,,,,,,gray,square
0.0,7.0,0.0,1.0,4.0,4.0,388.9432070000111,1.0,1.0,phase_1,,,,,,,,,,,,,white,flipped triangle
630.0,3.0,2.0,0.0,3.0,3.0,362.6842390001457,1.0,1.0,phase_1,,,,,,,,,,,,,gray,square
162.0,5.0,0.5,1.0,2.0,2.0,344.0555590000258,1.0,1.0,phase_1,,,,,,,,,,,,,blue,hexagon
629.0,3.0,2.0,0.0,1.0,1.0,322.4955190000855,1.0,1.0,phase_1,,,,,,,,,,,,,gray,square
1309.0,4.0,4.0,0.0,4.0,4.0,311.1644559999149,1.0,1.0,phase_1,,,,,,,,,,,,,yellow,circle
1303.0,8.0,4.0,1.0,3.0,3.0,445.7978560001265,1.0,1.0,phase_1,,,,,,,,,,,,,magenta,cross
310.0,2.0,1.0,0.0,1.0,1.0,367.9273220000141,1.0,1.0,phase_1,,,,,,,,,,,,,orange,I
186.0,5.0,0.5,1.0,3.0,3.0,277.630715999976,1.0,1.0,phase_1,,,,,,,,,,,,,blue,hexagon
309.0,2.0,1.0,0.0,4.0,4.0,356.2061200000244,1.0,1.0,phase_1,,,,,,,,,,,,,orange,I
141.0,1.0,0.5,0.0,3.0,3.0,392.230574999985,1.0,1.0,phase_1,,,,,,,,,,,,,green,triangle
157.0,1.0,0.5,0.0,2.0,2.0,379.5089810000718,1.0,1.0,phase_1,,,,,,,,,,,,,green,triangle
0.0,6.0,0.0,1.0,1.0,1.0,335.939006999979,1.0,1.0,phase_1,,,,,,,,,,,,,cyan,diamond
142.0,1.0,0.5,0.0,4.0,4.0,316.5564460000496,1.0,1.0,phase_1,,,,,,,,,,,,,green,triangle
166.0,5.0,0.5,1.0,3.0,3.0,313.4055610000814,1.0,1.0,phase_1,,,,,,,,,,,,,blue,hexagon
1320.0,8.0,4.0,1.0,2.0,2.0,341.8497289999322,1.0,1.0,phase_1,,,,,,,,,,,,,magenta,cross
0.0,7.0,0.0,1.0,4.0,4.0,242.1206480000819,1.0,1.0,phase_1,,,,,,,,,,,,,white,flipped triangle
1305.0,4.0,4.0,0.0,2.0,2.0,352.6981820000401,1.0,1.0,phase_1,,,,,,,,,,,,,yellow,circle
672.0,7.0,2.0,1.0,4.0,4.0,283.9439350000248,1.0,1.0,phase_1,,,,,,,,,,,,,white,flipped triangle
172.0,1.0,0.5,0.0,4.0,4.0,344.4223419999161,1.0,1.0,phase_1,,,,,,,,,,,,,green,triangle
148.0,5.0,0.5,1.0,2.0,2.0,380.661659999987,1.0,1.0,phase_1,,,,,,,,,,,,,blue,hexagon
339.0,2.0,1.0,0.0,2.0,2.0,313.1286770001225,1.0,1.0,phase_1,,,,,,,,,,,,,orange,I
1290.0,4.0,4.0,0.0,4.0,4.0,430.3312899999127,1.0,1.0,phase_1,,,,,,,,,,,,,yellow,circle
339.0,6.0,1.0,1.0,2.0,2.0,292.6582239999789,1.0,1.0,phase_1,,,,,,,,,,,,,cyan,diamond
0.0,5.0,0.0,1.0,2.0,2.0,310.7790619999377,1.0,1.0,phase_1,,,,,,,,,,,,,blue,hexagon
1300.0,8.0,4.0,1.0,3.0,3.0,333.8125570001011,1.0,1.0,phase_1,,,,,,,,,,,,,magenta,cross
1297.0,4.0,4.0,0.0,4.0,4.0,336.3144950001242,1.0,1.0,phase_1,,,,,,,,,,,,,yellow,circle
151.0,5.0,0.5,1.0,2.0,2.0,356.817645999854,1.0,1.0,phase_1,,,,,,,,,,,,,blue,hexagon
343.0,6.0,1.0,1.0,4.0,4.0,299.7822289999021,1.0,1.0,phase_1,,,,,,,,,,,,,cyan,diamond
162.0,1.0,0.5,0.0,3.0,3.0,344.0815139999813,1.0,1.0,phase_1,,,,,,,,,,,,,green,triangle
637.0,7.0,2.0,1.0,3.0,3.0,370.6892969998989,1.0,1.0,phase_1,,,,,,,,,,,,,white,flipped triangle
630.0,3.0,2.0,0.0,1.0,1.0,412.1373089999451,1.0,2.0,phase_1,,,,,,,,,,,,,gray,square
659.0,7.0,2.0,1.0,2.0,2.0,401.1546369999905,1.0,1.0,phase_1,,,,,,,,,,,,,white,flipped triangle
659.0,3.0,2.0,0.0,3.0,3.0,358.780379999871,1.0,1.0,phase_1,,,,,,,,,,,,,gray,square
170.0,5.0,0.5,1.0,4.0,4.0,370.5656960000851,1.0,1.0,phase_1,,,,,,,,,,,,,blue,hexagon
1294.0,4.0,4.0,0.0,4.0,4.0,378.0067000000144,1.0,1.0,phase_1,,,,,,,,,,,,,yellow,circle
648.0,3.0,2.0,0.0,4.0,4.0,532.2982729999239,1.0,1.0,phase_1,,,,,,,,,,,,,gray,square
1278.0,8.0,4.0,1.0,4.0,4.0,339.0746510001463,1.0,1.0,phase_1,,,,,,,,,,,,,magenta,cross
1284.0,8.0,4.0,1.0,1.0,1.0,413.003050000043,1.0,1.0,phase_1,,,,,,,,,,,,,magenta,cross
0.0,8.0,0.0,1.0,4.0,4.0,385.5143859998406,1.0,1.0,phase_1,,,,,,,,,,,,,magenta,cross
301.0,2.0,1.0,0.0,2.0,2.0,400.7038519998787,1.0,1.0,phase_1,,,,,,,,,,,,,orange,I
148.0,1.0,0.5,0.0,3.0,3.0,370.9816370001135,1.0,1.0,phase_1,,,,,,,,,,,,,green,triangle
0.0,4.0,0.0,0.0,3.0,3.0,359.2232949999925,1.0,1.0,phase_1,,,,,,,,,,,,,yellow,circle
0.0,1.0,0.0,0.0,3.0,3.0,356.2316459999692,1.0,1.0,phase_1,,,,,,,,,,,,,green,triangle
0.0,4.0,0.0,0.0,4.0,4.0,409.9465990000226,1.0,1.0,phase_1,,,,,,,,,,,,,yellow,circle
0.0,5.0,0.0,1.0,1.0,1.0,559.2255740000383,1.0,1.0,phase_1,,,,,,,,,,,,,blue,hexagon
0.0,5.0,0.0,1.0,4.0,4.0,417.9395250000652,1.0,1.0,phase_1,,,,,,,,,,,,,blue,hexagon
309.0,6.0,1.0,1.0,4.0,4.0,457.3172160000922,1.0,1.0,phase_1,,,,,,,,,,,,,cyan,diamond
158.0,1.0,0.5,0.0,2.0,2.0,435.5727519998709,1.0,1.0,phase_1,,,,,,,,,,,,,green,triangle
1320.0,4.0,4.0,0.0,4.0,4.0,424.2803459999322,1.0,1.0,phase_1,,,,,,,,,,,,,yellow,circle
0.0,3.0,0.0,0.0,2.0,2.0,430.4966189999959,1.0,1.0,phase_1,,,,,,,,,,,,,gray,square
165.0,1.0,0.5,0.0,3.0,3.0,363.1508070000109,1.0,1.0,phase_1,,,,,,,,,,,,,green,triangle
1286.0,8.0,4.0,1.0,4.0,4.0,478.0923470000289,1.0,1.0,phase_1,,,,,,,,,,,,,magenta,cross
649.0,7.0,2.0,1.0,2.0,2.0,426.8687060000502,1.0,1.0,phase_1,,,,,,,,,,,,,white,flipped triangle
0.0,1.0,0.0,0.0,1.0,1.0,503.2744099999036,1.0,1.0,phase_1,,,,,,,,,,,,,green,triangle
0.0,6.0,0.0,1.0,1.0,1.0,444.8515959998076,1.0,1.0,phase_1,,,,,,,,,,,,,cyan,diamond
146.0,5.0,0.5,1.0,4.0,4.0,425.135550999812,1.0,1.0,phase_1,,,,,,,,,,,,,blue,hexagon
166.0,5.0,0.5,1.0,3.0,3.0,332.7347010001631,1.0,1.0,phase_1,,,,,,,,,,,,,blue,hexagon
666.0,3.0,2.0,0.0,4.0,4.0,386.6682649997983,1.0,1.0,phase_1,,,,,,,,,,,,,gray,square
674.0,3.0,2.0,0.0,2.0,2.0,406.2325730001248,1.0,1.0,phase_1,,,,,,,,,,,,,gray,square
139.0,5.0,0.5,1.0,2.0,2.0,362.052661000007,1.0,2.0,phase_1,,,,,,,,,,,,,blue,hexagon
0.0,2.0,0.0,0.0,3.0,3.0,341.0882170001059,1.0,1.0,phase_1,,,,,,,,,,,,,orange,I
155.0,1.0,0.5,0.0,1.0,1.0,553.1598699999449,1.0,1.0,phase_1,,,,,,,,,,,,,green,triangle
324.0,2.0,1.0,0.0,4.0,4.0,477.2712869998941,1.0,1.0,phase_1,,,,,,,,,,,,,orange,I
0.0,7.0,0.0,1.0,2.0,2.0,402.0752869998887,1.0,1.0,phase_1,,,,,,,,,,,,,white,flipped triangle
334.0,2.0,1.0,0.0,4.0,4.0,406.1843439999393,1.0,1.0,phase_1,,,,,,,,,,,,,orange,I
636.0,3.0,2.0,0.0,2.0,2.0,403.2956349999494,1.0,1.0,phase_1,,,,,,,,,,,,,gray,square
647.0,3.0,2.0,0.0,1.0,1.0,544.9038230001406,1.0,1.0,phase_1,,,,,,,,,,,,,gray,square
184.0,1.0,0.5,0.0,2.0,2.0,332.3651830000926,1.0,1.0,phase_1,,,,,,,,,,,,,green,triangle
154.0,1.0,0.5,0.0,4.0,4.0,449.6538410000994,1.0,1.0,phase_1,,,,,,,,,,,,,green,triangle
1312.0,4.0,4.0,0.0,3.0,3.0,382.8683079998427,1.0,1.0,phase_1,,,,,,,,,,,,,yellow,circle
143.0,1.0,0.5,0.0,1.0,1.0,434.7611459998006,1.0,1.0,phase_1,,,,,,,,,,,,,green,triangle
141.0,5.0,0.5,1.0,1.0,1.0,374.7001879999061,1.0,1.0,phase_1,,,,,,,,,,,,,blue,hexagon
0.0,7.0,0.0,1.0,1.0,1.0,388.963829999966,1.0,1.0,phase_1,,,,,,,,,,,,,white,flipped triangle
1289.0,8.0,4.0,1.0,4.0,4.0,401.9688969999606,1.0,1.0,phase_1,,,,,,,,,,,,,magenta,cross
0.0,3.0,0.0,0.0,4.0,4.0,359.3978790001984,1.0,1.0,phase_1,,,,,,,,,,,,,gray,square
644.0,3.0,2.0,0.0,2.0,2.0,449.4154510000498,1.0,1.0,phase_1,,,,,,,,,,,,,gray,square
1321.0,4.0,4.0,0.0,2.0,2.0,461.3914609999483,1.0,1.0,phase_1,,,,,,,,,,,,,yellow,circle
1309.0,8.0,4.0,1.0,4.0,4.0,418.5520949999954,1.0,1.0,phase_1,,,,,,,,,,,,,magenta,cross
348.0,2.0,1.0,0.0,1.0,1.0,495.7380079999893,1.0,1.0,phase_1,,,,,,,,,,,,,orange,I
636.0,7.0,2.0,1.0,2.0,2.0,387.3266279999825,1.0,1.0,phase_1,,,,,,,,,,,,,white,flipped triangle
327.0,6.0,1.0,1.0,4.0,4.0,361.0883320000084,1.0,1.0,phase_1,,,,,,,,,,,,,cyan,diamond
672.0,3.0,2.0,0.0,1.0,1.0,381.5354040000329,1.0,1.0,phase_1,,,,,,,,,,,,,gray,square
329.0,2.0,1.0,0.0,3.0,3.0,370.3575089998594,1.0,1.0,phase_1,,,,,,,,,,,,,orange,I
310.0,6.0,1.0,1.0,1.0,1.0,565.5347819999861,1.0,1.0,phase_1,,,,,,,,,,,,,cyan,diamond
1280.0,8.0,4.0,1.0,1.0,1.0,371.66037399993,1.0,1.0,phase_1,,,,,,,,,,,,,magenta,cross
662.0,7.0,2.0,1.0,3.0,3.0,384.0835040000456,1.0,1.0,phase_1,,,,,,,,,,,,,white,flipped triangle
0.0,2.0,0.0,0.0,3.0,3.0,397.9186419999223,1.0,1.0,phase_1,,,,,,,,,,,,,orange,I
0.0,2.0,0.0,0.0,1.0,1.0,385.5293120000169,1.0,1.0,phase_1,,,,,,,,,,,,,orange,I
335.0,6.0,1.0,1.0,1.0,1.0,349.817264999956,1.0,1.0,phase_1,,,,,,,,,,,,,cyan,diamond
0.0,6.0,0.0,1.0,4.0,4.0,375.388552000004,1.0,2.0,phase_1,,,,,,,,,,,,,cyan,diamond
1319.0,4.0,4.0,0.0,3.0,3.0,444.2820200001733,1.0,1.0,phase_1,,,,,,,,,,,,,yellow,circle
0.0,4.0,0.0,0.0,3.0,3.0,354.7618109998893,2.0,1.0,phase_1,,,,,,,,,,,,,yellow,circle
314.0,6.0,1.0,1.0,3.0,3.0,376.6697559999556,2.0,1.0,phase_1,,,,,,,,,,,,,cyan,diamond
0.0,5.0,0.0,1.0,1.0,1.0,428.1150889999026,2.0,1.0,phase_1,,,,,,,,,,,,,blue,hexagon
668.0,3.0,2.0,0.0,1.0,1.0,352.5292259998878,2.0,1.0,phase_1,,,,,,,,,,,,,gray,square
1292.0,8.0,4.0,1.0,4.0,4.0,517.6592729999356,2.0,1.0,phase_1,,,,,,,,,,,,,magenta,cross
0.0,8.0,0.0,1.0,2.0,2.0,411.3379089999398,2.0,1.0,phase_1,,,,,,,,,,,,,magenta,cross
161.0,5.0,0.5,1.0,4.0,4.0,415.3020450000895,2.0,1.0,phase_1,,,,,,,,,,,,,blue,hexagon
343.0,6.0,1.0,1.0,3.0,3.0,374.0057960001195,2.0,1.0,phase_1,,,,,,,,,,,,,cyan,diamond
317.0,6.0,1.0,1.0,1.0,1.0,431.1029650000364,2.0,1.0,phase_1,,,,,,,,,,,,,cyan,diamond
314.0,2.0,1.0,0.0,3.0,3.0,436.6065639999306,2.0,1.0,phase_1,,,,,,,,,,,,,orange,I
0.0,2.0,0.0,0.0,4.0,4.0,424.5445369999743,2.0,1.0,phase_1,,,,,,,,,,,,,orange,I
334.0,6.0,1.0,1.0,4.0,4.0,397.9683869999917,2.0,1.0,phase_1,,,,,,,,,,,,,cyan,diamond
332.0,2.0,1.0,0.0,2.0,2.0,433.6188870001933,2.0,1.0,phase_1,,,,,,,,,,,,,orange,I
181.0,1.0,0.5,0.0,1.0,1.0,414.9593610000011,2.0,1.0,phase_1,,,,,,,,,,,,,green,triangle
301.0,6.0,1.0,1.0,3.0,3.0,388.8731879999341,2.0,1.0,phase_1,,,,,,,,,,,,,cyan,diamond
0.0,5.0,0.0,1.0,2.0,2.0,385.5025799998657,2.0,1.0,phase_1,,,,,,,,,,,,,blue,hexagon
666.0,7.0,2.0,1.0,1.0,1.0,365.0762400000076,2.0,1.0,phase_1,,,,,,,,,,,,,white,flipped triangle
1284.0,4.0,4.0,0.0,2.0,2.0,433.7305349999951,2.0,1.0,phase_1,,,,,,,,,,,,,yellow,circle
1279.0,8.0,4.0,1.0,2.0,2.0,413.374567999881,2.0,1.0,phase_1,,,,,,,,,,,,,magenta,cross
668.0,7.0,2.0,1.0,3.0,3.0,419.4937219999701,2.0,1.0,phase_1,,,,,,,,,,,,,white,flipped triangle
1300.0,4.0,4.0,0.0,3.0,3.0,370.1193179999791,2.0,1.0,phase_1,,,,,,,,,,,,,yellow,circle
141.0,1.0,0.5,0.0,1.0,1.0,389.4724070000848,2.0,1.0,phase_1,,,,,,,,,,,,,green,triangle
0.0,2.0,0.0,0.0,2.0,2.0,305.1336149999315,2.0,1.0,phase_1,,,,,,,,,,,,,orange,I
0.0,2.0,0.0,0.0,4.0,4.0,374.4563389998347,2.0,1.0,phase_1,,,,,,,,,,,,,orange,I
1278.0,4.0,4.0,0.0,4.0,4.0,370.3230539999822,2.0,1.0,phase_1,,,,,,,,,,,,,yellow,circle
663.0,7.0,2.0,1.0,1.0,1.0,496.7185229997994,2.0,1.0,phase_1,,,,,,,,,,,,,white,flipped triangle
318.0,2.0,1.0,0.0,3.0,3.0,364.9629040000945,2.0,1.0,phase_1,,,,,,,,,,,,,orange,I
311.0,2.0,1.0,0.0,1.0,1.0,376.413728999978,2.0,1.0,phase_1,,,,,,,,,,,,,orange,I
630.0,7.0,2.0,1.0,4.0,4.0,388.8763500003733,2.0,1.0,phase_1,,,,,,,,,,,,,white,flipped triangle
0.0,4.0,0.0,0.0,3.0,3.0,395.3964550000819,2.0,1.0,phase_1,,,,,,,,,,,,,yellow,circle
302.0,2.0,1.0,0.0,4.0,4.0,349.7149979998539,2.0,1.0,phase_1,,,,,,,,,,,,,orange,I
1280.0,4.0,4.0,0.0,3.0,3.0,370.2575390002494,2.0,1.0,phase_1,,,,,,,,,,,,,yellow,circle
1316.0,4.0,4.0,0.0,1.0,1.0,423.5040280000248,2.0,1.0,phase_1,,,,,,,,,,,,,yellow,circle
0.0,7.0,0.0,1.0,1.0,1.0,395.6099860001814,2.0,1.0,phase_1,,,,,,,,,,,,,white,flipped triangle
151.0,1.0,0.5,0.0,2.0,2.0,538.5180969997236,2.0,1.0,phase_1,,,,,,,,,,,,,green,triangle
1279.0,4.0,4.0,0.0,1.0,1.0,388.5025220001807,2.0,1.0,phase_1,,,,,,,,,,,,,yellow,circle
166.0,1.0,0.5,0.0,2.0,2.0,347.9126209999776,2.0,1.0,phase_1,,,,,,,,,,,,,green,triangle
1290.0,8.0,4.0,1.0,2.0,2.0,328.6541160000524,2.0,1.0,phase_1,,,,,,,,,,,,,magenta,cross
347.0,2.0,1.0,0.0,1.0,1.0,412.1063309999044,2.0,1.0,phase_1,,,,,,,,,,,,,orange,I
0.0,7.0,0.0,1.0,2.0,2.0,344.1334480003206,2.0,1.0,phase_1,,,,,,,,,,,,,white,flipped triangle
1279.0,8.0,4.0,1.0,1.0,1.0,387.6143920001595,2.0,1.0,phase_1,,,,,,,,,,,,,magenta,cross
324.0,6.0,1.0,1.0,2.0,2.0,346.5500089996567,2.0,1.0,phase_1,,,,,,,,,,,,,cyan,diamond
0.0,5.0,0.0,1.0,2.0,2.0,317.1308500000123,2.0,1.0,phase_1,,,,,,,,,,,,,blue,hexagon
335.0,2.0,1.0,0.0,2.0,2.0,337.2567660003369,2.0,1.0,phase_1,,,,,,,,,,,,,orange,I
168.0,5.0,0.5,1.0,2.0,2.0,351.5290339996682,2.0,1.0,phase_1,,,,,,,,,,,,,blue,hexagon
321.0,2.0,1.0,0.0,3.0,3.0,468.9860290000069,2.0,1.0,phase_1,,,,,,,,,,,,,orange,I
158.0,5.0,0.5,1.0,1.0,1.0,487.5460010002825,2.0,1.0,phase_1,,,,,,,,,,,,,blue,hexagon
653.0,3.0,2.0,0.0,2.0,2.0,398.7943920001271,2.0,1.0,phase_1,,,,,,,,,,,,,gray,square
636.0,3.0,2.0,0.0,2.0,2.0,355.7455650002339,2.0,1.0,phase_1,,,,,,,,,,,,,gray,square
327.0,2.0,1.0,0.0,4.0,4.0,406.2164540000594,2.0,1.0,phase_1,,,,,,,,,,,,,orange,I
314.0,6.0,1.0,1.0,4.0,4.0,355.0375160002659,2.0,1.0,phase_1,,,,,,,,,,,,,cyan,diamond
637.0,3.0,2.0,0.0,3.0,3.0,344.7391289996631,2.0,1.0,phase_1,,,,,,,,,,,,,gray,square
1283.0,8.0,4.0,1.0,2.0,2.0,412.9959629999575,2.0,1.0,phase_1,,,,,,,,,,,,,magenta,cross
635.0,3.0,2.0,0.0,4.0,4.0,368.608561000201,2.0,1.0,phase_1,,,,,,,,,,,,,gray,square
1321.0,8.0,4.0,1.0,4.0,4.0,364.9952830000984,2.0,1.0,phase_1,,,,,,,,,,,,,magenta,cross
178.0,5.0,0.5,1.0,3.0,3.0,476.5012960001513,2.0,1.0,phase_1,,,,,,,,,,,,,blue,hexagon
1280.0,4.0,4.0,0.0,3.0,3.0,367.1572969997214,2.0,1.0,phase_1,,,,,,,,,,,,,yellow,circle
1311.0,8.0,4.0,1.0,4.0,4.0,340.7042120002188,2.0,1.0,phase_1,,,,,,,,,,,,,magenta,cross
0.0,6.0,0.0,1.0,1.0,1.0,393.9199579999695,2.0,1.0,phase_1,,,,,,,,,,,,,cyan,diamond
0.0,5.0,0.0,1.0,2.0,2.0,341.6287000000011,2.0,1.0,phase_1,,,,,,,,,,,,,blue,hexagon
1284.0,8.0,4.0,1.0,1.0,1.0,457.0011560003877,2.0,1.0,phase_1,,,,,,,,,,,,,magenta,cross
1289.0,4.0,4.0,0.0,3.0,3.0,358.2364889998644,2.0,1.0,phase_1,,,,,,,,,,,,,yellow,circle
186.0,1.0,0.5,0.0,1.0,1.0,362.2809179996693,2.0,1.0,phase_1,,,,,,,,,,,,,green,triangle
168.0,1.0,0.5,0.0,2.0,2.0,296.3326590001998,2.0,1.0,phase_1,,,,,,,,,,,,,green,triangle
334.0,2.0,1.0,0.0,1.0,1.0,371.8642880003244,2.0,1.0,phase_1,,,,,,,,,,,,,orange,I
306.0,6.0,1.0,1.0,1.0,1.0,319.7827049998523,2.0,1.0,phase_1,,,,,,,,,,,,,cyan,diamond
634.0,3.0,2.0,0.0,4.0,4.0,468.8494110000647,2.0,1.0,phase_1,,,,,,,,,,,,,gray,square
674.0,3.0,2.0,0.0,4.0,4.0,370.3638120000505,2.0,1.0,phase_1,,,,,,,,,,,,,gray,square
658.0,3.0,2.0,0.0,1.0,1.0,398.1145389998346,2.0,1.0,phase_1,,,,,,,,,,,,,gray,square
1312.0,8.0,4.0,1.0,1.0,1.0,429.0151250002054,2.0,1.0,phase_1,,,,,,,,,,,,,magenta,cross
143.0,5.0,0.5,1.0,2.0,2.0,431.4124799998353,2.0,1.0,phase_1,,,,,,,,,,,,,blue,hexagon
153.0,1.0,0.5,0.0,1.0,1.0,315.6744220000291,2.0,1.0,phase_1,,,,,,,,,,,,,green,triangle
659.0,3.0,2.0,0.0,3.0,3.0,394.9345840001115,2.0,1.0,phase_1,,,,,,,,,,,,,gray,square
1286.0,4.0,4.0,0.0,3.0,3.0,436.6448759997183,2.0,1.0,phase_1,,,,,,,,,,,,,yellow,circle
0.0,6.0,0.0,1.0,4.0,4.0,443.5493750002024,2.0,1.0,phase_1,,,,,,,,,,,,,cyan,diamond
660.0,7.0,2.0,1.0,3.0,3.0,366.5683739995984,2.0,1.0,phase_1,,,,,,,,,,,,,white,flipped triangle
642.0,3.0,2.0,0.0,1.0,1.0,388.8231300002189,2.0,1.0,phase_1,,,,,,,,,,,,,gray,square
318.0,6.0,1.0,1.0,3.0,3.0,354.3251549999695,2.0,1.0,phase_1,,,,,,,,,,,,,cyan,diamond
0.0,2.0,0.0,0.0,4.0,4.0,556.3753870001165,2.0,1.0,phase_1,,,,,,,,,,,,,orange,I
674.0,7.0,2.0,1.0,4.0,4.0,353.1540869998935,2.0,1.0,phase_1,,,,,,,,,,,,,white,flipped triangle
150.0,1.0,0.5,0.0,3.0,3.0,335.2807199999006,2.0,1.0,phase_1,,,,,,,,,,,,,green,triangle
1321.0,8.0,4.0,1.0,2.0,2.0,466.3884880001205,2.0,1.0,phase_1,,,,,,,,,,,,,magenta,cross
341.0,6.0,1.0,1.0,1.0,1.0,355.681511000057,2.0,2.0,phase_1,,,,,,,,,,,,,cyan,diamond
178.0,1.0,0.5,0.0,3.0,3.0,410.4220489998624,2.0,1.0,phase_1,,,,,,,,,,,,,green,triangle
167.0,1.0,0.5,0.0,3.0,3.0,340.6778050002685,2.0,1.0,phase_1,,,,,,,,,,,,,green,triangle
0.0,1.0,0.0,0.0,3.0,3.0,361.1427739997452,2.0,1.0,phase_1,,,,,,,,,,,,,green,triangle
0.0,8.0,0.0,1.0,2.0,2.0,421.7468980000376,2.0,1.0,phase_1,,,,,,,,,,,,,magenta,cross
0.0,3.0,0.0,0.0,3.0,3.0,372.7309239998249,2.0,1.0,phase_1,,,,,,,,,,,,,gray,square
631.0,7.0,2.0,1.0,4.0,4.0,348.101872999905,2.0,2.0,phase_1,,,,,,,,,,,,,white,flipped triangle
0.0,1.0,0.0,0.0,1.0,1.0,439.985464000074,2.0,1.0,phase_1,,,,,,,,,,,,,green,triangle
664.0,7.0,2.0,1.0,4.0,4.0,389.3781639999361,2.0,1.0,phase_1,,,,,,,,,,,,,white,flipped triangle
644.0,7.0,2.0,1.0,2.0,2.0,481.908260000182,2.0,1.0,phase_1,,,,,,,,,,,,,white,flipped triangle
150.0,5.0,0.5,1.0,2.0,2.0,406.4631749997716,2.0,1.0,phase_1,,,,,,,,,,,,,blue,hexagon
1294.0,8.0,4.0,1.0,3.0,3.0,412.5694829999702,2.0,1.0,phase_1,,,,,,,,,,,,,magenta,cross
340.0,2.0,1.0,0.0,4.0,4.0,464.5545829998809,2.0,1.0,phase_1,,,,,,,,,,,,,orange,I
327.0,6.0,1.0,1.0,4.0,4.0,383.0115289997593,2.0,1.0,phase_1,,,,,,,,,,,,,cyan,diamond
176.0,5.0,0.5,1.0,3.0,3.0,368.7252350000563,2.0,1.0,phase_1,,,,,,,,,,,,,blue,hexagon
647.0,7.0,2.0,1.0,3.0,3.0,382.2298220002267,2.0,1.0,phase_1,,,,,,,,,,,,,white,flipped triangle
1315.0,4.0,4.0,0.0,1.0,1.0,740.7123580001098,2.0,1.0,phase_1,,,,,,,,,,,,,yellow,circle
0.0,3.0,0.0,0.0,1.0,1.0,440.9317210001973,2.0,1.0,phase_1,,,,,,,,,,,,,gray,square
663.0,3.0,2.0,0.0,2.0,2.0,463.2498259998101,3.0,1.0,phase_1,,,,,,,,,,,,,gray,square
1320.0,4.0,4.0,0.0,1.0,1.0,348.6512819999916,3.0,1.0,phase_1,,,,,,,,,,,,,yellow,circle
1321.0,8.0,4.0,1.0,3.0,3.0,319.7277449999092,3.0,1.0,phase_1,,,,,,,,,,,,,magenta,cross
1277.0,8.0,4.0,1.0,2.0,2.0,452.0422350001354,3.0,1.0,phase_1,,,,,,,,,,,,,magenta,cross
1307.0,4.0,4.0,0.0,1.0,1.0,377.0306669998717,3.0,1.0,phase_1,,,,,,,,,,,,,yellow,circle
332.0,6.0,1.0,1.0,1.0,1.0,357.6311739998346,3.0,1.0,phase_1,,,,,,,,,,,,,cyan,diamond
0.0,7.0,0.0,1.0,4.0,4.0,513.4739119998812,3.0,1.0,phase_1,,,,,,,,,,,,,white,flipped triangle
326.0,6.0,1.0,1.0,3.0,3.0,334.4687839999096,3.0,1.0,phase_1,,,,,,,,,,,,,cyan,diamond
151.0,1.0,0.5,0.0,1.0,1.0,364.7465660001217,3.0,1.0,phase_1,,,,,,,,,,,,,green,triangle
0.0,3.0,0.0,0.0,1.0,1.0,340.1848490002521,3.0,2.0,phase_1,,,,,,,,,,,,,gray,square
0.0,2.0,0.0,0.0,3.0,3.0,367.6513540003725,3.0,1.0,phase_1,,,,,,,,,,,,,orange,I
329.0,6.0,1.0,1.0,3.0,3.0,365.3005549999761,3.0,1.0,phase_1,,,,,,,,,,,,,cyan,diamond
157.0,5.0,0.5,1.0,4.0,4.0,490.3752570003235,3.0,1.0,phase_1,,,,,,,,,,,,,blue,hexagon
343.0,2.0,1.0,0.0,1.0,1.0,487.0178579999447,3.0,1.0,phase_1,,,,,,,,,,,,,orange,I
1321.0,4.0,4.0,0.0,3.0,3.0,366.0118440002406,3.0,1.0,phase_1,,,,,,,,,,,,,yellow,circle
157.0,5.0,0.5,1.0,1.0,1.0,487.5972989998445,3.0,1.0,phase_1,,,,,,,,,,,,,blue,hexagon
0.0,8.0,0.0,1.0,1.0,1.0,383.2106739996561,3.0,1.0,phase_1,,,,,,,,,,,,,magenta,cross
329.0,2.0,1.0,0.0,3.0,3.0,577.7039180002248,3.0,1.0,phase_1,,,,,,,,,,,,,orange,I
1315.0,8.0,4.0,1.0,3.0,3.0,390.8169169999382,3.0,1.0,phase_1,,,,,,,,,,,,,magenta,cross
327.0,2.0,1.0,0.0,3.0,3.0,357.5456240000676,3.0,1.0,phase_1,,,,,,,,,,,,,orange,I
674.0,3.0,2.0,0.0,3.0,3.0,343.4873010000956,3.0,1.0,phase_1,,,,,,,,,,,,,gray,square
1323.0,8.0,4.0,1.0,1.0,1.0,462.0481209999525,3.0,1.0,phase_1,,,,,,,,,,,,,magenta,cross
652.0,7.0,2.0,1.0,3.0,3.0,353.0156850001731,3.0,1.0,phase_1,,,,,,,,,,,,,white,flipped triangle
1312.0,4.0,4.0,0.0,4.0,4.0,511.34110299972235,3.0,1.0,phase_1,,,,,,,,,,,,,yellow,circle
181.0,5.0,0.5,1.0,4.0,4.0,412.5681790001181,3.0,1.0,phase_1,,,,,,,,,,,,,blue,hexagon
170.0,1.0,0.5,0.0,2.0,2.0,599.3373189999147,3.0,1.0,phase_1,,,,,,,,,,,,,green,triangle
0.0,7.0,0.0,1.0,3.0,3.0,389.0924349998386,3.0,1.0,phase_1,,,,,,,,,,,,,white,flipped triangle
652.0,3.0,2.0,0.0,3.0,3.0,440.8216609999726,3.0,1.0,phase_1,,,,,,,,,,,,,gray,square
311.0,6.0,1.0,1.0,2.0,2.0,486.5061780001269,3.0,1.0,phase_1,,,,,,,,,,,,,cyan,diamond
1286.0,8.0,4.0,1.0,2.0,2.0,409.4377729998086,3.0,1.0,phase_1,,,,,,,,,,,,,magenta,cross
316.0,6.0,1.0,1.0,1.0,1.0,421.8750889999683,3.0,1.0,phase_1,,,,,,,,,,,,,cyan,diamond
0.0,3.0,0.0,0.0,4.0,4.0,457.9217959999369,3.0,1.0,phase_1,,,,,,,,,,,,,gray,square
0.0,1.0,0.0,0.0,4.0,4.0,391.2363919998824,3.0,1.0,phase_1,,,,,,,,,,,,,green,triangle
1283.0,4.0,4.0,0.0,4.0,4.0,403.9813819999835,3.0,1.0,phase_1,,,,,,,,,,,,,yellow,circle
0.0,8.0,0.0,1.0,1.0,1.0,442.9394550002143,3.0,1.0,phase_1,,,,,,,,,,,,,magenta,cross
329.0,6.0,1.0,1.0,2.0,2.0,469.2424959998789,3.0,1.0,phase_1,,,,,,,,,,,,,cyan,diamond
662.0,3.0,2.0,0.0,2.0,2.0,466.5730910001002,3.0,1.0,phase_1,,,,,,,,,,,,,gray,square
1279.0,4.0,4.0,0.0,2.0,2.0,336.8044260000715,3.0,1.0,phase_1,,,,,,,,,,,,,yellow,circle
0.0,6.0,0.0,1.0,2.0,2.0,468.3997740003178,3.0,1.0,phase_1,,,,,,,,,,,,,cyan,diamond
181.0,1.0,0.5,0.0,4.0,4.0,441.7719719999695,3.0,1.0,phase_1,,,,,,,,,,,,,green,triangle
186.0,5.0,0.5,1.0,1.0,1.0,484.2604569998912,3.0,1.0,phase_1,,,,,,,,,,,,,blue,hexagon
176.0,1.0,0.5,0.0,2.0,2.0,617.6522470000236,3.0,1.0,phase_1,,,,,,,,,,,,,green,triangle
1284.0,4.0,4.0,0.0,2.0,2.0,404.8145029996703,3.0,1.0,phase_1,,,,,,,,,,,,,yellow,circle
0.0,4.0,0.0,0.0,1.0,1.0,457.6494499997352,3.0,1.0,phase_1,,,,,,,,,,,,,yellow,circle
1311.0,4.0,4.0,0.0,3.0,3.0,406.5899469997021,3.0,1.0,phase_1,,,,,,,,,,,,,yellow,circle
302.0,6.0,1.0,1.0,2.0,2.0,531.7874819997996,3.0,1.0,phase_1,,,,,,,,,,,,,cyan,diamond
634.0,7.0,2.0,1.0,1.0,1.0,471.9344759996602,3.0,1.0,phase_1,,,,,,,,,,,,,white,flipped triangle
1303.0,4.0,4.0,0.0,2.0,2.0,350.9285000000091,3.0,1.0,phase_1,,,,,,,,,,,,,yellow,circle
142.0,5.0,0.5,1.0,3.0,3.0,392.915025000093,3.0,1.0,phase_1,,,,,,,,,,,,,blue,hexagon
181.0,5.0,0.5,1.0,4.0,4.0,581.427696999981,3.0,1.0,phase_1,,,,,,,,,,,,,blue,hexagon
648.0,7.0,2.0,1.0,2.0,2.0,338.2350870001573,3.0,1.0,phase_1,,,,,,,,,,,,,white,flipped triangle
0.0,3.0,0.0,0.0,4.0,4.0,376.7871989998639,3.0,1.0,phase_1,,,,,,,,,,,,,gray,square
179.0,5.0,0.5,1.0,1.0,1.0,606.4710740001829,3.0,1.0,phase_1,,,,,,,,,,,,,blue,hexagon
645.0,7.0,2.0,1.0,1.0,1.0,491.0321379998095,3.0,1.0,phase_1,,,,,,,,,,,,,white,flipped triangle
0.0,4.0,0.0,0.0,1.0,1.0,429.1042669997296,3.0,1.0,phase_1,,,,,,,,,,,,,yellow,circle
1292.0,4.0,4.0,0.0,2.0,2.0,410.3902679999009,3.0,1.0,phase_1,,,,,,,,,,,,,yellow,circle
301.0,6.0,1.0,1.0,3.0,3.0,382.352998999977,3.0,1.0,phase_1,,,,,,,,,,,,,cyan,diamond
0.0,4.0,0.0,0.0,2.0,2.0,362.1205770000415,3.0,1.0,phase_1,,,,,,,,,,,,,yellow,circle
0.0,1.0,0.0,0.0,3.0,3.0,391.3878789999216,3.0,1.0,phase_1,,,,,,,,,,,,,green,triangle
631.0,3.0,2.0,0.0,4.0,4.0,574.6230830000059,3.0,1.0,phase_1,,,,,,,,,,,,,gray,square
1294.0,8.0,4.0,1.0,1.0,1.0,675.2892029999202,3.0,1.0,phase_1,,,,,,,,,,,,,magenta,cross
305.0,6.0,1.0,1.0,2.0,2.0,431.7686300000787,3.0,1.0,phase_1,,,,,,,,,,,,,cyan,diamond
1319.0,8.0,4.0,1.0,3.0,3.0,434.0085380003984,3.0,1.0,phase_1,,,,,,,,,,,,,magenta,cross
158.0,5.0,0.5,1.0,2.0,2.0,487.7820689998771,3.0,1.0,phase_1,,,,,,,,,,,,,blue,hexagon
0.0,6.0,0.0,1.0,1.0,1.0,483.5816280001381,3.0,1.0,phase_1,,,,,,,,,,,,,cyan,diamond
0.0,8.0,0.0,1.0,4.0,4.0,425.5517990000044,3.0,1.0,phase_1,,,,,,,,,,,,,magenta,cross
659.0,3.0,2.0,0.0,2.0,2.0,348.5321900002418,3.0,1.0,phase_1,,,,,,,,,,,,,gray,square
1280.0,8.0,4.0,1.0,3.0,3.0,385.7907179999529,3.0,1.0,phase_1,,,,,,,,,,,,,magenta,cross
1312.0,4.0,4.0,0.0,2.0,2.0,365.6131819998336,3.0,1.0,phase_1,,,,,,,,,,,,,yellow,circle
324.0,2.0,1.0,0.0,2.0,2.0,362.0857210003123,3.0,1.0,phase_1,,,,,,,,,,,,,orange,I
172.0,5.0,0.5,1.0,3.0,3.0,519.2394900000181,3.0,1.0,phase_1,,,,,,,,,,,,,blue,hexagon
165.0,5.0,0.5,1.0,2.0,2.0,326.276990000224,3.0,1.0,phase_1,,,,,,,,,,,,,blue,hexagon
304.0,6.0,1.0,1.0,4.0,4.0,418.8387290000719,3.0,1.0,phase_1,,,,,,,,,,,,,cyan,diamond
626.0,3.0,2.0,0.0,1.0,1.0,439.6391049999693,3.0,1.0,phase_1,,,,,,,,,,,,,gray,square
1321.0,4.0,4.0,0.0,1.0,1.0,531.0908920000657,3.0,1.0,phase_1,,,,,,,,,,,,,yellow,circle
1315.0,8.0,4.0,1.0,2.0,2.0,374.4423640000605,3.0,1.0,phase_1,,,,,,,,,,,,,magenta,cross
0.0,8.0,0.0,1.0,2.0,2.0,522.9507559997728,3.0,1.0,phase_1,,,,,,,,,,,,,magenta,cross
1320.0,8.0,4.0,1.0,4.0,4.0,407.280952000292,3.0,1.0,phase_1,,,,,,,,,,,,,magenta,cross
154.0,5.0,0.5,1.0,1.0,1.0,436.743770999783,3.0,1.0,phase_1,,,,,,,,,,,,,blue,hexagon
1295.0,4.0,4.0,0.0,4.0,4.0,368.2018069998776,3.0,1.0,phase_1,,,,,,,,,,,,,yellow,circle
632.0,7.0,2.0,1.0,4.0,4.0,374.5592690002013,3.0,1.0,phase_1,,,,,,,,,,,,,white,flipped triangle
321.0,6.0,1.0,1.0,2.0,2.0,340.0475940002252,3.0,1.0,phase_1,,,,,,,,,,,,,cyan,diamond
637.0,3.0,2.0,0.0,2.0,2.0,334.3074180002077,3.0,1.0,phase_1,,,,,,,,,,,,,gray,square
1282.0,4.0,4.0,0.0,1.0,1.0,747.3854129998472,3.0,1.0,phase_1,,,,,,,,,,,,,yellow,circle
153.0,5.0,0.5,1.0,3.0,3.0,551.9130669999868,3.0,1.0,phase_1,,,,,,,,,,,,,blue,hexagon
631.0,7.0,2.0,1.0,1.0,1.0,404.3863339998097,3.0,1.0,phase_1,,,,,,,,,,,,,white,flipped triangle
0.0,5.0,0.0,1.0,4.0,4.0,465.4823450000549,3.0,1.0,phase_1,,,,,,,,,,,,,blue,hexagon
157.0,1.0,0.5,0.0,1.0,1.0,382.5265079999553,3.0,1.0,phase_1,,,,,,,,,,,,,green,triangle
0.0,3.0,0.0,0.0,3.0,3.0,372.1261249997951,3.0,1.0,phase_1,,,,,,,,,,,,,gray,square
166.0,1.0,0.5,0.0,1.0,1.0,391.3305309997668,3.0,1.0,phase_1,,,,,,,,,,,,,green,triangle
0.0,1.0,0.0,0.0,3.0,3.0,435.2952150002238,3.0,1.0,phase_1,,,,,,,,,,,,,green,triangle
630.0,7.0,2.0,1.0,1.0,1.0,319.3996819995846,3.0,1.0,phase_1,,,,,,,,,,,,,white,flipped triangle
642.0,7.0,2.0,1.0,1.0,1.0,371.8654360000073,3.0,1.0,phase_1,,,,,,,,,,,,,white,flipped triangle
0.0,6.0,0.0,1.0,3.0,3.0,345.2344570000605,3.0,1.0,phase_1,,,,,,,,,,,,,cyan,diamond
339.0,6.0,1.0,1.0,4.0,4.0,414.064629999757,3.0,1.0,phase_1,,,,,,,,,,,,,cyan,diamond
332.0,6.0,1.0,1.0,4.0,4.0,409.5448269999906,3.0,1.0,phase_1,,,,,,,,,,,,,cyan,diamond
659.0,7.0,2.0,1.0,4.0,4.0,327.4112609997246,3.0,1.0,phase_1,,,,,,,,,,,,,white,flipped triangle
1305.0,8.0,4.0,1.0,3.0,3.0,380.1357409997763,3.0,1.0,phase_1,,,,,,,,,,,,,magenta,cross
1289.0,8.0,4.0,1.0,1.0,1.0,545.9935720000431,3.0,1.0,phase_1,,,,,,,,,,,,,magenta,cross
348.0,6.0,1.0,1.0,1.0,1.0,404.9935139996705,3.0,1.0,phase_1,,,,,,,,,,,,,cyan,diamond
0.0,3.0,0.0,0.0,1.0,1.0,360.4116700003033,4.0,1.0,phase_1,,,,,,,,,,,,,gray,square
148.0,5.0,0.5,1.0,1.0,1.0,377.9464600002029,4.0,1.0,phase_1,,,,,,,,,,,,,blue,hexagon
0.0,5.0,0.0,1.0,4.0,4.0,520.5179250001493,4.0,1.0,phase_1,,,,,,,,,,,,,blue,hexagon
184.0,5.0,0.5,1.0,3.0,3.0,340.2365189999727,4.0,1.0,phase_1,,,,,,,,,,,,,blue,hexagon
139.0,1.0,0.5,0.0,3.0,3.0,320.982159000323,4.0,1.0,phase_1,,,,,,,,,,,,,green,triangle
636.0,7.0,2.0,1.0,4.0,4.0,277.3720440000033,4.0,1.0,phase_1,,,,,,,,,,,,,white,flipped triangle
141.0,5.0,0.5,1.0,1.0,1.0,513.9664319999611,4.0,1.0,phase_1,,,,,,,,,,,,,blue,hexagon
158.0,1.0,0.5,0.0,2.0,2.0,406.7003830000431,4.0,1.0,phase_1,,,,,,,,,,,,,green,triangle
0.0,8.0,0.0,1.0,1.0,1.0,357.4299729998529,4.0,1.0,phase_1,,,,,,,,,,,,,magenta,cross
635.0,7.0,2.0,1.0,2.0,2.0,344.6716530002049,4.0,1.0,phase_1,,,,,,,,,,,,,white,flipped triangle
637.0,7.0,2.0,1.0,3.0,3.0,340.0302990003183,4.0,1.0,phase_1,,,,,,,,,,,,,white,flipped triangle
637.0,7.0,2.0,1.0,2.0,2.0,361.2329289999252,4.0,1.0,phase_1,,,,,,,,,,,,,white,flipped triangle
0.0,6.0,0.0,1.0,4.0,4.0,397.4954579998666,4.0,1.0,phase_1,,,,,,,,,,,,,cyan,diamond
664.0,3.0,2.0,0.0,2.0,2.0,308.2132630001979,4.0,1.0,phase_1,,,,,,,,,,,,,gray,square
347.0,2.0,1.0,0.0,1.0,1.0,416.7563299997709,4.0,1.0,phase_1,,,,,,,,,,,,,orange,I
660.0,3.0,2.0,0.0,1.0,1.0,307.7276029998756,4.0,1.0,phase_1,,,,,,,,,,,,,gray,square
1297.0,8.0,4.0,1.0,1.0,1.0,338.8880610000342,4.0,1.0,phase_1,,,,,,,,,,,,,magenta,cross
325.0,6.0,1.0,1.0,3.0,3.0,383.5968549997233,4.0,1.0,phase_1,,,,,,,,,,,,,cyan,diamond
632.0,3.0,2.0,0.0,3.0,3.0,290.5651240002953,4.0,1.0,phase_1,,,,,,,,,,,,,gray,square
148.0,1.0,0.5,0.0,4.0,4.0,365.5151409998325,4.0,1.0,phase_1,,,,,,,,,,,,,green,triangle
674.0,7.0,2.0,1.0,4.0,4.0,466.5628510001625,4.0,1.0,phase_1,,,,,,,,,,,,,white,flipped triangle
0.0,6.0,0.0,1.0,1.0,1.0,494.9044209997737,4.0,1.0,phase_1,,,,,,,,,,,,,cyan,diamond
312.0,6.0,1.0,1.0,1.0,1.0,387.5721490003343,4.0,1.0,phase_1,,,,,,,,,,,,,cyan,diamond
645.0,3.0,2.0,0.0,4.0,4.0,385.6354310000824,4.0,1.0,phase_1,,,,,,,,,,,,,gray,square
1282.0,8.0,4.0,1.0,4.0,4.0,389.223303000108,4.0,1.0,phase_1,,,,,,,,,,,,,magenta,cross
306.0,2.0,1.0,0.0,4.0,4.0,337.7156059996196,4.0,1.0,phase_1,,,,,,,,,,,,,orange,I
631.0,3.0,2.0,0.0,3.0,3.0,417.1520869999767,4.0,1.0,phase_1,,,,,,,,,,,,,gray,square
664.0,3.0,2.0,0.0,4.0,4.0,324.6382349998384,4.0,1.0,phase_1,,,,,,,,,,,,,gray,square
626.0,3.0,2.0,0.0,1.0,1.0,351.9633580003756,4.0,1.0,phase_1,,,,,,,,,,,,,gray,square
178.0,1.0,0.5,0.0,4.0,4.0,412.5527620003595,4.0,1.0,phase_1,,,,,,,,,,,,,green,triangle
176.0,1.0,0.5,0.0,3.0,3.0,314.1906279997783,4.0,1.0,phase_1,,,,,,,,,,,,,green,triangle
304.0,2.0,1.0,0.0,2.0,2.0,415.520548999666,4.0,1.0,phase_1,,,,,,,,,,,,,orange,I
186.0,1.0,0.5,0.0,4.0,4.0,395.7898230000864,4.0,1.0,phase_1,,,,,,,,,,,,,green,triangle
1277.0,4.0,4.0,0.0,1.0,1.0,382.759784999962,4.0,1.0,phase_1,,,,,,,,,,,,,yellow,circle
0.0,4.0,0.0,0.0,2.0,2.0,387.8699360002429,4.0,1.0,phase_1,,,,,,,,,,,,,yellow,circle
0.0,1.0,0.0,0.0,1.0,1.0,431.4508950001254,4.0,1.0,phase_1,,,,,,,,,,,,,green,triangle
176.0,5.0,0.5,1.0,4.0,4.0,316.4381980000144,4.0,1.0,phase_1,,,,,,,,,,,,,blue,hexagon
658.0,7.0,2.0,1.0,2.0,2.0,362.0672840002044,4.0,1.0,phase_1,,,,,,,,,,,,,white,flipped triangle
1286.0,4.0,4.0,0.0,3.0,3.0,382.2393289997308,4.0,1.0,phase_1,,,,,,,,,,,,,yellow,circle
0.0,7.0,0.0,1.0,3.0,3.0,341.0951290002231,4.0,1.0,phase_1,,,,,,,,,,,,,white,flipped triangle
334.0,6.0,1.0,1.0,2.0,2.0,505.71359700006724,4.0,1.0,phase_1,,,,,,,,,,,,,cyan,diamond
0.0,8.0,0.0,1.0,1.0,1.0,483.8574640002662,4.0,1.0,phase_1,,,,,,,,,,,,,magenta,cross
151.0,5.0,0.5,1.0,4.0,4.0,409.0516920000482,4.0,1.0,phase_1,,,,,,,,,,,,,blue,hexagon
161.0,1.0,0.5,0.0,1.0,1.0,494.9790809996557,4.0,1.0,phase_1,,,,,,,,,,,,,green,triangle
167.0,5.0,0.5,1.0,4.0,4.0,377.284284000325,4.0,1.0,phase_1,,,,,,,,,,,,,blue,hexagon
0.0,2.0,0.0,0.0,4.0,4.0,440.6495089997406,4.0,1.0,phase_1,,,,,,,,,,,,,orange,I
343.0,6.0,1.0,1.0,2.0,2.0,643.3941529999174,4.0,1.0,phase_1,,,,,,,,,,,,,cyan,diamond
301.0,2.0,1.0,0.0,2.0,2.0,353.4756740000375,4.0,1.0,phase_1,,,,,,,,,,,,,orange,I
153.0,5.0,0.5,1.0,2.0,2.0,348.2322200002272,4.0,1.0,phase_1,,,,,,,,,,,,,blue,hexagon
341.0,2.0,1.0,0.0,2.0,2.0,353.4349579999798,4.0,1.0,phase_1,,,,,,,,,,,,,orange,I
1316.0,8.0,4.0,1.0,4.0,4.0,301.9446570001491,4.0,1.0,phase_1,,,,,,,,,,,,,magenta,cross
1323.0,4.0,4.0,0.0,4.0,4.0,370.3111120003086,4.0,1.0,phase_1,,,,,,,,,,,,,yellow,circle
324.0,6.0,1.0,1.0,3.0,3.0,464.9495260000549,4.0,1.0,phase_1,,,,,,,,,,,,,cyan,diamond
637.0,3.0,2.0,0.0,4.0,4.0,390.45388500017,4.0,1.0,phase_1,,,,,,,,,,,,,gray,square
146.0,1.0,0.5,0.0,3.0,3.0,346.0628349998842,4.0,1.0,phase_1,,,,,,,,,,,,,green,triangle
1307.0,8.0,4.0,1.0,3.0,3.0,364.594866999596,4.0,1.0,phase_1,,,,,,,,,,,,,magenta,cross
332.0,2.0,1.0,0.0,2.0,2.0,352.7981799998088,4.0,1.0,phase_1,,,,,,,,,,,,,orange,I
674.0,7.0,2.0,1.0,1.0,1.0,374.1389229999186,4.0,1.0,phase_1,,,,,,,,,,,,,white,flipped triangle
0.0,1.0,0.0,0.0,1.0,1.0,412.0237020001696,4.0,1.0,phase_1,,,,,,,,,,,,,green,triangle
316.0,2.0,1.0,0.0,4.0,4.0,503.21521800015034,4.0,1.0,phase_1,,,,,,,,,,,,,orange,I
317.0,2.0,1.0,0.0,4.0,4.0,350.1409330001479,4.0,1.0,phase_1,,,,,,,,,,,,,orange,I
155.0,5.0,0.5,1.0,4.0,4.0,354.0967889998683,4.0,1.0,phase_1,,,,,,,,,,,,,blue,hexagon
312.0,2.0,1.0,0.0,2.0,2.0,388.6357060000591,4.0,1.0,phase_1,,,,,,,,,,,,,orange,I
162.0,1.0,0.5,0.0,4.0,4.0,361.8077609999091,4.0,1.0,phase_1,,,,,,,,,,,,,green,triangle
178.0,5.0,0.5,1.0,1.0,1.0,669.8856880002495,4.0,1.0,phase_1,,,,,,,,,,,,,blue,hexagon
1315.0,4.0,4.0,0.0,2.0,2.0,523.920602999624,4.0,1.0,phase_1,,,,,,,,,,,,,yellow,circle
653.0,7.0,2.0,1.0,1.0,1.0,465.50818299965607,4.0,1.0,phase_1,,,,,,,,,,,,,white,flipped triangle
349.0,6.0,1.0,1.0,4.0,4.0,404.057277999982,4.0,1.0,phase_1,,,,,,,,,,,,,cyan,diamond
0.0,5.0,0.0,1.0,3.0,3.0,474.767022999913,4.0,1.0,phase_1,,,,,,,,,,,,,blue,hexagon
0.0,7.0,0.0,1.0,1.0,1.0,380.5694929997116,4.0,1.0,phase_1,,,,,,,,,,,,,white,flipped triangle
649.0,3.0,2.0,0.0,3.0,3.0,321.1112039998625,4.0,1.0,phase_1,,,,,,,,,,,,,gray,square
664.0,7.0,2.0,1.0,3.0,3.0,336.15873799999457,4.0,1.0,phase_1,,,,,,,,,,,,,white,flipped triangle
0.0,8.0,0.0,1.0,3.0,3.0,362.1732729998257,4.0,1.0,phase_1,,,,,,,,,,,,,magenta,cross
153.0,1.0,0.5,0.0,4.0,4.0,353.28120999975,4.0,1.0,phase_1,,,,,,,,,,,,,green,triangle
166.0,5.0,0.5,1.0,3.0,3.0,275.7148470000174,4.0,1.0,phase_1,,,,,,,,,,,,,blue,hexagon
659.0,7.0,2.0,1.0,2.0,2.0,361.4095189996078,4.0,1.0,phase_1,,,,,,,,,,,,,white,flipped triangle
0.0,4.0,0.0,0.0,2.0,2.0,484.4296410001334,4.0,1.0,phase_1,,,,,,,,,,,,,yellow,circle
349.0,2.0,1.0,0.0,3.0,3.0,401.5039279997836,4.0,1.0,phase_1,,,,,,,,,,,,,orange,I
166.0,1.0,0.5,0.0,4.0,4.0,413.585399999647,4.0,1.0,phase_1,,,,,,,,,,,,,green,triangle
667.0,3.0,2.0,0.0,4.0,4.0,364.4139559996802,4.0,1.0,phase_1,,,,,,,,,,,,,gray,square
1312.0,8.0,4.0,1.0,1.0,1.0,391.9333789999655,4.0,1.0,phase_1,,,,,,,,,,,,,magenta,cross
1294.0,4.0,4.0,0.0,2.0,2.0,429.5811420001882,4.0,1.0,phase_1,,,,,,,,,,,,,yellow,circle
1289.0,4.0,4.0,0.0,1.0,1.0,352.6542670001618,4.0,1.0,phase_1,,,,,,,,,,,,,yellow,circle
626.0,7.0,2.0,1.0,3.0,3.0,390.4146969998692,4.0,1.0,phase_1,,,,,,,,,,,,,white,flipped triangle
340.0,6.0,1.0,1.0,3.0,3.0,404.3616809999548,4.0,1.0,phase_1,,,,,,,,,,,,,cyan,diamond
325.0,2.0,1.0,0.0,1.0,1.0,422.0382910002627,4.0,1.0,phase_1,,,,,,,,,,,,,orange,I
1305.0,8.0,4.0,1.0,2.0,2.0,389.462088000073,4.0,1.0,phase_1,,,,,,,,,,,,,magenta,cross
343.0,2.0,1.0,0.0,1.0,1.0,577.9647230001501,4.0,1.0,phase_1,,,,,,,,,,,,,orange,I
343.0,2.0,1.0,0.0,3.0,3.0,422.2468520001712,4.0,1.0,phase_1,,,,,,,,,,,,,orange,I
347.0,6.0,1.0,1.0,2.0,2.0,490.8024309997927,4.0,1.0,phase_1,,,,,,,,,,,,,cyan,diamond
1295.0,8.0,4.0,1.0,3.0,3.0,373.8321709997763,4.0,1.0,phase_1,,,,,,,,,,,,,magenta,cross
626.0,7.0,2.0,1.0,1.0,1.0,355.0889070002085,4.0,1.0,phase_1,,,,,,,,,,,,,white,flipped triangle
0.0,2.0,0.0,0.0,4.0,4.0,592.0497739998609,4.0,1.0,phase_1,,,,,,,,,,,,,orange,I
667.0,7.0,2.0,1.0,2.0,2.0,571.429868999985,4.0,1.0,phase_1,,,,,,,,,,,,,white,flipped triangle
326.0,2.0,1.0,0.0,3.0,3.0,391.7823649999263,4.0,1.0,phase_1,,,,,,,,,,,,,orange,I
162.0,5.0,0.5,1.0,1.0,1.0,382.676937999804,4.0,1.0,phase_1,,,,,,,,,,,,,blue,hexagon
0.0,3.0,0.0,0.0,1.0,1.0,385.8594739999716,4.0,1.0,phase_1,,,,,,,,,,,,,gray,square
1305.0,4.0,4.0,0.0,1.0,1.0,589.5468959997743,4.0,1.0,phase_1,,,,,,,,,,,,,yellow,circle
305.0,2.0,1.0,0.0,1.0,1.0,370.1860270002726,4.0,1.0,phase_1,,,,,,,,,,,,,orange,I
339.0,2.0,1.0,0.0,4.0,4.0,377.3702290000074,4.0,1.0,phase_1,,,,,,,,,,,,,orange,I
0.0,1.0,0.5,0.0,6.0,6.0,507.3246500001005,1.0,1.0,phase_2,go,250.0,250.0,1.0,,,,,,,,,green,triangle
0.0,7.0,2.0,1.0,5.0,5.0,314.0976770000634,1.0,1.0,phase_2,go,250.0,250.0,1.0,,,,,,,,,white,flipped triangle
0.0,1.0,0.5,0.0,6.0,6.0,320.8253959996909,1.0,1.0,phase_2,go,250.0,250.0,1.0,,,,,,,,,green,triangle
0.0,2.0,1.0,0.0,5.0,5.0,394.290457000352,1.0,1.0,phase_2,go,250.0,250.0,1.0,,,,,,,,,orange,I
0.0,7.0,2.0,1.0,5.0,5.0,592.872336000255,1.0,1.0,phase_2,stop,250.0,250.0,3.0,,,,,,,,,white,flipped triangle
0.0,2.0,1.0,0.0,5.0,5.0,607.1140549997835,1.0,1.0,phase_2,go,200.0,250.0,1.0,,,,,,,,,orange,I
0.0,3.0,2.0,0.0,6.0,6.0,301.8294280000191,1.0,1.0,phase_2,go,200.0,250.0,1.0,,,,,,,,,gray,square
0.0,8.0,4.0,1.0,6.0,0.0,0.0,1.0,1.0,phase_2,stop,200.0,250.0,4.0,,,,,,,,,magenta,cross
0.0,3.0,2.0,0.0,6.0,6.0,653.4312270000555,1.0,1.0,phase_2,go,200.0,300.0,1.0,,,,,,,,,gray,square
0.0,2.0,1.0,0.0,6.0,6.0,675.843327000166,1.0,1.0,phase_2,go,200.0,300.0,1.0,,,,,,,,,orange,I
0.0,1.0,0.5,0.0,5.0,5.0,341.5400889998636,1.0,1.0,phase_2,go,200.0,300.0,1.0,,,,,,,,,green,triangle
0.0,5.0,0.5,1.0,5.0,5.0,333.506079000017,1.0,1.0,phase_2,stop,200.0,300.0,3.0,,,,,,,,,blue,hexagon
0.0,6.0,1.0,1.0,5.0,0.0,0.0,1.0,1.0,phase_2,stop,150.0,300.0,4.0,,,,,,,,,cyan,diamond
0.0,1.0,0.5,0.0,6.0,6.0,570.8584789999804,1.0,1.0,phase_2,go,200.0,300.0,1.0,,,,,,,,,green,triangle
0.0,2.0,1.0,0.0,5.0,5.0,459.3610619999708,1.0,1.0,phase_2,go,200.0,300.0,1.0,,,,,,,,,orange,I
0.0,6.0,1.0,1.0,6.0,0.0,0.0,1.0,1.0,phase_2,stop,200.0,300.0,4.0,,,,,,,,,cyan,diamond
0.0,2.0,1.0,0.0,5.0,5.0,609.2863250000846,1.0,1.0,phase_2,go,200.0,350.0,1.0,,,,,,,,,orange,I
0.0,6.0,1.0,1.0,5.0,0.0,0.0,1.0,1.0,phase_2,stop,200.0,350.0,4.0,,,,,,,,,cyan,diamond
0.0,1.0,0.5,0.0,5.0,5.0,477.8443170002902,1.0,1.0,phase_2,go,250.0,350.0,1.0,,,,,,,,,green,triangle
0.0,1.0,0.5,0.0,5.0,5.0,422.3163710003064,1.0,1.0,phase_2,go,250.0,350.0,1.0,,,,,,,,,green,triangle
0.0,5.0,0.5,1.0,5.0,0.0,0.0,1.0,1.0,phase_2,stop,250.0,350.0,4.0,,,,,,,,,blue,hexagon
0.0,4.0,4.0,0.0,6.0,6.0,741.3168169996425,1.0,1.0,phase_2,go,300.0,350.0,1.0,,,,,,,,,yellow,circle
0.0,6.0,1.0,1.0,6.0,0.0,0.0,1.0,1.0,phase_2,stop,300.0,350.0,4.0,,,,,,,,,cyan,diamond
0.0,8.0,4.0,1.0,5.0,5.0,371.8704590000925,1.0,1.0,phase_2,stop,300.0,400.0,3.0,,,,,,,,,magenta,cross
0.0,6.0,1.0,1.0,5.0,0.0,0.0,1.0,1.0,phase_2,stop,250.0,400.0,4.0,,,,,,,,,cyan,diamond
0.0,4.0,4.0,0.0,5.0,5.0,524.2019199999959,1.0,1.0,phase_2,go,300.0,400.0,1.0,,,,,,,,,yellow,circle
0.0,4.0,4.0,0.0,5.0,5.0,474.187444999643,1.0,1.0,phase_2,go,300.0,400.0,1.0,,,,,,,,,yellow,circle
0.0,5.0,0.5,1.0,5.0,0.0,0.0,1.0,1.0,phase_2,stop,300.0,400.0,4.0,,,,,,,,,blue,hexagon
0.0,5.0,0.5,1.0,6.0,6.0,722.5375849998272,1.0,1.0,phase_2,go,350.0,400.0,1.0,,,,,,,,,blue,hexagon
0.0,1.0,0.5,0.0,6.0,6.0,391.2856140000258,1.0,1.0,phase_2,go,350.0,400.0,1.0,,,,,,,,,green,triangle
0.0,1.0,0.5,0.0,6.0,6.0,422.7201479998257,1.0,1.0,phase_2,go,350.0,400.0,1.0,,,,,,,,,green,triangle
0.0,8.0,4.0,1.0,6.0,6.0,552.2738479999134,1.0,1.0,phase_2,go,350.0,400.0,1.0,,,,,,,,,magenta,cross
0.0,4.0,4.0,0.0,5.0,5.0,488.1905140000526,1.0,1.0,phase_2,go,350.0,400.0,1.0,,,,,,,,,yellow,circle
0.0,2.0,1.0,0.0,6.0,6.0,438.3597060000284,1.0,1.0,phase_2,go,350.0,400.0,1.0,,,,,,,,,orange,I
0.0,3.0,2.0,0.0,5.0,5.0,460.2473179998014,1.0,1.0,phase_2,go,350.0,400.0,1.0,,,,,,,,,gray,square
0.0,8.0,4.0,1.0,5.0,5.0,492.3847370000658,1.0,1.0,phase_2,stop,350.0,400.0,3.0,,,,,,,,,magenta,cross
0.0,6.0,1.0,1.0,5.0,0.0,0.0,2.0,1.0,phase_2,stop,300.0,400.0,4.0,,,,,,,,,cyan,diamond
0.0,7.0,2.0,1.0,5.0,0.0,0.0,2.0,1.0,phase_2,stop,350.0,400.0,4.0,,,,,,,,,white,flipped triangle
0.0,2.0,1.0,0.0,6.0,6.0,508.17391299960946,2.0,1.0,phase_2,go,400.0,400.0,1.0,,,,,,,,,orange,I
0.0,8.0,4.0,1.0,6.0,6.0,410.5234579997159,2.0,1.0,phase_2,go,400.0,400.0,1.0,,,,,,,,,magenta,cross
0.0,6.0,1.0,1.0,6.0,0.0,0.0,2.0,1.0,phase_2,stop,400.0,400.0,4.0,,,,,,,,,cyan,diamond
0.0,8.0,4.0,1.0,5.0,0.0,0.0,2.0,1.0,phase_2,stop,400.0,450.0,4.0,,,,,,,,,magenta,cross
0.0,4.0,4.0,0.0,5.0,5.0,553.6188989999573,2.0,1.0,phase_2,go,450.0,450.0,1.0,,,,,,,,,yellow,circle
0.0,4.0,4.0,0.0,6.0,6.0,552.6416019997669,2.0,1.0,phase_2,go,450.0,450.0,1.0,,,,,,,,,yellow,circle
0.0,3.0,2.0,0.0,6.0,6.0,605.952439000248,2.0,1.0,phase_2,go,450.0,450.0,1.0,,,,,,,,,gray,square
0.0,3.0,2.0,0.0,6.0,6.0,397.9735040002197,2.0,1.0,phase_2,go,450.0,450.0,1.0,,,,,,,,,gray,square
0.0,2.0,1.0,0.0,6.0,6.0,511.26580600021043,2.0,1.0,phase_2,go,450.0,450.0,1.0,,,,,,,,,orange,I
0.0,6.0,1.0,1.0,6.0,0.0,0.0,2.0,1.0,phase_2,stop,450.0,450.0,4.0,,,,,,,,,cyan,diamond
0.0,8.0,4.0,1.0,5.0,0.0,0.0,2.0,1.0,phase_2,stop,450.0,500.0,4.0,,,,,,,,,magenta,cross
0.0,2.0,1.0,0.0,5.0,5.0,757.8182070001276,2.0,1.0,phase_2,go,500.0,500.0,1.0,,,,,,,,,orange,I
0.0,7.0,2.0,1.0,6.0,6.0,698.7525119998281,2.0,1.0,phase_2,stop,500.0,500.0,3.0,,,,,,,,,white,flipped triangle
0.0,6.0,1.0,1.0,5.0,0.0,0.0,2.0,1.0,phase_2,stop,500.0,450.0,4.0,,,,,,,,,cyan,diamond
0.0,7.0,2.0,1.0,5.0,5.0,769.8598259999017,2.0,1.0,phase_2,go,550.0,450.0,1.0,,,,,,,,,white,flipped triangle
0.0,5.0,0.5,1.0,5.0,5.0,688.9096720001362,2.0,1.0,phase_2,stop,550.0,450.0,3.0,,,,,,,,,blue,hexagon
0.0,3.0,2.0,0.0,5.0,5.0,970.558962999803,2.0,1.0,phase_2,go,500.0,450.0,1.0,,,,,,,,,gray,square
0.0,7.0,2.0,1.0,5.0,0.0,0.0,2.0,1.0,phase_2,stop,500.0,450.0,4.0,,,,,,,,,white,flipped triangle
0.0,3.0,2.0,0.0,6.0,6.0,887.4439979999806,2.0,1.0,phase_2,go,550.0,450.0,1.0,,,,,,,,,gray,square
0.0,2.0,1.0,0.0,6.0,6.0,694.8079310000139,2.0,1.0,phase_2,go,550.0,450.0,1.0,,,,,,,,,orange,I
0.0,8.0,4.0,1.0,5.0,0.0,0.0,2.0,1.0,phase_2,stop,550.0,450.0,4.0,,,,,,,,,magenta,cross
0.0,7.0,2.0,1.0,6.0,0.0,0.0,2.0,1.0,phase_2,stop,600.0,450.0,4.0,,,,,,,,,white,flipped triangle
0.0,4.0,4.0,0.0,5.0,5.0,694.247249,2.0,1.0,phase_2,go,600.0,500.0,1.0,,,,,,,,,yellow,circle
0.0,2.0,1.0,0.0,6.0,6.0,901.9501529996888,2.0,1.0,phase_2,go,600.0,500.0,1.0,,,,,,,,,orange,I
0.0,5.0,0.5,1.0,5.0,5.0,748.9607870002146,2.0,1.0,phase_2,stop,600.0,500.0,3.0,,,,,,,,,blue,hexagon
0.0,4.0,4.0,0.0,5.0,5.0,859.4415569996272,2.0,1.0,phase_2,go,550.0,500.0,1.0,,,,,,,,,yellow,circle
0.0,8.0,4.0,1.0,5.0,0.0,0.0,2.0,1.0,phase_2,stop,550.0,500.0,4.0,,,,,,,,,magenta,cross
0.0,3.0,2.0,0.0,5.0,5.0,859.1733329999443,2.0,1.0,phase_2,go,600.0,500.0,1.0,,,,,,,,,gray,square
0.0,8.0,4.0,1.0,6.0,0.0,0.0,2.0,1.0,phase_2,stop,600.0,500.0,4.0,,,,,,,,,magenta,cross
0.0,5.0,0.5,1.0,6.0,0.0,0.0,2.0,1.0,phase_2,stop,600.0,550.0,4.0,,,,,,,,,blue,hexagon
0.0,7.0,2.0,1.0,6.0,0.0,0.0,2.0,1.0,phase_2,stop,600.0,600.0,4.0,,,,,,,,,white,flipped triangle
0.0,1.0,0.5,0.0,6.0,6.0,761.3282380002602,2.0,1.0,phase_2,go,600.0,650.0,1.0,,,,,,,,,green,triangle
0.0,2.0,1.0,0.0,6.0,6.0,888.5270649998347,2.0,1.0,phase_2,go,600.0,650.0,1.0,,,,,,,,,orange,I
0.0,8.0,4.0,1.0,5.0,5.0,863.946814999963,2.0,1.0,phase_2,go,600.0,650.0,1.0,,,,,,,,,magenta,cross
0.0,3.0,2.0,0.0,6.0,6.0,507.6147029999447,3.0,1.0,phase_2,go,600.0,650.0,1.0,,,,,,,,,gray,square
0.0,8.0,4.0,1.0,6.0,6.0,339.911174000008,3.0,1.0,phase_2,stop,600.0,650.0,3.0,,,,,,,,,magenta,cross
0.0,4.0,4.0,0.0,5.0,5.0,347.2562450001533,3.0,1.0,phase_2,go,600.0,600.0,1.0,,,,,,,,,yellow,circle
0.0,7.0,2.0,1.0,6.0,6.0,372.5477100001626,3.0,1.0,phase_2,stop,600.0,600.0,3.0,,,,,,,,,white,flipped triangle
0.0,1.0,0.5,0.0,6.0,6.0,592.7588019999348,3.0,1.0,phase_2,go,600.0,550.0,1.0,,,,,,,,,green,triangle
0.0,2.0,1.0,0.0,5.0,5.0,512.6948050001374,3.0,1.0,phase_2,go,600.0,550.0,1.0,,,,,,,,,orange,I
0.0,3.0,2.0,0.0,6.0,6.0,440.4258220001793,3.0,1.0,phase_2,go,600.0,550.0,1.0,,,,,,,,,gray,square
0.0,7.0,2.0,1.0,6.0,6.0,473.5578239997267,3.0,1.0,phase_2,stop,600.0,550.0,3.0,,,,,,,,,white,flipped triangle
0.0,3.0,2.0,0.0,5.0,5.0,713.1792959999075,3.0,1.0,phase_2,go,600.0,500.0,1.0,,,,,,,,,gray,square
0.0,5.0,0.5,1.0,6.0,0.0,0.0,3.0,1.0,phase_2,stop,600.0,500.0,4.0,,,,,,,,,blue,hexagon
0.0,4.0,4.0,0.0,5.0,5.0,717.933393000294,3.0,1.0,phase_2,go,600.0,550.0,1.0,,,,,,,,,yellow,circle
0.0,8.0,4.0,1.0,6.0,6.0,548.1505560001096,3.0,1.0,phase_2,stop,600.0,550.0,3.0,,,,,,,,,magenta,cross
0.0,6.0,1.0,1.0,5.0,5.0,702.3309669998525,3.0,1.0,phase_2,stop,600.0,500.0,3.0,,,,,,,,,cyan,diamond
0.0,6.0,1.0,1.0,5.0,5.0,757.9421860000366,3.0,1.0,phase_2,stop,550.0,500.0,3.0,,,,,,,,,cyan,diamond
0.0,1.0,0.5,0.0,5.0,5.0,885.3024250001909,3.0,1.0,phase_2,go,500.0,500.0,1.0,,,,,,,,,green,triangle
0.0,8.0,4.0,1.0,6.0,6.0,609.8450359995695,3.0,1.0,phase_2,stop,500.0,500.0,3.0,,,,,,,,,magenta,cross
0.0,2.0,1.0,0.0,5.0,5.0,778.8260170000285,3.0,1.0,phase_2,go,500.0,450.0,1.0,,,,,,,,,orange,I
0.0,8.0,4.0,1.0,6.0,6.0,848.7469019996752,3.0,1.0,phase_2,go,500.0,450.0,1.0,,,,,,,,,magenta,cross
0.0,2.0,1.0,0.0,5.0,5.0,896.3800820001779,3.0,1.0,phase_2,go,500.0,450.0,1.0,,,,,,,,,orange,I
0.0,4.0,4.0,0.0,5.0,5.0,522.5450470002215,3.0,1.0,phase_2,go,500.0,450.0,1.0,,,,,,,,,yellow,circle
0.0,5.0,0.5,1.0,6.0,6.0,511.7305879998639,3.0,1.0,phase_2,stop,500.0,450.0,3.0,,,,,,,,,blue,hexagon
0.0,2.0,1.0,0.0,5.0,5.0,704.5863439998357,3.0,1.0,phase_2,go,500.0,400.0,1.0,,,,,,,,,orange,I
0.0,1.0,0.5,0.0,5.0,5.0,343.1675739998354,3.0,1.0,phase_2,go,500.0,400.0,1.0,,,,,,,,,green,triangle
0.0,6.0,1.0,1.0,5.0,5.0,333.8343820000773,3.0,1.0,phase_2,go,500.0,400.0,1.0,,,,,,,,,cyan,diamond
0.0,7.0,2.0,1.0,5.0,5.0,365.1518029996623,3.0,1.0,phase_2,stop,500.0,400.0,3.0,,,,,,,,,white,flipped triangle
0.0,4.0,4.0,0.0,6.0,6.0,347.3452889998043,3.0,1.0,phase_2,go,450.0,400.0,1.0,,,,,,,,,yellow,circle
0.0,8.0,4.0,1.0,5.0,5.0,482.5681840002289,3.0,1.0,phase_2,stop,450.0,400.0,3.0,,,,,,,,,magenta,cross
0.0,4.0,4.0,0.0,6.0,6.0,556.3908540002558,3.0,1.0,phase_2,go,400.0,400.0,1.0,,,,,,,,,yellow,circle
0.0,6.0,1.0,1.0,6.0,6.0,457.7678330001618,3.0,1.0,phase_2,stop,400.0,400.0,3.0,,,,,,,,,cyan,diamond
0.0,5.0,0.5,1.0,5.0,0.0,0.0,3.0,1.0,phase_2,stop,400.0,350.0,4.0,,,,,,,,,blue,hexagon
0.0,2.0,1.0,0.0,5.0,5.0,688.3991849999802,3.0,1.0,phase_2,go,450.0,350.0,1.0,,,,,,,,,orange,I
0.0,4.0,4.0,0.0,6.0,6.0,384.6664240004429,3.0,1.0,phase_2,go,450.0,350.0,1.0,,,,,,,,,yellow,circle
0.0,2.0,1.0,0.0,5.0,5.0,567.1978300001683,3.0,1.0,phase_2,go,450.0,350.0,1.0,,,,,,,,,orange,I
0.0,8.0,4.0,1.0,5.0,5.0,815.7662599996911,3.0,1.0,phase_2,go,450.0,350.0,1.0,,,,,,,,,magenta,cross
0.0,4.0,4.0,0.0,6.0,6.0,486.7672109999148,3.0,1.0,phase_2,go,450.0,350.0,1.0,,,,,,,,,yellow,circle
0.0,7.0,2.0,1.0,5.0,5.0,431.8803350001872,3.0,1.0,phase_2,stop,450.0,350.0,3.0,,,,,,,,,white,flipped triangle
0.0,3.0,2.0,0.0,5.0,5.0,701.738788000057,4.0,1.0,phase_2,go,400.0,350.0,1.0,,,,,,,,,gray,square
0.0,7.0,2.0,1.0,5.0,5.0,390.1898939998318,4.0,1.0,phase_2,stop,400.0,350.0,3.0,,,,,,,,,white,flipped triangle
0.0,3.0,2.0,0.0,6.0,6.0,499.5278110000072,4.0,1.0,phase_2,go,350.0,350.0,1.0,,,,,,,,,gray,square
0.0,4.0,4.0,0.0,5.0,5.0,372.7098580002348,4.0,1.0,phase_2,go,350.0,350.0,1.0,,,,,,,,,yellow,circle
0.0,4.0,4.0,0.0,6.0,6.0,329.6710119998352,4.0,1.0,phase_2,go,350.0,350.0,1.0,,,,,,,,,yellow,circle
0.0,4.0,4.0,0.0,6.0,6.0,347.2799099999974,4.0,1.0,phase_2,go,350.0,350.0,1.0,,,,,,,,,yellow,circle
0.0,3.0,2.0,0.0,6.0,6.0,402.5875699999233,4.0,1.0,phase_2,go,350.0,350.0,1.0,,,,,,,,,gray,square
0.0,2.0,1.0,0.0,6.0,6.0,383.8095619998967,4.0,1.0,phase_2,go,350.0,350.0,1.0,,,,,,,,,orange,I
0.0,3.0,2.0,0.0,5.0,5.0,442.1768990000601,4.0,1.0,phase_2,go,350.0,350.0,1.0,,,,,,,,,gray,square
0.0,6.0,1.0,1.0,5.0,5.0,376.4822129996901,4.0,1.0,phase_2,stop,350.0,350.0,3.0,,,,,,,,,cyan,diamond
0.0,7.0,2.0,1.0,6.0,0.0,0.0,4.0,1.0,phase_2,stop,300.0,350.0,4.0,,,,,,,,,white,flipped triangle
0.0,5.0,0.5,1.0,6.0,6.0,574.3558119997942,4.0,1.0,phase_2,go,300.0,400.0,1.0,,,,,,,,,blue,hexagon
0.0,7.0,2.0,1.0,6.0,6.0,535.3139630001351,4.0,1.0,phase_2,go,300.0,400.0,1.0,,,,,,,,,white,flipped triangle
0.0,5.0,0.5,1.0,6.0,6.0,494.6603289999984,4.0,1.0,phase_2,go,300.0,400.0,1.0,,,,,,,,,blue,hexagon
0.0,2.0,1.0,0.0,5.0,5.0,429.5085990002008,4.0,1.0,phase_2,go,300.0,400.0,1.0,,,,,,,,,orange,I
0.0,5.0,0.5,1.0,6.0,0.0,0.0,4.0,1.0,phase_2,stop,300.0,400.0,4.0,,,,,,,,,blue,hexagon
0.0,2.0,1.0,0.0,6.0,6.0,499.8417100000552,4.0,1.0,phase_2,go,300.0,450.0,1.0,,,,,,,,,orange,I
0.0,3.0,2.0,0.0,6.0,6.0,522.2167930000978,4.0,1.0,phase_2,go,300.0,450.0,1.0,,,,,,,,,gray,square
0.0,1.0,0.5,0.0,5.0,5.0,457.9730499999641,4.0,1.0,phase_2,go,300.0,450.0,1.0,,,,,,,,,green,triangle
0.0,5.0,0.5,1.0,5.0,0.0,0.0,4.0,1.0,phase_2,stop,300.0,450.0,4.0,,,,,,,,,blue,hexagon
0.0,3.0,2.0,0.0,5.0,5.0,560.8505250002054,4.0,1.0,phase_2,go,350.0,450.0,1.0,,,,,,,,,gray,square
0.0,1.0,0.5,0.0,5.0,5.0,568.2176750001418,4.0,1.0,phase_2,go,350.0,450.0,1.0,,,,,,,,,green,triangle
0.0,5.0,0.5,1.0,6.0,6.0,469.1553869997733,4.0,1.0,phase_2,stop,350.0,450.0,3.0,,,,,,,,,blue,hexagon
0.0,6.0,1.0,1.0,6.0,0.0,0.0,4.0,1.0,phase_2,stop,350.0,400.0,4.0,,,,,,,,,cyan,diamond
0.0,1.0,0.5,0.0,6.0,6.0,494.8633129997688,4.0,1.0,phase_2,go,350.0,450.0,1.0,,,,,,,,,green,triangle
0.0,7.0,2.0,1.0,6.0,0.0,0.0,4.0,1.0,phase_2,stop,350.0,450.0,4.0,,,,,,,,,white,flipped triangle
0.0,7.0,2.0,1.0,6.0,6.0,565.1298040002075,4.0,1.0,phase_2,stop,350.0,500.0,3.0,,,,,,,,,white,flipped triangle
0.0,6.0,1.0,1.0,6.0,0.0,0.0,4.0,1.0,phase_2,stop,350.0,450.0,4.0,,,,,,,,,cyan,diamond
0.0,2.0,1.0,0.0,5.0,5.0,547.8819619997921,4.0,1.0,phase_2,go,350.0,500.0,1.0,,,,,,,,,orange,I
0.0,7.0,2.0,1.0,6.0,0.0,0.0,4.0,1.0,phase_2,stop,350.0,500.0,4.0,,,,,,,,,white,flipped triangle
0.0,1.0,0.5,0.0,5.0,5.0,716.8060680000963,4.0,1.0,phase_2,go,350.0,550.0,1.0,,,,,,,,,green,triangle
0.0,2.0,1.0,0.0,6.0,6.0,505.0525940000625,4.0,1.0,phase_2,go,350.0,550.0,1.0,,,,,,,,,orange,I
0.0,1.0,0.5,0.0,6.0,6.0,539.2150870002297,4.0,1.0,phase_2,go,350.0,550.0,1.0,,,,,,,,,green,triangle
0.0,7.0,2.0,1.0,5.0,5.0,394.0282560001833,4.0,1.0,phase_2,go,350.0,550.0,1.0,,,,,,,,,white,flipped triangle
0.0,7.0,2.0,1.0,5.0,5.0,439.0589800000271,4.0,1.0,phase_2,stop,350.0,550.0,3.0,,,,,,,,,white,flipped triangle
0.0,7.0,2.0,1.0,5.0,0.0,0.0,4.0,1.0,phase_2,stop,300.0,550.0,4.0,,,,,,,,,white,flipped triangle
0.0,1.0,0.5,0.0,6.0,6.0,506.15769000023647,5.0,1.0,phase_2,go,350.0,550.0,1.0,,,,,,,,,green,triangle
0.0,6.0,1.0,1.0,5.0,5.0,374.1306570000233,5.0,1.0,phase_2,stop,350.0,550.0,3.0,,,,,,,,,cyan,diamond
0.0,1.0,0.5,0.0,6.0,6.0,495.2213649999066,5.0,1.0,phase_2,go,300.0,550.0,1.0,,,,,,,,,green,triangle
0.0,2.0,1.0,0.0,6.0,6.0,408.2247040000766,5.0,1.0,phase_2,go,300.0,550.0,1.0,,,,,,,,,orange,I
0.0,6.0,1.0,1.0,5.0,5.0,408.3923020002657,5.0,1.0,phase_2,go,300.0,550.0,1.0,,,,,,,,,cyan,diamond
0.0,8.0,4.0,1.0,6.0,6.0,311.2572629997885,5.0,1.0,phase_2,stop,300.0,550.0,3.0,,,,,,,,,magenta,cross
0.0,4.0,4.0,0.0,6.0,6.0,421.9502550004108,5.0,1.0,phase_2,go,300.0,500.0,1.0,,,,,,,,,yellow,circle
0.0,3.0,2.0,0.0,6.0,6.0,635.8913340000072,5.0,1.0,phase_2,go,300.0,500.0,1.0,,,,,,,,,gray,square
0.0,6.0,1.0,1.0,6.0,6.0,357.5906590003797,5.0,1.0,phase_2,stop,300.0,500.0,3.0,,,,,,,,,cyan,diamond
0.0,1.0,0.5,0.0,5.0,5.0,477.2017549998963,5.0,1.0,phase_2,go,300.0,450.0,1.0,,,,,,,,,green,triangle
0.0,8.0,4.0,1.0,5.0,5.0,497.8315119997205,5.0,1.0,phase_2,go,300.0,450.0,1.0,,,,,,,,,magenta,cross
0.0,8.0,4.0,1.0,6.0,6.0,465.1743440003884,5.0,1.0,phase_2,go,300.0,450.0,1.0,,,,,,,,,magenta,cross
0.0,5.0,0.5,1.0,5.0,5.0,362.9860600003667,5.0,1.0,phase_2,go,300.0,450.0,1.0,,,,,,,,,blue,hexagon
0.0,5.0,0.5,1.0,5.0,5.0,360.861377999754,5.0,1.0,phase_2,stop,300.0,450.0,3.0,,,,,,,,,blue,hexagon
0.0,3.0,2.0,0.0,5.0,5.0,543.7441320000289,5.0,1.0,phase_2,go,250.0,450.0,1.0,,,,,,,,,gray,square
0.0,6.0,1.0,1.0,5.0,5.0,616.4927310001076,5.0,1.0,phase_2,go,250.0,450.0,1.0,,,,,,,,,cyan,diamond
0.0,5.0,0.5,1.0,6.0,0.0,0.0,5.0,1.0,phase_2,stop,250.0,450.0,4.0,,,,,,,,,blue,hexagon
0.0,1.0,0.5,0.0,5.0,5.0,631.5307419999954,5.0,1.0,phase_2,go,250.0,500.0,1.0,,,,,,,,,green,triangle
0.0,4.0,4.0,0.0,6.0,6.0,581.4901690000625,5.0,1.0,phase_2,go,250.0,500.0,1.0,,,,,,,,,yellow,circle
0.0,8.0,4.0,1.0,5.0,0.0,0.0,5.0,1.0,phase_2,stop,250.0,500.0,4.0,,,,,,,,,magenta,cross
0.0,6.0,1.0,1.0,6.0,6.0,519.7575490001327,5.0,1.0,phase_2,stop,300.0,500.0,3.0,,,,,,,,,cyan,diamond
0.0,7.0,2.0,1.0,5.0,5.0,508.0842859997574,5.0,1.0,phase_2,go,300.0,450.0,1.0,,,,,,,,,white,flipped triangle
0.0,3.0,2.0,0.0,5.0,5.0,571.0150999998405,5.0,1.0,phase_2,go,300.0,450.0,1.0,,,,,,,,,gray,square
0.0,5.0,0.5,1.0,5.0,0.0,0.0,5.0,1.0,phase_2,stop,300.0,450.0,4.0,,,,,,,,,blue,hexagon
0.0,4.0,4.0,0.0,5.0,5.0,475.4330910000135,5.0,1.0,phase_2,go,350.0,450.0,1.0,,,,,,,,,yellow,circle
0.0,1.0,0.5,0.0,5.0,5.0,618.6378960001093,5.0,1.0,phase_2,go,350.0,450.0,1.0,,,,,,,,,green,triangle
0.0,4.0,4.0,0.0,5.0,5.0,482.1509850003167,5.0,1.0,phase_2,go,350.0,450.0,1.0,,,,,,,,,yellow,circle
0.0,1.0,0.5,0.0,5.0,5.0,359.5118349999211,5.0,1.0,phase_2,go,350.0,450.0,1.0,,,,,,,,,green,triangle
0.0,5.0,0.5,1.0,5.0,5.0,400.1146609998613,5.0,1.0,phase_2,stop,350.0,450.0,3.0,,,,,,,,,blue,hexagon
0.0,1.0,0.5,0.0,5.0,5.0,502.3978040003385,5.0,1.0,phase_2,go,300.0,450.0,1.0,,,,,,,,,green,triangle
0.0,6.0,1.0,1.0,5.0,0.0,0.0,5.0,1.0,phase_2,stop,300.0,450.0,4.0,,,,,,,,,cyan,diamond
0.0,8.0,4.0,1.0,6.0,0.0,0.0,5.0,1.0,phase_2,stop,350.0,450.0,4.0,,,,,,,,,magenta,cross
0.0,4.0,4.0,0.0,6.0,6.0,533.0482820004363,5.0,1.0,phase_2,go,350.0,500.0,1.0,,,,,,,,,yellow,circle
0.0,2.0,1.0,0.0,5.0,5.0,454.2494870001974,5.0,1.0,phase_2,go,350.0,500.0,1.0,,,,,,,,,orange,I
0.0,4.0,4.0,0.0,5.0,5.0,517.3821570001564,5.0,1.0,phase_2,go,350.0,500.0,1.0,,,,,,,,,yellow,circle
0.0,8.0,4.0,1.0,5.0,0.0,0.0,5.0,1.0,phase_2,stop,350.0,500.0,4.0,,,,,,,,,magenta,cross
0.0,5.0,0.5,1.0,6.0,6.0,599.6169319996625,6.0,1.0,phase_2,stop,400.0,500.0,3.0,,,,,,,,,blue,hexagon
0.0,8.0,4.0,1.0,5.0,0.0,0.0,6.0,1.0,phase_2,stop,400.0,450.0,4.0,,,,,,,,,magenta,cross
0.0,6.0,1.0,1.0,6.0,6.0,768.3620220000194,6.0,1.0,phase_2,go,450.0,450.0,1.0,,,,,,,,,cyan,diamond
0.0,5.0,0.5,1.0,6.0,0.0,0.0,6.0,1.0,phase_2,stop,450.0,450.0,4.0,,,,,,,,,blue,hexagon
0.0,7.0,2.0,1.0,6.0,6.0,527.6963589999468,6.0,1.0,phase_2,stop,450.0,500.0,3.0,,,,,,,,,white,flipped triangle
0.0,1.0,0.5,0.0,5.0,5.0,613.3309960000588,6.0,1.0,phase_2,go,450.0,450.0,1.0,,,,,,,,,green,triangle
0.0,2.0,1.0,0.0,5.0,5.0,564.9246869998024,6.0,1.0,phase_2,go,450.0,450.0,1.0,,,,,,,,,orange,I
0.0,1.0,0.5,0.0,6.0,6.0,652.6249150001604,6.0,1.0,phase_2,go,450.0,450.0,1.0,,,,,,,,,green,triangle
0.0,2.0,1.0,0.0,6.0,6.0,484.2122210002344,6.0,1.0,phase_2,go,450.0,450.0,1.0,,,,,,,,,orange,I
0.0,8.0,4.0,1.0,6.0,0.0,0.0,6.0,1.0,phase_2,stop,450.0,450.0,4.0,,,,,,,,,magenta,cross
0.0,3.0,2.0,0.0,5.0,5.0,577.821503999985,6.0,1.0,phase_2,go,450.0,500.0,1.0,,,,,,,,,gray,square
0.0,8.0,4.0,1.0,6.0,0.0,0.0,6.0,1.0,phase_2,stop,450.0,500.0,4.0,,,,,,,,,magenta,cross
0.0,4.0,4.0,0.0,5.0,5.0,465.2161189997059,6.0,1.0,phase_2,go,450.0,550.0,1.0,,,,,,,,,yellow,circle
0.0,4.0,4.0,0.0,6.0,6.0,489.3793179999193,6.0,1.0,phase_2,go,450.0,550.0,1.0,,,,,,,,,yellow,circle
0.0,3.0,2.0,0.0,6.0,6.0,607.8500979997443,6.0,1.0,phase_2,go,450.0,550.0,1.0,,,,,,,,,gray,square
0.0,5.0,0.5,1.0,5.0,0.0,0.0,6.0,1.0,phase_2,stop,450.0,550.0,4.0,,,,,,,,,blue,hexagon
0.0,2.0,1.0,0.0,5.0,5.0,527.814466000109,6.0,1.0,phase_2,go,500.0,550.0,1.0,,,,,,,,,orange,I
0.0,3.0,2.0,0.0,5.0,5.0,503.2196289998865,6.0,1.0,phase_2,go,500.0,550.0,1.0,,,,,,,,,gray,square
0.0,2.0,1.0,0.0,6.0,6.0,493.4692490000998,6.0,1.0,phase_2,go,500.0,550.0,1.0,,,,,,,,,orange,I
0.0,4.0,4.0,0.0,6.0,6.0,501.8108469998879,6.0,1.0,phase_2,go,500.0,550.0,1.0,,,,,,,,,yellow,circle
0.0,5.0,0.5,1.0,6.0,0.0,0.0,6.0,1.0,phase_2,stop,500.0,550.0,4.0,,,,,,,,,blue,hexagon
0.0,1.0,0.5,0.0,6.0,6.0,618.6679689999437,6.0,1.0,phase_2,go,500.0,600.0,1.0,,,,,,,,,green,triangle
0.0,2.0,1.0,0.0,6.0,6.0,489.8926959999699,6.0,1.0,phase_2,go,500.0,600.0,1.0,,,,,,,,,orange,I
0.0,7.0,2.0,1.0,6.0,6.0,474.3714319997707,6.0,1.0,phase_2,stop,500.0,600.0,3.0,,,,,,,,,white,flipped triangle
0.0,8.0,4.0,1.0,6.0,0.0,0.0,6.0,1.0,phase_2,stop,500.0,550.0,4.0,,,,,,,,,magenta,cross
0.0,6.0,1.0,1.0,6.0,6.0,777.1691369998734,6.0,1.0,phase_2,go,500.0,600.0,1.0,,,,,,,,,cyan,diamond
0.0,3.0,2.0,0.0,5.0,5.0,537.7667500001735,6.0,1.0,phase_2,go,500.0,600.0,1.0,,,,,,,,,gray,square
0.0,8.0,4.0,1.0,5.0,0.0,0.0,6.0,1.0,phase_2,stop,500.0,600.0,4.0,,,,,,,,,magenta,cross
0.0,6.0,1.0,1.0,6.0,0.0,0.0,6.0,1.0,phase_2,stop,550.0,600.0,4.0,,,,,,,,,cyan,diamond
0.0,3.0,2.0,0.0,6.0,6.0,469.8832690000927,6.0,1.0,phase_2,go,550.0,650.0,1.0,,,,,,,,,gray,square
0.0,5.0,0.5,1.0,5.0,5.0,709.6525219999421,6.0,1.0,phase_2,go,550.0,650.0,1.0,,,,,,,,,blue,hexagon
0.0,5.0,0.5,1.0,6.0,6.0,438.2806110002093,6.0,1.0,phase_2,go,550.0,650.0,1.0,,,,,,,,,blue,hexagon
0.0,4.0,4.0,0.0,6.0,6.0,516.9940129999304,6.0,1.0,phase_2,go,550.0,650.0,1.0,,,,,,,,,yellow,circle
0.0,2.0,1.0,0.0,6.0,6.0,542.1023499998228,6.0,1.0,phase_2,go,550.0,650.0,1.0,,,,,,,,,orange,I
0.0,5.0,0.5,1.0,5.0,5.0,765.7549160003327,6.0,1.0,phase_2,go,550.0,650.0,1.0,,,,,,,,,blue,hexagon
0.0,8.0,4.0,1.0,5.0,5.0,409.8438000000897,6.0,1.0,phase_2,go,550.0,650.0,1.0,,,,,,,,,magenta,cross
0.0,6.0,1.0,1.0,6.0,6.0,558.1806430000142,7.0,1.0,phase_2,stop,550.0,650.0,3.0,,,,,,,,,cyan,diamond
0.0,8.0,4.0,1.0,5.0,5.0,470.775802999924,7.0,1.0,phase_2,stop,550.0,600.0,3.0,,,,,,,,,magenta,cross
0.0,1.0,0.5,0.0,5.0,5.0,445.2047830000083,7.0,1.0,phase_2,go,500.0,600.0,1.0,,,,,,,,,green,triangle
0.0,1.0,0.5,0.0,5.0,5.0,478.4871440001552,7.0,1.0,phase_2,go,500.0,600.0,1.0,,,,,,,,,green,triangle
0.0,6.0,1.0,1.0,6.0,6.0,364.9358310003663,7.0,1.0,phase_2,go,500.0,600.0,1.0,,,,,,,,,cyan,diamond
0.0,3.0,2.0,0.0,5.0,5.0,442.838595000012,7.0,1.0,phase_2,go,500.0,600.0,1.0,,,,,,,,,gray,square
0.0,7.0,2.0,1.0,5.0,5.0,442.6859550003428,7.0,1.0,phase_2,stop,500.0,600.0,3.0,,,,,,,,,white,flipped triangle
0.0,8.0,4.0,1.0,5.0,0.0,0.0,7.0,1.0,phase_2,stop,450.0,600.0,4.0,,,,,,,,,magenta,cross
0.0,5.0,0.5,1.0,5.0,0.0,0.0,7.0,1.0,phase_2,stop,500.0,600.0,4.0,,,,,,,,,blue,hexagon
0.0,7.0,2.0,1.0,5.0,5.0,619.1272119999667,7.0,1.0,phase_2,go,550.0,600.0,1.0,,,,,,,,,white,flipped triangle
0.0,7.0,2.0,1.0,6.0,6.0,376.7456049999964,7.0,1.0,phase_2,go,550.0,600.0,1.0,,,,,,,,,white,flipped triangle
0.0,4.0,4.0,0.0,6.0,6.0,409.678200000144,7.0,1.0,phase_2,go,550.0,600.0,1.0,,,,,,,,,yellow,circle
0.0,7.0,2.0,1.0,6.0,6.0,384.1016619999209,7.0,1.0,phase_2,go,550.0,600.0,1.0,,,,,,,,,white,flipped triangle
0.0,5.0,0.5,1.0,5.0,5.0,727.9545470000812,7.0,1.0,phase_2,stop,550.0,600.0,3.0,,,,,,,,,blue,hexagon
0.0,3.0,2.0,0.0,6.0,6.0,559.9019910000607,7.0,1.0,phase_2,go,500.0,600.0,1.0,,,,,,,,,gray,square
0.0,5.0,0.5,1.0,5.0,0.0,0.0,7.0,1.0,phase_2,stop,500.0,600.0,4.0,,,,,,,,,blue,hexagon
0.0,7.0,2.0,1.0,5.0,0.0,0.0,7.0,1.0,phase_2,stop,550.0,600.0,4.0,,,,,,,,,white,flipped triangle
0.0,1.0,0.5,0.0,6.0,6.0,595.7406489997084,7.0,1.0,phase_2,go,600.0,600.0,1.0,,,,,,,,,green,triangle
0.0,5.0,0.5,1.0,6.0,0.0,0.0,7.0,1.0,phase_2,stop,600.0,600.0,4.0,,,,,,,,,blue,hexagon
0.0,4.0,4.0,0.0,6.0,6.0,525.2917689995229,7.0,1.0,phase_2,go,600.0,650.0,1.0,,,,,,,,,yellow,circle
0.0,1.0,0.5,0.0,6.0,6.0,498.1350599991856,7.0,1.0,phase_2,go,600.0,650.0,1.0,,,,,,,,,green,triangle
0.0,7.0,2.0,1.0,6.0,6.0,546.2433749999036,7.0,1.0,phase_2,stop,600.0,650.0,3.0,,,,,,,,,white,flipped triangle
0.0,2.0,1.0,0.0,6.0,6.0,602.5845989997833,7.0,1.0,phase_2,go,600.0,600.0,1.0,,,,,,,,,orange,I
0.0,6.0,1.0,1.0,6.0,0.0,0.0,7.0,1.0,phase_2,stop,600.0,600.0,4.0,,,,,,,,,cyan,diamond
0.0,3.0,2.0,0.0,6.0,6.0,681.6796969997085,7.0,1.0,phase_2,go,600.0,650.0,1.0,,,,,,,,,gray,square
0.0,6.0,1.0,1.0,5.0,0.0,0.0,7.0,1.0,phase_2,stop,600.0,650.0,4.0,,,,,,,,,cyan,diamond
0.0,8.0,4.0,1.0,6.0,6.0,1013.9100760006841,7.0,1.0,phase_2,go,650.0,650.0,1.0,,,,,,,,,magenta,cross
0.0,4.0,4.0,0.0,5.0,5.0,502.3105979998945,7.0,1.0,phase_2,go,650.0,650.0,1.0,,,,,,,,,yellow,circle
0.0,7.0,2.0,1.0,5.0,5.0,476.9349499993041,7.0,1.0,phase_2,stop,650.0,650.0,3.0,,,,,,,,,white,flipped triangle
0.0,3.0,2.0,0.0,5.0,5.0,821.1159660004341,7.0,1.0,phase_2,go,600.0,650.0,1.0,,,,,,,,,gray,square
0.0,8.0,4.0,1.0,5.0,0.0,0.0,7.0,1.0,phase_2,stop,600.0,650.0,4.0,,,,,,,,,magenta,cross
0.0,4.0,4.0,0.0,5.0,5.0,532.6067590003731,7.0,1.0,phase_2,go,650.0,650.0,1.0,,,,,,,,,yellow,circle
0.0,1.0,0.5,0.0,6.0,6.0,787.2504400002072,7.0,1.0,phase_2,go,650.0,650.0,1.0,,,,,,,,,green,triangle
0.0,3.0,2.0,0.0,6.0,6.0,466.9049340000129,7.0,1.0,phase_2,go,650.0,650.0,1.0,,,,,,,,,gray,square
0.0,6.0,1.0,1.0,5.0,0.0,0.0,7.0,1.0,phase_2,stop,650.0,650.0,4.0,,,,,,,,,cyan,diamond
0.0,5.0,0.5,1.0,6.0,0.0,0.0,7.0,1.0,phase_2,stop,700.0,650.0,4.0,,,,,,,,,blue,hexagon
0.0,2.0,1.0,0.0,5.0,5.0,550.5611939997834,8.0,1.0,phase_2,go,700.0,700.0,1.0,,,,,,,,,orange,I
0.0,2.0,1.0,0.0,6.0,6.0,448.1755140004679,8.0,1.0,phase_2,go,700.0,700.0,1.0,,,,,,,,,orange,I
0.0,3.0,2.0,0.0,5.0,5.0,397.2091969999383,8.0,1.0,phase_2,go,700.0,700.0,1.0,,,,,,,,,gray,square
0.0,3.0,2.0,0.0,6.0,6.0,380.9800850003739,8.0,1.0,phase_2,go,700.0,700.0,1.0,,,,,,,,,gray,square
0.0,1.0,0.5,0.0,6.0,6.0,348.5755860001518,8.0,1.0,phase_2,go,700.0,700.0,1.0,,,,,,,,,green,triangle
0.0,6.0,1.0,1.0,6.0,6.0,357.8218140000899,8.0,1.0,phase_2,go,700.0,700.0,1.0,,,,,,,,,cyan,diamond
0.0,6.0,1.0,1.0,6.0,6.0,812.908367000091,8.0,1.0,phase_2,stop,700.0,700.0,3.0,,,,,,,,,cyan,diamond
0.0,1.0,0.5,0.0,5.0,5.0,523.1446739999228,8.0,1.0,phase_2,go,700.0,650.0,1.0,,,,,,,,,green,triangle
0.0,4.0,4.0,0.0,6.0,6.0,506.40494099934585,8.0,1.0,phase_2,go,700.0,650.0,1.0,,,,,,,,,yellow,circle
0.0,5.0,0.5,1.0,6.0,0.0,0.0,8.0,1.0,phase_2,stop,700.0,650.0,4.0,,,,,,,,,blue,hexagon
0.0,6.0,1.0,1.0,5.0,5.0,1001.0825029994519,8.0,1.0,phase_2,go,700.0,700.0,1.0,,,,,,,,,cyan,diamond
0.0,8.0,4.0,1.0,6.0,0.0,0.0,8.0,1.0,phase_2,stop,700.0,700.0,4.0,,,,,,,,,magenta,cross
0.0,2.0,1.0,0.0,6.0,6.0,543.7912560000768,8.0,1.0,phase_2,go,700.0,750.0,1.0,,,,,,,,,orange,I
0.0,7.0,2.0,1.0,6.0,6.0,385.1484409997283,8.0,1.0,phase_2,go,700.0,750.0,1.0,,,,,,,,,white,flipped triangle
0.0,7.0,2.0,1.0,6.0,6.0,551.5466160004507,8.0,1.0,phase_2,stop,700.0,750.0,3.0,,,,,,,,,white,flipped triangle
0.0,6.0,1.0,1.0,5.0,5.0,549.7864620001565,8.0,1.0,phase_2,stop,700.0,700.0,3.0,,,,,,,,,cyan,diamond
0.0,3.0,2.0,0.0,5.0,5.0,653.3877089996167,8.0,1.0,phase_2,go,650.0,700.0,1.0,,,,,,,,,gray,square
0.0,8.0,4.0,1.0,6.0,6.0,867.9197609999392,8.0,1.0,phase_2,stop,650.0,700.0,3.0,,,,,,,,,magenta,cross
0.0,6.0,1.0,1.0,6.0,0.0,0.0,8.0,1.0,phase_2,stop,650.0,650.0,4.0,,,,,,,,,cyan,diamond
0.0,7.0,2.0,1.0,5.0,5.0,803.6292670003604,8.0,1.0,phase_2,stop,650.0,700.0,3.0,,,,,,,,,white,flipped triangle
0.0,2.0,1.0,0.0,5.0,5.0,562.1333919998506,8.0,1.0,phase_2,go,600.0,700.0,1.0,,,,,,,,,orange,I
0.0,3.0,2.0,0.0,6.0,6.0,442.0117489999029,8.0,1.0,phase_2,go,600.0,700.0,1.0,,,,,,,,,gray,square
0.0,8.0,4.0,1.0,6.0,0.0,0.0,8.0,1.0,phase_2,stop,600.0,700.0,4.0,,,,,,,,,magenta,cross
0.0,5.0,0.5,1.0,6.0,6.0,1200.8257190000222,8.0,1.0,phase_2,go,600.0,750.0,1.0,,,,,,,,,blue,hexagon
0.0,5.0,0.5,1.0,6.0,6.0,809.6325320002506,8.0,1.0,phase_2,stop,600.0,750.0,3.0,,,,,,,,,blue,hexagon
0.0,6.0,1.0,1.0,5.0,5.0,1329.0039670000624,8.0,1.0,phase_2,go,600.0,700.0,1.0,,,,,,,,,cyan,diamond
0.0,7.0,2.0,1.0,5.0,5.0,400.5941660007011,8.0,1.0,phase_2,stop,600.0,700.0,3.0,,,,,,,,,white,flipped triangle
0.0,5.0,0.5,1.0,5.0,5.0,1070.8708000001934,8.0,1.0,phase_2,go,550.0,700.0,1.0,,,,,,,,,blue,hexagon
0.0,3.0,2.0,0.0,5.0,5.0,487.5312490003125,8.0,1.0,phase_2,go,550.0,700.0,1.0,,,,,,,,,gray,square
0.0,1.0,0.5,0.0,6.0,6.0,844.9763620001249,8.0,1.0,phase_2,go,550.0,700.0,1.0,,,,,,,,,green,triangle
0.0,4.0,4.0,0.0,6.0,6.0,476.8529689999923,8.0,1.0,phase_2,go,550.0,700.0,1.0,,,,,,,,,yellow,circle
0.0,1.0,0.5,0.0,5.0,5.0,493.5972910006967,8.0,1.0,phase_2,go,550.0,700.0,1.0,,,,,,,,,green,triangle
0.0,4.0,4.0,0.0,5.0,5.0,394.714646000466,8.0,1.0,phase_2,go,550.0,700.0,1.0,,,,,,,,,yellow,circle
0.0,7.0,2.0,1.0,6.0,6.0,730.1908080007706,8.0,1.0,phase_2,stop,550.0,700.0,3.0,,,,,,,,,white,flipped triangle
0.0,4.0,4.0,0.0,5.0,5.0,489.2125309997936,8.0,1.0,phase_2,go,550.0,650.0,1.0,,,,,,,,,yellow,circle
0.0,3.0,2.0,0.0,5.0,5.0,449.5823400002336,8.0,1.0,phase_2,go,550.0,650.0,1.0,,,,,,,,,gray,square
0.0,6.0,1.0,1.0,7.0,3.0,2129.4171749996167,1.0,2.0,phase_3,,,,,768.0,4.0,192.0,576.0,768.0,384.0,960.0,1152.0,cyan,diamond
0.0,3.0,2.0,0.0,7.0,5.0,2387.0391950003977,1.0,1.0,phase_3,,,,,616.0,4.0,154.0,308.0,924.0,462.0,616.0,770.0,gray,square
0.0,5.0,0.5,1.0,7.0,2.0,3931.2812400003168,1.0,1.0,phase_3,,,,,1152.0,6.0,768.0,1152.0,960.0,384.0,192.0,576.0,blue,hexagon
0.0,7.0,2.0,1.0,7.0,3.0,3259.992485000112,1.0,1.0,phase_3,,,,,580.0,5.0,116.0,348.0,580.0,464.0,232.0,696.0,white,flipped triangle
0.0,8.0,4.0,1.0,7.0,5.0,2933.755879999808,1.0,1.0,phase_3,,,,,580.0,5.0,232.0,464.0,116.0,348.0,580.0,696.0,magenta,cross
0.0,2.0,1.0,0.0,7.0,5.0,2617.298215000119,1.0,1.0,phase_3,,,,,960.0,5.0,576.0,768.0,192.0,1152.0,960.0,384.0,orange,I
0.0,6.0,1.0,1.0,7.0,4.0,3681.726024999989,1.0,1.0,phase_3,,,,,464.0,4.0,348.0,116.0,232.0,464.0,696.0,580.0,cyan,diamond
0.0,7.0,2.0,1.0,7.0,4.0,2969.240087999424,1.0,1.0,phase_3,,,,,232.0,2.0,348.0,696.0,580.0,232.0,116.0,464.0,white,flipped triangle
0.0,4.0,4.0,0.0,7.0,6.0,2811.887470000329,1.0,1.0,phase_3,,,,,580.0,5.0,232.0,696.0,116.0,348.0,464.0,580.0,yellow,circle
0.0,7.0,2.0,1.0,7.0,2.0,2027.0822439997573,1.0,1.0,phase_3,,,,,405.0,3.0,540.0,405.0,810.0,270.0,135.0,675.0,white,flipped triangle
0.0,4.0,4.0,0.0,7.0,6.0,2279.6940620000896,1.0,1.0,phase_3,,,,,770.0,5.0,462.0,308.0,154.0,616.0,924.0,770.0,yellow,circle
0.0,3.0,2.0,0.0,7.0,1.0,2486.9023740002376,1.0,1.0,phase_3,,,,,696.0,6.0,696.0,116.0,580.0,464.0,232.0,348.0,gray,square
0.0,1.0,0.5,0.0,7.0,1.0,2727.64036999979,1.0,1.0,phase_3,,,,,580.0,5.0,580.0,348.0,232.0,464.0,116.0,696.0,green,triangle
0.0,8.0,4.0,1.0,7.0,2.0,1977.090139000211,1.0,1.0,phase_3,,,,,348.0,3.0,464.0,348.0,116.0,232.0,580.0,696.0,magenta,cross
0.0,5.0,0.5,1.0,7.0,1.0,2857.878855000308,1.0,1.0,phase_3,,,,,519.0,3.0,519.0,865.0,173.0,346.0,1038.0,692.0,blue,hexagon
0.0,1.0,0.5,0.0,7.0,5.0,2542.104111999833,1.0,1.0,phase_3,,,,,810.0,6.0,675.0,270.0,540.0,135.0,810.0,405.0,green,triangle
0.0,3.0,2.0,0.0,7.0,5.0,3772.4376529995434,1.0,1.0,phase_3,,,,,540.0,4.0,810.0,405.0,270.0,675.0,540.0,135.0,gray,square
0.0,7.0,2.0,1.0,7.0,2.0,2878.0497979996653,1.0,1.0,phase_3,,,,,675.0,5.0,405.0,675.0,540.0,270.0,810.0,135.0,white,flipped triangle
0.0,1.0,0.5,0.0,7.0,6.0,3086.923588999525,1.0,1.0,phase_3,,,,,675.0,5.0,405.0,810.0,135.0,270.0,540.0,675.0,green,triangle
0.0,5.0,0.5,1.0,7.0,3.0,2856.442966999566,1.0,1.0,phase_3,,,,,692.0,4.0,173.0,1038.0,692.0,346.0,519.0,865.0,blue,hexagon
0.0,5.0,0.5,1.0,7.0,6.0,2614.669612000398,2.0,1.0,phase_3,,,,,540.0,4.0,405.0,810.0,675.0,270.0,135.0,540.0,blue,hexagon
0.0,4.0,4.0,0.0,7.0,2.0,1969.3006019997483,2.0,1.0,phase_3,,,,,270.0,2.0,675.0,270.0,810.0,135.0,405.0,540.0,yellow,circle
0.0,6.0,1.0,1.0,7.0,4.0,2201.1390309999115,2.0,1.0,phase_3,,,,,1152.0,6.0,576.0,960.0,192.0,1152.0,384.0,768.0,cyan,diamond
0.0,4.0,4.0,0.0,7.0,3.0,2947.355043999778,2.0,1.0,phase_3,,,,,580.0,5.0,348.0,116.0,580.0,696.0,464.0,232.0,yellow,circle
0.0,2.0,1.0,0.0,7.0,2.0,4284.226928000862,2.0,1.0,phase_3,,,,,865.0,5.0,173.0,865.0,519.0,692.0,1038.0,346.0,orange,I
0.0,6.0,1.0,1.0,7.0,6.0,2407.1922849998373,2.0,1.0,phase_3,,,,,675.0,5.0,540.0,405.0,810.0,135.0,270.0,675.0,cyan,diamond
0.0,3.0,2.0,0.0,7.0,4.0,1673.568492999948,2.0,1.0,phase_3,,,,,308.0,2.0,616.0,770.0,462.0,308.0,924.0,154.0,gray,square
0.0,6.0,1.0,1.0,7.0,6.0,2562.292530999912,2.0,1.0,phase_3,,,,,692.0,4.0,346.0,1038.0,519.0,865.0,173.0,692.0,cyan,diamond
0.0,7.0,2.0,1.0,7.0,2.0,2275.390826000148,2.0,1.0,phase_3,,,,,692.0,4.0,346.0,692.0,173.0,519.0,1038.0,865.0,white,flipped triangle
0.0,8.0,4.0,1.0,7.0,3.0,2716.491692999625,2.0,1.0,phase_3,,,,,692.0,4.0,346.0,865.0,692.0,1038.0,519.0,173.0,magenta,cross
0.0,8.0,4.0,1.0,7.0,5.0,2479.133732000264,2.0,1.0,phase_3,,,,,960.0,5.0,384.0,768.0,576.0,192.0,960.0,1152.0,magenta,cross
0.0,4.0,4.0,0.0,7.0,6.0,2878.2854720002438,2.0,1.0,phase_3,,,,,960.0,5.0,192.0,576.0,384.0,768.0,1152.0,960.0,yellow,circle
0.0,7.0,2.0,1.0,7.0,3.0,3080.161271999714,2.0,1.0,phase_3,,,,,768.0,4.0,384.0,960.0,768.0,1152.0,192.0,576.0,white,flipped triangle
0.0,1.0,0.5,0.0,7.0,2.0,3082.4007180008266,2.0,1.0,phase_3,,,,,580.0,5.0,348.0,580.0,232.0,464.0,116.0,696.0,green,triangle
0.0,2.0,1.0,0.0,7.0,5.0,2122.8007350000557,2.0,1.0,phase_3,,,,,462.0,3.0,770.0,308.0,154.0,924.0,462.0,616.0,orange,I
0.0,4.0,4.0,0.0,7.0,6.0,3211.9490880004378,2.0,1.0,phase_3,,,,,770.0,5.0,924.0,154.0,308.0,462.0,616.0,770.0,yellow,circle
0.0,5.0,0.5,1.0,7.0,5.0,2765.1164819999394,2.0,1.0,phase_3,,,,,696.0,6.0,348.0,116.0,464.0,580.0,696.0,232.0,blue,hexagon
0.0,1.0,0.5,0.0,7.0,3.0,3120.882616999552,2.0,1.0,phase_3,,,,,960.0,5.0,192.0,1152.0,960.0,384.0,768.0,576.0,green,triangle
0.0,8.0,4.0,1.0,7.0,2.0,2511.97298399984,2.0,1.0,phase_3,,,,,770.0,5.0,616.0,770.0,924.0,308.0,154.0,462.0,magenta,cross
0.0,2.0,1.0,0.0,7.0,5.0,2072.949497000081,2.0,1.0,phase_3,,,,,1038.0,6.0,173.0,519.0,692.0,346.0,1038.0,865.0,orange,I
0.0,3.0,2.0,0.0,7.0,4.0,2355.641756000296,3.0,1.0,phase_3,,,,,580.0,5.0,116.0,696.0,348.0,580.0,232.0,464.0,gray,square
0.0,6.0,1.0,1.0,7.0,2.0,3148.223037999742,3.0,1.0,phase_3,,,,,770.0,5.0,154.0,770.0,308.0,616.0,924.0,462.0,cyan,diamond
0.0,3.0,2.0,0.0,7.0,5.0,2917.850294000345,3.0,1.0,phase_3,,,,,540.0,4.0,270.0,810.0,405.0,675.0,540.0,135.0,gray,square
0.0,3.0,2.0,0.0,7.0,2.0,1880.6773489995976,3.0,1.0,phase_3,,,,,865.0,5.0,519.0,865.0,1038.0,692.0,346.0,173.0,gray,square
0.0,4.0,4.0,0.0,7.0,6.0,2312.87514899941,3.0,1.0,phase_3,,,,,865.0,5.0,519.0,346.0,1038.0,692.0,173.0,865.0,yellow,circle
0.0,2.0,1.0,0.0,7.0,5.0,2650.731208000252,3.0,1.0,phase_3,,,,,616.0,4.0,154.0,462.0,770.0,924.0,616.0,308.0,orange,I
0.0,6.0,1.0,1.0,7.0,4.0,3389.365807000104,3.0,1.0,phase_3,,,,,540.0,4.0,405.0,810.0,675.0,540.0,270.0,135.0,cyan,diamond
0.0,6.0,1.0,1.0,7.0,4.0,2797.8886099999727,3.0,1.0,phase_3,,,,,696.0,6.0,116.0,232.0,580.0,696.0,348.0,464.0,cyan,diamond
0.0,8.0,4.0,1.0,7.0,4.0,2166.415763999794,3.0,1.0,phase_3,,,,,675.0,5.0,540.0,405.0,810.0,675.0,270.0,135.0,magenta,cross
0.0,2.0,1.0,0.0,7.0,2.0,2494.9139550008117,3.0,1.0,phase_3,,,,,348.0,3.0,232.0,348.0,580.0,464.0,696.0,116.0,orange,I
0.0,1.0,0.5,0.0,7.0,4.0,2737.1685959997194,3.0,1.0,phase_3,,,,,616.0,4.0,770.0,308.0,462.0,616.0,154.0,924.0,green,triangle
0.0,4.0,4.0,0.0,7.0,6.0,2073.039114000494,3.0,1.0,phase_3,,,,,692.0,4.0,346.0,1038.0,173.0,519.0,865.0,692.0,yellow,circle
0.0,8.0,4.0,1.0,7.0,3.0,4052.1693170003346,3.0,1.0,phase_3,,,,,770.0,5.0,154.0,924.0,770.0,462.0,308.0,616.0,magenta,cross
0.0,7.0,2.0,1.0,7.0,3.0,2590.890765999575,3.0,1.0,phase_3,,,,,770.0,5.0,462.0,924.0,770.0,308.0,616.0,154.0,white,flipped triangle
0.0,4.0,4.0,0.0,7.0,5.0,1880.440656999781,3.0,1.0,phase_3,,,,,576.0,3.0,1152.0,960.0,192.0,768.0,576.0,384.0,yellow,circle
0.0,2.0,1.0,0.0,7.0,4.0,1809.490587000255,3.0,1.0,phase_3,,,,,1152.0,6.0,576.0,384.0,768.0,1152.0,192.0,960.0,orange,I
0.0,1.0,0.5,0.0,7.0,1.0,3179.036929999711,3.0,1.0,phase_3,,,,,770.0,5.0,770.0,616.0,462.0,308.0,924.0,154.0,green,triangle
0.0,1.0,0.5,0.0,7.0,3.0,2885.532900999351,3.0,1.0,phase_3,,,,,519.0,3.0,346.0,692.0,519.0,173.0,1038.0,865.0,green,triangle
0.0,2.0,1.0,0.0,7.0,3.0,3013.424636000309,3.0,1.0,phase_3,,,,,405.0,3.0,675.0,270.0,405.0,540.0,810.0,135.0,orange,I
0.0,1.0,0.5,0.0,7.0,5.0,2430.5784730004234,3.0,1.0,phase_3,,,,,692.0,4.0,519.0,1038.0,346.0,173.0,692.0,865.0,green,triangle
0.0,2.0,1.0,0.0,7.0,5.0,2332.288044000052,4.0,1.0,phase_3,,,,,696.0,6.0,116.0,580.0,348.0,464.0,696.0,232.0,orange,I
0.0,5.0,0.5,1.0,7.0,3.0,3446.842536999611,4.0,1.0,phase_3,,,,,675.0,5.0,405.0,810.0,675.0,270.0,135.0,540.0,blue,hexagon
0.0,8.0,4.0,1.0,7.0,2.0,3053.109423999558,4.0,1.0,phase_3,,,,,692.0,4.0,173.0,692.0,865.0,519.0,1038.0,346.0,magenta,cross
0.0,8.0,4.0,1.0,7.0,3.0,1966.721785000118,4.0,1.0,phase_3,,,,,768.0,4.0,384.0,1152.0,768.0,192.0,960.0,576.0,magenta,cross
0.0,7.0,2.0,1.0,7.0,2.0,2904.215210000075,4.0,1.0,phase_3,,,,,692.0,4.0,865.0,692.0,519.0,173.0,1038.0,346.0,white,flipped triangle
0.0,5.0,0.5,1.0,7.0,6.0,2257.1970639992287,4.0,1.0,phase_3,,,,,770.0,5.0,924.0,154.0,308.0,462.0,616.0,770.0,blue,hexagon
0.0,8.0,4.0,1.0,7.0,4.0,3050.262110999938,4.0,1.0,phase_3,,,,,675.0,5.0,135.0,270.0,810.0,675.0,405.0,540.0,magenta,cross
0.0,3.0,2.0,0.0,7.0,1.0,3500.203217000489,4.0,1.0,phase_3,,,,,768.0,4.0,768.0,192.0,960.0,384.0,576.0,1152.0,gray,square
0.0,3.0,2.0,0.0,7.0,3.0,4095.4035450004085,4.0,1.0,phase_3,,,,,768.0,4.0,576.0,384.0,768.0,1152.0,192.0,960.0,gray,square
0.0,5.0,0.5,1.0,7.0,4.0,3200.543693000327,4.0,1.0,phase_3,,,,,384.0,2.0,576.0,768.0,960.0,384.0,192.0,1152.0,blue,hexagon
0.0,3.0,2.0,0.0,7.0,5.0,2931.6044749994035,4.0,1.0,phase_3,,,,,346.0,2.0,519.0,173.0,1038.0,865.0,346.0,692.0,gray,square
0.0,6.0,1.0,1.0,7.0,6.0,3035.082798000076,4.0,1.0,phase_3,,,,,346.0,2.0,519.0,1038.0,173.0,692.0,865.0,346.0,cyan,diamond
0.0,4.0,4.0,0.0,7.0,3.0,2204.0828120007063,4.0,1.0,phase_3,,,,,405.0,3.0,810.0,270.0,405.0,135.0,675.0,540.0,yellow,circle
0.0,6.0,1.0,1.0,7.0,5.0,2533.467610999651,4.0,1.0,phase_3,,,,,616.0,4.0,154.0,924.0,770.0,462.0,616.0,308.0,cyan,diamond
0.0,7.0,2.0,1.0,7.0,5.0,2615.826420000303,4.0,1.0,phase_3,,,,,616.0,4.0,770.0,308.0,462.0,924.0,616.0,154.0,white,flipped triangle
0.0,5.0,0.5,1.0,7.0,5.0,1936.022605999824,4.0,1.0,phase_3,,,,,580.0,5.0,116.0,464.0,232.0,696.0,580.0,348.0,blue,hexagon
0.0,7.0,2.0,1.0,7.0,3.0,4953.077436000058,4.0,1.0,phase_3,,,,,960.0,5.0,1152.0,192.0,960.0,768.0,384.0,576.0,white,flipped triangle
0.0,1.0,0.5,0.0,7.0,4.0,1954.1273899994849,4.0,1.0,phase_3,,,,,768.0,4.0,1152.0,960.0,576.0,768.0,384.0,192.0,green,triangle
0.0,5.0,0.5,1.0,7.0,5.0,3099.4113699998707,4.0,1.0,phase_3,,,,,616.0,4.0,308.0,154.0,462.0,770.0,616.0,924.0,blue,hexagon
0.0,2.0,1.0,0.0,7.0,1.0,3074.726283999553,4.0,1.0,phase_3,,,,,810.0,6.0,810.0,540.0,135.0,405.0,675.0,270.0,orange,I
