raw_reward_magnitude,stim_reward,stepwise_reward_magnitude,paired_with_stopping,stim_location,response,reaction_time,block,num_trial_presentations,which_phase,stop_signal_trial_type,left_SSD,right_SSD,accuracy,chosen_bidding_amount,chosen_bidding_level,possible_bid_1,possible_bid_2,possible_bid_3,possible_bid_4,possible_bid_5,possible_bid_6,color_text,shape_text
316.0,6.0,2.0,1.0,2.0,2.0,528.7963759999457,1.0,3.0,phase_1,,,,,,,,,,,,,yellow,diamond
160.0,1.0,1.0,0.0,1.0,1.0,466.9805569999425,1.0,2.0,phase_1,,,,,,,,,,,,,gray,triangle
321.0,6.0,2.0,1.0,1.0,1.0,444.7285200001261,1.0,1.0,phase_1,,,,,,,,,,,,,yellow,diamond
1277.0,8.0,4.0,1.0,1.0,1.0,354.54417999994797,1.0,1.0,phase_1,,,,,,,,,,,,,blue,cross
0.0,3.0,0.0,0.0,2.0,2.0,479.2338709999058,1.0,1.0,phase_1,,,,,,,,,,,,,cyan,circle
1325.0,8.0,4.0,1.0,3.0,3.0,733.45166099989,1.0,1.0,phase_1,,,,,,,,,,,,,blue,cross
346.0,6.0,2.0,1.0,2.0,2.0,355.2673549997962,1.0,2.0,phase_1,,,,,,,,,,,,,yellow,diamond
1306.0,8.0,4.0,1.0,1.0,1.0,377.3210340000332,1.0,1.0,phase_1,,,,,,,,,,,,,blue,cross
147.0,5.0,1.0,1.0,2.0,2.0,429.44225500014,1.0,1.0,phase_1,,,,,,,,,,,,,magenta,flipped triangle
640.0,7.0,3.0,1.0,3.0,3.0,435.8549779999521,1.0,1.0,phase_1,,,,,,,,,,,,,orange,hexagon
626.0,7.0,3.0,1.0,2.0,2.0,509.7951190000458,1.0,1.0,phase_1,,,,,,,,,,,,,orange,hexagon
337.0,6.0,2.0,1.0,4.0,4.0,412.6861600000211,1.0,1.0,phase_1,,,,,,,,,,,,,yellow,diamond
325.0,2.0,2.0,0.0,4.0,4.0,481.1918929999592,1.0,1.0,phase_1,,,,,,,,,,,,,green,I
156.0,1.0,1.0,0.0,1.0,1.0,340.4135169998881,1.0,1.0,phase_1,,,,,,,,,,,,,gray,triangle
0.0,5.0,0.0,1.0,1.0,1.0,377.5198240000463,1.0,1.0,phase_1,,,,,,,,,,,,,magenta,flipped triangle
668.0,7.0,3.0,1.0,1.0,1.0,581.1301050000566,1.0,1.0,phase_1,,,,,,,,,,,,,orange,hexagon
176.0,5.0,1.0,1.0,2.0,2.0,402.1763590001228,1.0,1.0,phase_1,,,,,,,,,,,,,magenta,flipped triangle
0.0,3.0,0.0,0.0,1.0,1.0,272.2788049998144,1.0,1.0,phase_1,,,,,,,,,,,,,cyan,circle
640.0,3.0,3.0,0.0,2.0,2.0,356.6232900000159,1.0,1.0,phase_1,,,,,,,,,,,,,cyan,circle
172.0,5.0,1.0,1.0,2.0,2.0,344.4375880001189,1.0,1.0,phase_1,,,,,,,,,,,,,magenta,flipped triangle
330.0,2.0,2.0,0.0,3.0,3.0,315.0435810000545,1.0,2.0,phase_1,,,,,,,,,,,,,green,I
0.0,7.0,0.0,1.0,4.0,4.0,405.0418409999565,1.0,2.0,phase_1,,,,,,,,,,,,,orange,hexagon
147.0,1.0,1.0,0.0,3.0,3.0,296.2876720000622,1.0,1.0,phase_1,,,,,,,,,,,,,gray,triangle
349.0,6.0,2.0,1.0,2.0,2.0,365.0769640000817,1.0,1.0,phase_1,,,,,,,,,,,,,yellow,diamond
0.0,1.0,0.0,0.0,3.0,3.0,368.0964340001083,1.0,1.0,phase_1,,,,,,,,,,,,,gray,triangle
1293.0,8.0,4.0,1.0,3.0,3.0,380.4925379999986,1.0,1.0,phase_1,,,,,,,,,,,,,blue,cross
0.0,5.0,0.0,1.0,1.0,1.0,361.2793590000365,1.0,1.0,phase_1,,,,,,,,,,,,,magenta,flipped triangle
1289.0,4.0,4.0,0.0,2.0,2.0,463.4610829998564,1.0,1.0,phase_1,,,,,,,,,,,,,white,square
320.0,6.0,2.0,1.0,3.0,3.0,305.8358490000046,1.0,1.0,phase_1,,,,,,,,,,,,,yellow,diamond
647.0,7.0,3.0,1.0,3.0,3.0,297.2037649999492,1.0,1.0,phase_1,,,,,,,,,,,,,orange,hexagon
326.0,6.0,2.0,1.0,3.0,3.0,349.6753089998492,1.0,1.0,phase_1,,,,,,,,,,,,,yellow,diamond
635.0,7.0,3.0,1.0,1.0,1.0,386.6763799999262,1.0,1.0,phase_1,,,,,,,,,,,,,orange,hexagon
1324.0,4.0,4.0,0.0,1.0,1.0,365.07975299991807,1.0,1.0,phase_1,,,,,,,,,,,,,white,square
179.0,1.0,1.0,0.0,2.0,2.0,457.1379530000286,1.0,1.0,phase_1,,,,,,,,,,,,,gray,triangle
341.0,6.0,2.0,1.0,2.0,2.0,317.8379849998691,1.0,1.0,phase_1,,,,,,,,,,,,,yellow,diamond
1316.0,8.0,4.0,1.0,2.0,2.0,341.1880300000121,1.0,1.0,phase_1,,,,,,,,,,,,,blue,cross
340.0,6.0,2.0,1.0,1.0,1.0,367.0616059998792,1.0,1.0,phase_1,,,,,,,,,,,,,yellow,diamond
304.0,2.0,2.0,0.0,1.0,1.0,419.71165200016,1.0,1.0,phase_1,,,,,,,,,,,,,green,I
1297.0,4.0,4.0,0.0,2.0,2.0,466.7671849999806,1.0,1.0,phase_1,,,,,,,,,,,,,white,square
327.0,6.0,2.0,1.0,2.0,2.0,334.1209170000638,1.0,1.0,phase_1,,,,,,,,,,,,,yellow,diamond
139.0,5.0,1.0,1.0,4.0,4.0,452.5740330000189,1.0,1.0,phase_1,,,,,,,,,,,,,magenta,flipped triangle
186.0,5.0,1.0,1.0,2.0,2.0,439.8024810000152,1.0,1.0,phase_1,,,,,,,,,,,,,magenta,flipped triangle
0.0,8.0,0.0,1.0,1.0,1.0,461.784340000122,1.0,1.0,phase_1,,,,,,,,,,,,,blue,cross
1314.0,8.0,4.0,1.0,2.0,2.0,392.7042250002159,1.0,1.0,phase_1,,,,,,,,,,,,,blue,cross
1320.0,4.0,4.0,0.0,3.0,3.0,495.3842329998679,1.0,1.0,phase_1,,,,,,,,,,,,,white,square
176.0,1.0,1.0,0.0,3.0,3.0,416.946179000206,1.0,1.0,phase_1,,,,,,,,,,,,,gray,triangle
346.0,2.0,2.0,0.0,4.0,4.0,408.2225419999759,1.0,1.0,phase_1,,,,,,,,,,,,,green,I
311.0,2.0,2.0,0.0,1.0,1.0,469.6603019999656,1.0,3.0,phase_1,,,,,,,,,,,,,green,I
662.0,7.0,3.0,1.0,3.0,3.0,377.5311469998996,1.0,1.0,phase_1,,,,,,,,,,,,,orange,hexagon
155.0,5.0,1.0,1.0,4.0,4.0,423.8733810000212,1.0,1.0,phase_1,,,,,,,,,,,,,magenta,flipped triangle
630.0,7.0,3.0,1.0,1.0,1.0,547.2038960001555,1.0,1.0,phase_1,,,,,,,,,,,,,orange,hexagon
164.0,1.0,1.0,0.0,2.0,2.0,695.6378069999118,1.0,1.0,phase_1,,,,,,,,,,,,,gray,triangle
660.0,3.0,3.0,0.0,1.0,1.0,557.1253539999361,1.0,1.0,phase_1,,,,,,,,,,,,,cyan,circle
653.0,7.0,3.0,1.0,4.0,4.0,407.8377760001785,1.0,1.0,phase_1,,,,,,,,,,,,,orange,hexagon
161.0,1.0,1.0,0.0,3.0,3.0,374.7003609998955,1.0,1.0,phase_1,,,,,,,,,,,,,gray,triangle
1307.0,4.0,4.0,0.0,2.0,2.0,442.1870209998815,1.0,1.0,phase_1,,,,,,,,,,,,,white,square
634.0,7.0,3.0,1.0,4.0,4.0,526.3799689998905,1.0,1.0,phase_1,,,,,,,,,,,,,orange,hexagon
1322.0,4.0,4.0,0.0,4.0,4.0,507.75381100015693,1.0,1.0,phase_1,,,,,,,,,,,,,white,square
1297.0,8.0,4.0,1.0,2.0,2.0,422.8680969999914,1.0,1.0,phase_1,,,,,,,,,,,,,blue,cross
1316.0,4.0,4.0,0.0,1.0,1.0,445.3035559999989,1.0,1.0,phase_1,,,,,,,,,,,,,white,square
326.0,2.0,2.0,0.0,3.0,3.0,368.1264519998422,1.0,1.0,phase_1,,,,,,,,,,,,,green,I
1278.0,4.0,4.0,0.0,2.0,2.0,491.947405000019,1.0,1.0,phase_1,,,,,,,,,,,,,white,square
324.0,6.0,2.0,1.0,4.0,4.0,377.3639309999907,1.0,1.0,phase_1,,,,,,,,,,,,,yellow,diamond
139.0,1.0,1.0,0.0,4.0,4.0,408.3018189999166,1.0,1.0,phase_1,,,,,,,,,,,,,gray,triangle
630.0,3.0,3.0,0.0,3.0,3.0,476.8952890001401,1.0,1.0,phase_1,,,,,,,,,,,,,cyan,circle
167.0,5.0,1.0,1.0,1.0,1.0,495.2614920000542,1.0,1.0,phase_1,,,,,,,,,,,,,magenta,flipped triangle
0.0,6.0,0.0,1.0,4.0,4.0,414.166072999933,1.0,1.0,phase_1,,,,,,,,,,,,,yellow,diamond
638.0,3.0,3.0,0.0,4.0,4.0,346.5847759998723,1.0,1.0,phase_1,,,,,,,,,,,,,cyan,circle
325.0,6.0,2.0,1.0,1.0,1.0,476.5419419998125,1.0,1.0,phase_1,,,,,,,,,,,,,yellow,diamond
0.0,7.0,0.0,1.0,2.0,2.0,785.0806210001338,1.0,1.0,phase_1,,,,,,,,,,,,,orange,hexagon
176.0,1.0,1.0,0.0,1.0,1.0,392.4305789998925,1.0,1.0,phase_1,,,,,,,,,,,,,gray,triangle
0.0,1.0,0.0,0.0,4.0,4.0,300.6505630000902,1.0,1.0,phase_1,,,,,,,,,,,,,gray,triangle
1319.0,8.0,4.0,1.0,4.0,4.0,287.6786260001154,1.0,1.0,phase_1,,,,,,,,,,,,,blue,cross
0.0,4.0,0.0,0.0,2.0,2.0,358.6512310000671,1.0,1.0,phase_1,,,,,,,,,,,,,white,square
0.0,8.0,0.0,1.0,3.0,3.0,386.7547789998298,1.0,1.0,phase_1,,,,,,,,,,,,,blue,cross
1289.0,8.0,4.0,1.0,4.0,4.0,293.2039850002184,1.0,1.0,phase_1,,,,,,,,,,,,,blue,cross
348.0,2.0,2.0,0.0,1.0,1.0,380.5379050002102,1.0,1.0,phase_1,,,,,,,,,,,,,green,I
669.0,3.0,3.0,0.0,2.0,2.0,408.4369970000807,1.0,1.0,phase_1,,,,,,,,,,,,,cyan,circle
629.0,7.0,3.0,1.0,3.0,3.0,333.578659000068,1.0,1.0,phase_1,,,,,,,,,,,,,orange,hexagon
641.0,7.0,3.0,1.0,3.0,3.0,378.0786280001393,1.0,1.0,phase_1,,,,,,,,,,,,,orange,hexagon
340.0,2.0,2.0,0.0,2.0,2.0,494.9322119996395,1.0,1.0,phase_1,,,,,,,,,,,,,green,I
0.0,8.0,0.0,1.0,2.0,2.0,561.9761480002126,1.0,1.0,phase_1,,,,,,,,,,,,,blue,cross
640.0,7.0,3.0,1.0,3.0,3.0,342.6050369998847,1.0,1.0,phase_1,,,,,,,,,,,,,orange,hexagon
0.0,1.0,0.0,0.0,1.0,1.0,546.4907499999754,1.0,1.0,phase_1,,,,,,,,,,,,,gray,triangle
648.0,3.0,3.0,0.0,2.0,2.0,318.188511000244,1.0,1.0,phase_1,,,,,,,,,,,,,cyan,circle
1297.0,4.0,4.0,0.0,3.0,3.0,269.6642030000475,1.0,1.0,phase_1,,,,,,,,,,,,,white,square
0.0,6.0,0.0,1.0,1.0,1.0,287.2533449999537,1.0,1.0,phase_1,,,,,,,,,,,,,yellow,diamond
0.0,5.0,0.0,1.0,2.0,2.0,349.3846390001636,1.0,1.0,phase_1,,,,,,,,,,,,,magenta,flipped triangle
0.0,3.0,0.0,0.0,2.0,2.0,466.8809370000417,1.0,1.0,phase_1,,,,,,,,,,,,,cyan,circle
634.0,7.0,3.0,1.0,1.0,1.0,374.3969519996426,1.0,1.0,phase_1,,,,,,,,,,,,,orange,hexagon
661.0,7.0,3.0,1.0,2.0,2.0,265.7804179998493,1.0,1.0,phase_1,,,,,,,,,,,,,orange,hexagon
169.0,1.0,1.0,0.0,1.0,1.0,382.6538089997484,1.0,1.0,phase_1,,,,,,,,,,,,,gray,triangle
302.0,2.0,2.0,0.0,2.0,2.0,299.2362899999534,1.0,1.0,phase_1,,,,,,,,,,,,,green,I
0.0,6.0,0.0,1.0,1.0,1.0,400.8726019997084,1.0,1.0,phase_1,,,,,,,,,,,,,yellow,diamond
165.0,5.0,1.0,1.0,3.0,3.0,417.1950179998021,1.0,2.0,phase_1,,,,,,,,,,,,,magenta,flipped triangle
669.0,7.0,3.0,1.0,3.0,3.0,333.6454440000125,1.0,1.0,phase_1,,,,,,,,,,,,,orange,hexagon
1278.0,4.0,4.0,0.0,4.0,4.0,420.8841949998714,1.0,1.0,phase_1,,,,,,,,,,,,,white,square
0.0,5.0,0.0,1.0,3.0,3.0,401.8025180002951,1.0,1.0,phase_1,,,,,,,,,,,,,magenta,flipped triangle
0.0,2.0,0.0,0.0,1.0,1.0,541.1657679997006,1.0,1.0,phase_1,,,,,,,,,,,,,green,I
0.0,7.0,0.0,1.0,2.0,2.0,378.1713749999653,1.0,1.0,phase_1,,,,,,,,,,,,,orange,hexagon
0.0,8.0,0.0,1.0,1.0,1.0,558.6983759999384,2.0,1.0,phase_1,,,,,,,,,,,,,blue,cross
1277.0,4.0,4.0,0.0,4.0,4.0,426.4567979998901,2.0,1.0,phase_1,,,,,,,,,,,,,white,square
169.0,1.0,1.0,0.0,4.0,4.0,423.2011329995657,2.0,1.0,phase_1,,,,,,,,,,,,,gray,triangle
655.0,7.0,3.0,1.0,3.0,3.0,310.0818090001667,2.0,1.0,phase_1,,,,,,,,,,,,,orange,hexagon
142.0,1.0,1.0,0.0,3.0,3.0,336.7242859999351,2.0,1.0,phase_1,,,,,,,,,,,,,gray,triangle
653.0,3.0,3.0,0.0,3.0,3.0,365.5470379999315,2.0,1.0,phase_1,,,,,,,,,,,,,cyan,circle
0.0,1.0,0.0,0.0,3.0,3.0,385.9452320002674,2.0,1.0,phase_1,,,,,,,,,,,,,gray,triangle
628.0,7.0,3.0,1.0,1.0,1.0,592.8794179999386,2.0,1.0,phase_1,,,,,,,,,,,,,orange,hexagon
0.0,2.0,0.0,0.0,4.0,4.0,509.88613599974997,2.0,1.0,phase_1,,,,,,,,,,,,,green,I
670.0,3.0,3.0,0.0,2.0,2.0,472.2093350001159,2.0,1.0,phase_1,,,,,,,,,,,,,cyan,circle
1297.0,8.0,4.0,1.0,3.0,3.0,404.1468030000033,2.0,1.0,phase_1,,,,,,,,,,,,,blue,cross
642.0,7.0,3.0,1.0,1.0,1.0,490.8661999998003,2.0,1.0,phase_1,,,,,,,,,,,,,orange,hexagon
0.0,7.0,0.0,1.0,1.0,1.0,462.3812050003835,2.0,1.0,phase_1,,,,,,,,,,,,,orange,hexagon
1307.0,8.0,4.0,1.0,2.0,2.0,356.0367649997715,2.0,1.0,phase_1,,,,,,,,,,,,,blue,cross
661.0,7.0,3.0,1.0,1.0,1.0,703.2109649999256,2.0,1.0,phase_1,,,,,,,,,,,,,orange,hexagon
146.0,5.0,1.0,1.0,4.0,4.0,491.0517139996955,2.0,1.0,phase_1,,,,,,,,,,,,,magenta,flipped triangle
0.0,5.0,0.0,1.0,3.0,3.0,345.994618000077,2.0,1.0,phase_1,,,,,,,,,,,,,magenta,flipped triangle
161.0,1.0,1.0,0.0,2.0,2.0,558.9465180000843,2.0,1.0,phase_1,,,,,,,,,,,,,gray,triangle
320.0,2.0,2.0,0.0,3.0,3.0,475.8289249998597,2.0,1.0,phase_1,,,,,,,,,,,,,green,I
155.0,1.0,1.0,0.0,2.0,2.0,488.0986489997667,2.0,1.0,phase_1,,,,,,,,,,,,,gray,triangle
151.0,1.0,1.0,0.0,4.0,4.0,459.9007749998236,2.0,1.0,phase_1,,,,,,,,,,,,,gray,triangle
656.0,3.0,3.0,0.0,2.0,2.0,366.7874979996668,2.0,1.0,phase_1,,,,,,,,,,,,,cyan,circle
1285.0,4.0,4.0,0.0,4.0,4.0,389.5657230000324,2.0,1.0,phase_1,,,,,,,,,,,,,white,square
161.0,5.0,1.0,1.0,4.0,4.0,400.8444930000223,2.0,1.0,phase_1,,,,,,,,,,,,,magenta,flipped triangle
169.0,5.0,1.0,1.0,3.0,3.0,447.7976950001903,2.0,1.0,phase_1,,,,,,,,,,,,,magenta,flipped triangle
348.0,6.0,2.0,1.0,4.0,4.0,339.2099939997024,2.0,1.0,phase_1,,,,,,,,,,,,,yellow,diamond
0.0,1.0,0.0,0.0,3.0,3.0,423.8116450001143,2.0,1.0,phase_1,,,,,,,,,,,,,gray,triangle
1297.0,4.0,4.0,0.0,1.0,1.0,410.6605029996899,2.0,1.0,phase_1,,,,,,,,,,,,,white,square
337.0,6.0,2.0,1.0,3.0,3.0,306.0034400000404,2.0,1.0,phase_1,,,,,,,,,,,,,yellow,diamond
319.0,6.0,2.0,1.0,3.0,3.0,398.5124470000301,2.0,1.0,phase_1,,,,,,,,,,,,,yellow,diamond
151.0,5.0,1.0,1.0,3.0,3.0,352.5522350000756,2.0,1.0,phase_1,,,,,,,,,,,,,magenta,flipped triangle
173.0,5.0,1.0,1.0,1.0,1.0,393.2295669997074,2.0,2.0,phase_1,,,,,,,,,,,,,magenta,flipped triangle
0.0,2.0,0.0,0.0,2.0,2.0,367.2384100000272,2.0,1.0,phase_1,,,,,,,,,,,,,green,I
161.0,1.0,1.0,0.0,4.0,4.0,411.0672469996643,2.0,1.0,phase_1,,,,,,,,,,,,,gray,triangle
1293.0,4.0,4.0,0.0,1.0,1.0,583.8963530000001,2.0,1.0,phase_1,,,,,,,,,,,,,white,square
165.0,1.0,1.0,0.0,2.0,2.0,334.0347190001012,2.0,1.0,phase_1,,,,,,,,,,,,,gray,triangle
331.0,6.0,2.0,1.0,1.0,1.0,376.4622030003011,2.0,1.0,phase_1,,,,,,,,,,,,,yellow,diamond
1298.0,8.0,4.0,1.0,3.0,3.0,464.5186540001305,2.0,1.0,phase_1,,,,,,,,,,,,,blue,cross
668.0,3.0,3.0,0.0,2.0,2.0,379.913014000067,2.0,1.0,phase_1,,,,,,,,,,,,,cyan,circle
634.0,3.0,3.0,0.0,3.0,3.0,624.9251690001074,2.0,1.0,phase_1,,,,,,,,,,,,,cyan,circle
0.0,6.0,0.0,1.0,4.0,4.0,398.6988249998831,2.0,1.0,phase_1,,,,,,,,,,,,,yellow,diamond
659.0,7.0,3.0,1.0,2.0,2.0,346.885745000236,2.0,1.0,phase_1,,,,,,,,,,,,,orange,hexagon
1313.0,8.0,4.0,1.0,2.0,2.0,414.2160679998596,2.0,1.0,phase_1,,,,,,,,,,,,,blue,cross
1325.0,4.0,4.0,0.0,4.0,4.0,451.9524800002727,2.0,1.0,phase_1,,,,,,,,,,,,,white,square
1282.0,4.0,4.0,0.0,2.0,2.0,352.9200660000242,2.0,1.0,phase_1,,,,,,,,,,,,,white,square
1315.0,8.0,4.0,1.0,4.0,4.0,420.0070939996294,2.0,1.0,phase_1,,,,,,,,,,,,,blue,cross
139.0,5.0,1.0,1.0,1.0,1.0,393.6637270003302,2.0,1.0,phase_1,,,,,,,,,,,,,magenta,flipped triangle
650.0,3.0,3.0,0.0,3.0,3.0,389.313348000087,2.0,1.0,phase_1,,,,,,,,,,,,,cyan,circle
1303.0,4.0,4.0,0.0,1.0,1.0,481.2562449997131,2.0,1.0,phase_1,,,,,,,,,,,,,white,square
341.0,2.0,2.0,0.0,3.0,3.0,367.7032989999134,2.0,1.0,phase_1,,,,,,,,,,,,,green,I
0.0,8.0,0.0,1.0,4.0,4.0,435.7046629997967,2.0,1.0,phase_1,,,,,,,,,,,,,blue,cross
0.0,2.0,0.0,0.0,1.0,1.0,463.401094999881,2.0,1.0,phase_1,,,,,,,,,,,,,green,I
349.0,2.0,2.0,0.0,4.0,4.0,388.3319339997797,2.0,1.0,phase_1,,,,,,,,,,,,,green,I
0.0,4.0,0.0,0.0,3.0,3.0,361.7844340001284,2.0,1.0,phase_1,,,,,,,,,,,,,white,square
185.0,5.0,1.0,1.0,1.0,1.0,399.2745860000468,2.0,1.0,phase_1,,,,,,,,,,,,,magenta,flipped triangle
1301.0,4.0,4.0,0.0,3.0,3.0,431.8757979999645,2.0,1.0,phase_1,,,,,,,,,,,,,white,square
670.0,7.0,3.0,1.0,4.0,4.0,388.8170770001125,2.0,1.0,phase_1,,,,,,,,,,,,,orange,hexagon
1303.0,8.0,4.0,1.0,4.0,4.0,393.0727110000589,2.0,1.0,phase_1,,,,,,,,,,,,,blue,cross
314.0,2.0,2.0,0.0,2.0,2.0,798.5347210001237,2.0,1.0,phase_1,,,,,,,,,,,,,green,I
0.0,1.0,0.0,0.0,1.0,1.0,499.9849060000088,2.0,1.0,phase_1,,,,,,,,,,,,,gray,triangle
153.0,1.0,1.0,0.0,1.0,1.0,561.5332130000752,2.0,1.0,phase_1,,,,,,,,,,,,,gray,triangle
0.0,1.0,0.0,0.0,1.0,1.0,411.4950279999902,2.0,1.0,phase_1,,,,,,,,,,,,,gray,triangle
0.0,6.0,0.0,1.0,4.0,4.0,472.6368249998813,2.0,1.0,phase_1,,,,,,,,,,,,,yellow,diamond
635.0,3.0,3.0,0.0,1.0,1.0,509.80042799983494,2.0,1.0,phase_1,,,,,,,,,,,,,cyan,circle
0.0,5.0,0.0,1.0,4.0,4.0,426.2932289998389,2.0,1.0,phase_1,,,,,,,,,,,,,magenta,flipped triangle
1295.0,4.0,4.0,0.0,4.0,4.0,359.3016630002239,2.0,1.0,phase_1,,,,,,,,,,,,,white,square
160.0,5.0,1.0,1.0,1.0,1.0,414.1697330001079,2.0,1.0,phase_1,,,,,,,,,,,,,magenta,flipped triangle
642.0,3.0,3.0,0.0,1.0,1.0,442.5146710000263,2.0,1.0,phase_1,,,,,,,,,,,,,cyan,circle
1297.0,4.0,4.0,0.0,3.0,3.0,476.1537559998032,2.0,2.0,phase_1,,,,,,,,,,,,,white,square
648.0,7.0,3.0,1.0,4.0,4.0,382.9466480001429,2.0,1.0,phase_1,,,,,,,,,,,,,orange,hexagon
1304.0,8.0,4.0,1.0,3.0,3.0,404.7702660000141,2.0,1.0,phase_1,,,,,,,,,,,,,blue,cross
1291.0,4.0,4.0,0.0,4.0,4.0,311.9366040000386,2.0,1.0,phase_1,,,,,,,,,,,,,white,square
316.0,2.0,2.0,0.0,1.0,1.0,516.337779999958,2.0,1.0,phase_1,,,,,,,,,,,,,green,I
311.0,6.0,2.0,1.0,4.0,4.0,281.1429930002305,2.0,1.0,phase_1,,,,,,,,,,,,,yellow,diamond
626.0,3.0,3.0,0.0,4.0,4.0,293.6466209998798,2.0,1.0,phase_1,,,,,,,,,,,,,cyan,circle
662.0,3.0,3.0,0.0,1.0,1.0,439.2749260000528,2.0,2.0,phase_1,,,,,,,,,,,,,cyan,circle
0.0,2.0,0.0,0.0,1.0,1.0,516.7956720001712,2.0,1.0,phase_1,,,,,,,,,,,,,green,I
0.0,6.0,0.0,1.0,2.0,2.0,441.1266750003051,2.0,1.0,phase_1,,,,,,,,,,,,,yellow,diamond
167.0,1.0,1.0,0.0,1.0,1.0,403.7890349995905,2.0,1.0,phase_1,,,,,,,,,,,,,gray,triangle
646.0,7.0,3.0,1.0,4.0,4.0,576.8807110002854,2.0,1.0,phase_1,,,,,,,,,,,,,orange,hexagon
152.0,5.0,1.0,1.0,3.0,3.0,374.430853999911,2.0,1.0,phase_1,,,,,,,,,,,,,magenta,flipped triangle
0.0,6.0,0.0,1.0,4.0,4.0,396.0930899997947,2.0,1.0,phase_1,,,,,,,,,,,,,yellow,diamond
169.0,5.0,1.0,1.0,2.0,2.0,513.2050510001136,2.0,1.0,phase_1,,,,,,,,,,,,,magenta,flipped triangle
147.0,5.0,1.0,1.0,2.0,2.0,362.3023599998305,2.0,2.0,phase_1,,,,,,,,,,,,,magenta,flipped triangle
172.0,1.0,1.0,0.0,4.0,4.0,420.4977589997725,2.0,1.0,phase_1,,,,,,,,,,,,,gray,triangle
181.0,1.0,1.0,0.0,3.0,3.0,355.5779089997486,2.0,1.0,phase_1,,,,,,,,,,,,,gray,triangle
164.0,5.0,1.0,1.0,4.0,4.0,408.7234789999456,2.0,1.0,phase_1,,,,,,,,,,,,,magenta,flipped triangle
319.0,2.0,2.0,0.0,3.0,3.0,435.0510980002582,2.0,1.0,phase_1,,,,,,,,,,,,,green,I
661.0,3.0,3.0,0.0,3.0,3.0,710.7854979999502,2.0,1.0,phase_1,,,,,,,,,,,,,cyan,circle
1295.0,8.0,4.0,1.0,1.0,1.0,629.9007970001185,2.0,1.0,phase_1,,,,,,,,,,,,,blue,cross
1324.0,8.0,4.0,1.0,1.0,1.0,443.024873000013,2.0,1.0,phase_1,,,,,,,,,,,,,blue,cross
0.0,2.0,0.0,0.0,2.0,2.0,646.2442869997176,2.0,1.0,phase_1,,,,,,,,,,,,,green,I
345.0,6.0,2.0,1.0,3.0,3.0,748.5984310001186,2.0,1.0,phase_1,,,,,,,,,,,,,yellow,diamond
651.0,3.0,3.0,0.0,1.0,1.0,559.5888090001608,2.0,1.0,phase_1,,,,,,,,,,,,,cyan,circle
0.0,1.0,0.0,0.0,4.0,4.0,652.5115509998614,2.0,1.0,phase_1,,,,,,,,,,,,,gray,triangle
1282.0,4.0,4.0,0.0,3.0,3.0,498.3624639999107,2.0,1.0,phase_1,,,,,,,,,,,,,white,square
0.0,7.0,0.0,1.0,2.0,2.0,565.0635419997343,2.0,1.0,phase_1,,,,,,,,,,,,,orange,hexagon
323.0,2.0,2.0,0.0,4.0,4.0,577.4432439998236,2.0,1.0,phase_1,,,,,,,,,,,,,green,I
349.0,2.0,2.0,0.0,2.0,2.0,573.8614450001478,2.0,1.0,phase_1,,,,,,,,,,,,,green,I
660.0,3.0,3.0,0.0,3.0,3.0,436.1505120000402,2.0,1.0,phase_1,,,,,,,,,,,,,cyan,circle
0.0,5.0,0.0,1.0,4.0,4.0,510.86046199998236,3.0,1.0,phase_1,,,,,,,,,,,,,magenta,flipped triangle
325.0,6.0,2.0,1.0,3.0,3.0,619.9957490002816,3.0,1.0,phase_1,,,,,,,,,,,,,yellow,diamond
0.0,4.0,0.0,0.0,4.0,4.0,374.6290700000827,3.0,1.0,phase_1,,,,,,,,,,,,,white,square
655.0,7.0,3.0,1.0,2.0,2.0,442.3893429998315,3.0,1.0,phase_1,,,,,,,,,,,,,orange,hexagon
1305.0,8.0,4.0,1.0,3.0,3.0,382.9938260000745,3.0,1.0,phase_1,,,,,,,,,,,,,blue,cross
339.0,6.0,2.0,1.0,2.0,2.0,405.0797949998923,3.0,1.0,phase_1,,,,,,,,,,,,,yellow,diamond
330.0,6.0,2.0,1.0,2.0,2.0,346.3616460003322,3.0,1.0,phase_1,,,,,,,,,,,,,yellow,diamond
1280.0,8.0,4.0,1.0,3.0,3.0,423.6013400000047,3.0,1.0,phase_1,,,,,,,,,,,,,blue,cross
661.0,3.0,3.0,0.0,3.0,3.0,411.3688209999964,3.0,1.0,phase_1,,,,,,,,,,,,,cyan,circle
667.0,7.0,3.0,1.0,3.0,3.0,374.7689750002791,3.0,1.0,phase_1,,,,,,,,,,,,,orange,hexagon
0.0,3.0,0.0,0.0,1.0,1.0,602.4656829999913,3.0,1.0,phase_1,,,,,,,,,,,,,cyan,circle
0.0,4.0,0.0,0.0,4.0,4.0,417.9127820002577,3.0,1.0,phase_1,,,,,,,,,,,,,white,square
316.0,6.0,2.0,1.0,3.0,3.0,374.2969529998845,3.0,1.0,phase_1,,,,,,,,,,,,,yellow,diamond
0.0,6.0,0.0,1.0,2.0,2.0,389.3062719998852,3.0,2.0,phase_1,,,,,,,,,,,,,yellow,diamond
345.0,2.0,2.0,0.0,1.0,1.0,443.8397349999832,3.0,1.0,phase_1,,,,,,,,,,,,,green,I
0.0,8.0,0.0,1.0,3.0,3.0,497.4152469999353,3.0,1.0,phase_1,,,,,,,,,,,,,blue,cross
0.0,1.0,0.0,0.0,3.0,3.0,580.6407320001199,3.0,1.0,phase_1,,,,,,,,,,,,,gray,triangle
1317.0,8.0,4.0,1.0,2.0,2.0,407.7272439999433,3.0,1.0,phase_1,,,,,,,,,,,,,blue,cross
321.0,6.0,2.0,1.0,1.0,1.0,372.672780999892,3.0,1.0,phase_1,,,,,,,,,,,,,yellow,diamond
667.0,3.0,3.0,0.0,2.0,2.0,400.9176189997561,3.0,1.0,phase_1,,,,,,,,,,,,,cyan,circle
640.0,3.0,3.0,0.0,1.0,1.0,460.8825739996973,3.0,1.0,phase_1,,,,,,,,,,,,,cyan,circle
1289.0,4.0,4.0,0.0,3.0,3.0,492.2494359998381,3.0,1.0,phase_1,,,,,,,,,,,,,white,square
1289.0,8.0,4.0,1.0,1.0,1.0,364.839614000175,3.0,1.0,phase_1,,,,,,,,,,,,,blue,cross
0.0,5.0,0.0,1.0,4.0,4.0,491.0621439998976,3.0,1.0,phase_1,,,,,,,,,,,,,magenta,flipped triangle
344.0,2.0,2.0,0.0,1.0,1.0,546.6904729996713,3.0,1.0,phase_1,,,,,,,,,,,,,green,I
655.0,3.0,3.0,0.0,3.0,3.0,453.5937830000875,3.0,1.0,phase_1,,,,,,,,,,,,,cyan,circle
156.0,5.0,1.0,1.0,1.0,1.0,329.8071310000523,3.0,1.0,phase_1,,,,,,,,,,,,,magenta,flipped triangle
314.0,6.0,2.0,1.0,2.0,2.0,429.4374689998221,3.0,1.0,phase_1,,,,,,,,,,,,,yellow,diamond
1303.0,8.0,4.0,1.0,1.0,1.0,378.876560000208,3.0,1.0,phase_1,,,,,,,,,,,,,blue,cross
1304.0,4.0,4.0,0.0,4.0,4.0,377.4585149999439,3.0,1.0,phase_1,,,,,,,,,,,,,white,square
1322.0,8.0,4.0,1.0,3.0,3.0,484.7374190003393,3.0,1.0,phase_1,,,,,,,,,,,,,blue,cross
0.0,7.0,0.0,1.0,1.0,1.0,370.9577080003328,3.0,1.0,phase_1,,,,,,,,,,,,,orange,hexagon
168.0,5.0,1.0,1.0,3.0,3.0,388.8008270000682,3.0,1.0,phase_1,,,,,,,,,,,,,magenta,flipped triangle
652.0,7.0,3.0,1.0,4.0,4.0,436.3058769999952,3.0,1.0,phase_1,,,,,,,,,,,,,orange,hexagon
647.0,3.0,3.0,0.0,4.0,4.0,438.4739920001266,3.0,1.0,phase_1,,,,,,,,,,,,,cyan,circle
180.0,1.0,1.0,0.0,2.0,2.0,506.5572980001889,3.0,1.0,phase_1,,,,,,,,,,,,,gray,triangle
1305.0,4.0,4.0,0.0,2.0,2.0,481.071916000019,3.0,1.0,phase_1,,,,,,,,,,,,,white,square
1278.0,8.0,4.0,1.0,1.0,1.0,590.4478379998181,3.0,1.0,phase_1,,,,,,,,,,,,,blue,cross
634.0,3.0,3.0,0.0,4.0,4.0,400.9845200002928,3.0,1.0,phase_1,,,,,,,,,,,,,cyan,circle
1282.0,8.0,4.0,1.0,4.0,4.0,376.2789879997399,3.0,1.0,phase_1,,,,,,,,,,,,,blue,cross
650.0,7.0,3.0,1.0,4.0,4.0,596.8357730002936,3.0,1.0,phase_1,,,,,,,,,,,,,orange,hexagon
1302.0,4.0,4.0,0.0,3.0,3.0,438.8885029998164,3.0,1.0,phase_1,,,,,,,,,,,,,white,square
0.0,2.0,0.0,0.0,1.0,1.0,563.0060389999016,3.0,1.0,phase_1,,,,,,,,,,,,,green,I
146.0,1.0,1.0,0.0,3.0,3.0,962.605104999966,3.0,1.0,phase_1,,,,,,,,,,,,,gray,triangle
0.0,8.0,0.0,1.0,1.0,1.0,373.6154289999831,3.0,1.0,phase_1,,,,,,,,,,,,,blue,cross
301.0,2.0,2.0,0.0,2.0,2.0,347.3243909998018,3.0,1.0,phase_1,,,,,,,,,,,,,green,I
344.0,6.0,2.0,1.0,4.0,4.0,318.3092729996133,3.0,1.0,phase_1,,,,,,,,,,,,,yellow,diamond
0.0,8.0,0.0,1.0,4.0,4.0,364.3820319998667,3.0,1.0,phase_1,,,,,,,,,,,,,blue,cross
641.0,3.0,3.0,0.0,1.0,1.0,417.5920779998705,3.0,1.0,phase_1,,,,,,,,,,,,,cyan,circle
165.0,1.0,1.0,0.0,2.0,2.0,460.1157590000184,3.0,1.0,phase_1,,,,,,,,,,,,,gray,triangle
640.0,7.0,3.0,1.0,1.0,1.0,538.1760630002645,3.0,1.0,phase_1,,,,,,,,,,,,,orange,hexagon
1319.0,4.0,4.0,0.0,4.0,4.0,438.9092379997237,3.0,1.0,phase_1,,,,,,,,,,,,,white,square
669.0,7.0,3.0,1.0,1.0,1.0,556.3936029998331,3.0,1.0,phase_1,,,,,,,,,,,,,orange,hexagon
634.0,7.0,3.0,1.0,1.0,1.0,535.0063190003311,3.0,1.0,phase_1,,,,,,,,,,,,,orange,hexagon
156.0,5.0,1.0,1.0,3.0,3.0,522.1897840001475,3.0,2.0,phase_1,,,,,,,,,,,,,magenta,flipped triangle
672.0,7.0,3.0,1.0,2.0,2.0,436.3193530002718,3.0,1.0,phase_1,,,,,,,,,,,,,orange,hexagon
147.0,1.0,1.0,0.0,4.0,4.0,457.0985850000397,3.0,1.0,phase_1,,,,,,,,,,,,,gray,triangle
316.0,2.0,2.0,0.0,4.0,4.0,759.5329839996339,3.0,1.0,phase_1,,,,,,,,,,,,,green,I
173.0,1.0,1.0,0.0,1.0,1.0,420.8589519998895,3.0,1.0,phase_1,,,,,,,,,,,,,gray,triangle
1320.0,8.0,4.0,1.0,1.0,1.0,432.7919410002323,3.0,1.0,phase_1,,,,,,,,,,,,,blue,cross
0.0,6.0,0.0,1.0,1.0,1.0,386.7465570001513,3.0,1.0,phase_1,,,,,,,,,,,,,yellow,diamond
0.0,7.0,0.0,1.0,2.0,2.0,431.8589240001529,3.0,1.0,phase_1,,,,,,,,,,,,,orange,hexagon
659.0,3.0,3.0,0.0,4.0,4.0,343.5479589998067,3.0,1.0,phase_1,,,,,,,,,,,,,cyan,circle
0.0,7.0,0.0,1.0,3.0,3.0,371.3116039998567,3.0,1.0,phase_1,,,,,,,,,,,,,orange,hexagon
149.0,1.0,1.0,0.0,4.0,4.0,311.7241820000345,3.0,1.0,phase_1,,,,,,,,,,,,,gray,triangle
1302.0,8.0,4.0,1.0,2.0,2.0,413.2528439999987,3.0,1.0,phase_1,,,,,,,,,,,,,blue,cross
1313.0,4.0,4.0,0.0,2.0,2.0,352.1604699999443,3.0,1.0,phase_1,,,,,,,,,,,,,white,square
312.0,2.0,2.0,0.0,4.0,4.0,414.6801009997034,3.0,1.0,phase_1,,,,,,,,,,,,,green,I
0.0,4.0,0.0,0.0,1.0,1.0,432.4278879998928,3.0,1.0,phase_1,,,,,,,,,,,,,white,square
1288.0,8.0,4.0,1.0,1.0,1.0,519.1376340003444,3.0,1.0,phase_1,,,,,,,,,,,,,blue,cross
156.0,1.0,1.0,0.0,1.0,1.0,394.8514880003131,3.0,1.0,phase_1,,,,,,,,,,,,,gray,triangle
171.0,1.0,1.0,0.0,3.0,3.0,491.7586389997268,3.0,2.0,phase_1,,,,,,,,,,,,,gray,triangle
327.0,2.0,2.0,0.0,3.0,3.0,367.7405220000764,3.0,1.0,phase_1,,,,,,,,,,,,,green,I
1303.0,4.0,4.0,0.0,1.0,1.0,345.8770860002005,3.0,2.0,phase_1,,,,,,,,,,,,,white,square
0.0,2.0,0.0,0.0,1.0,1.0,422.5498730002073,3.0,1.0,phase_1,,,,,,,,,,,,,green,I
324.0,2.0,2.0,0.0,2.0,2.0,476.6955609998149,3.0,1.0,phase_1,,,,,,,,,,,,,green,I
163.0,5.0,1.0,1.0,2.0,2.0,518.5407110002416,3.0,1.0,phase_1,,,,,,,,,,,,,magenta,flipped triangle
168.0,1.0,1.0,0.0,3.0,3.0,429.8978060000991,3.0,1.0,phase_1,,,,,,,,,,,,,gray,triangle
163.0,1.0,1.0,0.0,3.0,3.0,402.2070499995607,3.0,1.0,phase_1,,,,,,,,,,,,,gray,triangle
660.0,7.0,3.0,1.0,3.0,3.0,367.1360080002159,3.0,1.0,phase_1,,,,,,,,,,,,,orange,hexagon
646.0,3.0,3.0,0.0,2.0,2.0,793.5045519998312,3.0,1.0,phase_1,,,,,,,,,,,,,cyan,circle
660.0,7.0,3.0,1.0,2.0,2.0,343.6120110000047,3.0,1.0,phase_1,,,,,,,,,,,,,orange,hexagon
0.0,2.0,0.0,0.0,4.0,4.0,324.444676999974,3.0,1.0,phase_1,,,,,,,,,,,,,green,I
1285.0,8.0,4.0,1.0,4.0,4.0,287.387967000086,3.0,1.0,phase_1,,,,,,,,,,,,,blue,cross
186.0,1.0,1.0,0.0,4.0,4.0,339.8261510001248,3.0,1.0,phase_1,,,,,,,,,,,,,gray,triangle
331.0,2.0,2.0,0.0,3.0,3.0,336.5224949998264,3.0,1.0,phase_1,,,,,,,,,,,,,green,I
0.0,8.0,0.0,1.0,4.0,4.0,308.6700260000725,3.0,1.0,phase_1,,,,,,,,,,,,,blue,cross
165.0,5.0,1.0,1.0,1.0,1.0,441.2343470003179,3.0,1.0,phase_1,,,,,,,,,,,,,magenta,flipped triangle
156.0,5.0,1.0,1.0,4.0,4.0,333.8208250002026,3.0,1.0,phase_1,,,,,,,,,,,,,magenta,flipped triangle
634.0,3.0,3.0,0.0,3.0,3.0,420.0052870000945,3.0,1.0,phase_1,,,,,,,,,,,,,cyan,circle
655.0,3.0,3.0,0.0,4.0,4.0,353.9360340000712,3.0,1.0,phase_1,,,,,,,,,,,,,cyan,circle
0.0,5.0,0.0,1.0,3.0,3.0,494.0076959996986,3.0,1.0,phase_1,,,,,,,,,,,,,magenta,flipped triangle
321.0,2.0,2.0,0.0,2.0,2.0,472.0984760001556,3.0,1.0,phase_1,,,,,,,,,,,,,green,I
316.0,2.0,2.0,0.0,3.0,3.0,784.532820000095,3.0,1.0,phase_1,,,,,,,,,,,,,green,I
672.0,3.0,3.0,0.0,2.0,2.0,475.3100929997345,3.0,1.0,phase_1,,,,,,,,,,,,,cyan,circle
1297.0,8.0,4.0,1.0,1.0,1.0,449.4972859997688,3.0,1.0,phase_1,,,,,,,,,,,,,blue,cross
669.0,3.0,3.0,0.0,4.0,4.0,323.7425639999856,3.0,1.0,phase_1,,,,,,,,,,,,,cyan,circle
1304.0,4.0,4.0,0.0,1.0,1.0,360.4875450000691,3.0,1.0,phase_1,,,,,,,,,,,,,white,square
300.0,2.0,2.0,0.0,1.0,1.0,324.7262509999018,3.0,1.0,phase_1,,,,,,,,,,,,,green,I
0.0,4.0,0.0,0.0,1.0,1.0,586.6490989997146,3.0,1.0,phase_1,,,,,,,,,,,,,white,square
325.0,2.0,2.0,0.0,4.0,4.0,476.9742919997952,4.0,1.0,phase_1,,,,,,,,,,,,,green,I
0.0,3.0,0.0,0.0,4.0,4.0,340.1018540002951,4.0,1.0,phase_1,,,,,,,,,,,,,cyan,circle
1304.0,8.0,4.0,1.0,2.0,2.0,358.3209749999696,4.0,1.0,phase_1,,,,,,,,,,,,,blue,cross
656.0,7.0,3.0,1.0,2.0,2.0,419.6042670000679,4.0,1.0,phase_1,,,,,,,,,,,,,orange,hexagon
142.0,5.0,1.0,1.0,4.0,4.0,342.9913729996769,4.0,1.0,phase_1,,,,,,,,,,,,,magenta,flipped triangle
0.0,5.0,0.0,1.0,3.0,3.0,404.8364580003181,4.0,1.0,phase_1,,,,,,,,,,,,,magenta,flipped triangle
628.0,3.0,3.0,0.0,4.0,4.0,375.9157070003311,4.0,1.0,phase_1,,,,,,,,,,,,,cyan,circle
0.0,3.0,0.0,0.0,4.0,4.0,334.0697899998304,4.0,1.0,phase_1,,,,,,,,,,,,,cyan,circle
652.0,3.0,3.0,0.0,1.0,1.0,441.6783950000535,4.0,1.0,phase_1,,,,,,,,,,,,,cyan,circle
179.0,5.0,1.0,1.0,3.0,3.0,392.658750999999,4.0,1.0,phase_1,,,,,,,,,,,,,magenta,flipped triangle
312.0,6.0,2.0,1.0,1.0,1.0,555.0945099998899,4.0,1.0,phase_1,,,,,,,,,,,,,yellow,diamond
323.0,6.0,2.0,1.0,2.0,2.0,382.8851339999346,4.0,1.0,phase_1,,,,,,,,,,,,,yellow,diamond
1301.0,8.0,4.0,1.0,2.0,2.0,348.3474280001246,4.0,1.0,phase_1,,,,,,,,,,,,,blue,cross
156.0,1.0,1.0,0.0,4.0,4.0,355.4659950000314,4.0,1.0,phase_1,,,,,,,,,,,,,gray,triangle
161.0,5.0,1.0,1.0,3.0,3.0,250.42262800025128,4.0,2.0,phase_1,,,,,,,,,,,,,magenta,flipped triangle
669.0,3.0,3.0,0.0,1.0,1.0,456.800867000311,4.0,1.0,phase_1,,,,,,,,,,,,,cyan,circle
302.0,6.0,2.0,1.0,3.0,3.0,314.9449210000057,4.0,1.0,phase_1,,,,,,,,,,,,,yellow,diamond
161.0,5.0,1.0,1.0,4.0,4.0,330.6716880001659,4.0,1.0,phase_1,,,,,,,,,,,,,magenta,flipped triangle
185.0,1.0,1.0,0.0,2.0,2.0,589.7444369998084,4.0,1.0,phase_1,,,,,,,,,,,,,gray,triangle
181.0,5.0,1.0,1.0,1.0,1.0,410.7488569998168,4.0,1.0,phase_1,,,,,,,,,,,,,magenta,flipped triangle
0.0,2.0,0.0,0.0,1.0,1.0,373.7006460000884,4.0,1.0,phase_1,,,,,,,,,,,,,green,I
1306.0,4.0,4.0,0.0,3.0,3.0,441.8218659998274,4.0,1.0,phase_1,,,,,,,,,,,,,white,square
0.0,4.0,0.0,0.0,2.0,2.0,703.6986949997299,4.0,1.0,phase_1,,,,,,,,,,,,,white,square
1297.0,8.0,4.0,1.0,4.0,4.0,371.0894529999677,4.0,1.0,phase_1,,,,,,,,,,,,,blue,cross
176.0,5.0,1.0,1.0,2.0,2.0,575.0970020003479,4.0,1.0,phase_1,,,,,,,,,,,,,magenta,flipped triangle
1291.0,8.0,4.0,1.0,3.0,3.0,346.8299099999967,4.0,2.0,phase_1,,,,,,,,,,,,,blue,cross
1305.0,4.0,4.0,0.0,2.0,2.0,696.1041439999462,4.0,1.0,phase_1,,,,,,,,,,,,,white,square
669.0,7.0,3.0,1.0,2.0,2.0,450.4418660003466,4.0,1.0,phase_1,,,,,,,,,,,,,orange,hexagon
176.0,1.0,1.0,0.0,4.0,4.0,408.564994000244,4.0,1.0,phase_1,,,,,,,,,,,,,gray,triangle
1279.0,4.0,4.0,0.0,2.0,2.0,515.2803689998109,4.0,1.0,phase_1,,,,,,,,,,,,,white,square
146.0,1.0,1.0,0.0,1.0,1.0,390.0134410000646,4.0,2.0,phase_1,,,,,,,,,,,,,gray,triangle
321.0,2.0,2.0,0.0,2.0,2.0,370.1893379998182,4.0,1.0,phase_1,,,,,,,,,,,,,green,I
1298.0,4.0,4.0,0.0,3.0,3.0,352.6750639998681,4.0,1.0,phase_1,,,,,,,,,,,,,white,square
307.0,6.0,2.0,1.0,4.0,4.0,379.6189770000637,4.0,1.0,phase_1,,,,,,,,,,,,,yellow,diamond
650.0,7.0,3.0,1.0,2.0,2.0,512.2231740001553,4.0,1.0,phase_1,,,,,,,,,,,,,orange,hexagon
1317.0,4.0,4.0,0.0,2.0,2.0,428.2660839999153,4.0,1.0,phase_1,,,,,,,,,,,,,white,square
0.0,1.0,0.0,0.0,1.0,1.0,768.2818359999146,4.0,1.0,phase_1,,,,,,,,,,,,,gray,triangle
324.0,2.0,2.0,0.0,3.0,3.0,500.68799500013483,4.0,1.0,phase_1,,,,,,,,,,,,,green,I
139.0,1.0,1.0,0.0,1.0,1.0,466.3765740001508,4.0,1.0,phase_1,,,,,,,,,,,,,gray,triangle
328.0,6.0,2.0,1.0,3.0,3.0,377.1963300000607,4.0,1.0,phase_1,,,,,,,,,,,,,yellow,diamond
171.0,5.0,1.0,1.0,4.0,4.0,265.9525970002505,4.0,2.0,phase_1,,,,,,,,,,,,,magenta,flipped triangle
309.0,2.0,2.0,0.0,2.0,2.0,414.4395669995901,4.0,1.0,phase_1,,,,,,,,,,,,,green,I
1280.0,4.0,4.0,0.0,3.0,3.0,386.3150040001528,4.0,1.0,phase_1,,,,,,,,,,,,,white,square
638.0,7.0,3.0,1.0,4.0,4.0,383.7308060001305,4.0,1.0,phase_1,,,,,,,,,,,,,orange,hexagon
650.0,3.0,3.0,0.0,4.0,4.0,601.2672709998697,4.0,1.0,phase_1,,,,,,,,,,,,,cyan,circle
629.0,3.0,3.0,0.0,3.0,3.0,352.5705520000883,4.0,1.0,phase_1,,,,,,,,,,,,,cyan,circle
331.0,2.0,2.0,0.0,4.0,4.0,293.1952290000481,4.0,1.0,phase_1,,,,,,,,,,,,,green,I
1279.0,8.0,4.0,1.0,3.0,3.0,337.738618000003,4.0,1.0,phase_1,,,,,,,,,,,,,blue,cross
0.0,4.0,0.0,0.0,3.0,3.0,283.7866599998051,4.0,1.0,phase_1,,,,,,,,,,,,,white,square
309.0,6.0,2.0,1.0,4.0,4.0,305.7752760000767,4.0,1.0,phase_1,,,,,,,,,,,,,yellow,diamond
651.0,7.0,3.0,1.0,2.0,2.0,349.4273580004119,4.0,1.0,phase_1,,,,,,,,,,,,,orange,hexagon
0.0,3.0,0.0,0.0,1.0,1.0,396.3596110002072,4.0,1.0,phase_1,,,,,,,,,,,,,cyan,circle
184.0,5.0,1.0,1.0,3.0,3.0,432.8391210001427,4.0,1.0,phase_1,,,,,,,,,,,,,magenta,flipped triangle
180.0,5.0,1.0,1.0,2.0,2.0,447.9758499996933,4.0,2.0,phase_1,,,,,,,,,,,,,magenta,flipped triangle
349.0,6.0,2.0,1.0,1.0,1.0,404.3058830002337,4.0,1.0,phase_1,,,,,,,,,,,,,yellow,diamond
148.0,5.0,1.0,1.0,4.0,4.0,370.4594179998821,4.0,1.0,phase_1,,,,,,,,,,,,,magenta,flipped triangle
314.0,6.0,2.0,1.0,3.0,3.0,424.0495270000792,4.0,1.0,phase_1,,,,,,,,,,,,,yellow,diamond
334.0,6.0,2.0,1.0,1.0,1.0,355.4962860002888,4.0,1.0,phase_1,,,,,,,,,,,,,yellow,diamond
1282.0,8.0,4.0,1.0,4.0,4.0,342.7478969997537,4.0,1.0,phase_1,,,,,,,,,,,,,blue,cross
0.0,6.0,0.0,1.0,2.0,2.0,389.85342199976,4.0,1.0,phase_1,,,,,,,,,,,,,yellow,diamond
1315.0,4.0,4.0,0.0,4.0,4.0,361.4771839997956,4.0,1.0,phase_1,,,,,,,,,,,,,white,square
1278.0,8.0,4.0,1.0,4.0,4.0,358.8992899999539,4.0,1.0,phase_1,,,,,,,,,,,,,blue,cross
184.0,1.0,1.0,0.0,2.0,2.0,395.8284730001651,4.0,1.0,phase_1,,,,,,,,,,,,,gray,triangle
176.0,5.0,1.0,1.0,2.0,2.0,374.2454439998255,4.0,1.0,phase_1,,,,,,,,,,,,,magenta,flipped triangle
316.0,6.0,2.0,1.0,4.0,4.0,314.5874080000794,4.0,1.0,phase_1,,,,,,,,,,,,,yellow,diamond
1284.0,4.0,4.0,0.0,1.0,1.0,417.3006360001636,4.0,1.0,phase_1,,,,,,,,,,,,,white,square
149.0,5.0,1.0,1.0,3.0,3.0,209.7750359998826,4.0,2.0,phase_1,,,,,,,,,,,,,magenta,flipped triangle
339.0,2.0,2.0,0.0,4.0,4.0,381.3253039998017,4.0,1.0,phase_1,,,,,,,,,,,,,green,I
634.0,3.0,3.0,0.0,1.0,1.0,410.3172909999557,4.0,1.0,phase_1,,,,,,,,,,,,,cyan,circle
153.0,5.0,1.0,1.0,1.0,1.0,382.2108530002879,4.0,1.0,phase_1,,,,,,,,,,,,,magenta,flipped triangle
331.0,6.0,2.0,1.0,1.0,1.0,466.6216840000743,4.0,1.0,phase_1,,,,,,,,,,,,,yellow,diamond
301.0,6.0,2.0,1.0,4.0,4.0,407.7407740001035,4.0,1.0,phase_1,,,,,,,,,,,,,yellow,diamond
653.0,7.0,3.0,1.0,4.0,4.0,558.861337000053,4.0,1.0,phase_1,,,,,,,,,,,,,orange,hexagon
1288.0,4.0,4.0,0.0,1.0,1.0,475.2478129998962,4.0,1.0,phase_1,,,,,,,,,,,,,white,square
0.0,7.0,0.0,1.0,2.0,2.0,608.2745959997737,4.0,1.0,phase_1,,,,,,,,,,,,,orange,hexagon
324.0,6.0,2.0,1.0,2.0,2.0,404.9631230000159,4.0,1.0,phase_1,,,,,,,,,,,,,yellow,diamond
328.0,2.0,2.0,0.0,1.0,1.0,163.34627000014729,4.0,2.0,phase_1,,,,,,,,,,,,,green,I
0.0,4.0,0.0,0.0,2.0,2.0,351.8823160002284,4.0,1.0,phase_1,,,,,,,,,,,,,white,square
314.0,2.0,2.0,0.0,2.0,2.0,340.64938599976807,4.0,1.0,phase_1,,,,,,,,,,,,,green,I
0.0,7.0,0.0,1.0,2.0,2.0,345.3969259999212,4.0,1.0,phase_1,,,,,,,,,,,,,orange,hexagon
304.0,6.0,2.0,1.0,1.0,1.0,342.3502810001082,4.0,1.0,phase_1,,,,,,,,,,,,,yellow,diamond
300.0,6.0,2.0,1.0,4.0,4.0,380.2726320000147,4.0,1.0,phase_1,,,,,,,,,,,,,yellow,diamond
334.0,2.0,2.0,0.0,1.0,1.0,407.6389689998905,4.0,1.0,phase_1,,,,,,,,,,,,,green,I
0.0,8.0,0.0,1.0,1.0,1.0,453.4406530001433,4.0,1.0,phase_1,,,,,,,,,,,,,blue,cross
634.0,7.0,3.0,1.0,4.0,4.0,617.8904690000309,4.0,1.0,phase_1,,,,,,,,,,,,,orange,hexagon
0.0,4.0,0.0,0.0,2.0,2.0,374.453535000157,4.0,1.0,phase_1,,,,,,,,,,,,,white,square
653.0,3.0,3.0,0.0,4.0,4.0,363.9728589996593,4.0,1.0,phase_1,,,,,,,,,,,,,cyan,circle
1284.0,8.0,4.0,1.0,2.0,2.0,409.086983999714,4.0,1.0,phase_1,,,,,,,,,,,,,blue,cross
0.0,3.0,0.0,0.0,4.0,4.0,365.3790500002287,4.0,1.0,phase_1,,,,,,,,,,,,,cyan,circle
148.0,1.0,1.0,0.0,3.0,3.0,447.8609610000603,4.0,1.0,phase_1,,,,,,,,,,,,,gray,triangle
1314.0,4.0,4.0,0.0,1.0,1.0,340.21513100015,4.0,1.0,phase_1,,,,,,,,,,,,,white,square
337.0,2.0,2.0,0.0,1.0,1.0,410.9131010000055,4.0,1.0,phase_1,,,,,,,,,,,,,green,I
0.0,3.0,0.0,0.0,1.0,1.0,407.6775129997259,4.0,1.0,phase_1,,,,,,,,,,,,,cyan,circle
307.0,2.0,2.0,0.0,3.0,3.0,303.1083289997696,4.0,2.0,phase_1,,,,,,,,,,,,,green,I
146.0,5.0,1.0,1.0,1.0,1.0,330.9105029998136,4.0,1.0,phase_1,,,,,,,,,,,,,magenta,flipped triangle
1305.0,8.0,4.0,1.0,4.0,4.0,377.5850670003819,4.0,1.0,phase_1,,,,,,,,,,,,,blue,cross
0.0,3.0,0.0,0.0,2.0,2.0,502.3150790002546,4.0,1.0,phase_1,,,,,,,,,,,,,cyan,circle
640.0,3.0,3.0,0.0,2.0,2.0,368.075595999926,4.0,1.0,phase_1,,,,,,,,,,,,,cyan,circle
337.0,2.0,2.0,0.0,4.0,4.0,358.5648010002842,4.0,1.0,phase_1,,,,,,,,,,,,,green,I
152.0,1.0,1.0,0.0,2.0,2.0,515.6254450002962,4.0,1.0,phase_1,,,,,,,,,,,,,gray,triangle
0.0,4.0,4.0,0.0,6.0,6.0,636.3838659999601,1.0,1.0,phase_2,go,250.0,250.0,1.0,,,,,,,,,white,square
0.0,4.0,4.0,0.0,5.0,5.0,517.9690330000994,1.0,1.0,phase_2,go,250.0,250.0,1.0,,,,,,,,,white,square
0.0,2.0,2.0,0.0,6.0,6.0,469.3394519999856,1.0,1.0,phase_2,go,250.0,250.0,1.0,,,,,,,,,green,I
0.0,6.0,2.0,1.0,6.0,0.0,0.0,1.0,1.0,phase_2,stop,250.0,250.0,4.0,,,,,,,,,yellow,diamond
0.0,6.0,2.0,1.0,5.0,0.0,0.0,1.0,1.0,phase_2,stop,250.0,300.0,4.0,,,,,,,,,yellow,diamond
0.0,7.0,3.0,1.0,6.0,0.0,0.0,1.0,1.0,phase_2,stop,300.0,300.0,4.0,,,,,,,,,orange,hexagon
0.0,4.0,4.0,0.0,6.0,6.0,523.0429559996992,1.0,1.0,phase_2,go,300.0,350.0,1.0,,,,,,,,,white,square
0.0,1.0,1.0,0.0,6.0,6.0,551.4952590001485,1.0,1.0,phase_2,go,300.0,350.0,1.0,,,,,,,,,gray,triangle
0.0,6.0,2.0,1.0,5.0,5.0,984.8932559998502,1.0,1.0,phase_2,go,300.0,350.0,1.0,,,,,,,,,yellow,diamond
0.0,4.0,4.0,0.0,6.0,6.0,454.4540639999468,1.0,1.0,phase_2,go,300.0,350.0,1.0,,,,,,,,,white,square
0.0,3.0,3.0,0.0,6.0,6.0,951.8005750001066,1.0,1.0,phase_2,go,300.0,350.0,1.0,,,,,,,,,cyan,circle
0.0,5.0,1.0,1.0,6.0,6.0,370.6406050000623,1.0,1.0,phase_2,stop,300.0,350.0,3.0,,,,,,,,,magenta,flipped triangle
0.0,8.0,4.0,1.0,5.0,0.0,0.0,1.0,1.0,phase_2,stop,300.0,300.0,4.0,,,,,,,,,blue,cross
0.0,5.0,1.0,1.0,5.0,5.0,787.4207929999102,1.0,1.0,phase_2,go,350.0,300.0,1.0,,,,,,,,,magenta,flipped triangle
0.0,5.0,1.0,1.0,5.0,5.0,467.9331480001565,1.0,1.0,phase_2,stop,350.0,300.0,3.0,,,,,,,,,magenta,flipped triangle
0.0,4.0,4.0,0.0,6.0,6.0,780.8286439999392,1.0,1.0,phase_2,go,300.0,300.0,1.0,,,,,,,,,white,square
0.0,6.0,2.0,1.0,5.0,0.0,0.0,1.0,1.0,phase_2,stop,300.0,300.0,4.0,,,,,,,,,yellow,diamond
0.0,5.0,1.0,1.0,5.0,0.0,0.0,1.0,1.0,phase_2,stop,350.0,300.0,4.0,,,,,,,,,magenta,flipped triangle
0.0,6.0,2.0,1.0,5.0,5.0,539.5065669999894,1.0,1.0,phase_2,go,400.0,300.0,1.0,,,,,,,,,yellow,diamond
0.0,1.0,1.0,0.0,6.0,6.0,800.6519010000375,1.0,1.0,phase_2,go,400.0,300.0,1.0,,,,,,,,,gray,triangle
0.0,4.0,4.0,0.0,6.0,6.0,822.5328279995665,1.0,1.0,phase_2,go,400.0,300.0,1.0,,,,,,,,,white,square
0.0,3.0,3.0,0.0,6.0,6.0,816.3385670000025,1.0,1.0,phase_2,go,400.0,300.0,1.0,,,,,,,,,cyan,circle
0.0,4.0,4.0,0.0,5.0,5.0,646.2040310002521,1.0,1.0,phase_2,go,400.0,300.0,1.0,,,,,,,,,white,square
0.0,5.0,1.0,1.0,5.0,0.0,0.0,1.0,1.0,phase_2,stop,400.0,300.0,4.0,,,,,,,,,magenta,flipped triangle
0.0,7.0,3.0,1.0,6.0,6.0,759.0977800000474,1.0,1.0,phase_2,go,450.0,300.0,1.0,,,,,,,,,orange,hexagon
0.0,4.0,4.0,0.0,5.0,5.0,901.3307420000274,1.0,1.0,phase_2,go,450.0,300.0,1.0,,,,,,,,,white,square
0.0,5.0,1.0,1.0,6.0,0.0,0.0,1.0,1.0,phase_2,stop,450.0,300.0,4.0,,,,,,,,,magenta,flipped triangle
0.0,8.0,4.0,1.0,6.0,0.0,0.0,1.0,1.0,phase_2,stop,450.0,350.0,4.0,,,,,,,,,blue,cross
0.0,8.0,4.0,1.0,6.0,6.0,691.0411529997873,1.0,1.0,phase_2,go,450.0,400.0,1.0,,,,,,,,,blue,cross
0.0,7.0,3.0,1.0,5.0,0.0,0.0,1.0,1.0,phase_2,stop,450.0,400.0,4.0,,,,,,,,,orange,hexagon
0.0,6.0,2.0,1.0,5.0,5.0,632.7865240000392,1.0,1.0,phase_2,stop,500.0,400.0,3.0,,,,,,,,,yellow,diamond
0.0,3.0,3.0,0.0,6.0,6.0,785.746994999954,1.0,1.0,phase_2,go,450.0,400.0,1.0,,,,,,,,,cyan,circle
0.0,5.0,1.0,1.0,6.0,0.0,0.0,1.0,1.0,phase_2,stop,450.0,400.0,4.0,,,,,,,,,magenta,flipped triangle
0.0,5.0,1.0,1.0,5.0,0.0,0.0,1.0,1.0,phase_2,stop,450.0,450.0,4.0,,,,,,,,,magenta,flipped triangle
0.0,2.0,2.0,0.0,6.0,6.0,656.0167220000039,1.0,1.0,phase_2,go,500.0,450.0,1.0,,,,,,,,,green,I
0.0,6.0,2.0,1.0,5.0,0.0,0.0,1.0,1.0,phase_2,stop,500.0,450.0,4.0,,,,,,,,,yellow,diamond
0.0,4.0,4.0,0.0,5.0,5.0,504.33242600001904,2.0,1.0,phase_2,go,550.0,450.0,1.0,,,,,,,,,white,square
0.0,2.0,2.0,0.0,6.0,6.0,352.2492809997857,2.0,1.0,phase_2,go,550.0,450.0,1.0,,,,,,,,,green,I
0.0,3.0,3.0,0.0,6.0,6.0,286.5011019998746,2.0,1.0,phase_2,go,550.0,450.0,1.0,,,,,,,,,cyan,circle
0.0,8.0,4.0,1.0,6.0,0.0,0.0,2.0,1.0,phase_2,stop,550.0,450.0,4.0,,,,,,,,,blue,cross
0.0,4.0,4.0,0.0,6.0,6.0,669.9555740001415,2.0,1.0,phase_2,go,550.0,500.0,1.0,,,,,,,,,white,square
0.0,5.0,1.0,1.0,5.0,5.0,582.7817519998462,2.0,1.0,phase_2,stop,550.0,500.0,3.0,,,,,,,,,magenta,flipped triangle
0.0,5.0,1.0,1.0,6.0,0.0,0.0,2.0,1.0,phase_2,stop,500.0,500.0,4.0,,,,,,,,,magenta,flipped triangle
0.0,4.0,4.0,0.0,6.0,6.0,523.8367509996351,2.0,1.0,phase_2,go,500.0,550.0,1.0,,,,,,,,,white,square
0.0,5.0,1.0,1.0,5.0,5.0,613.2222669998555,2.0,1.0,phase_2,stop,500.0,550.0,3.0,,,,,,,,,magenta,flipped triangle
0.0,6.0,2.0,1.0,6.0,6.0,722.927945000265,2.0,1.0,phase_2,stop,450.0,550.0,3.0,,,,,,,,,yellow,diamond
0.0,5.0,1.0,1.0,6.0,6.0,676.2232080000103,2.0,1.0,phase_2,go,450.0,500.0,1.0,,,,,,,,,magenta,flipped triangle
0.0,8.0,4.0,1.0,6.0,0.0,0.0,2.0,1.0,phase_2,stop,450.0,500.0,4.0,,,,,,,,,blue,cross
0.0,1.0,1.0,0.0,5.0,5.0,850.2100529999552,2.0,1.0,phase_2,go,450.0,550.0,1.0,,,,,,,,,gray,triangle
0.0,7.0,3.0,1.0,6.0,6.0,519.8971669997263,2.0,1.0,phase_2,stop,450.0,550.0,3.0,,,,,,,,,orange,hexagon
0.0,6.0,2.0,1.0,5.0,0.0,0.0,2.0,1.0,phase_2,stop,450.0,500.0,4.0,,,,,,,,,yellow,diamond
0.0,1.0,1.0,0.0,6.0,6.0,712.2192410001844,2.0,1.0,phase_2,go,500.0,500.0,1.0,,,,,,,,,gray,triangle
0.0,4.0,4.0,0.0,6.0,6.0,671.1851740001293,2.0,1.0,phase_2,go,500.0,500.0,1.0,,,,,,,,,white,square
0.0,8.0,4.0,1.0,6.0,6.0,589.7533160000421,2.0,1.0,phase_2,go,500.0,500.0,1.0,,,,,,,,,blue,cross
0.0,8.0,4.0,1.0,6.0,6.0,365.7090900001094,2.0,1.0,phase_2,stop,500.0,500.0,3.0,,,,,,,,,blue,cross
0.0,1.0,1.0,0.0,5.0,5.0,453.044041999874,2.0,1.0,phase_2,go,500.0,450.0,1.0,,,,,,,,,gray,triangle
0.0,2.0,2.0,0.0,5.0,5.0,428.747831000237,2.0,1.0,phase_2,go,500.0,450.0,1.0,,,,,,,,,green,I
0.0,1.0,1.0,0.0,6.0,6.0,506.58149199989566,2.0,1.0,phase_2,go,500.0,450.0,1.0,,,,,,,,,gray,triangle
0.0,2.0,2.0,0.0,6.0,6.0,538.7339859998974,2.0,1.0,phase_2,go,500.0,450.0,1.0,,,,,,,,,green,I
0.0,2.0,2.0,0.0,6.0,6.0,476.6469020000841,2.0,1.0,phase_2,go,500.0,450.0,1.0,,,,,,,,,green,I
0.0,7.0,3.0,1.0,5.0,5.0,378.8997749998088,2.0,1.0,phase_2,go,500.0,450.0,1.0,,,,,,,,,orange,hexagon
0.0,3.0,3.0,0.0,6.0,6.0,737.006627000028,2.0,1.0,phase_2,go,500.0,450.0,1.0,,,,,,,,,cyan,circle
0.0,8.0,4.0,1.0,5.0,5.0,377.793892000227,2.0,1.0,phase_2,stop,500.0,450.0,3.0,,,,,,,,,blue,cross
0.0,2.0,2.0,0.0,6.0,6.0,713.4645269998146,2.0,1.0,phase_2,go,450.0,450.0,1.0,,,,,,,,,green,I
0.0,7.0,3.0,1.0,5.0,0.0,0.0,2.0,1.0,phase_2,stop,450.0,450.0,4.0,,,,,,,,,orange,hexagon
0.0,2.0,2.0,0.0,5.0,5.0,680.1920610000707,2.0,1.0,phase_2,go,500.0,450.0,1.0,,,,,,,,,green,I
0.0,1.0,1.0,0.0,5.0,5.0,557.8773750003165,2.0,1.0,phase_2,go,500.0,450.0,1.0,,,,,,,,,gray,triangle
0.0,5.0,1.0,1.0,5.0,5.0,566.8247270000393,2.0,1.0,phase_2,stop,500.0,450.0,3.0,,,,,,,,,magenta,flipped triangle
0.0,8.0,4.0,1.0,5.0,5.0,1052.7497619996211,2.0,1.0,phase_2,go,450.0,450.0,1.0,,,,,,,,,blue,cross
0.0,7.0,3.0,1.0,5.0,0.0,0.0,2.0,1.0,phase_2,stop,450.0,450.0,4.0,,,,,,,,,orange,hexagon
0.0,2.0,2.0,0.0,5.0,5.0,874.7921230001339,2.0,1.0,phase_2,go,500.0,450.0,1.0,,,,,,,,,green,I
0.0,3.0,3.0,0.0,6.0,6.0,474.8605419999876,2.0,1.0,phase_2,go,500.0,450.0,1.0,,,,,,,,,cyan,circle
0.0,5.0,1.0,1.0,6.0,0.0,0.0,3.0,1.0,phase_2,stop,500.0,450.0,4.0,,,,,,,,,magenta,flipped triangle
0.0,1.0,1.0,0.0,6.0,6.0,662.7066940000077,3.0,1.0,phase_2,go,500.0,500.0,1.0,,,,,,,,,gray,triangle
0.0,4.0,4.0,0.0,5.0,5.0,398.5793880001438,3.0,1.0,phase_2,go,500.0,500.0,1.0,,,,,,,,,white,square
0.0,5.0,1.0,1.0,6.0,6.0,469.6115500000815,3.0,1.0,phase_2,go,500.0,500.0,1.0,,,,,,,,,magenta,flipped triangle
0.0,1.0,1.0,0.0,6.0,6.0,670.9327929997926,3.0,1.0,phase_2,go,500.0,500.0,1.0,,,,,,,,,gray,triangle
0.0,2.0,2.0,0.0,6.0,6.0,340.8242569998947,3.0,1.0,phase_2,go,500.0,500.0,1.0,,,,,,,,,green,I
0.0,2.0,2.0,0.0,6.0,6.0,795.4009099998984,3.0,1.0,phase_2,go,500.0,500.0,1.0,,,,,,,,,green,I
0.0,1.0,1.0,0.0,5.0,5.0,324.1033700001026,3.0,1.0,phase_2,go,500.0,500.0,1.0,,,,,,,,,gray,triangle
0.0,7.0,3.0,1.0,5.0,5.0,519.5202320001044,3.0,1.0,phase_2,stop,500.0,500.0,3.0,,,,,,,,,orange,hexagon
0.0,6.0,2.0,1.0,6.0,6.0,634.1730060003101,3.0,1.0,phase_2,stop,450.0,500.0,3.0,,,,,,,,,yellow,diamond
0.0,2.0,2.0,0.0,5.0,5.0,761.9160510002985,3.0,1.0,phase_2,go,450.0,450.0,1.0,,,,,,,,,green,I
0.0,7.0,3.0,1.0,5.0,5.0,280.7914640002309,3.0,1.0,phase_2,stop,450.0,450.0,3.0,,,,,,,,,orange,hexagon
0.0,3.0,3.0,0.0,5.0,5.0,962.4526570000852,3.0,1.0,phase_2,go,400.0,450.0,1.0,,,,,,,,,cyan,circle
0.0,8.0,4.0,1.0,6.0,6.0,537.103677000232,3.0,1.0,phase_2,go,400.0,450.0,1.0,,,,,,,,,blue,cross
0.0,2.0,2.0,0.0,6.0,6.0,734.9418950002473,3.0,1.0,phase_2,go,400.0,450.0,1.0,,,,,,,,,green,I
0.0,5.0,1.0,1.0,6.0,6.0,806.319686000279,3.0,1.0,phase_2,go,400.0,450.0,1.0,,,,,,,,,magenta,flipped triangle
0.0,8.0,4.0,1.0,6.0,6.0,397.7666939999835,3.0,1.0,phase_2,stop,400.0,450.0,3.0,,,,,,,,,blue,cross
0.0,3.0,3.0,0.0,5.0,5.0,501.0271700002704,3.0,1.0,phase_2,go,400.0,400.0,1.0,,,,,,,,,cyan,circle
0.0,1.0,1.0,0.0,6.0,6.0,502.27698099979534,3.0,1.0,phase_2,go,400.0,400.0,1.0,,,,,,,,,gray,triangle
0.0,8.0,4.0,1.0,6.0,6.0,435.6405039998208,3.0,1.0,phase_2,go,400.0,400.0,1.0,,,,,,,,,blue,cross
0.0,8.0,4.0,1.0,5.0,5.0,349.9634350000633,3.0,1.0,phase_2,stop,400.0,400.0,3.0,,,,,,,,,blue,cross
0.0,5.0,1.0,1.0,5.0,0.0,0.0,3.0,1.0,phase_2,stop,350.0,400.0,4.0,,,,,,,,,magenta,flipped triangle
0.0,5.0,1.0,1.0,5.0,5.0,667.8103300000657,3.0,1.0,phase_2,go,400.0,400.0,1.0,,,,,,,,,magenta,flipped triangle
0.0,3.0,3.0,0.0,5.0,5.0,601.2465939998037,3.0,1.0,phase_2,go,400.0,400.0,1.0,,,,,,,,,cyan,circle
0.0,6.0,2.0,1.0,5.0,0.0,0.0,3.0,1.0,phase_2,stop,400.0,400.0,4.0,,,,,,,,,yellow,diamond
0.0,8.0,4.0,1.0,5.0,6.0,344.2013939998105,3.0,1.0,phase_2,go,450.0,400.0,2.0,,,,,,,,,blue,cross
0.0,1.0,1.0,0.0,6.0,6.0,359.867529999974,3.0,1.0,phase_2,go,450.0,400.0,1.0,,,,,,,,,gray,triangle
0.0,2.0,2.0,0.0,5.0,5.0,640.9801400000106,3.0,1.0,phase_2,go,450.0,400.0,1.0,,,,,,,,,green,I
0.0,5.0,1.0,1.0,5.0,5.0,358.4475650000058,3.0,1.0,phase_2,go,450.0,400.0,1.0,,,,,,,,,magenta,flipped triangle
0.0,4.0,4.0,0.0,5.0,5.0,463.9360900000611,3.0,1.0,phase_2,go,450.0,400.0,1.0,,,,,,,,,white,square
0.0,7.0,3.0,1.0,6.0,6.0,525.607515000047,3.0,1.0,phase_2,stop,450.0,400.0,3.0,,,,,,,,,orange,hexagon
0.0,6.0,2.0,1.0,5.0,5.0,574.5250210002268,3.0,1.0,phase_2,stop,450.0,350.0,3.0,,,,,,,,,yellow,diamond
0.0,8.0,4.0,1.0,5.0,5.0,550.9100909998779,3.0,1.0,phase_2,stop,400.0,350.0,3.0,,,,,,,,,blue,cross
0.0,3.0,3.0,0.0,5.0,5.0,539.6731079999881,3.0,1.0,phase_2,go,350.0,350.0,1.0,,,,,,,,,cyan,circle
0.0,7.0,3.0,1.0,5.0,5.0,394.2209599999842,3.0,1.0,phase_2,go,350.0,350.0,1.0,,,,,,,,,orange,hexagon
0.0,3.0,3.0,0.0,5.0,5.0,404.6526380002433,3.0,1.0,phase_2,go,350.0,350.0,1.0,,,,,,,,,cyan,circle
0.0,8.0,4.0,1.0,6.0,6.0,850.9382160000314,4.0,1.0,phase_2,stop,350.0,350.0,3.0,,,,,,,,,blue,cross
0.0,3.0,3.0,0.0,6.0,6.0,492.1250870002041,4.0,1.0,phase_2,go,350.0,300.0,1.0,,,,,,,,,cyan,circle
0.0,3.0,3.0,0.0,5.0,5.0,563.6636289996204,4.0,1.0,phase_2,go,350.0,300.0,1.0,,,,,,,,,cyan,circle
0.0,8.0,4.0,1.0,6.0,6.0,459.469586999603,4.0,1.0,phase_2,go,350.0,300.0,1.0,,,,,,,,,blue,cross
0.0,3.0,3.0,0.0,5.0,5.0,520.446525999887,4.0,1.0,phase_2,go,350.0,300.0,1.0,,,,,,,,,cyan,circle
0.0,2.0,2.0,0.0,6.0,6.0,344.2405579999104,4.0,1.0,phase_2,go,350.0,300.0,1.0,,,,,,,,,green,I
0.0,7.0,3.0,1.0,6.0,6.0,382.2450050001862,4.0,1.0,phase_2,stop,350.0,300.0,3.0,,,,,,,,,orange,hexagon
0.0,5.0,1.0,1.0,5.0,5.0,430.079828000089,4.0,1.0,phase_2,stop,350.0,250.0,3.0,,,,,,,,,magenta,flipped triangle
0.0,3.0,3.0,0.0,6.0,6.0,589.3923700000414,4.0,1.0,phase_2,go,300.0,250.0,1.0,,,,,,,,,cyan,circle
0.0,3.0,3.0,0.0,5.0,5.0,574.3771970001035,4.0,1.0,phase_2,go,300.0,250.0,1.0,,,,,,,,,cyan,circle
0.0,3.0,3.0,0.0,5.0,5.0,374.7683320002579,4.0,1.0,phase_2,go,300.0,250.0,1.0,,,,,,,,,cyan,circle
0.0,1.0,1.0,0.0,5.0,5.0,387.1508980000726,4.0,1.0,phase_2,go,300.0,250.0,1.0,,,,,,,,,gray,triangle
0.0,4.0,4.0,0.0,6.0,6.0,381.623664000017,4.0,1.0,phase_2,go,300.0,250.0,1.0,,,,,,,,,white,square
0.0,2.0,2.0,0.0,6.0,6.0,626.8612219996612,4.0,1.0,phase_2,go,300.0,250.0,1.0,,,,,,,,,green,I
0.0,2.0,2.0,0.0,5.0,5.0,372.142993000125,4.0,1.0,phase_2,go,300.0,250.0,1.0,,,,,,,,,green,I
0.0,3.0,3.0,0.0,5.0,5.0,426.3683469998796,4.0,1.0,phase_2,go,300.0,250.0,1.0,,,,,,,,,cyan,circle
0.0,5.0,1.0,1.0,5.0,0.0,0.0,4.0,1.0,phase_2,stop,300.0,250.0,4.0,,,,,,,,,magenta,flipped triangle
0.0,4.0,4.0,0.0,6.0,6.0,568.1729289999566,4.0,1.0,phase_2,go,350.0,250.0,1.0,,,,,,,,,white,square
0.0,7.0,3.0,1.0,5.0,0.0,0.0,4.0,1.0,phase_2,stop,350.0,250.0,4.0,,,,,,,,,orange,hexagon
0.0,6.0,2.0,1.0,5.0,0.0,0.0,4.0,1.0,phase_2,stop,400.0,250.0,4.0,,,,,,,,,yellow,diamond
0.0,7.0,3.0,1.0,5.0,0.0,0.0,4.0,1.0,phase_2,stop,450.0,250.0,4.0,,,,,,,,,orange,hexagon
0.0,4.0,4.0,0.0,5.0,5.0,750.9261559998777,4.0,1.0,phase_2,go,500.0,250.0,1.0,,,,,,,,,white,square
0.0,4.0,4.0,0.0,6.0,6.0,356.7133609999473,4.0,1.0,phase_2,go,500.0,250.0,1.0,,,,,,,,,white,square
0.0,8.0,4.0,1.0,5.0,5.0,612.4423680003019,4.0,1.0,phase_2,stop,500.0,250.0,3.0,,,,,,,,,blue,cross
0.0,8.0,4.0,1.0,5.0,0.0,0.0,4.0,1.0,phase_2,stop,450.0,250.0,4.0,,,,,,,,,blue,cross
0.0,2.0,2.0,0.0,5.0,5.0,765.8154699997795,4.0,1.0,phase_2,go,500.0,250.0,1.0,,,,,,,,,green,I
0.0,4.0,4.0,0.0,6.0,6.0,356.9450899999538,4.0,1.0,phase_2,go,500.0,250.0,1.0,,,,,,,,,white,square
0.0,3.0,3.0,0.0,6.0,6.0,553.2519429998501,4.0,1.0,phase_2,go,500.0,250.0,1.0,,,,,,,,,cyan,circle
0.0,4.0,4.0,0.0,5.0,5.0,539.2475469998317,4.0,1.0,phase_2,go,500.0,250.0,1.0,,,,,,,,,white,square
0.0,6.0,2.0,1.0,6.0,6.0,537.2145629999068,4.0,1.0,phase_2,go,500.0,250.0,1.0,,,,,,,,,yellow,diamond
0.0,1.0,1.0,0.0,6.0,6.0,521.228021999832,4.0,1.0,phase_2,go,500.0,250.0,1.0,,,,,,,,,gray,triangle
0.0,7.0,3.0,1.0,6.0,6.0,625.5775019999419,4.0,1.0,phase_2,go,500.0,250.0,1.0,,,,,,,,,orange,hexagon
0.0,7.0,3.0,1.0,5.0,5.0,544.2278030000125,4.0,1.0,phase_2,stop,500.0,250.0,3.0,,,,,,,,,orange,hexagon
0.0,2.0,2.0,0.0,6.0,6.0,719.1805570000724,4.0,1.0,phase_2,go,450.0,250.0,1.0,,,,,,,,,green,I
0.0,2.0,2.0,0.0,6.0,6.0,765.3500780002105,4.0,1.0,phase_2,go,450.0,250.0,1.0,,,,,,,,,green,I
0.0,1.0,1.0,0.0,6.0,6.0,677.4334890001228,4.0,1.0,phase_2,go,450.0,250.0,1.0,,,,,,,,,gray,triangle
0.0,5.0,1.0,1.0,6.0,0.0,0.0,5.0,1.0,phase_2,stop,450.0,250.0,4.0,,,,,,,,,magenta,flipped triangle
0.0,8.0,4.0,1.0,5.0,0.0,0.0,5.0,1.0,phase_2,stop,450.0,300.0,4.0,,,,,,,,,blue,cross
0.0,5.0,1.0,1.0,5.0,5.0,622.5345440002457,5.0,1.0,phase_2,stop,500.0,300.0,3.0,,,,,,,,,magenta,flipped triangle
0.0,6.0,2.0,1.0,6.0,6.0,284.1798009999365,5.0,1.0,phase_2,go,450.0,300.0,1.0,,,,,,,,,yellow,diamond
0.0,3.0,3.0,0.0,6.0,6.0,452.9471300002115,5.0,1.0,phase_2,go,450.0,300.0,1.0,,,,,,,,,cyan,circle
0.0,7.0,3.0,1.0,5.0,0.0,0.0,5.0,1.0,phase_2,stop,450.0,300.0,4.0,,,,,,,,,orange,hexagon
0.0,8.0,4.0,1.0,6.0,0.0,0.0,5.0,1.0,phase_2,stop,500.0,300.0,4.0,,,,,,,,,blue,cross
0.0,6.0,2.0,1.0,6.0,6.0,321.9034359999568,5.0,1.0,phase_2,stop,500.0,350.0,3.0,,,,,,,,,yellow,diamond
0.0,1.0,1.0,0.0,6.0,6.0,985.7603989999006,5.0,1.0,phase_2,go,500.0,300.0,1.0,,,,,,,,,gray,triangle
0.0,6.0,2.0,1.0,6.0,0.0,0.0,5.0,1.0,phase_2,stop,500.0,300.0,4.0,,,,,,,,,yellow,diamond
0.0,6.0,2.0,1.0,6.0,0.0,0.0,5.0,1.0,phase_2,stop,500.0,350.0,4.0,,,,,,,,,yellow,diamond
0.0,1.0,1.0,0.0,6.0,6.0,528.0224610000914,5.0,1.0,phase_2,go,500.0,400.0,1.0,,,,,,,,,gray,triangle
0.0,7.0,3.0,1.0,6.0,0.0,0.0,5.0,1.0,phase_2,stop,500.0,400.0,4.0,,,,,,,,,orange,hexagon
0.0,7.0,3.0,1.0,5.0,5.0,607.6770839999881,5.0,1.0,phase_2,stop,500.0,450.0,3.0,,,,,,,,,orange,hexagon
0.0,1.0,1.0,0.0,5.0,5.0,693.3760890001395,5.0,1.0,phase_2,go,450.0,450.0,1.0,,,,,,,,,gray,triangle
0.0,3.0,3.0,0.0,5.0,5.0,747.487340999669,5.0,1.0,phase_2,go,450.0,450.0,1.0,,,,,,,,,cyan,circle
0.0,7.0,3.0,1.0,5.0,0.0,0.0,5.0,1.0,phase_2,stop,450.0,450.0,4.0,,,,,,,,,orange,hexagon
0.0,3.0,3.0,0.0,6.0,6.0,733.5504819998278,5.0,1.0,phase_2,go,500.0,450.0,1.0,,,,,,,,,cyan,circle
0.0,1.0,1.0,0.0,6.0,6.0,842.1035140004278,5.0,1.0,phase_2,go,500.0,450.0,1.0,,,,,,,,,gray,triangle
0.0,4.0,4.0,0.0,6.0,6.0,1289.673718999893,5.0,1.0,phase_2,go,500.0,450.0,1.0,,,,,,,,,white,square
0.0,3.0,3.0,0.0,6.0,6.0,1128.7461839997377,5.0,1.0,phase_2,go,500.0,450.0,1.0,,,,,,,,,cyan,circle
0.0,2.0,2.0,0.0,6.0,6.0,775.772083999982,5.0,1.0,phase_2,go,500.0,450.0,1.0,,,,,,,,,green,I
0.0,4.0,4.0,0.0,5.0,5.0,703.456549999828,5.0,1.0,phase_2,go,500.0,450.0,1.0,,,,,,,,,white,square
0.0,5.0,1.0,1.0,5.0,5.0,664.3627349999406,5.0,1.0,phase_2,stop,500.0,450.0,3.0,,,,,,,,,magenta,flipped triangle
0.0,7.0,3.0,1.0,6.0,0.0,0.0,5.0,1.0,phase_2,stop,450.0,450.0,4.0,,,,,,,,,orange,hexagon
0.0,3.0,3.0,0.0,5.0,5.0,679.3266929998936,5.0,1.0,phase_2,go,450.0,500.0,1.0,,,,,,,,,cyan,circle
0.0,5.0,1.0,1.0,6.0,6.0,524.4138870002644,5.0,1.0,phase_2,go,450.0,500.0,1.0,,,,,,,,,magenta,flipped triangle
0.0,2.0,2.0,0.0,5.0,5.0,499.1676539998479,5.0,1.0,phase_2,go,450.0,500.0,1.0,,,,,,,,,green,I
0.0,3.0,3.0,0.0,5.0,5.0,418.6733550000099,5.0,1.0,phase_2,go,450.0,500.0,1.0,,,,,,,,,cyan,circle
0.0,8.0,4.0,1.0,5.0,5.0,402.9433200003041,5.0,1.0,phase_2,stop,450.0,500.0,3.0,,,,,,,,,blue,cross
0.0,5.0,1.0,1.0,6.0,6.0,580.3114729997105,5.0,1.0,phase_2,stop,400.0,500.0,3.0,,,,,,,,,magenta,flipped triangle
0.0,1.0,1.0,0.0,5.0,5.0,514.0127619997656,5.0,1.0,phase_2,go,400.0,450.0,1.0,,,,,,,,,gray,triangle
0.0,1.0,1.0,0.0,5.0,5.0,675.5439799999294,5.0,1.0,phase_2,go,400.0,450.0,1.0,,,,,,,,,gray,triangle
0.0,2.0,2.0,0.0,5.0,5.0,665.7249770000817,5.0,1.0,phase_2,go,400.0,450.0,1.0,,,,,,,,,green,I
0.0,6.0,2.0,1.0,5.0,5.0,385.320492000119,5.0,1.0,phase_2,stop,400.0,450.0,3.0,,,,,,,,,yellow,diamond
0.0,4.0,4.0,0.0,5.0,5.0,769.4768349997503,5.0,1.0,phase_2,go,350.0,450.0,1.0,,,,,,,,,white,square
0.0,7.0,3.0,1.0,5.0,5.0,561.2316490000921,6.0,1.0,phase_2,stop,350.0,450.0,3.0,,,,,,,,,orange,hexagon
0.0,2.0,2.0,0.0,6.0,6.0,469.7747579998577,6.0,1.0,phase_2,go,300.0,450.0,1.0,,,,,,,,,green,I
0.0,8.0,4.0,1.0,6.0,6.0,485.7562279999001,6.0,1.0,phase_2,go,300.0,450.0,1.0,,,,,,,,,blue,cross
0.0,8.0,4.0,1.0,6.0,6.0,429.9834039998131,6.0,1.0,phase_2,stop,300.0,450.0,3.0,,,,,,,,,blue,cross
0.0,2.0,2.0,0.0,5.0,5.0,580.6996639998943,6.0,1.0,phase_2,go,300.0,400.0,1.0,,,,,,,,,green,I
0.0,7.0,3.0,1.0,6.0,6.0,779.4493639999018,6.0,1.0,phase_2,go,300.0,400.0,1.0,,,,,,,,,orange,hexagon
0.0,6.0,2.0,1.0,6.0,6.0,381.2187190001168,6.0,1.0,phase_2,stop,300.0,400.0,3.0,,,,,,,,,yellow,diamond
0.0,5.0,1.0,1.0,6.0,6.0,700.9017680002216,6.0,1.0,phase_2,go,300.0,350.0,1.0,,,,,,,,,magenta,flipped triangle
0.0,8.0,4.0,1.0,5.0,5.0,353.329075000147,6.0,1.0,phase_2,stop,300.0,350.0,3.0,,,,,,,,,blue,cross
0.0,4.0,4.0,0.0,6.0,6.0,539.5449929997085,6.0,1.0,phase_2,go,250.0,350.0,1.0,,,,,,,,,white,square
0.0,1.0,1.0,0.0,5.0,5.0,592.4907339999663,6.0,1.0,phase_2,go,250.0,350.0,1.0,,,,,,,,,gray,triangle
0.0,8.0,4.0,1.0,5.0,5.0,345.9093309998025,6.0,1.0,phase_2,stop,250.0,350.0,3.0,,,,,,,,,blue,cross
0.0,1.0,1.0,0.0,6.0,6.0,568.7732380001762,6.0,1.0,phase_2,go,200.0,350.0,1.0,,,,,,,,,gray,triangle
0.0,4.0,4.0,0.0,6.0,6.0,375.1453429999856,6.0,1.0,phase_2,go,200.0,350.0,1.0,,,,,,,,,white,square
0.0,5.0,1.0,1.0,6.0,6.0,349.8740420000104,6.0,1.0,phase_2,stop,200.0,350.0,3.0,,,,,,,,,magenta,flipped triangle
0.0,2.0,2.0,0.0,5.0,5.0,533.3555600000182,6.0,1.0,phase_2,go,200.0,300.0,1.0,,,,,,,,,green,I
0.0,4.0,4.0,0.0,6.0,6.0,549.0723709999656,6.0,1.0,phase_2,go,200.0,300.0,1.0,,,,,,,,,white,square
0.0,1.0,1.0,0.0,6.0,6.0,508.2883850000144,6.0,1.0,phase_2,go,200.0,300.0,1.0,,,,,,,,,gray,triangle
0.0,7.0,3.0,1.0,6.0,0.0,0.0,6.0,1.0,phase_2,stop,200.0,300.0,4.0,,,,,,,,,orange,hexagon
0.0,6.0,2.0,1.0,5.0,5.0,530.4961150000054,6.0,1.0,phase_2,go,200.0,350.0,1.0,,,,,,,,,yellow,diamond
0.0,6.0,2.0,1.0,5.0,0.0,0.0,6.0,1.0,phase_2,stop,200.0,350.0,4.0,,,,,,,,,yellow,diamond
0.0,4.0,4.0,0.0,5.0,5.0,676.3954440002635,6.0,1.0,phase_2,go,250.0,350.0,1.0,,,,,,,,,white,square
0.0,5.0,1.0,1.0,6.0,6.0,371.6936159999022,6.0,1.0,phase_2,stop,250.0,350.0,3.0,,,,,,,,,magenta,flipped triangle
0.0,3.0,3.0,0.0,6.0,6.0,713.3056760003456,6.0,1.0,phase_2,go,250.0,300.0,1.0,,,,,,,,,cyan,circle
0.0,5.0,1.0,1.0,6.0,0.0,0.0,6.0,1.0,phase_2,stop,250.0,300.0,4.0,,,,,,,,,magenta,flipped triangle
0.0,5.0,1.0,1.0,5.0,0.0,0.0,6.0,1.0,phase_2,stop,250.0,350.0,4.0,,,,,,,,,magenta,flipped triangle
0.0,1.0,1.0,0.0,5.0,5.0,574.0672230003838,6.0,1.0,phase_2,go,300.0,350.0,1.0,,,,,,,,,gray,triangle
0.0,7.0,3.0,1.0,6.0,0.0,0.0,6.0,1.0,phase_2,stop,300.0,350.0,4.0,,,,,,,,,orange,hexagon
0.0,8.0,4.0,1.0,6.0,6.0,519.4664409991674,6.0,1.0,phase_2,stop,300.0,400.0,3.0,,,,,,,,,blue,cross
0.0,7.0,3.0,1.0,5.0,5.0,557.0788099994388,6.0,1.0,phase_2,go,300.0,350.0,1.0,,,,,,,,,orange,hexagon
0.0,1.0,1.0,0.0,6.0,6.0,595.9844789995259,6.0,1.0,phase_2,go,300.0,350.0,1.0,,,,,,,,,gray,triangle
0.0,1.0,1.0,0.0,5.0,5.0,651.8231680001918,6.0,1.0,phase_2,go,300.0,350.0,1.0,,,,,,,,,gray,triangle
0.0,3.0,3.0,0.0,6.0,6.0,524.3139260001044,6.0,1.0,phase_2,go,300.0,350.0,1.0,,,,,,,,,cyan,circle
0.0,1.0,1.0,0.0,5.0,5.0,682.3012310005652,6.0,1.0,phase_2,go,300.0,350.0,1.0,,,,,,,,,gray,triangle
0.0,6.0,2.0,1.0,6.0,0.0,0.0,6.0,1.0,phase_2,stop,300.0,350.0,4.0,,,,,,,,,yellow,diamond
0.0,7.0,3.0,1.0,6.0,0.0,0.0,6.0,1.0,phase_2,stop,300.0,400.0,4.0,,,,,,,,,orange,hexagon
0.0,7.0,3.0,1.0,6.0,0.0,0.0,7.0,1.0,phase_2,stop,300.0,450.0,4.0,,,,,,,,,orange,hexagon
0.0,7.0,3.0,1.0,5.0,5.0,655.6599350005854,7.0,1.0,phase_2,go,300.0,500.0,1.0,,,,,,,,,orange,hexagon
0.0,6.0,2.0,1.0,5.0,0.0,0.0,7.0,1.0,phase_2,stop,300.0,500.0,4.0,,,,,,,,,yellow,diamond
0.0,2.0,2.0,0.0,6.0,6.0,702.648882000176,7.0,1.0,phase_2,go,350.0,500.0,1.0,,,,,,,,,green,I
0.0,8.0,4.0,1.0,5.0,0.0,0.0,7.0,1.0,phase_2,stop,350.0,500.0,4.0,,,,,,,,,blue,cross
0.0,8.0,4.0,1.0,6.0,0.0,0.0,7.0,1.0,phase_2,stop,400.0,500.0,4.0,,,,,,,,,blue,cross
0.0,4.0,4.0,0.0,6.0,6.0,737.9829100000279,7.0,1.0,phase_2,go,400.0,550.0,1.0,,,,,,,,,white,square
0.0,6.0,2.0,1.0,6.0,6.0,665.8029950003765,7.0,1.0,phase_2,stop,400.0,550.0,3.0,,,,,,,,,yellow,diamond
0.0,5.0,1.0,1.0,6.0,0.0,0.0,7.0,1.0,phase_2,stop,400.0,500.0,4.0,,,,,,,,,magenta,flipped triangle
0.0,4.0,4.0,0.0,5.0,5.0,425.5148160000317,7.0,1.0,phase_2,go,400.0,550.0,1.0,,,,,,,,,white,square
0.0,2.0,2.0,0.0,5.0,5.0,754.4017139998687,7.0,1.0,phase_2,go,400.0,550.0,1.0,,,,,,,,,green,I
0.0,1.0,1.0,0.0,5.0,5.0,665.1473359997908,7.0,1.0,phase_2,go,400.0,550.0,1.0,,,,,,,,,gray,triangle
0.0,6.0,2.0,1.0,6.0,6.0,369.3657009998787,7.0,1.0,phase_2,stop,400.0,550.0,3.0,,,,,,,,,yellow,diamond
0.0,7.0,3.0,1.0,6.0,6.0,599.411209000209,7.0,1.0,phase_2,stop,400.0,500.0,3.0,,,,,,,,,orange,hexagon
0.0,8.0,4.0,1.0,5.0,5.0,669.1049190003469,7.0,1.0,phase_2,go,400.0,450.0,1.0,,,,,,,,,blue,cross
0.0,6.0,2.0,1.0,5.0,5.0,286.9934659993305,7.0,1.0,phase_2,stop,400.0,450.0,3.0,,,,,,,,,yellow,diamond
0.0,6.0,2.0,1.0,6.0,0.0,0.0,7.0,1.0,phase_2,stop,350.0,450.0,4.0,,,,,,,,,yellow,diamond
0.0,2.0,2.0,0.0,6.0,6.0,654.0007029998378,7.0,1.0,phase_2,go,350.0,500.0,1.0,,,,,,,,,green,I
0.0,7.0,3.0,1.0,6.0,6.0,548.8413889997901,7.0,1.0,phase_2,go,350.0,500.0,1.0,,,,,,,,,orange,hexagon
0.0,4.0,4.0,0.0,5.0,5.0,477.4078489999738,7.0,1.0,phase_2,go,350.0,500.0,1.0,,,,,,,,,white,square
0.0,2.0,2.0,0.0,5.0,5.0,588.2294019993424,7.0,1.0,phase_2,go,350.0,500.0,1.0,,,,,,,,,green,I
0.0,2.0,2.0,0.0,6.0,6.0,482.7561900001456,7.0,1.0,phase_2,go,350.0,500.0,1.0,,,,,,,,,green,I
0.0,3.0,3.0,0.0,5.0,5.0,672.6913169995896,7.0,1.0,phase_2,go,350.0,500.0,1.0,,,,,,,,,cyan,circle
0.0,8.0,4.0,1.0,6.0,6.0,464.1518280004675,7.0,1.0,phase_2,stop,350.0,500.0,3.0,,,,,,,,,blue,cross
0.0,7.0,3.0,1.0,6.0,6.0,785.5193240002336,7.0,1.0,phase_2,go,350.0,450.0,1.0,,,,,,,,,orange,hexagon
0.0,1.0,1.0,0.0,5.0,5.0,760.3784530001576,7.0,1.0,phase_2,go,350.0,450.0,1.0,,,,,,,,,gray,triangle
0.0,7.0,3.0,1.0,5.0,0.0,0.0,7.0,1.0,phase_2,stop,350.0,450.0,4.0,,,,,,,,,orange,hexagon
0.0,8.0,4.0,1.0,5.0,0.0,0.0,7.0,1.0,phase_2,stop,400.0,450.0,4.0,,,,,,,,,blue,cross
0.0,3.0,3.0,0.0,5.0,5.0,1005.0951729999724,7.0,1.0,phase_2,go,450.0,450.0,1.0,,,,,,,,,cyan,circle
0.0,1.0,1.0,0.0,5.0,5.0,572.7612640002917,7.0,1.0,phase_2,go,450.0,450.0,1.0,,,,,,,,,gray,triangle
0.0,5.0,1.0,1.0,5.0,5.0,532.3661679994984,7.0,1.0,phase_2,stop,450.0,450.0,3.0,,,,,,,,,magenta,flipped triangle
0.0,8.0,4.0,1.0,5.0,0.0,0.0,7.0,1.0,phase_2,stop,400.0,450.0,4.0,,,,,,,,,blue,cross
0.0,3.0,3.0,0.0,5.0,5.0,658.3346929992331,7.0,1.0,phase_2,go,450.0,450.0,1.0,,,,,,,,,cyan,circle
0.0,8.0,4.0,1.0,5.0,0.0,0.0,7.0,1.0,phase_2,stop,450.0,450.0,4.0,,,,,,,,,blue,cross
0.0,1.0,1.0,0.0,5.0,5.0,825.1574619998792,7.0,1.0,phase_2,go,500.0,450.0,1.0,,,,,,,,,gray,triangle
0.0,6.0,2.0,1.0,6.0,0.0,0.0,7.0,1.0,phase_2,stop,500.0,450.0,4.0,,,,,,,,,yellow,diamond
0.0,3.0,3.0,0.0,6.0,6.0,833.152340000197,8.0,1.0,phase_2,go,500.0,500.0,1.0,,,,,,,,,cyan,circle
0.0,3.0,3.0,0.0,6.0,6.0,574.0735700001096,8.0,1.0,phase_2,go,500.0,500.0,1.0,,,,,,,,,cyan,circle
0.0,4.0,4.0,0.0,5.0,5.0,687.8684879993671,8.0,1.0,phase_2,go,500.0,500.0,1.0,,,,,,,,,white,square
0.0,1.0,1.0,0.0,5.0,5.0,511.2308799998573,8.0,1.0,phase_2,go,500.0,500.0,1.0,,,,,,,,,gray,triangle
0.0,6.0,2.0,1.0,6.0,6.0,491.9993570001679,8.0,1.0,phase_2,stop,500.0,500.0,3.0,,,,,,,,,yellow,diamond
0.0,6.0,2.0,1.0,6.0,6.0,877.3569209997731,8.0,1.0,phase_2,go,500.0,450.0,1.0,,,,,,,,,yellow,diamond
0.0,2.0,2.0,0.0,5.0,5.0,716.9200979997186,8.0,1.0,phase_2,go,500.0,450.0,1.0,,,,,,,,,green,I
0.0,7.0,3.0,1.0,6.0,0.0,0.0,8.0,1.0,phase_2,stop,500.0,450.0,4.0,,,,,,,,,orange,hexagon
0.0,5.0,1.0,1.0,6.0,0.0,0.0,8.0,1.0,phase_2,stop,500.0,500.0,4.0,,,,,,,,,magenta,flipped triangle
0.0,1.0,1.0,0.0,6.0,6.0,811.120452999603,8.0,1.0,phase_2,go,500.0,550.0,1.0,,,,,,,,,gray,triangle
0.0,3.0,3.0,0.0,5.0,5.0,914.9675200005732,8.0,1.0,phase_2,go,500.0,550.0,1.0,,,,,,,,,cyan,circle
0.0,5.0,1.0,1.0,5.0,0.0,0.0,8.0,1.0,phase_2,stop,500.0,550.0,4.0,,,,,,,,,magenta,flipped triangle
0.0,3.0,3.0,0.0,6.0,6.0,617.6781499998469,8.0,1.0,phase_2,go,550.0,550.0,1.0,,,,,,,,,cyan,circle
0.0,3.0,3.0,0.0,5.0,5.0,791.2525319998167,8.0,1.0,phase_2,go,550.0,550.0,1.0,,,,,,,,,cyan,circle
0.0,1.0,1.0,0.0,6.0,6.0,816.5165890004573,8.0,1.0,phase_2,go,550.0,550.0,1.0,,,,,,,,,gray,triangle
0.0,4.0,4.0,0.0,6.0,6.0,870.7861160000903,8.0,1.0,phase_2,go,550.0,550.0,1.0,,,,,,,,,white,square
0.0,1.0,1.0,0.0,5.0,5.0,679.4710989997839,8.0,1.0,phase_2,go,550.0,550.0,1.0,,,,,,,,,gray,triangle
0.0,6.0,2.0,1.0,5.0,5.0,732.1329099995637,8.0,1.0,phase_2,go,550.0,550.0,1.0,,,,,,,,,yellow,diamond
0.0,4.0,4.0,0.0,5.0,5.0,718.5724279997885,8.0,1.0,phase_2,go,550.0,550.0,1.0,,,,,,,,,white,square
0.0,6.0,2.0,1.0,5.0,5.0,860.6720640000276,8.0,1.0,phase_2,go,550.0,550.0,1.0,,,,,,,,,yellow,diamond
0.0,3.0,3.0,0.0,6.0,6.0,509.1144380003243,8.0,1.0,phase_2,go,550.0,550.0,1.0,,,,,,,,,cyan,circle
0.0,7.0,3.0,1.0,6.0,6.0,378.1655370003136,8.0,1.0,phase_2,stop,550.0,550.0,3.0,,,,,,,,,orange,hexagon
0.0,4.0,4.0,0.0,5.0,5.0,337.2540350001145,8.0,1.0,phase_2,go,550.0,500.0,1.0,,,,,,,,,white,square
0.0,2.0,2.0,0.0,5.0,5.0,498.633157999393,8.0,1.0,phase_2,go,550.0,500.0,1.0,,,,,,,,,green,I
0.0,4.0,4.0,0.0,5.0,5.0,650.0373389999368,8.0,1.0,phase_2,go,550.0,500.0,1.0,,,,,,,,,white,square
0.0,2.0,2.0,0.0,5.0,5.0,570.3141219992176,8.0,1.0,phase_2,go,550.0,500.0,1.0,,,,,,,,,green,I
0.0,8.0,4.0,1.0,6.0,6.0,769.2141229999834,8.0,1.0,phase_2,stop,550.0,500.0,3.0,,,,,,,,,blue,cross
0.0,6.0,2.0,1.0,5.0,0.0,0.0,8.0,1.0,phase_2,stop,550.0,450.0,4.0,,,,,,,,,yellow,diamond
0.0,4.0,4.0,0.0,5.0,5.0,662.1926580000945,8.0,1.0,phase_2,go,600.0,450.0,1.0,,,,,,,,,white,square
0.0,2.0,2.0,0.0,5.0,5.0,789.3995120002728,8.0,1.0,phase_2,go,600.0,450.0,1.0,,,,,,,,,green,I
0.0,8.0,4.0,1.0,5.0,0.0,0.0,8.0,1.0,phase_2,stop,600.0,450.0,4.0,,,,,,,,,blue,cross
0.0,6.0,2.0,1.0,6.0,6.0,653.1492820004132,8.0,1.0,phase_2,go,650.0,450.0,1.0,,,,,,,,,yellow,diamond
0.0,2.0,2.0,0.0,5.0,5.0,636.6363890001594,8.0,1.0,phase_2,go,650.0,450.0,1.0,,,,,,,,,green,I
0.0,7.0,3.0,1.0,5.0,5.0,570.4263919997175,8.0,1.0,phase_2,stop,650.0,450.0,3.0,,,,,,,,,orange,hexagon
0.0,6.0,2.0,1.0,6.0,0.0,0.0,8.0,1.0,phase_2,stop,600.0,450.0,4.0,,,,,,,,,yellow,diamond
0.0,5.0,1.0,1.0,6.0,6.0,596.2543699997696,8.0,1.0,phase_2,go,600.0,500.0,1.0,,,,,,,,,magenta,flipped triangle
0.0,2.0,2.0,0.0,7.0,3.0,600.0534659997356,1.0,2.0,phase_3,,,,,464.0,4.0,232.0,696.0,464.0,116.0,580.0,348.0,green,I
0.0,4.0,4.0,0.0,7.0,5.0,2776.654008999685,1.0,1.0,phase_3,,,,,1152.0,6.0,576.0,960.0,768.0,384.0,1152.0,192.0,white,square
0.0,8.0,4.0,1.0,7.0,3.0,1465.860686999804,1.0,1.0,phase_3,,,,,675.0,5.0,135.0,810.0,675.0,270.0,405.0,540.0,blue,cross
0.0,7.0,3.0,1.0,7.0,1.0,2260.8869670002605,1.0,1.0,phase_3,,,,,924.0,6.0,924.0,154.0,462.0,616.0,308.0,770.0,orange,hexagon
0.0,5.0,1.0,1.0,7.0,5.0,2260.1094900001044,1.0,1.0,phase_3,,,,,1038.0,6.0,865.0,519.0,692.0,173.0,1038.0,346.0,magenta,flipped triangle
0.0,5.0,1.0,1.0,7.0,2.0,2444.872112999292,1.0,1.0,phase_3,,,,,540.0,4.0,810.0,540.0,135.0,405.0,675.0,270.0,magenta,flipped triangle
0.0,6.0,2.0,1.0,7.0,3.0,1127.8024550001646,1.0,1.0,phase_3,,,,,924.0,6.0,154.0,462.0,924.0,308.0,770.0,616.0,yellow,diamond
0.0,4.0,4.0,0.0,7.0,4.0,1026.0777820003568,1.0,1.0,phase_3,,,,,810.0,6.0,540.0,135.0,405.0,810.0,270.0,675.0,white,square
0.0,1.0,1.0,0.0,7.0,3.0,1875.2874720003088,1.0,1.0,phase_3,,,,,768.0,4.0,960.0,384.0,768.0,1152.0,192.0,576.0,gray,triangle
0.0,4.0,4.0,0.0,7.0,6.0,1634.534550999888,1.0,1.0,phase_3,,,,,1038.0,6.0,519.0,865.0,346.0,692.0,173.0,1038.0,white,square
0.0,2.0,2.0,0.0,7.0,2.0,980.7739920006496,1.0,1.0,phase_3,,,,,616.0,4.0,462.0,616.0,308.0,924.0,770.0,154.0,green,I
0.0,7.0,3.0,1.0,7.0,1.0,1132.6307169993015,1.0,1.0,phase_3,,,,,519.0,3.0,519.0,346.0,692.0,865.0,173.0,1038.0,orange,hexagon
0.0,6.0,2.0,1.0,7.0,4.0,909.6381159997692,1.0,1.0,phase_3,,,,,580.0,5.0,696.0,348.0,116.0,580.0,464.0,232.0,yellow,diamond
0.0,6.0,2.0,1.0,7.0,3.0,954.1078379997998,1.0,1.0,phase_3,,,,,865.0,5.0,1038.0,519.0,865.0,692.0,173.0,346.0,yellow,diamond
0.0,3.0,3.0,0.0,7.0,4.0,1402.6786079994054,1.0,1.0,phase_3,,,,,576.0,3.0,192.0,1152.0,384.0,576.0,960.0,768.0,cyan,circle
0.0,1.0,1.0,0.0,7.0,5.0,993.6757109999236,1.0,1.0,phase_3,,,,,924.0,6.0,308.0,462.0,154.0,616.0,924.0,770.0,gray,triangle
0.0,8.0,4.0,1.0,7.0,5.0,1773.3764880003946,1.0,1.0,phase_3,,,,,675.0,5.0,810.0,135.0,540.0,270.0,675.0,405.0,blue,cross
0.0,5.0,1.0,1.0,7.0,6.0,1133.590723999987,1.0,1.0,phase_3,,,,,616.0,4.0,154.0,462.0,924.0,770.0,308.0,616.0,magenta,flipped triangle
0.0,6.0,2.0,1.0,7.0,3.0,928.6889750001136,1.0,1.0,phase_3,,,,,405.0,3.0,675.0,540.0,405.0,810.0,135.0,270.0,yellow,diamond
0.0,6.0,2.0,1.0,7.0,4.0,814.3046420000246,1.0,1.0,phase_3,,,,,116.0,1.0,464.0,580.0,348.0,116.0,696.0,232.0,yellow,diamond
0.0,6.0,2.0,1.0,7.0,4.0,992.767859000196,2.0,1.0,phase_3,,,,,346.0,2.0,692.0,865.0,173.0,346.0,519.0,1038.0,yellow,diamond
0.0,1.0,1.0,0.0,7.0,2.0,946.5554579992386,2.0,1.0,phase_3,,,,,519.0,3.0,173.0,519.0,346.0,1038.0,865.0,692.0,gray,triangle
0.0,5.0,1.0,1.0,7.0,5.0,1235.2285059996575,2.0,1.0,phase_3,,,,,173.0,1.0,865.0,519.0,1038.0,346.0,173.0,692.0,magenta,flipped triangle
0.0,8.0,4.0,1.0,7.0,6.0,677.11442000018,2.0,1.0,phase_3,,,,,696.0,6.0,116.0,232.0,580.0,348.0,464.0,696.0,blue,cross
0.0,6.0,2.0,1.0,7.0,3.0,1096.7334690003554,2.0,1.0,phase_3,,,,,768.0,4.0,384.0,192.0,768.0,1152.0,576.0,960.0,yellow,diamond
0.0,4.0,4.0,0.0,7.0,3.0,983.4895280000636,2.0,1.0,phase_3,,,,,692.0,4.0,173.0,1038.0,692.0,865.0,346.0,519.0,white,square
0.0,2.0,2.0,0.0,7.0,4.0,1330.5004769999869,2.0,1.0,phase_3,,,,,346.0,2.0,1038.0,865.0,519.0,346.0,692.0,173.0,green,I
0.0,4.0,4.0,0.0,7.0,2.0,1074.298319999798,2.0,1.0,phase_3,,,,,405.0,3.0,540.0,405.0,135.0,270.0,810.0,675.0,white,square
0.0,7.0,3.0,1.0,7.0,4.0,1301.8212380002296,2.0,1.0,phase_3,,,,,580.0,5.0,696.0,116.0,232.0,580.0,464.0,348.0,orange,hexagon
0.0,3.0,3.0,0.0,7.0,5.0,980.9824399999344,2.0,1.0,phase_3,,,,,675.0,5.0,405.0,135.0,810.0,270.0,675.0,540.0,cyan,circle
0.0,5.0,1.0,1.0,7.0,3.0,870.5893150008706,2.0,1.0,phase_3,,,,,768.0,4.0,960.0,384.0,768.0,1152.0,576.0,192.0,magenta,flipped triangle
0.0,4.0,4.0,0.0,7.0,1.0,1801.5573620004943,2.0,1.0,phase_3,,,,,116.0,1.0,116.0,696.0,232.0,348.0,580.0,464.0,white,square
0.0,7.0,3.0,1.0,7.0,3.0,1186.0420990005878,2.0,1.0,phase_3,,,,,810.0,6.0,540.0,135.0,810.0,405.0,675.0,270.0,orange,hexagon
0.0,2.0,2.0,0.0,7.0,4.0,820.0637549998646,2.0,1.0,phase_3,,,,,810.0,6.0,540.0,270.0,405.0,810.0,675.0,135.0,green,I
0.0,2.0,2.0,0.0,7.0,5.0,2077.6407559997097,2.0,1.0,phase_3,,,,,616.0,4.0,770.0,308.0,462.0,154.0,616.0,924.0,green,I
0.0,8.0,4.0,1.0,7.0,6.0,2195.519940999475,2.0,1.0,phase_3,,,,,616.0,4.0,154.0,770.0,924.0,462.0,308.0,616.0,blue,cross
0.0,5.0,1.0,1.0,7.0,3.0,1253.353469999638,2.0,1.0,phase_3,,,,,580.0,5.0,116.0,348.0,580.0,232.0,696.0,464.0,magenta,flipped triangle
0.0,7.0,3.0,1.0,7.0,2.0,1407.9723250006282,2.0,1.0,phase_3,,,,,770.0,5.0,462.0,770.0,616.0,924.0,154.0,308.0,orange,hexagon
0.0,7.0,3.0,1.0,7.0,2.0,1391.786819999652,2.0,1.0,phase_3,,,,,696.0,6.0,464.0,696.0,348.0,580.0,116.0,232.0,orange,hexagon
0.0,4.0,4.0,0.0,7.0,4.0,962.6331079998636,2.0,1.0,phase_3,,,,,576.0,3.0,1152.0,192.0,768.0,576.0,384.0,960.0,white,square
0.0,5.0,1.0,1.0,7.0,3.0,1219.2286669996977,3.0,1.0,phase_3,,,,,810.0,6.0,675.0,135.0,810.0,540.0,270.0,405.0,magenta,flipped triangle
0.0,8.0,4.0,1.0,7.0,5.0,1055.4753150008764,3.0,1.0,phase_3,,,,,770.0,5.0,154.0,924.0,308.0,616.0,770.0,462.0,blue,cross
0.0,4.0,4.0,0.0,7.0,2.0,1080.0442559993826,3.0,1.0,phase_3,,,,,770.0,5.0,616.0,770.0,308.0,154.0,462.0,924.0,white,square
0.0,3.0,3.0,0.0,7.0,4.0,1008.6116439997568,3.0,1.0,phase_3,,,,,865.0,5.0,692.0,346.0,173.0,865.0,1038.0,519.0,cyan,circle
0.0,3.0,3.0,0.0,7.0,1.0,1785.9168130007674,3.0,1.0,phase_3,,,,,675.0,5.0,675.0,810.0,135.0,540.0,405.0,270.0,cyan,circle
0.0,3.0,3.0,0.0,7.0,5.0,1796.2396170005377,3.0,1.0,phase_3,,,,,173.0,1.0,865.0,1038.0,519.0,692.0,173.0,346.0,cyan,circle
0.0,4.0,4.0,0.0,7.0,4.0,1147.204881000107,3.0,1.0,phase_3,,,,,464.0,4.0,232.0,580.0,348.0,464.0,116.0,696.0,white,square
0.0,1.0,1.0,0.0,7.0,4.0,1158.354975000293,3.0,1.0,phase_3,,,,,865.0,5.0,519.0,1038.0,692.0,865.0,173.0,346.0,gray,triangle
0.0,6.0,2.0,1.0,7.0,5.0,1277.4161749994164,3.0,1.0,phase_3,,,,,924.0,6.0,616.0,154.0,462.0,770.0,924.0,308.0,yellow,diamond
0.0,3.0,3.0,0.0,7.0,2.0,1185.884621999321,3.0,1.0,phase_3,,,,,770.0,5.0,616.0,770.0,924.0,462.0,154.0,308.0,cyan,circle
0.0,7.0,3.0,1.0,7.0,2.0,961.9422990008388,3.0,1.0,phase_3,,,,,576.0,3.0,768.0,576.0,384.0,960.0,192.0,1152.0,orange,hexagon
0.0,7.0,3.0,1.0,7.0,6.0,1459.3212239997229,3.0,1.0,phase_3,,,,,768.0,4.0,576.0,384.0,960.0,192.0,1152.0,768.0,orange,hexagon
0.0,3.0,3.0,0.0,7.0,2.0,1394.65393699993,3.0,1.0,phase_3,,,,,770.0,5.0,924.0,770.0,154.0,462.0,616.0,308.0,cyan,circle
0.0,1.0,1.0,0.0,7.0,4.0,1539.8203400000057,3.0,1.0,phase_3,,,,,768.0,4.0,192.0,576.0,384.0,768.0,1152.0,960.0,gray,triangle
0.0,1.0,1.0,0.0,7.0,5.0,1341.2290109999958,3.0,1.0,phase_3,,,,,135.0,1.0,270.0,540.0,810.0,405.0,135.0,675.0,gray,triangle
0.0,2.0,2.0,0.0,7.0,2.0,1264.3163020002248,3.0,1.0,phase_3,,,,,1152.0,6.0,192.0,1152.0,960.0,576.0,768.0,384.0,green,I
0.0,6.0,2.0,1.0,7.0,1.0,1056.8245099993874,3.0,1.0,phase_3,,,,,405.0,3.0,405.0,270.0,135.0,675.0,810.0,540.0,yellow,diamond
0.0,1.0,1.0,0.0,7.0,4.0,1425.1622199999474,3.0,1.0,phase_3,,,,,308.0,2.0,616.0,462.0,770.0,308.0,154.0,924.0,gray,triangle
0.0,8.0,4.0,1.0,7.0,5.0,1867.0640559994356,3.0,1.0,phase_3,,,,,1038.0,6.0,519.0,346.0,692.0,173.0,1038.0,865.0,blue,cross
0.0,6.0,2.0,1.0,7.0,4.0,1179.9572760000956,3.0,1.0,phase_3,,,,,960.0,5.0,1152.0,192.0,768.0,960.0,384.0,576.0,yellow,diamond
0.0,7.0,3.0,1.0,7.0,5.0,1618.5340299998645,4.0,1.0,phase_3,,,,,346.0,2.0,865.0,1038.0,173.0,519.0,346.0,692.0,orange,hexagon
0.0,3.0,3.0,0.0,7.0,6.0,139.6546089999901,4.0,1.0,phase_3,,,,,192.0,1.0,384.0,768.0,1152.0,576.0,960.0,192.0,cyan,circle
0.0,5.0,1.0,1.0,7.0,5.0,1462.9897520007944,4.0,1.0,phase_3,,,,,576.0,3.0,960.0,1152.0,384.0,192.0,576.0,768.0,magenta,flipped triangle
0.0,5.0,1.0,1.0,7.0,4.0,1181.8922540005588,4.0,1.0,phase_3,,,,,770.0,5.0,924.0,308.0,616.0,770.0,154.0,462.0,magenta,flipped triangle
0.0,8.0,4.0,1.0,7.0,3.0,1554.0402739998171,4.0,1.0,phase_3,,,,,768.0,4.0,1152.0,576.0,768.0,384.0,192.0,960.0,blue,cross
0.0,1.0,1.0,0.0,7.0,3.0,1707.1476689998235,4.0,1.0,phase_3,,,,,580.0,5.0,232.0,116.0,580.0,696.0,464.0,348.0,gray,triangle
0.0,2.0,2.0,0.0,7.0,5.0,1651.7312290006885,4.0,1.0,phase_3,,,,,519.0,3.0,173.0,692.0,346.0,1038.0,519.0,865.0,green,I
0.0,5.0,1.0,1.0,7.0,6.0,1708.7120760006655,4.0,1.0,phase_3,,,,,116.0,1.0,580.0,464.0,232.0,348.0,696.0,116.0,magenta,flipped triangle
0.0,1.0,1.0,0.0,7.0,1.0,1764.74787799998,4.0,1.0,phase_3,,,,,696.0,6.0,696.0,116.0,580.0,464.0,348.0,232.0,gray,triangle
0.0,1.0,1.0,0.0,7.0,3.0,950.2961730004243,4.0,1.0,phase_3,,,,,540.0,4.0,135.0,675.0,540.0,405.0,810.0,270.0,gray,triangle
0.0,4.0,4.0,0.0,7.0,4.0,978.0477909998808,4.0,1.0,phase_3,,,,,462.0,3.0,616.0,154.0,924.0,462.0,770.0,308.0,white,square
0.0,2.0,2.0,0.0,7.0,3.0,994.0222479999647,4.0,1.0,phase_3,,,,,960.0,5.0,576.0,384.0,960.0,1152.0,192.0,768.0,green,I
0.0,8.0,4.0,1.0,7.0,3.0,932.2974329998032,4.0,1.0,phase_3,,,,,576.0,3.0,960.0,768.0,576.0,1152.0,384.0,192.0,blue,cross
0.0,7.0,3.0,1.0,7.0,5.0,1061.832635000428,4.0,1.0,phase_3,,,,,675.0,5.0,405.0,810.0,135.0,540.0,675.0,270.0,orange,hexagon
0.0,3.0,3.0,0.0,7.0,2.0,1478.7919629998214,4.0,1.0,phase_3,,,,,696.0,6.0,464.0,696.0,348.0,580.0,116.0,232.0,cyan,circle
0.0,8.0,4.0,1.0,7.0,4.0,2262.73091999974,4.0,1.0,phase_3,,,,,692.0,4.0,173.0,519.0,1038.0,692.0,346.0,865.0,blue,cross
0.0,3.0,3.0,0.0,7.0,3.0,1591.3881400001628,4.0,1.0,phase_3,,,,,580.0,5.0,232.0,696.0,580.0,348.0,116.0,464.0,cyan,circle
0.0,8.0,4.0,1.0,7.0,6.0,1242.579898999793,4.0,1.0,phase_3,,,,,580.0,5.0,464.0,116.0,232.0,696.0,348.0,580.0,blue,cross
0.0,2.0,2.0,0.0,7.0,1.0,1232.950349999555,4.0,1.0,phase_3,,,,,116.0,1.0,116.0,232.0,580.0,348.0,696.0,464.0,green,I
0.0,2.0,2.0,0.0,7.0,3.0,978.6071629996512,4.0,1.0,phase_3,,,,,540.0,4.0,405.0,675.0,540.0,270.0,810.0,135.0,green,I
