raw_reward_magnitude,stim_reward,stepwise_reward_magnitude,paired_with_stopping,stim_location,response,reaction_time,block,num_trial_presentations,which_phase,stop_signal_trial_type,left_SSD,right_SSD,accuracy,chosen_bidding_amount,chosen_bidding_level,possible_bid_1,possible_bid_2,possible_bid_3,possible_bid_4,possible_bid_5,possible_bid_6,color_text,shape_text
145.0,1.0,1.0,0.0,3.0,3.0,240.0084200198762,1.0,32.0,phase_1,,,,,,,,,,,,,yellow,flipped triangle
0.0,7.0,0.0,1.0,3.0,3.0,376.7846960108727,1.0,2.0,phase_1,,,,,,,,,,,,,magenta,diamond
0.0,4.0,0.0,0.0,4.0,4.0,777.4844039813615,1.0,81.0,phase_1,,,,,,,,,,,,,cyan,I
1323.0,8.0,4.0,1.0,4.0,4.0,430.224327952601,1.0,1.0,phase_1,,,,,,,,,,,,,gray,triangle
314.0,2.0,2.0,0.0,3.0,3.0,565.6564439996146,1.0,2.0,phase_1,,,,,,,,,,,,,blue,hexagon
627.0,3.0,3.0,0.0,3.0,3.0,442.7614770247601,1.0,1.0,phase_1,,,,,,,,,,,,,white,circle
1283.0,8.0,4.0,1.0,4.0,4.0,853.5282639786601,1.0,2.0,phase_1,,,,,,,,,,,,,gray,triangle
165.0,1.0,1.0,0.0,2.0,2.0,849.9297029920854,1.0,1.0,phase_1,,,,,,,,,,,,,yellow,flipped triangle
169.0,5.0,1.0,1.0,2.0,2.0,468.2981359655969,1.0,1.0,phase_1,,,,,,,,,,,,,green,cross
1279.0,4.0,4.0,0.0,1.0,1.0,667.0340410200879,1.0,1.0,phase_1,,,,,,,,,,,,,cyan,I
343.0,2.0,2.0,0.0,2.0,2.0,510.00836602179334,1.0,1.0,phase_1,,,,,,,,,,,,,blue,hexagon
641.0,7.0,3.0,1.0,4.0,4.0,435.9394140192307,1.0,1.0,phase_1,,,,,,,,,,,,,magenta,diamond
0.0,8.0,0.0,1.0,1.0,1.0,595.5514750094153,1.0,2.0,phase_1,,,,,,,,,,,,,gray,triangle
1291.0,4.0,4.0,0.0,3.0,3.0,417.6345079904422,1.0,1.0,phase_1,,,,,,,,,,,,,cyan,I
0.0,5.0,0.0,1.0,2.0,2.0,485.4825100046582,1.0,1.0,phase_1,,,,,,,,,,,,,green,cross
321.0,2.0,2.0,0.0,4.0,4.0,539.4515400403179,1.0,1.0,phase_1,,,,,,,,,,,,,blue,hexagon
1283.0,4.0,4.0,0.0,2.0,2.0,515.3110129758716,1.0,2.0,phase_1,,,,,,,,,,,,,cyan,I
627.0,3.0,3.0,0.0,4.0,4.0,480.4375210078433,1.0,1.0,phase_1,,,,,,,,,,,,,white,circle
326.0,2.0,2.0,0.0,4.0,4.0,454.507743997965,1.0,1.0,phase_1,,,,,,,,,,,,,blue,hexagon
0.0,8.0,0.0,1.0,4.0,4.0,480.4547629901208,1.0,1.0,phase_1,,,,,,,,,,,,,gray,triangle
1280.0,4.0,4.0,0.0,1.0,1.0,525.7633940200321,1.0,1.0,phase_1,,,,,,,,,,,,,cyan,I
334.0,6.0,2.0,1.0,1.0,1.0,427.1668889559805,1.0,1.0,phase_1,,,,,,,,,,,,,orange,square
642.0,7.0,3.0,1.0,2.0,2.0,624.6205989737064,1.0,1.0,phase_1,,,,,,,,,,,,,magenta,diamond
323.0,2.0,2.0,0.0,1.0,1.0,625.7645100122318,1.0,2.0,phase_1,,,,,,,,,,,,,blue,hexagon
0.0,5.0,0.0,1.0,4.0,4.0,421.5037300018593,1.0,1.0,phase_1,,,,,,,,,,,,,green,cross
324.0,2.0,2.0,0.0,2.0,2.0,539.8061269661412,1.0,1.0,phase_1,,,,,,,,,,,,,blue,hexagon
645.0,3.0,3.0,0.0,1.0,1.0,542.6268859882839,1.0,1.0,phase_1,,,,,,,,,,,,,white,circle
638.0,3.0,3.0,0.0,1.0,1.0,515.6984499772079,1.0,1.0,phase_1,,,,,,,,,,,,,white,circle
158.0,1.0,1.0,0.0,2.0,2.0,527.0026860525832,1.0,1.0,phase_1,,,,,,,,,,,,,yellow,flipped triangle
646.0,3.0,3.0,0.0,1.0,1.0,538.4534639888443,1.0,1.0,phase_1,,,,,,,,,,,,,white,circle
666.0,7.0,3.0,1.0,4.0,4.0,410.423293011263,1.0,1.0,phase_1,,,,,,,,,,,,,magenta,diamond
0.0,3.0,0.0,0.0,1.0,1.0,630.7791010476649,1.0,1.0,phase_1,,,,,,,,,,,,,white,circle
307.0,6.0,2.0,1.0,3.0,3.0,489.363138040062,1.0,1.0,phase_1,,,,,,,,,,,,,orange,square
627.0,3.0,3.0,0.0,2.0,2.0,349.9451529933139,1.0,1.0,phase_1,,,,,,,,,,,,,white,circle
1288.0,8.0,4.0,1.0,3.0,3.0,562.1764530078508,1.0,1.0,phase_1,,,,,,,,,,,,,gray,triangle
183.0,5.0,1.0,1.0,2.0,2.0,321.4354870142415,1.0,1.0,phase_1,,,,,,,,,,,,,green,cross
145.0,1.0,1.0,0.0,4.0,4.0,459.9380939616821,1.0,1.0,phase_1,,,,,,,,,,,,,yellow,flipped triangle
1288.0,4.0,4.0,0.0,3.0,3.0,456.8176920292899,1.0,1.0,phase_1,,,,,,,,,,,,,cyan,I
1290.0,4.0,4.0,0.0,2.0,2.0,406.8250000127591,1.0,1.0,phase_1,,,,,,,,,,,,,cyan,I
1275.0,4.0,4.0,0.0,4.0,4.0,564.1754830139689,1.0,1.0,phase_1,,,,,,,,,,,,,cyan,I
660.0,7.0,3.0,1.0,1.0,1.0,286.1085900221951,1.0,1.0,phase_1,,,,,,,,,,,,,magenta,diamond
1296.0,8.0,4.0,1.0,2.0,2.0,419.5070879650302,1.0,1.0,phase_1,,,,,,,,,,,,,gray,triangle
0.0,6.0,0.0,1.0,4.0,4.0,335.3839729679748,1.0,1.0,phase_1,,,,,,,,,,,,,orange,square
305.0,2.0,2.0,0.0,1.0,1.0,300.0175699708052,1.0,1.0,phase_1,,,,,,,,,,,,,blue,hexagon
350.0,6.0,2.0,1.0,1.0,1.0,464.9551369948312,1.0,1.0,phase_1,,,,,,,,,,,,,orange,square
1319.0,4.0,4.0,0.0,3.0,3.0,421.2538169813342,1.0,1.0,phase_1,,,,,,,,,,,,,cyan,I
0.0,2.0,0.0,0.0,4.0,4.0,356.047139968723,1.0,1.0,phase_1,,,,,,,,,,,,,blue,hexagon
1308.0,4.0,4.0,0.0,3.0,3.0,374.4786339811981,1.0,1.0,phase_1,,,,,,,,,,,,,cyan,I
634.0,3.0,3.0,0.0,4.0,4.0,419.066846021451,1.0,1.0,phase_1,,,,,,,,,,,,,white,circle
147.0,5.0,1.0,1.0,1.0,1.0,855.8690180070698,1.0,1.0,phase_1,,,,,,,,,,,,,green,cross
303.0,6.0,2.0,1.0,1.0,1.0,596.0626740125008,1.0,1.0,phase_1,,,,,,,,,,,,,orange,square
1279.0,8.0,4.0,1.0,4.0,4.0,426.0016370099038,1.0,1.0,phase_1,,,,,,,,,,,,,gray,triangle
159.0,5.0,1.0,1.0,4.0,4.0,559.943252010271,1.0,1.0,phase_1,,,,,,,,,,,,,green,cross
0.0,2.0,0.0,0.0,1.0,1.0,426.3302819454111,1.0,1.0,phase_1,,,,,,,,,,,,,blue,hexagon
306.0,2.0,2.0,0.0,4.0,4.0,447.2540190326981,1.0,1.0,phase_1,,,,,,,,,,,,,blue,hexagon
158.0,1.0,1.0,0.0,1.0,1.0,355.303936987184,1.0,1.0,phase_1,,,,,,,,,,,,,yellow,flipped triangle
342.0,6.0,2.0,1.0,2.0,2.0,625.4970569862053,1.0,2.0,phase_1,,,,,,,,,,,,,orange,square
1279.0,8.0,4.0,1.0,4.0,4.0,424.7583879623562,1.0,1.0,phase_1,,,,,,,,,,,,,gray,triangle
312.0,2.0,2.0,0.0,3.0,3.0,406.2614070135169,1.0,1.0,phase_1,,,,,,,,,,,,,blue,hexagon
342.0,2.0,2.0,0.0,4.0,4.0,418.2899030274711,1.0,1.0,phase_1,,,,,,,,,,,,,blue,hexagon
632.0,7.0,3.0,1.0,3.0,3.0,334.9935180158354,1.0,1.0,phase_1,,,,,,,,,,,,,magenta,diamond
1320.0,8.0,4.0,1.0,3.0,3.0,451.6724140266888,1.0,1.0,phase_1,,,,,,,,,,,,,gray,triangle
0.0,5.0,0.0,1.0,2.0,2.0,458.1565950065851,1.0,1.0,phase_1,,,,,,,,,,,,,green,cross
638.0,7.0,3.0,1.0,4.0,4.0,510.9147349721752,1.0,1.0,phase_1,,,,,,,,,,,,,magenta,diamond
0.0,2.0,0.0,0.0,4.0,4.0,690.2533019892871,1.0,1.0,phase_1,,,,,,,,,,,,,blue,hexagon
158.0,5.0,1.0,1.0,4.0,4.0,471.0808150121011,1.0,1.0,phase_1,,,,,,,,,,,,,green,cross
323.0,6.0,2.0,1.0,4.0,4.0,402.7748740045354,1.0,1.0,phase_1,,,,,,,,,,,,,orange,square
1275.0,4.0,4.0,0.0,4.0,4.0,409.7772690001875,1.0,1.0,phase_1,,,,,,,,,,,,,cyan,I
186.0,1.0,1.0,0.0,4.0,4.0,363.8009369606152,1.0,1.0,phase_1,,,,,,,,,,,,,yellow,flipped triangle
668.0,7.0,3.0,1.0,2.0,2.0,616.1733129993081,1.0,1.0,phase_1,,,,,,,,,,,,,magenta,diamond
0.0,4.0,0.0,0.0,4.0,4.0,421.4543680427596,1.0,1.0,phase_1,,,,,,,,,,,,,cyan,I
0.0,3.0,0.0,0.0,3.0,3.0,473.2631869846955,1.0,1.0,phase_1,,,,,,,,,,,,,white,circle
164.0,5.0,1.0,1.0,4.0,4.0,400.6360929924994,1.0,1.0,phase_1,,,,,,,,,,,,,green,cross
182.0,1.0,1.0,0.0,1.0,1.0,504.4097690260969,1.0,2.0,phase_1,,,,,,,,,,,,,yellow,flipped triangle
1300.0,8.0,4.0,1.0,2.0,2.0,411.5504029905423,1.0,1.0,phase_1,,,,,,,,,,,,,gray,triangle
1275.0,8.0,4.0,1.0,3.0,3.0,395.2616389724426,1.0,1.0,phase_1,,,,,,,,,,,,,gray,triangle
313.0,6.0,2.0,1.0,2.0,2.0,357.801181031391,1.0,1.0,phase_1,,,,,,,,,,,,,orange,square
303.0,6.0,2.0,1.0,2.0,2.0,641.9517180183902,1.0,1.0,phase_1,,,,,,,,,,,,,orange,square
648.0,3.0,3.0,0.0,1.0,1.0,663.0957690067589,1.0,1.0,phase_1,,,,,,,,,,,,,white,circle
1317.0,8.0,4.0,1.0,4.0,4.0,443.1975070037879,1.0,1.0,phase_1,,,,,,,,,,,,,gray,triangle
0.0,6.0,0.0,1.0,4.0,4.0,471.523490967229,1.0,1.0,phase_1,,,,,,,,,,,,,orange,square
0.0,4.0,0.0,0.0,1.0,1.0,468.6575719970278,1.0,1.0,phase_1,,,,,,,,,,,,,cyan,I
1289.0,8.0,4.0,1.0,1.0,1.0,403.784190013539,1.0,1.0,phase_1,,,,,,,,,,,,,gray,triangle
0.0,8.0,0.0,1.0,1.0,1.0,493.7026720144786,1.0,1.0,phase_1,,,,,,,,,,,,,gray,triangle
0.0,1.0,0.0,0.0,2.0,2.0,355.049000994768,1.0,1.0,phase_1,,,,,,,,,,,,,yellow,flipped triangle
1288.0,4.0,4.0,0.0,2.0,2.0,358.8702749693766,1.0,1.0,phase_1,,,,,,,,,,,,,cyan,I
649.0,3.0,3.0,0.0,4.0,4.0,580.0760799902491,1.0,1.0,phase_1,,,,,,,,,,,,,white,circle
0.0,1.0,0.0,0.0,4.0,4.0,752.1543520269915,1.0,1.0,phase_1,,,,,,,,,,,,,yellow,flipped triangle
668.0,3.0,3.0,0.0,4.0,4.0,485.5175639968365,1.0,1.0,phase_1,,,,,,,,,,,,,white,circle
669.0,3.0,3.0,0.0,1.0,1.0,521.3843309902586,1.0,1.0,phase_1,,,,,,,,,,,,,white,circle
173.0,1.0,1.0,0.0,1.0,1.0,734.1561160283163,1.0,1.0,phase_1,,,,,,,,,,,,,yellow,flipped triangle
675.0,3.0,3.0,0.0,3.0,3.0,423.6417250358499,1.0,2.0,phase_1,,,,,,,,,,,,,white,circle
164.0,1.0,1.0,0.0,4.0,4.0,501.0131979943253,1.0,1.0,phase_1,,,,,,,,,,,,,yellow,flipped triangle
655.0,7.0,3.0,1.0,1.0,1.0,553.2664699712768,1.0,1.0,phase_1,,,,,,,,,,,,,magenta,diamond
328.0,6.0,2.0,1.0,4.0,4.0,469.711437006481,1.0,1.0,phase_1,,,,,,,,,,,,,orange,square
672.0,3.0,3.0,0.0,1.0,1.0,361.9179280358366,1.0,1.0,phase_1,,,,,,,,,,,,,white,circle
155.0,1.0,1.0,0.0,1.0,1.0,470.4809099785052,1.0,1.0,phase_1,,,,,,,,,,,,,yellow,flipped triangle
0.0,2.0,0.0,0.0,1.0,1.0,435.5915290070697,1.0,1.0,phase_1,,,,,,,,,,,,,blue,hexagon
346.0,2.0,2.0,0.0,3.0,3.0,456.0333249974064,1.0,1.0,phase_1,,,,,,,,,,,,,blue,hexagon
1279.0,8.0,4.0,1.0,2.0,2.0,460.2726460434496,1.0,1.0,phase_1,,,,,,,,,,,,,gray,triangle
1323.0,4.0,4.0,0.0,3.0,3.0,554.2676619952545,2.0,1.0,phase_1,,,,,,,,,,,,,cyan,I
159.0,1.0,1.0,0.0,1.0,1.0,702.095829998143,2.0,1.0,phase_1,,,,,,,,,,,,,yellow,flipped triangle
0.0,7.0,0.0,1.0,3.0,3.0,347.0062129781581,2.0,1.0,phase_1,,,,,,,,,,,,,magenta,diamond
303.0,2.0,2.0,0.0,1.0,1.0,367.5906939897686,2.0,1.0,phase_1,,,,,,,,,,,,,blue,hexagon
339.0,2.0,2.0,0.0,4.0,4.0,677.9474390204996,2.0,1.0,phase_1,,,,,,,,,,,,,blue,hexagon
0.0,5.0,0.0,1.0,2.0,2.0,439.5652869716286,2.0,1.0,phase_1,,,,,,,,,,,,,green,cross
0.0,4.0,0.0,0.0,4.0,4.0,476.5585380373522,2.0,1.0,phase_1,,,,,,,,,,,,,cyan,I
1301.0,8.0,4.0,1.0,3.0,3.0,394.1958990180865,2.0,1.0,phase_1,,,,,,,,,,,,,gray,triangle
349.0,2.0,2.0,0.0,3.0,3.0,391.475181968417,2.0,1.0,phase_1,,,,,,,,,,,,,blue,hexagon
181.0,5.0,1.0,1.0,3.0,3.0,306.3274349551648,2.0,1.0,phase_1,,,,,,,,,,,,,green,cross
155.0,5.0,1.0,1.0,1.0,1.0,650.073816999793,2.0,1.0,phase_1,,,,,,,,,,,,,green,cross
1317.0,4.0,4.0,0.0,1.0,1.0,340.4496989678591,2.0,1.0,phase_1,,,,,,,,,,,,,cyan,I
0.0,3.0,0.0,0.0,1.0,1.0,288.2850320311263,2.0,1.0,phase_1,,,,,,,,,,,,,white,circle
641.0,3.0,3.0,0.0,4.0,4.0,397.4632319877855,2.0,1.0,phase_1,,,,,,,,,,,,,white,circle
651.0,7.0,3.0,1.0,3.0,3.0,338.5025360039435,2.0,1.0,phase_1,,,,,,,,,,,,,magenta,diamond
334.0,2.0,2.0,0.0,1.0,1.0,654.6390969888307,2.0,1.0,phase_1,,,,,,,,,,,,,blue,hexagon
1301.0,4.0,4.0,0.0,1.0,1.0,314.9035340175032,2.0,1.0,phase_1,,,,,,,,,,,,,cyan,I
153.0,5.0,1.0,1.0,1.0,1.0,314.6671840222552,2.0,1.0,phase_1,,,,,,,,,,,,,green,cross
1300.0,4.0,4.0,0.0,2.0,2.0,486.102759023197,2.0,1.0,phase_1,,,,,,,,,,,,,cyan,I
662.0,3.0,3.0,0.0,2.0,2.0,352.5753230205737,2.0,1.0,phase_1,,,,,,,,,,,,,white,circle
662.0,7.0,3.0,1.0,3.0,3.0,445.2941319905221,2.0,1.0,phase_1,,,,,,,,,,,,,magenta,diamond
319.0,2.0,2.0,0.0,3.0,3.0,345.7642970024608,2.0,1.0,phase_1,,,,,,,,,,,,,blue,hexagon
317.0,2.0,2.0,0.0,2.0,2.0,432.1812069974839,2.0,1.0,phase_1,,,,,,,,,,,,,blue,hexagon
670.0,3.0,3.0,0.0,2.0,2.0,403.2811820507049,2.0,1.0,phase_1,,,,,,,,,,,,,white,circle
349.0,2.0,2.0,0.0,1.0,1.0,387.0904299546964,2.0,1.0,phase_1,,,,,,,,,,,,,blue,hexagon
0.0,8.0,0.0,1.0,3.0,3.0,407.1017879759893,2.0,1.0,phase_1,,,,,,,,,,,,,gray,triangle
0.0,1.0,0.0,0.0,4.0,4.0,545.6746150157414,2.0,1.0,phase_1,,,,,,,,,,,,,yellow,flipped triangle
655.0,7.0,3.0,1.0,1.0,1.0,518.4628170100041,2.0,1.0,phase_1,,,,,,,,,,,,,magenta,diamond
307.0,2.0,2.0,0.0,1.0,1.0,603.012158011552,2.0,1.0,phase_1,,,,,,,,,,,,,blue,hexagon
0.0,1.0,0.0,0.0,3.0,3.0,330.1299799932167,2.0,1.0,phase_1,,,,,,,,,,,,,yellow,flipped triangle
661.0,3.0,3.0,0.0,4.0,4.0,420.7486010272987,2.0,1.0,phase_1,,,,,,,,,,,,,white,circle
646.0,7.0,3.0,1.0,4.0,4.0,401.6945519833825,2.0,1.0,phase_1,,,,,,,,,,,,,magenta,diamond
1285.0,4.0,4.0,0.0,3.0,3.0,741.2573790061288,2.0,1.0,phase_1,,,,,,,,,,,,,cyan,I
640.0,7.0,3.0,1.0,1.0,1.0,564.2907959991135,2.0,1.0,phase_1,,,,,,,,,,,,,magenta,diamond
349.0,6.0,2.0,1.0,4.0,4.0,447.9988850071095,2.0,1.0,phase_1,,,,,,,,,,,,,orange,square
0.0,6.0,0.0,1.0,3.0,3.0,415.5764070455916,2.0,2.0,phase_1,,,,,,,,,,,,,orange,square
303.0,6.0,2.0,1.0,4.0,4.0,500.4302079905756,2.0,1.0,phase_1,,,,,,,,,,,,,orange,square
163.0,1.0,1.0,0.0,2.0,2.0,410.89992900379,2.0,1.0,phase_1,,,,,,,,,,,,,yellow,flipped triangle
0.0,8.0,0.0,1.0,1.0,1.0,453.661456995178,2.0,1.0,phase_1,,,,,,,,,,,,,gray,triangle
655.0,3.0,3.0,0.0,3.0,3.0,348.0944820330478,2.0,1.0,phase_1,,,,,,,,,,,,,white,circle
304.0,6.0,2.0,1.0,1.0,1.0,343.6252939864062,2.0,1.0,phase_1,,,,,,,,,,,,,orange,square
633.0,3.0,3.0,0.0,2.0,2.0,379.2906639864668,2.0,1.0,phase_1,,,,,,,,,,,,,white,circle
169.0,1.0,1.0,0.0,2.0,2.0,314.5460549858399,2.0,1.0,phase_1,,,,,,,,,,,,,yellow,flipped triangle
330.0,2.0,2.0,0.0,2.0,2.0,302.3701600031927,2.0,1.0,phase_1,,,,,,,,,,,,,blue,hexagon
346.0,6.0,2.0,1.0,3.0,3.0,417.8250360419042,2.0,1.0,phase_1,,,,,,,,,,,,,orange,square
174.0,5.0,1.0,1.0,2.0,2.0,494.6806250372901,2.0,1.0,phase_1,,,,,,,,,,,,,green,cross
313.0,2.0,2.0,0.0,1.0,1.0,746.2973659858108,2.0,1.0,phase_1,,,,,,,,,,,,,blue,hexagon
0.0,2.0,0.0,0.0,2.0,2.0,487.7140720491297,2.0,1.0,phase_1,,,,,,,,,,,,,blue,hexagon
1312.0,4.0,4.0,0.0,4.0,4.0,628.4459420130588,2.0,1.0,phase_1,,,,,,,,,,,,,cyan,I
1301.0,4.0,4.0,0.0,4.0,4.0,328.9760960033163,2.0,1.0,phase_1,,,,,,,,,,,,,cyan,I
634.0,7.0,3.0,1.0,1.0,1.0,528.0708870268427,2.0,1.0,phase_1,,,,,,,,,,,,,magenta,diamond
142.0,5.0,1.0,1.0,3.0,3.0,354.6524320263415,2.0,1.0,phase_1,,,,,,,,,,,,,green,cross
330.0,2.0,2.0,0.0,1.0,1.0,352.3565320065245,2.0,1.0,phase_1,,,,,,,,,,,,,blue,hexagon
642.0,7.0,3.0,1.0,2.0,2.0,420.7656049984507,2.0,1.0,phase_1,,,,,,,,,,,,,magenta,diamond
154.0,1.0,1.0,0.0,1.0,1.0,304.9121790099889,2.0,1.0,phase_1,,,,,,,,,,,,,yellow,flipped triangle
0.0,8.0,0.0,1.0,3.0,3.0,382.7685430296697,2.0,1.0,phase_1,,,,,,,,,,,,,gray,triangle
658.0,3.0,3.0,0.0,4.0,4.0,450.3345499979332,2.0,1.0,phase_1,,,,,,,,,,,,,white,circle
333.0,6.0,2.0,1.0,3.0,3.0,509.28349496098235,2.0,1.0,phase_1,,,,,,,,,,,,,orange,square
0.0,5.0,0.0,1.0,1.0,1.0,393.802302016411,2.0,1.0,phase_1,,,,,,,,,,,,,green,cross
141.0,1.0,1.0,0.0,4.0,4.0,390.7346309861168,2.0,1.0,phase_1,,,,,,,,,,,,,yellow,flipped triangle
1311.0,4.0,4.0,0.0,2.0,2.0,373.1693139998242,2.0,1.0,phase_1,,,,,,,,,,,,,cyan,I
305.0,6.0,2.0,1.0,2.0,2.0,304.6793149551376,2.0,1.0,phase_1,,,,,,,,,,,,,orange,square
325.0,6.0,2.0,1.0,1.0,1.0,364.6921450272202,2.0,1.0,phase_1,,,,,,,,,,,,,orange,square
345.0,6.0,2.0,1.0,3.0,3.0,346.3302669697441,2.0,1.0,phase_1,,,,,,,,,,,,,orange,square
643.0,3.0,3.0,0.0,1.0,1.0,403.2006040215492,2.0,2.0,phase_1,,,,,,,,,,,,,white,circle
0.0,5.0,0.0,1.0,1.0,1.0,361.2651640432887,2.0,1.0,phase_1,,,,,,,,,,,,,green,cross
172.0,5.0,1.0,1.0,4.0,4.0,382.5254259863868,2.0,1.0,phase_1,,,,,,,,,,,,,green,cross
1299.0,4.0,4.0,0.0,2.0,2.0,403.0499429791234,2.0,1.0,phase_1,,,,,,,,,,,,,cyan,I
0.0,4.0,0.0,0.0,4.0,4.0,438.732490001712,2.0,1.0,phase_1,,,,,,,,,,,,,cyan,I
0.0,2.0,0.0,0.0,2.0,2.0,355.547490005847,2.0,1.0,phase_1,,,,,,,,,,,,,blue,hexagon
0.0,6.0,0.0,1.0,3.0,3.0,392.6516990177333,2.0,1.0,phase_1,,,,,,,,,,,,,orange,square
1290.0,8.0,4.0,1.0,2.0,2.0,349.7127540176734,2.0,1.0,phase_1,,,,,,,,,,,,,gray,triangle
666.0,3.0,3.0,0.0,1.0,1.0,385.5307759949937,2.0,1.0,phase_1,,,,,,,,,,,,,white,circle
312.0,6.0,2.0,1.0,1.0,1.0,364.4786129589192,2.0,1.0,phase_1,,,,,,,,,,,,,orange,square
324.0,6.0,2.0,1.0,3.0,3.0,347.490508982446,2.0,1.0,phase_1,,,,,,,,,,,,,orange,square
1288.0,8.0,4.0,1.0,3.0,3.0,558.466850023251,2.0,1.0,phase_1,,,,,,,,,,,,,gray,triangle
315.0,2.0,2.0,0.0,2.0,2.0,338.107832998503,2.0,1.0,phase_1,,,,,,,,,,,,,blue,hexagon
0.0,6.0,0.0,1.0,2.0,2.0,353.1593260122463,2.0,1.0,phase_1,,,,,,,,,,,,,orange,square
147.0,1.0,1.0,0.0,3.0,3.0,411.6273650433868,2.0,1.0,phase_1,,,,,,,,,,,,,yellow,flipped triangle
1279.0,4.0,4.0,0.0,1.0,1.0,394.2973599769175,2.0,1.0,phase_1,,,,,,,,,,,,,cyan,I
158.0,5.0,1.0,1.0,1.0,1.0,343.5214470373466,2.0,1.0,phase_1,,,,,,,,,,,,,green,cross
328.0,6.0,2.0,1.0,2.0,2.0,345.8978979615494,2.0,1.0,phase_1,,,,,,,,,,,,,orange,square
328.0,2.0,2.0,0.0,2.0,2.0,320.5197599600069,2.0,1.0,phase_1,,,,,,,,,,,,,blue,hexagon
0.0,7.0,0.0,1.0,1.0,1.0,690.1759880129248,2.0,1.0,phase_1,,,,,,,,,,,,,magenta,diamond
186.0,5.0,1.0,1.0,3.0,3.0,440.7008339767344,2.0,1.0,phase_1,,,,,,,,,,,,,green,cross
644.0,7.0,3.0,1.0,3.0,3.0,323.8061770098284,2.0,1.0,phase_1,,,,,,,,,,,,,magenta,diamond
642.0,3.0,3.0,0.0,4.0,4.0,408.9545410242863,2.0,1.0,phase_1,,,,,,,,,,,,,white,circle
145.0,5.0,1.0,1.0,2.0,2.0,429.545747989323,2.0,1.0,phase_1,,,,,,,,,,,,,green,cross
328.0,2.0,2.0,0.0,1.0,1.0,674.5502130361274,2.0,1.0,phase_1,,,,,,,,,,,,,blue,hexagon
333.0,2.0,2.0,0.0,3.0,3.0,342.9492089780979,2.0,1.0,phase_1,,,,,,,,,,,,,blue,hexagon
308.0,6.0,2.0,1.0,1.0,1.0,410.9961080248467,2.0,1.0,phase_1,,,,,,,,,,,,,orange,square
1319.0,8.0,4.0,1.0,3.0,3.0,418.5488999937661,2.0,1.0,phase_1,,,,,,,,,,,,,gray,triangle
0.0,2.0,0.0,0.0,1.0,1.0,399.1313380538486,2.0,1.0,phase_1,,,,,,,,,,,,,blue,hexagon
340.0,2.0,2.0,0.0,4.0,4.0,513.0932250176556,2.0,1.0,phase_1,,,,,,,,,,,,,blue,hexagon
1311.0,8.0,4.0,1.0,3.0,3.0,390.7991930027492,2.0,1.0,phase_1,,,,,,,,,,,,,gray,triangle
648.0,7.0,3.0,1.0,4.0,4.0,364.2525909817777,2.0,1.0,phase_1,,,,,,,,,,,,,magenta,diamond
169.0,5.0,1.0,1.0,2.0,2.0,393.2674630195834,2.0,1.0,phase_1,,,,,,,,,,,,,green,cross
1290.0,4.0,4.0,0.0,1.0,1.0,419.6262810146436,2.0,1.0,phase_1,,,,,,,,,,,,,cyan,I
660.0,3.0,3.0,0.0,2.0,2.0,346.7466569854878,2.0,1.0,phase_1,,,,,,,,,,,,,white,circle
177.0,1.0,1.0,0.0,2.0,2.0,340.977600950282,2.0,1.0,phase_1,,,,,,,,,,,,,yellow,flipped triangle
643.0,7.0,3.0,1.0,2.0,2.0,730.0092310179025,3.0,2.0,phase_1,,,,,,,,,,,,,magenta,diamond
1298.0,8.0,4.0,1.0,3.0,3.0,479.4965729815885,3.0,1.0,phase_1,,,,,,,,,,,,,gray,triangle
350.0,2.0,2.0,0.0,4.0,4.0,428.5830510198138,3.0,1.0,phase_1,,,,,,,,,,,,,blue,hexagon
0.0,1.0,0.0,0.0,1.0,1.0,490.4347429983318,3.0,1.0,phase_1,,,,,,,,,,,,,yellow,flipped triangle
0.0,5.0,0.0,1.0,4.0,4.0,478.5140810417942,3.0,1.0,phase_1,,,,,,,,,,,,,green,cross
323.0,2.0,2.0,0.0,2.0,2.0,449.7913459781557,3.0,1.0,phase_1,,,,,,,,,,,,,blue,hexagon
0.0,4.0,0.0,0.0,1.0,1.0,635.429906018544,3.0,2.0,phase_1,,,,,,,,,,,,,cyan,I
1322.0,4.0,4.0,0.0,4.0,4.0,543.8131169648841,3.0,1.0,phase_1,,,,,,,,,,,,,cyan,I
173.0,5.0,1.0,1.0,1.0,1.0,572.06547196256,3.0,1.0,phase_1,,,,,,,,,,,,,green,cross
639.0,3.0,3.0,0.0,4.0,4.0,433.5117989685386,3.0,1.0,phase_1,,,,,,,,,,,,,white,circle
0.0,1.0,0.0,0.0,3.0,3.0,367.1246290323324,3.0,1.0,phase_1,,,,,,,,,,,,,yellow,flipped triangle
666.0,7.0,3.0,1.0,1.0,1.0,954.4409610098228,3.0,1.0,phase_1,,,,,,,,,,,,,magenta,diamond
1290.0,8.0,4.0,1.0,2.0,2.0,624.5882450020872,3.0,1.0,phase_1,,,,,,,,,,,,,gray,triangle
306.0,2.0,2.0,0.0,2.0,2.0,379.0957129676826,3.0,1.0,phase_1,,,,,,,,,,,,,blue,hexagon
634.0,7.0,3.0,1.0,1.0,1.0,560.1084560039453,3.0,1.0,phase_1,,,,,,,,,,,,,magenta,diamond
0.0,2.0,0.0,0.0,4.0,4.0,470.8024759893305,3.0,1.0,phase_1,,,,,,,,,,,,,blue,hexagon
323.0,6.0,2.0,1.0,3.0,3.0,361.4086689776741,3.0,1.0,phase_1,,,,,,,,,,,,,orange,square
183.0,1.0,1.0,0.0,3.0,3.0,381.835656997282,3.0,1.0,phase_1,,,,,,,,,,,,,yellow,flipped triangle
185.0,5.0,1.0,1.0,3.0,3.0,347.0701479818672,3.0,1.0,phase_1,,,,,,,,,,,,,green,cross
0.0,5.0,0.0,1.0,3.0,3.0,362.2521180077456,3.0,1.0,phase_1,,,,,,,,,,,,,green,cross
177.0,5.0,1.0,1.0,3.0,3.0,364.3559329793788,3.0,1.0,phase_1,,,,,,,,,,,,,green,cross
0.0,7.0,0.0,1.0,4.0,4.0,395.475436002016,3.0,1.0,phase_1,,,,,,,,,,,,,magenta,diamond
145.0,5.0,1.0,1.0,4.0,4.0,397.480267973151,3.0,1.0,phase_1,,,,,,,,,,,,,green,cross
330.0,6.0,2.0,1.0,4.0,4.0,348.6835510120727,3.0,1.0,phase_1,,,,,,,,,,,,,orange,square
314.0,6.0,2.0,1.0,3.0,3.0,350.4639700404368,3.0,1.0,phase_1,,,,,,,,,,,,,orange,square
176.0,1.0,1.0,0.0,4.0,4.0,405.9117849683389,3.0,1.0,phase_1,,,,,,,,,,,,,yellow,flipped triangle
171.0,5.0,1.0,1.0,2.0,2.0,457.093489007093,3.0,1.0,phase_1,,,,,,,,,,,,,green,cross
173.0,1.0,1.0,0.0,3.0,3.0,326.316118997056,3.0,1.0,phase_1,,,,,,,,,,,,,yellow,flipped triangle
1312.0,8.0,4.0,1.0,1.0,1.0,610.4326850036159,3.0,1.0,phase_1,,,,,,,,,,,,,gray,triangle
1304.0,4.0,4.0,0.0,1.0,1.0,492.223373032175,3.0,1.0,phase_1,,,,,,,,,,,,,cyan,I
177.0,1.0,1.0,0.0,3.0,3.0,475.0235739629715,3.0,1.0,phase_1,,,,,,,,,,,,,yellow,flipped triangle
339.0,6.0,2.0,1.0,2.0,2.0,429.4447799911722,3.0,1.0,phase_1,,,,,,,,,,,,,orange,square
661.0,7.0,3.0,1.0,3.0,3.0,379.5776090119034,3.0,1.0,phase_1,,,,,,,,,,,,,magenta,diamond
0.0,4.0,0.0,0.0,4.0,4.0,446.5215150266886,3.0,1.0,phase_1,,,,,,,,,,,,,cyan,I
1307.0,8.0,4.0,1.0,1.0,1.0,637.4377140309662,3.0,1.0,phase_1,,,,,,,,,,,,,gray,triangle
644.0,3.0,3.0,0.0,3.0,3.0,376.0911279823631,3.0,1.0,phase_1,,,,,,,,,,,,,white,circle
1275.0,8.0,4.0,1.0,3.0,3.0,374.3314210441895,3.0,1.0,phase_1,,,,,,,,,,,,,gray,triangle
633.0,7.0,3.0,1.0,3.0,3.0,329.1988619603216,3.0,1.0,phase_1,,,,,,,,,,,,,magenta,diamond
0.0,2.0,0.0,0.0,3.0,3.0,405.9879420092329,3.0,1.0,phase_1,,,,,,,,,,,,,blue,hexagon
1289.0,4.0,4.0,0.0,1.0,1.0,671.454404015094,3.0,2.0,phase_1,,,,,,,,,,,,,cyan,I
336.0,2.0,2.0,0.0,1.0,1.0,420.4377520363778,3.0,1.0,phase_1,,,,,,,,,,,,,blue,hexagon
1310.0,4.0,4.0,0.0,4.0,4.0,593.0291960248724,3.0,1.0,phase_1,,,,,,,,,,,,,cyan,I
1322.0,8.0,4.0,1.0,1.0,1.0,680.0602430012077,3.0,1.0,phase_1,,,,,,,,,,,,,gray,triangle
1320.0,4.0,4.0,0.0,4.0,4.0,802.4445129558444,3.0,1.0,phase_1,,,,,,,,,,,,,cyan,I
321.0,6.0,2.0,1.0,3.0,3.0,334.6858540317043,3.0,1.0,phase_1,,,,,,,,,,,,,orange,square
309.0,6.0,2.0,1.0,4.0,4.0,451.1495339684188,3.0,1.0,phase_1,,,,,,,,,,,,,orange,square
644.0,3.0,3.0,0.0,2.0,2.0,391.649971017614,3.0,1.0,phase_1,,,,,,,,,,,,,white,circle
0.0,8.0,0.0,1.0,3.0,3.0,359.0779830119572,3.0,1.0,phase_1,,,,,,,,,,,,,gray,triangle
184.0,1.0,1.0,0.0,1.0,1.0,429.1554929804988,3.0,2.0,phase_1,,,,,,,,,,,,,yellow,flipped triangle
1286.0,8.0,4.0,1.0,1.0,1.0,467.4167259945534,3.0,1.0,phase_1,,,,,,,,,,,,,gray,triangle
1298.0,4.0,4.0,0.0,2.0,2.0,366.6936020017601,3.0,1.0,phase_1,,,,,,,,,,,,,cyan,I
334.0,2.0,2.0,0.0,3.0,3.0,494.1537959966808,3.0,1.0,phase_1,,,,,,,,,,,,,blue,hexagon
169.0,1.0,1.0,0.0,3.0,3.0,546.3768859626725,3.0,1.0,phase_1,,,,,,,,,,,,,yellow,flipped triangle
326.0,6.0,2.0,1.0,4.0,4.0,463.1637209677137,3.0,1.0,phase_1,,,,,,,,,,,,,orange,square
0.0,1.0,0.0,0.0,3.0,3.0,320.3226830228232,3.0,1.0,phase_1,,,,,,,,,,,,,yellow,flipped triangle
174.0,1.0,1.0,0.0,3.0,3.0,344.2593840300105,3.0,1.0,phase_1,,,,,,,,,,,,,yellow,flipped triangle
0.0,5.0,0.0,1.0,2.0,2.0,426.4021939598024,3.0,1.0,phase_1,,,,,,,,,,,,,green,cross
0.0,7.0,0.0,1.0,4.0,4.0,471.2243020185269,3.0,1.0,phase_1,,,,,,,,,,,,,magenta,diamond
0.0,8.0,0.0,1.0,2.0,2.0,348.5984189901501,3.0,1.0,phase_1,,,,,,,,,,,,,gray,triangle
1283.0,8.0,4.0,1.0,1.0,1.0,577.681212045718,3.0,1.0,phase_1,,,,,,,,,,,,,gray,triangle
158.0,5.0,1.0,1.0,3.0,3.0,692.5270410138182,3.0,1.0,phase_1,,,,,,,,,,,,,green,cross
0.0,7.0,0.0,1.0,3.0,3.0,379.9958199961111,3.0,1.0,phase_1,,,,,,,,,,,,,magenta,diamond
0.0,3.0,0.0,0.0,1.0,1.0,414.7868729778565,3.0,1.0,phase_1,,,,,,,,,,,,,white,circle
345.0,2.0,2.0,0.0,4.0,4.0,683.6871060077101,3.0,1.0,phase_1,,,,,,,,,,,,,blue,hexagon
334.0,6.0,2.0,1.0,1.0,1.0,551.0737939621322,3.0,1.0,phase_1,,,,,,,,,,,,,orange,square
1285.0,8.0,4.0,1.0,4.0,4.0,485.0314000505022,3.0,1.0,phase_1,,,,,,,,,,,,,gray,triangle
172.0,5.0,1.0,1.0,1.0,1.0,456.247529014945,3.0,1.0,phase_1,,,,,,,,,,,,,green,cross
143.0,1.0,1.0,0.0,4.0,4.0,444.4361900095828,3.0,1.0,phase_1,,,,,,,,,,,,,yellow,flipped triangle
181.0,1.0,1.0,0.0,2.0,2.0,443.5991380014457,3.0,1.0,phase_1,,,,,,,,,,,,,yellow,flipped triangle
140.0,1.0,1.0,0.0,4.0,4.0,401.2321009649895,3.0,1.0,phase_1,,,,,,,,,,,,,yellow,flipped triangle
0.0,4.0,0.0,0.0,4.0,4.0,426.9754160195589,3.0,1.0,phase_1,,,,,,,,,,,,,cyan,I
651.0,3.0,3.0,0.0,3.0,3.0,331.8813320365734,3.0,2.0,phase_1,,,,,,,,,,,,,white,circle
658.0,3.0,3.0,0.0,3.0,3.0,328.5090740537271,3.0,1.0,phase_1,,,,,,,,,,,,,white,circle
306.0,6.0,2.0,1.0,2.0,2.0,396.6116940136999,3.0,1.0,phase_1,,,,,,,,,,,,,orange,square
309.0,2.0,2.0,0.0,3.0,3.0,345.4707529745064,3.0,1.0,phase_1,,,,,,,,,,,,,blue,hexagon
0.0,1.0,0.0,0.0,1.0,1.0,644.3855770048685,3.0,2.0,phase_1,,,,,,,,,,,,,yellow,flipped triangle
0.0,3.0,0.0,0.0,4.0,4.0,522.1804640023038,3.0,1.0,phase_1,,,,,,,,,,,,,white,circle
0.0,7.0,0.0,1.0,1.0,1.0,396.609894989524,3.0,1.0,phase_1,,,,,,,,,,,,,magenta,diamond
627.0,7.0,3.0,1.0,4.0,4.0,465.4627190320752,3.0,1.0,phase_1,,,,,,,,,,,,,magenta,diamond
0.0,6.0,0.0,1.0,1.0,1.0,464.3027539714239,3.0,1.0,phase_1,,,,,,,,,,,,,orange,square
1322.0,8.0,4.0,1.0,2.0,2.0,490.8394779777154,3.0,1.0,phase_1,,,,,,,,,,,,,gray,triangle
1301.0,8.0,4.0,1.0,4.0,4.0,399.2810829658992,3.0,1.0,phase_1,,,,,,,,,,,,,gray,triangle
662.0,7.0,3.0,1.0,3.0,3.0,387.6769569469616,3.0,1.0,phase_1,,,,,,,,,,,,,magenta,diamond
177.0,5.0,1.0,1.0,4.0,4.0,313.8742660521529,3.0,1.0,phase_1,,,,,,,,,,,,,green,cross
1322.0,4.0,4.0,0.0,1.0,1.0,391.4950829930603,3.0,1.0,phase_1,,,,,,,,,,,,,cyan,I
340.0,6.0,2.0,1.0,4.0,4.0,409.6987509983592,3.0,1.0,phase_1,,,,,,,,,,,,,orange,square
658.0,7.0,3.0,1.0,4.0,4.0,373.9519420196302,3.0,1.0,phase_1,,,,,,,,,,,,,magenta,diamond
666.0,3.0,3.0,0.0,2.0,2.0,450.4726130398921,3.0,1.0,phase_1,,,,,,,,,,,,,white,circle
308.0,2.0,2.0,0.0,4.0,4.0,410.4631979716941,3.0,1.0,phase_1,,,,,,,,,,,,,blue,hexagon
0.0,3.0,0.0,0.0,4.0,4.0,388.4348249994218,3.0,1.0,phase_1,,,,,,,,,,,,,white,circle
0.0,3.0,0.0,0.0,2.0,2.0,623.9998959936202,3.0,1.0,phase_1,,,,,,,,,,,,,white,circle
150.0,1.0,1.0,0.0,4.0,4.0,448.2553729903884,3.0,1.0,phase_1,,,,,,,,,,,,,yellow,flipped triangle
0.0,1.0,0.0,0.0,1.0,1.0,492.5300169852562,3.0,1.0,phase_1,,,,,,,,,,,,,yellow,flipped triangle
147.0,1.0,1.0,0.0,2.0,2.0,387.5243709771894,3.0,2.0,phase_1,,,,,,,,,,,,,yellow,flipped triangle
317.0,6.0,2.0,1.0,2.0,2.0,362.0722849736921,3.0,1.0,phase_1,,,,,,,,,,,,,orange,square
644.0,7.0,3.0,1.0,2.0,2.0,404.7827729955315,3.0,1.0,phase_1,,,,,,,,,,,,,magenta,diamond
147.0,5.0,1.0,1.0,4.0,4.0,449.6686200145632,3.0,1.0,phase_1,,,,,,,,,,,,,green,cross
672.0,7.0,3.0,1.0,3.0,3.0,517.7084589959122,3.0,1.0,phase_1,,,,,,,,,,,,,magenta,diamond
0.0,8.0,0.0,1.0,2.0,2.0,330.7235779939219,3.0,1.0,phase_1,,,,,,,,,,,,,gray,triangle
147.0,1.0,1.0,0.0,1.0,1.0,622.9494049912319,3.0,1.0,phase_1,,,,,,,,,,,,,yellow,flipped triangle
1311.0,4.0,4.0,0.0,4.0,4.0,540.6482110265642,4.0,1.0,phase_1,,,,,,,,,,,,,cyan,I
303.0,2.0,2.0,0.0,3.0,3.0,412.2605349984951,4.0,1.0,phase_1,,,,,,,,,,,,,blue,hexagon
1279.0,4.0,4.0,0.0,2.0,2.0,414.2202400253154,4.0,1.0,phase_1,,,,,,,,,,,,,cyan,I
165.0,5.0,1.0,1.0,2.0,2.0,420.4717990360223,4.0,1.0,phase_1,,,,,,,,,,,,,green,cross
330.0,6.0,2.0,1.0,2.0,2.0,351.8709699856117,4.0,1.0,phase_1,,,,,,,,,,,,,orange,square
142.0,1.0,1.0,0.0,3.0,3.0,655.0648270058446,4.0,1.0,phase_1,,,,,,,,,,,,,yellow,flipped triangle
0.0,3.0,0.0,0.0,2.0,2.0,408.7763520074077,4.0,1.0,phase_1,,,,,,,,,,,,,white,circle
0.0,2.0,0.0,0.0,1.0,1.0,832.0385449915193,4.0,1.0,phase_1,,,,,,,,,,,,,blue,hexagon
325.0,2.0,2.0,0.0,4.0,4.0,411.1448210314847,4.0,1.0,phase_1,,,,,,,,,,,,,blue,hexagon
627.0,7.0,3.0,1.0,1.0,1.0,385.5163519619964,4.0,1.0,phase_1,,,,,,,,,,,,,magenta,diamond
173.0,5.0,1.0,1.0,3.0,3.0,539.4681949983351,4.0,1.0,phase_1,,,,,,,,,,,,,green,cross
675.0,7.0,3.0,1.0,2.0,2.0,386.1221999977715,4.0,1.0,phase_1,,,,,,,,,,,,,magenta,diamond
1286.0,4.0,4.0,0.0,2.0,2.0,516.1613940144889,4.0,1.0,phase_1,,,,,,,,,,,,,cyan,I
146.0,5.0,1.0,1.0,3.0,3.0,393.7996859895065,4.0,1.0,phase_1,,,,,,,,,,,,,green,cross
303.0,2.0,2.0,0.0,2.0,2.0,373.3538190135732,4.0,1.0,phase_1,,,,,,,,,,,,,blue,hexagon
1308.0,8.0,4.0,1.0,2.0,2.0,378.5188490292057,4.0,1.0,phase_1,,,,,,,,,,,,,gray,triangle
144.0,5.0,1.0,1.0,3.0,3.0,479.2251479811966,4.0,1.0,phase_1,,,,,,,,,,,,,green,cross
306.0,6.0,2.0,1.0,3.0,3.0,484.2320460011251,4.0,1.0,phase_1,,,,,,,,,,,,,orange,square
141.0,5.0,1.0,1.0,1.0,1.0,554.6857860172167,4.0,1.0,phase_1,,,,,,,,,,,,,green,cross
1289.0,8.0,4.0,1.0,1.0,1.0,476.4099559979513,4.0,1.0,phase_1,,,,,,,,,,,,,gray,triangle
1317.0,8.0,4.0,1.0,2.0,2.0,553.146164980717,4.0,1.0,phase_1,,,,,,,,,,,,,gray,triangle
349.0,6.0,2.0,1.0,2.0,2.0,367.556240002159,4.0,1.0,phase_1,,,,,,,,,,,,,orange,square
315.0,6.0,2.0,1.0,3.0,3.0,501.5532830148004,4.0,1.0,phase_1,,,,,,,,,,,,,orange,square
343.0,6.0,2.0,1.0,1.0,1.0,561.6922180051915,4.0,1.0,phase_1,,,,,,,,,,,,,orange,square
655.0,3.0,3.0,0.0,2.0,2.0,372.4465399864129,4.0,1.0,phase_1,,,,,,,,,,,,,white,circle
146.0,1.0,1.0,0.0,4.0,4.0,426.6297650174238,4.0,1.0,phase_1,,,,,,,,,,,,,yellow,flipped triangle
141.0,1.0,1.0,0.0,2.0,2.0,437.7328100381419,4.0,1.0,phase_1,,,,,,,,,,,,,yellow,flipped triangle
638.0,7.0,3.0,1.0,2.0,2.0,370.5984990228899,4.0,1.0,phase_1,,,,,,,,,,,,,magenta,diamond
1322.0,4.0,4.0,0.0,3.0,3.0,375.6156889721751,4.0,1.0,phase_1,,,,,,,,,,,,,cyan,I
0.0,6.0,0.0,1.0,4.0,4.0,453.3072439953685,4.0,1.0,phase_1,,,,,,,,,,,,,orange,square
662.0,3.0,3.0,0.0,4.0,4.0,488.1242800038308,4.0,1.0,phase_1,,,,,,,,,,,,,white,circle
1322.0,8.0,4.0,1.0,4.0,4.0,444.5222030044533,4.0,1.0,phase_1,,,,,,,,,,,,,gray,triangle
336.0,6.0,2.0,1.0,4.0,4.0,440.858593035955,4.0,1.0,phase_1,,,,,,,,,,,,,orange,square
184.0,5.0,1.0,1.0,4.0,4.0,470.1755039859563,4.0,1.0,phase_1,,,,,,,,,,,,,green,cross
658.0,7.0,3.0,1.0,2.0,2.0,426.7209540121257,4.0,1.0,phase_1,,,,,,,,,,,,,magenta,diamond
0.0,7.0,0.0,1.0,2.0,2.0,495.1604900415987,4.0,1.0,phase_1,,,,,,,,,,,,,magenta,diamond
176.0,5.0,1.0,1.0,4.0,4.0,363.523963955231,4.0,1.0,phase_1,,,,,,,,,,,,,green,cross
347.0,2.0,2.0,0.0,3.0,3.0,450.0364880077541,4.0,1.0,phase_1,,,,,,,,,,,,,blue,hexagon
1319.0,8.0,4.0,1.0,1.0,1.0,757.6193290296942,4.0,1.0,phase_1,,,,,,,,,,,,,gray,triangle
1299.0,8.0,4.0,1.0,1.0,1.0,326.6711619799025,4.0,1.0,phase_1,,,,,,,,,,,,,gray,triangle
0.0,5.0,0.0,1.0,1.0,1.0,366.608205018565,4.0,1.0,phase_1,,,,,,,,,,,,,green,cross
640.0,3.0,3.0,0.0,3.0,3.0,459.330250043422,4.0,1.0,phase_1,,,,,,,,,,,,,white,circle
172.0,1.0,1.0,0.0,3.0,3.0,328.1613099970855,4.0,1.0,phase_1,,,,,,,,,,,,,yellow,flipped triangle
144.0,1.0,1.0,0.0,2.0,2.0,429.9880509497598,4.0,1.0,phase_1,,,,,,,,,,,,,yellow,flipped triangle
171.0,1.0,1.0,0.0,4.0,4.0,408.3747250260785,4.0,1.0,phase_1,,,,,,,,,,,,,yellow,flipped triangle
0.0,3.0,0.0,0.0,3.0,3.0,382.8053540200926,4.0,1.0,phase_1,,,,,,,,,,,,,white,circle
669.0,7.0,3.0,1.0,4.0,4.0,393.1965620140545,4.0,1.0,phase_1,,,,,,,,,,,,,magenta,diamond
143.0,5.0,1.0,1.0,3.0,3.0,342.5598239991814,4.0,1.0,phase_1,,,,,,,,,,,,,green,cross
0.0,6.0,0.0,1.0,2.0,2.0,420.4058609902859,4.0,1.0,phase_1,,,,,,,,,,,,,orange,square
627.0,7.0,3.0,1.0,3.0,3.0,384.4103590236045,4.0,1.0,phase_1,,,,,,,,,,,,,magenta,diamond
0.0,7.0,0.0,1.0,1.0,1.0,435.8148790197447,4.0,1.0,phase_1,,,,,,,,,,,,,magenta,diamond
0.0,6.0,0.0,1.0,2.0,2.0,450.0469589838758,4.0,1.0,phase_1,,,,,,,,,,,,,orange,square
1304.0,8.0,4.0,1.0,1.0,1.0,453.0715110013261,4.0,1.0,phase_1,,,,,,,,,,,,,gray,triangle
645.0,7.0,3.0,1.0,4.0,4.0,393.3487900067121,4.0,1.0,phase_1,,,,,,,,,,,,,magenta,diamond
638.0,3.0,3.0,0.0,1.0,1.0,511.0406100284308,4.0,1.0,phase_1,,,,,,,,,,,,,white,circle
0.0,7.0,0.0,1.0,4.0,4.0,402.5483070290647,4.0,1.0,phase_1,,,,,,,,,,,,,magenta,diamond
673.0,7.0,3.0,1.0,2.0,2.0,406.8628969835117,4.0,1.0,phase_1,,,,,,,,,,,,,magenta,diamond
172.0,1.0,1.0,0.0,3.0,3.0,364.6993720321916,4.0,1.0,phase_1,,,,,,,,,,,,,yellow,flipped triangle
632.0,3.0,3.0,0.0,3.0,3.0,393.1678569642827,4.0,1.0,phase_1,,,,,,,,,,,,,white,circle
1296.0,4.0,4.0,0.0,2.0,2.0,373.2647050055675,4.0,1.0,phase_1,,,,,,,,,,,,,cyan,I
1319.0,4.0,4.0,0.0,3.0,3.0,364.0584640088491,4.0,1.0,phase_1,,,,,,,,,,,,,cyan,I
154.0,5.0,1.0,1.0,2.0,2.0,367.0737680513412,4.0,1.0,phase_1,,,,,,,,,,,,,green,cross
642.0,3.0,3.0,0.0,2.0,2.0,346.7591229709796,4.0,1.0,phase_1,,,,,,,,,,,,,white,circle
1283.0,4.0,4.0,0.0,4.0,4.0,399.6327230124734,4.0,1.0,phase_1,,,,,,,,,,,,,cyan,I
153.0,1.0,1.0,0.0,1.0,1.0,508.9778769761324,4.0,1.0,phase_1,,,,,,,,,,,,,yellow,flipped triangle
158.0,1.0,1.0,0.0,2.0,2.0,393.8476800103672,4.0,1.0,phase_1,,,,,,,,,,,,,yellow,flipped triangle
0.0,4.0,0.0,0.0,3.0,3.0,382.5676470296457,4.0,1.0,phase_1,,,,,,,,,,,,,cyan,I
1280.0,8.0,4.0,1.0,4.0,4.0,491.3706450024619,4.0,1.0,phase_1,,,,,,,,,,,,,gray,triangle
639.0,3.0,3.0,0.0,2.0,2.0,529.8024270450696,4.0,1.0,phase_1,,,,,,,,,,,,,white,circle
304.0,2.0,2.0,0.0,2.0,2.0,355.7247269782237,4.0,1.0,phase_1,,,,,,,,,,,,,blue,hexagon
1307.0,4.0,4.0,0.0,3.0,3.0,432.1206160238944,4.0,1.0,phase_1,,,,,,,,,,,,,cyan,I
1317.0,4.0,4.0,0.0,3.0,3.0,382.1833250112831,4.0,1.0,phase_1,,,,,,,,,,,,,cyan,I
639.0,7.0,3.0,1.0,4.0,4.0,428.2687699887901,4.0,1.0,phase_1,,,,,,,,,,,,,magenta,diamond
150.0,5.0,1.0,1.0,4.0,4.0,455.3473200066946,4.0,1.0,phase_1,,,,,,,,,,,,,green,cross
185.0,1.0,1.0,0.0,1.0,1.0,410.6415020069107,4.0,1.0,phase_1,,,,,,,,,,,,,yellow,flipped triangle
1289.0,4.0,4.0,0.0,4.0,4.0,362.4913960229605,4.0,1.0,phase_1,,,,,,,,,,,,,cyan,I
347.0,6.0,2.0,1.0,1.0,1.0,558.0395750002936,4.0,1.0,phase_1,,,,,,,,,,,,,orange,square
649.0,7.0,3.0,1.0,1.0,1.0,345.2394400374032,4.0,1.0,phase_1,,,,,,,,,,,,,magenta,diamond
140.0,5.0,1.0,1.0,2.0,2.0,581.7450410104357,4.0,1.0,phase_1,,,,,,,,,,,,,green,cross
141.0,5.0,1.0,1.0,1.0,1.0,618.6863559996709,4.0,1.0,phase_1,,,,,,,,,,,,,green,cross
0.0,8.0,0.0,1.0,4.0,4.0,465.1585529791191,4.0,1.0,phase_1,,,,,,,,,,,,,gray,triangle
163.0,5.0,1.0,1.0,2.0,2.0,395.5253879539668,4.0,1.0,phase_1,,,,,,,,,,,,,green,cross
1291.0,8.0,4.0,1.0,4.0,4.0,375.6929200026206,4.0,1.0,phase_1,,,,,,,,,,,,,gray,triangle
639.0,7.0,3.0,1.0,1.0,1.0,500.98320201504976,4.0,1.0,phase_1,,,,,,,,,,,,,magenta,diamond
1319.0,8.0,4.0,1.0,2.0,2.0,363.469666976016,4.0,1.0,phase_1,,,,,,,,,,,,,gray,triangle
674.0,3.0,3.0,0.0,3.0,3.0,390.2470269822515,4.0,1.0,phase_1,,,,,,,,,,,,,white,circle
147.0,5.0,1.0,1.0,1.0,1.0,346.3786130305379,4.0,1.0,phase_1,,,,,,,,,,,,,green,cross
673.0,3.0,3.0,0.0,1.0,1.0,633.8415570207871,4.0,1.0,phase_1,,,,,,,,,,,,,white,circle
182.0,5.0,1.0,1.0,1.0,1.0,446.5919240028597,4.0,1.0,phase_1,,,,,,,,,,,,,green,cross
0.0,1.0,0.0,0.0,3.0,3.0,417.0452669495716,4.0,1.0,phase_1,,,,,,,,,,,,,yellow,flipped triangle
670.0,7.0,3.0,1.0,2.0,2.0,445.1337589998729,4.0,1.0,phase_1,,,,,,,,,,,,,magenta,diamond
1311.0,8.0,4.0,1.0,2.0,2.0,337.3537849984132,4.0,1.0,phase_1,,,,,,,,,,,,,gray,triangle
1310.0,8.0,4.0,1.0,3.0,3.0,385.0488640018739,4.0,1.0,phase_1,,,,,,,,,,,,,gray,triangle
674.0,7.0,3.0,1.0,3.0,3.0,387.7243290189653,4.0,1.0,phase_1,,,,,,,,,,,,,magenta,diamond
0.0,4.0,0.0,0.0,1.0,1.0,586.0317120095715,4.0,1.0,phase_1,,,,,,,,,,,,,cyan,I
0.0,3.0,0.0,0.0,3.0,3.0,452.4248269735835,4.0,1.0,phase_1,,,,,,,,,,,,,white,circle
634.0,3.0,3.0,0.0,3.0,3.0,459.7035789629444,4.0,1.0,phase_1,,,,,,,,,,,,,white,circle
0.0,6.0,0.0,1.0,2.0,2.0,423.921656969469,4.0,1.0,phase_1,,,,,,,,,,,,,orange,square
319.0,6.0,2.0,1.0,4.0,4.0,514.364939997904,4.0,1.0,phase_1,,,,,,,,,,,,,orange,square
1319.0,4.0,4.0,0.0,1.0,1.0,286.8929200340062,4.0,1.0,phase_1,,,,,,,,,,,,,cyan,I
0.0,3.0,3.0,0.0,6.0,6.0,391.2352820043452,1.0,1.0,phase_2,go,250.0,250.0,1.0,,,,,,,,,white,circle
0.0,6.0,2.0,1.0,5.0,0.0,0.0,1.0,1.0,phase_2,stop,250.0,250.0,4.0,,,,,,,,,orange,square
0.0,6.0,2.0,1.0,6.0,0.0,0.0,1.0,1.0,phase_2,stop,300.0,250.0,4.0,,,,,,,,,orange,square
0.0,3.0,3.0,0.0,5.0,5.0,555.503093986772,1.0,1.0,phase_2,go,300.0,300.0,1.0,,,,,,,,,white,circle
0.0,4.0,4.0,0.0,6.0,6.0,484.0396910440177,1.0,1.0,phase_2,go,300.0,300.0,1.0,,,,,,,,,cyan,I
0.0,3.0,3.0,0.0,6.0,6.0,594.8422360233963,1.0,1.0,phase_2,go,300.0,300.0,1.0,,,,,,,,,white,circle
0.0,3.0,3.0,0.0,5.0,5.0,603.5140050225891,1.0,1.0,phase_2,go,300.0,300.0,1.0,,,,,,,,,white,circle
0.0,5.0,1.0,1.0,6.0,0.0,0.0,1.0,1.0,phase_2,stop,300.0,300.0,4.0,,,,,,,,,green,cross
0.0,7.0,3.0,1.0,6.0,6.0,679.8491170047782,1.0,1.0,phase_2,stop,300.0,350.0,3.0,,,,,,,,,magenta,diamond
0.0,6.0,2.0,1.0,6.0,0.0,0.0,1.0,1.0,phase_2,stop,300.0,300.0,4.0,,,,,,,,,orange,square
0.0,8.0,4.0,1.0,6.0,6.0,671.5229180408642,1.0,1.0,phase_2,go,300.0,350.0,1.0,,,,,,,,,gray,triangle
0.0,6.0,2.0,1.0,6.0,0.0,0.0,1.0,1.0,phase_2,stop,300.0,350.0,4.0,,,,,,,,,orange,square
0.0,4.0,4.0,0.0,6.0,6.0,814.1837900038809,1.0,1.0,phase_2,go,300.0,400.0,1.0,,,,,,,,,cyan,I
0.0,6.0,2.0,1.0,5.0,5.0,335.5683090048842,1.0,1.0,phase_2,stop,300.0,400.0,3.0,,,,,,,,,orange,square
0.0,5.0,1.0,1.0,5.0,5.0,678.6798019893467,1.0,1.0,phase_2,go,250.0,400.0,1.0,,,,,,,,,green,cross
0.0,4.0,4.0,0.0,5.0,5.0,764.3919099937193,1.0,1.0,phase_2,go,250.0,400.0,1.0,,,,,,,,,cyan,I
0.0,6.0,2.0,1.0,6.0,0.0,0.0,1.0,1.0,phase_2,stop,250.0,400.0,4.0,,,,,,,,,orange,square
0.0,7.0,3.0,1.0,5.0,0.0,0.0,1.0,1.0,phase_2,stop,250.0,450.0,4.0,,,,,,,,,magenta,diamond
0.0,3.0,3.0,0.0,5.0,5.0,738.6145739583299,1.0,1.0,phase_2,go,300.0,450.0,1.0,,,,,,,,,white,circle
0.0,8.0,4.0,1.0,6.0,0.0,0.0,1.0,1.0,phase_2,stop,300.0,450.0,4.0,,,,,,,,,gray,triangle
0.0,3.0,3.0,0.0,6.0,6.0,609.698765038047,1.0,1.0,phase_2,go,300.0,500.0,1.0,,,,,,,,,white,circle
0.0,5.0,1.0,1.0,6.0,0.0,0.0,1.0,1.0,phase_2,stop,300.0,500.0,4.0,,,,,,,,,green,cross
0.0,5.0,1.0,1.0,6.0,6.0,817.5806539948098,1.0,1.0,phase_2,go,300.0,550.0,1.0,,,,,,,,,green,cross
0.0,5.0,1.0,1.0,6.0,6.0,895.2769450261258,1.0,1.0,phase_2,go,300.0,550.0,1.0,,,,,,,,,green,cross
0.0,6.0,2.0,1.0,5.0,0.0,0.0,1.0,1.0,phase_2,stop,300.0,550.0,4.0,,,,,,,,,orange,square
0.0,6.0,2.0,1.0,5.0,0.0,0.0,1.0,1.0,phase_2,stop,350.0,550.0,4.0,,,,,,,,,orange,square
0.0,5.0,1.0,1.0,5.0,0.0,0.0,1.0,1.0,phase_2,stop,400.0,550.0,4.0,,,,,,,,,green,cross
0.0,3.0,3.0,0.0,6.0,6.0,556.2039779615588,1.0,1.0,phase_2,go,450.0,550.0,1.0,,,,,,,,,white,circle
0.0,2.0,2.0,0.0,5.0,5.0,716.104541963432,1.0,1.0,phase_2,go,450.0,550.0,1.0,,,,,,,,,blue,hexagon
0.0,8.0,4.0,1.0,6.0,0.0,0.0,1.0,1.0,phase_2,stop,450.0,550.0,4.0,,,,,,,,,gray,triangle
0.0,4.0,4.0,0.0,5.0,5.0,931.0184250352904,1.0,1.0,phase_2,go,450.0,600.0,1.0,,,,,,,,,cyan,I
0.0,4.0,4.0,0.0,6.0,6.0,858.2973989541642,1.0,1.0,phase_2,go,450.0,600.0,1.0,,,,,,,,,cyan,I
0.0,1.0,1.0,0.0,6.0,6.0,772.0579309971072,1.0,1.0,phase_2,go,450.0,600.0,1.0,,,,,,,,,yellow,flipped triangle
0.0,3.0,3.0,0.0,5.0,5.0,953.2449779799208,1.0,1.0,phase_2,go,450.0,600.0,1.0,,,,,,,,,white,circle
0.0,8.0,4.0,1.0,5.0,5.0,1039.8613609722815,1.0,1.0,phase_2,go,450.0,600.0,1.0,,,,,,,,,gray,triangle
0.0,2.0,2.0,0.0,6.0,6.0,975.0568899908104,1.0,1.0,phase_2,go,450.0,600.0,1.0,,,,,,,,,blue,hexagon
0.0,4.0,4.0,0.0,5.0,5.0,535.2539820014499,2.0,1.0,phase_2,go,450.0,600.0,1.0,,,,,,,,,cyan,I
0.0,6.0,2.0,1.0,5.0,5.0,469.3676650058478,2.0,1.0,phase_2,stop,450.0,600.0,3.0,,,,,,,,,orange,square
0.0,1.0,1.0,0.0,6.0,6.0,588.7184540042654,2.0,1.0,phase_2,go,400.0,600.0,1.0,,,,,,,,,yellow,flipped triangle
0.0,2.0,2.0,0.0,6.0,6.0,572.1543130348437,2.0,1.0,phase_2,go,400.0,600.0,1.0,,,,,,,,,blue,hexagon
0.0,6.0,2.0,1.0,5.0,5.0,899.8516129795462,2.0,1.0,phase_2,go,400.0,600.0,1.0,,,,,,,,,orange,square
0.0,5.0,1.0,1.0,6.0,6.0,466.9687999994494,2.0,1.0,phase_2,stop,400.0,600.0,3.0,,,,,,,,,green,cross
0.0,6.0,2.0,1.0,5.0,0.0,0.0,2.0,1.0,phase_2,stop,400.0,550.0,4.0,,,,,,,,,orange,square
0.0,8.0,4.0,1.0,5.0,0.0,0.0,2.0,1.0,phase_2,stop,450.0,550.0,4.0,,,,,,,,,gray,triangle
0.0,2.0,2.0,0.0,6.0,6.0,433.6186799919233,2.0,1.0,phase_2,go,500.0,550.0,1.0,,,,,,,,,blue,hexagon
0.0,1.0,1.0,0.0,5.0,5.0,568.49642196903,2.0,1.0,phase_2,go,500.0,550.0,1.0,,,,,,,,,yellow,flipped triangle
0.0,8.0,4.0,1.0,6.0,6.0,529.3545949971303,2.0,1.0,phase_2,go,500.0,550.0,1.0,,,,,,,,,gray,triangle
0.0,3.0,3.0,0.0,6.0,6.0,798.6917289672419,2.0,1.0,phase_2,go,500.0,550.0,1.0,,,,,,,,,white,circle
0.0,3.0,3.0,0.0,5.0,5.0,710.726496996358,2.0,1.0,phase_2,go,500.0,550.0,1.0,,,,,,,,,white,circle
0.0,5.0,1.0,1.0,6.0,6.0,573.8546260399744,2.0,1.0,phase_2,stop,500.0,550.0,3.0,,,,,,,,,green,cross
0.0,4.0,4.0,0.0,6.0,6.0,909.3263639952056,2.0,1.0,phase_2,go,500.0,500.0,1.0,,,,,,,,,cyan,I
0.0,7.0,3.0,1.0,6.0,0.0,0.0,2.0,1.0,phase_2,stop,500.0,500.0,4.0,,,,,,,,,magenta,diamond
0.0,2.0,2.0,0.0,5.0,5.0,843.9836199977435,2.0,1.0,phase_2,go,500.0,550.0,1.0,,,,,,,,,blue,hexagon
0.0,5.0,1.0,1.0,5.0,5.0,538.7699129641987,2.0,1.0,phase_2,stop,500.0,550.0,3.0,,,,,,,,,green,cross
0.0,7.0,3.0,1.0,6.0,6.0,770.6038909964263,2.0,1.0,phase_2,go,450.0,550.0,1.0,,,,,,,,,magenta,diamond
0.0,1.0,1.0,0.0,5.0,5.0,962.5230979872867,2.0,1.0,phase_2,go,450.0,550.0,1.0,,,,,,,,,yellow,flipped triangle
0.0,6.0,2.0,1.0,6.0,6.0,881.7485990002751,2.0,1.0,phase_2,go,450.0,550.0,1.0,,,,,,,,,orange,square
0.0,8.0,4.0,1.0,5.0,5.0,546.6250000172295,2.0,1.0,phase_2,stop,450.0,550.0,3.0,,,,,,,,,gray,triangle
0.0,7.0,3.0,1.0,6.0,0.0,0.0,2.0,1.0,phase_2,stop,400.0,550.0,4.0,,,,,,,,,magenta,diamond
0.0,6.0,2.0,1.0,5.0,0.0,0.0,2.0,1.0,phase_2,stop,400.0,600.0,4.0,,,,,,,,,orange,square
0.0,3.0,3.0,0.0,6.0,6.0,391.1385490209795,2.0,1.0,phase_2,go,450.0,600.0,1.0,,,,,,,,,white,circle
0.0,4.0,4.0,0.0,6.0,6.0,638.6808149982244,2.0,1.0,phase_2,go,450.0,600.0,1.0,,,,,,,,,cyan,I
0.0,6.0,2.0,1.0,5.0,5.0,837.1182400151156,2.0,1.0,phase_2,go,450.0,600.0,1.0,,,,,,,,,orange,square
0.0,7.0,3.0,1.0,6.0,6.0,639.6322420332581,2.0,1.0,phase_2,stop,450.0,600.0,3.0,,,,,,,,,magenta,diamond
0.0,2.0,2.0,0.0,6.0,6.0,886.4843330229633,2.0,1.0,phase_2,go,450.0,550.0,1.0,,,,,,,,,blue,hexagon
0.0,5.0,1.0,1.0,6.0,6.0,691.8287779553793,2.0,1.0,phase_2,stop,450.0,550.0,3.0,,,,,,,,,green,cross
0.0,4.0,4.0,0.0,5.0,5.0,1027.5372529868037,2.0,1.0,phase_2,go,450.0,500.0,1.0,,,,,,,,,cyan,I
0.0,7.0,3.0,1.0,6.0,6.0,867.2447499702685,2.0,1.0,phase_2,go,450.0,500.0,1.0,,,,,,,,,magenta,diamond
0.0,1.0,1.0,0.0,5.0,5.0,914.1952710342592,2.0,1.0,phase_2,go,450.0,500.0,1.0,,,,,,,,,yellow,flipped triangle
0.0,4.0,4.0,0.0,5.0,5.0,456.9978220388293,2.0,1.0,phase_2,go,450.0,500.0,1.0,,,,,,,,,cyan,I
0.0,1.0,1.0,0.0,5.0,5.0,968.9374300069176,2.0,1.0,phase_2,go,450.0,500.0,1.0,,,,,,,,,yellow,flipped triangle
0.0,4.0,4.0,0.0,6.0,6.0,698.1518899556249,2.0,1.0,phase_2,go,450.0,500.0,1.0,,,,,,,,,cyan,I
0.0,3.0,3.0,0.0,5.0,5.0,574.5378099964,3.0,1.0,phase_2,go,450.0,500.0,1.0,,,,,,,,,white,circle
0.0,7.0,3.0,1.0,5.0,0.0,0.0,3.0,1.0,phase_2,stop,450.0,500.0,4.0,,,,,,,,,magenta,diamond
0.0,4.0,4.0,0.0,6.0,6.0,518.0586539790966,3.0,1.0,phase_2,go,500.0,500.0,1.0,,,,,,,,,cyan,I
0.0,8.0,4.0,1.0,6.0,6.0,476.6649979865178,3.0,1.0,phase_2,stop,500.0,500.0,3.0,,,,,,,,,gray,triangle
0.0,7.0,3.0,1.0,5.0,0.0,0.0,3.0,1.0,phase_2,stop,500.0,450.0,4.0,,,,,,,,,magenta,diamond
0.0,8.0,4.0,1.0,6.0,6.0,307.8420970123261,3.0,1.0,phase_2,stop,550.0,450.0,3.0,,,,,,,,,gray,triangle
0.0,5.0,1.0,1.0,6.0,6.0,746.8871409655549,3.0,1.0,phase_2,go,550.0,400.0,1.0,,,,,,,,,green,cross
0.0,1.0,1.0,0.0,5.0,5.0,618.6408409848809,3.0,1.0,phase_2,go,550.0,400.0,1.0,,,,,,,,,yellow,flipped triangle
0.0,7.0,3.0,1.0,5.0,0.0,0.0,3.0,1.0,phase_2,stop,550.0,400.0,4.0,,,,,,,,,magenta,diamond
0.0,2.0,2.0,0.0,5.0,5.0,666.8440679786727,3.0,1.0,phase_2,go,600.0,400.0,1.0,,,,,,,,,blue,hexagon
0.0,8.0,4.0,1.0,5.0,5.0,786.0900959931314,3.0,1.0,phase_2,stop,600.0,400.0,3.0,,,,,,,,,gray,triangle
0.0,3.0,3.0,0.0,5.0,5.0,713.4767890092917,3.0,1.0,phase_2,go,550.0,400.0,1.0,,,,,,,,,white,circle
0.0,6.0,2.0,1.0,6.0,0.0,0.0,3.0,1.0,phase_2,stop,550.0,400.0,4.0,,,,,,,,,orange,square
0.0,4.0,4.0,0.0,5.0,5.0,423.8298619748093,3.0,1.0,phase_2,go,550.0,450.0,1.0,,,,,,,,,cyan,I
0.0,5.0,1.0,1.0,6.0,0.0,0.0,3.0,1.0,phase_2,stop,550.0,450.0,4.0,,,,,,,,,green,cross
0.0,1.0,1.0,0.0,5.0,5.0,789.9033210123889,3.0,1.0,phase_2,go,550.0,500.0,1.0,,,,,,,,,yellow,flipped triangle
0.0,8.0,4.0,1.0,6.0,0.0,0.0,3.0,1.0,phase_2,stop,550.0,500.0,4.0,,,,,,,,,gray,triangle
0.0,7.0,3.0,1.0,5.0,0.0,0.0,3.0,1.0,phase_2,stop,550.0,550.0,4.0,,,,,,,,,magenta,diamond
0.0,2.0,2.0,0.0,6.0,6.0,300.091985031031,3.0,1.0,phase_2,go,600.0,550.0,1.0,,,,,,,,,blue,hexagon
0.0,1.0,1.0,0.0,6.0,6.0,851.8764259642921,3.0,1.0,phase_2,go,600.0,550.0,1.0,,,,,,,,,yellow,flipped triangle
0.0,5.0,1.0,1.0,5.0,0.0,0.0,3.0,1.0,phase_2,stop,600.0,550.0,4.0,,,,,,,,,green,cross
0.0,6.0,2.0,1.0,6.0,0.0,0.0,3.0,1.0,phase_2,stop,650.0,550.0,4.0,,,,,,,,,orange,square
0.0,1.0,1.0,0.0,5.0,5.0,225.5828250199556,3.0,1.0,phase_2,go,650.0,600.0,1.0,,,,,,,,,yellow,flipped triangle
0.0,3.0,3.0,0.0,6.0,6.0,554.585442005191,3.0,1.0,phase_2,go,650.0,600.0,1.0,,,,,,,,,white,circle
0.0,3.0,3.0,0.0,5.0,5.0,624.2438399931416,3.0,1.0,phase_2,go,650.0,600.0,1.0,,,,,,,,,white,circle
0.0,2.0,2.0,0.0,5.0,5.0,847.5144159747288,3.0,1.0,phase_2,go,650.0,600.0,1.0,,,,,,,,,blue,hexagon
0.0,5.0,1.0,1.0,5.0,0.0,0.0,3.0,1.0,phase_2,stop,650.0,600.0,4.0,,,,,,,,,green,cross
0.0,7.0,3.0,1.0,6.0,0.0,0.0,3.0,1.0,phase_2,stop,700.0,600.0,4.0,,,,,,,,,magenta,diamond
0.0,3.0,3.0,0.0,6.0,6.0,541.614445974119,3.0,1.0,phase_2,go,700.0,650.0,1.0,,,,,,,,,white,circle
0.0,6.0,2.0,1.0,6.0,6.0,366.558214998804,3.0,1.0,phase_2,stop,700.0,650.0,3.0,,,,,,,,,orange,square
0.0,7.0,3.0,1.0,6.0,0.0,0.0,3.0,1.0,phase_2,stop,700.0,600.0,4.0,,,,,,,,,magenta,diamond
0.0,2.0,2.0,0.0,5.0,5.0,979.8857920104638,3.0,1.0,phase_2,go,700.0,650.0,1.0,,,,,,,,,blue,hexagon
0.0,5.0,1.0,1.0,6.0,6.0,717.032020969782,3.0,1.0,phase_2,stop,700.0,650.0,3.0,,,,,,,,,green,cross
0.0,1.0,1.0,0.0,6.0,6.0,890.760465990752,3.0,1.0,phase_2,go,700.0,600.0,1.0,,,,,,,,,yellow,flipped triangle
0.0,3.0,3.0,0.0,5.0,5.0,482.3943160008639,3.0,1.0,phase_2,go,700.0,600.0,1.0,,,,,,,,,white,circle
0.0,8.0,4.0,1.0,6.0,6.0,738.3571179816499,3.0,1.0,phase_2,stop,700.0,600.0,3.0,,,,,,,,,gray,triangle
0.0,2.0,2.0,0.0,5.0,5.0,498.5980869969353,4.0,1.0,phase_2,go,700.0,550.0,1.0,,,,,,,,,blue,hexagon
0.0,5.0,1.0,1.0,6.0,6.0,480.6582109886221,4.0,1.0,phase_2,stop,700.0,550.0,3.0,,,,,,,,,green,cross
0.0,4.0,4.0,0.0,6.0,6.0,689.5026020356454,4.0,1.0,phase_2,go,700.0,500.0,1.0,,,,,,,,,cyan,I
0.0,8.0,4.0,1.0,5.0,5.0,927.5263829622418,4.0,1.0,phase_2,go,700.0,500.0,1.0,,,,,,,,,gray,triangle
0.0,3.0,3.0,0.0,6.0,6.0,574.0125980228186,4.0,1.0,phase_2,go,700.0,500.0,1.0,,,,,,,,,white,circle
0.0,1.0,1.0,0.0,5.0,5.0,1077.8372070053592,4.0,1.0,phase_2,go,700.0,500.0,1.0,,,,,,,,,yellow,flipped triangle
0.0,7.0,3.0,1.0,6.0,0.0,0.0,4.0,1.0,phase_2,stop,700.0,500.0,4.0,,,,,,,,,magenta,diamond
0.0,5.0,1.0,1.0,5.0,0.0,0.0,4.0,1.0,phase_2,stop,700.0,550.0,4.0,,,,,,,,,green,cross
0.0,1.0,1.0,0.0,6.0,6.0,964.2245520371944,4.0,1.0,phase_2,go,750.0,550.0,1.0,,,,,,,,,yellow,flipped triangle
0.0,8.0,4.0,1.0,5.0,0.0,0.0,4.0,1.0,phase_2,stop,750.0,550.0,4.0,,,,,,,,,gray,triangle
0.0,4.0,4.0,0.0,6.0,6.0,556.6917670075782,4.0,1.0,phase_2,go,800.0,550.0,1.0,,,,,,,,,cyan,I
0.0,1.0,1.0,0.0,5.0,5.0,826.2892590137199,4.0,1.0,phase_2,go,800.0,550.0,1.0,,,,,,,,,yellow,flipped triangle
0.0,5.0,1.0,1.0,5.0,5.0,417.1241440344602,4.0,1.0,phase_2,stop,800.0,550.0,3.0,,,,,,,,,green,cross
0.0,8.0,4.0,1.0,6.0,0.0,0.0,4.0,1.0,phase_2,stop,750.0,550.0,4.0,,,,,,,,,gray,triangle
0.0,7.0,3.0,1.0,5.0,0.0,0.0,4.0,1.0,phase_2,stop,750.0,600.0,4.0,,,,,,,,,magenta,diamond
0.0,1.0,1.0,0.0,5.0,5.0,847.2089039860293,4.0,1.0,phase_2,go,800.0,600.0,1.0,,,,,,,,,yellow,flipped triangle
0.0,6.0,2.0,1.0,6.0,6.0,785.3653780184686,4.0,1.0,phase_2,go,800.0,600.0,1.0,,,,,,,,,orange,square
0.0,8.0,4.0,1.0,5.0,0.0,0.0,4.0,1.0,phase_2,stop,800.0,600.0,4.0,,,,,,,,,gray,triangle
0.0,7.0,3.0,1.0,6.0,6.0,735.8803309616633,4.0,1.0,phase_2,stop,850.0,600.0,3.0,,,,,,,,,magenta,diamond
0.0,7.0,3.0,1.0,6.0,6.0,421.4018189813941,4.0,1.0,phase_2,stop,850.0,550.0,3.0,,,,,,,,,magenta,diamond
0.0,3.0,3.0,0.0,5.0,5.0,574.6798620093614,4.0,1.0,phase_2,go,850.0,500.0,1.0,,,,,,,,,white,circle
0.0,3.0,3.0,0.0,6.0,6.0,660.1306450320408,4.0,1.0,phase_2,go,850.0,500.0,1.0,,,,,,,,,white,circle
0.0,2.0,2.0,0.0,6.0,6.0,827.6266690227203,4.0,1.0,phase_2,go,850.0,500.0,1.0,,,,,,,,,blue,hexagon
0.0,1.0,1.0,0.0,6.0,6.0,371.634904993698,4.0,1.0,phase_2,go,850.0,500.0,1.0,,,,,,,,,yellow,flipped triangle
0.0,5.0,1.0,1.0,5.0,5.0,778.3507200074382,4.0,1.0,phase_2,go,850.0,500.0,1.0,,,,,,,,,green,cross
0.0,1.0,1.0,0.0,6.0,6.0,937.743980961386,4.0,1.0,phase_2,go,850.0,500.0,1.0,,,,,,,,,yellow,flipped triangle
0.0,3.0,3.0,0.0,6.0,6.0,536.4739899523556,4.0,1.0,phase_2,go,850.0,500.0,1.0,,,,,,,,,white,circle
0.0,5.0,1.0,1.0,5.0,5.0,890.3030370129272,4.0,1.0,phase_2,stop,850.0,500.0,3.0,,,,,,,,,green,cross
0.0,2.0,2.0,0.0,5.0,5.0,1423.8587329746224,4.0,1.0,phase_2,go,800.0,500.0,1.0,,,,,,,,,blue,hexagon
0.0,3.0,3.0,0.0,6.0,6.0,449.3223709869198,4.0,1.0,phase_2,go,800.0,500.0,1.0,,,,,,,,,white,circle
0.0,2.0,2.0,0.0,6.0,6.0,903.566329041496,4.0,1.0,phase_2,go,800.0,500.0,1.0,,,,,,,,,blue,hexagon
0.0,5.0,1.0,1.0,6.0,6.0,952.1602719905786,4.0,1.0,phase_2,go,800.0,500.0,1.0,,,,,,,,,green,cross
0.0,6.0,2.0,1.0,5.0,5.0,981.4827180234716,4.0,1.0,phase_2,stop,800.0,500.0,3.0,,,,,,,,,orange,square
0.0,7.0,3.0,1.0,5.0,0.0,0.0,4.0,1.0,phase_2,stop,750.0,500.0,4.0,,,,,,,,,magenta,diamond
0.0,5.0,1.0,1.0,6.0,0.0,0.0,4.0,1.0,phase_2,stop,800.0,500.0,4.0,,,,,,,,,green,cross
0.0,4.0,4.0,0.0,5.0,5.0,651.605398976244,4.0,1.0,phase_2,go,800.0,550.0,1.0,,,,,,,,,cyan,I
0.0,4.0,4.0,0.0,6.0,6.0,522.974695020821,5.0,1.0,phase_2,go,800.0,550.0,1.0,,,,,,,,,cyan,I
0.0,5.0,1.0,1.0,6.0,0.0,0.0,5.0,1.0,phase_2,stop,800.0,550.0,4.0,,,,,,,,,green,cross
0.0,4.0,4.0,0.0,5.0,5.0,627.8295569936745,5.0,1.0,phase_2,go,800.0,600.0,1.0,,,,,,,,,cyan,I
0.0,1.0,1.0,0.0,6.0,6.0,360.8855399652384,5.0,1.0,phase_2,go,800.0,600.0,1.0,,,,,,,,,yellow,flipped triangle
0.0,2.0,2.0,0.0,5.0,5.0,402.3429279914126,5.0,1.0,phase_2,go,800.0,600.0,1.0,,,,,,,,,blue,hexagon
0.0,1.0,1.0,0.0,6.0,6.0,895.8799179526977,5.0,1.0,phase_2,go,800.0,600.0,1.0,,,,,,,,,yellow,flipped triangle
0.0,8.0,4.0,1.0,6.0,0.0,0.0,5.0,1.0,phase_2,stop,800.0,600.0,4.0,,,,,,,,,gray,triangle
0.0,4.0,4.0,0.0,5.0,5.0,542.7257039700635,5.0,1.0,phase_2,go,800.0,650.0,1.0,,,,,,,,,cyan,I
0.0,4.0,4.0,0.0,6.0,6.0,471.4264819631353,5.0,1.0,phase_2,go,800.0,650.0,1.0,,,,,,,,,cyan,I
0.0,4.0,4.0,0.0,6.0,6.0,341.3774339715019,5.0,1.0,phase_2,go,800.0,650.0,1.0,,,,,,,,,cyan,I
0.0,2.0,2.0,0.0,5.0,5.0,860.6808650074527,5.0,1.0,phase_2,go,800.0,650.0,1.0,,,,,,,,,blue,hexagon
0.0,6.0,2.0,1.0,6.0,6.0,892.1096800477244,5.0,1.0,phase_2,go,800.0,650.0,1.0,,,,,,,,,orange,square
0.0,2.0,2.0,0.0,6.0,6.0,379.6903599868528,5.0,1.0,phase_2,go,800.0,650.0,1.0,,,,,,,,,blue,hexagon
0.0,5.0,1.0,1.0,6.0,6.0,604.5774749945849,5.0,1.0,phase_2,stop,800.0,650.0,3.0,,,,,,,,,green,cross
0.0,2.0,2.0,0.0,5.0,5.0,1041.4353869855404,5.0,1.0,phase_2,go,800.0,600.0,1.0,,,,,,,,,blue,hexagon
0.0,3.0,3.0,0.0,6.0,6.0,530.1774080144241,5.0,1.0,phase_2,go,800.0,600.0,1.0,,,,,,,,,white,circle
0.0,5.0,1.0,1.0,5.0,5.0,472.1414599916897,5.0,1.0,phase_2,stop,800.0,600.0,3.0,,,,,,,,,green,cross
0.0,2.0,2.0,0.0,6.0,6.0,801.8770350026898,5.0,1.0,phase_2,go,750.0,600.0,1.0,,,,,,,,,blue,hexagon
0.0,6.0,2.0,1.0,5.0,5.0,842.2640999779105,5.0,1.0,phase_2,stop,750.0,600.0,3.0,,,,,,,,,orange,square
0.0,1.0,1.0,0.0,6.0,6.0,967.4734979635105,5.0,1.0,phase_2,go,700.0,600.0,1.0,,,,,,,,,yellow,flipped triangle
0.0,3.0,3.0,0.0,5.0,5.0,487.0510810287669,5.0,1.0,phase_2,go,700.0,600.0,1.0,,,,,,,,,white,circle
0.0,1.0,1.0,0.0,6.0,6.0,229.2296120431274,5.0,1.0,phase_2,go,700.0,600.0,1.0,,,,,,,,,yellow,flipped triangle
0.0,5.0,1.0,1.0,6.0,6.0,741.4467969792895,5.0,1.0,phase_2,go,700.0,600.0,1.0,,,,,,,,,green,cross
0.0,8.0,4.0,1.0,6.0,0.0,0.0,5.0,1.0,phase_2,stop,700.0,600.0,4.0,,,,,,,,,gray,triangle
0.0,3.0,3.0,0.0,5.0,5.0,524.2482470348477,5.0,1.0,phase_2,go,700.0,650.0,1.0,,,,,,,,,white,circle
0.0,6.0,2.0,1.0,6.0,6.0,252.2490110131912,5.0,1.0,phase_2,stop,700.0,650.0,3.0,,,,,,,,,orange,square
0.0,8.0,4.0,1.0,5.0,5.0,931.3959470018744,5.0,1.0,phase_2,go,700.0,600.0,1.0,,,,,,,,,gray,triangle
0.0,5.0,1.0,1.0,5.0,5.0,674.1565199918114,5.0,1.0,phase_2,stop,700.0,600.0,3.0,,,,,,,,,green,cross
0.0,7.0,3.0,1.0,5.0,5.0,1003.4711789921855,5.0,1.0,phase_2,go,650.0,600.0,1.0,,,,,,,,,magenta,diamond
0.0,6.0,2.0,1.0,5.0,0.0,0.0,5.0,1.0,phase_2,stop,650.0,600.0,4.0,,,,,,,,,orange,square
0.0,4.0,4.0,0.0,6.0,6.0,362.0666619972326,5.0,1.0,phase_2,go,700.0,600.0,1.0,,,,,,,,,cyan,I
0.0,2.0,2.0,0.0,5.0,5.0,840.0804820121266,5.0,1.0,phase_2,go,700.0,600.0,1.0,,,,,,,,,blue,hexagon
0.0,3.0,3.0,0.0,6.0,6.0,360.3478540317155,5.0,1.0,phase_2,go,700.0,600.0,1.0,,,,,,,,,white,circle
0.0,8.0,4.0,1.0,5.0,5.0,808.5871370276436,5.0,1.0,phase_2,go,700.0,600.0,1.0,,,,,,,,,gray,triangle
0.0,7.0,3.0,1.0,6.0,6.0,279.6157500124536,5.0,1.0,phase_2,stop,700.0,600.0,3.0,,,,,,,,,magenta,diamond
0.0,5.0,1.0,1.0,5.0,0.0,0.0,5.0,1.0,phase_2,stop,700.0,550.0,4.0,,,,,,,,,green,cross
0.0,6.0,2.0,1.0,5.0,5.0,355.6812930037267,6.0,1.0,phase_2,go,750.0,550.0,1.0,,,,,,,,,orange,square
0.0,8.0,4.0,1.0,5.0,5.0,866.931915981695,6.0,1.0,phase_2,go,750.0,550.0,1.0,,,,,,,,,gray,triangle
0.0,2.0,2.0,0.0,6.0,6.0,929.4379759812728,6.0,1.0,phase_2,go,750.0,550.0,1.0,,,,,,,,,blue,hexagon
0.0,7.0,3.0,1.0,6.0,6.0,1074.6509699965827,6.0,1.0,phase_2,go,750.0,550.0,1.0,,,,,,,,,magenta,diamond
0.0,8.0,4.0,1.0,6.0,0.0,0.0,6.0,1.0,phase_2,stop,750.0,550.0,4.0,,,,,,,,,gray,triangle
0.0,6.0,2.0,1.0,6.0,6.0,1010.6208670185881,6.0,1.0,phase_2,go,750.0,600.0,1.0,,,,,,,,,orange,square
0.0,7.0,3.0,1.0,5.0,5.0,543.7143089948222,6.0,1.0,phase_2,go,750.0,600.0,1.0,,,,,,,,,magenta,diamond
0.0,4.0,4.0,0.0,6.0,6.0,511.14033203339204,6.0,1.0,phase_2,go,750.0,600.0,1.0,,,,,,,,,cyan,I
0.0,8.0,4.0,1.0,5.0,5.0,848.4377010026947,6.0,1.0,phase_2,go,750.0,600.0,1.0,,,,,,,,,gray,triangle
0.0,3.0,3.0,0.0,6.0,6.0,407.6792710111476,6.0,1.0,phase_2,go,750.0,600.0,1.0,,,,,,,,,white,circle
0.0,3.0,3.0,0.0,6.0,6.0,429.8732760362327,6.0,1.0,phase_2,go,750.0,600.0,1.0,,,,,,,,,white,circle
0.0,1.0,1.0,0.0,6.0,6.0,915.5768239870667,6.0,1.0,phase_2,go,750.0,600.0,1.0,,,,,,,,,yellow,flipped triangle
0.0,2.0,2.0,0.0,6.0,6.0,757.7201859676279,6.0,1.0,phase_2,go,750.0,600.0,1.0,,,,,,,,,blue,hexagon
0.0,4.0,4.0,0.0,6.0,6.0,301.0566750308499,6.0,1.0,phase_2,go,750.0,600.0,1.0,,,,,,,,,cyan,I
0.0,8.0,4.0,1.0,6.0,6.0,388.8241589884273,6.0,1.0,phase_2,stop,750.0,600.0,3.0,,,,,,,,,gray,triangle
0.0,6.0,2.0,1.0,6.0,0.0,0.0,6.0,1.0,phase_2,stop,750.0,550.0,4.0,,,,,,,,,orange,square
0.0,1.0,1.0,0.0,6.0,6.0,595.3284209826961,6.0,1.0,phase_2,go,750.0,600.0,1.0,,,,,,,,,yellow,flipped triangle
0.0,6.0,2.0,1.0,6.0,6.0,624.3400590028614,6.0,1.0,phase_2,stop,750.0,600.0,3.0,,,,,,,,,orange,square
0.0,6.0,2.0,1.0,6.0,0.0,0.0,6.0,1.0,phase_2,stop,750.0,550.0,4.0,,,,,,,,,orange,square
0.0,6.0,2.0,1.0,5.0,5.0,641.7451400193386,6.0,1.0,phase_2,go,750.0,600.0,1.0,,,,,,,,,orange,square
0.0,1.0,1.0,0.0,6.0,6.0,591.7380920145661,6.0,1.0,phase_2,go,750.0,600.0,1.0,,,,,,,,,yellow,flipped triangle
0.0,1.0,1.0,0.0,5.0,5.0,376.0935710160993,6.0,1.0,phase_2,go,750.0,600.0,1.0,,,,,,,,,yellow,flipped triangle
0.0,8.0,4.0,1.0,6.0,0.0,0.0,6.0,1.0,phase_2,stop,750.0,600.0,4.0,,,,,,,,,gray,triangle
0.0,1.0,1.0,0.0,5.0,5.0,885.0229569943622,6.0,1.0,phase_2,go,750.0,650.0,1.0,,,,,,,,,yellow,flipped triangle
0.0,7.0,3.0,1.0,6.0,6.0,421.8878299579955,6.0,1.0,phase_2,stop,750.0,650.0,3.0,,,,,,,,,magenta,diamond
0.0,2.0,2.0,0.0,5.0,5.0,804.0471049607731,6.0,1.0,phase_2,go,750.0,600.0,1.0,,,,,,,,,blue,hexagon
0.0,8.0,4.0,1.0,6.0,0.0,0.0,6.0,1.0,phase_2,stop,750.0,600.0,4.0,,,,,,,,,gray,triangle
0.0,8.0,4.0,1.0,5.0,5.0,699.830848025158,6.0,1.0,phase_2,stop,750.0,650.0,3.0,,,,,,,,,gray,triangle
0.0,7.0,3.0,1.0,6.0,6.0,906.256946036592,6.0,1.0,phase_2,go,700.0,650.0,1.0,,,,,,,,,magenta,diamond
0.0,8.0,4.0,1.0,5.0,0.0,0.0,6.0,1.0,phase_2,stop,700.0,650.0,4.0,,,,,,,,,gray,triangle
0.0,1.0,1.0,0.0,5.0,5.0,744.2203160026111,6.0,1.0,phase_2,go,750.0,650.0,1.0,,,,,,,,,yellow,flipped triangle
0.0,7.0,3.0,1.0,5.0,5.0,856.8595039541833,6.0,1.0,phase_2,stop,750.0,650.0,3.0,,,,,,,,,magenta,diamond
0.0,5.0,1.0,1.0,5.0,5.0,849.2782249813899,6.0,1.0,phase_2,stop,700.0,650.0,3.0,,,,,,,,,green,cross
0.0,1.0,1.0,0.0,5.0,5.0,918.4312209836208,6.0,1.0,phase_2,go,650.0,650.0,1.0,,,,,,,,,yellow,flipped triangle
0.0,2.0,2.0,0.0,5.0,5.0,909.5090640475972,6.0,1.0,phase_2,go,650.0,650.0,1.0,,,,,,,,,blue,hexagon
0.0,4.0,4.0,0.0,5.0,5.0,886.9638149626553,6.0,1.0,phase_2,go,650.0,650.0,1.0,,,,,,,,,cyan,I
0.0,2.0,2.0,0.0,5.0,5.0,435.4655130300671,7.0,1.0,phase_2,go,650.0,650.0,1.0,,,,,,,,,blue,hexagon
0.0,2.0,2.0,0.0,5.0,5.0,1026.8260120064951,7.0,1.0,phase_2,go,650.0,650.0,1.0,,,,,,,,,blue,hexagon
0.0,3.0,3.0,0.0,6.0,6.0,483.0801060306839,7.0,1.0,phase_2,go,650.0,650.0,1.0,,,,,,,,,white,circle
0.0,5.0,1.0,1.0,5.0,5.0,299.7185520362109,7.0,1.0,phase_2,stop,650.0,650.0,3.0,,,,,,,,,green,cross
0.0,7.0,3.0,1.0,5.0,0.0,0.0,7.0,1.0,phase_2,stop,600.0,650.0,4.0,,,,,,,,,magenta,diamond
0.0,2.0,2.0,0.0,6.0,6.0,882.8968679881655,7.0,1.0,phase_2,go,650.0,650.0,1.0,,,,,,,,,blue,hexagon
0.0,4.0,4.0,0.0,6.0,6.0,528.6575919599272,7.0,1.0,phase_2,go,650.0,650.0,1.0,,,,,,,,,cyan,I
0.0,2.0,2.0,0.0,6.0,6.0,880.1045040017925,7.0,1.0,phase_2,go,650.0,650.0,1.0,,,,,,,,,blue,hexagon
0.0,3.0,3.0,0.0,5.0,5.0,495.379836007487,7.0,1.0,phase_2,go,650.0,650.0,1.0,,,,,,,,,white,circle
0.0,3.0,3.0,0.0,5.0,5.0,446.2421800126321,7.0,1.0,phase_2,go,650.0,650.0,1.0,,,,,,,,,white,circle
0.0,7.0,3.0,1.0,5.0,0.0,0.0,7.0,1.0,phase_2,stop,650.0,650.0,4.0,,,,,,,,,magenta,diamond
0.0,4.0,4.0,0.0,5.0,5.0,566.3759559975006,7.0,1.0,phase_2,go,700.0,650.0,1.0,,,,,,,,,cyan,I
0.0,7.0,3.0,1.0,6.0,6.0,782.644170045387,7.0,1.0,phase_2,stop,700.0,650.0,3.0,,,,,,,,,magenta,diamond
0.0,7.0,3.0,1.0,5.0,0.0,0.0,7.0,1.0,phase_2,stop,700.0,600.0,4.0,,,,,,,,,magenta,diamond
0.0,2.0,2.0,0.0,6.0,6.0,405.2502459962852,7.0,1.0,phase_2,go,750.0,600.0,1.0,,,,,,,,,blue,hexagon
0.0,7.0,3.0,1.0,5.0,0.0,0.0,7.0,1.0,phase_2,stop,750.0,600.0,4.0,,,,,,,,,magenta,diamond
0.0,4.0,4.0,0.0,5.0,5.0,570.532462967094,7.0,1.0,phase_2,go,800.0,600.0,1.0,,,,,,,,,cyan,I
0.0,6.0,2.0,1.0,5.0,0.0,0.0,7.0,1.0,phase_2,stop,800.0,600.0,4.0,,,,,,,,,orange,square
0.0,1.0,1.0,0.0,5.0,5.0,970.8241780172102,7.0,1.0,phase_2,go,850.0,600.0,1.0,,,,,,,,,yellow,flipped triangle
0.0,3.0,3.0,0.0,5.0,5.0,313.8389129890129,7.0,1.0,phase_2,go,850.0,600.0,1.0,,,,,,,,,white,circle
0.0,5.0,1.0,1.0,5.0,5.0,984.0752449817955,7.0,1.0,phase_2,go,850.0,600.0,1.0,,,,,,,,,green,cross
0.0,8.0,4.0,1.0,5.0,0.0,0.0,7.0,1.0,phase_2,stop,850.0,600.0,4.0,,,,,,,,,gray,triangle
0.0,1.0,1.0,0.0,5.0,5.0,902.139322948642,7.0,1.0,phase_2,go,900.0,600.0,1.0,,,,,,,,,yellow,flipped triangle
0.0,4.0,4.0,0.0,5.0,5.0,654.0461260010488,7.0,1.0,phase_2,go,900.0,600.0,1.0,,,,,,,,,cyan,I
0.0,2.0,2.0,0.0,6.0,6.0,981.524654023815,7.0,1.0,phase_2,go,900.0,600.0,1.0,,,,,,,,,blue,hexagon
0.0,8.0,4.0,1.0,5.0,5.0,982.5827209861018,7.0,1.0,phase_2,go,900.0,600.0,1.0,,,,,,,,,gray,triangle
0.0,1.0,1.0,0.0,6.0,6.0,739.3525420338847,7.0,1.0,phase_2,go,900.0,600.0,1.0,,,,,,,,,yellow,flipped triangle
0.0,8.0,4.0,1.0,5.0,5.0,675.654508988373,7.0,1.0,phase_2,stop,900.0,600.0,3.0,,,,,,,,,gray,triangle
0.0,2.0,2.0,0.0,5.0,5.0,1123.0981380213052,7.0,1.0,phase_2,go,850.0,600.0,1.0,,,,,,,,,blue,hexagon
0.0,6.0,2.0,1.0,5.0,5.0,994.4471210474148,7.0,1.0,phase_2,stop,850.0,600.0,3.0,,,,,,,,,orange,square
0.0,3.0,3.0,0.0,5.0,5.0,632.7923879725859,7.0,1.0,phase_2,go,800.0,600.0,1.0,,,,,,,,,white,circle
0.0,5.0,1.0,1.0,5.0,5.0,1153.2631310401484,7.0,1.0,phase_2,go,800.0,600.0,1.0,,,,,,,,,green,cross
0.0,8.0,4.0,1.0,6.0,6.0,273.0108730029315,7.0,1.0,phase_2,stop,800.0,600.0,3.0,,,,,,,,,gray,triangle
0.0,1.0,1.0,0.0,6.0,6.0,1064.0789769822732,7.0,1.0,phase_2,go,800.0,550.0,1.0,,,,,,,,,yellow,flipped triangle
0.0,8.0,4.0,1.0,6.0,0.0,0.0,7.0,1.0,phase_2,stop,800.0,550.0,4.0,,,,,,,,,gray,triangle
0.0,8.0,4.0,1.0,5.0,0.0,0.0,7.0,1.0,phase_2,stop,800.0,600.0,4.0,,,,,,,,,gray,triangle
0.0,2.0,2.0,0.0,6.0,6.0,1049.0885219769552,8.0,1.0,phase_2,go,850.0,600.0,1.0,,,,,,,,,blue,hexagon
0.0,7.0,3.0,1.0,6.0,6.0,1072.5855400087312,8.0,1.0,phase_2,go,850.0,600.0,1.0,,,,,,,,,magenta,diamond
0.0,2.0,2.0,0.0,6.0,6.0,839.5601679803804,8.0,1.0,phase_2,go,850.0,600.0,1.0,,,,,,,,,blue,hexagon
0.0,8.0,4.0,1.0,5.0,5.0,791.226603963878,8.0,1.0,phase_2,stop,850.0,600.0,3.0,,,,,,,,,gray,triangle
0.0,1.0,1.0,0.0,5.0,5.0,1280.6021239957772,8.0,1.0,phase_2,go,800.0,600.0,1.0,,,,,,,,,yellow,flipped triangle
0.0,7.0,3.0,1.0,5.0,5.0,1007.4729799525812,8.0,1.0,phase_2,go,800.0,600.0,1.0,,,,,,,,,magenta,diamond
0.0,1.0,1.0,0.0,6.0,6.0,998.7469090265222,8.0,1.0,phase_2,go,800.0,600.0,1.0,,,,,,,,,yellow,flipped triangle
0.0,4.0,4.0,0.0,5.0,5.0,382.2831509751268,8.0,1.0,phase_2,go,800.0,600.0,1.0,,,,,,,,,cyan,I
0.0,4.0,4.0,0.0,6.0,6.0,549.1058379993774,8.0,1.0,phase_2,go,800.0,600.0,1.0,,,,,,,,,cyan,I
0.0,4.0,4.0,0.0,5.0,5.0,467.3451010021381,8.0,1.0,phase_2,go,800.0,600.0,1.0,,,,,,,,,cyan,I
0.0,3.0,3.0,0.0,5.0,5.0,419.9830949655734,8.0,1.0,phase_2,go,800.0,600.0,1.0,,,,,,,,,white,circle
0.0,5.0,1.0,1.0,5.0,0.0,0.0,8.0,1.0,phase_2,stop,800.0,600.0,4.0,,,,,,,,,green,cross
0.0,3.0,3.0,0.0,5.0,5.0,507.2724180063233,8.0,1.0,phase_2,go,850.0,600.0,1.0,,,,,,,,,white,circle
0.0,7.0,3.0,1.0,5.0,5.0,961.009253980592,8.0,1.0,phase_2,stop,850.0,600.0,3.0,,,,,,,,,magenta,diamond
0.0,5.0,1.0,1.0,6.0,0.0,0.0,8.0,1.0,phase_2,stop,800.0,600.0,4.0,,,,,,,,,green,cross
0.0,2.0,2.0,0.0,5.0,5.0,751.3194230268709,8.0,1.0,phase_2,go,800.0,650.0,1.0,,,,,,,,,blue,hexagon
0.0,7.0,3.0,1.0,5.0,5.0,992.1627279836684,8.0,1.0,phase_2,go,800.0,650.0,1.0,,,,,,,,,magenta,diamond
0.0,3.0,3.0,0.0,6.0,6.0,496.0186299867928,8.0,1.0,phase_2,go,800.0,650.0,1.0,,,,,,,,,white,circle
0.0,1.0,1.0,0.0,6.0,6.0,292.9834460373968,8.0,1.0,phase_2,go,800.0,650.0,1.0,,,,,,,,,yellow,flipped triangle
0.0,1.0,1.0,0.0,5.0,5.0,749.1028259973973,8.0,1.0,phase_2,go,800.0,650.0,1.0,,,,,,,,,yellow,flipped triangle
0.0,4.0,4.0,0.0,5.0,5.0,451.8310190178454,8.0,1.0,phase_2,go,800.0,650.0,1.0,,,,,,,,,cyan,I
0.0,6.0,2.0,1.0,5.0,0.0,0.0,8.0,1.0,phase_2,stop,800.0,650.0,4.0,,,,,,,,,orange,square
0.0,8.0,4.0,1.0,6.0,0.0,0.0,8.0,1.0,phase_2,stop,850.0,650.0,4.0,,,,,,,,,gray,triangle
0.0,6.0,2.0,1.0,6.0,6.0,290.0194270187057,8.0,1.0,phase_2,go,850.0,700.0,1.0,,,,,,,,,orange,square
0.0,5.0,1.0,1.0,6.0,6.0,777.7066470007412,8.0,1.0,phase_2,stop,850.0,700.0,3.0,,,,,,,,,green,cross
0.0,7.0,3.0,1.0,5.0,0.0,0.0,8.0,1.0,phase_2,stop,850.0,650.0,4.0,,,,,,,,,magenta,diamond
0.0,5.0,1.0,1.0,5.0,0.0,0.0,8.0,1.0,phase_2,stop,900.0,650.0,4.0,,,,,,,,,green,cross
0.0,2.0,2.0,0.0,5.0,5.0,992.5559319672176,8.0,1.0,phase_2,go,950.0,650.0,1.0,,,,,,,,,blue,hexagon
0.0,6.0,2.0,1.0,6.0,6.0,263.73894297285,8.0,1.0,phase_2,stop,950.0,650.0,3.0,,,,,,,,,orange,square
0.0,7.0,3.0,1.0,6.0,0.0,0.0,8.0,1.0,phase_2,stop,950.0,600.0,4.0,,,,,,,,,magenta,diamond
0.0,4.0,4.0,0.0,5.0,5.0,479.1110790101811,8.0,1.0,phase_2,go,950.0,650.0,1.0,,,,,,,,,cyan,I
0.0,6.0,2.0,1.0,6.0,6.0,365.8607859979383,8.0,1.0,phase_2,stop,950.0,650.0,3.0,,,,,,,,,orange,square
0.0,4.0,4.0,0.0,5.0,5.0,478.6220949608832,8.0,1.0,phase_2,go,950.0,600.0,1.0,,,,,,,,,cyan,I
0.0,4.0,4.0,0.0,6.0,6.0,486.2614669837057,8.0,1.0,phase_2,go,950.0,600.0,1.0,,,,,,,,,cyan,I
0.0,2.0,2.0,0.0,6.0,6.0,1068.9976660069078,8.0,1.0,phase_2,go,950.0,600.0,1.0,,,,,,,,,blue,hexagon
0.0,6.0,2.0,1.0,5.0,5.0,1077.009861008264,8.0,1.0,phase_2,stop,950.0,600.0,3.0,,,,,,,,,orange,square
0.0,5.0,1.0,1.0,7.0,3.0,1494.0719549776986,1.0,2.0,phase_3,,,,,1038.0,6.0,519.0,692.0,1038.0,865.0,173.0,346.0,green,cross
0.0,4.0,4.0,0.0,7.0,5.0,1391.074007959105,1.0,1.0,phase_3,,,,,519.0,3.0,1038.0,865.0,692.0,346.0,519.0,173.0,cyan,I
0.0,5.0,1.0,1.0,7.0,2.0,816.6207009926438,1.0,1.0,phase_3,,,,,576.0,3.0,1152.0,576.0,384.0,768.0,192.0,960.0,green,cross
0.0,3.0,3.0,0.0,7.0,1.0,2196.311514999252,1.0,1.0,phase_3,,,,,135.0,1.0,135.0,405.0,270.0,675.0,540.0,810.0,white,circle
0.0,4.0,4.0,0.0,7.0,5.0,978.8527500350028,1.0,1.0,phase_3,,,,,960.0,5.0,192.0,768.0,576.0,1152.0,960.0,384.0,cyan,I
0.0,2.0,2.0,0.0,7.0,1.0,1734.924286021851,1.0,1.0,phase_3,,,,,580.0,5.0,580.0,464.0,116.0,232.0,348.0,696.0,blue,hexagon
0.0,1.0,1.0,0.0,7.0,2.0,408.1118309986777,1.0,1.0,phase_3,,,,,576.0,3.0,960.0,576.0,192.0,1152.0,384.0,768.0,yellow,flipped triangle
0.0,2.0,2.0,0.0,7.0,6.0,1687.364006007556,1.0,1.0,phase_3,,,,,576.0,3.0,960.0,384.0,1152.0,192.0,768.0,576.0,blue,hexagon
0.0,8.0,4.0,1.0,7.0,2.0,2506.70316600008,1.0,1.0,phase_3,,,,,346.0,2.0,692.0,346.0,519.0,173.0,865.0,1038.0,gray,triangle
0.0,6.0,2.0,1.0,7.0,6.0,1676.030873961281,1.0,1.0,phase_3,,,,,770.0,5.0,154.0,308.0,462.0,616.0,924.0,770.0,orange,square
0.0,8.0,4.0,1.0,7.0,5.0,1562.4864820274524,1.0,1.0,phase_3,,,,,232.0,2.0,348.0,116.0,464.0,580.0,232.0,696.0,gray,triangle
0.0,1.0,1.0,0.0,7.0,1.0,1101.2797110015526,1.0,1.0,phase_3,,,,,865.0,5.0,865.0,519.0,346.0,692.0,173.0,1038.0,yellow,flipped triangle
0.0,4.0,4.0,0.0,7.0,2.0,1973.2960889814424,1.0,1.0,phase_3,,,,,348.0,3.0,464.0,348.0,580.0,696.0,232.0,116.0,cyan,I
0.0,1.0,1.0,0.0,7.0,6.0,1118.523286015261,1.0,1.0,phase_3,,,,,810.0,6.0,675.0,540.0,270.0,135.0,405.0,810.0,yellow,flipped triangle
0.0,3.0,3.0,0.0,7.0,5.0,1752.12569499854,1.0,1.0,phase_3,,,,,1152.0,6.0,960.0,768.0,576.0,192.0,1152.0,384.0,white,circle
0.0,6.0,2.0,1.0,7.0,2.0,266.5269789868034,1.0,1.0,phase_3,,,,,1038.0,6.0,519.0,1038.0,346.0,173.0,865.0,692.0,orange,square
0.0,6.0,2.0,1.0,7.0,2.0,539.5749129820615,1.0,1.0,phase_3,,,,,384.0,2.0,192.0,384.0,1152.0,768.0,576.0,960.0,orange,square
0.0,2.0,2.0,0.0,7.0,5.0,2236.831173009705,1.0,1.0,phase_3,,,,,924.0,6.0,770.0,616.0,462.0,154.0,924.0,308.0,blue,hexagon
0.0,4.0,4.0,0.0,7.0,5.0,1333.2721199840307,1.0,1.0,phase_3,,,,,462.0,3.0,770.0,924.0,616.0,154.0,462.0,308.0,cyan,I
0.0,7.0,3.0,1.0,7.0,1.0,960.5342959985136,1.0,1.0,phase_3,,,,,960.0,5.0,960.0,576.0,768.0,384.0,1152.0,192.0,magenta,diamond
0.0,5.0,1.0,1.0,7.0,4.0,1290.458974952344,2.0,1.0,phase_3,,,,,519.0,3.0,173.0,346.0,692.0,519.0,1038.0,865.0,green,cross
0.0,2.0,2.0,0.0,7.0,1.0,1520.5848180339672,2.0,1.0,phase_3,,,,,810.0,6.0,810.0,270.0,135.0,405.0,675.0,540.0,blue,hexagon
0.0,1.0,1.0,0.0,7.0,5.0,1788.4806239744648,2.0,1.0,phase_3,,,,,768.0,4.0,192.0,1152.0,384.0,960.0,768.0,576.0,yellow,flipped triangle
0.0,2.0,2.0,0.0,7.0,4.0,1740.004602004774,2.0,1.0,phase_3,,,,,616.0,4.0,154.0,924.0,770.0,616.0,462.0,308.0,blue,hexagon
0.0,1.0,1.0,0.0,7.0,2.0,445.0361030176282,2.0,1.0,phase_3,,,,,154.0,1.0,616.0,154.0,770.0,924.0,308.0,462.0,yellow,flipped triangle
0.0,3.0,3.0,0.0,7.0,1.0,1456.3586840522476,2.0,1.0,phase_3,,,,,232.0,2.0,232.0,116.0,696.0,348.0,580.0,464.0,white,circle
0.0,7.0,3.0,1.0,7.0,3.0,1529.685027024243,2.0,1.0,phase_3,,,,,616.0,4.0,770.0,924.0,616.0,462.0,308.0,154.0,magenta,diamond
0.0,3.0,3.0,0.0,7.0,6.0,2666.097015957348,2.0,1.0,phase_3,,,,,192.0,1.0,1152.0,384.0,960.0,576.0,768.0,192.0,white,circle
0.0,4.0,4.0,0.0,7.0,1.0,2274.276228970848,2.0,1.0,phase_3,,,,,135.0,1.0,135.0,405.0,270.0,675.0,540.0,810.0,cyan,I
0.0,6.0,2.0,1.0,7.0,2.0,1804.7479550004937,2.0,1.0,phase_3,,,,,696.0,6.0,232.0,696.0,464.0,580.0,116.0,348.0,orange,square
0.0,3.0,3.0,0.0,7.0,1.0,1236.111083009746,2.0,1.0,phase_3,,,,,348.0,3.0,348.0,580.0,696.0,116.0,464.0,232.0,white,circle
0.0,5.0,1.0,1.0,7.0,1.0,1952.1978229749948,2.0,1.0,phase_3,,,,,810.0,6.0,810.0,675.0,540.0,405.0,135.0,270.0,green,cross
0.0,8.0,4.0,1.0,7.0,3.0,2318.8099740073085,2.0,1.0,phase_3,,,,,519.0,3.0,173.0,346.0,519.0,692.0,1038.0,865.0,gray,triangle
0.0,7.0,3.0,1.0,7.0,6.0,1994.8168839910068,2.0,1.0,phase_3,,,,,924.0,6.0,770.0,616.0,154.0,462.0,308.0,924.0,magenta,diamond
0.0,1.0,1.0,0.0,7.0,3.0,2395.031433959957,2.0,1.0,phase_3,,,,,580.0,5.0,232.0,116.0,580.0,696.0,464.0,348.0,yellow,flipped triangle
0.0,3.0,3.0,0.0,7.0,2.0,210.5645349947735,2.0,1.0,phase_3,,,,,346.0,2.0,1038.0,346.0,173.0,519.0,692.0,865.0,white,circle
0.0,3.0,3.0,0.0,7.0,3.0,2037.1567099937238,2.0,1.0,phase_3,,,,,270.0,2.0,540.0,405.0,270.0,135.0,810.0,675.0,white,circle
0.0,6.0,2.0,1.0,7.0,3.0,2695.577353995759,2.0,1.0,phase_3,,,,,770.0,5.0,154.0,616.0,770.0,308.0,462.0,924.0,orange,square
0.0,7.0,3.0,1.0,7.0,2.0,2446.546919993125,2.0,1.0,phase_3,,,,,696.0,6.0,464.0,696.0,116.0,348.0,580.0,232.0,magenta,diamond
0.0,8.0,4.0,1.0,7.0,5.0,1344.9478429974988,2.0,1.0,phase_3,,,,,270.0,2.0,675.0,540.0,810.0,135.0,270.0,405.0,gray,triangle
0.0,7.0,3.0,1.0,7.0,1.0,1164.6168419974856,3.0,1.0,phase_3,,,,,519.0,3.0,519.0,692.0,346.0,1038.0,865.0,173.0,magenta,diamond
0.0,6.0,2.0,1.0,7.0,1.0,1771.532359009143,3.0,1.0,phase_3,,,,,464.0,4.0,464.0,116.0,232.0,580.0,696.0,348.0,orange,square
0.0,1.0,1.0,0.0,7.0,3.0,1149.220128019806,3.0,1.0,phase_3,,,,,692.0,4.0,346.0,173.0,692.0,519.0,1038.0,865.0,yellow,flipped triangle
0.0,8.0,4.0,1.0,7.0,5.0,774.8251890297979,3.0,1.0,phase_3,,,,,232.0,2.0,580.0,348.0,464.0,116.0,232.0,696.0,gray,triangle
0.0,6.0,2.0,1.0,7.0,2.0,1607.8369309543632,3.0,1.0,phase_3,,,,,865.0,5.0,173.0,865.0,346.0,519.0,1038.0,692.0,orange,square
0.0,6.0,2.0,1.0,7.0,5.0,929.378998989705,3.0,1.0,phase_3,,,,,1152.0,6.0,192.0,384.0,576.0,768.0,1152.0,960.0,orange,square
0.0,2.0,2.0,0.0,7.0,2.0,915.226939949207,3.0,1.0,phase_3,,,,,696.0,6.0,348.0,696.0,232.0,116.0,580.0,464.0,blue,hexagon
0.0,5.0,1.0,1.0,7.0,4.0,131.1222409713082,3.0,1.0,phase_3,,,,,770.0,5.0,616.0,924.0,462.0,770.0,154.0,308.0,green,cross
0.0,8.0,4.0,1.0,7.0,1.0,1268.669345008675,3.0,1.0,phase_3,,,,,154.0,1.0,154.0,462.0,924.0,616.0,770.0,308.0,gray,triangle
0.0,1.0,1.0,0.0,7.0,5.0,1527.9497590381652,3.0,1.0,phase_3,,,,,270.0,2.0,405.0,675.0,810.0,540.0,270.0,135.0,yellow,flipped triangle
0.0,8.0,4.0,1.0,7.0,2.0,225.8097850135527,3.0,1.0,phase_3,,,,,270.0,2.0,675.0,270.0,405.0,810.0,540.0,135.0,gray,triangle
0.0,5.0,1.0,1.0,7.0,4.0,1272.1150759607551,3.0,1.0,phase_3,,,,,696.0,6.0,348.0,464.0,580.0,696.0,116.0,232.0,green,cross
0.0,4.0,4.0,0.0,7.0,4.0,1548.2567980070598,3.0,1.0,phase_3,,,,,135.0,1.0,675.0,405.0,270.0,135.0,810.0,540.0,cyan,I
0.0,2.0,2.0,0.0,7.0,5.0,956.8014449905604,3.0,1.0,phase_3,,,,,692.0,4.0,173.0,1038.0,346.0,519.0,692.0,865.0,blue,hexagon
0.0,7.0,3.0,1.0,7.0,1.0,1037.1017680154182,3.0,1.0,phase_3,,,,,810.0,6.0,810.0,405.0,135.0,540.0,675.0,270.0,magenta,diamond
0.0,7.0,3.0,1.0,7.0,3.0,1616.2800070014782,3.0,1.0,phase_3,,,,,696.0,6.0,580.0,348.0,696.0,116.0,232.0,464.0,magenta,diamond
0.0,6.0,2.0,1.0,7.0,4.0,2785.650305973832,3.0,1.0,phase_3,,,,,810.0,6.0,540.0,405.0,270.0,810.0,135.0,675.0,orange,square
0.0,1.0,1.0,0.0,7.0,3.0,1407.456050044857,3.0,1.0,phase_3,,,,,462.0,3.0,308.0,770.0,462.0,924.0,616.0,154.0,yellow,flipped triangle
0.0,8.0,4.0,1.0,7.0,1.0,2433.385314012412,3.0,1.0,phase_3,,,,,192.0,1.0,192.0,960.0,576.0,384.0,1152.0,768.0,gray,triangle
0.0,4.0,4.0,0.0,7.0,1.0,770.862533012405,3.0,1.0,phase_3,,,,,308.0,2.0,308.0,154.0,770.0,924.0,462.0,616.0,cyan,I
0.0,3.0,3.0,0.0,7.0,6.0,989.774341986049,4.0,1.0,phase_3,,,,,770.0,5.0,616.0,924.0,308.0,462.0,154.0,770.0,white,circle
0.0,3.0,3.0,0.0,7.0,5.0,604.543361987453,4.0,1.0,phase_3,,,,,462.0,3.0,770.0,308.0,154.0,924.0,462.0,616.0,white,circle
0.0,5.0,1.0,1.0,7.0,2.0,29.9753490253351,4.0,1.0,phase_3,,,,,675.0,5.0,135.0,675.0,405.0,540.0,810.0,270.0,green,cross
0.0,7.0,3.0,1.0,7.0,1.0,351.8625949509442,4.0,1.0,phase_3,,,,,675.0,5.0,675.0,135.0,270.0,540.0,405.0,810.0,magenta,diamond
0.0,8.0,4.0,1.0,7.0,4.0,1608.795637032017,4.0,1.0,phase_3,,,,,192.0,1.0,768.0,960.0,576.0,192.0,384.0,1152.0,gray,triangle
0.0,2.0,2.0,0.0,7.0,5.0,981.2567599583416,4.0,1.0,phase_3,,,,,1038.0,6.0,346.0,692.0,865.0,519.0,1038.0,173.0,blue,hexagon
0.0,4.0,4.0,0.0,7.0,1.0,300.0479839975014,4.0,1.0,phase_3,,,,,232.0,2.0,232.0,348.0,580.0,116.0,696.0,464.0,cyan,I
0.0,2.0,2.0,0.0,7.0,1.0,2036.2031219992787,4.0,1.0,phase_3,,,,,960.0,5.0,960.0,192.0,768.0,576.0,1152.0,384.0,blue,hexagon
0.0,8.0,4.0,1.0,7.0,5.0,685.8122309786268,4.0,1.0,phase_3,,,,,770.0,5.0,154.0,924.0,616.0,308.0,770.0,462.0,gray,triangle
0.0,3.0,3.0,0.0,7.0,2.0,295.5963860149495,4.0,1.0,phase_3,,,,,173.0,1.0,346.0,173.0,519.0,865.0,692.0,1038.0,white,circle
0.0,2.0,2.0,0.0,7.0,4.0,1211.21110196691,4.0,1.0,phase_3,,,,,675.0,5.0,270.0,810.0,405.0,675.0,135.0,540.0,blue,hexagon
0.0,5.0,1.0,1.0,7.0,2.0,1385.753297014162,4.0,1.0,phase_3,,,,,580.0,5.0,116.0,580.0,464.0,696.0,232.0,348.0,green,cross
0.0,5.0,1.0,1.0,7.0,1.0,2516.003423021175,4.0,1.0,phase_3,,,,,616.0,4.0,616.0,462.0,308.0,770.0,924.0,154.0,green,cross
0.0,6.0,2.0,1.0,7.0,6.0,2262.612827005796,4.0,1.0,phase_3,,,,,810.0,6.0,270.0,135.0,405.0,675.0,540.0,810.0,orange,square
0.0,7.0,3.0,1.0,7.0,6.0,1166.375705972314,4.0,1.0,phase_3,,,,,1152.0,6.0,384.0,192.0,960.0,768.0,576.0,1152.0,magenta,diamond
0.0,7.0,3.0,1.0,7.0,1.0,1511.0736989881843,4.0,1.0,phase_3,,,,,1038.0,6.0,1038.0,865.0,519.0,173.0,692.0,346.0,magenta,diamond
0.0,1.0,1.0,0.0,7.0,2.0,1088.1479179952294,4.0,1.0,phase_3,,,,,580.0,5.0,116.0,580.0,232.0,696.0,348.0,464.0,yellow,flipped triangle
0.0,4.0,4.0,0.0,7.0,5.0,785.4678860167041,4.0,1.0,phase_3,,,,,692.0,4.0,173.0,1038.0,346.0,519.0,692.0,865.0,cyan,I
0.0,5.0,1.0,1.0,7.0,6.0,1978.906864998862,4.0,1.0,phase_3,,,,,768.0,4.0,384.0,1152.0,576.0,192.0,960.0,768.0,green,cross
0.0,4.0,4.0,0.0,7.0,3.0,1283.6381630040703,4.0,1.0,phase_3,,,,,1152.0,6.0,576.0,192.0,1152.0,384.0,768.0,960.0,cyan,I
