raw_reward_magnitude,stim_reward,stepwise_reward_magnitude,paired_with_stopping,stim_location,response,reaction_time,block,num_trial_presentations,which_phase,stop_signal_trial_type,left_SSD,right_SSD,accuracy,chosen_bidding_amount,chosen_bidding_level,possible_bid_1,possible_bid_2,possible_bid_3,possible_bid_4,possible_bid_5,possible_bid_6,color_text,shape_text
0.0,3.0,0.0,0.0,4.0,4.0,487.2716750001018,1.0,1.0,phase_1,,,,,,,,,,,,,orange,cross
153.0,5.0,1.0,1.0,2.0,2.0,520.6089379998957,1.0,2.0,phase_1,,,,,,,,,,,,,magenta,hexagon
183.0,1.0,1.0,0.0,4.0,4.0,368.1592890000047,1.0,1.0,phase_1,,,,,,,,,,,,,cyan,diamond
140.0,1.0,1.0,0.0,1.0,1.0,458.5825490000843,1.0,1.0,phase_1,,,,,,,,,,,,,cyan,diamond
641.0,7.0,3.0,1.0,2.0,2.0,403.4603840000272,1.0,2.0,phase_1,,,,,,,,,,,,,gray,flipped triangle
0.0,1.0,0.0,0.0,1.0,1.0,336.06144600003057,1.0,1.0,phase_1,,,,,,,,,,,,,cyan,diamond
183.0,5.0,1.0,1.0,2.0,2.0,493.4971360000872,1.0,1.0,phase_1,,,,,,,,,,,,,magenta,hexagon
1324.0,4.0,4.0,0.0,4.0,4.0,395.6418860000212,1.0,1.0,phase_1,,,,,,,,,,,,,blue,square
1283.0,4.0,4.0,0.0,2.0,2.0,632.0175299999846,1.0,1.0,phase_1,,,,,,,,,,,,,blue,square
321.0,6.0,2.0,1.0,1.0,1.0,506.5650569999889,1.0,1.0,phase_1,,,,,,,,,,,,,yellow,circle
641.0,3.0,3.0,0.0,2.0,2.0,392.558149000024,1.0,1.0,phase_1,,,,,,,,,,,,,orange,cross
153.0,1.0,1.0,0.0,1.0,1.0,332.3321139998825,1.0,1.0,phase_1,,,,,,,,,,,,,cyan,diamond
181.0,1.0,1.0,0.0,4.0,4.0,443.5845580001114,1.0,1.0,phase_1,,,,,,,,,,,,,cyan,diamond
1288.0,4.0,4.0,0.0,1.0,1.0,365.0200690001384,1.0,1.0,phase_1,,,,,,,,,,,,,blue,square
349.0,2.0,2.0,0.0,4.0,4.0,434.5488840001508,1.0,1.0,phase_1,,,,,,,,,,,,,white,triangle
168.0,5.0,1.0,1.0,3.0,3.0,486.1933460001637,1.0,1.0,phase_1,,,,,,,,,,,,,magenta,hexagon
0.0,3.0,0.0,0.0,3.0,3.0,427.9725540000072,1.0,1.0,phase_1,,,,,,,,,,,,,orange,cross
666.0,3.0,3.0,0.0,1.0,1.0,480.4917430001296,1.0,1.0,phase_1,,,,,,,,,,,,,orange,cross
179.0,5.0,1.0,1.0,1.0,1.0,412.9727620002086,1.0,1.0,phase_1,,,,,,,,,,,,,magenta,hexagon
169.0,5.0,1.0,1.0,2.0,2.0,505.33782900015467,1.0,1.0,phase_1,,,,,,,,,,,,,magenta,hexagon
1323.0,8.0,4.0,1.0,4.0,4.0,431.5939880000314,1.0,1.0,phase_1,,,,,,,,,,,,,green,I
329.0,2.0,2.0,0.0,2.0,2.0,930.0639470000078,1.0,1.0,phase_1,,,,,,,,,,,,,white,triangle
316.0,6.0,2.0,1.0,1.0,1.0,439.3058509999719,1.0,1.0,phase_1,,,,,,,,,,,,,yellow,circle
635.0,3.0,3.0,0.0,4.0,4.0,427.5063850000151,1.0,1.0,phase_1,,,,,,,,,,,,,orange,cross
145.0,5.0,1.0,1.0,1.0,1.0,424.8887899998408,1.0,1.0,phase_1,,,,,,,,,,,,,magenta,hexagon
640.0,7.0,3.0,1.0,4.0,4.0,524.9369979999301,1.0,1.0,phase_1,,,,,,,,,,,,,gray,flipped triangle
317.0,6.0,2.0,1.0,1.0,1.0,420.1352559998668,1.0,1.0,phase_1,,,,,,,,,,,,,yellow,circle
0.0,4.0,0.0,0.0,3.0,3.0,888.0874639999092,1.0,1.0,phase_1,,,,,,,,,,,,,blue,square
648.0,3.0,3.0,0.0,1.0,1.0,594.268965000083,1.0,1.0,phase_1,,,,,,,,,,,,,orange,cross
0.0,5.0,0.0,1.0,4.0,4.0,639.6575230000963,1.0,1.0,phase_1,,,,,,,,,,,,,magenta,hexagon
305.0,6.0,2.0,1.0,3.0,3.0,460.1575959998172,1.0,1.0,phase_1,,,,,,,,,,,,,yellow,circle
647.0,3.0,3.0,0.0,4.0,4.0,347.5630880000153,1.0,1.0,phase_1,,,,,,,,,,,,,orange,cross
658.0,7.0,3.0,1.0,2.0,2.0,642.2106509999139,1.0,2.0,phase_1,,,,,,,,,,,,,gray,flipped triangle
1303.0,4.0,4.0,0.0,1.0,1.0,451.6806379999707,1.0,2.0,phase_1,,,,,,,,,,,,,blue,square
0.0,2.0,0.0,0.0,1.0,1.0,337.3537109998779,1.0,1.0,phase_1,,,,,,,,,,,,,white,triangle
1288.0,4.0,4.0,0.0,3.0,3.0,413.3588370000325,1.0,1.0,phase_1,,,,,,,,,,,,,blue,square
184.0,1.0,1.0,0.0,1.0,1.0,436.560044999851,1.0,2.0,phase_1,,,,,,,,,,,,,cyan,diamond
0.0,7.0,0.0,1.0,3.0,3.0,537.7318540001852,1.0,1.0,phase_1,,,,,,,,,,,,,gray,flipped triangle
334.0,2.0,2.0,0.0,1.0,1.0,367.8289109998331,1.0,1.0,phase_1,,,,,,,,,,,,,white,triangle
149.0,5.0,1.0,1.0,3.0,3.0,556.9485559999521,1.0,1.0,phase_1,,,,,,,,,,,,,magenta,hexagon
1302.0,4.0,4.0,0.0,3.0,3.0,400.582206000081,1.0,1.0,phase_1,,,,,,,,,,,,,blue,square
658.0,3.0,3.0,0.0,3.0,3.0,390.2743129999635,1.0,1.0,phase_1,,,,,,,,,,,,,orange,cross
1308.0,4.0,4.0,0.0,4.0,4.0,395.6336809999357,1.0,1.0,phase_1,,,,,,,,,,,,,blue,square
664.0,3.0,3.0,0.0,3.0,3.0,453.5239250001268,1.0,1.0,phase_1,,,,,,,,,,,,,orange,cross
0.0,8.0,0.0,1.0,4.0,4.0,450.4133979999096,1.0,1.0,phase_1,,,,,,,,,,,,,green,I
330.0,6.0,2.0,1.0,4.0,4.0,352.2086920002039,1.0,1.0,phase_1,,,,,,,,,,,,,yellow,circle
0.0,6.0,0.0,1.0,4.0,4.0,314.8634510000647,1.0,1.0,phase_1,,,,,,,,,,,,,yellow,circle
0.0,3.0,0.0,0.0,3.0,3.0,362.7354089999244,1.0,1.0,phase_1,,,,,,,,,,,,,orange,cross
1277.0,8.0,4.0,1.0,4.0,4.0,383.1248670001059,1.0,1.0,phase_1,,,,,,,,,,,,,green,I
665.0,3.0,3.0,0.0,3.0,3.0,370.3107830001499,1.0,1.0,phase_1,,,,,,,,,,,,,orange,cross
0.0,5.0,0.0,1.0,1.0,1.0,494.2027790000338,1.0,1.0,phase_1,,,,,,,,,,,,,magenta,hexagon
321.0,2.0,2.0,0.0,3.0,3.0,450.110918000064,1.0,1.0,phase_1,,,,,,,,,,,,,white,triangle
338.0,2.0,2.0,0.0,4.0,4.0,417.4982239999281,1.0,1.0,phase_1,,,,,,,,,,,,,white,triangle
1310.0,4.0,4.0,0.0,1.0,1.0,477.4255620000076,1.0,1.0,phase_1,,,,,,,,,,,,,blue,square
666.0,7.0,3.0,1.0,1.0,1.0,617.3752959998637,1.0,1.0,phase_1,,,,,,,,,,,,,gray,flipped triangle
337.0,2.0,2.0,0.0,3.0,3.0,479.5685610001783,1.0,1.0,phase_1,,,,,,,,,,,,,white,triangle
152.0,1.0,1.0,0.0,2.0,2.0,856.917360999887,1.0,1.0,phase_1,,,,,,,,,,,,,cyan,diamond
157.0,5.0,1.0,1.0,1.0,1.0,616.8668689999777,1.0,1.0,phase_1,,,,,,,,,,,,,magenta,hexagon
317.0,2.0,2.0,0.0,2.0,2.0,736.5929150000738,1.0,2.0,phase_1,,,,,,,,,,,,,white,triangle
160.0,1.0,1.0,0.0,2.0,2.0,851.3816019999467,1.0,1.0,phase_1,,,,,,,,,,,,,cyan,diamond
627.0,7.0,3.0,1.0,3.0,3.0,480.5357259999709,1.0,1.0,phase_1,,,,,,,,,,,,,gray,flipped triangle
327.0,2.0,2.0,0.0,4.0,4.0,373.0461689999629,1.0,1.0,phase_1,,,,,,,,,,,,,white,triangle
674.0,3.0,3.0,0.0,1.0,1.0,560.8477650000623,1.0,1.0,phase_1,,,,,,,,,,,,,orange,cross
638.0,7.0,3.0,1.0,1.0,1.0,462.0143120000648,1.0,1.0,phase_1,,,,,,,,,,,,,gray,flipped triangle
174.0,5.0,1.0,1.0,3.0,3.0,482.6682150001034,1.0,1.0,phase_1,,,,,,,,,,,,,magenta,hexagon
152.0,5.0,1.0,1.0,4.0,4.0,461.4745869998842,1.0,2.0,phase_1,,,,,,,,,,,,,magenta,hexagon
0.0,4.0,0.0,0.0,1.0,1.0,488.8095910000629,1.0,1.0,phase_1,,,,,,,,,,,,,blue,square
0.0,6.0,0.0,1.0,3.0,3.0,445.5630040001779,1.0,1.0,phase_1,,,,,,,,,,,,,yellow,circle
1303.0,8.0,4.0,1.0,1.0,1.0,403.5579159999543,1.0,1.0,phase_1,,,,,,,,,,,,,green,I
664.0,7.0,3.0,1.0,2.0,2.0,471.8880189998344,1.0,3.0,phase_1,,,,,,,,,,,,,gray,flipped triangle
673.0,7.0,3.0,1.0,3.0,3.0,580.3619929999968,1.0,1.0,phase_1,,,,,,,,,,,,,gray,flipped triangle
1310.0,8.0,4.0,1.0,3.0,3.0,482.291018000069,1.0,1.0,phase_1,,,,,,,,,,,,,green,I
322.0,2.0,2.0,0.0,3.0,3.0,365.3085250000458,1.0,1.0,phase_1,,,,,,,,,,,,,white,triangle
340.0,2.0,2.0,0.0,4.0,4.0,347.7978270000221,1.0,1.0,phase_1,,,,,,,,,,,,,white,triangle
630.0,3.0,3.0,0.0,1.0,1.0,487.9911020000236,1.0,1.0,phase_1,,,,,,,,,,,,,orange,cross
626.0,7.0,3.0,1.0,4.0,4.0,372.1919810000145,1.0,1.0,phase_1,,,,,,,,,,,,,gray,flipped triangle
649.0,3.0,3.0,0.0,1.0,1.0,432.6007509998817,1.0,1.0,phase_1,,,,,,,,,,,,,orange,cross
1286.0,8.0,4.0,1.0,3.0,3.0,415.5890089998593,1.0,1.0,phase_1,,,,,,,,,,,,,green,I
350.0,6.0,2.0,1.0,3.0,3.0,538.6345859999437,1.0,1.0,phase_1,,,,,,,,,,,,,yellow,circle
301.0,6.0,2.0,1.0,1.0,1.0,424.0854070001205,1.0,1.0,phase_1,,,,,,,,,,,,,yellow,circle
1283.0,4.0,4.0,0.0,3.0,3.0,413.4636269998282,1.0,1.0,phase_1,,,,,,,,,,,,,blue,square
187.0,1.0,1.0,0.0,2.0,2.0,480.5935980000413,1.0,1.0,phase_1,,,,,,,,,,,,,cyan,diamond
634.0,7.0,3.0,1.0,2.0,2.0,403.8340919998973,1.0,1.0,phase_1,,,,,,,,,,,,,gray,flipped triangle
0.0,8.0,0.0,1.0,4.0,4.0,411.5284370000154,1.0,1.0,phase_1,,,,,,,,,,,,,green,I
1283.0,8.0,4.0,1.0,2.0,2.0,489.2614390000744,1.0,2.0,phase_1,,,,,,,,,,,,,green,I
0.0,4.0,0.0,0.0,4.0,4.0,422.7085879999777,1.0,1.0,phase_1,,,,,,,,,,,,,blue,square
342.0,6.0,2.0,1.0,3.0,3.0,474.6280679999017,1.0,2.0,phase_1,,,,,,,,,,,,,yellow,circle
163.0,1.0,1.0,0.0,4.0,4.0,412.5351489999502,1.0,1.0,phase_1,,,,,,,,,,,,,cyan,diamond
330.0,2.0,2.0,0.0,1.0,1.0,497.2864100000151,1.0,1.0,phase_1,,,,,,,,,,,,,white,triangle
344.0,6.0,2.0,1.0,4.0,4.0,374.7610289999556,1.0,1.0,phase_1,,,,,,,,,,,,,yellow,circle
172.0,1.0,1.0,0.0,3.0,3.0,685.1586039999802,1.0,1.0,phase_1,,,,,,,,,,,,,cyan,diamond
673.0,3.0,3.0,0.0,2.0,2.0,724.1814129999966,1.0,2.0,phase_1,,,,,,,,,,,,,orange,cross
1280.0,8.0,4.0,1.0,1.0,1.0,418.6719629999516,1.0,1.0,phase_1,,,,,,,,,,,,,green,I
666.0,7.0,3.0,1.0,1.0,1.0,487.418660000003,1.0,1.0,phase_1,,,,,,,,,,,,,gray,flipped triangle
0.0,5.0,0.0,1.0,1.0,1.0,499.6032920000743,1.0,1.0,phase_1,,,,,,,,,,,,,magenta,hexagon
669.0,3.0,3.0,0.0,2.0,2.0,459.1835439998704,1.0,2.0,phase_1,,,,,,,,,,,,,orange,cross
0.0,7.0,0.0,1.0,1.0,1.0,502.99727500009794,1.0,1.0,phase_1,,,,,,,,,,,,,gray,flipped triangle
663.0,3.0,3.0,0.0,4.0,4.0,404.2139690000113,1.0,1.0,phase_1,,,,,,,,,,,,,orange,cross
0.0,7.0,0.0,1.0,4.0,4.0,619.2206270000042,1.0,1.0,phase_1,,,,,,,,,,,,,gray,flipped triangle
157.0,5.0,1.0,1.0,4.0,4.0,421.6216020001866,1.0,1.0,phase_1,,,,,,,,,,,,,magenta,hexagon
0.0,3.0,0.0,0.0,2.0,2.0,262.7058430000488,2.0,1.0,phase_1,,,,,,,,,,,,,orange,cross
313.0,2.0,2.0,0.0,1.0,1.0,395.7306919999155,2.0,1.0,phase_1,,,,,,,,,,,,,white,triangle
1308.0,8.0,4.0,1.0,4.0,4.0,390.2500480000981,2.0,1.0,phase_1,,,,,,,,,,,,,green,I
321.0,2.0,2.0,0.0,2.0,2.0,348.5946189998685,2.0,1.0,phase_1,,,,,,,,,,,,,white,triangle
328.0,2.0,2.0,0.0,2.0,2.0,358.1793660000585,2.0,1.0,phase_1,,,,,,,,,,,,,white,triangle
152.0,1.0,1.0,0.0,1.0,1.0,648.0975289998696,2.0,2.0,phase_1,,,,,,,,,,,,,cyan,diamond
302.0,2.0,2.0,0.0,1.0,1.0,573.0726199999481,2.0,1.0,phase_1,,,,,,,,,,,,,white,triangle
625.0,3.0,3.0,0.0,3.0,3.0,424.7493730001679,2.0,1.0,phase_1,,,,,,,,,,,,,orange,cross
1308.0,8.0,4.0,1.0,4.0,4.0,438.5855350001293,2.0,1.0,phase_1,,,,,,,,,,,,,green,I
0.0,4.0,0.0,0.0,1.0,1.0,427.5538589999996,2.0,1.0,phase_1,,,,,,,,,,,,,blue,square
151.0,5.0,1.0,1.0,2.0,2.0,616.5043339999556,2.0,1.0,phase_1,,,,,,,,,,,,,magenta,hexagon
672.0,3.0,3.0,0.0,2.0,2.0,459.5169239998995,2.0,1.0,phase_1,,,,,,,,,,,,,orange,cross
162.0,1.0,1.0,0.0,1.0,1.0,553.8390500000787,2.0,1.0,phase_1,,,,,,,,,,,,,cyan,diamond
172.0,5.0,1.0,1.0,1.0,1.0,388.1377449999945,2.0,1.0,phase_1,,,,,,,,,,,,,magenta,hexagon
0.0,7.0,0.0,1.0,2.0,2.0,392.8734060000352,2.0,1.0,phase_1,,,,,,,,,,,,,gray,flipped triangle
1288.0,8.0,4.0,1.0,1.0,1.0,382.1002600000156,2.0,1.0,phase_1,,,,,,,,,,,,,green,I
671.0,7.0,3.0,1.0,1.0,1.0,411.1907149999751,2.0,1.0,phase_1,,,,,,,,,,,,,gray,flipped triangle
332.0,6.0,2.0,1.0,2.0,2.0,400.5906370000502,2.0,1.0,phase_1,,,,,,,,,,,,,yellow,circle
310.0,6.0,2.0,1.0,1.0,1.0,302.1046899998509,2.0,1.0,phase_1,,,,,,,,,,,,,yellow,circle
307.0,6.0,2.0,1.0,3.0,3.0,488.9590899999803,2.0,1.0,phase_1,,,,,,,,,,,,,yellow,circle
1289.0,8.0,4.0,1.0,2.0,2.0,332.8057510000235,2.0,1.0,phase_1,,,,,,,,,,,,,green,I
324.0,2.0,2.0,0.0,1.0,1.0,265.7844299999397,2.0,1.0,phase_1,,,,,,,,,,,,,white,triangle
157.0,1.0,1.0,0.0,2.0,2.0,413.3797219999451,2.0,1.0,phase_1,,,,,,,,,,,,,cyan,diamond
1300.0,8.0,4.0,1.0,4.0,4.0,435.2594959998441,2.0,1.0,phase_1,,,,,,,,,,,,,green,I
0.0,7.0,0.0,1.0,4.0,4.0,470.9213730000101,2.0,1.0,phase_1,,,,,,,,,,,,,gray,flipped triangle
649.0,7.0,3.0,1.0,3.0,3.0,619.5748349998667,2.0,2.0,phase_1,,,,,,,,,,,,,gray,flipped triangle
0.0,2.0,0.0,0.0,4.0,4.0,462.3976939999465,2.0,1.0,phase_1,,,,,,,,,,,,,white,triangle
163.0,5.0,1.0,1.0,4.0,4.0,402.2795429998496,2.0,1.0,phase_1,,,,,,,,,,,,,magenta,hexagon
649.0,3.0,3.0,0.0,4.0,4.0,319.8073400001249,2.0,1.0,phase_1,,,,,,,,,,,,,orange,cross
321.0,6.0,2.0,1.0,1.0,1.0,394.9484810000285,2.0,1.0,phase_1,,,,,,,,,,,,,yellow,circle
1311.0,8.0,4.0,1.0,1.0,1.0,376.436668999986,2.0,1.0,phase_1,,,,,,,,,,,,,green,I
638.0,3.0,3.0,0.0,2.0,2.0,707.7440940001907,2.0,1.0,phase_1,,,,,,,,,,,,,orange,cross
672.0,7.0,3.0,1.0,4.0,4.0,445.3671200003555,2.0,2.0,phase_1,,,,,,,,,,,,,gray,flipped triangle
145.0,1.0,1.0,0.0,4.0,4.0,484.5603349999692,2.0,1.0,phase_1,,,,,,,,,,,,,cyan,diamond
0.0,6.0,0.0,1.0,4.0,4.0,478.2939820001957,2.0,1.0,phase_1,,,,,,,,,,,,,yellow,circle
0.0,5.0,0.0,1.0,3.0,3.0,411.2307219998001,2.0,1.0,phase_1,,,,,,,,,,,,,magenta,hexagon
318.0,6.0,2.0,1.0,3.0,3.0,807.4941929999113,2.0,1.0,phase_1,,,,,,,,,,,,,yellow,circle
338.0,6.0,2.0,1.0,2.0,2.0,709.6551059999001,2.0,1.0,phase_1,,,,,,,,,,,,,yellow,circle
671.0,3.0,3.0,0.0,3.0,3.0,706.6268269995817,2.0,1.0,phase_1,,,,,,,,,,,,,orange,cross
0.0,1.0,0.0,0.0,2.0,2.0,549.546706000001,2.0,1.0,phase_1,,,,,,,,,,,,,cyan,diamond
310.0,2.0,2.0,0.0,1.0,1.0,514.53685100023,2.0,1.0,phase_1,,,,,,,,,,,,,white,triangle
307.0,2.0,2.0,0.0,3.0,3.0,912.2402859998148,2.0,1.0,phase_1,,,,,,,,,,,,,white,triangle
181.0,5.0,1.0,1.0,4.0,4.0,510.12535500012746,2.0,1.0,phase_1,,,,,,,,,,,,,magenta,hexagon
300.0,2.0,2.0,0.0,2.0,2.0,481.7282730000443,2.0,1.0,phase_1,,,,,,,,,,,,,white,triangle
137.0,1.0,1.0,0.0,4.0,4.0,444.1617510001379,2.0,1.0,phase_1,,,,,,,,,,,,,cyan,diamond
625.0,7.0,3.0,1.0,4.0,4.0,385.08285799980507,2.0,1.0,phase_1,,,,,,,,,,,,,gray,flipped triangle
156.0,5.0,1.0,1.0,2.0,2.0,558.1001690002267,2.0,1.0,phase_1,,,,,,,,,,,,,magenta,hexagon
1302.0,8.0,4.0,1.0,3.0,3.0,537.9231770002662,2.0,1.0,phase_1,,,,,,,,,,,,,green,I
337.0,6.0,2.0,1.0,2.0,2.0,414.7667470001579,2.0,1.0,phase_1,,,,,,,,,,,,,yellow,circle
0.0,2.0,0.0,0.0,4.0,4.0,492.6984969997647,2.0,1.0,phase_1,,,,,,,,,,,,,white,triangle
149.0,1.0,1.0,0.0,3.0,3.0,540.9738610001114,2.0,2.0,phase_1,,,,,,,,,,,,,cyan,diamond
142.0,1.0,1.0,0.0,3.0,3.0,433.4496520000357,2.0,1.0,phase_1,,,,,,,,,,,,,cyan,diamond
0.0,1.0,0.0,0.0,2.0,2.0,647.4028160000671,2.0,1.0,phase_1,,,,,,,,,,,,,cyan,diamond
329.0,6.0,2.0,1.0,3.0,3.0,403.1526819999271,2.0,1.0,phase_1,,,,,,,,,,,,,yellow,circle
174.0,5.0,1.0,1.0,1.0,1.0,478.554239999994,2.0,2.0,phase_1,,,,,,,,,,,,,magenta,hexagon
157.0,1.0,1.0,0.0,4.0,4.0,851.4861989997371,2.0,1.0,phase_1,,,,,,,,,,,,,cyan,diamond
149.0,1.0,1.0,0.0,1.0,1.0,390.2898080000341,2.0,1.0,phase_1,,,,,,,,,,,,,cyan,diamond
1311.0,4.0,4.0,0.0,3.0,3.0,481.8780840000727,2.0,1.0,phase_1,,,,,,,,,,,,,blue,square
0.0,4.0,0.0,0.0,1.0,1.0,440.2851730001202,2.0,1.0,phase_1,,,,,,,,,,,,,blue,square
0.0,6.0,0.0,1.0,1.0,1.0,395.8289259999219,2.0,1.0,phase_1,,,,,,,,,,,,,yellow,circle
672.0,3.0,3.0,0.0,4.0,4.0,368.0104469999605,2.0,1.0,phase_1,,,,,,,,,,,,,orange,cross
155.0,1.0,1.0,0.0,4.0,4.0,532.5832869998521,2.0,1.0,phase_1,,,,,,,,,,,,,cyan,diamond
1277.0,4.0,4.0,0.0,1.0,1.0,577.0962320002582,2.0,1.0,phase_1,,,,,,,,,,,,,blue,square
628.0,7.0,3.0,1.0,4.0,4.0,440.5792950001341,2.0,1.0,phase_1,,,,,,,,,,,,,gray,flipped triangle
668.0,3.0,3.0,0.0,3.0,3.0,442.1616190002169,2.0,2.0,phase_1,,,,,,,,,,,,,orange,cross
1293.0,8.0,4.0,1.0,3.0,3.0,444.4760459996359,2.0,1.0,phase_1,,,,,,,,,,,,,green,I
1310.0,4.0,4.0,0.0,3.0,3.0,416.2627579999025,2.0,1.0,phase_1,,,,,,,,,,,,,blue,square
172.0,1.0,1.0,0.0,3.0,3.0,341.2225299998681,2.0,1.0,phase_1,,,,,,,,,,,,,cyan,diamond
1323.0,8.0,4.0,1.0,2.0,2.0,476.4259210001,2.0,1.0,phase_1,,,,,,,,,,,,,green,I
1308.0,8.0,4.0,1.0,3.0,3.0,359.7899279998273,2.0,1.0,phase_1,,,,,,,,,,,,,green,I
664.0,3.0,3.0,0.0,3.0,3.0,394.8265770000034,2.0,1.0,phase_1,,,,,,,,,,,,,orange,cross
1313.0,8.0,4.0,1.0,2.0,2.0,449.7056340001109,2.0,1.0,phase_1,,,,,,,,,,,,,green,I
1305.0,8.0,4.0,1.0,2.0,2.0,493.76187200005,2.0,1.0,phase_1,,,,,,,,,,,,,green,I
0.0,2.0,0.0,0.0,2.0,2.0,520.6146890000127,2.0,1.0,phase_1,,,,,,,,,,,,,white,triangle
1319.0,4.0,4.0,0.0,4.0,4.0,485.7638240000597,2.0,1.0,phase_1,,,,,,,,,,,,,blue,square
0.0,1.0,0.0,0.0,2.0,2.0,523.9641179996397,2.0,1.0,phase_1,,,,,,,,,,,,,cyan,diamond
1316.0,4.0,4.0,0.0,2.0,2.0,462.8924740000002,2.0,1.0,phase_1,,,,,,,,,,,,,blue,square
1285.0,8.0,4.0,1.0,3.0,3.0,413.9455080003245,2.0,1.0,phase_1,,,,,,,,,,,,,green,I
0.0,2.0,0.0,0.0,2.0,2.0,418.5755720000088,2.0,1.0,phase_1,,,,,,,,,,,,,white,triangle
300.0,6.0,2.0,1.0,2.0,2.0,421.9555480003691,2.0,1.0,phase_1,,,,,,,,,,,,,yellow,circle
626.0,3.0,3.0,0.0,4.0,4.0,585.6088350001301,2.0,1.0,phase_1,,,,,,,,,,,,,orange,cross
0.0,3.0,0.0,0.0,3.0,3.0,965.692344999752,2.0,1.0,phase_1,,,,,,,,,,,,,orange,cross
0.0,7.0,0.0,1.0,1.0,1.0,627.6304600000913,2.0,1.0,phase_1,,,,,,,,,,,,,gray,flipped triangle
0.0,8.0,0.0,1.0,4.0,4.0,412.7374459999373,2.0,1.0,phase_1,,,,,,,,,,,,,green,I
1323.0,4.0,4.0,0.0,4.0,4.0,404.5786470001076,2.0,1.0,phase_1,,,,,,,,,,,,,blue,square
669.0,7.0,3.0,1.0,3.0,3.0,466.4078589999008,2.0,1.0,phase_1,,,,,,,,,,,,,gray,flipped triangle
313.0,6.0,2.0,1.0,2.0,2.0,500.58416499996383,2.0,1.0,phase_1,,,,,,,,,,,,,yellow,circle
0.0,2.0,0.0,0.0,3.0,3.0,408.8775999998688,2.0,1.0,phase_1,,,,,,,,,,,,,white,triangle
658.0,7.0,3.0,1.0,2.0,2.0,392.2226320000845,2.0,1.0,phase_1,,,,,,,,,,,,,gray,flipped triangle
1309.0,8.0,4.0,1.0,1.0,1.0,457.6275280001027,2.0,2.0,phase_1,,,,,,,,,,,,,green,I
146.0,5.0,1.0,1.0,4.0,4.0,549.3641030002436,2.0,1.0,phase_1,,,,,,,,,,,,,magenta,hexagon
1310.0,8.0,4.0,1.0,3.0,3.0,719.1063569998732,2.0,2.0,phase_1,,,,,,,,,,,,,green,I
327.0,6.0,2.0,1.0,2.0,2.0,475.5241050002041,2.0,1.0,phase_1,,,,,,,,,,,,,yellow,circle
302.0,6.0,2.0,1.0,1.0,1.0,566.6662479998195,2.0,1.0,phase_1,,,,,,,,,,,,,yellow,circle
0.0,6.0,0.0,1.0,3.0,3.0,810.6430130001172,2.0,1.0,phase_1,,,,,,,,,,,,,yellow,circle
137.0,5.0,1.0,1.0,3.0,3.0,498.0906949999735,2.0,1.0,phase_1,,,,,,,,,,,,,magenta,hexagon
345.0,2.0,2.0,0.0,2.0,2.0,379.9781049997364,2.0,1.0,phase_1,,,,,,,,,,,,,white,triangle
149.0,5.0,1.0,1.0,3.0,3.0,400.6202870000379,2.0,1.0,phase_1,,,,,,,,,,,,,magenta,hexagon
666.0,3.0,3.0,0.0,1.0,1.0,439.0092009998625,2.0,3.0,phase_1,,,,,,,,,,,,,orange,cross
643.0,3.0,3.0,0.0,4.0,4.0,420.6726359998356,2.0,1.0,phase_1,,,,,,,,,,,,,orange,cross
338.0,2.0,2.0,0.0,4.0,4.0,440.8724380000421,3.0,1.0,phase_1,,,,,,,,,,,,,white,triangle
329.0,2.0,2.0,0.0,1.0,1.0,412.3913379999067,3.0,1.0,phase_1,,,,,,,,,,,,,white,triangle
302.0,2.0,2.0,0.0,4.0,4.0,408.3525040000495,3.0,1.0,phase_1,,,,,,,,,,,,,white,triangle
1300.0,4.0,4.0,0.0,4.0,4.0,388.4906139996928,3.0,1.0,phase_1,,,,,,,,,,,,,blue,square
0.0,6.0,0.0,1.0,1.0,1.0,410.0304069997946,3.0,1.0,phase_1,,,,,,,,,,,,,yellow,circle
183.0,5.0,1.0,1.0,4.0,4.0,374.2618380001659,3.0,1.0,phase_1,,,,,,,,,,,,,magenta,hexagon
0.0,1.0,0.0,0.0,3.0,3.0,406.8703670000104,3.0,2.0,phase_1,,,,,,,,,,,,,cyan,diamond
1284.0,4.0,4.0,0.0,4.0,4.0,341.6167750001477,3.0,1.0,phase_1,,,,,,,,,,,,,blue,square
0.0,3.0,0.0,0.0,1.0,1.0,448.8292359997103,3.0,1.0,phase_1,,,,,,,,,,,,,orange,cross
631.0,3.0,3.0,0.0,3.0,3.0,630.0866550000137,3.0,1.0,phase_1,,,,,,,,,,,,,orange,cross
0.0,1.0,0.0,0.0,4.0,4.0,404.3401379999523,3.0,1.0,phase_1,,,,,,,,,,,,,cyan,diamond
0.0,8.0,0.0,1.0,2.0,2.0,617.0557359996565,3.0,1.0,phase_1,,,,,,,,,,,,,green,I
315.0,6.0,2.0,1.0,4.0,4.0,357.5106270000106,3.0,1.0,phase_1,,,,,,,,,,,,,yellow,circle
1289.0,4.0,4.0,0.0,2.0,2.0,523.4808199998042,3.0,2.0,phase_1,,,,,,,,,,,,,blue,square
162.0,5.0,1.0,1.0,3.0,3.0,368.9253500001541,3.0,1.0,phase_1,,,,,,,,,,,,,magenta,hexagon
328.0,6.0,2.0,1.0,4.0,4.0,373.3461520000674,3.0,1.0,phase_1,,,,,,,,,,,,,yellow,circle
329.0,6.0,2.0,1.0,1.0,1.0,604.875969999739,3.0,1.0,phase_1,,,,,,,,,,,,,yellow,circle
0.0,8.0,0.0,1.0,3.0,3.0,440.6898610000098,3.0,1.0,phase_1,,,,,,,,,,,,,green,I
663.0,7.0,3.0,1.0,2.0,2.0,554.6574910003983,3.0,1.0,phase_1,,,,,,,,,,,,,gray,flipped triangle
340.0,6.0,2.0,1.0,3.0,3.0,263.6154739998346,3.0,1.0,phase_1,,,,,,,,,,,,,yellow,circle
640.0,3.0,3.0,0.0,1.0,1.0,388.938928999778,3.0,1.0,phase_1,,,,,,,,,,,,,orange,cross
0.0,6.0,0.0,1.0,2.0,2.0,544.5217860001321,3.0,1.0,phase_1,,,,,,,,,,,,,yellow,circle
304.0,2.0,2.0,0.0,1.0,1.0,493.9651079998839,3.0,1.0,phase_1,,,,,,,,,,,,,white,triangle
1280.0,4.0,4.0,0.0,4.0,4.0,389.4585610000831,3.0,1.0,phase_1,,,,,,,,,,,,,blue,square
1319.0,8.0,4.0,1.0,1.0,1.0,687.5140629999805,3.0,1.0,phase_1,,,,,,,,,,,,,green,I
344.0,2.0,2.0,0.0,2.0,2.0,566.440061999856,3.0,1.0,phase_1,,,,,,,,,,,,,white,triangle
187.0,1.0,1.0,0.0,1.0,1.0,481.4480410000215,3.0,1.0,phase_1,,,,,,,,,,,,,cyan,diamond
1313.0,4.0,4.0,0.0,1.0,1.0,437.1001029999206,3.0,1.0,phase_1,,,,,,,,,,,,,blue,square
653.0,3.0,3.0,0.0,4.0,4.0,593.7775699999293,3.0,1.0,phase_1,,,,,,,,,,,,,orange,cross
169.0,1.0,1.0,0.0,2.0,2.0,486.3040889999865,3.0,1.0,phase_1,,,,,,,,,,,,,cyan,diamond
344.0,2.0,2.0,0.0,2.0,2.0,379.938415000197,3.0,1.0,phase_1,,,,,,,,,,,,,white,triangle
0.0,5.0,0.0,1.0,3.0,3.0,545.4456799998297,3.0,1.0,phase_1,,,,,,,,,,,,,magenta,hexagon
665.0,7.0,3.0,1.0,1.0,1.0,508.79104500018,3.0,1.0,phase_1,,,,,,,,,,,,,gray,flipped triangle
345.0,6.0,2.0,1.0,3.0,3.0,418.8256769998588,3.0,1.0,phase_1,,,,,,,,,,,,,yellow,circle
1308.0,4.0,4.0,0.0,3.0,3.0,478.4577549999085,3.0,1.0,phase_1,,,,,,,,,,,,,blue,square
634.0,3.0,3.0,0.0,3.0,3.0,377.666495000085,3.0,1.0,phase_1,,,,,,,,,,,,,orange,cross
307.0,2.0,2.0,0.0,3.0,3.0,345.3987789998791,3.0,1.0,phase_1,,,,,,,,,,,,,white,triangle
1323.0,8.0,4.0,1.0,3.0,3.0,331.3112969999565,3.0,1.0,phase_1,,,,,,,,,,,,,green,I
0.0,4.0,0.0,0.0,1.0,1.0,431.5143750000061,3.0,1.0,phase_1,,,,,,,,,,,,,blue,square
646.0,3.0,3.0,0.0,2.0,2.0,468.3381209997606,3.0,1.0,phase_1,,,,,,,,,,,,,orange,cross
1298.0,4.0,4.0,0.0,4.0,4.0,281.5200289996937,3.0,1.0,phase_1,,,,,,,,,,,,,blue,square
163.0,1.0,1.0,0.0,3.0,3.0,407.589469999948,3.0,1.0,phase_1,,,,,,,,,,,,,cyan,diamond
0.0,6.0,0.0,1.0,3.0,3.0,642.1547469999496,3.0,1.0,phase_1,,,,,,,,,,,,,yellow,circle
0.0,5.0,0.0,1.0,4.0,4.0,343.1733549996352,3.0,1.0,phase_1,,,,,,,,,,,,,magenta,hexagon
0.0,8.0,0.0,1.0,4.0,4.0,406.2688690000868,3.0,1.0,phase_1,,,,,,,,,,,,,green,I
0.0,3.0,0.0,0.0,3.0,3.0,376.2156090001554,3.0,1.0,phase_1,,,,,,,,,,,,,orange,cross
635.0,7.0,3.0,1.0,1.0,1.0,397.3685539999678,3.0,1.0,phase_1,,,,,,,,,,,,,gray,flipped triangle
161.0,5.0,1.0,1.0,2.0,2.0,698.3112099997015,3.0,1.0,phase_1,,,,,,,,,,,,,magenta,hexagon
148.0,1.0,1.0,0.0,3.0,3.0,445.8666509999602,3.0,1.0,phase_1,,,,,,,,,,,,,cyan,diamond
643.0,7.0,3.0,1.0,2.0,2.0,546.2220859999434,3.0,2.0,phase_1,,,,,,,,,,,,,gray,flipped triangle
342.0,2.0,2.0,0.0,4.0,4.0,460.0530799998523,3.0,1.0,phase_1,,,,,,,,,,,,,white,triangle
0.0,8.0,0.0,1.0,4.0,4.0,435.5002940001213,3.0,1.0,phase_1,,,,,,,,,,,,,green,I
658.0,3.0,3.0,0.0,2.0,2.0,458.5430880001695,3.0,2.0,phase_1,,,,,,,,,,,,,orange,cross
627.0,3.0,3.0,0.0,3.0,3.0,414.3926189999547,3.0,1.0,phase_1,,,,,,,,,,,,,orange,cross
140.0,5.0,1.0,1.0,1.0,1.0,772.4092769999515,3.0,1.0,phase_1,,,,,,,,,,,,,magenta,hexagon
0.0,8.0,0.0,1.0,4.0,4.0,488.318530000015,3.0,1.0,phase_1,,,,,,,,,,,,,green,I
1309.0,4.0,4.0,0.0,3.0,3.0,653.0080080001426,3.0,1.0,phase_1,,,,,,,,,,,,,blue,square
1289.0,4.0,4.0,0.0,1.0,1.0,452.0139520000157,3.0,1.0,phase_1,,,,,,,,,,,,,blue,square
349.0,6.0,2.0,1.0,4.0,4.0,398.1285669997305,3.0,1.0,phase_1,,,,,,,,,,,,,yellow,circle
0.0,2.0,0.0,0.0,1.0,1.0,538.4513140002127,3.0,1.0,phase_1,,,,,,,,,,,,,white,triangle
342.0,6.0,2.0,1.0,2.0,2.0,583.4372609997445,3.0,1.0,phase_1,,,,,,,,,,,,,yellow,circle
664.0,3.0,3.0,0.0,1.0,1.0,402.4496930001078,3.0,2.0,phase_1,,,,,,,,,,,,,orange,cross
637.0,3.0,3.0,0.0,1.0,1.0,415.4880309997679,3.0,1.0,phase_1,,,,,,,,,,,,,orange,cross
1303.0,8.0,4.0,1.0,4.0,4.0,473.5558730003504,3.0,1.0,phase_1,,,,,,,,,,,,,green,I
668.0,7.0,3.0,1.0,2.0,2.0,471.1982859998898,3.0,1.0,phase_1,,,,,,,,,,,,,gray,flipped triangle
1285.0,4.0,4.0,0.0,2.0,2.0,323.3561439997174,3.0,1.0,phase_1,,,,,,,,,,,,,blue,square
636.0,7.0,3.0,1.0,3.0,3.0,641.982127999654,3.0,1.0,phase_1,,,,,,,,,,,,,gray,flipped triangle
327.0,2.0,2.0,0.0,4.0,4.0,452.3851080002714,3.0,1.0,phase_1,,,,,,,,,,,,,white,triangle
637.0,7.0,3.0,1.0,1.0,1.0,425.0270570000793,3.0,1.0,phase_1,,,,,,,,,,,,,gray,flipped triangle
633.0,7.0,3.0,1.0,4.0,4.0,495.1019189998078,3.0,1.0,phase_1,,,,,,,,,,,,,gray,flipped triangle
325.0,6.0,2.0,1.0,4.0,4.0,394.3865860001097,3.0,1.0,phase_1,,,,,,,,,,,,,yellow,circle
0.0,5.0,0.0,1.0,1.0,1.0,406.7846989996724,3.0,1.0,phase_1,,,,,,,,,,,,,magenta,hexagon
1282.0,8.0,4.0,1.0,4.0,4.0,317.2977209997043,3.0,1.0,phase_1,,,,,,,,,,,,,green,I
334.0,6.0,2.0,1.0,1.0,1.0,364.5980109999982,3.0,2.0,phase_1,,,,,,,,,,,,,yellow,circle
0.0,6.0,0.0,1.0,2.0,2.0,643.3356389998153,3.0,1.0,phase_1,,,,,,,,,,,,,yellow,circle
142.0,1.0,1.0,0.0,1.0,1.0,367.8582370002914,3.0,1.0,phase_1,,,,,,,,,,,,,cyan,diamond
316.0,2.0,2.0,0.0,2.0,2.0,561.7229549998228,3.0,1.0,phase_1,,,,,,,,,,,,,white,triangle
350.0,2.0,2.0,0.0,4.0,4.0,472.5322119998054,3.0,1.0,phase_1,,,,,,,,,,,,,white,triangle
646.0,7.0,3.0,1.0,3.0,3.0,475.4699310001342,3.0,1.0,phase_1,,,,,,,,,,,,,gray,flipped triangle
181.0,1.0,1.0,0.0,1.0,1.0,536.0497149999901,3.0,1.0,phase_1,,,,,,,,,,,,,cyan,diamond
0.0,7.0,0.0,1.0,2.0,2.0,566.2342119999266,3.0,1.0,phase_1,,,,,,,,,,,,,gray,flipped triangle
640.0,3.0,3.0,0.0,4.0,4.0,371.7216499999267,3.0,1.0,phase_1,,,,,,,,,,,,,orange,cross
184.0,5.0,1.0,1.0,2.0,2.0,391.2029590001111,3.0,1.0,phase_1,,,,,,,,,,,,,magenta,hexagon
0.0,3.0,0.0,0.0,2.0,2.0,474.5831510003881,3.0,1.0,phase_1,,,,,,,,,,,,,orange,cross
1283.0,8.0,4.0,1.0,4.0,4.0,432.9983039997387,3.0,1.0,phase_1,,,,,,,,,,,,,green,I
344.0,6.0,2.0,1.0,2.0,2.0,469.4571039999573,3.0,1.0,phase_1,,,,,,,,,,,,,yellow,circle
1290.0,8.0,4.0,1.0,2.0,2.0,384.9106520001442,3.0,1.0,phase_1,,,,,,,,,,,,,green,I
1305.0,4.0,4.0,0.0,2.0,2.0,404.5563039999251,3.0,1.0,phase_1,,,,,,,,,,,,,blue,square
1323.0,4.0,4.0,0.0,2.0,2.0,410.9604370000852,3.0,1.0,phase_1,,,,,,,,,,,,,blue,square
1315.0,4.0,4.0,0.0,2.0,2.0,376.7498349998277,3.0,1.0,phase_1,,,,,,,,,,,,,blue,square
1315.0,8.0,4.0,1.0,2.0,2.0,380.1235969999652,3.0,1.0,phase_1,,,,,,,,,,,,,green,I
642.0,7.0,3.0,1.0,4.0,4.0,538.0509440001333,3.0,1.0,phase_1,,,,,,,,,,,,,gray,flipped triangle
324.0,6.0,2.0,1.0,3.0,3.0,708.7157519999892,3.0,1.0,phase_1,,,,,,,,,,,,,yellow,circle
1284.0,8.0,4.0,1.0,1.0,1.0,505.74638399984906,3.0,1.0,phase_1,,,,,,,,,,,,,green,I
0.0,5.0,0.0,1.0,4.0,4.0,429.0675019997252,3.0,1.0,phase_1,,,,,,,,,,,,,magenta,hexagon
156.0,1.0,1.0,0.0,4.0,4.0,346.4979459999995,3.0,1.0,phase_1,,,,,,,,,,,,,cyan,diamond
0.0,1.0,0.0,0.0,1.0,1.0,415.0047630000699,3.0,1.0,phase_1,,,,,,,,,,,,,cyan,diamond
0.0,6.0,0.0,1.0,3.0,3.0,579.8309020001398,3.0,1.0,phase_1,,,,,,,,,,,,,yellow,circle
146.0,1.0,1.0,0.0,3.0,3.0,465.2650170000925,3.0,1.0,phase_1,,,,,,,,,,,,,cyan,diamond
1286.0,4.0,4.0,0.0,2.0,2.0,396.5525300000081,3.0,1.0,phase_1,,,,,,,,,,,,,blue,square
160.0,5.0,1.0,1.0,1.0,1.0,325.4162389998782,4.0,1.0,phase_1,,,,,,,,,,,,,magenta,hexagon
0.0,4.0,0.0,0.0,1.0,1.0,448.4591639998143,4.0,1.0,phase_1,,,,,,,,,,,,,blue,square
0.0,2.0,0.0,0.0,2.0,2.0,565.7713149998926,4.0,1.0,phase_1,,,,,,,,,,,,,white,triangle
1277.0,8.0,4.0,1.0,4.0,4.0,389.415482000004,4.0,1.0,phase_1,,,,,,,,,,,,,green,I
664.0,7.0,3.0,1.0,4.0,4.0,382.7129539999987,4.0,1.0,phase_1,,,,,,,,,,,,,gray,flipped triangle
635.0,7.0,3.0,1.0,2.0,2.0,540.15716899994,4.0,1.0,phase_1,,,,,,,,,,,,,gray,flipped triangle
338.0,6.0,2.0,1.0,1.0,1.0,387.1383589998913,4.0,1.0,phase_1,,,,,,,,,,,,,yellow,circle
327.0,6.0,2.0,1.0,2.0,2.0,383.108534999792,4.0,1.0,phase_1,,,,,,,,,,,,,yellow,circle
325.0,2.0,2.0,0.0,3.0,3.0,457.5896269998338,4.0,1.0,phase_1,,,,,,,,,,,,,white,triangle
169.0,5.0,1.0,1.0,4.0,4.0,448.4235220002119,4.0,1.0,phase_1,,,,,,,,,,,,,magenta,hexagon
0.0,7.0,0.0,1.0,2.0,2.0,394.6010520003256,4.0,1.0,phase_1,,,,,,,,,,,,,gray,flipped triangle
168.0,1.0,1.0,0.0,3.0,3.0,495.8202090001578,4.0,1.0,phase_1,,,,,,,,,,,,,cyan,diamond
1314.0,4.0,4.0,0.0,2.0,2.0,470.0790609999785,4.0,1.0,phase_1,,,,,,,,,,,,,blue,square
0.0,3.0,0.0,0.0,2.0,2.0,634.5854139999574,4.0,1.0,phase_1,,,,,,,,,,,,,orange,cross
169.0,1.0,1.0,0.0,2.0,2.0,407.5686910000513,4.0,1.0,phase_1,,,,,,,,,,,,,cyan,diamond
318.0,2.0,2.0,0.0,4.0,4.0,417.9463790001136,4.0,1.0,phase_1,,,,,,,,,,,,,white,triangle
664.0,7.0,3.0,1.0,4.0,4.0,398.9599480000834,4.0,1.0,phase_1,,,,,,,,,,,,,gray,flipped triangle
302.0,6.0,2.0,1.0,2.0,2.0,579.0076600001157,4.0,1.0,phase_1,,,,,,,,,,,,,yellow,circle
0.0,4.0,0.0,0.0,1.0,1.0,385.8270780001476,4.0,1.0,phase_1,,,,,,,,,,,,,blue,square
0.0,3.0,0.0,0.0,4.0,4.0,397.7033349997327,4.0,1.0,phase_1,,,,,,,,,,,,,orange,cross
1290.0,4.0,4.0,0.0,4.0,4.0,504.8535539999648,4.0,1.0,phase_1,,,,,,,,,,,,,blue,square
653.0,7.0,3.0,1.0,3.0,3.0,685.9977059998528,4.0,1.0,phase_1,,,,,,,,,,,,,gray,flipped triangle
1296.0,4.0,4.0,0.0,1.0,1.0,516.1308369997641,4.0,1.0,phase_1,,,,,,,,,,,,,blue,square
640.0,7.0,3.0,1.0,4.0,4.0,548.9414060002673,4.0,1.0,phase_1,,,,,,,,,,,,,gray,flipped triangle
307.0,6.0,2.0,1.0,4.0,4.0,571.5225570002076,4.0,1.0,phase_1,,,,,,,,,,,,,yellow,circle
183.0,1.0,1.0,0.0,2.0,2.0,583.6046790000182,4.0,1.0,phase_1,,,,,,,,,,,,,cyan,diamond
0.0,5.0,0.0,1.0,2.0,2.0,395.5261319997589,4.0,1.0,phase_1,,,,,,,,,,,,,magenta,hexagon
1293.0,4.0,4.0,0.0,3.0,3.0,554.313964999892,4.0,1.0,phase_1,,,,,,,,,,,,,blue,square
333.0,6.0,2.0,1.0,4.0,4.0,525.3579720001653,4.0,1.0,phase_1,,,,,,,,,,,,,yellow,circle
342.0,2.0,2.0,0.0,1.0,1.0,596.7763980002019,4.0,1.0,phase_1,,,,,,,,,,,,,white,triangle
1290.0,8.0,4.0,1.0,1.0,1.0,806.2977010004033,4.0,1.0,phase_1,,,,,,,,,,,,,green,I
304.0,6.0,2.0,1.0,3.0,3.0,454.2006680003396,4.0,1.0,phase_1,,,,,,,,,,,,,yellow,circle
1277.0,4.0,4.0,0.0,1.0,1.0,568.6161570001786,4.0,1.0,phase_1,,,,,,,,,,,,,blue,square
1307.0,8.0,4.0,1.0,1.0,1.0,349.0383849998579,4.0,1.0,phase_1,,,,,,,,,,,,,green,I
319.0,6.0,2.0,1.0,4.0,4.0,370.7111499998063,4.0,1.0,phase_1,,,,,,,,,,,,,yellow,circle
1324.0,8.0,4.0,1.0,4.0,4.0,638.4547640000164,4.0,1.0,phase_1,,,,,,,,,,,,,green,I
0.0,4.0,0.0,0.0,2.0,2.0,586.1794980000923,4.0,1.0,phase_1,,,,,,,,,,,,,blue,square
174.0,1.0,1.0,0.0,4.0,4.0,361.9850039999619,4.0,1.0,phase_1,,,,,,,,,,,,,cyan,diamond
178.0,1.0,1.0,0.0,3.0,3.0,653.8041700000576,4.0,1.0,phase_1,,,,,,,,,,,,,cyan,diamond
179.0,1.0,1.0,0.0,1.0,1.0,408.8040290002936,4.0,1.0,phase_1,,,,,,,,,,,,,cyan,diamond
140.0,5.0,1.0,1.0,4.0,4.0,381.656785999894,4.0,1.0,phase_1,,,,,,,,,,,,,magenta,hexagon
642.0,3.0,3.0,0.0,4.0,4.0,291.3985550003417,4.0,1.0,phase_1,,,,,,,,,,,,,orange,cross
1288.0,8.0,4.0,1.0,3.0,3.0,471.0133429998677,4.0,1.0,phase_1,,,,,,,,,,,,,green,I
628.0,3.0,3.0,0.0,2.0,2.0,451.1732930000107,4.0,1.0,phase_1,,,,,,,,,,,,,orange,cross
0.0,7.0,0.0,1.0,4.0,4.0,343.7366779999138,4.0,1.0,phase_1,,,,,,,,,,,,,gray,flipped triangle
633.0,3.0,3.0,0.0,2.0,2.0,516.5080819997456,4.0,1.0,phase_1,,,,,,,,,,,,,orange,cross
1282.0,4.0,4.0,0.0,3.0,3.0,409.8561939999854,4.0,1.0,phase_1,,,,,,,,,,,,,blue,square
648.0,7.0,3.0,1.0,3.0,3.0,381.924300999799,4.0,1.0,phase_1,,,,,,,,,,,,,gray,flipped triangle
1314.0,8.0,4.0,1.0,2.0,2.0,466.2206360003438,4.0,1.0,phase_1,,,,,,,,,,,,,green,I
305.0,2.0,2.0,0.0,1.0,1.0,408.2990949996201,4.0,1.0,phase_1,,,,,,,,,,,,,white,triangle
161.0,1.0,1.0,0.0,4.0,4.0,403.0259490000389,4.0,1.0,phase_1,,,,,,,,,,,,,cyan,diamond
333.0,2.0,2.0,0.0,2.0,2.0,495.8236070001476,4.0,1.0,phase_1,,,,,,,,,,,,,white,triangle
140.0,1.0,1.0,0.0,2.0,2.0,420.147254999847,4.0,1.0,phase_1,,,,,,,,,,,,,cyan,diamond
0.0,2.0,0.0,0.0,1.0,1.0,474.168451999958,4.0,1.0,phase_1,,,,,,,,,,,,,white,triangle
315.0,2.0,2.0,0.0,3.0,3.0,535.024223000164,4.0,1.0,phase_1,,,,,,,,,,,,,white,triangle
1307.0,4.0,4.0,0.0,1.0,1.0,270.8933900003103,4.0,2.0,phase_1,,,,,,,,,,,,,blue,square
0.0,2.0,0.0,0.0,4.0,4.0,469.5127469999534,4.0,1.0,phase_1,,,,,,,,,,,,,white,triangle
142.0,5.0,1.0,1.0,2.0,2.0,436.1368519998905,4.0,2.0,phase_1,,,,,,,,,,,,,magenta,hexagon
1303.0,4.0,4.0,0.0,4.0,4.0,435.6056869996791,4.0,1.0,phase_1,,,,,,,,,,,,,blue,square
635.0,3.0,3.0,0.0,1.0,1.0,421.816237999792,4.0,1.0,phase_1,,,,,,,,,,,,,orange,cross
155.0,5.0,1.0,1.0,1.0,1.0,588.795404999928,4.0,1.0,phase_1,,,,,,,,,,,,,magenta,hexagon
332.0,2.0,2.0,0.0,3.0,3.0,712.5604210000347,4.0,3.0,phase_1,,,,,,,,,,,,,white,triangle
178.0,5.0,1.0,1.0,2.0,2.0,350.3442159999395,4.0,1.0,phase_1,,,,,,,,,,,,,magenta,hexagon
142.0,5.0,1.0,1.0,3.0,3.0,467.0548889998827,4.0,1.0,phase_1,,,,,,,,,,,,,magenta,hexagon
631.0,7.0,3.0,1.0,1.0,1.0,511.78284400020857,4.0,1.0,phase_1,,,,,,,,,,,,,gray,flipped triangle
0.0,8.0,0.0,1.0,3.0,3.0,747.7791549999893,4.0,1.0,phase_1,,,,,,,,,,,,,green,I
1308.0,4.0,4.0,0.0,1.0,1.0,585.6818360002762,4.0,1.0,phase_1,,,,,,,,,,,,,blue,square
174.0,1.0,1.0,0.0,3.0,3.0,516.9576329999472,4.0,1.0,phase_1,,,,,,,,,,,,,cyan,diamond
1289.0,8.0,4.0,1.0,1.0,1.0,425.5010100000618,4.0,1.0,phase_1,,,,,,,,,,,,,green,I
672.0,7.0,3.0,1.0,3.0,3.0,775.4208860001199,4.0,1.0,phase_1,,,,,,,,,,,,,gray,flipped triangle
152.0,5.0,1.0,1.0,3.0,3.0,402.9758940000647,4.0,1.0,phase_1,,,,,,,,,,,,,magenta,hexagon
163.0,5.0,1.0,1.0,1.0,1.0,409.2665499997565,4.0,1.0,phase_1,,,,,,,,,,,,,magenta,hexagon
647.0,7.0,3.0,1.0,1.0,1.0,307.4726519998876,4.0,1.0,phase_1,,,,,,,,,,,,,gray,flipped triangle
674.0,7.0,3.0,1.0,2.0,2.0,505.4953049998403,4.0,1.0,phase_1,,,,,,,,,,,,,gray,flipped triangle
172.0,5.0,1.0,1.0,3.0,3.0,404.7610470001928,4.0,1.0,phase_1,,,,,,,,,,,,,magenta,hexagon
151.0,1.0,1.0,0.0,2.0,2.0,472.6233880001018,4.0,1.0,phase_1,,,,,,,,,,,,,cyan,diamond
301.0,2.0,2.0,0.0,3.0,3.0,422.5052310002866,4.0,1.0,phase_1,,,,,,,,,,,,,white,triangle
0.0,7.0,0.0,1.0,4.0,4.0,499.3237230000886,4.0,1.0,phase_1,,,,,,,,,,,,,gray,flipped triangle
1296.0,8.0,4.0,1.0,3.0,3.0,527.9960719999508,4.0,1.0,phase_1,,,,,,,,,,,,,green,I
0.0,5.0,0.0,1.0,2.0,2.0,322.7237920000334,4.0,1.0,phase_1,,,,,,,,,,,,,magenta,hexagon
0.0,4.0,0.0,0.0,3.0,3.0,362.3716550000608,4.0,1.0,phase_1,,,,,,,,,,,,,blue,square
165.0,1.0,1.0,0.0,2.0,2.0,326.2837970000873,4.0,1.0,phase_1,,,,,,,,,,,,,cyan,diamond
187.0,5.0,1.0,1.0,4.0,4.0,384.2735339999308,4.0,2.0,phase_1,,,,,,,,,,,,,magenta,hexagon
322.0,6.0,2.0,1.0,4.0,4.0,364.32597300017727,4.0,1.0,phase_1,,,,,,,,,,,,,yellow,circle
0.0,1.0,0.0,0.0,2.0,2.0,448.2080630000382,4.0,1.0,phase_1,,,,,,,,,,,,,cyan,diamond
148.0,5.0,1.0,1.0,3.0,3.0,269.739243999993,4.0,1.0,phase_1,,,,,,,,,,,,,magenta,hexagon
636.0,3.0,3.0,0.0,2.0,2.0,287.1840799998608,4.0,1.0,phase_1,,,,,,,,,,,,,orange,cross
1290.0,4.0,4.0,0.0,3.0,3.0,461.2807049998082,4.0,1.0,phase_1,,,,,,,,,,,,,blue,square
187.0,5.0,1.0,1.0,2.0,2.0,290.8810189996984,4.0,1.0,phase_1,,,,,,,,,,,,,magenta,hexagon
319.0,2.0,2.0,0.0,3.0,3.0,367.596021999816,4.0,1.0,phase_1,,,,,,,,,,,,,white,triangle
0.0,1.0,0.0,0.0,3.0,3.0,346.7606170002,4.0,1.0,phase_1,,,,,,,,,,,,,cyan,diamond
1298.0,8.0,4.0,1.0,2.0,2.0,302.92092100035,4.0,1.0,phase_1,,,,,,,,,,,,,green,I
630.0,7.0,3.0,1.0,1.0,1.0,449.0643880003517,4.0,2.0,phase_1,,,,,,,,,,,,,gray,flipped triangle
181.0,5.0,1.0,1.0,1.0,1.0,620.6101490001856,4.0,1.0,phase_1,,,,,,,,,,,,,magenta,hexagon
649.0,7.0,3.0,1.0,3.0,3.0,729.852402999768,4.0,1.0,phase_1,,,,,,,,,,,,,gray,flipped triangle
0.0,8.0,0.0,1.0,2.0,2.0,350.5901670000639,4.0,1.0,phase_1,,,,,,,,,,,,,green,I
0.0,1.0,0.0,0.0,2.0,2.0,309.1712830000688,4.0,1.0,phase_1,,,,,,,,,,,,,cyan,diamond
1323.0,4.0,4.0,0.0,2.0,2.0,353.9961139999832,4.0,1.0,phase_1,,,,,,,,,,,,,blue,square
1316.0,8.0,4.0,1.0,2.0,2.0,342.7213199997823,4.0,1.0,phase_1,,,,,,,,,,,,,green,I
165.0,5.0,1.0,1.0,4.0,4.0,433.1855829996129,4.0,1.0,phase_1,,,,,,,,,,,,,magenta,hexagon
0.0,5.0,1.0,1.0,6.0,6.0,409.9076150000655,1.0,1.0,phase_2,go,250.0,250.0,1.0,,,,,,,,,magenta,hexagon
0.0,3.0,3.0,0.0,6.0,6.0,1258.4701999999195,1.0,1.0,phase_2,go,250.0,250.0,1.0,,,,,,,,,orange,cross
0.0,8.0,4.0,1.0,6.0,0.0,0.0,1.0,1.0,phase_2,stop,250.0,250.0,4.0,,,,,,,,,green,I
0.0,2.0,2.0,0.0,5.0,5.0,842.0948200000566,1.0,1.0,phase_2,go,250.0,300.0,1.0,,,,,,,,,white,triangle
0.0,6.0,2.0,1.0,5.0,0.0,0.0,1.0,1.0,phase_2,stop,250.0,300.0,4.0,,,,,,,,,yellow,circle
0.0,7.0,3.0,1.0,5.0,0.0,0.0,1.0,1.0,phase_2,stop,300.0,300.0,4.0,,,,,,,,,gray,flipped triangle
0.0,5.0,1.0,1.0,6.0,6.0,800.1278719998481,1.0,1.0,phase_2,go,350.0,300.0,1.0,,,,,,,,,magenta,hexagon
0.0,3.0,3.0,0.0,6.0,6.0,1111.3344929999585,1.0,1.0,phase_2,go,350.0,300.0,1.0,,,,,,,,,orange,cross
0.0,5.0,1.0,1.0,5.0,5.0,719.0208809997785,1.0,1.0,phase_2,go,350.0,300.0,1.0,,,,,,,,,magenta,hexagon
0.0,2.0,2.0,0.0,6.0,6.0,1221.8590480001694,1.0,1.0,phase_2,go,350.0,300.0,1.0,,,,,,,,,white,triangle
0.0,7.0,3.0,1.0,6.0,0.0,0.0,1.0,1.0,phase_2,stop,350.0,300.0,4.0,,,,,,,,,gray,flipped triangle
0.0,5.0,1.0,1.0,5.0,0.0,0.0,1.0,1.0,phase_2,stop,350.0,350.0,4.0,,,,,,,,,magenta,hexagon
0.0,3.0,3.0,0.0,6.0,6.0,1235.8697200002098,1.0,1.0,phase_2,go,400.0,350.0,1.0,,,,,,,,,orange,cross
0.0,4.0,4.0,0.0,6.0,6.0,1147.576256999855,1.0,1.0,phase_2,go,400.0,350.0,1.0,,,,,,,,,blue,square
0.0,2.0,2.0,0.0,5.0,5.0,978.4202340001684,1.0,1.0,phase_2,go,400.0,350.0,1.0,,,,,,,,,white,triangle
0.0,6.0,2.0,1.0,6.0,0.0,0.0,1.0,1.0,phase_2,stop,400.0,350.0,4.0,,,,,,,,,yellow,circle
0.0,1.0,1.0,0.0,5.0,5.0,962.3923630001628,1.0,1.0,phase_2,go,400.0,400.0,1.0,,,,,,,,,cyan,diamond
0.0,8.0,4.0,1.0,6.0,0.0,0.0,1.0,1.0,phase_2,stop,400.0,400.0,4.0,,,,,,,,,green,I
0.0,8.0,4.0,1.0,6.0,0.0,0.0,1.0,1.0,phase_2,stop,400.0,450.0,4.0,,,,,,,,,green,I
0.0,6.0,2.0,1.0,5.0,0.0,0.0,1.0,1.0,phase_2,stop,400.0,500.0,4.0,,,,,,,,,yellow,circle
0.0,1.0,1.0,0.0,5.0,5.0,1436.9302679997418,1.0,1.0,phase_2,go,450.0,500.0,1.0,,,,,,,,,cyan,diamond
0.0,7.0,3.0,1.0,6.0,0.0,0.0,1.0,1.0,phase_2,stop,450.0,500.0,4.0,,,,,,,,,gray,flipped triangle
0.0,4.0,4.0,0.0,6.0,6.0,916.3087369997812,1.0,1.0,phase_2,go,450.0,550.0,1.0,,,,,,,,,blue,square
0.0,1.0,1.0,0.0,5.0,5.0,861.6194979999818,1.0,1.0,phase_2,go,450.0,550.0,1.0,,,,,,,,,cyan,diamond
0.0,7.0,3.0,1.0,5.0,0.0,0.0,1.0,1.0,phase_2,stop,450.0,550.0,4.0,,,,,,,,,gray,flipped triangle
0.0,5.0,1.0,1.0,5.0,0.0,0.0,1.0,1.0,phase_2,stop,500.0,550.0,4.0,,,,,,,,,magenta,hexagon
0.0,3.0,3.0,0.0,5.0,5.0,1012.1460629998182,1.0,1.0,phase_2,go,550.0,550.0,1.0,,,,,,,,,orange,cross
0.0,4.0,4.0,0.0,5.0,5.0,1472.7062010001646,1.0,1.0,phase_2,go,550.0,550.0,1.0,,,,,,,,,blue,square
0.0,2.0,2.0,0.0,6.0,6.0,1040.0667480002994,1.0,1.0,phase_2,go,550.0,550.0,1.0,,,,,,,,,white,triangle
0.0,1.0,1.0,0.0,6.0,6.0,1024.8923829999512,1.0,1.0,phase_2,go,550.0,550.0,1.0,,,,,,,,,cyan,diamond
0.0,4.0,4.0,0.0,5.0,5.0,903.3529600001202,1.0,1.0,phase_2,go,550.0,550.0,1.0,,,,,,,,,blue,square
0.0,1.0,1.0,0.0,5.0,5.0,1304.8164890001317,1.0,1.0,phase_2,go,550.0,550.0,1.0,,,,,,,,,cyan,diamond
0.0,7.0,3.0,1.0,6.0,6.0,1271.109549999892,1.0,1.0,phase_2,go,550.0,550.0,1.0,,,,,,,,,gray,flipped triangle
0.0,8.0,4.0,1.0,6.0,0.0,0.0,1.0,1.0,phase_2,stop,550.0,550.0,4.0,,,,,,,,,green,I
0.0,2.0,2.0,0.0,6.0,6.0,1103.3311659998617,1.0,1.0,phase_2,go,550.0,600.0,1.0,,,,,,,,,white,triangle
0.0,7.0,3.0,1.0,5.0,0.0,0.0,1.0,1.0,phase_2,stop,550.0,600.0,4.0,,,,,,,,,gray,flipped triangle
0.0,5.0,1.0,1.0,5.0,5.0,660.8827760001077,2.0,1.0,phase_2,stop,600.0,600.0,3.0,,,,,,,,,magenta,hexagon
0.0,5.0,1.0,1.0,6.0,6.0,805.6577930001367,2.0,1.0,phase_2,go,550.0,600.0,1.0,,,,,,,,,magenta,hexagon
0.0,5.0,1.0,1.0,5.0,5.0,597.6101989999734,2.0,1.0,phase_2,stop,550.0,600.0,3.0,,,,,,,,,magenta,hexagon
0.0,8.0,4.0,1.0,6.0,6.0,779.3865049998203,2.0,1.0,phase_2,go,500.0,600.0,1.0,,,,,,,,,green,I
0.0,2.0,2.0,0.0,5.0,5.0,594.2190120003943,2.0,1.0,phase_2,go,500.0,600.0,1.0,,,,,,,,,white,triangle
0.0,1.0,1.0,0.0,6.0,6.0,635.8522079999602,2.0,1.0,phase_2,go,500.0,600.0,1.0,,,,,,,,,cyan,diamond
0.0,4.0,4.0,0.0,6.0,6.0,706.1033340000904,2.0,1.0,phase_2,go,500.0,600.0,1.0,,,,,,,,,blue,square
0.0,6.0,2.0,1.0,6.0,6.0,562.2251930003586,2.0,1.0,phase_2,go,500.0,600.0,1.0,,,,,,,,,yellow,circle
0.0,1.0,1.0,0.0,6.0,6.0,911.340200000268,2.0,1.0,phase_2,go,500.0,600.0,1.0,,,,,,,,,cyan,diamond
0.0,8.0,4.0,1.0,6.0,6.0,656.9832019999922,2.0,1.0,phase_2,stop,500.0,600.0,3.0,,,,,,,,,green,I
0.0,5.0,1.0,1.0,6.0,6.0,582.2559890002594,2.0,1.0,phase_2,stop,500.0,550.0,3.0,,,,,,,,,magenta,hexagon
0.0,8.0,4.0,1.0,5.0,5.0,523.9301249998789,2.0,1.0,phase_2,stop,500.0,500.0,3.0,,,,,,,,,green,I
0.0,4.0,4.0,0.0,5.0,5.0,959.2259840001134,2.0,1.0,phase_2,go,450.0,500.0,1.0,,,,,,,,,blue,square
0.0,2.0,2.0,0.0,5.0,5.0,532.1948379996684,2.0,1.0,phase_2,go,450.0,500.0,1.0,,,,,,,,,white,triangle
0.0,7.0,3.0,1.0,6.0,0.0,0.0,2.0,1.0,phase_2,stop,450.0,500.0,4.0,,,,,,,,,gray,flipped triangle
0.0,6.0,2.0,1.0,6.0,0.0,0.0,2.0,1.0,phase_2,stop,450.0,550.0,4.0,,,,,,,,,yellow,circle
0.0,7.0,3.0,1.0,5.0,5.0,763.5566459998699,2.0,1.0,phase_2,go,450.0,600.0,1.0,,,,,,,,,gray,flipped triangle
0.0,3.0,3.0,0.0,5.0,5.0,713.9903659999618,2.0,1.0,phase_2,go,450.0,600.0,1.0,,,,,,,,,orange,cross
0.0,4.0,4.0,0.0,5.0,5.0,1027.5688800002172,2.0,1.0,phase_2,go,450.0,600.0,1.0,,,,,,,,,blue,square
0.0,1.0,1.0,0.0,6.0,6.0,1073.25402799961,2.0,1.0,phase_2,go,450.0,600.0,1.0,,,,,,,,,cyan,diamond
0.0,8.0,4.0,1.0,6.0,6.0,625.9851179997895,2.0,1.0,phase_2,stop,450.0,600.0,3.0,,,,,,,,,green,I
0.0,7.0,3.0,1.0,6.0,0.0,0.0,2.0,1.0,phase_2,stop,450.0,550.0,4.0,,,,,,,,,gray,flipped triangle
0.0,6.0,2.0,1.0,5.0,0.0,0.0,2.0,1.0,phase_2,stop,450.0,600.0,4.0,,,,,,,,,yellow,circle
0.0,3.0,3.0,0.0,5.0,5.0,901.8297020002136,2.0,1.0,phase_2,go,500.0,600.0,1.0,,,,,,,,,orange,cross
0.0,5.0,1.0,1.0,6.0,6.0,862.928563999958,2.0,1.0,phase_2,go,500.0,600.0,1.0,,,,,,,,,magenta,hexagon
0.0,8.0,4.0,1.0,5.0,0.0,0.0,2.0,1.0,phase_2,stop,500.0,600.0,4.0,,,,,,,,,green,I
0.0,4.0,4.0,0.0,5.0,5.0,771.901514000092,2.0,1.0,phase_2,go,550.0,600.0,1.0,,,,,,,,,blue,square
0.0,5.0,1.0,1.0,6.0,6.0,1171.6323330001617,2.0,1.0,phase_2,go,550.0,600.0,1.0,,,,,,,,,magenta,hexagon
0.0,2.0,2.0,0.0,6.0,6.0,1100.8554079999158,2.0,1.0,phase_2,go,550.0,600.0,1.0,,,,,,,,,white,triangle
0.0,8.0,4.0,1.0,5.0,0.0,0.0,2.0,1.0,phase_2,stop,550.0,600.0,4.0,,,,,,,,,green,I
0.0,3.0,3.0,0.0,5.0,5.0,811.6743249997853,2.0,1.0,phase_2,go,600.0,600.0,1.0,,,,,,,,,orange,cross
0.0,7.0,3.0,1.0,5.0,0.0,0.0,2.0,1.0,phase_2,stop,600.0,600.0,4.0,,,,,,,,,gray,flipped triangle
0.0,1.0,1.0,0.0,6.0,6.0,802.0557070003633,2.0,1.0,phase_2,go,650.0,600.0,1.0,,,,,,,,,cyan,diamond
0.0,8.0,4.0,1.0,5.0,5.0,1098.7453989996538,2.0,1.0,phase_2,go,650.0,600.0,1.0,,,,,,,,,green,I
0.0,3.0,3.0,0.0,6.0,6.0,1113.3318090001012,2.0,1.0,phase_2,go,650.0,600.0,1.0,,,,,,,,,orange,cross
0.0,3.0,3.0,0.0,5.0,5.0,775.560387999576,2.0,1.0,phase_2,go,650.0,600.0,1.0,,,,,,,,,orange,cross
0.0,7.0,3.0,1.0,5.0,5.0,380.1749260001088,3.0,1.0,phase_2,go,650.0,600.0,1.0,,,,,,,,,gray,flipped triangle
0.0,8.0,4.0,1.0,6.0,6.0,500.8469109998259,3.0,1.0,phase_2,stop,650.0,600.0,3.0,,,,,,,,,green,I
0.0,8.0,4.0,1.0,6.0,6.0,627.3813100001462,3.0,1.0,phase_2,go,650.0,550.0,1.0,,,,,,,,,green,I
0.0,1.0,1.0,0.0,5.0,5.0,284.2690960001164,3.0,1.0,phase_2,go,650.0,550.0,1.0,,,,,,,,,cyan,diamond
0.0,2.0,2.0,0.0,5.0,5.0,739.996624000014,3.0,1.0,phase_2,go,650.0,550.0,1.0,,,,,,,,,white,triangle
0.0,1.0,1.0,0.0,6.0,6.0,676.0738899997705,3.0,1.0,phase_2,go,650.0,550.0,1.0,,,,,,,,,cyan,diamond
0.0,4.0,4.0,0.0,6.0,6.0,568.7895129999561,3.0,1.0,phase_2,go,650.0,550.0,1.0,,,,,,,,,blue,square
0.0,3.0,3.0,0.0,6.0,6.0,296.1630839999998,3.0,1.0,phase_2,go,650.0,550.0,1.0,,,,,,,,,orange,cross
0.0,1.0,1.0,0.0,5.0,5.0,601.1009270000613,3.0,1.0,phase_2,go,650.0,550.0,1.0,,,,,,,,,cyan,diamond
0.0,7.0,3.0,1.0,5.0,5.0,630.8911539999826,3.0,1.0,phase_2,stop,650.0,550.0,3.0,,,,,,,,,gray,flipped triangle
0.0,2.0,2.0,0.0,5.0,5.0,542.6693670001441,3.0,1.0,phase_2,go,600.0,550.0,1.0,,,,,,,,,white,triangle
0.0,1.0,1.0,0.0,6.0,6.0,678.6927960001776,3.0,1.0,phase_2,go,600.0,550.0,1.0,,,,,,,,,cyan,diamond
0.0,6.0,2.0,1.0,6.0,6.0,621.1420679996991,3.0,1.0,phase_2,stop,600.0,550.0,3.0,,,,,,,,,yellow,circle
0.0,8.0,4.0,1.0,5.0,0.0,0.0,3.0,1.0,phase_2,stop,600.0,500.0,4.0,,,,,,,,,green,I
0.0,4.0,4.0,0.0,5.0,5.0,716.037760999825,3.0,1.0,phase_2,go,650.0,500.0,1.0,,,,,,,,,blue,square
0.0,4.0,4.0,0.0,6.0,6.0,763.168424000014,3.0,1.0,phase_2,go,650.0,500.0,1.0,,,,,,,,,blue,square
0.0,8.0,4.0,1.0,5.0,5.0,1123.6566170000517,3.0,1.0,phase_2,go,650.0,500.0,1.0,,,,,,,,,green,I
0.0,8.0,4.0,1.0,6.0,6.0,857.9117730000689,3.0,1.0,phase_2,go,650.0,500.0,1.0,,,,,,,,,green,I
0.0,8.0,4.0,1.0,5.0,0.0,0.0,3.0,1.0,phase_2,stop,650.0,500.0,4.0,,,,,,,,,green,I
0.0,6.0,2.0,1.0,6.0,0.0,0.0,3.0,1.0,phase_2,stop,700.0,500.0,4.0,,,,,,,,,yellow,circle
0.0,4.0,4.0,0.0,5.0,5.0,777.0581069999025,3.0,1.0,phase_2,go,700.0,550.0,1.0,,,,,,,,,blue,square
0.0,6.0,2.0,1.0,6.0,0.0,0.0,3.0,1.0,phase_2,stop,700.0,550.0,4.0,,,,,,,,,yellow,circle
0.0,3.0,3.0,0.0,6.0,6.0,838.9838739999504,3.0,1.0,phase_2,go,700.0,600.0,1.0,,,,,,,,,orange,cross
0.0,2.0,2.0,0.0,6.0,6.0,1128.8213070001802,3.0,1.0,phase_2,go,700.0,600.0,1.0,,,,,,,,,white,triangle
0.0,3.0,3.0,0.0,6.0,6.0,1216.0740009999245,3.0,1.0,phase_2,go,700.0,600.0,1.0,,,,,,,,,orange,cross
0.0,6.0,2.0,1.0,5.0,5.0,831.5957800000433,3.0,1.0,phase_2,stop,700.0,600.0,3.0,,,,,,,,,yellow,circle
0.0,8.0,4.0,1.0,6.0,0.0,0.0,3.0,1.0,phase_2,stop,650.0,600.0,4.0,,,,,,,,,green,I
0.0,1.0,1.0,0.0,6.0,6.0,812.9623470003935,3.0,1.0,phase_2,go,650.0,650.0,1.0,,,,,,,,,cyan,diamond
0.0,2.0,2.0,0.0,5.0,5.0,710.2188550002211,3.0,1.0,phase_2,go,650.0,650.0,1.0,,,,,,,,,white,triangle
0.0,7.0,3.0,1.0,5.0,5.0,796.5402770000765,3.0,1.0,phase_2,go,650.0,650.0,1.0,,,,,,,,,gray,flipped triangle
0.0,5.0,1.0,1.0,6.0,0.0,0.0,3.0,1.0,phase_2,stop,650.0,650.0,4.0,,,,,,,,,magenta,hexagon
0.0,3.0,3.0,0.0,5.0,5.0,1113.6974880000707,3.0,1.0,phase_2,go,650.0,700.0,1.0,,,,,,,,,orange,cross
0.0,2.0,2.0,0.0,5.0,5.0,953.0950129997108,3.0,1.0,phase_2,go,650.0,700.0,1.0,,,,,,,,,white,triangle
0.0,1.0,1.0,0.0,5.0,5.0,1097.851128000002,3.0,1.0,phase_2,go,650.0,700.0,1.0,,,,,,,,,cyan,diamond
0.0,6.0,2.0,1.0,5.0,0.0,0.0,3.0,1.0,phase_2,stop,650.0,700.0,4.0,,,,,,,,,yellow,circle
0.0,6.0,2.0,1.0,5.0,0.0,0.0,3.0,1.0,phase_2,stop,700.0,700.0,4.0,,,,,,,,,yellow,circle
0.0,7.0,3.0,1.0,6.0,6.0,387.2476269998515,4.0,1.0,phase_2,go,750.0,700.0,1.0,,,,,,,,,gray,flipped triangle
0.0,5.0,1.0,1.0,5.0,5.0,483.0552110001918,4.0,1.0,phase_2,stop,750.0,700.0,3.0,,,,,,,,,magenta,hexagon
0.0,8.0,4.0,1.0,5.0,5.0,1044.576560999758,4.0,1.0,phase_2,go,700.0,700.0,1.0,,,,,,,,,green,I
0.0,3.0,3.0,0.0,6.0,6.0,619.1212529997756,4.0,1.0,phase_2,go,700.0,700.0,1.0,,,,,,,,,orange,cross
0.0,1.0,1.0,0.0,6.0,6.0,688.1370539999807,4.0,1.0,phase_2,go,700.0,700.0,1.0,,,,,,,,,cyan,diamond
0.0,8.0,4.0,1.0,5.0,5.0,458.3987930000148,4.0,1.0,phase_2,stop,700.0,700.0,3.0,,,,,,,,,green,I
0.0,4.0,4.0,0.0,6.0,6.0,600.6101150001086,4.0,1.0,phase_2,go,650.0,700.0,1.0,,,,,,,,,blue,square
0.0,8.0,4.0,1.0,6.0,6.0,639.8453349997908,4.0,1.0,phase_2,stop,650.0,700.0,3.0,,,,,,,,,green,I
0.0,1.0,1.0,0.0,5.0,5.0,701.9515020001563,4.0,1.0,phase_2,go,650.0,650.0,1.0,,,,,,,,,cyan,diamond
0.0,7.0,3.0,1.0,6.0,0.0,0.0,4.0,1.0,phase_2,stop,650.0,650.0,4.0,,,,,,,,,gray,flipped triangle
0.0,4.0,4.0,0.0,5.0,5.0,631.5941370003202,4.0,1.0,phase_2,go,650.0,700.0,1.0,,,,,,,,,blue,square
0.0,5.0,1.0,1.0,6.0,6.0,587.9787459998624,4.0,1.0,phase_2,stop,650.0,700.0,3.0,,,,,,,,,magenta,hexagon
0.0,3.0,3.0,0.0,6.0,6.0,987.9147309998187,4.0,1.0,phase_2,go,650.0,650.0,1.0,,,,,,,,,orange,cross
0.0,7.0,3.0,1.0,5.0,0.0,0.0,4.0,1.0,phase_2,stop,650.0,650.0,4.0,,,,,,,,,gray,flipped triangle
0.0,7.0,3.0,1.0,6.0,6.0,348.8820210000085,4.0,1.0,phase_2,stop,700.0,650.0,3.0,,,,,,,,,gray,flipped triangle
0.0,3.0,3.0,0.0,5.0,5.0,713.9900299998772,4.0,1.0,phase_2,go,700.0,600.0,1.0,,,,,,,,,orange,cross
0.0,2.0,2.0,0.0,6.0,6.0,768.6757410001519,4.0,1.0,phase_2,go,700.0,600.0,1.0,,,,,,,,,white,triangle
0.0,4.0,4.0,0.0,5.0,5.0,1031.579759000124,4.0,1.0,phase_2,go,700.0,600.0,1.0,,,,,,,,,blue,square
0.0,4.0,4.0,0.0,6.0,6.0,930.1221290002104,4.0,1.0,phase_2,go,700.0,600.0,1.0,,,,,,,,,blue,square
0.0,7.0,3.0,1.0,5.0,5.0,777.7128469997479,4.0,1.0,phase_2,stop,700.0,600.0,3.0,,,,,,,,,gray,flipped triangle
0.0,4.0,4.0,0.0,5.0,5.0,672.0819150000352,4.0,1.0,phase_2,go,650.0,600.0,1.0,,,,,,,,,blue,square
0.0,6.0,2.0,1.0,6.0,0.0,0.0,4.0,1.0,phase_2,stop,650.0,600.0,4.0,,,,,,,,,yellow,circle
0.0,8.0,4.0,1.0,5.0,0.0,0.0,4.0,1.0,phase_2,stop,650.0,650.0,4.0,,,,,,,,,green,I
0.0,5.0,1.0,1.0,6.0,0.0,0.0,4.0,1.0,phase_2,stop,700.0,650.0,4.0,,,,,,,,,magenta,hexagon
0.0,4.0,4.0,0.0,5.0,5.0,1045.471658000224,4.0,1.0,phase_2,go,700.0,700.0,1.0,,,,,,,,,blue,square
0.0,2.0,2.0,0.0,5.0,5.0,843.4183550002672,4.0,1.0,phase_2,go,700.0,700.0,1.0,,,,,,,,,white,triangle
0.0,7.0,3.0,1.0,6.0,0.0,0.0,4.0,1.0,phase_2,stop,700.0,700.0,4.0,,,,,,,,,gray,flipped triangle
0.0,8.0,4.0,1.0,6.0,0.0,0.0,4.0,1.0,phase_2,stop,700.0,750.0,4.0,,,,,,,,,green,I
0.0,1.0,1.0,0.0,5.0,5.0,938.9476229998764,4.0,1.0,phase_2,go,700.0,800.0,1.0,,,,,,,,,cyan,diamond
0.0,6.0,2.0,1.0,6.0,6.0,908.1187270003284,4.0,1.0,phase_2,stop,700.0,800.0,3.0,,,,,,,,,yellow,circle
0.0,4.0,4.0,0.0,6.0,6.0,976.9689859999744,4.0,1.0,phase_2,go,700.0,750.0,1.0,,,,,,,,,blue,square
0.0,3.0,3.0,0.0,5.0,5.0,1145.2701270000034,4.0,1.0,phase_2,go,700.0,750.0,1.0,,,,,,,,,orange,cross
0.0,5.0,1.0,1.0,6.0,0.0,0.0,4.0,1.0,phase_2,stop,700.0,750.0,4.0,,,,,,,,,magenta,hexagon
0.0,4.0,4.0,0.0,5.0,5.0,728.3821569999418,4.0,1.0,phase_2,go,700.0,800.0,1.0,,,,,,,,,blue,square
0.0,6.0,2.0,1.0,6.0,6.0,1080.0472089999855,4.0,1.0,phase_2,go,700.0,800.0,1.0,,,,,,,,,yellow,circle
0.0,2.0,2.0,0.0,6.0,6.0,1254.980415999853,4.0,1.0,phase_2,go,700.0,800.0,1.0,,,,,,,,,white,triangle
0.0,2.0,2.0,0.0,5.0,0.0,0.0,5.0,1.0,phase_2,go,700.0,800.0,5.0,,,,,,,,,white,triangle
0.0,1.0,1.0,0.0,5.0,5.0,520.1865250000992,5.0,1.0,phase_2,go,700.0,800.0,1.0,,,,,,,,,cyan,diamond
0.0,7.0,3.0,1.0,5.0,0.0,0.0,5.0,1.0,phase_2,stop,700.0,800.0,4.0,,,,,,,,,gray,flipped triangle
0.0,8.0,4.0,1.0,6.0,6.0,584.1369219997432,5.0,1.0,phase_2,stop,750.0,800.0,3.0,,,,,,,,,green,I
0.0,4.0,4.0,0.0,6.0,6.0,704.9901679997674,5.0,1.0,phase_2,go,750.0,750.0,1.0,,,,,,,,,blue,square
0.0,2.0,2.0,0.0,6.0,6.0,1038.1882760002554,5.0,1.0,phase_2,go,750.0,750.0,1.0,,,,,,,,,white,triangle
0.0,7.0,3.0,1.0,6.0,6.0,1038.5997739999766,5.0,1.0,phase_2,go,750.0,750.0,1.0,,,,,,,,,gray,flipped triangle
0.0,8.0,4.0,1.0,6.0,0.0,0.0,5.0,1.0,phase_2,stop,750.0,750.0,4.0,,,,,,,,,green,I
0.0,1.0,1.0,0.0,6.0,6.0,925.0320190003548,5.0,1.0,phase_2,go,750.0,800.0,1.0,,,,,,,,,cyan,diamond
0.0,3.0,3.0,0.0,5.0,5.0,866.8079390004095,5.0,1.0,phase_2,go,750.0,800.0,1.0,,,,,,,,,orange,cross
0.0,5.0,1.0,1.0,5.0,5.0,915.9475219998968,5.0,1.0,phase_2,go,750.0,800.0,1.0,,,,,,,,,magenta,hexagon
0.0,6.0,2.0,1.0,6.0,0.0,0.0,5.0,1.0,phase_2,stop,750.0,800.0,4.0,,,,,,,,,yellow,circle
0.0,2.0,2.0,0.0,5.0,5.0,1162.3212700001204,5.0,1.0,phase_2,go,750.0,850.0,1.0,,,,,,,,,white,triangle
0.0,7.0,3.0,1.0,5.0,5.0,722.7030829999421,5.0,1.0,phase_2,stop,750.0,850.0,3.0,,,,,,,,,gray,flipped triangle
0.0,6.0,2.0,1.0,5.0,0.0,0.0,5.0,1.0,phase_2,stop,700.0,850.0,4.0,,,,,,,,,yellow,circle
0.0,4.0,4.0,0.0,5.0,5.0,810.0204920001488,5.0,1.0,phase_2,go,750.0,850.0,1.0,,,,,,,,,blue,square
0.0,7.0,3.0,1.0,5.0,5.0,1168.2110670003567,5.0,1.0,phase_2,go,750.0,850.0,1.0,,,,,,,,,gray,flipped triangle
0.0,8.0,4.0,1.0,5.0,0.0,0.0,5.0,1.0,phase_2,stop,750.0,850.0,4.0,,,,,,,,,green,I
0.0,6.0,2.0,1.0,5.0,0.0,0.0,5.0,1.0,phase_2,stop,800.0,850.0,4.0,,,,,,,,,yellow,circle
0.0,6.0,2.0,1.0,6.0,6.0,895.499197999925,5.0,1.0,phase_2,stop,850.0,850.0,3.0,,,,,,,,,yellow,circle
0.0,4.0,4.0,0.0,6.0,6.0,1004.7313850000137,5.0,1.0,phase_2,go,850.0,800.0,1.0,,,,,,,,,blue,square
0.0,7.0,3.0,1.0,6.0,6.0,628.7761389999105,5.0,1.0,phase_2,go,850.0,800.0,1.0,,,,,,,,,gray,flipped triangle
0.0,6.0,2.0,1.0,6.0,6.0,854.0103739996994,5.0,1.0,phase_2,stop,850.0,800.0,3.0,,,,,,,,,yellow,circle
0.0,3.0,3.0,0.0,6.0,6.0,970.8089860000656,5.0,1.0,phase_2,go,850.0,750.0,1.0,,,,,,,,,orange,cross
0.0,3.0,3.0,0.0,6.0,6.0,954.2016099999272,5.0,1.0,phase_2,go,850.0,750.0,1.0,,,,,,,,,orange,cross
0.0,6.0,2.0,1.0,5.0,0.0,0.0,5.0,1.0,phase_2,stop,850.0,750.0,4.0,,,,,,,,,yellow,circle
0.0,3.0,3.0,0.0,5.0,5.0,1241.951785999845,5.0,1.0,phase_2,go,900.0,750.0,1.0,,,,,,,,,orange,cross
0.0,5.0,1.0,1.0,6.0,6.0,858.7592020003285,5.0,1.0,phase_2,stop,900.0,750.0,3.0,,,,,,,,,magenta,hexagon
0.0,3.0,3.0,0.0,6.0,0.0,0.0,5.0,1.0,phase_2,go,900.0,700.0,5.0,,,,,,,,,orange,cross
0.0,7.0,3.0,1.0,6.0,6.0,415.2957840001363,5.0,1.0,phase_2,stop,900.0,700.0,3.0,,,,,,,,,gray,flipped triangle
0.0,3.0,3.0,0.0,5.0,5.0,495.1916069999242,5.0,1.0,phase_2,go,900.0,650.0,1.0,,,,,,,,,orange,cross
0.0,5.0,1.0,1.0,6.0,6.0,790.3747469999871,5.0,1.0,phase_2,go,900.0,650.0,1.0,,,,,,,,,magenta,hexagon
0.0,4.0,4.0,0.0,6.0,6.0,478.3576720001292,5.0,1.0,phase_2,go,900.0,650.0,1.0,,,,,,,,,blue,square
0.0,4.0,4.0,0.0,5.0,5.0,1085.1255560000936,5.0,1.0,phase_2,go,900.0,650.0,1.0,,,,,,,,,blue,square
0.0,6.0,2.0,1.0,6.0,0.0,0.0,5.0,1.0,phase_2,stop,900.0,650.0,4.0,,,,,,,,,yellow,circle
0.0,1.0,1.0,0.0,6.0,6.0,955.6842760002836,5.0,1.0,phase_2,go,900.0,700.0,1.0,,,,,,,,,cyan,diamond
0.0,2.0,2.0,0.0,6.0,6.0,692.1587740002906,6.0,1.0,phase_2,go,900.0,700.0,1.0,,,,,,,,,white,triangle
0.0,5.0,1.0,1.0,5.0,5.0,867.7098479997767,6.0,1.0,phase_2,stop,900.0,700.0,3.0,,,,,,,,,magenta,hexagon
0.0,5.0,1.0,1.0,5.0,5.0,629.2708569999377,6.0,1.0,phase_2,stop,850.0,700.0,3.0,,,,,,,,,magenta,hexagon
0.0,2.0,2.0,0.0,5.0,5.0,866.1434430000554,6.0,1.0,phase_2,go,800.0,700.0,1.0,,,,,,,,,white,triangle
0.0,7.0,3.0,1.0,6.0,6.0,699.7345760000826,6.0,1.0,phase_2,stop,800.0,700.0,3.0,,,,,,,,,gray,flipped triangle
0.0,8.0,4.0,1.0,6.0,0.0,0.0,6.0,1.0,phase_2,stop,800.0,650.0,4.0,,,,,,,,,green,I
0.0,3.0,3.0,0.0,6.0,6.0,747.0321939999849,6.0,1.0,phase_2,go,800.0,700.0,1.0,,,,,,,,,orange,cross
0.0,1.0,1.0,0.0,6.0,6.0,1226.5110489997824,6.0,1.0,phase_2,go,800.0,700.0,1.0,,,,,,,,,cyan,diamond
0.0,8.0,4.0,1.0,5.0,5.0,713.8694640002541,6.0,1.0,phase_2,stop,800.0,700.0,3.0,,,,,,,,,green,I
0.0,6.0,2.0,1.0,5.0,5.0,632.9722049999873,6.0,1.0,phase_2,go,750.0,700.0,1.0,,,,,,,,,yellow,circle
0.0,4.0,4.0,0.0,5.0,5.0,775.823593000041,6.0,1.0,phase_2,go,750.0,700.0,1.0,,,,,,,,,blue,square
0.0,7.0,3.0,1.0,6.0,6.0,742.8648210002393,6.0,1.0,phase_2,stop,750.0,700.0,3.0,,,,,,,,,gray,flipped triangle
0.0,4.0,4.0,0.0,6.0,6.0,862.9943179998918,6.0,1.0,phase_2,go,750.0,650.0,1.0,,,,,,,,,blue,square
0.0,6.0,2.0,1.0,6.0,6.0,533.203704999778,6.0,1.0,phase_2,stop,750.0,650.0,3.0,,,,,,,,,yellow,circle
0.0,6.0,2.0,1.0,5.0,5.0,638.1816909997724,6.0,1.0,phase_2,go,750.0,600.0,1.0,,,,,,,,,yellow,circle
0.0,6.0,2.0,1.0,6.0,0.0,0.0,6.0,1.0,phase_2,stop,750.0,600.0,4.0,,,,,,,,,yellow,circle
0.0,4.0,4.0,0.0,5.0,5.0,612.2740779997002,6.0,1.0,phase_2,go,750.0,650.0,1.0,,,,,,,,,blue,square
0.0,8.0,4.0,1.0,5.0,0.0,0.0,6.0,1.0,phase_2,stop,750.0,650.0,4.0,,,,,,,,,green,I
0.0,2.0,2.0,0.0,6.0,6.0,753.5002999998142,6.0,1.0,phase_2,go,800.0,650.0,1.0,,,,,,,,,white,triangle
0.0,5.0,1.0,1.0,6.0,0.0,0.0,6.0,1.0,phase_2,stop,800.0,650.0,4.0,,,,,,,,,magenta,hexagon
0.0,3.0,3.0,0.0,6.0,6.0,1010.4568880001352,6.0,1.0,phase_2,go,800.0,700.0,1.0,,,,,,,,,orange,cross
0.0,1.0,1.0,0.0,5.0,5.0,959.649711000111,6.0,1.0,phase_2,go,800.0,700.0,1.0,,,,,,,,,cyan,diamond
0.0,2.0,2.0,0.0,5.0,5.0,791.9698499999868,6.0,1.0,phase_2,go,800.0,700.0,1.0,,,,,,,,,white,triangle
0.0,2.0,2.0,0.0,6.0,6.0,1112.800788000186,6.0,1.0,phase_2,go,800.0,700.0,1.0,,,,,,,,,white,triangle
0.0,8.0,4.0,1.0,5.0,0.0,0.0,6.0,1.0,phase_2,stop,800.0,700.0,4.0,,,,,,,,,green,I
0.0,1.0,1.0,0.0,6.0,6.0,775.1878979997855,6.0,1.0,phase_2,go,850.0,700.0,1.0,,,,,,,,,cyan,diamond
0.0,4.0,4.0,0.0,6.0,6.0,854.6516669998709,6.0,1.0,phase_2,go,850.0,700.0,1.0,,,,,,,,,blue,square
0.0,6.0,2.0,1.0,5.0,5.0,1077.7148189999934,6.0,1.0,phase_2,go,850.0,700.0,1.0,,,,,,,,,yellow,circle
0.0,2.0,2.0,0.0,6.0,6.0,1235.0954089997686,6.0,1.0,phase_2,go,850.0,700.0,1.0,,,,,,,,,white,triangle
0.0,6.0,2.0,1.0,5.0,5.0,1316.6963300000134,6.0,1.0,phase_2,go,850.0,700.0,1.0,,,,,,,,,yellow,circle
0.0,1.0,1.0,0.0,6.0,6.0,1171.0509479999018,6.0,1.0,phase_2,go,850.0,700.0,1.0,,,,,,,,,cyan,diamond
0.0,7.0,3.0,1.0,5.0,5.0,505.0740539995786,6.0,1.0,phase_2,stop,850.0,700.0,3.0,,,,,,,,,gray,flipped triangle
0.0,4.0,4.0,0.0,5.0,5.0,705.4543710000871,6.0,1.0,phase_2,go,800.0,700.0,1.0,,,,,,,,,blue,square
0.0,1.0,1.0,0.0,6.0,6.0,825.553896999736,6.0,1.0,phase_2,go,800.0,700.0,1.0,,,,,,,,,cyan,diamond
0.0,7.0,3.0,1.0,5.0,5.0,782.5914270001704,6.0,1.0,phase_2,go,800.0,700.0,1.0,,,,,,,,,gray,flipped triangle
0.0,5.0,1.0,1.0,5.0,5.0,912.031594000382,6.0,1.0,phase_2,stop,800.0,700.0,3.0,,,,,,,,,magenta,hexagon
0.0,6.0,2.0,1.0,6.0,6.0,1067.6401959999566,7.0,1.0,phase_2,go,750.0,700.0,1.0,,,,,,,,,yellow,circle
0.0,4.0,4.0,0.0,6.0,6.0,962.0275629999924,7.0,1.0,phase_2,go,750.0,700.0,1.0,,,,,,,,,blue,square
0.0,6.0,2.0,1.0,6.0,6.0,796.2564479998946,7.0,1.0,phase_2,go,750.0,700.0,1.0,,,,,,,,,yellow,circle
0.0,1.0,1.0,0.0,5.0,5.0,433.7619319999248,7.0,1.0,phase_2,go,750.0,700.0,1.0,,,,,,,,,cyan,diamond
0.0,8.0,4.0,1.0,5.0,5.0,850.9229290002622,7.0,1.0,phase_2,stop,750.0,700.0,3.0,,,,,,,,,green,I
0.0,3.0,3.0,0.0,5.0,5.0,824.9701069998991,7.0,1.0,phase_2,go,700.0,700.0,1.0,,,,,,,,,orange,cross
0.0,3.0,3.0,0.0,6.0,6.0,934.9432300000444,7.0,1.0,phase_2,go,700.0,700.0,1.0,,,,,,,,,orange,cross
0.0,2.0,2.0,0.0,6.0,6.0,511.35242400005154,7.0,1.0,phase_2,go,700.0,700.0,1.0,,,,,,,,,white,triangle
0.0,7.0,3.0,1.0,5.0,0.0,0.0,7.0,1.0,phase_2,stop,700.0,700.0,4.0,,,,,,,,,gray,flipped triangle
0.0,3.0,3.0,0.0,5.0,5.0,661.9934949994786,7.0,1.0,phase_2,go,750.0,700.0,1.0,,,,,,,,,orange,cross
0.0,3.0,3.0,0.0,6.0,6.0,885.1598080000258,7.0,1.0,phase_2,go,750.0,700.0,1.0,,,,,,,,,orange,cross
0.0,5.0,1.0,1.0,5.0,0.0,0.0,7.0,1.0,phase_2,stop,750.0,700.0,4.0,,,,,,,,,magenta,hexagon
0.0,3.0,3.0,0.0,5.0,5.0,493.8973280004575,7.0,1.0,phase_2,go,800.0,700.0,1.0,,,,,,,,,orange,cross
0.0,3.0,3.0,0.0,6.0,6.0,780.1316109998879,7.0,1.0,phase_2,go,800.0,700.0,1.0,,,,,,,,,orange,cross
0.0,6.0,2.0,1.0,5.0,5.0,715.119567000329,7.0,1.0,phase_2,stop,800.0,700.0,3.0,,,,,,,,,yellow,circle
0.0,2.0,2.0,0.0,5.0,0.0,0.0,7.0,1.0,phase_2,go,750.0,700.0,5.0,,,,,,,,,white,triangle
0.0,2.0,2.0,0.0,5.0,5.0,563.0550510004468,7.0,1.0,phase_2,go,750.0,700.0,1.0,,,,,,,,,white,triangle
0.0,5.0,1.0,1.0,5.0,5.0,864.6339830002034,7.0,1.0,phase_2,stop,750.0,700.0,3.0,,,,,,,,,magenta,hexagon
0.0,6.0,2.0,1.0,5.0,5.0,745.3510169998481,7.0,1.0,phase_2,stop,700.0,700.0,3.0,,,,,,,,,yellow,circle
0.0,5.0,1.0,1.0,5.0,0.0,0.0,7.0,1.0,phase_2,stop,650.0,700.0,4.0,,,,,,,,,magenta,hexagon
0.0,3.0,3.0,0.0,6.0,6.0,1078.6064720005015,7.0,1.0,phase_2,go,700.0,700.0,1.0,,,,,,,,,orange,cross
0.0,6.0,2.0,1.0,5.0,0.0,0.0,7.0,1.0,phase_2,stop,700.0,700.0,4.0,,,,,,,,,yellow,circle
0.0,3.0,3.0,0.0,5.0,5.0,815.2574910000112,7.0,1.0,phase_2,go,750.0,700.0,1.0,,,,,,,,,orange,cross
0.0,1.0,1.0,0.0,6.0,6.0,797.9103369998484,7.0,1.0,phase_2,go,750.0,700.0,1.0,,,,,,,,,cyan,diamond
0.0,7.0,3.0,1.0,6.0,0.0,0.0,7.0,1.0,phase_2,stop,750.0,700.0,4.0,,,,,,,,,gray,flipped triangle
0.0,3.0,3.0,0.0,5.0,5.0,829.9292810006591,7.0,1.0,phase_2,go,750.0,750.0,1.0,,,,,,,,,orange,cross
0.0,1.0,1.0,0.0,5.0,5.0,1227.278390999345,7.0,1.0,phase_2,go,750.0,750.0,1.0,,,,,,,,,cyan,diamond
0.0,1.0,1.0,0.0,5.0,5.0,1154.722643000241,7.0,1.0,phase_2,go,750.0,750.0,1.0,,,,,,,,,cyan,diamond
0.0,8.0,4.0,1.0,6.0,6.0,1065.4993839998497,7.0,1.0,phase_2,go,750.0,750.0,1.0,,,,,,,,,green,I
0.0,8.0,4.0,1.0,5.0,0.0,0.0,7.0,1.0,phase_2,stop,750.0,750.0,4.0,,,,,,,,,green,I
0.0,1.0,1.0,0.0,5.0,5.0,937.1721279994744,7.0,1.0,phase_2,go,800.0,750.0,1.0,,,,,,,,,cyan,diamond
0.0,6.0,2.0,1.0,5.0,0.0,0.0,7.0,1.0,phase_2,stop,800.0,750.0,4.0,,,,,,,,,yellow,circle
0.0,5.0,1.0,1.0,6.0,0.0,0.0,7.0,1.0,phase_2,stop,850.0,750.0,4.0,,,,,,,,,magenta,hexagon
0.0,5.0,1.0,1.0,5.0,0.0,0.0,7.0,1.0,phase_2,stop,850.0,800.0,4.0,,,,,,,,,magenta,hexagon
0.0,5.0,1.0,1.0,6.0,6.0,973.3708590001696,7.0,1.0,phase_2,go,900.0,800.0,1.0,,,,,,,,,magenta,hexagon
0.0,1.0,1.0,0.0,6.0,6.0,1422.05859600017,7.0,1.0,phase_2,go,900.0,800.0,1.0,,,,,,,,,cyan,diamond
0.0,5.0,1.0,1.0,6.0,6.0,481.1138689992731,8.0,1.0,phase_2,stop,900.0,800.0,3.0,,,,,,,,,magenta,hexagon
0.0,2.0,2.0,0.0,5.0,5.0,629.7414860000572,8.0,1.0,phase_2,go,900.0,750.0,1.0,,,,,,,,,white,triangle
0.0,4.0,4.0,0.0,6.0,6.0,638.3495680001943,8.0,1.0,phase_2,go,900.0,750.0,1.0,,,,,,,,,blue,square
0.0,7.0,3.0,1.0,6.0,6.0,565.3923770005349,8.0,1.0,phase_2,stop,900.0,750.0,3.0,,,,,,,,,gray,flipped triangle
0.0,4.0,4.0,0.0,6.0,6.0,621.172776000094,8.0,1.0,phase_2,go,900.0,700.0,1.0,,,,,,,,,blue,square
0.0,4.0,4.0,0.0,5.0,5.0,637.8667140006655,8.0,1.0,phase_2,go,900.0,700.0,1.0,,,,,,,,,blue,square
0.0,2.0,2.0,0.0,6.0,6.0,659.4579029997476,8.0,1.0,phase_2,go,900.0,700.0,1.0,,,,,,,,,white,triangle
0.0,8.0,4.0,1.0,5.0,5.0,714.3074279993016,8.0,1.0,phase_2,go,900.0,700.0,1.0,,,,,,,,,green,I
0.0,8.0,4.0,1.0,6.0,6.0,961.7254459999458,8.0,1.0,phase_2,go,900.0,700.0,1.0,,,,,,,,,green,I
0.0,8.0,4.0,1.0,5.0,5.0,857.1961859997828,8.0,1.0,phase_2,stop,900.0,700.0,3.0,,,,,,,,,green,I
0.0,3.0,3.0,0.0,5.0,5.0,338.2277170003362,8.0,1.0,phase_2,go,850.0,700.0,1.0,,,,,,,,,orange,cross
0.0,6.0,2.0,1.0,5.0,5.0,936.9755269999588,8.0,1.0,phase_2,go,850.0,700.0,1.0,,,,,,,,,yellow,circle
0.0,3.0,3.0,0.0,5.0,5.0,1166.7122609997025,8.0,1.0,phase_2,go,850.0,700.0,1.0,,,,,,,,,orange,cross
0.0,5.0,1.0,1.0,5.0,0.0,0.0,8.0,1.0,phase_2,stop,850.0,700.0,4.0,,,,,,,,,magenta,hexagon
0.0,4.0,4.0,0.0,6.0,6.0,687.2236859999248,8.0,1.0,phase_2,go,900.0,700.0,1.0,,,,,,,,,blue,square
0.0,2.0,2.0,0.0,6.0,6.0,1204.9786040006438,8.0,1.0,phase_2,go,900.0,700.0,1.0,,,,,,,,,white,triangle
0.0,2.0,2.0,0.0,6.0,6.0,1021.5142950000882,8.0,1.0,phase_2,go,900.0,700.0,1.0,,,,,,,,,white,triangle
0.0,7.0,3.0,1.0,6.0,0.0,0.0,8.0,1.0,phase_2,stop,900.0,700.0,4.0,,,,,,,,,gray,flipped triangle
0.0,1.0,1.0,0.0,6.0,6.0,965.2505579997523,8.0,1.0,phase_2,go,900.0,750.0,1.0,,,,,,,,,cyan,diamond
0.0,2.0,2.0,0.0,6.0,6.0,1307.0583299995633,8.0,1.0,phase_2,go,900.0,750.0,1.0,,,,,,,,,white,triangle
0.0,2.0,2.0,0.0,6.0,6.0,1130.6543949995105,8.0,1.0,phase_2,go,900.0,750.0,1.0,,,,,,,,,white,triangle
0.0,6.0,2.0,1.0,6.0,6.0,914.717577000374,8.0,1.0,phase_2,stop,900.0,750.0,3.0,,,,,,,,,yellow,circle
0.0,1.0,1.0,0.0,5.0,5.0,841.914144999464,8.0,1.0,phase_2,go,900.0,700.0,1.0,,,,,,,,,cyan,diamond
0.0,5.0,1.0,1.0,6.0,6.0,785.3933879996475,8.0,1.0,phase_2,stop,900.0,700.0,3.0,,,,,,,,,magenta,hexagon
0.0,1.0,1.0,0.0,5.0,5.0,1162.0613610002692,8.0,1.0,phase_2,go,900.0,650.0,1.0,,,,,,,,,cyan,diamond
0.0,5.0,1.0,1.0,5.0,5.0,918.4716820000176,8.0,1.0,phase_2,stop,900.0,650.0,3.0,,,,,,,,,magenta,hexagon
0.0,7.0,3.0,1.0,5.0,0.0,0.0,8.0,1.0,phase_2,stop,850.0,650.0,4.0,,,,,,,,,gray,flipped triangle
0.0,2.0,2.0,0.0,5.0,5.0,1222.81371400004,8.0,1.0,phase_2,go,900.0,650.0,1.0,,,,,,,,,white,triangle
0.0,7.0,3.0,1.0,5.0,5.0,391.2861329999941,8.0,1.0,phase_2,stop,900.0,650.0,3.0,,,,,,,,,gray,flipped triangle
0.0,1.0,1.0,0.0,5.0,5.0,966.2457439999343,8.0,1.0,phase_2,go,850.0,650.0,1.0,,,,,,,,,cyan,diamond
0.0,5.0,1.0,1.0,5.0,0.0,0.0,8.0,1.0,phase_2,stop,850.0,650.0,4.0,,,,,,,,,magenta,hexagon
0.0,5.0,1.0,1.0,6.0,0.0,0.0,8.0,1.0,phase_2,stop,900.0,650.0,4.0,,,,,,,,,magenta,hexagon
0.0,4.0,4.0,0.0,6.0,6.0,749.3257979995178,8.0,1.0,phase_2,go,900.0,700.0,1.0,,,,,,,,,blue,square
0.0,2.0,2.0,0.0,5.0,5.0,1003.2526309996683,8.0,1.0,phase_2,go,900.0,700.0,1.0,,,,,,,,,white,triangle
0.0,7.0,3.0,1.0,6.0,0.0,0.0,8.0,1.0,phase_2,stop,900.0,700.0,4.0,,,,,,,,,gray,flipped triangle
0.0,5.0,1.0,1.0,5.0,0.0,0.0,8.0,1.0,phase_2,stop,900.0,750.0,4.0,,,,,,,,,magenta,hexagon
0.0,1.0,1.0,0.0,7.0,3.0,934.7943160000796,1.0,2.0,phase_3,,,,,154.0,1.0,308.0,770.0,154.0,924.0,462.0,616.0,cyan,diamond
0.0,4.0,4.0,0.0,7.0,4.0,3064.1543140000067,1.0,1.0,phase_3,,,,,232.0,2.0,580.0,696.0,348.0,232.0,464.0,116.0,blue,square
0.0,3.0,3.0,0.0,7.0,2.0,2858.063098999992,1.0,1.0,phase_3,,,,,924.0,6.0,308.0,924.0,154.0,462.0,770.0,616.0,orange,cross
0.0,7.0,3.0,1.0,7.0,4.0,2948.6811599999783,1.0,1.0,phase_3,,,,,865.0,5.0,1038.0,519.0,173.0,865.0,346.0,692.0,gray,flipped triangle
0.0,7.0,3.0,1.0,7.0,5.0,2230.4149999999936,1.0,1.0,phase_3,,,,,865.0,5.0,519.0,1038.0,692.0,346.0,865.0,173.0,gray,flipped triangle
0.0,8.0,4.0,1.0,7.0,1.0,1551.2327350006672,1.0,1.0,phase_3,,,,,865.0,5.0,865.0,519.0,1038.0,346.0,173.0,692.0,green,I
0.0,5.0,1.0,1.0,7.0,4.0,1832.499848000225,1.0,1.0,phase_3,,,,,135.0,1.0,810.0,270.0,540.0,135.0,405.0,675.0,magenta,hexagon
0.0,4.0,4.0,0.0,7.0,3.0,562.9846580004596,1.0,1.0,phase_3,,,,,616.0,4.0,462.0,770.0,616.0,924.0,308.0,154.0,blue,square
0.0,1.0,1.0,0.0,7.0,6.0,1481.2356659995205,1.0,1.0,phase_3,,,,,192.0,1.0,384.0,960.0,1152.0,768.0,576.0,192.0,cyan,diamond
0.0,5.0,1.0,1.0,7.0,1.0,1658.9009839999562,1.0,1.0,phase_3,,,,,1038.0,6.0,1038.0,865.0,519.0,692.0,346.0,173.0,magenta,hexagon
0.0,5.0,1.0,1.0,7.0,3.0,1476.075645000492,1.0,1.0,phase_3,,,,,348.0,3.0,696.0,464.0,348.0,580.0,232.0,116.0,magenta,hexagon
0.0,1.0,1.0,0.0,7.0,4.0,1390.1182569998127,1.0,1.0,phase_3,,,,,580.0,5.0,696.0,232.0,348.0,580.0,464.0,116.0,cyan,diamond
0.0,7.0,3.0,1.0,7.0,3.0,841.2472049994904,1.0,1.0,phase_3,,,,,348.0,3.0,232.0,696.0,348.0,464.0,116.0,580.0,gray,flipped triangle
0.0,8.0,4.0,1.0,7.0,2.0,1728.0073649999397,1.0,1.0,phase_3,,,,,192.0,1.0,576.0,192.0,1152.0,768.0,960.0,384.0,green,I
0.0,6.0,2.0,1.0,7.0,2.0,1344.723060999968,1.0,1.0,phase_3,,,,,696.0,6.0,348.0,696.0,464.0,232.0,116.0,580.0,yellow,circle
0.0,4.0,4.0,0.0,7.0,5.0,1380.3756489996886,1.0,1.0,phase_3,,,,,405.0,3.0,675.0,135.0,810.0,540.0,405.0,270.0,blue,square
0.0,6.0,2.0,1.0,7.0,3.0,1243.7894390004658,1.0,1.0,phase_3,,,,,270.0,2.0,540.0,675.0,270.0,135.0,810.0,405.0,yellow,circle
0.0,4.0,4.0,0.0,7.0,2.0,708.7009659999239,1.0,1.0,phase_3,,,,,960.0,5.0,768.0,960.0,576.0,192.0,384.0,1152.0,blue,square
0.0,2.0,2.0,0.0,7.0,3.0,1174.378097999579,1.0,1.0,phase_3,,,,,348.0,3.0,464.0,232.0,348.0,580.0,116.0,696.0,white,triangle
0.0,1.0,1.0,0.0,7.0,2.0,576.2998270001845,1.0,1.0,phase_3,,,,,173.0,1.0,346.0,173.0,692.0,519.0,1038.0,865.0,cyan,diamond
0.0,1.0,1.0,0.0,7.0,2.0,539.6311909998985,2.0,1.0,phase_3,,,,,405.0,3.0,675.0,405.0,810.0,270.0,540.0,135.0,cyan,diamond
0.0,2.0,2.0,0.0,7.0,4.0,492.1610190003775,2.0,1.0,phase_3,,,,,1152.0,6.0,960.0,384.0,576.0,1152.0,192.0,768.0,white,triangle
0.0,8.0,4.0,1.0,7.0,1.0,909.8906540002644,2.0,1.0,phase_3,,,,,192.0,1.0,192.0,960.0,768.0,576.0,384.0,1152.0,green,I
0.0,7.0,3.0,1.0,7.0,2.0,462.6485889994001,2.0,1.0,phase_3,,,,,770.0,5.0,308.0,770.0,924.0,616.0,154.0,462.0,gray,flipped triangle
0.0,1.0,1.0,0.0,7.0,3.0,368.8319849998152,2.0,1.0,phase_3,,,,,348.0,3.0,696.0,232.0,348.0,116.0,580.0,464.0,cyan,diamond
0.0,5.0,1.0,1.0,7.0,2.0,508.1675900000846,2.0,1.0,phase_3,,,,,154.0,1.0,616.0,154.0,462.0,770.0,308.0,924.0,magenta,hexagon
0.0,8.0,4.0,1.0,7.0,4.0,299.0784289995645,2.0,1.0,phase_3,,,,,232.0,2.0,696.0,580.0,116.0,232.0,464.0,348.0,green,I
0.0,8.0,4.0,1.0,7.0,2.0,524.6782670001267,2.0,1.0,phase_3,,,,,810.0,6.0,540.0,810.0,135.0,675.0,270.0,405.0,green,I
0.0,3.0,3.0,0.0,7.0,4.0,343.8960759995098,2.0,1.0,phase_3,,,,,616.0,4.0,924.0,462.0,154.0,616.0,770.0,308.0,orange,cross
0.0,3.0,3.0,0.0,7.0,5.0,342.8775020001922,2.0,1.0,phase_3,,,,,696.0,6.0,116.0,232.0,464.0,580.0,696.0,348.0,orange,cross
0.0,2.0,2.0,0.0,7.0,2.0,496.1304119997294,2.0,1.0,phase_3,,,,,405.0,3.0,540.0,405.0,270.0,675.0,135.0,810.0,white,triangle
0.0,8.0,4.0,1.0,7.0,5.0,442.1792100001767,2.0,1.0,phase_3,,,,,308.0,2.0,154.0,462.0,770.0,616.0,308.0,924.0,green,I
0.0,8.0,4.0,1.0,7.0,1.0,475.0278909996268,2.0,1.0,phase_3,,,,,348.0,3.0,348.0,580.0,116.0,696.0,464.0,232.0,green,I
0.0,7.0,3.0,1.0,7.0,5.0,357.3071050004728,2.0,1.0,phase_3,,,,,960.0,5.0,1152.0,576.0,192.0,768.0,960.0,384.0,gray,flipped triangle
0.0,6.0,2.0,1.0,7.0,2.0,478.2215989998803,2.0,1.0,phase_3,,,,,810.0,6.0,540.0,810.0,135.0,675.0,405.0,270.0,yellow,circle
0.0,4.0,4.0,0.0,7.0,4.0,375.5933490001553,2.0,1.0,phase_3,,,,,232.0,2.0,696.0,348.0,464.0,232.0,116.0,580.0,blue,square
0.0,4.0,4.0,0.0,7.0,2.0,463.9996030000475,2.0,1.0,phase_3,,,,,770.0,5.0,308.0,770.0,924.0,616.0,154.0,462.0,blue,square
0.0,2.0,2.0,0.0,7.0,2.0,312.9577039999276,2.0,1.0,phase_3,,,,,173.0,1.0,1038.0,173.0,865.0,692.0,519.0,346.0,white,triangle
0.0,5.0,1.0,1.0,7.0,4.0,268.8562840003214,2.0,1.0,phase_3,,,,,1152.0,6.0,384.0,960.0,768.0,1152.0,576.0,192.0,magenta,hexagon
0.0,3.0,3.0,0.0,7.0,1.0,363.7837810001656,2.0,1.0,phase_3,,,,,810.0,6.0,810.0,270.0,405.0,135.0,675.0,540.0,orange,cross
0.0,7.0,3.0,1.0,7.0,2.0,576.4115450001555,3.0,1.0,phase_3,,,,,768.0,4.0,1152.0,768.0,192.0,384.0,576.0,960.0,gray,flipped triangle
0.0,8.0,4.0,1.0,7.0,4.0,250.711198999852,3.0,1.0,phase_3,,,,,154.0,1.0,770.0,924.0,308.0,154.0,462.0,616.0,green,I
0.0,4.0,4.0,0.0,7.0,5.0,370.4545410000719,3.0,1.0,phase_3,,,,,405.0,3.0,270.0,135.0,540.0,675.0,405.0,810.0,blue,square
0.0,6.0,2.0,1.0,7.0,1.0,470.0322189992221,3.0,1.0,phase_3,,,,,346.0,2.0,346.0,173.0,1038.0,692.0,519.0,865.0,yellow,circle
0.0,7.0,3.0,1.0,7.0,2.0,1415.767866999886,3.0,1.0,phase_3,,,,,464.0,4.0,232.0,464.0,116.0,348.0,696.0,580.0,gray,flipped triangle
0.0,5.0,1.0,1.0,7.0,5.0,271.9076900002619,3.0,1.0,phase_3,,,,,154.0,1.0,924.0,616.0,462.0,770.0,154.0,308.0,magenta,hexagon
0.0,7.0,3.0,1.0,7.0,1.0,1106.2047659997916,3.0,1.0,phase_3,,,,,616.0,4.0,616.0,308.0,154.0,770.0,924.0,462.0,gray,flipped triangle
0.0,6.0,2.0,1.0,7.0,6.0,1507.4390109994056,3.0,1.0,phase_3,,,,,576.0,3.0,384.0,960.0,192.0,768.0,1152.0,576.0,yellow,circle
0.0,7.0,3.0,1.0,7.0,1.0,305.6905359999291,3.0,1.0,phase_3,,,,,405.0,3.0,405.0,270.0,135.0,540.0,810.0,675.0,gray,flipped triangle
0.0,2.0,2.0,0.0,7.0,2.0,436.3792919994012,3.0,1.0,phase_3,,,,,270.0,2.0,540.0,270.0,405.0,810.0,135.0,675.0,white,triangle
0.0,3.0,3.0,0.0,7.0,2.0,460.1259949995437,3.0,1.0,phase_3,,,,,810.0,6.0,675.0,810.0,540.0,135.0,405.0,270.0,orange,cross
0.0,2.0,2.0,0.0,7.0,4.0,576.5756619994136,3.0,1.0,phase_3,,,,,346.0,2.0,692.0,1038.0,519.0,346.0,173.0,865.0,white,triangle
0.0,3.0,3.0,0.0,7.0,5.0,377.6955410003211,3.0,1.0,phase_3,,,,,768.0,4.0,384.0,960.0,576.0,1152.0,768.0,192.0,orange,cross
0.0,3.0,3.0,0.0,7.0,4.0,512.7589710000393,3.0,1.0,phase_3,,,,,519.0,3.0,173.0,346.0,692.0,519.0,865.0,1038.0,orange,cross
0.0,6.0,2.0,1.0,7.0,2.0,706.0623699999269,3.0,1.0,phase_3,,,,,348.0,3.0,580.0,348.0,232.0,464.0,116.0,696.0,yellow,circle
0.0,2.0,2.0,0.0,7.0,2.0,604.063366000446,3.0,1.0,phase_3,,,,,116.0,1.0,464.0,116.0,232.0,696.0,348.0,580.0,white,triangle
0.0,1.0,1.0,0.0,7.0,5.0,395.9740729997065,3.0,1.0,phase_3,,,,,768.0,4.0,384.0,960.0,1152.0,576.0,768.0,192.0,cyan,diamond
0.0,4.0,4.0,0.0,7.0,2.0,365.4378780001934,3.0,1.0,phase_3,,,,,173.0,1.0,692.0,173.0,519.0,865.0,346.0,1038.0,blue,square
0.0,5.0,1.0,1.0,7.0,1.0,351.0480830000233,3.0,1.0,phase_3,,,,,540.0,4.0,540.0,810.0,405.0,675.0,270.0,135.0,magenta,hexagon
0.0,6.0,2.0,1.0,7.0,4.0,722.5242149997939,3.0,1.0,phase_3,,,,,924.0,6.0,770.0,308.0,616.0,924.0,462.0,154.0,yellow,circle
0.0,3.0,3.0,0.0,7.0,2.0,562.5280370004475,4.0,1.0,phase_3,,,,,1038.0,6.0,692.0,1038.0,346.0,173.0,865.0,519.0,orange,cross
0.0,1.0,1.0,0.0,7.0,4.0,514.429793999625,4.0,1.0,phase_3,,,,,865.0,5.0,346.0,1038.0,173.0,865.0,519.0,692.0,cyan,diamond
0.0,6.0,2.0,1.0,7.0,5.0,261.0703749996901,4.0,1.0,phase_3,,,,,576.0,3.0,960.0,768.0,192.0,384.0,576.0,1152.0,yellow,circle
0.0,7.0,3.0,1.0,7.0,1.0,382.849472000089,4.0,1.0,phase_3,,,,,135.0,1.0,135.0,270.0,810.0,540.0,675.0,405.0,gray,flipped triangle
0.0,5.0,1.0,1.0,7.0,2.0,334.8960009998336,4.0,1.0,phase_3,,,,,960.0,5.0,384.0,960.0,1152.0,192.0,768.0,576.0,magenta,hexagon
0.0,6.0,2.0,1.0,7.0,5.0,343.9238079999995,4.0,1.0,phase_3,,,,,770.0,5.0,462.0,154.0,616.0,308.0,770.0,924.0,yellow,circle
0.0,5.0,1.0,1.0,7.0,2.0,377.0929209995302,4.0,1.0,phase_3,,,,,348.0,3.0,116.0,348.0,464.0,232.0,580.0,696.0,magenta,hexagon
0.0,2.0,2.0,0.0,7.0,4.0,386.4451379995444,4.0,1.0,phase_3,,,,,960.0,5.0,1152.0,192.0,576.0,960.0,384.0,768.0,white,triangle
0.0,3.0,3.0,0.0,7.0,2.0,355.5640539998421,4.0,1.0,phase_3,,,,,116.0,1.0,348.0,116.0,464.0,696.0,580.0,232.0,orange,cross
0.0,5.0,1.0,1.0,7.0,2.0,390.2108980000776,4.0,1.0,phase_3,,,,,173.0,1.0,692.0,173.0,346.0,519.0,1038.0,865.0,magenta,hexagon
0.0,4.0,4.0,0.0,7.0,2.0,688.1242259996725,4.0,1.0,phase_3,,,,,960.0,5.0,768.0,960.0,384.0,1152.0,192.0,576.0,blue,square
0.0,6.0,2.0,1.0,7.0,2.0,303.4648930006369,4.0,1.0,phase_3,,,,,346.0,2.0,519.0,346.0,692.0,865.0,1038.0,173.0,yellow,circle
0.0,1.0,1.0,0.0,7.0,5.0,305.0348369997664,4.0,1.0,phase_3,,,,,405.0,3.0,810.0,675.0,270.0,540.0,405.0,135.0,cyan,diamond
0.0,2.0,2.0,0.0,7.0,6.0,521.9777059992339,4.0,1.0,phase_3,,,,,616.0,4.0,924.0,308.0,154.0,770.0,462.0,616.0,white,triangle
0.0,1.0,1.0,0.0,7.0,6.0,250.5240749997028,4.0,1.0,phase_3,,,,,770.0,5.0,924.0,308.0,616.0,462.0,154.0,770.0,cyan,diamond
0.0,3.0,3.0,0.0,7.0,1.0,372.6004539994392,4.0,1.0,phase_3,,,,,192.0,1.0,192.0,384.0,960.0,768.0,1152.0,576.0,orange,cross
0.0,8.0,4.0,1.0,7.0,2.0,453.7298610002835,4.0,1.0,phase_3,,,,,135.0,1.0,270.0,135.0,540.0,405.0,675.0,810.0,green,I
0.0,4.0,4.0,0.0,7.0,4.0,510.40407699929347,4.0,1.0,phase_3,,,,,692.0,4.0,1038.0,173.0,346.0,692.0,865.0,519.0,blue,square
0.0,8.0,4.0,1.0,7.0,2.0,465.2093759996205,4.0,1.0,phase_3,,,,,692.0,4.0,1038.0,692.0,346.0,519.0,173.0,865.0,green,I
0.0,2.0,2.0,0.0,7.0,6.0,347.8523359999599,4.0,1.0,phase_3,,,,,154.0,1.0,308.0,924.0,770.0,462.0,616.0,154.0,white,triangle
