raw_reward_magnitude,stim_reward,stepwise_reward_magnitude,paired_with_stopping,stim_location,response,reaction_time,block,num_trial_presentations,which_phase,stop_signal_trial_type,left_SSD,right_SSD,accuracy,chosen_bidding_amount,chosen_bidding_level,possible_bid_1,possible_bid_2,possible_bid_3,possible_bid_4,possible_bid_5,possible_bid_6,color_text,shape_text
642.0,3.0,3.0,0.0,4.0,4.0,436.7573580000226,1.0,1.0,phase_1,,,,,,,,,,,,,gray,circle
1287.0,4.0,4.0,0.0,3.0,3.0,394.480886999986,1.0,1.0,phase_1,,,,,,,,,,,,,orange,flipped triangle
1300.0,4.0,4.0,0.0,4.0,4.0,526.9050720000905,1.0,1.0,phase_1,,,,,,,,,,,,,orange,flipped triangle
1308.0,8.0,4.0,1.0,2.0,2.0,573.2350690000203,1.0,1.0,phase_1,,,,,,,,,,,,,cyan,diamond
346.0,6.0,2.0,1.0,2.0,2.0,401.2111069999946,1.0,1.0,phase_1,,,,,,,,,,,,,white,triangle
303.0,6.0,2.0,1.0,4.0,4.0,435.7455189999655,1.0,1.0,phase_1,,,,,,,,,,,,,white,triangle
338.0,2.0,2.0,0.0,2.0,2.0,504.2606079999814,1.0,1.0,phase_1,,,,,,,,,,,,,magenta,cross
160.0,1.0,1.0,0.0,3.0,3.0,438.2666300000437,1.0,1.0,phase_1,,,,,,,,,,,,,blue,square
341.0,2.0,2.0,0.0,2.0,2.0,622.8852649999226,1.0,2.0,phase_1,,,,,,,,,,,,,magenta,cross
315.0,2.0,2.0,0.0,4.0,4.0,484.9545130000479,1.0,1.0,phase_1,,,,,,,,,,,,,magenta,cross
634.0,7.0,3.0,1.0,2.0,2.0,513.4677169999122,1.0,1.0,phase_1,,,,,,,,,,,,,green,hexagon
626.0,7.0,3.0,1.0,1.0,1.0,716.8016879999186,1.0,1.0,phase_1,,,,,,,,,,,,,green,hexagon
341.0,2.0,2.0,0.0,3.0,3.0,576.9235799999706,1.0,1.0,phase_1,,,,,,,,,,,,,magenta,cross
0.0,8.0,0.0,1.0,2.0,2.0,287.8727859999799,1.0,1.0,phase_1,,,,,,,,,,,,,cyan,diamond
329.0,6.0,2.0,1.0,1.0,1.0,681.593778999968,1.0,1.0,phase_1,,,,,,,,,,,,,white,triangle
1316.0,8.0,4.0,1.0,4.0,4.0,350.6065149999813,1.0,1.0,phase_1,,,,,,,,,,,,,cyan,diamond
0.0,8.0,0.0,1.0,3.0,3.0,363.2525109999278,1.0,1.0,phase_1,,,,,,,,,,,,,cyan,diamond
0.0,5.0,0.0,1.0,2.0,2.0,314.7916369999848,1.0,1.0,phase_1,,,,,,,,,,,,,yellow,I
0.0,5.0,0.0,1.0,2.0,2.0,284.9860549999903,1.0,1.0,phase_1,,,,,,,,,,,,,yellow,I
164.0,1.0,1.0,0.0,2.0,2.0,280.6229849999226,1.0,1.0,phase_1,,,,,,,,,,,,,blue,square
671.0,3.0,3.0,0.0,1.0,1.0,605.8169929999622,1.0,1.0,phase_1,,,,,,,,,,,,,gray,circle
171.0,5.0,1.0,1.0,1.0,1.0,644.177071999934,1.0,1.0,phase_1,,,,,,,,,,,,,yellow,I
636.0,3.0,3.0,0.0,4.0,4.0,473.8355639999554,1.0,1.0,phase_1,,,,,,,,,,,,,gray,circle
1296.0,4.0,4.0,0.0,2.0,2.0,565.7105970000202,1.0,1.0,phase_1,,,,,,,,,,,,,orange,flipped triangle
347.0,6.0,2.0,1.0,3.0,3.0,360.7096719999845,1.0,1.0,phase_1,,,,,,,,,,,,,white,triangle
1309.0,4.0,4.0,0.0,2.0,2.0,541.6110380000418,1.0,1.0,phase_1,,,,,,,,,,,,,orange,flipped triangle
0.0,4.0,0.0,0.0,4.0,4.0,395.9013119999781,1.0,1.0,phase_1,,,,,,,,,,,,,orange,flipped triangle
0.0,6.0,0.0,1.0,2.0,2.0,399.0535179999597,1.0,1.0,phase_1,,,,,,,,,,,,,white,triangle
0.0,2.0,0.0,0.0,3.0,3.0,348.8740220000181,1.0,1.0,phase_1,,,,,,,,,,,,,magenta,cross
1324.0,4.0,4.0,0.0,1.0,1.0,527.5555059999988,1.0,1.0,phase_1,,,,,,,,,,,,,orange,flipped triangle
1296.0,8.0,4.0,1.0,4.0,4.0,380.6809229999999,1.0,1.0,phase_1,,,,,,,,,,,,,cyan,diamond
0.0,3.0,0.0,0.0,4.0,4.0,387.4178070000198,1.0,1.0,phase_1,,,,,,,,,,,,,gray,circle
158.0,1.0,1.0,0.0,2.0,2.0,398.4695099999271,1.0,1.0,phase_1,,,,,,,,,,,,,blue,square
183.0,5.0,1.0,1.0,3.0,3.0,338.049017000003,1.0,1.0,phase_1,,,,,,,,,,,,,yellow,I
637.0,3.0,3.0,0.0,2.0,2.0,287.5817209999241,1.0,1.0,phase_1,,,,,,,,,,,,,gray,circle
179.0,5.0,1.0,1.0,4.0,4.0,251.2262090000376,1.0,1.0,phase_1,,,,,,,,,,,,,yellow,I
337.0,6.0,2.0,1.0,2.0,2.0,282.4189149999938,1.0,1.0,phase_1,,,,,,,,,,,,,white,triangle
313.0,2.0,2.0,0.0,3.0,3.0,246.2431729999252,1.0,1.0,phase_1,,,,,,,,,,,,,magenta,cross
309.0,2.0,2.0,0.0,1.0,1.0,595.3948579999633,1.0,1.0,phase_1,,,,,,,,,,,,,magenta,cross
335.0,2.0,2.0,0.0,4.0,4.0,469.8472399999218,1.0,1.0,phase_1,,,,,,,,,,,,,magenta,cross
321.0,2.0,2.0,0.0,2.0,2.0,493.0999890000294,1.0,1.0,phase_1,,,,,,,,,,,,,magenta,cross
1315.0,4.0,4.0,0.0,2.0,2.0,471.5342709999959,1.0,1.0,phase_1,,,,,,,,,,,,,orange,flipped triangle
0.0,4.0,0.0,0.0,1.0,1.0,456.1974180001016,1.0,2.0,phase_1,,,,,,,,,,,,,orange,flipped triangle
1279.0,4.0,4.0,0.0,3.0,3.0,654.0026760000046,1.0,1.0,phase_1,,,,,,,,,,,,,orange,flipped triangle
332.0,2.0,2.0,0.0,1.0,1.0,745.6805030000169,1.0,1.0,phase_1,,,,,,,,,,,,,magenta,cross
348.0,2.0,2.0,0.0,3.0,3.0,405.5485820000513,1.0,1.0,phase_1,,,,,,,,,,,,,magenta,cross
163.0,1.0,1.0,0.0,3.0,3.0,403.7065770000936,1.0,1.0,phase_1,,,,,,,,,,,,,blue,square
1304.0,8.0,4.0,1.0,1.0,1.0,551.4092120000669,1.0,1.0,phase_1,,,,,,,,,,,,,cyan,diamond
144.0,5.0,1.0,1.0,3.0,3.0,356.5047549999462,1.0,1.0,phase_1,,,,,,,,,,,,,yellow,I
142.0,1.0,1.0,0.0,1.0,1.0,331.9320119999247,1.0,2.0,phase_1,,,,,,,,,,,,,blue,square
1305.0,8.0,4.0,1.0,3.0,3.0,400.7250079999949,1.0,1.0,phase_1,,,,,,,,,,,,,cyan,diamond
1279.0,8.0,4.0,1.0,4.0,4.0,485.8764509999673,1.0,1.0,phase_1,,,,,,,,,,,,,cyan,diamond
0.0,3.0,0.0,0.0,3.0,3.0,386.3423619999366,1.0,1.0,phase_1,,,,,,,,,,,,,gray,circle
1323.0,4.0,4.0,0.0,2.0,2.0,726.7338860000336,1.0,1.0,phase_1,,,,,,,,,,,,,orange,flipped triangle
663.0,3.0,3.0,0.0,3.0,3.0,468.4719870000435,1.0,1.0,phase_1,,,,,,,,,,,,,gray,circle
335.0,6.0,2.0,1.0,4.0,4.0,472.2462810000252,1.0,1.0,phase_1,,,,,,,,,,,,,white,triangle
0.0,2.0,0.0,0.0,3.0,3.0,479.5388109999976,1.0,1.0,phase_1,,,,,,,,,,,,,magenta,cross
0.0,4.0,0.0,0.0,3.0,3.0,410.541663999993,1.0,1.0,phase_1,,,,,,,,,,,,,orange,flipped triangle
172.0,1.0,1.0,0.0,4.0,4.0,397.9960649999157,1.0,1.0,phase_1,,,,,,,,,,,,,blue,square
167.0,1.0,1.0,0.0,2.0,2.0,626.4478529999451,1.0,1.0,phase_1,,,,,,,,,,,,,blue,square
646.0,7.0,3.0,1.0,4.0,4.0,433.7216140000919,1.0,1.0,phase_1,,,,,,,,,,,,,green,hexagon
332.0,6.0,2.0,1.0,2.0,2.0,365.6914900000174,1.0,1.0,phase_1,,,,,,,,,,,,,white,triangle
625.0,7.0,3.0,1.0,1.0,1.0,480.3483740000729,1.0,1.0,phase_1,,,,,,,,,,,,,green,hexagon
0.0,7.0,0.0,1.0,4.0,4.0,367.7745339999774,1.0,1.0,phase_1,,,,,,,,,,,,,green,hexagon
652.0,3.0,3.0,0.0,1.0,1.0,577.3751479999873,1.0,1.0,phase_1,,,,,,,,,,,,,gray,circle
646.0,3.0,3.0,0.0,3.0,3.0,325.8268869999483,1.0,1.0,phase_1,,,,,,,,,,,,,gray,circle
1307.0,4.0,4.0,0.0,4.0,4.0,324.7504360000448,1.0,1.0,phase_1,,,,,,,,,,,,,orange,flipped triangle
1323.0,8.0,4.0,1.0,1.0,1.0,488.2007219999877,1.0,1.0,phase_1,,,,,,,,,,,,,cyan,diamond
0.0,2.0,0.0,0.0,4.0,4.0,470.2375870000423,1.0,1.0,phase_1,,,,,,,,,,,,,magenta,cross
0.0,4.0,0.0,0.0,4.0,4.0,401.3781160000462,1.0,1.0,phase_1,,,,,,,,,,,,,orange,flipped triangle
664.0,3.0,3.0,0.0,4.0,4.0,373.8144559999909,1.0,1.0,phase_1,,,,,,,,,,,,,gray,circle
1300.0,8.0,4.0,1.0,1.0,1.0,530.8100010000771,1.0,1.0,phase_1,,,,,,,,,,,,,cyan,diamond
659.0,3.0,3.0,0.0,3.0,3.0,320.01121899998,1.0,1.0,phase_1,,,,,,,,,,,,,gray,circle
140.0,5.0,1.0,1.0,4.0,4.0,491.0839770000166,1.0,1.0,phase_1,,,,,,,,,,,,,yellow,I
305.0,2.0,2.0,0.0,4.0,4.0,313.5372230000257,1.0,1.0,phase_1,,,,,,,,,,,,,magenta,cross
0.0,4.0,0.0,0.0,1.0,1.0,590.6719079999903,1.0,1.0,phase_1,,,,,,,,,,,,,orange,flipped triangle
0.0,1.0,0.0,0.0,3.0,3.0,444.0420790000416,1.0,1.0,phase_1,,,,,,,,,,,,,blue,square
675.0,7.0,3.0,1.0,1.0,1.0,318.3099269999729,1.0,1.0,phase_1,,,,,,,,,,,,,green,hexagon
1290.0,4.0,4.0,0.0,2.0,2.0,467.8995689999965,1.0,1.0,phase_1,,,,,,,,,,,,,orange,flipped triangle
1277.0,8.0,4.0,1.0,1.0,1.0,408.3476429999564,1.0,1.0,phase_1,,,,,,,,,,,,,cyan,diamond
0.0,3.0,0.0,0.0,2.0,2.0,307.2224379999397,1.0,1.0,phase_1,,,,,,,,,,,,,gray,circle
1283.0,8.0,4.0,1.0,2.0,2.0,436.4886280000064,1.0,2.0,phase_1,,,,,,,,,,,,,cyan,diamond
651.0,3.0,3.0,0.0,2.0,2.0,578.2291509999595,1.0,1.0,phase_1,,,,,,,,,,,,,gray,circle
169.0,5.0,1.0,1.0,2.0,2.0,574.2089529999248,1.0,1.0,phase_1,,,,,,,,,,,,,yellow,I
338.0,2.0,2.0,0.0,2.0,2.0,452.2691209999721,1.0,1.0,phase_1,,,,,,,,,,,,,magenta,cross
330.0,6.0,2.0,1.0,2.0,2.0,279.9942519999376,1.0,1.0,phase_1,,,,,,,,,,,,,white,triangle
0.0,8.0,0.0,1.0,1.0,1.0,644.3032219999623,1.0,1.0,phase_1,,,,,,,,,,,,,cyan,diamond
330.0,6.0,2.0,1.0,4.0,4.0,945.8905090000372,1.0,1.0,phase_1,,,,,,,,,,,,,white,triangle
1308.0,4.0,4.0,0.0,3.0,3.0,549.5667950000325,1.0,1.0,phase_1,,,,,,,,,,,,,orange,flipped triangle
0.0,3.0,0.0,0.0,4.0,4.0,385.9876870000107,1.0,1.0,phase_1,,,,,,,,,,,,,gray,circle
148.0,1.0,1.0,0.0,2.0,2.0,337.2002050000446,1.0,1.0,phase_1,,,,,,,,,,,,,blue,square
0.0,2.0,0.0,0.0,3.0,3.0,435.0389060000452,1.0,1.0,phase_1,,,,,,,,,,,,,magenta,cross
0.0,2.0,0.0,0.0,4.0,4.0,407.8713289999314,1.0,1.0,phase_1,,,,,,,,,,,,,magenta,cross
646.0,7.0,3.0,1.0,3.0,3.0,365.2069770000707,1.0,1.0,phase_1,,,,,,,,,,,,,green,hexagon
630.0,7.0,3.0,1.0,4.0,4.0,345.295440999962,1.0,1.0,phase_1,,,,,,,,,,,,,green,hexagon
0.0,7.0,0.0,1.0,4.0,4.0,328.4014649999562,1.0,1.0,phase_1,,,,,,,,,,,,,green,hexagon
177.0,1.0,1.0,0.0,2.0,2.0,610.5770579999898,1.0,1.0,phase_1,,,,,,,,,,,,,blue,square
140.0,1.0,1.0,0.0,4.0,4.0,496.6499900000372,1.0,1.0,phase_1,,,,,,,,,,,,,blue,square
0.0,7.0,0.0,1.0,4.0,4.0,334.4533109999474,1.0,1.0,phase_1,,,,,,,,,,,,,green,hexagon
313.0,2.0,2.0,0.0,2.0,2.0,488.054934000047,1.0,1.0,phase_1,,,,,,,,,,,,,magenta,cross
333.0,2.0,2.0,0.0,1.0,1.0,624.4872649999706,2.0,1.0,phase_1,,,,,,,,,,,,,magenta,cross
635.0,3.0,3.0,0.0,2.0,2.0,363.1557009999824,2.0,1.0,phase_1,,,,,,,,,,,,,gray,circle
305.0,6.0,2.0,1.0,3.0,3.0,409.2433280000023,2.0,1.0,phase_1,,,,,,,,,,,,,white,triangle
0.0,8.0,0.0,1.0,1.0,1.0,587.9308260000471,2.0,1.0,phase_1,,,,,,,,,,,,,cyan,diamond
151.0,1.0,1.0,0.0,2.0,2.0,343.7450949999174,2.0,1.0,phase_1,,,,,,,,,,,,,blue,square
0.0,3.0,0.0,0.0,4.0,4.0,300.4966579999291,2.0,1.0,phase_1,,,,,,,,,,,,,gray,circle
327.0,2.0,2.0,0.0,2.0,2.0,363.8484650000464,2.0,1.0,phase_1,,,,,,,,,,,,,magenta,cross
1295.0,4.0,4.0,0.0,1.0,1.0,622.771268000065,2.0,1.0,phase_1,,,,,,,,,,,,,orange,flipped triangle
183.0,1.0,1.0,0.0,4.0,4.0,490.9635270000763,2.0,1.0,phase_1,,,,,,,,,,,,,blue,square
0.0,5.0,0.0,1.0,4.0,4.0,337.9990109999653,2.0,1.0,phase_1,,,,,,,,,,,,,yellow,I
156.0,1.0,1.0,0.0,3.0,3.0,246.4933889999656,2.0,1.0,phase_1,,,,,,,,,,,,,blue,square
179.0,5.0,1.0,1.0,1.0,1.0,537.2886399999288,2.0,1.0,phase_1,,,,,,,,,,,,,yellow,I
1282.0,8.0,4.0,1.0,3.0,3.0,333.9007519999768,2.0,1.0,phase_1,,,,,,,,,,,,,cyan,diamond
659.0,7.0,3.0,1.0,2.0,2.0,562.0238369999697,2.0,1.0,phase_1,,,,,,,,,,,,,green,hexagon
1303.0,8.0,4.0,1.0,2.0,2.0,335.7905159999745,2.0,1.0,phase_1,,,,,,,,,,,,,cyan,diamond
633.0,3.0,3.0,0.0,2.0,2.0,306.9718790000024,2.0,1.0,phase_1,,,,,,,,,,,,,gray,circle
1293.0,8.0,4.0,1.0,2.0,2.0,320.2348690000463,2.0,1.0,phase_1,,,,,,,,,,,,,cyan,diamond
313.0,6.0,2.0,1.0,3.0,3.0,396.2460860000192,2.0,1.0,phase_1,,,,,,,,,,,,,white,triangle
1299.0,8.0,4.0,1.0,2.0,2.0,249.4670230000792,2.0,1.0,phase_1,,,,,,,,,,,,,cyan,diamond
151.0,5.0,1.0,1.0,4.0,4.0,269.2965359999562,2.0,1.0,phase_1,,,,,,,,,,,,,yellow,I
184.0,5.0,1.0,1.0,2.0,2.0,324.7468570000364,2.0,1.0,phase_1,,,,,,,,,,,,,yellow,I
0.0,1.0,0.0,0.0,1.0,1.0,360.4195169999684,2.0,1.0,phase_1,,,,,,,,,,,,,blue,square
640.0,7.0,3.0,1.0,3.0,3.0,270.0423160000582,2.0,1.0,phase_1,,,,,,,,,,,,,green,hexagon
646.0,3.0,3.0,0.0,4.0,4.0,305.9620569999879,2.0,1.0,phase_1,,,,,,,,,,,,,gray,circle
671.0,7.0,3.0,1.0,3.0,3.0,365.2156460000242,2.0,1.0,phase_1,,,,,,,,,,,,,green,hexagon
156.0,5.0,1.0,1.0,2.0,2.0,354.3803869999919,2.0,1.0,phase_1,,,,,,,,,,,,,yellow,I
634.0,3.0,3.0,0.0,2.0,2.0,285.8742930000062,2.0,1.0,phase_1,,,,,,,,,,,,,gray,circle
638.0,3.0,3.0,0.0,4.0,4.0,251.0626160000129,2.0,1.0,phase_1,,,,,,,,,,,,,gray,circle
338.0,6.0,2.0,1.0,3.0,3.0,359.0216500000451,2.0,1.0,phase_1,,,,,,,,,,,,,white,triangle
335.0,2.0,2.0,0.0,4.0,4.0,254.81081999998878,2.0,1.0,phase_1,,,,,,,,,,,,,magenta,cross
635.0,7.0,3.0,1.0,2.0,2.0,505.30804300001364,2.0,1.0,phase_1,,,,,,,,,,,,,green,hexagon
0.0,6.0,0.0,1.0,4.0,4.0,278.4644209998532,2.0,1.0,phase_1,,,,,,,,,,,,,white,triangle
179.0,1.0,1.0,0.0,1.0,1.0,556.5590069998052,2.0,1.0,phase_1,,,,,,,,,,,,,blue,square
155.0,5.0,1.0,1.0,1.0,1.0,298.7376510000104,2.0,2.0,phase_1,,,,,,,,,,,,,yellow,I
659.0,7.0,3.0,1.0,2.0,2.0,343.4633770000346,2.0,1.0,phase_1,,,,,,,,,,,,,green,hexagon
0.0,6.0,0.0,1.0,4.0,4.0,359.2589880001924,2.0,1.0,phase_1,,,,,,,,,,,,,white,triangle
142.0,5.0,1.0,1.0,1.0,1.0,275.1836090001234,2.0,1.0,phase_1,,,,,,,,,,,,,yellow,I
309.0,6.0,2.0,1.0,3.0,3.0,343.8273149999986,2.0,1.0,phase_1,,,,,,,,,,,,,white,triangle
302.0,6.0,2.0,1.0,3.0,3.0,331.5545599998586,2.0,1.0,phase_1,,,,,,,,,,,,,white,triangle
1324.0,8.0,4.0,1.0,1.0,1.0,545.4824050000298,2.0,1.0,phase_1,,,,,,,,,,,,,cyan,diamond
0.0,2.0,0.0,0.0,4.0,4.0,430.0799479999568,2.0,1.0,phase_1,,,,,,,,,,,,,magenta,cross
0.0,4.0,0.0,0.0,1.0,1.0,296.3803449999886,2.0,1.0,phase_1,,,,,,,,,,,,,orange,flipped triangle
141.0,1.0,1.0,0.0,4.0,4.0,278.607238999939,2.0,1.0,phase_1,,,,,,,,,,,,,blue,square
640.0,3.0,3.0,0.0,3.0,3.0,289.358552000067,2.0,1.0,phase_1,,,,,,,,,,,,,gray,circle
1316.0,4.0,4.0,0.0,4.0,4.0,400.5578689998401,2.0,1.0,phase_1,,,,,,,,,,,,,orange,flipped triangle
301.0,2.0,2.0,0.0,1.0,1.0,428.1094559999019,2.0,1.0,phase_1,,,,,,,,,,,,,magenta,cross
1308.0,8.0,4.0,1.0,4.0,4.0,327.2407829999793,2.0,1.0,phase_1,,,,,,,,,,,,,cyan,diamond
633.0,7.0,3.0,1.0,2.0,2.0,345.7887110000683,2.0,2.0,phase_1,,,,,,,,,,,,,green,hexagon
302.0,2.0,2.0,0.0,3.0,3.0,382.6095599999917,2.0,1.0,phase_1,,,,,,,,,,,,,magenta,cross
137.0,1.0,1.0,0.0,3.0,3.0,386.2413800000013,2.0,1.0,phase_1,,,,,,,,,,,,,blue,square
626.0,3.0,3.0,0.0,3.0,3.0,353.2865009999568,2.0,1.0,phase_1,,,,,,,,,,,,,gray,circle
1305.0,4.0,4.0,0.0,2.0,2.0,355.443280000145,2.0,1.0,phase_1,,,,,,,,,,,,,orange,flipped triangle
306.0,6.0,2.0,1.0,3.0,3.0,295.7228880000002,2.0,1.0,phase_1,,,,,,,,,,,,,white,triangle
303.0,2.0,2.0,0.0,4.0,4.0,324.314091999895,2.0,1.0,phase_1,,,,,,,,,,,,,magenta,cross
182.0,5.0,1.0,1.0,3.0,3.0,281.2263460000395,2.0,1.0,phase_1,,,,,,,,,,,,,yellow,I
330.0,2.0,2.0,0.0,3.0,3.0,333.5678350001672,2.0,1.0,phase_1,,,,,,,,,,,,,magenta,cross
640.0,3.0,3.0,0.0,1.0,1.0,410.1143969999157,2.0,1.0,phase_1,,,,,,,,,,,,,gray,circle
1305.0,4.0,4.0,0.0,4.0,4.0,320.6433240000024,2.0,1.0,phase_1,,,,,,,,,,,,,orange,flipped triangle
158.0,5.0,1.0,1.0,3.0,3.0,317.4169290000463,2.0,1.0,phase_1,,,,,,,,,,,,,yellow,I
1299.0,4.0,4.0,0.0,2.0,2.0,319.4476479998229,2.0,1.0,phase_1,,,,,,,,,,,,,orange,flipped triangle
1277.0,4.0,4.0,0.0,3.0,3.0,301.4051789998575,2.0,1.0,phase_1,,,,,,,,,,,,,orange,flipped triangle
347.0,2.0,2.0,0.0,1.0,1.0,302.4945080001089,2.0,2.0,phase_1,,,,,,,,,,,,,magenta,cross
337.0,2.0,2.0,0.0,4.0,4.0,475.4241960001764,2.0,1.0,phase_1,,,,,,,,,,,,,magenta,cross
176.0,5.0,1.0,1.0,4.0,4.0,399.9686849999762,2.0,1.0,phase_1,,,,,,,,,,,,,yellow,I
162.0,5.0,1.0,1.0,4.0,4.0,371.6804810001122,2.0,1.0,phase_1,,,,,,,,,,,,,yellow,I
144.0,1.0,1.0,0.0,1.0,1.0,307.041437999942,2.0,1.0,phase_1,,,,,,,,,,,,,blue,square
671.0,7.0,3.0,1.0,3.0,3.0,309.6675479998794,2.0,1.0,phase_1,,,,,,,,,,,,,green,hexagon
1321.0,8.0,4.0,1.0,3.0,3.0,332.0387930000379,2.0,1.0,phase_1,,,,,,,,,,,,,cyan,diamond
339.0,2.0,2.0,0.0,1.0,1.0,462.4632150000707,2.0,1.0,phase_1,,,,,,,,,,,,,magenta,cross
1282.0,4.0,4.0,0.0,1.0,1.0,499.3457579998903,2.0,1.0,phase_1,,,,,,,,,,,,,orange,flipped triangle
159.0,1.0,1.0,0.0,3.0,3.0,288.0185300000448,2.0,1.0,phase_1,,,,,,,,,,,,,blue,square
1292.0,8.0,4.0,1.0,3.0,3.0,414.110717000085,2.0,1.0,phase_1,,,,,,,,,,,,,cyan,diamond
308.0,6.0,2.0,1.0,1.0,1.0,299.6654649998618,2.0,1.0,phase_1,,,,,,,,,,,,,white,triangle
320.0,6.0,2.0,1.0,1.0,1.0,309.745993999968,2.0,1.0,phase_1,,,,,,,,,,,,,white,triangle
1283.0,4.0,4.0,0.0,3.0,3.0,307.4168390000977,2.0,1.0,phase_1,,,,,,,,,,,,,orange,flipped triangle
0.0,1.0,0.0,0.0,3.0,3.0,344.7846930000651,2.0,1.0,phase_1,,,,,,,,,,,,,blue,square
159.0,5.0,1.0,1.0,4.0,4.0,558.2717470001626,2.0,1.0,phase_1,,,,,,,,,,,,,yellow,I
0.0,6.0,0.0,1.0,2.0,2.0,408.5196640000959,2.0,1.0,phase_1,,,,,,,,,,,,,white,triangle
0.0,2.0,0.0,0.0,1.0,1.0,453.1059930000083,2.0,1.0,phase_1,,,,,,,,,,,,,magenta,cross
1289.0,4.0,4.0,0.0,1.0,1.0,385.7010609999634,2.0,1.0,phase_1,,,,,,,,,,,,,orange,flipped triangle
0.0,5.0,0.0,1.0,2.0,2.0,373.8371340000412,2.0,1.0,phase_1,,,,,,,,,,,,,yellow,I
322.0,6.0,2.0,1.0,1.0,1.0,299.054027000011,2.0,1.0,phase_1,,,,,,,,,,,,,white,triangle
321.0,6.0,2.0,1.0,4.0,4.0,327.0849569998972,2.0,1.0,phase_1,,,,,,,,,,,,,white,triangle
670.0,7.0,3.0,1.0,4.0,4.0,356.4466510001693,2.0,1.0,phase_1,,,,,,,,,,,,,green,hexagon
675.0,3.0,3.0,0.0,4.0,4.0,312.9223809999075,2.0,1.0,phase_1,,,,,,,,,,,,,gray,circle
144.0,1.0,1.0,0.0,4.0,4.0,245.3123999998752,2.0,1.0,phase_1,,,,,,,,,,,,,blue,square
315.0,6.0,2.0,1.0,1.0,1.0,450.4478470000777,2.0,1.0,phase_1,,,,,,,,,,,,,white,triangle
1300.0,4.0,4.0,0.0,3.0,3.0,318.53918500019057,2.0,1.0,phase_1,,,,,,,,,,,,,orange,flipped triangle
0.0,6.0,0.0,1.0,4.0,4.0,435.4268170000068,2.0,1.0,phase_1,,,,,,,,,,,,,white,triangle
0.0,8.0,0.0,1.0,3.0,3.0,313.0445589999908,2.0,1.0,phase_1,,,,,,,,,,,,,cyan,diamond
338.0,2.0,2.0,0.0,1.0,1.0,416.5092820001064,2.0,2.0,phase_1,,,,,,,,,,,,,magenta,cross
1278.0,8.0,4.0,1.0,2.0,2.0,509.7821900001236,2.0,1.0,phase_1,,,,,,,,,,,,,cyan,diamond
0.0,7.0,0.0,1.0,2.0,2.0,385.9933569999612,2.0,1.0,phase_1,,,,,,,,,,,,,green,hexagon
341.0,6.0,2.0,1.0,3.0,3.0,415.2847969999129,2.0,1.0,phase_1,,,,,,,,,,,,,white,triangle
300.0,2.0,2.0,0.0,1.0,1.0,324.2325480000545,2.0,1.0,phase_1,,,,,,,,,,,,,magenta,cross
329.0,2.0,2.0,0.0,3.0,3.0,287.8948939999191,2.0,1.0,phase_1,,,,,,,,,,,,,magenta,cross
626.0,3.0,3.0,0.0,2.0,2.0,293.1572909999431,2.0,1.0,phase_1,,,,,,,,,,,,,gray,circle
169.0,5.0,1.0,1.0,2.0,2.0,386.0578670000905,2.0,1.0,phase_1,,,,,,,,,,,,,yellow,I
159.0,5.0,1.0,1.0,4.0,4.0,352.6932219999708,2.0,1.0,phase_1,,,,,,,,,,,,,yellow,I
1316.0,8.0,4.0,1.0,1.0,1.0,365.5654880001293,2.0,1.0,phase_1,,,,,,,,,,,,,cyan,diamond
654.0,3.0,3.0,0.0,1.0,1.0,621.8371029999616,3.0,1.0,phase_1,,,,,,,,,,,,,gray,circle
636.0,7.0,3.0,1.0,1.0,1.0,329.7424370000499,3.0,1.0,phase_1,,,,,,,,,,,,,green,hexagon
1278.0,4.0,4.0,0.0,3.0,3.0,376.6130440001234,3.0,1.0,phase_1,,,,,,,,,,,,,orange,flipped triangle
1324.0,4.0,4.0,0.0,2.0,2.0,523.2704620000277,3.0,1.0,phase_1,,,,,,,,,,,,,orange,flipped triangle
137.0,5.0,1.0,1.0,1.0,1.0,375.5246900000202,3.0,1.0,phase_1,,,,,,,,,,,,,yellow,I
161.0,1.0,1.0,0.0,2.0,2.0,390.7215000001542,3.0,1.0,phase_1,,,,,,,,,,,,,blue,square
306.0,2.0,2.0,0.0,2.0,2.0,707.0204569999987,3.0,1.0,phase_1,,,,,,,,,,,,,magenta,cross
1313.0,4.0,4.0,0.0,1.0,1.0,469.6630959999766,3.0,1.0,phase_1,,,,,,,,,,,,,orange,flipped triangle
637.0,7.0,3.0,1.0,3.0,3.0,380.6543639998381,3.0,1.0,phase_1,,,,,,,,,,,,,green,hexagon
146.0,5.0,1.0,1.0,1.0,1.0,406.5802210000129,3.0,1.0,phase_1,,,,,,,,,,,,,yellow,I
338.0,6.0,2.0,1.0,1.0,1.0,507.29495800010227,3.0,1.0,phase_1,,,,,,,,,,,,,white,triangle
640.0,7.0,3.0,1.0,4.0,4.0,496.761294999942,3.0,1.0,phase_1,,,,,,,,,,,,,green,hexagon
172.0,5.0,1.0,1.0,3.0,3.0,399.9374699999407,3.0,1.0,phase_1,,,,,,,,,,,,,yellow,I
670.0,3.0,3.0,0.0,4.0,4.0,315.2120469999317,3.0,1.0,phase_1,,,,,,,,,,,,,gray,circle
325.0,6.0,2.0,1.0,1.0,1.0,416.8648630000007,3.0,1.0,phase_1,,,,,,,,,,,,,white,triangle
674.0,7.0,3.0,1.0,3.0,3.0,325.8452940001461,3.0,1.0,phase_1,,,,,,,,,,,,,green,hexagon
646.0,7.0,3.0,1.0,4.0,4.0,375.6798269998853,3.0,1.0,phase_1,,,,,,,,,,,,,green,hexagon
640.0,7.0,3.0,1.0,2.0,2.0,460.4003099998408,3.0,1.0,phase_1,,,,,,,,,,,,,green,hexagon
0.0,2.0,0.0,0.0,2.0,2.0,505.40735399999903,3.0,1.0,phase_1,,,,,,,,,,,,,magenta,cross
0.0,2.0,0.0,0.0,2.0,2.0,343.8723879999088,3.0,1.0,phase_1,,,,,,,,,,,,,magenta,cross
674.0,3.0,3.0,0.0,3.0,3.0,386.2684779999199,3.0,1.0,phase_1,,,,,,,,,,,,,gray,circle
309.0,6.0,2.0,1.0,4.0,4.0,358.9861729999484,3.0,1.0,phase_1,,,,,,,,,,,,,white,triangle
342.0,6.0,2.0,1.0,2.0,2.0,306.8904810002095,3.0,1.0,phase_1,,,,,,,,,,,,,white,triangle
171.0,5.0,1.0,1.0,3.0,3.0,402.1816210001816,3.0,1.0,phase_1,,,,,,,,,,,,,yellow,I
1279.0,8.0,4.0,1.0,3.0,3.0,337.765304999948,3.0,2.0,phase_1,,,,,,,,,,,,,cyan,diamond
0.0,2.0,0.0,0.0,3.0,3.0,357.8933989999768,3.0,1.0,phase_1,,,,,,,,,,,,,magenta,cross
671.0,3.0,3.0,0.0,3.0,3.0,354.99612600006,3.0,1.0,phase_1,,,,,,,,,,,,,gray,circle
0.0,1.0,0.0,0.0,1.0,1.0,287.3686009997982,3.0,1.0,phase_1,,,,,,,,,,,,,blue,square
0.0,8.0,0.0,1.0,1.0,1.0,348.1455240000741,3.0,1.0,phase_1,,,,,,,,,,,,,cyan,diamond
327.0,6.0,2.0,1.0,1.0,1.0,338.9965280000524,3.0,1.0,phase_1,,,,,,,,,,,,,white,triangle
148.0,5.0,1.0,1.0,1.0,1.0,293.4815349999553,3.0,1.0,phase_1,,,,,,,,,,,,,yellow,I
666.0,3.0,3.0,0.0,3.0,3.0,395.8052479999878,3.0,1.0,phase_1,,,,,,,,,,,,,gray,circle
144.0,1.0,1.0,0.0,1.0,1.0,328.3213900001556,3.0,1.0,phase_1,,,,,,,,,,,,,blue,square
179.0,1.0,1.0,0.0,1.0,1.0,269.3417829998452,3.0,1.0,phase_1,,,,,,,,,,,,,blue,square
162.0,1.0,1.0,0.0,4.0,4.0,400.1253260000794,3.0,1.0,phase_1,,,,,,,,,,,,,blue,square
0.0,7.0,0.0,1.0,1.0,1.0,516.6679650001242,3.0,1.0,phase_1,,,,,,,,,,,,,green,hexagon
1309.0,8.0,4.0,1.0,1.0,1.0,304.9125459999686,3.0,1.0,phase_1,,,,,,,,,,,,,cyan,diamond
169.0,1.0,1.0,0.0,1.0,1.0,304.0844180000022,3.0,1.0,phase_1,,,,,,,,,,,,,blue,square
161.0,5.0,1.0,1.0,1.0,1.0,258.5886010001559,3.0,1.0,phase_1,,,,,,,,,,,,,yellow,I
348.0,6.0,2.0,1.0,2.0,2.0,487.1338970001488,3.0,1.0,phase_1,,,,,,,,,,,,,white,triangle
1292.0,4.0,4.0,0.0,4.0,4.0,326.009890000023,3.0,1.0,phase_1,,,,,,,,,,,,,orange,flipped triangle
160.0,5.0,1.0,1.0,2.0,2.0,426.854306999985,3.0,1.0,phase_1,,,,,,,,,,,,,yellow,I
1308.0,4.0,4.0,0.0,1.0,1.0,285.3230309999617,3.0,1.0,phase_1,,,,,,,,,,,,,orange,flipped triangle
339.0,6.0,2.0,1.0,3.0,3.0,394.6191790000739,3.0,1.0,phase_1,,,,,,,,,,,,,white,triangle
138.0,5.0,1.0,1.0,3.0,3.0,333.8787189998129,3.0,1.0,phase_1,,,,,,,,,,,,,yellow,I
1284.0,8.0,4.0,1.0,3.0,3.0,293.5193739999704,3.0,1.0,phase_1,,,,,,,,,,,,,cyan,diamond
0.0,1.0,0.0,0.0,2.0,2.0,313.7187390000235,3.0,1.0,phase_1,,,,,,,,,,,,,blue,square
634.0,3.0,3.0,0.0,1.0,1.0,395.2850660000422,3.0,1.0,phase_1,,,,,,,,,,,,,gray,circle
1322.0,4.0,4.0,0.0,2.0,2.0,426.4266569998653,3.0,1.0,phase_1,,,,,,,,,,,,,orange,flipped triangle
180.0,1.0,1.0,0.0,1.0,1.0,484.5595249998951,3.0,1.0,phase_1,,,,,,,,,,,,,blue,square
0.0,7.0,0.0,1.0,2.0,2.0,298.151265000115,3.0,1.0,phase_1,,,,,,,,,,,,,green,hexagon
315.0,2.0,2.0,0.0,4.0,4.0,419.4324590000633,3.0,2.0,phase_1,,,,,,,,,,,,,magenta,cross
1292.0,4.0,4.0,0.0,2.0,2.0,455.1658590000897,3.0,1.0,phase_1,,,,,,,,,,,,,orange,flipped triangle
1300.0,8.0,4.0,1.0,2.0,2.0,389.2737369999395,3.0,1.0,phase_1,,,,,,,,,,,,,cyan,diamond
661.0,3.0,3.0,0.0,1.0,1.0,481.487603000005,3.0,1.0,phase_1,,,,,,,,,,,,,gray,circle
159.0,1.0,1.0,0.0,3.0,3.0,375.3731409999545,3.0,1.0,phase_1,,,,,,,,,,,,,blue,square
318.0,2.0,2.0,0.0,3.0,3.0,346.7357239999273,3.0,1.0,phase_1,,,,,,,,,,,,,magenta,cross
0.0,5.0,0.0,1.0,1.0,1.0,414.7030789999917,3.0,1.0,phase_1,,,,,,,,,,,,,yellow,I
0.0,1.0,0.0,0.0,1.0,1.0,340.9590930000377,3.0,1.0,phase_1,,,,,,,,,,,,,blue,square
180.0,5.0,1.0,1.0,4.0,4.0,295.9683030001088,3.0,1.0,phase_1,,,,,,,,,,,,,yellow,I
653.0,7.0,3.0,1.0,1.0,1.0,268.7794879998364,3.0,1.0,phase_1,,,,,,,,,,,,,green,hexagon
0.0,3.0,0.0,0.0,2.0,2.0,457.4264059999677,3.0,1.0,phase_1,,,,,,,,,,,,,gray,circle
666.0,7.0,3.0,1.0,2.0,2.0,343.5725819999788,3.0,1.0,phase_1,,,,,,,,,,,,,green,hexagon
625.0,3.0,3.0,0.0,1.0,1.0,301.0163080000438,3.0,1.0,phase_1,,,,,,,,,,,,,gray,circle
646.0,7.0,3.0,1.0,3.0,3.0,457.857180000019,3.0,1.0,phase_1,,,,,,,,,,,,,green,hexagon
172.0,5.0,1.0,1.0,2.0,2.0,349.483396000096,3.0,1.0,phase_1,,,,,,,,,,,,,yellow,I
141.0,5.0,1.0,1.0,1.0,1.0,210.1958549999381,3.0,1.0,phase_1,,,,,,,,,,,,,yellow,I
1289.0,8.0,4.0,1.0,3.0,3.0,390.8223600001292,3.0,1.0,phase_1,,,,,,,,,,,,,cyan,diamond
655.0,3.0,3.0,0.0,1.0,1.0,259.5570830001179,3.0,1.0,phase_1,,,,,,,,,,,,,gray,circle
0.0,8.0,0.0,1.0,3.0,3.0,350.7472139999663,3.0,1.0,phase_1,,,,,,,,,,,,,cyan,diamond
635.0,3.0,3.0,0.0,4.0,4.0,428.9548140000079,3.0,1.0,phase_1,,,,,,,,,,,,,gray,circle
1278.0,8.0,4.0,1.0,1.0,1.0,282.1974140001657,3.0,1.0,phase_1,,,,,,,,,,,,,cyan,diamond
1290.0,8.0,4.0,1.0,4.0,4.0,287.2411959999681,3.0,1.0,phase_1,,,,,,,,,,,,,cyan,diamond
640.0,3.0,3.0,0.0,1.0,1.0,296.9151360000523,3.0,1.0,phase_1,,,,,,,,,,,,,gray,circle
1282.0,8.0,4.0,1.0,4.0,4.0,253.88780200000838,3.0,1.0,phase_1,,,,,,,,,,,,,cyan,diamond
0.0,1.0,0.0,0.0,1.0,1.0,308.7016320000657,3.0,1.0,phase_1,,,,,,,,,,,,,blue,square
1295.0,8.0,4.0,1.0,4.0,4.0,257.9337539998505,3.0,1.0,phase_1,,,,,,,,,,,,,cyan,diamond
0.0,6.0,0.0,1.0,4.0,4.0,403.2263330000205,3.0,2.0,phase_1,,,,,,,,,,,,,white,triangle
321.0,2.0,2.0,0.0,4.0,4.0,340.8776599999328,3.0,1.0,phase_1,,,,,,,,,,,,,magenta,cross
330.0,2.0,2.0,0.0,2.0,2.0,787.3314599999048,3.0,1.0,phase_1,,,,,,,,,,,,,magenta,cross
669.0,3.0,3.0,0.0,2.0,2.0,342.1606800000063,3.0,1.0,phase_1,,,,,,,,,,,,,gray,circle
634.0,7.0,3.0,1.0,1.0,1.0,409.7988890000579,3.0,2.0,phase_1,,,,,,,,,,,,,green,hexagon
144.0,5.0,1.0,1.0,3.0,3.0,692.218419000028,3.0,1.0,phase_1,,,,,,,,,,,,,yellow,I
0.0,3.0,0.0,0.0,1.0,1.0,355.1193370001329,3.0,1.0,phase_1,,,,,,,,,,,,,gray,circle
144.0,5.0,1.0,1.0,3.0,3.0,351.2449060001472,3.0,1.0,phase_1,,,,,,,,,,,,,yellow,I
1284.0,4.0,4.0,0.0,4.0,4.0,443.7863359999028,3.0,1.0,phase_1,,,,,,,,,,,,,orange,flipped triangle
1321.0,4.0,4.0,0.0,1.0,1.0,422.5235629999133,3.0,1.0,phase_1,,,,,,,,,,,,,orange,flipped triangle
171.0,1.0,1.0,0.0,1.0,1.0,331.1613060000127,3.0,1.0,phase_1,,,,,,,,,,,,,blue,square
0.0,8.0,0.0,1.0,2.0,2.0,609.8161829997935,3.0,1.0,phase_1,,,,,,,,,,,,,cyan,diamond
646.0,3.0,3.0,0.0,2.0,2.0,476.1705729999903,3.0,1.0,phase_1,,,,,,,,,,,,,gray,circle
651.0,7.0,3.0,1.0,4.0,4.0,676.1538860000655,3.0,1.0,phase_1,,,,,,,,,,,,,green,hexagon
1305.0,8.0,4.0,1.0,2.0,2.0,541.0259529999166,3.0,1.0,phase_1,,,,,,,,,,,,,cyan,diamond
0.0,7.0,0.0,1.0,4.0,4.0,306.0228199999528,3.0,1.0,phase_1,,,,,,,,,,,,,green,hexagon
655.0,7.0,3.0,1.0,3.0,3.0,343.2047680000778,3.0,1.0,phase_1,,,,,,,,,,,,,green,hexagon
172.0,1.0,1.0,0.0,3.0,3.0,366.3600650002081,3.0,1.0,phase_1,,,,,,,,,,,,,blue,square
322.0,2.0,2.0,0.0,3.0,3.0,296.5310219999537,3.0,1.0,phase_1,,,,,,,,,,,,,magenta,cross
138.0,1.0,1.0,0.0,3.0,3.0,301.0518050000428,3.0,1.0,phase_1,,,,,,,,,,,,,blue,square
333.0,6.0,2.0,1.0,2.0,2.0,451.4483529999324,3.0,1.0,phase_1,,,,,,,,,,,,,white,triangle
1292.0,8.0,4.0,1.0,2.0,2.0,303.6031309998179,3.0,1.0,phase_1,,,,,,,,,,,,,cyan,diamond
0.0,6.0,0.0,1.0,2.0,2.0,275.0113009999495,3.0,1.0,phase_1,,,,,,,,,,,,,white,triangle
345.0,6.0,2.0,1.0,4.0,4.0,374.2491340001379,4.0,1.0,phase_1,,,,,,,,,,,,,white,triangle
0.0,8.0,0.0,1.0,1.0,1.0,651.3418350000393,4.0,1.0,phase_1,,,,,,,,,,,,,cyan,diamond
674.0,3.0,3.0,0.0,2.0,2.0,575.756414000125,4.0,1.0,phase_1,,,,,,,,,,,,,gray,circle
309.0,2.0,2.0,0.0,1.0,1.0,493.5753820000172,4.0,1.0,phase_1,,,,,,,,,,,,,magenta,cross
1282.0,4.0,4.0,0.0,1.0,1.0,319.5998359999521,4.0,1.0,phase_1,,,,,,,,,,,,,orange,flipped triangle
1296.0,8.0,4.0,1.0,2.0,2.0,351.0714460001054,4.0,1.0,phase_1,,,,,,,,,,,,,cyan,diamond
661.0,7.0,3.0,1.0,4.0,4.0,396.8578310000339,4.0,1.0,phase_1,,,,,,,,,,,,,green,hexagon
341.0,6.0,2.0,1.0,4.0,4.0,288.0772700000307,4.0,1.0,phase_1,,,,,,,,,,,,,white,triangle
177.0,5.0,1.0,1.0,2.0,2.0,485.5492009999125,4.0,1.0,phase_1,,,,,,,,,,,,,yellow,I
338.0,6.0,2.0,1.0,4.0,4.0,392.265807000058,4.0,1.0,phase_1,,,,,,,,,,,,,white,triangle
300.0,6.0,2.0,1.0,2.0,2.0,396.4803400001528,4.0,1.0,phase_1,,,,,,,,,,,,,white,triangle
184.0,1.0,1.0,0.0,2.0,2.0,298.5464329999558,4.0,1.0,phase_1,,,,,,,,,,,,,blue,square
163.0,5.0,1.0,1.0,2.0,2.0,334.6469519999573,4.0,1.0,phase_1,,,,,,,,,,,,,yellow,I
155.0,1.0,1.0,0.0,3.0,3.0,349.5879829999921,4.0,1.0,phase_1,,,,,,,,,,,,,blue,square
0.0,4.0,0.0,0.0,4.0,4.0,271.475442999872,4.0,1.0,phase_1,,,,,,,,,,,,,orange,flipped triangle
1323.0,8.0,4.0,1.0,3.0,3.0,333.3651810000901,4.0,1.0,phase_1,,,,,,,,,,,,,cyan,diamond
0.0,6.0,0.0,1.0,4.0,4.0,288.384054999824,4.0,1.0,phase_1,,,,,,,,,,,,,white,triangle
0.0,1.0,0.0,0.0,4.0,4.0,326.957830000083,4.0,1.0,phase_1,,,,,,,,,,,,,blue,square
1323.0,4.0,4.0,0.0,4.0,4.0,291.8651069999214,4.0,1.0,phase_1,,,,,,,,,,,,,orange,flipped triangle
0.0,4.0,0.0,0.0,2.0,2.0,439.5554699999593,4.0,1.0,phase_1,,,,,,,,,,,,,orange,flipped triangle
167.0,5.0,1.0,1.0,2.0,2.0,435.4435620000458,4.0,1.0,phase_1,,,,,,,,,,,,,yellow,I
0.0,5.0,0.0,1.0,3.0,3.0,314.55146899998,4.0,1.0,phase_1,,,,,,,,,,,,,yellow,I
179.0,5.0,1.0,1.0,3.0,3.0,316.3662040001327,4.0,1.0,phase_1,,,,,,,,,,,,,yellow,I
0.0,6.0,0.0,1.0,4.0,4.0,296.551867999824,4.0,1.0,phase_1,,,,,,,,,,,,,white,triangle
642.0,7.0,3.0,1.0,2.0,2.0,357.579608999913,4.0,1.0,phase_1,,,,,,,,,,,,,green,hexagon
164.0,5.0,1.0,1.0,2.0,2.0,314.0014809998774,4.0,1.0,phase_1,,,,,,,,,,,,,yellow,I
342.0,2.0,2.0,0.0,2.0,2.0,296.4383160001489,4.0,1.0,phase_1,,,,,,,,,,,,,magenta,cross
664.0,7.0,3.0,1.0,3.0,3.0,414.1095719999157,4.0,1.0,phase_1,,,,,,,,,,,,,green,hexagon
659.0,7.0,3.0,1.0,2.0,2.0,402.2582970001167,4.0,1.0,phase_1,,,,,,,,,,,,,green,hexagon
1288.0,4.0,4.0,0.0,1.0,1.0,420.9963089999746,4.0,1.0,phase_1,,,,,,,,,,,,,orange,flipped triangle
1288.0,8.0,4.0,1.0,1.0,1.0,322.4210809999022,4.0,1.0,phase_1,,,,,,,,,,,,,cyan,diamond
0.0,3.0,0.0,0.0,2.0,2.0,341.7033949999677,4.0,1.0,phase_1,,,,,,,,,,,,,gray,circle
1296.0,4.0,4.0,0.0,4.0,4.0,291.0534479999569,4.0,1.0,phase_1,,,,,,,,,,,,,orange,flipped triangle
0.0,4.0,0.0,0.0,3.0,3.0,327.0850919998338,4.0,1.0,phase_1,,,,,,,,,,,,,orange,flipped triangle
346.0,2.0,2.0,0.0,4.0,4.0,270.2059679998001,4.0,1.0,phase_1,,,,,,,,,,,,,magenta,cross
626.0,7.0,3.0,1.0,1.0,1.0,359.9911050000628,4.0,1.0,phase_1,,,,,,,,,,,,,green,hexagon
1324.0,8.0,4.0,1.0,3.0,3.0,317.4456189999546,4.0,1.0,phase_1,,,,,,,,,,,,,cyan,diamond
1303.0,4.0,4.0,0.0,3.0,3.0,451.6472679999879,4.0,1.0,phase_1,,,,,,,,,,,,,orange,flipped triangle
151.0,5.0,1.0,1.0,1.0,1.0,535.1036730000942,4.0,1.0,phase_1,,,,,,,,,,,,,yellow,I
635.0,7.0,3.0,1.0,4.0,4.0,282.9926960000648,4.0,1.0,phase_1,,,,,,,,,,,,,green,hexagon
321.0,6.0,2.0,1.0,4.0,4.0,297.999197000081,4.0,1.0,phase_1,,,,,,,,,,,,,white,triangle
1322.0,8.0,4.0,1.0,4.0,4.0,236.6197940000347,4.0,1.0,phase_1,,,,,,,,,,,,,cyan,diamond
320.0,2.0,2.0,0.0,4.0,4.0,298.3956690000013,4.0,1.0,phase_1,,,,,,,,,,,,,magenta,cross
1316.0,4.0,4.0,0.0,4.0,4.0,285.3492149999965,4.0,1.0,phase_1,,,,,,,,,,,,,orange,flipped triangle
172.0,1.0,1.0,0.0,1.0,1.0,540.0310400000308,4.0,1.0,phase_1,,,,,,,,,,,,,blue,square
313.0,6.0,2.0,1.0,4.0,4.0,319.3935429999328,4.0,1.0,phase_1,,,,,,,,,,,,,white,triangle
646.0,3.0,3.0,0.0,3.0,3.0,499.6690820000822,4.0,1.0,phase_1,,,,,,,,,,,,,gray,circle
342.0,2.0,2.0,0.0,3.0,3.0,384.0651660000276,4.0,1.0,phase_1,,,,,,,,,,,,,magenta,cross
646.0,3.0,3.0,0.0,3.0,3.0,332.9599219998727,4.0,1.0,phase_1,,,,,,,,,,,,,gray,circle
325.0,2.0,2.0,0.0,1.0,1.0,294.2942580000363,4.0,2.0,phase_1,,,,,,,,,,,,,magenta,cross
0.0,5.0,0.0,1.0,2.0,2.0,546.3651460001984,4.0,1.0,phase_1,,,,,,,,,,,,,yellow,I
0.0,8.0,0.0,1.0,4.0,4.0,391.912671,4.0,1.0,phase_1,,,,,,,,,,,,,cyan,diamond
669.0,7.0,3.0,1.0,4.0,4.0,280.6723769999735,4.0,2.0,phase_1,,,,,,,,,,,,,green,hexagon
659.0,3.0,3.0,0.0,4.0,4.0,308.5648720000336,4.0,1.0,phase_1,,,,,,,,,,,,,gray,circle
0.0,1.0,0.0,0.0,2.0,2.0,545.0255200000811,4.0,1.0,phase_1,,,,,,,,,,,,,blue,square
146.0,1.0,1.0,0.0,2.0,2.0,349.7552750000068,4.0,1.0,phase_1,,,,,,,,,,,,,blue,square
663.0,7.0,3.0,1.0,3.0,3.0,380.4167789999155,4.0,1.0,phase_1,,,,,,,,,,,,,green,hexagon
182.0,1.0,1.0,0.0,1.0,1.0,309.1686069999468,4.0,2.0,phase_1,,,,,,,,,,,,,blue,square
0.0,7.0,0.0,1.0,4.0,4.0,608.2511560000512,4.0,1.0,phase_1,,,,,,,,,,,,,green,hexagon
315.0,6.0,2.0,1.0,1.0,1.0,404.4764770001166,4.0,1.0,phase_1,,,,,,,,,,,,,white,triangle
0.0,3.0,0.0,0.0,3.0,3.0,419.4987959999707,4.0,1.0,phase_1,,,,,,,,,,,,,gray,circle
646.0,7.0,3.0,1.0,2.0,2.0,512.1196950001377,4.0,1.0,phase_1,,,,,,,,,,,,,green,hexagon
638.0,7.0,3.0,1.0,1.0,1.0,429.055672000004,4.0,1.0,phase_1,,,,,,,,,,,,,green,hexagon
1278.0,4.0,4.0,0.0,1.0,1.0,400.353781999911,4.0,1.0,phase_1,,,,,,,,,,,,,orange,flipped triangle
1315.0,8.0,4.0,1.0,3.0,3.0,478.6389800001416,4.0,1.0,phase_1,,,,,,,,,,,,,cyan,diamond
179.0,1.0,1.0,0.0,3.0,3.0,440.7128319999174,4.0,1.0,phase_1,,,,,,,,,,,,,blue,square
1313.0,8.0,4.0,1.0,4.0,4.0,295.438822000051,4.0,1.0,phase_1,,,,,,,,,,,,,cyan,diamond
653.0,3.0,3.0,0.0,1.0,1.0,849.9379250001766,4.0,1.0,phase_1,,,,,,,,,,,,,gray,circle
630.0,3.0,3.0,0.0,4.0,4.0,366.9242399998893,4.0,1.0,phase_1,,,,,,,,,,,,,gray,circle
308.0,2.0,2.0,0.0,3.0,3.0,403.6163770001622,4.0,1.0,phase_1,,,,,,,,,,,,,magenta,cross
178.0,1.0,1.0,0.0,4.0,4.0,289.836097999796,4.0,1.0,phase_1,,,,,,,,,,,,,blue,square
0.0,4.0,0.0,0.0,2.0,2.0,453.0031580000013,4.0,1.0,phase_1,,,,,,,,,,,,,orange,flipped triangle
0.0,7.0,0.0,1.0,1.0,1.0,386.0580529999424,4.0,1.0,phase_1,,,,,,,,,,,,,green,hexagon
169.0,1.0,1.0,0.0,4.0,4.0,320.5617159999292,4.0,1.0,phase_1,,,,,,,,,,,,,blue,square
151.0,1.0,1.0,0.0,4.0,4.0,330.5629989999943,4.0,1.0,phase_1,,,,,,,,,,,,,blue,square
0.0,5.0,0.0,1.0,1.0,1.0,463.4701179998046,4.0,1.0,phase_1,,,,,,,,,,,,,yellow,I
171.0,1.0,1.0,0.0,4.0,4.0,301.656130000083,4.0,1.0,phase_1,,,,,,,,,,,,,blue,square
1293.0,4.0,4.0,0.0,4.0,4.0,344.5298569999977,4.0,1.0,phase_1,,,,,,,,,,,,,orange,flipped triangle
1307.0,8.0,4.0,1.0,1.0,1.0,326.616242,4.0,1.0,phase_1,,,,,,,,,,,,,cyan,diamond
674.0,7.0,3.0,1.0,1.0,1.0,316.1813090000578,4.0,1.0,phase_1,,,,,,,,,,,,,green,hexagon
178.0,5.0,1.0,1.0,4.0,4.0,382.1971889999531,4.0,1.0,phase_1,,,,,,,,,,,,,yellow,I
335.0,6.0,2.0,1.0,1.0,1.0,306.413134999957,4.0,1.0,phase_1,,,,,,,,,,,,,white,triangle
0.0,3.0,0.0,0.0,1.0,1.0,824.1495280001345,4.0,1.0,phase_1,,,,,,,,,,,,,gray,circle
301.0,6.0,2.0,1.0,2.0,2.0,461.9589609999366,4.0,1.0,phase_1,,,,,,,,,,,,,white,triangle
652.0,7.0,3.0,1.0,4.0,4.0,369.9948539999695,4.0,1.0,phase_1,,,,,,,,,,,,,green,hexagon
659.0,3.0,3.0,0.0,2.0,2.0,608.0418179999469,4.0,1.0,phase_1,,,,,,,,,,,,,gray,circle
0.0,7.0,0.0,1.0,2.0,2.0,490.304708000167,4.0,1.0,phase_1,,,,,,,,,,,,,green,hexagon
0.0,5.0,0.0,1.0,1.0,1.0,430.651988000136,4.0,1.0,phase_1,,,,,,,,,,,,,yellow,I
345.0,2.0,2.0,0.0,2.0,2.0,331.3868259999708,4.0,1.0,phase_1,,,,,,,,,,,,,magenta,cross
176.0,1.0,1.0,0.0,2.0,2.0,305.9101179999288,4.0,1.0,phase_1,,,,,,,,,,,,,blue,square
0.0,1.0,0.0,0.0,4.0,4.0,583.0414929998824,4.0,1.0,phase_1,,,,,,,,,,,,,blue,square
0.0,5.0,0.0,1.0,2.0,2.0,384.6733519999361,4.0,1.0,phase_1,,,,,,,,,,,,,yellow,I
654.0,7.0,3.0,1.0,1.0,1.0,349.5542020000357,4.0,1.0,phase_1,,,,,,,,,,,,,green,hexagon
318.0,6.0,2.0,1.0,2.0,2.0,386.8030749999889,4.0,1.0,phase_1,,,,,,,,,,,,,white,triangle
0.0,6.0,0.0,1.0,3.0,3.0,375.2455950000239,4.0,1.0,phase_1,,,,,,,,,,,,,white,triangle
1287.0,8.0,4.0,1.0,4.0,4.0,414.0112760001102,4.0,1.0,phase_1,,,,,,,,,,,,,cyan,diamond
172.0,5.0,1.0,1.0,4.0,4.0,320.6676190000053,4.0,1.0,phase_1,,,,,,,,,,,,,yellow,I
1279.0,4.0,4.0,0.0,3.0,3.0,349.3077350001385,4.0,1.0,phase_1,,,,,,,,,,,,,orange,flipped triangle
342.0,6.0,2.0,1.0,3.0,3.0,321.3377209999635,4.0,1.0,phase_1,,,,,,,,,,,,,white,triangle
1304.0,4.0,4.0,0.0,3.0,3.0,375.1063419999809,4.0,1.0,phase_1,,,,,,,,,,,,,orange,flipped triangle
0.0,3.0,3.0,0.0,6.0,6.0,1078.354408999985,1.0,1.0,phase_2,go,250.0,250.0,1.0,,,,,,,,,gray,circle
0.0,4.0,4.0,0.0,5.0,5.0,893.2405109999308,1.0,1.0,phase_2,go,250.0,250.0,1.0,,,,,,,,,orange,flipped triangle
0.0,7.0,3.0,1.0,6.0,6.0,637.1929319998344,1.0,1.0,phase_2,stop,250.0,250.0,3.0,,,,,,,,,green,hexagon
0.0,2.0,2.0,0.0,5.0,5.0,453.2080950000363,1.0,1.0,phase_2,go,250.0,200.0,1.0,,,,,,,,,magenta,cross
0.0,6.0,2.0,1.0,5.0,0.0,0.0,1.0,1.0,phase_2,stop,250.0,200.0,4.0,,,,,,,,,white,triangle
0.0,3.0,3.0,0.0,6.0,6.0,925.776064000047,1.0,1.0,phase_2,go,300.0,200.0,1.0,,,,,,,,,gray,circle
0.0,7.0,3.0,1.0,6.0,0.0,0.0,1.0,1.0,phase_2,stop,300.0,200.0,4.0,,,,,,,,,green,hexagon
0.0,7.0,3.0,1.0,5.0,0.0,0.0,1.0,1.0,phase_2,stop,300.0,250.0,4.0,,,,,,,,,green,hexagon
0.0,8.0,4.0,1.0,6.0,0.0,0.0,1.0,1.0,phase_2,stop,350.0,250.0,4.0,,,,,,,,,cyan,diamond
0.0,2.0,2.0,0.0,5.0,5.0,881.582582999954,1.0,1.0,phase_2,go,350.0,300.0,1.0,,,,,,,,,magenta,cross
0.0,1.0,1.0,0.0,6.0,6.0,719.5870000000468,1.0,1.0,phase_2,go,350.0,300.0,1.0,,,,,,,,,blue,square
0.0,5.0,1.0,1.0,6.0,6.0,527.1488970001883,1.0,1.0,phase_2,go,350.0,300.0,1.0,,,,,,,,,yellow,I
0.0,3.0,3.0,0.0,6.0,6.0,481.1621939998076,1.0,1.0,phase_2,go,350.0,300.0,1.0,,,,,,,,,gray,circle
0.0,3.0,3.0,0.0,6.0,6.0,432.5699949999944,1.0,1.0,phase_2,go,350.0,300.0,1.0,,,,,,,,,gray,circle
0.0,1.0,1.0,0.0,6.0,6.0,527.3387420002109,1.0,1.0,phase_2,go,350.0,300.0,1.0,,,,,,,,,blue,square
0.0,6.0,2.0,1.0,5.0,0.0,0.0,1.0,1.0,phase_2,stop,350.0,300.0,4.0,,,,,,,,,white,triangle
0.0,3.0,3.0,0.0,6.0,6.0,540.047254000001,1.0,1.0,phase_2,go,400.0,300.0,1.0,,,,,,,,,gray,circle
0.0,4.0,4.0,0.0,6.0,6.0,454.4358400003148,1.0,1.0,phase_2,go,400.0,300.0,1.0,,,,,,,,,orange,flipped triangle
0.0,7.0,3.0,1.0,6.0,0.0,0.0,1.0,1.0,phase_2,stop,400.0,300.0,4.0,,,,,,,,,green,hexagon
0.0,3.0,3.0,0.0,5.0,5.0,629.2961890003426,1.0,1.0,phase_2,go,400.0,350.0,1.0,,,,,,,,,gray,circle
0.0,7.0,3.0,1.0,5.0,0.0,0.0,1.0,1.0,phase_2,stop,400.0,350.0,4.0,,,,,,,,,green,hexagon
0.0,3.0,3.0,0.0,6.0,6.0,627.6412440001877,1.0,1.0,phase_2,go,450.0,350.0,1.0,,,,,,,,,gray,circle
0.0,2.0,2.0,0.0,6.0,6.0,665.7396750001681,1.0,1.0,phase_2,go,450.0,350.0,1.0,,,,,,,,,magenta,cross
0.0,5.0,1.0,1.0,6.0,0.0,0.0,1.0,1.0,phase_2,stop,450.0,350.0,4.0,,,,,,,,,yellow,I
0.0,2.0,2.0,0.0,6.0,6.0,664.8582479997458,1.0,1.0,phase_2,go,450.0,400.0,1.0,,,,,,,,,magenta,cross
0.0,1.0,1.0,0.0,6.0,6.0,583.1249269999716,1.0,1.0,phase_2,go,450.0,400.0,1.0,,,,,,,,,blue,square
0.0,3.0,3.0,0.0,6.0,6.0,558.7136419999297,1.0,1.0,phase_2,go,450.0,400.0,1.0,,,,,,,,,gray,circle
0.0,6.0,2.0,1.0,6.0,6.0,494.9571940001078,1.0,1.0,phase_2,stop,450.0,400.0,3.0,,,,,,,,,white,triangle
0.0,6.0,2.0,1.0,5.0,5.0,757.4655539997366,1.0,1.0,phase_2,go,450.0,350.0,1.0,,,,,,,,,white,triangle
0.0,2.0,2.0,0.0,6.0,5.0,822.5267610000628,1.0,1.0,phase_2,go,450.0,350.0,2.0,,,,,,,,,magenta,cross
0.0,6.0,2.0,1.0,6.0,0.0,0.0,1.0,1.0,phase_2,stop,450.0,350.0,4.0,,,,,,,,,white,triangle
0.0,8.0,4.0,1.0,5.0,5.0,1147.8272609997475,1.0,1.0,phase_2,go,450.0,400.0,1.0,,,,,,,,,cyan,diamond
0.0,1.0,1.0,0.0,6.0,6.0,1003.3429009999963,1.0,1.0,phase_2,go,450.0,400.0,1.0,,,,,,,,,blue,square
0.0,4.0,4.0,0.0,5.0,5.0,833.9469580000696,1.0,1.0,phase_2,go,450.0,400.0,1.0,,,,,,,,,orange,flipped triangle
0.0,8.0,4.0,1.0,5.0,0.0,0.0,1.0,1.0,phase_2,stop,450.0,400.0,4.0,,,,,,,,,cyan,diamond
0.0,3.0,3.0,0.0,6.0,6.0,745.4318760001115,1.0,1.0,phase_2,go,500.0,400.0,1.0,,,,,,,,,gray,circle
0.0,4.0,4.0,0.0,5.0,5.0,403.5017869996409,2.0,1.0,phase_2,go,500.0,400.0,1.0,,,,,,,,,orange,flipped triangle
0.0,7.0,3.0,1.0,5.0,5.0,402.6762429998598,2.0,1.0,phase_2,stop,500.0,400.0,3.0,,,,,,,,,green,hexagon
0.0,4.0,4.0,0.0,5.0,5.0,633.7831169998935,2.0,1.0,phase_2,go,450.0,400.0,1.0,,,,,,,,,orange,flipped triangle
0.0,7.0,3.0,1.0,5.0,5.0,602.4352590002309,2.0,1.0,phase_2,go,450.0,400.0,1.0,,,,,,,,,green,hexagon
0.0,2.0,2.0,0.0,5.0,5.0,656.0301730000901,2.0,1.0,phase_2,go,450.0,400.0,1.0,,,,,,,,,magenta,cross
0.0,1.0,1.0,0.0,6.0,6.0,567.839912999716,2.0,1.0,phase_2,go,450.0,400.0,1.0,,,,,,,,,blue,square
0.0,2.0,2.0,0.0,5.0,5.0,327.2337599996717,2.0,1.0,phase_2,go,450.0,400.0,1.0,,,,,,,,,magenta,cross
0.0,7.0,3.0,1.0,5.0,5.0,335.5056430000331,2.0,1.0,phase_2,stop,450.0,400.0,3.0,,,,,,,,,green,hexagon
0.0,8.0,4.0,1.0,6.0,6.0,302.2909050000635,2.0,1.0,phase_2,stop,400.0,400.0,3.0,,,,,,,,,cyan,diamond
0.0,6.0,2.0,1.0,6.0,0.0,0.0,2.0,1.0,phase_2,stop,400.0,350.0,4.0,,,,,,,,,white,triangle
0.0,1.0,1.0,0.0,5.0,5.0,715.7278119998409,2.0,1.0,phase_2,go,400.0,400.0,1.0,,,,,,,,,blue,square
0.0,1.0,1.0,0.0,6.0,6.0,987.8159029999553,2.0,1.0,phase_2,go,400.0,400.0,1.0,,,,,,,,,blue,square
0.0,2.0,2.0,0.0,6.0,6.0,588.1379300003573,2.0,1.0,phase_2,go,400.0,400.0,1.0,,,,,,,,,magenta,cross
0.0,3.0,3.0,0.0,6.0,6.0,370.9010799998395,2.0,1.0,phase_2,go,400.0,400.0,1.0,,,,,,,,,gray,circle
0.0,1.0,1.0,0.0,5.0,5.0,569.1708179997477,2.0,1.0,phase_2,go,400.0,400.0,1.0,,,,,,,,,blue,square
0.0,6.0,2.0,1.0,5.0,5.0,370.7711860001836,2.0,1.0,phase_2,stop,400.0,400.0,3.0,,,,,,,,,white,triangle
0.0,1.0,1.0,0.0,5.0,5.0,568.7890109998079,2.0,1.0,phase_2,go,350.0,400.0,1.0,,,,,,,,,blue,square
0.0,3.0,3.0,0.0,5.0,5.0,585.1857339998787,2.0,1.0,phase_2,go,350.0,400.0,1.0,,,,,,,,,gray,circle
0.0,6.0,2.0,1.0,6.0,6.0,488.7990120000722,2.0,1.0,phase_2,stop,350.0,400.0,3.0,,,,,,,,,white,triangle
0.0,3.0,3.0,0.0,5.0,5.0,536.71859699989,2.0,1.0,phase_2,go,350.0,350.0,1.0,,,,,,,,,gray,circle
0.0,5.0,1.0,1.0,6.0,6.0,446.6900340003121,2.0,1.0,phase_2,stop,350.0,350.0,3.0,,,,,,,,,yellow,I
0.0,3.0,3.0,0.0,5.0,5.0,318.4049360002063,2.0,1.0,phase_2,go,350.0,300.0,1.0,,,,,,,,,gray,circle
0.0,3.0,3.0,0.0,6.0,6.0,653.192375999879,2.0,1.0,phase_2,go,350.0,300.0,1.0,,,,,,,,,gray,circle
0.0,1.0,1.0,0.0,6.0,6.0,774.2302459996608,2.0,1.0,phase_2,go,350.0,300.0,1.0,,,,,,,,,blue,square
0.0,4.0,4.0,0.0,6.0,6.0,549.7124530002111,2.0,1.0,phase_2,go,350.0,300.0,1.0,,,,,,,,,orange,flipped triangle
0.0,5.0,1.0,1.0,5.0,5.0,276.723277000201,2.0,1.0,phase_2,stop,350.0,300.0,3.0,,,,,,,,,yellow,I
0.0,7.0,3.0,1.0,5.0,0.0,0.0,2.0,1.0,phase_2,stop,300.0,300.0,4.0,,,,,,,,,green,hexagon
0.0,8.0,4.0,1.0,6.0,0.0,0.0,2.0,1.0,phase_2,stop,350.0,300.0,4.0,,,,,,,,,cyan,diamond
0.0,1.0,1.0,0.0,5.0,5.0,1097.88798999989,2.0,1.0,phase_2,go,350.0,350.0,1.0,,,,,,,,,blue,square
0.0,1.0,1.0,0.0,6.0,6.0,568.4092359997521,2.0,1.0,phase_2,go,350.0,350.0,1.0,,,,,,,,,blue,square
0.0,2.0,2.0,0.0,6.0,6.0,601.3188420001825,2.0,1.0,phase_2,go,350.0,350.0,1.0,,,,,,,,,magenta,cross
0.0,8.0,4.0,1.0,6.0,6.0,783.1424139999399,2.0,1.0,phase_2,go,350.0,350.0,1.0,,,,,,,,,cyan,diamond
0.0,8.0,4.0,1.0,5.0,0.0,0.0,2.0,1.0,phase_2,stop,350.0,350.0,4.0,,,,,,,,,cyan,diamond
0.0,2.0,2.0,0.0,5.0,5.0,744.1572949996953,2.0,1.0,phase_2,go,400.0,350.0,1.0,,,,,,,,,magenta,cross
0.0,8.0,4.0,1.0,5.0,0.0,0.0,2.0,1.0,phase_2,stop,400.0,350.0,4.0,,,,,,,,,cyan,diamond
0.0,4.0,4.0,0.0,6.0,6.0,750.8028209999793,2.0,1.0,phase_2,go,450.0,350.0,1.0,,,,,,,,,orange,flipped triangle
0.0,8.0,4.0,1.0,5.0,5.0,759.4181320000644,3.0,1.0,phase_2,stop,450.0,350.0,3.0,,,,,,,,,cyan,diamond
0.0,4.0,4.0,0.0,5.0,5.0,656.8906759998754,3.0,1.0,phase_2,go,400.0,350.0,1.0,,,,,,,,,orange,flipped triangle
0.0,8.0,4.0,1.0,6.0,6.0,551.1810839998361,3.0,1.0,phase_2,go,400.0,350.0,1.0,,,,,,,,,cyan,diamond
0.0,2.0,2.0,0.0,5.0,5.0,535.6066069998633,3.0,1.0,phase_2,go,400.0,350.0,1.0,,,,,,,,,magenta,cross
0.0,3.0,3.0,0.0,6.0,6.0,637.8938500001823,3.0,1.0,phase_2,go,400.0,350.0,1.0,,,,,,,,,gray,circle
0.0,1.0,1.0,0.0,6.0,6.0,533.085562999986,3.0,1.0,phase_2,go,400.0,350.0,1.0,,,,,,,,,blue,square
0.0,2.0,2.0,0.0,5.0,5.0,523.4139789999972,3.0,1.0,phase_2,go,400.0,350.0,1.0,,,,,,,,,magenta,cross
0.0,3.0,3.0,0.0,5.0,5.0,701.0414599999422,3.0,1.0,phase_2,go,400.0,350.0,1.0,,,,,,,,,gray,circle
0.0,6.0,2.0,1.0,6.0,0.0,0.0,3.0,1.0,phase_2,stop,400.0,350.0,4.0,,,,,,,,,white,triangle
0.0,2.0,2.0,0.0,6.0,6.0,627.9161299999032,3.0,1.0,phase_2,go,400.0,400.0,1.0,,,,,,,,,magenta,cross
0.0,5.0,1.0,1.0,6.0,0.0,0.0,3.0,1.0,phase_2,stop,400.0,400.0,4.0,,,,,,,,,yellow,I
0.0,2.0,2.0,0.0,6.0,6.0,728.4613500000887,3.0,1.0,phase_2,go,400.0,450.0,1.0,,,,,,,,,magenta,cross
0.0,8.0,4.0,1.0,6.0,0.0,0.0,3.0,1.0,phase_2,stop,400.0,450.0,4.0,,,,,,,,,cyan,diamond
0.0,5.0,1.0,1.0,5.0,0.0,0.0,3.0,1.0,phase_2,stop,400.0,500.0,4.0,,,,,,,,,yellow,I
0.0,8.0,4.0,1.0,6.0,0.0,0.0,3.0,1.0,phase_2,stop,450.0,500.0,4.0,,,,,,,,,cyan,diamond
0.0,4.0,4.0,0.0,5.0,5.0,1398.1286700000055,3.0,1.0,phase_2,go,450.0,550.0,1.0,,,,,,,,,orange,flipped triangle
0.0,6.0,2.0,1.0,6.0,0.0,0.0,3.0,1.0,phase_2,stop,450.0,550.0,4.0,,,,,,,,,white,triangle
0.0,6.0,2.0,1.0,6.0,0.0,0.0,3.0,1.0,phase_2,stop,450.0,600.0,4.0,,,,,,,,,white,triangle
0.0,1.0,1.0,0.0,6.0,6.0,894.4116710003982,3.0,1.0,phase_2,go,450.0,650.0,1.0,,,,,,,,,blue,square
0.0,7.0,3.0,1.0,6.0,6.0,1124.941726999623,3.0,1.0,phase_2,go,450.0,650.0,1.0,,,,,,,,,green,hexagon
0.0,1.0,1.0,0.0,6.0,6.0,907.0686370000658,3.0,1.0,phase_2,go,450.0,650.0,1.0,,,,,,,,,blue,square
0.0,2.0,2.0,0.0,5.0,5.0,964.1723109998566,3.0,1.0,phase_2,go,450.0,650.0,1.0,,,,,,,,,magenta,cross
0.0,2.0,2.0,0.0,6.0,6.0,699.845089000064,3.0,1.0,phase_2,go,450.0,650.0,1.0,,,,,,,,,magenta,cross
0.0,7.0,3.0,1.0,5.0,5.0,528.2950559999335,3.0,1.0,phase_2,stop,450.0,650.0,3.0,,,,,,,,,green,hexagon
0.0,5.0,1.0,1.0,5.0,5.0,369.594811999832,3.0,1.0,phase_2,stop,400.0,650.0,3.0,,,,,,,,,yellow,I
0.0,4.0,4.0,0.0,5.0,5.0,1025.2302300000338,3.0,1.0,phase_2,go,350.0,650.0,1.0,,,,,,,,,orange,flipped triangle
0.0,5.0,1.0,1.0,5.0,0.0,0.0,3.0,1.0,phase_2,stop,350.0,650.0,4.0,,,,,,,,,yellow,I
0.0,3.0,3.0,0.0,6.0,6.0,544.7423860000526,3.0,1.0,phase_2,go,400.0,650.0,1.0,,,,,,,,,gray,circle
0.0,8.0,4.0,1.0,6.0,6.0,495.6573569997999,3.0,1.0,phase_2,stop,400.0,650.0,3.0,,,,,,,,,cyan,diamond
0.0,4.0,4.0,0.0,6.0,6.0,772.7485519999391,3.0,1.0,phase_2,go,400.0,600.0,1.0,,,,,,,,,orange,flipped triangle
0.0,8.0,4.0,1.0,6.0,0.0,0.0,3.0,1.0,phase_2,stop,400.0,600.0,4.0,,,,,,,,,cyan,diamond
0.0,3.0,3.0,0.0,6.0,6.0,797.3350490001394,3.0,1.0,phase_2,go,400.0,650.0,1.0,,,,,,,,,gray,circle
0.0,3.0,3.0,0.0,5.0,5.0,916.9306809999398,3.0,1.0,phase_2,go,400.0,650.0,1.0,,,,,,,,,gray,circle
0.0,3.0,3.0,0.0,5.0,5.0,674.3446840000615,3.0,1.0,phase_2,go,400.0,650.0,1.0,,,,,,,,,gray,circle
0.0,6.0,2.0,1.0,5.0,5.0,723.6561009999605,3.0,1.0,phase_2,go,400.0,650.0,1.0,,,,,,,,,white,triangle
0.0,6.0,2.0,1.0,6.0,6.0,720.8739039997454,3.0,1.0,phase_2,stop,400.0,650.0,3.0,,,,,,,,,white,triangle
0.0,6.0,2.0,1.0,5.0,5.0,1295.0889550002105,4.0,1.0,phase_2,go,400.0,600.0,1.0,,,,,,,,,white,triangle
0.0,2.0,2.0,0.0,6.0,6.0,254.85782399982781,4.0,1.0,phase_2,go,400.0,600.0,1.0,,,,,,,,,magenta,cross
0.0,1.0,1.0,0.0,5.0,5.0,311.2517970002955,4.0,1.0,phase_2,go,400.0,600.0,1.0,,,,,,,,,blue,square
0.0,8.0,4.0,1.0,5.0,5.0,254.04582800001663,4.0,1.0,phase_2,stop,400.0,600.0,3.0,,,,,,,,,cyan,diamond
0.0,4.0,4.0,0.0,6.0,6.0,277.1118350001416,4.0,1.0,phase_2,go,350.0,600.0,1.0,,,,,,,,,orange,flipped triangle
0.0,8.0,4.0,1.0,5.0,5.0,369.5809499999996,4.0,1.0,phase_2,stop,350.0,600.0,3.0,,,,,,,,,cyan,diamond
0.0,8.0,4.0,1.0,5.0,5.0,356.8524590000379,4.0,1.0,phase_2,stop,300.0,600.0,3.0,,,,,,,,,cyan,diamond
0.0,4.0,4.0,0.0,5.0,5.0,516.0094289999506,4.0,1.0,phase_2,go,250.0,600.0,1.0,,,,,,,,,orange,flipped triangle
0.0,3.0,3.0,0.0,6.0,6.0,354.0294379999977,4.0,1.0,phase_2,go,250.0,600.0,1.0,,,,,,,,,gray,circle
0.0,6.0,2.0,1.0,5.0,5.0,314.1540470001018,4.0,1.0,phase_2,stop,250.0,600.0,3.0,,,,,,,,,white,triangle
0.0,6.0,2.0,1.0,6.0,6.0,490.4043370002,4.0,1.0,phase_2,go,200.0,600.0,1.0,,,,,,,,,white,triangle
0.0,5.0,1.0,1.0,6.0,6.0,594.2577980003989,4.0,1.0,phase_2,stop,200.0,600.0,3.0,,,,,,,,,yellow,I
0.0,1.0,1.0,0.0,5.0,5.0,705.5103749999034,4.0,1.0,phase_2,go,200.0,550.0,1.0,,,,,,,,,blue,square
0.0,1.0,1.0,0.0,6.0,6.0,694.6641229997113,4.0,1.0,phase_2,go,200.0,550.0,1.0,,,,,,,,,blue,square
0.0,7.0,3.0,1.0,5.0,5.0,765.8550759997524,4.0,1.0,phase_2,stop,200.0,550.0,3.0,,,,,,,,,green,hexagon
0.0,2.0,2.0,0.0,5.0,5.0,560.1336100003209,4.0,1.0,phase_2,go,150.0,550.0,1.0,,,,,,,,,magenta,cross
0.0,6.0,2.0,1.0,6.0,6.0,573.8436679998813,4.0,1.0,phase_2,stop,150.0,550.0,3.0,,,,,,,,,white,triangle
0.0,3.0,3.0,0.0,5.0,5.0,549.4934380003542,4.0,1.0,phase_2,go,150.0,500.0,1.0,,,,,,,,,gray,circle
0.0,5.0,1.0,1.0,5.0,5.0,292.7628429997639,4.0,1.0,phase_2,go,150.0,500.0,1.0,,,,,,,,,yellow,I
0.0,7.0,3.0,1.0,5.0,0.0,0.0,4.0,1.0,phase_2,stop,150.0,500.0,4.0,,,,,,,,,green,hexagon
0.0,3.0,3.0,0.0,5.0,5.0,677.3244889996022,4.0,1.0,phase_2,go,200.0,500.0,1.0,,,,,,,,,gray,circle
0.0,3.0,3.0,0.0,5.0,5.0,353.7375159999101,4.0,1.0,phase_2,go,200.0,500.0,1.0,,,,,,,,,gray,circle
0.0,2.0,2.0,0.0,5.0,5.0,400.7736219996332,4.0,1.0,phase_2,go,200.0,500.0,1.0,,,,,,,,,magenta,cross
0.0,8.0,4.0,1.0,5.0,5.0,537.8004809999766,4.0,1.0,phase_2,go,200.0,500.0,1.0,,,,,,,,,cyan,diamond
0.0,4.0,4.0,0.0,6.0,6.0,370.1411850001932,4.0,1.0,phase_2,go,200.0,500.0,1.0,,,,,,,,,orange,flipped triangle
0.0,7.0,3.0,1.0,5.0,5.0,352.1799720001581,4.0,1.0,phase_2,stop,200.0,500.0,3.0,,,,,,,,,green,hexagon
0.0,7.0,3.0,1.0,5.0,0.0,0.0,4.0,1.0,phase_2,stop,150.0,500.0,4.0,,,,,,,,,green,hexagon
0.0,1.0,1.0,0.0,5.0,5.0,703.109590999702,4.0,1.0,phase_2,go,200.0,500.0,1.0,,,,,,,,,blue,square
0.0,5.0,1.0,1.0,5.0,5.0,365.429474999928,4.0,1.0,phase_2,stop,200.0,500.0,3.0,,,,,,,,,yellow,I
0.0,1.0,1.0,0.0,5.0,5.0,612.4190590003309,4.0,1.0,phase_2,go,150.0,500.0,1.0,,,,,,,,,blue,square
0.0,1.0,1.0,0.0,6.0,6.0,387.2186359999432,4.0,1.0,phase_2,go,150.0,500.0,1.0,,,,,,,,,blue,square
0.0,2.0,2.0,0.0,6.0,6.0,452.8373480002301,4.0,1.0,phase_2,go,150.0,500.0,1.0,,,,,,,,,magenta,cross
0.0,1.0,1.0,0.0,5.0,5.0,341.1743419997037,4.0,1.0,phase_2,go,150.0,500.0,1.0,,,,,,,,,blue,square
0.0,3.0,3.0,0.0,6.0,6.0,363.8874539997232,4.0,1.0,phase_2,go,150.0,500.0,1.0,,,,,,,,,gray,circle
0.0,2.0,2.0,0.0,6.0,6.0,291.0767410003245,4.0,1.0,phase_2,go,150.0,500.0,1.0,,,,,,,,,magenta,cross
0.0,5.0,1.0,1.0,6.0,6.0,241.7017729999315,4.0,1.0,phase_2,stop,150.0,500.0,3.0,,,,,,,,,yellow,I
0.0,4.0,4.0,0.0,5.0,5.0,388.3682939999744,5.0,1.0,phase_2,go,150.0,450.0,1.0,,,,,,,,,orange,flipped triangle
0.0,1.0,1.0,0.0,5.0,5.0,285.0509569998394,5.0,1.0,phase_2,go,150.0,450.0,1.0,,,,,,,,,blue,square
0.0,4.0,4.0,0.0,5.0,5.0,258.3652020002773,5.0,1.0,phase_2,go,150.0,450.0,1.0,,,,,,,,,orange,flipped triangle
0.0,4.0,4.0,0.0,5.0,5.0,276.415093000196,5.0,1.0,phase_2,go,150.0,450.0,1.0,,,,,,,,,orange,flipped triangle
0.0,4.0,4.0,0.0,6.0,6.0,378.1605089998265,5.0,1.0,phase_2,go,150.0,450.0,1.0,,,,,,,,,orange,flipped triangle
0.0,7.0,3.0,1.0,6.0,6.0,305.8174970001346,5.0,1.0,phase_2,stop,150.0,450.0,3.0,,,,,,,,,green,hexagon
0.0,6.0,2.0,1.0,5.0,5.0,304.6280250000563,5.0,1.0,phase_2,go,150.0,400.0,1.0,,,,,,,,,white,triangle
0.0,7.0,3.0,1.0,6.0,6.0,519.308841000111,5.0,1.0,phase_2,go,150.0,400.0,1.0,,,,,,,,,green,hexagon
0.0,3.0,3.0,0.0,6.0,6.0,550.8303990000059,5.0,1.0,phase_2,go,150.0,400.0,1.0,,,,,,,,,gray,circle
0.0,1.0,1.0,0.0,5.0,5.0,240.2609549999397,5.0,1.0,phase_2,go,150.0,400.0,1.0,,,,,,,,,blue,square
0.0,7.0,3.0,1.0,6.0,6.0,311.8390280001222,5.0,1.0,phase_2,stop,150.0,400.0,3.0,,,,,,,,,green,hexagon
0.0,8.0,4.0,1.0,5.0,5.0,295.7994779999353,5.0,1.0,phase_2,stop,150.0,350.0,3.0,,,,,,,,,cyan,diamond
0.0,1.0,1.0,0.0,5.0,5.0,462.3978479999096,5.0,1.0,phase_2,go,100.0,350.0,1.0,,,,,,,,,blue,square
0.0,8.0,4.0,1.0,5.0,5.0,356.3549360001161,5.0,1.0,phase_2,stop,100.0,350.0,3.0,,,,,,,,,cyan,diamond
0.0,4.0,4.0,0.0,5.0,5.0,612.8946759999963,5.0,1.0,phase_2,go,50.0,350.0,1.0,,,,,,,,,orange,flipped triangle
0.0,2.0,2.0,0.0,5.0,5.0,554.1789849999077,5.0,1.0,phase_2,go,50.0,350.0,1.0,,,,,,,,,magenta,cross
0.0,6.0,2.0,1.0,6.0,6.0,428.6980960000619,5.0,1.0,phase_2,stop,50.0,350.0,3.0,,,,,,,,,white,triangle
0.0,6.0,2.0,1.0,5.0,0.0,0.0,5.0,1.0,phase_2,stop,50.0,300.0,4.0,,,,,,,,,white,triangle
0.0,3.0,3.0,0.0,6.0,6.0,746.1484549999113,5.0,1.0,phase_2,go,100.0,300.0,1.0,,,,,,,,,gray,circle
0.0,8.0,4.0,1.0,6.0,0.0,0.0,5.0,1.0,phase_2,stop,100.0,300.0,4.0,,,,,,,,,cyan,diamond
0.0,5.0,1.0,1.0,6.0,0.0,0.0,5.0,1.0,phase_2,stop,100.0,350.0,4.0,,,,,,,,,yellow,I
0.0,7.0,3.0,1.0,6.0,0.0,0.0,5.0,1.0,phase_2,stop,100.0,400.0,4.0,,,,,,,,,green,hexagon
0.0,7.0,3.0,1.0,5.0,5.0,534.7741570003564,5.0,1.0,phase_2,go,100.0,450.0,1.0,,,,,,,,,green,hexagon
0.0,7.0,3.0,1.0,5.0,0.0,0.0,5.0,1.0,phase_2,stop,100.0,450.0,4.0,,,,,,,,,green,hexagon
0.0,8.0,4.0,1.0,6.0,0.0,0.0,5.0,1.0,phase_2,stop,150.0,450.0,4.0,,,,,,,,,cyan,diamond
0.0,2.0,2.0,0.0,5.0,5.0,661.4364369997929,5.0,1.0,phase_2,go,150.0,500.0,1.0,,,,,,,,,magenta,cross
0.0,5.0,1.0,1.0,5.0,0.0,0.0,5.0,1.0,phase_2,stop,150.0,500.0,4.0,,,,,,,,,yellow,I
0.0,3.0,3.0,0.0,5.0,5.0,565.960573999746,5.0,1.0,phase_2,go,200.0,500.0,1.0,,,,,,,,,gray,circle
0.0,4.0,4.0,0.0,5.0,5.0,418.2242760002737,5.0,1.0,phase_2,go,200.0,500.0,1.0,,,,,,,,,orange,flipped triangle
0.0,8.0,4.0,1.0,6.0,6.0,596.3243340002009,5.0,1.0,phase_2,stop,200.0,500.0,3.0,,,,,,,,,cyan,diamond
0.0,7.0,3.0,1.0,6.0,0.0,0.0,5.0,1.0,phase_2,stop,200.0,450.0,4.0,,,,,,,,,green,hexagon
0.0,4.0,4.0,0.0,6.0,6.0,1016.8693189998519,5.0,1.0,phase_2,go,200.0,500.0,1.0,,,,,,,,,orange,flipped triangle
0.0,8.0,4.0,1.0,5.0,0.0,0.0,5.0,1.0,phase_2,stop,200.0,500.0,4.0,,,,,,,,,cyan,diamond
0.0,6.0,2.0,1.0,6.0,6.0,497.7883440001278,5.0,1.0,phase_2,stop,250.0,500.0,3.0,,,,,,,,,white,triangle
0.0,2.0,2.0,0.0,6.0,6.0,920.9525440001016,5.0,1.0,phase_2,go,250.0,450.0,1.0,,,,,,,,,magenta,cross
0.0,3.0,3.0,0.0,6.0,6.0,727.3798310002348,5.0,1.0,phase_2,go,250.0,450.0,1.0,,,,,,,,,gray,circle
0.0,1.0,1.0,0.0,5.0,5.0,534.2975280000246,6.0,1.0,phase_2,go,250.0,450.0,1.0,,,,,,,,,blue,square
0.0,7.0,3.0,1.0,5.0,5.0,397.1135840001807,6.0,1.0,phase_2,stop,250.0,450.0,3.0,,,,,,,,,green,hexagon
0.0,7.0,3.0,1.0,6.0,6.0,573.76006100003,6.0,1.0,phase_2,stop,200.0,450.0,3.0,,,,,,,,,green,hexagon
0.0,1.0,1.0,0.0,6.0,6.0,722.9491630000666,6.0,1.0,phase_2,go,200.0,400.0,1.0,,,,,,,,,blue,square
0.0,3.0,3.0,0.0,5.0,5.0,570.2370979997795,6.0,1.0,phase_2,go,200.0,400.0,1.0,,,,,,,,,gray,circle
0.0,8.0,4.0,1.0,6.0,6.0,385.8359759997256,6.0,1.0,phase_2,stop,200.0,400.0,3.0,,,,,,,,,cyan,diamond
0.0,7.0,3.0,1.0,6.0,0.0,0.0,6.0,1.0,phase_2,stop,200.0,350.0,4.0,,,,,,,,,green,hexagon
0.0,6.0,2.0,1.0,5.0,0.0,0.0,6.0,1.0,phase_2,stop,200.0,400.0,4.0,,,,,,,,,white,triangle
0.0,7.0,3.0,1.0,6.0,6.0,911.8217240002195,6.0,1.0,phase_2,go,250.0,400.0,1.0,,,,,,,,,green,hexagon
0.0,6.0,2.0,1.0,6.0,0.0,0.0,6.0,1.0,phase_2,stop,250.0,400.0,4.0,,,,,,,,,white,triangle
0.0,3.0,3.0,0.0,5.0,5.0,743.4150740000405,6.0,1.0,phase_2,go,250.0,450.0,1.0,,,,,,,,,gray,circle
0.0,3.0,3.0,0.0,5.0,5.0,784.865136999997,6.0,1.0,phase_2,go,250.0,450.0,1.0,,,,,,,,,gray,circle
0.0,6.0,2.0,1.0,6.0,6.0,871.5200460001142,6.0,1.0,phase_2,go,250.0,450.0,1.0,,,,,,,,,white,triangle
0.0,5.0,1.0,1.0,6.0,0.0,0.0,6.0,1.0,phase_2,stop,250.0,450.0,4.0,,,,,,,,,yellow,I
0.0,8.0,4.0,1.0,6.0,6.0,822.2673899999791,6.0,1.0,phase_2,go,250.0,500.0,1.0,,,,,,,,,cyan,diamond
0.0,8.0,4.0,1.0,5.0,5.0,797.6728500002537,6.0,1.0,phase_2,go,250.0,500.0,1.0,,,,,,,,,cyan,diamond
0.0,7.0,3.0,1.0,6.0,6.0,676.6113250000672,6.0,1.0,phase_2,go,250.0,500.0,1.0,,,,,,,,,green,hexagon
0.0,8.0,4.0,1.0,6.0,6.0,498.648735000188,6.0,1.0,phase_2,go,250.0,500.0,1.0,,,,,,,,,cyan,diamond
0.0,8.0,4.0,1.0,5.0,5.0,297.765876000085,6.0,1.0,phase_2,go,250.0,500.0,1.0,,,,,,,,,cyan,diamond
0.0,5.0,1.0,1.0,5.0,5.0,306.4014349997705,6.0,1.0,phase_2,stop,250.0,500.0,3.0,,,,,,,,,yellow,I
0.0,4.0,4.0,0.0,6.0,6.0,603.0446959998699,6.0,1.0,phase_2,go,200.0,500.0,1.0,,,,,,,,,orange,flipped triangle
0.0,4.0,4.0,0.0,6.0,6.0,296.8583269998817,6.0,1.0,phase_2,go,200.0,500.0,1.0,,,,,,,,,orange,flipped triangle
0.0,7.0,3.0,1.0,6.0,6.0,546.252411000296,6.0,1.0,phase_2,stop,200.0,500.0,3.0,,,,,,,,,green,hexagon
0.0,8.0,4.0,1.0,5.0,0.0,0.0,6.0,1.0,phase_2,stop,200.0,450.0,4.0,,,,,,,,,cyan,diamond
0.0,1.0,1.0,0.0,5.0,5.0,624.832289999631,6.0,1.0,phase_2,go,250.0,450.0,1.0,,,,,,,,,blue,square
0.0,5.0,1.0,1.0,5.0,5.0,262.9134149997298,6.0,1.0,phase_2,go,250.0,450.0,1.0,,,,,,,,,yellow,I
0.0,2.0,2.0,0.0,6.0,6.0,444.4736209998154,6.0,1.0,phase_2,go,250.0,450.0,1.0,,,,,,,,,magenta,cross
0.0,2.0,2.0,0.0,5.0,5.0,364.9197579998144,6.0,1.0,phase_2,go,250.0,450.0,1.0,,,,,,,,,magenta,cross
0.0,7.0,3.0,1.0,5.0,5.0,245.163199000217,6.0,1.0,phase_2,stop,250.0,450.0,3.0,,,,,,,,,green,hexagon
0.0,2.0,2.0,0.0,6.0,6.0,261.1882900000637,6.0,1.0,phase_2,go,200.0,450.0,1.0,,,,,,,,,magenta,cross
0.0,1.0,1.0,0.0,6.0,6.0,394.0024690000427,6.0,1.0,phase_2,go,200.0,450.0,1.0,,,,,,,,,blue,square
0.0,8.0,4.0,1.0,6.0,6.0,337.4683130000449,6.0,1.0,phase_2,stop,200.0,450.0,3.0,,,,,,,,,cyan,diamond
0.0,1.0,1.0,0.0,5.0,5.0,609.5336529997439,6.0,1.0,phase_2,go,200.0,400.0,1.0,,,,,,,,,blue,square
0.0,7.0,3.0,1.0,6.0,6.0,465.6137609999859,6.0,1.0,phase_2,go,200.0,400.0,1.0,,,,,,,,,green,hexagon
0.0,5.0,1.0,1.0,5.0,0.0,0.0,6.0,1.0,phase_2,stop,200.0,400.0,4.0,,,,,,,,,yellow,I
0.0,8.0,4.0,1.0,5.0,5.0,423.0267949997142,6.0,1.0,phase_2,stop,250.0,400.0,3.0,,,,,,,,,cyan,diamond
0.0,2.0,2.0,0.0,6.0,0.0,0.0,7.0,1.0,phase_2,go,200.0,400.0,5.0,,,,,,,,,magenta,cross
0.0,4.0,4.0,0.0,6.0,6.0,403.9734689999932,7.0,1.0,phase_2,go,200.0,400.0,1.0,,,,,,,,,orange,flipped triangle
0.0,4.0,4.0,0.0,5.0,5.0,324.279406000187,7.0,1.0,phase_2,go,200.0,400.0,1.0,,,,,,,,,orange,flipped triangle
0.0,6.0,2.0,1.0,6.0,6.0,354.8097890002282,7.0,1.0,phase_2,go,200.0,400.0,1.0,,,,,,,,,white,triangle
0.0,6.0,2.0,1.0,6.0,6.0,281.4856840000175,7.0,1.0,phase_2,stop,200.0,400.0,3.0,,,,,,,,,white,triangle
0.0,1.0,1.0,0.0,6.0,6.0,354.5605350000187,7.0,1.0,phase_2,go,200.0,350.0,1.0,,,,,,,,,blue,square
0.0,1.0,1.0,0.0,5.0,5.0,305.5796630001168,7.0,1.0,phase_2,go,200.0,350.0,1.0,,,,,,,,,blue,square
0.0,8.0,4.0,1.0,5.0,5.0,265.9215829999084,7.0,1.0,phase_2,stop,200.0,350.0,3.0,,,,,,,,,cyan,diamond
0.0,5.0,1.0,1.0,5.0,5.0,481.8080469999586,7.0,1.0,phase_2,go,150.0,350.0,1.0,,,,,,,,,yellow,I
0.0,3.0,3.0,0.0,5.0,5.0,369.1773380000995,7.0,1.0,phase_2,go,150.0,350.0,1.0,,,,,,,,,gray,circle
0.0,5.0,1.0,1.0,5.0,0.0,0.0,7.0,1.0,phase_2,stop,150.0,350.0,4.0,,,,,,,,,yellow,I
0.0,5.0,1.0,1.0,6.0,6.0,429.2018940000162,7.0,1.0,phase_2,stop,200.0,350.0,3.0,,,,,,,,,yellow,I
0.0,2.0,2.0,0.0,6.0,6.0,772.3976859997492,7.0,1.0,phase_2,go,200.0,300.0,1.0,,,,,,,,,magenta,cross
0.0,4.0,4.0,0.0,5.0,5.0,822.4149650000072,7.0,1.0,phase_2,go,200.0,300.0,1.0,,,,,,,,,orange,flipped triangle
0.0,5.0,1.0,1.0,6.0,0.0,0.0,7.0,1.0,phase_2,stop,200.0,300.0,4.0,,,,,,,,,yellow,I
0.0,1.0,1.0,0.0,6.0,6.0,611.661045999881,7.0,1.0,phase_2,go,200.0,350.0,1.0,,,,,,,,,blue,square
0.0,5.0,1.0,1.0,6.0,0.0,0.0,7.0,1.0,phase_2,stop,200.0,350.0,4.0,,,,,,,,,yellow,I
0.0,5.0,1.0,1.0,5.0,0.0,0.0,7.0,1.0,phase_2,stop,200.0,400.0,4.0,,,,,,,,,yellow,I
0.0,2.0,2.0,0.0,5.0,5.0,755.0945589996445,7.0,1.0,phase_2,go,250.0,400.0,1.0,,,,,,,,,magenta,cross
0.0,6.0,2.0,1.0,5.0,0.0,0.0,7.0,1.0,phase_2,stop,250.0,400.0,4.0,,,,,,,,,white,triangle
0.0,5.0,1.0,1.0,6.0,0.0,0.0,7.0,1.0,phase_2,stop,300.0,400.0,4.0,,,,,,,,,yellow,I
0.0,8.0,4.0,1.0,5.0,5.0,968.4518600001866,7.0,1.0,phase_2,go,300.0,450.0,1.0,,,,,,,,,cyan,diamond
0.0,7.0,3.0,1.0,5.0,5.0,1166.5120110001226,7.0,1.0,phase_2,go,300.0,450.0,1.0,,,,,,,,,green,hexagon
0.0,8.0,4.0,1.0,6.0,0.0,0.0,7.0,1.0,phase_2,stop,300.0,450.0,4.0,,,,,,,,,cyan,diamond
0.0,3.0,3.0,0.0,5.0,5.0,317.2202040000229,7.0,1.0,phase_2,go,300.0,500.0,1.0,,,,,,,,,gray,circle
0.0,7.0,3.0,1.0,5.0,5.0,404.6083539997198,7.0,1.0,phase_2,go,300.0,500.0,1.0,,,,,,,,,green,hexagon
0.0,6.0,2.0,1.0,6.0,6.0,443.7518499998987,7.0,1.0,phase_2,stop,300.0,500.0,3.0,,,,,,,,,white,triangle
0.0,5.0,1.0,1.0,6.0,6.0,606.0593709999011,7.0,1.0,phase_2,go,300.0,450.0,1.0,,,,,,,,,yellow,I
0.0,4.0,4.0,0.0,6.0,6.0,580.411206000008,7.0,1.0,phase_2,go,300.0,450.0,1.0,,,,,,,,,orange,flipped triangle
0.0,5.0,1.0,1.0,5.0,5.0,354.3524420001631,7.0,1.0,phase_2,stop,300.0,450.0,3.0,,,,,,,,,yellow,I
0.0,2.0,2.0,0.0,5.0,5.0,483.0179229998066,7.0,1.0,phase_2,go,250.0,450.0,1.0,,,,,,,,,magenta,cross
0.0,2.0,2.0,0.0,6.0,6.0,553.2545300002312,7.0,1.0,phase_2,go,250.0,450.0,1.0,,,,,,,,,magenta,cross
0.0,2.0,2.0,0.0,5.0,5.0,265.4571650000434,7.0,1.0,phase_2,go,250.0,450.0,1.0,,,,,,,,,magenta,cross
0.0,5.0,1.0,1.0,5.0,5.0,344.6316060003482,7.0,1.0,phase_2,go,250.0,450.0,1.0,,,,,,,,,yellow,I
0.0,6.0,2.0,1.0,5.0,5.0,272.1526410000479,7.0,1.0,phase_2,stop,250.0,450.0,3.0,,,,,,,,,white,triangle
0.0,5.0,1.0,1.0,5.0,5.0,289.2912209999849,7.0,1.0,phase_2,stop,200.0,450.0,3.0,,,,,,,,,yellow,I
0.0,5.0,1.0,1.0,5.0,5.0,293.4528069999942,8.0,1.0,phase_2,go,150.0,450.0,1.0,,,,,,,,,yellow,I
0.0,4.0,4.0,0.0,6.0,6.0,332.6194910000595,8.0,1.0,phase_2,go,150.0,450.0,1.0,,,,,,,,,orange,flipped triangle
0.0,7.0,3.0,1.0,6.0,6.0,260.2507040001001,8.0,1.0,phase_2,stop,150.0,450.0,3.0,,,,,,,,,green,hexagon
0.0,6.0,2.0,1.0,5.0,5.0,293.7942660000772,8.0,1.0,phase_2,stop,150.0,400.0,3.0,,,,,,,,,white,triangle
0.0,4.0,4.0,0.0,6.0,6.0,739.4948000001023,8.0,1.0,phase_2,go,100.0,400.0,1.0,,,,,,,,,orange,flipped triangle
0.0,5.0,1.0,1.0,6.0,6.0,393.6048420000588,8.0,1.0,phase_2,go,100.0,400.0,1.0,,,,,,,,,yellow,I
0.0,5.0,1.0,1.0,6.0,6.0,323.8292149999324,8.0,1.0,phase_2,stop,100.0,400.0,3.0,,,,,,,,,yellow,I
0.0,1.0,1.0,0.0,6.0,6.0,363.3796210001492,8.0,1.0,phase_2,go,100.0,350.0,1.0,,,,,,,,,blue,square
0.0,1.0,1.0,0.0,5.0,5.0,344.2602939999233,8.0,1.0,phase_2,go,100.0,350.0,1.0,,,,,,,,,blue,square
0.0,3.0,3.0,0.0,5.0,5.0,287.9673519996686,8.0,1.0,phase_2,go,100.0,350.0,1.0,,,,,,,,,gray,circle
0.0,4.0,4.0,0.0,5.0,5.0,279.1571029997612,8.0,1.0,phase_2,go,100.0,350.0,1.0,,,,,,,,,orange,flipped triangle
0.0,6.0,2.0,1.0,6.0,6.0,392.0201679998172,8.0,1.0,phase_2,stop,100.0,350.0,3.0,,,,,,,,,white,triangle
0.0,6.0,2.0,1.0,5.0,5.0,404.3131809999067,8.0,1.0,phase_2,stop,100.0,300.0,3.0,,,,,,,,,white,triangle
0.0,4.0,4.0,0.0,5.0,5.0,572.1986819999074,8.0,1.0,phase_2,go,50.0,300.0,1.0,,,,,,,,,orange,flipped triangle
0.0,6.0,2.0,1.0,5.0,0.0,0.0,8.0,1.0,phase_2,stop,50.0,300.0,4.0,,,,,,,,,white,triangle
0.0,7.0,3.0,1.0,6.0,0.0,0.0,8.0,1.0,phase_2,stop,100.0,300.0,4.0,,,,,,,,,green,hexagon
0.0,2.0,2.0,0.0,6.0,6.0,1276.86796900025,8.0,1.0,phase_2,go,100.0,350.0,1.0,,,,,,,,,magenta,cross
0.0,2.0,2.0,0.0,5.0,5.0,1179.8348339998483,8.0,1.0,phase_2,go,100.0,350.0,1.0,,,,,,,,,magenta,cross
0.0,8.0,4.0,1.0,6.0,0.0,0.0,8.0,1.0,phase_2,stop,100.0,350.0,4.0,,,,,,,,,cyan,diamond
0.0,2.0,2.0,0.0,5.0,5.0,824.9697070000366,8.0,1.0,phase_2,go,100.0,400.0,1.0,,,,,,,,,magenta,cross
0.0,7.0,3.0,1.0,6.0,0.0,0.0,8.0,1.0,phase_2,stop,100.0,400.0,4.0,,,,,,,,,green,hexagon
0.0,7.0,3.0,1.0,5.0,0.0,0.0,8.0,1.0,phase_2,stop,100.0,450.0,4.0,,,,,,,,,green,hexagon
0.0,4.0,4.0,0.0,6.0,6.0,711.0192510003799,8.0,1.0,phase_2,go,150.0,450.0,1.0,,,,,,,,,orange,flipped triangle
0.0,5.0,1.0,1.0,6.0,0.0,0.0,8.0,1.0,phase_2,stop,150.0,450.0,4.0,,,,,,,,,yellow,I
0.0,6.0,2.0,1.0,5.0,5.0,693.8477889998467,8.0,1.0,phase_2,go,150.0,500.0,1.0,,,,,,,,,white,triangle
0.0,6.0,2.0,1.0,5.0,5.0,679.1160200000377,8.0,1.0,phase_2,go,150.0,500.0,1.0,,,,,,,,,white,triangle
0.0,4.0,4.0,0.0,6.0,6.0,637.2601640000539,8.0,1.0,phase_2,go,150.0,500.0,1.0,,,,,,,,,orange,flipped triangle
0.0,4.0,4.0,0.0,6.0,6.0,699.8260609998397,8.0,1.0,phase_2,go,150.0,500.0,1.0,,,,,,,,,orange,flipped triangle
0.0,5.0,1.0,1.0,6.0,6.0,538.6693450000166,8.0,1.0,phase_2,go,150.0,500.0,1.0,,,,,,,,,yellow,I
0.0,6.0,2.0,1.0,5.0,0.0,0.0,8.0,1.0,phase_2,stop,150.0,500.0,4.0,,,,,,,,,white,triangle
0.0,1.0,1.0,0.0,5.0,5.0,490.6518679999863,8.0,1.0,phase_2,go,200.0,500.0,1.0,,,,,,,,,blue,square
0.0,3.0,3.0,0.0,5.0,5.0,506.0516009998537,8.0,1.0,phase_2,go,200.0,500.0,1.0,,,,,,,,,gray,circle
0.0,5.0,1.0,1.0,6.0,6.0,519.1828219999479,8.0,1.0,phase_2,stop,200.0,500.0,3.0,,,,,,,,,yellow,I
0.0,4.0,4.0,0.0,5.0,5.0,514.8200420003377,8.0,1.0,phase_2,go,200.0,450.0,1.0,,,,,,,,,orange,flipped triangle
0.0,4.0,4.0,0.0,6.0,6.0,440.5892599997969,8.0,1.0,phase_2,go,200.0,450.0,1.0,,,,,,,,,orange,flipped triangle
0.0,5.0,1.0,1.0,5.0,0.0,0.0,8.0,1.0,phase_2,stop,200.0,450.0,4.0,,,,,,,,,yellow,I
0.0,5.0,1.0,1.0,7.0,6.0,3048.33160599992,1.0,1.0,phase_3,,,,,1038.0,6.0,519.0,173.0,692.0,346.0,865.0,1038.0,yellow,I
0.0,3.0,3.0,0.0,7.0,5.0,1212.8065150000111,1.0,1.0,phase_3,,,,,1038.0,6.0,173.0,346.0,692.0,519.0,1038.0,865.0,gray,circle
0.0,4.0,4.0,0.0,7.0,2.0,2284.272172999863,1.0,1.0,phase_3,,,,,1038.0,6.0,173.0,1038.0,519.0,865.0,692.0,346.0,orange,flipped triangle
0.0,4.0,4.0,0.0,7.0,6.0,1221.3422459999492,1.0,1.0,phase_3,,,,,1152.0,6.0,960.0,768.0,384.0,576.0,192.0,1152.0,orange,flipped triangle
0.0,3.0,3.0,0.0,7.0,5.0,1566.747186000157,1.0,1.0,phase_3,,,,,580.0,5.0,696.0,116.0,232.0,464.0,580.0,348.0,gray,circle
0.0,5.0,1.0,1.0,7.0,6.0,1022.9415230000996,1.0,1.0,phase_3,,,,,768.0,4.0,1152.0,192.0,384.0,576.0,960.0,768.0,yellow,I
0.0,5.0,1.0,1.0,7.0,6.0,936.9185860000472,1.0,1.0,phase_3,,,,,675.0,5.0,135.0,405.0,270.0,810.0,540.0,675.0,yellow,I
0.0,8.0,4.0,1.0,7.0,5.0,1482.4470720000136,1.0,1.0,phase_3,,,,,696.0,6.0,348.0,232.0,464.0,580.0,696.0,116.0,cyan,diamond
0.0,4.0,4.0,0.0,7.0,2.0,731.7230759999802,1.0,1.0,phase_3,,,,,616.0,4.0,924.0,616.0,770.0,154.0,308.0,462.0,orange,flipped triangle
0.0,3.0,3.0,0.0,7.0,2.0,1718.1660390001523,1.0,1.0,phase_3,,,,,1152.0,6.0,576.0,1152.0,384.0,192.0,960.0,768.0,gray,circle
0.0,3.0,3.0,0.0,7.0,2.0,896.1287789998096,1.0,1.0,phase_3,,,,,308.0,2.0,616.0,308.0,924.0,770.0,154.0,462.0,gray,circle
0.0,3.0,3.0,0.0,7.0,3.0,902.8296540000156,1.0,1.0,phase_3,,,,,1152.0,6.0,384.0,576.0,1152.0,192.0,960.0,768.0,gray,circle
0.0,8.0,4.0,1.0,7.0,4.0,865.6267740002477,1.0,1.0,phase_3,,,,,1152.0,6.0,384.0,768.0,192.0,1152.0,576.0,960.0,cyan,diamond
0.0,5.0,1.0,1.0,7.0,4.0,809.5611399999143,1.0,1.0,phase_3,,,,,810.0,6.0,540.0,135.0,270.0,810.0,675.0,405.0,yellow,I
0.0,1.0,1.0,0.0,7.0,4.0,562.8641439998319,1.0,1.0,phase_3,,,,,768.0,4.0,192.0,576.0,384.0,768.0,960.0,1152.0,blue,square
0.0,5.0,1.0,1.0,7.0,4.0,837.6994189998186,1.0,1.0,phase_3,,,,,924.0,6.0,616.0,770.0,462.0,924.0,308.0,154.0,yellow,I
0.0,2.0,2.0,0.0,7.0,4.0,831.3844949998384,1.0,1.0,phase_3,,,,,696.0,6.0,580.0,232.0,464.0,696.0,348.0,116.0,magenta,cross
0.0,2.0,2.0,0.0,7.0,4.0,534.435664999819,1.0,1.0,phase_3,,,,,924.0,6.0,616.0,462.0,154.0,924.0,308.0,770.0,magenta,cross
0.0,7.0,3.0,1.0,7.0,4.0,519.6770269999433,1.0,1.0,phase_3,,,,,696.0,6.0,116.0,348.0,464.0,696.0,580.0,232.0,green,hexagon
0.0,5.0,1.0,1.0,7.0,4.0,592.9057059997831,1.0,1.0,phase_3,,,,,580.0,5.0,348.0,696.0,116.0,580.0,464.0,232.0,yellow,I
0.0,6.0,2.0,1.0,7.0,1.0,2086.4776590001384,2.0,1.0,phase_3,,,,,696.0,6.0,696.0,348.0,580.0,464.0,116.0,232.0,white,triangle
0.0,7.0,3.0,1.0,7.0,5.0,1072.331082999881,2.0,1.0,phase_3,,,,,770.0,5.0,924.0,308.0,154.0,616.0,770.0,462.0,green,hexagon
0.0,1.0,1.0,0.0,7.0,2.0,729.5461749999959,2.0,1.0,phase_3,,,,,692.0,4.0,173.0,692.0,1038.0,865.0,519.0,346.0,blue,square
0.0,4.0,4.0,0.0,7.0,6.0,1474.4617579999613,2.0,1.0,phase_3,,,,,810.0,6.0,405.0,270.0,675.0,540.0,135.0,810.0,orange,flipped triangle
0.0,4.0,4.0,0.0,7.0,4.0,731.9107620000977,2.0,1.0,phase_3,,,,,1038.0,6.0,519.0,173.0,346.0,1038.0,865.0,692.0,orange,flipped triangle
0.0,2.0,2.0,0.0,7.0,1.0,1383.3746569998766,2.0,1.0,phase_3,,,,,1038.0,6.0,1038.0,346.0,173.0,519.0,865.0,692.0,magenta,cross
0.0,4.0,4.0,0.0,7.0,3.0,926.4210719998118,2.0,1.0,phase_3,,,,,770.0,5.0,924.0,154.0,770.0,616.0,308.0,462.0,orange,flipped triangle
0.0,7.0,3.0,1.0,7.0,1.0,1215.0449529999603,2.0,1.0,phase_3,,,,,1152.0,6.0,1152.0,768.0,576.0,192.0,960.0,384.0,green,hexagon
0.0,2.0,2.0,0.0,7.0,2.0,1528.972942999644,2.0,1.0,phase_3,,,,,696.0,6.0,232.0,696.0,464.0,580.0,348.0,116.0,magenta,cross
0.0,6.0,2.0,1.0,7.0,4.0,772.7291339997464,2.0,1.0,phase_3,,,,,960.0,5.0,576.0,192.0,384.0,960.0,1152.0,768.0,white,triangle
0.0,1.0,1.0,0.0,7.0,3.0,803.4360190004008,2.0,1.0,phase_3,,,,,1038.0,6.0,173.0,519.0,1038.0,692.0,865.0,346.0,blue,square
0.0,6.0,2.0,1.0,7.0,3.0,964.3949240003168,2.0,1.0,phase_3,,,,,580.0,5.0,232.0,348.0,580.0,696.0,116.0,464.0,white,triangle
0.0,8.0,4.0,1.0,7.0,2.0,1534.7761779999018,2.0,1.0,phase_3,,,,,1152.0,6.0,384.0,1152.0,960.0,768.0,192.0,576.0,cyan,diamond
0.0,8.0,4.0,1.0,7.0,3.0,1103.5441119997813,2.0,1.0,phase_3,,,,,580.0,5.0,116.0,232.0,580.0,464.0,348.0,696.0,cyan,diamond
0.0,6.0,2.0,1.0,7.0,5.0,1456.5795260000414,2.0,1.0,phase_3,,,,,1038.0,6.0,692.0,346.0,865.0,519.0,1038.0,173.0,white,triangle
0.0,7.0,3.0,1.0,7.0,4.0,1025.906749999649,2.0,1.0,phase_3,,,,,770.0,5.0,616.0,924.0,462.0,770.0,154.0,308.0,green,hexagon
0.0,5.0,1.0,1.0,7.0,4.0,1084.3531810000968,2.0,1.0,phase_3,,,,,616.0,4.0,924.0,770.0,462.0,616.0,308.0,154.0,yellow,I
0.0,2.0,2.0,0.0,7.0,4.0,988.9719660000084,2.0,1.0,phase_3,,,,,1152.0,6.0,192.0,768.0,576.0,1152.0,384.0,960.0,magenta,cross
0.0,5.0,1.0,1.0,7.0,6.0,1303.9545239998915,2.0,1.0,phase_3,,,,,696.0,6.0,348.0,116.0,464.0,232.0,580.0,696.0,yellow,I
0.0,6.0,2.0,1.0,7.0,5.0,1262.3037529997418,2.0,1.0,phase_3,,,,,1038.0,6.0,692.0,865.0,346.0,173.0,1038.0,519.0,white,triangle
0.0,6.0,2.0,1.0,7.0,1.0,1543.8465180000094,3.0,1.0,phase_3,,,,,924.0,6.0,924.0,770.0,616.0,462.0,154.0,308.0,white,triangle
0.0,3.0,3.0,0.0,7.0,1.0,761.6159520002839,3.0,1.0,phase_3,,,,,770.0,5.0,770.0,616.0,462.0,154.0,308.0,924.0,gray,circle
0.0,5.0,1.0,1.0,7.0,2.0,738.1901859998834,3.0,1.0,phase_3,,,,,1152.0,6.0,768.0,1152.0,960.0,192.0,576.0,384.0,yellow,I
0.0,1.0,1.0,0.0,7.0,1.0,796.594844000083,3.0,1.0,phase_3,,,,,1152.0,6.0,1152.0,192.0,384.0,960.0,576.0,768.0,blue,square
0.0,2.0,2.0,0.0,7.0,2.0,772.8403739997702,3.0,1.0,phase_3,,,,,1038.0,6.0,346.0,1038.0,173.0,692.0,519.0,865.0,magenta,cross
0.0,7.0,3.0,1.0,7.0,5.0,837.563820000014,3.0,1.0,phase_3,,,,,1038.0,6.0,692.0,173.0,346.0,865.0,1038.0,519.0,green,hexagon
0.0,5.0,1.0,1.0,7.0,6.0,1016.2442020000526,3.0,1.0,phase_3,,,,,1038.0,6.0,692.0,519.0,346.0,865.0,173.0,1038.0,yellow,I
0.0,8.0,4.0,1.0,7.0,3.0,2050.3425629999583,3.0,1.0,phase_3,,,,,675.0,5.0,270.0,540.0,675.0,405.0,810.0,135.0,cyan,diamond
0.0,1.0,1.0,0.0,7.0,3.0,1099.9867949999498,3.0,1.0,phase_3,,,,,696.0,6.0,580.0,116.0,696.0,232.0,464.0,348.0,blue,square
0.0,6.0,2.0,1.0,7.0,3.0,989.8769709998304,3.0,1.0,phase_3,,,,,1152.0,6.0,576.0,192.0,1152.0,960.0,768.0,384.0,white,triangle
0.0,8.0,4.0,1.0,7.0,5.0,1187.9008900000372,3.0,1.0,phase_3,,,,,1038.0,6.0,865.0,346.0,173.0,692.0,1038.0,519.0,cyan,diamond
0.0,4.0,4.0,0.0,7.0,4.0,1104.0323269999135,3.0,1.0,phase_3,,,,,810.0,6.0,135.0,405.0,540.0,810.0,270.0,675.0,orange,flipped triangle
0.0,1.0,1.0,0.0,7.0,6.0,1407.3952200001258,3.0,1.0,phase_3,,,,,810.0,6.0,270.0,405.0,675.0,540.0,135.0,810.0,blue,square
0.0,3.0,3.0,0.0,7.0,6.0,1016.440497000076,3.0,1.0,phase_3,,,,,675.0,5.0,135.0,405.0,810.0,540.0,270.0,675.0,gray,circle
0.0,8.0,4.0,1.0,7.0,6.0,1137.8395279998583,3.0,1.0,phase_3,,,,,924.0,6.0,154.0,308.0,462.0,770.0,616.0,924.0,cyan,diamond
0.0,4.0,4.0,0.0,7.0,6.0,794.9062809998395,3.0,1.0,phase_3,,,,,580.0,5.0,116.0,696.0,464.0,232.0,348.0,580.0,orange,flipped triangle
0.0,4.0,4.0,0.0,7.0,4.0,1027.5148780001473,3.0,1.0,phase_3,,,,,696.0,6.0,464.0,232.0,348.0,696.0,580.0,116.0,orange,flipped triangle
0.0,8.0,4.0,1.0,7.0,4.0,972.1171820001472,3.0,1.0,phase_3,,,,,675.0,5.0,810.0,270.0,540.0,675.0,135.0,405.0,cyan,diamond
0.0,7.0,3.0,1.0,7.0,4.0,640.9830580000744,3.0,1.0,phase_3,,,,,810.0,6.0,405.0,540.0,135.0,810.0,675.0,270.0,green,hexagon
0.0,1.0,1.0,0.0,7.0,3.0,874.2294329999822,3.0,1.0,phase_3,,,,,696.0,6.0,348.0,580.0,696.0,464.0,116.0,232.0,blue,square
0.0,6.0,2.0,1.0,7.0,5.0,1346.8556989996614,4.0,1.0,phase_3,,,,,810.0,6.0,270.0,540.0,135.0,675.0,810.0,405.0,white,triangle
0.0,7.0,3.0,1.0,7.0,3.0,1194.0622200004327,4.0,1.0,phase_3,,,,,960.0,5.0,192.0,1152.0,960.0,768.0,384.0,576.0,green,hexagon
0.0,8.0,4.0,1.0,7.0,5.0,836.0949090001668,4.0,1.0,phase_3,,,,,1038.0,6.0,865.0,692.0,346.0,173.0,1038.0,519.0,cyan,diamond
0.0,8.0,4.0,1.0,7.0,2.0,1677.3817849998522,4.0,1.0,phase_3,,,,,924.0,6.0,770.0,924.0,616.0,462.0,308.0,154.0,cyan,diamond
0.0,2.0,2.0,0.0,7.0,2.0,743.416994999734,4.0,1.0,phase_3,,,,,616.0,4.0,462.0,616.0,924.0,154.0,308.0,770.0,magenta,cross
0.0,7.0,3.0,1.0,7.0,4.0,670.8524410000791,4.0,1.0,phase_3,,,,,692.0,4.0,865.0,173.0,519.0,692.0,346.0,1038.0,green,hexagon
0.0,7.0,3.0,1.0,7.0,5.0,1699.335529000109,4.0,1.0,phase_3,,,,,810.0,6.0,270.0,135.0,540.0,675.0,810.0,405.0,green,hexagon
0.0,3.0,3.0,0.0,7.0,2.0,1115.8217849997527,4.0,1.0,phase_3,,,,,1038.0,6.0,173.0,1038.0,692.0,519.0,865.0,346.0,gray,circle
0.0,1.0,1.0,0.0,7.0,2.0,955.4594010000984,4.0,1.0,phase_3,,,,,924.0,6.0,308.0,924.0,770.0,462.0,154.0,616.0,blue,square
0.0,6.0,2.0,1.0,7.0,6.0,964.7249150002608,4.0,1.0,phase_3,,,,,770.0,5.0,462.0,924.0,308.0,616.0,154.0,770.0,white,triangle
0.0,2.0,2.0,0.0,7.0,1.0,1974.0331420002803,4.0,1.0,phase_3,,,,,810.0,6.0,810.0,675.0,405.0,135.0,270.0,540.0,magenta,cross
0.0,2.0,2.0,0.0,7.0,2.0,1271.792256000026,4.0,1.0,phase_3,,,,,135.0,1.0,675.0,135.0,810.0,270.0,405.0,540.0,magenta,cross
0.0,4.0,4.0,0.0,7.0,1.0,1057.7437990000362,4.0,1.0,phase_3,,,,,960.0,5.0,960.0,576.0,384.0,768.0,1152.0,192.0,orange,flipped triangle
0.0,6.0,2.0,1.0,7.0,1.0,1512.8903949998858,4.0,1.0,phase_3,,,,,810.0,6.0,810.0,135.0,405.0,270.0,540.0,675.0,white,triangle
0.0,7.0,3.0,1.0,7.0,5.0,1506.4553960000922,4.0,1.0,phase_3,,,,,696.0,6.0,232.0,580.0,116.0,348.0,696.0,464.0,green,hexagon
0.0,3.0,3.0,0.0,7.0,5.0,1198.3655230001204,4.0,1.0,phase_3,,,,,696.0,6.0,348.0,116.0,580.0,464.0,696.0,232.0,gray,circle
0.0,3.0,3.0,0.0,7.0,1.0,1877.6905120002996,4.0,1.0,phase_3,,,,,810.0,6.0,810.0,405.0,675.0,135.0,270.0,540.0,gray,circle
0.0,1.0,1.0,0.0,7.0,1.0,1094.9495810000371,4.0,1.0,phase_3,,,,,770.0,5.0,770.0,924.0,616.0,154.0,462.0,308.0,blue,square
0.0,1.0,1.0,0.0,7.0,4.0,1183.4424409998974,4.0,1.0,phase_3,,,,,810.0,6.0,540.0,405.0,270.0,810.0,135.0,675.0,blue,square
0.0,2.0,2.0,0.0,7.0,5.0,1193.0118339996625,4.0,1.0,phase_3,,,,,1152.0,6.0,576.0,768.0,192.0,384.0,1152.0,960.0,magenta,cross
