stepwise_reward_magnitude,paired_with_stopping,quadrant,response,reaction_time,block,which_part,stop_signal_trial_type,left_SSD,right_SSD,accuracy,chosen_bidding_amount,chosen_bidding_level,possible_bid_1,possible_bid_2,possible_bid_3,possible_bid_4,possible_bid_5,possible_bid_6,color_text,shape_text
0.5,1,4.0,4.0,934.6630573269999,1.0,part_1,,,,,,,,,,,,,cyan,line
0.5,1,1.0,1.0,400.87890625,1.0,part_1,,,,,,,,,,,,,cyan,line
2.0,1,1.0,1.0,451.409101486,1.0,part_1,,,,,,,,,,,,,gray,cross
0.5,0,1.0,1.0,384.368896484,1.0,part_1,,,,,,,,,,,,,yellow,circle
1.0,1,4.0,4.0,384.09614563,1.0,part_1,,,,,,,,,,,,,green,square
1.0,0,4.0,4.0,434.48805809000004,1.0,part_1,,,,,,,,,,,,,white,hexagon
1.0,1,1.0,1.0,317.317008972,1.0,part_1,,,,,,,,,,,,,green,square
1.0,1,3.0,3.0,383.959054947,1.0,part_1,,,,,,,,,,,,,green,square
0.5,1,2.0,2.0,400.640964508,1.0,part_1,,,,,,,,,,,,,cyan,line
0.5,0,1.0,1.0,367.387056351,1.0,part_1,,,,,,,,,,,,,yellow,circle
0.5,0,2.0,2.0,384.200811386,1.0,part_1,,,,,,,,,,,,,yellow,circle
4.0,1,3.0,3.0,367.750167847,1.0,part_1,,,,,,,,,,,,,magenta,triangle
2.0,1,3.0,3.0,401.00193023699995,1.0,part_1,,,,,,,,,,,,,gray,cross
0.5,1,4.0,4.0,450.52313804600004,1.0,part_1,,,,,,,,,,,,,cyan,line
0.5,1,3.0,3.0,400.707006454,1.0,part_1,,,,,,,,,,,,,cyan,line
0.5,0,4.0,4.0,350.44002533,1.0,part_1,,,,,,,,,,,,,yellow,circle
0.5,1,2.0,2.0,434.504032135,1.0,part_1,,,,,,,,,,,,,cyan,line
1.0,1,2.0,2.0,350.45003891,1.0,part_1,,,,,,,,,,,,,green,square
1.0,0,1.0,1.0,317.301988602,1.0,part_1,,,,,,,,,,,,,white,hexagon
0.5,1,3.0,3.0,384.30809974699997,1.0,part_1,,,,,,,,,,,,,cyan,line
2.0,0,4.0,4.0,334.35297012300003,1.0,part_1,,,,,,,,,,,,,blue,flipped triangle
1.0,1,4.0,4.0,350.994110107,1.0,part_1,,,,,,,,,,,,,green,square
2.0,0,1.0,1.0,351.163864136,1.0,part_1,,,,,,,,,,,,,blue,flipped triangle
0.5,0,1.0,1.0,367.53988266,1.0,part_1,,,,,,,,,,,,,yellow,circle
0.5,0,4.0,4.0,334.147930145,1.0,part_1,,,,,,,,,,,,,yellow,circle
1.0,1,4.0,4.0,367.29693412800003,1.0,part_1,,,,,,,,,,,,,green,square
0.5,1,1.0,1.0,334.29002761799995,1.0,part_1,,,,,,,,,,,,,cyan,line
2.0,1,4.0,4.0,351.293087006,1.0,part_1,,,,,,,,,,,,,gray,cross
4.0,0,4.0,4.0,367.671966553,1.0,part_1,,,,,,,,,,,,,orange,diamond
4.0,1,4.0,4.0,333.85396003700004,1.0,part_1,,,,,,,,,,,,,magenta,triangle
2.0,1,1.0,1.0,300.326108932,1.0,part_1,,,,,,,,,,,,,gray,cross
2.0,1,2.0,2.0,367.717027664,1.0,part_1,,,,,,,,,,,,,gray,cross
4.0,1,4.0,4.0,301.201820374,1.0,part_1,,,,,,,,,,,,,magenta,triangle
0.5,1,4.0,4.0,334.01513099699997,1.0,part_1,,,,,,,,,,,,,cyan,line
0.5,1,3.0,3.0,434.34906005899995,1.0,part_1,,,,,,,,,,,,,cyan,line
2.0,0,1.0,1.0,367.120027542,1.0,part_1,,,,,,,,,,,,,blue,flipped triangle
4.0,0,4.0,4.0,317.355871201,1.0,part_1,,,,,,,,,,,,,orange,diamond
1.0,0,3.0,3.0,383.941888809,1.0,part_1,,,,,,,,,,,,,white,hexagon
0.5,0,2.0,2.0,317.487955093,1.0,part_1,,,,,,,,,,,,,yellow,circle
2.0,1,3.0,3.0,350.26597976700003,1.0,part_1,,,,,,,,,,,,,gray,cross
4.0,0,3.0,3.0,417.662143707,1.0,part_1,,,,,,,,,,,,,orange,diamond
4.0,1,3.0,3.0,350.807905197,1.0,part_1,,,,,,,,,,,,,magenta,triangle
4.0,1,2.0,2.0,350.75378417999997,1.0,part_1,,,,,,,,,,,,,magenta,triangle
2.0,1,4.0,4.0,334.309101105,1.0,part_1,,,,,,,,,,,,,gray,cross
1.0,1,4.0,4.0,317.37995147699996,1.0,part_1,,,,,,,,,,,,,green,square
1.0,0,2.0,2.0,400.43592452999997,1.0,part_1,,,,,,,,,,,,,white,hexagon
1.0,1,3.0,3.0,333.729028702,1.0,part_1,,,,,,,,,,,,,green,square
1.0,1,4.0,4.0,400.567054749,1.0,part_1,,,,,,,,,,,,,green,square
4.0,0,4.0,4.0,433.912992477,1.0,part_1,,,,,,,,,,,,,orange,diamond
1.0,0,1.0,1.0,284.770011902,1.0,part_1,,,,,,,,,,,,,white,hexagon
0.5,0,2.0,2.0,367.374897003,1.0,part_1,,,,,,,,,,,,,yellow,circle
4.0,0,1.0,1.0,334.68198776199995,1.0,part_1,,,,,,,,,,,,,orange,diamond
4.0,1,2.0,2.0,334.08999443100004,1.0,part_1,,,,,,,,,,,,,magenta,triangle
2.0,0,3.0,3.0,334.139108658,1.0,part_1,,,,,,,,,,,,,blue,flipped triangle
4.0,0,2.0,2.0,334.495782852,1.0,part_1,,,,,,,,,,,,,orange,diamond
1.0,1,2.0,2.0,318.35699081399997,1.0,part_1,,,,,,,,,,,,,green,square
0.5,1,4.0,4.0,300.920963287,1.0,part_1,,,,,,,,,,,,,cyan,line
2.0,0,4.0,4.0,300.590991974,1.0,part_1,,,,,,,,,,,,,blue,flipped triangle
1.0,0,3.0,3.0,350.914955139,1.0,part_1,,,,,,,,,,,,,white,hexagon
1.0,1,3.0,3.0,401.219844818,1.0,part_1,,,,,,,,,,,,,green,square
2.0,1,2.0,2.0,350.947141647,1.0,part_1,,,,,,,,,,,,,gray,cross
2.0,0,3.0,3.0,350.942134857,1.0,part_1,,,,,,,,,,,,,blue,flipped triangle
1.0,0,1.0,1.0,384.104013443,1.0,part_1,,,,,,,,,,,,,white,hexagon
1.0,1,3.0,3.0,384.36007499699997,1.0,part_1,,,,,,,,,,,,,green,square
2.0,1,3.0,3.0,384.443998337,1.0,part_1,,,,,,,,,,,,,gray,cross
4.0,0,3.0,3.0,384.536027908,1.0,part_1,,,,,,,,,,,,,orange,diamond
4.0,0,2.0,2.0,333.598136902,1.0,part_1,,,,,,,,,,,,,orange,diamond
2.0,0,1.0,1.0,418.011903763,1.0,part_1,,,,,,,,,,,,,blue,flipped triangle
0.5,1,1.0,1.0,350.582122803,1.0,part_1,,,,,,,,,,,,,cyan,line
2.0,1,1.0,1.0,383.86893272400005,1.0,part_1,,,,,,,,,,,,,gray,cross
0.5,1,3.0,3.0,367.22779274,1.0,part_1,,,,,,,,,,,,,cyan,line
2.0,0,2.0,2.0,368.01099777200005,1.0,part_1,,,,,,,,,,,,,blue,flipped triangle
4.0,1,3.0,3.0,367.383956909,1.0,part_1,,,,,,,,,,,,,magenta,triangle
4.0,1,1.0,1.0,300.59003829999995,1.0,part_1,,,,,,,,,,,,,magenta,triangle
1.0,1,4.0,4.0,401.39484405499996,1.0,part_1,,,,,,,,,,,,,green,square
4.0,1,2.0,2.0,334.29718017600004,1.0,part_1,,,,,,,,,,,,,magenta,triangle
4.0,0,2.0,2.0,367.824792862,1.0,part_1,,,,,,,,,,,,,orange,diamond
0.5,1,1.0,1.0,301.34201049800004,1.0,part_1,,,,,,,,,,,,,cyan,line
4.0,0,3.0,3.0,350.795030594,1.0,part_1,,,,,,,,,,,,,orange,diamond
1.0,1,1.0,1.0,400.372982025,1.0,part_1,,,,,,,,,,,,,green,square
1.0,0,2.0,2.0,334.007978439,1.0,part_1,,,,,,,,,,,,,white,hexagon
2.0,1,3.0,3.0,383.887052536,1.0,part_1,,,,,,,,,,,,,gray,cross
4.0,1,2.0,2.0,350.817203522,1.0,part_1,,,,,,,,,,,,,magenta,triangle
1.0,0,2.0,2.0,334.258079529,1.0,part_1,,,,,,,,,,,,,white,hexagon
4.0,0,4.0,4.0,350.68893432600004,1.0,part_1,,,,,,,,,,,,,orange,diamond
0.5,1,2.0,2.0,300.580978394,1.0,part_1,,,,,,,,,,,,,cyan,line
4.0,1,1.0,1.0,300.828933716,1.0,part_1,,,,,,,,,,,,,magenta,triangle
0.5,1,2.0,2.0,284.838914871,1.0,part_1,,,,,,,,,,,,,cyan,line
1.0,1,2.0,2.0,300.878047943,1.0,part_1,,,,,,,,,,,,,green,square
0.5,0,4.0,4.0,367.044210434,1.0,part_1,,,,,,,,,,,,,yellow,circle
4.0,1,4.0,4.0,434.73505973799996,1.0,part_1,,,,,,,,,,,,,magenta,triangle
4.0,0,1.0,1.0,400.86102485699996,1.0,part_1,,,,,,,,,,,,,orange,diamond
1.0,1,2.0,2.0,334.15603637699996,1.0,part_1,,,,,,,,,,,,,green,square
2.0,1,2.0,2.0,334.431886673,1.0,part_1,,,,,,,,,,,,,gray,cross
0.5,1,3.0,3.0,350.843191147,1.0,part_1,,,,,,,,,,,,,cyan,line
0.5,0,1.0,1.0,367.386817932,1.0,part_1,,,,,,,,,,,,,yellow,circle
1.0,0,3.0,3.0,333.576917648,1.0,part_1,,,,,,,,,,,,,white,hexagon
2.0,0,1.0,1.0,367.619991302,1.0,part_1,,,,,,,,,,,,,blue,flipped triangle
0.5,0,3.0,3.0,433.75515937800003,1.0,part_1,,,,,,,,,,,,,yellow,circle
4.0,1,1.0,1.0,383.874893188,1.0,part_1,,,,,,,,,,,,,magenta,triangle
1.0,0,4.0,4.0,518.416881561,2.0,part_1,,,,,,,,,,,,,white,hexagon
4.0,1,3.0,3.0,367.390871048,2.0,part_1,,,,,,,,,,,,,magenta,triangle
1.0,1,4.0,4.0,467.391014099,2.0,part_1,,,,,,,,,,,,,green,square
0.5,1,3.0,3.0,367.799043655,2.0,part_1,,,,,,,,,,,,,cyan,line
1.0,1,3.0,3.0,350.545167923,2.0,part_1,,,,,,,,,,,,,green,square
2.0,1,1.0,1.0,400.933980942,2.0,part_1,,,,,,,,,,,,,gray,cross
4.0,1,3.0,3.0,367.753982544,2.0,part_1,,,,,,,,,,,,,magenta,triangle
1.0,0,2.0,2.0,350.995063782,2.0,part_1,,,,,,,,,,,,,white,hexagon
2.0,0,1.0,1.0,417.66500473,2.0,part_1,,,,,,,,,,,,,blue,flipped triangle
0.5,0,2.0,2.0,284.12604332,2.0,part_1,,,,,,,,,,,,,yellow,circle
2.0,0,2.0,2.0,350.548028946,2.0,part_1,,,,,,,,,,,,,blue,flipped triangle
0.5,1,3.0,3.0,351.33504867600004,2.0,part_1,,,,,,,,,,,,,cyan,line
2.0,0,2.0,2.0,334.280014038,2.0,part_1,,,,,,,,,,,,,blue,flipped triangle
4.0,1,3.0,3.0,367.73705482500003,2.0,part_1,,,,,,,,,,,,,magenta,triangle
1.0,0,2.0,2.0,350.508928299,2.0,part_1,,,,,,,,,,,,,white,hexagon
4.0,0,1.0,1.0,668.28417778,2.0,part_1,,,,,,,,,,,,,orange,diamond
0.5,0,2.0,2.0,367.453098297,2.0,part_1,,,,,,,,,,,,,yellow,circle
0.5,1,3.0,3.0,317.445993423,2.0,part_1,,,,,,,,,,,,,cyan,line
0.5,1,4.0,4.0,334.020853043,2.0,part_1,,,,,,,,,,,,,cyan,line
0.5,0,1.0,1.0,468.192100525,2.0,part_1,,,,,,,,,,,,,yellow,circle
4.0,1,4.0,4.0,333.741903305,2.0,part_1,,,,,,,,,,,,,magenta,triangle
4.0,0,4.0,4.0,334.052085876,2.0,part_1,,,,,,,,,,,,,orange,diamond
1.0,1,3.0,3.0,367.444038391,2.0,part_1,,,,,,,,,,,,,green,square
2.0,0,3.0,3.0,383.688926697,2.0,part_1,,,,,,,,,,,,,blue,flipped triangle
4.0,0,1.0,1.0,350.58188438400003,2.0,part_1,,,,,,,,,,,,,orange,diamond
2.0,1,4.0,4.0,384.224891663,2.0,part_1,,,,,,,,,,,,,gray,cross
4.0,0,4.0,4.0,350.747108459,2.0,part_1,,,,,,,,,,,,,orange,diamond
4.0,1,3.0,3.0,317.43812561,2.0,part_1,,,,,,,,,,,,,magenta,triangle
2.0,1,4.0,4.0,334.362030029,2.0,part_1,,,,,,,,,,,,,gray,cross
2.0,0,1.0,1.0,367.176055908,2.0,part_1,,,,,,,,,,,,,blue,flipped triangle
0.5,1,2.0,2.0,351.159095764,2.0,part_1,,,,,,,,,,,,,cyan,line
2.0,0,3.0,3.0,300.99821090700004,2.0,part_1,,,,,,,,,,,,,blue,flipped triangle
1.0,0,4.0,4.0,367.406129837,2.0,part_1,,,,,,,,,,,,,white,hexagon
0.5,1,4.0,4.0,300.846099854,2.0,part_1,,,,,,,,,,,,,cyan,line
2.0,1,4.0,4.0,333.79888534500003,2.0,part_1,,,,,,,,,,,,,gray,cross
1.0,1,4.0,4.0,334.40709114099997,2.0,part_1,,,,,,,,,,,,,green,square
2.0,1,2.0,2.0,384.55295562699996,2.0,part_1,,,,,,,,,,,,,gray,cross
4.0,1,4.0,4.0,334.006071091,2.0,part_1,,,,,,,,,,,,,magenta,triangle
1.0,1,1.0,1.0,334.123849869,2.0,part_1,,,,,,,,,,,,,green,square
1.0,1,4.0,4.0,334.239006042,2.0,part_1,,,,,,,,,,,,,green,square
4.0,1,2.0,2.0,334.019899368,2.0,part_1,,,,,,,,,,,,,magenta,triangle
1.0,1,1.0,1.0,300.64392089800003,2.0,part_1,,,,,,,,,,,,,green,square
0.5,1,1.0,1.0,350.39401054399997,2.0,part_1,,,,,,,,,,,,,cyan,line
2.0,0,2.0,2.0,367.02990531899997,2.0,part_1,,,,,,,,,,,,,blue,flipped triangle
1.0,1,1.0,1.0,384.370088577,2.0,part_1,,,,,,,,,,,,,green,square
1.0,1,2.0,2.0,351.03583335900004,2.0,part_1,,,,,,,,,,,,,green,square
2.0,0,4.0,4.0,384.639978409,2.0,part_1,,,,,,,,,,,,,blue,flipped triangle
0.5,1,4.0,4.0,334.12003517200003,2.0,part_1,,,,,,,,,,,,,cyan,line
0.5,0,2.0,2.0,317.518949509,2.0,part_1,,,,,,,,,,,,,yellow,circle
1.0,1,2.0,2.0,350.419998169,2.0,part_1,,,,,,,,,,,,,green,square
0.5,0,1.0,1.0,350.758075714,2.0,part_1,,,,,,,,,,,,,yellow,circle
2.0,1,4.0,4.0,351.30906104999997,2.0,part_1,,,,,,,,,,,,,gray,cross
0.5,1,3.0,3.0,400.689840317,2.0,part_1,,,,,,,,,,,,,cyan,line
4.0,1,2.0,2.0,400.740861893,2.0,part_1,,,,,,,,,,,,,magenta,triangle
0.5,0,3.0,3.0,300.510168076,2.0,part_1,,,,,,,,,,,,,yellow,circle
0.5,0,2.0,2.0,334.103107452,2.0,part_1,,,,,,,,,,,,,yellow,circle
0.5,0,3.0,3.0,334.628105164,2.0,part_1,,,,,,,,,,,,,yellow,circle
4.0,0,1.0,1.0,367.31195449800003,2.0,part_1,,,,,,,,,,,,,orange,diamond
4.0,0,3.0,3.0,434.252023697,2.0,part_1,,,,,,,,,,,,,orange,diamond
1.0,1,2.0,2.0,334.63406562800003,2.0,part_1,,,,,,,,,,,,,green,square
4.0,0,3.0,3.0,333.741903305,2.0,part_1,,,,,,,,,,,,,orange,diamond
0.5,0,3.0,3.0,601.106882095,2.0,part_1,,,,,,,,,,,,,yellow,circle
0.5,0,2.0,2.0,333.842039108,2.0,part_1,,,,,,,,,,,,,yellow,circle
4.0,1,2.0,2.0,350.774049759,2.0,part_1,,,,,,,,,,,,,magenta,triangle
2.0,1,2.0,2.0,417.645931244,2.0,part_1,,,,,,,,,,,,,gray,cross
1.0,0,1.0,1.0,451.428890228,2.0,part_1,,,,,,,,,,,,,white,hexagon
2.0,0,2.0,2.0,417.508840561,2.0,part_1,,,,,,,,,,,,,blue,flipped triangle
4.0,0,3.0,3.0,350.914955139,2.0,part_1,,,,,,,,,,,,,orange,diamond
4.0,0,1.0,1.0,350.541830063,2.0,part_1,,,,,,,,,,,,,orange,diamond
0.5,0,1.0,1.0,350.792169571,2.0,part_1,,,,,,,,,,,,,yellow,circle
0.5,1,4.0,4.0,384.36388969399997,2.0,part_1,,,,,,,,,,,,,cyan,line
2.0,1,4.0,4.0,434.233903885,2.0,part_1,,,,,,,,,,,,,gray,cross
4.0,1,1.0,1.0,367.435932159,2.0,part_1,,,,,,,,,,,,,magenta,triangle
2.0,0,4.0,4.0,333.514928818,2.0,part_1,,,,,,,,,,,,,blue,flipped triangle
1.0,0,4.0,4.0,334.752082825,2.0,part_1,,,,,,,,,,,,,white,hexagon
4.0,0,2.0,2.0,334.23089981100003,2.0,part_1,,,,,,,,,,,,,orange,diamond
4.0,1,1.0,1.0,300.867080688,2.0,part_1,,,,,,,,,,,,,magenta,triangle
2.0,0,1.0,1.0,434.282064438,2.0,part_1,,,,,,,,,,,,,blue,flipped triangle
2.0,1,2.0,2.0,334.368944168,2.0,part_1,,,,,,,,,,,,,gray,cross
1.0,0,1.0,1.0,367.67601966899997,2.0,part_1,,,,,,,,,,,,,white,hexagon
0.5,1,1.0,1.0,301.416873932,2.0,part_1,,,,,,,,,,,,,cyan,line
2.0,0,4.0,4.0,350.939035416,2.0,part_1,,,,,,,,,,,,,blue,flipped triangle
4.0,1,1.0,1.0,317.497968674,2.0,part_1,,,,,,,,,,,,,magenta,triangle
4.0,0,1.0,1.0,383.814811707,2.0,part_1,,,,,,,,,,,,,orange,diamond
1.0,0,3.0,3.0,450.59800148,2.0,part_1,,,,,,,,,,,,,white,hexagon
2.0,1,3.0,3.0,334.232091904,2.0,part_1,,,,,,,,,,,,,gray,cross
2.0,1,2.0,2.0,333.936929703,2.0,part_1,,,,,,,,,,,,,gray,cross
1.0,1,1.0,1.0,284.050941467,2.0,part_1,,,,,,,,,,,,,green,square
4.0,1,3.0,3.0,417.96898841899997,2.0,part_1,,,,,,,,,,,,,magenta,triangle
1.0,0,2.0,2.0,350.96502304100005,2.0,part_1,,,,,,,,,,,,,white,hexagon
2.0,1,3.0,3.0,350.969076157,2.0,part_1,,,,,,,,,,,,,gray,cross
2.0,1,3.0,3.0,383.82315635699996,2.0,part_1,,,,,,,,,,,,,gray,cross
0.5,1,3.0,3.0,350.836038589,2.0,part_1,,,,,,,,,,,,,cyan,line
0.5,1,4.0,4.0,367.67721176099997,2.0,part_1,,,,,,,,,,,,,cyan,line
2.0,0,4.0,4.0,351.093053818,2.0,part_1,,,,,,,,,,,,,blue,flipped triangle
1.0,1,2.0,2.0,367.420911789,2.0,part_1,,,,,,,,,,,,,green,square
4.0,1,1.0,1.0,351.443052292,2.0,part_1,,,,,,,,,,,,,magenta,triangle
0.5,1,1.0,1.0,401.061058044,2.0,part_1,,,,,,,,,,,,,cyan,line
1.0,0,3.0,3.0,367.360830307,2.0,part_1,,,,,,,,,,,,,white,hexagon
1.0,0,4.0,4.0,317.404985428,2.0,part_1,,,,,,,,,,,,,white,hexagon
4.0,1,3.0,3.0,383.673191071,3.0,part_1,,,,,,,,,,,,,magenta,triangle
2.0,1,1.0,1.0,401.167154312,3.0,part_1,,,,,,,,,,,,,gray,cross
1.0,1,4.0,4.0,300.514936447,3.0,part_1,,,,,,,,,,,,,green,square
2.0,1,4.0,4.0,333.727121353,3.0,part_1,,,,,,,,,,,,,gray,cross
1.0,1,3.0,3.0,300.65083503700004,3.0,part_1,,,,,,,,,,,,,green,square
1.0,0,2.0,2.0,367.573022842,3.0,part_1,,,,,,,,,,,,,white,hexagon
2.0,0,1.0,1.0,300.355911255,3.0,part_1,,,,,,,,,,,,,blue,flipped triangle
4.0,1,3.0,3.0,317.66295433000005,3.0,part_1,,,,,,,,,,,,,magenta,triangle
1.0,0,2.0,2.0,417.407035828,3.0,part_1,,,,,,,,,,,,,white,hexagon
0.5,0,1.0,1.0,267.36497879,3.0,part_1,,,,,,,,,,,,,yellow,circle
4.0,1,1.0,1.0,451.553106308,3.0,part_1,,,,,,,,,,,,,magenta,triangle
1.0,0,3.0,3.0,384.05108451800004,3.0,part_1,,,,,,,,,,,,,white,hexagon
0.5,0,4.0,4.0,384.25993919399997,3.0,part_1,,,,,,,,,,,,,yellow,circle
2.0,1,3.0,3.0,384.65189933799996,3.0,part_1,,,,,,,,,,,,,gray,cross
4.0,0,4.0,4.0,401.128053665,3.0,part_1,,,,,,,,,,,,,orange,diamond
1.0,1,1.0,1.0,450.882911682,3.0,part_1,,,,,,,,,,,,,green,square
1.0,1,4.0,4.0,401.059150696,3.0,part_1,,,,,,,,,,,,,green,square
2.0,0,3.0,3.0,801.3889789579999,3.0,part_1,,,,,,,,,,,,,blue,flipped triangle
1.0,0,2.0,2.0,350.811004639,3.0,part_1,,,,,,,,,,,,,white,hexagon
0.5,0,2.0,2.0,350.733041763,3.0,part_1,,,,,,,,,,,,,yellow,circle
4.0,0,3.0,3.0,400.945901871,3.0,part_1,,,,,,,,,,,,,orange,diamond
1.0,0,4.0,4.0,467.674970627,3.0,part_1,,,,,,,,,,,,,white,hexagon
4.0,1,2.0,2.0,400.70199966399997,3.0,part_1,,,,,,,,,,,,,magenta,triangle
2.0,0,3.0,3.0,784.0399742129999,3.0,part_1,,,,,,,,,,,,,blue,flipped triangle
0.5,0,2.0,2.0,367.389202118,3.0,part_1,,,,,,,,,,,,,yellow,circle
1.0,0,2.0,2.0,368.16000938400003,3.0,part_1,,,,,,,,,,,,,white,hexagon
1.0,0,2.0,2.0,334.00487899800004,3.0,part_1,,,,,,,,,,,,,white,hexagon
2.0,0,1.0,1.0,368.04389953599997,3.0,part_1,,,,,,,,,,,,,blue,flipped triangle
1.0,1,2.0,2.0,367.264986038,3.0,part_1,,,,,,,,,,,,,green,square
2.0,1,1.0,1.0,384.77897643999995,3.0,part_1,,,,,,,,,,,,,gray,cross
2.0,1,2.0,2.0,367.24495887800003,3.0,part_1,,,,,,,,,,,,,gray,cross
1.0,1,4.0,4.0,334.095001221,3.0,part_1,,,,,,,,,,,,,green,square
0.5,0,3.0,3.0,417.196989059,3.0,part_1,,,,,,,,,,,,,yellow,circle
4.0,0,4.0,4.0,384.011983871,3.0,part_1,,,,,,,,,,,,,orange,diamond
4.0,1,4.0,4.0,350.86894035299997,3.0,part_1,,,,,,,,,,,,,magenta,triangle
1.0,0,1.0,1.0,350.63290596,3.0,part_1,,,,,,,,,,,,,white,hexagon
4.0,1,3.0,3.0,367.103099823,3.0,part_1,,,,,,,,,,,,,magenta,triangle
0.5,0,1.0,1.0,350.643873215,3.0,part_1,,,,,,,,,,,,,yellow,circle
2.0,1,1.0,1.0,434.277057648,3.0,part_1,,,,,,,,,,,,,gray,cross
1.0,0,2.0,2.0,284.004926682,3.0,part_1,,,,,,,,,,,,,white,hexagon
2.0,0,4.0,4.0,350.59690475499997,3.0,part_1,,,,,,,,,,,,,blue,flipped triangle
0.5,1,2.0,2.0,451.40385627700005,3.0,part_1,,,,,,,,,,,,,cyan,line
2.0,0,2.0,2.0,433.999061584,3.0,part_1,,,,,,,,,,,,,blue,flipped triangle
1.0,0,4.0,4.0,334.04612541200004,3.0,part_1,,,,,,,,,,,,,white,hexagon
1.0,1,3.0,3.0,334.131002426,3.0,part_1,,,,,,,,,,,,,green,square
1.0,1,4.0,4.0,317.494153976,3.0,part_1,,,,,,,,,,,,,green,square
0.5,0,1.0,1.0,584.692955017,3.0,part_1,,,,,,,,,,,,,yellow,circle
0.5,0,3.0,3.0,451.102018356,3.0,part_1,,,,,,,,,,,,,yellow,circle
0.5,0,3.0,3.0,350.649833679,3.0,part_1,,,,,,,,,,,,,yellow,circle
1.0,0,4.0,4.0,351.303100586,3.0,part_1,,,,,,,,,,,,,white,hexagon
4.0,0,1.0,1.0,334.180831909,3.0,part_1,,,,,,,,,,,,,orange,diamond
1.0,0,4.0,4.0,367.889881134,3.0,part_1,,,,,,,,,,,,,white,hexagon
2.0,0,1.0,1.0,350.920915604,3.0,part_1,,,,,,,,,,,,,blue,flipped triangle
2.0,0,3.0,3.0,351.094007492,3.0,part_1,,,,,,,,,,,,,blue,flipped triangle
4.0,1,3.0,3.0,401.260137558,3.0,part_1,,,,,,,,,,,,,magenta,triangle
4.0,0,3.0,3.0,367.738008499,3.0,part_1,,,,,,,,,,,,,orange,diamond
2.0,1,1.0,1.0,367.09713935900004,3.0,part_1,,,,,,,,,,,,,gray,cross
0.5,1,4.0,4.0,484.447002411,3.0,part_1,,,,,,,,,,,,,cyan,line
1.0,0,2.0,2.0,317.363977432,3.0,part_1,,,,,,,,,,,,,white,hexagon
1.0,1,3.0,3.0,317.51704215999996,3.0,part_1,,,,,,,,,,,,,green,square
2.0,1,2.0,2.0,400.44593811,3.0,part_1,,,,,,,,,,,,,gray,cross
1.0,1,3.0,3.0,301.41496658299997,3.0,part_1,,,,,,,,,,,,,green,square
4.0,0,2.0,2.0,350.718021393,3.0,part_1,,,,,,,,,,,,,orange,diamond
4.0,1,2.0,2.0,384.824991226,3.0,part_1,,,,,,,,,,,,,magenta,triangle
4.0,1,4.0,4.0,351.421117783,3.0,part_1,,,,,,,,,,,,,magenta,triangle
4.0,0,1.0,1.0,283.477067947,3.0,part_1,,,,,,,,,,,,,orange,diamond
1.0,1,1.0,1.0,300.853013992,3.0,part_1,,,,,,,,,,,,,green,square
1.0,1,2.0,2.0,334.34605598400003,3.0,part_1,,,,,,,,,,,,,green,square
4.0,0,1.0,1.0,284.336805344,3.0,part_1,,,,,,,,,,,,,orange,diamond
0.5,1,4.0,4.0,333.91618728599997,3.0,part_1,,,,,,,,,,,,,cyan,line
1.0,0,1.0,1.0,318.018913269,3.0,part_1,,,,,,,,,,,,,white,hexagon
1.0,0,4.0,4.0,316.968202591,3.0,part_1,,,,,,,,,,,,,white,hexagon
1.0,0,3.0,3.0,384.346961975,3.0,part_1,,,,,,,,,,,,,white,hexagon
2.0,0,1.0,1.0,400.81000328100004,3.0,part_1,,,,,,,,,,,,,blue,flipped triangle
0.5,0,2.0,2.0,384.30595397900004,3.0,part_1,,,,,,,,,,,,,yellow,circle
1.0,0,4.0,4.0,317.573070526,3.0,part_1,,,,,,,,,,,,,white,hexagon
1.0,0,3.0,3.0,367.99287796000004,3.0,part_1,,,,,,,,,,,,,white,hexagon
0.5,1,2.0,2.0,434.182167053,3.0,part_1,,,,,,,,,,,,,cyan,line
2.0,0,1.0,1.0,417.770862579,3.0,part_1,,,,,,,,,,,,,blue,flipped triangle
4.0,1,2.0,2.0,383.97192954999997,3.0,part_1,,,,,,,,,,,,,magenta,triangle
2.0,0,1.0,1.0,350.811958313,3.0,part_1,,,,,,,,,,,,,blue,flipped triangle
4.0,0,3.0,3.0,334.22088623,3.0,part_1,,,,,,,,,,,,,orange,diamond
4.0,0,1.0,1.0,351.534128189,3.0,part_1,,,,,,,,,,,,,orange,diamond
0.5,1,2.0,2.0,350.775957108,3.0,part_1,,,,,,,,,,,,,cyan,line
0.5,1,2.0,2.0,450.484037399,3.0,part_1,,,,,,,,,,,,,cyan,line
4.0,1,4.0,4.0,300.966024399,3.0,part_1,,,,,,,,,,,,,magenta,triangle
2.0,0,2.0,2.0,317.464113235,3.0,part_1,,,,,,,,,,,,,blue,flipped triangle
2.0,1,4.0,4.0,317.39497184799995,3.0,part_1,,,,,,,,,,,,,gray,cross
4.0,0,1.0,1.0,334.10096168499996,3.0,part_1,,,,,,,,,,,,,orange,diamond
4.0,0,3.0,3.0,334.443092346,3.0,part_1,,,,,,,,,,,,,orange,diamond
1.0,1,1.0,1.0,350.824117661,3.0,part_1,,,,,,,,,,,,,green,square
0.5,1,1.0,1.0,450.486898422,3.0,part_1,,,,,,,,,,,,,cyan,line
2.0,1,4.0,4.0,384.690999985,3.0,part_1,,,,,,,,,,,,,gray,cross
2.0,0,4.0,4.0,317.507982254,3.0,part_1,,,,,,,,,,,,,blue,flipped triangle
0.5,0,4.0,4.0,350.823163986,3.0,part_1,,,,,,,,,,,,,yellow,circle
4.0,1,3.0,3.0,367.39182472199997,3.0,part_1,,,,,,,,,,,,,magenta,triangle
4.0,0,3.0,3.0,383.903980255,3.0,part_1,,,,,,,,,,,,,orange,diamond
0.5,0,2.0,2.0,350.79407691999995,3.0,part_1,,,,,,,,,,,,,yellow,circle
0.5,0,4.0,4.0,350.651025772,3.0,part_1,,,,,,,,,,,,,yellow,circle
1.0,0,3.0,3.0,350.59595108,3.0,part_1,,,,,,,,,,,,,white,hexagon
0.5,1,3.0,3.0,417.620897293,4.0,part_1,,,,,,,,,,,,,cyan,line
0.5,1,3.0,3.0,351.073026657,4.0,part_1,,,,,,,,,,,,,cyan,line
0.5,1,3.0,3.0,384.33098793,4.0,part_1,,,,,,,,,,,,,cyan,line
2.0,1,4.0,4.0,350.927114487,4.0,part_1,,,,,,,,,,,,,gray,cross
0.5,0,4.0,4.0,350.811004639,4.0,part_1,,,,,,,,,,,,,yellow,circle
2.0,0,2.0,2.0,383.96596908600003,4.0,part_1,,,,,,,,,,,,,blue,flipped triangle
0.5,0,1.0,1.0,317.34299659699997,4.0,part_1,,,,,,,,,,,,,yellow,circle
0.5,1,3.0,3.0,400.449991226,4.0,part_1,,,,,,,,,,,,,cyan,line
0.5,0,3.0,3.0,367.919921875,4.0,part_1,,,,,,,,,,,,,yellow,circle
2.0,1,1.0,1.0,534.58404541,4.0,part_1,,,,,,,,,,,,,gray,cross
4.0,1,1.0,1.0,367.55895614599996,4.0,part_1,,,,,,,,,,,,,magenta,triangle
1.0,1,3.0,3.0,400.918960571,4.0,part_1,,,,,,,,,,,,,green,square
1.0,0,2.0,2.0,367.313861847,4.0,part_1,,,,,,,,,,,,,white,hexagon
4.0,0,4.0,4.0,318.037033081,4.0,part_1,,,,,,,,,,,,,orange,diamond
0.5,0,2.0,2.0,367.552995682,4.0,part_1,,,,,,,,,,,,,yellow,circle
1.0,1,3.0,3.0,300.321102142,4.0,part_1,,,,,,,,,,,,,green,square
4.0,0,3.0,3.0,367.483139038,4.0,part_1,,,,,,,,,,,,,orange,diamond
4.0,1,2.0,2.0,317.448139191,4.0,part_1,,,,,,,,,,,,,magenta,triangle
2.0,1,1.0,1.0,401.00312233,4.0,part_1,,,,,,,,,,,,,gray,cross
4.0,0,4.0,4.0,300.955057144,4.0,part_1,,,,,,,,,,,,,orange,diamond
2.0,0,2.0,2.0,367.36011505100004,4.0,part_1,,,,,,,,,,,,,blue,flipped triangle
0.5,0,3.0,3.0,350.83413124099997,4.0,part_1,,,,,,,,,,,,,yellow,circle
4.0,1,1.0,1.0,334.254980087,4.0,part_1,,,,,,,,,,,,,magenta,triangle
1.0,1,4.0,4.0,334.159135818,4.0,part_1,,,,,,,,,,,,,green,square
1.0,0,3.0,3.0,418.083906174,4.0,part_1,,,,,,,,,,,,,white,hexagon
2.0,1,4.0,4.0,350.327014923,4.0,part_1,,,,,,,,,,,,,gray,cross
0.5,0,4.0,4.0,317.23904609699997,4.0,part_1,,,,,,,,,,,,,yellow,circle
0.5,0,3.0,3.0,317.50392913800005,4.0,part_1,,,,,,,,,,,,,yellow,circle
0.5,1,1.0,1.0,317.63601303099995,4.0,part_1,,,,,,,,,,,,,cyan,line
2.0,0,2.0,2.0,400.471925735,4.0,part_1,,,,,,,,,,,,,blue,flipped triangle
4.0,0,2.0,2.0,367.668151855,4.0,part_1,,,,,,,,,,,,,orange,diamond
4.0,1,2.0,2.0,334.949016571,4.0,part_1,,,,,,,,,,,,,magenta,triangle
2.0,0,3.0,3.0,367.959976196,4.0,part_1,,,,,,,,,,,,,blue,flipped triangle
2.0,0,3.0,3.0,400.582075119,4.0,part_1,,,,,,,,,,,,,blue,flipped triangle
2.0,0,3.0,3.0,367.722034454,4.0,part_1,,,,,,,,,,,,,blue,flipped triangle
4.0,1,2.0,2.0,350.46100616499996,4.0,part_1,,,,,,,,,,,,,magenta,triangle
0.5,0,2.0,2.0,317.316055298,4.0,part_1,,,,,,,,,,,,,yellow,circle
4.0,0,1.0,1.0,334.57303047199997,4.0,part_1,,,,,,,,,,,,,orange,diamond
4.0,0,1.0,1.0,350.65197944600004,4.0,part_1,,,,,,,,,,,,,orange,diamond
1.0,1,3.0,3.0,351.06205940200005,4.0,part_1,,,,,,,,,,,,,green,square
1.0,0,4.0,4.0,384.077072144,4.0,part_1,,,,,,,,,,,,,white,hexagon
1.0,0,3.0,3.0,384.212017059,4.0,part_1,,,,,,,,,,,,,white,hexagon
1.0,1,2.0,2.0,317.497968674,4.0,part_1,,,,,,,,,,,,,green,square
2.0,0,4.0,4.0,384.20009613,4.0,part_1,,,,,,,,,,,,,blue,flipped triangle
2.0,0,1.0,1.0,584.568977356,4.0,part_1,,,,,,,,,,,,,blue,flipped triangle
2.0,1,4.0,4.0,350.754976273,4.0,part_1,,,,,,,,,,,,,gray,cross
4.0,0,1.0,1.0,334.536075592,4.0,part_1,,,,,,,,,,,,,orange,diamond
0.5,0,2.0,2.0,334.383964539,4.0,part_1,,,,,,,,,,,,,yellow,circle
1.0,0,3.0,3.0,351.31597518899997,4.0,part_1,,,,,,,,,,,,,white,hexagon
2.0,1,4.0,4.0,316.962003708,4.0,part_1,,,,,,,,,,,,,gray,cross
4.0,0,1.0,1.0,300.276041031,4.0,part_1,,,,,,,,,,,,,orange,diamond
1.0,0,4.0,4.0,333.935022354,4.0,part_1,,,,,,,,,,,,,white,hexagon
1.0,1,2.0,2.0,384.22203064,4.0,part_1,,,,,,,,,,,,,green,square
4.0,1,4.0,4.0,417.564868927,4.0,part_1,,,,,,,,,,,,,magenta,triangle
2.0,1,2.0,2.0,351.556062698,4.0,part_1,,,,,,,,,,,,,gray,cross
2.0,1,4.0,4.0,317.291975021,4.0,part_1,,,,,,,,,,,,,gray,cross
2.0,1,1.0,1.0,468.072891235,4.0,part_1,,,,,,,,,,,,,gray,cross
0.5,1,2.0,2.0,334.380149841,4.0,part_1,,,,,,,,,,,,,cyan,line
2.0,1,3.0,3.0,384.856939316,4.0,part_1,,,,,,,,,,,,,gray,cross
2.0,1,3.0,3.0,367.438077927,4.0,part_1,,,,,,,,,,,,,gray,cross
0.5,1,2.0,2.0,300.39596557600004,4.0,part_1,,,,,,,,,,,,,cyan,line
2.0,0,4.0,4.0,367.261171341,4.0,part_1,,,,,,,,,,,,,blue,flipped triangle
2.0,1,1.0,1.0,384.790897369,4.0,part_1,,,,,,,,,,,,,gray,cross
4.0,0,3.0,3.0,367.11907386800004,4.0,part_1,,,,,,,,,,,,,orange,diamond
2.0,0,1.0,1.0,317.682027817,4.0,part_1,,,,,,,,,,,,,blue,flipped triangle
4.0,1,4.0,4.0,317.326068878,4.0,part_1,,,,,,,,,,,,,magenta,triangle
4.0,1,1.0,1.0,285.137891769,4.0,part_1,,,,,,,,,,,,,magenta,triangle
1.0,1,4.0,4.0,318.171977997,4.0,part_1,,,,,,,,,,,,,green,square
4.0,0,4.0,4.0,351.06492042499997,4.0,part_1,,,,,,,,,,,,,orange,diamond
0.5,1,1.0,1.0,334.066152573,4.0,part_1,,,,,,,,,,,,,cyan,line
2.0,1,2.0,2.0,351.048946381,4.0,part_1,,,,,,,,,,,,,gray,cross
0.5,0,3.0,3.0,801.5570640560001,4.0,part_1,,,,,,,,,,,,,yellow,circle
2.0,0,2.0,2.0,334.172010422,4.0,part_1,,,,,,,,,,,,,blue,flipped triangle
4.0,0,2.0,2.0,367.516994476,4.0,part_1,,,,,,,,,,,,,orange,diamond
2.0,1,3.0,3.0,417.819976807,4.0,part_1,,,,,,,,,,,,,gray,cross
0.5,1,1.0,1.0,367.818832397,4.0,part_1,,,,,,,,,,,,,cyan,line
1.0,0,1.0,1.0,334.542036057,4.0,part_1,,,,,,,,,,,,,white,hexagon
2.0,0,4.0,4.0,384.218931198,4.0,part_1,,,,,,,,,,,,,blue,flipped triangle
0.5,0,1.0,1.0,267.228126526,4.0,part_1,,,,,,,,,,,,,yellow,circle
2.0,0,4.0,4.0,350.974082947,4.0,part_1,,,,,,,,,,,,,blue,flipped triangle
0.5,1,1.0,1.0,367.85101890600004,4.0,part_1,,,,,,,,,,,,,cyan,line
4.0,0,2.0,2.0,384.485006332,4.0,part_1,,,,,,,,,,,,,orange,diamond
1.0,0,4.0,4.0,484.376192093,4.0,part_1,,,,,,,,,,,,,white,hexagon
0.5,1,3.0,3.0,383.949995041,4.0,part_1,,,,,,,,,,,,,cyan,line
4.0,1,4.0,4.0,334.06710624699997,4.0,part_1,,,,,,,,,,,,,magenta,triangle
1.0,0,2.0,2.0,317.854166031,4.0,part_1,,,,,,,,,,,,,white,hexagon
0.5,1,3.0,3.0,317.10410118100003,4.0,part_1,,,,,,,,,,,,,cyan,line
4.0,0,2.0,2.0,350.804805756,4.0,part_1,,,,,,,,,,,,,orange,diamond
0.5,0,1.0,1.0,367.447137833,4.0,part_1,,,,,,,,,,,,,yellow,circle
2.0,0,1.0,1.0,384.487867355,4.0,part_1,,,,,,,,,,,,,blue,flipped triangle
4.0,1,2.0,2.0,334.2628479,4.0,part_1,,,,,,,,,,,,,magenta,triangle
0.5,0,2.0,2.0,334.344148636,4.0,part_1,,,,,,,,,,,,,yellow,circle
2.0,1,4.0,4.0,400.38895607,4.0,part_1,,,,,,,,,,,,,gray,cross
4.0,0,3.0,3.0,350.687026978,4.0,part_1,,,,,,,,,,,,,orange,diamond
1.0,0,4.0,4.0,417.862892151,4.0,part_1,,,,,,,,,,,,,white,hexagon
1.0,1,4.0,4.0,434.65709686300005,4.0,part_1,,,,,,,,,,,,,green,square
2.0,0,1.0,1.0,301.243066788,4.0,part_1,,,,,,,,,,,,,blue,flipped triangle
0.5,0,1.0,1.0,350.79908371,4.0,part_1,,,,,,,,,,,,,yellow,circle
4.0,1,1.0,1.0,317.094802856,4.0,part_1,,,,,,,,,,,,,magenta,triangle
0.5,0,2.0,2.0,350.521087646,4.0,part_1,,,,,,,,,,,,,yellow,circle
0.5,1,5.0,5.0,300.387859344,1.0,part_2,go,250.0,250.0,1.0,,,,,,,,,cyan,line
0.5,1,5.0,5.0,367.475986481,1.0,part_2,go,250.0,250.0,1.0,,,,,,,,,cyan,line
4.0,0,6.0,6.0,501.16419792199997,1.0,part_2,go,250.0,250.0,1.0,,,,,,,,,orange,diamond
2.0,1,6.0,6.0,367.25592613199996,1.0,part_2,go,250.0,250.0,1.0,,,,,,,,,gray,cross
2.0,1,6.0,0.0,,1.0,part_2,stop,250.0,250.0,4.0,,,,,,,,,gray,cross
0.5,0,5.0,5.0,317.881822586,1.0,part_2,go,250.0,250.0,1.0,,,,,,,,,yellow,circle
4.0,1,5.0,5.0,300.662994385,1.0,part_2,stop,250.0,250.0,3.0,,,,,,,,,magenta,triangle
4.0,0,5.0,5.0,584.187030792,1.0,part_2,go,250.0,250.0,1.0,,,,,,,,,orange,diamond
4.0,0,6.0,6.0,317.425012589,1.0,part_2,go,250.0,250.0,1.0,,,,,,,,,orange,diamond
0.5,1,6.0,6.0,484.41600799599996,1.0,part_2,go,250.0,250.0,1.0,,,,,,,,,cyan,line
0.5,1,6.0,6.0,517.786979675,1.0,part_2,stop,250.0,300.0,3.0,,,,,,,,,cyan,line
0.5,1,6.0,0.0,,1.0,part_2,stop,250.0,250.0,4.0,,,,,,,,,cyan,line
1.0,1,5.0,0.0,,1.0,part_2,stop,200.0,250.0,4.0,,,,,,,,,green,square
4.0,1,5.0,0.0,,1.0,part_2,stop,250.0,250.0,4.0,,,,,,,,,magenta,triangle
0.5,1,6.0,0.0,,1.0,part_2,stop,250.0,300.0,4.0,,,,,,,,,cyan,line
2.0,0,5.0,5.0,784.818172455,1.0,part_2,go,250.0,300.0,1.0,,,,,,,,,blue,flipped triangle
0.5,1,6.0,0.0,,1.0,part_2,stop,250.0,350.0,4.0,,,,,,,,,cyan,line
4.0,0,6.0,6.0,567.836046219,1.0,part_2,go,250.0,350.0,1.0,,,,,,,,,orange,diamond
4.0,0,5.0,5.0,550.901174545,1.0,part_2,go,250.0,350.0,1.0,,,,,,,,,orange,diamond
1.0,0,5.0,5.0,667.433023453,1.0,part_2,go,250.0,350.0,1.0,,,,,,,,,white,hexagon
1.0,1,6.0,6.0,500.83494186400003,1.0,part_2,stop,250.0,400.0,3.0,,,,,,,,,green,square
1.0,1,6.0,6.0,884.963989258,1.0,part_2,go,250.0,400.0,1.0,,,,,,,,,green,square
2.0,0,5.0,5.0,500.733137131,1.0,part_2,go,250.0,400.0,1.0,,,,,,,,,blue,flipped triangle
0.5,0,5.0,5.0,451.208114624,1.0,part_2,go,250.0,400.0,1.0,,,,,,,,,yellow,circle
1.0,1,6.0,0.0,,1.0,part_2,stop,250.0,350.0,4.0,,,,,,,,,green,square
4.0,0,5.0,5.0,651.4818668370001,1.0,part_2,go,250.0,350.0,1.0,,,,,,,,,orange,diamond
2.0,0,6.0,6.0,767.6439285280001,1.0,part_2,go,250.0,350.0,1.0,,,,,,,,,blue,flipped triangle
0.5,1,5.0,0.0,,1.0,part_2,stop,300.0,350.0,4.0,,,,,,,,,cyan,line
0.5,1,5.0,0.0,,1.0,part_2,stop,350.0,350.0,4.0,,,,,,,,,cyan,line
2.0,0,6.0,6.0,701.364040375,1.0,part_2,go,350.0,350.0,1.0,,,,,,,,,blue,flipped triangle
0.5,1,6.0,0.0,,1.0,part_2,stop,350.0,400.0,4.0,,,,,,,,,cyan,line
2.0,1,6.0,6.0,818.164110184,1.0,part_2,go,350.0,400.0,1.0,,,,,,,,,gray,cross
2.0,1,5.0,0.0,,1.0,part_2,stop,400.0,400.0,4.0,,,,,,,,,gray,cross
4.0,0,5.0,5.0,834.733009338,1.0,part_2,go,400.0,400.0,1.0,,,,,,,,,orange,diamond
0.5,0,5.0,5.0,768.037080765,1.0,part_2,go,400.0,400.0,1.0,,,,,,,,,yellow,circle
4.0,0,6.0,6.0,667.894124985,1.0,part_2,go,400.0,400.0,1.0,,,,,,,,,orange,diamond
2.0,0,5.0,5.0,351.099967957,2.0,part_2,go,400.0,400.0,1.0,,,,,,,,,blue,flipped triangle
1.0,1,6.0,6.0,584.495067596,2.0,part_2,stop,400.0,450.0,3.0,,,,,,,,,green,square
1.0,1,6.0,6.0,567.484140396,2.0,part_2,stop,400.0,400.0,3.0,,,,,,,,,green,square
4.0,1,6.0,0.0,,2.0,part_2,stop,400.0,350.0,4.0,,,,,,,,,magenta,triangle
4.0,1,6.0,0.0,,2.0,part_2,stop,400.0,400.0,4.0,,,,,,,,,magenta,triangle
2.0,0,6.0,6.0,751.3339519499999,2.0,part_2,go,400.0,400.0,1.0,,,,,,,,,blue,flipped triangle
1.0,0,6.0,6.0,768.318891525,2.0,part_2,go,400.0,400.0,1.0,,,,,,,,,white,hexagon
2.0,1,5.0,5.0,550.99606514,2.0,part_2,stop,450.0,400.0,3.0,,,,,,,,,gray,cross
1.0,0,6.0,6.0,767.8279876710001,2.0,part_2,go,450.0,400.0,1.0,,,,,,,,,white,hexagon
0.5,0,6.0,6.0,801.218986511,2.0,part_2,go,450.0,400.0,1.0,,,,,,,,,yellow,circle
2.0,0,6.0,6.0,784.76691246,2.0,part_2,go,450.0,400.0,1.0,,,,,,,,,blue,flipped triangle
2.0,1,5.0,0.0,,2.0,part_2,stop,400.0,400.0,4.0,,,,,,,,,gray,cross
1.0,0,5.0,5.0,901.4370441440001,2.0,part_2,go,400.0,400.0,1.0,,,,,,,,,white,hexagon
0.5,0,5.0,5.0,518.032073975,2.0,part_2,go,400.0,400.0,1.0,,,,,,,,,yellow,circle
4.0,1,6.0,0.0,,2.0,part_2,stop,400.0,450.0,4.0,,,,,,,,,magenta,triangle
2.0,0,5.0,5.0,667.757034302,2.0,part_2,go,400.0,450.0,1.0,,,,,,,,,blue,flipped triangle
1.0,1,5.0,0.0,,2.0,part_2,stop,450.0,450.0,4.0,,,,,,,,,green,square
4.0,0,5.0,5.0,701.44200325,2.0,part_2,go,450.0,450.0,1.0,,,,,,,,,orange,diamond
4.0,1,5.0,5.0,717.78011322,2.0,part_2,go,450.0,450.0,1.0,,,,,,,,,magenta,triangle
0.5,0,5.0,5.0,867.910146713,2.0,part_2,go,450.0,450.0,1.0,,,,,,,,,yellow,circle
2.0,1,6.0,0.0,,2.0,part_2,stop,450.0,500.0,4.0,,,,,,,,,gray,cross
1.0,1,5.0,5.0,784.508943558,2.0,part_2,go,450.0,500.0,1.0,,,,,,,,,green,square
1.0,0,6.0,6.0,718.31202507,2.0,part_2,go,450.0,500.0,1.0,,,,,,,,,white,hexagon
0.5,0,5.0,5.0,717.9329395289999,2.0,part_2,go,450.0,500.0,1.0,,,,,,,,,yellow,circle
1.0,0,6.0,6.0,551.223039627,2.0,part_2,go,450.0,500.0,1.0,,,,,,,,,white,hexagon
2.0,1,6.0,6.0,450.460910797,2.0,part_2,stop,450.0,550.0,3.0,,,,,,,,,gray,cross
4.0,1,5.0,5.0,701.7021179200001,2.0,part_2,go,450.0,550.0,1.0,,,,,,,,,magenta,triangle
4.0,1,6.0,0.0,,2.0,part_2,stop,450.0,500.0,4.0,,,,,,,,,magenta,triangle
4.0,0,5.0,5.0,651.052951813,2.0,part_2,go,450.0,500.0,1.0,,,,,,,,,orange,diamond
4.0,1,5.0,0.0,,2.0,part_2,stop,500.0,500.0,4.0,,,,,,,,,magenta,triangle
1.0,0,5.0,5.0,734.488010406,2.0,part_2,go,500.0,500.0,1.0,,,,,,,,,white,hexagon
2.0,1,5.0,0.0,,2.0,part_2,stop,550.0,500.0,4.0,,,,,,,,,gray,cross
1.0,1,6.0,0.0,,2.0,part_2,stop,550.0,550.0,4.0,,,,,,,,,green,square
4.0,1,6.0,0.0,,2.0,part_2,stop,550.0,600.0,4.0,,,,,,,,,magenta,triangle
0.5,1,6.0,0.0,,2.0,part_2,stop,550.0,650.0,4.0,,,,,,,,,cyan,line
2.0,0,5.0,5.0,851.696014404,2.0,part_2,go,550.0,650.0,1.0,,,,,,,,,blue,flipped triangle
0.5,1,5.0,5.0,401.03197097799995,3.0,part_2,stop,600.0,650.0,3.0,,,,,,,,,cyan,line
2.0,1,5.0,5.0,400.795936584,3.0,part_2,stop,550.0,650.0,3.0,,,,,,,,,gray,cross
1.0,1,5.0,5.0,567.887067795,3.0,part_2,stop,500.0,650.0,3.0,,,,,,,,,green,square
4.0,1,5.0,5.0,667.6101684570001,3.0,part_2,go,500.0,650.0,1.0,,,,,,,,,magenta,triangle
2.0,0,5.0,5.0,684.3309402470001,3.0,part_2,go,500.0,650.0,1.0,,,,,,,,,blue,flipped triangle
0.5,1,5.0,5.0,618.1838512420001,3.0,part_2,stop,450.0,650.0,3.0,,,,,,,,,cyan,line
1.0,0,6.0,6.0,718.0371284480001,3.0,part_2,go,450.0,650.0,1.0,,,,,,,,,white,hexagon
2.0,0,6.0,6.0,701.0049819950001,3.0,part_2,go,450.0,650.0,1.0,,,,,,,,,blue,flipped triangle
1.0,1,6.0,6.0,667.2620773320001,3.0,part_2,go,450.0,650.0,1.0,,,,,,,,,green,square
0.5,1,5.0,0.0,,3.0,part_2,stop,400.0,650.0,4.0,,,,,,,,,cyan,line
0.5,1,5.0,5.0,734.816074371,3.0,part_2,go,400.0,650.0,1.0,,,,,,,,,cyan,line
2.0,1,6.0,6.0,617.779016495,3.0,part_2,go,400.0,650.0,1.0,,,,,,,,,gray,cross
2.0,0,6.0,6.0,717.594146729,3.0,part_2,go,400.0,650.0,1.0,,,,,,,,,blue,flipped triangle
4.0,1,6.0,6.0,567.34418869,3.0,part_2,stop,400.0,700.0,3.0,,,,,,,,,magenta,triangle
1.0,1,6.0,6.0,801.682949066,3.0,part_2,stop,400.0,650.0,3.0,,,,,,,,,green,square
4.0,1,5.0,5.0,834.458112717,3.0,part_2,go,400.0,650.0,1.0,,,,,,,,,magenta,triangle
4.0,1,5.0,0.0,,3.0,part_2,stop,450.0,650.0,4.0,,,,,,,,,magenta,triangle
4.0,1,5.0,0.0,,3.0,part_2,stop,500.0,650.0,4.0,,,,,,,,,magenta,triangle
2.0,0,6.0,6.0,701.18188858,3.0,part_2,go,500.0,650.0,1.0,,,,,,,,,blue,flipped triangle
2.0,0,5.0,5.0,967.8878784179999,3.0,part_2,go,500.0,650.0,1.0,,,,,,,,,blue,flipped triangle
0.5,0,5.0,5.0,917.762994766,3.0,part_2,go,500.0,650.0,1.0,,,,,,,,,yellow,circle
1.0,1,5.0,5.0,751.94811821,3.0,part_2,stop,550.0,650.0,3.0,,,,,,,,,green,square
0.5,1,6.0,0.0,,3.0,part_2,stop,550.0,600.0,4.0,,,,,,,,,cyan,line
4.0,0,5.0,5.0,917.8879261019999,3.0,part_2,go,550.0,600.0,1.0,,,,,,,,,orange,diamond
4.0,1,5.0,0.0,,3.0,part_2,stop,500.0,600.0,4.0,,,,,,,,,magenta,triangle
4.0,0,6.0,6.0,634.37795639,3.0,part_2,go,500.0,600.0,1.0,,,,,,,,,orange,diamond
2.0,1,6.0,6.0,751.389026642,3.0,part_2,go,500.0,600.0,1.0,,,,,,,,,gray,cross
4.0,0,6.0,6.0,551.097869873,3.0,part_2,go,500.0,600.0,1.0,,,,,,,,,orange,diamond
4.0,1,6.0,6.0,400.665998459,3.0,part_2,go,500.0,600.0,1.0,,,,,,,,,magenta,triangle
1.0,0,6.0,6.0,618.0369853970001,3.0,part_2,go,500.0,600.0,1.0,,,,,,,,,white,hexagon
1.0,0,6.0,6.0,617.919921875,3.0,part_2,go,500.0,600.0,1.0,,,,,,,,,white,hexagon
4.0,1,6.0,6.0,517.465114594,3.0,part_2,go,500.0,600.0,1.0,,,,,,,,,magenta,triangle
1.0,1,6.0,6.0,484.272956848,3.0,part_2,stop,500.0,650.0,3.0,,,,,,,,,green,square
1.0,0,5.0,5.0,768.022060394,3.0,part_2,go,500.0,650.0,1.0,,,,,,,,,white,hexagon
2.0,1,6.0,6.0,751.448869705,3.0,part_2,stop,500.0,600.0,3.0,,,,,,,,,gray,cross
1.0,0,5.0,5.0,784.43813324,3.0,part_2,go,500.0,600.0,1.0,,,,,,,,,white,hexagon
0.5,0,5.0,5.0,383.70013237,4.0,part_2,go,500.0,600.0,1.0,,,,,,,,,yellow,circle
4.0,1,5.0,5.0,634.454011917,4.0,part_2,go,500.0,600.0,1.0,,,,,,,,,magenta,triangle
1.0,0,5.0,5.0,551.170825958,4.0,part_2,go,500.0,600.0,1.0,,,,,,,,,white,hexagon
0.5,0,5.0,5.0,484.23314094499995,4.0,part_2,go,500.0,600.0,1.0,,,,,,,,,yellow,circle
0.5,0,6.0,6.0,550.6589412689999,4.0,part_2,go,500.0,600.0,1.0,,,,,,,,,yellow,circle
1.0,0,5.0,5.0,317.29888916,4.0,part_2,go,500.0,600.0,1.0,,,,,,,,,white,hexagon
2.0,1,6.0,6.0,334.132194519,4.0,part_2,stop,500.0,550.0,3.0,,,,,,,,,gray,cross
1.0,1,5.0,0.0,,4.0,part_2,stop,550.0,550.0,4.0,,,,,,,,,green,square
1.0,0,6.0,6.0,567.720174789,4.0,part_2,go,550.0,550.0,1.0,,,,,,,,,white,hexagon
0.5,0,5.0,5.0,701.22385025,4.0,part_2,go,550.0,550.0,1.0,,,,,,,,,yellow,circle
0.5,0,6.0,6.0,567.543029785,4.0,part_2,go,550.0,550.0,1.0,,,,,,,,,yellow,circle
0.5,1,6.0,6.0,400.527000427,4.0,part_2,go,550.0,550.0,1.0,,,,,,,,,cyan,line
4.0,0,5.0,5.0,600.994825363,4.0,part_2,go,550.0,550.0,1.0,,,,,,,,,orange,diamond
2.0,1,5.0,5.0,467.247962952,4.0,part_2,stop,600.0,550.0,3.0,,,,,,,,,gray,cross
0.5,0,5.0,5.0,868.7150478359999,4.0,part_2,go,600.0,550.0,1.0,,,,,,,,,yellow,circle
1.0,1,6.0,6.0,367.44499206499995,4.0,part_2,stop,600.0,500.0,3.0,,,,,,,,,green,square
4.0,0,6.0,6.0,717.743873596,4.0,part_2,go,600.0,500.0,1.0,,,,,,,,,orange,diamond
0.5,1,5.0,5.0,501.49106979400005,4.0,part_2,go,600.0,500.0,1.0,,,,,,,,,cyan,line
4.0,0,6.0,6.0,634.3419551850001,4.0,part_2,go,600.0,500.0,1.0,,,,,,,,,orange,diamond
1.0,0,6.0,6.0,367.336988449,4.0,part_2,go,600.0,500.0,1.0,,,,,,,,,white,hexagon
2.0,1,5.0,5.0,617.7330017090001,4.0,part_2,stop,550.0,500.0,3.0,,,,,,,,,gray,cross
0.5,1,5.0,0.0,,4.0,part_2,stop,500.0,500.0,4.0,,,,,,,,,cyan,line
0.5,0,5.0,5.0,701.0149955750001,4.0,part_2,go,500.0,500.0,1.0,,,,,,,,,yellow,circle
0.5,1,6.0,0.0,,4.0,part_2,stop,500.0,450.0,4.0,,,,,,,,,cyan,line
0.5,0,5.0,5.0,801.4659881590001,4.0,part_2,go,500.0,450.0,1.0,,,,,,,,,yellow,circle
2.0,1,6.0,6.0,617.498874664,4.0,part_2,go,500.0,450.0,1.0,,,,,,,,,gray,cross
2.0,1,6.0,0.0,,4.0,part_2,stop,500.0,500.0,4.0,,,,,,,,,gray,cross
4.0,1,6.0,6.0,668.016910553,4.0,part_2,stop,500.0,550.0,3.0,,,,,,,,,magenta,triangle
2.0,0,6.0,6.0,617.974996567,4.0,part_2,go,500.0,550.0,1.0,,,,,,,,,blue,flipped triangle
2.0,1,5.0,5.0,900.957107544,4.0,part_2,go,500.0,550.0,1.0,,,,,,,,,gray,cross
4.0,0,6.0,6.0,400.826931,4.0,part_2,go,500.0,550.0,1.0,,,,,,,,,orange,diamond
2.0,0,5.0,5.0,667.721986771,4.0,part_2,go,500.0,550.0,1.0,,,,,,,,,blue,flipped triangle
2.0,1,5.0,0.0,,4.0,part_2,stop,550.0,550.0,4.0,,,,,,,,,gray,cross
1.0,1,6.0,0.0,,4.0,part_2,stop,550.0,500.0,4.0,,,,,,,,,green,square
0.5,0,6.0,6.0,767.504930496,4.0,part_2,go,550.0,500.0,1.0,,,,,,,,,yellow,circle
2.0,1,6.0,6.0,684.185028076,4.0,part_2,stop,550.0,550.0,3.0,,,,,,,,,gray,cross
1.0,1,5.0,5.0,434.45396423299997,5.0,part_2,stop,600.0,550.0,3.0,,,,,,,,,green,square
1.0,0,5.0,5.0,384.155035019,5.0,part_2,go,600.0,550.0,1.0,,,,,,,,,white,hexagon
2.0,0,5.0,5.0,401.304960251,5.0,part_2,go,600.0,550.0,1.0,,,,,,,,,blue,flipped triangle
0.5,0,6.0,6.0,567.682027817,5.0,part_2,go,600.0,550.0,1.0,,,,,,,,,yellow,circle
1.0,0,6.0,6.0,416.975975037,5.0,part_2,go,600.0,550.0,1.0,,,,,,,,,white,hexagon
2.0,1,6.0,6.0,351.401805878,5.0,part_2,go,600.0,550.0,1.0,,,,,,,,,gray,cross
4.0,0,5.0,5.0,333.89401435900004,5.0,part_2,go,600.0,550.0,1.0,,,,,,,,,orange,diamond
4.0,0,5.0,5.0,383.88514518700003,5.0,part_2,go,600.0,550.0,1.0,,,,,,,,,orange,diamond
4.0,1,5.0,5.0,384.345054626,5.0,part_2,stop,550.0,550.0,3.0,,,,,,,,,magenta,triangle
4.0,1,6.0,6.0,584.576129913,5.0,part_2,stop,550.0,500.0,3.0,,,,,,,,,magenta,triangle
1.0,1,6.0,6.0,684.437990189,5.0,part_2,go,550.0,500.0,1.0,,,,,,,,,green,square
2.0,0,6.0,6.0,518.0230140689999,5.0,part_2,go,550.0,500.0,1.0,,,,,,,,,blue,flipped triangle
4.0,1,6.0,6.0,551.148176193,5.0,part_2,stop,550.0,450.0,3.0,,,,,,,,,magenta,triangle
0.5,1,5.0,5.0,700.9830474849999,5.0,part_2,stop,500.0,450.0,3.0,,,,,,,,,cyan,line
1.0,0,6.0,6.0,667.8090095519999,5.0,part_2,go,500.0,450.0,1.0,,,,,,,,,white,hexagon
1.0,0,6.0,6.0,568.01199913,5.0,part_2,go,500.0,450.0,1.0,,,,,,,,,white,hexagon
2.0,1,5.0,5.0,550.443887711,5.0,part_2,stop,450.0,450.0,3.0,,,,,,,,,gray,cross
1.0,0,5.0,5.0,951.699972153,5.0,part_2,go,450.0,450.0,1.0,,,,,,,,,white,hexagon
4.0,1,5.0,0.0,,5.0,part_2,stop,400.0,450.0,4.0,,,,,,,,,magenta,triangle
2.0,0,6.0,6.0,701.105833054,5.0,part_2,go,400.0,450.0,1.0,,,,,,,,,blue,flipped triangle
0.5,0,5.0,5.0,700.766086578,5.0,part_2,go,400.0,450.0,1.0,,,,,,,,,yellow,circle
2.0,0,5.0,5.0,667.870998383,5.0,part_2,go,400.0,450.0,1.0,,,,,,,,,blue,flipped triangle
1.0,1,5.0,0.0,,5.0,part_2,stop,450.0,450.0,4.0,,,,,,,,,green,square
1.0,0,5.0,5.0,751.131057739,5.0,part_2,go,450.0,450.0,1.0,,,,,,,,,white,hexagon
4.0,0,5.0,5.0,718.0211544040001,5.0,part_2,go,450.0,450.0,1.0,,,,,,,,,orange,diamond
0.5,0,5.0,5.0,501.247882843,5.0,part_2,go,450.0,450.0,1.0,,,,,,,,,yellow,circle
4.0,0,6.0,6.0,650.753974915,5.0,part_2,go,450.0,450.0,1.0,,,,,,,,,orange,diamond
2.0,0,6.0,6.0,584.3329429629999,5.0,part_2,go,450.0,450.0,1.0,,,,,,,,,blue,flipped triangle
0.5,0,5.0,5.0,618.236064911,5.0,part_2,go,450.0,450.0,1.0,,,,,,,,,yellow,circle
4.0,1,6.0,0.0,,5.0,part_2,stop,450.0,400.0,4.0,,,,,,,,,magenta,triangle
1.0,1,6.0,0.0,,5.0,part_2,stop,450.0,450.0,4.0,,,,,,,,,green,square
4.0,0,6.0,6.0,650.954961777,5.0,part_2,go,450.0,450.0,1.0,,,,,,,,,orange,diamond
2.0,1,6.0,6.0,584.5210552220001,5.0,part_2,stop,450.0,500.0,3.0,,,,,,,,,gray,cross
0.5,1,6.0,6.0,367.58399009699997,5.0,part_2,go,450.0,500.0,1.0,,,,,,,,,cyan,line
1.0,0,5.0,5.0,317.879915237,5.0,part_2,go,450.0,500.0,1.0,,,,,,,,,white,hexagon
1.0,0,6.0,6.0,350.929021835,5.0,part_2,go,450.0,500.0,1.0,,,,,,,,,white,hexagon
1.0,0,5.0,5.0,350.84795951800004,6.0,part_2,go,450.0,500.0,1.0,,,,,,,,,white,hexagon
1.0,1,5.0,5.0,484.33208465599995,6.0,part_2,stop,500.0,500.0,3.0,,,,,,,,,green,square
1.0,0,5.0,5.0,584.465026855,6.0,part_2,go,500.0,500.0,1.0,,,,,,,,,white,hexagon
2.0,1,5.0,5.0,484.19499397299995,6.0,part_2,go,500.0,500.0,1.0,,,,,,,,,gray,cross
1.0,0,6.0,6.0,584.6810340879999,6.0,part_2,go,500.0,500.0,1.0,,,,,,,,,white,hexagon
4.0,0,6.0,6.0,417.860031128,6.0,part_2,go,500.0,500.0,1.0,,,,,,,,,orange,diamond
2.0,0,5.0,5.0,383.616924286,6.0,part_2,go,500.0,500.0,1.0,,,,,,,,,blue,flipped triangle
0.5,0,5.0,5.0,417.760133743,6.0,part_2,go,500.0,500.0,1.0,,,,,,,,,yellow,circle
4.0,1,6.0,6.0,567.795991898,6.0,part_2,stop,500.0,450.0,3.0,,,,,,,,,magenta,triangle
2.0,0,6.0,6.0,818.325996399,6.0,part_2,go,500.0,450.0,1.0,,,,,,,,,blue,flipped triangle
2.0,0,6.0,6.0,685.156106949,6.0,part_2,go,500.0,450.0,1.0,,,,,,,,,blue,flipped triangle
0.5,1,6.0,6.0,651.5259742740001,6.0,part_2,go,500.0,450.0,1.0,,,,,,,,,cyan,line
0.5,0,6.0,6.0,584.449052811,6.0,part_2,go,500.0,450.0,1.0,,,,,,,,,yellow,circle
4.0,0,6.0,6.0,417.680025101,6.0,part_2,go,500.0,450.0,1.0,,,,,,,,,orange,diamond
2.0,0,5.0,5.0,600.664138794,6.0,part_2,go,500.0,450.0,1.0,,,,,,,,,blue,flipped triangle
2.0,1,5.0,5.0,367.72799491899997,6.0,part_2,stop,450.0,450.0,3.0,,,,,,,,,gray,cross
1.0,1,6.0,6.0,334.607839584,6.0,part_2,stop,450.0,400.0,3.0,,,,,,,,,green,square
4.0,1,6.0,6.0,667.6790714260001,6.0,part_2,go,450.0,400.0,1.0,,,,,,,,,magenta,triangle
4.0,0,5.0,5.0,483.976125717,6.0,part_2,go,450.0,400.0,1.0,,,,,,,,,orange,diamond
1.0,0,6.0,6.0,550.825119019,6.0,part_2,go,450.0,400.0,1.0,,,,,,,,,white,hexagon
0.5,0,5.0,5.0,617.37203598,6.0,part_2,go,450.0,400.0,1.0,,,,,,,,,yellow,circle
1.0,0,6.0,6.0,401.172876358,6.0,part_2,go,450.0,400.0,1.0,,,,,,,,,white,hexagon
2.0,1,5.0,5.0,467.486143112,6.0,part_2,stop,400.0,400.0,3.0,,,,,,,,,gray,cross
0.5,1,5.0,5.0,484.078884125,6.0,part_2,stop,350.0,400.0,3.0,,,,,,,,,cyan,line
2.0,0,5.0,5.0,684.397935867,6.0,part_2,go,350.0,400.0,1.0,,,,,,,,,blue,flipped triangle
1.0,1,5.0,0.0,,6.0,part_2,stop,300.0,400.0,4.0,,,,,,,,,green,square
0.5,0,6.0,6.0,518.352031708,6.0,part_2,go,300.0,400.0,1.0,,,,,,,,,yellow,circle
2.0,0,5.0,5.0,518.466949463,6.0,part_2,go,300.0,400.0,1.0,,,,,,,,,blue,flipped triangle
1.0,0,5.0,5.0,550.939083099,6.0,part_2,go,300.0,400.0,1.0,,,,,,,,,white,hexagon
1.0,1,5.0,5.0,450.930833817,6.0,part_2,stop,350.0,400.0,3.0,,,,,,,,,green,square
1.0,0,6.0,6.0,601.149082184,6.0,part_2,go,350.0,400.0,1.0,,,,,,,,,white,hexagon
0.5,0,5.0,5.0,701.4429569240001,6.0,part_2,go,350.0,400.0,1.0,,,,,,,,,yellow,circle
4.0,1,6.0,6.0,351.691961288,6.0,part_2,stop,350.0,350.0,3.0,,,,,,,,,magenta,triangle
2.0,1,6.0,0.0,,6.0,part_2,stop,350.0,300.0,4.0,,,,,,,,,gray,cross
4.0,0,6.0,6.0,501.131057739,6.0,part_2,go,350.0,300.0,1.0,,,,,,,,,orange,diamond
2.0,1,6.0,0.0,,6.0,part_2,stop,350.0,350.0,4.0,,,,,,,,,gray,cross
4.0,0,6.0,6.0,551.104784012,7.0,part_2,go,350.0,350.0,1.0,,,,,,,,,orange,diamond
1.0,1,5.0,5.0,634.583950043,7.0,part_2,go,350.0,350.0,1.0,,,,,,,,,green,square
0.5,1,5.0,5.0,450.77586174,7.0,part_2,stop,300.0,350.0,3.0,,,,,,,,,cyan,line
0.5,0,5.0,5.0,567.2910213470001,7.0,part_2,go,300.0,350.0,1.0,,,,,,,,,yellow,circle
2.0,0,6.0,6.0,500.955820084,7.0,part_2,go,300.0,350.0,1.0,,,,,,,,,blue,flipped triangle
2.0,1,6.0,6.0,467.63491630600004,7.0,part_2,stop,300.0,400.0,3.0,,,,,,,,,gray,cross
1.0,0,5.0,5.0,550.956964493,7.0,part_2,go,300.0,400.0,1.0,,,,,,,,,white,hexagon
0.5,0,5.0,5.0,567.6841735840001,7.0,part_2,go,300.0,400.0,1.0,,,,,,,,,yellow,circle
2.0,1,6.0,6.0,501.044034958,7.0,part_2,stop,300.0,350.0,3.0,,,,,,,,,gray,cross
2.0,0,6.0,6.0,634.8509788509999,7.0,part_2,go,300.0,350.0,1.0,,,,,,,,,blue,flipped triangle
0.5,1,6.0,0.0,,7.0,part_2,stop,300.0,300.0,4.0,,,,,,,,,cyan,line
2.0,0,6.0,6.0,584.2630863190001,7.0,part_2,go,300.0,300.0,1.0,,,,,,,,,blue,flipped triangle
0.5,0,6.0,6.0,600.3949642179999,7.0,part_2,go,300.0,300.0,1.0,,,,,,,,,yellow,circle
0.5,0,6.0,6.0,651.432037354,7.0,part_2,go,300.0,300.0,1.0,,,,,,,,,yellow,circle
1.0,1,6.0,0.0,,7.0,part_2,stop,300.0,350.0,4.0,,,,,,,,,green,square
1.0,1,5.0,0.0,,7.0,part_2,stop,250.0,350.0,4.0,,,,,,,,,green,square
2.0,1,5.0,0.0,,7.0,part_2,stop,300.0,350.0,4.0,,,,,,,,,gray,cross
2.0,1,6.0,0.0,,7.0,part_2,stop,300.0,400.0,4.0,,,,,,,,,gray,cross
4.0,1,5.0,5.0,567.383050919,7.0,part_2,go,300.0,400.0,1.0,,,,,,,,,magenta,triangle
1.0,1,5.0,5.0,517.7969932560001,7.0,part_2,go,300.0,400.0,1.0,,,,,,,,,green,square
0.5,0,5.0,5.0,551.2740612030001,7.0,part_2,go,300.0,400.0,1.0,,,,,,,,,yellow,circle
0.5,1,5.0,0.0,,7.0,part_2,stop,350.0,400.0,4.0,,,,,,,,,cyan,line
2.0,0,5.0,5.0,701.066017151,7.0,part_2,go,350.0,400.0,1.0,,,,,,,,,blue,flipped triangle
4.0,0,5.0,5.0,601.024866104,7.0,part_2,go,350.0,400.0,1.0,,,,,,,,,orange,diamond
1.0,0,6.0,6.0,600.6429195400001,7.0,part_2,go,350.0,400.0,1.0,,,,,,,,,white,hexagon
0.5,1,5.0,5.0,401.218891144,7.0,part_2,stop,400.0,400.0,3.0,,,,,,,,,cyan,line
1.0,1,6.0,6.0,717.571020126,7.0,part_2,go,400.0,400.0,1.0,,,,,,,,,green,square
0.5,0,6.0,6.0,851.151943207,7.0,part_2,go,400.0,400.0,1.0,,,,,,,,,yellow,circle
0.5,0,5.0,5.0,533.845901489,7.0,part_2,go,400.0,400.0,1.0,,,,,,,,,yellow,circle
2.0,1,6.0,6.0,700.99401474,7.0,part_2,go,400.0,400.0,1.0,,,,,,,,,gray,cross
1.0,1,5.0,0.0,,7.0,part_2,stop,350.0,400.0,4.0,,,,,,,,,green,square
1.0,1,6.0,6.0,568.52889061,7.0,part_2,stop,350.0,450.0,3.0,,,,,,,,,green,square
0.5,0,5.0,5.0,801.400899887,7.0,part_2,go,350.0,450.0,1.0,,,,,,,,,yellow,circle
1.0,0,6.0,6.0,617.904186249,7.0,part_2,go,350.0,450.0,1.0,,,,,,,,,white,hexagon
1.0,0,6.0,6.0,718.1990146640001,7.0,part_2,go,350.0,450.0,1.0,,,,,,,,,white,hexagon
2.0,0,5.0,5.0,550.7102012629999,7.0,part_2,go,350.0,450.0,1.0,,,,,,,,,blue,flipped triangle
1.0,1,5.0,5.0,367.57683754,8.0,part_2,stop,400.0,450.0,3.0,,,,,,,,,green,square
2.0,0,5.0,5.0,584.358930588,8.0,part_2,go,400.0,450.0,1.0,,,,,,,,,blue,flipped triangle
0.5,1,6.0,6.0,483.808040619,8.0,part_2,go,400.0,450.0,1.0,,,,,,,,,cyan,line
0.5,1,5.0,0.0,,8.0,part_2,stop,350.0,450.0,4.0,,,,,,,,,cyan,line
4.0,0,6.0,6.0,651.3988971709999,8.0,part_2,go,350.0,450.0,1.0,,,,,,,,,orange,diamond
4.0,0,6.0,6.0,417.565107346,8.0,part_2,go,350.0,450.0,1.0,,,,,,,,,orange,diamond
0.5,1,6.0,6.0,450.845956802,8.0,part_2,stop,350.0,400.0,3.0,,,,,,,,,cyan,line
4.0,1,5.0,0.0,,8.0,part_2,stop,400.0,400.0,4.0,,,,,,,,,magenta,triangle
4.0,1,5.0,0.0,,8.0,part_2,stop,450.0,400.0,4.0,,,,,,,,,magenta,triangle
1.0,1,6.0,6.0,701.282978058,8.0,part_2,go,450.0,400.0,1.0,,,,,,,,,green,square
4.0,1,6.0,0.0,,8.0,part_2,stop,450.0,350.0,4.0,,,,,,,,,magenta,triangle
0.5,1,6.0,0.0,,8.0,part_2,stop,450.0,400.0,4.0,,,,,,,,,cyan,line
4.0,1,5.0,0.0,,8.0,part_2,stop,500.0,400.0,4.0,,,,,,,,,magenta,triangle
0.5,1,6.0,0.0,,8.0,part_2,stop,500.0,450.0,4.0,,,,,,,,,cyan,line
0.5,0,5.0,5.0,617.4271106719999,8.0,part_2,go,500.0,450.0,1.0,,,,,,,,,yellow,circle
2.0,1,6.0,6.0,601.2110710139999,8.0,part_2,stop,500.0,500.0,3.0,,,,,,,,,gray,cross
4.0,1,5.0,0.0,,8.0,part_2,stop,550.0,500.0,4.0,,,,,,,,,magenta,triangle
1.0,0,5.0,5.0,835.1969718930001,8.0,part_2,go,550.0,500.0,1.0,,,,,,,,,white,hexagon
2.0,0,6.0,6.0,367.220163345,8.0,part_2,go,550.0,500.0,1.0,,,,,,,,,blue,flipped triangle
4.0,0,5.0,5.0,717.901945114,8.0,part_2,go,550.0,500.0,1.0,,,,,,,,,orange,diamond
2.0,1,5.0,5.0,668.314933777,8.0,part_2,stop,600.0,500.0,3.0,,,,,,,,,gray,cross
1.0,1,6.0,6.0,717.601060867,8.0,part_2,go,600.0,500.0,1.0,,,,,,,,,green,square
0.5,0,6.0,6.0,617.835044861,8.0,part_2,go,600.0,500.0,1.0,,,,,,,,,yellow,circle
1.0,1,6.0,0.0,,8.0,part_2,stop,600.0,450.0,4.0,,,,,,,,,green,square
4.0,0,6.0,6.0,701.83300972,8.0,part_2,go,600.0,450.0,1.0,,,,,,,,,orange,diamond
0.5,1,6.0,0.0,,8.0,part_2,stop,600.0,500.0,4.0,,,,,,,,,cyan,line
0.5,1,5.0,5.0,684.477090836,8.0,part_2,stop,550.0,500.0,3.0,,,,,,,,,cyan,line
2.0,0,5.0,5.0,785.062074661,8.0,part_2,go,550.0,500.0,1.0,,,,,,,,,blue,flipped triangle
0.5,1,5.0,0.0,,8.0,part_2,stop,500.0,500.0,4.0,,,,,,,,,cyan,line
4.0,1,6.0,0.0,,8.0,part_2,stop,500.0,550.0,4.0,,,,,,,,,magenta,triangle
4.0,0,5.0,5.0,767.8630352020001,8.0,part_2,go,500.0,550.0,1.0,,,,,,,,,orange,diamond
2.0,0,5.0,5.0,718.034029007,8.0,part_2,go,500.0,550.0,1.0,,,,,,,,,blue,flipped triangle
4.0,0,6.0,6.0,701.2271881099999,8.0,part_2,go,500.0,550.0,1.0,,,,,,,,,orange,diamond
4.0,1,5.0,0.0,,8.0,part_2,stop,550.0,550.0,4.0,,,,,,,,,magenta,triangle
4.0,0,5.0,5.0,550.997972488,8.0,part_2,go,550.0,550.0,1.0,,,,,,,,,orange,diamond
4.0,0,6.0,6.0,634.6559524539999,8.0,part_2,go,550.0,550.0,1.0,,,,,,,,,orange,diamond
2.0,0,7.0,,,1.0,part_3,go,,,,0.0,,78.0,234.0,117.0,39.0,195.0,156.0,blue,flipped triangle
1.0,0,7.0,3.0,2687.11090088,1.0,part_3,go,,,,264.0,6.0,132.0,44.0,264.0,176.0,88.0,220.0,white,hexagon
1.0,1,7.0,4.0,3487.38884926,1.0,part_3,stop,,,,204.0,6.0,34.0,68.0,170.0,204.0,102.0,136.0,green,square
1.0,1,7.0,4.0,1618.58606339,1.0,part_3,stop,,,,234.0,6.0,117.0,39.0,156.0,234.0,78.0,195.0,green,square
0.5,0,7.0,2.0,2452.43811607,1.0,part_3,go,,,,39.0,1.0,78.0,39.0,156.0,195.0,234.0,117.0,yellow,circle
0.5,1,7.0,2.0,2369.27890778,1.0,part_3,stop,,,,204.0,6.0,102.0,204.0,34.0,170.0,136.0,68.0,cyan,line
2.0,0,7.0,4.0,2802.59609222,1.0,part_3,go,,,,108.0,2.0,54.0,216.0,270.0,108.0,324.0,162.0,blue,flipped triangle
0.5,0,7.0,4.0,1785.51411629,1.0,part_3,go,,,,54.0,1.0,108.0,162.0,216.0,54.0,324.0,270.0,yellow,circle
0.5,0,7.0,4.0,1001.36995316,1.0,part_3,go,,,,34.0,1.0,68.0,204.0,136.0,34.0,170.0,102.0,yellow,circle
4.0,1,7.0,1.0,2635.93316078,1.0,part_3,stop,,,,324.0,6.0,324.0,108.0,162.0,54.0,216.0,270.0,magenta,triangle
4.0,1,7.0,6.0,3337.14699745,1.0,part_3,stop,,,,234.0,6.0,78.0,195.0,39.0,156.0,117.0,234.0,magenta,triangle
0.5,0,7.0,5.0,1835.70718765,1.0,part_3,go,,,,44.0,1.0,264.0,132.0,176.0,88.0,44.0,220.0,yellow,circle
0.5,1,7.0,5.0,2586.4930152899997,1.0,part_3,stop,,,,264.0,6.0,88.0,176.0,132.0,44.0,264.0,220.0,cyan,line
0.5,0,7.0,5.0,1434.95702744,1.0,part_3,go,,,,54.0,1.0,270.0,108.0,216.0,162.0,54.0,324.0,yellow,circle
1.0,0,7.0,3.0,2319.7090625799997,1.0,part_3,go,,,,39.0,1.0,234.0,195.0,39.0,117.0,156.0,78.0,white,hexagon
4.0,1,7.0,3.0,1919.08097267,1.0,part_3,stop,,,,294.0,6.0,49.0,245.0,294.0,147.0,98.0,196.0,magenta,triangle
4.0,1,7.0,6.0,2352.61893272,1.0,part_3,stop,,,,204.0,6.0,170.0,136.0,102.0,68.0,34.0,204.0,magenta,triangle
1.0,0,7.0,3.0,2052.75797844,1.0,part_3,go,,,,68.0,2.0,170.0,204.0,68.0,102.0,136.0,34.0,white,hexagon
2.0,0,7.0,5.0,2553.3220767999996,1.0,part_3,go,,,,147.0,3.0,49.0,245.0,294.0,196.0,147.0,98.0,blue,flipped triangle
4.0,1,7.0,6.0,2636.20305061,1.0,part_3,stop,,,,264.0,6.0,132.0,176.0,44.0,220.0,88.0,264.0,magenta,triangle
1.0,0,7.0,5.0,2736.6070747400004,2.0,part_3,go,,,,108.0,2.0,270.0,216.0,324.0,54.0,108.0,162.0,white,hexagon
2.0,0,7.0,4.0,2001.73807144,2.0,part_3,go,,,,132.0,3.0,88.0,176.0,44.0,132.0,220.0,264.0,blue,flipped triangle
0.5,1,7.0,2.0,2586.39597893,2.0,part_3,stop,,,,324.0,6.0,162.0,324.0,216.0,54.0,270.0,108.0,cyan,line
2.0,1,7.0,6.0,2219.1710472100003,2.0,part_3,stop,,,,156.0,4.0,39.0,195.0,78.0,234.0,117.0,156.0,gray,cross
2.0,0,7.0,4.0,1935.7750415799999,2.0,part_3,go,,,,162.0,3.0,270.0,216.0,54.0,162.0,324.0,108.0,blue,flipped triangle
4.0,0,7.0,1.0,2887.20703125,2.0,part_3,go,,,,117.0,3.0,117.0,234.0,78.0,156.0,195.0,39.0,orange,diamond
4.0,1,7.0,2.0,1618.475914,2.0,part_3,stop,,,,264.0,6.0,132.0,264.0,44.0,220.0,176.0,88.0,magenta,triangle
1.0,0,7.0,3.0,2602.9198169700003,2.0,part_3,go,,,,147.0,3.0,294.0,98.0,147.0,196.0,49.0,245.0,white,hexagon
4.0,0,7.0,4.0,1368.4668541,2.0,part_3,go,,,,132.0,3.0,44.0,220.0,176.0,132.0,264.0,88.0,orange,diamond
0.5,0,7.0,3.0,1851.94921494,2.0,part_3,go,,,,49.0,1.0,196.0,245.0,49.0,98.0,147.0,294.0,yellow,circle
2.0,1,7.0,1.0,3353.85489464,2.0,part_3,stop,,,,108.0,2.0,108.0,162.0,216.0,54.0,270.0,324.0,gray,cross
2.0,0,7.0,6.0,2352.81705856,2.0,part_3,go,,,,132.0,3.0,44.0,176.0,220.0,88.0,264.0,132.0,blue,flipped triangle
2.0,0,7.0,1.0,1318.42494011,2.0,part_3,go,,,,170.0,5.0,170.0,68.0,136.0,204.0,34.0,102.0,blue,flipped triangle
4.0,0,7.0,4.0,1485.0769043,2.0,part_3,go,,,,117.0,3.0,78.0,234.0,39.0,117.0,195.0,156.0,orange,diamond
1.0,0,7.0,2.0,1919.2340374,2.0,part_3,go,,,,78.0,2.0,39.0,78.0,234.0,117.0,156.0,195.0,white,hexagon
0.5,1,7.0,2.0,1952.46481895,2.0,part_3,stop,,,,245.0,5.0,98.0,245.0,196.0,294.0,147.0,49.0,cyan,line
4.0,1,7.0,6.0,2286.22412682,2.0,part_3,stop,,,,324.0,6.0,270.0,54.0,108.0,162.0,216.0,324.0,magenta,triangle
2.0,1,7.0,5.0,1451.6758918799999,2.0,part_3,stop,,,,132.0,3.0,176.0,220.0,88.0,264.0,132.0,44.0,gray,cross
4.0,0,7.0,1.0,1985.61215401,2.0,part_3,go,,,,102.0,3.0,102.0,136.0,68.0,170.0,34.0,204.0,orange,diamond
2.0,1,7.0,1.0,2068.56012344,2.0,part_3,stop,,,,108.0,2.0,108.0,54.0,162.0,324.0,216.0,270.0,gray,cross
2.0,1,7.0,4.0,2152.45485306,3.0,part_3,stop,,,,147.0,3.0,49.0,245.0,98.0,147.0,294.0,196.0,gray,cross
4.0,1,7.0,1.0,2385.7860565200003,3.0,part_3,stop,,,,204.0,6.0,204.0,102.0,34.0,136.0,170.0,68.0,magenta,triangle
1.0,1,7.0,2.0,2219.38991547,3.0,part_3,stop,,,,324.0,6.0,216.0,324.0,270.0,54.0,162.0,108.0,green,square
2.0,0,7.0,1.0,3270.51591873,3.0,part_3,go,,,,136.0,4.0,136.0,34.0,102.0,170.0,68.0,204.0,blue,flipped triangle
1.0,1,7.0,3.0,2303.0829429600003,3.0,part_3,stop,,,,270.0,5.0,324.0,162.0,270.0,54.0,216.0,108.0,green,square
2.0,0,7.0,5.0,1235.2280616799999,3.0,part_3,go,,,,245.0,5.0,196.0,147.0,98.0,294.0,245.0,49.0,blue,flipped triangle
0.5,1,7.0,1.0,1602.38599777,3.0,part_3,stop,,,,324.0,6.0,324.0,162.0,270.0,108.0,216.0,54.0,cyan,line
2.0,1,7.0,5.0,1585.10804176,3.0,part_3,stop,,,,204.0,6.0,34.0,136.0,170.0,68.0,204.0,102.0,gray,cross
1.0,0,7.0,5.0,2152.35805511,3.0,part_3,go,,,,147.0,3.0,49.0,294.0,98.0,196.0,147.0,245.0,white,hexagon
2.0,1,7.0,5.0,1585.03103256,3.0,part_3,stop,,,,170.0,5.0,204.0,68.0,34.0,136.0,170.0,102.0,gray,cross
2.0,1,7.0,3.0,2102.2510528599996,3.0,part_3,stop,,,,147.0,3.0,196.0,98.0,147.0,245.0,49.0,294.0,gray,cross
0.5,0,7.0,5.0,2252.04396248,3.0,part_3,go,,,,294.0,6.0,147.0,245.0,196.0,49.0,294.0,98.0,yellow,circle
0.5,0,7.0,6.0,2102.63204575,3.0,part_3,go,,,,264.0,6.0,88.0,132.0,220.0,176.0,44.0,264.0,yellow,circle
2.0,1,7.0,4.0,1919.04616356,3.0,part_3,stop,,,,132.0,3.0,176.0,44.0,264.0,132.0,88.0,220.0,gray,cross
0.5,1,7.0,6.0,2619.47393417,3.0,part_3,stop,,,,204.0,6.0,34.0,102.0,68.0,170.0,136.0,204.0,cyan,line
0.5,1,7.0,4.0,2002.4468898799998,3.0,part_3,stop,,,,234.0,6.0,117.0,39.0,195.0,234.0,78.0,156.0,cyan,line
1.0,1,7.0,6.0,1818.97711754,3.0,part_3,stop,,,,234.0,6.0,78.0,156.0,39.0,117.0,195.0,234.0,green,square
4.0,0,7.0,4.0,2652.4450779,3.0,part_3,go,,,,102.0,3.0,34.0,68.0,204.0,102.0,136.0,170.0,orange,diamond
0.5,0,7.0,2.0,2452.92401314,3.0,part_3,go,,,,204.0,6.0,68.0,204.0,136.0,170.0,102.0,34.0,yellow,circle
0.5,1,7.0,4.0,1601.77707672,3.0,part_3,stop,,,,264.0,6.0,44.0,220.0,132.0,264.0,88.0,176.0,cyan,line
0.5,0,7.0,5.0,3370.71800232,4.0,part_3,go,,,,78.0,2.0,39.0,195.0,234.0,156.0,78.0,117.0,yellow,circle
2.0,1,7.0,6.0,3337.0339870499997,4.0,part_3,stop,,,,117.0,3.0,39.0,156.0,195.0,234.0,78.0,117.0,gray,cross
2.0,0,7.0,5.0,1952.58402824,4.0,part_3,go,,,,117.0,3.0,195.0,156.0,39.0,78.0,117.0,234.0,blue,flipped triangle
4.0,1,7.0,1.0,2069.5459842699997,4.0,part_3,stop,,,,234.0,6.0,234.0,78.0,117.0,39.0,195.0,156.0,magenta,triangle
1.0,1,7.0,2.0,1802.1030426,4.0,part_3,stop,,,,264.0,6.0,44.0,264.0,132.0,88.0,220.0,176.0,green,square
0.5,1,7.0,3.0,2286.28396988,4.0,part_3,stop,,,,294.0,6.0,147.0,196.0,294.0,98.0,49.0,245.0,cyan,line
4.0,0,7.0,6.0,2653.3849239300002,4.0,part_3,go,,,,88.0,2.0,264.0,176.0,132.0,44.0,220.0,88.0,orange,diamond
1.0,1,7.0,1.0,1702.15606689,4.0,part_3,stop,,,,294.0,6.0,294.0,147.0,196.0,49.0,98.0,245.0,green,square
1.0,1,7.0,4.0,1568.21799278,4.0,part_3,stop,,,,264.0,6.0,132.0,176.0,44.0,264.0,88.0,220.0,green,square
1.0,0,7.0,5.0,1985.57186127,4.0,part_3,go,,,,132.0,3.0,264.0,88.0,220.0,176.0,132.0,44.0,white,hexagon
4.0,0,7.0,5.0,1585.10088921,4.0,part_3,go,,,,49.0,1.0,98.0,196.0,294.0,245.0,49.0,147.0,orange,diamond
1.0,1,7.0,5.0,2352.6380062099997,4.0,part_3,stop,,,,204.0,6.0,68.0,170.0,136.0,34.0,204.0,102.0,green,square
4.0,0,7.0,2.0,1385.0901126899998,4.0,part_3,go,,,,49.0,1.0,245.0,49.0,196.0,147.0,98.0,294.0,orange,diamond
1.0,1,7.0,4.0,2369.83299255,4.0,part_3,stop,,,,294.0,6.0,98.0,49.0,147.0,294.0,245.0,196.0,green,square
0.5,1,7.0,1.0,2102.69093513,4.0,part_3,stop,,,,234.0,6.0,234.0,39.0,156.0,195.0,78.0,117.0,cyan,line
4.0,1,7.0,4.0,1585.43014526,4.0,part_3,stop,,,,294.0,6.0,196.0,245.0,147.0,294.0,49.0,98.0,magenta,triangle
1.0,0,7.0,1.0,3637.3851299300004,4.0,part_3,go,,,,108.0,2.0,108.0,54.0,270.0,162.0,216.0,324.0,white,hexagon
1.0,0,7.0,3.0,2019.0250873600003,4.0,part_3,go,,,,102.0,3.0,170.0,204.0,102.0,34.0,68.0,136.0,white,hexagon
4.0,0,7.0,3.0,2069.26894188,4.0,part_3,go,,,,54.0,1.0,162.0,324.0,54.0,270.0,108.0,216.0,orange,diamond
4.0,0,7.0,3.0,851.336956024,4.0,part_3,go,,,,108.0,2.0,270.0,54.0,108.0,324.0,162.0,216.0,orange,diamond
