raw_reward_magnitude,stim_reward,stepwise_reward_magnitude,paired_with_stopping,stim_location,response,reaction_time,block,which_phase,stop_signal_trial_type,left_SSD,right_SSD,accuracy,chosen_bidding_amount,chosen_bidding_level,possible_bid_1,possible_bid_2,possible_bid_3,possible_bid_4,possible_bid_5,possible_bid_6,color_text,shape_text
60.0,1.0,1.0,0,2.0,2.0,500.982999802,1.0,phase_1,,,,,,,,,,,,,gray,hexagon
417.0,4.0,4.0,0,2.0,2.0,434.566020966,1.0,phase_1,,,,,,,,,,,,,cyan,line
207.0,3.0,3.0,1,4.0,4.0,485.04114151,1.0,phase_1,,,,,,,,,,,,,blue,cross
112.0,2.0,2.0,0,1.0,1.0,418.076992035,1.0,phase_1,,,,,,,,,,,,,white,square
390.0,8.0,4.0,1,2.0,2.0,384.517908096,1.0,phase_1,,,,,,,,,,,,,yellow,flipped triangle
404.0,4.0,4.0,0,1.0,1.0,384.19890403700003,1.0,phase_1,,,,,,,,,,,,,cyan,line
397.0,4.0,4.0,0,2.0,2.0,400.851011276,1.0,phase_1,,,,,,,,,,,,,cyan,line
191.0,3.0,3.0,1,1.0,1.0,417.871952057,1.0,phase_1,,,,,,,,,,,,,blue,cross
123.0,2.0,2.0,0,4.0,4.0,384.246110916,1.0,phase_1,,,,,,,,,,,,,white,square
194.0,3.0,3.0,1,3.0,3.0,384.32097435000003,1.0,phase_1,,,,,,,,,,,,,blue,cross
0.0,7.0,0.0,0,4.0,4.0,451.250076294,1.0,phase_1,,,,,,,,,,,,,orange,triangle
43.0,1.0,1.0,0,2.0,2.0,434.31401252700005,1.0,phase_1,,,,,,,,,,,,,gray,hexagon
421.0,8.0,4.0,1,1.0,1.0,351.24993324300004,1.0,phase_1,,,,,,,,,,,,,yellow,flipped triangle
422.0,8.0,4.0,1,2.0,2.0,417.631864548,1.0,phase_1,,,,,,,,,,,,,yellow,flipped triangle
0.0,5.0,0.0,1,3.0,3.0,451.195001602,1.0,phase_1,,,,,,,,,,,,,green,diamond
0.0,5.0,0.0,1,2.0,2.0,334.544897079,1.0,phase_1,,,,,,,,,,,,,green,diamond
216.0,7.0,3.0,0,3.0,3.0,400.345087051,1.0,phase_1,,,,,,,,,,,,,orange,triangle
0.0,4.0,0.0,0,4.0,4.0,400.823831558,1.0,phase_1,,,,,,,,,,,,,cyan,line
195.0,3.0,3.0,1,4.0,4.0,400.94995498699996,1.0,phase_1,,,,,,,,,,,,,blue,cross
68.0,1.0,1.0,0,3.0,3.0,367.338895798,1.0,phase_1,,,,,,,,,,,,,gray,hexagon
425.0,4.0,4.0,0,1.0,1.0,567.9421424870001,1.0,phase_1,,,,,,,,,,,,,cyan,line
31.0,1.0,1.0,0,2.0,2.0,334.326982498,1.0,phase_1,,,,,,,,,,,,,gray,hexagon
39.0,1.0,1.0,0,3.0,3.0,350.687980652,1.0,phase_1,,,,,,,,,,,,,gray,hexagon
212.0,7.0,3.0,0,4.0,4.0,417.630910873,1.0,phase_1,,,,,,,,,,,,,orange,triangle
94.0,6.0,2.0,1,1.0,1.0,417.60396957399996,1.0,phase_1,,,,,,,,,,,,,magenta,circle
0.0,3.0,0.0,1,3.0,3.0,367.84696578999996,1.0,phase_1,,,,,,,,,,,,,blue,cross
0.0,7.0,0.0,0,3.0,3.0,401.123046875,1.0,phase_1,,,,,,,,,,,,,orange,triangle
401.0,8.0,4.0,1,2.0,2.0,400.708913803,1.0,phase_1,,,,,,,,,,,,,yellow,flipped triangle
44.0,1.0,1.0,0,1.0,1.0,317.832946777,1.0,phase_1,,,,,,,,,,,,,gray,hexagon
385.0,8.0,4.0,1,2.0,2.0,484.571933746,1.0,phase_1,,,,,,,,,,,,,yellow,flipped triangle
218.0,3.0,3.0,1,4.0,4.0,450.871944427,1.0,phase_1,,,,,,,,,,,,,blue,cross
216.0,7.0,3.0,0,3.0,3.0,417.474985123,1.0,phase_1,,,,,,,,,,,,,orange,triangle
105.0,2.0,2.0,0,3.0,3.0,384.21607017499997,1.0,phase_1,,,,,,,,,,,,,white,square
0.0,6.0,0.0,1,1.0,1.0,384.28902626,1.0,phase_1,,,,,,,,,,,,,magenta,circle
0.0,1.0,0.0,0,4.0,4.0,501.405954361,1.0,phase_1,,,,,,,,,,,,,gray,hexagon
211.0,3.0,3.0,1,3.0,3.0,400.614976883,1.0,phase_1,,,,,,,,,,,,,blue,cross
214.0,3.0,3.0,1,3.0,3.0,384.697914124,1.0,phase_1,,,,,,,,,,,,,blue,cross
0.0,6.0,0.0,1,1.0,1.0,384.291887283,1.0,phase_1,,,,,,,,,,,,,magenta,circle
63.0,5.0,1.0,1,4.0,4.0,467.888116837,1.0,phase_1,,,,,,,,,,,,,green,diamond
411.0,4.0,4.0,0,2.0,2.0,367.751836777,1.0,phase_1,,,,,,,,,,,,,cyan,line
0.0,2.0,0.0,0,2.0,2.0,401.17096900900003,1.0,phase_1,,,,,,,,,,,,,white,square
122.0,6.0,2.0,1,4.0,4.0,383.958101273,1.0,phase_1,,,,,,,,,,,,,magenta,circle
33.0,5.0,1.0,1,4.0,4.0,400.948047638,1.0,phase_1,,,,,,,,,,,,,green,diamond
95.0,6.0,2.0,1,1.0,1.0,451.328039169,1.0,phase_1,,,,,,,,,,,,,magenta,circle
378.0,4.0,4.0,0,1.0,1.0,400.946855545,1.0,phase_1,,,,,,,,,,,,,cyan,line
0.0,8.0,0.0,1,3.0,3.0,534.806013107,1.0,phase_1,,,,,,,,,,,,,yellow,flipped triangle
70.0,1.0,1.0,0,2.0,2.0,450.76918602,1.0,phase_1,,,,,,,,,,,,,gray,hexagon
0.0,6.0,0.0,1,1.0,1.0,484.790086746,1.0,phase_1,,,,,,,,,,,,,magenta,circle
219.0,3.0,3.0,1,4.0,4.0,418.00904274,1.0,phase_1,,,,,,,,,,,,,blue,cross
379.0,8.0,4.0,1,4.0,4.0,384.1381073,1.0,phase_1,,,,,,,,,,,,,yellow,flipped triangle
0.0,5.0,0.0,1,1.0,1.0,450.757980347,1.0,phase_1,,,,,,,,,,,,,green,diamond
0.0,2.0,0.0,0,4.0,4.0,418.056964874,1.0,phase_1,,,,,,,,,,,,,white,square
0.0,7.0,0.0,0,3.0,3.0,484.61198806799996,1.0,phase_1,,,,,,,,,,,,,orange,triangle
106.0,6.0,2.0,1,3.0,3.0,383.99887085,1.0,phase_1,,,,,,,,,,,,,magenta,circle
217.0,7.0,3.0,0,1.0,1.0,417.45615005499997,1.0,phase_1,,,,,,,,,,,,,orange,triangle
89.0,2.0,2.0,0,1.0,1.0,384.790897369,1.0,phase_1,,,,,,,,,,,,,white,square
405.0,4.0,4.0,0,3.0,3.0,401.266098022,1.0,phase_1,,,,,,,,,,,,,cyan,line
102.0,6.0,2.0,1,3.0,3.0,350.58999061599997,1.0,phase_1,,,,,,,,,,,,,magenta,circle
40.0,5.0,1.0,1,2.0,2.0,400.845050812,1.0,phase_1,,,,,,,,,,,,,green,diamond
93.0,2.0,2.0,0,4.0,4.0,608.286857605,1.0,phase_1,,,,,,,,,,,,,white,square
0.0,5.0,0.0,1,1.0,,,1.0,phase_1,,,,,,,,,,,,,green,diamond
0.0,1.0,0.0,0,2.0,2.0,350.736141205,1.0,phase_1,,,,,,,,,,,,,gray,hexagon
0.0,5.0,0.0,1,1.0,,,1.0,phase_1,,,,,,,,,,,,,green,diamond
46.0,1.0,1.0,0,2.0,2.0,450.864076614,1.0,phase_1,,,,,,,,,,,,,gray,hexagon
220.0,3.0,3.0,1,4.0,4.0,500.865936279,1.0,phase_1,,,,,,,,,,,,,blue,cross
0.0,2.0,0.0,0,2.0,2.0,517.257928848,1.0,phase_1,,,,,,,,,,,,,white,square
179.0,7.0,3.0,0,2.0,2.0,334.563970566,1.0,phase_1,,,,,,,,,,,,,orange,triangle
395.0,8.0,4.0,1,2.0,2.0,367.42401123,1.0,phase_1,,,,,,,,,,,,,yellow,flipped triangle
415.0,8.0,4.0,1,4.0,4.0,417.269945145,1.0,phase_1,,,,,,,,,,,,,yellow,flipped triangle
89.0,2.0,2.0,0,2.0,2.0,334.02299881000005,1.0,phase_1,,,,,,,,,,,,,white,square
0.0,4.0,0.0,0,1.0,,,1.0,phase_1,,,,,,,,,,,,,cyan,line
400.0,4.0,4.0,0,4.0,4.0,517.8120136260001,1.0,phase_1,,,,,,,,,,,,,cyan,line
188.0,3.0,3.0,1,4.0,4.0,417.673110962,1.0,phase_1,,,,,,,,,,,,,blue,cross
0.0,4.0,0.0,0,1.0,,,1.0,phase_1,,,,,,,,,,,,,cyan,line
0.0,6.0,0.0,1,1.0,,,1.0,phase_1,,,,,,,,,,,,,magenta,circle
120.0,2.0,2.0,0,4.0,4.0,517.5800323489999,1.0,phase_1,,,,,,,,,,,,,white,square
118.0,6.0,2.0,1,3.0,3.0,367.8150177,1.0,phase_1,,,,,,,,,,,,,magenta,circle
114.0,2.0,2.0,0,4.0,4.0,417.334079742,1.0,phase_1,,,,,,,,,,,,,white,square
0.0,2.0,0.0,0,1.0,,,1.0,phase_1,,,,,,,,,,,,,white,square
123.0,6.0,2.0,1,2.0,2.0,617.891073227,1.0,phase_1,,,,,,,,,,,,,magenta,circle
208.0,7.0,3.0,0,2.0,2.0,367.381811142,1.0,phase_1,,,,,,,,,,,,,orange,triangle
0.0,8.0,0.0,1,1.0,,,1.0,phase_1,,,,,,,,,,,,,yellow,flipped triangle
94.0,2.0,2.0,0,3.0,3.0,550.83990097,1.0,phase_1,,,,,,,,,,,,,white,square
0.0,4.0,0.0,0,1.0,1.0,400.96306800800005,1.0,phase_1,,,,,,,,,,,,,cyan,line
83.0,6.0,2.0,1,4.0,4.0,567.935943604,1.0,phase_1,,,,,,,,,,,,,magenta,circle
100.0,6.0,2.0,1,2.0,2.0,467.580080032,1.0,phase_1,,,,,,,,,,,,,magenta,circle
415.0,4.0,4.0,0,1.0,1.0,384.503126144,1.0,phase_1,,,,,,,,,,,,,cyan,line
75.0,2.0,2.0,0,4.0,4.0,384.16504859900004,1.0,phase_1,,,,,,,,,,,,,white,square
215.0,7.0,3.0,0,3.0,3.0,450.333118439,1.0,phase_1,,,,,,,,,,,,,orange,triangle
81.0,6.0,2.0,1,2.0,2.0,383.982896805,1.0,phase_1,,,,,,,,,,,,,magenta,circle
43.0,5.0,1.0,1,3.0,3.0,400.938987732,1.0,phase_1,,,,,,,,,,,,,green,diamond
392.0,4.0,4.0,0,4.0,4.0,483.830928802,1.0,phase_1,,,,,,,,,,,,,cyan,line
123.0,6.0,2.0,1,2.0,2.0,417.28591918899997,1.0,phase_1,,,,,,,,,,,,,magenta,circle
118.0,6.0,2.0,1,3.0,3.0,500.864028931,1.0,phase_1,,,,,,,,,,,,,magenta,circle
58.0,5.0,1.0,1,1.0,1.0,384.377002716,1.0,phase_1,,,,,,,,,,,,,green,diamond
0.0,1.0,0.0,0,3.0,3.0,417.451143265,1.0,phase_1,,,,,,,,,,,,,gray,hexagon
385.0,8.0,4.0,1,4.0,4.0,417.235136032,1.0,phase_1,,,,,,,,,,,,,yellow,flipped triangle
182.0,3.0,3.0,1,3.0,3.0,433.816194534,1.0,phase_1,,,,,,,,,,,,,blue,cross
82.0,2.0,2.0,0,3.0,3.0,384.429931641,1.0,phase_1,,,,,,,,,,,,,white,square
97.0,2.0,2.0,0,3.0,3.0,367.792844772,1.0,phase_1,,,,,,,,,,,,,white,square
387.0,4.0,4.0,0,4.0,4.0,484.21311378499996,2.0,phase_1,,,,,,,,,,,,,cyan,line
94.0,6.0,2.0,1,2.0,2.0,384.69004630999996,2.0,phase_1,,,,,,,,,,,,,magenta,circle
201.0,3.0,3.0,1,2.0,2.0,367.81311035199997,2.0,phase_1,,,,,,,,,,,,,blue,cross
92.0,6.0,2.0,1,4.0,4.0,417.537212372,2.0,phase_1,,,,,,,,,,,,,magenta,circle
0.0,6.0,0.0,1,3.0,3.0,400.681018829,2.0,phase_1,,,,,,,,,,,,,magenta,circle
185.0,3.0,3.0,1,3.0,3.0,384.896993637,2.0,phase_1,,,,,,,,,,,,,blue,cross
224.0,3.0,3.0,1,2.0,2.0,417.955875397,2.0,phase_1,,,,,,,,,,,,,blue,cross
66.0,5.0,1.0,1,3.0,3.0,434.326171875,2.0,phase_1,,,,,,,,,,,,,green,diamond
107.0,6.0,2.0,1,2.0,2.0,484.425067902,2.0,phase_1,,,,,,,,,,,,,magenta,circle
385.0,4.0,4.0,0,3.0,3.0,484.129905701,2.0,phase_1,,,,,,,,,,,,,cyan,line
396.0,8.0,4.0,1,1.0,1.0,534.445047379,2.0,phase_1,,,,,,,,,,,,,yellow,flipped triangle
404.0,4.0,4.0,0,3.0,3.0,434.637069702,2.0,phase_1,,,,,,,,,,,,,cyan,line
0.0,3.0,0.0,1,1.0,1.0,334.256887436,2.0,phase_1,,,,,,,,,,,,,blue,cross
223.0,3.0,3.0,1,1.0,1.0,451.326131821,2.0,phase_1,,,,,,,,,,,,,blue,cross
0.0,1.0,0.0,0,4.0,4.0,400.903940201,2.0,phase_1,,,,,,,,,,,,,gray,hexagon
216.0,3.0,3.0,1,3.0,3.0,483.87503624,2.0,phase_1,,,,,,,,,,,,,blue,cross
119.0,2.0,2.0,0,3.0,3.0,351.43899917600004,2.0,phase_1,,,,,,,,,,,,,white,square
0.0,8.0,0.0,1,1.0,1.0,584.30480957,2.0,phase_1,,,,,,,,,,,,,yellow,flipped triangle
123.0,6.0,2.0,1,1.0,1.0,350.36897659299996,2.0,phase_1,,,,,,,,,,,,,magenta,circle
206.0,7.0,3.0,0,1.0,1.0,417.32001304600004,2.0,phase_1,,,,,,,,,,,,,orange,triangle
191.0,3.0,3.0,1,2.0,2.0,484.616041183,2.0,phase_1,,,,,,,,,,,,,blue,cross
89.0,6.0,2.0,1,2.0,2.0,367.334842682,2.0,phase_1,,,,,,,,,,,,,magenta,circle
182.0,3.0,3.0,1,2.0,2.0,384.299993515,2.0,phase_1,,,,,,,,,,,,,blue,cross
0.0,3.0,0.0,1,4.0,4.0,367.520093918,2.0,phase_1,,,,,,,,,,,,,blue,cross
100.0,6.0,2.0,1,4.0,4.0,500.65517425499996,2.0,phase_1,,,,,,,,,,,,,magenta,circle
178.0,7.0,3.0,0,2.0,2.0,418.115139008,2.0,phase_1,,,,,,,,,,,,,orange,triangle
50.0,1.0,1.0,0,4.0,4.0,383.92400741600005,2.0,phase_1,,,,,,,,,,,,,gray,hexagon
375.0,8.0,4.0,1,3.0,3.0,450.89602470399996,2.0,phase_1,,,,,,,,,,,,,yellow,flipped triangle
385.0,8.0,4.0,1,1.0,1.0,366.935968399,2.0,phase_1,,,,,,,,,,,,,yellow,flipped triangle
383.0,8.0,4.0,1,2.0,2.0,400.828838348,2.0,phase_1,,,,,,,,,,,,,yellow,flipped triangle
386.0,4.0,4.0,0,4.0,4.0,417.56010055499996,2.0,phase_1,,,,,,,,,,,,,cyan,line
0.0,1.0,0.0,0,1.0,1.0,434.554100037,2.0,phase_1,,,,,,,,,,,,,gray,hexagon
193.0,7.0,3.0,0,2.0,2.0,467.401027679,2.0,phase_1,,,,,,,,,,,,,orange,triangle
375.0,8.0,4.0,1,4.0,4.0,501.180887222,2.0,phase_1,,,,,,,,,,,,,yellow,flipped triangle
423.0,4.0,4.0,0,3.0,3.0,501.204967499,2.0,phase_1,,,,,,,,,,,,,cyan,line
183.0,7.0,3.0,0,3.0,3.0,417.620897293,2.0,phase_1,,,,,,,,,,,,,orange,triangle
0.0,7.0,0.0,0,3.0,3.0,401.540994644,2.0,phase_1,,,,,,,,,,,,,orange,triangle
45.0,1.0,1.0,0,4.0,4.0,450.79779624900004,2.0,phase_1,,,,,,,,,,,,,gray,hexagon
75.0,6.0,2.0,1,1.0,1.0,450.74486732500003,2.0,phase_1,,,,,,,,,,,,,magenta,circle
0.0,4.0,0.0,0,1.0,1.0,417.89293289200003,2.0,phase_1,,,,,,,,,,,,,cyan,line
0.0,1.0,0.0,0,2.0,2.0,351.258039474,2.0,phase_1,,,,,,,,,,,,,gray,hexagon
55.0,5.0,1.0,1,3.0,3.0,417.927026749,2.0,phase_1,,,,,,,,,,,,,green,diamond
47.0,5.0,1.0,1,3.0,3.0,384.514093399,2.0,phase_1,,,,,,,,,,,,,green,diamond
387.0,4.0,4.0,0,2.0,2.0,451.219081879,2.0,phase_1,,,,,,,,,,,,,cyan,line
0.0,8.0,0.0,1,4.0,4.0,367.43402481100003,2.0,phase_1,,,,,,,,,,,,,yellow,flipped triangle
92.0,6.0,2.0,1,4.0,4.0,384.01985168500005,2.0,phase_1,,,,,,,,,,,,,magenta,circle
0.0,6.0,0.0,1,2.0,2.0,450.927019119,2.0,phase_1,,,,,,,,,,,,,magenta,circle
378.0,4.0,4.0,0,4.0,4.0,467.66495704700003,2.0,phase_1,,,,,,,,,,,,,cyan,line
222.0,7.0,3.0,0,1.0,1.0,434.808015823,2.0,phase_1,,,,,,,,,,,,,orange,triangle
0.0,4.0,0.0,0,2.0,2.0,468.212842941,2.0,phase_1,,,,,,,,,,,,,cyan,line
101.0,2.0,2.0,0,2.0,2.0,417.771816254,2.0,phase_1,,,,,,,,,,,,,white,square
207.0,7.0,3.0,0,1.0,1.0,534.376859665,2.0,phase_1,,,,,,,,,,,,,orange,triangle
0.0,4.0,0.0,0,4.0,4.0,501.487970352,2.0,phase_1,,,,,,,,,,,,,cyan,line
70.0,1.0,1.0,0,2.0,2.0,417.543888092,2.0,phase_1,,,,,,,,,,,,,gray,hexagon
176.0,7.0,3.0,0,2.0,2.0,450.942993164,2.0,phase_1,,,,,,,,,,,,,orange,triangle
212.0,3.0,3.0,1,4.0,4.0,384.742975235,2.0,phase_1,,,,,,,,,,,,,blue,cross
54.0,5.0,1.0,1,1.0,1.0,367.959976196,2.0,phase_1,,,,,,,,,,,,,green,diamond
0.0,2.0,0.0,0,4.0,4.0,450.99496841399997,2.0,phase_1,,,,,,,,,,,,,white,square
33.0,1.0,1.0,0,3.0,3.0,484.220981598,2.0,phase_1,,,,,,,,,,,,,gray,hexagon
0.0,5.0,0.0,1,2.0,2.0,433.930873871,2.0,phase_1,,,,,,,,,,,,,green,diamond
102.0,2.0,2.0,0,4.0,4.0,450.86312294000004,2.0,phase_1,,,,,,,,,,,,,white,square
51.0,1.0,1.0,0,2.0,2.0,384.15813446000004,2.0,phase_1,,,,,,,,,,,,,gray,hexagon
79.0,2.0,2.0,0,4.0,4.0,384.007930756,2.0,phase_1,,,,,,,,,,,,,white,square
0.0,3.0,0.0,1,3.0,3.0,451.374053955,2.0,phase_1,,,,,,,,,,,,,blue,cross
69.0,5.0,1.0,1,3.0,3.0,534.1451168059999,2.0,phase_1,,,,,,,,,,,,,green,diamond
381.0,4.0,4.0,0,1.0,1.0,567.611932755,2.0,phase_1,,,,,,,,,,,,,cyan,line
70.0,1.0,1.0,0,3.0,3.0,500.68712234500003,2.0,phase_1,,,,,,,,,,,,,gray,hexagon
90.0,6.0,2.0,1,3.0,3.0,634.53412056,2.0,phase_1,,,,,,,,,,,,,magenta,circle
85.0,2.0,2.0,0,1.0,1.0,433.74180793799997,2.0,phase_1,,,,,,,,,,,,,white,square
0.0,8.0,0.0,1,3.0,3.0,417.635917664,2.0,phase_1,,,,,,,,,,,,,yellow,flipped triangle
0.0,3.0,0.0,1,3.0,3.0,467.97084808299996,2.0,phase_1,,,,,,,,,,,,,blue,cross
105.0,2.0,2.0,0,4.0,4.0,501.01590156599997,2.0,phase_1,,,,,,,,,,,,,white,square
416.0,4.0,4.0,0,1.0,1.0,501.461982727,2.0,phase_1,,,,,,,,,,,,,cyan,line
404.0,4.0,4.0,0,3.0,3.0,401.52716636699995,2.0,phase_1,,,,,,,,,,,,,cyan,line
91.0,6.0,2.0,1,1.0,1.0,400.623083115,2.0,phase_1,,,,,,,,,,,,,magenta,circle
0.0,6.0,0.0,1,4.0,4.0,334.36298370400004,2.0,phase_1,,,,,,,,,,,,,magenta,circle
0.0,5.0,0.0,1,4.0,4.0,450.695037842,2.0,phase_1,,,,,,,,,,,,,green,diamond
392.0,8.0,4.0,1,2.0,2.0,567.8040981290001,2.0,phase_1,,,,,,,,,,,,,yellow,flipped triangle
108.0,6.0,2.0,1,1.0,1.0,484.612226486,2.0,phase_1,,,,,,,,,,,,,magenta,circle
95.0,6.0,2.0,1,1.0,1.0,667.4909591669999,2.0,phase_1,,,,,,,,,,,,,magenta,circle
97.0,2.0,2.0,0,3.0,3.0,468.278884888,2.0,phase_1,,,,,,,,,,,,,white,square
0.0,5.0,0.0,1,4.0,4.0,517.727851868,2.0,phase_1,,,,,,,,,,,,,green,diamond
0.0,5.0,0.0,1,1.0,1.0,384.157896042,2.0,phase_1,,,,,,,,,,,,,green,diamond
0.0,5.0,0.0,1,2.0,2.0,518.0230140689999,2.0,phase_1,,,,,,,,,,,,,green,diamond
78.0,6.0,2.0,1,1.0,1.0,417.8211689,2.0,phase_1,,,,,,,,,,,,,magenta,circle
30.0,1.0,1.0,0,1.0,1.0,434.572935104,2.0,phase_1,,,,,,,,,,,,,gray,hexagon
0.0,3.0,0.0,1,2.0,2.0,418.28012466399997,2.0,phase_1,,,,,,,,,,,,,blue,cross
0.0,8.0,0.0,1,2.0,2.0,434.582233429,2.0,phase_1,,,,,,,,,,,,,yellow,flipped triangle
199.0,7.0,3.0,0,1.0,1.0,434.27395820600003,2.0,phase_1,,,,,,,,,,,,,orange,triangle
201.0,7.0,3.0,0,4.0,4.0,517.611980438,2.0,phase_1,,,,,,,,,,,,,orange,triangle
421.0,4.0,4.0,0,3.0,3.0,584.4089984889999,2.0,phase_1,,,,,,,,,,,,,cyan,line
0.0,3.0,0.0,1,4.0,4.0,451.32493972799995,2.0,phase_1,,,,,,,,,,,,,blue,cross
409.0,4.0,4.0,0,3.0,3.0,467.123031616,2.0,phase_1,,,,,,,,,,,,,cyan,line
0.0,2.0,0.0,0,3.0,3.0,434.094905853,2.0,phase_1,,,,,,,,,,,,,white,square
51.0,1.0,1.0,0,2.0,2.0,517.84491539,2.0,phase_1,,,,,,,,,,,,,gray,hexagon
105.0,2.0,2.0,0,1.0,1.0,384.579896927,2.0,phase_1,,,,,,,,,,,,,white,square
91.0,6.0,2.0,1,2.0,2.0,584.710836411,2.0,phase_1,,,,,,,,,,,,,magenta,circle
78.0,2.0,2.0,0,1.0,1.0,416.949987411,2.0,phase_1,,,,,,,,,,,,,white,square
392.0,8.0,4.0,1,4.0,4.0,517.5249576570001,2.0,phase_1,,,,,,,,,,,,,yellow,flipped triangle
47.0,5.0,1.0,1,4.0,4.0,434.06105041499995,2.0,phase_1,,,,,,,,,,,,,green,diamond
181.0,7.0,3.0,0,1.0,1.0,567.708969116,3.0,phase_1,,,,,,,,,,,,,orange,triangle
202.0,7.0,3.0,0,4.0,4.0,717.7641391750001,3.0,phase_1,,,,,,,,,,,,,orange,triangle
224.0,7.0,3.0,0,3.0,3.0,417.144060135,3.0,phase_1,,,,,,,,,,,,,orange,triangle
0.0,8.0,0.0,1,1.0,1.0,468.08600425699996,3.0,phase_1,,,,,,,,,,,,,yellow,flipped triangle
187.0,3.0,3.0,1,3.0,3.0,501.240968704,3.0,phase_1,,,,,,,,,,,,,blue,cross
0.0,6.0,0.0,1,4.0,4.0,634.45186615,3.0,phase_1,,,,,,,,,,,,,magenta,circle
0.0,5.0,0.0,1,1.0,1.0,434.108972549,3.0,phase_1,,,,,,,,,,,,,green,diamond
0.0,7.0,0.0,0,3.0,3.0,434.609889984,3.0,phase_1,,,,,,,,,,,,,orange,triangle
0.0,3.0,0.0,1,2.0,2.0,500.962018967,3.0,phase_1,,,,,,,,,,,,,blue,cross
29.0,5.0,1.0,1,3.0,3.0,484.73286628700004,3.0,phase_1,,,,,,,,,,,,,green,diamond
416.0,8.0,4.0,1,2.0,2.0,467.439174652,3.0,phase_1,,,,,,,,,,,,,yellow,flipped triangle
0.0,3.0,0.0,1,2.0,2.0,484.225034714,3.0,phase_1,,,,,,,,,,,,,blue,cross
178.0,7.0,3.0,0,1.0,1.0,367.580890656,3.0,phase_1,,,,,,,,,,,,,orange,triangle
0.0,3.0,0.0,1,2.0,2.0,450.59299469,3.0,phase_1,,,,,,,,,,,,,blue,cross
42.0,5.0,1.0,1,4.0,4.0,467.44799614,3.0,phase_1,,,,,,,,,,,,,green,diamond
382.0,8.0,4.0,1,2.0,2.0,350.607872009,3.0,phase_1,,,,,,,,,,,,,yellow,flipped triangle
0.0,5.0,0.0,1,1.0,1.0,367.192029953,3.0,phase_1,,,,,,,,,,,,,green,diamond
390.0,8.0,4.0,1,4.0,4.0,450.714111328,3.0,phase_1,,,,,,,,,,,,,yellow,flipped triangle
26.0,1.0,1.0,0,1.0,1.0,367.774963379,3.0,phase_1,,,,,,,,,,,,,gray,hexagon
188.0,3.0,3.0,1,3.0,3.0,434.064865112,3.0,phase_1,,,,,,,,,,,,,blue,cross
0.0,8.0,0.0,1,4.0,4.0,451.014995575,3.0,phase_1,,,,,,,,,,,,,yellow,flipped triangle
87.0,2.0,2.0,0,3.0,3.0,384.44900512699996,3.0,phase_1,,,,,,,,,,,,,white,square
0.0,1.0,0.0,0,4.0,4.0,383.92400741600005,3.0,phase_1,,,,,,,,,,,,,gray,hexagon
40.0,1.0,1.0,0,4.0,4.0,384.46688652,3.0,phase_1,,,,,,,,,,,,,gray,hexagon
113.0,2.0,2.0,0,1.0,1.0,417.719841003,3.0,phase_1,,,,,,,,,,,,,white,square
125.0,6.0,2.0,1,4.0,4.0,434.44991111800005,3.0,phase_1,,,,,,,,,,,,,magenta,circle
47.0,5.0,1.0,1,2.0,2.0,484.019994736,3.0,phase_1,,,,,,,,,,,,,green,diamond
0.0,2.0,0.0,0,4.0,4.0,400.813102722,3.0,phase_1,,,,,,,,,,,,,white,square
39.0,1.0,1.0,0,3.0,3.0,567.7731037140001,3.0,phase_1,,,,,,,,,,,,,gray,hexagon
108.0,6.0,2.0,1,1.0,1.0,501.384019852,3.0,phase_1,,,,,,,,,,,,,magenta,circle
39.0,5.0,1.0,1,4.0,4.0,484.858989716,3.0,phase_1,,,,,,,,,,,,,green,diamond
182.0,3.0,3.0,1,3.0,3.0,434.470891953,3.0,phase_1,,,,,,,,,,,,,blue,cross
75.0,1.0,1.0,0,1.0,1.0,400.752782822,3.0,phase_1,,,,,,,,,,,,,gray,hexagon
0.0,1.0,0.0,0,1.0,1.0,417.635917664,3.0,phase_1,,,,,,,,,,,,,gray,hexagon
115.0,2.0,2.0,0,3.0,3.0,368.046045303,3.0,phase_1,,,,,,,,,,,,,white,square
219.0,7.0,3.0,0,2.0,2.0,551.143169403,3.0,phase_1,,,,,,,,,,,,,orange,triangle
110.0,2.0,2.0,0,1.0,1.0,418.161869049,3.0,phase_1,,,,,,,,,,,,,white,square
393.0,8.0,4.0,1,4.0,4.0,434.59796905499996,3.0,phase_1,,,,,,,,,,,,,yellow,flipped triangle
0.0,6.0,0.0,1,1.0,1.0,367.574930191,3.0,phase_1,,,,,,,,,,,,,magenta,circle
382.0,4.0,4.0,0,4.0,4.0,434.10301208500005,3.0,phase_1,,,,,,,,,,,,,cyan,line
31.0,1.0,1.0,0,4.0,4.0,384.279966354,3.0,phase_1,,,,,,,,,,,,,gray,hexagon
54.0,5.0,1.0,1,1.0,1.0,417.076826096,3.0,phase_1,,,,,,,,,,,,,green,diamond
0.0,2.0,0.0,0,4.0,4.0,417.749881744,3.0,phase_1,,,,,,,,,,,,,white,square
114.0,2.0,2.0,0,3.0,3.0,717.679023743,3.0,phase_1,,,,,,,,,,,,,white,square
92.0,6.0,2.0,1,2.0,2.0,433.750867844,3.0,phase_1,,,,,,,,,,,,,magenta,circle
29.0,5.0,1.0,1,2.0,2.0,384.558916092,3.0,phase_1,,,,,,,,,,,,,green,diamond
27.0,1.0,1.0,0,1.0,1.0,367.20085143999995,3.0,phase_1,,,,,,,,,,,,,gray,hexagon
207.0,7.0,3.0,0,4.0,4.0,384.16099548299997,3.0,phase_1,,,,,,,,,,,,,orange,triangle
413.0,4.0,4.0,0,3.0,3.0,417.479991913,3.0,phase_1,,,,,,,,,,,,,cyan,line
392.0,8.0,4.0,1,3.0,3.0,434.06200408899997,3.0,phase_1,,,,,,,,,,,,,yellow,flipped triangle
102.0,6.0,2.0,1,4.0,4.0,367.949962616,3.0,phase_1,,,,,,,,,,,,,magenta,circle
411.0,8.0,4.0,1,3.0,3.0,434.18598175,3.0,phase_1,,,,,,,,,,,,,yellow,flipped triangle
214.0,3.0,3.0,1,2.0,2.0,534.455060959,3.0,phase_1,,,,,,,,,,,,,blue,cross
32.0,5.0,1.0,1,3.0,3.0,400.671005249,3.0,phase_1,,,,,,,,,,,,,green,diamond
0.0,4.0,0.0,0,2.0,2.0,550.858974457,3.0,phase_1,,,,,,,,,,,,,cyan,line
0.0,2.0,0.0,0,1.0,1.0,401.023864746,3.0,phase_1,,,,,,,,,,,,,white,square
422.0,4.0,4.0,0,2.0,2.0,467.765808105,3.0,phase_1,,,,,,,,,,,,,cyan,line
93.0,2.0,2.0,0,1.0,1.0,367.827177048,3.0,phase_1,,,,,,,,,,,,,white,square
378.0,4.0,4.0,0,3.0,3.0,450.92105865499997,3.0,phase_1,,,,,,,,,,,,,cyan,line
384.0,8.0,4.0,1,2.0,2.0,434.56101417499997,3.0,phase_1,,,,,,,,,,,,,yellow,flipped triangle
208.0,7.0,3.0,0,4.0,4.0,450.988054276,3.0,phase_1,,,,,,,,,,,,,orange,triangle
222.0,3.0,3.0,1,4.0,4.0,434.507846832,3.0,phase_1,,,,,,,,,,,,,blue,cross
218.0,7.0,3.0,0,3.0,3.0,450.80399513199995,3.0,phase_1,,,,,,,,,,,,,orange,triangle
424.0,8.0,4.0,1,3.0,3.0,434.58008766200004,3.0,phase_1,,,,,,,,,,,,,yellow,flipped triangle
113.0,2.0,2.0,0,2.0,2.0,534.102201462,3.0,phase_1,,,,,,,,,,,,,white,square
408.0,8.0,4.0,1,3.0,3.0,400.65121650699996,3.0,phase_1,,,,,,,,,,,,,yellow,flipped triangle
204.0,7.0,3.0,0,4.0,4.0,500.96011161800004,3.0,phase_1,,,,,,,,,,,,,orange,triangle
98.0,6.0,2.0,1,3.0,3.0,600.693941116,3.0,phase_1,,,,,,,,,,,,,magenta,circle
62.0,5.0,1.0,1,2.0,2.0,434.315919876,3.0,phase_1,,,,,,,,,,,,,green,diamond
0.0,1.0,0.0,0,4.0,4.0,401.00312233,3.0,phase_1,,,,,,,,,,,,,gray,hexagon
185.0,3.0,3.0,1,2.0,2.0,434.25893783600003,3.0,phase_1,,,,,,,,,,,,,blue,cross
38.0,5.0,1.0,1,3.0,3.0,467.37694740300003,3.0,phase_1,,,,,,,,,,,,,green,diamond
72.0,1.0,1.0,0,4.0,4.0,384.07611846900005,3.0,phase_1,,,,,,,,,,,,,gray,hexagon
208.0,7.0,3.0,0,1.0,1.0,468.006134033,3.0,phase_1,,,,,,,,,,,,,orange,triangle
31.0,5.0,1.0,1,1.0,1.0,450.860977173,3.0,phase_1,,,,,,,,,,,,,green,diamond
60.0,1.0,1.0,0,3.0,3.0,400.774002075,3.0,phase_1,,,,,,,,,,,,,gray,hexagon
0.0,1.0,0.0,0,4.0,4.0,500.9729862209999,3.0,phase_1,,,,,,,,,,,,,gray,hexagon
0.0,5.0,0.0,1,2.0,2.0,484.502077103,3.0,phase_1,,,,,,,,,,,,,green,diamond
396.0,8.0,4.0,1,2.0,2.0,400.828838348,3.0,phase_1,,,,,,,,,,,,,yellow,flipped triangle
412.0,4.0,4.0,0,3.0,3.0,451.18188858,3.0,phase_1,,,,,,,,,,,,,cyan,line
70.0,1.0,1.0,0,1.0,1.0,367.619991302,3.0,phase_1,,,,,,,,,,,,,gray,hexagon
82.0,6.0,2.0,1,2.0,2.0,450.83594322199997,3.0,phase_1,,,,,,,,,,,,,magenta,circle
0.0,3.0,0.0,1,4.0,4.0,384.750843048,3.0,phase_1,,,,,,,,,,,,,blue,cross
0.0,7.0,0.0,0,2.0,2.0,400.533914566,3.0,phase_1,,,,,,,,,,,,,orange,triangle
0.0,2.0,0.0,0,1.0,1.0,351.23181343100003,3.0,phase_1,,,,,,,,,,,,,white,square
201.0,7.0,3.0,0,1.0,1.0,467.602014542,3.0,phase_1,,,,,,,,,,,,,orange,triangle
103.0,2.0,2.0,0,4.0,4.0,500.92887878400006,3.0,phase_1,,,,,,,,,,,,,white,square
111.0,6.0,2.0,1,3.0,3.0,417.568206787,3.0,phase_1,,,,,,,,,,,,,magenta,circle
395.0,8.0,4.0,1,4.0,4.0,584.1879844670001,3.0,phase_1,,,,,,,,,,,,,yellow,flipped triangle
194.0,7.0,3.0,0,3.0,3.0,584.367990494,3.0,phase_1,,,,,,,,,,,,,orange,triangle
113.0,2.0,2.0,0,2.0,2.0,500.838041306,3.0,phase_1,,,,,,,,,,,,,white,square
180.0,3.0,3.0,1,1.0,1.0,434.658050537,3.0,phase_1,,,,,,,,,,,,,blue,cross
397.0,8.0,4.0,1,1.0,1.0,383.933067322,3.0,phase_1,,,,,,,,,,,,,yellow,flipped triangle
0.0,5.0,0.0,1,2.0,2.0,417.317867279,3.0,phase_1,,,,,,,,,,,,,green,diamond
37.0,1.0,1.0,0,1.0,1.0,334.011077881,3.0,phase_1,,,,,,,,,,,,,gray,hexagon
44.0,1.0,1.0,0,2.0,2.0,550.73094368,3.0,phase_1,,,,,,,,,,,,,gray,hexagon
184.0,7.0,3.0,0,2.0,2.0,401.093006134,3.0,phase_1,,,,,,,,,,,,,orange,triangle
59.0,1.0,1.0,0,3.0,3.0,467.714071274,3.0,phase_1,,,,,,,,,,,,,gray,hexagon
390.0,4.0,4.0,0,2.0,2.0,667.731046677,3.0,phase_1,,,,,,,,,,,,,cyan,line
45.0,5.0,1.0,1,1.0,1.0,417.720079422,3.0,phase_1,,,,,,,,,,,,,green,diamond
398.0,4.0,4.0,0,4.0,4.0,685.008049011,4.0,phase_1,,,,,,,,,,,,,cyan,line
46.0,5.0,1.0,1,2.0,2.0,567.476987839,4.0,phase_1,,,,,,,,,,,,,green,diamond
191.0,3.0,3.0,1,3.0,3.0,534.1451168059999,4.0,phase_1,,,,,,,,,,,,,blue,cross
29.0,5.0,1.0,1,3.0,3.0,450.819015503,4.0,phase_1,,,,,,,,,,,,,green,diamond
66.0,1.0,1.0,0,3.0,3.0,500.907897949,4.0,phase_1,,,,,,,,,,,,,gray,hexagon
411.0,4.0,4.0,0,4.0,4.0,450.628995895,4.0,phase_1,,,,,,,,,,,,,cyan,line
0.0,7.0,0.0,0,3.0,3.0,417.61898994399996,4.0,phase_1,,,,,,,,,,,,,orange,triangle
221.0,3.0,3.0,1,2.0,2.0,451.748132706,4.0,phase_1,,,,,,,,,,,,,blue,cross
117.0,2.0,2.0,0,4.0,4.0,484.252929688,4.0,phase_1,,,,,,,,,,,,,white,square
385.0,8.0,4.0,1,3.0,3.0,333.858966827,4.0,phase_1,,,,,,,,,,,,,yellow,flipped triangle
45.0,5.0,1.0,1,2.0,2.0,451.008081436,4.0,phase_1,,,,,,,,,,,,,green,diamond
419.0,8.0,4.0,1,2.0,2.0,484.28392410299995,4.0,phase_1,,,,,,,,,,,,,yellow,flipped triangle
200.0,3.0,3.0,1,4.0,4.0,417.46401786800004,4.0,phase_1,,,,,,,,,,,,,blue,cross
194.0,3.0,3.0,1,3.0,3.0,400.82192421,4.0,phase_1,,,,,,,,,,,,,blue,cross
416.0,8.0,4.0,1,3.0,3.0,450.755834579,4.0,phase_1,,,,,,,,,,,,,yellow,flipped triangle
406.0,8.0,4.0,1,2.0,2.0,417.643070221,4.0,phase_1,,,,,,,,,,,,,yellow,flipped triangle
102.0,6.0,2.0,1,3.0,3.0,551.0509014129999,4.0,phase_1,,,,,,,,,,,,,magenta,circle
180.0,7.0,3.0,0,3.0,3.0,451.19905471799996,4.0,phase_1,,,,,,,,,,,,,orange,triangle
30.0,5.0,1.0,1,3.0,3.0,400.605916977,4.0,phase_1,,,,,,,,,,,,,green,diamond
416.0,8.0,4.0,1,4.0,4.0,518.14699173,4.0,phase_1,,,,,,,,,,,,,yellow,flipped triangle
46.0,1.0,1.0,0,2.0,2.0,517.606973648,4.0,phase_1,,,,,,,,,,,,,gray,hexagon
50.0,1.0,1.0,0,3.0,3.0,551.126003265,4.0,phase_1,,,,,,,,,,,,,gray,hexagon
0.0,4.0,0.0,0,4.0,4.0,350.92997551,4.0,phase_1,,,,,,,,,,,,,cyan,line
0.0,4.0,0.0,0,1.0,1.0,451.051950455,4.0,phase_1,,,,,,,,,,,,,cyan,line
88.0,2.0,2.0,0,4.0,4.0,417.221069336,4.0,phase_1,,,,,,,,,,,,,white,square
54.0,1.0,1.0,0,2.0,2.0,450.37317276,4.0,phase_1,,,,,,,,,,,,,gray,hexagon
96.0,2.0,2.0,0,1.0,1.0,417.398929596,4.0,phase_1,,,,,,,,,,,,,white,square
0.0,1.0,0.0,0,2.0,2.0,484.65394973800005,4.0,phase_1,,,,,,,,,,,,,gray,hexagon
384.0,8.0,4.0,1,2.0,2.0,434.18097496,4.0,phase_1,,,,,,,,,,,,,yellow,flipped triangle
0.0,4.0,0.0,0,4.0,4.0,417.527914047,4.0,phase_1,,,,,,,,,,,,,cyan,line
200.0,3.0,3.0,1,2.0,2.0,434.427022934,4.0,phase_1,,,,,,,,,,,,,blue,cross
50.0,5.0,1.0,1,1.0,1.0,350.936174393,4.0,phase_1,,,,,,,,,,,,,green,diamond
384.0,8.0,4.0,1,4.0,4.0,484.52091217,4.0,phase_1,,,,,,,,,,,,,yellow,flipped triangle
377.0,4.0,4.0,0,1.0,1.0,434.592008591,4.0,phase_1,,,,,,,,,,,,,cyan,line
121.0,6.0,2.0,1,1.0,1.0,401.324987411,4.0,phase_1,,,,,,,,,,,,,magenta,circle
100.0,2.0,2.0,0,1.0,1.0,333.83202552800003,4.0,phase_1,,,,,,,,,,,,,white,square
30.0,5.0,1.0,1,3.0,3.0,417.49215126,4.0,phase_1,,,,,,,,,,,,,green,diamond
0.0,7.0,0.0,0,4.0,4.0,650.907993317,4.0,phase_1,,,,,,,,,,,,,orange,triangle
380.0,4.0,4.0,0,2.0,2.0,467.725038528,4.0,phase_1,,,,,,,,,,,,,cyan,line
87.0,2.0,2.0,0,4.0,4.0,434.581041336,4.0,phase_1,,,,,,,,,,,,,white,square
50.0,5.0,1.0,1,3.0,3.0,467.884063721,4.0,phase_1,,,,,,,,,,,,,green,diamond
0.0,2.0,0.0,0,2.0,2.0,517.622947693,4.0,phase_1,,,,,,,,,,,,,white,square
27.0,1.0,1.0,0,1.0,1.0,450.92797279399997,4.0,phase_1,,,,,,,,,,,,,gray,hexagon
0.0,4.0,0.0,0,2.0,2.0,418.24889183000005,4.0,phase_1,,,,,,,,,,,,,cyan,line
386.0,4.0,4.0,0,3.0,3.0,501.3060569759999,4.0,phase_1,,,,,,,,,,,,,cyan,line
405.0,4.0,4.0,0,4.0,4.0,617.7191734310001,4.0,phase_1,,,,,,,,,,,,,cyan,line
107.0,6.0,2.0,1,4.0,4.0,467.525005341,4.0,phase_1,,,,,,,,,,,,,magenta,circle
88.0,2.0,2.0,0,3.0,3.0,517.5452232360001,4.0,phase_1,,,,,,,,,,,,,white,square
203.0,3.0,3.0,1,1.0,1.0,367.442131042,4.0,phase_1,,,,,,,,,,,,,blue,cross
223.0,3.0,3.0,1,4.0,4.0,384.541034698,4.0,phase_1,,,,,,,,,,,,,blue,cross
0.0,8.0,0.0,1,1.0,1.0,451.27606391899997,4.0,phase_1,,,,,,,,,,,,,yellow,flipped triangle
219.0,7.0,3.0,0,3.0,3.0,434.723138809,4.0,phase_1,,,,,,,,,,,,,orange,triangle
386.0,4.0,4.0,0,1.0,1.0,434.196949005,4.0,phase_1,,,,,,,,,,,,,cyan,line
215.0,3.0,3.0,1,3.0,3.0,367.460012436,4.0,phase_1,,,,,,,,,,,,,blue,cross
81.0,2.0,2.0,0,4.0,4.0,384.588003159,4.0,phase_1,,,,,,,,,,,,,white,square
0.0,8.0,0.0,1,3.0,3.0,384.63902473400003,4.0,phase_1,,,,,,,,,,,,,yellow,flipped triangle
404.0,8.0,4.0,1,1.0,1.0,400.88391304,4.0,phase_1,,,,,,,,,,,,,yellow,flipped triangle
92.0,2.0,2.0,0,1.0,1.0,467.777967453,4.0,phase_1,,,,,,,,,,,,,white,square
0.0,3.0,0.0,1,1.0,1.0,384.193897247,4.0,phase_1,,,,,,,,,,,,,blue,cross
55.0,1.0,1.0,0,1.0,1.0,467.742919922,4.0,phase_1,,,,,,,,,,,,,gray,hexagon
112.0,2.0,2.0,0,2.0,2.0,417.813062668,4.0,phase_1,,,,,,,,,,,,,white,square
0.0,7.0,0.0,0,4.0,4.0,351.03392601,4.0,phase_1,,,,,,,,,,,,,orange,triangle
32.0,1.0,1.0,0,1.0,1.0,451.508998871,4.0,phase_1,,,,,,,,,,,,,gray,hexagon
211.0,7.0,3.0,0,1.0,1.0,434.51309204100005,4.0,phase_1,,,,,,,,,,,,,orange,triangle
123.0,6.0,2.0,1,2.0,2.0,517.8430080410001,4.0,phase_1,,,,,,,,,,,,,magenta,circle
196.0,3.0,3.0,1,1.0,1.0,383.76188278200004,4.0,phase_1,,,,,,,,,,,,,blue,cross
45.0,1.0,1.0,0,4.0,4.0,451.384067535,4.0,phase_1,,,,,,,,,,,,,gray,hexagon
185.0,7.0,3.0,0,2.0,2.0,434.607028961,4.0,phase_1,,,,,,,,,,,,,orange,triangle
217.0,7.0,3.0,0,3.0,3.0,501.17015838599997,4.0,phase_1,,,,,,,,,,,,,orange,triangle
203.0,7.0,3.0,0,1.0,1.0,383.68487358100003,4.0,phase_1,,,,,,,,,,,,,orange,triangle
43.0,5.0,1.0,1,2.0,2.0,484.172821045,4.0,phase_1,,,,,,,,,,,,,green,diamond
111.0,6.0,2.0,1,1.0,1.0,401.241064072,4.0,phase_1,,,,,,,,,,,,,magenta,circle
122.0,6.0,2.0,1,4.0,4.0,434.231042862,4.0,phase_1,,,,,,,,,,,,,magenta,circle
0.0,5.0,0.0,1,2.0,2.0,467.934131622,4.0,phase_1,,,,,,,,,,,,,green,diamond
48.0,1.0,1.0,0,4.0,4.0,650.89392662,4.0,phase_1,,,,,,,,,,,,,gray,hexagon
0.0,3.0,0.0,1,2.0,2.0,500.870943069,4.0,phase_1,,,,,,,,,,,,,blue,cross
0.0,4.0,0.0,0,4.0,4.0,400.989055634,4.0,phase_1,,,,,,,,,,,,,cyan,line
75.0,6.0,2.0,1,3.0,3.0,401.13902091999995,4.0,phase_1,,,,,,,,,,,,,magenta,circle
411.0,8.0,4.0,1,1.0,1.0,384.490966797,4.0,phase_1,,,,,,,,,,,,,yellow,flipped triangle
52.0,1.0,1.0,0,3.0,3.0,467.944860458,4.0,phase_1,,,,,,,,,,,,,gray,hexagon
207.0,7.0,3.0,0,1.0,1.0,367.284059525,4.0,phase_1,,,,,,,,,,,,,orange,triangle
183.0,3.0,3.0,1,3.0,3.0,434.231996536,4.0,phase_1,,,,,,,,,,,,,blue,cross
412.0,4.0,4.0,0,4.0,4.0,467.58222579999995,4.0,phase_1,,,,,,,,,,,,,cyan,line
0.0,5.0,0.0,1,4.0,4.0,367.89703369100005,4.0,phase_1,,,,,,,,,,,,,green,diamond
379.0,4.0,4.0,0,2.0,2.0,651.011943817,4.0,phase_1,,,,,,,,,,,,,cyan,line
0.0,7.0,0.0,0,4.0,4.0,484.532833099,4.0,phase_1,,,,,,,,,,,,,orange,triangle
28.0,5.0,1.0,1,1.0,1.0,384.110927582,4.0,phase_1,,,,,,,,,,,,,green,diamond
202.0,7.0,3.0,0,4.0,4.0,417.582035065,4.0,phase_1,,,,,,,,,,,,,orange,triangle
45.0,5.0,1.0,1,3.0,3.0,517.877101898,4.0,phase_1,,,,,,,,,,,,,green,diamond
25.0,5.0,1.0,1,3.0,3.0,450.794935226,4.0,phase_1,,,,,,,,,,,,,green,diamond
0.0,6.0,0.0,1,1.0,1.0,467.245101929,4.0,phase_1,,,,,,,,,,,,,magenta,circle
210.0,7.0,3.0,0,3.0,3.0,500.859975815,4.0,phase_1,,,,,,,,,,,,,orange,triangle
377.0,8.0,4.0,1,2.0,2.0,784.649133682,4.0,phase_1,,,,,,,,,,,,,yellow,flipped triangle
215.0,7.0,3.0,0,2.0,2.0,384.264945984,4.0,phase_1,,,,,,,,,,,,,orange,triangle
0.0,8.0,0.0,1,4.0,4.0,417.318820953,4.0,phase_1,,,,,,,,,,,,,yellow,flipped triangle
218.0,7.0,3.0,0,1.0,1.0,434.096813202,4.0,phase_1,,,,,,,,,,,,,orange,triangle
183.0,3.0,3.0,1,2.0,2.0,468.189001083,4.0,phase_1,,,,,,,,,,,,,blue,cross
416.0,8.0,4.0,1,1.0,1.0,401.105880737,4.0,phase_1,,,,,,,,,,,,,yellow,flipped triangle
67.0,5.0,1.0,1,2.0,2.0,384.282827377,4.0,phase_1,,,,,,,,,,,,,green,diamond
0.0,1.0,0.0,0,2.0,2.0,383.94904136699995,4.0,phase_1,,,,,,,,,,,,,gray,hexagon
0.0,6.0,2.0,1,5.0,5.0,534.078121185,1.0,phase_2,go,250.0,250.0,1.0,,,,,,,,,magenta,circle
0.0,3.0,3.0,1,5.0,5.0,951.076030731,1.0,phase_2,go,250.0,250.0,1.0,,,,,,,,,blue,cross
0.0,3.0,3.0,1,5.0,0.0,,1.0,phase_2,stop,250.0,250.0,4.0,,,,,,,,,blue,cross
0.0,8.0,4.0,1,6.0,6.0,434.682846069,1.0,phase_2,stop,250.0,250.0,3.0,,,,,,,,,yellow,flipped triangle
0.0,2.0,2.0,0,6.0,6.0,751.568078995,1.0,phase_2,go,250.0,250.0,1.0,,,,,,,,,white,square
0.0,1.0,1.0,0,5.0,5.0,768.4388160709999,1.0,phase_2,go,250.0,250.0,1.0,,,,,,,,,gray,hexagon
0.0,8.0,4.0,1,6.0,0.0,,1.0,phase_2,stop,250.0,200.0,4.0,,,,,,,,,yellow,flipped triangle
0.0,5.0,1.0,1,5.0,0.0,,1.0,phase_2,stop,300.0,200.0,4.0,,,,,,,,,green,diamond
0.0,2.0,2.0,0,5.0,5.0,467.84901619000004,1.0,phase_2,go,300.0,200.0,1.0,,,,,,,,,white,square
0.0,4.0,4.0,0,5.0,5.0,517.742156982,1.0,phase_2,go,300.0,200.0,1.0,,,,,,,,,cyan,line
0.0,4.0,4.0,0,5.0,5.0,784.409999847,1.0,phase_2,go,300.0,200.0,1.0,,,,,,,,,cyan,line
0.0,6.0,2.0,1,5.0,0.0,,1.0,phase_2,stop,350.0,200.0,4.0,,,,,,,,,magenta,circle
0.0,5.0,1.0,1,5.0,5.0,717.938184738,1.0,phase_2,go,350.0,200.0,1.0,,,,,,,,,green,diamond
0.0,5.0,1.0,1,6.0,6.0,684.5660209660001,1.0,phase_2,go,350.0,200.0,1.0,,,,,,,,,green,diamond
0.0,7.0,3.0,0,6.0,6.0,751.6548633580001,1.0,phase_2,go,350.0,200.0,1.0,,,,,,,,,orange,triangle
0.0,7.0,3.0,0,6.0,6.0,867.7980899810001,1.0,phase_2,go,350.0,200.0,1.0,,,,,,,,,orange,triangle
0.0,6.0,2.0,1,6.0,0.0,,1.0,phase_2,stop,350.0,250.0,4.0,,,,,,,,,magenta,circle
0.0,6.0,2.0,1,5.0,5.0,517.735958099,1.0,phase_2,stop,400.0,250.0,3.0,,,,,,,,,magenta,circle
0.0,5.0,1.0,1,5.0,0.0,,1.0,phase_2,stop,350.0,250.0,4.0,,,,,,,,,green,diamond
0.0,7.0,3.0,0,6.0,6.0,667.989969254,1.0,phase_2,go,350.0,250.0,1.0,,,,,,,,,orange,triangle
0.0,1.0,1.0,0,6.0,6.0,734.555006027,1.0,phase_2,go,350.0,250.0,1.0,,,,,,,,,gray,hexagon
0.0,8.0,4.0,1,6.0,6.0,834.437847137,1.0,phase_2,go,350.0,250.0,1.0,,,,,,,,,yellow,flipped triangle
0.0,8.0,4.0,1,6.0,0.0,,1.0,phase_2,stop,350.0,300.0,4.0,,,,,,,,,yellow,flipped triangle
0.0,4.0,4.0,0,5.0,5.0,634.646892548,1.0,phase_2,go,350.0,300.0,1.0,,,,,,,,,cyan,line
0.0,5.0,1.0,1,5.0,5.0,667.7091121670001,1.0,phase_2,go,350.0,300.0,1.0,,,,,,,,,green,diamond
0.0,4.0,4.0,0,6.0,6.0,717.626094818,1.0,phase_2,go,350.0,300.0,1.0,,,,,,,,,cyan,line
0.0,7.0,3.0,0,5.0,5.0,650.7570743560001,1.0,phase_2,go,350.0,300.0,1.0,,,,,,,,,orange,triangle
0.0,1.0,1.0,0,5.0,5.0,951.303005219,1.0,phase_2,go,350.0,300.0,1.0,,,,,,,,,gray,hexagon
0.0,7.0,3.0,0,6.0,6.0,617.1557903290001,1.0,phase_2,go,350.0,300.0,1.0,,,,,,,,,orange,triangle
0.0,1.0,1.0,0,6.0,6.0,434.30614471399997,1.0,phase_2,go,350.0,300.0,1.0,,,,,,,,,gray,hexagon
0.0,5.0,1.0,1,6.0,0.0,,1.0,phase_2,stop,350.0,350.0,4.0,,,,,,,,,green,diamond
0.0,6.0,2.0,1,6.0,6.0,651.626110077,1.0,phase_2,stop,350.0,400.0,3.0,,,,,,,,,magenta,circle
0.0,4.0,4.0,0,5.0,5.0,651.177883148,1.0,phase_2,go,350.0,400.0,1.0,,,,,,,,,cyan,line
0.0,6.0,2.0,1,6.0,6.0,550.582170486,1.0,phase_2,go,350.0,400.0,1.0,,,,,,,,,magenta,circle
0.0,5.0,1.0,1,5.0,5.0,684.503078461,1.0,phase_2,go,350.0,400.0,1.0,,,,,,,,,green,diamond
0.0,5.0,1.0,1,6.0,6.0,484.282016754,1.0,phase_2,stop,350.0,350.0,3.0,,,,,,,,,green,diamond
0.0,2.0,2.0,0,6.0,6.0,500.868082047,2.0,phase_2,go,350.0,350.0,1.0,,,,,,,,,white,square
0.0,5.0,1.0,1,5.0,0.0,,2.0,phase_2,stop,400.0,350.0,4.0,,,,,,,,,green,diamond
0.0,5.0,1.0,1,5.0,5.0,751.0981559749999,2.0,phase_2,go,400.0,350.0,1.0,,,,,,,,,green,diamond
0.0,2.0,2.0,0,6.0,6.0,767.71903038,2.0,phase_2,go,400.0,350.0,1.0,,,,,,,,,white,square
0.0,7.0,3.0,0,5.0,5.0,751.142978668,2.0,phase_2,go,400.0,350.0,1.0,,,,,,,,,orange,triangle
0.0,3.0,3.0,1,6.0,0.0,,2.0,phase_2,stop,400.0,300.0,4.0,,,,,,,,,blue,cross
0.0,8.0,4.0,1,5.0,0.0,,2.0,phase_2,stop,450.0,300.0,4.0,,,,,,,,,yellow,flipped triangle
0.0,3.0,3.0,1,5.0,5.0,518.589019775,2.0,phase_2,stop,500.0,300.0,3.0,,,,,,,,,blue,cross
0.0,8.0,4.0,1,5.0,5.0,817.7418708800001,2.0,phase_2,go,500.0,300.0,1.0,,,,,,,,,yellow,flipped triangle
0.0,2.0,2.0,0,6.0,6.0,867.9881095889999,2.0,phase_2,go,500.0,300.0,1.0,,,,,,,,,white,square
0.0,8.0,4.0,1,5.0,0.0,,2.0,phase_2,stop,450.0,300.0,4.0,,,,,,,,,yellow,flipped triangle
0.0,3.0,3.0,1,6.0,0.0,,2.0,phase_2,stop,450.0,350.0,4.0,,,,,,,,,blue,cross
0.0,3.0,3.0,1,6.0,6.0,550.850152969,2.0,phase_2,stop,450.0,400.0,3.0,,,,,,,,,blue,cross
0.0,5.0,1.0,1,6.0,0.0,,2.0,phase_2,stop,450.0,350.0,4.0,,,,,,,,,green,diamond
0.0,6.0,2.0,1,6.0,0.0,,2.0,phase_2,stop,450.0,400.0,4.0,,,,,,,,,magenta,circle
0.0,6.0,2.0,1,5.0,5.0,550.694942474,2.0,phase_2,go,450.0,400.0,1.0,,,,,,,,,magenta,circle
0.0,7.0,3.0,0,6.0,6.0,734.117984772,2.0,phase_2,go,450.0,400.0,1.0,,,,,,,,,orange,triangle
0.0,7.0,3.0,0,6.0,6.0,667.983055115,2.0,phase_2,go,450.0,400.0,1.0,,,,,,,,,orange,triangle
0.0,5.0,1.0,1,6.0,6.0,384.06085967999996,2.0,phase_2,stop,450.0,450.0,3.0,,,,,,,,,green,diamond
0.0,8.0,4.0,1,6.0,0.0,,2.0,phase_2,stop,450.0,400.0,4.0,,,,,,,,,yellow,flipped triangle
0.0,1.0,1.0,0,6.0,6.0,767.860174179,2.0,phase_2,go,450.0,400.0,1.0,,,,,,,,,gray,hexagon
0.0,6.0,2.0,1,6.0,0.0,,2.0,phase_2,stop,450.0,450.0,4.0,,,,,,,,,magenta,circle
0.0,3.0,3.0,1,6.0,6.0,501.10101699800003,2.0,phase_2,stop,450.0,500.0,3.0,,,,,,,,,blue,cross
0.0,2.0,2.0,0,5.0,5.0,951.673984528,2.0,phase_2,go,450.0,500.0,1.0,,,,,,,,,white,square
0.0,2.0,2.0,0,5.0,5.0,717.709064484,2.0,phase_2,go,450.0,500.0,1.0,,,,,,,,,white,square
0.0,3.0,3.0,1,6.0,6.0,751.27196312,2.0,phase_2,go,450.0,500.0,1.0,,,,,,,,,blue,cross
0.0,8.0,4.0,1,6.0,6.0,934.78512764,2.0,phase_2,go,450.0,500.0,1.0,,,,,,,,,yellow,flipped triangle
0.0,2.0,2.0,0,5.0,0.0,,2.0,phase_2,go,450.0,500.0,5.0,,,,,,,,,white,square
0.0,5.0,1.0,1,5.0,0.0,,2.0,phase_2,stop,500.0,500.0,4.0,,,,,,,,,green,diamond
0.0,2.0,2.0,0,5.0,5.0,717.87405014,2.0,phase_2,go,500.0,500.0,1.0,,,,,,,,,white,square
0.0,1.0,1.0,0,5.0,5.0,884.315013885,2.0,phase_2,go,500.0,500.0,1.0,,,,,,,,,gray,hexagon
0.0,4.0,4.0,0,6.0,6.0,718.1198596950001,2.0,phase_2,go,500.0,500.0,1.0,,,,,,,,,cyan,line
0.0,4.0,4.0,0,5.0,5.0,617.6412105559999,2.0,phase_2,go,500.0,500.0,1.0,,,,,,,,,cyan,line
0.0,2.0,2.0,0,5.0,5.0,718.090057373,2.0,phase_2,go,500.0,500.0,1.0,,,,,,,,,white,square
0.0,2.0,2.0,0,5.0,5.0,784.4469547269999,2.0,phase_2,go,500.0,500.0,1.0,,,,,,,,,white,square
0.0,1.0,1.0,0,5.0,5.0,434.113025665,2.0,phase_2,go,500.0,500.0,1.0,,,,,,,,,gray,hexagon
0.0,3.0,3.0,1,5.0,5.0,534.276008606,3.0,phase_2,stop,550.0,500.0,3.0,,,,,,,,,blue,cross
0.0,1.0,1.0,0,6.0,6.0,550.811052322,3.0,phase_2,go,550.0,500.0,1.0,,,,,,,,,gray,hexagon
0.0,8.0,4.0,1,5.0,5.0,501.02591514600005,3.0,phase_2,stop,500.0,500.0,3.0,,,,,,,,,yellow,flipped triangle
0.0,5.0,1.0,1,6.0,0.0,,3.0,phase_2,stop,500.0,450.0,4.0,,,,,,,,,green,diamond
0.0,6.0,2.0,1,6.0,0.0,,3.0,phase_2,stop,500.0,500.0,4.0,,,,,,,,,magenta,circle
0.0,3.0,3.0,1,5.0,0.0,,3.0,phase_2,stop,450.0,500.0,4.0,,,,,,,,,blue,cross
0.0,7.0,3.0,0,5.0,5.0,450.8497715,3.0,phase_2,go,450.0,500.0,1.0,,,,,,,,,orange,triangle
0.0,5.0,1.0,1,6.0,0.0,,3.0,phase_2,stop,450.0,550.0,4.0,,,,,,,,,green,diamond
0.0,3.0,3.0,1,6.0,0.0,,3.0,phase_2,stop,450.0,600.0,4.0,,,,,,,,,blue,cross
0.0,8.0,4.0,1,5.0,0.0,,3.0,phase_2,stop,500.0,600.0,4.0,,,,,,,,,yellow,flipped triangle
0.0,7.0,3.0,0,6.0,6.0,734.516143799,3.0,phase_2,go,500.0,600.0,1.0,,,,,,,,,orange,triangle
0.0,8.0,4.0,1,6.0,0.0,,3.0,phase_2,stop,500.0,650.0,4.0,,,,,,,,,yellow,flipped triangle
0.0,3.0,3.0,1,5.0,0.0,,3.0,phase_2,stop,550.0,650.0,4.0,,,,,,,,,blue,cross
0.0,7.0,3.0,0,5.0,5.0,667.593955994,3.0,phase_2,go,550.0,650.0,1.0,,,,,,,,,orange,triangle
0.0,1.0,1.0,0,5.0,5.0,751.01518631,3.0,phase_2,go,550.0,650.0,1.0,,,,,,,,,gray,hexagon
0.0,3.0,3.0,1,6.0,6.0,784.9991321560001,3.0,phase_2,stop,550.0,700.0,3.0,,,,,,,,,blue,cross
0.0,3.0,3.0,1,5.0,0.0,,3.0,phase_2,stop,600.0,700.0,4.0,,,,,,,,,blue,cross
0.0,5.0,1.0,1,6.0,0.0,,3.0,phase_2,stop,600.0,650.0,4.0,,,,,,,,,green,diamond
0.0,4.0,4.0,0,6.0,6.0,784.8289012910001,3.0,phase_2,go,600.0,650.0,1.0,,,,,,,,,cyan,line
0.0,6.0,2.0,1,5.0,0.0,,3.0,phase_2,stop,650.0,650.0,4.0,,,,,,,,,magenta,circle
0.0,2.0,2.0,0,5.0,0.0,,3.0,phase_2,go,650.0,650.0,5.0,,,,,,,,,white,square
0.0,4.0,4.0,0,6.0,0.0,,3.0,phase_2,go,650.0,650.0,5.0,,,,,,,,,cyan,line
0.0,4.0,4.0,0,6.0,6.0,918.684005737,3.0,phase_2,go,650.0,650.0,1.0,,,,,,,,,cyan,line
0.0,2.0,2.0,0,5.0,0.0,,3.0,phase_2,go,650.0,650.0,5.0,,,,,,,,,white,square
0.0,8.0,4.0,1,5.0,5.0,717.890024185,3.0,phase_2,go,650.0,650.0,1.0,,,,,,,,,yellow,flipped triangle
0.0,2.0,2.0,0,6.0,6.0,701.0719776149999,3.0,phase_2,go,650.0,650.0,1.0,,,,,,,,,white,square
0.0,5.0,1.0,1,6.0,6.0,784.523963928,3.0,phase_2,go,650.0,650.0,1.0,,,,,,,,,green,diamond
0.0,8.0,4.0,1,6.0,6.0,634.28902626,3.0,phase_2,stop,650.0,700.0,3.0,,,,,,,,,yellow,flipped triangle
0.0,6.0,2.0,1,5.0,5.0,834.496021271,3.0,phase_2,stop,700.0,700.0,3.0,,,,,,,,,magenta,circle
0.0,8.0,4.0,1,6.0,0.0,,3.0,phase_2,stop,700.0,650.0,4.0,,,,,,,,,yellow,flipped triangle
0.0,1.0,1.0,0,5.0,0.0,,3.0,phase_2,go,700.0,650.0,5.0,,,,,,,,,gray,hexagon
0.0,7.0,3.0,0,6.0,6.0,434.64589119000004,3.0,phase_2,go,700.0,650.0,1.0,,,,,,,,,orange,triangle
0.0,1.0,1.0,0,6.0,6.0,434.433937073,3.0,phase_2,go,700.0,650.0,1.0,,,,,,,,,gray,hexagon
0.0,6.0,2.0,1,5.0,5.0,501.09791755699996,3.0,phase_2,stop,650.0,650.0,3.0,,,,,,,,,magenta,circle
0.0,1.0,1.0,0,5.0,5.0,517.688035965,3.0,phase_2,go,650.0,650.0,1.0,,,,,,,,,gray,hexagon
0.0,2.0,2.0,0,5.0,5.0,467.60082244899996,3.0,phase_2,go,650.0,650.0,1.0,,,,,,,,,white,square
0.0,2.0,2.0,0,6.0,6.0,618.074893951,4.0,phase_2,go,650.0,650.0,1.0,,,,,,,,,white,square
0.0,7.0,3.0,0,6.0,6.0,868.2339191440001,4.0,phase_2,go,650.0,650.0,1.0,,,,,,,,,orange,triangle
0.0,3.0,3.0,1,5.0,0.0,,4.0,phase_2,stop,600.0,650.0,4.0,,,,,,,,,blue,cross
0.0,4.0,4.0,0,5.0,5.0,768.0921554570001,4.0,phase_2,go,600.0,650.0,1.0,,,,,,,,,cyan,line
0.0,2.0,2.0,0,6.0,6.0,917.997121811,4.0,phase_2,go,600.0,650.0,1.0,,,,,,,,,white,square
0.0,1.0,1.0,0,5.0,0.0,,4.0,phase_2,go,600.0,650.0,5.0,,,,,,,,,gray,hexagon
0.0,1.0,1.0,0,6.0,6.0,784.600019455,4.0,phase_2,go,600.0,650.0,1.0,,,,,,,,,gray,hexagon
0.0,1.0,1.0,0,6.0,6.0,600.9309291840001,4.0,phase_2,go,600.0,650.0,1.0,,,,,,,,,gray,hexagon
0.0,7.0,3.0,0,6.0,6.0,751.094102859,4.0,phase_2,go,600.0,650.0,1.0,,,,,,,,,orange,triangle
0.0,2.0,2.0,0,6.0,6.0,751.890897751,4.0,phase_2,go,600.0,650.0,1.0,,,,,,,,,white,square
0.0,8.0,4.0,1,5.0,5.0,867.840766907,4.0,phase_2,stop,650.0,650.0,3.0,,,,,,,,,yellow,flipped triangle
0.0,3.0,3.0,1,5.0,0.0,,4.0,phase_2,go,650.0,650.0,5.0,,,,,,,,,blue,cross
0.0,5.0,1.0,1,6.0,6.0,417.802095413,4.0,phase_2,stop,650.0,700.0,3.0,,,,,,,,,green,diamond
0.0,4.0,4.0,0,6.0,6.0,767.415046692,4.0,phase_2,go,650.0,700.0,1.0,,,,,,,,,cyan,line
0.0,6.0,2.0,1,6.0,6.0,867.9580688479999,4.0,phase_2,stop,650.0,650.0,3.0,,,,,,,,,magenta,circle
0.0,8.0,4.0,1,6.0,6.0,500.94985961899994,4.0,phase_2,stop,650.0,600.0,3.0,,,,,,,,,yellow,flipped triangle
0.0,5.0,1.0,1,5.0,5.0,567.6379203800001,4.0,phase_2,stop,600.0,600.0,3.0,,,,,,,,,green,diamond
0.0,5.0,1.0,1,5.0,5.0,450.76084137,4.0,phase_2,stop,550.0,600.0,3.0,,,,,,,,,green,diamond
0.0,6.0,2.0,1,5.0,5.0,784.156084061,4.0,phase_2,go,550.0,600.0,1.0,,,,,,,,,magenta,circle
0.0,4.0,4.0,0,5.0,5.0,751.049041748,4.0,phase_2,go,550.0,600.0,1.0,,,,,,,,,cyan,line
0.0,3.0,3.0,1,5.0,5.0,918.664932251,4.0,phase_2,go,550.0,600.0,1.0,,,,,,,,,blue,cross
0.0,7.0,3.0,0,6.0,6.0,650.801181793,4.0,phase_2,go,550.0,600.0,1.0,,,,,,,,,orange,triangle
0.0,4.0,4.0,0,5.0,5.0,801.2650012969999,4.0,phase_2,go,550.0,600.0,1.0,,,,,,,,,cyan,line
0.0,5.0,1.0,1,6.0,6.0,918.323993683,4.0,phase_2,go,550.0,600.0,1.0,,,,,,,,,green,diamond
0.0,3.0,3.0,1,5.0,5.0,383.991956711,4.0,phase_2,go,550.0,600.0,1.0,,,,,,,,,blue,cross
0.0,5.0,1.0,1,6.0,6.0,333.894968033,4.0,phase_2,stop,550.0,550.0,3.0,,,,,,,,,green,diamond
0.0,6.0,2.0,1,6.0,0.0,,4.0,phase_2,stop,550.0,500.0,4.0,,,,,,,,,magenta,circle
0.0,3.0,3.0,1,5.0,0.0,,4.0,phase_2,stop,500.0,500.0,4.0,,,,,,,,,blue,cross
0.0,8.0,4.0,1,6.0,0.0,,4.0,phase_2,stop,500.0,550.0,4.0,,,,,,,,,yellow,flipped triangle
0.0,4.0,4.0,0,5.0,5.0,635.15496254,4.0,phase_2,go,500.0,550.0,1.0,,,,,,,,,cyan,line
0.0,8.0,4.0,1,5.0,0.0,,4.0,phase_2,stop,550.0,550.0,4.0,,,,,,,,,yellow,flipped triangle
0.0,6.0,2.0,1,6.0,6.0,634.652137756,4.0,phase_2,go,550.0,550.0,1.0,,,,,,,,,magenta,circle
0.0,8.0,4.0,1,5.0,0.0,,4.0,phase_2,go,550.0,550.0,5.0,,,,,,,,,yellow,flipped triangle
0.0,4.0,4.0,0,5.0,5.0,717.964887619,4.0,phase_2,go,550.0,550.0,1.0,,,,,,,,,cyan,line
0.0,5.0,1.0,1,6.0,6.0,600.902080536,4.0,phase_2,go,550.0,550.0,1.0,,,,,,,,,green,diamond
0.0,5.0,1.0,1,5.0,5.0,617.6939010619999,4.0,phase_2,stop,600.0,550.0,3.0,,,,,,,,,green,diamond
0.0,8.0,4.0,1,6.0,6.0,568.269014359,5.0,phase_2,stop,600.0,600.0,3.0,,,,,,,,,yellow,flipped triangle
0.0,6.0,2.0,1,6.0,0.0,,5.0,phase_2,go,600.0,600.0,5.0,,,,,,,,,magenta,circle
0.0,3.0,3.0,1,6.0,0.0,,5.0,phase_2,stop,600.0,550.0,4.0,,,,,,,,,blue,cross
0.0,1.0,1.0,0,5.0,5.0,785.191059113,5.0,phase_2,go,600.0,550.0,1.0,,,,,,,,,gray,hexagon
0.0,2.0,2.0,0,5.0,0.0,,5.0,phase_2,go,600.0,550.0,5.0,,,,,,,,,white,square
0.0,7.0,3.0,0,6.0,0.0,,5.0,phase_2,go,600.0,550.0,5.0,,,,,,,,,orange,triangle
0.0,2.0,2.0,0,5.0,5.0,600.908994675,5.0,phase_2,go,600.0,550.0,1.0,,,,,,,,,white,square
0.0,2.0,2.0,0,5.0,5.0,684.7071647639999,5.0,phase_2,go,600.0,550.0,1.0,,,,,,,,,white,square
0.0,2.0,2.0,0,6.0,6.0,634.5617771149999,5.0,phase_2,go,600.0,550.0,1.0,,,,,,,,,white,square
0.0,4.0,4.0,0,6.0,6.0,917.974948883,5.0,phase_2,go,600.0,550.0,1.0,,,,,,,,,cyan,line
0.0,4.0,4.0,0,5.0,5.0,651.282072067,5.0,phase_2,go,600.0,550.0,1.0,,,,,,,,,cyan,line
0.0,7.0,3.0,0,6.0,6.0,734.077215195,5.0,phase_2,go,600.0,550.0,1.0,,,,,,,,,orange,triangle
0.0,6.0,2.0,1,5.0,0.0,,5.0,phase_2,go,600.0,550.0,5.0,,,,,,,,,magenta,circle
0.0,3.0,3.0,1,5.0,5.0,684.3919754030001,5.0,phase_2,stop,550.0,550.0,3.0,,,,,,,,,blue,cross
0.0,1.0,1.0,0,6.0,6.0,651.093006134,5.0,phase_2,go,550.0,550.0,1.0,,,,,,,,,gray,hexagon
0.0,1.0,1.0,0,6.0,6.0,584.444046021,5.0,phase_2,go,550.0,550.0,1.0,,,,,,,,,gray,hexagon
0.0,6.0,2.0,1,5.0,0.0,,5.0,phase_2,stop,500.0,550.0,4.0,,,,,,,,,magenta,circle
0.0,8.0,4.0,1,6.0,6.0,651.041030884,5.0,phase_2,stop,500.0,600.0,3.0,,,,,,,,,yellow,flipped triangle
0.0,4.0,4.0,0,5.0,5.0,567.641973495,5.0,phase_2,go,500.0,600.0,1.0,,,,,,,,,cyan,line
0.0,8.0,4.0,1,6.0,0.0,,5.0,phase_2,stop,500.0,550.0,4.0,,,,,,,,,yellow,flipped triangle
0.0,5.0,1.0,1,6.0,0.0,,5.0,phase_2,stop,500.0,600.0,4.0,,,,,,,,,green,diamond
0.0,4.0,4.0,0,5.0,5.0,851.307153702,5.0,phase_2,go,500.0,600.0,1.0,,,,,,,,,cyan,line
0.0,8.0,4.0,1,5.0,0.0,,5.0,phase_2,stop,550.0,600.0,4.0,,,,,,,,,yellow,flipped triangle
0.0,7.0,3.0,0,5.0,5.0,884.4718933109999,5.0,phase_2,go,550.0,600.0,1.0,,,,,,,,,orange,triangle
0.0,4.0,4.0,0,6.0,6.0,700.6368637080001,5.0,phase_2,go,550.0,600.0,1.0,,,,,,,,,cyan,line
0.0,1.0,1.0,0,5.0,5.0,801.544904709,5.0,phase_2,go,550.0,600.0,1.0,,,,,,,,,gray,hexagon
0.0,3.0,3.0,1,6.0,6.0,768.116950989,5.0,phase_2,stop,550.0,650.0,3.0,,,,,,,,,blue,cross
0.0,4.0,4.0,0,6.0,6.0,685.226917267,5.0,phase_2,go,550.0,650.0,1.0,,,,,,,,,cyan,line
0.0,3.0,3.0,1,5.0,0.0,,5.0,phase_2,stop,600.0,650.0,4.0,,,,,,,,,blue,cross
0.0,3.0,3.0,1,6.0,0.0,,5.0,phase_2,stop,600.0,600.0,4.0,,,,,,,,,blue,cross
0.0,6.0,2.0,1,5.0,0.0,,5.0,phase_2,stop,650.0,600.0,4.0,,,,,,,,,magenta,circle
0.0,1.0,1.0,0,5.0,0.0,,5.0,phase_2,go,650.0,600.0,5.0,,,,,,,,,gray,hexagon
0.0,1.0,1.0,0,6.0,6.0,584.4559669490001,5.0,phase_2,go,650.0,600.0,1.0,,,,,,,,,gray,hexagon
0.0,4.0,4.0,0,5.0,5.0,450.542926788,5.0,phase_2,go,650.0,600.0,1.0,,,,,,,,,cyan,line
0.0,1.0,1.0,0,6.0,6.0,667.9959297180001,5.0,phase_2,go,650.0,600.0,1.0,,,,,,,,,gray,hexagon
0.0,8.0,4.0,1,5.0,5.0,767.79294014,5.0,phase_2,stop,700.0,600.0,3.0,,,,,,,,,yellow,flipped triangle
0.0,8.0,4.0,1,6.0,6.0,434.018135071,6.0,phase_2,stop,700.0,650.0,3.0,,,,,,,,,yellow,flipped triangle
0.0,2.0,2.0,0,5.0,5.0,667.701005936,6.0,phase_2,go,700.0,650.0,1.0,,,,,,,,,white,square
0.0,5.0,1.0,1,6.0,0.0,,6.0,phase_2,stop,700.0,600.0,4.0,,,,,,,,,green,diamond
0.0,3.0,3.0,1,6.0,0.0,,6.0,phase_2,stop,700.0,650.0,4.0,,,,,,,,,blue,cross
0.0,5.0,1.0,1,5.0,5.0,867.844820023,6.0,phase_2,stop,650.0,650.0,3.0,,,,,,,,,green,diamond
0.0,4.0,4.0,0,6.0,6.0,868.613958359,6.0,phase_2,go,650.0,650.0,1.0,,,,,,,,,cyan,line
0.0,2.0,2.0,0,5.0,0.0,,6.0,phase_2,go,650.0,650.0,5.0,,,,,,,,,white,square
0.0,3.0,3.0,1,5.0,0.0,,6.0,phase_2,stop,600.0,650.0,4.0,,,,,,,,,blue,cross
0.0,3.0,3.0,1,5.0,0.0,,6.0,phase_2,stop,650.0,650.0,4.0,,,,,,,,,blue,cross
0.0,7.0,3.0,0,5.0,0.0,,6.0,phase_2,go,650.0,650.0,5.0,,,,,,,,,orange,triangle
0.0,3.0,3.0,1,5.0,5.0,884.919881821,6.0,phase_2,stop,700.0,650.0,3.0,,,,,,,,,blue,cross
0.0,5.0,1.0,1,5.0,0.0,,6.0,phase_2,stop,650.0,650.0,4.0,,,,,,,,,green,diamond
0.0,4.0,4.0,0,6.0,6.0,817.939043045,6.0,phase_2,go,650.0,650.0,1.0,,,,,,,,,cyan,line
0.0,2.0,2.0,0,6.0,0.0,,6.0,phase_2,go,650.0,650.0,5.0,,,,,,,,,white,square
0.0,8.0,4.0,1,6.0,0.0,,6.0,phase_2,stop,650.0,700.0,4.0,,,,,,,,,yellow,flipped triangle
0.0,8.0,4.0,1,5.0,0.0,,6.0,phase_2,stop,700.0,700.0,4.0,,,,,,,,,yellow,flipped triangle
0.0,7.0,3.0,0,5.0,0.0,,6.0,phase_2,go,700.0,700.0,5.0,,,,,,,,,orange,triangle
0.0,1.0,1.0,0,6.0,6.0,967.8440093989999,6.0,phase_2,go,700.0,700.0,1.0,,,,,,,,,gray,hexagon
0.0,2.0,2.0,0,5.0,5.0,901.351928711,6.0,phase_2,go,700.0,700.0,1.0,,,,,,,,,white,square
0.0,8.0,4.0,1,6.0,6.0,500.82397460899995,6.0,phase_2,stop,700.0,750.0,3.0,,,,,,,,,yellow,flipped triangle
0.0,1.0,1.0,0,6.0,6.0,684.5870018009999,6.0,phase_2,go,700.0,750.0,1.0,,,,,,,,,gray,hexagon
0.0,4.0,4.0,0,5.0,5.0,617.964982986,6.0,phase_2,go,700.0,750.0,1.0,,,,,,,,,cyan,line
0.0,6.0,2.0,1,6.0,6.0,901.6621112820001,6.0,phase_2,go,700.0,750.0,1.0,,,,,,,,,magenta,circle
0.0,5.0,1.0,1,5.0,5.0,834.763050079,6.0,phase_2,stop,750.0,750.0,3.0,,,,,,,,,green,diamond
0.0,5.0,1.0,1,5.0,0.0,,6.0,phase_2,stop,700.0,750.0,4.0,,,,,,,,,green,diamond
0.0,8.0,4.0,1,5.0,5.0,818.182945251,6.0,phase_2,go,700.0,750.0,1.0,,,,,,,,,yellow,flipped triangle
0.0,3.0,3.0,1,5.0,0.0,,6.0,phase_2,go,700.0,750.0,5.0,,,,,,,,,blue,cross
0.0,6.0,2.0,1,6.0,6.0,601.073026657,6.0,phase_2,stop,700.0,700.0,3.0,,,,,,,,,magenta,circle
0.0,5.0,1.0,1,5.0,5.0,701.008081436,6.0,phase_2,stop,750.0,700.0,3.0,,,,,,,,,green,diamond
0.0,2.0,2.0,0,5.0,5.0,768.4030532840001,6.0,phase_2,go,750.0,700.0,1.0,,,,,,,,,white,square
0.0,7.0,3.0,0,6.0,6.0,918.388128281,6.0,phase_2,go,750.0,700.0,1.0,,,,,,,,,orange,triangle
0.0,3.0,3.0,1,6.0,0.0,,6.0,phase_2,go,750.0,700.0,5.0,,,,,,,,,blue,cross
0.0,1.0,1.0,0,6.0,6.0,751.270055771,6.0,phase_2,go,750.0,700.0,1.0,,,,,,,,,gray,hexagon
0.0,7.0,3.0,0,6.0,6.0,968.2359695429999,6.0,phase_2,go,750.0,700.0,1.0,,,,,,,,,orange,triangle
0.0,6.0,2.0,1,6.0,0.0,,6.0,phase_2,stop,750.0,650.0,4.0,,,,,,,,,magenta,circle
0.0,2.0,2.0,0,6.0,6.0,634.6449851990001,6.0,phase_2,go,750.0,650.0,1.0,,,,,,,,,white,square
0.0,1.0,1.0,0,6.0,6.0,450.581789017,7.0,phase_2,go,750.0,650.0,1.0,,,,,,,,,gray,hexagon
0.0,6.0,2.0,1,6.0,6.0,450.687885284,7.0,phase_2,stop,750.0,700.0,3.0,,,,,,,,,magenta,circle
0.0,1.0,1.0,0,5.0,5.0,601.130008698,7.0,phase_2,go,750.0,700.0,1.0,,,,,,,,,gray,hexagon
0.0,5.0,1.0,1,6.0,0.0,,7.0,phase_2,stop,750.0,650.0,4.0,,,,,,,,,green,diamond
0.0,7.0,3.0,0,5.0,0.0,,7.0,phase_2,go,750.0,650.0,5.0,,,,,,,,,orange,triangle
0.0,7.0,3.0,0,5.0,5.0,884.639024734,7.0,phase_2,go,750.0,650.0,1.0,,,,,,,,,orange,triangle
0.0,7.0,3.0,0,6.0,6.0,718.307971954,7.0,phase_2,go,750.0,650.0,1.0,,,,,,,,,orange,triangle
0.0,1.0,1.0,0,5.0,5.0,934.8101615910001,7.0,phase_2,go,750.0,650.0,1.0,,,,,,,,,gray,hexagon
0.0,4.0,4.0,0,6.0,6.0,951.297044754,7.0,phase_2,go,750.0,650.0,1.0,,,,,,,,,cyan,line
0.0,4.0,4.0,0,6.0,6.0,717.535972595,7.0,phase_2,go,750.0,650.0,1.0,,,,,,,,,cyan,line
0.0,4.0,4.0,0,5.0,5.0,918.168783188,7.0,phase_2,go,750.0,650.0,1.0,,,,,,,,,cyan,line
0.0,1.0,1.0,0,5.0,5.0,600.922107697,7.0,phase_2,go,750.0,650.0,1.0,,,,,,,,,gray,hexagon
0.0,7.0,3.0,0,6.0,6.0,917.992830276,7.0,phase_2,go,750.0,650.0,1.0,,,,,,,,,orange,triangle
0.0,2.0,2.0,0,6.0,0.0,,7.0,phase_2,go,750.0,650.0,5.0,,,,,,,,,white,square
0.0,7.0,3.0,0,5.0,5.0,684.295892715,7.0,phase_2,go,750.0,650.0,1.0,,,,,,,,,orange,triangle
0.0,5.0,1.0,1,5.0,0.0,,7.0,phase_2,stop,700.0,650.0,4.0,,,,,,,,,green,diamond
0.0,2.0,2.0,0,6.0,0.0,,7.0,phase_2,go,700.0,650.0,5.0,,,,,,,,,white,square
0.0,7.0,3.0,0,6.0,0.0,,7.0,phase_2,go,700.0,650.0,5.0,,,,,,,,,orange,triangle
0.0,3.0,3.0,1,5.0,0.0,,7.0,phase_2,stop,750.0,650.0,4.0,,,,,,,,,blue,cross
0.0,6.0,2.0,1,5.0,0.0,,7.0,phase_2,stop,750.0,650.0,4.0,,,,,,,,,magenta,circle
0.0,3.0,3.0,1,5.0,5.0,901.168107986,7.0,phase_2,go,750.0,650.0,1.0,,,,,,,,,blue,cross
0.0,5.0,1.0,1,5.0,0.0,,7.0,phase_2,go,750.0,650.0,5.0,,,,,,,,,green,diamond
0.0,2.0,2.0,0,5.0,0.0,,7.0,phase_2,go,750.0,650.0,5.0,,,,,,,,,white,square
0.0,6.0,2.0,1,6.0,6.0,834.496021271,7.0,phase_2,stop,750.0,700.0,3.0,,,,,,,,,magenta,circle
0.0,6.0,2.0,1,5.0,5.0,968.5728549959999,7.0,phase_2,stop,750.0,700.0,3.0,,,,,,,,,magenta,circle
0.0,3.0,3.0,1,6.0,0.0,,7.0,phase_2,stop,750.0,650.0,4.0,,,,,,,,,blue,cross
0.0,2.0,2.0,0,5.0,0.0,,7.0,phase_2,go,750.0,650.0,5.0,,,,,,,,,white,square
0.0,1.0,1.0,0,6.0,6.0,751.3720989230001,7.0,phase_2,go,750.0,650.0,1.0,,,,,,,,,gray,hexagon
0.0,1.0,1.0,0,5.0,5.0,667.339086533,7.0,phase_2,go,750.0,650.0,1.0,,,,,,,,,gray,hexagon
0.0,7.0,3.0,0,5.0,5.0,834.437131882,7.0,phase_2,go,750.0,650.0,1.0,,,,,,,,,orange,triangle
0.0,6.0,2.0,1,5.0,0.0,,7.0,phase_2,stop,700.0,650.0,4.0,,,,,,,,,magenta,circle
0.0,7.0,3.0,0,6.0,0.0,,7.0,phase_2,go,700.0,650.0,5.0,,,,,,,,,orange,triangle
0.0,7.0,3.0,0,6.0,0.0,,7.0,phase_2,go,700.0,650.0,5.0,,,,,,,,,orange,triangle
0.0,8.0,4.0,1,6.0,0.0,,7.0,phase_2,stop,700.0,700.0,4.0,,,,,,,,,yellow,flipped triangle
0.0,6.0,2.0,1,6.0,6.0,467.16094017,7.0,phase_2,stop,700.0,750.0,3.0,,,,,,,,,magenta,circle
0.0,3.0,3.0,1,6.0,0.0,,7.0,phase_2,stop,700.0,700.0,4.0,,,,,,,,,blue,cross
0.0,7.0,3.0,0,5.0,5.0,617.37203598,8.0,phase_2,go,700.0,700.0,1.0,,,,,,,,,orange,triangle
0.0,8.0,4.0,1,6.0,0.0,,8.0,phase_2,stop,700.0,750.0,4.0,,,,,,,,,yellow,flipped triangle
0.0,7.0,3.0,0,6.0,6.0,868.173837662,8.0,phase_2,go,700.0,750.0,1.0,,,,,,,,,orange,triangle
0.0,6.0,2.0,1,6.0,6.0,934.8340034480001,8.0,phase_2,stop,700.0,750.0,3.0,,,,,,,,,magenta,circle
0.0,3.0,3.0,1,6.0,0.0,,8.0,phase_2,stop,700.0,700.0,4.0,,,,,,,,,blue,cross
0.0,6.0,2.0,1,5.0,0.0,,8.0,phase_2,stop,750.0,700.0,4.0,,,,,,,,,magenta,circle
0.0,6.0,2.0,1,6.0,6.0,868.088960648,8.0,phase_2,stop,750.0,750.0,3.0,,,,,,,,,magenta,circle
0.0,2.0,2.0,0,6.0,6.0,901.2839794160001,8.0,phase_2,go,750.0,750.0,1.0,,,,,,,,,white,square
0.0,6.0,2.0,1,5.0,5.0,801.497220993,8.0,phase_2,stop,750.0,750.0,3.0,,,,,,,,,magenta,circle
0.0,4.0,4.0,0,5.0,5.0,918.4839725490001,8.0,phase_2,go,750.0,750.0,1.0,,,,,,,,,cyan,line
0.0,8.0,4.0,1,5.0,0.0,,8.0,phase_2,go,750.0,750.0,5.0,,,,,,,,,yellow,flipped triangle
0.0,4.0,4.0,0,5.0,0.0,,8.0,phase_2,go,750.0,750.0,5.0,,,,,,,,,cyan,line
0.0,5.0,1.0,1,5.0,0.0,,8.0,phase_2,stop,700.0,750.0,4.0,,,,,,,,,green,diamond
0.0,1.0,1.0,0,5.0,0.0,,8.0,phase_2,go,700.0,750.0,5.0,,,,,,,,,gray,hexagon
0.0,8.0,4.0,1,6.0,6.0,918.087005615,8.0,phase_2,stop,700.0,700.0,3.0,,,,,,,,,yellow,flipped triangle
0.0,2.0,2.0,0,6.0,0.0,,8.0,phase_2,go,700.0,700.0,5.0,,,,,,,,,white,square
0.0,6.0,2.0,1,6.0,0.0,,8.0,phase_2,stop,700.0,650.0,4.0,,,,,,,,,magenta,circle
0.0,1.0,1.0,0,6.0,0.0,,8.0,phase_2,go,700.0,650.0,5.0,,,,,,,,,gray,hexagon
0.0,4.0,4.0,0,6.0,6.0,867.794036865,8.0,phase_2,go,700.0,650.0,1.0,,,,,,,,,cyan,line
0.0,1.0,1.0,0,5.0,5.0,851.9809246059999,8.0,phase_2,go,700.0,650.0,1.0,,,,,,,,,gray,hexagon
0.0,7.0,3.0,0,6.0,0.0,,8.0,phase_2,go,700.0,650.0,5.0,,,,,,,,,orange,triangle
0.0,2.0,2.0,0,6.0,6.0,918.2109832760001,8.0,phase_2,go,700.0,650.0,1.0,,,,,,,,,white,square
0.0,4.0,4.0,0,5.0,5.0,550.77791214,8.0,phase_2,go,700.0,650.0,1.0,,,,,,,,,cyan,line
0.0,4.0,4.0,0,5.0,5.0,567.842006683,8.0,phase_2,go,700.0,650.0,1.0,,,,,,,,,cyan,line
0.0,7.0,3.0,0,6.0,6.0,834.052801132,8.0,phase_2,go,700.0,650.0,1.0,,,,,,,,,orange,triangle
0.0,4.0,4.0,0,5.0,5.0,884.677886963,8.0,phase_2,go,700.0,650.0,1.0,,,,,,,,,cyan,line
0.0,2.0,2.0,0,6.0,6.0,718.341827393,8.0,phase_2,go,700.0,650.0,1.0,,,,,,,,,white,square
0.0,1.0,1.0,0,5.0,5.0,884.0072155,8.0,phase_2,go,700.0,650.0,1.0,,,,,,,,,gray,hexagon
0.0,7.0,3.0,0,6.0,6.0,901.207923889,8.0,phase_2,go,700.0,650.0,1.0,,,,,,,,,orange,triangle
0.0,6.0,2.0,1,5.0,0.0,,8.0,phase_2,go,700.0,650.0,5.0,,,,,,,,,magenta,circle
0.0,5.0,1.0,1,5.0,5.0,634.632825851,8.0,phase_2,stop,750.0,650.0,3.0,,,,,,,,,green,diamond
0.0,1.0,1.0,0,5.0,5.0,717.54693985,8.0,phase_2,go,750.0,650.0,1.0,,,,,,,,,gray,hexagon
0.0,8.0,4.0,1,6.0,6.0,534.355163574,8.0,phase_2,go,750.0,650.0,1.0,,,,,,,,,yellow,flipped triangle
0.0,8.0,4.0,1,6.0,6.0,434.442043304,8.0,phase_2,go,750.0,650.0,1.0,,,,,,,,,yellow,flipped triangle
0.0,4.0,4.0,0,5.0,5.0,784.260988235,8.0,phase_2,go,750.0,650.0,1.0,,,,,,,,,cyan,line
0.0,3.0,3.0,1,5.0,5.0,884.55581665,8.0,phase_2,go,750.0,650.0,1.0,,,,,,,,,blue,cross
0.0,8.0,4.0,1,7.0,,,1.0,phase_3,,,,,0.0,,147.0,245.0,294.0,196.0,49.0,98.0,yellow,flipped triangle
0.0,3.0,3.0,1,7.0,3.0,2219.51198578,1.0,phase_3,,,,,245.0,5.0,147.0,196.0,245.0,294.0,98.0,49.0,blue,cross
0.0,3.0,3.0,1,7.0,4.0,1502.32505798,1.0,phase_3,,,,,245.0,5.0,98.0,196.0,49.0,245.0,147.0,294.0,blue,cross
0.0,2.0,2.0,0,7.0,5.0,1468.12701225,1.0,phase_3,,,,,156.0,4.0,117.0,39.0,78.0,234.0,156.0,195.0,white,square
0.0,5.0,1.0,1,7.0,3.0,2435.9889030500003,1.0,phase_3,,,,,216.0,4.0,270.0,54.0,216.0,108.0,324.0,162.0,green,diamond
0.0,6.0,2.0,1,7.0,4.0,1618.9999580400001,1.0,phase_3,,,,,234.0,6.0,195.0,156.0,78.0,234.0,117.0,39.0,magenta,circle
0.0,8.0,4.0,1,7.0,1.0,1886.0769271899999,1.0,phase_3,,,,,220.0,5.0,220.0,176.0,264.0,88.0,132.0,44.0,yellow,flipped triangle
0.0,5.0,1.0,1,7.0,5.0,2253.21698189,1.0,phase_3,,,,,234.0,6.0,117.0,156.0,39.0,78.0,234.0,195.0,green,diamond
0.0,7.0,3.0,0,7.0,5.0,2503.2081604,1.0,phase_3,,,,,195.0,5.0,117.0,234.0,156.0,39.0,195.0,78.0,orange,triangle
0.0,7.0,3.0,0,7.0,6.0,1868.5538768800002,1.0,phase_3,,,,,136.0,4.0,34.0,102.0,170.0,204.0,68.0,136.0,orange,triangle
0.0,5.0,1.0,1,7.0,6.0,2069.16189194,1.0,phase_3,,,,,102.0,3.0,204.0,68.0,170.0,34.0,136.0,102.0,green,diamond
0.0,5.0,1.0,1,7.0,3.0,1452.37803459,1.0,phase_3,,,,,245.0,5.0,49.0,294.0,245.0,98.0,196.0,147.0,green,diamond
0.0,4.0,4.0,0,7.0,4.0,1802.3121357,1.0,phase_3,,,,,170.0,5.0,34.0,204.0,68.0,170.0,102.0,136.0,cyan,line
0.0,3.0,3.0,1,7.0,1.0,2219.47717667,1.0,phase_3,,,,,39.0,1.0,39.0,117.0,78.0,234.0,195.0,156.0,blue,cross
0.0,1.0,1.0,0,7.0,4.0,3504.2769908900004,1.0,phase_3,,,,,176.0,4.0,220.0,88.0,44.0,176.0,264.0,132.0,gray,hexagon
0.0,3.0,3.0,1,7.0,4.0,2569.20313835,1.0,phase_3,,,,,195.0,5.0,156.0,78.0,39.0,195.0,234.0,117.0,blue,cross
0.0,8.0,4.0,1,7.0,4.0,2252.9900074,1.0,phase_3,,,,,324.0,6.0,216.0,108.0,270.0,324.0,162.0,54.0,yellow,flipped triangle
0.0,5.0,1.0,1,7.0,4.0,1752.3419857,1.0,phase_3,,,,,44.0,1.0,264.0,132.0,220.0,44.0,88.0,176.0,green,diamond
0.0,1.0,1.0,0,7.0,2.0,1802.10804939,1.0,phase_3,,,,,294.0,6.0,147.0,294.0,98.0,245.0,196.0,49.0,gray,hexagon
0.0,3.0,3.0,1,7.0,2.0,1501.84392929,1.0,phase_3,,,,,34.0,1.0,136.0,34.0,170.0,68.0,102.0,204.0,blue,cross
0.0,5.0,1.0,1,7.0,6.0,1468.91093254,2.0,phase_3,,,,,102.0,3.0,34.0,170.0,68.0,136.0,204.0,102.0,green,diamond
0.0,3.0,3.0,1,7.0,5.0,1718.95003319,2.0,phase_3,,,,,44.0,1.0,88.0,132.0,220.0,264.0,44.0,176.0,blue,cross
0.0,6.0,2.0,1,7.0,3.0,1802.12903023,2.0,phase_3,,,,,108.0,2.0,270.0,162.0,108.0,216.0,324.0,54.0,magenta,circle
0.0,7.0,3.0,0,7.0,2.0,1068.2499408699998,2.0,phase_3,,,,,270.0,5.0,54.0,270.0,108.0,324.0,162.0,216.0,orange,triangle
0.0,6.0,2.0,1,7.0,5.0,383.588790894,2.0,phase_3,,,,,102.0,3.0,34.0,136.0,170.0,68.0,102.0,204.0,magenta,circle
0.0,6.0,2.0,1,7.0,6.0,2018.8989639299998,2.0,phase_3,,,,,216.0,4.0,270.0,324.0,108.0,162.0,54.0,216.0,magenta,circle
0.0,7.0,3.0,0,7.0,2.0,1568.28403473,2.0,phase_3,,,,,102.0,3.0,68.0,102.0,204.0,34.0,170.0,136.0,orange,triangle
0.0,4.0,4.0,0,7.0,2.0,1101.27210617,2.0,phase_3,,,,,78.0,2.0,39.0,78.0,234.0,117.0,156.0,195.0,cyan,line
0.0,6.0,2.0,1,7.0,2.0,884.346008301,2.0,phase_3,,,,,98.0,2.0,245.0,98.0,294.0,49.0,196.0,147.0,magenta,circle
0.0,6.0,2.0,1,7.0,4.0,2236.25302315,2.0,phase_3,,,,,117.0,3.0,234.0,78.0,195.0,117.0,39.0,156.0,magenta,circle
0.0,1.0,1.0,0,7.0,2.0,1168.30086708,2.0,phase_3,,,,,108.0,2.0,216.0,108.0,162.0,54.0,270.0,324.0,gray,hexagon
0.0,7.0,3.0,0,7.0,2.0,951.1539936070001,2.0,phase_3,,,,,264.0,6.0,132.0,264.0,88.0,44.0,220.0,176.0,orange,triangle
0.0,1.0,1.0,0,7.0,1.0,718.204975128,2.0,phase_3,,,,,156.0,4.0,156.0,78.0,195.0,234.0,39.0,117.0,gray,hexagon
0.0,1.0,1.0,0,7.0,4.0,1702.26812363,2.0,phase_3,,,,,264.0,6.0,88.0,176.0,132.0,264.0,220.0,44.0,gray,hexagon
0.0,8.0,4.0,1,7.0,1.0,901.24797821,2.0,phase_3,,,,,195.0,5.0,195.0,78.0,39.0,156.0,234.0,117.0,yellow,flipped triangle
0.0,2.0,2.0,0,7.0,5.0,1869.0369129199998,2.0,phase_3,,,,,324.0,6.0,270.0,54.0,162.0,216.0,324.0,108.0,white,square
0.0,2.0,2.0,0,7.0,6.0,1334.32984352,2.0,phase_3,,,,,195.0,5.0,156.0,234.0,78.0,117.0,39.0,195.0,white,square
0.0,6.0,2.0,1,7.0,1.0,1568.6070919,2.0,phase_3,,,,,132.0,3.0,132.0,88.0,176.0,44.0,264.0,220.0,magenta,circle
0.0,2.0,2.0,0,7.0,5.0,867.8491115569999,2.0,phase_3,,,,,54.0,1.0,324.0,108.0,162.0,216.0,54.0,270.0,white,square
0.0,7.0,3.0,0,7.0,6.0,884.613037109,2.0,phase_3,,,,,88.0,2.0,132.0,220.0,176.0,44.0,264.0,88.0,orange,triangle
0.0,7.0,3.0,0,7.0,3.0,1018.50485802,3.0,phase_3,,,,,245.0,5.0,196.0,294.0,245.0,49.0,147.0,98.0,orange,triangle
0.0,1.0,1.0,0,7.0,2.0,1035.07995605,3.0,phase_3,,,,,102.0,3.0,136.0,102.0,204.0,170.0,34.0,68.0,gray,hexagon
0.0,4.0,4.0,0,7.0,5.0,1084.75494385,3.0,phase_3,,,,,88.0,2.0,176.0,264.0,132.0,44.0,88.0,220.0,cyan,line
0.0,2.0,2.0,0,7.0,2.0,934.776067734,3.0,phase_3,,,,,294.0,6.0,147.0,294.0,196.0,245.0,49.0,98.0,white,square
0.0,4.0,4.0,0,7.0,1.0,1218.23382378,3.0,phase_3,,,,,170.0,5.0,170.0,136.0,102.0,34.0,204.0,68.0,cyan,line
0.0,5.0,1.0,1,7.0,5.0,1084.856987,3.0,phase_3,,,,,324.0,6.0,216.0,108.0,54.0,162.0,324.0,270.0,green,diamond
0.0,4.0,4.0,0,7.0,6.0,1118.0849075299998,3.0,phase_3,,,,,245.0,5.0,294.0,147.0,98.0,196.0,49.0,245.0,cyan,line
0.0,4.0,4.0,0,7.0,5.0,1118.21985245,3.0,phase_3,,,,,195.0,5.0,234.0,156.0,117.0,39.0,195.0,78.0,cyan,line
0.0,2.0,2.0,0,7.0,3.0,1184.77392197,3.0,phase_3,,,,,196.0,4.0,147.0,49.0,196.0,98.0,294.0,245.0,white,square
0.0,4.0,4.0,0,7.0,3.0,984.72905159,3.0,phase_3,,,,,196.0,4.0,245.0,147.0,196.0,294.0,49.0,98.0,cyan,line
0.0,4.0,4.0,0,7.0,2.0,1034.66391563,3.0,phase_3,,,,,220.0,5.0,264.0,220.0,88.0,176.0,44.0,132.0,cyan,line
0.0,2.0,2.0,0,7.0,4.0,2252.78711319,3.0,phase_3,,,,,204.0,6.0,68.0,136.0,102.0,204.0,34.0,170.0,white,square
0.0,8.0,4.0,1,7.0,4.0,1034.8620414700001,3.0,phase_3,,,,,245.0,5.0,49.0,147.0,294.0,245.0,98.0,196.0,yellow,flipped triangle
0.0,6.0,2.0,1,7.0,5.0,1585.3369235999999,3.0,phase_3,,,,,170.0,5.0,68.0,204.0,136.0,34.0,170.0,102.0,magenta,circle
0.0,7.0,3.0,0,7.0,6.0,1001.48296356,3.0,phase_3,,,,,54.0,1.0,162.0,270.0,324.0,108.0,216.0,54.0,orange,triangle
0.0,4.0,4.0,0,7.0,2.0,517.776966095,3.0,phase_3,,,,,108.0,2.0,270.0,108.0,54.0,216.0,324.0,162.0,cyan,line
0.0,3.0,3.0,1,7.0,2.0,834.65719223,3.0,phase_3,,,,,54.0,1.0,216.0,54.0,270.0,324.0,162.0,108.0,blue,cross
0.0,8.0,4.0,1,7.0,3.0,1101.50408745,3.0,phase_3,,,,,176.0,4.0,220.0,44.0,176.0,132.0,88.0,264.0,yellow,flipped triangle
0.0,8.0,4.0,1,7.0,2.0,834.480047226,3.0,phase_3,,,,,324.0,6.0,270.0,324.0,54.0,216.0,108.0,162.0,yellow,flipped triangle
0.0,8.0,4.0,1,7.0,1.0,3203.7279605900003,3.0,phase_3,,,,,156.0,4.0,156.0,117.0,78.0,195.0,39.0,234.0,yellow,flipped triangle
0.0,5.0,1.0,1,7.0,1.0,584.385871887,4.0,phase_3,,,,,176.0,4.0,176.0,44.0,220.0,132.0,264.0,88.0,green,diamond
0.0,2.0,2.0,0,7.0,2.0,700.646162033,4.0,phase_3,,,,,44.0,1.0,264.0,44.0,220.0,88.0,176.0,132.0,white,square
0.0,5.0,1.0,1,7.0,5.0,767.8258419040001,4.0,phase_3,,,,,195.0,5.0,78.0,39.0,117.0,234.0,195.0,156.0,green,diamond
0.0,2.0,2.0,0,7.0,5.0,701.422929764,4.0,phase_3,,,,,132.0,3.0,88.0,176.0,44.0,220.0,132.0,264.0,white,square
0.0,3.0,3.0,1,7.0,3.0,584.093093872,4.0,phase_3,,,,,136.0,4.0,34.0,204.0,136.0,170.0,102.0,68.0,blue,cross
0.0,7.0,3.0,0,7.0,3.0,801.417827606,4.0,phase_3,,,,,78.0,2.0,234.0,117.0,78.0,195.0,39.0,156.0,orange,triangle
0.0,8.0,4.0,1,7.0,2.0,3437.3729229,4.0,phase_3,,,,,68.0,2.0,170.0,68.0,136.0,102.0,34.0,204.0,yellow,flipped triangle
0.0,3.0,3.0,1,7.0,3.0,918.3421134949999,4.0,phase_3,,,,,176.0,4.0,88.0,132.0,176.0,220.0,264.0,44.0,blue,cross
0.0,2.0,2.0,0,7.0,5.0,884.565114975,4.0,phase_3,,,,,34.0,1.0,136.0,68.0,170.0,204.0,34.0,102.0,white,square
0.0,3.0,3.0,1,7.0,5.0,567.8179264070001,4.0,phase_3,,,,,324.0,6.0,216.0,270.0,54.0,108.0,324.0,162.0,blue,cross
0.0,7.0,3.0,0,7.0,4.0,700.689077377,4.0,phase_3,,,,,245.0,5.0,196.0,49.0,294.0,245.0,147.0,98.0,orange,triangle
0.0,5.0,1.0,1,7.0,3.0,835.1869583130001,4.0,phase_3,,,,,245.0,5.0,147.0,196.0,245.0,294.0,98.0,49.0,green,diamond
0.0,1.0,1.0,0,7.0,5.0,1635.00189781,4.0,phase_3,,,,,294.0,6.0,98.0,245.0,49.0,147.0,294.0,196.0,gray,hexagon
0.0,6.0,2.0,1,7.0,3.0,601.3140678410001,4.0,phase_3,,,,,264.0,6.0,220.0,176.0,264.0,88.0,132.0,44.0,magenta,circle
0.0,4.0,4.0,0,7.0,3.0,784.749031067,4.0,phase_3,,,,,324.0,6.0,270.0,54.0,324.0,216.0,108.0,162.0,cyan,line
0.0,1.0,1.0,0,7.0,5.0,1034.47294235,4.0,phase_3,,,,,270.0,5.0,324.0,216.0,162.0,108.0,270.0,54.0,gray,hexagon
0.0,6.0,2.0,1,7.0,4.0,434.341907501,4.0,phase_3,,,,,294.0,6.0,49.0,245.0,98.0,294.0,147.0,196.0,magenta,circle
0.0,1.0,1.0,0,7.0,6.0,700.881958008,4.0,phase_3,,,,,136.0,4.0,68.0,204.0,102.0,170.0,34.0,136.0,gray,hexagon
0.0,8.0,4.0,1,7.0,6.0,1101.53412819,4.0,phase_3,,,,,204.0,6.0,102.0,170.0,136.0,68.0,34.0,204.0,yellow,flipped triangle
0.0,1.0,1.0,0,7.0,3.0,1284.7981452899999,4.0,phase_3,,,,,39.0,1.0,195.0,234.0,39.0,117.0,78.0,156.0,gray,hexagon
