stepwise_reward_magnitude,paired_with_stopping,quadrant,response,reaction_time,block,which_part,stop_signal_trial_type,left_SSD,right_SSD,accuracy,chosen_bidding_amount,chosen_bidding_level,possible_bid_1,possible_bid_2,possible_bid_3,possible_bid_4,possible_bid_5,possible_bid_6,color_text,shape_text
1.0,0,3.0,3.0,618.134021759,1.0,part_1,,,,,,,,,,,,,gray,square
0.5,1,2.0,2.0,517.67206192,1.0,part_1,,,,,,,,,,,,,cyan,line
2.0,1,2.0,2.0,433.772087097,1.0,part_1,,,,,,,,,,,,,white,circle
0.5,0,1.0,1.0,484.337091446,1.0,part_1,,,,,,,,,,,,,green,hexagon
1.0,1,2.0,2.0,434.278011322,1.0,part_1,,,,,,,,,,,,,orange,triangle
4.0,1,3.0,3.0,434.487104416,1.0,part_1,,,,,,,,,,,,,blue,cross
1.0,1,2.0,2.0,534.5399379730001,1.0,part_1,,,,,,,,,,,,,orange,triangle
0.5,1,4.0,4.0,484.36498642,1.0,part_1,,,,,,,,,,,,,cyan,line
4.0,0,3.0,3.0,467.537879944,1.0,part_1,,,,,,,,,,,,,magenta,diamond
2.0,0,2.0,2.0,467.617988586,1.0,part_1,,,,,,,,,,,,,yellow,flipped triangle
1.0,1,1.0,1.0,467.600107193,1.0,part_1,,,,,,,,,,,,,orange,triangle
2.0,0,1.0,1.0,584.197998047,1.0,part_1,,,,,,,,,,,,,yellow,flipped triangle
0.5,1,3.0,3.0,467.78321266200004,1.0,part_1,,,,,,,,,,,,,cyan,line
2.0,0,4.0,4.0,500.74195861799996,1.0,part_1,,,,,,,,,,,,,yellow,flipped triangle
1.0,0,3.0,3.0,534.879922867,1.0,part_1,,,,,,,,,,,,,gray,square
0.5,0,1.0,1.0,601.066827774,1.0,part_1,,,,,,,,,,,,,green,hexagon
2.0,1,2.0,2.0,550.812005997,1.0,part_1,,,,,,,,,,,,,white,circle
0.5,1,4.0,4.0,517.771959305,1.0,part_1,,,,,,,,,,,,,cyan,line
1.0,1,4.0,4.0,483.933925629,1.0,part_1,,,,,,,,,,,,,orange,triangle
1.0,0,1.0,1.0,417.880058289,1.0,part_1,,,,,,,,,,,,,gray,square
0.5,0,3.0,3.0,601.172924042,1.0,part_1,,,,,,,,,,,,,green,hexagon
2.0,0,3.0,3.0,468.086957932,1.0,part_1,,,,,,,,,,,,,yellow,flipped triangle
4.0,1,2.0,2.0,517.832994461,1.0,part_1,,,,,,,,,,,,,blue,cross
4.0,0,3.0,3.0,417.522907257,1.0,part_1,,,,,,,,,,,,,magenta,diamond
0.5,1,1.0,1.0,517.559051514,1.0,part_1,,,,,,,,,,,,,cyan,line
1.0,1,1.0,1.0,534.312963486,1.0,part_1,,,,,,,,,,,,,orange,triangle
0.5,1,1.0,1.0,534.1010093689999,1.0,part_1,,,,,,,,,,,,,cyan,line
4.0,0,3.0,3.0,433.791875839,1.0,part_1,,,,,,,,,,,,,magenta,diamond
0.5,0,4.0,4.0,467.558145523,1.0,part_1,,,,,,,,,,,,,green,hexagon
2.0,1,3.0,3.0,484.256982803,1.0,part_1,,,,,,,,,,,,,white,circle
2.0,0,4.0,4.0,434.50212478599997,1.0,part_1,,,,,,,,,,,,,yellow,flipped triangle
2.0,1,3.0,3.0,351.103782654,1.0,part_1,,,,,,,,,,,,,white,circle
0.5,1,2.0,2.0,501.07789039600004,1.0,part_1,,,,,,,,,,,,,cyan,line
1.0,1,1.0,1.0,517.642021179,1.0,part_1,,,,,,,,,,,,,orange,triangle
2.0,0,4.0,4.0,584.221124649,1.0,part_1,,,,,,,,,,,,,yellow,flipped triangle
0.5,1,4.0,4.0,768.1610584260001,1.0,part_1,,,,,,,,,,,,,cyan,line
4.0,1,1.0,1.0,567.5570964809999,1.0,part_1,,,,,,,,,,,,,blue,cross
2.0,1,3.0,3.0,484.311103821,1.0,part_1,,,,,,,,,,,,,white,circle
4.0,1,1.0,1.0,517.740011215,1.0,part_1,,,,,,,,,,,,,blue,cross
1.0,1,1.0,1.0,484.317064285,1.0,part_1,,,,,,,,,,,,,orange,triangle
2.0,0,1.0,1.0,434.318065643,1.0,part_1,,,,,,,,,,,,,yellow,flipped triangle
0.5,0,1.0,1.0,517.6651477810001,1.0,part_1,,,,,,,,,,,,,green,hexagon
1.0,1,2.0,2.0,684.412956238,1.0,part_1,,,,,,,,,,,,,orange,triangle
2.0,1,2.0,2.0,501.183986664,1.0,part_1,,,,,,,,,,,,,white,circle
2.0,0,4.0,4.0,417.723894119,1.0,part_1,,,,,,,,,,,,,yellow,flipped triangle
0.5,0,4.0,4.0,467.689037323,1.0,part_1,,,,,,,,,,,,,green,hexagon
0.5,0,2.0,2.0,517.776966095,1.0,part_1,,,,,,,,,,,,,green,hexagon
0.5,1,1.0,1.0,550.6589412689999,1.0,part_1,,,,,,,,,,,,,cyan,line
1.0,1,3.0,3.0,534.2869758610001,1.0,part_1,,,,,,,,,,,,,orange,triangle
1.0,1,4.0,4.0,467.443943024,1.0,part_1,,,,,,,,,,,,,orange,triangle
4.0,1,3.0,3.0,467.693090439,1.0,part_1,,,,,,,,,,,,,blue,cross
1.0,0,2.0,2.0,500.768899918,1.0,part_1,,,,,,,,,,,,,gray,square
4.0,0,4.0,4.0,517.746210098,1.0,part_1,,,,,,,,,,,,,magenta,diamond
4.0,1,2.0,2.0,484.493970871,1.0,part_1,,,,,,,,,,,,,blue,cross
4.0,0,4.0,4.0,451.246023178,1.0,part_1,,,,,,,,,,,,,magenta,diamond
4.0,1,1.0,1.0,534.629106522,1.0,part_1,,,,,,,,,,,,,blue,cross
1.0,0,1.0,1.0,584.3219757080001,1.0,part_1,,,,,,,,,,,,,gray,square
2.0,0,3.0,3.0,433.917999268,1.0,part_1,,,,,,,,,,,,,yellow,flipped triangle
2.0,0,1.0,1.0,483.53314399699997,1.0,part_1,,,,,,,,,,,,,yellow,flipped triangle
0.5,0,4.0,4.0,501.18684768699995,1.0,part_1,,,,,,,,,,,,,green,hexagon
1.0,1,3.0,3.0,418.010950089,1.0,part_1,,,,,,,,,,,,,orange,triangle
0.5,1,4.0,4.0,617.8328990939999,1.0,part_1,,,,,,,,,,,,,cyan,line
0.5,1,1.0,1.0,567.84081459,1.0,part_1,,,,,,,,,,,,,cyan,line
0.5,0,2.0,2.0,484.176874161,1.0,part_1,,,,,,,,,,,,,green,hexagon
1.0,0,3.0,3.0,467.699050903,1.0,part_1,,,,,,,,,,,,,gray,square
1.0,0,1.0,1.0,534.6410274509999,1.0,part_1,,,,,,,,,,,,,gray,square
0.5,1,2.0,2.0,417.777061462,1.0,part_1,,,,,,,,,,,,,cyan,line
0.5,1,2.0,2.0,434.329986572,1.0,part_1,,,,,,,,,,,,,cyan,line
2.0,0,1.0,1.0,500.938892365,1.0,part_1,,,,,,,,,,,,,yellow,flipped triangle
0.5,0,4.0,4.0,651.5479087829999,1.0,part_1,,,,,,,,,,,,,green,hexagon
0.5,0,4.0,4.0,601.26709938,1.0,part_1,,,,,,,,,,,,,green,hexagon
4.0,0,4.0,4.0,551.4969825740001,1.0,part_1,,,,,,,,,,,,,magenta,diamond
2.0,0,2.0,2.0,467.271089554,1.0,part_1,,,,,,,,,,,,,yellow,flipped triangle
0.5,0,4.0,4.0,501.00302696200004,1.0,part_1,,,,,,,,,,,,,green,hexagon
0.5,1,3.0,3.0,451.086044312,1.0,part_1,,,,,,,,,,,,,cyan,line
1.0,0,3.0,3.0,501.21617317199997,1.0,part_1,,,,,,,,,,,,,gray,square
2.0,0,2.0,2.0,467.778921127,1.0,part_1,,,,,,,,,,,,,yellow,flipped triangle
2.0,0,2.0,2.0,434.38577652,1.0,part_1,,,,,,,,,,,,,yellow,flipped triangle
2.0,0,2.0,2.0,684.8011016849999,1.0,part_1,,,,,,,,,,,,,yellow,flipped triangle
0.5,1,2.0,2.0,517.980098724,1.0,part_1,,,,,,,,,,,,,cyan,line
4.0,0,2.0,2.0,584.866046906,1.0,part_1,,,,,,,,,,,,,magenta,diamond
4.0,0,2.0,2.0,450.62994957,1.0,part_1,,,,,,,,,,,,,magenta,diamond
4.0,0,3.0,3.0,550.941944122,1.0,part_1,,,,,,,,,,,,,magenta,diamond
2.0,0,4.0,4.0,484.488964081,1.0,part_1,,,,,,,,,,,,,yellow,flipped triangle
2.0,1,4.0,4.0,551.1939525600001,1.0,part_1,,,,,,,,,,,,,white,circle
1.0,1,4.0,4.0,517.562150955,1.0,part_1,,,,,,,,,,,,,orange,triangle
1.0,1,4.0,4.0,517.645835876,1.0,part_1,,,,,,,,,,,,,orange,triangle
1.0,0,3.0,3.0,484.269142151,1.0,part_1,,,,,,,,,,,,,gray,square
1.0,1,2.0,2.0,567.65294075,1.0,part_1,,,,,,,,,,,,,orange,triangle
2.0,1,1.0,1.0,451.12395286599997,1.0,part_1,,,,,,,,,,,,,white,circle
1.0,0,4.0,4.0,484.23385620100004,1.0,part_1,,,,,,,,,,,,,gray,square
2.0,0,1.0,1.0,517.7500247959999,1.0,part_1,,,,,,,,,,,,,yellow,flipped triangle
2.0,1,1.0,1.0,500.83088874799995,1.0,part_1,,,,,,,,,,,,,white,circle
0.5,0,4.0,4.0,501.27196312,1.0,part_1,,,,,,,,,,,,,green,hexagon
4.0,1,2.0,2.0,601.300954819,1.0,part_1,,,,,,,,,,,,,blue,cross
2.0,1,3.0,3.0,434.59510803200004,1.0,part_1,,,,,,,,,,,,,white,circle
4.0,0,3.0,3.0,434.564828873,1.0,part_1,,,,,,,,,,,,,magenta,diamond
1.0,1,3.0,3.0,384.243965149,1.0,part_1,,,,,,,,,,,,,orange,triangle
4.0,0,3.0,3.0,400.83909034699997,1.0,part_1,,,,,,,,,,,,,magenta,diamond
2.0,1,1.0,1.0,550.879001617,1.0,part_1,,,,,,,,,,,,,white,circle
0.5,0,2.0,2.0,501.51920318599997,2.0,part_1,,,,,,,,,,,,,green,hexagon
0.5,0,3.0,3.0,501.37805938699995,2.0,part_1,,,,,,,,,,,,,green,hexagon
1.0,1,2.0,2.0,517.327070236,2.0,part_1,,,,,,,,,,,,,orange,triangle
4.0,1,1.0,1.0,517.429113388,2.0,part_1,,,,,,,,,,,,,blue,cross
4.0,1,1.0,1.0,551.213979721,2.0,part_1,,,,,,,,,,,,,blue,cross
2.0,1,1.0,1.0,567.760944366,2.0,part_1,,,,,,,,,,,,,white,circle
0.5,1,3.0,3.0,501.315832138,2.0,part_1,,,,,,,,,,,,,cyan,line
4.0,1,2.0,2.0,450.940132141,2.0,part_1,,,,,,,,,,,,,blue,cross
4.0,0,4.0,4.0,618.1819438929999,2.0,part_1,,,,,,,,,,,,,magenta,diamond
1.0,0,4.0,4.0,517.6639556880001,2.0,part_1,,,,,,,,,,,,,gray,square
1.0,0,4.0,4.0,434.240102768,2.0,part_1,,,,,,,,,,,,,gray,square
2.0,0,2.0,2.0,517.663002014,2.0,part_1,,,,,,,,,,,,,yellow,flipped triangle
0.5,0,4.0,4.0,417.714118958,2.0,part_1,,,,,,,,,,,,,green,hexagon
0.5,0,1.0,1.0,534.3170166020001,2.0,part_1,,,,,,,,,,,,,green,hexagon
1.0,1,1.0,1.0,534.47508812,2.0,part_1,,,,,,,,,,,,,orange,triangle
2.0,1,3.0,3.0,483.89887809799995,2.0,part_1,,,,,,,,,,,,,white,circle
1.0,0,4.0,4.0,400.904893875,2.0,part_1,,,,,,,,,,,,,gray,square
4.0,1,4.0,4.0,434.122085571,2.0,part_1,,,,,,,,,,,,,blue,cross
2.0,0,3.0,3.0,450.589895248,2.0,part_1,,,,,,,,,,,,,yellow,flipped triangle
4.0,1,4.0,4.0,417.583942413,2.0,part_1,,,,,,,,,,,,,blue,cross
1.0,0,4.0,4.0,467.645168304,2.0,part_1,,,,,,,,,,,,,gray,square
4.0,1,3.0,3.0,401.252031326,2.0,part_1,,,,,,,,,,,,,blue,cross
2.0,1,4.0,4.0,401.19194984399996,2.0,part_1,,,,,,,,,,,,,white,circle
0.5,1,3.0,3.0,400.79903602599995,2.0,part_1,,,,,,,,,,,,,cyan,line
0.5,0,4.0,4.0,367.710828781,2.0,part_1,,,,,,,,,,,,,green,hexagon
4.0,0,4.0,4.0,400.86793899500003,2.0,part_1,,,,,,,,,,,,,magenta,diamond
2.0,1,2.0,2.0,667.793035507,2.0,part_1,,,,,,,,,,,,,white,circle
0.5,0,1.0,1.0,517.721891403,2.0,part_1,,,,,,,,,,,,,green,hexagon
4.0,0,4.0,4.0,451.211929321,2.0,part_1,,,,,,,,,,,,,magenta,diamond
1.0,0,1.0,1.0,517.783880234,2.0,part_1,,,,,,,,,,,,,gray,square
4.0,0,3.0,3.0,517.644882202,2.0,part_1,,,,,,,,,,,,,magenta,diamond
0.5,1,3.0,3.0,484.456062317,2.0,part_1,,,,,,,,,,,,,cyan,line
4.0,1,3.0,3.0,517.920970917,2.0,part_1,,,,,,,,,,,,,blue,cross
0.5,1,1.0,1.0,534.327983856,2.0,part_1,,,,,,,,,,,,,cyan,line
1.0,0,2.0,2.0,568.0160522460001,2.0,part_1,,,,,,,,,,,,,gray,square
2.0,1,2.0,2.0,600.797891617,2.0,part_1,,,,,,,,,,,,,white,circle
1.0,1,1.0,1.0,467.641830444,2.0,part_1,,,,,,,,,,,,,orange,triangle
1.0,0,4.0,4.0,484.457969666,2.0,part_1,,,,,,,,,,,,,gray,square
2.0,0,3.0,3.0,434.35788154600004,2.0,part_1,,,,,,,,,,,,,yellow,flipped triangle
2.0,1,2.0,2.0,467.725992203,2.0,part_1,,,,,,,,,,,,,white,circle
0.5,0,3.0,3.0,467.99707412699996,2.0,part_1,,,,,,,,,,,,,green,hexagon
4.0,1,2.0,2.0,417.874097824,2.0,part_1,,,,,,,,,,,,,blue,cross
2.0,1,2.0,2.0,467.64993667600004,2.0,part_1,,,,,,,,,,,,,white,circle
4.0,1,1.0,1.0,584.4690799709999,2.0,part_1,,,,,,,,,,,,,blue,cross
1.0,0,4.0,4.0,517.581224442,2.0,part_1,,,,,,,,,,,,,gray,square
1.0,1,1.0,1.0,584.853887558,2.0,part_1,,,,,,,,,,,,,orange,triangle
2.0,1,1.0,1.0,600.965976715,2.0,part_1,,,,,,,,,,,,,white,circle
0.5,1,3.0,3.0,550.802946091,2.0,part_1,,,,,,,,,,,,,cyan,line
1.0,1,3.0,3.0,484.38596725499997,2.0,part_1,,,,,,,,,,,,,orange,triangle
1.0,0,2.0,2.0,484.659910202,2.0,part_1,,,,,,,,,,,,,gray,square
1.0,0,2.0,2.0,484.536170959,2.0,part_1,,,,,,,,,,,,,gray,square
4.0,0,4.0,4.0,551.54299736,2.0,part_1,,,,,,,,,,,,,magenta,diamond
0.5,1,3.0,3.0,451.235055923,2.0,part_1,,,,,,,,,,,,,cyan,line
4.0,1,3.0,3.0,567.855119705,2.0,part_1,,,,,,,,,,,,,blue,cross
2.0,0,2.0,2.0,451.133966446,2.0,part_1,,,,,,,,,,,,,yellow,flipped triangle
2.0,1,3.0,3.0,434.502840042,2.0,part_1,,,,,,,,,,,,,white,circle
1.0,0,4.0,4.0,501.412153244,2.0,part_1,,,,,,,,,,,,,gray,square
2.0,1,2.0,2.0,400.813102722,2.0,part_1,,,,,,,,,,,,,white,circle
0.5,0,1.0,1.0,534.350156784,2.0,part_1,,,,,,,,,,,,,green,hexagon
1.0,1,3.0,3.0,467.741012573,2.0,part_1,,,,,,,,,,,,,orange,triangle
4.0,0,3.0,3.0,501.376152039,2.0,part_1,,,,,,,,,,,,,magenta,diamond
2.0,0,3.0,3.0,534.4059467320001,2.0,part_1,,,,,,,,,,,,,yellow,flipped triangle
1.0,0,1.0,1.0,651.121854782,2.0,part_1,,,,,,,,,,,,,gray,square
2.0,1,1.0,1.0,618.008136749,2.0,part_1,,,,,,,,,,,,,white,circle
4.0,1,1.0,1.0,567.523002625,2.0,part_1,,,,,,,,,,,,,blue,cross
2.0,1,3.0,3.0,483.852863312,2.0,part_1,,,,,,,,,,,,,white,circle
4.0,0,2.0,2.0,417.929172516,2.0,part_1,,,,,,,,,,,,,magenta,diamond
0.5,1,3.0,3.0,451.101064682,2.0,part_1,,,,,,,,,,,,,cyan,line
2.0,0,2.0,2.0,417.89484024,2.0,part_1,,,,,,,,,,,,,yellow,flipped triangle
0.5,1,4.0,4.0,600.818872452,2.0,part_1,,,,,,,,,,,,,cyan,line
1.0,1,4.0,4.0,518.313169479,2.0,part_1,,,,,,,,,,,,,orange,triangle
2.0,1,2.0,2.0,484.337091446,2.0,part_1,,,,,,,,,,,,,white,circle
0.5,0,1.0,1.0,451.42316818200004,2.0,part_1,,,,,,,,,,,,,green,hexagon
2.0,0,4.0,4.0,500.89597702,2.0,part_1,,,,,,,,,,,,,yellow,flipped triangle
1.0,0,3.0,3.0,450.958967209,2.0,part_1,,,,,,,,,,,,,gray,square
2.0,0,4.0,4.0,383.985042572,2.0,part_1,,,,,,,,,,,,,yellow,flipped triangle
1.0,1,2.0,2.0,433.861017227,2.0,part_1,,,,,,,,,,,,,orange,triangle
1.0,1,1.0,1.0,401.215076447,2.0,part_1,,,,,,,,,,,,,orange,triangle
1.0,0,1.0,1.0,534.5709323880001,2.0,part_1,,,,,,,,,,,,,gray,square
4.0,0,3.0,3.0,451.106071472,2.0,part_1,,,,,,,,,,,,,magenta,diamond
0.5,1,3.0,3.0,584.4709873200001,2.0,part_1,,,,,,,,,,,,,cyan,line
2.0,0,1.0,1.0,450.99377632100004,2.0,part_1,,,,,,,,,,,,,yellow,flipped triangle
4.0,1,2.0,2.0,467.533111572,2.0,part_1,,,,,,,,,,,,,blue,cross
1.0,1,1.0,1.0,317.38495826699994,2.0,part_1,,,,,,,,,,,,,orange,triangle
4.0,1,3.0,3.0,450.392007828,2.0,part_1,,,,,,,,,,,,,blue,cross
4.0,0,4.0,4.0,483.793020248,2.0,part_1,,,,,,,,,,,,,magenta,diamond
4.0,1,4.0,4.0,551.148176193,2.0,part_1,,,,,,,,,,,,,blue,cross
2.0,1,1.0,1.0,500.803947449,2.0,part_1,,,,,,,,,,,,,white,circle
1.0,1,4.0,4.0,517.7829265590001,2.0,part_1,,,,,,,,,,,,,orange,triangle
2.0,1,2.0,2.0,434.29899215700004,2.0,part_1,,,,,,,,,,,,,white,circle
0.5,0,1.0,1.0,500.806808472,2.0,part_1,,,,,,,,,,,,,green,hexagon
2.0,1,2.0,2.0,550.8811473850001,2.0,part_1,,,,,,,,,,,,,white,circle
4.0,1,4.0,4.0,484.260082245,2.0,part_1,,,,,,,,,,,,,blue,cross
4.0,1,1.0,1.0,567.6500797269999,2.0,part_1,,,,,,,,,,,,,blue,cross
1.0,0,4.0,4.0,567.1350955959999,2.0,part_1,,,,,,,,,,,,,gray,square
0.5,0,2.0,2.0,434.149026871,2.0,part_1,,,,,,,,,,,,,green,hexagon
0.5,1,1.0,1.0,484.28583145100004,2.0,part_1,,,,,,,,,,,,,cyan,line
1.0,1,2.0,2.0,517.5509452819999,2.0,part_1,,,,,,,,,,,,,orange,triangle
1.0,1,2.0,2.0,534.296989441,2.0,part_1,,,,,,,,,,,,,orange,triangle
2.0,1,2.0,2.0,501.000881195,2.0,part_1,,,,,,,,,,,,,white,circle
0.5,0,4.0,4.0,517.6451206209999,3.0,part_1,,,,,,,,,,,,,green,hexagon
0.5,1,1.0,1.0,417.630910873,3.0,part_1,,,,,,,,,,,,,cyan,line
1.0,1,1.0,1.0,484.457969666,3.0,part_1,,,,,,,,,,,,,orange,triangle
0.5,1,4.0,4.0,383.91304016099997,3.0,part_1,,,,,,,,,,,,,cyan,line
0.5,0,4.0,4.0,384.40990448,3.0,part_1,,,,,,,,,,,,,green,hexagon
2.0,0,1.0,1.0,517.9820060730001,3.0,part_1,,,,,,,,,,,,,yellow,flipped triangle
2.0,1,4.0,4.0,333.870887756,3.0,part_1,,,,,,,,,,,,,white,circle
2.0,0,4.0,4.0,384.280920029,3.0,part_1,,,,,,,,,,,,,yellow,flipped triangle
4.0,1,4.0,4.0,384.130954742,3.0,part_1,,,,,,,,,,,,,blue,cross
2.0,1,2.0,2.0,518.117904663,3.0,part_1,,,,,,,,,,,,,white,circle
1.0,0,1.0,1.0,433.882951736,3.0,part_1,,,,,,,,,,,,,gray,square
2.0,1,1.0,1.0,401.121139526,3.0,part_1,,,,,,,,,,,,,white,circle
0.5,1,4.0,4.0,384.50407981899997,3.0,part_1,,,,,,,,,,,,,cyan,line
2.0,1,3.0,3.0,467.55409240700004,3.0,part_1,,,,,,,,,,,,,white,circle
4.0,0,3.0,3.0,484.549999237,3.0,part_1,,,,,,,,,,,,,magenta,diamond
2.0,0,3.0,3.0,434.475183487,3.0,part_1,,,,,,,,,,,,,yellow,flipped triangle
4.0,0,1.0,1.0,517.660140991,3.0,part_1,,,,,,,,,,,,,magenta,diamond
4.0,1,3.0,3.0,434.10491943399995,3.0,part_1,,,,,,,,,,,,,blue,cross
2.0,1,1.0,1.0,501.01590156599997,3.0,part_1,,,,,,,,,,,,,white,circle
1.0,0,2.0,2.0,467.30589866599996,3.0,part_1,,,,,,,,,,,,,gray,square
2.0,1,1.0,1.0,434.509992599,3.0,part_1,,,,,,,,,,,,,white,circle
2.0,0,3.0,3.0,450.82902908299997,3.0,part_1,,,,,,,,,,,,,yellow,flipped triangle
4.0,0,1.0,1.0,467.878818512,3.0,part_1,,,,,,,,,,,,,magenta,diamond
0.5,0,1.0,1.0,451.190948486,3.0,part_1,,,,,,,,,,,,,green,hexagon
1.0,0,4.0,4.0,517.637968063,3.0,part_1,,,,,,,,,,,,,gray,square
4.0,1,3.0,3.0,450.907945633,3.0,part_1,,,,,,,,,,,,,blue,cross
4.0,1,3.0,3.0,467.76008606000005,3.0,part_1,,,,,,,,,,,,,blue,cross
0.5,1,2.0,2.0,517.367839813,3.0,part_1,,,,,,,,,,,,,cyan,line
2.0,0,2.0,2.0,534.162044525,3.0,part_1,,,,,,,,,,,,,yellow,flipped triangle
1.0,0,3.0,3.0,451.506137848,3.0,part_1,,,,,,,,,,,,,gray,square
4.0,1,2.0,2.0,384.25302505499997,3.0,part_1,,,,,,,,,,,,,blue,cross
2.0,0,3.0,3.0,451.134204865,3.0,part_1,,,,,,,,,,,,,yellow,flipped triangle
2.0,1,1.0,1.0,467.28301048300006,3.0,part_1,,,,,,,,,,,,,white,circle
0.5,0,2.0,2.0,400.996923447,3.0,part_1,,,,,,,,,,,,,green,hexagon
4.0,1,2.0,2.0,567.6960945129999,3.0,part_1,,,,,,,,,,,,,blue,cross
0.5,0,3.0,3.0,467.090129852,3.0,part_1,,,,,,,,,,,,,green,hexagon
1.0,0,2.0,2.0,434.61394310000003,3.0,part_1,,,,,,,,,,,,,gray,square
1.0,0,3.0,3.0,484.125137329,3.0,part_1,,,,,,,,,,,,,gray,square
4.0,0,4.0,4.0,651.479959488,3.0,part_1,,,,,,,,,,,,,magenta,diamond
2.0,0,4.0,4.0,550.8599281310001,3.0,part_1,,,,,,,,,,,,,yellow,flipped triangle
4.0,1,1.0,1.0,551.4490604399999,3.0,part_1,,,,,,,,,,,,,blue,cross
4.0,0,3.0,3.0,450.81090927099996,3.0,part_1,,,,,,,,,,,,,magenta,diamond
2.0,0,4.0,4.0,417.650938034,3.0,part_1,,,,,,,,,,,,,yellow,flipped triangle
0.5,1,3.0,3.0,417.554855347,3.0,part_1,,,,,,,,,,,,,cyan,line
0.5,1,3.0,3.0,400.872945786,3.0,part_1,,,,,,,,,,,,,cyan,line
1.0,1,1.0,1.0,484.624862671,3.0,part_1,,,,,,,,,,,,,orange,triangle
4.0,1,1.0,1.0,534.285783768,3.0,part_1,,,,,,,,,,,,,blue,cross
0.5,0,4.0,4.0,601.407051086,3.0,part_1,,,,,,,,,,,,,green,hexagon
1.0,0,2.0,2.0,501.10507011399994,3.0,part_1,,,,,,,,,,,,,gray,square
2.0,1,1.0,1.0,433.974981308,3.0,part_1,,,,,,,,,,,,,white,circle
2.0,1,2.0,2.0,517.968893051,3.0,part_1,,,,,,,,,,,,,white,circle
0.5,0,1.0,1.0,467.402935028,3.0,part_1,,,,,,,,,,,,,green,hexagon
1.0,1,1.0,1.0,417.64616966200003,3.0,part_1,,,,,,,,,,,,,orange,triangle
0.5,0,2.0,2.0,333.852052689,3.0,part_1,,,,,,,,,,,,,green,hexagon
1.0,0,2.0,2.0,400.896072388,3.0,part_1,,,,,,,,,,,,,gray,square
4.0,0,4.0,4.0,451.04002952599996,3.0,part_1,,,,,,,,,,,,,magenta,diamond
2.0,1,2.0,2.0,467.55790710400004,3.0,part_1,,,,,,,,,,,,,white,circle
4.0,1,2.0,2.0,568.31407547,3.0,part_1,,,,,,,,,,,,,blue,cross
2.0,1,1.0,1.0,484.103918076,3.0,part_1,,,,,,,,,,,,,white,circle
0.5,1,4.0,4.0,617.86198616,3.0,part_1,,,,,,,,,,,,,cyan,line
0.5,0,3.0,3.0,517.518997192,3.0,part_1,,,,,,,,,,,,,green,hexagon
1.0,0,3.0,3.0,567.544937134,3.0,part_1,,,,,,,,,,,,,gray,square
4.0,0,4.0,4.0,468.11103820799997,3.0,part_1,,,,,,,,,,,,,magenta,diamond
0.5,1,3.0,3.0,384.097099304,3.0,part_1,,,,,,,,,,,,,cyan,line
4.0,0,4.0,4.0,350.315093994,3.0,part_1,,,,,,,,,,,,,magenta,diamond
0.5,0,2.0,2.0,484.435796738,3.0,part_1,,,,,,,,,,,,,green,hexagon
4.0,1,2.0,2.0,584.8898887629999,3.0,part_1,,,,,,,,,,,,,blue,cross
2.0,1,3.0,3.0,384.281158447,3.0,part_1,,,,,,,,,,,,,white,circle
2.0,0,2.0,2.0,417.587995529,3.0,part_1,,,,,,,,,,,,,yellow,flipped triangle
2.0,1,3.0,3.0,401.074886322,3.0,part_1,,,,,,,,,,,,,white,circle
1.0,1,3.0,3.0,601.2489795680001,3.0,part_1,,,,,,,,,,,,,orange,triangle
4.0,0,2.0,2.0,450.802087784,3.0,part_1,,,,,,,,,,,,,magenta,diamond
0.5,0,2.0,2.0,433.943986893,3.0,part_1,,,,,,,,,,,,,green,hexagon
2.0,0,2.0,2.0,451.39217376700003,3.0,part_1,,,,,,,,,,,,,yellow,flipped triangle
2.0,1,2.0,2.0,467.652082443,3.0,part_1,,,,,,,,,,,,,white,circle
0.5,0,4.0,4.0,584.11192894,3.0,part_1,,,,,,,,,,,,,green,hexagon
1.0,1,2.0,2.0,434.111833572,3.0,part_1,,,,,,,,,,,,,orange,triangle
0.5,1,3.0,3.0,434.39221382100004,3.0,part_1,,,,,,,,,,,,,cyan,line
4.0,1,4.0,4.0,450.917005539,3.0,part_1,,,,,,,,,,,,,blue,cross
1.0,0,3.0,3.0,468.173027039,3.0,part_1,,,,,,,,,,,,,gray,square
1.0,0,1.0,1.0,567.471981049,3.0,part_1,,,,,,,,,,,,,gray,square
4.0,1,1.0,1.0,551.208019257,3.0,part_1,,,,,,,,,,,,,blue,cross
2.0,0,4.0,4.0,584.495067596,3.0,part_1,,,,,,,,,,,,,yellow,flipped triangle
2.0,1,4.0,4.0,551.223039627,3.0,part_1,,,,,,,,,,,,,white,circle
2.0,0,4.0,4.0,450.861930847,3.0,part_1,,,,,,,,,,,,,yellow,flipped triangle
1.0,1,2.0,2.0,484.570026398,3.0,part_1,,,,,,,,,,,,,orange,triangle
2.0,1,3.0,3.0,501.020908356,3.0,part_1,,,,,,,,,,,,,white,circle
0.5,0,4.0,4.0,434.334993362,3.0,part_1,,,,,,,,,,,,,green,hexagon
0.5,0,4.0,4.0,434.388875961,3.0,part_1,,,,,,,,,,,,,green,hexagon
4.0,1,3.0,3.0,467.841148376,3.0,part_1,,,,,,,,,,,,,blue,cross
0.5,0,2.0,2.0,401.24702453599997,3.0,part_1,,,,,,,,,,,,,green,hexagon
4.0,0,1.0,1.0,433.738946915,3.0,part_1,,,,,,,,,,,,,magenta,diamond
4.0,1,1.0,1.0,467.443943024,3.0,part_1,,,,,,,,,,,,,blue,cross
2.0,0,3.0,3.0,501.461982727,3.0,part_1,,,,,,,,,,,,,yellow,flipped triangle
0.5,1,1.0,1.0,534.7349643709999,3.0,part_1,,,,,,,,,,,,,cyan,line
1.0,0,1.0,1.0,500.86998939500006,3.0,part_1,,,,,,,,,,,,,gray,square
4.0,0,1.0,1.0,518.1658267969999,3.0,part_1,,,,,,,,,,,,,magenta,diamond
2.0,0,2.0,2.0,551.2218475340001,3.0,part_1,,,,,,,,,,,,,yellow,flipped triangle
4.0,1,4.0,4.0,484.433889389,3.0,part_1,,,,,,,,,,,,,blue,cross
0.5,1,4.0,4.0,534.56902504,3.0,part_1,,,,,,,,,,,,,cyan,line
4.0,0,2.0,2.0,467.538118362,4.0,part_1,,,,,,,,,,,,,magenta,diamond
1.0,1,2.0,2.0,468.043088913,4.0,part_1,,,,,,,,,,,,,orange,triangle
0.5,1,3.0,3.0,484.654903412,4.0,part_1,,,,,,,,,,,,,cyan,line
4.0,0,1.0,1.0,484.22694206200003,4.0,part_1,,,,,,,,,,,,,magenta,diamond
4.0,1,4.0,4.0,484.837055206,4.0,part_1,,,,,,,,,,,,,blue,cross
0.5,0,3.0,3.0,467.851161957,4.0,part_1,,,,,,,,,,,,,green,hexagon
0.5,0,2.0,2.0,467.70095825199996,4.0,part_1,,,,,,,,,,,,,green,hexagon
4.0,0,4.0,4.0,400.73800087,4.0,part_1,,,,,,,,,,,,,magenta,diamond
2.0,1,2.0,2.0,467.223167419,4.0,part_1,,,,,,,,,,,,,white,circle
1.0,1,3.0,3.0,451.315164566,4.0,part_1,,,,,,,,,,,,,orange,triangle
0.5,1,3.0,3.0,567.603111267,4.0,part_1,,,,,,,,,,,,,cyan,line
0.5,1,1.0,1.0,517.6351070400001,4.0,part_1,,,,,,,,,,,,,cyan,line
4.0,0,3.0,3.0,450.922966003,4.0,part_1,,,,,,,,,,,,,magenta,diamond
1.0,0,2.0,2.0,500.782012939,4.0,part_1,,,,,,,,,,,,,gray,square
1.0,0,2.0,2.0,517.8239345549999,4.0,part_1,,,,,,,,,,,,,gray,square
4.0,0,3.0,3.0,450.71220397900004,4.0,part_1,,,,,,,,,,,,,magenta,diamond
2.0,0,1.0,1.0,484.24696922299995,4.0,part_1,,,,,,,,,,,,,yellow,flipped triangle
4.0,1,1.0,1.0,500.946998596,4.0,part_1,,,,,,,,,,,,,blue,cross
2.0,0,4.0,4.0,534.254074097,4.0,part_1,,,,,,,,,,,,,yellow,flipped triangle
0.5,1,1.0,1.0,484.541893005,4.0,part_1,,,,,,,,,,,,,cyan,line
2.0,1,2.0,2.0,417.732000351,4.0,part_1,,,,,,,,,,,,,white,circle
1.0,1,4.0,4.0,550.999164581,4.0,part_1,,,,,,,,,,,,,orange,triangle
1.0,1,4.0,4.0,450.92797279399997,4.0,part_1,,,,,,,,,,,,,orange,triangle
4.0,0,4.0,4.0,500.877857208,4.0,part_1,,,,,,,,,,,,,magenta,diamond
0.5,1,4.0,4.0,500.91505050700005,4.0,part_1,,,,,,,,,,,,,cyan,line
1.0,0,4.0,4.0,517.446994781,4.0,part_1,,,,,,,,,,,,,gray,square
1.0,0,3.0,3.0,550.746917725,4.0,part_1,,,,,,,,,,,,,gray,square
4.0,0,1.0,1.0,468.150138855,4.0,part_1,,,,,,,,,,,,,magenta,diamond
0.5,1,2.0,2.0,417.84787178,4.0,part_1,,,,,,,,,,,,,cyan,line
0.5,0,2.0,2.0,551.0289669040001,4.0,part_1,,,,,,,,,,,,,green,hexagon
4.0,0,3.0,3.0,451.084136963,4.0,part_1,,,,,,,,,,,,,magenta,diamond
4.0,1,1.0,1.0,433.949947357,4.0,part_1,,,,,,,,,,,,,blue,cross
1.0,0,1.0,1.0,550.885915756,4.0,part_1,,,,,,,,,,,,,gray,square
0.5,0,2.0,2.0,384.600162506,4.0,part_1,,,,,,,,,,,,,green,hexagon
0.5,0,3.0,3.0,450.74105262800003,4.0,part_1,,,,,,,,,,,,,green,hexagon
2.0,0,4.0,4.0,517.5828933720001,4.0,part_1,,,,,,,,,,,,,yellow,flipped triangle
4.0,0,1.0,1.0,417.708873749,4.0,part_1,,,,,,,,,,,,,magenta,diamond
4.0,0,4.0,4.0,467.444896698,4.0,part_1,,,,,,,,,,,,,magenta,diamond
4.0,0,1.0,1.0,434.536933899,4.0,part_1,,,,,,,,,,,,,magenta,diamond
0.5,1,2.0,2.0,500.916957855,4.0,part_1,,,,,,,,,,,,,cyan,line
1.0,1,2.0,2.0,500.78797340400007,4.0,part_1,,,,,,,,,,,,,orange,triangle
4.0,0,3.0,3.0,534.683942795,4.0,part_1,,,,,,,,,,,,,magenta,diamond
4.0,1,1.0,1.0,534.5709323880001,4.0,part_1,,,,,,,,,,,,,blue,cross
4.0,0,1.0,1.0,401.129961014,4.0,part_1,,,,,,,,,,,,,magenta,diamond
1.0,0,1.0,1.0,467.96798706100003,4.0,part_1,,,,,,,,,,,,,gray,square
1.0,0,2.0,2.0,600.896835327,4.0,part_1,,,,,,,,,,,,,gray,square
2.0,1,4.0,4.0,501.02496147200003,4.0,part_1,,,,,,,,,,,,,white,circle
1.0,0,3.0,3.0,534.790992737,4.0,part_1,,,,,,,,,,,,,gray,square
1.0,1,3.0,3.0,534.440994263,4.0,part_1,,,,,,,,,,,,,orange,triangle
2.0,1,2.0,2.0,467.090129852,4.0,part_1,,,,,,,,,,,,,white,circle
4.0,0,3.0,3.0,517.29798317,4.0,part_1,,,,,,,,,,,,,magenta,diamond
4.0,0,4.0,4.0,534.196138382,4.0,part_1,,,,,,,,,,,,,magenta,diamond
1.0,0,3.0,3.0,501.30701065100004,4.0,part_1,,,,,,,,,,,,,gray,square
2.0,0,2.0,2.0,517.805814743,4.0,part_1,,,,,,,,,,,,,yellow,flipped triangle
1.0,1,3.0,3.0,551.078081131,4.0,part_1,,,,,,,,,,,,,orange,triangle
0.5,1,1.0,1.0,434.214115143,4.0,part_1,,,,,,,,,,,,,cyan,line
4.0,0,4.0,4.0,484.36594009400005,4.0,part_1,,,,,,,,,,,,,magenta,diamond
0.5,0,4.0,4.0,617.99287796,4.0,part_1,,,,,,,,,,,,,green,hexagon
1.0,1,2.0,2.0,484.663963318,4.0,part_1,,,,,,,,,,,,,orange,triangle
2.0,0,4.0,4.0,484.961032867,4.0,part_1,,,,,,,,,,,,,yellow,flipped triangle
1.0,1,2.0,2.0,534.1889858249999,4.0,part_1,,,,,,,,,,,,,orange,triangle
0.5,1,2.0,2.0,484.33208465599995,4.0,part_1,,,,,,,,,,,,,cyan,line
1.0,1,3.0,3.0,534.452915192,4.0,part_1,,,,,,,,,,,,,orange,triangle
2.0,0,3.0,3.0,500.851869583,4.0,part_1,,,,,,,,,,,,,yellow,flipped triangle
0.5,0,1.0,1.0,534.0321064,4.0,part_1,,,,,,,,,,,,,green,hexagon
0.5,1,4.0,4.0,500.75912475600006,4.0,part_1,,,,,,,,,,,,,cyan,line
4.0,1,2.0,2.0,517.400026321,4.0,part_1,,,,,,,,,,,,,blue,cross
4.0,0,3.0,3.0,501.08599662800003,4.0,part_1,,,,,,,,,,,,,magenta,diamond
2.0,0,4.0,4.0,450.488090515,4.0,part_1,,,,,,,,,,,,,yellow,flipped triangle
2.0,1,1.0,1.0,517.402887344,4.0,part_1,,,,,,,,,,,,,white,circle
0.5,1,2.0,2.0,434.132099152,4.0,part_1,,,,,,,,,,,,,cyan,line
1.0,0,4.0,4.0,500.93793869,4.0,part_1,,,,,,,,,,,,,gray,square
1.0,0,3.0,3.0,484.185934067,4.0,part_1,,,,,,,,,,,,,gray,square
1.0,0,1.0,1.0,484.87305641200004,4.0,part_1,,,,,,,,,,,,,gray,square
4.0,1,2.0,2.0,401.293039322,4.0,part_1,,,,,,,,,,,,,blue,cross
0.5,1,2.0,2.0,500.816106796,4.0,part_1,,,,,,,,,,,,,cyan,line
1.0,1,2.0,2.0,450.99496841399997,4.0,part_1,,,,,,,,,,,,,orange,triangle
4.0,1,3.0,3.0,484.436988831,4.0,part_1,,,,,,,,,,,,,blue,cross
0.5,0,1.0,1.0,450.911998749,4.0,part_1,,,,,,,,,,,,,green,hexagon
1.0,1,4.0,4.0,450.99401474,4.0,part_1,,,,,,,,,,,,,orange,triangle
4.0,1,1.0,1.0,500.933170319,4.0,part_1,,,,,,,,,,,,,blue,cross
0.5,1,2.0,2.0,501.82485580400004,4.0,part_1,,,,,,,,,,,,,cyan,line
4.0,1,2.0,2.0,434.286117554,4.0,part_1,,,,,,,,,,,,,blue,cross
1.0,0,4.0,4.0,517.469882965,4.0,part_1,,,,,,,,,,,,,gray,square
0.5,0,3.0,3.0,400.44808387800003,4.0,part_1,,,,,,,,,,,,,green,hexagon
2.0,0,3.0,3.0,467.762947083,4.0,part_1,,,,,,,,,,,,,yellow,flipped triangle
1.0,1,4.0,4.0,501.132965088,4.0,part_1,,,,,,,,,,,,,orange,triangle
1.0,1,4.0,4.0,467.63610839800003,4.0,part_1,,,,,,,,,,,,,orange,triangle
4.0,0,3.0,3.0,350.76379776,4.0,part_1,,,,,,,,,,,,,magenta,diamond
1.0,1,1.0,1.0,400.532960892,4.0,part_1,,,,,,,,,,,,,orange,triangle
0.5,1,1.0,1.0,534.422874451,4.0,part_1,,,,,,,,,,,,,cyan,line
2.0,1,1.0,1.0,467.579126358,4.0,part_1,,,,,,,,,,,,,white,circle
4.0,1,4.0,4.0,584.271192551,4.0,part_1,,,,,,,,,,,,,blue,cross
2.0,0,4.0,4.0,534.241914749,4.0,part_1,,,,,,,,,,,,,yellow,flipped triangle
2.0,0,1.0,1.0,484.378099442,4.0,part_1,,,,,,,,,,,,,yellow,flipped triangle
1.0,1,1.0,1.0,434.119939804,4.0,part_1,,,,,,,,,,,,,orange,triangle
0.5,0,4.0,4.0,451.005935669,4.0,part_1,,,,,,,,,,,,,green,hexagon
4.0,0,1.0,1.0,417.856931686,4.0,part_1,,,,,,,,,,,,,magenta,diamond
0.5,0,3.0,3.0,518.038034439,4.0,part_1,,,,,,,,,,,,,green,hexagon
4.0,1,3.0,3.0,584.934949875,4.0,part_1,,,,,,,,,,,,,blue,cross
4.0,0,5.0,5.0,734.537124634,1.0,part_2,go,250.0,250.0,1.0,,,,,,,,,magenta,diamond
0.5,0,6.0,6.0,768.527984619,1.0,part_2,go,250.0,250.0,1.0,,,,,,,,,green,hexagon
4.0,1,5.0,,,1.0,,stop,250.0,250.0,4.0,,,,,,,,,blue,cross
2.0,1,5.0,,,1.0,,stop,300.0,250.0,4.0,,,,,,,,,white,circle
2.0,1,6.0,,,1.0,,stop,300.0,250.0,4.0,,,,,,,,,white,circle
2.0,0,6.0,6.0,717.962026596,1.0,part_2,go,300.0,250.0,1.0,,,,,,,,,yellow,flipped triangle
1.0,1,6.0,6.0,701.402902603,1.0,part_2,go,300.0,250.0,1.0,,,,,,,,,orange,triangle
1.0,1,6.0,6.0,784.1839790339999,1.0,part_2,go,300.0,250.0,1.0,,,,,,,,,orange,triangle
1.0,0,6.0,6.0,684.956073761,1.0,part_2,go,300.0,250.0,1.0,,,,,,,,,gray,square
1.0,0,6.0,6.0,668.1501865390001,1.0,part_2,go,300.0,250.0,1.0,,,,,,,,,gray,square
0.5,0,5.0,5.0,684.610128403,1.0,part_2,go,300.0,250.0,1.0,,,,,,,,,green,hexagon
0.5,1,5.0,5.0,834.568977356,1.0,part_2,go,300.0,250.0,1.0,,,,,,,,,cyan,line
2.0,0,6.0,6.0,834.162950516,1.0,part_2,go,300.0,250.0,1.0,,,,,,,,,yellow,flipped triangle
0.5,0,5.0,5.0,734.459877014,1.0,part_2,go,300.0,250.0,1.0,,,,,,,,,green,hexagon
2.0,0,6.0,6.0,734.8990440370001,1.0,part_2,go,300.0,250.0,1.0,,,,,,,,,yellow,flipped triangle
4.0,1,5.0,,,1.0,,stop,350.0,250.0,4.0,,,,,,,,,blue,cross
0.5,0,6.0,6.0,835.2229595179999,1.0,part_2,go,350.0,250.0,1.0,,,,,,,,,green,hexagon
1.0,0,6.0,6.0,800.937891006,1.0,part_2,go,350.0,250.0,1.0,,,,,,,,,gray,square
2.0,1,6.0,,,1.0,,stop,350.0,300.0,4.0,,,,,,,,,white,circle
4.0,1,5.0,,,1.0,,stop,400.0,300.0,4.0,,,,,,,,,blue,cross
0.5,1,6.0,6.0,901.672124863,1.0,part_2,go,400.0,300.0,1.0,,,,,,,,,cyan,line
4.0,0,6.0,6.0,751.209020615,1.0,part_2,go,400.0,300.0,1.0,,,,,,,,,magenta,diamond
1.0,0,6.0,6.0,717.790842056,1.0,part_2,go,400.0,300.0,1.0,,,,,,,,,gray,square
1.0,0,5.0,5.0,701.164960861,1.0,part_2,go,400.0,300.0,1.0,,,,,,,,,gray,square
2.0,1,5.0,,,1.0,,stop,450.0,300.0,4.0,,,,,,,,,white,circle
2.0,0,5.0,5.0,717.772006989,1.0,part_2,go,450.0,300.0,1.0,,,,,,,,,yellow,flipped triangle
2.0,1,5.0,,,1.0,,stop,500.0,300.0,4.0,,,,,,,,,white,circle
2.0,1,6.0,6.0,784.629106522,1.0,part_2,go,500.0,300.0,1.0,,,,,,,,,white,circle
2.0,0,6.0,6.0,817.9500103,1.0,part_2,go,500.0,300.0,1.0,,,,,,,,,yellow,flipped triangle
1.0,0,6.0,6.0,650.9649753570001,1.0,part_2,go,500.0,300.0,1.0,,,,,,,,,gray,square
1.0,0,5.0,5.0,784.470081329,1.0,part_2,go,500.0,300.0,1.0,,,,,,,,,gray,square
1.0,0,5.0,5.0,784.476041794,1.0,part_2,go,500.0,300.0,1.0,,,,,,,,,gray,square
1.0,0,5.0,5.0,768.298864365,1.0,part_2,go,500.0,300.0,1.0,,,,,,,,,gray,square
0.5,0,5.0,5.0,818.6640739439999,1.0,part_2,go,500.0,300.0,1.0,,,,,,,,,green,hexagon
4.0,1,5.0,,,1.0,,stop,550.0,300.0,4.0,,,,,,,,,blue,cross
1.0,1,5.0,5.0,818.234920502,1.0,part_2,stop,600.0,300.0,3.0,,,,,,,,,orange,triangle
2.0,0,6.0,6.0,701.112031937,2.0,part_2,go,600.0,300.0,1.0,,,,,,,,,yellow,flipped triangle
1.0,1,6.0,,,2.0,,stop,600.0,350.0,4.0,,,,,,,,,orange,triangle
2.0,0,6.0,6.0,634.510040283,2.0,part_2,go,600.0,350.0,1.0,,,,,,,,,yellow,flipped triangle
4.0,0,6.0,6.0,767.962932587,2.0,part_2,go,600.0,350.0,1.0,,,,,,,,,magenta,diamond
0.5,0,5.0,5.0,734.4720363619999,2.0,part_2,go,600.0,350.0,1.0,,,,,,,,,green,hexagon
2.0,1,6.0,6.0,717.857122421,2.0,part_2,go,600.0,350.0,1.0,,,,,,,,,white,circle
0.5,1,5.0,5.0,667.658090591,2.0,part_2,stop,550.0,350.0,3.0,,,,,,,,,cyan,line
2.0,1,5.0,,,2.0,,stop,500.0,350.0,4.0,,,,,,,,,white,circle
4.0,1,5.0,5.0,801.2611866,2.0,part_2,go,500.0,350.0,1.0,,,,,,,,,blue,cross
4.0,0,6.0,6.0,884.906053543,2.0,part_2,go,500.0,350.0,1.0,,,,,,,,,magenta,diamond
0.5,0,5.0,,,2.0,,go,500.0,350.0,5.0,,,,,,,,,green,hexagon
4.0,1,5.0,5.0,517.408132553,2.0,part_2,stop,550.0,350.0,3.0,,,,,,,,,blue,cross
4.0,1,5.0,,,2.0,,stop,500.0,350.0,4.0,,,,,,,,,blue,cross
0.5,1,6.0,,,2.0,,stop,500.0,400.0,4.0,,,,,,,,,cyan,line
4.0,1,6.0,6.0,817.737102509,2.0,part_2,go,500.0,400.0,1.0,,,,,,,,,blue,cross
1.0,1,6.0,6.0,801.2349605559999,2.0,part_2,go,500.0,400.0,1.0,,,,,,,,,orange,triangle
4.0,0,6.0,6.0,784.436941147,2.0,part_2,go,500.0,400.0,1.0,,,,,,,,,magenta,diamond
4.0,1,5.0,,,2.0,,stop,550.0,400.0,4.0,,,,,,,,,blue,cross
0.5,0,6.0,6.0,834.790945053,2.0,part_2,go,550.0,400.0,1.0,,,,,,,,,green,hexagon
2.0,0,6.0,6.0,834.911108017,2.0,part_2,go,550.0,400.0,1.0,,,,,,,,,yellow,flipped triangle
1.0,1,6.0,6.0,801.37014389,2.0,part_2,go,550.0,400.0,1.0,,,,,,,,,orange,triangle
1.0,0,5.0,5.0,934.947967529,2.0,part_2,go,550.0,400.0,1.0,,,,,,,,,gray,square
0.5,1,5.0,,,2.0,,stop,600.0,400.0,4.0,,,,,,,,,cyan,line
4.0,0,6.0,6.0,784.415006638,2.0,part_2,go,600.0,400.0,1.0,,,,,,,,,magenta,diamond
2.0,0,6.0,,,2.0,,go,600.0,400.0,5.0,,,,,,,,,yellow,flipped triangle
4.0,0,5.0,5.0,801.380872726,2.0,part_2,go,600.0,400.0,1.0,,,,,,,,,magenta,diamond
4.0,0,5.0,5.0,851.603984833,2.0,part_2,go,600.0,400.0,1.0,,,,,,,,,magenta,diamond
0.5,0,6.0,6.0,767.8718566890001,2.0,part_2,go,600.0,400.0,1.0,,,,,,,,,green,hexagon
4.0,1,5.0,,,2.0,,stop,650.0,400.0,4.0,,,,,,,,,blue,cross
2.0,1,5.0,5.0,934.436798096,2.0,part_2,stop,700.0,400.0,3.0,,,,,,,,,white,circle
4.0,1,6.0,6.0,850.950956345,2.0,part_2,go,700.0,400.0,1.0,,,,,,,,,blue,cross
4.0,0,5.0,5.0,934.875965118,2.0,part_2,go,700.0,400.0,1.0,,,,,,,,,magenta,diamond
1.0,0,5.0,5.0,834.4831466669999,2.0,part_2,go,700.0,400.0,1.0,,,,,,,,,gray,square
2.0,1,5.0,5.0,784.255981445,2.0,part_2,stop,650.0,400.0,3.0,,,,,,,,,white,circle
1.0,1,5.0,,,2.0,,stop,600.0,400.0,4.0,,,,,,,,,orange,triangle
0.5,0,6.0,6.0,918.3590412140001,2.0,part_2,go,600.0,400.0,1.0,,,,,,,,,green,hexagon
4.0,0,6.0,6.0,701.277971268,3.0,part_2,go,600.0,400.0,1.0,,,,,,,,,magenta,diamond
4.0,0,6.0,6.0,734.760046005,3.0,part_2,go,600.0,400.0,1.0,,,,,,,,,magenta,diamond
0.5,0,5.0,5.0,784.358978271,3.0,part_2,go,600.0,400.0,1.0,,,,,,,,,green,hexagon
2.0,1,6.0,,,3.0,,stop,600.0,450.0,4.0,,,,,,,,,white,circle
2.0,1,5.0,,,3.0,,stop,650.0,450.0,4.0,,,,,,,,,white,circle
1.0,0,5.0,5.0,701.1148929599999,3.0,part_2,go,650.0,450.0,1.0,,,,,,,,,gray,square
1.0,0,5.0,5.0,934.6330165859999,3.0,part_2,go,650.0,450.0,1.0,,,,,,,,,gray,square
1.0,1,5.0,5.0,884.876012802,3.0,part_2,stop,700.0,450.0,3.0,,,,,,,,,orange,triangle
4.0,1,5.0,5.0,751.110076904,3.0,part_2,stop,650.0,450.0,3.0,,,,,,,,,blue,cross
1.0,1,6.0,,,3.0,,stop,650.0,500.0,4.0,,,,,,,,,orange,triangle
2.0,0,5.0,5.0,818.12787056,3.0,part_2,go,650.0,500.0,1.0,,,,,,,,,yellow,flipped triangle
2.0,0,5.0,5.0,834.553003311,3.0,part_2,go,650.0,500.0,1.0,,,,,,,,,yellow,flipped triangle
1.0,1,5.0,,,3.0,,stop,600.0,500.0,4.0,,,,,,,,,orange,triangle
0.5,1,6.0,,,3.0,,stop,600.0,550.0,4.0,,,,,,,,,cyan,line
4.0,0,6.0,6.0,768.054962158,3.0,part_2,go,600.0,550.0,1.0,,,,,,,,,magenta,diamond
0.5,0,6.0,6.0,901.165962219,3.0,part_2,go,600.0,550.0,1.0,,,,,,,,,green,hexagon
2.0,0,5.0,5.0,868.1960105899999,3.0,part_2,go,600.0,550.0,1.0,,,,,,,,,yellow,flipped triangle
2.0,0,5.0,5.0,917.745828629,3.0,part_2,go,600.0,550.0,1.0,,,,,,,,,yellow,flipped triangle
4.0,0,6.0,6.0,951.873064041,3.0,part_2,go,600.0,550.0,1.0,,,,,,,,,magenta,diamond
2.0,0,6.0,6.0,834.8240852360001,3.0,part_2,go,600.0,550.0,1.0,,,,,,,,,yellow,flipped triangle
1.0,0,6.0,6.0,967.670917511,3.0,part_2,go,600.0,550.0,1.0,,,,,,,,,gray,square
1.0,0,5.0,5.0,901.257991791,3.0,part_2,go,600.0,550.0,1.0,,,,,,,,,gray,square
0.5,0,6.0,6.0,868.499040604,3.0,part_2,go,600.0,550.0,1.0,,,,,,,,,green,hexagon
0.5,0,5.0,5.0,834.86700058,3.0,part_2,go,600.0,550.0,1.0,,,,,,,,,green,hexagon
4.0,1,6.0,6.0,801.426887512,3.0,part_2,go,600.0,550.0,1.0,,,,,,,,,blue,cross
4.0,1,6.0,6.0,751.029968262,3.0,part_2,go,600.0,550.0,1.0,,,,,,,,,blue,cross
2.0,1,5.0,5.0,801.048994064,3.0,part_2,stop,650.0,550.0,3.0,,,,,,,,,white,circle
0.5,0,5.0,5.0,951.400995255,3.0,part_2,go,650.0,550.0,1.0,,,,,,,,,green,hexagon
4.0,0,6.0,6.0,818.2399272920001,3.0,part_2,go,650.0,550.0,1.0,,,,,,,,,magenta,diamond
0.5,0,5.0,5.0,834.366798401,3.0,part_2,go,650.0,550.0,1.0,,,,,,,,,green,hexagon
4.0,0,6.0,6.0,851.644039154,3.0,part_2,go,650.0,550.0,1.0,,,,,,,,,magenta,diamond
0.5,1,6.0,6.0,684.111118317,3.0,part_2,stop,650.0,600.0,3.0,,,,,,,,,cyan,line
4.0,1,6.0,,,3.0,,stop,650.0,550.0,4.0,,,,,,,,,blue,cross
1.0,0,5.0,5.0,884.764909744,3.0,part_2,go,650.0,550.0,1.0,,,,,,,,,gray,square
0.5,0,6.0,6.0,934.728860855,3.0,part_2,go,650.0,550.0,1.0,,,,,,,,,green,hexagon
2.0,1,5.0,,,3.0,,stop,600.0,550.0,4.0,,,,,,,,,white,circle
0.5,0,6.0,6.0,801.2049198149999,4.0,part_2,go,600.0,550.0,1.0,,,,,,,,,green,hexagon
2.0,1,6.0,6.0,751.2388229369999,4.0,part_2,go,600.0,550.0,1.0,,,,,,,,,white,circle
0.5,0,5.0,5.0,717.475891113,4.0,part_2,go,600.0,550.0,1.0,,,,,,,,,green,hexagon
4.0,0,5.0,5.0,717.819929123,4.0,part_2,go,600.0,550.0,1.0,,,,,,,,,magenta,diamond
0.5,1,6.0,6.0,668.0259704590001,4.0,part_2,stop,600.0,600.0,3.0,,,,,,,,,cyan,line
4.0,1,6.0,,,4.0,,stop,600.0,550.0,4.0,,,,,,,,,blue,cross
1.0,0,5.0,5.0,784.337043762,4.0,part_2,go,600.0,550.0,1.0,,,,,,,,,gray,square
4.0,1,5.0,,,4.0,,stop,650.0,550.0,4.0,,,,,,,,,blue,cross
1.0,1,5.0,,,4.0,,stop,700.0,550.0,4.0,,,,,,,,,orange,triangle
1.0,1,5.0,5.0,884.6299648280001,4.0,part_2,stop,750.0,550.0,3.0,,,,,,,,,orange,triangle
2.0,1,6.0,,,4.0,,stop,750.0,600.0,4.0,,,,,,,,,white,circle
4.0,0,6.0,6.0,851.042985916,4.0,part_2,go,750.0,600.0,1.0,,,,,,,,,magenta,diamond
1.0,1,5.0,5.0,817.878007889,4.0,part_2,go,750.0,600.0,1.0,,,,,,,,,orange,triangle
1.0,1,6.0,,,4.0,,stop,750.0,650.0,4.0,,,,,,,,,orange,triangle
2.0,1,5.0,,,4.0,,stop,700.0,650.0,4.0,,,,,,,,,white,circle
4.0,0,6.0,,,4.0,,go,700.0,650.0,5.0,,,,,,,,,magenta,diamond
0.5,1,6.0,6.0,684.569120407,4.0,part_2,go,700.0,650.0,1.0,,,,,,,,,cyan,line
2.0,0,6.0,6.0,768.079996109,4.0,part_2,go,700.0,650.0,1.0,,,,,,,,,yellow,flipped triangle
0.5,0,5.0,5.0,667.816877365,4.0,part_2,go,700.0,650.0,1.0,,,,,,,,,green,hexagon
4.0,1,6.0,6.0,801.6481399539999,4.0,part_2,stop,700.0,700.0,3.0,,,,,,,,,blue,cross
2.0,0,6.0,,,4.0,,go,700.0,700.0,5.0,,,,,,,,,yellow,flipped triangle
4.0,0,6.0,6.0,684.124946594,4.0,part_2,go,700.0,700.0,1.0,,,,,,,,,magenta,diamond
2.0,0,5.0,,,4.0,,go,700.0,700.0,5.0,,,,,,,,,yellow,flipped triangle
4.0,0,6.0,6.0,851.629018784,4.0,part_2,go,700.0,700.0,1.0,,,,,,,,,magenta,diamond
2.0,1,5.0,5.0,835.211038589,4.0,part_2,go,700.0,700.0,1.0,,,,,,,,,white,circle
0.5,0,5.0,5.0,667.606115341,4.0,part_2,go,700.0,700.0,1.0,,,,,,,,,green,hexagon
4.0,1,6.0,6.0,734.183073044,4.0,part_2,stop,700.0,650.0,3.0,,,,,,,,,blue,cross
0.5,0,6.0,,,4.0,,go,700.0,650.0,5.0,,,,,,,,,green,hexagon
0.5,1,5.0,5.0,534.4810485840001,4.0,part_2,stop,750.0,650.0,3.0,,,,,,,,,cyan,line
2.0,0,6.0,6.0,734.630823135,4.0,part_2,go,750.0,650.0,1.0,,,,,,,,,yellow,flipped triangle
0.5,0,5.0,5.0,851.2489795680001,4.0,part_2,go,750.0,650.0,1.0,,,,,,,,,green,hexagon
0.5,1,5.0,5.0,583.9879512790001,4.0,part_2,stop,700.0,650.0,3.0,,,,,,,,,cyan,line
1.0,0,5.0,5.0,550.7829189299999,4.0,part_2,go,700.0,650.0,1.0,,,,,,,,,gray,square
1.0,1,5.0,5.0,634.412050247,4.0,part_2,go,700.0,650.0,1.0,,,,,,,,,orange,triangle
0.5,0,6.0,6.0,551.3930320740001,4.0,part_2,go,700.0,650.0,1.0,,,,,,,,,green,hexagon
0.5,1,5.0,5.0,684.6339702610001,4.0,part_2,stop,650.0,650.0,3.0,,,,,,,,,cyan,line
0.5,0,6.0,6.0,684.3919754030001,5.0,part_2,go,650.0,650.0,1.0,,,,,,,,,green,hexagon
1.0,1,6.0,6.0,584.2390060419999,5.0,part_2,stop,650.0,600.0,3.0,,,,,,,,,orange,triangle
4.0,1,5.0,5.0,751.1451244350001,5.0,part_2,stop,600.0,600.0,3.0,,,,,,,,,blue,cross
0.5,1,5.0,5.0,751.421928406,5.0,part_2,stop,550.0,600.0,3.0,,,,,,,,,cyan,line
0.5,0,5.0,5.0,751.2738704679999,5.0,part_2,go,550.0,600.0,1.0,,,,,,,,,green,hexagon
4.0,1,5.0,5.0,901.132822037,5.0,part_2,go,550.0,600.0,1.0,,,,,,,,,blue,cross
0.5,1,6.0,6.0,617.7630424500001,5.0,part_2,stop,550.0,550.0,3.0,,,,,,,,,cyan,line
1.0,0,6.0,6.0,901.952981949,5.0,part_2,go,550.0,550.0,1.0,,,,,,,,,gray,square
4.0,0,6.0,6.0,700.904130936,5.0,part_2,go,550.0,550.0,1.0,,,,,,,,,magenta,diamond
4.0,1,5.0,,,5.0,,stop,500.0,550.0,4.0,,,,,,,,,blue,cross
1.0,0,5.0,5.0,901.075839996,5.0,part_2,go,500.0,550.0,1.0,,,,,,,,,gray,square
2.0,0,6.0,6.0,817.74520874,5.0,part_2,go,500.0,550.0,1.0,,,,,,,,,yellow,flipped triangle
0.5,1,5.0,,,5.0,,stop,550.0,550.0,4.0,,,,,,,,,cyan,line
4.0,1,5.0,,,5.0,,stop,600.0,550.0,4.0,,,,,,,,,blue,cross
4.0,0,6.0,6.0,734.642982483,5.0,part_2,go,600.0,550.0,1.0,,,,,,,,,magenta,diamond
1.0,0,5.0,5.0,884.624004364,5.0,part_2,go,600.0,550.0,1.0,,,,,,,,,gray,square
4.0,1,5.0,,,5.0,,stop,650.0,550.0,4.0,,,,,,,,,blue,cross
1.0,1,5.0,,,5.0,,stop,700.0,550.0,4.0,,,,,,,,,orange,triangle
4.0,0,5.0,5.0,867.9580688479999,5.0,part_2,go,700.0,550.0,1.0,,,,,,,,,magenta,diamond
2.0,1,5.0,,,5.0,,go,700.0,550.0,5.0,,,,,,,,,white,circle
4.0,1,5.0,5.0,818.186998367,5.0,part_2,stop,750.0,550.0,3.0,,,,,,,,,blue,cross
4.0,0,5.0,,,5.0,,go,750.0,550.0,5.0,,,,,,,,,magenta,diamond
0.5,1,6.0,6.0,818.010091782,5.0,part_2,go,750.0,550.0,1.0,,,,,,,,,cyan,line
1.0,1,5.0,,,5.0,,stop,700.0,550.0,4.0,,,,,,,,,orange,triangle
2.0,0,5.0,5.0,901.682853699,5.0,part_2,go,700.0,550.0,1.0,,,,,,,,,yellow,flipped triangle
2.0,0,6.0,6.0,651.117086411,5.0,part_2,go,700.0,550.0,1.0,,,,,,,,,yellow,flipped triangle
0.5,0,6.0,6.0,767.5538063050001,5.0,part_2,go,700.0,550.0,1.0,,,,,,,,,green,hexagon
2.0,0,6.0,6.0,801.430940628,5.0,part_2,go,700.0,550.0,1.0,,,,,,,,,yellow,flipped triangle
4.0,1,6.0,6.0,801.4478683469999,5.0,part_2,go,700.0,550.0,1.0,,,,,,,,,blue,cross
2.0,1,6.0,6.0,884.594917297,5.0,part_2,go,700.0,550.0,1.0,,,,,,,,,white,circle
2.0,0,6.0,6.0,767.409086227,5.0,part_2,go,700.0,550.0,1.0,,,,,,,,,yellow,flipped triangle
2.0,1,6.0,6.0,818.1071281430001,5.0,part_2,go,700.0,550.0,1.0,,,,,,,,,white,circle
2.0,1,6.0,6.0,450.71101188700004,5.0,part_2,stop,700.0,500.0,3.0,,,,,,,,,white,circle
1.0,0,6.0,,,5.0,,go,700.0,500.0,5.0,,,,,,,,,gray,square
0.5,1,5.0,5.0,884.494066238,5.0,part_2,stop,750.0,500.0,3.0,,,,,,,,,cyan,line
2.0,1,6.0,,,5.0,,stop,750.0,450.0,4.0,,,,,,,,,white,circle
0.5,1,5.0,,,6.0,,stop,700.0,450.0,4.0,,,,,,,,,cyan,line
1.0,0,6.0,6.0,734.871864319,6.0,part_2,go,700.0,450.0,1.0,,,,,,,,,gray,square
4.0,0,5.0,5.0,834.78307724,6.0,part_2,go,700.0,450.0,1.0,,,,,,,,,magenta,diamond
1.0,0,5.0,5.0,917.762994766,6.0,part_2,go,700.0,450.0,1.0,,,,,,,,,gray,square
0.5,0,6.0,6.0,851.24707222,6.0,part_2,go,700.0,450.0,1.0,,,,,,,,,green,hexagon
1.0,1,5.0,,,6.0,,stop,750.0,450.0,4.0,,,,,,,,,orange,triangle
1.0,1,5.0,,,6.0,,stop,750.0,450.0,4.0,,,,,,,,,orange,triangle
0.5,0,6.0,6.0,884.2639923099999,6.0,part_2,go,750.0,450.0,1.0,,,,,,,,,green,hexagon
1.0,1,6.0,,,6.0,,go,750.0,450.0,5.0,,,,,,,,,orange,triangle
0.5,1,5.0,,,6.0,,stop,750.0,450.0,4.0,,,,,,,,,cyan,line
4.0,1,5.0,,,6.0,,stop,750.0,450.0,4.0,,,,,,,,,blue,cross
0.5,1,5.0,,,6.0,,go,750.0,450.0,5.0,,,,,,,,,cyan,line
0.5,1,6.0,6.0,600.868940353,6.0,part_2,go,750.0,450.0,1.0,,,,,,,,,cyan,line
0.5,0,6.0,6.0,684.870958328,6.0,part_2,go,750.0,450.0,1.0,,,,,,,,,green,hexagon
0.5,0,6.0,6.0,834.320783615,6.0,part_2,go,750.0,450.0,1.0,,,,,,,,,green,hexagon
1.0,0,5.0,,,6.0,,go,750.0,450.0,5.0,,,,,,,,,gray,square
2.0,0,6.0,6.0,967.978000641,6.0,part_2,go,750.0,450.0,1.0,,,,,,,,,yellow,flipped triangle
2.0,1,5.0,5.0,785.0339412689999,6.0,part_2,go,750.0,450.0,1.0,,,,,,,,,white,circle
4.0,0,5.0,5.0,767.940998077,6.0,part_2,go,750.0,450.0,1.0,,,,,,,,,magenta,diamond
0.5,1,6.0,,,6.0,,stop,750.0,500.0,4.0,,,,,,,,,cyan,line
0.5,1,6.0,,,6.0,,stop,750.0,550.0,4.0,,,,,,,,,cyan,line
1.0,1,5.0,,,6.0,,stop,750.0,550.0,4.0,,,,,,,,,orange,triangle
2.0,1,6.0,,,6.0,,stop,750.0,600.0,4.0,,,,,,,,,white,circle
0.5,1,5.0,5.0,901.1249542239999,6.0,part_2,go,750.0,600.0,1.0,,,,,,,,,cyan,line
1.0,0,6.0,6.0,734.1990470889999,6.0,part_2,go,750.0,600.0,1.0,,,,,,,,,gray,square
0.5,1,5.0,5.0,634.511947632,6.0,part_2,stop,750.0,600.0,3.0,,,,,,,,,cyan,line
2.0,1,6.0,,,6.0,,go,750.0,600.0,5.0,,,,,,,,,white,circle
0.5,0,5.0,5.0,684.5660209660001,6.0,part_2,go,750.0,600.0,1.0,,,,,,,,,green,hexagon
4.0,1,5.0,,,6.0,,stop,700.0,600.0,4.0,,,,,,,,,blue,cross
1.0,1,6.0,,,6.0,,stop,700.0,650.0,4.0,,,,,,,,,orange,triangle
4.0,0,5.0,,,6.0,,go,700.0,650.0,5.0,,,,,,,,,magenta,diamond
2.0,0,5.0,5.0,751.140117645,6.0,part_2,go,700.0,650.0,1.0,,,,,,,,,yellow,flipped triangle
1.0,1,6.0,,,6.0,,stop,700.0,700.0,4.0,,,,,,,,,orange,triangle
0.5,0,6.0,,,6.0,,go,700.0,700.0,5.0,,,,,,,,,green,hexagon
4.0,0,6.0,6.0,717.907190323,6.0,part_2,go,700.0,700.0,1.0,,,,,,,,,magenta,diamond
1.0,1,6.0,6.0,868.1669235229999,6.0,part_2,stop,700.0,750.0,3.0,,,,,,,,,orange,triangle
1.0,1,6.0,6.0,884.995937347,7.0,part_2,stop,700.0,700.0,3.0,,,,,,,,,orange,triangle
1.0,0,6.0,,,7.0,,go,700.0,700.0,5.0,,,,,,,,,gray,square
2.0,1,6.0,,,7.0,,stop,700.0,650.0,4.0,,,,,,,,,white,circle
2.0,0,5.0,5.0,901.032924652,7.0,part_2,go,700.0,650.0,1.0,,,,,,,,,yellow,flipped triangle
2.0,0,5.0,5.0,934.593915939,7.0,part_2,go,700.0,650.0,1.0,,,,,,,,,yellow,flipped triangle
4.0,0,5.0,5.0,651.365995407,7.0,part_2,go,700.0,650.0,1.0,,,,,,,,,magenta,diamond
0.5,0,5.0,5.0,650.988101959,7.0,part_2,go,700.0,650.0,1.0,,,,,,,,,green,hexagon
4.0,1,5.0,,,7.0,,stop,750.0,650.0,4.0,,,,,,,,,blue,cross
2.0,1,5.0,,,7.0,,stop,750.0,650.0,4.0,,,,,,,,,white,circle
1.0,1,5.0,,,7.0,,go,750.0,650.0,5.0,,,,,,,,,orange,triangle
1.0,0,5.0,5.0,517.8709030150001,7.0,part_2,go,750.0,650.0,1.0,,,,,,,,,gray,square
2.0,1,5.0,,,7.0,,stop,750.0,650.0,4.0,,,,,,,,,white,circle
4.0,1,6.0,,,7.0,,stop,750.0,700.0,4.0,,,,,,,,,blue,cross
4.0,0,5.0,5.0,934.541940689,7.0,part_2,go,750.0,700.0,1.0,,,,,,,,,magenta,diamond
2.0,1,5.0,,,7.0,,stop,750.0,700.0,4.0,,,,,,,,,white,circle
2.0,1,5.0,,,7.0,,stop,750.0,700.0,4.0,,,,,,,,,white,circle
4.0,1,6.0,,,7.0,,stop,750.0,750.0,4.0,,,,,,,,,blue,cross
2.0,0,6.0,6.0,784.946203232,7.0,part_2,go,750.0,750.0,1.0,,,,,,,,,yellow,flipped triangle
1.0,0,5.0,5.0,600.8691787719999,7.0,part_2,go,750.0,750.0,1.0,,,,,,,,,gray,square
0.5,1,6.0,,,7.0,,stop,750.0,750.0,4.0,,,,,,,,,cyan,line
1.0,0,6.0,6.0,801.401853561,7.0,part_2,go,750.0,750.0,1.0,,,,,,,,,gray,square
1.0,1,5.0,5.0,667.6900386809999,7.0,part_2,go,750.0,750.0,1.0,,,,,,,,,orange,triangle
1.0,1,6.0,,,7.0,,stop,750.0,750.0,4.0,,,,,,,,,orange,triangle
4.0,0,6.0,6.0,968.38593483,7.0,part_2,go,750.0,750.0,1.0,,,,,,,,,magenta,diamond
4.0,1,6.0,,,7.0,,stop,750.0,750.0,4.0,,,,,,,,,blue,cross
1.0,0,6.0,6.0,801.1338710780001,7.0,part_2,go,750.0,750.0,1.0,,,,,,,,,gray,square
2.0,0,6.0,6.0,551.4519214630001,7.0,part_2,go,750.0,750.0,1.0,,,,,,,,,yellow,flipped triangle
2.0,1,5.0,,,7.0,,stop,750.0,750.0,4.0,,,,,,,,,white,circle
4.0,1,5.0,,,7.0,,go,750.0,750.0,5.0,,,,,,,,,blue,cross
4.0,0,5.0,5.0,517.362833023,7.0,part_2,go,750.0,750.0,1.0,,,,,,,,,magenta,diamond
1.0,0,5.0,5.0,551.4211654659999,7.0,part_2,go,750.0,750.0,1.0,,,,,,,,,gray,square
2.0,0,6.0,6.0,600.953817368,7.0,part_2,go,750.0,750.0,1.0,,,,,,,,,yellow,flipped triangle
4.0,1,6.0,,,7.0,,stop,750.0,750.0,4.0,,,,,,,,,blue,cross
4.0,0,6.0,6.0,501.3060569759999,7.0,part_2,go,750.0,750.0,1.0,,,,,,,,,magenta,diamond
0.5,1,6.0,,,7.0,,go,750.0,750.0,5.0,,,,,,,,,cyan,line
0.5,1,6.0,,,7.0,,stop,750.0,750.0,4.0,,,,,,,,,cyan,line
2.0,0,6.0,6.0,584.127902985,8.0,part_2,go,750.0,750.0,1.0,,,,,,,,,yellow,flipped triangle
1.0,1,5.0,5.0,484.517097473,8.0,part_2,stop,750.0,750.0,3.0,,,,,,,,,orange,triangle
1.0,0,6.0,6.0,534.1839790339999,8.0,part_2,go,750.0,750.0,1.0,,,,,,,,,gray,square
0.5,1,6.0,,,8.0,,stop,750.0,750.0,4.0,,,,,,,,,cyan,line
1.0,0,5.0,5.0,500.98800659200003,8.0,part_2,go,750.0,750.0,1.0,,,,,,,,,gray,square
0.5,1,5.0,,,8.0,,stop,700.0,750.0,4.0,,,,,,,,,cyan,line
2.0,0,5.0,5.0,834.8629474640001,8.0,part_2,go,700.0,750.0,1.0,,,,,,,,,yellow,flipped triangle
1.0,1,6.0,6.0,467.904806137,8.0,part_2,stop,700.0,750.0,3.0,,,,,,,,,orange,triangle
1.0,1,6.0,,,8.0,,stop,700.0,700.0,4.0,,,,,,,,,orange,triangle
1.0,1,6.0,,,8.0,,stop,700.0,750.0,4.0,,,,,,,,,orange,triangle
0.5,1,6.0,,,8.0,,go,700.0,750.0,5.0,,,,,,,,,cyan,line
0.5,1,5.0,,,8.0,,stop,750.0,750.0,4.0,,,,,,,,,cyan,line
2.0,1,6.0,,,8.0,,stop,750.0,750.0,4.0,,,,,,,,,white,circle
2.0,0,5.0,5.0,784.418821335,8.0,part_2,go,750.0,750.0,1.0,,,,,,,,,yellow,flipped triangle
4.0,1,5.0,,,8.0,,stop,750.0,750.0,4.0,,,,,,,,,blue,cross
4.0,1,5.0,,,8.0,,go,750.0,750.0,5.0,,,,,,,,,blue,cross
4.0,0,5.0,5.0,517.7512168879999,8.0,part_2,go,750.0,750.0,1.0,,,,,,,,,magenta,diamond
4.0,0,5.0,5.0,533.824920654,8.0,part_2,go,750.0,750.0,1.0,,,,,,,,,magenta,diamond
2.0,0,5.0,5.0,651.122808456,8.0,part_2,go,750.0,750.0,1.0,,,,,,,,,yellow,flipped triangle
1.0,0,6.0,6.0,534.295082092,8.0,part_2,go,750.0,750.0,1.0,,,,,,,,,gray,square
0.5,1,6.0,,,8.0,,stop,750.0,750.0,4.0,,,,,,,,,cyan,line
0.5,1,6.0,,,8.0,,stop,750.0,750.0,4.0,,,,,,,,,cyan,line
0.5,1,6.0,,,8.0,,stop,750.0,750.0,4.0,,,,,,,,,cyan,line
2.0,1,5.0,5.0,550.8430004119999,8.0,part_2,stop,750.0,750.0,3.0,,,,,,,,,white,circle
1.0,0,5.0,5.0,467.554807663,8.0,part_2,go,750.0,750.0,1.0,,,,,,,,,gray,square
2.0,1,5.0,,,8.0,,stop,700.0,750.0,4.0,,,,,,,,,white,circle
1.0,1,6.0,6.0,567.6038265230001,8.0,part_2,stop,700.0,750.0,3.0,,,,,,,,,orange,triangle
0.5,0,5.0,5.0,634.18006897,8.0,part_2,go,700.0,750.0,1.0,,,,,,,,,green,hexagon
1.0,1,6.0,6.0,517.5249576570001,8.0,part_2,stop,700.0,700.0,3.0,,,,,,,,,orange,triangle
0.5,1,5.0,,,8.0,,stop,750.0,700.0,4.0,,,,,,,,,cyan,line
4.0,0,5.0,5.0,634.506940842,8.0,part_2,go,750.0,700.0,1.0,,,,,,,,,magenta,diamond
0.5,0,5.0,5.0,500.935077667,8.0,part_2,go,750.0,700.0,1.0,,,,,,,,,green,hexagon
2.0,0,6.0,6.0,501.212120056,8.0,part_2,go,750.0,700.0,1.0,,,,,,,,,yellow,flipped triangle
2.0,0,6.0,,,8.0,,go,750.0,700.0,5.0,,,,,,,,,yellow,flipped triangle
2.0,1,6.0,,,8.0,,stop,750.0,650.0,4.0,,,,,,,,,white,circle
1.0,1,6.0,6.0,584.307909012,8.0,part_2,stop,750.0,700.0,3.0,,,,,,,,,orange,triangle
1.0,0,7.0,2.0,1652.11081505,1.0,part_3,go,,,,98.0,2.0,294.0,98.0,245.0,196.0,147.0,49.0,gray,square
2.0,0,7.0,4.0,1401.91197395,1.0,part_3,go,,,,204.0,6.0,102.0,34.0,68.0,204.0,136.0,170.0,yellow,flipped triangle
4.0,0,7.0,2.0,1869.18091774,1.0,part_3,go,,,,245.0,5.0,196.0,245.0,98.0,294.0,147.0,49.0,magenta,diamond
2.0,1,7.0,3.0,1251.8799305,1.0,part_3,stop,,,,156.0,4.0,39.0,78.0,156.0,117.0,195.0,234.0,white,circle
0.5,0,7.0,3.0,1167.94800758,1.0,part_3,go,,,,204.0,6.0,102.0,170.0,204.0,34.0,136.0,68.0,green,hexagon
4.0,0,7.0,1.0,2136.32202148,1.0,part_3,go,,,,264.0,6.0,264.0,220.0,132.0,88.0,44.0,176.0,magenta,diamond
1.0,1,7.0,5.0,1635.76292992,1.0,part_3,stop,,,,270.0,5.0,54.0,162.0,108.0,324.0,270.0,216.0,orange,triangle
2.0,1,7.0,2.0,1451.73501968,1.0,part_3,stop,,,,294.0,6.0,196.0,294.0,245.0,98.0,147.0,49.0,white,circle
4.0,0,7.0,3.0,1018.16606522,1.0,part_3,go,,,,68.0,2.0,34.0,170.0,68.0,102.0,204.0,136.0,magenta,diamond
0.5,0,7.0,4.0,1067.99411774,1.0,part_3,go,,,,136.0,4.0,34.0,102.0,170.0,136.0,204.0,68.0,green,hexagon
1.0,0,7.0,1.0,1168.12396049,1.0,part_3,go,,,,170.0,5.0,170.0,34.0,68.0,102.0,204.0,136.0,gray,square
2.0,0,7.0,3.0,1067.99292564,1.0,part_3,go,,,,204.0,6.0,68.0,102.0,204.0,34.0,136.0,170.0,yellow,flipped triangle
0.5,1,7.0,2.0,1152.02307701,1.0,part_3,stop,,,,108.0,2.0,270.0,108.0,54.0,162.0,216.0,324.0,cyan,line
1.0,1,7.0,4.0,851.258993149,1.0,part_3,stop,,,,234.0,6.0,78.0,117.0,195.0,234.0,39.0,156.0,orange,triangle
2.0,0,7.0,3.0,1118.06797981,1.0,part_3,go,,,,196.0,4.0,49.0,147.0,196.0,294.0,245.0,98.0,yellow,flipped triangle
4.0,1,7.0,1.0,1234.8239421800001,1.0,part_3,stop,,,,196.0,4.0,196.0,147.0,245.0,49.0,98.0,294.0,blue,cross
1.0,0,7.0,3.0,1067.99602509,1.0,part_3,go,,,,220.0,5.0,176.0,264.0,220.0,132.0,44.0,88.0,gray,square
4.0,0,7.0,2.0,1535.39586067,1.0,part_3,go,,,,270.0,5.0,108.0,270.0,216.0,324.0,162.0,54.0,magenta,diamond
4.0,1,7.0,3.0,1067.68202782,1.0,part_3,stop,,,,49.0,1.0,98.0,147.0,49.0,196.0,294.0,245.0,blue,cross
2.0,0,7.0,4.0,1084.58709717,1.0,part_3,go,,,,195.0,5.0,78.0,117.0,156.0,195.0,39.0,234.0,yellow,flipped triangle
2.0,1,7.0,1.0,1017.91381836,2.0,part_3,stop,,,,234.0,6.0,234.0,195.0,78.0,39.0,117.0,156.0,white,circle
2.0,1,7.0,3.0,567.504167557,2.0,part_3,stop,,,,294.0,6.0,98.0,196.0,294.0,49.0,147.0,245.0,white,circle
1.0,1,7.0,4.0,1018.5739994,2.0,part_3,stop,,,,136.0,4.0,204.0,102.0,34.0,136.0,68.0,170.0,orange,triangle
4.0,0,7.0,2.0,1285.3889465299999,2.0,part_3,go,,,,245.0,5.0,98.0,245.0,294.0,49.0,196.0,147.0,magenta,diamond
0.5,1,7.0,3.0,984.519004822,2.0,part_3,stop,,,,88.0,2.0,220.0,132.0,88.0,176.0,264.0,44.0,cyan,line
0.5,0,7.0,2.0,1051.4330864,2.0,part_3,go,,,,44.0,1.0,88.0,44.0,264.0,176.0,132.0,220.0,green,hexagon
4.0,1,7.0,5.0,934.681892395,2.0,part_3,stop,,,,44.0,1.0,220.0,264.0,132.0,88.0,44.0,176.0,blue,cross
2.0,1,7.0,3.0,968.265771866,2.0,part_3,stop,,,,108.0,2.0,162.0,270.0,108.0,216.0,54.0,324.0,white,circle
0.5,1,7.0,2.0,2219.19703484,2.0,part_3,stop,,,,156.0,4.0,117.0,156.0,39.0,195.0,78.0,234.0,cyan,line
2.0,1,7.0,5.0,1318.09592247,2.0,part_3,stop,,,,68.0,2.0,170.0,204.0,102.0,34.0,68.0,136.0,white,circle
0.5,0,7.0,2.0,2803.42888832,2.0,part_3,go,,,,245.0,5.0,49.0,245.0,147.0,98.0,196.0,294.0,green,hexagon
1.0,1,7.0,4.0,667.813062668,2.0,part_3,stop,,,,195.0,5.0,234.0,117.0,39.0,195.0,156.0,78.0,orange,triangle
2.0,0,7.0,3.0,1185.19997597,2.0,part_3,go,,,,44.0,1.0,176.0,88.0,44.0,264.0,220.0,132.0,yellow,flipped triangle
0.5,0,7.0,3.0,1535.37487984,2.0,part_3,go,,,,270.0,5.0,54.0,324.0,270.0,216.0,162.0,108.0,green,hexagon
4.0,1,7.0,1.0,1385.52808762,2.0,part_3,stop,,,,39.0,1.0,39.0,195.0,234.0,117.0,156.0,78.0,blue,cross
1.0,0,7.0,3.0,1451.65801048,2.0,part_3,go,,,,324.0,6.0,108.0,54.0,324.0,216.0,270.0,162.0,gray,square
0.5,0,7.0,4.0,1084.4008922599999,2.0,part_3,go,,,,220.0,5.0,44.0,88.0,264.0,220.0,176.0,132.0,green,hexagon
2.0,0,7.0,2.0,1335.5021476699999,2.0,part_3,go,,,,324.0,6.0,216.0,324.0,162.0,108.0,270.0,54.0,yellow,flipped triangle
1.0,1,7.0,3.0,1318.54200363,2.0,part_3,stop,,,,170.0,5.0,102.0,34.0,170.0,204.0,136.0,68.0,orange,triangle
4.0,0,7.0,3.0,901.353120804,2.0,part_3,go,,,,170.0,5.0,136.0,68.0,170.0,204.0,34.0,102.0,magenta,diamond
0.5,1,7.0,4.0,1184.99708176,3.0,part_3,stop,,,,204.0,6.0,68.0,34.0,136.0,204.0,170.0,102.0,cyan,line
1.0,0,7.0,3.0,1435.1170063,3.0,part_3,go,,,,234.0,6.0,156.0,78.0,234.0,39.0,195.0,117.0,gray,square
2.0,0,7.0,3.0,1167.95921326,3.0,part_3,go,,,,196.0,4.0,98.0,49.0,196.0,147.0,294.0,245.0,yellow,flipped triangle
1.0,1,7.0,4.0,1285.08687019,3.0,part_3,stop,,,,108.0,2.0,324.0,54.0,270.0,108.0,216.0,162.0,orange,triangle
4.0,1,7.0,2.0,1519.02508736,3.0,part_3,stop,,,,216.0,4.0,270.0,216.0,108.0,162.0,54.0,324.0,blue,cross
1.0,1,7.0,3.0,1651.9789695700001,3.0,part_3,stop,,,,264.0,6.0,220.0,176.0,264.0,132.0,44.0,88.0,orange,triangle
4.0,0,7.0,2.0,1302.13809013,3.0,part_3,go,,,,216.0,4.0,324.0,216.0,270.0,54.0,108.0,162.0,magenta,diamond
0.5,1,7.0,4.0,1234.8189353900002,3.0,part_3,stop,,,,147.0,3.0,245.0,294.0,98.0,147.0,196.0,49.0,cyan,line
1.0,0,7.0,5.0,2486.17982864,3.0,part_3,go,,,,196.0,4.0,245.0,294.0,98.0,49.0,196.0,147.0,gray,square
4.0,1,7.0,5.0,2102.5319099400003,3.0,part_3,stop,,,,102.0,3.0,34.0,136.0,204.0,170.0,102.0,68.0,blue,cross
1.0,0,7.0,3.0,1235.05616188,3.0,part_3,go,,,,136.0,4.0,68.0,170.0,136.0,204.0,34.0,102.0,gray,square
0.5,0,7.0,4.0,1434.94987488,3.0,part_3,go,,,,216.0,4.0,162.0,108.0,270.0,216.0,324.0,54.0,green,hexagon
4.0,1,7.0,5.0,2119.1849708600002,3.0,part_3,stop,,,,162.0,3.0,216.0,108.0,54.0,324.0,162.0,270.0,blue,cross
2.0,1,7.0,2.0,1985.88299751,3.0,part_3,stop,,,,220.0,5.0,264.0,220.0,132.0,88.0,44.0,176.0,white,circle
2.0,1,7.0,6.0,1785.95495224,3.0,part_3,stop,,,,102.0,3.0,34.0,204.0,136.0,170.0,68.0,102.0,white,circle
4.0,1,7.0,4.0,1852.2920608499999,3.0,part_3,stop,,,,204.0,6.0,102.0,68.0,136.0,204.0,170.0,34.0,blue,cross
4.0,0,7.0,2.0,1535.0060463,3.0,part_3,go,,,,176.0,4.0,44.0,176.0,220.0,132.0,264.0,88.0,magenta,diamond
4.0,1,7.0,6.0,2336.25102043,3.0,part_3,stop,,,,156.0,4.0,195.0,117.0,78.0,39.0,234.0,156.0,blue,cross
4.0,0,7.0,4.0,1568.79782677,3.0,part_3,go,,,,195.0,5.0,117.0,234.0,39.0,195.0,156.0,78.0,magenta,diamond
0.5,1,7.0,4.0,1702.04401016,3.0,part_3,stop,,,,117.0,3.0,234.0,39.0,156.0,117.0,195.0,78.0,cyan,line
2.0,0,7.0,2.0,1752.41994858,4.0,part_3,go,,,,156.0,4.0,117.0,156.0,39.0,78.0,195.0,234.0,yellow,flipped triangle
1.0,1,7.0,4.0,634.1791152950001,4.0,part_3,stop,,,,196.0,4.0,147.0,245.0,49.0,196.0,294.0,98.0,orange,triangle
1.0,0,7.0,3.0,2285.5348587000003,4.0,part_3,go,,,,216.0,4.0,162.0,108.0,216.0,54.0,324.0,270.0,gray,square
0.5,0,7.0,2.0,1385.15400887,4.0,part_3,go,,,,78.0,2.0,117.0,78.0,234.0,39.0,195.0,156.0,green,hexagon
0.5,0,7.0,4.0,501.294136047,4.0,part_3,go,,,,78.0,2.0,117.0,39.0,234.0,78.0,156.0,195.0,green,hexagon
2.0,1,7.0,5.0,2002.21204758,4.0,part_3,stop,,,,220.0,5.0,176.0,132.0,88.0,264.0,220.0,44.0,white,circle
4.0,0,7.0,4.0,1184.94701385,4.0,part_3,go,,,,195.0,5.0,234.0,117.0,39.0,195.0,156.0,78.0,magenta,diamond
0.5,1,7.0,3.0,1501.94406509,4.0,part_3,stop,,,,216.0,4.0,54.0,270.0,216.0,162.0,324.0,108.0,cyan,line
1.0,1,7.0,5.0,1452.10194588,4.0,part_3,stop,,,,245.0,5.0,147.0,196.0,49.0,294.0,245.0,98.0,orange,triangle
0.5,1,7.0,2.0,3470.8530902899997,4.0,part_3,stop,,,,196.0,4.0,49.0,196.0,294.0,147.0,98.0,245.0,cyan,line
2.0,1,7.0,5.0,2002.4869442000002,4.0,part_3,stop,,,,54.0,1.0,216.0,108.0,162.0,270.0,54.0,324.0,white,circle
1.0,0,7.0,3.0,1301.45215988,4.0,part_3,go,,,,156.0,4.0,195.0,78.0,156.0,39.0,117.0,234.0,gray,square
0.5,1,7.0,4.0,2035.8300209000001,4.0,part_3,stop,,,,44.0,1.0,176.0,264.0,88.0,44.0,220.0,132.0,cyan,line
2.0,0,7.0,3.0,1051.56803131,4.0,part_3,go,,,,44.0,1.0,88.0,132.0,44.0,176.0,220.0,264.0,yellow,flipped triangle
1.0,0,7.0,4.0,1419.02184486,4.0,part_3,go,,,,264.0,6.0,88.0,176.0,44.0,264.0,220.0,132.0,gray,square
0.5,1,7.0,3.0,1401.5069007900001,4.0,part_3,stop,,,,68.0,2.0,34.0,102.0,68.0,136.0,204.0,170.0,cyan,line
2.0,0,7.0,5.0,1235.1629734,4.0,part_3,go,,,,162.0,3.0,108.0,324.0,216.0,54.0,162.0,270.0,yellow,flipped triangle
1.0,1,7.0,4.0,3771.3060379,4.0,part_3,stop,,,,132.0,3.0,44.0,264.0,176.0,132.0,220.0,88.0,orange,triangle
4.0,1,7.0,5.0,1952.4769783,4.0,part_3,stop,,,,176.0,4.0,132.0,88.0,264.0,220.0,176.0,44.0,blue,cross
0.5,0,7.0,4.0,1919.10386086,4.0,part_3,go,,,,147.0,3.0,245.0,49.0,196.0,147.0,294.0,98.0,green,hexagon
