raw_reward_magnitude,stim_reward,stepwise_reward_magnitude,paired_with_stopping,stim_location,response,reaction_time,block,which_phase,stop_signal_trial_type,left_SSD,right_SSD,accuracy,chosen_bidding_amount,chosen_bidding_level,possible_bid_1,possible_bid_2,possible_bid_3,possible_bid_4,possible_bid_5,possible_bid_6,color_text,shape_text
0.0,8.0,0.0,1,2.0,2.0,568.1030750269999,1.0,phase_1,,,,,,,,,,,,,green,line
404.0,4.0,4.0,0,3.0,3.0,467.550992966,1.0,phase_1,,,,,,,,,,,,,white,cross
0.0,5.0,0.0,1,2.0,2.0,600.737810135,1.0,phase_1,,,,,,,,,,,,,yellow,hexagon
203.0,3.0,2.0,0,2.0,2.0,434.414148331,1.0,phase_1,,,,,,,,,,,,,blue,flipped triangle
223.0,7.0,2.0,1,2.0,2.0,367.40016937300004,1.0,phase_1,,,,,,,,,,,,,orange,diamond
0.0,3.0,0.0,0,2.0,2.0,400.773048401,1.0,phase_1,,,,,,,,,,,,,blue,flipped triangle
98.0,2.0,1.0,1,1.0,1.0,350.82983970600003,1.0,phase_1,,,,,,,,,,,,,magenta,square
60.0,1.0,0.5,0,1.0,1.0,317.715883255,1.0,phase_1,,,,,,,,,,,,,cyan,circle
0.0,3.0,0.0,0,4.0,4.0,367.36607551599997,1.0,phase_1,,,,,,,,,,,,,blue,flipped triangle
0.0,7.0,0.0,1,1.0,1.0,350.646018982,1.0,phase_1,,,,,,,,,,,,,orange,diamond
376.0,4.0,4.0,0,1.0,1.0,434.62514877300003,1.0,phase_1,,,,,,,,,,,,,white,cross
0.0,3.0,0.0,0,2.0,2.0,467.680931091,1.0,phase_1,,,,,,,,,,,,,blue,flipped triangle
377.0,8.0,4.0,1,4.0,4.0,451.112031937,1.0,phase_1,,,,,,,,,,,,,green,line
119.0,2.0,1.0,1,3.0,3.0,450.726032257,1.0,phase_1,,,,,,,,,,,,,magenta,square
218.0,7.0,2.0,1,4.0,4.0,417.516946793,1.0,phase_1,,,,,,,,,,,,,orange,diamond
53.0,5.0,0.5,1,1.0,1.0,450.832128525,1.0,phase_1,,,,,,,,,,,,,yellow,hexagon
383.0,4.0,4.0,0,4.0,4.0,351.100206375,1.0,phase_1,,,,,,,,,,,,,white,cross
0.0,7.0,0.0,1,3.0,3.0,384.128093719,1.0,phase_1,,,,,,,,,,,,,orange,diamond
64.0,1.0,0.5,0,2.0,2.0,433.971166611,1.0,phase_1,,,,,,,,,,,,,cyan,circle
178.0,3.0,2.0,0,4.0,4.0,400.817871094,1.0,phase_1,,,,,,,,,,,,,blue,flipped triangle
113.0,6.0,1.0,0,3.0,3.0,367.4659729,1.0,phase_1,,,,,,,,,,,,,gray,triangle
411.0,4.0,4.0,0,1.0,1.0,467.662096024,1.0,phase_1,,,,,,,,,,,,,white,cross
106.0,2.0,1.0,1,3.0,3.0,434.78298187300004,1.0,phase_1,,,,,,,,,,,,,magenta,square
189.0,7.0,2.0,1,3.0,3.0,367.54083633399995,1.0,phase_1,,,,,,,,,,,,,orange,diamond
37.0,1.0,0.5,0,3.0,3.0,400.613069534,1.0,phase_1,,,,,,,,,,,,,cyan,circle
47.0,5.0,0.5,1,3.0,3.0,367.605924606,1.0,phase_1,,,,,,,,,,,,,yellow,hexagon
0.0,1.0,0.0,0,1.0,1.0,434.256076813,1.0,phase_1,,,,,,,,,,,,,cyan,circle
388.0,4.0,4.0,0,4.0,4.0,367.816209793,1.0,phase_1,,,,,,,,,,,,,white,cross
116.0,6.0,1.0,0,4.0,4.0,383.517980576,1.0,phase_1,,,,,,,,,,,,,gray,triangle
0.0,6.0,0.0,0,1.0,1.0,417.073011398,1.0,phase_1,,,,,,,,,,,,,gray,triangle
418.0,8.0,4.0,1,4.0,4.0,401.207923889,1.0,phase_1,,,,,,,,,,,,,green,line
210.0,3.0,2.0,0,2.0,2.0,384.073972702,1.0,phase_1,,,,,,,,,,,,,blue,flipped triangle
51.0,5.0,0.5,1,4.0,4.0,400.859117508,1.0,phase_1,,,,,,,,,,,,,yellow,hexagon
211.0,7.0,2.0,1,1.0,1.0,350.704908371,1.0,phase_1,,,,,,,,,,,,,orange,diamond
0.0,5.0,0.0,1,1.0,1.0,417.475938797,1.0,phase_1,,,,,,,,,,,,,yellow,hexagon
381.0,4.0,4.0,0,2.0,2.0,417.96708107,1.0,phase_1,,,,,,,,,,,,,white,cross
114.0,6.0,1.0,0,4.0,4.0,351.470947266,1.0,phase_1,,,,,,,,,,,,,gray,triangle
216.0,3.0,2.0,0,2.0,2.0,417.92011261,1.0,phase_1,,,,,,,,,,,,,blue,flipped triangle
117.0,6.0,1.0,0,2.0,2.0,467.51189231899997,1.0,phase_1,,,,,,,,,,,,,gray,triangle
0.0,5.0,0.0,1,1.0,1.0,400.656938553,1.0,phase_1,,,,,,,,,,,,,yellow,hexagon
97.0,2.0,1.0,1,2.0,2.0,400.66409111,1.0,phase_1,,,,,,,,,,,,,magenta,square
121.0,2.0,1.0,1,2.0,2.0,417.43683814999997,1.0,phase_1,,,,,,,,,,,,,magenta,square
80.0,6.0,1.0,0,1.0,1.0,384.192943573,1.0,phase_1,,,,,,,,,,,,,gray,triangle
0.0,5.0,0.0,1,3.0,3.0,434.204101562,1.0,phase_1,,,,,,,,,,,,,yellow,hexagon
85.0,6.0,1.0,0,4.0,4.0,400.582790375,1.0,phase_1,,,,,,,,,,,,,gray,triangle
0.0,4.0,0.0,0,1.0,1.0,434.84306335400004,1.0,phase_1,,,,,,,,,,,,,white,cross
37.0,5.0,0.5,1,4.0,4.0,367.439031601,1.0,phase_1,,,,,,,,,,,,,yellow,hexagon
32.0,5.0,0.5,1,2.0,2.0,467.95296669000004,1.0,phase_1,,,,,,,,,,,,,yellow,hexagon
0.0,2.0,0.0,1,2.0,2.0,401.578903198,1.0,phase_1,,,,,,,,,,,,,magenta,square
92.0,6.0,1.0,0,2.0,2.0,500.88286399799995,1.0,phase_1,,,,,,,,,,,,,gray,triangle
207.0,7.0,2.0,1,3.0,3.0,450.953960419,1.0,phase_1,,,,,,,,,,,,,orange,diamond
0.0,4.0,0.0,0,4.0,4.0,450.845956802,1.0,phase_1,,,,,,,,,,,,,white,cross
93.0,2.0,1.0,1,4.0,4.0,384.824991226,1.0,phase_1,,,,,,,,,,,,,magenta,square
47.0,1.0,0.5,0,3.0,3.0,467.89312362699997,1.0,phase_1,,,,,,,,,,,,,cyan,circle
75.0,5.0,0.5,1,1.0,1.0,350.930929184,1.0,phase_1,,,,,,,,,,,,,yellow,hexagon
0.0,1.0,0.0,0,1.0,1.0,367.100000381,1.0,phase_1,,,,,,,,,,,,,cyan,circle
0.0,4.0,0.0,0,3.0,3.0,384.29784774800004,1.0,phase_1,,,,,,,,,,,,,white,cross
212.0,3.0,2.0,0,3.0,3.0,517.804861069,1.0,phase_1,,,,,,,,,,,,,blue,flipped triangle
0.0,1.0,0.0,0,4.0,4.0,534.3539714809999,1.0,phase_1,,,,,,,,,,,,,cyan,circle
0.0,8.0,0.0,1,4.0,4.0,433.777809143,1.0,phase_1,,,,,,,,,,,,,green,line
33.0,1.0,0.5,0,3.0,3.0,434.428930283,1.0,phase_1,,,,,,,,,,,,,cyan,circle
193.0,7.0,2.0,1,3.0,3.0,417.646884918,1.0,phase_1,,,,,,,,,,,,,orange,diamond
401.0,4.0,4.0,0,4.0,4.0,451.01189613300005,1.0,phase_1,,,,,,,,,,,,,white,cross
62.0,1.0,0.5,0,4.0,4.0,434.437990189,1.0,phase_1,,,,,,,,,,,,,cyan,circle
98.0,6.0,1.0,0,3.0,3.0,518.368005753,1.0,phase_1,,,,,,,,,,,,,gray,triangle
0.0,3.0,0.0,0,4.0,4.0,501.413106918,1.0,phase_1,,,,,,,,,,,,,blue,flipped triangle
72.0,1.0,0.5,0,1.0,1.0,450.75893402099996,1.0,phase_1,,,,,,,,,,,,,cyan,circle
392.0,4.0,4.0,0,3.0,3.0,401.161193848,1.0,phase_1,,,,,,,,,,,,,white,cross
54.0,5.0,0.5,1,3.0,3.0,401.114940643,1.0,phase_1,,,,,,,,,,,,,yellow,hexagon
58.0,1.0,0.5,0,2.0,2.0,517.616033554,1.0,phase_1,,,,,,,,,,,,,cyan,circle
67.0,1.0,0.5,0,4.0,4.0,484.290122986,1.0,phase_1,,,,,,,,,,,,,cyan,circle
0.0,7.0,0.0,1,1.0,1.0,434.192180634,1.0,phase_1,,,,,,,,,,,,,orange,diamond
0.0,6.0,0.0,0,4.0,4.0,484.39002037,1.0,phase_1,,,,,,,,,,,,,gray,triangle
196.0,7.0,2.0,1,2.0,2.0,600.902080536,1.0,phase_1,,,,,,,,,,,,,orange,diamond
407.0,8.0,4.0,1,2.0,2.0,567.59595871,1.0,phase_1,,,,,,,,,,,,,green,line
123.0,2.0,1.0,1,4.0,4.0,517.225027084,1.0,phase_1,,,,,,,,,,,,,magenta,square
0.0,7.0,0.0,1,1.0,1.0,417.671203613,1.0,phase_1,,,,,,,,,,,,,orange,diamond
52.0,1.0,0.5,0,3.0,3.0,417.65594482399996,1.0,phase_1,,,,,,,,,,,,,cyan,circle
209.0,3.0,2.0,0,3.0,3.0,450.836181641,1.0,phase_1,,,,,,,,,,,,,blue,flipped triangle
78.0,6.0,1.0,0,1.0,1.0,501.171112061,1.0,phase_1,,,,,,,,,,,,,gray,triangle
403.0,8.0,4.0,1,4.0,4.0,467.475891113,1.0,phase_1,,,,,,,,,,,,,green,line
116.0,6.0,1.0,0,2.0,2.0,501.11889839199995,1.0,phase_1,,,,,,,,,,,,,gray,triangle
184.0,3.0,2.0,0,2.0,2.0,434.06200408899997,1.0,phase_1,,,,,,,,,,,,,blue,flipped triangle
188.0,3.0,2.0,0,1.0,1.0,434.21697616600005,1.0,phase_1,,,,,,,,,,,,,blue,flipped triangle
415.0,8.0,4.0,1,2.0,2.0,418.078899384,1.0,phase_1,,,,,,,,,,,,,green,line
78.0,2.0,1.0,1,1.0,1.0,568.211078644,1.0,phase_1,,,,,,,,,,,,,magenta,square
70.0,5.0,0.5,1,4.0,4.0,417.38319397000004,1.0,phase_1,,,,,,,,,,,,,yellow,hexagon
110.0,6.0,1.0,0,3.0,3.0,468.27816963199996,1.0,phase_1,,,,,,,,,,,,,gray,triangle
223.0,7.0,2.0,1,3.0,3.0,467.51499176,1.0,phase_1,,,,,,,,,,,,,orange,diamond
176.0,3.0,2.0,0,1.0,1.0,484.36284065200005,1.0,phase_1,,,,,,,,,,,,,blue,flipped triangle
0.0,2.0,0.0,1,2.0,2.0,417.438030243,1.0,phase_1,,,,,,,,,,,,,magenta,square
78.0,6.0,1.0,0,2.0,2.0,518.264055252,1.0,phase_1,,,,,,,,,,,,,gray,triangle
90.0,2.0,1.0,1,2.0,2.0,434.09705162,1.0,phase_1,,,,,,,,,,,,,magenta,square
183.0,3.0,2.0,0,4.0,4.0,450.790882111,1.0,phase_1,,,,,,,,,,,,,blue,flipped triangle
64.0,1.0,0.5,0,3.0,3.0,434.441804886,1.0,phase_1,,,,,,,,,,,,,cyan,circle
68.0,1.0,0.5,0,3.0,3.0,467.87905693100004,1.0,phase_1,,,,,,,,,,,,,cyan,circle
42.0,1.0,0.5,0,3.0,3.0,417.710065842,1.0,phase_1,,,,,,,,,,,,,cyan,circle
0.0,6.0,0.0,0,1.0,1.0,467.349052429,1.0,phase_1,,,,,,,,,,,,,gray,triangle
406.0,4.0,4.0,0,1.0,1.0,466.816186905,1.0,phase_1,,,,,,,,,,,,,white,cross
73.0,1.0,0.5,0,1.0,1.0,467.533111572,1.0,phase_1,,,,,,,,,,,,,cyan,circle
26.0,1.0,0.5,0,1.0,1.0,367.552995682,2.0,phase_1,,,,,,,,,,,,,cyan,circle
45.0,5.0,0.5,1,4.0,4.0,467.9479599,2.0,phase_1,,,,,,,,,,,,,yellow,hexagon
176.0,3.0,2.0,0,4.0,4.0,450.739145279,2.0,phase_1,,,,,,,,,,,,,blue,flipped triangle
412.0,8.0,4.0,1,1.0,1.0,567.733049393,2.0,phase_1,,,,,,,,,,,,,green,line
0.0,8.0,0.0,1,2.0,2.0,484.87997055100004,2.0,phase_1,,,,,,,,,,,,,green,line
383.0,4.0,4.0,0,2.0,2.0,484.236001968,2.0,phase_1,,,,,,,,,,,,,white,cross
187.0,7.0,2.0,1,3.0,3.0,400.842189789,2.0,phase_1,,,,,,,,,,,,,orange,diamond
0.0,2.0,0.0,1,4.0,4.0,400.80785751300004,2.0,phase_1,,,,,,,,,,,,,magenta,square
418.0,4.0,4.0,0,4.0,4.0,400.806903839,2.0,phase_1,,,,,,,,,,,,,white,cross
0.0,7.0,0.0,1,2.0,2.0,467.406988144,2.0,phase_1,,,,,,,,,,,,,orange,diamond
116.0,2.0,1.0,1,1.0,1.0,467.94605255100004,2.0,phase_1,,,,,,,,,,,,,magenta,square
398.0,8.0,4.0,1,3.0,3.0,434.284925461,2.0,phase_1,,,,,,,,,,,,,green,line
55.0,1.0,0.5,0,4.0,4.0,450.839996338,2.0,phase_1,,,,,,,,,,,,,cyan,circle
417.0,4.0,4.0,0,4.0,4.0,400.797843933,2.0,phase_1,,,,,,,,,,,,,white,cross
0.0,4.0,0.0,0,2.0,2.0,550.956964493,2.0,phase_1,,,,,,,,,,,,,white,cross
54.0,5.0,0.5,1,3.0,3.0,384.230136871,2.0,phase_1,,,,,,,,,,,,,yellow,hexagon
0.0,6.0,0.0,0,2.0,2.0,567.751169205,2.0,phase_1,,,,,,,,,,,,,gray,triangle
61.0,5.0,0.5,1,2.0,2.0,384.371042252,2.0,phase_1,,,,,,,,,,,,,yellow,hexagon
182.0,7.0,2.0,1,3.0,3.0,417.532920837,2.0,phase_1,,,,,,,,,,,,,orange,diamond
409.0,8.0,4.0,1,4.0,4.0,351.174116135,2.0,phase_1,,,,,,,,,,,,,green,line
210.0,3.0,2.0,0,1.0,1.0,367.343902588,2.0,phase_1,,,,,,,,,,,,,blue,flipped triangle
0.0,2.0,0.0,1,4.0,4.0,367.38109588599997,2.0,phase_1,,,,,,,,,,,,,magenta,square
0.0,7.0,0.0,1,1.0,1.0,400.824785233,2.0,phase_1,,,,,,,,,,,,,orange,diamond
0.0,4.0,0.0,0,1.0,1.0,434.457778931,2.0,phase_1,,,,,,,,,,,,,white,cross
26.0,1.0,0.5,0,2.0,2.0,501.190900803,2.0,phase_1,,,,,,,,,,,,,cyan,circle
385.0,8.0,4.0,1,2.0,2.0,451.19905471799996,2.0,phase_1,,,,,,,,,,,,,green,line
37.0,5.0,0.5,1,3.0,3.0,467.799186707,2.0,phase_1,,,,,,,,,,,,,yellow,hexagon
0.0,6.0,0.0,0,4.0,4.0,434.40604209900005,2.0,phase_1,,,,,,,,,,,,,gray,triangle
213.0,7.0,2.0,1,4.0,4.0,534.191131592,2.0,phase_1,,,,,,,,,,,,,orange,diamond
0.0,5.0,0.0,1,1.0,1.0,467.882156372,2.0,phase_1,,,,,,,,,,,,,yellow,hexagon
102.0,6.0,1.0,0,2.0,2.0,584.290981293,2.0,phase_1,,,,,,,,,,,,,gray,triangle
36.0,1.0,0.5,0,1.0,1.0,534.4858169559999,2.0,phase_1,,,,,,,,,,,,,cyan,circle
0.0,3.0,0.0,0,4.0,4.0,417.92201995799996,2.0,phase_1,,,,,,,,,,,,,blue,flipped triangle
0.0,2.0,0.0,1,4.0,4.0,384.34195518499996,2.0,phase_1,,,,,,,,,,,,,magenta,square
70.0,5.0,0.5,1,3.0,3.0,501.02996826199995,2.0,phase_1,,,,,,,,,,,,,yellow,hexagon
42.0,5.0,0.5,1,2.0,2.0,484.563827515,2.0,phase_1,,,,,,,,,,,,,yellow,hexagon
203.0,3.0,2.0,0,1.0,1.0,401.007890701,2.0,phase_1,,,,,,,,,,,,,blue,flipped triangle
120.0,2.0,1.0,1,2.0,2.0,451.056957245,2.0,phase_1,,,,,,,,,,,,,magenta,square
75.0,2.0,1.0,1,3.0,3.0,400.938987732,2.0,phase_1,,,,,,,,,,,,,magenta,square
206.0,3.0,2.0,0,3.0,3.0,434.15093421899996,2.0,phase_1,,,,,,,,,,,,,blue,flipped triangle
393.0,8.0,4.0,1,3.0,3.0,434.500932693,2.0,phase_1,,,,,,,,,,,,,green,line
0.0,8.0,0.0,1,2.0,2.0,467.77200698900003,2.0,phase_1,,,,,,,,,,,,,green,line
106.0,6.0,1.0,0,2.0,2.0,484.555959702,2.0,phase_1,,,,,,,,,,,,,gray,triangle
0.0,1.0,0.0,0,3.0,3.0,401.124000549,2.0,phase_1,,,,,,,,,,,,,cyan,circle
78.0,6.0,1.0,0,1.0,1.0,400.853157043,2.0,phase_1,,,,,,,,,,,,,gray,triangle
0.0,7.0,0.0,1,4.0,4.0,400.94995498699996,2.0,phase_1,,,,,,,,,,,,,orange,diamond
0.0,7.0,0.0,1,2.0,2.0,534.58404541,2.0,phase_1,,,,,,,,,,,,,orange,diamond
0.0,6.0,0.0,0,1.0,1.0,433.898925781,2.0,phase_1,,,,,,,,,,,,,gray,triangle
387.0,4.0,4.0,0,3.0,3.0,450.97994804399997,2.0,phase_1,,,,,,,,,,,,,white,cross
400.0,8.0,4.0,1,2.0,2.0,400.700092316,2.0,phase_1,,,,,,,,,,,,,green,line
0.0,8.0,0.0,1,2.0,2.0,517.5662040709999,2.0,phase_1,,,,,,,,,,,,,green,line
204.0,7.0,2.0,1,4.0,4.0,417.320966721,2.0,phase_1,,,,,,,,,,,,,orange,diamond
0.0,1.0,0.0,0,1.0,1.0,334.2461586,2.0,phase_1,,,,,,,,,,,,,cyan,circle
0.0,5.0,0.0,1,1.0,1.0,384.427070618,2.0,phase_1,,,,,,,,,,,,,yellow,hexagon
44.0,1.0,0.5,0,2.0,2.0,384.532928467,2.0,phase_1,,,,,,,,,,,,,cyan,circle
107.0,6.0,1.0,0,3.0,3.0,401.211023331,2.0,phase_1,,,,,,,,,,,,,gray,triangle
90.0,6.0,1.0,0,2.0,2.0,417.764186859,2.0,phase_1,,,,,,,,,,,,,gray,triangle
0.0,1.0,0.0,0,4.0,4.0,400.744915009,2.0,phase_1,,,,,,,,,,,,,cyan,circle
76.0,6.0,1.0,0,3.0,3.0,600.8338928219999,2.0,phase_1,,,,,,,,,,,,,gray,triangle
39.0,1.0,0.5,0,1.0,1.0,417.51194000199996,2.0,phase_1,,,,,,,,,,,,,cyan,circle
405.0,8.0,4.0,1,1.0,1.0,384.240150452,2.0,phase_1,,,,,,,,,,,,,green,line
116.0,2.0,1.0,1,3.0,3.0,451.042890549,2.0,phase_1,,,,,,,,,,,,,magenta,square
57.0,1.0,0.5,0,4.0,4.0,366.970062256,2.0,phase_1,,,,,,,,,,,,,cyan,circle
0.0,1.0,0.0,0,2.0,2.0,451.056003571,2.0,phase_1,,,,,,,,,,,,,cyan,circle
116.0,6.0,1.0,0,1.0,1.0,467.679023743,2.0,phase_1,,,,,,,,,,,,,gray,triangle
216.0,7.0,2.0,1,1.0,1.0,534.283876419,2.0,phase_1,,,,,,,,,,,,,orange,diamond
221.0,3.0,2.0,0,1.0,1.0,500.822067261,2.0,phase_1,,,,,,,,,,,,,blue,flipped triangle
212.0,3.0,2.0,0,1.0,1.0,500.926971436,2.0,phase_1,,,,,,,,,,,,,blue,flipped triangle
80.0,6.0,1.0,0,3.0,3.0,501.143932343,2.0,phase_1,,,,,,,,,,,,,gray,triangle
118.0,6.0,1.0,0,2.0,2.0,484.162092209,2.0,phase_1,,,,,,,,,,,,,gray,triangle
391.0,8.0,4.0,1,2.0,2.0,484.202861786,2.0,phase_1,,,,,,,,,,,,,green,line
112.0,6.0,1.0,0,2.0,2.0,567.939996719,2.0,phase_1,,,,,,,,,,,,,gray,triangle
57.0,1.0,0.5,0,1.0,1.0,435.149908066,2.0,phase_1,,,,,,,,,,,,,cyan,circle
118.0,2.0,1.0,1,1.0,1.0,466.999053955,2.0,phase_1,,,,,,,,,,,,,magenta,square
377.0,4.0,4.0,0,2.0,2.0,434.161186218,2.0,phase_1,,,,,,,,,,,,,white,cross
0.0,8.0,0.0,1,3.0,3.0,367.312908173,2.0,phase_1,,,,,,,,,,,,,green,line
36.0,5.0,0.5,1,3.0,3.0,584.6831798549999,2.0,phase_1,,,,,,,,,,,,,yellow,hexagon
410.0,8.0,4.0,1,2.0,2.0,484.30895805399996,2.0,phase_1,,,,,,,,,,,,,green,line
81.0,6.0,1.0,0,4.0,4.0,401.377916336,2.0,phase_1,,,,,,,,,,,,,gray,triangle
106.0,2.0,1.0,1,4.0,4.0,467.96011924699997,2.0,phase_1,,,,,,,,,,,,,magenta,square
57.0,5.0,0.5,1,4.0,4.0,417.2539711,2.0,phase_1,,,,,,,,,,,,,yellow,hexagon
53.0,1.0,0.5,0,1.0,1.0,467.95892715499997,2.0,phase_1,,,,,,,,,,,,,cyan,circle
101.0,2.0,1.0,1,4.0,4.0,517.574071884,2.0,phase_1,,,,,,,,,,,,,magenta,square
214.0,3.0,2.0,0,2.0,2.0,550.642967224,2.0,phase_1,,,,,,,,,,,,,blue,flipped triangle
196.0,3.0,2.0,0,3.0,3.0,434.131860733,2.0,phase_1,,,,,,,,,,,,,blue,flipped triangle
393.0,8.0,4.0,1,4.0,4.0,567.8589344019999,2.0,phase_1,,,,,,,,,,,,,green,line
186.0,3.0,2.0,0,1.0,1.0,401.017904282,2.0,phase_1,,,,,,,,,,,,,blue,flipped triangle
107.0,2.0,1.0,1,3.0,3.0,484.483003616,2.0,phase_1,,,,,,,,,,,,,magenta,square
43.0,1.0,0.5,0,4.0,4.0,401.365995407,2.0,phase_1,,,,,,,,,,,,,cyan,circle
0.0,4.0,0.0,0,3.0,3.0,551.167011261,2.0,phase_1,,,,,,,,,,,,,white,cross
0.0,8.0,0.0,1,4.0,4.0,383.450984955,2.0,phase_1,,,,,,,,,,,,,green,line
90.0,6.0,1.0,0,3.0,3.0,484.52877998400004,2.0,phase_1,,,,,,,,,,,,,gray,triangle
86.0,2.0,1.0,1,3.0,3.0,551.1789321900001,2.0,phase_1,,,,,,,,,,,,,magenta,square
0.0,2.0,0.0,1,3.0,3.0,584.403991699,2.0,phase_1,,,,,,,,,,,,,magenta,square
0.0,4.0,0.0,0,4.0,4.0,517.991065979,2.0,phase_1,,,,,,,,,,,,,white,cross
0.0,4.0,0.0,0,3.0,3.0,450.978040695,2.0,phase_1,,,,,,,,,,,,,white,cross
39.0,1.0,0.5,0,3.0,3.0,617.702007294,2.0,phase_1,,,,,,,,,,,,,cyan,circle
0.0,5.0,0.0,1,4.0,4.0,451.026916504,2.0,phase_1,,,,,,,,,,,,,yellow,hexagon
62.0,5.0,0.5,1,1.0,1.0,384.48691368100003,2.0,phase_1,,,,,,,,,,,,,yellow,hexagon
176.0,3.0,2.0,0,1.0,1.0,384.217023849,2.0,phase_1,,,,,,,,,,,,,blue,flipped triangle
0.0,6.0,0.0,0,3.0,3.0,417.207956314,3.0,phase_1,,,,,,,,,,,,,gray,triangle
121.0,6.0,1.0,0,2.0,2.0,534.577131271,3.0,phase_1,,,,,,,,,,,,,gray,triangle
38.0,1.0,0.5,0,3.0,3.0,417.656898499,3.0,phase_1,,,,,,,,,,,,,cyan,circle
404.0,8.0,4.0,1,1.0,1.0,383.911132812,3.0,phase_1,,,,,,,,,,,,,green,line
0.0,5.0,0.0,1,2.0,2.0,434.15880203200004,3.0,phase_1,,,,,,,,,,,,,yellow,hexagon
419.0,8.0,4.0,1,1.0,1.0,484.2441082,3.0,phase_1,,,,,,,,,,,,,green,line
82.0,2.0,1.0,1,4.0,4.0,401.187896729,3.0,phase_1,,,,,,,,,,,,,magenta,square
97.0,2.0,1.0,1,4.0,4.0,417.291879654,3.0,phase_1,,,,,,,,,,,,,magenta,square
30.0,5.0,0.5,1,3.0,3.0,518.019914627,3.0,phase_1,,,,,,,,,,,,,yellow,hexagon
192.0,7.0,2.0,1,4.0,4.0,567.661046982,3.0,phase_1,,,,,,,,,,,,,orange,diamond
66.0,5.0,0.5,1,4.0,4.0,433.750152588,3.0,phase_1,,,,,,,,,,,,,yellow,hexagon
0.0,7.0,0.0,1,3.0,3.0,318.03894042999997,3.0,phase_1,,,,,,,,,,,,,orange,diamond
0.0,5.0,0.0,1,2.0,2.0,517.380952835,3.0,phase_1,,,,,,,,,,,,,yellow,hexagon
375.0,4.0,4.0,0,3.0,3.0,500.905036926,3.0,phase_1,,,,,,,,,,,,,white,cross
103.0,2.0,1.0,1,1.0,1.0,434.186935425,3.0,phase_1,,,,,,,,,,,,,magenta,square
424.0,8.0,4.0,1,2.0,2.0,484.214067459,3.0,phase_1,,,,,,,,,,,,,green,line
66.0,1.0,0.5,0,1.0,1.0,417.49787330600003,3.0,phase_1,,,,,,,,,,,,,cyan,circle
208.0,3.0,2.0,0,4.0,4.0,484.13801193200004,3.0,phase_1,,,,,,,,,,,,,blue,flipped triangle
377.0,8.0,4.0,1,1.0,1.0,550.943136215,3.0,phase_1,,,,,,,,,,,,,green,line
53.0,1.0,0.5,0,3.0,3.0,618.1080341339999,3.0,phase_1,,,,,,,,,,,,,cyan,circle
0.0,8.0,0.0,1,1.0,1.0,567.409038544,3.0,phase_1,,,,,,,,,,,,,green,line
200.0,3.0,2.0,0,4.0,4.0,584.568023682,3.0,phase_1,,,,,,,,,,,,,blue,flipped triangle
0.0,6.0,0.0,0,2.0,2.0,517.599821091,3.0,phase_1,,,,,,,,,,,,,gray,triangle
207.0,3.0,2.0,0,2.0,2.0,618.057966232,3.0,phase_1,,,,,,,,,,,,,blue,flipped triangle
389.0,4.0,4.0,0,2.0,2.0,433.779001236,3.0,phase_1,,,,,,,,,,,,,white,cross
212.0,7.0,2.0,1,3.0,3.0,584.738016129,3.0,phase_1,,,,,,,,,,,,,orange,diamond
215.0,7.0,2.0,1,3.0,3.0,434.143066406,3.0,phase_1,,,,,,,,,,,,,orange,diamond
394.0,4.0,4.0,0,2.0,2.0,434.504985809,3.0,phase_1,,,,,,,,,,,,,white,cross
387.0,4.0,4.0,0,4.0,4.0,384.546995163,3.0,phase_1,,,,,,,,,,,,,white,cross
409.0,8.0,4.0,1,4.0,4.0,450.621128082,3.0,phase_1,,,,,,,,,,,,,green,line
203.0,3.0,2.0,0,2.0,2.0,534.08408165,3.0,phase_1,,,,,,,,,,,,,blue,flipped triangle
50.0,5.0,0.5,1,1.0,1.0,584.5119953159999,3.0,phase_1,,,,,,,,,,,,,yellow,hexagon
93.0,2.0,1.0,1,2.0,2.0,467.82207489,3.0,phase_1,,,,,,,,,,,,,magenta,square
382.0,4.0,4.0,0,1.0,1.0,383.914232254,3.0,phase_1,,,,,,,,,,,,,white,cross
124.0,6.0,1.0,0,4.0,4.0,384.625911713,3.0,phase_1,,,,,,,,,,,,,gray,triangle
93.0,2.0,1.0,1,1.0,1.0,351.380825043,3.0,phase_1,,,,,,,,,,,,,magenta,square
57.0,1.0,0.5,0,1.0,1.0,467.80109405499996,3.0,phase_1,,,,,,,,,,,,,cyan,circle
109.0,2.0,1.0,1,2.0,2.0,567.807912827,3.0,phase_1,,,,,,,,,,,,,magenta,square
382.0,4.0,4.0,0,1.0,1.0,401.389122009,3.0,phase_1,,,,,,,,,,,,,white,cross
66.0,5.0,0.5,1,3.0,3.0,400.81000328100004,3.0,phase_1,,,,,,,,,,,,,yellow,hexagon
375.0,4.0,4.0,0,2.0,2.0,467.577934265,3.0,phase_1,,,,,,,,,,,,,white,cross
206.0,3.0,2.0,0,4.0,4.0,400.806903839,3.0,phase_1,,,,,,,,,,,,,blue,flipped triangle
0.0,7.0,0.0,1,3.0,3.0,584.753990173,3.0,phase_1,,,,,,,,,,,,,orange,diamond
381.0,8.0,4.0,1,1.0,1.0,500.86212158200004,3.0,phase_1,,,,,,,,,,,,,green,line
54.0,1.0,0.5,0,3.0,3.0,467.42010116600005,3.0,phase_1,,,,,,,,,,,,,cyan,circle
408.0,4.0,4.0,0,1.0,1.0,451.215028763,3.0,phase_1,,,,,,,,,,,,,white,cross
52.0,5.0,0.5,1,2.0,2.0,417.84095764200003,3.0,phase_1,,,,,,,,,,,,,yellow,hexagon
384.0,4.0,4.0,0,1.0,1.0,417.720079422,3.0,phase_1,,,,,,,,,,,,,white,cross
379.0,4.0,4.0,0,4.0,4.0,450.90484619100005,3.0,phase_1,,,,,,,,,,,,,white,cross
103.0,2.0,1.0,1,1.0,1.0,367.245912552,3.0,phase_1,,,,,,,,,,,,,magenta,square
222.0,7.0,2.0,1,1.0,1.0,433.463096619,3.0,phase_1,,,,,,,,,,,,,orange,diamond
385.0,8.0,4.0,1,3.0,3.0,584.177017212,3.0,phase_1,,,,,,,,,,,,,green,line
0.0,5.0,0.0,1,4.0,4.0,434.208154678,3.0,phase_1,,,,,,,,,,,,,yellow,hexagon
419.0,8.0,4.0,1,4.0,4.0,634.783029556,3.0,phase_1,,,,,,,,,,,,,green,line
69.0,1.0,0.5,0,2.0,2.0,500.84400177,3.0,phase_1,,,,,,,,,,,,,cyan,circle
219.0,7.0,2.0,1,1.0,1.0,417.25420951800004,3.0,phase_1,,,,,,,,,,,,,orange,diamond
0.0,3.0,0.0,0,3.0,3.0,517.865180969,3.0,phase_1,,,,,,,,,,,,,blue,flipped triangle
0.0,7.0,0.0,1,4.0,4.0,367.537975311,3.0,phase_1,,,,,,,,,,,,,orange,diamond
0.0,2.0,0.0,1,4.0,4.0,400.763988495,3.0,phase_1,,,,,,,,,,,,,magenta,square
380.0,4.0,4.0,0,1.0,1.0,501.40404701200004,3.0,phase_1,,,,,,,,,,,,,white,cross
377.0,8.0,4.0,1,2.0,2.0,517.720937729,3.0,phase_1,,,,,,,,,,,,,green,line
195.0,7.0,2.0,1,1.0,1.0,450.953006744,3.0,phase_1,,,,,,,,,,,,,orange,diamond
0.0,1.0,0.0,0,3.0,3.0,584.227085114,3.0,phase_1,,,,,,,,,,,,,cyan,circle
0.0,8.0,0.0,1,1.0,1.0,484.13491249099997,3.0,phase_1,,,,,,,,,,,,,green,line
412.0,8.0,4.0,1,2.0,2.0,451.574087143,3.0,phase_1,,,,,,,,,,,,,green,line
0.0,4.0,0.0,0,1.0,1.0,667.418003082,3.0,phase_1,,,,,,,,,,,,,white,cross
183.0,7.0,2.0,1,2.0,2.0,534.371852875,3.0,phase_1,,,,,,,,,,,,,orange,diamond
210.0,3.0,2.0,0,3.0,3.0,467.38409996,3.0,phase_1,,,,,,,,,,,,,blue,flipped triangle
207.0,7.0,2.0,1,3.0,3.0,401.44610405,3.0,phase_1,,,,,,,,,,,,,orange,diamond
189.0,7.0,2.0,1,2.0,2.0,584.352970123,3.0,phase_1,,,,,,,,,,,,,orange,diamond
0.0,1.0,0.0,0,3.0,3.0,450.63304901099997,3.0,phase_1,,,,,,,,,,,,,cyan,circle
0.0,8.0,0.0,1,3.0,3.0,500.87594985999993,3.0,phase_1,,,,,,,,,,,,,green,line
423.0,4.0,4.0,0,4.0,4.0,734.624147415,3.0,phase_1,,,,,,,,,,,,,white,cross
72.0,1.0,0.5,0,4.0,4.0,534.534931183,3.0,phase_1,,,,,,,,,,,,,cyan,circle
189.0,7.0,2.0,1,2.0,2.0,501.074075699,3.0,phase_1,,,,,,,,,,,,,orange,diamond
62.0,5.0,0.5,1,4.0,4.0,468.0519104,3.0,phase_1,,,,,,,,,,,,,yellow,hexagon
109.0,2.0,1.0,1,4.0,4.0,484.41600799599996,3.0,phase_1,,,,,,,,,,,,,magenta,square
425.0,4.0,4.0,0,3.0,3.0,484.152078629,3.0,phase_1,,,,,,,,,,,,,white,cross
375.0,8.0,4.0,1,3.0,3.0,521.798849106,3.0,phase_1,,,,,,,,,,,,,green,line
62.0,5.0,0.5,1,2.0,2.0,484.52091217,3.0,phase_1,,,,,,,,,,,,,yellow,hexagon
0.0,4.0,0.0,0,1.0,,,3.0,phase_1,,,,,,,,,,,,,white,cross
210.0,3.0,2.0,0,4.0,4.0,417.697906494,3.0,phase_1,,,,,,,,,,,,,blue,flipped triangle
0.0,4.0,0.0,0,2.0,2.0,433.85004997299995,3.0,phase_1,,,,,,,,,,,,,white,cross
413.0,8.0,4.0,1,2.0,2.0,450.764894485,3.0,phase_1,,,,,,,,,,,,,green,line
207.0,3.0,2.0,0,3.0,3.0,451.070070267,3.0,phase_1,,,,,,,,,,,,,blue,flipped triangle
0.0,1.0,0.0,0,1.0,,,3.0,phase_1,,,,,,,,,,,,,cyan,circle
78.0,2.0,1.0,1,4.0,4.0,501.38592719999997,3.0,phase_1,,,,,,,,,,,,,magenta,square
42.0,1.0,0.5,0,3.0,3.0,434.142112732,3.0,phase_1,,,,,,,,,,,,,cyan,circle
388.0,4.0,4.0,0,2.0,2.0,400.679111481,3.0,phase_1,,,,,,,,,,,,,white,cross
92.0,6.0,1.0,0,3.0,3.0,434.297800064,3.0,phase_1,,,,,,,,,,,,,gray,triangle
394.0,8.0,4.0,1,4.0,4.0,434.081077576,3.0,phase_1,,,,,,,,,,,,,green,line
396.0,4.0,4.0,0,3.0,3.0,568.1660175320001,3.0,phase_1,,,,,,,,,,,,,white,cross
73.0,5.0,0.5,1,4.0,4.0,451.597213745,3.0,phase_1,,,,,,,,,,,,,yellow,hexagon
416.0,8.0,4.0,1,2.0,2.0,451.143026352,3.0,phase_1,,,,,,,,,,,,,green,line
379.0,8.0,4.0,1,4.0,4.0,417.190074921,3.0,phase_1,,,,,,,,,,,,,green,line
49.0,5.0,0.5,1,3.0,3.0,451.120138168,3.0,phase_1,,,,,,,,,,,,,yellow,hexagon
0.0,3.0,0.0,0,1.0,,,3.0,phase_1,,,,,,,,,,,,,blue,flipped triangle
0.0,5.0,0.0,1,4.0,4.0,484.641075134,3.0,phase_1,,,,,,,,,,,,,yellow,hexagon
0.0,3.0,0.0,0,1.0,,,3.0,phase_1,,,,,,,,,,,,,blue,flipped triangle
125.0,2.0,1.0,1,2.0,2.0,801.268100739,3.0,phase_1,,,,,,,,,,,,,magenta,square
0.0,6.0,0.0,0,1.0,1.0,351.016044617,4.0,phase_1,,,,,,,,,,,,,gray,triangle
225.0,3.0,2.0,0,2.0,2.0,600.723981857,4.0,phase_1,,,,,,,,,,,,,blue,flipped triangle
56.0,5.0,0.5,1,4.0,4.0,450.966835022,4.0,phase_1,,,,,,,,,,,,,yellow,hexagon
70.0,5.0,0.5,1,2.0,2.0,484.501123428,4.0,phase_1,,,,,,,,,,,,,yellow,hexagon
193.0,7.0,2.0,1,4.0,4.0,383.896827698,4.0,phase_1,,,,,,,,,,,,,orange,diamond
0.0,7.0,0.0,1,4.0,4.0,451.382875443,4.0,phase_1,,,,,,,,,,,,,orange,diamond
0.0,6.0,0.0,0,4.0,4.0,417.6030159,4.0,phase_1,,,,,,,,,,,,,gray,triangle
34.0,1.0,0.5,0,3.0,3.0,384.699821472,4.0,phase_1,,,,,,,,,,,,,cyan,circle
82.0,2.0,1.0,1,1.0,1.0,401.26681327800003,4.0,phase_1,,,,,,,,,,,,,magenta,square
79.0,2.0,1.0,1,3.0,3.0,417.52195358299997,4.0,phase_1,,,,,,,,,,,,,magenta,square
391.0,8.0,4.0,1,1.0,1.0,417.000055313,4.0,phase_1,,,,,,,,,,,,,green,line
217.0,3.0,2.0,0,4.0,4.0,434.261083603,4.0,phase_1,,,,,,,,,,,,,blue,flipped triangle
0.0,7.0,0.0,1,1.0,1.0,534.3320369720001,4.0,phase_1,,,,,,,,,,,,,orange,diamond
78.0,6.0,1.0,0,1.0,1.0,684.2868328090001,4.0,phase_1,,,,,,,,,,,,,gray,triangle
199.0,3.0,2.0,0,1.0,1.0,384.187936783,4.0,phase_1,,,,,,,,,,,,,blue,flipped triangle
68.0,5.0,0.5,1,1.0,1.0,384.238004684,4.0,phase_1,,,,,,,,,,,,,yellow,hexagon
87.0,2.0,1.0,1,2.0,2.0,551.13697052,4.0,phase_1,,,,,,,,,,,,,magenta,square
96.0,6.0,1.0,0,4.0,4.0,517.284154892,4.0,phase_1,,,,,,,,,,,,,gray,triangle
75.0,2.0,1.0,1,3.0,3.0,484.169960022,4.0,phase_1,,,,,,,,,,,,,magenta,square
402.0,8.0,4.0,1,3.0,3.0,434.32211875900003,4.0,phase_1,,,,,,,,,,,,,green,line
107.0,6.0,1.0,0,2.0,2.0,484.277963638,4.0,phase_1,,,,,,,,,,,,,gray,triangle
379.0,4.0,4.0,0,2.0,2.0,451.266050339,4.0,phase_1,,,,,,,,,,,,,white,cross
54.0,1.0,0.5,0,3.0,3.0,417.468070984,4.0,phase_1,,,,,,,,,,,,,cyan,circle
32.0,1.0,0.5,0,1.0,1.0,500.777959824,4.0,phase_1,,,,,,,,,,,,,cyan,circle
0.0,4.0,0.0,0,4.0,4.0,450.906038284,4.0,phase_1,,,,,,,,,,,,,white,cross
0.0,5.0,0.0,1,4.0,4.0,417.4451828,4.0,phase_1,,,,,,,,,,,,,yellow,hexagon
0.0,5.0,0.0,1,4.0,4.0,434.187889099,4.0,phase_1,,,,,,,,,,,,,yellow,hexagon
110.0,2.0,1.0,1,1.0,1.0,384.41586494399996,4.0,phase_1,,,,,,,,,,,,,magenta,square
0.0,5.0,0.0,1,1.0,1.0,401.022195816,4.0,phase_1,,,,,,,,,,,,,yellow,hexagon
414.0,4.0,4.0,0,1.0,1.0,367.122173309,4.0,phase_1,,,,,,,,,,,,,white,cross
196.0,3.0,2.0,0,3.0,3.0,601.283073425,4.0,phase_1,,,,,,,,,,,,,blue,flipped triangle
0.0,7.0,0.0,1,1.0,1.0,451.26295089700005,4.0,phase_1,,,,,,,,,,,,,orange,diamond
110.0,6.0,1.0,0,3.0,3.0,450.694084167,4.0,phase_1,,,,,,,,,,,,,gray,triangle
0.0,3.0,0.0,0,3.0,3.0,417.70195961,4.0,phase_1,,,,,,,,,,,,,blue,flipped triangle
93.0,2.0,1.0,1,4.0,4.0,467.628955841,4.0,phase_1,,,,,,,,,,,,,magenta,square
0.0,7.0,0.0,1,2.0,2.0,317.792892456,4.0,phase_1,,,,,,,,,,,,,orange,diamond
195.0,7.0,2.0,1,2.0,2.0,617.324113846,4.0,phase_1,,,,,,,,,,,,,orange,diamond
200.0,7.0,2.0,1,3.0,3.0,450.376987457,4.0,phase_1,,,,,,,,,,,,,orange,diamond
205.0,3.0,2.0,0,3.0,3.0,417.804956436,4.0,phase_1,,,,,,,,,,,,,blue,flipped triangle
93.0,6.0,1.0,0,3.0,3.0,484.165906906,4.0,phase_1,,,,,,,,,,,,,gray,triangle
43.0,1.0,0.5,0,3.0,3.0,400.598049164,4.0,phase_1,,,,,,,,,,,,,cyan,circle
388.0,8.0,4.0,1,2.0,2.0,484.415054321,4.0,phase_1,,,,,,,,,,,,,green,line
121.0,6.0,1.0,0,3.0,3.0,384.001970291,4.0,phase_1,,,,,,,,,,,,,gray,triangle
0.0,2.0,0.0,1,3.0,3.0,417.424917221,4.0,phase_1,,,,,,,,,,,,,magenta,square
194.0,7.0,2.0,1,2.0,2.0,451.042890549,4.0,phase_1,,,,,,,,,,,,,orange,diamond
0.0,5.0,0.0,1,2.0,2.0,600.994110107,4.0,phase_1,,,,,,,,,,,,,yellow,hexagon
197.0,7.0,2.0,1,3.0,3.0,501.16205215499997,4.0,phase_1,,,,,,,,,,,,,orange,diamond
401.0,4.0,4.0,0,1.0,1.0,417.413949966,4.0,phase_1,,,,,,,,,,,,,white,cross
82.0,2.0,1.0,1,1.0,1.0,400.645017624,4.0,phase_1,,,,,,,,,,,,,magenta,square
0.0,6.0,0.0,0,3.0,3.0,417.50097274800004,4.0,phase_1,,,,,,,,,,,,,gray,triangle
0.0,4.0,0.0,0,2.0,2.0,417.37794876099997,4.0,phase_1,,,,,,,,,,,,,white,cross
0.0,8.0,0.0,1,4.0,4.0,434.452056885,4.0,phase_1,,,,,,,,,,,,,green,line
72.0,1.0,0.5,0,4.0,4.0,401.255846024,4.0,phase_1,,,,,,,,,,,,,cyan,circle
400.0,4.0,4.0,0,4.0,4.0,417.244911194,4.0,phase_1,,,,,,,,,,,,,white,cross
195.0,7.0,2.0,1,2.0,2.0,501.472949982,4.0,phase_1,,,,,,,,,,,,,orange,diamond
0.0,5.0,0.0,1,3.0,3.0,384.083986282,4.0,phase_1,,,,,,,,,,,,,yellow,hexagon
0.0,3.0,0.0,0,4.0,4.0,584.270954132,4.0,phase_1,,,,,,,,,,,,,blue,flipped triangle
75.0,5.0,0.5,1,3.0,3.0,434.68689918499996,4.0,phase_1,,,,,,,,,,,,,yellow,hexagon
394.0,8.0,4.0,1,4.0,4.0,417.830944061,4.0,phase_1,,,,,,,,,,,,,green,line
119.0,6.0,1.0,0,2.0,2.0,434.144020081,4.0,phase_1,,,,,,,,,,,,,gray,triangle
102.0,6.0,1.0,0,2.0,2.0,484.380960464,4.0,phase_1,,,,,,,,,,,,,gray,triangle
395.0,4.0,4.0,0,4.0,4.0,484.13300514199994,4.0,phase_1,,,,,,,,,,,,,white,cross
210.0,3.0,2.0,0,1.0,1.0,417.685031891,4.0,phase_1,,,,,,,,,,,,,blue,flipped triangle
0.0,6.0,0.0,0,4.0,4.0,417.87004470799997,4.0,phase_1,,,,,,,,,,,,,gray,triangle
0.0,8.0,0.0,1,3.0,3.0,500.54407119800004,4.0,phase_1,,,,,,,,,,,,,green,line
175.0,3.0,2.0,0,2.0,2.0,500.70691108700004,4.0,phase_1,,,,,,,,,,,,,blue,flipped triangle
0.0,2.0,0.0,1,2.0,2.0,367.54584312400004,4.0,phase_1,,,,,,,,,,,,,magenta,square
213.0,7.0,2.0,1,4.0,4.0,950.4430294040001,4.0,phase_1,,,,,,,,,,,,,orange,diamond
0.0,4.0,0.0,0,3.0,3.0,567.7731037140001,4.0,phase_1,,,,,,,,,,,,,white,cross
425.0,4.0,4.0,0,4.0,4.0,433.949947357,4.0,phase_1,,,,,,,,,,,,,white,cross
175.0,3.0,2.0,0,2.0,2.0,433.97903442399996,4.0,phase_1,,,,,,,,,,,,,blue,flipped triangle
411.0,8.0,4.0,1,1.0,1.0,467.98682212800003,4.0,phase_1,,,,,,,,,,,,,green,line
124.0,6.0,1.0,0,3.0,3.0,401.252031326,4.0,phase_1,,,,,,,,,,,,,gray,triangle
375.0,8.0,4.0,1,1.0,1.0,451.074123383,4.0,phase_1,,,,,,,,,,,,,green,line
0.0,7.0,0.0,1,4.0,4.0,384.08279418899997,4.0,phase_1,,,,,,,,,,,,,orange,diamond
117.0,2.0,1.0,1,1.0,1.0,618.091106415,4.0,phase_1,,,,,,,,,,,,,magenta,square
182.0,7.0,2.0,1,2.0,2.0,434.004068375,4.0,phase_1,,,,,,,,,,,,,orange,diamond
118.0,2.0,1.0,1,4.0,4.0,484.089136124,4.0,phase_1,,,,,,,,,,,,,magenta,square
71.0,1.0,0.5,0,3.0,3.0,367.85697937,4.0,phase_1,,,,,,,,,,,,,cyan,circle
212.0,3.0,2.0,0,2.0,2.0,484.42792892499995,4.0,phase_1,,,,,,,,,,,,,blue,flipped triangle
0.0,6.0,0.0,0,4.0,4.0,434.231042862,4.0,phase_1,,,,,,,,,,,,,gray,triangle
176.0,7.0,2.0,1,3.0,3.0,484.252929688,4.0,phase_1,,,,,,,,,,,,,orange,diamond
44.0,5.0,0.5,1,2.0,2.0,400.65908432000003,4.0,phase_1,,,,,,,,,,,,,yellow,hexagon
410.0,8.0,4.0,1,4.0,4.0,484.48610305799997,4.0,phase_1,,,,,,,,,,,,,green,line
211.0,7.0,2.0,1,4.0,4.0,550.987005234,4.0,phase_1,,,,,,,,,,,,,orange,diamond
0.0,3.0,0.0,0,1.0,1.0,484.2441082,4.0,phase_1,,,,,,,,,,,,,blue,flipped triangle
0.0,4.0,0.0,0,1.0,1.0,567.043066025,4.0,phase_1,,,,,,,,,,,,,white,cross
0.0,5.0,0.0,1,3.0,3.0,400.683879852,4.0,phase_1,,,,,,,,,,,,,yellow,hexagon
382.0,8.0,4.0,1,4.0,4.0,467.482089996,4.0,phase_1,,,,,,,,,,,,,green,line
125.0,2.0,1.0,1,1.0,1.0,500.810861588,4.0,phase_1,,,,,,,,,,,,,magenta,square
117.0,2.0,1.0,1,3.0,3.0,434.137821198,4.0,phase_1,,,,,,,,,,,,,magenta,square
48.0,5.0,0.5,1,2.0,2.0,550.925016403,4.0,phase_1,,,,,,,,,,,,,yellow,hexagon
124.0,2.0,1.0,1,1.0,1.0,417.378902435,4.0,phase_1,,,,,,,,,,,,,magenta,square
185.0,3.0,2.0,0,2.0,2.0,567.9957866670001,4.0,phase_1,,,,,,,,,,,,,blue,flipped triangle
114.0,6.0,1.0,0,1.0,1.0,300.342082977,4.0,phase_1,,,,,,,,,,,,,gray,triangle
224.0,7.0,2.0,1,1.0,1.0,368.207216263,4.0,phase_1,,,,,,,,,,,,,orange,diamond
114.0,2.0,1.0,1,2.0,2.0,484.273910522,4.0,phase_1,,,,,,,,,,,,,magenta,square
0.0,1.0,0.0,0,1.0,1.0,367.340803146,4.0,phase_1,,,,,,,,,,,,,cyan,circle
0.0,3.0,0.0,0,2.0,2.0,434.627056122,4.0,phase_1,,,,,,,,,,,,,blue,flipped triangle
54.0,5.0,0.5,1,2.0,2.0,433.989048004,4.0,phase_1,,,,,,,,,,,,,yellow,hexagon
0.0,5.0,0.5,1,6.0,6.0,567.43311882,1.0,phase_2,go,250.0,250.0,1.0,,,,,,,,,yellow,hexagon
0.0,4.0,4.0,0,5.0,5.0,584.7859382629999,1.0,phase_2,go,250.0,250.0,1.0,,,,,,,,,white,cross
0.0,6.0,1.0,0,5.0,5.0,383.623123169,1.0,phase_2,go,250.0,250.0,1.0,,,,,,,,,gray,triangle
0.0,2.0,1.0,1,6.0,0.0,,1.0,phase_2,stop,250.0,250.0,4.0,,,,,,,,,magenta,square
0.0,3.0,2.0,0,5.0,5.0,384.346961975,1.0,phase_2,go,250.0,250.0,1.0,,,,,,,,,blue,flipped triangle
0.0,7.0,2.0,1,5.0,0.0,,1.0,phase_2,stop,250.0,250.0,4.0,,,,,,,,,orange,diamond
0.0,6.0,1.0,0,6.0,6.0,417.16504097,1.0,phase_2,go,250.0,250.0,1.0,,,,,,,,,gray,triangle
0.0,7.0,2.0,1,6.0,6.0,567.432880402,1.0,phase_2,go,250.0,250.0,1.0,,,,,,,,,orange,diamond
0.0,1.0,0.5,0,6.0,6.0,534.0731143950001,1.0,phase_2,go,250.0,250.0,1.0,,,,,,,,,cyan,circle
0.0,1.0,0.5,0,6.0,6.0,567.537069321,1.0,phase_2,go,250.0,250.0,1.0,,,,,,,,,cyan,circle
0.0,6.0,1.0,0,6.0,6.0,434.032917023,1.0,phase_2,go,250.0,250.0,1.0,,,,,,,,,gray,triangle
0.0,5.0,0.5,1,5.0,5.0,350.564002991,1.0,phase_2,stop,300.0,250.0,3.0,,,,,,,,,yellow,hexagon
0.0,1.0,0.5,0,5.0,5.0,667.872905731,1.0,phase_2,go,300.0,250.0,1.0,,,,,,,,,cyan,circle
0.0,2.0,1.0,1,6.0,6.0,450.605869293,1.0,phase_2,stop,300.0,300.0,3.0,,,,,,,,,magenta,square
0.0,8.0,4.0,1,6.0,0.0,,1.0,phase_2,stop,300.0,250.0,4.0,,,,,,,,,green,line
0.0,7.0,2.0,1,5.0,0.0,,1.0,phase_2,stop,250.0,250.0,4.0,,,,,,,,,orange,diamond
0.0,8.0,4.0,1,5.0,0.0,,1.0,phase_2,stop,300.0,250.0,4.0,,,,,,,,,green,line
0.0,5.0,0.5,1,5.0,0.0,,1.0,phase_2,stop,350.0,250.0,4.0,,,,,,,,,yellow,hexagon
0.0,3.0,2.0,0,5.0,5.0,851.5579700469999,1.0,phase_2,go,350.0,250.0,1.0,,,,,,,,,blue,flipped triangle
0.0,4.0,4.0,0,5.0,5.0,517.773151398,1.0,phase_2,go,350.0,250.0,1.0,,,,,,,,,white,cross
0.0,6.0,1.0,0,6.0,6.0,483.912229538,1.0,phase_2,go,350.0,250.0,1.0,,,,,,,,,gray,triangle
0.0,6.0,1.0,0,6.0,6.0,434.105157852,1.0,phase_2,go,350.0,250.0,1.0,,,,,,,,,gray,triangle
0.0,7.0,2.0,1,5.0,5.0,450.283050537,1.0,phase_2,go,350.0,250.0,1.0,,,,,,,,,orange,diamond
0.0,5.0,0.5,1,6.0,6.0,417.69313812300004,1.0,phase_2,go,350.0,250.0,1.0,,,,,,,,,yellow,hexagon
0.0,1.0,0.5,0,5.0,5.0,467.65708923299997,1.0,phase_2,go,350.0,250.0,1.0,,,,,,,,,cyan,circle
0.0,1.0,0.5,0,6.0,6.0,584.125041962,1.0,phase_2,go,350.0,250.0,1.0,,,,,,,,,cyan,circle
0.0,2.0,1.0,1,5.0,5.0,451.04002952599996,1.0,phase_2,go,350.0,250.0,1.0,,,,,,,,,magenta,square
0.0,8.0,4.0,1,5.0,5.0,450.45995712300004,1.0,phase_2,go,350.0,250.0,1.0,,,,,,,,,green,line
0.0,6.0,1.0,0,5.0,5.0,500.746965408,1.0,phase_2,go,350.0,250.0,1.0,,,,,,,,,gray,triangle
0.0,6.0,1.0,0,6.0,6.0,367.51103401200004,1.0,phase_2,go,350.0,250.0,1.0,,,,,,,,,gray,triangle
0.0,7.0,2.0,1,6.0,6.0,567.513942719,1.0,phase_2,go,350.0,250.0,1.0,,,,,,,,,orange,diamond
0.0,8.0,4.0,1,5.0,5.0,517.776966095,1.0,phase_2,stop,400.0,250.0,3.0,,,,,,,,,green,line
0.0,2.0,1.0,1,5.0,5.0,551.3331890110001,1.0,phase_2,go,400.0,250.0,1.0,,,,,,,,,magenta,square
0.0,1.0,0.5,0,6.0,6.0,635.205030441,1.0,phase_2,go,400.0,250.0,1.0,,,,,,,,,cyan,circle
0.0,2.0,1.0,1,6.0,0.0,,1.0,phase_2,stop,400.0,300.0,4.0,,,,,,,,,magenta,square
0.0,8.0,4.0,1,6.0,0.0,,1.0,phase_2,stop,400.0,350.0,4.0,,,,,,,,,green,line
0.0,5.0,0.5,1,5.0,5.0,433.935880661,2.0,phase_2,stop,350.0,350.0,3.0,,,,,,,,,yellow,hexagon
0.0,2.0,1.0,1,6.0,0.0,,2.0,phase_2,stop,350.0,400.0,4.0,,,,,,,,,magenta,square
0.0,7.0,2.0,1,6.0,0.0,,2.0,phase_2,stop,350.0,450.0,4.0,,,,,,,,,orange,diamond
0.0,8.0,4.0,1,5.0,0.0,,2.0,phase_2,stop,300.0,450.0,4.0,,,,,,,,,green,line
0.0,6.0,1.0,0,6.0,6.0,800.9769916529999,2.0,phase_2,go,300.0,450.0,1.0,,,,,,,,,gray,triangle
0.0,3.0,2.0,0,5.0,5.0,467.273950577,2.0,phase_2,go,300.0,450.0,1.0,,,,,,,,,blue,flipped triangle
0.0,5.0,0.5,1,5.0,5.0,367.386817932,2.0,phase_2,stop,350.0,450.0,3.0,,,,,,,,,yellow,hexagon
0.0,2.0,1.0,1,5.0,0.0,,2.0,phase_2,stop,300.0,450.0,4.0,,,,,,,,,magenta,square
0.0,8.0,4.0,1,6.0,6.0,618.227958679,2.0,phase_2,go,300.0,450.0,1.0,,,,,,,,,green,line
0.0,3.0,2.0,0,5.0,5.0,651.017189026,2.0,phase_2,go,300.0,450.0,1.0,,,,,,,,,blue,flipped triangle
0.0,8.0,4.0,1,6.0,0.0,,2.0,phase_2,stop,300.0,500.0,4.0,,,,,,,,,green,line
0.0,6.0,1.0,0,6.0,6.0,817.677021027,2.0,phase_2,go,300.0,500.0,1.0,,,,,,,,,gray,triangle
0.0,8.0,4.0,1,6.0,6.0,634.212017059,2.0,phase_2,stop,300.0,550.0,3.0,,,,,,,,,green,line
0.0,8.0,4.0,1,6.0,0.0,,2.0,phase_2,stop,300.0,500.0,4.0,,,,,,,,,green,line
0.0,6.0,1.0,0,6.0,6.0,851.361036301,2.0,phase_2,go,300.0,500.0,1.0,,,,,,,,,gray,triangle
0.0,6.0,1.0,0,5.0,5.0,717.705965042,2.0,phase_2,go,300.0,500.0,1.0,,,,,,,,,gray,triangle
0.0,5.0,0.5,1,6.0,0.0,,2.0,phase_2,stop,300.0,550.0,4.0,,,,,,,,,yellow,hexagon
0.0,8.0,4.0,1,5.0,0.0,,2.0,phase_2,stop,350.0,550.0,4.0,,,,,,,,,green,line
0.0,1.0,0.5,0,5.0,5.0,884.98711586,2.0,phase_2,go,350.0,550.0,1.0,,,,,,,,,cyan,circle
0.0,3.0,2.0,0,5.0,5.0,734.4369888309999,2.0,phase_2,go,350.0,550.0,1.0,,,,,,,,,blue,flipped triangle
0.0,1.0,0.5,0,5.0,5.0,751.312971115,2.0,phase_2,go,350.0,550.0,1.0,,,,,,,,,cyan,circle
0.0,6.0,1.0,0,6.0,6.0,551.0962009430001,2.0,phase_2,go,350.0,550.0,1.0,,,,,,,,,gray,triangle
0.0,8.0,4.0,1,5.0,0.0,,2.0,phase_2,stop,400.0,550.0,4.0,,,,,,,,,green,line
0.0,3.0,2.0,0,6.0,0.0,,2.0,phase_2,go,400.0,550.0,5.0,,,,,,,,,blue,flipped triangle
0.0,5.0,0.5,1,5.0,5.0,467.25797653200004,2.0,phase_2,go,400.0,550.0,1.0,,,,,,,,,yellow,hexagon
0.0,3.0,2.0,0,6.0,0.0,,2.0,phase_2,go,400.0,550.0,5.0,,,,,,,,,blue,flipped triangle
0.0,7.0,2.0,1,5.0,5.0,500.829935074,2.0,phase_2,stop,450.0,550.0,3.0,,,,,,,,,orange,diamond
0.0,2.0,1.0,1,6.0,0.0,,2.0,phase_2,stop,450.0,600.0,4.0,,,,,,,,,magenta,square
0.0,1.0,0.5,0,5.0,5.0,834.589958191,2.0,phase_2,go,450.0,600.0,1.0,,,,,,,,,cyan,circle
0.0,5.0,0.5,1,6.0,6.0,684.8399639129999,2.0,phase_2,stop,450.0,650.0,3.0,,,,,,,,,yellow,hexagon
0.0,2.0,1.0,1,5.0,0.0,,2.0,phase_2,go,450.0,650.0,5.0,,,,,,,,,magenta,square
0.0,4.0,4.0,0,5.0,5.0,885.02907753,2.0,phase_2,go,450.0,650.0,1.0,,,,,,,,,white,cross
0.0,4.0,4.0,0,5.0,5.0,617.800951004,2.0,phase_2,go,450.0,650.0,1.0,,,,,,,,,white,cross
0.0,5.0,0.5,1,6.0,6.0,934.5459938050001,2.0,phase_2,go,450.0,650.0,1.0,,,,,,,,,yellow,hexagon
0.0,4.0,4.0,0,6.0,6.0,751.407146454,2.0,phase_2,go,450.0,650.0,1.0,,,,,,,,,white,cross
0.0,7.0,2.0,1,6.0,6.0,717.477798462,2.0,phase_2,stop,450.0,600.0,3.0,,,,,,,,,orange,diamond
0.0,3.0,2.0,0,6.0,6.0,434.39507484399996,3.0,phase_2,go,450.0,600.0,1.0,,,,,,,,,blue,flipped triangle
0.0,3.0,2.0,0,5.0,5.0,500.946044922,3.0,phase_2,go,450.0,600.0,1.0,,,,,,,,,blue,flipped triangle
0.0,3.0,2.0,0,5.0,5.0,451.472043991,3.0,phase_2,go,450.0,600.0,1.0,,,,,,,,,blue,flipped triangle
0.0,2.0,1.0,1,6.0,6.0,534.5010757450001,3.0,phase_2,stop,450.0,550.0,3.0,,,,,,,,,magenta,square
0.0,6.0,1.0,0,5.0,5.0,618.171930313,3.0,phase_2,go,450.0,550.0,1.0,,,,,,,,,gray,triangle
0.0,6.0,1.0,0,5.0,5.0,600.8319854739999,3.0,phase_2,go,450.0,550.0,1.0,,,,,,,,,gray,triangle
0.0,2.0,1.0,1,5.0,5.0,366.757154465,3.0,phase_2,go,450.0,550.0,1.0,,,,,,,,,magenta,square
0.0,7.0,2.0,1,5.0,5.0,350.91686248800005,3.0,phase_2,stop,400.0,550.0,3.0,,,,,,,,,orange,diamond
0.0,8.0,4.0,1,5.0,5.0,500.749826431,3.0,phase_2,stop,350.0,550.0,3.0,,,,,,,,,green,line
0.0,3.0,2.0,0,5.0,5.0,634.482860565,3.0,phase_2,go,350.0,550.0,1.0,,,,,,,,,blue,flipped triangle
0.0,5.0,0.5,1,5.0,0.0,,3.0,phase_2,stop,300.0,550.0,4.0,,,,,,,,,yellow,hexagon
0.0,1.0,0.5,0,6.0,6.0,701.203107834,3.0,phase_2,go,300.0,550.0,1.0,,,,,,,,,cyan,circle
0.0,5.0,0.5,1,6.0,6.0,951.054096222,3.0,phase_2,stop,300.0,500.0,3.0,,,,,,,,,yellow,hexagon
0.0,3.0,2.0,0,5.0,0.0,,3.0,phase_2,go,300.0,500.0,5.0,,,,,,,,,blue,flipped triangle
0.0,8.0,4.0,1,6.0,6.0,534.896850586,3.0,phase_2,stop,300.0,450.0,3.0,,,,,,,,,green,line
0.0,4.0,4.0,0,6.0,6.0,717.875957489,3.0,phase_2,go,300.0,450.0,1.0,,,,,,,,,white,cross
0.0,3.0,2.0,0,5.0,5.0,701.386928558,3.0,phase_2,go,300.0,450.0,1.0,,,,,,,,,blue,flipped triangle
0.0,1.0,0.5,0,5.0,5.0,784.693002701,3.0,phase_2,go,300.0,450.0,1.0,,,,,,,,,cyan,circle
0.0,8.0,4.0,1,6.0,6.0,434.387207031,3.0,phase_2,go,300.0,450.0,1.0,,,,,,,,,green,line
0.0,8.0,4.0,1,5.0,5.0,417.485952377,3.0,phase_2,stop,350.0,450.0,3.0,,,,,,,,,green,line
0.0,1.0,0.5,0,5.0,5.0,550.863027573,3.0,phase_2,go,350.0,450.0,1.0,,,,,,,,,cyan,circle
0.0,6.0,1.0,0,6.0,6.0,517.48585701,3.0,phase_2,go,350.0,450.0,1.0,,,,,,,,,gray,triangle
0.0,7.0,2.0,1,6.0,6.0,567.039012909,3.0,phase_2,stop,350.0,400.0,3.0,,,,,,,,,orange,diamond
0.0,7.0,2.0,1,6.0,0.0,,3.0,phase_2,stop,350.0,350.0,4.0,,,,,,,,,orange,diamond
0.0,1.0,0.5,0,6.0,6.0,650.969982147,3.0,phase_2,go,350.0,350.0,1.0,,,,,,,,,cyan,circle
0.0,7.0,2.0,1,6.0,0.0,,3.0,phase_2,stop,350.0,400.0,4.0,,,,,,,,,orange,diamond
0.0,2.0,1.0,1,5.0,5.0,734.3530654909999,3.0,phase_2,go,350.0,400.0,1.0,,,,,,,,,magenta,square
0.0,7.0,2.0,1,6.0,0.0,,3.0,phase_2,stop,350.0,450.0,4.0,,,,,,,,,orange,diamond
0.0,1.0,0.5,0,6.0,6.0,884.6421241759999,3.0,phase_2,go,350.0,450.0,1.0,,,,,,,,,cyan,circle
0.0,8.0,4.0,1,6.0,6.0,467.469930649,3.0,phase_2,go,350.0,450.0,1.0,,,,,,,,,green,line
0.0,4.0,4.0,0,5.0,5.0,784.5070362089999,3.0,phase_2,go,350.0,450.0,1.0,,,,,,,,,white,cross
0.0,6.0,1.0,0,5.0,5.0,701.2889385220001,3.0,phase_2,go,350.0,450.0,1.0,,,,,,,,,gray,triangle
0.0,5.0,0.5,1,6.0,6.0,584.331989288,3.0,phase_2,go,350.0,450.0,1.0,,,,,,,,,yellow,hexagon
0.0,1.0,0.5,0,6.0,6.0,417.780160904,3.0,phase_2,go,350.0,450.0,1.0,,,,,,,,,cyan,circle
0.0,3.0,2.0,0,5.0,5.0,551.200866699,3.0,phase_2,go,350.0,450.0,1.0,,,,,,,,,blue,flipped triangle
0.0,2.0,1.0,1,6.0,0.0,,3.0,phase_2,stop,350.0,500.0,4.0,,,,,,,,,magenta,square
0.0,7.0,2.0,1,5.0,0.0,,4.0,phase_2,stop,300.0,500.0,4.0,,,,,,,,,orange,diamond
0.0,2.0,1.0,1,5.0,0.0,,4.0,phase_2,stop,350.0,500.0,4.0,,,,,,,,,magenta,square
0.0,7.0,2.0,1,5.0,0.0,,4.0,phase_2,stop,400.0,500.0,4.0,,,,,,,,,orange,diamond
0.0,1.0,0.5,0,6.0,6.0,850.999116898,4.0,phase_2,go,400.0,500.0,1.0,,,,,,,,,cyan,circle
0.0,5.0,0.5,1,6.0,6.0,634.464025497,4.0,phase_2,stop,400.0,550.0,3.0,,,,,,,,,yellow,hexagon
0.0,7.0,2.0,1,5.0,0.0,,4.0,phase_2,stop,450.0,550.0,4.0,,,,,,,,,orange,diamond
0.0,3.0,2.0,0,5.0,0.0,,4.0,phase_2,go,450.0,550.0,5.0,,,,,,,,,blue,flipped triangle
0.0,3.0,2.0,0,6.0,6.0,500.79798698400003,4.0,phase_2,go,450.0,550.0,1.0,,,,,,,,,blue,flipped triangle
0.0,1.0,0.5,0,6.0,6.0,434.085130692,4.0,phase_2,go,450.0,550.0,1.0,,,,,,,,,cyan,circle
0.0,4.0,4.0,0,5.0,5.0,317.38615036,4.0,phase_2,go,450.0,550.0,1.0,,,,,,,,,white,cross
0.0,7.0,2.0,1,5.0,5.0,400.614976883,4.0,phase_2,stop,500.0,550.0,3.0,,,,,,,,,orange,diamond
0.0,4.0,4.0,0,5.0,5.0,367.614984512,4.0,phase_2,go,500.0,550.0,1.0,,,,,,,,,white,cross
0.0,5.0,0.5,1,6.0,6.0,334.12694931,4.0,phase_2,stop,500.0,500.0,3.0,,,,,,,,,yellow,hexagon
0.0,6.0,1.0,0,6.0,6.0,400.77495575,4.0,phase_2,go,500.0,500.0,1.0,,,,,,,,,gray,triangle
0.0,5.0,0.5,1,6.0,6.0,367.713928223,4.0,phase_2,stop,500.0,450.0,3.0,,,,,,,,,yellow,hexagon
0.0,2.0,1.0,1,6.0,0.0,,4.0,phase_2,stop,500.0,400.0,4.0,,,,,,,,,magenta,square
0.0,5.0,0.5,1,5.0,0.0,,4.0,phase_2,stop,450.0,400.0,4.0,,,,,,,,,yellow,hexagon
0.0,6.0,1.0,0,5.0,5.0,551.0590076450001,4.0,phase_2,go,450.0,400.0,1.0,,,,,,,,,gray,triangle
0.0,1.0,0.5,0,5.0,5.0,417.668104172,4.0,phase_2,go,450.0,400.0,1.0,,,,,,,,,cyan,circle
0.0,5.0,0.5,1,6.0,6.0,450.417995453,4.0,phase_2,go,450.0,400.0,1.0,,,,,,,,,yellow,hexagon
0.0,4.0,4.0,0,6.0,6.0,350.83913803099995,4.0,phase_2,go,450.0,400.0,1.0,,,,,,,,,white,cross
0.0,5.0,0.5,1,6.0,6.0,350.535154343,4.0,phase_2,stop,450.0,450.0,3.0,,,,,,,,,yellow,hexagon
0.0,1.0,0.5,0,5.0,5.0,317.69800186199996,4.0,phase_2,go,450.0,450.0,1.0,,,,,,,,,cyan,circle
0.0,2.0,1.0,1,6.0,6.0,351.192951202,4.0,phase_2,stop,450.0,400.0,3.0,,,,,,,,,magenta,square
0.0,2.0,1.0,1,6.0,6.0,367.09690094,4.0,phase_2,go,450.0,400.0,1.0,,,,,,,,,magenta,square
0.0,7.0,2.0,1,6.0,6.0,400.486946106,4.0,phase_2,stop,450.0,350.0,3.0,,,,,,,,,orange,diamond
0.0,6.0,1.0,0,5.0,5.0,317.439079285,4.0,phase_2,go,450.0,350.0,1.0,,,,,,,,,gray,triangle
0.0,7.0,2.0,1,6.0,6.0,317.38519668600003,4.0,phase_2,stop,450.0,300.0,3.0,,,,,,,,,orange,diamond
0.0,3.0,2.0,0,6.0,6.0,400.17390251200004,4.0,phase_2,go,450.0,300.0,1.0,,,,,,,,,blue,flipped triangle
0.0,2.0,1.0,1,5.0,5.0,317.103147507,4.0,phase_2,stop,500.0,300.0,3.0,,,,,,,,,magenta,square
0.0,4.0,4.0,0,6.0,6.0,351.071119308,4.0,phase_2,go,500.0,300.0,1.0,,,,,,,,,white,cross
0.0,7.0,2.0,1,5.0,5.0,251.03616714499998,4.0,phase_2,go,500.0,300.0,1.0,,,,,,,,,orange,diamond
0.0,5.0,0.5,1,5.0,5.0,367.800951004,4.0,phase_2,stop,450.0,300.0,3.0,,,,,,,,,yellow,hexagon
0.0,4.0,4.0,0,5.0,5.0,551.211118698,4.0,phase_2,go,450.0,300.0,1.0,,,,,,,,,white,cross
0.0,7.0,2.0,1,5.0,5.0,350.71086883500004,4.0,phase_2,stop,400.0,300.0,3.0,,,,,,,,,orange,diamond
0.0,1.0,0.5,0,6.0,6.0,584.362030029,4.0,phase_2,go,400.0,300.0,1.0,,,,,,,,,cyan,circle
0.0,6.0,1.0,0,6.0,6.0,384.444952011,5.0,phase_2,go,400.0,300.0,1.0,,,,,,,,,gray,triangle
0.0,7.0,2.0,1,5.0,5.0,283.871889114,5.0,phase_2,stop,350.0,300.0,3.0,,,,,,,,,orange,diamond
0.0,6.0,1.0,0,5.0,5.0,384.71603393600003,5.0,phase_2,go,350.0,300.0,1.0,,,,,,,,,gray,triangle
0.0,2.0,1.0,1,6.0,0.0,,5.0,phase_2,stop,350.0,250.0,4.0,,,,,,,,,magenta,square
0.0,1.0,0.5,0,5.0,5.0,567.775964737,5.0,phase_2,go,350.0,250.0,1.0,,,,,,,,,cyan,circle
0.0,8.0,4.0,1,5.0,5.0,450.606107712,5.0,phase_2,stop,300.0,250.0,3.0,,,,,,,,,green,line
0.0,8.0,4.0,1,6.0,6.0,450.695991516,5.0,phase_2,go,300.0,250.0,1.0,,,,,,,,,green,line
0.0,8.0,4.0,1,5.0,0.0,,5.0,phase_2,stop,250.0,250.0,4.0,,,,,,,,,green,line
0.0,7.0,2.0,1,6.0,0.0,,5.0,phase_2,stop,250.0,300.0,4.0,,,,,,,,,orange,diamond
0.0,1.0,0.5,0,5.0,5.0,534.3730449679999,5.0,phase_2,go,250.0,300.0,1.0,,,,,,,,,cyan,circle
0.0,5.0,0.5,1,5.0,5.0,600.6851196289999,5.0,phase_2,go,250.0,300.0,1.0,,,,,,,,,yellow,hexagon
0.0,2.0,1.0,1,6.0,0.0,,5.0,phase_2,stop,250.0,350.0,4.0,,,,,,,,,magenta,square
0.0,4.0,4.0,0,5.0,5.0,734.797000885,5.0,phase_2,go,250.0,350.0,1.0,,,,,,,,,white,cross
0.0,1.0,0.5,0,6.0,6.0,767.9069042210001,5.0,phase_2,go,250.0,350.0,1.0,,,,,,,,,cyan,circle
0.0,2.0,1.0,1,5.0,0.0,,5.0,phase_2,stop,300.0,350.0,4.0,,,,,,,,,magenta,square
0.0,4.0,4.0,0,6.0,6.0,601.164102554,5.0,phase_2,go,300.0,350.0,1.0,,,,,,,,,white,cross
0.0,4.0,4.0,0,6.0,6.0,567.646026611,5.0,phase_2,go,300.0,350.0,1.0,,,,,,,,,white,cross
0.0,2.0,1.0,1,5.0,5.0,434.15307998699996,5.0,phase_2,go,300.0,350.0,1.0,,,,,,,,,magenta,square
0.0,7.0,2.0,1,5.0,5.0,417.46687889099996,5.0,phase_2,stop,350.0,350.0,3.0,,,,,,,,,orange,diamond
0.0,4.0,4.0,0,6.0,6.0,417.67501831100003,5.0,phase_2,go,350.0,350.0,1.0,,,,,,,,,white,cross
0.0,2.0,1.0,1,6.0,6.0,383.987188339,5.0,phase_2,stop,350.0,400.0,3.0,,,,,,,,,magenta,square
0.0,4.0,4.0,0,5.0,5.0,400.820970535,5.0,phase_2,go,350.0,400.0,1.0,,,,,,,,,white,cross
0.0,4.0,4.0,0,6.0,6.0,433.6810112,5.0,phase_2,go,350.0,400.0,1.0,,,,,,,,,white,cross
0.0,1.0,0.5,0,5.0,5.0,534.122943878,5.0,phase_2,go,350.0,400.0,1.0,,,,,,,,,cyan,circle
0.0,2.0,1.0,1,6.0,6.0,517.457008362,5.0,phase_2,stop,350.0,350.0,3.0,,,,,,,,,magenta,square
0.0,3.0,2.0,0,5.0,5.0,634.565114975,5.0,phase_2,go,350.0,350.0,1.0,,,,,,,,,blue,flipped triangle
0.0,5.0,0.5,1,6.0,0.0,,5.0,phase_2,stop,350.0,300.0,4.0,,,,,,,,,yellow,hexagon
0.0,1.0,0.5,0,5.0,5.0,617.5401210780001,5.0,phase_2,go,350.0,300.0,1.0,,,,,,,,,cyan,circle
0.0,3.0,2.0,0,5.0,5.0,434.20290947,5.0,phase_2,go,350.0,300.0,1.0,,,,,,,,,blue,flipped triangle
0.0,6.0,1.0,0,5.0,5.0,384.20009613,5.0,phase_2,go,350.0,300.0,1.0,,,,,,,,,gray,triangle
0.0,7.0,2.0,1,6.0,6.0,416.625976562,5.0,phase_2,stop,350.0,350.0,3.0,,,,,,,,,orange,diamond
0.0,2.0,1.0,1,5.0,5.0,450.943946838,5.0,phase_2,stop,300.0,350.0,3.0,,,,,,,,,magenta,square
0.0,3.0,2.0,0,6.0,6.0,835.26802063,5.0,phase_2,go,300.0,350.0,1.0,,,,,,,,,blue,flipped triangle
0.0,4.0,4.0,0,6.0,6.0,534.1629981990001,5.0,phase_2,go,300.0,350.0,1.0,,,,,,,,,white,cross
0.0,7.0,2.0,1,6.0,0.0,,5.0,phase_2,stop,300.0,300.0,4.0,,,,,,,,,orange,diamond
0.0,4.0,4.0,0,6.0,6.0,600.842952728,5.0,phase_2,go,300.0,300.0,1.0,,,,,,,,,white,cross
0.0,5.0,0.5,1,5.0,5.0,316.93601608299997,6.0,phase_2,stop,250.0,300.0,3.0,,,,,,,,,yellow,hexagon
0.0,5.0,0.5,1,6.0,6.0,467.57602691700004,6.0,phase_2,go,250.0,300.0,1.0,,,,,,,,,yellow,hexagon
0.0,5.0,0.5,1,6.0,0.0,,6.0,phase_2,stop,250.0,350.0,4.0,,,,,,,,,yellow,hexagon
0.0,4.0,4.0,0,5.0,5.0,617.691993713,6.0,phase_2,go,250.0,350.0,1.0,,,,,,,,,white,cross
0.0,3.0,2.0,0,5.0,5.0,851.584196091,6.0,phase_2,go,250.0,350.0,1.0,,,,,,,,,blue,flipped triangle
0.0,7.0,2.0,1,6.0,6.0,400.650978088,6.0,phase_2,go,250.0,350.0,1.0,,,,,,,,,orange,diamond
0.0,8.0,4.0,1,5.0,5.0,300.336122513,6.0,phase_2,stop,200.0,350.0,3.0,,,,,,,,,green,line
0.0,8.0,4.0,1,5.0,5.0,467.463970184,6.0,phase_2,go,200.0,350.0,1.0,,,,,,,,,green,line
0.0,8.0,4.0,1,6.0,6.0,517.3518657679999,6.0,phase_2,stop,200.0,400.0,3.0,,,,,,,,,green,line
0.0,7.0,2.0,1,6.0,0.0,,6.0,phase_2,stop,200.0,350.0,4.0,,,,,,,,,orange,diamond
0.0,2.0,1.0,1,6.0,0.0,,6.0,phase_2,stop,200.0,400.0,4.0,,,,,,,,,magenta,square
0.0,4.0,4.0,0,6.0,6.0,684.511899948,6.0,phase_2,go,200.0,400.0,1.0,,,,,,,,,white,cross
0.0,8.0,4.0,1,5.0,0.0,,6.0,phase_2,stop,150.0,400.0,4.0,,,,,,,,,green,line
0.0,3.0,2.0,0,6.0,6.0,517.882108688,6.0,phase_2,go,150.0,400.0,1.0,,,,,,,,,blue,flipped triangle
0.0,5.0,0.5,1,5.0,0.0,,6.0,phase_2,stop,200.0,400.0,4.0,,,,,,,,,yellow,hexagon
0.0,4.0,4.0,0,5.0,5.0,651.300907135,6.0,phase_2,go,200.0,400.0,1.0,,,,,,,,,white,cross
0.0,7.0,2.0,1,6.0,0.0,,6.0,phase_2,stop,200.0,450.0,4.0,,,,,,,,,orange,diamond
0.0,6.0,1.0,0,6.0,6.0,617.752075195,6.0,phase_2,go,200.0,450.0,1.0,,,,,,,,,gray,triangle
0.0,2.0,1.0,1,6.0,6.0,667.3760414120001,6.0,phase_2,stop,200.0,500.0,3.0,,,,,,,,,magenta,square
0.0,6.0,1.0,0,6.0,6.0,784.637928009,6.0,phase_2,go,200.0,500.0,1.0,,,,,,,,,gray,triangle
0.0,7.0,2.0,1,5.0,5.0,800.981044769,6.0,phase_2,go,200.0,500.0,1.0,,,,,,,,,orange,diamond
0.0,4.0,4.0,0,6.0,6.0,350.694179535,6.0,phase_2,go,200.0,500.0,1.0,,,,,,,,,white,cross
0.0,6.0,1.0,0,5.0,5.0,601.0949611660001,6.0,phase_2,go,200.0,500.0,1.0,,,,,,,,,gray,triangle
0.0,8.0,4.0,1,6.0,6.0,434.294223785,6.0,phase_2,stop,200.0,450.0,3.0,,,,,,,,,green,line
0.0,5.0,0.5,1,5.0,0.0,,6.0,phase_2,stop,250.0,450.0,4.0,,,,,,,,,yellow,hexagon
0.0,4.0,4.0,0,5.0,5.0,735.224962234,6.0,phase_2,go,250.0,450.0,1.0,,,,,,,,,white,cross
0.0,4.0,4.0,0,6.0,6.0,750.777006149,6.0,phase_2,go,250.0,450.0,1.0,,,,,,,,,white,cross
0.0,4.0,4.0,0,5.0,5.0,884.530067444,6.0,phase_2,go,250.0,450.0,1.0,,,,,,,,,white,cross
0.0,2.0,1.0,1,5.0,5.0,433.607816696,6.0,phase_2,stop,300.0,450.0,3.0,,,,,,,,,magenta,square
0.0,6.0,1.0,0,6.0,6.0,634.719848633,6.0,phase_2,go,300.0,450.0,1.0,,,,,,,,,gray,triangle
0.0,1.0,0.5,0,5.0,5.0,401.28302574199995,6.0,phase_2,go,300.0,450.0,1.0,,,,,,,,,cyan,circle
0.0,8.0,4.0,1,5.0,5.0,667.656183243,6.0,phase_2,go,300.0,450.0,1.0,,,,,,,,,green,line
0.0,2.0,1.0,1,5.0,5.0,483.783960342,6.0,phase_2,stop,250.0,450.0,3.0,,,,,,,,,magenta,square
0.0,8.0,4.0,1,6.0,6.0,534.877061844,6.0,phase_2,go,250.0,450.0,1.0,,,,,,,,,green,line
0.0,5.0,0.5,1,5.0,0.0,,6.0,phase_2,stop,200.0,450.0,4.0,,,,,,,,,yellow,hexagon
0.0,6.0,1.0,0,6.0,6.0,584.676980972,6.0,phase_2,go,200.0,450.0,1.0,,,,,,,,,gray,triangle
0.0,2.0,1.0,1,6.0,6.0,350.979089737,7.0,phase_2,go,200.0,450.0,1.0,,,,,,,,,magenta,square
0.0,4.0,4.0,0,6.0,6.0,551.518917084,7.0,phase_2,go,200.0,450.0,1.0,,,,,,,,,white,cross
0.0,2.0,1.0,1,5.0,0.0,,7.0,phase_2,stop,250.0,450.0,4.0,,,,,,,,,magenta,square
0.0,3.0,2.0,0,5.0,5.0,684.543848038,7.0,phase_2,go,250.0,450.0,1.0,,,,,,,,,blue,flipped triangle
0.0,6.0,1.0,0,6.0,6.0,634.766101837,7.0,phase_2,go,250.0,450.0,1.0,,,,,,,,,gray,triangle
0.0,2.0,1.0,1,6.0,0.0,,7.0,phase_2,stop,250.0,400.0,4.0,,,,,,,,,magenta,square
0.0,7.0,2.0,1,6.0,0.0,,7.0,phase_2,stop,250.0,450.0,4.0,,,,,,,,,orange,diamond
0.0,8.0,4.0,1,6.0,6.0,650.8970260619999,7.0,phase_2,stop,250.0,500.0,3.0,,,,,,,,,green,line
0.0,4.0,4.0,0,6.0,6.0,784.4648361210001,7.0,phase_2,go,250.0,500.0,1.0,,,,,,,,,white,cross
0.0,8.0,4.0,1,5.0,0.0,,7.0,phase_2,stop,300.0,500.0,4.0,,,,,,,,,green,line
0.0,5.0,0.5,1,6.0,6.0,801.284074783,7.0,phase_2,go,300.0,500.0,1.0,,,,,,,,,yellow,hexagon
0.0,6.0,1.0,0,6.0,0.0,,7.0,phase_2,go,300.0,500.0,5.0,,,,,,,,,gray,triangle
0.0,3.0,2.0,0,5.0,5.0,784.698009491,7.0,phase_2,go,300.0,500.0,1.0,,,,,,,,,blue,flipped triangle
0.0,2.0,1.0,1,5.0,0.0,,7.0,phase_2,stop,350.0,500.0,4.0,,,,,,,,,magenta,square
0.0,1.0,0.5,0,5.0,5.0,817.6960945129999,7.0,phase_2,go,350.0,500.0,1.0,,,,,,,,,cyan,circle
0.0,2.0,1.0,1,5.0,0.0,,7.0,phase_2,stop,400.0,500.0,4.0,,,,,,,,,magenta,square
0.0,4.0,4.0,0,5.0,5.0,867.840051651,7.0,phase_2,go,400.0,500.0,1.0,,,,,,,,,white,cross
0.0,1.0,0.5,0,6.0,6.0,918.140888214,7.0,phase_2,go,400.0,500.0,1.0,,,,,,,,,cyan,circle
0.0,3.0,2.0,0,5.0,5.0,617.623090744,7.0,phase_2,go,400.0,500.0,1.0,,,,,,,,,blue,flipped triangle
0.0,8.0,4.0,1,5.0,5.0,350.791931152,7.0,phase_2,stop,450.0,500.0,3.0,,,,,,,,,green,line
0.0,3.0,2.0,0,6.0,0.0,,7.0,phase_2,go,450.0,500.0,5.0,,,,,,,,,blue,flipped triangle
0.0,8.0,4.0,1,5.0,0.0,,7.0,phase_2,stop,400.0,500.0,4.0,,,,,,,,,green,line
0.0,4.0,4.0,0,6.0,6.0,684.527873993,7.0,phase_2,go,400.0,500.0,1.0,,,,,,,,,white,cross
0.0,3.0,2.0,0,5.0,5.0,667.264938354,7.0,phase_2,go,400.0,500.0,1.0,,,,,,,,,blue,flipped triangle
0.0,5.0,0.5,1,6.0,6.0,467.27013588,7.0,phase_2,stop,400.0,450.0,3.0,,,,,,,,,yellow,hexagon
0.0,6.0,1.0,0,6.0,6.0,617.878198624,7.0,phase_2,go,400.0,450.0,1.0,,,,,,,,,gray,triangle
0.0,2.0,1.0,1,6.0,6.0,450.814962387,7.0,phase_2,go,400.0,450.0,1.0,,,,,,,,,magenta,square
0.0,5.0,0.5,1,6.0,0.0,,7.0,phase_2,stop,400.0,400.0,4.0,,,,,,,,,yellow,hexagon
0.0,3.0,2.0,0,5.0,5.0,717.540979385,7.0,phase_2,go,400.0,400.0,1.0,,,,,,,,,blue,flipped triangle
0.0,1.0,0.5,0,6.0,6.0,667.6020622249999,7.0,phase_2,go,400.0,400.0,1.0,,,,,,,,,cyan,circle
0.0,3.0,2.0,0,5.0,5.0,617.300987244,7.0,phase_2,go,400.0,400.0,1.0,,,,,,,,,blue,flipped triangle
0.0,5.0,0.5,1,5.0,5.0,500.944852829,7.0,phase_2,stop,450.0,400.0,3.0,,,,,,,,,yellow,hexagon
0.0,7.0,2.0,1,5.0,5.0,951.441049576,7.0,phase_2,go,450.0,400.0,1.0,,,,,,,,,orange,diamond
0.0,3.0,2.0,0,5.0,5.0,567.744970322,7.0,phase_2,go,450.0,400.0,1.0,,,,,,,,,blue,flipped triangle
0.0,1.0,0.5,0,5.0,5.0,550.8520603180001,7.0,phase_2,go,450.0,400.0,1.0,,,,,,,,,cyan,circle
0.0,2.0,1.0,1,6.0,6.0,567.325115204,7.0,phase_2,stop,450.0,450.0,3.0,,,,,,,,,magenta,square
0.0,4.0,4.0,0,6.0,6.0,333.970069885,8.0,phase_2,go,450.0,450.0,1.0,,,,,,,,,white,cross
0.0,1.0,0.5,0,5.0,5.0,267.211914062,8.0,phase_2,go,450.0,450.0,1.0,,,,,,,,,cyan,circle
0.0,1.0,0.5,0,5.0,5.0,384.17506218000005,8.0,phase_2,go,450.0,450.0,1.0,,,,,,,,,cyan,circle
0.0,3.0,2.0,0,6.0,6.0,450.938940048,8.0,phase_2,go,450.0,450.0,1.0,,,,,,,,,blue,flipped triangle
0.0,6.0,1.0,0,6.0,6.0,433.799982071,8.0,phase_2,go,450.0,450.0,1.0,,,,,,,,,gray,triangle
0.0,8.0,4.0,1,5.0,5.0,384.42492485,8.0,phase_2,go,450.0,450.0,1.0,,,,,,,,,green,line
0.0,4.0,4.0,0,5.0,5.0,483.779191971,8.0,phase_2,go,450.0,450.0,1.0,,,,,,,,,white,cross
0.0,3.0,2.0,0,6.0,6.0,584.535837173,8.0,phase_2,go,450.0,450.0,1.0,,,,,,,,,blue,flipped triangle
0.0,3.0,2.0,0,6.0,6.0,400.791883469,8.0,phase_2,go,450.0,450.0,1.0,,,,,,,,,blue,flipped triangle
0.0,6.0,1.0,0,6.0,6.0,417.740106583,8.0,phase_2,go,450.0,450.0,1.0,,,,,,,,,gray,triangle
0.0,1.0,0.5,0,6.0,6.0,518.003940582,8.0,phase_2,go,450.0,450.0,1.0,,,,,,,,,cyan,circle
0.0,8.0,4.0,1,5.0,5.0,534.123897552,8.0,phase_2,stop,400.0,450.0,3.0,,,,,,,,,green,line
0.0,5.0,0.5,1,5.0,0.0,,8.0,phase_2,stop,350.0,450.0,4.0,,,,,,,,,yellow,hexagon
0.0,8.0,4.0,1,6.0,0.0,,8.0,phase_2,stop,350.0,400.0,4.0,,,,,,,,,green,line
0.0,8.0,4.0,1,6.0,0.0,,8.0,phase_2,stop,350.0,450.0,4.0,,,,,,,,,green,line
0.0,3.0,2.0,0,6.0,6.0,667.88315773,8.0,phase_2,go,350.0,450.0,1.0,,,,,,,,,blue,flipped triangle
0.0,7.0,2.0,1,5.0,0.0,,8.0,phase_2,stop,400.0,450.0,4.0,,,,,,,,,orange,diamond
0.0,1.0,0.5,0,5.0,5.0,951.428890228,8.0,phase_2,go,400.0,450.0,1.0,,,,,,,,,cyan,circle
0.0,8.0,4.0,1,5.0,0.0,,8.0,phase_2,stop,450.0,450.0,4.0,,,,,,,,,green,line
0.0,4.0,4.0,0,5.0,5.0,717.745065689,8.0,phase_2,go,450.0,450.0,1.0,,,,,,,,,white,cross
0.0,7.0,2.0,1,5.0,5.0,801.352977753,8.0,phase_2,go,450.0,450.0,1.0,,,,,,,,,orange,diamond
0.0,7.0,2.0,1,5.0,5.0,601.06420517,8.0,phase_2,stop,500.0,450.0,3.0,,,,,,,,,orange,diamond
0.0,5.0,0.5,1,5.0,0.0,,8.0,phase_2,stop,450.0,450.0,4.0,,,,,,,,,yellow,hexagon
0.0,4.0,4.0,0,5.0,5.0,801.1100292210001,8.0,phase_2,go,450.0,450.0,1.0,,,,,,,,,white,cross
0.0,5.0,0.5,1,6.0,6.0,484.437942505,8.0,phase_2,stop,450.0,500.0,3.0,,,,,,,,,yellow,hexagon
0.0,6.0,1.0,0,6.0,6.0,584.915161133,8.0,phase_2,go,450.0,500.0,1.0,,,,,,,,,gray,triangle
0.0,4.0,4.0,0,6.0,6.0,534.8289012910001,8.0,phase_2,go,450.0,500.0,1.0,,,,,,,,,white,cross
0.0,1.0,0.5,0,6.0,6.0,417.336940765,8.0,phase_2,go,450.0,500.0,1.0,,,,,,,,,cyan,circle
0.0,5.0,0.5,1,6.0,6.0,434.53192710900004,8.0,phase_2,stop,450.0,450.0,3.0,,,,,,,,,yellow,hexagon
0.0,7.0,2.0,1,5.0,5.0,617.734909058,8.0,phase_2,go,450.0,450.0,1.0,,,,,,,,,orange,diamond
0.0,3.0,2.0,0,5.0,5.0,701.192140579,8.0,phase_2,go,450.0,450.0,1.0,,,,,,,,,blue,flipped triangle
0.0,6.0,1.0,0,6.0,6.0,467.269897461,8.0,phase_2,go,450.0,450.0,1.0,,,,,,,,,gray,triangle
0.0,1.0,0.5,0,5.0,5.0,367.37012863200005,8.0,phase_2,go,450.0,450.0,1.0,,,,,,,,,cyan,circle
0.0,3.0,2.0,0,6.0,6.0,416.955947876,8.0,phase_2,go,450.0,450.0,1.0,,,,,,,,,blue,flipped triangle
0.0,6.0,1.0,0,6.0,6.0,534.281015396,8.0,phase_2,go,450.0,450.0,1.0,,,,,,,,,gray,triangle
0.0,6.0,1.0,0,5.0,5.0,467.726945877,8.0,phase_2,go,450.0,450.0,1.0,,,,,,,,,gray,triangle
0.0,1.0,0.5,0,7.0,,,1.0,phase_3,,,,,0.0,,102.0,136.0,204.0,34.0,68.0,170.0,cyan,circle
0.0,8.0,4.0,1,7.0,2.0,1668.54596138,1.0,phase_3,,,,,220.0,5.0,176.0,220.0,88.0,264.0,44.0,132.0,green,line
0.0,6.0,1.0,0,7.0,6.0,2920.11594772,1.0,phase_3,,,,,147.0,3.0,196.0,294.0,98.0,245.0,49.0,147.0,gray,triangle
0.0,3.0,2.0,0,7.0,2.0,2986.63806915,1.0,phase_3,,,,,78.0,2.0,39.0,78.0,195.0,156.0,117.0,234.0,blue,flipped triangle
0.0,4.0,4.0,0,7.0,5.0,1484.34305191,1.0,phase_3,,,,,162.0,3.0,270.0,216.0,54.0,324.0,162.0,108.0,white,cross
0.0,5.0,0.5,1,7.0,4.0,2036.16118431,1.0,phase_3,,,,,136.0,4.0,204.0,68.0,34.0,136.0,170.0,102.0,yellow,hexagon
0.0,3.0,2.0,0,7.0,2.0,2002.3019313799998,1.0,phase_3,,,,,54.0,1.0,270.0,54.0,162.0,216.0,324.0,108.0,blue,flipped triangle
0.0,3.0,2.0,0,7.0,1.0,1601.88817978,1.0,phase_3,,,,,68.0,2.0,68.0,34.0,136.0,204.0,102.0,170.0,blue,flipped triangle
0.0,5.0,0.5,1,7.0,6.0,1818.69506836,1.0,phase_3,,,,,136.0,4.0,34.0,204.0,102.0,68.0,170.0,136.0,yellow,hexagon
0.0,4.0,4.0,0,7.0,1.0,1869.0969944,1.0,phase_3,,,,,234.0,6.0,234.0,117.0,39.0,78.0,195.0,156.0,white,cross
0.0,8.0,4.0,1,7.0,5.0,1401.0150432599999,1.0,phase_3,,,,,39.0,1.0,156.0,195.0,78.0,117.0,39.0,234.0,green,line
0.0,1.0,0.5,0,7.0,3.0,1451.2870311699999,1.0,phase_3,,,,,117.0,3.0,39.0,156.0,117.0,195.0,78.0,234.0,cyan,circle
0.0,6.0,1.0,0,7.0,5.0,1001.59597397,1.0,phase_3,,,,,220.0,5.0,44.0,176.0,264.0,132.0,220.0,88.0,gray,triangle
0.0,6.0,1.0,0,7.0,1.0,667.668104172,1.0,phase_3,,,,,156.0,4.0,156.0,39.0,117.0,234.0,195.0,78.0,gray,triangle
0.0,2.0,1.0,1,7.0,5.0,183.799028397,1.0,phase_3,,,,,102.0,3.0,34.0,170.0,68.0,204.0,102.0,136.0,magenta,square
0.0,3.0,2.0,0,7.0,2.0,450.148105621,1.0,phase_3,,,,,98.0,2.0,245.0,98.0,294.0,147.0,196.0,49.0,blue,flipped triangle
0.0,8.0,4.0,1,7.0,4.0,166.929006577,1.0,phase_3,,,,,270.0,5.0,162.0,324.0,216.0,270.0,54.0,108.0,green,line
0.0,4.0,4.0,0,7.0,6.0,333.759069443,1.0,phase_3,,,,,216.0,4.0,324.0,108.0,54.0,270.0,162.0,216.0,white,cross
0.0,2.0,1.0,1,7.0,1.0,333.313941956,1.0,phase_3,,,,,270.0,5.0,270.0,54.0,216.0,108.0,162.0,324.0,magenta,square
0.0,1.0,0.5,0,7.0,3.0,1117.99001694,1.0,phase_3,,,,,196.0,4.0,294.0,245.0,196.0,98.0,49.0,147.0,cyan,circle
0.0,6.0,1.0,0,7.0,1.0,501.09195709200003,2.0,phase_3,,,,,204.0,6.0,204.0,34.0,68.0,136.0,102.0,170.0,gray,triangle
0.0,3.0,2.0,0,7.0,5.0,217.330932617,2.0,phase_3,,,,,102.0,3.0,136.0,204.0,68.0,170.0,102.0,34.0,blue,flipped triangle
0.0,7.0,2.0,1,7.0,3.0,467.320919037,2.0,phase_3,,,,,170.0,5.0,102.0,68.0,170.0,204.0,136.0,34.0,orange,diamond
0.0,6.0,1.0,0,7.0,4.0,400.961875916,2.0,phase_3,,,,,245.0,5.0,147.0,294.0,196.0,245.0,98.0,49.0,gray,triangle
0.0,5.0,0.5,1,7.0,1.0,150.397062302,2.0,phase_3,,,,,216.0,4.0,216.0,324.0,54.0,108.0,270.0,162.0,yellow,hexagon
0.0,8.0,4.0,1,7.0,5.0,166.602134705,2.0,phase_3,,,,,49.0,1.0,196.0,147.0,245.0,294.0,49.0,98.0,green,line
0.0,8.0,4.0,1,7.0,3.0,1201.25389099,2.0,phase_3,,,,,98.0,2.0,196.0,49.0,98.0,294.0,245.0,147.0,green,line
0.0,7.0,2.0,1,7.0,5.0,2269.48285103,2.0,phase_3,,,,,264.0,6.0,176.0,132.0,220.0,88.0,264.0,44.0,orange,diamond
0.0,6.0,1.0,0,7.0,1.0,684.1819286350001,2.0,phase_3,,,,,220.0,5.0,220.0,88.0,132.0,44.0,176.0,264.0,gray,triangle
0.0,7.0,2.0,1,7.0,3.0,767.498016357,2.0,phase_3,,,,,294.0,6.0,245.0,147.0,294.0,98.0,49.0,196.0,orange,diamond
0.0,3.0,2.0,0,7.0,1.0,617.588043213,2.0,phase_3,,,,,264.0,6.0,264.0,132.0,44.0,176.0,220.0,88.0,blue,flipped triangle
0.0,4.0,4.0,0,7.0,3.0,917.9201126099999,2.0,phase_3,,,,,234.0,6.0,39.0,195.0,234.0,117.0,156.0,78.0,white,cross
0.0,4.0,4.0,0,7.0,4.0,2118.92604828,2.0,phase_3,,,,,68.0,2.0,136.0,102.0,170.0,68.0,34.0,204.0,white,cross
0.0,2.0,1.0,1,7.0,1.0,1885.4560852099999,2.0,phase_3,,,,,88.0,2.0,88.0,264.0,132.0,176.0,220.0,44.0,magenta,square
0.0,6.0,1.0,0,7.0,5.0,3721.06289864,2.0,phase_3,,,,,102.0,3.0,136.0,170.0,34.0,68.0,102.0,204.0,gray,triangle
0.0,3.0,2.0,0,7.0,2.0,2485.91113091,2.0,phase_3,,,,,270.0,5.0,108.0,270.0,162.0,216.0,324.0,54.0,blue,flipped triangle
0.0,8.0,4.0,1,7.0,4.0,1334.78808403,2.0,phase_3,,,,,264.0,6.0,176.0,88.0,220.0,264.0,44.0,132.0,green,line
0.0,1.0,0.5,0,7.0,2.0,2269.6051597600003,2.0,phase_3,,,,,216.0,4.0,270.0,216.0,162.0,54.0,324.0,108.0,cyan,circle
0.0,7.0,2.0,1,7.0,5.0,3020.4179287,2.0,phase_3,,,,,98.0,2.0,49.0,245.0,294.0,196.0,98.0,147.0,orange,diamond
0.0,2.0,1.0,1,7.0,5.0,1251.71899796,2.0,phase_3,,,,,220.0,5.0,176.0,132.0,44.0,264.0,220.0,88.0,magenta,square
0.0,4.0,4.0,0,7.0,2.0,401.22604370100004,3.0,phase_3,,,,,44.0,1.0,220.0,44.0,176.0,132.0,88.0,264.0,white,cross
0.0,5.0,0.5,1,7.0,3.0,734.462976456,3.0,phase_3,,,,,156.0,4.0,195.0,117.0,156.0,234.0,78.0,39.0,yellow,hexagon
0.0,4.0,4.0,0,7.0,1.0,567.124128342,3.0,phase_3,,,,,34.0,1.0,34.0,136.0,102.0,68.0,170.0,204.0,white,cross
0.0,1.0,0.5,0,7.0,3.0,1217.43679047,3.0,phase_3,,,,,68.0,2.0,34.0,102.0,68.0,204.0,136.0,170.0,cyan,circle
0.0,5.0,0.5,1,7.0,2.0,1000.78511238,3.0,phase_3,,,,,49.0,1.0,196.0,49.0,294.0,245.0,147.0,98.0,yellow,hexagon
0.0,8.0,4.0,1,7.0,3.0,1185.090065,3.0,phase_3,,,,,39.0,1.0,156.0,234.0,39.0,78.0,195.0,117.0,green,line
0.0,1.0,0.5,0,7.0,3.0,1118.1049346900002,3.0,phase_3,,,,,78.0,2.0,39.0,234.0,78.0,156.0,117.0,195.0,cyan,circle
0.0,1.0,0.5,0,7.0,5.0,1301.6731739,3.0,phase_3,,,,,44.0,1.0,220.0,264.0,176.0,88.0,44.0,132.0,cyan,circle
0.0,4.0,4.0,0,7.0,2.0,850.9969711299999,3.0,phase_3,,,,,88.0,2.0,44.0,88.0,264.0,132.0,176.0,220.0,white,cross
0.0,4.0,4.0,0,7.0,3.0,400.274991989,3.0,phase_3,,,,,196.0,4.0,294.0,147.0,196.0,49.0,98.0,245.0,white,cross
0.0,2.0,1.0,1,7.0,6.0,333.611965179,3.0,phase_3,,,,,117.0,3.0,156.0,78.0,234.0,39.0,195.0,117.0,magenta,square
0.0,1.0,0.5,0,7.0,1.0,350.389957428,3.0,phase_3,,,,,162.0,3.0,162.0,108.0,216.0,54.0,324.0,270.0,cyan,circle
0.0,5.0,0.5,1,7.0,2.0,651.1211395260001,3.0,phase_3,,,,,324.0,6.0,108.0,324.0,270.0,162.0,54.0,216.0,yellow,hexagon
0.0,5.0,0.5,1,7.0,2.0,200.922012329,3.0,phase_3,,,,,98.0,2.0,147.0,98.0,245.0,196.0,294.0,49.0,yellow,hexagon
0.0,7.0,2.0,1,7.0,4.0,200.313091278,3.0,phase_3,,,,,324.0,6.0,162.0,216.0,108.0,324.0,54.0,270.0,orange,diamond
0.0,1.0,0.5,0,7.0,6.0,484.0259552,3.0,phase_3,,,,,132.0,3.0,264.0,176.0,44.0,88.0,220.0,132.0,cyan,circle
0.0,7.0,2.0,1,7.0,3.0,183.923006058,3.0,phase_3,,,,,78.0,2.0,117.0,39.0,78.0,234.0,195.0,156.0,orange,diamond
0.0,6.0,1.0,0,7.0,1.0,250.313997269,3.0,phase_3,,,,,270.0,5.0,270.0,324.0,216.0,162.0,108.0,54.0,gray,triangle
0.0,4.0,4.0,0,7.0,6.0,317.35801696799996,3.0,phase_3,,,,,294.0,6.0,245.0,196.0,98.0,49.0,147.0,294.0,white,cross
0.0,5.0,0.5,1,7.0,3.0,934.69619751,3.0,phase_3,,,,,195.0,5.0,39.0,78.0,195.0,117.0,156.0,234.0,yellow,hexagon
0.0,2.0,1.0,1,7.0,1.0,400.79498291,4.0,phase_3,,,,,102.0,3.0,102.0,136.0,34.0,204.0,68.0,170.0,magenta,square
0.0,8.0,4.0,1,7.0,6.0,433.805942535,4.0,phase_3,,,,,324.0,6.0,270.0,54.0,162.0,216.0,108.0,324.0,green,line
0.0,7.0,2.0,1,7.0,2.0,617.4709796909999,4.0,phase_3,,,,,216.0,4.0,270.0,216.0,54.0,162.0,108.0,324.0,orange,diamond
0.0,2.0,1.0,1,7.0,5.0,417.594909668,4.0,phase_3,,,,,294.0,6.0,98.0,147.0,196.0,49.0,294.0,245.0,magenta,square
0.0,3.0,2.0,0,7.0,3.0,450.450897217,4.0,phase_3,,,,,176.0,4.0,88.0,220.0,176.0,44.0,264.0,132.0,blue,flipped triangle
0.0,6.0,1.0,0,7.0,3.0,317.143917084,4.0,phase_3,,,,,54.0,1.0,324.0,108.0,54.0,162.0,270.0,216.0,gray,triangle
0.0,8.0,4.0,1,7.0,1.0,450.92487335199996,4.0,phase_3,,,,,136.0,4.0,136.0,68.0,102.0,204.0,170.0,34.0,green,line
0.0,6.0,1.0,0,7.0,2.0,567.811965942,4.0,phase_3,,,,,117.0,3.0,195.0,117.0,78.0,156.0,39.0,234.0,gray,triangle
0.0,1.0,0.5,0,7.0,5.0,450.525045395,4.0,phase_3,,,,,196.0,4.0,147.0,245.0,294.0,49.0,196.0,98.0,cyan,circle
0.0,2.0,1.0,1,7.0,3.0,534.216165543,4.0,phase_3,,,,,54.0,1.0,270.0,162.0,54.0,216.0,108.0,324.0,magenta,square
0.0,2.0,1.0,1,7.0,1.0,366.791963577,4.0,phase_3,,,,,196.0,4.0,196.0,49.0,245.0,98.0,294.0,147.0,magenta,square
0.0,8.0,4.0,1,7.0,3.0,417.473077774,4.0,phase_3,,,,,68.0,2.0,204.0,170.0,68.0,102.0,136.0,34.0,green,line
0.0,3.0,2.0,0,7.0,5.0,566.648960114,4.0,phase_3,,,,,98.0,2.0,196.0,147.0,49.0,245.0,98.0,294.0,blue,flipped triangle
0.0,7.0,2.0,1,7.0,2.0,784.732103348,4.0,phase_3,,,,,68.0,2.0,102.0,68.0,204.0,136.0,170.0,34.0,orange,diamond
0.0,5.0,0.5,1,7.0,1.0,1117.97595024,4.0,phase_3,,,,,88.0,2.0,88.0,44.0,132.0,220.0,264.0,176.0,yellow,hexagon
0.0,2.0,1.0,1,7.0,5.0,1485.16178131,4.0,phase_3,,,,,78.0,2.0,39.0,117.0,195.0,156.0,78.0,234.0,magenta,square
0.0,7.0,2.0,1,7.0,5.0,1818.83692741,4.0,phase_3,,,,,88.0,2.0,264.0,44.0,132.0,176.0,88.0,220.0,orange,diamond
0.0,3.0,2.0,0,7.0,5.0,1735.42022705,4.0,phase_3,,,,,78.0,2.0,234.0,156.0,195.0,39.0,78.0,117.0,blue,flipped triangle
0.0,7.0,2.0,1,7.0,6.0,2502.64501572,4.0,phase_3,,,,,117.0,3.0,195.0,78.0,39.0,234.0,156.0,117.0,orange,diamond
0.0,5.0,0.5,1,7.0,5.0,2168.91789436,4.0,phase_3,,,,,264.0,6.0,44.0,220.0,176.0,132.0,264.0,88.0,yellow,hexagon
