raw_reward_magnitude,stim_reward,stepwise_reward_magnitude,paired_with_stopping,stim_location,response,reaction_time,block,which_phase,stop_signal_trial_type,left_SSD,right_SSD,accuracy,chosen_bidding_amount,chosen_bidding_level,possible_bid_1,possible_bid_2,possible_bid_3,possible_bid_4,possible_bid_5,possible_bid_6,color_text,shape_text
98.0,2.0,2.0,1,3.0,3.0,534.497976303,1.0,phase_1,,,,,,,,,,,,,gray,diamond
52.0,1.0,1.0,0,2.0,2.0,433.884143829,1.0,phase_1,,,,,,,,,,,,,magenta,triangle
87.0,6.0,2.0,0,3.0,3.0,500.746965408,1.0,phase_1,,,,,,,,,,,,,green,cross
376.0,4.0,4.0,1,3.0,3.0,450.967073441,1.0,phase_1,,,,,,,,,,,,,yellow,line
117.0,2.0,2.0,1,3.0,3.0,401.045084,1.0,phase_1,,,,,,,,,,,,,gray,diamond
410.0,8.0,4.0,0,1.0,1.0,450.90484619100005,1.0,phase_1,,,,,,,,,,,,,blue,flipped triangle
399.0,4.0,4.0,1,4.0,4.0,401.087999344,1.0,phase_1,,,,,,,,,,,,,yellow,line
0.0,3.0,0.0,0,4.0,4.0,617.370128632,1.0,phase_1,,,,,,,,,,,,,cyan,circle
58.0,1.0,1.0,0,3.0,3.0,501.511096954,1.0,phase_1,,,,,,,,,,,,,magenta,triangle
415.0,8.0,4.0,0,1.0,1.0,367.637872696,1.0,phase_1,,,,,,,,,,,,,blue,flipped triangle
109.0,2.0,2.0,1,2.0,2.0,434.448957443,1.0,phase_1,,,,,,,,,,,,,gray,diamond
36.0,5.0,1.0,1,1.0,1.0,401.220798492,1.0,phase_1,,,,,,,,,,,,,orange,hexagon
0.0,3.0,0.0,0,1.0,1.0,417.171955109,1.0,phase_1,,,,,,,,,,,,,cyan,circle
49.0,5.0,1.0,1,3.0,3.0,500.644922256,1.0,phase_1,,,,,,,,,,,,,orange,hexagon
404.0,8.0,4.0,0,1.0,1.0,384.579896927,1.0,phase_1,,,,,,,,,,,,,blue,flipped triangle
0.0,6.0,0.0,0,1.0,1.0,601.541996002,1.0,phase_1,,,,,,,,,,,,,green,cross
30.0,5.0,1.0,1,3.0,3.0,384.514093399,1.0,phase_1,,,,,,,,,,,,,orange,hexagon
77.0,6.0,2.0,0,3.0,3.0,417.226076126,1.0,phase_1,,,,,,,,,,,,,green,cross
385.0,8.0,4.0,0,4.0,4.0,368.017911911,1.0,phase_1,,,,,,,,,,,,,blue,flipped triangle
66.0,5.0,1.0,1,1.0,1.0,384.45305824300004,1.0,phase_1,,,,,,,,,,,,,orange,hexagon
377.0,8.0,4.0,0,1.0,1.0,383.994102478,1.0,phase_1,,,,,,,,,,,,,blue,flipped triangle
37.0,5.0,1.0,1,4.0,4.0,400.719881058,1.0,phase_1,,,,,,,,,,,,,orange,hexagon
208.0,3.0,3.0,0,4.0,4.0,417.572021484,1.0,phase_1,,,,,,,,,,,,,cyan,circle
0.0,6.0,0.0,0,2.0,2.0,367.110967636,1.0,phase_1,,,,,,,,,,,,,green,cross
410.0,8.0,4.0,0,1.0,1.0,384.61494445799997,1.0,phase_1,,,,,,,,,,,,,blue,flipped triangle
72.0,5.0,1.0,1,1.0,1.0,350.67701339700005,1.0,phase_1,,,,,,,,,,,,,orange,hexagon
0.0,2.0,0.0,1,2.0,2.0,417.619943619,1.0,phase_1,,,,,,,,,,,,,gray,diamond
110.0,6.0,2.0,0,3.0,3.0,484.347105026,1.0,phase_1,,,,,,,,,,,,,green,cross
398.0,4.0,4.0,1,1.0,1.0,334.030866623,1.0,phase_1,,,,,,,,,,,,,yellow,line
29.0,1.0,1.0,0,3.0,3.0,467.326879501,1.0,phase_1,,,,,,,,,,,,,magenta,triangle
0.0,6.0,0.0,0,2.0,2.0,367.92397499099997,1.0,phase_1,,,,,,,,,,,,,green,cross
117.0,2.0,2.0,1,3.0,3.0,517.590999603,1.0,phase_1,,,,,,,,,,,,,gray,diamond
423.0,4.0,4.0,1,1.0,1.0,383.751869202,1.0,phase_1,,,,,,,,,,,,,yellow,line
0.0,8.0,0.0,0,4.0,4.0,384.32788848900003,1.0,phase_1,,,,,,,,,,,,,blue,flipped triangle
381.0,4.0,4.0,1,1.0,1.0,450.864076614,1.0,phase_1,,,,,,,,,,,,,yellow,line
0.0,4.0,0.0,1,3.0,3.0,584.100008011,1.0,phase_1,,,,,,,,,,,,,yellow,line
404.0,4.0,4.0,1,1.0,1.0,417.896986008,1.0,phase_1,,,,,,,,,,,,,yellow,line
397.0,8.0,4.0,0,3.0,3.0,601.155996323,1.0,phase_1,,,,,,,,,,,,,blue,flipped triangle
207.0,3.0,3.0,0,4.0,4.0,534.294843674,1.0,phase_1,,,,,,,,,,,,,cyan,circle
100.0,6.0,2.0,0,3.0,3.0,384.184837341,1.0,phase_1,,,,,,,,,,,,,green,cross
55.0,1.0,1.0,0,2.0,2.0,668.028116226,1.0,phase_1,,,,,,,,,,,,,magenta,triangle
119.0,2.0,2.0,1,4.0,4.0,401.061058044,1.0,phase_1,,,,,,,,,,,,,gray,diamond
65.0,1.0,1.0,0,3.0,3.0,400.933027267,1.0,phase_1,,,,,,,,,,,,,magenta,triangle
0.0,7.0,0.0,1,1.0,1.0,334.10501480100004,1.0,phase_1,,,,,,,,,,,,,white,square
78.0,6.0,2.0,0,3.0,3.0,400.920152664,1.0,phase_1,,,,,,,,,,,,,green,cross
193.0,3.0,3.0,0,3.0,3.0,434.195995331,1.0,phase_1,,,,,,,,,,,,,cyan,circle
177.0,7.0,3.0,1,2.0,2.0,367.527008057,1.0,phase_1,,,,,,,,,,,,,white,square
0.0,8.0,0.0,0,3.0,3.0,417.52195358299997,1.0,phase_1,,,,,,,,,,,,,blue,flipped triangle
73.0,1.0,1.0,0,4.0,4.0,467.658042908,1.0,phase_1,,,,,,,,,,,,,magenta,triangle
0.0,2.0,0.0,1,4.0,4.0,483.752965927,1.0,phase_1,,,,,,,,,,,,,gray,diamond
179.0,7.0,3.0,1,4.0,4.0,450.56605339099997,1.0,phase_1,,,,,,,,,,,,,white,square
33.0,1.0,1.0,0,2.0,2.0,484.5058918,1.0,phase_1,,,,,,,,,,,,,magenta,triangle
382.0,4.0,4.0,1,1.0,1.0,383.85796546899996,1.0,phase_1,,,,,,,,,,,,,yellow,line
42.0,1.0,1.0,0,4.0,4.0,518.0480480189999,1.0,phase_1,,,,,,,,,,,,,magenta,triangle
191.0,7.0,3.0,1,4.0,4.0,434.56315994299996,1.0,phase_1,,,,,,,,,,,,,white,square
104.0,6.0,2.0,0,2.0,2.0,417.918920517,1.0,phase_1,,,,,,,,,,,,,green,cross
44.0,5.0,1.0,1,4.0,4.0,517.724990845,1.0,phase_1,,,,,,,,,,,,,orange,hexagon
176.0,7.0,3.0,1,3.0,3.0,417.57106781,1.0,phase_1,,,,,,,,,,,,,white,square
0.0,7.0,0.0,1,4.0,4.0,550.694942474,1.0,phase_1,,,,,,,,,,,,,white,square
55.0,5.0,1.0,1,3.0,3.0,433.583021164,1.0,phase_1,,,,,,,,,,,,,orange,hexagon
0.0,2.0,0.0,1,1.0,1.0,466.897010803,1.0,phase_1,,,,,,,,,,,,,gray,diamond
212.0,7.0,3.0,1,3.0,3.0,400.44593811,1.0,phase_1,,,,,,,,,,,,,white,square
207.0,7.0,3.0,1,3.0,3.0,367.829084396,1.0,phase_1,,,,,,,,,,,,,white,square
394.0,8.0,4.0,0,2.0,2.0,401.11899375900003,1.0,phase_1,,,,,,,,,,,,,blue,flipped triangle
106.0,2.0,2.0,1,1.0,1.0,417.19794273400004,1.0,phase_1,,,,,,,,,,,,,gray,diamond
54.0,5.0,1.0,1,3.0,3.0,400.368928909,1.0,phase_1,,,,,,,,,,,,,orange,hexagon
0.0,8.0,0.0,0,4.0,4.0,401.071071625,1.0,phase_1,,,,,,,,,,,,,blue,flipped triangle
384.0,8.0,4.0,0,4.0,4.0,367.555856705,1.0,phase_1,,,,,,,,,,,,,blue,flipped triangle
44.0,5.0,1.0,1,1.0,1.0,417.375087738,1.0,phase_1,,,,,,,,,,,,,orange,hexagon
55.0,1.0,1.0,0,4.0,4.0,417.963981628,1.0,phase_1,,,,,,,,,,,,,magenta,triangle
199.0,3.0,3.0,0,3.0,3.0,484.388113022,1.0,phase_1,,,,,,,,,,,,,cyan,circle
65.0,5.0,1.0,1,2.0,2.0,50.479888916,1.0,phase_1,,,,,,,,,,,,,orange,hexagon
378.0,8.0,4.0,0,2.0,2.0,384.525060654,1.0,phase_1,,,,,,,,,,,,,blue,flipped triangle
0.0,8.0,0.0,0,4.0,4.0,451.288938522,1.0,phase_1,,,,,,,,,,,,,blue,flipped triangle
100.0,6.0,2.0,0,2.0,2.0,434.698820114,1.0,phase_1,,,,,,,,,,,,,green,cross
48.0,5.0,1.0,1,1.0,1.0,367.254972458,1.0,phase_1,,,,,,,,,,,,,orange,hexagon
39.0,5.0,1.0,1,4.0,4.0,417.486190796,1.0,phase_1,,,,,,,,,,,,,orange,hexagon
0.0,7.0,0.0,1,2.0,2.0,350.790023804,1.0,phase_1,,,,,,,,,,,,,white,square
197.0,3.0,3.0,0,2.0,2.0,383.99887085,1.0,phase_1,,,,,,,,,,,,,cyan,circle
216.0,3.0,3.0,0,2.0,2.0,401.014089584,1.0,phase_1,,,,,,,,,,,,,cyan,circle
394.0,8.0,4.0,0,2.0,2.0,317.55399703999996,1.0,phase_1,,,,,,,,,,,,,blue,flipped triangle
216.0,3.0,3.0,0,2.0,2.0,351.06492042499997,1.0,phase_1,,,,,,,,,,,,,cyan,circle
382.0,8.0,4.0,0,3.0,3.0,534.364938736,1.0,phase_1,,,,,,,,,,,,,blue,flipped triangle
418.0,8.0,4.0,0,2.0,2.0,367.05493927,1.0,phase_1,,,,,,,,,,,,,blue,flipped triangle
408.0,4.0,4.0,1,2.0,2.0,367.367982864,1.0,phase_1,,,,,,,,,,,,,yellow,line
47.0,1.0,1.0,0,2.0,2.0,334.020137787,1.0,phase_1,,,,,,,,,,,,,magenta,triangle
26.0,1.0,1.0,0,2.0,2.0,334.69891548199996,1.0,phase_1,,,,,,,,,,,,,magenta,triangle
0.0,4.0,0.0,1,4.0,4.0,467.687129974,1.0,phase_1,,,,,,,,,,,,,yellow,line
214.0,3.0,3.0,0,2.0,2.0,367.488145828,1.0,phase_1,,,,,,,,,,,,,cyan,circle
60.0,1.0,1.0,0,1.0,1.0,434.606075287,1.0,phase_1,,,,,,,,,,,,,magenta,triangle
182.0,3.0,3.0,0,1.0,1.0,384.34290885900003,1.0,phase_1,,,,,,,,,,,,,cyan,circle
384.0,4.0,4.0,1,4.0,4.0,401.00193023699995,1.0,phase_1,,,,,,,,,,,,,yellow,line
80.0,2.0,2.0,1,4.0,4.0,400.863170624,1.0,phase_1,,,,,,,,,,,,,gray,diamond
0.0,8.0,0.0,0,2.0,2.0,367.247104645,1.0,phase_1,,,,,,,,,,,,,blue,flipped triangle
0.0,1.0,0.0,0,4.0,4.0,617.8789138789999,1.0,phase_1,,,,,,,,,,,,,magenta,triangle
386.0,4.0,4.0,1,2.0,2.0,384.429216385,1.0,phase_1,,,,,,,,,,,,,yellow,line
68.0,1.0,1.0,0,1.0,1.0,384.322881699,1.0,phase_1,,,,,,,,,,,,,magenta,triangle
118.0,6.0,2.0,0,1.0,1.0,484.30109024,1.0,phase_1,,,,,,,,,,,,,green,cross
175.0,3.0,3.0,0,1.0,1.0,417.40798950199996,1.0,phase_1,,,,,,,,,,,,,cyan,circle
82.0,2.0,2.0,1,4.0,4.0,417.526006699,1.0,phase_1,,,,,,,,,,,,,gray,diamond
212.0,7.0,3.0,1,1.0,1.0,667.87314415,2.0,phase_1,,,,,,,,,,,,,white,square
198.0,7.0,3.0,1,1.0,1.0,450.607061386,2.0,phase_1,,,,,,,,,,,,,white,square
181.0,3.0,3.0,0,4.0,4.0,534.610033035,2.0,phase_1,,,,,,,,,,,,,cyan,circle
407.0,8.0,4.0,0,2.0,2.0,384.385108948,2.0,phase_1,,,,,,,,,,,,,blue,flipped triangle
56.0,5.0,1.0,1,4.0,4.0,651.181936264,2.0,phase_1,,,,,,,,,,,,,orange,hexagon
115.0,6.0,2.0,0,3.0,3.0,384.333848953,2.0,phase_1,,,,,,,,,,,,,green,cross
222.0,7.0,3.0,1,2.0,2.0,384.66000556899996,2.0,phase_1,,,,,,,,,,,,,white,square
182.0,7.0,3.0,1,1.0,1.0,384.41300392200003,2.0,phase_1,,,,,,,,,,,,,white,square
194.0,7.0,3.0,1,1.0,1.0,417.577981949,2.0,phase_1,,,,,,,,,,,,,white,square
0.0,4.0,0.0,1,3.0,3.0,533.964157104,2.0,phase_1,,,,,,,,,,,,,yellow,line
100.0,6.0,2.0,0,2.0,2.0,401.00002288800005,2.0,phase_1,,,,,,,,,,,,,green,cross
0.0,2.0,0.0,1,2.0,2.0,383.792877197,2.0,phase_1,,,,,,,,,,,,,gray,diamond
100.0,6.0,2.0,0,4.0,4.0,567.9581165310001,2.0,phase_1,,,,,,,,,,,,,green,cross
58.0,1.0,1.0,0,3.0,3.0,434.398174286,2.0,phase_1,,,,,,,,,,,,,magenta,triangle
38.0,1.0,1.0,0,1.0,1.0,401.010990143,2.0,phase_1,,,,,,,,,,,,,magenta,triangle
87.0,2.0,2.0,1,4.0,4.0,433.959960938,2.0,phase_1,,,,,,,,,,,,,gray,diamond
57.0,1.0,1.0,0,2.0,2.0,333.704948425,2.0,phase_1,,,,,,,,,,,,,magenta,triangle
104.0,6.0,2.0,0,2.0,2.0,400.843858719,2.0,phase_1,,,,,,,,,,,,,green,cross
0.0,4.0,0.0,1,1.0,1.0,450.993061066,2.0,phase_1,,,,,,,,,,,,,yellow,line
423.0,8.0,4.0,0,2.0,2.0,351.348876953,2.0,phase_1,,,,,,,,,,,,,blue,flipped triangle
190.0,3.0,3.0,0,1.0,1.0,350.962162018,2.0,phase_1,,,,,,,,,,,,,cyan,circle
0.0,4.0,0.0,1,4.0,4.0,434.02290344200003,2.0,phase_1,,,,,,,,,,,,,yellow,line
0.0,2.0,0.0,1,4.0,4.0,450.848817825,2.0,phase_1,,,,,,,,,,,,,gray,diamond
79.0,2.0,2.0,1,2.0,2.0,434.645175934,2.0,phase_1,,,,,,,,,,,,,gray,diamond
102.0,2.0,2.0,1,3.0,3.0,384.44995880100004,2.0,phase_1,,,,,,,,,,,,,gray,diamond
32.0,1.0,1.0,0,2.0,2.0,367.20800399800004,2.0,phase_1,,,,,,,,,,,,,magenta,triangle
0.0,3.0,0.0,0,3.0,3.0,383.995056152,2.0,phase_1,,,,,,,,,,,,,cyan,circle
188.0,7.0,3.0,1,4.0,4.0,517.371892929,2.0,phase_1,,,,,,,,,,,,,white,square
394.0,4.0,4.0,1,3.0,3.0,401.158094406,2.0,phase_1,,,,,,,,,,,,,yellow,line
91.0,2.0,2.0,1,1.0,1.0,384.271144867,2.0,phase_1,,,,,,,,,,,,,gray,diamond
81.0,2.0,2.0,1,3.0,3.0,367.54798889200003,2.0,phase_1,,,,,,,,,,,,,gray,diamond
30.0,5.0,1.0,1,3.0,3.0,384.07611846900005,2.0,phase_1,,,,,,,,,,,,,orange,hexagon
209.0,3.0,3.0,0,2.0,2.0,351.035118103,2.0,phase_1,,,,,,,,,,,,,cyan,circle
224.0,7.0,3.0,1,2.0,2.0,400.49314498900003,2.0,phase_1,,,,,,,,,,,,,white,square
85.0,6.0,2.0,0,2.0,2.0,384.228944778,2.0,phase_1,,,,,,,,,,,,,green,cross
0.0,1.0,0.0,0,4.0,4.0,401.25298500099996,2.0,phase_1,,,,,,,,,,,,,magenta,triangle
0.0,6.0,0.0,0,3.0,3.0,367.177009583,2.0,phase_1,,,,,,,,,,,,,green,cross
75.0,2.0,2.0,1,2.0,2.0,400.860071182,2.0,phase_1,,,,,,,,,,,,,gray,diamond
0.0,1.0,0.0,0,2.0,2.0,317.8191185,2.0,phase_1,,,,,,,,,,,,,magenta,triangle
401.0,4.0,4.0,1,1.0,1.0,367.691040039,2.0,phase_1,,,,,,,,,,,,,yellow,line
409.0,8.0,4.0,0,4.0,4.0,334.69605445900004,2.0,phase_1,,,,,,,,,,,,,blue,flipped triangle
0.0,6.0,0.0,0,1.0,1.0,350.830078125,2.0,phase_1,,,,,,,,,,,,,green,cross
414.0,8.0,4.0,0,3.0,3.0,501.052856445,2.0,phase_1,,,,,,,,,,,,,blue,flipped triangle
29.0,5.0,1.0,1,3.0,3.0,451.328039169,2.0,phase_1,,,,,,,,,,,,,orange,hexagon
97.0,2.0,2.0,1,3.0,3.0,484.42196846,2.0,phase_1,,,,,,,,,,,,,gray,diamond
94.0,2.0,2.0,1,3.0,3.0,334.15985107399996,2.0,phase_1,,,,,,,,,,,,,gray,diamond
406.0,8.0,4.0,0,3.0,3.0,351.054906845,2.0,phase_1,,,,,,,,,,,,,blue,flipped triangle
67.0,5.0,1.0,1,3.0,3.0,334.203004837,2.0,phase_1,,,,,,,,,,,,,orange,hexagon
46.0,5.0,1.0,1,3.0,3.0,317.420005798,2.0,phase_1,,,,,,,,,,,,,orange,hexagon
30.0,5.0,1.0,1,3.0,3.0,334.139108658,2.0,phase_1,,,,,,,,,,,,,orange,hexagon
103.0,2.0,2.0,1,1.0,1.0,400.93111991899997,2.0,phase_1,,,,,,,,,,,,,gray,diamond
0.0,1.0,0.0,0,2.0,2.0,384.59706306500004,2.0,phase_1,,,,,,,,,,,,,magenta,triangle
0.0,1.0,0.0,0,1.0,1.0,384.798049927,2.0,phase_1,,,,,,,,,,,,,magenta,triangle
0.0,4.0,0.0,1,4.0,4.0,417.53911972000003,2.0,phase_1,,,,,,,,,,,,,yellow,line
0.0,6.0,0.0,0,1.0,1.0,367.39897728,2.0,phase_1,,,,,,,,,,,,,green,cross
88.0,2.0,2.0,1,1.0,1.0,384.821891785,2.0,phase_1,,,,,,,,,,,,,gray,diamond
405.0,8.0,4.0,0,4.0,4.0,567.739963531,2.0,phase_1,,,,,,,,,,,,,blue,flipped triangle
0.0,8.0,0.0,0,2.0,2.0,334.342002869,2.0,phase_1,,,,,,,,,,,,,blue,flipped triangle
185.0,3.0,3.0,0,1.0,1.0,317.92593002300003,2.0,phase_1,,,,,,,,,,,,,cyan,circle
0.0,4.0,0.0,1,1.0,1.0,350.68893432600004,2.0,phase_1,,,,,,,,,,,,,yellow,line
58.0,5.0,1.0,1,3.0,3.0,401.05700492899996,2.0,phase_1,,,,,,,,,,,,,orange,hexagon
399.0,8.0,4.0,0,4.0,4.0,384.567022324,2.0,phase_1,,,,,,,,,,,,,blue,flipped triangle
57.0,1.0,1.0,0,2.0,2.0,334.470033646,2.0,phase_1,,,,,,,,,,,,,magenta,triangle
0.0,2.0,0.0,1,3.0,3.0,383.740186691,2.0,phase_1,,,,,,,,,,,,,gray,diamond
0.0,1.0,0.0,0,3.0,3.0,351.416826248,2.0,phase_1,,,,,,,,,,,,,magenta,triangle
68.0,1.0,1.0,0,4.0,4.0,450.843095779,2.0,phase_1,,,,,,,,,,,,,magenta,triangle
420.0,8.0,4.0,0,2.0,2.0,467.349052429,2.0,phase_1,,,,,,,,,,,,,blue,flipped triangle
183.0,7.0,3.0,1,1.0,1.0,384.640932083,2.0,phase_1,,,,,,,,,,,,,white,square
201.0,7.0,3.0,1,3.0,3.0,434.226036072,2.0,phase_1,,,,,,,,,,,,,white,square
97.0,2.0,2.0,1,2.0,2.0,467.42010116600005,2.0,phase_1,,,,,,,,,,,,,gray,diamond
114.0,6.0,2.0,0,2.0,2.0,384.02915000900003,2.0,phase_1,,,,,,,,,,,,,green,cross
197.0,3.0,3.0,0,1.0,1.0,434.01789665200005,2.0,phase_1,,,,,,,,,,,,,cyan,circle
182.0,3.0,3.0,0,1.0,1.0,317.954063416,2.0,phase_1,,,,,,,,,,,,,cyan,circle
103.0,6.0,2.0,0,3.0,3.0,500.73719024700006,2.0,phase_1,,,,,,,,,,,,,green,cross
375.0,4.0,4.0,1,4.0,4.0,568.214893341,2.0,phase_1,,,,,,,,,,,,,yellow,line
73.0,1.0,1.0,0,1.0,1.0,367.129087448,2.0,phase_1,,,,,,,,,,,,,magenta,triangle
52.0,5.0,1.0,1,1.0,1.0,334.127902985,2.0,phase_1,,,,,,,,,,,,,orange,hexagon
189.0,3.0,3.0,0,3.0,3.0,500.952959061,2.0,phase_1,,,,,,,,,,,,,cyan,circle
67.0,1.0,1.0,0,4.0,4.0,534.060955048,2.0,phase_1,,,,,,,,,,,,,magenta,triangle
220.0,3.0,3.0,0,2.0,2.0,300.742149353,2.0,phase_1,,,,,,,,,,,,,cyan,circle
0.0,1.0,0.0,0,4.0,4.0,384.773015976,2.0,phase_1,,,,,,,,,,,,,magenta,triangle
0.0,8.0,0.0,0,4.0,4.0,367.94090271000005,2.0,phase_1,,,,,,,,,,,,,blue,flipped triangle
0.0,2.0,0.0,1,4.0,4.0,517.528057098,2.0,phase_1,,,,,,,,,,,,,gray,diamond
30.0,5.0,1.0,1,3.0,3.0,367.39015579200003,2.0,phase_1,,,,,,,,,,,,,orange,hexagon
57.0,5.0,1.0,1,4.0,4.0,450.75082778899997,2.0,phase_1,,,,,,,,,,,,,orange,hexagon
179.0,7.0,3.0,1,2.0,2.0,367.35606193499996,2.0,phase_1,,,,,,,,,,,,,white,square
0.0,2.0,0.0,1,4.0,4.0,484.560966492,2.0,phase_1,,,,,,,,,,,,,gray,diamond
399.0,4.0,4.0,1,1.0,1.0,401.142120361,2.0,phase_1,,,,,,,,,,,,,yellow,line
205.0,7.0,3.0,1,2.0,2.0,384.64212417600004,2.0,phase_1,,,,,,,,,,,,,white,square
211.0,7.0,3.0,1,3.0,3.0,351.19915008500004,2.0,phase_1,,,,,,,,,,,,,white,square
221.0,3.0,3.0,0,4.0,4.0,434.22198295600003,2.0,phase_1,,,,,,,,,,,,,cyan,circle
50.0,1.0,1.0,0,4.0,4.0,417.303085327,2.0,phase_1,,,,,,,,,,,,,magenta,triangle
201.0,7.0,3.0,1,1.0,1.0,384.137153625,2.0,phase_1,,,,,,,,,,,,,white,square
0.0,2.0,0.0,1,1.0,1.0,434.519052505,2.0,phase_1,,,,,,,,,,,,,gray,diamond
71.0,5.0,1.0,1,2.0,2.0,333.871841431,2.0,phase_1,,,,,,,,,,,,,orange,hexagon
80.0,6.0,2.0,0,1.0,1.0,400.59709549,2.0,phase_1,,,,,,,,,,,,,green,cross
30.0,5.0,1.0,1,4.0,4.0,400.871038437,2.0,phase_1,,,,,,,,,,,,,orange,hexagon
415.0,8.0,4.0,0,2.0,2.0,367.21897125199996,2.0,phase_1,,,,,,,,,,,,,blue,flipped triangle
0.0,5.0,0.0,1,4.0,4.0,401.320934296,2.0,phase_1,,,,,,,,,,,,,orange,hexagon
112.0,2.0,2.0,1,4.0,4.0,417.22702979999997,2.0,phase_1,,,,,,,,,,,,,gray,diamond
38.0,1.0,1.0,0,3.0,3.0,434.781074524,3.0,phase_1,,,,,,,,,,,,,magenta,triangle
182.0,3.0,3.0,0,2.0,2.0,350.85296630899995,3.0,phase_1,,,,,,,,,,,,,cyan,circle
382.0,8.0,4.0,0,2.0,2.0,384.48309898400004,3.0,phase_1,,,,,,,,,,,,,blue,flipped triangle
376.0,8.0,4.0,0,3.0,3.0,350.86488723800005,3.0,phase_1,,,,,,,,,,,,,blue,flipped triangle
82.0,6.0,2.0,0,4.0,4.0,451.071977615,3.0,phase_1,,,,,,,,,,,,,green,cross
222.0,3.0,3.0,0,1.0,1.0,333.877086639,3.0,phase_1,,,,,,,,,,,,,cyan,circle
0.0,3.0,0.0,0,4.0,4.0,417.187929153,3.0,phase_1,,,,,,,,,,,,,cyan,circle
191.0,3.0,3.0,0,1.0,1.0,434.005022049,3.0,phase_1,,,,,,,,,,,,,cyan,circle
218.0,7.0,3.0,1,1.0,1.0,334.333896637,3.0,phase_1,,,,,,,,,,,,,white,square
27.0,1.0,1.0,0,3.0,3.0,417.865991592,3.0,phase_1,,,,,,,,,,,,,magenta,triangle
0.0,3.0,0.0,0,4.0,4.0,518.11003685,3.0,phase_1,,,,,,,,,,,,,cyan,circle
27.0,5.0,1.0,1,3.0,3.0,450.99902153,3.0,phase_1,,,,,,,,,,,,,orange,hexagon
0.0,3.0,0.0,0,3.0,3.0,384.72199439999997,3.0,phase_1,,,,,,,,,,,,,cyan,circle
223.0,3.0,3.0,0,3.0,3.0,351.058959961,3.0,phase_1,,,,,,,,,,,,,cyan,circle
31.0,1.0,1.0,0,2.0,2.0,567.6159858699999,3.0,phase_1,,,,,,,,,,,,,magenta,triangle
395.0,8.0,4.0,0,4.0,4.0,500.353813171,3.0,phase_1,,,,,,,,,,,,,blue,flipped triangle
79.0,2.0,2.0,1,4.0,4.0,517.7149772639999,3.0,phase_1,,,,,,,,,,,,,gray,diamond
115.0,6.0,2.0,0,2.0,2.0,483.830928802,3.0,phase_1,,,,,,,,,,,,,green,cross
80.0,6.0,2.0,0,1.0,1.0,400.861978531,3.0,phase_1,,,,,,,,,,,,,green,cross
402.0,4.0,4.0,1,1.0,1.0,367.702007294,3.0,phase_1,,,,,,,,,,,,,yellow,line
40.0,1.0,1.0,0,4.0,4.0,434.20791626,3.0,phase_1,,,,,,,,,,,,,magenta,triangle
30.0,5.0,1.0,1,3.0,3.0,400.645971298,3.0,phase_1,,,,,,,,,,,,,orange,hexagon
77.0,6.0,2.0,0,4.0,4.0,484.304904938,3.0,phase_1,,,,,,,,,,,,,green,cross
218.0,7.0,3.0,1,4.0,4.0,401.180028915,3.0,phase_1,,,,,,,,,,,,,white,square
0.0,7.0,0.0,1,2.0,2.0,384.35411453200004,3.0,phase_1,,,,,,,,,,,,,white,square
0.0,6.0,0.0,0,1.0,1.0,467.90599823,3.0,phase_1,,,,,,,,,,,,,green,cross
414.0,8.0,4.0,0,2.0,2.0,367.37704277,3.0,phase_1,,,,,,,,,,,,,blue,flipped triangle
121.0,2.0,2.0,1,1.0,1.0,384.40108299300005,3.0,phase_1,,,,,,,,,,,,,gray,diamond
405.0,4.0,4.0,1,3.0,3.0,501.03402137800003,3.0,phase_1,,,,,,,,,,,,,yellow,line
70.0,5.0,1.0,1,2.0,2.0,401.298046112,3.0,phase_1,,,,,,,,,,,,,orange,hexagon
389.0,4.0,4.0,1,1.0,1.0,350.76403617899996,3.0,phase_1,,,,,,,,,,,,,yellow,line
217.0,3.0,3.0,0,2.0,2.0,401.338100433,3.0,phase_1,,,,,,,,,,,,,cyan,circle
415.0,8.0,4.0,0,4.0,4.0,584.737062454,3.0,phase_1,,,,,,,,,,,,,blue,flipped triangle
0.0,7.0,0.0,1,4.0,4.0,467.344045639,3.0,phase_1,,,,,,,,,,,,,white,square
425.0,4.0,4.0,1,1.0,1.0,400.851011276,3.0,phase_1,,,,,,,,,,,,,yellow,line
402.0,8.0,4.0,0,3.0,3.0,351.295948029,3.0,phase_1,,,,,,,,,,,,,blue,flipped triangle
0.0,6.0,0.0,0,2.0,2.0,384.122848511,3.0,phase_1,,,,,,,,,,,,,green,cross
194.0,7.0,3.0,1,3.0,3.0,400.167942047,3.0,phase_1,,,,,,,,,,,,,white,square
225.0,7.0,3.0,1,2.0,2.0,367.605924606,3.0,phase_1,,,,,,,,,,,,,white,square
125.0,6.0,2.0,0,4.0,4.0,468.11103820799997,3.0,phase_1,,,,,,,,,,,,,green,cross
189.0,7.0,3.0,1,1.0,1.0,400.25591850300003,3.0,phase_1,,,,,,,,,,,,,white,square
0.0,3.0,0.0,0,2.0,2.0,434.352874756,3.0,phase_1,,,,,,,,,,,,,cyan,circle
0.0,2.0,0.0,1,4.0,4.0,401.061058044,3.0,phase_1,,,,,,,,,,,,,gray,diamond
25.0,1.0,1.0,0,4.0,4.0,400.979995728,3.0,phase_1,,,,,,,,,,,,,magenta,triangle
0.0,5.0,0.0,1,3.0,3.0,400.5382061,3.0,phase_1,,,,,,,,,,,,,orange,hexagon
204.0,7.0,3.0,1,2.0,2.0,434.174060822,3.0,phase_1,,,,,,,,,,,,,white,square
382.0,4.0,4.0,1,2.0,2.0,451.020956039,3.0,phase_1,,,,,,,,,,,,,yellow,line
0.0,5.0,0.0,1,4.0,4.0,634.210109711,3.0,phase_1,,,,,,,,,,,,,orange,hexagon
193.0,7.0,3.0,1,1.0,1.0,568.26210022,3.0,phase_1,,,,,,,,,,,,,white,square
0.0,5.0,0.0,1,4.0,4.0,434.177875519,3.0,phase_1,,,,,,,,,,,,,orange,hexagon
406.0,8.0,4.0,0,1.0,1.0,417.722940445,3.0,phase_1,,,,,,,,,,,,,blue,flipped triangle
111.0,6.0,2.0,0,3.0,3.0,517.7800655359999,3.0,phase_1,,,,,,,,,,,,,green,cross
179.0,7.0,3.0,1,2.0,2.0,350.942134857,3.0,phase_1,,,,,,,,,,,,,white,square
376.0,4.0,4.0,1,2.0,2.0,567.449092865,3.0,phase_1,,,,,,,,,,,,,yellow,line
218.0,7.0,3.0,1,1.0,1.0,384.664773941,3.0,phase_1,,,,,,,,,,,,,white,square
385.0,4.0,4.0,1,1.0,1.0,334.34605598400003,3.0,phase_1,,,,,,,,,,,,,yellow,line
0.0,3.0,0.0,0,4.0,4.0,567.226886749,3.0,phase_1,,,,,,,,,,,,,cyan,circle
122.0,6.0,2.0,0,2.0,2.0,334.42401886,3.0,phase_1,,,,,,,,,,,,,green,cross
54.0,1.0,1.0,0,4.0,4.0,400.703907013,3.0,phase_1,,,,,,,,,,,,,magenta,triangle
409.0,4.0,4.0,1,1.0,1.0,367.875099182,3.0,phase_1,,,,,,,,,,,,,yellow,line
31.0,5.0,1.0,1,2.0,2.0,351.01008415200005,3.0,phase_1,,,,,,,,,,,,,orange,hexagon
0.0,3.0,0.0,0,2.0,2.0,367.879867554,3.0,phase_1,,,,,,,,,,,,,cyan,circle
0.0,3.0,0.0,0,3.0,3.0,467.46206283600003,3.0,phase_1,,,,,,,,,,,,,cyan,circle
176.0,7.0,3.0,1,1.0,1.0,451.054096222,3.0,phase_1,,,,,,,,,,,,,white,square
0.0,6.0,0.0,0,3.0,3.0,383.955955505,3.0,phase_1,,,,,,,,,,,,,green,cross
0.0,6.0,0.0,0,1.0,1.0,334.201812744,3.0,phase_1,,,,,,,,,,,,,green,cross
26.0,1.0,1.0,0,2.0,2.0,367.86198616,3.0,phase_1,,,,,,,,,,,,,magenta,triangle
0.0,4.0,0.0,1,4.0,4.0,667.75393486,3.0,phase_1,,,,,,,,,,,,,yellow,line
0.0,2.0,0.0,1,2.0,2.0,384.034872055,3.0,phase_1,,,,,,,,,,,,,gray,diamond
0.0,4.0,0.0,1,2.0,2.0,384.16886329700003,3.0,phase_1,,,,,,,,,,,,,yellow,line
64.0,5.0,1.0,1,4.0,4.0,551.064968109,3.0,phase_1,,,,,,,,,,,,,orange,hexagon
0.0,1.0,0.0,0,3.0,3.0,417.11187362699997,3.0,phase_1,,,,,,,,,,,,,magenta,triangle
200.0,3.0,3.0,0,4.0,4.0,401.263952255,3.0,phase_1,,,,,,,,,,,,,cyan,circle
390.0,4.0,4.0,1,3.0,3.0,384.176015854,3.0,phase_1,,,,,,,,,,,,,yellow,line
123.0,2.0,2.0,1,3.0,3.0,401.403903961,3.0,phase_1,,,,,,,,,,,,,gray,diamond
376.0,4.0,4.0,1,4.0,4.0,534.548997879,3.0,phase_1,,,,,,,,,,,,,yellow,line
381.0,8.0,4.0,0,4.0,4.0,534.5408916470001,3.0,phase_1,,,,,,,,,,,,,blue,flipped triangle
403.0,8.0,4.0,0,1.0,1.0,468.01996231100003,3.0,phase_1,,,,,,,,,,,,,blue,flipped triangle
50.0,5.0,1.0,1,3.0,3.0,467.91195869399996,3.0,phase_1,,,,,,,,,,,,,orange,hexagon
388.0,8.0,4.0,0,3.0,3.0,450.867176056,3.0,phase_1,,,,,,,,,,,,,blue,flipped triangle
0.0,3.0,0.0,0,4.0,4.0,467.833042145,3.0,phase_1,,,,,,,,,,,,,cyan,circle
0.0,3.0,0.0,0,3.0,3.0,400.65908432000003,3.0,phase_1,,,,,,,,,,,,,cyan,circle
0.0,4.0,0.0,1,1.0,1.0,401.304960251,3.0,phase_1,,,,,,,,,,,,,yellow,line
0.0,7.0,0.0,1,4.0,4.0,751.355886459,3.0,phase_1,,,,,,,,,,,,,white,square
46.0,1.0,1.0,0,1.0,1.0,451.097011566,3.0,phase_1,,,,,,,,,,,,,magenta,triangle
207.0,3.0,3.0,0,1.0,1.0,384.058952332,3.0,phase_1,,,,,,,,,,,,,cyan,circle
379.0,8.0,4.0,0,4.0,4.0,517.474889755,3.0,phase_1,,,,,,,,,,,,,blue,flipped triangle
56.0,5.0,1.0,1,1.0,1.0,383.9199543,3.0,phase_1,,,,,,,,,,,,,orange,hexagon
405.0,4.0,4.0,1,1.0,1.0,333.96697044399997,3.0,phase_1,,,,,,,,,,,,,yellow,line
42.0,5.0,1.0,1,1.0,1.0,367.670059204,3.0,phase_1,,,,,,,,,,,,,orange,hexagon
215.0,7.0,3.0,1,2.0,2.0,484.565019608,3.0,phase_1,,,,,,,,,,,,,white,square
0.0,7.0,0.0,1,2.0,2.0,434.293031693,3.0,phase_1,,,,,,,,,,,,,white,square
62.0,1.0,1.0,0,3.0,3.0,434.299945831,3.0,phase_1,,,,,,,,,,,,,magenta,triangle
101.0,6.0,2.0,0,1.0,1.0,417.65999794000004,3.0,phase_1,,,,,,,,,,,,,green,cross
180.0,7.0,3.0,1,3.0,3.0,400.372982025,3.0,phase_1,,,,,,,,,,,,,white,square
0.0,2.0,0.0,1,2.0,2.0,450.79207420299997,3.0,phase_1,,,,,,,,,,,,,gray,diamond
191.0,3.0,3.0,0,3.0,3.0,500.93698501600005,3.0,phase_1,,,,,,,,,,,,,cyan,circle
0.0,2.0,0.0,1,3.0,3.0,384.773015976,3.0,phase_1,,,,,,,,,,,,,gray,diamond
0.0,3.0,0.0,0,2.0,2.0,450.76918602,3.0,phase_1,,,,,,,,,,,,,cyan,circle
39.0,1.0,1.0,0,3.0,3.0,517.785787582,3.0,phase_1,,,,,,,,,,,,,magenta,triangle
97.0,6.0,2.0,0,2.0,2.0,451.556921005,4.0,phase_1,,,,,,,,,,,,,green,cross
186.0,3.0,3.0,0,2.0,2.0,451.364994049,4.0,phase_1,,,,,,,,,,,,,cyan,circle
0.0,4.0,0.0,1,3.0,3.0,501.06215477000006,4.0,phase_1,,,,,,,,,,,,,yellow,line
86.0,2.0,2.0,1,4.0,4.0,500.74887275699996,4.0,phase_1,,,,,,,,,,,,,gray,diamond
0.0,7.0,0.0,1,3.0,3.0,434.336900711,4.0,phase_1,,,,,,,,,,,,,white,square
64.0,5.0,1.0,1,3.0,3.0,367.454051971,4.0,phase_1,,,,,,,,,,,,,orange,hexagon
0.0,5.0,0.0,1,3.0,3.0,334.09404754599996,4.0,phase_1,,,,,,,,,,,,,orange,hexagon
423.0,8.0,4.0,0,4.0,4.0,534.0399742129999,4.0,phase_1,,,,,,,,,,,,,blue,flipped triangle
375.0,4.0,4.0,1,3.0,3.0,434.35478210400004,4.0,phase_1,,,,,,,,,,,,,yellow,line
0.0,8.0,0.0,0,2.0,2.0,367.871046066,4.0,phase_1,,,,,,,,,,,,,blue,flipped triangle
112.0,6.0,2.0,0,1.0,1.0,367.305994034,4.0,phase_1,,,,,,,,,,,,,green,cross
378.0,8.0,4.0,0,3.0,3.0,383.77404213,4.0,phase_1,,,,,,,,,,,,,blue,flipped triangle
102.0,2.0,2.0,1,1.0,1.0,451.11894607500005,4.0,phase_1,,,,,,,,,,,,,gray,diamond
378.0,4.0,4.0,1,1.0,1.0,534.6899032590001,4.0,phase_1,,,,,,,,,,,,,yellow,line
0.0,4.0,0.0,1,2.0,2.0,367.62213707,4.0,phase_1,,,,,,,,,,,,,yellow,line
53.0,1.0,1.0,0,3.0,3.0,467.89598465,4.0,phase_1,,,,,,,,,,,,,magenta,triangle
0.0,7.0,0.0,1,1.0,1.0,384.31191444399997,4.0,phase_1,,,,,,,,,,,,,white,square
85.0,6.0,2.0,0,2.0,2.0,451.079845428,4.0,phase_1,,,,,,,,,,,,,green,cross
0.0,3.0,0.0,0,2.0,2.0,384.254217148,4.0,phase_1,,,,,,,,,,,,,cyan,circle
0.0,2.0,0.0,1,1.0,1.0,417.53911972000003,4.0,phase_1,,,,,,,,,,,,,gray,diamond
180.0,3.0,3.0,0,1.0,1.0,384.381055832,4.0,phase_1,,,,,,,,,,,,,cyan,circle
205.0,7.0,3.0,1,4.0,4.0,567.3511028290001,4.0,phase_1,,,,,,,,,,,,,white,square
105.0,6.0,2.0,0,4.0,4.0,684.450149536,4.0,phase_1,,,,,,,,,,,,,green,cross
192.0,3.0,3.0,0,1.0,1.0,701.500892639,4.0,phase_1,,,,,,,,,,,,,cyan,circle
425.0,8.0,4.0,0,1.0,1.0,584.4860076900001,4.0,phase_1,,,,,,,,,,,,,blue,flipped triangle
0.0,2.0,0.0,1,2.0,2.0,433.659076691,4.0,phase_1,,,,,,,,,,,,,gray,diamond
401.0,8.0,4.0,0,3.0,3.0,701.303958893,4.0,phase_1,,,,,,,,,,,,,blue,flipped triangle
0.0,6.0,0.0,0,4.0,4.0,467.63086319,4.0,phase_1,,,,,,,,,,,,,green,cross
213.0,3.0,3.0,0,3.0,3.0,634.593009949,4.0,phase_1,,,,,,,,,,,,,cyan,circle
109.0,6.0,2.0,0,1.0,1.0,467.21696853599997,4.0,phase_1,,,,,,,,,,,,,green,cross
0.0,5.0,0.0,1,1.0,1.0,568.136930466,4.0,phase_1,,,,,,,,,,,,,orange,hexagon
97.0,2.0,2.0,1,3.0,3.0,550.710916519,4.0,phase_1,,,,,,,,,,,,,gray,diamond
407.0,8.0,4.0,0,4.0,4.0,517.578840256,4.0,phase_1,,,,,,,,,,,,,blue,flipped triangle
61.0,5.0,1.0,1,4.0,4.0,534.430980682,4.0,phase_1,,,,,,,,,,,,,orange,hexagon
0.0,4.0,0.0,1,1.0,1.0,467.349052429,4.0,phase_1,,,,,,,,,,,,,yellow,line
46.0,1.0,1.0,0,1.0,1.0,618.027925491,4.0,phase_1,,,,,,,,,,,,,magenta,triangle
0.0,7.0,0.0,1,3.0,3.0,634.407997131,4.0,phase_1,,,,,,,,,,,,,white,square
84.0,6.0,2.0,0,3.0,3.0,651.3490676880001,4.0,phase_1,,,,,,,,,,,,,green,cross
114.0,2.0,2.0,1,4.0,4.0,517.484903336,4.0,phase_1,,,,,,,,,,,,,gray,diamond
417.0,4.0,4.0,1,1.0,1.0,851.20010376,4.0,phase_1,,,,,,,,,,,,,yellow,line
0.0,2.0,0.0,1,2.0,2.0,418.035030365,4.0,phase_1,,,,,,,,,,,,,gray,diamond
0.0,6.0,0.0,0,4.0,4.0,450.735092163,4.0,phase_1,,,,,,,,,,,,,green,cross
117.0,6.0,2.0,0,2.0,2.0,384.05799865700004,4.0,phase_1,,,,,,,,,,,,,green,cross
25.0,1.0,1.0,0,3.0,3.0,484.10797119100005,4.0,phase_1,,,,,,,,,,,,,magenta,triangle
408.0,4.0,4.0,1,2.0,2.0,367.35200882000004,4.0,phase_1,,,,,,,,,,,,,yellow,line
411.0,4.0,4.0,1,1.0,1.0,434.310913086,4.0,phase_1,,,,,,,,,,,,,yellow,line
389.0,4.0,4.0,1,4.0,4.0,434.407949448,4.0,phase_1,,,,,,,,,,,,,yellow,line
195.0,7.0,3.0,1,3.0,3.0,367.825984955,4.0,phase_1,,,,,,,,,,,,,white,square
118.0,2.0,2.0,1,1.0,1.0,417.304039001,4.0,phase_1,,,,,,,,,,,,,gray,diamond
0.0,1.0,0.0,0,4.0,4.0,417.46711731000005,4.0,phase_1,,,,,,,,,,,,,magenta,triangle
419.0,8.0,4.0,0,3.0,3.0,384.65619087199997,4.0,phase_1,,,,,,,,,,,,,blue,flipped triangle
224.0,3.0,3.0,0,4.0,4.0,434.555053711,4.0,phase_1,,,,,,,,,,,,,cyan,circle
111.0,6.0,2.0,0,3.0,3.0,367.769002914,4.0,phase_1,,,,,,,,,,,,,green,cross
0.0,7.0,0.0,1,2.0,2.0,383.954048157,4.0,phase_1,,,,,,,,,,,,,white,square
121.0,2.0,2.0,1,2.0,2.0,434.041976929,4.0,phase_1,,,,,,,,,,,,,gray,diamond
387.0,8.0,4.0,0,2.0,2.0,383.98098945600003,4.0,phase_1,,,,,,,,,,,,,blue,flipped triangle
64.0,1.0,1.0,0,3.0,3.0,434.168100357,4.0,phase_1,,,,,,,,,,,,,magenta,triangle
0.0,1.0,0.0,0,4.0,4.0,417.35601425199997,4.0,phase_1,,,,,,,,,,,,,magenta,triangle
225.0,3.0,3.0,0,4.0,4.0,501.446962357,4.0,phase_1,,,,,,,,,,,,,cyan,circle
101.0,6.0,2.0,0,2.0,2.0,534.4331264499999,4.0,phase_1,,,,,,,,,,,,,green,cross
0.0,4.0,0.0,1,4.0,4.0,434.232950211,4.0,phase_1,,,,,,,,,,,,,yellow,line
0.0,1.0,0.0,0,2.0,2.0,417.536020279,4.0,phase_1,,,,,,,,,,,,,magenta,triangle
83.0,6.0,2.0,0,2.0,2.0,534.3580245969999,4.0,phase_1,,,,,,,,,,,,,green,cross
118.0,6.0,2.0,0,1.0,1.0,517.374038696,4.0,phase_1,,,,,,,,,,,,,green,cross
383.0,8.0,4.0,0,2.0,2.0,501.12700462299995,4.0,phase_1,,,,,,,,,,,,,blue,flipped triangle
408.0,4.0,4.0,1,1.0,1.0,434.014081955,4.0,phase_1,,,,,,,,,,,,,yellow,line
125.0,2.0,2.0,1,2.0,2.0,417.75608062699996,4.0,phase_1,,,,,,,,,,,,,gray,diamond
26.0,5.0,1.0,1,4.0,4.0,434.452056885,4.0,phase_1,,,,,,,,,,,,,orange,hexagon
0.0,3.0,0.0,0,4.0,4.0,433.84194374099997,4.0,phase_1,,,,,,,,,,,,,cyan,circle
382.0,4.0,4.0,1,2.0,2.0,434.428930283,4.0,phase_1,,,,,,,,,,,,,yellow,line
48.0,5.0,1.0,1,1.0,1.0,401.10707283000005,4.0,phase_1,,,,,,,,,,,,,orange,hexagon
402.0,8.0,4.0,0,1.0,1.0,334.28311348,4.0,phase_1,,,,,,,,,,,,,blue,flipped triangle
199.0,7.0,3.0,1,3.0,3.0,501.70397758499996,4.0,phase_1,,,,,,,,,,,,,white,square
42.0,5.0,1.0,1,4.0,4.0,450.679063797,4.0,phase_1,,,,,,,,,,,,,orange,hexagon
33.0,5.0,1.0,1,2.0,2.0,350.466012955,4.0,phase_1,,,,,,,,,,,,,orange,hexagon
225.0,3.0,3.0,0,1.0,1.0,384.62996482799997,4.0,phase_1,,,,,,,,,,,,,cyan,circle
50.0,5.0,1.0,1,1.0,1.0,484.555959702,4.0,phase_1,,,,,,,,,,,,,orange,hexagon
117.0,2.0,2.0,1,2.0,2.0,367.923021317,4.0,phase_1,,,,,,,,,,,,,gray,diamond
73.0,5.0,1.0,1,1.0,1.0,367.22898483299997,4.0,phase_1,,,,,,,,,,,,,orange,hexagon
0.0,3.0,0.0,0,1.0,1.0,317.47198104899996,4.0,phase_1,,,,,,,,,,,,,cyan,circle
0.0,4.0,0.0,1,4.0,4.0,534.082174301,4.0,phase_1,,,,,,,,,,,,,yellow,line
35.0,5.0,1.0,1,2.0,2.0,351.366996765,4.0,phase_1,,,,,,,,,,,,,orange,hexagon
200.0,7.0,3.0,1,3.0,3.0,418.000936508,4.0,phase_1,,,,,,,,,,,,,white,square
85.0,2.0,2.0,1,3.0,3.0,450.659990311,4.0,phase_1,,,,,,,,,,,,,gray,diamond
199.0,7.0,3.0,1,1.0,1.0,383.640050888,4.0,phase_1,,,,,,,,,,,,,white,square
123.0,6.0,2.0,0,1.0,1.0,501.02710723900003,4.0,phase_1,,,,,,,,,,,,,green,cross
0.0,4.0,0.0,1,2.0,2.0,367.594957352,4.0,phase_1,,,,,,,,,,,,,yellow,line
71.0,1.0,1.0,0,4.0,4.0,467.660903931,4.0,phase_1,,,,,,,,,,,,,magenta,triangle
47.0,1.0,1.0,0,4.0,4.0,467.461824417,4.0,phase_1,,,,,,,,,,,,,magenta,triangle
88.0,6.0,2.0,0,4.0,4.0,434.46612358100003,4.0,phase_1,,,,,,,,,,,,,green,cross
97.0,6.0,2.0,0,3.0,3.0,434.35788154600004,4.0,phase_1,,,,,,,,,,,,,green,cross
180.0,7.0,3.0,1,3.0,3.0,434.63492393499996,4.0,phase_1,,,,,,,,,,,,,white,square
407.0,4.0,4.0,1,2.0,2.0,434.13496017499995,4.0,phase_1,,,,,,,,,,,,,yellow,line
70.0,5.0,1.0,1,3.0,3.0,451.076984406,4.0,phase_1,,,,,,,,,,,,,orange,hexagon
0.0,7.0,0.0,1,3.0,3.0,467.406988144,4.0,phase_1,,,,,,,,,,,,,white,square
119.0,2.0,2.0,1,4.0,4.0,517.534971237,4.0,phase_1,,,,,,,,,,,,,gray,diamond
64.0,1.0,1.0,0,4.0,4.0,451.156139374,4.0,phase_1,,,,,,,,,,,,,magenta,triangle
0.0,2.0,0.0,1,2.0,2.0,434.43298339800003,4.0,phase_1,,,,,,,,,,,,,gray,diamond
0.0,5.0,0.0,1,4.0,4.0,451.247930527,4.0,phase_1,,,,,,,,,,,,,orange,hexagon
178.0,7.0,3.0,1,3.0,3.0,450.767993927,4.0,phase_1,,,,,,,,,,,,,white,square
0.0,5.0,1.0,1,5.0,0.0,,1.0,phase_2,stop,250.0,250.0,4.0,,,,,,,,,orange,hexagon
0.0,3.0,3.0,0,6.0,6.0,483.892202377,1.0,phase_2,go,250.0,250.0,1.0,,,,,,,,,cyan,circle
0.0,8.0,4.0,0,6.0,6.0,718.409061432,1.0,phase_2,go,250.0,250.0,1.0,,,,,,,,,blue,flipped triangle
0.0,5.0,1.0,1,5.0,5.0,700.860023499,1.0,phase_2,go,250.0,250.0,1.0,,,,,,,,,orange,hexagon
0.0,6.0,2.0,0,5.0,5.0,684.368848801,1.0,phase_2,go,250.0,250.0,1.0,,,,,,,,,green,cross
0.0,6.0,2.0,0,6.0,6.0,500.32997131300004,1.0,phase_2,go,250.0,250.0,1.0,,,,,,,,,green,cross
0.0,1.0,1.0,0,6.0,6.0,651.046037674,1.0,phase_2,go,250.0,250.0,1.0,,,,,,,,,magenta,triangle
0.0,6.0,2.0,0,5.0,5.0,634.4368457789999,1.0,phase_2,go,250.0,250.0,1.0,,,,,,,,,green,cross
0.0,1.0,1.0,0,5.0,5.0,700.89006424,1.0,phase_2,go,250.0,250.0,1.0,,,,,,,,,magenta,triangle
0.0,1.0,1.0,0,5.0,5.0,801.045894623,1.0,phase_2,go,250.0,250.0,1.0,,,,,,,,,magenta,triangle
0.0,8.0,4.0,0,5.0,5.0,850.9600162510001,1.0,phase_2,go,250.0,250.0,1.0,,,,,,,,,blue,flipped triangle
0.0,1.0,1.0,0,6.0,6.0,767.752170563,1.0,phase_2,go,250.0,250.0,1.0,,,,,,,,,magenta,triangle
0.0,2.0,2.0,1,5.0,0.0,,1.0,phase_2,stop,300.0,250.0,4.0,,,,,,,,,gray,diamond
0.0,2.0,2.0,1,5.0,5.0,701.0269165039999,1.0,phase_2,go,300.0,250.0,1.0,,,,,,,,,gray,diamond
0.0,4.0,4.0,1,5.0,0.0,,1.0,phase_2,stop,350.0,250.0,4.0,,,,,,,,,yellow,line
0.0,5.0,1.0,1,5.0,0.0,,1.0,phase_2,stop,400.0,250.0,4.0,,,,,,,,,orange,hexagon
0.0,4.0,4.0,1,6.0,0.0,,1.0,phase_2,stop,400.0,250.0,4.0,,,,,,,,,yellow,line
0.0,4.0,4.0,1,6.0,0.0,,1.0,phase_2,stop,400.0,300.0,4.0,,,,,,,,,yellow,line
0.0,5.0,1.0,1,6.0,0.0,,1.0,phase_2,stop,400.0,350.0,4.0,,,,,,,,,orange,hexagon
0.0,7.0,3.0,1,5.0,0.0,,1.0,phase_2,stop,450.0,350.0,4.0,,,,,,,,,white,square
0.0,2.0,2.0,1,5.0,0.0,,1.0,phase_2,stop,500.0,350.0,4.0,,,,,,,,,gray,diamond
0.0,1.0,1.0,0,6.0,6.0,667.515993118,1.0,phase_2,go,500.0,350.0,1.0,,,,,,,,,magenta,triangle
0.0,7.0,3.0,1,6.0,0.0,,1.0,phase_2,stop,500.0,400.0,4.0,,,,,,,,,white,square
0.0,6.0,2.0,0,5.0,5.0,701.2128829960001,1.0,phase_2,go,500.0,400.0,1.0,,,,,,,,,green,cross
0.0,7.0,3.0,1,6.0,0.0,,1.0,phase_2,stop,500.0,450.0,4.0,,,,,,,,,white,square
0.0,5.0,1.0,1,6.0,6.0,734.9400520319999,1.0,phase_2,stop,500.0,500.0,3.0,,,,,,,,,orange,hexagon
0.0,1.0,1.0,0,5.0,5.0,901.201963425,1.0,phase_2,go,500.0,500.0,1.0,,,,,,,,,magenta,triangle
0.0,7.0,3.0,1,6.0,0.0,,1.0,phase_2,stop,500.0,450.0,4.0,,,,,,,,,white,square
0.0,2.0,2.0,1,5.0,5.0,667.177200317,1.0,phase_2,stop,550.0,450.0,3.0,,,,,,,,,gray,diamond
0.0,1.0,1.0,0,6.0,6.0,818.325042725,1.0,phase_2,go,550.0,450.0,1.0,,,,,,,,,magenta,triangle
0.0,6.0,2.0,0,6.0,6.0,817.7239894869999,1.0,phase_2,go,550.0,450.0,1.0,,,,,,,,,green,cross
0.0,7.0,3.0,1,5.0,5.0,734.881877899,1.0,phase_2,go,550.0,450.0,1.0,,,,,,,,,white,square
0.0,3.0,3.0,0,6.0,6.0,800.926923752,1.0,phase_2,go,550.0,450.0,1.0,,,,,,,,,cyan,circle
0.0,4.0,4.0,1,6.0,0.0,,1.0,phase_2,stop,550.0,500.0,4.0,,,,,,,,,yellow,line
0.0,7.0,3.0,1,6.0,6.0,901.637792587,1.0,phase_2,go,550.0,500.0,1.0,,,,,,,,,white,square
0.0,7.0,3.0,1,5.0,0.0,,1.0,phase_2,stop,500.0,500.0,4.0,,,,,,,,,white,square
0.0,5.0,1.0,1,6.0,6.0,801.982879639,2.0,phase_2,go,500.0,500.0,1.0,,,,,,,,,orange,hexagon
0.0,3.0,3.0,0,5.0,5.0,718.040943146,2.0,phase_2,go,500.0,500.0,1.0,,,,,,,,,cyan,circle
0.0,6.0,2.0,0,6.0,6.0,767.689943314,2.0,phase_2,go,500.0,500.0,1.0,,,,,,,,,green,cross
0.0,8.0,4.0,0,6.0,6.0,934.375047684,2.0,phase_2,go,500.0,500.0,1.0,,,,,,,,,blue,flipped triangle
0.0,8.0,4.0,0,5.0,5.0,650.724887848,2.0,phase_2,go,500.0,500.0,1.0,,,,,,,,,blue,flipped triangle
0.0,5.0,1.0,1,6.0,0.0,,2.0,phase_2,stop,500.0,550.0,4.0,,,,,,,,,orange,hexagon
0.0,8.0,4.0,0,5.0,5.0,835.068941116,2.0,phase_2,go,500.0,550.0,1.0,,,,,,,,,blue,flipped triangle
0.0,4.0,4.0,1,6.0,0.0,,2.0,phase_2,stop,500.0,600.0,4.0,,,,,,,,,yellow,line
0.0,4.0,4.0,1,6.0,0.0,,2.0,phase_2,stop,500.0,650.0,4.0,,,,,,,,,yellow,line
0.0,5.0,1.0,1,5.0,0.0,,2.0,phase_2,stop,550.0,650.0,4.0,,,,,,,,,orange,hexagon
0.0,7.0,3.0,1,6.0,6.0,784.7850322720001,2.0,phase_2,stop,550.0,700.0,3.0,,,,,,,,,white,square
0.0,1.0,1.0,0,5.0,0.0,,2.0,phase_2,go,550.0,700.0,5.0,,,,,,,,,magenta,triangle
0.0,8.0,4.0,0,6.0,6.0,734.143972397,2.0,phase_2,go,550.0,700.0,1.0,,,,,,,,,blue,flipped triangle
0.0,3.0,3.0,0,6.0,6.0,651.2811183929999,2.0,phase_2,go,550.0,700.0,1.0,,,,,,,,,cyan,circle
0.0,2.0,2.0,1,6.0,0.0,,2.0,phase_2,stop,550.0,650.0,4.0,,,,,,,,,gray,diamond
0.0,7.0,3.0,1,5.0,0.0,,2.0,phase_2,stop,600.0,650.0,4.0,,,,,,,,,white,square
0.0,8.0,4.0,0,5.0,5.0,851.088047028,2.0,phase_2,go,600.0,650.0,1.0,,,,,,,,,blue,flipped triangle
0.0,7.0,3.0,1,5.0,5.0,884.4780921939999,2.0,phase_2,go,600.0,650.0,1.0,,,,,,,,,white,square
0.0,7.0,3.0,1,6.0,6.0,784.210920334,2.0,phase_2,stop,600.0,700.0,3.0,,,,,,,,,white,square
0.0,4.0,4.0,1,5.0,0.0,,2.0,phase_2,stop,650.0,700.0,4.0,,,,,,,,,yellow,line
0.0,6.0,2.0,0,6.0,0.0,,2.0,phase_2,go,650.0,700.0,5.0,,,,,,,,,green,cross
0.0,7.0,3.0,1,5.0,5.0,851.598978043,2.0,phase_2,stop,700.0,700.0,3.0,,,,,,,,,white,square
0.0,3.0,3.0,0,6.0,0.0,,2.0,phase_2,go,700.0,700.0,5.0,,,,,,,,,cyan,circle
0.0,7.0,3.0,1,6.0,6.0,784.8451137540001,2.0,phase_2,stop,700.0,650.0,3.0,,,,,,,,,white,square
0.0,6.0,2.0,0,5.0,5.0,801.395177841,2.0,phase_2,go,700.0,650.0,1.0,,,,,,,,,green,cross
0.0,8.0,4.0,0,5.0,5.0,901.327133179,2.0,phase_2,go,700.0,650.0,1.0,,,,,,,,,blue,flipped triangle
0.0,4.0,4.0,1,6.0,0.0,,2.0,phase_2,stop,700.0,600.0,4.0,,,,,,,,,yellow,line
0.0,7.0,3.0,1,5.0,0.0,,2.0,phase_2,stop,650.0,600.0,4.0,,,,,,,,,white,square
0.0,7.0,3.0,1,5.0,5.0,902.0659923549999,2.0,phase_2,go,650.0,600.0,1.0,,,,,,,,,white,square
0.0,2.0,2.0,1,5.0,0.0,,2.0,phase_2,stop,700.0,600.0,4.0,,,,,,,,,gray,diamond
0.0,3.0,3.0,0,5.0,0.0,,2.0,phase_2,go,700.0,600.0,5.0,,,,,,,,,cyan,circle
0.0,5.0,1.0,1,6.0,0.0,,2.0,phase_2,stop,700.0,650.0,4.0,,,,,,,,,orange,hexagon
0.0,4.0,4.0,1,5.0,5.0,817.981004715,2.0,phase_2,stop,750.0,650.0,3.0,,,,,,,,,yellow,line
0.0,6.0,2.0,0,5.0,0.0,,2.0,phase_2,go,750.0,650.0,5.0,,,,,,,,,green,cross
0.0,5.0,1.0,1,6.0,6.0,767.598152161,2.0,phase_2,stop,750.0,700.0,3.0,,,,,,,,,orange,hexagon
0.0,3.0,3.0,0,6.0,0.0,,2.0,phase_2,go,750.0,700.0,5.0,,,,,,,,,cyan,circle
0.0,3.0,3.0,0,6.0,6.0,818.2549476620001,3.0,phase_2,go,750.0,700.0,1.0,,,,,,,,,cyan,circle
0.0,5.0,1.0,1,5.0,5.0,651.113033295,3.0,phase_2,go,750.0,700.0,1.0,,,,,,,,,orange,hexagon
0.0,1.0,1.0,0,6.0,6.0,701.078891754,3.0,phase_2,go,750.0,700.0,1.0,,,,,,,,,magenta,triangle
0.0,2.0,2.0,1,5.0,5.0,717.617034912,3.0,phase_2,stop,700.0,700.0,3.0,,,,,,,,,gray,diamond
0.0,7.0,3.0,1,6.0,0.0,,3.0,phase_2,stop,700.0,650.0,4.0,,,,,,,,,white,square
0.0,7.0,3.0,1,5.0,0.0,,3.0,phase_2,stop,650.0,650.0,4.0,,,,,,,,,white,square
0.0,8.0,4.0,0,5.0,5.0,934.439182281,3.0,phase_2,go,650.0,650.0,1.0,,,,,,,,,blue,flipped triangle
0.0,1.0,1.0,0,5.0,5.0,901.5281200410001,3.0,phase_2,go,650.0,650.0,1.0,,,,,,,,,magenta,triangle
0.0,8.0,4.0,0,6.0,6.0,918.2090759280001,3.0,phase_2,go,650.0,650.0,1.0,,,,,,,,,blue,flipped triangle
0.0,1.0,1.0,0,5.0,5.0,817.932128906,3.0,phase_2,go,650.0,650.0,1.0,,,,,,,,,magenta,triangle
0.0,3.0,3.0,0,6.0,6.0,935.2850914,3.0,phase_2,go,650.0,650.0,1.0,,,,,,,,,cyan,circle
0.0,3.0,3.0,0,5.0,0.0,,3.0,phase_2,go,650.0,650.0,5.0,,,,,,,,,cyan,circle
0.0,6.0,2.0,0,5.0,0.0,,3.0,phase_2,go,650.0,650.0,5.0,,,,,,,,,green,cross
0.0,2.0,2.0,1,5.0,5.0,734.432935715,3.0,phase_2,go,650.0,650.0,1.0,,,,,,,,,gray,diamond
0.0,4.0,4.0,1,5.0,5.0,783.798933029,3.0,phase_2,stop,700.0,650.0,3.0,,,,,,,,,yellow,line
0.0,8.0,4.0,0,5.0,0.0,,3.0,phase_2,go,700.0,650.0,5.0,,,,,,,,,blue,flipped triangle
0.0,3.0,3.0,0,6.0,6.0,951.38001442,3.0,phase_2,go,700.0,650.0,1.0,,,,,,,,,cyan,circle
0.0,3.0,3.0,0,6.0,0.0,,3.0,phase_2,go,700.0,650.0,5.0,,,,,,,,,cyan,circle
0.0,5.0,1.0,1,6.0,6.0,634.631872177,3.0,phase_2,go,700.0,650.0,1.0,,,,,,,,,orange,hexagon
0.0,3.0,3.0,0,6.0,6.0,868.1371212009999,3.0,phase_2,go,700.0,650.0,1.0,,,,,,,,,cyan,circle
0.0,6.0,2.0,0,6.0,6.0,734.3130111690001,3.0,phase_2,go,700.0,650.0,1.0,,,,,,,,,green,cross
0.0,2.0,2.0,1,6.0,6.0,867.902994156,3.0,phase_2,stop,700.0,700.0,3.0,,,,,,,,,gray,diamond
0.0,8.0,4.0,0,6.0,0.0,,3.0,phase_2,go,700.0,700.0,5.0,,,,,,,,,blue,flipped triangle
0.0,2.0,2.0,1,6.0,0.0,,3.0,phase_2,stop,700.0,650.0,4.0,,,,,,,,,gray,diamond
0.0,3.0,3.0,0,5.0,0.0,,3.0,phase_2,go,700.0,650.0,5.0,,,,,,,,,cyan,circle
0.0,8.0,4.0,0,6.0,6.0,834.7699642179999,3.0,phase_2,go,700.0,650.0,1.0,,,,,,,,,blue,flipped triangle
0.0,6.0,2.0,0,6.0,0.0,,3.0,phase_2,go,700.0,650.0,5.0,,,,,,,,,green,cross
0.0,8.0,4.0,0,5.0,5.0,951.448202133,3.0,phase_2,go,700.0,650.0,1.0,,,,,,,,,blue,flipped triangle
0.0,4.0,4.0,1,5.0,5.0,751.222848892,3.0,phase_2,go,700.0,650.0,1.0,,,,,,,,,yellow,line
0.0,6.0,2.0,0,5.0,0.0,,3.0,phase_2,go,700.0,650.0,5.0,,,,,,,,,green,cross
0.0,1.0,1.0,0,6.0,6.0,851.0198593140001,3.0,phase_2,go,700.0,650.0,1.0,,,,,,,,,magenta,triangle
0.0,6.0,2.0,0,5.0,5.0,884.6859931949999,3.0,phase_2,go,700.0,650.0,1.0,,,,,,,,,green,cross
0.0,1.0,1.0,0,6.0,0.0,,3.0,phase_2,go,700.0,650.0,5.0,,,,,,,,,magenta,triangle
0.0,4.0,4.0,1,5.0,0.0,,3.0,phase_2,stop,650.0,650.0,4.0,,,,,,,,,yellow,line
0.0,7.0,3.0,1,6.0,0.0,,3.0,phase_2,stop,650.0,700.0,4.0,,,,,,,,,white,square
0.0,4.0,4.0,1,5.0,5.0,951.39503479,3.0,phase_2,go,650.0,700.0,1.0,,,,,,,,,yellow,line
0.0,1.0,1.0,0,6.0,6.0,784.52706337,4.0,phase_2,go,650.0,700.0,1.0,,,,,,,,,magenta,triangle
0.0,4.0,4.0,1,5.0,5.0,867.8038120269999,4.0,phase_2,stop,700.0,700.0,3.0,,,,,,,,,yellow,line
0.0,2.0,2.0,1,5.0,0.0,,4.0,phase_2,stop,650.0,700.0,4.0,,,,,,,,,gray,diamond
0.0,1.0,1.0,0,6.0,6.0,834.7740173340001,4.0,phase_2,go,650.0,700.0,1.0,,,,,,,,,magenta,triangle
0.0,4.0,4.0,1,5.0,0.0,,4.0,phase_2,stop,700.0,700.0,4.0,,,,,,,,,yellow,line
0.0,7.0,3.0,1,5.0,0.0,,4.0,phase_2,stop,750.0,700.0,4.0,,,,,,,,,white,square
0.0,6.0,2.0,0,6.0,6.0,851.164102554,4.0,phase_2,go,750.0,700.0,1.0,,,,,,,,,green,cross
0.0,6.0,2.0,0,5.0,5.0,834.636926651,4.0,phase_2,go,750.0,700.0,1.0,,,,,,,,,green,cross
0.0,8.0,4.0,0,5.0,5.0,768.1310176850001,4.0,phase_2,go,750.0,700.0,1.0,,,,,,,,,blue,flipped triangle
0.0,1.0,1.0,0,5.0,0.0,,4.0,phase_2,go,750.0,700.0,5.0,,,,,,,,,magenta,triangle
0.0,4.0,4.0,1,6.0,6.0,801.375865936,4.0,phase_2,stop,750.0,750.0,3.0,,,,,,,,,yellow,line
0.0,1.0,1.0,0,5.0,5.0,918.3099269869999,4.0,phase_2,go,750.0,750.0,1.0,,,,,,,,,magenta,triangle
0.0,1.0,1.0,0,5.0,5.0,951.323032379,4.0,phase_2,go,750.0,750.0,1.0,,,,,,,,,magenta,triangle
0.0,1.0,1.0,0,6.0,0.0,,4.0,phase_2,go,750.0,750.0,5.0,,,,,,,,,magenta,triangle
0.0,4.0,4.0,1,5.0,5.0,901.846885681,4.0,phase_2,stop,750.0,750.0,3.0,,,,,,,,,yellow,line
0.0,2.0,2.0,1,6.0,0.0,,4.0,phase_2,go,750.0,750.0,5.0,,,,,,,,,gray,diamond
0.0,2.0,2.0,1,5.0,5.0,934.8490238190001,4.0,phase_2,go,750.0,750.0,1.0,,,,,,,,,gray,diamond
0.0,6.0,2.0,0,6.0,0.0,,4.0,phase_2,go,750.0,750.0,5.0,,,,,,,,,green,cross
0.0,7.0,3.0,1,6.0,0.0,,4.0,phase_2,stop,750.0,700.0,4.0,,,,,,,,,white,square
0.0,1.0,1.0,0,6.0,6.0,968.032836914,4.0,phase_2,go,750.0,700.0,1.0,,,,,,,,,magenta,triangle
0.0,2.0,2.0,1,6.0,0.0,,4.0,phase_2,go,750.0,700.0,5.0,,,,,,,,,gray,diamond
0.0,5.0,1.0,1,5.0,0.0,,4.0,phase_2,stop,700.0,700.0,4.0,,,,,,,,,orange,hexagon
0.0,7.0,3.0,1,5.0,5.0,968.348026276,4.0,phase_2,go,700.0,700.0,1.0,,,,,,,,,white,square
0.0,3.0,3.0,0,6.0,0.0,,4.0,phase_2,go,700.0,700.0,5.0,,,,,,,,,cyan,circle
0.0,3.0,3.0,0,6.0,0.0,,4.0,phase_2,go,700.0,700.0,5.0,,,,,,,,,cyan,circle
0.0,2.0,2.0,1,6.0,6.0,501.08981132499997,4.0,phase_2,stop,700.0,750.0,3.0,,,,,,,,,gray,diamond
0.0,5.0,1.0,1,6.0,6.0,484.348058701,4.0,phase_2,stop,700.0,700.0,3.0,,,,,,,,,orange,hexagon
0.0,6.0,2.0,0,6.0,0.0,,4.0,phase_2,go,700.0,700.0,5.0,,,,,,,,,green,cross
0.0,3.0,3.0,0,5.0,0.0,,4.0,phase_2,go,700.0,700.0,5.0,,,,,,,,,cyan,circle
0.0,8.0,4.0,0,5.0,5.0,501.004934311,4.0,phase_2,go,700.0,700.0,1.0,,,,,,,,,blue,flipped triangle
0.0,2.0,2.0,1,5.0,5.0,884.827852249,4.0,phase_2,stop,750.0,700.0,3.0,,,,,,,,,gray,diamond
0.0,6.0,2.0,0,5.0,0.0,,4.0,phase_2,go,750.0,700.0,5.0,,,,,,,,,green,cross
0.0,4.0,4.0,1,6.0,6.0,667.643070221,4.0,phase_2,go,750.0,700.0,1.0,,,,,,,,,yellow,line
0.0,7.0,3.0,1,6.0,0.0,,4.0,phase_2,stop,750.0,650.0,4.0,,,,,,,,,white,square
0.0,2.0,2.0,1,6.0,0.0,,4.0,phase_2,go,750.0,650.0,5.0,,,,,,,,,gray,diamond
0.0,2.0,2.0,1,5.0,0.0,,4.0,phase_2,stop,700.0,650.0,4.0,,,,,,,,,gray,diamond
0.0,8.0,4.0,0,6.0,6.0,734.3869209290001,5.0,phase_2,go,700.0,650.0,1.0,,,,,,,,,blue,flipped triangle
0.0,1.0,1.0,0,5.0,5.0,584.205150604,5.0,phase_2,go,700.0,650.0,1.0,,,,,,,,,magenta,triangle
0.0,2.0,2.0,1,6.0,6.0,618.038892746,5.0,phase_2,stop,700.0,700.0,3.0,,,,,,,,,gray,diamond
0.0,5.0,1.0,1,6.0,0.0,,5.0,phase_2,stop,700.0,650.0,4.0,,,,,,,,,orange,hexagon
0.0,7.0,3.0,1,6.0,6.0,534.021139145,5.0,phase_2,stop,700.0,700.0,3.0,,,,,,,,,white,square
0.0,2.0,2.0,1,5.0,5.0,834.771871567,5.0,phase_2,stop,750.0,700.0,3.0,,,,,,,,,gray,diamond
0.0,3.0,3.0,0,5.0,5.0,767.698049545,5.0,phase_2,go,750.0,700.0,1.0,,,,,,,,,cyan,circle
0.0,6.0,2.0,0,6.0,6.0,884.523868561,5.0,phase_2,go,750.0,700.0,1.0,,,,,,,,,green,cross
0.0,7.0,3.0,1,6.0,0.0,,5.0,phase_2,stop,750.0,650.0,4.0,,,,,,,,,white,square
0.0,4.0,4.0,1,5.0,5.0,801.261901855,5.0,phase_2,stop,700.0,650.0,3.0,,,,,,,,,yellow,line
0.0,7.0,3.0,1,6.0,0.0,,5.0,phase_2,stop,700.0,700.0,4.0,,,,,,,,,white,square
0.0,2.0,2.0,1,5.0,0.0,,5.0,phase_2,stop,650.0,700.0,4.0,,,,,,,,,gray,diamond
0.0,5.0,1.0,1,5.0,5.0,751.2340545650001,5.0,phase_2,stop,700.0,700.0,3.0,,,,,,,,,orange,hexagon
0.0,6.0,2.0,0,6.0,6.0,817.763090134,5.0,phase_2,go,700.0,700.0,1.0,,,,,,,,,green,cross
0.0,6.0,2.0,0,5.0,5.0,767.770051956,5.0,phase_2,go,700.0,700.0,1.0,,,,,,,,,green,cross
0.0,1.0,1.0,0,6.0,6.0,717.6711559299999,5.0,phase_2,go,700.0,700.0,1.0,,,,,,,,,magenta,triangle
0.0,6.0,2.0,0,6.0,6.0,801.045894623,5.0,phase_2,go,700.0,700.0,1.0,,,,,,,,,green,cross
0.0,3.0,3.0,0,5.0,5.0,834.496021271,5.0,phase_2,go,700.0,700.0,1.0,,,,,,,,,cyan,circle
0.0,7.0,3.0,1,6.0,6.0,901.354074478,5.0,phase_2,stop,700.0,750.0,3.0,,,,,,,,,white,square
0.0,4.0,4.0,1,5.0,0.0,,5.0,phase_2,stop,650.0,750.0,4.0,,,,,,,,,yellow,line
0.0,8.0,4.0,0,6.0,0.0,,5.0,phase_2,go,650.0,750.0,5.0,,,,,,,,,blue,flipped triangle
0.0,3.0,3.0,0,5.0,5.0,734.616041183,5.0,phase_2,go,650.0,750.0,1.0,,,,,,,,,cyan,circle
0.0,8.0,4.0,0,6.0,6.0,817.993164062,5.0,phase_2,go,650.0,750.0,1.0,,,,,,,,,blue,flipped triangle
0.0,2.0,2.0,1,5.0,0.0,,5.0,phase_2,stop,700.0,750.0,4.0,,,,,,,,,gray,diamond
0.0,8.0,4.0,0,6.0,6.0,868.0369853970001,5.0,phase_2,go,700.0,750.0,1.0,,,,,,,,,blue,flipped triangle
0.0,3.0,3.0,0,5.0,5.0,734.00592804,5.0,phase_2,go,700.0,750.0,1.0,,,,,,,,,cyan,circle
0.0,3.0,3.0,0,5.0,5.0,501.07884407,5.0,phase_2,go,700.0,750.0,1.0,,,,,,,,,cyan,circle
0.0,1.0,1.0,0,5.0,5.0,868.119001389,5.0,phase_2,go,700.0,750.0,1.0,,,,,,,,,magenta,triangle
0.0,3.0,3.0,0,5.0,5.0,951.366901398,5.0,phase_2,go,700.0,750.0,1.0,,,,,,,,,cyan,circle
0.0,2.0,2.0,1,5.0,0.0,,5.0,phase_2,stop,750.0,750.0,4.0,,,,,,,,,gray,diamond
0.0,4.0,4.0,1,5.0,5.0,917.870044708,5.0,phase_2,stop,750.0,750.0,3.0,,,,,,,,,yellow,line
0.0,1.0,1.0,0,6.0,0.0,,5.0,phase_2,go,750.0,750.0,5.0,,,,,,,,,magenta,triangle
0.0,3.0,3.0,0,6.0,6.0,817.946195602,5.0,phase_2,go,750.0,750.0,1.0,,,,,,,,,cyan,circle
0.0,2.0,2.0,1,6.0,0.0,,5.0,phase_2,stop,750.0,700.0,4.0,,,,,,,,,gray,diamond
0.0,3.0,3.0,0,5.0,5.0,952.050924301,5.0,phase_2,go,750.0,700.0,1.0,,,,,,,,,cyan,circle
0.0,3.0,3.0,0,6.0,6.0,951.425075531,5.0,phase_2,go,750.0,700.0,1.0,,,,,,,,,cyan,circle
0.0,7.0,3.0,1,5.0,5.0,751.3880729680001,6.0,phase_2,stop,700.0,700.0,3.0,,,,,,,,,white,square
0.0,4.0,4.0,1,6.0,6.0,634.4521045680001,6.0,phase_2,go,700.0,700.0,1.0,,,,,,,,,yellow,line
0.0,8.0,4.0,0,6.0,6.0,868.303060532,6.0,phase_2,go,700.0,700.0,1.0,,,,,,,,,blue,flipped triangle
0.0,6.0,2.0,0,5.0,5.0,751.336097717,6.0,phase_2,go,700.0,700.0,1.0,,,,,,,,,green,cross
0.0,6.0,2.0,0,6.0,6.0,801.385879517,6.0,phase_2,go,700.0,700.0,1.0,,,,,,,,,green,cross
0.0,6.0,2.0,0,5.0,5.0,767.8430080410001,6.0,phase_2,go,700.0,700.0,1.0,,,,,,,,,green,cross
0.0,1.0,1.0,0,6.0,6.0,667.824983597,6.0,phase_2,go,700.0,700.0,1.0,,,,,,,,,magenta,triangle
0.0,5.0,1.0,1,6.0,6.0,751.3430118560001,6.0,phase_2,stop,700.0,750.0,3.0,,,,,,,,,orange,hexagon
0.0,4.0,4.0,1,6.0,0.0,,6.0,phase_2,go,700.0,750.0,5.0,,,,,,,,,yellow,line
0.0,5.0,1.0,1,5.0,5.0,484.028100967,6.0,phase_2,stop,650.0,750.0,3.0,,,,,,,,,orange,hexagon
0.0,8.0,4.0,0,5.0,0.0,,6.0,phase_2,go,650.0,750.0,5.0,,,,,,,,,blue,flipped triangle
0.0,2.0,2.0,1,5.0,5.0,884.481906891,6.0,phase_2,go,650.0,750.0,1.0,,,,,,,,,gray,diamond
0.0,3.0,3.0,0,5.0,5.0,834.3780040739999,6.0,phase_2,go,650.0,750.0,1.0,,,,,,,,,cyan,circle
0.0,4.0,4.0,1,5.0,5.0,617.963075638,6.0,phase_2,go,650.0,750.0,1.0,,,,,,,,,yellow,line
0.0,7.0,3.0,1,5.0,0.0,,6.0,phase_2,stop,600.0,750.0,4.0,,,,,,,,,white,square
0.0,3.0,3.0,0,6.0,6.0,834.192037582,6.0,phase_2,go,600.0,750.0,1.0,,,,,,,,,cyan,circle
0.0,2.0,2.0,1,6.0,6.0,751.582860947,6.0,phase_2,stop,600.0,700.0,3.0,,,,,,,,,gray,diamond
0.0,5.0,1.0,1,6.0,0.0,,6.0,phase_2,stop,600.0,650.0,4.0,,,,,,,,,orange,hexagon
0.0,5.0,1.0,1,5.0,5.0,768.543958664,6.0,phase_2,stop,650.0,650.0,3.0,,,,,,,,,orange,hexagon
0.0,4.0,4.0,1,5.0,5.0,901.111841202,6.0,phase_2,go,650.0,650.0,1.0,,,,,,,,,yellow,line
0.0,7.0,3.0,1,6.0,6.0,834.595918655,6.0,phase_2,stop,650.0,700.0,3.0,,,,,,,,,white,square
0.0,7.0,3.0,1,5.0,0.0,,6.0,phase_2,stop,600.0,700.0,4.0,,,,,,,,,white,square
0.0,4.0,4.0,1,6.0,0.0,,6.0,phase_2,stop,600.0,650.0,4.0,,,,,,,,,yellow,line
0.0,5.0,1.0,1,5.0,0.0,,6.0,phase_2,stop,650.0,650.0,4.0,,,,,,,,,orange,hexagon
0.0,4.0,4.0,1,6.0,6.0,767.8270339970001,6.0,phase_2,stop,650.0,700.0,3.0,,,,,,,,,yellow,line
0.0,5.0,1.0,1,5.0,0.0,,6.0,phase_2,go,650.0,700.0,5.0,,,,,,,,,orange,hexagon
0.0,5.0,1.0,1,6.0,6.0,734.467983246,6.0,phase_2,stop,650.0,650.0,3.0,,,,,,,,,orange,hexagon
0.0,5.0,1.0,1,6.0,0.0,,6.0,phase_2,stop,650.0,600.0,4.0,,,,,,,,,orange,hexagon
0.0,7.0,3.0,1,5.0,0.0,,6.0,phase_2,go,650.0,600.0,5.0,,,,,,,,,white,square
0.0,2.0,2.0,1,6.0,0.0,,6.0,phase_2,stop,650.0,650.0,4.0,,,,,,,,,gray,diamond
0.0,8.0,4.0,0,6.0,0.0,,6.0,phase_2,go,650.0,650.0,5.0,,,,,,,,,blue,flipped triangle
0.0,6.0,2.0,0,5.0,5.0,817.952871323,6.0,phase_2,go,650.0,650.0,1.0,,,,,,,,,green,cross
0.0,4.0,4.0,1,6.0,6.0,918.8010692600001,6.0,phase_2,go,650.0,650.0,1.0,,,,,,,,,yellow,line
0.0,1.0,1.0,0,5.0,5.0,901.484012604,6.0,phase_2,go,650.0,650.0,1.0,,,,,,,,,magenta,triangle
0.0,3.0,3.0,0,6.0,6.0,884.873151779,6.0,phase_2,go,650.0,650.0,1.0,,,,,,,,,cyan,circle
0.0,2.0,2.0,1,5.0,5.0,868.0930137629999,6.0,phase_2,go,650.0,650.0,1.0,,,,,,,,,gray,diamond
0.0,1.0,1.0,0,6.0,6.0,850.8498668670001,7.0,phase_2,go,650.0,650.0,1.0,,,,,,,,,magenta,triangle
0.0,1.0,1.0,0,6.0,6.0,784.8150730130001,7.0,phase_2,go,650.0,650.0,1.0,,,,,,,,,magenta,triangle
0.0,8.0,4.0,0,6.0,6.0,801.3451099399999,7.0,phase_2,go,650.0,650.0,1.0,,,,,,,,,blue,flipped triangle
0.0,3.0,3.0,0,5.0,5.0,733.741044998,7.0,phase_2,go,650.0,650.0,1.0,,,,,,,,,cyan,circle
0.0,1.0,1.0,0,5.0,5.0,751.2028217320001,7.0,phase_2,go,650.0,650.0,1.0,,,,,,,,,magenta,triangle
0.0,7.0,3.0,1,5.0,5.0,851.511001587,7.0,phase_2,go,650.0,650.0,1.0,,,,,,,,,white,square
0.0,8.0,4.0,0,6.0,6.0,750.903129578,7.0,phase_2,go,650.0,650.0,1.0,,,,,,,,,blue,flipped triangle
0.0,6.0,2.0,0,5.0,5.0,668.035984039,7.0,phase_2,go,650.0,650.0,1.0,,,,,,,,,green,cross
0.0,5.0,1.0,1,5.0,5.0,834.706068039,7.0,phase_2,stop,700.0,650.0,3.0,,,,,,,,,orange,hexagon
0.0,2.0,2.0,1,6.0,6.0,851.0189056400001,7.0,phase_2,stop,700.0,700.0,3.0,,,,,,,,,gray,diamond
0.0,6.0,2.0,0,6.0,0.0,,7.0,phase_2,go,700.0,700.0,5.0,,,,,,,,,green,cross
0.0,8.0,4.0,0,6.0,6.0,851.0470390319999,7.0,phase_2,go,700.0,700.0,1.0,,,,,,,,,blue,flipped triangle
0.0,8.0,4.0,0,6.0,6.0,801.898956299,7.0,phase_2,go,700.0,700.0,1.0,,,,,,,,,blue,flipped triangle
0.0,5.0,1.0,1,5.0,5.0,885.098934174,7.0,phase_2,go,700.0,700.0,1.0,,,,,,,,,orange,hexagon
0.0,6.0,2.0,0,5.0,5.0,817.837953568,7.0,phase_2,go,700.0,700.0,1.0,,,,,,,,,green,cross
0.0,7.0,3.0,1,5.0,0.0,,7.0,phase_2,stop,650.0,700.0,4.0,,,,,,,,,white,square
0.0,8.0,4.0,0,5.0,0.0,,7.0,phase_2,go,650.0,700.0,5.0,,,,,,,,,blue,flipped triangle
0.0,2.0,2.0,1,5.0,0.0,,7.0,phase_2,stop,700.0,700.0,4.0,,,,,,,,,gray,diamond
0.0,6.0,2.0,0,6.0,0.0,,7.0,phase_2,go,700.0,700.0,5.0,,,,,,,,,green,cross
0.0,4.0,4.0,1,6.0,0.0,,7.0,phase_2,stop,700.0,650.0,4.0,,,,,,,,,yellow,line
0.0,3.0,3.0,0,5.0,5.0,900.7329940799999,7.0,phase_2,go,700.0,650.0,1.0,,,,,,,,,cyan,circle
0.0,8.0,4.0,0,5.0,0.0,,7.0,phase_2,go,700.0,650.0,5.0,,,,,,,,,blue,flipped triangle
0.0,1.0,1.0,0,6.0,6.0,801.1639118190001,7.0,phase_2,go,700.0,650.0,1.0,,,,,,,,,magenta,triangle
0.0,8.0,4.0,0,6.0,0.0,,7.0,phase_2,go,700.0,650.0,5.0,,,,,,,,,blue,flipped triangle
0.0,5.0,1.0,1,5.0,5.0,801.205158234,7.0,phase_2,stop,750.0,650.0,3.0,,,,,,,,,orange,hexagon
0.0,5.0,1.0,1,6.0,0.0,,7.0,phase_2,stop,750.0,700.0,4.0,,,,,,,,,orange,hexagon
0.0,3.0,3.0,0,5.0,5.0,951.133966446,7.0,phase_2,go,750.0,700.0,1.0,,,,,,,,,cyan,circle
0.0,1.0,1.0,0,5.0,5.0,751.38092041,7.0,phase_2,go,750.0,700.0,1.0,,,,,,,,,magenta,triangle
0.0,8.0,4.0,0,6.0,6.0,817.9130554200001,7.0,phase_2,go,750.0,700.0,1.0,,,,,,,,,blue,flipped triangle
0.0,3.0,3.0,0,5.0,5.0,885.232210159,7.0,phase_2,go,750.0,700.0,1.0,,,,,,,,,cyan,circle
0.0,5.0,1.0,1,6.0,0.0,,7.0,phase_2,stop,750.0,750.0,4.0,,,,,,,,,orange,hexagon
0.0,4.0,4.0,1,5.0,5.0,851.4280319210001,7.0,phase_2,stop,700.0,750.0,3.0,,,,,,,,,yellow,line
0.0,7.0,3.0,1,6.0,0.0,,7.0,phase_2,go,700.0,750.0,5.0,,,,,,,,,white,square
0.0,2.0,2.0,1,6.0,0.0,,7.0,phase_2,stop,700.0,750.0,4.0,,,,,,,,,gray,diamond
0.0,1.0,1.0,0,5.0,5.0,851.7749309540001,7.0,phase_2,go,700.0,750.0,1.0,,,,,,,,,magenta,triangle
0.0,4.0,4.0,1,6.0,6.0,717.7100181579999,7.0,phase_2,stop,700.0,750.0,3.0,,,,,,,,,yellow,line
0.0,5.0,1.0,1,6.0,6.0,884.602069855,8.0,phase_2,stop,700.0,700.0,3.0,,,,,,,,,orange,hexagon
0.0,4.0,4.0,1,5.0,5.0,701.063871384,8.0,phase_2,stop,650.0,700.0,3.0,,,,,,,,,yellow,line
0.0,5.0,1.0,1,6.0,6.0,951.536893845,8.0,phase_2,go,650.0,700.0,1.0,,,,,,,,,orange,hexagon
0.0,2.0,2.0,1,6.0,0.0,,8.0,phase_2,stop,650.0,650.0,4.0,,,,,,,,,gray,diamond
0.0,2.0,2.0,1,6.0,0.0,,8.0,phase_2,stop,650.0,700.0,4.0,,,,,,,,,gray,diamond
0.0,6.0,2.0,0,5.0,5.0,884.7618103030001,8.0,phase_2,go,650.0,700.0,1.0,,,,,,,,,green,cross
0.0,5.0,1.0,1,6.0,6.0,884.541988373,8.0,phase_2,stop,650.0,750.0,3.0,,,,,,,,,orange,hexagon
0.0,1.0,1.0,0,5.0,0.0,,8.0,phase_2,go,650.0,750.0,5.0,,,,,,,,,magenta,triangle
0.0,4.0,4.0,1,5.0,0.0,,8.0,phase_2,stop,600.0,750.0,4.0,,,,,,,,,yellow,line
0.0,3.0,3.0,0,6.0,6.0,851.232051849,8.0,phase_2,go,600.0,750.0,1.0,,,,,,,,,cyan,circle
0.0,2.0,2.0,1,5.0,5.0,884.807109833,8.0,phase_2,go,600.0,750.0,1.0,,,,,,,,,gray,diamond
0.0,8.0,4.0,0,6.0,6.0,884.7050666810001,8.0,phase_2,go,600.0,750.0,1.0,,,,,,,,,blue,flipped triangle
0.0,4.0,4.0,1,5.0,0.0,,8.0,phase_2,stop,650.0,750.0,4.0,,,,,,,,,yellow,line
0.0,6.0,2.0,0,6.0,6.0,918.2839393620001,8.0,phase_2,go,650.0,750.0,1.0,,,,,,,,,green,cross
0.0,2.0,2.0,1,6.0,0.0,,8.0,phase_2,stop,650.0,700.0,4.0,,,,,,,,,gray,diamond
0.0,6.0,2.0,0,6.0,0.0,,8.0,phase_2,go,650.0,700.0,5.0,,,,,,,,,green,cross
0.0,8.0,4.0,0,5.0,5.0,651.5040397639999,8.0,phase_2,go,650.0,700.0,1.0,,,,,,,,,blue,flipped triangle
0.0,6.0,2.0,0,6.0,6.0,783.999919891,8.0,phase_2,go,650.0,700.0,1.0,,,,,,,,,green,cross
0.0,3.0,3.0,0,5.0,5.0,734.147071838,8.0,phase_2,go,650.0,700.0,1.0,,,,,,,,,cyan,circle
0.0,8.0,4.0,0,6.0,6.0,818.021059036,8.0,phase_2,go,650.0,700.0,1.0,,,,,,,,,blue,flipped triangle
0.0,5.0,1.0,1,5.0,5.0,917.9959297180001,8.0,phase_2,go,650.0,700.0,1.0,,,,,,,,,orange,hexagon
0.0,8.0,4.0,0,5.0,5.0,867.882013321,8.0,phase_2,go,650.0,700.0,1.0,,,,,,,,,blue,flipped triangle
0.0,5.0,1.0,1,6.0,6.0,884.814977646,8.0,phase_2,go,650.0,700.0,1.0,,,,,,,,,orange,hexagon
0.0,4.0,4.0,1,6.0,0.0,,8.0,phase_2,stop,650.0,750.0,4.0,,,,,,,,,yellow,line
0.0,3.0,3.0,0,5.0,5.0,901.307821274,8.0,phase_2,go,650.0,750.0,1.0,,,,,,,,,cyan,circle
0.0,1.0,1.0,0,5.0,5.0,817.794084549,8.0,phase_2,go,650.0,750.0,1.0,,,,,,,,,magenta,triangle
0.0,1.0,1.0,0,6.0,6.0,967.706918716,8.0,phase_2,go,650.0,750.0,1.0,,,,,,,,,magenta,triangle
0.0,4.0,4.0,1,5.0,5.0,817.9519176480001,8.0,phase_2,go,650.0,750.0,1.0,,,,,,,,,yellow,line
0.0,8.0,4.0,0,5.0,5.0,851.0999679570001,8.0,phase_2,go,650.0,750.0,1.0,,,,,,,,,blue,flipped triangle
0.0,5.0,1.0,1,6.0,0.0,,8.0,phase_2,stop,650.0,750.0,4.0,,,,,,,,,orange,hexagon
0.0,7.0,3.0,1,5.0,0.0,,8.0,phase_2,stop,700.0,750.0,4.0,,,,,,,,,white,square
0.0,5.0,1.0,1,5.0,5.0,801.2890815730001,8.0,phase_2,stop,750.0,750.0,3.0,,,,,,,,,orange,hexagon
0.0,2.0,2.0,1,5.0,0.0,,8.0,phase_2,stop,700.0,750.0,4.0,,,,,,,,,gray,diamond
0.0,6.0,2.0,0,5.0,5.0,951.600074768,8.0,phase_2,go,700.0,750.0,1.0,,,,,,,,,green,cross
0.0,1.0,1.0,0,6.0,6.0,884.693861008,8.0,phase_2,go,700.0,750.0,1.0,,,,,,,,,magenta,triangle
0.0,7.0,3.0,1,6.0,0.0,,8.0,phase_2,go,700.0,750.0,5.0,,,,,,,,,white,square
0.0,5.0,1.0,1,7.0,,,1.0,phase_3,,,,,0.0,,196.0,147.0,245.0,98.0,294.0,49.0,orange,hexagon
0.0,4.0,4.0,1,7.0,2.0,2569.63706017,1.0,phase_3,,,,,49.0,1.0,245.0,49.0,294.0,98.0,196.0,147.0,yellow,line
0.0,3.0,3.0,0,7.0,5.0,1952.8110027300002,1.0,phase_3,,,,,270.0,5.0,54.0,324.0,162.0,108.0,270.0,216.0,cyan,circle
0.0,4.0,4.0,1,7.0,5.0,1802.25682259,1.0,phase_3,,,,,54.0,1.0,162.0,216.0,270.0,108.0,54.0,324.0,yellow,line
0.0,8.0,4.0,0,7.0,4.0,1801.88989639,1.0,phase_3,,,,,234.0,6.0,156.0,117.0,39.0,234.0,195.0,78.0,blue,flipped triangle
0.0,6.0,2.0,0,7.0,4.0,1735.3699207299999,1.0,phase_3,,,,,54.0,1.0,270.0,324.0,162.0,54.0,216.0,108.0,green,cross
0.0,5.0,1.0,1,7.0,2.0,2486.57798767,1.0,phase_3,,,,,88.0,2.0,264.0,88.0,220.0,44.0,132.0,176.0,orange,hexagon
0.0,2.0,2.0,1,7.0,1.0,2118.9739704099998,1.0,phase_3,,,,,54.0,1.0,54.0,324.0,162.0,108.0,216.0,270.0,gray,diamond
0.0,7.0,3.0,1,7.0,6.0,2085.60991287,1.0,phase_3,,,,,54.0,1.0,270.0,108.0,324.0,162.0,216.0,54.0,white,square
0.0,7.0,3.0,1,7.0,1.0,1701.85613632,1.0,phase_3,,,,,54.0,1.0,54.0,108.0,324.0,216.0,270.0,162.0,white,square
0.0,6.0,2.0,0,7.0,2.0,1735.47911644,1.0,phase_3,,,,,196.0,4.0,98.0,196.0,245.0,294.0,49.0,147.0,green,cross
0.0,4.0,4.0,1,7.0,6.0,2052.60396004,1.0,phase_3,,,,,78.0,2.0,39.0,117.0,195.0,156.0,234.0,78.0,yellow,line
0.0,8.0,4.0,0,7.0,5.0,1818.78304482,1.0,phase_3,,,,,324.0,6.0,54.0,270.0,216.0,162.0,324.0,108.0,blue,flipped triangle
0.0,3.0,3.0,0,7.0,3.0,1835.18195152,1.0,phase_3,,,,,117.0,3.0,234.0,156.0,117.0,195.0,39.0,78.0,cyan,circle
0.0,7.0,3.0,1,7.0,6.0,1652.3809433000001,1.0,phase_3,,,,,44.0,1.0,264.0,176.0,220.0,88.0,132.0,44.0,white,square
0.0,7.0,3.0,1,7.0,3.0,1668.4339046500002,1.0,phase_3,,,,,34.0,1.0,102.0,170.0,34.0,204.0,136.0,68.0,white,square
0.0,6.0,2.0,0,7.0,1.0,1952.657938,1.0,phase_3,,,,,132.0,3.0,132.0,176.0,264.0,44.0,220.0,88.0,green,cross
0.0,5.0,1.0,1,7.0,2.0,2069.66710091,1.0,phase_3,,,,,136.0,4.0,34.0,136.0,102.0,68.0,204.0,170.0,orange,hexagon
0.0,1.0,1.0,0,7.0,2.0,1701.97701454,1.0,phase_3,,,,,162.0,3.0,324.0,162.0,54.0,270.0,108.0,216.0,magenta,triangle
0.0,4.0,4.0,1,7.0,3.0,2035.56108475,1.0,phase_3,,,,,102.0,3.0,204.0,170.0,102.0,34.0,136.0,68.0,yellow,line
0.0,6.0,2.0,0,7.0,5.0,2286.0369682299997,2.0,phase_3,,,,,132.0,3.0,264.0,44.0,220.0,88.0,132.0,176.0,green,cross
0.0,5.0,1.0,1,7.0,3.0,1401.9370079,2.0,phase_3,,,,,156.0,4.0,234.0,78.0,156.0,117.0,195.0,39.0,orange,hexagon
0.0,4.0,4.0,1,7.0,3.0,2068.95112991,2.0,phase_3,,,,,98.0,2.0,294.0,49.0,98.0,196.0,147.0,245.0,yellow,line
0.0,7.0,3.0,1,7.0,2.0,1602.3800373099998,2.0,phase_3,,,,,49.0,1.0,294.0,49.0,147.0,98.0,196.0,245.0,white,square
0.0,2.0,2.0,1,7.0,3.0,1852.2028923,2.0,phase_3,,,,,34.0,1.0,204.0,136.0,34.0,170.0,102.0,68.0,gray,diamond
0.0,3.0,3.0,0,7.0,2.0,1402.1542072299999,2.0,phase_3,,,,,136.0,4.0,34.0,136.0,102.0,204.0,68.0,170.0,cyan,circle
0.0,6.0,2.0,0,7.0,4.0,1351.97806358,2.0,phase_3,,,,,117.0,3.0,156.0,234.0,39.0,117.0,78.0,195.0,green,cross
0.0,3.0,3.0,0,7.0,3.0,1502.24590302,2.0,phase_3,,,,,196.0,4.0,294.0,49.0,196.0,245.0,147.0,98.0,cyan,circle
0.0,3.0,3.0,0,7.0,3.0,934.6320629119999,2.0,phase_3,,,,,170.0,5.0,102.0,68.0,170.0,34.0,136.0,204.0,cyan,circle
0.0,1.0,1.0,0,7.0,4.0,2102.6048660300003,2.0,phase_3,,,,,170.0,5.0,68.0,136.0,204.0,170.0,34.0,102.0,magenta,triangle
0.0,6.0,2.0,0,7.0,2.0,1801.71108246,2.0,phase_3,,,,,196.0,4.0,245.0,196.0,147.0,49.0,98.0,294.0,green,cross
0.0,4.0,4.0,1,7.0,5.0,1985.85700989,2.0,phase_3,,,,,88.0,2.0,176.0,132.0,264.0,220.0,88.0,44.0,yellow,line
0.0,8.0,4.0,0,7.0,1.0,1835.39891243,2.0,phase_3,,,,,204.0,6.0,204.0,34.0,68.0,136.0,102.0,170.0,blue,flipped triangle
0.0,3.0,3.0,0,7.0,3.0,3036.73911095,2.0,phase_3,,,,,245.0,5.0,147.0,98.0,245.0,294.0,49.0,196.0,cyan,circle
0.0,3.0,3.0,0,7.0,2.0,1618.7689304399998,2.0,phase_3,,,,,220.0,5.0,176.0,220.0,88.0,264.0,132.0,44.0,cyan,circle
0.0,7.0,3.0,1,7.0,3.0,1902.2948741900002,2.0,phase_3,,,,,39.0,1.0,117.0,195.0,39.0,156.0,234.0,78.0,white,square
0.0,7.0,3.0,1,7.0,2.0,1551.91802979,2.0,phase_3,,,,,49.0,1.0,196.0,49.0,245.0,294.0,98.0,147.0,white,square
0.0,8.0,4.0,0,7.0,3.0,2152.54712105,2.0,phase_3,,,,,264.0,6.0,220.0,176.0,264.0,88.0,44.0,132.0,blue,flipped triangle
0.0,1.0,1.0,0,7.0,3.0,2169.29101944,2.0,phase_3,,,,,220.0,5.0,132.0,176.0,220.0,88.0,44.0,264.0,magenta,triangle
0.0,6.0,2.0,0,7.0,5.0,2569.57507133,2.0,phase_3,,,,,156.0,4.0,117.0,78.0,234.0,195.0,156.0,39.0,green,cross
0.0,8.0,4.0,0,7.0,1.0,2085.58988571,3.0,phase_3,,,,,245.0,5.0,245.0,49.0,196.0,98.0,147.0,294.0,blue,flipped triangle
0.0,5.0,1.0,1,7.0,2.0,1919.31796074,3.0,phase_3,,,,,196.0,4.0,245.0,196.0,98.0,147.0,294.0,49.0,orange,hexagon
0.0,2.0,2.0,1,7.0,3.0,2035.73107719,3.0,phase_3,,,,,44.0,1.0,88.0,176.0,44.0,132.0,264.0,220.0,gray,diamond
0.0,3.0,3.0,0,7.0,5.0,2119.62795258,3.0,phase_3,,,,,176.0,4.0,132.0,264.0,88.0,44.0,176.0,220.0,cyan,circle
0.0,5.0,1.0,1,7.0,2.0,1785.43806076,3.0,phase_3,,,,,162.0,3.0,108.0,162.0,54.0,270.0,324.0,216.0,orange,hexagon
0.0,2.0,2.0,1,7.0,3.0,1968.9218998,3.0,phase_3,,,,,34.0,1.0,102.0,170.0,34.0,136.0,68.0,204.0,gray,diamond
0.0,1.0,1.0,0,7.0,3.0,1902.4419784499999,3.0,phase_3,,,,,196.0,4.0,294.0,245.0,196.0,49.0,98.0,147.0,magenta,triangle
0.0,2.0,2.0,1,7.0,6.0,1251.21593475,3.0,phase_3,,,,,49.0,1.0,196.0,245.0,147.0,294.0,98.0,49.0,gray,diamond
0.0,4.0,4.0,1,7.0,4.0,1451.9140720399998,3.0,phase_3,,,,,162.0,3.0,270.0,54.0,108.0,162.0,324.0,216.0,yellow,line
0.0,1.0,1.0,0,7.0,4.0,1351.60899162,3.0,phase_3,,,,,195.0,5.0,78.0,39.0,156.0,195.0,117.0,234.0,magenta,triangle
0.0,7.0,3.0,1,7.0,6.0,1267.9829597500002,3.0,phase_3,,,,,34.0,1.0,136.0,204.0,68.0,102.0,170.0,34.0,white,square
0.0,8.0,4.0,0,7.0,5.0,2068.85099411,3.0,phase_3,,,,,234.0,6.0,156.0,195.0,39.0,117.0,234.0,78.0,blue,flipped triangle
0.0,8.0,4.0,0,7.0,3.0,2235.79287529,3.0,phase_3,,,,,245.0,5.0,98.0,147.0,245.0,294.0,196.0,49.0,blue,flipped triangle
0.0,2.0,2.0,1,7.0,3.0,1735.53514481,3.0,phase_3,,,,,44.0,1.0,132.0,176.0,44.0,88.0,220.0,264.0,gray,diamond
0.0,5.0,1.0,1,7.0,2.0,2186.03491783,3.0,phase_3,,,,,108.0,2.0,270.0,108.0,54.0,162.0,324.0,216.0,orange,hexagon
0.0,2.0,2.0,1,7.0,3.0,1502.24304199,3.0,phase_3,,,,,49.0,1.0,245.0,196.0,49.0,98.0,294.0,147.0,gray,diamond
0.0,2.0,2.0,1,7.0,5.0,1885.32090187,3.0,phase_3,,,,,78.0,2.0,156.0,117.0,234.0,39.0,78.0,195.0,gray,diamond
0.0,8.0,4.0,0,7.0,6.0,1919.58379745,3.0,phase_3,,,,,204.0,6.0,34.0,68.0,102.0,170.0,136.0,204.0,blue,flipped triangle
0.0,8.0,4.0,0,7.0,2.0,2002.8450488999997,3.0,phase_3,,,,,220.0,5.0,132.0,220.0,176.0,44.0,264.0,88.0,blue,flipped triangle
0.0,5.0,1.0,1,7.0,1.0,2369.4729804999997,3.0,phase_3,,,,,132.0,3.0,132.0,264.0,220.0,44.0,88.0,176.0,orange,hexagon
0.0,6.0,2.0,0,7.0,3.0,2285.81380844,4.0,phase_3,,,,,102.0,3.0,170.0,68.0,102.0,204.0,34.0,136.0,green,cross
0.0,1.0,1.0,0,7.0,3.0,1201.13515854,4.0,phase_3,,,,,176.0,4.0,88.0,132.0,176.0,44.0,220.0,264.0,magenta,triangle
0.0,1.0,1.0,0,7.0,2.0,1968.91713142,4.0,phase_3,,,,,147.0,3.0,49.0,147.0,196.0,98.0,245.0,294.0,magenta,triangle
0.0,3.0,3.0,0,7.0,3.0,2152.55999565,4.0,phase_3,,,,,195.0,5.0,117.0,78.0,195.0,39.0,156.0,234.0,cyan,circle
0.0,8.0,4.0,0,7.0,6.0,3036.56888008,4.0,phase_3,,,,,324.0,6.0,162.0,270.0,108.0,54.0,216.0,324.0,blue,flipped triangle
0.0,1.0,1.0,0,7.0,5.0,2369.64988708,4.0,phase_3,,,,,195.0,5.0,156.0,39.0,117.0,234.0,195.0,78.0,magenta,triangle
0.0,7.0,3.0,1,7.0,1.0,1501.67894363,4.0,phase_3,,,,,44.0,1.0,44.0,264.0,176.0,88.0,220.0,132.0,white,square
0.0,4.0,4.0,1,7.0,6.0,1668.8508987399998,4.0,phase_3,,,,,78.0,2.0,234.0,39.0,195.0,117.0,156.0,78.0,yellow,line
0.0,2.0,2.0,1,7.0,5.0,1368.49689484,4.0,phase_3,,,,,39.0,1.0,117.0,234.0,156.0,195.0,39.0,78.0,gray,diamond
0.0,2.0,2.0,1,7.0,5.0,1751.7728805499999,4.0,phase_3,,,,,54.0,1.0,270.0,162.0,324.0,108.0,54.0,216.0,gray,diamond
0.0,1.0,1.0,0,7.0,5.0,2536.11302376,4.0,phase_3,,,,,136.0,4.0,204.0,34.0,68.0,102.0,136.0,170.0,magenta,triangle
0.0,5.0,1.0,1,7.0,6.0,2353.1460761999997,4.0,phase_3,,,,,204.0,6.0,170.0,34.0,136.0,102.0,68.0,204.0,orange,hexagon
0.0,6.0,2.0,0,7.0,5.0,1000.72193146,4.0,phase_3,,,,,170.0,5.0,102.0,68.0,136.0,34.0,170.0,204.0,green,cross
0.0,4.0,4.0,1,7.0,3.0,1585.4249000500001,4.0,phase_3,,,,,170.0,5.0,136.0,102.0,170.0,68.0,34.0,204.0,yellow,line
0.0,3.0,3.0,0,7.0,3.0,2085.9088897700003,4.0,phase_3,,,,,216.0,4.0,108.0,270.0,216.0,54.0,162.0,324.0,cyan,circle
0.0,5.0,1.0,1,7.0,3.0,2919.82483864,4.0,phase_3,,,,,156.0,4.0,117.0,195.0,156.0,78.0,234.0,39.0,orange,hexagon
0.0,7.0,3.0,1,7.0,1.0,1585.5128765099998,4.0,phase_3,,,,,39.0,1.0,39.0,117.0,195.0,156.0,234.0,78.0,white,square
0.0,4.0,4.0,1,7.0,3.0,3787.78910637,4.0,phase_3,,,,,88.0,2.0,132.0,44.0,88.0,264.0,220.0,176.0,yellow,line
0.0,1.0,1.0,0,7.0,2.0,2469.36893463,4.0,phase_3,,,,,270.0,5.0,54.0,270.0,216.0,324.0,162.0,108.0,magenta,triangle
0.0,6.0,2.0,0,7.0,3.0,3170.5799102799997,4.0,phase_3,,,,,216.0,4.0,162.0,54.0,216.0,270.0,324.0,108.0,green,cross
