stepwise_reward_magnitude,paired_with_stopping,quadrant,response,reaction_time,block,which_part,stop_signal_trial_type,left_SSD,right_SSD,accuracy,chosen_bidding_amount,chosen_bidding_level,possible_bid_1,possible_bid_2,possible_bid_3,possible_bid_4,possible_bid_5,possible_bid_6,color_text,shape_text
4.0,1,1.0,1.0,500.607013702,1.0,part_1,,,,,,,,,,,,,white,diamond
0.5,1,2.0,2.0,467.523097992,1.0,part_1,,,,,,,,,,,,,yellow,line
4.0,0,3.0,3.0,367.76685714700005,1.0,part_1,,,,,,,,,,,,,orange,flipped triangle
0.5,1,3.0,3.0,400.695085526,1.0,part_1,,,,,,,,,,,,,yellow,line
2.0,1,4.0,4.0,367.496013641,1.0,part_1,,,,,,,,,,,,,cyan,cross
1.0,0,2.0,2.0,334.29980278,1.0,part_1,,,,,,,,,,,,,magenta,hexagon
4.0,0,2.0,2.0,400.882005692,1.0,part_1,,,,,,,,,,,,,orange,flipped triangle
4.0,0,4.0,4.0,417.443037033,1.0,part_1,,,,,,,,,,,,,orange,flipped triangle
2.0,1,4.0,4.0,417.532920837,1.0,part_1,,,,,,,,,,,,,cyan,cross
2.0,1,2.0,2.0,333.995103836,1.0,part_1,,,,,,,,,,,,,cyan,cross
4.0,1,1.0,1.0,401.009082794,1.0,part_1,,,,,,,,,,,,,white,diamond
4.0,1,3.0,3.0,333.792209625,1.0,part_1,,,,,,,,,,,,,white,diamond
0.5,0,3.0,3.0,351.314783096,1.0,part_1,,,,,,,,,,,,,gray,circle
4.0,0,2.0,2.0,384.20104980499997,1.0,part_1,,,,,,,,,,,,,orange,flipped triangle
1.0,1,3.0,3.0,384.078979492,1.0,part_1,,,,,,,,,,,,,green,triangle
2.0,0,2.0,2.0,417.500019073,1.0,part_1,,,,,,,,,,,,,blue,square
1.0,1,1.0,1.0,451.026916504,1.0,part_1,,,,,,,,,,,,,green,triangle
2.0,0,2.0,2.0,317.770957947,1.0,part_1,,,,,,,,,,,,,blue,square
1.0,0,1.0,1.0,434.572935104,1.0,part_1,,,,,,,,,,,,,magenta,hexagon
2.0,1,4.0,4.0,500.532865524,1.0,part_1,,,,,,,,,,,,,cyan,cross
4.0,0,1.0,1.0,384.350061417,1.0,part_1,,,,,,,,,,,,,orange,flipped triangle
4.0,0,4.0,4.0,450.675964355,1.0,part_1,,,,,,,,,,,,,orange,flipped triangle
0.5,1,4.0,4.0,417.24896431,1.0,part_1,,,,,,,,,,,,,yellow,line
0.5,1,3.0,3.0,417.411088943,1.0,part_1,,,,,,,,,,,,,yellow,line
0.5,1,1.0,1.0,501.155853271,1.0,part_1,,,,,,,,,,,,,yellow,line
1.0,1,2.0,2.0,367.809057236,1.0,part_1,,,,,,,,,,,,,green,triangle
1.0,1,3.0,3.0,417.781114578,1.0,part_1,,,,,,,,,,,,,green,triangle
4.0,1,2.0,2.0,400.75087547299995,1.0,part_1,,,,,,,,,,,,,white,diamond
4.0,0,1.0,1.0,351.159095764,1.0,part_1,,,,,,,,,,,,,orange,flipped triangle
0.5,0,2.0,2.0,367.832899094,1.0,part_1,,,,,,,,,,,,,gray,circle
4.0,1,4.0,4.0,518.154144287,1.0,part_1,,,,,,,,,,,,,white,diamond
4.0,0,3.0,3.0,384.158849716,1.0,part_1,,,,,,,,,,,,,orange,flipped triangle
1.0,1,1.0,1.0,367.327928543,1.0,part_1,,,,,,,,,,,,,green,triangle
0.5,0,4.0,4.0,417.709112167,1.0,part_1,,,,,,,,,,,,,gray,circle
2.0,0,4.0,4.0,384.36293602,1.0,part_1,,,,,,,,,,,,,blue,square
0.5,0,2.0,2.0,435.16111373900003,1.0,part_1,,,,,,,,,,,,,gray,circle
2.0,1,1.0,1.0,450.47211647,1.0,part_1,,,,,,,,,,,,,cyan,cross
4.0,0,3.0,3.0,400.593042374,1.0,part_1,,,,,,,,,,,,,orange,flipped triangle
2.0,1,2.0,2.0,334.35606956500004,1.0,part_1,,,,,,,,,,,,,cyan,cross
2.0,0,1.0,1.0,384.428977966,1.0,part_1,,,,,,,,,,,,,blue,square
2.0,1,3.0,3.0,434.376955032,1.0,part_1,,,,,,,,,,,,,cyan,cross
2.0,0,1.0,1.0,368.016958237,1.0,part_1,,,,,,,,,,,,,blue,square
4.0,0,4.0,4.0,400.936841965,1.0,part_1,,,,,,,,,,,,,orange,flipped triangle
0.5,1,2.0,2.0,400.80595016499996,1.0,part_1,,,,,,,,,,,,,yellow,line
4.0,0,2.0,2.0,334.27381515499997,1.0,part_1,,,,,,,,,,,,,orange,flipped triangle
2.0,1,4.0,4.0,534.524202347,1.0,part_1,,,,,,,,,,,,,cyan,cross
2.0,0,4.0,4.0,500.72693824799995,1.0,part_1,,,,,,,,,,,,,blue,square
4.0,1,1.0,1.0,484.122991562,1.0,part_1,,,,,,,,,,,,,white,diamond
1.0,0,2.0,2.0,384.44900512699996,1.0,part_1,,,,,,,,,,,,,magenta,hexagon
0.5,1,3.0,3.0,417.171001434,1.0,part_1,,,,,,,,,,,,,yellow,line
4.0,1,2.0,2.0,401.569128036,1.0,part_1,,,,,,,,,,,,,white,diamond
1.0,1,3.0,3.0,417.39678382899996,1.0,part_1,,,,,,,,,,,,,green,triangle
4.0,1,1.0,1.0,417.5760746,1.0,part_1,,,,,,,,,,,,,white,diamond
2.0,0,4.0,4.0,400.863170624,1.0,part_1,,,,,,,,,,,,,blue,square
1.0,1,1.0,1.0,417.344093323,1.0,part_1,,,,,,,,,,,,,green,triangle
1.0,0,4.0,4.0,417.71793365499997,1.0,part_1,,,,,,,,,,,,,magenta,hexagon
0.5,1,1.0,1.0,417.72699356100003,1.0,part_1,,,,,,,,,,,,,yellow,line
1.0,0,1.0,1.0,417.498826981,1.0,part_1,,,,,,,,,,,,,magenta,hexagon
1.0,0,3.0,3.0,367.323875427,1.0,part_1,,,,,,,,,,,,,magenta,hexagon
2.0,0,2.0,2.0,400.85506439200003,1.0,part_1,,,,,,,,,,,,,blue,square
4.0,0,3.0,3.0,517.538070679,1.0,part_1,,,,,,,,,,,,,orange,flipped triangle
2.0,0,3.0,3.0,401.12709999099997,1.0,part_1,,,,,,,,,,,,,blue,square
0.5,1,3.0,3.0,400.759935379,1.0,part_1,,,,,,,,,,,,,yellow,line
2.0,0,1.0,1.0,400.74801445,1.0,part_1,,,,,,,,,,,,,blue,square
4.0,1,2.0,2.0,367.298126221,1.0,part_1,,,,,,,,,,,,,white,diamond
0.5,1,3.0,3.0,417.335987091,1.0,part_1,,,,,,,,,,,,,yellow,line
1.0,0,2.0,2.0,401.30114555399996,1.0,part_1,,,,,,,,,,,,,magenta,hexagon
2.0,1,1.0,1.0,401.304960251,1.0,part_1,,,,,,,,,,,,,cyan,cross
2.0,1,2.0,2.0,334.33103561400003,1.0,part_1,,,,,,,,,,,,,cyan,cross
1.0,1,1.0,1.0,417.468070984,1.0,part_1,,,,,,,,,,,,,green,triangle
4.0,0,4.0,4.0,417.488098145,1.0,part_1,,,,,,,,,,,,,orange,flipped triangle
4.0,0,1.0,1.0,450.925111771,1.0,part_1,,,,,,,,,,,,,orange,flipped triangle
4.0,1,4.0,4.0,467.403888702,1.0,part_1,,,,,,,,,,,,,white,diamond
4.0,0,4.0,4.0,417.055130005,1.0,part_1,,,,,,,,,,,,,orange,flipped triangle
0.5,0,3.0,3.0,417.70195961,1.0,part_1,,,,,,,,,,,,,gray,circle
2.0,0,2.0,2.0,384.349107742,1.0,part_1,,,,,,,,,,,,,blue,square
4.0,1,4.0,4.0,401.016950607,1.0,part_1,,,,,,,,,,,,,white,diamond
4.0,1,1.0,1.0,434.448003769,1.0,part_1,,,,,,,,,,,,,white,diamond
0.5,1,2.0,2.0,367.53201484699997,1.0,part_1,,,,,,,,,,,,,yellow,line
0.5,0,2.0,2.0,467.3640728,1.0,part_1,,,,,,,,,,,,,gray,circle
1.0,1,4.0,4.0,450.616121292,1.0,part_1,,,,,,,,,,,,,green,triangle
1.0,1,3.0,3.0,350.824117661,1.0,part_1,,,,,,,,,,,,,green,triangle
4.0,1,4.0,4.0,367.617845535,1.0,part_1,,,,,,,,,,,,,white,diamond
0.5,0,2.0,2.0,383.973121643,1.0,part_1,,,,,,,,,,,,,gray,circle
2.0,0,4.0,4.0,467.60487556500004,1.0,part_1,,,,,,,,,,,,,blue,square
1.0,0,3.0,3.0,434.251070023,1.0,part_1,,,,,,,,,,,,,magenta,hexagon
2.0,1,3.0,3.0,501.006126404,1.0,part_1,,,,,,,,,,,,,cyan,cross
0.5,1,4.0,4.0,417.645931244,1.0,part_1,,,,,,,,,,,,,yellow,line
4.0,1,4.0,4.0,417.67001152,1.0,part_1,,,,,,,,,,,,,white,diamond
4.0,0,3.0,3.0,400.521993637,1.0,part_1,,,,,,,,,,,,,orange,flipped triangle
2.0,1,4.0,4.0,417.30499267600004,1.0,part_1,,,,,,,,,,,,,cyan,cross
2.0,1,3.0,3.0,384.44304466200003,1.0,part_1,,,,,,,,,,,,,cyan,cross
2.0,0,3.0,3.0,351.102113724,1.0,part_1,,,,,,,,,,,,,blue,square
4.0,0,1.0,1.0,417.60396957399996,1.0,part_1,,,,,,,,,,,,,orange,flipped triangle
0.5,0,1.0,1.0,384.248018265,1.0,part_1,,,,,,,,,,,,,gray,circle
2.0,0,1.0,1.0,434.41796302800003,1.0,part_1,,,,,,,,,,,,,blue,square
4.0,0,1.0,1.0,417.854070663,1.0,part_1,,,,,,,,,,,,,orange,flipped triangle
4.0,1,3.0,3.0,418.184041977,1.0,part_1,,,,,,,,,,,,,white,diamond
0.5,0,4.0,4.0,501.01780891400006,1.0,part_1,,,,,,,,,,,,,gray,circle
0.5,1,2.0,2.0,417.61898994399996,1.0,part_1,,,,,,,,,,,,,yellow,line
0.5,0,2.0,2.0,467.51189231899997,2.0,part_1,,,,,,,,,,,,,gray,circle
2.0,0,1.0,1.0,384.691953659,2.0,part_1,,,,,,,,,,,,,blue,square
0.5,0,3.0,3.0,367.49291420000003,2.0,part_1,,,,,,,,,,,,,gray,circle
2.0,1,4.0,4.0,400.707960129,2.0,part_1,,,,,,,,,,,,,cyan,cross
0.5,0,4.0,4.0,367.411851883,2.0,part_1,,,,,,,,,,,,,gray,circle
2.0,0,3.0,3.0,417.308092117,2.0,part_1,,,,,,,,,,,,,blue,square
1.0,0,1.0,1.0,334.27000045799997,2.0,part_1,,,,,,,,,,,,,magenta,hexagon
1.0,1,1.0,1.0,384.124040604,2.0,part_1,,,,,,,,,,,,,green,triangle
2.0,1,4.0,4.0,425.594091415,2.0,part_1,,,,,,,,,,,,,cyan,cross
4.0,0,3.0,3.0,417.474985123,2.0,part_1,,,,,,,,,,,,,orange,flipped triangle
2.0,1,4.0,4.0,718.0728912349999,2.0,part_1,,,,,,,,,,,,,cyan,cross
4.0,0,1.0,1.0,334.16700363200005,2.0,part_1,,,,,,,,,,,,,orange,flipped triangle
4.0,1,2.0,2.0,284.120082855,2.0,part_1,,,,,,,,,,,,,white,diamond
1.0,0,2.0,2.0,351.24301910400004,2.0,part_1,,,,,,,,,,,,,magenta,hexagon
0.5,1,1.0,1.0,317.373991013,2.0,part_1,,,,,,,,,,,,,yellow,line
4.0,0,3.0,3.0,417.485952377,2.0,part_1,,,,,,,,,,,,,orange,flipped triangle
4.0,0,2.0,2.0,384.373903275,2.0,part_1,,,,,,,,,,,,,orange,flipped triangle
4.0,0,4.0,4.0,367.182970047,2.0,part_1,,,,,,,,,,,,,orange,flipped triangle
0.5,1,3.0,3.0,417.340993881,2.0,part_1,,,,,,,,,,,,,yellow,line
1.0,0,1.0,1.0,383.773803711,2.0,part_1,,,,,,,,,,,,,magenta,hexagon
4.0,1,2.0,2.0,350.718021393,2.0,part_1,,,,,,,,,,,,,white,diamond
0.5,0,1.0,1.0,384.491920471,2.0,part_1,,,,,,,,,,,,,gray,circle
2.0,1,1.0,1.0,417.150974274,2.0,part_1,,,,,,,,,,,,,cyan,cross
4.0,0,3.0,3.0,451.28607749900004,2.0,part_1,,,,,,,,,,,,,orange,flipped triangle
0.5,1,1.0,1.0,450.92988014199994,2.0,part_1,,,,,,,,,,,,,yellow,line
2.0,1,4.0,4.0,500.895023346,2.0,part_1,,,,,,,,,,,,,cyan,cross
0.5,0,1.0,1.0,400.74300766,2.0,part_1,,,,,,,,,,,,,gray,circle
4.0,1,2.0,2.0,350.598812103,2.0,part_1,,,,,,,,,,,,,white,diamond
0.5,0,1.0,1.0,400.986909866,2.0,part_1,,,,,,,,,,,,,gray,circle
1.0,1,4.0,4.0,450.94203949,2.0,part_1,,,,,,,,,,,,,green,triangle
2.0,0,3.0,3.0,367.75994300800005,2.0,part_1,,,,,,,,,,,,,blue,square
4.0,0,2.0,2.0,484.447002411,2.0,part_1,,,,,,,,,,,,,orange,flipped triangle
0.5,1,1.0,1.0,334.11884307900004,2.0,part_1,,,,,,,,,,,,,yellow,line
1.0,1,3.0,3.0,400.707960129,2.0,part_1,,,,,,,,,,,,,green,triangle
1.0,0,3.0,3.0,417.57106781,2.0,part_1,,,,,,,,,,,,,magenta,hexagon
1.0,0,2.0,2.0,384.161949158,2.0,part_1,,,,,,,,,,,,,magenta,hexagon
4.0,0,1.0,1.0,400.923967361,2.0,part_1,,,,,,,,,,,,,orange,flipped triangle
2.0,0,3.0,3.0,384.139060974,2.0,part_1,,,,,,,,,,,,,blue,square
1.0,0,1.0,1.0,334.239006042,2.0,part_1,,,,,,,,,,,,,magenta,hexagon
1.0,1,4.0,4.0,417.71197319,2.0,part_1,,,,,,,,,,,,,green,triangle
4.0,0,2.0,2.0,384.212970734,2.0,part_1,,,,,,,,,,,,,orange,flipped triangle
1.0,1,3.0,3.0,384.303092957,2.0,part_1,,,,,,,,,,,,,green,triangle
1.0,0,4.0,4.0,400.84695816,2.0,part_1,,,,,,,,,,,,,magenta,hexagon
4.0,0,3.0,3.0,384.13190841700003,2.0,part_1,,,,,,,,,,,,,orange,flipped triangle
2.0,0,1.0,1.0,333.995103836,2.0,part_1,,,,,,,,,,,,,blue,square
0.5,0,4.0,4.0,434.21506881700003,2.0,part_1,,,,,,,,,,,,,gray,circle
0.5,1,4.0,4.0,450.637102127,2.0,part_1,,,,,,,,,,,,,yellow,line
4.0,0,3.0,3.0,417.78182983399995,2.0,part_1,,,,,,,,,,,,,orange,flipped triangle
2.0,1,3.0,3.0,400.916099548,2.0,part_1,,,,,,,,,,,,,cyan,cross
1.0,1,4.0,4.0,434.466838837,2.0,part_1,,,,,,,,,,,,,green,triangle
2.0,0,2.0,2.0,401.625871658,2.0,part_1,,,,,,,,,,,,,blue,square
2.0,1,4.0,4.0,484.117984772,2.0,part_1,,,,,,,,,,,,,cyan,cross
2.0,0,2.0,2.0,383.85796546899996,2.0,part_1,,,,,,,,,,,,,blue,square
0.5,0,3.0,3.0,384.07611846900005,2.0,part_1,,,,,,,,,,,,,gray,circle
1.0,0,1.0,1.0,350.69704055799997,2.0,part_1,,,,,,,,,,,,,magenta,hexagon
1.0,1,3.0,3.0,384.117126465,2.0,part_1,,,,,,,,,,,,,green,triangle
0.5,1,3.0,3.0,384.140968323,2.0,part_1,,,,,,,,,,,,,yellow,line
0.5,0,1.0,1.0,551.170825958,2.0,part_1,,,,,,,,,,,,,gray,circle
1.0,1,1.0,1.0,418.004989624,2.0,part_1,,,,,,,,,,,,,green,triangle
1.0,1,2.0,2.0,350.806951523,2.0,part_1,,,,,,,,,,,,,green,triangle
2.0,1,2.0,2.0,400.873184204,2.0,part_1,,,,,,,,,,,,,cyan,cross
4.0,1,4.0,4.0,384.078025818,2.0,part_1,,,,,,,,,,,,,white,diamond
0.5,1,1.0,1.0,384.163856506,2.0,part_1,,,,,,,,,,,,,yellow,line
2.0,0,4.0,4.0,433.917999268,2.0,part_1,,,,,,,,,,,,,blue,square
0.5,0,3.0,3.0,417.91677475,2.0,part_1,,,,,,,,,,,,,gray,circle
4.0,0,2.0,2.0,317.319869995,2.0,part_1,,,,,,,,,,,,,orange,flipped triangle
0.5,0,4.0,4.0,434.611082077,2.0,part_1,,,,,,,,,,,,,gray,circle
0.5,0,2.0,2.0,500.65302848799996,2.0,part_1,,,,,,,,,,,,,gray,circle
4.0,1,1.0,1.0,367.67911911,2.0,part_1,,,,,,,,,,,,,white,diamond
2.0,1,2.0,2.0,317.436218262,2.0,part_1,,,,,,,,,,,,,cyan,cross
0.5,1,3.0,3.0,617.609024048,2.0,part_1,,,,,,,,,,,,,yellow,line
1.0,1,2.0,2.0,384.580850601,2.0,part_1,,,,,,,,,,,,,green,triangle
1.0,0,4.0,4.0,484.06195640600004,2.0,part_1,,,,,,,,,,,,,magenta,hexagon
2.0,1,3.0,3.0,417.608976364,2.0,part_1,,,,,,,,,,,,,cyan,cross
1.0,0,3.0,3.0,383.936882019,2.0,part_1,,,,,,,,,,,,,magenta,hexagon
1.0,0,2.0,2.0,367.702007294,2.0,part_1,,,,,,,,,,,,,magenta,hexagon
0.5,1,4.0,4.0,317.30890274,2.0,part_1,,,,,,,,,,,,,yellow,line
1.0,1,4.0,4.0,317.157030106,2.0,part_1,,,,,,,,,,,,,green,triangle
4.0,1,4.0,4.0,350.878953934,2.0,part_1,,,,,,,,,,,,,white,diamond
4.0,1,4.0,4.0,317.431926727,2.0,part_1,,,,,,,,,,,,,white,diamond
2.0,0,4.0,4.0,183.96115303,2.0,part_1,,,,,,,,,,,,,blue,square
4.0,1,2.0,2.0,501.38902664200003,2.0,part_1,,,,,,,,,,,,,white,diamond
1.0,0,4.0,4.0,467.685937881,2.0,part_1,,,,,,,,,,,,,magenta,hexagon
0.5,1,2.0,2.0,434.376955032,2.0,part_1,,,,,,,,,,,,,yellow,line
0.5,1,3.0,3.0,601.238012314,2.0,part_1,,,,,,,,,,,,,yellow,line
1.0,0,2.0,2.0,417.505979538,2.0,part_1,,,,,,,,,,,,,magenta,hexagon
4.0,0,3.0,3.0,400.826931,2.0,part_1,,,,,,,,,,,,,orange,flipped triangle
0.5,0,1.0,1.0,367.731809616,2.0,part_1,,,,,,,,,,,,,gray,circle
4.0,1,3.0,3.0,367.41495132399996,2.0,part_1,,,,,,,,,,,,,white,diamond
2.0,0,2.0,2.0,334.44404602099996,2.0,part_1,,,,,,,,,,,,,blue,square
0.5,1,3.0,3.0,367.409944534,2.0,part_1,,,,,,,,,,,,,yellow,line
0.5,0,2.0,2.0,434.15594101,2.0,part_1,,,,,,,,,,,,,gray,circle
1.0,0,1.0,1.0,334.56611633299997,2.0,part_1,,,,,,,,,,,,,magenta,hexagon
4.0,1,2.0,2.0,284.063816071,2.0,part_1,,,,,,,,,,,,,white,diamond
1.0,1,1.0,1.0,500.80418586700006,2.0,part_1,,,,,,,,,,,,,green,triangle
2.0,1,2.0,2.0,367.65289306600005,2.0,part_1,,,,,,,,,,,,,cyan,cross
0.5,0,4.0,4.0,417.609930038,2.0,part_1,,,,,,,,,,,,,gray,circle
0.5,1,1.0,1.0,417.499780655,2.0,part_1,,,,,,,,,,,,,yellow,line
2.0,0,1.0,1.0,433.84194374099997,2.0,part_1,,,,,,,,,,,,,blue,square
1.0,0,4.0,4.0,434.386968613,2.0,part_1,,,,,,,,,,,,,magenta,hexagon
1.0,0,1.0,1.0,467.84186363199996,3.0,part_1,,,,,,,,,,,,,magenta,hexagon
1.0,0,3.0,3.0,384.11307334900005,3.0,part_1,,,,,,,,,,,,,magenta,hexagon
4.0,1,4.0,4.0,351.31597518899997,3.0,part_1,,,,,,,,,,,,,white,diamond
1.0,0,4.0,4.0,500.903844833,3.0,part_1,,,,,,,,,,,,,magenta,hexagon
2.0,1,2.0,2.0,317.442893982,3.0,part_1,,,,,,,,,,,,,cyan,cross
0.5,0,1.0,1.0,367.342948914,3.0,part_1,,,,,,,,,,,,,gray,circle
4.0,1,4.0,4.0,484.492063522,3.0,part_1,,,,,,,,,,,,,white,diamond
1.0,1,4.0,4.0,417.69194603,3.0,part_1,,,,,,,,,,,,,green,triangle
1.0,1,3.0,3.0,384.407997131,3.0,part_1,,,,,,,,,,,,,green,triangle
2.0,1,1.0,1.0,283.699035645,3.0,part_1,,,,,,,,,,,,,cyan,cross
0.5,1,3.0,3.0,383.947849274,3.0,part_1,,,,,,,,,,,,,yellow,line
0.5,0,2.0,2.0,366.64199829100005,3.0,part_1,,,,,,,,,,,,,gray,circle
4.0,1,3.0,3.0,401.098012924,3.0,part_1,,,,,,,,,,,,,white,diamond
0.5,1,3.0,3.0,434.23581123400004,3.0,part_1,,,,,,,,,,,,,yellow,line
2.0,1,1.0,1.0,434.083223343,3.0,part_1,,,,,,,,,,,,,cyan,cross
1.0,0,3.0,3.0,400.707006454,3.0,part_1,,,,,,,,,,,,,magenta,hexagon
1.0,1,2.0,2.0,367.769002914,3.0,part_1,,,,,,,,,,,,,green,triangle
4.0,0,3.0,3.0,400.74801445,3.0,part_1,,,,,,,,,,,,,orange,flipped triangle
2.0,1,3.0,3.0,434.62395668,3.0,part_1,,,,,,,,,,,,,cyan,cross
0.5,0,4.0,4.0,484.707117081,3.0,part_1,,,,,,,,,,,,,gray,circle
1.0,0,3.0,3.0,450.728178024,3.0,part_1,,,,,,,,,,,,,magenta,hexagon
2.0,1,1.0,1.0,384.157896042,3.0,part_1,,,,,,,,,,,,,cyan,cross
0.5,0,1.0,1.0,401.261091232,3.0,part_1,,,,,,,,,,,,,gray,circle
0.5,1,2.0,2.0,418.064117432,3.0,part_1,,,,,,,,,,,,,yellow,line
2.0,1,1.0,1.0,401.041030884,3.0,part_1,,,,,,,,,,,,,cyan,cross
0.5,1,3.0,3.0,400.37703514099996,3.0,part_1,,,,,,,,,,,,,yellow,line
2.0,1,1.0,1.0,384.238004684,3.0,part_1,,,,,,,,,,,,,cyan,cross
1.0,1,3.0,3.0,351.24707222,3.0,part_1,,,,,,,,,,,,,green,triangle
2.0,0,4.0,4.0,367.562770844,3.0,part_1,,,,,,,,,,,,,blue,square
4.0,0,1.0,1.0,467.742919922,3.0,part_1,,,,,,,,,,,,,orange,flipped triangle
2.0,1,4.0,4.0,451.00998878499996,3.0,part_1,,,,,,,,,,,,,cyan,cross
2.0,0,4.0,4.0,317.966938019,3.0,part_1,,,,,,,,,,,,,blue,square
4.0,1,3.0,3.0,417.26899147,3.0,part_1,,,,,,,,,,,,,white,diamond
2.0,0,1.0,1.0,334.053993225,3.0,part_1,,,,,,,,,,,,,blue,square
4.0,0,4.0,4.0,351.013898849,3.0,part_1,,,,,,,,,,,,,orange,flipped triangle
1.0,0,2.0,2.0,400.85887908899997,3.0,part_1,,,,,,,,,,,,,magenta,hexagon
0.5,0,3.0,3.0,334.43403243999995,3.0,part_1,,,,,,,,,,,,,gray,circle
2.0,1,3.0,3.0,383.645057678,3.0,part_1,,,,,,,,,,,,,cyan,cross
1.0,0,2.0,2.0,333.956003189,3.0,part_1,,,,,,,,,,,,,magenta,hexagon
1.0,1,4.0,4.0,417.10901260400004,3.0,part_1,,,,,,,,,,,,,green,triangle
0.5,1,4.0,4.0,450.82116127,3.0,part_1,,,,,,,,,,,,,yellow,line
2.0,1,2.0,2.0,434.420824051,3.0,part_1,,,,,,,,,,,,,cyan,cross
2.0,0,3.0,3.0,384.531021118,3.0,part_1,,,,,,,,,,,,,blue,square
4.0,1,4.0,4.0,417.21606254600005,3.0,part_1,,,,,,,,,,,,,white,diamond
2.0,0,1.0,1.0,417.67001152,3.0,part_1,,,,,,,,,,,,,blue,square
0.5,0,2.0,2.0,384.532928467,3.0,part_1,,,,,,,,,,,,,gray,circle
1.0,1,2.0,2.0,317.755937576,3.0,part_1,,,,,,,,,,,,,green,triangle
0.5,1,4.0,4.0,417.85907745400004,3.0,part_1,,,,,,,,,,,,,yellow,line
0.5,1,3.0,3.0,434.20290947,3.0,part_1,,,,,,,,,,,,,yellow,line
4.0,1,1.0,1.0,384.001016617,3.0,part_1,,,,,,,,,,,,,white,diamond
0.5,0,3.0,3.0,383.945941925,3.0,part_1,,,,,,,,,,,,,gray,circle
0.5,1,1.0,1.0,401.045084,3.0,part_1,,,,,,,,,,,,,yellow,line
4.0,0,3.0,3.0,433.613061905,3.0,part_1,,,,,,,,,,,,,orange,flipped triangle
4.0,0,4.0,4.0,501.419782639,3.0,part_1,,,,,,,,,,,,,orange,flipped triangle
2.0,1,4.0,4.0,400.649785995,3.0,part_1,,,,,,,,,,,,,cyan,cross
4.0,1,3.0,3.0,450.64902305600003,3.0,part_1,,,,,,,,,,,,,white,diamond
1.0,0,3.0,3.0,350.842952728,3.0,part_1,,,,,,,,,,,,,magenta,hexagon
2.0,1,4.0,4.0,417.70792007399996,3.0,part_1,,,,,,,,,,,,,cyan,cross
4.0,0,1.0,1.0,384.752988815,3.0,part_1,,,,,,,,,,,,,orange,flipped triangle
2.0,0,4.0,4.0,450.673103333,3.0,part_1,,,,,,,,,,,,,blue,square
1.0,1,4.0,4.0,450.80113410900003,3.0,part_1,,,,,,,,,,,,,green,triangle
2.0,0,2.0,2.0,467.941045761,3.0,part_1,,,,,,,,,,,,,blue,square
1.0,0,4.0,4.0,400.778055191,3.0,part_1,,,,,,,,,,,,,magenta,hexagon
0.5,1,3.0,3.0,450.90699195900004,3.0,part_1,,,,,,,,,,,,,yellow,line
4.0,1,1.0,1.0,450.925827026,3.0,part_1,,,,,,,,,,,,,white,diamond
4.0,1,1.0,1.0,384.096860886,3.0,part_1,,,,,,,,,,,,,white,diamond
1.0,1,2.0,2.0,384.385108948,3.0,part_1,,,,,,,,,,,,,green,triangle
0.5,1,1.0,1.0,367.091178894,3.0,part_1,,,,,,,,,,,,,yellow,line
2.0,0,1.0,1.0,433.980226517,3.0,part_1,,,,,,,,,,,,,blue,square
4.0,0,4.0,4.0,383.94904136699995,3.0,part_1,,,,,,,,,,,,,orange,flipped triangle
2.0,1,2.0,2.0,351.32598877,3.0,part_1,,,,,,,,,,,,,cyan,cross
1.0,1,4.0,4.0,383.96906852700005,3.0,part_1,,,,,,,,,,,,,green,triangle
4.0,1,2.0,2.0,334.228992462,3.0,part_1,,,,,,,,,,,,,white,diamond
0.5,0,2.0,2.0,317.244052887,3.0,part_1,,,,,,,,,,,,,gray,circle
0.5,0,3.0,3.0,400.57992935199997,3.0,part_1,,,,,,,,,,,,,gray,circle
2.0,0,2.0,2.0,351.362943649,3.0,part_1,,,,,,,,,,,,,blue,square
0.5,0,4.0,4.0,401.360988617,3.0,part_1,,,,,,,,,,,,,gray,circle
4.0,1,3.0,3.0,401.329994202,3.0,part_1,,,,,,,,,,,,,white,diamond
1.0,0,1.0,1.0,434.021949768,3.0,part_1,,,,,,,,,,,,,magenta,hexagon
2.0,1,2.0,2.0,384.077787399,3.0,part_1,,,,,,,,,,,,,cyan,cross
1.0,1,2.0,2.0,384.00602340700004,3.0,part_1,,,,,,,,,,,,,green,triangle
0.5,1,2.0,2.0,384.36794281,3.0,part_1,,,,,,,,,,,,,yellow,line
4.0,0,3.0,3.0,450.77705383299997,3.0,part_1,,,,,,,,,,,,,orange,flipped triangle
1.0,0,3.0,3.0,350.892066956,3.0,part_1,,,,,,,,,,,,,magenta,hexagon
0.5,0,2.0,2.0,367.846012115,3.0,part_1,,,,,,,,,,,,,gray,circle
1.0,0,2.0,2.0,384.10902023299997,3.0,part_1,,,,,,,,,,,,,magenta,hexagon
2.0,0,2.0,2.0,383.936882019,3.0,part_1,,,,,,,,,,,,,blue,square
4.0,0,2.0,2.0,384.236812592,3.0,part_1,,,,,,,,,,,,,orange,flipped triangle
0.5,0,1.0,1.0,484.88616943399995,3.0,part_1,,,,,,,,,,,,,gray,circle
2.0,0,2.0,2.0,367.217063904,3.0,part_1,,,,,,,,,,,,,blue,square
0.5,1,1.0,1.0,501.330852509,3.0,part_1,,,,,,,,,,,,,yellow,line
2.0,1,2.0,2.0,317.49701499900004,3.0,part_1,,,,,,,,,,,,,cyan,cross
4.0,1,4.0,4.0,534.254074097,3.0,part_1,,,,,,,,,,,,,white,diamond
1.0,1,2.0,2.0,350.774049759,3.0,part_1,,,,,,,,,,,,,green,triangle
2.0,0,1.0,1.0,317.24095344499995,3.0,part_1,,,,,,,,,,,,,blue,square
4.0,0,1.0,1.0,384.469985962,3.0,part_1,,,,,,,,,,,,,orange,flipped triangle
0.5,0,4.0,4.0,434.014081955,3.0,part_1,,,,,,,,,,,,,gray,circle
2.0,0,1.0,1.0,350.31890869100005,3.0,part_1,,,,,,,,,,,,,blue,square
4.0,1,1.0,1.0,517.704963684,3.0,part_1,,,,,,,,,,,,,white,diamond
1.0,1,4.0,4.0,467.101812363,3.0,part_1,,,,,,,,,,,,,green,triangle
1.0,1,1.0,1.0,484.481096268,4.0,part_1,,,,,,,,,,,,,green,triangle
4.0,0,3.0,3.0,467.45800972,4.0,part_1,,,,,,,,,,,,,orange,flipped triangle
1.0,0,3.0,3.0,551.1488914490001,4.0,part_1,,,,,,,,,,,,,magenta,hexagon
4.0,1,2.0,2.0,384.232997894,4.0,part_1,,,,,,,,,,,,,white,diamond
0.5,0,3.0,3.0,417.36388206500004,4.0,part_1,,,,,,,,,,,,,gray,circle
0.5,0,1.0,1.0,418.406963348,4.0,part_1,,,,,,,,,,,,,gray,circle
2.0,1,1.0,1.0,434.175014496,4.0,part_1,,,,,,,,,,,,,cyan,cross
1.0,0,1.0,1.0,400.54297447199997,4.0,part_1,,,,,,,,,,,,,magenta,hexagon
2.0,0,4.0,4.0,551.175832748,4.0,part_1,,,,,,,,,,,,,blue,square
4.0,1,3.0,3.0,400.772809982,4.0,part_1,,,,,,,,,,,,,white,diamond
0.5,0,3.0,3.0,467.75698661800004,4.0,part_1,,,,,,,,,,,,,gray,circle
1.0,1,2.0,2.0,384.303092957,4.0,part_1,,,,,,,,,,,,,green,triangle
0.5,1,2.0,2.0,534.629106522,4.0,part_1,,,,,,,,,,,,,yellow,line
2.0,0,1.0,1.0,434.144020081,4.0,part_1,,,,,,,,,,,,,blue,square
4.0,1,2.0,2.0,517.726898193,4.0,part_1,,,,,,,,,,,,,white,diamond
0.5,1,2.0,2.0,400.54297447199997,4.0,part_1,,,,,,,,,,,,,yellow,line
1.0,0,4.0,4.0,434.857845306,4.0,part_1,,,,,,,,,,,,,magenta,hexagon
1.0,1,4.0,4.0,500.771045685,4.0,part_1,,,,,,,,,,,,,green,triangle
2.0,0,4.0,4.0,517.950057983,4.0,part_1,,,,,,,,,,,,,blue,square
1.0,1,1.0,1.0,384.60111617999996,4.0,part_1,,,,,,,,,,,,,green,triangle
4.0,1,4.0,4.0,567.6679611210001,4.0,part_1,,,,,,,,,,,,,white,diamond
2.0,1,2.0,2.0,350.306034088,4.0,part_1,,,,,,,,,,,,,cyan,cross
4.0,1,2.0,2.0,417.932987213,4.0,part_1,,,,,,,,,,,,,white,diamond
0.5,1,1.0,1.0,317.457914352,4.0,part_1,,,,,,,,,,,,,yellow,line
4.0,1,4.0,4.0,484.990119934,4.0,part_1,,,,,,,,,,,,,white,diamond
4.0,0,1.0,1.0,384.3998909,4.0,part_1,,,,,,,,,,,,,orange,flipped triangle
2.0,1,4.0,4.0,434.458971024,4.0,part_1,,,,,,,,,,,,,cyan,cross
2.0,1,4.0,4.0,585.087060928,4.0,part_1,,,,,,,,,,,,,cyan,cross
0.5,1,1.0,1.0,534.301042557,4.0,part_1,,,,,,,,,,,,,yellow,line
4.0,0,1.0,1.0,868.1969642639999,4.0,part_1,,,,,,,,,,,,,orange,flipped triangle
1.0,1,1.0,1.0,701.058149338,4.0,part_1,,,,,,,,,,,,,green,triangle
1.0,1,3.0,3.0,534.47508812,4.0,part_1,,,,,,,,,,,,,green,triangle
0.5,0,1.0,1.0,401.15594863900003,4.0,part_1,,,,,,,,,,,,,gray,circle
1.0,1,4.0,4.0,401.374101639,4.0,part_1,,,,,,,,,,,,,green,triangle
1.0,1,3.0,3.0,417.617082596,4.0,part_1,,,,,,,,,,,,,green,triangle
1.0,0,3.0,3.0,400.570869446,4.0,part_1,,,,,,,,,,,,,magenta,hexagon
0.5,1,4.0,4.0,434.45110321000004,4.0,part_1,,,,,,,,,,,,,yellow,line
2.0,0,4.0,4.0,367.841005325,4.0,part_1,,,,,,,,,,,,,blue,square
4.0,0,4.0,4.0,417.702913284,4.0,part_1,,,,,,,,,,,,,orange,flipped triangle
0.5,1,3.0,3.0,451.225996017,4.0,part_1,,,,,,,,,,,,,yellow,line
2.0,1,3.0,3.0,417.575120926,4.0,part_1,,,,,,,,,,,,,cyan,cross
4.0,1,4.0,4.0,534.529924393,4.0,part_1,,,,,,,,,,,,,white,diamond
0.5,1,3.0,3.0,384.15288925199997,4.0,part_1,,,,,,,,,,,,,yellow,line
1.0,0,4.0,4.0,434.08703804,4.0,part_1,,,,,,,,,,,,,magenta,hexagon
4.0,0,1.0,1.0,434.231996536,4.0,part_1,,,,,,,,,,,,,orange,flipped triangle
0.5,1,2.0,2.0,417.656898499,4.0,part_1,,,,,,,,,,,,,yellow,line
1.0,0,2.0,2.0,434.144973755,4.0,part_1,,,,,,,,,,,,,magenta,hexagon
2.0,1,2.0,2.0,400.68602562,4.0,part_1,,,,,,,,,,,,,cyan,cross
4.0,0,3.0,3.0,534.4510078430001,4.0,part_1,,,,,,,,,,,,,orange,flipped triangle
0.5,0,2.0,2.0,417.64497757000004,4.0,part_1,,,,,,,,,,,,,gray,circle
4.0,1,4.0,4.0,533.891201019,4.0,part_1,,,,,,,,,,,,,white,diamond
2.0,0,2.0,2.0,467.25106239300004,4.0,part_1,,,,,,,,,,,,,blue,square
0.5,0,4.0,4.0,601.129055023,4.0,part_1,,,,,,,,,,,,,gray,circle
4.0,0,2.0,2.0,384.50407981899997,4.0,part_1,,,,,,,,,,,,,orange,flipped triangle
2.0,1,1.0,1.0,383.982181549,4.0,part_1,,,,,,,,,,,,,cyan,cross
2.0,0,1.0,1.0,367.729902267,4.0,part_1,,,,,,,,,,,,,blue,square
1.0,0,2.0,2.0,367.859125137,4.0,part_1,,,,,,,,,,,,,magenta,hexagon
0.5,1,3.0,3.0,668.0369377139999,4.0,part_1,,,,,,,,,,,,,yellow,line
1.0,1,3.0,3.0,601.151943207,4.0,part_1,,,,,,,,,,,,,green,triangle
1.0,0,1.0,1.0,918.095111847,4.0,part_1,,,,,,,,,,,,,magenta,hexagon
2.0,0,2.0,2.0,417.484998703,4.0,part_1,,,,,,,,,,,,,blue,square
0.5,0,1.0,1.0,534.1629981990001,4.0,part_1,,,,,,,,,,,,,gray,circle
0.5,1,4.0,4.0,484.171152115,4.0,part_1,,,,,,,,,,,,,yellow,line
4.0,1,3.0,3.0,484.184026718,4.0,part_1,,,,,,,,,,,,,white,diamond
1.0,1,4.0,4.0,584.620952606,4.0,part_1,,,,,,,,,,,,,green,triangle
1.0,1,2.0,2.0,417.80400276200004,4.0,part_1,,,,,,,,,,,,,green,triangle
0.5,0,2.0,2.0,467.91100502,4.0,part_1,,,,,,,,,,,,,gray,circle
2.0,1,3.0,3.0,467.622041702,4.0,part_1,,,,,,,,,,,,,cyan,cross
1.0,1,3.0,3.0,484.33303833,4.0,part_1,,,,,,,,,,,,,green,triangle
0.5,1,3.0,3.0,501.04904174800004,4.0,part_1,,,,,,,,,,,,,yellow,line
2.0,1,1.0,1.0,467.77510643,4.0,part_1,,,,,,,,,,,,,cyan,cross
1.0,0,4.0,4.0,467.769861221,4.0,part_1,,,,,,,,,,,,,magenta,hexagon
0.5,0,3.0,3.0,384.41991806,4.0,part_1,,,,,,,,,,,,,gray,circle
4.0,0,2.0,2.0,367.358922958,4.0,part_1,,,,,,,,,,,,,orange,flipped triangle
1.0,1,4.0,4.0,434.579849243,4.0,part_1,,,,,,,,,,,,,green,triangle
4.0,1,1.0,1.0,417.595148087,4.0,part_1,,,,,,,,,,,,,white,diamond
2.0,0,4.0,4.0,417.788982391,4.0,part_1,,,,,,,,,,,,,blue,square
0.5,0,2.0,2.0,417.151927948,4.0,part_1,,,,,,,,,,,,,gray,circle
1.0,0,1.0,1.0,383.677005768,4.0,part_1,,,,,,,,,,,,,magenta,hexagon
1.0,0,3.0,3.0,384.181022644,4.0,part_1,,,,,,,,,,,,,magenta,hexagon
1.0,0,1.0,1.0,333.852052689,4.0,part_1,,,,,,,,,,,,,magenta,hexagon
2.0,1,2.0,2.0,467.530965805,4.0,part_1,,,,,,,,,,,,,cyan,cross
1.0,1,1.0,1.0,417.79017448400003,4.0,part_1,,,,,,,,,,,,,green,triangle
4.0,1,3.0,3.0,384.33599472000003,4.0,part_1,,,,,,,,,,,,,white,diamond
2.0,1,2.0,2.0,384.255886078,4.0,part_1,,,,,,,,,,,,,cyan,cross
0.5,0,1.0,1.0,317.116975784,4.0,part_1,,,,,,,,,,,,,gray,circle
4.0,0,1.0,1.0,384.075164795,4.0,part_1,,,,,,,,,,,,,orange,flipped triangle
0.5,0,1.0,1.0,384.610891342,4.0,part_1,,,,,,,,,,,,,gray,circle
2.0,0,3.0,3.0,467.52786636400003,4.0,part_1,,,,,,,,,,,,,blue,square
1.0,0,2.0,2.0,367.444038391,4.0,part_1,,,,,,,,,,,,,magenta,hexagon
2.0,0,4.0,4.0,467.100858688,4.0,part_1,,,,,,,,,,,,,blue,square
0.5,0,3.0,3.0,434.267997742,4.0,part_1,,,,,,,,,,,,,gray,circle
0.5,1,2.0,2.0,367.758989334,4.0,part_1,,,,,,,,,,,,,yellow,line
1.0,0,3.0,3.0,501.219987869,4.0,part_1,,,,,,,,,,,,,magenta,hexagon
2.0,0,4.0,4.0,450.495958328,4.0,part_1,,,,,,,,,,,,,blue,square
1.0,1,2.0,2.0,400.77495575,4.0,part_1,,,,,,,,,,,,,green,triangle
4.0,1,3.0,3.0,400.957107544,4.0,part_1,,,,,,,,,,,,,white,diamond
1.0,1,4.0,4.0,450.81615448,4.0,part_1,,,,,,,,,,,,,green,triangle
1.0,0,2.0,2.0,451.035022736,4.0,part_1,,,,,,,,,,,,,magenta,hexagon
2.0,0,4.0,4.0,450.948953629,4.0,part_1,,,,,,,,,,,,,blue,square
2.0,0,6.0,6.0,534.526824951,1.0,part_2,go,250.0,250.0,1.0,,,,,,,,,blue,square
0.5,1,6.0,6.0,484.885215759,1.0,part_2,stop,250.0,250.0,3.0,,,,,,,,,yellow,line
4.0,0,6.0,6.0,500.66995620700004,1.0,part_2,go,250.0,250.0,1.0,,,,,,,,,orange,flipped triangle
2.0,1,5.0,5.0,634.254932404,1.0,part_2,stop,250.0,250.0,3.0,,,,,,,,,cyan,cross
0.5,0,5.0,5.0,617.85697937,1.0,part_2,go,250.0,250.0,1.0,,,,,,,,,gray,circle
0.5,0,6.0,6.0,367.009162903,1.0,part_2,go,250.0,250.0,1.0,,,,,,,,,gray,circle
1.0,0,5.0,5.0,434.298038483,1.0,part_2,go,250.0,250.0,1.0,,,,,,,,,magenta,hexagon
2.0,1,5.0,5.0,484.06481742899996,1.0,part_2,stop,200.0,250.0,3.0,,,,,,,,,cyan,cross
4.0,1,5.0,5.0,551.4349937439999,1.0,part_2,go,200.0,250.0,1.0,,,,,,,,,white,diamond
1.0,1,5.0,5.0,500.80895423899995,1.0,part_2,go,200.0,250.0,1.0,,,,,,,,,green,triangle
0.5,0,6.0,6.0,434.043884277,1.0,part_2,go,200.0,250.0,1.0,,,,,,,,,gray,circle
1.0,0,5.0,5.0,450.63400268600003,1.0,part_2,go,200.0,250.0,1.0,,,,,,,,,magenta,hexagon
0.5,0,6.0,6.0,600.8780002589999,1.0,part_2,go,200.0,250.0,1.0,,,,,,,,,gray,circle
0.5,0,6.0,6.0,451.138019562,1.0,part_2,go,200.0,250.0,1.0,,,,,,,,,gray,circle
0.5,0,6.0,6.0,400.800943375,1.0,part_2,go,200.0,250.0,1.0,,,,,,,,,gray,circle
0.5,1,6.0,6.0,517.529964447,1.0,part_2,stop,200.0,200.0,3.0,,,,,,,,,yellow,line
4.0,1,5.0,5.0,433.96592140200005,1.0,part_2,go,200.0,200.0,1.0,,,,,,,,,white,diamond
1.0,0,5.0,5.0,384.365081787,1.0,part_2,go,200.0,200.0,1.0,,,,,,,,,magenta,hexagon
0.5,0,6.0,6.0,634.400129318,1.0,part_2,go,200.0,200.0,1.0,,,,,,,,,gray,circle
2.0,0,6.0,6.0,367.35916137699996,1.0,part_2,go,200.0,200.0,1.0,,,,,,,,,blue,square
1.0,1,5.0,5.0,400.97784996,1.0,part_2,stop,150.0,200.0,3.0,,,,,,,,,green,triangle
2.0,0,6.0,6.0,367.51103401200004,1.0,part_2,go,150.0,200.0,1.0,,,,,,,,,blue,square
2.0,0,6.0,6.0,467.928886414,1.0,part_2,go,150.0,200.0,1.0,,,,,,,,,blue,square
0.5,1,5.0,5.0,367.043018341,1.0,part_2,stop,100.0,200.0,3.0,,,,,,,,,yellow,line
4.0,0,5.0,5.0,367.74301528899997,1.0,part_2,go,100.0,200.0,1.0,,,,,,,,,orange,flipped triangle
1.0,1,6.0,6.0,383.186101913,1.0,part_2,stop,100.0,150.0,3.0,,,,,,,,,green,triangle
1.0,1,5.0,5.0,384.48309898400004,1.0,part_2,stop,50.0,150.0,3.0,,,,,,,,,green,triangle
1.0,0,6.0,6.0,317.494153976,1.0,part_2,go,50.0,150.0,1.0,,,,,,,,,magenta,hexagon
0.5,1,5.0,5.0,333.58001709,1.0,part_2,stop,1.38777878078e-14,150.0,3.0,,,,,,,,,yellow,line
0.5,1,5.0,5.0,450.52981376599996,1.0,part_2,stop,1.38777878078e-14,150.0,3.0,,,,,,,,,yellow,line
2.0,0,6.0,6.0,350.925922394,1.0,part_2,go,1.38777878078e-14,150.0,1.0,,,,,,,,,blue,square
2.0,1,5.0,5.0,417.151927948,1.0,part_2,stop,1.38777878078e-14,150.0,3.0,,,,,,,,,cyan,cross
2.0,0,6.0,6.0,450.714111328,1.0,part_2,go,1.38777878078e-14,150.0,1.0,,,,,,,,,blue,square
1.0,0,5.0,5.0,333.90498161299996,1.0,part_2,go,1.38777878078e-14,150.0,1.0,,,,,,,,,magenta,hexagon
0.5,0,5.0,5.0,451.099872589,1.0,part_2,go,1.38777878078e-14,150.0,1.0,,,,,,,,,gray,circle
2.0,1,6.0,6.0,384.12499427800003,1.0,part_2,go,1.38777878078e-14,150.0,1.0,,,,,,,,,cyan,cross
2.0,1,5.0,5.0,517.1580314639999,2.0,part_2,stop,1.38777878078e-14,150.0,3.0,,,,,,,,,cyan,cross
1.0,1,5.0,,,2.0,,stop,1.38777878078e-14,150.0,4.0,,,,,,,,,green,triangle
1.0,0,5.0,5.0,601.327896118,2.0,part_2,go,1.38777878078e-14,150.0,1.0,,,,,,,,,magenta,hexagon
4.0,1,5.0,,,2.0,,stop,50.0,150.0,4.0,,,,,,,,,white,diamond
1.0,0,5.0,5.0,567.339897156,2.0,part_2,go,50.0,150.0,1.0,,,,,,,,,magenta,hexagon
1.0,1,6.0,,,2.0,,stop,50.0,100.0,4.0,,,,,,,,,green,triangle
1.0,1,6.0,,,2.0,,stop,50.0,150.0,4.0,,,,,,,,,green,triangle
0.5,1,5.0,5.0,434.023857117,2.0,part_2,go,50.0,150.0,1.0,,,,,,,,,yellow,line
2.0,1,5.0,,,2.0,,stop,100.0,150.0,4.0,,,,,,,,,cyan,cross
4.0,1,6.0,6.0,684.762001038,2.0,part_2,go,100.0,150.0,1.0,,,,,,,,,white,diamond
2.0,1,6.0,6.0,384.021997452,2.0,part_2,stop,100.0,200.0,3.0,,,,,,,,,cyan,cross
0.5,0,5.0,5.0,517.3521041869999,2.0,part_2,go,100.0,200.0,1.0,,,,,,,,,gray,circle
0.5,0,5.0,5.0,584.161996841,2.0,part_2,go,100.0,200.0,1.0,,,,,,,,,gray,circle
2.0,1,6.0,,,2.0,,stop,100.0,150.0,4.0,,,,,,,,,cyan,cross
4.0,0,6.0,6.0,484.179019928,2.0,part_2,go,100.0,150.0,1.0,,,,,,,,,orange,flipped triangle
4.0,1,5.0,,,2.0,,stop,150.0,150.0,4.0,,,,,,,,,white,diamond
4.0,1,6.0,,,2.0,,stop,150.0,200.0,4.0,,,,,,,,,white,diamond
4.0,0,5.0,5.0,618.046045303,2.0,part_2,go,150.0,200.0,1.0,,,,,,,,,orange,flipped triangle
0.5,0,5.0,5.0,484.2441082,2.0,part_2,go,150.0,200.0,1.0,,,,,,,,,gray,circle
4.0,0,5.0,5.0,550.990104675,2.0,part_2,go,150.0,200.0,1.0,,,,,,,,,orange,flipped triangle
1.0,0,6.0,6.0,317.426919937,2.0,part_2,go,150.0,200.0,1.0,,,,,,,,,magenta,hexagon
0.5,0,6.0,6.0,317.181825638,2.0,part_2,go,150.0,200.0,1.0,,,,,,,,,gray,circle
2.0,1,6.0,6.0,384.037017822,2.0,part_2,go,150.0,200.0,1.0,,,,,,,,,cyan,cross
4.0,1,5.0,,,2.0,,stop,200.0,200.0,4.0,,,,,,,,,white,diamond
1.0,1,6.0,6.0,417.433023453,2.0,part_2,stop,200.0,250.0,3.0,,,,,,,,,green,triangle
2.0,0,5.0,5.0,501.31797790499996,2.0,part_2,go,200.0,250.0,1.0,,,,,,,,,blue,square
1.0,0,5.0,5.0,551.4278411869999,2.0,part_2,go,200.0,250.0,1.0,,,,,,,,,magenta,hexagon
2.0,0,5.0,5.0,551.068067551,2.0,part_2,go,200.0,250.0,1.0,,,,,,,,,blue,square
2.0,0,6.0,6.0,417.30189323400003,2.0,part_2,go,200.0,250.0,1.0,,,,,,,,,blue,square
2.0,0,6.0,6.0,384.227991104,2.0,part_2,go,200.0,250.0,1.0,,,,,,,,,blue,square
4.0,1,5.0,,,2.0,,stop,250.0,250.0,4.0,,,,,,,,,white,diamond
0.5,1,6.0,,,2.0,,stop,250.0,200.0,4.0,,,,,,,,,yellow,line
4.0,1,6.0,,,2.0,,stop,250.0,250.0,4.0,,,,,,,,,white,diamond
2.0,1,6.0,,,2.0,,stop,250.0,300.0,4.0,,,,,,,,,cyan,cross
2.0,1,6.0,,,2.0,,stop,250.0,350.0,4.0,,,,,,,,,cyan,cross
2.0,0,6.0,6.0,551.3689517969999,2.0,part_2,go,250.0,350.0,1.0,,,,,,,,,blue,square
2.0,0,5.0,5.0,717.7388668059999,3.0,part_2,go,250.0,350.0,1.0,,,,,,,,,blue,square
1.0,1,5.0,5.0,400.961875916,3.0,part_2,stop,300.0,350.0,3.0,,,,,,,,,green,triangle
1.0,1,6.0,6.0,451.251029968,3.0,part_2,go,300.0,350.0,1.0,,,,,,,,,green,triangle
2.0,1,5.0,,,3.0,,stop,250.0,350.0,4.0,,,,,,,,,cyan,cross
4.0,0,6.0,6.0,701.5740871429999,3.0,part_2,go,250.0,350.0,1.0,,,,,,,,,orange,flipped triangle
0.5,1,6.0,6.0,467.626094818,3.0,part_2,stop,250.0,400.0,3.0,,,,,,,,,yellow,line
4.0,1,5.0,5.0,884.532928467,3.0,part_2,go,250.0,400.0,1.0,,,,,,,,,white,diamond
2.0,0,5.0,5.0,618.637800217,3.0,part_2,go,250.0,400.0,1.0,,,,,,,,,blue,square
4.0,1,6.0,6.0,534.412145615,3.0,part_2,stop,250.0,350.0,3.0,,,,,,,,,white,diamond
2.0,1,6.0,,,3.0,,stop,250.0,300.0,4.0,,,,,,,,,cyan,cross
0.5,1,6.0,,,3.0,,stop,250.0,350.0,4.0,,,,,,,,,yellow,line
4.0,1,5.0,,,3.0,,stop,300.0,350.0,4.0,,,,,,,,,white,diamond
4.0,1,6.0,6.0,533.73003006,3.0,part_2,stop,300.0,400.0,3.0,,,,,,,,,white,diamond
0.5,1,5.0,,,3.0,,stop,350.0,400.0,4.0,,,,,,,,,yellow,line
1.0,0,6.0,6.0,784.612894058,3.0,part_2,go,350.0,400.0,1.0,,,,,,,,,magenta,hexagon
2.0,1,6.0,6.0,650.681972504,3.0,part_2,go,350.0,400.0,1.0,,,,,,,,,cyan,cross
1.0,1,6.0,6.0,500.64086914100005,3.0,part_2,stop,350.0,350.0,3.0,,,,,,,,,green,triangle
2.0,0,5.0,5.0,617.562055588,3.0,part_2,go,350.0,350.0,1.0,,,,,,,,,blue,square
2.0,1,5.0,5.0,685.204982758,3.0,part_2,go,350.0,350.0,1.0,,,,,,,,,cyan,cross
1.0,0,5.0,5.0,750.9920597079999,3.0,part_2,go,350.0,350.0,1.0,,,,,,,,,magenta,hexagon
1.0,1,5.0,5.0,651.05009079,3.0,part_2,go,350.0,350.0,1.0,,,,,,,,,green,triangle
0.5,1,6.0,,,3.0,,stop,350.0,300.0,4.0,,,,,,,,,yellow,line
1.0,0,6.0,6.0,868.415117264,3.0,part_2,go,350.0,300.0,1.0,,,,,,,,,magenta,hexagon
2.0,1,5.0,5.0,350.750923157,3.0,part_2,stop,400.0,300.0,3.0,,,,,,,,,cyan,cross
4.0,0,5.0,5.0,701.292991638,3.0,part_2,go,400.0,300.0,1.0,,,,,,,,,orange,flipped triangle
0.5,0,5.0,5.0,667.97208786,3.0,part_2,go,400.0,300.0,1.0,,,,,,,,,gray,circle
2.0,0,5.0,5.0,634.311199188,3.0,part_2,go,400.0,300.0,1.0,,,,,,,,,blue,square
0.5,1,6.0,6.0,400.650024414,3.0,part_2,go,400.0,300.0,1.0,,,,,,,,,yellow,line
2.0,0,6.0,6.0,367.167949677,3.0,part_2,go,400.0,300.0,1.0,,,,,,,,,blue,square
1.0,1,6.0,6.0,400.901079178,3.0,part_2,stop,400.0,350.0,3.0,,,,,,,,,green,triangle
4.0,0,5.0,5.0,784.519195557,3.0,part_2,go,400.0,350.0,1.0,,,,,,,,,orange,flipped triangle
0.5,0,6.0,6.0,451.542139053,3.0,part_2,go,400.0,350.0,1.0,,,,,,,,,gray,circle
4.0,1,6.0,6.0,434.056997299,3.0,part_2,stop,400.0,300.0,3.0,,,,,,,,,white,diamond
0.5,1,6.0,,,3.0,,stop,400.0,250.0,4.0,,,,,,,,,yellow,line
4.0,0,5.0,5.0,567.216873169,3.0,part_2,go,400.0,250.0,1.0,,,,,,,,,orange,flipped triangle
1.0,0,5.0,5.0,434.11684036300005,3.0,part_2,go,400.0,250.0,1.0,,,,,,,,,magenta,hexagon
1.0,1,6.0,,,4.0,,stop,400.0,300.0,4.0,,,,,,,,,green,triangle
2.0,0,5.0,5.0,617.968082428,4.0,part_2,go,400.0,300.0,1.0,,,,,,,,,blue,square
2.0,1,6.0,,,4.0,,stop,400.0,350.0,4.0,,,,,,,,,cyan,cross
2.0,0,5.0,5.0,534.165143967,4.0,part_2,go,400.0,350.0,1.0,,,,,,,,,blue,square
1.0,1,6.0,6.0,417.124986649,4.0,part_2,stop,400.0,400.0,3.0,,,,,,,,,green,triangle
4.0,1,5.0,5.0,618.026971817,4.0,part_2,stop,350.0,400.0,3.0,,,,,,,,,white,diamond
0.5,0,6.0,6.0,685.156106949,4.0,part_2,go,350.0,400.0,1.0,,,,,,,,,gray,circle
0.5,1,5.0,5.0,584.3629837039999,4.0,part_2,go,350.0,400.0,1.0,,,,,,,,,yellow,line
0.5,1,6.0,6.0,350.682973862,4.0,part_2,stop,350.0,350.0,3.0,,,,,,,,,yellow,line
0.5,0,5.0,5.0,451.556921005,4.0,part_2,go,350.0,350.0,1.0,,,,,,,,,gray,circle
2.0,0,6.0,6.0,651.278018951,4.0,part_2,go,350.0,350.0,1.0,,,,,,,,,blue,square
0.5,1,5.0,,,4.0,,stop,300.0,350.0,4.0,,,,,,,,,yellow,line
0.5,1,5.0,5.0,684.427976608,4.0,part_2,go,300.0,350.0,1.0,,,,,,,,,yellow,line
2.0,0,5.0,5.0,701.1349201200001,4.0,part_2,go,300.0,350.0,1.0,,,,,,,,,blue,square
2.0,0,5.0,5.0,400.99501609799995,4.0,part_2,go,300.0,350.0,1.0,,,,,,,,,blue,square
1.0,0,5.0,5.0,383.98098945600003,4.0,part_2,go,300.0,350.0,1.0,,,,,,,,,magenta,hexagon
1.0,1,6.0,,,4.0,,stop,300.0,300.0,4.0,,,,,,,,,green,triangle
4.0,0,6.0,6.0,634.552001953,4.0,part_2,go,300.0,300.0,1.0,,,,,,,,,orange,flipped triangle
4.0,0,5.0,5.0,517.526865005,4.0,part_2,go,300.0,300.0,1.0,,,,,,,,,orange,flipped triangle
2.0,1,5.0,,,4.0,,stop,350.0,300.0,4.0,,,,,,,,,cyan,cross
1.0,0,5.0,5.0,617.668867111,4.0,part_2,go,350.0,300.0,1.0,,,,,,,,,magenta,hexagon
0.5,0,5.0,,,4.0,,go,350.0,300.0,5.0,,,,,,,,,gray,circle
1.0,1,5.0,5.0,401.287078857,4.0,part_2,stop,400.0,300.0,3.0,,,,,,,,,green,triangle
1.0,0,6.0,6.0,417.255163193,4.0,part_2,go,400.0,300.0,1.0,,,,,,,,,magenta,hexagon
2.0,1,6.0,6.0,550.638914108,4.0,part_2,go,400.0,300.0,1.0,,,,,,,,,cyan,cross
0.5,1,6.0,6.0,500.91099739099997,4.0,part_2,stop,400.0,350.0,3.0,,,,,,,,,yellow,line
1.0,1,5.0,5.0,601.177930832,4.0,part_2,stop,350.0,350.0,3.0,,,,,,,,,green,triangle
0.5,0,6.0,6.0,567.4970149989999,4.0,part_2,go,350.0,350.0,1.0,,,,,,,,,gray,circle
1.0,1,6.0,6.0,417.486906052,4.0,part_2,stop,350.0,300.0,3.0,,,,,,,,,green,triangle
2.0,1,6.0,6.0,534.144878387,4.0,part_2,go,350.0,300.0,1.0,,,,,,,,,cyan,cross
2.0,0,6.0,6.0,367.34890937800003,4.0,part_2,go,350.0,300.0,1.0,,,,,,,,,blue,square
4.0,0,6.0,6.0,351.10902786300005,4.0,part_2,go,350.0,300.0,1.0,,,,,,,,,orange,flipped triangle
4.0,0,5.0,5.0,417.837142944,4.0,part_2,go,350.0,300.0,1.0,,,,,,,,,orange,flipped triangle
0.5,1,6.0,,,4.0,,stop,350.0,250.0,4.0,,,,,,,,,yellow,line
4.0,0,5.0,5.0,600.9669303889999,4.0,part_2,go,350.0,250.0,1.0,,,,,,,,,orange,flipped triangle
0.5,1,6.0,6.0,401.096820831,4.0,part_2,stop,350.0,300.0,3.0,,,,,,,,,yellow,line
0.5,1,5.0,,,5.0,,stop,300.0,300.0,4.0,,,,,,,,,yellow,line
1.0,1,5.0,5.0,601.267814636,5.0,part_2,stop,350.0,300.0,3.0,,,,,,,,,green,triangle
4.0,1,5.0,,,5.0,,stop,300.0,300.0,4.0,,,,,,,,,white,diamond
2.0,0,6.0,6.0,634.320020676,5.0,part_2,go,300.0,300.0,1.0,,,,,,,,,blue,square
2.0,1,6.0,6.0,400.569915771,5.0,part_2,stop,300.0,250.0,3.0,,,,,,,,,cyan,cross
2.0,1,5.0,5.0,567.863941193,5.0,part_2,go,300.0,250.0,1.0,,,,,,,,,cyan,cross
2.0,0,5.0,5.0,600.898981094,5.0,part_2,go,300.0,250.0,1.0,,,,,,,,,blue,square
0.5,0,6.0,6.0,367.15388298,5.0,part_2,go,300.0,250.0,1.0,,,,,,,,,gray,circle
2.0,0,6.0,6.0,434.098958969,5.0,part_2,go,300.0,250.0,1.0,,,,,,,,,blue,square
2.0,1,5.0,5.0,467.562913895,5.0,part_2,stop,350.0,250.0,3.0,,,,,,,,,cyan,cross
4.0,1,5.0,,,5.0,,stop,300.0,250.0,4.0,,,,,,,,,white,diamond
4.0,0,5.0,5.0,684.703111649,5.0,part_2,go,300.0,250.0,1.0,,,,,,,,,orange,flipped triangle
0.5,0,6.0,6.0,617.541074753,5.0,part_2,go,300.0,250.0,1.0,,,,,,,,,gray,circle
0.5,0,5.0,5.0,400.933027267,5.0,part_2,go,300.0,250.0,1.0,,,,,,,,,gray,circle
1.0,0,6.0,6.0,467.63491630600004,5.0,part_2,go,300.0,250.0,1.0,,,,,,,,,magenta,hexagon
4.0,0,5.0,5.0,434.345006943,5.0,part_2,go,300.0,250.0,1.0,,,,,,,,,orange,flipped triangle
1.0,0,6.0,6.0,400.835037231,5.0,part_2,go,300.0,250.0,1.0,,,,,,,,,magenta,hexagon
0.5,0,6.0,6.0,684.627056122,5.0,part_2,go,300.0,250.0,1.0,,,,,,,,,gray,circle
0.5,0,5.0,5.0,417.367935181,5.0,part_2,go,300.0,250.0,1.0,,,,,,,,,gray,circle
2.0,1,6.0,6.0,400.864839554,5.0,part_2,stop,300.0,200.0,3.0,,,,,,,,,cyan,cross
0.5,0,5.0,5.0,584.383010864,5.0,part_2,go,300.0,200.0,1.0,,,,,,,,,gray,circle
0.5,0,6.0,6.0,550.945043564,5.0,part_2,go,300.0,200.0,1.0,,,,,,,,,gray,circle
2.0,0,6.0,6.0,601.217985153,5.0,part_2,go,300.0,200.0,1.0,,,,,,,,,blue,square
0.5,1,6.0,6.0,417.437791824,5.0,part_2,go,300.0,200.0,1.0,,,,,,,,,yellow,line
4.0,1,6.0,,,5.0,,stop,300.0,150.0,4.0,,,,,,,,,white,diamond
4.0,0,5.0,5.0,551.213979721,5.0,part_2,go,300.0,150.0,1.0,,,,,,,,,orange,flipped triangle
4.0,1,6.0,,,5.0,,stop,300.0,200.0,4.0,,,,,,,,,white,diamond
0.5,1,5.0,5.0,567.352056503,5.0,part_2,stop,350.0,200.0,3.0,,,,,,,,,yellow,line
2.0,1,5.0,,,5.0,,stop,300.0,200.0,4.0,,,,,,,,,cyan,cross
1.0,1,5.0,5.0,668.035984039,5.0,part_2,go,300.0,200.0,1.0,,,,,,,,,green,triangle
4.0,0,6.0,6.0,384.433031082,5.0,part_2,go,300.0,200.0,1.0,,,,,,,,,orange,flipped triangle
1.0,0,6.0,6.0,434.648036957,5.0,part_2,go,300.0,200.0,1.0,,,,,,,,,magenta,hexagon
0.5,0,5.0,5.0,401.141166687,5.0,part_2,go,300.0,200.0,1.0,,,,,,,,,gray,circle
4.0,1,6.0,6.0,384.196996689,5.0,part_2,stop,300.0,250.0,3.0,,,,,,,,,white,diamond
0.5,0,5.0,5.0,651.442050934,5.0,part_2,go,300.0,250.0,1.0,,,,,,,,,gray,circle
1.0,0,6.0,6.0,401.049137115,5.0,part_2,go,300.0,250.0,1.0,,,,,,,,,magenta,hexagon
2.0,0,6.0,6.0,600.920915604,6.0,part_2,go,300.0,250.0,1.0,,,,,,,,,blue,square
4.0,1,6.0,6.0,434.248209,6.0,part_2,go,300.0,250.0,1.0,,,,,,,,,white,diamond
4.0,0,5.0,5.0,517.252922058,6.0,part_2,go,300.0,250.0,1.0,,,,,,,,,orange,flipped triangle
1.0,0,5.0,5.0,901.479959488,6.0,part_2,go,300.0,250.0,1.0,,,,,,,,,magenta,hexagon
4.0,0,5.0,5.0,417.40894317600004,6.0,part_2,go,300.0,250.0,1.0,,,,,,,,,orange,flipped triangle
1.0,0,5.0,5.0,450.749874115,6.0,part_2,go,300.0,250.0,1.0,,,,,,,,,magenta,hexagon
2.0,0,6.0,6.0,417.506217957,6.0,part_2,go,300.0,250.0,1.0,,,,,,,,,blue,square
1.0,1,5.0,5.0,417.672157288,6.0,part_2,stop,350.0,250.0,3.0,,,,,,,,,green,triangle
0.5,0,6.0,6.0,450.802087784,6.0,part_2,go,350.0,250.0,1.0,,,,,,,,,gray,circle
4.0,1,6.0,,,6.0,,stop,350.0,200.0,4.0,,,,,,,,,white,diamond
0.5,1,5.0,,,6.0,,stop,300.0,200.0,4.0,,,,,,,,,yellow,line
2.0,1,5.0,5.0,500.43988227799997,6.0,part_2,stop,350.0,200.0,3.0,,,,,,,,,cyan,cross
2.0,1,6.0,,,6.0,,stop,350.0,250.0,4.0,,,,,,,,,cyan,cross
1.0,1,5.0,,,6.0,,stop,300.0,250.0,4.0,,,,,,,,,green,triangle
4.0,0,6.0,6.0,684.433937073,6.0,part_2,go,300.0,250.0,1.0,,,,,,,,,orange,flipped triangle
1.0,0,6.0,6.0,634.446144104,6.0,part_2,go,300.0,250.0,1.0,,,,,,,,,magenta,hexagon
4.0,0,6.0,6.0,734.470129013,6.0,part_2,go,300.0,250.0,1.0,,,,,,,,,orange,flipped triangle
4.0,0,6.0,6.0,401.334047318,6.0,part_2,go,300.0,250.0,1.0,,,,,,,,,orange,flipped triangle
2.0,0,5.0,5.0,717.633008957,6.0,part_2,go,300.0,250.0,1.0,,,,,,,,,blue,square
4.0,0,6.0,6.0,417.804956436,6.0,part_2,go,300.0,250.0,1.0,,,,,,,,,orange,flipped triangle
0.5,1,5.0,5.0,450.766086578,6.0,part_2,go,300.0,250.0,1.0,,,,,,,,,yellow,line
1.0,0,5.0,5.0,467.329025269,6.0,part_2,go,300.0,250.0,1.0,,,,,,,,,magenta,hexagon
0.5,0,6.0,6.0,384.649991989,6.0,part_2,go,300.0,250.0,1.0,,,,,,,,,gray,circle
1.0,0,6.0,6.0,434.63897705100004,6.0,part_2,go,300.0,250.0,1.0,,,,,,,,,magenta,hexagon
4.0,1,6.0,6.0,433.85791778600003,6.0,part_2,go,300.0,250.0,1.0,,,,,,,,,white,diamond
0.5,0,5.0,5.0,317.34991073599997,6.0,part_2,go,300.0,250.0,1.0,,,,,,,,,gray,circle
0.5,1,5.0,5.0,400.667905807,6.0,part_2,stop,350.0,250.0,3.0,,,,,,,,,yellow,line
4.0,0,5.0,5.0,867.874860764,6.0,part_2,go,350.0,250.0,1.0,,,,,,,,,orange,flipped triangle
0.5,1,5.0,,,6.0,,stop,300.0,250.0,4.0,,,,,,,,,yellow,line
4.0,1,5.0,,,6.0,,stop,350.0,250.0,4.0,,,,,,,,,white,diamond
0.5,0,6.0,6.0,717.805862427,6.0,part_2,go,350.0,250.0,1.0,,,,,,,,,gray,circle
4.0,0,6.0,6.0,384.322166443,6.0,part_2,go,350.0,250.0,1.0,,,,,,,,,orange,flipped triangle
4.0,0,6.0,6.0,333.878993988,6.0,part_2,go,350.0,250.0,1.0,,,,,,,,,orange,flipped triangle
1.0,1,5.0,5.0,534.3818664549999,6.0,part_2,stop,400.0,250.0,3.0,,,,,,,,,green,triangle
2.0,0,5.0,5.0,467.19288826,6.0,part_2,go,400.0,250.0,1.0,,,,,,,,,blue,square
1.0,1,6.0,6.0,467.70501136800004,6.0,part_2,stop,400.0,300.0,3.0,,,,,,,,,green,triangle
0.5,1,5.0,5.0,567.867994308,7.0,part_2,stop,350.0,300.0,3.0,,,,,,,,,yellow,line
1.0,0,6.0,6.0,601.283073425,7.0,part_2,go,350.0,300.0,1.0,,,,,,,,,magenta,hexagon
1.0,0,5.0,5.0,584.1639041899999,7.0,part_2,go,350.0,300.0,1.0,,,,,,,,,magenta,hexagon
2.0,1,5.0,5.0,467.3640728,7.0,part_2,stop,300.0,300.0,3.0,,,,,,,,,cyan,cross
1.0,1,5.0,,,7.0,,stop,250.0,300.0,4.0,,,,,,,,,green,triangle
1.0,0,5.0,5.0,667.366981506,7.0,part_2,go,250.0,300.0,1.0,,,,,,,,,magenta,hexagon
1.0,1,6.0,6.0,601.20177269,7.0,part_2,go,250.0,300.0,1.0,,,,,,,,,green,triangle
1.0,1,5.0,5.0,567.589044571,7.0,part_2,stop,300.0,300.0,3.0,,,,,,,,,green,triangle
0.5,1,6.0,,,7.0,,stop,300.0,250.0,4.0,,,,,,,,,yellow,line
4.0,0,5.0,5.0,667.6161289219999,7.0,part_2,go,300.0,250.0,1.0,,,,,,,,,orange,flipped triangle
0.5,0,5.0,5.0,534.6119403839999,7.0,part_2,go,300.0,250.0,1.0,,,,,,,,,gray,circle
0.5,1,6.0,6.0,384.06491279600004,7.0,part_2,stop,300.0,300.0,3.0,,,,,,,,,yellow,line
4.0,1,6.0,,,7.0,,stop,300.0,250.0,4.0,,,,,,,,,white,diamond
4.0,0,5.0,5.0,717.545032501,7.0,part_2,go,300.0,250.0,1.0,,,,,,,,,orange,flipped triangle
1.0,0,6.0,6.0,533.924818039,7.0,part_2,go,300.0,250.0,1.0,,,,,,,,,magenta,hexagon
1.0,1,6.0,,,7.0,,stop,300.0,300.0,4.0,,,,,,,,,green,triangle
1.0,0,5.0,5.0,517.338991165,7.0,part_2,go,300.0,300.0,1.0,,,,,,,,,magenta,hexagon
1.0,0,5.0,5.0,517.98081398,7.0,part_2,go,300.0,300.0,1.0,,,,,,,,,magenta,hexagon
2.0,0,5.0,5.0,601.0189056400001,7.0,part_2,go,300.0,300.0,1.0,,,,,,,,,blue,square
2.0,1,6.0,6.0,400.9308815,7.0,part_2,stop,300.0,350.0,3.0,,,,,,,,,cyan,cross
2.0,1,6.0,,,7.0,,stop,300.0,300.0,4.0,,,,,,,,,cyan,cross
1.0,0,5.0,5.0,650.918960571,7.0,part_2,go,300.0,300.0,1.0,,,,,,,,,magenta,hexagon
0.5,1,6.0,6.0,651.18598938,7.0,part_2,go,300.0,300.0,1.0,,,,,,,,,yellow,line
1.0,0,5.0,5.0,518.41211319,7.0,part_2,go,300.0,300.0,1.0,,,,,,,,,magenta,hexagon
0.5,0,6.0,6.0,551.1851310730001,7.0,part_2,go,300.0,300.0,1.0,,,,,,,,,gray,circle
2.0,0,6.0,6.0,500.93698501600005,7.0,part_2,go,300.0,300.0,1.0,,,,,,,,,blue,square
1.0,1,6.0,6.0,451.508045197,7.0,part_2,go,300.0,300.0,1.0,,,,,,,,,green,triangle
0.5,1,5.0,5.0,417.344093323,7.0,part_2,stop,250.0,300.0,3.0,,,,,,,,,yellow,line
4.0,0,5.0,5.0,584.8801136019999,7.0,part_2,go,250.0,300.0,1.0,,,,,,,,,orange,flipped triangle
0.5,0,6.0,6.0,451.00712776200004,7.0,part_2,go,250.0,300.0,1.0,,,,,,,,,gray,circle
4.0,1,6.0,6.0,400.984048843,7.0,part_2,stop,250.0,350.0,3.0,,,,,,,,,white,diamond
4.0,1,5.0,,,7.0,,stop,200.0,350.0,4.0,,,,,,,,,white,diamond
4.0,0,6.0,6.0,517.857074738,7.0,part_2,go,200.0,350.0,1.0,,,,,,,,,orange,flipped triangle
0.5,1,6.0,6.0,517.755031586,7.0,part_2,go,200.0,350.0,1.0,,,,,,,,,yellow,line
1.0,0,6.0,6.0,417.99902915999996,7.0,part_2,go,200.0,350.0,1.0,,,,,,,,,magenta,hexagon
4.0,1,5.0,5.0,467.39077568100004,7.0,part_2,go,200.0,350.0,1.0,,,,,,,,,white,diamond
1.0,0,6.0,6.0,483.689069748,8.0,part_2,go,200.0,350.0,1.0,,,,,,,,,magenta,hexagon
4.0,1,6.0,6.0,450.866937637,8.0,part_2,stop,200.0,300.0,3.0,,,,,,,,,white,diamond
2.0,1,6.0,6.0,634.532928467,8.0,part_2,go,200.0,300.0,1.0,,,,,,,,,cyan,cross
4.0,1,6.0,6.0,418.03693771400003,8.0,part_2,stop,200.0,250.0,3.0,,,,,,,,,white,diamond
4.0,0,5.0,5.0,601.0761260989999,8.0,part_2,go,200.0,250.0,1.0,,,,,,,,,orange,flipped triangle
4.0,1,6.0,6.0,383.48698616,8.0,part_2,go,200.0,250.0,1.0,,,,,,,,,white,diamond
2.0,1,6.0,,,8.0,,stop,200.0,200.0,4.0,,,,,,,,,cyan,cross
4.0,1,6.0,,,8.0,,stop,200.0,250.0,4.0,,,,,,,,,white,diamond
1.0,1,5.0,5.0,634.6559524539999,8.0,part_2,go,200.0,250.0,1.0,,,,,,,,,green,triangle
2.0,0,5.0,5.0,517.397165298,8.0,part_2,go,200.0,250.0,1.0,,,,,,,,,blue,square
4.0,1,6.0,6.0,467.660188675,8.0,part_2,stop,200.0,300.0,3.0,,,,,,,,,white,diamond
2.0,1,5.0,,,8.0,,stop,250.0,300.0,4.0,,,,,,,,,cyan,cross
0.5,1,5.0,5.0,584.2239856719999,8.0,part_2,go,250.0,300.0,1.0,,,,,,,,,yellow,line
2.0,1,5.0,5.0,434.624910355,8.0,part_2,go,250.0,300.0,1.0,,,,,,,,,cyan,cross
2.0,0,5.0,5.0,617.999792099,8.0,part_2,go,250.0,300.0,1.0,,,,,,,,,blue,square
4.0,0,6.0,,,8.0,,go,250.0,300.0,5.0,,,,,,,,,orange,flipped triangle
4.0,1,5.0,5.0,451.021909714,8.0,part_2,go,250.0,300.0,1.0,,,,,,,,,white,diamond
0.5,1,5.0,5.0,383.940935135,8.0,part_2,stop,300.0,300.0,3.0,,,,,,,,,yellow,line
4.0,1,5.0,,,8.0,,stop,250.0,300.0,4.0,,,,,,,,,white,diamond
0.5,0,6.0,6.0,500.93007087700005,8.0,part_2,go,250.0,300.0,1.0,,,,,,,,,gray,circle
4.0,0,5.0,5.0,751.014947891,8.0,part_2,go,250.0,300.0,1.0,,,,,,,,,orange,flipped triangle
4.0,0,6.0,6.0,317.553043365,8.0,part_2,go,250.0,300.0,1.0,,,,,,,,,orange,flipped triangle
2.0,1,6.0,6.0,350.674152374,8.0,part_2,stop,250.0,250.0,3.0,,,,,,,,,cyan,cross
0.5,0,5.0,5.0,617.611885071,8.0,part_2,go,250.0,250.0,1.0,,,,,,,,,gray,circle
1.0,1,5.0,5.0,450.796127319,8.0,part_2,stop,300.0,250.0,3.0,,,,,,,,,green,triangle
1.0,1,6.0,,,8.0,,stop,300.0,200.0,4.0,,,,,,,,,green,triangle
1.0,0,6.0,6.0,567.679166794,8.0,part_2,go,300.0,200.0,1.0,,,,,,,,,magenta,hexagon
1.0,1,6.0,6.0,668.09296608,8.0,part_2,go,300.0,200.0,1.0,,,,,,,,,green,triangle
2.0,0,5.0,5.0,434.280157089,8.0,part_2,go,300.0,200.0,1.0,,,,,,,,,blue,square
1.0,1,5.0,5.0,501.10411644,8.0,part_2,go,300.0,200.0,1.0,,,,,,,,,green,triangle
4.0,0,6.0,6.0,368.026971817,8.0,part_2,go,300.0,200.0,1.0,,,,,,,,,orange,flipped triangle
2.0,1,5.0,5.0,417.572021484,8.0,part_2,stop,250.0,200.0,3.0,,,,,,,,,cyan,cross
2.0,0,6.0,6.0,567.746162415,8.0,part_2,go,250.0,200.0,1.0,,,,,,,,,blue,square
4.0,1,5.0,,,8.0,,stop,200.0,200.0,4.0,,,,,,,,,white,diamond
1.0,1,6.0,,,8.0,,stop,200.0,250.0,4.0,,,,,,,,,green,triangle
0.5,1,5.0,,,8.0,,stop,250.0,250.0,4.0,,,,,,,,,yellow,line
4.0,0,7.0,2.0,4588.648080829999,1.0,part_3,go,,,,195.0,5.0,78.0,195.0,234.0,156.0,117.0,39.0,orange,flipped triangle
2.0,0,7.0,3.0,3287.6830101,1.0,part_3,go,,,,245.0,5.0,196.0,98.0,245.0,49.0,294.0,147.0,blue,square
0.5,1,7.0,6.0,3521.10600471,1.0,part_3,stop,,,,196.0,4.0,245.0,49.0,294.0,98.0,147.0,196.0,yellow,line
1.0,1,7.0,1.0,2152.1031856500003,1.0,part_3,stop,,,,196.0,4.0,196.0,294.0,49.0,245.0,98.0,147.0,green,triangle
2.0,1,7.0,3.0,2752.86698341,1.0,part_3,stop,,,,234.0,6.0,78.0,117.0,234.0,195.0,156.0,39.0,cyan,cross
2.0,1,7.0,1.0,3086.69304848,1.0,part_3,stop,,,,270.0,5.0,270.0,216.0,108.0,324.0,162.0,54.0,cyan,cross
2.0,0,7.0,5.0,2386.0709667200003,1.0,part_3,go,,,,220.0,5.0,88.0,264.0,44.0,132.0,220.0,176.0,blue,square
1.0,1,7.0,4.0,1602.1809577899999,1.0,part_3,stop,,,,234.0,6.0,195.0,78.0,156.0,234.0,39.0,117.0,green,triangle
1.0,0,7.0,2.0,4371.82402611,1.0,part_3,go,,,,147.0,3.0,49.0,147.0,245.0,196.0,98.0,294.0,magenta,hexagon
0.5,0,7.0,,,1.0,,go,,,,0.0,,34.0,102.0,68.0,136.0,204.0,170.0,gray,circle
4.0,1,7.0,1.0,2719.90394592,1.0,part_3,stop,,,,132.0,3.0,132.0,220.0,44.0,88.0,264.0,176.0,white,diamond
0.5,1,7.0,2.0,2486.0000610399998,1.0,part_3,stop,,,,117.0,3.0,234.0,117.0,39.0,78.0,156.0,195.0,yellow,line
4.0,1,7.0,6.0,2269.06681061,1.0,part_3,stop,,,,216.0,4.0,270.0,324.0,54.0,162.0,108.0,216.0,white,diamond
0.5,0,7.0,5.0,2803.24792862,1.0,part_3,go,,,,156.0,4.0,39.0,78.0,234.0,195.0,156.0,117.0,gray,circle
2.0,1,7.0,1.0,3003.83114815,1.0,part_3,stop,,,,136.0,4.0,136.0,68.0,204.0,34.0,102.0,170.0,cyan,cross
1.0,0,7.0,2.0,3170.0298786199996,1.0,part_3,go,,,,136.0,4.0,204.0,136.0,170.0,68.0,34.0,102.0,magenta,hexagon
2.0,0,7.0,4.0,3370.25880814,1.0,part_3,go,,,,156.0,4.0,39.0,78.0,195.0,156.0,117.0,234.0,blue,square
4.0,0,7.0,6.0,2252.56490707,1.0,part_3,go,,,,196.0,4.0,98.0,147.0,294.0,49.0,245.0,196.0,orange,flipped triangle
4.0,0,7.0,2.0,3236.7119789099997,1.0,part_3,go,,,,102.0,3.0,136.0,102.0,34.0,68.0,170.0,204.0,orange,flipped triangle
2.0,0,7.0,2.0,2001.8920898400002,1.0,part_3,go,,,,136.0,4.0,170.0,136.0,204.0,34.0,68.0,102.0,blue,square
1.0,0,7.0,5.0,1818.49598885,2.0,part_3,go,,,,136.0,4.0,102.0,204.0,68.0,170.0,136.0,34.0,magenta,hexagon
0.5,0,7.0,2.0,2269.47903633,2.0,part_3,go,,,,117.0,3.0,195.0,117.0,156.0,78.0,39.0,234.0,gray,circle
4.0,1,7.0,2.0,951.108932495,2.0,part_3,stop,,,,108.0,2.0,270.0,108.0,216.0,324.0,162.0,54.0,white,diamond
2.0,0,7.0,5.0,2652.66704559,2.0,part_3,go,,,,136.0,4.0,68.0,170.0,34.0,204.0,136.0,102.0,blue,square
4.0,0,7.0,5.0,1702.0008564,2.0,part_3,go,,,,170.0,5.0,68.0,204.0,34.0,136.0,170.0,102.0,orange,flipped triangle
0.5,1,7.0,2.0,3287.3749733,2.0,part_3,stop,,,,156.0,4.0,39.0,156.0,234.0,78.0,117.0,195.0,yellow,line
2.0,1,7.0,1.0,3003.1859874700003,2.0,part_3,stop,,,,245.0,5.0,245.0,98.0,49.0,147.0,196.0,294.0,cyan,cross
0.5,1,7.0,1.0,2719.9511528000003,2.0,part_3,stop,,,,108.0,2.0,108.0,216.0,324.0,270.0,162.0,54.0,yellow,line
0.5,0,7.0,5.0,2218.43218803,2.0,part_3,go,,,,88.0,2.0,176.0,220.0,132.0,44.0,88.0,264.0,gray,circle
0.5,0,7.0,6.0,2236.23204231,2.0,part_3,go,,,,108.0,2.0,324.0,162.0,216.0,270.0,54.0,108.0,gray,circle
1.0,0,7.0,2.0,3187.36481667,2.0,part_3,go,,,,216.0,4.0,270.0,216.0,54.0,324.0,108.0,162.0,magenta,hexagon
0.5,1,7.0,5.0,1952.2819519000002,2.0,part_3,stop,,,,132.0,3.0,44.0,220.0,264.0,176.0,132.0,88.0,yellow,line
1.0,1,7.0,2.0,2452.69107819,2.0,part_3,stop,,,,156.0,4.0,39.0,156.0,234.0,78.0,195.0,117.0,green,triangle
0.5,1,7.0,2.0,2386.1470222499997,2.0,part_3,stop,,,,196.0,4.0,49.0,196.0,147.0,294.0,245.0,98.0,yellow,line
0.5,0,7.0,4.0,2853.51109505,2.0,part_3,go,,,,162.0,3.0,54.0,270.0,108.0,162.0,324.0,216.0,gray,circle
2.0,1,7.0,5.0,867.923974991,2.0,part_3,stop,,,,49.0,1.0,196.0,294.0,98.0,245.0,49.0,147.0,cyan,cross
4.0,1,7.0,2.0,2202.73089409,2.0,part_3,stop,,,,245.0,5.0,49.0,245.0,147.0,294.0,196.0,98.0,white,diamond
4.0,0,7.0,1.0,2953.2840251899997,2.0,part_3,go,,,,78.0,2.0,78.0,234.0,156.0,195.0,117.0,39.0,orange,flipped triangle
1.0,1,7.0,5.0,2168.70808601,2.0,part_3,stop,,,,68.0,2.0,102.0,170.0,136.0,34.0,68.0,204.0,green,triangle
4.0,1,7.0,1.0,1435.27984619,2.0,part_3,stop,,,,204.0,6.0,204.0,68.0,136.0,34.0,102.0,170.0,white,diamond
2.0,0,7.0,3.0,2252.93111801,3.0,part_3,go,,,,270.0,5.0,162.0,324.0,270.0,54.0,216.0,108.0,blue,square
2.0,1,7.0,2.0,2368.85499954,3.0,part_3,stop,,,,204.0,6.0,102.0,204.0,170.0,34.0,136.0,68.0,cyan,cross
1.0,1,7.0,5.0,1184.97395515,3.0,part_3,stop,,,,264.0,6.0,88.0,132.0,176.0,44.0,264.0,220.0,green,triangle
0.5,1,7.0,2.0,2569.3109035499997,3.0,part_3,stop,,,,102.0,3.0,34.0,102.0,136.0,68.0,204.0,170.0,yellow,line
1.0,1,7.0,5.0,2052.81496048,3.0,part_3,stop,,,,162.0,3.0,324.0,54.0,216.0,270.0,162.0,108.0,green,triangle
0.5,1,7.0,3.0,3103.59096527,3.0,part_3,stop,,,,162.0,3.0,324.0,216.0,162.0,270.0,108.0,54.0,yellow,line
1.0,0,7.0,5.0,1684.81278419,3.0,part_3,go,,,,195.0,5.0,156.0,39.0,78.0,234.0,195.0,117.0,magenta,hexagon
2.0,1,7.0,5.0,1918.90192032,3.0,part_3,stop,,,,132.0,3.0,176.0,88.0,220.0,44.0,132.0,264.0,cyan,cross
4.0,0,7.0,5.0,149.30796623199998,3.0,part_3,go,,,,294.0,6.0,147.0,245.0,49.0,196.0,294.0,98.0,orange,flipped triangle
4.0,0,7.0,1.0,1117.5138950300002,3.0,part_3,go,,,,132.0,3.0,132.0,264.0,220.0,176.0,44.0,88.0,orange,flipped triangle
4.0,1,7.0,6.0,1234.94410515,3.0,part_3,stop,,,,234.0,6.0,78.0,195.0,117.0,39.0,156.0,234.0,white,diamond
0.5,0,7.0,3.0,1919.42119598,3.0,part_3,go,,,,34.0,1.0,170.0,204.0,34.0,68.0,136.0,102.0,gray,circle
1.0,1,7.0,3.0,984.802961349,3.0,part_3,stop,,,,44.0,1.0,220.0,176.0,44.0,264.0,88.0,132.0,green,triangle
1.0,0,7.0,4.0,2719.76399422,3.0,part_3,go,,,,270.0,5.0,108.0,162.0,216.0,270.0,54.0,324.0,magenta,hexagon
4.0,0,7.0,2.0,1551.55205727,3.0,part_3,go,,,,270.0,5.0,216.0,270.0,324.0,162.0,54.0,108.0,orange,flipped triangle
1.0,0,7.0,2.0,3153.75494957,3.0,part_3,go,,,,196.0,4.0,245.0,196.0,49.0,98.0,147.0,294.0,magenta,hexagon
2.0,1,7.0,3.0,1618.68095398,3.0,part_3,stop,,,,234.0,6.0,156.0,117.0,234.0,39.0,195.0,78.0,cyan,cross
4.0,1,7.0,1.0,917.9069995880001,3.0,part_3,stop,,,,195.0,5.0,195.0,78.0,117.0,234.0,39.0,156.0,white,diamond
4.0,1,7.0,6.0,767.748117447,3.0,part_3,stop,,,,102.0,3.0,170.0,68.0,136.0,34.0,204.0,102.0,white,diamond
0.5,1,7.0,6.0,1185.01186371,3.0,part_3,stop,,,,102.0,3.0,68.0,204.0,136.0,34.0,170.0,102.0,yellow,line
1.0,0,7.0,4.0,1051.60713196,4.0,part_3,go,,,,176.0,4.0,44.0,220.0,264.0,176.0,132.0,88.0,magenta,hexagon
2.0,1,7.0,5.0,1034.0700149499999,4.0,part_3,stop,,,,220.0,5.0,132.0,88.0,176.0,264.0,220.0,44.0,cyan,cross
1.0,1,7.0,3.0,968.065023422,4.0,part_3,stop,,,,204.0,6.0,170.0,136.0,204.0,68.0,34.0,102.0,green,triangle
2.0,0,7.0,1.0,1001.48415565,4.0,part_3,go,,,,216.0,4.0,216.0,324.0,54.0,270.0,162.0,108.0,blue,square
4.0,0,7.0,3.0,2418.7009334599998,4.0,part_3,go,,,,270.0,5.0,162.0,216.0,270.0,324.0,108.0,54.0,orange,flipped triangle
4.0,1,7.0,4.0,801.203012466,4.0,part_3,stop,,,,264.0,6.0,132.0,88.0,176.0,264.0,220.0,44.0,white,diamond
0.5,0,7.0,4.0,2486.91391945,4.0,part_3,go,,,,147.0,3.0,98.0,49.0,196.0,147.0,294.0,245.0,gray,circle
0.5,1,7.0,3.0,1201.212883,4.0,part_3,stop,,,,132.0,3.0,44.0,176.0,132.0,88.0,264.0,220.0,yellow,line
0.5,0,7.0,3.0,985.1090908049999,4.0,part_3,go,,,,220.0,5.0,132.0,264.0,220.0,44.0,88.0,176.0,gray,circle
1.0,1,7.0,6.0,917.695999146,4.0,part_3,stop,,,,162.0,3.0,108.0,216.0,324.0,54.0,270.0,162.0,green,triangle
2.0,1,7.0,2.0,851.119041443,4.0,part_3,stop,,,,54.0,1.0,324.0,54.0,216.0,108.0,270.0,162.0,cyan,cross
1.0,0,7.0,5.0,600.749969482,4.0,part_3,go,,,,156.0,4.0,78.0,117.0,195.0,39.0,156.0,234.0,magenta,hexagon
2.0,0,7.0,6.0,766.733169556,4.0,part_3,go,,,,234.0,6.0,39.0,78.0,117.0,156.0,195.0,234.0,blue,square
0.5,0,7.0,3.0,183.771133423,4.0,part_3,go,,,,147.0,3.0,245.0,196.0,147.0,49.0,294.0,98.0,gray,circle
2.0,0,7.0,2.0,1468.15896034,4.0,part_3,go,,,,220.0,5.0,88.0,220.0,44.0,176.0,132.0,264.0,blue,square
1.0,1,7.0,4.0,917.406797409,4.0,part_3,stop,,,,98.0,2.0,294.0,245.0,49.0,98.0,196.0,147.0,green,triangle
4.0,1,7.0,2.0,3119.57907677,4.0,part_3,stop,,,,245.0,5.0,49.0,245.0,98.0,294.0,147.0,196.0,white,diamond
4.0,0,7.0,3.0,2369.43507195,4.0,part_3,go,,,,88.0,2.0,132.0,264.0,88.0,220.0,176.0,44.0,orange,flipped triangle
1.0,0,7.0,2.0,400.88605880700004,4.0,part_3,go,,,,264.0,6.0,44.0,264.0,176.0,220.0,132.0,88.0,magenta,hexagon
2.0,0,7.0,2.0,1067.7819252,4.0,part_3,go,,,,196.0,4.0,294.0,196.0,147.0,49.0,98.0,245.0,blue,square
