raw_reward_magnitude,stim_reward,stepwise_reward_magnitude,paired_with_stopping,stim_location,response,reaction_time,block,which_phase,stop_signal_trial_type,left_SSD,right_SSD,accuracy,chosen_bidding_amount,chosen_bidding_level,possible_bid_1,possible_bid_2,possible_bid_3,possible_bid_4,possible_bid_5,possible_bid_6,color_text,shape_text
186.0,3.0,2.0,0,3.0,3.0,467.714071274,1.0,phase_1,,,,,,,,,,,,,yellow,line
415.0,4.0,4.0,1,4.0,4.0,434.271097183,1.0,phase_1,,,,,,,,,,,,,gray,triangle
0.0,6.0,0.0,0,3.0,3.0,384.30809974699997,1.0,phase_1,,,,,,,,,,,,,blue,circle
90.0,2.0,1.0,1,2.0,2.0,367.574930191,1.0,phase_1,,,,,,,,,,,,,green,flipped triangle
105.0,6.0,1.0,0,2.0,2.0,434.60893631000005,1.0,phase_1,,,,,,,,,,,,,blue,circle
0.0,1.0,0.0,1,3.0,3.0,400.892972946,1.0,phase_1,,,,,,,,,,,,,cyan,cross
110.0,6.0,1.0,0,3.0,3.0,384.67383384699997,1.0,phase_1,,,,,,,,,,,,,blue,circle
110.0,2.0,1.0,1,3.0,3.0,333.863019943,1.0,phase_1,,,,,,,,,,,,,green,flipped triangle
103.0,6.0,1.0,0,3.0,3.0,433.945178986,1.0,phase_1,,,,,,,,,,,,,blue,circle
397.0,4.0,4.0,1,4.0,4.0,367.626905441,1.0,phase_1,,,,,,,,,,,,,gray,triangle
389.0,8.0,4.0,0,4.0,4.0,400.782108307,1.0,phase_1,,,,,,,,,,,,,white,diamond
0.0,1.0,0.0,1,3.0,3.0,367.3350811,1.0,phase_1,,,,,,,,,,,,,cyan,cross
222.0,3.0,2.0,0,4.0,4.0,350.796937943,1.0,phase_1,,,,,,,,,,,,,yellow,line
401.0,4.0,4.0,1,1.0,1.0,417.722940445,1.0,phase_1,,,,,,,,,,,,,gray,triangle
0.0,8.0,0.0,0,1.0,1.0,350.888967514,1.0,phase_1,,,,,,,,,,,,,white,diamond
378.0,4.0,4.0,1,4.0,4.0,384.074926376,1.0,phase_1,,,,,,,,,,,,,gray,triangle
404.0,8.0,4.0,0,3.0,3.0,383.903980255,1.0,phase_1,,,,,,,,,,,,,white,diamond
32.0,1.0,0.5,1,4.0,4.0,434.695959091,1.0,phase_1,,,,,,,,,,,,,cyan,cross
0.0,3.0,0.0,0,4.0,4.0,384.369850159,1.0,phase_1,,,,,,,,,,,,,yellow,line
66.0,5.0,0.5,0,4.0,4.0,401.053905487,1.0,phase_1,,,,,,,,,,,,,magenta,square
221.0,7.0,2.0,1,1.0,1.0,450.72889327999997,1.0,phase_1,,,,,,,,,,,,,orange,hexagon
123.0,2.0,1.0,1,3.0,3.0,384.010076523,1.0,phase_1,,,,,,,,,,,,,green,flipped triangle
116.0,6.0,1.0,0,3.0,3.0,367.209911346,1.0,phase_1,,,,,,,,,,,,,blue,circle
33.0,1.0,0.5,1,1.0,1.0,433.95400047299995,1.0,phase_1,,,,,,,,,,,,,cyan,cross
410.0,4.0,4.0,1,4.0,4.0,451.259851456,1.0,phase_1,,,,,,,,,,,,,gray,triangle
216.0,3.0,2.0,0,3.0,3.0,401.18908882100004,1.0,phase_1,,,,,,,,,,,,,yellow,line
41.0,5.0,0.5,0,4.0,4.0,384.36102867100004,1.0,phase_1,,,,,,,,,,,,,magenta,square
401.0,8.0,4.0,0,4.0,4.0,383.84199142499995,1.0,phase_1,,,,,,,,,,,,,white,diamond
187.0,7.0,2.0,1,1.0,1.0,434.086799622,1.0,phase_1,,,,,,,,,,,,,orange,hexagon
0.0,5.0,0.0,0,1.0,1.0,400.902986526,1.0,phase_1,,,,,,,,,,,,,magenta,square
0.0,4.0,0.0,1,3.0,3.0,434.22198295600003,1.0,phase_1,,,,,,,,,,,,,gray,triangle
56.0,5.0,0.5,0,2.0,2.0,350.378036499,1.0,phase_1,,,,,,,,,,,,,magenta,square
398.0,4.0,4.0,1,1.0,1.0,434.1609478,1.0,phase_1,,,,,,,,,,,,,gray,triangle
37.0,1.0,0.5,1,2.0,2.0,368.15690994299996,1.0,phase_1,,,,,,,,,,,,,cyan,cross
179.0,7.0,2.0,1,4.0,4.0,400.993824005,1.0,phase_1,,,,,,,,,,,,,orange,hexagon
69.0,1.0,0.5,1,3.0,3.0,367.661952972,1.0,phase_1,,,,,,,,,,,,,cyan,cross
120.0,2.0,1.0,1,2.0,2.0,401.108980179,1.0,phase_1,,,,,,,,,,,,,green,flipped triangle
208.0,3.0,2.0,0,2.0,2.0,367.78497695899995,1.0,phase_1,,,,,,,,,,,,,yellow,line
0.0,3.0,0.0,0,1.0,1.0,350.749015808,1.0,phase_1,,,,,,,,,,,,,yellow,line
54.0,1.0,0.5,1,1.0,1.0,384.81521606399997,1.0,phase_1,,,,,,,,,,,,,cyan,cross
192.0,3.0,2.0,0,4.0,4.0,384.59610939,1.0,phase_1,,,,,,,,,,,,,yellow,line
406.0,4.0,4.0,1,1.0,1.0,434.057950974,1.0,phase_1,,,,,,,,,,,,,gray,triangle
105.0,2.0,1.0,1,4.0,4.0,384.557008743,1.0,phase_1,,,,,,,,,,,,,green,flipped triangle
199.0,3.0,2.0,0,2.0,2.0,367.47312545799997,1.0,phase_1,,,,,,,,,,,,,yellow,line
34.0,1.0,0.5,1,2.0,2.0,334.181070328,1.0,phase_1,,,,,,,,,,,,,cyan,cross
28.0,1.0,0.5,1,1.0,1.0,367.009878159,1.0,phase_1,,,,,,,,,,,,,cyan,cross
184.0,7.0,2.0,1,2.0,2.0,300.55713653600003,1.0,phase_1,,,,,,,,,,,,,orange,hexagon
26.0,5.0,0.5,0,3.0,3.0,367.285013199,1.0,phase_1,,,,,,,,,,,,,magenta,square
398.0,4.0,4.0,1,3.0,3.0,367.457151413,1.0,phase_1,,,,,,,,,,,,,gray,triangle
0.0,1.0,0.0,1,1.0,1.0,400.98810195899995,1.0,phase_1,,,,,,,,,,,,,cyan,cross
49.0,1.0,0.5,1,1.0,1.0,400.909900665,1.0,phase_1,,,,,,,,,,,,,cyan,cross
42.0,1.0,0.5,1,3.0,3.0,350.888967514,1.0,phase_1,,,,,,,,,,,,,cyan,cross
0.0,6.0,0.0,0,1.0,1.0,450.90389251700003,1.0,phase_1,,,,,,,,,,,,,blue,circle
388.0,8.0,4.0,0,2.0,2.0,417.40417480499997,1.0,phase_1,,,,,,,,,,,,,white,diamond
85.0,2.0,1.0,1,2.0,2.0,417.37794876099997,1.0,phase_1,,,,,,,,,,,,,green,flipped triangle
397.0,8.0,4.0,0,2.0,2.0,384.387969971,1.0,phase_1,,,,,,,,,,,,,white,diamond
178.0,7.0,2.0,1,3.0,3.0,334.074020386,1.0,phase_1,,,,,,,,,,,,,orange,hexagon
116.0,6.0,1.0,0,2.0,2.0,384.714841843,1.0,phase_1,,,,,,,,,,,,,blue,circle
33.0,5.0,0.5,0,2.0,2.0,317.580938339,1.0,phase_1,,,,,,,,,,,,,magenta,square
205.0,7.0,2.0,1,1.0,1.0,350.79908371,1.0,phase_1,,,,,,,,,,,,,orange,hexagon
383.0,8.0,4.0,0,4.0,4.0,351.248979568,1.0,phase_1,,,,,,,,,,,,,white,diamond
395.0,8.0,4.0,0,4.0,4.0,367.447137833,1.0,phase_1,,,,,,,,,,,,,white,diamond
407.0,8.0,4.0,0,4.0,4.0,334.2461586,1.0,phase_1,,,,,,,,,,,,,white,diamond
197.0,3.0,2.0,0,4.0,4.0,367.521047592,1.0,phase_1,,,,,,,,,,,,,yellow,line
0.0,7.0,0.0,1,2.0,2.0,434.175014496,1.0,phase_1,,,,,,,,,,,,,orange,hexagon
208.0,3.0,2.0,0,2.0,2.0,367.40899086,1.0,phase_1,,,,,,,,,,,,,yellow,line
195.0,7.0,2.0,1,2.0,2.0,367.474079132,1.0,phase_1,,,,,,,,,,,,,orange,hexagon
214.0,3.0,2.0,0,3.0,3.0,334.12694931,1.0,phase_1,,,,,,,,,,,,,yellow,line
0.0,4.0,0.0,1,1.0,1.0,333.877086639,1.0,phase_1,,,,,,,,,,,,,gray,triangle
0.0,5.0,0.0,0,3.0,3.0,334.12289619399996,1.0,phase_1,,,,,,,,,,,,,magenta,square
94.0,2.0,1.0,1,4.0,4.0,400.55513382000004,1.0,phase_1,,,,,,,,,,,,,green,flipped triangle
0.0,2.0,0.0,1,2.0,2.0,333.96387100199996,1.0,phase_1,,,,,,,,,,,,,green,flipped triangle
220.0,3.0,2.0,0,4.0,4.0,350.54302215599995,1.0,phase_1,,,,,,,,,,,,,yellow,line
410.0,4.0,4.0,1,4.0,4.0,467.60892867999996,1.0,phase_1,,,,,,,,,,,,,gray,triangle
115.0,2.0,1.0,1,1.0,1.0,350.84104537999997,1.0,phase_1,,,,,,,,,,,,,green,flipped triangle
0.0,7.0,0.0,1,4.0,4.0,383.983135223,1.0,phase_1,,,,,,,,,,,,,orange,hexagon
60.0,5.0,0.5,0,2.0,2.0,350.88300704999995,1.0,phase_1,,,,,,,,,,,,,magenta,square
399.0,8.0,4.0,0,3.0,3.0,350.739955902,1.0,phase_1,,,,,,,,,,,,,white,diamond
29.0,1.0,0.5,1,2.0,2.0,317.424058914,1.0,phase_1,,,,,,,,,,,,,cyan,cross
0.0,3.0,0.0,0,4.0,4.0,384.23895835900004,1.0,phase_1,,,,,,,,,,,,,yellow,line
0.0,3.0,0.0,0,2.0,2.0,317.73614883399995,1.0,phase_1,,,,,,,,,,,,,yellow,line
189.0,3.0,2.0,0,1.0,1.0,317.591190338,1.0,phase_1,,,,,,,,,,,,,yellow,line
0.0,6.0,0.0,0,1.0,1.0,334.228992462,1.0,phase_1,,,,,,,,,,,,,blue,circle
65.0,5.0,0.5,0,2.0,2.0,417.89317130999996,1.0,phase_1,,,,,,,,,,,,,magenta,square
421.0,8.0,4.0,0,3.0,3.0,333.979845047,1.0,phase_1,,,,,,,,,,,,,white,diamond
396.0,4.0,4.0,1,4.0,4.0,367.615938187,1.0,phase_1,,,,,,,,,,,,,gray,triangle
184.0,3.0,2.0,0,4.0,4.0,384.613037109,1.0,phase_1,,,,,,,,,,,,,yellow,line
376.0,8.0,4.0,0,1.0,1.0,367.392063141,1.0,phase_1,,,,,,,,,,,,,white,diamond
393.0,4.0,4.0,1,3.0,3.0,351.171970367,1.0,phase_1,,,,,,,,,,,,,gray,triangle
79.0,6.0,1.0,0,2.0,2.0,367.829084396,1.0,phase_1,,,,,,,,,,,,,blue,circle
35.0,1.0,0.5,1,1.0,1.0,417.516946793,1.0,phase_1,,,,,,,,,,,,,cyan,cross
0.0,5.0,0.0,0,1.0,1.0,367.484807968,1.0,phase_1,,,,,,,,,,,,,magenta,square
58.0,1.0,0.5,1,2.0,2.0,350.382089615,1.0,phase_1,,,,,,,,,,,,,cyan,cross
66.0,1.0,0.5,1,3.0,3.0,451.273918152,1.0,phase_1,,,,,,,,,,,,,cyan,cross
0.0,8.0,0.0,0,2.0,2.0,317.315101624,1.0,phase_1,,,,,,,,,,,,,white,diamond
188.0,3.0,2.0,0,1.0,1.0,300.70495605499997,1.0,phase_1,,,,,,,,,,,,,yellow,line
415.0,8.0,4.0,0,1.0,1.0,283.92219543500005,1.0,phase_1,,,,,,,,,,,,,white,diamond
375.0,4.0,4.0,1,3.0,3.0,350.807905197,1.0,phase_1,,,,,,,,,,,,,gray,triangle
211.0,3.0,2.0,0,1.0,1.0,300.518035889,1.0,phase_1,,,,,,,,,,,,,yellow,line
181.0,7.0,2.0,1,3.0,3.0,300.776004791,1.0,phase_1,,,,,,,,,,,,,orange,hexagon
29.0,5.0,0.5,0,1.0,1.0,417.45996475199996,2.0,phase_1,,,,,,,,,,,,,magenta,square
199.0,7.0,2.0,1,1.0,1.0,351.068973541,2.0,phase_1,,,,,,,,,,,,,orange,hexagon
198.0,7.0,2.0,1,4.0,4.0,384.644031525,2.0,phase_1,,,,,,,,,,,,,orange,hexagon
205.0,7.0,2.0,1,2.0,2.0,333.385944366,2.0,phase_1,,,,,,,,,,,,,orange,hexagon
66.0,5.0,0.5,0,4.0,4.0,301.354885101,2.0,phase_1,,,,,,,,,,,,,magenta,square
78.0,2.0,1.0,1,1.0,1.0,317.40713119500003,2.0,phase_1,,,,,,,,,,,,,green,flipped triangle
118.0,2.0,1.0,1,1.0,1.0,367.585897446,2.0,phase_1,,,,,,,,,,,,,green,flipped triangle
389.0,8.0,4.0,0,4.0,4.0,333.81986617999996,2.0,phase_1,,,,,,,,,,,,,white,diamond
119.0,6.0,1.0,0,2.0,2.0,300.547122955,2.0,phase_1,,,,,,,,,,,,,blue,circle
421.0,4.0,4.0,1,1.0,1.0,351.378917694,2.0,phase_1,,,,,,,,,,,,,gray,triangle
401.0,4.0,4.0,1,1.0,1.0,317.884922028,2.0,phase_1,,,,,,,,,,,,,gray,triangle
0.0,6.0,0.0,0,3.0,3.0,384.236097336,2.0,phase_1,,,,,,,,,,,,,blue,circle
89.0,6.0,1.0,0,4.0,4.0,484.033107758,2.0,phase_1,,,,,,,,,,,,,blue,circle
95.0,2.0,1.0,1,2.0,2.0,367.587804794,2.0,phase_1,,,,,,,,,,,,,green,flipped triangle
0.0,2.0,0.0,1,3.0,3.0,350.746870041,2.0,phase_1,,,,,,,,,,,,,green,flipped triangle
80.0,2.0,1.0,1,2.0,2.0,401.13401412999997,2.0,phase_1,,,,,,,,,,,,,green,flipped triangle
216.0,3.0,2.0,0,3.0,3.0,333.65106582600004,2.0,phase_1,,,,,,,,,,,,,yellow,line
196.0,3.0,2.0,0,1.0,1.0,367.892980576,2.0,phase_1,,,,,,,,,,,,,yellow,line
122.0,6.0,1.0,0,4.0,4.0,367.58899688699995,2.0,phase_1,,,,,,,,,,,,,blue,circle
0.0,6.0,0.0,0,2.0,2.0,351.124048233,2.0,phase_1,,,,,,,,,,,,,blue,circle
0.0,6.0,0.0,0,1.0,1.0,433.976888657,2.0,phase_1,,,,,,,,,,,,,blue,circle
0.0,5.0,0.0,0,4.0,4.0,367.457866669,2.0,phase_1,,,,,,,,,,,,,magenta,square
49.0,5.0,0.5,0,4.0,4.0,450.623035431,2.0,phase_1,,,,,,,,,,,,,magenta,square
70.0,5.0,0.5,0,2.0,2.0,400.928974152,2.0,phase_1,,,,,,,,,,,,,magenta,square
26.0,5.0,0.5,0,2.0,2.0,350.998163223,2.0,phase_1,,,,,,,,,,,,,magenta,square
224.0,3.0,2.0,0,3.0,3.0,384.406089783,2.0,phase_1,,,,,,,,,,,,,yellow,line
194.0,3.0,2.0,0,2.0,2.0,384.49406623799996,2.0,phase_1,,,,,,,,,,,,,yellow,line
121.0,6.0,1.0,0,3.0,3.0,351.034164429,2.0,phase_1,,,,,,,,,,,,,blue,circle
123.0,6.0,1.0,0,3.0,3.0,333.968877792,2.0,phase_1,,,,,,,,,,,,,blue,circle
41.0,5.0,0.5,0,1.0,1.0,517.8730487820001,2.0,phase_1,,,,,,,,,,,,,magenta,square
205.0,7.0,2.0,1,4.0,4.0,401.16405487099996,2.0,phase_1,,,,,,,,,,,,,orange,hexagon
105.0,6.0,1.0,0,1.0,1.0,367.54012107799997,2.0,phase_1,,,,,,,,,,,,,blue,circle
108.0,2.0,1.0,1,1.0,1.0,417.722940445,2.0,phase_1,,,,,,,,,,,,,green,flipped triangle
75.0,1.0,0.5,1,3.0,3.0,384.55605506899997,2.0,phase_1,,,,,,,,,,,,,cyan,cross
113.0,6.0,1.0,0,4.0,4.0,350.41809082000003,2.0,phase_1,,,,,,,,,,,,,blue,circle
0.0,2.0,0.0,1,2.0,2.0,350.86297988900003,2.0,phase_1,,,,,,,,,,,,,green,flipped triangle
0.0,4.0,0.0,1,2.0,2.0,417.192935944,2.0,phase_1,,,,,,,,,,,,,gray,triangle
0.0,7.0,0.0,1,1.0,1.0,367.385864258,2.0,phase_1,,,,,,,,,,,,,orange,hexagon
401.0,8.0,4.0,0,1.0,1.0,317.353010178,2.0,phase_1,,,,,,,,,,,,,white,diamond
0.0,6.0,0.0,0,1.0,1.0,283.932209015,2.0,phase_1,,,,,,,,,,,,,blue,circle
211.0,7.0,2.0,1,2.0,2.0,317.488908768,2.0,phase_1,,,,,,,,,,,,,orange,hexagon
0.0,2.0,0.0,1,3.0,3.0,351.289987564,2.0,phase_1,,,,,,,,,,,,,green,flipped triangle
78.0,6.0,1.0,0,2.0,2.0,350.800991058,2.0,phase_1,,,,,,,,,,,,,blue,circle
93.0,2.0,1.0,1,2.0,2.0,334.19084549,2.0,phase_1,,,,,,,,,,,,,green,flipped triangle
77.0,6.0,1.0,0,3.0,3.0,334.202051163,2.0,phase_1,,,,,,,,,,,,,blue,circle
108.0,6.0,1.0,0,1.0,1.0,367.89703369100005,2.0,phase_1,,,,,,,,,,,,,blue,circle
405.0,4.0,4.0,1,3.0,3.0,367.537021637,2.0,phase_1,,,,,,,,,,,,,gray,triangle
204.0,3.0,2.0,0,2.0,2.0,334.605932236,2.0,phase_1,,,,,,,,,,,,,yellow,line
0.0,2.0,0.0,1,2.0,2.0,350.696086884,2.0,phase_1,,,,,,,,,,,,,green,flipped triangle
225.0,3.0,2.0,0,2.0,2.0,301.140069962,2.0,phase_1,,,,,,,,,,,,,yellow,line
0.0,8.0,0.0,0,4.0,4.0,367.40303039599996,2.0,phase_1,,,,,,,,,,,,,white,diamond
196.0,7.0,2.0,1,1.0,1.0,368.134975433,2.0,phase_1,,,,,,,,,,,,,orange,hexagon
0.0,6.0,0.0,0,3.0,3.0,450.960874557,2.0,phase_1,,,,,,,,,,,,,blue,circle
104.0,6.0,1.0,0,4.0,4.0,434.09800529499995,2.0,phase_1,,,,,,,,,,,,,blue,circle
93.0,2.0,1.0,1,1.0,1.0,333.77099037199997,2.0,phase_1,,,,,,,,,,,,,green,flipped triangle
0.0,1.0,0.0,1,4.0,4.0,484.53497886699995,2.0,phase_1,,,,,,,,,,,,,cyan,cross
0.0,5.0,0.0,0,2.0,2.0,384.320020676,2.0,phase_1,,,,,,,,,,,,,magenta,square
0.0,8.0,0.0,0,4.0,4.0,417.557001114,2.0,phase_1,,,,,,,,,,,,,white,diamond
101.0,6.0,1.0,0,2.0,2.0,334.34486389200003,2.0,phase_1,,,,,,,,,,,,,blue,circle
44.0,5.0,0.5,0,2.0,2.0,350.94499588,2.0,phase_1,,,,,,,,,,,,,magenta,square
33.0,1.0,0.5,1,4.0,4.0,367.797851562,2.0,phase_1,,,,,,,,,,,,,cyan,cross
184.0,7.0,2.0,1,4.0,4.0,384.304046631,2.0,phase_1,,,,,,,,,,,,,orange,hexagon
202.0,7.0,2.0,1,4.0,4.0,367.802143097,2.0,phase_1,,,,,,,,,,,,,orange,hexagon
0.0,8.0,0.0,0,3.0,3.0,366.942882538,2.0,phase_1,,,,,,,,,,,,,white,diamond
0.0,8.0,0.0,0,4.0,4.0,367.33007431,2.0,phase_1,,,,,,,,,,,,,white,diamond
95.0,2.0,1.0,1,3.0,3.0,367.760896683,2.0,phase_1,,,,,,,,,,,,,green,flipped triangle
180.0,7.0,2.0,1,4.0,4.0,401.18217468299997,2.0,phase_1,,,,,,,,,,,,,orange,hexagon
37.0,5.0,0.5,0,1.0,1.0,433.85815620399995,2.0,phase_1,,,,,,,,,,,,,magenta,square
125.0,2.0,1.0,1,4.0,4.0,367.85197258,2.0,phase_1,,,,,,,,,,,,,green,flipped triangle
31.0,5.0,0.5,0,4.0,4.0,367.660045624,2.0,phase_1,,,,,,,,,,,,,magenta,square
377.0,8.0,4.0,0,1.0,1.0,301.028013229,2.0,phase_1,,,,,,,,,,,,,white,diamond
0.0,2.0,0.0,1,1.0,1.0,334.36298370400004,2.0,phase_1,,,,,,,,,,,,,green,flipped triangle
206.0,3.0,2.0,0,3.0,3.0,350.99792480499997,2.0,phase_1,,,,,,,,,,,,,yellow,line
60.0,5.0,0.5,0,3.0,3.0,400.75492858900003,2.0,phase_1,,,,,,,,,,,,,magenta,square
42.0,1.0,0.5,1,3.0,3.0,334.03301239,2.0,phase_1,,,,,,,,,,,,,cyan,cross
208.0,7.0,2.0,1,3.0,3.0,350.49486160299995,2.0,phase_1,,,,,,,,,,,,,orange,hexagon
97.0,2.0,1.0,1,1.0,1.0,351.044893265,2.0,phase_1,,,,,,,,,,,,,green,flipped triangle
69.0,5.0,0.5,0,2.0,2.0,384.53912735,2.0,phase_1,,,,,,,,,,,,,magenta,square
185.0,3.0,2.0,0,3.0,3.0,384.05108451800004,2.0,phase_1,,,,,,,,,,,,,yellow,line
0.0,5.0,0.0,0,1.0,1.0,351.577997208,2.0,phase_1,,,,,,,,,,,,,magenta,square
27.0,1.0,0.5,1,2.0,2.0,317.88110733,2.0,phase_1,,,,,,,,,,,,,cyan,cross
412.0,4.0,4.0,1,4.0,4.0,366.889953613,2.0,phase_1,,,,,,,,,,,,,gray,triangle
0.0,5.0,0.0,0,1.0,1.0,384.547948837,2.0,phase_1,,,,,,,,,,,,,magenta,square
189.0,7.0,2.0,1,1.0,1.0,351.36890411400003,2.0,phase_1,,,,,,,,,,,,,orange,hexagon
224.0,7.0,2.0,1,4.0,4.0,367.260932922,2.0,phase_1,,,,,,,,,,,,,orange,hexagon
0.0,5.0,0.0,0,2.0,2.0,351.176023483,2.0,phase_1,,,,,,,,,,,,,magenta,square
80.0,2.0,1.0,1,4.0,4.0,468.343019485,2.0,phase_1,,,,,,,,,,,,,green,flipped triangle
86.0,2.0,1.0,1,3.0,3.0,384.251832962,2.0,phase_1,,,,,,,,,,,,,green,flipped triangle
212.0,7.0,2.0,1,3.0,3.0,384.38296318100004,2.0,phase_1,,,,,,,,,,,,,orange,hexagon
0.0,5.0,0.0,0,3.0,3.0,434.38482284500003,2.0,phase_1,,,,,,,,,,,,,magenta,square
403.0,4.0,4.0,1,3.0,3.0,367.665052414,2.0,phase_1,,,,,,,,,,,,,gray,triangle
0.0,7.0,0.0,1,3.0,3.0,383.87799263,2.0,phase_1,,,,,,,,,,,,,orange,hexagon
0.0,2.0,0.0,1,4.0,4.0,367.589950562,2.0,phase_1,,,,,,,,,,,,,green,flipped triangle
91.0,2.0,1.0,1,2.0,2.0,384.53507423400004,2.0,phase_1,,,,,,,,,,,,,green,flipped triangle
98.0,2.0,1.0,1,2.0,2.0,367.375135422,2.0,phase_1,,,,,,,,,,,,,green,flipped triangle
72.0,5.0,0.5,0,4.0,4.0,384.278059006,2.0,phase_1,,,,,,,,,,,,,magenta,square
29.0,1.0,0.5,1,1.0,1.0,450.90508461,2.0,phase_1,,,,,,,,,,,,,cyan,cross
206.0,7.0,2.0,1,3.0,3.0,451.646089554,2.0,phase_1,,,,,,,,,,,,,orange,hexagon
195.0,7.0,2.0,1,3.0,3.0,384.266853333,2.0,phase_1,,,,,,,,,,,,,orange,hexagon
212.0,7.0,2.0,1,2.0,2.0,434.31711196900005,2.0,phase_1,,,,,,,,,,,,,orange,hexagon
0.0,8.0,0.0,0,4.0,4.0,517.9169178010001,3.0,phase_1,,,,,,,,,,,,,white,diamond
82.0,2.0,1.0,1,1.0,1.0,500.89097022999994,3.0,phase_1,,,,,,,,,,,,,green,flipped triangle
409.0,4.0,4.0,1,2.0,2.0,550.86684227,3.0,phase_1,,,,,,,,,,,,,gray,triangle
27.0,1.0,0.5,1,2.0,2.0,434.391021729,3.0,phase_1,,,,,,,,,,,,,cyan,cross
204.0,7.0,2.0,1,1.0,1.0,434.208869934,3.0,phase_1,,,,,,,,,,,,,orange,hexagon
0.0,8.0,0.0,0,4.0,4.0,467.762947083,3.0,phase_1,,,,,,,,,,,,,white,diamond
108.0,6.0,1.0,0,1.0,1.0,400.640010834,3.0,phase_1,,,,,,,,,,,,,blue,circle
25.0,1.0,0.5,1,3.0,3.0,400.739908218,3.0,phase_1,,,,,,,,,,,,,cyan,cross
92.0,2.0,1.0,1,2.0,2.0,384.306907654,3.0,phase_1,,,,,,,,,,,,,green,flipped triangle
407.0,4.0,4.0,1,3.0,3.0,334.084033966,3.0,phase_1,,,,,,,,,,,,,gray,triangle
197.0,7.0,2.0,1,1.0,1.0,334.776878357,3.0,phase_1,,,,,,,,,,,,,orange,hexagon
40.0,1.0,0.5,1,4.0,4.0,417.16384887699996,3.0,phase_1,,,,,,,,,,,,,cyan,cross
0.0,6.0,0.0,0,3.0,3.0,417.823076248,3.0,phase_1,,,,,,,,,,,,,blue,circle
95.0,6.0,1.0,0,1.0,1.0,451.071977615,3.0,phase_1,,,,,,,,,,,,,blue,circle
198.0,7.0,2.0,1,1.0,1.0,384.32788848900003,3.0,phase_1,,,,,,,,,,,,,orange,hexagon
104.0,2.0,1.0,1,2.0,2.0,383.992910385,3.0,phase_1,,,,,,,,,,,,,green,flipped triangle
115.0,2.0,1.0,1,2.0,2.0,400.859832764,3.0,phase_1,,,,,,,,,,,,,green,flipped triangle
69.0,1.0,0.5,1,2.0,2.0,417.299032211,3.0,phase_1,,,,,,,,,,,,,cyan,cross
381.0,8.0,4.0,0,1.0,1.0,417.773008347,3.0,phase_1,,,,,,,,,,,,,white,diamond
191.0,7.0,2.0,1,3.0,3.0,401.286125183,3.0,phase_1,,,,,,,,,,,,,orange,hexagon
408.0,8.0,4.0,0,4.0,4.0,334.19990539599996,3.0,phase_1,,,,,,,,,,,,,white,diamond
89.0,2.0,1.0,1,3.0,3.0,400.952100754,3.0,phase_1,,,,,,,,,,,,,green,flipped triangle
124.0,6.0,1.0,0,2.0,2.0,434.175014496,3.0,phase_1,,,,,,,,,,,,,blue,circle
0.0,6.0,0.0,0,4.0,4.0,368.363142014,3.0,phase_1,,,,,,,,,,,,,blue,circle
403.0,4.0,4.0,1,1.0,1.0,434.168100357,3.0,phase_1,,,,,,,,,,,,,gray,triangle
68.0,1.0,0.5,1,3.0,3.0,401.184082031,3.0,phase_1,,,,,,,,,,,,,cyan,cross
104.0,6.0,1.0,0,2.0,2.0,367.245912552,3.0,phase_1,,,,,,,,,,,,,blue,circle
203.0,3.0,2.0,0,2.0,2.0,400.816917419,3.0,phase_1,,,,,,,,,,,,,yellow,line
406.0,4.0,4.0,1,2.0,2.0,401.485919952,3.0,phase_1,,,,,,,,,,,,,gray,triangle
420.0,8.0,4.0,0,2.0,2.0,384.300947189,3.0,phase_1,,,,,,,,,,,,,white,diamond
384.0,8.0,4.0,0,3.0,3.0,384.171962738,3.0,phase_1,,,,,,,,,,,,,white,diamond
421.0,8.0,4.0,0,4.0,4.0,384.35292244000004,3.0,phase_1,,,,,,,,,,,,,white,diamond
0.0,2.0,0.0,1,2.0,2.0,417.390823364,3.0,phase_1,,,,,,,,,,,,,green,flipped triangle
186.0,3.0,2.0,0,1.0,1.0,467.422008514,3.0,phase_1,,,,,,,,,,,,,yellow,line
122.0,2.0,1.0,1,2.0,2.0,401.02314949,3.0,phase_1,,,,,,,,,,,,,green,flipped triangle
122.0,2.0,1.0,1,2.0,2.0,351.01294517499997,3.0,phase_1,,,,,,,,,,,,,green,flipped triangle
48.0,1.0,0.5,1,1.0,1.0,333.712100983,3.0,phase_1,,,,,,,,,,,,,cyan,cross
60.0,1.0,0.5,1,3.0,3.0,350.440979004,3.0,phase_1,,,,,,,,,,,,,cyan,cross
0.0,1.0,0.0,1,1.0,1.0,334.41901207,3.0,phase_1,,,,,,,,,,,,,cyan,cross
40.0,1.0,0.5,1,2.0,2.0,368.000984192,3.0,phase_1,,,,,,,,,,,,,cyan,cross
407.0,4.0,4.0,1,4.0,4.0,450.963020325,3.0,phase_1,,,,,,,,,,,,,gray,triangle
28.0,1.0,0.5,1,2.0,2.0,401.19099617,3.0,phase_1,,,,,,,,,,,,,cyan,cross
398.0,8.0,4.0,0,3.0,3.0,383.911132812,3.0,phase_1,,,,,,,,,,,,,white,diamond
61.0,5.0,0.5,0,4.0,4.0,401.09014511099997,3.0,phase_1,,,,,,,,,,,,,magenta,square
66.0,1.0,0.5,1,3.0,3.0,384.270906448,3.0,phase_1,,,,,,,,,,,,,cyan,cross
125.0,6.0,1.0,0,3.0,3.0,417.643070221,3.0,phase_1,,,,,,,,,,,,,blue,circle
94.0,6.0,1.0,0,4.0,4.0,367.545127869,3.0,phase_1,,,,,,,,,,,,,blue,circle
61.0,1.0,0.5,1,1.0,1.0,367.501974106,3.0,phase_1,,,,,,,,,,,,,cyan,cross
405.0,4.0,4.0,1,1.0,1.0,417.219161987,3.0,phase_1,,,,,,,,,,,,,gray,triangle
388.0,4.0,4.0,1,3.0,3.0,334.482908249,3.0,phase_1,,,,,,,,,,,,,gray,triangle
74.0,1.0,0.5,1,1.0,1.0,367.481946945,3.0,phase_1,,,,,,,,,,,,,cyan,cross
215.0,3.0,2.0,0,3.0,3.0,384.130954742,3.0,phase_1,,,,,,,,,,,,,yellow,line
377.0,4.0,4.0,1,1.0,1.0,417.40512847900004,3.0,phase_1,,,,,,,,,,,,,gray,triangle
395.0,4.0,4.0,1,3.0,3.0,400.63500404399997,3.0,phase_1,,,,,,,,,,,,,gray,triangle
97.0,6.0,1.0,0,4.0,4.0,367.465019226,3.0,phase_1,,,,,,,,,,,,,blue,circle
218.0,3.0,2.0,0,4.0,4.0,401.570081711,3.0,phase_1,,,,,,,,,,,,,yellow,line
112.0,2.0,1.0,1,3.0,3.0,400.71606636,3.0,phase_1,,,,,,,,,,,,,green,flipped triangle
375.0,4.0,4.0,1,4.0,4.0,367.708921432,3.0,phase_1,,,,,,,,,,,,,gray,triangle
425.0,8.0,4.0,0,4.0,4.0,317.45386123699996,3.0,phase_1,,,,,,,,,,,,,white,diamond
39.0,1.0,0.5,1,1.0,1.0,384.67907905600003,3.0,phase_1,,,,,,,,,,,,,cyan,cross
203.0,3.0,2.0,0,4.0,4.0,400.82597732500005,3.0,phase_1,,,,,,,,,,,,,yellow,line
0.0,7.0,0.0,1,4.0,4.0,367.564916611,3.0,phase_1,,,,,,,,,,,,,orange,hexagon
378.0,4.0,4.0,1,3.0,3.0,351.22108459500004,3.0,phase_1,,,,,,,,,,,,,gray,triangle
0.0,4.0,0.0,1,4.0,4.0,367.11502075199996,3.0,phase_1,,,,,,,,,,,,,gray,triangle
381.0,4.0,4.0,1,4.0,4.0,383.867025375,3.0,phase_1,,,,,,,,,,,,,gray,triangle
76.0,2.0,1.0,1,1.0,1.0,367.302894592,3.0,phase_1,,,,,,,,,,,,,green,flipped triangle
68.0,1.0,0.5,1,4.0,4.0,367.712974548,3.0,phase_1,,,,,,,,,,,,,cyan,cross
378.0,4.0,4.0,1,3.0,3.0,367.717027664,3.0,phase_1,,,,,,,,,,,,,gray,triangle
206.0,7.0,2.0,1,4.0,4.0,400.764942169,3.0,phase_1,,,,,,,,,,,,,orange,hexagon
67.0,1.0,0.5,1,1.0,1.0,384.07301902800003,3.0,phase_1,,,,,,,,,,,,,cyan,cross
375.0,4.0,4.0,1,2.0,2.0,434.447050095,3.0,phase_1,,,,,,,,,,,,,gray,triangle
409.0,4.0,4.0,1,2.0,2.0,367.54012107799997,3.0,phase_1,,,,,,,,,,,,,gray,triangle
0.0,5.0,0.0,0,3.0,3.0,384.222984314,3.0,phase_1,,,,,,,,,,,,,magenta,square
382.0,8.0,4.0,0,2.0,2.0,367.51294136,3.0,phase_1,,,,,,,,,,,,,white,diamond
409.0,8.0,4.0,0,1.0,1.0,350.53110122699997,3.0,phase_1,,,,,,,,,,,,,white,diamond
100.0,6.0,1.0,0,4.0,4.0,467.365980148,3.0,phase_1,,,,,,,,,,,,,blue,circle
83.0,6.0,1.0,0,1.0,1.0,384.122133255,3.0,phase_1,,,,,,,,,,,,,blue,circle
30.0,1.0,0.5,1,3.0,3.0,401.154994965,3.0,phase_1,,,,,,,,,,,,,cyan,cross
179.0,7.0,2.0,1,3.0,3.0,350.70705413800005,3.0,phase_1,,,,,,,,,,,,,orange,hexagon
86.0,2.0,1.0,1,3.0,3.0,350.703954697,3.0,phase_1,,,,,,,,,,,,,green,flipped triangle
43.0,5.0,0.5,0,3.0,3.0,367.475032806,3.0,phase_1,,,,,,,,,,,,,magenta,square
111.0,6.0,1.0,0,4.0,4.0,384.14692878700004,3.0,phase_1,,,,,,,,,,,,,blue,circle
50.0,5.0,0.5,0,2.0,2.0,400.98309516899997,3.0,phase_1,,,,,,,,,,,,,magenta,square
119.0,2.0,1.0,1,1.0,1.0,434.47804451,3.0,phase_1,,,,,,,,,,,,,green,flipped triangle
0.0,4.0,0.0,1,1.0,1.0,467.691898346,3.0,phase_1,,,,,,,,,,,,,gray,triangle
0.0,4.0,0.0,1,1.0,1.0,367.42186546299996,3.0,phase_1,,,,,,,,,,,,,gray,triangle
0.0,2.0,0.0,1,2.0,2.0,384.66000556899996,3.0,phase_1,,,,,,,,,,,,,green,flipped triangle
60.0,1.0,0.5,1,4.0,4.0,584.240913391,3.0,phase_1,,,,,,,,,,,,,cyan,cross
27.0,5.0,0.5,0,4.0,4.0,350.798845291,3.0,phase_1,,,,,,,,,,,,,magenta,square
36.0,5.0,0.5,0,3.0,3.0,400.940895081,3.0,phase_1,,,,,,,,,,,,,magenta,square
207.0,7.0,2.0,1,4.0,4.0,417.364835739,3.0,phase_1,,,,,,,,,,,,,orange,hexagon
46.0,5.0,0.5,0,2.0,2.0,367.131948471,3.0,phase_1,,,,,,,,,,,,,magenta,square
220.0,3.0,2.0,0,3.0,3.0,384.454011917,3.0,phase_1,,,,,,,,,,,,,yellow,line
57.0,5.0,0.5,0,4.0,4.0,317.599058151,3.0,phase_1,,,,,,,,,,,,,magenta,square
421.0,8.0,4.0,0,2.0,2.0,316.96319580100004,3.0,phase_1,,,,,,,,,,,,,white,diamond
405.0,4.0,4.0,1,1.0,1.0,351.368188858,3.0,phase_1,,,,,,,,,,,,,gray,triangle
201.0,7.0,2.0,1,1.0,1.0,317.672014236,3.0,phase_1,,,,,,,,,,,,,orange,hexagon
180.0,7.0,2.0,1,3.0,3.0,350.70204734799995,3.0,phase_1,,,,,,,,,,,,,orange,hexagon
124.0,2.0,1.0,1,2.0,2.0,384.61494445799997,3.0,phase_1,,,,,,,,,,,,,green,flipped triangle
124.0,6.0,1.0,0,2.0,2.0,334.32197570799997,3.0,phase_1,,,,,,,,,,,,,blue,circle
62.0,5.0,0.5,0,4.0,4.0,417.579889297,4.0,phase_1,,,,,,,,,,,,,magenta,square
0.0,8.0,0.0,0,1.0,1.0,367.673873901,4.0,phase_1,,,,,,,,,,,,,white,diamond
181.0,3.0,2.0,0,1.0,1.0,367.486953735,4.0,phase_1,,,,,,,,,,,,,yellow,line
0.0,3.0,0.0,0,2.0,2.0,351.143836975,4.0,phase_1,,,,,,,,,,,,,yellow,line
0.0,8.0,0.0,0,1.0,1.0,451.53999328599997,4.0,phase_1,,,,,,,,,,,,,white,diamond
404.0,8.0,4.0,0,3.0,3.0,450.834989548,4.0,phase_1,,,,,,,,,,,,,white,diamond
195.0,7.0,2.0,1,1.0,1.0,367.598056793,4.0,phase_1,,,,,,,,,,,,,orange,hexagon
45.0,5.0,0.5,0,3.0,3.0,384.48309898400004,4.0,phase_1,,,,,,,,,,,,,magenta,square
72.0,5.0,0.5,0,3.0,3.0,383.923053741,4.0,phase_1,,,,,,,,,,,,,magenta,square
0.0,4.0,0.0,1,2.0,2.0,267.748832703,4.0,phase_1,,,,,,,,,,,,,gray,triangle
0.0,1.0,0.0,1,1.0,1.0,467.56696701,4.0,phase_1,,,,,,,,,,,,,cyan,cross
50.0,1.0,0.5,1,4.0,4.0,400.676965714,4.0,phase_1,,,,,,,,,,,,,cyan,cross
27.0,1.0,0.5,1,1.0,1.0,333.60719680799997,4.0,phase_1,,,,,,,,,,,,,cyan,cross
71.0,5.0,0.5,0,4.0,4.0,434.275865555,4.0,phase_1,,,,,,,,,,,,,magenta,square
190.0,7.0,2.0,1,4.0,4.0,384.34600830100004,4.0,phase_1,,,,,,,,,,,,,orange,hexagon
406.0,8.0,4.0,0,2.0,2.0,367.78497695899995,4.0,phase_1,,,,,,,,,,,,,white,diamond
125.0,6.0,1.0,0,2.0,2.0,350.31104087800003,4.0,phase_1,,,,,,,,,,,,,blue,circle
381.0,8.0,4.0,0,4.0,4.0,367.894887924,4.0,phase_1,,,,,,,,,,,,,white,diamond
413.0,4.0,4.0,1,3.0,3.0,551.0010719300001,4.0,phase_1,,,,,,,,,,,,,gray,triangle
117.0,2.0,1.0,1,3.0,3.0,383.845090866,4.0,phase_1,,,,,,,,,,,,,green,flipped triangle
40.0,1.0,0.5,1,1.0,1.0,433.914899826,4.0,phase_1,,,,,,,,,,,,,cyan,cross
206.0,7.0,2.0,1,3.0,3.0,383.968830109,4.0,phase_1,,,,,,,,,,,,,orange,hexagon
217.0,3.0,2.0,0,4.0,4.0,333.941936493,4.0,phase_1,,,,,,,,,,,,,yellow,line
176.0,3.0,2.0,0,4.0,4.0,417.762041092,4.0,phase_1,,,,,,,,,,,,,yellow,line
199.0,7.0,2.0,1,2.0,2.0,384.616136551,4.0,phase_1,,,,,,,,,,,,,orange,hexagon
100.0,6.0,1.0,0,4.0,4.0,367.55084991499996,4.0,phase_1,,,,,,,,,,,,,blue,circle
0.0,4.0,0.0,1,4.0,4.0,284.62815284699997,4.0,phase_1,,,,,,,,,,,,,gray,triangle
0.0,3.0,0.0,0,4.0,4.0,367.769002914,4.0,phase_1,,,,,,,,,,,,,yellow,line
65.0,5.0,0.5,0,3.0,3.0,350.98314285299995,4.0,phase_1,,,,,,,,,,,,,magenta,square
97.0,2.0,1.0,1,4.0,4.0,417.620897293,4.0,phase_1,,,,,,,,,,,,,green,flipped triangle
418.0,8.0,4.0,0,1.0,1.0,451.163053513,4.0,phase_1,,,,,,,,,,,,,white,diamond
0.0,3.0,0.0,0,1.0,1.0,367.374897003,4.0,phase_1,,,,,,,,,,,,,yellow,line
79.0,2.0,1.0,1,3.0,3.0,384.068965912,4.0,phase_1,,,,,,,,,,,,,green,flipped triangle
114.0,6.0,1.0,0,4.0,4.0,401.288032532,4.0,phase_1,,,,,,,,,,,,,blue,circle
97.0,6.0,1.0,0,4.0,4.0,367.866039276,4.0,phase_1,,,,,,,,,,,,,blue,circle
0.0,1.0,0.0,1,4.0,4.0,367.548942566,4.0,phase_1,,,,,,,,,,,,,cyan,cross
78.0,2.0,1.0,1,4.0,4.0,451.323986053,4.0,phase_1,,,,,,,,,,,,,green,flipped triangle
75.0,1.0,0.5,1,4.0,4.0,350.941896439,4.0,phase_1,,,,,,,,,,,,,cyan,cross
0.0,3.0,0.0,0,2.0,2.0,417.331933975,4.0,phase_1,,,,,,,,,,,,,yellow,line
0.0,3.0,0.0,0,3.0,3.0,484.589099884,4.0,phase_1,,,,,,,,,,,,,yellow,line
382.0,8.0,4.0,0,3.0,3.0,367.294073105,4.0,phase_1,,,,,,,,,,,,,white,diamond
190.0,7.0,2.0,1,2.0,2.0,350.440979004,4.0,phase_1,,,,,,,,,,,,,orange,hexagon
176.0,3.0,2.0,0,4.0,4.0,367.774009705,4.0,phase_1,,,,,,,,,,,,,yellow,line
214.0,7.0,2.0,1,1.0,1.0,350.792884827,4.0,phase_1,,,,,,,,,,,,,orange,hexagon
406.0,4.0,4.0,1,2.0,2.0,351.163864136,4.0,phase_1,,,,,,,,,,,,,gray,triangle
211.0,3.0,2.0,0,2.0,2.0,367.36297607399996,4.0,phase_1,,,,,,,,,,,,,yellow,line
394.0,8.0,4.0,0,3.0,3.0,351.43518447900004,4.0,phase_1,,,,,,,,,,,,,white,diamond
45.0,1.0,0.5,1,3.0,3.0,350.910186768,4.0,phase_1,,,,,,,,,,,,,cyan,cross
399.0,4.0,4.0,1,3.0,3.0,367.797851562,4.0,phase_1,,,,,,,,,,,,,gray,triangle
92.0,6.0,1.0,0,1.0,1.0,451.068162918,4.0,phase_1,,,,,,,,,,,,,blue,circle
31.0,5.0,0.5,0,3.0,3.0,483.96301269500003,4.0,phase_1,,,,,,,,,,,,,magenta,square
29.0,1.0,0.5,1,2.0,2.0,417.405843735,4.0,phase_1,,,,,,,,,,,,,cyan,cross
383.0,4.0,4.0,1,2.0,2.0,367.838859558,4.0,phase_1,,,,,,,,,,,,,gray,triangle
65.0,5.0,0.5,0,2.0,2.0,367.234945297,4.0,phase_1,,,,,,,,,,,,,magenta,square
0.0,4.0,0.0,1,4.0,4.0,400.980949402,4.0,phase_1,,,,,,,,,,,,,gray,triangle
399.0,4.0,4.0,1,4.0,4.0,401.170015335,4.0,phase_1,,,,,,,,,,,,,gray,triangle
27.0,5.0,0.5,0,2.0,2.0,434.28087234500003,4.0,phase_1,,,,,,,,,,,,,magenta,square
184.0,3.0,2.0,0,2.0,2.0,350.396156311,4.0,phase_1,,,,,,,,,,,,,yellow,line
212.0,3.0,2.0,0,4.0,4.0,351.09806060799997,4.0,phase_1,,,,,,,,,,,,,yellow,line
93.0,6.0,1.0,0,2.0,2.0,450.852870941,4.0,phase_1,,,,,,,,,,,,,blue,circle
414.0,8.0,4.0,0,4.0,4.0,300.39691925,4.0,phase_1,,,,,,,,,,,,,white,diamond
181.0,7.0,2.0,1,2.0,2.0,401.361227036,4.0,phase_1,,,,,,,,,,,,,orange,hexagon
0.0,5.0,0.0,0,2.0,2.0,367.811918259,4.0,phase_1,,,,,,,,,,,,,magenta,square
198.0,7.0,2.0,1,4.0,4.0,401.078939438,4.0,phase_1,,,,,,,,,,,,,orange,hexagon
188.0,3.0,2.0,0,1.0,1.0,417.30594635,4.0,phase_1,,,,,,,,,,,,,yellow,line
67.0,5.0,0.5,0,1.0,1.0,317.648887634,4.0,phase_1,,,,,,,,,,,,,magenta,square
405.0,8.0,4.0,0,2.0,2.0,434.433937073,4.0,phase_1,,,,,,,,,,,,,white,diamond
97.0,6.0,1.0,0,3.0,3.0,367.47694015499997,4.0,phase_1,,,,,,,,,,,,,blue,circle
81.0,6.0,1.0,0,2.0,2.0,417.163133621,4.0,phase_1,,,,,,,,,,,,,blue,circle
47.0,5.0,0.5,0,1.0,1.0,384.05394554099996,4.0,phase_1,,,,,,,,,,,,,magenta,square
73.0,5.0,0.5,0,1.0,1.0,317.808151245,4.0,phase_1,,,,,,,,,,,,,magenta,square
34.0,5.0,0.5,0,3.0,3.0,383.822917938,4.0,phase_1,,,,,,,,,,,,,magenta,square
211.0,3.0,2.0,0,1.0,1.0,267.208099365,4.0,phase_1,,,,,,,,,,,,,yellow,line
411.0,8.0,4.0,0,2.0,2.0,300.759077072,4.0,phase_1,,,,,,,,,,,,,white,diamond
220.0,3.0,2.0,0,4.0,4.0,284.324884415,4.0,phase_1,,,,,,,,,,,,,yellow,line
413.0,4.0,4.0,1,3.0,3.0,368.020057678,4.0,phase_1,,,,,,,,,,,,,gray,triangle
0.0,6.0,0.0,0,2.0,2.0,333.446979523,4.0,phase_1,,,,,,,,,,,,,blue,circle
0.0,2.0,0.0,1,1.0,1.0,267.45891571000004,4.0,phase_1,,,,,,,,,,,,,green,flipped triangle
425.0,8.0,4.0,0,1.0,1.0,434.087991714,4.0,phase_1,,,,,,,,,,,,,white,diamond
0.0,1.0,0.0,1,3.0,3.0,401.440858841,4.0,phase_1,,,,,,,,,,,,,cyan,cross
223.0,7.0,2.0,1,3.0,3.0,384.47999954200003,4.0,phase_1,,,,,,,,,,,,,orange,hexagon
202.0,7.0,2.0,1,3.0,3.0,334.223031998,4.0,phase_1,,,,,,,,,,,,,orange,hexagon
87.0,2.0,1.0,1,1.0,1.0,484.617948532,4.0,phase_1,,,,,,,,,,,,,green,flipped triangle
409.0,4.0,4.0,1,1.0,1.0,317.74377822900004,4.0,phase_1,,,,,,,,,,,,,gray,triangle
384.0,4.0,4.0,1,4.0,4.0,383.794784546,4.0,phase_1,,,,,,,,,,,,,gray,triangle
0.0,8.0,0.0,0,1.0,1.0,350.852012634,4.0,phase_1,,,,,,,,,,,,,white,diamond
0.0,3.0,0.0,0,2.0,2.0,367.30122566200004,4.0,phase_1,,,,,,,,,,,,,yellow,line
388.0,8.0,4.0,0,2.0,2.0,350.692033768,4.0,phase_1,,,,,,,,,,,,,white,diamond
45.0,1.0,0.5,1,3.0,3.0,350.62789917,4.0,phase_1,,,,,,,,,,,,,cyan,cross
0.0,8.0,0.0,0,1.0,1.0,317.24095344499995,4.0,phase_1,,,,,,,,,,,,,white,diamond
186.0,7.0,2.0,1,1.0,1.0,400.12907981899997,4.0,phase_1,,,,,,,,,,,,,orange,hexagon
75.0,6.0,1.0,0,1.0,1.0,350.541114807,4.0,phase_1,,,,,,,,,,,,,blue,circle
0.0,8.0,0.0,0,2.0,2.0,367.480993271,4.0,phase_1,,,,,,,,,,,,,white,diamond
0.0,5.0,0.0,0,3.0,3.0,384.157896042,4.0,phase_1,,,,,,,,,,,,,magenta,square
0.0,7.0,0.0,1,3.0,3.0,367.47694015499997,4.0,phase_1,,,,,,,,,,,,,orange,hexagon
120.0,6.0,1.0,0,3.0,3.0,300.698041916,4.0,phase_1,,,,,,,,,,,,,blue,circle
178.0,3.0,2.0,0,2.0,2.0,384.70005989099997,4.0,phase_1,,,,,,,,,,,,,yellow,line
412.0,8.0,4.0,0,3.0,3.0,451.020002365,4.0,phase_1,,,,,,,,,,,,,white,diamond
192.0,3.0,2.0,0,1.0,1.0,334.065914154,4.0,phase_1,,,,,,,,,,,,,yellow,line
94.0,2.0,1.0,1,4.0,4.0,350.605010986,4.0,phase_1,,,,,,,,,,,,,green,flipped triangle
0.0,8.0,4.0,0,5.0,5.0,467.595100403,1.0,phase_2,go,250.0,250.0,1.0,,,,,,,,,white,diamond
0.0,8.0,4.0,0,6.0,6.0,368.066072464,1.0,phase_2,go,250.0,250.0,1.0,,,,,,,,,white,diamond
0.0,2.0,1.0,1,5.0,5.0,350.790023804,1.0,phase_2,stop,250.0,250.0,3.0,,,,,,,,,green,flipped triangle
0.0,7.0,2.0,1,6.0,0.0,,1.0,phase_2,stop,250.0,250.0,4.0,,,,,,,,,orange,hexagon
0.0,2.0,1.0,1,6.0,6.0,534.471035004,1.0,phase_2,go,250.0,250.0,1.0,,,,,,,,,green,flipped triangle
0.0,5.0,0.5,0,5.0,5.0,534.121990204,1.0,phase_2,go,250.0,250.0,1.0,,,,,,,,,magenta,square
0.0,6.0,1.0,0,5.0,5.0,517.572879791,1.0,phase_2,go,250.0,250.0,1.0,,,,,,,,,blue,circle
0.0,5.0,0.5,0,5.0,5.0,500.798940659,1.0,phase_2,go,250.0,250.0,1.0,,,,,,,,,magenta,square
0.0,5.0,0.5,0,5.0,5.0,450.757026672,1.0,phase_2,go,250.0,250.0,1.0,,,,,,,,,magenta,square
0.0,1.0,0.5,1,5.0,0.0,,1.0,phase_2,stop,200.0,250.0,4.0,,,,,,,,,cyan,cross
0.0,3.0,2.0,0,6.0,6.0,567.313909531,1.0,phase_2,go,200.0,250.0,1.0,,,,,,,,,yellow,line
0.0,6.0,1.0,0,6.0,6.0,551.357984543,1.0,phase_2,go,200.0,250.0,1.0,,,,,,,,,blue,circle
0.0,1.0,0.5,1,6.0,6.0,433.623075485,1.0,phase_2,go,200.0,250.0,1.0,,,,,,,,,cyan,cross
0.0,6.0,1.0,0,6.0,6.0,500.813961029,1.0,phase_2,go,200.0,250.0,1.0,,,,,,,,,blue,circle
0.0,1.0,0.5,1,6.0,6.0,451.24292373699996,1.0,phase_2,stop,200.0,300.0,3.0,,,,,,,,,cyan,cross
0.0,5.0,0.5,0,5.0,5.0,600.723981857,1.0,phase_2,go,200.0,300.0,1.0,,,,,,,,,magenta,square
0.0,2.0,1.0,1,6.0,0.0,,1.0,phase_2,stop,200.0,250.0,4.0,,,,,,,,,green,flipped triangle
0.0,7.0,2.0,1,6.0,0.0,,1.0,phase_2,stop,200.0,300.0,4.0,,,,,,,,,orange,hexagon
0.0,7.0,2.0,1,6.0,6.0,417.510986328,1.0,phase_2,go,200.0,300.0,1.0,,,,,,,,,orange,hexagon
0.0,5.0,0.5,0,5.0,5.0,501.108884811,1.0,phase_2,go,200.0,300.0,1.0,,,,,,,,,magenta,square
0.0,1.0,0.5,1,5.0,0.0,,1.0,phase_2,stop,250.0,300.0,4.0,,,,,,,,,cyan,cross
0.0,4.0,4.0,1,6.0,0.0,,1.0,phase_2,stop,250.0,350.0,4.0,,,,,,,,,gray,triangle
0.0,7.0,2.0,1,5.0,0.0,,1.0,phase_2,stop,300.0,350.0,4.0,,,,,,,,,orange,hexagon
0.0,1.0,0.5,1,6.0,0.0,,1.0,phase_2,stop,300.0,400.0,4.0,,,,,,,,,cyan,cross
0.0,3.0,2.0,0,5.0,5.0,667.617082596,1.0,phase_2,go,300.0,400.0,1.0,,,,,,,,,yellow,line
0.0,3.0,2.0,0,6.0,6.0,684.252023697,1.0,phase_2,go,300.0,400.0,1.0,,,,,,,,,yellow,line
0.0,6.0,1.0,0,6.0,6.0,617.354154587,1.0,phase_2,go,300.0,400.0,1.0,,,,,,,,,blue,circle
0.0,6.0,1.0,0,5.0,5.0,550.967931747,1.0,phase_2,go,300.0,400.0,1.0,,,,,,,,,blue,circle
0.0,1.0,0.5,1,5.0,0.0,,1.0,phase_2,stop,350.0,400.0,4.0,,,,,,,,,cyan,cross
0.0,5.0,0.5,0,5.0,5.0,717.850923538,1.0,phase_2,go,350.0,400.0,1.0,,,,,,,,,magenta,square
0.0,3.0,2.0,0,6.0,6.0,534.0850353239999,1.0,phase_2,go,350.0,400.0,1.0,,,,,,,,,yellow,line
0.0,2.0,1.0,1,5.0,0.0,,1.0,phase_2,stop,400.0,400.0,4.0,,,,,,,,,green,flipped triangle
0.0,3.0,2.0,0,5.0,5.0,717.5049781800001,1.0,phase_2,go,400.0,400.0,1.0,,,,,,,,,yellow,line
0.0,4.0,4.0,1,6.0,6.0,584.228038788,1.0,phase_2,go,400.0,400.0,1.0,,,,,,,,,gray,triangle
0.0,8.0,4.0,0,5.0,5.0,684.589147568,1.0,phase_2,go,400.0,400.0,1.0,,,,,,,,,white,diamond
0.0,3.0,2.0,0,6.0,6.0,501.063108444,1.0,phase_2,go,400.0,400.0,1.0,,,,,,,,,yellow,line
0.0,3.0,2.0,0,5.0,5.0,517.867088318,2.0,phase_2,go,400.0,400.0,1.0,,,,,,,,,yellow,line
0.0,4.0,4.0,1,6.0,6.0,517.71903038,2.0,phase_2,go,400.0,400.0,1.0,,,,,,,,,gray,triangle
0.0,6.0,1.0,0,6.0,6.0,617.62213707,2.0,phase_2,go,400.0,400.0,1.0,,,,,,,,,blue,circle
0.0,8.0,4.0,0,6.0,6.0,584.329128265,2.0,phase_2,go,400.0,400.0,1.0,,,,,,,,,white,diamond
0.0,1.0,0.5,1,6.0,6.0,517.279148102,2.0,phase_2,stop,400.0,450.0,3.0,,,,,,,,,cyan,cross
0.0,4.0,4.0,1,6.0,0.0,,2.0,phase_2,stop,400.0,400.0,4.0,,,,,,,,,gray,triangle
0.0,6.0,1.0,0,5.0,5.0,600.955963135,2.0,phase_2,go,400.0,400.0,1.0,,,,,,,,,blue,circle
0.0,8.0,4.0,0,5.0,5.0,434.695005417,2.0,phase_2,go,400.0,400.0,1.0,,,,,,,,,white,diamond
0.0,2.0,1.0,1,6.0,6.0,433.929920197,2.0,phase_2,stop,400.0,450.0,3.0,,,,,,,,,green,flipped triangle
0.0,3.0,2.0,0,5.0,5.0,684.07702446,2.0,phase_2,go,400.0,450.0,1.0,,,,,,,,,yellow,line
0.0,1.0,0.5,1,6.0,0.0,,2.0,phase_2,stop,400.0,400.0,4.0,,,,,,,,,cyan,cross
0.0,8.0,4.0,0,6.0,6.0,784.4209671020001,2.0,phase_2,go,400.0,400.0,1.0,,,,,,,,,white,diamond
0.0,2.0,1.0,1,6.0,0.0,,2.0,phase_2,stop,400.0,450.0,4.0,,,,,,,,,green,flipped triangle
0.0,5.0,0.5,0,6.0,6.0,634.146213531,2.0,phase_2,go,400.0,450.0,1.0,,,,,,,,,magenta,square
0.0,3.0,2.0,0,5.0,6.0,400.77209472699997,2.0,phase_2,go,400.0,450.0,2.0,,,,,,,,,yellow,line
0.0,5.0,0.5,0,5.0,5.0,500.66900253299997,2.0,phase_2,go,400.0,450.0,1.0,,,,,,,,,magenta,square
0.0,4.0,4.0,1,5.0,5.0,434.057950974,2.0,phase_2,stop,450.0,450.0,3.0,,,,,,,,,gray,triangle
0.0,5.0,0.5,0,5.0,5.0,700.8631229399999,2.0,phase_2,go,450.0,450.0,1.0,,,,,,,,,magenta,square
0.0,6.0,1.0,0,5.0,5.0,484.331130981,2.0,phase_2,go,450.0,450.0,1.0,,,,,,,,,blue,circle
0.0,5.0,0.5,0,5.0,5.0,551.1062145230001,2.0,phase_2,go,450.0,450.0,1.0,,,,,,,,,magenta,square
0.0,1.0,0.5,1,6.0,6.0,584.1650962829999,2.0,phase_2,go,450.0,450.0,1.0,,,,,,,,,cyan,cross
0.0,4.0,4.0,1,6.0,6.0,651.772022247,2.0,phase_2,stop,450.0,500.0,3.0,,,,,,,,,gray,triangle
0.0,3.0,2.0,0,5.0,5.0,584.618091583,2.0,phase_2,go,450.0,500.0,1.0,,,,,,,,,yellow,line
0.0,1.0,0.5,1,5.0,0.0,,2.0,phase_2,stop,400.0,500.0,4.0,,,,,,,,,cyan,cross
0.0,6.0,1.0,0,6.0,6.0,584.750175476,2.0,phase_2,go,400.0,500.0,1.0,,,,,,,,,blue,circle
0.0,4.0,4.0,1,6.0,6.0,450.94203949,2.0,phase_2,stop,400.0,450.0,3.0,,,,,,,,,gray,triangle
0.0,8.0,4.0,0,6.0,6.0,684.6349239350001,2.0,phase_2,go,400.0,450.0,1.0,,,,,,,,,white,diamond
0.0,5.0,0.5,0,6.0,6.0,651.505947113,2.0,phase_2,go,400.0,450.0,1.0,,,,,,,,,magenta,square
0.0,5.0,0.5,0,6.0,6.0,567.6000118259999,2.0,phase_2,go,400.0,450.0,1.0,,,,,,,,,magenta,square
0.0,6.0,1.0,0,5.0,5.0,634.042024612,2.0,phase_2,go,400.0,450.0,1.0,,,,,,,,,blue,circle
0.0,6.0,1.0,0,5.0,5.0,600.873947144,2.0,phase_2,go,400.0,450.0,1.0,,,,,,,,,blue,circle
0.0,6.0,1.0,0,5.0,5.0,617.54989624,2.0,phase_2,go,400.0,450.0,1.0,,,,,,,,,blue,circle
0.0,3.0,2.0,0,5.0,5.0,668.044090271,2.0,phase_2,go,400.0,450.0,1.0,,,,,,,,,yellow,line
0.0,5.0,0.5,0,6.0,6.0,700.654983521,2.0,phase_2,go,400.0,450.0,1.0,,,,,,,,,magenta,square
0.0,7.0,2.0,1,5.0,0.0,,2.0,phase_2,stop,450.0,450.0,4.0,,,,,,,,,orange,hexagon
0.0,4.0,4.0,1,5.0,5.0,717.657804489,2.0,phase_2,go,450.0,450.0,1.0,,,,,,,,,gray,triangle
0.0,3.0,2.0,0,5.0,5.0,484.200954437,3.0,phase_2,go,450.0,450.0,1.0,,,,,,,,,yellow,line
0.0,2.0,1.0,1,5.0,5.0,417.858123779,3.0,phase_2,stop,500.0,450.0,3.0,,,,,,,,,green,flipped triangle
0.0,6.0,1.0,0,6.0,6.0,667.968034744,3.0,phase_2,go,500.0,450.0,1.0,,,,,,,,,blue,circle
0.0,7.0,2.0,1,5.0,5.0,534.832000732,3.0,phase_2,stop,450.0,450.0,3.0,,,,,,,,,orange,hexagon
0.0,1.0,0.5,1,6.0,0.0,,3.0,phase_2,stop,450.0,400.0,4.0,,,,,,,,,cyan,cross
0.0,6.0,1.0,0,6.0,6.0,500.71597099300004,3.0,phase_2,go,450.0,400.0,1.0,,,,,,,,,blue,circle
0.0,7.0,2.0,1,6.0,6.0,700.990915298,3.0,phase_2,go,450.0,400.0,1.0,,,,,,,,,orange,hexagon
0.0,6.0,1.0,0,6.0,6.0,400.49099922199997,3.0,phase_2,go,450.0,400.0,1.0,,,,,,,,,blue,circle
0.0,1.0,0.5,1,5.0,5.0,501.17301940900006,3.0,phase_2,go,450.0,400.0,1.0,,,,,,,,,cyan,cross
0.0,1.0,0.5,1,6.0,6.0,501.36399269099996,3.0,phase_2,go,450.0,400.0,1.0,,,,,,,,,cyan,cross
0.0,2.0,1.0,1,5.0,5.0,550.596952438,3.0,phase_2,stop,400.0,400.0,3.0,,,,,,,,,green,flipped triangle
0.0,5.0,0.5,0,6.0,6.0,717.8080081940001,3.0,phase_2,go,400.0,400.0,1.0,,,,,,,,,magenta,square
0.0,1.0,0.5,1,5.0,0.0,,3.0,phase_2,stop,350.0,400.0,4.0,,,,,,,,,cyan,cross
0.0,1.0,0.5,1,6.0,0.0,,3.0,phase_2,stop,350.0,450.0,4.0,,,,,,,,,cyan,cross
0.0,4.0,4.0,1,5.0,0.0,,3.0,phase_2,stop,400.0,450.0,4.0,,,,,,,,,gray,triangle
0.0,7.0,2.0,1,6.0,6.0,417.557954788,3.0,phase_2,stop,400.0,500.0,3.0,,,,,,,,,orange,hexagon
0.0,5.0,0.5,0,6.0,6.0,784.286022186,3.0,phase_2,go,400.0,500.0,1.0,,,,,,,,,magenta,square
0.0,6.0,1.0,0,5.0,5.0,584.1817855830001,3.0,phase_2,go,400.0,500.0,1.0,,,,,,,,,blue,circle
0.0,5.0,0.5,0,5.0,5.0,450.628995895,3.0,phase_2,go,400.0,500.0,1.0,,,,,,,,,magenta,square
0.0,1.0,0.5,1,6.0,6.0,451.446056366,3.0,phase_2,stop,400.0,450.0,3.0,,,,,,,,,cyan,cross
0.0,4.0,4.0,1,5.0,5.0,617.3839569090001,3.0,phase_2,stop,450.0,450.0,3.0,,,,,,,,,gray,triangle
0.0,6.0,1.0,0,5.0,5.0,617.7918910980001,3.0,phase_2,go,450.0,450.0,1.0,,,,,,,,,blue,circle
0.0,8.0,4.0,0,6.0,6.0,650.8967876429999,3.0,phase_2,go,450.0,450.0,1.0,,,,,,,,,white,diamond
0.0,8.0,4.0,0,5.0,5.0,600.616931915,3.0,phase_2,go,450.0,450.0,1.0,,,,,,,,,white,diamond
0.0,6.0,1.0,0,6.0,6.0,500.26512146000005,3.0,phase_2,go,450.0,450.0,1.0,,,,,,,,,blue,circle
0.0,4.0,4.0,1,6.0,0.0,,3.0,phase_2,stop,450.0,400.0,4.0,,,,,,,,,gray,triangle
0.0,7.0,2.0,1,5.0,0.0,,3.0,phase_2,stop,400.0,400.0,4.0,,,,,,,,,orange,hexagon
0.0,3.0,2.0,0,5.0,5.0,734.8279953,3.0,phase_2,go,400.0,400.0,1.0,,,,,,,,,yellow,line
0.0,6.0,1.0,0,5.0,5.0,667.6840782170001,3.0,phase_2,go,400.0,400.0,1.0,,,,,,,,,blue,circle
0.0,7.0,2.0,1,6.0,0.0,,3.0,phase_2,stop,400.0,450.0,4.0,,,,,,,,,orange,hexagon
0.0,8.0,4.0,0,5.0,5.0,751.240968704,3.0,phase_2,go,400.0,450.0,1.0,,,,,,,,,white,diamond
0.0,5.0,0.5,0,6.0,6.0,684.5149993900001,3.0,phase_2,go,400.0,450.0,1.0,,,,,,,,,magenta,square
0.0,5.0,0.5,0,5.0,5.0,567.8319931030001,3.0,phase_2,go,400.0,450.0,1.0,,,,,,,,,magenta,square
0.0,5.0,0.5,0,6.0,6.0,550.580024719,3.0,phase_2,go,400.0,450.0,1.0,,,,,,,,,magenta,square
0.0,3.0,2.0,0,6.0,6.0,483.709096909,3.0,phase_2,go,400.0,450.0,1.0,,,,,,,,,yellow,line
0.0,5.0,0.5,0,5.0,5.0,500.831127167,3.0,phase_2,go,400.0,450.0,1.0,,,,,,,,,magenta,square
0.0,4.0,4.0,1,6.0,6.0,568.26710701,4.0,phase_2,stop,400.0,500.0,3.0,,,,,,,,,gray,triangle
0.0,7.0,2.0,1,5.0,5.0,650.9561538700001,4.0,phase_2,go,400.0,500.0,1.0,,,,,,,,,orange,hexagon
0.0,3.0,2.0,0,6.0,6.0,634.610176086,4.0,phase_2,go,400.0,500.0,1.0,,,,,,,,,yellow,line
0.0,7.0,2.0,1,6.0,6.0,667.782068253,4.0,phase_2,stop,400.0,450.0,3.0,,,,,,,,,orange,hexagon
0.0,4.0,4.0,1,6.0,0.0,,4.0,phase_2,stop,400.0,400.0,4.0,,,,,,,,,gray,triangle
0.0,4.0,4.0,1,5.0,5.0,618.360996246,4.0,phase_2,stop,450.0,400.0,3.0,,,,,,,,,gray,triangle
0.0,6.0,1.0,0,5.0,5.0,717.388868332,4.0,phase_2,go,450.0,400.0,1.0,,,,,,,,,blue,circle
0.0,2.0,1.0,1,6.0,6.0,717.9920673370001,4.0,phase_2,go,450.0,400.0,1.0,,,,,,,,,green,flipped triangle
0.0,2.0,1.0,1,5.0,0.0,,4.0,phase_2,stop,400.0,400.0,4.0,,,,,,,,,green,flipped triangle
0.0,7.0,2.0,1,6.0,0.0,,4.0,phase_2,stop,400.0,450.0,4.0,,,,,,,,,orange,hexagon
0.0,1.0,0.5,1,6.0,6.0,600.996017456,4.0,phase_2,stop,400.0,500.0,3.0,,,,,,,,,cyan,cross
0.0,2.0,1.0,1,6.0,0.0,,4.0,phase_2,stop,400.0,450.0,4.0,,,,,,,,,green,flipped triangle
0.0,4.0,4.0,1,6.0,6.0,884.552955627,4.0,phase_2,go,400.0,450.0,1.0,,,,,,,,,gray,triangle
0.0,6.0,1.0,0,5.0,5.0,684.352874756,4.0,phase_2,go,400.0,450.0,1.0,,,,,,,,,blue,circle
0.0,6.0,1.0,0,6.0,6.0,651.4379978180001,4.0,phase_2,go,400.0,450.0,1.0,,,,,,,,,blue,circle
0.0,1.0,0.5,1,6.0,6.0,617.801904678,4.0,phase_2,stop,400.0,500.0,3.0,,,,,,,,,cyan,cross
0.0,5.0,0.5,0,6.0,6.0,634.3979835509999,4.0,phase_2,go,400.0,500.0,1.0,,,,,,,,,magenta,square
0.0,4.0,4.0,1,5.0,5.0,600.919961929,4.0,phase_2,stop,450.0,500.0,3.0,,,,,,,,,gray,triangle
0.0,7.0,2.0,1,6.0,0.0,,4.0,phase_2,stop,450.0,450.0,4.0,,,,,,,,,orange,hexagon
0.0,6.0,1.0,0,5.0,5.0,667.630195618,4.0,phase_2,go,450.0,450.0,1.0,,,,,,,,,blue,circle
0.0,2.0,1.0,1,5.0,0.0,,4.0,phase_2,stop,400.0,450.0,4.0,,,,,,,,,green,flipped triangle
0.0,2.0,1.0,1,5.0,5.0,650.865077972,4.0,phase_2,stop,450.0,450.0,3.0,,,,,,,,,green,flipped triangle
0.0,6.0,1.0,0,5.0,5.0,801.341056824,4.0,phase_2,go,450.0,450.0,1.0,,,,,,,,,blue,circle
0.0,4.0,4.0,1,5.0,0.0,,4.0,phase_2,stop,400.0,450.0,4.0,,,,,,,,,gray,triangle
0.0,2.0,1.0,1,6.0,6.0,634.0370178219999,4.0,phase_2,stop,400.0,500.0,3.0,,,,,,,,,green,flipped triangle
0.0,4.0,4.0,1,6.0,6.0,768.410921097,4.0,phase_2,go,400.0,500.0,1.0,,,,,,,,,gray,triangle
0.0,7.0,2.0,1,5.0,0.0,,4.0,phase_2,stop,450.0,500.0,4.0,,,,,,,,,orange,hexagon
0.0,3.0,2.0,0,6.0,6.0,717.705965042,4.0,phase_2,go,450.0,500.0,1.0,,,,,,,,,yellow,line
0.0,6.0,1.0,0,6.0,6.0,718.067884445,4.0,phase_2,go,450.0,500.0,1.0,,,,,,,,,blue,circle
0.0,5.0,0.5,0,5.0,5.0,684.453010559,4.0,phase_2,go,450.0,500.0,1.0,,,,,,,,,magenta,square
0.0,8.0,4.0,0,5.0,5.0,600.400924683,4.0,phase_2,go,450.0,500.0,1.0,,,,,,,,,white,diamond
0.0,7.0,2.0,1,5.0,5.0,550.661087036,4.0,phase_2,stop,500.0,500.0,3.0,,,,,,,,,orange,hexagon
0.0,2.0,1.0,1,5.0,0.0,,4.0,phase_2,stop,450.0,500.0,4.0,,,,,,,,,green,flipped triangle
0.0,5.0,0.5,0,5.0,5.0,684.413909912,4.0,phase_2,go,450.0,500.0,1.0,,,,,,,,,magenta,square
0.0,3.0,2.0,0,5.0,5.0,617.7151203159999,4.0,phase_2,go,450.0,500.0,1.0,,,,,,,,,yellow,line
0.0,5.0,0.5,0,6.0,6.0,551.5229701999999,4.0,phase_2,go,450.0,500.0,1.0,,,,,,,,,magenta,square
0.0,2.0,1.0,1,6.0,6.0,484.722852707,5.0,phase_2,go,450.0,500.0,1.0,,,,,,,,,green,flipped triangle
0.0,1.0,0.5,1,5.0,5.0,401.108980179,5.0,phase_2,go,450.0,500.0,1.0,,,,,,,,,cyan,cross
0.0,7.0,2.0,1,6.0,6.0,384.53507423400004,5.0,phase_2,go,450.0,500.0,1.0,,,,,,,,,orange,hexagon
0.0,3.0,2.0,0,5.0,5.0,384.350061417,5.0,phase_2,go,450.0,500.0,1.0,,,,,,,,,yellow,line
0.0,5.0,0.5,0,6.0,6.0,534.226894379,5.0,phase_2,go,450.0,500.0,1.0,,,,,,,,,magenta,square
0.0,8.0,4.0,0,6.0,6.0,601.1891365050001,5.0,phase_2,go,450.0,500.0,1.0,,,,,,,,,white,diamond
0.0,7.0,2.0,1,5.0,5.0,534.288883209,5.0,phase_2,stop,500.0,500.0,3.0,,,,,,,,,orange,hexagon
0.0,6.0,1.0,0,6.0,6.0,784.862041473,5.0,phase_2,go,500.0,500.0,1.0,,,,,,,,,blue,circle
0.0,1.0,0.5,1,5.0,5.0,650.951862335,5.0,phase_2,go,500.0,500.0,1.0,,,,,,,,,cyan,cross
0.0,2.0,1.0,1,6.0,6.0,517.7679061890001,5.0,phase_2,stop,500.0,450.0,3.0,,,,,,,,,green,flipped triangle
0.0,7.0,2.0,1,6.0,6.0,634.245872498,5.0,phase_2,go,500.0,450.0,1.0,,,,,,,,,orange,hexagon
0.0,1.0,0.5,1,5.0,5.0,551.270008087,5.0,phase_2,stop,450.0,450.0,3.0,,,,,,,,,cyan,cross
0.0,4.0,4.0,1,6.0,0.0,,5.0,phase_2,stop,450.0,400.0,4.0,,,,,,,,,gray,triangle
0.0,3.0,2.0,0,5.0,5.0,617.912054062,5.0,phase_2,go,450.0,400.0,1.0,,,,,,,,,yellow,line
0.0,2.0,1.0,1,5.0,0.0,,5.0,phase_2,stop,400.0,400.0,4.0,,,,,,,,,green,flipped triangle
0.0,8.0,4.0,0,6.0,6.0,784.8889827730001,5.0,phase_2,go,400.0,400.0,1.0,,,,,,,,,white,diamond
0.0,4.0,4.0,1,5.0,5.0,617.0380115510001,5.0,phase_2,go,400.0,400.0,1.0,,,,,,,,,gray,triangle
0.0,1.0,0.5,1,6.0,6.0,551.543951035,5.0,phase_2,stop,400.0,450.0,3.0,,,,,,,,,cyan,cross
0.0,4.0,4.0,1,5.0,0.0,,5.0,phase_2,stop,450.0,450.0,4.0,,,,,,,,,gray,triangle
0.0,8.0,4.0,0,5.0,5.0,734.145879745,5.0,phase_2,go,450.0,450.0,1.0,,,,,,,,,white,diamond
0.0,8.0,4.0,0,5.0,5.0,651.22795105,5.0,phase_2,go,450.0,450.0,1.0,,,,,,,,,white,diamond
0.0,1.0,0.5,1,5.0,5.0,567.145109177,5.0,phase_2,stop,500.0,450.0,3.0,,,,,,,,,cyan,cross
0.0,8.0,4.0,0,6.0,6.0,617.647171021,5.0,phase_2,go,500.0,450.0,1.0,,,,,,,,,white,diamond
0.0,3.0,2.0,0,6.0,6.0,517.720937729,5.0,phase_2,go,500.0,450.0,1.0,,,,,,,,,yellow,line
0.0,8.0,4.0,0,5.0,5.0,434.078931808,5.0,phase_2,go,500.0,450.0,1.0,,,,,,,,,white,diamond
0.0,2.0,1.0,1,6.0,6.0,517.6930427550001,5.0,phase_2,go,500.0,450.0,1.0,,,,,,,,,green,flipped triangle
0.0,6.0,1.0,0,6.0,6.0,550.942897797,5.0,phase_2,go,500.0,450.0,1.0,,,,,,,,,blue,circle
0.0,8.0,4.0,0,5.0,5.0,451.374053955,5.0,phase_2,go,500.0,450.0,1.0,,,,,,,,,white,diamond
0.0,7.0,2.0,1,5.0,5.0,467.836856842,5.0,phase_2,stop,450.0,450.0,3.0,,,,,,,,,orange,hexagon
0.0,7.0,2.0,1,5.0,0.0,,5.0,phase_2,stop,400.0,450.0,4.0,,,,,,,,,orange,hexagon
0.0,7.0,2.0,1,6.0,6.0,534.282922745,5.0,phase_2,stop,400.0,400.0,3.0,,,,,,,,,orange,hexagon
0.0,6.0,1.0,0,6.0,6.0,651.324033737,5.0,phase_2,go,400.0,400.0,1.0,,,,,,,,,blue,circle
0.0,8.0,4.0,0,6.0,6.0,617.7439689639999,5.0,phase_2,go,400.0,400.0,1.0,,,,,,,,,white,diamond
0.0,2.0,1.0,1,5.0,5.0,600.9449958800001,5.0,phase_2,go,400.0,400.0,1.0,,,,,,,,,green,flipped triangle
0.0,1.0,0.5,1,6.0,0.0,,5.0,phase_2,stop,400.0,350.0,4.0,,,,,,,,,cyan,cross
0.0,3.0,2.0,0,5.0,5.0,617.608070374,5.0,phase_2,go,400.0,350.0,1.0,,,,,,,,,yellow,line
0.0,4.0,4.0,1,5.0,5.0,417.704820633,6.0,phase_2,stop,450.0,350.0,3.0,,,,,,,,,gray,triangle
0.0,8.0,4.0,0,6.0,6.0,518.326997757,6.0,phase_2,go,450.0,350.0,1.0,,,,,,,,,white,diamond
0.0,8.0,4.0,0,5.0,5.0,317.08121299699997,6.0,phase_2,go,450.0,350.0,1.0,,,,,,,,,white,diamond
0.0,5.0,0.5,0,5.0,5.0,383.979082108,6.0,phase_2,go,450.0,350.0,1.0,,,,,,,,,magenta,square
0.0,4.0,4.0,1,5.0,5.0,351.06205940200005,6.0,phase_2,stop,400.0,350.0,3.0,,,,,,,,,gray,triangle
0.0,2.0,1.0,1,5.0,0.0,,6.0,phase_2,stop,350.0,350.0,4.0,,,,,,,,,green,flipped triangle
0.0,4.0,4.0,1,6.0,0.0,,6.0,phase_2,stop,350.0,400.0,4.0,,,,,,,,,gray,triangle
0.0,5.0,0.5,0,5.0,5.0,701.391220093,6.0,phase_2,go,350.0,400.0,1.0,,,,,,,,,magenta,square
0.0,2.0,1.0,1,6.0,0.0,,6.0,phase_2,stop,350.0,450.0,4.0,,,,,,,,,green,flipped triangle
0.0,3.0,2.0,0,6.0,6.0,651.7059803010001,6.0,phase_2,go,350.0,450.0,1.0,,,,,,,,,yellow,line
0.0,8.0,4.0,0,6.0,6.0,734.083890915,6.0,phase_2,go,350.0,450.0,1.0,,,,,,,,,white,diamond
0.0,7.0,2.0,1,5.0,0.0,,6.0,phase_2,stop,400.0,450.0,4.0,,,,,,,,,orange,hexagon
0.0,7.0,2.0,1,5.0,0.0,,6.0,phase_2,stop,450.0,450.0,4.0,,,,,,,,,orange,hexagon
0.0,2.0,1.0,1,5.0,5.0,651.108026505,6.0,phase_2,go,450.0,450.0,1.0,,,,,,,,,green,flipped triangle
0.0,6.0,1.0,0,5.0,5.0,434.082984924,6.0,phase_2,go,450.0,450.0,1.0,,,,,,,,,blue,circle
0.0,3.0,2.0,0,5.0,5.0,617.902994156,6.0,phase_2,go,450.0,450.0,1.0,,,,,,,,,yellow,line
0.0,5.0,0.5,0,6.0,6.0,551.002025604,6.0,phase_2,go,450.0,450.0,1.0,,,,,,,,,magenta,square
0.0,8.0,4.0,0,5.0,5.0,584.1059684749999,6.0,phase_2,go,450.0,450.0,1.0,,,,,,,,,white,diamond
0.0,1.0,0.5,1,5.0,5.0,550.874233246,6.0,phase_2,go,450.0,450.0,1.0,,,,,,,,,cyan,cross
0.0,4.0,4.0,1,6.0,6.0,484.765052795,6.0,phase_2,stop,450.0,500.0,3.0,,,,,,,,,gray,triangle
0.0,8.0,4.0,0,6.0,6.0,784.726858139,6.0,phase_2,go,450.0,500.0,1.0,,,,,,,,,white,diamond
0.0,1.0,0.5,1,6.0,6.0,651.250839233,6.0,phase_2,go,450.0,500.0,1.0,,,,,,,,,cyan,cross
0.0,3.0,2.0,0,5.0,5.0,634.728908539,6.0,phase_2,go,450.0,500.0,1.0,,,,,,,,,yellow,line
0.0,3.0,2.0,0,6.0,6.0,584.7728252410001,6.0,phase_2,go,450.0,500.0,1.0,,,,,,,,,yellow,line
0.0,8.0,4.0,0,5.0,5.0,517.776012421,6.0,phase_2,go,450.0,500.0,1.0,,,,,,,,,white,diamond
0.0,2.0,1.0,1,6.0,6.0,484.627008438,6.0,phase_2,stop,450.0,450.0,3.0,,,,,,,,,green,flipped triangle
0.0,3.0,2.0,0,6.0,6.0,667.91009903,6.0,phase_2,go,450.0,450.0,1.0,,,,,,,,,yellow,line
0.0,2.0,1.0,1,6.0,0.0,,6.0,phase_2,stop,450.0,400.0,4.0,,,,,,,,,green,flipped triangle
0.0,7.0,2.0,1,6.0,0.0,,6.0,phase_2,stop,450.0,450.0,4.0,,,,,,,,,orange,hexagon
0.0,4.0,4.0,1,6.0,6.0,634.110927582,6.0,phase_2,stop,450.0,500.0,3.0,,,,,,,,,gray,triangle
0.0,2.0,1.0,1,5.0,5.0,617.676973343,6.0,phase_2,go,450.0,500.0,1.0,,,,,,,,,green,flipped triangle
0.0,5.0,0.5,0,6.0,6.0,751.176834106,6.0,phase_2,go,450.0,500.0,1.0,,,,,,,,,magenta,square
0.0,7.0,2.0,1,6.0,6.0,451.77006721500004,6.0,phase_2,stop,450.0,450.0,3.0,,,,,,,,,orange,hexagon
0.0,1.0,0.5,1,6.0,0.0,,6.0,phase_2,stop,450.0,400.0,4.0,,,,,,,,,cyan,cross
0.0,8.0,4.0,0,5.0,5.0,651.6070365910001,6.0,phase_2,go,450.0,400.0,1.0,,,,,,,,,white,diamond
0.0,6.0,1.0,0,5.0,5.0,717.915058136,6.0,phase_2,go,450.0,400.0,1.0,,,,,,,,,blue,circle
0.0,2.0,1.0,1,5.0,5.0,417.812108994,7.0,phase_2,go,450.0,400.0,1.0,,,,,,,,,green,flipped triangle
0.0,1.0,0.5,1,6.0,6.0,350.71086883500004,7.0,phase_2,stop,450.0,450.0,3.0,,,,,,,,,cyan,cross
0.0,8.0,4.0,0,6.0,6.0,601.48191452,7.0,phase_2,go,450.0,450.0,1.0,,,,,,,,,white,diamond
0.0,5.0,0.5,0,5.0,5.0,667.651176453,7.0,phase_2,go,450.0,450.0,1.0,,,,,,,,,magenta,square
0.0,4.0,4.0,1,5.0,0.0,,7.0,phase_2,stop,500.0,450.0,4.0,,,,,,,,,gray,triangle
0.0,4.0,4.0,1,6.0,6.0,684.5660209660001,7.0,phase_2,go,500.0,450.0,1.0,,,,,,,,,gray,triangle
0.0,3.0,2.0,0,5.0,5.0,600.903987885,7.0,phase_2,go,500.0,450.0,1.0,,,,,,,,,yellow,line
0.0,8.0,4.0,0,6.0,6.0,867.580890656,7.0,phase_2,go,500.0,450.0,1.0,,,,,,,,,white,diamond
0.0,6.0,1.0,0,6.0,6.0,734.1101169589999,7.0,phase_2,go,500.0,450.0,1.0,,,,,,,,,blue,circle
0.0,4.0,4.0,1,5.0,0.0,,7.0,phase_2,stop,550.0,450.0,4.0,,,,,,,,,gray,triangle
0.0,5.0,0.5,0,6.0,6.0,767.857074738,7.0,phase_2,go,550.0,450.0,1.0,,,,,,,,,magenta,square
0.0,1.0,0.5,1,5.0,5.0,717.64087677,7.0,phase_2,stop,600.0,450.0,3.0,,,,,,,,,cyan,cross
0.0,6.0,1.0,0,6.0,6.0,784.608125687,7.0,phase_2,go,600.0,450.0,1.0,,,,,,,,,blue,circle
0.0,3.0,2.0,0,5.0,5.0,651.2899398799999,7.0,phase_2,go,600.0,450.0,1.0,,,,,,,,,yellow,line
0.0,8.0,4.0,0,5.0,5.0,717.663049698,7.0,phase_2,go,600.0,450.0,1.0,,,,,,,,,white,diamond
0.0,6.0,1.0,0,6.0,6.0,634.551048279,7.0,phase_2,go,600.0,450.0,1.0,,,,,,,,,blue,circle
0.0,2.0,1.0,1,5.0,5.0,717.596054077,7.0,phase_2,stop,550.0,450.0,3.0,,,,,,,,,green,flipped triangle
0.0,7.0,2.0,1,5.0,0.0,,7.0,phase_2,stop,500.0,450.0,4.0,,,,,,,,,orange,hexagon
0.0,8.0,4.0,0,6.0,6.0,734.874010086,7.0,phase_2,go,500.0,450.0,1.0,,,,,,,,,white,diamond
0.0,5.0,0.5,0,6.0,6.0,901.345014572,7.0,phase_2,go,500.0,450.0,1.0,,,,,,,,,magenta,square
0.0,7.0,2.0,1,5.0,5.0,767.963171005,7.0,phase_2,go,500.0,450.0,1.0,,,,,,,,,orange,hexagon
0.0,1.0,0.5,1,5.0,0.0,,7.0,phase_2,stop,550.0,450.0,4.0,,,,,,,,,cyan,cross
0.0,4.0,4.0,1,5.0,5.0,717.5111770630001,7.0,phase_2,go,550.0,450.0,1.0,,,,,,,,,gray,triangle
0.0,2.0,1.0,1,6.0,0.0,,7.0,phase_2,stop,550.0,400.0,4.0,,,,,,,,,green,flipped triangle
0.0,8.0,4.0,0,6.0,6.0,884.389877319,7.0,phase_2,go,550.0,400.0,1.0,,,,,,,,,white,diamond
0.0,2.0,1.0,1,6.0,0.0,,7.0,phase_2,stop,550.0,450.0,4.0,,,,,,,,,green,flipped triangle
0.0,4.0,4.0,1,5.0,5.0,650.726079941,7.0,phase_2,go,550.0,450.0,1.0,,,,,,,,,gray,triangle
0.0,3.0,2.0,0,6.0,6.0,551.158189774,7.0,phase_2,go,550.0,450.0,1.0,,,,,,,,,yellow,line
0.0,3.0,2.0,0,5.0,5.0,651.287078857,7.0,phase_2,go,550.0,450.0,1.0,,,,,,,,,yellow,line
0.0,1.0,0.5,1,6.0,6.0,584.0909481049999,7.0,phase_2,go,550.0,450.0,1.0,,,,,,,,,cyan,cross
0.0,2.0,1.0,1,5.0,5.0,701.0569572449999,7.0,phase_2,stop,600.0,450.0,3.0,,,,,,,,,green,flipped triangle
0.0,8.0,4.0,0,5.0,5.0,784.76190567,7.0,phase_2,go,600.0,450.0,1.0,,,,,,,,,white,diamond
0.0,3.0,2.0,0,5.0,5.0,717.6442146300001,7.0,phase_2,go,600.0,450.0,1.0,,,,,,,,,yellow,line
0.0,5.0,0.5,0,6.0,6.0,601.460933685,7.0,phase_2,go,600.0,450.0,1.0,,,,,,,,,magenta,square
0.0,8.0,4.0,0,6.0,6.0,617.980957031,7.0,phase_2,go,600.0,450.0,1.0,,,,,,,,,white,diamond
0.0,2.0,1.0,1,6.0,0.0,,7.0,phase_2,stop,600.0,500.0,4.0,,,,,,,,,green,flipped triangle
0.0,5.0,0.5,0,5.0,5.0,417.382955551,8.0,phase_2,go,600.0,500.0,1.0,,,,,,,,,magenta,square
0.0,7.0,2.0,1,5.0,5.0,333.979845047,8.0,phase_2,stop,550.0,500.0,3.0,,,,,,,,,orange,hexagon
0.0,8.0,4.0,0,5.0,5.0,384.246826172,8.0,phase_2,go,550.0,500.0,1.0,,,,,,,,,white,diamond
0.0,1.0,0.5,1,6.0,6.0,484.287023544,8.0,phase_2,stop,550.0,550.0,3.0,,,,,,,,,cyan,cross
0.0,4.0,4.0,1,6.0,0.0,,8.0,phase_2,stop,550.0,500.0,4.0,,,,,,,,,gray,triangle
0.0,7.0,2.0,1,5.0,5.0,534.424066544,8.0,phase_2,stop,500.0,500.0,3.0,,,,,,,,,orange,hexagon
0.0,3.0,2.0,0,5.0,5.0,700.89006424,8.0,phase_2,go,500.0,500.0,1.0,,,,,,,,,yellow,line
0.0,2.0,1.0,1,6.0,6.0,567.765951157,8.0,phase_2,stop,500.0,550.0,3.0,,,,,,,,,green,flipped triangle
0.0,2.0,1.0,1,5.0,0.0,,8.0,phase_2,stop,450.0,550.0,4.0,,,,,,,,,green,flipped triangle
0.0,1.0,0.5,1,5.0,5.0,433.923959732,8.0,phase_2,stop,500.0,550.0,3.0,,,,,,,,,cyan,cross
0.0,7.0,2.0,1,6.0,0.0,,8.0,phase_2,stop,500.0,500.0,4.0,,,,,,,,,orange,hexagon
0.0,4.0,4.0,1,6.0,0.0,,8.0,phase_2,stop,500.0,550.0,4.0,,,,,,,,,gray,triangle
0.0,1.0,0.5,1,5.0,0.0,,8.0,phase_2,stop,450.0,550.0,4.0,,,,,,,,,cyan,cross
0.0,7.0,2.0,1,6.0,0.0,,8.0,phase_2,stop,450.0,600.0,4.0,,,,,,,,,orange,hexagon
0.0,5.0,0.5,0,5.0,5.0,934.754133224,8.0,phase_2,go,450.0,600.0,1.0,,,,,,,,,magenta,square
0.0,1.0,0.5,1,6.0,0.0,,8.0,phase_2,stop,450.0,650.0,4.0,,,,,,,,,cyan,cross
0.0,3.0,2.0,0,6.0,6.0,768.193006516,8.0,phase_2,go,450.0,650.0,1.0,,,,,,,,,yellow,line
0.0,7.0,2.0,1,6.0,6.0,751.441001892,8.0,phase_2,go,450.0,650.0,1.0,,,,,,,,,orange,hexagon
0.0,2.0,1.0,1,6.0,6.0,617.676019669,8.0,phase_2,go,450.0,650.0,1.0,,,,,,,,,green,flipped triangle
0.0,5.0,0.5,0,5.0,5.0,584.192037582,8.0,phase_2,go,450.0,650.0,1.0,,,,,,,,,magenta,square
0.0,6.0,1.0,0,5.0,5.0,700.787067413,8.0,phase_2,go,450.0,650.0,1.0,,,,,,,,,blue,circle
0.0,1.0,0.5,1,6.0,6.0,634.023189545,8.0,phase_2,stop,450.0,700.0,3.0,,,,,,,,,cyan,cross
0.0,4.0,4.0,1,5.0,0.0,,8.0,phase_2,stop,500.0,700.0,4.0,,,,,,,,,gray,triangle
0.0,4.0,4.0,1,5.0,0.0,,8.0,phase_2,stop,550.0,700.0,4.0,,,,,,,,,gray,triangle
0.0,2.0,1.0,1,6.0,6.0,701.302051544,8.0,phase_2,stop,550.0,650.0,3.0,,,,,,,,,green,flipped triangle
0.0,8.0,4.0,0,5.0,0.0,,8.0,phase_2,go,550.0,650.0,5.0,,,,,,,,,white,diamond
0.0,8.0,4.0,0,6.0,6.0,500.93293189999997,8.0,phase_2,go,550.0,650.0,1.0,,,,,,,,,white,diamond
0.0,7.0,2.0,1,6.0,6.0,584.275960922,8.0,phase_2,go,550.0,650.0,1.0,,,,,,,,,orange,hexagon
0.0,6.0,1.0,0,5.0,5.0,651.3869762420001,8.0,phase_2,go,550.0,650.0,1.0,,,,,,,,,blue,circle
0.0,4.0,4.0,1,5.0,5.0,601.28903389,8.0,phase_2,stop,600.0,650.0,3.0,,,,,,,,,gray,triangle
0.0,6.0,1.0,0,6.0,6.0,500.91505050700005,8.0,phase_2,go,600.0,650.0,1.0,,,,,,,,,blue,circle
0.0,3.0,2.0,0,6.0,6.0,651.039123535,8.0,phase_2,go,600.0,650.0,1.0,,,,,,,,,yellow,line
0.0,3.0,2.0,0,6.0,6.0,534.427165985,8.0,phase_2,go,600.0,650.0,1.0,,,,,,,,,yellow,line
0.0,3.0,2.0,0,6.0,6.0,567.9130554200001,8.0,phase_2,go,600.0,650.0,1.0,,,,,,,,,yellow,line
0.0,7.0,2.0,1,5.0,5.0,567.603111267,8.0,phase_2,stop,550.0,650.0,3.0,,,,,,,,,orange,hexagon
0.0,7.0,2.0,1,5.0,5.0,817.534923553,8.0,phase_2,go,550.0,650.0,1.0,,,,,,,,,orange,hexagon
0.0,7.0,2.0,1,7.0,,,1.0,phase_3,,,,,0.0,,49.0,245.0,294.0,147.0,196.0,98.0,orange,hexagon
0.0,2.0,1.0,1,7.0,3.0,3104.10785675,1.0,phase_3,,,,,132.0,3.0,220.0,44.0,132.0,88.0,176.0,264.0,green,flipped triangle
0.0,1.0,0.5,1,7.0,1.0,2786.45896912,1.0,phase_3,,,,,68.0,2.0,68.0,34.0,136.0,102.0,204.0,170.0,cyan,cross
0.0,5.0,0.5,0,7.0,4.0,1918.88904572,1.0,phase_3,,,,,270.0,5.0,162.0,216.0,324.0,270.0,54.0,108.0,magenta,square
0.0,3.0,2.0,0,7.0,1.0,1819.1409111,1.0,phase_3,,,,,102.0,3.0,102.0,136.0,170.0,34.0,204.0,68.0,yellow,line
0.0,7.0,2.0,1,7.0,3.0,1618.4420585599999,1.0,phase_3,,,,,216.0,4.0,54.0,108.0,216.0,324.0,162.0,270.0,orange,hexagon
0.0,3.0,2.0,0,7.0,6.0,2202.9449939700003,1.0,phase_3,,,,,196.0,4.0,49.0,245.0,294.0,147.0,98.0,196.0,yellow,line
0.0,5.0,0.5,0,7.0,4.0,1485.22305489,1.0,phase_3,,,,,245.0,5.0,294.0,196.0,147.0,245.0,98.0,49.0,magenta,square
0.0,7.0,2.0,1,7.0,1.0,2219.44308281,1.0,phase_3,,,,,195.0,5.0,195.0,39.0,78.0,117.0,156.0,234.0,orange,hexagon
0.0,7.0,2.0,1,7.0,5.0,2402.86111832,1.0,phase_3,,,,,204.0,6.0,68.0,170.0,136.0,102.0,204.0,34.0,orange,hexagon
0.0,6.0,1.0,0,7.0,2.0,1818.8700676,1.0,phase_3,,,,,216.0,4.0,54.0,216.0,108.0,270.0,162.0,324.0,blue,circle
0.0,7.0,2.0,1,7.0,4.0,1468.5029983499999,1.0,phase_3,,,,,170.0,5.0,34.0,204.0,102.0,170.0,136.0,68.0,orange,hexagon
0.0,2.0,1.0,1,7.0,4.0,1118.09706688,1.0,phase_3,,,,,108.0,2.0,162.0,270.0,324.0,108.0,54.0,216.0,green,flipped triangle
0.0,3.0,2.0,0,7.0,2.0,1501.39713287,1.0,phase_3,,,,,117.0,3.0,195.0,117.0,78.0,156.0,234.0,39.0,yellow,line
0.0,7.0,2.0,1,7.0,2.0,2303.11107635,1.0,phase_3,,,,,220.0,5.0,88.0,220.0,132.0,176.0,44.0,264.0,orange,hexagon
0.0,4.0,4.0,1,7.0,2.0,3003.4289360000002,1.0,phase_3,,,,,270.0,5.0,54.0,270.0,108.0,216.0,324.0,162.0,gray,triangle
0.0,5.0,0.5,0,7.0,6.0,2519.35601234,1.0,phase_3,,,,,264.0,6.0,132.0,88.0,220.0,44.0,176.0,264.0,magenta,square
0.0,2.0,1.0,1,7.0,3.0,1568.6559677100001,1.0,phase_3,,,,,220.0,5.0,88.0,176.0,220.0,264.0,132.0,44.0,green,flipped triangle
0.0,1.0,0.5,1,7.0,1.0,1535.4399681099999,1.0,phase_3,,,,,98.0,2.0,98.0,245.0,196.0,294.0,49.0,147.0,cyan,cross
0.0,1.0,0.5,1,7.0,2.0,1401.71098709,1.0,phase_3,,,,,117.0,3.0,234.0,117.0,78.0,39.0,195.0,156.0,cyan,cross
0.0,4.0,4.0,1,7.0,4.0,1268.14198494,2.0,phase_3,,,,,176.0,4.0,132.0,264.0,44.0,176.0,220.0,88.0,gray,triangle
0.0,5.0,0.5,0,7.0,1.0,1919.15893555,2.0,phase_3,,,,,204.0,6.0,204.0,102.0,34.0,68.0,136.0,170.0,magenta,square
0.0,5.0,0.5,0,7.0,1.0,2285.54987907,2.0,phase_3,,,,,264.0,6.0,264.0,44.0,132.0,176.0,88.0,220.0,magenta,square
0.0,2.0,1.0,1,7.0,3.0,1417.84119606,2.0,phase_3,,,,,234.0,6.0,156.0,78.0,234.0,39.0,195.0,117.0,green,flipped triangle
0.0,5.0,0.5,0,7.0,4.0,1368.52288246,2.0,phase_3,,,,,204.0,6.0,170.0,34.0,136.0,204.0,102.0,68.0,magenta,square
0.0,1.0,0.5,1,7.0,2.0,1268.08905602,2.0,phase_3,,,,,78.0,2.0,117.0,78.0,156.0,234.0,39.0,195.0,cyan,cross
0.0,4.0,4.0,1,7.0,4.0,1502.2962093400001,2.0,phase_3,,,,,162.0,3.0,216.0,54.0,270.0,162.0,108.0,324.0,gray,triangle
0.0,2.0,1.0,1,7.0,3.0,1334.897995,2.0,phase_3,,,,,234.0,6.0,156.0,39.0,234.0,195.0,117.0,78.0,green,flipped triangle
0.0,6.0,1.0,0,7.0,6.0,1585.87288857,2.0,phase_3,,,,,195.0,5.0,39.0,117.0,156.0,78.0,234.0,195.0,blue,circle
0.0,3.0,2.0,0,7.0,1.0,1485.40401459,2.0,phase_3,,,,,102.0,3.0,102.0,34.0,68.0,136.0,170.0,204.0,yellow,line
0.0,3.0,2.0,0,7.0,2.0,1384.89413261,2.0,phase_3,,,,,162.0,3.0,216.0,162.0,54.0,270.0,324.0,108.0,yellow,line
0.0,2.0,1.0,1,7.0,4.0,1251.1959075900002,2.0,phase_3,,,,,245.0,5.0,98.0,49.0,294.0,245.0,196.0,147.0,green,flipped triangle
0.0,6.0,1.0,0,7.0,3.0,1435.00304222,2.0,phase_3,,,,,147.0,3.0,196.0,294.0,147.0,245.0,98.0,49.0,blue,circle
0.0,7.0,2.0,1,7.0,3.0,1251.86705589,2.0,phase_3,,,,,132.0,3.0,220.0,176.0,132.0,264.0,44.0,88.0,orange,hexagon
0.0,3.0,2.0,0,7.0,4.0,1852.45895386,2.0,phase_3,,,,,78.0,2.0,156.0,117.0,39.0,78.0,234.0,195.0,yellow,line
0.0,1.0,0.5,1,7.0,6.0,1685.65893173,2.0,phase_3,,,,,44.0,1.0,88.0,132.0,176.0,264.0,220.0,44.0,cyan,cross
0.0,4.0,4.0,1,7.0,5.0,2552.53195763,2.0,phase_3,,,,,204.0,6.0,68.0,34.0,136.0,170.0,204.0,102.0,gray,triangle
0.0,3.0,2.0,0,7.0,4.0,1250.96201897,2.0,phase_3,,,,,176.0,4.0,264.0,132.0,88.0,176.0,220.0,44.0,yellow,line
0.0,5.0,0.5,0,7.0,5.0,3270.60604095,2.0,phase_3,,,,,196.0,4.0,49.0,294.0,147.0,245.0,196.0,98.0,magenta,square
0.0,2.0,1.0,1,7.0,1.0,3203.0749321,2.0,phase_3,,,,,196.0,4.0,196.0,98.0,294.0,49.0,245.0,147.0,green,flipped triangle
0.0,4.0,4.0,1,7.0,4.0,1168.19000244,3.0,phase_3,,,,,294.0,6.0,98.0,245.0,147.0,294.0,196.0,49.0,gray,triangle
0.0,1.0,0.5,1,7.0,4.0,1135.32590866,3.0,phase_3,,,,,54.0,1.0,162.0,270.0,108.0,54.0,324.0,216.0,cyan,cross
0.0,6.0,1.0,0,7.0,3.0,1818.77088547,3.0,phase_3,,,,,147.0,3.0,98.0,49.0,147.0,196.0,245.0,294.0,blue,circle
0.0,8.0,4.0,0,7.0,2.0,2819.98705864,3.0,phase_3,,,,,195.0,5.0,117.0,195.0,78.0,39.0,234.0,156.0,white,diamond
0.0,8.0,4.0,0,7.0,5.0,1969.08187866,3.0,phase_3,,,,,132.0,3.0,264.0,220.0,176.0,88.0,132.0,44.0,white,diamond
0.0,4.0,4.0,1,7.0,4.0,1451.83801651,3.0,phase_3,,,,,176.0,4.0,132.0,44.0,220.0,176.0,88.0,264.0,gray,triangle
0.0,8.0,4.0,0,7.0,6.0,2152.42695808,3.0,phase_3,,,,,117.0,3.0,39.0,78.0,195.0,156.0,234.0,117.0,white,diamond
0.0,8.0,4.0,0,7.0,3.0,1852.34999657,3.0,phase_3,,,,,136.0,4.0,102.0,34.0,136.0,68.0,204.0,170.0,white,diamond
0.0,6.0,1.0,0,7.0,3.0,2269.5569992100004,3.0,phase_3,,,,,176.0,4.0,88.0,132.0,176.0,44.0,220.0,264.0,blue,circle
0.0,5.0,0.5,0,7.0,1.0,1702.47817039,3.0,phase_3,,,,,195.0,5.0,195.0,117.0,78.0,39.0,156.0,234.0,magenta,square
0.0,4.0,4.0,1,7.0,3.0,1701.88593864,3.0,phase_3,,,,,170.0,5.0,68.0,34.0,170.0,204.0,102.0,136.0,gray,triangle
0.0,6.0,1.0,0,7.0,1.0,1985.6460094499998,3.0,phase_3,,,,,132.0,3.0,132.0,220.0,176.0,264.0,44.0,88.0,blue,circle
0.0,1.0,0.5,1,7.0,3.0,1869.03595924,3.0,phase_3,,,,,88.0,2.0,132.0,264.0,88.0,176.0,44.0,220.0,cyan,cross
0.0,7.0,2.0,1,7.0,6.0,2152.5759697,3.0,phase_3,,,,,234.0,6.0,195.0,78.0,156.0,39.0,117.0,234.0,orange,hexagon
0.0,8.0,4.0,0,7.0,2.0,3287.23502159,3.0,phase_3,,,,,132.0,3.0,88.0,132.0,220.0,44.0,264.0,176.0,white,diamond
0.0,1.0,0.5,1,7.0,3.0,1285.42590141,3.0,phase_3,,,,,68.0,2.0,136.0,34.0,68.0,204.0,102.0,170.0,cyan,cross
0.0,2.0,1.0,1,7.0,4.0,2286.12804413,3.0,phase_3,,,,,102.0,3.0,170.0,136.0,204.0,102.0,68.0,34.0,green,flipped triangle
0.0,7.0,2.0,1,7.0,6.0,2135.9930038499997,3.0,phase_3,,,,,270.0,5.0,108.0,324.0,162.0,216.0,54.0,270.0,orange,hexagon
0.0,7.0,2.0,1,7.0,4.0,2119.20404434,3.0,phase_3,,,,,98.0,2.0,147.0,49.0,245.0,98.0,196.0,294.0,orange,hexagon
0.0,5.0,0.5,0,7.0,3.0,1284.76786613,3.0,phase_3,,,,,216.0,4.0,54.0,270.0,216.0,324.0,108.0,162.0,magenta,square
0.0,5.0,0.5,0,7.0,3.0,1451.92813873,4.0,phase_3,,,,,195.0,5.0,156.0,234.0,195.0,39.0,117.0,78.0,magenta,square
0.0,8.0,4.0,0,7.0,3.0,1768.56589317,4.0,phase_3,,,,,196.0,4.0,49.0,294.0,196.0,98.0,245.0,147.0,white,diamond
0.0,3.0,2.0,0,7.0,3.0,1818.349123,4.0,phase_3,,,,,108.0,2.0,216.0,270.0,108.0,324.0,54.0,162.0,yellow,line
0.0,6.0,1.0,0,7.0,2.0,1568.3920383500001,4.0,phase_3,,,,,117.0,3.0,234.0,117.0,156.0,78.0,195.0,39.0,blue,circle
0.0,6.0,1.0,0,7.0,3.0,1769.01698112,4.0,phase_3,,,,,170.0,5.0,68.0,34.0,170.0,136.0,102.0,204.0,blue,circle
0.0,8.0,4.0,0,7.0,2.0,1551.90610886,4.0,phase_3,,,,,162.0,3.0,270.0,162.0,324.0,54.0,216.0,108.0,white,diamond
0.0,1.0,0.5,1,7.0,2.0,1251.1920929,4.0,phase_3,,,,,108.0,2.0,324.0,108.0,54.0,216.0,162.0,270.0,cyan,cross
0.0,4.0,4.0,1,7.0,4.0,1268.3520317100001,4.0,phase_3,,,,,117.0,3.0,78.0,39.0,195.0,117.0,156.0,234.0,gray,triangle
0.0,4.0,4.0,1,7.0,6.0,2386.27505302,4.0,phase_3,,,,,117.0,3.0,39.0,78.0,156.0,195.0,234.0,117.0,gray,triangle
0.0,6.0,1.0,0,7.0,2.0,2119.42601204,4.0,phase_3,,,,,136.0,4.0,170.0,136.0,102.0,34.0,204.0,68.0,blue,circle
0.0,4.0,4.0,1,7.0,6.0,2119.43483353,4.0,phase_3,,,,,147.0,3.0,294.0,196.0,245.0,98.0,49.0,147.0,gray,triangle
0.0,8.0,4.0,0,7.0,3.0,1518.83411407,4.0,phase_3,,,,,170.0,5.0,68.0,34.0,170.0,102.0,204.0,136.0,white,diamond
0.0,6.0,1.0,0,7.0,4.0,1335.27517319,4.0,phase_3,,,,,162.0,3.0,108.0,270.0,54.0,162.0,216.0,324.0,blue,circle
0.0,8.0,4.0,0,7.0,2.0,1434.9040985099998,4.0,phase_3,,,,,147.0,3.0,49.0,147.0,245.0,294.0,98.0,196.0,white,diamond
0.0,8.0,4.0,0,7.0,3.0,1151.43489838,4.0,phase_3,,,,,162.0,3.0,216.0,54.0,162.0,324.0,270.0,108.0,white,diamond
0.0,1.0,0.5,1,7.0,5.0,1234.44104195,4.0,phase_3,,,,,49.0,1.0,294.0,98.0,147.0,245.0,49.0,196.0,cyan,cross
0.0,3.0,2.0,0,7.0,2.0,1935.47201157,4.0,phase_3,,,,,132.0,3.0,176.0,132.0,264.0,220.0,88.0,44.0,yellow,line
0.0,2.0,1.0,1,7.0,2.0,1552.29401588,4.0,phase_3,,,,,170.0,5.0,136.0,170.0,204.0,102.0,34.0,68.0,green,flipped triangle
0.0,3.0,2.0,0,7.0,2.0,2286.09991074,4.0,phase_3,,,,,147.0,3.0,245.0,147.0,196.0,49.0,294.0,98.0,yellow,line
0.0,2.0,1.0,1,7.0,3.0,1485.29005051,4.0,phase_3,,,,,162.0,3.0,54.0,216.0,162.0,108.0,270.0,324.0,green,flipped triangle
