raw_reward_magnitude,stim_reward,stepwise_reward_magnitude,paired_with_stopping,stim_location,response,reaction_time,block,which_phase,stop_signal_trial_type,left_SSD,right_SSD,accuracy,chosen_bidding_amount,chosen_bidding_level,possible_bid_1,possible_bid_2,possible_bid_3,possible_bid_4,possible_bid_5,possible_bid_6,color_text,shape_text
191.0,3.0,2.0,1,4.0,4.0,400.60615539599996,1.0,phase_1,,,,,,,,,,,,,cyan,cross
35.0,1.0,0.5,0,2.0,2.0,334.381103516,1.0,phase_1,,,,,,,,,,,,,green,line
96.0,2.0,1.0,0,3.0,3.0,334.024906158,1.0,phase_1,,,,,,,,,,,,,blue,circle
190.0,7.0,2.0,0,2.0,2.0,334.443092346,1.0,phase_1,,,,,,,,,,,,,yellow,square
118.0,2.0,1.0,0,2.0,2.0,334.537029266,1.0,phase_1,,,,,,,,,,,,,blue,circle
0.0,5.0,0.0,1,4.0,4.0,400.929927826,1.0,phase_1,,,,,,,,,,,,,white,triangle
383.0,4.0,4.0,0,4.0,4.0,384.366035461,1.0,phase_1,,,,,,,,,,,,,magenta,diamond
0.0,8.0,0.0,1,3.0,3.0,400.84290504499995,1.0,phase_1,,,,,,,,,,,,,gray,flipped triangle
218.0,7.0,2.0,0,1.0,1.0,334.182024002,1.0,phase_1,,,,,,,,,,,,,yellow,square
65.0,1.0,0.5,0,1.0,1.0,417.812824249,1.0,phase_1,,,,,,,,,,,,,green,line
89.0,2.0,1.0,0,1.0,1.0,317.223072052,1.0,phase_1,,,,,,,,,,,,,blue,circle
46.0,5.0,0.5,1,2.0,2.0,284.081935883,1.0,phase_1,,,,,,,,,,,,,white,triangle
208.0,7.0,2.0,0,4.0,4.0,351.358890533,1.0,phase_1,,,,,,,,,,,,,yellow,square
63.0,5.0,0.5,1,2.0,2.0,351.11284256000005,1.0,phase_1,,,,,,,,,,,,,white,triangle
0.0,6.0,0.0,1,3.0,3.0,384.39106941200004,1.0,phase_1,,,,,,,,,,,,,orange,hexagon
0.0,3.0,0.0,1,4.0,4.0,401.090860367,1.0,phase_1,,,,,,,,,,,,,cyan,cross
36.0,1.0,0.5,0,1.0,1.0,333.412885666,1.0,phase_1,,,,,,,,,,,,,green,line
189.0,3.0,2.0,1,2.0,2.0,317.440986633,1.0,phase_1,,,,,,,,,,,,,cyan,cross
31.0,5.0,0.5,1,4.0,4.0,350.152015686,1.0,phase_1,,,,,,,,,,,,,white,triangle
0.0,2.0,0.0,0,4.0,4.0,367.457151413,1.0,phase_1,,,,,,,,,,,,,blue,circle
414.0,4.0,4.0,0,2.0,2.0,367.17009544399997,1.0,phase_1,,,,,,,,,,,,,magenta,diamond
125.0,6.0,1.0,1,2.0,2.0,334.002971649,1.0,phase_1,,,,,,,,,,,,,orange,hexagon
385.0,4.0,4.0,0,3.0,3.0,384.246110916,1.0,phase_1,,,,,,,,,,,,,magenta,diamond
95.0,6.0,1.0,1,2.0,2.0,300.91118812599996,1.0,phase_1,,,,,,,,,,,,,orange,hexagon
403.0,8.0,4.0,1,1.0,1.0,434.40294265700004,1.0,phase_1,,,,,,,,,,,,,gray,flipped triangle
0.0,1.0,0.0,0,1.0,1.0,417.34480857799997,1.0,phase_1,,,,,,,,,,,,,green,line
0.0,1.0,0.0,0,1.0,1.0,333.959102631,1.0,phase_1,,,,,,,,,,,,,green,line
118.0,6.0,1.0,1,2.0,2.0,368.03603172299995,1.0,phase_1,,,,,,,,,,,,,orange,hexagon
387.0,4.0,4.0,0,4.0,4.0,351.326942444,1.0,phase_1,,,,,,,,,,,,,magenta,diamond
112.0,6.0,1.0,1,1.0,1.0,400.60186386099997,1.0,phase_1,,,,,,,,,,,,,orange,hexagon
0.0,4.0,0.0,0,2.0,2.0,350.646018982,1.0,phase_1,,,,,,,,,,,,,magenta,diamond
0.0,7.0,0.0,0,3.0,3.0,351.09710693399995,1.0,phase_1,,,,,,,,,,,,,yellow,square
180.0,7.0,2.0,0,1.0,1.0,317.25788116499996,1.0,phase_1,,,,,,,,,,,,,yellow,square
64.0,1.0,0.5,0,1.0,1.0,368.06178093000005,1.0,phase_1,,,,,,,,,,,,,green,line
408.0,8.0,4.0,1,3.0,3.0,400.752782822,1.0,phase_1,,,,,,,,,,,,,gray,flipped triangle
119.0,2.0,1.0,0,3.0,3.0,401.27491951,1.0,phase_1,,,,,,,,,,,,,blue,circle
222.0,3.0,2.0,1,1.0,1.0,367.548942566,1.0,phase_1,,,,,,,,,,,,,cyan,cross
377.0,8.0,4.0,1,2.0,2.0,334.415912628,1.0,phase_1,,,,,,,,,,,,,gray,flipped triangle
194.0,3.0,2.0,1,4.0,4.0,367.95592308000005,1.0,phase_1,,,,,,,,,,,,,cyan,cross
33.0,1.0,0.5,0,4.0,4.0,400.69103241,1.0,phase_1,,,,,,,,,,,,,green,line
0.0,4.0,0.0,0,1.0,1.0,334.140062332,1.0,phase_1,,,,,,,,,,,,,magenta,diamond
422.0,8.0,4.0,1,4.0,4.0,334.328174591,1.0,phase_1,,,,,,,,,,,,,gray,flipped triangle
37.0,5.0,0.5,1,3.0,3.0,367.769956589,1.0,phase_1,,,,,,,,,,,,,white,triangle
105.0,2.0,1.0,0,2.0,2.0,300.55999755899995,1.0,phase_1,,,,,,,,,,,,,blue,circle
391.0,8.0,4.0,1,1.0,1.0,384.02915000900003,1.0,phase_1,,,,,,,,,,,,,gray,flipped triangle
190.0,7.0,2.0,0,3.0,3.0,350.614070892,1.0,phase_1,,,,,,,,,,,,,yellow,square
0.0,1.0,0.0,0,2.0,2.0,351.003885269,1.0,phase_1,,,,,,,,,,,,,green,line
117.0,6.0,1.0,1,3.0,3.0,367.760896683,1.0,phase_1,,,,,,,,,,,,,orange,hexagon
202.0,7.0,2.0,0,1.0,1.0,300.59194564800003,1.0,phase_1,,,,,,,,,,,,,yellow,square
425.0,4.0,4.0,0,2.0,2.0,333.921194077,1.0,phase_1,,,,,,,,,,,,,magenta,diamond
0.0,2.0,0.0,0,4.0,4.0,318.102121353,1.0,phase_1,,,,,,,,,,,,,blue,circle
186.0,3.0,2.0,1,3.0,3.0,417.645931244,1.0,phase_1,,,,,,,,,,,,,cyan,cross
0.0,1.0,0.0,0,3.0,3.0,400.681972504,1.0,phase_1,,,,,,,,,,,,,green,line
182.0,7.0,2.0,0,1.0,1.0,333.925008774,1.0,phase_1,,,,,,,,,,,,,yellow,square
94.0,2.0,1.0,0,2.0,2.0,367.826938629,1.0,phase_1,,,,,,,,,,,,,blue,circle
0.0,6.0,0.0,1,1.0,1.0,384.126901627,1.0,phase_1,,,,,,,,,,,,,orange,hexagon
209.0,3.0,2.0,1,3.0,3.0,367.854118347,1.0,phase_1,,,,,,,,,,,,,cyan,cross
201.0,3.0,2.0,1,3.0,3.0,384.340047836,1.0,phase_1,,,,,,,,,,,,,cyan,cross
212.0,7.0,2.0,0,4.0,4.0,401.27801895100004,1.0,phase_1,,,,,,,,,,,,,yellow,square
219.0,7.0,2.0,0,2.0,2.0,317.955970764,1.0,phase_1,,,,,,,,,,,,,yellow,square
39.0,5.0,0.5,1,2.0,2.0,317.360877991,1.0,phase_1,,,,,,,,,,,,,white,triangle
0.0,5.0,0.0,1,3.0,3.0,367.348194122,1.0,phase_1,,,,,,,,,,,,,white,triangle
191.0,7.0,2.0,0,3.0,3.0,401.50308609,1.0,phase_1,,,,,,,,,,,,,yellow,square
385.0,4.0,4.0,0,4.0,4.0,400.69198608399995,1.0,phase_1,,,,,,,,,,,,,magenta,diamond
182.0,3.0,2.0,1,4.0,4.0,434.113025665,1.0,phase_1,,,,,,,,,,,,,cyan,cross
213.0,7.0,2.0,0,1.0,1.0,400.885105133,1.0,phase_1,,,,,,,,,,,,,yellow,square
26.0,1.0,0.5,0,3.0,3.0,383.839130402,1.0,phase_1,,,,,,,,,,,,,green,line
55.0,5.0,0.5,1,4.0,4.0,384.124040604,1.0,phase_1,,,,,,,,,,,,,white,triangle
397.0,4.0,4.0,0,3.0,3.0,383.87799263,1.0,phase_1,,,,,,,,,,,,,magenta,diamond
218.0,3.0,2.0,1,4.0,4.0,350.42405128499996,1.0,phase_1,,,,,,,,,,,,,cyan,cross
0.0,8.0,0.0,1,4.0,4.0,383.790969849,1.0,phase_1,,,,,,,,,,,,,gray,flipped triangle
0.0,2.0,0.0,0,2.0,2.0,584.3520164490001,1.0,phase_1,,,,,,,,,,,,,blue,circle
96.0,6.0,1.0,1,1.0,1.0,351.067781448,1.0,phase_1,,,,,,,,,,,,,orange,hexagon
87.0,6.0,1.0,1,2.0,2.0,317.456007004,1.0,phase_1,,,,,,,,,,,,,orange,hexagon
32.0,5.0,0.5,1,1.0,1.0,317.33989715599995,1.0,phase_1,,,,,,,,,,,,,white,triangle
418.0,4.0,4.0,0,4.0,4.0,350.487947464,1.0,phase_1,,,,,,,,,,,,,magenta,diamond
0.0,1.0,0.0,0,3.0,3.0,434.055089951,1.0,phase_1,,,,,,,,,,,,,green,line
201.0,3.0,2.0,1,4.0,4.0,383.879899979,1.0,phase_1,,,,,,,,,,,,,cyan,cross
112.0,6.0,1.0,1,2.0,2.0,317.368030548,1.0,phase_1,,,,,,,,,,,,,orange,hexagon
388.0,8.0,4.0,1,3.0,3.0,367.280006409,1.0,phase_1,,,,,,,,,,,,,gray,flipped triangle
84.0,2.0,1.0,0,3.0,3.0,367.722034454,1.0,phase_1,,,,,,,,,,,,,blue,circle
411.0,8.0,4.0,1,4.0,4.0,334.188938141,1.0,phase_1,,,,,,,,,,,,,gray,flipped triangle
215.0,3.0,2.0,1,4.0,4.0,334.70010757399996,1.0,phase_1,,,,,,,,,,,,,cyan,cross
185.0,3.0,2.0,1,4.0,4.0,317.737817764,1.0,phase_1,,,,,,,,,,,,,cyan,cross
83.0,6.0,1.0,1,2.0,2.0,334.163188934,1.0,phase_1,,,,,,,,,,,,,orange,hexagon
380.0,8.0,4.0,1,4.0,4.0,334.316968918,1.0,phase_1,,,,,,,,,,,,,gray,flipped triangle
211.0,7.0,2.0,0,2.0,2.0,317.12603569,1.0,phase_1,,,,,,,,,,,,,yellow,square
414.0,4.0,4.0,0,3.0,3.0,367.12598800700005,1.0,phase_1,,,,,,,,,,,,,magenta,diamond
403.0,4.0,4.0,0,1.0,1.0,317.591190338,1.0,phase_1,,,,,,,,,,,,,magenta,diamond
0.0,7.0,0.0,0,2.0,2.0,351.12094879200004,1.0,phase_1,,,,,,,,,,,,,yellow,square
97.0,6.0,1.0,1,3.0,3.0,383.906841278,1.0,phase_1,,,,,,,,,,,,,orange,hexagon
0.0,5.0,0.0,1,4.0,4.0,384.514093399,1.0,phase_1,,,,,,,,,,,,,white,triangle
424.0,8.0,4.0,1,1.0,1.0,367.75994300800005,1.0,phase_1,,,,,,,,,,,,,gray,flipped triangle
416.0,8.0,4.0,1,1.0,1.0,333.84990692099996,1.0,phase_1,,,,,,,,,,,,,gray,flipped triangle
404.0,4.0,4.0,0,1.0,1.0,367.29001998900003,1.0,phase_1,,,,,,,,,,,,,magenta,diamond
414.0,4.0,4.0,0,2.0,2.0,367.762804031,1.0,phase_1,,,,,,,,,,,,,magenta,diamond
180.0,7.0,2.0,0,1.0,1.0,401.293039322,1.0,phase_1,,,,,,,,,,,,,yellow,square
379.0,8.0,4.0,1,3.0,3.0,417.411088943,1.0,phase_1,,,,,,,,,,,,,gray,flipped triangle
0.0,4.0,0.0,0,3.0,3.0,333.986997604,1.0,phase_1,,,,,,,,,,,,,magenta,diamond
0.0,4.0,0.0,0,1.0,1.0,334.157943726,1.0,phase_1,,,,,,,,,,,,,magenta,diamond
175.0,7.0,2.0,0,3.0,3.0,383.908033371,2.0,phase_1,,,,,,,,,,,,,yellow,square
196.0,3.0,2.0,1,3.0,3.0,350.647926331,2.0,phase_1,,,,,,,,,,,,,cyan,cross
220.0,3.0,2.0,1,4.0,4.0,367.702007294,2.0,phase_1,,,,,,,,,,,,,cyan,cross
49.0,5.0,0.5,1,2.0,2.0,317.48008727999996,2.0,phase_1,,,,,,,,,,,,,white,triangle
177.0,7.0,2.0,0,1.0,1.0,284.142971039,2.0,phase_1,,,,,,,,,,,,,yellow,square
0.0,6.0,0.0,1,2.0,2.0,367.760181427,2.0,phase_1,,,,,,,,,,,,,orange,hexagon
0.0,4.0,0.0,0,1.0,1.0,384.095907211,2.0,phase_1,,,,,,,,,,,,,magenta,diamond
0.0,3.0,0.0,1,1.0,1.0,367.50793457000003,2.0,phase_1,,,,,,,,,,,,,cyan,cross
180.0,3.0,2.0,1,1.0,1.0,317.196846008,2.0,phase_1,,,,,,,,,,,,,cyan,cross
0.0,5.0,0.0,1,2.0,2.0,284.045934677,2.0,phase_1,,,,,,,,,,,,,white,triangle
419.0,8.0,4.0,1,4.0,4.0,368.422985077,2.0,phase_1,,,,,,,,,,,,,gray,flipped triangle
0.0,1.0,0.0,0,1.0,1.0,350.866794586,2.0,phase_1,,,,,,,,,,,,,green,line
399.0,4.0,4.0,0,1.0,1.0,384.263038635,2.0,phase_1,,,,,,,,,,,,,magenta,diamond
82.0,2.0,1.0,0,3.0,3.0,367.161035538,2.0,phase_1,,,,,,,,,,,,,blue,circle
414.0,4.0,4.0,0,4.0,4.0,334.90610122699997,2.0,phase_1,,,,,,,,,,,,,magenta,diamond
115.0,2.0,1.0,0,1.0,1.0,350.803852081,2.0,phase_1,,,,,,,,,,,,,blue,circle
386.0,8.0,4.0,1,2.0,2.0,334.414958954,2.0,phase_1,,,,,,,,,,,,,gray,flipped triangle
218.0,7.0,2.0,0,1.0,1.0,300.536155701,2.0,phase_1,,,,,,,,,,,,,yellow,square
86.0,2.0,1.0,0,2.0,2.0,334.144115448,2.0,phase_1,,,,,,,,,,,,,blue,circle
0.0,3.0,0.0,1,4.0,4.0,267.49587059000004,2.0,phase_1,,,,,,,,,,,,,cyan,cross
60.0,1.0,0.5,0,3.0,3.0,451.13992691,2.0,phase_1,,,,,,,,,,,,,green,line
0.0,3.0,0.0,1,4.0,4.0,417.51503944399997,2.0,phase_1,,,,,,,,,,,,,cyan,cross
123.0,6.0,1.0,1,3.0,3.0,350.70204734799995,2.0,phase_1,,,,,,,,,,,,,orange,hexagon
179.0,3.0,2.0,1,1.0,1.0,350.433111191,2.0,phase_1,,,,,,,,,,,,,cyan,cross
221.0,7.0,2.0,0,4.0,4.0,367.233037949,2.0,phase_1,,,,,,,,,,,,,yellow,square
41.0,5.0,0.5,1,1.0,1.0,417.495965958,2.0,phase_1,,,,,,,,,,,,,white,triangle
40.0,1.0,0.5,0,4.0,4.0,351.058006287,2.0,phase_1,,,,,,,,,,,,,green,line
220.0,7.0,2.0,0,2.0,2.0,317.466020584,2.0,phase_1,,,,,,,,,,,,,yellow,square
0.0,1.0,0.0,0,4.0,4.0,400.417089462,2.0,phase_1,,,,,,,,,,,,,green,line
0.0,2.0,0.0,0,3.0,3.0,367.560148239,2.0,phase_1,,,,,,,,,,,,,blue,circle
217.0,7.0,2.0,0,2.0,2.0,351.61209106399997,2.0,phase_1,,,,,,,,,,,,,yellow,square
377.0,8.0,4.0,1,1.0,1.0,367.446899414,2.0,phase_1,,,,,,,,,,,,,gray,flipped triangle
375.0,4.0,4.0,0,4.0,4.0,334.39207077,2.0,phase_1,,,,,,,,,,,,,magenta,diamond
0.0,5.0,0.0,1,3.0,3.0,367.456912994,2.0,phase_1,,,,,,,,,,,,,white,triangle
0.0,5.0,0.0,1,3.0,3.0,350.86989402800003,2.0,phase_1,,,,,,,,,,,,,white,triangle
0.0,4.0,0.0,0,4.0,4.0,367.52200126599996,2.0,phase_1,,,,,,,,,,,,,magenta,diamond
115.0,2.0,1.0,0,2.0,2.0,300.42290687599996,2.0,phase_1,,,,,,,,,,,,,blue,circle
106.0,6.0,1.0,1,3.0,3.0,334.274053574,2.0,phase_1,,,,,,,,,,,,,orange,hexagon
402.0,8.0,4.0,1,4.0,4.0,350.991010666,2.0,phase_1,,,,,,,,,,,,,gray,flipped triangle
0.0,4.0,0.0,0,2.0,2.0,317.706108093,2.0,phase_1,,,,,,,,,,,,,magenta,diamond
0.0,5.0,0.0,1,3.0,3.0,384.41586494399996,2.0,phase_1,,,,,,,,,,,,,white,triangle
214.0,7.0,2.0,0,2.0,2.0,333.829879761,2.0,phase_1,,,,,,,,,,,,,yellow,square
100.0,6.0,1.0,1,3.0,3.0,334.273099899,2.0,phase_1,,,,,,,,,,,,,orange,hexagon
99.0,6.0,1.0,1,2.0,2.0,367.529153824,2.0,phase_1,,,,,,,,,,,,,orange,hexagon
211.0,3.0,2.0,1,2.0,2.0,383.845806122,2.0,phase_1,,,,,,,,,,,,,cyan,cross
0.0,6.0,0.0,1,1.0,1.0,384.799003601,2.0,phase_1,,,,,,,,,,,,,orange,hexagon
29.0,5.0,0.5,1,3.0,3.0,367.670059204,2.0,phase_1,,,,,,,,,,,,,white,triangle
45.0,5.0,0.5,1,2.0,2.0,284.05594825699995,2.0,phase_1,,,,,,,,,,,,,white,triangle
219.0,7.0,2.0,0,4.0,4.0,300.515890121,2.0,phase_1,,,,,,,,,,,,,yellow,square
413.0,4.0,4.0,0,2.0,2.0,400.29191970799997,2.0,phase_1,,,,,,,,,,,,,magenta,diamond
120.0,2.0,1.0,0,4.0,4.0,400.70295333900003,2.0,phase_1,,,,,,,,,,,,,blue,circle
32.0,5.0,0.5,1,4.0,4.0,367.941856384,2.0,phase_1,,,,,,,,,,,,,white,triangle
29.0,1.0,0.5,0,2.0,2.0,334.239006042,2.0,phase_1,,,,,,,,,,,,,green,line
35.0,1.0,0.5,0,4.0,4.0,333.938837051,2.0,phase_1,,,,,,,,,,,,,green,line
46.0,5.0,0.5,1,3.0,3.0,334.078073502,2.0,phase_1,,,,,,,,,,,,,white,triangle
121.0,2.0,1.0,0,1.0,1.0,317.787885666,2.0,phase_1,,,,,,,,,,,,,blue,circle
222.0,3.0,2.0,1,1.0,1.0,367.523908615,2.0,phase_1,,,,,,,,,,,,,cyan,cross
399.0,8.0,4.0,1,1.0,1.0,367.12193489099997,2.0,phase_1,,,,,,,,,,,,,gray,flipped triangle
207.0,7.0,2.0,0,4.0,4.0,333.925008774,2.0,phase_1,,,,,,,,,,,,,yellow,square
51.0,1.0,0.5,0,3.0,3.0,351.508140564,2.0,phase_1,,,,,,,,,,,,,green,line
0.0,1.0,0.0,0,2.0,2.0,300.904035568,2.0,phase_1,,,,,,,,,,,,,green,line
91.0,6.0,1.0,1,4.0,4.0,351.23896598799996,2.0,phase_1,,,,,,,,,,,,,orange,hexagon
0.0,2.0,0.0,0,1.0,1.0,250.713825226,2.0,phase_1,,,,,,,,,,,,,blue,circle
0.0,6.0,0.0,1,1.0,1.0,334.172010422,2.0,phase_1,,,,,,,,,,,,,orange,hexagon
64.0,1.0,0.5,0,2.0,2.0,383.64315033,2.0,phase_1,,,,,,,,,,,,,green,line
53.0,5.0,0.5,1,3.0,3.0,367.34795570399996,2.0,phase_1,,,,,,,,,,,,,white,triangle
0.0,1.0,0.0,0,1.0,1.0,400.907039642,2.0,phase_1,,,,,,,,,,,,,green,line
415.0,8.0,4.0,1,4.0,4.0,384.333848953,2.0,phase_1,,,,,,,,,,,,,gray,flipped triangle
390.0,4.0,4.0,0,3.0,3.0,367.97714233399995,2.0,phase_1,,,,,,,,,,,,,magenta,diamond
377.0,8.0,4.0,1,3.0,3.0,367.517948151,2.0,phase_1,,,,,,,,,,,,,gray,flipped triangle
119.0,6.0,1.0,1,4.0,4.0,367.193937302,2.0,phase_1,,,,,,,,,,,,,orange,hexagon
215.0,7.0,2.0,0,3.0,3.0,400.922060013,2.0,phase_1,,,,,,,,,,,,,yellow,square
0.0,8.0,0.0,1,4.0,4.0,317.728042603,2.0,phase_1,,,,,,,,,,,,,gray,flipped triangle
210.0,3.0,2.0,1,1.0,1.0,401.064157486,2.0,phase_1,,,,,,,,,,,,,cyan,cross
407.0,8.0,4.0,1,4.0,4.0,351.475000381,2.0,phase_1,,,,,,,,,,,,,gray,flipped triangle
388.0,8.0,4.0,1,2.0,2.0,350.404024124,2.0,phase_1,,,,,,,,,,,,,gray,flipped triangle
107.0,2.0,1.0,0,4.0,4.0,300.688028336,2.0,phase_1,,,,,,,,,,,,,blue,circle
402.0,4.0,4.0,0,2.0,2.0,384.232997894,2.0,phase_1,,,,,,,,,,,,,magenta,diamond
0.0,8.0,0.0,1,2.0,2.0,367.86198616,2.0,phase_1,,,,,,,,,,,,,gray,flipped triangle
0.0,5.0,0.0,1,4.0,4.0,417.162895203,2.0,phase_1,,,,,,,,,,,,,white,triangle
0.0,2.0,0.0,0,3.0,3.0,384.557008743,2.0,phase_1,,,,,,,,,,,,,blue,circle
0.0,1.0,0.0,0,1.0,1.0,283.898115158,2.0,phase_1,,,,,,,,,,,,,green,line
79.0,6.0,1.0,1,3.0,3.0,367.34890937800003,2.0,phase_1,,,,,,,,,,,,,orange,hexagon
196.0,7.0,2.0,0,3.0,3.0,367.28096008299997,2.0,phase_1,,,,,,,,,,,,,yellow,square
72.0,5.0,0.5,1,1.0,1.0,383.819103241,2.0,phase_1,,,,,,,,,,,,,white,triangle
0.0,3.0,0.0,1,3.0,3.0,334.384918213,2.0,phase_1,,,,,,,,,,,,,cyan,cross
424.0,8.0,4.0,1,2.0,2.0,317.16203689599996,2.0,phase_1,,,,,,,,,,,,,gray,flipped triangle
104.0,2.0,1.0,0,1.0,1.0,350.791931152,2.0,phase_1,,,,,,,,,,,,,blue,circle
217.0,3.0,2.0,1,2.0,2.0,350.70896148699995,2.0,phase_1,,,,,,,,,,,,,cyan,cross
121.0,6.0,1.0,1,1.0,1.0,367.66910552999997,2.0,phase_1,,,,,,,,,,,,,orange,hexagon
100.0,2.0,1.0,0,4.0,4.0,384.288787842,2.0,phase_1,,,,,,,,,,,,,blue,circle
375.0,8.0,4.0,1,4.0,4.0,351.07207298300006,2.0,phase_1,,,,,,,,,,,,,gray,flipped triangle
0.0,3.0,0.0,1,1.0,1.0,367.76614189099996,2.0,phase_1,,,,,,,,,,,,,cyan,cross
0.0,2.0,0.0,0,2.0,2.0,317.337036133,2.0,phase_1,,,,,,,,,,,,,blue,circle
214.0,3.0,2.0,1,3.0,3.0,367.27309227,2.0,phase_1,,,,,,,,,,,,,cyan,cross
51.0,5.0,0.5,1,3.0,3.0,367.89393425,2.0,phase_1,,,,,,,,,,,,,white,triangle
64.0,1.0,0.5,0,2.0,2.0,367.264986038,2.0,phase_1,,,,,,,,,,,,,green,line
105.0,2.0,1.0,0,3.0,3.0,367.82813072199997,2.0,phase_1,,,,,,,,,,,,,blue,circle
115.0,6.0,1.0,1,2.0,2.0,300.64702034000004,2.0,phase_1,,,,,,,,,,,,,orange,hexagon
0.0,7.0,0.0,0,1.0,1.0,217.61298179599999,2.0,phase_1,,,,,,,,,,,,,yellow,square
0.0,1.0,0.0,0,3.0,3.0,384.749889374,3.0,phase_1,,,,,,,,,,,,,green,line
0.0,2.0,0.0,0,2.0,2.0,317.311048508,3.0,phase_1,,,,,,,,,,,,,blue,circle
79.0,6.0,1.0,1,2.0,2.0,351.09496116599996,3.0,phase_1,,,,,,,,,,,,,orange,hexagon
34.0,5.0,0.5,1,2.0,2.0,334.05590057399996,3.0,phase_1,,,,,,,,,,,,,white,triangle
122.0,6.0,1.0,1,2.0,2.0,299.946069717,3.0,phase_1,,,,,,,,,,,,,orange,hexagon
420.0,8.0,4.0,1,2.0,2.0,267.106056213,3.0,phase_1,,,,,,,,,,,,,gray,flipped triangle
71.0,1.0,0.5,0,4.0,4.0,434.159994125,3.0,phase_1,,,,,,,,,,,,,green,line
208.0,7.0,2.0,0,4.0,4.0,367.769956589,3.0,phase_1,,,,,,,,,,,,,yellow,square
0.0,1.0,0.0,0,4.0,4.0,384.613037109,3.0,phase_1,,,,,,,,,,,,,green,line
0.0,8.0,0.0,1,2.0,2.0,317.846059799,3.0,phase_1,,,,,,,,,,,,,gray,flipped triangle
0.0,3.0,0.0,1,4.0,4.0,367.385149002,3.0,phase_1,,,,,,,,,,,,,cyan,cross
183.0,7.0,2.0,0,2.0,2.0,317.549943924,3.0,phase_1,,,,,,,,,,,,,yellow,square
0.0,2.0,0.0,0,4.0,4.0,367.480993271,3.0,phase_1,,,,,,,,,,,,,blue,circle
414.0,8.0,4.0,1,1.0,1.0,351.317167282,3.0,phase_1,,,,,,,,,,,,,gray,flipped triangle
188.0,7.0,2.0,0,1.0,1.0,351.259946823,3.0,phase_1,,,,,,,,,,,,,yellow,square
0.0,1.0,0.0,0,3.0,3.0,250.561952591,3.0,phase_1,,,,,,,,,,,,,green,line
0.0,7.0,0.0,0,2.0,2.0,283.936023712,3.0,phase_1,,,,,,,,,,,,,yellow,square
106.0,2.0,1.0,0,4.0,4.0,350.980043411,3.0,phase_1,,,,,,,,,,,,,blue,circle
0.0,8.0,0.0,1,1.0,1.0,317.972183228,3.0,phase_1,,,,,,,,,,,,,gray,flipped triangle
119.0,6.0,1.0,1,3.0,3.0,384.010076523,3.0,phase_1,,,,,,,,,,,,,orange,hexagon
0.0,2.0,0.0,0,3.0,3.0,367.818117142,3.0,phase_1,,,,,,,,,,,,,blue,circle
0.0,3.0,0.0,1,4.0,4.0,434.35907363900003,3.0,phase_1,,,,,,,,,,,,,cyan,cross
176.0,3.0,2.0,1,1.0,1.0,317.17300415,3.0,phase_1,,,,,,,,,,,,,cyan,cross
0.0,3.0,0.0,1,4.0,4.0,367.916107178,3.0,phase_1,,,,,,,,,,,,,cyan,cross
190.0,3.0,2.0,1,1.0,1.0,350.764989853,3.0,phase_1,,,,,,,,,,,,,cyan,cross
196.0,7.0,2.0,0,3.0,3.0,333.889961243,3.0,phase_1,,,,,,,,,,,,,yellow,square
0.0,8.0,0.0,1,3.0,3.0,350.882768631,3.0,phase_1,,,,,,,,,,,,,gray,flipped triangle
124.0,6.0,1.0,1,1.0,1.0,434.016942978,3.0,phase_1,,,,,,,,,,,,,orange,hexagon
384.0,4.0,4.0,0,1.0,1.0,367.187023163,3.0,phase_1,,,,,,,,,,,,,magenta,diamond
0.0,3.0,0.0,1,1.0,1.0,368.115901947,3.0,phase_1,,,,,,,,,,,,,cyan,cross
410.0,4.0,4.0,0,1.0,1.0,335.04509925800005,3.0,phase_1,,,,,,,,,,,,,magenta,diamond
98.0,2.0,1.0,0,2.0,2.0,400.63190460199996,3.0,phase_1,,,,,,,,,,,,,blue,circle
225.0,7.0,2.0,0,3.0,3.0,367.563009262,3.0,phase_1,,,,,,,,,,,,,yellow,square
399.0,4.0,4.0,0,1.0,1.0,350.109100342,3.0,phase_1,,,,,,,,,,,,,magenta,diamond
404.0,8.0,4.0,1,4.0,4.0,333.918094635,3.0,phase_1,,,,,,,,,,,,,gray,flipped triangle
0.0,3.0,0.0,1,2.0,2.0,317.414999008,3.0,phase_1,,,,,,,,,,,,,cyan,cross
175.0,3.0,2.0,1,1.0,1.0,350.642204285,3.0,phase_1,,,,,,,,,,,,,cyan,cross
0.0,5.0,0.0,1,2.0,2.0,317.701101303,3.0,phase_1,,,,,,,,,,,,,white,triangle
117.0,2.0,1.0,0,2.0,2.0,384.243965149,3.0,phase_1,,,,,,,,,,,,,blue,circle
0.0,2.0,0.0,0,2.0,2.0,350.98505020100004,3.0,phase_1,,,,,,,,,,,,,blue,circle
34.0,5.0,0.5,1,2.0,2.0,333.935976028,3.0,phase_1,,,,,,,,,,,,,white,triangle
0.0,3.0,0.0,1,2.0,2.0,316.873073578,3.0,phase_1,,,,,,,,,,,,,cyan,cross
54.0,5.0,0.5,1,1.0,1.0,351.196050644,3.0,phase_1,,,,,,,,,,,,,white,triangle
34.0,1.0,0.5,0,1.0,1.0,434.20791626,3.0,phase_1,,,,,,,,,,,,,green,line
0.0,7.0,0.0,0,2.0,2.0,284.209012985,3.0,phase_1,,,,,,,,,,,,,yellow,square
96.0,6.0,1.0,1,4.0,4.0,250.958919525,3.0,phase_1,,,,,,,,,,,,,orange,hexagon
379.0,8.0,4.0,1,2.0,2.0,334.68818664599996,3.0,phase_1,,,,,,,,,,,,,gray,flipped triangle
0.0,6.0,0.0,1,4.0,4.0,317.63911247299995,3.0,phase_1,,,,,,,,,,,,,orange,hexagon
0.0,5.0,0.0,1,2.0,2.0,383.893013,3.0,phase_1,,,,,,,,,,,,,white,triangle
50.0,5.0,0.5,1,3.0,3.0,383.70490074199995,3.0,phase_1,,,,,,,,,,,,,white,triangle
389.0,8.0,4.0,1,4.0,4.0,350.522994995,3.0,phase_1,,,,,,,,,,,,,gray,flipped triangle
0.0,4.0,0.0,0,4.0,4.0,417.306900024,3.0,phase_1,,,,,,,,,,,,,magenta,diamond
0.0,1.0,0.0,0,3.0,3.0,383.497953415,3.0,phase_1,,,,,,,,,,,,,green,line
412.0,4.0,4.0,0,3.0,3.0,334.631919861,3.0,phase_1,,,,,,,,,,,,,magenta,diamond
107.0,6.0,1.0,1,4.0,4.0,350.591182709,3.0,phase_1,,,,,,,,,,,,,orange,hexagon
184.0,3.0,2.0,1,1.0,1.0,417.423963547,3.0,phase_1,,,,,,,,,,,,,cyan,cross
49.0,1.0,0.5,0,2.0,2.0,300.25410652200003,3.0,phase_1,,,,,,,,,,,,,green,line
63.0,1.0,0.5,0,4.0,4.0,317.445039749,3.0,phase_1,,,,,,,,,,,,,green,line
44.0,1.0,0.5,0,3.0,3.0,384.71198082,3.0,phase_1,,,,,,,,,,,,,green,line
39.0,5.0,0.5,1,1.0,1.0,334.508895874,3.0,phase_1,,,,,,,,,,,,,white,triangle
411.0,4.0,4.0,0,3.0,3.0,334.16390419000004,3.0,phase_1,,,,,,,,,,,,,magenta,diamond
120.0,6.0,1.0,1,3.0,3.0,334.379911423,3.0,phase_1,,,,,,,,,,,,,orange,hexagon
0.0,5.0,0.0,1,2.0,2.0,384.36412811300005,3.0,phase_1,,,,,,,,,,,,,white,triangle
0.0,8.0,0.0,1,4.0,4.0,384.10997390700004,3.0,phase_1,,,,,,,,,,,,,gray,flipped triangle
116.0,2.0,1.0,0,3.0,3.0,350.692987442,3.0,phase_1,,,,,,,,,,,,,blue,circle
0.0,5.0,0.0,1,3.0,3.0,334.181070328,3.0,phase_1,,,,,,,,,,,,,white,triangle
408.0,8.0,4.0,1,4.0,4.0,334.02800560000003,3.0,phase_1,,,,,,,,,,,,,gray,flipped triangle
224.0,7.0,2.0,0,1.0,1.0,400.811910629,3.0,phase_1,,,,,,,,,,,,,yellow,square
34.0,1.0,0.5,0,4.0,4.0,334.427118301,3.0,phase_1,,,,,,,,,,,,,green,line
97.0,6.0,1.0,1,1.0,1.0,383.765935898,3.0,phase_1,,,,,,,,,,,,,orange,hexagon
381.0,4.0,4.0,0,3.0,3.0,367.45500564599996,3.0,phase_1,,,,,,,,,,,,,magenta,diamond
109.0,2.0,1.0,0,4.0,4.0,334.24878120399995,3.0,phase_1,,,,,,,,,,,,,blue,circle
33.0,5.0,0.5,1,1.0,1.0,317.703008652,3.0,phase_1,,,,,,,,,,,,,white,triangle
0.0,2.0,0.0,0,2.0,2.0,384.626865387,3.0,phase_1,,,,,,,,,,,,,blue,circle
123.0,6.0,1.0,1,3.0,3.0,350.783109665,3.0,phase_1,,,,,,,,,,,,,orange,hexagon
114.0,2.0,1.0,0,3.0,3.0,367.85197258,3.0,phase_1,,,,,,,,,,,,,blue,circle
378.0,8.0,4.0,1,1.0,1.0,384.341001511,3.0,phase_1,,,,,,,,,,,,,gray,flipped triangle
183.0,7.0,2.0,0,1.0,1.0,384.459018707,3.0,phase_1,,,,,,,,,,,,,yellow,square
392.0,4.0,4.0,0,1.0,1.0,317.623138428,3.0,phase_1,,,,,,,,,,,,,magenta,diamond
0.0,5.0,0.0,1,4.0,4.0,367.14601516700003,3.0,phase_1,,,,,,,,,,,,,white,triangle
191.0,7.0,2.0,0,2.0,2.0,450.78086852999996,3.0,phase_1,,,,,,,,,,,,,yellow,square
39.0,1.0,0.5,0,2.0,2.0,384.25016403200004,3.0,phase_1,,,,,,,,,,,,,green,line
76.0,6.0,1.0,1,3.0,3.0,351.56106948900003,3.0,phase_1,,,,,,,,,,,,,orange,hexagon
217.0,7.0,2.0,0,4.0,4.0,317.19613075300003,3.0,phase_1,,,,,,,,,,,,,yellow,square
73.0,5.0,0.5,1,1.0,1.0,367.700815201,3.0,phase_1,,,,,,,,,,,,,white,triangle
36.0,1.0,0.5,0,4.0,4.0,367.23804473900003,3.0,phase_1,,,,,,,,,,,,,green,line
393.0,8.0,4.0,1,4.0,4.0,350.959062576,3.0,phase_1,,,,,,,,,,,,,gray,flipped triangle
30.0,1.0,0.5,0,3.0,3.0,367.218017578,3.0,phase_1,,,,,,,,,,,,,green,line
420.0,4.0,4.0,0,1.0,1.0,300.374984741,3.0,phase_1,,,,,,,,,,,,,magenta,diamond
0.0,3.0,0.0,1,3.0,3.0,100.03805160499999,3.0,phase_1,,,,,,,,,,,,,cyan,cross
31.0,5.0,0.5,1,2.0,2.0,318.061113358,3.0,phase_1,,,,,,,,,,,,,white,triangle
79.0,2.0,1.0,0,4.0,4.0,334.364891052,3.0,phase_1,,,,,,,,,,,,,blue,circle
382.0,4.0,4.0,0,1.0,1.0,350.579977036,3.0,phase_1,,,,,,,,,,,,,magenta,diamond
418.0,8.0,4.0,1,3.0,3.0,366.810083389,3.0,phase_1,,,,,,,,,,,,,gray,flipped triangle
418.0,4.0,4.0,0,2.0,2.0,350.623130798,3.0,phase_1,,,,,,,,,,,,,magenta,diamond
180.0,3.0,2.0,1,3.0,3.0,384.281873703,3.0,phase_1,,,,,,,,,,,,,cyan,cross
93.0,2.0,1.0,0,3.0,3.0,317.070960999,3.0,phase_1,,,,,,,,,,,,,blue,circle
387.0,4.0,4.0,0,3.0,3.0,317.580938339,3.0,phase_1,,,,,,,,,,,,,magenta,diamond
96.0,6.0,1.0,1,1.0,1.0,367.858886719,3.0,phase_1,,,,,,,,,,,,,orange,hexagon
189.0,7.0,2.0,0,4.0,4.0,350.71015358,3.0,phase_1,,,,,,,,,,,,,yellow,square
62.0,5.0,0.5,1,3.0,3.0,284.619092941,4.0,phase_1,,,,,,,,,,,,,white,triangle
0.0,6.0,0.0,1,2.0,2.0,251.09815597500003,4.0,phase_1,,,,,,,,,,,,,orange,hexagon
375.0,8.0,4.0,1,4.0,4.0,350.38709640499997,4.0,phase_1,,,,,,,,,,,,,gray,flipped triangle
191.0,3.0,2.0,1,1.0,1.0,250.23794174199998,4.0,phase_1,,,,,,,,,,,,,cyan,cross
114.0,2.0,1.0,0,1.0,1.0,317.713975906,4.0,phase_1,,,,,,,,,,,,,blue,circle
55.0,5.0,0.5,1,1.0,1.0,367.41495132399996,4.0,phase_1,,,,,,,,,,,,,white,triangle
112.0,2.0,1.0,0,3.0,3.0,317.981958389,4.0,phase_1,,,,,,,,,,,,,blue,circle
0.0,7.0,0.0,0,1.0,1.0,233.304023743,4.0,phase_1,,,,,,,,,,,,,yellow,square
412.0,8.0,4.0,1,4.0,4.0,334.023952484,4.0,phase_1,,,,,,,,,,,,,gray,flipped triangle
49.0,1.0,0.5,0,2.0,2.0,317.000865936,4.0,phase_1,,,,,,,,,,,,,green,line
398.0,8.0,4.0,1,2.0,2.0,334.494113922,4.0,phase_1,,,,,,,,,,,,,gray,flipped triangle
377.0,8.0,4.0,1,1.0,1.0,300.86088180499996,4.0,phase_1,,,,,,,,,,,,,gray,flipped triangle
100.0,2.0,1.0,0,3.0,3.0,350.945949554,4.0,phase_1,,,,,,,,,,,,,blue,circle
0.0,7.0,0.0,0,1.0,1.0,300.902843475,4.0,phase_1,,,,,,,,,,,,,yellow,square
410.0,8.0,4.0,1,2.0,2.0,267.551898956,4.0,phase_1,,,,,,,,,,,,,gray,flipped triangle
391.0,4.0,4.0,0,3.0,3.0,367.568016052,4.0,phase_1,,,,,,,,,,,,,magenta,diamond
74.0,1.0,0.5,0,4.0,4.0,368.313074112,4.0,phase_1,,,,,,,,,,,,,green,line
386.0,8.0,4.0,1,4.0,4.0,384.579181671,4.0,phase_1,,,,,,,,,,,,,gray,flipped triangle
208.0,3.0,2.0,1,2.0,2.0,317.523002625,4.0,phase_1,,,,,,,,,,,,,cyan,cross
383.0,4.0,4.0,0,3.0,3.0,334.10501480100004,4.0,phase_1,,,,,,,,,,,,,magenta,diamond
199.0,3.0,2.0,1,3.0,3.0,384.01389122,4.0,phase_1,,,,,,,,,,,,,cyan,cross
186.0,7.0,2.0,0,4.0,4.0,383.688211441,4.0,phase_1,,,,,,,,,,,,,yellow,square
376.0,4.0,4.0,0,3.0,3.0,350.788116455,4.0,phase_1,,,,,,,,,,,,,magenta,diamond
179.0,7.0,2.0,0,3.0,3.0,300.72593689,4.0,phase_1,,,,,,,,,,,,,yellow,square
179.0,3.0,2.0,1,2.0,2.0,351.197004318,4.0,phase_1,,,,,,,,,,,,,cyan,cross
215.0,7.0,2.0,0,4.0,4.0,351.160049438,4.0,phase_1,,,,,,,,,,,,,yellow,square
222.0,3.0,2.0,1,3.0,3.0,384.16790962199997,4.0,phase_1,,,,,,,,,,,,,cyan,cross
0.0,5.0,0.0,1,1.0,1.0,417.98210143999995,4.0,phase_1,,,,,,,,,,,,,white,triangle
376.0,8.0,4.0,1,4.0,4.0,333.844184875,4.0,phase_1,,,,,,,,,,,,,gray,flipped triangle
0.0,3.0,0.0,1,4.0,4.0,301.061153412,4.0,phase_1,,,,,,,,,,,,,cyan,cross
0.0,1.0,0.0,0,4.0,4.0,317.43478775,4.0,phase_1,,,,,,,,,,,,,green,line
0.0,1.0,0.0,0,2.0,2.0,367.184877396,4.0,phase_1,,,,,,,,,,,,,green,line
79.0,2.0,1.0,0,1.0,1.0,300.95696449300004,4.0,phase_1,,,,,,,,,,,,,blue,circle
123.0,6.0,1.0,1,1.0,1.0,417.428016663,4.0,phase_1,,,,,,,,,,,,,orange,hexagon
124.0,6.0,1.0,1,2.0,2.0,367.819070816,4.0,phase_1,,,,,,,,,,,,,orange,hexagon
220.0,7.0,2.0,0,4.0,4.0,350.932121277,4.0,phase_1,,,,,,,,,,,,,yellow,square
0.0,5.0,0.0,1,4.0,4.0,400.87604522699996,4.0,phase_1,,,,,,,,,,,,,white,triangle
0.0,1.0,0.0,0,3.0,3.0,334.115982056,4.0,phase_1,,,,,,,,,,,,,green,line
400.0,4.0,4.0,0,3.0,3.0,367.966175079,4.0,phase_1,,,,,,,,,,,,,magenta,diamond
377.0,4.0,4.0,0,2.0,2.0,317.404985428,4.0,phase_1,,,,,,,,,,,,,magenta,diamond
110.0,6.0,1.0,1,3.0,3.0,400.575876236,4.0,phase_1,,,,,,,,,,,,,orange,hexagon
0.0,6.0,0.0,1,3.0,3.0,351.271152496,4.0,phase_1,,,,,,,,,,,,,orange,hexagon
48.0,5.0,0.5,1,2.0,2.0,317.658185959,4.0,phase_1,,,,,,,,,,,,,white,triangle
38.0,5.0,0.5,1,2.0,2.0,333.93216133100003,4.0,phase_1,,,,,,,,,,,,,white,triangle
86.0,6.0,1.0,1,3.0,3.0,350.878953934,4.0,phase_1,,,,,,,,,,,,,orange,hexagon
380.0,4.0,4.0,0,4.0,4.0,366.977214813,4.0,phase_1,,,,,,,,,,,,,magenta,diamond
375.0,4.0,4.0,0,1.0,1.0,451.74908638,4.0,phase_1,,,,,,,,,,,,,magenta,diamond
122.0,6.0,1.0,1,2.0,2.0,350.924015045,4.0,phase_1,,,,,,,,,,,,,orange,hexagon
424.0,4.0,4.0,0,3.0,3.0,350.825071335,4.0,phase_1,,,,,,,,,,,,,magenta,diamond
82.0,6.0,1.0,1,1.0,1.0,367.587089539,4.0,phase_1,,,,,,,,,,,,,orange,hexagon
224.0,7.0,2.0,0,1.0,1.0,317.50297546400003,4.0,phase_1,,,,,,,,,,,,,yellow,square
94.0,6.0,1.0,1,2.0,2.0,300.206899643,4.0,phase_1,,,,,,,,,,,,,orange,hexagon
0.0,3.0,0.0,1,1.0,1.0,417.834997177,4.0,phase_1,,,,,,,,,,,,,cyan,cross
182.0,3.0,2.0,1,3.0,3.0,317.991018295,4.0,phase_1,,,,,,,,,,,,,cyan,cross
0.0,2.0,0.0,0,2.0,2.0,301.166057587,4.0,phase_1,,,,,,,,,,,,,blue,circle
0.0,8.0,0.0,1,4.0,4.0,234.168052673,4.0,phase_1,,,,,,,,,,,,,gray,flipped triangle
409.0,4.0,4.0,0,2.0,2.0,284.15107727099996,4.0,phase_1,,,,,,,,,,,,,magenta,diamond
57.0,1.0,0.5,0,1.0,1.0,351.110935211,4.0,phase_1,,,,,,,,,,,,,green,line
0.0,6.0,0.0,1,3.0,3.0,351.764917374,4.0,phase_1,,,,,,,,,,,,,orange,hexagon
71.0,5.0,0.5,1,3.0,3.0,350.615978241,4.0,phase_1,,,,,,,,,,,,,white,triangle
380.0,4.0,4.0,0,4.0,4.0,367.120981216,4.0,phase_1,,,,,,,,,,,,,magenta,diamond
82.0,6.0,1.0,1,1.0,1.0,318.19796562199997,4.0,phase_1,,,,,,,,,,,,,orange,hexagon
0.0,1.0,0.0,0,4.0,4.0,367.392063141,4.0,phase_1,,,,,,,,,,,,,green,line
124.0,2.0,1.0,0,1.0,1.0,317.320108414,4.0,phase_1,,,,,,,,,,,,,blue,circle
29.0,1.0,0.5,0,4.0,4.0,300.608873367,4.0,phase_1,,,,,,,,,,,,,green,line
0.0,2.0,0.0,0,3.0,3.0,401.223182678,4.0,phase_1,,,,,,,,,,,,,blue,circle
422.0,8.0,4.0,1,3.0,3.0,384.09495353700004,4.0,phase_1,,,,,,,,,,,,,gray,flipped triangle
86.0,2.0,1.0,0,1.0,1.0,350.867986679,4.0,phase_1,,,,,,,,,,,,,blue,circle
60.0,1.0,0.5,0,2.0,2.0,351.052045822,4.0,phase_1,,,,,,,,,,,,,green,line
408.0,8.0,4.0,1,4.0,4.0,333.881139755,4.0,phase_1,,,,,,,,,,,,,gray,flipped triangle
195.0,3.0,2.0,1,3.0,3.0,383.970022202,4.0,phase_1,,,,,,,,,,,,,cyan,cross
86.0,2.0,1.0,0,3.0,3.0,367.286920547,4.0,phase_1,,,,,,,,,,,,,blue,circle
103.0,2.0,1.0,0,1.0,1.0,351.42493248,4.0,phase_1,,,,,,,,,,,,,blue,circle
0.0,4.0,0.0,0,2.0,2.0,283.80107879599996,4.0,phase_1,,,,,,,,,,,,,magenta,diamond
213.0,7.0,2.0,0,2.0,2.0,334.326028824,4.0,phase_1,,,,,,,,,,,,,yellow,square
48.0,5.0,0.5,1,4.0,4.0,334.41090583799996,4.0,phase_1,,,,,,,,,,,,,white,triangle
122.0,6.0,1.0,1,3.0,3.0,367.478847504,4.0,phase_1,,,,,,,,,,,,,orange,hexagon
185.0,7.0,2.0,0,4.0,4.0,367.73991584799995,4.0,phase_1,,,,,,,,,,,,,yellow,square
36.0,5.0,0.5,1,3.0,3.0,484.013795853,4.0,phase_1,,,,,,,,,,,,,white,triangle
0.0,7.0,0.0,0,2.0,2.0,267.107963562,4.0,phase_1,,,,,,,,,,,,,yellow,square
100.0,6.0,1.0,1,1.0,1.0,384.02104377700005,4.0,phase_1,,,,,,,,,,,,,orange,hexagon
41.0,1.0,0.5,0,1.0,1.0,384.64117050199997,4.0,phase_1,,,,,,,,,,,,,green,line
0.0,8.0,0.0,1,1.0,1.0,334.666013718,4.0,phase_1,,,,,,,,,,,,,gray,flipped triangle
83.0,2.0,1.0,0,2.0,2.0,317.552089691,4.0,phase_1,,,,,,,,,,,,,blue,circle
209.0,7.0,2.0,0,1.0,1.0,384.11688804600004,4.0,phase_1,,,,,,,,,,,,,yellow,square
62.0,5.0,0.5,1,2.0,2.0,317.01898574800003,4.0,phase_1,,,,,,,,,,,,,white,triangle
0.0,5.0,0.0,1,4.0,4.0,467.118024826,4.0,phase_1,,,,,,,,,,,,,white,triangle
48.0,1.0,0.5,0,2.0,2.0,317.10410118100003,4.0,phase_1,,,,,,,,,,,,,green,line
37.0,5.0,0.5,1,4.0,4.0,384.127140045,4.0,phase_1,,,,,,,,,,,,,white,triangle
125.0,2.0,1.0,0,1.0,1.0,400.40707588199996,4.0,phase_1,,,,,,,,,,,,,blue,circle
113.0,6.0,1.0,1,4.0,4.0,350.836038589,4.0,phase_1,,,,,,,,,,,,,orange,hexagon
222.0,3.0,2.0,1,2.0,2.0,384.837865829,4.0,phase_1,,,,,,,,,,,,,cyan,cross
185.0,3.0,2.0,1,2.0,2.0,434.720039368,4.0,phase_1,,,,,,,,,,,,,cyan,cross
52.0,5.0,0.5,1,4.0,4.0,367.660045624,4.0,phase_1,,,,,,,,,,,,,white,triangle
82.0,2.0,1.0,0,1.0,1.0,367.18606948900003,4.0,phase_1,,,,,,,,,,,,,blue,circle
46.0,1.0,0.5,0,4.0,4.0,384.330034256,4.0,phase_1,,,,,,,,,,,,,green,line
414.0,4.0,4.0,0,1.0,1.0,333.807945251,4.0,phase_1,,,,,,,,,,,,,magenta,diamond
412.0,4.0,4.0,0,2.0,2.0,301.16701126099997,4.0,phase_1,,,,,,,,,,,,,magenta,diamond
43.0,1.0,0.5,0,4.0,4.0,317.201852798,4.0,phase_1,,,,,,,,,,,,,green,line
67.0,1.0,0.5,0,3.0,3.0,384.468078613,4.0,phase_1,,,,,,,,,,,,,green,line
0.0,3.0,2.0,1,6.0,0.0,,1.0,phase_2,go,250.0,250.0,5.0,,,,,,,,,cyan,cross
0.0,1.0,0.5,0,6.0,6.0,584.7120285029999,1.0,phase_2,go,250.0,250.0,1.0,,,,,,,,,green,line
0.0,1.0,0.5,0,6.0,6.0,451.283216476,1.0,phase_2,go,250.0,250.0,1.0,,,,,,,,,green,line
0.0,5.0,0.5,1,6.0,6.0,484.452009201,1.0,phase_2,stop,250.0,250.0,3.0,,,,,,,,,white,triangle
0.0,3.0,2.0,1,6.0,0.0,,1.0,phase_2,stop,250.0,200.0,4.0,,,,,,,,,cyan,cross
0.0,3.0,2.0,1,5.0,5.0,284.185886383,1.0,phase_2,stop,250.0,200.0,3.0,,,,,,,,,cyan,cross
0.0,7.0,2.0,0,6.0,6.0,635.1830959319999,1.0,phase_2,go,250.0,200.0,1.0,,,,,,,,,yellow,square
0.0,3.0,2.0,1,6.0,0.0,,1.0,phase_2,stop,250.0,250.0,4.0,,,,,,,,,cyan,cross
0.0,7.0,2.0,0,5.0,5.0,367.509841919,1.0,phase_2,go,250.0,250.0,1.0,,,,,,,,,yellow,square
0.0,2.0,1.0,0,6.0,6.0,567.581176758,1.0,phase_2,go,250.0,250.0,1.0,,,,,,,,,blue,circle
0.0,1.0,0.5,0,6.0,6.0,584.228992462,1.0,phase_2,go,250.0,250.0,1.0,,,,,,,,,green,line
0.0,3.0,2.0,1,5.0,5.0,650.871038437,1.0,phase_2,go,250.0,250.0,1.0,,,,,,,,,cyan,cross
0.0,1.0,0.5,0,5.0,5.0,584.506988525,1.0,phase_2,go,250.0,250.0,1.0,,,,,,,,,green,line
0.0,7.0,2.0,0,5.0,5.0,550.899028778,1.0,phase_2,go,250.0,250.0,1.0,,,,,,,,,yellow,square
0.0,2.0,1.0,0,6.0,6.0,500.96321106,1.0,phase_2,go,250.0,250.0,1.0,,,,,,,,,blue,circle
0.0,1.0,0.5,0,6.0,6.0,551.285982132,1.0,phase_2,go,250.0,250.0,1.0,,,,,,,,,green,line
0.0,7.0,2.0,0,6.0,6.0,617.8719997410001,1.0,phase_2,go,250.0,250.0,1.0,,,,,,,,,yellow,square
0.0,2.0,1.0,0,5.0,5.0,550.759077072,1.0,phase_2,go,250.0,250.0,1.0,,,,,,,,,blue,circle
0.0,2.0,1.0,0,5.0,5.0,551.508188248,1.0,phase_2,go,250.0,250.0,1.0,,,,,,,,,blue,circle
0.0,8.0,4.0,1,5.0,5.0,451.161146164,1.0,phase_2,stop,200.0,250.0,3.0,,,,,,,,,gray,flipped triangle
0.0,5.0,0.5,1,5.0,0.0,,1.0,phase_2,stop,150.0,250.0,4.0,,,,,,,,,white,triangle
0.0,4.0,4.0,0,5.0,5.0,501.04093551600005,1.0,phase_2,go,150.0,250.0,1.0,,,,,,,,,magenta,diamond
0.0,6.0,1.0,1,5.0,0.0,,1.0,phase_2,stop,200.0,250.0,4.0,,,,,,,,,orange,hexagon
0.0,2.0,1.0,0,6.0,6.0,584.4259262080001,1.0,phase_2,go,200.0,250.0,1.0,,,,,,,,,blue,circle
0.0,3.0,2.0,1,5.0,0.0,,1.0,phase_2,stop,250.0,250.0,4.0,,,,,,,,,cyan,cross
0.0,2.0,1.0,0,6.0,6.0,534.071922302,1.0,phase_2,go,250.0,250.0,1.0,,,,,,,,,blue,circle
0.0,4.0,4.0,0,6.0,6.0,667.762994766,1.0,phase_2,go,250.0,250.0,1.0,,,,,,,,,magenta,diamond
0.0,8.0,4.0,1,6.0,0.0,,1.0,phase_2,stop,250.0,300.0,4.0,,,,,,,,,gray,flipped triangle
0.0,4.0,4.0,0,6.0,6.0,617.614984512,1.0,phase_2,go,250.0,300.0,1.0,,,,,,,,,magenta,diamond
0.0,4.0,4.0,0,5.0,5.0,533.89787674,1.0,phase_2,go,250.0,300.0,1.0,,,,,,,,,magenta,diamond
0.0,2.0,1.0,0,5.0,5.0,517.503976822,1.0,phase_2,go,250.0,300.0,1.0,,,,,,,,,blue,circle
0.0,8.0,4.0,1,6.0,6.0,568.006038666,1.0,phase_2,go,250.0,300.0,1.0,,,,,,,,,gray,flipped triangle
0.0,6.0,1.0,1,5.0,5.0,518.008947372,1.0,phase_2,go,250.0,300.0,1.0,,,,,,,,,orange,hexagon
0.0,8.0,4.0,1,5.0,0.0,,1.0,phase_2,stop,300.0,300.0,4.0,,,,,,,,,gray,flipped triangle
0.0,2.0,1.0,0,5.0,5.0,534.80219841,1.0,phase_2,go,300.0,300.0,1.0,,,,,,,,,blue,circle
0.0,2.0,1.0,0,5.0,5.0,634.074926376,1.0,phase_2,go,300.0,300.0,1.0,,,,,,,,,blue,circle
0.0,4.0,4.0,0,5.0,5.0,451.178073883,2.0,phase_2,go,300.0,300.0,1.0,,,,,,,,,magenta,diamond
0.0,3.0,2.0,1,5.0,5.0,467.089891434,2.0,phase_2,go,300.0,300.0,1.0,,,,,,,,,cyan,cross
0.0,5.0,0.5,1,5.0,0.0,,2.0,phase_2,stop,350.0,300.0,4.0,,,,,,,,,white,triangle
0.0,7.0,2.0,0,6.0,6.0,467.41509437599996,2.0,phase_2,go,350.0,300.0,1.0,,,,,,,,,yellow,square
0.0,5.0,0.5,1,5.0,5.0,617.5689697270001,2.0,phase_2,go,350.0,300.0,1.0,,,,,,,,,white,triangle
0.0,1.0,0.5,0,6.0,6.0,533.817052841,2.0,phase_2,go,350.0,300.0,1.0,,,,,,,,,green,line
0.0,2.0,1.0,0,6.0,6.0,450.968027115,2.0,phase_2,go,350.0,300.0,1.0,,,,,,,,,blue,circle
0.0,6.0,1.0,1,5.0,5.0,501.26004219099997,2.0,phase_2,stop,400.0,300.0,3.0,,,,,,,,,orange,hexagon
0.0,6.0,1.0,1,6.0,0.0,,2.0,phase_2,stop,400.0,350.0,4.0,,,,,,,,,orange,hexagon
0.0,6.0,1.0,1,5.0,0.0,,2.0,phase_2,stop,350.0,350.0,4.0,,,,,,,,,orange,hexagon
0.0,5.0,0.5,1,6.0,0.0,,2.0,phase_2,stop,350.0,400.0,4.0,,,,,,,,,white,triangle
0.0,5.0,0.5,1,6.0,0.0,,2.0,phase_2,stop,350.0,450.0,4.0,,,,,,,,,white,triangle
0.0,3.0,2.0,1,6.0,0.0,,2.0,phase_2,stop,350.0,500.0,4.0,,,,,,,,,cyan,cross
0.0,1.0,0.5,0,6.0,6.0,634.37795639,2.0,phase_2,go,350.0,500.0,1.0,,,,,,,,,green,line
0.0,3.0,2.0,1,6.0,6.0,684.280872345,2.0,phase_2,stop,350.0,550.0,3.0,,,,,,,,,cyan,cross
0.0,6.0,1.0,1,6.0,0.0,,2.0,phase_2,stop,350.0,500.0,4.0,,,,,,,,,orange,hexagon
0.0,7.0,2.0,0,5.0,5.0,667.6609516139999,2.0,phase_2,go,350.0,500.0,1.0,,,,,,,,,yellow,square
0.0,6.0,1.0,1,5.0,0.0,,2.0,phase_2,stop,400.0,500.0,4.0,,,,,,,,,orange,hexagon
0.0,8.0,4.0,1,5.0,0.0,,2.0,phase_2,stop,450.0,500.0,4.0,,,,,,,,,gray,flipped triangle
0.0,1.0,0.5,0,6.0,6.0,617.475986481,2.0,phase_2,go,450.0,500.0,1.0,,,,,,,,,green,line
0.0,4.0,4.0,0,5.0,5.0,767.426013947,2.0,phase_2,go,450.0,500.0,1.0,,,,,,,,,magenta,diamond
0.0,4.0,4.0,0,6.0,6.0,867.7899837489999,2.0,phase_2,go,450.0,500.0,1.0,,,,,,,,,magenta,diamond
0.0,5.0,0.5,1,5.0,0.0,,2.0,phase_2,stop,500.0,500.0,4.0,,,,,,,,,white,triangle
0.0,7.0,2.0,0,6.0,6.0,785.03704071,2.0,phase_2,go,500.0,500.0,1.0,,,,,,,,,yellow,square
0.0,8.0,4.0,1,6.0,0.0,,2.0,phase_2,stop,500.0,550.0,4.0,,,,,,,,,gray,flipped triangle
0.0,5.0,0.5,1,5.0,5.0,633.895158768,2.0,phase_2,go,500.0,550.0,1.0,,,,,,,,,white,triangle
0.0,2.0,1.0,0,6.0,6.0,768.104076385,2.0,phase_2,go,500.0,550.0,1.0,,,,,,,,,blue,circle
0.0,5.0,0.5,1,5.0,5.0,701.402902603,2.0,phase_2,stop,550.0,550.0,3.0,,,,,,,,,white,triangle
0.0,2.0,1.0,0,5.0,5.0,784.436941147,2.0,phase_2,go,550.0,550.0,1.0,,,,,,,,,blue,circle
0.0,2.0,1.0,0,6.0,6.0,701.349973679,2.0,phase_2,go,550.0,550.0,1.0,,,,,,,,,blue,circle
0.0,1.0,0.5,0,5.0,5.0,784.530878067,2.0,phase_2,go,550.0,550.0,1.0,,,,,,,,,green,line
0.0,7.0,2.0,0,6.0,6.0,751.125097275,2.0,phase_2,go,550.0,550.0,1.0,,,,,,,,,yellow,square
0.0,8.0,4.0,1,5.0,0.0,,2.0,phase_2,stop,500.0,550.0,4.0,,,,,,,,,gray,flipped triangle
0.0,8.0,4.0,1,5.0,5.0,717.517852783,2.0,phase_2,stop,550.0,550.0,3.0,,,,,,,,,gray,flipped triangle
0.0,4.0,4.0,0,5.0,5.0,767.661809921,2.0,phase_2,go,550.0,550.0,1.0,,,,,,,,,magenta,diamond
0.0,4.0,4.0,0,6.0,6.0,834.7270488739999,2.0,phase_2,go,550.0,550.0,1.0,,,,,,,,,magenta,diamond
0.0,8.0,4.0,1,5.0,5.0,584.439992905,3.0,phase_2,stop,500.0,550.0,3.0,,,,,,,,,gray,flipped triangle
0.0,4.0,4.0,0,5.0,5.0,600.454807281,3.0,phase_2,go,500.0,550.0,1.0,,,,,,,,,magenta,diamond
0.0,1.0,0.5,0,6.0,6.0,467.95201301599997,3.0,phase_2,go,500.0,550.0,1.0,,,,,,,,,green,line
0.0,4.0,4.0,0,6.0,6.0,401.166915894,3.0,phase_2,go,500.0,550.0,1.0,,,,,,,,,magenta,diamond
0.0,6.0,1.0,1,6.0,6.0,650.997161865,3.0,phase_2,stop,500.0,600.0,3.0,,,,,,,,,orange,hexagon
0.0,7.0,2.0,0,5.0,5.0,734.246015549,3.0,phase_2,go,500.0,600.0,1.0,,,,,,,,,yellow,square
0.0,6.0,1.0,1,5.0,0.0,,3.0,phase_2,stop,450.0,600.0,4.0,,,,,,,,,orange,hexagon
0.0,6.0,1.0,1,6.0,6.0,684.538125992,3.0,phase_2,go,450.0,600.0,1.0,,,,,,,,,orange,hexagon
0.0,8.0,4.0,1,5.0,5.0,684.677839279,3.0,phase_2,stop,500.0,600.0,3.0,,,,,,,,,gray,flipped triangle
0.0,6.0,1.0,1,5.0,5.0,751.603841782,3.0,phase_2,go,500.0,600.0,1.0,,,,,,,,,orange,hexagon
0.0,6.0,1.0,1,6.0,0.0,,3.0,phase_2,stop,500.0,550.0,4.0,,,,,,,,,orange,hexagon
0.0,7.0,2.0,0,6.0,6.0,634.903907776,3.0,phase_2,go,500.0,550.0,1.0,,,,,,,,,yellow,square
0.0,3.0,2.0,1,6.0,6.0,801.1500835420001,3.0,phase_2,stop,500.0,600.0,3.0,,,,,,,,,cyan,cross
0.0,7.0,2.0,0,6.0,6.0,734.164953232,3.0,phase_2,go,500.0,600.0,1.0,,,,,,,,,yellow,square
0.0,1.0,0.5,0,5.0,5.0,734.891176224,3.0,phase_2,go,500.0,600.0,1.0,,,,,,,,,green,line
0.0,8.0,4.0,1,6.0,6.0,484.428882599,3.0,phase_2,stop,500.0,550.0,3.0,,,,,,,,,gray,flipped triangle
0.0,6.0,1.0,1,5.0,5.0,317.536115646,3.0,phase_2,stop,450.0,550.0,3.0,,,,,,,,,orange,hexagon
0.0,1.0,0.5,0,5.0,5.0,484.76099968000005,3.0,phase_2,go,450.0,550.0,1.0,,,,,,,,,green,line
0.0,8.0,4.0,1,5.0,5.0,567.2881603239999,3.0,phase_2,go,450.0,550.0,1.0,,,,,,,,,gray,flipped triangle
0.0,5.0,0.5,1,5.0,0.0,,3.0,phase_2,stop,400.0,550.0,4.0,,,,,,,,,white,triangle
0.0,1.0,0.5,0,6.0,6.0,751.163005829,3.0,phase_2,go,400.0,550.0,1.0,,,,,,,,,green,line
0.0,5.0,0.5,1,6.0,0.0,,3.0,phase_2,stop,400.0,500.0,4.0,,,,,,,,,white,triangle
0.0,4.0,4.0,0,5.0,5.0,467.904090881,3.0,phase_2,go,400.0,500.0,1.0,,,,,,,,,magenta,diamond
0.0,5.0,0.5,1,5.0,5.0,918.441057205,3.0,phase_2,go,400.0,500.0,1.0,,,,,,,,,white,triangle
0.0,3.0,2.0,1,5.0,5.0,601.327896118,3.0,phase_2,stop,450.0,500.0,3.0,,,,,,,,,cyan,cross
0.0,7.0,2.0,0,6.0,6.0,751.078128815,3.0,phase_2,go,450.0,500.0,1.0,,,,,,,,,yellow,square
0.0,7.0,2.0,0,6.0,6.0,818.403959274,3.0,phase_2,go,450.0,500.0,1.0,,,,,,,,,yellow,square
0.0,7.0,2.0,0,5.0,5.0,817.663192749,3.0,phase_2,go,450.0,500.0,1.0,,,,,,,,,yellow,square
0.0,6.0,1.0,1,5.0,5.0,450.630903244,3.0,phase_2,stop,400.0,500.0,3.0,,,,,,,,,orange,hexagon
0.0,1.0,0.5,0,6.0,6.0,301.11885070799997,3.0,phase_2,go,400.0,500.0,1.0,,,,,,,,,green,line
0.0,8.0,4.0,1,5.0,5.0,383.688926697,3.0,phase_2,stop,350.0,500.0,3.0,,,,,,,,,gray,flipped triangle
0.0,5.0,0.5,1,6.0,6.0,351.096868515,3.0,phase_2,stop,350.0,550.0,3.0,,,,,,,,,white,triangle
0.0,5.0,0.5,1,5.0,5.0,284.63196754499995,3.0,phase_2,stop,300.0,550.0,3.0,,,,,,,,,white,triangle
0.0,8.0,4.0,1,6.0,6.0,400.424003601,3.0,phase_2,stop,300.0,500.0,3.0,,,,,,,,,gray,flipped triangle
0.0,7.0,2.0,0,6.0,6.0,667.992830276,3.0,phase_2,go,300.0,500.0,1.0,,,,,,,,,yellow,square
0.0,7.0,2.0,0,6.0,6.0,434.07797813400003,3.0,phase_2,go,300.0,500.0,1.0,,,,,,,,,yellow,square
0.0,6.0,1.0,1,5.0,5.0,417.583942413,4.0,phase_2,go,300.0,500.0,1.0,,,,,,,,,orange,hexagon
0.0,1.0,0.5,0,5.0,5.0,434.437990189,4.0,phase_2,go,300.0,500.0,1.0,,,,,,,,,green,line
0.0,8.0,4.0,1,6.0,0.0,,4.0,phase_2,stop,300.0,450.0,4.0,,,,,,,,,gray,flipped triangle
0.0,7.0,2.0,0,6.0,6.0,700.963973999,4.0,phase_2,go,300.0,450.0,1.0,,,,,,,,,yellow,square
0.0,8.0,4.0,1,6.0,0.0,,4.0,phase_2,stop,300.0,500.0,4.0,,,,,,,,,gray,flipped triangle
0.0,8.0,4.0,1,5.0,0.0,,4.0,phase_2,stop,250.0,500.0,4.0,,,,,,,,,gray,flipped triangle
0.0,7.0,2.0,0,5.0,5.0,467.36502647400005,4.0,phase_2,go,250.0,500.0,1.0,,,,,,,,,yellow,square
0.0,1.0,0.5,0,5.0,5.0,534.863948822,4.0,phase_2,go,250.0,500.0,1.0,,,,,,,,,green,line
0.0,8.0,4.0,1,5.0,0.0,,4.0,phase_2,stop,300.0,500.0,4.0,,,,,,,,,gray,flipped triangle
0.0,7.0,2.0,0,5.0,5.0,583.89210701,4.0,phase_2,go,300.0,500.0,1.0,,,,,,,,,yellow,square
0.0,4.0,4.0,0,6.0,6.0,851.280927658,4.0,phase_2,go,300.0,500.0,1.0,,,,,,,,,magenta,diamond
0.0,2.0,1.0,0,6.0,6.0,817.343950272,4.0,phase_2,go,300.0,500.0,1.0,,,,,,,,,blue,circle
0.0,2.0,1.0,0,5.0,5.0,650.885820389,4.0,phase_2,go,300.0,500.0,1.0,,,,,,,,,blue,circle
0.0,3.0,2.0,1,6.0,6.0,600.969076157,4.0,phase_2,go,300.0,500.0,1.0,,,,,,,,,cyan,cross
0.0,8.0,4.0,1,6.0,6.0,801.03302002,4.0,phase_2,go,300.0,500.0,1.0,,,,,,,,,gray,flipped triangle
0.0,5.0,0.5,1,6.0,6.0,650.9180068969999,4.0,phase_2,stop,300.0,550.0,3.0,,,,,,,,,white,triangle
0.0,2.0,1.0,0,6.0,6.0,617.340803146,4.0,phase_2,go,300.0,550.0,1.0,,,,,,,,,blue,circle
0.0,2.0,1.0,0,6.0,6.0,818.064212799,4.0,phase_2,go,300.0,550.0,1.0,,,,,,,,,blue,circle
0.0,5.0,0.5,1,5.0,0.0,,4.0,phase_2,stop,350.0,550.0,4.0,,,,,,,,,white,triangle
0.0,4.0,4.0,0,6.0,6.0,484.035968781,4.0,phase_2,go,350.0,550.0,1.0,,,,,,,,,magenta,diamond
0.0,5.0,0.5,1,5.0,5.0,517.430067062,4.0,phase_2,stop,400.0,550.0,3.0,,,,,,,,,white,triangle
0.0,4.0,4.0,0,5.0,5.0,733.732938766,4.0,phase_2,go,400.0,550.0,1.0,,,,,,,,,magenta,diamond
0.0,1.0,0.5,0,6.0,6.0,517.5549983980001,4.0,phase_2,go,400.0,550.0,1.0,,,,,,,,,green,line
0.0,6.0,1.0,1,5.0,5.0,517.686128616,4.0,phase_2,stop,350.0,550.0,3.0,,,,,,,,,orange,hexagon
0.0,5.0,0.5,1,6.0,0.0,,4.0,phase_2,stop,350.0,500.0,4.0,,,,,,,,,white,triangle
0.0,4.0,4.0,0,6.0,6.0,750.837087631,4.0,phase_2,go,350.0,500.0,1.0,,,,,,,,,magenta,diamond
0.0,7.0,2.0,0,6.0,6.0,834.317922592,4.0,phase_2,go,350.0,500.0,1.0,,,,,,,,,yellow,square
0.0,3.0,2.0,1,5.0,0.0,,4.0,phase_2,stop,300.0,500.0,4.0,,,,,,,,,cyan,cross
0.0,5.0,0.5,1,6.0,6.0,550.9700775150001,4.0,phase_2,go,300.0,500.0,1.0,,,,,,,,,white,triangle
0.0,4.0,4.0,0,5.0,5.0,718.106031418,4.0,phase_2,go,300.0,500.0,1.0,,,,,,,,,magenta,diamond
0.0,2.0,1.0,0,6.0,6.0,584.012985229,4.0,phase_2,go,300.0,500.0,1.0,,,,,,,,,blue,circle
0.0,1.0,0.5,0,5.0,5.0,834.985971451,4.0,phase_2,go,300.0,500.0,1.0,,,,,,,,,green,line
0.0,6.0,1.0,1,5.0,0.0,,4.0,phase_2,stop,350.0,500.0,4.0,,,,,,,,,orange,hexagon
0.0,4.0,4.0,0,5.0,5.0,717.849969864,4.0,phase_2,go,350.0,500.0,1.0,,,,,,,,,magenta,diamond
0.0,3.0,2.0,1,5.0,5.0,750.5979537960001,4.0,phase_2,go,350.0,500.0,1.0,,,,,,,,,cyan,cross
0.0,5.0,0.5,1,6.0,6.0,817.939996719,4.0,phase_2,go,350.0,500.0,1.0,,,,,,,,,white,triangle
0.0,8.0,4.0,1,6.0,6.0,417.620182037,5.0,phase_2,stop,350.0,550.0,3.0,,,,,,,,,gray,flipped triangle
0.0,7.0,2.0,0,5.0,5.0,484.407186508,5.0,phase_2,go,350.0,550.0,1.0,,,,,,,,,yellow,square
0.0,7.0,2.0,0,5.0,5.0,484.38501358,5.0,phase_2,go,350.0,550.0,1.0,,,,,,,,,yellow,square
0.0,5.0,0.5,1,6.0,6.0,584.1679573060001,5.0,phase_2,go,350.0,550.0,1.0,,,,,,,,,white,triangle
0.0,8.0,4.0,1,5.0,5.0,601.1509895319999,5.0,phase_2,stop,400.0,550.0,3.0,,,,,,,,,gray,flipped triangle
0.0,2.0,1.0,0,5.0,5.0,468.050956726,5.0,phase_2,go,400.0,550.0,1.0,,,,,,,,,blue,circle
0.0,5.0,0.5,1,5.0,5.0,518.453121185,5.0,phase_2,stop,350.0,550.0,3.0,,,,,,,,,white,triangle
0.0,3.0,2.0,1,6.0,6.0,384.130001068,5.0,phase_2,stop,350.0,500.0,3.0,,,,,,,,,cyan,cross
0.0,1.0,0.5,0,5.0,5.0,367.363929749,5.0,phase_2,go,350.0,500.0,1.0,,,,,,,,,green,line
0.0,4.0,4.0,0,6.0,6.0,517.6138877870001,5.0,phase_2,go,350.0,500.0,1.0,,,,,,,,,magenta,diamond
0.0,4.0,4.0,0,5.0,5.0,567.5270557399999,5.0,phase_2,go,350.0,500.0,1.0,,,,,,,,,magenta,diamond
0.0,5.0,0.5,1,6.0,6.0,534.442901611,5.0,phase_2,stop,350.0,450.0,3.0,,,,,,,,,white,triangle
0.0,3.0,2.0,1,6.0,6.0,501.08599662800003,5.0,phase_2,stop,350.0,400.0,3.0,,,,,,,,,cyan,cross
0.0,3.0,2.0,1,6.0,6.0,634.48381424,5.0,phase_2,go,350.0,400.0,1.0,,,,,,,,,cyan,cross
0.0,6.0,1.0,1,6.0,6.0,434.10301208500005,5.0,phase_2,stop,350.0,350.0,3.0,,,,,,,,,orange,hexagon
0.0,2.0,1.0,0,5.0,5.0,668.119907379,5.0,phase_2,go,350.0,350.0,1.0,,,,,,,,,blue,circle
0.0,6.0,1.0,1,6.0,0.0,,5.0,phase_2,stop,350.0,300.0,4.0,,,,,,,,,orange,hexagon
0.0,4.0,4.0,0,5.0,5.0,584.3508243560001,5.0,phase_2,go,350.0,300.0,1.0,,,,,,,,,magenta,diamond
0.0,7.0,2.0,0,5.0,5.0,735.133886337,5.0,phase_2,go,350.0,300.0,1.0,,,,,,,,,yellow,square
0.0,6.0,1.0,1,6.0,6.0,484.40909385699996,5.0,phase_2,stop,350.0,350.0,3.0,,,,,,,,,orange,hexagon
0.0,1.0,0.5,0,6.0,6.0,617.120027542,5.0,phase_2,go,350.0,350.0,1.0,,,,,,,,,green,line
0.0,3.0,2.0,1,6.0,6.0,451.27415656999995,5.0,phase_2,stop,350.0,300.0,3.0,,,,,,,,,cyan,cross
0.0,8.0,4.0,1,5.0,5.0,484.317064285,5.0,phase_2,stop,300.0,300.0,3.0,,,,,,,,,gray,flipped triangle
0.0,1.0,0.5,0,6.0,6.0,584.779024124,5.0,phase_2,go,300.0,300.0,1.0,,,,,,,,,green,line
0.0,6.0,1.0,1,5.0,0.0,,5.0,phase_2,stop,250.0,300.0,4.0,,,,,,,,,orange,hexagon
0.0,8.0,4.0,1,5.0,5.0,518.138170242,5.0,phase_2,go,250.0,300.0,1.0,,,,,,,,,gray,flipped triangle
0.0,4.0,4.0,0,5.0,5.0,517.4620151519999,5.0,phase_2,go,250.0,300.0,1.0,,,,,,,,,magenta,diamond
0.0,5.0,0.5,1,5.0,0.0,,5.0,phase_2,stop,300.0,300.0,4.0,,,,,,,,,white,triangle
0.0,5.0,0.5,1,6.0,0.0,,5.0,phase_2,stop,300.0,250.0,4.0,,,,,,,,,white,triangle
0.0,7.0,2.0,0,6.0,6.0,651.4518260960001,5.0,phase_2,go,300.0,250.0,1.0,,,,,,,,,yellow,square
0.0,6.0,1.0,1,5.0,0.0,,5.0,phase_2,stop,350.0,250.0,4.0,,,,,,,,,orange,hexagon
0.0,4.0,4.0,0,6.0,6.0,668.0219173429999,5.0,phase_2,go,350.0,250.0,1.0,,,,,,,,,magenta,diamond
0.0,3.0,2.0,1,5.0,0.0,,5.0,phase_2,stop,400.0,250.0,4.0,,,,,,,,,cyan,cross
0.0,8.0,4.0,1,6.0,6.0,734.816074371,5.0,phase_2,go,400.0,250.0,1.0,,,,,,,,,gray,flipped triangle
0.0,4.0,4.0,0,5.0,5.0,734.124183655,5.0,phase_2,go,400.0,250.0,1.0,,,,,,,,,magenta,diamond
0.0,2.0,1.0,0,6.0,6.0,684.145212173,5.0,phase_2,go,400.0,250.0,1.0,,,,,,,,,blue,circle
0.0,3.0,2.0,1,6.0,6.0,467.980146408,6.0,phase_2,stop,400.0,300.0,3.0,,,,,,,,,cyan,cross
0.0,5.0,0.5,1,5.0,5.0,501.076936722,6.0,phase_2,stop,450.0,300.0,3.0,,,,,,,,,white,triangle
0.0,3.0,2.0,1,6.0,0.0,,6.0,phase_2,stop,450.0,250.0,4.0,,,,,,,,,cyan,cross
0.0,8.0,4.0,1,5.0,5.0,434.054136276,6.0,phase_2,stop,400.0,250.0,3.0,,,,,,,,,gray,flipped triangle
0.0,1.0,0.5,0,5.0,5.0,584.115982056,6.0,phase_2,go,400.0,250.0,1.0,,,,,,,,,green,line
0.0,2.0,1.0,0,5.0,5.0,550.227880478,6.0,phase_2,go,400.0,250.0,1.0,,,,,,,,,blue,circle
0.0,8.0,4.0,1,5.0,0.0,,6.0,phase_2,stop,350.0,250.0,4.0,,,,,,,,,gray,flipped triangle
0.0,6.0,1.0,1,6.0,0.0,,6.0,phase_2,stop,350.0,300.0,4.0,,,,,,,,,orange,hexagon
0.0,8.0,4.0,1,5.0,5.0,383.92090797400004,6.0,phase_2,stop,400.0,300.0,3.0,,,,,,,,,gray,flipped triangle
0.0,7.0,2.0,0,5.0,5.0,501.07598304699997,6.0,phase_2,go,400.0,300.0,1.0,,,,,,,,,yellow,square
0.0,5.0,0.5,1,5.0,5.0,534.306049347,6.0,phase_2,go,400.0,300.0,1.0,,,,,,,,,white,triangle
0.0,4.0,4.0,0,6.0,6.0,634.821891785,6.0,phase_2,go,400.0,300.0,1.0,,,,,,,,,magenta,diamond
0.0,6.0,1.0,1,6.0,6.0,500.43797493,6.0,phase_2,stop,400.0,350.0,3.0,,,,,,,,,orange,hexagon
0.0,2.0,1.0,0,5.0,5.0,618.068933487,6.0,phase_2,go,400.0,350.0,1.0,,,,,,,,,blue,circle
0.0,8.0,4.0,1,5.0,5.0,451.031208038,6.0,phase_2,stop,350.0,350.0,3.0,,,,,,,,,gray,flipped triangle
0.0,7.0,2.0,0,6.0,6.0,734.7362041470001,6.0,phase_2,go,350.0,350.0,1.0,,,,,,,,,yellow,square
0.0,8.0,4.0,1,5.0,0.0,,6.0,phase_2,stop,300.0,350.0,4.0,,,,,,,,,gray,flipped triangle
0.0,7.0,2.0,0,5.0,5.0,717.761993408,6.0,phase_2,go,300.0,350.0,1.0,,,,,,,,,yellow,square
0.0,3.0,2.0,1,6.0,0.0,,6.0,phase_2,stop,300.0,300.0,4.0,,,,,,,,,cyan,cross
0.0,3.0,2.0,1,6.0,0.0,,6.0,phase_2,stop,300.0,350.0,4.0,,,,,,,,,cyan,cross
0.0,8.0,4.0,1,6.0,6.0,501.48296356199995,6.0,phase_2,go,300.0,350.0,1.0,,,,,,,,,gray,flipped triangle
0.0,5.0,0.5,1,6.0,0.0,,6.0,phase_2,stop,300.0,400.0,4.0,,,,,,,,,white,triangle
0.0,2.0,1.0,0,5.0,5.0,568.0730342859999,6.0,phase_2,go,300.0,400.0,1.0,,,,,,,,,blue,circle
0.0,4.0,4.0,0,5.0,5.0,501.28293037399993,6.0,phase_2,go,300.0,400.0,1.0,,,,,,,,,magenta,diamond
0.0,6.0,1.0,1,6.0,6.0,634.278059006,6.0,phase_2,stop,300.0,450.0,3.0,,,,,,,,,orange,hexagon
0.0,6.0,1.0,1,6.0,0.0,,6.0,phase_2,stop,300.0,400.0,4.0,,,,,,,,,orange,hexagon
0.0,3.0,2.0,1,6.0,6.0,634.2530250550001,6.0,phase_2,go,300.0,400.0,1.0,,,,,,,,,cyan,cross
0.0,1.0,0.5,0,5.0,5.0,684.048891068,6.0,phase_2,go,300.0,400.0,1.0,,,,,,,,,green,line
0.0,2.0,1.0,0,6.0,6.0,651.120901108,6.0,phase_2,go,300.0,400.0,1.0,,,,,,,,,blue,circle
0.0,4.0,4.0,0,5.0,5.0,583.986997604,6.0,phase_2,go,300.0,400.0,1.0,,,,,,,,,magenta,diamond
0.0,2.0,1.0,0,5.0,5.0,718.1830406189999,6.0,phase_2,go,300.0,400.0,1.0,,,,,,,,,blue,circle
0.0,2.0,1.0,0,5.0,5.0,517.669200897,6.0,phase_2,go,300.0,400.0,1.0,,,,,,,,,blue,circle
0.0,2.0,1.0,0,6.0,6.0,717.696905136,6.0,phase_2,go,300.0,400.0,1.0,,,,,,,,,blue,circle
0.0,1.0,0.5,0,6.0,6.0,667.3431396479999,6.0,phase_2,go,300.0,400.0,1.0,,,,,,,,,green,line
0.0,1.0,0.5,0,6.0,6.0,801.404953003,6.0,phase_2,go,300.0,400.0,1.0,,,,,,,,,green,line
0.0,6.0,1.0,1,6.0,6.0,567.677021027,6.0,phase_2,stop,300.0,450.0,3.0,,,,,,,,,orange,hexagon
0.0,2.0,1.0,0,5.0,5.0,367.651224136,7.0,phase_2,go,300.0,450.0,1.0,,,,,,,,,blue,circle
0.0,2.0,1.0,0,6.0,6.0,367.490053177,7.0,phase_2,go,300.0,450.0,1.0,,,,,,,,,blue,circle
0.0,3.0,2.0,1,5.0,5.0,518.112897873,7.0,phase_2,stop,350.0,450.0,3.0,,,,,,,,,cyan,cross
0.0,5.0,0.5,1,6.0,6.0,583.7430953979999,7.0,phase_2,go,350.0,450.0,1.0,,,,,,,,,white,triangle
0.0,6.0,1.0,1,5.0,0.0,,7.0,phase_2,stop,300.0,450.0,4.0,,,,,,,,,orange,hexagon
0.0,8.0,4.0,1,5.0,0.0,,7.0,phase_2,stop,350.0,450.0,4.0,,,,,,,,,gray,flipped triangle
0.0,5.0,0.5,1,6.0,6.0,517.4050331120001,7.0,phase_2,stop,350.0,400.0,3.0,,,,,,,,,white,triangle
0.0,5.0,0.5,1,5.0,5.0,467.102050781,7.0,phase_2,stop,400.0,400.0,3.0,,,,,,,,,white,triangle
0.0,7.0,2.0,0,6.0,6.0,567.7700042719999,7.0,phase_2,go,400.0,400.0,1.0,,,,,,,,,yellow,square
0.0,8.0,4.0,1,6.0,6.0,734.699010849,7.0,phase_2,go,400.0,400.0,1.0,,,,,,,,,gray,flipped triangle
0.0,8.0,4.0,1,5.0,5.0,551.1898994449999,7.0,phase_2,go,400.0,400.0,1.0,,,,,,,,,gray,flipped triangle
0.0,3.0,2.0,1,5.0,0.0,,7.0,phase_2,stop,350.0,400.0,4.0,,,,,,,,,cyan,cross
0.0,4.0,4.0,0,5.0,5.0,601.261854172,7.0,phase_2,go,350.0,400.0,1.0,,,,,,,,,magenta,diamond
0.0,6.0,1.0,1,6.0,0.0,,7.0,phase_2,stop,350.0,350.0,4.0,,,,,,,,,orange,hexagon
0.0,3.0,2.0,1,6.0,0.0,,7.0,phase_2,stop,350.0,400.0,4.0,,,,,,,,,cyan,cross
0.0,3.0,2.0,1,6.0,0.0,,7.0,phase_2,stop,350.0,450.0,4.0,,,,,,,,,cyan,cross
0.0,1.0,0.5,0,6.0,6.0,834.779024124,7.0,phase_2,go,350.0,450.0,1.0,,,,,,,,,green,line
0.0,4.0,4.0,0,6.0,6.0,651.746034622,7.0,phase_2,go,350.0,450.0,1.0,,,,,,,,,magenta,diamond
0.0,2.0,1.0,0,5.0,5.0,718.025922775,7.0,phase_2,go,350.0,450.0,1.0,,,,,,,,,blue,circle
0.0,2.0,1.0,0,6.0,6.0,367.45095253,7.0,phase_2,go,350.0,450.0,1.0,,,,,,,,,blue,circle
0.0,2.0,1.0,0,5.0,5.0,501.401901245,7.0,phase_2,go,350.0,450.0,1.0,,,,,,,,,blue,circle
0.0,4.0,4.0,0,5.0,5.0,617.666959763,7.0,phase_2,go,350.0,450.0,1.0,,,,,,,,,magenta,diamond
0.0,7.0,2.0,0,6.0,6.0,718.027114868,7.0,phase_2,go,350.0,450.0,1.0,,,,,,,,,yellow,square
0.0,7.0,2.0,0,5.0,5.0,550.90212822,7.0,phase_2,go,350.0,450.0,1.0,,,,,,,,,yellow,square
0.0,3.0,2.0,1,5.0,5.0,567.6379203800001,7.0,phase_2,go,350.0,450.0,1.0,,,,,,,,,cyan,cross
0.0,1.0,0.5,0,5.0,5.0,517.7381038670001,7.0,phase_2,go,350.0,450.0,1.0,,,,,,,,,green,line
0.0,8.0,4.0,1,6.0,6.0,701.186180115,7.0,phase_2,stop,350.0,500.0,3.0,,,,,,,,,gray,flipped triangle
0.0,1.0,0.5,0,5.0,5.0,634.1781616210001,7.0,phase_2,go,350.0,500.0,1.0,,,,,,,,,green,line
0.0,1.0,0.5,0,5.0,5.0,601.7611026760001,7.0,phase_2,go,350.0,500.0,1.0,,,,,,,,,green,line
0.0,5.0,0.5,1,5.0,0.0,,7.0,phase_2,stop,400.0,500.0,4.0,,,,,,,,,white,triangle
0.0,1.0,0.5,0,6.0,6.0,584.129810333,7.0,phase_2,go,400.0,500.0,1.0,,,,,,,,,green,line
0.0,7.0,2.0,0,5.0,5.0,784.328222275,7.0,phase_2,go,400.0,500.0,1.0,,,,,,,,,yellow,square
0.0,4.0,4.0,0,6.0,6.0,734.597921371,7.0,phase_2,go,400.0,500.0,1.0,,,,,,,,,magenta,diamond
0.0,1.0,0.5,0,6.0,6.0,400.704860687,7.0,phase_2,go,400.0,500.0,1.0,,,,,,,,,green,line
0.0,5.0,0.5,1,6.0,0.0,,7.0,phase_2,stop,400.0,450.0,4.0,,,,,,,,,white,triangle
0.0,7.0,2.0,0,6.0,6.0,651.014089584,7.0,phase_2,go,400.0,450.0,1.0,,,,,,,,,yellow,square
0.0,7.0,2.0,0,5.0,5.0,317.542076111,8.0,phase_2,go,400.0,450.0,1.0,,,,,,,,,yellow,square
0.0,2.0,1.0,0,5.0,5.0,534.698009491,8.0,phase_2,go,400.0,450.0,1.0,,,,,,,,,blue,circle
0.0,6.0,1.0,1,5.0,5.0,584.2740535739999,8.0,phase_2,stop,450.0,450.0,3.0,,,,,,,,,orange,hexagon
0.0,1.0,0.5,0,5.0,5.0,534.389019012,8.0,phase_2,go,450.0,450.0,1.0,,,,,,,,,green,line
0.0,6.0,1.0,1,5.0,0.0,,8.0,phase_2,stop,400.0,450.0,4.0,,,,,,,,,orange,hexagon
0.0,3.0,2.0,1,6.0,6.0,634.766101837,8.0,phase_2,go,400.0,450.0,1.0,,,,,,,,,cyan,cross
0.0,3.0,2.0,1,5.0,5.0,567.703962326,8.0,phase_2,stop,450.0,450.0,3.0,,,,,,,,,cyan,cross
0.0,1.0,0.5,0,6.0,6.0,818.290948868,8.0,phase_2,go,450.0,450.0,1.0,,,,,,,,,green,line
0.0,6.0,1.0,1,5.0,5.0,601.15981102,8.0,phase_2,go,450.0,450.0,1.0,,,,,,,,,orange,hexagon
0.0,4.0,4.0,0,6.0,6.0,634.4671249390001,8.0,phase_2,go,450.0,450.0,1.0,,,,,,,,,magenta,diamond
0.0,5.0,0.5,1,5.0,0.0,,8.0,phase_2,stop,400.0,450.0,4.0,,,,,,,,,white,triangle
0.0,3.0,2.0,1,5.0,5.0,517.9598331450001,8.0,phase_2,stop,450.0,450.0,3.0,,,,,,,,,cyan,cross
0.0,1.0,0.5,0,5.0,5.0,600.836992264,8.0,phase_2,go,450.0,450.0,1.0,,,,,,,,,green,line
0.0,2.0,1.0,0,5.0,5.0,684.339046478,8.0,phase_2,go,450.0,450.0,1.0,,,,,,,,,blue,circle
0.0,7.0,2.0,0,5.0,5.0,584.764003754,8.0,phase_2,go,450.0,450.0,1.0,,,,,,,,,yellow,square
0.0,2.0,1.0,0,6.0,6.0,684.8912239069999,8.0,phase_2,go,450.0,450.0,1.0,,,,,,,,,blue,circle
0.0,3.0,2.0,1,6.0,0.0,,8.0,phase_2,stop,450.0,500.0,4.0,,,,,,,,,cyan,cross
0.0,8.0,4.0,1,6.0,6.0,550.7678985599999,8.0,phase_2,stop,450.0,550.0,3.0,,,,,,,,,gray,flipped triangle
0.0,8.0,4.0,1,6.0,6.0,701.31111145,8.0,phase_2,go,450.0,550.0,1.0,,,,,,,,,gray,flipped triangle
0.0,4.0,4.0,0,6.0,6.0,751.590013504,8.0,phase_2,go,450.0,550.0,1.0,,,,,,,,,magenta,diamond
0.0,3.0,2.0,1,5.0,0.0,,8.0,phase_2,stop,400.0,550.0,4.0,,,,,,,,,cyan,cross
0.0,4.0,4.0,0,6.0,6.0,350.456953049,8.0,phase_2,go,400.0,550.0,1.0,,,,,,,,,magenta,diamond
0.0,7.0,2.0,0,5.0,5.0,617.665052414,8.0,phase_2,go,400.0,550.0,1.0,,,,,,,,,yellow,square
0.0,6.0,1.0,1,6.0,6.0,767.109155655,8.0,phase_2,go,400.0,550.0,1.0,,,,,,,,,orange,hexagon
0.0,1.0,0.5,0,5.0,5.0,550.904035568,8.0,phase_2,go,400.0,550.0,1.0,,,,,,,,,green,line
0.0,4.0,4.0,0,6.0,6.0,417.289018631,8.0,phase_2,go,400.0,550.0,1.0,,,,,,,,,magenta,diamond
0.0,6.0,1.0,1,5.0,5.0,801.50103569,8.0,phase_2,go,400.0,550.0,1.0,,,,,,,,,orange,hexagon
0.0,6.0,1.0,1,6.0,6.0,284.455060959,8.0,phase_2,go,400.0,550.0,1.0,,,,,,,,,orange,hexagon
0.0,3.0,2.0,1,6.0,6.0,567.188978195,8.0,phase_2,stop,400.0,500.0,3.0,,,,,,,,,cyan,cross
0.0,7.0,2.0,0,6.0,6.0,701.4429569240001,8.0,phase_2,go,400.0,500.0,1.0,,,,,,,,,yellow,square
0.0,4.0,4.0,0,5.0,5.0,534.092903137,8.0,phase_2,go,400.0,500.0,1.0,,,,,,,,,magenta,diamond
0.0,6.0,1.0,1,6.0,6.0,734.908103943,8.0,phase_2,go,400.0,500.0,1.0,,,,,,,,,orange,hexagon
0.0,5.0,0.5,1,6.0,6.0,383.96596908600003,8.0,phase_2,stop,400.0,450.0,3.0,,,,,,,,,white,triangle
0.0,5.0,0.5,1,6.0,6.0,534.202098846,8.0,phase_2,go,400.0,450.0,1.0,,,,,,,,,white,triangle
0.0,3.0,2.0,1,6.0,6.0,334.037065506,8.0,phase_2,stop,400.0,400.0,3.0,,,,,,,,,cyan,cross
0.0,1.0,0.5,0,5.0,5.0,401.037216187,8.0,phase_2,go,400.0,400.0,1.0,,,,,,,,,green,line
0.0,3.0,2.0,1,7.0,,,1.0,phase_3,,,,,0.0,,34.0,204.0,136.0,102.0,170.0,68.0,cyan,cross
0.0,5.0,0.5,1,7.0,4.0,2319.409132,1.0,phase_3,,,,,245.0,5.0,49.0,147.0,98.0,245.0,294.0,196.0,white,triangle
0.0,1.0,0.5,0,7.0,1.0,1952.21781731,1.0,phase_3,,,,,88.0,2.0,88.0,44.0,176.0,132.0,220.0,264.0,green,line
0.0,2.0,1.0,0,7.0,2.0,1535.24589539,1.0,phase_3,,,,,170.0,5.0,136.0,170.0,68.0,102.0,204.0,34.0,blue,circle
0.0,5.0,0.5,1,7.0,5.0,2069.0059661900004,1.0,phase_3,,,,,44.0,1.0,220.0,176.0,132.0,88.0,44.0,264.0,white,triangle
0.0,7.0,2.0,0,7.0,2.0,1752.59900093,1.0,phase_3,,,,,204.0,6.0,102.0,204.0,34.0,170.0,136.0,68.0,yellow,square
0.0,4.0,4.0,0,7.0,4.0,2302.70886421,1.0,phase_3,,,,,264.0,6.0,88.0,44.0,176.0,264.0,132.0,220.0,magenta,diamond
0.0,2.0,1.0,0,7.0,3.0,2202.5790214500003,1.0,phase_3,,,,,162.0,3.0,216.0,270.0,162.0,54.0,324.0,108.0,blue,circle
0.0,6.0,1.0,1,7.0,5.0,1234.1279983499999,1.0,phase_3,,,,,195.0,5.0,234.0,156.0,117.0,39.0,195.0,78.0,orange,hexagon
0.0,4.0,4.0,0,7.0,1.0,1518.70107651,1.0,phase_3,,,,,324.0,6.0,324.0,108.0,54.0,216.0,270.0,162.0,magenta,diamond
0.0,5.0,0.5,1,7.0,4.0,2002.34699249,1.0,phase_3,,,,,34.0,1.0,170.0,102.0,204.0,34.0,68.0,136.0,white,triangle
0.0,1.0,0.5,0,7.0,1.0,1468.23596954,1.0,phase_3,,,,,49.0,1.0,49.0,294.0,196.0,147.0,245.0,98.0,green,line
0.0,8.0,4.0,1,7.0,6.0,1852.14209557,1.0,phase_3,,,,,264.0,6.0,88.0,44.0,176.0,132.0,220.0,264.0,gray,flipped triangle
0.0,7.0,2.0,0,7.0,4.0,1669.04306412,1.0,phase_3,,,,,234.0,6.0,156.0,195.0,78.0,234.0,39.0,117.0,yellow,square
0.0,4.0,4.0,0,7.0,2.0,1652.0969867699998,1.0,phase_3,,,,,324.0,6.0,270.0,324.0,162.0,54.0,108.0,216.0,magenta,diamond
0.0,7.0,2.0,0,7.0,4.0,1535.20798683,1.0,phase_3,,,,,220.0,5.0,88.0,44.0,176.0,220.0,132.0,264.0,yellow,square
0.0,2.0,1.0,0,7.0,3.0,1984.70497131,1.0,phase_3,,,,,176.0,4.0,88.0,220.0,176.0,44.0,264.0,132.0,blue,circle
0.0,6.0,1.0,1,7.0,1.0,1902.15611458,1.0,phase_3,,,,,220.0,5.0,220.0,88.0,44.0,176.0,264.0,132.0,orange,hexagon
0.0,7.0,2.0,0,7.0,2.0,1886.09910011,1.0,phase_3,,,,,324.0,6.0,162.0,324.0,216.0,270.0,108.0,54.0,yellow,square
0.0,4.0,4.0,0,7.0,3.0,1752.29406357,1.0,phase_3,,,,,204.0,6.0,136.0,34.0,204.0,68.0,102.0,170.0,magenta,diamond
0.0,8.0,4.0,1,7.0,2.0,1601.87005997,2.0,phase_3,,,,,204.0,6.0,136.0,204.0,68.0,102.0,170.0,34.0,gray,flipped triangle
0.0,8.0,4.0,1,7.0,2.0,1651.52001381,2.0,phase_3,,,,,294.0,6.0,147.0,294.0,49.0,245.0,98.0,196.0,gray,flipped triangle
0.0,2.0,1.0,0,7.0,5.0,1819.0429210700001,2.0,phase_3,,,,,196.0,4.0,294.0,98.0,49.0,147.0,196.0,245.0,blue,circle
0.0,7.0,2.0,0,7.0,4.0,1835.58797836,2.0,phase_3,,,,,245.0,5.0,147.0,98.0,49.0,245.0,196.0,294.0,yellow,square
0.0,5.0,0.5,1,7.0,6.0,2503.10182571,2.0,phase_3,,,,,270.0,5.0,162.0,216.0,324.0,54.0,108.0,270.0,white,triangle
0.0,4.0,4.0,0,7.0,4.0,2285.98308563,2.0,phase_3,,,,,294.0,6.0,196.0,98.0,245.0,294.0,49.0,147.0,magenta,diamond
0.0,3.0,2.0,1,7.0,2.0,2084.73587036,2.0,phase_3,,,,,245.0,5.0,49.0,245.0,147.0,196.0,98.0,294.0,cyan,cross
0.0,3.0,2.0,1,7.0,6.0,1902.3938179,2.0,phase_3,,,,,98.0,2.0,294.0,49.0,245.0,196.0,147.0,98.0,cyan,cross
0.0,8.0,4.0,1,7.0,1.0,1635.28609276,2.0,phase_3,,,,,204.0,6.0,204.0,102.0,136.0,170.0,34.0,68.0,gray,flipped triangle
0.0,3.0,2.0,1,7.0,4.0,1668.34712029,2.0,phase_3,,,,,54.0,1.0,108.0,162.0,270.0,54.0,216.0,324.0,cyan,cross
0.0,7.0,2.0,0,7.0,6.0,1785.19296646,2.0,phase_3,,,,,220.0,5.0,176.0,44.0,132.0,264.0,88.0,220.0,yellow,square
0.0,3.0,2.0,1,7.0,2.0,1018.0900096900001,2.0,phase_3,,,,,44.0,1.0,132.0,44.0,88.0,176.0,264.0,220.0,cyan,cross
0.0,2.0,1.0,0,7.0,2.0,1819.01216507,2.0,phase_3,,,,,196.0,4.0,147.0,196.0,49.0,98.0,294.0,245.0,blue,circle
0.0,1.0,0.5,0,7.0,6.0,1768.68319511,2.0,phase_3,,,,,34.0,1.0,204.0,68.0,136.0,102.0,170.0,34.0,green,line
0.0,1.0,0.5,0,7.0,5.0,1702.17394829,2.0,phase_3,,,,,54.0,1.0,108.0,162.0,270.0,324.0,54.0,216.0,green,line
0.0,8.0,4.0,1,7.0,2.0,1501.83391571,2.0,phase_3,,,,,234.0,6.0,117.0,234.0,78.0,156.0,195.0,39.0,gray,flipped triangle
0.0,1.0,0.5,0,7.0,2.0,1484.54189301,2.0,phase_3,,,,,44.0,1.0,132.0,44.0,176.0,220.0,88.0,264.0,green,line
0.0,2.0,1.0,0,7.0,2.0,2936.72418594,2.0,phase_3,,,,,220.0,5.0,264.0,220.0,176.0,88.0,132.0,44.0,blue,circle
0.0,1.0,0.5,0,7.0,4.0,1835.3819847099999,2.0,phase_3,,,,,49.0,1.0,98.0,196.0,147.0,49.0,245.0,294.0,green,line
0.0,3.0,2.0,1,7.0,2.0,1168.61200333,2.0,phase_3,,,,,39.0,1.0,117.0,39.0,156.0,234.0,195.0,78.0,cyan,cross
0.0,6.0,1.0,1,7.0,3.0,1084.9020481100001,3.0,phase_3,,,,,162.0,3.0,324.0,270.0,162.0,54.0,216.0,108.0,orange,hexagon
0.0,6.0,1.0,1,7.0,5.0,1485.0399494199999,3.0,phase_3,,,,,294.0,6.0,196.0,98.0,147.0,245.0,294.0,49.0,orange,hexagon
0.0,7.0,2.0,0,7.0,1.0,1217.81206131,3.0,phase_3,,,,,196.0,4.0,196.0,294.0,98.0,49.0,245.0,147.0,yellow,square
0.0,4.0,4.0,0,7.0,2.0,1752.1109581,3.0,phase_3,,,,,264.0,6.0,132.0,264.0,88.0,44.0,220.0,176.0,magenta,diamond
0.0,7.0,2.0,0,7.0,3.0,934.688806534,3.0,phase_3,,,,,195.0,5.0,78.0,117.0,195.0,39.0,234.0,156.0,yellow,square
0.0,4.0,4.0,0,7.0,4.0,2069.11087036,3.0,phase_3,,,,,204.0,6.0,102.0,34.0,170.0,204.0,136.0,68.0,magenta,diamond
0.0,3.0,2.0,1,7.0,2.0,1134.20701027,3.0,phase_3,,,,,44.0,1.0,176.0,44.0,88.0,220.0,132.0,264.0,cyan,cross
0.0,8.0,4.0,1,7.0,4.0,1251.7259120899998,3.0,phase_3,,,,,264.0,6.0,44.0,88.0,220.0,264.0,132.0,176.0,gray,flipped triangle
0.0,6.0,1.0,1,7.0,2.0,1151.22580528,3.0,phase_3,,,,,270.0,5.0,216.0,270.0,54.0,162.0,324.0,108.0,orange,hexagon
0.0,2.0,1.0,0,7.0,4.0,1568.09806824,3.0,phase_3,,,,,234.0,6.0,195.0,39.0,117.0,234.0,78.0,156.0,blue,circle
0.0,6.0,1.0,1,7.0,2.0,1351.6368866,3.0,phase_3,,,,,176.0,4.0,264.0,176.0,88.0,44.0,132.0,220.0,orange,hexagon
0.0,4.0,4.0,0,7.0,3.0,1868.7357902499998,3.0,phase_3,,,,,234.0,6.0,156.0,195.0,234.0,117.0,39.0,78.0,magenta,diamond
0.0,2.0,1.0,0,7.0,5.0,1952.63409615,3.0,phase_3,,,,,162.0,3.0,108.0,324.0,270.0,54.0,162.0,216.0,blue,circle
0.0,8.0,4.0,1,7.0,4.0,1918.8849926,3.0,phase_3,,,,,324.0,6.0,54.0,216.0,108.0,324.0,270.0,162.0,gray,flipped triangle
0.0,5.0,0.5,1,7.0,3.0,2269.1860199,3.0,phase_3,,,,,49.0,1.0,245.0,147.0,49.0,98.0,294.0,196.0,white,triangle
0.0,6.0,1.0,1,7.0,4.0,1802.03795433,3.0,phase_3,,,,,117.0,3.0,156.0,39.0,78.0,117.0,234.0,195.0,orange,hexagon
0.0,4.0,4.0,0,7.0,1.0,1635.3199482,3.0,phase_3,,,,,294.0,6.0,294.0,49.0,98.0,245.0,196.0,147.0,magenta,diamond
0.0,8.0,4.0,1,7.0,1.0,2118.95990372,3.0,phase_3,,,,,324.0,6.0,324.0,162.0,270.0,216.0,108.0,54.0,gray,flipped triangle
0.0,5.0,0.5,1,7.0,4.0,2937.1910095199996,3.0,phase_3,,,,,68.0,2.0,170.0,34.0,102.0,68.0,136.0,204.0,white,triangle
0.0,6.0,1.0,1,7.0,4.0,1618.87288094,3.0,phase_3,,,,,136.0,4.0,34.0,204.0,68.0,136.0,170.0,102.0,orange,hexagon
0.0,1.0,0.5,0,7.0,4.0,851.292133331,4.0,phase_3,,,,,39.0,1.0,195.0,156.0,78.0,39.0,117.0,234.0,green,line
0.0,1.0,0.5,0,7.0,6.0,1101.76110268,4.0,phase_3,,,,,34.0,1.0,102.0,170.0,68.0,136.0,204.0,34.0,green,line
0.0,1.0,0.5,0,7.0,3.0,1268.04018021,4.0,phase_3,,,,,39.0,1.0,234.0,156.0,39.0,195.0,78.0,117.0,green,line
0.0,5.0,0.5,1,7.0,2.0,1568.4230327599998,4.0,phase_3,,,,,54.0,1.0,270.0,54.0,216.0,108.0,162.0,324.0,white,triangle
0.0,3.0,2.0,1,7.0,4.0,2369.91500854,4.0,phase_3,,,,,195.0,5.0,156.0,39.0,78.0,195.0,234.0,117.0,cyan,cross
0.0,5.0,0.5,1,7.0,5.0,1367.7349090599998,4.0,phase_3,,,,,78.0,2.0,195.0,117.0,234.0,156.0,78.0,39.0,white,triangle
0.0,6.0,1.0,1,7.0,6.0,1585.26706696,4.0,phase_3,,,,,196.0,4.0,294.0,49.0,98.0,147.0,245.0,196.0,orange,hexagon
0.0,5.0,0.5,1,7.0,6.0,2986.43898964,4.0,phase_3,,,,,88.0,2.0,44.0,132.0,176.0,220.0,264.0,88.0,white,triangle
0.0,4.0,4.0,0,7.0,6.0,1518.62001419,4.0,phase_3,,,,,234.0,6.0,156.0,117.0,78.0,195.0,39.0,234.0,magenta,diamond
0.0,8.0,4.0,1,7.0,5.0,1435.29701233,4.0,phase_3,,,,,234.0,6.0,78.0,39.0,195.0,117.0,234.0,156.0,gray,flipped triangle
0.0,7.0,2.0,0,7.0,3.0,1518.54395866,4.0,phase_3,,,,,204.0,6.0,68.0,34.0,204.0,170.0,102.0,136.0,yellow,square
0.0,2.0,1.0,0,7.0,1.0,1134.60087776,4.0,phase_3,,,,,170.0,5.0,170.0,136.0,204.0,34.0,68.0,102.0,blue,circle
0.0,1.0,0.5,0,7.0,3.0,2069.27204132,4.0,phase_3,,,,,216.0,4.0,108.0,162.0,216.0,324.0,270.0,54.0,green,line
0.0,3.0,2.0,1,7.0,3.0,1651.3450145699999,4.0,phase_3,,,,,68.0,2.0,170.0,204.0,68.0,136.0,102.0,34.0,cyan,cross
0.0,2.0,1.0,0,7.0,1.0,1818.51196289,4.0,phase_3,,,,,195.0,5.0,195.0,39.0,78.0,117.0,156.0,234.0,blue,circle
0.0,5.0,0.5,1,7.0,2.0,2502.75707245,4.0,phase_3,,,,,39.0,1.0,78.0,39.0,234.0,117.0,195.0,156.0,white,triangle
0.0,8.0,4.0,1,7.0,4.0,1151.96919441,4.0,phase_3,,,,,294.0,6.0,196.0,49.0,98.0,294.0,147.0,245.0,gray,flipped triangle
0.0,3.0,2.0,1,7.0,1.0,1551.6288280499998,4.0,phase_3,,,,,54.0,1.0,54.0,216.0,162.0,270.0,324.0,108.0,cyan,cross
0.0,6.0,1.0,1,7.0,3.0,1551.3279438,4.0,phase_3,,,,,204.0,6.0,136.0,34.0,204.0,68.0,170.0,102.0,orange,hexagon
0.0,7.0,2.0,0,7.0,2.0,1702.01396942,4.0,phase_3,,,,,270.0,5.0,216.0,270.0,162.0,324.0,54.0,108.0,yellow,square
