raw_reward_magnitude,stim_reward,stepwise_reward_magnitude,paired_with_stopping,stim_location,response,reaction_time,block,which_phase,stop_signal_trial_type,left_SSD,right_SSD,accuracy,chosen_bidding_amount,chosen_bidding_level,possible_bid_1,possible_bid_2,possible_bid_3,possible_bid_4,possible_bid_5,possible_bid_6,color_text,shape_text
400.0,4.0,4.0,1,4.0,4.0,450.797080994,1.0,phase_1,,,,,,,,,,,,,gray,hexagon
197.0,3.0,2.0,0,1.0,1.0,417.612075806,1.0,phase_1,,,,,,,,,,,,,magenta,line
96.0,2.0,1.0,1,2.0,2.0,317.570209503,1.0,phase_1,,,,,,,,,,,,,white,square
75.0,6.0,1.0,0,1.0,1.0,367.62094497699997,1.0,phase_1,,,,,,,,,,,,,green,triangle
101.0,2.0,1.0,1,3.0,3.0,301.00893974300004,1.0,phase_1,,,,,,,,,,,,,white,square
0.0,5.0,0.0,1,2.0,2.0,384.66691970799997,1.0,phase_1,,,,,,,,,,,,,blue,cross
99.0,2.0,1.0,1,4.0,4.0,367.17009544399997,1.0,phase_1,,,,,,,,,,,,,white,square
0.0,3.0,0.0,0,3.0,3.0,401.039123535,1.0,phase_1,,,,,,,,,,,,,magenta,line
108.0,6.0,1.0,0,3.0,3.0,401.077032089,1.0,phase_1,,,,,,,,,,,,,green,triangle
211.0,7.0,2.0,1,2.0,2.0,367.610931396,1.0,phase_1,,,,,,,,,,,,,cyan,circle
123.0,2.0,1.0,1,2.0,2.0,367.13004112199997,1.0,phase_1,,,,,,,,,,,,,white,square
0.0,3.0,0.0,0,4.0,4.0,417.410850525,1.0,phase_1,,,,,,,,,,,,,magenta,line
95.0,6.0,1.0,0,4.0,4.0,417.668104172,1.0,phase_1,,,,,,,,,,,,,green,triangle
46.0,1.0,0.5,0,1.0,1.0,334.218978882,1.0,phase_1,,,,,,,,,,,,,orange,diamond
97.0,2.0,1.0,1,4.0,4.0,334.68389511099997,1.0,phase_1,,,,,,,,,,,,,white,square
413.0,4.0,4.0,1,4.0,4.0,367.59591102599995,1.0,phase_1,,,,,,,,,,,,,gray,hexagon
0.0,2.0,0.0,1,4.0,4.0,350.796937943,1.0,phase_1,,,,,,,,,,,,,white,square
101.0,6.0,1.0,0,3.0,3.0,350.70896148699995,1.0,phase_1,,,,,,,,,,,,,green,triangle
384.0,8.0,4.0,0,4.0,4.0,417.590856552,1.0,phase_1,,,,,,,,,,,,,yellow,flipped triangle
0.0,3.0,0.0,0,3.0,3.0,417.929172516,1.0,phase_1,,,,,,,,,,,,,magenta,line
186.0,3.0,2.0,0,1.0,1.0,317.63601303099995,1.0,phase_1,,,,,,,,,,,,,magenta,line
419.0,8.0,4.0,0,2.0,2.0,601.202011108,1.0,phase_1,,,,,,,,,,,,,yellow,flipped triangle
419.0,4.0,4.0,1,4.0,4.0,384.388923645,1.0,phase_1,,,,,,,,,,,,,gray,hexagon
0.0,3.0,0.0,0,2.0,2.0,350.775957108,1.0,phase_1,,,,,,,,,,,,,magenta,line
216.0,3.0,2.0,0,2.0,2.0,351.33099556,1.0,phase_1,,,,,,,,,,,,,magenta,line
375.0,4.0,4.0,1,3.0,3.0,434.1340065,1.0,phase_1,,,,,,,,,,,,,gray,hexagon
98.0,2.0,1.0,1,1.0,1.0,284.142971039,1.0,phase_1,,,,,,,,,,,,,white,square
218.0,3.0,2.0,0,4.0,4.0,333.839178085,1.0,phase_1,,,,,,,,,,,,,magenta,line
88.0,6.0,1.0,0,1.0,1.0,367.239952087,1.0,phase_1,,,,,,,,,,,,,green,triangle
35.0,1.0,0.5,0,4.0,4.0,334.040164948,1.0,phase_1,,,,,,,,,,,,,orange,diamond
0.0,8.0,0.0,0,4.0,4.0,334.201812744,1.0,phase_1,,,,,,,,,,,,,yellow,flipped triangle
91.0,6.0,1.0,0,4.0,4.0,367.838144302,1.0,phase_1,,,,,,,,,,,,,green,triangle
218.0,7.0,2.0,1,2.0,2.0,383.954048157,1.0,phase_1,,,,,,,,,,,,,cyan,circle
0.0,7.0,0.0,1,2.0,2.0,384.213924408,1.0,phase_1,,,,,,,,,,,,,cyan,circle
105.0,6.0,1.0,0,2.0,2.0,434.170007706,1.0,phase_1,,,,,,,,,,,,,green,triangle
190.0,3.0,2.0,0,1.0,1.0,417.789936066,1.0,phase_1,,,,,,,,,,,,,magenta,line
114.0,6.0,1.0,0,1.0,1.0,400.806903839,1.0,phase_1,,,,,,,,,,,,,green,triangle
176.0,3.0,2.0,0,2.0,2.0,401.05700492899996,1.0,phase_1,,,,,,,,,,,,,magenta,line
220.0,3.0,2.0,0,3.0,3.0,417.490959167,1.0,phase_1,,,,,,,,,,,,,magenta,line
384.0,4.0,4.0,1,3.0,3.0,367.151975632,1.0,phase_1,,,,,,,,,,,,,gray,hexagon
69.0,1.0,0.5,0,3.0,3.0,351.001024246,1.0,phase_1,,,,,,,,,,,,,orange,diamond
417.0,4.0,4.0,1,3.0,3.0,317.57903099099997,1.0,phase_1,,,,,,,,,,,,,gray,hexagon
0.0,8.0,0.0,0,2.0,2.0,400.68602562,1.0,phase_1,,,,,,,,,,,,,yellow,flipped triangle
0.0,5.0,0.0,1,2.0,2.0,383.810997009,1.0,phase_1,,,,,,,,,,,,,blue,cross
35.0,5.0,0.5,1,4.0,4.0,334.054946899,1.0,phase_1,,,,,,,,,,,,,blue,cross
0.0,8.0,0.0,0,2.0,2.0,351.15480423,1.0,phase_1,,,,,,,,,,,,,yellow,flipped triangle
0.0,5.0,0.0,1,2.0,2.0,350.96001625099996,1.0,phase_1,,,,,,,,,,,,,blue,cross
0.0,5.0,0.0,1,3.0,3.0,350.73184967,1.0,phase_1,,,,,,,,,,,,,blue,cross
188.0,3.0,2.0,0,2.0,2.0,367.229223251,1.0,phase_1,,,,,,,,,,,,,magenta,line
421.0,8.0,4.0,0,2.0,2.0,350.78907012900004,1.0,phase_1,,,,,,,,,,,,,yellow,flipped triangle
0.0,6.0,0.0,0,1.0,1.0,400.629043579,1.0,phase_1,,,,,,,,,,,,,green,triangle
53.0,1.0,0.5,0,2.0,2.0,367.347002029,1.0,phase_1,,,,,,,,,,,,,orange,diamond
115.0,6.0,1.0,0,2.0,2.0,334.109067917,1.0,phase_1,,,,,,,,,,,,,green,triangle
0.0,2.0,0.0,1,3.0,3.0,383.903980255,1.0,phase_1,,,,,,,,,,,,,white,square
187.0,7.0,2.0,1,1.0,1.0,334.030151367,1.0,phase_1,,,,,,,,,,,,,cyan,circle
396.0,4.0,4.0,1,2.0,2.0,367.573022842,1.0,phase_1,,,,,,,,,,,,,gray,hexagon
35.0,5.0,0.5,1,2.0,2.0,351.073026657,1.0,phase_1,,,,,,,,,,,,,blue,cross
403.0,4.0,4.0,1,1.0,1.0,300.745010376,1.0,phase_1,,,,,,,,,,,,,gray,hexagon
0.0,5.0,0.0,1,2.0,2.0,317.30604171799996,1.0,phase_1,,,,,,,,,,,,,blue,cross
103.0,2.0,1.0,1,4.0,4.0,400.651931763,1.0,phase_1,,,,,,,,,,,,,white,square
0.0,8.0,0.0,0,3.0,3.0,317.484140396,1.0,phase_1,,,,,,,,,,,,,yellow,flipped triangle
200.0,3.0,2.0,0,3.0,3.0,417.06800460799997,1.0,phase_1,,,,,,,,,,,,,magenta,line
0.0,2.0,0.0,1,1.0,1.0,367.618083954,1.0,phase_1,,,,,,,,,,,,,white,square
207.0,3.0,2.0,0,4.0,4.0,350.59595108,1.0,phase_1,,,,,,,,,,,,,magenta,line
411.0,8.0,4.0,0,3.0,3.0,384.39798355100004,1.0,phase_1,,,,,,,,,,,,,yellow,flipped triangle
194.0,7.0,2.0,1,4.0,4.0,334.316968918,1.0,phase_1,,,,,,,,,,,,,cyan,circle
201.0,7.0,2.0,1,4.0,4.0,351.363897324,1.0,phase_1,,,,,,,,,,,,,cyan,circle
0.0,3.0,0.0,0,1.0,1.0,351.118087769,1.0,phase_1,,,,,,,,,,,,,magenta,line
111.0,2.0,1.0,1,2.0,2.0,351.017951965,1.0,phase_1,,,,,,,,,,,,,white,square
41.0,1.0,0.5,0,1.0,1.0,367.74182319600004,1.0,phase_1,,,,,,,,,,,,,orange,diamond
0.0,6.0,0.0,0,1.0,1.0,367.31505394000004,1.0,phase_1,,,,,,,,,,,,,green,triangle
0.0,1.0,0.0,0,2.0,2.0,334.41400527999997,1.0,phase_1,,,,,,,,,,,,,orange,diamond
181.0,3.0,2.0,0,3.0,3.0,350.865125656,1.0,phase_1,,,,,,,,,,,,,magenta,line
417.0,4.0,4.0,1,3.0,3.0,368.264913559,1.0,phase_1,,,,,,,,,,,,,gray,hexagon
102.0,6.0,1.0,0,3.0,3.0,384.390115738,1.0,phase_1,,,,,,,,,,,,,green,triangle
0.0,2.0,0.0,1,1.0,1.0,334.343910217,1.0,phase_1,,,,,,,,,,,,,white,square
380.0,4.0,4.0,1,3.0,3.0,384.09495353700004,1.0,phase_1,,,,,,,,,,,,,gray,hexagon
192.0,7.0,2.0,1,4.0,4.0,333.976984024,1.0,phase_1,,,,,,,,,,,,,cyan,circle
419.0,8.0,4.0,0,1.0,1.0,350.471019745,1.0,phase_1,,,,,,,,,,,,,yellow,flipped triangle
0.0,8.0,0.0,0,1.0,1.0,367.78807640099996,1.0,phase_1,,,,,,,,,,,,,yellow,flipped triangle
93.0,2.0,1.0,1,3.0,3.0,384.011983871,1.0,phase_1,,,,,,,,,,,,,white,square
216.0,3.0,2.0,0,4.0,4.0,384.619951248,1.0,phase_1,,,,,,,,,,,,,magenta,line
92.0,6.0,1.0,0,1.0,1.0,417.973995209,1.0,phase_1,,,,,,,,,,,,,green,triangle
0.0,7.0,0.0,1,4.0,4.0,384.698152542,1.0,phase_1,,,,,,,,,,,,,cyan,circle
88.0,6.0,1.0,0,3.0,3.0,367.468118668,1.0,phase_1,,,,,,,,,,,,,green,triangle
401.0,8.0,4.0,0,4.0,4.0,384.06610488900003,1.0,phase_1,,,,,,,,,,,,,yellow,flipped triangle
37.0,1.0,0.5,0,3.0,3.0,400.910139084,1.0,phase_1,,,,,,,,,,,,,orange,diamond
48.0,5.0,0.5,1,4.0,4.0,401.11398696900005,1.0,phase_1,,,,,,,,,,,,,blue,cross
107.0,6.0,1.0,0,4.0,4.0,450.70004463199996,1.0,phase_1,,,,,,,,,,,,,green,triangle
188.0,3.0,2.0,0,1.0,1.0,351.20892524699997,1.0,phase_1,,,,,,,,,,,,,magenta,line
420.0,4.0,4.0,1,1.0,1.0,434.60512161300005,1.0,phase_1,,,,,,,,,,,,,gray,hexagon
103.0,2.0,1.0,1,1.0,1.0,334.42211151099997,1.0,phase_1,,,,,,,,,,,,,white,square
35.0,5.0,0.5,1,1.0,1.0,350.640058517,1.0,phase_1,,,,,,,,,,,,,blue,cross
41.0,1.0,0.5,0,2.0,2.0,400.901079178,1.0,phase_1,,,,,,,,,,,,,orange,diamond
177.0,7.0,2.0,1,4.0,4.0,334.589958191,1.0,phase_1,,,,,,,,,,,,,cyan,circle
88.0,6.0,1.0,0,3.0,3.0,400.81286430399996,1.0,phase_1,,,,,,,,,,,,,green,triangle
423.0,4.0,4.0,1,3.0,3.0,367.39397049,1.0,phase_1,,,,,,,,,,,,,gray,hexagon
41.0,1.0,0.5,0,1.0,1.0,368.021011353,1.0,phase_1,,,,,,,,,,,,,orange,diamond
386.0,4.0,4.0,1,1.0,1.0,351.25207901,1.0,phase_1,,,,,,,,,,,,,gray,hexagon
206.0,7.0,2.0,1,3.0,3.0,417.70195961,1.0,phase_1,,,,,,,,,,,,,cyan,circle
221.0,7.0,2.0,1,1.0,1.0,400.763034821,2.0,phase_1,,,,,,,,,,,,,cyan,circle
84.0,2.0,1.0,1,4.0,4.0,384.003162384,2.0,phase_1,,,,,,,,,,,,,white,square
192.0,7.0,2.0,1,2.0,2.0,384.375810623,2.0,phase_1,,,,,,,,,,,,,cyan,circle
104.0,6.0,1.0,0,3.0,3.0,317.68488884,2.0,phase_1,,,,,,,,,,,,,green,triangle
212.0,3.0,2.0,0,4.0,4.0,567.509174347,2.0,phase_1,,,,,,,,,,,,,magenta,line
402.0,8.0,4.0,0,1.0,1.0,350.286006927,2.0,phase_1,,,,,,,,,,,,,yellow,flipped triangle
210.0,3.0,2.0,0,3.0,3.0,434.04102325400004,2.0,phase_1,,,,,,,,,,,,,magenta,line
381.0,8.0,4.0,0,3.0,3.0,401.017904282,2.0,phase_1,,,,,,,,,,,,,yellow,flipped triangle
47.0,1.0,0.5,0,1.0,1.0,384.62305069,2.0,phase_1,,,,,,,,,,,,,orange,diamond
223.0,7.0,2.0,1,4.0,4.0,350.82101821900005,2.0,phase_1,,,,,,,,,,,,,cyan,circle
0.0,6.0,0.0,0,2.0,2.0,334.671020508,2.0,phase_1,,,,,,,,,,,,,green,triangle
378.0,8.0,4.0,0,2.0,2.0,351.094007492,2.0,phase_1,,,,,,,,,,,,,yellow,flipped triangle
69.0,5.0,0.5,1,1.0,1.0,334.407806396,2.0,phase_1,,,,,,,,,,,,,blue,cross
0.0,4.0,0.0,1,2.0,2.0,367.739200592,2.0,phase_1,,,,,,,,,,,,,gray,hexagon
412.0,4.0,4.0,1,2.0,2.0,384.833097458,2.0,phase_1,,,,,,,,,,,,,gray,hexagon
383.0,8.0,4.0,0,2.0,2.0,334.268093109,2.0,phase_1,,,,,,,,,,,,,yellow,flipped triangle
42.0,5.0,0.5,1,4.0,4.0,350.785017014,2.0,phase_1,,,,,,,,,,,,,blue,cross
72.0,5.0,0.5,1,1.0,1.0,367.398023605,2.0,phase_1,,,,,,,,,,,,,blue,cross
180.0,3.0,2.0,0,4.0,4.0,334.22183990499997,2.0,phase_1,,,,,,,,,,,,,magenta,line
0.0,4.0,0.0,1,2.0,2.0,400.949001312,2.0,phase_1,,,,,,,,,,,,,gray,hexagon
225.0,7.0,2.0,1,4.0,4.0,367.102146149,2.0,phase_1,,,,,,,,,,,,,cyan,circle
384.0,4.0,4.0,1,1.0,1.0,350.98695755,2.0,phase_1,,,,,,,,,,,,,gray,hexagon
72.0,1.0,0.5,0,3.0,3.0,367.375135422,2.0,phase_1,,,,,,,,,,,,,orange,diamond
185.0,3.0,2.0,0,1.0,1.0,483.80303382899996,2.0,phase_1,,,,,,,,,,,,,magenta,line
61.0,5.0,0.5,1,1.0,1.0,433.69102477999996,2.0,phase_1,,,,,,,,,,,,,blue,cross
401.0,8.0,4.0,0,2.0,2.0,367.501974106,2.0,phase_1,,,,,,,,,,,,,yellow,flipped triangle
0.0,7.0,0.0,1,2.0,2.0,351.076841354,2.0,phase_1,,,,,,,,,,,,,cyan,circle
378.0,4.0,4.0,1,3.0,3.0,367.537975311,2.0,phase_1,,,,,,,,,,,,,gray,hexagon
207.0,7.0,2.0,1,3.0,3.0,367.281913757,2.0,phase_1,,,,,,,,,,,,,cyan,circle
396.0,4.0,4.0,1,4.0,4.0,384.44209098799996,2.0,phase_1,,,,,,,,,,,,,gray,hexagon
27.0,1.0,0.5,0,1.0,1.0,383.702993393,2.0,phase_1,,,,,,,,,,,,,orange,diamond
0.0,1.0,0.0,0,2.0,2.0,317.153930664,2.0,phase_1,,,,,,,,,,,,,orange,diamond
182.0,3.0,2.0,0,3.0,3.0,417.587995529,2.0,phase_1,,,,,,,,,,,,,magenta,line
37.0,5.0,0.5,1,1.0,1.0,367.589950562,2.0,phase_1,,,,,,,,,,,,,blue,cross
67.0,1.0,0.5,0,1.0,1.0,350.81005096399997,2.0,phase_1,,,,,,,,,,,,,orange,diamond
183.0,7.0,2.0,1,3.0,3.0,450.926065445,2.0,phase_1,,,,,,,,,,,,,cyan,circle
208.0,3.0,2.0,0,4.0,4.0,333.540916443,2.0,phase_1,,,,,,,,,,,,,magenta,line
0.0,2.0,0.0,1,2.0,2.0,367.43307113599997,2.0,phase_1,,,,,,,,,,,,,white,square
69.0,1.0,0.5,0,1.0,1.0,334.102869034,2.0,phase_1,,,,,,,,,,,,,orange,diamond
55.0,5.0,0.5,1,4.0,4.0,367.4659729,2.0,phase_1,,,,,,,,,,,,,blue,cross
221.0,7.0,2.0,1,2.0,2.0,366.935968399,2.0,phase_1,,,,,,,,,,,,,cyan,circle
205.0,3.0,2.0,0,4.0,4.0,367.908000946,2.0,phase_1,,,,,,,,,,,,,magenta,line
114.0,6.0,1.0,0,3.0,3.0,367.19918251,2.0,phase_1,,,,,,,,,,,,,green,triangle
219.0,3.0,2.0,0,1.0,1.0,368.03984642,2.0,phase_1,,,,,,,,,,,,,magenta,line
191.0,3.0,2.0,0,4.0,4.0,384.042024612,2.0,phase_1,,,,,,,,,,,,,magenta,line
424.0,4.0,4.0,1,4.0,4.0,384.526014328,2.0,phase_1,,,,,,,,,,,,,gray,hexagon
0.0,1.0,0.0,0,2.0,2.0,383.765935898,2.0,phase_1,,,,,,,,,,,,,orange,diamond
121.0,6.0,1.0,0,1.0,1.0,334.575891495,2.0,phase_1,,,,,,,,,,,,,green,triangle
58.0,5.0,0.5,1,1.0,1.0,417.420148849,2.0,phase_1,,,,,,,,,,,,,blue,cross
385.0,8.0,4.0,0,1.0,1.0,350.980997086,2.0,phase_1,,,,,,,,,,,,,yellow,flipped triangle
90.0,6.0,1.0,0,2.0,2.0,334.307193756,2.0,phase_1,,,,,,,,,,,,,green,triangle
0.0,3.0,0.0,0,4.0,4.0,350.269079208,2.0,phase_1,,,,,,,,,,,,,magenta,line
181.0,7.0,2.0,1,4.0,4.0,350.57091713,2.0,phase_1,,,,,,,,,,,,,cyan,circle
35.0,5.0,0.5,1,2.0,2.0,350.53110122699997,2.0,phase_1,,,,,,,,,,,,,blue,cross
0.0,8.0,0.0,0,3.0,3.0,383.772134781,2.0,phase_1,,,,,,,,,,,,,yellow,flipped triangle
217.0,7.0,2.0,1,1.0,1.0,367.379903793,2.0,phase_1,,,,,,,,,,,,,cyan,circle
179.0,3.0,2.0,0,3.0,3.0,400.95281601,2.0,phase_1,,,,,,,,,,,,,magenta,line
41.0,5.0,0.5,1,1.0,1.0,467.669963837,2.0,phase_1,,,,,,,,,,,,,blue,cross
0.0,3.0,0.0,0,3.0,3.0,400.848865509,2.0,phase_1,,,,,,,,,,,,,magenta,line
175.0,3.0,2.0,0,4.0,4.0,400.56610107399996,2.0,phase_1,,,,,,,,,,,,,magenta,line
66.0,1.0,0.5,0,4.0,4.0,384.02104377700005,2.0,phase_1,,,,,,,,,,,,,orange,diamond
0.0,7.0,0.0,1,1.0,1.0,368.051052094,2.0,phase_1,,,,,,,,,,,,,cyan,circle
398.0,8.0,4.0,0,1.0,1.0,384.15312767,2.0,phase_1,,,,,,,,,,,,,yellow,flipped triangle
393.0,8.0,4.0,0,4.0,4.0,334.616184235,2.0,phase_1,,,,,,,,,,,,,yellow,flipped triangle
189.0,7.0,2.0,1,2.0,2.0,351.203203201,2.0,phase_1,,,,,,,,,,,,,cyan,circle
123.0,2.0,1.0,1,3.0,3.0,367.693901062,2.0,phase_1,,,,,,,,,,,,,white,square
198.0,3.0,2.0,0,3.0,3.0,383.849859238,2.0,phase_1,,,,,,,,,,,,,magenta,line
33.0,5.0,0.5,1,4.0,4.0,450.77395439099996,2.0,phase_1,,,,,,,,,,,,,blue,cross
411.0,4.0,4.0,1,2.0,2.0,484.105825424,2.0,phase_1,,,,,,,,,,,,,gray,hexagon
122.0,6.0,1.0,0,3.0,3.0,384.375810623,2.0,phase_1,,,,,,,,,,,,,green,triangle
410.0,8.0,4.0,0,3.0,3.0,383.97598266600005,2.0,phase_1,,,,,,,,,,,,,yellow,flipped triangle
0.0,6.0,0.0,0,4.0,4.0,367.93208122299995,2.0,phase_1,,,,,,,,,,,,,green,triangle
378.0,8.0,4.0,0,1.0,1.0,367.26284027099996,2.0,phase_1,,,,,,,,,,,,,yellow,flipped triangle
0.0,5.0,0.0,1,2.0,2.0,401.10015869100005,2.0,phase_1,,,,,,,,,,,,,blue,cross
82.0,2.0,1.0,1,3.0,3.0,383.980035782,2.0,phase_1,,,,,,,,,,,,,white,square
84.0,6.0,1.0,0,1.0,1.0,351.102113724,2.0,phase_1,,,,,,,,,,,,,green,triangle
376.0,8.0,4.0,0,3.0,3.0,367.75302887,2.0,phase_1,,,,,,,,,,,,,yellow,flipped triangle
200.0,3.0,2.0,0,1.0,1.0,400.334119797,2.0,phase_1,,,,,,,,,,,,,magenta,line
0.0,4.0,0.0,1,2.0,2.0,401.059865952,2.0,phase_1,,,,,,,,,,,,,gray,hexagon
0.0,2.0,0.0,1,4.0,4.0,317.631959915,2.0,phase_1,,,,,,,,,,,,,white,square
0.0,7.0,0.0,1,4.0,4.0,350.960969925,2.0,phase_1,,,,,,,,,,,,,cyan,circle
45.0,1.0,0.5,0,2.0,2.0,401.087999344,2.0,phase_1,,,,,,,,,,,,,orange,diamond
0.0,6.0,0.0,0,3.0,3.0,384.193897247,2.0,phase_1,,,,,,,,,,,,,green,triangle
389.0,8.0,4.0,0,2.0,2.0,350.412130356,2.0,phase_1,,,,,,,,,,,,,yellow,flipped triangle
177.0,7.0,2.0,1,2.0,2.0,367.594003677,2.0,phase_1,,,,,,,,,,,,,cyan,circle
108.0,2.0,1.0,1,4.0,4.0,417.843103409,2.0,phase_1,,,,,,,,,,,,,white,square
387.0,4.0,4.0,1,3.0,3.0,384.68289375300003,2.0,phase_1,,,,,,,,,,,,,gray,hexagon
408.0,4.0,4.0,1,3.0,3.0,383.590936661,2.0,phase_1,,,,,,,,,,,,,gray,hexagon
38.0,5.0,0.5,1,1.0,1.0,434.26203727700005,2.0,phase_1,,,,,,,,,,,,,blue,cross
34.0,5.0,0.5,1,1.0,1.0,417.577028275,2.0,phase_1,,,,,,,,,,,,,blue,cross
414.0,8.0,4.0,0,3.0,3.0,384.34886932399996,2.0,phase_1,,,,,,,,,,,,,yellow,flipped triangle
71.0,5.0,0.5,1,4.0,4.0,384.34600830100004,2.0,phase_1,,,,,,,,,,,,,blue,cross
119.0,6.0,1.0,0,2.0,2.0,451.099872589,2.0,phase_1,,,,,,,,,,,,,green,triangle
194.0,3.0,2.0,0,3.0,3.0,383.627891541,2.0,phase_1,,,,,,,,,,,,,magenta,line
200.0,3.0,2.0,0,3.0,3.0,384.87505912800003,2.0,phase_1,,,,,,,,,,,,,magenta,line
403.0,8.0,4.0,0,3.0,3.0,384.30500030499996,2.0,phase_1,,,,,,,,,,,,,yellow,flipped triangle
117.0,2.0,1.0,1,2.0,2.0,400.241851807,2.0,phase_1,,,,,,,,,,,,,white,square
195.0,7.0,2.0,1,4.0,4.0,384.266138077,2.0,phase_1,,,,,,,,,,,,,cyan,circle
61.0,1.0,0.5,0,4.0,4.0,401.103973389,2.0,phase_1,,,,,,,,,,,,,orange,diamond
57.0,5.0,0.5,1,2.0,2.0,400.77209472699997,2.0,phase_1,,,,,,,,,,,,,blue,cross
62.0,1.0,0.5,0,1.0,1.0,434.252023697,3.0,phase_1,,,,,,,,,,,,,orange,diamond
110.0,6.0,1.0,0,4.0,4.0,384.00602340700004,3.0,phase_1,,,,,,,,,,,,,green,triangle
115.0,2.0,1.0,1,2.0,2.0,350.82721710199996,3.0,phase_1,,,,,,,,,,,,,white,square
107.0,6.0,1.0,0,4.0,4.0,384.389162064,3.0,phase_1,,,,,,,,,,,,,green,triangle
175.0,7.0,2.0,1,4.0,4.0,384.058952332,3.0,phase_1,,,,,,,,,,,,,cyan,circle
118.0,2.0,1.0,1,2.0,2.0,401.15785598800005,3.0,phase_1,,,,,,,,,,,,,white,square
387.0,8.0,4.0,0,3.0,3.0,334.802150726,3.0,phase_1,,,,,,,,,,,,,yellow,flipped triangle
398.0,8.0,4.0,0,2.0,2.0,401.337862015,3.0,phase_1,,,,,,,,,,,,,yellow,flipped triangle
388.0,4.0,4.0,1,4.0,4.0,334.45906639099996,3.0,phase_1,,,,,,,,,,,,,gray,hexagon
0.0,6.0,0.0,0,1.0,1.0,434.32903289800004,3.0,phase_1,,,,,,,,,,,,,green,triangle
65.0,5.0,0.5,1,2.0,2.0,484.248876572,3.0,phase_1,,,,,,,,,,,,,blue,cross
410.0,8.0,4.0,0,4.0,4.0,334.43903923,3.0,phase_1,,,,,,,,,,,,,yellow,flipped triangle
116.0,2.0,1.0,1,1.0,1.0,367.395877838,3.0,phase_1,,,,,,,,,,,,,white,square
45.0,5.0,0.5,1,3.0,3.0,401.381015778,3.0,phase_1,,,,,,,,,,,,,blue,cross
413.0,4.0,4.0,1,4.0,4.0,350.86488723800005,3.0,phase_1,,,,,,,,,,,,,gray,hexagon
61.0,1.0,0.5,0,2.0,2.0,367.583036423,3.0,phase_1,,,,,,,,,,,,,orange,diamond
0.0,8.0,0.0,0,2.0,2.0,417.506217957,3.0,phase_1,,,,,,,,,,,,,yellow,flipped triangle
47.0,1.0,0.5,0,4.0,4.0,384.179830551,3.0,phase_1,,,,,,,,,,,,,orange,diamond
0.0,5.0,0.0,1,3.0,3.0,384.016990662,3.0,phase_1,,,,,,,,,,,,,blue,cross
0.0,6.0,0.0,0,2.0,2.0,384.673118591,3.0,phase_1,,,,,,,,,,,,,green,triangle
75.0,2.0,1.0,1,4.0,4.0,350.548028946,3.0,phase_1,,,,,,,,,,,,,white,square
0.0,2.0,0.0,1,4.0,4.0,367.55084991499996,3.0,phase_1,,,,,,,,,,,,,white,square
0.0,3.0,0.0,0,1.0,1.0,434.377193451,3.0,phase_1,,,,,,,,,,,,,magenta,line
405.0,8.0,4.0,0,4.0,4.0,351.034879684,3.0,phase_1,,,,,,,,,,,,,yellow,flipped triangle
46.0,5.0,0.5,1,4.0,4.0,351.015806198,3.0,phase_1,,,,,,,,,,,,,blue,cross
398.0,8.0,4.0,0,2.0,2.0,433.40587616,3.0,phase_1,,,,,,,,,,,,,yellow,flipped triangle
378.0,8.0,4.0,0,3.0,3.0,367.707967758,3.0,phase_1,,,,,,,,,,,,,yellow,flipped triangle
25.0,5.0,0.5,1,2.0,2.0,418.230056763,3.0,phase_1,,,,,,,,,,,,,blue,cross
39.0,1.0,0.5,0,4.0,4.0,350.844860077,3.0,phase_1,,,,,,,,,,,,,orange,diamond
0.0,1.0,0.0,0,1.0,1.0,367.44594574,3.0,phase_1,,,,,,,,,,,,,orange,diamond
0.0,4.0,0.0,1,1.0,1.0,434.560060501,3.0,phase_1,,,,,,,,,,,,,gray,hexagon
65.0,1.0,0.5,0,1.0,1.0,434.121131897,3.0,phase_1,,,,,,,,,,,,,orange,diamond
0.0,7.0,0.0,1,3.0,3.0,351.253986359,3.0,phase_1,,,,,,,,,,,,,cyan,circle
0.0,3.0,0.0,0,2.0,2.0,367.343902588,3.0,phase_1,,,,,,,,,,,,,magenta,line
112.0,2.0,1.0,1,2.0,2.0,350.931167603,3.0,phase_1,,,,,,,,,,,,,white,square
200.0,7.0,2.0,1,3.0,3.0,417.923927307,3.0,phase_1,,,,,,,,,,,,,cyan,circle
0.0,4.0,0.0,1,4.0,4.0,400.40707588199996,3.0,phase_1,,,,,,,,,,,,,gray,hexagon
69.0,1.0,0.5,0,1.0,1.0,350.76189041099997,3.0,phase_1,,,,,,,,,,,,,orange,diamond
0.0,3.0,0.0,0,3.0,3.0,351.042985916,3.0,phase_1,,,,,,,,,,,,,magenta,line
51.0,1.0,0.5,0,1.0,1.0,367.38491058299996,3.0,phase_1,,,,,,,,,,,,,orange,diamond
0.0,2.0,0.0,1,1.0,1.0,351.130008698,3.0,phase_1,,,,,,,,,,,,,white,square
49.0,5.0,0.5,1,4.0,4.0,350.826978683,3.0,phase_1,,,,,,,,,,,,,blue,cross
209.0,7.0,2.0,1,2.0,2.0,350.671052933,3.0,phase_1,,,,,,,,,,,,,cyan,circle
399.0,4.0,4.0,1,1.0,1.0,317.777872086,3.0,phase_1,,,,,,,,,,,,,gray,hexagon
106.0,6.0,1.0,0,2.0,2.0,317.651987076,3.0,phase_1,,,,,,,,,,,,,green,triangle
55.0,1.0,0.5,0,3.0,3.0,384.777069092,3.0,phase_1,,,,,,,,,,,,,orange,diamond
107.0,6.0,1.0,0,2.0,2.0,367.114067078,3.0,phase_1,,,,,,,,,,,,,green,triangle
0.0,1.0,0.0,0,4.0,4.0,367.643117905,3.0,phase_1,,,,,,,,,,,,,orange,diamond
73.0,1.0,0.5,0,2.0,2.0,367.340803146,3.0,phase_1,,,,,,,,,,,,,orange,diamond
0.0,2.0,0.0,1,1.0,1.0,368.086099625,3.0,phase_1,,,,,,,,,,,,,white,square
205.0,7.0,2.0,1,1.0,1.0,333.920001984,3.0,phase_1,,,,,,,,,,,,,cyan,circle
41.0,5.0,0.5,1,1.0,1.0,350.89802742,3.0,phase_1,,,,,,,,,,,,,blue,cross
0.0,3.0,0.0,0,2.0,2.0,333.82296562199997,3.0,phase_1,,,,,,,,,,,,,magenta,line
0.0,6.0,0.0,0,3.0,3.0,367.377996445,3.0,phase_1,,,,,,,,,,,,,green,triangle
422.0,4.0,4.0,1,1.0,1.0,350.951910019,3.0,phase_1,,,,,,,,,,,,,gray,hexagon
400.0,4.0,4.0,1,4.0,4.0,333.899021149,3.0,phase_1,,,,,,,,,,,,,gray,hexagon
117.0,2.0,1.0,1,2.0,2.0,300.801038742,3.0,phase_1,,,,,,,,,,,,,white,square
95.0,2.0,1.0,1,3.0,3.0,351.057052612,3.0,phase_1,,,,,,,,,,,,,white,square
415.0,4.0,4.0,1,3.0,3.0,350.476980209,3.0,phase_1,,,,,,,,,,,,,gray,hexagon
190.0,7.0,2.0,1,2.0,2.0,350.907802582,3.0,phase_1,,,,,,,,,,,,,cyan,circle
211.0,7.0,2.0,1,2.0,2.0,350.903987885,3.0,phase_1,,,,,,,,,,,,,cyan,circle
99.0,2.0,1.0,1,1.0,1.0,350.970983505,3.0,phase_1,,,,,,,,,,,,,white,square
49.0,5.0,0.5,1,3.0,3.0,350.821971893,3.0,phase_1,,,,,,,,,,,,,blue,cross
39.0,1.0,0.5,0,3.0,3.0,334.161996841,3.0,phase_1,,,,,,,,,,,,,orange,diamond
0.0,4.0,0.0,1,3.0,3.0,318.055152893,3.0,phase_1,,,,,,,,,,,,,gray,hexagon
221.0,7.0,2.0,1,3.0,3.0,317.538022995,3.0,phase_1,,,,,,,,,,,,,cyan,circle
207.0,7.0,2.0,1,3.0,3.0,317.97003746,3.0,phase_1,,,,,,,,,,,,,cyan,circle
0.0,4.0,0.0,1,2.0,2.0,401.403903961,3.0,phase_1,,,,,,,,,,,,,gray,hexagon
403.0,4.0,4.0,1,2.0,2.0,366.99795723,3.0,phase_1,,,,,,,,,,,,,gray,hexagon
414.0,4.0,4.0,1,3.0,3.0,367.438077927,3.0,phase_1,,,,,,,,,,,,,gray,hexagon
28.0,1.0,0.5,0,3.0,3.0,401.17788314800003,3.0,phase_1,,,,,,,,,,,,,orange,diamond
118.0,2.0,1.0,1,3.0,3.0,384.208202362,3.0,phase_1,,,,,,,,,,,,,white,square
379.0,8.0,4.0,0,1.0,1.0,400.64406395000003,3.0,phase_1,,,,,,,,,,,,,yellow,flipped triangle
397.0,4.0,4.0,1,1.0,1.0,384.263038635,3.0,phase_1,,,,,,,,,,,,,gray,hexagon
0.0,1.0,0.0,0,1.0,1.0,334.54108238199996,3.0,phase_1,,,,,,,,,,,,,orange,diamond
75.0,1.0,0.5,0,3.0,3.0,368.048906326,3.0,phase_1,,,,,,,,,,,,,orange,diamond
92.0,2.0,1.0,1,4.0,4.0,350.756168365,3.0,phase_1,,,,,,,,,,,,,white,square
110.0,6.0,1.0,0,3.0,3.0,400.923013687,3.0,phase_1,,,,,,,,,,,,,green,triangle
65.0,1.0,0.5,0,2.0,2.0,350.578069687,3.0,phase_1,,,,,,,,,,,,,orange,diamond
219.0,3.0,2.0,0,1.0,1.0,351.248979568,3.0,phase_1,,,,,,,,,,,,,magenta,line
123.0,6.0,1.0,0,3.0,3.0,367.82002449,3.0,phase_1,,,,,,,,,,,,,green,triangle
104.0,2.0,1.0,1,3.0,3.0,367.230892181,3.0,phase_1,,,,,,,,,,,,,white,square
179.0,7.0,2.0,1,3.0,3.0,368.082046509,3.0,phase_1,,,,,,,,,,,,,cyan,circle
58.0,1.0,0.5,0,1.0,1.0,417.60420799300005,3.0,phase_1,,,,,,,,,,,,,orange,diamond
184.0,7.0,2.0,1,1.0,1.0,400.650978088,3.0,phase_1,,,,,,,,,,,,,cyan,circle
44.0,5.0,0.5,1,2.0,2.0,400.20108223,3.0,phase_1,,,,,,,,,,,,,blue,cross
75.0,5.0,0.5,1,4.0,4.0,501.20306015000006,3.0,phase_1,,,,,,,,,,,,,blue,cross
0.0,1.0,0.0,0,4.0,4.0,367.40899086,3.0,phase_1,,,,,,,,,,,,,orange,diamond
101.0,6.0,1.0,0,4.0,4.0,400.653123856,3.0,phase_1,,,,,,,,,,,,,green,triangle
82.0,2.0,1.0,1,3.0,3.0,333.841085434,3.0,phase_1,,,,,,,,,,,,,white,square
422.0,8.0,4.0,0,4.0,4.0,401.061058044,3.0,phase_1,,,,,,,,,,,,,yellow,flipped triangle
206.0,3.0,2.0,0,4.0,4.0,368.06797981299997,3.0,phase_1,,,,,,,,,,,,,magenta,line
387.0,8.0,4.0,0,2.0,2.0,384.44590568499996,3.0,phase_1,,,,,,,,,,,,,yellow,flipped triangle
378.0,4.0,4.0,1,1.0,1.0,333.961963654,3.0,phase_1,,,,,,,,,,,,,gray,hexagon
0.0,8.0,0.0,0,1.0,1.0,351.00817680399996,3.0,phase_1,,,,,,,,,,,,,yellow,flipped triangle
0.0,7.0,0.0,1,4.0,4.0,367.742061615,3.0,phase_1,,,,,,,,,,,,,cyan,circle
0.0,7.0,0.0,1,4.0,4.0,367.931127548,3.0,phase_1,,,,,,,,,,,,,cyan,circle
0.0,4.0,0.0,1,2.0,2.0,367.349147797,3.0,phase_1,,,,,,,,,,,,,gray,hexagon
40.0,1.0,0.5,0,4.0,4.0,384.33098793,3.0,phase_1,,,,,,,,,,,,,orange,diamond
0.0,8.0,0.0,0,1.0,1.0,350.62694549599996,3.0,phase_1,,,,,,,,,,,,,yellow,flipped triangle
212.0,7.0,2.0,1,1.0,1.0,400.465011597,4.0,phase_1,,,,,,,,,,,,,cyan,circle
205.0,3.0,2.0,0,1.0,1.0,384.2420578,4.0,phase_1,,,,,,,,,,,,,magenta,line
48.0,1.0,0.5,0,3.0,3.0,367.080926895,4.0,phase_1,,,,,,,,,,,,,orange,diamond
36.0,1.0,0.5,0,2.0,2.0,367.270946503,4.0,phase_1,,,,,,,,,,,,,orange,diamond
194.0,3.0,2.0,0,4.0,4.0,300.82106590300003,4.0,phase_1,,,,,,,,,,,,,magenta,line
68.0,1.0,0.5,0,1.0,1.0,333.796977997,4.0,phase_1,,,,,,,,,,,,,orange,diamond
61.0,5.0,0.5,1,3.0,3.0,350.859880447,4.0,phase_1,,,,,,,,,,,,,blue,cross
89.0,2.0,1.0,1,1.0,1.0,317.17300415,4.0,phase_1,,,,,,,,,,,,,white,square
218.0,7.0,2.0,1,4.0,4.0,451.100111008,4.0,phase_1,,,,,,,,,,,,,cyan,circle
31.0,5.0,0.5,1,1.0,1.0,351.75204277,4.0,phase_1,,,,,,,,,,,,,blue,cross
0.0,7.0,0.0,1,2.0,2.0,384.55295562699996,4.0,phase_1,,,,,,,,,,,,,cyan,circle
26.0,5.0,0.5,1,2.0,2.0,367.808103561,4.0,phase_1,,,,,,,,,,,,,blue,cross
0.0,8.0,0.0,0,2.0,2.0,417.587995529,4.0,phase_1,,,,,,,,,,,,,yellow,flipped triangle
379.0,4.0,4.0,1,4.0,4.0,384.110212326,4.0,phase_1,,,,,,,,,,,,,gray,hexagon
205.0,7.0,2.0,1,4.0,4.0,400.763034821,4.0,phase_1,,,,,,,,,,,,,cyan,circle
0.0,7.0,0.0,1,3.0,3.0,351.132154465,4.0,phase_1,,,,,,,,,,,,,cyan,circle
0.0,2.0,0.0,1,4.0,4.0,350.685119629,4.0,phase_1,,,,,,,,,,,,,white,square
124.0,6.0,1.0,0,2.0,2.0,334.333896637,4.0,phase_1,,,,,,,,,,,,,green,triangle
100.0,2.0,1.0,1,2.0,2.0,417.495965958,4.0,phase_1,,,,,,,,,,,,,white,square
80.0,6.0,1.0,0,4.0,4.0,384.388923645,4.0,phase_1,,,,,,,,,,,,,green,triangle
0.0,5.0,0.0,1,2.0,2.0,350.778102875,4.0,phase_1,,,,,,,,,,,,,blue,cross
67.0,5.0,0.5,1,4.0,4.0,351.464986801,4.0,phase_1,,,,,,,,,,,,,blue,cross
394.0,8.0,4.0,0,4.0,4.0,333.889961243,4.0,phase_1,,,,,,,,,,,,,yellow,flipped triangle
61.0,1.0,0.5,0,1.0,1.0,351.266860962,4.0,phase_1,,,,,,,,,,,,,orange,diamond
413.0,4.0,4.0,1,3.0,3.0,400.650024414,4.0,phase_1,,,,,,,,,,,,,gray,hexagon
50.0,1.0,0.5,0,2.0,2.0,317.785978317,4.0,phase_1,,,,,,,,,,,,,orange,diamond
81.0,2.0,1.0,1,4.0,4.0,333.948135376,4.0,phase_1,,,,,,,,,,,,,white,square
64.0,1.0,0.5,0,4.0,4.0,367.19918251,4.0,phase_1,,,,,,,,,,,,,orange,diamond
122.0,2.0,1.0,1,1.0,1.0,334.233045578,4.0,phase_1,,,,,,,,,,,,,white,square
0.0,8.0,0.0,0,2.0,2.0,367.30504035900003,4.0,phase_1,,,,,,,,,,,,,yellow,flipped triangle
113.0,2.0,1.0,1,1.0,1.0,400.84195137,4.0,phase_1,,,,,,,,,,,,,white,square
54.0,5.0,0.5,1,1.0,1.0,367.31410026599997,4.0,phase_1,,,,,,,,,,,,,blue,cross
216.0,7.0,2.0,1,1.0,1.0,367.254972458,4.0,phase_1,,,,,,,,,,,,,cyan,circle
410.0,8.0,4.0,0,4.0,4.0,367.78688430799997,4.0,phase_1,,,,,,,,,,,,,yellow,flipped triangle
74.0,1.0,0.5,0,1.0,1.0,384.20581817600004,4.0,phase_1,,,,,,,,,,,,,orange,diamond
403.0,4.0,4.0,1,1.0,1.0,350.640058517,4.0,phase_1,,,,,,,,,,,,,gray,hexagon
30.0,5.0,0.5,1,3.0,3.0,384.027004242,4.0,phase_1,,,,,,,,,,,,,blue,cross
413.0,4.0,4.0,1,3.0,3.0,367.422819138,4.0,phase_1,,,,,,,,,,,,,gray,hexagon
44.0,5.0,0.5,1,4.0,4.0,350.889921188,4.0,phase_1,,,,,,,,,,,,,blue,cross
111.0,6.0,1.0,0,4.0,4.0,350.783109665,4.0,phase_1,,,,,,,,,,,,,green,triangle
0.0,5.0,0.0,1,1.0,1.0,350.660085678,4.0,phase_1,,,,,,,,,,,,,blue,cross
117.0,6.0,1.0,0,2.0,2.0,401.137113571,4.0,phase_1,,,,,,,,,,,,,green,triangle
387.0,8.0,4.0,0,1.0,1.0,366.657018661,4.0,phase_1,,,,,,,,,,,,,yellow,flipped triangle
0.0,8.0,0.0,0,3.0,3.0,401.313066483,4.0,phase_1,,,,,,,,,,,,,yellow,flipped triangle
93.0,6.0,1.0,0,2.0,2.0,384.350061417,4.0,phase_1,,,,,,,,,,,,,green,triangle
117.0,2.0,1.0,1,1.0,1.0,367.912054062,4.0,phase_1,,,,,,,,,,,,,white,square
223.0,3.0,2.0,0,3.0,3.0,367.197036743,4.0,phase_1,,,,,,,,,,,,,magenta,line
92.0,6.0,1.0,0,2.0,2.0,384.444952011,4.0,phase_1,,,,,,,,,,,,,green,triangle
0.0,8.0,0.0,0,2.0,2.0,334.30695533799997,4.0,phase_1,,,,,,,,,,,,,yellow,flipped triangle
419.0,8.0,4.0,0,2.0,2.0,333.994865417,4.0,phase_1,,,,,,,,,,,,,yellow,flipped triangle
405.0,4.0,4.0,1,3.0,3.0,400.801181793,4.0,phase_1,,,,,,,,,,,,,gray,hexagon
216.0,7.0,2.0,1,1.0,1.0,367.67601966899997,4.0,phase_1,,,,,,,,,,,,,cyan,circle
215.0,7.0,2.0,1,4.0,4.0,517.801046371,4.0,phase_1,,,,,,,,,,,,,cyan,circle
208.0,3.0,2.0,0,4.0,4.0,384.052991867,4.0,phase_1,,,,,,,,,,,,,magenta,line
202.0,3.0,2.0,0,3.0,3.0,384.281873703,4.0,phase_1,,,,,,,,,,,,,magenta,line
31.0,1.0,0.5,0,3.0,3.0,351.05681419399997,4.0,phase_1,,,,,,,,,,,,,orange,diamond
60.0,1.0,0.5,0,2.0,2.0,384.321928024,4.0,phase_1,,,,,,,,,,,,,orange,diamond
118.0,2.0,1.0,1,3.0,3.0,350.75902938800004,4.0,phase_1,,,,,,,,,,,,,white,square
212.0,7.0,2.0,1,4.0,4.0,333.74786377,4.0,phase_1,,,,,,,,,,,,,cyan,circle
0.0,4.0,0.0,1,4.0,4.0,317.17300415,4.0,phase_1,,,,,,,,,,,,,gray,hexagon
46.0,5.0,0.5,1,4.0,4.0,467.99993515,4.0,phase_1,,,,,,,,,,,,,blue,cross
204.0,7.0,2.0,1,3.0,3.0,418.116092682,4.0,phase_1,,,,,,,,,,,,,cyan,circle
377.0,8.0,4.0,0,3.0,3.0,367.839097977,4.0,phase_1,,,,,,,,,,,,,yellow,flipped triangle
196.0,3.0,2.0,0,3.0,3.0,384.047985077,4.0,phase_1,,,,,,,,,,,,,magenta,line
0.0,1.0,0.0,0,3.0,3.0,334.069013596,4.0,phase_1,,,,,,,,,,,,,orange,diamond
99.0,6.0,1.0,0,2.0,2.0,467.565059662,4.0,phase_1,,,,,,,,,,,,,green,triangle
34.0,5.0,0.5,1,1.0,1.0,434.409141541,4.0,phase_1,,,,,,,,,,,,,blue,cross
25.0,5.0,0.5,1,3.0,3.0,367.435932159,4.0,phase_1,,,,,,,,,,,,,blue,cross
75.0,6.0,1.0,0,2.0,2.0,400.887012482,4.0,phase_1,,,,,,,,,,,,,green,triangle
77.0,6.0,1.0,0,2.0,2.0,400.476932526,4.0,phase_1,,,,,,,,,,,,,green,triangle
74.0,5.0,0.5,1,2.0,2.0,383.738994598,4.0,phase_1,,,,,,,,,,,,,blue,cross
0.0,1.0,0.0,0,3.0,3.0,401.194810867,4.0,phase_1,,,,,,,,,,,,,orange,diamond
414.0,8.0,4.0,0,4.0,4.0,417.729854584,4.0,phase_1,,,,,,,,,,,,,yellow,flipped triangle
389.0,8.0,4.0,0,1.0,1.0,384.42492485,4.0,phase_1,,,,,,,,,,,,,yellow,flipped triangle
80.0,6.0,1.0,0,4.0,4.0,417.281866074,4.0,phase_1,,,,,,,,,,,,,green,triangle
416.0,4.0,4.0,1,3.0,3.0,417.43087768600003,4.0,phase_1,,,,,,,,,,,,,gray,hexagon
97.0,6.0,1.0,0,1.0,1.0,400.817871094,4.0,phase_1,,,,,,,,,,,,,green,triangle
91.0,6.0,1.0,0,3.0,3.0,367.352962494,4.0,phase_1,,,,,,,,,,,,,green,triangle
401.0,4.0,4.0,1,2.0,2.0,500.53596496599994,4.0,phase_1,,,,,,,,,,,,,gray,hexagon
396.0,4.0,4.0,1,1.0,1.0,418.19691658000005,4.0,phase_1,,,,,,,,,,,,,gray,hexagon
0.0,6.0,0.0,0,4.0,4.0,400.606870651,4.0,phase_1,,,,,,,,,,,,,green,triangle
179.0,3.0,2.0,0,2.0,2.0,367.398023605,4.0,phase_1,,,,,,,,,,,,,magenta,line
105.0,2.0,1.0,1,3.0,3.0,351.10592842100004,4.0,phase_1,,,,,,,,,,,,,white,square
421.0,4.0,4.0,1,1.0,1.0,367.698907852,4.0,phase_1,,,,,,,,,,,,,gray,hexagon
186.0,7.0,2.0,1,4.0,4.0,367.531061172,4.0,phase_1,,,,,,,,,,,,,cyan,circle
99.0,2.0,1.0,1,1.0,1.0,433.97903442399996,4.0,phase_1,,,,,,,,,,,,,white,square
116.0,2.0,1.0,1,1.0,1.0,400.875091553,4.0,phase_1,,,,,,,,,,,,,white,square
194.0,7.0,2.0,1,2.0,2.0,401.108980179,4.0,phase_1,,,,,,,,,,,,,cyan,circle
0.0,5.0,0.0,1,3.0,3.0,367.616176605,4.0,phase_1,,,,,,,,,,,,,blue,cross
0.0,3.0,0.0,0,4.0,4.0,401.051044464,4.0,phase_1,,,,,,,,,,,,,magenta,line
64.0,1.0,0.5,0,4.0,4.0,384.338140488,4.0,phase_1,,,,,,,,,,,,,orange,diamond
27.0,5.0,0.5,1,4.0,4.0,335.015058517,4.0,phase_1,,,,,,,,,,,,,blue,cross
121.0,2.0,1.0,1,3.0,3.0,350.803852081,4.0,phase_1,,,,,,,,,,,,,white,square
0.0,2.0,0.0,1,3.0,3.0,350.653886795,4.0,phase_1,,,,,,,,,,,,,white,square
39.0,5.0,0.5,1,1.0,1.0,417.461872101,4.0,phase_1,,,,,,,,,,,,,blue,cross
384.0,8.0,4.0,0,2.0,2.0,401.02696418799997,4.0,phase_1,,,,,,,,,,,,,yellow,flipped triangle
197.0,3.0,2.0,0,1.0,1.0,384.480953217,4.0,phase_1,,,,,,,,,,,,,magenta,line
404.0,4.0,4.0,1,2.0,2.0,350.82602500900003,4.0,phase_1,,,,,,,,,,,,,gray,hexagon
92.0,2.0,1.0,1,3.0,3.0,367.240905762,4.0,phase_1,,,,,,,,,,,,,white,square
0.0,6.0,0.0,0,2.0,2.0,383.74710083,4.0,phase_1,,,,,,,,,,,,,green,triangle
0.0,1.0,0.5,0,6.0,6.0,535.083055496,1.0,phase_2,go,250.0,250.0,1.0,,,,,,,,,orange,diamond
0.0,6.0,1.0,0,6.0,6.0,450.90985298199996,1.0,phase_2,go,250.0,250.0,1.0,,,,,,,,,green,triangle
0.0,8.0,4.0,0,6.0,6.0,451.213121414,1.0,phase_2,go,250.0,250.0,1.0,,,,,,,,,yellow,flipped triangle
0.0,3.0,2.0,0,5.0,5.0,417.697906494,1.0,phase_2,go,250.0,250.0,1.0,,,,,,,,,magenta,line
0.0,8.0,4.0,0,6.0,6.0,400.949001312,1.0,phase_2,go,250.0,250.0,1.0,,,,,,,,,yellow,flipped triangle
0.0,7.0,2.0,1,5.0,5.0,317.12198257399996,1.0,phase_2,go,250.0,250.0,1.0,,,,,,,,,cyan,circle
0.0,8.0,4.0,0,5.0,5.0,384.200811386,1.0,phase_2,go,250.0,250.0,1.0,,,,,,,,,yellow,flipped triangle
0.0,4.0,4.0,1,6.0,6.0,400.88796615599995,1.0,phase_2,stop,250.0,250.0,3.0,,,,,,,,,gray,hexagon
0.0,1.0,0.5,0,6.0,6.0,584.531068802,1.0,phase_2,go,250.0,250.0,1.0,,,,,,,,,orange,diamond
0.0,2.0,1.0,1,6.0,6.0,600.742101669,1.0,phase_2,go,250.0,250.0,1.0,,,,,,,,,white,square
0.0,7.0,2.0,1,6.0,0.0,,1.0,phase_2,stop,250.0,200.0,4.0,,,,,,,,,cyan,circle
0.0,6.0,1.0,0,6.0,6.0,567.746162415,1.0,phase_2,go,250.0,200.0,1.0,,,,,,,,,green,triangle
0.0,3.0,2.0,0,6.0,6.0,418.193101883,1.0,phase_2,go,250.0,200.0,1.0,,,,,,,,,magenta,line
0.0,7.0,2.0,1,5.0,5.0,367.251157761,1.0,phase_2,go,250.0,200.0,1.0,,,,,,,,,cyan,circle
0.0,7.0,2.0,1,5.0,5.0,367.395877838,1.0,phase_2,stop,250.0,200.0,3.0,,,,,,,,,cyan,circle
0.0,1.0,0.5,0,5.0,5.0,551.162004471,1.0,phase_2,go,250.0,200.0,1.0,,,,,,,,,orange,diamond
0.0,5.0,0.5,1,5.0,0.0,,1.0,phase_2,stop,200.0,200.0,4.0,,,,,,,,,blue,cross
0.0,4.0,4.0,1,5.0,5.0,401.028871536,1.0,phase_2,stop,250.0,200.0,3.0,,,,,,,,,gray,hexagon
0.0,7.0,2.0,1,6.0,6.0,400.776863098,1.0,phase_2,go,250.0,200.0,1.0,,,,,,,,,cyan,circle
0.0,2.0,1.0,1,5.0,0.0,,1.0,phase_2,stop,200.0,200.0,4.0,,,,,,,,,white,square
0.0,2.0,1.0,1,6.0,6.0,550.487041473,1.0,phase_2,stop,200.0,250.0,3.0,,,,,,,,,white,square
0.0,6.0,1.0,0,5.0,5.0,684.653997421,1.0,phase_2,go,200.0,250.0,1.0,,,,,,,,,green,triangle
0.0,3.0,2.0,0,5.0,5.0,417.483091354,1.0,phase_2,go,200.0,250.0,1.0,,,,,,,,,magenta,line
0.0,5.0,0.5,1,5.0,5.0,601.6709804530001,1.0,phase_2,go,200.0,250.0,1.0,,,,,,,,,blue,cross
0.0,6.0,1.0,0,6.0,6.0,384.001016617,1.0,phase_2,go,200.0,250.0,1.0,,,,,,,,,green,triangle
0.0,7.0,2.0,1,6.0,0.0,,1.0,phase_2,stop,200.0,200.0,4.0,,,,,,,,,cyan,circle
0.0,4.0,4.0,1,6.0,0.0,,1.0,phase_2,stop,200.0,250.0,4.0,,,,,,,,,gray,hexagon
0.0,5.0,0.5,1,5.0,5.0,484.009981155,1.0,phase_2,stop,250.0,250.0,3.0,,,,,,,,,blue,cross
0.0,2.0,1.0,1,5.0,0.0,,1.0,phase_2,stop,200.0,250.0,4.0,,,,,,,,,white,square
0.0,8.0,4.0,0,6.0,6.0,384.312868118,1.0,phase_2,go,200.0,250.0,1.0,,,,,,,,,yellow,flipped triangle
0.0,2.0,1.0,1,5.0,5.0,534.013032913,1.0,phase_2,go,200.0,250.0,1.0,,,,,,,,,white,square
0.0,5.0,0.5,1,6.0,0.0,,1.0,phase_2,stop,200.0,300.0,4.0,,,,,,,,,blue,cross
0.0,2.0,1.0,1,6.0,6.0,734.335184097,1.0,phase_2,go,200.0,300.0,1.0,,,,,,,,,white,square
0.0,7.0,2.0,1,5.0,5.0,500.79607963600006,1.0,phase_2,go,200.0,300.0,1.0,,,,,,,,,cyan,circle
0.0,4.0,4.0,1,5.0,5.0,434.25321578999996,1.0,phase_2,go,200.0,300.0,1.0,,,,,,,,,gray,hexagon
0.0,2.0,1.0,1,5.0,0.0,,1.0,phase_2,stop,250.0,300.0,4.0,,,,,,,,,white,square
0.0,8.0,4.0,0,5.0,5.0,551.1319637299999,2.0,phase_2,go,250.0,300.0,1.0,,,,,,,,,yellow,flipped triangle
0.0,5.0,0.5,1,5.0,5.0,367.357969284,2.0,phase_2,stop,300.0,300.0,3.0,,,,,,,,,blue,cross
0.0,7.0,2.0,1,6.0,6.0,551.411867142,2.0,phase_2,stop,300.0,350.0,3.0,,,,,,,,,cyan,circle
0.0,1.0,0.5,0,6.0,6.0,451.104879379,2.0,phase_2,go,300.0,350.0,1.0,,,,,,,,,orange,diamond
0.0,1.0,0.5,0,5.0,5.0,450.747966766,2.0,phase_2,go,300.0,350.0,1.0,,,,,,,,,orange,diamond
0.0,4.0,4.0,1,6.0,6.0,467.300891876,2.0,phase_2,stop,300.0,300.0,3.0,,,,,,,,,gray,hexagon
0.0,5.0,0.5,1,5.0,0.0,,2.0,phase_2,stop,250.0,300.0,4.0,,,,,,,,,blue,cross
0.0,2.0,1.0,1,5.0,0.0,,2.0,phase_2,stop,300.0,300.0,4.0,,,,,,,,,white,square
0.0,7.0,2.0,1,6.0,0.0,,2.0,phase_2,stop,300.0,250.0,4.0,,,,,,,,,cyan,circle
0.0,5.0,0.5,1,6.0,6.0,483.947038651,2.0,phase_2,stop,300.0,300.0,3.0,,,,,,,,,blue,cross
0.0,6.0,1.0,0,5.0,5.0,601.243972778,2.0,phase_2,go,300.0,300.0,1.0,,,,,,,,,green,triangle
0.0,2.0,1.0,1,5.0,5.0,417.98210143999995,2.0,phase_2,stop,350.0,300.0,3.0,,,,,,,,,white,square
0.0,8.0,4.0,0,5.0,5.0,750.5528926850001,2.0,phase_2,go,350.0,300.0,1.0,,,,,,,,,yellow,flipped triangle
0.0,3.0,2.0,0,5.0,5.0,583.9738845830001,2.0,phase_2,go,350.0,300.0,1.0,,,,,,,,,magenta,line
0.0,7.0,2.0,1,5.0,5.0,400.26402473400003,2.0,phase_2,stop,300.0,300.0,3.0,,,,,,,,,cyan,circle
0.0,8.0,4.0,0,6.0,6.0,567.3780441279999,2.0,phase_2,go,300.0,300.0,1.0,,,,,,,,,yellow,flipped triangle
0.0,5.0,0.5,1,5.0,5.0,467.84496307399996,2.0,phase_2,stop,250.0,300.0,3.0,,,,,,,,,blue,cross
0.0,4.0,4.0,1,5.0,0.0,,2.0,phase_2,stop,200.0,300.0,4.0,,,,,,,,,gray,hexagon
0.0,7.0,2.0,1,6.0,0.0,,2.0,phase_2,stop,200.0,250.0,4.0,,,,,,,,,cyan,circle
0.0,1.0,0.5,0,5.0,5.0,450.72197914099996,2.0,phase_2,go,200.0,250.0,1.0,,,,,,,,,orange,diamond
0.0,1.0,0.5,0,5.0,5.0,384.04083252,2.0,phase_2,go,200.0,250.0,1.0,,,,,,,,,orange,diamond
0.0,7.0,2.0,1,6.0,6.0,618.024110794,2.0,phase_2,stop,200.0,300.0,3.0,,,,,,,,,cyan,circle
0.0,2.0,1.0,1,6.0,6.0,517.89689064,2.0,phase_2,go,200.0,300.0,1.0,,,,,,,,,white,square
0.0,1.0,0.5,0,6.0,6.0,451.206207275,2.0,phase_2,go,200.0,300.0,1.0,,,,,,,,,orange,diamond
0.0,7.0,2.0,1,6.0,0.0,,2.0,phase_2,stop,200.0,250.0,4.0,,,,,,,,,cyan,circle
0.0,1.0,0.5,0,6.0,6.0,501.190900803,2.0,phase_2,go,200.0,250.0,1.0,,,,,,,,,orange,diamond
0.0,5.0,0.5,1,6.0,0.0,,2.0,phase_2,stop,200.0,300.0,4.0,,,,,,,,,blue,cross
0.0,4.0,4.0,1,5.0,5.0,568.149089813,2.0,phase_2,go,200.0,300.0,1.0,,,,,,,,,gray,hexagon
0.0,3.0,2.0,0,5.0,5.0,467.85902977,2.0,phase_2,go,200.0,300.0,1.0,,,,,,,,,magenta,line
0.0,3.0,2.0,0,5.0,5.0,417.273044586,2.0,phase_2,go,200.0,300.0,1.0,,,,,,,,,magenta,line
0.0,7.0,2.0,1,6.0,0.0,,2.0,phase_2,stop,200.0,350.0,4.0,,,,,,,,,cyan,circle
0.0,2.0,1.0,1,6.0,6.0,567.389965057,2.0,phase_2,stop,200.0,400.0,3.0,,,,,,,,,white,square
0.0,8.0,4.0,0,5.0,5.0,501.124858856,2.0,phase_2,go,200.0,400.0,1.0,,,,,,,,,yellow,flipped triangle
0.0,1.0,0.5,0,6.0,6.0,684.65590477,2.0,phase_2,go,200.0,400.0,1.0,,,,,,,,,orange,diamond
0.0,3.0,2.0,0,6.0,6.0,551.162004471,2.0,phase_2,go,200.0,400.0,1.0,,,,,,,,,magenta,line
0.0,4.0,4.0,1,6.0,6.0,468.081951141,2.0,phase_2,go,200.0,400.0,1.0,,,,,,,,,gray,hexagon
0.0,7.0,2.0,1,6.0,6.0,400.937080383,3.0,phase_2,stop,200.0,350.0,3.0,,,,,,,,,cyan,circle
0.0,7.0,2.0,1,6.0,6.0,484.552145004,3.0,phase_2,go,200.0,350.0,1.0,,,,,,,,,cyan,circle
0.0,6.0,1.0,0,5.0,5.0,434.56101417499997,3.0,phase_2,go,200.0,350.0,1.0,,,,,,,,,green,triangle
0.0,8.0,4.0,0,5.0,5.0,417.030096054,3.0,phase_2,go,200.0,350.0,1.0,,,,,,,,,yellow,flipped triangle
0.0,8.0,4.0,0,6.0,6.0,517.439842224,3.0,phase_2,go,200.0,350.0,1.0,,,,,,,,,yellow,flipped triangle
0.0,2.0,1.0,1,5.0,5.0,384.286880493,3.0,phase_2,stop,250.0,350.0,3.0,,,,,,,,,white,square
0.0,3.0,2.0,0,6.0,6.0,533.848047256,3.0,phase_2,go,250.0,350.0,1.0,,,,,,,,,magenta,line
0.0,2.0,1.0,1,5.0,5.0,334.052085876,3.0,phase_2,stop,200.0,350.0,3.0,,,,,,,,,white,square
0.0,1.0,0.5,0,5.0,5.0,534.213066101,3.0,phase_2,go,200.0,350.0,1.0,,,,,,,,,orange,diamond
0.0,5.0,0.5,1,6.0,6.0,534.50012207,3.0,phase_2,stop,200.0,300.0,3.0,,,,,,,,,blue,cross
0.0,1.0,0.5,0,5.0,5.0,467.504024506,3.0,phase_2,go,200.0,300.0,1.0,,,,,,,,,orange,diamond
0.0,2.0,1.0,1,5.0,0.0,,3.0,phase_2,stop,150.0,300.0,4.0,,,,,,,,,white,square
0.0,1.0,0.5,0,5.0,5.0,534.693002701,3.0,phase_2,go,150.0,300.0,1.0,,,,,,,,,orange,diamond
0.0,2.0,1.0,1,6.0,0.0,,3.0,phase_2,stop,150.0,250.0,4.0,,,,,,,,,white,square
0.0,6.0,1.0,0,5.0,5.0,434.016227722,3.0,phase_2,go,150.0,250.0,1.0,,,,,,,,,green,triangle
0.0,4.0,4.0,1,5.0,0.0,,3.0,phase_2,stop,200.0,250.0,4.0,,,,,,,,,gray,hexagon
0.0,5.0,0.5,1,6.0,6.0,434.308052063,3.0,phase_2,stop,200.0,300.0,3.0,,,,,,,,,blue,cross
0.0,5.0,0.5,1,6.0,0.0,,3.0,phase_2,stop,200.0,250.0,4.0,,,,,,,,,blue,cross
0.0,7.0,2.0,1,5.0,0.0,,3.0,phase_2,stop,250.0,250.0,4.0,,,,,,,,,cyan,circle
0.0,1.0,0.5,0,5.0,5.0,617.9170608520001,3.0,phase_2,go,250.0,250.0,1.0,,,,,,,,,orange,diamond
0.0,1.0,0.5,0,6.0,6.0,400.388002396,3.0,phase_2,go,250.0,250.0,1.0,,,,,,,,,orange,diamond
0.0,5.0,0.5,1,6.0,6.0,417.747020721,3.0,phase_2,stop,250.0,300.0,3.0,,,,,,,,,blue,cross
0.0,5.0,0.5,1,5.0,5.0,617.5401210780001,3.0,phase_2,go,250.0,300.0,1.0,,,,,,,,,blue,cross
0.0,3.0,2.0,0,6.0,6.0,517.306089401,3.0,phase_2,go,250.0,300.0,1.0,,,,,,,,,magenta,line
0.0,5.0,0.5,1,5.0,5.0,600.491046906,3.0,phase_2,stop,300.0,300.0,3.0,,,,,,,,,blue,cross
0.0,4.0,4.0,1,6.0,6.0,551.1400699620001,3.0,phase_2,stop,300.0,250.0,3.0,,,,,,,,,gray,hexagon
0.0,5.0,0.5,1,5.0,5.0,467.600107193,3.0,phase_2,stop,250.0,250.0,3.0,,,,,,,,,blue,cross
0.0,1.0,0.5,0,6.0,6.0,534.333944321,3.0,phase_2,go,250.0,250.0,1.0,,,,,,,,,orange,diamond
0.0,6.0,1.0,0,6.0,6.0,533.8869094849999,3.0,phase_2,go,250.0,250.0,1.0,,,,,,,,,green,triangle
0.0,2.0,1.0,1,6.0,0.0,,3.0,phase_2,stop,250.0,200.0,4.0,,,,,,,,,white,square
0.0,8.0,4.0,0,6.0,6.0,601.14812851,3.0,phase_2,go,250.0,200.0,1.0,,,,,,,,,yellow,flipped triangle
0.0,1.0,0.5,0,5.0,5.0,384.29093360900004,3.0,phase_2,go,250.0,200.0,1.0,,,,,,,,,orange,diamond
0.0,5.0,0.5,1,5.0,5.0,567.855834961,3.0,phase_2,stop,200.0,200.0,3.0,,,,,,,,,blue,cross
0.0,1.0,0.5,0,6.0,6.0,433.85791778600003,3.0,phase_2,go,200.0,200.0,1.0,,,,,,,,,orange,diamond
0.0,5.0,0.5,1,5.0,5.0,467.93794632000004,3.0,phase_2,stop,150.0,200.0,3.0,,,,,,,,,blue,cross
0.0,7.0,2.0,1,6.0,0.0,,3.0,phase_2,stop,150.0,250.0,4.0,,,,,,,,,cyan,circle
0.0,4.0,4.0,1,5.0,5.0,400.520086288,4.0,phase_2,go,150.0,250.0,1.0,,,,,,,,,gray,hexagon
0.0,4.0,4.0,1,5.0,5.0,534.503936768,4.0,phase_2,stop,100.0,250.0,3.0,,,,,,,,,gray,hexagon
0.0,6.0,1.0,0,6.0,6.0,467.962026596,4.0,phase_2,go,100.0,250.0,1.0,,,,,,,,,green,triangle
0.0,6.0,1.0,0,6.0,6.0,517.513990402,4.0,phase_2,go,100.0,250.0,1.0,,,,,,,,,green,triangle
0.0,5.0,0.5,1,5.0,5.0,434.12494659400005,4.0,phase_2,go,100.0,250.0,1.0,,,,,,,,,blue,cross
0.0,4.0,4.0,1,6.0,6.0,551.43904686,4.0,phase_2,go,100.0,250.0,1.0,,,,,,,,,gray,hexagon
0.0,2.0,1.0,1,6.0,6.0,401.072025299,4.0,phase_2,stop,100.0,300.0,3.0,,,,,,,,,white,square
0.0,5.0,0.5,1,6.0,6.0,417.536973953,4.0,phase_2,go,100.0,300.0,1.0,,,,,,,,,blue,cross
0.0,5.0,0.5,1,5.0,0.0,,4.0,phase_2,stop,50.0,300.0,4.0,,,,,,,,,blue,cross
0.0,1.0,0.5,0,6.0,6.0,534.548044205,4.0,phase_2,go,50.0,300.0,1.0,,,,,,,,,orange,diamond
0.0,3.0,2.0,0,6.0,6.0,434.576034546,4.0,phase_2,go,50.0,300.0,1.0,,,,,,,,,magenta,line
0.0,4.0,4.0,1,5.0,5.0,434.25488472,4.0,phase_2,stop,100.0,300.0,3.0,,,,,,,,,gray,hexagon
0.0,5.0,0.5,1,5.0,0.0,,4.0,phase_2,stop,50.0,300.0,4.0,,,,,,,,,blue,cross
0.0,6.0,1.0,0,5.0,5.0,501.54995918300006,4.0,phase_2,go,50.0,300.0,1.0,,,,,,,,,green,triangle
0.0,3.0,2.0,0,6.0,6.0,384.332895279,4.0,phase_2,go,50.0,300.0,1.0,,,,,,,,,magenta,line
0.0,5.0,0.5,1,6.0,6.0,401.046991348,4.0,phase_2,stop,50.0,250.0,3.0,,,,,,,,,blue,cross
0.0,5.0,0.5,1,5.0,0.0,,4.0,phase_2,stop,100.0,250.0,4.0,,,,,,,,,blue,cross
0.0,7.0,2.0,1,5.0,0.0,,4.0,phase_2,stop,150.0,250.0,4.0,,,,,,,,,cyan,circle
0.0,3.0,2.0,0,5.0,5.0,667.438983917,4.0,phase_2,go,150.0,250.0,1.0,,,,,,,,,magenta,line
0.0,4.0,4.0,1,6.0,6.0,567.977190018,4.0,phase_2,go,150.0,250.0,1.0,,,,,,,,,gray,hexagon
0.0,7.0,2.0,1,6.0,6.0,484.222888947,4.0,phase_2,stop,150.0,200.0,3.0,,,,,,,,,cyan,circle
0.0,8.0,4.0,0,5.0,5.0,550.804138184,4.0,phase_2,go,150.0,200.0,1.0,,,,,,,,,yellow,flipped triangle
0.0,2.0,1.0,1,6.0,0.0,,4.0,phase_2,stop,150.0,150.0,4.0,,,,,,,,,white,square
0.0,5.0,0.5,1,6.0,6.0,501.346111298,4.0,phase_2,go,150.0,150.0,1.0,,,,,,,,,blue,cross
0.0,3.0,2.0,0,6.0,6.0,400.62212944,4.0,phase_2,go,150.0,150.0,1.0,,,,,,,,,magenta,line
0.0,1.0,0.5,0,5.0,5.0,518.2039737700001,4.0,phase_2,go,150.0,150.0,1.0,,,,,,,,,orange,diamond
0.0,4.0,4.0,1,5.0,5.0,500.97513198900003,4.0,phase_2,stop,200.0,150.0,3.0,,,,,,,,,gray,hexagon
0.0,6.0,1.0,0,6.0,6.0,617.511987686,4.0,phase_2,go,200.0,150.0,1.0,,,,,,,,,green,triangle
0.0,3.0,2.0,0,5.0,5.0,400.412082672,4.0,phase_2,go,200.0,150.0,1.0,,,,,,,,,magenta,line
0.0,1.0,0.5,0,5.0,5.0,433.863162994,4.0,phase_2,go,200.0,150.0,1.0,,,,,,,,,orange,diamond
0.0,5.0,0.5,1,6.0,6.0,317.621946335,4.0,phase_2,stop,200.0,200.0,3.0,,,,,,,,,blue,cross
0.0,8.0,4.0,0,6.0,6.0,501.029014587,4.0,phase_2,go,200.0,200.0,1.0,,,,,,,,,yellow,flipped triangle
0.0,7.0,2.0,1,5.0,0.0,,4.0,phase_2,stop,150.0,200.0,4.0,,,,,,,,,cyan,circle
0.0,5.0,0.5,1,5.0,5.0,484.51495170600003,4.0,phase_2,go,150.0,200.0,1.0,,,,,,,,,blue,cross
0.0,8.0,4.0,0,6.0,6.0,500.450134277,4.0,phase_2,go,150.0,200.0,1.0,,,,,,,,,yellow,flipped triangle
0.0,8.0,4.0,0,5.0,5.0,434.09991264300004,4.0,phase_2,go,150.0,200.0,1.0,,,,,,,,,yellow,flipped triangle
0.0,8.0,4.0,0,5.0,5.0,367.578983307,5.0,phase_2,go,150.0,200.0,1.0,,,,,,,,,yellow,flipped triangle
0.0,6.0,1.0,0,5.0,5.0,383.93497467,5.0,phase_2,go,150.0,200.0,1.0,,,,,,,,,green,triangle
0.0,3.0,2.0,0,6.0,6.0,367.21086502099996,5.0,phase_2,go,150.0,200.0,1.0,,,,,,,,,magenta,line
0.0,8.0,4.0,0,6.0,6.0,367.256879807,5.0,phase_2,go,150.0,200.0,1.0,,,,,,,,,yellow,flipped triangle
0.0,7.0,2.0,1,5.0,5.0,350.754022598,5.0,phase_2,go,150.0,200.0,1.0,,,,,,,,,cyan,circle
0.0,3.0,2.0,0,6.0,6.0,400.83193779,5.0,phase_2,go,150.0,200.0,1.0,,,,,,,,,magenta,line
0.0,8.0,4.0,0,6.0,6.0,384.686946869,5.0,phase_2,go,150.0,200.0,1.0,,,,,,,,,yellow,flipped triangle
0.0,6.0,1.0,0,5.0,5.0,349.996089935,5.0,phase_2,go,150.0,200.0,1.0,,,,,,,,,green,triangle
0.0,3.0,2.0,0,5.0,5.0,350.02899169899996,5.0,phase_2,go,150.0,200.0,1.0,,,,,,,,,magenta,line
0.0,1.0,0.5,0,6.0,6.0,367.573976517,5.0,phase_2,go,150.0,200.0,1.0,,,,,,,,,orange,diamond
0.0,2.0,1.0,1,5.0,5.0,317.563056946,5.0,phase_2,stop,200.0,200.0,3.0,,,,,,,,,white,square
0.0,2.0,1.0,1,5.0,5.0,384.433984756,5.0,phase_2,go,200.0,200.0,1.0,,,,,,,,,white,square
0.0,8.0,4.0,0,5.0,5.0,367.337942123,5.0,phase_2,go,200.0,200.0,1.0,,,,,,,,,yellow,flipped triangle
0.0,1.0,0.5,0,6.0,6.0,384.022951126,5.0,phase_2,go,200.0,200.0,1.0,,,,,,,,,orange,diamond
0.0,2.0,1.0,1,5.0,0.0,,5.0,phase_2,stop,150.0,200.0,4.0,,,,,,,,,white,square
0.0,4.0,4.0,1,5.0,0.0,,5.0,phase_2,stop,200.0,200.0,4.0,,,,,,,,,gray,hexagon
0.0,2.0,1.0,1,5.0,0.0,,5.0,phase_2,stop,250.0,200.0,4.0,,,,,,,,,white,square
0.0,6.0,1.0,0,6.0,6.0,534.203052521,5.0,phase_2,go,250.0,200.0,1.0,,,,,,,,,green,triangle
0.0,8.0,4.0,0,5.0,5.0,334.100008011,5.0,phase_2,go,250.0,200.0,1.0,,,,,,,,,yellow,flipped triangle
0.0,4.0,4.0,1,6.0,6.0,350.64291954,5.0,phase_2,stop,250.0,150.0,3.0,,,,,,,,,gray,hexagon
0.0,8.0,4.0,0,6.0,6.0,484.391212463,5.0,phase_2,go,250.0,150.0,1.0,,,,,,,,,yellow,flipped triangle
0.0,5.0,0.5,1,6.0,6.0,517.608880997,5.0,phase_2,go,250.0,150.0,1.0,,,,,,,,,blue,cross
0.0,6.0,1.0,0,6.0,6.0,367.402791977,5.0,phase_2,go,250.0,150.0,1.0,,,,,,,,,green,triangle
0.0,6.0,1.0,0,5.0,5.0,400.60400962800003,5.0,phase_2,go,250.0,150.0,1.0,,,,,,,,,green,triangle
0.0,4.0,4.0,1,6.0,0.0,,5.0,phase_2,stop,250.0,100.0,4.0,,,,,,,,,gray,hexagon
0.0,2.0,1.0,1,5.0,5.0,517.716169357,5.0,phase_2,stop,300.0,100.0,3.0,,,,,,,,,white,square
0.0,7.0,2.0,1,6.0,6.0,400.105953217,5.0,phase_2,go,300.0,100.0,1.0,,,,,,,,,cyan,circle
0.0,1.0,0.5,0,6.0,6.0,484.603881836,5.0,phase_2,go,300.0,100.0,1.0,,,,,,,,,orange,diamond
0.0,3.0,2.0,0,6.0,6.0,417.98901557899995,5.0,phase_2,go,300.0,100.0,1.0,,,,,,,,,magenta,line
0.0,6.0,1.0,0,5.0,5.0,333.84704589800003,5.0,phase_2,go,300.0,100.0,1.0,,,,,,,,,green,triangle
0.0,1.0,0.5,0,6.0,6.0,333.873033524,5.0,phase_2,go,300.0,100.0,1.0,,,,,,,,,orange,diamond
0.0,6.0,1.0,0,5.0,5.0,334.234952927,5.0,phase_2,go,300.0,100.0,1.0,,,,,,,,,green,triangle
0.0,3.0,2.0,0,6.0,6.0,334.47504043600003,5.0,phase_2,go,300.0,100.0,1.0,,,,,,,,,magenta,line
0.0,6.0,1.0,0,5.0,5.0,333.914995193,5.0,phase_2,go,300.0,100.0,1.0,,,,,,,,,green,triangle
0.0,1.0,0.5,0,5.0,5.0,384.341001511,5.0,phase_2,go,300.0,100.0,1.0,,,,,,,,,orange,diamond
0.0,2.0,1.0,1,6.0,0.0,,5.0,phase_2,stop,300.0,150.0,4.0,,,,,,,,,white,square
0.0,7.0,2.0,1,6.0,6.0,367.18988418600003,6.0,phase_2,stop,300.0,200.0,3.0,,,,,,,,,cyan,circle
0.0,7.0,2.0,1,5.0,5.0,500.879049301,6.0,phase_2,go,300.0,200.0,1.0,,,,,,,,,cyan,circle
0.0,7.0,2.0,1,5.0,5.0,349.920034409,6.0,phase_2,stop,250.0,200.0,3.0,,,,,,,,,cyan,circle
0.0,3.0,2.0,0,5.0,5.0,384.243965149,6.0,phase_2,go,250.0,200.0,1.0,,,,,,,,,magenta,line
0.0,2.0,1.0,1,6.0,6.0,367.35916137699996,6.0,phase_2,go,250.0,200.0,1.0,,,,,,,,,white,square
0.0,8.0,4.0,0,6.0,6.0,434.135913849,6.0,phase_2,go,250.0,200.0,1.0,,,,,,,,,yellow,flipped triangle
0.0,6.0,1.0,0,6.0,6.0,367.463827133,6.0,phase_2,go,250.0,200.0,1.0,,,,,,,,,green,triangle
0.0,5.0,0.5,1,6.0,6.0,450.653076172,6.0,phase_2,stop,250.0,150.0,3.0,,,,,,,,,blue,cross
0.0,5.0,0.5,1,6.0,0.0,,6.0,phase_2,stop,250.0,100.0,4.0,,,,,,,,,blue,cross
0.0,1.0,0.5,0,5.0,5.0,417.077064514,6.0,phase_2,go,250.0,100.0,1.0,,,,,,,,,orange,diamond
0.0,5.0,0.5,1,6.0,6.0,350.764989853,6.0,phase_2,stop,250.0,150.0,3.0,,,,,,,,,blue,cross
0.0,6.0,1.0,0,5.0,5.0,351.137876511,6.0,phase_2,go,250.0,150.0,1.0,,,,,,,,,green,triangle
0.0,8.0,4.0,0,5.0,5.0,417.834997177,6.0,phase_2,go,250.0,150.0,1.0,,,,,,,,,yellow,flipped triangle
0.0,4.0,4.0,1,6.0,0.0,,6.0,phase_2,stop,250.0,100.0,4.0,,,,,,,,,gray,hexagon
0.0,8.0,4.0,0,5.0,5.0,417.568922043,6.0,phase_2,go,250.0,100.0,1.0,,,,,,,,,yellow,flipped triangle
0.0,4.0,4.0,1,5.0,0.0,,6.0,phase_2,stop,200.0,100.0,4.0,,,,,,,,,gray,hexagon
0.0,1.0,0.5,0,6.0,6.0,484.27605629,6.0,phase_2,go,200.0,100.0,1.0,,,,,,,,,orange,diamond
0.0,3.0,2.0,0,6.0,6.0,433.794021606,6.0,phase_2,go,200.0,100.0,1.0,,,,,,,,,magenta,line
0.0,4.0,4.0,1,6.0,6.0,466.97211265600004,6.0,phase_2,stop,200.0,150.0,3.0,,,,,,,,,gray,hexagon
0.0,4.0,4.0,1,6.0,0.0,,6.0,phase_2,stop,200.0,100.0,4.0,,,,,,,,,gray,hexagon
0.0,7.0,2.0,1,5.0,5.0,501.336812973,6.0,phase_2,stop,250.0,100.0,3.0,,,,,,,,,cyan,circle
0.0,3.0,2.0,0,6.0,6.0,450.70004463199996,6.0,phase_2,go,250.0,100.0,1.0,,,,,,,,,magenta,line
0.0,3.0,2.0,0,5.0,5.0,400.586128235,6.0,phase_2,go,250.0,100.0,1.0,,,,,,,,,magenta,line
0.0,4.0,4.0,1,5.0,0.0,,6.0,phase_2,stop,200.0,100.0,4.0,,,,,,,,,gray,hexagon
0.0,7.0,2.0,1,5.0,5.0,434.339046478,6.0,phase_2,go,200.0,100.0,1.0,,,,,,,,,cyan,circle
0.0,6.0,1.0,0,6.0,6.0,550.441980362,6.0,phase_2,go,200.0,100.0,1.0,,,,,,,,,green,triangle
0.0,2.0,1.0,1,5.0,5.0,400.60710907000004,6.0,phase_2,go,200.0,100.0,1.0,,,,,,,,,white,square
0.0,6.0,1.0,0,5.0,5.0,450.855016708,6.0,phase_2,go,200.0,100.0,1.0,,,,,,,,,green,triangle
0.0,3.0,2.0,0,6.0,6.0,450.839996338,6.0,phase_2,go,200.0,100.0,1.0,,,,,,,,,magenta,line
0.0,8.0,4.0,0,6.0,6.0,450.254917145,6.0,phase_2,go,200.0,100.0,1.0,,,,,,,,,yellow,flipped triangle
0.0,2.0,1.0,1,5.0,5.0,417.392969131,6.0,phase_2,stop,250.0,100.0,3.0,,,,,,,,,white,square
0.0,6.0,1.0,0,5.0,5.0,484.31801796,6.0,phase_2,go,250.0,100.0,1.0,,,,,,,,,green,triangle
0.0,8.0,4.0,0,6.0,6.0,351.12786293,6.0,phase_2,go,250.0,100.0,1.0,,,,,,,,,yellow,flipped triangle
0.0,6.0,1.0,0,6.0,6.0,401.137828827,6.0,phase_2,go,250.0,100.0,1.0,,,,,,,,,green,triangle
0.0,3.0,2.0,0,5.0,5.0,400.985956192,6.0,phase_2,go,250.0,100.0,1.0,,,,,,,,,magenta,line
0.0,5.0,0.5,1,5.0,5.0,484.29107666,6.0,phase_2,go,250.0,100.0,1.0,,,,,,,,,blue,cross
0.0,7.0,2.0,1,5.0,5.0,384.5911026,7.0,phase_2,stop,200.0,100.0,3.0,,,,,,,,,cyan,circle
0.0,8.0,4.0,0,5.0,5.0,417.802810669,7.0,phase_2,go,200.0,100.0,1.0,,,,,,,,,yellow,flipped triangle
0.0,1.0,0.5,0,5.0,5.0,351.20010376,7.0,phase_2,go,200.0,100.0,1.0,,,,,,,,,orange,diamond
0.0,7.0,2.0,1,5.0,5.0,351.103067398,7.0,phase_2,stop,150.0,100.0,3.0,,,,,,,,,cyan,circle
0.0,7.0,2.0,1,6.0,6.0,400.388002396,7.0,phase_2,stop,150.0,150.0,3.0,,,,,,,,,cyan,circle
0.0,4.0,4.0,1,5.0,0.0,,7.0,phase_2,stop,100.0,150.0,4.0,,,,,,,,,gray,hexagon
0.0,8.0,4.0,0,6.0,6.0,467.241048813,7.0,phase_2,go,100.0,150.0,1.0,,,,,,,,,yellow,flipped triangle
0.0,3.0,2.0,0,6.0,6.0,434.21006202700005,7.0,phase_2,go,100.0,150.0,1.0,,,,,,,,,magenta,line
0.0,1.0,0.5,0,6.0,6.0,384.388208389,7.0,phase_2,go,100.0,150.0,1.0,,,,,,,,,orange,diamond
0.0,2.0,1.0,1,5.0,5.0,400.763988495,7.0,phase_2,stop,150.0,150.0,3.0,,,,,,,,,white,square
0.0,6.0,1.0,0,5.0,5.0,550.915956497,7.0,phase_2,go,150.0,150.0,1.0,,,,,,,,,green,triangle
0.0,4.0,4.0,1,6.0,6.0,451.424837112,7.0,phase_2,stop,150.0,100.0,3.0,,,,,,,,,gray,hexagon
0.0,6.0,1.0,0,5.0,5.0,501.46102905300006,7.0,phase_2,go,150.0,100.0,1.0,,,,,,,,,green,triangle
0.0,2.0,1.0,1,6.0,6.0,434.65399742100004,7.0,phase_2,stop,150.0,50.0,3.0,,,,,,,,,white,square
0.0,4.0,4.0,1,6.0,0.0,,7.0,phase_2,stop,150.0,1.38777878078e-14,4.0,,,,,,,,,gray,hexagon
0.0,7.0,2.0,1,5.0,0.0,,7.0,phase_2,stop,100.0,1.38777878078e-14,4.0,,,,,,,,,cyan,circle
0.0,3.0,2.0,0,6.0,6.0,350.797891617,7.0,phase_2,go,100.0,1.38777878078e-14,1.0,,,,,,,,,magenta,line
0.0,8.0,4.0,0,6.0,6.0,417.10901260400004,7.0,phase_2,go,100.0,1.38777878078e-14,1.0,,,,,,,,,yellow,flipped triangle
0.0,4.0,4.0,1,5.0,0.0,,7.0,phase_2,stop,150.0,1.38777878078e-14,4.0,,,,,,,,,gray,hexagon
0.0,5.0,0.5,1,6.0,0.0,,7.0,phase_2,stop,150.0,50.0,4.0,,,,,,,,,blue,cross
0.0,3.0,2.0,0,6.0,6.0,517.732143402,7.0,phase_2,go,150.0,50.0,1.0,,,,,,,,,magenta,line
0.0,8.0,4.0,0,5.0,5.0,350.723028183,7.0,phase_2,go,150.0,50.0,1.0,,,,,,,,,yellow,flipped triangle
0.0,3.0,2.0,0,5.0,5.0,384.726047516,7.0,phase_2,go,150.0,50.0,1.0,,,,,,,,,magenta,line
0.0,4.0,4.0,1,6.0,0.0,,7.0,phase_2,stop,150.0,100.0,4.0,,,,,,,,,gray,hexagon
0.0,3.0,2.0,0,5.0,5.0,400.622844696,7.0,phase_2,go,150.0,100.0,1.0,,,,,,,,,magenta,line
0.0,6.0,1.0,0,6.0,6.0,400.593996048,7.0,phase_2,go,150.0,100.0,1.0,,,,,,,,,green,triangle
0.0,4.0,4.0,1,5.0,0.0,,7.0,phase_2,stop,200.0,100.0,4.0,,,,,,,,,gray,hexagon
0.0,1.0,0.5,0,6.0,6.0,451.216936111,7.0,phase_2,go,200.0,100.0,1.0,,,,,,,,,orange,diamond
0.0,1.0,0.5,0,6.0,6.0,417.29378700300003,7.0,phase_2,go,200.0,100.0,1.0,,,,,,,,,orange,diamond
0.0,8.0,4.0,0,5.0,5.0,383.88299942,7.0,phase_2,go,200.0,100.0,1.0,,,,,,,,,yellow,flipped triangle
0.0,8.0,4.0,0,5.0,5.0,400.806903839,7.0,phase_2,go,200.0,100.0,1.0,,,,,,,,,yellow,flipped triangle
0.0,3.0,2.0,0,6.0,6.0,500.94103813199996,7.0,phase_2,go,200.0,100.0,1.0,,,,,,,,,magenta,line
0.0,7.0,2.0,1,6.0,6.0,500.98609924299996,7.0,phase_2,stop,200.0,150.0,3.0,,,,,,,,,cyan,circle
0.0,1.0,0.5,0,5.0,5.0,383.365869522,7.0,phase_2,go,200.0,150.0,1.0,,,,,,,,,orange,diamond
0.0,5.0,0.5,1,6.0,0.0,,7.0,phase_2,stop,200.0,100.0,4.0,,,,,,,,,blue,cross
0.0,8.0,4.0,0,5.0,5.0,400.860071182,7.0,phase_2,go,200.0,100.0,1.0,,,,,,,,,yellow,flipped triangle
0.0,2.0,1.0,1,6.0,6.0,501.130819321,8.0,phase_2,stop,200.0,150.0,3.0,,,,,,,,,white,square
0.0,6.0,1.0,0,5.0,5.0,334.15293693499996,8.0,phase_2,go,200.0,150.0,1.0,,,,,,,,,green,triangle
0.0,1.0,0.5,0,6.0,6.0,484.008073807,8.0,phase_2,go,200.0,150.0,1.0,,,,,,,,,orange,diamond
0.0,4.0,4.0,1,6.0,0.0,,8.0,phase_2,stop,200.0,100.0,4.0,,,,,,,,,gray,hexagon
0.0,7.0,2.0,1,5.0,5.0,367.072105408,8.0,phase_2,stop,250.0,100.0,3.0,,,,,,,,,cyan,circle
0.0,3.0,2.0,0,5.0,5.0,400.957107544,8.0,phase_2,go,250.0,100.0,1.0,,,,,,,,,magenta,line
0.0,2.0,1.0,1,5.0,0.0,,8.0,phase_2,stop,200.0,100.0,4.0,,,,,,,,,white,square
0.0,8.0,4.0,0,6.0,6.0,400.913953781,8.0,phase_2,go,200.0,100.0,1.0,,,,,,,,,yellow,flipped triangle
0.0,4.0,4.0,1,6.0,6.0,434.28087234500003,8.0,phase_2,go,200.0,100.0,1.0,,,,,,,,,gray,hexagon
0.0,2.0,1.0,1,6.0,6.0,401.380062103,8.0,phase_2,go,200.0,100.0,1.0,,,,,,,,,white,square
0.0,1.0,0.5,0,6.0,6.0,367.695093155,8.0,phase_2,go,200.0,100.0,1.0,,,,,,,,,orange,diamond
0.0,8.0,4.0,0,5.0,5.0,367.53487587,8.0,phase_2,go,200.0,100.0,1.0,,,,,,,,,yellow,flipped triangle
0.0,7.0,2.0,1,5.0,5.0,367.460012436,8.0,phase_2,stop,250.0,100.0,3.0,,,,,,,,,cyan,circle
0.0,6.0,1.0,0,6.0,6.0,384.067058563,8.0,phase_2,go,250.0,100.0,1.0,,,,,,,,,green,triangle
0.0,6.0,1.0,0,6.0,6.0,383.988857269,8.0,phase_2,go,250.0,100.0,1.0,,,,,,,,,green,triangle
0.0,3.0,2.0,0,5.0,5.0,367.35916137699996,8.0,phase_2,go,250.0,100.0,1.0,,,,,,,,,magenta,line
0.0,7.0,2.0,1,6.0,0.0,,8.0,phase_2,stop,250.0,150.0,4.0,,,,,,,,,cyan,circle
0.0,2.0,1.0,1,6.0,0.0,,8.0,phase_2,stop,250.0,200.0,4.0,,,,,,,,,white,square
0.0,1.0,0.5,0,5.0,5.0,584.463119507,8.0,phase_2,go,250.0,200.0,1.0,,,,,,,,,orange,diamond
0.0,4.0,4.0,1,5.0,0.0,,8.0,phase_2,stop,200.0,200.0,4.0,,,,,,,,,gray,hexagon
0.0,6.0,1.0,0,6.0,6.0,450.922012329,8.0,phase_2,go,200.0,200.0,1.0,,,,,,,,,green,triangle
0.0,6.0,1.0,0,5.0,5.0,417.326211929,8.0,phase_2,go,200.0,200.0,1.0,,,,,,,,,green,triangle
0.0,3.0,2.0,0,6.0,6.0,417.65499115,8.0,phase_2,go,200.0,200.0,1.0,,,,,,,,,magenta,line
0.0,6.0,1.0,0,5.0,5.0,350.81219673199996,8.0,phase_2,go,200.0,200.0,1.0,,,,,,,,,green,triangle
0.0,2.0,1.0,1,5.0,5.0,434.144020081,8.0,phase_2,stop,250.0,200.0,3.0,,,,,,,,,white,square
0.0,3.0,2.0,0,6.0,6.0,350.315093994,8.0,phase_2,go,250.0,200.0,1.0,,,,,,,,,magenta,line
0.0,4.0,4.0,1,6.0,6.0,401.262044907,8.0,phase_2,go,250.0,200.0,1.0,,,,,,,,,gray,hexagon
0.0,5.0,0.5,1,6.0,6.0,434.593915939,8.0,phase_2,go,250.0,200.0,1.0,,,,,,,,,blue,cross
0.0,2.0,1.0,1,6.0,0.0,,8.0,phase_2,stop,250.0,250.0,4.0,,,,,,,,,white,square
0.0,5.0,0.5,1,5.0,0.0,,8.0,phase_2,stop,200.0,250.0,4.0,,,,,,,,,blue,cross
0.0,2.0,1.0,1,5.0,5.0,450.706005096,8.0,phase_2,go,200.0,250.0,1.0,,,,,,,,,white,square
0.0,4.0,4.0,1,5.0,5.0,383.77809524500003,8.0,phase_2,go,200.0,250.0,1.0,,,,,,,,,gray,hexagon
0.0,3.0,2.0,0,5.0,5.0,417.325973511,8.0,phase_2,go,200.0,250.0,1.0,,,,,,,,,magenta,line
0.0,4.0,4.0,1,5.0,5.0,417.433023453,8.0,phase_2,stop,250.0,250.0,3.0,,,,,,,,,gray,hexagon
0.0,6.0,1.0,0,5.0,5.0,483.98709297199997,8.0,phase_2,go,250.0,250.0,1.0,,,,,,,,,green,triangle
0.0,8.0,4.0,0,6.0,6.0,450.564146042,8.0,phase_2,go,250.0,250.0,1.0,,,,,,,,,yellow,flipped triangle
0.0,2.0,1.0,1,7.0,,,1.0,phase_3,,,,,0.0,,136.0,34.0,68.0,102.0,204.0,170.0,white,square
0.0,6.0,1.0,0,7.0,3.0,3637.3591423,1.0,phase_3,,,,,216.0,4.0,324.0,162.0,216.0,270.0,54.0,108.0,green,triangle
0.0,8.0,4.0,0,7.0,4.0,4171.38600349,1.0,phase_3,,,,,162.0,3.0,108.0,216.0,270.0,162.0,54.0,324.0,yellow,flipped triangle
0.0,8.0,4.0,0,7.0,2.0,3587.15295792,1.0,phase_3,,,,,170.0,5.0,102.0,170.0,34.0,136.0,204.0,68.0,yellow,flipped triangle
0.0,6.0,1.0,0,7.0,,,1.0,phase_3,,,,,0.0,,98.0,294.0,196.0,49.0,245.0,147.0,green,triangle
0.0,4.0,4.0,1,7.0,4.0,3287.43600845,1.0,phase_3,,,,,220.0,5.0,88.0,176.0,44.0,220.0,132.0,264.0,gray,hexagon
0.0,2.0,1.0,1,7.0,2.0,3988.35420609,1.0,phase_3,,,,,204.0,6.0,102.0,204.0,136.0,34.0,170.0,68.0,white,square
0.0,6.0,1.0,0,7.0,,,1.0,phase_3,,,,,0.0,,156.0,39.0,78.0,117.0,195.0,234.0,green,triangle
0.0,6.0,1.0,0,7.0,6.0,2303.1129837000003,1.0,phase_3,,,,,34.0,1.0,136.0,204.0,170.0,68.0,102.0,34.0,green,triangle
0.0,3.0,2.0,0,7.0,2.0,2135.67399979,1.0,phase_3,,,,,102.0,3.0,136.0,102.0,34.0,170.0,68.0,204.0,magenta,line
0.0,8.0,4.0,0,7.0,4.0,1402.04310417,1.0,phase_3,,,,,132.0,3.0,176.0,220.0,88.0,132.0,44.0,264.0,yellow,flipped triangle
0.0,6.0,1.0,0,7.0,5.0,951.542139053,1.0,phase_3,,,,,162.0,3.0,270.0,324.0,108.0,54.0,162.0,216.0,green,triangle
0.0,1.0,0.5,0,7.0,3.0,1584.6540927899998,1.0,phase_3,,,,,234.0,6.0,156.0,117.0,234.0,78.0,39.0,195.0,orange,diamond
0.0,3.0,2.0,0,7.0,2.0,1618.88098717,1.0,phase_3,,,,,220.0,5.0,176.0,220.0,132.0,44.0,264.0,88.0,magenta,line
0.0,5.0,0.5,1,7.0,3.0,2603.2371521,1.0,phase_3,,,,,176.0,4.0,44.0,220.0,176.0,88.0,264.0,132.0,blue,cross
0.0,5.0,0.5,1,7.0,5.0,2369.06909943,1.0,phase_3,,,,,196.0,4.0,49.0,294.0,98.0,245.0,196.0,147.0,blue,cross
0.0,5.0,0.5,1,7.0,6.0,4004.93788719,1.0,phase_3,,,,,147.0,3.0,98.0,294.0,49.0,196.0,245.0,147.0,blue,cross
0.0,5.0,0.5,1,7.0,2.0,1852.21910477,1.0,phase_3,,,,,204.0,6.0,68.0,204.0,170.0,136.0,102.0,34.0,blue,cross
0.0,7.0,2.0,1,7.0,2.0,1435.62793732,1.0,phase_3,,,,,264.0,6.0,132.0,264.0,44.0,88.0,176.0,220.0,cyan,circle
0.0,4.0,4.0,1,7.0,5.0,1318.41301918,1.0,phase_3,,,,,294.0,6.0,98.0,245.0,147.0,49.0,294.0,196.0,gray,hexagon
0.0,5.0,0.5,1,7.0,2.0,1084.55085754,2.0,phase_3,,,,,234.0,6.0,195.0,234.0,39.0,117.0,78.0,156.0,blue,cross
0.0,3.0,2.0,0,7.0,5.0,1802.11806297,2.0,phase_3,,,,,196.0,4.0,49.0,147.0,98.0,245.0,196.0,294.0,magenta,line
0.0,2.0,1.0,1,7.0,4.0,1802.1321296699998,2.0,phase_3,,,,,245.0,5.0,98.0,49.0,147.0,245.0,294.0,196.0,white,square
0.0,1.0,0.5,0,7.0,1.0,2719.8259830499996,2.0,phase_3,,,,,264.0,6.0,264.0,132.0,176.0,88.0,220.0,44.0,orange,diamond
0.0,1.0,0.5,0,7.0,4.0,2002.3319721199998,2.0,phase_3,,,,,234.0,6.0,78.0,156.0,195.0,234.0,117.0,39.0,orange,diamond
0.0,4.0,4.0,1,7.0,3.0,1418.25079918,2.0,phase_3,,,,,270.0,5.0,162.0,324.0,270.0,54.0,108.0,216.0,gray,hexagon
0.0,8.0,4.0,0,7.0,4.0,2803.1580448199998,2.0,phase_3,,,,,245.0,5.0,147.0,196.0,49.0,245.0,98.0,294.0,yellow,flipped triangle
0.0,3.0,2.0,0,7.0,5.0,1335.02101898,2.0,phase_3,,,,,176.0,4.0,264.0,220.0,44.0,132.0,176.0,88.0,magenta,line
0.0,5.0,0.5,1,7.0,3.0,1618.13402176,2.0,phase_3,,,,,204.0,6.0,170.0,102.0,204.0,136.0,34.0,68.0,blue,cross
0.0,5.0,0.5,1,7.0,4.0,1268.17202568,2.0,phase_3,,,,,216.0,4.0,108.0,270.0,162.0,216.0,54.0,324.0,blue,cross
0.0,6.0,1.0,0,7.0,3.0,1651.91507339,2.0,phase_3,,,,,245.0,5.0,147.0,294.0,245.0,49.0,196.0,98.0,green,triangle
0.0,4.0,4.0,1,7.0,6.0,2636.85202599,2.0,phase_3,,,,,234.0,6.0,117.0,156.0,78.0,195.0,39.0,234.0,gray,hexagon
0.0,2.0,1.0,1,7.0,1.0,1768.43094826,2.0,phase_3,,,,,220.0,5.0,220.0,88.0,176.0,44.0,264.0,132.0,white,square
0.0,4.0,4.0,1,7.0,5.0,1551.91111565,2.0,phase_3,,,,,270.0,5.0,324.0,54.0,108.0,162.0,270.0,216.0,gray,hexagon
0.0,1.0,0.5,0,7.0,5.0,2336.34305,2.0,phase_3,,,,,270.0,5.0,162.0,54.0,324.0,108.0,270.0,216.0,orange,diamond
0.0,2.0,1.0,1,7.0,2.0,1818.3372020699999,2.0,phase_3,,,,,294.0,6.0,245.0,294.0,49.0,147.0,98.0,196.0,white,square
0.0,3.0,2.0,0,7.0,6.0,3537.70303726,2.0,phase_3,,,,,195.0,5.0,117.0,78.0,39.0,156.0,234.0,195.0,magenta,line
0.0,8.0,4.0,0,7.0,4.0,2136.11197472,2.0,phase_3,,,,,220.0,5.0,88.0,264.0,44.0,220.0,132.0,176.0,yellow,flipped triangle
0.0,7.0,2.0,1,7.0,4.0,2369.20619011,2.0,phase_3,,,,,132.0,3.0,264.0,44.0,220.0,132.0,176.0,88.0,cyan,circle
0.0,2.0,1.0,1,7.0,2.0,1935.61315536,2.0,phase_3,,,,,234.0,6.0,156.0,234.0,195.0,39.0,78.0,117.0,white,square
0.0,8.0,4.0,0,7.0,3.0,1302.20103264,3.0,phase_3,,,,,216.0,4.0,324.0,108.0,216.0,54.0,270.0,162.0,yellow,flipped triangle
0.0,8.0,4.0,0,7.0,4.0,1101.9790172599999,3.0,phase_3,,,,,245.0,5.0,49.0,147.0,196.0,245.0,98.0,294.0,yellow,flipped triangle
0.0,7.0,2.0,1,7.0,5.0,1168.1339740800001,3.0,phase_3,,,,,204.0,6.0,34.0,170.0,102.0,136.0,204.0,68.0,cyan,circle
0.0,2.0,1.0,1,7.0,1.0,1201.30515099,3.0,phase_3,,,,,234.0,6.0,234.0,195.0,78.0,117.0,39.0,156.0,white,square
0.0,7.0,2.0,1,7.0,5.0,1051.37181282,3.0,phase_3,,,,,204.0,6.0,68.0,34.0,170.0,136.0,204.0,102.0,cyan,circle
0.0,8.0,4.0,0,7.0,2.0,1335.8001709,3.0,phase_3,,,,,204.0,6.0,136.0,204.0,68.0,170.0,102.0,34.0,yellow,flipped triangle
0.0,1.0,0.5,0,7.0,3.0,1368.47901344,3.0,phase_3,,,,,294.0,6.0,98.0,196.0,294.0,245.0,147.0,49.0,orange,diamond
0.0,2.0,1.0,1,7.0,5.0,2186.12599373,3.0,phase_3,,,,,270.0,5.0,216.0,162.0,108.0,54.0,270.0,324.0,white,square
0.0,1.0,0.5,0,7.0,2.0,1518.64004135,3.0,phase_3,,,,,264.0,6.0,88.0,264.0,132.0,44.0,220.0,176.0,orange,diamond
0.0,4.0,4.0,1,7.0,4.0,1568.3560371400001,3.0,phase_3,,,,,204.0,6.0,34.0,102.0,136.0,204.0,170.0,68.0,gray,hexagon
0.0,6.0,1.0,0,7.0,5.0,2352.69212723,3.0,phase_3,,,,,176.0,4.0,132.0,88.0,44.0,264.0,176.0,220.0,green,triangle
0.0,1.0,0.5,0,7.0,5.0,2302.42013931,3.0,phase_3,,,,,294.0,6.0,147.0,49.0,196.0,245.0,294.0,98.0,orange,diamond
0.0,4.0,4.0,1,7.0,5.0,3419.86918449,3.0,phase_3,,,,,294.0,6.0,245.0,147.0,49.0,98.0,294.0,196.0,gray,hexagon
0.0,1.0,0.5,0,7.0,6.0,2653.62405777,3.0,phase_3,,,,,204.0,6.0,170.0,68.0,34.0,136.0,102.0,204.0,orange,diamond
0.0,5.0,0.5,1,7.0,5.0,2786.17191315,3.0,phase_3,,,,,162.0,3.0,216.0,54.0,270.0,324.0,162.0,108.0,blue,cross
0.0,4.0,4.0,1,7.0,5.0,2102.3609638199996,3.0,phase_3,,,,,234.0,6.0,39.0,117.0,195.0,78.0,234.0,156.0,gray,hexagon
0.0,7.0,2.0,1,7.0,2.0,1501.71589851,3.0,phase_3,,,,,216.0,4.0,270.0,216.0,108.0,162.0,324.0,54.0,cyan,circle
0.0,7.0,2.0,1,7.0,5.0,1068.86792183,3.0,phase_3,,,,,195.0,5.0,39.0,156.0,117.0,78.0,195.0,234.0,cyan,circle
0.0,6.0,1.0,0,7.0,3.0,1201.51805878,3.0,phase_3,,,,,204.0,6.0,170.0,68.0,204.0,34.0,102.0,136.0,green,triangle
0.0,2.0,1.0,1,7.0,6.0,1718.3110714,3.0,phase_3,,,,,162.0,3.0,108.0,324.0,270.0,54.0,216.0,162.0,white,square
0.0,5.0,0.5,1,7.0,2.0,1367.99383163,4.0,phase_3,,,,,132.0,3.0,88.0,132.0,220.0,264.0,176.0,44.0,blue,cross
0.0,1.0,0.5,0,7.0,6.0,1884.42492485,4.0,phase_3,,,,,324.0,6.0,216.0,270.0,108.0,54.0,162.0,324.0,orange,diamond
0.0,3.0,2.0,0,7.0,1.0,2302.60109901,4.0,phase_3,,,,,204.0,6.0,204.0,68.0,170.0,136.0,34.0,102.0,magenta,line
0.0,3.0,2.0,0,7.0,3.0,1935.80198288,4.0,phase_3,,,,,49.0,1.0,98.0,147.0,49.0,294.0,196.0,245.0,magenta,line
0.0,8.0,4.0,0,7.0,4.0,1351.2599468199999,4.0,phase_3,,,,,156.0,4.0,39.0,78.0,195.0,156.0,234.0,117.0,yellow,flipped triangle
0.0,7.0,2.0,1,7.0,5.0,1768.8419818900002,4.0,phase_3,,,,,196.0,4.0,147.0,98.0,245.0,294.0,196.0,49.0,cyan,circle
0.0,7.0,2.0,1,7.0,6.0,1368.05605888,4.0,phase_3,,,,,270.0,5.0,216.0,54.0,162.0,324.0,108.0,270.0,cyan,circle
0.0,4.0,4.0,1,7.0,3.0,1485.4199886299998,4.0,phase_3,,,,,136.0,4.0,170.0,204.0,136.0,68.0,34.0,102.0,gray,hexagon
0.0,5.0,0.5,1,7.0,4.0,1468.58906746,4.0,phase_3,,,,,195.0,5.0,117.0,234.0,78.0,195.0,39.0,156.0,blue,cross
0.0,7.0,2.0,1,7.0,4.0,1518.1000232699998,4.0,phase_3,,,,,245.0,5.0,294.0,147.0,196.0,245.0,49.0,98.0,cyan,circle
0.0,3.0,2.0,0,7.0,2.0,1285.1481437700002,4.0,phase_3,,,,,195.0,5.0,117.0,195.0,39.0,234.0,156.0,78.0,magenta,line
0.0,1.0,0.5,0,7.0,5.0,1301.8939495099999,4.0,phase_3,,,,,136.0,4.0,102.0,204.0,68.0,170.0,136.0,34.0,orange,diamond
0.0,6.0,1.0,0,7.0,4.0,1602.20384598,4.0,phase_3,,,,,220.0,5.0,176.0,132.0,44.0,220.0,88.0,264.0,green,triangle
0.0,4.0,4.0,1,7.0,5.0,1501.95097923,4.0,phase_3,,,,,220.0,5.0,88.0,44.0,264.0,176.0,220.0,132.0,gray,hexagon
0.0,6.0,1.0,0,7.0,5.0,1417.9909229300001,4.0,phase_3,,,,,234.0,6.0,39.0,156.0,117.0,78.0,234.0,195.0,green,triangle
0.0,3.0,2.0,0,7.0,3.0,2085.71600914,4.0,phase_3,,,,,108.0,2.0,216.0,270.0,108.0,162.0,324.0,54.0,magenta,line
0.0,3.0,2.0,0,7.0,3.0,1101.59802437,4.0,phase_3,,,,,216.0,4.0,162.0,270.0,216.0,54.0,324.0,108.0,magenta,line
0.0,7.0,2.0,1,7.0,2.0,2469.76900101,4.0,phase_3,,,,,234.0,6.0,39.0,234.0,156.0,117.0,195.0,78.0,cyan,circle
0.0,2.0,1.0,1,7.0,4.0,1018.24903488,4.0,phase_3,,,,,176.0,4.0,264.0,220.0,132.0,176.0,44.0,88.0,white,square
0.0,8.0,4.0,0,7.0,2.0,1501.79219246,4.0,phase_3,,,,,195.0,5.0,156.0,195.0,234.0,117.0,78.0,39.0,yellow,flipped triangle
