stepwise_reward_magnitude,paired_with_stopping,quadrant,response,reaction_time,block,which_part,stop_signal_trial_type,left_SSD,right_SSD,accuracy,chosen_bidding_amount,chosen_bidding_level,possible_bid_1,possible_bid_2,possible_bid_3,possible_bid_4,possible_bid_5,possible_bid_6,color_text,shape_text
2.0,0,2.0,2.0,834.726810455,1.0,part_1,,,,,,,,,,,,,orange,flipped triangle
4.0,0,1.0,1.0,367.548942566,1.0,part_1,,,,,,,,,,,,,cyan,line
2.0,0,3.0,3.0,350.723981857,1.0,part_1,,,,,,,,,,,,,orange,flipped triangle
0.5,0,4.0,4.0,334.416151047,1.0,part_1,,,,,,,,,,,,,magenta,triangle
0.5,0,2.0,2.0,383.87298584,1.0,part_1,,,,,,,,,,,,,magenta,triangle
1.0,0,4.0,4.0,350.931882858,1.0,part_1,,,,,,,,,,,,,yellow,cross
4.0,0,4.0,4.0,417.95086860699996,1.0,part_1,,,,,,,,,,,,,cyan,line
2.0,0,2.0,2.0,500.83303451500007,1.0,part_1,,,,,,,,,,,,,orange,flipped triangle
2.0,0,3.0,3.0,417.436122894,1.0,part_1,,,,,,,,,,,,,orange,flipped triangle
2.0,0,2.0,2.0,400.84695816,1.0,part_1,,,,,,,,,,,,,orange,flipped triangle
2.0,0,4.0,4.0,317.35992431600005,1.0,part_1,,,,,,,,,,,,,orange,flipped triangle
2.0,0,3.0,3.0,334.714889526,1.0,part_1,,,,,,,,,,,,,orange,flipped triangle
1.0,0,3.0,3.0,367.653131485,1.0,part_1,,,,,,,,,,,,,yellow,cross
0.5,1,4.0,4.0,368.165969849,1.0,part_1,,,,,,,,,,,,,blue,diamond
1.0,0,4.0,4.0,334.29002761799995,1.0,part_1,,,,,,,,,,,,,yellow,cross
1.0,1,2.0,2.0,367.475986481,1.0,part_1,,,,,,,,,,,,,green,circle
4.0,1,4.0,4.0,367.493867874,1.0,part_1,,,,,,,,,,,,,white,hexagon
4.0,1,4.0,4.0,350.641012192,1.0,part_1,,,,,,,,,,,,,white,hexagon
4.0,1,3.0,3.0,367.316961288,1.0,part_1,,,,,,,,,,,,,white,hexagon
1.0,0,4.0,4.0,351.100921631,1.0,part_1,,,,,,,,,,,,,yellow,cross
4.0,1,3.0,3.0,384.594202042,1.0,part_1,,,,,,,,,,,,,white,hexagon
0.5,1,4.0,4.0,350.54397583,1.0,part_1,,,,,,,,,,,,,blue,diamond
1.0,1,1.0,1.0,317.714929581,1.0,part_1,,,,,,,,,,,,,green,circle
0.5,1,4.0,4.0,318.01795959500004,1.0,part_1,,,,,,,,,,,,,blue,diamond
0.5,0,4.0,4.0,317.578077316,1.0,part_1,,,,,,,,,,,,,magenta,triangle
4.0,0,4.0,4.0,317.59595871,1.0,part_1,,,,,,,,,,,,,cyan,line
4.0,1,2.0,2.0,451.112031937,1.0,part_1,,,,,,,,,,,,,white,hexagon
2.0,1,2.0,2.0,467.89312362699997,1.0,part_1,,,,,,,,,,,,,gray,square
0.5,1,4.0,4.0,300.512075424,1.0,part_1,,,,,,,,,,,,,blue,diamond
4.0,1,1.0,1.0,334.14888382000004,1.0,part_1,,,,,,,,,,,,,white,hexagon
0.5,1,2.0,2.0,383.926868439,1.0,part_1,,,,,,,,,,,,,blue,diamond
0.5,1,2.0,2.0,467.50593185400004,1.0,part_1,,,,,,,,,,,,,blue,diamond
2.0,0,1.0,1.0,317.742109299,1.0,part_1,,,,,,,,,,,,,orange,flipped triangle
4.0,1,4.0,4.0,334.177017212,1.0,part_1,,,,,,,,,,,,,white,hexagon
1.0,1,4.0,4.0,350.608110428,1.0,part_1,,,,,,,,,,,,,green,circle
2.0,0,2.0,2.0,367.28096008299997,1.0,part_1,,,,,,,,,,,,,orange,flipped triangle
0.5,1,2.0,2.0,367.605924606,1.0,part_1,,,,,,,,,,,,,blue,diamond
1.0,1,3.0,3.0,384.269952774,1.0,part_1,,,,,,,,,,,,,green,circle
4.0,0,3.0,3.0,350.926876068,1.0,part_1,,,,,,,,,,,,,cyan,line
4.0,0,3.0,3.0,351.05085372900004,1.0,part_1,,,,,,,,,,,,,cyan,line
0.5,0,1.0,1.0,383.898019791,1.0,part_1,,,,,,,,,,,,,magenta,triangle
1.0,1,4.0,4.0,317.378997803,1.0,part_1,,,,,,,,,,,,,green,circle
4.0,0,2.0,2.0,351.056098938,1.0,part_1,,,,,,,,,,,,,cyan,line
4.0,1,1.0,1.0,317.039012909,1.0,part_1,,,,,,,,,,,,,white,hexagon
4.0,1,2.0,2.0,367.09403991700003,1.0,part_1,,,,,,,,,,,,,white,hexagon
2.0,1,1.0,1.0,367.479085922,1.0,part_1,,,,,,,,,,,,,gray,square
0.5,1,1.0,1.0,300.480127335,1.0,part_1,,,,,,,,,,,,,blue,diamond
1.0,1,1.0,1.0,401.193141937,1.0,part_1,,,,,,,,,,,,,green,circle
0.5,1,1.0,1.0,334.28597450300003,1.0,part_1,,,,,,,,,,,,,blue,diamond
2.0,0,3.0,3.0,367.61713027999997,1.0,part_1,,,,,,,,,,,,,orange,flipped triangle
2.0,1,4.0,4.0,351.35817527800003,1.0,part_1,,,,,,,,,,,,,gray,square
2.0,0,1.0,1.0,334.020137787,1.0,part_1,,,,,,,,,,,,,orange,flipped triangle
1.0,0,2.0,2.0,400.990962982,1.0,part_1,,,,,,,,,,,,,yellow,cross
4.0,1,1.0,1.0,334.10406112699997,1.0,part_1,,,,,,,,,,,,,white,hexagon
2.0,1,2.0,2.0,400.9308815,1.0,part_1,,,,,,,,,,,,,gray,square
1.0,1,4.0,4.0,333.914995193,1.0,part_1,,,,,,,,,,,,,green,circle
1.0,0,3.0,3.0,350.47602653499996,1.0,part_1,,,,,,,,,,,,,yellow,cross
1.0,1,3.0,3.0,384.260177612,1.0,part_1,,,,,,,,,,,,,green,circle
2.0,1,1.0,1.0,301.280975342,1.0,part_1,,,,,,,,,,,,,gray,square
0.5,1,2.0,2.0,351.13286972000003,1.0,part_1,,,,,,,,,,,,,blue,diamond
2.0,0,4.0,4.0,317.280054092,1.0,part_1,,,,,,,,,,,,,orange,flipped triangle
0.5,0,3.0,3.0,367.45095253,1.0,part_1,,,,,,,,,,,,,magenta,triangle
0.5,0,3.0,3.0,351.100206375,1.0,part_1,,,,,,,,,,,,,magenta,triangle
2.0,1,1.0,1.0,284.54494476300005,1.0,part_1,,,,,,,,,,,,,gray,square
0.5,0,4.0,4.0,284.223079681,1.0,part_1,,,,,,,,,,,,,magenta,triangle
2.0,1,1.0,1.0,300.971984863,1.0,part_1,,,,,,,,,,,,,gray,square
0.5,1,3.0,3.0,334.074020386,1.0,part_1,,,,,,,,,,,,,blue,diamond
2.0,1,2.0,2.0,367.319822311,1.0,part_1,,,,,,,,,,,,,gray,square
2.0,0,2.0,2.0,367.213010788,1.0,part_1,,,,,,,,,,,,,orange,flipped triangle
0.5,1,3.0,3.0,317.884922028,1.0,part_1,,,,,,,,,,,,,blue,diamond
2.0,0,1.0,1.0,267.471075058,1.0,part_1,,,,,,,,,,,,,orange,flipped triangle
1.0,1,3.0,3.0,334.07998085,1.0,part_1,,,,,,,,,,,,,green,circle
2.0,0,1.0,1.0,333.744049072,1.0,part_1,,,,,,,,,,,,,orange,flipped triangle
2.0,1,2.0,2.0,367.88392066999995,1.0,part_1,,,,,,,,,,,,,gray,square
4.0,1,1.0,1.0,317.32988357500005,1.0,part_1,,,,,,,,,,,,,white,hexagon
2.0,1,2.0,2.0,334.53011512800003,1.0,part_1,,,,,,,,,,,,,gray,square
4.0,1,3.0,3.0,334.036111832,1.0,part_1,,,,,,,,,,,,,white,hexagon
0.5,0,1.0,1.0,317.468881607,1.0,part_1,,,,,,,,,,,,,magenta,triangle
0.5,1,2.0,2.0,384.144067764,1.0,part_1,,,,,,,,,,,,,blue,diamond
0.5,0,1.0,1.0,317.487955093,1.0,part_1,,,,,,,,,,,,,magenta,triangle
1.0,0,4.0,4.0,417.850017548,1.0,part_1,,,,,,,,,,,,,yellow,cross
4.0,0,3.0,3.0,351.423025131,1.0,part_1,,,,,,,,,,,,,cyan,line
1.0,1,2.0,2.0,333.936214447,1.0,part_1,,,,,,,,,,,,,green,circle
4.0,0,1.0,1.0,317.30604171799996,1.0,part_1,,,,,,,,,,,,,cyan,line
4.0,0,4.0,4.0,284.222126007,1.0,part_1,,,,,,,,,,,,,cyan,line
2.0,1,3.0,3.0,367.68794059799995,1.0,part_1,,,,,,,,,,,,,gray,square
1.0,1,4.0,4.0,451.014995575,1.0,part_1,,,,,,,,,,,,,green,circle
2.0,1,2.0,2.0,333.420038223,1.0,part_1,,,,,,,,,,,,,gray,square
1.0,1,3.0,3.0,333.998203278,1.0,part_1,,,,,,,,,,,,,green,circle
1.0,0,3.0,3.0,351.40109062199997,1.0,part_1,,,,,,,,,,,,,yellow,cross
2.0,0,1.0,1.0,301.20801925700005,1.0,part_1,,,,,,,,,,,,,orange,flipped triangle
2.0,0,2.0,2.0,384.043931961,1.0,part_1,,,,,,,,,,,,,orange,flipped triangle
1.0,0,3.0,3.0,333.790063858,1.0,part_1,,,,,,,,,,,,,yellow,cross
1.0,1,1.0,1.0,300.95696449300004,1.0,part_1,,,,,,,,,,,,,green,circle
1.0,0,3.0,3.0,334.026098251,1.0,part_1,,,,,,,,,,,,,yellow,cross
0.5,1,4.0,4.0,317.454099655,1.0,part_1,,,,,,,,,,,,,blue,diamond
1.0,0,2.0,2.0,401.15594863900003,1.0,part_1,,,,,,,,,,,,,yellow,cross
1.0,1,3.0,3.0,300.759077072,1.0,part_1,,,,,,,,,,,,,green,circle
2.0,1,1.0,1.0,350.669145584,1.0,part_1,,,,,,,,,,,,,gray,square
1.0,0,1.0,1.0,283.980131149,1.0,part_1,,,,,,,,,,,,,yellow,cross
4.0,1,2.0,2.0,334.040164948,2.0,part_1,,,,,,,,,,,,,white,hexagon
0.5,0,1.0,1.0,334.594964981,2.0,part_1,,,,,,,,,,,,,magenta,triangle
1.0,1,4.0,4.0,334.469079971,2.0,part_1,,,,,,,,,,,,,green,circle
4.0,1,3.0,3.0,367.814064026,2.0,part_1,,,,,,,,,,,,,white,hexagon
0.5,0,2.0,2.0,284.05594825699995,2.0,part_1,,,,,,,,,,,,,magenta,triangle
0.5,1,4.0,4.0,300.88806152300003,2.0,part_1,,,,,,,,,,,,,blue,diamond
1.0,0,3.0,3.0,350.95810890200005,2.0,part_1,,,,,,,,,,,,,yellow,cross
2.0,1,1.0,1.0,267.263889313,2.0,part_1,,,,,,,,,,,,,gray,square
0.5,1,3.0,3.0,333.951950073,2.0,part_1,,,,,,,,,,,,,blue,diamond
2.0,0,4.0,4.0,267.20404624900004,2.0,part_1,,,,,,,,,,,,,orange,flipped triangle
1.0,1,1.0,1.0,301.095962524,2.0,part_1,,,,,,,,,,,,,green,circle
0.5,1,2.0,2.0,384.192943573,2.0,part_1,,,,,,,,,,,,,blue,diamond
4.0,0,2.0,2.0,384.28711891200004,2.0,part_1,,,,,,,,,,,,,cyan,line
2.0,0,4.0,4.0,334.071874619,2.0,part_1,,,,,,,,,,,,,orange,flipped triangle
1.0,1,4.0,4.0,384.27495956399997,2.0,part_1,,,,,,,,,,,,,green,circle
1.0,0,1.0,1.0,284.369945526,2.0,part_1,,,,,,,,,,,,,yellow,cross
0.5,1,2.0,2.0,384.285211563,2.0,part_1,,,,,,,,,,,,,blue,diamond
2.0,0,2.0,2.0,384.586811066,2.0,part_1,,,,,,,,,,,,,orange,flipped triangle
0.5,1,1.0,1.0,300.83489418,2.0,part_1,,,,,,,,,,,,,blue,diamond
2.0,0,3.0,3.0,334.014892578,2.0,part_1,,,,,,,,,,,,,orange,flipped triangle
0.5,1,3.0,3.0,367.33007431,2.0,part_1,,,,,,,,,,,,,blue,diamond
1.0,0,1.0,1.0,384.061098099,2.0,part_1,,,,,,,,,,,,,yellow,cross
4.0,0,2.0,2.0,301.184177399,2.0,part_1,,,,,,,,,,,,,cyan,line
2.0,1,4.0,4.0,283.910036087,2.0,part_1,,,,,,,,,,,,,gray,square
4.0,0,3.0,3.0,334.391117096,2.0,part_1,,,,,,,,,,,,,cyan,line
2.0,0,2.0,2.0,300.673961639,2.0,part_1,,,,,,,,,,,,,orange,flipped triangle
2.0,1,3.0,3.0,334.671020508,2.0,part_1,,,,,,,,,,,,,gray,square
1.0,1,1.0,1.0,317.315101624,2.0,part_1,,,,,,,,,,,,,green,circle
4.0,0,2.0,2.0,317.675113678,2.0,part_1,,,,,,,,,,,,,cyan,line
0.5,1,3.0,3.0,351.171970367,2.0,part_1,,,,,,,,,,,,,blue,diamond
1.0,1,3.0,3.0,417.895078659,2.0,part_1,,,,,,,,,,,,,green,circle
1.0,1,1.0,1.0,317.40307807899995,2.0,part_1,,,,,,,,,,,,,green,circle
0.5,1,2.0,2.0,367.436885834,2.0,part_1,,,,,,,,,,,,,blue,diamond
0.5,1,4.0,4.0,350.818872452,2.0,part_1,,,,,,,,,,,,,blue,diamond
4.0,1,1.0,1.0,317.225933075,2.0,part_1,,,,,,,,,,,,,white,hexagon
2.0,0,1.0,1.0,284.226894379,2.0,part_1,,,,,,,,,,,,,orange,flipped triangle
4.0,1,2.0,2.0,317.563056946,2.0,part_1,,,,,,,,,,,,,white,hexagon
2.0,0,1.0,1.0,300.67896843000005,2.0,part_1,,,,,,,,,,,,,orange,flipped triangle
1.0,0,3.0,3.0,300.846099854,2.0,part_1,,,,,,,,,,,,,yellow,cross
0.5,0,4.0,4.0,334.11097526599997,2.0,part_1,,,,,,,,,,,,,magenta,triangle
0.5,0,3.0,3.0,300.421953201,2.0,part_1,,,,,,,,,,,,,magenta,triangle
0.5,0,4.0,4.0,300.586938858,2.0,part_1,,,,,,,,,,,,,magenta,triangle
1.0,1,3.0,3.0,267.600059509,2.0,part_1,,,,,,,,,,,,,green,circle
1.0,1,2.0,2.0,317.24786758399995,2.0,part_1,,,,,,,,,,,,,green,circle
0.5,0,3.0,3.0,317.708015442,2.0,part_1,,,,,,,,,,,,,magenta,triangle
1.0,1,4.0,4.0,333.962917328,2.0,part_1,,,,,,,,,,,,,green,circle
4.0,1,1.0,1.0,300.53496360800006,2.0,part_1,,,,,,,,,,,,,white,hexagon
4.0,1,4.0,4.0,350.728034973,2.0,part_1,,,,,,,,,,,,,white,hexagon
4.0,0,1.0,1.0,351.191997528,2.0,part_1,,,,,,,,,,,,,cyan,line
4.0,0,2.0,2.0,350.692033768,2.0,part_1,,,,,,,,,,,,,cyan,line
2.0,0,1.0,1.0,334.55681800800005,2.0,part_1,,,,,,,,,,,,,orange,flipped triangle
1.0,0,4.0,4.0,367.044210434,2.0,part_1,,,,,,,,,,,,,yellow,cross
1.0,1,2.0,2.0,317.651033401,2.0,part_1,,,,,,,,,,,,,green,circle
1.0,0,2.0,2.0,367.376089096,2.0,part_1,,,,,,,,,,,,,yellow,cross
1.0,0,3.0,3.0,317.74187088,2.0,part_1,,,,,,,,,,,,,yellow,cross
2.0,1,4.0,4.0,318.074941635,2.0,part_1,,,,,,,,,,,,,gray,square
4.0,0,3.0,3.0,334.393978119,2.0,part_1,,,,,,,,,,,,,cyan,line
0.5,0,1.0,1.0,283.776044846,2.0,part_1,,,,,,,,,,,,,magenta,triangle
0.5,1,4.0,4.0,284.09695625300003,2.0,part_1,,,,,,,,,,,,,blue,diamond
2.0,1,1.0,1.0,317.39497184799995,2.0,part_1,,,,,,,,,,,,,gray,square
4.0,1,2.0,2.0,367.470979691,2.0,part_1,,,,,,,,,,,,,white,hexagon
2.0,1,2.0,2.0,384.27901268,2.0,part_1,,,,,,,,,,,,,gray,square
0.5,1,1.0,1.0,334.036111832,2.0,part_1,,,,,,,,,,,,,blue,diamond
4.0,1,2.0,2.0,367.76685714700005,2.0,part_1,,,,,,,,,,,,,white,hexagon
4.0,0,2.0,2.0,334.087848663,2.0,part_1,,,,,,,,,,,,,cyan,line
0.5,1,4.0,4.0,334.452867508,2.0,part_1,,,,,,,,,,,,,blue,diamond
2.0,1,4.0,4.0,384.204149246,2.0,part_1,,,,,,,,,,,,,gray,square
2.0,0,3.0,3.0,317.939043045,2.0,part_1,,,,,,,,,,,,,orange,flipped triangle
4.0,1,1.0,1.0,300.28796196,2.0,part_1,,,,,,,,,,,,,white,hexagon
4.0,1,1.0,1.0,300.65679550199997,2.0,part_1,,,,,,,,,,,,,white,hexagon
0.5,0,4.0,4.0,317.474842072,2.0,part_1,,,,,,,,,,,,,magenta,triangle
4.0,0,2.0,2.0,317.481994629,2.0,part_1,,,,,,,,,,,,,cyan,line
0.5,0,1.0,1.0,284.247159958,2.0,part_1,,,,,,,,,,,,,magenta,triangle
2.0,0,1.0,1.0,300.78411102300004,2.0,part_1,,,,,,,,,,,,,orange,flipped triangle
2.0,1,2.0,2.0,350.681066513,2.0,part_1,,,,,,,,,,,,,gray,square
4.0,1,2.0,2.0,318.041086197,2.0,part_1,,,,,,,,,,,,,white,hexagon
1.0,1,3.0,3.0,333.99605751,2.0,part_1,,,,,,,,,,,,,green,circle
4.0,1,1.0,1.0,317.878007889,2.0,part_1,,,,,,,,,,,,,white,hexagon
4.0,0,2.0,2.0,317.299842834,2.0,part_1,,,,,,,,,,,,,cyan,line
2.0,1,4.0,4.0,334.580183029,2.0,part_1,,,,,,,,,,,,,gray,square
1.0,1,2.0,2.0,317.35205650300003,2.0,part_1,,,,,,,,,,,,,green,circle
0.5,1,1.0,1.0,334.499120712,2.0,part_1,,,,,,,,,,,,,blue,diamond
0.5,0,1.0,1.0,267.539024353,2.0,part_1,,,,,,,,,,,,,magenta,triangle
0.5,0,3.0,3.0,317.971944809,2.0,part_1,,,,,,,,,,,,,magenta,triangle
4.0,0,3.0,3.0,350.87299346900005,2.0,part_1,,,,,,,,,,,,,cyan,line
2.0,0,3.0,3.0,333.896160126,2.0,part_1,,,,,,,,,,,,,orange,flipped triangle
2.0,1,4.0,4.0,350.975990295,2.0,part_1,,,,,,,,,,,,,gray,square
0.5,1,1.0,1.0,317.78192520100004,2.0,part_1,,,,,,,,,,,,,blue,diamond
2.0,1,3.0,3.0,350.27289390600004,2.0,part_1,,,,,,,,,,,,,gray,square
2.0,1,4.0,4.0,351.56106948900003,2.0,part_1,,,,,,,,,,,,,gray,square
4.0,1,4.0,4.0,351.495027542,2.0,part_1,,,,,,,,,,,,,white,hexagon
1.0,0,4.0,4.0,317.353963852,2.0,part_1,,,,,,,,,,,,,yellow,cross
0.5,0,4.0,4.0,317.34919548,2.0,part_1,,,,,,,,,,,,,magenta,triangle
4.0,0,3.0,3.0,334.254026413,2.0,part_1,,,,,,,,,,,,,cyan,line
0.5,0,3.0,3.0,317.359209061,2.0,part_1,,,,,,,,,,,,,magenta,triangle
1.0,1,4.0,4.0,300.683021545,2.0,part_1,,,,,,,,,,,,,green,circle
1.0,0,2.0,2.0,350.73399543799997,2.0,part_1,,,,,,,,,,,,,yellow,cross
4.0,0,3.0,3.0,301.428079605,2.0,part_1,,,,,,,,,,,,,cyan,line
2.0,1,4.0,4.0,300.632953644,2.0,part_1,,,,,,,,,,,,,gray,square
2.0,0,3.0,3.0,284.078836441,2.0,part_1,,,,,,,,,,,,,orange,flipped triangle
1.0,1,2.0,2.0,450.824022293,3.0,part_1,,,,,,,,,,,,,green,circle
2.0,1,3.0,3.0,301.37801170299997,3.0,part_1,,,,,,,,,,,,,gray,square
2.0,1,3.0,3.0,317.566156387,3.0,part_1,,,,,,,,,,,,,gray,square
1.0,1,2.0,2.0,366.914987564,3.0,part_1,,,,,,,,,,,,,green,circle
4.0,1,1.0,1.0,350.636959076,3.0,part_1,,,,,,,,,,,,,white,hexagon
2.0,1,1.0,1.0,333.952188492,3.0,part_1,,,,,,,,,,,,,gray,square
4.0,0,1.0,1.0,317.964076996,3.0,part_1,,,,,,,,,,,,,cyan,line
1.0,0,3.0,3.0,367.363929749,3.0,part_1,,,,,,,,,,,,,yellow,cross
1.0,0,3.0,3.0,351.38297080999996,3.0,part_1,,,,,,,,,,,,,yellow,cross
0.5,0,1.0,1.0,350.911140442,3.0,part_1,,,,,,,,,,,,,magenta,triangle
1.0,1,1.0,1.0,334.063053131,3.0,part_1,,,,,,,,,,,,,green,circle
4.0,0,3.0,3.0,333.75000953700004,3.0,part_1,,,,,,,,,,,,,cyan,line
4.0,1,4.0,4.0,333.969831467,3.0,part_1,,,,,,,,,,,,,white,hexagon
4.0,1,3.0,3.0,316.955089569,3.0,part_1,,,,,,,,,,,,,white,hexagon
0.5,0,1.0,1.0,284.162044525,3.0,part_1,,,,,,,,,,,,,magenta,triangle
1.0,0,1.0,1.0,351.106882095,3.0,part_1,,,,,,,,,,,,,yellow,cross
2.0,0,3.0,3.0,334.038972855,3.0,part_1,,,,,,,,,,,,,orange,flipped triangle
4.0,0,2.0,2.0,367.341041565,3.0,part_1,,,,,,,,,,,,,cyan,line
2.0,1,3.0,3.0,367.41495132399996,3.0,part_1,,,,,,,,,,,,,gray,square
4.0,1,3.0,3.0,384.447097778,3.0,part_1,,,,,,,,,,,,,white,hexagon
0.5,0,3.0,3.0,317.804098129,3.0,part_1,,,,,,,,,,,,,magenta,triangle
0.5,1,4.0,4.0,317.749023438,3.0,part_1,,,,,,,,,,,,,blue,diamond
2.0,0,3.0,3.0,300.044059753,3.0,part_1,,,,,,,,,,,,,orange,flipped triangle
0.5,0,4.0,4.0,317.820072174,3.0,part_1,,,,,,,,,,,,,magenta,triangle
4.0,0,2.0,2.0,400.43091774,3.0,part_1,,,,,,,,,,,,,cyan,line
2.0,1,1.0,1.0,334.223985672,3.0,part_1,,,,,,,,,,,,,gray,square
1.0,0,1.0,1.0,283.936023712,3.0,part_1,,,,,,,,,,,,,yellow,cross
1.0,1,4.0,4.0,284.321069717,3.0,part_1,,,,,,,,,,,,,green,circle
1.0,0,4.0,4.0,267.45700836199995,3.0,part_1,,,,,,,,,,,,,yellow,cross
4.0,0,2.0,2.0,367.772102356,3.0,part_1,,,,,,,,,,,,,cyan,line
0.5,0,2.0,2.0,368.001937866,3.0,part_1,,,,,,,,,,,,,magenta,triangle
0.5,1,2.0,2.0,751.149177551,3.0,part_1,,,,,,,,,,,,,blue,diamond
0.5,0,2.0,2.0,300.724983215,3.0,part_1,,,,,,,,,,,,,magenta,triangle
2.0,1,4.0,4.0,283.702850342,3.0,part_1,,,,,,,,,,,,,gray,square
4.0,1,1.0,1.0,300.564050674,3.0,part_1,,,,,,,,,,,,,white,hexagon
1.0,0,2.0,2.0,350.000858307,3.0,part_1,,,,,,,,,,,,,yellow,cross
2.0,0,2.0,2.0,300.430774689,3.0,part_1,,,,,,,,,,,,,orange,flipped triangle
0.5,0,1.0,1.0,317.38114357,3.0,part_1,,,,,,,,,,,,,magenta,triangle
1.0,1,4.0,4.0,300.28200149500003,3.0,part_1,,,,,,,,,,,,,green,circle
1.0,1,1.0,1.0,300.785064697,3.0,part_1,,,,,,,,,,,,,green,circle
0.5,1,4.0,4.0,283.96701812699996,3.0,part_1,,,,,,,,,,,,,blue,diamond
4.0,1,1.0,1.0,300.825834274,3.0,part_1,,,,,,,,,,,,,white,hexagon
1.0,0,1.0,1.0,284.247159958,3.0,part_1,,,,,,,,,,,,,yellow,cross
4.0,0,4.0,4.0,300.867080688,3.0,part_1,,,,,,,,,,,,,cyan,line
4.0,0,4.0,4.0,301.364898682,3.0,part_1,,,,,,,,,,,,,cyan,line
1.0,0,2.0,2.0,317.43979454,3.0,part_1,,,,,,,,,,,,,yellow,cross
4.0,0,4.0,4.0,333.751916885,3.0,part_1,,,,,,,,,,,,,cyan,line
2.0,0,2.0,2.0,334.503889084,3.0,part_1,,,,,,,,,,,,,orange,flipped triangle
1.0,0,1.0,1.0,267.349004745,3.0,part_1,,,,,,,,,,,,,yellow,cross
1.0,1,3.0,3.0,351.162910461,3.0,part_1,,,,,,,,,,,,,green,circle
2.0,0,4.0,4.0,300.869941711,3.0,part_1,,,,,,,,,,,,,orange,flipped triangle
4.0,1,1.0,1.0,300.241947174,3.0,part_1,,,,,,,,,,,,,white,hexagon
0.5,1,3.0,3.0,334.007024765,3.0,part_1,,,,,,,,,,,,,blue,diamond
0.5,1,1.0,1.0,367.92016029399997,3.0,part_1,,,,,,,,,,,,,blue,diamond
0.5,0,2.0,2.0,333.791971207,3.0,part_1,,,,,,,,,,,,,magenta,triangle
2.0,0,1.0,1.0,367.521047592,3.0,part_1,,,,,,,,,,,,,orange,flipped triangle
4.0,0,4.0,4.0,266.696929932,3.0,part_1,,,,,,,,,,,,,cyan,line
1.0,0,1.0,1.0,283.74195098900003,3.0,part_1,,,,,,,,,,,,,yellow,cross
4.0,0,2.0,2.0,317.37303733799996,3.0,part_1,,,,,,,,,,,,,cyan,line
0.5,0,3.0,3.0,351.13286972000003,3.0,part_1,,,,,,,,,,,,,magenta,triangle
4.0,0,4.0,4.0,284.235954285,3.0,part_1,,,,,,,,,,,,,cyan,line
4.0,1,3.0,3.0,317.570924759,3.0,part_1,,,,,,,,,,,,,white,hexagon
2.0,1,1.0,1.0,317.49200820899995,3.0,part_1,,,,,,,,,,,,,gray,square
0.5,0,4.0,4.0,283.895969391,3.0,part_1,,,,,,,,,,,,,magenta,triangle
0.5,0,3.0,3.0,333.786010742,3.0,part_1,,,,,,,,,,,,,magenta,triangle
2.0,0,3.0,3.0,333.556890488,3.0,part_1,,,,,,,,,,,,,orange,flipped triangle
2.0,0,3.0,3.0,283.957004547,3.0,part_1,,,,,,,,,,,,,orange,flipped triangle
1.0,0,4.0,4.0,300.574064255,3.0,part_1,,,,,,,,,,,,,yellow,cross
2.0,0,2.0,2.0,333.819150925,3.0,part_1,,,,,,,,,,,,,orange,flipped triangle
1.0,1,1.0,1.0,367.812871933,3.0,part_1,,,,,,,,,,,,,green,circle
2.0,1,1.0,1.0,317.576885223,3.0,part_1,,,,,,,,,,,,,gray,square
4.0,0,2.0,2.0,333.917856216,3.0,part_1,,,,,,,,,,,,,cyan,line
4.0,0,3.0,3.0,334.60712432900004,3.0,part_1,,,,,,,,,,,,,cyan,line
1.0,0,3.0,3.0,334.16295051599997,3.0,part_1,,,,,,,,,,,,,yellow,cross
2.0,1,2.0,2.0,383.756875992,3.0,part_1,,,,,,,,,,,,,gray,square
2.0,0,4.0,4.0,300.266027451,3.0,part_1,,,,,,,,,,,,,orange,flipped triangle
2.0,0,4.0,4.0,316.75696373,3.0,part_1,,,,,,,,,,,,,orange,flipped triangle
4.0,1,4.0,4.0,251.13201141399998,3.0,part_1,,,,,,,,,,,,,white,hexagon
4.0,1,1.0,1.0,283.971071243,3.0,part_1,,,,,,,,,,,,,white,hexagon
0.5,1,4.0,4.0,301.034927368,3.0,part_1,,,,,,,,,,,,,blue,diamond
1.0,1,2.0,2.0,367.663145065,3.0,part_1,,,,,,,,,,,,,green,circle
0.5,1,4.0,4.0,300.541877747,3.0,part_1,,,,,,,,,,,,,blue,diamond
1.0,0,4.0,4.0,317.427158356,3.0,part_1,,,,,,,,,,,,,yellow,cross
1.0,1,3.0,3.0,366.92309379600005,3.0,part_1,,,,,,,,,,,,,green,circle
2.0,1,2.0,2.0,350.086927414,3.0,part_1,,,,,,,,,,,,,gray,square
4.0,1,2.0,2.0,367.43307113599997,3.0,part_1,,,,,,,,,,,,,white,hexagon
2.0,1,2.0,2.0,367.563009262,3.0,part_1,,,,,,,,,,,,,gray,square
2.0,1,2.0,2.0,401.18098259,3.0,part_1,,,,,,,,,,,,,gray,square
1.0,1,4.0,4.0,317.21401214599996,3.0,part_1,,,,,,,,,,,,,green,circle
0.5,0,3.0,3.0,367.608070374,3.0,part_1,,,,,,,,,,,,,magenta,triangle
4.0,0,3.0,3.0,367.481946945,3.0,part_1,,,,,,,,,,,,,cyan,line
1.0,0,2.0,2.0,351.02200508100003,3.0,part_1,,,,,,,,,,,,,yellow,cross
4.0,1,4.0,4.0,300.565004349,3.0,part_1,,,,,,,,,,,,,white,hexagon
2.0,1,1.0,1.0,350.844860077,3.0,part_1,,,,,,,,,,,,,gray,square
2.0,1,3.0,3.0,350.53300857500005,3.0,part_1,,,,,,,,,,,,,gray,square
0.5,1,3.0,3.0,351.337909698,3.0,part_1,,,,,,,,,,,,,blue,diamond
0.5,0,4.0,4.0,350.96192359900004,3.0,part_1,,,,,,,,,,,,,magenta,triangle
4.0,1,2.0,2.0,400.796890259,3.0,part_1,,,,,,,,,,,,,white,hexagon
4.0,0,2.0,2.0,384.313106537,3.0,part_1,,,,,,,,,,,,,cyan,line
1.0,0,1.0,1.0,418.071985245,3.0,part_1,,,,,,,,,,,,,yellow,cross
0.5,0,3.0,3.0,451.000928879,4.0,part_1,,,,,,,,,,,,,magenta,triangle
1.0,1,1.0,1.0,351.529121399,4.0,part_1,,,,,,,,,,,,,green,circle
4.0,1,3.0,3.0,400.66885948199996,4.0,part_1,,,,,,,,,,,,,white,hexagon
0.5,0,1.0,1.0,350.794792175,4.0,part_1,,,,,,,,,,,,,magenta,triangle
1.0,0,3.0,3.0,350.52180290200005,4.0,part_1,,,,,,,,,,,,,yellow,cross
1.0,0,4.0,4.0,317.645072937,4.0,part_1,,,,,,,,,,,,,yellow,cross
4.0,0,3.0,3.0,384.10115242,4.0,part_1,,,,,,,,,,,,,cyan,line
1.0,0,4.0,4.0,451.31182670600003,4.0,part_1,,,,,,,,,,,,,yellow,cross
2.0,1,4.0,4.0,350.60977935799997,4.0,part_1,,,,,,,,,,,,,gray,square
4.0,1,4.0,4.0,351.50098800700005,4.0,part_1,,,,,,,,,,,,,white,hexagon
0.5,0,3.0,3.0,367.516994476,4.0,part_1,,,,,,,,,,,,,magenta,triangle
4.0,1,1.0,1.0,317.60907173199996,4.0,part_1,,,,,,,,,,,,,white,hexagon
0.5,0,2.0,2.0,367.077112198,4.0,part_1,,,,,,,,,,,,,magenta,triangle
0.5,1,1.0,1.0,368.021965027,4.0,part_1,,,,,,,,,,,,,blue,diamond
1.0,0,4.0,4.0,333.853006363,4.0,part_1,,,,,,,,,,,,,yellow,cross
0.5,0,1.0,1.0,333.879947662,4.0,part_1,,,,,,,,,,,,,magenta,triangle
1.0,1,3.0,3.0,367.375135422,4.0,part_1,,,,,,,,,,,,,green,circle
1.0,0,2.0,2.0,400.865077972,4.0,part_1,,,,,,,,,,,,,yellow,cross
0.5,1,4.0,4.0,350.833892822,4.0,part_1,,,,,,,,,,,,,blue,diamond
4.0,1,2.0,2.0,334.013938904,4.0,part_1,,,,,,,,,,,,,white,hexagon
1.0,0,1.0,1.0,301.048994064,4.0,part_1,,,,,,,,,,,,,yellow,cross
1.0,0,2.0,2.0,367.640018463,4.0,part_1,,,,,,,,,,,,,yellow,cross
4.0,1,3.0,3.0,334.10096168499996,4.0,part_1,,,,,,,,,,,,,white,hexagon
2.0,0,3.0,3.0,317.209005356,4.0,part_1,,,,,,,,,,,,,orange,flipped triangle
2.0,0,4.0,4.0,350.852012634,4.0,part_1,,,,,,,,,,,,,orange,flipped triangle
2.0,0,1.0,1.0,334.238052368,4.0,part_1,,,,,,,,,,,,,orange,flipped triangle
4.0,0,3.0,3.0,317.20995903,4.0,part_1,,,,,,,,,,,,,cyan,line
2.0,0,3.0,3.0,317.202091217,4.0,part_1,,,,,,,,,,,,,orange,flipped triangle
1.0,0,2.0,2.0,367.938995361,4.0,part_1,,,,,,,,,,,,,yellow,cross
0.5,0,4.0,4.0,317.10696220399996,4.0,part_1,,,,,,,,,,,,,magenta,triangle
0.5,0,2.0,2.0,384.423017502,4.0,part_1,,,,,,,,,,,,,magenta,triangle
2.0,1,3.0,3.0,317.687988281,4.0,part_1,,,,,,,,,,,,,gray,square
0.5,0,1.0,1.0,350.857019424,4.0,part_1,,,,,,,,,,,,,magenta,triangle
0.5,0,2.0,2.0,400.84695816,4.0,part_1,,,,,,,,,,,,,magenta,triangle
4.0,1,3.0,3.0,368.086099625,4.0,part_1,,,,,,,,,,,,,white,hexagon
1.0,1,4.0,4.0,333.84680748,4.0,part_1,,,,,,,,,,,,,green,circle
1.0,1,3.0,3.0,333.76097679099996,4.0,part_1,,,,,,,,,,,,,green,circle
4.0,0,4.0,4.0,333.895921707,4.0,part_1,,,,,,,,,,,,,cyan,line
1.0,0,3.0,3.0,350.811958313,4.0,part_1,,,,,,,,,,,,,yellow,cross
1.0,1,1.0,1.0,350.922107697,4.0,part_1,,,,,,,,,,,,,green,circle
0.5,0,3.0,3.0,333.792924881,4.0,part_1,,,,,,,,,,,,,magenta,triangle
1.0,1,2.0,2.0,351.07707977300004,4.0,part_1,,,,,,,,,,,,,green,circle
0.5,0,1.0,1.0,334.32197570799997,4.0,part_1,,,,,,,,,,,,,magenta,triangle
2.0,1,3.0,3.0,450.555086136,4.0,part_1,,,,,,,,,,,,,gray,square
1.0,0,1.0,1.0,316.828012466,4.0,part_1,,,,,,,,,,,,,yellow,cross
1.0,1,2.0,2.0,384.39416885400004,4.0,part_1,,,,,,,,,,,,,green,circle
4.0,0,4.0,4.0,317.60406494100005,4.0,part_1,,,,,,,,,,,,,cyan,line
0.5,1,1.0,1.0,350.88801384,4.0,part_1,,,,,,,,,,,,,blue,diamond
2.0,1,1.0,1.0,301.073074341,4.0,part_1,,,,,,,,,,,,,gray,square
1.0,0,4.0,4.0,350.972890854,4.0,part_1,,,,,,,,,,,,,yellow,cross
4.0,0,4.0,4.0,317.633867264,4.0,part_1,,,,,,,,,,,,,cyan,line
0.5,0,4.0,4.0,350.515842438,4.0,part_1,,,,,,,,,,,,,magenta,triangle
4.0,0,3.0,3.0,350.631952286,4.0,part_1,,,,,,,,,,,,,cyan,line
4.0,0,2.0,2.0,367.239952087,4.0,part_1,,,,,,,,,,,,,cyan,line
4.0,1,3.0,3.0,334.334850311,4.0,part_1,,,,,,,,,,,,,white,hexagon
0.5,1,3.0,3.0,350.542783737,4.0,part_1,,,,,,,,,,,,,blue,diamond
1.0,1,2.0,2.0,367.386102676,4.0,part_1,,,,,,,,,,,,,green,circle
1.0,0,4.0,4.0,300.544023514,4.0,part_1,,,,,,,,,,,,,yellow,cross
0.5,0,1.0,1.0,317.505121231,4.0,part_1,,,,,,,,,,,,,magenta,triangle
4.0,1,3.0,3.0,318.20201873800005,4.0,part_1,,,,,,,,,,,,,white,hexagon
1.0,0,2.0,2.0,334.682941437,4.0,part_1,,,,,,,,,,,,,yellow,cross
2.0,1,2.0,2.0,367.469072342,4.0,part_1,,,,,,,,,,,,,gray,square
0.5,1,1.0,1.0,334.370851517,4.0,part_1,,,,,,,,,,,,,blue,diamond
0.5,1,1.0,1.0,334.03921127300003,4.0,part_1,,,,,,,,,,,,,blue,diamond
2.0,1,2.0,2.0,351.01699829100005,4.0,part_1,,,,,,,,,,,,,gray,square
0.5,1,4.0,4.0,350.759983063,4.0,part_1,,,,,,,,,,,,,blue,diamond
0.5,1,4.0,4.0,317.20018386799995,4.0,part_1,,,,,,,,,,,,,blue,diamond
2.0,0,4.0,4.0,367.228031158,4.0,part_1,,,,,,,,,,,,,orange,flipped triangle
0.5,0,1.0,1.0,317.129135132,4.0,part_1,,,,,,,,,,,,,magenta,triangle
4.0,0,2.0,2.0,334.00511741599996,4.0,part_1,,,,,,,,,,,,,cyan,line
1.0,1,2.0,2.0,351.05919838,4.0,part_1,,,,,,,,,,,,,green,circle
2.0,1,1.0,1.0,283.695936203,4.0,part_1,,,,,,,,,,,,,gray,square
4.0,1,4.0,4.0,317.32797622699997,4.0,part_1,,,,,,,,,,,,,white,hexagon
2.0,1,2.0,2.0,317.921876907,4.0,part_1,,,,,,,,,,,,,gray,square
4.0,0,3.0,3.0,350.704908371,4.0,part_1,,,,,,,,,,,,,cyan,line
0.5,1,4.0,4.0,400.74396133399995,4.0,part_1,,,,,,,,,,,,,blue,diamond
2.0,0,2.0,2.0,351.40490531899997,4.0,part_1,,,,,,,,,,,,,orange,flipped triangle
0.5,1,3.0,3.0,367.560148239,4.0,part_1,,,,,,,,,,,,,blue,diamond
2.0,0,1.0,1.0,301.113128662,4.0,part_1,,,,,,,,,,,,,orange,flipped triangle
0.5,0,1.0,1.0,334.379911423,4.0,part_1,,,,,,,,,,,,,magenta,triangle
1.0,1,4.0,4.0,334.308862686,4.0,part_1,,,,,,,,,,,,,green,circle
2.0,1,2.0,2.0,367.478132248,4.0,part_1,,,,,,,,,,,,,gray,square
1.0,1,4.0,4.0,300.644159317,4.0,part_1,,,,,,,,,,,,,green,circle
0.5,1,4.0,4.0,367.38204956100003,4.0,part_1,,,,,,,,,,,,,blue,diamond
1.0,1,2.0,2.0,300.700902939,4.0,part_1,,,,,,,,,,,,,green,circle
4.0,0,2.0,2.0,317.61598587000003,4.0,part_1,,,,,,,,,,,,,cyan,line
2.0,0,1.0,1.0,317.88086891200004,4.0,part_1,,,,,,,,,,,,,orange,flipped triangle
0.5,1,1.0,1.0,300.410032272,4.0,part_1,,,,,,,,,,,,,blue,diamond
2.0,0,3.0,3.0,351.044893265,4.0,part_1,,,,,,,,,,,,,orange,flipped triangle
4.0,0,2.0,2.0,417.65499115,4.0,part_1,,,,,,,,,,,,,cyan,line
0.5,1,2.0,2.0,350.65197944600004,4.0,part_1,,,,,,,,,,,,,blue,diamond
4.0,0,1.0,1.0,300.52113533000005,4.0,part_1,,,,,,,,,,,,,cyan,line
4.0,1,1.0,1.0,301.35321617100004,4.0,part_1,,,,,,,,,,,,,white,hexagon
4.0,0,3.0,3.0,351.528167725,4.0,part_1,,,,,,,,,,,,,cyan,line
2.0,0,4.0,4.0,317.38305091899997,4.0,part_1,,,,,,,,,,,,,orange,flipped triangle
0.5,1,3.0,3.0,317.9500103,4.0,part_1,,,,,,,,,,,,,blue,diamond
2.0,1,4.0,4.0,367.511987686,4.0,part_1,,,,,,,,,,,,,gray,square
1.0,0,1.0,1.0,300.80604553200004,4.0,part_1,,,,,,,,,,,,,yellow,cross
4.0,1,2.0,2.0,367.408037186,4.0,part_1,,,,,,,,,,,,,white,hexagon
4.0,1,2.0,2.0,334.436893463,4.0,part_1,,,,,,,,,,,,,white,hexagon
2.0,1,6.0,,,1.0,,stop,250.0,250.0,4.0,,,,,,,,,gray,square
1.0,1,6.0,6.0,702.116012573,1.0,part_2,go,250.0,250.0,1.0,,,,,,,,,green,circle
4.0,1,5.0,5.0,751.248836517,1.0,part_2,go,250.0,250.0,1.0,,,,,,,,,white,hexagon
1.0,0,6.0,6.0,668.143987656,1.0,part_2,go,250.0,250.0,1.0,,,,,,,,,yellow,cross
2.0,1,5.0,5.0,517.353057861,1.0,part_2,go,250.0,250.0,1.0,,,,,,,,,gray,square
4.0,1,6.0,,,1.0,,stop,250.0,300.0,4.0,,,,,,,,,white,hexagon
1.0,0,5.0,5.0,650.573968887,1.0,part_2,go,250.0,300.0,1.0,,,,,,,,,yellow,cross
0.5,0,6.0,6.0,550.795793533,1.0,part_2,go,250.0,300.0,1.0,,,,,,,,,magenta,triangle
0.5,0,5.0,5.0,384.379148483,1.0,part_2,go,250.0,300.0,1.0,,,,,,,,,magenta,triangle
0.5,1,5.0,5.0,450.885057449,1.0,part_2,go,250.0,300.0,1.0,,,,,,,,,blue,diamond
2.0,1,6.0,6.0,450.814962387,1.0,part_2,stop,250.0,350.0,3.0,,,,,,,,,gray,square
1.0,1,6.0,,,1.0,,stop,250.0,300.0,4.0,,,,,,,,,green,circle
1.0,1,6.0,,,1.0,,stop,250.0,350.0,4.0,,,,,,,,,green,circle
4.0,1,5.0,,,1.0,,stop,250.0,350.0,4.0,,,,,,,,,white,hexagon
4.0,0,5.0,5.0,484.061002731,1.0,part_2,go,250.0,350.0,1.0,,,,,,,,,cyan,line
1.0,1,5.0,5.0,534.387111664,1.0,part_2,go,250.0,350.0,1.0,,,,,,,,,green,circle
0.5,1,5.0,5.0,400.436878204,1.0,part_2,go,250.0,350.0,1.0,,,,,,,,,blue,diamond
4.0,1,6.0,6.0,533.816814423,1.0,part_2,stop,250.0,400.0,3.0,,,,,,,,,white,hexagon
4.0,0,6.0,6.0,784.7099304200001,1.0,part_2,go,250.0,400.0,1.0,,,,,,,,,cyan,line
4.0,1,5.0,,,1.0,,stop,300.0,400.0,4.0,,,,,,,,,white,hexagon
2.0,1,6.0,,,1.0,,stop,300.0,350.0,4.0,,,,,,,,,gray,square
1.0,1,5.0,,,1.0,,stop,350.0,350.0,4.0,,,,,,,,,green,circle
1.0,0,5.0,5.0,617.481946945,1.0,part_2,go,350.0,350.0,1.0,,,,,,,,,yellow,cross
0.5,1,6.0,,,1.0,,stop,350.0,400.0,4.0,,,,,,,,,blue,diamond
0.5,0,6.0,6.0,650.899887085,1.0,part_2,go,350.0,400.0,1.0,,,,,,,,,magenta,triangle
0.5,0,5.0,5.0,417.97804832500003,1.0,part_2,go,350.0,400.0,1.0,,,,,,,,,magenta,triangle
2.0,1,5.0,5.0,450.833082199,1.0,part_2,go,350.0,400.0,1.0,,,,,,,,,gray,square
2.0,0,6.0,6.0,417.11878776599997,1.0,part_2,go,350.0,400.0,1.0,,,,,,,,,orange,flipped triangle
1.0,1,5.0,5.0,300.56786537199997,1.0,part_2,go,350.0,400.0,1.0,,,,,,,,,green,circle
4.0,0,6.0,6.0,451.08008384699997,1.0,part_2,go,350.0,400.0,1.0,,,,,,,,,cyan,line
2.0,0,6.0,6.0,467.87595748900003,1.0,part_2,go,350.0,400.0,1.0,,,,,,,,,orange,flipped triangle
2.0,1,5.0,5.0,350.582122803,1.0,part_2,stop,400.0,400.0,3.0,,,,,,,,,gray,square
4.0,0,5.0,5.0,483.80303382899996,1.0,part_2,go,400.0,400.0,1.0,,,,,,,,,cyan,line
0.5,1,6.0,6.0,500.252008438,1.0,part_2,stop,400.0,450.0,3.0,,,,,,,,,blue,diamond
4.0,1,5.0,,,1.0,,stop,350.0,450.0,4.0,,,,,,,,,white,hexagon
4.0,0,6.0,6.0,600.6550788879999,1.0,part_2,go,350.0,450.0,1.0,,,,,,,,,cyan,line
0.5,1,6.0,,,2.0,,stop,350.0,400.0,4.0,,,,,,,,,blue,diamond
0.5,0,6.0,6.0,617.2630786899999,2.0,part_2,go,350.0,400.0,1.0,,,,,,,,,magenta,triangle
0.5,0,5.0,5.0,467.14782714800003,2.0,part_2,go,350.0,400.0,1.0,,,,,,,,,magenta,triangle
1.0,1,6.0,6.0,534.18302536,2.0,part_2,stop,350.0,450.0,3.0,,,,,,,,,green,circle
2.0,1,5.0,5.0,517.84491539,2.0,part_2,stop,400.0,450.0,3.0,,,,,,,,,gray,square
2.0,0,6.0,6.0,768.039941788,2.0,part_2,go,400.0,450.0,1.0,,,,,,,,,orange,flipped triangle
2.0,0,6.0,6.0,717.912912369,2.0,part_2,go,400.0,450.0,1.0,,,,,,,,,orange,flipped triangle
2.0,0,6.0,6.0,667.9508686070001,2.0,part_2,go,400.0,450.0,1.0,,,,,,,,,orange,flipped triangle
4.0,0,5.0,5.0,667.7939891819999,2.0,part_2,go,400.0,450.0,1.0,,,,,,,,,cyan,line
1.0,1,5.0,,,2.0,,stop,350.0,450.0,4.0,,,,,,,,,green,circle
0.5,1,6.0,,,2.0,,stop,350.0,400.0,4.0,,,,,,,,,blue,diamond
4.0,1,6.0,6.0,634.536027908,2.0,part_2,go,350.0,400.0,1.0,,,,,,,,,white,hexagon
2.0,0,6.0,6.0,817.715883255,2.0,part_2,go,350.0,400.0,1.0,,,,,,,,,orange,flipped triangle
2.0,0,5.0,5.0,450.536966324,2.0,part_2,go,350.0,400.0,1.0,,,,,,,,,orange,flipped triangle
0.5,1,5.0,5.0,434.201955795,2.0,part_2,stop,400.0,400.0,3.0,,,,,,,,,blue,diamond
0.5,0,5.0,5.0,584.368944168,2.0,part_2,go,400.0,400.0,1.0,,,,,,,,,magenta,triangle
2.0,0,6.0,6.0,651.077985764,2.0,part_2,go,400.0,400.0,1.0,,,,,,,,,orange,flipped triangle
1.0,1,6.0,6.0,601.096868515,2.0,part_2,stop,400.0,450.0,3.0,,,,,,,,,green,circle
2.0,0,5.0,5.0,834.47599411,2.0,part_2,go,400.0,450.0,1.0,,,,,,,,,orange,flipped triangle
1.0,1,6.0,,,2.0,,stop,400.0,400.0,4.0,,,,,,,,,green,circle
1.0,0,6.0,6.0,901.216030121,2.0,part_2,go,400.0,400.0,1.0,,,,,,,,,yellow,cross
1.0,0,5.0,5.0,617.643117905,2.0,part_2,go,400.0,400.0,1.0,,,,,,,,,yellow,cross
0.5,0,5.0,5.0,700.8490562439999,2.0,part_2,go,400.0,400.0,1.0,,,,,,,,,magenta,triangle
1.0,1,6.0,,,2.0,,stop,400.0,450.0,4.0,,,,,,,,,green,circle
4.0,0,5.0,5.0,817.930936813,2.0,part_2,go,400.0,450.0,1.0,,,,,,,,,cyan,line
2.0,0,6.0,6.0,767.701864243,2.0,part_2,go,400.0,450.0,1.0,,,,,,,,,orange,flipped triangle
1.0,0,5.0,5.0,751.066923141,2.0,part_2,go,400.0,450.0,1.0,,,,,,,,,yellow,cross
2.0,0,5.0,5.0,567.666769028,2.0,part_2,go,400.0,450.0,1.0,,,,,,,,,orange,flipped triangle
1.0,0,5.0,5.0,550.7931709290001,2.0,part_2,go,400.0,450.0,1.0,,,,,,,,,yellow,cross
0.5,1,6.0,6.0,635.041952133,2.0,part_2,go,400.0,450.0,1.0,,,,,,,,,blue,diamond
4.0,0,5.0,5.0,517.5678730010001,2.0,part_2,go,400.0,450.0,1.0,,,,,,,,,cyan,line
1.0,0,6.0,6.0,634.9251270289999,2.0,part_2,go,400.0,450.0,1.0,,,,,,,,,yellow,cross
4.0,0,5.0,5.0,801.1908531189999,2.0,part_2,go,400.0,450.0,1.0,,,,,,,,,cyan,line
2.0,0,5.0,5.0,784.581184387,2.0,part_2,go,400.0,450.0,1.0,,,,,,,,,orange,flipped triangle
2.0,1,6.0,,,2.0,,stop,400.0,500.0,4.0,,,,,,,,,gray,square
1.0,1,5.0,5.0,884.901046753,2.0,part_2,go,400.0,500.0,1.0,,,,,,,,,green,circle
0.5,0,6.0,6.0,651.376008987,3.0,part_2,go,400.0,500.0,1.0,,,,,,,,,magenta,triangle
0.5,1,5.0,,,3.0,,stop,350.0,500.0,4.0,,,,,,,,,blue,diamond
4.0,1,5.0,5.0,784.531831741,3.0,part_2,go,350.0,500.0,1.0,,,,,,,,,white,hexagon
4.0,0,6.0,6.0,634.629011154,3.0,part_2,go,350.0,500.0,1.0,,,,,,,,,cyan,line
0.5,1,5.0,,,3.0,,stop,400.0,500.0,4.0,,,,,,,,,blue,diamond
4.0,0,5.0,5.0,634.279966354,3.0,part_2,go,400.0,500.0,1.0,,,,,,,,,cyan,line
2.0,0,6.0,6.0,601.2258529659999,3.0,part_2,go,400.0,500.0,1.0,,,,,,,,,orange,flipped triangle
4.0,1,6.0,6.0,667.651176453,3.0,part_2,stop,400.0,550.0,3.0,,,,,,,,,white,hexagon
2.0,1,5.0,5.0,684.8189830780001,3.0,part_2,stop,450.0,550.0,3.0,,,,,,,,,gray,square
4.0,1,6.0,,,3.0,,stop,450.0,500.0,4.0,,,,,,,,,white,hexagon
4.0,1,5.0,,,3.0,,stop,400.0,500.0,4.0,,,,,,,,,white,hexagon
0.5,1,5.0,5.0,601.222991943,3.0,part_2,go,400.0,500.0,1.0,,,,,,,,,blue,diamond
4.0,0,6.0,6.0,784.683942795,3.0,part_2,go,400.0,500.0,1.0,,,,,,,,,cyan,line
2.0,1,6.0,6.0,684.401988983,3.0,part_2,stop,400.0,550.0,3.0,,,,,,,,,gray,square
4.0,0,6.0,6.0,601.540088654,3.0,part_2,go,400.0,550.0,1.0,,,,,,,,,cyan,line
2.0,1,6.0,6.0,618.307828903,3.0,part_2,stop,400.0,500.0,3.0,,,,,,,,,gray,square
1.0,0,6.0,6.0,701.539993286,3.0,part_2,go,400.0,500.0,1.0,,,,,,,,,yellow,cross
1.0,1,5.0,,,3.0,,stop,450.0,500.0,4.0,,,,,,,,,green,circle
0.5,1,6.0,,,3.0,,stop,450.0,450.0,4.0,,,,,,,,,blue,diamond
1.0,0,6.0,6.0,717.6752090450001,3.0,part_2,go,450.0,450.0,1.0,,,,,,,,,yellow,cross
0.5,0,6.0,6.0,684.597969055,3.0,part_2,go,450.0,450.0,1.0,,,,,,,,,magenta,triangle
0.5,0,5.0,5.0,600.592851639,3.0,part_2,go,450.0,450.0,1.0,,,,,,,,,magenta,triangle
2.0,1,5.0,5.0,634.22703743,3.0,part_2,stop,500.0,450.0,3.0,,,,,,,,,gray,square
2.0,0,5.0,5.0,834.806919098,3.0,part_2,go,500.0,450.0,1.0,,,,,,,,,orange,flipped triangle
4.0,0,5.0,5.0,684.571027756,3.0,part_2,go,500.0,450.0,1.0,,,,,,,,,cyan,line
0.5,1,6.0,,,3.0,,stop,500.0,500.0,4.0,,,,,,,,,blue,diamond
2.0,1,6.0,6.0,650.721073151,3.0,part_2,stop,500.0,550.0,3.0,,,,,,,,,gray,square
1.0,1,5.0,,,3.0,,stop,450.0,550.0,4.0,,,,,,,,,green,circle
4.0,1,6.0,6.0,734.9700927729999,3.0,part_2,go,450.0,550.0,1.0,,,,,,,,,white,hexagon
1.0,0,5.0,5.0,817.930221558,3.0,part_2,go,450.0,550.0,1.0,,,,,,,,,yellow,cross
0.5,0,5.0,5.0,734.811067581,3.0,part_2,go,450.0,550.0,1.0,,,,,,,,,magenta,triangle
0.5,0,6.0,6.0,684.86905098,3.0,part_2,go,450.0,550.0,1.0,,,,,,,,,magenta,triangle
1.0,1,5.0,5.0,717.903852463,3.0,part_2,stop,500.0,550.0,3.0,,,,,,,,,green,circle
0.5,0,5.0,5.0,834.540128708,3.0,part_2,go,500.0,550.0,1.0,,,,,,,,,magenta,triangle
0.5,0,6.0,6.0,867.927789688,3.0,part_2,go,500.0,550.0,1.0,,,,,,,,,magenta,triangle
0.5,0,5.0,5.0,834.779024124,3.0,part_2,go,500.0,550.0,1.0,,,,,,,,,magenta,triangle
0.5,0,5.0,5.0,550.931215286,4.0,part_2,go,500.0,550.0,1.0,,,,,,,,,magenta,triangle
0.5,0,5.0,5.0,517.9519653320001,4.0,part_2,go,500.0,550.0,1.0,,,,,,,,,magenta,triangle
1.0,1,6.0,6.0,684.141874313,4.0,part_2,stop,500.0,500.0,3.0,,,,,,,,,green,circle
1.0,0,5.0,5.0,584.043979645,4.0,part_2,go,500.0,500.0,1.0,,,,,,,,,yellow,cross
0.5,1,6.0,6.0,551.0880947109999,4.0,part_2,stop,500.0,450.0,3.0,,,,,,,,,blue,diamond
4.0,0,5.0,5.0,701.5609741210001,4.0,part_2,go,500.0,450.0,1.0,,,,,,,,,cyan,line
4.0,1,6.0,6.0,651.757955551,4.0,part_2,go,500.0,450.0,1.0,,,,,,,,,white,hexagon
0.5,1,5.0,5.0,484.30395126300004,4.0,part_2,stop,450.0,450.0,3.0,,,,,,,,,blue,diamond
1.0,1,5.0,5.0,734.29107666,4.0,part_2,go,450.0,450.0,1.0,,,,,,,,,green,circle
4.0,0,5.0,5.0,634.8509788509999,4.0,part_2,go,450.0,450.0,1.0,,,,,,,,,cyan,line
1.0,0,5.0,5.0,801.6719818119999,4.0,part_2,go,450.0,450.0,1.0,,,,,,,,,yellow,cross
1.0,0,6.0,6.0,734.9100112919999,4.0,part_2,go,450.0,450.0,1.0,,,,,,,,,yellow,cross
1.0,0,6.0,6.0,551.2540340420001,4.0,part_2,go,450.0,450.0,1.0,,,,,,,,,yellow,cross
1.0,1,6.0,6.0,667.8631305690001,4.0,part_2,go,450.0,450.0,1.0,,,,,,,,,green,circle
2.0,0,6.0,6.0,467.443943024,4.0,part_2,go,450.0,450.0,1.0,,,,,,,,,orange,flipped triangle
2.0,1,5.0,5.0,600.522994995,4.0,part_2,go,450.0,450.0,1.0,,,,,,,,,gray,square
4.0,0,6.0,6.0,517.593860626,4.0,part_2,go,450.0,450.0,1.0,,,,,,,,,cyan,line
0.5,0,5.0,5.0,701.8430233,4.0,part_2,go,450.0,450.0,1.0,,,,,,,,,magenta,triangle
0.5,1,6.0,6.0,467.669010162,4.0,part_2,stop,450.0,400.0,3.0,,,,,,,,,blue,diamond
0.5,1,5.0,5.0,617.390155792,4.0,part_2,stop,400.0,400.0,3.0,,,,,,,,,blue,diamond
2.0,1,6.0,,,4.0,,stop,400.0,350.0,4.0,,,,,,,,,gray,square
2.0,1,5.0,,,4.0,,stop,350.0,350.0,4.0,,,,,,,,,gray,square
4.0,0,5.0,5.0,517.472028732,4.0,part_2,go,350.0,350.0,1.0,,,,,,,,,cyan,line
0.5,1,5.0,5.0,534.705877304,4.0,part_2,go,350.0,350.0,1.0,,,,,,,,,blue,diamond
2.0,0,6.0,6.0,550.999164581,4.0,part_2,go,350.0,350.0,1.0,,,,,,,,,orange,flipped triangle
1.0,0,6.0,6.0,601.180076599,4.0,part_2,go,350.0,350.0,1.0,,,,,,,,,yellow,cross
2.0,1,6.0,6.0,551.824092865,4.0,part_2,stop,350.0,400.0,3.0,,,,,,,,,gray,square
4.0,0,6.0,6.0,634.708166122,4.0,part_2,go,350.0,400.0,1.0,,,,,,,,,cyan,line
4.0,0,5.0,5.0,584.8150253299999,4.0,part_2,go,350.0,400.0,1.0,,,,,,,,,cyan,line
4.0,0,5.0,5.0,567.461967468,4.0,part_2,go,350.0,400.0,1.0,,,,,,,,,cyan,line
2.0,0,6.0,6.0,601.227045059,4.0,part_2,go,350.0,400.0,1.0,,,,,,,,,orange,flipped triangle
1.0,0,6.0,6.0,500.376939774,4.0,part_2,go,350.0,400.0,1.0,,,,,,,,,yellow,cross
2.0,0,6.0,6.0,484.675168991,4.0,part_2,go,350.0,400.0,1.0,,,,,,,,,orange,flipped triangle
1.0,1,5.0,5.0,500.13804435700007,4.0,part_2,stop,400.0,400.0,3.0,,,,,,,,,green,circle
4.0,0,6.0,6.0,768.182992935,4.0,part_2,go,400.0,400.0,1.0,,,,,,,,,cyan,line
2.0,1,5.0,,,4.0,,stop,350.0,400.0,4.0,,,,,,,,,gray,square
0.5,0,5.0,5.0,551.04804039,5.0,part_2,go,350.0,400.0,1.0,,,,,,,,,magenta,triangle
4.0,0,5.0,5.0,450.49905777,5.0,part_2,go,350.0,400.0,1.0,,,,,,,,,cyan,line
4.0,0,5.0,5.0,367.383003235,5.0,part_2,go,350.0,400.0,1.0,,,,,,,,,cyan,line
4.0,0,5.0,5.0,400.624036789,5.0,part_2,go,350.0,400.0,1.0,,,,,,,,,cyan,line
0.5,1,6.0,6.0,434.163093567,5.0,part_2,stop,350.0,350.0,3.0,,,,,,,,,blue,diamond
4.0,1,6.0,6.0,551.026105881,5.0,part_2,stop,350.0,300.0,3.0,,,,,,,,,white,hexagon
2.0,1,5.0,5.0,717.609167099,5.0,part_2,go,350.0,300.0,1.0,,,,,,,,,gray,square
0.5,0,5.0,5.0,417.083024979,5.0,part_2,go,350.0,300.0,1.0,,,,,,,,,magenta,triangle
2.0,0,5.0,5.0,433.76684188800004,5.0,part_2,go,350.0,300.0,1.0,,,,,,,,,orange,flipped triangle
1.0,0,5.0,5.0,384.255886078,5.0,part_2,go,350.0,300.0,1.0,,,,,,,,,yellow,cross
4.0,1,5.0,5.0,384.518146515,5.0,part_2,stop,400.0,300.0,3.0,,,,,,,,,white,hexagon
2.0,1,6.0,,,5.0,,stop,400.0,250.0,4.0,,,,,,,,,gray,square
1.0,1,6.0,,,5.0,,stop,400.0,300.0,4.0,,,,,,,,,green,circle
2.0,1,6.0,6.0,467.77105331399997,5.0,part_2,stop,400.0,350.0,3.0,,,,,,,,,gray,square
4.0,0,6.0,6.0,500.54216384899996,5.0,part_2,go,400.0,350.0,1.0,,,,,,,,,cyan,line
1.0,0,5.0,5.0,434.07988548300006,5.0,part_2,go,400.0,350.0,1.0,,,,,,,,,yellow,cross
4.0,1,6.0,6.0,434.69405174300005,5.0,part_2,stop,400.0,300.0,3.0,,,,,,,,,white,hexagon
2.0,1,5.0,,,5.0,,stop,350.0,300.0,4.0,,,,,,,,,gray,square
2.0,1,6.0,6.0,617.610931396,5.0,part_2,go,350.0,300.0,1.0,,,,,,,,,gray,square
4.0,1,5.0,5.0,534.483909607,5.0,part_2,stop,400.0,300.0,3.0,,,,,,,,,white,hexagon
4.0,0,6.0,6.0,551.452875137,5.0,part_2,go,400.0,300.0,1.0,,,,,,,,,cyan,line
4.0,0,6.0,6.0,567.894935608,5.0,part_2,go,400.0,300.0,1.0,,,,,,,,,cyan,line
2.0,1,6.0,6.0,534.291982651,5.0,part_2,go,400.0,300.0,1.0,,,,,,,,,gray,square
0.5,1,5.0,5.0,367.93780326800004,5.0,part_2,stop,350.0,300.0,3.0,,,,,,,,,blue,diamond
0.5,1,6.0,,,5.0,,stop,350.0,250.0,4.0,,,,,,,,,blue,diamond
1.0,0,5.0,5.0,551.461935043,5.0,part_2,go,350.0,250.0,1.0,,,,,,,,,yellow,cross
2.0,1,6.0,,,5.0,,stop,350.0,300.0,4.0,,,,,,,,,gray,square
1.0,1,6.0,,,5.0,,stop,350.0,350.0,4.0,,,,,,,,,green,circle
2.0,0,5.0,5.0,417.92988777200003,5.0,part_2,go,350.0,350.0,1.0,,,,,,,,,orange,flipped triangle
0.5,1,6.0,6.0,517.30298996,5.0,part_2,stop,350.0,400.0,3.0,,,,,,,,,blue,diamond
2.0,0,6.0,6.0,567.6829814910001,5.0,part_2,go,350.0,400.0,1.0,,,,,,,,,orange,flipped triangle
4.0,1,6.0,,,5.0,,stop,350.0,350.0,4.0,,,,,,,,,white,hexagon
1.0,1,6.0,6.0,534.545898438,5.0,part_2,stop,350.0,400.0,3.0,,,,,,,,,green,circle
2.0,0,5.0,5.0,384.19508934000004,5.0,part_2,go,350.0,400.0,1.0,,,,,,,,,orange,flipped triangle
2.0,0,5.0,5.0,467.972993851,5.0,part_2,go,350.0,400.0,1.0,,,,,,,,,orange,flipped triangle
0.5,1,5.0,5.0,400.864124298,5.0,part_2,stop,300.0,400.0,3.0,,,,,,,,,blue,diamond
2.0,1,5.0,,,6.0,,stop,250.0,400.0,4.0,,,,,,,,,gray,square
1.0,1,5.0,,,6.0,,stop,300.0,400.0,4.0,,,,,,,,,green,circle
1.0,0,6.0,6.0,350.766897202,6.0,part_2,go,300.0,400.0,1.0,,,,,,,,,yellow,cross
4.0,0,6.0,6.0,550.831079483,6.0,part_2,go,300.0,400.0,1.0,,,,,,,,,cyan,line
0.5,0,6.0,6.0,450.98400116,6.0,part_2,go,300.0,400.0,1.0,,,,,,,,,magenta,triangle
1.0,1,5.0,5.0,467.75293350199996,6.0,part_2,stop,350.0,400.0,3.0,,,,,,,,,green,circle
0.5,0,5.0,5.0,584.160089493,6.0,part_2,go,350.0,400.0,1.0,,,,,,,,,magenta,triangle
1.0,0,6.0,6.0,467.641830444,6.0,part_2,go,350.0,400.0,1.0,,,,,,,,,yellow,cross
1.0,1,6.0,,,6.0,,stop,350.0,350.0,4.0,,,,,,,,,green,circle
4.0,0,6.0,6.0,684.5161914830001,6.0,part_2,go,350.0,350.0,1.0,,,,,,,,,cyan,line
2.0,0,6.0,6.0,600.675106049,6.0,part_2,go,350.0,350.0,1.0,,,,,,,,,orange,flipped triangle
2.0,0,6.0,6.0,534.4030857089999,6.0,part_2,go,350.0,350.0,1.0,,,,,,,,,orange,flipped triangle
1.0,0,5.0,5.0,434.354066849,6.0,part_2,go,350.0,350.0,1.0,,,,,,,,,yellow,cross
1.0,0,5.0,5.0,401.2799263,6.0,part_2,go,350.0,350.0,1.0,,,,,,,,,yellow,cross
2.0,0,5.0,5.0,517.657995224,6.0,part_2,go,350.0,350.0,1.0,,,,,,,,,orange,flipped triangle
2.0,0,6.0,6.0,517.379999161,6.0,part_2,go,350.0,350.0,1.0,,,,,,,,,orange,flipped triangle
4.0,1,5.0,5.0,517.8859233860001,6.0,part_2,go,350.0,350.0,1.0,,,,,,,,,white,hexagon
4.0,0,6.0,6.0,417.021989822,6.0,part_2,go,350.0,350.0,1.0,,,,,,,,,cyan,line
4.0,1,5.0,,,6.0,,stop,300.0,350.0,4.0,,,,,,,,,white,hexagon
0.5,0,6.0,6.0,634.212017059,6.0,part_2,go,300.0,350.0,1.0,,,,,,,,,magenta,triangle
4.0,1,5.0,,,6.0,,stop,350.0,350.0,4.0,,,,,,,,,white,hexagon
2.0,0,6.0,6.0,618.161916733,6.0,part_2,go,350.0,350.0,1.0,,,,,,,,,orange,flipped triangle
0.5,1,6.0,6.0,550.776004791,6.0,part_2,stop,350.0,400.0,3.0,,,,,,,,,blue,diamond
4.0,1,5.0,,,6.0,,stop,400.0,400.0,4.0,,,,,,,,,white,hexagon
1.0,1,5.0,5.0,550.887107849,6.0,part_2,go,400.0,400.0,1.0,,,,,,,,,green,circle
4.0,1,5.0,5.0,567.4099922180001,6.0,part_2,go,400.0,400.0,1.0,,,,,,,,,white,hexagon
1.0,0,6.0,6.0,617.89894104,6.0,part_2,go,400.0,400.0,1.0,,,,,,,,,yellow,cross
2.0,0,5.0,5.0,500.870943069,6.0,part_2,go,400.0,400.0,1.0,,,,,,,,,orange,flipped triangle
0.5,0,6.0,6.0,551.3629913330001,6.0,part_2,go,400.0,400.0,1.0,,,,,,,,,magenta,triangle
4.0,1,6.0,,,6.0,,stop,400.0,350.0,4.0,,,,,,,,,white,hexagon
2.0,1,5.0,,,6.0,,stop,450.0,350.0,4.0,,,,,,,,,gray,square
4.0,1,5.0,,,6.0,,stop,500.0,350.0,4.0,,,,,,,,,white,hexagon
0.5,1,6.0,6.0,584.271192551,6.0,part_2,go,500.0,350.0,1.0,,,,,,,,,blue,diamond
2.0,0,5.0,5.0,634.678125381,6.0,part_2,go,500.0,350.0,1.0,,,,,,,,,orange,flipped triangle
2.0,1,6.0,6.0,501.10793113700004,6.0,part_2,go,500.0,350.0,1.0,,,,,,,,,gray,square
1.0,0,5.0,5.0,484.33899879499995,6.0,part_2,go,500.0,350.0,1.0,,,,,,,,,yellow,cross
0.5,0,6.0,6.0,517.7829265590001,7.0,part_2,go,500.0,350.0,1.0,,,,,,,,,magenta,triangle
0.5,0,6.0,6.0,567.560911179,7.0,part_2,go,500.0,350.0,1.0,,,,,,,,,magenta,triangle
2.0,0,5.0,5.0,501.21688842800006,7.0,part_2,go,500.0,350.0,1.0,,,,,,,,,orange,flipped triangle
1.0,0,5.0,5.0,434.15307998699996,7.0,part_2,go,500.0,350.0,1.0,,,,,,,,,yellow,cross
1.0,1,6.0,6.0,484.25006866499996,7.0,part_2,stop,500.0,400.0,3.0,,,,,,,,,green,circle
0.5,0,6.0,6.0,685.130119324,7.0,part_2,go,500.0,400.0,1.0,,,,,,,,,magenta,triangle
1.0,1,6.0,,,7.0,,stop,500.0,350.0,4.0,,,,,,,,,green,circle
0.5,1,6.0,,,7.0,,stop,500.0,400.0,4.0,,,,,,,,,blue,diamond
0.5,0,5.0,5.0,684.336185455,7.0,part_2,go,500.0,400.0,1.0,,,,,,,,,magenta,triangle
4.0,0,6.0,6.0,617.31505394,7.0,part_2,go,500.0,400.0,1.0,,,,,,,,,cyan,line
4.0,1,6.0,6.0,668.1201457980001,7.0,part_2,go,500.0,400.0,1.0,,,,,,,,,white,hexagon
1.0,1,6.0,6.0,684.547901154,7.0,part_2,go,500.0,400.0,1.0,,,,,,,,,green,circle
2.0,0,5.0,5.0,601.171970367,7.0,part_2,go,500.0,400.0,1.0,,,,,,,,,orange,flipped triangle
1.0,1,5.0,5.0,534.071922302,7.0,part_2,stop,550.0,400.0,3.0,,,,,,,,,green,circle
4.0,0,6.0,6.0,584.2239856719999,7.0,part_2,go,550.0,400.0,1.0,,,,,,,,,cyan,line
4.0,1,6.0,,,7.0,,stop,550.0,450.0,4.0,,,,,,,,,white,hexagon
0.5,0,5.0,5.0,601.110935211,7.0,part_2,go,550.0,450.0,1.0,,,,,,,,,magenta,triangle
1.0,1,5.0,5.0,601.506948471,7.0,part_2,stop,500.0,450.0,3.0,,,,,,,,,green,circle
2.0,1,5.0,5.0,634.768009186,7.0,part_2,stop,450.0,450.0,3.0,,,,,,,,,gray,square
0.5,1,6.0,6.0,551.086902618,7.0,part_2,stop,450.0,500.0,3.0,,,,,,,,,blue,diamond
0.5,1,5.0,,,7.0,,stop,400.0,500.0,4.0,,,,,,,,,blue,diamond
1.0,0,5.0,5.0,567.8019523620001,7.0,part_2,go,400.0,500.0,1.0,,,,,,,,,yellow,cross
2.0,1,6.0,,,7.0,,stop,400.0,450.0,4.0,,,,,,,,,gray,square
2.0,1,5.0,,,7.0,,stop,450.0,450.0,4.0,,,,,,,,,gray,square
0.5,0,6.0,6.0,617.681980133,7.0,part_2,go,450.0,450.0,1.0,,,,,,,,,magenta,triangle
4.0,0,5.0,5.0,600.816011429,7.0,part_2,go,450.0,450.0,1.0,,,,,,,,,cyan,line
0.5,1,5.0,5.0,600.927829742,7.0,part_2,go,450.0,450.0,1.0,,,,,,,,,blue,diamond
0.5,0,5.0,5.0,684.118032455,7.0,part_2,go,450.0,450.0,1.0,,,,,,,,,magenta,triangle
0.5,1,6.0,6.0,534.1289043429999,7.0,part_2,stop,450.0,500.0,3.0,,,,,,,,,blue,diamond
2.0,0,5.0,5.0,684.56196785,7.0,part_2,go,450.0,500.0,1.0,,,,,,,,,orange,flipped triangle
0.5,1,6.0,6.0,634.574890137,7.0,part_2,go,450.0,500.0,1.0,,,,,,,,,blue,diamond
1.0,0,6.0,6.0,551.1319637299999,7.0,part_2,go,450.0,500.0,1.0,,,,,,,,,yellow,cross
0.5,1,5.0,5.0,584.398031235,7.0,part_2,stop,500.0,500.0,3.0,,,,,,,,,blue,diamond
1.0,0,6.0,6.0,601.084947586,7.0,part_2,go,500.0,500.0,1.0,,,,,,,,,yellow,cross
1.0,0,5.0,5.0,567.941188812,7.0,part_2,go,500.0,500.0,1.0,,,,,,,,,yellow,cross
0.5,0,5.0,5.0,650.7959365840001,7.0,part_2,go,500.0,500.0,1.0,,,,,,,,,magenta,triangle
1.0,0,6.0,6.0,734.90691185,8.0,part_2,go,500.0,500.0,1.0,,,,,,,,,yellow,cross
4.0,1,6.0,6.0,484.009981155,8.0,part_2,stop,500.0,450.0,3.0,,,,,,,,,white,hexagon
4.0,1,6.0,6.0,567.87610054,8.0,part_2,stop,500.0,400.0,3.0,,,,,,,,,white,hexagon
2.0,1,6.0,,,8.0,,stop,500.0,350.0,4.0,,,,,,,,,gray,square
0.5,1,6.0,,,8.0,,stop,500.0,400.0,4.0,,,,,,,,,blue,diamond
1.0,1,6.0,,,8.0,,stop,500.0,450.0,4.0,,,,,,,,,green,circle
0.5,0,6.0,6.0,668.063879013,8.0,part_2,go,500.0,450.0,1.0,,,,,,,,,magenta,triangle
1.0,1,5.0,5.0,600.828886032,8.0,part_2,stop,450.0,450.0,3.0,,,,,,,,,green,circle
0.5,0,5.0,5.0,667.8619384770001,8.0,part_2,go,450.0,450.0,1.0,,,,,,,,,magenta,triangle
1.0,0,5.0,5.0,735.244035721,8.0,part_2,go,450.0,450.0,1.0,,,,,,,,,yellow,cross
1.0,0,5.0,5.0,551.024913788,8.0,part_2,go,450.0,450.0,1.0,,,,,,,,,yellow,cross
1.0,1,5.0,5.0,567.487955093,8.0,part_2,go,450.0,450.0,1.0,,,,,,,,,green,circle
4.0,1,6.0,6.0,634.219884872,8.0,part_2,stop,450.0,500.0,3.0,,,,,,,,,white,hexagon
1.0,1,6.0,6.0,618.020057678,8.0,part_2,stop,450.0,450.0,3.0,,,,,,,,,green,circle
2.0,1,5.0,,,8.0,,stop,400.0,450.0,4.0,,,,,,,,,gray,square
4.0,1,5.0,,,8.0,,stop,450.0,450.0,4.0,,,,,,,,,white,hexagon
4.0,0,6.0,6.0,617.530107498,8.0,part_2,go,450.0,450.0,1.0,,,,,,,,,cyan,line
4.0,1,5.0,5.0,667.001008987,8.0,part_2,stop,500.0,450.0,3.0,,,,,,,,,white,hexagon
2.0,1,5.0,5.0,934.917926788,8.0,part_2,go,500.0,450.0,1.0,,,,,,,,,gray,square
4.0,0,6.0,6.0,567.608118057,8.0,part_2,go,500.0,450.0,1.0,,,,,,,,,cyan,line
0.5,1,6.0,6.0,684.714078903,8.0,part_2,go,500.0,450.0,1.0,,,,,,,,,blue,diamond
0.5,1,6.0,,,8.0,,stop,500.0,400.0,4.0,,,,,,,,,blue,diamond
4.0,1,5.0,5.0,634.2971324920001,8.0,part_2,stop,450.0,400.0,3.0,,,,,,,,,white,hexagon
2.0,0,5.0,5.0,667.959928513,8.0,part_2,go,450.0,400.0,1.0,,,,,,,,,orange,flipped triangle
4.0,1,5.0,,,8.0,,stop,400.0,400.0,4.0,,,,,,,,,white,hexagon
1.0,0,5.0,5.0,584.457874298,8.0,part_2,go,400.0,400.0,1.0,,,,,,,,,yellow,cross
0.5,0,5.0,5.0,567.601919174,8.0,part_2,go,400.0,400.0,1.0,,,,,,,,,magenta,triangle
2.0,0,5.0,5.0,634.912967682,8.0,part_2,go,400.0,400.0,1.0,,,,,,,,,orange,flipped triangle
2.0,1,6.0,6.0,534.4319343569999,8.0,part_2,go,400.0,400.0,1.0,,,,,,,,,gray,square
1.0,1,5.0,5.0,517.2832012179999,8.0,part_2,stop,450.0,400.0,3.0,,,,,,,,,green,circle
0.5,1,5.0,,,8.0,,stop,400.0,400.0,4.0,,,,,,,,,blue,diamond
2.0,1,5.0,,,8.0,,stop,450.0,400.0,4.0,,,,,,,,,gray,square
4.0,1,6.0,6.0,517.689943314,8.0,part_2,stop,450.0,450.0,3.0,,,,,,,,,white,hexagon
2.0,0,6.0,6.0,617.53988266,8.0,part_2,go,450.0,450.0,1.0,,,,,,,,,orange,flipped triangle
4.0,1,6.0,6.0,551.5708923340001,8.0,part_2,go,450.0,450.0,1.0,,,,,,,,,white,hexagon
1.0,0,6.0,6.0,517.471790314,8.0,part_2,go,450.0,450.0,1.0,,,,,,,,,yellow,cross
4.0,0,7.0,4.0,4288.4261608100005,1.0,part_3,go,,,,220.0,5.0,44.0,176.0,88.0,220.0,132.0,264.0,cyan,line
2.0,0,7.0,5.0,3253.91387939,1.0,part_3,go,,,,216.0,4.0,54.0,270.0,324.0,162.0,216.0,108.0,orange,flipped triangle
2.0,0,7.0,2.0,4738.84415627,1.0,part_3,go,,,,147.0,3.0,196.0,147.0,49.0,245.0,98.0,294.0,orange,flipped triangle
1.0,0,7.0,,,1.0,,go,,,,0.0,,176.0,132.0,88.0,44.0,220.0,264.0,yellow,cross
1.0,1,7.0,2.0,1401.75485611,1.0,part_3,stop,,,,54.0,1.0,108.0,54.0,270.0,216.0,162.0,324.0,green,circle
0.5,0,7.0,4.0,2686.77997589,1.0,part_3,go,,,,147.0,3.0,294.0,49.0,245.0,147.0,98.0,196.0,magenta,triangle
4.0,1,7.0,1.0,2001.9941330000001,1.0,part_3,stop,,,,324.0,6.0,324.0,162.0,216.0,270.0,108.0,54.0,white,hexagon
2.0,0,7.0,3.0,1218.58286858,1.0,part_3,go,,,,68.0,2.0,34.0,136.0,68.0,102.0,204.0,170.0,orange,flipped triangle
1.0,1,7.0,3.0,1317.84391403,1.0,part_3,stop,,,,78.0,2.0,156.0,39.0,78.0,234.0,117.0,195.0,green,circle
1.0,1,7.0,4.0,1885.57100296,1.0,part_3,stop,,,,44.0,1.0,132.0,264.0,88.0,44.0,220.0,176.0,green,circle
0.5,1,7.0,2.0,1701.9670009600002,1.0,part_3,stop,,,,204.0,6.0,34.0,204.0,136.0,68.0,170.0,102.0,blue,diamond
0.5,1,7.0,6.0,1368.45397949,1.0,part_3,stop,,,,245.0,5.0,98.0,294.0,196.0,147.0,49.0,245.0,blue,diamond
4.0,0,7.0,5.0,1118.1268691999999,1.0,part_3,go,,,,196.0,4.0,49.0,245.0,147.0,98.0,196.0,294.0,cyan,line
1.0,1,7.0,4.0,1151.56388283,1.0,part_3,stop,,,,54.0,1.0,270.0,108.0,162.0,54.0,216.0,324.0,green,circle
4.0,1,7.0,3.0,1668.07317734,1.0,part_3,stop,,,,324.0,6.0,162.0,54.0,324.0,108.0,216.0,270.0,white,hexagon
0.5,0,7.0,1.0,1067.7058696699999,1.0,part_3,go,,,,39.0,1.0,39.0,117.0,78.0,234.0,156.0,195.0,magenta,triangle
4.0,1,7.0,2.0,1201.56216621,1.0,part_3,stop,,,,294.0,6.0,245.0,294.0,49.0,98.0,196.0,147.0,white,hexagon
1.0,0,7.0,6.0,1968.97506714,1.0,part_3,go,,,,220.0,5.0,132.0,176.0,88.0,264.0,44.0,220.0,yellow,cross
0.5,1,7.0,3.0,1184.62085724,1.0,part_3,stop,,,,102.0,3.0,136.0,204.0,102.0,170.0,34.0,68.0,blue,diamond
4.0,1,7.0,3.0,1885.83898544,1.0,part_3,stop,,,,294.0,6.0,98.0,245.0,294.0,147.0,196.0,49.0,white,hexagon
4.0,1,7.0,4.0,1634.66310501,2.0,part_3,stop,,,,204.0,6.0,68.0,136.0,102.0,204.0,34.0,170.0,white,hexagon
1.0,0,7.0,3.0,1067.31081009,2.0,part_3,go,,,,98.0,2.0,49.0,147.0,98.0,245.0,294.0,196.0,yellow,cross
4.0,1,7.0,3.0,1718.96100044,2.0,part_3,stop,,,,234.0,6.0,117.0,39.0,234.0,195.0,78.0,156.0,white,hexagon
2.0,1,7.0,6.0,2937.05511093,2.0,part_3,stop,,,,216.0,4.0,162.0,108.0,54.0,324.0,270.0,216.0,gray,square
1.0,0,7.0,2.0,2186.19298935,2.0,part_3,go,,,,136.0,4.0,204.0,136.0,34.0,170.0,102.0,68.0,yellow,cross
0.5,1,7.0,5.0,701.400995255,2.0,part_3,stop,,,,195.0,5.0,78.0,156.0,117.0,39.0,195.0,234.0,blue,diamond
4.0,0,7.0,4.0,2036.04793549,2.0,part_3,go,,,,176.0,4.0,220.0,88.0,132.0,176.0,44.0,264.0,cyan,line
0.5,1,7.0,1.0,1134.82117653,2.0,part_3,stop,,,,108.0,2.0,108.0,324.0,162.0,54.0,216.0,270.0,blue,diamond
4.0,0,7.0,2.0,1018.19109917,2.0,part_3,go,,,,196.0,4.0,147.0,196.0,98.0,245.0,294.0,49.0,cyan,line
1.0,1,7.0,5.0,784.7099304200001,2.0,part_3,stop,,,,170.0,5.0,68.0,34.0,136.0,204.0,170.0,102.0,green,circle
2.0,0,7.0,1.0,1018.28217506,2.0,part_3,go,,,,132.0,3.0,132.0,220.0,44.0,88.0,264.0,176.0,orange,flipped triangle
4.0,0,7.0,5.0,667.738199234,2.0,part_3,go,,,,108.0,2.0,270.0,324.0,216.0,162.0,108.0,54.0,cyan,line
1.0,1,7.0,3.0,1652.10199356,2.0,part_3,stop,,,,44.0,1.0,176.0,132.0,44.0,220.0,88.0,264.0,green,circle
4.0,0,7.0,1.0,1985.48293114,2.0,part_3,go,,,,78.0,2.0,78.0,156.0,234.0,117.0,195.0,39.0,cyan,line
0.5,1,7.0,1.0,1051.31411552,2.0,part_3,stop,,,,108.0,2.0,108.0,270.0,216.0,162.0,324.0,54.0,blue,diamond
1.0,0,7.0,6.0,1885.3468895,2.0,part_3,go,,,,147.0,3.0,196.0,98.0,245.0,294.0,49.0,147.0,yellow,cross
2.0,1,7.0,1.0,1601.2961864499998,2.0,part_3,stop,,,,204.0,6.0,204.0,68.0,136.0,102.0,170.0,34.0,gray,square
0.5,1,7.0,5.0,3103.81889343,2.0,part_3,stop,,,,88.0,2.0,264.0,176.0,132.0,220.0,88.0,44.0,blue,diamond
2.0,1,7.0,2.0,1685.55307388,2.0,part_3,stop,,,,117.0,3.0,195.0,117.0,78.0,234.0,156.0,39.0,gray,square
1.0,1,7.0,5.0,650.9568691249999,2.0,part_3,stop,,,,98.0,2.0,294.0,49.0,245.0,147.0,98.0,196.0,green,circle
2.0,1,7.0,2.0,1352.17499733,3.0,part_3,stop,,,,245.0,5.0,49.0,245.0,196.0,98.0,147.0,294.0,gray,square
2.0,0,7.0,3.0,1051.59902573,3.0,part_3,go,,,,39.0,1.0,117.0,234.0,39.0,195.0,156.0,78.0,orange,flipped triangle
0.5,0,7.0,6.0,2235.99100113,3.0,part_3,go,,,,39.0,1.0,234.0,156.0,195.0,117.0,78.0,39.0,magenta,triangle
1.0,0,7.0,2.0,1801.90396309,3.0,part_3,go,,,,195.0,5.0,39.0,195.0,78.0,156.0,117.0,234.0,yellow,cross
4.0,0,7.0,3.0,1735.3219986,3.0,part_3,go,,,,324.0,6.0,108.0,54.0,324.0,162.0,270.0,216.0,cyan,line
2.0,1,7.0,5.0,2386.07001305,3.0,part_3,stop,,,,88.0,2.0,132.0,264.0,176.0,220.0,88.0,44.0,gray,square
0.5,0,7.0,2.0,1384.5119476300001,3.0,part_3,go,,,,132.0,3.0,88.0,132.0,176.0,220.0,44.0,264.0,magenta,triangle
1.0,1,7.0,6.0,1435.18090248,3.0,part_3,stop,,,,49.0,1.0,98.0,294.0,245.0,196.0,147.0,49.0,green,circle
4.0,1,7.0,4.0,1418.2009697,3.0,part_3,stop,,,,264.0,6.0,176.0,44.0,220.0,264.0,132.0,88.0,white,hexagon
1.0,0,7.0,2.0,1368.14498901,3.0,part_3,go,,,,162.0,3.0,270.0,162.0,216.0,108.0,54.0,324.0,yellow,cross
0.5,1,7.0,3.0,1401.74198151,3.0,part_3,stop,,,,196.0,4.0,49.0,147.0,196.0,245.0,98.0,294.0,blue,diamond
1.0,0,7.0,2.0,2018.7819004100002,3.0,part_3,go,,,,216.0,4.0,54.0,216.0,108.0,162.0,324.0,270.0,yellow,cross
4.0,1,7.0,5.0,2169.22998428,3.0,part_3,stop,,,,204.0,6.0,34.0,170.0,136.0,68.0,204.0,102.0,white,hexagon
2.0,1,7.0,4.0,1451.37500763,3.0,part_3,stop,,,,216.0,4.0,162.0,324.0,108.0,216.0,270.0,54.0,gray,square
2.0,0,7.0,5.0,1284.7168445599998,3.0,part_3,go,,,,132.0,3.0,88.0,264.0,44.0,220.0,132.0,176.0,orange,flipped triangle
1.0,1,7.0,2.0,1268.56398582,3.0,part_3,stop,,,,102.0,3.0,68.0,102.0,204.0,136.0,170.0,34.0,green,circle
2.0,1,7.0,2.0,2035.5858802800003,3.0,part_3,stop,,,,147.0,3.0,294.0,147.0,49.0,196.0,245.0,98.0,gray,square
4.0,1,7.0,4.0,1619.11201477,3.0,part_3,stop,,,,234.0,6.0,117.0,195.0,78.0,234.0,39.0,156.0,white,hexagon
0.5,0,7.0,4.0,1902.3320674899999,3.0,part_3,go,,,,245.0,5.0,147.0,49.0,294.0,245.0,98.0,196.0,magenta,triangle
2.0,0,7.0,5.0,1151.06797218,3.0,part_3,go,,,,54.0,1.0,216.0,162.0,270.0,108.0,54.0,324.0,orange,flipped triangle
2.0,1,7.0,3.0,2035.9950065599999,4.0,part_3,stop,,,,176.0,4.0,220.0,44.0,176.0,264.0,88.0,132.0,gray,square
2.0,1,7.0,6.0,1184.55481529,4.0,part_3,stop,,,,136.0,4.0,170.0,34.0,102.0,204.0,68.0,136.0,gray,square
2.0,0,7.0,2.0,1601.9217967999998,4.0,part_3,go,,,,170.0,5.0,102.0,170.0,136.0,34.0,68.0,204.0,orange,flipped triangle
0.5,0,7.0,5.0,617.631912231,4.0,part_3,go,,,,136.0,4.0,68.0,170.0,102.0,204.0,136.0,34.0,magenta,triangle
0.5,0,7.0,5.0,2052.3211956,4.0,part_3,go,,,,108.0,2.0,270.0,162.0,324.0,216.0,108.0,54.0,magenta,triangle
4.0,1,7.0,1.0,1568.6609745,4.0,part_3,stop,,,,264.0,6.0,264.0,132.0,220.0,88.0,176.0,44.0,white,hexagon
1.0,1,7.0,3.0,2185.92500687,4.0,part_3,stop,,,,117.0,3.0,39.0,234.0,117.0,195.0,78.0,156.0,green,circle
1.0,0,7.0,6.0,918.194055557,4.0,part_3,go,,,,78.0,2.0,195.0,117.0,234.0,39.0,156.0,78.0,yellow,cross
0.5,0,7.0,4.0,901.133060455,4.0,part_3,go,,,,102.0,3.0,68.0,170.0,136.0,102.0,34.0,204.0,magenta,triangle
2.0,1,7.0,6.0,718.2848453519999,4.0,part_3,stop,,,,156.0,4.0,117.0,195.0,39.0,78.0,234.0,156.0,gray,square
0.5,1,7.0,2.0,1702.3460865,4.0,part_3,stop,,,,220.0,5.0,264.0,220.0,132.0,88.0,44.0,176.0,blue,diamond
0.5,0,7.0,5.0,918.187856674,4.0,part_3,go,,,,264.0,6.0,132.0,88.0,176.0,220.0,264.0,44.0,magenta,triangle
0.5,1,7.0,4.0,1968.8091278099998,4.0,part_3,stop,,,,195.0,5.0,78.0,117.0,156.0,195.0,39.0,234.0,blue,diamond
4.0,0,7.0,4.0,2669.64387894,4.0,part_3,go,,,,78.0,2.0,39.0,234.0,195.0,78.0,156.0,117.0,cyan,line
2.0,0,7.0,4.0,1835.57319641,4.0,part_3,go,,,,39.0,1.0,78.0,156.0,117.0,39.0,195.0,234.0,orange,flipped triangle
4.0,0,7.0,3.0,1585.68906784,4.0,part_3,go,,,,68.0,2.0,204.0,170.0,68.0,102.0,34.0,136.0,cyan,line
4.0,0,7.0,4.0,2285.9539985700003,4.0,part_3,go,,,,68.0,2.0,102.0,170.0,34.0,68.0,136.0,204.0,cyan,line
2.0,0,7.0,2.0,734.358072281,4.0,part_3,go,,,,98.0,2.0,147.0,98.0,49.0,196.0,245.0,294.0,orange,flipped triangle
0.5,0,7.0,1.0,851.097822189,4.0,part_3,go,,,,108.0,2.0,108.0,54.0,324.0,270.0,162.0,216.0,magenta,triangle
1.0,0,7.0,4.0,934.428930283,4.0,part_3,go,,,,136.0,4.0,102.0,34.0,170.0,136.0,204.0,68.0,yellow,cross
