raw_reward_magnitude,stim_reward,stepwise_reward_magnitude,paired_with_stopping,stim_location,response,reaction_time,block,which_phase,stop_signal_trial_type,left_SSD,right_SSD,accuracy,chosen_bidding_amount,chosen_bidding_level,possible_bid_1,possible_bid_2,possible_bid_3,possible_bid_4,possible_bid_5,possible_bid_6,color_text,shape_text
209.0,3.0,3.0,0,3.0,3.0,467.81206131000005,1.0,phase_1,,,,,,,,,,,,,magenta,diamond
79.0,2.0,2.0,0,1.0,1.0,367.572069168,1.0,phase_1,,,,,,,,,,,,,green,flipped triangle
81.0,2.0,2.0,0,4.0,4.0,367.63691902200003,1.0,phase_1,,,,,,,,,,,,,green,flipped triangle
40.0,1.0,1.0,1,2.0,2.0,400.770902634,1.0,phase_1,,,,,,,,,,,,,yellow,hexagon
34.0,5.0,1.0,0,3.0,3.0,351.18103027300003,1.0,phase_1,,,,,,,,,,,,,cyan,cross
75.0,6.0,2.0,1,1.0,1.0,317.30008125300003,1.0,phase_1,,,,,,,,,,,,,blue,square
80.0,2.0,2.0,0,1.0,1.0,384.20915603599997,1.0,phase_1,,,,,,,,,,,,,green,flipped triangle
0.0,2.0,0.0,0,1.0,1.0,350.85606575,1.0,phase_1,,,,,,,,,,,,,green,flipped triangle
391.0,4.0,4.0,0,1.0,1.0,317.427158356,1.0,phase_1,,,,,,,,,,,,,white,triangle
410.0,4.0,4.0,0,2.0,2.0,467.746973038,1.0,phase_1,,,,,,,,,,,,,white,triangle
190.0,3.0,3.0,0,4.0,4.0,417.669057846,1.0,phase_1,,,,,,,,,,,,,magenta,diamond
0.0,4.0,0.0,0,1.0,1.0,317.47889518700003,1.0,phase_1,,,,,,,,,,,,,white,triangle
416.0,8.0,4.0,1,3.0,3.0,384.18507576,1.0,phase_1,,,,,,,,,,,,,gray,line
35.0,1.0,1.0,1,1.0,1.0,401.116132736,1.0,phase_1,,,,,,,,,,,,,yellow,hexagon
33.0,1.0,1.0,1,2.0,2.0,351.78995132399996,1.0,phase_1,,,,,,,,,,,,,yellow,hexagon
0.0,7.0,0.0,1,3.0,3.0,334.08498764,1.0,phase_1,,,,,,,,,,,,,orange,circle
220.0,7.0,3.0,1,2.0,2.0,351.233959198,1.0,phase_1,,,,,,,,,,,,,orange,circle
396.0,4.0,4.0,0,1.0,1.0,267.326116562,1.0,phase_1,,,,,,,,,,,,,white,triangle
384.0,4.0,4.0,0,4.0,4.0,417.460918427,1.0,phase_1,,,,,,,,,,,,,white,triangle
84.0,6.0,2.0,1,3.0,3.0,333.999156952,1.0,phase_1,,,,,,,,,,,,,blue,square
0.0,1.0,0.0,1,2.0,2.0,467.93913841200003,1.0,phase_1,,,,,,,,,,,,,yellow,hexagon
46.0,1.0,1.0,1,3.0,3.0,367.686033249,1.0,phase_1,,,,,,,,,,,,,yellow,hexagon
419.0,8.0,4.0,1,2.0,2.0,367.64502525300003,1.0,phase_1,,,,,,,,,,,,,gray,line
202.0,7.0,3.0,1,2.0,2.0,384.110212326,1.0,phase_1,,,,,,,,,,,,,orange,circle
0.0,5.0,0.0,0,2.0,2.0,383.857011795,1.0,phase_1,,,,,,,,,,,,,cyan,cross
85.0,6.0,2.0,1,4.0,4.0,417.749881744,1.0,phase_1,,,,,,,,,,,,,blue,square
55.0,1.0,1.0,1,1.0,1.0,317.39616393999995,1.0,phase_1,,,,,,,,,,,,,yellow,hexagon
0.0,8.0,0.0,1,1.0,1.0,351.125001907,1.0,phase_1,,,,,,,,,,,,,gray,line
409.0,4.0,4.0,0,4.0,4.0,384.31191444399997,1.0,phase_1,,,,,,,,,,,,,white,triangle
60.0,5.0,1.0,0,4.0,4.0,400.83694458,1.0,phase_1,,,,,,,,,,,,,cyan,cross
99.0,6.0,2.0,1,4.0,4.0,384.958982468,1.0,phase_1,,,,,,,,,,,,,blue,square
0.0,5.0,0.0,0,2.0,2.0,434.787988663,1.0,phase_1,,,,,,,,,,,,,cyan,cross
98.0,6.0,2.0,1,4.0,4.0,417.36292839099997,1.0,phase_1,,,,,,,,,,,,,blue,square
0.0,2.0,0.0,0,2.0,2.0,400.179862976,1.0,phase_1,,,,,,,,,,,,,green,flipped triangle
38.0,5.0,1.0,0,3.0,3.0,351.212024689,1.0,phase_1,,,,,,,,,,,,,cyan,cross
110.0,2.0,2.0,0,1.0,1.0,367.564201355,1.0,phase_1,,,,,,,,,,,,,green,flipped triangle
184.0,7.0,3.0,1,1.0,1.0,383.890151978,1.0,phase_1,,,,,,,,,,,,,orange,circle
63.0,5.0,1.0,0,2.0,2.0,417.801856995,1.0,phase_1,,,,,,,,,,,,,cyan,cross
69.0,5.0,1.0,0,4.0,4.0,334.25188064599996,1.0,phase_1,,,,,,,,,,,,,cyan,cross
217.0,7.0,3.0,1,1.0,1.0,283.97393226599996,1.0,phase_1,,,,,,,,,,,,,orange,circle
120.0,2.0,2.0,0,1.0,1.0,350.86488723800005,1.0,phase_1,,,,,,,,,,,,,green,flipped triangle
186.0,3.0,3.0,0,3.0,3.0,400.897979736,1.0,phase_1,,,,,,,,,,,,,magenta,diamond
105.0,6.0,2.0,1,4.0,4.0,400.427103043,1.0,phase_1,,,,,,,,,,,,,blue,square
74.0,5.0,1.0,0,1.0,1.0,351.293087006,1.0,phase_1,,,,,,,,,,,,,cyan,cross
0.0,2.0,0.0,0,4.0,4.0,350.908041,1.0,phase_1,,,,,,,,,,,,,green,flipped triangle
0.0,4.0,0.0,0,3.0,3.0,400.278091431,1.0,phase_1,,,,,,,,,,,,,white,triangle
186.0,3.0,3.0,0,4.0,4.0,384.266853333,1.0,phase_1,,,,,,,,,,,,,magenta,diamond
0.0,6.0,0.0,1,2.0,2.0,384.590864182,1.0,phase_1,,,,,,,,,,,,,blue,square
0.0,5.0,0.0,0,4.0,4.0,451.112985611,1.0,phase_1,,,,,,,,,,,,,cyan,cross
122.0,2.0,2.0,0,4.0,4.0,451.42006874099997,1.0,phase_1,,,,,,,,,,,,,green,flipped triangle
0.0,5.0,0.0,0,4.0,4.0,417.809009552,1.0,phase_1,,,,,,,,,,,,,cyan,cross
79.0,2.0,2.0,0,1.0,1.0,434.91101265,1.0,phase_1,,,,,,,,,,,,,green,flipped triangle
0.0,1.0,0.0,1,1.0,1.0,351.026058197,1.0,phase_1,,,,,,,,,,,,,yellow,hexagon
0.0,7.0,0.0,1,2.0,2.0,351.041793823,1.0,phase_1,,,,,,,,,,,,,orange,circle
109.0,2.0,2.0,0,1.0,1.0,434.543848038,1.0,phase_1,,,,,,,,,,,,,green,flipped triangle
0.0,5.0,0.0,0,3.0,3.0,400.71892738300005,1.0,phase_1,,,,,,,,,,,,,cyan,cross
101.0,6.0,2.0,1,3.0,3.0,384.104013443,1.0,phase_1,,,,,,,,,,,,,blue,square
183.0,7.0,3.0,1,3.0,3.0,451.14898681600005,1.0,phase_1,,,,,,,,,,,,,orange,circle
83.0,2.0,2.0,0,3.0,3.0,367.63691902200003,1.0,phase_1,,,,,,,,,,,,,green,flipped triangle
394.0,4.0,4.0,0,3.0,3.0,383.939027786,1.0,phase_1,,,,,,,,,,,,,white,triangle
0.0,4.0,0.0,0,1.0,1.0,434.287071228,1.0,phase_1,,,,,,,,,,,,,white,triangle
409.0,4.0,4.0,0,2.0,2.0,417.593002319,1.0,phase_1,,,,,,,,,,,,,white,triangle
0.0,6.0,0.0,1,4.0,4.0,367.741107941,1.0,phase_1,,,,,,,,,,,,,blue,square
0.0,8.0,0.0,1,1.0,1.0,467.433929443,1.0,phase_1,,,,,,,,,,,,,gray,line
376.0,4.0,4.0,0,2.0,2.0,383.85796546899996,1.0,phase_1,,,,,,,,,,,,,white,triangle
214.0,7.0,3.0,1,2.0,2.0,334.16700363200005,1.0,phase_1,,,,,,,,,,,,,orange,circle
0.0,6.0,0.0,1,3.0,3.0,451.38502121,1.0,phase_1,,,,,,,,,,,,,blue,square
422.0,8.0,4.0,1,4.0,4.0,367.5968647,1.0,phase_1,,,,,,,,,,,,,gray,line
388.0,8.0,4.0,1,4.0,4.0,351.157188416,1.0,phase_1,,,,,,,,,,,,,gray,line
0.0,3.0,0.0,0,4.0,4.0,434.460163116,1.0,phase_1,,,,,,,,,,,,,magenta,diamond
0.0,3.0,0.0,0,3.0,3.0,401.166200638,1.0,phase_1,,,,,,,,,,,,,magenta,diamond
0.0,6.0,0.0,1,4.0,4.0,400.84600448599997,1.0,phase_1,,,,,,,,,,,,,blue,square
194.0,7.0,3.0,1,4.0,4.0,367.316007614,1.0,phase_1,,,,,,,,,,,,,orange,circle
375.0,4.0,4.0,0,1.0,1.0,333.980083466,1.0,phase_1,,,,,,,,,,,,,white,triangle
181.0,7.0,3.0,1,2.0,2.0,400.91300010699996,1.0,phase_1,,,,,,,,,,,,,orange,circle
178.0,7.0,3.0,1,2.0,2.0,417.88482666,1.0,phase_1,,,,,,,,,,,,,orange,circle
0.0,8.0,0.0,1,2.0,2.0,400.429964066,1.0,phase_1,,,,,,,,,,,,,gray,line
0.0,2.0,0.0,0,1.0,1.0,384.60111617999996,1.0,phase_1,,,,,,,,,,,,,green,flipped triangle
0.0,3.0,0.0,0,3.0,3.0,400.99811553999996,1.0,phase_1,,,,,,,,,,,,,magenta,diamond
103.0,2.0,2.0,0,2.0,2.0,367.51008033799997,1.0,phase_1,,,,,,,,,,,,,green,flipped triangle
393.0,4.0,4.0,0,1.0,1.0,401.046991348,1.0,phase_1,,,,,,,,,,,,,white,triangle
184.0,7.0,3.0,1,2.0,2.0,434.92102623,1.0,phase_1,,,,,,,,,,,,,orange,circle
0.0,6.0,0.0,1,4.0,4.0,501.21307373,1.0,phase_1,,,,,,,,,,,,,blue,square
210.0,7.0,3.0,1,3.0,3.0,367.806911469,1.0,phase_1,,,,,,,,,,,,,orange,circle
0.0,7.0,0.0,1,2.0,2.0,367.54798889200003,1.0,phase_1,,,,,,,,,,,,,orange,circle
222.0,3.0,3.0,0,1.0,1.0,350.937843323,1.0,phase_1,,,,,,,,,,,,,magenta,diamond
418.0,8.0,4.0,1,3.0,3.0,450.926065445,1.0,phase_1,,,,,,,,,,,,,gray,line
415.0,8.0,4.0,1,3.0,3.0,384.170055389,1.0,phase_1,,,,,,,,,,,,,gray,line
124.0,6.0,2.0,1,4.0,4.0,400.996923447,1.0,phase_1,,,,,,,,,,,,,blue,square
193.0,3.0,3.0,0,3.0,3.0,400.788068771,1.0,phase_1,,,,,,,,,,,,,magenta,diamond
29.0,5.0,1.0,0,2.0,2.0,400.974035263,1.0,phase_1,,,,,,,,,,,,,cyan,cross
392.0,8.0,4.0,1,3.0,3.0,333.787202835,1.0,phase_1,,,,,,,,,,,,,gray,line
0.0,4.0,0.0,0,3.0,3.0,384.16790962199997,1.0,phase_1,,,,,,,,,,,,,white,triangle
28.0,1.0,1.0,1,4.0,4.0,451.16901397699996,1.0,phase_1,,,,,,,,,,,,,yellow,hexagon
224.0,7.0,3.0,1,3.0,3.0,385.015010834,1.0,phase_1,,,,,,,,,,,,,orange,circle
0.0,7.0,0.0,1,1.0,1.0,434.43584442099996,1.0,phase_1,,,,,,,,,,,,,orange,circle
0.0,6.0,0.0,1,2.0,2.0,333.638906479,1.0,phase_1,,,,,,,,,,,,,blue,square
109.0,6.0,2.0,1,3.0,3.0,401.031017303,1.0,phase_1,,,,,,,,,,,,,blue,square
0.0,1.0,0.0,1,2.0,2.0,534.105062485,1.0,phase_1,,,,,,,,,,,,,yellow,hexagon
402.0,4.0,4.0,0,4.0,4.0,451.029062271,1.0,phase_1,,,,,,,,,,,,,white,triangle
189.0,3.0,3.0,0,3.0,3.0,567.533969879,2.0,phase_1,,,,,,,,,,,,,magenta,diamond
407.0,4.0,4.0,0,4.0,4.0,384.03105735800006,2.0,phase_1,,,,,,,,,,,,,white,triangle
175.0,3.0,3.0,0,1.0,1.0,350.54302215599995,2.0,phase_1,,,,,,,,,,,,,magenta,diamond
420.0,4.0,4.0,0,1.0,1.0,350.986003876,2.0,phase_1,,,,,,,,,,,,,white,triangle
0.0,2.0,0.0,0,3.0,3.0,400.758981705,2.0,phase_1,,,,,,,,,,,,,green,flipped triangle
0.0,6.0,0.0,1,2.0,2.0,383.722066879,2.0,phase_1,,,,,,,,,,,,,blue,square
380.0,8.0,4.0,1,3.0,3.0,451.024055481,2.0,phase_1,,,,,,,,,,,,,gray,line
0.0,8.0,0.0,1,2.0,2.0,400.89917182899995,2.0,phase_1,,,,,,,,,,,,,gray,line
225.0,7.0,3.0,1,2.0,2.0,450.968980789,2.0,phase_1,,,,,,,,,,,,,orange,circle
406.0,8.0,4.0,1,4.0,4.0,417.786836624,2.0,phase_1,,,,,,,,,,,,,gray,line
68.0,5.0,1.0,0,3.0,3.0,350.564002991,2.0,phase_1,,,,,,,,,,,,,cyan,cross
59.0,1.0,1.0,1,3.0,3.0,384.47093963599997,2.0,phase_1,,,,,,,,,,,,,yellow,hexagon
0.0,5.0,0.0,0,3.0,3.0,384.81593132,2.0,phase_1,,,,,,,,,,,,,cyan,cross
189.0,7.0,3.0,1,2.0,2.0,384.20486450199996,2.0,phase_1,,,,,,,,,,,,,orange,circle
415.0,4.0,4.0,0,2.0,2.0,384.345054626,2.0,phase_1,,,,,,,,,,,,,white,triangle
186.0,3.0,3.0,0,1.0,1.0,367.462158203,2.0,phase_1,,,,,,,,,,,,,magenta,diamond
0.0,7.0,0.0,1,3.0,3.0,367.040872574,2.0,phase_1,,,,,,,,,,,,,orange,circle
98.0,2.0,2.0,0,3.0,3.0,417.536973953,2.0,phase_1,,,,,,,,,,,,,green,flipped triangle
81.0,6.0,2.0,1,3.0,3.0,384.232997894,2.0,phase_1,,,,,,,,,,,,,blue,square
0.0,5.0,0.0,0,3.0,3.0,400.985002518,2.0,phase_1,,,,,,,,,,,,,cyan,cross
86.0,6.0,2.0,1,1.0,1.0,401.093006134,2.0,phase_1,,,,,,,,,,,,,blue,square
89.0,6.0,2.0,1,2.0,2.0,534.260988235,2.0,phase_1,,,,,,,,,,,,,blue,square
29.0,5.0,1.0,0,2.0,2.0,400.80499649,2.0,phase_1,,,,,,,,,,,,,cyan,cross
0.0,5.0,0.0,0,4.0,4.0,384.312868118,2.0,phase_1,,,,,,,,,,,,,cyan,cross
220.0,3.0,3.0,0,4.0,4.0,417.27614402800003,2.0,phase_1,,,,,,,,,,,,,magenta,diamond
213.0,7.0,3.0,1,4.0,4.0,334.011077881,2.0,phase_1,,,,,,,,,,,,,orange,circle
0.0,8.0,0.0,1,1.0,1.0,383.941888809,2.0,phase_1,,,,,,,,,,,,,gray,line
0.0,1.0,0.0,1,4.0,4.0,401.073932648,2.0,phase_1,,,,,,,,,,,,,yellow,hexagon
184.0,7.0,3.0,1,2.0,2.0,417.779922485,2.0,phase_1,,,,,,,,,,,,,orange,circle
31.0,5.0,1.0,0,2.0,2.0,384.32097435000003,2.0,phase_1,,,,,,,,,,,,,cyan,cross
82.0,2.0,2.0,0,4.0,4.0,367.81311035199997,2.0,phase_1,,,,,,,,,,,,,green,flipped triangle
55.0,1.0,1.0,1,1.0,1.0,367.18893051099997,2.0,phase_1,,,,,,,,,,,,,yellow,hexagon
70.0,5.0,1.0,0,3.0,3.0,351.119041443,2.0,phase_1,,,,,,,,,,,,,cyan,cross
0.0,8.0,0.0,1,4.0,4.0,384.20104980499997,2.0,phase_1,,,,,,,,,,,,,gray,line
55.0,5.0,1.0,0,3.0,3.0,367.671966553,2.0,phase_1,,,,,,,,,,,,,cyan,cross
101.0,2.0,2.0,0,2.0,2.0,367.710113525,2.0,phase_1,,,,,,,,,,,,,green,flipped triangle
70.0,1.0,1.0,1,1.0,1.0,300.488948822,2.0,phase_1,,,,,,,,,,,,,yellow,hexagon
402.0,8.0,4.0,1,1.0,1.0,400.815963745,2.0,phase_1,,,,,,,,,,,,,gray,line
376.0,4.0,4.0,0,3.0,3.0,384.55414772,2.0,phase_1,,,,,,,,,,,,,white,triangle
0.0,8.0,0.0,1,1.0,1.0,417.73295402499997,2.0,phase_1,,,,,,,,,,,,,gray,line
115.0,2.0,2.0,0,1.0,1.0,384.801149368,2.0,phase_1,,,,,,,,,,,,,green,flipped triangle
376.0,8.0,4.0,1,2.0,2.0,434.437036514,2.0,phase_1,,,,,,,,,,,,,gray,line
50.0,5.0,1.0,0,3.0,3.0,434.242963791,2.0,phase_1,,,,,,,,,,,,,cyan,cross
415.0,4.0,4.0,0,2.0,2.0,367.321014404,2.0,phase_1,,,,,,,,,,,,,white,triangle
0.0,4.0,0.0,0,1.0,1.0,417.53578186,2.0,phase_1,,,,,,,,,,,,,white,triangle
0.0,3.0,0.0,0,1.0,1.0,417.90699958799996,2.0,phase_1,,,,,,,,,,,,,magenta,diamond
223.0,3.0,3.0,0,4.0,4.0,383.82196426400003,2.0,phase_1,,,,,,,,,,,,,magenta,diamond
85.0,2.0,2.0,0,2.0,2.0,434.237957001,2.0,phase_1,,,,,,,,,,,,,green,flipped triangle
206.0,7.0,3.0,1,2.0,2.0,400.371074677,2.0,phase_1,,,,,,,,,,,,,orange,circle
191.0,7.0,3.0,1,3.0,3.0,367.825984955,2.0,phase_1,,,,,,,,,,,,,orange,circle
25.0,5.0,1.0,0,4.0,4.0,384.31215286300005,2.0,phase_1,,,,,,,,,,,,,cyan,cross
31.0,5.0,1.0,0,3.0,3.0,351.030111313,2.0,phase_1,,,,,,,,,,,,,cyan,cross
0.0,6.0,0.0,1,2.0,2.0,467.68307685900004,2.0,phase_1,,,,,,,,,,,,,blue,square
395.0,8.0,4.0,1,2.0,2.0,384.02390479999997,2.0,phase_1,,,,,,,,,,,,,gray,line
389.0,8.0,4.0,1,4.0,4.0,384.347200394,2.0,phase_1,,,,,,,,,,,,,gray,line
201.0,7.0,3.0,1,1.0,1.0,367.798089981,2.0,phase_1,,,,,,,,,,,,,orange,circle
396.0,8.0,4.0,1,4.0,4.0,367.56205558799996,2.0,phase_1,,,,,,,,,,,,,gray,line
182.0,3.0,3.0,0,4.0,4.0,384.127855301,2.0,phase_1,,,,,,,,,,,,,magenta,diamond
200.0,7.0,3.0,1,2.0,2.0,384.423017502,2.0,phase_1,,,,,,,,,,,,,orange,circle
107.0,6.0,2.0,1,4.0,4.0,400.763988495,2.0,phase_1,,,,,,,,,,,,,blue,square
0.0,8.0,0.0,1,4.0,4.0,467.658042908,2.0,phase_1,,,,,,,,,,,,,gray,line
33.0,1.0,1.0,1,3.0,3.0,451.205015182,2.0,phase_1,,,,,,,,,,,,,yellow,hexagon
0.0,3.0,0.0,0,2.0,2.0,400.761127472,2.0,phase_1,,,,,,,,,,,,,magenta,diamond
118.0,6.0,2.0,1,4.0,4.0,367.39993095399996,2.0,phase_1,,,,,,,,,,,,,blue,square
35.0,5.0,1.0,0,2.0,2.0,400.709867477,2.0,phase_1,,,,,,,,,,,,,cyan,cross
25.0,1.0,1.0,1,4.0,4.0,384.067058563,2.0,phase_1,,,,,,,,,,,,,yellow,hexagon
425.0,4.0,4.0,0,1.0,1.0,383.600234985,2.0,phase_1,,,,,,,,,,,,,white,triangle
223.0,7.0,3.0,1,3.0,3.0,384.20104980499997,2.0,phase_1,,,,,,,,,,,,,orange,circle
42.0,5.0,1.0,0,1.0,1.0,384.420871735,2.0,phase_1,,,,,,,,,,,,,cyan,cross
0.0,5.0,0.0,0,2.0,2.0,400.758981705,2.0,phase_1,,,,,,,,,,,,,cyan,cross
0.0,7.0,0.0,1,1.0,1.0,417.809009552,2.0,phase_1,,,,,,,,,,,,,orange,circle
89.0,2.0,2.0,0,1.0,1.0,501.15609169,2.0,phase_1,,,,,,,,,,,,,green,flipped triangle
125.0,6.0,2.0,1,4.0,4.0,601.1219024659999,2.0,phase_1,,,,,,,,,,,,,blue,square
88.0,6.0,2.0,1,2.0,2.0,367.239952087,2.0,phase_1,,,,,,,,,,,,,blue,square
384.0,4.0,4.0,0,2.0,2.0,417.544126511,2.0,phase_1,,,,,,,,,,,,,white,triangle
220.0,3.0,3.0,0,2.0,2.0,433.909893036,2.0,phase_1,,,,,,,,,,,,,magenta,diamond
203.0,3.0,3.0,0,4.0,4.0,434.695959091,2.0,phase_1,,,,,,,,,,,,,magenta,diamond
122.0,2.0,2.0,0,3.0,3.0,400.964021683,2.0,phase_1,,,,,,,,,,,,,green,flipped triangle
180.0,3.0,3.0,0,4.0,4.0,417.174100876,2.0,phase_1,,,,,,,,,,,,,magenta,diamond
89.0,2.0,2.0,0,1.0,1.0,350.693225861,2.0,phase_1,,,,,,,,,,,,,green,flipped triangle
95.0,2.0,2.0,0,3.0,3.0,401.298046112,2.0,phase_1,,,,,,,,,,,,,green,flipped triangle
179.0,3.0,3.0,0,4.0,4.0,451.300144196,2.0,phase_1,,,,,,,,,,,,,magenta,diamond
0.0,4.0,0.0,0,2.0,2.0,384.82689857500003,2.0,phase_1,,,,,,,,,,,,,white,triangle
388.0,4.0,4.0,0,4.0,4.0,401.328086853,2.0,phase_1,,,,,,,,,,,,,white,triangle
215.0,3.0,3.0,0,1.0,1.0,333.983898163,2.0,phase_1,,,,,,,,,,,,,magenta,diamond
101.0,2.0,2.0,0,4.0,4.0,334.608078003,2.0,phase_1,,,,,,,,,,,,,green,flipped triangle
0.0,8.0,0.0,1,1.0,1.0,384.551048279,2.0,phase_1,,,,,,,,,,,,,gray,line
176.0,7.0,3.0,1,3.0,3.0,400.829076767,2.0,phase_1,,,,,,,,,,,,,orange,circle
56.0,5.0,1.0,0,1.0,1.0,433.979988098,2.0,phase_1,,,,,,,,,,,,,cyan,cross
112.0,2.0,2.0,0,4.0,4.0,384.626150131,2.0,phase_1,,,,,,,,,,,,,green,flipped triangle
402.0,4.0,4.0,0,2.0,2.0,384.30595397900004,2.0,phase_1,,,,,,,,,,,,,white,triangle
124.0,2.0,2.0,0,3.0,3.0,350.882053375,2.0,phase_1,,,,,,,,,,,,,green,flipped triangle
49.0,1.0,1.0,1,1.0,1.0,401.160955429,2.0,phase_1,,,,,,,,,,,,,yellow,hexagon
193.0,3.0,3.0,0,3.0,3.0,534.317970276,2.0,phase_1,,,,,,,,,,,,,magenta,diamond
395.0,8.0,4.0,1,1.0,1.0,384.037971497,2.0,phase_1,,,,,,,,,,,,,gray,line
31.0,1.0,1.0,1,3.0,3.0,384.155988693,2.0,phase_1,,,,,,,,,,,,,yellow,hexagon
58.0,1.0,1.0,1,1.0,1.0,350.86989402800003,2.0,phase_1,,,,,,,,,,,,,yellow,hexagon
378.0,4.0,4.0,0,3.0,3.0,400.766134262,2.0,phase_1,,,,,,,,,,,,,white,triangle
200.0,7.0,3.0,1,4.0,4.0,433.943033218,2.0,phase_1,,,,,,,,,,,,,orange,circle
0.0,7.0,0.0,1,1.0,1.0,500.64086914100005,2.0,phase_1,,,,,,,,,,,,,orange,circle
0.0,8.0,0.0,1,4.0,4.0,484.023809433,3.0,phase_1,,,,,,,,,,,,,gray,line
194.0,3.0,3.0,0,1.0,1.0,451.131105423,3.0,phase_1,,,,,,,,,,,,,magenta,diamond
66.0,1.0,1.0,1,4.0,4.0,350.85391998299997,3.0,phase_1,,,,,,,,,,,,,yellow,hexagon
0.0,5.0,0.0,0,4.0,4.0,350.385904312,3.0,phase_1,,,,,,,,,,,,,cyan,cross
44.0,5.0,1.0,0,2.0,2.0,384.481906891,3.0,phase_1,,,,,,,,,,,,,cyan,cross
217.0,7.0,3.0,1,1.0,1.0,384.840011597,3.0,phase_1,,,,,,,,,,,,,orange,circle
69.0,5.0,1.0,0,4.0,4.0,384.01889801,3.0,phase_1,,,,,,,,,,,,,cyan,cross
38.0,5.0,1.0,0,4.0,4.0,384.732961655,3.0,phase_1,,,,,,,,,,,,,cyan,cross
86.0,6.0,2.0,1,2.0,2.0,367.50793457000003,3.0,phase_1,,,,,,,,,,,,,blue,square
0.0,1.0,0.0,1,1.0,1.0,367.52200126599996,3.0,phase_1,,,,,,,,,,,,,yellow,hexagon
190.0,7.0,3.0,1,4.0,4.0,468.113899231,3.0,phase_1,,,,,,,,,,,,,orange,circle
186.0,3.0,3.0,0,4.0,4.0,500.97203254699997,3.0,phase_1,,,,,,,,,,,,,magenta,diamond
407.0,4.0,4.0,0,1.0,1.0,334.06496048,3.0,phase_1,,,,,,,,,,,,,white,triangle
117.0,6.0,2.0,1,2.0,2.0,384.151220322,3.0,phase_1,,,,,,,,,,,,,blue,square
51.0,5.0,1.0,0,3.0,3.0,401.06821060199997,3.0,phase_1,,,,,,,,,,,,,cyan,cross
0.0,1.0,0.0,1,4.0,4.0,401.076078415,3.0,phase_1,,,,,,,,,,,,,yellow,hexagon
421.0,8.0,4.0,1,3.0,3.0,401.02005004899996,3.0,phase_1,,,,,,,,,,,,,gray,line
0.0,2.0,0.0,0,2.0,2.0,417.74201393100003,3.0,phase_1,,,,,,,,,,,,,green,flipped triangle
0.0,4.0,0.0,0,4.0,4.0,383.740901947,3.0,phase_1,,,,,,,,,,,,,white,triangle
75.0,1.0,1.0,1,3.0,3.0,401.25083923299997,3.0,phase_1,,,,,,,,,,,,,yellow,hexagon
104.0,6.0,2.0,1,3.0,3.0,384.14001464800003,3.0,phase_1,,,,,,,,,,,,,blue,square
114.0,6.0,2.0,1,3.0,3.0,384.59014892600004,3.0,phase_1,,,,,,,,,,,,,blue,square
74.0,5.0,1.0,0,4.0,4.0,350.803136826,3.0,phase_1,,,,,,,,,,,,,cyan,cross
76.0,2.0,2.0,0,4.0,4.0,350.86989402800003,3.0,phase_1,,,,,,,,,,,,,green,flipped triangle
379.0,8.0,4.0,1,3.0,3.0,384.484052658,3.0,phase_1,,,,,,,,,,,,,gray,line
421.0,8.0,4.0,1,1.0,1.0,350.522994995,3.0,phase_1,,,,,,,,,,,,,gray,line
0.0,6.0,0.0,1,2.0,2.0,367.835044861,3.0,phase_1,,,,,,,,,,,,,blue,square
107.0,2.0,2.0,0,2.0,2.0,351.09019279499995,3.0,phase_1,,,,,,,,,,,,,green,flipped triangle
0.0,7.0,0.0,1,3.0,3.0,367.551088333,3.0,phase_1,,,,,,,,,,,,,orange,circle
189.0,3.0,3.0,0,2.0,2.0,400.70295333900003,3.0,phase_1,,,,,,,,,,,,,magenta,diamond
191.0,3.0,3.0,0,3.0,3.0,333.793878555,3.0,phase_1,,,,,,,,,,,,,magenta,diamond
0.0,5.0,0.0,0,1.0,1.0,384.76395607,3.0,phase_1,,,,,,,,,,,,,cyan,cross
33.0,1.0,1.0,1,3.0,3.0,434.386968613,3.0,phase_1,,,,,,,,,,,,,yellow,hexagon
394.0,8.0,4.0,1,3.0,3.0,367.415904999,3.0,phase_1,,,,,,,,,,,,,gray,line
408.0,8.0,4.0,1,2.0,2.0,417.45710372900004,3.0,phase_1,,,,,,,,,,,,,gray,line
416.0,4.0,4.0,0,2.0,2.0,384.46688652,3.0,phase_1,,,,,,,,,,,,,white,triangle
64.0,1.0,1.0,1,2.0,2.0,401.048898697,3.0,phase_1,,,,,,,,,,,,,yellow,hexagon
81.0,2.0,2.0,0,3.0,3.0,484.39097404499995,3.0,phase_1,,,,,,,,,,,,,green,flipped triangle
94.0,2.0,2.0,0,4.0,4.0,317.34681129499995,3.0,phase_1,,,,,,,,,,,,,green,flipped triangle
0.0,4.0,0.0,0,2.0,2.0,300.850868225,3.0,phase_1,,,,,,,,,,,,,white,triangle
60.0,1.0,1.0,1,3.0,3.0,384.55009460400004,3.0,phase_1,,,,,,,,,,,,,yellow,hexagon
0.0,4.0,0.0,0,4.0,4.0,367.717981339,3.0,phase_1,,,,,,,,,,,,,white,triangle
75.0,6.0,2.0,1,1.0,1.0,317.32797622699997,3.0,phase_1,,,,,,,,,,,,,blue,square
207.0,3.0,3.0,0,3.0,3.0,384.454011917,3.0,phase_1,,,,,,,,,,,,,magenta,diamond
182.0,3.0,3.0,0,1.0,1.0,484.488964081,3.0,phase_1,,,,,,,,,,,,,magenta,diamond
86.0,2.0,2.0,0,2.0,2.0,384.307861328,3.0,phase_1,,,,,,,,,,,,,green,flipped triangle
59.0,1.0,1.0,1,4.0,4.0,334.332942963,3.0,phase_1,,,,,,,,,,,,,yellow,hexagon
177.0,7.0,3.0,1,3.0,3.0,433.730125427,3.0,phase_1,,,,,,,,,,,,,orange,circle
0.0,8.0,0.0,1,1.0,1.0,350.703954697,3.0,phase_1,,,,,,,,,,,,,gray,line
386.0,8.0,4.0,1,2.0,2.0,417.844057083,3.0,phase_1,,,,,,,,,,,,,gray,line
79.0,2.0,2.0,0,1.0,1.0,384.141206741,3.0,phase_1,,,,,,,,,,,,,green,flipped triangle
0.0,4.0,0.0,0,4.0,4.0,367.91276931799996,3.0,phase_1,,,,,,,,,,,,,white,triangle
41.0,5.0,1.0,0,4.0,4.0,367.79499053999996,3.0,phase_1,,,,,,,,,,,,,cyan,cross
0.0,7.0,0.0,1,2.0,2.0,417.721986771,3.0,phase_1,,,,,,,,,,,,,orange,circle
215.0,3.0,3.0,0,1.0,1.0,401.041030884,3.0,phase_1,,,,,,,,,,,,,magenta,diamond
417.0,8.0,4.0,1,2.0,2.0,367.223024368,3.0,phase_1,,,,,,,,,,,,,gray,line
0.0,3.0,0.0,0,3.0,3.0,417.164087296,3.0,phase_1,,,,,,,,,,,,,magenta,diamond
29.0,5.0,1.0,0,4.0,4.0,367.501020432,3.0,phase_1,,,,,,,,,,,,,cyan,cross
0.0,5.0,0.0,0,4.0,4.0,300.641059875,3.0,phase_1,,,,,,,,,,,,,cyan,cross
61.0,5.0,1.0,0,1.0,1.0,334.44404602099996,3.0,phase_1,,,,,,,,,,,,,cyan,cross
396.0,8.0,4.0,1,2.0,2.0,400.825023651,3.0,phase_1,,,,,,,,,,,,,gray,line
0.0,5.0,0.0,0,2.0,2.0,384.22703743,3.0,phase_1,,,,,,,,,,,,,cyan,cross
397.0,4.0,4.0,0,1.0,1.0,351.182937622,3.0,phase_1,,,,,,,,,,,,,white,triangle
199.0,3.0,3.0,0,3.0,3.0,351.125955582,3.0,phase_1,,,,,,,,,,,,,magenta,diamond
417.0,8.0,4.0,1,4.0,4.0,367.415904999,3.0,phase_1,,,,,,,,,,,,,gray,line
419.0,4.0,4.0,0,4.0,4.0,350.4550457,3.0,phase_1,,,,,,,,,,,,,white,triangle
182.0,3.0,3.0,0,1.0,1.0,450.92797279399997,3.0,phase_1,,,,,,,,,,,,,magenta,diamond
46.0,5.0,1.0,0,4.0,4.0,400.75802803,3.0,phase_1,,,,,,,,,,,,,cyan,cross
90.0,2.0,2.0,0,2.0,2.0,384.26399231000005,3.0,phase_1,,,,,,,,,,,,,green,flipped triangle
216.0,3.0,3.0,0,1.0,1.0,366.80912971500004,3.0,phase_1,,,,,,,,,,,,,magenta,diamond
0.0,2.0,0.0,0,1.0,1.0,300.93884468100003,3.0,phase_1,,,,,,,,,,,,,green,flipped triangle
394.0,8.0,4.0,1,3.0,3.0,500.92196464500006,3.0,phase_1,,,,,,,,,,,,,gray,line
0.0,2.0,0.0,0,2.0,2.0,734.374046326,3.0,phase_1,,,,,,,,,,,,,green,flipped triangle
36.0,5.0,1.0,0,1.0,1.0,717.528104782,3.0,phase_1,,,,,,,,,,,,,cyan,cross
0.0,5.0,0.0,0,1.0,1.0,300.6939888,3.0,phase_1,,,,,,,,,,,,,cyan,cross
124.0,6.0,2.0,1,2.0,2.0,350.65007209799995,3.0,phase_1,,,,,,,,,,,,,blue,square
45.0,1.0,1.0,1,1.0,1.0,351.116895676,3.0,phase_1,,,,,,,,,,,,,yellow,hexagon
97.0,6.0,2.0,1,1.0,1.0,584.55491066,3.0,phase_1,,,,,,,,,,,,,blue,square
387.0,8.0,4.0,1,4.0,4.0,584.511041641,3.0,phase_1,,,,,,,,,,,,,gray,line
0.0,4.0,0.0,0,3.0,3.0,667.604923248,3.0,phase_1,,,,,,,,,,,,,white,triangle
0.0,4.0,0.0,0,3.0,3.0,684.93103981,3.0,phase_1,,,,,,,,,,,,,white,triangle
388.0,4.0,4.0,0,1.0,1.0,501.043081284,3.0,phase_1,,,,,,,,,,,,,white,triangle
65.0,1.0,1.0,1,4.0,4.0,934.830188751,3.0,phase_1,,,,,,,,,,,,,yellow,hexagon
192.0,3.0,3.0,0,3.0,3.0,734.769105911,3.0,phase_1,,,,,,,,,,,,,magenta,diamond
398.0,8.0,4.0,1,3.0,3.0,450.771808624,3.0,phase_1,,,,,,,,,,,,,gray,line
177.0,7.0,3.0,1,3.0,3.0,634.6209049219999,3.0,phase_1,,,,,,,,,,,,,orange,circle
197.0,7.0,3.0,1,4.0,4.0,401.14402771000005,3.0,phase_1,,,,,,,,,,,,,orange,circle
392.0,8.0,4.0,1,1.0,1.0,384.46187973,3.0,phase_1,,,,,,,,,,,,,gray,line
96.0,2.0,2.0,0,2.0,2.0,517.814874649,3.0,phase_1,,,,,,,,,,,,,green,flipped triangle
42.0,1.0,1.0,1,2.0,2.0,517.866134644,3.0,phase_1,,,,,,,,,,,,,yellow,hexagon
111.0,6.0,2.0,1,1.0,1.0,501.68895721399997,3.0,phase_1,,,,,,,,,,,,,blue,square
113.0,6.0,2.0,1,2.0,2.0,550.745010376,3.0,phase_1,,,,,,,,,,,,,blue,square
88.0,6.0,2.0,1,4.0,4.0,567.97504425,3.0,phase_1,,,,,,,,,,,,,blue,square
82.0,2.0,2.0,0,3.0,3.0,467.55695342999996,3.0,phase_1,,,,,,,,,,,,,green,flipped triangle
118.0,6.0,2.0,1,3.0,3.0,718.1699275970001,3.0,phase_1,,,,,,,,,,,,,blue,square
38.0,1.0,1.0,1,2.0,2.0,550.276041031,3.0,phase_1,,,,,,,,,,,,,yellow,hexagon
98.0,6.0,2.0,1,1.0,1.0,400.675058365,3.0,phase_1,,,,,,,,,,,,,blue,square
82.0,2.0,2.0,0,1.0,1.0,584.3131542210001,3.0,phase_1,,,,,,,,,,,,,green,flipped triangle
0.0,7.0,0.0,1,2.0,2.0,517.996072769,3.0,phase_1,,,,,,,,,,,,,orange,circle
0.0,7.0,0.0,1,3.0,3.0,417.880058289,3.0,phase_1,,,,,,,,,,,,,orange,circle
210.0,7.0,3.0,1,4.0,4.0,433.75802040099995,4.0,phase_1,,,,,,,,,,,,,orange,circle
198.0,7.0,3.0,1,2.0,2.0,551.3930320740001,4.0,phase_1,,,,,,,,,,,,,orange,circle
66.0,1.0,1.0,1,3.0,3.0,417.273044586,4.0,phase_1,,,,,,,,,,,,,yellow,hexagon
0.0,5.0,0.0,0,2.0,2.0,484.305858612,4.0,phase_1,,,,,,,,,,,,,cyan,cross
0.0,7.0,0.0,1,1.0,1.0,501.33299827599996,4.0,phase_1,,,,,,,,,,,,,orange,circle
46.0,1.0,1.0,1,4.0,4.0,517.915964127,4.0,phase_1,,,,,,,,,,,,,yellow,hexagon
0.0,6.0,0.0,1,2.0,2.0,384.177923203,4.0,phase_1,,,,,,,,,,,,,blue,square
57.0,1.0,1.0,1,3.0,3.0,417.3579216,4.0,phase_1,,,,,,,,,,,,,yellow,hexagon
34.0,5.0,1.0,0,1.0,1.0,450.949192047,4.0,phase_1,,,,,,,,,,,,,cyan,cross
395.0,8.0,4.0,1,3.0,3.0,384.699106216,4.0,phase_1,,,,,,,,,,,,,gray,line
64.0,1.0,1.0,1,4.0,4.0,434.73601341200003,4.0,phase_1,,,,,,,,,,,,,yellow,hexagon
384.0,4.0,4.0,0,4.0,4.0,400.475978851,4.0,phase_1,,,,,,,,,,,,,white,triangle
57.0,1.0,1.0,1,3.0,3.0,434.020042419,4.0,phase_1,,,,,,,,,,,,,yellow,hexagon
125.0,2.0,2.0,0,3.0,3.0,333.95290374800004,4.0,phase_1,,,,,,,,,,,,,green,flipped triangle
52.0,1.0,1.0,1,3.0,3.0,317.790031433,4.0,phase_1,,,,,,,,,,,,,yellow,hexagon
0.0,3.0,0.0,0,3.0,3.0,334.133863449,4.0,phase_1,,,,,,,,,,,,,magenta,diamond
113.0,6.0,2.0,1,1.0,1.0,384.38296318100004,4.0,phase_1,,,,,,,,,,,,,blue,square
400.0,4.0,4.0,0,4.0,4.0,334.326028824,4.0,phase_1,,,,,,,,,,,,,white,triangle
78.0,6.0,2.0,1,4.0,4.0,334.45906639099996,4.0,phase_1,,,,,,,,,,,,,blue,square
57.0,5.0,1.0,0,4.0,4.0,467.602014542,4.0,phase_1,,,,,,,,,,,,,cyan,cross
0.0,6.0,0.0,1,2.0,2.0,417.643785477,4.0,phase_1,,,,,,,,,,,,,blue,square
190.0,3.0,3.0,0,2.0,2.0,400.911092758,4.0,phase_1,,,,,,,,,,,,,magenta,diamond
383.0,4.0,4.0,0,1.0,1.0,350.920915604,4.0,phase_1,,,,,,,,,,,,,white,triangle
97.0,6.0,2.0,1,1.0,1.0,367.61879921,4.0,phase_1,,,,,,,,,,,,,blue,square
423.0,8.0,4.0,1,2.0,2.0,384.71198082,4.0,phase_1,,,,,,,,,,,,,gray,line
423.0,4.0,4.0,0,4.0,4.0,367.551088333,4.0,phase_1,,,,,,,,,,,,,white,triangle
29.0,1.0,1.0,1,4.0,4.0,317.30294227599995,4.0,phase_1,,,,,,,,,,,,,yellow,hexagon
0.0,2.0,0.0,0,1.0,1.0,334.24782753,4.0,phase_1,,,,,,,,,,,,,green,flipped triangle
84.0,6.0,2.0,1,4.0,4.0,500.733137131,4.0,phase_1,,,,,,,,,,,,,blue,square
114.0,6.0,2.0,1,4.0,4.0,384.196043015,4.0,phase_1,,,,,,,,,,,,,blue,square
175.0,7.0,3.0,1,2.0,2.0,500.975847244,4.0,phase_1,,,,,,,,,,,,,orange,circle
110.0,2.0,2.0,0,1.0,1.0,350.99792480499997,4.0,phase_1,,,,,,,,,,,,,green,flipped triangle
179.0,3.0,3.0,0,3.0,3.0,384.32097435000003,4.0,phase_1,,,,,,,,,,,,,magenta,diamond
209.0,3.0,3.0,0,2.0,2.0,367.241859436,4.0,phase_1,,,,,,,,,,,,,magenta,diamond
204.0,3.0,3.0,0,1.0,1.0,317.104816437,4.0,phase_1,,,,,,,,,,,,,magenta,diamond
124.0,6.0,2.0,1,1.0,1.0,384.14692878700004,4.0,phase_1,,,,,,,,,,,,,blue,square
189.0,3.0,3.0,0,3.0,3.0,350.904941559,4.0,phase_1,,,,,,,,,,,,,magenta,diamond
380.0,4.0,4.0,0,4.0,4.0,383.96596908600003,4.0,phase_1,,,,,,,,,,,,,white,triangle
421.0,8.0,4.0,1,3.0,3.0,384.28902626,4.0,phase_1,,,,,,,,,,,,,gray,line
47.0,1.0,1.0,1,4.0,4.0,351.233959198,4.0,phase_1,,,,,,,,,,,,,yellow,hexagon
31.0,1.0,1.0,1,1.0,1.0,333.85992050199997,4.0,phase_1,,,,,,,,,,,,,yellow,hexagon
397.0,8.0,4.0,1,4.0,4.0,383.967876434,4.0,phase_1,,,,,,,,,,,,,gray,line
81.0,2.0,2.0,0,3.0,3.0,333.685874939,4.0,phase_1,,,,,,,,,,,,,green,flipped triangle
58.0,1.0,1.0,1,1.0,1.0,384.27495956399997,4.0,phase_1,,,,,,,,,,,,,yellow,hexagon
0.0,4.0,0.0,0,3.0,3.0,317.538022995,4.0,phase_1,,,,,,,,,,,,,white,triangle
188.0,7.0,3.0,1,3.0,3.0,350.85606575,4.0,phase_1,,,,,,,,,,,,,orange,circle
87.0,6.0,2.0,1,4.0,4.0,600.692987442,4.0,phase_1,,,,,,,,,,,,,blue,square
400.0,4.0,4.0,0,4.0,4.0,383.904933929,4.0,phase_1,,,,,,,,,,,,,white,triangle
398.0,8.0,4.0,1,3.0,3.0,367.13385582,4.0,phase_1,,,,,,,,,,,,,gray,line
64.0,5.0,1.0,0,2.0,2.0,383.989810944,4.0,phase_1,,,,,,,,,,,,,cyan,cross
0.0,2.0,0.0,0,2.0,2.0,401.281833649,4.0,phase_1,,,,,,,,,,,,,green,flipped triangle
206.0,7.0,3.0,1,4.0,4.0,400.80785751300004,4.0,phase_1,,,,,,,,,,,,,orange,circle
377.0,8.0,4.0,1,4.0,4.0,433.937072754,4.0,phase_1,,,,,,,,,,,,,gray,line
29.0,5.0,1.0,0,2.0,2.0,534.22999382,4.0,phase_1,,,,,,,,,,,,,cyan,cross
60.0,5.0,1.0,0,3.0,3.0,367.876052856,4.0,phase_1,,,,,,,,,,,,,cyan,cross
113.0,6.0,2.0,1,2.0,2.0,400.918960571,4.0,phase_1,,,,,,,,,,,,,blue,square
0.0,7.0,0.0,1,2.0,2.0,333.86802673299997,4.0,phase_1,,,,,,,,,,,,,orange,circle
387.0,4.0,4.0,0,2.0,2.0,333.65797996500004,4.0,phase_1,,,,,,,,,,,,,white,triangle
213.0,3.0,3.0,0,3.0,3.0,417.44184493999995,4.0,phase_1,,,,,,,,,,,,,magenta,diamond
178.0,7.0,3.0,1,4.0,4.0,383.91494751,4.0,phase_1,,,,,,,,,,,,,orange,circle
25.0,1.0,1.0,1,1.0,1.0,351.20606422400004,4.0,phase_1,,,,,,,,,,,,,yellow,hexagon
0.0,1.0,0.0,1,1.0,1.0,400.78282356299997,4.0,phase_1,,,,,,,,,,,,,yellow,hexagon
115.0,6.0,2.0,1,4.0,4.0,350.793123245,4.0,phase_1,,,,,,,,,,,,,blue,square
0.0,1.0,0.0,1,3.0,3.0,434.10682678200004,4.0,phase_1,,,,,,,,,,,,,yellow,hexagon
44.0,1.0,1.0,1,4.0,4.0,367.31505394000004,4.0,phase_1,,,,,,,,,,,,,yellow,hexagon
187.0,3.0,3.0,0,1.0,1.0,351.124048233,4.0,phase_1,,,,,,,,,,,,,magenta,diamond
0.0,1.0,0.0,1,1.0,1.0,334.274053574,4.0,phase_1,,,,,,,,,,,,,yellow,hexagon
0.0,4.0,0.0,0,2.0,2.0,367.383003235,4.0,phase_1,,,,,,,,,,,,,white,triangle
0.0,2.0,0.0,0,2.0,2.0,434.523820877,4.0,phase_1,,,,,,,,,,,,,green,flipped triangle
0.0,2.0,0.0,0,3.0,3.0,367.379188538,4.0,phase_1,,,,,,,,,,,,,green,flipped triangle
67.0,5.0,1.0,0,4.0,4.0,901.397943497,4.0,phase_1,,,,,,,,,,,,,cyan,cross
419.0,8.0,4.0,1,2.0,2.0,551.153898239,4.0,phase_1,,,,,,,,,,,,,gray,line
175.0,3.0,3.0,0,1.0,1.0,501.413106918,4.0,phase_1,,,,,,,,,,,,,magenta,diamond
408.0,8.0,4.0,1,2.0,2.0,534.516096115,4.0,phase_1,,,,,,,,,,,,,gray,line
210.0,3.0,3.0,0,2.0,2.0,467.577934265,4.0,phase_1,,,,,,,,,,,,,magenta,diamond
205.0,3.0,3.0,0,3.0,3.0,384.251832962,4.0,phase_1,,,,,,,,,,,,,magenta,diamond
67.0,5.0,1.0,0,2.0,2.0,367.655992508,4.0,phase_1,,,,,,,,,,,,,cyan,cross
0.0,4.0,0.0,0,2.0,2.0,350.786924362,4.0,phase_1,,,,,,,,,,,,,white,triangle
192.0,3.0,3.0,0,1.0,1.0,300.93884468100003,4.0,phase_1,,,,,,,,,,,,,magenta,diamond
42.0,1.0,1.0,1,1.0,1.0,300.687074661,4.0,phase_1,,,,,,,,,,,,,yellow,hexagon
0.0,1.0,0.0,1,1.0,1.0,317.34585762,4.0,phase_1,,,,,,,,,,,,,yellow,hexagon
208.0,7.0,3.0,1,4.0,4.0,351.068019867,4.0,phase_1,,,,,,,,,,,,,orange,circle
26.0,1.0,1.0,1,2.0,2.0,367.976903915,4.0,phase_1,,,,,,,,,,,,,yellow,hexagon
223.0,7.0,3.0,1,3.0,3.0,801.389932632,4.0,phase_1,,,,,,,,,,,,,orange,circle
116.0,2.0,2.0,0,2.0,2.0,417.865037918,4.0,phase_1,,,,,,,,,,,,,green,flipped triangle
381.0,8.0,4.0,1,1.0,1.0,384.09781455999996,4.0,phase_1,,,,,,,,,,,,,gray,line
213.0,7.0,3.0,1,3.0,3.0,350.842952728,4.0,phase_1,,,,,,,,,,,,,orange,circle
413.0,4.0,4.0,0,1.0,1.0,767.8539752959999,4.0,phase_1,,,,,,,,,,,,,white,triangle
56.0,1.0,1.0,1,1.0,1.0,501.37090682999997,4.0,phase_1,,,,,,,,,,,,,yellow,hexagon
192.0,3.0,3.0,0,2.0,2.0,801.05304718,4.0,phase_1,,,,,,,,,,,,,magenta,diamond
411.0,8.0,4.0,1,2.0,2.0,667.836904526,4.0,phase_1,,,,,,,,,,,,,gray,line
0.0,4.0,0.0,0,3.0,3.0,367.480039597,4.0,phase_1,,,,,,,,,,,,,white,triangle
98.0,2.0,2.0,0,3.0,3.0,300.892114639,4.0,phase_1,,,,,,,,,,,,,green,flipped triangle
85.0,6.0,2.0,1,4.0,4.0,367.94710159299996,4.0,phase_1,,,,,,,,,,,,,blue,square
183.0,3.0,3.0,0,1.0,1.0,384.204149246,4.0,phase_1,,,,,,,,,,,,,magenta,diamond
79.0,6.0,2.0,1,4.0,4.0,283.926963806,4.0,phase_1,,,,,,,,,,,,,blue,square
58.0,1.0,1.0,1,3.0,3.0,367.336988449,4.0,phase_1,,,,,,,,,,,,,yellow,hexagon
386.0,8.0,4.0,1,3.0,3.0,401.00693702700005,4.0,phase_1,,,,,,,,,,,,,gray,line
181.0,3.0,3.0,0,1.0,1.0,350.829124451,4.0,phase_1,,,,,,,,,,,,,magenta,diamond
0.0,2.0,0.0,0,1.0,1.0,367.589950562,4.0,phase_1,,,,,,,,,,,,,green,flipped triangle
0.0,5.0,1.0,0,5.0,5.0,450.544834137,1.0,phase_2,go,250.0,250.0,1.0,,,,,,,,,cyan,cross
0.0,2.0,2.0,0,6.0,6.0,333.986997604,1.0,phase_2,go,250.0,250.0,1.0,,,,,,,,,green,flipped triangle
0.0,3.0,3.0,0,5.0,5.0,367.635011673,1.0,phase_2,go,250.0,250.0,1.0,,,,,,,,,magenta,diamond
0.0,4.0,4.0,0,5.0,5.0,617.853164673,1.0,phase_2,go,250.0,250.0,1.0,,,,,,,,,white,triangle
0.0,8.0,4.0,1,5.0,0.0,,1.0,phase_2,stop,250.0,250.0,4.0,,,,,,,,,gray,line
0.0,4.0,4.0,0,5.0,5.0,717.681884766,1.0,phase_2,go,250.0,250.0,1.0,,,,,,,,,white,triangle
0.0,8.0,4.0,1,6.0,6.0,784.586906433,1.0,phase_2,go,250.0,250.0,1.0,,,,,,,,,gray,line
0.0,5.0,1.0,0,6.0,6.0,434.34906005899995,1.0,phase_2,go,250.0,250.0,1.0,,,,,,,,,cyan,cross
0.0,1.0,1.0,1,6.0,0.0,,1.0,phase_2,stop,250.0,250.0,4.0,,,,,,,,,yellow,hexagon
0.0,6.0,2.0,1,5.0,0.0,,1.0,phase_2,stop,300.0,250.0,4.0,,,,,,,,,blue,square
0.0,2.0,2.0,0,6.0,6.0,868.044137955,1.0,phase_2,go,300.0,250.0,1.0,,,,,,,,,green,flipped triangle
0.0,3.0,3.0,0,6.0,6.0,483.91103744500003,1.0,phase_2,go,300.0,250.0,1.0,,,,,,,,,magenta,diamond
0.0,7.0,3.0,1,5.0,0.0,,1.0,phase_2,stop,350.0,250.0,4.0,,,,,,,,,orange,circle
0.0,3.0,3.0,0,6.0,6.0,651.135921478,1.0,phase_2,go,350.0,250.0,1.0,,,,,,,,,magenta,diamond
0.0,2.0,2.0,0,6.0,6.0,601.05919838,1.0,phase_2,go,350.0,250.0,1.0,,,,,,,,,green,flipped triangle
0.0,7.0,3.0,1,6.0,0.0,,1.0,phase_2,stop,350.0,300.0,4.0,,,,,,,,,orange,circle
0.0,2.0,2.0,0,5.0,5.0,567.905902863,1.0,phase_2,go,350.0,300.0,1.0,,,,,,,,,green,flipped triangle
0.0,2.0,2.0,0,5.0,5.0,634.80091095,1.0,phase_2,go,350.0,300.0,1.0,,,,,,,,,green,flipped triangle
0.0,6.0,2.0,1,5.0,0.0,,1.0,phase_2,stop,400.0,300.0,4.0,,,,,,,,,blue,square
0.0,1.0,1.0,1,5.0,5.0,584.004878998,1.0,phase_2,go,400.0,300.0,1.0,,,,,,,,,yellow,hexagon
0.0,2.0,2.0,0,6.0,6.0,517.8239345549999,1.0,phase_2,go,400.0,300.0,1.0,,,,,,,,,green,flipped triangle
0.0,2.0,2.0,0,6.0,6.0,617.999076843,1.0,phase_2,go,400.0,300.0,1.0,,,,,,,,,green,flipped triangle
0.0,6.0,2.0,1,6.0,6.0,917.974948883,1.0,phase_2,go,400.0,300.0,1.0,,,,,,,,,blue,square
0.0,5.0,1.0,0,5.0,5.0,534.619092941,1.0,phase_2,go,400.0,300.0,1.0,,,,,,,,,cyan,cross
0.0,6.0,2.0,1,6.0,0.0,,1.0,phase_2,stop,400.0,350.0,4.0,,,,,,,,,blue,square
0.0,6.0,2.0,1,5.0,0.0,,1.0,phase_2,stop,450.0,350.0,4.0,,,,,,,,,blue,square
0.0,1.0,1.0,1,5.0,5.0,700.8359432220001,1.0,phase_2,stop,500.0,350.0,3.0,,,,,,,,,yellow,hexagon
0.0,1.0,1.0,1,5.0,0.0,,1.0,phase_2,stop,450.0,350.0,4.0,,,,,,,,,yellow,hexagon
0.0,6.0,2.0,1,5.0,0.0,,1.0,phase_2,stop,500.0,350.0,4.0,,,,,,,,,blue,square
0.0,5.0,1.0,0,6.0,6.0,600.770950317,1.0,phase_2,go,500.0,350.0,1.0,,,,,,,,,cyan,cross
0.0,6.0,2.0,1,5.0,0.0,,1.0,phase_2,stop,550.0,350.0,4.0,,,,,,,,,blue,square
0.0,8.0,4.0,1,5.0,0.0,,1.0,phase_2,stop,600.0,350.0,4.0,,,,,,,,,gray,line
0.0,6.0,2.0,1,6.0,0.0,,1.0,phase_2,stop,600.0,400.0,4.0,,,,,,,,,blue,square
0.0,1.0,1.0,1,6.0,6.0,717.9090976719999,1.0,phase_2,go,600.0,400.0,1.0,,,,,,,,,yellow,hexagon
0.0,5.0,1.0,0,6.0,6.0,801.669120789,1.0,phase_2,go,600.0,400.0,1.0,,,,,,,,,cyan,cross
0.0,5.0,1.0,0,6.0,6.0,667.747974396,1.0,phase_2,go,600.0,400.0,1.0,,,,,,,,,cyan,cross
0.0,4.0,4.0,0,6.0,6.0,434.218883514,2.0,phase_2,go,600.0,400.0,1.0,,,,,,,,,white,triangle
0.0,1.0,1.0,1,5.0,5.0,484.62200164800004,2.0,phase_2,stop,650.0,400.0,3.0,,,,,,,,,yellow,hexagon
0.0,8.0,4.0,1,5.0,5.0,651.767015457,2.0,phase_2,go,650.0,400.0,1.0,,,,,,,,,gray,line
0.0,7.0,3.0,1,5.0,5.0,366.96386337300004,2.0,phase_2,go,650.0,400.0,1.0,,,,,,,,,orange,circle
0.0,3.0,3.0,0,5.0,5.0,583.998203278,2.0,phase_2,go,650.0,400.0,1.0,,,,,,,,,magenta,diamond
0.0,7.0,3.0,1,5.0,5.0,417.150020599,2.0,phase_2,stop,600.0,400.0,3.0,,,,,,,,,orange,circle
0.0,1.0,1.0,1,6.0,0.0,,2.0,phase_2,stop,600.0,450.0,4.0,,,,,,,,,yellow,hexagon
0.0,1.0,1.0,1,5.0,0.0,,2.0,phase_2,stop,550.0,450.0,4.0,,,,,,,,,yellow,hexagon
0.0,2.0,2.0,0,6.0,6.0,934.679031372,2.0,phase_2,go,550.0,450.0,1.0,,,,,,,,,green,flipped triangle
0.0,3.0,3.0,0,5.0,5.0,434.88979339599996,2.0,phase_2,go,550.0,450.0,1.0,,,,,,,,,magenta,diamond
0.0,6.0,2.0,1,5.0,5.0,500.178813934,2.0,phase_2,go,550.0,450.0,1.0,,,,,,,,,blue,square
0.0,5.0,1.0,0,6.0,6.0,734.479904175,2.0,phase_2,go,550.0,450.0,1.0,,,,,,,,,cyan,cross
0.0,3.0,3.0,0,6.0,6.0,701.3180255890001,2.0,phase_2,go,550.0,450.0,1.0,,,,,,,,,magenta,diamond
0.0,8.0,4.0,1,5.0,5.0,534.3880653379999,2.0,phase_2,stop,600.0,450.0,3.0,,,,,,,,,gray,line
0.0,6.0,2.0,1,5.0,0.0,,2.0,phase_2,go,600.0,450.0,5.0,,,,,,,,,blue,square
0.0,3.0,3.0,0,5.0,5.0,417.285203934,2.0,phase_2,go,600.0,450.0,1.0,,,,,,,,,magenta,diamond
0.0,7.0,3.0,1,6.0,6.0,367.59901046799996,2.0,phase_2,stop,600.0,500.0,3.0,,,,,,,,,orange,circle
0.0,1.0,1.0,1,5.0,5.0,634.566068649,2.0,phase_2,stop,550.0,500.0,3.0,,,,,,,,,yellow,hexagon
0.0,3.0,3.0,0,6.0,6.0,717.6539897920001,2.0,phase_2,go,550.0,500.0,1.0,,,,,,,,,magenta,diamond
0.0,7.0,3.0,1,6.0,6.0,434.110164642,2.0,phase_2,go,550.0,500.0,1.0,,,,,,,,,orange,circle
0.0,8.0,4.0,1,5.0,0.0,,2.0,phase_2,stop,500.0,500.0,4.0,,,,,,,,,gray,line
0.0,5.0,1.0,0,6.0,6.0,784.332990646,2.0,phase_2,go,500.0,500.0,1.0,,,,,,,,,cyan,cross
0.0,1.0,1.0,1,6.0,6.0,517.700910568,2.0,phase_2,go,500.0,500.0,1.0,,,,,,,,,yellow,hexagon
0.0,1.0,1.0,1,6.0,6.0,434.818029404,2.0,phase_2,stop,500.0,450.0,3.0,,,,,,,,,yellow,hexagon
0.0,1.0,1.0,1,6.0,6.0,518.046140671,2.0,phase_2,stop,500.0,400.0,3.0,,,,,,,,,yellow,hexagon
0.0,8.0,4.0,1,5.0,0.0,,2.0,phase_2,stop,550.0,400.0,4.0,,,,,,,,,gray,line
0.0,2.0,2.0,0,6.0,6.0,951.647043228,2.0,phase_2,go,550.0,400.0,1.0,,,,,,,,,green,flipped triangle
0.0,6.0,2.0,1,5.0,0.0,,2.0,phase_2,stop,600.0,400.0,4.0,,,,,,,,,blue,square
0.0,5.0,1.0,0,5.0,5.0,801.540136337,2.0,phase_2,go,600.0,400.0,1.0,,,,,,,,,cyan,cross
0.0,1.0,1.0,1,6.0,6.0,551.4779090879999,2.0,phase_2,stop,600.0,350.0,3.0,,,,,,,,,yellow,hexagon
0.0,7.0,3.0,1,5.0,0.0,,2.0,phase_2,stop,650.0,350.0,4.0,,,,,,,,,orange,circle
0.0,8.0,4.0,1,6.0,0.0,,2.0,phase_2,stop,650.0,300.0,4.0,,,,,,,,,gray,line
0.0,8.0,4.0,1,5.0,5.0,601.290941238,2.0,phase_2,go,650.0,300.0,1.0,,,,,,,,,gray,line
0.0,5.0,1.0,0,6.0,6.0,734.205007553,2.0,phase_2,go,650.0,300.0,1.0,,,,,,,,,cyan,cross
0.0,8.0,4.0,1,6.0,0.0,,2.0,phase_2,stop,650.0,350.0,4.0,,,,,,,,,gray,line
0.0,3.0,3.0,0,6.0,6.0,817.981004715,2.0,phase_2,go,650.0,350.0,1.0,,,,,,,,,magenta,diamond
0.0,4.0,4.0,0,6.0,6.0,551.453828812,3.0,phase_2,go,650.0,350.0,1.0,,,,,,,,,white,triangle
0.0,4.0,4.0,0,6.0,6.0,751.434087753,3.0,phase_2,go,650.0,350.0,1.0,,,,,,,,,white,triangle
0.0,6.0,2.0,1,5.0,5.0,551.347017288,3.0,phase_2,stop,700.0,350.0,3.0,,,,,,,,,blue,square
0.0,7.0,3.0,1,6.0,0.0,,3.0,phase_2,stop,700.0,400.0,4.0,,,,,,,,,orange,circle
0.0,4.0,4.0,0,5.0,5.0,684.103012085,3.0,phase_2,go,700.0,400.0,1.0,,,,,,,,,white,triangle
0.0,6.0,2.0,1,5.0,5.0,684.674024582,3.0,phase_2,go,700.0,400.0,1.0,,,,,,,,,blue,square
0.0,2.0,2.0,0,5.0,5.0,634.511947632,3.0,phase_2,go,700.0,400.0,1.0,,,,,,,,,green,flipped triangle
0.0,2.0,2.0,0,5.0,5.0,801.375865936,3.0,phase_2,go,700.0,400.0,1.0,,,,,,,,,green,flipped triangle
0.0,3.0,3.0,0,6.0,6.0,634.176015854,3.0,phase_2,go,700.0,400.0,1.0,,,,,,,,,magenta,diamond
0.0,2.0,2.0,0,6.0,6.0,734.627008438,3.0,phase_2,go,700.0,400.0,1.0,,,,,,,,,green,flipped triangle
0.0,4.0,4.0,0,5.0,5.0,801.74279213,3.0,phase_2,go,700.0,400.0,1.0,,,,,,,,,white,triangle
0.0,4.0,4.0,0,6.0,6.0,701.2429237370001,3.0,phase_2,go,700.0,400.0,1.0,,,,,,,,,white,triangle
0.0,4.0,4.0,0,5.0,5.0,634.0901851650001,3.0,phase_2,go,700.0,400.0,1.0,,,,,,,,,white,triangle
0.0,6.0,2.0,1,6.0,0.0,,3.0,phase_2,stop,700.0,450.0,4.0,,,,,,,,,blue,square
0.0,7.0,3.0,1,6.0,6.0,918.169975281,3.0,phase_2,go,700.0,450.0,1.0,,,,,,,,,orange,circle
0.0,4.0,4.0,0,6.0,6.0,884.5410346980001,3.0,phase_2,go,700.0,450.0,1.0,,,,,,,,,white,triangle
0.0,3.0,3.0,0,5.0,5.0,934.758901596,3.0,phase_2,go,700.0,450.0,1.0,,,,,,,,,magenta,diamond
0.0,1.0,1.0,1,6.0,6.0,951.913833618,3.0,phase_2,go,700.0,450.0,1.0,,,,,,,,,yellow,hexagon
0.0,7.0,3.0,1,5.0,5.0,501.02400779699997,3.0,phase_2,stop,650.0,450.0,3.0,,,,,,,,,orange,circle
0.0,8.0,4.0,1,5.0,0.0,,3.0,phase_2,stop,600.0,450.0,4.0,,,,,,,,,gray,line
0.0,8.0,4.0,1,5.0,0.0,,3.0,phase_2,stop,650.0,450.0,4.0,,,,,,,,,gray,line
0.0,5.0,1.0,0,6.0,6.0,684.7121715549999,3.0,phase_2,go,650.0,450.0,1.0,,,,,,,,,cyan,cross
0.0,7.0,3.0,1,6.0,0.0,,3.0,phase_2,stop,650.0,500.0,4.0,,,,,,,,,orange,circle
0.0,5.0,1.0,0,6.0,0.0,,3.0,phase_2,go,650.0,500.0,5.0,,,,,,,,,cyan,cross
0.0,7.0,3.0,1,5.0,0.0,,3.0,phase_2,stop,700.0,500.0,4.0,,,,,,,,,orange,circle
0.0,6.0,2.0,1,5.0,5.0,868.072986603,3.0,phase_2,stop,750.0,500.0,3.0,,,,,,,,,blue,square
0.0,8.0,4.0,1,5.0,0.0,,3.0,phase_2,stop,700.0,500.0,4.0,,,,,,,,,gray,line
0.0,7.0,3.0,1,6.0,6.0,600.968837738,3.0,phase_2,stop,700.0,550.0,3.0,,,,,,,,,orange,circle
0.0,5.0,1.0,0,5.0,5.0,817.944049835,3.0,phase_2,go,700.0,550.0,1.0,,,,,,,,,cyan,cross
0.0,3.0,3.0,0,6.0,6.0,901.678085327,3.0,phase_2,go,700.0,550.0,1.0,,,,,,,,,magenta,diamond
0.0,4.0,4.0,0,5.0,0.0,,3.0,phase_2,go,700.0,550.0,5.0,,,,,,,,,white,triangle
0.0,1.0,1.0,1,6.0,6.0,634.206056595,3.0,phase_2,go,700.0,550.0,1.0,,,,,,,,,yellow,hexagon
0.0,4.0,4.0,0,5.0,5.0,701.2410163879999,3.0,phase_2,go,700.0,550.0,1.0,,,,,,,,,white,triangle
0.0,5.0,1.0,0,5.0,5.0,650.790929794,3.0,phase_2,go,700.0,550.0,1.0,,,,,,,,,cyan,cross
0.0,8.0,4.0,1,6.0,6.0,667.960166931,3.0,phase_2,stop,700.0,500.0,3.0,,,,,,,,,gray,line
0.0,6.0,2.0,1,6.0,0.0,,3.0,phase_2,stop,700.0,450.0,4.0,,,,,,,,,blue,square
0.0,3.0,3.0,0,5.0,5.0,450.613021851,4.0,phase_2,go,700.0,450.0,1.0,,,,,,,,,magenta,diamond
0.0,8.0,4.0,1,6.0,6.0,534.152984619,4.0,phase_2,go,700.0,450.0,1.0,,,,,,,,,gray,line
0.0,4.0,4.0,0,6.0,6.0,434.056997299,4.0,phase_2,go,700.0,450.0,1.0,,,,,,,,,white,triangle
0.0,1.0,1.0,1,6.0,6.0,467.370033264,4.0,phase_2,stop,700.0,500.0,3.0,,,,,,,,,yellow,hexagon
0.0,4.0,4.0,0,5.0,5.0,901.540994644,4.0,phase_2,go,700.0,500.0,1.0,,,,,,,,,white,triangle
0.0,7.0,3.0,1,6.0,6.0,434.512138367,4.0,phase_2,stop,700.0,450.0,3.0,,,,,,,,,orange,circle
0.0,3.0,3.0,0,5.0,5.0,634.2928409579999,4.0,phase_2,go,700.0,450.0,1.0,,,,,,,,,magenta,diamond
0.0,7.0,3.0,1,5.0,5.0,417.61493682900004,4.0,phase_2,stop,750.0,450.0,3.0,,,,,,,,,orange,circle
0.0,8.0,4.0,1,6.0,6.0,501.713037491,4.0,phase_2,stop,750.0,400.0,3.0,,,,,,,,,gray,line
0.0,8.0,4.0,1,6.0,0.0,,4.0,phase_2,stop,750.0,350.0,4.0,,,,,,,,,gray,line
0.0,5.0,1.0,0,6.0,6.0,734.545946121,4.0,phase_2,go,750.0,350.0,1.0,,,,,,,,,cyan,cross
0.0,1.0,1.0,1,5.0,5.0,834.610939026,4.0,phase_2,stop,700.0,350.0,3.0,,,,,,,,,yellow,hexagon
0.0,5.0,1.0,0,5.0,5.0,734.42697525,4.0,phase_2,go,700.0,350.0,1.0,,,,,,,,,cyan,cross
0.0,1.0,1.0,1,5.0,5.0,634.179830551,4.0,phase_2,stop,650.0,350.0,3.0,,,,,,,,,yellow,hexagon
0.0,4.0,4.0,0,5.0,6.0,901.672840118,4.0,phase_2,go,650.0,350.0,2.0,,,,,,,,,white,triangle
0.0,4.0,4.0,0,5.0,5.0,717.60392189,4.0,phase_2,go,650.0,350.0,1.0,,,,,,,,,white,triangle
0.0,4.0,4.0,0,5.0,5.0,884.7029209140001,4.0,phase_2,go,650.0,350.0,1.0,,,,,,,,,white,triangle
0.0,7.0,3.0,1,6.0,6.0,534.1589450839999,4.0,phase_2,stop,650.0,400.0,3.0,,,,,,,,,orange,circle
0.0,4.0,4.0,0,6.0,0.0,,4.0,phase_2,go,650.0,400.0,5.0,,,,,,,,,white,triangle
0.0,2.0,2.0,0,6.0,6.0,901.369810104,4.0,phase_2,go,650.0,400.0,1.0,,,,,,,,,green,flipped triangle
0.0,4.0,4.0,0,5.0,5.0,367.02299117999996,4.0,phase_2,go,650.0,400.0,1.0,,,,,,,,,white,triangle
0.0,5.0,1.0,0,5.0,5.0,685.154914856,4.0,phase_2,go,650.0,400.0,1.0,,,,,,,,,cyan,cross
0.0,2.0,2.0,0,6.0,6.0,667.7649021149999,4.0,phase_2,go,650.0,400.0,1.0,,,,,,,,,green,flipped triangle
0.0,7.0,3.0,1,6.0,0.0,,4.0,phase_2,stop,650.0,350.0,4.0,,,,,,,,,orange,circle
0.0,2.0,2.0,0,5.0,0.0,,4.0,phase_2,go,650.0,350.0,5.0,,,,,,,,,green,flipped triangle
0.0,4.0,4.0,0,5.0,5.0,700.6199359889999,4.0,phase_2,go,650.0,350.0,1.0,,,,,,,,,white,triangle
0.0,4.0,4.0,0,5.0,5.0,550.930023193,4.0,phase_2,go,650.0,350.0,1.0,,,,,,,,,white,triangle
0.0,8.0,4.0,1,5.0,5.0,801.760911942,4.0,phase_2,stop,600.0,350.0,3.0,,,,,,,,,gray,line
0.0,5.0,1.0,0,6.0,6.0,851.016044617,4.0,phase_2,go,600.0,350.0,1.0,,,,,,,,,cyan,cross
0.0,3.0,3.0,0,6.0,6.0,650.738954544,4.0,phase_2,go,600.0,350.0,1.0,,,,,,,,,magenta,diamond
0.0,7.0,3.0,1,6.0,0.0,,4.0,phase_2,stop,600.0,400.0,4.0,,,,,,,,,orange,circle
0.0,4.0,4.0,0,6.0,6.0,684.43608284,4.0,phase_2,go,600.0,400.0,1.0,,,,,,,,,white,triangle
0.0,3.0,3.0,0,6.0,6.0,767.3749923710001,4.0,phase_2,go,600.0,400.0,1.0,,,,,,,,,magenta,diamond
0.0,5.0,1.0,0,5.0,5.0,751.389026642,4.0,phase_2,go,600.0,400.0,1.0,,,,,,,,,cyan,cross
0.0,4.0,4.0,0,6.0,6.0,767.153024673,4.0,phase_2,go,600.0,400.0,1.0,,,,,,,,,white,triangle
0.0,4.0,4.0,0,5.0,5.0,684.901952744,4.0,phase_2,go,600.0,400.0,1.0,,,,,,,,,white,triangle
0.0,3.0,3.0,0,5.0,5.0,584.758043289,5.0,phase_2,go,600.0,400.0,1.0,,,,,,,,,magenta,diamond
0.0,2.0,2.0,0,6.0,0.0,,5.0,phase_2,go,600.0,400.0,5.0,,,,,,,,,green,flipped triangle
0.0,5.0,1.0,0,5.0,5.0,684.731006622,5.0,phase_2,go,600.0,400.0,1.0,,,,,,,,,cyan,cross
0.0,8.0,4.0,1,6.0,6.0,701.339006424,5.0,phase_2,go,600.0,400.0,1.0,,,,,,,,,gray,line
0.0,1.0,1.0,1,5.0,5.0,634.3479156489999,5.0,phase_2,go,600.0,400.0,1.0,,,,,,,,,yellow,hexagon
0.0,3.0,3.0,0,5.0,5.0,734.326839447,5.0,phase_2,go,600.0,400.0,1.0,,,,,,,,,magenta,diamond
0.0,3.0,3.0,0,6.0,6.0,734.1580390930001,5.0,phase_2,go,600.0,400.0,1.0,,,,,,,,,magenta,diamond
0.0,6.0,2.0,1,6.0,6.0,834.07998085,5.0,phase_2,go,600.0,400.0,1.0,,,,,,,,,blue,square
0.0,7.0,3.0,1,6.0,0.0,,5.0,phase_2,go,600.0,400.0,5.0,,,,,,,,,orange,circle
0.0,5.0,1.0,0,6.0,6.0,767.866134644,5.0,phase_2,go,600.0,400.0,1.0,,,,,,,,,cyan,cross
0.0,7.0,3.0,1,6.0,0.0,,5.0,phase_2,stop,600.0,450.0,4.0,,,,,,,,,orange,circle
0.0,8.0,4.0,1,5.0,5.0,850.882053375,5.0,phase_2,go,600.0,450.0,1.0,,,,,,,,,gray,line
0.0,3.0,3.0,0,5.0,5.0,850.982904434,5.0,phase_2,go,600.0,450.0,1.0,,,,,,,,,magenta,diamond
0.0,3.0,3.0,0,5.0,5.0,701.635122299,5.0,phase_2,go,600.0,450.0,1.0,,,,,,,,,magenta,diamond
0.0,7.0,3.0,1,5.0,5.0,600.8520126340001,5.0,phase_2,stop,550.0,450.0,3.0,,,,,,,,,orange,circle
0.0,5.0,1.0,0,5.0,5.0,717.988967896,5.0,phase_2,go,550.0,450.0,1.0,,,,,,,,,cyan,cross
0.0,3.0,3.0,0,5.0,5.0,717.729091644,5.0,phase_2,go,550.0,450.0,1.0,,,,,,,,,magenta,diamond
0.0,1.0,1.0,1,6.0,0.0,,5.0,phase_2,stop,550.0,500.0,4.0,,,,,,,,,yellow,hexagon
0.0,1.0,1.0,1,6.0,0.0,,5.0,phase_2,stop,550.0,550.0,4.0,,,,,,,,,yellow,hexagon
0.0,3.0,3.0,0,5.0,0.0,,5.0,phase_2,go,550.0,550.0,5.0,,,,,,,,,magenta,diamond
0.0,8.0,4.0,1,6.0,0.0,,5.0,phase_2,stop,550.0,600.0,4.0,,,,,,,,,gray,line
0.0,2.0,2.0,0,6.0,6.0,884.374856949,5.0,phase_2,go,550.0,600.0,1.0,,,,,,,,,green,flipped triangle
0.0,6.0,2.0,1,6.0,6.0,801.525115967,5.0,phase_2,go,550.0,600.0,1.0,,,,,,,,,blue,square
0.0,1.0,1.0,1,6.0,6.0,818.307876587,5.0,phase_2,stop,550.0,650.0,3.0,,,,,,,,,yellow,hexagon
0.0,1.0,1.0,1,6.0,0.0,,5.0,phase_2,stop,550.0,600.0,4.0,,,,,,,,,yellow,hexagon
0.0,7.0,3.0,1,6.0,0.0,,5.0,phase_2,stop,550.0,650.0,4.0,,,,,,,,,orange,circle
0.0,5.0,1.0,0,5.0,5.0,784.625053406,5.0,phase_2,go,550.0,650.0,1.0,,,,,,,,,cyan,cross
0.0,1.0,1.0,1,5.0,0.0,,5.0,phase_2,stop,500.0,650.0,4.0,,,,,,,,,yellow,hexagon
0.0,2.0,2.0,0,5.0,5.0,867.86699295,5.0,phase_2,go,500.0,650.0,1.0,,,,,,,,,green,flipped triangle
0.0,1.0,1.0,1,5.0,0.0,,5.0,phase_2,stop,550.0,650.0,4.0,,,,,,,,,yellow,hexagon
0.0,7.0,3.0,1,5.0,0.0,,5.0,phase_2,go,550.0,650.0,5.0,,,,,,,,,orange,circle
0.0,8.0,4.0,1,6.0,6.0,867.8979873659999,5.0,phase_2,stop,550.0,700.0,3.0,,,,,,,,,gray,line
0.0,2.0,2.0,0,6.0,0.0,,5.0,phase_2,go,550.0,700.0,5.0,,,,,,,,,green,flipped triangle
0.0,7.0,3.0,1,6.0,0.0,,5.0,phase_2,stop,550.0,650.0,4.0,,,,,,,,,orange,circle
0.0,2.0,2.0,0,5.0,5.0,868.2470321659999,5.0,phase_2,go,550.0,650.0,1.0,,,,,,,,,green,flipped triangle
0.0,3.0,3.0,0,5.0,5.0,750.987768173,5.0,phase_2,go,550.0,650.0,1.0,,,,,,,,,magenta,diamond
0.0,2.0,2.0,0,5.0,5.0,618.1910037990001,6.0,phase_2,go,550.0,650.0,1.0,,,,,,,,,green,flipped triangle
0.0,2.0,2.0,0,6.0,6.0,383.88085365300003,6.0,phase_2,go,550.0,650.0,1.0,,,,,,,,,green,flipped triangle
0.0,8.0,4.0,1,6.0,6.0,467.46802329999997,6.0,phase_2,stop,550.0,700.0,3.0,,,,,,,,,gray,line
0.0,1.0,1.0,1,5.0,5.0,468.209028244,6.0,phase_2,stop,600.0,700.0,3.0,,,,,,,,,yellow,hexagon
0.0,2.0,2.0,0,5.0,5.0,751.4481544490001,6.0,phase_2,go,600.0,700.0,1.0,,,,,,,,,green,flipped triangle
0.0,1.0,1.0,1,5.0,5.0,484.760046005,6.0,phase_2,stop,550.0,700.0,3.0,,,,,,,,,yellow,hexagon
0.0,4.0,4.0,0,6.0,6.0,801.303863525,6.0,phase_2,go,550.0,700.0,1.0,,,,,,,,,white,triangle
0.0,1.0,1.0,1,5.0,5.0,601.0510921480001,6.0,phase_2,stop,500.0,700.0,3.0,,,,,,,,,yellow,hexagon
0.0,5.0,1.0,0,5.0,5.0,567.955970764,6.0,phase_2,go,500.0,700.0,1.0,,,,,,,,,cyan,cross
0.0,7.0,3.0,1,6.0,6.0,601.071119308,6.0,phase_2,stop,500.0,650.0,3.0,,,,,,,,,orange,circle
0.0,4.0,4.0,0,6.0,6.0,684.790849686,6.0,phase_2,go,500.0,650.0,1.0,,,,,,,,,white,triangle
0.0,6.0,2.0,1,6.0,6.0,734.575986862,6.0,phase_2,stop,500.0,600.0,3.0,,,,,,,,,blue,square
0.0,5.0,1.0,0,5.0,5.0,768.051862717,6.0,phase_2,go,500.0,600.0,1.0,,,,,,,,,cyan,cross
0.0,8.0,4.0,1,6.0,6.0,851.703882217,6.0,phase_2,go,500.0,600.0,1.0,,,,,,,,,gray,line
0.0,6.0,2.0,1,5.0,0.0,,6.0,phase_2,stop,450.0,600.0,4.0,,,,,,,,,blue,square
0.0,6.0,2.0,1,5.0,0.0,,6.0,phase_2,stop,500.0,600.0,4.0,,,,,,,,,blue,square
0.0,1.0,1.0,1,6.0,6.0,701.154947281,6.0,phase_2,stop,500.0,550.0,3.0,,,,,,,,,yellow,hexagon
0.0,4.0,4.0,0,5.0,5.0,650.902986526,6.0,phase_2,go,500.0,550.0,1.0,,,,,,,,,white,triangle
0.0,7.0,3.0,1,6.0,6.0,901.115894318,6.0,phase_2,go,500.0,550.0,1.0,,,,,,,,,orange,circle
0.0,5.0,1.0,0,5.0,5.0,800.761938095,6.0,phase_2,go,500.0,550.0,1.0,,,,,,,,,cyan,cross
0.0,1.0,1.0,1,5.0,5.0,868.0341243739999,6.0,phase_2,go,500.0,550.0,1.0,,,,,,,,,yellow,hexagon
0.0,3.0,3.0,0,6.0,6.0,567.8191185,6.0,phase_2,go,500.0,550.0,1.0,,,,,,,,,magenta,diamond
0.0,3.0,3.0,0,6.0,6.0,618.389129639,6.0,phase_2,go,500.0,550.0,1.0,,,,,,,,,magenta,diamond
0.0,2.0,2.0,0,6.0,6.0,784.399986267,6.0,phase_2,go,500.0,550.0,1.0,,,,,,,,,green,flipped triangle
0.0,1.0,1.0,1,6.0,6.0,567.5899982450001,6.0,phase_2,go,500.0,550.0,1.0,,,,,,,,,yellow,hexagon
0.0,6.0,2.0,1,6.0,0.0,,6.0,phase_2,stop,500.0,500.0,4.0,,,,,,,,,blue,square
0.0,6.0,2.0,1,6.0,0.0,,6.0,phase_2,stop,500.0,550.0,4.0,,,,,,,,,blue,square
0.0,1.0,1.0,1,5.0,0.0,,6.0,phase_2,stop,550.0,550.0,4.0,,,,,,,,,yellow,hexagon
0.0,8.0,4.0,1,5.0,5.0,718.1169986719999,6.0,phase_2,stop,600.0,550.0,3.0,,,,,,,,,gray,line
0.0,1.0,1.0,1,5.0,5.0,901.186943054,6.0,phase_2,go,600.0,550.0,1.0,,,,,,,,,yellow,hexagon
0.0,8.0,4.0,1,6.0,6.0,734.3051433559999,6.0,phase_2,stop,600.0,600.0,3.0,,,,,,,,,gray,line
0.0,1.0,1.0,1,5.0,0.0,,6.0,phase_2,stop,550.0,600.0,4.0,,,,,,,,,yellow,hexagon
0.0,8.0,4.0,1,5.0,0.0,,6.0,phase_2,stop,600.0,600.0,4.0,,,,,,,,,gray,line
0.0,8.0,4.0,1,6.0,0.0,,6.0,phase_2,stop,600.0,550.0,4.0,,,,,,,,,gray,line
0.0,6.0,2.0,1,5.0,5.0,717.750072479,6.0,phase_2,go,600.0,550.0,1.0,,,,,,,,,blue,square
0.0,3.0,3.0,0,6.0,6.0,784.088134766,6.0,phase_2,go,600.0,550.0,1.0,,,,,,,,,magenta,diamond
0.0,4.0,4.0,0,6.0,6.0,633.941173553,7.0,phase_2,go,600.0,550.0,1.0,,,,,,,,,white,triangle
0.0,6.0,2.0,1,6.0,6.0,517.621040344,7.0,phase_2,stop,600.0,600.0,3.0,,,,,,,,,blue,square
0.0,7.0,3.0,1,6.0,0.0,,7.0,phase_2,stop,600.0,550.0,4.0,,,,,,,,,orange,circle
0.0,6.0,2.0,1,5.0,5.0,735.086917877,7.0,phase_2,stop,650.0,550.0,3.0,,,,,,,,,blue,square
0.0,8.0,4.0,1,5.0,5.0,801.428079605,7.0,phase_2,go,650.0,550.0,1.0,,,,,,,,,gray,line
0.0,5.0,1.0,0,5.0,5.0,500.717163086,7.0,phase_2,go,650.0,550.0,1.0,,,,,,,,,cyan,cross
0.0,4.0,4.0,0,5.0,5.0,417.650938034,7.0,phase_2,go,650.0,550.0,1.0,,,,,,,,,white,triangle
0.0,7.0,3.0,1,5.0,0.0,,7.0,phase_2,stop,600.0,550.0,4.0,,,,,,,,,orange,circle
0.0,2.0,2.0,0,5.0,5.0,884.55414772,7.0,phase_2,go,600.0,550.0,1.0,,,,,,,,,green,flipped triangle
0.0,6.0,2.0,1,5.0,5.0,667.605876923,7.0,phase_2,stop,650.0,550.0,3.0,,,,,,,,,blue,square
0.0,4.0,4.0,0,6.0,0.0,,7.0,phase_2,go,650.0,550.0,5.0,,,,,,,,,white,triangle
0.0,8.0,4.0,1,5.0,0.0,,7.0,phase_2,stop,600.0,550.0,4.0,,,,,,,,,gray,line
0.0,7.0,3.0,1,6.0,6.0,634.8891258240001,7.0,phase_2,go,600.0,550.0,1.0,,,,,,,,,orange,circle
0.0,4.0,4.0,0,6.0,6.0,851.4430522920001,7.0,phase_2,go,600.0,550.0,1.0,,,,,,,,,white,triangle
0.0,5.0,1.0,0,5.0,5.0,851.071119308,7.0,phase_2,go,600.0,550.0,1.0,,,,,,,,,cyan,cross
0.0,2.0,2.0,0,5.0,5.0,901.640892029,7.0,phase_2,go,600.0,550.0,1.0,,,,,,,,,green,flipped triangle
0.0,5.0,1.0,0,5.0,5.0,534.312009811,7.0,phase_2,go,600.0,550.0,1.0,,,,,,,,,cyan,cross
0.0,8.0,4.0,1,6.0,6.0,785.0339412689999,7.0,phase_2,go,600.0,550.0,1.0,,,,,,,,,gray,line
0.0,6.0,2.0,1,5.0,5.0,717.627048492,7.0,phase_2,stop,650.0,550.0,3.0,,,,,,,,,blue,square
0.0,2.0,2.0,0,5.0,5.0,851.362943649,7.0,phase_2,go,650.0,550.0,1.0,,,,,,,,,green,flipped triangle
0.0,4.0,4.0,0,6.0,6.0,634.386062622,7.0,phase_2,go,650.0,550.0,1.0,,,,,,,,,white,triangle
0.0,7.0,3.0,1,6.0,0.0,,7.0,phase_2,stop,650.0,600.0,4.0,,,,,,,,,orange,circle
0.0,7.0,3.0,1,5.0,5.0,784.483909607,7.0,phase_2,go,650.0,600.0,1.0,,,,,,,,,orange,circle
0.0,6.0,2.0,1,6.0,0.0,,7.0,phase_2,stop,650.0,650.0,4.0,,,,,,,,,blue,square
0.0,8.0,4.0,1,5.0,5.0,584.163188934,7.0,phase_2,stop,600.0,650.0,3.0,,,,,,,,,gray,line
0.0,5.0,1.0,0,6.0,0.0,,7.0,phase_2,go,600.0,650.0,5.0,,,,,,,,,cyan,cross
0.0,5.0,1.0,0,6.0,6.0,551.081895828,7.0,phase_2,go,600.0,650.0,1.0,,,,,,,,,cyan,cross
0.0,5.0,1.0,0,6.0,6.0,650.810003281,7.0,phase_2,go,600.0,650.0,1.0,,,,,,,,,cyan,cross
0.0,3.0,3.0,0,6.0,6.0,818.057060242,7.0,phase_2,go,600.0,650.0,1.0,,,,,,,,,magenta,diamond
0.0,2.0,2.0,0,5.0,5.0,501.39403343199996,7.0,phase_2,go,600.0,650.0,1.0,,,,,,,,,green,flipped triangle
0.0,6.0,2.0,1,6.0,6.0,367.27786064099996,7.0,phase_2,go,600.0,650.0,1.0,,,,,,,,,blue,square
0.0,6.0,2.0,1,6.0,6.0,600.8870601650001,7.0,phase_2,stop,600.0,700.0,3.0,,,,,,,,,blue,square
0.0,6.0,2.0,1,5.0,5.0,683.9349269869999,7.0,phase_2,go,600.0,700.0,1.0,,,,,,,,,blue,square
0.0,4.0,4.0,0,6.0,6.0,617.8870201110001,7.0,phase_2,go,600.0,700.0,1.0,,,,,,,,,white,triangle
0.0,1.0,1.0,1,5.0,5.0,717.772006989,7.0,phase_2,stop,550.0,700.0,3.0,,,,,,,,,yellow,hexagon
0.0,7.0,3.0,1,6.0,6.0,951.2109756469999,7.0,phase_2,go,550.0,700.0,1.0,,,,,,,,,orange,circle
0.0,2.0,2.0,0,6.0,6.0,834.787130356,8.0,phase_2,go,550.0,700.0,1.0,,,,,,,,,green,flipped triangle
0.0,3.0,3.0,0,6.0,6.0,634.2370510100001,8.0,phase_2,go,550.0,700.0,1.0,,,,,,,,,magenta,diamond
0.0,4.0,4.0,0,5.0,5.0,818.18985939,8.0,phase_2,go,550.0,700.0,1.0,,,,,,,,,white,triangle
0.0,6.0,2.0,1,5.0,5.0,734.803199768,8.0,phase_2,stop,500.0,700.0,3.0,,,,,,,,,blue,square
0.0,4.0,4.0,0,5.0,5.0,767.9669857030001,8.0,phase_2,go,500.0,700.0,1.0,,,,,,,,,white,triangle
0.0,5.0,1.0,0,5.0,5.0,867.8789138789999,8.0,phase_2,go,500.0,700.0,1.0,,,,,,,,,cyan,cross
0.0,8.0,4.0,1,6.0,6.0,735.14509201,8.0,phase_2,stop,500.0,650.0,3.0,,,,,,,,,gray,line
0.0,3.0,3.0,0,6.0,0.0,,8.0,phase_2,go,500.0,650.0,5.0,,,,,,,,,magenta,diamond
0.0,7.0,3.0,1,6.0,6.0,433.85887146000005,8.0,phase_2,stop,500.0,600.0,3.0,,,,,,,,,orange,circle
0.0,3.0,3.0,0,6.0,6.0,650.413036346,8.0,phase_2,go,500.0,600.0,1.0,,,,,,,,,magenta,diamond
0.0,3.0,3.0,0,6.0,6.0,768.056869507,8.0,phase_2,go,500.0,600.0,1.0,,,,,,,,,magenta,diamond
0.0,2.0,2.0,0,5.0,5.0,684.459209442,8.0,phase_2,go,500.0,600.0,1.0,,,,,,,,,green,flipped triangle
0.0,4.0,4.0,0,5.0,5.0,684.870004654,8.0,phase_2,go,500.0,600.0,1.0,,,,,,,,,white,triangle
0.0,2.0,2.0,0,6.0,6.0,700.920820236,8.0,phase_2,go,500.0,600.0,1.0,,,,,,,,,green,flipped triangle
0.0,3.0,3.0,0,5.0,5.0,651.076078415,8.0,phase_2,go,500.0,600.0,1.0,,,,,,,,,magenta,diamond
0.0,2.0,2.0,0,6.0,6.0,717.784166336,8.0,phase_2,go,500.0,600.0,1.0,,,,,,,,,green,flipped triangle
0.0,2.0,2.0,0,5.0,5.0,750.908851624,8.0,phase_2,go,500.0,600.0,1.0,,,,,,,,,green,flipped triangle
0.0,1.0,1.0,1,6.0,0.0,,8.0,phase_2,stop,500.0,550.0,4.0,,,,,,,,,yellow,hexagon
0.0,6.0,2.0,1,5.0,0.0,,8.0,phase_2,stop,450.0,550.0,4.0,,,,,,,,,blue,square
0.0,7.0,3.0,1,6.0,6.0,701.553106308,8.0,phase_2,stop,450.0,600.0,3.0,,,,,,,,,orange,circle
0.0,7.0,3.0,1,5.0,0.0,,8.0,phase_2,stop,500.0,600.0,4.0,,,,,,,,,orange,circle
0.0,2.0,2.0,0,5.0,5.0,651.188135147,8.0,phase_2,go,500.0,600.0,1.0,,,,,,,,,green,flipped triangle
0.0,3.0,3.0,0,5.0,5.0,800.988912582,8.0,phase_2,go,500.0,600.0,1.0,,,,,,,,,magenta,diamond
0.0,6.0,2.0,1,5.0,0.0,,8.0,phase_2,stop,550.0,600.0,4.0,,,,,,,,,blue,square
0.0,7.0,3.0,1,6.0,0.0,,8.0,phase_2,stop,550.0,550.0,4.0,,,,,,,,,orange,circle
0.0,2.0,2.0,0,5.0,5.0,917.931079865,8.0,phase_2,go,550.0,550.0,1.0,,,,,,,,,green,flipped triangle
0.0,8.0,4.0,1,5.0,0.0,,8.0,phase_2,stop,600.0,550.0,4.0,,,,,,,,,gray,line
0.0,3.0,3.0,0,6.0,6.0,818.300008774,8.0,phase_2,go,600.0,550.0,1.0,,,,,,,,,magenta,diamond
0.0,5.0,1.0,0,5.0,5.0,801.56493187,8.0,phase_2,go,600.0,550.0,1.0,,,,,,,,,cyan,cross
0.0,8.0,4.0,1,6.0,0.0,,8.0,phase_2,stop,600.0,600.0,4.0,,,,,,,,,gray,line
0.0,5.0,1.0,0,6.0,0.0,,8.0,phase_2,go,600.0,600.0,5.0,,,,,,,,,cyan,cross
0.0,6.0,2.0,1,6.0,6.0,600.9309291840001,8.0,phase_2,stop,600.0,650.0,3.0,,,,,,,,,blue,square
0.0,5.0,1.0,0,6.0,6.0,718.113899231,8.0,phase_2,go,600.0,650.0,1.0,,,,,,,,,cyan,cross
0.0,2.0,2.0,0,5.0,5.0,750.7579326629999,8.0,phase_2,go,600.0,650.0,1.0,,,,,,,,,green,flipped triangle
0.0,8.0,4.0,1,5.0,5.0,784.5890522,8.0,phase_2,stop,650.0,650.0,3.0,,,,,,,,,gray,line
0.0,3.0,3.0,0,6.0,6.0,851.614952087,8.0,phase_2,go,650.0,650.0,1.0,,,,,,,,,magenta,diamond
0.0,5.0,1.0,0,7.0,,,1.0,phase_3,,,,,0.0,,117.0,156.0,39.0,234.0,78.0,195.0,cyan,cross
0.0,8.0,4.0,1,7.0,,,1.0,phase_3,,,,,0.0,,162.0,108.0,216.0,54.0,270.0,324.0,gray,line
0.0,5.0,1.0,0,7.0,,,1.0,phase_3,,,,,0.0,,234.0,156.0,78.0,195.0,39.0,117.0,cyan,cross
0.0,7.0,3.0,1,7.0,5.0,3087.10098267,1.0,phase_3,,,,,108.0,2.0,216.0,54.0,162.0,270.0,108.0,324.0,orange,circle
0.0,5.0,1.0,0,7.0,6.0,2002.2480487799999,1.0,phase_3,,,,,132.0,3.0,264.0,88.0,44.0,220.0,176.0,132.0,cyan,cross
0.0,7.0,3.0,1,7.0,3.0,2202.27098465,1.0,phase_3,,,,,162.0,3.0,108.0,54.0,162.0,324.0,270.0,216.0,orange,circle
0.0,8.0,4.0,1,7.0,4.0,1819.00191307,1.0,phase_3,,,,,108.0,2.0,324.0,162.0,54.0,108.0,216.0,270.0,gray,line
0.0,8.0,4.0,1,7.0,6.0,1318.32909584,1.0,phase_3,,,,,102.0,3.0,170.0,34.0,204.0,136.0,68.0,102.0,gray,line
0.0,1.0,1.0,1,7.0,4.0,2185.86397171,1.0,phase_3,,,,,102.0,3.0,34.0,68.0,204.0,102.0,170.0,136.0,yellow,hexagon
0.0,7.0,3.0,1,7.0,4.0,2052.77299881,1.0,phase_3,,,,,98.0,2.0,147.0,245.0,49.0,98.0,294.0,196.0,orange,circle
0.0,7.0,3.0,1,7.0,,,1.0,phase_3,,,,,0.0,,294.0,245.0,196.0,49.0,98.0,147.0,orange,circle
0.0,4.0,4.0,0,7.0,4.0,4271.84700966,1.0,phase_3,,,,,98.0,2.0,245.0,196.0,294.0,98.0,147.0,49.0,white,triangle
0.0,1.0,1.0,1,7.0,5.0,3454.3089866600003,1.0,phase_3,,,,,162.0,3.0,108.0,216.0,54.0,324.0,162.0,270.0,yellow,hexagon
0.0,6.0,2.0,1,7.0,4.0,2152.37402916,1.0,phase_3,,,,,108.0,2.0,162.0,54.0,324.0,108.0,270.0,216.0,blue,square
0.0,6.0,2.0,1,7.0,5.0,3654.0701389299998,1.0,phase_3,,,,,117.0,3.0,39.0,234.0,156.0,78.0,117.0,195.0,blue,square
0.0,7.0,3.0,1,7.0,1.0,3754.58598137,1.0,phase_3,,,,,136.0,4.0,136.0,204.0,34.0,68.0,102.0,170.0,orange,circle
0.0,3.0,3.0,0,7.0,1.0,3737.3251915,1.0,phase_3,,,,,132.0,3.0,132.0,220.0,264.0,176.0,44.0,88.0,magenta,diamond
0.0,6.0,2.0,1,7.0,3.0,3671.35691643,1.0,phase_3,,,,,132.0,3.0,88.0,264.0,132.0,176.0,44.0,220.0,blue,square
0.0,8.0,4.0,1,7.0,3.0,2686.68889999,1.0,phase_3,,,,,147.0,3.0,294.0,196.0,147.0,49.0,98.0,245.0,gray,line
0.0,4.0,4.0,0,7.0,2.0,4021.61002159,1.0,phase_3,,,,,195.0,5.0,78.0,195.0,156.0,234.0,39.0,117.0,white,triangle
0.0,1.0,1.0,1,7.0,6.0,2285.56203842,2.0,phase_3,,,,,147.0,3.0,294.0,98.0,245.0,49.0,196.0,147.0,yellow,hexagon
0.0,1.0,1.0,1,7.0,6.0,3370.7549572,2.0,phase_3,,,,,156.0,4.0,117.0,39.0,195.0,78.0,234.0,156.0,yellow,hexagon
0.0,8.0,4.0,1,7.0,1.0,2936.56301498,2.0,phase_3,,,,,196.0,4.0,196.0,245.0,98.0,294.0,49.0,147.0,gray,line
0.0,5.0,1.0,0,7.0,2.0,2836.07292175,2.0,phase_3,,,,,216.0,4.0,162.0,216.0,270.0,54.0,108.0,324.0,cyan,cross
0.0,8.0,4.0,1,7.0,3.0,2469.18606758,2.0,phase_3,,,,,176.0,4.0,88.0,264.0,176.0,220.0,132.0,44.0,gray,line
0.0,1.0,1.0,1,7.0,3.0,2953.0470371200004,2.0,phase_3,,,,,170.0,5.0,136.0,102.0,170.0,68.0,34.0,204.0,yellow,hexagon
0.0,2.0,2.0,0,7.0,6.0,3471.09007835,2.0,phase_3,,,,,102.0,3.0,204.0,136.0,34.0,170.0,68.0,102.0,green,flipped triangle
0.0,6.0,2.0,1,7.0,1.0,3203.79495621,2.0,phase_3,,,,,162.0,3.0,162.0,216.0,324.0,54.0,270.0,108.0,blue,square
0.0,3.0,3.0,0,7.0,6.0,3370.58901787,2.0,phase_3,,,,,176.0,4.0,132.0,88.0,264.0,220.0,44.0,176.0,magenta,diamond
0.0,1.0,1.0,1,7.0,6.0,3337.45503426,2.0,phase_3,,,,,176.0,4.0,220.0,264.0,132.0,88.0,44.0,176.0,yellow,hexagon
0.0,5.0,1.0,0,7.0,5.0,3120.29314041,2.0,phase_3,,,,,176.0,4.0,88.0,264.0,220.0,132.0,176.0,44.0,cyan,cross
0.0,2.0,2.0,0,7.0,3.0,3903.76710892,2.0,phase_3,,,,,156.0,4.0,195.0,39.0,156.0,78.0,117.0,234.0,green,flipped triangle
0.0,6.0,2.0,1,7.0,4.0,3737.29610443,2.0,phase_3,,,,,245.0,5.0,196.0,49.0,147.0,245.0,98.0,294.0,blue,square
0.0,3.0,3.0,0,7.0,2.0,2969.94590759,2.0,phase_3,,,,,117.0,3.0,234.0,117.0,156.0,195.0,78.0,39.0,magenta,diamond
0.0,4.0,4.0,0,7.0,3.0,2152.52399445,2.0,phase_3,,,,,156.0,4.0,234.0,78.0,156.0,39.0,195.0,117.0,white,triangle
0.0,3.0,3.0,0,7.0,2.0,2486.62281036,2.0,phase_3,,,,,196.0,4.0,98.0,196.0,245.0,294.0,49.0,147.0,magenta,diamond
0.0,7.0,3.0,1,7.0,3.0,2636.7127895400004,2.0,phase_3,,,,,176.0,4.0,88.0,44.0,176.0,132.0,264.0,220.0,orange,circle
0.0,7.0,3.0,1,7.0,3.0,2035.5079174,2.0,phase_3,,,,,117.0,3.0,78.0,195.0,117.0,156.0,39.0,234.0,orange,circle
0.0,7.0,3.0,1,7.0,3.0,3487.33901978,2.0,phase_3,,,,,176.0,4.0,44.0,132.0,176.0,88.0,264.0,220.0,orange,circle
0.0,2.0,2.0,0,7.0,6.0,3437.23487854,2.0,phase_3,,,,,117.0,3.0,195.0,78.0,39.0,234.0,156.0,117.0,green,flipped triangle
0.0,2.0,2.0,0,7.0,4.0,1668.6270237,3.0,phase_3,,,,,176.0,4.0,88.0,132.0,264.0,176.0,44.0,220.0,green,flipped triangle
0.0,2.0,2.0,0,7.0,3.0,3670.86100578,3.0,phase_3,,,,,196.0,4.0,294.0,245.0,196.0,49.0,147.0,98.0,green,flipped triangle
0.0,4.0,4.0,0,7.0,5.0,2285.65692902,3.0,phase_3,,,,,170.0,5.0,34.0,204.0,136.0,102.0,170.0,68.0,white,triangle
0.0,6.0,2.0,1,7.0,2.0,2019.1090106999998,3.0,phase_3,,,,,170.0,5.0,102.0,170.0,204.0,136.0,68.0,34.0,blue,square
0.0,7.0,3.0,1,7.0,3.0,2586.43221855,3.0,phase_3,,,,,156.0,4.0,39.0,117.0,156.0,78.0,234.0,195.0,orange,circle
0.0,1.0,1.0,1,7.0,6.0,1802.0949363700001,3.0,phase_3,,,,,176.0,4.0,264.0,88.0,132.0,220.0,44.0,176.0,yellow,hexagon
0.0,1.0,1.0,1,7.0,4.0,2369.2541122400003,3.0,phase_3,,,,,147.0,3.0,245.0,294.0,98.0,147.0,196.0,49.0,yellow,hexagon
0.0,4.0,4.0,0,7.0,3.0,1735.6698513,3.0,phase_3,,,,,136.0,4.0,204.0,102.0,136.0,170.0,34.0,68.0,white,triangle
0.0,2.0,2.0,0,7.0,5.0,2553.2760620100003,3.0,phase_3,,,,,147.0,3.0,196.0,98.0,294.0,245.0,147.0,49.0,green,flipped triangle
0.0,1.0,1.0,1,7.0,5.0,2202.47197151,3.0,phase_3,,,,,156.0,4.0,195.0,39.0,78.0,117.0,156.0,234.0,yellow,hexagon
0.0,5.0,1.0,0,7.0,5.0,2218.97315979,3.0,phase_3,,,,,170.0,5.0,102.0,34.0,204.0,136.0,170.0,68.0,cyan,cross
0.0,6.0,2.0,1,7.0,1.0,2569.8590278600004,3.0,phase_3,,,,,176.0,4.0,176.0,132.0,220.0,264.0,88.0,44.0,blue,square
0.0,4.0,4.0,0,7.0,6.0,1885.73598862,3.0,phase_3,,,,,176.0,4.0,132.0,44.0,264.0,220.0,88.0,176.0,white,triangle
0.0,4.0,4.0,0,7.0,2.0,1718.49012375,3.0,phase_3,,,,,176.0,4.0,264.0,176.0,44.0,132.0,88.0,220.0,white,triangle
0.0,3.0,3.0,0,7.0,6.0,1735.16011238,3.0,phase_3,,,,,196.0,4.0,147.0,98.0,49.0,245.0,294.0,196.0,magenta,diamond
0.0,8.0,4.0,1,7.0,1.0,1618.6439991,3.0,phase_3,,,,,156.0,4.0,156.0,234.0,78.0,39.0,195.0,117.0,gray,line
0.0,2.0,2.0,0,7.0,4.0,2886.52801514,3.0,phase_3,,,,,162.0,3.0,216.0,108.0,324.0,162.0,54.0,270.0,green,flipped triangle
0.0,1.0,1.0,1,7.0,4.0,1417.93107986,3.0,phase_3,,,,,162.0,3.0,216.0,270.0,54.0,162.0,108.0,324.0,yellow,hexagon
0.0,5.0,1.0,0,7.0,2.0,1818.99595261,3.0,phase_3,,,,,170.0,5.0,136.0,170.0,204.0,102.0,34.0,68.0,cyan,cross
0.0,5.0,1.0,0,7.0,2.0,2019.67287064,3.0,phase_3,,,,,162.0,3.0,54.0,162.0,108.0,270.0,324.0,216.0,cyan,cross
0.0,5.0,1.0,0,7.0,2.0,1335.0198268899999,4.0,phase_3,,,,,245.0,5.0,196.0,245.0,147.0,294.0,98.0,49.0,cyan,cross
0.0,8.0,4.0,1,7.0,5.0,1385.04004478,4.0,phase_3,,,,,156.0,4.0,78.0,195.0,39.0,117.0,156.0,234.0,gray,line
0.0,3.0,3.0,0,7.0,2.0,1201.7130851699999,4.0,phase_3,,,,,156.0,4.0,234.0,156.0,195.0,39.0,78.0,117.0,magenta,diamond
0.0,8.0,4.0,1,7.0,2.0,2335.8728885699998,4.0,phase_3,,,,,176.0,4.0,132.0,176.0,264.0,44.0,88.0,220.0,gray,line
0.0,3.0,3.0,0,7.0,2.0,1518.7189579,4.0,phase_3,,,,,170.0,5.0,68.0,170.0,204.0,34.0,102.0,136.0,magenta,diamond
0.0,4.0,4.0,0,7.0,1.0,1401.67498589,4.0,phase_3,,,,,147.0,3.0,147.0,245.0,49.0,98.0,196.0,294.0,white,triangle
0.0,2.0,2.0,0,7.0,4.0,2619.05694008,4.0,phase_3,,,,,176.0,4.0,220.0,44.0,132.0,176.0,88.0,264.0,green,flipped triangle
0.0,6.0,2.0,1,7.0,1.0,1685.46390533,4.0,phase_3,,,,,147.0,3.0,147.0,196.0,294.0,245.0,49.0,98.0,blue,square
0.0,6.0,2.0,1,7.0,1.0,1601.96495056,4.0,phase_3,,,,,136.0,4.0,136.0,102.0,34.0,68.0,170.0,204.0,blue,square
0.0,3.0,3.0,0,7.0,6.0,2069.0908432,4.0,phase_3,,,,,162.0,3.0,54.0,108.0,324.0,216.0,270.0,162.0,magenta,diamond
0.0,2.0,2.0,0,7.0,2.0,1568.40395927,4.0,phase_3,,,,,162.0,3.0,108.0,162.0,270.0,324.0,216.0,54.0,green,flipped triangle
0.0,6.0,2.0,1,7.0,6.0,1685.02402306,4.0,phase_3,,,,,156.0,4.0,195.0,234.0,39.0,117.0,78.0,156.0,blue,square
0.0,5.0,1.0,0,7.0,3.0,1918.43914986,4.0,phase_3,,,,,147.0,3.0,98.0,49.0,147.0,196.0,245.0,294.0,cyan,cross
0.0,7.0,3.0,1,7.0,6.0,1285.1040363299999,4.0,phase_3,,,,,136.0,4.0,102.0,170.0,34.0,204.0,68.0,136.0,orange,circle
0.0,3.0,3.0,0,7.0,4.0,2152.59599686,4.0,phase_3,,,,,136.0,4.0,68.0,34.0,204.0,136.0,102.0,170.0,magenta,diamond
0.0,4.0,4.0,0,7.0,6.0,1434.81397629,4.0,phase_3,,,,,162.0,3.0,54.0,108.0,216.0,270.0,324.0,162.0,white,triangle
0.0,2.0,2.0,0,7.0,6.0,1351.90606117,4.0,phase_3,,,,,136.0,4.0,204.0,34.0,102.0,68.0,170.0,136.0,green,flipped triangle
0.0,8.0,4.0,1,7.0,3.0,1468.22690964,4.0,phase_3,,,,,136.0,4.0,68.0,34.0,136.0,170.0,204.0,102.0,gray,line
0.0,3.0,3.0,0,7.0,4.0,2786.22102737,4.0,phase_3,,,,,162.0,3.0,324.0,108.0,216.0,162.0,54.0,270.0,magenta,diamond
0.0,4.0,4.0,0,7.0,1.0,1401.86190605,4.0,phase_3,,,,,162.0,3.0,162.0,108.0,324.0,216.0,270.0,54.0,white,triangle
