stepwise_reward_magnitude,paired_with_stopping,quadrant,response,reaction_time,block,which_part,stop_signal_trial_type,left_SSD,right_SSD,accuracy,chosen_bidding_amount,chosen_bidding_level,possible_bid_1,possible_bid_2,possible_bid_3,possible_bid_4,possible_bid_5,possible_bid_6,color_text,shape_text
4.0,1,1.0,1.0,517.6150798799999,1.0,part_1,,,,,,,,,,,,,magenta,hexagon
1.0,1,2.0,2.0,333.18901062,1.0,part_1,,,,,,,,,,,,,cyan,cross
1.0,1,2.0,2.0,434.593915939,1.0,part_1,,,,,,,,,,,,,cyan,cross
0.5,0,1.0,1.0,367.29717254599996,1.0,part_1,,,,,,,,,,,,,white,line
1.0,1,3.0,3.0,367.69914627099996,1.0,part_1,,,,,,,,,,,,,cyan,cross
0.5,1,3.0,3.0,367.729187012,1.0,part_1,,,,,,,,,,,,,orange,circle
2.0,0,3.0,3.0,350.70705413800005,1.0,part_1,,,,,,,,,,,,,gray,square
2.0,0,1.0,1.0,400.788068771,1.0,part_1,,,,,,,,,,,,,gray,square
1.0,1,3.0,3.0,433.730125427,1.0,part_1,,,,,,,,,,,,,cyan,cross
0.5,0,2.0,2.0,334.52296257,1.0,part_1,,,,,,,,,,,,,white,line
4.0,1,4.0,4.0,383.635044098,1.0,part_1,,,,,,,,,,,,,magenta,hexagon
2.0,1,2.0,2.0,434.470176697,1.0,part_1,,,,,,,,,,,,,green,diamond
2.0,1,3.0,3.0,351.182937622,1.0,part_1,,,,,,,,,,,,,green,diamond
4.0,0,3.0,3.0,384.416818619,1.0,part_1,,,,,,,,,,,,,blue,triangle
4.0,0,4.0,4.0,434.740066528,1.0,part_1,,,,,,,,,,,,,blue,triangle
4.0,1,4.0,4.0,367.92397499099997,1.0,part_1,,,,,,,,,,,,,magenta,hexagon
0.5,0,2.0,2.0,433.805942535,1.0,part_1,,,,,,,,,,,,,white,line
0.5,0,4.0,4.0,350.471973419,1.0,part_1,,,,,,,,,,,,,white,line
2.0,0,2.0,2.0,367.491006851,1.0,part_1,,,,,,,,,,,,,gray,square
1.0,1,3.0,3.0,317.445993423,1.0,part_1,,,,,,,,,,,,,cyan,cross
0.5,1,1.0,1.0,434.586048126,1.0,part_1,,,,,,,,,,,,,orange,circle
4.0,1,2.0,2.0,300.609827042,1.0,part_1,,,,,,,,,,,,,magenta,hexagon
1.0,0,2.0,2.0,334.277153015,1.0,part_1,,,,,,,,,,,,,yellow,flipped triangle
0.5,1,3.0,3.0,367.436885834,1.0,part_1,,,,,,,,,,,,,orange,circle
1.0,0,1.0,1.0,401.304960251,1.0,part_1,,,,,,,,,,,,,yellow,flipped triangle
4.0,1,2.0,2.0,400.727987289,1.0,part_1,,,,,,,,,,,,,magenta,hexagon
2.0,1,1.0,1.0,367.98405647299995,1.0,part_1,,,,,,,,,,,,,green,diamond
2.0,0,1.0,1.0,367.480993271,1.0,part_1,,,,,,,,,,,,,gray,square
2.0,0,1.0,1.0,401.039838791,1.0,part_1,,,,,,,,,,,,,gray,square
2.0,0,2.0,2.0,350.567102432,1.0,part_1,,,,,,,,,,,,,gray,square
2.0,0,4.0,4.0,417.413949966,1.0,part_1,,,,,,,,,,,,,gray,square
4.0,1,1.0,1.0,368.088960648,1.0,part_1,,,,,,,,,,,,,magenta,hexagon
1.0,1,1.0,1.0,401.02314949,1.0,part_1,,,,,,,,,,,,,cyan,cross
1.0,0,4.0,4.0,350.36110878,1.0,part_1,,,,,,,,,,,,,yellow,flipped triangle
4.0,0,1.0,1.0,417.44589805600003,1.0,part_1,,,,,,,,,,,,,blue,triangle
2.0,1,2.0,2.0,418.13993453999996,1.0,part_1,,,,,,,,,,,,,green,diamond
2.0,1,2.0,2.0,384.26899910000003,1.0,part_1,,,,,,,,,,,,,green,diamond
4.0,0,4.0,4.0,350.687980652,1.0,part_1,,,,,,,,,,,,,blue,triangle
1.0,1,4.0,4.0,383.82506370500005,1.0,part_1,,,,,,,,,,,,,cyan,cross
2.0,0,1.0,1.0,351.081848145,1.0,part_1,,,,,,,,,,,,,gray,square
0.5,0,2.0,2.0,417.991161346,1.0,part_1,,,,,,,,,,,,,white,line
4.0,1,1.0,1.0,367.47002601599996,1.0,part_1,,,,,,,,,,,,,magenta,hexagon
1.0,0,4.0,4.0,401.138067245,1.0,part_1,,,,,,,,,,,,,yellow,flipped triangle
0.5,1,3.0,3.0,350.39305687,1.0,part_1,,,,,,,,,,,,,orange,circle
1.0,1,4.0,4.0,350.94690322900004,1.0,part_1,,,,,,,,,,,,,cyan,cross
1.0,0,2.0,2.0,367.49887466399997,1.0,part_1,,,,,,,,,,,,,yellow,flipped triangle
1.0,1,4.0,4.0,367.600917816,1.0,part_1,,,,,,,,,,,,,cyan,cross
4.0,0,1.0,1.0,367.192029953,1.0,part_1,,,,,,,,,,,,,blue,triangle
4.0,0,2.0,2.0,333.943128586,1.0,part_1,,,,,,,,,,,,,blue,triangle
2.0,0,2.0,2.0,367.645978928,1.0,part_1,,,,,,,,,,,,,gray,square
2.0,1,4.0,4.0,367.21777915999996,1.0,part_1,,,,,,,,,,,,,green,diamond
2.0,1,2.0,2.0,317.776918411,1.0,part_1,,,,,,,,,,,,,green,diamond
1.0,1,3.0,3.0,334.287881851,1.0,part_1,,,,,,,,,,,,,cyan,cross
1.0,0,3.0,3.0,317.837953568,1.0,part_1,,,,,,,,,,,,,yellow,flipped triangle
2.0,0,1.0,1.0,367.230892181,1.0,part_1,,,,,,,,,,,,,gray,square
4.0,1,3.0,3.0,400.91586113,1.0,part_1,,,,,,,,,,,,,magenta,hexagon
0.5,0,4.0,4.0,350.74591636699995,1.0,part_1,,,,,,,,,,,,,white,line
4.0,1,1.0,1.0,417.228937149,1.0,part_1,,,,,,,,,,,,,magenta,hexagon
1.0,0,3.0,3.0,384.531974792,1.0,part_1,,,,,,,,,,,,,yellow,flipped triangle
4.0,1,4.0,4.0,417.385101318,1.0,part_1,,,,,,,,,,,,,magenta,hexagon
1.0,0,4.0,4.0,317.043066025,1.0,part_1,,,,,,,,,,,,,yellow,flipped triangle
0.5,1,3.0,3.0,334.282875061,1.0,part_1,,,,,,,,,,,,,orange,circle
1.0,1,3.0,3.0,317.589998245,1.0,part_1,,,,,,,,,,,,,cyan,cross
4.0,0,2.0,2.0,367.285013199,1.0,part_1,,,,,,,,,,,,,blue,triangle
1.0,1,4.0,4.0,383.960962296,1.0,part_1,,,,,,,,,,,,,cyan,cross
2.0,0,4.0,4.0,334.090948105,1.0,part_1,,,,,,,,,,,,,gray,square
2.0,0,3.0,3.0,301.017999649,1.0,part_1,,,,,,,,,,,,,gray,square
4.0,0,3.0,3.0,300.694942474,1.0,part_1,,,,,,,,,,,,,blue,triangle
2.0,0,1.0,1.0,400.84290504499995,1.0,part_1,,,,,,,,,,,,,gray,square
2.0,0,3.0,3.0,334.624052048,1.0,part_1,,,,,,,,,,,,,gray,square
1.0,1,2.0,2.0,351.018190384,1.0,part_1,,,,,,,,,,,,,cyan,cross
0.5,1,3.0,3.0,300.899028778,1.0,part_1,,,,,,,,,,,,,orange,circle
1.0,1,1.0,1.0,384.469985962,1.0,part_1,,,,,,,,,,,,,cyan,cross
4.0,0,3.0,3.0,350.241184235,1.0,part_1,,,,,,,,,,,,,blue,triangle
4.0,0,3.0,3.0,367.820978165,1.0,part_1,,,,,,,,,,,,,blue,triangle
0.5,1,1.0,1.0,417.834997177,1.0,part_1,,,,,,,,,,,,,orange,circle
1.0,0,4.0,4.0,384.280920029,1.0,part_1,,,,,,,,,,,,,yellow,flipped triangle
0.5,1,4.0,4.0,451.374053955,1.0,part_1,,,,,,,,,,,,,orange,circle
0.5,0,1.0,1.0,417.626857758,1.0,part_1,,,,,,,,,,,,,white,line
4.0,1,4.0,4.0,350.84104537999997,1.0,part_1,,,,,,,,,,,,,magenta,hexagon
1.0,1,1.0,1.0,350.399971008,1.0,part_1,,,,,,,,,,,,,cyan,cross
4.0,0,2.0,2.0,450.846910477,1.0,part_1,,,,,,,,,,,,,blue,triangle
2.0,1,2.0,2.0,434.29684639,1.0,part_1,,,,,,,,,,,,,green,diamond
1.0,0,2.0,2.0,367.673873901,1.0,part_1,,,,,,,,,,,,,yellow,flipped triangle
1.0,1,4.0,4.0,450.89292526199995,1.0,part_1,,,,,,,,,,,,,cyan,cross
1.0,1,2.0,2.0,434.283971786,1.0,part_1,,,,,,,,,,,,,cyan,cross
4.0,1,2.0,2.0,433.989048004,1.0,part_1,,,,,,,,,,,,,magenta,hexagon
1.0,1,4.0,4.0,617.3839569090001,1.0,part_1,,,,,,,,,,,,,cyan,cross
0.5,0,1.0,1.0,434.06605720500005,1.0,part_1,,,,,,,,,,,,,white,line
4.0,1,4.0,4.0,433.971166611,1.0,part_1,,,,,,,,,,,,,magenta,hexagon
2.0,0,3.0,3.0,400.578975677,1.0,part_1,,,,,,,,,,,,,gray,square
1.0,0,1.0,1.0,434.55386161800004,1.0,part_1,,,,,,,,,,,,,yellow,flipped triangle
2.0,1,1.0,1.0,434.399843216,1.0,part_1,,,,,,,,,,,,,green,diamond
2.0,1,3.0,3.0,367.718935013,1.0,part_1,,,,,,,,,,,,,green,diamond
2.0,1,2.0,2.0,350.634813309,1.0,part_1,,,,,,,,,,,,,green,diamond
0.5,1,3.0,3.0,400.84004402200003,1.0,part_1,,,,,,,,,,,,,orange,circle
4.0,1,3.0,3.0,317.580938339,1.0,part_1,,,,,,,,,,,,,magenta,hexagon
2.0,1,1.0,1.0,350.712060928,1.0,part_1,,,,,,,,,,,,,green,diamond
0.5,0,4.0,4.0,417.513847351,1.0,part_1,,,,,,,,,,,,,white,line
1.0,1,4.0,4.0,351.066112518,1.0,part_1,,,,,,,,,,,,,cyan,cross
4.0,0,1.0,1.0,534.379005432,2.0,part_1,,,,,,,,,,,,,blue,triangle
0.5,1,4.0,4.0,367.653846741,2.0,part_1,,,,,,,,,,,,,orange,circle
1.0,0,2.0,2.0,400.909900665,2.0,part_1,,,,,,,,,,,,,yellow,flipped triangle
2.0,1,1.0,1.0,350.319862366,2.0,part_1,,,,,,,,,,,,,green,diamond
1.0,0,2.0,2.0,368.057012558,2.0,part_1,,,,,,,,,,,,,yellow,flipped triangle
1.0,1,3.0,3.0,333.99105072000003,2.0,part_1,,,,,,,,,,,,,cyan,cross
4.0,1,3.0,3.0,334.183931351,2.0,part_1,,,,,,,,,,,,,magenta,hexagon
4.0,1,3.0,3.0,317.27600097699997,2.0,part_1,,,,,,,,,,,,,magenta,hexagon
1.0,1,1.0,1.0,617.9451942439999,2.0,part_1,,,,,,,,,,,,,cyan,cross
0.5,1,3.0,3.0,318.321943283,2.0,part_1,,,,,,,,,,,,,orange,circle
2.0,0,4.0,4.0,450.795173645,2.0,part_1,,,,,,,,,,,,,gray,square
2.0,1,1.0,1.0,484.10487175,2.0,part_1,,,,,,,,,,,,,green,diamond
4.0,1,2.0,2.0,484.436988831,2.0,part_1,,,,,,,,,,,,,magenta,hexagon
0.5,0,4.0,4.0,384.53793525699996,2.0,part_1,,,,,,,,,,,,,white,line
1.0,1,3.0,3.0,367.56205558799996,2.0,part_1,,,,,,,,,,,,,cyan,cross
4.0,1,2.0,2.0,451.261997223,2.0,part_1,,,,,,,,,,,,,magenta,hexagon
1.0,0,1.0,1.0,433.969974518,2.0,part_1,,,,,,,,,,,,,yellow,flipped triangle
0.5,1,4.0,4.0,383.95690917999997,2.0,part_1,,,,,,,,,,,,,orange,circle
0.5,1,4.0,4.0,384.136915207,2.0,part_1,,,,,,,,,,,,,orange,circle
4.0,0,2.0,2.0,451.236963272,2.0,part_1,,,,,,,,,,,,,blue,triangle
0.5,1,4.0,4.0,367.41089820900004,2.0,part_1,,,,,,,,,,,,,orange,circle
1.0,1,3.0,3.0,334.27000045799997,2.0,part_1,,,,,,,,,,,,,cyan,cross
0.5,0,1.0,1.0,334.56301689099996,2.0,part_1,,,,,,,,,,,,,white,line
2.0,1,1.0,1.0,451.275110245,2.0,part_1,,,,,,,,,,,,,green,diamond
0.5,1,2.0,2.0,384.527921677,2.0,part_1,,,,,,,,,,,,,orange,circle
2.0,1,3.0,3.0,334.608793259,2.0,part_1,,,,,,,,,,,,,green,diamond
1.0,0,2.0,2.0,367.41399765,2.0,part_1,,,,,,,,,,,,,yellow,flipped triangle
1.0,1,2.0,2.0,384.007930756,2.0,part_1,,,,,,,,,,,,,cyan,cross
1.0,1,1.0,1.0,367.88702011099997,2.0,part_1,,,,,,,,,,,,,cyan,cross
4.0,0,3.0,3.0,367.57516861,2.0,part_1,,,,,,,,,,,,,blue,triangle
4.0,0,3.0,3.0,367.202997208,2.0,part_1,,,,,,,,,,,,,blue,triangle
2.0,0,4.0,4.0,417.45710372900004,2.0,part_1,,,,,,,,,,,,,gray,square
0.5,0,3.0,3.0,350.89802742,2.0,part_1,,,,,,,,,,,,,white,line
1.0,1,3.0,3.0,334.29002761799995,2.0,part_1,,,,,,,,,,,,,cyan,cross
1.0,0,4.0,4.0,416.88799858100003,2.0,part_1,,,,,,,,,,,,,yellow,flipped triangle
0.5,1,2.0,2.0,567.902088165,2.0,part_1,,,,,,,,,,,,,orange,circle
4.0,0,2.0,2.0,450.707197189,2.0,part_1,,,,,,,,,,,,,blue,triangle
2.0,1,3.0,3.0,350.989818573,2.0,part_1,,,,,,,,,,,,,green,diamond
0.5,0,1.0,1.0,501.019954681,2.0,part_1,,,,,,,,,,,,,white,line
1.0,1,1.0,1.0,384.228944778,2.0,part_1,,,,,,,,,,,,,cyan,cross
2.0,0,1.0,1.0,350.86488723800005,2.0,part_1,,,,,,,,,,,,,gray,square
0.5,0,4.0,4.0,417.74487495399995,2.0,part_1,,,,,,,,,,,,,white,line
1.0,1,2.0,2.0,350.870847702,2.0,part_1,,,,,,,,,,,,,cyan,cross
0.5,0,2.0,2.0,400.57611465499997,2.0,part_1,,,,,,,,,,,,,white,line
4.0,0,2.0,2.0,334.40709114099997,2.0,part_1,,,,,,,,,,,,,blue,triangle
1.0,0,2.0,2.0,367.39993095399996,2.0,part_1,,,,,,,,,,,,,yellow,flipped triangle
1.0,0,3.0,3.0,400.840997696,2.0,part_1,,,,,,,,,,,,,yellow,flipped triangle
0.5,1,4.0,4.0,400.948047638,2.0,part_1,,,,,,,,,,,,,orange,circle
4.0,0,2.0,2.0,300.770044327,2.0,part_1,,,,,,,,,,,,,blue,triangle
0.5,0,1.0,1.0,401.196956635,2.0,part_1,,,,,,,,,,,,,white,line
4.0,1,4.0,4.0,367.240905762,2.0,part_1,,,,,,,,,,,,,magenta,hexagon
1.0,1,2.0,2.0,333.899974823,2.0,part_1,,,,,,,,,,,,,cyan,cross
0.5,0,4.0,4.0,400.83694458,2.0,part_1,,,,,,,,,,,,,white,line
2.0,0,2.0,2.0,333.891153336,2.0,part_1,,,,,,,,,,,,,gray,square
0.5,0,4.0,4.0,417.11592674300005,2.0,part_1,,,,,,,,,,,,,white,line
0.5,1,1.0,1.0,417.87314415,2.0,part_1,,,,,,,,,,,,,orange,circle
1.0,0,1.0,1.0,350.834846497,2.0,part_1,,,,,,,,,,,,,yellow,flipped triangle
1.0,0,4.0,4.0,418.068885803,2.0,part_1,,,,,,,,,,,,,yellow,flipped triangle
0.5,1,3.0,3.0,384.18698310900004,2.0,part_1,,,,,,,,,,,,,orange,circle
2.0,1,4.0,4.0,634.2380046840001,2.0,part_1,,,,,,,,,,,,,green,diamond
0.5,0,2.0,2.0,400.880813599,2.0,part_1,,,,,,,,,,,,,white,line
2.0,1,3.0,3.0,367.07520484900004,2.0,part_1,,,,,,,,,,,,,green,diamond
4.0,1,3.0,3.0,351.09090805100004,2.0,part_1,,,,,,,,,,,,,magenta,hexagon
4.0,0,1.0,1.0,567.7139759060001,2.0,part_1,,,,,,,,,,,,,blue,triangle
1.0,1,2.0,2.0,451.44081115700004,2.0,part_1,,,,,,,,,,,,,cyan,cross
1.0,1,4.0,4.0,384.00292396500004,2.0,part_1,,,,,,,,,,,,,cyan,cross
1.0,1,1.0,1.0,517.8990364069999,2.0,part_1,,,,,,,,,,,,,cyan,cross
0.5,1,3.0,3.0,333.79888534500003,2.0,part_1,,,,,,,,,,,,,orange,circle
4.0,1,4.0,4.0,434.06605720500005,2.0,part_1,,,,,,,,,,,,,magenta,hexagon
4.0,1,3.0,3.0,317.533969879,2.0,part_1,,,,,,,,,,,,,magenta,hexagon
2.0,1,1.0,1.0,684.494972229,2.0,part_1,,,,,,,,,,,,,green,diamond
4.0,1,4.0,4.0,367.647886276,2.0,part_1,,,,,,,,,,,,,magenta,hexagon
2.0,0,3.0,3.0,334.44404602099996,2.0,part_1,,,,,,,,,,,,,gray,square
2.0,0,3.0,3.0,334.868907928,2.0,part_1,,,,,,,,,,,,,gray,square
0.5,0,4.0,4.0,450.75511932399996,2.0,part_1,,,,,,,,,,,,,white,line
1.0,0,1.0,1.0,417.60110855100004,2.0,part_1,,,,,,,,,,,,,yellow,flipped triangle
2.0,1,4.0,4.0,367.720127106,2.0,part_1,,,,,,,,,,,,,green,diamond
0.5,0,2.0,2.0,384.42802429200003,2.0,part_1,,,,,,,,,,,,,white,line
2.0,1,4.0,4.0,351.052045822,2.0,part_1,,,,,,,,,,,,,green,diamond
2.0,0,4.0,4.0,384.05108451800004,2.0,part_1,,,,,,,,,,,,,gray,square
2.0,0,3.0,3.0,284.173965454,2.0,part_1,,,,,,,,,,,,,gray,square
1.0,1,2.0,2.0,400.871992111,2.0,part_1,,,,,,,,,,,,,cyan,cross
0.5,1,3.0,3.0,284.163951874,2.0,part_1,,,,,,,,,,,,,orange,circle
2.0,0,1.0,1.0,368.092060089,2.0,part_1,,,,,,,,,,,,,gray,square
1.0,1,4.0,4.0,551.2142181400001,2.0,part_1,,,,,,,,,,,,,cyan,cross
2.0,0,3.0,3.0,334.256887436,2.0,part_1,,,,,,,,,,,,,gray,square
4.0,1,2.0,2.0,551.4981746670001,2.0,part_1,,,,,,,,,,,,,magenta,hexagon
0.5,1,1.0,1.0,401.563167572,2.0,part_1,,,,,,,,,,,,,orange,circle
2.0,0,1.0,1.0,367.341041565,2.0,part_1,,,,,,,,,,,,,gray,square
0.5,0,2.0,2.0,400.642871857,2.0,part_1,,,,,,,,,,,,,white,line
0.5,1,1.0,1.0,617.777824402,2.0,part_1,,,,,,,,,,,,,orange,circle
0.5,0,1.0,1.0,384.122848511,2.0,part_1,,,,,,,,,,,,,white,line
2.0,1,4.0,4.0,484.490871429,2.0,part_1,,,,,,,,,,,,,green,diamond
4.0,0,3.0,3.0,367.29001998900003,2.0,part_1,,,,,,,,,,,,,blue,triangle
0.5,1,2.0,2.0,383.755922318,2.0,part_1,,,,,,,,,,,,,orange,circle
2.0,1,1.0,1.0,383.883953094,2.0,part_1,,,,,,,,,,,,,green,diamond
4.0,1,1.0,1.0,350.816965103,2.0,part_1,,,,,,,,,,,,,magenta,hexagon
2.0,1,4.0,4.0,450.341939926,2.0,part_1,,,,,,,,,,,,,green,diamond
1.0,0,3.0,3.0,384.41491127,2.0,part_1,,,,,,,,,,,,,yellow,flipped triangle
2.0,1,2.0,2.0,367.822885513,2.0,part_1,,,,,,,,,,,,,green,diamond
2.0,0,1.0,1.0,417.75608062699996,3.0,part_1,,,,,,,,,,,,,gray,square
1.0,1,3.0,3.0,333.855867386,3.0,part_1,,,,,,,,,,,,,cyan,cross
2.0,0,1.0,1.0,350.70204734799995,3.0,part_1,,,,,,,,,,,,,gray,square
0.5,1,3.0,3.0,350.530147552,3.0,part_1,,,,,,,,,,,,,orange,circle
4.0,0,1.0,1.0,418.09320449800003,3.0,part_1,,,,,,,,,,,,,blue,triangle
0.5,0,2.0,2.0,367.05303192099996,3.0,part_1,,,,,,,,,,,,,white,line
2.0,0,1.0,1.0,367.911100388,3.0,part_1,,,,,,,,,,,,,gray,square
1.0,0,3.0,3.0,333.577156067,3.0,part_1,,,,,,,,,,,,,yellow,flipped triangle
1.0,0,3.0,3.0,351.002931595,3.0,part_1,,,,,,,,,,,,,yellow,flipped triangle
2.0,0,4.0,4.0,451.066017151,3.0,part_1,,,,,,,,,,,,,gray,square
0.5,0,3.0,3.0,334.10787582399996,3.0,part_1,,,,,,,,,,,,,white,line
0.5,1,1.0,1.0,334.194898605,3.0,part_1,,,,,,,,,,,,,orange,circle
4.0,1,2.0,2.0,367.51389503499996,3.0,part_1,,,,,,,,,,,,,magenta,hexagon
2.0,0,1.0,1.0,418.168067932,3.0,part_1,,,,,,,,,,,,,gray,square
0.5,0,2.0,2.0,400.676012039,3.0,part_1,,,,,,,,,,,,,white,line
0.5,1,4.0,4.0,417.694091797,3.0,part_1,,,,,,,,,,,,,orange,circle
4.0,0,4.0,4.0,383.829116821,3.0,part_1,,,,,,,,,,,,,blue,triangle
4.0,0,2.0,2.0,417.79303550699996,3.0,part_1,,,,,,,,,,,,,blue,triangle
4.0,1,3.0,3.0,317.219018936,3.0,part_1,,,,,,,,,,,,,magenta,hexagon
0.5,0,2.0,2.0,383.852005005,3.0,part_1,,,,,,,,,,,,,white,line
4.0,1,1.0,1.0,351.38297080999996,3.0,part_1,,,,,,,,,,,,,magenta,hexagon
1.0,1,3.0,3.0,367.059230804,3.0,part_1,,,,,,,,,,,,,cyan,cross
2.0,1,2.0,2.0,383.897066116,3.0,part_1,,,,,,,,,,,,,green,diamond
1.0,1,4.0,4.0,383.954048157,3.0,part_1,,,,,,,,,,,,,cyan,cross
2.0,0,4.0,4.0,417.477846146,3.0,part_1,,,,,,,,,,,,,gray,square
0.5,0,3.0,3.0,334.40017700199996,3.0,part_1,,,,,,,,,,,,,white,line
4.0,0,1.0,1.0,551.2058734889999,3.0,part_1,,,,,,,,,,,,,blue,triangle
4.0,1,1.0,1.0,384.151935577,3.0,part_1,,,,,,,,,,,,,magenta,hexagon
1.0,0,2.0,2.0,400.376081467,3.0,part_1,,,,,,,,,,,,,yellow,flipped triangle
0.5,1,1.0,1.0,367.217063904,3.0,part_1,,,,,,,,,,,,,orange,circle
0.5,1,3.0,3.0,334.48600768999995,3.0,part_1,,,,,,,,,,,,,orange,circle
4.0,1,4.0,4.0,417.67501831100003,3.0,part_1,,,,,,,,,,,,,magenta,hexagon
2.0,0,4.0,4.0,467.525005341,3.0,part_1,,,,,,,,,,,,,gray,square
2.0,0,3.0,3.0,334.262132645,3.0,part_1,,,,,,,,,,,,,gray,square
4.0,1,1.0,1.0,334.141016006,3.0,part_1,,,,,,,,,,,,,magenta,hexagon
2.0,1,1.0,1.0,367.669820786,3.0,part_1,,,,,,,,,,,,,green,diamond
2.0,0,1.0,1.0,384.24992561299996,3.0,part_1,,,,,,,,,,,,,gray,square
1.0,0,2.0,2.0,434.04912948599997,3.0,part_1,,,,,,,,,,,,,yellow,flipped triangle
1.0,0,3.0,3.0,350.644826889,3.0,part_1,,,,,,,,,,,,,yellow,flipped triangle
4.0,1,1.0,1.0,417.366027832,3.0,part_1,,,,,,,,,,,,,magenta,hexagon
4.0,0,3.0,3.0,367.617845535,3.0,part_1,,,,,,,,,,,,,blue,triangle
0.5,1,2.0,2.0,367.658853531,3.0,part_1,,,,,,,,,,,,,orange,circle
0.5,1,3.0,3.0,333.622932434,3.0,part_1,,,,,,,,,,,,,orange,circle
2.0,1,4.0,4.0,400.961875916,3.0,part_1,,,,,,,,,,,,,green,diamond
1.0,1,3.0,3.0,384.501934052,3.0,part_1,,,,,,,,,,,,,cyan,cross
0.5,0,1.0,1.0,434.159994125,3.0,part_1,,,,,,,,,,,,,white,line
2.0,1,4.0,4.0,417.422056198,3.0,part_1,,,,,,,,,,,,,green,diamond
0.5,1,2.0,2.0,434.586048126,3.0,part_1,,,,,,,,,,,,,orange,circle
2.0,1,2.0,2.0,451.0409832,3.0,part_1,,,,,,,,,,,,,green,diamond
0.5,1,2.0,2.0,400.86293220500005,3.0,part_1,,,,,,,,,,,,,orange,circle
4.0,1,1.0,1.0,534.20996666,3.0,part_1,,,,,,,,,,,,,magenta,hexagon
2.0,1,1.0,1.0,518.410921097,3.0,part_1,,,,,,,,,,,,,green,diamond
4.0,0,2.0,2.0,467.66495704700003,3.0,part_1,,,,,,,,,,,,,blue,triangle
1.0,1,1.0,1.0,401.361942291,3.0,part_1,,,,,,,,,,,,,cyan,cross
4.0,0,1.0,1.0,450.747966766,3.0,part_1,,,,,,,,,,,,,blue,triangle
4.0,1,4.0,4.0,484.14683341999995,3.0,part_1,,,,,,,,,,,,,magenta,hexagon
4.0,0,2.0,2.0,417.441129684,3.0,part_1,,,,,,,,,,,,,blue,triangle
0.5,1,2.0,2.0,384.439945221,3.0,part_1,,,,,,,,,,,,,orange,circle
2.0,1,3.0,3.0,384.05704498299997,3.0,part_1,,,,,,,,,,,,,green,diamond
2.0,0,3.0,3.0,400.639057159,3.0,part_1,,,,,,,,,,,,,gray,square
0.5,0,3.0,3.0,351.06587410000003,3.0,part_1,,,,,,,,,,,,,white,line
0.5,1,4.0,4.0,484.184980392,3.0,part_1,,,,,,,,,,,,,orange,circle
2.0,1,2.0,2.0,484.769105911,3.0,part_1,,,,,,,,,,,,,green,diamond
4.0,1,1.0,1.0,401.046991348,3.0,part_1,,,,,,,,,,,,,magenta,hexagon
4.0,1,4.0,4.0,451.394081116,3.0,part_1,,,,,,,,,,,,,magenta,hexagon
1.0,0,2.0,2.0,367.02013015700004,3.0,part_1,,,,,,,,,,,,,yellow,flipped triangle
0.5,0,1.0,1.0,434.065103531,3.0,part_1,,,,,,,,,,,,,white,line
1.0,0,2.0,2.0,384.392976761,3.0,part_1,,,,,,,,,,,,,yellow,flipped triangle
1.0,1,4.0,4.0,434.517860413,3.0,part_1,,,,,,,,,,,,,cyan,cross
1.0,0,2.0,2.0,450.70695877099996,3.0,part_1,,,,,,,,,,,,,yellow,flipped triangle
2.0,0,3.0,3.0,417.05393791200004,3.0,part_1,,,,,,,,,,,,,gray,square
1.0,0,4.0,4.0,451.275110245,3.0,part_1,,,,,,,,,,,,,yellow,flipped triangle
2.0,0,4.0,4.0,434.17811393700003,3.0,part_1,,,,,,,,,,,,,gray,square
2.0,1,4.0,4.0,451.508998871,3.0,part_1,,,,,,,,,,,,,green,diamond
0.5,0,3.0,3.0,383.96596908600003,3.0,part_1,,,,,,,,,,,,,white,line
4.0,1,2.0,2.0,433.876991272,3.0,part_1,,,,,,,,,,,,,magenta,hexagon
4.0,0,3.0,3.0,350.611209869,3.0,part_1,,,,,,,,,,,,,blue,triangle
4.0,0,4.0,4.0,417.490005493,3.0,part_1,,,,,,,,,,,,,blue,triangle
2.0,1,4.0,4.0,417.773008347,3.0,part_1,,,,,,,,,,,,,green,diamond
4.0,1,2.0,2.0,434.184789658,3.0,part_1,,,,,,,,,,,,,magenta,hexagon
0.5,1,4.0,4.0,417.676210403,3.0,part_1,,,,,,,,,,,,,orange,circle
1.0,0,4.0,4.0,384.377002716,3.0,part_1,,,,,,,,,,,,,yellow,flipped triangle
0.5,1,2.0,2.0,417.68312454200003,3.0,part_1,,,,,,,,,,,,,orange,circle
4.0,1,3.0,3.0,450.87718963599997,3.0,part_1,,,,,,,,,,,,,magenta,hexagon
2.0,0,2.0,2.0,400.98118781999995,3.0,part_1,,,,,,,,,,,,,gray,square
0.5,0,3.0,3.0,451.39598846399997,3.0,part_1,,,,,,,,,,,,,white,line
0.5,0,1.0,1.0,534.927845001,3.0,part_1,,,,,,,,,,,,,white,line
1.0,1,3.0,3.0,401.119947433,3.0,part_1,,,,,,,,,,,,,cyan,cross
4.0,0,1.0,1.0,418.054819107,3.0,part_1,,,,,,,,,,,,,blue,triangle
0.5,1,4.0,4.0,601.568937302,3.0,part_1,,,,,,,,,,,,,orange,circle
1.0,0,1.0,1.0,484.116077423,3.0,part_1,,,,,,,,,,,,,yellow,flipped triangle
4.0,0,3.0,3.0,401.087999344,3.0,part_1,,,,,,,,,,,,,blue,triangle
1.0,0,4.0,4.0,584.324836731,3.0,part_1,,,,,,,,,,,,,yellow,flipped triangle
4.0,0,1.0,1.0,434.275865555,3.0,part_1,,,,,,,,,,,,,blue,triangle
4.0,0,2.0,2.0,417.75393486,3.0,part_1,,,,,,,,,,,,,blue,triangle
4.0,1,4.0,4.0,501.01494789099996,3.0,part_1,,,,,,,,,,,,,magenta,hexagon
1.0,0,3.0,3.0,401.18908882100004,3.0,part_1,,,,,,,,,,,,,yellow,flipped triangle
4.0,0,4.0,4.0,384.683847427,3.0,part_1,,,,,,,,,,,,,blue,triangle
1.0,0,2.0,2.0,451.049089432,3.0,part_1,,,,,,,,,,,,,yellow,flipped triangle
2.0,0,4.0,4.0,384.171009064,3.0,part_1,,,,,,,,,,,,,gray,square
4.0,0,4.0,4.0,417.710065842,4.0,part_1,,,,,,,,,,,,,blue,triangle
2.0,1,4.0,4.0,401.364088058,4.0,part_1,,,,,,,,,,,,,green,diamond
2.0,0,3.0,3.0,334.312915802,4.0,part_1,,,,,,,,,,,,,gray,square
1.0,1,4.0,4.0,384.30595397900004,4.0,part_1,,,,,,,,,,,,,cyan,cross
0.5,0,3.0,3.0,284.147024155,4.0,part_1,,,,,,,,,,,,,white,line
0.5,0,1.0,1.0,250.763893127,4.0,part_1,,,,,,,,,,,,,white,line
2.0,0,2.0,2.0,417.425870895,4.0,part_1,,,,,,,,,,,,,gray,square
4.0,0,2.0,2.0,417.593002319,4.0,part_1,,,,,,,,,,,,,blue,triangle
1.0,0,3.0,3.0,384.230136871,4.0,part_1,,,,,,,,,,,,,yellow,flipped triangle
1.0,0,1.0,1.0,484.455823898,4.0,part_1,,,,,,,,,,,,,yellow,flipped triangle
0.5,1,3.0,3.0,433.374166489,4.0,part_1,,,,,,,,,,,,,orange,circle
4.0,0,3.0,3.0,417.464971542,4.0,part_1,,,,,,,,,,,,,blue,triangle
0.5,1,3.0,3.0,367.232084274,4.0,part_1,,,,,,,,,,,,,orange,circle
1.0,0,4.0,4.0,434.36479568500005,4.0,part_1,,,,,,,,,,,,,yellow,flipped triangle
4.0,0,3.0,3.0,350.796937943,4.0,part_1,,,,,,,,,,,,,blue,triangle
2.0,1,3.0,3.0,367.79499053999996,4.0,part_1,,,,,,,,,,,,,green,diamond
1.0,1,4.0,4.0,367.26307869000004,4.0,part_1,,,,,,,,,,,,,cyan,cross
4.0,0,3.0,3.0,334.332942963,4.0,part_1,,,,,,,,,,,,,blue,triangle
1.0,0,4.0,4.0,367.40398407000004,4.0,part_1,,,,,,,,,,,,,yellow,flipped triangle
0.5,1,2.0,2.0,450.75201988199996,4.0,part_1,,,,,,,,,,,,,orange,circle
4.0,0,1.0,1.0,401.263952255,4.0,part_1,,,,,,,,,,,,,blue,triangle
1.0,1,4.0,4.0,400.744915009,4.0,part_1,,,,,,,,,,,,,cyan,cross
1.0,0,2.0,2.0,383.889913559,4.0,part_1,,,,,,,,,,,,,yellow,flipped triangle
0.5,0,3.0,3.0,350.66819190999996,4.0,part_1,,,,,,,,,,,,,white,line
2.0,1,3.0,3.0,350.475788116,4.0,part_1,,,,,,,,,,,,,green,diamond
1.0,0,2.0,2.0,367.59305000300003,4.0,part_1,,,,,,,,,,,,,yellow,flipped triangle
0.5,1,4.0,4.0,417.749881744,4.0,part_1,,,,,,,,,,,,,orange,circle
2.0,1,2.0,2.0,300.776004791,4.0,part_1,,,,,,,,,,,,,green,diamond
4.0,1,4.0,4.0,500.30493736299996,4.0,part_1,,,,,,,,,,,,,magenta,hexagon
0.5,0,1.0,1.0,484.329938889,4.0,part_1,,,,,,,,,,,,,white,line
4.0,0,1.0,1.0,467.267036438,4.0,part_1,,,,,,,,,,,,,blue,triangle
2.0,0,1.0,1.0,400.712966919,4.0,part_1,,,,,,,,,,,,,gray,square
4.0,0,2.0,2.0,401.094913483,4.0,part_1,,,,,,,,,,,,,blue,triangle
4.0,1,4.0,4.0,400.829076767,4.0,part_1,,,,,,,,,,,,,magenta,hexagon
2.0,0,1.0,1.0,401.218891144,4.0,part_1,,,,,,,,,,,,,gray,square
1.0,1,1.0,1.0,401.062011719,4.0,part_1,,,,,,,,,,,,,cyan,cross
0.5,1,1.0,1.0,367.249965668,4.0,part_1,,,,,,,,,,,,,orange,circle
0.5,0,3.0,3.0,550.791025162,4.0,part_1,,,,,,,,,,,,,white,line
2.0,1,2.0,2.0,367.432117462,4.0,part_1,,,,,,,,,,,,,green,diamond
0.5,0,4.0,4.0,467.982053757,4.0,part_1,,,,,,,,,,,,,white,line
2.0,1,3.0,3.0,401.360988617,4.0,part_1,,,,,,,,,,,,,green,diamond
4.0,0,1.0,1.0,450.58107376099997,4.0,part_1,,,,,,,,,,,,,blue,triangle
2.0,1,1.0,1.0,367.415904999,4.0,part_1,,,,,,,,,,,,,green,diamond
2.0,0,2.0,2.0,467.514038086,4.0,part_1,,,,,,,,,,,,,gray,square
2.0,1,4.0,4.0,518.274068832,4.0,part_1,,,,,,,,,,,,,green,diamond
0.5,1,1.0,1.0,467.36788749699997,4.0,part_1,,,,,,,,,,,,,orange,circle
1.0,1,3.0,3.0,384.21988487199997,4.0,part_1,,,,,,,,,,,,,cyan,cross
0.5,0,2.0,2.0,384.747028351,4.0,part_1,,,,,,,,,,,,,white,line
4.0,1,1.0,1.0,351.536035538,4.0,part_1,,,,,,,,,,,,,magenta,hexagon
4.0,1,2.0,2.0,350.917816162,4.0,part_1,,,,,,,,,,,,,magenta,hexagon
2.0,1,1.0,1.0,367.75517463700004,4.0,part_1,,,,,,,,,,,,,green,diamond
0.5,0,2.0,2.0,517.796039581,4.0,part_1,,,,,,,,,,,,,white,line
0.5,1,2.0,2.0,400.5651474,4.0,part_1,,,,,,,,,,,,,orange,circle
4.0,1,4.0,4.0,467.799186707,4.0,part_1,,,,,,,,,,,,,magenta,hexagon
1.0,0,4.0,4.0,534.447908401,4.0,part_1,,,,,,,,,,,,,yellow,flipped triangle
0.5,0,1.0,1.0,367.49792099,4.0,part_1,,,,,,,,,,,,,white,line
1.0,1,4.0,4.0,467.712879181,4.0,part_1,,,,,,,,,,,,,cyan,cross
4.0,1,3.0,3.0,384.02605056799996,4.0,part_1,,,,,,,,,,,,,magenta,hexagon
4.0,0,2.0,2.0,517.290115356,4.0,part_1,,,,,,,,,,,,,blue,triangle
1.0,1,2.0,2.0,401.086091995,4.0,part_1,,,,,,,,,,,,,cyan,cross
1.0,0,3.0,3.0,401.057958603,4.0,part_1,,,,,,,,,,,,,yellow,flipped triangle
2.0,0,1.0,1.0,417.437076569,4.0,part_1,,,,,,,,,,,,,gray,square
0.5,1,2.0,2.0,367.26284027099996,4.0,part_1,,,,,,,,,,,,,orange,circle
2.0,1,2.0,2.0,450.908899307,4.0,part_1,,,,,,,,,,,,,green,diamond
0.5,0,4.0,4.0,451.14707946799996,4.0,part_1,,,,,,,,,,,,,white,line
4.0,0,1.0,1.0,367.941856384,4.0,part_1,,,,,,,,,,,,,blue,triangle
0.5,1,1.0,1.0,334.3501091,4.0,part_1,,,,,,,,,,,,,orange,circle
0.5,0,4.0,4.0,417.587995529,4.0,part_1,,,,,,,,,,,,,white,line
0.5,1,1.0,1.0,351.083040237,4.0,part_1,,,,,,,,,,,,,orange,circle
2.0,1,2.0,2.0,384.618997574,4.0,part_1,,,,,,,,,,,,,green,diamond
4.0,1,4.0,4.0,384.33599472000003,4.0,part_1,,,,,,,,,,,,,magenta,hexagon
2.0,0,4.0,4.0,400.907993317,4.0,part_1,,,,,,,,,,,,,gray,square
0.5,1,2.0,2.0,334.372997284,4.0,part_1,,,,,,,,,,,,,orange,circle
2.0,0,3.0,3.0,333.628177643,4.0,part_1,,,,,,,,,,,,,gray,square
0.5,0,1.0,1.0,300.927877426,4.0,part_1,,,,,,,,,,,,,white,line
0.5,0,1.0,1.0,400.69389343299997,4.0,part_1,,,,,,,,,,,,,white,line
2.0,0,3.0,3.0,417.41204261800004,4.0,part_1,,,,,,,,,,,,,gray,square
2.0,0,1.0,1.0,384.18507576,4.0,part_1,,,,,,,,,,,,,gray,square
1.0,0,4.0,4.0,434.026002884,4.0,part_1,,,,,,,,,,,,,yellow,flipped triangle
4.0,0,4.0,4.0,367.069005966,4.0,part_1,,,,,,,,,,,,,blue,triangle
2.0,1,2.0,2.0,401.233196259,4.0,part_1,,,,,,,,,,,,,green,diamond
0.5,1,4.0,4.0,450.839996338,4.0,part_1,,,,,,,,,,,,,orange,circle
1.0,1,3.0,3.0,383.83603096,4.0,part_1,,,,,,,,,,,,,cyan,cross
1.0,0,2.0,2.0,350.947856903,4.0,part_1,,,,,,,,,,,,,yellow,flipped triangle
4.0,0,4.0,4.0,451.219081879,4.0,part_1,,,,,,,,,,,,,blue,triangle
0.5,0,2.0,2.0,467.56005287199997,4.0,part_1,,,,,,,,,,,,,white,line
4.0,0,3.0,3.0,417.12403297400004,4.0,part_1,,,,,,,,,,,,,blue,triangle
1.0,0,3.0,3.0,383.77904892,4.0,part_1,,,,,,,,,,,,,yellow,flipped triangle
1.0,1,3.0,3.0,384.05585289,4.0,part_1,,,,,,,,,,,,,cyan,cross
4.0,1,3.0,3.0,350.559949875,4.0,part_1,,,,,,,,,,,,,magenta,hexagon
4.0,1,2.0,2.0,484.611034393,4.0,part_1,,,,,,,,,,,,,magenta,hexagon
0.5,0,2.0,2.0,384.53507423400004,4.0,part_1,,,,,,,,,,,,,white,line
1.0,0,1.0,1.0,433.875799179,4.0,part_1,,,,,,,,,,,,,yellow,flipped triangle
1.0,0,2.0,2.0,400.728940964,4.0,part_1,,,,,,,,,,,,,yellow,flipped triangle
1.0,0,4.0,4.0,400.900125504,4.0,part_1,,,,,,,,,,,,,yellow,flipped triangle
0.5,0,1.0,1.0,418.098926544,4.0,part_1,,,,,,,,,,,,,white,line
2.0,1,3.0,3.0,367.653846741,4.0,part_1,,,,,,,,,,,,,green,diamond
4.0,0,3.0,3.0,367.531061172,4.0,part_1,,,,,,,,,,,,,blue,triangle
2.0,1,1.0,1.0,401.135921478,4.0,part_1,,,,,,,,,,,,,green,diamond
4.0,1,4.0,4.0,367.22612381000005,4.0,part_1,,,,,,,,,,,,,magenta,hexagon
4.0,1,6.0,6.0,684.427976608,1.0,part_2,go,250.0,250.0,1.0,,,,,,,,,magenta,hexagon
1.0,0,5.0,5.0,584.390878677,1.0,part_2,go,250.0,250.0,1.0,,,,,,,,,yellow,flipped triangle
4.0,0,6.0,6.0,517.5058841709999,1.0,part_2,go,250.0,250.0,1.0,,,,,,,,,blue,triangle
0.5,0,6.0,6.0,467.027902603,1.0,part_2,go,250.0,250.0,1.0,,,,,,,,,white,line
1.0,1,5.0,5.0,416.975975037,1.0,part_2,stop,250.0,250.0,3.0,,,,,,,,,cyan,cross
2.0,1,5.0,5.0,501.33299827599996,1.0,part_2,stop,200.0,250.0,3.0,,,,,,,,,green,diamond
2.0,0,5.0,5.0,567.497968674,1.0,part_2,go,200.0,250.0,1.0,,,,,,,,,gray,square
2.0,1,5.0,,,1.0,,stop,150.0,250.0,4.0,,,,,,,,,green,diamond
2.0,1,5.0,,,1.0,,stop,200.0,250.0,4.0,,,,,,,,,green,diamond
1.0,1,6.0,6.0,467.37694740300003,1.0,part_2,stop,200.0,250.0,3.0,,,,,,,,,cyan,cross
0.5,0,6.0,6.0,534.2929363249999,1.0,part_2,go,200.0,250.0,1.0,,,,,,,,,white,line
4.0,1,5.0,,,1.0,,stop,250.0,250.0,4.0,,,,,,,,,magenta,hexagon
4.0,0,6.0,6.0,617.558956146,1.0,part_2,go,250.0,250.0,1.0,,,,,,,,,blue,triangle
2.0,1,6.0,,,1.0,,stop,250.0,200.0,4.0,,,,,,,,,green,diamond
2.0,1,6.0,,,1.0,,stop,250.0,250.0,4.0,,,,,,,,,green,diamond
2.0,0,6.0,6.0,367.376089096,1.0,part_2,go,250.0,250.0,1.0,,,,,,,,,gray,square
0.5,0,6.0,6.0,684.065103531,1.0,part_2,go,250.0,250.0,1.0,,,,,,,,,white,line
2.0,1,5.0,,,1.0,,stop,300.0,250.0,4.0,,,,,,,,,green,diamond
1.0,0,5.0,5.0,434.09180641200004,1.0,part_2,go,300.0,250.0,1.0,,,,,,,,,yellow,flipped triangle
1.0,1,5.0,,,1.0,,stop,350.0,250.0,4.0,,,,,,,,,cyan,cross
0.5,1,5.0,5.0,834.9580764770001,1.0,part_2,go,350.0,250.0,1.0,,,,,,,,,orange,circle
0.5,0,6.0,6.0,600.978851318,1.0,part_2,go,350.0,250.0,1.0,,,,,,,,,white,line
1.0,1,6.0,,,1.0,,stop,350.0,300.0,4.0,,,,,,,,,cyan,cross
1.0,1,5.0,5.0,651.382923126,1.0,part_2,stop,400.0,300.0,3.0,,,,,,,,,cyan,cross
4.0,1,5.0,,,1.0,,stop,350.0,300.0,4.0,,,,,,,,,magenta,hexagon
2.0,0,5.0,5.0,417.70195961,1.0,part_2,go,350.0,300.0,1.0,,,,,,,,,gray,square
1.0,1,6.0,,,1.0,,stop,350.0,350.0,4.0,,,,,,,,,cyan,cross
1.0,0,6.0,6.0,634.453058243,1.0,part_2,go,350.0,350.0,1.0,,,,,,,,,yellow,flipped triangle
0.5,1,5.0,,,1.0,,stop,400.0,350.0,4.0,,,,,,,,,orange,circle
1.0,0,6.0,6.0,434.06701088,1.0,part_2,go,400.0,350.0,1.0,,,,,,,,,yellow,flipped triangle
1.0,0,5.0,5.0,584.46598053,1.0,part_2,go,400.0,350.0,1.0,,,,,,,,,yellow,flipped triangle
4.0,0,6.0,6.0,667.9790019989999,1.0,part_2,go,400.0,350.0,1.0,,,,,,,,,blue,triangle
4.0,0,6.0,6.0,584.023952484,1.0,part_2,go,400.0,350.0,1.0,,,,,,,,,blue,triangle
4.0,1,5.0,,,1.0,,stop,450.0,350.0,4.0,,,,,,,,,magenta,hexagon
2.0,1,5.0,,,1.0,,stop,500.0,350.0,4.0,,,,,,,,,green,diamond
0.5,1,6.0,6.0,517.050981522,1.0,part_2,go,500.0,350.0,1.0,,,,,,,,,orange,circle
4.0,1,6.0,,,2.0,,stop,500.0,400.0,4.0,,,,,,,,,magenta,hexagon
0.5,0,6.0,6.0,634.2818737030001,2.0,part_2,go,500.0,400.0,1.0,,,,,,,,,white,line
1.0,0,6.0,6.0,534.983873367,2.0,part_2,go,500.0,400.0,1.0,,,,,,,,,yellow,flipped triangle
0.5,1,5.0,5.0,500.473976135,2.0,part_2,stop,550.0,400.0,3.0,,,,,,,,,orange,circle
2.0,1,5.0,5.0,601.1450290680001,2.0,part_2,stop,500.0,400.0,3.0,,,,,,,,,green,diamond
1.0,1,6.0,,,2.0,,stop,500.0,450.0,4.0,,,,,,,,,cyan,cross
4.0,0,6.0,6.0,500.991106033,2.0,part_2,go,500.0,450.0,1.0,,,,,,,,,blue,triangle
2.0,0,5.0,5.0,651.1998176569999,2.0,part_2,go,500.0,450.0,1.0,,,,,,,,,gray,square
4.0,0,6.0,6.0,534.27195549,2.0,part_2,go,500.0,450.0,1.0,,,,,,,,,blue,triangle
2.0,0,5.0,5.0,850.89802742,2.0,part_2,go,500.0,450.0,1.0,,,,,,,,,gray,square
0.5,0,5.0,5.0,717.960119247,2.0,part_2,go,500.0,450.0,1.0,,,,,,,,,white,line
0.5,1,5.0,5.0,384.680986404,2.0,part_2,go,500.0,450.0,1.0,,,,,,,,,orange,circle
1.0,1,6.0,6.0,267.367124557,2.0,part_2,stop,500.0,500.0,3.0,,,,,,,,,cyan,cross
0.5,1,5.0,,,2.0,,stop,450.0,500.0,4.0,,,,,,,,,orange,circle
2.0,1,6.0,6.0,500.783920288,2.0,part_2,go,450.0,500.0,1.0,,,,,,,,,green,diamond
4.0,1,6.0,6.0,550.338983536,2.0,part_2,stop,450.0,450.0,3.0,,,,,,,,,magenta,hexagon
2.0,0,6.0,6.0,584.2301845549999,2.0,part_2,go,450.0,450.0,1.0,,,,,,,,,gray,square
2.0,1,5.0,,,2.0,,stop,500.0,450.0,4.0,,,,,,,,,green,diamond
4.0,0,5.0,5.0,617.736101151,2.0,part_2,go,500.0,450.0,1.0,,,,,,,,,blue,triangle
2.0,0,6.0,6.0,584.6850872040001,2.0,part_2,go,500.0,450.0,1.0,,,,,,,,,gray,square
2.0,1,5.0,,,2.0,,stop,550.0,450.0,4.0,,,,,,,,,green,diamond
0.5,1,5.0,,,2.0,,stop,600.0,450.0,4.0,,,,,,,,,orange,circle
1.0,0,6.0,6.0,567.9419040680001,2.0,part_2,go,600.0,450.0,1.0,,,,,,,,,yellow,flipped triangle
0.5,1,5.0,5.0,767.9371833800001,2.0,part_2,stop,650.0,450.0,3.0,,,,,,,,,orange,circle
1.0,0,6.0,6.0,700.874090195,2.0,part_2,go,650.0,450.0,1.0,,,,,,,,,yellow,flipped triangle
0.5,1,5.0,5.0,901.170015335,2.0,part_2,go,650.0,450.0,1.0,,,,,,,,,orange,circle
0.5,0,6.0,6.0,667.787075043,2.0,part_2,go,650.0,450.0,1.0,,,,,,,,,white,line
0.5,1,5.0,,,2.0,,stop,600.0,450.0,4.0,,,,,,,,,orange,circle
1.0,1,5.0,5.0,868.068933487,2.0,part_2,stop,650.0,450.0,3.0,,,,,,,,,cyan,cross
0.5,1,5.0,,,2.0,,stop,600.0,450.0,4.0,,,,,,,,,orange,circle
4.0,0,6.0,6.0,717.617988586,2.0,part_2,go,600.0,450.0,1.0,,,,,,,,,blue,triangle
2.0,0,5.0,,,2.0,,go,600.0,450.0,5.0,,,,,,,,,gray,square
0.5,1,5.0,5.0,534.3458652500001,2.0,part_2,go,600.0,450.0,1.0,,,,,,,,,orange,circle
2.0,0,6.0,6.0,400.259017944,2.0,part_2,go,600.0,450.0,1.0,,,,,,,,,gray,square
0.5,1,6.0,6.0,500.92887878400006,2.0,part_2,stop,600.0,400.0,3.0,,,,,,,,,orange,circle
0.5,1,6.0,,,2.0,,stop,600.0,350.0,4.0,,,,,,,,,orange,circle
4.0,0,6.0,6.0,717.498064041,3.0,part_2,go,600.0,350.0,1.0,,,,,,,,,blue,triangle
4.0,0,6.0,,,3.0,,go,600.0,350.0,5.0,,,,,,,,,blue,triangle
1.0,0,5.0,5.0,967.713117599,3.0,part_2,go,600.0,350.0,1.0,,,,,,,,,yellow,flipped triangle
2.0,0,6.0,6.0,484.040021896,3.0,part_2,go,600.0,350.0,1.0,,,,,,,,,gray,square
0.5,0,6.0,6.0,451.021909714,3.0,part_2,go,600.0,350.0,1.0,,,,,,,,,white,line
0.5,0,5.0,5.0,618.096828461,3.0,part_2,go,600.0,350.0,1.0,,,,,,,,,white,line
2.0,0,6.0,6.0,384.600162506,3.0,part_2,go,600.0,350.0,1.0,,,,,,,,,gray,square
1.0,1,6.0,6.0,567.687034607,3.0,part_2,stop,600.0,400.0,3.0,,,,,,,,,cyan,cross
1.0,0,6.0,6.0,967.864990234,3.0,part_2,go,600.0,400.0,1.0,,,,,,,,,yellow,flipped triangle
0.5,1,6.0,,,3.0,,stop,600.0,350.0,4.0,,,,,,,,,orange,circle
0.5,0,5.0,5.0,500.40388107300004,3.0,part_2,go,600.0,350.0,1.0,,,,,,,,,white,line
4.0,0,6.0,6.0,751.540184021,3.0,part_2,go,600.0,350.0,1.0,,,,,,,,,blue,triangle
2.0,1,5.0,5.0,417.557954788,3.0,part_2,stop,650.0,350.0,3.0,,,,,,,,,green,diamond
4.0,1,5.0,,,3.0,,stop,600.0,350.0,4.0,,,,,,,,,magenta,hexagon
1.0,0,5.0,5.0,717.8139686579999,3.0,part_2,go,600.0,350.0,1.0,,,,,,,,,yellow,flipped triangle
2.0,0,5.0,5.0,584.2301845549999,3.0,part_2,go,600.0,350.0,1.0,,,,,,,,,gray,square
4.0,1,6.0,6.0,667.9050922389999,3.0,part_2,go,600.0,350.0,1.0,,,,,,,,,magenta,hexagon
0.5,1,5.0,5.0,685.039997101,3.0,part_2,stop,650.0,350.0,3.0,,,,,,,,,orange,circle
1.0,0,6.0,6.0,518.061161041,3.0,part_2,go,650.0,350.0,1.0,,,,,,,,,yellow,flipped triangle
2.0,0,5.0,5.0,417.660951614,3.0,part_2,go,650.0,350.0,1.0,,,,,,,,,gray,square
0.5,0,6.0,6.0,467.789173126,3.0,part_2,go,650.0,350.0,1.0,,,,,,,,,white,line
1.0,0,6.0,6.0,450.82902908299997,3.0,part_2,go,650.0,350.0,1.0,,,,,,,,,yellow,flipped triangle
1.0,1,5.0,,,3.0,,stop,600.0,350.0,4.0,,,,,,,,,cyan,cross
2.0,0,6.0,6.0,550.551891327,3.0,part_2,go,600.0,350.0,1.0,,,,,,,,,gray,square
2.0,1,5.0,,,3.0,,stop,650.0,350.0,4.0,,,,,,,,,green,diamond
0.5,0,5.0,5.0,718.1689739230001,3.0,part_2,go,650.0,350.0,1.0,,,,,,,,,white,line
4.0,1,6.0,,,3.0,,stop,650.0,400.0,4.0,,,,,,,,,magenta,hexagon
4.0,1,6.0,,,3.0,,stop,650.0,450.0,4.0,,,,,,,,,magenta,hexagon
2.0,1,5.0,5.0,650.856018066,3.0,part_2,go,650.0,450.0,1.0,,,,,,,,,green,diamond
4.0,1,5.0,5.0,584.561109543,3.0,part_2,stop,700.0,450.0,3.0,,,,,,,,,magenta,hexagon
0.5,1,5.0,,,3.0,,go,700.0,450.0,5.0,,,,,,,,,orange,circle
1.0,1,6.0,6.0,466.939926147,3.0,part_2,go,700.0,450.0,1.0,,,,,,,,,cyan,cross
1.0,1,6.0,6.0,668.151855469,3.0,part_2,stop,700.0,500.0,3.0,,,,,,,,,cyan,cross
4.0,1,5.0,5.0,734.846830368,3.0,part_2,stop,650.0,500.0,3.0,,,,,,,,,magenta,hexagon
1.0,0,5.0,5.0,934.826135635,3.0,part_2,go,650.0,500.0,1.0,,,,,,,,,yellow,flipped triangle
0.5,0,5.0,5.0,685.021877289,3.0,part_2,go,650.0,500.0,1.0,,,,,,,,,white,line
0.5,0,5.0,5.0,534.590959549,4.0,part_2,go,650.0,500.0,1.0,,,,,,,,,white,line
2.0,1,6.0,6.0,484.298944473,4.0,part_2,stop,650.0,450.0,3.0,,,,,,,,,green,diamond
2.0,1,5.0,5.0,551.218986511,4.0,part_2,stop,600.0,450.0,3.0,,,,,,,,,green,diamond
4.0,0,5.0,5.0,768.238067627,4.0,part_2,go,600.0,450.0,1.0,,,,,,,,,blue,triangle
0.5,0,5.0,5.0,751.6310215000001,4.0,part_2,go,600.0,450.0,1.0,,,,,,,,,white,line
1.0,0,5.0,5.0,384.25707817100005,4.0,part_2,go,600.0,450.0,1.0,,,,,,,,,yellow,flipped triangle
0.5,1,6.0,,,4.0,,stop,600.0,400.0,4.0,,,,,,,,,orange,circle
0.5,0,5.0,5.0,584.042072296,4.0,part_2,go,600.0,400.0,1.0,,,,,,,,,white,line
1.0,1,6.0,6.0,801.090955734,4.0,part_2,go,600.0,400.0,1.0,,,,,,,,,cyan,cross
1.0,0,6.0,6.0,734.497070312,4.0,part_2,go,600.0,400.0,1.0,,,,,,,,,yellow,flipped triangle
4.0,1,6.0,,,4.0,,stop,600.0,450.0,4.0,,,,,,,,,magenta,hexagon
2.0,0,6.0,6.0,501.62386894199994,4.0,part_2,go,600.0,450.0,1.0,,,,,,,,,gray,square
1.0,1,6.0,6.0,700.5989551539999,4.0,part_2,go,600.0,450.0,1.0,,,,,,,,,cyan,cross
0.5,0,5.0,5.0,734.642982483,4.0,part_2,go,600.0,450.0,1.0,,,,,,,,,white,line
2.0,1,6.0,6.0,734.8079681400001,4.0,part_2,go,600.0,450.0,1.0,,,,,,,,,green,diamond
2.0,1,6.0,6.0,501.06906890900007,4.0,part_2,go,600.0,450.0,1.0,,,,,,,,,green,diamond
2.0,0,5.0,5.0,700.9398937230001,4.0,part_2,go,600.0,450.0,1.0,,,,,,,,,gray,square
4.0,0,5.0,5.0,801.249027252,4.0,part_2,go,600.0,450.0,1.0,,,,,,,,,blue,triangle
0.5,0,5.0,5.0,600.898981094,4.0,part_2,go,600.0,450.0,1.0,,,,,,,,,white,line
1.0,0,6.0,6.0,684.489011765,4.0,part_2,go,600.0,450.0,1.0,,,,,,,,,yellow,flipped triangle
1.0,1,5.0,5.0,517.7450180049999,4.0,part_2,stop,550.0,450.0,3.0,,,,,,,,,cyan,cross
4.0,0,5.0,5.0,751.308917999,4.0,part_2,go,550.0,450.0,1.0,,,,,,,,,blue,triangle
1.0,1,6.0,6.0,550.638914108,4.0,part_2,stop,550.0,500.0,3.0,,,,,,,,,cyan,cross
0.5,0,5.0,5.0,851.819038391,4.0,part_2,go,550.0,500.0,1.0,,,,,,,,,white,line
1.0,1,6.0,,,4.0,,stop,550.0,450.0,4.0,,,,,,,,,cyan,cross
4.0,0,5.0,5.0,684.3831539150001,4.0,part_2,go,550.0,450.0,1.0,,,,,,,,,blue,triangle
2.0,1,6.0,,,4.0,,stop,550.0,500.0,4.0,,,,,,,,,green,diamond
0.5,1,6.0,6.0,651.184082031,4.0,part_2,stop,550.0,550.0,3.0,,,,,,,,,orange,circle
2.0,0,5.0,5.0,934.9830150600001,4.0,part_2,go,550.0,550.0,1.0,,,,,,,,,gray,square
0.5,1,5.0,,,4.0,,stop,500.0,550.0,4.0,,,,,,,,,orange,circle
0.5,1,6.0,6.0,584.0990543370001,4.0,part_2,stop,500.0,500.0,3.0,,,,,,,,,orange,circle
1.0,1,5.0,5.0,567.445993423,4.0,part_2,stop,550.0,500.0,3.0,,,,,,,,,cyan,cross
2.0,0,6.0,6.0,784.171104431,4.0,part_2,go,550.0,500.0,1.0,,,,,,,,,gray,square
4.0,0,5.0,,,4.0,,go,550.0,500.0,5.0,,,,,,,,,blue,triangle
2.0,1,6.0,,,4.0,,stop,550.0,450.0,4.0,,,,,,,,,green,diamond
2.0,1,6.0,,,4.0,,stop,550.0,500.0,4.0,,,,,,,,,green,diamond
4.0,1,5.0,5.0,601.432085037,5.0,part_2,stop,500.0,500.0,3.0,,,,,,,,,magenta,hexagon
4.0,1,5.0,5.0,434.12899971,5.0,part_2,stop,450.0,500.0,3.0,,,,,,,,,magenta,hexagon
1.0,0,6.0,6.0,550.836086273,5.0,part_2,go,450.0,500.0,1.0,,,,,,,,,yellow,flipped triangle
1.0,1,6.0,6.0,684.811115265,5.0,part_2,stop,450.0,550.0,3.0,,,,,,,,,cyan,cross
0.5,1,5.0,5.0,701.189041138,5.0,part_2,go,450.0,550.0,1.0,,,,,,,,,orange,circle
0.5,0,5.0,5.0,784.912109375,5.0,part_2,go,450.0,550.0,1.0,,,,,,,,,white,line
1.0,0,6.0,6.0,668.625831604,5.0,part_2,go,450.0,550.0,1.0,,,,,,,,,yellow,flipped triangle
0.5,1,5.0,5.0,401.00288391099997,5.0,part_2,stop,400.0,550.0,3.0,,,,,,,,,orange,circle
0.5,0,6.0,6.0,651.048183441,5.0,part_2,go,400.0,550.0,1.0,,,,,,,,,white,line
2.0,0,6.0,6.0,517.45891571,5.0,part_2,go,400.0,550.0,1.0,,,,,,,,,gray,square
2.0,0,5.0,5.0,534.295082092,5.0,part_2,go,400.0,550.0,1.0,,,,,,,,,gray,square
2.0,1,5.0,5.0,534.456968307,5.0,part_2,stop,350.0,550.0,3.0,,,,,,,,,green,diamond
1.0,1,6.0,,,5.0,,stop,350.0,500.0,4.0,,,,,,,,,cyan,cross
1.0,0,6.0,6.0,367.805957794,5.0,part_2,go,350.0,500.0,1.0,,,,,,,,,yellow,flipped triangle
1.0,1,5.0,5.0,751.354217529,5.0,part_2,go,350.0,500.0,1.0,,,,,,,,,cyan,cross
0.5,0,5.0,5.0,651.168107986,5.0,part_2,go,350.0,500.0,1.0,,,,,,,,,white,line
0.5,1,5.0,,,5.0,,stop,300.0,500.0,4.0,,,,,,,,,orange,circle
4.0,1,5.0,5.0,500.649929047,5.0,part_2,go,300.0,500.0,1.0,,,,,,,,,magenta,hexagon
4.0,0,6.0,6.0,583.950996399,5.0,part_2,go,300.0,500.0,1.0,,,,,,,,,blue,triangle
2.0,0,6.0,6.0,417.26708412199997,5.0,part_2,go,300.0,500.0,1.0,,,,,,,,,gray,square
2.0,0,6.0,6.0,300.726890564,5.0,part_2,go,300.0,500.0,1.0,,,,,,,,,gray,square
1.0,0,6.0,6.0,284.14893150300003,5.0,part_2,go,300.0,500.0,1.0,,,,,,,,,yellow,flipped triangle
1.0,0,5.0,5.0,284.067869186,5.0,part_2,go,300.0,500.0,1.0,,,,,,,,,yellow,flipped triangle
2.0,0,5.0,5.0,317.05188751199995,5.0,part_2,go,300.0,500.0,1.0,,,,,,,,,gray,square
4.0,1,6.0,6.0,584.952116013,5.0,part_2,stop,300.0,550.0,3.0,,,,,,,,,magenta,hexagon
1.0,1,6.0,6.0,584.989070892,5.0,part_2,stop,300.0,500.0,3.0,,,,,,,,,cyan,cross
2.0,0,6.0,6.0,567.47508049,5.0,part_2,go,300.0,500.0,1.0,,,,,,,,,gray,square
0.5,1,6.0,,,5.0,,stop,300.0,450.0,4.0,,,,,,,,,orange,circle
2.0,0,5.0,5.0,367.39301681499995,5.0,part_2,go,300.0,450.0,1.0,,,,,,,,,gray,square
0.5,1,6.0,6.0,551.162004471,5.0,part_2,stop,300.0,500.0,3.0,,,,,,,,,orange,circle
2.0,1,6.0,6.0,600.666046143,5.0,part_2,go,300.0,500.0,1.0,,,,,,,,,green,diamond
2.0,0,5.0,5.0,568.023204803,5.0,part_2,go,300.0,500.0,1.0,,,,,,,,,gray,square
1.0,1,5.0,,,5.0,,stop,350.0,500.0,4.0,,,,,,,,,cyan,cross
4.0,1,5.0,5.0,350.960969925,5.0,part_2,stop,400.0,500.0,3.0,,,,,,,,,magenta,hexagon
1.0,0,6.0,6.0,534.705877304,5.0,part_2,go,400.0,500.0,1.0,,,,,,,,,yellow,flipped triangle
2.0,1,5.0,,,5.0,,stop,350.0,500.0,4.0,,,,,,,,,green,diamond
4.0,0,5.0,5.0,551.0299205780001,6.0,part_2,go,350.0,500.0,1.0,,,,,,,,,blue,triangle
1.0,0,6.0,6.0,484.488010406,6.0,part_2,go,350.0,500.0,1.0,,,,,,,,,yellow,flipped triangle
4.0,1,6.0,6.0,467.61202812199997,6.0,part_2,stop,350.0,450.0,3.0,,,,,,,,,magenta,hexagon
4.0,1,5.0,5.0,500.66614151,6.0,part_2,go,350.0,450.0,1.0,,,,,,,,,magenta,hexagon
2.0,1,6.0,6.0,550.387144089,6.0,part_2,stop,350.0,400.0,3.0,,,,,,,,,green,diamond
0.5,1,5.0,,,6.0,,stop,400.0,400.0,4.0,,,,,,,,,orange,circle
2.0,1,6.0,6.0,467.734098434,6.0,part_2,stop,400.0,350.0,3.0,,,,,,,,,green,diamond
0.5,0,5.0,5.0,434.09705162,6.0,part_2,go,400.0,350.0,1.0,,,,,,,,,white,line
1.0,0,5.0,5.0,667.858839035,6.0,part_2,go,400.0,350.0,1.0,,,,,,,,,yellow,flipped triangle
4.0,1,6.0,6.0,667.870044708,6.0,part_2,go,400.0,350.0,1.0,,,,,,,,,magenta,hexagon
1.0,0,5.0,5.0,300.46582222,6.0,part_2,go,400.0,350.0,1.0,,,,,,,,,yellow,flipped triangle
2.0,1,5.0,5.0,300.843954086,6.0,part_2,stop,450.0,350.0,3.0,,,,,,,,,green,diamond
4.0,0,5.0,5.0,617.653131485,6.0,part_2,go,450.0,350.0,1.0,,,,,,,,,blue,triangle
1.0,0,6.0,6.0,450.575828552,6.0,part_2,go,450.0,350.0,1.0,,,,,,,,,yellow,flipped triangle
1.0,1,6.0,,,6.0,,stop,450.0,300.0,4.0,,,,,,,,,cyan,cross
4.0,0,5.0,5.0,417.422056198,6.0,part_2,go,450.0,300.0,1.0,,,,,,,,,blue,triangle
0.5,1,5.0,5.0,567.515134811,6.0,part_2,stop,400.0,300.0,3.0,,,,,,,,,orange,circle
0.5,0,5.0,5.0,701.152801514,6.0,part_2,go,400.0,300.0,1.0,,,,,,,,,white,line
0.5,0,6.0,6.0,484.11297798199996,6.0,part_2,go,400.0,300.0,1.0,,,,,,,,,white,line
4.0,1,5.0,5.0,451.133966446,6.0,part_2,stop,350.0,300.0,3.0,,,,,,,,,magenta,hexagon
4.0,0,6.0,6.0,417.086839676,6.0,part_2,go,350.0,300.0,1.0,,,,,,,,,blue,triangle
4.0,0,5.0,5.0,301.21421814,6.0,part_2,go,350.0,300.0,1.0,,,,,,,,,blue,triangle
0.5,0,5.0,5.0,567.255973816,6.0,part_2,go,350.0,300.0,1.0,,,,,,,,,white,line
2.0,1,6.0,6.0,301.16701126099997,6.0,part_2,stop,350.0,350.0,3.0,,,,,,,,,green,diamond
1.0,1,5.0,5.0,517.4939632420001,6.0,part_2,go,350.0,350.0,1.0,,,,,,,,,cyan,cross
0.5,0,5.0,5.0,584.528923035,6.0,part_2,go,350.0,350.0,1.0,,,,,,,,,white,line
2.0,0,6.0,6.0,317.587852478,6.0,part_2,go,350.0,350.0,1.0,,,,,,,,,gray,square
4.0,0,6.0,6.0,333.973169327,6.0,part_2,go,350.0,350.0,1.0,,,,,,,,,blue,triangle
2.0,0,5.0,5.0,300.175905228,6.0,part_2,go,350.0,350.0,1.0,,,,,,,,,gray,square
0.5,1,6.0,6.0,501.477956772,6.0,part_2,go,350.0,350.0,1.0,,,,,,,,,orange,circle
2.0,1,6.0,6.0,301.00798606899997,6.0,part_2,go,350.0,350.0,1.0,,,,,,,,,green,diamond
0.5,1,6.0,6.0,300.731897354,6.0,part_2,stop,350.0,300.0,3.0,,,,,,,,,orange,circle
1.0,0,6.0,6.0,600.904941559,6.0,part_2,go,350.0,300.0,1.0,,,,,,,,,yellow,flipped triangle
4.0,0,6.0,6.0,450.716972351,6.0,part_2,go,350.0,300.0,1.0,,,,,,,,,blue,triangle
2.0,1,6.0,6.0,467.03886985800006,6.0,part_2,go,350.0,300.0,1.0,,,,,,,,,green,diamond
4.0,1,5.0,5.0,300.418138504,6.0,part_2,go,350.0,300.0,1.0,,,,,,,,,magenta,hexagon
4.0,0,6.0,6.0,484.19690132100004,7.0,part_2,go,350.0,300.0,1.0,,,,,,,,,blue,triangle
2.0,0,5.0,5.0,484.59196090700004,7.0,part_2,go,350.0,300.0,1.0,,,,,,,,,gray,square
4.0,0,6.0,6.0,301.317930222,7.0,part_2,go,350.0,300.0,1.0,,,,,,,,,blue,triangle
0.5,0,6.0,6.0,384.265899658,7.0,part_2,go,350.0,300.0,1.0,,,,,,,,,white,line
2.0,1,5.0,5.0,334.21111106899997,7.0,part_2,stop,300.0,300.0,3.0,,,,,,,,,green,diamond
4.0,1,6.0,,,7.0,,stop,300.0,250.0,4.0,,,,,,,,,magenta,hexagon
1.0,1,6.0,,,7.0,,stop,300.0,300.0,4.0,,,,,,,,,cyan,cross
1.0,0,6.0,6.0,350.800037384,7.0,part_2,go,300.0,300.0,1.0,,,,,,,,,yellow,flipped triangle
0.5,0,5.0,5.0,584.127902985,7.0,part_2,go,300.0,300.0,1.0,,,,,,,,,white,line
2.0,0,5.0,5.0,383.72087478599997,7.0,part_2,go,300.0,300.0,1.0,,,,,,,,,gray,square
2.0,0,6.0,6.0,467.27299690200005,7.0,part_2,go,300.0,300.0,1.0,,,,,,,,,gray,square
0.5,1,5.0,,,7.0,,stop,250.0,300.0,4.0,,,,,,,,,orange,circle
1.0,0,5.0,5.0,517.9231166840001,7.0,part_2,go,250.0,300.0,1.0,,,,,,,,,yellow,flipped triangle
4.0,0,6.0,6.0,467.846155167,7.0,part_2,go,250.0,300.0,1.0,,,,,,,,,blue,triangle
1.0,0,6.0,6.0,400.692939758,7.0,part_2,go,250.0,300.0,1.0,,,,,,,,,yellow,flipped triangle
0.5,1,5.0,5.0,450.71387290999996,7.0,part_2,stop,300.0,300.0,3.0,,,,,,,,,orange,circle
4.0,0,5.0,5.0,501.23119354199997,7.0,part_2,go,300.0,300.0,1.0,,,,,,,,,blue,triangle
0.5,1,6.0,6.0,384.299993515,7.0,part_2,stop,300.0,350.0,3.0,,,,,,,,,orange,circle
0.5,1,5.0,5.0,583.67395401,7.0,part_2,go,300.0,350.0,1.0,,,,,,,,,orange,circle
4.0,1,6.0,,,7.0,,stop,300.0,300.0,4.0,,,,,,,,,magenta,hexagon
0.5,1,5.0,5.0,384.05108451800004,7.0,part_2,stop,250.0,300.0,3.0,,,,,,,,,orange,circle
2.0,0,6.0,6.0,517.9669857030001,7.0,part_2,go,250.0,300.0,1.0,,,,,,,,,gray,square
1.0,1,6.0,,,7.0,,stop,250.0,350.0,4.0,,,,,,,,,cyan,cross
1.0,1,5.0,,,7.0,,stop,200.0,350.0,4.0,,,,,,,,,cyan,cross
1.0,1,5.0,5.0,384.306907654,7.0,part_2,go,200.0,350.0,1.0,,,,,,,,,cyan,cross
4.0,1,6.0,6.0,467.574119568,7.0,part_2,go,200.0,350.0,1.0,,,,,,,,,magenta,hexagon
0.5,0,6.0,6.0,451.014041901,7.0,part_2,go,200.0,350.0,1.0,,,,,,,,,white,line
0.5,1,5.0,,,7.0,,stop,250.0,350.0,4.0,,,,,,,,,orange,circle
2.0,0,5.0,5.0,684.234142303,7.0,part_2,go,250.0,350.0,1.0,,,,,,,,,gray,square
1.0,1,5.0,5.0,317.380905151,7.0,part_2,go,250.0,350.0,1.0,,,,,,,,,cyan,cross
1.0,1,5.0,,,7.0,,stop,300.0,350.0,4.0,,,,,,,,,cyan,cross
1.0,0,6.0,6.0,367.18583107,7.0,part_2,go,300.0,350.0,1.0,,,,,,,,,yellow,flipped triangle
0.5,0,5.0,5.0,417.339086533,7.0,part_2,go,300.0,350.0,1.0,,,,,,,,,white,line
4.0,1,6.0,6.0,300.948143005,7.0,part_2,stop,300.0,400.0,3.0,,,,,,,,,magenta,hexagon
4.0,0,6.0,6.0,517.405986786,7.0,part_2,go,300.0,400.0,1.0,,,,,,,,,blue,triangle
0.5,0,5.0,5.0,601.208925247,7.0,part_2,go,300.0,400.0,1.0,,,,,,,,,white,line
0.5,0,6.0,6.0,484.042167664,8.0,part_2,go,300.0,400.0,1.0,,,,,,,,,white,line
1.0,1,6.0,6.0,500.589847565,8.0,part_2,go,300.0,400.0,1.0,,,,,,,,,cyan,cross
2.0,1,5.0,5.0,351.03392601,8.0,part_2,stop,350.0,400.0,3.0,,,,,,,,,green,diamond
4.0,0,5.0,5.0,500.786066055,8.0,part_2,go,350.0,400.0,1.0,,,,,,,,,blue,triangle
4.0,1,6.0,6.0,401.149988174,8.0,part_2,stop,350.0,350.0,3.0,,,,,,,,,magenta,hexagon
1.0,1,6.0,6.0,517.725944519,8.0,part_2,go,350.0,350.0,1.0,,,,,,,,,cyan,cross
4.0,0,5.0,5.0,617.390155792,8.0,part_2,go,350.0,350.0,1.0,,,,,,,,,blue,triangle
4.0,1,6.0,,,8.0,,stop,350.0,300.0,4.0,,,,,,,,,magenta,hexagon
1.0,1,5.0,5.0,350.598812103,8.0,part_2,stop,300.0,300.0,3.0,,,,,,,,,cyan,cross
0.5,0,5.0,5.0,434.226989746,8.0,part_2,go,300.0,300.0,1.0,,,,,,,,,white,line
4.0,0,6.0,6.0,584.567070007,8.0,part_2,go,300.0,300.0,1.0,,,,,,,,,blue,triangle
0.5,0,6.0,6.0,384.001016617,8.0,part_2,go,300.0,300.0,1.0,,,,,,,,,white,line
1.0,0,6.0,6.0,434.284925461,8.0,part_2,go,300.0,300.0,1.0,,,,,,,,,yellow,flipped triangle
2.0,1,5.0,,,8.0,,stop,250.0,300.0,4.0,,,,,,,,,green,diamond
4.0,0,5.0,5.0,367.197036743,8.0,part_2,go,250.0,300.0,1.0,,,,,,,,,blue,triangle
4.0,1,5.0,,,8.0,,stop,300.0,300.0,4.0,,,,,,,,,magenta,hexagon
2.0,1,5.0,5.0,651.082992554,8.0,part_2,go,300.0,300.0,1.0,,,,,,,,,green,diamond
4.0,0,5.0,5.0,534.093141556,8.0,part_2,go,300.0,300.0,1.0,,,,,,,,,blue,triangle
4.0,1,5.0,5.0,383.833169937,8.0,part_2,stop,350.0,300.0,3.0,,,,,,,,,magenta,hexagon
4.0,0,6.0,6.0,484.066963196,8.0,part_2,go,350.0,300.0,1.0,,,,,,,,,blue,triangle
2.0,0,6.0,6.0,534.307003021,8.0,part_2,go,350.0,300.0,1.0,,,,,,,,,gray,square
4.0,0,6.0,6.0,401.22795105,8.0,part_2,go,350.0,300.0,1.0,,,,,,,,,blue,triangle
4.0,1,5.0,5.0,451.471090317,8.0,part_2,go,350.0,300.0,1.0,,,,,,,,,magenta,hexagon
1.0,0,5.0,5.0,550.8129596709999,8.0,part_2,go,350.0,300.0,1.0,,,,,,,,,yellow,flipped triangle
2.0,0,6.0,6.0,366.858005524,8.0,part_2,go,350.0,300.0,1.0,,,,,,,,,gray,square
4.0,1,6.0,6.0,417.465925217,8.0,part_2,stop,350.0,350.0,3.0,,,,,,,,,magenta,hexagon
1.0,1,6.0,,,8.0,,stop,350.0,300.0,4.0,,,,,,,,,cyan,cross
2.0,1,6.0,6.0,417.36388206500004,8.0,part_2,stop,350.0,350.0,3.0,,,,,,,,,green,diamond
0.5,0,5.0,5.0,517.962932587,8.0,part_2,go,350.0,350.0,1.0,,,,,,,,,white,line
2.0,0,6.0,6.0,500.77199935899995,8.0,part_2,go,350.0,350.0,1.0,,,,,,,,,gray,square
1.0,0,5.0,5.0,434.179782867,8.0,part_2,go,350.0,350.0,1.0,,,,,,,,,yellow,flipped triangle
4.0,1,5.0,5.0,550.931215286,8.0,part_2,go,350.0,350.0,1.0,,,,,,,,,magenta,hexagon
1.0,0,5.0,5.0,434.290885925,8.0,part_2,go,350.0,350.0,1.0,,,,,,,,,yellow,flipped triangle
4.0,1,5.0,5.0,417.20700264,8.0,part_2,stop,300.0,350.0,3.0,,,,,,,,,magenta,hexagon
4.0,1,6.0,,,8.0,,stop,300.0,300.0,4.0,,,,,,,,,magenta,hexagon
2.0,1,6.0,6.0,467.639923096,8.0,part_2,go,300.0,300.0,1.0,,,,,,,,,green,diamond
0.5,1,7.0,,,1.0,,stop,,,,0.0,,136.0,68.0,204.0,102.0,170.0,34.0,orange,circle
2.0,1,7.0,3.0,917.793035507,1.0,part_3,stop,,,,196.0,4.0,98.0,147.0,196.0,245.0,294.0,49.0,green,diamond
2.0,1,7.0,5.0,1150.96497536,1.0,part_3,stop,,,,68.0,2.0,102.0,204.0,34.0,170.0,68.0,136.0,green,diamond
4.0,0,7.0,1.0,634.649038315,1.0,part_3,go,,,,34.0,1.0,34.0,170.0,68.0,136.0,204.0,102.0,blue,triangle
2.0,0,7.0,2.0,2903.64599228,1.0,part_3,go,,,,88.0,2.0,132.0,88.0,264.0,220.0,44.0,176.0,gray,square
4.0,0,7.0,5.0,2653.14507484,1.0,part_3,go,,,,220.0,5.0,88.0,176.0,132.0,44.0,220.0,264.0,blue,triangle
2.0,0,7.0,3.0,2102.5779247299997,1.0,part_3,go,,,,98.0,2.0,49.0,196.0,98.0,147.0,294.0,245.0,gray,square
0.5,1,7.0,4.0,1935.39881706,1.0,part_3,stop,,,,49.0,1.0,294.0,245.0,98.0,49.0,196.0,147.0,orange,circle
0.5,1,7.0,2.0,1951.96413994,1.0,part_3,stop,,,,78.0,2.0,156.0,78.0,234.0,195.0,39.0,117.0,orange,circle
1.0,1,7.0,6.0,1185.0528717,1.0,part_3,stop,,,,245.0,5.0,98.0,147.0,49.0,294.0,196.0,245.0,cyan,cross
1.0,1,7.0,4.0,1217.64397621,1.0,part_3,stop,,,,39.0,1.0,234.0,156.0,195.0,39.0,117.0,78.0,cyan,cross
2.0,1,7.0,3.0,1467.99588203,1.0,part_3,stop,,,,117.0,3.0,78.0,39.0,117.0,195.0,234.0,156.0,green,diamond
4.0,1,7.0,2.0,1668.36094856,1.0,part_3,stop,,,,204.0,6.0,68.0,204.0,102.0,136.0,170.0,34.0,magenta,hexagon
0.5,1,7.0,4.0,1585.7899189,1.0,part_3,stop,,,,108.0,2.0,216.0,162.0,54.0,108.0,324.0,270.0,orange,circle
1.0,0,7.0,1.0,2102.5738716100004,1.0,part_3,go,,,,170.0,5.0,170.0,204.0,102.0,68.0,34.0,136.0,yellow,flipped triangle
0.5,0,7.0,4.0,1818.6750412,1.0,part_3,go,,,,54.0,1.0,270.0,216.0,324.0,54.0,162.0,108.0,white,line
4.0,0,7.0,4.0,1701.77912712,1.0,part_3,go,,,,245.0,5.0,294.0,98.0,49.0,245.0,196.0,147.0,blue,triangle
0.5,0,7.0,4.0,2102.41103172,1.0,part_3,go,,,,34.0,1.0,102.0,68.0,204.0,34.0,136.0,170.0,white,line
1.0,1,7.0,1.0,1201.74789429,1.0,part_3,stop,,,,132.0,3.0,132.0,220.0,176.0,264.0,44.0,88.0,cyan,cross
2.0,1,7.0,4.0,1451.75004005,1.0,part_3,stop,,,,170.0,5.0,68.0,102.0,136.0,170.0,34.0,204.0,green,diamond
4.0,1,7.0,3.0,1301.4440536500001,2.0,part_3,stop,,,,324.0,6.0,162.0,108.0,324.0,54.0,216.0,270.0,magenta,hexagon
4.0,1,7.0,3.0,868.041038513,2.0,part_3,stop,,,,270.0,5.0,162.0,54.0,270.0,216.0,324.0,108.0,magenta,hexagon
2.0,0,7.0,4.0,984.663009644,2.0,part_3,go,,,,44.0,1.0,176.0,132.0,220.0,44.0,264.0,88.0,gray,square
2.0,1,7.0,5.0,834.681987762,2.0,part_3,stop,,,,132.0,3.0,88.0,264.0,44.0,176.0,132.0,220.0,green,diamond
1.0,1,7.0,4.0,1001.21879578,2.0,part_3,stop,,,,68.0,2.0,34.0,170.0,136.0,68.0,102.0,204.0,cyan,cross
1.0,0,7.0,1.0,951.501131058,2.0,part_3,go,,,,195.0,5.0,195.0,39.0,78.0,156.0,117.0,234.0,yellow,flipped triangle
4.0,1,7.0,4.0,900.7480144499999,2.0,part_3,stop,,,,264.0,6.0,220.0,132.0,176.0,264.0,88.0,44.0,magenta,hexagon
2.0,1,7.0,5.0,533.6129665369999,2.0,part_3,stop,,,,39.0,1.0,234.0,156.0,78.0,195.0,39.0,117.0,green,diamond
2.0,1,7.0,6.0,334.074020386,2.0,part_3,stop,,,,54.0,1.0,162.0,270.0,324.0,108.0,216.0,54.0,green,diamond
0.5,1,7.0,4.0,767.43888855,2.0,part_3,stop,,,,88.0,2.0,176.0,220.0,44.0,88.0,264.0,132.0,orange,circle
2.0,1,7.0,3.0,917.5601005550001,2.0,part_3,stop,,,,220.0,5.0,88.0,44.0,220.0,176.0,264.0,132.0,green,diamond
1.0,1,7.0,4.0,567.553043365,2.0,part_3,stop,,,,68.0,2.0,102.0,204.0,170.0,68.0,34.0,136.0,cyan,cross
4.0,0,7.0,2.0,2119.41719055,2.0,part_3,go,,,,204.0,6.0,170.0,204.0,68.0,136.0,34.0,102.0,blue,triangle
4.0,1,7.0,4.0,1201.93099976,2.0,part_3,stop,,,,220.0,5.0,176.0,264.0,44.0,220.0,132.0,88.0,magenta,hexagon
1.0,0,7.0,3.0,1151.54290199,2.0,part_3,go,,,,117.0,3.0,39.0,195.0,117.0,234.0,156.0,78.0,yellow,flipped triangle
2.0,0,7.0,5.0,1302.23321915,2.0,part_3,go,,,,68.0,2.0,34.0,204.0,136.0,170.0,68.0,102.0,gray,square
2.0,1,7.0,4.0,1034.71899033,2.0,part_3,stop,,,,270.0,5.0,216.0,324.0,162.0,270.0,54.0,108.0,green,diamond
1.0,0,7.0,3.0,1001.3189315799999,2.0,part_3,go,,,,196.0,4.0,49.0,245.0,196.0,147.0,98.0,294.0,yellow,flipped triangle
2.0,0,7.0,6.0,1234.90190506,2.0,part_3,go,,,,34.0,1.0,102.0,170.0,204.0,136.0,68.0,34.0,gray,square
1.0,1,7.0,5.0,968.217134476,2.0,part_3,stop,,,,49.0,1.0,147.0,245.0,196.0,98.0,49.0,294.0,cyan,cross
0.5,0,7.0,2.0,1067.98481941,3.0,part_3,go,,,,78.0,2.0,195.0,78.0,39.0,234.0,117.0,156.0,white,line
0.5,0,7.0,4.0,1151.32021904,3.0,part_3,go,,,,68.0,2.0,102.0,136.0,204.0,68.0,34.0,170.0,white,line
0.5,1,7.0,1.0,834.5720767969999,3.0,part_3,stop,,,,78.0,2.0,78.0,117.0,234.0,156.0,195.0,39.0,orange,circle
1.0,0,7.0,2.0,1418.28298569,3.0,part_3,go,,,,162.0,3.0,216.0,162.0,108.0,54.0,324.0,270.0,yellow,flipped triangle
1.0,0,7.0,6.0,1268.02515984,3.0,part_3,go,,,,176.0,4.0,132.0,264.0,88.0,44.0,220.0,176.0,yellow,flipped triangle
2.0,0,7.0,4.0,917.7079200740001,3.0,part_3,go,,,,39.0,1.0,78.0,156.0,234.0,39.0,117.0,195.0,gray,square
1.0,0,7.0,6.0,583.80317688,3.0,part_3,go,,,,204.0,6.0,136.0,34.0,102.0,68.0,170.0,204.0,yellow,flipped triangle
4.0,0,7.0,5.0,1385.79201698,3.0,part_3,go,,,,234.0,6.0,39.0,117.0,156.0,195.0,234.0,78.0,blue,triangle
1.0,0,7.0,1.0,717.498064041,3.0,part_3,go,,,,88.0,2.0,88.0,264.0,220.0,132.0,44.0,176.0,yellow,flipped triangle
1.0,1,7.0,1.0,1435.35208702,3.0,part_3,stop,,,,44.0,1.0,44.0,220.0,88.0,176.0,264.0,132.0,cyan,cross
4.0,1,7.0,1.0,1518.32509041,3.0,part_3,stop,,,,204.0,6.0,204.0,170.0,34.0,68.0,102.0,136.0,magenta,hexagon
1.0,1,7.0,2.0,917.958974838,3.0,part_3,stop,,,,195.0,5.0,156.0,195.0,78.0,117.0,234.0,39.0,cyan,cross
4.0,1,7.0,2.0,2586.50684357,3.0,part_3,stop,,,,195.0,5.0,39.0,195.0,156.0,117.0,234.0,78.0,magenta,hexagon
0.5,0,7.0,4.0,1184.75198746,3.0,part_3,go,,,,78.0,2.0,117.0,156.0,39.0,78.0,234.0,195.0,white,line
4.0,0,7.0,2.0,1785.24589539,3.0,part_3,go,,,,234.0,6.0,195.0,234.0,117.0,39.0,156.0,78.0,blue,triangle
4.0,0,7.0,4.0,1084.24305916,3.0,part_3,go,,,,216.0,4.0,162.0,54.0,324.0,216.0,108.0,270.0,blue,triangle
4.0,1,7.0,4.0,951.094150543,3.0,part_3,stop,,,,245.0,5.0,49.0,196.0,294.0,245.0,147.0,98.0,magenta,hexagon
0.5,1,7.0,6.0,750.952005386,3.0,part_3,stop,,,,176.0,4.0,220.0,88.0,44.0,264.0,132.0,176.0,orange,circle
0.5,0,7.0,2.0,1134.55104828,3.0,part_3,go,,,,49.0,1.0,98.0,49.0,196.0,294.0,147.0,245.0,white,line
2.0,0,7.0,2.0,1068.3529377,3.0,part_3,go,,,,54.0,1.0,216.0,54.0,324.0,108.0,162.0,270.0,gray,square
0.5,0,7.0,5.0,1150.97212791,4.0,part_3,go,,,,196.0,4.0,245.0,147.0,98.0,49.0,196.0,294.0,white,line
0.5,0,7.0,5.0,834.5799446110001,4.0,part_3,go,,,,88.0,2.0,176.0,132.0,264.0,220.0,88.0,44.0,white,line
2.0,0,7.0,6.0,717.67616272,4.0,part_3,go,,,,98.0,2.0,245.0,196.0,49.0,147.0,294.0,98.0,gray,square
1.0,0,7.0,4.0,1301.831007,4.0,part_3,go,,,,147.0,3.0,49.0,245.0,294.0,147.0,98.0,196.0,yellow,flipped triangle
0.5,0,7.0,5.0,551.114082336,4.0,part_3,go,,,,88.0,2.0,132.0,220.0,44.0,264.0,88.0,176.0,white,line
4.0,0,7.0,1.0,1301.63598061,4.0,part_3,go,,,,294.0,6.0,294.0,49.0,196.0,98.0,147.0,245.0,blue,triangle
4.0,1,7.0,1.0,1034.88183022,4.0,part_3,stop,,,,234.0,6.0,234.0,78.0,156.0,195.0,39.0,117.0,magenta,hexagon
1.0,0,7.0,5.0,650.587797165,4.0,part_3,go,,,,216.0,4.0,324.0,54.0,270.0,108.0,216.0,162.0,yellow,flipped triangle
1.0,1,7.0,2.0,1001.1010170000001,4.0,part_3,stop,,,,54.0,1.0,108.0,54.0,216.0,324.0,162.0,270.0,cyan,cross
4.0,1,7.0,6.0,985.0730896,4.0,part_3,stop,,,,294.0,6.0,49.0,245.0,98.0,147.0,196.0,294.0,magenta,hexagon
0.5,1,7.0,6.0,901.1709690089999,4.0,part_3,stop,,,,54.0,1.0,108.0,162.0,216.0,324.0,270.0,54.0,orange,circle
0.5,1,7.0,1.0,1785.5460643800002,4.0,part_3,stop,,,,170.0,5.0,170.0,68.0,34.0,102.0,204.0,136.0,orange,circle
2.0,0,7.0,5.0,768.19396019,4.0,part_3,go,,,,39.0,1.0,195.0,117.0,78.0,156.0,39.0,234.0,gray,square
0.5,0,7.0,6.0,917.952775955,4.0,part_3,go,,,,54.0,1.0,162.0,216.0,108.0,324.0,270.0,54.0,white,line
4.0,0,7.0,4.0,1668.50399971,4.0,part_3,go,,,,264.0,6.0,176.0,220.0,44.0,264.0,132.0,88.0,blue,triangle
0.5,1,7.0,6.0,701.118946075,4.0,part_3,stop,,,,196.0,4.0,147.0,245.0,49.0,294.0,98.0,196.0,orange,circle
2.0,0,7.0,6.0,917.551994324,4.0,part_3,go,,,,54.0,1.0,216.0,162.0,270.0,324.0,108.0,54.0,gray,square
4.0,0,7.0,1.0,1268.33415031,4.0,part_3,go,,,,324.0,6.0,324.0,270.0,108.0,216.0,54.0,162.0,blue,triangle
2.0,1,7.0,5.0,751.4829635619999,4.0,part_3,stop,,,,294.0,6.0,196.0,147.0,98.0,49.0,294.0,245.0,green,diamond
1.0,1,7.0,4.0,1201.38907433,4.0,part_3,stop,,,,54.0,1.0,270.0,324.0,108.0,54.0,216.0,162.0,cyan,cross
