raw_reward_magnitude,stim_reward,stepwise_reward_magnitude,paired_with_stopping,stim_location,response,reaction_time,block,which_phase,stop_signal_trial_type,left_SSD,right_SSD,accuracy,chosen_bidding_amount,chosen_bidding_level,possible_bid_1,possible_bid_2,possible_bid_3,possible_bid_4,possible_bid_5,possible_bid_6,color_text,shape_text
191.0,3.0,3.0,0,2.0,2.0,534.368038177,1.0,phase_1,,,,,,,,,,,,,yellow,flipped triangle
386.0,4.0,4.0,0,3.0,3.0,417.768955231,1.0,phase_1,,,,,,,,,,,,,gray,diamond
0.0,7.0,0.0,1,4.0,4.0,433.856010437,1.0,phase_1,,,,,,,,,,,,,green,cross
415.0,8.0,4.0,1,3.0,3.0,400.629997253,1.0,phase_1,,,,,,,,,,,,,cyan,hexagon
123.0,2.0,2.0,1,4.0,4.0,401.206016541,1.0,phase_1,,,,,,,,,,,,,orange,line
209.0,7.0,3.0,1,3.0,3.0,333.878040314,1.0,phase_1,,,,,,,,,,,,,green,cross
184.0,7.0,3.0,1,1.0,1.0,400.64406395000003,1.0,phase_1,,,,,,,,,,,,,green,cross
0.0,4.0,0.0,0,3.0,3.0,384.463787079,1.0,phase_1,,,,,,,,,,,,,gray,diamond
56.0,1.0,1.0,0,1.0,1.0,384.083032608,1.0,phase_1,,,,,,,,,,,,,magenta,circle
221.0,7.0,3.0,1,3.0,3.0,334.272861481,1.0,phase_1,,,,,,,,,,,,,green,cross
35.0,5.0,1.0,1,2.0,2.0,367.66409874,1.0,phase_1,,,,,,,,,,,,,white,square
201.0,3.0,3.0,0,2.0,2.0,401.327848434,1.0,phase_1,,,,,,,,,,,,,yellow,flipped triangle
65.0,1.0,1.0,0,1.0,1.0,317.45004653899997,1.0,phase_1,,,,,,,,,,,,,magenta,circle
394.0,8.0,4.0,1,1.0,1.0,418.041944504,1.0,phase_1,,,,,,,,,,,,,cyan,hexagon
0.0,6.0,0.0,0,2.0,2.0,351.139068604,1.0,phase_1,,,,,,,,,,,,,blue,triangle
86.0,2.0,2.0,1,1.0,1.0,350.942134857,1.0,phase_1,,,,,,,,,,,,,orange,line
91.0,2.0,2.0,1,4.0,4.0,417.65999794000004,1.0,phase_1,,,,,,,,,,,,,orange,line
96.0,2.0,2.0,1,4.0,4.0,401.25489234900004,1.0,phase_1,,,,,,,,,,,,,orange,line
220.0,3.0,3.0,0,1.0,1.0,384.691953659,1.0,phase_1,,,,,,,,,,,,,yellow,flipped triangle
406.0,8.0,4.0,1,4.0,4.0,384.272813797,1.0,phase_1,,,,,,,,,,,,,cyan,hexagon
104.0,6.0,2.0,0,1.0,1.0,367.838144302,1.0,phase_1,,,,,,,,,,,,,blue,triangle
0.0,4.0,0.0,0,4.0,4.0,367.32196807900004,1.0,phase_1,,,,,,,,,,,,,gray,diamond
193.0,7.0,3.0,1,3.0,3.0,417.493104935,1.0,phase_1,,,,,,,,,,,,,green,cross
391.0,8.0,4.0,1,4.0,4.0,401.18598938,1.0,phase_1,,,,,,,,,,,,,cyan,hexagon
404.0,8.0,4.0,1,3.0,3.0,401.610136032,1.0,phase_1,,,,,,,,,,,,,cyan,hexagon
417.0,4.0,4.0,0,1.0,1.0,384.50098037699996,1.0,phase_1,,,,,,,,,,,,,gray,diamond
386.0,8.0,4.0,1,4.0,4.0,367.496967316,1.0,phase_1,,,,,,,,,,,,,cyan,hexagon
115.0,2.0,2.0,1,2.0,2.0,350.793123245,1.0,phase_1,,,,,,,,,,,,,orange,line
410.0,8.0,4.0,1,3.0,3.0,367.89393425,1.0,phase_1,,,,,,,,,,,,,cyan,hexagon
88.0,6.0,2.0,0,1.0,1.0,300.669908524,1.0,phase_1,,,,,,,,,,,,,blue,triangle
0.0,4.0,0.0,0,2.0,2.0,401.24702453599997,1.0,phase_1,,,,,,,,,,,,,gray,diamond
0.0,4.0,0.0,0,1.0,1.0,367.732048035,1.0,phase_1,,,,,,,,,,,,,gray,diamond
0.0,8.0,0.0,1,3.0,3.0,434.615850449,1.0,phase_1,,,,,,,,,,,,,cyan,hexagon
189.0,3.0,3.0,0,1.0,1.0,368.188142776,1.0,phase_1,,,,,,,,,,,,,yellow,flipped triangle
220.0,7.0,3.0,1,3.0,3.0,384.22203064,1.0,phase_1,,,,,,,,,,,,,green,cross
46.0,1.0,1.0,0,4.0,4.0,417.488098145,1.0,phase_1,,,,,,,,,,,,,magenta,circle
58.0,1.0,1.0,0,1.0,1.0,351.21011734,1.0,phase_1,,,,,,,,,,,,,magenta,circle
71.0,5.0,1.0,1,1.0,1.0,384.421825409,1.0,phase_1,,,,,,,,,,,,,white,square
213.0,3.0,3.0,0,2.0,2.0,317.857980728,1.0,phase_1,,,,,,,,,,,,,yellow,flipped triangle
30.0,1.0,1.0,0,2.0,2.0,351.31001472500003,1.0,phase_1,,,,,,,,,,,,,magenta,circle
61.0,1.0,1.0,0,2.0,2.0,350.88491439800003,1.0,phase_1,,,,,,,,,,,,,magenta,circle
47.0,5.0,1.0,1,3.0,3.0,417.47379302999997,1.0,phase_1,,,,,,,,,,,,,white,square
0.0,8.0,0.0,1,1.0,1.0,317.662000656,1.0,phase_1,,,,,,,,,,,,,cyan,hexagon
402.0,4.0,4.0,0,3.0,3.0,400.59494972199997,1.0,phase_1,,,,,,,,,,,,,gray,diamond
27.0,5.0,1.0,1,4.0,4.0,450.778007507,1.0,phase_1,,,,,,,,,,,,,white,square
0.0,1.0,0.0,0,4.0,4.0,417.266845703,1.0,phase_1,,,,,,,,,,,,,magenta,circle
407.0,8.0,4.0,1,2.0,2.0,300.76789856000005,1.0,phase_1,,,,,,,,,,,,,cyan,hexagon
393.0,4.0,4.0,0,1.0,1.0,334.085941315,1.0,phase_1,,,,,,,,,,,,,gray,diamond
61.0,1.0,1.0,0,3.0,3.0,384.095191956,1.0,phase_1,,,,,,,,,,,,,magenta,circle
0.0,1.0,0.0,0,2.0,2.0,350.681781769,1.0,phase_1,,,,,,,,,,,,,magenta,circle
0.0,6.0,0.0,0,1.0,1.0,401.036024094,1.0,phase_1,,,,,,,,,,,,,blue,triangle
0.0,2.0,0.0,1,3.0,3.0,401.37720108,1.0,phase_1,,,,,,,,,,,,,orange,line
0.0,2.0,0.0,1,2.0,2.0,350.62479972799997,1.0,phase_1,,,,,,,,,,,,,orange,line
416.0,4.0,4.0,0,1.0,1.0,333.941221237,1.0,phase_1,,,,,,,,,,,,,gray,diamond
393.0,8.0,4.0,1,4.0,4.0,417.23394393899997,1.0,phase_1,,,,,,,,,,,,,cyan,hexagon
203.0,7.0,3.0,1,4.0,4.0,400.51507949800003,1.0,phase_1,,,,,,,,,,,,,green,cross
72.0,5.0,1.0,1,3.0,3.0,417.587041855,1.0,phase_1,,,,,,,,,,,,,white,square
399.0,8.0,4.0,1,2.0,2.0,350.591182709,1.0,phase_1,,,,,,,,,,,,,cyan,hexagon
96.0,2.0,2.0,1,3.0,3.0,384.254932404,1.0,phase_1,,,,,,,,,,,,,orange,line
0.0,3.0,0.0,0,4.0,4.0,334.139823914,1.0,phase_1,,,,,,,,,,,,,yellow,flipped triangle
80.0,2.0,2.0,1,3.0,3.0,417.386054993,1.0,phase_1,,,,,,,,,,,,,orange,line
220.0,7.0,3.0,1,4.0,4.0,450.88410377499997,1.0,phase_1,,,,,,,,,,,,,green,cross
46.0,1.0,1.0,0,4.0,4.0,384.166955948,1.0,phase_1,,,,,,,,,,,,,magenta,circle
182.0,3.0,3.0,0,2.0,2.0,484.18807983399995,1.0,phase_1,,,,,,,,,,,,,yellow,flipped triangle
0.0,2.0,0.0,1,4.0,4.0,384.070158005,1.0,phase_1,,,,,,,,,,,,,orange,line
206.0,3.0,3.0,0,2.0,2.0,434.312105179,1.0,phase_1,,,,,,,,,,,,,yellow,flipped triangle
392.0,8.0,4.0,1,4.0,4.0,367.475986481,1.0,phase_1,,,,,,,,,,,,,cyan,hexagon
425.0,8.0,4.0,1,4.0,4.0,367.39897728,1.0,phase_1,,,,,,,,,,,,,cyan,hexagon
38.0,5.0,1.0,1,2.0,2.0,451.33614540099995,1.0,phase_1,,,,,,,,,,,,,white,square
176.0,3.0,3.0,0,1.0,1.0,384.172201157,1.0,phase_1,,,,,,,,,,,,,yellow,flipped triangle
216.0,7.0,3.0,1,3.0,3.0,400.635957718,1.0,phase_1,,,,,,,,,,,,,green,cross
43.0,1.0,1.0,0,3.0,3.0,400.917053223,1.0,phase_1,,,,,,,,,,,,,magenta,circle
92.0,6.0,2.0,0,2.0,2.0,334.22613143899997,1.0,phase_1,,,,,,,,,,,,,blue,triangle
0.0,1.0,0.0,0,3.0,3.0,401.16596221900005,1.0,phase_1,,,,,,,,,,,,,magenta,circle
0.0,3.0,0.0,0,4.0,4.0,367.884874344,1.0,phase_1,,,,,,,,,,,,,yellow,flipped triangle
185.0,3.0,3.0,0,1.0,1.0,400.74706077599996,1.0,phase_1,,,,,,,,,,,,,yellow,flipped triangle
86.0,6.0,2.0,0,1.0,1.0,417.856931686,1.0,phase_1,,,,,,,,,,,,,blue,triangle
90.0,2.0,2.0,1,1.0,1.0,367.480039597,1.0,phase_1,,,,,,,,,,,,,orange,line
86.0,2.0,2.0,1,2.0,2.0,384.490966797,1.0,phase_1,,,,,,,,,,,,,orange,line
88.0,2.0,2.0,1,4.0,4.0,418.034076691,1.0,phase_1,,,,,,,,,,,,,orange,line
379.0,8.0,4.0,1,4.0,4.0,350.790023804,1.0,phase_1,,,,,,,,,,,,,cyan,hexagon
32.0,5.0,1.0,1,1.0,1.0,351.111888885,1.0,phase_1,,,,,,,,,,,,,white,square
105.0,6.0,2.0,0,1.0,1.0,384.299039841,1.0,phase_1,,,,,,,,,,,,,blue,triangle
105.0,2.0,2.0,1,2.0,2.0,334.622859955,1.0,phase_1,,,,,,,,,,,,,orange,line
110.0,6.0,2.0,0,4.0,4.0,350.519180298,1.0,phase_1,,,,,,,,,,,,,blue,triangle
103.0,2.0,2.0,1,2.0,2.0,351.519823074,1.0,phase_1,,,,,,,,,,,,,orange,line
0.0,4.0,0.0,0,3.0,3.0,434.017181396,1.0,phase_1,,,,,,,,,,,,,gray,diamond
77.0,6.0,2.0,0,2.0,2.0,367.46191978499996,1.0,phase_1,,,,,,,,,,,,,blue,triangle
107.0,6.0,2.0,0,2.0,2.0,400.703907013,1.0,phase_1,,,,,,,,,,,,,blue,triangle
0.0,2.0,0.0,1,3.0,3.0,401.086091995,1.0,phase_1,,,,,,,,,,,,,orange,line
382.0,8.0,4.0,1,2.0,2.0,383.83007049599996,1.0,phase_1,,,,,,,,,,,,,cyan,hexagon
116.0,2.0,2.0,1,1.0,1.0,350.791931152,1.0,phase_1,,,,,,,,,,,,,orange,line
425.0,8.0,4.0,1,2.0,2.0,333.86397361800005,1.0,phase_1,,,,,,,,,,,,,cyan,hexagon
95.0,2.0,2.0,1,4.0,4.0,400.866985321,1.0,phase_1,,,,,,,,,,,,,orange,line
104.0,6.0,2.0,0,3.0,3.0,368.026018143,1.0,phase_1,,,,,,,,,,,,,blue,triangle
114.0,2.0,2.0,1,3.0,3.0,417.840003967,1.0,phase_1,,,,,,,,,,,,,orange,line
184.0,7.0,3.0,1,2.0,2.0,384.59992408799997,1.0,phase_1,,,,,,,,,,,,,green,cross
419.0,8.0,4.0,1,3.0,3.0,367.558002472,1.0,phase_1,,,,,,,,,,,,,cyan,hexagon
0.0,5.0,0.0,1,4.0,4.0,367.545127869,1.0,phase_1,,,,,,,,,,,,,white,square
420.0,4.0,4.0,0,1.0,1.0,400.811195374,1.0,phase_1,,,,,,,,,,,,,gray,diamond
0.0,7.0,0.0,1,4.0,4.0,868.640899658,2.0,phase_1,,,,,,,,,,,,,green,cross
0.0,1.0,0.0,0,3.0,3.0,401.206016541,2.0,phase_1,,,,,,,,,,,,,magenta,circle
425.0,4.0,4.0,0,1.0,1.0,351.161956787,2.0,phase_1,,,,,,,,,,,,,gray,diamond
0.0,5.0,0.0,1,3.0,3.0,400.367021561,2.0,phase_1,,,,,,,,,,,,,white,square
67.0,1.0,1.0,0,2.0,2.0,383.801937103,2.0,phase_1,,,,,,,,,,,,,magenta,circle
0.0,7.0,0.0,1,4.0,4.0,434.192895889,2.0,phase_1,,,,,,,,,,,,,green,cross
60.0,5.0,1.0,1,1.0,1.0,434.615850449,2.0,phase_1,,,,,,,,,,,,,white,square
395.0,4.0,4.0,0,3.0,3.0,434.555053711,2.0,phase_1,,,,,,,,,,,,,gray,diamond
65.0,1.0,1.0,0,4.0,4.0,384.293079376,2.0,phase_1,,,,,,,,,,,,,magenta,circle
44.0,5.0,1.0,1,3.0,3.0,450.927019119,2.0,phase_1,,,,,,,,,,,,,white,square
0.0,5.0,0.0,1,1.0,1.0,350.778102875,2.0,phase_1,,,,,,,,,,,,,white,square
198.0,7.0,3.0,1,1.0,1.0,434.38100814800003,2.0,phase_1,,,,,,,,,,,,,green,cross
0.0,7.0,0.0,1,3.0,3.0,417.26112365700004,2.0,phase_1,,,,,,,,,,,,,green,cross
191.0,3.0,3.0,0,2.0,2.0,417.196989059,2.0,phase_1,,,,,,,,,,,,,yellow,flipped triangle
206.0,3.0,3.0,0,2.0,2.0,417.181968689,2.0,phase_1,,,,,,,,,,,,,yellow,flipped triangle
211.0,7.0,3.0,1,3.0,3.0,417.27113723800005,2.0,phase_1,,,,,,,,,,,,,green,cross
116.0,2.0,2.0,1,4.0,4.0,417.76299476599996,2.0,phase_1,,,,,,,,,,,,,orange,line
0.0,2.0,0.0,1,4.0,4.0,417.682886124,2.0,phase_1,,,,,,,,,,,,,orange,line
0.0,1.0,0.0,0,4.0,4.0,351.16600990300003,2.0,phase_1,,,,,,,,,,,,,magenta,circle
197.0,3.0,3.0,0,1.0,1.0,367.135047913,2.0,phase_1,,,,,,,,,,,,,yellow,flipped triangle
63.0,1.0,1.0,0,1.0,1.0,384.03105735800006,2.0,phase_1,,,,,,,,,,,,,magenta,circle
176.0,3.0,3.0,0,2.0,2.0,384.15384292600004,2.0,phase_1,,,,,,,,,,,,,yellow,flipped triangle
408.0,4.0,4.0,0,1.0,1.0,384.223937988,2.0,phase_1,,,,,,,,,,,,,gray,diamond
189.0,7.0,3.0,1,4.0,4.0,434.004068375,2.0,phase_1,,,,,,,,,,,,,green,cross
78.0,6.0,2.0,0,1.0,1.0,351.292133331,2.0,phase_1,,,,,,,,,,,,,blue,triangle
224.0,7.0,3.0,1,4.0,4.0,400.826931,2.0,phase_1,,,,,,,,,,,,,green,cross
207.0,7.0,3.0,1,4.0,4.0,367.24281311,2.0,phase_1,,,,,,,,,,,,,green,cross
0.0,2.0,0.0,1,2.0,2.0,434.467077255,2.0,phase_1,,,,,,,,,,,,,orange,line
224.0,3.0,3.0,0,3.0,3.0,434.974193573,2.0,phase_1,,,,,,,,,,,,,yellow,flipped triangle
0.0,4.0,0.0,0,4.0,4.0,484.292030334,2.0,phase_1,,,,,,,,,,,,,gray,diamond
71.0,5.0,1.0,1,1.0,1.0,450.886011124,2.0,phase_1,,,,,,,,,,,,,white,square
86.0,6.0,2.0,0,3.0,3.0,434.083938599,2.0,phase_1,,,,,,,,,,,,,blue,triangle
124.0,2.0,2.0,1,4.0,4.0,417.734146118,2.0,phase_1,,,,,,,,,,,,,orange,line
191.0,3.0,3.0,0,1.0,1.0,367.416858673,2.0,phase_1,,,,,,,,,,,,,yellow,flipped triangle
198.0,3.0,3.0,0,1.0,1.0,350.062131882,2.0,phase_1,,,,,,,,,,,,,yellow,flipped triangle
413.0,4.0,4.0,0,2.0,2.0,451.16186142,2.0,phase_1,,,,,,,,,,,,,gray,diamond
40.0,5.0,1.0,1,1.0,1.0,350.70991516099997,2.0,phase_1,,,,,,,,,,,,,white,square
423.0,4.0,4.0,0,4.0,4.0,384.333133698,2.0,phase_1,,,,,,,,,,,,,gray,diamond
399.0,8.0,4.0,1,3.0,3.0,400.84600448599997,2.0,phase_1,,,,,,,,,,,,,cyan,hexagon
387.0,8.0,4.0,1,2.0,2.0,351.08089447000003,2.0,phase_1,,,,,,,,,,,,,cyan,hexagon
67.0,5.0,1.0,1,3.0,3.0,417.57917404200003,2.0,phase_1,,,,,,,,,,,,,white,square
179.0,3.0,3.0,0,1.0,1.0,367.426872253,2.0,phase_1,,,,,,,,,,,,,yellow,flipped triangle
214.0,3.0,3.0,0,1.0,1.0,350.86488723800005,2.0,phase_1,,,,,,,,,,,,,yellow,flipped triangle
48.0,5.0,1.0,1,1.0,1.0,350.860118866,2.0,phase_1,,,,,,,,,,,,,white,square
64.0,1.0,1.0,0,2.0,2.0,400.923013687,2.0,phase_1,,,,,,,,,,,,,magenta,circle
398.0,8.0,4.0,1,1.0,1.0,334.233045578,2.0,phase_1,,,,,,,,,,,,,cyan,hexagon
37.0,1.0,1.0,0,4.0,4.0,434.239864349,2.0,phase_1,,,,,,,,,,,,,magenta,circle
383.0,8.0,4.0,1,3.0,3.0,468.014001846,2.0,phase_1,,,,,,,,,,,,,cyan,hexagon
46.0,5.0,1.0,1,2.0,2.0,417.238950729,2.0,phase_1,,,,,,,,,,,,,white,square
69.0,1.0,1.0,0,1.0,1.0,334.381818771,2.0,phase_1,,,,,,,,,,,,,magenta,circle
93.0,6.0,2.0,0,2.0,2.0,367.680072784,2.0,phase_1,,,,,,,,,,,,,blue,triangle
91.0,6.0,2.0,0,3.0,3.0,400.739908218,2.0,phase_1,,,,,,,,,,,,,blue,triangle
0.0,3.0,0.0,0,4.0,4.0,450.89292526199995,2.0,phase_1,,,,,,,,,,,,,yellow,flipped triangle
25.0,1.0,1.0,0,1.0,1.0,367.918014526,2.0,phase_1,,,,,,,,,,,,,magenta,circle
0.0,3.0,0.0,0,4.0,4.0,384.17506218000005,2.0,phase_1,,,,,,,,,,,,,yellow,flipped triangle
0.0,8.0,0.0,1,1.0,1.0,350.548028946,2.0,phase_1,,,,,,,,,,,,,cyan,hexagon
89.0,6.0,2.0,0,2.0,2.0,384.348154068,2.0,phase_1,,,,,,,,,,,,,blue,triangle
378.0,4.0,4.0,0,4.0,4.0,451.260089874,2.0,phase_1,,,,,,,,,,,,,gray,diamond
39.0,5.0,1.0,1,2.0,2.0,367.35200882000004,2.0,phase_1,,,,,,,,,,,,,white,square
194.0,7.0,3.0,1,2.0,2.0,484.30109024,2.0,phase_1,,,,,,,,,,,,,green,cross
186.0,7.0,3.0,1,3.0,3.0,417.275905609,2.0,phase_1,,,,,,,,,,,,,green,cross
408.0,4.0,4.0,0,2.0,2.0,384.366035461,2.0,phase_1,,,,,,,,,,,,,gray,diamond
202.0,3.0,3.0,0,3.0,3.0,401.079177856,2.0,phase_1,,,,,,,,,,,,,yellow,flipped triangle
379.0,8.0,4.0,1,4.0,4.0,417.712926865,2.0,phase_1,,,,,,,,,,,,,cyan,hexagon
51.0,1.0,1.0,0,2.0,2.0,350.760221481,2.0,phase_1,,,,,,,,,,,,,magenta,circle
0.0,3.0,0.0,0,2.0,2.0,400.51794052099996,2.0,phase_1,,,,,,,,,,,,,yellow,flipped triangle
0.0,1.0,0.0,0,4.0,4.0,367.293834686,2.0,phase_1,,,,,,,,,,,,,magenta,circle
204.0,7.0,3.0,1,2.0,2.0,367.68507957500003,2.0,phase_1,,,,,,,,,,,,,green,cross
209.0,3.0,3.0,0,3.0,3.0,434.366941452,2.0,phase_1,,,,,,,,,,,,,yellow,flipped triangle
0.0,3.0,0.0,0,3.0,3.0,417.49382018999995,2.0,phase_1,,,,,,,,,,,,,yellow,flipped triangle
218.0,7.0,3.0,1,3.0,3.0,401.21412277200005,2.0,phase_1,,,,,,,,,,,,,green,cross
49.0,5.0,1.0,1,3.0,3.0,434.144973755,2.0,phase_1,,,,,,,,,,,,,white,square
0.0,5.0,0.0,1,2.0,2.0,434.61012840300003,2.0,phase_1,,,,,,,,,,,,,white,square
193.0,3.0,3.0,0,4.0,4.0,417.147874832,2.0,phase_1,,,,,,,,,,,,,yellow,flipped triangle
108.0,2.0,2.0,1,2.0,2.0,367.891788483,2.0,phase_1,,,,,,,,,,,,,orange,line
0.0,1.0,0.0,0,3.0,3.0,383.618116379,2.0,phase_1,,,,,,,,,,,,,magenta,circle
401.0,4.0,4.0,0,4.0,4.0,417.37103462199997,2.0,phase_1,,,,,,,,,,,,,gray,diamond
30.0,5.0,1.0,1,4.0,4.0,417.95206069899996,2.0,phase_1,,,,,,,,,,,,,white,square
375.0,4.0,4.0,0,3.0,3.0,467.633962631,2.0,phase_1,,,,,,,,,,,,,gray,diamond
0.0,8.0,0.0,1,1.0,1.0,467.485904694,2.0,phase_1,,,,,,,,,,,,,cyan,hexagon
388.0,8.0,4.0,1,3.0,3.0,434.330940247,2.0,phase_1,,,,,,,,,,,,,cyan,hexagon
66.0,1.0,1.0,0,4.0,4.0,451.131105423,2.0,phase_1,,,,,,,,,,,,,magenta,circle
0.0,2.0,0.0,1,2.0,2.0,351.025819778,2.0,phase_1,,,,,,,,,,,,,orange,line
75.0,2.0,2.0,1,4.0,4.0,350.47602653499996,2.0,phase_1,,,,,,,,,,,,,orange,line
405.0,4.0,4.0,0,3.0,3.0,451.35307312,2.0,phase_1,,,,,,,,,,,,,gray,diamond
79.0,6.0,2.0,0,1.0,1.0,400.958061218,2.0,phase_1,,,,,,,,,,,,,blue,triangle
102.0,6.0,2.0,0,4.0,4.0,384.65595245400004,2.0,phase_1,,,,,,,,,,,,,blue,triangle
386.0,8.0,4.0,1,2.0,2.0,350.847005844,2.0,phase_1,,,,,,,,,,,,,cyan,hexagon
49.0,5.0,1.0,1,2.0,2.0,367.378950119,2.0,phase_1,,,,,,,,,,,,,white,square
0.0,3.0,0.0,0,3.0,3.0,400.665998459,2.0,phase_1,,,,,,,,,,,,,yellow,flipped triangle
125.0,6.0,2.0,0,1.0,1.0,434.065818787,2.0,phase_1,,,,,,,,,,,,,blue,triangle
191.0,7.0,3.0,1,2.0,2.0,367.835044861,2.0,phase_1,,,,,,,,,,,,,green,cross
224.0,7.0,3.0,1,4.0,4.0,417.42300987199997,2.0,phase_1,,,,,,,,,,,,,green,cross
394.0,4.0,4.0,0,3.0,3.0,417.667865753,2.0,phase_1,,,,,,,,,,,,,gray,diamond
419.0,8.0,4.0,1,2.0,2.0,350.83293914800004,2.0,phase_1,,,,,,,,,,,,,cyan,hexagon
87.0,6.0,2.0,0,3.0,3.0,384.176015854,2.0,phase_1,,,,,,,,,,,,,blue,triangle
400.0,8.0,4.0,1,1.0,1.0,434.087991714,2.0,phase_1,,,,,,,,,,,,,cyan,hexagon
0.0,4.0,0.0,0,1.0,1.0,383.526086807,2.0,phase_1,,,,,,,,,,,,,gray,diamond
0.0,1.0,0.0,0,2.0,2.0,350.41713714599996,2.0,phase_1,,,,,,,,,,,,,magenta,circle
200.0,7.0,3.0,1,1.0,1.0,368.094921112,2.0,phase_1,,,,,,,,,,,,,green,cross
0.0,5.0,0.0,1,3.0,3.0,551.321983337,3.0,phase_1,,,,,,,,,,,,,white,square
0.0,6.0,0.0,0,4.0,4.0,417.3579216,3.0,phase_1,,,,,,,,,,,,,blue,triangle
0.0,2.0,0.0,1,3.0,3.0,450.85883140600004,3.0,phase_1,,,,,,,,,,,,,orange,line
389.0,8.0,4.0,1,2.0,2.0,367.417097092,3.0,phase_1,,,,,,,,,,,,,cyan,hexagon
46.0,5.0,1.0,1,1.0,1.0,334.268093109,3.0,phase_1,,,,,,,,,,,,,white,square
94.0,2.0,2.0,1,3.0,3.0,401.193857193,3.0,phase_1,,,,,,,,,,,,,orange,line
107.0,2.0,2.0,1,3.0,3.0,400.65479278600003,3.0,phase_1,,,,,,,,,,,,,orange,line
413.0,4.0,4.0,0,2.0,2.0,417.557001114,3.0,phase_1,,,,,,,,,,,,,gray,diamond
415.0,8.0,4.0,1,3.0,3.0,400.952100754,3.0,phase_1,,,,,,,,,,,,,cyan,hexagon
29.0,5.0,1.0,1,1.0,1.0,317.55900383,3.0,phase_1,,,,,,,,,,,,,white,square
67.0,1.0,1.0,0,4.0,4.0,333.924055099,3.0,phase_1,,,,,,,,,,,,,magenta,circle
0.0,3.0,0.0,0,4.0,4.0,401.046037674,3.0,phase_1,,,,,,,,,,,,,yellow,flipped triangle
0.0,8.0,0.0,1,3.0,3.0,400.672912598,3.0,phase_1,,,,,,,,,,,,,cyan,hexagon
71.0,5.0,1.0,1,1.0,1.0,351.186037064,3.0,phase_1,,,,,,,,,,,,,white,square
216.0,3.0,3.0,0,2.0,2.0,334.12599563599997,3.0,phase_1,,,,,,,,,,,,,yellow,flipped triangle
0.0,7.0,0.0,1,3.0,3.0,417.53101348900003,3.0,phase_1,,,,,,,,,,,,,green,cross
0.0,3.0,0.0,0,1.0,1.0,350.95500946000004,3.0,phase_1,,,,,,,,,,,,,yellow,flipped triangle
179.0,3.0,3.0,0,3.0,3.0,400.759935379,3.0,phase_1,,,,,,,,,,,,,yellow,flipped triangle
38.0,1.0,1.0,0,3.0,3.0,400.66409111,3.0,phase_1,,,,,,,,,,,,,magenta,circle
85.0,6.0,2.0,0,4.0,4.0,468.164920807,3.0,phase_1,,,,,,,,,,,,,blue,triangle
424.0,8.0,4.0,1,3.0,3.0,401.37696266200004,3.0,phase_1,,,,,,,,,,,,,cyan,hexagon
423.0,8.0,4.0,1,2.0,2.0,384.819030762,3.0,phase_1,,,,,,,,,,,,,cyan,hexagon
387.0,4.0,4.0,0,1.0,1.0,401.057958603,3.0,phase_1,,,,,,,,,,,,,gray,diamond
66.0,1.0,1.0,0,1.0,1.0,418.119907379,3.0,phase_1,,,,,,,,,,,,,magenta,circle
30.0,5.0,1.0,1,4.0,4.0,467.423915863,3.0,phase_1,,,,,,,,,,,,,white,square
402.0,4.0,4.0,0,1.0,1.0,450.646162033,3.0,phase_1,,,,,,,,,,,,,gray,diamond
177.0,7.0,3.0,1,2.0,2.0,400.98190307600004,3.0,phase_1,,,,,,,,,,,,,green,cross
0.0,7.0,0.0,1,4.0,4.0,634.462118149,3.0,phase_1,,,,,,,,,,,,,green,cross
177.0,3.0,3.0,0,4.0,4.0,401.329040527,3.0,phase_1,,,,,,,,,,,,,yellow,flipped triangle
92.0,6.0,2.0,0,1.0,1.0,367.474079132,3.0,phase_1,,,,,,,,,,,,,blue,triangle
181.0,3.0,3.0,0,4.0,4.0,367.8150177,3.0,phase_1,,,,,,,,,,,,,yellow,flipped triangle
63.0,5.0,1.0,1,3.0,3.0,417.532920837,3.0,phase_1,,,,,,,,,,,,,white,square
415.0,8.0,4.0,1,3.0,3.0,400.943994522,3.0,phase_1,,,,,,,,,,,,,cyan,hexagon
119.0,6.0,2.0,0,2.0,2.0,384.735822678,3.0,phase_1,,,,,,,,,,,,,blue,triangle
0.0,5.0,0.0,1,1.0,1.0,351.569890976,3.0,phase_1,,,,,,,,,,,,,white,square
108.0,6.0,2.0,0,4.0,4.0,383.84199142499995,3.0,phase_1,,,,,,,,,,,,,blue,triangle
377.0,8.0,4.0,1,2.0,2.0,383.61215591399997,3.0,phase_1,,,,,,,,,,,,,cyan,hexagon
67.0,1.0,1.0,0,4.0,4.0,384.32097435000003,3.0,phase_1,,,,,,,,,,,,,magenta,circle
176.0,7.0,3.0,1,1.0,1.0,417.675971985,3.0,phase_1,,,,,,,,,,,,,green,cross
0.0,1.0,0.0,0,1.0,1.0,400.80308914200003,3.0,phase_1,,,,,,,,,,,,,magenta,circle
0.0,2.0,0.0,1,1.0,1.0,400.548934937,3.0,phase_1,,,,,,,,,,,,,orange,line
54.0,5.0,1.0,1,4.0,4.0,384.417057037,3.0,phase_1,,,,,,,,,,,,,white,square
110.0,2.0,2.0,1,1.0,1.0,350.90994834900005,3.0,phase_1,,,,,,,,,,,,,orange,line
121.0,6.0,2.0,0,1.0,1.0,401.22294426,3.0,phase_1,,,,,,,,,,,,,blue,triangle
223.0,7.0,3.0,1,2.0,2.0,384.004831314,3.0,phase_1,,,,,,,,,,,,,green,cross
25.0,5.0,1.0,1,3.0,3.0,400.816917419,3.0,phase_1,,,,,,,,,,,,,white,square
41.0,1.0,1.0,0,4.0,4.0,433.99810791,3.0,phase_1,,,,,,,,,,,,,magenta,circle
117.0,6.0,2.0,0,4.0,4.0,418.145895004,3.0,phase_1,,,,,,,,,,,,,blue,triangle
0.0,1.0,0.0,0,2.0,2.0,400.94995498699996,3.0,phase_1,,,,,,,,,,,,,magenta,circle
90.0,2.0,2.0,1,2.0,2.0,434.841156006,3.0,phase_1,,,,,,,,,,,,,orange,line
49.0,1.0,1.0,0,2.0,2.0,367.603063583,3.0,phase_1,,,,,,,,,,,,,magenta,circle
99.0,2.0,2.0,1,1.0,1.0,417.518138885,3.0,phase_1,,,,,,,,,,,,,orange,line
63.0,1.0,1.0,0,1.0,1.0,400.71892738300005,3.0,phase_1,,,,,,,,,,,,,magenta,circle
0.0,4.0,0.0,0,2.0,2.0,368.01099777200005,3.0,phase_1,,,,,,,,,,,,,gray,diamond
40.0,1.0,1.0,0,4.0,4.0,384.41920280500005,3.0,phase_1,,,,,,,,,,,,,magenta,circle
396.0,4.0,4.0,0,4.0,4.0,400.86913108799996,3.0,phase_1,,,,,,,,,,,,,gray,diamond
84.0,2.0,2.0,1,1.0,1.0,484.124898911,3.0,phase_1,,,,,,,,,,,,,orange,line
0.0,5.0,0.0,1,1.0,1.0,384.745836258,3.0,phase_1,,,,,,,,,,,,,white,square
0.0,3.0,0.0,0,4.0,4.0,383.985996246,3.0,phase_1,,,,,,,,,,,,,yellow,flipped triangle
114.0,6.0,2.0,0,2.0,2.0,417.872905731,3.0,phase_1,,,,,,,,,,,,,blue,triangle
0.0,4.0,0.0,0,3.0,3.0,384.359836578,3.0,phase_1,,,,,,,,,,,,,gray,diamond
225.0,3.0,3.0,0,3.0,3.0,467.306852341,3.0,phase_1,,,,,,,,,,,,,yellow,flipped triangle
0.0,5.0,0.0,1,1.0,1.0,417.476892471,3.0,phase_1,,,,,,,,,,,,,white,square
47.0,1.0,1.0,0,2.0,2.0,450.558900833,3.0,phase_1,,,,,,,,,,,,,magenta,circle
122.0,6.0,2.0,0,4.0,4.0,467.212915421,3.0,phase_1,,,,,,,,,,,,,blue,triangle
196.0,3.0,3.0,0,3.0,3.0,450.79302787800003,3.0,phase_1,,,,,,,,,,,,,yellow,flipped triangle
0.0,8.0,0.0,1,3.0,3.0,484.292030334,3.0,phase_1,,,,,,,,,,,,,cyan,hexagon
185.0,7.0,3.0,1,2.0,2.0,467.56696701,3.0,phase_1,,,,,,,,,,,,,green,cross
34.0,1.0,1.0,0,1.0,1.0,417.897939682,3.0,phase_1,,,,,,,,,,,,,magenta,circle
213.0,7.0,3.0,1,2.0,2.0,417.47903823900003,3.0,phase_1,,,,,,,,,,,,,green,cross
83.0,2.0,2.0,1,2.0,2.0,450.572013855,3.0,phase_1,,,,,,,,,,,,,orange,line
191.0,7.0,3.0,1,4.0,4.0,417.56010055499996,3.0,phase_1,,,,,,,,,,,,,green,cross
121.0,6.0,2.0,0,2.0,2.0,367.835998535,3.0,phase_1,,,,,,,,,,,,,blue,triangle
409.0,8.0,4.0,1,3.0,3.0,417.480945587,3.0,phase_1,,,,,,,,,,,,,cyan,hexagon
185.0,7.0,3.0,1,1.0,1.0,350.331068039,3.0,phase_1,,,,,,,,,,,,,green,cross
392.0,4.0,4.0,0,4.0,4.0,350.931167603,3.0,phase_1,,,,,,,,,,,,,gray,diamond
0.0,6.0,0.0,0,3.0,3.0,417.54889488199996,3.0,phase_1,,,,,,,,,,,,,blue,triangle
388.0,4.0,4.0,0,3.0,3.0,400.75087547299995,3.0,phase_1,,,,,,,,,,,,,gray,diamond
201.0,3.0,3.0,0,2.0,2.0,334.53392982500003,3.0,phase_1,,,,,,,,,,,,,yellow,flipped triangle
29.0,5.0,1.0,1,4.0,4.0,350.996017456,3.0,phase_1,,,,,,,,,,,,,white,square
409.0,4.0,4.0,0,1.0,1.0,434.548854828,3.0,phase_1,,,,,,,,,,,,,gray,diamond
205.0,7.0,3.0,1,2.0,2.0,384.52911377,3.0,phase_1,,,,,,,,,,,,,green,cross
0.0,7.0,0.0,1,4.0,4.0,384.12499427800003,3.0,phase_1,,,,,,,,,,,,,green,cross
60.0,1.0,1.0,0,4.0,4.0,351.231098175,3.0,phase_1,,,,,,,,,,,,,magenta,circle
225.0,3.0,3.0,0,1.0,1.0,451.200008392,3.0,phase_1,,,,,,,,,,,,,yellow,flipped triangle
38.0,1.0,1.0,0,2.0,2.0,517.3909664150001,3.0,phase_1,,,,,,,,,,,,,magenta,circle
116.0,2.0,2.0,1,2.0,2.0,433.671951294,3.0,phase_1,,,,,,,,,,,,,orange,line
32.0,1.0,1.0,0,2.0,2.0,467.518091202,3.0,phase_1,,,,,,,,,,,,,magenta,circle
110.0,6.0,2.0,0,3.0,3.0,417.838096619,3.0,phase_1,,,,,,,,,,,,,blue,triangle
48.0,1.0,1.0,0,4.0,4.0,317.35897064200003,3.0,phase_1,,,,,,,,,,,,,magenta,circle
0.0,7.0,0.0,1,4.0,4.0,434.355974197,3.0,phase_1,,,,,,,,,,,,,green,cross
0.0,8.0,0.0,1,3.0,3.0,467.69404411299996,3.0,phase_1,,,,,,,,,,,,,cyan,hexagon
31.0,5.0,1.0,1,1.0,1.0,650.973081589,3.0,phase_1,,,,,,,,,,,,,white,square
0.0,5.0,0.0,1,1.0,1.0,451.071023941,3.0,phase_1,,,,,,,,,,,,,white,square
0.0,4.0,0.0,0,3.0,3.0,383.650064468,3.0,phase_1,,,,,,,,,,,,,gray,diamond
0.0,3.0,0.0,0,2.0,2.0,384.488105774,3.0,phase_1,,,,,,,,,,,,,yellow,flipped triangle
0.0,8.0,0.0,1,3.0,3.0,417.476177216,3.0,phase_1,,,,,,,,,,,,,cyan,hexagon
80.0,6.0,2.0,0,2.0,2.0,400.997161865,3.0,phase_1,,,,,,,,,,,,,blue,triangle
115.0,2.0,2.0,1,4.0,4.0,434.310913086,3.0,phase_1,,,,,,,,,,,,,orange,line
216.0,7.0,3.0,1,3.0,3.0,467.641830444,3.0,phase_1,,,,,,,,,,,,,green,cross
0.0,2.0,0.0,1,4.0,4.0,517.668962479,4.0,phase_1,,,,,,,,,,,,,orange,line
403.0,4.0,4.0,0,2.0,2.0,417.960882187,4.0,phase_1,,,,,,,,,,,,,gray,diamond
58.0,1.0,1.0,0,3.0,3.0,384.41205024699997,4.0,phase_1,,,,,,,,,,,,,magenta,circle
25.0,1.0,1.0,0,2.0,2.0,384.10210609399996,4.0,phase_1,,,,,,,,,,,,,magenta,circle
106.0,2.0,2.0,1,1.0,1.0,367.37704277,4.0,phase_1,,,,,,,,,,,,,orange,line
51.0,1.0,1.0,0,4.0,4.0,368.03412437400004,4.0,phase_1,,,,,,,,,,,,,magenta,circle
424.0,8.0,4.0,1,4.0,4.0,367.279052734,4.0,phase_1,,,,,,,,,,,,,cyan,hexagon
0.0,5.0,0.0,1,2.0,2.0,350.82602500900003,4.0,phase_1,,,,,,,,,,,,,white,square
0.0,4.0,0.0,0,2.0,2.0,367.518901825,4.0,phase_1,,,,,,,,,,,,,gray,diamond
194.0,3.0,3.0,0,4.0,4.0,384.839057922,4.0,phase_1,,,,,,,,,,,,,yellow,flipped triangle
66.0,5.0,1.0,1,1.0,1.0,433.836936951,4.0,phase_1,,,,,,,,,,,,,white,square
0.0,6.0,0.0,0,2.0,2.0,484.52806472799995,4.0,phase_1,,,,,,,,,,,,,blue,triangle
117.0,6.0,2.0,0,1.0,1.0,418.26915741,4.0,phase_1,,,,,,,,,,,,,blue,triangle
0.0,3.0,0.0,0,3.0,3.0,451.15590095500005,4.0,phase_1,,,,,,,,,,,,,yellow,flipped triangle
177.0,3.0,3.0,0,1.0,1.0,417.97089576699994,4.0,phase_1,,,,,,,,,,,,,yellow,flipped triangle
84.0,6.0,2.0,0,4.0,4.0,400.672912598,4.0,phase_1,,,,,,,,,,,,,blue,triangle
42.0,1.0,1.0,0,4.0,4.0,484.35711860699996,4.0,phase_1,,,,,,,,,,,,,magenta,circle
207.0,7.0,3.0,1,4.0,4.0,450.942993164,4.0,phase_1,,,,,,,,,,,,,green,cross
0.0,2.0,0.0,1,2.0,2.0,467.617988586,4.0,phase_1,,,,,,,,,,,,,orange,line
29.0,5.0,1.0,1,3.0,3.0,367.746114731,4.0,phase_1,,,,,,,,,,,,,white,square
177.0,7.0,3.0,1,1.0,1.0,400.672912598,4.0,phase_1,,,,,,,,,,,,,green,cross
420.0,8.0,4.0,1,2.0,2.0,367.530107498,4.0,phase_1,,,,,,,,,,,,,cyan,hexagon
57.0,5.0,1.0,1,3.0,3.0,384.084939957,4.0,phase_1,,,,,,,,,,,,,white,square
425.0,8.0,4.0,1,2.0,2.0,384.263038635,4.0,phase_1,,,,,,,,,,,,,cyan,hexagon
81.0,2.0,2.0,1,2.0,2.0,351.063966751,4.0,phase_1,,,,,,,,,,,,,orange,line
184.0,3.0,3.0,0,2.0,2.0,350.610971451,4.0,phase_1,,,,,,,,,,,,,yellow,flipped triangle
70.0,5.0,1.0,1,3.0,3.0,434.07106399500003,4.0,phase_1,,,,,,,,,,,,,white,square
380.0,4.0,4.0,0,4.0,4.0,367.205142975,4.0,phase_1,,,,,,,,,,,,,gray,diamond
43.0,5.0,1.0,1,1.0,1.0,500.66399574300004,4.0,phase_1,,,,,,,,,,,,,white,square
84.0,2.0,2.0,1,3.0,3.0,350.656032562,4.0,phase_1,,,,,,,,,,,,,orange,line
416.0,4.0,4.0,0,3.0,3.0,417.43016243,4.0,phase_1,,,,,,,,,,,,,gray,diamond
122.0,6.0,2.0,0,4.0,4.0,367.270946503,4.0,phase_1,,,,,,,,,,,,,blue,triangle
197.0,3.0,3.0,0,1.0,1.0,400.84481239300004,4.0,phase_1,,,,,,,,,,,,,yellow,flipped triangle
388.0,4.0,4.0,0,4.0,4.0,401.01313590999996,4.0,phase_1,,,,,,,,,,,,,gray,diamond
211.0,7.0,3.0,1,4.0,4.0,400.901079178,4.0,phase_1,,,,,,,,,,,,,green,cross
90.0,6.0,2.0,0,3.0,3.0,367.359876633,4.0,phase_1,,,,,,,,,,,,,blue,triangle
83.0,2.0,2.0,1,4.0,4.0,384.929180145,4.0,phase_1,,,,,,,,,,,,,orange,line
220.0,7.0,3.0,1,3.0,3.0,400.696992874,4.0,phase_1,,,,,,,,,,,,,green,cross
0.0,7.0,0.0,1,1.0,1.0,500.855922699,4.0,phase_1,,,,,,,,,,,,,green,cross
47.0,1.0,1.0,0,1.0,1.0,435.04881858799996,4.0,phase_1,,,,,,,,,,,,,magenta,circle
187.0,7.0,3.0,1,4.0,4.0,367.742776871,4.0,phase_1,,,,,,,,,,,,,green,cross
390.0,4.0,4.0,0,3.0,3.0,417.592048645,4.0,phase_1,,,,,,,,,,,,,gray,diamond
0.0,4.0,0.0,0,3.0,3.0,417.40202903700003,4.0,phase_1,,,,,,,,,,,,,gray,diamond
0.0,2.0,0.0,1,4.0,4.0,383.866071701,4.0,phase_1,,,,,,,,,,,,,orange,line
401.0,4.0,4.0,0,3.0,3.0,418.132066727,4.0,phase_1,,,,,,,,,,,,,gray,diamond
190.0,3.0,3.0,0,4.0,4.0,384.27400589,4.0,phase_1,,,,,,,,,,,,,yellow,flipped triangle
111.0,6.0,2.0,0,1.0,1.0,484.802961349,4.0,phase_1,,,,,,,,,,,,,blue,triangle
0.0,8.0,0.0,1,2.0,2.0,434.36098098800005,4.0,phase_1,,,,,,,,,,,,,cyan,hexagon
63.0,5.0,1.0,1,1.0,1.0,450.91795921299996,4.0,phase_1,,,,,,,,,,,,,white,square
221.0,7.0,3.0,1,2.0,2.0,484.49587822,4.0,phase_1,,,,,,,,,,,,,green,cross
400.0,8.0,4.0,1,2.0,2.0,484.28106308,4.0,phase_1,,,,,,,,,,,,,cyan,hexagon
402.0,8.0,4.0,1,2.0,2.0,668.13993454,4.0,phase_1,,,,,,,,,,,,,cyan,hexagon
76.0,6.0,2.0,0,3.0,3.0,417.410850525,4.0,phase_1,,,,,,,,,,,,,blue,triangle
81.0,6.0,2.0,0,1.0,1.0,451.617956161,4.0,phase_1,,,,,,,,,,,,,blue,triangle
224.0,3.0,3.0,0,3.0,3.0,400.951147079,4.0,phase_1,,,,,,,,,,,,,yellow,flipped triangle
0.0,6.0,0.0,0,3.0,3.0,400.43210983299997,4.0,phase_1,,,,,,,,,,,,,blue,triangle
382.0,4.0,4.0,0,2.0,2.0,500.98490714999997,4.0,phase_1,,,,,,,,,,,,,gray,diamond
123.0,6.0,2.0,0,2.0,2.0,467.624902725,4.0,phase_1,,,,,,,,,,,,,blue,triangle
118.0,6.0,2.0,0,3.0,3.0,434.020996094,4.0,phase_1,,,,,,,,,,,,,blue,triangle
85.0,6.0,2.0,0,3.0,3.0,400.49290656999995,4.0,phase_1,,,,,,,,,,,,,blue,triangle
102.0,6.0,2.0,0,4.0,4.0,418.31517219499995,4.0,phase_1,,,,,,,,,,,,,blue,triangle
0.0,2.0,0.0,1,2.0,2.0,434.098958969,4.0,phase_1,,,,,,,,,,,,,orange,line
391.0,8.0,4.0,1,1.0,1.0,367.298126221,4.0,phase_1,,,,,,,,,,,,,cyan,hexagon
65.0,5.0,1.0,1,2.0,2.0,368.096113205,4.0,phase_1,,,,,,,,,,,,,white,square
207.0,3.0,3.0,0,2.0,2.0,400.629043579,4.0,phase_1,,,,,,,,,,,,,yellow,flipped triangle
0.0,4.0,0.0,0,1.0,1.0,367.813825607,4.0,phase_1,,,,,,,,,,,,,gray,diamond
39.0,5.0,1.0,1,1.0,1.0,417.418003082,4.0,phase_1,,,,,,,,,,,,,white,square
111.0,2.0,2.0,1,4.0,4.0,367.67792701699994,4.0,phase_1,,,,,,,,,,,,,orange,line
48.0,1.0,1.0,0,2.0,2.0,384.351968765,4.0,phase_1,,,,,,,,,,,,,magenta,circle
376.0,8.0,4.0,1,2.0,2.0,485.08310317999997,4.0,phase_1,,,,,,,,,,,,,cyan,hexagon
0.0,2.0,0.0,1,4.0,4.0,384.31596756000005,4.0,phase_1,,,,,,,,,,,,,orange,line
0.0,7.0,0.0,1,1.0,1.0,500.437021255,4.0,phase_1,,,,,,,,,,,,,green,cross
406.0,4.0,4.0,0,3.0,3.0,401.000976562,4.0,phase_1,,,,,,,,,,,,,gray,diamond
192.0,7.0,3.0,1,3.0,3.0,401.141881943,4.0,phase_1,,,,,,,,,,,,,green,cross
398.0,4.0,4.0,0,1.0,1.0,484.44104194600004,4.0,phase_1,,,,,,,,,,,,,gray,diamond
78.0,2.0,2.0,1,3.0,3.0,434.14616584799995,4.0,phase_1,,,,,,,,,,,,,orange,line
0.0,6.0,0.0,0,1.0,1.0,334.161996841,4.0,phase_1,,,,,,,,,,,,,blue,triangle
184.0,7.0,3.0,1,1.0,1.0,434.901952744,4.0,phase_1,,,,,,,,,,,,,green,cross
41.0,5.0,1.0,1,1.0,1.0,400.834083557,4.0,phase_1,,,,,,,,,,,,,white,square
411.0,4.0,4.0,0,3.0,3.0,400.797128677,4.0,phase_1,,,,,,,,,,,,,gray,diamond
185.0,7.0,3.0,1,3.0,3.0,434.1340065,4.0,phase_1,,,,,,,,,,,,,green,cross
378.0,4.0,4.0,0,2.0,2.0,434.29684639,4.0,phase_1,,,,,,,,,,,,,gray,diamond
416.0,4.0,4.0,0,2.0,2.0,401.669025421,4.0,phase_1,,,,,,,,,,,,,gray,diamond
98.0,2.0,2.0,1,1.0,1.0,350.82602500900003,4.0,phase_1,,,,,,,,,,,,,orange,line
75.0,5.0,1.0,1,1.0,1.0,383.750915527,4.0,phase_1,,,,,,,,,,,,,white,square
409.0,8.0,4.0,1,4.0,4.0,450.830936432,4.0,phase_1,,,,,,,,,,,,,cyan,hexagon
0.0,6.0,0.0,0,4.0,4.0,367.625951767,4.0,phase_1,,,,,,,,,,,,,blue,triangle
0.0,3.0,0.0,0,2.0,2.0,367.771148682,4.0,phase_1,,,,,,,,,,,,,yellow,flipped triangle
201.0,7.0,3.0,1,4.0,4.0,417.956113815,4.0,phase_1,,,,,,,,,,,,,green,cross
25.0,1.0,1.0,0,4.0,4.0,401.028871536,4.0,phase_1,,,,,,,,,,,,,magenta,circle
120.0,2.0,2.0,1,1.0,1.0,451.297998428,4.0,phase_1,,,,,,,,,,,,,orange,line
0.0,1.0,0.0,0,1.0,1.0,417.391061783,4.0,phase_1,,,,,,,,,,,,,magenta,circle
0.0,4.0,0.0,0,2.0,2.0,367.871046066,4.0,phase_1,,,,,,,,,,,,,gray,diamond
65.0,5.0,1.0,1,3.0,3.0,500.932216644,4.0,phase_1,,,,,,,,,,,,,white,square
52.0,5.0,1.0,1,4.0,4.0,484.572887421,4.0,phase_1,,,,,,,,,,,,,white,square
51.0,5.0,1.0,1,4.0,4.0,467.736959457,4.0,phase_1,,,,,,,,,,,,,white,square
116.0,6.0,2.0,0,4.0,4.0,433.95805358900003,4.0,phase_1,,,,,,,,,,,,,blue,triangle
82.0,6.0,2.0,0,1.0,1.0,501.020908356,4.0,phase_1,,,,,,,,,,,,,blue,triangle
176.0,3.0,3.0,0,3.0,3.0,484.315156937,4.0,phase_1,,,,,,,,,,,,,yellow,flipped triangle
418.0,8.0,4.0,1,3.0,3.0,467.82016754200004,4.0,phase_1,,,,,,,,,,,,,cyan,hexagon
0.0,2.0,2.0,1,5.0,5.0,500.39005279500003,1.0,phase_2,stop,250.0,250.0,3.0,,,,,,,,,orange,line
0.0,8.0,4.0,1,5.0,0.0,,1.0,phase_2,stop,200.0,250.0,4.0,,,,,,,,,cyan,hexagon
0.0,2.0,2.0,1,5.0,0.0,,1.0,phase_2,stop,250.0,250.0,4.0,,,,,,,,,orange,line
0.0,7.0,3.0,1,6.0,0.0,,1.0,phase_2,stop,250.0,250.0,4.0,,,,,,,,,green,cross
0.0,5.0,1.0,1,6.0,0.0,,1.0,phase_2,stop,250.0,300.0,4.0,,,,,,,,,white,square
0.0,2.0,2.0,1,5.0,0.0,,1.0,phase_2,stop,300.0,300.0,4.0,,,,,,,,,orange,line
0.0,8.0,4.0,1,6.0,0.0,,1.0,phase_2,stop,300.0,350.0,4.0,,,,,,,,,cyan,hexagon
0.0,7.0,3.0,1,6.0,6.0,818.17483902,1.0,phase_2,go,300.0,350.0,1.0,,,,,,,,,green,cross
0.0,3.0,3.0,0,6.0,6.0,534.122943878,1.0,phase_2,go,300.0,350.0,1.0,,,,,,,,,yellow,flipped triangle
0.0,6.0,2.0,0,6.0,6.0,467.71812439,1.0,phase_2,go,300.0,350.0,1.0,,,,,,,,,blue,triangle
0.0,5.0,1.0,1,5.0,5.0,517.932891846,1.0,phase_2,stop,350.0,350.0,3.0,,,,,,,,,white,square
0.0,2.0,2.0,1,6.0,0.0,,1.0,phase_2,stop,350.0,400.0,4.0,,,,,,,,,orange,line
0.0,4.0,4.0,0,5.0,5.0,801.2650012969999,1.0,phase_2,go,350.0,400.0,1.0,,,,,,,,,gray,diamond
0.0,5.0,1.0,1,5.0,0.0,,1.0,phase_2,stop,300.0,400.0,4.0,,,,,,,,,white,square
0.0,4.0,4.0,0,6.0,6.0,951.401948929,1.0,phase_2,go,300.0,400.0,1.0,,,,,,,,,gray,diamond
0.0,4.0,4.0,0,5.0,5.0,750.8530616759999,1.0,phase_2,go,300.0,400.0,1.0,,,,,,,,,gray,diamond
0.0,2.0,2.0,1,6.0,6.0,550.426006317,1.0,phase_2,stop,300.0,450.0,3.0,,,,,,,,,orange,line
0.0,6.0,2.0,0,5.0,5.0,884.464025497,1.0,phase_2,go,300.0,450.0,1.0,,,,,,,,,blue,triangle
0.0,7.0,3.0,1,6.0,6.0,850.930213928,1.0,phase_2,go,300.0,450.0,1.0,,,,,,,,,green,cross
0.0,3.0,3.0,0,5.0,5.0,817.9681301119999,1.0,phase_2,go,300.0,450.0,1.0,,,,,,,,,yellow,flipped triangle
0.0,3.0,3.0,0,5.0,5.0,884.0701580049999,1.0,phase_2,go,300.0,450.0,1.0,,,,,,,,,yellow,flipped triangle
0.0,3.0,3.0,0,6.0,6.0,817.485809326,1.0,phase_2,go,300.0,450.0,1.0,,,,,,,,,yellow,flipped triangle
0.0,3.0,3.0,0,5.0,5.0,784.934997559,1.0,phase_2,go,300.0,450.0,1.0,,,,,,,,,yellow,flipped triangle
0.0,2.0,2.0,1,6.0,0.0,,1.0,phase_2,stop,300.0,400.0,4.0,,,,,,,,,orange,line
0.0,2.0,2.0,1,6.0,0.0,,1.0,phase_2,stop,300.0,450.0,4.0,,,,,,,,,orange,line
0.0,7.0,3.0,1,5.0,5.0,767.512083054,1.0,phase_2,go,300.0,450.0,1.0,,,,,,,,,green,cross
0.0,4.0,4.0,0,5.0,5.0,934.8011016849999,1.0,phase_2,go,300.0,450.0,1.0,,,,,,,,,gray,diamond
0.0,1.0,1.0,0,6.0,0.0,,1.0,phase_2,go,300.0,450.0,5.0,,,,,,,,,magenta,circle
0.0,5.0,1.0,1,5.0,0.0,,1.0,phase_2,stop,350.0,450.0,4.0,,,,,,,,,white,square
0.0,4.0,4.0,0,6.0,6.0,867.7000999449999,1.0,phase_2,go,350.0,450.0,1.0,,,,,,,,,gray,diamond
0.0,4.0,4.0,0,5.0,0.0,,1.0,phase_2,go,350.0,450.0,5.0,,,,,,,,,gray,diamond
0.0,5.0,1.0,1,6.0,6.0,867.8491115569999,1.0,phase_2,go,350.0,450.0,1.0,,,,,,,,,white,square
0.0,3.0,3.0,0,6.0,6.0,868.134021759,1.0,phase_2,go,350.0,450.0,1.0,,,,,,,,,yellow,flipped triangle
0.0,2.0,2.0,1,5.0,0.0,,1.0,phase_2,stop,400.0,450.0,4.0,,,,,,,,,orange,line
0.0,1.0,1.0,0,6.0,6.0,817.957878113,1.0,phase_2,go,400.0,450.0,1.0,,,,,,,,,magenta,circle
0.0,3.0,3.0,0,5.0,5.0,834.4089984889999,1.0,phase_2,go,400.0,450.0,1.0,,,,,,,,,yellow,flipped triangle
0.0,8.0,4.0,1,5.0,0.0,,2.0,phase_2,stop,450.0,450.0,4.0,,,,,,,,,cyan,hexagon
0.0,1.0,1.0,0,5.0,5.0,701.276063919,2.0,phase_2,go,450.0,450.0,1.0,,,,,,,,,magenta,circle
0.0,5.0,1.0,1,6.0,0.0,,2.0,phase_2,stop,450.0,500.0,4.0,,,,,,,,,white,square
0.0,8.0,4.0,1,6.0,0.0,,2.0,phase_2,stop,450.0,550.0,4.0,,,,,,,,,cyan,hexagon
0.0,3.0,3.0,0,6.0,6.0,734.350919724,2.0,phase_2,go,450.0,550.0,1.0,,,,,,,,,yellow,flipped triangle
0.0,1.0,1.0,0,6.0,6.0,918.002128601,2.0,phase_2,go,450.0,550.0,1.0,,,,,,,,,magenta,circle
0.0,8.0,4.0,1,5.0,5.0,968.486785889,2.0,phase_2,go,450.0,550.0,1.0,,,,,,,,,cyan,hexagon
0.0,6.0,2.0,0,6.0,6.0,901.133060455,2.0,phase_2,go,450.0,550.0,1.0,,,,,,,,,blue,triangle
0.0,4.0,4.0,0,5.0,5.0,851.353883743,2.0,phase_2,go,450.0,550.0,1.0,,,,,,,,,gray,diamond
0.0,3.0,3.0,0,5.0,5.0,834.3479633329999,2.0,phase_2,go,450.0,550.0,1.0,,,,,,,,,yellow,flipped triangle
0.0,2.0,2.0,1,5.0,0.0,,2.0,phase_2,stop,500.0,550.0,4.0,,,,,,,,,orange,line
0.0,5.0,1.0,1,6.0,6.0,834.95092392,2.0,phase_2,go,500.0,550.0,1.0,,,,,,,,,white,square
0.0,2.0,2.0,1,6.0,0.0,,2.0,phase_2,stop,500.0,600.0,4.0,,,,,,,,,orange,line
0.0,8.0,4.0,1,6.0,6.0,784.6159935,2.0,phase_2,stop,500.0,650.0,3.0,,,,,,,,,cyan,hexagon
0.0,5.0,1.0,1,6.0,0.0,,2.0,phase_2,stop,500.0,600.0,4.0,,,,,,,,,white,square
0.0,3.0,3.0,0,5.0,5.0,935.348033905,2.0,phase_2,go,500.0,600.0,1.0,,,,,,,,,yellow,flipped triangle
0.0,3.0,3.0,0,6.0,6.0,951.2879848480001,2.0,phase_2,go,500.0,600.0,1.0,,,,,,,,,yellow,flipped triangle
0.0,1.0,1.0,0,6.0,0.0,,2.0,phase_2,go,500.0,600.0,5.0,,,,,,,,,magenta,circle
0.0,8.0,4.0,1,5.0,0.0,,2.0,phase_2,stop,550.0,600.0,4.0,,,,,,,,,cyan,hexagon
0.0,6.0,2.0,0,5.0,5.0,901.564836502,2.0,phase_2,go,550.0,600.0,1.0,,,,,,,,,blue,triangle
0.0,6.0,2.0,0,5.0,0.0,,2.0,phase_2,go,550.0,600.0,5.0,,,,,,,,,blue,triangle
0.0,8.0,4.0,1,6.0,6.0,600.6281375890001,2.0,phase_2,stop,550.0,650.0,3.0,,,,,,,,,cyan,hexagon
0.0,4.0,4.0,0,6.0,0.0,,2.0,phase_2,go,550.0,650.0,5.0,,,,,,,,,gray,diamond
0.0,5.0,1.0,1,5.0,0.0,,2.0,phase_2,stop,600.0,650.0,4.0,,,,,,,,,white,square
0.0,1.0,1.0,0,5.0,5.0,801.26619339,2.0,phase_2,go,600.0,650.0,1.0,,,,,,,,,magenta,circle
0.0,7.0,3.0,1,5.0,0.0,,2.0,phase_2,stop,650.0,650.0,4.0,,,,,,,,,green,cross
0.0,5.0,1.0,1,6.0,0.0,,2.0,phase_2,stop,650.0,600.0,4.0,,,,,,,,,white,square
0.0,2.0,2.0,1,5.0,5.0,901.3700485229999,2.0,phase_2,go,650.0,600.0,1.0,,,,,,,,,orange,line
0.0,3.0,3.0,0,6.0,6.0,951.542139053,2.0,phase_2,go,650.0,600.0,1.0,,,,,,,,,yellow,flipped triangle
0.0,6.0,2.0,0,5.0,5.0,868.1969642639999,2.0,phase_2,go,650.0,600.0,1.0,,,,,,,,,blue,triangle
0.0,4.0,4.0,0,5.0,0.0,,2.0,phase_2,go,650.0,600.0,5.0,,,,,,,,,gray,diamond
0.0,2.0,2.0,1,6.0,6.0,951.3630867,2.0,phase_2,go,650.0,600.0,1.0,,,,,,,,,orange,line
0.0,1.0,1.0,0,6.0,6.0,901.275873184,2.0,phase_2,go,650.0,600.0,1.0,,,,,,,,,magenta,circle
0.0,3.0,3.0,0,6.0,0.0,,2.0,phase_2,go,650.0,600.0,5.0,,,,,,,,,yellow,flipped triangle
0.0,1.0,1.0,0,5.0,5.0,818.187952042,2.0,phase_2,go,650.0,600.0,1.0,,,,,,,,,magenta,circle
0.0,7.0,3.0,1,5.0,0.0,,2.0,phase_2,stop,700.0,600.0,4.0,,,,,,,,,green,cross
0.0,6.0,2.0,0,6.0,6.0,818.099021912,3.0,phase_2,go,700.0,600.0,1.0,,,,,,,,,blue,triangle
0.0,8.0,4.0,1,6.0,0.0,,3.0,phase_2,stop,700.0,650.0,4.0,,,,,,,,,cyan,hexagon
0.0,8.0,4.0,1,5.0,5.0,801.686048508,3.0,phase_2,stop,750.0,650.0,3.0,,,,,,,,,cyan,hexagon
0.0,4.0,4.0,0,5.0,5.0,850.7630825040001,3.0,phase_2,go,750.0,650.0,1.0,,,,,,,,,gray,diamond
0.0,6.0,2.0,0,6.0,6.0,867.675065994,3.0,phase_2,go,750.0,650.0,1.0,,,,,,,,,blue,triangle
0.0,3.0,3.0,0,6.0,6.0,884.351968765,3.0,phase_2,go,750.0,650.0,1.0,,,,,,,,,yellow,flipped triangle
0.0,4.0,4.0,0,5.0,5.0,951.2698650359999,3.0,phase_2,go,750.0,650.0,1.0,,,,,,,,,gray,diamond
0.0,5.0,1.0,1,6.0,6.0,934.724807739,3.0,phase_2,go,750.0,650.0,1.0,,,,,,,,,white,square
0.0,5.0,1.0,1,5.0,0.0,,3.0,phase_2,stop,700.0,650.0,4.0,,,,,,,,,white,square
0.0,6.0,2.0,0,5.0,5.0,851.243972778,3.0,phase_2,go,700.0,650.0,1.0,,,,,,,,,blue,triangle
0.0,1.0,1.0,0,5.0,0.0,,3.0,phase_2,go,700.0,650.0,5.0,,,,,,,,,magenta,circle
0.0,1.0,1.0,0,6.0,6.0,901.4968872070001,3.0,phase_2,go,700.0,650.0,1.0,,,,,,,,,magenta,circle
0.0,2.0,2.0,1,5.0,5.0,767.910003662,3.0,phase_2,stop,750.0,650.0,3.0,,,,,,,,,orange,line
0.0,8.0,4.0,1,5.0,0.0,,3.0,phase_2,stop,700.0,650.0,4.0,,,,,,,,,cyan,hexagon
0.0,5.0,1.0,1,5.0,5.0,801.078081131,3.0,phase_2,stop,750.0,650.0,3.0,,,,,,,,,white,square
0.0,6.0,2.0,0,5.0,5.0,918.199062347,3.0,phase_2,go,750.0,650.0,1.0,,,,,,,,,blue,triangle
0.0,7.0,3.0,1,6.0,0.0,,3.0,phase_2,stop,750.0,700.0,4.0,,,,,,,,,green,cross
0.0,1.0,1.0,0,6.0,6.0,801.0740280150001,3.0,phase_2,go,750.0,700.0,1.0,,,,,,,,,magenta,circle
0.0,8.0,4.0,1,5.0,5.0,934.8502159120001,3.0,phase_2,go,750.0,700.0,1.0,,,,,,,,,cyan,hexagon
0.0,8.0,4.0,1,6.0,6.0,801.455020905,3.0,phase_2,go,750.0,700.0,1.0,,,,,,,,,cyan,hexagon
0.0,6.0,2.0,0,6.0,6.0,883.953094482,3.0,phase_2,go,750.0,700.0,1.0,,,,,,,,,blue,triangle
0.0,6.0,2.0,0,6.0,6.0,851.0470390319999,3.0,phase_2,go,750.0,700.0,1.0,,,,,,,,,blue,triangle
0.0,8.0,4.0,1,5.0,5.0,734.380960464,3.0,phase_2,stop,700.0,700.0,3.0,,,,,,,,,cyan,hexagon
0.0,8.0,4.0,1,5.0,5.0,784.7540378570001,3.0,phase_2,go,700.0,700.0,1.0,,,,,,,,,cyan,hexagon
0.0,2.0,2.0,1,5.0,0.0,,3.0,phase_2,stop,650.0,700.0,4.0,,,,,,,,,orange,line
0.0,5.0,1.0,1,5.0,0.0,,3.0,phase_2,stop,700.0,700.0,4.0,,,,,,,,,white,square
0.0,3.0,3.0,0,5.0,5.0,734.4729900359999,3.0,phase_2,go,700.0,700.0,1.0,,,,,,,,,yellow,flipped triangle
0.0,6.0,2.0,0,5.0,5.0,968.050956726,3.0,phase_2,go,700.0,700.0,1.0,,,,,,,,,blue,triangle
0.0,1.0,1.0,0,6.0,6.0,968.1909084319999,3.0,phase_2,go,700.0,700.0,1.0,,,,,,,,,magenta,circle
0.0,7.0,3.0,1,5.0,0.0,,3.0,phase_2,stop,750.0,700.0,4.0,,,,,,,,,green,cross
0.0,3.0,3.0,0,6.0,6.0,834.555149078,3.0,phase_2,go,750.0,700.0,1.0,,,,,,,,,yellow,flipped triangle
0.0,7.0,3.0,1,6.0,0.0,,3.0,phase_2,stop,750.0,750.0,4.0,,,,,,,,,green,cross
0.0,8.0,4.0,1,6.0,6.0,784.290075302,3.0,phase_2,stop,750.0,750.0,3.0,,,,,,,,,cyan,hexagon
0.0,3.0,3.0,0,6.0,6.0,867.953062057,3.0,phase_2,go,750.0,750.0,1.0,,,,,,,,,yellow,flipped triangle
0.0,3.0,3.0,0,6.0,6.0,867.718935013,3.0,phase_2,go,750.0,750.0,1.0,,,,,,,,,yellow,flipped triangle
0.0,6.0,2.0,0,6.0,0.0,,3.0,phase_2,go,750.0,750.0,5.0,,,,,,,,,blue,triangle
0.0,2.0,2.0,1,6.0,6.0,467.461824417,4.0,phase_2,stop,750.0,700.0,3.0,,,,,,,,,orange,line
0.0,4.0,4.0,0,5.0,5.0,667.985916138,4.0,phase_2,go,750.0,700.0,1.0,,,,,,,,,gray,diamond
0.0,1.0,1.0,0,5.0,5.0,800.768852234,4.0,phase_2,go,750.0,700.0,1.0,,,,,,,,,magenta,circle
0.0,4.0,4.0,0,6.0,6.0,784.5091819759999,4.0,phase_2,go,750.0,700.0,1.0,,,,,,,,,gray,diamond
0.0,4.0,4.0,0,5.0,5.0,834.573984146,4.0,phase_2,go,750.0,700.0,1.0,,,,,,,,,gray,diamond
0.0,1.0,1.0,0,5.0,5.0,851.348876953,4.0,phase_2,go,750.0,700.0,1.0,,,,,,,,,magenta,circle
0.0,4.0,4.0,0,6.0,6.0,718.225002289,4.0,phase_2,go,750.0,700.0,1.0,,,,,,,,,gray,diamond
0.0,3.0,3.0,0,5.0,5.0,885.317087173,4.0,phase_2,go,750.0,700.0,1.0,,,,,,,,,yellow,flipped triangle
0.0,4.0,4.0,0,6.0,6.0,834.413051605,4.0,phase_2,go,750.0,700.0,1.0,,,,,,,,,gray,diamond
0.0,7.0,3.0,1,5.0,5.0,751.393079758,4.0,phase_2,stop,750.0,700.0,3.0,,,,,,,,,green,cross
0.0,1.0,1.0,0,6.0,6.0,718.1551456450001,4.0,phase_2,go,750.0,700.0,1.0,,,,,,,,,magenta,circle
0.0,4.0,4.0,0,5.0,0.0,,4.0,phase_2,go,750.0,700.0,5.0,,,,,,,,,gray,diamond
0.0,7.0,3.0,1,5.0,0.0,,4.0,phase_2,stop,700.0,700.0,4.0,,,,,,,,,green,cross
0.0,2.0,2.0,1,6.0,0.0,,4.0,phase_2,stop,700.0,650.0,4.0,,,,,,,,,orange,line
0.0,8.0,4.0,1,5.0,5.0,667.8900718689999,4.0,phase_2,go,700.0,650.0,1.0,,,,,,,,,cyan,hexagon
0.0,8.0,4.0,1,6.0,6.0,868.0181503299999,4.0,phase_2,stop,700.0,700.0,3.0,,,,,,,,,cyan,hexagon
0.0,2.0,2.0,1,5.0,0.0,,4.0,phase_2,stop,750.0,700.0,4.0,,,,,,,,,orange,line
0.0,7.0,3.0,1,5.0,5.0,768.005132675,4.0,phase_2,go,750.0,700.0,1.0,,,,,,,,,green,cross
0.0,1.0,1.0,0,6.0,6.0,918.13993454,4.0,phase_2,go,750.0,700.0,1.0,,,,,,,,,magenta,circle
0.0,1.0,1.0,0,6.0,6.0,968.190193176,4.0,phase_2,go,750.0,700.0,1.0,,,,,,,,,magenta,circle
0.0,5.0,1.0,1,5.0,0.0,,4.0,phase_2,stop,750.0,700.0,4.0,,,,,,,,,white,square
0.0,4.0,4.0,0,6.0,6.0,734.952926636,4.0,phase_2,go,750.0,700.0,1.0,,,,,,,,,gray,diamond
0.0,7.0,3.0,1,5.0,5.0,834.702968597,4.0,phase_2,go,750.0,700.0,1.0,,,,,,,,,green,cross
0.0,6.0,2.0,0,5.0,5.0,968.685865402,4.0,phase_2,go,750.0,700.0,1.0,,,,,,,,,blue,triangle
0.0,7.0,3.0,1,6.0,0.0,,4.0,phase_2,stop,750.0,650.0,4.0,,,,,,,,,green,cross
0.0,4.0,4.0,0,5.0,5.0,767.813920975,4.0,phase_2,go,750.0,650.0,1.0,,,,,,,,,gray,diamond
0.0,3.0,3.0,0,6.0,0.0,,4.0,phase_2,go,750.0,650.0,5.0,,,,,,,,,yellow,flipped triangle
0.0,1.0,1.0,0,5.0,5.0,801.1629581450001,4.0,phase_2,go,750.0,650.0,1.0,,,,,,,,,magenta,circle
0.0,2.0,2.0,1,6.0,0.0,,4.0,phase_2,stop,750.0,700.0,4.0,,,,,,,,,orange,line
0.0,6.0,2.0,0,5.0,5.0,851.280927658,4.0,phase_2,go,750.0,700.0,1.0,,,,,,,,,blue,triangle
0.0,5.0,1.0,1,6.0,6.0,834.7890377040001,4.0,phase_2,stop,750.0,750.0,3.0,,,,,,,,,white,square
0.0,3.0,3.0,0,5.0,5.0,818.372964859,4.0,phase_2,go,750.0,750.0,1.0,,,,,,,,,yellow,flipped triangle
0.0,4.0,4.0,0,6.0,6.0,617.314815521,4.0,phase_2,go,750.0,750.0,1.0,,,,,,,,,gray,diamond
0.0,2.0,2.0,1,6.0,0.0,,4.0,phase_2,stop,750.0,700.0,4.0,,,,,,,,,orange,line
0.0,6.0,2.0,0,6.0,6.0,784.4119071959999,4.0,phase_2,go,750.0,700.0,1.0,,,,,,,,,blue,triangle
0.0,6.0,2.0,0,6.0,6.0,934.540987015,4.0,phase_2,go,750.0,700.0,1.0,,,,,,,,,blue,triangle
0.0,5.0,1.0,1,6.0,6.0,600.868940353,5.0,phase_2,stop,750.0,750.0,3.0,,,,,,,,,white,square
0.0,5.0,1.0,1,6.0,6.0,767.843961716,5.0,phase_2,stop,750.0,700.0,3.0,,,,,,,,,white,square
0.0,6.0,2.0,0,5.0,5.0,734.6808910369999,5.0,phase_2,go,750.0,700.0,1.0,,,,,,,,,blue,triangle
0.0,4.0,4.0,0,6.0,6.0,651.171922684,5.0,phase_2,go,750.0,700.0,1.0,,,,,,,,,gray,diamond
0.0,4.0,4.0,0,5.0,5.0,751.1510849,5.0,phase_2,go,750.0,700.0,1.0,,,,,,,,,gray,diamond
0.0,4.0,4.0,0,6.0,6.0,884.515047073,5.0,phase_2,go,750.0,700.0,1.0,,,,,,,,,gray,diamond
0.0,7.0,3.0,1,6.0,6.0,801.296949387,5.0,phase_2,stop,750.0,650.0,3.0,,,,,,,,,green,cross
0.0,5.0,1.0,1,5.0,5.0,750.957965851,5.0,phase_2,go,750.0,650.0,1.0,,,,,,,,,white,square
0.0,3.0,3.0,0,6.0,6.0,867.8841590879999,5.0,phase_2,go,750.0,650.0,1.0,,,,,,,,,yellow,flipped triangle
0.0,1.0,1.0,0,5.0,0.0,,5.0,phase_2,go,750.0,650.0,5.0,,,,,,,,,magenta,circle
0.0,4.0,4.0,0,6.0,6.0,917.968034744,5.0,phase_2,go,750.0,650.0,1.0,,,,,,,,,gray,diamond
0.0,7.0,3.0,1,5.0,0.0,,5.0,phase_2,stop,750.0,650.0,4.0,,,,,,,,,green,cross
0.0,3.0,3.0,0,6.0,0.0,,5.0,phase_2,go,750.0,650.0,5.0,,,,,,,,,yellow,flipped triangle
0.0,2.0,2.0,1,5.0,0.0,,5.0,phase_2,stop,750.0,650.0,4.0,,,,,,,,,orange,line
0.0,1.0,1.0,0,5.0,5.0,934.891939163,5.0,phase_2,go,750.0,650.0,1.0,,,,,,,,,magenta,circle
0.0,2.0,2.0,1,6.0,0.0,,5.0,phase_2,go,750.0,650.0,5.0,,,,,,,,,orange,line
0.0,6.0,2.0,0,5.0,5.0,934.946060181,5.0,phase_2,go,750.0,650.0,1.0,,,,,,,,,blue,triangle
0.0,2.0,2.0,1,6.0,0.0,,5.0,phase_2,stop,750.0,600.0,4.0,,,,,,,,,orange,line
0.0,5.0,1.0,1,6.0,6.0,801.50103569,5.0,phase_2,stop,750.0,650.0,3.0,,,,,,,,,white,square
0.0,1.0,1.0,0,6.0,6.0,834.34009552,5.0,phase_2,go,750.0,650.0,1.0,,,,,,,,,magenta,circle
0.0,1.0,1.0,0,5.0,5.0,767.78793335,5.0,phase_2,go,750.0,650.0,1.0,,,,,,,,,magenta,circle
0.0,7.0,3.0,1,5.0,5.0,867.565870285,5.0,phase_2,stop,750.0,650.0,3.0,,,,,,,,,green,cross
0.0,7.0,3.0,1,6.0,0.0,,5.0,phase_2,stop,750.0,600.0,4.0,,,,,,,,,green,cross
0.0,2.0,2.0,1,5.0,5.0,818.538188934,5.0,phase_2,stop,700.0,600.0,3.0,,,,,,,,,orange,line
0.0,8.0,4.0,1,5.0,0.0,,5.0,phase_2,stop,650.0,600.0,4.0,,,,,,,,,cyan,hexagon
0.0,1.0,1.0,0,5.0,5.0,817.9540634159999,5.0,phase_2,go,650.0,600.0,1.0,,,,,,,,,magenta,circle
0.0,2.0,2.0,1,6.0,0.0,,5.0,phase_2,stop,650.0,650.0,4.0,,,,,,,,,orange,line
0.0,7.0,3.0,1,6.0,6.0,767.7800655359999,5.0,phase_2,go,650.0,650.0,1.0,,,,,,,,,green,cross
0.0,2.0,2.0,1,6.0,6.0,884.8111629489999,5.0,phase_2,go,650.0,650.0,1.0,,,,,,,,,orange,line
0.0,6.0,2.0,0,5.0,0.0,,5.0,phase_2,go,650.0,650.0,5.0,,,,,,,,,blue,triangle
0.0,5.0,1.0,1,6.0,0.0,,5.0,phase_2,stop,650.0,700.0,4.0,,,,,,,,,white,square
0.0,7.0,3.0,1,6.0,0.0,,5.0,phase_2,stop,650.0,750.0,4.0,,,,,,,,,green,cross
0.0,1.0,1.0,0,5.0,5.0,968.00494194,5.0,phase_2,go,650.0,750.0,1.0,,,,,,,,,magenta,circle
0.0,2.0,2.0,1,5.0,0.0,,5.0,phase_2,stop,700.0,750.0,4.0,,,,,,,,,orange,line
0.0,2.0,2.0,1,5.0,5.0,951.277017593,5.0,phase_2,go,700.0,750.0,1.0,,,,,,,,,orange,line
0.0,8.0,4.0,1,5.0,0.0,,5.0,phase_2,stop,750.0,750.0,4.0,,,,,,,,,cyan,hexagon
0.0,7.0,3.0,1,5.0,0.0,,6.0,phase_2,stop,750.0,750.0,4.0,,,,,,,,,green,cross
0.0,3.0,3.0,0,6.0,6.0,901.2529850010001,6.0,phase_2,go,750.0,750.0,1.0,,,,,,,,,yellow,flipped triangle
0.0,3.0,3.0,0,6.0,0.0,,6.0,phase_2,go,750.0,750.0,5.0,,,,,,,,,yellow,flipped triangle
0.0,4.0,4.0,0,6.0,6.0,968.3749675749999,6.0,phase_2,go,750.0,750.0,1.0,,,,,,,,,gray,diamond
0.0,6.0,2.0,0,5.0,5.0,917.652130127,6.0,phase_2,go,750.0,750.0,1.0,,,,,,,,,blue,triangle
0.0,8.0,4.0,1,5.0,5.0,951.191902161,6.0,phase_2,go,750.0,750.0,1.0,,,,,,,,,cyan,hexagon
0.0,4.0,4.0,0,5.0,5.0,767.544031143,6.0,phase_2,go,750.0,750.0,1.0,,,,,,,,,gray,diamond
0.0,3.0,3.0,0,6.0,6.0,917.2179698939999,6.0,phase_2,go,750.0,750.0,1.0,,,,,,,,,yellow,flipped triangle
0.0,2.0,2.0,1,5.0,5.0,834.864854813,6.0,phase_2,stop,750.0,750.0,3.0,,,,,,,,,orange,line
0.0,4.0,4.0,0,6.0,6.0,918.224096298,6.0,phase_2,go,750.0,750.0,1.0,,,,,,,,,gray,diamond
0.0,8.0,4.0,1,5.0,0.0,,6.0,phase_2,stop,700.0,750.0,4.0,,,,,,,,,cyan,hexagon
0.0,1.0,1.0,0,6.0,6.0,900.952100754,6.0,phase_2,go,700.0,750.0,1.0,,,,,,,,,magenta,circle
0.0,5.0,1.0,1,6.0,0.0,,6.0,phase_2,go,700.0,750.0,5.0,,,,,,,,,white,square
0.0,6.0,2.0,0,6.0,6.0,818.455934525,6.0,phase_2,go,700.0,750.0,1.0,,,,,,,,,blue,triangle
0.0,5.0,1.0,1,5.0,0.0,,6.0,phase_2,go,700.0,750.0,5.0,,,,,,,,,white,square
0.0,5.0,1.0,1,6.0,6.0,818.547964096,6.0,phase_2,stop,700.0,750.0,3.0,,,,,,,,,white,square
0.0,7.0,3.0,1,5.0,5.0,817.9130554200001,6.0,phase_2,stop,750.0,750.0,3.0,,,,,,,,,green,cross
0.0,8.0,4.0,1,5.0,0.0,,6.0,phase_2,stop,700.0,750.0,4.0,,,,,,,,,cyan,hexagon
0.0,1.0,1.0,0,6.0,6.0,951.658010483,6.0,phase_2,go,700.0,750.0,1.0,,,,,,,,,magenta,circle
0.0,5.0,1.0,1,5.0,0.0,,6.0,phase_2,stop,750.0,750.0,4.0,,,,,,,,,white,square
0.0,2.0,2.0,1,6.0,6.0,968.215942383,6.0,phase_2,go,750.0,750.0,1.0,,,,,,,,,orange,line
0.0,7.0,3.0,1,5.0,5.0,851.163864136,6.0,phase_2,stop,750.0,750.0,3.0,,,,,,,,,green,cross
0.0,6.0,2.0,0,5.0,0.0,,6.0,phase_2,go,750.0,750.0,5.0,,,,,,,,,blue,triangle
0.0,3.0,3.0,0,5.0,0.0,,6.0,phase_2,go,750.0,750.0,5.0,,,,,,,,,yellow,flipped triangle
0.0,8.0,4.0,1,6.0,6.0,850.709199905,6.0,phase_2,stop,750.0,700.0,3.0,,,,,,,,,cyan,hexagon
0.0,1.0,1.0,0,6.0,6.0,951.1308670039999,6.0,phase_2,go,750.0,700.0,1.0,,,,,,,,,magenta,circle
0.0,7.0,3.0,1,6.0,0.0,,6.0,phase_2,stop,750.0,650.0,4.0,,,,,,,,,green,cross
0.0,2.0,2.0,1,5.0,0.0,,6.0,phase_2,go,750.0,650.0,5.0,,,,,,,,,orange,line
0.0,3.0,3.0,0,6.0,6.0,884.897947311,6.0,phase_2,go,750.0,650.0,1.0,,,,,,,,,yellow,flipped triangle
0.0,7.0,3.0,1,6.0,0.0,,6.0,phase_2,stop,750.0,700.0,4.0,,,,,,,,,green,cross
0.0,5.0,1.0,1,6.0,0.0,,6.0,phase_2,stop,750.0,750.0,4.0,,,,,,,,,white,square
0.0,6.0,2.0,0,5.0,5.0,784.7452163700001,6.0,phase_2,go,750.0,750.0,1.0,,,,,,,,,blue,triangle
0.0,6.0,2.0,0,5.0,0.0,,6.0,phase_2,go,750.0,750.0,5.0,,,,,,,,,blue,triangle
0.0,4.0,4.0,0,5.0,5.0,818.403959274,6.0,phase_2,go,750.0,750.0,1.0,,,,,,,,,gray,diamond
0.0,3.0,3.0,0,5.0,0.0,,6.0,phase_2,go,750.0,750.0,5.0,,,,,,,,,yellow,flipped triangle
0.0,1.0,1.0,0,6.0,6.0,967.993021011,6.0,phase_2,go,750.0,750.0,1.0,,,,,,,,,magenta,circle
0.0,1.0,1.0,0,6.0,6.0,550.94408989,7.0,phase_2,go,750.0,750.0,1.0,,,,,,,,,magenta,circle
0.0,6.0,2.0,0,5.0,5.0,818.1571960450001,7.0,phase_2,go,750.0,750.0,1.0,,,,,,,,,blue,triangle
0.0,5.0,1.0,1,6.0,6.0,817.65794754,7.0,phase_2,go,750.0,750.0,1.0,,,,,,,,,white,square
0.0,7.0,3.0,1,6.0,6.0,500.761985779,7.0,phase_2,stop,750.0,750.0,3.0,,,,,,,,,green,cross
0.0,4.0,4.0,0,5.0,0.0,,7.0,phase_2,go,750.0,750.0,5.0,,,,,,,,,gray,diamond
0.0,5.0,1.0,1,5.0,5.0,450.928926468,7.0,phase_2,go,750.0,750.0,1.0,,,,,,,,,white,square
0.0,5.0,1.0,1,5.0,5.0,618.3059215549999,7.0,phase_2,stop,700.0,750.0,3.0,,,,,,,,,white,square
0.0,1.0,1.0,0,5.0,0.0,,7.0,phase_2,go,700.0,750.0,5.0,,,,,,,,,magenta,circle
0.0,4.0,4.0,0,6.0,6.0,567.753076553,7.0,phase_2,go,700.0,750.0,1.0,,,,,,,,,gray,diamond
0.0,8.0,4.0,1,6.0,0.0,,7.0,phase_2,go,700.0,750.0,5.0,,,,,,,,,cyan,hexagon
0.0,1.0,1.0,0,6.0,6.0,868.101835251,7.0,phase_2,go,700.0,750.0,1.0,,,,,,,,,magenta,circle
0.0,7.0,3.0,1,6.0,0.0,,7.0,phase_2,go,700.0,750.0,5.0,,,,,,,,,green,cross
0.0,7.0,3.0,1,6.0,6.0,818.476200104,7.0,phase_2,stop,700.0,700.0,3.0,,,,,,,,,green,cross
0.0,5.0,1.0,1,5.0,5.0,800.960063934,7.0,phase_2,stop,650.0,700.0,3.0,,,,,,,,,white,square
0.0,6.0,2.0,0,5.0,5.0,784.651994705,7.0,phase_2,go,650.0,700.0,1.0,,,,,,,,,blue,triangle
0.0,3.0,3.0,0,5.0,0.0,,7.0,phase_2,go,650.0,700.0,5.0,,,,,,,,,yellow,flipped triangle
0.0,1.0,1.0,0,6.0,6.0,917.990922928,7.0,phase_2,go,650.0,700.0,1.0,,,,,,,,,magenta,circle
0.0,8.0,4.0,1,6.0,0.0,,7.0,phase_2,stop,650.0,650.0,4.0,,,,,,,,,cyan,hexagon
0.0,7.0,3.0,1,5.0,0.0,,7.0,phase_2,go,650.0,650.0,5.0,,,,,,,,,green,cross
0.0,6.0,2.0,0,5.0,5.0,901.5090465549999,7.0,phase_2,go,650.0,650.0,1.0,,,,,,,,,blue,triangle
0.0,7.0,3.0,1,5.0,0.0,,7.0,phase_2,stop,600.0,650.0,4.0,,,,,,,,,green,cross
0.0,8.0,4.0,1,6.0,6.0,717.4150943760001,7.0,phase_2,stop,600.0,700.0,3.0,,,,,,,,,cyan,hexagon
0.0,4.0,4.0,0,5.0,5.0,884.5260143280001,7.0,phase_2,go,600.0,700.0,1.0,,,,,,,,,gray,diamond
0.0,5.0,1.0,1,5.0,0.0,,7.0,phase_2,stop,650.0,700.0,4.0,,,,,,,,,white,square
0.0,4.0,4.0,0,5.0,5.0,751.4030933380001,7.0,phase_2,go,650.0,700.0,1.0,,,,,,,,,gray,diamond
0.0,8.0,4.0,1,6.0,6.0,851.000785828,7.0,phase_2,stop,650.0,650.0,3.0,,,,,,,,,cyan,hexagon
0.0,5.0,1.0,1,5.0,5.0,951.486110687,7.0,phase_2,go,650.0,650.0,1.0,,,,,,,,,white,square
0.0,3.0,3.0,0,6.0,0.0,,7.0,phase_2,go,650.0,650.0,5.0,,,,,,,,,yellow,flipped triangle
0.0,8.0,4.0,1,5.0,5.0,817.907094955,7.0,phase_2,stop,700.0,650.0,3.0,,,,,,,,,cyan,hexagon
0.0,2.0,2.0,1,5.0,0.0,,7.0,phase_2,stop,650.0,650.0,4.0,,,,,,,,,orange,line
0.0,5.0,1.0,1,6.0,6.0,668.333053589,7.0,phase_2,stop,650.0,600.0,3.0,,,,,,,,,white,square
0.0,6.0,2.0,0,6.0,6.0,750.971078873,7.0,phase_2,go,650.0,600.0,1.0,,,,,,,,,blue,triangle
0.0,8.0,4.0,1,6.0,6.0,967.8370952610001,7.0,phase_2,go,650.0,600.0,1.0,,,,,,,,,cyan,hexagon
0.0,6.0,2.0,0,6.0,6.0,901.278972626,7.0,phase_2,go,650.0,600.0,1.0,,,,,,,,,blue,triangle
0.0,8.0,4.0,1,6.0,0.0,,7.0,phase_2,stop,650.0,550.0,4.0,,,,,,,,,cyan,hexagon
0.0,1.0,1.0,0,5.0,5.0,868.088006973,7.0,phase_2,go,650.0,550.0,1.0,,,,,,,,,magenta,circle
0.0,4.0,4.0,0,6.0,6.0,701.295852661,8.0,phase_2,go,650.0,550.0,1.0,,,,,,,,,gray,diamond
0.0,5.0,1.0,1,5.0,5.0,767.743110657,8.0,phase_2,stop,700.0,550.0,3.0,,,,,,,,,white,square
0.0,7.0,3.0,1,6.0,0.0,,8.0,phase_2,stop,700.0,600.0,4.0,,,,,,,,,green,cross
0.0,6.0,2.0,0,6.0,6.0,951.128005981,8.0,phase_2,go,700.0,600.0,1.0,,,,,,,,,blue,triangle
0.0,4.0,4.0,0,5.0,0.0,,8.0,phase_2,go,700.0,600.0,5.0,,,,,,,,,gray,diamond
0.0,8.0,4.0,1,6.0,0.0,,8.0,phase_2,stop,700.0,650.0,4.0,,,,,,,,,cyan,hexagon
0.0,4.0,4.0,0,6.0,6.0,951.895952225,8.0,phase_2,go,700.0,650.0,1.0,,,,,,,,,gray,diamond
0.0,2.0,2.0,1,5.0,0.0,,8.0,phase_2,stop,650.0,650.0,4.0,,,,,,,,,orange,line
0.0,3.0,3.0,0,5.0,0.0,,8.0,phase_2,go,650.0,650.0,5.0,,,,,,,,,yellow,flipped triangle
0.0,7.0,3.0,1,5.0,5.0,901.793003082,8.0,phase_2,stop,700.0,650.0,3.0,,,,,,,,,green,cross
0.0,4.0,4.0,0,5.0,0.0,,8.0,phase_2,go,700.0,650.0,5.0,,,,,,,,,gray,diamond
0.0,6.0,2.0,0,6.0,6.0,885.1749897,8.0,phase_2,go,700.0,650.0,1.0,,,,,,,,,blue,triangle
0.0,8.0,4.0,1,5.0,5.0,850.8119583130001,8.0,phase_2,go,700.0,650.0,1.0,,,,,,,,,cyan,hexagon
0.0,5.0,1.0,1,5.0,5.0,784.6410274509999,8.0,phase_2,stop,650.0,650.0,3.0,,,,,,,,,white,square
0.0,2.0,2.0,1,6.0,6.0,767.864942551,8.0,phase_2,stop,650.0,700.0,3.0,,,,,,,,,orange,line
0.0,7.0,3.0,1,6.0,0.0,,8.0,phase_2,stop,650.0,650.0,4.0,,,,,,,,,green,cross
0.0,6.0,2.0,0,6.0,6.0,934.278011322,8.0,phase_2,go,650.0,650.0,1.0,,,,,,,,,blue,triangle
0.0,1.0,1.0,0,6.0,6.0,968.1320190429999,8.0,phase_2,go,650.0,650.0,1.0,,,,,,,,,magenta,circle
0.0,5.0,1.0,1,5.0,0.0,,8.0,phase_2,stop,600.0,650.0,4.0,,,,,,,,,white,square
0.0,3.0,3.0,0,5.0,5.0,868.0770397189999,8.0,phase_2,go,600.0,650.0,1.0,,,,,,,,,yellow,flipped triangle
0.0,8.0,4.0,1,5.0,0.0,,8.0,phase_2,stop,650.0,650.0,4.0,,,,,,,,,cyan,hexagon
0.0,6.0,2.0,0,6.0,6.0,884.454965591,8.0,phase_2,go,650.0,650.0,1.0,,,,,,,,,blue,triangle
0.0,3.0,3.0,0,5.0,5.0,733.990907669,8.0,phase_2,go,650.0,650.0,1.0,,,,,,,,,yellow,flipped triangle
0.0,2.0,2.0,1,5.0,0.0,,8.0,phase_2,go,650.0,650.0,5.0,,,,,,,,,orange,line
0.0,7.0,3.0,1,6.0,0.0,,8.0,phase_2,stop,650.0,700.0,4.0,,,,,,,,,green,cross
0.0,3.0,3.0,0,6.0,6.0,951.809167862,8.0,phase_2,go,650.0,700.0,1.0,,,,,,,,,yellow,flipped triangle
0.0,2.0,2.0,1,5.0,5.0,850.9869575499999,8.0,phase_2,go,650.0,700.0,1.0,,,,,,,,,orange,line
0.0,8.0,4.0,1,5.0,0.0,,8.0,phase_2,stop,700.0,700.0,4.0,,,,,,,,,cyan,hexagon
0.0,7.0,3.0,1,6.0,6.0,851.338863373,8.0,phase_2,stop,700.0,750.0,3.0,,,,,,,,,green,cross
0.0,1.0,1.0,0,6.0,6.0,834.799051285,8.0,phase_2,go,700.0,750.0,1.0,,,,,,,,,magenta,circle
0.0,7.0,3.0,1,6.0,6.0,817.961931229,8.0,phase_2,go,700.0,750.0,1.0,,,,,,,,,green,cross
0.0,1.0,1.0,0,5.0,5.0,967.761039734,8.0,phase_2,go,700.0,750.0,1.0,,,,,,,,,magenta,circle
0.0,6.0,2.0,0,6.0,6.0,834.530115128,8.0,phase_2,go,700.0,750.0,1.0,,,,,,,,,blue,triangle
0.0,2.0,2.0,1,5.0,5.0,818.0749416350001,8.0,phase_2,stop,750.0,750.0,3.0,,,,,,,,,orange,line
0.0,8.0,4.0,1,6.0,6.0,784.695863724,8.0,phase_2,stop,750.0,700.0,3.0,,,,,,,,,cyan,hexagon
0.0,3.0,3.0,0,5.0,5.0,717.9419994350001,8.0,phase_2,go,750.0,700.0,1.0,,,,,,,,,yellow,flipped triangle
0.0,4.0,4.0,0,7.0,3.0,3954.94484901,1.0,phase_3,,,,,220.0,5.0,176.0,44.0,220.0,132.0,88.0,264.0,gray,diamond
0.0,1.0,1.0,0,7.0,2.0,3871.69885635,1.0,phase_3,,,,,88.0,2.0,44.0,88.0,132.0,176.0,264.0,220.0,magenta,circle
0.0,6.0,2.0,0,7.0,4.0,3103.5900116000003,1.0,phase_3,,,,,170.0,5.0,136.0,204.0,68.0,170.0,102.0,34.0,blue,triangle
0.0,1.0,1.0,0,7.0,4.0,1251.62196159,1.0,phase_3,,,,,195.0,5.0,78.0,156.0,117.0,195.0,39.0,234.0,magenta,circle
0.0,7.0,3.0,1,7.0,2.0,2336.13300323,1.0,phase_3,,,,,170.0,5.0,136.0,170.0,204.0,102.0,68.0,34.0,green,cross
0.0,5.0,1.0,1,7.0,5.0,1668.67399216,1.0,phase_3,,,,,102.0,3.0,170.0,204.0,34.0,68.0,102.0,136.0,white,square
0.0,3.0,3.0,0,7.0,4.0,2236.2909317000003,1.0,phase_3,,,,,156.0,4.0,117.0,39.0,234.0,156.0,78.0,195.0,yellow,flipped triangle
0.0,7.0,3.0,1,7.0,2.0,2135.72692871,1.0,phase_3,,,,,196.0,4.0,147.0,196.0,294.0,49.0,98.0,245.0,green,cross
0.0,3.0,3.0,0,7.0,2.0,1384.88888741,1.0,phase_3,,,,,264.0,6.0,220.0,264.0,44.0,132.0,176.0,88.0,yellow,flipped triangle
0.0,6.0,2.0,0,7.0,4.0,1885.8609199500002,1.0,phase_3,,,,,54.0,1.0,162.0,108.0,270.0,54.0,324.0,216.0,blue,triangle
0.0,7.0,3.0,1,7.0,1.0,3353.99913788,1.0,phase_3,,,,,162.0,3.0,162.0,270.0,324.0,108.0,216.0,54.0,green,cross
0.0,8.0,4.0,1,7.0,4.0,1702.5051116900001,1.0,phase_3,,,,,117.0,3.0,234.0,156.0,195.0,117.0,78.0,39.0,cyan,hexagon
0.0,8.0,4.0,1,7.0,5.0,1852.22697258,1.0,phase_3,,,,,136.0,4.0,34.0,170.0,68.0,102.0,136.0,204.0,cyan,hexagon
0.0,2.0,2.0,1,7.0,6.0,3153.6700725600003,1.0,phase_3,,,,,176.0,4.0,44.0,264.0,220.0,132.0,88.0,176.0,orange,line
0.0,6.0,2.0,0,7.0,2.0,1568.91393661,1.0,phase_3,,,,,176.0,4.0,264.0,176.0,220.0,44.0,88.0,132.0,blue,triangle
0.0,3.0,3.0,0,7.0,1.0,1435.04500389,1.0,phase_3,,,,,147.0,3.0,147.0,196.0,49.0,294.0,245.0,98.0,yellow,flipped triangle
0.0,1.0,1.0,0,7.0,5.0,1301.7048835800001,1.0,phase_3,,,,,147.0,3.0,98.0,49.0,294.0,196.0,147.0,245.0,magenta,circle
0.0,2.0,2.0,1,7.0,4.0,1334.83290672,1.0,phase_3,,,,,68.0,2.0,170.0,102.0,204.0,68.0,136.0,34.0,orange,line
0.0,8.0,4.0,1,7.0,3.0,1651.95703506,1.0,phase_3,,,,,132.0,3.0,44.0,176.0,132.0,220.0,264.0,88.0,cyan,hexagon
0.0,7.0,3.0,1,7.0,6.0,1268.17679405,1.0,phase_3,,,,,162.0,3.0,324.0,108.0,54.0,216.0,270.0,162.0,green,cross
0.0,1.0,1.0,0,7.0,3.0,3320.56117058,2.0,phase_3,,,,,78.0,2.0,156.0,39.0,78.0,195.0,234.0,117.0,magenta,circle
0.0,8.0,4.0,1,7.0,4.0,3787.5909805300003,2.0,phase_3,,,,,147.0,3.0,196.0,245.0,98.0,147.0,294.0,49.0,cyan,hexagon
0.0,5.0,1.0,1,7.0,1.0,3203.7920951799997,2.0,phase_3,,,,,216.0,4.0,216.0,324.0,54.0,270.0,108.0,162.0,white,square
0.0,4.0,4.0,0,7.0,6.0,3654.30808067,2.0,phase_3,,,,,117.0,3.0,234.0,195.0,39.0,156.0,78.0,117.0,gray,diamond
0.0,4.0,4.0,0,7.0,1.0,2703.27591896,2.0,phase_3,,,,,196.0,4.0,196.0,147.0,294.0,245.0,49.0,98.0,gray,diamond
0.0,3.0,3.0,0,7.0,5.0,3487.06102371,2.0,phase_3,,,,,234.0,6.0,195.0,39.0,78.0,156.0,234.0,117.0,yellow,flipped triangle
0.0,2.0,2.0,1,7.0,3.0,2052.4930954,2.0,phase_3,,,,,147.0,3.0,245.0,49.0,147.0,294.0,196.0,98.0,orange,line
0.0,3.0,3.0,0,7.0,4.0,1935.6470107999999,2.0,phase_3,,,,,108.0,2.0,162.0,324.0,54.0,108.0,270.0,216.0,yellow,flipped triangle
0.0,8.0,4.0,1,7.0,2.0,3420.63593864,2.0,phase_3,,,,,170.0,5.0,34.0,170.0,102.0,204.0,136.0,68.0,cyan,hexagon
0.0,7.0,3.0,1,7.0,4.0,1936.02490425,2.0,phase_3,,,,,220.0,5.0,132.0,264.0,44.0,220.0,176.0,88.0,green,cross
0.0,4.0,4.0,0,7.0,3.0,1734.83920097,2.0,phase_3,,,,,132.0,3.0,220.0,176.0,132.0,88.0,264.0,44.0,gray,diamond
0.0,1.0,1.0,0,7.0,1.0,2653.0201435100003,2.0,phase_3,,,,,220.0,5.0,220.0,88.0,132.0,264.0,44.0,176.0,magenta,circle
0.0,4.0,4.0,0,7.0,3.0,2919.91782188,2.0,phase_3,,,,,216.0,4.0,54.0,270.0,216.0,108.0,324.0,162.0,gray,diamond
0.0,5.0,1.0,1,7.0,2.0,3303.85398865,2.0,phase_3,,,,,196.0,4.0,245.0,196.0,294.0,147.0,98.0,49.0,white,square
0.0,7.0,3.0,1,7.0,2.0,4455.109119420001,2.0,phase_3,,,,,68.0,2.0,34.0,68.0,136.0,102.0,170.0,204.0,green,cross
0.0,8.0,4.0,1,7.0,2.0,3520.95293999,2.0,phase_3,,,,,220.0,5.0,88.0,220.0,132.0,176.0,264.0,44.0,cyan,hexagon
0.0,6.0,2.0,0,7.0,5.0,2402.95290947,2.0,phase_3,,,,,270.0,5.0,162.0,54.0,324.0,216.0,270.0,108.0,blue,triangle
0.0,8.0,4.0,1,7.0,6.0,3854.54487801,2.0,phase_3,,,,,162.0,3.0,54.0,216.0,108.0,324.0,270.0,162.0,cyan,hexagon
0.0,2.0,2.0,1,7.0,1.0,2770.20096779,2.0,phase_3,,,,,132.0,3.0,132.0,44.0,264.0,176.0,88.0,220.0,orange,line
0.0,5.0,1.0,1,7.0,2.0,4672.27911949,2.0,phase_3,,,,,88.0,2.0,264.0,88.0,220.0,44.0,176.0,132.0,white,square
0.0,6.0,2.0,0,7.0,4.0,1551.92089081,3.0,phase_3,,,,,117.0,3.0,156.0,39.0,78.0,117.0,234.0,195.0,blue,triangle
0.0,4.0,4.0,0,7.0,3.0,1902.48990059,3.0,phase_3,,,,,147.0,3.0,196.0,98.0,147.0,245.0,294.0,49.0,gray,diamond
0.0,2.0,2.0,1,7.0,6.0,3003.5350322699996,3.0,phase_3,,,,,117.0,3.0,195.0,156.0,39.0,78.0,234.0,117.0,orange,line
0.0,1.0,1.0,0,7.0,1.0,1785.66098213,3.0,phase_3,,,,,98.0,2.0,98.0,245.0,294.0,147.0,49.0,196.0,magenta,circle
0.0,7.0,3.0,1,7.0,2.0,3888.17119598,3.0,phase_3,,,,,195.0,5.0,234.0,195.0,78.0,39.0,156.0,117.0,green,cross
0.0,7.0,3.0,1,7.0,4.0,3454.3211460099997,3.0,phase_3,,,,,156.0,4.0,195.0,78.0,234.0,156.0,39.0,117.0,green,cross
0.0,4.0,4.0,0,7.0,5.0,3520.9288597100003,3.0,phase_3,,,,,102.0,3.0,170.0,136.0,34.0,204.0,102.0,68.0,gray,diamond
0.0,4.0,4.0,0,7.0,4.0,2853.7478447,3.0,phase_3,,,,,117.0,3.0,156.0,195.0,78.0,117.0,234.0,39.0,gray,diamond
0.0,6.0,2.0,0,7.0,1.0,2035.88414192,3.0,phase_3,,,,,136.0,4.0,136.0,204.0,68.0,170.0,34.0,102.0,blue,triangle
0.0,1.0,1.0,0,7.0,6.0,3570.96409798,3.0,phase_3,,,,,216.0,4.0,324.0,270.0,108.0,54.0,162.0,216.0,magenta,circle
0.0,2.0,2.0,1,7.0,2.0,4354.60400581,3.0,phase_3,,,,,78.0,2.0,39.0,78.0,117.0,156.0,195.0,234.0,orange,line
0.0,1.0,1.0,0,7.0,5.0,2703.2318115199996,3.0,phase_3,,,,,136.0,4.0,102.0,170.0,204.0,68.0,136.0,34.0,magenta,circle
0.0,2.0,2.0,1,7.0,1.0,3020.25604248,3.0,phase_3,,,,,98.0,2.0,98.0,196.0,245.0,147.0,294.0,49.0,orange,line
0.0,4.0,4.0,0,7.0,6.0,2719.86603737,3.0,phase_3,,,,,102.0,3.0,34.0,204.0,68.0,136.0,170.0,102.0,gray,diamond
0.0,2.0,2.0,1,7.0,2.0,2936.95783615,3.0,phase_3,,,,,108.0,2.0,54.0,108.0,216.0,270.0,324.0,162.0,orange,line
0.0,5.0,1.0,1,7.0,1.0,4654.80113029,3.0,phase_3,,,,,195.0,5.0,195.0,156.0,78.0,117.0,39.0,234.0,white,square
0.0,3.0,3.0,0,7.0,3.0,1818.83001328,3.0,phase_3,,,,,196.0,4.0,147.0,49.0,196.0,98.0,294.0,245.0,yellow,flipped triangle
0.0,2.0,2.0,1,7.0,3.0,2702.99887657,3.0,phase_3,,,,,108.0,2.0,54.0,216.0,108.0,270.0,324.0,162.0,orange,line
0.0,5.0,1.0,1,7.0,4.0,3103.54685783,3.0,phase_3,,,,,78.0,2.0,117.0,156.0,195.0,78.0,234.0,39.0,white,square
0.0,5.0,1.0,1,7.0,5.0,2619.1759109500003,3.0,phase_3,,,,,98.0,2.0,196.0,49.0,294.0,147.0,98.0,245.0,white,square
0.0,5.0,1.0,1,7.0,4.0,3136.76190376,4.0,phase_3,,,,,108.0,2.0,270.0,162.0,324.0,108.0,54.0,216.0,white,square
0.0,7.0,3.0,1,7.0,2.0,2803.4789562200003,4.0,phase_3,,,,,176.0,4.0,220.0,176.0,44.0,88.0,132.0,264.0,green,cross
0.0,6.0,2.0,0,7.0,3.0,4672.4960804,4.0,phase_3,,,,,245.0,5.0,98.0,147.0,245.0,294.0,196.0,49.0,blue,triangle
0.0,3.0,3.0,0,7.0,4.0,2970.3848362,4.0,phase_3,,,,,204.0,6.0,102.0,34.0,170.0,204.0,68.0,136.0,yellow,flipped triangle
0.0,5.0,1.0,1,7.0,1.0,2819.71406937,4.0,phase_3,,,,,170.0,5.0,170.0,204.0,136.0,34.0,102.0,68.0,white,square
0.0,3.0,3.0,0,7.0,2.0,2502.27212906,4.0,phase_3,,,,,204.0,6.0,102.0,204.0,170.0,34.0,68.0,136.0,yellow,flipped triangle
0.0,8.0,4.0,1,7.0,3.0,4955.7590484600005,4.0,phase_3,,,,,196.0,4.0,147.0,294.0,196.0,98.0,49.0,245.0,cyan,hexagon
0.0,7.0,3.0,1,7.0,4.0,3086.90404892,4.0,phase_3,,,,,49.0,1.0,196.0,98.0,147.0,49.0,245.0,294.0,green,cross
0.0,6.0,2.0,0,7.0,6.0,3587.4900817899997,4.0,phase_3,,,,,196.0,4.0,49.0,98.0,147.0,245.0,294.0,196.0,blue,triangle
0.0,5.0,1.0,1,7.0,4.0,3169.5840358699998,4.0,phase_3,,,,,176.0,4.0,264.0,44.0,88.0,176.0,132.0,220.0,white,square
0.0,6.0,2.0,0,7.0,,,4.0,phase_3,,,,,0.0,,220.0,132.0,88.0,176.0,44.0,264.0,blue,triangle
0.0,2.0,2.0,1,7.0,6.0,3420.68481445,4.0,phase_3,,,,,68.0,2.0,34.0,136.0,204.0,170.0,102.0,68.0,orange,line
0.0,8.0,4.0,1,7.0,3.0,1718.75286102,4.0,phase_3,,,,,156.0,4.0,78.0,39.0,156.0,234.0,195.0,117.0,cyan,hexagon
0.0,1.0,1.0,0,7.0,5.0,1601.7711162599999,4.0,phase_3,,,,,204.0,6.0,136.0,102.0,34.0,68.0,204.0,170.0,magenta,circle
0.0,3.0,3.0,0,7.0,2.0,2035.8419418299998,4.0,phase_3,,,,,88.0,2.0,264.0,88.0,44.0,220.0,176.0,132.0,yellow,flipped triangle
0.0,8.0,4.0,1,7.0,1.0,3320.65796852,4.0,phase_3,,,,,270.0,5.0,270.0,108.0,162.0,54.0,324.0,216.0,cyan,hexagon
0.0,4.0,4.0,0,7.0,2.0,1969.0730571699999,4.0,phase_3,,,,,108.0,2.0,54.0,108.0,162.0,216.0,324.0,270.0,gray,diamond
0.0,6.0,2.0,0,7.0,2.0,3587.50510216,4.0,phase_3,,,,,195.0,5.0,78.0,195.0,117.0,234.0,156.0,39.0,blue,triangle
0.0,1.0,1.0,0,7.0,5.0,2436.84697151,4.0,phase_3,,,,,108.0,2.0,162.0,324.0,54.0,216.0,108.0,270.0,magenta,circle
0.0,3.0,3.0,0,7.0,2.0,3153.8019180300003,4.0,phase_3,,,,,162.0,3.0,324.0,162.0,108.0,270.0,54.0,216.0,yellow,flipped triangle
