stepwise_reward_magnitude,paired_with_stopping,quadrant,response,reaction_time,block,which_part,stop_signal_trial_type,left_SSD,right_SSD,accuracy,chosen_bidding_amount,chosen_bidding_level,possible_bid_1,possible_bid_2,possible_bid_3,possible_bid_4,possible_bid_5,possible_bid_6,color_text,shape_text
4.0,1,1.0,1.0,467.768907547,1.0,part_1,,,,,,,,,,,,,gray,triangle
4.0,0,1.0,1.0,417.75393486,1.0,part_1,,,,,,,,,,,,,white,circle
1.0,0,2.0,2.0,384.15288925199997,1.0,part_1,,,,,,,,,,,,,magenta,hexagon
4.0,0,2.0,2.0,400.460004807,1.0,part_1,,,,,,,,,,,,,white,circle
4.0,1,1.0,1.0,351.181983948,1.0,part_1,,,,,,,,,,,,,gray,triangle
1.0,0,1.0,1.0,350.73900222799995,1.0,part_1,,,,,,,,,,,,,magenta,hexagon
0.5,0,3.0,3.0,318.09091567999997,1.0,part_1,,,,,,,,,,,,,green,square
2.0,1,2.0,2.0,433.64906311,1.0,part_1,,,,,,,,,,,,,blue,line
4.0,1,1.0,1.0,417.895078659,1.0,part_1,,,,,,,,,,,,,gray,triangle
0.5,0,2.0,2.0,367.79594421400003,1.0,part_1,,,,,,,,,,,,,green,square
2.0,1,4.0,4.0,350.805997849,1.0,part_1,,,,,,,,,,,,,blue,line
0.5,0,2.0,2.0,385.056972504,1.0,part_1,,,,,,,,,,,,,green,square
2.0,0,1.0,1.0,300.799846649,1.0,part_1,,,,,,,,,,,,,yellow,cross
0.5,0,1.0,1.0,333.853006363,1.0,part_1,,,,,,,,,,,,,green,square
1.0,0,4.0,4.0,384.244918823,1.0,part_1,,,,,,,,,,,,,magenta,hexagon
2.0,0,2.0,2.0,301.060914993,1.0,part_1,,,,,,,,,,,,,yellow,cross
1.0,0,4.0,4.0,350.811004639,1.0,part_1,,,,,,,,,,,,,magenta,hexagon
1.0,0,3.0,3.0,401.09205246,1.0,part_1,,,,,,,,,,,,,magenta,hexagon
1.0,1,2.0,2.0,400.806903839,1.0,part_1,,,,,,,,,,,,,cyan,diamond
1.0,1,1.0,1.0,317.353963852,1.0,part_1,,,,,,,,,,,,,cyan,diamond
0.5,1,3.0,3.0,334.238052368,1.0,part_1,,,,,,,,,,,,,orange,flipped triangle
0.5,0,3.0,3.0,333.842992783,1.0,part_1,,,,,,,,,,,,,green,square
1.0,0,4.0,4.0,351.08590126,1.0,part_1,,,,,,,,,,,,,magenta,hexagon
2.0,0,4.0,4.0,317.951917648,1.0,part_1,,,,,,,,,,,,,yellow,cross
2.0,1,3.0,3.0,317.37184524500003,1.0,part_1,,,,,,,,,,,,,blue,line
0.5,1,2.0,2.0,317.704916,1.0,part_1,,,,,,,,,,,,,orange,flipped triangle
4.0,0,1.0,1.0,351.076126099,1.0,part_1,,,,,,,,,,,,,white,circle
0.5,1,2.0,2.0,450.945854187,1.0,part_1,,,,,,,,,,,,,orange,flipped triangle
1.0,0,1.0,1.0,400.84815025300003,1.0,part_1,,,,,,,,,,,,,magenta,hexagon
0.5,0,1.0,1.0,350.979089737,1.0,part_1,,,,,,,,,,,,,green,square
0.5,1,4.0,4.0,333.889007568,1.0,part_1,,,,,,,,,,,,,orange,flipped triangle
0.5,0,4.0,4.0,400.16698837300004,1.0,part_1,,,,,,,,,,,,,green,square
1.0,1,2.0,2.0,467.97394752499997,1.0,part_1,,,,,,,,,,,,,cyan,diamond
4.0,0,3.0,3.0,384.316921234,1.0,part_1,,,,,,,,,,,,,white,circle
4.0,1,1.0,1.0,334.08689498900003,1.0,part_1,,,,,,,,,,,,,gray,triangle
2.0,0,3.0,3.0,334.563970566,1.0,part_1,,,,,,,,,,,,,yellow,cross
0.5,1,2.0,2.0,451.24006271400003,1.0,part_1,,,,,,,,,,,,,orange,flipped triangle
0.5,0,4.0,4.0,350.73280334500004,1.0,part_1,,,,,,,,,,,,,green,square
1.0,1,3.0,3.0,401.352882385,1.0,part_1,,,,,,,,,,,,,cyan,diamond
0.5,0,3.0,3.0,350.667953491,1.0,part_1,,,,,,,,,,,,,green,square
0.5,1,1.0,1.0,417.175769806,1.0,part_1,,,,,,,,,,,,,orange,flipped triangle
1.0,0,4.0,4.0,351.007938385,1.0,part_1,,,,,,,,,,,,,magenta,hexagon
0.5,0,2.0,2.0,384.227991104,1.0,part_1,,,,,,,,,,,,,green,square
1.0,0,1.0,1.0,350.877046585,1.0,part_1,,,,,,,,,,,,,magenta,hexagon
1.0,1,2.0,2.0,434.034824371,1.0,part_1,,,,,,,,,,,,,cyan,diamond
1.0,0,3.0,3.0,367.97213554399997,1.0,part_1,,,,,,,,,,,,,magenta,hexagon
0.5,1,2.0,2.0,467.161893845,1.0,part_1,,,,,,,,,,,,,orange,flipped triangle
4.0,0,1.0,1.0,351.04990005499997,1.0,part_1,,,,,,,,,,,,,white,circle
2.0,0,4.0,4.0,283.872842789,1.0,part_1,,,,,,,,,,,,,yellow,cross
4.0,0,1.0,1.0,401.01194381700003,1.0,part_1,,,,,,,,,,,,,white,circle
0.5,0,4.0,4.0,417.449951172,1.0,part_1,,,,,,,,,,,,,green,square
2.0,1,2.0,2.0,400.50005912800003,1.0,part_1,,,,,,,,,,,,,blue,line
4.0,1,1.0,1.0,434.138774872,1.0,part_1,,,,,,,,,,,,,gray,triangle
4.0,0,3.0,3.0,367.464065552,1.0,part_1,,,,,,,,,,,,,white,circle
2.0,1,3.0,3.0,534.6910953519999,1.0,part_1,,,,,,,,,,,,,blue,line
0.5,0,2.0,2.0,501.228094101,1.0,part_1,,,,,,,,,,,,,green,square
0.5,1,3.0,3.0,384.23705101,1.0,part_1,,,,,,,,,,,,,orange,flipped triangle
2.0,0,2.0,2.0,400.44593811,1.0,part_1,,,,,,,,,,,,,yellow,cross
2.0,1,4.0,4.0,367.40303039599996,1.0,part_1,,,,,,,,,,,,,blue,line
1.0,0,4.0,4.0,367.906093597,1.0,part_1,,,,,,,,,,,,,magenta,hexagon
1.0,0,1.0,1.0,367.082118988,1.0,part_1,,,,,,,,,,,,,magenta,hexagon
2.0,0,4.0,4.0,434.164047241,1.0,part_1,,,,,,,,,,,,,yellow,cross
0.5,0,1.0,1.0,384.08613204999995,1.0,part_1,,,,,,,,,,,,,green,square
2.0,0,3.0,3.0,318.174123764,1.0,part_1,,,,,,,,,,,,,yellow,cross
4.0,1,4.0,4.0,333.925008774,1.0,part_1,,,,,,,,,,,,,gray,triangle
1.0,1,3.0,3.0,367.68794059799995,1.0,part_1,,,,,,,,,,,,,cyan,diamond
0.5,0,2.0,2.0,334.27000045799997,1.0,part_1,,,,,,,,,,,,,green,square
2.0,0,2.0,2.0,400.532960892,1.0,part_1,,,,,,,,,,,,,yellow,cross
1.0,0,4.0,4.0,451.07793808,1.0,part_1,,,,,,,,,,,,,magenta,hexagon
1.0,0,4.0,4.0,467.418909073,1.0,part_1,,,,,,,,,,,,,magenta,hexagon
0.5,0,1.0,1.0,401.204824448,1.0,part_1,,,,,,,,,,,,,green,square
0.5,0,3.0,3.0,367.434978485,1.0,part_1,,,,,,,,,,,,,green,square
4.0,1,2.0,2.0,384.194135666,1.0,part_1,,,,,,,,,,,,,gray,triangle
0.5,1,3.0,3.0,417.462110519,1.0,part_1,,,,,,,,,,,,,orange,flipped triangle
4.0,1,1.0,1.0,368.217945099,1.0,part_1,,,,,,,,,,,,,gray,triangle
0.5,1,2.0,2.0,517.546892166,1.0,part_1,,,,,,,,,,,,,orange,flipped triangle
1.0,0,4.0,4.0,350.743055344,1.0,part_1,,,,,,,,,,,,,magenta,hexagon
2.0,1,3.0,3.0,334.3770504,1.0,part_1,,,,,,,,,,,,,blue,line
1.0,1,4.0,4.0,367.88105964700003,1.0,part_1,,,,,,,,,,,,,cyan,diamond
2.0,1,4.0,4.0,367.771148682,1.0,part_1,,,,,,,,,,,,,blue,line
0.5,1,1.0,1.0,434.960126877,1.0,part_1,,,,,,,,,,,,,orange,flipped triangle
4.0,0,4.0,4.0,350.275993347,1.0,part_1,,,,,,,,,,,,,white,circle
4.0,0,1.0,1.0,434.716939926,1.0,part_1,,,,,,,,,,,,,white,circle
2.0,0,3.0,3.0,350.786924362,1.0,part_1,,,,,,,,,,,,,yellow,cross
4.0,1,2.0,2.0,383.891105652,1.0,part_1,,,,,,,,,,,,,gray,triangle
2.0,0,2.0,2.0,384.584903717,1.0,part_1,,,,,,,,,,,,,yellow,cross
1.0,0,1.0,1.0,366.782188416,1.0,part_1,,,,,,,,,,,,,magenta,hexagon
0.5,0,3.0,3.0,350.829124451,1.0,part_1,,,,,,,,,,,,,green,square
2.0,0,4.0,4.0,366.911172867,1.0,part_1,,,,,,,,,,,,,yellow,cross
4.0,1,3.0,3.0,317.301034927,1.0,part_1,,,,,,,,,,,,,gray,triangle
0.5,1,3.0,3.0,434.417009354,1.0,part_1,,,,,,,,,,,,,orange,flipped triangle
0.5,0,4.0,4.0,433.959960938,1.0,part_1,,,,,,,,,,,,,green,square
4.0,1,3.0,3.0,366.937875748,1.0,part_1,,,,,,,,,,,,,gray,triangle
4.0,1,1.0,1.0,384.163856506,1.0,part_1,,,,,,,,,,,,,gray,triangle
4.0,0,3.0,3.0,368.105888367,1.0,part_1,,,,,,,,,,,,,white,circle
2.0,1,4.0,4.0,367.913007736,1.0,part_1,,,,,,,,,,,,,blue,line
4.0,1,2.0,2.0,401.430845261,1.0,part_1,,,,,,,,,,,,,gray,triangle
1.0,0,4.0,4.0,317.25692749,1.0,part_1,,,,,,,,,,,,,magenta,hexagon
2.0,0,2.0,2.0,417.30093955999996,1.0,part_1,,,,,,,,,,,,,yellow,cross
4.0,1,3.0,3.0,401.034116745,1.0,part_1,,,,,,,,,,,,,gray,triangle
4.0,0,2.0,2.0,417.450904846,2.0,part_1,,,,,,,,,,,,,white,circle
2.0,0,1.0,1.0,367.631912231,2.0,part_1,,,,,,,,,,,,,yellow,cross
4.0,1,1.0,1.0,534.688949585,2.0,part_1,,,,,,,,,,,,,gray,triangle
0.5,1,2.0,2.0,434.674978256,2.0,part_1,,,,,,,,,,,,,orange,flipped triangle
1.0,1,4.0,4.0,367.60282516499996,2.0,part_1,,,,,,,,,,,,,cyan,diamond
2.0,0,3.0,3.0,301.154851913,2.0,part_1,,,,,,,,,,,,,yellow,cross
2.0,0,2.0,2.0,401.30805969200003,2.0,part_1,,,,,,,,,,,,,yellow,cross
1.0,1,4.0,4.0,367.92206764199994,2.0,part_1,,,,,,,,,,,,,cyan,diamond
4.0,1,1.0,1.0,434.640169144,2.0,part_1,,,,,,,,,,,,,gray,triangle
0.5,1,4.0,4.0,400.88987350499997,2.0,part_1,,,,,,,,,,,,,orange,flipped triangle
1.0,1,4.0,4.0,384.194135666,2.0,part_1,,,,,,,,,,,,,cyan,diamond
1.0,0,2.0,2.0,400.866031647,2.0,part_1,,,,,,,,,,,,,magenta,hexagon
2.0,1,2.0,2.0,417.43183136,2.0,part_1,,,,,,,,,,,,,blue,line
2.0,0,2.0,2.0,384.543895721,2.0,part_1,,,,,,,,,,,,,yellow,cross
4.0,0,3.0,3.0,367.062091827,2.0,part_1,,,,,,,,,,,,,white,circle
2.0,1,2.0,2.0,417.358160019,2.0,part_1,,,,,,,,,,,,,blue,line
1.0,0,4.0,4.0,384.04989242600004,2.0,part_1,,,,,,,,,,,,,magenta,hexagon
0.5,1,1.0,1.0,417.921066284,2.0,part_1,,,,,,,,,,,,,orange,flipped triangle
4.0,1,2.0,2.0,350.90994834900005,2.0,part_1,,,,,,,,,,,,,gray,triangle
2.0,0,2.0,2.0,384.35292244000004,2.0,part_1,,,,,,,,,,,,,yellow,cross
2.0,1,2.0,2.0,400.849103928,2.0,part_1,,,,,,,,,,,,,blue,line
1.0,1,1.0,1.0,317.86608696,2.0,part_1,,,,,,,,,,,,,cyan,diamond
4.0,0,4.0,4.0,534.327030182,2.0,part_1,,,,,,,,,,,,,white,circle
4.0,1,2.0,2.0,333.674907684,2.0,part_1,,,,,,,,,,,,,gray,triangle
1.0,1,3.0,3.0,400.860071182,2.0,part_1,,,,,,,,,,,,,cyan,diamond
0.5,1,3.0,3.0,333.990097046,2.0,part_1,,,,,,,,,,,,,orange,flipped triangle
0.5,0,1.0,1.0,434.24201011699995,2.0,part_1,,,,,,,,,,,,,green,square
4.0,0,1.0,1.0,367.44904518100003,2.0,part_1,,,,,,,,,,,,,white,circle
2.0,0,3.0,3.0,334.305047989,2.0,part_1,,,,,,,,,,,,,yellow,cross
0.5,1,4.0,4.0,317.112922668,2.0,part_1,,,,,,,,,,,,,orange,flipped triangle
4.0,1,1.0,1.0,417.409896851,2.0,part_1,,,,,,,,,,,,,gray,triangle
0.5,0,3.0,3.0,400.662899017,2.0,part_1,,,,,,,,,,,,,green,square
2.0,0,3.0,3.0,417.685031891,2.0,part_1,,,,,,,,,,,,,yellow,cross
4.0,0,4.0,4.0,367.837905884,2.0,part_1,,,,,,,,,,,,,white,circle
0.5,0,1.0,1.0,383.87584686300005,2.0,part_1,,,,,,,,,,,,,green,square
1.0,1,1.0,1.0,367.36011505100004,2.0,part_1,,,,,,,,,,,,,cyan,diamond
2.0,1,3.0,3.0,384.14001464800003,2.0,part_1,,,,,,,,,,,,,blue,line
2.0,0,1.0,1.0,384.288072586,2.0,part_1,,,,,,,,,,,,,yellow,cross
0.5,1,3.0,3.0,383.966207504,2.0,part_1,,,,,,,,,,,,,orange,flipped triangle
4.0,0,4.0,4.0,400.967121124,2.0,part_1,,,,,,,,,,,,,white,circle
4.0,1,3.0,3.0,467.489004135,2.0,part_1,,,,,,,,,,,,,gray,triangle
2.0,0,3.0,3.0,468.11914444,2.0,part_1,,,,,,,,,,,,,yellow,cross
0.5,1,3.0,3.0,434.60202217100004,2.0,part_1,,,,,,,,,,,,,orange,flipped triangle
0.5,1,1.0,1.0,400.63190460199996,2.0,part_1,,,,,,,,,,,,,orange,flipped triangle
4.0,1,3.0,3.0,417.03104972799997,2.0,part_1,,,,,,,,,,,,,gray,triangle
1.0,0,1.0,1.0,417.504072189,2.0,part_1,,,,,,,,,,,,,magenta,hexagon
2.0,1,2.0,2.0,501.241922379,2.0,part_1,,,,,,,,,,,,,blue,line
2.0,1,2.0,2.0,467.63610839800003,2.0,part_1,,,,,,,,,,,,,blue,line
1.0,0,4.0,4.0,400.903940201,2.0,part_1,,,,,,,,,,,,,magenta,hexagon
4.0,0,1.0,1.0,384.085178375,2.0,part_1,,,,,,,,,,,,,white,circle
4.0,0,4.0,4.0,551.18393898,2.0,part_1,,,,,,,,,,,,,white,circle
4.0,0,3.0,3.0,400.759935379,2.0,part_1,,,,,,,,,,,,,white,circle
2.0,0,2.0,2.0,484.524011612,2.0,part_1,,,,,,,,,,,,,yellow,cross
0.5,0,4.0,4.0,467.394113541,2.0,part_1,,,,,,,,,,,,,green,square
1.0,1,1.0,1.0,417.450904846,2.0,part_1,,,,,,,,,,,,,cyan,diamond
2.0,1,1.0,1.0,484.947919846,2.0,part_1,,,,,,,,,,,,,blue,line
4.0,0,3.0,3.0,417.789936066,2.0,part_1,,,,,,,,,,,,,white,circle
2.0,1,3.0,3.0,518.126010895,2.0,part_1,,,,,,,,,,,,,blue,line
0.5,1,1.0,1.0,434.779167175,2.0,part_1,,,,,,,,,,,,,orange,flipped triangle
1.0,1,2.0,2.0,466.871023178,2.0,part_1,,,,,,,,,,,,,cyan,diamond
1.0,0,3.0,3.0,500.775098801,2.0,part_1,,,,,,,,,,,,,magenta,hexagon
4.0,1,4.0,4.0,400.34914016700003,2.0,part_1,,,,,,,,,,,,,gray,triangle
1.0,0,3.0,3.0,467.684030533,2.0,part_1,,,,,,,,,,,,,magenta,hexagon
1.0,0,4.0,4.0,417.620897293,2.0,part_1,,,,,,,,,,,,,magenta,hexagon
1.0,1,2.0,2.0,451.23100280799997,2.0,part_1,,,,,,,,,,,,,cyan,diamond
2.0,1,4.0,4.0,401.380062103,2.0,part_1,,,,,,,,,,,,,blue,line
0.5,0,4.0,4.0,384.320020676,2.0,part_1,,,,,,,,,,,,,green,square
4.0,0,2.0,2.0,434.244155884,2.0,part_1,,,,,,,,,,,,,white,circle
1.0,0,4.0,4.0,434.638023376,2.0,part_1,,,,,,,,,,,,,magenta,hexagon
2.0,0,3.0,3.0,401.473045349,2.0,part_1,,,,,,,,,,,,,yellow,cross
1.0,1,4.0,4.0,451.131105423,2.0,part_1,,,,,,,,,,,,,cyan,diamond
2.0,1,3.0,3.0,450.93703270000003,2.0,part_1,,,,,,,,,,,,,blue,line
2.0,1,1.0,1.0,417.74201393100003,2.0,part_1,,,,,,,,,,,,,blue,line
4.0,1,4.0,4.0,484.41481590300003,2.0,part_1,,,,,,,,,,,,,gray,triangle
1.0,0,3.0,3.0,484.159946442,2.0,part_1,,,,,,,,,,,,,magenta,hexagon
4.0,0,1.0,1.0,517.838001251,2.0,part_1,,,,,,,,,,,,,white,circle
2.0,0,1.0,1.0,534.003019333,2.0,part_1,,,,,,,,,,,,,yellow,cross
1.0,1,3.0,3.0,384.015083313,2.0,part_1,,,,,,,,,,,,,cyan,diamond
2.0,1,1.0,1.0,617.712974548,2.0,part_1,,,,,,,,,,,,,blue,line
2.0,1,2.0,2.0,534.181833267,2.0,part_1,,,,,,,,,,,,,blue,line
2.0,1,4.0,4.0,401.192188263,2.0,part_1,,,,,,,,,,,,,blue,line
2.0,0,3.0,3.0,367.385149002,2.0,part_1,,,,,,,,,,,,,yellow,cross
2.0,0,2.0,2.0,501.095056534,2.0,part_1,,,,,,,,,,,,,yellow,cross
1.0,0,4.0,4.0,717.773199081,2.0,part_1,,,,,,,,,,,,,magenta,hexagon
4.0,0,4.0,4.0,468.048095703,2.0,part_1,,,,,,,,,,,,,white,circle
4.0,1,3.0,3.0,433.85791778600003,2.0,part_1,,,,,,,,,,,,,gray,triangle
1.0,0,2.0,2.0,501.471042633,2.0,part_1,,,,,,,,,,,,,magenta,hexagon
4.0,1,2.0,2.0,584.052085876,2.0,part_1,,,,,,,,,,,,,gray,triangle
4.0,1,1.0,1.0,467.963933945,2.0,part_1,,,,,,,,,,,,,gray,triangle
0.5,0,2.0,2.0,584.599971771,2.0,part_1,,,,,,,,,,,,,green,square
1.0,1,4.0,4.0,434.77296829200003,2.0,part_1,,,,,,,,,,,,,cyan,diamond
0.5,0,1.0,1.0,485.03899574300004,2.0,part_1,,,,,,,,,,,,,green,square
0.5,1,4.0,4.0,417.384147644,2.0,part_1,,,,,,,,,,,,,orange,flipped triangle
4.0,0,3.0,3.0,384.443998337,2.0,part_1,,,,,,,,,,,,,white,circle
4.0,1,2.0,2.0,417.56606102,2.0,part_1,,,,,,,,,,,,,gray,triangle
2.0,1,2.0,2.0,551.650047302,2.0,part_1,,,,,,,,,,,,,blue,line
4.0,0,2.0,2.0,483.952999115,2.0,part_1,,,,,,,,,,,,,white,circle
0.5,0,4.0,4.0,468.148946762,2.0,part_1,,,,,,,,,,,,,green,square
0.5,1,1.0,1.0,417.65308380100004,2.0,part_1,,,,,,,,,,,,,orange,flipped triangle
0.5,1,1.0,1.0,434.452056885,2.0,part_1,,,,,,,,,,,,,orange,flipped triangle
0.5,1,1.0,1.0,501.20902061499993,3.0,part_1,,,,,,,,,,,,,orange,flipped triangle
1.0,0,3.0,3.0,384.41896438599997,3.0,part_1,,,,,,,,,,,,,magenta,hexagon
2.0,1,4.0,4.0,384.05585289,3.0,part_1,,,,,,,,,,,,,blue,line
1.0,0,1.0,1.0,450.956106186,3.0,part_1,,,,,,,,,,,,,magenta,hexagon
2.0,0,3.0,3.0,451.222896576,3.0,part_1,,,,,,,,,,,,,yellow,cross
1.0,1,1.0,1.0,467.526197433,3.0,part_1,,,,,,,,,,,,,cyan,diamond
2.0,0,4.0,4.0,451.251029968,3.0,part_1,,,,,,,,,,,,,yellow,cross
1.0,0,4.0,4.0,417.16098785400004,3.0,part_1,,,,,,,,,,,,,magenta,hexagon
1.0,1,4.0,4.0,434.807062149,3.0,part_1,,,,,,,,,,,,,cyan,diamond
4.0,1,1.0,1.0,484.378814697,3.0,part_1,,,,,,,,,,,,,gray,triangle
4.0,0,2.0,2.0,433.963060379,3.0,part_1,,,,,,,,,,,,,white,circle
0.5,1,3.0,3.0,400.61712265,3.0,part_1,,,,,,,,,,,,,orange,flipped triangle
0.5,0,4.0,4.0,451.66993141200004,3.0,part_1,,,,,,,,,,,,,green,square
0.5,0,3.0,3.0,400.959968567,3.0,part_1,,,,,,,,,,,,,green,square
4.0,0,3.0,3.0,401.007890701,3.0,part_1,,,,,,,,,,,,,white,circle
1.0,0,3.0,3.0,367.452859879,3.0,part_1,,,,,,,,,,,,,magenta,hexagon
2.0,0,2.0,2.0,467.653989792,3.0,part_1,,,,,,,,,,,,,yellow,cross
2.0,1,3.0,3.0,384.31596756000005,3.0,part_1,,,,,,,,,,,,,blue,line
2.0,0,3.0,3.0,350.838184357,3.0,part_1,,,,,,,,,,,,,yellow,cross
0.5,0,2.0,2.0,501.321077347,3.0,part_1,,,,,,,,,,,,,green,square
0.5,0,2.0,2.0,500.782012939,3.0,part_1,,,,,,,,,,,,,green,square
2.0,1,4.0,4.0,401.16405487099996,3.0,part_1,,,,,,,,,,,,,blue,line
4.0,1,1.0,1.0,450.886011124,3.0,part_1,,,,,,,,,,,,,gray,triangle
1.0,1,4.0,4.0,417.79994964599996,3.0,part_1,,,,,,,,,,,,,cyan,diamond
0.5,1,2.0,2.0,450.95705986,3.0,part_1,,,,,,,,,,,,,orange,flipped triangle
0.5,1,1.0,1.0,450.803041458,3.0,part_1,,,,,,,,,,,,,orange,flipped triangle
0.5,0,4.0,4.0,434.468984604,3.0,part_1,,,,,,,,,,,,,green,square
4.0,1,3.0,3.0,384.39798355100004,3.0,part_1,,,,,,,,,,,,,gray,triangle
1.0,1,2.0,2.0,418.119192123,3.0,part_1,,,,,,,,,,,,,cyan,diamond
0.5,0,2.0,2.0,484.277963638,3.0,part_1,,,,,,,,,,,,,green,square
2.0,1,1.0,1.0,400.408983231,3.0,part_1,,,,,,,,,,,,,blue,line
0.5,0,2.0,2.0,417.883872986,3.0,part_1,,,,,,,,,,,,,green,square
0.5,1,4.0,4.0,367.422103882,3.0,part_1,,,,,,,,,,,,,orange,flipped triangle
1.0,1,4.0,4.0,384.217977524,3.0,part_1,,,,,,,,,,,,,cyan,diamond
2.0,1,3.0,3.0,384.82308387800003,3.0,part_1,,,,,,,,,,,,,blue,line
1.0,0,3.0,3.0,467.955112457,3.0,part_1,,,,,,,,,,,,,magenta,hexagon
1.0,0,1.0,1.0,334.359884262,3.0,part_1,,,,,,,,,,,,,magenta,hexagon
4.0,0,4.0,4.0,384.468078613,3.0,part_1,,,,,,,,,,,,,white,circle
1.0,1,4.0,4.0,383.84389877300003,3.0,part_1,,,,,,,,,,,,,cyan,diamond
2.0,0,1.0,1.0,434.49306488,3.0,part_1,,,,,,,,,,,,,yellow,cross
4.0,1,1.0,1.0,417.00887680100004,3.0,part_1,,,,,,,,,,,,,gray,triangle
2.0,1,1.0,1.0,417.939901352,3.0,part_1,,,,,,,,,,,,,blue,line
2.0,0,1.0,1.0,400.76899528499996,3.0,part_1,,,,,,,,,,,,,yellow,cross
2.0,1,1.0,1.0,401.57699585,3.0,part_1,,,,,,,,,,,,,blue,line
2.0,0,4.0,4.0,417.29593277,3.0,part_1,,,,,,,,,,,,,yellow,cross
1.0,0,1.0,1.0,484.35997963,3.0,part_1,,,,,,,,,,,,,magenta,hexagon
0.5,1,3.0,3.0,434.475898743,3.0,part_1,,,,,,,,,,,,,orange,flipped triangle
1.0,0,3.0,3.0,567.431926727,3.0,part_1,,,,,,,,,,,,,magenta,hexagon
2.0,1,2.0,2.0,417.45996475199996,3.0,part_1,,,,,,,,,,,,,blue,line
4.0,0,3.0,3.0,467.356920242,3.0,part_1,,,,,,,,,,,,,white,circle
4.0,0,3.0,3.0,383.996963501,3.0,part_1,,,,,,,,,,,,,white,circle
4.0,0,1.0,1.0,417.339086533,3.0,part_1,,,,,,,,,,,,,white,circle
1.0,1,4.0,4.0,467.737913132,3.0,part_1,,,,,,,,,,,,,cyan,diamond
1.0,0,4.0,4.0,450.675964355,3.0,part_1,,,,,,,,,,,,,magenta,hexagon
4.0,0,2.0,2.0,467.665910721,3.0,part_1,,,,,,,,,,,,,white,circle
4.0,1,2.0,2.0,484.255075455,3.0,part_1,,,,,,,,,,,,,gray,triangle
4.0,0,1.0,1.0,400.53606033299997,3.0,part_1,,,,,,,,,,,,,white,circle
0.5,0,3.0,3.0,350.952148438,3.0,part_1,,,,,,,,,,,,,green,square
1.0,1,2.0,2.0,484.147071838,3.0,part_1,,,,,,,,,,,,,cyan,diamond
0.5,1,3.0,3.0,367.665052414,3.0,part_1,,,,,,,,,,,,,orange,flipped triangle
2.0,1,4.0,4.0,384.176015854,3.0,part_1,,,,,,,,,,,,,blue,line
0.5,1,4.0,4.0,333.869934082,3.0,part_1,,,,,,,,,,,,,orange,flipped triangle
0.5,0,4.0,4.0,417.35601425199997,3.0,part_1,,,,,,,,,,,,,green,square
0.5,0,1.0,1.0,434.617996216,3.0,part_1,,,,,,,,,,,,,green,square
2.0,0,2.0,2.0,668.217897415,3.0,part_1,,,,,,,,,,,,,yellow,cross
0.5,0,4.0,4.0,667.597055435,3.0,part_1,,,,,,,,,,,,,green,square
4.0,0,1.0,1.0,417.3848629,3.0,part_1,,,,,,,,,,,,,white,circle
0.5,1,2.0,2.0,383.960008621,3.0,part_1,,,,,,,,,,,,,orange,flipped triangle
2.0,1,1.0,1.0,517.697811127,3.0,part_1,,,,,,,,,,,,,blue,line
2.0,1,2.0,2.0,484.277963638,3.0,part_1,,,,,,,,,,,,,blue,line
2.0,1,4.0,4.0,384.84501838700004,3.0,part_1,,,,,,,,,,,,,blue,line
0.5,0,2.0,2.0,417.56701469399997,3.0,part_1,,,,,,,,,,,,,green,square
1.0,1,3.0,3.0,350.766897202,3.0,part_1,,,,,,,,,,,,,cyan,diamond
4.0,1,3.0,3.0,701.4241218569999,3.0,part_1,,,,,,,,,,,,,gray,triangle
0.5,1,1.0,1.0,651.0698795320001,3.0,part_1,,,,,,,,,,,,,orange,flipped triangle
4.0,0,2.0,2.0,351.38988494899996,3.0,part_1,,,,,,,,,,,,,white,circle
1.0,0,1.0,1.0,367.522954941,3.0,part_1,,,,,,,,,,,,,magenta,hexagon
1.0,1,2.0,2.0,450.948953629,3.0,part_1,,,,,,,,,,,,,cyan,diamond
2.0,1,2.0,2.0,400.44283866899997,3.0,part_1,,,,,,,,,,,,,blue,line
4.0,1,3.0,3.0,400.77209472699997,3.0,part_1,,,,,,,,,,,,,gray,triangle
0.5,1,3.0,3.0,317.363023758,3.0,part_1,,,,,,,,,,,,,orange,flipped triangle
2.0,1,4.0,4.0,383.867025375,3.0,part_1,,,,,,,,,,,,,blue,line
1.0,0,4.0,4.0,417.499065399,3.0,part_1,,,,,,,,,,,,,magenta,hexagon
2.0,0,1.0,1.0,451.002836227,3.0,part_1,,,,,,,,,,,,,yellow,cross
1.0,1,1.0,1.0,467.65708923299997,3.0,part_1,,,,,,,,,,,,,cyan,diamond
1.0,1,1.0,1.0,500.828027725,3.0,part_1,,,,,,,,,,,,,cyan,diamond
2.0,1,3.0,3.0,384.295940399,3.0,part_1,,,,,,,,,,,,,blue,line
0.5,1,4.0,4.0,384.155988693,3.0,part_1,,,,,,,,,,,,,orange,flipped triangle
1.0,1,2.0,2.0,400.99811553999996,3.0,part_1,,,,,,,,,,,,,cyan,diamond
0.5,1,2.0,2.0,434.41796302800003,3.0,part_1,,,,,,,,,,,,,orange,flipped triangle
2.0,1,2.0,2.0,484.004020691,3.0,part_1,,,,,,,,,,,,,blue,line
1.0,1,3.0,3.0,384.52005386400003,3.0,part_1,,,,,,,,,,,,,cyan,diamond
1.0,1,3.0,3.0,351.15694999699997,3.0,part_1,,,,,,,,,,,,,cyan,diamond
4.0,1,4.0,4.0,417.415142059,3.0,part_1,,,,,,,,,,,,,gray,triangle
2.0,0,2.0,2.0,617.699861526,3.0,part_1,,,,,,,,,,,,,yellow,cross
4.0,0,4.0,4.0,417.498111725,3.0,part_1,,,,,,,,,,,,,white,circle
1.0,0,1.0,1.0,400.94709396400003,3.0,part_1,,,,,,,,,,,,,magenta,hexagon
4.0,0,2.0,2.0,383.948087692,3.0,part_1,,,,,,,,,,,,,white,circle
2.0,0,3.0,3.0,350.63791275,3.0,part_1,,,,,,,,,,,,,yellow,cross
1.0,1,2.0,2.0,367.218017578,3.0,part_1,,,,,,,,,,,,,cyan,diamond
4.0,1,3.0,3.0,434.472084045,4.0,part_1,,,,,,,,,,,,,gray,triangle
4.0,1,1.0,1.0,384.042024612,4.0,part_1,,,,,,,,,,,,,gray,triangle
4.0,1,4.0,4.0,400.970935822,4.0,part_1,,,,,,,,,,,,,gray,triangle
0.5,1,3.0,3.0,434.073925018,4.0,part_1,,,,,,,,,,,,,orange,flipped triangle
2.0,0,1.0,1.0,350.865840912,4.0,part_1,,,,,,,,,,,,,yellow,cross
2.0,0,1.0,1.0,401.122093201,4.0,part_1,,,,,,,,,,,,,yellow,cross
0.5,0,4.0,4.0,367.761135101,4.0,part_1,,,,,,,,,,,,,green,square
1.0,0,3.0,3.0,350.92115402200005,4.0,part_1,,,,,,,,,,,,,magenta,hexagon
0.5,1,2.0,2.0,400.736093521,4.0,part_1,,,,,,,,,,,,,orange,flipped triangle
0.5,1,2.0,2.0,400.191068649,4.0,part_1,,,,,,,,,,,,,orange,flipped triangle
4.0,0,3.0,3.0,334.24901962300004,4.0,part_1,,,,,,,,,,,,,white,circle
1.0,1,4.0,4.0,367.44499206499995,4.0,part_1,,,,,,,,,,,,,cyan,diamond
0.5,1,4.0,4.0,367.484092712,4.0,part_1,,,,,,,,,,,,,orange,flipped triangle
0.5,0,2.0,2.0,667.626142502,4.0,part_1,,,,,,,,,,,,,green,square
2.0,1,4.0,4.0,300.744056702,4.0,part_1,,,,,,,,,,,,,blue,line
4.0,1,2.0,2.0,467.745065689,4.0,part_1,,,,,,,,,,,,,gray,triangle
2.0,1,2.0,2.0,500.70595741299996,4.0,part_1,,,,,,,,,,,,,blue,line
0.5,0,3.0,3.0,517.774105072,4.0,part_1,,,,,,,,,,,,,green,square
2.0,1,3.0,3.0,434.57698822000003,4.0,part_1,,,,,,,,,,,,,blue,line
0.5,0,1.0,1.0,417.255163193,4.0,part_1,,,,,,,,,,,,,green,square
4.0,1,4.0,4.0,400.688171387,4.0,part_1,,,,,,,,,,,,,gray,triangle
0.5,1,3.0,3.0,384.24587249800004,4.0,part_1,,,,,,,,,,,,,orange,flipped triangle
1.0,1,3.0,3.0,350.970983505,4.0,part_1,,,,,,,,,,,,,cyan,diamond
1.0,1,3.0,3.0,384.03296470600003,4.0,part_1,,,,,,,,,,,,,cyan,diamond
4.0,1,4.0,4.0,368.00217628499996,4.0,part_1,,,,,,,,,,,,,gray,triangle
0.5,0,2.0,2.0,467.555999756,4.0,part_1,,,,,,,,,,,,,green,square
4.0,0,2.0,2.0,485.029935837,4.0,part_1,,,,,,,,,,,,,white,circle
4.0,0,2.0,2.0,600.8958816530001,4.0,part_1,,,,,,,,,,,,,white,circle
0.5,0,1.0,1.0,267.596960068,4.0,part_1,,,,,,,,,,,,,green,square
0.5,1,4.0,4.0,367.157936096,4.0,part_1,,,,,,,,,,,,,orange,flipped triangle
1.0,1,2.0,2.0,418.001890182,4.0,part_1,,,,,,,,,,,,,cyan,diamond
4.0,1,4.0,4.0,467.56386756899997,4.0,part_1,,,,,,,,,,,,,gray,triangle
1.0,0,2.0,2.0,451.220989227,4.0,part_1,,,,,,,,,,,,,magenta,hexagon
0.5,0,1.0,1.0,334.345817566,4.0,part_1,,,,,,,,,,,,,green,square
1.0,0,1.0,1.0,333.89210701,4.0,part_1,,,,,,,,,,,,,magenta,hexagon
2.0,1,2.0,2.0,417.85192489599996,4.0,part_1,,,,,,,,,,,,,blue,line
4.0,0,1.0,1.0,401.046037674,4.0,part_1,,,,,,,,,,,,,white,circle
1.0,0,3.0,3.0,334.452867508,4.0,part_1,,,,,,,,,,,,,magenta,hexagon
1.0,0,1.0,1.0,484.216928482,4.0,part_1,,,,,,,,,,,,,magenta,hexagon
1.0,0,1.0,1.0,450.837850571,4.0,part_1,,,,,,,,,,,,,magenta,hexagon
1.0,1,2.0,2.0,350.917816162,4.0,part_1,,,,,,,,,,,,,cyan,diamond
4.0,1,3.0,3.0,384.041070938,4.0,part_1,,,,,,,,,,,,,gray,triangle
0.5,0,1.0,1.0,417.814016342,4.0,part_1,,,,,,,,,,,,,green,square
2.0,0,3.0,3.0,333.806037903,4.0,part_1,,,,,,,,,,,,,yellow,cross
1.0,0,1.0,1.0,417.46687889099996,4.0,part_1,,,,,,,,,,,,,magenta,hexagon
0.5,1,2.0,2.0,401.31497383100003,4.0,part_1,,,,,,,,,,,,,orange,flipped triangle
4.0,0,2.0,2.0,417.76299476599996,4.0,part_1,,,,,,,,,,,,,white,circle
4.0,1,3.0,3.0,367.708921432,4.0,part_1,,,,,,,,,,,,,gray,triangle
1.0,1,3.0,3.0,367.269992828,4.0,part_1,,,,,,,,,,,,,cyan,diamond
2.0,0,3.0,3.0,384.37604904200003,4.0,part_1,,,,,,,,,,,,,yellow,cross
0.5,1,4.0,4.0,417.31309890700004,4.0,part_1,,,,,,,,,,,,,orange,flipped triangle
4.0,1,1.0,1.0,434.247970581,4.0,part_1,,,,,,,,,,,,,gray,triangle
1.0,1,3.0,3.0,417.64187812800003,4.0,part_1,,,,,,,,,,,,,cyan,diamond
4.0,0,3.0,3.0,367.45095253,4.0,part_1,,,,,,,,,,,,,white,circle
1.0,1,4.0,4.0,484.689950943,4.0,part_1,,,,,,,,,,,,,cyan,diamond
1.0,0,1.0,1.0,367.65503883400004,4.0,part_1,,,,,,,,,,,,,magenta,hexagon
2.0,1,4.0,4.0,417.69313812300004,4.0,part_1,,,,,,,,,,,,,blue,line
2.0,0,1.0,1.0,400.89893341100003,4.0,part_1,,,,,,,,,,,,,yellow,cross
4.0,0,4.0,4.0,400.820970535,4.0,part_1,,,,,,,,,,,,,white,circle
4.0,1,2.0,2.0,450.97994804399997,4.0,part_1,,,,,,,,,,,,,gray,triangle
1.0,1,3.0,3.0,317.954063416,4.0,part_1,,,,,,,,,,,,,cyan,diamond
2.0,0,1.0,1.0,400.838851929,4.0,part_1,,,,,,,,,,,,,yellow,cross
1.0,0,4.0,4.0,350.557088852,4.0,part_1,,,,,,,,,,,,,magenta,hexagon
2.0,1,2.0,2.0,401.198148727,4.0,part_1,,,,,,,,,,,,,blue,line
1.0,1,4.0,4.0,367.671966553,4.0,part_1,,,,,,,,,,,,,cyan,diamond
2.0,1,4.0,4.0,467.69380569500004,4.0,part_1,,,,,,,,,,,,,blue,line
4.0,0,1.0,1.0,384.23895835900004,4.0,part_1,,,,,,,,,,,,,white,circle
4.0,0,2.0,2.0,400.626897812,4.0,part_1,,,,,,,,,,,,,white,circle
2.0,1,2.0,2.0,467.502832413,4.0,part_1,,,,,,,,,,,,,blue,line
2.0,0,4.0,4.0,601.055145264,4.0,part_1,,,,,,,,,,,,,yellow,cross
4.0,0,3.0,3.0,434.263944626,4.0,part_1,,,,,,,,,,,,,white,circle
1.0,1,1.0,1.0,501.316070557,4.0,part_1,,,,,,,,,,,,,cyan,diamond
4.0,0,3.0,3.0,300.544023514,4.0,part_1,,,,,,,,,,,,,white,circle
4.0,0,3.0,3.0,383.885860443,4.0,part_1,,,,,,,,,,,,,white,circle
4.0,1,2.0,2.0,300.474882126,4.0,part_1,,,,,,,,,,,,,gray,triangle
2.0,1,2.0,2.0,434.159040451,4.0,part_1,,,,,,,,,,,,,blue,line
1.0,0,3.0,3.0,367.959022522,4.0,part_1,,,,,,,,,,,,,magenta,hexagon
0.5,0,2.0,2.0,451.21383667,4.0,part_1,,,,,,,,,,,,,green,square
2.0,0,1.0,1.0,384.536027908,4.0,part_1,,,,,,,,,,,,,yellow,cross
0.5,1,4.0,4.0,417.783021927,4.0,part_1,,,,,,,,,,,,,orange,flipped triangle
2.0,1,1.0,1.0,400.806188583,4.0,part_1,,,,,,,,,,,,,blue,line
0.5,1,4.0,4.0,701.3750076289999,4.0,part_1,,,,,,,,,,,,,orange,flipped triangle
2.0,0,1.0,1.0,450.90508461,4.0,part_1,,,,,,,,,,,,,yellow,cross
2.0,0,2.0,2.0,718.585014343,4.0,part_1,,,,,,,,,,,,,yellow,cross
2.0,0,1.0,1.0,317.734956741,4.0,part_1,,,,,,,,,,,,,yellow,cross
1.0,1,3.0,3.0,384.672880173,4.0,part_1,,,,,,,,,,,,,cyan,diamond
4.0,1,2.0,2.0,434.489965439,4.0,part_1,,,,,,,,,,,,,gray,triangle
4.0,0,1.0,1.0,350.46577453599997,4.0,part_1,,,,,,,,,,,,,white,circle
2.0,0,4.0,4.0,401.444196701,4.0,part_1,,,,,,,,,,,,,yellow,cross
1.0,1,1.0,1.0,367.303133011,4.0,part_1,,,,,,,,,,,,,cyan,diamond
0.5,1,3.0,3.0,384.193897247,4.0,part_1,,,,,,,,,,,,,orange,flipped triangle
0.5,0,3.0,3.0,367.869853973,4.0,part_1,,,,,,,,,,,,,green,square
4.0,1,1.0,1.0,350.892066956,4.0,part_1,,,,,,,,,,,,,gray,triangle
1.0,1,4.0,4.0,384.26089286800004,4.0,part_1,,,,,,,,,,,,,cyan,diamond
4.0,1,4.0,4.0,351.184844971,4.0,part_1,,,,,,,,,,,,,gray,triangle
0.5,0,4.0,4.0,434.61394310000003,4.0,part_1,,,,,,,,,,,,,green,square
1.0,1,4.0,4.0,367.182970047,4.0,part_1,,,,,,,,,,,,,cyan,diamond
0.5,0,2.0,2.0,417.04702377300003,4.0,part_1,,,,,,,,,,,,,green,square
0.5,1,4.0,4.0,484.68804359399996,4.0,part_1,,,,,,,,,,,,,orange,flipped triangle
0.5,1,2.0,2.0,584.786891937,4.0,part_1,,,,,,,,,,,,,orange,flipped triangle
4.0,1,6.0,6.0,433.974981308,1.0,part_2,stop,250.0,250.0,3.0,,,,,,,,,gray,triangle
4.0,0,5.0,5.0,467.18788147000004,1.0,part_2,go,250.0,250.0,1.0,,,,,,,,,white,circle
0.5,0,6.0,6.0,383.852005005,1.0,part_2,go,250.0,250.0,1.0,,,,,,,,,green,square
2.0,1,6.0,0.0,,1.0,part_2,stop,250.0,200.0,4.0,,,,,,,,,blue,line
4.0,0,6.0,6.0,417.46306419399997,1.0,part_2,go,250.0,200.0,1.0,,,,,,,,,white,circle
2.0,0,5.0,5.0,484.071016312,1.0,part_2,go,250.0,200.0,1.0,,,,,,,,,yellow,cross
4.0,0,6.0,6.0,533.904075623,1.0,part_2,go,250.0,200.0,1.0,,,,,,,,,white,circle
2.0,1,5.0,0.0,,1.0,part_2,stop,250.0,200.0,4.0,,,,,,,,,blue,line
2.0,0,5.0,0.0,,1.0,part_2,go,250.0,200.0,5.0,,,,,,,,,yellow,cross
2.0,0,5.0,5.0,551.326990128,1.0,part_2,go,250.0,200.0,1.0,,,,,,,,,yellow,cross
1.0,0,6.0,6.0,500.880002975,1.0,part_2,go,250.0,200.0,1.0,,,,,,,,,magenta,hexagon
1.0,0,6.0,6.0,400.777816772,1.0,part_2,go,250.0,200.0,1.0,,,,,,,,,magenta,hexagon
0.5,0,6.0,6.0,434.321165085,1.0,part_2,go,250.0,200.0,1.0,,,,,,,,,green,square
4.0,1,5.0,5.0,467.66495704700003,1.0,part_2,stop,300.0,200.0,3.0,,,,,,,,,gray,triangle
4.0,1,6.0,0.0,,1.0,part_2,stop,300.0,250.0,4.0,,,,,,,,,gray,triangle
0.5,0,6.0,6.0,651.221990585,1.0,part_2,go,300.0,250.0,1.0,,,,,,,,,green,square
0.5,1,6.0,6.0,434.74197387699996,1.0,part_2,stop,300.0,300.0,3.0,,,,,,,,,orange,flipped triangle
0.5,1,6.0,0.0,,1.0,part_2,stop,300.0,250.0,4.0,,,,,,,,,orange,flipped triangle
0.5,1,6.0,0.0,,1.0,part_2,stop,300.0,300.0,4.0,,,,,,,,,orange,flipped triangle
4.0,1,6.0,0.0,,1.0,part_2,stop,300.0,350.0,4.0,,,,,,,,,gray,triangle
2.0,1,5.0,0.0,,1.0,part_2,stop,250.0,350.0,4.0,,,,,,,,,blue,line
4.0,1,5.0,0.0,,1.0,part_2,stop,300.0,350.0,4.0,,,,,,,,,gray,triangle
0.5,1,5.0,5.0,517.415046692,1.0,part_2,go,300.0,350.0,1.0,,,,,,,,,orange,flipped triangle
2.0,1,5.0,5.0,517.2798633580001,1.0,part_2,stop,350.0,350.0,3.0,,,,,,,,,blue,line
4.0,1,6.0,0.0,,1.0,part_2,stop,350.0,400.0,4.0,,,,,,,,,gray,triangle
1.0,1,5.0,0.0,,1.0,part_2,stop,300.0,400.0,4.0,,,,,,,,,cyan,diamond
1.0,0,5.0,5.0,550.9700775150001,1.0,part_2,go,300.0,400.0,1.0,,,,,,,,,magenta,hexagon
0.5,0,5.0,5.0,701.221942902,1.0,part_2,go,300.0,400.0,1.0,,,,,,,,,green,square
4.0,1,5.0,0.0,,1.0,part_2,stop,350.0,400.0,4.0,,,,,,,,,gray,triangle
4.0,1,5.0,0.0,,1.0,part_2,stop,400.0,400.0,4.0,,,,,,,,,gray,triangle
0.5,1,5.0,0.0,,1.0,part_2,stop,450.0,400.0,4.0,,,,,,,,,orange,flipped triangle
1.0,1,5.0,0.0,,1.0,part_2,stop,500.0,400.0,4.0,,,,,,,,,cyan,diamond
2.0,1,6.0,6.0,751.199007034,1.0,part_2,go,500.0,400.0,1.0,,,,,,,,,blue,line
0.5,1,6.0,6.0,701.1950016019999,1.0,part_2,go,500.0,400.0,1.0,,,,,,,,,orange,flipped triangle
0.5,1,5.0,5.0,717.928171158,1.0,part_2,go,500.0,400.0,1.0,,,,,,,,,orange,flipped triangle
0.5,0,6.0,6.0,668.0970191959999,1.0,part_2,go,500.0,400.0,1.0,,,,,,,,,green,square
1.0,1,6.0,6.0,517.1890258789999,2.0,part_2,go,500.0,400.0,1.0,,,,,,,,,cyan,diamond
4.0,0,5.0,5.0,467.41104126,2.0,part_2,go,500.0,400.0,1.0,,,,,,,,,white,circle
0.5,0,5.0,5.0,618.1368827819999,2.0,part_2,go,500.0,400.0,1.0,,,,,,,,,green,square
1.0,0,5.0,5.0,467.121124268,2.0,part_2,go,500.0,400.0,1.0,,,,,,,,,magenta,hexagon
0.5,1,6.0,6.0,517.4610614779999,2.0,part_2,stop,500.0,450.0,3.0,,,,,,,,,orange,flipped triangle
4.0,1,5.0,0.0,,2.0,part_2,stop,550.0,450.0,4.0,,,,,,,,,gray,triangle
2.0,0,5.0,5.0,801.030874252,2.0,part_2,go,550.0,450.0,1.0,,,,,,,,,yellow,cross
0.5,0,6.0,5.0,868.058204651,2.0,part_2,go,550.0,450.0,2.0,,,,,,,,,green,square
0.5,0,6.0,6.0,801.514863968,2.0,part_2,go,550.0,450.0,1.0,,,,,,,,,green,square
4.0,1,5.0,5.0,701.016902924,2.0,part_2,go,550.0,450.0,1.0,,,,,,,,,gray,triangle
2.0,1,5.0,5.0,684.6339702610001,2.0,part_2,stop,600.0,450.0,3.0,,,,,,,,,blue,line
2.0,1,5.0,0.0,,2.0,part_2,stop,550.0,450.0,4.0,,,,,,,,,blue,line
2.0,1,6.0,6.0,734.694957733,2.0,part_2,go,550.0,450.0,1.0,,,,,,,,,blue,line
0.5,1,6.0,0.0,,2.0,part_2,stop,550.0,400.0,4.0,,,,,,,,,orange,flipped triangle
1.0,0,6.0,6.0,851.294994354,2.0,part_2,go,550.0,400.0,1.0,,,,,,,,,magenta,hexagon
0.5,0,5.0,5.0,818.567037582,2.0,part_2,go,550.0,400.0,1.0,,,,,,,,,green,square
4.0,1,6.0,6.0,434.307098389,2.0,part_2,stop,550.0,450.0,3.0,,,,,,,,,gray,triangle
0.5,0,5.0,0.0,,2.0,part_2,go,550.0,450.0,5.0,,,,,,,,,green,square
1.0,1,5.0,5.0,867.833137512,2.0,part_2,go,550.0,450.0,1.0,,,,,,,,,cyan,diamond
0.5,1,5.0,5.0,734.362125397,2.0,part_2,stop,600.0,450.0,3.0,,,,,,,,,orange,flipped triangle
4.0,0,5.0,5.0,884.50884819,2.0,part_2,go,600.0,450.0,1.0,,,,,,,,,white,circle
1.0,0,6.0,6.0,818.1171417239999,2.0,part_2,go,600.0,450.0,1.0,,,,,,,,,magenta,hexagon
1.0,1,5.0,5.0,818.000078201,2.0,part_2,go,600.0,450.0,1.0,,,,,,,,,cyan,diamond
1.0,1,6.0,0.0,,2.0,part_2,stop,600.0,400.0,4.0,,,,,,,,,cyan,diamond
0.5,1,6.0,0.0,,2.0,part_2,stop,600.0,450.0,4.0,,,,,,,,,orange,flipped triangle
0.5,0,5.0,5.0,617.719888687,2.0,part_2,go,600.0,450.0,1.0,,,,,,,,,green,square
4.0,1,5.0,0.0,,2.0,part_2,stop,550.0,450.0,4.0,,,,,,,,,gray,triangle
1.0,1,6.0,0.0,,2.0,part_2,stop,550.0,500.0,4.0,,,,,,,,,cyan,diamond
2.0,0,6.0,6.0,850.9759902950001,2.0,part_2,go,550.0,500.0,1.0,,,,,,,,,yellow,cross
2.0,0,6.0,6.0,767.950057983,2.0,part_2,go,550.0,500.0,1.0,,,,,,,,,yellow,cross
0.5,0,5.0,5.0,851.5470027920001,2.0,part_2,go,550.0,500.0,1.0,,,,,,,,,green,square
2.0,1,6.0,0.0,,2.0,part_2,stop,550.0,550.0,4.0,,,,,,,,,blue,line
2.0,1,6.0,0.0,,2.0,part_2,stop,550.0,600.0,4.0,,,,,,,,,blue,line
4.0,0,5.0,5.0,884.846925735,2.0,part_2,go,550.0,600.0,1.0,,,,,,,,,white,circle
2.0,0,6.0,6.0,884.551048279,2.0,part_2,go,550.0,600.0,1.0,,,,,,,,,yellow,cross
1.0,0,6.0,6.0,934.473991394,2.0,part_2,go,550.0,600.0,1.0,,,,,,,,,magenta,hexagon
0.5,1,5.0,5.0,717.9269790650001,3.0,part_2,stop,600.0,600.0,3.0,,,,,,,,,orange,flipped triangle
4.0,1,6.0,6.0,684.288978577,3.0,part_2,stop,600.0,650.0,3.0,,,,,,,,,gray,triangle
0.5,1,5.0,0.0,,3.0,part_2,stop,550.0,650.0,4.0,,,,,,,,,orange,flipped triangle
4.0,0,5.0,5.0,717.746973038,3.0,part_2,go,550.0,650.0,1.0,,,,,,,,,white,circle
0.5,1,6.0,6.0,700.948953629,3.0,part_2,go,550.0,650.0,1.0,,,,,,,,,orange,flipped triangle
0.5,0,6.0,6.0,734.440088272,3.0,part_2,go,550.0,650.0,1.0,,,,,,,,,green,square
4.0,1,6.0,6.0,784.905910492,3.0,part_2,go,550.0,650.0,1.0,,,,,,,,,gray,triangle
4.0,1,5.0,5.0,768.15199852,3.0,part_2,stop,600.0,650.0,3.0,,,,,,,,,gray,triangle
4.0,0,6.0,0.0,,3.0,part_2,go,600.0,650.0,5.0,,,,,,,,,white,circle
4.0,1,6.0,0.0,,3.0,part_2,stop,600.0,600.0,4.0,,,,,,,,,gray,triangle
0.5,1,6.0,0.0,,3.0,part_2,stop,600.0,650.0,4.0,,,,,,,,,orange,flipped triangle
0.5,1,5.0,0.0,,3.0,part_2,stop,550.0,650.0,4.0,,,,,,,,,orange,flipped triangle
2.0,1,5.0,0.0,,3.0,part_2,stop,600.0,650.0,4.0,,,,,,,,,blue,line
1.0,0,5.0,5.0,750.7479190829999,3.0,part_2,go,600.0,650.0,1.0,,,,,,,,,magenta,hexagon
4.0,1,5.0,0.0,,3.0,part_2,stop,650.0,650.0,4.0,,,,,,,,,gray,triangle
1.0,1,6.0,6.0,817.424058914,3.0,part_2,stop,650.0,700.0,3.0,,,,,,,,,cyan,diamond
0.5,1,5.0,0.0,,3.0,part_2,go,650.0,700.0,5.0,,,,,,,,,orange,flipped triangle
1.0,0,5.0,5.0,851.3879776,3.0,part_2,go,650.0,700.0,1.0,,,,,,,,,magenta,hexagon
2.0,0,6.0,6.0,951.469898224,3.0,part_2,go,650.0,700.0,1.0,,,,,,,,,yellow,cross
4.0,0,6.0,6.0,901.062011719,3.0,part_2,go,650.0,700.0,1.0,,,,,,,,,white,circle
4.0,1,5.0,0.0,,3.0,part_2,go,650.0,700.0,5.0,,,,,,,,,gray,triangle
4.0,1,6.0,0.0,,3.0,part_2,stop,650.0,650.0,4.0,,,,,,,,,gray,triangle
0.5,1,5.0,0.0,,3.0,part_2,stop,700.0,650.0,4.0,,,,,,,,,orange,flipped triangle
0.5,0,5.0,5.0,834.3219757080001,3.0,part_2,go,700.0,650.0,1.0,,,,,,,,,green,square
2.0,1,6.0,6.0,734.5468997959999,3.0,part_2,stop,700.0,700.0,3.0,,,,,,,,,blue,line
1.0,1,5.0,5.0,801.764011383,3.0,part_2,stop,750.0,700.0,3.0,,,,,,,,,cyan,diamond
0.5,1,6.0,0.0,,3.0,part_2,stop,750.0,650.0,4.0,,,,,,,,,orange,flipped triangle
0.5,0,5.0,0.0,,3.0,part_2,go,750.0,650.0,5.0,,,,,,,,,green,square
0.5,1,6.0,0.0,,3.0,part_2,stop,750.0,700.0,4.0,,,,,,,,,orange,flipped triangle
1.0,1,5.0,0.0,,3.0,part_2,go,750.0,700.0,5.0,,,,,,,,,cyan,diamond
4.0,0,6.0,6.0,801.1939525600001,3.0,part_2,go,750.0,700.0,1.0,,,,,,,,,white,circle
0.5,0,5.0,5.0,617.498874664,3.0,part_2,go,750.0,700.0,1.0,,,,,,,,,green,square
4.0,0,6.0,6.0,651.824951172,3.0,part_2,go,750.0,700.0,1.0,,,,,,,,,white,circle
4.0,0,6.0,6.0,501.36399269099996,3.0,part_2,go,750.0,700.0,1.0,,,,,,,,,white,circle
1.0,0,6.0,6.0,650.70605278,3.0,part_2,go,750.0,700.0,1.0,,,,,,,,,magenta,hexagon
2.0,0,5.0,5.0,484.589099884,3.0,part_2,go,750.0,700.0,1.0,,,,,,,,,yellow,cross
4.0,0,5.0,5.0,667.5848960879999,4.0,part_2,go,750.0,700.0,1.0,,,,,,,,,white,circle
4.0,0,5.0,5.0,534.5399379730001,4.0,part_2,go,750.0,700.0,1.0,,,,,,,,,white,circle
2.0,1,6.0,6.0,801.478147507,4.0,part_2,stop,750.0,750.0,3.0,,,,,,,,,blue,line
4.0,0,5.0,5.0,634.588003159,4.0,part_2,go,750.0,750.0,1.0,,,,,,,,,white,circle
2.0,0,6.0,6.0,951.431035995,4.0,part_2,go,750.0,750.0,1.0,,,,,,,,,yellow,cross
2.0,0,5.0,5.0,501.113891602,4.0,part_2,go,750.0,750.0,1.0,,,,,,,,,yellow,cross
2.0,0,5.0,5.0,501.405954361,4.0,part_2,go,750.0,750.0,1.0,,,,,,,,,yellow,cross
0.5,0,5.0,5.0,735.00585556,4.0,part_2,go,750.0,750.0,1.0,,,,,,,,,green,square
1.0,0,6.0,6.0,884.212970734,4.0,part_2,go,750.0,750.0,1.0,,,,,,,,,magenta,hexagon
2.0,0,6.0,6.0,834.722995758,4.0,part_2,go,750.0,750.0,1.0,,,,,,,,,yellow,cross
1.0,1,5.0,5.0,834.492921829,4.0,part_2,stop,700.0,750.0,3.0,,,,,,,,,cyan,diamond
1.0,0,5.0,5.0,851.4840602869999,4.0,part_2,go,700.0,750.0,1.0,,,,,,,,,magenta,hexagon
1.0,1,6.0,0.0,,4.0,part_2,stop,700.0,700.0,4.0,,,,,,,,,cyan,diamond
2.0,1,6.0,0.0,,4.0,part_2,stop,700.0,750.0,4.0,,,,,,,,,blue,line
1.0,1,5.0,0.0,,4.0,part_2,stop,650.0,750.0,4.0,,,,,,,,,cyan,diamond
0.5,1,5.0,5.0,867.8979873659999,4.0,part_2,go,650.0,750.0,1.0,,,,,,,,,orange,flipped triangle
2.0,0,6.0,6.0,751.248836517,4.0,part_2,go,650.0,750.0,1.0,,,,,,,,,yellow,cross
0.5,0,5.0,5.0,551.082134247,4.0,part_2,go,650.0,750.0,1.0,,,,,,,,,green,square
0.5,1,6.0,6.0,835.252046585,4.0,part_2,stop,650.0,750.0,3.0,,,,,,,,,orange,flipped triangle
2.0,1,6.0,0.0,,4.0,part_2,go,650.0,750.0,5.0,,,,,,,,,blue,line
4.0,0,5.0,5.0,584.417104721,4.0,part_2,go,650.0,750.0,1.0,,,,,,,,,white,circle
2.0,0,5.0,5.0,751.082897186,4.0,part_2,go,650.0,750.0,1.0,,,,,,,,,yellow,cross
4.0,1,5.0,5.0,767.862081528,4.0,part_2,go,650.0,750.0,1.0,,,,,,,,,gray,triangle
0.5,1,6.0,6.0,784.540176392,4.0,part_2,stop,650.0,700.0,3.0,,,,,,,,,orange,flipped triangle
2.0,0,6.0,0.0,,4.0,part_2,go,650.0,700.0,5.0,,,,,,,,,yellow,cross
1.0,0,6.0,6.0,817.674160004,4.0,part_2,go,650.0,700.0,1.0,,,,,,,,,magenta,hexagon
1.0,1,5.0,0.0,,4.0,part_2,stop,700.0,700.0,4.0,,,,,,,,,cyan,diamond
0.5,0,6.0,6.0,717.929124832,4.0,part_2,go,700.0,700.0,1.0,,,,,,,,,green,square
1.0,0,5.0,0.0,,4.0,part_2,go,700.0,700.0,5.0,,,,,,,,,magenta,hexagon
4.0,0,6.0,6.0,651.489973068,4.0,part_2,go,700.0,700.0,1.0,,,,,,,,,white,circle
2.0,0,5.0,5.0,501.09410285900003,4.0,part_2,go,700.0,700.0,1.0,,,,,,,,,yellow,cross
4.0,0,6.0,6.0,600.8179187769999,4.0,part_2,go,700.0,700.0,1.0,,,,,,,,,white,circle
0.5,1,6.0,6.0,434.073925018,4.0,part_2,stop,700.0,650.0,3.0,,,,,,,,,orange,flipped triangle
0.5,1,6.0,0.0,,4.0,part_2,stop,700.0,600.0,4.0,,,,,,,,,orange,flipped triangle
0.5,1,5.0,0.0,,4.0,part_2,stop,750.0,600.0,4.0,,,,,,,,,orange,flipped triangle
2.0,1,6.0,0.0,,4.0,part_2,stop,750.0,650.0,4.0,,,,,,,,,blue,line
2.0,1,5.0,0.0,,5.0,part_2,stop,750.0,650.0,4.0,,,,,,,,,blue,line
4.0,1,5.0,5.0,934.568166733,5.0,part_2,stop,750.0,650.0,3.0,,,,,,,,,gray,triangle
4.0,0,6.0,0.0,,5.0,part_2,go,750.0,650.0,5.0,,,,,,,,,white,circle
0.5,0,5.0,5.0,834.34510231,5.0,part_2,go,750.0,650.0,1.0,,,,,,,,,green,square
4.0,0,5.0,5.0,768.143892288,5.0,part_2,go,750.0,650.0,1.0,,,,,,,,,white,circle
2.0,0,5.0,5.0,918.516874313,5.0,part_2,go,750.0,650.0,1.0,,,,,,,,,yellow,cross
1.0,0,5.0,5.0,801.0740280150001,5.0,part_2,go,750.0,650.0,1.0,,,,,,,,,magenta,hexagon
2.0,1,5.0,0.0,,5.0,part_2,go,750.0,650.0,5.0,,,,,,,,,blue,line
4.0,1,6.0,0.0,,5.0,part_2,stop,750.0,700.0,4.0,,,,,,,,,gray,triangle
2.0,1,5.0,0.0,,5.0,part_2,go,750.0,700.0,5.0,,,,,,,,,blue,line
4.0,0,5.0,5.0,951.52592659,5.0,part_2,go,750.0,700.0,1.0,,,,,,,,,white,circle
1.0,0,6.0,6.0,534.368991852,5.0,part_2,go,750.0,700.0,1.0,,,,,,,,,magenta,hexagon
0.5,0,6.0,6.0,800.630092621,5.0,part_2,go,750.0,700.0,1.0,,,,,,,,,green,square
2.0,1,6.0,6.0,701.069116592,5.0,part_2,stop,750.0,750.0,3.0,,,,,,,,,blue,line
1.0,1,5.0,0.0,,5.0,part_2,stop,700.0,750.0,4.0,,,,,,,,,cyan,diamond
2.0,1,5.0,5.0,901.5479087829999,5.0,part_2,go,700.0,750.0,1.0,,,,,,,,,blue,line
4.0,1,6.0,0.0,,5.0,part_2,stop,700.0,700.0,4.0,,,,,,,,,gray,triangle
1.0,1,5.0,5.0,851.308822632,5.0,part_2,go,700.0,700.0,1.0,,,,,,,,,cyan,diamond
4.0,0,5.0,5.0,684.460878372,5.0,part_2,go,700.0,700.0,1.0,,,,,,,,,white,circle
1.0,0,6.0,6.0,634.3870162960001,5.0,part_2,go,700.0,700.0,1.0,,,,,,,,,magenta,hexagon
4.0,0,6.0,6.0,601.1900901790001,5.0,part_2,go,700.0,700.0,1.0,,,,,,,,,white,circle
1.0,0,6.0,6.0,751.271009445,5.0,part_2,go,700.0,700.0,1.0,,,,,,,,,magenta,hexagon
4.0,1,5.0,0.0,,5.0,part_2,stop,750.0,700.0,4.0,,,,,,,,,gray,triangle
4.0,0,6.0,6.0,651.515007019,5.0,part_2,go,750.0,700.0,1.0,,,,,,,,,white,circle
1.0,0,6.0,6.0,751.338005066,5.0,part_2,go,750.0,700.0,1.0,,,,,,,,,magenta,hexagon
0.5,1,6.0,0.0,,5.0,part_2,stop,750.0,750.0,4.0,,,,,,,,,orange,flipped triangle
0.5,1,5.0,0.0,,5.0,part_2,go,750.0,750.0,5.0,,,,,,,,,orange,flipped triangle
4.0,0,6.0,6.0,550.5990982059999,5.0,part_2,go,750.0,750.0,1.0,,,,,,,,,white,circle
2.0,1,6.0,6.0,951.324939728,5.0,part_2,stop,750.0,750.0,3.0,,,,,,,,,blue,line
4.0,0,5.0,5.0,551.382064819,5.0,part_2,go,750.0,750.0,1.0,,,,,,,,,white,circle
1.0,1,6.0,0.0,,5.0,part_2,stop,750.0,700.0,4.0,,,,,,,,,cyan,diamond
2.0,1,6.0,0.0,,5.0,part_2,stop,750.0,750.0,4.0,,,,,,,,,blue,line
1.0,1,5.0,0.0,,5.0,part_2,stop,750.0,750.0,4.0,,,,,,,,,cyan,diamond
4.0,1,5.0,0.0,,5.0,part_2,stop,750.0,750.0,4.0,,,,,,,,,gray,triangle
0.5,1,6.0,0.0,,5.0,part_2,stop,750.0,750.0,4.0,,,,,,,,,orange,flipped triangle
4.0,0,6.0,6.0,584.311962128,5.0,part_2,go,750.0,750.0,1.0,,,,,,,,,white,circle
1.0,1,5.0,5.0,818.2871341709999,6.0,part_2,stop,750.0,750.0,3.0,,,,,,,,,cyan,diamond
2.0,0,6.0,6.0,901.19099617,6.0,part_2,go,750.0,750.0,1.0,,,,,,,,,yellow,cross
2.0,1,6.0,0.0,,6.0,part_2,go,750.0,750.0,5.0,,,,,,,,,blue,line
4.0,1,6.0,6.0,851.108074188,6.0,part_2,go,750.0,750.0,1.0,,,,,,,,,gray,triangle
4.0,0,5.0,5.0,734.465122223,6.0,part_2,go,750.0,750.0,1.0,,,,,,,,,white,circle
1.0,1,6.0,0.0,,6.0,part_2,go,750.0,750.0,5.0,,,,,,,,,cyan,diamond
0.5,0,5.0,5.0,751.46985054,6.0,part_2,go,750.0,750.0,1.0,,,,,,,,,green,square
1.0,0,6.0,6.0,684.846878052,6.0,part_2,go,750.0,750.0,1.0,,,,,,,,,magenta,hexagon
1.0,0,6.0,6.0,700.950145721,6.0,part_2,go,750.0,750.0,1.0,,,,,,,,,magenta,hexagon
1.0,0,5.0,5.0,785.377025604,6.0,part_2,go,750.0,750.0,1.0,,,,,,,,,magenta,hexagon
0.5,1,6.0,0.0,,6.0,part_2,go,750.0,750.0,5.0,,,,,,,,,orange,flipped triangle
4.0,0,6.0,6.0,851.509094238,6.0,part_2,go,750.0,750.0,1.0,,,,,,,,,white,circle
4.0,1,5.0,5.0,834.979772568,6.0,part_2,stop,700.0,750.0,3.0,,,,,,,,,gray,triangle
0.5,0,6.0,6.0,684.612035751,6.0,part_2,go,700.0,750.0,1.0,,,,,,,,,green,square
1.0,0,6.0,6.0,584.42902565,6.0,part_2,go,700.0,750.0,1.0,,,,,,,,,magenta,hexagon
0.5,0,5.0,5.0,618.052005768,6.0,part_2,go,700.0,750.0,1.0,,,,,,,,,green,square
1.0,1,6.0,0.0,,6.0,part_2,stop,700.0,750.0,4.0,,,,,,,,,cyan,diamond
1.0,0,6.0,6.0,717.831134796,6.0,part_2,go,700.0,750.0,1.0,,,,,,,,,magenta,hexagon
0.5,0,5.0,5.0,584.191083908,6.0,part_2,go,700.0,750.0,1.0,,,,,,,,,green,square
2.0,0,5.0,5.0,584.396123886,6.0,part_2,go,700.0,750.0,1.0,,,,,,,,,yellow,cross
1.0,1,6.0,0.0,,6.0,part_2,stop,700.0,750.0,4.0,,,,,,,,,cyan,diamond
2.0,0,5.0,5.0,584.671020508,6.0,part_2,go,700.0,750.0,1.0,,,,,,,,,yellow,cross
0.5,0,5.0,5.0,684.703111649,6.0,part_2,go,700.0,750.0,1.0,,,,,,,,,green,square
1.0,0,6.0,6.0,767.503976822,6.0,part_2,go,700.0,750.0,1.0,,,,,,,,,magenta,hexagon
2.0,1,5.0,0.0,,6.0,part_2,stop,650.0,750.0,4.0,,,,,,,,,blue,line
1.0,1,5.0,0.0,,6.0,part_2,go,650.0,750.0,5.0,,,,,,,,,cyan,diamond
1.0,1,6.0,0.0,,6.0,part_2,go,650.0,750.0,5.0,,,,,,,,,cyan,diamond
4.0,1,5.0,0.0,,6.0,part_2,stop,700.0,750.0,4.0,,,,,,,,,gray,triangle
0.5,0,5.0,5.0,534.337043762,6.0,part_2,go,700.0,750.0,1.0,,,,,,,,,green,square
0.5,1,5.0,0.0,,6.0,part_2,stop,750.0,750.0,4.0,,,,,,,,,orange,flipped triangle
2.0,0,5.0,5.0,550.590991974,6.0,part_2,go,750.0,750.0,1.0,,,,,,,,,yellow,cross
2.0,1,5.0,0.0,,6.0,part_2,stop,750.0,750.0,4.0,,,,,,,,,blue,line
1.0,1,6.0,6.0,818.1071281430001,6.0,part_2,stop,750.0,750.0,3.0,,,,,,,,,cyan,diamond
2.0,0,5.0,5.0,601.1888980870001,6.0,part_2,go,750.0,750.0,1.0,,,,,,,,,yellow,cross
1.0,0,6.0,6.0,517.627000809,6.0,part_2,go,750.0,750.0,1.0,,,,,,,,,magenta,hexagon
0.5,1,6.0,0.0,,6.0,part_2,stop,750.0,700.0,4.0,,,,,,,,,orange,flipped triangle
0.5,0,6.0,6.0,567.168951035,7.0,part_2,go,750.0,700.0,1.0,,,,,,,,,green,square
0.5,0,5.0,5.0,517.4210071560001,7.0,part_2,go,750.0,700.0,1.0,,,,,,,,,green,square
2.0,1,5.0,0.0,,7.0,part_2,stop,750.0,700.0,4.0,,,,,,,,,blue,line
4.0,0,6.0,6.0,501.478910446,7.0,part_2,go,750.0,700.0,1.0,,,,,,,,,white,circle
0.5,0,5.0,5.0,533.884048462,7.0,part_2,go,750.0,700.0,1.0,,,,,,,,,green,square
4.0,1,6.0,0.0,,7.0,part_2,go,750.0,700.0,5.0,,,,,,,,,gray,triangle
4.0,0,5.0,5.0,567.6298141479999,7.0,part_2,go,750.0,700.0,1.0,,,,,,,,,white,circle
1.0,0,5.0,5.0,717.3371315,7.0,part_2,go,750.0,700.0,1.0,,,,,,,,,magenta,hexagon
2.0,0,5.0,5.0,517.962932587,7.0,part_2,go,750.0,700.0,1.0,,,,,,,,,yellow,cross
1.0,0,6.0,6.0,384.047031403,7.0,part_2,go,750.0,700.0,1.0,,,,,,,,,magenta,hexagon
0.5,0,5.0,5.0,400.778055191,7.0,part_2,go,750.0,700.0,1.0,,,,,,,,,green,square
2.0,0,6.0,6.0,417.062997818,7.0,part_2,go,750.0,700.0,1.0,,,,,,,,,yellow,cross
0.5,0,6.0,6.0,450.58107376099997,7.0,part_2,go,750.0,700.0,1.0,,,,,,,,,green,square
2.0,0,5.0,5.0,417.334079742,7.0,part_2,go,750.0,700.0,1.0,,,,,,,,,yellow,cross
1.0,1,5.0,0.0,,7.0,part_2,stop,750.0,700.0,4.0,,,,,,,,,cyan,diamond
4.0,1,5.0,0.0,,7.0,part_2,stop,750.0,700.0,4.0,,,,,,,,,gray,triangle
1.0,0,6.0,6.0,501.052856445,7.0,part_2,go,750.0,700.0,1.0,,,,,,,,,magenta,hexagon
4.0,1,5.0,0.0,,7.0,part_2,go,750.0,700.0,5.0,,,,,,,,,gray,triangle
1.0,1,5.0,0.0,,7.0,part_2,stop,750.0,700.0,4.0,,,,,,,,,cyan,diamond
2.0,1,6.0,0.0,,7.0,part_2,go,750.0,700.0,5.0,,,,,,,,,blue,line
1.0,1,6.0,6.0,901.427984238,7.0,part_2,stop,750.0,750.0,3.0,,,,,,,,,cyan,diamond
1.0,0,6.0,6.0,584.211111069,7.0,part_2,go,750.0,750.0,1.0,,,,,,,,,magenta,hexagon
2.0,0,5.0,5.0,634.432077408,7.0,part_2,go,750.0,750.0,1.0,,,,,,,,,yellow,cross
1.0,1,5.0,5.0,967.824935913,7.0,part_2,stop,750.0,750.0,3.0,,,,,,,,,cyan,diamond
1.0,1,6.0,0.0,,7.0,part_2,stop,750.0,700.0,4.0,,,,,,,,,cyan,diamond
0.5,1,6.0,0.0,,7.0,part_2,stop,750.0,750.0,4.0,,,,,,,,,orange,flipped triangle
2.0,1,6.0,0.0,,7.0,part_2,stop,750.0,750.0,4.0,,,,,,,,,blue,line
0.5,0,5.0,5.0,717.421770096,7.0,part_2,go,750.0,750.0,1.0,,,,,,,,,green,square
4.0,1,6.0,0.0,,7.0,part_2,stop,750.0,750.0,4.0,,,,,,,,,gray,triangle
1.0,1,5.0,0.0,,7.0,part_2,go,750.0,750.0,5.0,,,,,,,,,cyan,diamond
4.0,0,5.0,5.0,484.20190811199996,7.0,part_2,go,750.0,750.0,1.0,,,,,,,,,white,circle
1.0,0,6.0,6.0,551.240921021,7.0,part_2,go,750.0,750.0,1.0,,,,,,,,,magenta,hexagon
2.0,0,6.0,6.0,467.586994171,7.0,part_2,go,750.0,750.0,1.0,,,,,,,,,yellow,cross
2.0,0,5.0,5.0,367.597818375,7.0,part_2,go,750.0,750.0,1.0,,,,,,,,,yellow,cross
2.0,0,6.0,6.0,434.170007706,7.0,part_2,go,750.0,750.0,1.0,,,,,,,,,yellow,cross
4.0,1,6.0,0.0,,7.0,part_2,stop,750.0,750.0,4.0,,,,,,,,,gray,triangle
2.0,1,5.0,0.0,,8.0,part_2,stop,700.0,750.0,4.0,,,,,,,,,blue,line
0.5,0,6.0,6.0,501.52707099899993,8.0,part_2,go,700.0,750.0,1.0,,,,,,,,,green,square
2.0,0,5.0,5.0,551.255941391,8.0,part_2,go,700.0,750.0,1.0,,,,,,,,,yellow,cross
4.0,1,6.0,0.0,,8.0,part_2,go,700.0,750.0,5.0,,,,,,,,,gray,triangle
2.0,0,5.0,5.0,500.72407722500003,8.0,part_2,go,700.0,750.0,1.0,,,,,,,,,yellow,cross
1.0,0,6.0,6.0,400.880813599,8.0,part_2,go,700.0,750.0,1.0,,,,,,,,,magenta,hexagon
4.0,1,6.0,0.0,,8.0,part_2,go,700.0,750.0,5.0,,,,,,,,,gray,triangle
0.5,0,6.0,6.0,467.263936996,8.0,part_2,go,700.0,750.0,1.0,,,,,,,,,green,square
4.0,0,6.0,6.0,518.0709362030001,8.0,part_2,go,700.0,750.0,1.0,,,,,,,,,white,circle
0.5,1,5.0,0.0,,8.0,part_2,stop,750.0,750.0,4.0,,,,,,,,,orange,flipped triangle
1.0,1,6.0,6.0,501.11198425299995,8.0,part_2,stop,750.0,750.0,3.0,,,,,,,,,cyan,diamond
2.0,1,5.0,0.0,,8.0,part_2,stop,750.0,750.0,4.0,,,,,,,,,blue,line
1.0,0,5.0,5.0,651.576042175,8.0,part_2,go,750.0,750.0,1.0,,,,,,,,,magenta,hexagon
2.0,0,5.0,5.0,567.777872086,8.0,part_2,go,750.0,750.0,1.0,,,,,,,,,yellow,cross
2.0,1,6.0,0.0,,8.0,part_2,stop,750.0,700.0,4.0,,,,,,,,,blue,line
1.0,0,5.0,5.0,550.967931747,8.0,part_2,go,750.0,700.0,1.0,,,,,,,,,magenta,hexagon
2.0,0,6.0,6.0,483.891963959,8.0,part_2,go,750.0,700.0,1.0,,,,,,,,,yellow,cross
2.0,1,6.0,0.0,,8.0,part_2,go,750.0,700.0,5.0,,,,,,,,,blue,line
1.0,0,6.0,6.0,417.533874512,8.0,part_2,go,750.0,700.0,1.0,,,,,,,,,magenta,hexagon
2.0,1,5.0,0.0,,8.0,part_2,stop,750.0,700.0,4.0,,,,,,,,,blue,line
1.0,1,6.0,0.0,,8.0,part_2,stop,750.0,750.0,4.0,,,,,,,,,cyan,diamond
1.0,1,6.0,0.0,,8.0,part_2,stop,750.0,750.0,4.0,,,,,,,,,cyan,diamond
1.0,1,6.0,0.0,,8.0,part_2,stop,750.0,750.0,4.0,,,,,,,,,cyan,diamond
2.0,1,5.0,0.0,,8.0,part_2,stop,750.0,750.0,4.0,,,,,,,,,blue,line
0.5,1,6.0,0.0,,8.0,part_2,go,750.0,750.0,5.0,,,,,,,,,orange,flipped triangle
2.0,0,5.0,5.0,501.14893913299994,8.0,part_2,go,750.0,750.0,1.0,,,,,,,,,yellow,cross
1.0,1,6.0,0.0,,8.0,part_2,stop,750.0,750.0,4.0,,,,,,,,,cyan,diamond
0.5,1,5.0,5.0,784.555912018,8.0,part_2,stop,750.0,750.0,3.0,,,,,,,,,orange,flipped triangle
4.0,1,5.0,0.0,,8.0,part_2,stop,700.0,750.0,4.0,,,,,,,,,gray,triangle
2.0,0,5.0,5.0,834.597826004,8.0,part_2,go,700.0,750.0,1.0,,,,,,,,,yellow,cross
2.0,1,6.0,0.0,,8.0,part_2,stop,700.0,750.0,4.0,,,,,,,,,blue,line
1.0,0,5.0,5.0,851.613044739,8.0,part_2,go,700.0,750.0,1.0,,,,,,,,,magenta,hexagon
4.0,0,6.0,6.0,567.848920822,8.0,part_2,go,700.0,750.0,1.0,,,,,,,,,white,circle
0.5,0,5.0,5.0,584.442853928,8.0,part_2,go,700.0,750.0,1.0,,,,,,,,,green,square
4.0,0,5.0,5.0,484.308004379,8.0,part_2,go,700.0,750.0,1.0,,,,,,,,,white,circle
4.0,0,5.0,5.0,517.514944077,8.0,part_2,go,700.0,750.0,1.0,,,,,,,,,white,circle
4.0,0,7.0,3.0,1985.5978488899998,1.0,part_3,go,,,,68.0,2.0,170.0,136.0,68.0,34.0,102.0,204.0,white,circle
2.0,1,7.0,1.0,2753.3190250400003,1.0,part_3,stop,,,,132.0,3.0,132.0,88.0,176.0,44.0,220.0,264.0,blue,line
0.5,0,7.0,4.0,2236.3300323500002,1.0,part_3,go,,,,324.0,6.0,108.0,54.0,270.0,324.0,162.0,216.0,green,square
2.0,1,7.0,4.0,1585.14285088,1.0,part_3,stop,,,,170.0,5.0,136.0,34.0,68.0,170.0,204.0,102.0,blue,line
4.0,1,7.0,4.0,2236.27996445,1.0,part_3,stop,,,,170.0,5.0,102.0,204.0,34.0,170.0,68.0,136.0,gray,triangle
0.5,1,7.0,4.0,1936.15698814,1.0,part_3,stop,,,,245.0,5.0,147.0,294.0,49.0,245.0,196.0,98.0,orange,flipped triangle
1.0,0,7.0,4.0,1751.6090869900002,1.0,part_3,go,,,,270.0,5.0,324.0,162.0,216.0,270.0,54.0,108.0,magenta,hexagon
2.0,0,7.0,2.0,1251.46508217,1.0,part_3,go,,,,245.0,5.0,294.0,245.0,49.0,98.0,147.0,196.0,yellow,cross
0.5,0,7.0,2.0,2019.2451477099999,1.0,part_3,go,,,,195.0,5.0,39.0,195.0,117.0,156.0,78.0,234.0,green,square
2.0,1,7.0,4.0,2469.5920944199997,1.0,part_3,stop,,,,216.0,4.0,324.0,54.0,108.0,216.0,162.0,270.0,blue,line
0.5,0,7.0,1.0,2219.5088863399997,1.0,part_3,go,,,,196.0,4.0,196.0,245.0,98.0,294.0,147.0,49.0,green,square
4.0,0,7.0,6.0,1768.66793633,1.0,part_3,go,,,,132.0,3.0,264.0,220.0,176.0,44.0,88.0,132.0,white,circle
1.0,1,7.0,5.0,2236.00196838,1.0,part_3,stop,,,,132.0,3.0,88.0,176.0,44.0,264.0,132.0,220.0,cyan,diamond
1.0,1,7.0,2.0,3337.2750282300003,1.0,part_3,stop,,,,204.0,6.0,68.0,204.0,170.0,34.0,102.0,136.0,cyan,diamond
0.5,0,7.0,6.0,1635.7049941999999,1.0,part_3,go,,,,162.0,3.0,216.0,108.0,54.0,324.0,270.0,162.0,green,square
2.0,1,7.0,6.0,2169.10505295,1.0,part_3,stop,,,,98.0,2.0,49.0,245.0,147.0,196.0,294.0,98.0,blue,line
0.5,0,7.0,2.0,1952.38184929,1.0,part_3,go,,,,68.0,2.0,102.0,68.0,34.0,136.0,204.0,170.0,green,square
1.0,1,7.0,2.0,1401.6439914700002,1.0,part_3,stop,,,,117.0,3.0,195.0,117.0,234.0,39.0,156.0,78.0,cyan,diamond
4.0,1,7.0,3.0,2953.11021805,1.0,part_3,stop,,,,162.0,3.0,54.0,270.0,162.0,324.0,108.0,216.0,gray,triangle
1.0,1,7.0,6.0,2870.1729774500004,1.0,part_3,stop,,,,132.0,3.0,220.0,264.0,88.0,44.0,176.0,132.0,cyan,diamond
0.5,1,7.0,2.0,1618.28684807,2.0,part_3,stop,,,,162.0,3.0,324.0,162.0,270.0,108.0,216.0,54.0,orange,flipped triangle
1.0,0,7.0,1.0,2302.86502838,2.0,part_3,go,,,,117.0,3.0,117.0,156.0,195.0,78.0,39.0,234.0,magenta,hexagon
1.0,0,7.0,5.0,2236.17506027,2.0,part_3,go,,,,117.0,3.0,156.0,234.0,195.0,39.0,117.0,78.0,magenta,hexagon
1.0,0,7.0,2.0,2870.12195587,2.0,part_3,go,,,,102.0,3.0,34.0,102.0,136.0,68.0,170.0,204.0,magenta,hexagon
4.0,1,7.0,5.0,2319.32592392,2.0,part_3,stop,,,,132.0,3.0,176.0,44.0,88.0,264.0,132.0,220.0,gray,triangle
1.0,1,7.0,2.0,1568.82691383,2.0,part_3,stop,,,,108.0,2.0,162.0,108.0,54.0,270.0,324.0,216.0,cyan,diamond
2.0,0,7.0,1.0,2303.3220767999996,2.0,part_3,go,,,,195.0,5.0,195.0,78.0,39.0,156.0,117.0,234.0,yellow,cross
2.0,1,7.0,5.0,1951.93099976,2.0,part_3,stop,,,,147.0,3.0,49.0,294.0,245.0,196.0,147.0,98.0,blue,line
0.5,1,7.0,1.0,3387.20583916,2.0,part_3,stop,,,,176.0,4.0,176.0,88.0,132.0,220.0,264.0,44.0,orange,flipped triangle
1.0,1,7.0,6.0,3053.96509171,2.0,part_3,stop,,,,234.0,6.0,39.0,195.0,156.0,78.0,117.0,234.0,cyan,diamond
4.0,1,7.0,2.0,2669.73781586,2.0,part_3,stop,,,,176.0,4.0,88.0,176.0,264.0,132.0,220.0,44.0,gray,triangle
4.0,1,7.0,2.0,1418.29705238,2.0,part_3,stop,,,,156.0,4.0,195.0,156.0,234.0,117.0,78.0,39.0,gray,triangle
4.0,1,7.0,3.0,2853.66392136,2.0,part_3,stop,,,,170.0,5.0,204.0,102.0,170.0,34.0,136.0,68.0,gray,triangle
4.0,0,7.0,1.0,3136.99579239,2.0,part_3,go,,,,195.0,5.0,195.0,156.0,117.0,39.0,234.0,78.0,white,circle
0.5,1,7.0,6.0,1752.06899643,2.0,part_3,stop,,,,78.0,2.0,234.0,117.0,195.0,156.0,39.0,78.0,orange,flipped triangle
1.0,0,7.0,5.0,2069.20194626,2.0,part_3,go,,,,102.0,3.0,34.0,136.0,204.0,170.0,102.0,68.0,magenta,hexagon
1.0,1,7.0,2.0,2419.9860096,2.0,part_3,stop,,,,98.0,2.0,49.0,98.0,147.0,245.0,196.0,294.0,cyan,diamond
0.5,1,7.0,4.0,1985.64887047,2.0,part_3,stop,,,,204.0,6.0,68.0,102.0,136.0,204.0,170.0,34.0,orange,flipped triangle
1.0,0,7.0,3.0,1601.9401550300001,2.0,part_3,go,,,,44.0,1.0,264.0,132.0,44.0,88.0,220.0,176.0,magenta,hexagon
0.5,0,7.0,1.0,1769.3059444399998,2.0,part_3,go,,,,88.0,2.0,88.0,176.0,264.0,44.0,220.0,132.0,green,square
2.0,0,7.0,4.0,2570.00207901,3.0,part_3,go,,,,132.0,3.0,88.0,264.0,220.0,132.0,44.0,176.0,yellow,cross
0.5,1,7.0,2.0,2102.3728847499997,3.0,part_3,stop,,,,78.0,2.0,195.0,78.0,117.0,234.0,39.0,156.0,orange,flipped triangle
0.5,1,7.0,5.0,1668.81108284,3.0,part_3,stop,,,,264.0,6.0,176.0,44.0,220.0,132.0,264.0,88.0,orange,flipped triangle
0.5,1,7.0,1.0,2119.09794807,3.0,part_3,stop,,,,162.0,3.0,162.0,324.0,108.0,216.0,270.0,54.0,orange,flipped triangle
0.5,0,7.0,6.0,1151.1030197100001,3.0,part_3,go,,,,195.0,5.0,39.0,156.0,117.0,78.0,234.0,195.0,green,square
1.0,0,7.0,4.0,1635.18190384,3.0,part_3,go,,,,245.0,5.0,98.0,294.0,49.0,245.0,147.0,196.0,magenta,hexagon
1.0,0,7.0,1.0,1368.64185333,3.0,part_3,go,,,,108.0,2.0,108.0,270.0,162.0,324.0,216.0,54.0,magenta,hexagon
2.0,0,7.0,5.0,1202.10599899,3.0,part_3,go,,,,136.0,4.0,170.0,102.0,204.0,68.0,136.0,34.0,yellow,cross
0.5,1,7.0,6.0,1769.2999839800002,3.0,part_3,stop,,,,196.0,4.0,147.0,98.0,294.0,245.0,49.0,196.0,orange,flipped triangle
0.5,0,7.0,4.0,1401.51786804,3.0,part_3,go,,,,147.0,3.0,49.0,245.0,98.0,147.0,196.0,294.0,green,square
2.0,0,7.0,2.0,1551.43880844,3.0,part_3,go,,,,196.0,4.0,245.0,196.0,98.0,49.0,147.0,294.0,yellow,cross
1.0,1,7.0,4.0,1418.48182678,3.0,part_3,stop,,,,170.0,5.0,102.0,136.0,68.0,170.0,204.0,34.0,cyan,diamond
4.0,1,7.0,4.0,1218.3060646099998,3.0,part_3,stop,,,,98.0,2.0,245.0,49.0,294.0,98.0,196.0,147.0,gray,triangle
2.0,0,7.0,3.0,1568.47691536,3.0,part_3,go,,,,162.0,3.0,108.0,216.0,162.0,324.0,270.0,54.0,yellow,cross
4.0,1,7.0,1.0,1251.84106827,3.0,part_3,stop,,,,156.0,4.0,156.0,39.0,195.0,117.0,234.0,78.0,gray,triangle
4.0,0,7.0,6.0,1868.19505692,3.0,part_3,go,,,,270.0,5.0,162.0,324.0,108.0,54.0,216.0,270.0,white,circle
2.0,0,7.0,4.0,1251.90806389,3.0,part_3,go,,,,132.0,3.0,88.0,176.0,44.0,132.0,220.0,264.0,yellow,cross
1.0,0,7.0,2.0,1668.67804527,3.0,part_3,go,,,,147.0,3.0,196.0,147.0,294.0,49.0,98.0,245.0,magenta,hexagon
4.0,0,7.0,4.0,1501.8229484600001,3.0,part_3,go,,,,294.0,6.0,196.0,98.0,147.0,294.0,245.0,49.0,white,circle
4.0,0,7.0,2.0,1852.23579407,3.0,part_3,go,,,,234.0,6.0,39.0,234.0,156.0,195.0,117.0,78.0,white,circle
4.0,1,7.0,3.0,1235.14389992,4.0,part_3,stop,,,,270.0,5.0,324.0,216.0,270.0,162.0,108.0,54.0,gray,triangle
4.0,0,7.0,6.0,1118.14713478,4.0,part_3,go,,,,147.0,3.0,245.0,98.0,294.0,196.0,49.0,147.0,white,circle
4.0,0,7.0,2.0,1218.0318832399998,4.0,part_3,go,,,,108.0,2.0,216.0,108.0,270.0,324.0,54.0,162.0,white,circle
4.0,0,7.0,1.0,1451.8430233,4.0,part_3,go,,,,176.0,4.0,176.0,220.0,132.0,44.0,264.0,88.0,white,circle
2.0,1,7.0,4.0,1718.97101402,4.0,part_3,stop,,,,264.0,6.0,88.0,44.0,176.0,264.0,132.0,220.0,blue,line
0.5,0,7.0,5.0,1451.34401321,4.0,part_3,go,,,,68.0,2.0,170.0,34.0,102.0,136.0,68.0,204.0,green,square
2.0,1,7.0,1.0,1735.78000069,4.0,part_3,stop,,,,156.0,4.0,156.0,39.0,234.0,195.0,78.0,117.0,blue,line
2.0,0,7.0,3.0,2035.7899665799998,4.0,part_3,go,,,,117.0,3.0,195.0,156.0,117.0,234.0,39.0,78.0,yellow,cross
2.0,1,7.0,5.0,2585.86883545,4.0,part_3,stop,,,,270.0,5.0,324.0,108.0,54.0,216.0,270.0,162.0,blue,line
1.0,0,7.0,4.0,1518.83101463,4.0,part_3,go,,,,132.0,3.0,220.0,44.0,88.0,132.0,264.0,176.0,magenta,hexagon
0.5,0,7.0,4.0,1084.88297462,4.0,part_3,go,,,,220.0,5.0,176.0,88.0,264.0,220.0,132.0,44.0,green,square
2.0,1,7.0,4.0,984.714984894,4.0,part_3,stop,,,,195.0,5.0,78.0,156.0,234.0,195.0,39.0,117.0,blue,line
0.5,1,7.0,2.0,1402.15396881,4.0,part_3,stop,,,,204.0,6.0,136.0,204.0,102.0,68.0,170.0,34.0,orange,flipped triangle
2.0,0,7.0,3.0,1684.86094475,4.0,part_3,go,,,,204.0,6.0,34.0,102.0,204.0,170.0,136.0,68.0,yellow,cross
2.0,1,7.0,5.0,2202.8369903599996,4.0,part_3,stop,,,,68.0,2.0,34.0,136.0,170.0,102.0,68.0,204.0,blue,line
1.0,1,7.0,4.0,2186.05208397,4.0,part_3,stop,,,,294.0,6.0,49.0,147.0,98.0,294.0,196.0,245.0,cyan,diamond
4.0,0,7.0,3.0,1301.17988586,4.0,part_3,go,,,,136.0,4.0,68.0,170.0,136.0,204.0,34.0,102.0,white,circle
4.0,1,7.0,6.0,2235.76688766,4.0,part_3,stop,,,,147.0,3.0,49.0,245.0,294.0,98.0,196.0,147.0,gray,triangle
1.0,1,7.0,1.0,1635.34593582,4.0,part_3,stop,,,,270.0,5.0,270.0,108.0,324.0,54.0,216.0,162.0,cyan,diamond
2.0,0,7.0,1.0,2836.44413948,4.0,part_3,go,,,,162.0,3.0,162.0,324.0,54.0,270.0,108.0,216.0,yellow,cross
