stepwise_reward_magnitude,paired_with_stopping,quadrant,response,reaction_time,block,which_part,stop_signal_trial_type,left_SSD,right_SSD,accuracy,chosen_bidding_amount,chosen_bidding_level,possible_bid_1,possible_bid_2,possible_bid_3,possible_bid_4,possible_bid_5,possible_bid_6,color_text,shape_text
2.0,1,3.0,3.0,367.70987510699996,1.0,part_1,,,,,,,,,,,,,yellow,flipped triangle
2.0,0,4.0,4.0,333.705186844,1.0,part_1,,,,,,,,,,,,,cyan,circle
0.5,0,3.0,3.0,351.142168045,1.0,part_1,,,,,,,,,,,,,white,diamond
2.0,0,4.0,4.0,334.733009338,1.0,part_1,,,,,,,,,,,,,cyan,circle
0.5,1,2.0,2.0,351.000070572,1.0,part_1,,,,,,,,,,,,,gray,hexagon
0.5,1,4.0,4.0,350.486040115,1.0,part_1,,,,,,,,,,,,,gray,hexagon
2.0,0,2.0,2.0,384.33909416200004,1.0,part_1,,,,,,,,,,,,,cyan,circle
0.5,0,4.0,4.0,417.349100113,1.0,part_1,,,,,,,,,,,,,white,diamond
2.0,0,2.0,2.0,451.34997367899996,1.0,part_1,,,,,,,,,,,,,cyan,circle
4.0,0,1.0,1.0,450.998067856,1.0,part_1,,,,,,,,,,,,,orange,line
2.0,1,1.0,1.0,350.857019424,1.0,part_1,,,,,,,,,,,,,yellow,flipped triangle
1.0,0,2.0,2.0,350.924015045,1.0,part_1,,,,,,,,,,,,,blue,cross
4.0,1,1.0,1.0,350.924015045,1.0,part_1,,,,,,,,,,,,,magenta,square
4.0,0,4.0,4.0,401.079177856,1.0,part_1,,,,,,,,,,,,,orange,line
4.0,0,4.0,4.0,384.656906128,1.0,part_1,,,,,,,,,,,,,orange,line
2.0,1,2.0,2.0,350.938796997,1.0,part_1,,,,,,,,,,,,,yellow,flipped triangle
0.5,0,1.0,1.0,401.215076447,1.0,part_1,,,,,,,,,,,,,white,diamond
0.5,1,4.0,4.0,400.503158569,1.0,part_1,,,,,,,,,,,,,gray,hexagon
1.0,1,3.0,3.0,467.742919922,1.0,part_1,,,,,,,,,,,,,green,triangle
1.0,0,3.0,3.0,367.938995361,1.0,part_1,,,,,,,,,,,,,blue,cross
1.0,1,3.0,3.0,401.287078857,1.0,part_1,,,,,,,,,,,,,green,triangle
2.0,0,1.0,1.0,367.730855942,1.0,part_1,,,,,,,,,,,,,cyan,circle
4.0,1,3.0,3.0,367.385864258,1.0,part_1,,,,,,,,,,,,,magenta,square
0.5,1,3.0,3.0,400.54798126199995,1.0,part_1,,,,,,,,,,,,,gray,hexagon
0.5,1,3.0,3.0,334.259033203,1.0,part_1,,,,,,,,,,,,,gray,hexagon
1.0,1,4.0,4.0,317.838907242,1.0,part_1,,,,,,,,,,,,,green,triangle
4.0,0,3.0,3.0,384.093046188,1.0,part_1,,,,,,,,,,,,,orange,line
1.0,0,2.0,2.0,384.41991806,1.0,part_1,,,,,,,,,,,,,blue,cross
0.5,0,2.0,2.0,384.191036224,1.0,part_1,,,,,,,,,,,,,white,diamond
4.0,1,3.0,3.0,350.908041,1.0,part_1,,,,,,,,,,,,,magenta,square
2.0,0,3.0,3.0,351.190090179,1.0,part_1,,,,,,,,,,,,,cyan,circle
1.0,1,1.0,1.0,400.923013687,1.0,part_1,,,,,,,,,,,,,green,triangle
2.0,1,3.0,3.0,401.319026947,1.0,part_1,,,,,,,,,,,,,yellow,flipped triangle
2.0,1,3.0,3.0,384.067058563,1.0,part_1,,,,,,,,,,,,,yellow,flipped triangle
1.0,1,4.0,4.0,367.478847504,1.0,part_1,,,,,,,,,,,,,green,triangle
0.5,1,1.0,1.0,484.163045883,1.0,part_1,,,,,,,,,,,,,gray,hexagon
0.5,0,1.0,1.0,551.190137863,1.0,part_1,,,,,,,,,,,,,white,diamond
0.5,0,4.0,4.0,434.249162674,1.0,part_1,,,,,,,,,,,,,white,diamond
4.0,0,4.0,4.0,418.161153793,1.0,part_1,,,,,,,,,,,,,orange,line
2.0,1,2.0,2.0,417.26398467999996,1.0,part_1,,,,,,,,,,,,,yellow,flipped triangle
2.0,0,4.0,4.0,367.010116577,1.0,part_1,,,,,,,,,,,,,cyan,circle
1.0,1,4.0,4.0,384.725093842,1.0,part_1,,,,,,,,,,,,,green,triangle
0.5,0,3.0,3.0,367.42401123,1.0,part_1,,,,,,,,,,,,,white,diamond
4.0,1,4.0,4.0,350.968837738,1.0,part_1,,,,,,,,,,,,,magenta,square
1.0,0,2.0,2.0,367.634057999,1.0,part_1,,,,,,,,,,,,,blue,cross
2.0,1,3.0,3.0,350.89612007100004,1.0,part_1,,,,,,,,,,,,,yellow,flipped triangle
4.0,1,1.0,1.0,484.693050385,1.0,part_1,,,,,,,,,,,,,magenta,square
4.0,0,1.0,1.0,450.893878937,1.0,part_1,,,,,,,,,,,,,orange,line
1.0,0,4.0,4.0,451.143026352,1.0,part_1,,,,,,,,,,,,,blue,cross
0.5,0,1.0,1.0,350.857973099,1.0,part_1,,,,,,,,,,,,,white,diamond
4.0,1,2.0,2.0,350.945949554,1.0,part_1,,,,,,,,,,,,,magenta,square
0.5,0,1.0,1.0,350.68202018700003,1.0,part_1,,,,,,,,,,,,,white,diamond
0.5,0,2.0,2.0,350.646018982,1.0,part_1,,,,,,,,,,,,,white,diamond
2.0,0,2.0,2.0,351.093053818,1.0,part_1,,,,,,,,,,,,,cyan,circle
2.0,0,4.0,4.0,334.33508873,1.0,part_1,,,,,,,,,,,,,cyan,circle
1.0,0,2.0,2.0,351.258039474,1.0,part_1,,,,,,,,,,,,,blue,cross
1.0,0,1.0,1.0,384.50789451599996,1.0,part_1,,,,,,,,,,,,,blue,cross
1.0,1,4.0,4.0,384.779930115,1.0,part_1,,,,,,,,,,,,,green,triangle
0.5,1,1.0,1.0,334.188938141,1.0,part_1,,,,,,,,,,,,,gray,hexagon
0.5,1,4.0,4.0,384.347200394,1.0,part_1,,,,,,,,,,,,,gray,hexagon
0.5,1,3.0,3.0,351.207017899,1.0,part_1,,,,,,,,,,,,,gray,hexagon
4.0,1,3.0,3.0,367.350101471,1.0,part_1,,,,,,,,,,,,,magenta,square
4.0,1,4.0,4.0,350.673913956,1.0,part_1,,,,,,,,,,,,,magenta,square
0.5,0,4.0,4.0,318.00413131700003,1.0,part_1,,,,,,,,,,,,,white,diamond
2.0,1,1.0,1.0,367.94090271000005,1.0,part_1,,,,,,,,,,,,,yellow,flipped triangle
1.0,0,2.0,2.0,367.71416664099996,1.0,part_1,,,,,,,,,,,,,blue,cross
2.0,0,1.0,1.0,434.59320068399995,1.0,part_1,,,,,,,,,,,,,cyan,circle
4.0,0,4.0,4.0,350.67510604899996,1.0,part_1,,,,,,,,,,,,,orange,line
2.0,1,3.0,3.0,468.1661129,1.0,part_1,,,,,,,,,,,,,yellow,flipped triangle
0.5,1,1.0,1.0,384.018182755,1.0,part_1,,,,,,,,,,,,,gray,hexagon
1.0,1,2.0,2.0,367.281913757,1.0,part_1,,,,,,,,,,,,,green,triangle
2.0,1,4.0,4.0,317.846059799,1.0,part_1,,,,,,,,,,,,,yellow,flipped triangle
1.0,0,2.0,2.0,350.89898109399996,1.0,part_1,,,,,,,,,,,,,blue,cross
0.5,0,2.0,2.0,367.36702919000004,1.0,part_1,,,,,,,,,,,,,white,diamond
2.0,1,3.0,3.0,384.399175644,1.0,part_1,,,,,,,,,,,,,yellow,flipped triangle
1.0,1,4.0,4.0,417.703151703,1.0,part_1,,,,,,,,,,,,,green,triangle
4.0,0,3.0,3.0,434.163093567,1.0,part_1,,,,,,,,,,,,,orange,line
2.0,1,3.0,3.0,351.19915008500004,1.0,part_1,,,,,,,,,,,,,yellow,flipped triangle
4.0,0,4.0,4.0,367.602109909,1.0,part_1,,,,,,,,,,,,,orange,line
2.0,0,2.0,2.0,367.45190620399995,1.0,part_1,,,,,,,,,,,,,cyan,circle
0.5,0,1.0,1.0,384.16504859900004,1.0,part_1,,,,,,,,,,,,,white,diamond
1.0,1,3.0,3.0,367.883205414,1.0,part_1,,,,,,,,,,,,,green,triangle
0.5,1,4.0,4.0,367.531061172,1.0,part_1,,,,,,,,,,,,,gray,hexagon
4.0,1,1.0,1.0,401.00002288800005,1.0,part_1,,,,,,,,,,,,,magenta,square
2.0,1,1.0,1.0,567.692041397,1.0,part_1,,,,,,,,,,,,,yellow,flipped triangle
1.0,0,2.0,2.0,634.927988052,1.0,part_1,,,,,,,,,,,,,blue,cross
1.0,1,3.0,3.0,384.160041809,1.0,part_1,,,,,,,,,,,,,green,triangle
1.0,1,3.0,3.0,351.268053055,1.0,part_1,,,,,,,,,,,,,green,triangle
2.0,0,1.0,1.0,368.052005768,1.0,part_1,,,,,,,,,,,,,cyan,circle
1.0,0,3.0,3.0,351.020812988,1.0,part_1,,,,,,,,,,,,,blue,cross
1.0,1,1.0,1.0,351.160049438,1.0,part_1,,,,,,,,,,,,,green,triangle
2.0,0,2.0,2.0,367.129087448,1.0,part_1,,,,,,,,,,,,,cyan,circle
1.0,0,1.0,1.0,400.99501609799995,1.0,part_1,,,,,,,,,,,,,blue,cross
1.0,0,2.0,2.0,417.752981186,1.0,part_1,,,,,,,,,,,,,blue,cross
4.0,0,2.0,2.0,501.410007477,1.0,part_1,,,,,,,,,,,,,orange,line
1.0,1,2.0,2.0,417.919874191,1.0,part_1,,,,,,,,,,,,,green,triangle
1.0,0,2.0,2.0,384.11593437199997,1.0,part_1,,,,,,,,,,,,,blue,cross
4.0,1,1.0,1.0,433.17413330100004,1.0,part_1,,,,,,,,,,,,,magenta,square
0.5,0,1.0,1.0,367.383003235,1.0,part_1,,,,,,,,,,,,,white,diamond
2.0,0,2.0,2.0,333.647966385,1.0,part_1,,,,,,,,,,,,,cyan,circle
0.5,1,1.0,1.0,367.678880692,2.0,part_1,,,,,,,,,,,,,gray,hexagon
2.0,0,3.0,3.0,367.123126984,2.0,part_1,,,,,,,,,,,,,cyan,circle
1.0,1,3.0,3.0,350.89802742,2.0,part_1,,,,,,,,,,,,,green,triangle
1.0,0,4.0,4.0,484.579086304,2.0,part_1,,,,,,,,,,,,,blue,cross
2.0,0,1.0,1.0,500.97107887299995,2.0,part_1,,,,,,,,,,,,,cyan,circle
4.0,0,2.0,2.0,500.81205368,2.0,part_1,,,,,,,,,,,,,orange,line
2.0,1,1.0,1.0,401.06391906700003,2.0,part_1,,,,,,,,,,,,,yellow,flipped triangle
4.0,0,2.0,2.0,367.777109146,2.0,part_1,,,,,,,,,,,,,orange,line
4.0,1,1.0,1.0,417.682886124,2.0,part_1,,,,,,,,,,,,,magenta,square
4.0,0,1.0,1.0,367.774009705,2.0,part_1,,,,,,,,,,,,,orange,line
1.0,0,3.0,3.0,434.634208679,2.0,part_1,,,,,,,,,,,,,blue,cross
0.5,0,4.0,4.0,400.507926941,2.0,part_1,,,,,,,,,,,,,white,diamond
2.0,0,3.0,3.0,367.805957794,2.0,part_1,,,,,,,,,,,,,cyan,circle
2.0,1,4.0,4.0,351.103067398,2.0,part_1,,,,,,,,,,,,,yellow,flipped triangle
4.0,1,3.0,3.0,350.757837296,2.0,part_1,,,,,,,,,,,,,magenta,square
2.0,1,2.0,2.0,400.78020095799997,2.0,part_1,,,,,,,,,,,,,yellow,flipped triangle
2.0,0,1.0,1.0,434.53001976,2.0,part_1,,,,,,,,,,,,,cyan,circle
4.0,0,3.0,3.0,401.709079742,2.0,part_1,,,,,,,,,,,,,orange,line
2.0,1,1.0,1.0,400.471925735,2.0,part_1,,,,,,,,,,,,,yellow,flipped triangle
0.5,1,2.0,2.0,401.21412277200005,2.0,part_1,,,,,,,,,,,,,gray,hexagon
1.0,1,2.0,2.0,417.546987534,2.0,part_1,,,,,,,,,,,,,green,triangle
0.5,0,1.0,1.0,384.379148483,2.0,part_1,,,,,,,,,,,,,white,diamond
0.5,1,4.0,4.0,401.07011795000005,2.0,part_1,,,,,,,,,,,,,gray,hexagon
2.0,1,2.0,2.0,351.54891014099996,2.0,part_1,,,,,,,,,,,,,yellow,flipped triangle
4.0,0,2.0,2.0,484.174966812,2.0,part_1,,,,,,,,,,,,,orange,line
4.0,1,4.0,4.0,434.21006202700005,2.0,part_1,,,,,,,,,,,,,magenta,square
1.0,1,2.0,2.0,451.13205909699997,2.0,part_1,,,,,,,,,,,,,green,triangle
4.0,1,3.0,3.0,367.291927338,2.0,part_1,,,,,,,,,,,,,magenta,square
2.0,1,2.0,2.0,434.303045273,2.0,part_1,,,,,,,,,,,,,yellow,flipped triangle
2.0,0,3.0,3.0,401.052951813,2.0,part_1,,,,,,,,,,,,,cyan,circle
0.5,0,4.0,4.0,534.4119071959999,2.0,part_1,,,,,,,,,,,,,white,diamond
1.0,0,4.0,4.0,401.373147964,2.0,part_1,,,,,,,,,,,,,blue,cross
4.0,1,3.0,3.0,467.517852783,2.0,part_1,,,,,,,,,,,,,magenta,square
0.5,0,3.0,3.0,417.587041855,2.0,part_1,,,,,,,,,,,,,white,diamond
1.0,1,3.0,3.0,383.746862411,2.0,part_1,,,,,,,,,,,,,green,triangle
4.0,1,2.0,2.0,367.859125137,2.0,part_1,,,,,,,,,,,,,magenta,square
4.0,0,1.0,1.0,433.668851852,2.0,part_1,,,,,,,,,,,,,orange,line
2.0,0,2.0,2.0,384.444952011,2.0,part_1,,,,,,,,,,,,,cyan,circle
2.0,0,4.0,4.0,434.07917022699996,2.0,part_1,,,,,,,,,,,,,cyan,circle
0.5,1,2.0,2.0,417.828083038,2.0,part_1,,,,,,,,,,,,,gray,hexagon
0.5,1,1.0,1.0,434.25512313800004,2.0,part_1,,,,,,,,,,,,,gray,hexagon
1.0,0,4.0,4.0,467.65303611800005,2.0,part_1,,,,,,,,,,,,,blue,cross
1.0,1,1.0,1.0,434.540987015,2.0,part_1,,,,,,,,,,,,,green,triangle
1.0,1,2.0,2.0,417.60015487699997,2.0,part_1,,,,,,,,,,,,,green,triangle
2.0,0,4.0,4.0,534.514904022,2.0,part_1,,,,,,,,,,,,,cyan,circle
0.5,0,4.0,4.0,601.157903671,2.0,part_1,,,,,,,,,,,,,white,diamond
2.0,1,1.0,1.0,468.192100525,2.0,part_1,,,,,,,,,,,,,yellow,flipped triangle
2.0,1,3.0,3.0,467.88287162800003,2.0,part_1,,,,,,,,,,,,,yellow,flipped triangle
2.0,1,2.0,2.0,417.70195961,2.0,part_1,,,,,,,,,,,,,yellow,flipped triangle
1.0,0,4.0,4.0,617.95091629,2.0,part_1,,,,,,,,,,,,,blue,cross
0.5,0,2.0,2.0,434.43608284000004,2.0,part_1,,,,,,,,,,,,,white,diamond
0.5,1,4.0,4.0,567.671060562,2.0,part_1,,,,,,,,,,,,,gray,hexagon
1.0,1,3.0,3.0,467.436075211,2.0,part_1,,,,,,,,,,,,,green,triangle
4.0,1,1.0,1.0,334.73110199,2.0,part_1,,,,,,,,,,,,,magenta,square
4.0,1,2.0,2.0,334.357976913,2.0,part_1,,,,,,,,,,,,,magenta,square
2.0,0,1.0,1.0,484.36594009400005,2.0,part_1,,,,,,,,,,,,,cyan,circle
1.0,0,2.0,2.0,434.468984604,2.0,part_1,,,,,,,,,,,,,blue,cross
2.0,0,4.0,4.0,384.25993919399997,2.0,part_1,,,,,,,,,,,,,cyan,circle
1.0,1,1.0,1.0,417.778015137,2.0,part_1,,,,,,,,,,,,,green,triangle
1.0,1,2.0,2.0,451.090097427,2.0,part_1,,,,,,,,,,,,,green,triangle
2.0,0,3.0,3.0,400.88987350499997,2.0,part_1,,,,,,,,,,,,,cyan,circle
2.0,0,2.0,2.0,351.037979126,2.0,part_1,,,,,,,,,,,,,cyan,circle
1.0,0,2.0,2.0,484.184980392,2.0,part_1,,,,,,,,,,,,,blue,cross
1.0,1,2.0,2.0,384.24992561299996,2.0,part_1,,,,,,,,,,,,,green,triangle
1.0,1,3.0,3.0,417.605876923,2.0,part_1,,,,,,,,,,,,,green,triangle
1.0,0,3.0,3.0,451.144933701,2.0,part_1,,,,,,,,,,,,,blue,cross
1.0,1,4.0,4.0,534.9929332730001,2.0,part_1,,,,,,,,,,,,,green,triangle
2.0,1,1.0,1.0,400.695085526,2.0,part_1,,,,,,,,,,,,,yellow,flipped triangle
1.0,1,4.0,4.0,417.449951172,2.0,part_1,,,,,,,,,,,,,green,triangle
2.0,0,3.0,3.0,434.085130692,2.0,part_1,,,,,,,,,,,,,cyan,circle
1.0,0,4.0,4.0,434.302091599,2.0,part_1,,,,,,,,,,,,,blue,cross
0.5,1,3.0,3.0,468.103170395,2.0,part_1,,,,,,,,,,,,,gray,hexagon
2.0,1,3.0,3.0,317.457914352,2.0,part_1,,,,,,,,,,,,,yellow,flipped triangle
4.0,1,2.0,2.0,367.355108261,2.0,part_1,,,,,,,,,,,,,magenta,square
2.0,0,3.0,3.0,367.852926254,2.0,part_1,,,,,,,,,,,,,cyan,circle
1.0,1,3.0,3.0,367.817878723,2.0,part_1,,,,,,,,,,,,,green,triangle
4.0,0,4.0,4.0,468.209981918,2.0,part_1,,,,,,,,,,,,,orange,line
1.0,0,3.0,3.0,351.35602951,2.0,part_1,,,,,,,,,,,,,blue,cross
1.0,0,1.0,1.0,451.075077057,2.0,part_1,,,,,,,,,,,,,blue,cross
1.0,1,4.0,4.0,417.61898994399996,2.0,part_1,,,,,,,,,,,,,green,triangle
4.0,0,1.0,1.0,417.540073395,2.0,part_1,,,,,,,,,,,,,orange,line
2.0,1,3.0,3.0,417.306900024,2.0,part_1,,,,,,,,,,,,,yellow,flipped triangle
1.0,1,2.0,2.0,417.79303550699996,2.0,part_1,,,,,,,,,,,,,green,triangle
0.5,1,1.0,1.0,350.944042206,2.0,part_1,,,,,,,,,,,,,gray,hexagon
4.0,1,4.0,4.0,317.211866379,2.0,part_1,,,,,,,,,,,,,magenta,square
0.5,0,1.0,1.0,384.40084457399996,2.0,part_1,,,,,,,,,,,,,white,diamond
4.0,1,1.0,1.0,350.673913956,2.0,part_1,,,,,,,,,,,,,magenta,square
0.5,1,2.0,2.0,400.53606033299997,2.0,part_1,,,,,,,,,,,,,gray,hexagon
4.0,1,1.0,1.0,417.407035828,2.0,part_1,,,,,,,,,,,,,magenta,square
4.0,0,4.0,4.0,450.643062592,2.0,part_1,,,,,,,,,,,,,orange,line
0.5,1,1.0,1.0,434.544086456,2.0,part_1,,,,,,,,,,,,,gray,hexagon
0.5,1,1.0,1.0,368.241071701,2.0,part_1,,,,,,,,,,,,,gray,hexagon
1.0,1,1.0,1.0,367.435932159,2.0,part_1,,,,,,,,,,,,,green,triangle
2.0,1,4.0,4.0,367.90895462000003,2.0,part_1,,,,,,,,,,,,,yellow,flipped triangle
4.0,0,4.0,4.0,384.546995163,2.0,part_1,,,,,,,,,,,,,orange,line
0.5,0,2.0,2.0,368.00217628499996,2.0,part_1,,,,,,,,,,,,,white,diamond
1.0,0,3.0,3.0,417.490005493,2.0,part_1,,,,,,,,,,,,,blue,cross
0.5,0,4.0,4.0,367.95091629,2.0,part_1,,,,,,,,,,,,,white,diamond
4.0,0,3.0,3.0,417.31214523299997,2.0,part_1,,,,,,,,,,,,,orange,line
4.0,0,4.0,4.0,467.858791351,2.0,part_1,,,,,,,,,,,,,orange,line
2.0,1,1.0,1.0,418.349027634,3.0,part_1,,,,,,,,,,,,,yellow,flipped triangle
2.0,0,3.0,3.0,351.333856583,3.0,part_1,,,,,,,,,,,,,cyan,circle
0.5,1,1.0,1.0,334.319114685,3.0,part_1,,,,,,,,,,,,,gray,hexagon
4.0,0,4.0,4.0,417.82689094499995,3.0,part_1,,,,,,,,,,,,,orange,line
0.5,1,1.0,1.0,384.533882141,3.0,part_1,,,,,,,,,,,,,gray,hexagon
4.0,1,1.0,1.0,351.36198997500003,3.0,part_1,,,,,,,,,,,,,magenta,square
2.0,0,1.0,1.0,350.972890854,3.0,part_1,,,,,,,,,,,,,cyan,circle
0.5,1,1.0,1.0,384.25397872900004,3.0,part_1,,,,,,,,,,,,,gray,hexagon
1.0,1,3.0,3.0,384.422063828,3.0,part_1,,,,,,,,,,,,,green,triangle
4.0,1,4.0,4.0,367.64097213699995,3.0,part_1,,,,,,,,,,,,,magenta,square
1.0,0,2.0,2.0,367.496013641,3.0,part_1,,,,,,,,,,,,,blue,cross
4.0,1,4.0,4.0,334.43808555600003,3.0,part_1,,,,,,,,,,,,,magenta,square
1.0,1,3.0,3.0,350.664138794,3.0,part_1,,,,,,,,,,,,,green,triangle
0.5,1,1.0,1.0,367.195129395,3.0,part_1,,,,,,,,,,,,,gray,hexagon
1.0,0,4.0,4.0,400.96306800800005,3.0,part_1,,,,,,,,,,,,,blue,cross
2.0,0,1.0,1.0,368.10493469200003,3.0,part_1,,,,,,,,,,,,,cyan,circle
4.0,1,1.0,1.0,334.137916565,3.0,part_1,,,,,,,,,,,,,magenta,square
2.0,1,3.0,3.0,417.54198074299995,3.0,part_1,,,,,,,,,,,,,yellow,flipped triangle
1.0,0,4.0,4.0,334.290981293,3.0,part_1,,,,,,,,,,,,,blue,cross
4.0,0,1.0,1.0,367.804050446,3.0,part_1,,,,,,,,,,,,,orange,line
2.0,1,4.0,4.0,334.743022919,3.0,part_1,,,,,,,,,,,,,yellow,flipped triangle
2.0,1,4.0,4.0,401.005983353,3.0,part_1,,,,,,,,,,,,,yellow,flipped triangle
4.0,1,1.0,1.0,384.110927582,3.0,part_1,,,,,,,,,,,,,magenta,square
4.0,1,3.0,3.0,333.751916885,3.0,part_1,,,,,,,,,,,,,magenta,square
0.5,1,1.0,1.0,351.25708579999997,3.0,part_1,,,,,,,,,,,,,gray,hexagon
4.0,0,3.0,3.0,367.818832397,3.0,part_1,,,,,,,,,,,,,orange,line
4.0,0,4.0,4.0,401.14402771000005,3.0,part_1,,,,,,,,,,,,,orange,line
2.0,0,3.0,3.0,351.246118546,3.0,part_1,,,,,,,,,,,,,cyan,circle
0.5,0,4.0,4.0,350.82602500900003,3.0,part_1,,,,,,,,,,,,,white,diamond
1.0,1,1.0,1.0,334.15007591200003,3.0,part_1,,,,,,,,,,,,,green,triangle
0.5,0,4.0,4.0,351.066112518,3.0,part_1,,,,,,,,,,,,,white,diamond
0.5,0,4.0,4.0,334.25593376200004,3.0,part_1,,,,,,,,,,,,,white,diamond
0.5,0,3.0,3.0,351.269006729,3.0,part_1,,,,,,,,,,,,,white,diamond
1.0,1,4.0,4.0,400.777101517,3.0,part_1,,,,,,,,,,,,,green,triangle
1.0,0,2.0,2.0,334.174156189,3.0,part_1,,,,,,,,,,,,,blue,cross
0.5,0,3.0,3.0,367.365121841,3.0,part_1,,,,,,,,,,,,,white,diamond
1.0,0,3.0,3.0,367.331027985,3.0,part_1,,,,,,,,,,,,,blue,cross
2.0,0,2.0,2.0,384.356021881,3.0,part_1,,,,,,,,,,,,,cyan,circle
0.5,0,4.0,4.0,384.08803939800003,3.0,part_1,,,,,,,,,,,,,white,diamond
0.5,1,1.0,1.0,367.176055908,3.0,part_1,,,,,,,,,,,,,gray,hexagon
1.0,1,2.0,2.0,551.326990128,3.0,part_1,,,,,,,,,,,,,green,triangle
4.0,1,1.0,1.0,368.001937866,3.0,part_1,,,,,,,,,,,,,magenta,square
4.0,1,3.0,3.0,400.62212944,3.0,part_1,,,,,,,,,,,,,magenta,square
1.0,0,2.0,2.0,367.525815964,3.0,part_1,,,,,,,,,,,,,blue,cross
4.0,0,3.0,3.0,350.610017776,3.0,part_1,,,,,,,,,,,,,orange,line
2.0,0,4.0,4.0,350.917100906,3.0,part_1,,,,,,,,,,,,,cyan,circle
4.0,0,3.0,3.0,350.723981857,3.0,part_1,,,,,,,,,,,,,orange,line
1.0,1,2.0,2.0,384.145021439,3.0,part_1,,,,,,,,,,,,,green,triangle
4.0,1,2.0,2.0,451.008796692,3.0,part_1,,,,,,,,,,,,,magenta,square
0.5,1,2.0,2.0,384.074926376,3.0,part_1,,,,,,,,,,,,,gray,hexagon
4.0,0,2.0,2.0,367.8150177,3.0,part_1,,,,,,,,,,,,,orange,line
2.0,0,1.0,1.0,350.87800025900003,3.0,part_1,,,,,,,,,,,,,cyan,circle
1.0,0,2.0,2.0,400.687932968,3.0,part_1,,,,,,,,,,,,,blue,cross
4.0,0,4.0,4.0,451.001882553,3.0,part_1,,,,,,,,,,,,,orange,line
2.0,1,3.0,3.0,334.2628479,3.0,part_1,,,,,,,,,,,,,yellow,flipped triangle
0.5,0,2.0,2.0,451.346874237,3.0,part_1,,,,,,,,,,,,,white,diamond
1.0,0,3.0,3.0,350.679159164,3.0,part_1,,,,,,,,,,,,,blue,cross
2.0,1,3.0,3.0,383.765935898,3.0,part_1,,,,,,,,,,,,,yellow,flipped triangle
4.0,1,1.0,1.0,400.985002518,3.0,part_1,,,,,,,,,,,,,magenta,square
4.0,0,3.0,3.0,400.93803405799997,3.0,part_1,,,,,,,,,,,,,orange,line
0.5,1,3.0,3.0,550.8320331570001,3.0,part_1,,,,,,,,,,,,,gray,hexagon
2.0,0,1.0,1.0,434.18097496,3.0,part_1,,,,,,,,,,,,,cyan,circle
0.5,1,4.0,4.0,484.085083008,3.0,part_1,,,,,,,,,,,,,gray,hexagon
2.0,1,1.0,1.0,400.832891464,3.0,part_1,,,,,,,,,,,,,yellow,flipped triangle
2.0,1,2.0,2.0,367.36702919000004,3.0,part_1,,,,,,,,,,,,,yellow,flipped triangle
2.0,0,2.0,2.0,367.67292022699996,3.0,part_1,,,,,,,,,,,,,cyan,circle
2.0,1,1.0,1.0,334.46288108799996,3.0,part_1,,,,,,,,,,,,,yellow,flipped triangle
2.0,0,4.0,4.0,517.8928375239999,3.0,part_1,,,,,,,,,,,,,cyan,circle
1.0,1,2.0,2.0,450.850009918,3.0,part_1,,,,,,,,,,,,,green,triangle
4.0,0,3.0,3.0,417.73796081499995,3.0,part_1,,,,,,,,,,,,,orange,line
4.0,1,4.0,4.0,500.85210800199997,3.0,part_1,,,,,,,,,,,,,magenta,square
1.0,0,3.0,3.0,517.660856247,3.0,part_1,,,,,,,,,,,,,blue,cross
2.0,1,4.0,4.0,400.683879852,3.0,part_1,,,,,,,,,,,,,yellow,flipped triangle
1.0,1,3.0,3.0,400.700092316,3.0,part_1,,,,,,,,,,,,,green,triangle
0.5,0,2.0,2.0,417.388916016,3.0,part_1,,,,,,,,,,,,,white,diamond
1.0,1,4.0,4.0,367.59614944500004,3.0,part_1,,,,,,,,,,,,,green,triangle
4.0,1,2.0,2.0,434.025764465,3.0,part_1,,,,,,,,,,,,,magenta,square
4.0,1,2.0,2.0,368.01600456200003,3.0,part_1,,,,,,,,,,,,,magenta,square
0.5,1,4.0,4.0,451.168060303,3.0,part_1,,,,,,,,,,,,,gray,hexagon
4.0,1,4.0,4.0,434.293985367,3.0,part_1,,,,,,,,,,,,,magenta,square
0.5,1,1.0,1.0,484.791994095,3.0,part_1,,,,,,,,,,,,,gray,hexagon
0.5,1,2.0,2.0,517.838001251,3.0,part_1,,,,,,,,,,,,,gray,hexagon
0.5,0,3.0,3.0,434.34405326800004,3.0,part_1,,,,,,,,,,,,,white,diamond
2.0,0,3.0,3.0,450.834035873,3.0,part_1,,,,,,,,,,,,,cyan,circle
0.5,1,4.0,4.0,517.549037933,3.0,part_1,,,,,,,,,,,,,gray,hexagon
2.0,0,1.0,1.0,467.478990555,3.0,part_1,,,,,,,,,,,,,cyan,circle
4.0,1,1.0,1.0,467.87405014,3.0,part_1,,,,,,,,,,,,,magenta,square
4.0,0,2.0,2.0,417.540073395,3.0,part_1,,,,,,,,,,,,,orange,line
2.0,0,2.0,2.0,451.020002365,3.0,part_1,,,,,,,,,,,,,cyan,circle
2.0,1,4.0,4.0,417.84119605999996,3.0,part_1,,,,,,,,,,,,,yellow,flipped triangle
0.5,0,2.0,2.0,401.427984238,3.0,part_1,,,,,,,,,,,,,white,diamond
1.0,1,1.0,1.0,400.780916214,3.0,part_1,,,,,,,,,,,,,green,triangle
0.5,1,3.0,3.0,400.94017982500003,3.0,part_1,,,,,,,,,,,,,gray,hexagon
4.0,0,1.0,1.0,434.355974197,3.0,part_1,,,,,,,,,,,,,orange,line
2.0,0,4.0,4.0,401.438951492,3.0,part_1,,,,,,,,,,,,,cyan,circle
1.0,1,2.0,2.0,417.51217842100004,3.0,part_1,,,,,,,,,,,,,green,triangle
4.0,1,2.0,2.0,450.82783699,3.0,part_1,,,,,,,,,,,,,magenta,square
4.0,1,2.0,2.0,401.010036469,3.0,part_1,,,,,,,,,,,,,magenta,square
2.0,1,2.0,2.0,450.841903687,3.0,part_1,,,,,,,,,,,,,yellow,flipped triangle
4.0,0,3.0,3.0,401.165008545,3.0,part_1,,,,,,,,,,,,,orange,line
0.5,1,1.0,1.0,434.376955032,4.0,part_1,,,,,,,,,,,,,gray,hexagon
0.5,1,1.0,1.0,334.118127823,4.0,part_1,,,,,,,,,,,,,gray,hexagon
4.0,1,2.0,2.0,367.44809150699996,4.0,part_1,,,,,,,,,,,,,magenta,square
0.5,1,1.0,1.0,367.501974106,4.0,part_1,,,,,,,,,,,,,gray,hexagon
4.0,0,2.0,2.0,400.859117508,4.0,part_1,,,,,,,,,,,,,orange,line
4.0,0,1.0,1.0,434.731006622,4.0,part_1,,,,,,,,,,,,,orange,line
1.0,0,4.0,4.0,401.08895301800004,4.0,part_1,,,,,,,,,,,,,blue,cross
1.0,1,3.0,3.0,367.712020874,4.0,part_1,,,,,,,,,,,,,green,triangle
2.0,0,2.0,2.0,384.155035019,4.0,part_1,,,,,,,,,,,,,cyan,circle
2.0,1,1.0,1.0,384.715795517,4.0,part_1,,,,,,,,,,,,,yellow,flipped triangle
2.0,1,4.0,4.0,367.347002029,4.0,part_1,,,,,,,,,,,,,yellow,flipped triangle
4.0,1,2.0,2.0,450.84810257000004,4.0,part_1,,,,,,,,,,,,,magenta,square
4.0,1,4.0,4.0,383.96191597,4.0,part_1,,,,,,,,,,,,,magenta,square
1.0,1,1.0,1.0,367.486953735,4.0,part_1,,,,,,,,,,,,,green,triangle
4.0,1,2.0,2.0,367.140054703,4.0,part_1,,,,,,,,,,,,,magenta,square
2.0,1,3.0,3.0,417.461156845,4.0,part_1,,,,,,,,,,,,,yellow,flipped triangle
0.5,1,4.0,4.0,384.15288925199997,4.0,part_1,,,,,,,,,,,,,gray,hexagon
1.0,0,3.0,3.0,384.50503349300004,4.0,part_1,,,,,,,,,,,,,blue,cross
1.0,1,3.0,3.0,384.312868118,4.0,part_1,,,,,,,,,,,,,green,triangle
0.5,1,3.0,3.0,417.699098587,4.0,part_1,,,,,,,,,,,,,gray,hexagon
4.0,0,1.0,1.0,383.95190239,4.0,part_1,,,,,,,,,,,,,orange,line
0.5,0,3.0,3.0,400.485992432,4.0,part_1,,,,,,,,,,,,,white,diamond
2.0,1,2.0,2.0,434.293985367,4.0,part_1,,,,,,,,,,,,,yellow,flipped triangle
4.0,1,2.0,2.0,484.169006348,4.0,part_1,,,,,,,,,,,,,magenta,square
1.0,1,3.0,3.0,367.74682998699996,4.0,part_1,,,,,,,,,,,,,green,triangle
0.5,0,1.0,1.0,350.49200058,4.0,part_1,,,,,,,,,,,,,white,diamond
2.0,1,4.0,4.0,367.65503883400004,4.0,part_1,,,,,,,,,,,,,yellow,flipped triangle
0.5,0,1.0,1.0,450.56009292600004,4.0,part_1,,,,,,,,,,,,,white,diamond
2.0,1,2.0,2.0,367.782115936,4.0,part_1,,,,,,,,,,,,,yellow,flipped triangle
4.0,1,3.0,3.0,334.846019745,4.0,part_1,,,,,,,,,,,,,magenta,square
1.0,0,2.0,2.0,467.562913895,4.0,part_1,,,,,,,,,,,,,blue,cross
1.0,1,4.0,4.0,367.02704429600004,4.0,part_1,,,,,,,,,,,,,green,triangle
0.5,1,2.0,2.0,334.604978561,4.0,part_1,,,,,,,,,,,,,gray,hexagon
4.0,1,1.0,1.0,417.378902435,4.0,part_1,,,,,,,,,,,,,magenta,square
0.5,0,4.0,4.0,400.850057602,4.0,part_1,,,,,,,,,,,,,white,diamond
0.5,0,2.0,2.0,334.631919861,4.0,part_1,,,,,,,,,,,,,white,diamond
0.5,1,4.0,4.0,400.871038437,4.0,part_1,,,,,,,,,,,,,gray,hexagon
4.0,1,1.0,1.0,351.293087006,4.0,part_1,,,,,,,,,,,,,magenta,square
4.0,0,4.0,4.0,434.381961823,4.0,part_1,,,,,,,,,,,,,orange,line
2.0,0,2.0,2.0,350.605010986,4.0,part_1,,,,,,,,,,,,,cyan,circle
4.0,0,3.0,3.0,350.831985474,4.0,part_1,,,,,,,,,,,,,orange,line
0.5,1,4.0,4.0,433.72106552099996,4.0,part_1,,,,,,,,,,,,,gray,hexagon
4.0,1,1.0,1.0,384.130001068,4.0,part_1,,,,,,,,,,,,,magenta,square
4.0,0,3.0,3.0,400.918006897,4.0,part_1,,,,,,,,,,,,,orange,line
4.0,0,3.0,3.0,384.301900864,4.0,part_1,,,,,,,,,,,,,orange,line
1.0,1,2.0,2.0,417.373895645,4.0,part_1,,,,,,,,,,,,,green,triangle
1.0,0,4.0,4.0,367.750883102,4.0,part_1,,,,,,,,,,,,,blue,cross
0.5,0,3.0,3.0,367.70009994500003,4.0,part_1,,,,,,,,,,,,,white,diamond
0.5,0,2.0,2.0,333.98294448900003,4.0,part_1,,,,,,,,,,,,,white,diamond
1.0,0,1.0,1.0,417.396068573,4.0,part_1,,,,,,,,,,,,,blue,cross
4.0,0,3.0,3.0,384.258985519,4.0,part_1,,,,,,,,,,,,,orange,line
2.0,1,4.0,4.0,351.097822189,4.0,part_1,,,,,,,,,,,,,yellow,flipped triangle
1.0,0,2.0,2.0,333.98604393,4.0,part_1,,,,,,,,,,,,,blue,cross
0.5,0,3.0,3.0,400.892019272,4.0,part_1,,,,,,,,,,,,,white,diamond
1.0,0,4.0,4.0,400.865077972,4.0,part_1,,,,,,,,,,,,,blue,cross
2.0,0,3.0,3.0,368.088960648,4.0,part_1,,,,,,,,,,,,,cyan,circle
0.5,0,1.0,1.0,367.999076843,4.0,part_1,,,,,,,,,,,,,white,diamond
2.0,0,1.0,1.0,517.9080963130001,4.0,part_1,,,,,,,,,,,,,cyan,circle
4.0,1,3.0,3.0,384.27519798300006,4.0,part_1,,,,,,,,,,,,,magenta,square
4.0,0,4.0,4.0,400.665998459,4.0,part_1,,,,,,,,,,,,,orange,line
1.0,1,1.0,1.0,417.593955994,4.0,part_1,,,,,,,,,,,,,green,triangle
1.0,0,2.0,2.0,367.46096611,4.0,part_1,,,,,,,,,,,,,blue,cross
0.5,0,4.0,4.0,384.52005386400003,4.0,part_1,,,,,,,,,,,,,white,diamond
1.0,0,4.0,4.0,401.153087616,4.0,part_1,,,,,,,,,,,,,blue,cross
1.0,1,4.0,4.0,333.950996399,4.0,part_1,,,,,,,,,,,,,green,triangle
0.5,1,1.0,1.0,366.97196960400004,4.0,part_1,,,,,,,,,,,,,gray,hexagon
0.5,1,1.0,1.0,417.891025543,4.0,part_1,,,,,,,,,,,,,gray,hexagon
0.5,0,2.0,2.0,368.015050888,4.0,part_1,,,,,,,,,,,,,white,diamond
4.0,0,4.0,4.0,384.161949158,4.0,part_1,,,,,,,,,,,,,orange,line
2.0,1,4.0,4.0,433.88915062,4.0,part_1,,,,,,,,,,,,,yellow,flipped triangle
4.0,0,1.0,1.0,384.037971497,4.0,part_1,,,,,,,,,,,,,orange,line
1.0,0,3.0,3.0,467.492818832,4.0,part_1,,,,,,,,,,,,,blue,cross
2.0,0,4.0,4.0,300.930976868,4.0,part_1,,,,,,,,,,,,,cyan,circle
0.5,1,2.0,2.0,367.70009994500003,4.0,part_1,,,,,,,,,,,,,gray,hexagon
2.0,1,2.0,2.0,417.365074158,4.0,part_1,,,,,,,,,,,,,yellow,flipped triangle
0.5,0,4.0,4.0,384.16099548299997,4.0,part_1,,,,,,,,,,,,,white,diamond
0.5,1,1.0,1.0,367.961168289,4.0,part_1,,,,,,,,,,,,,gray,hexagon
2.0,1,3.0,3.0,350.99697113,4.0,part_1,,,,,,,,,,,,,yellow,flipped triangle
1.0,0,2.0,2.0,383.96596908600003,4.0,part_1,,,,,,,,,,,,,blue,cross
1.0,0,2.0,2.0,384.226083755,4.0,part_1,,,,,,,,,,,,,blue,cross
1.0,0,2.0,2.0,367.921829224,4.0,part_1,,,,,,,,,,,,,blue,cross
4.0,0,4.0,4.0,384.27710533100003,4.0,part_1,,,,,,,,,,,,,orange,line
2.0,0,1.0,1.0,351.305961609,4.0,part_1,,,,,,,,,,,,,cyan,circle
2.0,0,4.0,4.0,350.370883942,4.0,part_1,,,,,,,,,,,,,cyan,circle
0.5,0,3.0,3.0,367.56205558799996,4.0,part_1,,,,,,,,,,,,,white,diamond
0.5,0,4.0,4.0,334.30099487300004,4.0,part_1,,,,,,,,,,,,,white,diamond
0.5,0,3.0,3.0,350.849866867,4.0,part_1,,,,,,,,,,,,,white,diamond
1.0,0,3.0,3.0,400.94494819600004,4.0,part_1,,,,,,,,,,,,,blue,cross
0.5,1,3.0,3.0,384.512901306,4.0,part_1,,,,,,,,,,,,,gray,hexagon
4.0,1,1.0,1.0,351.450920105,4.0,part_1,,,,,,,,,,,,,magenta,square
4.0,0,3.0,3.0,333.943128586,4.0,part_1,,,,,,,,,,,,,orange,line
2.0,1,2.0,2.0,384.293079376,4.0,part_1,,,,,,,,,,,,,yellow,flipped triangle
0.5,0,4.0,4.0,350.792884827,4.0,part_1,,,,,,,,,,,,,white,diamond
1.0,0,1.0,1.0,501.64699554400005,4.0,part_1,,,,,,,,,,,,,blue,cross
4.0,0,2.0,2.0,484.544038773,4.0,part_1,,,,,,,,,,,,,orange,line
4.0,0,3.0,3.0,417.392015457,4.0,part_1,,,,,,,,,,,,,orange,line
2.0,1,1.0,1.0,417.469024658,4.0,part_1,,,,,,,,,,,,,yellow,flipped triangle
0.5,0,2.0,2.0,384.65619087199997,4.0,part_1,,,,,,,,,,,,,white,diamond
2.0,0,1.0,1.0,434.36908721900005,4.0,part_1,,,,,,,,,,,,,cyan,circle
0.5,1,3.0,3.0,450.716018677,4.0,part_1,,,,,,,,,,,,,gray,hexagon
1.0,0,6.0,6.0,534.216880798,1.0,part_2,go,250.0,250.0,1.0,,,,,,,,,blue,cross
1.0,1,6.0,,,1.0,,stop,250.0,250.0,4.0,,,,,,,,,green,triangle
2.0,1,5.0,5.0,384.196043015,1.0,part_2,stop,250.0,250.0,3.0,,,,,,,,,yellow,flipped triangle
4.0,1,5.0,,,1.0,,stop,200.0,250.0,4.0,,,,,,,,,magenta,square
2.0,1,5.0,,,1.0,,stop,250.0,250.0,4.0,,,,,,,,,yellow,flipped triangle
0.5,0,6.0,6.0,634.8528862000001,1.0,part_2,go,250.0,250.0,1.0,,,,,,,,,white,diamond
1.0,1,5.0,,,1.0,,stop,300.0,250.0,4.0,,,,,,,,,green,triangle
0.5,1,6.0,,,1.0,,stop,300.0,300.0,4.0,,,,,,,,,gray,hexagon
4.0,1,5.0,,,1.0,,stop,350.0,300.0,4.0,,,,,,,,,magenta,square
4.0,0,5.0,5.0,600.9900569920001,1.0,part_2,go,350.0,300.0,1.0,,,,,,,,,orange,line
1.0,1,6.0,,,1.0,,stop,350.0,350.0,4.0,,,,,,,,,green,triangle
1.0,1,6.0,,,1.0,,stop,350.0,400.0,4.0,,,,,,,,,green,triangle
4.0,0,6.0,6.0,550.8599281310001,1.0,part_2,go,350.0,400.0,1.0,,,,,,,,,orange,line
0.5,0,6.0,6.0,651.57699585,1.0,part_2,go,350.0,400.0,1.0,,,,,,,,,white,diamond
2.0,1,5.0,5.0,617.59018898,1.0,part_2,go,350.0,400.0,1.0,,,,,,,,,yellow,flipped triangle
2.0,1,5.0,5.0,551.111936569,1.0,part_2,stop,400.0,400.0,3.0,,,,,,,,,yellow,flipped triangle
4.0,1,5.0,,,1.0,,stop,350.0,400.0,4.0,,,,,,,,,magenta,square
1.0,1,5.0,5.0,684.607028961,1.0,part_2,go,350.0,400.0,1.0,,,,,,,,,green,triangle
2.0,0,5.0,5.0,684.6799850460001,1.0,part_2,go,350.0,400.0,1.0,,,,,,,,,cyan,circle
4.0,1,6.0,,,1.0,,stop,350.0,450.0,4.0,,,,,,,,,magenta,square
0.5,0,6.0,6.0,801.4209270480001,1.0,part_2,go,350.0,450.0,1.0,,,,,,,,,white,diamond
0.5,0,6.0,6.0,734.495162964,1.0,part_2,go,350.0,450.0,1.0,,,,,,,,,white,diamond
2.0,1,5.0,,,1.0,,stop,400.0,450.0,4.0,,,,,,,,,yellow,flipped triangle
1.0,0,6.0,6.0,767.7500247959999,1.0,part_2,go,400.0,450.0,1.0,,,,,,,,,blue,cross
4.0,1,5.0,,,1.0,,stop,450.0,450.0,4.0,,,,,,,,,magenta,square
0.5,1,5.0,5.0,467.45085716200003,1.0,part_2,stop,500.0,450.0,3.0,,,,,,,,,gray,hexagon
4.0,0,6.0,6.0,717.675924301,1.0,part_2,go,500.0,450.0,1.0,,,,,,,,,orange,line
1.0,1,6.0,,,1.0,,stop,500.0,500.0,4.0,,,,,,,,,green,triangle
0.5,0,5.0,5.0,701.699018478,1.0,part_2,go,500.0,500.0,1.0,,,,,,,,,white,diamond
4.0,1,6.0,,,1.0,,stop,500.0,550.0,4.0,,,,,,,,,magenta,square
0.5,0,6.0,6.0,801.804065704,1.0,part_2,go,500.0,550.0,1.0,,,,,,,,,white,diamond
2.0,0,5.0,5.0,751.2979507450001,1.0,part_2,go,500.0,550.0,1.0,,,,,,,,,cyan,circle
0.5,0,6.0,6.0,751.214027405,1.0,part_2,go,500.0,550.0,1.0,,,,,,,,,white,diamond
0.5,1,5.0,,,1.0,,stop,450.0,550.0,4.0,,,,,,,,,gray,hexagon
4.0,1,6.0,6.0,601.619958878,1.0,part_2,stop,450.0,600.0,3.0,,,,,,,,,magenta,square
2.0,0,5.0,5.0,817.875146866,1.0,part_2,go,450.0,600.0,1.0,,,,,,,,,cyan,circle
1.0,1,5.0,5.0,501.888036728,2.0,part_2,stop,500.0,600.0,3.0,,,,,,,,,green,triangle
4.0,1,6.0,6.0,568.15290451,2.0,part_2,stop,500.0,550.0,3.0,,,,,,,,,magenta,square
0.5,0,5.0,5.0,635.127067566,2.0,part_2,go,500.0,550.0,1.0,,,,,,,,,white,diamond
0.5,1,6.0,6.0,467.278957367,2.0,part_2,stop,500.0,500.0,3.0,,,,,,,,,gray,hexagon
0.5,1,6.0,6.0,684.551000595,2.0,part_2,go,500.0,500.0,1.0,,,,,,,,,gray,hexagon
2.0,0,5.0,5.0,534.43813324,2.0,part_2,go,500.0,500.0,1.0,,,,,,,,,cyan,circle
1.0,1,5.0,5.0,584.315061569,2.0,part_2,go,500.0,500.0,1.0,,,,,,,,,green,triangle
1.0,0,5.0,5.0,600.690841675,2.0,part_2,go,500.0,500.0,1.0,,,,,,,,,blue,cross
1.0,0,5.0,5.0,567.75188446,2.0,part_2,go,500.0,500.0,1.0,,,,,,,,,blue,cross
2.0,0,5.0,5.0,750.9279251099999,2.0,part_2,go,500.0,500.0,1.0,,,,,,,,,cyan,circle
1.0,1,6.0,,,2.0,,stop,500.0,450.0,4.0,,,,,,,,,green,triangle
0.5,0,6.0,6.0,651.0231494899999,2.0,part_2,go,500.0,450.0,1.0,,,,,,,,,white,diamond
0.5,1,6.0,6.0,617.79999733,2.0,part_2,stop,500.0,500.0,3.0,,,,,,,,,gray,hexagon
0.5,1,6.0,,,2.0,,stop,500.0,450.0,4.0,,,,,,,,,gray,hexagon
2.0,1,5.0,5.0,517.471075058,2.0,part_2,stop,450.0,450.0,3.0,,,,,,,,,yellow,flipped triangle
2.0,1,5.0,5.0,517.091989517,2.0,part_2,stop,400.0,450.0,3.0,,,,,,,,,yellow,flipped triangle
0.5,0,6.0,6.0,735.4991436,2.0,part_2,go,400.0,450.0,1.0,,,,,,,,,white,diamond
4.0,0,6.0,6.0,651.2379646300001,2.0,part_2,go,400.0,450.0,1.0,,,,,,,,,orange,line
4.0,1,5.0,,,2.0,,stop,350.0,450.0,4.0,,,,,,,,,magenta,square
0.5,0,6.0,6.0,568.1359767910001,2.0,part_2,go,350.0,450.0,1.0,,,,,,,,,white,diamond
1.0,1,5.0,,,2.0,,stop,400.0,450.0,4.0,,,,,,,,,green,triangle
4.0,1,5.0,,,2.0,,stop,450.0,450.0,4.0,,,,,,,,,magenta,square
0.5,1,5.0,,,2.0,,stop,500.0,450.0,4.0,,,,,,,,,gray,hexagon
4.0,0,5.0,5.0,600.93998909,2.0,part_2,go,500.0,450.0,1.0,,,,,,,,,orange,line
1.0,1,6.0,6.0,534.226894379,2.0,part_2,stop,500.0,500.0,3.0,,,,,,,,,green,triangle
4.0,0,5.0,5.0,601.29904747,2.0,part_2,go,500.0,500.0,1.0,,,,,,,,,orange,line
2.0,1,6.0,,,2.0,,stop,500.0,450.0,4.0,,,,,,,,,yellow,flipped triangle
4.0,0,6.0,6.0,701.020956039,2.0,part_2,go,500.0,450.0,1.0,,,,,,,,,orange,line
1.0,0,6.0,6.0,718.246936798,2.0,part_2,go,500.0,450.0,1.0,,,,,,,,,blue,cross
4.0,1,5.0,,,2.0,,stop,550.0,450.0,4.0,,,,,,,,,magenta,square
4.0,1,6.0,,,2.0,,stop,550.0,500.0,4.0,,,,,,,,,magenta,square
1.0,0,6.0,6.0,500.993967056,2.0,part_2,go,550.0,500.0,1.0,,,,,,,,,blue,cross
0.5,1,5.0,,,2.0,,stop,600.0,500.0,4.0,,,,,,,,,gray,hexagon
1.0,1,5.0,5.0,684.3729019169999,2.0,part_2,go,600.0,500.0,1.0,,,,,,,,,green,triangle
4.0,0,6.0,6.0,484.081983566,2.0,part_2,go,600.0,500.0,1.0,,,,,,,,,orange,line
0.5,0,6.0,6.0,617.656946182,2.0,part_2,go,600.0,500.0,1.0,,,,,,,,,white,diamond
2.0,0,6.0,6.0,535.041093826,3.0,part_2,go,600.0,500.0,1.0,,,,,,,,,cyan,circle
0.5,0,6.0,6.0,351.18103027300003,3.0,part_2,go,600.0,500.0,1.0,,,,,,,,,white,diamond
0.5,1,5.0,5.0,768.131971359,3.0,part_2,stop,650.0,500.0,3.0,,,,,,,,,gray,hexagon
0.5,0,5.0,5.0,751.106977463,3.0,part_2,go,650.0,500.0,1.0,,,,,,,,,white,diamond
1.0,1,6.0,,,3.0,,stop,650.0,550.0,4.0,,,,,,,,,green,triangle
4.0,1,6.0,6.0,601.1741161350001,3.0,part_2,stop,650.0,600.0,3.0,,,,,,,,,magenta,square
4.0,1,6.0,6.0,701.411008835,3.0,part_2,stop,650.0,550.0,3.0,,,,,,,,,magenta,square
4.0,0,6.0,6.0,617.8228855130001,3.0,part_2,go,650.0,550.0,1.0,,,,,,,,,orange,line
1.0,1,5.0,5.0,667.762994766,3.0,part_2,stop,600.0,550.0,3.0,,,,,,,,,green,triangle
1.0,1,6.0,6.0,617.424964905,3.0,part_2,stop,600.0,500.0,3.0,,,,,,,,,green,triangle
4.0,0,5.0,5.0,600.842952728,3.0,part_2,go,600.0,500.0,1.0,,,,,,,,,orange,line
0.5,0,6.0,6.0,784.302949905,3.0,part_2,go,600.0,500.0,1.0,,,,,,,,,white,diamond
1.0,1,5.0,5.0,700.9680271149999,3.0,part_2,stop,550.0,500.0,3.0,,,,,,,,,green,triangle
2.0,0,6.0,6.0,550.9028434749999,3.0,part_2,go,550.0,500.0,1.0,,,,,,,,,cyan,circle
2.0,1,6.0,6.0,334.327936172,3.0,part_2,go,550.0,500.0,1.0,,,,,,,,,yellow,flipped triangle
2.0,0,6.0,6.0,784.7211360929999,3.0,part_2,go,550.0,500.0,1.0,,,,,,,,,cyan,circle
2.0,1,5.0,5.0,768.501996994,3.0,part_2,go,550.0,500.0,1.0,,,,,,,,,yellow,flipped triangle
1.0,0,6.0,6.0,518.028020859,3.0,part_2,go,550.0,500.0,1.0,,,,,,,,,blue,cross
2.0,1,5.0,5.0,417.51408577,3.0,part_2,stop,500.0,500.0,3.0,,,,,,,,,yellow,flipped triangle
4.0,0,5.0,5.0,751.30200386,3.0,part_2,go,500.0,500.0,1.0,,,,,,,,,orange,line
2.0,0,5.0,5.0,717.746019363,3.0,part_2,go,500.0,500.0,1.0,,,,,,,,,cyan,circle
1.0,1,6.0,,,3.0,,stop,500.0,450.0,4.0,,,,,,,,,green,triangle
2.0,1,5.0,5.0,551.08499527,3.0,part_2,stop,450.0,450.0,3.0,,,,,,,,,yellow,flipped triangle
1.0,0,6.0,6.0,584.3958854680001,3.0,part_2,go,450.0,450.0,1.0,,,,,,,,,blue,cross
0.5,1,6.0,,,3.0,,stop,450.0,500.0,4.0,,,,,,,,,gray,hexagon
2.0,1,5.0,5.0,384.21583175700005,3.0,part_2,go,450.0,500.0,1.0,,,,,,,,,yellow,flipped triangle
2.0,1,6.0,6.0,400.673866272,3.0,part_2,stop,450.0,550.0,3.0,,,,,,,,,yellow,flipped triangle
0.5,1,5.0,,,3.0,,stop,400.0,550.0,4.0,,,,,,,,,gray,hexagon
4.0,0,5.0,5.0,668.035984039,3.0,part_2,go,400.0,550.0,1.0,,,,,,,,,orange,line
4.0,0,5.0,5.0,500.837087631,3.0,part_2,go,400.0,550.0,1.0,,,,,,,,,orange,line
2.0,1,6.0,6.0,601.0661125180001,3.0,part_2,stop,400.0,500.0,3.0,,,,,,,,,yellow,flipped triangle
1.0,1,6.0,6.0,467.293024063,3.0,part_2,stop,400.0,450.0,3.0,,,,,,,,,green,triangle
1.0,0,5.0,5.0,317.462921143,3.0,part_2,go,400.0,450.0,1.0,,,,,,,,,blue,cross
2.0,0,5.0,5.0,667.39988327,3.0,part_2,go,400.0,450.0,1.0,,,,,,,,,cyan,circle
4.0,0,5.0,5.0,701.858997345,3.0,part_2,go,400.0,450.0,1.0,,,,,,,,,orange,line
2.0,1,5.0,,,3.0,,stop,450.0,450.0,4.0,,,,,,,,,yellow,flipped triangle
4.0,1,6.0,,,4.0,,stop,450.0,400.0,4.0,,,,,,,,,magenta,square
1.0,0,6.0,6.0,751.5180110929999,4.0,part_2,go,450.0,400.0,1.0,,,,,,,,,blue,cross
0.5,0,6.0,6.0,684.522867203,4.0,part_2,go,450.0,400.0,1.0,,,,,,,,,white,diamond
4.0,1,5.0,5.0,634.669065475,4.0,part_2,go,450.0,400.0,1.0,,,,,,,,,magenta,square
4.0,0,6.0,6.0,550.765037537,4.0,part_2,go,450.0,400.0,1.0,,,,,,,,,orange,line
1.0,0,5.0,5.0,650.984048843,4.0,part_2,go,450.0,400.0,1.0,,,,,,,,,blue,cross
0.5,1,5.0,5.0,801.373004913,4.0,part_2,go,450.0,400.0,1.0,,,,,,,,,gray,hexagon
2.0,1,5.0,,,4.0,,stop,500.0,400.0,4.0,,,,,,,,,yellow,flipped triangle
0.5,1,6.0,6.0,684.127092361,4.0,part_2,go,500.0,400.0,1.0,,,,,,,,,gray,hexagon
1.0,0,5.0,5.0,534.342050552,4.0,part_2,go,500.0,400.0,1.0,,,,,,,,,blue,cross
1.0,1,5.0,5.0,734.2479228970001,4.0,part_2,go,500.0,400.0,1.0,,,,,,,,,green,triangle
0.5,0,6.0,6.0,617.9971694950001,4.0,part_2,go,500.0,400.0,1.0,,,,,,,,,white,diamond
1.0,1,6.0,,,4.0,,stop,500.0,450.0,4.0,,,,,,,,,green,triangle
4.0,0,5.0,5.0,467.998027802,4.0,part_2,go,500.0,450.0,1.0,,,,,,,,,orange,line
4.0,0,6.0,6.0,667.6619052890001,4.0,part_2,go,500.0,450.0,1.0,,,,,,,,,orange,line
0.5,0,6.0,6.0,701.484918594,4.0,part_2,go,500.0,450.0,1.0,,,,,,,,,white,diamond
2.0,0,5.0,5.0,601.0780334469999,4.0,part_2,go,500.0,450.0,1.0,,,,,,,,,cyan,circle
4.0,1,5.0,,,4.0,,stop,550.0,450.0,4.0,,,,,,,,,magenta,square
1.0,0,6.0,6.0,517.8840160369999,4.0,part_2,go,550.0,450.0,1.0,,,,,,,,,blue,cross
4.0,0,6.0,6.0,567.9860115050001,4.0,part_2,go,550.0,450.0,1.0,,,,,,,,,orange,line
1.0,1,5.0,5.0,568.0718421939999,4.0,part_2,stop,600.0,450.0,3.0,,,,,,,,,green,triangle
4.0,0,5.0,5.0,484.819889069,4.0,part_2,go,600.0,450.0,1.0,,,,,,,,,orange,line
2.0,0,6.0,6.0,601.108074188,4.0,part_2,go,600.0,450.0,1.0,,,,,,,,,cyan,circle
1.0,1,5.0,,,4.0,,stop,550.0,450.0,4.0,,,,,,,,,green,triangle
1.0,0,6.0,6.0,434.600114822,4.0,part_2,go,550.0,450.0,1.0,,,,,,,,,blue,cross
4.0,1,5.0,5.0,501.70397758499996,4.0,part_2,go,550.0,450.0,1.0,,,,,,,,,magenta,square
4.0,0,5.0,5.0,517.28105545,4.0,part_2,go,550.0,450.0,1.0,,,,,,,,,orange,line
4.0,1,5.0,5.0,550.992965698,4.0,part_2,go,550.0,450.0,1.0,,,,,,,,,magenta,square
1.0,1,6.0,,,4.0,,stop,550.0,500.0,4.0,,,,,,,,,green,triangle
0.5,1,5.0,5.0,417.60802269000004,4.0,part_2,go,550.0,500.0,1.0,,,,,,,,,gray,hexagon
1.0,0,6.0,6.0,685.153961182,4.0,part_2,go,550.0,500.0,1.0,,,,,,,,,blue,cross
2.0,0,6.0,6.0,550.9421825410001,4.0,part_2,go,550.0,500.0,1.0,,,,,,,,,cyan,circle
1.0,0,5.0,5.0,601.088047028,4.0,part_2,go,550.0,500.0,1.0,,,,,,,,,blue,cross
0.5,1,6.0,6.0,600.708007812,4.0,part_2,stop,550.0,550.0,3.0,,,,,,,,,gray,hexagon
4.0,1,5.0,5.0,734.811067581,4.0,part_2,stop,600.0,550.0,3.0,,,,,,,,,magenta,square
0.5,1,6.0,,,4.0,,stop,600.0,500.0,4.0,,,,,,,,,gray,hexagon
2.0,0,5.0,5.0,584.369897842,5.0,part_2,go,600.0,500.0,1.0,,,,,,,,,cyan,circle
4.0,1,5.0,5.0,400.967121124,5.0,part_2,stop,550.0,500.0,3.0,,,,,,,,,magenta,square
0.5,1,6.0,6.0,718.379020691,5.0,part_2,stop,550.0,550.0,3.0,,,,,,,,,gray,hexagon
0.5,1,6.0,,,5.0,,stop,550.0,500.0,4.0,,,,,,,,,gray,hexagon
0.5,1,5.0,,,5.0,,stop,500.0,500.0,4.0,,,,,,,,,gray,hexagon
2.0,0,5.0,5.0,817.939043045,5.0,part_2,go,500.0,500.0,1.0,,,,,,,,,cyan,circle
2.0,0,6.0,6.0,367.374897003,5.0,part_2,go,500.0,500.0,1.0,,,,,,,,,cyan,circle
0.5,1,6.0,6.0,484.764099121,5.0,part_2,go,500.0,500.0,1.0,,,,,,,,,gray,hexagon
2.0,0,6.0,6.0,684.792041779,5.0,part_2,go,500.0,500.0,1.0,,,,,,,,,cyan,circle
0.5,1,5.0,5.0,901.339054108,5.0,part_2,go,500.0,500.0,1.0,,,,,,,,,gray,hexagon
1.0,0,6.0,6.0,701.045036316,5.0,part_2,go,500.0,500.0,1.0,,,,,,,,,blue,cross
4.0,1,6.0,6.0,451.08819007899996,5.0,part_2,go,500.0,500.0,1.0,,,,,,,,,magenta,square
2.0,1,5.0,5.0,634.205818176,5.0,part_2,go,500.0,500.0,1.0,,,,,,,,,yellow,flipped triangle
0.5,0,5.0,5.0,817.8768157960001,5.0,part_2,go,500.0,500.0,1.0,,,,,,,,,white,diamond
4.0,1,6.0,6.0,500.99492073100004,5.0,part_2,stop,500.0,550.0,3.0,,,,,,,,,magenta,square
4.0,1,6.0,,,5.0,,stop,500.0,500.0,4.0,,,,,,,,,magenta,square
2.0,0,6.0,6.0,718.229055405,5.0,part_2,go,500.0,500.0,1.0,,,,,,,,,cyan,circle
1.0,0,5.0,5.0,684.6928596500001,5.0,part_2,go,500.0,500.0,1.0,,,,,,,,,blue,cross
2.0,1,6.0,6.0,584.339857101,5.0,part_2,stop,500.0,550.0,3.0,,,,,,,,,yellow,flipped triangle
1.0,0,6.0,6.0,684.187889099,5.0,part_2,go,500.0,550.0,1.0,,,,,,,,,blue,cross
2.0,1,5.0,5.0,734.38000679,5.0,part_2,stop,550.0,550.0,3.0,,,,,,,,,yellow,flipped triangle
0.5,0,5.0,5.0,417.27614402800003,5.0,part_2,go,550.0,550.0,1.0,,,,,,,,,white,diamond
4.0,0,6.0,6.0,584.486961365,5.0,part_2,go,550.0,550.0,1.0,,,,,,,,,orange,line
0.5,1,6.0,,,5.0,,stop,550.0,500.0,4.0,,,,,,,,,gray,hexagon
0.5,1,6.0,,,5.0,,stop,550.0,550.0,4.0,,,,,,,,,gray,hexagon
1.0,1,5.0,,,5.0,,stop,500.0,550.0,4.0,,,,,,,,,green,triangle
0.5,0,6.0,6.0,484.472990036,5.0,part_2,go,500.0,550.0,1.0,,,,,,,,,white,diamond
4.0,0,6.0,6.0,551.078081131,5.0,part_2,go,500.0,550.0,1.0,,,,,,,,,orange,line
1.0,1,5.0,5.0,400.85792541499995,5.0,part_2,stop,550.0,550.0,3.0,,,,,,,,,green,triangle
4.0,1,5.0,5.0,868.421077728,5.0,part_2,go,550.0,550.0,1.0,,,,,,,,,magenta,square
2.0,0,5.0,5.0,401.03197097799995,5.0,part_2,go,550.0,550.0,1.0,,,,,,,,,cyan,circle
2.0,1,5.0,5.0,467.45300292999997,5.0,part_2,stop,500.0,550.0,3.0,,,,,,,,,yellow,flipped triangle
0.5,1,5.0,,,5.0,,stop,450.0,550.0,4.0,,,,,,,,,gray,hexagon
0.5,1,6.0,6.0,667.770862579,5.0,part_2,stop,450.0,600.0,3.0,,,,,,,,,gray,hexagon
4.0,0,5.0,5.0,500.9801387790001,5.0,part_2,go,450.0,600.0,1.0,,,,,,,,,orange,line
0.5,0,5.0,5.0,500.991821289,5.0,part_2,go,450.0,600.0,1.0,,,,,,,,,white,diamond
2.0,0,6.0,6.0,384.321928024,6.0,part_2,go,450.0,600.0,1.0,,,,,,,,,cyan,circle
1.0,1,5.0,5.0,334.17797088599997,6.0,part_2,go,450.0,600.0,1.0,,,,,,,,,green,triangle
0.5,0,5.0,5.0,752.087116241,6.0,part_2,go,450.0,600.0,1.0,,,,,,,,,white,diamond
4.0,0,5.0,5.0,517.688989639,6.0,part_2,go,450.0,600.0,1.0,,,,,,,,,orange,line
1.0,0,5.0,5.0,434.586048126,6.0,part_2,go,450.0,600.0,1.0,,,,,,,,,blue,cross
1.0,1,6.0,6.0,650.870084763,6.0,part_2,stop,450.0,550.0,3.0,,,,,,,,,green,triangle
2.0,0,6.0,6.0,400.727033615,6.0,part_2,go,450.0,550.0,1.0,,,,,,,,,cyan,circle
0.5,0,6.0,6.0,700.97899437,6.0,part_2,go,450.0,550.0,1.0,,,,,,,,,white,diamond
0.5,0,6.0,6.0,767.96913147,6.0,part_2,go,450.0,550.0,1.0,,,,,,,,,white,diamond
1.0,0,6.0,6.0,668.1420803069999,6.0,part_2,go,450.0,550.0,1.0,,,,,,,,,blue,cross
0.5,0,5.0,5.0,784.605026245,6.0,part_2,go,450.0,550.0,1.0,,,,,,,,,white,diamond
2.0,1,5.0,5.0,667.5751209260001,6.0,part_2,go,450.0,550.0,1.0,,,,,,,,,yellow,flipped triangle
0.5,1,5.0,5.0,901.108026505,6.0,part_2,go,450.0,550.0,1.0,,,,,,,,,gray,hexagon
0.5,1,5.0,5.0,401.00693702700005,6.0,part_2,go,450.0,550.0,1.0,,,,,,,,,gray,hexagon
4.0,0,6.0,6.0,484.011888504,6.0,part_2,go,450.0,550.0,1.0,,,,,,,,,orange,line
2.0,1,6.0,,,6.0,,stop,450.0,500.0,4.0,,,,,,,,,yellow,flipped triangle
4.0,1,6.0,,,6.0,,stop,450.0,550.0,4.0,,,,,,,,,magenta,square
2.0,0,6.0,6.0,467.424869537,6.0,part_2,go,450.0,550.0,1.0,,,,,,,,,cyan,circle
2.0,0,6.0,6.0,551.081895828,6.0,part_2,go,450.0,550.0,1.0,,,,,,,,,cyan,circle
2.0,0,6.0,6.0,367.454051971,6.0,part_2,go,450.0,550.0,1.0,,,,,,,,,cyan,circle
1.0,0,5.0,5.0,651.254892349,6.0,part_2,go,450.0,550.0,1.0,,,,,,,,,blue,cross
1.0,0,6.0,6.0,551.4080524440001,6.0,part_2,go,450.0,550.0,1.0,,,,,,,,,blue,cross
1.0,1,5.0,,,6.0,,stop,500.0,550.0,4.0,,,,,,,,,green,triangle
2.0,0,5.0,5.0,684.554100037,6.0,part_2,go,500.0,550.0,1.0,,,,,,,,,cyan,circle
2.0,1,5.0,,,6.0,,stop,550.0,550.0,4.0,,,,,,,,,yellow,flipped triangle
0.5,1,6.0,,,6.0,,stop,550.0,600.0,4.0,,,,,,,,,gray,hexagon
1.0,1,5.0,5.0,367.80619621299996,6.0,part_2,stop,600.0,600.0,3.0,,,,,,,,,green,triangle
2.0,1,6.0,6.0,751.525878906,6.0,part_2,stop,600.0,650.0,3.0,,,,,,,,,yellow,flipped triangle
1.0,0,6.0,6.0,601.535081863,6.0,part_2,go,600.0,650.0,1.0,,,,,,,,,blue,cross
1.0,0,5.0,5.0,367.15602874800004,6.0,part_2,go,600.0,650.0,1.0,,,,,,,,,blue,cross
4.0,0,5.0,5.0,467.000961304,6.0,part_2,go,600.0,650.0,1.0,,,,,,,,,orange,line
4.0,0,5.0,5.0,551.0311126710001,6.0,part_2,go,600.0,650.0,1.0,,,,,,,,,orange,line
4.0,0,5.0,5.0,434.60202217100004,6.0,part_2,go,600.0,650.0,1.0,,,,,,,,,orange,line
2.0,0,5.0,5.0,634.295940399,6.0,part_2,go,600.0,650.0,1.0,,,,,,,,,cyan,circle
0.5,0,6.0,6.0,367.460012436,6.0,part_2,go,600.0,650.0,1.0,,,,,,,,,white,diamond
2.0,1,6.0,,,6.0,,stop,600.0,600.0,4.0,,,,,,,,,yellow,flipped triangle
0.5,1,6.0,6.0,350.414991379,7.0,part_2,stop,600.0,650.0,3.0,,,,,,,,,gray,hexagon
0.5,1,5.0,,,7.0,,stop,550.0,650.0,4.0,,,,,,,,,gray,hexagon
4.0,1,6.0,6.0,350.98505020100004,7.0,part_2,stop,550.0,600.0,3.0,,,,,,,,,magenta,square
4.0,1,5.0,5.0,567.399978638,7.0,part_2,stop,600.0,600.0,3.0,,,,,,,,,magenta,square
1.0,1,5.0,5.0,384.332895279,7.0,part_2,go,600.0,600.0,1.0,,,,,,,,,green,triangle
2.0,0,6.0,6.0,300.31299591100003,7.0,part_2,go,600.0,600.0,1.0,,,,,,,,,cyan,circle
2.0,0,6.0,6.0,350.51298141499996,7.0,part_2,go,600.0,600.0,1.0,,,,,,,,,cyan,circle
4.0,1,6.0,6.0,551.7110824580001,7.0,part_2,stop,600.0,550.0,3.0,,,,,,,,,magenta,square
1.0,1,5.0,5.0,534.577846527,7.0,part_2,stop,550.0,550.0,3.0,,,,,,,,,green,triangle
0.5,0,6.0,6.0,951.089143753,7.0,part_2,go,550.0,550.0,1.0,,,,,,,,,white,diamond
0.5,0,6.0,6.0,367.604017258,7.0,part_2,go,550.0,550.0,1.0,,,,,,,,,white,diamond
4.0,1,6.0,6.0,484.72595214800003,7.0,part_2,stop,550.0,500.0,3.0,,,,,,,,,magenta,square
0.5,1,5.0,5.0,534.4018936159999,7.0,part_2,stop,500.0,500.0,3.0,,,,,,,,,gray,hexagon
4.0,0,6.0,6.0,434.414148331,7.0,part_2,go,500.0,500.0,1.0,,,,,,,,,orange,line
0.5,0,5.0,5.0,350.790977478,7.0,part_2,go,500.0,500.0,1.0,,,,,,,,,white,diamond
1.0,0,5.0,5.0,784.476041794,7.0,part_2,go,500.0,500.0,1.0,,,,,,,,,blue,cross
0.5,0,5.0,5.0,317.690134048,7.0,part_2,go,500.0,500.0,1.0,,,,,,,,,white,diamond
1.0,1,5.0,5.0,300.505161285,7.0,part_2,go,500.0,500.0,1.0,,,,,,,,,green,triangle
2.0,1,5.0,5.0,768.061161041,7.0,part_2,go,500.0,500.0,1.0,,,,,,,,,yellow,flipped triangle
4.0,0,6.0,6.0,701.4729976650001,7.0,part_2,go,500.0,500.0,1.0,,,,,,,,,orange,line
2.0,0,6.0,6.0,401.077032089,7.0,part_2,go,500.0,500.0,1.0,,,,,,,,,cyan,circle
2.0,0,5.0,5.0,484.632968903,7.0,part_2,go,500.0,500.0,1.0,,,,,,,,,cyan,circle
1.0,1,6.0,,,7.0,,stop,500.0,450.0,4.0,,,,,,,,,green,triangle
1.0,1,6.0,6.0,918.094873428,7.0,part_2,go,500.0,450.0,1.0,,,,,,,,,green,triangle
2.0,1,6.0,,,7.0,,stop,500.0,500.0,4.0,,,,,,,,,yellow,flipped triangle
2.0,0,5.0,5.0,400.532007217,7.0,part_2,go,500.0,500.0,1.0,,,,,,,,,cyan,circle
4.0,1,5.0,,,7.0,,stop,450.0,500.0,4.0,,,,,,,,,magenta,square
1.0,0,5.0,5.0,367.341041565,7.0,part_2,go,450.0,500.0,1.0,,,,,,,,,blue,cross
4.0,0,5.0,5.0,634.4141960139999,7.0,part_2,go,450.0,500.0,1.0,,,,,,,,,orange,line
2.0,0,6.0,6.0,584.6018791199999,7.0,part_2,go,450.0,500.0,1.0,,,,,,,,,cyan,circle
2.0,1,6.0,6.0,367.437124252,7.0,part_2,stop,450.0,550.0,3.0,,,,,,,,,yellow,flipped triangle
0.5,0,5.0,5.0,301.23090743999995,7.0,part_2,go,450.0,550.0,1.0,,,,,,,,,white,diamond
4.0,1,6.0,6.0,417.34600067099996,7.0,part_2,go,450.0,550.0,1.0,,,,,,,,,magenta,square
2.0,0,6.0,6.0,567.369222641,7.0,part_2,go,450.0,550.0,1.0,,,,,,,,,cyan,circle
1.0,0,5.0,5.0,433.984041214,7.0,part_2,go,450.0,550.0,1.0,,,,,,,,,blue,cross
1.0,0,5.0,5.0,551.1760711669999,7.0,part_2,go,450.0,550.0,1.0,,,,,,,,,blue,cross
2.0,1,5.0,5.0,350.959777832,8.0,part_2,stop,500.0,550.0,3.0,,,,,,,,,yellow,flipped triangle
1.0,1,6.0,,,8.0,,stop,500.0,500.0,4.0,,,,,,,,,green,triangle
0.5,0,5.0,5.0,701.261997223,8.0,part_2,go,500.0,500.0,1.0,,,,,,,,,white,diamond
4.0,0,6.0,6.0,350.800991058,8.0,part_2,go,500.0,500.0,1.0,,,,,,,,,orange,line
1.0,0,5.0,5.0,333.837032318,8.0,part_2,go,500.0,500.0,1.0,,,,,,,,,blue,cross
1.0,0,6.0,6.0,317.806005478,8.0,part_2,go,500.0,500.0,1.0,,,,,,,,,blue,cross
2.0,1,6.0,6.0,817.905187607,8.0,part_2,go,500.0,500.0,1.0,,,,,,,,,yellow,flipped triangle
1.0,0,5.0,5.0,450.971126556,8.0,part_2,go,500.0,500.0,1.0,,,,,,,,,blue,cross
4.0,1,5.0,,,8.0,,stop,450.0,500.0,4.0,,,,,,,,,magenta,square
1.0,1,5.0,5.0,801.023006439,8.0,part_2,go,450.0,500.0,1.0,,,,,,,,,green,triangle
4.0,1,5.0,5.0,718.376874924,8.0,part_2,go,450.0,500.0,1.0,,,,,,,,,magenta,square
4.0,0,6.0,6.0,500.785112381,8.0,part_2,go,450.0,500.0,1.0,,,,,,,,,orange,line
4.0,1,6.0,6.0,667.7680015560001,8.0,part_2,go,450.0,500.0,1.0,,,,,,,,,magenta,square
0.5,1,6.0,6.0,617.484092712,8.0,part_2,stop,450.0,550.0,3.0,,,,,,,,,gray,hexagon
4.0,0,5.0,5.0,484.172821045,8.0,part_2,go,450.0,550.0,1.0,,,,,,,,,orange,line
0.5,1,6.0,,,8.0,,stop,450.0,500.0,4.0,,,,,,,,,gray,hexagon
2.0,1,5.0,5.0,417.042016983,8.0,part_2,stop,500.0,500.0,3.0,,,,,,,,,yellow,flipped triangle
0.5,0,6.0,6.0,734.3530654909999,8.0,part_2,go,500.0,500.0,1.0,,,,,,,,,white,diamond
1.0,0,6.0,6.0,384.164810181,8.0,part_2,go,500.0,500.0,1.0,,,,,,,,,blue,cross
1.0,0,6.0,6.0,384.272813797,8.0,part_2,go,500.0,500.0,1.0,,,,,,,,,blue,cross
2.0,0,5.0,5.0,617.599964142,8.0,part_2,go,500.0,500.0,1.0,,,,,,,,,cyan,circle
1.0,0,5.0,5.0,384.515047073,8.0,part_2,go,500.0,500.0,1.0,,,,,,,,,blue,cross
2.0,1,5.0,,,8.0,,stop,450.0,500.0,4.0,,,,,,,,,yellow,flipped triangle
0.5,0,6.0,6.0,351.16600990300003,8.0,part_2,go,450.0,500.0,1.0,,,,,,,,,white,diamond
2.0,0,6.0,6.0,367.427110672,8.0,part_2,go,450.0,500.0,1.0,,,,,,,,,cyan,circle
0.5,1,5.0,5.0,384.50098037699996,8.0,part_2,go,450.0,500.0,1.0,,,,,,,,,gray,hexagon
0.5,1,5.0,5.0,351.141929626,8.0,part_2,stop,500.0,500.0,3.0,,,,,,,,,gray,hexagon
2.0,0,5.0,5.0,567.124843597,8.0,part_2,go,500.0,500.0,1.0,,,,,,,,,cyan,circle
2.0,1,6.0,,,8.0,,stop,500.0,550.0,4.0,,,,,,,,,yellow,flipped triangle
2.0,1,6.0,6.0,768.079996109,8.0,part_2,go,500.0,550.0,1.0,,,,,,,,,yellow,flipped triangle
4.0,1,6.0,6.0,667.91009903,8.0,part_2,go,500.0,550.0,1.0,,,,,,,,,magenta,square
0.5,0,5.0,5.0,584.7849845889999,8.0,part_2,go,500.0,550.0,1.0,,,,,,,,,white,diamond
4.0,0,5.0,5.0,500.77295303299996,8.0,part_2,go,500.0,550.0,1.0,,,,,,,,,orange,line
4.0,0,5.0,5.0,384.244203568,8.0,part_2,go,500.0,550.0,1.0,,,,,,,,,orange,line
1.0,0,6.0,6.0,400.892972946,8.0,part_2,go,500.0,550.0,1.0,,,,,,,,,blue,cross
2.0,1,6.0,6.0,717.739105225,8.0,part_2,stop,500.0,600.0,3.0,,,,,,,,,yellow,flipped triangle
2.0,1,7.0,2.0,3254.28199768,1.0,part_3,stop,,,,204.0,6.0,102.0,204.0,170.0,136.0,34.0,68.0,yellow,flipped triangle
4.0,0,7.0,3.0,3670.9439754500004,1.0,part_3,go,,,,324.0,6.0,54.0,270.0,324.0,108.0,216.0,162.0,orange,line
0.5,1,7.0,5.0,3003.60202789,1.0,part_3,stop,,,,88.0,2.0,132.0,44.0,220.0,264.0,88.0,176.0,gray,hexagon
1.0,1,7.0,3.0,1735.71109772,1.0,part_3,stop,,,,195.0,5.0,234.0,39.0,195.0,78.0,156.0,117.0,green,triangle
4.0,0,7.0,3.0,3437.35384941,1.0,part_3,go,,,,245.0,5.0,49.0,98.0,245.0,196.0,147.0,294.0,orange,line
1.0,1,7.0,4.0,2519.95396614,1.0,part_3,stop,,,,162.0,3.0,54.0,108.0,270.0,162.0,216.0,324.0,green,triangle
4.0,0,7.0,3.0,3053.60507965,1.0,part_3,go,,,,234.0,6.0,39.0,195.0,234.0,78.0,117.0,156.0,orange,line
0.5,0,7.0,6.0,4121.85883522,1.0,part_3,go,,,,108.0,2.0,216.0,162.0,324.0,270.0,54.0,108.0,white,diamond
0.5,0,7.0,6.0,1852.24986076,1.0,part_3,go,,,,98.0,2.0,245.0,147.0,196.0,294.0,49.0,98.0,white,diamond
1.0,1,7.0,1.0,2736.10591888,1.0,part_3,stop,,,,204.0,6.0,204.0,68.0,102.0,136.0,170.0,34.0,green,triangle
0.5,1,7.0,2.0,2085.85000038,1.0,part_3,stop,,,,78.0,2.0,234.0,78.0,39.0,195.0,156.0,117.0,gray,hexagon
0.5,0,7.0,5.0,3237.4048233,1.0,part_3,go,,,,132.0,3.0,88.0,220.0,264.0,176.0,132.0,44.0,white,diamond
4.0,0,7.0,5.0,1701.8449306500002,1.0,part_3,go,,,,234.0,6.0,39.0,117.0,195.0,78.0,234.0,156.0,orange,line
1.0,0,7.0,1.0,4254.47797775,1.0,part_3,go,,,,162.0,3.0,162.0,324.0,270.0,54.0,108.0,216.0,blue,cross
2.0,1,7.0,3.0,3320.93286514,1.0,part_3,stop,,,,156.0,4.0,78.0,117.0,156.0,39.0,195.0,234.0,yellow,flipped triangle
0.5,1,7.0,3.0,2569.48208809,1.0,part_3,stop,,,,132.0,3.0,264.0,176.0,132.0,220.0,44.0,88.0,gray,hexagon
2.0,0,7.0,1.0,3487.75696754,1.0,part_3,go,,,,176.0,4.0,176.0,264.0,220.0,88.0,44.0,132.0,cyan,circle
1.0,1,7.0,4.0,2619.44103241,1.0,part_3,stop,,,,176.0,4.0,220.0,88.0,44.0,176.0,132.0,264.0,green,triangle
2.0,0,7.0,4.0,2669.57807541,1.0,part_3,go,,,,204.0,6.0,34.0,170.0,102.0,204.0,136.0,68.0,cyan,circle
4.0,0,7.0,5.0,2736.1369133000003,1.0,part_3,go,,,,204.0,6.0,68.0,170.0,102.0,34.0,204.0,136.0,orange,line
2.0,1,7.0,5.0,2936.94114685,2.0,part_3,stop,,,,162.0,3.0,270.0,108.0,54.0,216.0,162.0,324.0,yellow,flipped triangle
1.0,1,7.0,4.0,1952.42214203,2.0,part_3,stop,,,,196.0,4.0,294.0,147.0,98.0,196.0,49.0,245.0,green,triangle
2.0,0,7.0,3.0,3037.49108315,2.0,part_3,go,,,,147.0,3.0,98.0,49.0,147.0,196.0,294.0,245.0,cyan,circle
2.0,0,7.0,4.0,2302.79493332,2.0,part_3,go,,,,108.0,2.0,54.0,216.0,270.0,108.0,162.0,324.0,cyan,circle
1.0,1,7.0,1.0,3803.9071559900003,2.0,part_3,stop,,,,196.0,4.0,196.0,147.0,49.0,294.0,98.0,245.0,green,triangle
2.0,1,7.0,6.0,2953.58705521,2.0,part_3,stop,,,,147.0,3.0,294.0,196.0,245.0,49.0,98.0,147.0,yellow,flipped triangle
2.0,0,7.0,3.0,1902.08101273,2.0,part_3,go,,,,88.0,2.0,264.0,132.0,88.0,44.0,176.0,220.0,cyan,circle
4.0,1,7.0,1.0,2970.6480503099997,2.0,part_3,stop,,,,220.0,5.0,220.0,88.0,264.0,132.0,176.0,44.0,magenta,square
4.0,1,7.0,4.0,2269.2401409100003,2.0,part_3,stop,,,,245.0,5.0,294.0,147.0,49.0,245.0,98.0,196.0,magenta,square
2.0,0,7.0,5.0,2069.16999817,2.0,part_3,go,,,,117.0,3.0,78.0,234.0,39.0,195.0,117.0,156.0,cyan,circle
4.0,1,7.0,6.0,2202.42595673,2.0,part_3,stop,,,,270.0,5.0,324.0,162.0,54.0,216.0,108.0,270.0,magenta,square
0.5,1,7.0,5.0,2319.44799423,2.0,part_3,stop,,,,98.0,2.0,294.0,147.0,196.0,49.0,98.0,245.0,gray,hexagon
4.0,1,7.0,4.0,2819.31400299,2.0,part_3,stop,,,,234.0,6.0,78.0,195.0,39.0,234.0,117.0,156.0,magenta,square
0.5,1,7.0,4.0,1985.75091362,2.0,part_3,stop,,,,102.0,3.0,170.0,136.0,68.0,102.0,34.0,204.0,gray,hexagon
0.5,0,7.0,4.0,3871.1729049699998,2.0,part_3,go,,,,102.0,3.0,136.0,68.0,34.0,102.0,204.0,170.0,white,diamond
0.5,0,7.0,3.0,1385.0238323199999,2.0,part_3,go,,,,102.0,3.0,34.0,170.0,102.0,136.0,68.0,204.0,white,diamond
1.0,0,7.0,3.0,3270.41816711,2.0,part_3,go,,,,245.0,5.0,294.0,98.0,245.0,196.0,147.0,49.0,blue,cross
2.0,0,7.0,1.0,2203.19008827,2.0,part_3,go,,,,98.0,2.0,98.0,294.0,49.0,147.0,245.0,196.0,cyan,circle
4.0,0,7.0,3.0,2085.99710464,2.0,part_3,go,,,,294.0,6.0,196.0,147.0,294.0,49.0,98.0,245.0,orange,line
2.0,1,7.0,3.0,1418.4179306,2.0,part_3,stop,,,,156.0,4.0,117.0,39.0,156.0,234.0,195.0,78.0,yellow,flipped triangle
0.5,0,7.0,6.0,1952.56090164,3.0,part_3,go,,,,108.0,2.0,162.0,324.0,54.0,270.0,216.0,108.0,white,diamond
4.0,1,7.0,2.0,2152.92096138,3.0,part_3,stop,,,,234.0,6.0,117.0,234.0,156.0,39.0,78.0,195.0,magenta,square
0.5,1,7.0,4.0,4755.5038929,3.0,part_3,stop,,,,108.0,2.0,324.0,270.0,216.0,108.0,162.0,54.0,gray,hexagon
1.0,1,7.0,1.0,2469.4380760199997,3.0,part_3,stop,,,,195.0,5.0,195.0,156.0,117.0,78.0,234.0,39.0,green,triangle
0.5,1,7.0,4.0,1318.66002083,3.0,part_3,stop,,,,102.0,3.0,170.0,68.0,34.0,102.0,204.0,136.0,gray,hexagon
1.0,1,7.0,5.0,2302.90007591,3.0,part_3,stop,,,,216.0,4.0,324.0,54.0,108.0,270.0,216.0,162.0,green,triangle
4.0,1,7.0,5.0,2618.90602112,3.0,part_3,stop,,,,204.0,6.0,102.0,170.0,68.0,136.0,204.0,34.0,magenta,square
1.0,1,7.0,2.0,2236.4029884300003,3.0,part_3,stop,,,,204.0,6.0,102.0,204.0,136.0,170.0,34.0,68.0,green,triangle
1.0,1,7.0,6.0,1935.42098999,3.0,part_3,stop,,,,176.0,4.0,264.0,44.0,132.0,88.0,220.0,176.0,green,triangle
4.0,1,7.0,6.0,1969.19107437,3.0,part_3,stop,,,,245.0,5.0,98.0,49.0,147.0,196.0,294.0,245.0,magenta,square
1.0,0,7.0,1.0,3170.36509514,3.0,part_3,go,,,,170.0,5.0,170.0,204.0,34.0,102.0,68.0,136.0,blue,cross
1.0,0,7.0,4.0,2753.29399109,3.0,part_3,go,,,,176.0,4.0,44.0,132.0,264.0,176.0,88.0,220.0,blue,cross
1.0,0,7.0,2.0,1418.4088707,3.0,part_3,go,,,,170.0,5.0,102.0,170.0,68.0,34.0,136.0,204.0,blue,cross
1.0,0,7.0,5.0,1785.41707993,3.0,part_3,go,,,,156.0,4.0,39.0,78.0,234.0,117.0,156.0,195.0,blue,cross
0.5,1,7.0,1.0,2002.50196457,3.0,part_3,stop,,,,108.0,2.0,108.0,270.0,324.0,162.0,216.0,54.0,gray,hexagon
4.0,1,7.0,3.0,3887.9699707,3.0,part_3,stop,,,,270.0,5.0,324.0,54.0,270.0,162.0,216.0,108.0,magenta,square
4.0,0,7.0,6.0,1768.6848640399999,3.0,part_3,go,,,,324.0,6.0,54.0,216.0,270.0,108.0,162.0,324.0,orange,line
2.0,1,7.0,2.0,2603.0941009499998,3.0,part_3,stop,,,,176.0,4.0,132.0,176.0,44.0,88.0,264.0,220.0,yellow,flipped triangle
0.5,1,7.0,3.0,3454.0169238999997,3.0,part_3,stop,,,,117.0,3.0,39.0,78.0,117.0,195.0,234.0,156.0,gray,hexagon
1.0,0,7.0,4.0,2069.2620277399997,3.0,part_3,go,,,,156.0,4.0,234.0,117.0,195.0,156.0,39.0,78.0,blue,cross
2.0,1,7.0,2.0,1919.26693916,4.0,part_3,stop,,,,162.0,3.0,54.0,162.0,324.0,216.0,270.0,108.0,yellow,flipped triangle
2.0,0,7.0,4.0,3637.56394386,4.0,part_3,go,,,,117.0,3.0,195.0,234.0,156.0,117.0,39.0,78.0,cyan,circle
2.0,1,7.0,4.0,1969.02894974,4.0,part_3,stop,,,,170.0,5.0,102.0,68.0,34.0,170.0,136.0,204.0,yellow,flipped triangle
0.5,1,7.0,2.0,2436.30099297,4.0,part_3,stop,,,,98.0,2.0,294.0,98.0,147.0,245.0,49.0,196.0,gray,hexagon
0.5,0,7.0,2.0,3387.42399216,4.0,part_3,go,,,,88.0,2.0,44.0,88.0,132.0,220.0,264.0,176.0,white,diamond
2.0,1,7.0,1.0,2652.92096138,4.0,part_3,stop,,,,176.0,4.0,176.0,264.0,44.0,220.0,132.0,88.0,yellow,flipped triangle
0.5,0,7.0,1.0,3420.98999023,4.0,part_3,go,,,,117.0,3.0,117.0,195.0,78.0,234.0,39.0,156.0,white,diamond
1.0,0,7.0,3.0,4204.7481536899995,4.0,part_3,go,,,,216.0,4.0,54.0,162.0,216.0,270.0,324.0,108.0,blue,cross
1.0,0,7.0,4.0,1951.96390152,4.0,part_3,go,,,,196.0,4.0,245.0,294.0,98.0,196.0,147.0,49.0,blue,cross
2.0,0,7.0,1.0,2085.7989788100003,4.0,part_3,go,,,,162.0,3.0,162.0,108.0,54.0,324.0,270.0,216.0,cyan,circle
0.5,0,7.0,3.0,1284.58595276,4.0,part_3,go,,,,98.0,2.0,147.0,294.0,98.0,49.0,196.0,245.0,white,diamond
4.0,1,7.0,3.0,1768.9089775099999,4.0,part_3,stop,,,,204.0,6.0,102.0,136.0,204.0,34.0,68.0,170.0,magenta,square
2.0,0,7.0,1.0,3987.76388168,4.0,part_3,go,,,,170.0,5.0,170.0,34.0,68.0,136.0,204.0,102.0,cyan,circle
4.0,0,7.0,2.0,2135.99419594,4.0,part_3,go,,,,204.0,6.0,34.0,204.0,68.0,136.0,170.0,102.0,orange,line
2.0,1,7.0,1.0,3854.79187965,4.0,part_3,stop,,,,196.0,4.0,196.0,98.0,294.0,147.0,245.0,49.0,yellow,flipped triangle
4.0,0,7.0,3.0,2470.30615807,4.0,part_3,go,,,,264.0,6.0,88.0,132.0,264.0,176.0,220.0,44.0,orange,line
4.0,0,7.0,4.0,1886.05284691,4.0,part_3,go,,,,264.0,6.0,220.0,88.0,44.0,264.0,132.0,176.0,orange,line
1.0,0,7.0,2.0,3771.37708664,4.0,part_3,go,,,,176.0,4.0,88.0,176.0,44.0,132.0,220.0,264.0,blue,cross
4.0,1,7.0,2.0,3420.79591751,4.0,part_3,stop,,,,264.0,6.0,220.0,264.0,88.0,44.0,176.0,132.0,magenta,square
0.5,0,7.0,3.0,3154.11710739,4.0,part_3,go,,,,117.0,3.0,234.0,39.0,117.0,156.0,78.0,195.0,white,diamond
