raw_reward_magnitude,stim_reward,stepwise_reward_magnitude,paired_with_stopping,stim_location,response,reaction_time,block,which_phase,stop_signal_trial_type,left_SSD,right_SSD,accuracy,chosen_bidding_amount,chosen_bidding_level,possible_bid_1,possible_bid_2,possible_bid_3,possible_bid_4,possible_bid_5,possible_bid_6,color_text,shape_text
389.0,4.0,4.0,0,4.0,4.0,417.716026306,1.0,phase_1,,,,,,,,,,,,,yellow,square
55.0,1.0,1.0,0,1.0,1.0,267.637968063,1.0,phase_1,,,,,,,,,,,,,gray,diamond
74.0,1.0,1.0,0,1.0,1.0,283.578157425,1.0,phase_1,,,,,,,,,,,,,gray,diamond
395.0,8.0,4.0,1,4.0,4.0,367.16413497900004,1.0,phase_1,,,,,,,,,,,,,blue,cross
0.0,7.0,0.0,0,3.0,3.0,417.587041855,1.0,phase_1,,,,,,,,,,,,,orange,hexagon
71.0,1.0,1.0,0,3.0,3.0,417.504072189,1.0,phase_1,,,,,,,,,,,,,gray,diamond
421.0,8.0,4.0,1,3.0,3.0,351.315021515,1.0,phase_1,,,,,,,,,,,,,blue,cross
206.0,3.0,3.0,1,4.0,4.0,333.918094635,1.0,phase_1,,,,,,,,,,,,,cyan,line
36.0,5.0,1.0,1,3.0,3.0,333.847999573,1.0,phase_1,,,,,,,,,,,,,magenta,triangle
65.0,1.0,1.0,0,2.0,2.0,333.85515213,1.0,phase_1,,,,,,,,,,,,,gray,diamond
32.0,5.0,1.0,1,3.0,3.0,284.050941467,1.0,phase_1,,,,,,,,,,,,,magenta,triangle
406.0,4.0,4.0,0,3.0,3.0,334.029912949,1.0,phase_1,,,,,,,,,,,,,yellow,square
185.0,3.0,3.0,1,1.0,1.0,400.49099922199997,1.0,phase_1,,,,,,,,,,,,,cyan,line
384.0,8.0,4.0,1,2.0,2.0,367.279052734,1.0,phase_1,,,,,,,,,,,,,blue,cross
64.0,5.0,1.0,1,2.0,2.0,367.630958557,1.0,phase_1,,,,,,,,,,,,,magenta,triangle
0.0,2.0,0.0,1,1.0,1.0,334.000110626,1.0,phase_1,,,,,,,,,,,,,white,circle
0.0,6.0,0.0,0,1.0,1.0,334.568977356,1.0,phase_1,,,,,,,,,,,,,green,flipped triangle
32.0,1.0,1.0,0,4.0,4.0,367.882013321,1.0,phase_1,,,,,,,,,,,,,gray,diamond
96.0,2.0,2.0,1,2.0,2.0,334.635972977,1.0,phase_1,,,,,,,,,,,,,white,circle
415.0,8.0,4.0,1,2.0,2.0,484.351873398,1.0,phase_1,,,,,,,,,,,,,blue,cross
196.0,3.0,3.0,1,4.0,4.0,401.067018509,1.0,phase_1,,,,,,,,,,,,,cyan,line
391.0,4.0,4.0,0,2.0,2.0,351.044178009,1.0,phase_1,,,,,,,,,,,,,yellow,square
398.0,8.0,4.0,1,1.0,1.0,417.68598556499995,1.0,phase_1,,,,,,,,,,,,,blue,cross
397.0,8.0,4.0,1,4.0,4.0,384.10782814,1.0,phase_1,,,,,,,,,,,,,blue,cross
122.0,2.0,2.0,1,2.0,2.0,417.856216431,1.0,phase_1,,,,,,,,,,,,,white,circle
376.0,4.0,4.0,0,4.0,4.0,350.968837738,1.0,phase_1,,,,,,,,,,,,,yellow,square
82.0,6.0,2.0,0,4.0,4.0,384.33218002300003,1.0,phase_1,,,,,,,,,,,,,green,flipped triangle
408.0,4.0,4.0,0,3.0,3.0,384.691953659,1.0,phase_1,,,,,,,,,,,,,yellow,square
395.0,4.0,4.0,0,2.0,2.0,434.430122375,1.0,phase_1,,,,,,,,,,,,,yellow,square
72.0,1.0,1.0,0,1.0,1.0,351.264953613,1.0,phase_1,,,,,,,,,,,,,gray,diamond
398.0,8.0,4.0,1,4.0,4.0,267.19284057600004,1.0,phase_1,,,,,,,,,,,,,blue,cross
214.0,7.0,3.0,0,1.0,1.0,367.509126663,1.0,phase_1,,,,,,,,,,,,,orange,hexagon
73.0,1.0,1.0,0,1.0,1.0,334.063053131,1.0,phase_1,,,,,,,,,,,,,gray,diamond
0.0,4.0,0.0,0,4.0,4.0,384.027004242,1.0,phase_1,,,,,,,,,,,,,yellow,square
62.0,1.0,1.0,0,3.0,3.0,467.56792068500005,1.0,phase_1,,,,,,,,,,,,,gray,diamond
38.0,5.0,1.0,1,2.0,2.0,400.69603920000003,1.0,phase_1,,,,,,,,,,,,,magenta,triangle
114.0,6.0,2.0,0,1.0,1.0,300.721883774,1.0,phase_1,,,,,,,,,,,,,green,flipped triangle
45.0,1.0,1.0,0,3.0,3.0,384.378910065,1.0,phase_1,,,,,,,,,,,,,gray,diamond
0.0,6.0,0.0,0,2.0,2.0,434.386968613,1.0,phase_1,,,,,,,,,,,,,green,flipped triangle
184.0,7.0,3.0,0,1.0,1.0,367.074966431,1.0,phase_1,,,,,,,,,,,,,orange,hexagon
79.0,2.0,2.0,1,1.0,1.0,384.475946426,1.0,phase_1,,,,,,,,,,,,,white,circle
424.0,8.0,4.0,1,2.0,2.0,434.080839157,1.0,phase_1,,,,,,,,,,,,,blue,cross
0.0,7.0,0.0,0,1.0,1.0,384.677171707,1.0,phase_1,,,,,,,,,,,,,orange,hexagon
35.0,1.0,1.0,0,4.0,4.0,417.247056961,1.0,phase_1,,,,,,,,,,,,,gray,diamond
0.0,4.0,0.0,0,3.0,3.0,384.50503349300004,1.0,phase_1,,,,,,,,,,,,,yellow,square
218.0,3.0,3.0,1,2.0,2.0,467.66495704700003,1.0,phase_1,,,,,,,,,,,,,cyan,line
0.0,1.0,0.0,0,1.0,1.0,367.964029312,1.0,phase_1,,,,,,,,,,,,,gray,diamond
75.0,2.0,2.0,1,2.0,2.0,384.337902069,1.0,phase_1,,,,,,,,,,,,,white,circle
194.0,3.0,3.0,1,2.0,2.0,400.65121650699996,1.0,phase_1,,,,,,,,,,,,,cyan,line
64.0,5.0,1.0,1,1.0,1.0,317.69514083900003,1.0,phase_1,,,,,,,,,,,,,magenta,triangle
0.0,5.0,0.0,1,3.0,3.0,434.220075607,1.0,phase_1,,,,,,,,,,,,,magenta,triangle
0.0,7.0,0.0,0,4.0,4.0,333.889007568,1.0,phase_1,,,,,,,,,,,,,orange,hexagon
111.0,6.0,2.0,0,1.0,1.0,351.039886475,1.0,phase_1,,,,,,,,,,,,,green,flipped triangle
61.0,5.0,1.0,1,3.0,3.0,534.2218875890001,1.0,phase_1,,,,,,,,,,,,,magenta,triangle
58.0,5.0,1.0,1,2.0,2.0,400.961875916,1.0,phase_1,,,,,,,,,,,,,magenta,triangle
0.0,7.0,0.0,0,2.0,2.0,467.1189785,1.0,phase_1,,,,,,,,,,,,,orange,hexagon
0.0,1.0,0.0,0,3.0,3.0,384.08803939800003,1.0,phase_1,,,,,,,,,,,,,gray,diamond
36.0,1.0,1.0,0,4.0,4.0,401.14307403600003,1.0,phase_1,,,,,,,,,,,,,gray,diamond
0.0,1.0,0.0,0,4.0,4.0,568.065881729,1.0,phase_1,,,,,,,,,,,,,gray,diamond
423.0,4.0,4.0,0,1.0,1.0,417.299985886,1.0,phase_1,,,,,,,,,,,,,yellow,square
0.0,8.0,0.0,1,3.0,3.0,351.142168045,1.0,phase_1,,,,,,,,,,,,,blue,cross
394.0,4.0,4.0,0,2.0,2.0,384.171009064,1.0,phase_1,,,,,,,,,,,,,yellow,square
422.0,4.0,4.0,0,2.0,2.0,550.982952118,1.0,phase_1,,,,,,,,,,,,,yellow,square
375.0,4.0,4.0,0,4.0,4.0,383.84103775,1.0,phase_1,,,,,,,,,,,,,yellow,square
220.0,3.0,3.0,1,1.0,1.0,384.26899910000003,1.0,phase_1,,,,,,,,,,,,,cyan,line
176.0,3.0,3.0,1,4.0,4.0,367.15602874800004,1.0,phase_1,,,,,,,,,,,,,cyan,line
191.0,3.0,3.0,1,3.0,3.0,350.977897644,1.0,phase_1,,,,,,,,,,,,,cyan,line
0.0,3.0,0.0,1,4.0,4.0,367.552995682,1.0,phase_1,,,,,,,,,,,,,cyan,line
0.0,3.0,0.0,1,3.0,3.0,400.639057159,1.0,phase_1,,,,,,,,,,,,,cyan,line
114.0,6.0,2.0,0,3.0,3.0,400.285959244,1.0,phase_1,,,,,,,,,,,,,green,flipped triangle
57.0,1.0,1.0,0,3.0,3.0,350.95810890200005,1.0,phase_1,,,,,,,,,,,,,gray,diamond
0.0,3.0,0.0,1,1.0,1.0,367.494106293,1.0,phase_1,,,,,,,,,,,,,cyan,line
415.0,4.0,4.0,0,3.0,3.0,400.78711509699997,1.0,phase_1,,,,,,,,,,,,,yellow,square
416.0,8.0,4.0,1,4.0,4.0,317.680120468,1.0,phase_1,,,,,,,,,,,,,blue,cross
178.0,7.0,3.0,0,3.0,3.0,367.32006073,1.0,phase_1,,,,,,,,,,,,,orange,hexagon
0.0,3.0,0.0,1,2.0,2.0,384.27710533100003,1.0,phase_1,,,,,,,,,,,,,cyan,line
0.0,6.0,0.0,0,4.0,4.0,484.019994736,1.0,phase_1,,,,,,,,,,,,,green,flipped triangle
97.0,2.0,2.0,1,1.0,1.0,283.981084824,1.0,phase_1,,,,,,,,,,,,,white,circle
98.0,6.0,2.0,0,1.0,1.0,384.361982346,1.0,phase_1,,,,,,,,,,,,,green,flipped triangle
57.0,5.0,1.0,1,4.0,4.0,383.970022202,1.0,phase_1,,,,,,,,,,,,,magenta,triangle
0.0,3.0,0.0,1,2.0,2.0,400.859832764,1.0,phase_1,,,,,,,,,,,,,cyan,line
86.0,6.0,2.0,0,3.0,3.0,400.985002518,1.0,phase_1,,,,,,,,,,,,,green,flipped triangle
85.0,6.0,2.0,0,4.0,4.0,401.260137558,1.0,phase_1,,,,,,,,,,,,,green,flipped triangle
76.0,6.0,2.0,0,4.0,4.0,417.93704032899996,1.0,phase_1,,,,,,,,,,,,,green,flipped triangle
0.0,4.0,0.0,0,4.0,4.0,517.3020362850001,1.0,phase_1,,,,,,,,,,,,,yellow,square
214.0,7.0,3.0,0,4.0,4.0,401.046991348,1.0,phase_1,,,,,,,,,,,,,orange,hexagon
0.0,5.0,0.0,1,1.0,1.0,350.811958313,1.0,phase_1,,,,,,,,,,,,,magenta,triangle
410.0,4.0,4.0,0,2.0,2.0,400.822162628,1.0,phase_1,,,,,,,,,,,,,yellow,square
393.0,8.0,4.0,1,1.0,1.0,333.806037903,1.0,phase_1,,,,,,,,,,,,,blue,cross
183.0,7.0,3.0,0,2.0,2.0,433.81404876700003,1.0,phase_1,,,,,,,,,,,,,orange,hexagon
108.0,6.0,2.0,0,3.0,3.0,333.555936813,1.0,phase_1,,,,,,,,,,,,,green,flipped triangle
408.0,4.0,4.0,0,3.0,3.0,300.549030304,1.0,phase_1,,,,,,,,,,,,,yellow,square
189.0,7.0,3.0,0,1.0,1.0,368.209123611,1.0,phase_1,,,,,,,,,,,,,orange,hexagon
55.0,1.0,1.0,0,3.0,3.0,367.670059204,1.0,phase_1,,,,,,,,,,,,,gray,diamond
0.0,7.0,0.0,0,2.0,2.0,401.05700492899996,1.0,phase_1,,,,,,,,,,,,,orange,hexagon
186.0,7.0,3.0,0,2.0,2.0,400.49481391899997,1.0,phase_1,,,,,,,,,,,,,orange,hexagon
397.0,4.0,4.0,0,4.0,4.0,400.97498893700003,1.0,phase_1,,,,,,,,,,,,,yellow,square
213.0,7.0,3.0,0,1.0,1.0,351.123094559,1.0,phase_1,,,,,,,,,,,,,orange,hexagon
26.0,5.0,1.0,1,2.0,2.0,451.23791694600004,1.0,phase_1,,,,,,,,,,,,,magenta,triangle
225.0,3.0,3.0,1,3.0,3.0,350.480079651,1.0,phase_1,,,,,,,,,,,,,cyan,line
404.0,8.0,4.0,1,4.0,4.0,417.768001556,2.0,phase_1,,,,,,,,,,,,,blue,cross
82.0,6.0,2.0,0,4.0,4.0,351.119995117,2.0,phase_1,,,,,,,,,,,,,green,flipped triangle
404.0,4.0,4.0,0,2.0,2.0,333.997011185,2.0,phase_1,,,,,,,,,,,,,yellow,square
0.0,5.0,0.0,1,3.0,3.0,367.570877075,2.0,phase_1,,,,,,,,,,,,,magenta,triangle
394.0,4.0,4.0,0,1.0,1.0,334.362030029,2.0,phase_1,,,,,,,,,,,,,yellow,square
0.0,1.0,0.0,0,2.0,2.0,350.697994232,2.0,phase_1,,,,,,,,,,,,,gray,diamond
54.0,5.0,1.0,1,1.0,1.0,384.439945221,2.0,phase_1,,,,,,,,,,,,,magenta,triangle
124.0,2.0,2.0,1,4.0,4.0,350.57497024500003,2.0,phase_1,,,,,,,,,,,,,white,circle
58.0,1.0,1.0,0,2.0,2.0,401.116847992,2.0,phase_1,,,,,,,,,,,,,gray,diamond
384.0,8.0,4.0,1,4.0,4.0,350.503921509,2.0,phase_1,,,,,,,,,,,,,blue,cross
79.0,2.0,2.0,1,2.0,2.0,367.48790741,2.0,phase_1,,,,,,,,,,,,,white,circle
0.0,1.0,0.0,0,1.0,1.0,367.691040039,2.0,phase_1,,,,,,,,,,,,,gray,diamond
92.0,6.0,2.0,0,1.0,1.0,417.58298873900003,2.0,phase_1,,,,,,,,,,,,,green,flipped triangle
67.0,5.0,1.0,1,2.0,2.0,434.45110321000004,2.0,phase_1,,,,,,,,,,,,,magenta,triangle
115.0,2.0,2.0,1,4.0,4.0,367.525815964,2.0,phase_1,,,,,,,,,,,,,white,circle
67.0,1.0,1.0,0,1.0,1.0,350.672960281,2.0,phase_1,,,,,,,,,,,,,gray,diamond
56.0,5.0,1.0,1,3.0,3.0,367.239952087,2.0,phase_1,,,,,,,,,,,,,magenta,triangle
59.0,1.0,1.0,0,1.0,1.0,334.265947342,2.0,phase_1,,,,,,,,,,,,,gray,diamond
0.0,7.0,0.0,0,1.0,1.0,450.53601265,2.0,phase_1,,,,,,,,,,,,,orange,hexagon
213.0,7.0,3.0,0,4.0,4.0,367.39301681499995,2.0,phase_1,,,,,,,,,,,,,orange,hexagon
383.0,8.0,4.0,1,1.0,1.0,317.36779213,2.0,phase_1,,,,,,,,,,,,,blue,cross
95.0,6.0,2.0,0,1.0,1.0,384.171962738,2.0,phase_1,,,,,,,,,,,,,green,flipped triangle
93.0,6.0,2.0,0,4.0,4.0,384.07993316700004,2.0,phase_1,,,,,,,,,,,,,green,flipped triangle
45.0,5.0,1.0,1,3.0,3.0,401.176929474,2.0,phase_1,,,,,,,,,,,,,magenta,triangle
212.0,7.0,3.0,0,2.0,2.0,367.416143417,2.0,phase_1,,,,,,,,,,,,,orange,hexagon
0.0,7.0,0.0,0,1.0,1.0,334.03396606399997,2.0,phase_1,,,,,,,,,,,,,orange,hexagon
55.0,5.0,1.0,1,1.0,1.0,501.03998184200003,2.0,phase_1,,,,,,,,,,,,,magenta,triangle
125.0,6.0,2.0,0,4.0,4.0,333.92691612199997,2.0,phase_1,,,,,,,,,,,,,green,flipped triangle
53.0,1.0,1.0,0,2.0,2.0,351.33910179099996,2.0,phase_1,,,,,,,,,,,,,gray,diamond
59.0,5.0,1.0,1,1.0,1.0,368.147850037,2.0,phase_1,,,,,,,,,,,,,magenta,triangle
416.0,8.0,4.0,1,1.0,1.0,367.61403083799996,2.0,phase_1,,,,,,,,,,,,,blue,cross
176.0,7.0,3.0,0,1.0,1.0,367.547035217,2.0,phase_1,,,,,,,,,,,,,orange,hexagon
208.0,3.0,3.0,1,3.0,3.0,401.03197097799995,2.0,phase_1,,,,,,,,,,,,,cyan,line
79.0,2.0,2.0,1,3.0,3.0,384.063005447,2.0,phase_1,,,,,,,,,,,,,white,circle
180.0,7.0,3.0,0,4.0,4.0,384.018182755,2.0,phase_1,,,,,,,,,,,,,orange,hexagon
0.0,6.0,0.0,0,4.0,4.0,367.47694015499997,2.0,phase_1,,,,,,,,,,,,,green,flipped triangle
27.0,1.0,1.0,0,3.0,3.0,383.97192954999997,2.0,phase_1,,,,,,,,,,,,,gray,diamond
42.0,1.0,1.0,0,2.0,2.0,416.980981827,2.0,phase_1,,,,,,,,,,,,,gray,diamond
61.0,5.0,1.0,1,1.0,1.0,267.73190498400004,2.0,phase_1,,,,,,,,,,,,,magenta,triangle
420.0,4.0,4.0,0,3.0,3.0,351.279020309,2.0,phase_1,,,,,,,,,,,,,yellow,square
224.0,3.0,3.0,1,3.0,3.0,417.402982712,2.0,phase_1,,,,,,,,,,,,,cyan,line
400.0,8.0,4.0,1,2.0,2.0,384.067058563,2.0,phase_1,,,,,,,,,,,,,blue,cross
99.0,2.0,2.0,1,4.0,4.0,317.826032639,2.0,phase_1,,,,,,,,,,,,,white,circle
422.0,8.0,4.0,1,3.0,3.0,350.796937943,2.0,phase_1,,,,,,,,,,,,,blue,cross
68.0,1.0,1.0,0,4.0,4.0,350.935220718,2.0,phase_1,,,,,,,,,,,,,gray,diamond
208.0,7.0,3.0,0,3.0,3.0,334.609031677,2.0,phase_1,,,,,,,,,,,,,orange,hexagon
43.0,5.0,1.0,1,1.0,1.0,351.044893265,2.0,phase_1,,,,,,,,,,,,,magenta,triangle
193.0,3.0,3.0,1,3.0,3.0,367.34509468100003,2.0,phase_1,,,,,,,,,,,,,cyan,line
0.0,8.0,0.0,1,2.0,2.0,417.39988327,2.0,phase_1,,,,,,,,,,,,,blue,cross
0.0,6.0,0.0,0,2.0,2.0,400.69603920000003,2.0,phase_1,,,,,,,,,,,,,green,flipped triangle
57.0,1.0,1.0,0,3.0,3.0,401.062965393,2.0,phase_1,,,,,,,,,,,,,gray,diamond
404.0,8.0,4.0,1,4.0,4.0,334.572076797,2.0,phase_1,,,,,,,,,,,,,blue,cross
120.0,2.0,2.0,1,3.0,3.0,350.800037384,2.0,phase_1,,,,,,,,,,,,,white,circle
115.0,2.0,2.0,1,3.0,3.0,367.300033569,2.0,phase_1,,,,,,,,,,,,,white,circle
46.0,1.0,1.0,0,2.0,2.0,367.648839951,2.0,phase_1,,,,,,,,,,,,,gray,diamond
0.0,3.0,0.0,1,4.0,4.0,334.56993102999996,2.0,phase_1,,,,,,,,,,,,,cyan,line
416.0,8.0,4.0,1,3.0,3.0,350.87800025900003,2.0,phase_1,,,,,,,,,,,,,blue,cross
176.0,3.0,3.0,1,2.0,2.0,368.05486679100005,2.0,phase_1,,,,,,,,,,,,,cyan,line
84.0,2.0,2.0,1,1.0,1.0,317.77501106299997,2.0,phase_1,,,,,,,,,,,,,white,circle
403.0,4.0,4.0,0,4.0,4.0,301.25308036800004,2.0,phase_1,,,,,,,,,,,,,yellow,square
0.0,4.0,0.0,0,1.0,1.0,251.25694274900002,2.0,phase_1,,,,,,,,,,,,,yellow,square
30.0,5.0,1.0,1,3.0,3.0,401.108026505,2.0,phase_1,,,,,,,,,,,,,magenta,triangle
125.0,2.0,2.0,1,4.0,4.0,317.51012802099996,2.0,phase_1,,,,,,,,,,,,,white,circle
103.0,6.0,2.0,0,3.0,3.0,383.82387161300005,2.0,phase_1,,,,,,,,,,,,,green,flipped triangle
0.0,2.0,0.0,1,2.0,2.0,333.992004395,2.0,phase_1,,,,,,,,,,,,,white,circle
0.0,7.0,0.0,0,2.0,2.0,417.87481308,2.0,phase_1,,,,,,,,,,,,,orange,hexagon
0.0,6.0,0.0,0,3.0,3.0,367.478847504,2.0,phase_1,,,,,,,,,,,,,green,flipped triangle
183.0,3.0,3.0,1,1.0,1.0,366.625070572,2.0,phase_1,,,,,,,,,,,,,cyan,line
399.0,8.0,4.0,1,3.0,3.0,367.892980576,2.0,phase_1,,,,,,,,,,,,,blue,cross
102.0,6.0,2.0,0,4.0,4.0,333.83893966700003,2.0,phase_1,,,,,,,,,,,,,green,flipped triangle
40.0,5.0,1.0,1,4.0,4.0,467.162847519,2.0,phase_1,,,,,,,,,,,,,magenta,triangle
39.0,1.0,1.0,0,4.0,4.0,367.710113525,2.0,phase_1,,,,,,,,,,,,,gray,diamond
52.0,5.0,1.0,1,4.0,4.0,367.52080917399996,2.0,phase_1,,,,,,,,,,,,,magenta,triangle
100.0,2.0,2.0,1,4.0,4.0,333.96005630499997,2.0,phase_1,,,,,,,,,,,,,white,circle
190.0,7.0,3.0,0,1.0,1.0,317.763090134,2.0,phase_1,,,,,,,,,,,,,orange,hexagon
196.0,3.0,3.0,1,1.0,1.0,367.993831635,2.0,phase_1,,,,,,,,,,,,,cyan,line
95.0,6.0,2.0,0,3.0,3.0,334.697008133,2.0,phase_1,,,,,,,,,,,,,green,flipped triangle
91.0,6.0,2.0,0,4.0,4.0,368.07012558,2.0,phase_1,,,,,,,,,,,,,green,flipped triangle
0.0,5.0,0.0,1,1.0,1.0,400.684833527,2.0,phase_1,,,,,,,,,,,,,magenta,triangle
125.0,6.0,2.0,0,2.0,2.0,417.351007462,2.0,phase_1,,,,,,,,,,,,,green,flipped triangle
125.0,6.0,2.0,0,2.0,2.0,384.222984314,2.0,phase_1,,,,,,,,,,,,,green,flipped triangle
103.0,2.0,2.0,1,2.0,2.0,434.10491943399995,2.0,phase_1,,,,,,,,,,,,,white,circle
398.0,4.0,4.0,0,4.0,4.0,400.707960129,2.0,phase_1,,,,,,,,,,,,,yellow,square
220.0,3.0,3.0,1,2.0,2.0,417.361021042,2.0,phase_1,,,,,,,,,,,,,cyan,line
376.0,4.0,4.0,0,1.0,1.0,367.395162582,2.0,phase_1,,,,,,,,,,,,,yellow,square
188.0,3.0,3.0,1,2.0,2.0,334.15699005100004,2.0,phase_1,,,,,,,,,,,,,cyan,line
216.0,3.0,3.0,1,3.0,3.0,384.238004684,2.0,phase_1,,,,,,,,,,,,,cyan,line
206.0,3.0,3.0,1,3.0,3.0,350.703001022,2.0,phase_1,,,,,,,,,,,,,cyan,line
185.0,3.0,3.0,1,3.0,3.0,366.949081421,2.0,phase_1,,,,,,,,,,,,,cyan,line
0.0,4.0,0.0,0,2.0,2.0,384.609937668,2.0,phase_1,,,,,,,,,,,,,yellow,square
60.0,5.0,1.0,1,2.0,2.0,351.25279426599997,2.0,phase_1,,,,,,,,,,,,,magenta,triangle
0.0,8.0,0.0,1,3.0,3.0,401.38792991599996,2.0,phase_1,,,,,,,,,,,,,blue,cross
397.0,4.0,4.0,0,1.0,1.0,334.268093109,2.0,phase_1,,,,,,,,,,,,,yellow,square
401.0,4.0,4.0,0,3.0,3.0,367.499113083,2.0,phase_1,,,,,,,,,,,,,yellow,square
63.0,5.0,1.0,1,2.0,2.0,334.33699607799997,2.0,phase_1,,,,,,,,,,,,,magenta,triangle
179.0,7.0,3.0,0,1.0,1.0,334.24592018100003,2.0,phase_1,,,,,,,,,,,,,orange,hexagon
391.0,8.0,4.0,1,2.0,2.0,367.862939835,2.0,phase_1,,,,,,,,,,,,,blue,cross
209.0,3.0,3.0,1,4.0,4.0,484.074831009,2.0,phase_1,,,,,,,,,,,,,cyan,line
80.0,2.0,2.0,1,4.0,4.0,417.66500473,2.0,phase_1,,,,,,,,,,,,,white,circle
119.0,6.0,2.0,0,2.0,2.0,417.959928513,2.0,phase_1,,,,,,,,,,,,,green,flipped triangle
0.0,7.0,0.0,0,2.0,2.0,351.29499435400004,3.0,phase_1,,,,,,,,,,,,,orange,hexagon
203.0,7.0,3.0,0,3.0,3.0,333.899974823,3.0,phase_1,,,,,,,,,,,,,orange,hexagon
186.0,7.0,3.0,0,2.0,2.0,384.119033813,3.0,phase_1,,,,,,,,,,,,,orange,hexagon
0.0,7.0,0.0,0,2.0,2.0,284.034967422,3.0,phase_1,,,,,,,,,,,,,orange,hexagon
0.0,4.0,0.0,0,1.0,1.0,333.45508575400004,3.0,phase_1,,,,,,,,,,,,,yellow,square
0.0,8.0,0.0,1,3.0,3.0,400.85411071799996,3.0,phase_1,,,,,,,,,,,,,blue,cross
376.0,4.0,4.0,0,4.0,4.0,333.858966827,3.0,phase_1,,,,,,,,,,,,,yellow,square
57.0,5.0,1.0,1,2.0,2.0,284.164905548,3.0,phase_1,,,,,,,,,,,,,magenta,triangle
0.0,6.0,0.0,0,4.0,4.0,351.031064987,3.0,phase_1,,,,,,,,,,,,,green,flipped triangle
217.0,7.0,3.0,0,3.0,3.0,300.935983658,3.0,phase_1,,,,,,,,,,,,,orange,hexagon
178.0,7.0,3.0,0,1.0,1.0,334.224939346,3.0,phase_1,,,,,,,,,,,,,orange,hexagon
55.0,5.0,1.0,1,4.0,4.0,367.11883544899996,3.0,phase_1,,,,,,,,,,,,,magenta,triangle
218.0,3.0,3.0,1,1.0,1.0,300.80413818399995,3.0,phase_1,,,,,,,,,,,,,cyan,line
0.0,3.0,0.0,1,1.0,1.0,317.19589233399995,3.0,phase_1,,,,,,,,,,,,,cyan,line
419.0,4.0,4.0,0,3.0,3.0,300.689935684,3.0,phase_1,,,,,,,,,,,,,yellow,square
42.0,5.0,1.0,1,4.0,4.0,333.919048309,3.0,phase_1,,,,,,,,,,,,,magenta,triangle
0.0,6.0,0.0,0,1.0,1.0,283.715009689,3.0,phase_1,,,,,,,,,,,,,green,flipped triangle
90.0,2.0,2.0,1,1.0,1.0,351.177930832,3.0,phase_1,,,,,,,,,,,,,white,circle
415.0,8.0,4.0,1,2.0,2.0,367.88702011099997,3.0,phase_1,,,,,,,,,,,,,blue,cross
394.0,8.0,4.0,1,2.0,2.0,350.490093231,3.0,phase_1,,,,,,,,,,,,,blue,cross
71.0,5.0,1.0,1,2.0,2.0,317.97409057600004,3.0,phase_1,,,,,,,,,,,,,magenta,triangle
30.0,5.0,1.0,1,4.0,4.0,351.258039474,3.0,phase_1,,,,,,,,,,,,,magenta,triangle
195.0,3.0,3.0,1,3.0,3.0,333.878040314,3.0,phase_1,,,,,,,,,,,,,cyan,line
91.0,2.0,2.0,1,1.0,1.0,284.202098846,3.0,phase_1,,,,,,,,,,,,,white,circle
218.0,3.0,3.0,1,3.0,3.0,400.864124298,3.0,phase_1,,,,,,,,,,,,,cyan,line
202.0,7.0,3.0,0,2.0,2.0,400.663137436,3.0,phase_1,,,,,,,,,,,,,orange,hexagon
40.0,5.0,1.0,1,3.0,3.0,333.96697044399997,3.0,phase_1,,,,,,,,,,,,,magenta,triangle
66.0,1.0,1.0,0,2.0,2.0,351.35698318500005,3.0,phase_1,,,,,,,,,,,,,gray,diamond
0.0,2.0,0.0,1,4.0,4.0,584.34009552,3.0,phase_1,,,,,,,,,,,,,white,circle
394.0,4.0,4.0,0,3.0,3.0,334.20109748799996,3.0,phase_1,,,,,,,,,,,,,yellow,square
117.0,6.0,2.0,0,2.0,2.0,350.858211517,3.0,phase_1,,,,,,,,,,,,,green,flipped triangle
66.0,1.0,1.0,0,2.0,2.0,300.940036774,3.0,phase_1,,,,,,,,,,,,,gray,diamond
0.0,4.0,0.0,0,4.0,4.0,334.59711074800003,3.0,phase_1,,,,,,,,,,,,,yellow,square
424.0,8.0,4.0,1,4.0,4.0,350.548028946,3.0,phase_1,,,,,,,,,,,,,blue,cross
393.0,4.0,4.0,0,3.0,3.0,317.468881607,3.0,phase_1,,,,,,,,,,,,,yellow,square
225.0,3.0,3.0,1,1.0,1.0,283.851146698,3.0,phase_1,,,,,,,,,,,,,cyan,line
32.0,1.0,1.0,0,1.0,1.0,317.48008727999996,3.0,phase_1,,,,,,,,,,,,,gray,diamond
0.0,5.0,0.0,1,1.0,1.0,267.61102676400003,3.0,phase_1,,,,,,,,,,,,,magenta,triangle
81.0,2.0,2.0,1,1.0,1.0,284.039974213,3.0,phase_1,,,,,,,,,,,,,white,circle
75.0,6.0,2.0,0,3.0,3.0,333.776950836,3.0,phase_1,,,,,,,,,,,,,green,flipped triangle
397.0,8.0,4.0,1,4.0,4.0,317.636966705,3.0,phase_1,,,,,,,,,,,,,blue,cross
405.0,4.0,4.0,0,1.0,1.0,367.192983627,3.0,phase_1,,,,,,,,,,,,,yellow,square
46.0,1.0,1.0,0,4.0,4.0,400.578022003,3.0,phase_1,,,,,,,,,,,,,gray,diamond
80.0,2.0,2.0,1,1.0,1.0,334.394931793,3.0,phase_1,,,,,,,,,,,,,white,circle
222.0,3.0,3.0,1,1.0,1.0,367.48909950300003,3.0,phase_1,,,,,,,,,,,,,cyan,line
206.0,3.0,3.0,1,2.0,2.0,367.14601516700003,3.0,phase_1,,,,,,,,,,,,,cyan,line
386.0,8.0,4.0,1,2.0,2.0,334.110021591,3.0,phase_1,,,,,,,,,,,,,blue,cross
58.0,1.0,1.0,0,2.0,2.0,317.723989487,3.0,phase_1,,,,,,,,,,,,,gray,diamond
0.0,8.0,0.0,1,4.0,4.0,401.073932648,3.0,phase_1,,,,,,,,,,,,,blue,cross
123.0,2.0,2.0,1,1.0,1.0,450.27589798,3.0,phase_1,,,,,,,,,,,,,white,circle
49.0,5.0,1.0,1,2.0,2.0,317.896842957,3.0,phase_1,,,,,,,,,,,,,magenta,triangle
118.0,2.0,2.0,1,3.0,3.0,384.384870529,3.0,phase_1,,,,,,,,,,,,,white,circle
123.0,2.0,2.0,1,4.0,4.0,350.811958313,3.0,phase_1,,,,,,,,,,,,,white,circle
103.0,2.0,2.0,1,2.0,2.0,334.180831909,3.0,phase_1,,,,,,,,,,,,,white,circle
97.0,2.0,2.0,1,4.0,4.0,350.995063782,3.0,phase_1,,,,,,,,,,,,,white,circle
0.0,6.0,0.0,0,1.0,1.0,351.148843765,3.0,phase_1,,,,,,,,,,,,,green,flipped triangle
0.0,3.0,0.0,1,4.0,4.0,417.849779129,3.0,phase_1,,,,,,,,,,,,,cyan,line
83.0,6.0,2.0,0,2.0,2.0,317.788124084,3.0,phase_1,,,,,,,,,,,,,green,flipped triangle
0.0,1.0,0.0,0,1.0,1.0,300.980806351,3.0,phase_1,,,,,,,,,,,,,gray,diamond
183.0,7.0,3.0,0,4.0,4.0,350.683927536,3.0,phase_1,,,,,,,,,,,,,orange,hexagon
0.0,6.0,0.0,0,3.0,3.0,400.47001838700004,3.0,phase_1,,,,,,,,,,,,,green,flipped triangle
58.0,5.0,1.0,1,4.0,4.0,400.734186172,3.0,phase_1,,,,,,,,,,,,,magenta,triangle
379.0,4.0,4.0,0,1.0,1.0,333.831071854,3.0,phase_1,,,,,,,,,,,,,yellow,square
399.0,8.0,4.0,1,1.0,1.0,383.973836899,3.0,phase_1,,,,,,,,,,,,,blue,cross
113.0,6.0,2.0,0,4.0,4.0,334.03801918,3.0,phase_1,,,,,,,,,,,,,green,flipped triangle
123.0,2.0,2.0,1,3.0,3.0,333.92310142499997,3.0,phase_1,,,,,,,,,,,,,white,circle
108.0,6.0,2.0,0,3.0,3.0,400.759935379,3.0,phase_1,,,,,,,,,,,,,green,flipped triangle
65.0,5.0,1.0,1,2.0,2.0,400.83909034699997,3.0,phase_1,,,,,,,,,,,,,magenta,triangle
211.0,7.0,3.0,0,3.0,3.0,267.05789566,3.0,phase_1,,,,,,,,,,,,,orange,hexagon
176.0,3.0,3.0,1,2.0,2.0,351.274967194,3.0,phase_1,,,,,,,,,,,,,cyan,line
398.0,4.0,4.0,0,4.0,4.0,317.24095344499995,3.0,phase_1,,,,,,,,,,,,,yellow,square
98.0,2.0,2.0,1,4.0,4.0,317.591190338,3.0,phase_1,,,,,,,,,,,,,white,circle
119.0,6.0,2.0,0,4.0,4.0,333.928108215,3.0,phase_1,,,,,,,,,,,,,green,flipped triangle
178.0,7.0,3.0,0,3.0,3.0,317.562103271,3.0,phase_1,,,,,,,,,,,,,orange,hexagon
183.0,7.0,3.0,0,4.0,4.0,334.038972855,3.0,phase_1,,,,,,,,,,,,,orange,hexagon
75.0,5.0,1.0,1,1.0,1.0,317.49200820899995,3.0,phase_1,,,,,,,,,,,,,magenta,triangle
179.0,7.0,3.0,0,4.0,4.0,283.909797668,3.0,phase_1,,,,,,,,,,,,,orange,hexagon
415.0,4.0,4.0,0,4.0,4.0,283.968925476,3.0,phase_1,,,,,,,,,,,,,yellow,square
82.0,2.0,2.0,1,1.0,1.0,384.194135666,3.0,phase_1,,,,,,,,,,,,,white,circle
47.0,1.0,1.0,0,1.0,1.0,400.73204040499996,3.0,phase_1,,,,,,,,,,,,,gray,diamond
73.0,1.0,1.0,0,2.0,2.0,417.768955231,3.0,phase_1,,,,,,,,,,,,,gray,diamond
212.0,7.0,3.0,0,4.0,4.0,284.205913544,3.0,phase_1,,,,,,,,,,,,,orange,hexagon
102.0,2.0,2.0,1,3.0,3.0,350.504875183,3.0,phase_1,,,,,,,,,,,,,white,circle
411.0,8.0,4.0,1,2.0,2.0,350.91686248800005,3.0,phase_1,,,,,,,,,,,,,blue,cross
62.0,1.0,1.0,0,3.0,3.0,367.75207519500003,3.0,phase_1,,,,,,,,,,,,,gray,diamond
71.0,5.0,1.0,1,3.0,3.0,434.168100357,3.0,phase_1,,,,,,,,,,,,,magenta,triangle
30.0,5.0,1.0,1,2.0,2.0,350.540876389,3.0,phase_1,,,,,,,,,,,,,magenta,triangle
375.0,8.0,4.0,1,3.0,3.0,300.455093384,3.0,phase_1,,,,,,,,,,,,,blue,cross
68.0,5.0,1.0,1,2.0,2.0,367.295026779,3.0,phase_1,,,,,,,,,,,,,magenta,triangle
402.0,4.0,4.0,0,3.0,3.0,301.181077957,3.0,phase_1,,,,,,,,,,,,,yellow,square
392.0,8.0,4.0,1,3.0,3.0,384.005069733,3.0,phase_1,,,,,,,,,,,,,blue,cross
0.0,7.0,0.0,0,1.0,1.0,383.624076843,3.0,phase_1,,,,,,,,,,,,,orange,hexagon
419.0,4.0,4.0,0,2.0,2.0,367.37704277,3.0,phase_1,,,,,,,,,,,,,yellow,square
108.0,2.0,2.0,1,3.0,3.0,333.84704589800003,3.0,phase_1,,,,,,,,,,,,,white,circle
223.0,3.0,3.0,1,2.0,2.0,367.55514144899996,3.0,phase_1,,,,,,,,,,,,,cyan,line
204.0,7.0,3.0,0,1.0,1.0,350.536823273,3.0,phase_1,,,,,,,,,,,,,orange,hexagon
46.0,1.0,1.0,0,4.0,4.0,384.603023529,3.0,phase_1,,,,,,,,,,,,,gray,diamond
125.0,6.0,2.0,0,3.0,3.0,384.285926819,3.0,phase_1,,,,,,,,,,,,,green,flipped triangle
413.0,8.0,4.0,1,1.0,1.0,317.955970764,3.0,phase_1,,,,,,,,,,,,,blue,cross
197.0,3.0,3.0,1,3.0,3.0,384.454011917,3.0,phase_1,,,,,,,,,,,,,cyan,line
27.0,5.0,1.0,1,4.0,4.0,367.312192917,4.0,phase_1,,,,,,,,,,,,,magenta,triangle
409.0,4.0,4.0,0,4.0,4.0,300.18901825,4.0,phase_1,,,,,,,,,,,,,yellow,square
396.0,8.0,4.0,1,3.0,3.0,367.733955383,4.0,phase_1,,,,,,,,,,,,,blue,cross
60.0,5.0,1.0,1,2.0,2.0,300.81582069399997,4.0,phase_1,,,,,,,,,,,,,magenta,triangle
0.0,8.0,0.0,1,4.0,4.0,434.31401252700005,4.0,phase_1,,,,,,,,,,,,,blue,cross
112.0,6.0,2.0,0,1.0,1.0,334.722995758,4.0,phase_1,,,,,,,,,,,,,green,flipped triangle
56.0,1.0,1.0,0,1.0,1.0,334.06496048,4.0,phase_1,,,,,,,,,,,,,gray,diamond
219.0,7.0,3.0,0,3.0,3.0,350.245952606,4.0,phase_1,,,,,,,,,,,,,orange,hexagon
214.0,7.0,3.0,0,3.0,3.0,316.80798530600003,4.0,phase_1,,,,,,,,,,,,,orange,hexagon
0.0,4.0,0.0,0,1.0,1.0,368.090867996,4.0,phase_1,,,,,,,,,,,,,yellow,square
424.0,8.0,4.0,1,1.0,1.0,334.25784111,4.0,phase_1,,,,,,,,,,,,,blue,cross
383.0,8.0,4.0,1,3.0,3.0,317.023038864,4.0,phase_1,,,,,,,,,,,,,blue,cross
206.0,7.0,3.0,0,2.0,2.0,333.88710022000004,4.0,phase_1,,,,,,,,,,,,,orange,hexagon
39.0,1.0,1.0,0,2.0,2.0,400.769948959,4.0,phase_1,,,,,,,,,,,,,gray,diamond
112.0,6.0,2.0,0,1.0,1.0,367.548942566,4.0,phase_1,,,,,,,,,,,,,green,flipped triangle
102.0,2.0,2.0,1,4.0,4.0,300.71306228599997,4.0,phase_1,,,,,,,,,,,,,white,circle
0.0,3.0,0.0,1,2.0,2.0,301.195144653,4.0,phase_1,,,,,,,,,,,,,cyan,line
215.0,7.0,3.0,0,1.0,1.0,284.178972244,4.0,phase_1,,,,,,,,,,,,,orange,hexagon
121.0,2.0,2.0,1,2.0,2.0,317.641973495,4.0,phase_1,,,,,,,,,,,,,white,circle
63.0,5.0,1.0,1,4.0,4.0,317.531108856,4.0,phase_1,,,,,,,,,,,,,magenta,triangle
75.0,2.0,2.0,1,3.0,3.0,317.39187240599995,4.0,phase_1,,,,,,,,,,,,,white,circle
0.0,2.0,0.0,1,3.0,3.0,400.74396133399995,4.0,phase_1,,,,,,,,,,,,,white,circle
0.0,3.0,0.0,1,1.0,1.0,300.82798004200004,4.0,phase_1,,,,,,,,,,,,,cyan,line
76.0,6.0,2.0,0,2.0,2.0,384.060144424,4.0,phase_1,,,,,,,,,,,,,green,flipped triangle
102.0,6.0,2.0,0,2.0,2.0,350.70705413800005,4.0,phase_1,,,,,,,,,,,,,green,flipped triangle
0.0,3.0,0.0,1,1.0,1.0,400.284051895,4.0,phase_1,,,,,,,,,,,,,cyan,line
124.0,2.0,2.0,1,1.0,1.0,517.5509452819999,4.0,phase_1,,,,,,,,,,,,,white,circle
89.0,2.0,2.0,1,3.0,3.0,300.827026367,4.0,phase_1,,,,,,,,,,,,,white,circle
0.0,6.0,0.0,0,2.0,2.0,534.551143646,4.0,phase_1,,,,,,,,,,,,,green,flipped triangle
215.0,7.0,3.0,0,3.0,3.0,567.838907242,4.0,phase_1,,,,,,,,,,,,,orange,hexagon
221.0,3.0,3.0,1,3.0,3.0,384.464979172,4.0,phase_1,,,,,,,,,,,,,cyan,line
0.0,1.0,0.0,0,1.0,1.0,935.113191605,4.0,phase_1,,,,,,,,,,,,,gray,diamond
217.0,3.0,3.0,1,2.0,2.0,450.970888138,4.0,phase_1,,,,,,,,,,,,,cyan,line
0.0,5.0,0.0,1,3.0,3.0,350.65197944600004,4.0,phase_1,,,,,,,,,,,,,magenta,triangle
0.0,8.0,0.0,1,1.0,1.0,567.4669742579999,4.0,phase_1,,,,,,,,,,,,,blue,cross
401.0,8.0,4.0,1,3.0,3.0,468.01090240499997,4.0,phase_1,,,,,,,,,,,,,blue,cross
43.0,5.0,1.0,1,3.0,3.0,584.454059601,4.0,phase_1,,,,,,,,,,,,,magenta,triangle
104.0,2.0,2.0,1,1.0,1.0,434.057950974,4.0,phase_1,,,,,,,,,,,,,white,circle
48.0,1.0,1.0,0,4.0,4.0,400.763034821,4.0,phase_1,,,,,,,,,,,,,gray,diamond
103.0,6.0,2.0,0,1.0,1.0,367.37704277,4.0,phase_1,,,,,,,,,,,,,green,flipped triangle
208.0,7.0,3.0,0,4.0,4.0,367.151975632,4.0,phase_1,,,,,,,,,,,,,orange,hexagon
412.0,8.0,4.0,1,4.0,4.0,434.514045715,4.0,phase_1,,,,,,,,,,,,,blue,cross
375.0,8.0,4.0,1,2.0,2.0,400.779008865,4.0,phase_1,,,,,,,,,,,,,blue,cross
0.0,7.0,0.0,0,3.0,3.0,367.84696578999996,4.0,phase_1,,,,,,,,,,,,,orange,hexagon
38.0,5.0,1.0,1,4.0,4.0,417.666912079,4.0,phase_1,,,,,,,,,,,,,magenta,triangle
48.0,1.0,1.0,0,1.0,1.0,367.710828781,4.0,phase_1,,,,,,,,,,,,,gray,diamond
184.0,3.0,3.0,1,2.0,2.0,400.619029999,4.0,phase_1,,,,,,,,,,,,,cyan,line
123.0,2.0,2.0,1,4.0,4.0,417.768955231,4.0,phase_1,,,,,,,,,,,,,white,circle
188.0,3.0,3.0,1,1.0,1.0,384.624958038,4.0,phase_1,,,,,,,,,,,,,cyan,line
70.0,1.0,1.0,0,2.0,2.0,400.885105133,4.0,phase_1,,,,,,,,,,,,,gray,diamond
0.0,4.0,0.0,0,4.0,4.0,351.037979126,4.0,phase_1,,,,,,,,,,,,,yellow,square
0.0,1.0,0.0,0,1.0,1.0,317.90995597799997,4.0,phase_1,,,,,,,,,,,,,gray,diamond
92.0,2.0,2.0,1,1.0,1.0,384.846925735,4.0,phase_1,,,,,,,,,,,,,white,circle
0.0,8.0,0.0,1,3.0,3.0,367.585897446,4.0,phase_1,,,,,,,,,,,,,blue,cross
0.0,3.0,0.0,1,2.0,2.0,368.259191513,4.0,phase_1,,,,,,,,,,,,,cyan,line
0.0,4.0,0.0,0,4.0,4.0,451.12514495799996,4.0,phase_1,,,,,,,,,,,,,yellow,square
395.0,4.0,4.0,0,2.0,2.0,367.621898651,4.0,phase_1,,,,,,,,,,,,,yellow,square
85.0,6.0,2.0,0,2.0,2.0,384.64498519899996,4.0,phase_1,,,,,,,,,,,,,green,flipped triangle
117.0,2.0,2.0,1,3.0,3.0,434.033155441,4.0,phase_1,,,,,,,,,,,,,white,circle
180.0,3.0,3.0,1,4.0,4.0,400.783061981,4.0,phase_1,,,,,,,,,,,,,cyan,line
405.0,4.0,4.0,0,3.0,3.0,417.566776276,4.0,phase_1,,,,,,,,,,,,,yellow,square
31.0,5.0,1.0,1,2.0,2.0,434.45014953599997,4.0,phase_1,,,,,,,,,,,,,magenta,triangle
111.0,2.0,2.0,1,3.0,3.0,367.891073227,4.0,phase_1,,,,,,,,,,,,,white,circle
0.0,1.0,0.0,0,4.0,4.0,367.635011673,4.0,phase_1,,,,,,,,,,,,,gray,diamond
125.0,6.0,2.0,0,3.0,3.0,384.079217911,4.0,phase_1,,,,,,,,,,,,,green,flipped triangle
412.0,4.0,4.0,0,2.0,2.0,383.944988251,4.0,phase_1,,,,,,,,,,,,,yellow,square
415.0,4.0,4.0,0,1.0,1.0,351.30500793500005,4.0,phase_1,,,,,,,,,,,,,yellow,square
71.0,5.0,1.0,1,2.0,2.0,400.541067123,4.0,phase_1,,,,,,,,,,,,,magenta,triangle
380.0,4.0,4.0,0,1.0,1.0,384.77492332500003,4.0,phase_1,,,,,,,,,,,,,yellow,square
0.0,6.0,0.0,0,4.0,4.0,401.041984558,4.0,phase_1,,,,,,,,,,,,,green,flipped triangle
121.0,2.0,2.0,1,2.0,2.0,367.285966873,4.0,phase_1,,,,,,,,,,,,,white,circle
102.0,6.0,2.0,0,3.0,3.0,433.727025986,4.0,phase_1,,,,,,,,,,,,,green,flipped triangle
0.0,1.0,0.0,0,4.0,4.0,384.695768356,4.0,phase_1,,,,,,,,,,,,,gray,diamond
72.0,5.0,1.0,1,1.0,1.0,401.17096900900003,4.0,phase_1,,,,,,,,,,,,,magenta,triangle
102.0,2.0,2.0,1,1.0,1.0,451.090097427,4.0,phase_1,,,,,,,,,,,,,white,circle
380.0,8.0,4.0,1,1.0,1.0,417.572975159,4.0,phase_1,,,,,,,,,,,,,blue,cross
185.0,3.0,3.0,1,2.0,2.0,433.930873871,4.0,phase_1,,,,,,,,,,,,,cyan,line
222.0,3.0,3.0,1,3.0,3.0,451.04694366499996,4.0,phase_1,,,,,,,,,,,,,cyan,line
387.0,8.0,4.0,1,4.0,4.0,433.99786949199995,4.0,phase_1,,,,,,,,,,,,,blue,cross
61.0,1.0,1.0,0,2.0,2.0,534.7459316249999,4.0,phase_1,,,,,,,,,,,,,gray,diamond
0.0,8.0,0.0,1,4.0,4.0,534.508943558,4.0,phase_1,,,,,,,,,,,,,blue,cross
388.0,8.0,4.0,1,4.0,4.0,367.52510070799997,4.0,phase_1,,,,,,,,,,,,,blue,cross
0.0,5.0,0.0,1,4.0,4.0,551.093101501,4.0,phase_1,,,,,,,,,,,,,magenta,triangle
0.0,2.0,0.0,1,2.0,2.0,451.11703872699997,4.0,phase_1,,,,,,,,,,,,,white,circle
376.0,8.0,4.0,1,4.0,4.0,401.437997818,4.0,phase_1,,,,,,,,,,,,,blue,cross
182.0,7.0,3.0,0,1.0,1.0,384.69004630999996,4.0,phase_1,,,,,,,,,,,,,orange,hexagon
386.0,8.0,4.0,1,2.0,2.0,450.932979584,4.0,phase_1,,,,,,,,,,,,,blue,cross
195.0,7.0,3.0,0,4.0,4.0,384.04083252,4.0,phase_1,,,,,,,,,,,,,orange,hexagon
113.0,2.0,2.0,1,4.0,4.0,384.569168091,4.0,phase_1,,,,,,,,,,,,,white,circle
425.0,4.0,4.0,0,1.0,1.0,384.177207947,4.0,phase_1,,,,,,,,,,,,,yellow,square
193.0,7.0,3.0,0,2.0,2.0,333.842039108,4.0,phase_1,,,,,,,,,,,,,orange,hexagon
210.0,3.0,3.0,1,3.0,3.0,350.845813751,4.0,phase_1,,,,,,,,,,,,,cyan,line
118.0,2.0,2.0,1,1.0,1.0,384.15694236800005,4.0,phase_1,,,,,,,,,,,,,white,circle
112.0,6.0,2.0,0,3.0,3.0,417.24896431,4.0,phase_1,,,,,,,,,,,,,green,flipped triangle
124.0,6.0,2.0,0,3.0,3.0,384.418010712,4.0,phase_1,,,,,,,,,,,,,green,flipped triangle
217.0,7.0,3.0,0,2.0,2.0,467.134952545,4.0,phase_1,,,,,,,,,,,,,orange,hexagon
421.0,4.0,4.0,0,4.0,4.0,350.733041763,4.0,phase_1,,,,,,,,,,,,,yellow,square
0.0,1.0,0.0,0,3.0,3.0,417.528867722,4.0,phase_1,,,,,,,,,,,,,gray,diamond
213.0,7.0,3.0,0,4.0,4.0,334.073066711,4.0,phase_1,,,,,,,,,,,,,orange,hexagon
0.0,1.0,0.0,0,3.0,3.0,351.16600990300003,4.0,phase_1,,,,,,,,,,,,,gray,diamond
0.0,4.0,4.0,0,6.0,6.0,317.589044571,1.0,phase_2,go,250.0,250.0,1.0,,,,,,,,,yellow,square
0.0,1.0,1.0,0,5.0,5.0,333.973884583,1.0,phase_2,go,250.0,250.0,1.0,,,,,,,,,gray,diamond
0.0,7.0,3.0,0,5.0,5.0,350.760936737,1.0,phase_2,go,250.0,250.0,1.0,,,,,,,,,orange,hexagon
0.0,3.0,3.0,1,6.0,6.0,334.228992462,1.0,phase_2,go,250.0,250.0,1.0,,,,,,,,,cyan,line
0.0,2.0,2.0,1,5.0,5.0,300.71711540200005,1.0,phase_2,stop,250.0,250.0,3.0,,,,,,,,,white,circle
0.0,2.0,2.0,1,6.0,6.0,317.481994629,1.0,phase_2,go,250.0,250.0,1.0,,,,,,,,,white,circle
0.0,7.0,3.0,0,6.0,6.0,400.516033173,1.0,phase_2,go,250.0,250.0,1.0,,,,,,,,,orange,hexagon
0.0,3.0,3.0,1,6.0,6.0,434.345960617,1.0,phase_2,go,250.0,250.0,1.0,,,,,,,,,cyan,line
0.0,8.0,4.0,1,6.0,6.0,367.70009994500003,1.0,phase_2,stop,250.0,250.0,3.0,,,,,,,,,blue,cross
0.0,4.0,4.0,0,5.0,5.0,367.47002601599996,1.0,phase_2,go,250.0,250.0,1.0,,,,,,,,,yellow,square
0.0,3.0,3.0,1,6.0,6.0,368.028879166,1.0,phase_2,stop,250.0,200.0,3.0,,,,,,,,,cyan,line
0.0,3.0,3.0,1,6.0,6.0,334.308862686,1.0,phase_2,stop,250.0,150.0,3.0,,,,,,,,,cyan,line
0.0,2.0,2.0,1,5.0,5.0,451.066970825,1.0,phase_2,stop,200.0,150.0,3.0,,,,,,,,,white,circle
0.0,3.0,3.0,1,5.0,0.0,,1.0,phase_2,stop,150.0,150.0,4.0,,,,,,,,,cyan,line
0.0,7.0,3.0,0,5.0,5.0,484.035968781,1.0,phase_2,go,150.0,150.0,1.0,,,,,,,,,orange,hexagon
0.0,3.0,3.0,1,5.0,0.0,,1.0,phase_2,stop,200.0,150.0,4.0,,,,,,,,,cyan,line
0.0,8.0,4.0,1,5.0,5.0,567.8191185,1.0,phase_2,go,200.0,150.0,1.0,,,,,,,,,blue,cross
0.0,7.0,3.0,0,6.0,6.0,367.322921753,1.0,phase_2,go,200.0,150.0,1.0,,,,,,,,,orange,hexagon
0.0,2.0,2.0,1,6.0,0.0,,1.0,phase_2,stop,200.0,100.0,4.0,,,,,,,,,white,circle
0.0,5.0,1.0,1,6.0,0.0,,1.0,phase_2,stop,200.0,150.0,4.0,,,,,,,,,magenta,triangle
0.0,1.0,1.0,0,6.0,6.0,751.116037369,1.0,phase_2,go,200.0,150.0,1.0,,,,,,,,,gray,diamond
0.0,7.0,3.0,0,5.0,5.0,617.94090271,1.0,phase_2,go,200.0,150.0,1.0,,,,,,,,,orange,hexagon
0.0,6.0,2.0,0,5.0,5.0,600.551843643,1.0,phase_2,go,200.0,150.0,1.0,,,,,,,,,green,flipped triangle
0.0,1.0,1.0,0,5.0,5.0,450.842857361,1.0,phase_2,go,200.0,150.0,1.0,,,,,,,,,gray,diamond
0.0,2.0,2.0,1,5.0,5.0,601.428985596,1.0,phase_2,stop,250.0,150.0,3.0,,,,,,,,,white,circle
0.0,4.0,4.0,0,6.0,6.0,450.973987579,1.0,phase_2,go,250.0,150.0,1.0,,,,,,,,,yellow,square
0.0,3.0,3.0,1,6.0,6.0,517.7199840549999,1.0,phase_2,go,250.0,150.0,1.0,,,,,,,,,cyan,line
0.0,4.0,4.0,0,6.0,6.0,483.952045441,1.0,phase_2,go,250.0,150.0,1.0,,,,,,,,,yellow,square
0.0,4.0,4.0,0,5.0,5.0,333.895921707,1.0,phase_2,go,250.0,150.0,1.0,,,,,,,,,yellow,square
0.0,3.0,3.0,1,6.0,6.0,400.699138641,1.0,phase_2,stop,250.0,200.0,3.0,,,,,,,,,cyan,line
0.0,2.0,2.0,1,5.0,5.0,384.21177864099997,1.0,phase_2,stop,200.0,200.0,3.0,,,,,,,,,white,circle
0.0,2.0,2.0,1,5.0,0.0,,1.0,phase_2,stop,150.0,200.0,4.0,,,,,,,,,white,circle
0.0,3.0,3.0,1,6.0,0.0,,1.0,phase_2,stop,150.0,150.0,4.0,,,,,,,,,cyan,line
0.0,1.0,1.0,0,5.0,5.0,867.881059647,1.0,phase_2,go,150.0,150.0,1.0,,,,,,,,,gray,diamond
0.0,2.0,2.0,1,5.0,5.0,534.328222275,1.0,phase_2,stop,200.0,150.0,3.0,,,,,,,,,white,circle
0.0,1.0,1.0,0,6.0,6.0,451.313972473,1.0,phase_2,go,200.0,150.0,1.0,,,,,,,,,gray,diamond
0.0,5.0,1.0,1,6.0,5.0,601.303100586,2.0,phase_2,stop,200.0,200.0,3.0,,,,,,,,,magenta,triangle
0.0,1.0,1.0,0,5.0,5.0,417.522907257,2.0,phase_2,go,200.0,200.0,1.0,,,,,,,,,gray,diamond
0.0,5.0,1.0,1,6.0,6.0,317.150115967,2.0,phase_2,stop,200.0,150.0,3.0,,,,,,,,,magenta,triangle
0.0,5.0,1.0,1,5.0,5.0,500.96297264099996,2.0,phase_2,go,200.0,150.0,1.0,,,,,,,,,magenta,triangle
0.0,1.0,1.0,0,5.0,5.0,367.14887618999995,2.0,phase_2,go,200.0,150.0,1.0,,,,,,,,,gray,diamond
0.0,3.0,3.0,1,5.0,5.0,334.159135818,2.0,phase_2,stop,150.0,150.0,3.0,,,,,,,,,cyan,line
0.0,1.0,1.0,0,5.0,5.0,417.21701622,2.0,phase_2,go,150.0,150.0,1.0,,,,,,,,,gray,diamond
0.0,6.0,2.0,0,6.0,6.0,417.273044586,2.0,phase_2,go,150.0,150.0,1.0,,,,,,,,,green,flipped triangle
0.0,7.0,3.0,0,6.0,6.0,334.09404754599996,2.0,phase_2,go,150.0,150.0,1.0,,,,,,,,,orange,hexagon
0.0,8.0,4.0,1,6.0,6.0,316.965103149,2.0,phase_2,stop,150.0,100.0,3.0,,,,,,,,,blue,cross
0.0,7.0,3.0,0,5.0,5.0,317.253112793,2.0,phase_2,go,150.0,100.0,1.0,,,,,,,,,orange,hexagon
0.0,7.0,3.0,0,5.0,5.0,417.36292839099997,2.0,phase_2,go,150.0,100.0,1.0,,,,,,,,,orange,hexagon
0.0,6.0,2.0,0,6.0,6.0,283.761978149,2.0,phase_2,go,150.0,100.0,1.0,,,,,,,,,green,flipped triangle
0.0,7.0,3.0,0,6.0,6.0,351.239204407,2.0,phase_2,go,150.0,100.0,1.0,,,,,,,,,orange,hexagon
0.0,2.0,2.0,1,5.0,5.0,317.771911621,2.0,phase_2,stop,100.0,100.0,3.0,,,,,,,,,white,circle
0.0,5.0,1.0,1,5.0,0.0,,2.0,phase_2,stop,50.0,100.0,4.0,,,,,,,,,magenta,triangle
0.0,1.0,1.0,0,5.0,5.0,350.823879242,2.0,phase_2,go,50.0,100.0,1.0,,,,,,,,,gray,diamond
0.0,4.0,4.0,0,6.0,6.0,317.6009655,2.0,phase_2,go,50.0,100.0,1.0,,,,,,,,,yellow,square
0.0,5.0,1.0,1,6.0,6.0,366.87922477700005,2.0,phase_2,go,50.0,100.0,1.0,,,,,,,,,magenta,triangle
0.0,3.0,3.0,1,5.0,5.0,284.44314003,2.0,phase_2,stop,100.0,100.0,3.0,,,,,,,,,cyan,line
0.0,8.0,4.0,1,5.0,0.0,,2.0,phase_2,stop,50.0,100.0,4.0,,,,,,,,,blue,cross
0.0,4.0,4.0,0,6.0,6.0,400.650978088,2.0,phase_2,go,50.0,100.0,1.0,,,,,,,,,yellow,square
0.0,6.0,2.0,0,6.0,6.0,350.996017456,2.0,phase_2,go,50.0,100.0,1.0,,,,,,,,,green,flipped triangle
0.0,3.0,3.0,1,5.0,5.0,334.127902985,2.0,phase_2,go,50.0,100.0,1.0,,,,,,,,,cyan,line
0.0,6.0,2.0,0,6.0,6.0,400.761842728,2.0,phase_2,go,50.0,100.0,1.0,,,,,,,,,green,flipped triangle
0.0,8.0,4.0,1,6.0,0.0,,2.0,phase_2,stop,50.0,50.0,4.0,,,,,,,,,blue,cross
0.0,3.0,3.0,1,5.0,5.0,300.981044769,2.0,phase_2,stop,100.0,50.0,3.0,,,,,,,,,cyan,line
0.0,7.0,3.0,0,5.0,5.0,350.51989555399996,2.0,phase_2,go,100.0,50.0,1.0,,,,,,,,,orange,hexagon
0.0,8.0,4.0,1,6.0,6.0,167.288064957,2.0,phase_2,stop,100.0,100.0,3.0,,,,,,,,,blue,cross
0.0,3.0,3.0,1,5.0,5.0,334.342956543,2.0,phase_2,stop,50.0,100.0,3.0,,,,,,,,,cyan,line
0.0,6.0,2.0,0,6.0,6.0,517.549037933,2.0,phase_2,go,50.0,100.0,1.0,,,,,,,,,green,flipped triangle
0.0,8.0,4.0,1,5.0,5.0,384.280920029,2.0,phase_2,stop,1.38777878078e-14,100.0,3.0,,,,,,,,,blue,cross
0.0,1.0,1.0,0,5.0,5.0,651.19099617,2.0,phase_2,go,1.38777878078e-14,100.0,1.0,,,,,,,,,gray,diamond
0.0,4.0,4.0,0,6.0,6.0,300.278902054,2.0,phase_2,go,1.38777878078e-14,100.0,1.0,,,,,,,,,yellow,square
0.0,5.0,1.0,1,6.0,6.0,417.395114899,2.0,phase_2,go,1.38777878078e-14,100.0,1.0,,,,,,,,,magenta,triangle
0.0,7.0,3.0,0,6.0,6.0,317.936897278,2.0,phase_2,go,1.38777878078e-14,100.0,1.0,,,,,,,,,orange,hexagon
0.0,1.0,1.0,0,5.0,5.0,450.857877731,3.0,phase_2,go,1.38777878078e-14,100.0,1.0,,,,,,,,,gray,diamond
0.0,3.0,3.0,1,5.0,0.0,,3.0,phase_2,stop,1.38777878078e-14,100.0,4.0,,,,,,,,,cyan,line
0.0,1.0,1.0,0,6.0,6.0,401.00193023699995,3.0,phase_2,go,1.38777878078e-14,100.0,1.0,,,,,,,,,gray,diamond
0.0,5.0,1.0,1,6.0,6.0,451.33614540099995,3.0,phase_2,go,1.38777878078e-14,100.0,1.0,,,,,,,,,magenta,triangle
0.0,4.0,4.0,0,5.0,5.0,484.570026398,3.0,phase_2,go,1.38777878078e-14,100.0,1.0,,,,,,,,,yellow,square
0.0,3.0,3.0,1,6.0,0.0,,3.0,phase_2,stop,1.38777878078e-14,50.0,4.0,,,,,,,,,cyan,line
0.0,5.0,1.0,1,5.0,0.0,,3.0,phase_2,stop,50.0,50.0,4.0,,,,,,,,,magenta,triangle
0.0,8.0,4.0,1,6.0,0.0,,3.0,phase_2,stop,50.0,100.0,4.0,,,,,,,,,blue,cross
0.0,3.0,3.0,1,6.0,6.0,467.669963837,3.0,phase_2,stop,50.0,150.0,3.0,,,,,,,,,cyan,line
0.0,7.0,3.0,0,5.0,5.0,517.668008804,3.0,phase_2,go,50.0,150.0,1.0,,,,,,,,,orange,hexagon
0.0,6.0,2.0,0,6.0,6.0,451.295137405,3.0,phase_2,go,50.0,150.0,1.0,,,,,,,,,green,flipped triangle
0.0,6.0,2.0,0,5.0,5.0,400.803804398,3.0,phase_2,go,50.0,150.0,1.0,,,,,,,,,green,flipped triangle
0.0,5.0,1.0,1,6.0,0.0,,3.0,phase_2,stop,50.0,100.0,4.0,,,,,,,,,magenta,triangle
0.0,5.0,1.0,1,5.0,0.0,,3.0,phase_2,stop,100.0,100.0,4.0,,,,,,,,,magenta,triangle
0.0,8.0,4.0,1,5.0,0.0,,3.0,phase_2,stop,150.0,100.0,4.0,,,,,,,,,blue,cross
0.0,1.0,1.0,0,6.0,6.0,501.988887787,3.0,phase_2,go,150.0,100.0,1.0,,,,,,,,,gray,diamond
0.0,1.0,1.0,0,6.0,6.0,484.391927719,3.0,phase_2,go,150.0,100.0,1.0,,,,,,,,,gray,diamond
0.0,7.0,3.0,0,5.0,5.0,367.425918579,3.0,phase_2,go,150.0,100.0,1.0,,,,,,,,,orange,hexagon
0.0,5.0,1.0,1,5.0,5.0,400.736093521,3.0,phase_2,stop,200.0,100.0,3.0,,,,,,,,,magenta,triangle
0.0,7.0,3.0,0,6.0,6.0,400.73204040499996,3.0,phase_2,go,200.0,100.0,1.0,,,,,,,,,orange,hexagon
0.0,8.0,4.0,1,5.0,5.0,667.739152908,3.0,phase_2,go,200.0,100.0,1.0,,,,,,,,,blue,cross
0.0,8.0,4.0,1,5.0,0.0,,3.0,phase_2,stop,150.0,100.0,4.0,,,,,,,,,blue,cross
0.0,3.0,3.0,1,6.0,6.0,500.991106033,3.0,phase_2,go,150.0,100.0,1.0,,,,,,,,,cyan,line
0.0,8.0,4.0,1,6.0,6.0,384.379148483,3.0,phase_2,stop,150.0,150.0,3.0,,,,,,,,,blue,cross
0.0,4.0,4.0,0,6.0,6.0,434.406995773,3.0,phase_2,go,150.0,150.0,1.0,,,,,,,,,yellow,square
0.0,4.0,4.0,0,5.0,5.0,384.29093360900004,3.0,phase_2,go,150.0,150.0,1.0,,,,,,,,,yellow,square
0.0,5.0,1.0,1,5.0,5.0,367.41900444,3.0,phase_2,stop,200.0,150.0,3.0,,,,,,,,,magenta,triangle
0.0,5.0,1.0,1,6.0,0.0,,3.0,phase_2,stop,200.0,100.0,4.0,,,,,,,,,magenta,triangle
0.0,6.0,2.0,0,6.0,6.0,434.10587310799997,3.0,phase_2,go,200.0,100.0,1.0,,,,,,,,,green,flipped triangle
0.0,6.0,2.0,0,5.0,5.0,751.790046692,3.0,phase_2,go,200.0,100.0,1.0,,,,,,,,,green,flipped triangle
0.0,6.0,2.0,0,5.0,5.0,400.75302124,3.0,phase_2,go,200.0,100.0,1.0,,,,,,,,,green,flipped triangle
0.0,6.0,2.0,0,6.0,6.0,417.679786682,3.0,phase_2,go,200.0,100.0,1.0,,,,,,,,,green,flipped triangle
0.0,6.0,2.0,0,5.0,5.0,350.833892822,3.0,phase_2,go,200.0,100.0,1.0,,,,,,,,,green,flipped triangle
0.0,2.0,2.0,1,5.0,5.0,367.280006409,3.0,phase_2,stop,150.0,100.0,3.0,,,,,,,,,white,circle
0.0,6.0,2.0,0,6.0,6.0,534.101963043,3.0,phase_2,go,150.0,100.0,1.0,,,,,,,,,green,flipped triangle
0.0,8.0,4.0,1,6.0,0.0,,3.0,phase_2,stop,150.0,150.0,4.0,,,,,,,,,blue,cross
0.0,2.0,2.0,1,5.0,5.0,383.693933487,4.0,phase_2,stop,100.0,150.0,3.0,,,,,,,,,white,circle
0.0,8.0,4.0,1,6.0,0.0,,4.0,phase_2,stop,100.0,200.0,4.0,,,,,,,,,blue,cross
0.0,7.0,3.0,0,6.0,6.0,450.81400871299996,4.0,phase_2,go,100.0,200.0,1.0,,,,,,,,,orange,hexagon
0.0,5.0,1.0,1,5.0,5.0,634.221076965,4.0,phase_2,go,100.0,200.0,1.0,,,,,,,,,magenta,triangle
0.0,2.0,2.0,1,5.0,5.0,500.889062881,4.0,phase_2,go,100.0,200.0,1.0,,,,,,,,,white,circle
0.0,1.0,1.0,0,6.0,6.0,500.85902214099997,4.0,phase_2,go,100.0,200.0,1.0,,,,,,,,,gray,diamond
0.0,5.0,1.0,1,6.0,6.0,434.226989746,4.0,phase_2,stop,100.0,250.0,3.0,,,,,,,,,magenta,triangle
0.0,4.0,4.0,0,6.0,6.0,467.885017395,4.0,phase_2,go,100.0,250.0,1.0,,,,,,,,,yellow,square
0.0,6.0,2.0,0,6.0,6.0,401.350021362,4.0,phase_2,go,100.0,250.0,1.0,,,,,,,,,green,flipped triangle
0.0,2.0,2.0,1,6.0,6.0,367.74301528899997,4.0,phase_2,go,100.0,250.0,1.0,,,,,,,,,white,circle
0.0,5.0,1.0,1,5.0,0.0,,4.0,phase_2,stop,50.0,250.0,4.0,,,,,,,,,magenta,triangle
0.0,6.0,2.0,0,6.0,6.0,467.493057251,4.0,phase_2,go,50.0,250.0,1.0,,,,,,,,,green,flipped triangle
0.0,4.0,4.0,0,5.0,5.0,550.670862198,4.0,phase_2,go,50.0,250.0,1.0,,,,,,,,,yellow,square
0.0,7.0,3.0,0,5.0,5.0,367.45190620399995,4.0,phase_2,go,50.0,250.0,1.0,,,,,,,,,orange,hexagon
0.0,2.0,2.0,1,5.0,5.0,401.352882385,4.0,phase_2,go,50.0,250.0,1.0,,,,,,,,,white,circle
0.0,1.0,1.0,0,5.0,5.0,417.10901260400004,4.0,phase_2,go,50.0,250.0,1.0,,,,,,,,,gray,diamond
0.0,6.0,2.0,0,6.0,6.0,417.444944382,4.0,phase_2,go,50.0,250.0,1.0,,,,,,,,,green,flipped triangle
0.0,4.0,4.0,0,5.0,5.0,317.889213562,4.0,phase_2,go,50.0,250.0,1.0,,,,,,,,,yellow,square
0.0,8.0,4.0,1,5.0,0.0,,4.0,phase_2,stop,100.0,250.0,4.0,,,,,,,,,blue,cross
0.0,6.0,2.0,0,6.0,6.0,350.89898109399996,4.0,phase_2,go,100.0,250.0,1.0,,,,,,,,,green,flipped triangle
0.0,6.0,2.0,0,5.0,5.0,367.446899414,4.0,phase_2,go,100.0,250.0,1.0,,,,,,,,,green,flipped triangle
0.0,7.0,3.0,0,6.0,6.0,467.547893524,4.0,phase_2,go,100.0,250.0,1.0,,,,,,,,,orange,hexagon
0.0,5.0,1.0,1,6.0,6.0,400.73204040499996,4.0,phase_2,stop,100.0,200.0,3.0,,,,,,,,,magenta,triangle
0.0,3.0,3.0,1,6.0,0.0,,4.0,phase_2,stop,100.0,150.0,4.0,,,,,,,,,cyan,line
0.0,5.0,1.0,1,5.0,0.0,,4.0,phase_2,stop,150.0,150.0,4.0,,,,,,,,,magenta,triangle
0.0,7.0,3.0,0,6.0,6.0,434.667110443,4.0,phase_2,go,150.0,150.0,1.0,,,,,,,,,orange,hexagon
0.0,8.0,4.0,1,6.0,6.0,567.712068558,4.0,phase_2,go,150.0,150.0,1.0,,,,,,,,,blue,cross
0.0,3.0,3.0,1,5.0,5.0,467.60892867999996,4.0,phase_2,stop,200.0,150.0,3.0,,,,,,,,,cyan,line
0.0,3.0,3.0,1,6.0,0.0,,4.0,phase_2,stop,200.0,200.0,4.0,,,,,,,,,cyan,line
0.0,1.0,1.0,0,5.0,5.0,618.016004562,4.0,phase_2,go,200.0,200.0,1.0,,,,,,,,,gray,diamond
0.0,4.0,4.0,0,5.0,5.0,401.225090027,4.0,phase_2,go,200.0,200.0,1.0,,,,,,,,,yellow,square
0.0,7.0,3.0,0,5.0,5.0,417.474985123,4.0,phase_2,go,200.0,200.0,1.0,,,,,,,,,orange,hexagon
0.0,7.0,3.0,0,5.0,5.0,367.61021614099997,4.0,phase_2,go,200.0,200.0,1.0,,,,,,,,,orange,hexagon
0.0,2.0,2.0,1,6.0,6.0,384.438991547,4.0,phase_2,stop,200.0,250.0,3.0,,,,,,,,,white,circle
0.0,8.0,4.0,1,5.0,5.0,667.590856552,4.0,phase_2,go,200.0,250.0,1.0,,,,,,,,,blue,cross
0.0,7.0,3.0,0,6.0,6.0,351.00817680399996,4.0,phase_2,go,200.0,250.0,1.0,,,,,,,,,orange,hexagon
0.0,5.0,1.0,1,5.0,5.0,367.660045624,5.0,phase_2,go,200.0,250.0,1.0,,,,,,,,,magenta,triangle
0.0,4.0,4.0,0,6.0,6.0,384.01985168500005,5.0,phase_2,go,200.0,250.0,1.0,,,,,,,,,yellow,square
0.0,6.0,2.0,0,6.0,6.0,384.07421112099996,5.0,phase_2,go,200.0,250.0,1.0,,,,,,,,,green,flipped triangle
0.0,3.0,3.0,1,6.0,6.0,350.771903992,5.0,phase_2,stop,200.0,200.0,3.0,,,,,,,,,cyan,line
0.0,5.0,1.0,1,5.0,5.0,383.939027786,5.0,phase_2,go,200.0,200.0,1.0,,,,,,,,,magenta,triangle
0.0,2.0,2.0,1,6.0,6.0,384.425878525,5.0,phase_2,stop,200.0,150.0,3.0,,,,,,,,,white,circle
0.0,8.0,4.0,1,5.0,0.0,,5.0,phase_2,stop,150.0,150.0,4.0,,,,,,,,,blue,cross
0.0,1.0,1.0,0,6.0,6.0,433.78996849099997,5.0,phase_2,go,150.0,150.0,1.0,,,,,,,,,gray,diamond
0.0,5.0,1.0,1,6.0,6.0,468.07503700300003,5.0,phase_2,go,150.0,150.0,1.0,,,,,,,,,magenta,triangle
0.0,2.0,2.0,1,5.0,5.0,383.873939514,5.0,phase_2,stop,200.0,150.0,3.0,,,,,,,,,white,circle
0.0,4.0,4.0,0,5.0,5.0,634.6161365510001,5.0,phase_2,go,200.0,150.0,1.0,,,,,,,,,yellow,square
0.0,1.0,1.0,0,6.0,6.0,534.2199802399999,5.0,phase_2,go,200.0,150.0,1.0,,,,,,,,,gray,diamond
0.0,8.0,4.0,1,5.0,0.0,,5.0,phase_2,stop,150.0,150.0,4.0,,,,,,,,,blue,cross
0.0,1.0,1.0,0,6.0,6.0,534.3320369720001,5.0,phase_2,go,150.0,150.0,1.0,,,,,,,,,gray,diamond
0.0,2.0,2.0,1,5.0,5.0,600.8629798889999,5.0,phase_2,go,150.0,150.0,1.0,,,,,,,,,white,circle
0.0,2.0,2.0,1,6.0,6.0,500.911951065,5.0,phase_2,go,150.0,150.0,1.0,,,,,,,,,white,circle
0.0,7.0,3.0,0,5.0,5.0,500.47492981,5.0,phase_2,go,150.0,150.0,1.0,,,,,,,,,orange,hexagon
0.0,4.0,4.0,0,5.0,5.0,551.054000854,5.0,phase_2,go,150.0,150.0,1.0,,,,,,,,,yellow,square
0.0,7.0,3.0,0,5.0,5.0,417.159795761,5.0,phase_2,go,150.0,150.0,1.0,,,,,,,,,orange,hexagon
0.0,7.0,3.0,0,6.0,6.0,300.897121429,5.0,phase_2,go,150.0,150.0,1.0,,,,,,,,,orange,hexagon
0.0,4.0,4.0,0,5.0,5.0,417.55986213700004,5.0,phase_2,go,150.0,150.0,1.0,,,,,,,,,yellow,square
0.0,6.0,2.0,0,5.0,5.0,467.543840408,5.0,phase_2,go,150.0,150.0,1.0,,,,,,,,,green,flipped triangle
0.0,8.0,4.0,1,5.0,5.0,368.103981018,5.0,phase_2,go,150.0,150.0,1.0,,,,,,,,,blue,cross
0.0,6.0,2.0,0,6.0,6.0,434.29017066999995,5.0,phase_2,go,150.0,150.0,1.0,,,,,,,,,green,flipped triangle
0.0,1.0,1.0,0,6.0,6.0,434.278011322,5.0,phase_2,go,150.0,150.0,1.0,,,,,,,,,gray,diamond
0.0,7.0,3.0,0,6.0,6.0,367.145061493,5.0,phase_2,go,150.0,150.0,1.0,,,,,,,,,orange,hexagon
0.0,8.0,4.0,1,6.0,6.0,534.2991352079999,5.0,phase_2,go,150.0,150.0,1.0,,,,,,,,,blue,cross
0.0,7.0,3.0,0,5.0,5.0,418.067932129,5.0,phase_2,go,150.0,150.0,1.0,,,,,,,,,orange,hexagon
0.0,6.0,2.0,0,5.0,5.0,384.256124496,5.0,phase_2,go,150.0,150.0,1.0,,,,,,,,,green,flipped triangle
0.0,7.0,3.0,0,6.0,6.0,400.645017624,5.0,phase_2,go,150.0,150.0,1.0,,,,,,,,,orange,hexagon
0.0,1.0,1.0,0,5.0,5.0,433.874130249,5.0,phase_2,go,150.0,150.0,1.0,,,,,,,,,gray,diamond
0.0,6.0,2.0,0,6.0,6.0,400.69603920000003,5.0,phase_2,go,150.0,150.0,1.0,,,,,,,,,green,flipped triangle
0.0,4.0,4.0,0,6.0,6.0,433.624982834,5.0,phase_2,go,150.0,150.0,1.0,,,,,,,,,yellow,square
0.0,1.0,1.0,0,5.0,5.0,351.47595405600003,5.0,phase_2,go,150.0,150.0,1.0,,,,,,,,,gray,diamond
0.0,8.0,4.0,1,5.0,5.0,467.89002418499996,5.0,phase_2,stop,200.0,150.0,3.0,,,,,,,,,blue,cross
0.0,6.0,2.0,0,6.0,6.0,417.87815094,5.0,phase_2,go,200.0,150.0,1.0,,,,,,,,,green,flipped triangle
0.0,3.0,3.0,1,6.0,0.0,,6.0,phase_2,stop,200.0,100.0,4.0,,,,,,,,,cyan,line
0.0,4.0,4.0,0,5.0,5.0,583.950996399,6.0,phase_2,go,200.0,100.0,1.0,,,,,,,,,yellow,square
0.0,5.0,1.0,1,6.0,6.0,417.495965958,6.0,phase_2,go,200.0,100.0,1.0,,,,,,,,,magenta,triangle
0.0,5.0,1.0,1,6.0,0.0,,6.0,phase_2,stop,200.0,150.0,4.0,,,,,,,,,magenta,triangle
0.0,6.0,2.0,0,5.0,5.0,534.2488288879999,6.0,phase_2,go,200.0,150.0,1.0,,,,,,,,,green,flipped triangle
0.0,3.0,3.0,1,5.0,0.0,,6.0,phase_2,stop,150.0,150.0,4.0,,,,,,,,,cyan,line
0.0,1.0,1.0,0,6.0,6.0,433.741092682,6.0,phase_2,go,150.0,150.0,1.0,,,,,,,,,gray,diamond
0.0,8.0,4.0,1,6.0,6.0,450.94203949,6.0,phase_2,go,150.0,150.0,1.0,,,,,,,,,blue,cross
0.0,6.0,2.0,0,6.0,6.0,417.342185974,6.0,phase_2,go,150.0,150.0,1.0,,,,,,,,,green,flipped triangle
0.0,7.0,3.0,0,5.0,5.0,401.041984558,6.0,phase_2,go,150.0,150.0,1.0,,,,,,,,,orange,hexagon
0.0,1.0,1.0,0,5.0,5.0,433.949947357,6.0,phase_2,go,150.0,150.0,1.0,,,,,,,,,gray,diamond
0.0,7.0,3.0,0,6.0,6.0,333.971977234,6.0,phase_2,go,150.0,150.0,1.0,,,,,,,,,orange,hexagon
0.0,5.0,1.0,1,6.0,6.0,367.582082748,6.0,phase_2,stop,150.0,200.0,3.0,,,,,,,,,magenta,triangle
0.0,8.0,4.0,1,5.0,0.0,,6.0,phase_2,stop,200.0,200.0,4.0,,,,,,,,,blue,cross
0.0,7.0,3.0,0,6.0,6.0,584.4669342039999,6.0,phase_2,go,200.0,200.0,1.0,,,,,,,,,orange,hexagon
0.0,8.0,4.0,1,5.0,5.0,534.207105637,6.0,phase_2,go,200.0,200.0,1.0,,,,,,,,,blue,cross
0.0,4.0,4.0,0,5.0,5.0,617.060899734,6.0,phase_2,go,200.0,200.0,1.0,,,,,,,,,yellow,square
0.0,4.0,4.0,0,5.0,5.0,617.089986801,6.0,phase_2,go,200.0,200.0,1.0,,,,,,,,,yellow,square
0.0,5.0,1.0,1,6.0,0.0,,6.0,phase_2,stop,200.0,150.0,4.0,,,,,,,,,magenta,triangle
0.0,8.0,4.0,1,6.0,0.0,,6.0,phase_2,stop,200.0,200.0,4.0,,,,,,,,,blue,cross
0.0,2.0,2.0,1,5.0,5.0,450.77013969399997,6.0,phase_2,go,200.0,200.0,1.0,,,,,,,,,white,circle
0.0,3.0,3.0,1,5.0,5.0,501.01900100700004,6.0,phase_2,go,200.0,200.0,1.0,,,,,,,,,cyan,line
0.0,3.0,3.0,1,5.0,5.0,400.76899528499996,6.0,phase_2,stop,250.0,200.0,3.0,,,,,,,,,cyan,line
0.0,4.0,4.0,0,6.0,6.0,517.774820328,6.0,phase_2,go,250.0,200.0,1.0,,,,,,,,,yellow,square
0.0,7.0,3.0,0,6.0,6.0,467.41294860799997,6.0,phase_2,go,250.0,200.0,1.0,,,,,,,,,orange,hexagon
0.0,5.0,1.0,1,6.0,0.0,,6.0,phase_2,stop,250.0,250.0,4.0,,,,,,,,,magenta,triangle
0.0,7.0,3.0,0,5.0,5.0,517.490148544,6.0,phase_2,go,250.0,250.0,1.0,,,,,,,,,orange,hexagon
0.0,1.0,1.0,0,6.0,6.0,484.57384109500003,6.0,phase_2,go,250.0,250.0,1.0,,,,,,,,,gray,diamond
0.0,3.0,3.0,1,5.0,0.0,,6.0,phase_2,stop,200.0,250.0,4.0,,,,,,,,,cyan,line
0.0,4.0,4.0,0,5.0,5.0,567.812919617,6.0,phase_2,go,200.0,250.0,1.0,,,,,,,,,yellow,square
0.0,5.0,1.0,1,6.0,6.0,384.375095367,6.0,phase_2,stop,200.0,300.0,3.0,,,,,,,,,magenta,triangle
0.0,1.0,1.0,0,6.0,6.0,550.764083862,6.0,phase_2,go,200.0,300.0,1.0,,,,,,,,,gray,diamond
0.0,2.0,2.0,1,5.0,5.0,467.57888793899997,6.0,phase_2,stop,250.0,300.0,3.0,,,,,,,,,white,circle
0.0,6.0,2.0,0,5.0,5.0,667.523145676,6.0,phase_2,go,250.0,300.0,1.0,,,,,,,,,green,flipped triangle
0.0,7.0,3.0,0,5.0,5.0,617.994070053,6.0,phase_2,go,250.0,300.0,1.0,,,,,,,,,orange,hexagon
0.0,1.0,1.0,0,6.0,6.0,534.340143204,6.0,phase_2,go,250.0,300.0,1.0,,,,,,,,,gray,diamond
0.0,4.0,4.0,0,5.0,5.0,417.87695884699997,7.0,phase_2,go,250.0,300.0,1.0,,,,,,,,,yellow,square
0.0,2.0,2.0,1,6.0,6.0,367.80309677099996,7.0,phase_2,stop,250.0,250.0,3.0,,,,,,,,,white,circle
0.0,2.0,2.0,1,6.0,0.0,,7.0,phase_2,stop,250.0,200.0,4.0,,,,,,,,,white,circle
0.0,3.0,3.0,1,6.0,0.0,,7.0,phase_2,stop,250.0,250.0,4.0,,,,,,,,,cyan,line
0.0,1.0,1.0,0,5.0,5.0,417.90008544899996,7.0,phase_2,go,250.0,250.0,1.0,,,,,,,,,gray,diamond
0.0,1.0,1.0,0,5.0,5.0,751.313924789,7.0,phase_2,go,250.0,250.0,1.0,,,,,,,,,gray,diamond
0.0,5.0,1.0,1,6.0,6.0,501.204967499,7.0,phase_2,stop,250.0,300.0,3.0,,,,,,,,,magenta,triangle
0.0,2.0,2.0,1,5.0,5.0,868.268966675,7.0,phase_2,go,250.0,300.0,1.0,,,,,,,,,white,circle
0.0,4.0,4.0,0,5.0,5.0,517.256975174,7.0,phase_2,go,250.0,300.0,1.0,,,,,,,,,yellow,square
0.0,7.0,3.0,0,6.0,6.0,667.8471565250001,7.0,phase_2,go,250.0,300.0,1.0,,,,,,,,,orange,hexagon
0.0,6.0,2.0,0,5.0,5.0,500.79798698400003,7.0,phase_2,go,250.0,300.0,1.0,,,,,,,,,green,flipped triangle
0.0,4.0,4.0,0,6.0,6.0,600.9719371799999,7.0,phase_2,go,250.0,300.0,1.0,,,,,,,,,yellow,square
0.0,5.0,1.0,1,5.0,5.0,384.023189545,7.0,phase_2,stop,200.0,300.0,3.0,,,,,,,,,magenta,triangle
0.0,1.0,1.0,0,6.0,6.0,701.5140056609999,7.0,phase_2,go,200.0,300.0,1.0,,,,,,,,,gray,diamond
0.0,4.0,4.0,0,5.0,5.0,517.632961273,7.0,phase_2,go,200.0,300.0,1.0,,,,,,,,,yellow,square
0.0,5.0,1.0,1,6.0,6.0,467.422008514,7.0,phase_2,stop,200.0,250.0,3.0,,,,,,,,,magenta,triangle
0.0,6.0,2.0,0,6.0,6.0,684.3969821930001,7.0,phase_2,go,200.0,250.0,1.0,,,,,,,,,green,flipped triangle
0.0,8.0,4.0,1,5.0,0.0,,7.0,phase_2,stop,150.0,250.0,4.0,,,,,,,,,blue,cross
0.0,1.0,1.0,0,5.0,5.0,650.830030441,7.0,phase_2,go,150.0,250.0,1.0,,,,,,,,,gray,diamond
0.0,6.0,2.0,0,5.0,5.0,550.9469509119999,7.0,phase_2,go,150.0,250.0,1.0,,,,,,,,,green,flipped triangle
0.0,2.0,2.0,1,5.0,0.0,,7.0,phase_2,stop,200.0,250.0,4.0,,,,,,,,,white,circle
0.0,8.0,4.0,1,5.0,0.0,,7.0,phase_2,stop,250.0,250.0,4.0,,,,,,,,,blue,cross
0.0,2.0,2.0,1,6.0,0.0,,7.0,phase_2,stop,250.0,200.0,4.0,,,,,,,,,white,circle
0.0,7.0,3.0,0,5.0,5.0,651.2060165409999,7.0,phase_2,go,250.0,200.0,1.0,,,,,,,,,orange,hexagon
0.0,2.0,2.0,1,6.0,0.0,,7.0,phase_2,stop,250.0,250.0,4.0,,,,,,,,,white,circle
0.0,6.0,2.0,0,5.0,5.0,584.234952927,7.0,phase_2,go,250.0,250.0,1.0,,,,,,,,,green,flipped triangle
0.0,6.0,2.0,0,6.0,6.0,467.413902283,7.0,phase_2,go,250.0,250.0,1.0,,,,,,,,,green,flipped triangle
0.0,2.0,2.0,1,6.0,0.0,,7.0,phase_2,stop,250.0,300.0,4.0,,,,,,,,,white,circle
0.0,3.0,3.0,1,5.0,5.0,617.771148682,7.0,phase_2,go,250.0,300.0,1.0,,,,,,,,,cyan,line
0.0,3.0,3.0,1,6.0,0.0,,7.0,phase_2,stop,250.0,350.0,4.0,,,,,,,,,cyan,line
0.0,5.0,1.0,1,5.0,0.0,,7.0,phase_2,stop,300.0,350.0,4.0,,,,,,,,,magenta,triangle
0.0,3.0,3.0,1,6.0,0.0,,7.0,phase_2,stop,300.0,400.0,4.0,,,,,,,,,cyan,line
0.0,8.0,4.0,1,6.0,0.0,,7.0,phase_2,stop,300.0,450.0,4.0,,,,,,,,,blue,cross
0.0,2.0,2.0,1,6.0,6.0,667.769908905,7.0,phase_2,stop,300.0,500.0,3.0,,,,,,,,,white,circle
0.0,8.0,4.0,1,6.0,6.0,717.9079055789999,7.0,phase_2,go,300.0,500.0,1.0,,,,,,,,,blue,cross
0.0,2.0,2.0,1,5.0,0.0,,7.0,phase_2,stop,350.0,500.0,4.0,,,,,,,,,white,circle
0.0,8.0,4.0,1,5.0,5.0,401.074886322,8.0,phase_2,stop,400.0,500.0,3.0,,,,,,,,,blue,cross
0.0,5.0,1.0,1,5.0,0.0,,8.0,phase_2,stop,350.0,500.0,4.0,,,,,,,,,magenta,triangle
0.0,5.0,1.0,1,6.0,6.0,617.85197258,8.0,phase_2,stop,350.0,450.0,3.0,,,,,,,,,magenta,triangle
0.0,2.0,2.0,1,5.0,0.0,,8.0,phase_2,stop,400.0,450.0,4.0,,,,,,,,,white,circle
0.0,3.0,3.0,1,6.0,0.0,,8.0,phase_2,stop,400.0,400.0,4.0,,,,,,,,,cyan,line
0.0,1.0,1.0,0,5.0,0.0,,8.0,phase_2,go,400.0,400.0,5.0,,,,,,,,,gray,diamond
0.0,2.0,2.0,1,5.0,0.0,,8.0,phase_2,stop,450.0,400.0,4.0,,,,,,,,,white,circle
0.0,4.0,4.0,0,6.0,6.0,617.130041122,8.0,phase_2,go,450.0,400.0,1.0,,,,,,,,,yellow,square
0.0,4.0,4.0,0,6.0,6.0,784.4948768620001,8.0,phase_2,go,450.0,400.0,1.0,,,,,,,,,yellow,square
0.0,5.0,1.0,1,5.0,0.0,,8.0,phase_2,stop,500.0,400.0,4.0,,,,,,,,,magenta,triangle
0.0,5.0,1.0,1,5.0,0.0,,8.0,phase_2,stop,550.0,400.0,4.0,,,,,,,,,magenta,triangle
0.0,4.0,4.0,0,6.0,6.0,750.8289814,8.0,phase_2,go,550.0,400.0,1.0,,,,,,,,,yellow,square
0.0,2.0,2.0,1,5.0,5.0,634.299039841,8.0,phase_2,stop,600.0,400.0,3.0,,,,,,,,,white,circle
0.0,1.0,1.0,0,5.0,5.0,767.958879471,8.0,phase_2,go,600.0,400.0,1.0,,,,,,,,,gray,diamond
0.0,6.0,2.0,0,6.0,6.0,634.658098221,8.0,phase_2,go,600.0,400.0,1.0,,,,,,,,,green,flipped triangle
0.0,8.0,4.0,1,6.0,6.0,667.8631305690001,8.0,phase_2,stop,600.0,450.0,3.0,,,,,,,,,blue,cross
0.0,4.0,4.0,0,5.0,5.0,884.212970734,8.0,phase_2,go,600.0,450.0,1.0,,,,,,,,,yellow,square
0.0,4.0,4.0,0,5.0,5.0,701.07793808,8.0,phase_2,go,600.0,450.0,1.0,,,,,,,,,yellow,square
0.0,3.0,3.0,1,5.0,5.0,700.89507103,8.0,phase_2,stop,550.0,450.0,3.0,,,,,,,,,cyan,line
0.0,8.0,4.0,1,6.0,0.0,,8.0,phase_2,stop,550.0,400.0,4.0,,,,,,,,,blue,cross
0.0,6.0,2.0,0,6.0,6.0,767.614126205,8.0,phase_2,go,550.0,400.0,1.0,,,,,,,,,green,flipped triangle
0.0,3.0,3.0,1,5.0,5.0,651.265144348,8.0,phase_2,go,550.0,400.0,1.0,,,,,,,,,cyan,line
0.0,6.0,2.0,0,6.0,6.0,784.1980457310001,8.0,phase_2,go,550.0,400.0,1.0,,,,,,,,,green,flipped triangle
0.0,7.0,3.0,0,6.0,6.0,550.884962082,8.0,phase_2,go,550.0,400.0,1.0,,,,,,,,,orange,hexagon
0.0,8.0,4.0,1,5.0,5.0,401.285886765,8.0,phase_2,stop,500.0,400.0,3.0,,,,,,,,,blue,cross
0.0,1.0,1.0,0,6.0,6.0,651.237010956,8.0,phase_2,go,500.0,400.0,1.0,,,,,,,,,gray,diamond
0.0,8.0,4.0,1,6.0,6.0,550.805091858,8.0,phase_2,stop,500.0,450.0,3.0,,,,,,,,,blue,cross
0.0,4.0,4.0,0,6.0,6.0,717.7491188050001,8.0,phase_2,go,500.0,450.0,1.0,,,,,,,,,yellow,square
0.0,2.0,2.0,1,5.0,0.0,,8.0,phase_2,stop,450.0,450.0,4.0,,,,,,,,,white,circle
0.0,2.0,2.0,1,6.0,0.0,,8.0,phase_2,stop,450.0,400.0,4.0,,,,,,,,,white,circle
0.0,3.0,3.0,1,5.0,0.0,,8.0,phase_2,stop,500.0,400.0,4.0,,,,,,,,,cyan,line
0.0,1.0,1.0,0,6.0,6.0,968.248844147,8.0,phase_2,go,500.0,400.0,1.0,,,,,,,,,gray,diamond
0.0,4.0,4.0,0,6.0,6.0,600.858211517,8.0,phase_2,go,500.0,400.0,1.0,,,,,,,,,yellow,square
0.0,8.0,4.0,1,6.0,0.0,,8.0,phase_2,stop,500.0,450.0,4.0,,,,,,,,,blue,cross
0.0,3.0,3.0,1,5.0,5.0,901.817083359,8.0,phase_2,go,500.0,450.0,1.0,,,,,,,,,cyan,line
0.0,2.0,2.0,1,5.0,5.0,684.57698822,8.0,phase_2,go,500.0,450.0,1.0,,,,,,,,,white,circle
0.0,3.0,3.0,1,7.0,2.0,4188.235998149999,1.0,phase_3,,,,,264.0,6.0,88.0,264.0,220.0,132.0,44.0,176.0,cyan,line
0.0,7.0,3.0,0,7.0,,,1.0,phase_3,,,,,0.0,,44.0,132.0,264.0,220.0,88.0,176.0,orange,hexagon
0.0,4.0,4.0,0,7.0,4.0,3637.78996468,1.0,phase_3,,,,,294.0,6.0,147.0,196.0,49.0,294.0,245.0,98.0,yellow,square
0.0,2.0,2.0,1,7.0,2.0,2986.5260124200004,1.0,phase_3,,,,,98.0,2.0,49.0,98.0,147.0,196.0,245.0,294.0,white,circle
0.0,1.0,1.0,0,7.0,6.0,1468.38498116,1.0,phase_3,,,,,44.0,1.0,88.0,132.0,220.0,264.0,176.0,44.0,gray,diamond
0.0,5.0,1.0,1,7.0,1.0,1501.9989013699999,1.0,phase_3,,,,,49.0,1.0,49.0,245.0,294.0,147.0,196.0,98.0,magenta,triangle
0.0,7.0,3.0,0,7.0,2.0,600.7740497589999,1.0,phase_3,,,,,196.0,4.0,245.0,196.0,294.0,49.0,147.0,98.0,orange,hexagon
0.0,6.0,2.0,0,7.0,3.0,450.714111328,1.0,phase_3,,,,,88.0,2.0,132.0,264.0,88.0,220.0,44.0,176.0,green,flipped triangle
0.0,7.0,3.0,0,7.0,4.0,1151.47209167,1.0,phase_3,,,,,170.0,5.0,204.0,68.0,102.0,170.0,136.0,34.0,orange,hexagon
0.0,4.0,4.0,0,7.0,5.0,500.48804283100003,1.0,phase_3,,,,,195.0,5.0,78.0,156.0,39.0,117.0,195.0,234.0,yellow,square
0.0,1.0,1.0,0,7.0,6.0,367.394924164,1.0,phase_3,,,,,294.0,6.0,196.0,245.0,49.0,147.0,98.0,294.0,gray,diamond
0.0,4.0,4.0,0,7.0,6.0,500.54693222000003,1.0,phase_3,,,,,34.0,1.0,102.0,68.0,170.0,136.0,204.0,34.0,yellow,square
0.0,8.0,4.0,1,7.0,5.0,783.8058471679999,1.0,phase_3,,,,,49.0,1.0,98.0,294.0,245.0,196.0,49.0,147.0,blue,cross
0.0,1.0,1.0,0,7.0,4.0,317.65794754,1.0,phase_3,,,,,34.0,1.0,102.0,204.0,68.0,34.0,170.0,136.0,gray,diamond
0.0,4.0,4.0,0,7.0,3.0,584.012031555,1.0,phase_3,,,,,132.0,3.0,88.0,44.0,132.0,220.0,176.0,264.0,yellow,square
0.0,2.0,2.0,1,7.0,2.0,417.510032654,1.0,phase_3,,,,,117.0,3.0,78.0,117.0,234.0,39.0,156.0,195.0,white,circle
0.0,7.0,3.0,0,7.0,1.0,567.219018936,1.0,phase_3,,,,,220.0,5.0,220.0,132.0,176.0,88.0,44.0,264.0,orange,hexagon
0.0,3.0,3.0,1,7.0,2.0,1869.14205551,1.0,phase_3,,,,,136.0,4.0,68.0,136.0,204.0,102.0,170.0,34.0,cyan,line
0.0,6.0,2.0,0,7.0,2.0,1267.97795296,1.0,phase_3,,,,,234.0,6.0,156.0,234.0,78.0,117.0,39.0,195.0,green,flipped triangle
0.0,2.0,2.0,1,7.0,1.0,1084.4419002500001,1.0,phase_3,,,,,204.0,6.0,204.0,136.0,102.0,170.0,34.0,68.0,white,circle
0.0,2.0,2.0,1,7.0,4.0,1852.16188431,2.0,phase_3,,,,,294.0,6.0,196.0,49.0,98.0,294.0,245.0,147.0,white,circle
0.0,7.0,3.0,0,7.0,5.0,434.144973755,2.0,phase_3,,,,,39.0,1.0,156.0,78.0,195.0,234.0,39.0,117.0,orange,hexagon
0.0,3.0,3.0,1,7.0,6.0,366.899967194,2.0,phase_3,,,,,98.0,2.0,196.0,49.0,294.0,245.0,147.0,98.0,cyan,line
0.0,1.0,1.0,0,7.0,4.0,567.487001419,2.0,phase_3,,,,,34.0,1.0,204.0,68.0,170.0,34.0,136.0,102.0,gray,diamond
0.0,2.0,2.0,1,7.0,5.0,334.12289619399996,2.0,phase_3,,,,,264.0,6.0,220.0,132.0,88.0,176.0,264.0,44.0,white,circle
0.0,8.0,4.0,1,7.0,3.0,133.349895477,2.0,phase_3,,,,,49.0,1.0,294.0,245.0,49.0,147.0,196.0,98.0,blue,cross
0.0,6.0,2.0,0,7.0,2.0,417.369842529,2.0,phase_3,,,,,245.0,5.0,294.0,245.0,49.0,147.0,98.0,196.0,green,flipped triangle
0.0,3.0,3.0,1,7.0,1.0,500.98204612700005,2.0,phase_3,,,,,204.0,6.0,204.0,68.0,102.0,170.0,136.0,34.0,cyan,line
0.0,7.0,3.0,0,7.0,2.0,383.735895157,2.0,phase_3,,,,,216.0,4.0,324.0,216.0,108.0,270.0,54.0,162.0,orange,hexagon
0.0,5.0,1.0,1,7.0,1.0,617.355823517,2.0,phase_3,,,,,264.0,6.0,264.0,44.0,176.0,132.0,88.0,220.0,magenta,triangle
0.0,8.0,4.0,1,7.0,3.0,667.6840782170001,2.0,phase_3,,,,,234.0,6.0,39.0,156.0,234.0,78.0,195.0,117.0,blue,cross
0.0,8.0,4.0,1,7.0,4.0,567.50702858,2.0,phase_3,,,,,78.0,2.0,234.0,117.0,156.0,78.0,39.0,195.0,blue,cross
0.0,8.0,4.0,1,7.0,5.0,417.27495193500005,2.0,phase_3,,,,,34.0,1.0,102.0,170.0,68.0,204.0,34.0,136.0,blue,cross
0.0,1.0,1.0,0,7.0,6.0,416.943073273,2.0,phase_3,,,,,234.0,6.0,195.0,78.0,117.0,39.0,156.0,234.0,gray,diamond
0.0,4.0,4.0,0,7.0,5.0,884.286880493,2.0,phase_3,,,,,195.0,5.0,78.0,39.0,234.0,156.0,195.0,117.0,yellow,square
0.0,7.0,3.0,0,7.0,4.0,418.03693771400003,2.0,phase_3,,,,,34.0,1.0,136.0,170.0,102.0,34.0,204.0,68.0,orange,hexagon
0.0,5.0,1.0,1,7.0,3.0,317.540884018,2.0,phase_3,,,,,132.0,3.0,88.0,176.0,132.0,220.0,44.0,264.0,magenta,triangle
0.0,5.0,1.0,1,7.0,2.0,333.760023117,2.0,phase_3,,,,,195.0,5.0,78.0,195.0,156.0,117.0,39.0,234.0,magenta,triangle
0.0,8.0,4.0,1,7.0,1.0,333.607912064,2.0,phase_3,,,,,88.0,2.0,88.0,132.0,220.0,176.0,44.0,264.0,blue,cross
0.0,4.0,4.0,0,7.0,2.0,233.295917511,2.0,phase_3,,,,,264.0,6.0,44.0,264.0,88.0,132.0,220.0,176.0,yellow,square
0.0,2.0,2.0,1,7.0,4.0,1351.64999962,3.0,phase_3,,,,,234.0,6.0,78.0,39.0,156.0,234.0,117.0,195.0,white,circle
0.0,8.0,4.0,1,7.0,5.0,634.722948074,3.0,phase_3,,,,,264.0,6.0,88.0,44.0,132.0,220.0,264.0,176.0,blue,cross
0.0,5.0,1.0,1,7.0,1.0,333.732843399,3.0,phase_3,,,,,270.0,5.0,270.0,324.0,216.0,54.0,162.0,108.0,magenta,triangle
0.0,1.0,1.0,0,7.0,2.0,450.262069702,3.0,phase_3,,,,,108.0,2.0,270.0,108.0,324.0,162.0,216.0,54.0,gray,diamond
0.0,5.0,1.0,1,7.0,3.0,783.777952194,3.0,phase_3,,,,,170.0,5.0,34.0,102.0,170.0,68.0,136.0,204.0,magenta,triangle
0.0,3.0,3.0,1,7.0,4.0,83.7190151215,3.0,phase_3,,,,,324.0,6.0,54.0,108.0,162.0,324.0,270.0,216.0,cyan,line
0.0,5.0,1.0,1,7.0,5.0,350.294113159,3.0,phase_3,,,,,102.0,3.0,204.0,34.0,170.0,68.0,102.0,136.0,magenta,triangle
0.0,7.0,3.0,0,7.0,6.0,133.038043976,3.0,phase_3,,,,,245.0,5.0,147.0,49.0,294.0,98.0,196.0,245.0,orange,hexagon
0.0,8.0,4.0,1,7.0,5.0,167.14286804199998,3.0,phase_3,,,,,162.0,3.0,54.0,108.0,270.0,216.0,162.0,324.0,blue,cross
0.0,6.0,2.0,0,7.0,3.0,16.219139099099998,3.0,phase_3,,,,,102.0,3.0,34.0,204.0,102.0,136.0,68.0,170.0,green,flipped triangle
0.0,7.0,3.0,0,7.0,3.0,284.31892395,3.0,phase_3,,,,,54.0,1.0,162.0,216.0,54.0,324.0,108.0,270.0,orange,hexagon
0.0,1.0,1.0,0,7.0,2.0,500.615119934,3.0,phase_3,,,,,132.0,3.0,220.0,132.0,176.0,88.0,264.0,44.0,gray,diamond
0.0,5.0,1.0,1,7.0,1.0,150.37608146699998,3.0,phase_3,,,,,147.0,3.0,147.0,98.0,294.0,245.0,49.0,196.0,magenta,triangle
0.0,2.0,2.0,1,7.0,1.0,300.321102142,3.0,phase_3,,,,,54.0,1.0,54.0,108.0,324.0,216.0,162.0,270.0,white,circle
0.0,8.0,4.0,1,7.0,2.0,50.7709980011,3.0,phase_3,,,,,108.0,2.0,324.0,108.0,216.0,162.0,54.0,270.0,blue,cross
0.0,4.0,4.0,0,7.0,3.0,300.59194564800003,3.0,phase_3,,,,,162.0,3.0,324.0,270.0,162.0,216.0,108.0,54.0,yellow,square
0.0,3.0,3.0,1,7.0,4.0,116.795063019,3.0,phase_3,,,,,270.0,5.0,216.0,108.0,54.0,270.0,324.0,162.0,cyan,line
0.0,5.0,1.0,1,7.0,5.0,16.5579319,3.0,phase_3,,,,,117.0,3.0,156.0,39.0,195.0,234.0,117.0,78.0,magenta,triangle
0.0,4.0,4.0,0,7.0,6.0,183.519124985,3.0,phase_3,,,,,34.0,1.0,68.0,102.0,136.0,170.0,204.0,34.0,yellow,square
0.0,2.0,2.0,1,7.0,5.0,150.10595321699998,3.0,phase_3,,,,,136.0,4.0,170.0,68.0,204.0,34.0,136.0,102.0,white,circle
0.0,6.0,2.0,0,7.0,1.0,1184.5729351,4.0,phase_3,,,,,270.0,5.0,270.0,324.0,54.0,108.0,162.0,216.0,green,flipped triangle
0.0,3.0,3.0,1,7.0,6.0,417.35696792600004,4.0,phase_3,,,,,132.0,3.0,264.0,220.0,176.0,88.0,44.0,132.0,cyan,line
0.0,7.0,3.0,0,7.0,5.0,1502.30813026,4.0,phase_3,,,,,234.0,6.0,156.0,117.0,39.0,195.0,234.0,78.0,orange,hexagon
0.0,6.0,2.0,0,7.0,5.0,249.99880790699999,4.0,phase_3,,,,,88.0,2.0,176.0,44.0,220.0,132.0,88.0,264.0,green,flipped triangle
0.0,2.0,2.0,1,7.0,2.0,400.44808387800003,4.0,phase_3,,,,,216.0,4.0,324.0,216.0,270.0,162.0,108.0,54.0,white,circle
0.0,1.0,1.0,0,7.0,3.0,383.772134781,4.0,phase_3,,,,,98.0,2.0,294.0,196.0,98.0,147.0,245.0,49.0,gray,diamond
0.0,8.0,4.0,1,7.0,1.0,500.62513351399997,4.0,phase_3,,,,,68.0,2.0,68.0,34.0,170.0,102.0,204.0,136.0,blue,cross
0.0,3.0,3.0,1,7.0,6.0,434.18598175,4.0,phase_3,,,,,294.0,6.0,245.0,196.0,98.0,49.0,147.0,294.0,cyan,line
0.0,1.0,1.0,0,7.0,4.0,333.86182785,4.0,phase_3,,,,,117.0,3.0,78.0,234.0,39.0,117.0,156.0,195.0,gray,diamond
0.0,4.0,4.0,0,7.0,5.0,250.39696693399998,4.0,phase_3,,,,,162.0,3.0,108.0,54.0,324.0,216.0,162.0,270.0,yellow,square
0.0,6.0,2.0,0,7.0,2.0,550.838947296,4.0,phase_3,,,,,78.0,2.0,117.0,78.0,195.0,156.0,234.0,39.0,green,flipped triangle
0.0,6.0,2.0,0,7.0,3.0,668.100833893,4.0,phase_3,,,,,49.0,1.0,294.0,245.0,49.0,98.0,196.0,147.0,green,flipped triangle
0.0,6.0,2.0,0,7.0,3.0,767.696142197,4.0,phase_3,,,,,54.0,1.0,324.0,162.0,54.0,216.0,108.0,270.0,green,flipped triangle
0.0,3.0,3.0,1,7.0,2.0,400.782108307,4.0,phase_3,,,,,156.0,4.0,195.0,156.0,39.0,234.0,117.0,78.0,cyan,line
0.0,5.0,1.0,1,7.0,1.0,150.21181106600002,4.0,phase_3,,,,,108.0,2.0,108.0,216.0,324.0,162.0,54.0,270.0,magenta,triangle
0.0,3.0,3.0,1,7.0,6.0,1118.28994751,4.0,phase_3,,,,,234.0,6.0,117.0,78.0,195.0,156.0,39.0,234.0,cyan,line
0.0,4.0,4.0,0,7.0,3.0,400.828123093,4.0,phase_3,,,,,147.0,3.0,49.0,294.0,147.0,196.0,245.0,98.0,yellow,square
0.0,6.0,2.0,0,7.0,6.0,567.458868027,4.0,phase_3,,,,,68.0,2.0,204.0,102.0,34.0,136.0,170.0,68.0,green,flipped triangle
0.0,1.0,1.0,0,7.0,4.0,83.652973175,4.0,phase_3,,,,,270.0,5.0,162.0,324.0,216.0,270.0,54.0,108.0,gray,diamond
0.0,2.0,2.0,1,7.0,1.0,33.5650444031,4.0,phase_3,,,,,264.0,6.0,264.0,88.0,220.0,176.0,44.0,132.0,white,circle
