raw_reward_magnitude,stim_reward,stepwise_reward_magnitude,paired_with_stopping,stim_location,response,reaction_time,block,which_phase,stop_signal_trial_type,left_SSD,right_SSD,accuracy,chosen_bidding_amount,chosen_bidding_level,possible_bid_1,possible_bid_2,possible_bid_3,possible_bid_4,possible_bid_5,possible_bid_6,color_text,shape_text
107.0,2.0,1.0,1,2.0,2.0,634.492874146,1.0,phase_1,,,,,,,,,,,,,white,square
376.0,4.0,4.0,0,2.0,2.0,384.747982025,1.0,phase_1,,,,,,,,,,,,,magenta,hexagon
412.0,4.0,4.0,0,1.0,1.0,550.9109497070001,1.0,phase_1,,,,,,,,,,,,,magenta,hexagon
0.0,3.0,0.0,0,3.0,3.0,367.705106735,1.0,phase_1,,,,,,,,,,,,,green,circle
94.0,2.0,1.0,1,1.0,1.0,334.19990539599996,1.0,phase_1,,,,,,,,,,,,,white,square
0.0,4.0,0.0,0,3.0,3.0,350.845098495,1.0,phase_1,,,,,,,,,,,,,magenta,hexagon
199.0,3.0,2.0,0,3.0,3.0,384.24706459000004,1.0,phase_1,,,,,,,,,,,,,green,circle
62.0,1.0,0.5,0,2.0,2.0,300.525903702,1.0,phase_1,,,,,,,,,,,,,yellow,cross
412.0,4.0,4.0,0,2.0,2.0,350.742101669,1.0,phase_1,,,,,,,,,,,,,magenta,hexagon
219.0,7.0,2.0,1,1.0,1.0,316.986083984,1.0,phase_1,,,,,,,,,,,,,cyan,flipped triangle
46.0,1.0,0.5,0,2.0,2.0,451.610088348,1.0,phase_1,,,,,,,,,,,,,yellow,cross
111.0,6.0,1.0,0,4.0,4.0,417.335987091,1.0,phase_1,,,,,,,,,,,,,gray,diamond
52.0,1.0,0.5,0,3.0,3.0,384.37795639,1.0,phase_1,,,,,,,,,,,,,yellow,cross
0.0,6.0,0.0,0,2.0,2.0,350.843191147,1.0,phase_1,,,,,,,,,,,,,gray,diamond
26.0,1.0,0.5,0,4.0,4.0,467.368125916,1.0,phase_1,,,,,,,,,,,,,yellow,cross
193.0,7.0,2.0,1,3.0,3.0,401.300191879,1.0,phase_1,,,,,,,,,,,,,cyan,flipped triangle
390.0,4.0,4.0,0,2.0,2.0,517.8039073939999,1.0,phase_1,,,,,,,,,,,,,magenta,hexagon
92.0,6.0,1.0,0,1.0,1.0,401.404857635,1.0,phase_1,,,,,,,,,,,,,gray,diamond
0.0,3.0,0.0,0,2.0,2.0,417.621135712,1.0,phase_1,,,,,,,,,,,,,green,circle
97.0,6.0,1.0,0,1.0,1.0,434.454917908,1.0,phase_1,,,,,,,,,,,,,gray,diamond
414.0,4.0,4.0,0,2.0,2.0,367.560863495,1.0,phase_1,,,,,,,,,,,,,magenta,hexagon
0.0,7.0,0.0,1,2.0,2.0,384.256124496,1.0,phase_1,,,,,,,,,,,,,cyan,flipped triangle
387.0,8.0,4.0,1,2.0,2.0,367.673873901,1.0,phase_1,,,,,,,,,,,,,orange,line
29.0,5.0,0.5,1,4.0,4.0,417.528867722,1.0,phase_1,,,,,,,,,,,,,blue,triangle
420.0,4.0,4.0,0,4.0,4.0,501.08599662800003,1.0,phase_1,,,,,,,,,,,,,magenta,hexagon
101.0,6.0,1.0,0,3.0,3.0,434.15307998699996,1.0,phase_1,,,,,,,,,,,,,gray,diamond
42.0,1.0,0.5,0,3.0,3.0,401.154994965,1.0,phase_1,,,,,,,,,,,,,yellow,cross
218.0,3.0,2.0,0,2.0,2.0,317.72994995100004,1.0,phase_1,,,,,,,,,,,,,green,circle
102.0,6.0,1.0,0,3.0,3.0,400.845050812,1.0,phase_1,,,,,,,,,,,,,gray,diamond
397.0,8.0,4.0,1,4.0,4.0,434.096097946,1.0,phase_1,,,,,,,,,,,,,orange,line
0.0,2.0,0.0,1,3.0,3.0,400.537967682,1.0,phase_1,,,,,,,,,,,,,white,square
375.0,4.0,4.0,0,4.0,4.0,417.695045471,1.0,phase_1,,,,,,,,,,,,,magenta,hexagon
84.0,2.0,1.0,1,3.0,3.0,367.579936981,1.0,phase_1,,,,,,,,,,,,,white,square
201.0,7.0,2.0,1,1.0,1.0,467.85998344399997,1.0,phase_1,,,,,,,,,,,,,cyan,flipped triangle
46.0,5.0,0.5,1,4.0,4.0,417.587041855,1.0,phase_1,,,,,,,,,,,,,blue,triangle
422.0,8.0,4.0,1,2.0,2.0,417.91391372699997,1.0,phase_1,,,,,,,,,,,,,orange,line
32.0,1.0,0.5,0,1.0,1.0,434.18502807600004,1.0,phase_1,,,,,,,,,,,,,yellow,cross
409.0,4.0,4.0,0,4.0,4.0,367.456912994,1.0,phase_1,,,,,,,,,,,,,magenta,hexagon
53.0,1.0,0.5,0,3.0,3.0,351.22799873400004,1.0,phase_1,,,,,,,,,,,,,yellow,cross
391.0,8.0,4.0,1,4.0,4.0,367.129802704,1.0,phase_1,,,,,,,,,,,,,orange,line
223.0,7.0,2.0,1,1.0,1.0,401.377916336,1.0,phase_1,,,,,,,,,,,,,cyan,flipped triangle
198.0,3.0,2.0,0,4.0,4.0,401.01885795600003,1.0,phase_1,,,,,,,,,,,,,green,circle
63.0,5.0,0.5,1,3.0,3.0,367.324113846,1.0,phase_1,,,,,,,,,,,,,blue,triangle
407.0,8.0,4.0,1,2.0,2.0,367.944002151,1.0,phase_1,,,,,,,,,,,,,orange,line
38.0,5.0,0.5,1,4.0,4.0,401.206970215,1.0,phase_1,,,,,,,,,,,,,blue,triangle
210.0,7.0,2.0,1,4.0,4.0,367.624044418,1.0,phase_1,,,,,,,,,,,,,cyan,flipped triangle
71.0,5.0,0.5,1,3.0,3.0,351.011037827,1.0,phase_1,,,,,,,,,,,,,blue,triangle
35.0,1.0,0.5,0,4.0,4.0,434.617996216,1.0,phase_1,,,,,,,,,,,,,yellow,cross
422.0,8.0,4.0,1,4.0,4.0,417.39487648,1.0,phase_1,,,,,,,,,,,,,orange,line
375.0,8.0,4.0,1,2.0,2.0,384.243965149,1.0,phase_1,,,,,,,,,,,,,orange,line
99.0,6.0,1.0,0,3.0,3.0,350.62289238,1.0,phase_1,,,,,,,,,,,,,gray,diamond
388.0,4.0,4.0,0,1.0,1.0,434.47685241700003,1.0,phase_1,,,,,,,,,,,,,magenta,hexagon
188.0,3.0,2.0,0,2.0,2.0,367.43998527499997,1.0,phase_1,,,,,,,,,,,,,green,circle
47.0,5.0,0.5,1,1.0,1.0,468.249082565,1.0,phase_1,,,,,,,,,,,,,blue,triangle
124.0,2.0,1.0,1,3.0,3.0,384.14692878700004,1.0,phase_1,,,,,,,,,,,,,white,square
37.0,5.0,0.5,1,4.0,4.0,350.895881653,1.0,phase_1,,,,,,,,,,,,,blue,triangle
0.0,3.0,0.0,0,3.0,3.0,351.07588768,1.0,phase_1,,,,,,,,,,,,,green,circle
33.0,1.0,0.5,0,2.0,2.0,334.022045135,1.0,phase_1,,,,,,,,,,,,,yellow,cross
0.0,2.0,0.0,1,3.0,3.0,450.91104507399996,1.0,phase_1,,,,,,,,,,,,,white,square
0.0,4.0,0.0,0,1.0,1.0,366.991996765,1.0,phase_1,,,,,,,,,,,,,magenta,hexagon
99.0,2.0,1.0,1,1.0,1.0,450.845956802,1.0,phase_1,,,,,,,,,,,,,white,square
383.0,8.0,4.0,1,2.0,2.0,367.40899086,1.0,phase_1,,,,,,,,,,,,,orange,line
179.0,7.0,2.0,1,1.0,1.0,368.007898331,1.0,phase_1,,,,,,,,,,,,,cyan,flipped triangle
216.0,3.0,2.0,0,1.0,1.0,350.692033768,1.0,phase_1,,,,,,,,,,,,,green,circle
45.0,1.0,0.5,0,1.0,1.0,367.333173752,1.0,phase_1,,,,,,,,,,,,,yellow,cross
182.0,3.0,2.0,0,1.0,1.0,401.027917862,1.0,phase_1,,,,,,,,,,,,,green,circle
106.0,2.0,1.0,1,3.0,3.0,334.369182587,1.0,phase_1,,,,,,,,,,,,,white,square
185.0,7.0,2.0,1,3.0,3.0,400.82597732500005,1.0,phase_1,,,,,,,,,,,,,cyan,flipped triangle
0.0,3.0,0.0,0,3.0,3.0,400.789022446,1.0,phase_1,,,,,,,,,,,,,green,circle
419.0,8.0,4.0,1,3.0,3.0,384.68194007899996,1.0,phase_1,,,,,,,,,,,,,orange,line
53.0,5.0,0.5,1,3.0,3.0,350.99005699199995,1.0,phase_1,,,,,,,,,,,,,blue,triangle
406.0,4.0,4.0,0,4.0,4.0,417.78087616,1.0,phase_1,,,,,,,,,,,,,magenta,hexagon
215.0,7.0,2.0,1,2.0,2.0,367.81001090999996,1.0,phase_1,,,,,,,,,,,,,cyan,flipped triangle
400.0,4.0,4.0,0,3.0,3.0,367.568016052,1.0,phase_1,,,,,,,,,,,,,magenta,hexagon
392.0,8.0,4.0,1,2.0,2.0,517.544031143,1.0,phase_1,,,,,,,,,,,,,orange,line
88.0,6.0,1.0,0,4.0,4.0,567.799806595,1.0,phase_1,,,,,,,,,,,,,gray,diamond
64.0,1.0,0.5,0,2.0,2.0,417.367935181,1.0,phase_1,,,,,,,,,,,,,yellow,cross
26.0,5.0,0.5,1,2.0,2.0,433.94708633399995,1.0,phase_1,,,,,,,,,,,,,blue,triangle
45.0,5.0,0.5,1,4.0,4.0,433.63213539099996,1.0,phase_1,,,,,,,,,,,,,blue,triangle
0.0,6.0,0.0,0,4.0,4.0,500.92601776099997,1.0,phase_1,,,,,,,,,,,,,gray,diamond
0.0,2.0,0.0,1,1.0,1.0,500.78582763699995,1.0,phase_1,,,,,,,,,,,,,white,square
101.0,2.0,1.0,1,1.0,1.0,567.4080848689999,1.0,phase_1,,,,,,,,,,,,,white,square
0.0,8.0,0.0,1,1.0,1.0,467.27800369299996,1.0,phase_1,,,,,,,,,,,,,orange,line
117.0,2.0,1.0,1,4.0,4.0,533.854007721,1.0,phase_1,,,,,,,,,,,,,white,square
125.0,6.0,1.0,0,1.0,1.0,584.578037262,1.0,phase_1,,,,,,,,,,,,,gray,diamond
0.0,2.0,0.0,1,4.0,4.0,501.184940338,1.0,phase_1,,,,,,,,,,,,,white,square
101.0,2.0,1.0,1,3.0,3.0,417.74201393100003,1.0,phase_1,,,,,,,,,,,,,white,square
205.0,3.0,2.0,0,2.0,2.0,450.646877289,1.0,phase_1,,,,,,,,,,,,,green,circle
0.0,6.0,0.0,0,3.0,3.0,467.935085297,1.0,phase_1,,,,,,,,,,,,,gray,diamond
113.0,6.0,1.0,0,1.0,1.0,517.791986465,1.0,phase_1,,,,,,,,,,,,,gray,diamond
0.0,1.0,0.0,0,1.0,1.0,467.647075653,1.0,phase_1,,,,,,,,,,,,,yellow,cross
35.0,1.0,0.5,0,2.0,2.0,384.23705101,1.0,phase_1,,,,,,,,,,,,,yellow,cross
195.0,7.0,2.0,1,1.0,1.0,467.319011688,1.0,phase_1,,,,,,,,,,,,,cyan,flipped triangle
0.0,6.0,0.0,0,4.0,4.0,417.844057083,1.0,phase_1,,,,,,,,,,,,,gray,diamond
97.0,2.0,1.0,1,4.0,4.0,417.299032211,1.0,phase_1,,,,,,,,,,,,,white,square
78.0,2.0,1.0,1,2.0,2.0,417.93394088699995,1.0,phase_1,,,,,,,,,,,,,white,square
394.0,4.0,4.0,0,1.0,1.0,351.167917252,1.0,phase_1,,,,,,,,,,,,,magenta,hexagon
204.0,3.0,2.0,0,4.0,4.0,451.209068298,1.0,phase_1,,,,,,,,,,,,,green,circle
29.0,5.0,0.5,1,1.0,1.0,400.314092636,1.0,phase_1,,,,,,,,,,,,,blue,triangle
391.0,4.0,4.0,0,4.0,4.0,450.67191124,1.0,phase_1,,,,,,,,,,,,,magenta,hexagon
0.0,1.0,0.0,0,1.0,1.0,467.179059982,2.0,phase_1,,,,,,,,,,,,,yellow,cross
0.0,1.0,0.0,0,4.0,4.0,467.124938965,2.0,phase_1,,,,,,,,,,,,,yellow,cross
51.0,1.0,0.5,0,1.0,1.0,584.493160248,2.0,phase_1,,,,,,,,,,,,,yellow,cross
397.0,4.0,4.0,0,3.0,3.0,451.34806633,2.0,phase_1,,,,,,,,,,,,,magenta,hexagon
107.0,2.0,1.0,1,2.0,2.0,400.71892738300005,2.0,phase_1,,,,,,,,,,,,,white,square
37.0,5.0,0.5,1,1.0,1.0,467.782974243,2.0,phase_1,,,,,,,,,,,,,blue,triangle
63.0,1.0,0.5,0,3.0,3.0,434.391021729,2.0,phase_1,,,,,,,,,,,,,yellow,cross
392.0,4.0,4.0,0,2.0,2.0,434.017181396,2.0,phase_1,,,,,,,,,,,,,magenta,hexagon
398.0,8.0,4.0,1,4.0,4.0,533.8599681850001,2.0,phase_1,,,,,,,,,,,,,orange,line
72.0,5.0,0.5,1,1.0,1.0,417.176961899,2.0,phase_1,,,,,,,,,,,,,blue,triangle
405.0,4.0,4.0,0,4.0,4.0,418.022155762,2.0,phase_1,,,,,,,,,,,,,magenta,hexagon
416.0,8.0,4.0,1,1.0,1.0,467.56386756899997,2.0,phase_1,,,,,,,,,,,,,orange,line
0.0,2.0,0.0,1,4.0,4.0,400.639057159,2.0,phase_1,,,,,,,,,,,,,white,square
108.0,6.0,1.0,0,3.0,3.0,384.582042694,2.0,phase_1,,,,,,,,,,,,,gray,diamond
0.0,4.0,0.0,0,2.0,2.0,350.85010528600003,2.0,phase_1,,,,,,,,,,,,,magenta,hexagon
43.0,5.0,0.5,1,3.0,3.0,434.497117996,2.0,phase_1,,,,,,,,,,,,,blue,triangle
415.0,8.0,4.0,1,4.0,4.0,484.215974808,2.0,phase_1,,,,,,,,,,,,,orange,line
0.0,6.0,0.0,0,1.0,1.0,434.140920639,2.0,phase_1,,,,,,,,,,,,,gray,diamond
209.0,7.0,2.0,1,3.0,3.0,384.181022644,2.0,phase_1,,,,,,,,,,,,,cyan,flipped triangle
409.0,8.0,4.0,1,1.0,1.0,384.15312767,2.0,phase_1,,,,,,,,,,,,,orange,line
85.0,6.0,1.0,0,3.0,3.0,384.60087776200004,2.0,phase_1,,,,,,,,,,,,,gray,diamond
396.0,4.0,4.0,0,4.0,4.0,384.708881378,2.0,phase_1,,,,,,,,,,,,,magenta,hexagon
81.0,2.0,1.0,1,2.0,2.0,434.06200408899997,2.0,phase_1,,,,,,,,,,,,,white,square
74.0,5.0,0.5,1,4.0,4.0,417.462110519,2.0,phase_1,,,,,,,,,,,,,blue,triangle
181.0,3.0,2.0,0,4.0,4.0,451.323032379,2.0,phase_1,,,,,,,,,,,,,green,circle
402.0,8.0,4.0,1,4.0,4.0,467.914104462,2.0,phase_1,,,,,,,,,,,,,orange,line
387.0,4.0,4.0,0,2.0,2.0,467.51713752700005,2.0,phase_1,,,,,,,,,,,,,magenta,hexagon
122.0,2.0,1.0,1,2.0,2.0,434.36598777800003,2.0,phase_1,,,,,,,,,,,,,white,square
0.0,4.0,0.0,0,1.0,1.0,467.720031738,2.0,phase_1,,,,,,,,,,,,,magenta,hexagon
409.0,8.0,4.0,1,1.0,1.0,433.641910553,2.0,phase_1,,,,,,,,,,,,,orange,line
191.0,3.0,2.0,0,1.0,1.0,451.43198966999995,2.0,phase_1,,,,,,,,,,,,,green,circle
424.0,8.0,4.0,1,3.0,3.0,434.315919876,2.0,phase_1,,,,,,,,,,,,,orange,line
414.0,8.0,4.0,1,1.0,1.0,434.482097626,2.0,phase_1,,,,,,,,,,,,,orange,line
104.0,2.0,1.0,1,1.0,1.0,467.348098755,2.0,phase_1,,,,,,,,,,,,,white,square
207.0,7.0,2.0,1,4.0,4.0,468.411922455,2.0,phase_1,,,,,,,,,,,,,cyan,flipped triangle
0.0,4.0,0.0,0,1.0,1.0,384.12499427800003,2.0,phase_1,,,,,,,,,,,,,magenta,hexagon
194.0,7.0,2.0,1,2.0,2.0,350.790023804,2.0,phase_1,,,,,,,,,,,,,cyan,flipped triangle
192.0,3.0,2.0,0,4.0,4.0,451.374053955,2.0,phase_1,,,,,,,,,,,,,green,circle
112.0,2.0,1.0,1,3.0,3.0,384.038925171,2.0,phase_1,,,,,,,,,,,,,white,square
379.0,4.0,4.0,0,2.0,2.0,334.05685424800004,2.0,phase_1,,,,,,,,,,,,,magenta,hexagon
44.0,5.0,0.5,1,2.0,2.0,367.56205558799996,2.0,phase_1,,,,,,,,,,,,,blue,triangle
0.0,4.0,0.0,0,4.0,4.0,484.260082245,2.0,phase_1,,,,,,,,,,,,,magenta,hexagon
75.0,6.0,1.0,0,2.0,2.0,384.649991989,2.0,phase_1,,,,,,,,,,,,,gray,diamond
405.0,4.0,4.0,0,3.0,3.0,417.884111404,2.0,phase_1,,,,,,,,,,,,,magenta,hexagon
36.0,1.0,0.5,0,3.0,3.0,434.34405326800004,2.0,phase_1,,,,,,,,,,,,,yellow,cross
102.0,2.0,1.0,1,4.0,4.0,501.04379653899997,2.0,phase_1,,,,,,,,,,,,,white,square
57.0,5.0,0.5,1,1.0,1.0,534.384012222,2.0,phase_1,,,,,,,,,,,,,blue,triangle
383.0,8.0,4.0,1,1.0,1.0,467.627048492,2.0,phase_1,,,,,,,,,,,,,orange,line
114.0,6.0,1.0,0,4.0,4.0,484.791040421,2.0,phase_1,,,,,,,,,,,,,gray,diamond
65.0,5.0,0.5,1,3.0,3.0,400.99000930799997,2.0,phase_1,,,,,,,,,,,,,blue,triangle
96.0,2.0,1.0,1,3.0,3.0,384.410858154,2.0,phase_1,,,,,,,,,,,,,white,square
392.0,8.0,4.0,1,2.0,2.0,367.89989471399997,2.0,phase_1,,,,,,,,,,,,,orange,line
59.0,1.0,0.5,0,3.0,3.0,434.195995331,2.0,phase_1,,,,,,,,,,,,,yellow,cross
0.0,7.0,0.0,1,2.0,2.0,435.03379821799996,2.0,phase_1,,,,,,,,,,,,,cyan,flipped triangle
412.0,4.0,4.0,0,2.0,2.0,367.516040802,2.0,phase_1,,,,,,,,,,,,,magenta,hexagon
189.0,7.0,2.0,1,1.0,1.0,417.484045029,2.0,phase_1,,,,,,,,,,,,,cyan,flipped triangle
67.0,5.0,0.5,1,4.0,4.0,484.6971035,2.0,phase_1,,,,,,,,,,,,,blue,triangle
417.0,8.0,4.0,1,3.0,3.0,417.86193847699997,2.0,phase_1,,,,,,,,,,,,,orange,line
0.0,8.0,0.0,1,2.0,2.0,450.971126556,2.0,phase_1,,,,,,,,,,,,,orange,line
401.0,8.0,4.0,1,4.0,4.0,484.41696167,2.0,phase_1,,,,,,,,,,,,,orange,line
72.0,5.0,0.5,1,1.0,1.0,451.086997986,2.0,phase_1,,,,,,,,,,,,,blue,triangle
376.0,4.0,4.0,0,3.0,3.0,434.676885605,2.0,phase_1,,,,,,,,,,,,,magenta,hexagon
0.0,3.0,0.0,0,3.0,3.0,367.383956909,2.0,phase_1,,,,,,,,,,,,,green,circle
188.0,7.0,2.0,1,4.0,4.0,367.65480041499995,2.0,phase_1,,,,,,,,,,,,,cyan,flipped triangle
122.0,2.0,1.0,1,4.0,4.0,400.780916214,2.0,phase_1,,,,,,,,,,,,,white,square
178.0,3.0,2.0,0,2.0,2.0,334.571123123,2.0,phase_1,,,,,,,,,,,,,green,circle
113.0,6.0,1.0,0,1.0,1.0,400.57516098,2.0,phase_1,,,,,,,,,,,,,gray,diamond
101.0,2.0,1.0,1,3.0,3.0,368.065834045,2.0,phase_1,,,,,,,,,,,,,white,square
73.0,1.0,0.5,0,2.0,2.0,350.880146027,2.0,phase_1,,,,,,,,,,,,,yellow,cross
210.0,7.0,2.0,1,4.0,4.0,434.35907363900003,2.0,phase_1,,,,,,,,,,,,,cyan,flipped triangle
389.0,4.0,4.0,0,1.0,1.0,401.044130325,2.0,phase_1,,,,,,,,,,,,,magenta,hexagon
0.0,5.0,0.0,1,3.0,3.0,367.18893051099997,2.0,phase_1,,,,,,,,,,,,,blue,triangle
0.0,4.0,0.0,0,2.0,2.0,501.219034195,2.0,phase_1,,,,,,,,,,,,,magenta,hexagon
69.0,5.0,0.5,1,3.0,3.0,350.610017776,2.0,phase_1,,,,,,,,,,,,,blue,triangle
33.0,1.0,0.5,0,4.0,4.0,734.8978519440001,2.0,phase_1,,,,,,,,,,,,,yellow,cross
112.0,2.0,1.0,1,2.0,2.0,400.84481239300004,2.0,phase_1,,,,,,,,,,,,,white,square
391.0,4.0,4.0,0,1.0,1.0,651.350021362,2.0,phase_1,,,,,,,,,,,,,magenta,hexagon
186.0,7.0,2.0,1,1.0,1.0,467.657804489,2.0,phase_1,,,,,,,,,,,,,cyan,flipped triangle
34.0,1.0,0.5,0,4.0,4.0,568.22013855,2.0,phase_1,,,,,,,,,,,,,yellow,cross
192.0,3.0,2.0,0,2.0,2.0,417.69599914599996,2.0,phase_1,,,,,,,,,,,,,green,circle
209.0,3.0,2.0,0,2.0,2.0,384.40489769000004,2.0,phase_1,,,,,,,,,,,,,green,circle
0.0,7.0,0.0,1,3.0,3.0,350.60691833500005,2.0,phase_1,,,,,,,,,,,,,cyan,flipped triangle
400.0,8.0,4.0,1,3.0,3.0,450.737953186,2.0,phase_1,,,,,,,,,,,,,orange,line
40.0,5.0,0.5,1,1.0,1.0,433.810949326,2.0,phase_1,,,,,,,,,,,,,blue,triangle
415.0,4.0,4.0,0,4.0,4.0,467.974901199,2.0,phase_1,,,,,,,,,,,,,magenta,hexagon
0.0,3.0,0.0,0,3.0,3.0,400.655984879,2.0,phase_1,,,,,,,,,,,,,green,circle
123.0,6.0,1.0,0,2.0,2.0,400.696992874,2.0,phase_1,,,,,,,,,,,,,gray,diamond
78.0,2.0,1.0,1,2.0,2.0,400.73204040499996,2.0,phase_1,,,,,,,,,,,,,white,square
105.0,6.0,1.0,0,2.0,2.0,417.53077507,2.0,phase_1,,,,,,,,,,,,,gray,diamond
0.0,6.0,0.0,0,4.0,4.0,484.32803154,2.0,phase_1,,,,,,,,,,,,,gray,diamond
405.0,4.0,4.0,0,4.0,4.0,417.456865311,2.0,phase_1,,,,,,,,,,,,,magenta,hexagon
412.0,8.0,4.0,1,3.0,3.0,367.604970932,2.0,phase_1,,,,,,,,,,,,,orange,line
382.0,4.0,4.0,0,2.0,2.0,417.713165283,2.0,phase_1,,,,,,,,,,,,,magenta,hexagon
73.0,1.0,0.5,0,1.0,1.0,484.38405990599995,2.0,phase_1,,,,,,,,,,,,,yellow,cross
91.0,6.0,1.0,0,3.0,3.0,350.882053375,2.0,phase_1,,,,,,,,,,,,,gray,diamond
176.0,3.0,2.0,0,4.0,4.0,384.66501236,2.0,phase_1,,,,,,,,,,,,,green,circle
425.0,8.0,4.0,1,2.0,2.0,350.602149963,2.0,phase_1,,,,,,,,,,,,,orange,line
399.0,4.0,4.0,0,1.0,1.0,367.350101471,2.0,phase_1,,,,,,,,,,,,,magenta,hexagon
103.0,6.0,1.0,0,3.0,3.0,484.451055527,2.0,phase_1,,,,,,,,,,,,,gray,diamond
114.0,2.0,1.0,1,1.0,1.0,484.545946121,2.0,phase_1,,,,,,,,,,,,,white,square
48.0,5.0,0.5,1,4.0,4.0,684.7198009489999,3.0,phase_1,,,,,,,,,,,,,blue,triangle
209.0,7.0,2.0,1,3.0,3.0,417.345046997,3.0,phase_1,,,,,,,,,,,,,cyan,flipped triangle
30.0,5.0,0.5,1,1.0,1.0,417.853116989,3.0,phase_1,,,,,,,,,,,,,blue,triangle
199.0,3.0,2.0,0,4.0,4.0,500.895023346,3.0,phase_1,,,,,,,,,,,,,green,circle
67.0,5.0,0.5,1,1.0,1.0,434.152841568,3.0,phase_1,,,,,,,,,,,,,blue,triangle
103.0,2.0,1.0,1,3.0,3.0,384.473085403,3.0,phase_1,,,,,,,,,,,,,white,square
67.0,5.0,0.5,1,3.0,3.0,433.90893936199996,3.0,phase_1,,,,,,,,,,,,,blue,triangle
75.0,1.0,0.5,0,1.0,1.0,384.128093719,3.0,phase_1,,,,,,,,,,,,,yellow,cross
187.0,7.0,2.0,1,1.0,1.0,450.935125351,3.0,phase_1,,,,,,,,,,,,,cyan,flipped triangle
0.0,3.0,0.0,0,2.0,2.0,383.934020996,3.0,phase_1,,,,,,,,,,,,,green,circle
69.0,1.0,0.5,0,2.0,2.0,450.833797455,3.0,phase_1,,,,,,,,,,,,,yellow,cross
110.0,6.0,1.0,0,4.0,4.0,484.256029129,3.0,phase_1,,,,,,,,,,,,,gray,diamond
177.0,3.0,2.0,0,4.0,4.0,450.821876526,3.0,phase_1,,,,,,,,,,,,,green,circle
125.0,2.0,1.0,1,2.0,2.0,450.71101188700004,3.0,phase_1,,,,,,,,,,,,,white,square
183.0,7.0,2.0,1,1.0,1.0,433.781862259,3.0,phase_1,,,,,,,,,,,,,cyan,flipped triangle
118.0,6.0,1.0,0,3.0,3.0,401.345014572,3.0,phase_1,,,,,,,,,,,,,gray,diamond
222.0,3.0,2.0,0,4.0,4.0,434.075117111,3.0,phase_1,,,,,,,,,,,,,green,circle
195.0,3.0,2.0,0,3.0,3.0,384.67502594,3.0,phase_1,,,,,,,,,,,,,green,circle
394.0,8.0,4.0,1,2.0,2.0,367.351055145,3.0,phase_1,,,,,,,,,,,,,orange,line
410.0,8.0,4.0,1,4.0,4.0,534.378051758,3.0,phase_1,,,,,,,,,,,,,orange,line
33.0,5.0,0.5,1,4.0,4.0,434.912919998,3.0,phase_1,,,,,,,,,,,,,blue,triangle
0.0,6.0,0.0,0,4.0,4.0,500.813007355,3.0,phase_1,,,,,,,,,,,,,gray,diamond
50.0,1.0,0.5,0,3.0,3.0,400.522232056,3.0,phase_1,,,,,,,,,,,,,yellow,cross
71.0,1.0,0.5,0,3.0,3.0,333.745956421,3.0,phase_1,,,,,,,,,,,,,yellow,cross
202.0,7.0,2.0,1,1.0,1.0,451.17902755700004,3.0,phase_1,,,,,,,,,,,,,cyan,flipped triangle
209.0,3.0,2.0,0,2.0,2.0,434.135913849,3.0,phase_1,,,,,,,,,,,,,green,circle
406.0,8.0,4.0,1,3.0,3.0,367.239952087,3.0,phase_1,,,,,,,,,,,,,orange,line
104.0,2.0,1.0,1,4.0,4.0,434.261083603,3.0,phase_1,,,,,,,,,,,,,white,square
175.0,3.0,2.0,0,3.0,3.0,334.51795577999997,3.0,phase_1,,,,,,,,,,,,,green,circle
75.0,1.0,0.5,0,2.0,2.0,401.13282203700004,3.0,phase_1,,,,,,,,,,,,,yellow,cross
422.0,8.0,4.0,1,4.0,4.0,517.6439285280001,3.0,phase_1,,,,,,,,,,,,,orange,line
0.0,7.0,0.0,1,2.0,2.0,384.39702987699997,3.0,phase_1,,,,,,,,,,,,,cyan,flipped triangle
207.0,3.0,2.0,0,2.0,2.0,400.87890625,3.0,phase_1,,,,,,,,,,,,,green,circle
41.0,1.0,0.5,0,4.0,4.0,500.60987472499994,3.0,phase_1,,,,,,,,,,,,,yellow,cross
216.0,7.0,2.0,1,2.0,2.0,334.07998085,3.0,phase_1,,,,,,,,,,,,,cyan,flipped triangle
112.0,2.0,1.0,1,1.0,1.0,567.822217941,3.0,phase_1,,,,,,,,,,,,,white,square
0.0,2.0,0.0,1,4.0,4.0,434.53192710900004,3.0,phase_1,,,,,,,,,,,,,white,square
0.0,8.0,0.0,1,4.0,4.0,467.624902725,3.0,phase_1,,,,,,,,,,,,,orange,line
102.0,6.0,1.0,0,1.0,1.0,500.838041306,3.0,phase_1,,,,,,,,,,,,,gray,diamond
0.0,8.0,0.0,1,2.0,2.0,401.030063629,3.0,phase_1,,,,,,,,,,,,,orange,line
50.0,5.0,0.5,1,1.0,1.0,468.125104904,3.0,phase_1,,,,,,,,,,,,,blue,triangle
114.0,2.0,1.0,1,4.0,4.0,450.664997101,3.0,phase_1,,,,,,,,,,,,,white,square
0.0,5.0,0.0,1,1.0,1.0,367.250919342,3.0,phase_1,,,,,,,,,,,,,blue,triangle
67.0,5.0,0.5,1,2.0,2.0,333.650112152,3.0,phase_1,,,,,,,,,,,,,blue,triangle
217.0,7.0,2.0,1,4.0,4.0,383.653879166,3.0,phase_1,,,,,,,,,,,,,cyan,flipped triangle
67.0,5.0,0.5,1,3.0,3.0,384.114027023,3.0,phase_1,,,,,,,,,,,,,blue,triangle
121.0,2.0,1.0,1,3.0,3.0,384.34290885900003,3.0,phase_1,,,,,,,,,,,,,white,square
389.0,8.0,4.0,1,2.0,2.0,351.025104523,3.0,phase_1,,,,,,,,,,,,,orange,line
0.0,3.0,0.0,0,1.0,1.0,384.345054626,3.0,phase_1,,,,,,,,,,,,,green,circle
88.0,2.0,1.0,1,1.0,1.0,384.341001511,3.0,phase_1,,,,,,,,,,,,,white,square
395.0,4.0,4.0,0,1.0,1.0,468.11985969499995,3.0,phase_1,,,,,,,,,,,,,magenta,hexagon
47.0,1.0,0.5,0,2.0,2.0,417.917013168,3.0,phase_1,,,,,,,,,,,,,yellow,cross
179.0,7.0,2.0,1,4.0,4.0,384.39393043499996,3.0,phase_1,,,,,,,,,,,,,cyan,flipped triangle
53.0,5.0,0.5,1,2.0,2.0,334.632873535,3.0,phase_1,,,,,,,,,,,,,blue,triangle
186.0,3.0,2.0,0,1.0,1.0,434.354066849,3.0,phase_1,,,,,,,,,,,,,green,circle
189.0,3.0,2.0,0,2.0,2.0,367.394924164,3.0,phase_1,,,,,,,,,,,,,green,circle
114.0,2.0,1.0,1,2.0,2.0,333.623170853,3.0,phase_1,,,,,,,,,,,,,white,square
102.0,2.0,1.0,1,2.0,2.0,334.07092094399997,3.0,phase_1,,,,,,,,,,,,,white,square
0.0,2.0,0.0,1,3.0,3.0,434.175014496,3.0,phase_1,,,,,,,,,,,,,white,square
425.0,4.0,4.0,0,4.0,4.0,383.990049362,3.0,phase_1,,,,,,,,,,,,,magenta,hexagon
32.0,1.0,0.5,0,4.0,4.0,434.239149094,3.0,phase_1,,,,,,,,,,,,,yellow,cross
67.0,1.0,0.5,0,3.0,3.0,400.676012039,3.0,phase_1,,,,,,,,,,,,,yellow,cross
86.0,6.0,1.0,0,3.0,3.0,467.609882355,3.0,phase_1,,,,,,,,,,,,,gray,diamond
65.0,5.0,0.5,1,1.0,1.0,517.410039902,3.0,phase_1,,,,,,,,,,,,,blue,triangle
0.0,2.0,0.0,1,2.0,2.0,434.18097496,3.0,phase_1,,,,,,,,,,,,,white,square
0.0,4.0,0.0,0,3.0,3.0,350.61311721799996,3.0,phase_1,,,,,,,,,,,,,magenta,hexagon
404.0,8.0,4.0,1,2.0,2.0,384.104013443,3.0,phase_1,,,,,,,,,,,,,orange,line
0.0,6.0,0.0,0,3.0,3.0,417.438030243,3.0,phase_1,,,,,,,,,,,,,gray,diamond
178.0,7.0,2.0,1,3.0,3.0,367.34890937800003,3.0,phase_1,,,,,,,,,,,,,cyan,flipped triangle
175.0,3.0,2.0,0,2.0,2.0,500.90003013600005,3.0,phase_1,,,,,,,,,,,,,green,circle
395.0,8.0,4.0,1,2.0,2.0,350.8040905,3.0,phase_1,,,,,,,,,,,,,orange,line
0.0,1.0,0.0,0,3.0,3.0,417.34790802,3.0,phase_1,,,,,,,,,,,,,yellow,cross
0.0,8.0,0.0,1,1.0,1.0,434.151887894,3.0,phase_1,,,,,,,,,,,,,orange,line
0.0,3.0,0.0,0,1.0,1.0,417.654037476,3.0,phase_1,,,,,,,,,,,,,green,circle
51.0,1.0,0.5,0,4.0,4.0,467.159032822,3.0,phase_1,,,,,,,,,,,,,yellow,cross
379.0,4.0,4.0,0,4.0,4.0,417.61493682900004,3.0,phase_1,,,,,,,,,,,,,magenta,hexagon
0.0,5.0,0.0,1,4.0,4.0,434.415102005,3.0,phase_1,,,,,,,,,,,,,blue,triangle
175.0,7.0,2.0,1,4.0,4.0,434.081077576,3.0,phase_1,,,,,,,,,,,,,cyan,flipped triangle
121.0,6.0,1.0,0,4.0,4.0,384.47999954200003,3.0,phase_1,,,,,,,,,,,,,gray,diamond
70.0,5.0,0.5,1,4.0,4.0,434.504985809,3.0,phase_1,,,,,,,,,,,,,blue,triangle
0.0,5.0,0.0,1,1.0,1.0,501.169919968,3.0,phase_1,,,,,,,,,,,,,blue,triangle
0.0,3.0,0.0,0,3.0,3.0,400.99978447,3.0,phase_1,,,,,,,,,,,,,green,circle
0.0,3.0,0.0,0,2.0,2.0,334.249973297,3.0,phase_1,,,,,,,,,,,,,green,circle
51.0,5.0,0.5,1,1.0,1.0,450.62208175700005,3.0,phase_1,,,,,,,,,,,,,blue,triangle
36.0,5.0,0.5,1,4.0,4.0,367.623090744,3.0,phase_1,,,,,,,,,,,,,blue,triangle
48.0,5.0,0.5,1,3.0,3.0,367.487192154,3.0,phase_1,,,,,,,,,,,,,blue,triangle
390.0,8.0,4.0,1,3.0,3.0,367.447137833,3.0,phase_1,,,,,,,,,,,,,orange,line
186.0,7.0,2.0,1,2.0,2.0,417.469024658,3.0,phase_1,,,,,,,,,,,,,cyan,flipped triangle
98.0,2.0,1.0,1,3.0,3.0,417.58990287800003,3.0,phase_1,,,,,,,,,,,,,white,square
190.0,7.0,2.0,1,2.0,2.0,417.58608818100004,3.0,phase_1,,,,,,,,,,,,,cyan,flipped triangle
215.0,7.0,2.0,1,3.0,3.0,351.119995117,3.0,phase_1,,,,,,,,,,,,,cyan,flipped triangle
408.0,4.0,4.0,0,3.0,3.0,451.081037521,3.0,phase_1,,,,,,,,,,,,,magenta,hexagon
0.0,7.0,0.0,1,1.0,1.0,317.60692596399997,3.0,phase_1,,,,,,,,,,,,,cyan,flipped triangle
222.0,7.0,2.0,1,1.0,1.0,467.502832413,3.0,phase_1,,,,,,,,,,,,,cyan,flipped triangle
222.0,3.0,2.0,0,1.0,1.0,418.30396652200005,3.0,phase_1,,,,,,,,,,,,,green,circle
104.0,2.0,1.0,1,1.0,1.0,534.499168396,3.0,phase_1,,,,,,,,,,,,,white,square
375.0,8.0,4.0,1,1.0,1.0,534.1739654539999,3.0,phase_1,,,,,,,,,,,,,orange,line
214.0,3.0,2.0,0,3.0,3.0,417.634010315,3.0,phase_1,,,,,,,,,,,,,green,circle
113.0,6.0,1.0,0,1.0,1.0,434.499025345,3.0,phase_1,,,,,,,,,,,,,gray,diamond
101.0,6.0,1.0,0,2.0,2.0,351.037025452,3.0,phase_1,,,,,,,,,,,,,gray,diamond
419.0,8.0,4.0,1,2.0,2.0,518.029928207,4.0,phase_1,,,,,,,,,,,,,orange,line
62.0,5.0,0.5,1,4.0,4.0,434.28087234500003,4.0,phase_1,,,,,,,,,,,,,blue,triangle
204.0,7.0,2.0,1,3.0,3.0,383.439064026,4.0,phase_1,,,,,,,,,,,,,cyan,flipped triangle
216.0,7.0,2.0,1,4.0,4.0,450.878858566,4.0,phase_1,,,,,,,,,,,,,cyan,flipped triangle
122.0,6.0,1.0,0,4.0,4.0,417.373180389,4.0,phase_1,,,,,,,,,,,,,gray,diamond
0.0,1.0,0.0,0,2.0,2.0,400.95186233500004,4.0,phase_1,,,,,,,,,,,,,yellow,cross
76.0,6.0,1.0,0,2.0,2.0,384.223937988,4.0,phase_1,,,,,,,,,,,,,gray,diamond
0.0,1.0,0.0,0,3.0,3.0,350.96192359900004,4.0,phase_1,,,,,,,,,,,,,yellow,cross
180.0,3.0,2.0,0,2.0,2.0,400.94494819600004,4.0,phase_1,,,,,,,,,,,,,green,circle
225.0,7.0,2.0,1,3.0,3.0,367.904901505,4.0,phase_1,,,,,,,,,,,,,cyan,flipped triangle
213.0,7.0,2.0,1,1.0,1.0,417.62304306,4.0,phase_1,,,,,,,,,,,,,cyan,flipped triangle
0.0,3.0,0.0,0,4.0,4.0,467.141151428,4.0,phase_1,,,,,,,,,,,,,green,circle
184.0,7.0,2.0,1,1.0,1.0,434.20219421400003,4.0,phase_1,,,,,,,,,,,,,cyan,flipped triangle
203.0,7.0,2.0,1,1.0,1.0,417.634963989,4.0,phase_1,,,,,,,,,,,,,cyan,flipped triangle
399.0,4.0,4.0,0,1.0,1.0,384.083032608,4.0,phase_1,,,,,,,,,,,,,magenta,hexagon
106.0,6.0,1.0,0,2.0,2.0,534.5070362089999,4.0,phase_1,,,,,,,,,,,,,gray,diamond
116.0,2.0,1.0,1,1.0,1.0,366.931915283,4.0,phase_1,,,,,,,,,,,,,white,square
121.0,6.0,1.0,0,2.0,2.0,350.937128067,4.0,phase_1,,,,,,,,,,,,,gray,diamond
86.0,6.0,1.0,0,4.0,4.0,450.77586174,4.0,phase_1,,,,,,,,,,,,,gray,diamond
34.0,5.0,0.5,1,1.0,1.0,400.77996254,4.0,phase_1,,,,,,,,,,,,,blue,triangle
0.0,8.0,0.0,1,4.0,4.0,467.795848846,4.0,phase_1,,,,,,,,,,,,,orange,line
104.0,2.0,1.0,1,1.0,1.0,400.816917419,4.0,phase_1,,,,,,,,,,,,,white,square
417.0,4.0,4.0,0,4.0,4.0,367.168903351,4.0,phase_1,,,,,,,,,,,,,magenta,hexagon
394.0,8.0,4.0,1,1.0,1.0,417.29807853700004,4.0,phase_1,,,,,,,,,,,,,orange,line
58.0,5.0,0.5,1,1.0,1.0,417.30189323400003,4.0,phase_1,,,,,,,,,,,,,blue,triangle
83.0,2.0,1.0,1,4.0,4.0,383.93497467,4.0,phase_1,,,,,,,,,,,,,white,square
0.0,1.0,0.0,0,2.0,2.0,334.38897132899996,4.0,phase_1,,,,,,,,,,,,,yellow,cross
59.0,1.0,0.5,0,4.0,4.0,484.101057053,4.0,phase_1,,,,,,,,,,,,,yellow,cross
50.0,1.0,0.5,0,1.0,1.0,368.26014518700003,4.0,phase_1,,,,,,,,,,,,,yellow,cross
41.0,1.0,0.5,0,1.0,1.0,433.899879456,4.0,phase_1,,,,,,,,,,,,,yellow,cross
0.0,7.0,0.0,1,4.0,4.0,384.279966354,4.0,phase_1,,,,,,,,,,,,,cyan,flipped triangle
86.0,6.0,1.0,0,3.0,3.0,367.31195449800003,4.0,phase_1,,,,,,,,,,,,,gray,diamond
180.0,3.0,2.0,0,4.0,4.0,383.93592834500004,4.0,phase_1,,,,,,,,,,,,,green,circle
92.0,6.0,1.0,0,3.0,3.0,367.65193939200003,4.0,phase_1,,,,,,,,,,,,,gray,diamond
72.0,5.0,0.5,1,4.0,4.0,384.15312767,4.0,phase_1,,,,,,,,,,,,,blue,triangle
218.0,7.0,2.0,1,1.0,1.0,417.828083038,4.0,phase_1,,,,,,,,,,,,,cyan,flipped triangle
38.0,1.0,0.5,0,3.0,3.0,350.680828094,4.0,phase_1,,,,,,,,,,,,,yellow,cross
0.0,2.0,0.0,1,2.0,2.0,300.765991211,4.0,phase_1,,,,,,,,,,,,,white,square
105.0,6.0,1.0,0,1.0,1.0,484.153032303,4.0,phase_1,,,,,,,,,,,,,gray,diamond
386.0,8.0,4.0,1,3.0,3.0,367.542982101,4.0,phase_1,,,,,,,,,,,,,orange,line
34.0,1.0,0.5,0,2.0,2.0,367.621898651,4.0,phase_1,,,,,,,,,,,,,yellow,cross
56.0,5.0,0.5,1,2.0,2.0,451.09295845,4.0,phase_1,,,,,,,,,,,,,blue,triangle
0.0,2.0,0.0,1,1.0,1.0,484.289884567,4.0,phase_1,,,,,,,,,,,,,white,square
95.0,6.0,1.0,0,4.0,4.0,450.63495636,4.0,phase_1,,,,,,,,,,,,,gray,diamond
73.0,5.0,0.5,1,2.0,2.0,367.18893051099997,4.0,phase_1,,,,,,,,,,,,,blue,triangle
37.0,5.0,0.5,1,2.0,2.0,384.306907654,4.0,phase_1,,,,,,,,,,,,,blue,triangle
202.0,7.0,2.0,1,3.0,3.0,367.473840714,4.0,phase_1,,,,,,,,,,,,,cyan,flipped triangle
90.0,6.0,1.0,0,4.0,4.0,467.513084412,4.0,phase_1,,,,,,,,,,,,,gray,diamond
399.0,8.0,4.0,1,3.0,3.0,367.589950562,4.0,phase_1,,,,,,,,,,,,,orange,line
94.0,6.0,1.0,0,2.0,2.0,417.960882187,4.0,phase_1,,,,,,,,,,,,,gray,diamond
389.0,8.0,4.0,1,2.0,2.0,350.68893432600004,4.0,phase_1,,,,,,,,,,,,,orange,line
415.0,4.0,4.0,0,3.0,3.0,367.621898651,4.0,phase_1,,,,,,,,,,,,,magenta,hexagon
115.0,2.0,1.0,1,2.0,2.0,450.688123703,4.0,phase_1,,,,,,,,,,,,,white,square
391.0,4.0,4.0,0,3.0,3.0,384.41586494399996,4.0,phase_1,,,,,,,,,,,,,magenta,hexagon
200.0,7.0,2.0,1,4.0,4.0,517.6260471339999,4.0,phase_1,,,,,,,,,,,,,cyan,flipped triangle
100.0,2.0,1.0,1,4.0,4.0,501.01780891400006,4.0,phase_1,,,,,,,,,,,,,white,square
175.0,7.0,2.0,1,4.0,4.0,400.548934937,4.0,phase_1,,,,,,,,,,,,,cyan,flipped triangle
75.0,6.0,1.0,0,1.0,1.0,401.010036469,4.0,phase_1,,,,,,,,,,,,,gray,diamond
421.0,8.0,4.0,1,3.0,3.0,451.119184494,4.0,phase_1,,,,,,,,,,,,,orange,line
0.0,3.0,0.0,0,2.0,2.0,400.907039642,4.0,phase_1,,,,,,,,,,,,,green,circle
413.0,4.0,4.0,0,4.0,4.0,467.745065689,4.0,phase_1,,,,,,,,,,,,,magenta,hexagon
0.0,3.0,0.0,0,1.0,1.0,484.404087067,4.0,phase_1,,,,,,,,,,,,,green,circle
70.0,1.0,0.5,0,4.0,4.0,401.396036148,4.0,phase_1,,,,,,,,,,,,,yellow,cross
404.0,8.0,4.0,1,4.0,4.0,484.071016312,4.0,phase_1,,,,,,,,,,,,,orange,line
201.0,7.0,2.0,1,4.0,4.0,417.493104935,4.0,phase_1,,,,,,,,,,,,,cyan,flipped triangle
28.0,1.0,0.5,0,3.0,3.0,400.9308815,4.0,phase_1,,,,,,,,,,,,,yellow,cross
385.0,4.0,4.0,0,3.0,3.0,350.956916809,4.0,phase_1,,,,,,,,,,,,,magenta,hexagon
192.0,3.0,2.0,0,4.0,4.0,367.771148682,4.0,phase_1,,,,,,,,,,,,,green,circle
422.0,4.0,4.0,0,2.0,2.0,551.214933395,4.0,phase_1,,,,,,,,,,,,,magenta,hexagon
50.0,1.0,0.5,0,1.0,1.0,400.967121124,4.0,phase_1,,,,,,,,,,,,,yellow,cross
0.0,8.0,0.0,1,2.0,2.0,433.91084671000004,4.0,phase_1,,,,,,,,,,,,,orange,line
199.0,7.0,2.0,1,1.0,1.0,434.803009033,4.0,phase_1,,,,,,,,,,,,,cyan,flipped triangle
79.0,2.0,1.0,1,3.0,3.0,367.77186393700003,4.0,phase_1,,,,,,,,,,,,,white,square
37.0,1.0,0.5,0,3.0,3.0,334.5079422,4.0,phase_1,,,,,,,,,,,,,yellow,cross
177.0,3.0,2.0,0,3.0,3.0,400.581121445,4.0,phase_1,,,,,,,,,,,,,green,circle
178.0,7.0,2.0,1,2.0,2.0,351.058006287,4.0,phase_1,,,,,,,,,,,,,cyan,flipped triangle
387.0,8.0,4.0,1,1.0,1.0,450.919151306,4.0,phase_1,,,,,,,,,,,,,orange,line
0.0,3.0,0.0,0,3.0,3.0,384.010791779,4.0,phase_1,,,,,,,,,,,,,green,circle
55.0,5.0,0.5,1,3.0,3.0,384.195804596,4.0,phase_1,,,,,,,,,,,,,blue,triangle
61.0,1.0,0.5,0,3.0,3.0,351.034164429,4.0,phase_1,,,,,,,,,,,,,yellow,cross
80.0,6.0,1.0,0,1.0,1.0,467.899084091,4.0,phase_1,,,,,,,,,,,,,gray,diamond
58.0,5.0,0.5,1,4.0,4.0,400.790929794,4.0,phase_1,,,,,,,,,,,,,blue,triangle
178.0,3.0,2.0,0,2.0,2.0,450.975894928,4.0,phase_1,,,,,,,,,,,,,green,circle
393.0,4.0,4.0,0,4.0,4.0,400.932073593,4.0,phase_1,,,,,,,,,,,,,magenta,hexagon
114.0,6.0,1.0,0,1.0,1.0,517.971992493,4.0,phase_1,,,,,,,,,,,,,gray,diamond
178.0,3.0,2.0,0,3.0,3.0,368.152141571,4.0,phase_1,,,,,,,,,,,,,green,circle
217.0,3.0,2.0,0,3.0,3.0,367.430925369,4.0,phase_1,,,,,,,,,,,,,green,circle
83.0,6.0,1.0,0,1.0,1.0,367.80500412,4.0,phase_1,,,,,,,,,,,,,gray,diamond
409.0,4.0,4.0,0,1.0,1.0,351.408958435,4.0,phase_1,,,,,,,,,,,,,magenta,hexagon
222.0,7.0,2.0,1,2.0,2.0,400.882005692,4.0,phase_1,,,,,,,,,,,,,cyan,flipped triangle
0.0,8.0,0.0,1,2.0,2.0,451.26414299,4.0,phase_1,,,,,,,,,,,,,orange,line
64.0,1.0,0.5,0,3.0,3.0,384.525060654,4.0,phase_1,,,,,,,,,,,,,yellow,cross
379.0,4.0,4.0,0,1.0,1.0,384.037017822,4.0,phase_1,,,,,,,,,,,,,magenta,hexagon
65.0,5.0,0.5,1,2.0,2.0,400.85792541499995,4.0,phase_1,,,,,,,,,,,,,blue,triangle
29.0,1.0,0.5,0,2.0,2.0,417.676925659,4.0,phase_1,,,,,,,,,,,,,yellow,cross
0.0,6.0,0.0,0,3.0,3.0,467.464208603,4.0,phase_1,,,,,,,,,,,,,gray,diamond
34.0,1.0,0.5,0,4.0,4.0,484.48610305799997,4.0,phase_1,,,,,,,,,,,,,yellow,cross
107.0,6.0,1.0,0,3.0,3.0,350.65412521400003,4.0,phase_1,,,,,,,,,,,,,gray,diamond
215.0,3.0,2.0,0,1.0,1.0,367.70296096799996,4.0,phase_1,,,,,,,,,,,,,green,circle
0.0,7.0,0.0,1,2.0,2.0,367.31505394000004,4.0,phase_1,,,,,,,,,,,,,cyan,flipped triangle
0.0,6.0,1.0,0,5.0,0.0,,1.0,phase_2,go,250.0,250.0,5.0,,,,,,,,,gray,diamond
0.0,4.0,4.0,0,6.0,6.0,734.395027161,1.0,phase_2,go,250.0,250.0,1.0,,,,,,,,,magenta,hexagon
0.0,2.0,1.0,1,5.0,0.0,,1.0,phase_2,stop,250.0,250.0,4.0,,,,,,,,,white,square
0.0,6.0,1.0,0,5.0,5.0,784.790039062,1.0,phase_2,go,250.0,250.0,1.0,,,,,,,,,gray,diamond
0.0,3.0,2.0,0,6.0,6.0,767.685890198,1.0,phase_2,go,250.0,250.0,1.0,,,,,,,,,green,circle
0.0,7.0,2.0,1,5.0,5.0,768.3088779450001,1.0,phase_2,go,250.0,250.0,1.0,,,,,,,,,cyan,flipped triangle
0.0,8.0,4.0,1,5.0,5.0,851.5660762790001,1.0,phase_2,go,250.0,250.0,1.0,,,,,,,,,orange,line
0.0,1.0,0.5,0,5.0,5.0,851.258993149,1.0,phase_2,go,250.0,250.0,1.0,,,,,,,,,yellow,cross
0.0,3.0,2.0,0,6.0,6.0,500.82492828400007,1.0,phase_2,go,250.0,250.0,1.0,,,,,,,,,green,circle
0.0,6.0,1.0,0,5.0,5.0,750.907897949,1.0,phase_2,go,250.0,250.0,1.0,,,,,,,,,gray,diamond
0.0,4.0,4.0,0,6.0,6.0,784.861803055,1.0,phase_2,go,250.0,250.0,1.0,,,,,,,,,magenta,hexagon
0.0,5.0,0.5,1,6.0,0.0,,1.0,phase_2,stop,250.0,250.0,4.0,,,,,,,,,blue,triangle
0.0,4.0,4.0,0,6.0,6.0,851.3669967650001,1.0,phase_2,go,250.0,250.0,1.0,,,,,,,,,magenta,hexagon
0.0,8.0,4.0,1,6.0,0.0,,1.0,phase_2,stop,250.0,300.0,4.0,,,,,,,,,orange,line
0.0,5.0,0.5,1,6.0,6.0,684.466123581,1.0,phase_2,go,250.0,300.0,1.0,,,,,,,,,blue,triangle
0.0,7.0,2.0,1,5.0,0.0,,1.0,phase_2,stop,300.0,300.0,4.0,,,,,,,,,cyan,flipped triangle
0.0,1.0,0.5,0,5.0,5.0,651.407003403,1.0,phase_2,go,300.0,300.0,1.0,,,,,,,,,yellow,cross
0.0,8.0,4.0,1,6.0,6.0,500.92792510999993,1.0,phase_2,stop,300.0,350.0,3.0,,,,,,,,,orange,line
0.0,7.0,2.0,1,5.0,0.0,,1.0,phase_2,stop,350.0,350.0,4.0,,,,,,,,,cyan,flipped triangle
0.0,8.0,4.0,1,5.0,0.0,,1.0,phase_2,stop,400.0,350.0,4.0,,,,,,,,,orange,line
0.0,4.0,4.0,0,6.0,6.0,717.6809310909999,1.0,phase_2,go,400.0,350.0,1.0,,,,,,,,,magenta,hexagon
0.0,3.0,2.0,0,6.0,6.0,551.211118698,1.0,phase_2,go,400.0,350.0,1.0,,,,,,,,,green,circle
0.0,7.0,2.0,1,6.0,0.0,,1.0,phase_2,stop,400.0,300.0,4.0,,,,,,,,,cyan,flipped triangle
0.0,5.0,0.5,1,6.0,6.0,568.1359767910001,1.0,phase_2,go,400.0,300.0,1.0,,,,,,,,,blue,triangle
0.0,8.0,4.0,1,5.0,5.0,767.9579257969999,1.0,phase_2,go,400.0,300.0,1.0,,,,,,,,,orange,line
0.0,4.0,4.0,0,5.0,5.0,568.2301521300001,1.0,phase_2,go,400.0,300.0,1.0,,,,,,,,,magenta,hexagon
0.0,6.0,1.0,0,5.0,5.0,451.031208038,1.0,phase_2,go,400.0,300.0,1.0,,,,,,,,,gray,diamond
0.0,7.0,2.0,1,6.0,6.0,467.717885971,1.0,phase_2,stop,400.0,350.0,3.0,,,,,,,,,cyan,flipped triangle
0.0,8.0,4.0,1,6.0,6.0,784.515142441,1.0,phase_2,go,400.0,350.0,1.0,,,,,,,,,orange,line
0.0,2.0,1.0,1,6.0,0.0,,1.0,phase_2,stop,400.0,300.0,4.0,,,,,,,,,white,square
0.0,8.0,4.0,1,5.0,0.0,,1.0,phase_2,stop,450.0,300.0,4.0,,,,,,,,,orange,line
0.0,4.0,4.0,0,5.0,5.0,601.281166077,1.0,phase_2,go,450.0,300.0,1.0,,,,,,,,,magenta,hexagon
0.0,6.0,1.0,0,6.0,6.0,667.929887772,1.0,phase_2,go,450.0,300.0,1.0,,,,,,,,,gray,diamond
0.0,8.0,4.0,1,5.0,5.0,634.649038315,1.0,phase_2,stop,500.0,300.0,3.0,,,,,,,,,orange,line
0.0,5.0,0.5,1,5.0,0.0,,1.0,phase_2,stop,450.0,300.0,4.0,,,,,,,,,blue,triangle
0.0,4.0,4.0,0,6.0,6.0,550.715208054,1.0,phase_2,go,450.0,300.0,1.0,,,,,,,,,magenta,hexagon
0.0,7.0,2.0,1,6.0,0.0,,2.0,phase_2,stop,450.0,350.0,4.0,,,,,,,,,cyan,flipped triangle
0.0,5.0,0.5,1,6.0,6.0,568.275928497,2.0,phase_2,stop,450.0,400.0,3.0,,,,,,,,,blue,triangle
0.0,4.0,4.0,0,6.0,6.0,634.835958481,2.0,phase_2,go,450.0,400.0,1.0,,,,,,,,,magenta,hexagon
0.0,3.0,2.0,0,6.0,6.0,567.573070526,2.0,phase_2,go,450.0,400.0,1.0,,,,,,,,,green,circle
0.0,2.0,1.0,1,5.0,5.0,467.54693985,2.0,phase_2,stop,500.0,400.0,3.0,,,,,,,,,white,square
0.0,1.0,0.5,0,5.0,5.0,734.699010849,2.0,phase_2,go,500.0,400.0,1.0,,,,,,,,,yellow,cross
0.0,8.0,4.0,1,5.0,5.0,434.340953827,2.0,phase_2,stop,450.0,400.0,3.0,,,,,,,,,orange,line
0.0,4.0,4.0,0,6.0,6.0,784.9159240719999,2.0,phase_2,go,450.0,400.0,1.0,,,,,,,,,magenta,hexagon
0.0,1.0,0.5,0,5.0,5.0,467.50903129600005,2.0,phase_2,go,450.0,400.0,1.0,,,,,,,,,yellow,cross
0.0,5.0,0.5,1,5.0,5.0,534.838914871,2.0,phase_2,stop,400.0,400.0,3.0,,,,,,,,,blue,triangle
0.0,6.0,1.0,0,5.0,5.0,851.3891696930001,2.0,phase_2,go,400.0,400.0,1.0,,,,,,,,,gray,diamond
0.0,4.0,4.0,0,6.0,6.0,617.5608634949999,2.0,phase_2,go,400.0,400.0,1.0,,,,,,,,,magenta,hexagon
0.0,4.0,4.0,0,5.0,5.0,584.141016006,2.0,phase_2,go,400.0,400.0,1.0,,,,,,,,,magenta,hexagon
0.0,5.0,0.5,1,5.0,5.0,818.7379837039999,2.0,phase_2,go,400.0,400.0,1.0,,,,,,,,,blue,triangle
0.0,5.0,0.5,1,6.0,0.0,,2.0,phase_2,stop,400.0,350.0,4.0,,,,,,,,,blue,triangle
0.0,8.0,4.0,1,6.0,0.0,,2.0,phase_2,stop,400.0,400.0,4.0,,,,,,,,,orange,line
0.0,7.0,2.0,1,5.0,0.0,,2.0,phase_2,stop,350.0,400.0,4.0,,,,,,,,,cyan,flipped triangle
0.0,5.0,0.5,1,5.0,5.0,584.626913071,2.0,phase_2,go,350.0,400.0,1.0,,,,,,,,,blue,triangle
0.0,8.0,4.0,1,6.0,0.0,,2.0,phase_2,stop,350.0,450.0,4.0,,,,,,,,,orange,line
0.0,1.0,0.5,0,6.0,6.0,684.297084808,2.0,phase_2,go,350.0,450.0,1.0,,,,,,,,,yellow,cross
0.0,6.0,1.0,0,5.0,5.0,717.897891998,2.0,phase_2,go,350.0,450.0,1.0,,,,,,,,,gray,diamond
0.0,7.0,2.0,1,5.0,0.0,,2.0,phase_2,stop,400.0,450.0,4.0,,,,,,,,,cyan,flipped triangle
0.0,8.0,4.0,1,5.0,5.0,467.074155807,2.0,phase_2,stop,450.0,450.0,3.0,,,,,,,,,orange,line
0.0,4.0,4.0,0,6.0,6.0,668.01404953,2.0,phase_2,go,450.0,450.0,1.0,,,,,,,,,magenta,hexagon
0.0,1.0,0.5,0,6.0,6.0,567.715167999,2.0,phase_2,go,450.0,450.0,1.0,,,,,,,,,yellow,cross
0.0,2.0,1.0,1,6.0,6.0,601.176977158,2.0,phase_2,stop,450.0,500.0,3.0,,,,,,,,,white,square
0.0,1.0,0.5,0,5.0,5.0,701.068878174,2.0,phase_2,go,450.0,500.0,1.0,,,,,,,,,yellow,cross
0.0,5.0,0.5,1,5.0,5.0,418.359994888,2.0,phase_2,stop,400.0,500.0,3.0,,,,,,,,,blue,triangle
0.0,8.0,4.0,1,6.0,6.0,717.839002609,2.0,phase_2,go,400.0,500.0,1.0,,,,,,,,,orange,line
0.0,7.0,2.0,1,5.0,5.0,350.63886642499995,2.0,phase_2,go,400.0,500.0,1.0,,,,,,,,,cyan,flipped triangle
0.0,8.0,4.0,1,6.0,6.0,617.331981659,2.0,phase_2,go,400.0,500.0,1.0,,,,,,,,,orange,line
0.0,4.0,4.0,0,5.0,5.0,617.286205292,2.0,phase_2,go,400.0,500.0,1.0,,,,,,,,,magenta,hexagon
0.0,5.0,0.5,1,6.0,6.0,651.333093643,2.0,phase_2,stop,400.0,450.0,3.0,,,,,,,,,blue,triangle
0.0,7.0,2.0,1,6.0,0.0,,2.0,phase_2,stop,400.0,400.0,4.0,,,,,,,,,cyan,flipped triangle
0.0,8.0,4.0,1,6.0,6.0,600.79407692,2.0,phase_2,stop,400.0,450.0,3.0,,,,,,,,,orange,line
0.0,5.0,0.5,1,5.0,5.0,751.103878021,2.0,phase_2,go,400.0,450.0,1.0,,,,,,,,,blue,triangle
0.0,7.0,2.0,1,5.0,0.0,,3.0,phase_2,stop,350.0,450.0,4.0,,,,,,,,,cyan,flipped triangle
0.0,7.0,2.0,1,6.0,6.0,568.325996399,3.0,phase_2,go,350.0,450.0,1.0,,,,,,,,,cyan,flipped triangle
0.0,1.0,0.5,0,6.0,6.0,534.878969193,3.0,phase_2,go,350.0,450.0,1.0,,,,,,,,,yellow,cross
0.0,3.0,2.0,0,6.0,6.0,434.232950211,3.0,phase_2,go,350.0,450.0,1.0,,,,,,,,,green,circle
0.0,8.0,4.0,1,5.0,5.0,434.381961823,3.0,phase_2,go,350.0,450.0,1.0,,,,,,,,,orange,line
0.0,2.0,1.0,1,5.0,5.0,700.732946396,3.0,phase_2,go,350.0,450.0,1.0,,,,,,,,,white,square
0.0,1.0,0.5,0,5.0,5.0,367.690086365,3.0,phase_2,go,350.0,450.0,1.0,,,,,,,,,yellow,cross
0.0,7.0,2.0,1,6.0,0.0,,3.0,phase_2,stop,350.0,400.0,4.0,,,,,,,,,cyan,flipped triangle
0.0,5.0,0.5,1,5.0,0.0,,3.0,phase_2,stop,400.0,400.0,4.0,,,,,,,,,blue,triangle
0.0,8.0,4.0,1,6.0,6.0,567.8291320799999,3.0,phase_2,stop,400.0,450.0,3.0,,,,,,,,,orange,line
0.0,4.0,4.0,0,5.0,5.0,650.666952133,3.0,phase_2,go,400.0,450.0,1.0,,,,,,,,,magenta,hexagon
0.0,8.0,4.0,1,5.0,0.0,,3.0,phase_2,stop,450.0,450.0,4.0,,,,,,,,,orange,line
0.0,8.0,4.0,1,6.0,0.0,,3.0,phase_2,stop,450.0,400.0,4.0,,,,,,,,,orange,line
0.0,5.0,0.5,1,6.0,6.0,467.808961868,3.0,phase_2,stop,450.0,450.0,3.0,,,,,,,,,blue,triangle
0.0,3.0,2.0,0,5.0,5.0,684.1588020319999,3.0,phase_2,go,450.0,450.0,1.0,,,,,,,,,green,circle
0.0,5.0,0.5,1,6.0,6.0,667.774915695,3.0,phase_2,go,450.0,450.0,1.0,,,,,,,,,blue,triangle
0.0,8.0,4.0,1,6.0,0.0,,3.0,phase_2,stop,450.0,400.0,4.0,,,,,,,,,orange,line
0.0,6.0,1.0,0,6.0,6.0,667.873859406,3.0,phase_2,go,450.0,400.0,1.0,,,,,,,,,gray,diamond
0.0,8.0,4.0,1,6.0,0.0,,3.0,phase_2,stop,450.0,450.0,4.0,,,,,,,,,orange,line
0.0,1.0,0.5,0,5.0,5.0,700.6130218510001,3.0,phase_2,go,450.0,450.0,1.0,,,,,,,,,yellow,cross
0.0,4.0,4.0,0,6.0,6.0,701.2698650359999,3.0,phase_2,go,450.0,450.0,1.0,,,,,,,,,magenta,hexagon
0.0,4.0,4.0,0,5.0,5.0,534.111022949,3.0,phase_2,go,450.0,450.0,1.0,,,,,,,,,magenta,hexagon
0.0,4.0,4.0,0,5.0,5.0,767.858982086,3.0,phase_2,go,450.0,450.0,1.0,,,,,,,,,magenta,hexagon
0.0,2.0,1.0,1,5.0,5.0,467.314958572,3.0,phase_2,stop,500.0,450.0,3.0,,,,,,,,,white,square
0.0,8.0,4.0,1,6.0,6.0,700.99401474,3.0,phase_2,stop,500.0,500.0,3.0,,,,,,,,,orange,line
0.0,5.0,0.5,1,5.0,0.0,,3.0,phase_2,stop,450.0,500.0,4.0,,,,,,,,,blue,triangle
0.0,3.0,2.0,0,6.0,6.0,601.3078689580001,3.0,phase_2,go,450.0,500.0,1.0,,,,,,,,,green,circle
0.0,1.0,0.5,0,6.0,6.0,650.729894638,3.0,phase_2,go,450.0,500.0,1.0,,,,,,,,,yellow,cross
0.0,7.0,2.0,1,6.0,0.0,,3.0,phase_2,stop,450.0,450.0,4.0,,,,,,,,,cyan,flipped triangle
0.0,2.0,1.0,1,5.0,5.0,683.811903,3.0,phase_2,stop,500.0,450.0,3.0,,,,,,,,,white,square
0.0,7.0,2.0,1,6.0,0.0,,3.0,phase_2,stop,500.0,500.0,4.0,,,,,,,,,cyan,flipped triangle
0.0,1.0,0.5,0,5.0,5.0,784.655094147,3.0,phase_2,go,500.0,500.0,1.0,,,,,,,,,yellow,cross
0.0,7.0,2.0,1,6.0,6.0,717.3318862919999,3.0,phase_2,stop,500.0,550.0,3.0,,,,,,,,,cyan,flipped triangle
0.0,6.0,1.0,0,5.0,5.0,884.381055832,3.0,phase_2,go,500.0,550.0,1.0,,,,,,,,,gray,diamond
0.0,7.0,2.0,1,5.0,0.0,,3.0,phase_2,stop,450.0,550.0,4.0,,,,,,,,,cyan,flipped triangle
0.0,5.0,0.5,1,5.0,0.0,,3.0,phase_2,stop,500.0,550.0,4.0,,,,,,,,,blue,triangle
0.0,3.0,2.0,0,6.0,6.0,634.4568729399999,4.0,phase_2,go,500.0,550.0,1.0,,,,,,,,,green,circle
0.0,7.0,2.0,1,6.0,6.0,650.709867477,4.0,phase_2,go,500.0,550.0,1.0,,,,,,,,,cyan,flipped triangle
0.0,1.0,0.5,0,6.0,6.0,767.852067947,4.0,phase_2,go,500.0,550.0,1.0,,,,,,,,,yellow,cross
0.0,1.0,0.5,0,6.0,6.0,634.851932526,4.0,phase_2,go,500.0,550.0,1.0,,,,,,,,,yellow,cross
0.0,6.0,1.0,0,5.0,5.0,350.973129272,4.0,phase_2,go,500.0,550.0,1.0,,,,,,,,,gray,diamond
0.0,1.0,0.5,0,6.0,6.0,350.488185883,4.0,phase_2,go,500.0,550.0,1.0,,,,,,,,,yellow,cross
0.0,8.0,4.0,1,5.0,0.0,,4.0,phase_2,stop,550.0,550.0,4.0,,,,,,,,,orange,line
0.0,7.0,2.0,1,6.0,0.0,,4.0,phase_2,stop,550.0,500.0,4.0,,,,,,,,,cyan,flipped triangle
0.0,1.0,0.5,0,5.0,5.0,684.320926666,4.0,phase_2,go,550.0,500.0,1.0,,,,,,,,,yellow,cross
0.0,8.0,4.0,1,6.0,6.0,617.8658008580001,4.0,phase_2,stop,550.0,550.0,3.0,,,,,,,,,orange,line
0.0,3.0,2.0,0,5.0,5.0,617.831945419,4.0,phase_2,go,550.0,550.0,1.0,,,,,,,,,green,circle
0.0,4.0,4.0,0,5.0,5.0,668.070077896,4.0,phase_2,go,550.0,550.0,1.0,,,,,,,,,magenta,hexagon
0.0,6.0,1.0,0,5.0,5.0,584.199905396,4.0,phase_2,go,550.0,550.0,1.0,,,,,,,,,gray,diamond
0.0,5.0,0.5,1,5.0,0.0,,4.0,phase_2,stop,600.0,550.0,4.0,,,,,,,,,blue,triangle
0.0,3.0,2.0,0,5.0,5.0,484.492063522,4.0,phase_2,go,600.0,550.0,1.0,,,,,,,,,green,circle
0.0,4.0,4.0,0,5.0,5.0,500.496864319,4.0,phase_2,go,600.0,550.0,1.0,,,,,,,,,magenta,hexagon
0.0,2.0,1.0,1,5.0,5.0,534.929037094,4.0,phase_2,stop,650.0,550.0,3.0,,,,,,,,,white,square
0.0,3.0,2.0,0,6.0,6.0,517.8859233860001,4.0,phase_2,go,650.0,550.0,1.0,,,,,,,,,green,circle
0.0,3.0,2.0,0,6.0,6.0,450.488805771,4.0,phase_2,go,650.0,550.0,1.0,,,,,,,,,green,circle
0.0,5.0,0.5,1,5.0,0.0,,4.0,phase_2,stop,600.0,550.0,4.0,,,,,,,,,blue,triangle
0.0,7.0,2.0,1,5.0,0.0,,4.0,phase_2,stop,650.0,550.0,4.0,,,,,,,,,cyan,flipped triangle
0.0,2.0,1.0,1,5.0,5.0,484.750032425,4.0,phase_2,stop,700.0,550.0,3.0,,,,,,,,,white,square
0.0,5.0,0.5,1,6.0,0.0,,4.0,phase_2,stop,700.0,500.0,4.0,,,,,,,,,blue,triangle
0.0,7.0,2.0,1,6.0,0.0,,4.0,phase_2,stop,700.0,550.0,4.0,,,,,,,,,cyan,flipped triangle
0.0,2.0,1.0,1,6.0,0.0,,4.0,phase_2,stop,700.0,600.0,4.0,,,,,,,,,white,square
0.0,1.0,0.5,0,5.0,5.0,534.393072128,4.0,phase_2,go,700.0,600.0,1.0,,,,,,,,,yellow,cross
0.0,2.0,1.0,1,5.0,5.0,450.674057007,4.0,phase_2,go,700.0,600.0,1.0,,,,,,,,,white,square
0.0,3.0,2.0,0,5.0,5.0,467.573165894,4.0,phase_2,go,700.0,600.0,1.0,,,,,,,,,green,circle
0.0,6.0,1.0,0,5.0,5.0,500.643968582,4.0,phase_2,go,700.0,600.0,1.0,,,,,,,,,gray,diamond
0.0,4.0,4.0,0,5.0,5.0,450.963973999,4.0,phase_2,go,700.0,600.0,1.0,,,,,,,,,magenta,hexagon
0.0,7.0,2.0,1,6.0,0.0,,4.0,phase_2,go,700.0,600.0,5.0,,,,,,,,,cyan,flipped triangle
0.0,2.0,1.0,1,6.0,6.0,684.69786644,4.0,phase_2,stop,700.0,650.0,3.0,,,,,,,,,white,square
0.0,2.0,1.0,1,6.0,6.0,484.019994736,4.0,phase_2,stop,700.0,600.0,3.0,,,,,,,,,white,square
0.0,2.0,1.0,1,6.0,0.0,,4.0,phase_2,stop,700.0,550.0,4.0,,,,,,,,,white,square
0.0,2.0,1.0,1,6.0,0.0,,4.0,phase_2,go,700.0,550.0,5.0,,,,,,,,,white,square
0.0,7.0,2.0,1,6.0,6.0,717.505931854,4.0,phase_2,stop,700.0,600.0,3.0,,,,,,,,,cyan,flipped triangle
0.0,3.0,2.0,0,6.0,6.0,584.578990936,5.0,phase_2,go,700.0,600.0,1.0,,,,,,,,,green,circle
0.0,8.0,4.0,1,6.0,6.0,583.9889049530001,5.0,phase_2,stop,700.0,550.0,3.0,,,,,,,,,orange,line
0.0,3.0,2.0,0,5.0,5.0,584.021806717,5.0,phase_2,go,700.0,550.0,1.0,,,,,,,,,green,circle
0.0,3.0,2.0,0,6.0,6.0,517.985105515,5.0,phase_2,go,700.0,550.0,1.0,,,,,,,,,green,circle
0.0,7.0,2.0,1,6.0,6.0,634.31596756,5.0,phase_2,stop,700.0,500.0,3.0,,,,,,,,,cyan,flipped triangle
0.0,5.0,0.5,1,6.0,0.0,,5.0,phase_2,stop,700.0,450.0,4.0,,,,,,,,,blue,triangle
0.0,4.0,4.0,0,6.0,6.0,434.195041656,5.0,phase_2,go,700.0,450.0,1.0,,,,,,,,,magenta,hexagon
0.0,3.0,2.0,0,5.0,5.0,350.281000137,5.0,phase_2,go,700.0,450.0,1.0,,,,,,,,,green,circle
0.0,3.0,2.0,0,5.0,5.0,434.29207801800004,5.0,phase_2,go,700.0,450.0,1.0,,,,,,,,,green,circle
0.0,5.0,0.5,1,6.0,0.0,,5.0,phase_2,stop,700.0,500.0,4.0,,,,,,,,,blue,triangle
0.0,7.0,2.0,1,5.0,0.0,,5.0,phase_2,stop,650.0,500.0,4.0,,,,,,,,,cyan,flipped triangle
0.0,5.0,0.5,1,5.0,0.0,,5.0,phase_2,stop,700.0,500.0,4.0,,,,,,,,,blue,triangle
0.0,7.0,2.0,1,5.0,0.0,,5.0,phase_2,stop,750.0,500.0,4.0,,,,,,,,,cyan,flipped triangle
0.0,1.0,0.5,0,5.0,5.0,417.74892807000003,5.0,phase_2,go,750.0,500.0,1.0,,,,,,,,,yellow,cross
0.0,1.0,0.5,0,5.0,5.0,434.784889221,5.0,phase_2,go,750.0,500.0,1.0,,,,,,,,,yellow,cross
0.0,4.0,4.0,0,6.0,6.0,400.640964508,5.0,phase_2,go,750.0,500.0,1.0,,,,,,,,,magenta,hexagon
0.0,5.0,0.5,1,5.0,0.0,,5.0,phase_2,stop,750.0,500.0,4.0,,,,,,,,,blue,triangle
0.0,4.0,4.0,0,6.0,6.0,367.58518219,5.0,phase_2,go,750.0,500.0,1.0,,,,,,,,,magenta,hexagon
0.0,5.0,0.5,1,5.0,0.0,,5.0,phase_2,go,750.0,500.0,5.0,,,,,,,,,blue,triangle
0.0,6.0,1.0,0,6.0,6.0,517.543077469,5.0,phase_2,go,750.0,500.0,1.0,,,,,,,,,gray,diamond
0.0,2.0,1.0,1,5.0,0.0,,5.0,phase_2,stop,750.0,500.0,4.0,,,,,,,,,white,square
0.0,8.0,4.0,1,6.0,6.0,484.209060669,5.0,phase_2,go,750.0,500.0,1.0,,,,,,,,,orange,line
0.0,6.0,1.0,0,5.0,5.0,517.527103424,5.0,phase_2,go,750.0,500.0,1.0,,,,,,,,,gray,diamond
0.0,1.0,0.5,0,6.0,6.0,451.002836227,5.0,phase_2,go,750.0,500.0,1.0,,,,,,,,,yellow,cross
0.0,1.0,0.5,0,6.0,6.0,434.278011322,5.0,phase_2,go,750.0,500.0,1.0,,,,,,,,,yellow,cross
0.0,7.0,2.0,1,5.0,0.0,,5.0,phase_2,go,750.0,500.0,5.0,,,,,,,,,cyan,flipped triangle
0.0,3.0,2.0,0,5.0,5.0,484.192848206,5.0,phase_2,go,750.0,500.0,1.0,,,,,,,,,green,circle
0.0,8.0,4.0,1,5.0,5.0,667.918920517,5.0,phase_2,stop,750.0,500.0,3.0,,,,,,,,,orange,line
0.0,3.0,2.0,0,6.0,6.0,517.9448127750001,5.0,phase_2,go,750.0,500.0,1.0,,,,,,,,,green,circle
0.0,4.0,4.0,0,5.0,5.0,501.140117645,5.0,phase_2,go,750.0,500.0,1.0,,,,,,,,,magenta,hexagon
0.0,4.0,4.0,0,5.0,5.0,350.481033325,5.0,phase_2,go,750.0,500.0,1.0,,,,,,,,,magenta,hexagon
0.0,8.0,4.0,1,5.0,0.0,,5.0,phase_2,stop,700.0,500.0,4.0,,,,,,,,,orange,line
0.0,8.0,4.0,1,6.0,0.0,,5.0,phase_2,stop,700.0,550.0,4.0,,,,,,,,,orange,line
0.0,1.0,0.5,0,6.0,6.0,417.36388206500004,5.0,phase_2,go,700.0,550.0,1.0,,,,,,,,,yellow,cross
0.0,8.0,4.0,1,6.0,0.0,,5.0,phase_2,stop,700.0,600.0,4.0,,,,,,,,,orange,line
0.0,7.0,2.0,1,6.0,0.0,,5.0,phase_2,go,700.0,600.0,5.0,,,,,,,,,cyan,flipped triangle
0.0,3.0,2.0,0,5.0,5.0,450.92916488599997,6.0,phase_2,go,700.0,600.0,1.0,,,,,,,,,green,circle
0.0,2.0,1.0,1,6.0,6.0,351.233005524,6.0,phase_2,stop,700.0,650.0,3.0,,,,,,,,,white,square
0.0,6.0,1.0,0,5.0,5.0,451.576948166,6.0,phase_2,go,700.0,650.0,1.0,,,,,,,,,gray,diamond
0.0,4.0,4.0,0,6.0,6.0,350.734949112,6.0,phase_2,go,700.0,650.0,1.0,,,,,,,,,magenta,hexagon
0.0,4.0,4.0,0,5.0,5.0,417.695045471,6.0,phase_2,go,700.0,650.0,1.0,,,,,,,,,magenta,hexagon
0.0,3.0,2.0,0,6.0,6.0,417.88816452,6.0,phase_2,go,700.0,650.0,1.0,,,,,,,,,green,circle
0.0,6.0,1.0,0,6.0,6.0,384.387969971,6.0,phase_2,go,700.0,650.0,1.0,,,,,,,,,gray,diamond
0.0,2.0,1.0,1,6.0,6.0,350.68893432600004,6.0,phase_2,stop,700.0,600.0,3.0,,,,,,,,,white,square
0.0,8.0,4.0,1,5.0,0.0,,6.0,phase_2,go,700.0,600.0,5.0,,,,,,,,,orange,line
0.0,6.0,1.0,0,6.0,6.0,501.351118088,6.0,phase_2,go,700.0,600.0,1.0,,,,,,,,,gray,diamond
0.0,5.0,0.5,1,5.0,0.0,,6.0,phase_2,go,700.0,600.0,5.0,,,,,,,,,blue,triangle
0.0,7.0,2.0,1,6.0,6.0,968.7910079960001,6.0,phase_2,go,700.0,600.0,1.0,,,,,,,,,cyan,flipped triangle
0.0,6.0,1.0,0,6.0,6.0,467.3371315,6.0,phase_2,go,700.0,600.0,1.0,,,,,,,,,gray,diamond
0.0,3.0,2.0,0,5.0,5.0,434.487819672,6.0,phase_2,go,700.0,600.0,1.0,,,,,,,,,green,circle
0.0,1.0,0.5,0,6.0,6.0,500.674009323,6.0,phase_2,go,700.0,600.0,1.0,,,,,,,,,yellow,cross
0.0,6.0,1.0,0,6.0,6.0,451.31111145,6.0,phase_2,go,700.0,600.0,1.0,,,,,,,,,gray,diamond
0.0,7.0,2.0,1,6.0,6.0,417.72603988599997,6.0,phase_2,stop,700.0,550.0,3.0,,,,,,,,,cyan,flipped triangle
0.0,2.0,1.0,1,6.0,6.0,467.734098434,6.0,phase_2,stop,700.0,500.0,3.0,,,,,,,,,white,square
0.0,3.0,2.0,0,5.0,5.0,367.58518219,6.0,phase_2,go,700.0,500.0,1.0,,,,,,,,,green,circle
0.0,6.0,1.0,0,6.0,6.0,367.475032806,6.0,phase_2,go,700.0,500.0,1.0,,,,,,,,,gray,diamond
0.0,7.0,2.0,1,5.0,5.0,350.76713562,6.0,phase_2,stop,750.0,500.0,3.0,,,,,,,,,cyan,flipped triangle
0.0,6.0,1.0,0,6.0,6.0,500.533103943,6.0,phase_2,go,750.0,500.0,1.0,,,,,,,,,gray,diamond
0.0,2.0,1.0,1,5.0,5.0,451.006889343,6.0,phase_2,stop,700.0,500.0,3.0,,,,,,,,,white,square
0.0,2.0,1.0,1,5.0,0.0,,6.0,phase_2,go,700.0,500.0,5.0,,,,,,,,,white,square
0.0,4.0,4.0,0,6.0,6.0,550.719976425,6.0,phase_2,go,700.0,500.0,1.0,,,,,,,,,magenta,hexagon
0.0,7.0,2.0,1,5.0,0.0,,6.0,phase_2,stop,650.0,500.0,4.0,,,,,,,,,cyan,flipped triangle
0.0,6.0,1.0,0,5.0,5.0,551.396846771,6.0,phase_2,go,650.0,500.0,1.0,,,,,,,,,gray,diamond
0.0,4.0,4.0,0,5.0,5.0,450.706005096,6.0,phase_2,go,650.0,500.0,1.0,,,,,,,,,magenta,hexagon
0.0,6.0,1.0,0,6.0,6.0,384.31596756000005,6.0,phase_2,go,650.0,500.0,1.0,,,,,,,,,gray,diamond
0.0,1.0,0.5,0,5.0,5.0,467.82708168,6.0,phase_2,go,650.0,500.0,1.0,,,,,,,,,yellow,cross
0.0,7.0,2.0,1,6.0,0.0,,6.0,phase_2,go,650.0,500.0,5.0,,,,,,,,,cyan,flipped triangle
0.0,3.0,2.0,0,5.0,5.0,467.592000961,6.0,phase_2,go,650.0,500.0,1.0,,,,,,,,,green,circle
0.0,5.0,0.5,1,5.0,5.0,383.815050125,6.0,phase_2,stop,700.0,500.0,3.0,,,,,,,,,blue,triangle
0.0,4.0,4.0,0,5.0,5.0,467.492103577,6.0,phase_2,go,700.0,500.0,1.0,,,,,,,,,magenta,hexagon
0.0,3.0,2.0,0,5.0,5.0,417.896032333,6.0,phase_2,go,700.0,500.0,1.0,,,,,,,,,green,circle
0.0,8.0,4.0,1,6.0,0.0,,6.0,phase_2,stop,700.0,450.0,4.0,,,,,,,,,orange,line
0.0,1.0,0.5,0,6.0,6.0,517.820835114,7.0,phase_2,go,700.0,450.0,1.0,,,,,,,,,yellow,cross
0.0,8.0,4.0,1,5.0,0.0,,7.0,phase_2,stop,650.0,450.0,4.0,,,,,,,,,orange,line
0.0,3.0,2.0,0,6.0,6.0,433.686971664,7.0,phase_2,go,650.0,450.0,1.0,,,,,,,,,green,circle
0.0,2.0,1.0,1,6.0,6.0,467.475891113,7.0,phase_2,stop,650.0,500.0,3.0,,,,,,,,,white,square
0.0,1.0,0.5,0,5.0,5.0,517.586946487,7.0,phase_2,go,650.0,500.0,1.0,,,,,,,,,yellow,cross
0.0,3.0,2.0,0,6.0,6.0,434.27491188,7.0,phase_2,go,650.0,500.0,1.0,,,,,,,,,green,circle
0.0,7.0,2.0,1,5.0,0.0,,7.0,phase_2,stop,700.0,500.0,4.0,,,,,,,,,cyan,flipped triangle
0.0,2.0,1.0,1,5.0,0.0,,7.0,phase_2,stop,750.0,500.0,4.0,,,,,,,,,white,square
0.0,7.0,2.0,1,5.0,0.0,,7.0,phase_2,stop,750.0,500.0,4.0,,,,,,,,,cyan,flipped triangle
0.0,6.0,1.0,0,6.0,6.0,484.899044037,7.0,phase_2,go,750.0,500.0,1.0,,,,,,,,,gray,diamond
0.0,3.0,2.0,0,6.0,6.0,434.229850769,7.0,phase_2,go,750.0,500.0,1.0,,,,,,,,,green,circle
0.0,3.0,2.0,0,6.0,6.0,433.793783188,7.0,phase_2,go,750.0,500.0,1.0,,,,,,,,,green,circle
0.0,3.0,2.0,0,5.0,5.0,450.965166092,7.0,phase_2,go,750.0,500.0,1.0,,,,,,,,,green,circle
0.0,4.0,4.0,0,5.0,5.0,483.92081260699996,7.0,phase_2,go,750.0,500.0,1.0,,,,,,,,,magenta,hexagon
0.0,3.0,2.0,0,6.0,6.0,417.513847351,7.0,phase_2,go,750.0,500.0,1.0,,,,,,,,,green,circle
0.0,5.0,0.5,1,5.0,0.0,,7.0,phase_2,stop,750.0,500.0,4.0,,,,,,,,,blue,triangle
0.0,1.0,0.5,0,6.0,6.0,483.97707939099996,7.0,phase_2,go,750.0,500.0,1.0,,,,,,,,,yellow,cross
0.0,2.0,1.0,1,6.0,0.0,,7.0,phase_2,go,750.0,500.0,5.0,,,,,,,,,white,square
0.0,4.0,4.0,0,5.0,5.0,500.91505050700005,7.0,phase_2,go,750.0,500.0,1.0,,,,,,,,,magenta,hexagon
0.0,2.0,1.0,1,5.0,0.0,,7.0,phase_2,stop,750.0,500.0,4.0,,,,,,,,,white,square
0.0,2.0,1.0,1,6.0,0.0,,7.0,phase_2,stop,750.0,450.0,4.0,,,,,,,,,white,square
0.0,2.0,1.0,1,6.0,6.0,851.046085358,7.0,phase_2,go,750.0,450.0,1.0,,,,,,,,,white,square
0.0,3.0,2.0,0,5.0,5.0,451.03883743299997,7.0,phase_2,go,750.0,450.0,1.0,,,,,,,,,green,circle
0.0,6.0,1.0,0,5.0,5.0,533.987045288,7.0,phase_2,go,750.0,450.0,1.0,,,,,,,,,gray,diamond
0.0,1.0,0.5,0,6.0,6.0,534.0001583100001,7.0,phase_2,go,750.0,450.0,1.0,,,,,,,,,yellow,cross
0.0,4.0,4.0,0,5.0,5.0,551.05805397,7.0,phase_2,go,750.0,450.0,1.0,,,,,,,,,magenta,hexagon
0.0,8.0,4.0,1,6.0,0.0,,7.0,phase_2,go,750.0,450.0,5.0,,,,,,,,,orange,line
0.0,1.0,0.5,0,6.0,6.0,484.09914970399996,7.0,phase_2,go,750.0,450.0,1.0,,,,,,,,,yellow,cross
0.0,5.0,0.5,1,5.0,0.0,,7.0,phase_2,stop,750.0,450.0,4.0,,,,,,,,,blue,triangle
0.0,6.0,1.0,0,6.0,6.0,517.902135849,7.0,phase_2,go,750.0,450.0,1.0,,,,,,,,,gray,diamond
0.0,6.0,1.0,0,5.0,5.0,434.401035309,7.0,phase_2,go,750.0,450.0,1.0,,,,,,,,,gray,diamond
0.0,3.0,2.0,0,6.0,6.0,417.99592971799996,7.0,phase_2,go,750.0,450.0,1.0,,,,,,,,,green,circle
0.0,4.0,4.0,0,6.0,6.0,400.367021561,7.0,phase_2,go,750.0,450.0,1.0,,,,,,,,,magenta,hexagon
0.0,5.0,0.5,1,5.0,5.0,817.86608696,7.0,phase_2,stop,750.0,450.0,3.0,,,,,,,,,blue,triangle
0.0,6.0,1.0,0,5.0,5.0,483.65187645000003,7.0,phase_2,go,750.0,450.0,1.0,,,,,,,,,gray,diamond
0.0,5.0,0.5,1,5.0,0.0,,7.0,phase_2,stop,700.0,450.0,4.0,,,,,,,,,blue,triangle
0.0,1.0,0.5,0,6.0,6.0,467.61608123800005,8.0,phase_2,go,700.0,450.0,1.0,,,,,,,,,yellow,cross
0.0,7.0,2.0,1,5.0,0.0,,8.0,phase_2,stop,750.0,450.0,4.0,,,,,,,,,cyan,flipped triangle
0.0,3.0,2.0,0,6.0,6.0,433.788061142,8.0,phase_2,go,750.0,450.0,1.0,,,,,,,,,green,circle
0.0,5.0,0.5,1,5.0,0.0,,8.0,phase_2,stop,750.0,450.0,4.0,,,,,,,,,blue,triangle
0.0,1.0,0.5,0,5.0,5.0,467.876195908,8.0,phase_2,go,750.0,450.0,1.0,,,,,,,,,yellow,cross
0.0,6.0,1.0,0,6.0,6.0,417.495965958,8.0,phase_2,go,750.0,450.0,1.0,,,,,,,,,gray,diamond
0.0,6.0,1.0,0,6.0,6.0,434.05818939200003,8.0,phase_2,go,750.0,450.0,1.0,,,,,,,,,gray,diamond
0.0,8.0,4.0,1,5.0,0.0,,8.0,phase_2,stop,750.0,450.0,4.0,,,,,,,,,orange,line
0.0,4.0,4.0,0,5.0,5.0,484.533071518,8.0,phase_2,go,750.0,450.0,1.0,,,,,,,,,magenta,hexagon
0.0,2.0,1.0,1,5.0,5.0,384.692907333,8.0,phase_2,go,750.0,450.0,1.0,,,,,,,,,white,square
0.0,6.0,1.0,0,6.0,6.0,533.7400436400001,8.0,phase_2,go,750.0,450.0,1.0,,,,,,,,,gray,diamond
0.0,2.0,1.0,1,6.0,0.0,,8.0,phase_2,stop,750.0,500.0,4.0,,,,,,,,,white,square
0.0,5.0,0.5,1,5.0,0.0,,8.0,phase_2,stop,750.0,500.0,4.0,,,,,,,,,blue,triangle
0.0,1.0,0.5,0,5.0,5.0,501.25312805199997,8.0,phase_2,go,750.0,500.0,1.0,,,,,,,,,yellow,cross
0.0,2.0,1.0,1,5.0,0.0,,8.0,phase_2,stop,750.0,500.0,4.0,,,,,,,,,white,square
0.0,6.0,1.0,0,5.0,5.0,451.11894607500005,8.0,phase_2,go,750.0,500.0,1.0,,,,,,,,,gray,diamond
0.0,1.0,0.5,0,5.0,5.0,501.05404853799996,8.0,phase_2,go,750.0,500.0,1.0,,,,,,,,,yellow,cross
0.0,6.0,1.0,0,5.0,5.0,450.90293884299996,8.0,phase_2,go,750.0,500.0,1.0,,,,,,,,,gray,diamond
0.0,2.0,1.0,1,6.0,6.0,367.986917496,8.0,phase_2,stop,750.0,550.0,3.0,,,,,,,,,white,square
0.0,8.0,4.0,1,5.0,0.0,,8.0,phase_2,stop,750.0,550.0,4.0,,,,,,,,,orange,line
0.0,4.0,4.0,0,5.0,5.0,468.04690361,8.0,phase_2,go,750.0,550.0,1.0,,,,,,,,,magenta,hexagon
0.0,2.0,1.0,1,6.0,0.0,,8.0,phase_2,go,750.0,550.0,5.0,,,,,,,,,white,square
0.0,1.0,0.5,0,5.0,5.0,517.762184143,8.0,phase_2,go,750.0,550.0,1.0,,,,,,,,,yellow,cross
0.0,1.0,0.5,0,6.0,6.0,533.826828003,8.0,phase_2,go,750.0,550.0,1.0,,,,,,,,,yellow,cross
0.0,1.0,0.5,0,6.0,6.0,400.41089057899995,8.0,phase_2,go,750.0,550.0,1.0,,,,,,,,,yellow,cross
0.0,3.0,2.0,0,6.0,6.0,484.230995178,8.0,phase_2,go,750.0,550.0,1.0,,,,,,,,,green,circle
0.0,6.0,1.0,0,6.0,6.0,584.151983261,8.0,phase_2,go,750.0,550.0,1.0,,,,,,,,,gray,diamond
0.0,5.0,0.5,1,6.0,0.0,,8.0,phase_2,stop,750.0,500.0,4.0,,,,,,,,,blue,triangle
0.0,6.0,1.0,0,6.0,6.0,483.802080154,8.0,phase_2,go,750.0,500.0,1.0,,,,,,,,,gray,diamond
0.0,5.0,0.5,1,5.0,0.0,,8.0,phase_2,go,750.0,500.0,5.0,,,,,,,,,blue,triangle
0.0,6.0,1.0,0,5.0,5.0,567.770957947,8.0,phase_2,go,750.0,500.0,1.0,,,,,,,,,gray,diamond
0.0,2.0,1.0,1,6.0,0.0,,8.0,phase_2,stop,750.0,550.0,4.0,,,,,,,,,white,square
0.0,2.0,1.0,1,6.0,0.0,,8.0,phase_2,stop,750.0,600.0,4.0,,,,,,,,,white,square
0.0,5.0,0.5,1,6.0,0.0,,8.0,phase_2,stop,750.0,650.0,4.0,,,,,,,,,blue,triangle
0.0,2.0,1.0,1,5.0,0.0,,8.0,phase_2,go,750.0,650.0,5.0,,,,,,,,,white,square
0.0,2.0,1.0,1,6.0,0.0,,8.0,phase_2,stop,750.0,700.0,4.0,,,,,,,,,white,square
0.0,8.0,4.0,1,7.0,5.0,3554.4011592899997,1.0,phase_3,,,,,162.0,3.0,54.0,108.0,216.0,270.0,162.0,324.0,orange,line
0.0,3.0,2.0,0,7.0,1.0,2219.0399169899997,1.0,phase_3,,,,,245.0,5.0,245.0,294.0,49.0,98.0,147.0,196.0,green,circle
0.0,2.0,1.0,1,7.0,3.0,2052.3960590399997,1.0,phase_3,,,,,44.0,1.0,132.0,220.0,44.0,264.0,88.0,176.0,white,square
0.0,3.0,2.0,0,7.0,4.0,2002.17413902,1.0,phase_3,,,,,170.0,5.0,34.0,102.0,68.0,170.0,204.0,136.0,green,circle
0.0,7.0,2.0,1,7.0,1.0,4104.64310646,1.0,phase_3,,,,,88.0,2.0,88.0,176.0,132.0,44.0,264.0,220.0,cyan,flipped triangle
0.0,8.0,4.0,1,7.0,3.0,3320.0380802199998,1.0,phase_3,,,,,98.0,2.0,196.0,147.0,98.0,294.0,49.0,245.0,orange,line
0.0,7.0,2.0,1,7.0,3.0,1318.17293167,1.0,phase_3,,,,,117.0,3.0,156.0,195.0,117.0,234.0,78.0,39.0,cyan,flipped triangle
0.0,7.0,2.0,1,7.0,5.0,2386.41881943,1.0,phase_3,,,,,136.0,4.0,204.0,102.0,170.0,68.0,136.0,34.0,cyan,flipped triangle
0.0,5.0,0.5,1,7.0,6.0,2536.13400459,1.0,phase_3,,,,,117.0,3.0,78.0,156.0,234.0,39.0,195.0,117.0,blue,triangle
0.0,5.0,0.5,1,7.0,6.0,2269.59300041,1.0,phase_3,,,,,132.0,3.0,88.0,220.0,44.0,264.0,176.0,132.0,blue,triangle
0.0,5.0,0.5,1,7.0,2.0,2019.29402351,1.0,phase_3,,,,,147.0,3.0,49.0,147.0,245.0,196.0,98.0,294.0,blue,triangle
0.0,8.0,4.0,1,7.0,4.0,1619.0149784100001,1.0,phase_3,,,,,136.0,4.0,102.0,34.0,170.0,136.0,68.0,204.0,orange,line
0.0,1.0,0.5,0,7.0,5.0,1935.0829124499999,1.0,phase_3,,,,,324.0,6.0,270.0,108.0,54.0,216.0,324.0,162.0,yellow,cross
0.0,6.0,1.0,0,7.0,2.0,2736.47093773,1.0,phase_3,,,,,220.0,5.0,44.0,220.0,264.0,176.0,132.0,88.0,gray,diamond
0.0,6.0,1.0,0,7.0,3.0,2252.59304047,1.0,phase_3,,,,,204.0,6.0,102.0,34.0,204.0,68.0,136.0,170.0,gray,diamond
0.0,7.0,2.0,1,7.0,5.0,1819.01717186,1.0,phase_3,,,,,98.0,2.0,196.0,294.0,49.0,147.0,98.0,245.0,cyan,flipped triangle
0.0,4.0,4.0,0,7.0,4.0,1335.2980613700001,1.0,phase_3,,,,,324.0,6.0,54.0,162.0,108.0,324.0,216.0,270.0,magenta,hexagon
0.0,4.0,4.0,0,7.0,5.0,1935.91690063,1.0,phase_3,,,,,204.0,6.0,34.0,68.0,136.0,102.0,204.0,170.0,magenta,hexagon
0.0,5.0,0.5,1,7.0,5.0,1869.0199852,1.0,phase_3,,,,,108.0,2.0,216.0,324.0,54.0,162.0,108.0,270.0,blue,triangle
0.0,1.0,0.5,0,7.0,5.0,2486.61899567,1.0,phase_3,,,,,234.0,6.0,39.0,156.0,78.0,195.0,234.0,117.0,yellow,cross
0.0,5.0,0.5,1,7.0,5.0,1552.09517479,2.0,phase_3,,,,,147.0,3.0,245.0,196.0,98.0,294.0,147.0,49.0,blue,triangle
0.0,2.0,1.0,1,7.0,2.0,2403.22399139,2.0,phase_3,,,,,156.0,4.0,195.0,156.0,39.0,117.0,234.0,78.0,white,square
0.0,6.0,1.0,0,7.0,2.0,2102.2601127599996,2.0,phase_3,,,,,245.0,5.0,294.0,245.0,49.0,147.0,98.0,196.0,gray,diamond
0.0,3.0,2.0,0,7.0,1.0,1968.83010864,2.0,phase_3,,,,,234.0,6.0,234.0,78.0,117.0,195.0,156.0,39.0,green,circle
0.0,6.0,1.0,0,7.0,6.0,2068.8598156000003,2.0,phase_3,,,,,220.0,5.0,44.0,88.0,176.0,264.0,132.0,220.0,gray,diamond
0.0,2.0,1.0,1,7.0,3.0,2285.67409515,2.0,phase_3,,,,,117.0,3.0,156.0,39.0,117.0,78.0,234.0,195.0,white,square
0.0,5.0,0.5,1,7.0,6.0,2019.1860198999998,2.0,phase_3,,,,,88.0,2.0,132.0,44.0,264.0,176.0,220.0,88.0,blue,triangle
0.0,8.0,4.0,1,7.0,3.0,2336.41290665,2.0,phase_3,,,,,44.0,1.0,176.0,264.0,44.0,220.0,132.0,88.0,orange,line
0.0,1.0,0.5,0,7.0,4.0,1501.50489807,2.0,phase_3,,,,,294.0,6.0,98.0,196.0,49.0,294.0,147.0,245.0,yellow,cross
0.0,2.0,1.0,1,7.0,2.0,1968.8699245500002,2.0,phase_3,,,,,98.0,2.0,294.0,98.0,196.0,245.0,147.0,49.0,white,square
0.0,6.0,1.0,0,7.0,4.0,1118.26515198,2.0,phase_3,,,,,156.0,4.0,39.0,78.0,234.0,156.0,195.0,117.0,gray,diamond
0.0,2.0,1.0,1,7.0,6.0,2002.33793259,2.0,phase_3,,,,,68.0,2.0,204.0,34.0,102.0,136.0,170.0,68.0,white,square
0.0,5.0,0.5,1,7.0,1.0,2486.51218414,2.0,phase_3,,,,,68.0,2.0,68.0,170.0,34.0,102.0,204.0,136.0,blue,triangle
0.0,6.0,1.0,0,7.0,5.0,2519.52719688,2.0,phase_3,,,,,245.0,5.0,147.0,98.0,196.0,49.0,245.0,294.0,gray,diamond
0.0,4.0,4.0,0,7.0,4.0,2202.61597633,2.0,phase_3,,,,,264.0,6.0,88.0,176.0,132.0,264.0,220.0,44.0,magenta,hexagon
0.0,3.0,2.0,0,7.0,1.0,3403.21803093,2.0,phase_3,,,,,245.0,5.0,245.0,294.0,49.0,147.0,98.0,196.0,green,circle
0.0,2.0,1.0,1,7.0,1.0,2436.54417992,2.0,phase_3,,,,,68.0,2.0,68.0,170.0,136.0,204.0,34.0,102.0,white,square
0.0,1.0,0.5,0,7.0,6.0,3136.50083542,2.0,phase_3,,,,,216.0,4.0,162.0,324.0,54.0,108.0,270.0,216.0,yellow,cross
0.0,4.0,4.0,0,7.0,1.0,2920.0389385199996,2.0,phase_3,,,,,324.0,6.0,324.0,108.0,216.0,270.0,162.0,54.0,magenta,hexagon
0.0,1.0,0.5,0,7.0,5.0,1384.69290733,2.0,phase_3,,,,,234.0,6.0,78.0,156.0,195.0,39.0,234.0,117.0,yellow,cross
0.0,8.0,4.0,1,7.0,3.0,1718.7211513500001,3.0,phase_3,,,,,88.0,2.0,132.0,44.0,88.0,220.0,176.0,264.0,orange,line
0.0,2.0,1.0,1,7.0,5.0,1852.2670268999998,3.0,phase_3,,,,,147.0,3.0,294.0,196.0,49.0,245.0,147.0,98.0,white,square
0.0,1.0,0.5,0,7.0,4.0,1802.2170066800002,3.0,phase_3,,,,,204.0,6.0,102.0,170.0,136.0,204.0,68.0,34.0,yellow,cross
0.0,3.0,2.0,0,7.0,1.0,2820.0540542599997,3.0,phase_3,,,,,176.0,4.0,176.0,132.0,44.0,88.0,264.0,220.0,green,circle
0.0,5.0,0.5,1,7.0,5.0,1902.17208862,3.0,phase_3,,,,,78.0,2.0,234.0,156.0,117.0,195.0,78.0,39.0,blue,triangle
0.0,8.0,4.0,1,7.0,6.0,2436.3489151,3.0,phase_3,,,,,68.0,2.0,34.0,170.0,136.0,204.0,102.0,68.0,orange,line
0.0,3.0,2.0,0,7.0,4.0,2035.60495377,3.0,phase_3,,,,,204.0,6.0,102.0,34.0,136.0,204.0,170.0,68.0,green,circle
0.0,4.0,4.0,0,7.0,4.0,1952.61597633,3.0,phase_3,,,,,264.0,6.0,220.0,88.0,132.0,264.0,44.0,176.0,magenta,hexagon
0.0,6.0,1.0,0,7.0,1.0,2303.04312706,3.0,phase_3,,,,,270.0,5.0,270.0,162.0,216.0,108.0,54.0,324.0,gray,diamond
0.0,7.0,2.0,1,7.0,4.0,2619.60482597,3.0,phase_3,,,,,108.0,2.0,324.0,270.0,162.0,108.0,54.0,216.0,cyan,flipped triangle
0.0,8.0,4.0,1,7.0,2.0,2436.6338253,3.0,phase_3,,,,,78.0,2.0,156.0,78.0,195.0,39.0,117.0,234.0,orange,line
0.0,3.0,2.0,0,7.0,1.0,4471.66109085,3.0,phase_3,,,,,176.0,4.0,176.0,132.0,44.0,264.0,220.0,88.0,green,circle
0.0,7.0,2.0,1,7.0,6.0,1652.6610851300002,3.0,phase_3,,,,,132.0,3.0,44.0,264.0,220.0,88.0,176.0,132.0,cyan,flipped triangle
0.0,2.0,1.0,1,7.0,4.0,2019.1810131099999,3.0,phase_3,,,,,132.0,3.0,220.0,44.0,88.0,132.0,176.0,264.0,white,square
0.0,1.0,0.5,0,7.0,3.0,1952.4970054599999,3.0,phase_3,,,,,204.0,6.0,102.0,34.0,204.0,136.0,68.0,170.0,yellow,cross
0.0,4.0,4.0,0,7.0,5.0,1885.71190834,3.0,phase_3,,,,,234.0,6.0,156.0,78.0,39.0,117.0,234.0,195.0,magenta,hexagon
0.0,4.0,4.0,0,7.0,1.0,2703.1750679,3.0,phase_3,,,,,156.0,4.0,156.0,234.0,78.0,195.0,117.0,39.0,magenta,hexagon
0.0,3.0,2.0,0,7.0,5.0,2536.47208214,3.0,phase_3,,,,,162.0,3.0,54.0,108.0,216.0,324.0,162.0,270.0,green,circle
0.0,2.0,1.0,1,7.0,6.0,3003.63492966,3.0,phase_3,,,,,108.0,2.0,162.0,216.0,270.0,324.0,54.0,108.0,white,square
0.0,3.0,2.0,0,7.0,1.0,2903.3241272,3.0,phase_3,,,,,162.0,3.0,162.0,324.0,108.0,54.0,270.0,216.0,green,circle
0.0,1.0,0.5,0,7.0,1.0,2219.1298008000003,4.0,phase_3,,,,,264.0,6.0,264.0,220.0,44.0,132.0,88.0,176.0,yellow,cross
0.0,3.0,2.0,0,7.0,4.0,1401.7808437299998,4.0,phase_3,,,,,195.0,5.0,117.0,39.0,156.0,195.0,78.0,234.0,green,circle
0.0,5.0,0.5,1,7.0,2.0,2202.7220726,4.0,phase_3,,,,,102.0,3.0,68.0,102.0,170.0,204.0,34.0,136.0,blue,triangle
0.0,8.0,4.0,1,7.0,4.0,1735.0640296899999,4.0,phase_3,,,,,98.0,2.0,147.0,49.0,196.0,98.0,294.0,245.0,orange,line
0.0,7.0,2.0,1,7.0,5.0,1918.72096062,4.0,phase_3,,,,,102.0,3.0,68.0,136.0,34.0,204.0,102.0,170.0,cyan,flipped triangle
0.0,8.0,4.0,1,7.0,2.0,2085.9401226,4.0,phase_3,,,,,108.0,2.0,162.0,108.0,54.0,324.0,270.0,216.0,orange,line
0.0,1.0,0.5,0,7.0,3.0,3887.9010677300002,4.0,phase_3,,,,,245.0,5.0,98.0,294.0,245.0,49.0,196.0,147.0,yellow,cross
0.0,4.0,4.0,0,7.0,4.0,1952.2922039,4.0,phase_3,,,,,204.0,6.0,34.0,102.0,170.0,204.0,136.0,68.0,magenta,hexagon
0.0,6.0,1.0,0,7.0,5.0,1885.21194458,4.0,phase_3,,,,,204.0,6.0,102.0,136.0,170.0,68.0,204.0,34.0,gray,diamond
0.0,4.0,4.0,0,7.0,5.0,1401.71718597,4.0,phase_3,,,,,245.0,5.0,49.0,294.0,98.0,147.0,245.0,196.0,magenta,hexagon
0.0,6.0,1.0,0,7.0,5.0,2319.30685043,4.0,phase_3,,,,,108.0,2.0,54.0,216.0,324.0,162.0,108.0,270.0,gray,diamond
0.0,1.0,0.5,0,7.0,2.0,2252.80117989,4.0,phase_3,,,,,264.0,6.0,88.0,264.0,132.0,44.0,220.0,176.0,yellow,cross
0.0,4.0,4.0,0,7.0,2.0,2886.3260746,4.0,phase_3,,,,,147.0,3.0,49.0,147.0,294.0,196.0,245.0,98.0,magenta,hexagon
0.0,6.0,1.0,0,7.0,4.0,2168.78604889,4.0,phase_3,,,,,195.0,5.0,156.0,39.0,117.0,195.0,78.0,234.0,gray,diamond
0.0,7.0,2.0,1,7.0,3.0,2653.17106247,4.0,phase_3,,,,,78.0,2.0,39.0,234.0,78.0,117.0,195.0,156.0,cyan,flipped triangle
0.0,7.0,2.0,1,7.0,4.0,3470.91603279,4.0,phase_3,,,,,270.0,5.0,324.0,54.0,216.0,270.0,162.0,108.0,cyan,flipped triangle
0.0,8.0,4.0,1,7.0,5.0,1852.20813751,4.0,phase_3,,,,,234.0,6.0,39.0,117.0,195.0,156.0,234.0,78.0,orange,line
0.0,5.0,0.5,1,7.0,6.0,2152.45103836,4.0,phase_3,,,,,324.0,6.0,216.0,270.0,162.0,54.0,108.0,324.0,blue,triangle
0.0,2.0,1.0,1,7.0,4.0,1718.96409988,4.0,phase_3,,,,,162.0,3.0,324.0,54.0,270.0,162.0,108.0,216.0,white,square
0.0,7.0,2.0,1,7.0,1.0,2135.73408127,4.0,phase_3,,,,,147.0,3.0,147.0,294.0,49.0,98.0,245.0,196.0,cyan,flipped triangle
