stepwise_reward_magnitude,paired_with_stopping,quadrant,response,reaction_time,block,which_part,stop_signal_trial_type,left_SSD,right_SSD,accuracy,chosen_bidding_amount,chosen_bidding_level,possible_bid_1,possible_bid_2,possible_bid_3,possible_bid_4,possible_bid_5,possible_bid_6,color_text,shape_text
0.5,0,4.0,4.0,884.809970856,1.0,part_1,,,,,,,,,,,,,white,hexagon
2.0,1,4.0,4.0,434.639930725,1.0,part_1,,,,,,,,,,,,,gray,cross
4.0,0,4.0,4.0,367.303133011,1.0,part_1,,,,,,,,,,,,,blue,circle
4.0,0,2.0,2.0,317.37303733799996,1.0,part_1,,,,,,,,,,,,,blue,circle
4.0,0,2.0,2.0,284.07716751099997,1.0,part_1,,,,,,,,,,,,,blue,circle
1.0,0,2.0,2.0,351.084947586,1.0,part_1,,,,,,,,,,,,,cyan,flipped triangle
2.0,0,2.0,2.0,334.3501091,1.0,part_1,,,,,,,,,,,,,green,diamond
1.0,0,2.0,2.0,350.780963898,1.0,part_1,,,,,,,,,,,,,cyan,flipped triangle
4.0,1,1.0,1.0,901.766061783,1.0,part_1,,,,,,,,,,,,,yellow,line
2.0,1,1.0,1.0,367.557048798,1.0,part_1,,,,,,,,,,,,,gray,cross
1.0,1,4.0,4.0,401.086091995,1.0,part_1,,,,,,,,,,,,,orange,triangle
1.0,1,1.0,1.0,334.038972855,1.0,part_1,,,,,,,,,,,,,orange,triangle
4.0,0,4.0,4.0,334.33103561400003,1.0,part_1,,,,,,,,,,,,,blue,circle
0.5,1,2.0,2.0,333.950042725,1.0,part_1,,,,,,,,,,,,,magenta,square
0.5,1,2.0,2.0,534.102201462,1.0,part_1,,,,,,,,,,,,,magenta,square
2.0,0,3.0,3.0,401.031017303,1.0,part_1,,,,,,,,,,,,,green,diamond
2.0,0,1.0,1.0,317.44408607500003,1.0,part_1,,,,,,,,,,,,,green,diamond
4.0,1,2.0,2.0,317.758083344,1.0,part_1,,,,,,,,,,,,,yellow,line
4.0,0,1.0,1.0,317.941904068,1.0,part_1,,,,,,,,,,,,,blue,circle
4.0,0,3.0,3.0,433.97092819200003,1.0,part_1,,,,,,,,,,,,,blue,circle
1.0,1,3.0,3.0,434.29899215700004,1.0,part_1,,,,,,,,,,,,,orange,triangle
1.0,0,1.0,1.0,367.053985596,1.0,part_1,,,,,,,,,,,,,cyan,flipped triangle
2.0,0,1.0,1.0,367.782115936,1.0,part_1,,,,,,,,,,,,,green,diamond
2.0,1,2.0,2.0,317.99411773699995,1.0,part_1,,,,,,,,,,,,,gray,cross
1.0,0,1.0,1.0,367.901086807,1.0,part_1,,,,,,,,,,,,,cyan,flipped triangle
2.0,0,3.0,3.0,400.73895454399997,1.0,part_1,,,,,,,,,,,,,green,diamond
2.0,1,3.0,3.0,451.03096962,1.0,part_1,,,,,,,,,,,,,gray,cross
0.5,1,1.0,1.0,417.724132538,1.0,part_1,,,,,,,,,,,,,magenta,square
2.0,0,1.0,1.0,350.895881653,1.0,part_1,,,,,,,,,,,,,green,diamond
1.0,0,2.0,2.0,250.85091590899998,1.0,part_1,,,,,,,,,,,,,cyan,flipped triangle
1.0,0,1.0,1.0,318.055868149,1.0,part_1,,,,,,,,,,,,,cyan,flipped triangle
0.5,0,3.0,3.0,400.537967682,1.0,part_1,,,,,,,,,,,,,white,hexagon
2.0,1,2.0,2.0,284.234046936,1.0,part_1,,,,,,,,,,,,,gray,cross
0.5,1,1.0,1.0,284.422874451,1.0,part_1,,,,,,,,,,,,,magenta,square
1.0,0,4.0,4.0,417.64783859299996,1.0,part_1,,,,,,,,,,,,,cyan,flipped triangle
4.0,0,3.0,3.0,417.71793365499997,1.0,part_1,,,,,,,,,,,,,blue,circle
1.0,1,2.0,2.0,300.755023956,1.0,part_1,,,,,,,,,,,,,orange,triangle
2.0,0,4.0,4.0,417.484045029,1.0,part_1,,,,,,,,,,,,,green,diamond
4.0,0,1.0,1.0,300.507068634,1.0,part_1,,,,,,,,,,,,,blue,circle
1.0,0,3.0,3.0,350.760936737,1.0,part_1,,,,,,,,,,,,,cyan,flipped triangle
2.0,0,1.0,1.0,367.294788361,1.0,part_1,,,,,,,,,,,,,green,diamond
2.0,0,4.0,4.0,367.55514144899996,1.0,part_1,,,,,,,,,,,,,green,diamond
2.0,1,3.0,3.0,367.300987244,1.0,part_1,,,,,,,,,,,,,gray,cross
2.0,0,1.0,1.0,317.516803741,1.0,part_1,,,,,,,,,,,,,green,diamond
0.5,1,4.0,4.0,384.34195518499996,1.0,part_1,,,,,,,,,,,,,magenta,square
2.0,0,2.0,2.0,300.854921341,1.0,part_1,,,,,,,,,,,,,green,diamond
1.0,0,4.0,4.0,333.759069443,1.0,part_1,,,,,,,,,,,,,cyan,flipped triangle
0.5,0,3.0,3.0,401.074886322,1.0,part_1,,,,,,,,,,,,,white,hexagon
0.5,0,2.0,2.0,450.742959976,1.0,part_1,,,,,,,,,,,,,white,hexagon
2.0,1,3.0,3.0,383.800983429,1.0,part_1,,,,,,,,,,,,,gray,cross
4.0,1,3.0,3.0,384.078979492,1.0,part_1,,,,,,,,,,,,,yellow,line
2.0,1,3.0,3.0,367.65909194899996,1.0,part_1,,,,,,,,,,,,,gray,cross
0.5,1,1.0,1.0,317.469120026,1.0,part_1,,,,,,,,,,,,,magenta,square
0.5,0,4.0,4.0,351.036071777,1.0,part_1,,,,,,,,,,,,,white,hexagon
1.0,1,2.0,2.0,401.068925858,1.0,part_1,,,,,,,,,,,,,orange,triangle
2.0,1,3.0,3.0,384.128808975,1.0,part_1,,,,,,,,,,,,,gray,cross
1.0,0,4.0,4.0,384.217977524,1.0,part_1,,,,,,,,,,,,,cyan,flipped triangle
2.0,0,3.0,3.0,384.697914124,1.0,part_1,,,,,,,,,,,,,green,diamond
1.0,0,2.0,2.0,317.831039429,1.0,part_1,,,,,,,,,,,,,cyan,flipped triangle
4.0,1,2.0,2.0,334.268093109,1.0,part_1,,,,,,,,,,,,,yellow,line
4.0,1,4.0,4.0,350.924015045,1.0,part_1,,,,,,,,,,,,,yellow,line
4.0,1,1.0,1.0,333.92715454100005,1.0,part_1,,,,,,,,,,,,,yellow,line
0.5,0,3.0,3.0,334.181070328,1.0,part_1,,,,,,,,,,,,,white,hexagon
2.0,1,1.0,1.0,334.626913071,1.0,part_1,,,,,,,,,,,,,gray,cross
2.0,0,4.0,4.0,350.82793235800006,1.0,part_1,,,,,,,,,,,,,green,diamond
0.5,1,3.0,3.0,384.44209098799996,1.0,part_1,,,,,,,,,,,,,magenta,square
0.5,0,3.0,3.0,367.490053177,1.0,part_1,,,,,,,,,,,,,white,hexagon
4.0,0,3.0,3.0,367.727041245,1.0,part_1,,,,,,,,,,,,,blue,circle
4.0,0,4.0,4.0,517.874956131,1.0,part_1,,,,,,,,,,,,,blue,circle
4.0,1,3.0,3.0,433.872938156,1.0,part_1,,,,,,,,,,,,,yellow,line
4.0,0,4.0,4.0,334.148168564,1.0,part_1,,,,,,,,,,,,,blue,circle
0.5,1,2.0,2.0,384.052038193,1.0,part_1,,,,,,,,,,,,,magenta,square
2.0,0,4.0,4.0,317.55590438800004,1.0,part_1,,,,,,,,,,,,,green,diamond
4.0,0,2.0,2.0,417.58894920299997,1.0,part_1,,,,,,,,,,,,,blue,circle
2.0,0,2.0,2.0,383.87799263,1.0,part_1,,,,,,,,,,,,,green,diamond
2.0,1,4.0,4.0,383.994102478,1.0,part_1,,,,,,,,,,,,,gray,cross
0.5,1,2.0,2.0,317.289113998,1.0,part_1,,,,,,,,,,,,,magenta,square
2.0,0,1.0,1.0,351.271152496,1.0,part_1,,,,,,,,,,,,,green,diamond
4.0,0,3.0,3.0,400.265932083,1.0,part_1,,,,,,,,,,,,,blue,circle
0.5,0,3.0,3.0,400.94494819600004,1.0,part_1,,,,,,,,,,,,,white,hexagon
4.0,1,1.0,1.0,334.095001221,1.0,part_1,,,,,,,,,,,,,yellow,line
0.5,0,2.0,2.0,334.27810668899997,1.0,part_1,,,,,,,,,,,,,white,hexagon
1.0,0,4.0,4.0,417.68598556499995,1.0,part_1,,,,,,,,,,,,,cyan,flipped triangle
0.5,0,1.0,1.0,517.525911331,1.0,part_1,,,,,,,,,,,,,white,hexagon
4.0,1,2.0,2.0,350.677967072,1.0,part_1,,,,,,,,,,,,,yellow,line
0.5,1,3.0,3.0,468.13511848400003,1.0,part_1,,,,,,,,,,,,,magenta,square
2.0,0,1.0,1.0,334.567070007,1.0,part_1,,,,,,,,,,,,,green,diamond
1.0,1,4.0,4.0,434.334039688,1.0,part_1,,,,,,,,,,,,,orange,triangle
2.0,1,4.0,4.0,417.543888092,1.0,part_1,,,,,,,,,,,,,gray,cross
1.0,0,4.0,4.0,568.0379867549999,1.0,part_1,,,,,,,,,,,,,cyan,flipped triangle
2.0,1,4.0,4.0,417.83881187400004,1.0,part_1,,,,,,,,,,,,,gray,cross
0.5,1,4.0,4.0,500.99587440500005,1.0,part_1,,,,,,,,,,,,,magenta,square
1.0,0,1.0,1.0,634.726047516,1.0,part_1,,,,,,,,,,,,,cyan,flipped triangle
0.5,0,3.0,3.0,451.13706588699995,1.0,part_1,,,,,,,,,,,,,white,hexagon
4.0,0,2.0,2.0,384.166955948,1.0,part_1,,,,,,,,,,,,,blue,circle
4.0,0,3.0,3.0,500.406980515,1.0,part_1,,,,,,,,,,,,,blue,circle
0.5,1,1.0,1.0,450.58488845799997,1.0,part_1,,,,,,,,,,,,,magenta,square
0.5,0,4.0,4.0,401.436805725,1.0,part_1,,,,,,,,,,,,,white,hexagon
2.0,1,2.0,2.0,400.87890625,1.0,part_1,,,,,,,,,,,,,gray,cross
2.0,1,1.0,1.0,401.005029678,1.0,part_1,,,,,,,,,,,,,gray,cross
1.0,1,4.0,4.0,484.20715332000003,2.0,part_1,,,,,,,,,,,,,orange,triangle
0.5,0,2.0,2.0,334.24496650699996,2.0,part_1,,,,,,,,,,,,,white,hexagon
1.0,0,3.0,3.0,351.14717483500004,2.0,part_1,,,,,,,,,,,,,cyan,flipped triangle
4.0,0,3.0,3.0,400.479078293,2.0,part_1,,,,,,,,,,,,,blue,circle
2.0,1,2.0,2.0,284.01398658799997,2.0,part_1,,,,,,,,,,,,,gray,cross
2.0,0,3.0,3.0,350.71516037,2.0,part_1,,,,,,,,,,,,,green,diamond
1.0,1,1.0,1.0,401.221036911,2.0,part_1,,,,,,,,,,,,,orange,triangle
0.5,1,4.0,4.0,751.049995422,2.0,part_1,,,,,,,,,,,,,magenta,square
4.0,1,3.0,3.0,467.71812439,2.0,part_1,,,,,,,,,,,,,yellow,line
1.0,1,1.0,1.0,367.244005203,2.0,part_1,,,,,,,,,,,,,orange,triangle
4.0,0,1.0,1.0,384.66501236,2.0,part_1,,,,,,,,,,,,,blue,circle
2.0,1,2.0,2.0,283.99014473,2.0,part_1,,,,,,,,,,,,,gray,cross
1.0,1,3.0,3.0,467.62108802800003,2.0,part_1,,,,,,,,,,,,,orange,triangle
1.0,0,3.0,3.0,400.740861893,2.0,part_1,,,,,,,,,,,,,cyan,flipped triangle
1.0,1,4.0,4.0,400.82597732500005,2.0,part_1,,,,,,,,,,,,,orange,triangle
0.5,1,3.0,3.0,434.386014938,2.0,part_1,,,,,,,,,,,,,magenta,square
0.5,0,3.0,3.0,484.25006866499996,2.0,part_1,,,,,,,,,,,,,white,hexagon
1.0,0,4.0,4.0,401.273965836,2.0,part_1,,,,,,,,,,,,,cyan,flipped triangle
4.0,1,4.0,4.0,417.495012283,2.0,part_1,,,,,,,,,,,,,yellow,line
1.0,1,3.0,3.0,467.41294860799997,2.0,part_1,,,,,,,,,,,,,orange,triangle
1.0,0,2.0,2.0,384.197235107,2.0,part_1,,,,,,,,,,,,,cyan,flipped triangle
0.5,0,2.0,2.0,417.382955551,2.0,part_1,,,,,,,,,,,,,white,hexagon
0.5,0,2.0,2.0,384.382009506,2.0,part_1,,,,,,,,,,,,,white,hexagon
4.0,1,1.0,1.0,300.982952118,2.0,part_1,,,,,,,,,,,,,yellow,line
2.0,0,1.0,1.0,367.904901505,2.0,part_1,,,,,,,,,,,,,green,diamond
2.0,1,2.0,2.0,300.915002823,2.0,part_1,,,,,,,,,,,,,gray,cross
2.0,1,4.0,4.0,367.635011673,2.0,part_1,,,,,,,,,,,,,gray,cross
2.0,1,2.0,2.0,300.64702034000004,2.0,part_1,,,,,,,,,,,,,gray,cross
2.0,1,3.0,3.0,400.84195137,2.0,part_1,,,,,,,,,,,,,gray,cross
0.5,0,3.0,3.0,417.94013977099996,2.0,part_1,,,,,,,,,,,,,white,hexagon
0.5,0,1.0,1.0,367.974042892,2.0,part_1,,,,,,,,,,,,,white,hexagon
4.0,0,1.0,1.0,367.706775665,2.0,part_1,,,,,,,,,,,,,blue,circle
0.5,1,3.0,3.0,484.58981514,2.0,part_1,,,,,,,,,,,,,magenta,square
1.0,0,4.0,4.0,551.126003265,2.0,part_1,,,,,,,,,,,,,cyan,flipped triangle
2.0,0,4.0,4.0,484.393119812,2.0,part_1,,,,,,,,,,,,,green,diamond
4.0,1,4.0,4.0,484.26389694200003,2.0,part_1,,,,,,,,,,,,,yellow,line
0.5,0,2.0,2.0,584.33008194,2.0,part_1,,,,,,,,,,,,,white,hexagon
4.0,1,1.0,1.0,350.874900818,2.0,part_1,,,,,,,,,,,,,yellow,line
4.0,0,2.0,2.0,300.502061844,2.0,part_1,,,,,,,,,,,,,blue,circle
4.0,1,4.0,4.0,467.52095222500003,2.0,part_1,,,,,,,,,,,,,yellow,line
0.5,1,1.0,1.0,400.82406997699997,2.0,part_1,,,,,,,,,,,,,magenta,square
2.0,0,1.0,1.0,434.485912323,2.0,part_1,,,,,,,,,,,,,green,diamond
2.0,1,1.0,1.0,400.640010834,2.0,part_1,,,,,,,,,,,,,gray,cross
4.0,1,3.0,3.0,484.44390296899996,2.0,part_1,,,,,,,,,,,,,yellow,line
1.0,1,1.0,1.0,317.52204895,2.0,part_1,,,,,,,,,,,,,orange,triangle
0.5,0,1.0,1.0,334.314107895,2.0,part_1,,,,,,,,,,,,,white,hexagon
4.0,1,2.0,2.0,534.591913223,2.0,part_1,,,,,,,,,,,,,yellow,line
0.5,1,2.0,2.0,484.19809341399997,2.0,part_1,,,,,,,,,,,,,magenta,square
2.0,0,4.0,4.0,467.51594543500005,2.0,part_1,,,,,,,,,,,,,green,diamond
0.5,1,2.0,2.0,334.301948547,2.0,part_1,,,,,,,,,,,,,magenta,square
2.0,1,1.0,1.0,317.917108536,2.0,part_1,,,,,,,,,,,,,gray,cross
1.0,1,3.0,3.0,400.91490745500005,2.0,part_1,,,,,,,,,,,,,orange,triangle
2.0,0,3.0,3.0,400.822877884,2.0,part_1,,,,,,,,,,,,,green,diamond
2.0,1,4.0,4.0,401.229143143,2.0,part_1,,,,,,,,,,,,,gray,cross
1.0,1,4.0,4.0,384.366035461,2.0,part_1,,,,,,,,,,,,,orange,triangle
4.0,1,2.0,2.0,350.744962692,2.0,part_1,,,,,,,,,,,,,yellow,line
4.0,1,2.0,2.0,400.71105957000003,2.0,part_1,,,,,,,,,,,,,yellow,line
2.0,1,4.0,4.0,400.986909866,2.0,part_1,,,,,,,,,,,,,gray,cross
1.0,1,2.0,2.0,451.16186142,2.0,part_1,,,,,,,,,,,,,orange,triangle
0.5,1,4.0,4.0,434.321165085,2.0,part_1,,,,,,,,,,,,,magenta,square
1.0,0,1.0,1.0,451.04598999,2.0,part_1,,,,,,,,,,,,,cyan,flipped triangle
2.0,0,2.0,2.0,383.921861649,2.0,part_1,,,,,,,,,,,,,green,diamond
1.0,1,3.0,3.0,567.7840709689999,2.0,part_1,,,,,,,,,,,,,orange,triangle
0.5,0,1.0,1.0,334.277868271,2.0,part_1,,,,,,,,,,,,,white,hexagon
1.0,1,1.0,1.0,400.851011276,2.0,part_1,,,,,,,,,,,,,orange,triangle
4.0,1,2.0,2.0,400.843858719,2.0,part_1,,,,,,,,,,,,,yellow,line
2.0,0,4.0,4.0,784.5408916470001,2.0,part_1,,,,,,,,,,,,,green,diamond
1.0,1,2.0,2.0,467.67091751099997,2.0,part_1,,,,,,,,,,,,,orange,triangle
2.0,0,4.0,4.0,567.845106125,2.0,part_1,,,,,,,,,,,,,green,diamond
4.0,0,3.0,3.0,484.48419570899995,2.0,part_1,,,,,,,,,,,,,blue,circle
2.0,1,1.0,1.0,400.964021683,2.0,part_1,,,,,,,,,,,,,gray,cross
4.0,0,4.0,4.0,483.991146088,2.0,part_1,,,,,,,,,,,,,blue,circle
0.5,0,2.0,2.0,300.90498924300005,2.0,part_1,,,,,,,,,,,,,white,hexagon
1.0,0,4.0,4.0,667.8678989409999,2.0,part_1,,,,,,,,,,,,,cyan,flipped triangle
4.0,0,1.0,1.0,734.5318794249999,2.0,part_1,,,,,,,,,,,,,blue,circle
2.0,1,4.0,4.0,484.286785126,2.0,part_1,,,,,,,,,,,,,gray,cross
0.5,0,4.0,4.0,500.91385841400006,2.0,part_1,,,,,,,,,,,,,white,hexagon
2.0,1,4.0,4.0,434.07106399500003,2.0,part_1,,,,,,,,,,,,,gray,cross
4.0,0,3.0,3.0,534.473180771,2.0,part_1,,,,,,,,,,,,,blue,circle
2.0,1,1.0,1.0,384.26518440200005,2.0,part_1,,,,,,,,,,,,,gray,cross
4.0,1,1.0,1.0,384.62185859699997,2.0,part_1,,,,,,,,,,,,,yellow,line
4.0,1,3.0,3.0,484.224081039,2.0,part_1,,,,,,,,,,,,,yellow,line
0.5,1,4.0,4.0,584.192037582,2.0,part_1,,,,,,,,,,,,,magenta,square
4.0,0,2.0,2.0,367.245197296,2.0,part_1,,,,,,,,,,,,,blue,circle
4.0,1,2.0,2.0,367.4659729,2.0,part_1,,,,,,,,,,,,,yellow,line
1.0,1,3.0,3.0,450.992107391,2.0,part_1,,,,,,,,,,,,,orange,triangle
1.0,1,3.0,3.0,534.65294838,2.0,part_1,,,,,,,,,,,,,orange,triangle
1.0,0,2.0,2.0,317.899942398,2.0,part_1,,,,,,,,,,,,,cyan,flipped triangle
2.0,0,4.0,4.0,434.293985367,2.0,part_1,,,,,,,,,,,,,green,diamond
1.0,1,1.0,1.0,301.321029663,2.0,part_1,,,,,,,,,,,,,orange,triangle
4.0,1,3.0,3.0,550.9121418000001,2.0,part_1,,,,,,,,,,,,,yellow,line
0.5,1,1.0,1.0,400.733947754,2.0,part_1,,,,,,,,,,,,,magenta,square
1.0,0,2.0,2.0,367.864847183,2.0,part_1,,,,,,,,,,,,,cyan,flipped triangle
0.5,1,4.0,4.0,384.302854538,2.0,part_1,,,,,,,,,,,,,magenta,square
4.0,1,2.0,2.0,300.904035568,2.0,part_1,,,,,,,,,,,,,yellow,line
0.5,1,3.0,3.0,383.887052536,2.0,part_1,,,,,,,,,,,,,magenta,square
0.5,0,3.0,3.0,384.366035461,2.0,part_1,,,,,,,,,,,,,white,hexagon
1.0,1,1.0,1.0,384.02104377700005,2.0,part_1,,,,,,,,,,,,,orange,triangle
1.0,0,3.0,3.0,551.093101501,2.0,part_1,,,,,,,,,,,,,cyan,flipped triangle
4.0,0,1.0,1.0,317.540884018,2.0,part_1,,,,,,,,,,,,,blue,circle
1.0,0,3.0,3.0,401.162147522,3.0,part_1,,,,,,,,,,,,,cyan,flipped triangle
4.0,0,3.0,3.0,350.549221039,3.0,part_1,,,,,,,,,,,,,blue,circle
2.0,0,3.0,3.0,534.354925156,3.0,part_1,,,,,,,,,,,,,green,diamond
4.0,0,4.0,4.0,450.803041458,3.0,part_1,,,,,,,,,,,,,blue,circle
4.0,1,4.0,4.0,417.924165726,3.0,part_1,,,,,,,,,,,,,yellow,line
4.0,0,1.0,1.0,350.941896439,3.0,part_1,,,,,,,,,,,,,blue,circle
2.0,0,4.0,4.0,350.70681572,3.0,part_1,,,,,,,,,,,,,green,diamond
2.0,1,4.0,4.0,400.73800087,3.0,part_1,,,,,,,,,,,,,gray,cross
0.5,1,1.0,1.0,384.00888442999997,3.0,part_1,,,,,,,,,,,,,magenta,square
1.0,0,2.0,2.0,300.502061844,3.0,part_1,,,,,,,,,,,,,cyan,flipped triangle
1.0,1,2.0,2.0,384.301900864,3.0,part_1,,,,,,,,,,,,,orange,triangle
1.0,1,2.0,2.0,383.915901184,3.0,part_1,,,,,,,,,,,,,orange,triangle
0.5,1,4.0,4.0,434.190988541,3.0,part_1,,,,,,,,,,,,,magenta,square
0.5,0,3.0,3.0,367.235898972,3.0,part_1,,,,,,,,,,,,,white,hexagon
1.0,1,4.0,4.0,401.098966599,3.0,part_1,,,,,,,,,,,,,orange,triangle
0.5,0,1.0,1.0,367.879152298,3.0,part_1,,,,,,,,,,,,,white,hexagon
0.5,1,2.0,2.0,367.892980576,3.0,part_1,,,,,,,,,,,,,magenta,square
4.0,0,3.0,3.0,384.771108627,3.0,part_1,,,,,,,,,,,,,blue,circle
4.0,1,3.0,3.0,401.237010956,3.0,part_1,,,,,,,,,,,,,yellow,line
4.0,0,3.0,3.0,401.210069656,3.0,part_1,,,,,,,,,,,,,blue,circle
0.5,1,3.0,3.0,400.720834732,3.0,part_1,,,,,,,,,,,,,magenta,square
1.0,1,1.0,1.0,367.29001998900003,3.0,part_1,,,,,,,,,,,,,orange,triangle
4.0,1,1.0,1.0,417.60492324800003,3.0,part_1,,,,,,,,,,,,,yellow,line
4.0,1,1.0,1.0,450.942993164,3.0,part_1,,,,,,,,,,,,,yellow,line
4.0,0,2.0,2.0,384.155988693,3.0,part_1,,,,,,,,,,,,,blue,circle
0.5,0,2.0,2.0,317.65794754,3.0,part_1,,,,,,,,,,,,,white,hexagon
2.0,0,3.0,3.0,450.922012329,3.0,part_1,,,,,,,,,,,,,green,diamond
0.5,1,1.0,1.0,400.198936462,3.0,part_1,,,,,,,,,,,,,magenta,square
1.0,1,4.0,4.0,551.045894623,3.0,part_1,,,,,,,,,,,,,orange,triangle
0.5,1,2.0,2.0,367.64097213699995,3.0,part_1,,,,,,,,,,,,,magenta,square
1.0,1,1.0,1.0,300.55809021000005,3.0,part_1,,,,,,,,,,,,,orange,triangle
4.0,1,4.0,4.0,417.61493682900004,3.0,part_1,,,,,,,,,,,,,yellow,line
1.0,1,1.0,1.0,317.6009655,3.0,part_1,,,,,,,,,,,,,orange,triangle
2.0,0,3.0,3.0,367.767810822,3.0,part_1,,,,,,,,,,,,,green,diamond
0.5,0,3.0,3.0,418.065071106,3.0,part_1,,,,,,,,,,,,,white,hexagon
0.5,1,4.0,4.0,518.2039737700001,3.0,part_1,,,,,,,,,,,,,magenta,square
0.5,1,4.0,4.0,500.899791718,3.0,part_1,,,,,,,,,,,,,magenta,square
4.0,0,3.0,3.0,401.09705925,3.0,part_1,,,,,,,,,,,,,blue,circle
0.5,1,1.0,1.0,467.69714355499997,3.0,part_1,,,,,,,,,,,,,magenta,square
1.0,0,1.0,1.0,434.55290794399997,3.0,part_1,,,,,,,,,,,,,cyan,flipped triangle
0.5,1,2.0,2.0,384.30809974699997,3.0,part_1,,,,,,,,,,,,,magenta,square
2.0,1,2.0,2.0,450.89697837800003,3.0,part_1,,,,,,,,,,,,,gray,cross
1.0,0,2.0,2.0,450.723171234,3.0,part_1,,,,,,,,,,,,,cyan,flipped triangle
4.0,1,1.0,1.0,451.026916504,3.0,part_1,,,,,,,,,,,,,yellow,line
2.0,1,2.0,2.0,334.57493781999995,3.0,part_1,,,,,,,,,,,,,gray,cross
1.0,0,4.0,4.0,550.863981247,3.0,part_1,,,,,,,,,,,,,cyan,flipped triangle
0.5,0,3.0,3.0,417.439937592,3.0,part_1,,,,,,,,,,,,,white,hexagon
4.0,1,3.0,3.0,384.30595397900004,3.0,part_1,,,,,,,,,,,,,yellow,line
0.5,1,1.0,1.0,935.0829124449999,3.0,part_1,,,,,,,,,,,,,magenta,square
4.0,0,2.0,2.0,634.174108505,3.0,part_1,,,,,,,,,,,,,blue,circle
2.0,1,1.0,1.0,567.665815353,3.0,part_1,,,,,,,,,,,,,gray,cross
2.0,1,4.0,4.0,467.601060867,3.0,part_1,,,,,,,,,,,,,gray,cross
4.0,0,3.0,3.0,417.959928513,3.0,part_1,,,,,,,,,,,,,blue,circle
2.0,1,2.0,2.0,350.99482536299996,3.0,part_1,,,,,,,,,,,,,gray,cross
1.0,0,1.0,1.0,434.26704406700003,3.0,part_1,,,,,,,,,,,,,cyan,flipped triangle
0.5,1,4.0,4.0,451.001167297,3.0,part_1,,,,,,,,,,,,,magenta,square
2.0,1,1.0,1.0,467.68689155600003,3.0,part_1,,,,,,,,,,,,,gray,cross
1.0,0,3.0,3.0,501.183986664,3.0,part_1,,,,,,,,,,,,,cyan,flipped triangle
4.0,0,4.0,4.0,451.289892197,3.0,part_1,,,,,,,,,,,,,blue,circle
4.0,0,1.0,1.0,433.64906311,3.0,part_1,,,,,,,,,,,,,blue,circle
4.0,1,3.0,3.0,484.718084335,3.0,part_1,,,,,,,,,,,,,yellow,line
4.0,1,3.0,3.0,567.665815353,3.0,part_1,,,,,,,,,,,,,yellow,line
1.0,0,2.0,2.0,400.88105201699994,3.0,part_1,,,,,,,,,,,,,cyan,flipped triangle
1.0,1,3.0,3.0,467.481851578,3.0,part_1,,,,,,,,,,,,,orange,triangle
1.0,0,3.0,3.0,634.582996368,3.0,part_1,,,,,,,,,,,,,cyan,flipped triangle
1.0,1,2.0,2.0,500.93793869,3.0,part_1,,,,,,,,,,,,,orange,triangle
4.0,0,1.0,1.0,467.516899109,3.0,part_1,,,,,,,,,,,,,blue,circle
0.5,1,2.0,2.0,434.834003448,3.0,part_1,,,,,,,,,,,,,magenta,square
1.0,0,4.0,4.0,818.112850189,3.0,part_1,,,,,,,,,,,,,cyan,flipped triangle
0.5,0,1.0,1.0,450.627088547,3.0,part_1,,,,,,,,,,,,,white,hexagon
0.5,0,1.0,1.0,434.349775314,3.0,part_1,,,,,,,,,,,,,white,hexagon
1.0,1,2.0,2.0,484.465122223,3.0,part_1,,,,,,,,,,,,,orange,triangle
2.0,0,4.0,4.0,401.237010956,3.0,part_1,,,,,,,,,,,,,green,diamond
2.0,1,4.0,4.0,434.10301208500005,3.0,part_1,,,,,,,,,,,,,gray,cross
4.0,0,4.0,4.0,551.067829132,3.0,part_1,,,,,,,,,,,,,blue,circle
1.0,1,4.0,4.0,767.9440975189999,3.0,part_1,,,,,,,,,,,,,orange,triangle
1.0,1,2.0,2.0,617.302894592,3.0,part_1,,,,,,,,,,,,,orange,triangle
4.0,1,2.0,2.0,400.962114334,3.0,part_1,,,,,,,,,,,,,yellow,line
4.0,0,3.0,3.0,468.27816963199996,3.0,part_1,,,,,,,,,,,,,blue,circle
2.0,0,4.0,4.0,400.596857071,3.0,part_1,,,,,,,,,,,,,green,diamond
2.0,0,3.0,3.0,501.18803978000005,3.0,part_1,,,,,,,,,,,,,green,diamond
4.0,1,2.0,2.0,383.933067322,3.0,part_1,,,,,,,,,,,,,yellow,line
0.5,0,1.0,1.0,367.655992508,3.0,part_1,,,,,,,,,,,,,white,hexagon
1.0,1,3.0,3.0,367.43187904399997,3.0,part_1,,,,,,,,,,,,,orange,triangle
4.0,0,3.0,3.0,417.670965195,3.0,part_1,,,,,,,,,,,,,blue,circle
4.0,0,4.0,4.0,367.582798004,3.0,part_1,,,,,,,,,,,,,blue,circle
1.0,0,3.0,3.0,417.60015487699997,3.0,part_1,,,,,,,,,,,,,cyan,flipped triangle
2.0,0,1.0,1.0,417.98520088199996,3.0,part_1,,,,,,,,,,,,,green,diamond
2.0,1,1.0,1.0,451.49588584900005,3.0,part_1,,,,,,,,,,,,,gray,cross
0.5,0,1.0,1.0,350.734949112,3.0,part_1,,,,,,,,,,,,,white,hexagon
1.0,0,1.0,1.0,317.719936371,3.0,part_1,,,,,,,,,,,,,cyan,flipped triangle
2.0,1,4.0,4.0,417.60492324800003,3.0,part_1,,,,,,,,,,,,,gray,cross
1.0,0,2.0,2.0,383.92996788,3.0,part_1,,,,,,,,,,,,,cyan,flipped triangle
1.0,1,4.0,4.0,434.283971786,3.0,part_1,,,,,,,,,,,,,orange,triangle
0.5,0,2.0,2.0,384.07206535299997,3.0,part_1,,,,,,,,,,,,,white,hexagon
2.0,0,2.0,2.0,417.700052261,3.0,part_1,,,,,,,,,,,,,green,diamond
2.0,0,2.0,2.0,300.912857056,3.0,part_1,,,,,,,,,,,,,green,diamond
4.0,1,4.0,4.0,484.61198806799996,3.0,part_1,,,,,,,,,,,,,yellow,line
0.5,1,2.0,2.0,317.471027374,3.0,part_1,,,,,,,,,,,,,magenta,square
1.0,1,4.0,4.0,433.902978897,3.0,part_1,,,,,,,,,,,,,orange,triangle
0.5,1,2.0,2.0,550.820112228,4.0,part_1,,,,,,,,,,,,,magenta,square
2.0,0,3.0,3.0,551.3780117030001,4.0,part_1,,,,,,,,,,,,,green,diamond
2.0,1,4.0,4.0,384.613990784,4.0,part_1,,,,,,,,,,,,,gray,cross
1.0,1,1.0,1.0,317.795991898,4.0,part_1,,,,,,,,,,,,,orange,triangle
1.0,1,3.0,3.0,534.835100174,4.0,part_1,,,,,,,,,,,,,orange,triangle
1.0,0,2.0,2.0,351.416826248,4.0,part_1,,,,,,,,,,,,,cyan,flipped triangle
2.0,0,1.0,1.0,350.668907166,4.0,part_1,,,,,,,,,,,,,green,diamond
2.0,0,4.0,4.0,400.74801445,4.0,part_1,,,,,,,,,,,,,green,diamond
4.0,1,2.0,2.0,367.09403991700003,4.0,part_1,,,,,,,,,,,,,yellow,line
4.0,0,2.0,2.0,451.34305953999996,4.0,part_1,,,,,,,,,,,,,blue,circle
1.0,0,1.0,1.0,334.501028061,4.0,part_1,,,,,,,,,,,,,cyan,flipped triangle
1.0,0,2.0,2.0,334.217071533,4.0,part_1,,,,,,,,,,,,,cyan,flipped triangle
0.5,0,4.0,4.0,500.895023346,4.0,part_1,,,,,,,,,,,,,white,hexagon
1.0,1,1.0,1.0,350.792169571,4.0,part_1,,,,,,,,,,,,,orange,triangle
2.0,0,2.0,2.0,334.27000045799997,4.0,part_1,,,,,,,,,,,,,green,diamond
0.5,1,3.0,3.0,417.383909225,4.0,part_1,,,,,,,,,,,,,magenta,square
2.0,0,3.0,3.0,617.732048035,4.0,part_1,,,,,,,,,,,,,green,diamond
4.0,0,3.0,3.0,434.004068375,4.0,part_1,,,,,,,,,,,,,blue,circle
4.0,1,3.0,3.0,501.176834106,4.0,part_1,,,,,,,,,,,,,yellow,line
0.5,0,1.0,1.0,384.68289375300003,4.0,part_1,,,,,,,,,,,,,white,hexagon
4.0,1,4.0,4.0,417.51503944399997,4.0,part_1,,,,,,,,,,,,,yellow,line
2.0,1,1.0,1.0,417.56701469399997,4.0,part_1,,,,,,,,,,,,,gray,cross
4.0,1,1.0,1.0,451.354026794,4.0,part_1,,,,,,,,,,,,,yellow,line
0.5,0,4.0,4.0,417.75918006899997,4.0,part_1,,,,,,,,,,,,,white,hexagon
1.0,0,4.0,4.0,517.7240371700001,4.0,part_1,,,,,,,,,,,,,cyan,flipped triangle
1.0,0,2.0,2.0,484.660863876,4.0,part_1,,,,,,,,,,,,,cyan,flipped triangle
1.0,0,2.0,2.0,351.027011871,4.0,part_1,,,,,,,,,,,,,cyan,flipped triangle
1.0,1,3.0,3.0,384.62996482799997,4.0,part_1,,,,,,,,,,,,,orange,triangle
1.0,0,1.0,1.0,433.900117874,4.0,part_1,,,,,,,,,,,,,cyan,flipped triangle
4.0,1,2.0,2.0,434.043884277,4.0,part_1,,,,,,,,,,,,,yellow,line
1.0,0,2.0,2.0,450.783014297,4.0,part_1,,,,,,,,,,,,,cyan,flipped triangle
2.0,1,4.0,4.0,535.05897522,4.0,part_1,,,,,,,,,,,,,gray,cross
4.0,0,1.0,1.0,334.192991257,4.0,part_1,,,,,,,,,,,,,blue,circle
0.5,0,4.0,4.0,384.147882462,4.0,part_1,,,,,,,,,,,,,white,hexagon
4.0,1,1.0,1.0,334.179878235,4.0,part_1,,,,,,,,,,,,,yellow,line
2.0,1,1.0,1.0,367.72799491899997,4.0,part_1,,,,,,,,,,,,,gray,cross
1.0,1,3.0,3.0,467.982053757,4.0,part_1,,,,,,,,,,,,,orange,triangle
2.0,0,2.0,2.0,434.66091156,4.0,part_1,,,,,,,,,,,,,green,diamond
0.5,0,4.0,4.0,400.61211586,4.0,part_1,,,,,,,,,,,,,white,hexagon
0.5,1,1.0,1.0,300.734996796,4.0,part_1,,,,,,,,,,,,,magenta,square
4.0,0,1.0,1.0,400.733947754,4.0,part_1,,,,,,,,,,,,,blue,circle
4.0,1,3.0,3.0,451.136112213,4.0,part_1,,,,,,,,,,,,,yellow,line
2.0,0,3.0,3.0,351.091146469,4.0,part_1,,,,,,,,,,,,,green,diamond
4.0,0,2.0,2.0,284.078121185,4.0,part_1,,,,,,,,,,,,,blue,circle
0.5,1,1.0,1.0,300.841808319,4.0,part_1,,,,,,,,,,,,,magenta,square
4.0,1,4.0,4.0,350.641965866,4.0,part_1,,,,,,,,,,,,,yellow,line
0.5,1,2.0,2.0,350.75902938800004,4.0,part_1,,,,,,,,,,,,,magenta,square
2.0,0,2.0,2.0,384.407997131,4.0,part_1,,,,,,,,,,,,,green,diamond
4.0,0,4.0,4.0,384.248971939,4.0,part_1,,,,,,,,,,,,,blue,circle
0.5,0,4.0,4.0,467.674970627,4.0,part_1,,,,,,,,,,,,,white,hexagon
2.0,0,3.0,3.0,467.895030975,4.0,part_1,,,,,,,,,,,,,green,diamond
1.0,0,1.0,1.0,384.044885635,4.0,part_1,,,,,,,,,,,,,cyan,flipped triangle
0.5,1,2.0,2.0,534.281015396,4.0,part_1,,,,,,,,,,,,,magenta,square
0.5,1,4.0,4.0,717.628002167,4.0,part_1,,,,,,,,,,,,,magenta,square
0.5,1,1.0,1.0,300.884008408,4.0,part_1,,,,,,,,,,,,,magenta,square
1.0,1,3.0,3.0,417.61088371299996,4.0,part_1,,,,,,,,,,,,,orange,triangle
0.5,1,2.0,2.0,334.232807159,4.0,part_1,,,,,,,,,,,,,magenta,square
0.5,0,3.0,3.0,434.184074402,4.0,part_1,,,,,,,,,,,,,white,hexagon
4.0,1,1.0,1.0,284.024953842,4.0,part_1,,,,,,,,,,,,,yellow,line
4.0,0,2.0,2.0,350.528001785,4.0,part_1,,,,,,,,,,,,,blue,circle
1.0,1,2.0,2.0,301.18584632899996,4.0,part_1,,,,,,,,,,,,,orange,triangle
0.5,0,3.0,3.0,417.500019073,4.0,part_1,,,,,,,,,,,,,white,hexagon
1.0,1,1.0,1.0,333.939790726,4.0,part_1,,,,,,,,,,,,,orange,triangle
2.0,1,4.0,4.0,467.631101608,4.0,part_1,,,,,,,,,,,,,gray,cross
1.0,0,4.0,4.0,384.20009613,4.0,part_1,,,,,,,,,,,,,cyan,flipped triangle
2.0,1,2.0,2.0,418.015003204,4.0,part_1,,,,,,,,,,,,,gray,cross
0.5,1,1.0,1.0,350.812911987,4.0,part_1,,,,,,,,,,,,,magenta,square
2.0,0,2.0,2.0,334.760904312,4.0,part_1,,,,,,,,,,,,,green,diamond
0.5,0,4.0,4.0,451.18403434799995,4.0,part_1,,,,,,,,,,,,,white,hexagon
0.5,0,4.0,4.0,467.789173126,4.0,part_1,,,,,,,,,,,,,white,hexagon
4.0,1,2.0,2.0,417.557001114,4.0,part_1,,,,,,,,,,,,,yellow,line
2.0,0,3.0,3.0,434.93413925199997,4.0,part_1,,,,,,,,,,,,,green,diamond
1.0,1,1.0,1.0,334.05685424800004,4.0,part_1,,,,,,,,,,,,,orange,triangle
4.0,0,3.0,3.0,117.375135422,4.0,part_1,,,,,,,,,,,,,blue,circle
0.5,1,2.0,2.0,300.870895386,4.0,part_1,,,,,,,,,,,,,magenta,square
4.0,1,1.0,1.0,301.00488662699996,4.0,part_1,,,,,,,,,,,,,yellow,line
0.5,1,1.0,1.0,383.91399383500004,4.0,part_1,,,,,,,,,,,,,magenta,square
0.5,0,4.0,4.0,550.916194916,4.0,part_1,,,,,,,,,,,,,white,hexagon
0.5,0,2.0,2.0,784.918069839,4.0,part_1,,,,,,,,,,,,,white,hexagon
1.0,0,3.0,3.0,451.406002045,4.0,part_1,,,,,,,,,,,,,cyan,flipped triangle
1.0,1,3.0,3.0,451.261997223,4.0,part_1,,,,,,,,,,,,,orange,triangle
2.0,1,2.0,2.0,333.940982819,4.0,part_1,,,,,,,,,,,,,gray,cross
1.0,1,3.0,3.0,667.572021484,4.0,part_1,,,,,,,,,,,,,orange,triangle
0.5,0,1.0,1.0,284.450054169,4.0,part_1,,,,,,,,,,,,,white,hexagon
1.0,1,3.0,3.0,484.132051468,4.0,part_1,,,,,,,,,,,,,orange,triangle
4.0,1,4.0,4.0,434.06605720500005,4.0,part_1,,,,,,,,,,,,,yellow,line
2.0,0,3.0,3.0,434.309959412,4.0,part_1,,,,,,,,,,,,,green,diamond
4.0,0,1.0,1.0,667.650938034,4.0,part_1,,,,,,,,,,,,,blue,circle
2.0,1,4.0,4.0,567.9628849029999,4.0,part_1,,,,,,,,,,,,,gray,cross
1.0,0,3.0,3.0,901.9482135769999,4.0,part_1,,,,,,,,,,,,,cyan,flipped triangle
2.0,1,1.0,1.0,334.283828735,4.0,part_1,,,,,,,,,,,,,gray,cross
2.0,1,3.0,3.0,400.638103485,4.0,part_1,,,,,,,,,,,,,gray,cross
2.0,0,4.0,4.0,467.744112015,4.0,part_1,,,,,,,,,,,,,green,diamond
0.5,0,4.0,4.0,684.474945068,4.0,part_1,,,,,,,,,,,,,white,hexagon
1.0,0,4.0,4.0,468.311071396,4.0,part_1,,,,,,,,,,,,,cyan,flipped triangle
0.5,1,4.0,4.0,401.042938232,4.0,part_1,,,,,,,,,,,,,magenta,square
4.0,1,3.0,3.0,384.11593437199997,4.0,part_1,,,,,,,,,,,,,yellow,line
0.5,0,2.0,2.0,367.717027664,4.0,part_1,,,,,,,,,,,,,white,hexagon
0.5,0,4.0,4.0,317.382097244,4.0,part_1,,,,,,,,,,,,,white,hexagon
2.0,1,3.0,3.0,434.762954712,4.0,part_1,,,,,,,,,,,,,gray,cross
2.0,0,6.0,6.0,467.37408638,1.0,part_2,go,250.0,250.0,1.0,,,,,,,,,green,diamond
4.0,1,5.0,0.0,,1.0,part_2,stop,250.0,250.0,4.0,,,,,,,,,yellow,line
4.0,1,6.0,0.0,,1.0,part_2,stop,250.0,250.0,4.0,,,,,,,,,yellow,line
0.5,1,6.0,6.0,434.308052063,1.0,part_2,stop,250.0,300.0,3.0,,,,,,,,,magenta,square
2.0,0,5.0,5.0,517.518043518,1.0,part_2,go,250.0,300.0,1.0,,,,,,,,,green,diamond
0.5,1,5.0,0.0,,1.0,part_2,stop,300.0,300.0,4.0,,,,,,,,,magenta,square
1.0,0,5.0,5.0,651.18598938,1.0,part_2,go,300.0,300.0,1.0,,,,,,,,,cyan,flipped triangle
4.0,0,6.0,6.0,717.612981796,1.0,part_2,go,300.0,300.0,1.0,,,,,,,,,blue,circle
0.5,1,6.0,0.0,,1.0,part_2,stop,300.0,250.0,4.0,,,,,,,,,magenta,square
1.0,1,6.0,0.0,,1.0,part_2,stop,300.0,300.0,4.0,,,,,,,,,orange,triangle
1.0,1,5.0,5.0,601.536035538,1.0,part_2,go,300.0,300.0,1.0,,,,,,,,,orange,triangle
0.5,1,6.0,0.0,,1.0,part_2,stop,300.0,350.0,4.0,,,,,,,,,magenta,square
2.0,1,5.0,0.0,,1.0,part_2,stop,350.0,350.0,4.0,,,,,,,,,gray,cross
1.0,1,5.0,0.0,,1.0,part_2,stop,400.0,350.0,4.0,,,,,,,,,orange,triangle
4.0,1,6.0,6.0,550.8182048799999,1.0,part_2,go,400.0,350.0,1.0,,,,,,,,,yellow,line
2.0,0,6.0,6.0,768.01609993,1.0,part_2,go,400.0,350.0,1.0,,,,,,,,,green,diamond
1.0,0,5.0,5.0,650.5441665650001,1.0,part_2,go,400.0,350.0,1.0,,,,,,,,,cyan,flipped triangle
4.0,0,6.0,6.0,734.4281673429999,1.0,part_2,go,400.0,350.0,1.0,,,,,,,,,blue,circle
2.0,1,6.0,0.0,,1.0,part_2,stop,400.0,400.0,4.0,,,,,,,,,gray,cross
4.0,1,5.0,0.0,,1.0,part_2,stop,450.0,400.0,4.0,,,,,,,,,yellow,line
0.5,1,5.0,0.0,,1.0,part_2,stop,500.0,400.0,4.0,,,,,,,,,magenta,square
0.5,0,5.0,5.0,951.594829559,1.0,part_2,go,500.0,400.0,1.0,,,,,,,,,white,hexagon
1.0,1,6.0,0.0,,1.0,part_2,stop,500.0,450.0,4.0,,,,,,,,,orange,triangle
2.0,0,6.0,6.0,851.197004318,1.0,part_2,go,500.0,450.0,1.0,,,,,,,,,green,diamond
0.5,1,6.0,6.0,434.133052826,1.0,part_2,stop,500.0,500.0,3.0,,,,,,,,,magenta,square
0.5,1,5.0,5.0,751.408100128,1.0,part_2,go,500.0,500.0,1.0,,,,,,,,,magenta,square
4.0,0,5.0,5.0,717.958927155,1.0,part_2,go,500.0,500.0,1.0,,,,,,,,,blue,circle
1.0,1,5.0,0.0,,1.0,part_2,stop,550.0,500.0,4.0,,,,,,,,,orange,triangle
4.0,0,6.0,6.0,767.5399780270001,1.0,part_2,go,550.0,500.0,1.0,,,,,,,,,blue,circle
0.5,0,6.0,6.0,851.724147797,1.0,part_2,go,550.0,500.0,1.0,,,,,,,,,white,hexagon
1.0,0,6.0,6.0,734.9588871,1.0,part_2,go,550.0,500.0,1.0,,,,,,,,,cyan,flipped triangle
4.0,0,5.0,5.0,751.06215477,1.0,part_2,go,550.0,500.0,1.0,,,,,,,,,blue,circle
2.0,0,5.0,5.0,834.717035294,1.0,part_2,go,550.0,500.0,1.0,,,,,,,,,green,diamond
2.0,1,6.0,6.0,751.013040543,1.0,part_2,go,550.0,500.0,1.0,,,,,,,,,gray,cross
1.0,0,5.0,5.0,768.1591510769999,1.0,part_2,go,550.0,500.0,1.0,,,,,,,,,cyan,flipped triangle
4.0,1,5.0,5.0,767.941951752,1.0,part_2,stop,600.0,500.0,3.0,,,,,,,,,yellow,line
2.0,1,6.0,6.0,384.754180908,2.0,part_2,stop,600.0,450.0,3.0,,,,,,,,,gray,cross
0.5,0,6.0,6.0,450.190067291,2.0,part_2,go,600.0,450.0,1.0,,,,,,,,,white,hexagon
1.0,1,5.0,5.0,350.886821747,2.0,part_2,go,600.0,450.0,1.0,,,,,,,,,orange,triangle
2.0,0,6.0,6.0,417.502880096,2.0,part_2,go,600.0,450.0,1.0,,,,,,,,,green,diamond
1.0,1,5.0,5.0,467.86904335,2.0,part_2,stop,550.0,450.0,3.0,,,,,,,,,orange,triangle
2.0,0,6.0,6.0,634.358882904,2.0,part_2,go,550.0,450.0,1.0,,,,,,,,,green,diamond
1.0,1,6.0,6.0,484.84683036800004,2.0,part_2,go,550.0,450.0,1.0,,,,,,,,,orange,triangle
0.5,1,6.0,0.0,,2.0,part_2,stop,550.0,400.0,4.0,,,,,,,,,magenta,square
1.0,1,6.0,6.0,600.853919983,2.0,part_2,stop,550.0,450.0,3.0,,,,,,,,,orange,triangle
2.0,0,5.0,5.0,517.688035965,2.0,part_2,go,550.0,450.0,1.0,,,,,,,,,green,diamond
2.0,1,6.0,0.0,,2.0,part_2,stop,550.0,400.0,4.0,,,,,,,,,gray,cross
0.5,1,6.0,6.0,417.45996475199996,2.0,part_2,stop,550.0,450.0,3.0,,,,,,,,,magenta,square
1.0,0,5.0,5.0,534.03711319,2.0,part_2,go,550.0,450.0,1.0,,,,,,,,,cyan,flipped triangle
4.0,1,5.0,5.0,567.662000656,2.0,part_2,stop,500.0,450.0,3.0,,,,,,,,,yellow,line
0.5,0,5.0,5.0,617.842912674,2.0,part_2,go,500.0,450.0,1.0,,,,,,,,,white,hexagon
0.5,1,5.0,5.0,600.933074951,2.0,part_2,go,500.0,450.0,1.0,,,,,,,,,magenta,square
0.5,0,6.0,6.0,717.539072037,2.0,part_2,go,500.0,450.0,1.0,,,,,,,,,white,hexagon
1.0,0,5.0,5.0,684.284925461,2.0,part_2,go,500.0,450.0,1.0,,,,,,,,,cyan,flipped triangle
2.0,1,6.0,6.0,534.315109253,2.0,part_2,stop,500.0,400.0,3.0,,,,,,,,,gray,cross
0.5,1,5.0,5.0,601.5231609340001,2.0,part_2,stop,450.0,400.0,3.0,,,,,,,,,magenta,square
0.5,0,6.0,6.0,701.2128829960001,2.0,part_2,go,450.0,400.0,1.0,,,,,,,,,white,hexagon
2.0,0,5.0,5.0,551.087856293,2.0,part_2,go,450.0,400.0,1.0,,,,,,,,,green,diamond
0.5,0,6.0,6.0,650.986909866,2.0,part_2,go,450.0,400.0,1.0,,,,,,,,,white,hexagon
1.0,0,6.0,6.0,484.093904495,2.0,part_2,go,450.0,400.0,1.0,,,,,,,,,cyan,flipped triangle
4.0,0,5.0,5.0,618.011951447,2.0,part_2,go,450.0,400.0,1.0,,,,,,,,,blue,circle
1.0,0,5.0,5.0,801.380872726,2.0,part_2,go,450.0,400.0,1.0,,,,,,,,,cyan,flipped triangle
1.0,1,5.0,5.0,584.360837936,2.0,part_2,stop,400.0,400.0,3.0,,,,,,,,,orange,triangle
2.0,0,6.0,6.0,584.222078323,2.0,part_2,go,400.0,400.0,1.0,,,,,,,,,green,diamond
1.0,0,5.0,5.0,667.9081916810001,2.0,part_2,go,400.0,400.0,1.0,,,,,,,,,cyan,flipped triangle
4.0,0,6.0,6.0,734.283924103,2.0,part_2,go,400.0,400.0,1.0,,,,,,,,,blue,circle
4.0,1,5.0,5.0,784.3291759489999,2.0,part_2,go,400.0,400.0,1.0,,,,,,,,,yellow,line
1.0,0,5.0,5.0,867.858886719,2.0,part_2,go,400.0,400.0,1.0,,,,,,,,,cyan,flipped triangle
2.0,0,6.0,6.0,634.835958481,2.0,part_2,go,400.0,400.0,1.0,,,,,,,,,green,diamond
0.5,0,5.0,5.0,801.26285553,2.0,part_2,go,400.0,400.0,1.0,,,,,,,,,white,hexagon
2.0,0,6.0,6.0,634.395837784,2.0,part_2,go,400.0,400.0,1.0,,,,,,,,,green,diamond
2.0,0,5.0,5.0,600.790023804,2.0,part_2,go,400.0,400.0,1.0,,,,,,,,,green,diamond
1.0,0,6.0,6.0,517.814874649,3.0,part_2,go,400.0,400.0,1.0,,,,,,,,,cyan,flipped triangle
4.0,1,5.0,5.0,484.462976456,3.0,part_2,stop,350.0,400.0,3.0,,,,,,,,,yellow,line
2.0,1,5.0,5.0,517.498970032,3.0,part_2,stop,300.0,400.0,3.0,,,,,,,,,gray,cross
0.5,0,5.0,5.0,550.945043564,3.0,part_2,go,300.0,400.0,1.0,,,,,,,,,white,hexagon
1.0,1,6.0,6.0,451.056957245,3.0,part_2,stop,300.0,350.0,3.0,,,,,,,,,orange,triangle
4.0,0,6.0,6.0,667.6599979399999,3.0,part_2,go,300.0,350.0,1.0,,,,,,,,,blue,circle
4.0,0,5.0,5.0,701.21884346,3.0,part_2,go,300.0,350.0,1.0,,,,,,,,,blue,circle
4.0,1,5.0,0.0,,3.0,part_2,stop,250.0,350.0,4.0,,,,,,,,,yellow,line
0.5,0,6.0,6.0,684.43608284,3.0,part_2,go,250.0,350.0,1.0,,,,,,,,,white,hexagon
4.0,1,6.0,0.0,,3.0,part_2,stop,250.0,300.0,4.0,,,,,,,,,yellow,line
2.0,1,6.0,0.0,,3.0,part_2,stop,250.0,350.0,4.0,,,,,,,,,gray,cross
1.0,0,5.0,5.0,634.259939194,3.0,part_2,go,250.0,350.0,1.0,,,,,,,,,cyan,flipped triangle
1.0,0,6.0,6.0,601.472854614,3.0,part_2,go,250.0,350.0,1.0,,,,,,,,,cyan,flipped triangle
0.5,0,5.0,5.0,684.6549510960001,3.0,part_2,go,250.0,350.0,1.0,,,,,,,,,white,hexagon
0.5,1,6.0,0.0,,3.0,part_2,stop,250.0,400.0,4.0,,,,,,,,,magenta,square
4.0,0,6.0,6.0,650.840997696,3.0,part_2,go,250.0,400.0,1.0,,,,,,,,,blue,circle
1.0,0,5.0,5.0,451.26080513,3.0,part_2,go,250.0,400.0,1.0,,,,,,,,,cyan,flipped triangle
1.0,1,6.0,0.0,,3.0,part_2,stop,250.0,450.0,4.0,,,,,,,,,orange,triangle
4.0,0,5.0,5.0,784.40117836,3.0,part_2,go,250.0,450.0,1.0,,,,,,,,,blue,circle
4.0,1,6.0,6.0,618.176937103,3.0,part_2,stop,250.0,500.0,3.0,,,,,,,,,yellow,line
4.0,1,5.0,0.0,,3.0,part_2,stop,300.0,500.0,4.0,,,,,,,,,yellow,line
4.0,1,5.0,0.0,,3.0,part_2,stop,350.0,500.0,4.0,,,,,,,,,yellow,line
1.0,1,5.0,5.0,517.679929733,3.0,part_2,stop,400.0,500.0,3.0,,,,,,,,,orange,triangle
4.0,0,6.0,6.0,600.801944733,3.0,part_2,go,400.0,500.0,1.0,,,,,,,,,blue,circle
0.5,1,6.0,0.0,,3.0,part_2,stop,400.0,450.0,4.0,,,,,,,,,magenta,square
1.0,0,5.0,5.0,701.547145844,3.0,part_2,go,400.0,450.0,1.0,,,,,,,,,cyan,flipped triangle
4.0,1,6.0,0.0,,3.0,part_2,stop,400.0,500.0,4.0,,,,,,,,,yellow,line
4.0,0,6.0,6.0,801.171064377,3.0,part_2,go,400.0,500.0,1.0,,,,,,,,,blue,circle
4.0,0,6.0,6.0,651.01480484,3.0,part_2,go,400.0,500.0,1.0,,,,,,,,,blue,circle
2.0,1,5.0,0.0,,3.0,part_2,stop,350.0,500.0,4.0,,,,,,,,,gray,cross
1.0,1,5.0,0.0,,3.0,part_2,stop,400.0,500.0,4.0,,,,,,,,,orange,triangle
0.5,1,5.0,5.0,617.826938629,3.0,part_2,stop,450.0,500.0,3.0,,,,,,,,,magenta,square
4.0,0,6.0,6.0,601.3691425320001,3.0,part_2,go,450.0,500.0,1.0,,,,,,,,,blue,circle
2.0,0,6.0,6.0,567.4960613249999,3.0,part_2,go,450.0,500.0,1.0,,,,,,,,,green,diamond
4.0,1,5.0,5.0,617.357969284,3.0,part_2,go,450.0,500.0,1.0,,,,,,,,,yellow,line
0.5,1,5.0,0.0,,3.0,part_2,stop,400.0,500.0,4.0,,,,,,,,,magenta,square
2.0,1,6.0,6.0,483.946800232,4.0,part_2,go,400.0,500.0,1.0,,,,,,,,,gray,cross
2.0,1,6.0,6.0,634.622097015,4.0,part_2,go,400.0,500.0,1.0,,,,,,,,,gray,cross
2.0,0,6.0,6.0,467.742919922,4.0,part_2,go,400.0,500.0,1.0,,,,,,,,,green,diamond
2.0,1,6.0,6.0,734.555959702,4.0,part_2,stop,400.0,550.0,3.0,,,,,,,,,gray,cross
0.5,1,5.0,0.0,,4.0,part_2,stop,450.0,550.0,4.0,,,,,,,,,magenta,square
0.5,1,6.0,0.0,,4.0,part_2,stop,450.0,500.0,4.0,,,,,,,,,magenta,square
1.0,1,5.0,5.0,768.23592186,4.0,part_2,go,450.0,500.0,1.0,,,,,,,,,orange,triangle
4.0,1,6.0,6.0,651.2010097499999,4.0,part_2,stop,450.0,550.0,3.0,,,,,,,,,yellow,line
4.0,1,5.0,0.0,,4.0,part_2,stop,500.0,550.0,4.0,,,,,,,,,yellow,line
2.0,0,6.0,6.0,768.0261135100001,4.0,part_2,go,500.0,550.0,1.0,,,,,,,,,green,diamond
4.0,1,5.0,5.0,717.956066132,4.0,part_2,stop,550.0,550.0,3.0,,,,,,,,,yellow,line
1.0,0,6.0,6.0,784.7158908839999,4.0,part_2,go,550.0,550.0,1.0,,,,,,,,,cyan,flipped triangle
1.0,0,5.0,5.0,784.409999847,4.0,part_2,go,550.0,550.0,1.0,,,,,,,,,cyan,flipped triangle
0.5,0,5.0,5.0,817.8150653839999,4.0,part_2,go,550.0,550.0,1.0,,,,,,,,,white,hexagon
4.0,0,6.0,6.0,917.9508686070001,4.0,part_2,go,550.0,550.0,1.0,,,,,,,,,blue,circle
4.0,0,6.0,6.0,884.442090988,4.0,part_2,go,550.0,550.0,1.0,,,,,,,,,blue,circle
2.0,1,5.0,0.0,,4.0,part_2,stop,500.0,550.0,4.0,,,,,,,,,gray,cross
2.0,0,5.0,0.0,,4.0,part_2,go,500.0,550.0,5.0,,,,,,,,,green,diamond
1.0,0,5.0,5.0,851.5608310700001,4.0,part_2,go,500.0,550.0,1.0,,,,,,,,,cyan,flipped triangle
0.5,1,5.0,0.0,,4.0,part_2,stop,550.0,550.0,4.0,,,,,,,,,magenta,square
4.0,0,6.0,6.0,667.761087418,4.0,part_2,go,550.0,550.0,1.0,,,,,,,,,blue,circle
4.0,0,6.0,6.0,717.5929546360001,4.0,part_2,go,550.0,550.0,1.0,,,,,,,,,blue,circle
1.0,0,5.0,5.0,701.653003693,4.0,part_2,go,550.0,550.0,1.0,,,,,,,,,cyan,flipped triangle
4.0,0,5.0,5.0,901.515007019,4.0,part_2,go,550.0,550.0,1.0,,,,,,,,,blue,circle
2.0,1,5.0,0.0,,4.0,part_2,stop,600.0,550.0,4.0,,,,,,,,,gray,cross
2.0,1,6.0,0.0,,4.0,part_2,stop,600.0,500.0,4.0,,,,,,,,,gray,cross
2.0,0,6.0,6.0,851.059913635,4.0,part_2,go,600.0,500.0,1.0,,,,,,,,,green,diamond
4.0,1,6.0,0.0,,4.0,part_2,stop,600.0,550.0,4.0,,,,,,,,,yellow,line
4.0,1,5.0,0.0,,4.0,part_2,stop,650.0,550.0,4.0,,,,,,,,,yellow,line
1.0,0,6.0,6.0,884.812116623,4.0,part_2,go,650.0,550.0,1.0,,,,,,,,,cyan,flipped triangle
2.0,1,6.0,0.0,,4.0,part_2,go,650.0,550.0,5.0,,,,,,,,,gray,cross
0.5,0,5.0,0.0,,4.0,part_2,go,650.0,550.0,5.0,,,,,,,,,white,hexagon
0.5,0,5.0,0.0,,4.0,part_2,go,650.0,550.0,5.0,,,,,,,,,white,hexagon
0.5,0,6.0,6.0,885.0951194759999,4.0,part_2,go,650.0,550.0,1.0,,,,,,,,,white,hexagon
4.0,0,5.0,5.0,951.9670009609999,4.0,part_2,go,650.0,550.0,1.0,,,,,,,,,blue,circle
0.5,0,5.0,5.0,901.390075684,4.0,part_2,go,650.0,550.0,1.0,,,,,,,,,white,hexagon
1.0,0,6.0,6.0,651.130199432,5.0,part_2,go,650.0,550.0,1.0,,,,,,,,,cyan,flipped triangle
2.0,1,5.0,5.0,901.0660648349999,5.0,part_2,stop,700.0,550.0,3.0,,,,,,,,,gray,cross
0.5,1,5.0,0.0,,5.0,part_2,stop,650.0,550.0,4.0,,,,,,,,,magenta,square
4.0,1,5.0,5.0,768.1291103359999,5.0,part_2,stop,700.0,550.0,3.0,,,,,,,,,yellow,line
2.0,1,6.0,6.0,701.122999191,5.0,part_2,go,700.0,550.0,1.0,,,,,,,,,gray,cross
2.0,1,6.0,6.0,750.9009838100001,5.0,part_2,stop,700.0,600.0,3.0,,,,,,,,,gray,cross
4.0,0,5.0,5.0,651.1940956120001,5.0,part_2,go,700.0,600.0,1.0,,,,,,,,,blue,circle
0.5,1,6.0,0.0,,5.0,part_2,stop,700.0,550.0,4.0,,,,,,,,,magenta,square
2.0,1,6.0,6.0,701.2491226200001,5.0,part_2,stop,700.0,600.0,3.0,,,,,,,,,gray,cross
0.5,0,5.0,5.0,684.742927551,5.0,part_2,go,700.0,600.0,1.0,,,,,,,,,white,hexagon
4.0,0,5.0,5.0,567.939996719,5.0,part_2,go,700.0,600.0,1.0,,,,,,,,,blue,circle
4.0,1,5.0,5.0,734.344005585,5.0,part_2,go,700.0,600.0,1.0,,,,,,,,,yellow,line
0.5,0,6.0,6.0,668.249130249,5.0,part_2,go,700.0,600.0,1.0,,,,,,,,,white,hexagon
1.0,0,5.0,5.0,734.94887352,5.0,part_2,go,700.0,600.0,1.0,,,,,,,,,cyan,flipped triangle
1.0,1,5.0,5.0,768.277168274,5.0,part_2,stop,650.0,600.0,3.0,,,,,,,,,orange,triangle
2.0,1,6.0,0.0,,5.0,part_2,stop,650.0,550.0,4.0,,,,,,,,,gray,cross
4.0,0,5.0,5.0,851.3829708100001,5.0,part_2,go,650.0,550.0,1.0,,,,,,,,,blue,circle
2.0,0,5.0,5.0,817.8968429570001,5.0,part_2,go,650.0,550.0,1.0,,,,,,,,,green,diamond
4.0,1,5.0,5.0,701.267004013,5.0,part_2,stop,600.0,550.0,3.0,,,,,,,,,yellow,line
1.0,1,5.0,0.0,,5.0,part_2,stop,550.0,550.0,4.0,,,,,,,,,orange,triangle
4.0,1,5.0,5.0,901.19099617,5.0,part_2,go,550.0,550.0,1.0,,,,,,,,,yellow,line
1.0,0,6.0,6.0,934.3318939210001,5.0,part_2,go,550.0,550.0,1.0,,,,,,,,,cyan,flipped triangle
2.0,0,6.0,6.0,784.893035889,5.0,part_2,go,550.0,550.0,1.0,,,,,,,,,green,diamond
2.0,0,6.0,6.0,684.386014938,5.0,part_2,go,550.0,550.0,1.0,,,,,,,,,green,diamond
1.0,0,6.0,6.0,801.2878894810001,5.0,part_2,go,550.0,550.0,1.0,,,,,,,,,cyan,flipped triangle
2.0,0,6.0,6.0,651.354074478,5.0,part_2,go,550.0,550.0,1.0,,,,,,,,,green,diamond
2.0,0,5.0,5.0,600.868940353,5.0,part_2,go,550.0,550.0,1.0,,,,,,,,,green,diamond
2.0,0,5.0,5.0,634.245157242,5.0,part_2,go,550.0,550.0,1.0,,,,,,,,,green,diamond
1.0,0,6.0,6.0,617.444038391,5.0,part_2,go,550.0,550.0,1.0,,,,,,,,,cyan,flipped triangle
4.0,1,6.0,6.0,701.130151749,5.0,part_2,stop,550.0,600.0,3.0,,,,,,,,,yellow,line
0.5,0,6.0,6.0,867.847204208,5.0,part_2,go,550.0,600.0,1.0,,,,,,,,,white,hexagon
1.0,1,5.0,5.0,551.2499809269999,5.0,part_2,go,550.0,600.0,1.0,,,,,,,,,orange,triangle
4.0,1,5.0,5.0,400.979995728,5.0,part_2,stop,600.0,600.0,3.0,,,,,,,,,yellow,line
4.0,1,6.0,6.0,651.123046875,5.0,part_2,go,600.0,600.0,1.0,,,,,,,,,yellow,line
0.5,0,6.0,6.0,567.6598548889999,5.0,part_2,go,600.0,600.0,1.0,,,,,,,,,white,hexagon
2.0,0,6.0,6.0,751.139163971,5.0,part_2,go,600.0,600.0,1.0,,,,,,,,,green,diamond
0.5,0,5.0,5.0,434.039831161,6.0,part_2,go,600.0,600.0,1.0,,,,,,,,,white,hexagon
4.0,0,5.0,6.0,333.589076996,6.0,part_2,go,600.0,600.0,2.0,,,,,,,,,blue,circle
1.0,0,6.0,6.0,383.988857269,6.0,part_2,go,600.0,600.0,1.0,,,,,,,,,cyan,flipped triangle
1.0,1,5.0,5.0,300.83990097000003,6.0,part_2,stop,550.0,600.0,3.0,,,,,,,,,orange,triangle
0.5,1,6.0,6.0,283.893108368,6.0,part_2,go,550.0,600.0,1.0,,,,,,,,,magenta,square
2.0,1,6.0,6.0,367.08498001099997,6.0,part_2,stop,550.0,550.0,3.0,,,,,,,,,gray,cross
0.5,1,5.0,5.0,433.859109879,6.0,part_2,stop,500.0,550.0,3.0,,,,,,,,,magenta,square
0.5,0,6.0,6.0,333.722114563,6.0,part_2,go,500.0,550.0,1.0,,,,,,,,,white,hexagon
1.0,1,6.0,6.0,367.20800399800004,6.0,part_2,stop,500.0,500.0,3.0,,,,,,,,,orange,triangle
4.0,0,6.0,6.0,384.149074554,6.0,part_2,go,500.0,500.0,1.0,,,,,,,,,blue,circle
1.0,1,5.0,5.0,417.153120041,6.0,part_2,go,500.0,500.0,1.0,,,,,,,,,orange,triangle
4.0,1,5.0,5.0,400.943994522,6.0,part_2,stop,450.0,500.0,3.0,,,,,,,,,yellow,line
2.0,1,5.0,5.0,500.84686279299996,6.0,part_2,go,450.0,500.0,1.0,,,,,,,,,gray,cross
2.0,1,6.0,6.0,617.79999733,6.0,part_2,stop,450.0,450.0,3.0,,,,,,,,,gray,cross
2.0,0,6.0,6.0,517.465114594,6.0,part_2,go,450.0,450.0,1.0,,,,,,,,,green,diamond
1.0,1,5.0,0.0,,6.0,part_2,stop,400.0,450.0,4.0,,,,,,,,,orange,triangle
4.0,1,6.0,0.0,,6.0,part_2,stop,400.0,400.0,4.0,,,,,,,,,yellow,line
2.0,0,6.0,6.0,550.776004791,6.0,part_2,go,400.0,400.0,1.0,,,,,,,,,green,diamond
0.5,0,6.0,6.0,717.964172363,6.0,part_2,go,400.0,400.0,1.0,,,,,,,,,white,hexagon
0.5,1,5.0,5.0,517.760038376,6.0,part_2,stop,450.0,400.0,3.0,,,,,,,,,magenta,square
0.5,1,5.0,5.0,584.263801575,6.0,part_2,go,450.0,400.0,1.0,,,,,,,,,magenta,square
2.0,0,5.0,5.0,534.5971584319999,6.0,part_2,go,450.0,400.0,1.0,,,,,,,,,green,diamond
2.0,0,6.0,6.0,484.194040298,6.0,part_2,go,450.0,400.0,1.0,,,,,,,,,green,diamond
1.0,0,6.0,6.0,700.809955597,6.0,part_2,go,450.0,400.0,1.0,,,,,,,,,cyan,flipped triangle
2.0,0,6.0,6.0,467.263936996,6.0,part_2,go,450.0,400.0,1.0,,,,,,,,,green,diamond
1.0,0,5.0,5.0,483.92081260699996,6.0,part_2,go,450.0,400.0,1.0,,,,,,,,,cyan,flipped triangle
4.0,0,6.0,6.0,350.980997086,6.0,part_2,go,450.0,400.0,1.0,,,,,,,,,blue,circle
4.0,1,5.0,5.0,417.520999908,6.0,part_2,stop,400.0,400.0,3.0,,,,,,,,,yellow,line
2.0,0,6.0,6.0,484.328985214,6.0,part_2,go,400.0,400.0,1.0,,,,,,,,,green,diamond
2.0,1,6.0,6.0,584.1529369350001,6.0,part_2,stop,400.0,450.0,3.0,,,,,,,,,gray,cross
1.0,1,6.0,6.0,534.332990646,6.0,part_2,stop,400.0,400.0,3.0,,,,,,,,,orange,triangle
0.5,1,5.0,5.0,500.76389312699996,6.0,part_2,go,400.0,400.0,1.0,,,,,,,,,magenta,square
2.0,1,5.0,5.0,351.106882095,6.0,part_2,stop,350.0,400.0,3.0,,,,,,,,,gray,cross
0.5,0,5.0,5.0,550.956964493,6.0,part_2,go,350.0,400.0,1.0,,,,,,,,,white,hexagon
2.0,0,5.0,5.0,418.078899384,6.0,part_2,go,350.0,400.0,1.0,,,,,,,,,green,diamond
1.0,1,5.0,5.0,317.174196243,6.0,part_2,stop,300.0,400.0,3.0,,,,,,,,,orange,triangle
2.0,1,5.0,0.0,,7.0,part_2,stop,250.0,400.0,4.0,,,,,,,,,gray,cross
4.0,0,6.0,6.0,567.17300415,7.0,part_2,go,250.0,400.0,1.0,,,,,,,,,blue,circle
2.0,1,6.0,6.0,484.31801796,7.0,part_2,stop,250.0,350.0,3.0,,,,,,,,,gray,cross
1.0,1,5.0,0.0,,7.0,part_2,stop,300.0,350.0,4.0,,,,,,,,,orange,triangle
1.0,1,5.0,0.0,,7.0,part_2,stop,350.0,350.0,4.0,,,,,,,,,orange,triangle
0.5,1,6.0,6.0,484.132051468,7.0,part_2,go,350.0,350.0,1.0,,,,,,,,,magenta,square
0.5,0,5.0,5.0,567.728996277,7.0,part_2,go,350.0,350.0,1.0,,,,,,,,,white,hexagon
0.5,1,5.0,0.0,,7.0,part_2,stop,400.0,350.0,4.0,,,,,,,,,magenta,square
4.0,1,5.0,5.0,567.811012268,7.0,part_2,go,400.0,350.0,1.0,,,,,,,,,yellow,line
0.5,0,6.0,6.0,717.462062836,7.0,part_2,go,400.0,350.0,1.0,,,,,,,,,white,hexagon
1.0,0,5.0,5.0,768.123149872,7.0,part_2,go,400.0,350.0,1.0,,,,,,,,,cyan,flipped triangle
0.5,1,6.0,0.0,,7.0,part_2,stop,400.0,300.0,4.0,,,,,,,,,magenta,square
2.0,0,5.0,5.0,334.66386795000005,7.0,part_2,go,400.0,300.0,1.0,,,,,,,,,green,diamond
0.5,1,6.0,6.0,550.8182048799999,7.0,part_2,stop,400.0,350.0,3.0,,,,,,,,,magenta,square
0.5,1,5.0,5.0,617.3069477079999,7.0,part_2,go,400.0,350.0,1.0,,,,,,,,,magenta,square
4.0,1,6.0,6.0,450.732946396,7.0,part_2,go,400.0,350.0,1.0,,,,,,,,,yellow,line
1.0,1,6.0,0.0,,7.0,part_2,stop,400.0,300.0,4.0,,,,,,,,,orange,triangle
2.0,1,6.0,6.0,417.275905609,7.0,part_2,stop,400.0,350.0,3.0,,,,,,,,,gray,cross
0.5,0,5.0,5.0,467.38409996,7.0,part_2,go,400.0,350.0,1.0,,,,,,,,,white,hexagon
1.0,1,5.0,5.0,834.699869156,7.0,part_2,go,400.0,350.0,1.0,,,,,,,,,orange,triangle
0.5,1,6.0,0.0,,7.0,part_2,stop,400.0,300.0,4.0,,,,,,,,,magenta,square
2.0,1,5.0,5.0,551.344871521,7.0,part_2,stop,450.0,300.0,3.0,,,,,,,,,gray,cross
4.0,1,6.0,0.0,,7.0,part_2,stop,450.0,350.0,4.0,,,,,,,,,yellow,line
4.0,1,6.0,6.0,517.275810242,7.0,part_2,go,450.0,350.0,1.0,,,,,,,,,yellow,line
1.0,0,5.0,5.0,517.8101062769999,7.0,part_2,go,450.0,350.0,1.0,,,,,,,,,cyan,flipped triangle
4.0,0,5.0,5.0,434.042930603,7.0,part_2,go,450.0,350.0,1.0,,,,,,,,,blue,circle
2.0,1,6.0,6.0,501.12700462299995,7.0,part_2,go,450.0,350.0,1.0,,,,,,,,,gray,cross
1.0,1,6.0,0.0,,7.0,part_2,stop,450.0,400.0,4.0,,,,,,,,,orange,triangle
1.0,1,6.0,0.0,,7.0,part_2,stop,450.0,450.0,4.0,,,,,,,,,orange,triangle
2.0,1,5.0,5.0,634.005069733,7.0,part_2,go,450.0,450.0,1.0,,,,,,,,,gray,cross
0.5,0,5.0,5.0,434.15498733500004,7.0,part_2,go,450.0,450.0,1.0,,,,,,,,,white,hexagon
1.0,1,5.0,5.0,583.916902542,7.0,part_2,stop,400.0,450.0,3.0,,,,,,,,,orange,triangle
0.5,0,6.0,6.0,684.126138687,7.0,part_2,go,400.0,450.0,1.0,,,,,,,,,white,hexagon
2.0,1,6.0,6.0,784.762859344,7.0,part_2,go,400.0,450.0,1.0,,,,,,,,,gray,cross
1.0,0,5.0,5.0,567.8908824920001,7.0,part_2,go,400.0,450.0,1.0,,,,,,,,,cyan,flipped triangle
0.5,1,6.0,6.0,701.467990875,7.0,part_2,stop,400.0,500.0,3.0,,,,,,,,,magenta,square
2.0,1,6.0,6.0,451.259851456,8.0,part_2,stop,400.0,450.0,3.0,,,,,,,,,gray,cross
0.5,0,6.0,6.0,634.346961975,8.0,part_2,go,400.0,450.0,1.0,,,,,,,,,white,hexagon
1.0,1,6.0,6.0,483.897924423,8.0,part_2,stop,400.0,400.0,3.0,,,,,,,,,orange,triangle
1.0,0,5.0,5.0,500.998020172,8.0,part_2,go,400.0,400.0,1.0,,,,,,,,,cyan,flipped triangle
0.5,0,5.0,5.0,601.0198593140001,8.0,part_2,go,400.0,400.0,1.0,,,,,,,,,white,hexagon
4.0,0,5.0,5.0,600.8028984069999,8.0,part_2,go,400.0,400.0,1.0,,,,,,,,,blue,circle
4.0,0,6.0,6.0,484.641075134,8.0,part_2,go,400.0,400.0,1.0,,,,,,,,,blue,circle
0.5,0,5.0,5.0,366.880178452,8.0,part_2,go,400.0,400.0,1.0,,,,,,,,,white,hexagon
0.5,1,6.0,0.0,,8.0,part_2,stop,400.0,350.0,4.0,,,,,,,,,magenta,square
0.5,1,5.0,5.0,534.54709053,8.0,part_2,stop,350.0,350.0,3.0,,,,,,,,,magenta,square
0.5,1,5.0,5.0,617.515087128,8.0,part_2,go,350.0,350.0,1.0,,,,,,,,,magenta,square
0.5,0,5.0,5.0,450.94704628,8.0,part_2,go,350.0,350.0,1.0,,,,,,,,,white,hexagon
2.0,0,6.0,6.0,617.81001091,8.0,part_2,go,350.0,350.0,1.0,,,,,,,,,green,diamond
1.0,0,6.0,6.0,583.775043488,8.0,part_2,go,350.0,350.0,1.0,,,,,,,,,cyan,flipped triangle
4.0,0,6.0,6.0,517.738819122,8.0,part_2,go,350.0,350.0,1.0,,,,,,,,,blue,circle
4.0,1,5.0,5.0,367.244005203,8.0,part_2,stop,300.0,350.0,3.0,,,,,,,,,yellow,line
1.0,1,6.0,6.0,517.598152161,8.0,part_2,stop,300.0,400.0,3.0,,,,,,,,,orange,triangle
1.0,1,5.0,5.0,650.8591175079999,8.0,part_2,go,300.0,400.0,1.0,,,,,,,,,orange,triangle
1.0,1,5.0,5.0,501.205921173,8.0,part_2,go,300.0,400.0,1.0,,,,,,,,,orange,triangle
2.0,0,6.0,6.0,584.110021591,8.0,part_2,go,300.0,400.0,1.0,,,,,,,,,green,diamond
4.0,0,5.0,5.0,517.657995224,8.0,part_2,go,300.0,400.0,1.0,,,,,,,,,blue,circle
4.0,1,6.0,0.0,,8.0,part_2,stop,300.0,350.0,4.0,,,,,,,,,yellow,line
4.0,0,6.0,6.0,767.971992493,8.0,part_2,go,300.0,350.0,1.0,,,,,,,,,blue,circle
1.0,0,5.0,5.0,684.417009354,8.0,part_2,go,300.0,350.0,1.0,,,,,,,,,cyan,flipped triangle
1.0,0,5.0,5.0,383.87298584,8.0,part_2,go,300.0,350.0,1.0,,,,,,,,,cyan,flipped triangle
0.5,0,6.0,6.0,667.644023895,8.0,part_2,go,300.0,350.0,1.0,,,,,,,,,white,hexagon
0.5,0,6.0,6.0,734.540939331,8.0,part_2,go,300.0,350.0,1.0,,,,,,,,,white,hexagon
1.0,1,5.0,5.0,384.16886329700003,8.0,part_2,stop,250.0,350.0,3.0,,,,,,,,,orange,triangle
2.0,1,6.0,6.0,501.124858856,8.0,part_2,stop,250.0,400.0,3.0,,,,,,,,,gray,cross
4.0,0,6.0,6.0,600.852966309,8.0,part_2,go,250.0,400.0,1.0,,,,,,,,,blue,circle
4.0,0,5.0,5.0,550.711154938,8.0,part_2,go,250.0,400.0,1.0,,,,,,,,,blue,circle
2.0,0,5.0,5.0,384.676218033,8.0,part_2,go,250.0,400.0,1.0,,,,,,,,,green,diamond
2.0,1,5.0,0.0,,8.0,part_2,stop,200.0,400.0,4.0,,,,,,,,,gray,cross
0.5,1,6.0,6.0,584.223031998,8.0,part_2,go,200.0,400.0,1.0,,,,,,,,,magenta,square
0.5,0,6.0,6.0,617.609024048,8.0,part_2,go,200.0,400.0,1.0,,,,,,,,,white,hexagon
1.0,0,5.0,5.0,601.312160492,8.0,part_2,go,200.0,400.0,1.0,,,,,,,,,cyan,flipped triangle
0.5,1,7.0,5.0,3269.9549198199998,1.0,part_3,stop,,,,204.0,6.0,68.0,34.0,170.0,102.0,204.0,136.0,magenta,square
0.5,0,7.0,3.0,2352.3349762,1.0,part_3,go,,,,195.0,5.0,156.0,234.0,195.0,117.0,78.0,39.0,white,hexagon
4.0,1,7.0,2.0,3153.43213081,1.0,part_3,stop,,,,156.0,4.0,117.0,156.0,234.0,78.0,39.0,195.0,yellow,line
2.0,0,7.0,,,1.0,part_3,go,,,,0.0,,170.0,34.0,204.0,102.0,136.0,68.0,green,diamond
0.5,1,7.0,3.0,1802.54292488,1.0,part_3,stop,,,,156.0,4.0,78.0,117.0,156.0,39.0,234.0,195.0,magenta,square
1.0,1,7.0,5.0,2519.73295212,1.0,part_3,stop,,,,216.0,4.0,270.0,54.0,162.0,108.0,216.0,324.0,orange,triangle
4.0,0,7.0,4.0,2168.6360836,1.0,part_3,go,,,,147.0,3.0,196.0,294.0,49.0,147.0,98.0,245.0,blue,circle
2.0,1,7.0,4.0,1552.22892761,1.0,part_3,stop,,,,162.0,3.0,216.0,54.0,324.0,162.0,270.0,108.0,gray,cross
4.0,0,7.0,4.0,2035.52889824,1.0,part_3,go,,,,234.0,6.0,39.0,78.0,195.0,234.0,156.0,117.0,blue,circle
0.5,1,7.0,3.0,1651.48305893,1.0,part_3,stop,,,,88.0,2.0,264.0,176.0,88.0,220.0,132.0,44.0,magenta,square
2.0,0,7.0,3.0,1302.28090286,1.0,part_3,go,,,,147.0,3.0,98.0,294.0,147.0,49.0,245.0,196.0,green,diamond
4.0,1,7.0,4.0,1235.4159355200002,1.0,part_3,stop,,,,245.0,5.0,147.0,294.0,49.0,245.0,196.0,98.0,yellow,line
4.0,1,7.0,4.0,1602.21505165,1.0,part_3,stop,,,,324.0,6.0,54.0,162.0,270.0,324.0,216.0,108.0,yellow,line
1.0,1,7.0,3.0,1268.3010101300001,1.0,part_3,stop,,,,245.0,5.0,49.0,147.0,245.0,98.0,196.0,294.0,orange,triangle
2.0,0,7.0,3.0,1535.4180336000002,1.0,part_3,go,,,,132.0,3.0,220.0,176.0,132.0,264.0,44.0,88.0,green,diamond
0.5,1,7.0,4.0,1351.44805908,1.0,part_3,stop,,,,108.0,2.0,216.0,54.0,324.0,108.0,270.0,162.0,magenta,square
0.5,1,7.0,4.0,1468.6331748999999,1.0,part_3,stop,,,,147.0,3.0,294.0,245.0,98.0,147.0,196.0,49.0,magenta,square
2.0,0,7.0,4.0,1501.74593925,1.0,part_3,go,,,,78.0,2.0,195.0,117.0,156.0,78.0,39.0,234.0,green,diamond
0.5,0,7.0,4.0,1384.77110863,1.0,part_3,go,,,,98.0,2.0,49.0,245.0,147.0,98.0,196.0,294.0,white,hexagon
1.0,0,7.0,5.0,1802.53195763,1.0,part_3,go,,,,147.0,3.0,245.0,294.0,196.0,49.0,147.0,98.0,cyan,flipped triangle
1.0,0,7.0,4.0,1201.85804367,2.0,part_3,go,,,,132.0,3.0,220.0,176.0,88.0,132.0,264.0,44.0,cyan,flipped triangle
4.0,1,7.0,3.0,1785.16697884,2.0,part_3,stop,,,,88.0,2.0,132.0,176.0,88.0,220.0,44.0,264.0,yellow,line
2.0,1,7.0,4.0,2152.60100365,2.0,part_3,stop,,,,147.0,3.0,49.0,294.0,196.0,147.0,245.0,98.0,gray,cross
2.0,0,7.0,1.0,1768.8128948199999,2.0,part_3,go,,,,136.0,4.0,136.0,102.0,204.0,68.0,170.0,34.0,green,diamond
1.0,1,7.0,1.0,1919.07405853,2.0,part_3,stop,,,,132.0,3.0,132.0,220.0,176.0,264.0,44.0,88.0,orange,triangle
1.0,0,7.0,2.0,1618.50595474,2.0,part_3,go,,,,162.0,3.0,108.0,162.0,324.0,270.0,54.0,216.0,cyan,flipped triangle
1.0,0,7.0,1.0,1118.3581352200001,2.0,part_3,go,,,,156.0,4.0,156.0,78.0,195.0,234.0,117.0,39.0,cyan,flipped triangle
4.0,0,7.0,3.0,1701.81894302,2.0,part_3,go,,,,108.0,2.0,270.0,54.0,108.0,216.0,324.0,162.0,blue,circle
0.5,1,7.0,1.0,1251.36208534,2.0,part_3,stop,,,,147.0,3.0,147.0,294.0,49.0,196.0,245.0,98.0,magenta,square
2.0,1,7.0,5.0,1602.16879845,2.0,part_3,stop,,,,147.0,3.0,294.0,98.0,245.0,196.0,147.0,49.0,gray,cross
1.0,0,7.0,3.0,1134.72604752,2.0,part_3,go,,,,162.0,3.0,216.0,270.0,162.0,54.0,108.0,324.0,cyan,flipped triangle
1.0,0,7.0,1.0,900.958061218,2.0,part_3,go,,,,98.0,2.0,98.0,147.0,196.0,245.0,294.0,49.0,cyan,flipped triangle
2.0,1,7.0,1.0,1168.0810451500001,2.0,part_3,stop,,,,132.0,3.0,132.0,88.0,264.0,176.0,220.0,44.0,gray,cross
2.0,1,7.0,3.0,1184.6950054200001,2.0,part_3,stop,,,,176.0,4.0,44.0,220.0,176.0,132.0,88.0,264.0,gray,cross
4.0,1,7.0,2.0,1584.68222618,2.0,part_3,stop,,,,195.0,5.0,39.0,195.0,117.0,234.0,156.0,78.0,yellow,line
4.0,1,7.0,3.0,1685.4329109199998,2.0,part_3,stop,,,,170.0,5.0,204.0,102.0,170.0,136.0,34.0,68.0,yellow,line
1.0,1,7.0,1.0,1451.25293732,2.0,part_3,stop,,,,264.0,6.0,264.0,220.0,176.0,132.0,44.0,88.0,orange,triangle
2.0,1,7.0,2.0,1134.8140239699999,2.0,part_3,stop,,,,170.0,5.0,34.0,170.0,136.0,102.0,204.0,68.0,gray,cross
0.5,1,7.0,2.0,1468.5690403,2.0,part_3,stop,,,,162.0,3.0,270.0,162.0,216.0,324.0,54.0,108.0,magenta,square
1.0,0,7.0,4.0,1084.4719409900001,2.0,part_3,go,,,,156.0,4.0,234.0,117.0,78.0,156.0,195.0,39.0,cyan,flipped triangle
4.0,0,7.0,3.0,1401.48615837,3.0,part_3,go,,,,117.0,3.0,39.0,78.0,117.0,234.0,195.0,156.0,blue,circle
4.0,1,7.0,1.0,934.499025345,3.0,part_3,stop,,,,132.0,3.0,132.0,88.0,44.0,220.0,264.0,176.0,yellow,line
1.0,1,7.0,3.0,1268.5210704800002,3.0,part_3,stop,,,,147.0,3.0,294.0,98.0,147.0,245.0,196.0,49.0,orange,triangle
4.0,0,7.0,2.0,734.2300415039999,3.0,part_3,go,,,,147.0,3.0,294.0,147.0,98.0,196.0,245.0,49.0,blue,circle
4.0,0,7.0,5.0,1351.64999962,3.0,part_3,go,,,,136.0,4.0,170.0,68.0,204.0,34.0,136.0,102.0,blue,circle
4.0,1,7.0,4.0,1968.8270092,3.0,part_3,stop,,,,162.0,3.0,216.0,324.0,108.0,162.0,54.0,270.0,yellow,line
1.0,0,7.0,4.0,1568.53508949,3.0,part_3,go,,,,136.0,4.0,102.0,68.0,204.0,136.0,170.0,34.0,cyan,flipped triangle
0.5,1,7.0,3.0,850.916862488,3.0,part_3,stop,,,,132.0,3.0,176.0,88.0,132.0,264.0,44.0,220.0,magenta,square
4.0,0,7.0,2.0,851.245880127,3.0,part_3,go,,,,170.0,5.0,34.0,170.0,68.0,136.0,204.0,102.0,blue,circle
2.0,0,7.0,1.0,851.4249324799999,3.0,part_3,go,,,,176.0,4.0,176.0,88.0,44.0,264.0,220.0,132.0,green,diamond
2.0,1,7.0,5.0,1368.24607849,3.0,part_3,stop,,,,156.0,4.0,39.0,195.0,234.0,78.0,156.0,117.0,gray,cross
0.5,0,7.0,6.0,1134.94801521,3.0,part_3,go,,,,147.0,3.0,49.0,98.0,196.0,294.0,245.0,147.0,white,hexagon
1.0,1,7.0,2.0,1401.9780159,3.0,part_3,stop,,,,156.0,4.0,195.0,156.0,234.0,39.0,78.0,117.0,orange,triangle
4.0,1,7.0,5.0,1568.74895096,3.0,part_3,stop,,,,102.0,3.0,34.0,68.0,170.0,136.0,102.0,204.0,yellow,line
0.5,0,7.0,6.0,1585.49594879,3.0,part_3,go,,,,136.0,4.0,204.0,102.0,34.0,68.0,170.0,136.0,white,hexagon
4.0,0,7.0,2.0,1735.5711460100001,3.0,part_3,go,,,,162.0,3.0,216.0,162.0,324.0,108.0,54.0,270.0,blue,circle
0.5,1,7.0,3.0,1234.89117622,3.0,part_3,stop,,,,156.0,4.0,117.0,39.0,156.0,234.0,78.0,195.0,magenta,square
2.0,0,7.0,4.0,1785.58897972,3.0,part_3,go,,,,162.0,3.0,324.0,108.0,216.0,162.0,54.0,270.0,green,diamond
4.0,1,7.0,1.0,967.490911484,3.0,part_3,stop,,,,147.0,3.0,147.0,245.0,49.0,98.0,196.0,294.0,yellow,line
2.0,0,7.0,1.0,1552.26707458,3.0,part_3,go,,,,156.0,4.0,156.0,234.0,78.0,39.0,195.0,117.0,green,diamond
1.0,0,7.0,2.0,901.335954666,4.0,part_3,go,,,,170.0,5.0,34.0,170.0,68.0,204.0,136.0,102.0,cyan,flipped triangle
0.5,0,7.0,1.0,901.048898697,4.0,part_3,go,,,,156.0,4.0,156.0,39.0,117.0,234.0,195.0,78.0,white,hexagon
1.0,1,7.0,1.0,1218.3740139000001,4.0,part_3,stop,,,,136.0,4.0,136.0,204.0,34.0,68.0,170.0,102.0,orange,triangle
0.5,1,7.0,1.0,934.7150325780001,4.0,part_3,stop,,,,136.0,4.0,136.0,204.0,34.0,68.0,102.0,170.0,magenta,square
0.5,0,7.0,3.0,1335.2079391500001,4.0,part_3,go,,,,162.0,3.0,216.0,324.0,162.0,108.0,54.0,270.0,white,hexagon
1.0,1,7.0,6.0,1618.31092834,4.0,part_3,stop,,,,156.0,4.0,195.0,117.0,39.0,234.0,78.0,156.0,orange,triangle
2.0,0,7.0,3.0,984.813213348,4.0,part_3,go,,,,147.0,3.0,98.0,294.0,147.0,49.0,245.0,196.0,green,diamond
2.0,1,7.0,1.0,967.958211899,4.0,part_3,stop,,,,162.0,3.0,162.0,270.0,216.0,324.0,108.0,54.0,gray,cross
0.5,0,7.0,3.0,1418.14112663,4.0,part_3,go,,,,176.0,4.0,264.0,44.0,176.0,88.0,220.0,132.0,white,hexagon
2.0,0,7.0,5.0,1485.4338169100001,4.0,part_3,go,,,,162.0,3.0,270.0,324.0,54.0,108.0,162.0,216.0,green,diamond
1.0,1,7.0,1.0,934.841871262,4.0,part_3,stop,,,,162.0,3.0,162.0,324.0,270.0,54.0,216.0,108.0,orange,triangle
0.5,0,7.0,1.0,701.112985611,4.0,part_3,go,,,,162.0,3.0,162.0,216.0,324.0,108.0,270.0,54.0,white,hexagon
4.0,0,7.0,1.0,1234.83800888,4.0,part_3,go,,,,176.0,4.0,176.0,132.0,220.0,88.0,44.0,264.0,blue,circle
0.5,0,7.0,3.0,1201.93004608,4.0,part_3,go,,,,136.0,4.0,68.0,204.0,136.0,34.0,102.0,170.0,white,hexagon
2.0,1,7.0,6.0,1535.33196449,4.0,part_3,stop,,,,156.0,4.0,195.0,117.0,234.0,39.0,78.0,156.0,gray,cross
4.0,0,7.0,4.0,1517.9128646899999,4.0,part_3,go,,,,132.0,3.0,44.0,88.0,176.0,132.0,220.0,264.0,blue,circle
0.5,0,7.0,5.0,1485.49485207,4.0,part_3,go,,,,132.0,3.0,44.0,176.0,88.0,264.0,132.0,220.0,white,hexagon
1.0,0,7.0,2.0,634.130954742,4.0,part_3,go,,,,132.0,3.0,44.0,132.0,220.0,88.0,264.0,176.0,cyan,flipped triangle
2.0,1,7.0,3.0,1151.91602707,4.0,part_3,stop,,,,136.0,4.0,170.0,68.0,136.0,34.0,102.0,204.0,gray,cross
1.0,1,7.0,1.0,784.735202789,4.0,part_3,stop,,,,136.0,4.0,136.0,34.0,68.0,102.0,204.0,170.0,orange,triangle
