stepwise_reward_magnitude,paired_with_stopping,quadrant,response,reaction_time,block,which_part,stop_signal_trial_type,left_SSD,right_SSD,accuracy,chosen_bidding_amount,chosen_bidding_level,possible_bid_1,possible_bid_2,possible_bid_3,possible_bid_4,possible_bid_5,possible_bid_6,color_text,shape_text
4.0,1,1.0,1.0,267.497062683,1.0,part_1,,,,,,,,,,,,,blue,square
4.0,1,3.0,3.0,317.40713119500003,1.0,part_1,,,,,,,,,,,,,blue,square
2.0,0,3.0,3.0,333.958864212,1.0,part_1,,,,,,,,,,,,,white,circle
0.5,1,4.0,4.0,300.748109818,1.0,part_1,,,,,,,,,,,,,magenta,hexagon
4.0,0,3.0,3.0,284.351110458,1.0,part_1,,,,,,,,,,,,,yellow,diamond
2.0,1,1.0,1.0,283.764123917,1.0,part_1,,,,,,,,,,,,,gray,flipped triangle
4.0,0,4.0,4.0,284.30891037,1.0,part_1,,,,,,,,,,,,,yellow,diamond
1.0,0,1.0,1.0,251.032829285,1.0,part_1,,,,,,,,,,,,,cyan,cross
0.5,1,2.0,2.0,283.79392623900003,1.0,part_1,,,,,,,,,,,,,magenta,hexagon
0.5,0,4.0,4.0,267.025947571,1.0,part_1,,,,,,,,,,,,,orange,triangle
0.5,1,3.0,3.0,267.26603508,1.0,part_1,,,,,,,,,,,,,magenta,hexagon
4.0,1,4.0,4.0,267.50993728599997,1.0,part_1,,,,,,,,,,,,,blue,square
4.0,0,1.0,1.0,234.208106995,1.0,part_1,,,,,,,,,,,,,yellow,diamond
2.0,1,2.0,2.0,267.62485504200004,1.0,part_1,,,,,,,,,,,,,gray,flipped triangle
1.0,1,3.0,3.0,284.38496589700003,1.0,part_1,,,,,,,,,,,,,green,line
4.0,0,1.0,1.0,234.205961227,1.0,part_1,,,,,,,,,,,,,yellow,diamond
0.5,1,3.0,3.0,300.666093826,1.0,part_1,,,,,,,,,,,,,magenta,hexagon
4.0,1,4.0,4.0,317.30389595,1.0,part_1,,,,,,,,,,,,,blue,square
1.0,1,1.0,1.0,283.736944199,1.0,part_1,,,,,,,,,,,,,green,line
4.0,1,4.0,4.0,283.920049667,1.0,part_1,,,,,,,,,,,,,blue,square
2.0,0,2.0,2.0,267.59815216100003,1.0,part_1,,,,,,,,,,,,,white,circle
4.0,1,4.0,4.0,300.951957703,1.0,part_1,,,,,,,,,,,,,blue,square
4.0,0,4.0,4.0,300.489902496,1.0,part_1,,,,,,,,,,,,,yellow,diamond
1.0,0,1.0,1.0,300.749063492,1.0,part_1,,,,,,,,,,,,,cyan,cross
0.5,0,3.0,3.0,267.556190491,1.0,part_1,,,,,,,,,,,,,orange,triangle
0.5,0,1.0,1.0,300.822973251,1.0,part_1,,,,,,,,,,,,,orange,triangle
0.5,0,3.0,3.0,317.330121994,1.0,part_1,,,,,,,,,,,,,orange,triangle
1.0,0,3.0,3.0,333.65893364,1.0,part_1,,,,,,,,,,,,,cyan,cross
1.0,1,4.0,4.0,333.894968033,1.0,part_1,,,,,,,,,,,,,green,line
2.0,0,2.0,2.0,300.611972809,1.0,part_1,,,,,,,,,,,,,white,circle
2.0,1,2.0,2.0,317.00420379599996,1.0,part_1,,,,,,,,,,,,,gray,flipped triangle
4.0,1,1.0,1.0,300.906896591,1.0,part_1,,,,,,,,,,,,,blue,square
0.5,0,2.0,2.0,284.516096115,1.0,part_1,,,,,,,,,,,,,orange,triangle
1.0,1,2.0,2.0,333.90903472900004,1.0,part_1,,,,,,,,,,,,,green,line
0.5,1,4.0,4.0,301.076173782,1.0,part_1,,,,,,,,,,,,,magenta,hexagon
4.0,0,4.0,4.0,317.542076111,1.0,part_1,,,,,,,,,,,,,yellow,diamond
1.0,1,1.0,1.0,301.16915702800003,1.0,part_1,,,,,,,,,,,,,green,line
1.0,0,4.0,4.0,300.55499076800004,1.0,part_1,,,,,,,,,,,,,cyan,cross
4.0,1,2.0,2.0,284.004926682,1.0,part_1,,,,,,,,,,,,,blue,square
1.0,1,1.0,1.0,300.662994385,1.0,part_1,,,,,,,,,,,,,green,line
0.5,1,2.0,2.0,284.198045731,1.0,part_1,,,,,,,,,,,,,magenta,hexagon
4.0,0,2.0,2.0,300.73094368,1.0,part_1,,,,,,,,,,,,,yellow,diamond
4.0,0,3.0,3.0,317.35086441,1.0,part_1,,,,,,,,,,,,,yellow,diamond
1.0,1,3.0,3.0,317.61097908000005,1.0,part_1,,,,,,,,,,,,,green,line
2.0,0,1.0,1.0,233.92295837400002,1.0,part_1,,,,,,,,,,,,,white,circle
4.0,0,3.0,3.0,283.852100372,1.0,part_1,,,,,,,,,,,,,yellow,diamond
4.0,0,1.0,1.0,317.332029343,1.0,part_1,,,,,,,,,,,,,yellow,diamond
2.0,0,4.0,4.0,284.15894508400004,1.0,part_1,,,,,,,,,,,,,white,circle
1.0,0,4.0,4.0,284.422874451,1.0,part_1,,,,,,,,,,,,,cyan,cross
0.5,1,2.0,2.0,300.522089005,1.0,part_1,,,,,,,,,,,,,magenta,hexagon
0.5,1,4.0,4.0,300.818920135,1.0,part_1,,,,,,,,,,,,,magenta,hexagon
0.5,0,2.0,2.0,300.838947296,1.0,part_1,,,,,,,,,,,,,orange,triangle
1.0,0,1.0,1.0,250.762224197,1.0,part_1,,,,,,,,,,,,,cyan,cross
2.0,1,3.0,3.0,300.486803055,1.0,part_1,,,,,,,,,,,,,gray,flipped triangle
1.0,1,3.0,3.0,317.54899025,1.0,part_1,,,,,,,,,,,,,green,line
4.0,1,2.0,2.0,300.96411704999997,1.0,part_1,,,,,,,,,,,,,blue,square
0.5,0,3.0,3.0,300.570964813,1.0,part_1,,,,,,,,,,,,,orange,triangle
2.0,0,2.0,2.0,283.94913673400004,1.0,part_1,,,,,,,,,,,,,white,circle
1.0,0,1.0,1.0,301.098108292,1.0,part_1,,,,,,,,,,,,,cyan,cross
2.0,1,2.0,2.0,283.699989319,1.0,part_1,,,,,,,,,,,,,gray,flipped triangle
1.0,0,2.0,2.0,300.78411102300004,1.0,part_1,,,,,,,,,,,,,cyan,cross
4.0,1,1.0,1.0,251.061916351,1.0,part_1,,,,,,,,,,,,,blue,square
1.0,0,2.0,2.0,266.87002182000003,1.0,part_1,,,,,,,,,,,,,cyan,cross
1.0,0,4.0,4.0,317.559957504,1.0,part_1,,,,,,,,,,,,,cyan,cross
1.0,1,1.0,1.0,250.277996063,1.0,part_1,,,,,,,,,,,,,green,line
0.5,1,1.0,1.0,283.972978592,1.0,part_1,,,,,,,,,,,,,magenta,hexagon
4.0,0,4.0,4.0,284.105062485,1.0,part_1,,,,,,,,,,,,,yellow,diamond
2.0,1,1.0,1.0,283.94985199,1.0,part_1,,,,,,,,,,,,,gray,flipped triangle
0.5,1,3.0,3.0,284.482002258,1.0,part_1,,,,,,,,,,,,,magenta,hexagon
0.5,1,2.0,2.0,317.648887634,1.0,part_1,,,,,,,,,,,,,magenta,hexagon
4.0,0,2.0,2.0,267.747879028,1.0,part_1,,,,,,,,,,,,,yellow,diamond
0.5,0,4.0,4.0,267.245054245,1.0,part_1,,,,,,,,,,,,,orange,triangle
2.0,0,4.0,4.0,334.14196968100003,1.0,part_1,,,,,,,,,,,,,white,circle
2.0,0,2.0,2.0,300.567150116,1.0,part_1,,,,,,,,,,,,,white,circle
0.5,0,1.0,1.0,267.29106903099995,1.0,part_1,,,,,,,,,,,,,orange,triangle
1.0,1,3.0,3.0,267.56215095500005,1.0,part_1,,,,,,,,,,,,,green,line
4.0,0,1.0,1.0,250.847816467,1.0,part_1,,,,,,,,,,,,,yellow,diamond
0.5,0,2.0,2.0,300.716161728,1.0,part_1,,,,,,,,,,,,,orange,triangle
0.5,1,2.0,2.0,317.293167114,1.0,part_1,,,,,,,,,,,,,magenta,hexagon
2.0,1,3.0,3.0,267.555952072,1.0,part_1,,,,,,,,,,,,,gray,flipped triangle
4.0,1,3.0,3.0,334.42306518600003,1.0,part_1,,,,,,,,,,,,,blue,square
2.0,0,3.0,3.0,317.49701499900004,1.0,part_1,,,,,,,,,,,,,white,circle
1.0,1,1.0,1.0,334.434986115,1.0,part_1,,,,,,,,,,,,,green,line
0.5,0,4.0,4.0,333.53495597799997,1.0,part_1,,,,,,,,,,,,,orange,triangle
2.0,1,2.0,2.0,284.228086472,1.0,part_1,,,,,,,,,,,,,gray,flipped triangle
4.0,1,3.0,3.0,283.76698494000004,1.0,part_1,,,,,,,,,,,,,blue,square
2.0,0,4.0,4.0,333.76502990700004,1.0,part_1,,,,,,,,,,,,,white,circle
2.0,1,1.0,1.0,351.19915008500004,1.0,part_1,,,,,,,,,,,,,gray,flipped triangle
0.5,0,4.0,4.0,284.077882767,1.0,part_1,,,,,,,,,,,,,orange,triangle
2.0,1,2.0,2.0,334.288835526,1.0,part_1,,,,,,,,,,,,,gray,flipped triangle
1.0,1,4.0,4.0,300.20380020100004,1.0,part_1,,,,,,,,,,,,,green,line
0.5,0,3.0,3.0,284.274101257,1.0,part_1,,,,,,,,,,,,,orange,triangle
1.0,1,3.0,3.0,351.374864578,1.0,part_1,,,,,,,,,,,,,green,line
0.5,1,2.0,2.0,334.37204361,1.0,part_1,,,,,,,,,,,,,magenta,hexagon
1.0,1,3.0,3.0,317.447900772,1.0,part_1,,,,,,,,,,,,,green,line
2.0,1,3.0,3.0,317.91400909400005,1.0,part_1,,,,,,,,,,,,,gray,flipped triangle
4.0,0,1.0,1.0,334.076881409,1.0,part_1,,,,,,,,,,,,,yellow,diamond
0.5,1,4.0,4.0,300.98390579200003,1.0,part_1,,,,,,,,,,,,,magenta,hexagon
2.0,0,1.0,1.0,317.620038986,1.0,part_1,,,,,,,,,,,,,white,circle
1.0,0,4.0,4.0,333.914041519,1.0,part_1,,,,,,,,,,,,,cyan,cross
4.0,0,1.0,1.0,651.246070862,2.0,part_1,,,,,,,,,,,,,yellow,diamond
2.0,0,1.0,1.0,334.484100342,2.0,part_1,,,,,,,,,,,,,white,circle
1.0,0,1.0,1.0,317.176818848,2.0,part_1,,,,,,,,,,,,,cyan,cross
0.5,1,3.0,3.0,284.187078476,2.0,part_1,,,,,,,,,,,,,magenta,hexagon
2.0,0,2.0,2.0,317.683935165,2.0,part_1,,,,,,,,,,,,,white,circle
4.0,1,2.0,2.0,351.269960403,2.0,part_1,,,,,,,,,,,,,blue,square
2.0,0,3.0,3.0,300.87518692,2.0,part_1,,,,,,,,,,,,,white,circle
0.5,0,2.0,2.0,334.06496048,2.0,part_1,,,,,,,,,,,,,orange,triangle
1.0,0,3.0,3.0,317.687034607,2.0,part_1,,,,,,,,,,,,,cyan,cross
0.5,1,3.0,3.0,317.327022552,2.0,part_1,,,,,,,,,,,,,magenta,hexagon
4.0,1,4.0,4.0,301.34201049800004,2.0,part_1,,,,,,,,,,,,,blue,square
1.0,0,4.0,4.0,334.285020828,2.0,part_1,,,,,,,,,,,,,cyan,cross
0.5,1,1.0,1.0,284.025192261,2.0,part_1,,,,,,,,,,,,,magenta,hexagon
4.0,1,1.0,1.0,334.007978439,2.0,part_1,,,,,,,,,,,,,blue,square
4.0,1,2.0,2.0,334.491968155,2.0,part_1,,,,,,,,,,,,,blue,square
2.0,0,4.0,4.0,334.16891098,2.0,part_1,,,,,,,,,,,,,white,circle
1.0,0,4.0,4.0,351.082086563,2.0,part_1,,,,,,,,,,,,,cyan,cross
0.5,0,4.0,4.0,350.980997086,2.0,part_1,,,,,,,,,,,,,orange,triangle
1.0,0,4.0,4.0,350.948810577,2.0,part_1,,,,,,,,,,,,,cyan,cross
4.0,0,4.0,4.0,350.705862045,2.0,part_1,,,,,,,,,,,,,yellow,diamond
1.0,0,2.0,2.0,317.49510765099996,2.0,part_1,,,,,,,,,,,,,cyan,cross
1.0,1,3.0,3.0,317.91806221,2.0,part_1,,,,,,,,,,,,,green,line
1.0,0,2.0,2.0,317.66104698199996,2.0,part_1,,,,,,,,,,,,,cyan,cross
2.0,1,3.0,3.0,317.556142807,2.0,part_1,,,,,,,,,,,,,gray,flipped triangle
4.0,1,4.0,4.0,334.112882614,2.0,part_1,,,,,,,,,,,,,blue,square
0.5,0,4.0,4.0,334.102869034,2.0,part_1,,,,,,,,,,,,,orange,triangle
4.0,0,3.0,3.0,300.60505867,2.0,part_1,,,,,,,,,,,,,yellow,diamond
2.0,1,1.0,1.0,350.798130035,2.0,part_1,,,,,,,,,,,,,gray,flipped triangle
0.5,1,2.0,2.0,334.134101868,2.0,part_1,,,,,,,,,,,,,magenta,hexagon
0.5,1,3.0,3.0,317.134857178,2.0,part_1,,,,,,,,,,,,,magenta,hexagon
1.0,1,1.0,1.0,300.74286460900004,2.0,part_1,,,,,,,,,,,,,green,line
4.0,0,4.0,4.0,267.61412620500005,2.0,part_1,,,,,,,,,,,,,yellow,diamond
4.0,1,4.0,4.0,300.565004349,2.0,part_1,,,,,,,,,,,,,blue,square
2.0,1,3.0,3.0,300.476074219,2.0,part_1,,,,,,,,,,,,,gray,flipped triangle
4.0,0,2.0,2.0,317.55113601700003,2.0,part_1,,,,,,,,,,,,,yellow,diamond
1.0,0,3.0,3.0,317.80505180399996,2.0,part_1,,,,,,,,,,,,,cyan,cross
2.0,1,4.0,4.0,334.042072296,2.0,part_1,,,,,,,,,,,,,gray,flipped triangle
4.0,0,2.0,2.0,334.666967392,2.0,part_1,,,,,,,,,,,,,yellow,diamond
0.5,1,1.0,1.0,300.556182861,2.0,part_1,,,,,,,,,,,,,magenta,hexagon
1.0,0,4.0,4.0,284.254074097,2.0,part_1,,,,,,,,,,,,,cyan,cross
1.0,1,1.0,1.0,317.18397140499997,2.0,part_1,,,,,,,,,,,,,green,line
4.0,0,4.0,4.0,300.788879395,2.0,part_1,,,,,,,,,,,,,yellow,diamond
0.5,0,1.0,1.0,250.988960266,2.0,part_1,,,,,,,,,,,,,orange,triangle
0.5,1,2.0,2.0,284.383058548,2.0,part_1,,,,,,,,,,,,,magenta,hexagon
0.5,1,1.0,1.0,317.80695915200005,2.0,part_1,,,,,,,,,,,,,magenta,hexagon
2.0,0,1.0,1.0,300.41694641099997,2.0,part_1,,,,,,,,,,,,,white,circle
2.0,0,3.0,3.0,317.44408607500003,2.0,part_1,,,,,,,,,,,,,white,circle
1.0,0,4.0,4.0,300.549983978,2.0,part_1,,,,,,,,,,,,,cyan,cross
1.0,1,3.0,3.0,334.319114685,2.0,part_1,,,,,,,,,,,,,green,line
0.5,1,1.0,1.0,267.510175705,2.0,part_1,,,,,,,,,,,,,magenta,hexagon
0.5,1,2.0,2.0,300.94599723799996,2.0,part_1,,,,,,,,,,,,,magenta,hexagon
1.0,1,1.0,1.0,367.722988129,2.0,part_1,,,,,,,,,,,,,green,line
0.5,0,2.0,2.0,300.341129303,2.0,part_1,,,,,,,,,,,,,orange,triangle
2.0,0,4.0,4.0,300.507068634,2.0,part_1,,,,,,,,,,,,,white,circle
2.0,1,2.0,2.0,300.976037979,2.0,part_1,,,,,,,,,,,,,gray,flipped triangle
4.0,1,4.0,4.0,316.868066788,2.0,part_1,,,,,,,,,,,,,blue,square
4.0,0,1.0,1.0,267.426967621,2.0,part_1,,,,,,,,,,,,,yellow,diamond
1.0,0,1.0,1.0,283.625125885,2.0,part_1,,,,,,,,,,,,,cyan,cross
4.0,0,3.0,3.0,317.500114441,2.0,part_1,,,,,,,,,,,,,yellow,diamond
1.0,0,1.0,1.0,317.486047745,2.0,part_1,,,,,,,,,,,,,cyan,cross
0.5,1,3.0,3.0,317.422866821,2.0,part_1,,,,,,,,,,,,,magenta,hexagon
1.0,1,1.0,1.0,284.52110290499996,2.0,part_1,,,,,,,,,,,,,green,line
2.0,1,4.0,4.0,317.26598739599996,2.0,part_1,,,,,,,,,,,,,gray,flipped triangle
1.0,1,2.0,2.0,317.142009735,2.0,part_1,,,,,,,,,,,,,green,line
2.0,0,4.0,4.0,300.86183548,2.0,part_1,,,,,,,,,,,,,white,circle
1.0,0,2.0,2.0,300.507068634,2.0,part_1,,,,,,,,,,,,,cyan,cross
2.0,1,2.0,2.0,300.756216049,2.0,part_1,,,,,,,,,,,,,gray,flipped triangle
1.0,1,2.0,2.0,317.111968994,2.0,part_1,,,,,,,,,,,,,green,line
2.0,0,3.0,3.0,267.748832703,2.0,part_1,,,,,,,,,,,,,white,circle
1.0,0,3.0,3.0,300.965070724,2.0,part_1,,,,,,,,,,,,,cyan,cross
4.0,0,3.0,3.0,300.60315132100004,2.0,part_1,,,,,,,,,,,,,yellow,diamond
2.0,0,2.0,2.0,300.508022308,2.0,part_1,,,,,,,,,,,,,white,circle
1.0,0,2.0,2.0,317.625045776,2.0,part_1,,,,,,,,,,,,,cyan,cross
4.0,0,3.0,3.0,317.203044891,2.0,part_1,,,,,,,,,,,,,yellow,diamond
1.0,0,1.0,1.0,284.00707244899996,2.0,part_1,,,,,,,,,,,,,cyan,cross
1.0,1,3.0,3.0,301.170110703,2.0,part_1,,,,,,,,,,,,,green,line
2.0,1,1.0,1.0,234.257936478,2.0,part_1,,,,,,,,,,,,,gray,flipped triangle
0.5,1,3.0,3.0,334.201812744,2.0,part_1,,,,,,,,,,,,,magenta,hexagon
0.5,1,4.0,4.0,351.315021515,2.0,part_1,,,,,,,,,,,,,magenta,hexagon
0.5,1,3.0,3.0,317.44003295899995,2.0,part_1,,,,,,,,,,,,,magenta,hexagon
1.0,1,2.0,2.0,333.727121353,2.0,part_1,,,,,,,,,,,,,green,line
2.0,0,4.0,4.0,300.586938858,2.0,part_1,,,,,,,,,,,,,white,circle
4.0,0,2.0,2.0,334.46097374,2.0,part_1,,,,,,,,,,,,,yellow,diamond
2.0,1,1.0,1.0,284.245014191,2.0,part_1,,,,,,,,,,,,,gray,flipped triangle
2.0,1,3.0,3.0,284.04498100300003,2.0,part_1,,,,,,,,,,,,,gray,flipped triangle
0.5,0,1.0,1.0,350.724935532,2.0,part_1,,,,,,,,,,,,,orange,triangle
4.0,0,1.0,1.0,333.63103866600005,2.0,part_1,,,,,,,,,,,,,yellow,diamond
0.5,0,2.0,2.0,334.097862244,2.0,part_1,,,,,,,,,,,,,orange,triangle
0.5,1,2.0,2.0,300.511837006,2.0,part_1,,,,,,,,,,,,,magenta,hexagon
2.0,1,3.0,3.0,301.174879074,2.0,part_1,,,,,,,,,,,,,gray,flipped triangle
0.5,0,4.0,4.0,317.513942719,2.0,part_1,,,,,,,,,,,,,orange,triangle
2.0,0,2.0,2.0,300.80413818399995,2.0,part_1,,,,,,,,,,,,,white,circle
0.5,1,3.0,3.0,334.592103958,2.0,part_1,,,,,,,,,,,,,magenta,hexagon
2.0,0,1.0,1.0,300.818920135,2.0,part_1,,,,,,,,,,,,,white,circle
4.0,1,4.0,4.0,300.872087479,2.0,part_1,,,,,,,,,,,,,blue,square
2.0,0,1.0,1.0,300.45294761699995,2.0,part_1,,,,,,,,,,,,,white,circle
2.0,0,2.0,2.0,301.66387558,2.0,part_1,,,,,,,,,,,,,white,circle
4.0,1,4.0,4.0,317.16799736,2.0,part_1,,,,,,,,,,,,,blue,square
4.0,1,3.0,3.0,334.49006080600003,2.0,part_1,,,,,,,,,,,,,blue,square
1.0,0,4.0,4.0,317.623138428,2.0,part_1,,,,,,,,,,,,,cyan,cross
0.5,1,3.0,3.0,301.177978516,3.0,part_1,,,,,,,,,,,,,magenta,hexagon
0.5,0,4.0,4.0,317.569971085,3.0,part_1,,,,,,,,,,,,,orange,triangle
2.0,0,3.0,3.0,317.270040512,3.0,part_1,,,,,,,,,,,,,white,circle
1.0,0,2.0,2.0,267.743110657,3.0,part_1,,,,,,,,,,,,,cyan,cross
1.0,0,3.0,3.0,284.549951553,3.0,part_1,,,,,,,,,,,,,cyan,cross
4.0,0,2.0,2.0,284.03592109699997,3.0,part_1,,,,,,,,,,,,,yellow,diamond
1.0,1,1.0,1.0,267.580032349,3.0,part_1,,,,,,,,,,,,,green,line
0.5,1,4.0,4.0,300.66108703599997,3.0,part_1,,,,,,,,,,,,,magenta,hexagon
1.0,1,3.0,3.0,367.560863495,3.0,part_1,,,,,,,,,,,,,green,line
0.5,1,4.0,4.0,317.404031754,3.0,part_1,,,,,,,,,,,,,magenta,hexagon
0.5,0,3.0,3.0,300.525903702,3.0,part_1,,,,,,,,,,,,,orange,triangle
4.0,1,2.0,2.0,234.22908783,3.0,part_1,,,,,,,,,,,,,blue,square
1.0,1,3.0,3.0,350.76713562,3.0,part_1,,,,,,,,,,,,,green,line
2.0,0,4.0,4.0,301.190853119,3.0,part_1,,,,,,,,,,,,,white,circle
2.0,1,1.0,1.0,250.997066498,3.0,part_1,,,,,,,,,,,,,gray,flipped triangle
2.0,0,3.0,3.0,317.116975784,3.0,part_1,,,,,,,,,,,,,white,circle
2.0,1,4.0,4.0,284.183979034,3.0,part_1,,,,,,,,,,,,,gray,flipped triangle
0.5,0,2.0,2.0,317.250013351,3.0,part_1,,,,,,,,,,,,,orange,triangle
0.5,1,1.0,1.0,284.091949463,3.0,part_1,,,,,,,,,,,,,magenta,hexagon
0.5,0,1.0,1.0,317.286014557,3.0,part_1,,,,,,,,,,,,,orange,triangle
2.0,0,2.0,2.0,250.84018707299998,3.0,part_1,,,,,,,,,,,,,white,circle
0.5,1,4.0,4.0,283.99515152,3.0,part_1,,,,,,,,,,,,,magenta,hexagon
2.0,0,2.0,2.0,284.25908088700004,3.0,part_1,,,,,,,,,,,,,white,circle
4.0,0,4.0,4.0,334.635019302,3.0,part_1,,,,,,,,,,,,,yellow,diamond
0.5,0,4.0,4.0,317.773103714,3.0,part_1,,,,,,,,,,,,,orange,triangle
2.0,1,3.0,3.0,317.48580932600004,3.0,part_1,,,,,,,,,,,,,gray,flipped triangle
2.0,1,3.0,3.0,333.819150925,3.0,part_1,,,,,,,,,,,,,gray,flipped triangle
1.0,0,4.0,4.0,317.50583648699995,3.0,part_1,,,,,,,,,,,,,cyan,cross
4.0,0,4.0,4.0,300.821781158,3.0,part_1,,,,,,,,,,,,,yellow,diamond
4.0,0,2.0,2.0,334.192991257,3.0,part_1,,,,,,,,,,,,,yellow,diamond
1.0,0,3.0,3.0,334.130048752,3.0,part_1,,,,,,,,,,,,,cyan,cross
2.0,1,3.0,3.0,334.501981735,3.0,part_1,,,,,,,,,,,,,gray,flipped triangle
4.0,1,1.0,1.0,317.90304184,3.0,part_1,,,,,,,,,,,,,blue,square
1.0,1,3.0,3.0,367.964982986,3.0,part_1,,,,,,,,,,,,,green,line
0.5,0,1.0,1.0,301.297903061,3.0,part_1,,,,,,,,,,,,,orange,triangle
4.0,0,1.0,1.0,301.10120773299997,3.0,part_1,,,,,,,,,,,,,yellow,diamond
4.0,0,1.0,1.0,317.619085312,3.0,part_1,,,,,,,,,,,,,yellow,diamond
4.0,1,4.0,4.0,317.12198257399996,3.0,part_1,,,,,,,,,,,,,blue,square
1.0,0,4.0,4.0,351.233959198,3.0,part_1,,,,,,,,,,,,,cyan,cross
4.0,1,4.0,4.0,317.69108772299995,3.0,part_1,,,,,,,,,,,,,blue,square
2.0,0,4.0,4.0,317.651987076,3.0,part_1,,,,,,,,,,,,,white,circle
4.0,1,1.0,1.0,250.720024109,3.0,part_1,,,,,,,,,,,,,blue,square
1.0,1,3.0,3.0,317.115068436,3.0,part_1,,,,,,,,,,,,,green,line
1.0,1,3.0,3.0,350.879907608,3.0,part_1,,,,,,,,,,,,,green,line
1.0,1,2.0,2.0,317.670106888,3.0,part_1,,,,,,,,,,,,,green,line
4.0,1,1.0,1.0,284.585952759,3.0,part_1,,,,,,,,,,,,,blue,square
4.0,0,2.0,2.0,284.363985062,3.0,part_1,,,,,,,,,,,,,yellow,diamond
2.0,0,1.0,1.0,234.51089858999998,3.0,part_1,,,,,,,,,,,,,white,circle
0.5,0,4.0,4.0,267.46702194200003,3.0,part_1,,,,,,,,,,,,,orange,triangle
1.0,1,1.0,1.0,300.92310905500005,3.0,part_1,,,,,,,,,,,,,green,line
4.0,1,2.0,2.0,267.67706871,3.0,part_1,,,,,,,,,,,,,blue,square
4.0,1,3.0,3.0,317.782878876,3.0,part_1,,,,,,,,,,,,,blue,square
2.0,1,2.0,2.0,317.462921143,3.0,part_1,,,,,,,,,,,,,gray,flipped triangle
1.0,0,2.0,2.0,334.218025208,3.0,part_1,,,,,,,,,,,,,cyan,cross
4.0,1,2.0,2.0,317.56520271299996,3.0,part_1,,,,,,,,,,,,,blue,square
2.0,0,3.0,3.0,317.739009857,3.0,part_1,,,,,,,,,,,,,white,circle
2.0,1,1.0,1.0,317.271947861,3.0,part_1,,,,,,,,,,,,,gray,flipped triangle
4.0,1,1.0,1.0,351.11403465300003,3.0,part_1,,,,,,,,,,,,,blue,square
0.5,0,1.0,1.0,334.29479599,3.0,part_1,,,,,,,,,,,,,orange,triangle
0.5,0,3.0,3.0,317.559957504,3.0,part_1,,,,,,,,,,,,,orange,triangle
2.0,0,2.0,2.0,317.521095276,3.0,part_1,,,,,,,,,,,,,white,circle
4.0,0,1.0,1.0,267.40980148299997,3.0,part_1,,,,,,,,,,,,,yellow,diamond
1.0,0,1.0,1.0,267.12393760699996,3.0,part_1,,,,,,,,,,,,,cyan,cross
1.0,0,3.0,3.0,317.462921143,3.0,part_1,,,,,,,,,,,,,cyan,cross
1.0,0,4.0,4.0,333.976984024,3.0,part_1,,,,,,,,,,,,,cyan,cross
0.5,0,3.0,3.0,284.108877182,3.0,part_1,,,,,,,,,,,,,orange,triangle
1.0,1,2.0,2.0,333.83202552800003,3.0,part_1,,,,,,,,,,,,,green,line
1.0,0,2.0,2.0,334.174871445,3.0,part_1,,,,,,,,,,,,,cyan,cross
0.5,1,3.0,3.0,317.295074463,3.0,part_1,,,,,,,,,,,,,magenta,hexagon
4.0,0,1.0,1.0,267.278909683,3.0,part_1,,,,,,,,,,,,,yellow,diamond
2.0,0,4.0,4.0,317.36612319899996,3.0,part_1,,,,,,,,,,,,,white,circle
0.5,1,2.0,2.0,317.517995834,3.0,part_1,,,,,,,,,,,,,magenta,hexagon
1.0,0,2.0,2.0,334.102153778,3.0,part_1,,,,,,,,,,,,,cyan,cross
0.5,1,4.0,4.0,334.130048752,3.0,part_1,,,,,,,,,,,,,magenta,hexagon
4.0,1,4.0,4.0,334.008932114,3.0,part_1,,,,,,,,,,,,,blue,square
0.5,0,4.0,4.0,301.129102707,3.0,part_1,,,,,,,,,,,,,orange,triangle
0.5,1,1.0,1.0,283.68902206399997,3.0,part_1,,,,,,,,,,,,,magenta,hexagon
4.0,0,3.0,3.0,351.110935211,3.0,part_1,,,,,,,,,,,,,yellow,diamond
2.0,0,4.0,4.0,283.861875534,3.0,part_1,,,,,,,,,,,,,white,circle
0.5,0,4.0,4.0,334.301948547,3.0,part_1,,,,,,,,,,,,,orange,triangle
2.0,0,3.0,3.0,317.546844482,3.0,part_1,,,,,,,,,,,,,white,circle
2.0,0,2.0,2.0,284.321784973,3.0,part_1,,,,,,,,,,,,,white,circle
1.0,1,3.0,3.0,284.524917603,3.0,part_1,,,,,,,,,,,,,green,line
0.5,0,3.0,3.0,300.795078278,3.0,part_1,,,,,,,,,,,,,orange,triangle
1.0,1,1.0,1.0,300.89497566200004,3.0,part_1,,,,,,,,,,,,,green,line
2.0,0,1.0,1.0,333.678007126,3.0,part_1,,,,,,,,,,,,,white,circle
2.0,1,1.0,1.0,350.755929947,3.0,part_1,,,,,,,,,,,,,gray,flipped triangle
2.0,0,4.0,4.0,334.847927094,3.0,part_1,,,,,,,,,,,,,white,circle
1.0,1,2.0,2.0,334.25283432000003,3.0,part_1,,,,,,,,,,,,,green,line
0.5,1,4.0,4.0,334.517002106,3.0,part_1,,,,,,,,,,,,,magenta,hexagon
0.5,1,3.0,3.0,317.56901741,3.0,part_1,,,,,,,,,,,,,magenta,hexagon
2.0,1,1.0,1.0,300.584077835,3.0,part_1,,,,,,,,,,,,,gray,flipped triangle
0.5,1,2.0,2.0,317.462921143,3.0,part_1,,,,,,,,,,,,,magenta,hexagon
4.0,1,2.0,2.0,300.915002823,3.0,part_1,,,,,,,,,,,,,blue,square
1.0,0,2.0,2.0,300.497055054,3.0,part_1,,,,,,,,,,,,,cyan,cross
1.0,1,1.0,1.0,250.66089630100004,3.0,part_1,,,,,,,,,,,,,green,line
1.0,0,1.0,1.0,317.230939865,3.0,part_1,,,,,,,,,,,,,cyan,cross
2.0,1,4.0,4.0,351.08399391200004,3.0,part_1,,,,,,,,,,,,,gray,flipped triangle
1.0,1,2.0,2.0,317.49391555799997,3.0,part_1,,,,,,,,,,,,,green,line
2.0,0,2.0,2.0,351.255893707,3.0,part_1,,,,,,,,,,,,,white,circle
2.0,1,2.0,2.0,350.739955902,4.0,part_1,,,,,,,,,,,,,gray,flipped triangle
1.0,1,2.0,2.0,318.26210022000004,4.0,part_1,,,,,,,,,,,,,green,line
4.0,0,4.0,4.0,366.999149323,4.0,part_1,,,,,,,,,,,,,yellow,diamond
0.5,1,4.0,4.0,351.02200508100003,4.0,part_1,,,,,,,,,,,,,magenta,hexagon
2.0,1,4.0,4.0,334.044933319,4.0,part_1,,,,,,,,,,,,,gray,flipped triangle
2.0,0,3.0,3.0,317.464113235,4.0,part_1,,,,,,,,,,,,,white,circle
1.0,1,2.0,2.0,334.47098732,4.0,part_1,,,,,,,,,,,,,green,line
0.5,0,1.0,1.0,267.112016678,4.0,part_1,,,,,,,,,,,,,orange,triangle
4.0,1,2.0,2.0,267.25411415099995,4.0,part_1,,,,,,,,,,,,,blue,square
1.0,0,1.0,1.0,283.848047256,4.0,part_1,,,,,,,,,,,,,cyan,cross
0.5,1,3.0,3.0,300.627946854,4.0,part_1,,,,,,,,,,,,,magenta,hexagon
1.0,1,2.0,2.0,367.74396896400003,4.0,part_1,,,,,,,,,,,,,green,line
2.0,1,1.0,1.0,300.77886581399997,4.0,part_1,,,,,,,,,,,,,gray,flipped triangle
4.0,1,1.0,1.0,334.077119827,4.0,part_1,,,,,,,,,,,,,blue,square
1.0,1,1.0,1.0,317.72685051,4.0,part_1,,,,,,,,,,,,,green,line
0.5,0,3.0,3.0,367.724895477,4.0,part_1,,,,,,,,,,,,,orange,triangle
1.0,0,1.0,1.0,284.20400619500003,4.0,part_1,,,,,,,,,,,,,cyan,cross
4.0,0,3.0,3.0,233.974933624,4.0,part_1,,,,,,,,,,,,,yellow,diamond
1.0,1,2.0,2.0,334.231138229,4.0,part_1,,,,,,,,,,,,,green,line
4.0,1,2.0,2.0,317.690849304,4.0,part_1,,,,,,,,,,,,,blue,square
1.0,0,1.0,1.0,317.831039429,4.0,part_1,,,,,,,,,,,,,cyan,cross
4.0,0,4.0,4.0,267.30108261099997,4.0,part_1,,,,,,,,,,,,,yellow,diamond
4.0,0,4.0,4.0,334.20109748799996,4.0,part_1,,,,,,,,,,,,,yellow,diamond
4.0,1,4.0,4.0,350.859880447,4.0,part_1,,,,,,,,,,,,,blue,square
0.5,0,3.0,3.0,350.744009018,4.0,part_1,,,,,,,,,,,,,orange,triangle
1.0,1,1.0,1.0,284.35492515600004,4.0,part_1,,,,,,,,,,,,,green,line
0.5,1,3.0,3.0,317.430019379,4.0,part_1,,,,,,,,,,,,,magenta,hexagon
2.0,0,3.0,3.0,351.286172867,4.0,part_1,,,,,,,,,,,,,white,circle
2.0,1,1.0,1.0,300.759077072,4.0,part_1,,,,,,,,,,,,,gray,flipped triangle
4.0,1,2.0,2.0,300.96793174699997,4.0,part_1,,,,,,,,,,,,,blue,square
0.5,0,1.0,1.0,284.233093262,4.0,part_1,,,,,,,,,,,,,orange,triangle
4.0,1,4.0,4.0,267.43006706200003,4.0,part_1,,,,,,,,,,,,,blue,square
4.0,1,3.0,3.0,317.509174347,4.0,part_1,,,,,,,,,,,,,blue,square
0.5,1,3.0,3.0,300.844192505,4.0,part_1,,,,,,,,,,,,,magenta,hexagon
4.0,0,2.0,2.0,300.89807510400004,4.0,part_1,,,,,,,,,,,,,yellow,diamond
2.0,1,3.0,3.0,334.065914154,4.0,part_1,,,,,,,,,,,,,gray,flipped triangle
0.5,0,4.0,4.0,284.048080444,4.0,part_1,,,,,,,,,,,,,orange,triangle
4.0,1,1.0,1.0,267.737865448,4.0,part_1,,,,,,,,,,,,,blue,square
4.0,1,1.0,1.0,300.626039505,4.0,part_1,,,,,,,,,,,,,blue,square
0.5,0,1.0,1.0,284.25908088700004,4.0,part_1,,,,,,,,,,,,,orange,triangle
1.0,1,3.0,3.0,350.65197944600004,4.0,part_1,,,,,,,,,,,,,green,line
1.0,0,2.0,2.0,251.07383728,4.0,part_1,,,,,,,,,,,,,cyan,cross
2.0,0,1.0,1.0,267.325878143,4.0,part_1,,,,,,,,,,,,,white,circle
0.5,0,2.0,2.0,267.161130905,4.0,part_1,,,,,,,,,,,,,orange,triangle
0.5,1,1.0,1.0,217.472076416,4.0,part_1,,,,,,,,,,,,,magenta,hexagon
0.5,0,4.0,4.0,284.671783447,4.0,part_1,,,,,,,,,,,,,orange,triangle
0.5,0,3.0,3.0,317.62909889199994,4.0,part_1,,,,,,,,,,,,,orange,triangle
0.5,0,2.0,2.0,401.037931442,4.0,part_1,,,,,,,,,,,,,orange,triangle
2.0,1,4.0,4.0,334.010839462,4.0,part_1,,,,,,,,,,,,,gray,flipped triangle
2.0,1,2.0,2.0,333.950996399,4.0,part_1,,,,,,,,,,,,,gray,flipped triangle
4.0,0,2.0,2.0,333.98199081399997,4.0,part_1,,,,,,,,,,,,,yellow,diamond
1.0,0,2.0,2.0,217.360973358,4.0,part_1,,,,,,,,,,,,,cyan,cross
4.0,1,3.0,3.0,333.928108215,4.0,part_1,,,,,,,,,,,,,blue,square
1.0,1,2.0,2.0,300.611019135,4.0,part_1,,,,,,,,,,,,,green,line
2.0,0,2.0,2.0,300.819158554,4.0,part_1,,,,,,,,,,,,,white,circle
4.0,0,1.0,1.0,267.632007599,4.0,part_1,,,,,,,,,,,,,yellow,diamond
4.0,0,2.0,2.0,284.154176712,4.0,part_1,,,,,,,,,,,,,yellow,diamond
2.0,1,1.0,1.0,317.439079285,4.0,part_1,,,,,,,,,,,,,gray,flipped triangle
2.0,0,4.0,4.0,300.818920135,4.0,part_1,,,,,,,,,,,,,white,circle
1.0,0,2.0,2.0,284.338951111,4.0,part_1,,,,,,,,,,,,,cyan,cross
1.0,1,4.0,4.0,384.087085724,4.0,part_1,,,,,,,,,,,,,green,line
0.5,0,3.0,3.0,317.78192520100004,4.0,part_1,,,,,,,,,,,,,orange,triangle
1.0,0,1.0,1.0,250.569105148,4.0,part_1,,,,,,,,,,,,,cyan,cross
4.0,1,2.0,2.0,284.48987007100004,4.0,part_1,,,,,,,,,,,,,blue,square
0.5,0,4.0,4.0,317.55805015600004,4.0,part_1,,,,,,,,,,,,,orange,triangle
2.0,1,3.0,3.0,318.042039871,4.0,part_1,,,,,,,,,,,,,gray,flipped triangle
0.5,1,4.0,4.0,334.641933441,4.0,part_1,,,,,,,,,,,,,magenta,hexagon
1.0,0,1.0,1.0,200.339078903,4.0,part_1,,,,,,,,,,,,,cyan,cross
2.0,1,1.0,1.0,333.950042725,4.0,part_1,,,,,,,,,,,,,gray,flipped triangle
4.0,1,4.0,4.0,300.72593689,4.0,part_1,,,,,,,,,,,,,blue,square
0.5,1,4.0,4.0,333.775997162,4.0,part_1,,,,,,,,,,,,,magenta,hexagon
4.0,1,3.0,3.0,317.57903099099997,4.0,part_1,,,,,,,,,,,,,blue,square
0.5,0,4.0,4.0,367.18893051099997,4.0,part_1,,,,,,,,,,,,,orange,triangle
4.0,0,3.0,3.0,300.811767578,4.0,part_1,,,,,,,,,,,,,yellow,diamond
4.0,1,3.0,3.0,301.088809967,4.0,part_1,,,,,,,,,,,,,blue,square
0.5,0,1.0,1.0,251.174211502,4.0,part_1,,,,,,,,,,,,,orange,triangle
4.0,1,4.0,4.0,317.744970322,4.0,part_1,,,,,,,,,,,,,blue,square
2.0,1,3.0,3.0,351.32813453700004,4.0,part_1,,,,,,,,,,,,,gray,flipped triangle
0.5,0,3.0,3.0,334.29408073400003,4.0,part_1,,,,,,,,,,,,,orange,triangle
2.0,0,4.0,4.0,317.310094833,4.0,part_1,,,,,,,,,,,,,white,circle
2.0,1,4.0,4.0,317.80290603599997,4.0,part_1,,,,,,,,,,,,,gray,flipped triangle
4.0,0,1.0,1.0,234.110832214,4.0,part_1,,,,,,,,,,,,,yellow,diamond
0.5,0,4.0,4.0,317.481994629,4.0,part_1,,,,,,,,,,,,,orange,triangle
4.0,1,2.0,2.0,351.274013519,4.0,part_1,,,,,,,,,,,,,blue,square
1.0,1,3.0,3.0,350.686073303,4.0,part_1,,,,,,,,,,,,,green,line
4.0,0,1.0,1.0,284.85298156700003,4.0,part_1,,,,,,,,,,,,,yellow,diamond
2.0,0,1.0,1.0,334.072828293,4.0,part_1,,,,,,,,,,,,,white,circle
4.0,0,2.0,2.0,316.723108292,4.0,part_1,,,,,,,,,,,,,yellow,diamond
2.0,0,2.0,2.0,317.80695915200005,4.0,part_1,,,,,,,,,,,,,white,circle
2.0,1,4.0,4.0,367.47002601599996,4.0,part_1,,,,,,,,,,,,,gray,flipped triangle
2.0,1,3.0,3.0,300.818920135,4.0,part_1,,,,,,,,,,,,,gray,flipped triangle
2.0,1,4.0,4.0,367.56896972699997,4.0,part_1,,,,,,,,,,,,,gray,flipped triangle
1.0,1,3.0,3.0,300.992965698,4.0,part_1,,,,,,,,,,,,,green,line
4.0,0,3.0,3.0,384.365081787,4.0,part_1,,,,,,,,,,,,,yellow,diamond
0.5,1,3.0,3.0,267.518043518,4.0,part_1,,,,,,,,,,,,,magenta,hexagon
2.0,1,2.0,2.0,284.59119796799996,4.0,part_1,,,,,,,,,,,,,gray,flipped triangle
1.0,0,2.0,2.0,317.453145981,4.0,part_1,,,,,,,,,,,,,cyan,cross
2.0,1,4.0,4.0,350.414037704,4.0,part_1,,,,,,,,,,,,,gray,flipped triangle
2.0,1,4.0,4.0,350.855112076,4.0,part_1,,,,,,,,,,,,,gray,flipped triangle
1.0,1,1.0,1.0,267.258882523,4.0,part_1,,,,,,,,,,,,,green,line
0.5,1,6.0,6.0,350.900173187,1.0,part_2,stop,250.0,250.0,3.0,,,,,,,,,magenta,hexagon
1.0,0,6.0,6.0,384.562015533,1.0,part_2,go,250.0,250.0,1.0,,,,,,,,,cyan,cross
2.0,1,6.0,6.0,383.84103775,1.0,part_2,go,250.0,250.0,1.0,,,,,,,,,gray,flipped triangle
1.0,0,5.0,5.0,433.990001678,1.0,part_2,go,250.0,250.0,1.0,,,,,,,,,cyan,cross
1.0,1,5.0,5.0,350.34203529399997,1.0,part_2,stop,250.0,250.0,3.0,,,,,,,,,green,line
1.0,0,5.0,5.0,400.994062424,1.0,part_2,go,250.0,250.0,1.0,,,,,,,,,cyan,cross
1.0,0,5.0,5.0,467.82302856399997,1.0,part_2,go,250.0,250.0,1.0,,,,,,,,,cyan,cross
4.0,0,6.0,6.0,434.658050537,1.0,part_2,go,250.0,250.0,1.0,,,,,,,,,yellow,diamond
0.5,0,5.0,5.0,567.151069641,1.0,part_2,go,250.0,250.0,1.0,,,,,,,,,orange,triangle
4.0,0,6.0,6.0,417.65999794000004,1.0,part_2,go,250.0,250.0,1.0,,,,,,,,,yellow,diamond
2.0,1,6.0,6.0,317.415952682,1.0,part_2,go,250.0,250.0,1.0,,,,,,,,,gray,flipped triangle
4.0,0,6.0,6.0,384.30905342100004,1.0,part_2,go,250.0,250.0,1.0,,,,,,,,,yellow,diamond
0.5,1,5.0,0.0,,1.0,part_2,stop,200.0,250.0,4.0,,,,,,,,,magenta,hexagon
4.0,0,5.0,5.0,467.77510643,1.0,part_2,go,200.0,250.0,1.0,,,,,,,,,yellow,diamond
2.0,0,5.0,5.0,517.879009247,1.0,part_2,go,200.0,250.0,1.0,,,,,,,,,white,circle
2.0,0,5.0,5.0,450.714111328,1.0,part_2,go,200.0,250.0,1.0,,,,,,,,,white,circle
4.0,1,6.0,0.0,,1.0,part_2,stop,200.0,200.0,4.0,,,,,,,,,blue,square
1.0,0,5.0,5.0,350.423812866,1.0,part_2,go,200.0,200.0,1.0,,,,,,,,,cyan,cross
0.5,0,6.0,6.0,451.303958893,1.0,part_2,go,200.0,200.0,1.0,,,,,,,,,orange,triangle
2.0,0,6.0,6.0,584.444046021,1.0,part_2,go,200.0,200.0,1.0,,,,,,,,,white,circle
2.0,0,6.0,6.0,350.446939468,1.0,part_2,go,200.0,200.0,1.0,,,,,,,,,white,circle
0.5,1,6.0,6.0,333.961963654,1.0,part_2,go,200.0,200.0,1.0,,,,,,,,,magenta,hexagon
1.0,0,6.0,6.0,451.086997986,1.0,part_2,go,200.0,200.0,1.0,,,,,,,,,cyan,cross
4.0,0,6.0,6.0,401.068925858,1.0,part_2,go,200.0,200.0,1.0,,,,,,,,,yellow,diamond
4.0,1,6.0,6.0,384.38701629599996,1.0,part_2,stop,200.0,250.0,3.0,,,,,,,,,blue,square
0.5,1,5.0,0.0,,1.0,part_2,stop,250.0,250.0,4.0,,,,,,,,,magenta,hexagon
1.0,0,5.0,5.0,433.860063553,1.0,part_2,go,250.0,250.0,1.0,,,,,,,,,cyan,cross
1.0,1,5.0,0.0,,1.0,part_2,stop,300.0,250.0,4.0,,,,,,,,,green,line
0.5,0,5.0,5.0,567.546844482,1.0,part_2,go,300.0,250.0,1.0,,,,,,,,,orange,triangle
0.5,0,6.0,6.0,434.277057648,1.0,part_2,go,300.0,250.0,1.0,,,,,,,,,orange,triangle
1.0,1,5.0,0.0,,1.0,part_2,stop,350.0,250.0,4.0,,,,,,,,,green,line
1.0,0,5.0,5.0,367.272138596,1.0,part_2,go,350.0,250.0,1.0,,,,,,,,,cyan,cross
0.5,0,6.0,6.0,384.299993515,1.0,part_2,go,350.0,250.0,1.0,,,,,,,,,orange,triangle
1.0,0,6.0,6.0,400.60305595399996,1.0,part_2,go,350.0,250.0,1.0,,,,,,,,,cyan,cross
0.5,1,5.0,5.0,501.440048218,1.0,part_2,stop,400.0,250.0,3.0,,,,,,,,,magenta,hexagon
0.5,1,5.0,0.0,,1.0,part_2,stop,350.0,250.0,4.0,,,,,,,,,magenta,hexagon
1.0,0,6.0,6.0,451.193094254,2.0,part_2,go,350.0,250.0,1.0,,,,,,,,,cyan,cross
1.0,1,6.0,6.0,367.643117905,2.0,part_2,stop,350.0,200.0,3.0,,,,,,,,,green,line
2.0,1,5.0,0.0,,2.0,part_2,stop,400.0,200.0,4.0,,,,,,,,,gray,flipped triangle
4.0,1,6.0,0.0,,2.0,part_2,stop,400.0,150.0,4.0,,,,,,,,,blue,square
4.0,1,5.0,5.0,400.573968887,2.0,part_2,stop,450.0,150.0,3.0,,,,,,,,,blue,square
0.5,0,5.0,5.0,734.610080719,2.0,part_2,go,450.0,150.0,1.0,,,,,,,,,orange,triangle
1.0,0,5.0,5.0,417.486906052,2.0,part_2,go,450.0,150.0,1.0,,,,,,,,,cyan,cross
4.0,1,6.0,0.0,,2.0,part_2,stop,450.0,200.0,4.0,,,,,,,,,blue,square
1.0,0,5.0,5.0,551.302909851,2.0,part_2,go,450.0,200.0,1.0,,,,,,,,,cyan,cross
0.5,0,5.0,5.0,517.951011658,2.0,part_2,go,450.0,200.0,1.0,,,,,,,,,orange,triangle
2.0,0,6.0,6.0,434.792041779,2.0,part_2,go,450.0,200.0,1.0,,,,,,,,,white,circle
2.0,1,5.0,5.0,484.19713974,2.0,part_2,stop,400.0,200.0,3.0,,,,,,,,,gray,flipped triangle
1.0,1,5.0,5.0,601.057052612,2.0,part_2,go,400.0,200.0,1.0,,,,,,,,,green,line
2.0,1,5.0,5.0,634.54413414,2.0,part_2,go,400.0,200.0,1.0,,,,,,,,,gray,flipped triangle
1.0,0,5.0,5.0,567.631959915,2.0,part_2,go,400.0,200.0,1.0,,,,,,,,,cyan,cross
2.0,1,6.0,0.0,,2.0,part_2,stop,400.0,250.0,4.0,,,,,,,,,gray,flipped triangle
0.5,1,6.0,6.0,617.334842682,2.0,part_2,go,400.0,250.0,1.0,,,,,,,,,magenta,hexagon
4.0,1,6.0,0.0,,2.0,part_2,stop,400.0,300.0,4.0,,,,,,,,,blue,square
2.0,1,5.0,5.0,517.48085022,2.0,part_2,stop,350.0,300.0,3.0,,,,,,,,,gray,flipped triangle
4.0,0,5.0,5.0,717.884063721,2.0,part_2,go,350.0,300.0,1.0,,,,,,,,,yellow,diamond
4.0,1,6.0,0.0,,2.0,part_2,stop,350.0,350.0,4.0,,,,,,,,,blue,square
1.0,0,5.0,5.0,684.302091599,2.0,part_2,go,350.0,350.0,1.0,,,,,,,,,cyan,cross
2.0,1,6.0,0.0,,2.0,part_2,stop,350.0,400.0,4.0,,,,,,,,,gray,flipped triangle
0.5,1,6.0,0.0,,2.0,part_2,stop,350.0,450.0,4.0,,,,,,,,,magenta,hexagon
4.0,0,6.0,6.0,717.479944229,2.0,part_2,go,350.0,450.0,1.0,,,,,,,,,yellow,diamond
4.0,0,6.0,6.0,918.085098267,2.0,part_2,go,350.0,450.0,1.0,,,,,,,,,yellow,diamond
4.0,0,5.0,5.0,617.8040504459999,2.0,part_2,go,350.0,450.0,1.0,,,,,,,,,yellow,diamond
2.0,0,5.0,5.0,868.035078049,2.0,part_2,go,350.0,450.0,1.0,,,,,,,,,white,circle
1.0,0,5.0,5.0,501.09791755699996,2.0,part_2,go,350.0,450.0,1.0,,,,,,,,,cyan,cross
2.0,0,5.0,5.0,467.785835266,2.0,part_2,go,350.0,450.0,1.0,,,,,,,,,white,circle
4.0,0,5.0,5.0,467.47803688,2.0,part_2,go,350.0,450.0,1.0,,,,,,,,,yellow,diamond
0.5,1,6.0,6.0,501.32703781099997,2.0,part_2,stop,350.0,500.0,3.0,,,,,,,,,magenta,hexagon
4.0,0,6.0,6.0,634.294986725,2.0,part_2,go,350.0,500.0,1.0,,,,,,,,,yellow,diamond
2.0,1,6.0,6.0,584.068059921,2.0,part_2,stop,350.0,450.0,3.0,,,,,,,,,gray,flipped triangle
0.5,1,6.0,6.0,333.924770355,2.0,part_2,stop,350.0,400.0,3.0,,,,,,,,,magenta,hexagon
0.5,0,6.0,6.0,717.8080081940001,2.0,part_2,go,350.0,400.0,1.0,,,,,,,,,orange,triangle
2.0,0,6.0,6.0,450.865030289,3.0,part_2,go,350.0,400.0,1.0,,,,,,,,,white,circle
1.0,1,6.0,0.0,,3.0,part_2,stop,350.0,350.0,4.0,,,,,,,,,green,line
2.0,0,6.0,6.0,418.193101883,3.0,part_2,go,350.0,350.0,1.0,,,,,,,,,white,circle
4.0,0,6.0,6.0,433.95900726300005,3.0,part_2,go,350.0,350.0,1.0,,,,,,,,,yellow,diamond
2.0,0,6.0,6.0,367.151975632,3.0,part_2,go,350.0,350.0,1.0,,,,,,,,,white,circle
0.5,0,5.0,5.0,500.83398819,3.0,part_2,go,350.0,350.0,1.0,,,,,,,,,orange,triangle
0.5,0,5.0,5.0,400.971889496,3.0,part_2,go,350.0,350.0,1.0,,,,,,,,,orange,triangle
0.5,0,5.0,5.0,350.713014603,3.0,part_2,go,350.0,350.0,1.0,,,,,,,,,orange,triangle
0.5,1,5.0,0.0,,3.0,part_2,stop,300.0,350.0,4.0,,,,,,,,,magenta,hexagon
2.0,1,5.0,0.0,,3.0,part_2,stop,350.0,350.0,4.0,,,,,,,,,gray,flipped triangle
2.0,0,5.0,5.0,467.662096024,3.0,part_2,go,350.0,350.0,1.0,,,,,,,,,white,circle
0.5,0,6.0,6.0,650.814056396,3.0,part_2,go,350.0,350.0,1.0,,,,,,,,,orange,triangle
1.0,0,5.0,5.0,416.880846024,3.0,part_2,go,350.0,350.0,1.0,,,,,,,,,cyan,cross
4.0,1,6.0,6.0,384.129047394,3.0,part_2,stop,350.0,400.0,3.0,,,,,,,,,blue,square
4.0,1,5.0,5.0,484.25412178,3.0,part_2,go,350.0,400.0,1.0,,,,,,,,,blue,square
2.0,1,5.0,5.0,551.09500885,3.0,part_2,stop,400.0,400.0,3.0,,,,,,,,,gray,flipped triangle
0.5,1,5.0,5.0,684.325933456,3.0,part_2,go,400.0,400.0,1.0,,,,,,,,,magenta,hexagon
4.0,0,6.0,6.0,434.180021286,3.0,part_2,go,400.0,400.0,1.0,,,,,,,,,yellow,diamond
1.0,1,6.0,6.0,484.66205596900005,3.0,part_2,stop,400.0,350.0,3.0,,,,,,,,,green,line
4.0,0,6.0,6.0,567.581892014,3.0,part_2,go,400.0,350.0,1.0,,,,,,,,,yellow,diamond
4.0,0,6.0,6.0,568.219184875,3.0,part_2,go,400.0,350.0,1.0,,,,,,,,,yellow,diamond
2.0,1,5.0,0.0,,3.0,part_2,stop,350.0,350.0,4.0,,,,,,,,,gray,flipped triangle
0.5,0,5.0,5.0,534.2350006099999,3.0,part_2,go,350.0,350.0,1.0,,,,,,,,,orange,triangle
1.0,1,5.0,5.0,534.5208644869999,3.0,part_2,stop,400.0,350.0,3.0,,,,,,,,,green,line
2.0,0,5.0,5.0,617.985963821,3.0,part_2,go,400.0,350.0,1.0,,,,,,,,,white,circle
2.0,1,6.0,6.0,568.072080612,3.0,part_2,go,400.0,350.0,1.0,,,,,,,,,gray,flipped triangle
4.0,1,6.0,6.0,417.498826981,3.0,part_2,stop,400.0,300.0,3.0,,,,,,,,,blue,square
4.0,0,6.0,6.0,434.214115143,3.0,part_2,go,400.0,300.0,1.0,,,,,,,,,yellow,diamond
4.0,1,5.0,0.0,,3.0,part_2,stop,350.0,300.0,4.0,,,,,,,,,blue,square
2.0,1,5.0,0.0,,3.0,part_2,stop,400.0,300.0,4.0,,,,,,,,,gray,flipped triangle
0.5,0,6.0,6.0,434.184074402,3.0,part_2,go,400.0,300.0,1.0,,,,,,,,,orange,triangle
1.0,1,6.0,6.0,467.456102371,3.0,part_2,go,400.0,300.0,1.0,,,,,,,,,green,line
2.0,1,5.0,5.0,534.231901169,3.0,part_2,stop,450.0,300.0,3.0,,,,,,,,,gray,flipped triangle
1.0,1,5.0,0.0,,3.0,part_2,stop,400.0,300.0,4.0,,,,,,,,,green,line
1.0,1,6.0,0.0,,3.0,part_2,stop,400.0,250.0,4.0,,,,,,,,,green,line
2.0,1,6.0,0.0,,3.0,part_2,stop,400.0,300.0,4.0,,,,,,,,,gray,flipped triangle
4.0,1,5.0,5.0,434.39507484399996,4.0,part_2,stop,450.0,300.0,3.0,,,,,,,,,blue,square
2.0,0,6.0,6.0,534.483909607,4.0,part_2,go,450.0,300.0,1.0,,,,,,,,,white,circle
0.5,0,6.0,6.0,367.578029633,4.0,part_2,go,450.0,300.0,1.0,,,,,,,,,orange,triangle
0.5,1,5.0,5.0,567.837953568,4.0,part_2,stop,400.0,300.0,3.0,,,,,,,,,magenta,hexagon
1.0,1,5.0,0.0,,4.0,part_2,stop,350.0,300.0,4.0,,,,,,,,,green,line
1.0,0,5.0,5.0,517.374038696,4.0,part_2,go,350.0,300.0,1.0,,,,,,,,,cyan,cross
0.5,1,6.0,0.0,,4.0,part_2,stop,350.0,350.0,4.0,,,,,,,,,magenta,hexagon
2.0,1,5.0,5.0,517.529964447,4.0,part_2,stop,400.0,350.0,3.0,,,,,,,,,gray,flipped triangle
2.0,0,6.0,6.0,584.158182144,4.0,part_2,go,400.0,350.0,1.0,,,,,,,,,white,circle
2.0,0,6.0,6.0,450.871944427,4.0,part_2,go,400.0,350.0,1.0,,,,,,,,,white,circle
1.0,1,6.0,6.0,484.033107758,4.0,part_2,go,400.0,350.0,1.0,,,,,,,,,green,line
1.0,0,5.0,5.0,667.5889492030001,4.0,part_2,go,400.0,350.0,1.0,,,,,,,,,cyan,cross
4.0,0,6.0,6.0,568.034887314,4.0,part_2,go,400.0,350.0,1.0,,,,,,,,,yellow,diamond
4.0,0,6.0,6.0,350.636959076,4.0,part_2,go,400.0,350.0,1.0,,,,,,,,,yellow,diamond
2.0,1,5.0,5.0,450.99186897299995,4.0,part_2,go,400.0,350.0,1.0,,,,,,,,,gray,flipped triangle
0.5,1,6.0,0.0,,4.0,part_2,stop,400.0,400.0,4.0,,,,,,,,,magenta,hexagon
0.5,0,6.0,6.0,634.253978729,4.0,part_2,go,400.0,400.0,1.0,,,,,,,,,orange,triangle
1.0,0,6.0,6.0,567.493915558,4.0,part_2,go,400.0,400.0,1.0,,,,,,,,,cyan,cross
2.0,0,6.0,6.0,567.842960358,4.0,part_2,go,400.0,400.0,1.0,,,,,,,,,white,circle
0.5,0,5.0,5.0,600.84605217,4.0,part_2,go,400.0,400.0,1.0,,,,,,,,,orange,triangle
0.5,0,6.0,6.0,467.83494949299995,4.0,part_2,go,400.0,400.0,1.0,,,,,,,,,orange,triangle
2.0,0,5.0,5.0,701.061964035,4.0,part_2,go,400.0,400.0,1.0,,,,,,,,,white,circle
4.0,0,6.0,6.0,417.51503944399997,4.0,part_2,go,400.0,400.0,1.0,,,,,,,,,yellow,diamond
0.5,1,5.0,5.0,501.340866089,4.0,part_2,stop,350.0,400.0,3.0,,,,,,,,,magenta,hexagon
1.0,1,5.0,0.0,,4.0,part_2,stop,300.0,400.0,4.0,,,,,,,,,green,line
4.0,1,5.0,5.0,500.923871994,4.0,part_2,go,300.0,400.0,1.0,,,,,,,,,blue,square
0.5,0,6.0,6.0,484.60698127700005,4.0,part_2,go,300.0,400.0,1.0,,,,,,,,,orange,triangle
4.0,0,5.0,5.0,451.360940933,4.0,part_2,go,300.0,400.0,1.0,,,,,,,,,yellow,diamond
2.0,0,5.0,5.0,584.458112717,4.0,part_2,go,300.0,400.0,1.0,,,,,,,,,white,circle
1.0,1,5.0,5.0,584.464073181,4.0,part_2,go,300.0,400.0,1.0,,,,,,,,,green,line
4.0,1,6.0,6.0,417.831897736,4.0,part_2,stop,300.0,450.0,3.0,,,,,,,,,blue,square
2.0,0,6.0,6.0,517.2560215000001,4.0,part_2,go,300.0,450.0,1.0,,,,,,,,,white,circle
2.0,1,5.0,0.0,,4.0,part_2,stop,350.0,450.0,4.0,,,,,,,,,gray,flipped triangle
0.5,1,5.0,5.0,417.999982834,4.0,part_2,go,350.0,450.0,1.0,,,,,,,,,magenta,hexagon
2.0,0,5.0,5.0,633.827924728,4.0,part_2,go,350.0,450.0,1.0,,,,,,,,,white,circle
1.0,0,6.0,6.0,451.002836227,4.0,part_2,go,350.0,450.0,1.0,,,,,,,,,cyan,cross
1.0,1,5.0,5.0,434.501171112,5.0,part_2,go,350.0,450.0,1.0,,,,,,,,,green,line
4.0,0,5.0,5.0,533.8921546939999,5.0,part_2,go,350.0,450.0,1.0,,,,,,,,,yellow,diamond
4.0,1,5.0,5.0,384.525060654,5.0,part_2,stop,400.0,450.0,3.0,,,,,,,,,blue,square
4.0,0,5.0,5.0,501.10411644,5.0,part_2,go,400.0,450.0,1.0,,,,,,,,,yellow,diamond
2.0,0,6.0,6.0,550.837993622,5.0,part_2,go,400.0,450.0,1.0,,,,,,,,,white,circle
0.5,1,6.0,0.0,,5.0,part_2,stop,400.0,400.0,4.0,,,,,,,,,magenta,hexagon
0.5,0,5.0,5.0,601.546049118,5.0,part_2,go,400.0,400.0,1.0,,,,,,,,,orange,triangle
1.0,0,6.0,6.0,467.658042908,5.0,part_2,go,400.0,400.0,1.0,,,,,,,,,cyan,cross
4.0,0,5.0,5.0,483.99901390099996,5.0,part_2,go,400.0,400.0,1.0,,,,,,,,,yellow,diamond
2.0,1,6.0,6.0,367.069005966,5.0,part_2,stop,400.0,450.0,3.0,,,,,,,,,gray,flipped triangle
1.0,0,5.0,5.0,500.94294547999993,5.0,part_2,go,400.0,450.0,1.0,,,,,,,,,cyan,cross
4.0,1,6.0,6.0,551.0420799259999,5.0,part_2,go,400.0,450.0,1.0,,,,,,,,,blue,square
4.0,1,5.0,0.0,,5.0,part_2,stop,350.0,450.0,4.0,,,,,,,,,blue,square
4.0,0,5.0,5.0,533.982992172,5.0,part_2,go,350.0,450.0,1.0,,,,,,,,,yellow,diamond
0.5,0,5.0,5.0,550.832986832,5.0,part_2,go,350.0,450.0,1.0,,,,,,,,,orange,triangle
4.0,0,6.0,6.0,551.21088028,5.0,part_2,go,350.0,450.0,1.0,,,,,,,,,yellow,diamond
4.0,0,5.0,5.0,551.130056381,5.0,part_2,go,350.0,450.0,1.0,,,,,,,,,yellow,diamond
0.5,1,6.0,6.0,401.35121345500005,5.0,part_2,stop,350.0,400.0,3.0,,,,,,,,,magenta,hexagon
1.0,1,5.0,0.0,,5.0,part_2,stop,400.0,400.0,4.0,,,,,,,,,green,line
1.0,0,5.0,5.0,584.717035294,5.0,part_2,go,400.0,400.0,1.0,,,,,,,,,cyan,cross
0.5,0,6.0,6.0,651.120901108,5.0,part_2,go,400.0,400.0,1.0,,,,,,,,,orange,triangle
0.5,1,5.0,5.0,668.4541702270001,5.0,part_2,go,400.0,400.0,1.0,,,,,,,,,magenta,hexagon
4.0,1,5.0,5.0,567.489147186,5.0,part_2,stop,450.0,400.0,3.0,,,,,,,,,blue,square
4.0,0,5.0,5.0,767.879962921,5.0,part_2,go,450.0,400.0,1.0,,,,,,,,,yellow,diamond
4.0,1,6.0,6.0,617.522954941,5.0,part_2,go,450.0,400.0,1.0,,,,,,,,,blue,square
0.5,0,5.0,5.0,617.918968201,5.0,part_2,go,450.0,400.0,1.0,,,,,,,,,orange,triangle
4.0,1,6.0,6.0,617.72608757,5.0,part_2,go,450.0,400.0,1.0,,,,,,,,,blue,square
0.5,1,6.0,6.0,534.515142441,5.0,part_2,go,450.0,400.0,1.0,,,,,,,,,magenta,hexagon
4.0,0,5.0,5.0,634.8488330839999,5.0,part_2,go,450.0,400.0,1.0,,,,,,,,,yellow,diamond
1.0,0,6.0,6.0,584.4810009,5.0,part_2,go,450.0,400.0,1.0,,,,,,,,,cyan,cross
2.0,1,6.0,0.0,,5.0,part_2,stop,450.0,350.0,4.0,,,,,,,,,gray,flipped triangle
1.0,0,6.0,6.0,617.849826813,5.0,part_2,go,450.0,350.0,1.0,,,,,,,,,cyan,cross
0.5,1,6.0,0.0,,5.0,part_2,stop,450.0,400.0,4.0,,,,,,,,,magenta,hexagon
1.0,1,6.0,6.0,667.91510582,5.0,part_2,go,450.0,400.0,1.0,,,,,,,,,green,line
4.0,1,6.0,6.0,701.323986053,5.0,part_2,go,450.0,400.0,1.0,,,,,,,,,blue,square
4.0,0,6.0,6.0,534.503936768,5.0,part_2,go,450.0,400.0,1.0,,,,,,,,,yellow,diamond
4.0,1,6.0,6.0,584.465026855,6.0,part_2,stop,450.0,450.0,3.0,,,,,,,,,blue,square
0.5,0,5.0,5.0,617.636919022,6.0,part_2,go,450.0,450.0,1.0,,,,,,,,,orange,triangle
4.0,1,6.0,0.0,,6.0,part_2,stop,450.0,400.0,4.0,,,,,,,,,blue,square
1.0,0,5.0,5.0,717.878103256,6.0,part_2,go,450.0,400.0,1.0,,,,,,,,,cyan,cross
0.5,0,5.0,5.0,634.7401142120001,6.0,part_2,go,450.0,400.0,1.0,,,,,,,,,orange,triangle
1.0,1,6.0,6.0,668.002128601,6.0,part_2,go,450.0,400.0,1.0,,,,,,,,,green,line
4.0,1,5.0,5.0,417.304039001,6.0,part_2,stop,400.0,400.0,3.0,,,,,,,,,blue,square
1.0,1,5.0,0.0,,6.0,part_2,stop,350.0,400.0,4.0,,,,,,,,,green,line
1.0,1,5.0,0.0,,6.0,part_2,stop,400.0,400.0,4.0,,,,,,,,,green,line
0.5,1,6.0,6.0,534.1360569,6.0,part_2,stop,400.0,450.0,3.0,,,,,,,,,magenta,hexagon
2.0,0,6.0,6.0,534.408092499,6.0,part_2,go,400.0,450.0,1.0,,,,,,,,,white,circle
2.0,0,5.0,5.0,450.880050659,6.0,part_2,go,400.0,450.0,1.0,,,,,,,,,white,circle
2.0,1,5.0,5.0,617.782115936,6.0,part_2,go,400.0,450.0,1.0,,,,,,,,,gray,flipped triangle
0.5,0,6.0,6.0,551.194906235,6.0,part_2,go,400.0,450.0,1.0,,,,,,,,,orange,triangle
1.0,0,6.0,6.0,451.42006874099997,6.0,part_2,go,400.0,450.0,1.0,,,,,,,,,cyan,cross
4.0,0,6.0,6.0,450.757980347,6.0,part_2,go,400.0,450.0,1.0,,,,,,,,,yellow,diamond
4.0,1,5.0,5.0,617.825984955,6.0,part_2,stop,450.0,450.0,3.0,,,,,,,,,blue,square
1.0,0,6.0,6.0,634.477853775,6.0,part_2,go,450.0,450.0,1.0,,,,,,,,,cyan,cross
2.0,1,5.0,5.0,501.126050949,6.0,part_2,stop,400.0,450.0,3.0,,,,,,,,,gray,flipped triangle
1.0,0,5.0,5.0,767.757892609,6.0,part_2,go,400.0,450.0,1.0,,,,,,,,,cyan,cross
2.0,0,5.0,5.0,550.7719516750001,6.0,part_2,go,400.0,450.0,1.0,,,,,,,,,white,circle
0.5,1,6.0,0.0,,6.0,part_2,stop,400.0,400.0,4.0,,,,,,,,,magenta,hexagon
0.5,0,5.0,5.0,434.506893158,6.0,part_2,go,400.0,400.0,1.0,,,,,,,,,orange,triangle
2.0,0,5.0,5.0,651.484012604,6.0,part_2,go,400.0,400.0,1.0,,,,,,,,,white,circle
2.0,0,6.0,6.0,717.829942703,6.0,part_2,go,400.0,400.0,1.0,,,,,,,,,white,circle
0.5,1,6.0,0.0,,6.0,part_2,stop,400.0,450.0,4.0,,,,,,,,,magenta,hexagon
0.5,1,5.0,0.0,,6.0,part_2,stop,350.0,450.0,4.0,,,,,,,,,magenta,hexagon
0.5,1,5.0,5.0,550.8232116700001,6.0,part_2,stop,400.0,450.0,3.0,,,,,,,,,magenta,hexagon
1.0,1,6.0,6.0,651.48806572,6.0,part_2,stop,400.0,500.0,3.0,,,,,,,,,green,line
4.0,1,6.0,0.0,,6.0,part_2,stop,400.0,450.0,4.0,,,,,,,,,blue,square
2.0,0,6.0,6.0,567.692995071,6.0,part_2,go,400.0,450.0,1.0,,,,,,,,,white,circle
0.5,1,6.0,0.0,,6.0,part_2,stop,400.0,500.0,4.0,,,,,,,,,magenta,hexagon
0.5,0,5.0,5.0,617.636919022,6.0,part_2,go,400.0,500.0,1.0,,,,,,,,,orange,triangle
4.0,0,5.0,5.0,584.5420360569999,6.0,part_2,go,400.0,500.0,1.0,,,,,,,,,yellow,diamond
2.0,1,6.0,6.0,701.340198517,6.0,part_2,stop,400.0,550.0,3.0,,,,,,,,,gray,flipped triangle
1.0,1,6.0,6.0,600.867986679,6.0,part_2,stop,400.0,500.0,3.0,,,,,,,,,green,line
0.5,1,5.0,0.0,,7.0,part_2,stop,350.0,500.0,4.0,,,,,,,,,magenta,hexagon
2.0,0,6.0,6.0,450.975894928,7.0,part_2,go,350.0,500.0,1.0,,,,,,,,,white,circle
4.0,1,5.0,0.0,,7.0,part_2,stop,400.0,500.0,4.0,,,,,,,,,blue,square
2.0,1,6.0,0.0,,7.0,part_2,stop,400.0,450.0,4.0,,,,,,,,,gray,flipped triangle
2.0,0,6.0,6.0,717.751026154,7.0,part_2,go,400.0,450.0,1.0,,,,,,,,,white,circle
0.5,1,6.0,0.0,,7.0,part_2,stop,400.0,500.0,4.0,,,,,,,,,magenta,hexagon
2.0,1,5.0,5.0,717.420101166,7.0,part_2,go,400.0,500.0,1.0,,,,,,,,,gray,flipped triangle
4.0,1,6.0,6.0,634.875059128,7.0,part_2,stop,400.0,550.0,3.0,,,,,,,,,blue,square
1.0,1,5.0,0.0,,7.0,part_2,stop,450.0,550.0,4.0,,,,,,,,,green,line
0.5,1,5.0,0.0,,7.0,part_2,stop,500.0,550.0,4.0,,,,,,,,,magenta,hexagon
4.0,1,6.0,6.0,784.731864929,7.0,part_2,go,500.0,550.0,1.0,,,,,,,,,blue,square
4.0,0,6.0,6.0,750.7288455959999,7.0,part_2,go,500.0,550.0,1.0,,,,,,,,,yellow,diamond
2.0,1,6.0,0.0,,7.0,part_2,stop,500.0,500.0,4.0,,,,,,,,,gray,flipped triangle
4.0,1,6.0,0.0,,7.0,part_2,stop,500.0,550.0,4.0,,,,,,,,,blue,square
2.0,1,5.0,5.0,750.936985016,7.0,part_2,go,500.0,550.0,1.0,,,,,,,,,gray,flipped triangle
4.0,1,6.0,6.0,784.5709323880001,7.0,part_2,stop,500.0,600.0,3.0,,,,,,,,,blue,square
1.0,1,5.0,0.0,,7.0,part_2,stop,550.0,600.0,4.0,,,,,,,,,green,line
4.0,1,6.0,6.0,968.497037888,7.0,part_2,go,550.0,600.0,1.0,,,,,,,,,blue,square
4.0,1,5.0,5.0,718.207120895,7.0,part_2,stop,600.0,600.0,3.0,,,,,,,,,blue,square
1.0,0,5.0,5.0,867.455005646,7.0,part_2,go,600.0,600.0,1.0,,,,,,,,,cyan,cross
0.5,1,6.0,6.0,684.651851654,7.0,part_2,go,600.0,600.0,1.0,,,,,,,,,magenta,hexagon
1.0,1,5.0,5.0,617.532014847,7.0,part_2,stop,550.0,600.0,3.0,,,,,,,,,green,line
4.0,1,6.0,0.0,,7.0,part_2,stop,550.0,550.0,4.0,,,,,,,,,blue,square
0.5,0,6.0,6.0,884.243965149,7.0,part_2,go,550.0,550.0,1.0,,,,,,,,,orange,triangle
4.0,0,6.0,6.0,868.067979813,7.0,part_2,go,550.0,550.0,1.0,,,,,,,,,yellow,diamond
1.0,0,5.0,5.0,667.851924896,7.0,part_2,go,550.0,550.0,1.0,,,,,,,,,cyan,cross
1.0,0,5.0,5.0,718.3020114899999,7.0,part_2,go,550.0,550.0,1.0,,,,,,,,,cyan,cross
2.0,1,6.0,6.0,634.088039398,7.0,part_2,stop,550.0,600.0,3.0,,,,,,,,,gray,flipped triangle
4.0,0,5.0,5.0,601.0360717770001,7.0,part_2,go,550.0,600.0,1.0,,,,,,,,,yellow,diamond
2.0,1,5.0,0.0,,7.0,part_2,stop,500.0,600.0,4.0,,,,,,,,,gray,flipped triangle
1.0,0,6.0,6.0,650.862932205,7.0,part_2,go,500.0,600.0,1.0,,,,,,,,,cyan,cross
1.0,0,5.0,5.0,717.18788147,7.0,part_2,go,500.0,600.0,1.0,,,,,,,,,cyan,cross
0.5,0,6.0,6.0,534.317970276,7.0,part_2,go,500.0,600.0,1.0,,,,,,,,,orange,triangle
0.5,1,5.0,5.0,501.440048218,7.0,part_2,go,500.0,600.0,1.0,,,,,,,,,magenta,hexagon
4.0,1,5.0,5.0,601.067066193,7.0,part_2,go,500.0,600.0,1.0,,,,,,,,,blue,square
1.0,1,5.0,0.0,,7.0,part_2,stop,550.0,600.0,4.0,,,,,,,,,green,line
2.0,1,6.0,6.0,434.13901329,8.0,part_2,stop,550.0,550.0,3.0,,,,,,,,,gray,flipped triangle
4.0,1,5.0,5.0,601.515054703,8.0,part_2,stop,600.0,550.0,3.0,,,,,,,,,blue,square
1.0,1,5.0,5.0,600.994825363,8.0,part_2,stop,550.0,550.0,3.0,,,,,,,,,green,line
0.5,0,5.0,5.0,734.839200974,8.0,part_2,go,550.0,550.0,1.0,,,,,,,,,orange,triangle
1.0,1,5.0,0.0,,8.0,part_2,stop,500.0,550.0,4.0,,,,,,,,,green,line
1.0,0,5.0,5.0,600.8338928219999,8.0,part_2,go,500.0,550.0,1.0,,,,,,,,,cyan,cross
2.0,1,6.0,6.0,617.9151535029999,8.0,part_2,stop,500.0,500.0,3.0,,,,,,,,,gray,flipped triangle
2.0,0,5.0,5.0,701.319932938,8.0,part_2,go,500.0,500.0,1.0,,,,,,,,,white,circle
0.5,0,6.0,6.0,617.551803589,8.0,part_2,go,500.0,500.0,1.0,,,,,,,,,orange,triangle
1.0,1,6.0,6.0,467.777013779,8.0,part_2,go,500.0,500.0,1.0,,,,,,,,,green,line
2.0,1,6.0,6.0,567.4970149989999,8.0,part_2,stop,500.0,450.0,3.0,,,,,,,,,gray,flipped triangle
2.0,0,6.0,6.0,584.5210552220001,8.0,part_2,go,500.0,450.0,1.0,,,,,,,,,white,circle
1.0,1,6.0,6.0,484.339952469,8.0,part_2,stop,500.0,400.0,3.0,,,,,,,,,green,line
0.5,0,5.0,5.0,751.585006714,8.0,part_2,go,500.0,400.0,1.0,,,,,,,,,orange,triangle
2.0,1,5.0,5.0,434.003829956,8.0,part_2,stop,550.0,400.0,3.0,,,,,,,,,gray,flipped triangle
2.0,0,6.0,6.0,617.666959763,8.0,part_2,go,550.0,400.0,1.0,,,,,,,,,white,circle
1.0,1,6.0,0.0,,8.0,part_2,stop,550.0,350.0,4.0,,,,,,,,,green,line
2.0,1,5.0,5.0,634.167194366,8.0,part_2,stop,500.0,350.0,3.0,,,,,,,,,gray,flipped triangle
1.0,0,6.0,6.0,784.8279476170001,8.0,part_2,go,500.0,350.0,1.0,,,,,,,,,cyan,cross
0.5,1,5.0,5.0,651.4680385590001,8.0,part_2,go,500.0,350.0,1.0,,,,,,,,,magenta,hexagon
4.0,0,6.0,6.0,550.885915756,8.0,part_2,go,500.0,350.0,1.0,,,,,,,,,yellow,diamond
0.5,0,5.0,5.0,400.61092376700003,8.0,part_2,go,500.0,350.0,1.0,,,,,,,,,orange,triangle
2.0,0,5.0,5.0,433.855056763,8.0,part_2,go,500.0,350.0,1.0,,,,,,,,,white,circle
0.5,0,6.0,6.0,617.899894714,8.0,part_2,go,500.0,350.0,1.0,,,,,,,,,orange,triangle
2.0,0,6.0,6.0,467.65303611800005,8.0,part_2,go,500.0,350.0,1.0,,,,,,,,,white,circle
0.5,1,6.0,0.0,,8.0,part_2,stop,500.0,400.0,4.0,,,,,,,,,magenta,hexagon
1.0,1,6.0,0.0,,8.0,part_2,stop,500.0,450.0,4.0,,,,,,,,,green,line
1.0,1,5.0,5.0,634.44018364,8.0,part_2,stop,450.0,450.0,3.0,,,,,,,,,green,line
0.5,1,5.0,0.0,,8.0,part_2,stop,400.0,450.0,4.0,,,,,,,,,magenta,hexagon
2.0,0,5.0,5.0,634.499788284,8.0,part_2,go,400.0,450.0,1.0,,,,,,,,,white,circle
4.0,0,5.0,5.0,634.7010135649999,8.0,part_2,go,400.0,450.0,1.0,,,,,,,,,yellow,diamond
2.0,0,6.0,6.0,500.773906708,8.0,part_2,go,400.0,450.0,1.0,,,,,,,,,white,circle
0.5,0,5.0,5.0,600.7769107820001,8.0,part_2,go,400.0,450.0,1.0,,,,,,,,,orange,triangle
1.0,1,5.0,5.0,583.911895752,8.0,part_2,stop,450.0,450.0,3.0,,,,,,,,,green,line
2.0,1,6.0,6.0,684.293985367,8.0,part_2,go,450.0,450.0,1.0,,,,,,,,,gray,flipped triangle
1.0,1,6.0,6.0,634.075880051,8.0,part_2,go,450.0,450.0,1.0,,,,,,,,,green,line
4.0,0,7.0,,,1.0,part_3,go,,,,0.0,,108.0,324.0,162.0,216.0,270.0,54.0,yellow,diamond
4.0,0,7.0,5.0,2703.36699486,1.0,part_3,go,,,,220.0,5.0,264.0,44.0,88.0,132.0,220.0,176.0,yellow,diamond
0.5,0,7.0,2.0,2202.55899429,1.0,part_3,go,,,,34.0,1.0,204.0,34.0,136.0,102.0,68.0,170.0,orange,triangle
1.0,0,7.0,2.0,1935.54186821,1.0,part_3,go,,,,78.0,2.0,39.0,78.0,156.0,195.0,234.0,117.0,cyan,cross
1.0,1,7.0,3.0,1468.81699562,1.0,part_3,stop,,,,132.0,3.0,176.0,88.0,132.0,264.0,44.0,220.0,green,line
0.5,1,7.0,5.0,2652.6198387100003,1.0,part_3,stop,,,,102.0,3.0,34.0,170.0,136.0,68.0,102.0,204.0,magenta,hexagon
2.0,0,7.0,1.0,3337.18085289,1.0,part_3,go,,,,44.0,1.0,44.0,220.0,132.0,88.0,176.0,264.0,white,circle
4.0,1,7.0,4.0,3070.71995735,1.0,part_3,stop,,,,234.0,6.0,117.0,156.0,78.0,234.0,39.0,195.0,blue,square
2.0,1,7.0,2.0,2152.79889107,1.0,part_3,stop,,,,204.0,6.0,68.0,204.0,170.0,102.0,136.0,34.0,gray,flipped triangle
0.5,0,7.0,,,1.0,part_3,go,,,,0.0,,270.0,162.0,54.0,108.0,216.0,324.0,orange,triangle
1.0,0,7.0,4.0,2135.95199585,1.0,part_3,go,,,,49.0,1.0,98.0,294.0,147.0,49.0,196.0,245.0,cyan,cross
0.5,0,7.0,2.0,2369.90213394,1.0,part_3,go,,,,108.0,2.0,324.0,108.0,54.0,162.0,216.0,270.0,orange,triangle
4.0,1,7.0,5.0,2319.5810318,1.0,part_3,stop,,,,294.0,6.0,196.0,98.0,49.0,147.0,294.0,245.0,blue,square
4.0,1,7.0,2.0,2402.5990963,1.0,part_3,stop,,,,264.0,6.0,88.0,264.0,220.0,44.0,132.0,176.0,blue,square
0.5,0,7.0,3.0,2419.8389053299998,1.0,part_3,go,,,,98.0,2.0,49.0,294.0,98.0,147.0,245.0,196.0,orange,triangle
0.5,1,7.0,2.0,3003.07011604,1.0,part_3,stop,,,,136.0,4.0,34.0,136.0,68.0,102.0,170.0,204.0,magenta,hexagon
0.5,0,7.0,3.0,2419.99220848,1.0,part_3,go,,,,117.0,3.0,156.0,195.0,117.0,39.0,78.0,234.0,orange,triangle
2.0,1,7.0,6.0,4421.76508904,1.0,part_3,stop,,,,147.0,3.0,98.0,49.0,196.0,245.0,294.0,147.0,gray,flipped triangle
2.0,0,7.0,2.0,1502.0699501000001,1.0,part_3,go,,,,34.0,1.0,102.0,34.0,170.0,136.0,68.0,204.0,white,circle
4.0,1,7.0,3.0,2102.8180122400004,1.0,part_3,stop,,,,204.0,6.0,68.0,170.0,204.0,102.0,34.0,136.0,blue,square
2.0,1,7.0,5.0,2770.0521946,2.0,part_3,stop,,,,156.0,4.0,117.0,195.0,78.0,39.0,156.0,234.0,gray,flipped triangle
0.5,1,7.0,1.0,2419.63791847,2.0,part_3,stop,,,,88.0,2.0,88.0,132.0,176.0,44.0,220.0,264.0,magenta,hexagon
4.0,1,7.0,1.0,2803.0331134800003,2.0,part_3,stop,,,,234.0,6.0,234.0,39.0,78.0,117.0,156.0,195.0,blue,square
1.0,0,7.0,2.0,3321.0821151699997,2.0,part_3,go,,,,132.0,3.0,88.0,132.0,220.0,44.0,176.0,264.0,cyan,cross
2.0,0,7.0,3.0,2819.83113289,2.0,part_3,go,,,,147.0,3.0,98.0,49.0,147.0,245.0,196.0,294.0,white,circle
1.0,1,7.0,2.0,1268.16701889,2.0,part_3,stop,,,,54.0,1.0,162.0,54.0,216.0,108.0,270.0,324.0,green,line
4.0,0,7.0,2.0,3103.54804993,2.0,part_3,go,,,,196.0,4.0,147.0,196.0,245.0,294.0,98.0,49.0,yellow,diamond
1.0,0,7.0,4.0,2336.11702919,2.0,part_3,go,,,,108.0,2.0,162.0,54.0,324.0,108.0,216.0,270.0,cyan,cross
2.0,0,7.0,2.0,2820.11699677,2.0,part_3,go,,,,162.0,3.0,270.0,162.0,54.0,216.0,108.0,324.0,white,circle
0.5,1,7.0,4.0,1301.72610283,2.0,part_3,stop,,,,98.0,2.0,196.0,245.0,294.0,98.0,49.0,147.0,magenta,hexagon
2.0,0,7.0,5.0,1885.81490517,2.0,part_3,go,,,,147.0,3.0,245.0,98.0,196.0,294.0,147.0,49.0,white,circle
1.0,1,7.0,2.0,1552.18100548,2.0,part_3,stop,,,,39.0,1.0,78.0,39.0,195.0,156.0,234.0,117.0,green,line
4.0,0,7.0,2.0,2502.72893906,2.0,part_3,go,,,,170.0,5.0,136.0,170.0,34.0,102.0,204.0,68.0,yellow,diamond
1.0,1,7.0,6.0,3370.83482742,2.0,part_3,stop,,,,54.0,1.0,324.0,108.0,216.0,162.0,270.0,54.0,green,line
1.0,0,7.0,6.0,1151.51500702,2.0,part_3,go,,,,44.0,1.0,132.0,264.0,176.0,220.0,88.0,44.0,cyan,cross
4.0,0,7.0,5.0,2402.7829170200002,2.0,part_3,go,,,,170.0,5.0,204.0,136.0,34.0,68.0,170.0,102.0,yellow,diamond
1.0,1,7.0,6.0,2019.53983307,2.0,part_3,stop,,,,68.0,2.0,170.0,102.0,204.0,136.0,34.0,68.0,green,line
2.0,1,7.0,6.0,3136.4500522599997,2.0,part_3,stop,,,,136.0,4.0,204.0,34.0,68.0,170.0,102.0,136.0,gray,flipped triangle
0.5,1,7.0,2.0,2903.26499939,2.0,part_3,stop,,,,108.0,2.0,216.0,108.0,162.0,54.0,270.0,324.0,magenta,hexagon
1.0,1,7.0,6.0,1885.4458332099998,2.0,part_3,stop,,,,68.0,2.0,204.0,170.0,136.0,34.0,102.0,68.0,green,line
0.5,0,7.0,4.0,1401.92604065,3.0,part_3,go,,,,88.0,2.0,176.0,132.0,264.0,88.0,44.0,220.0,orange,triangle
1.0,1,7.0,1.0,1752.22706795,3.0,part_3,stop,,,,98.0,2.0,98.0,147.0,196.0,245.0,294.0,49.0,green,line
1.0,0,7.0,2.0,1618.61681938,3.0,part_3,go,,,,49.0,1.0,245.0,49.0,294.0,98.0,147.0,196.0,cyan,cross
4.0,1,7.0,5.0,2419.8229312900003,3.0,part_3,stop,,,,324.0,6.0,216.0,162.0,270.0,54.0,324.0,108.0,blue,square
1.0,0,7.0,5.0,1468.20306778,3.0,part_3,go,,,,39.0,1.0,117.0,156.0,195.0,78.0,39.0,234.0,cyan,cross
2.0,1,7.0,1.0,2486.8319034600004,3.0,part_3,stop,,,,132.0,3.0,132.0,44.0,88.0,220.0,264.0,176.0,gray,flipped triangle
4.0,1,7.0,5.0,2085.70289612,3.0,part_3,stop,,,,294.0,6.0,147.0,98.0,245.0,196.0,294.0,49.0,blue,square
0.5,1,7.0,4.0,3320.23406029,3.0,part_3,stop,,,,117.0,3.0,234.0,156.0,195.0,117.0,39.0,78.0,magenta,hexagon
1.0,1,7.0,3.0,2136.2149715399996,3.0,part_3,stop,,,,78.0,2.0,234.0,156.0,78.0,195.0,39.0,117.0,green,line
1.0,1,7.0,3.0,3020.48110962,3.0,part_3,stop,,,,147.0,3.0,49.0,98.0,147.0,245.0,196.0,294.0,green,line
2.0,0,7.0,2.0,2737.0431423200002,3.0,part_3,go,,,,136.0,4.0,102.0,136.0,68.0,170.0,34.0,204.0,white,circle
0.5,0,7.0,4.0,2402.87303925,3.0,part_3,go,,,,88.0,2.0,176.0,132.0,44.0,88.0,264.0,220.0,orange,triangle
1.0,1,7.0,4.0,2569.53883171,3.0,part_3,stop,,,,44.0,1.0,264.0,132.0,88.0,44.0,220.0,176.0,green,line
1.0,0,7.0,2.0,1835.59203148,3.0,part_3,go,,,,68.0,2.0,136.0,68.0,102.0,204.0,34.0,170.0,cyan,cross
0.5,0,7.0,4.0,2269.69003677,3.0,part_3,go,,,,78.0,2.0,117.0,234.0,39.0,78.0,156.0,195.0,orange,triangle
2.0,1,7.0,6.0,3503.94797325,3.0,part_3,stop,,,,162.0,3.0,324.0,108.0,216.0,54.0,270.0,162.0,gray,flipped triangle
4.0,0,7.0,5.0,2919.8150634800004,3.0,part_3,go,,,,176.0,4.0,264.0,44.0,88.0,220.0,176.0,132.0,yellow,diamond
2.0,0,7.0,6.0,2502.98714638,3.0,part_3,go,,,,176.0,4.0,88.0,132.0,264.0,220.0,44.0,176.0,white,circle
1.0,0,7.0,2.0,2102.71501541,3.0,part_3,go,,,,54.0,1.0,324.0,54.0,216.0,270.0,108.0,162.0,cyan,cross
4.0,1,7.0,3.0,2169.00706291,3.0,part_3,stop,,,,264.0,6.0,88.0,44.0,264.0,132.0,176.0,220.0,blue,square
2.0,0,7.0,4.0,2252.6800632500003,4.0,part_3,go,,,,117.0,3.0,195.0,234.0,78.0,117.0,156.0,39.0,white,circle
4.0,0,7.0,4.0,2603.21784019,4.0,part_3,go,,,,216.0,4.0,162.0,324.0,108.0,216.0,54.0,270.0,yellow,diamond
4.0,1,7.0,2.0,2319.8120593999997,4.0,part_3,stop,,,,204.0,6.0,170.0,204.0,102.0,68.0,34.0,136.0,blue,square
0.5,1,7.0,4.0,2536.29493713,4.0,part_3,stop,,,,108.0,2.0,324.0,216.0,270.0,108.0,54.0,162.0,magenta,hexagon
2.0,1,7.0,4.0,2720.24393082,4.0,part_3,stop,,,,132.0,3.0,44.0,88.0,264.0,132.0,220.0,176.0,gray,flipped triangle
4.0,0,7.0,2.0,2970.2191352799996,4.0,part_3,go,,,,196.0,4.0,147.0,196.0,98.0,245.0,49.0,294.0,yellow,diamond
0.5,0,7.0,5.0,3553.6210537,4.0,part_3,go,,,,49.0,1.0,147.0,196.0,98.0,245.0,49.0,294.0,orange,triangle
2.0,0,7.0,6.0,3570.57714462,4.0,part_3,go,,,,216.0,4.0,324.0,108.0,162.0,270.0,54.0,216.0,white,circle
0.5,1,7.0,6.0,3203.40013504,4.0,part_3,stop,,,,147.0,3.0,49.0,98.0,294.0,196.0,245.0,147.0,magenta,hexagon
4.0,0,7.0,4.0,2486.76013947,4.0,part_3,go,,,,117.0,3.0,156.0,195.0,234.0,117.0,78.0,39.0,yellow,diamond
2.0,1,7.0,3.0,3120.43309212,4.0,part_3,stop,,,,117.0,3.0,234.0,78.0,117.0,39.0,156.0,195.0,gray,flipped triangle
0.5,1,7.0,4.0,3103.6169529,4.0,part_3,stop,,,,117.0,3.0,156.0,234.0,78.0,117.0,39.0,195.0,magenta,hexagon
0.5,0,7.0,1.0,2686.8429184,4.0,part_3,go,,,,34.0,1.0,34.0,68.0,136.0,204.0,170.0,102.0,orange,triangle
2.0,0,7.0,5.0,2419.60310936,4.0,part_3,go,,,,156.0,4.0,195.0,234.0,78.0,39.0,156.0,117.0,white,circle
0.5,1,7.0,6.0,3253.6141872400003,4.0,part_3,stop,,,,132.0,3.0,44.0,220.0,176.0,264.0,88.0,132.0,magenta,hexagon
4.0,1,7.0,2.0,2119.5230484,4.0,part_3,stop,,,,270.0,5.0,54.0,270.0,108.0,216.0,162.0,324.0,blue,square
2.0,1,7.0,6.0,2703.2041549699998,4.0,part_3,stop,,,,162.0,3.0,108.0,216.0,270.0,324.0,54.0,162.0,gray,flipped triangle
1.0,0,7.0,4.0,1619.2500591300002,4.0,part_3,go,,,,34.0,1.0,204.0,170.0,136.0,34.0,68.0,102.0,cyan,cross
4.0,0,7.0,4.0,4205.03401756,4.0,part_3,go,,,,156.0,4.0,39.0,117.0,78.0,156.0,195.0,234.0,yellow,diamond
2.0,1,7.0,4.0,2970.50499916,4.0,part_3,stop,,,,147.0,3.0,98.0,294.0,196.0,147.0,49.0,245.0,gray,flipped triangle
