stepwise_reward_magnitude,paired_with_stopping,quadrant,response,reaction_time,block,which_part,stop_signal_trial_type,left_SSD,right_SSD,accuracy,chosen_bidding_amount,chosen_bidding_level,possible_bid_1,possible_bid_2,possible_bid_3,possible_bid_4,possible_bid_5,possible_bid_6,color_text,shape_text
2.0,0,1.0,1.0,584.422111511,1.0,part_1,,,,,,,,,,,,,gray,hexagon
2.0,1,1.0,1.0,351.155996323,1.0,part_1,,,,,,,,,,,,,blue,diamond
2.0,1,3.0,3.0,350.859880447,1.0,part_1,,,,,,,,,,,,,blue,diamond
2.0,1,2.0,2.0,317.800998688,1.0,part_1,,,,,,,,,,,,,blue,diamond
2.0,0,3.0,3.0,317.779779434,1.0,part_1,,,,,,,,,,,,,gray,hexagon
0.5,0,4.0,4.0,333.686113358,1.0,part_1,,,,,,,,,,,,,green,square
0.5,0,2.0,2.0,300.715923309,1.0,part_1,,,,,,,,,,,,,green,square
4.0,0,1.0,1.0,367.49887466399997,1.0,part_1,,,,,,,,,,,,,orange,line
0.5,0,4.0,4.0,368.04294586199995,1.0,part_1,,,,,,,,,,,,,green,square
1.0,1,4.0,4.0,334.467887878,1.0,part_1,,,,,,,,,,,,,white,cross
0.5,0,3.0,3.0,334.363937378,1.0,part_1,,,,,,,,,,,,,green,square
1.0,0,2.0,2.0,300.929069519,1.0,part_1,,,,,,,,,,,,,cyan,flipped triangle
4.0,0,4.0,4.0,334.327936172,1.0,part_1,,,,,,,,,,,,,orange,line
4.0,0,4.0,4.0,350.435018539,1.0,part_1,,,,,,,,,,,,,orange,line
1.0,0,3.0,3.0,334.339141846,1.0,part_1,,,,,,,,,,,,,cyan,flipped triangle
2.0,1,2.0,2.0,334.650039673,1.0,part_1,,,,,,,,,,,,,blue,diamond
0.5,1,2.0,2.0,384.413957596,1.0,part_1,,,,,,,,,,,,,yellow,circle
4.0,1,4.0,4.0,317.66986846900005,1.0,part_1,,,,,,,,,,,,,magenta,triangle
0.5,0,4.0,4.0,317.32797622699997,1.0,part_1,,,,,,,,,,,,,green,square
2.0,0,4.0,4.0,350.74090957600004,1.0,part_1,,,,,,,,,,,,,gray,hexagon
0.5,0,4.0,4.0,317.780971527,1.0,part_1,,,,,,,,,,,,,green,square
4.0,0,3.0,3.0,350.696086884,1.0,part_1,,,,,,,,,,,,,orange,line
2.0,1,3.0,3.0,350.82602500900003,1.0,part_1,,,,,,,,,,,,,blue,diamond
2.0,1,3.0,3.0,317.635059357,1.0,part_1,,,,,,,,,,,,,blue,diamond
0.5,0,3.0,3.0,350.914001465,1.0,part_1,,,,,,,,,,,,,green,square
4.0,0,4.0,4.0,367.373943329,1.0,part_1,,,,,,,,,,,,,orange,line
0.5,1,2.0,2.0,384.30809974699997,1.0,part_1,,,,,,,,,,,,,yellow,circle
4.0,1,2.0,2.0,400.953054428,1.0,part_1,,,,,,,,,,,,,magenta,triangle
1.0,0,1.0,1.0,434.14115905799997,1.0,part_1,,,,,,,,,,,,,cyan,flipped triangle
1.0,0,3.0,3.0,367.40016937300004,1.0,part_1,,,,,,,,,,,,,cyan,flipped triangle
1.0,1,2.0,2.0,334.633827209,1.0,part_1,,,,,,,,,,,,,white,cross
0.5,0,2.0,2.0,417.41490364099997,1.0,part_1,,,,,,,,,,,,,green,square
4.0,0,3.0,3.0,351.075172424,1.0,part_1,,,,,,,,,,,,,orange,line
1.0,1,3.0,3.0,367.59614944500004,1.0,part_1,,,,,,,,,,,,,white,cross
2.0,0,1.0,1.0,400.583982468,1.0,part_1,,,,,,,,,,,,,gray,hexagon
2.0,1,4.0,4.0,367.609977722,1.0,part_1,,,,,,,,,,,,,blue,diamond
2.0,0,2.0,2.0,400.791883469,1.0,part_1,,,,,,,,,,,,,gray,hexagon
1.0,1,3.0,3.0,350.96001625099996,1.0,part_1,,,,,,,,,,,,,white,cross
2.0,0,2.0,2.0,333.646059036,1.0,part_1,,,,,,,,,,,,,gray,hexagon
4.0,0,2.0,2.0,350.480794907,1.0,part_1,,,,,,,,,,,,,orange,line
0.5,0,2.0,2.0,350.53300857500005,1.0,part_1,,,,,,,,,,,,,green,square
4.0,0,4.0,4.0,367.319107056,1.0,part_1,,,,,,,,,,,,,orange,line
4.0,0,2.0,2.0,351.402997971,1.0,part_1,,,,,,,,,,,,,orange,line
1.0,1,3.0,3.0,367.269039154,1.0,part_1,,,,,,,,,,,,,white,cross
2.0,1,1.0,1.0,367.554187775,1.0,part_1,,,,,,,,,,,,,blue,diamond
1.0,1,1.0,1.0,367.40088462800003,1.0,part_1,,,,,,,,,,,,,white,cross
1.0,0,1.0,1.0,351.146936417,1.0,part_1,,,,,,,,,,,,,cyan,flipped triangle
4.0,1,3.0,3.0,367.30408668499996,1.0,part_1,,,,,,,,,,,,,magenta,triangle
4.0,1,1.0,1.0,351.06086731000005,1.0,part_1,,,,,,,,,,,,,magenta,triangle
1.0,1,4.0,4.0,384.269952774,1.0,part_1,,,,,,,,,,,,,white,cross
0.5,0,1.0,1.0,434.541940689,1.0,part_1,,,,,,,,,,,,,green,square
1.0,0,4.0,4.0,367.777109146,1.0,part_1,,,,,,,,,,,,,cyan,flipped triangle
2.0,0,4.0,4.0,367.309093475,1.0,part_1,,,,,,,,,,,,,gray,hexagon
2.0,0,4.0,4.0,367.50316619899996,1.0,part_1,,,,,,,,,,,,,gray,hexagon
0.5,0,4.0,4.0,333.98580551099997,1.0,part_1,,,,,,,,,,,,,green,square
1.0,1,2.0,2.0,400.952100754,1.0,part_1,,,,,,,,,,,,,white,cross
0.5,1,1.0,1.0,384.150981903,1.0,part_1,,,,,,,,,,,,,yellow,circle
0.5,1,1.0,1.0,384.426116943,1.0,part_1,,,,,,,,,,,,,yellow,circle
0.5,1,4.0,4.0,384.255886078,1.0,part_1,,,,,,,,,,,,,yellow,circle
2.0,1,4.0,4.0,451.19905471799996,1.0,part_1,,,,,,,,,,,,,blue,diamond
0.5,1,3.0,3.0,417.373895645,1.0,part_1,,,,,,,,,,,,,yellow,circle
4.0,1,1.0,1.0,434.209108353,1.0,part_1,,,,,,,,,,,,,magenta,triangle
0.5,0,1.0,1.0,401.39484405499996,1.0,part_1,,,,,,,,,,,,,green,square
1.0,1,2.0,2.0,417.493104935,1.0,part_1,,,,,,,,,,,,,white,cross
1.0,0,3.0,3.0,417.56701469399997,1.0,part_1,,,,,,,,,,,,,cyan,flipped triangle
1.0,0,3.0,3.0,400.86388588,1.0,part_1,,,,,,,,,,,,,cyan,flipped triangle
0.5,0,3.0,3.0,401.292800903,1.0,part_1,,,,,,,,,,,,,green,square
4.0,0,1.0,1.0,400.783777237,1.0,part_1,,,,,,,,,,,,,orange,line
1.0,0,4.0,4.0,401.329040527,1.0,part_1,,,,,,,,,,,,,cyan,flipped triangle
1.0,0,2.0,2.0,434.602975845,1.0,part_1,,,,,,,,,,,,,cyan,flipped triangle
2.0,1,3.0,3.0,367.588043213,1.0,part_1,,,,,,,,,,,,,blue,diamond
2.0,0,1.0,1.0,400.71105957000003,1.0,part_1,,,,,,,,,,,,,gray,hexagon
4.0,0,1.0,1.0,400.794029236,1.0,part_1,,,,,,,,,,,,,orange,line
1.0,1,1.0,1.0,400.892972946,1.0,part_1,,,,,,,,,,,,,white,cross
4.0,1,2.0,2.0,417.321920395,1.0,part_1,,,,,,,,,,,,,magenta,triangle
1.0,0,2.0,2.0,417.673110962,1.0,part_1,,,,,,,,,,,,,cyan,flipped triangle
0.5,1,1.0,1.0,384.528875351,1.0,part_1,,,,,,,,,,,,,yellow,circle
1.0,1,1.0,1.0,383.970022202,1.0,part_1,,,,,,,,,,,,,white,cross
0.5,0,3.0,3.0,367.68507957500003,1.0,part_1,,,,,,,,,,,,,green,square
1.0,1,4.0,4.0,451.72190666200004,1.0,part_1,,,,,,,,,,,,,white,cross
1.0,0,4.0,4.0,384.634971619,1.0,part_1,,,,,,,,,,,,,cyan,flipped triangle
4.0,0,4.0,4.0,367.390871048,1.0,part_1,,,,,,,,,,,,,orange,line
2.0,1,2.0,2.0,434.275865555,1.0,part_1,,,,,,,,,,,,,blue,diamond
0.5,0,1.0,1.0,484.665155411,1.0,part_1,,,,,,,,,,,,,green,square
2.0,1,1.0,1.0,401.29423141499996,1.0,part_1,,,,,,,,,,,,,blue,diamond
4.0,0,1.0,1.0,400.06804466200003,1.0,part_1,,,,,,,,,,,,,orange,line
2.0,0,2.0,2.0,434.56196785000003,1.0,part_1,,,,,,,,,,,,,gray,hexagon
2.0,1,3.0,3.0,434.10587310799997,1.0,part_1,,,,,,,,,,,,,blue,diamond
0.5,1,3.0,3.0,417.75393486,1.0,part_1,,,,,,,,,,,,,yellow,circle
4.0,1,3.0,3.0,384.359836578,1.0,part_1,,,,,,,,,,,,,magenta,triangle
0.5,1,2.0,2.0,417.74797439599996,1.0,part_1,,,,,,,,,,,,,yellow,circle
4.0,1,4.0,4.0,401.360988617,1.0,part_1,,,,,,,,,,,,,magenta,triangle
1.0,0,1.0,1.0,384.31096077,1.0,part_1,,,,,,,,,,,,,cyan,flipped triangle
0.5,1,1.0,1.0,384.11593437199997,1.0,part_1,,,,,,,,,,,,,yellow,circle
2.0,0,3.0,3.0,334.43403243999995,1.0,part_1,,,,,,,,,,,,,gray,hexagon
4.0,1,2.0,2.0,417.43183136,1.0,part_1,,,,,,,,,,,,,magenta,triangle
4.0,0,2.0,2.0,434.328079224,1.0,part_1,,,,,,,,,,,,,orange,line
4.0,0,3.0,3.0,401.015996933,1.0,part_1,,,,,,,,,,,,,orange,line
2.0,0,2.0,2.0,417.517900467,1.0,part_1,,,,,,,,,,,,,gray,hexagon
1.0,1,4.0,4.0,434.285879135,1.0,part_1,,,,,,,,,,,,,white,cross
1.0,1,1.0,1.0,701.164960861,2.0,part_1,,,,,,,,,,,,,white,cross
0.5,0,2.0,2.0,717.8339958189999,2.0,part_1,,,,,,,,,,,,,green,square
0.5,0,4.0,4.0,367.202043533,2.0,part_1,,,,,,,,,,,,,green,square
2.0,1,4.0,4.0,434.272050858,2.0,part_1,,,,,,,,,,,,,blue,diamond
1.0,1,1.0,1.0,384.078979492,2.0,part_1,,,,,,,,,,,,,white,cross
2.0,1,2.0,2.0,384.303808212,2.0,part_1,,,,,,,,,,,,,blue,diamond
2.0,0,2.0,2.0,351.083040237,2.0,part_1,,,,,,,,,,,,,gray,hexagon
0.5,1,2.0,2.0,317.507982254,2.0,part_1,,,,,,,,,,,,,yellow,circle
4.0,0,3.0,3.0,384.198188782,2.0,part_1,,,,,,,,,,,,,orange,line
4.0,0,1.0,1.0,367.66409874,2.0,part_1,,,,,,,,,,,,,orange,line
2.0,1,4.0,4.0,384.084939957,2.0,part_1,,,,,,,,,,,,,blue,diamond
0.5,1,2.0,2.0,351.035118103,2.0,part_1,,,,,,,,,,,,,yellow,circle
0.5,1,3.0,3.0,384.345054626,2.0,part_1,,,,,,,,,,,,,yellow,circle
2.0,1,4.0,4.0,400.939941406,2.0,part_1,,,,,,,,,,,,,blue,diamond
0.5,1,1.0,1.0,434.20219421400003,2.0,part_1,,,,,,,,,,,,,yellow,circle
2.0,1,2.0,2.0,384.18006897000004,2.0,part_1,,,,,,,,,,,,,blue,diamond
2.0,0,4.0,4.0,400.376081467,2.0,part_1,,,,,,,,,,,,,gray,hexagon
4.0,0,1.0,1.0,367.53392219499995,2.0,part_1,,,,,,,,,,,,,orange,line
2.0,0,3.0,3.0,367.371082306,2.0,part_1,,,,,,,,,,,,,gray,hexagon
0.5,1,1.0,1.0,367.85387992899996,2.0,part_1,,,,,,,,,,,,,yellow,circle
4.0,0,3.0,3.0,401.302099228,2.0,part_1,,,,,,,,,,,,,orange,line
4.0,0,2.0,2.0,384.010076523,2.0,part_1,,,,,,,,,,,,,orange,line
4.0,1,4.0,4.0,450.972080231,2.0,part_1,,,,,,,,,,,,,magenta,triangle
0.5,1,3.0,3.0,401.026010513,2.0,part_1,,,,,,,,,,,,,yellow,circle
1.0,0,2.0,2.0,450.776100159,2.0,part_1,,,,,,,,,,,,,cyan,flipped triangle
0.5,1,4.0,4.0,417.176008224,2.0,part_1,,,,,,,,,,,,,yellow,circle
1.0,1,3.0,3.0,350.631952286,2.0,part_1,,,,,,,,,,,,,white,cross
1.0,0,1.0,1.0,450.98686218299997,2.0,part_1,,,,,,,,,,,,,cyan,flipped triangle
2.0,0,2.0,2.0,400.928020477,2.0,part_1,,,,,,,,,,,,,gray,hexagon
4.0,1,2.0,2.0,384.130001068,2.0,part_1,,,,,,,,,,,,,magenta,triangle
4.0,1,1.0,1.0,451.29108428999996,2.0,part_1,,,,,,,,,,,,,magenta,triangle
1.0,1,3.0,3.0,417.519807816,2.0,part_1,,,,,,,,,,,,,white,cross
4.0,1,4.0,4.0,351.16815567,2.0,part_1,,,,,,,,,,,,,magenta,triangle
4.0,0,3.0,3.0,384.080886841,2.0,part_1,,,,,,,,,,,,,orange,line
1.0,1,2.0,2.0,317.595005035,2.0,part_1,,,,,,,,,,,,,white,cross
2.0,1,1.0,1.0,367.486000061,2.0,part_1,,,,,,,,,,,,,blue,diamond
2.0,0,2.0,2.0,400.191068649,2.0,part_1,,,,,,,,,,,,,gray,hexagon
4.0,0,1.0,1.0,535.082101822,2.0,part_1,,,,,,,,,,,,,orange,line
0.5,1,1.0,1.0,350.962877274,2.0,part_1,,,,,,,,,,,,,yellow,circle
1.0,1,3.0,3.0,333.806991577,2.0,part_1,,,,,,,,,,,,,white,cross
4.0,1,1.0,1.0,317.094087601,2.0,part_1,,,,,,,,,,,,,magenta,triangle
1.0,0,3.0,3.0,367.475986481,2.0,part_1,,,,,,,,,,,,,cyan,flipped triangle
0.5,0,2.0,2.0,383.888959885,2.0,part_1,,,,,,,,,,,,,green,square
1.0,1,4.0,4.0,350.980997086,2.0,part_1,,,,,,,,,,,,,white,cross
1.0,1,3.0,3.0,334.139823914,2.0,part_1,,,,,,,,,,,,,white,cross
4.0,0,4.0,4.0,384.732961655,2.0,part_1,,,,,,,,,,,,,orange,line
2.0,1,2.0,2.0,400.991916656,2.0,part_1,,,,,,,,,,,,,blue,diamond
4.0,0,2.0,2.0,350.944042206,2.0,part_1,,,,,,,,,,,,,orange,line
2.0,0,4.0,4.0,367.95091629,2.0,part_1,,,,,,,,,,,,,gray,hexagon
1.0,1,3.0,3.0,317.045927048,2.0,part_1,,,,,,,,,,,,,white,cross
4.0,1,4.0,4.0,401.041030884,2.0,part_1,,,,,,,,,,,,,magenta,triangle
1.0,1,1.0,1.0,351.07207298300006,2.0,part_1,,,,,,,,,,,,,white,cross
2.0,1,2.0,2.0,317.821979523,2.0,part_1,,,,,,,,,,,,,blue,diamond
2.0,1,2.0,2.0,317.389011383,2.0,part_1,,,,,,,,,,,,,blue,diamond
1.0,0,2.0,2.0,350.90684890700004,2.0,part_1,,,,,,,,,,,,,cyan,flipped triangle
1.0,0,1.0,1.0,384.097099304,2.0,part_1,,,,,,,,,,,,,cyan,flipped triangle
4.0,1,3.0,3.0,384.39106941200004,2.0,part_1,,,,,,,,,,,,,magenta,triangle
2.0,1,2.0,2.0,401.36504173300006,2.0,part_1,,,,,,,,,,,,,blue,diamond
1.0,0,4.0,4.0,434.78417396500004,2.0,part_1,,,,,,,,,,,,,cyan,flipped triangle
0.5,1,4.0,4.0,367.516040802,2.0,part_1,,,,,,,,,,,,,yellow,circle
1.0,1,1.0,1.0,467.385053635,2.0,part_1,,,,,,,,,,,,,white,cross
2.0,1,3.0,3.0,400.904178619,2.0,part_1,,,,,,,,,,,,,blue,diamond
2.0,0,4.0,4.0,617.476940155,2.0,part_1,,,,,,,,,,,,,gray,hexagon
2.0,0,4.0,4.0,400.95615387,2.0,part_1,,,,,,,,,,,,,gray,hexagon
0.5,1,1.0,1.0,917.900085449,2.0,part_1,,,,,,,,,,,,,yellow,circle
1.0,1,4.0,4.0,367.089986801,2.0,part_1,,,,,,,,,,,,,white,cross
4.0,0,4.0,4.0,367.328166962,2.0,part_1,,,,,,,,,,,,,orange,line
2.0,1,1.0,1.0,383.802890778,2.0,part_1,,,,,,,,,,,,,blue,diamond
1.0,1,1.0,1.0,351.11618042,2.0,part_1,,,,,,,,,,,,,white,cross
0.5,1,4.0,4.0,367.469072342,2.0,part_1,,,,,,,,,,,,,yellow,circle
4.0,1,1.0,1.0,317.703962326,2.0,part_1,,,,,,,,,,,,,magenta,triangle
0.5,1,1.0,1.0,383.78000259400005,2.0,part_1,,,,,,,,,,,,,yellow,circle
1.0,1,3.0,3.0,384.18006897000004,2.0,part_1,,,,,,,,,,,,,white,cross
0.5,0,3.0,3.0,384.398937225,2.0,part_1,,,,,,,,,,,,,green,square
2.0,0,1.0,1.0,384.160041809,2.0,part_1,,,,,,,,,,,,,gray,hexagon
2.0,1,3.0,3.0,317.35205650300003,2.0,part_1,,,,,,,,,,,,,blue,diamond
4.0,1,2.0,2.0,350.977897644,2.0,part_1,,,,,,,,,,,,,magenta,triangle
0.5,0,2.0,2.0,434.680938721,2.0,part_1,,,,,,,,,,,,,green,square
2.0,0,2.0,2.0,400.537967682,2.0,part_1,,,,,,,,,,,,,gray,hexagon
0.5,1,2.0,2.0,384.660959244,2.0,part_1,,,,,,,,,,,,,yellow,circle
0.5,0,3.0,3.0,434.14616584799995,2.0,part_1,,,,,,,,,,,,,green,square
1.0,0,1.0,1.0,384.291172028,2.0,part_1,,,,,,,,,,,,,cyan,flipped triangle
0.5,1,3.0,3.0,467.566013336,2.0,part_1,,,,,,,,,,,,,yellow,circle
0.5,1,4.0,4.0,417.47713089,2.0,part_1,,,,,,,,,,,,,yellow,circle
2.0,1,3.0,3.0,401.40819549599996,2.0,part_1,,,,,,,,,,,,,blue,diamond
2.0,0,4.0,4.0,367.52891540499996,2.0,part_1,,,,,,,,,,,,,gray,hexagon
1.0,0,3.0,3.0,400.85601806600005,2.0,part_1,,,,,,,,,,,,,cyan,flipped triangle
0.5,1,3.0,3.0,383.551120758,2.0,part_1,,,,,,,,,,,,,yellow,circle
4.0,0,3.0,3.0,384.50503349300004,2.0,part_1,,,,,,,,,,,,,orange,line
1.0,1,4.0,4.0,417.62590408299997,2.0,part_1,,,,,,,,,,,,,white,cross
0.5,0,2.0,2.0,551.453828812,2.0,part_1,,,,,,,,,,,,,green,square
1.0,0,2.0,2.0,367.05708503700004,2.0,part_1,,,,,,,,,,,,,cyan,flipped triangle
0.5,0,3.0,3.0,517.575025558,2.0,part_1,,,,,,,,,,,,,green,square
4.0,1,1.0,1.0,334.594011307,2.0,part_1,,,,,,,,,,,,,magenta,triangle
4.0,0,1.0,1.0,384.552001953,2.0,part_1,,,,,,,,,,,,,orange,line
1.0,0,4.0,4.0,418.125152588,2.0,part_1,,,,,,,,,,,,,cyan,flipped triangle
4.0,0,4.0,4.0,517.200946808,2.0,part_1,,,,,,,,,,,,,orange,line
2.0,1,4.0,4.0,351.02391243,2.0,part_1,,,,,,,,,,,,,blue,diamond
4.0,0,1.0,1.0,350.86607933000005,2.0,part_1,,,,,,,,,,,,,orange,line
2.0,1,3.0,3.0,384.26089286800004,2.0,part_1,,,,,,,,,,,,,blue,diamond
2.0,1,4.0,4.0,768.759012222,3.0,part_1,,,,,,,,,,,,,blue,diamond
1.0,0,2.0,2.0,334.604978561,3.0,part_1,,,,,,,,,,,,,cyan,flipped triangle
4.0,0,3.0,3.0,350.672006607,3.0,part_1,,,,,,,,,,,,,orange,line
1.0,0,2.0,2.0,400.45905113199996,3.0,part_1,,,,,,,,,,,,,cyan,flipped triangle
0.5,1,4.0,4.0,434.393882751,3.0,part_1,,,,,,,,,,,,,yellow,circle
1.0,0,4.0,4.0,367.668151855,3.0,part_1,,,,,,,,,,,,,cyan,flipped triangle
0.5,0,3.0,3.0,334.03396606399997,3.0,part_1,,,,,,,,,,,,,green,square
2.0,1,3.0,3.0,367.61879921,3.0,part_1,,,,,,,,,,,,,blue,diamond
4.0,0,3.0,3.0,367.363929749,3.0,part_1,,,,,,,,,,,,,orange,line
1.0,1,3.0,3.0,334.271192551,3.0,part_1,,,,,,,,,,,,,white,cross
1.0,0,2.0,2.0,401.293992996,3.0,part_1,,,,,,,,,,,,,cyan,flipped triangle
2.0,0,4.0,4.0,383.727073669,3.0,part_1,,,,,,,,,,,,,gray,hexagon
2.0,0,4.0,4.0,367.342948914,3.0,part_1,,,,,,,,,,,,,gray,hexagon
0.5,0,1.0,1.0,417.583942413,3.0,part_1,,,,,,,,,,,,,green,square
1.0,0,3.0,3.0,334.206104279,3.0,part_1,,,,,,,,,,,,,cyan,flipped triangle
1.0,1,2.0,2.0,584.675073624,3.0,part_1,,,,,,,,,,,,,white,cross
4.0,1,4.0,4.0,384.396076202,3.0,part_1,,,,,,,,,,,,,magenta,triangle
2.0,1,3.0,3.0,433.816194534,3.0,part_1,,,,,,,,,,,,,blue,diamond
0.5,1,2.0,2.0,383.900880814,3.0,part_1,,,,,,,,,,,,,yellow,circle
0.5,1,3.0,3.0,400.75802803,3.0,part_1,,,,,,,,,,,,,yellow,circle
0.5,1,4.0,4.0,401.223182678,3.0,part_1,,,,,,,,,,,,,yellow,circle
1.0,1,1.0,1.0,434.527158737,3.0,part_1,,,,,,,,,,,,,white,cross
1.0,1,3.0,3.0,384.179830551,3.0,part_1,,,,,,,,,,,,,white,cross
1.0,1,1.0,1.0,351.099967957,3.0,part_1,,,,,,,,,,,,,white,cross
0.5,0,1.0,1.0,384.162187576,3.0,part_1,,,,,,,,,,,,,green,square
1.0,1,4.0,4.0,384.07421112099996,3.0,part_1,,,,,,,,,,,,,white,cross
1.0,0,1.0,1.0,367.612123489,3.0,part_1,,,,,,,,,,,,,cyan,flipped triangle
1.0,1,4.0,4.0,417.66977310199997,3.0,part_1,,,,,,,,,,,,,white,cross
1.0,0,3.0,3.0,434.382915497,3.0,part_1,,,,,,,,,,,,,cyan,flipped triangle
4.0,1,2.0,2.0,434.08703804,3.0,part_1,,,,,,,,,,,,,magenta,triangle
4.0,0,1.0,1.0,367.48290062,3.0,part_1,,,,,,,,,,,,,orange,line
4.0,1,3.0,3.0,384.577035904,3.0,part_1,,,,,,,,,,,,,magenta,triangle
1.0,0,4.0,4.0,367.383003235,3.0,part_1,,,,,,,,,,,,,cyan,flipped triangle
0.5,0,3.0,3.0,333.82296562199997,3.0,part_1,,,,,,,,,,,,,green,square
4.0,1,3.0,3.0,351.20201110799997,3.0,part_1,,,,,,,,,,,,,magenta,triangle
0.5,1,2.0,2.0,417.593955994,3.0,part_1,,,,,,,,,,,,,yellow,circle
2.0,1,4.0,4.0,400.449991226,3.0,part_1,,,,,,,,,,,,,blue,diamond
4.0,1,3.0,3.0,334.45215225199996,3.0,part_1,,,,,,,,,,,,,magenta,triangle
2.0,0,4.0,4.0,451.070070267,3.0,part_1,,,,,,,,,,,,,gray,hexagon
2.0,1,2.0,2.0,450.95705986,3.0,part_1,,,,,,,,,,,,,blue,diamond
0.5,0,2.0,2.0,450.98519325300003,3.0,part_1,,,,,,,,,,,,,green,square
4.0,1,1.0,1.0,384.661912918,3.0,part_1,,,,,,,,,,,,,magenta,triangle
4.0,0,1.0,1.0,384.123086929,3.0,part_1,,,,,,,,,,,,,orange,line
0.5,1,2.0,2.0,400.73704719499995,3.0,part_1,,,,,,,,,,,,,yellow,circle
1.0,0,2.0,2.0,400.801181793,3.0,part_1,,,,,,,,,,,,,cyan,flipped triangle
4.0,0,1.0,1.0,417.53792762800003,3.0,part_1,,,,,,,,,,,,,orange,line
1.0,0,1.0,1.0,384.01293754600005,3.0,part_1,,,,,,,,,,,,,cyan,flipped triangle
0.5,0,3.0,3.0,434.272050858,3.0,part_1,,,,,,,,,,,,,green,square
4.0,1,3.0,3.0,467.442989349,3.0,part_1,,,,,,,,,,,,,magenta,triangle
0.5,1,3.0,3.0,401.110172272,3.0,part_1,,,,,,,,,,,,,yellow,circle
0.5,0,1.0,1.0,417.89197921799996,3.0,part_1,,,,,,,,,,,,,green,square
4.0,1,4.0,4.0,717.568874359,3.0,part_1,,,,,,,,,,,,,magenta,triangle
4.0,1,3.0,3.0,534.6009731290001,3.0,part_1,,,,,,,,,,,,,magenta,triangle
0.5,0,2.0,2.0,584.575891495,3.0,part_1,,,,,,,,,,,,,green,square
0.5,1,3.0,3.0,651.417016983,3.0,part_1,,,,,,,,,,,,,yellow,circle
1.0,1,4.0,4.0,651.19099617,3.0,part_1,,,,,,,,,,,,,white,cross
2.0,1,4.0,4.0,434.65304374699997,3.0,part_1,,,,,,,,,,,,,blue,diamond
2.0,0,4.0,4.0,518.124818802,3.0,part_1,,,,,,,,,,,,,gray,hexagon
4.0,0,2.0,2.0,467.540979385,3.0,part_1,,,,,,,,,,,,,orange,line
4.0,1,4.0,4.0,451.289892197,3.0,part_1,,,,,,,,,,,,,magenta,triangle
1.0,0,2.0,2.0,450.876951218,3.0,part_1,,,,,,,,,,,,,cyan,flipped triangle
2.0,0,4.0,4.0,417.973041534,3.0,part_1,,,,,,,,,,,,,gray,hexagon
4.0,1,4.0,4.0,417.269945145,3.0,part_1,,,,,,,,,,,,,magenta,triangle
2.0,0,2.0,2.0,534.448862076,3.0,part_1,,,,,,,,,,,,,gray,hexagon
2.0,1,2.0,2.0,484.483957291,3.0,part_1,,,,,,,,,,,,,blue,diamond
2.0,0,4.0,4.0,450.834989548,3.0,part_1,,,,,,,,,,,,,gray,hexagon
0.5,0,1.0,1.0,401.237010956,3.0,part_1,,,,,,,,,,,,,green,square
4.0,1,1.0,1.0,417.759895325,3.0,part_1,,,,,,,,,,,,,magenta,triangle
2.0,0,2.0,2.0,483.912944794,3.0,part_1,,,,,,,,,,,,,gray,hexagon
4.0,1,1.0,1.0,451.001882553,3.0,part_1,,,,,,,,,,,,,magenta,triangle
1.0,0,1.0,1.0,400.86984634400005,3.0,part_1,,,,,,,,,,,,,cyan,flipped triangle
0.5,0,3.0,3.0,384.279966354,3.0,part_1,,,,,,,,,,,,,green,square
2.0,1,2.0,2.0,568.199157715,3.0,part_1,,,,,,,,,,,,,blue,diamond
1.0,1,3.0,3.0,450.70099830600003,3.0,part_1,,,,,,,,,,,,,white,cross
4.0,0,4.0,4.0,517.4789428710001,3.0,part_1,,,,,,,,,,,,,orange,line
2.0,0,1.0,1.0,517.707109451,3.0,part_1,,,,,,,,,,,,,gray,hexagon
1.0,0,1.0,1.0,584.450960159,3.0,part_1,,,,,,,,,,,,,cyan,flipped triangle
0.5,0,1.0,1.0,501.04498863199996,3.0,part_1,,,,,,,,,,,,,green,square
0.5,1,4.0,4.0,617.547988892,3.0,part_1,,,,,,,,,,,,,yellow,circle
2.0,1,2.0,2.0,734.572172165,3.0,part_1,,,,,,,,,,,,,blue,diamond
4.0,0,4.0,4.0,650.767803192,3.0,part_1,,,,,,,,,,,,,orange,line
1.0,1,3.0,3.0,668.186903,3.0,part_1,,,,,,,,,,,,,white,cross
1.0,1,2.0,2.0,601.230859756,3.0,part_1,,,,,,,,,,,,,white,cross
2.0,0,2.0,2.0,500.60915946999995,3.0,part_1,,,,,,,,,,,,,gray,hexagon
0.5,0,3.0,3.0,501.303911209,3.0,part_1,,,,,,,,,,,,,green,square
0.5,1,1.0,1.0,501.531839371,3.0,part_1,,,,,,,,,,,,,yellow,circle
4.0,1,2.0,2.0,484.94887352,3.0,part_1,,,,,,,,,,,,,magenta,triangle
1.0,0,2.0,2.0,367.776870728,3.0,part_1,,,,,,,,,,,,,cyan,flipped triangle
2.0,0,4.0,4.0,634.953975677,3.0,part_1,,,,,,,,,,,,,gray,hexagon
0.5,0,1.0,1.0,417.324066162,3.0,part_1,,,,,,,,,,,,,green,square
4.0,0,2.0,2.0,634.884119034,3.0,part_1,,,,,,,,,,,,,orange,line
4.0,0,1.0,1.0,434.175014496,3.0,part_1,,,,,,,,,,,,,orange,line
4.0,1,1.0,1.0,500.9729862209999,3.0,part_1,,,,,,,,,,,,,magenta,triangle
1.0,1,1.0,1.0,751.049995422,3.0,part_1,,,,,,,,,,,,,white,cross
1.0,0,2.0,2.0,518.013954163,3.0,part_1,,,,,,,,,,,,,cyan,flipped triangle
0.5,0,1.0,1.0,584.7411155699999,3.0,part_1,,,,,,,,,,,,,green,square
0.5,1,1.0,1.0,600.99196434,3.0,part_1,,,,,,,,,,,,,yellow,circle
2.0,0,4.0,4.0,718.659877777,3.0,part_1,,,,,,,,,,,,,gray,hexagon
4.0,1,3.0,3.0,617.771863937,3.0,part_1,,,,,,,,,,,,,magenta,triangle
2.0,1,3.0,3.0,384.16790962199997,3.0,part_1,,,,,,,,,,,,,blue,diamond
0.5,1,4.0,4.0,667.6619052890001,4.0,part_1,,,,,,,,,,,,,yellow,circle
2.0,1,3.0,3.0,384.255170822,4.0,part_1,,,,,,,,,,,,,blue,diamond
1.0,0,4.0,4.0,334.38587188699995,4.0,part_1,,,,,,,,,,,,,cyan,flipped triangle
2.0,0,2.0,2.0,467.439889908,4.0,part_1,,,,,,,,,,,,,gray,hexagon
4.0,0,2.0,2.0,433.984994888,4.0,part_1,,,,,,,,,,,,,orange,line
1.0,1,4.0,4.0,417.097091675,4.0,part_1,,,,,,,,,,,,,white,cross
1.0,0,3.0,3.0,383.899927139,4.0,part_1,,,,,,,,,,,,,cyan,flipped triangle
2.0,0,3.0,3.0,501.07502937299995,4.0,part_1,,,,,,,,,,,,,gray,hexagon
0.5,0,4.0,4.0,567.737102509,4.0,part_1,,,,,,,,,,,,,green,square
0.5,1,2.0,2.0,400.608062744,4.0,part_1,,,,,,,,,,,,,yellow,circle
1.0,0,4.0,4.0,585.402011871,4.0,part_1,,,,,,,,,,,,,cyan,flipped triangle
0.5,1,4.0,4.0,551.1021614069999,4.0,part_1,,,,,,,,,,,,,yellow,circle
4.0,1,3.0,3.0,484.260082245,4.0,part_1,,,,,,,,,,,,,magenta,triangle
1.0,0,1.0,1.0,551.149129868,4.0,part_1,,,,,,,,,,,,,cyan,flipped triangle
4.0,1,2.0,2.0,466.977834702,4.0,part_1,,,,,,,,,,,,,magenta,triangle
4.0,1,2.0,2.0,384.38296318100004,4.0,part_1,,,,,,,,,,,,,magenta,triangle
4.0,1,2.0,2.0,367.234945297,4.0,part_1,,,,,,,,,,,,,magenta,triangle
4.0,1,2.0,2.0,434.333086014,4.0,part_1,,,,,,,,,,,,,magenta,triangle
0.5,0,4.0,4.0,500.801086426,4.0,part_1,,,,,,,,,,,,,green,square
4.0,1,4.0,4.0,651.14402771,4.0,part_1,,,,,,,,,,,,,magenta,triangle
4.0,1,3.0,3.0,401.123046875,4.0,part_1,,,,,,,,,,,,,magenta,triangle
1.0,0,3.0,3.0,400.87485313400003,4.0,part_1,,,,,,,,,,,,,cyan,flipped triangle
2.0,1,3.0,3.0,517.644166946,4.0,part_1,,,,,,,,,,,,,blue,diamond
1.0,0,1.0,1.0,450.546979904,4.0,part_1,,,,,,,,,,,,,cyan,flipped triangle
2.0,1,3.0,3.0,551.151037216,4.0,part_1,,,,,,,,,,,,,blue,diamond
2.0,0,4.0,4.0,450.36482811,4.0,part_1,,,,,,,,,,,,,gray,hexagon
0.5,0,4.0,4.0,584.703922272,4.0,part_1,,,,,,,,,,,,,green,square
4.0,1,1.0,1.0,467.617034912,4.0,part_1,,,,,,,,,,,,,magenta,triangle
2.0,1,3.0,3.0,451.481103897,4.0,part_1,,,,,,,,,,,,,blue,diamond
2.0,0,3.0,3.0,517.731189728,4.0,part_1,,,,,,,,,,,,,gray,hexagon
1.0,0,4.0,4.0,434.194087982,4.0,part_1,,,,,,,,,,,,,cyan,flipped triangle
2.0,0,3.0,3.0,551.635026932,4.0,part_1,,,,,,,,,,,,,gray,hexagon
1.0,1,1.0,1.0,417.82617569,4.0,part_1,,,,,,,,,,,,,white,cross
1.0,1,1.0,1.0,467.267036438,4.0,part_1,,,,,,,,,,,,,white,cross
4.0,0,2.0,2.0,500.94795227099996,4.0,part_1,,,,,,,,,,,,,orange,line
4.0,1,3.0,3.0,417.69289970399996,4.0,part_1,,,,,,,,,,,,,magenta,triangle
4.0,1,4.0,4.0,434.11898613,4.0,part_1,,,,,,,,,,,,,magenta,triangle
4.0,1,4.0,4.0,384.011030197,4.0,part_1,,,,,,,,,,,,,magenta,triangle
4.0,0,1.0,1.0,484.83896255499997,4.0,part_1,,,,,,,,,,,,,orange,line
0.5,0,2.0,2.0,501.029014587,4.0,part_1,,,,,,,,,,,,,green,square
2.0,0,4.0,4.0,584.8450660709999,4.0,part_1,,,,,,,,,,,,,gray,hexagon
4.0,0,1.0,1.0,517.590999603,4.0,part_1,,,,,,,,,,,,,orange,line
1.0,1,4.0,4.0,650.8831977839999,4.0,part_1,,,,,,,,,,,,,white,cross
2.0,0,3.0,3.0,467.184066772,4.0,part_1,,,,,,,,,,,,,gray,hexagon
4.0,0,1.0,1.0,734.464168549,4.0,part_1,,,,,,,,,,,,,orange,line
1.0,1,4.0,4.0,651.256084442,4.0,part_1,,,,,,,,,,,,,white,cross
4.0,1,3.0,3.0,650.944948196,4.0,part_1,,,,,,,,,,,,,magenta,triangle
2.0,0,2.0,2.0,484.294891357,4.0,part_1,,,,,,,,,,,,,gray,hexagon
2.0,1,1.0,1.0,367.07901954700003,4.0,part_1,,,,,,,,,,,,,blue,diamond
4.0,1,2.0,2.0,500.68402290299997,4.0,part_1,,,,,,,,,,,,,magenta,triangle
0.5,0,3.0,3.0,351.269960403,4.0,part_1,,,,,,,,,,,,,green,square
1.0,0,2.0,2.0,434.245109558,4.0,part_1,,,,,,,,,,,,,cyan,flipped triangle
4.0,0,3.0,3.0,401.148080826,4.0,part_1,,,,,,,,,,,,,orange,line
1.0,1,4.0,4.0,383.970022202,4.0,part_1,,,,,,,,,,,,,white,cross
2.0,1,2.0,2.0,401.137828827,4.0,part_1,,,,,,,,,,,,,blue,diamond
4.0,0,1.0,1.0,350.15511512800003,4.0,part_1,,,,,,,,,,,,,orange,line
2.0,1,3.0,3.0,400.907993317,4.0,part_1,,,,,,,,,,,,,blue,diamond
1.0,1,2.0,2.0,333.655118942,4.0,part_1,,,,,,,,,,,,,white,cross
0.5,1,2.0,2.0,401.021003723,4.0,part_1,,,,,,,,,,,,,yellow,circle
2.0,0,2.0,2.0,434.260845184,4.0,part_1,,,,,,,,,,,,,gray,hexagon
0.5,0,1.0,1.0,434.216022491,4.0,part_1,,,,,,,,,,,,,green,square
2.0,0,2.0,2.0,401.14688873299997,4.0,part_1,,,,,,,,,,,,,gray,hexagon
0.5,0,1.0,1.0,367.017030716,4.0,part_1,,,,,,,,,,,,,green,square
0.5,0,1.0,1.0,384.19508934000004,4.0,part_1,,,,,,,,,,,,,green,square
4.0,1,2.0,2.0,500.47683715799997,4.0,part_1,,,,,,,,,,,,,magenta,triangle
4.0,0,1.0,1.0,367.496967316,4.0,part_1,,,,,,,,,,,,,orange,line
0.5,1,2.0,2.0,368.066072464,4.0,part_1,,,,,,,,,,,,,yellow,circle
4.0,1,3.0,3.0,367.676973343,4.0,part_1,,,,,,,,,,,,,magenta,triangle
0.5,0,4.0,4.0,383.840799332,4.0,part_1,,,,,,,,,,,,,green,square
0.5,0,2.0,2.0,401.54409408600003,4.0,part_1,,,,,,,,,,,,,green,square
2.0,1,1.0,1.0,351.032018661,4.0,part_1,,,,,,,,,,,,,blue,diamond
0.5,1,2.0,2.0,367.838859558,4.0,part_1,,,,,,,,,,,,,yellow,circle
0.5,0,1.0,1.0,351.577043533,4.0,part_1,,,,,,,,,,,,,green,square
0.5,1,1.0,1.0,367.695093155,4.0,part_1,,,,,,,,,,,,,yellow,circle
0.5,1,4.0,4.0,384.546995163,4.0,part_1,,,,,,,,,,,,,yellow,circle
2.0,0,3.0,3.0,350.81791877700005,4.0,part_1,,,,,,,,,,,,,gray,hexagon
2.0,0,1.0,1.0,350.975990295,4.0,part_1,,,,,,,,,,,,,gray,hexagon
2.0,0,3.0,3.0,301.156997681,4.0,part_1,,,,,,,,,,,,,gray,hexagon
1.0,1,3.0,3.0,434.192895889,4.0,part_1,,,,,,,,,,,,,white,cross
0.5,1,2.0,2.0,334.007024765,4.0,part_1,,,,,,,,,,,,,yellow,circle
4.0,0,1.0,1.0,334.22088623,4.0,part_1,,,,,,,,,,,,,orange,line
1.0,1,2.0,2.0,417.123794556,4.0,part_1,,,,,,,,,,,,,white,cross
2.0,1,3.0,3.0,384.011030197,4.0,part_1,,,,,,,,,,,,,blue,diamond
1.0,1,4.0,4.0,401.047945023,4.0,part_1,,,,,,,,,,,,,white,cross
2.0,0,3.0,3.0,318.165063858,4.0,part_1,,,,,,,,,,,,,gray,hexagon
1.0,0,3.0,3.0,334.11097526599997,4.0,part_1,,,,,,,,,,,,,cyan,flipped triangle
4.0,0,1.0,1.0,434.21506881700003,4.0,part_1,,,,,,,,,,,,,orange,line
1.0,0,4.0,4.0,334.25188064599996,4.0,part_1,,,,,,,,,,,,,cyan,flipped triangle
4.0,0,4.0,4.0,368.074178696,4.0,part_1,,,,,,,,,,,,,orange,line
0.5,0,1.0,1.0,384.22012329100005,4.0,part_1,,,,,,,,,,,,,green,square
0.5,0,4.0,4.0,350.79908371,4.0,part_1,,,,,,,,,,,,,green,square
0.5,1,4.0,4.0,334.92612838699995,4.0,part_1,,,,,,,,,,,,,yellow,circle
2.0,1,3.0,3.0,400.769948959,4.0,part_1,,,,,,,,,,,,,blue,diamond
0.5,1,2.0,2.0,367.468833923,4.0,part_1,,,,,,,,,,,,,yellow,circle
1.0,0,4.0,4.0,400.742053986,4.0,part_1,,,,,,,,,,,,,cyan,flipped triangle
0.5,1,1.0,1.0,350.40307045000003,4.0,part_1,,,,,,,,,,,,,yellow,circle
1.0,0,2.0,2.0,300.387144089,4.0,part_1,,,,,,,,,,,,,cyan,flipped triangle
2.0,1,1.0,1.0,434.70883369399996,4.0,part_1,,,,,,,,,,,,,blue,diamond
2.0,0,1.0,1.0,334.073066711,4.0,part_1,,,,,,,,,,,,,gray,hexagon
0.5,1,1.0,1.0,367.692947388,4.0,part_1,,,,,,,,,,,,,yellow,circle
4.0,1,6.0,6.0,450.478792191,1.0,part_2,stop,250.0,250.0,3.0,,,,,,,,,magenta,triangle
4.0,1,6.0,,,1.0,,stop,250.0,200.0,4.0,,,,,,,,,magenta,triangle
1.0,0,6.0,6.0,350.812911987,1.0,part_2,go,250.0,200.0,1.0,,,,,,,,,cyan,flipped triangle
1.0,1,6.0,6.0,483.924150467,1.0,part_2,go,250.0,200.0,1.0,,,,,,,,,white,cross
2.0,0,5.0,5.0,367.412090302,1.0,part_2,go,250.0,200.0,1.0,,,,,,,,,gray,hexagon
2.0,0,5.0,5.0,351.12118721,1.0,part_2,go,250.0,200.0,1.0,,,,,,,,,gray,hexagon
0.5,0,5.0,5.0,367.676973343,1.0,part_2,go,250.0,200.0,1.0,,,,,,,,,green,square
4.0,1,6.0,6.0,283.295154572,1.0,part_2,stop,250.0,250.0,3.0,,,,,,,,,magenta,triangle
0.5,1,6.0,6.0,484.01713371299996,1.0,part_2,go,250.0,250.0,1.0,,,,,,,,,yellow,circle
2.0,0,5.0,5.0,283.74195098900003,1.0,part_2,go,250.0,250.0,1.0,,,,,,,,,gray,hexagon
2.0,0,5.0,5.0,383.817911148,1.0,part_2,go,250.0,250.0,1.0,,,,,,,,,gray,hexagon
4.0,0,6.0,6.0,483.96611213700004,1.0,part_2,go,250.0,250.0,1.0,,,,,,,,,orange,line
0.5,1,5.0,5.0,384.32097435000003,1.0,part_2,go,250.0,250.0,1.0,,,,,,,,,yellow,circle
1.0,0,5.0,5.0,300.761938095,1.0,part_2,go,250.0,250.0,1.0,,,,,,,,,cyan,flipped triangle
2.0,1,5.0,5.0,317.157030106,1.0,part_2,go,250.0,250.0,1.0,,,,,,,,,blue,diamond
2.0,1,6.0,6.0,333.82296562199997,1.0,part_2,stop,250.0,200.0,3.0,,,,,,,,,blue,diamond
2.0,1,5.0,5.0,500.61607360799997,1.0,part_2,stop,250.0,200.0,3.0,,,,,,,,,blue,diamond
2.0,0,5.0,5.0,601.3669967650001,1.0,part_2,go,250.0,200.0,1.0,,,,,,,,,gray,hexagon
2.0,0,6.0,6.0,533.807992935,1.0,part_2,go,250.0,200.0,1.0,,,,,,,,,gray,hexagon
4.0,1,5.0,,,1.0,,stop,200.0,200.0,4.0,,,,,,,,,magenta,triangle
2.0,1,5.0,,,1.0,,stop,250.0,200.0,4.0,,,,,,,,,blue,diamond
2.0,1,6.0,,,1.0,,stop,250.0,150.0,4.0,,,,,,,,,blue,diamond
2.0,1,5.0,5.0,367.59018898,1.0,part_2,stop,300.0,150.0,3.0,,,,,,,,,blue,diamond
4.0,0,6.0,6.0,501.022100449,1.0,part_2,go,300.0,150.0,1.0,,,,,,,,,orange,line
0.5,0,6.0,6.0,550.9381294249999,1.0,part_2,go,300.0,150.0,1.0,,,,,,,,,green,square
2.0,0,6.0,6.0,367.827892303,1.0,part_2,go,300.0,150.0,1.0,,,,,,,,,gray,hexagon
1.0,1,6.0,6.0,450.214862823,1.0,part_2,stop,300.0,200.0,3.0,,,,,,,,,white,cross
0.5,1,6.0,,,1.0,,stop,300.0,150.0,4.0,,,,,,,,,yellow,circle
2.0,1,5.0,5.0,467.56696701,1.0,part_2,stop,250.0,150.0,3.0,,,,,,,,,blue,diamond
1.0,0,5.0,5.0,584.666967392,1.0,part_2,go,250.0,150.0,1.0,,,,,,,,,cyan,flipped triangle
4.0,1,5.0,,,1.0,,stop,200.0,150.0,4.0,,,,,,,,,magenta,triangle
1.0,1,6.0,,,1.0,,stop,200.0,200.0,4.0,,,,,,,,,white,cross
1.0,1,5.0,,,1.0,,stop,250.0,200.0,4.0,,,,,,,,,white,cross
2.0,1,6.0,,,1.0,,stop,250.0,250.0,4.0,,,,,,,,,blue,diamond
4.0,1,5.0,,,1.0,,stop,300.0,250.0,4.0,,,,,,,,,magenta,triangle
2.0,1,6.0,,,1.0,,stop,300.0,300.0,4.0,,,,,,,,,blue,diamond
1.0,1,5.0,5.0,467.176914215,2.0,part_2,stop,350.0,300.0,3.0,,,,,,,,,white,cross
0.5,1,5.0,,,2.0,,stop,300.0,300.0,4.0,,,,,,,,,yellow,circle
4.0,0,5.0,5.0,601.588964462,2.0,part_2,go,300.0,300.0,1.0,,,,,,,,,orange,line
1.0,1,6.0,6.0,533.800840378,2.0,part_2,go,300.0,300.0,1.0,,,,,,,,,white,cross
1.0,0,6.0,6.0,400.481939316,2.0,part_2,go,300.0,300.0,1.0,,,,,,,,,cyan,flipped triangle
2.0,0,5.0,5.0,468.053102493,2.0,part_2,go,300.0,300.0,1.0,,,,,,,,,gray,hexagon
1.0,1,5.0,,,2.0,,stop,350.0,300.0,4.0,,,,,,,,,white,cross
2.0,1,6.0,6.0,534.6310138700001,2.0,part_2,stop,350.0,350.0,3.0,,,,,,,,,blue,diamond
4.0,0,5.0,5.0,517.2369480130001,2.0,part_2,go,350.0,350.0,1.0,,,,,,,,,orange,line
2.0,0,5.0,5.0,501.04212760900003,2.0,part_2,go,350.0,350.0,1.0,,,,,,,,,gray,hexagon
4.0,0,5.0,5.0,517.252922058,2.0,part_2,go,350.0,350.0,1.0,,,,,,,,,orange,line
4.0,1,5.0,5.0,483.829975128,2.0,part_2,stop,400.0,350.0,3.0,,,,,,,,,magenta,triangle
1.0,0,6.0,6.0,684.449911118,2.0,part_2,go,400.0,350.0,1.0,,,,,,,,,cyan,flipped triangle
0.5,0,6.0,6.0,484.627962112,2.0,part_2,go,400.0,350.0,1.0,,,,,,,,,green,square
0.5,1,6.0,6.0,534.3170166020001,2.0,part_2,go,400.0,350.0,1.0,,,,,,,,,yellow,circle
0.5,1,6.0,6.0,367.292881012,2.0,part_2,go,400.0,350.0,1.0,,,,,,,,,yellow,circle
4.0,1,6.0,,,2.0,,stop,400.0,300.0,4.0,,,,,,,,,magenta,triangle
0.5,1,6.0,6.0,584.214925766,2.0,part_2,go,400.0,300.0,1.0,,,,,,,,,yellow,circle
4.0,1,5.0,5.0,450.814962387,2.0,part_2,go,400.0,300.0,1.0,,,,,,,,,magenta,triangle
4.0,0,6.0,6.0,450.897932053,2.0,part_2,go,400.0,300.0,1.0,,,,,,,,,orange,line
1.0,0,5.0,5.0,450.527191162,2.0,part_2,go,400.0,300.0,1.0,,,,,,,,,cyan,flipped triangle
4.0,1,6.0,6.0,434.628009796,2.0,part_2,go,400.0,300.0,1.0,,,,,,,,,magenta,triangle
4.0,0,5.0,5.0,634.4718933109999,2.0,part_2,go,400.0,300.0,1.0,,,,,,,,,orange,line
1.0,0,5.0,5.0,433.68601799,2.0,part_2,go,400.0,300.0,1.0,,,,,,,,,cyan,flipped triangle
0.5,1,5.0,5.0,350.871801376,2.0,part_2,stop,350.0,300.0,3.0,,,,,,,,,yellow,circle
2.0,1,6.0,6.0,550.955057144,2.0,part_2,go,350.0,300.0,1.0,,,,,,,,,blue,diamond
1.0,0,5.0,5.0,467.55695342999996,2.0,part_2,go,350.0,300.0,1.0,,,,,,,,,cyan,flipped triangle
1.0,0,6.0,6.0,351.037025452,2.0,part_2,go,350.0,300.0,1.0,,,,,,,,,cyan,flipped triangle
1.0,0,6.0,6.0,367.536067963,2.0,part_2,go,350.0,300.0,1.0,,,,,,,,,cyan,flipped triangle
0.5,1,6.0,6.0,484.934091568,2.0,part_2,stop,350.0,350.0,3.0,,,,,,,,,yellow,circle
2.0,0,6.0,6.0,651.147842407,2.0,part_2,go,350.0,350.0,1.0,,,,,,,,,gray,hexagon
2.0,0,5.0,5.0,484.06219482399996,2.0,part_2,go,350.0,350.0,1.0,,,,,,,,,gray,hexagon
4.0,1,6.0,6.0,400.53486824,2.0,part_2,stop,350.0,300.0,3.0,,,,,,,,,magenta,triangle
0.5,0,6.0,6.0,583.983898163,2.0,part_2,go,350.0,300.0,1.0,,,,,,,,,green,square
0.5,1,5.0,,,2.0,,stop,300.0,300.0,4.0,,,,,,,,,yellow,circle
2.0,0,5.0,5.0,584.282159805,2.0,part_2,go,300.0,300.0,1.0,,,,,,,,,gray,hexagon
0.5,1,6.0,6.0,417.598962784,3.0,part_2,go,300.0,300.0,1.0,,,,,,,,,yellow,circle
1.0,1,6.0,,,3.0,,stop,300.0,250.0,4.0,,,,,,,,,white,cross
4.0,1,6.0,6.0,383.926868439,3.0,part_2,go,300.0,250.0,1.0,,,,,,,,,magenta,triangle
0.5,1,6.0,6.0,333.75787735,3.0,part_2,go,300.0,250.0,1.0,,,,,,,,,yellow,circle
1.0,0,6.0,6.0,601.1359691619999,3.0,part_2,go,300.0,250.0,1.0,,,,,,,,,cyan,flipped triangle
1.0,1,6.0,6.0,467.33999252300003,3.0,part_2,stop,300.0,300.0,3.0,,,,,,,,,white,cross
1.0,0,5.0,5.0,567.803859711,3.0,part_2,go,300.0,300.0,1.0,,,,,,,,,cyan,flipped triangle
2.0,0,5.0,5.0,518.182039261,3.0,part_2,go,300.0,300.0,1.0,,,,,,,,,gray,hexagon
1.0,1,6.0,6.0,433.833122253,3.0,part_2,go,300.0,300.0,1.0,,,,,,,,,white,cross
0.5,0,6.0,6.0,534.670114517,3.0,part_2,go,300.0,300.0,1.0,,,,,,,,,green,square
4.0,0,6.0,6.0,383.859872818,3.0,part_2,go,300.0,300.0,1.0,,,,,,,,,orange,line
2.0,0,6.0,6.0,534.4657897950001,3.0,part_2,go,300.0,300.0,1.0,,,,,,,,,gray,hexagon
1.0,1,6.0,6.0,417.140960693,3.0,part_2,stop,300.0,250.0,3.0,,,,,,,,,white,cross
4.0,0,6.0,6.0,550.704956055,3.0,part_2,go,300.0,250.0,1.0,,,,,,,,,orange,line
0.5,0,6.0,6.0,467.837810516,3.0,part_2,go,300.0,250.0,1.0,,,,,,,,,green,square
4.0,1,5.0,5.0,367.299079895,3.0,part_2,stop,350.0,250.0,3.0,,,,,,,,,magenta,triangle
1.0,0,5.0,5.0,668.4241294860001,3.0,part_2,go,350.0,250.0,1.0,,,,,,,,,cyan,flipped triangle
2.0,0,5.0,5.0,517.8279876710001,3.0,part_2,go,350.0,250.0,1.0,,,,,,,,,gray,hexagon
2.0,1,5.0,5.0,400.687932968,3.0,part_2,stop,300.0,250.0,3.0,,,,,,,,,blue,diamond
4.0,1,6.0,,,3.0,,stop,300.0,200.0,4.0,,,,,,,,,magenta,triangle
2.0,0,6.0,6.0,584.307909012,3.0,part_2,go,300.0,200.0,1.0,,,,,,,,,gray,hexagon
2.0,1,6.0,,,3.0,,stop,300.0,250.0,4.0,,,,,,,,,blue,diamond
0.5,1,5.0,,,3.0,,stop,250.0,250.0,4.0,,,,,,,,,yellow,circle
1.0,0,5.0,5.0,584.4519138339999,3.0,part_2,go,250.0,250.0,1.0,,,,,,,,,cyan,flipped triangle
4.0,0,6.0,6.0,350.352048874,3.0,part_2,go,250.0,250.0,1.0,,,,,,,,,orange,line
0.5,0,5.0,5.0,551.071882248,3.0,part_2,go,250.0,250.0,1.0,,,,,,,,,green,square
1.0,1,5.0,5.0,451.31993293799997,3.0,part_2,stop,300.0,250.0,3.0,,,,,,,,,white,cross
2.0,1,5.0,5.0,633.95190239,3.0,part_2,go,300.0,250.0,1.0,,,,,,,,,blue,diamond
2.0,1,5.0,5.0,434.003829956,3.0,part_2,go,300.0,250.0,1.0,,,,,,,,,blue,diamond
4.0,0,5.0,5.0,534.4779491419999,3.0,part_2,go,300.0,250.0,1.0,,,,,,,,,orange,line
4.0,0,5.0,5.0,700.763940811,3.0,part_2,go,300.0,250.0,1.0,,,,,,,,,orange,line
1.0,1,5.0,,,3.0,,stop,250.0,250.0,4.0,,,,,,,,,white,cross
1.0,1,5.0,5.0,634.498119354,3.0,part_2,go,250.0,250.0,1.0,,,,,,,,,white,cross
2.0,0,5.0,5.0,650.7039070129999,3.0,part_2,go,250.0,250.0,1.0,,,,,,,,,gray,hexagon
4.0,1,5.0,,,3.0,,stop,300.0,250.0,4.0,,,,,,,,,magenta,triangle
1.0,0,6.0,6.0,617.609024048,3.0,part_2,go,300.0,250.0,1.0,,,,,,,,,cyan,flipped triangle
1.0,0,6.0,6.0,333.988189697,4.0,part_2,go,300.0,250.0,1.0,,,,,,,,,cyan,flipped triangle
4.0,1,5.0,5.0,467.555046082,4.0,part_2,stop,350.0,250.0,3.0,,,,,,,,,magenta,triangle
0.5,0,6.0,6.0,567.177057266,4.0,part_2,go,350.0,250.0,1.0,,,,,,,,,green,square
1.0,0,5.0,5.0,334.051847458,4.0,part_2,go,350.0,250.0,1.0,,,,,,,,,cyan,flipped triangle
2.0,0,6.0,6.0,450.764894485,4.0,part_2,go,350.0,250.0,1.0,,,,,,,,,gray,hexagon
4.0,0,5.0,5.0,400.72512626599996,4.0,part_2,go,350.0,250.0,1.0,,,,,,,,,orange,line
2.0,0,6.0,6.0,484.19690132100004,4.0,part_2,go,350.0,250.0,1.0,,,,,,,,,gray,hexagon
4.0,1,6.0,6.0,400.855779648,4.0,part_2,stop,350.0,300.0,3.0,,,,,,,,,magenta,triangle
2.0,1,5.0,5.0,450.699806213,4.0,part_2,stop,300.0,300.0,3.0,,,,,,,,,blue,diamond
1.0,1,6.0,,,4.0,,stop,300.0,250.0,4.0,,,,,,,,,white,cross
4.0,0,5.0,5.0,667.6628589630001,4.0,part_2,go,300.0,250.0,1.0,,,,,,,,,orange,line
2.0,1,5.0,,,4.0,,stop,250.0,250.0,4.0,,,,,,,,,blue,diamond
1.0,1,6.0,,,4.0,,stop,250.0,300.0,4.0,,,,,,,,,white,cross
1.0,0,6.0,6.0,634.418010712,4.0,part_2,go,250.0,300.0,1.0,,,,,,,,,cyan,flipped triangle
0.5,0,5.0,5.0,618.155002594,4.0,part_2,go,250.0,300.0,1.0,,,,,,,,,green,square
0.5,0,5.0,5.0,551.171064377,4.0,part_2,go,250.0,300.0,1.0,,,,,,,,,green,square
0.5,0,6.0,6.0,417.927026749,4.0,part_2,go,250.0,300.0,1.0,,,,,,,,,green,square
4.0,1,6.0,6.0,467.953920364,4.0,part_2,stop,250.0,350.0,3.0,,,,,,,,,magenta,triangle
0.5,1,5.0,,,4.0,,stop,300.0,350.0,4.0,,,,,,,,,yellow,circle
2.0,1,6.0,,,4.0,,stop,300.0,300.0,4.0,,,,,,,,,blue,diamond
1.0,1,5.0,,,4.0,,stop,350.0,300.0,4.0,,,,,,,,,white,cross
1.0,1,5.0,,,4.0,,stop,400.0,300.0,4.0,,,,,,,,,white,cross
0.5,1,6.0,,,4.0,,stop,400.0,350.0,4.0,,,,,,,,,yellow,circle
4.0,0,5.0,5.0,684.47804451,4.0,part_2,go,400.0,350.0,1.0,,,,,,,,,orange,line
0.5,1,5.0,5.0,617.923021317,4.0,part_2,stop,450.0,350.0,3.0,,,,,,,,,yellow,circle
0.5,0,5.0,5.0,685.039997101,4.0,part_2,go,450.0,350.0,1.0,,,,,,,,,green,square
0.5,1,5.0,5.0,584.4860076900001,4.0,part_2,stop,400.0,350.0,3.0,,,,,,,,,yellow,circle
1.0,0,5.0,5.0,868.1960105899999,4.0,part_2,go,400.0,350.0,1.0,,,,,,,,,cyan,flipped triangle
1.0,1,5.0,,,4.0,,stop,350.0,350.0,4.0,,,,,,,,,white,cross
2.0,1,6.0,,,4.0,,stop,350.0,400.0,4.0,,,,,,,,,blue,diamond
0.5,1,6.0,,,4.0,,stop,350.0,450.0,4.0,,,,,,,,,yellow,circle
1.0,0,6.0,6.0,634.3178749079999,4.0,part_2,go,350.0,450.0,1.0,,,,,,,,,cyan,flipped triangle
4.0,1,6.0,6.0,767.611980438,4.0,part_2,go,350.0,450.0,1.0,,,,,,,,,magenta,triangle
2.0,0,6.0,6.0,750.8549690250001,4.0,part_2,go,350.0,450.0,1.0,,,,,,,,,gray,hexagon
2.0,0,5.0,5.0,767.767190933,4.0,part_2,go,350.0,450.0,1.0,,,,,,,,,gray,hexagon
1.0,0,6.0,6.0,684.844017029,4.0,part_2,go,350.0,450.0,1.0,,,,,,,,,cyan,flipped triangle
1.0,0,5.0,5.0,501.049995422,5.0,part_2,go,350.0,450.0,1.0,,,,,,,,,cyan,flipped triangle
4.0,1,6.0,6.0,534.0740680690001,5.0,part_2,stop,350.0,500.0,3.0,,,,,,,,,magenta,triangle
0.5,0,5.0,5.0,334.38897132899996,5.0,part_2,go,350.0,500.0,1.0,,,,,,,,,green,square
2.0,1,5.0,5.0,384.60278511,5.0,part_2,stop,400.0,500.0,3.0,,,,,,,,,blue,diamond
1.0,0,5.0,5.0,501.34301185600003,5.0,part_2,go,400.0,500.0,1.0,,,,,,,,,cyan,flipped triangle
4.0,0,5.0,5.0,350.825071335,5.0,part_2,go,400.0,500.0,1.0,,,,,,,,,orange,line
0.5,0,6.0,6.0,367.65193939200003,5.0,part_2,go,400.0,500.0,1.0,,,,,,,,,green,square
0.5,0,5.0,5.0,350.631952286,5.0,part_2,go,400.0,500.0,1.0,,,,,,,,,green,square
0.5,0,5.0,5.0,584.828853607,5.0,part_2,go,400.0,500.0,1.0,,,,,,,,,green,square
2.0,1,6.0,6.0,367.531061172,5.0,part_2,stop,400.0,450.0,3.0,,,,,,,,,blue,diamond
0.5,1,6.0,,,5.0,,stop,400.0,400.0,4.0,,,,,,,,,yellow,circle
1.0,1,5.0,5.0,717.824935913,5.0,part_2,go,400.0,400.0,1.0,,,,,,,,,white,cross
0.5,1,5.0,,,5.0,,stop,350.0,400.0,4.0,,,,,,,,,yellow,circle
4.0,1,6.0,6.0,551.367998123,5.0,part_2,stop,350.0,450.0,3.0,,,,,,,,,magenta,triangle
2.0,1,5.0,,,5.0,,stop,400.0,450.0,4.0,,,,,,,,,blue,diamond
1.0,0,5.0,5.0,684.6158504489999,5.0,part_2,go,400.0,450.0,1.0,,,,,,,,,cyan,flipped triangle
4.0,1,6.0,6.0,717.797040939,5.0,part_2,go,400.0,450.0,1.0,,,,,,,,,magenta,triangle
1.0,0,6.0,6.0,751.0459423069999,5.0,part_2,go,400.0,450.0,1.0,,,,,,,,,cyan,flipped triangle
4.0,0,5.0,5.0,567.5599575040001,5.0,part_2,go,400.0,450.0,1.0,,,,,,,,,orange,line
0.5,1,5.0,5.0,350.363016129,5.0,part_2,stop,450.0,450.0,3.0,,,,,,,,,yellow,circle
2.0,1,5.0,5.0,701.037168503,5.0,part_2,go,450.0,450.0,1.0,,,,,,,,,blue,diamond
2.0,1,6.0,6.0,501.12915039100005,5.0,part_2,go,450.0,450.0,1.0,,,,,,,,,blue,diamond
2.0,1,6.0,6.0,417.66595840499997,5.0,part_2,stop,450.0,400.0,3.0,,,,,,,,,blue,diamond
4.0,0,6.0,6.0,817.9039955139999,5.0,part_2,go,450.0,400.0,1.0,,,,,,,,,orange,line
4.0,1,5.0,,,5.0,,stop,400.0,400.0,4.0,,,,,,,,,magenta,triangle
2.0,0,6.0,6.0,600.682020187,5.0,part_2,go,400.0,400.0,1.0,,,,,,,,,gray,hexagon
0.5,1,5.0,5.0,601.402044296,5.0,part_2,stop,450.0,400.0,3.0,,,,,,,,,yellow,circle
0.5,1,6.0,,,5.0,,stop,450.0,350.0,4.0,,,,,,,,,yellow,circle
2.0,1,6.0,6.0,784.803152084,5.0,part_2,go,450.0,350.0,1.0,,,,,,,,,blue,diamond
0.5,1,6.0,6.0,434.526920319,5.0,part_2,stop,450.0,400.0,3.0,,,,,,,,,yellow,circle
1.0,1,5.0,,,5.0,,stop,400.0,400.0,4.0,,,,,,,,,white,cross
0.5,1,6.0,6.0,551.306962967,5.0,part_2,stop,400.0,350.0,3.0,,,,,,,,,yellow,circle
2.0,1,6.0,,,5.0,,stop,400.0,300.0,4.0,,,,,,,,,blue,diamond
2.0,0,6.0,6.0,767.9231166840001,5.0,part_2,go,400.0,300.0,1.0,,,,,,,,,gray,hexagon
4.0,0,5.0,5.0,417.47808456399997,5.0,part_2,go,400.0,300.0,1.0,,,,,,,,,orange,line
1.0,1,6.0,6.0,667.6888465879999,5.0,part_2,go,400.0,300.0,1.0,,,,,,,,,white,cross
0.5,0,6.0,6.0,417.286157608,6.0,part_2,go,400.0,300.0,1.0,,,,,,,,,green,square
2.0,1,5.0,5.0,450.831890106,6.0,part_2,stop,450.0,300.0,3.0,,,,,,,,,blue,diamond
4.0,1,5.0,5.0,751.774072647,6.0,part_2,go,450.0,300.0,1.0,,,,,,,,,magenta,triangle
1.0,1,6.0,,,6.0,,stop,450.0,350.0,4.0,,,,,,,,,white,cross
4.0,1,5.0,5.0,850.790023804,6.0,part_2,go,450.0,350.0,1.0,,,,,,,,,magenta,triangle
0.5,0,5.0,5.0,617.8488731379999,6.0,part_2,go,450.0,350.0,1.0,,,,,,,,,green,square
1.0,0,6.0,6.0,517.3518657679999,6.0,part_2,go,450.0,350.0,1.0,,,,,,,,,cyan,flipped triangle
0.5,1,6.0,,,6.0,,stop,450.0,400.0,4.0,,,,,,,,,yellow,circle
2.0,0,5.0,5.0,684.886932373,6.0,part_2,go,450.0,400.0,1.0,,,,,,,,,gray,hexagon
1.0,1,6.0,6.0,717.6668643950001,6.0,part_2,stop,450.0,450.0,3.0,,,,,,,,,white,cross
0.5,0,6.0,6.0,700.762987137,6.0,part_2,go,450.0,450.0,1.0,,,,,,,,,green,square
4.0,0,5.0,5.0,600.7821559910001,6.0,part_2,go,450.0,450.0,1.0,,,,,,,,,orange,line
2.0,0,6.0,6.0,550.992965698,6.0,part_2,go,450.0,450.0,1.0,,,,,,,,,gray,hexagon
4.0,0,5.0,5.0,417.370080948,6.0,part_2,go,450.0,450.0,1.0,,,,,,,,,orange,line
1.0,0,5.0,5.0,484.017848969,6.0,part_2,go,450.0,450.0,1.0,,,,,,,,,cyan,flipped triangle
0.5,0,5.0,5.0,517.613172531,6.0,part_2,go,450.0,450.0,1.0,,,,,,,,,green,square
0.5,1,5.0,,,6.0,,stop,400.0,450.0,4.0,,,,,,,,,yellow,circle
0.5,0,6.0,6.0,918.406009674,6.0,part_2,go,400.0,450.0,1.0,,,,,,,,,green,square
2.0,0,6.0,6.0,584.9499702449999,6.0,part_2,go,400.0,450.0,1.0,,,,,,,,,gray,hexagon
4.0,0,5.0,5.0,417.613983154,6.0,part_2,go,400.0,450.0,1.0,,,,,,,,,orange,line
1.0,0,6.0,6.0,601.500988007,6.0,part_2,go,400.0,450.0,1.0,,,,,,,,,cyan,flipped triangle
4.0,0,6.0,6.0,618.105173111,6.0,part_2,go,400.0,450.0,1.0,,,,,,,,,orange,line
0.5,1,6.0,6.0,634.174108505,6.0,part_2,go,400.0,450.0,1.0,,,,,,,,,yellow,circle
0.5,1,5.0,5.0,551.017045975,6.0,part_2,stop,450.0,450.0,3.0,,,,,,,,,yellow,circle
2.0,1,5.0,,,6.0,,stop,400.0,450.0,4.0,,,,,,,,,blue,diamond
4.0,1,6.0,,,6.0,,stop,400.0,400.0,4.0,,,,,,,,,magenta,triangle
0.5,1,6.0,6.0,618.030071259,6.0,part_2,stop,400.0,450.0,3.0,,,,,,,,,yellow,circle
1.0,0,5.0,5.0,684.128046036,6.0,part_2,go,400.0,450.0,1.0,,,,,,,,,cyan,flipped triangle
1.0,0,6.0,6.0,684.8299503329999,6.0,part_2,go,400.0,450.0,1.0,,,,,,,,,cyan,flipped triangle
0.5,0,5.0,5.0,684.8940849300001,6.0,part_2,go,400.0,450.0,1.0,,,,,,,,,green,square
1.0,1,6.0,6.0,401.417970657,6.0,part_2,stop,400.0,400.0,3.0,,,,,,,,,white,cross
2.0,0,5.0,5.0,567.18993187,6.0,part_2,go,400.0,400.0,1.0,,,,,,,,,gray,hexagon
4.0,1,5.0,,,6.0,,stop,450.0,400.0,4.0,,,,,,,,,magenta,triangle
1.0,1,5.0,,,6.0,,stop,500.0,400.0,4.0,,,,,,,,,white,cross
2.0,0,6.0,6.0,767.681121826,6.0,part_2,go,500.0,400.0,1.0,,,,,,,,,gray,hexagon
0.5,1,6.0,,,6.0,,stop,500.0,350.0,4.0,,,,,,,,,yellow,circle
2.0,0,6.0,6.0,434.329986572,7.0,part_2,go,500.0,350.0,1.0,,,,,,,,,gray,hexagon
0.5,0,5.0,5.0,400.721073151,7.0,part_2,go,500.0,350.0,1.0,,,,,,,,,green,square
1.0,1,5.0,5.0,401.09705925,7.0,part_2,stop,550.0,350.0,3.0,,,,,,,,,white,cross
0.5,1,6.0,6.0,267.165899277,7.0,part_2,stop,550.0,400.0,3.0,,,,,,,,,yellow,circle
0.5,1,5.0,5.0,617.795944214,7.0,part_2,go,550.0,400.0,1.0,,,,,,,,,yellow,circle
4.0,0,5.0,5.0,383.867025375,7.0,part_2,go,550.0,400.0,1.0,,,,,,,,,orange,line
1.0,0,5.0,5.0,517.4648761750001,7.0,part_2,go,550.0,400.0,1.0,,,,,,,,,cyan,flipped triangle
4.0,1,6.0,6.0,301.343917847,7.0,part_2,stop,550.0,350.0,3.0,,,,,,,,,magenta,triangle
2.0,1,5.0,5.0,500.940799713,7.0,part_2,go,550.0,350.0,1.0,,,,,,,,,blue,diamond
0.5,0,6.0,6.0,317.722082138,7.0,part_2,go,550.0,350.0,1.0,,,,,,,,,green,square
2.0,0,5.0,5.0,367.27023124699997,7.0,part_2,go,550.0,350.0,1.0,,,,,,,,,gray,hexagon
1.0,0,6.0,6.0,283.86306762699996,7.0,part_2,go,550.0,350.0,1.0,,,,,,,,,cyan,flipped triangle
1.0,1,6.0,6.0,601.628065109,7.0,part_2,go,550.0,350.0,1.0,,,,,,,,,white,cross
4.0,1,5.0,5.0,400.89678764300004,7.0,part_2,go,550.0,350.0,1.0,,,,,,,,,magenta,triangle
4.0,0,6.0,6.0,434.51309204100005,7.0,part_2,go,550.0,350.0,1.0,,,,,,,,,orange,line
1.0,0,5.0,5.0,283.963918686,7.0,part_2,go,550.0,350.0,1.0,,,,,,,,,cyan,flipped triangle
2.0,0,6.0,6.0,333.81319046000004,7.0,part_2,go,550.0,350.0,1.0,,,,,,,,,gray,hexagon
0.5,0,5.0,5.0,367.484092712,7.0,part_2,go,550.0,350.0,1.0,,,,,,,,,green,square
2.0,0,5.0,5.0,601.21679306,7.0,part_2,go,550.0,350.0,1.0,,,,,,,,,gray,hexagon
4.0,1,5.0,5.0,550.508022308,7.0,part_2,stop,500.0,350.0,3.0,,,,,,,,,magenta,triangle
2.0,0,5.0,5.0,500.597953796,7.0,part_2,go,500.0,350.0,1.0,,,,,,,,,gray,hexagon
0.5,1,6.0,6.0,467.596054077,7.0,part_2,stop,500.0,300.0,3.0,,,,,,,,,yellow,circle
1.0,1,6.0,6.0,801.264047623,7.0,part_2,go,500.0,300.0,1.0,,,,,,,,,white,cross
2.0,0,5.0,5.0,550.621032715,7.0,part_2,go,500.0,300.0,1.0,,,,,,,,,gray,hexagon
2.0,1,6.0,6.0,383.743047714,7.0,part_2,stop,500.0,250.0,3.0,,,,,,,,,blue,diamond
1.0,1,5.0,,,7.0,,stop,450.0,250.0,4.0,,,,,,,,,white,cross
4.0,0,6.0,6.0,784.4018936159999,7.0,part_2,go,450.0,250.0,1.0,,,,,,,,,orange,line
4.0,0,6.0,6.0,483.76178741499996,7.0,part_2,go,450.0,250.0,1.0,,,,,,,,,orange,line
2.0,1,5.0,5.0,634.84621048,7.0,part_2,stop,500.0,250.0,3.0,,,,,,,,,blue,diamond
4.0,0,5.0,5.0,667.757034302,7.0,part_2,go,500.0,250.0,1.0,,,,,,,,,orange,line
4.0,1,6.0,,,7.0,,stop,500.0,200.0,4.0,,,,,,,,,magenta,triangle
0.5,0,6.0,6.0,517.986059189,7.0,part_2,go,500.0,200.0,1.0,,,,,,,,,green,square
0.5,0,6.0,6.0,551.036119461,7.0,part_2,go,500.0,200.0,1.0,,,,,,,,,green,square
0.5,0,6.0,6.0,534.1749191279999,7.0,part_2,go,500.0,200.0,1.0,,,,,,,,,green,square
4.0,0,6.0,6.0,584.55491066,7.0,part_2,go,500.0,200.0,1.0,,,,,,,,,orange,line
4.0,1,5.0,5.0,517.683029175,7.0,part_2,stop,450.0,200.0,3.0,,,,,,,,,magenta,triangle
0.5,0,5.0,5.0,350.886106491,8.0,part_2,go,450.0,200.0,1.0,,,,,,,,,green,square
2.0,1,6.0,6.0,450.92797279399997,8.0,part_2,go,450.0,200.0,1.0,,,,,,,,,blue,diamond
0.5,0,6.0,6.0,367.155075073,8.0,part_2,go,450.0,200.0,1.0,,,,,,,,,green,square
2.0,1,6.0,6.0,317.79718399,8.0,part_2,stop,450.0,250.0,3.0,,,,,,,,,blue,diamond
1.0,0,5.0,5.0,567.677021027,8.0,part_2,go,450.0,250.0,1.0,,,,,,,,,cyan,flipped triangle
4.0,0,6.0,6.0,467.58413314800003,8.0,part_2,go,450.0,250.0,1.0,,,,,,,,,orange,line
2.0,1,6.0,,,8.0,,stop,450.0,200.0,4.0,,,,,,,,,blue,diamond
2.0,0,5.0,5.0,568.055152893,8.0,part_2,go,450.0,200.0,1.0,,,,,,,,,gray,hexagon
0.5,1,5.0,5.0,500.78988075300003,8.0,part_2,stop,400.0,200.0,3.0,,,,,,,,,yellow,circle
0.5,0,6.0,6.0,600.696086884,8.0,part_2,go,400.0,200.0,1.0,,,,,,,,,green,square
0.5,0,5.0,5.0,534.229040146,8.0,part_2,go,400.0,200.0,1.0,,,,,,,,,green,square
4.0,1,6.0,6.0,584.117889404,8.0,part_2,go,400.0,200.0,1.0,,,,,,,,,magenta,triangle
0.5,0,6.0,6.0,534.451961517,8.0,part_2,go,400.0,200.0,1.0,,,,,,,,,green,square
4.0,0,6.0,6.0,717.622995377,8.0,part_2,go,400.0,200.0,1.0,,,,,,,,,orange,line
2.0,0,5.0,5.0,601.475000381,8.0,part_2,go,400.0,200.0,1.0,,,,,,,,,gray,hexagon
4.0,1,6.0,6.0,367.969989777,8.0,part_2,stop,400.0,250.0,3.0,,,,,,,,,magenta,triangle
1.0,1,5.0,5.0,483.886003494,8.0,part_2,go,400.0,250.0,1.0,,,,,,,,,white,cross
0.5,0,5.0,5.0,734.1539859769999,8.0,part_2,go,400.0,250.0,1.0,,,,,,,,,green,square
1.0,1,5.0,,,8.0,,stop,350.0,250.0,4.0,,,,,,,,,white,cross
1.0,1,6.0,,,8.0,,stop,350.0,200.0,4.0,,,,,,,,,white,cross
0.5,0,5.0,5.0,701.1950016019999,8.0,part_2,go,350.0,200.0,1.0,,,,,,,,,green,square
1.0,0,6.0,6.0,368.078231812,8.0,part_2,go,350.0,200.0,1.0,,,,,,,,,cyan,flipped triangle
4.0,0,5.0,5.0,534.841775894,8.0,part_2,go,350.0,200.0,1.0,,,,,,,,,orange,line
4.0,1,6.0,,,8.0,,stop,350.0,250.0,4.0,,,,,,,,,magenta,triangle
4.0,0,5.0,5.0,850.95000267,8.0,part_2,go,350.0,250.0,1.0,,,,,,,,,orange,line
4.0,1,6.0,,,8.0,,stop,350.0,300.0,4.0,,,,,,,,,magenta,triangle
1.0,1,5.0,5.0,433.851957321,8.0,part_2,stop,400.0,300.0,3.0,,,,,,,,,white,cross
0.5,1,5.0,,,8.0,,stop,350.0,300.0,4.0,,,,,,,,,yellow,circle
4.0,0,6.0,6.0,567.775011063,8.0,part_2,go,350.0,300.0,1.0,,,,,,,,,orange,line
1.0,1,5.0,,,8.0,,stop,400.0,300.0,4.0,,,,,,,,,white,cross
2.0,1,5.0,5.0,534.6500873570001,8.0,part_2,stop,450.0,300.0,3.0,,,,,,,,,blue,diamond
4.0,0,5.0,5.0,784.3601703639999,8.0,part_2,go,450.0,300.0,1.0,,,,,,,,,orange,line
0.5,0,6.0,6.0,634.220838547,8.0,part_2,go,450.0,300.0,1.0,,,,,,,,,green,square
4.0,0,6.0,6.0,685.019016266,8.0,part_2,go,450.0,300.0,1.0,,,,,,,,,orange,line
1.0,1,5.0,5.0,500.40316581699994,8.0,part_2,stop,400.0,300.0,3.0,,,,,,,,,white,cross
1.0,0,6.0,6.0,467.37694740300003,8.0,part_2,go,400.0,300.0,1.0,,,,,,,,,cyan,flipped triangle
1.0,1,7.0,2.0,4255.313873290001,1.0,part_3,stop,,,,108.0,2.0,270.0,108.0,162.0,54.0,324.0,216.0,white,cross
1.0,0,7.0,,,1.0,,go,,,,0.0,,88.0,176.0,44.0,264.0,132.0,220.0,cyan,flipped triangle
2.0,0,7.0,2.0,2486.22512817,1.0,part_3,go,,,,216.0,4.0,324.0,216.0,162.0,270.0,108.0,54.0,gray,hexagon
2.0,1,7.0,4.0,3354.3469905899997,1.0,part_3,stop,,,,196.0,4.0,147.0,294.0,49.0,196.0,98.0,245.0,blue,diamond
0.5,1,7.0,5.0,2369.14896965,1.0,part_3,stop,,,,68.0,2.0,34.0,170.0,136.0,102.0,68.0,204.0,yellow,circle
1.0,1,7.0,5.0,3386.90209389,1.0,part_3,stop,,,,98.0,2.0,294.0,196.0,49.0,245.0,98.0,147.0,white,cross
0.5,0,7.0,3.0,3737.6141548200003,1.0,part_3,go,,,,270.0,5.0,162.0,324.0,270.0,54.0,108.0,216.0,green,square
4.0,0,7.0,2.0,3137.47215271,1.0,part_3,go,,,,204.0,6.0,170.0,204.0,136.0,102.0,68.0,34.0,orange,line
0.5,1,7.0,3.0,1735.81004143,1.0,part_3,stop,,,,54.0,1.0,162.0,216.0,54.0,108.0,324.0,270.0,yellow,circle
2.0,0,7.0,2.0,2186.05899811,1.0,part_3,go,,,,195.0,5.0,78.0,195.0,117.0,234.0,156.0,39.0,gray,hexagon
0.5,0,7.0,1.0,2052.5741577100002,1.0,part_3,go,,,,34.0,1.0,34.0,68.0,204.0,136.0,102.0,170.0,green,square
4.0,1,7.0,4.0,2919.63100433,1.0,part_3,stop,,,,264.0,6.0,176.0,220.0,44.0,264.0,88.0,132.0,magenta,triangle
2.0,0,7.0,5.0,2719.62308884,1.0,part_3,go,,,,196.0,4.0,294.0,147.0,49.0,98.0,196.0,245.0,gray,hexagon
0.5,0,7.0,2.0,3471.2040424300003,1.0,part_3,go,,,,39.0,1.0,156.0,39.0,195.0,117.0,78.0,234.0,green,square
4.0,1,7.0,2.0,2235.97121239,1.0,part_3,stop,,,,204.0,6.0,102.0,204.0,170.0,34.0,68.0,136.0,magenta,triangle
1.0,0,7.0,6.0,4371.01101875,1.0,part_3,go,,,,98.0,2.0,49.0,245.0,294.0,147.0,196.0,98.0,cyan,flipped triangle
0.5,0,7.0,6.0,1501.65200233,1.0,part_3,go,,,,54.0,1.0,270.0,216.0,108.0,324.0,162.0,54.0,green,square
4.0,0,7.0,3.0,1701.9221782700001,1.0,part_3,go,,,,234.0,6.0,117.0,156.0,234.0,78.0,39.0,195.0,orange,line
2.0,1,7.0,3.0,4187.59417534,1.0,part_3,stop,,,,162.0,3.0,324.0,270.0,162.0,216.0,54.0,108.0,blue,diamond
1.0,0,7.0,4.0,3303.98583412,1.0,part_3,go,,,,88.0,2.0,220.0,264.0,44.0,88.0,176.0,132.0,cyan,flipped triangle
4.0,0,7.0,1.0,1902.36997604,2.0,part_3,go,,,,204.0,6.0,204.0,170.0,68.0,102.0,136.0,34.0,orange,line
2.0,1,7.0,2.0,2518.98813248,2.0,part_3,stop,,,,108.0,2.0,162.0,108.0,54.0,324.0,216.0,270.0,blue,diamond
2.0,1,7.0,6.0,1802.37007141,2.0,part_3,stop,,,,204.0,6.0,136.0,102.0,34.0,170.0,68.0,204.0,blue,diamond
1.0,1,7.0,1.0,2936.3799095199997,2.0,part_3,stop,,,,102.0,3.0,102.0,170.0,68.0,34.0,204.0,136.0,white,cross
2.0,0,7.0,3.0,2336.23600006,2.0,part_3,go,,,,216.0,4.0,108.0,324.0,216.0,54.0,162.0,270.0,gray,hexagon
2.0,1,7.0,6.0,3103.79290581,2.0,part_3,stop,,,,176.0,4.0,220.0,88.0,132.0,264.0,44.0,176.0,blue,diamond
2.0,0,7.0,1.0,3220.43991089,2.0,part_3,go,,,,102.0,3.0,102.0,136.0,170.0,34.0,204.0,68.0,gray,hexagon
0.5,0,7.0,5.0,1417.91415215,2.0,part_3,go,,,,44.0,1.0,220.0,264.0,176.0,88.0,44.0,132.0,green,square
0.5,0,7.0,5.0,1851.92298889,2.0,part_3,go,,,,49.0,1.0,294.0,245.0,98.0,196.0,49.0,147.0,green,square
2.0,0,7.0,4.0,2585.64305305,2.0,part_3,go,,,,196.0,4.0,294.0,98.0,147.0,196.0,49.0,245.0,gray,hexagon
4.0,0,7.0,3.0,1551.48410797,2.0,part_3,go,,,,264.0,6.0,88.0,220.0,264.0,176.0,44.0,132.0,orange,line
2.0,0,7.0,5.0,2970.22914886,2.0,part_3,go,,,,220.0,5.0,176.0,132.0,264.0,44.0,220.0,88.0,gray,hexagon
0.5,1,7.0,6.0,2018.81217957,2.0,part_3,stop,,,,34.0,1.0,170.0,204.0,102.0,136.0,68.0,34.0,yellow,circle
1.0,1,7.0,2.0,4922.69086838,2.0,part_3,stop,,,,88.0,2.0,220.0,88.0,132.0,176.0,44.0,264.0,white,cross
0.5,1,7.0,5.0,1068.3560371400001,2.0,part_3,stop,,,,49.0,1.0,98.0,147.0,196.0,245.0,49.0,294.0,yellow,circle
1.0,0,7.0,1.0,2586.31706238,2.0,part_3,go,,,,102.0,3.0,102.0,68.0,204.0,136.0,34.0,170.0,cyan,flipped triangle
2.0,1,7.0,4.0,3370.72205544,2.0,part_3,stop,,,,220.0,5.0,132.0,44.0,264.0,220.0,88.0,176.0,blue,diamond
1.0,0,7.0,2.0,3353.5931110399997,2.0,part_3,go,,,,108.0,2.0,216.0,108.0,270.0,324.0,54.0,162.0,cyan,flipped triangle
2.0,0,7.0,4.0,1034.7969532000002,2.0,part_3,go,,,,195.0,5.0,234.0,78.0,39.0,195.0,156.0,117.0,gray,hexagon
0.5,0,7.0,1.0,1551.7961978899998,2.0,part_3,go,,,,44.0,1.0,44.0,132.0,88.0,220.0,176.0,264.0,green,square
1.0,1,7.0,1.0,1702.5740146599999,3.0,part_3,stop,,,,102.0,3.0,102.0,204.0,136.0,68.0,170.0,34.0,white,cross
4.0,0,7.0,6.0,1785.44688225,3.0,part_3,go,,,,264.0,6.0,44.0,88.0,176.0,132.0,220.0,264.0,orange,line
1.0,0,7.0,2.0,2269.4568633999997,3.0,part_3,go,,,,117.0,3.0,156.0,117.0,195.0,39.0,234.0,78.0,cyan,flipped triangle
0.5,1,7.0,1.0,1585.00599861,3.0,part_3,stop,,,,54.0,1.0,54.0,162.0,216.0,270.0,108.0,324.0,yellow,circle
2.0,1,7.0,3.0,2720.3018665299996,3.0,part_3,stop,,,,195.0,5.0,78.0,156.0,195.0,234.0,117.0,39.0,blue,diamond
1.0,1,7.0,4.0,2002.63309479,3.0,part_3,stop,,,,98.0,2.0,294.0,196.0,245.0,98.0,147.0,49.0,white,cross
0.5,1,7.0,3.0,1218.3551788299999,3.0,part_3,stop,,,,49.0,1.0,98.0,196.0,49.0,147.0,245.0,294.0,yellow,circle
1.0,0,7.0,3.0,3771.33107185,3.0,part_3,go,,,,195.0,5.0,234.0,39.0,195.0,156.0,78.0,117.0,cyan,flipped triangle
1.0,0,7.0,3.0,1018.25594902,3.0,part_3,go,,,,98.0,2.0,245.0,196.0,98.0,294.0,147.0,49.0,cyan,flipped triangle
4.0,0,7.0,1.0,2402.70900726,3.0,part_3,go,,,,294.0,6.0,294.0,98.0,49.0,196.0,245.0,147.0,orange,line
4.0,1,7.0,6.0,2703.384161,3.0,part_3,stop,,,,294.0,6.0,147.0,245.0,196.0,49.0,98.0,294.0,magenta,triangle
1.0,0,7.0,2.0,1902.56714821,3.0,part_3,go,,,,102.0,3.0,136.0,102.0,34.0,68.0,170.0,204.0,cyan,flipped triangle
2.0,0,7.0,5.0,1501.77598,3.0,part_3,go,,,,204.0,6.0,102.0,34.0,136.0,170.0,204.0,68.0,gray,hexagon
0.5,1,7.0,4.0,2085.6680870100004,3.0,part_3,stop,,,,39.0,1.0,234.0,117.0,78.0,39.0,156.0,195.0,yellow,circle
4.0,1,7.0,3.0,2786.64183617,3.0,part_3,stop,,,,324.0,6.0,216.0,54.0,324.0,270.0,108.0,162.0,magenta,triangle
4.0,1,7.0,2.0,1952.30603218,3.0,part_3,stop,,,,264.0,6.0,44.0,264.0,220.0,88.0,176.0,132.0,magenta,triangle
0.5,1,7.0,4.0,1034.84201431,3.0,part_3,stop,,,,44.0,1.0,88.0,264.0,132.0,44.0,220.0,176.0,yellow,circle
2.0,1,7.0,3.0,1852.08392143,3.0,part_3,stop,,,,204.0,6.0,102.0,34.0,204.0,68.0,136.0,170.0,blue,diamond
0.5,0,7.0,1.0,1584.90896225,3.0,part_3,go,,,,49.0,1.0,49.0,245.0,98.0,196.0,147.0,294.0,green,square
4.0,0,7.0,6.0,1568.70484352,3.0,part_3,go,,,,234.0,6.0,78.0,39.0,117.0,195.0,156.0,234.0,orange,line
1.0,1,7.0,6.0,1935.57214737,4.0,part_3,stop,,,,88.0,2.0,220.0,44.0,264.0,132.0,176.0,88.0,white,cross
1.0,0,7.0,5.0,2686.47694588,4.0,part_3,go,,,,108.0,2.0,324.0,216.0,162.0,270.0,108.0,54.0,cyan,flipped triangle
0.5,0,7.0,3.0,1401.4298915900001,4.0,part_3,go,,,,39.0,1.0,195.0,78.0,39.0,234.0,117.0,156.0,green,square
4.0,0,7.0,3.0,1185.00494957,4.0,part_3,go,,,,324.0,6.0,54.0,270.0,324.0,108.0,216.0,162.0,orange,line
0.5,0,7.0,1.0,2619.9200153399997,4.0,part_3,go,,,,34.0,1.0,34.0,102.0,204.0,136.0,68.0,170.0,green,square
4.0,1,7.0,4.0,1451.80487633,4.0,part_3,stop,,,,324.0,6.0,216.0,162.0,270.0,324.0,54.0,108.0,magenta,triangle
4.0,1,7.0,1.0,2169.32320595,4.0,part_3,stop,,,,294.0,6.0,294.0,49.0,147.0,196.0,98.0,245.0,magenta,triangle
0.5,1,7.0,1.0,1935.67919731,4.0,part_3,stop,,,,44.0,1.0,44.0,220.0,264.0,88.0,132.0,176.0,yellow,circle
4.0,1,7.0,3.0,2686.12480164,4.0,part_3,stop,,,,204.0,6.0,34.0,68.0,204.0,136.0,170.0,102.0,magenta,triangle
2.0,1,7.0,5.0,3069.4720745100003,4.0,part_3,stop,,,,195.0,5.0,39.0,156.0,117.0,78.0,195.0,234.0,blue,diamond
1.0,1,7.0,4.0,1217.9820537599999,4.0,part_3,stop,,,,108.0,2.0,162.0,54.0,216.0,108.0,270.0,324.0,white,cross
0.5,1,7.0,4.0,1535.14409065,4.0,part_3,stop,,,,39.0,1.0,156.0,234.0,117.0,39.0,195.0,78.0,yellow,circle
1.0,1,7.0,2.0,2301.9630909,4.0,part_3,stop,,,,117.0,3.0,156.0,117.0,234.0,195.0,39.0,78.0,white,cross
1.0,1,7.0,6.0,2970.39818764,4.0,part_3,stop,,,,117.0,3.0,78.0,234.0,39.0,156.0,195.0,117.0,white,cross
2.0,0,7.0,6.0,2085.61205864,4.0,part_3,go,,,,220.0,5.0,176.0,264.0,132.0,88.0,44.0,220.0,gray,hexagon
2.0,1,7.0,1.0,2752.80880928,4.0,part_3,stop,,,,196.0,4.0,196.0,147.0,98.0,294.0,245.0,49.0,blue,diamond
4.0,1,7.0,5.0,1702.14390755,4.0,part_3,stop,,,,234.0,6.0,117.0,195.0,39.0,156.0,234.0,78.0,magenta,triangle
4.0,0,7.0,3.0,1084.67006683,4.0,part_3,go,,,,324.0,6.0,270.0,162.0,324.0,108.0,216.0,54.0,orange,line
4.0,1,7.0,1.0,1468.6820507,4.0,part_3,stop,,,,234.0,6.0,234.0,39.0,78.0,195.0,117.0,156.0,magenta,triangle
4.0,0,7.0,6.0,2035.3219509099997,4.0,part_3,go,,,,294.0,6.0,147.0,49.0,245.0,196.0,98.0,294.0,orange,line
