raw_reward_magnitude,stim_reward,stepwise_reward_magnitude,paired_with_stopping,stim_location,response,reaction_time,block,which_phase,stop_signal_trial_type,left_SSD,right_SSD,accuracy,chosen_bidding_amount,chosen_bidding_level,possible_bid_1,possible_bid_2,possible_bid_3,possible_bid_4,possible_bid_5,possible_bid_6,color_text,shape_text
104.0,2.0,1.0,1,2.0,2.0,400.764942169,1.0,phase_1,,,,,,,,,,,,,magenta,triangle
395.0,4.0,4.0,0,3.0,3.0,334.521055222,1.0,phase_1,,,,,,,,,,,,,gray,flipped triangle
393.0,8.0,4.0,1,4.0,4.0,384.181022644,1.0,phase_1,,,,,,,,,,,,,green,diamond
119.0,2.0,1.0,1,4.0,4.0,334.23519134500003,1.0,phase_1,,,,,,,,,,,,,magenta,triangle
377.0,8.0,4.0,1,4.0,4.0,451.02500915499996,1.0,phase_1,,,,,,,,,,,,,green,diamond
375.0,8.0,4.0,1,2.0,2.0,400.623083115,1.0,phase_1,,,,,,,,,,,,,green,diamond
0.0,1.0,0.0,1,3.0,3.0,384.468793869,1.0,phase_1,,,,,,,,,,,,,yellow,line
88.0,2.0,1.0,1,1.0,1.0,350.52895546,1.0,phase_1,,,,,,,,,,,,,magenta,triangle
95.0,6.0,1.0,0,1.0,1.0,384.420871735,1.0,phase_1,,,,,,,,,,,,,cyan,hexagon
402.0,4.0,4.0,0,1.0,1.0,500.96583366400006,1.0,phase_1,,,,,,,,,,,,,gray,flipped triangle
0.0,6.0,0.0,0,2.0,2.0,384.085893631,1.0,phase_1,,,,,,,,,,,,,cyan,hexagon
175.0,3.0,2.0,1,4.0,4.0,433.357000351,1.0,phase_1,,,,,,,,,,,,,orange,cross
118.0,2.0,1.0,1,1.0,1.0,334.66196060199997,1.0,phase_1,,,,,,,,,,,,,magenta,triangle
182.0,7.0,2.0,0,1.0,1.0,333.925962448,1.0,phase_1,,,,,,,,,,,,,white,square
383.0,8.0,4.0,1,3.0,3.0,366.92285537699996,1.0,phase_1,,,,,,,,,,,,,green,diamond
0.0,5.0,0.0,0,3.0,3.0,467.669963837,1.0,phase_1,,,,,,,,,,,,,blue,circle
117.0,6.0,1.0,0,4.0,4.0,367.291927338,1.0,phase_1,,,,,,,,,,,,,cyan,hexagon
78.0,2.0,1.0,1,2.0,2.0,317.576885223,1.0,phase_1,,,,,,,,,,,,,magenta,triangle
185.0,7.0,2.0,0,4.0,4.0,367.712020874,1.0,phase_1,,,,,,,,,,,,,white,square
25.0,1.0,0.5,1,2.0,2.0,383.908033371,1.0,phase_1,,,,,,,,,,,,,yellow,line
116.0,2.0,1.0,1,1.0,1.0,333.98103714,1.0,phase_1,,,,,,,,,,,,,magenta,triangle
412.0,4.0,4.0,0,1.0,1.0,350.77381134,1.0,phase_1,,,,,,,,,,,,,gray,flipped triangle
124.0,2.0,1.0,1,3.0,3.0,317.87514686599997,1.0,phase_1,,,,,,,,,,,,,magenta,triangle
412.0,4.0,4.0,0,1.0,1.0,334.21182632399996,1.0,phase_1,,,,,,,,,,,,,gray,flipped triangle
0.0,4.0,0.0,0,1.0,1.0,451.370000839,1.0,phase_1,,,,,,,,,,,,,gray,flipped triangle
192.0,3.0,2.0,1,3.0,3.0,383.947134018,1.0,phase_1,,,,,,,,,,,,,orange,cross
184.0,7.0,2.0,0,1.0,1.0,417.467832565,1.0,phase_1,,,,,,,,,,,,,white,square
60.0,5.0,0.5,0,2.0,2.0,300.230026245,1.0,phase_1,,,,,,,,,,,,,blue,circle
425.0,8.0,4.0,1,2.0,2.0,384.813070297,1.0,phase_1,,,,,,,,,,,,,green,diamond
415.0,4.0,4.0,0,1.0,1.0,300.847053528,1.0,phase_1,,,,,,,,,,,,,gray,flipped triangle
93.0,6.0,1.0,0,1.0,1.0,383.908033371,1.0,phase_1,,,,,,,,,,,,,cyan,hexagon
392.0,4.0,4.0,0,4.0,4.0,367.614984512,1.0,phase_1,,,,,,,,,,,,,gray,flipped triangle
211.0,7.0,2.0,0,3.0,3.0,351.029157639,1.0,phase_1,,,,,,,,,,,,,white,square
409.0,8.0,4.0,1,3.0,3.0,434.617996216,1.0,phase_1,,,,,,,,,,,,,green,diamond
209.0,3.0,2.0,1,2.0,2.0,384.323120117,1.0,phase_1,,,,,,,,,,,,,orange,cross
48.0,5.0,0.5,0,1.0,1.0,300.997018814,1.0,phase_1,,,,,,,,,,,,,blue,circle
179.0,7.0,2.0,0,2.0,2.0,300.926923752,1.0,phase_1,,,,,,,,,,,,,white,square
0.0,6.0,0.0,0,4.0,4.0,400.63619613599997,1.0,phase_1,,,,,,,,,,,,,cyan,hexagon
215.0,3.0,2.0,1,4.0,4.0,301.01704597500003,1.0,phase_1,,,,,,,,,,,,,orange,cross
411.0,4.0,4.0,0,3.0,3.0,367.53392219499995,1.0,phase_1,,,,,,,,,,,,,gray,flipped triangle
0.0,4.0,0.0,0,1.0,1.0,300.81987381000005,1.0,phase_1,,,,,,,,,,,,,gray,flipped triangle
0.0,6.0,0.0,0,3.0,3.0,384.427070618,1.0,phase_1,,,,,,,,,,,,,cyan,hexagon
82.0,6.0,1.0,0,4.0,4.0,367.38109588599997,1.0,phase_1,,,,,,,,,,,,,cyan,hexagon
0.0,2.0,0.0,1,3.0,3.0,233.93702507,1.0,phase_1,,,,,,,,,,,,,magenta,triangle
194.0,3.0,2.0,1,2.0,2.0,350.322961807,1.0,phase_1,,,,,,,,,,,,,orange,cross
401.0,4.0,4.0,0,3.0,3.0,367.28096008299997,1.0,phase_1,,,,,,,,,,,,,gray,flipped triangle
72.0,1.0,0.5,1,3.0,3.0,350.56591033899997,1.0,phase_1,,,,,,,,,,,,,yellow,line
74.0,1.0,0.5,1,4.0,4.0,351.024150848,1.0,phase_1,,,,,,,,,,,,,yellow,line
65.0,5.0,0.5,0,3.0,3.0,350.926876068,1.0,phase_1,,,,,,,,,,,,,blue,circle
88.0,2.0,1.0,1,2.0,2.0,317.404031754,1.0,phase_1,,,,,,,,,,,,,magenta,triangle
0.0,8.0,0.0,1,1.0,1.0,334.48600768999995,1.0,phase_1,,,,,,,,,,,,,green,diamond
415.0,4.0,4.0,0,1.0,1.0,400.785923004,1.0,phase_1,,,,,,,,,,,,,gray,flipped triangle
207.0,3.0,2.0,1,3.0,3.0,350.937843323,1.0,phase_1,,,,,,,,,,,,,orange,cross
40.0,1.0,0.5,1,4.0,4.0,400.763988495,1.0,phase_1,,,,,,,,,,,,,yellow,line
116.0,6.0,1.0,0,2.0,2.0,334.087133408,1.0,phase_1,,,,,,,,,,,,,cyan,hexagon
0.0,3.0,0.0,1,4.0,4.0,117.760896683,1.0,phase_1,,,,,,,,,,,,,orange,cross
68.0,5.0,0.5,0,3.0,3.0,334.216117859,1.0,phase_1,,,,,,,,,,,,,blue,circle
73.0,1.0,0.5,1,3.0,3.0,334.192037582,1.0,phase_1,,,,,,,,,,,,,yellow,line
0.0,8.0,0.0,1,4.0,4.0,384.184837341,1.0,phase_1,,,,,,,,,,,,,green,diamond
213.0,7.0,2.0,0,4.0,4.0,301.34201049800004,1.0,phase_1,,,,,,,,,,,,,white,square
196.0,3.0,2.0,1,1.0,1.0,250.870943069,1.0,phase_1,,,,,,,,,,,,,orange,cross
35.0,5.0,0.5,0,1.0,1.0,350.521087646,1.0,phase_1,,,,,,,,,,,,,blue,circle
420.0,4.0,4.0,0,2.0,2.0,300.750017166,1.0,phase_1,,,,,,,,,,,,,gray,flipped triangle
396.0,8.0,4.0,1,4.0,4.0,385.08081436199996,1.0,phase_1,,,,,,,,,,,,,green,diamond
97.0,2.0,1.0,1,2.0,2.0,351.000070572,1.0,phase_1,,,,,,,,,,,,,magenta,triangle
32.0,1.0,0.5,1,4.0,4.0,383.907079697,1.0,phase_1,,,,,,,,,,,,,yellow,line
0.0,1.0,0.0,1,2.0,2.0,251.14583969100002,1.0,phase_1,,,,,,,,,,,,,yellow,line
193.0,3.0,2.0,1,4.0,4.0,317.12603569,1.0,phase_1,,,,,,,,,,,,,orange,cross
27.0,5.0,0.5,0,3.0,3.0,317.461967468,1.0,phase_1,,,,,,,,,,,,,blue,circle
61.0,1.0,0.5,1,1.0,1.0,333.843946457,1.0,phase_1,,,,,,,,,,,,,yellow,line
379.0,4.0,4.0,0,4.0,4.0,317.034959793,1.0,phase_1,,,,,,,,,,,,,gray,flipped triangle
0.0,2.0,0.0,1,2.0,2.0,317.427873611,1.0,phase_1,,,,,,,,,,,,,magenta,triangle
188.0,3.0,2.0,1,4.0,4.0,367.15292930600003,1.0,phase_1,,,,,,,,,,,,,orange,cross
0.0,7.0,0.0,0,3.0,3.0,334.10501480100004,1.0,phase_1,,,,,,,,,,,,,white,square
48.0,5.0,0.5,0,2.0,2.0,350.893974304,1.0,phase_1,,,,,,,,,,,,,blue,circle
57.0,5.0,0.5,0,2.0,2.0,367.37203598,1.0,phase_1,,,,,,,,,,,,,blue,circle
0.0,6.0,0.0,0,4.0,4.0,84.300994873,1.0,phase_1,,,,,,,,,,,,,cyan,hexagon
48.0,5.0,0.5,0,1.0,1.0,334.591150284,1.0,phase_1,,,,,,,,,,,,,blue,circle
0.0,3.0,0.0,1,2.0,2.0,367.906093597,1.0,phase_1,,,,,,,,,,,,,orange,cross
90.0,6.0,1.0,0,3.0,3.0,234.081983566,1.0,phase_1,,,,,,,,,,,,,cyan,hexagon
379.0,8.0,4.0,1,1.0,1.0,367.686033249,1.0,phase_1,,,,,,,,,,,,,green,diamond
216.0,7.0,2.0,0,2.0,2.0,334.748983383,1.0,phase_1,,,,,,,,,,,,,white,square
205.0,3.0,2.0,1,4.0,4.0,300.90713501,1.0,phase_1,,,,,,,,,,,,,orange,cross
102.0,2.0,1.0,1,4.0,4.0,367.804050446,1.0,phase_1,,,,,,,,,,,,,magenta,triangle
179.0,3.0,2.0,1,2.0,2.0,333.945035934,1.0,phase_1,,,,,,,,,,,,,orange,cross
386.0,4.0,4.0,0,2.0,2.0,367.980003357,1.0,phase_1,,,,,,,,,,,,,gray,flipped triangle
26.0,1.0,0.5,1,2.0,2.0,384.22703743,1.0,phase_1,,,,,,,,,,,,,yellow,line
215.0,3.0,2.0,1,2.0,2.0,351.258039474,1.0,phase_1,,,,,,,,,,,,,orange,cross
185.0,7.0,2.0,0,1.0,1.0,317.145109177,1.0,phase_1,,,,,,,,,,,,,white,square
404.0,4.0,4.0,0,1.0,1.0,367.444038391,1.0,phase_1,,,,,,,,,,,,,gray,flipped triangle
116.0,2.0,1.0,1,3.0,3.0,284.04402732799997,1.0,phase_1,,,,,,,,,,,,,magenta,triangle
209.0,7.0,2.0,0,4.0,4.0,401.06010437,1.0,phase_1,,,,,,,,,,,,,white,square
397.0,8.0,4.0,1,3.0,3.0,334.404945374,1.0,phase_1,,,,,,,,,,,,,green,diamond
59.0,5.0,0.5,0,3.0,3.0,868.046045303,1.0,phase_1,,,,,,,,,,,,,blue,circle
207.0,3.0,2.0,1,4.0,4.0,384.73486900300003,1.0,phase_1,,,,,,,,,,,,,orange,cross
383.0,8.0,4.0,1,3.0,3.0,334.38086509699997,1.0,phase_1,,,,,,,,,,,,,green,diamond
223.0,3.0,2.0,1,3.0,3.0,333.706855774,1.0,phase_1,,,,,,,,,,,,,orange,cross
93.0,6.0,1.0,0,1.0,1.0,317.307949066,1.0,phase_1,,,,,,,,,,,,,cyan,hexagon
0.0,5.0,0.0,0,2.0,2.0,384.438991547,1.0,phase_1,,,,,,,,,,,,,blue,circle
224.0,7.0,2.0,0,1.0,1.0,367.578983307,1.0,phase_1,,,,,,,,,,,,,white,square
78.0,2.0,1.0,1,3.0,3.0,400.66194534299996,2.0,phase_1,,,,,,,,,,,,,magenta,triangle
393.0,4.0,4.0,0,4.0,4.0,400.761127472,2.0,phase_1,,,,,,,,,,,,,gray,flipped triangle
189.0,3.0,2.0,1,1.0,1.0,367.681026459,2.0,phase_1,,,,,,,,,,,,,orange,cross
416.0,4.0,4.0,0,4.0,4.0,350.972175598,2.0,phase_1,,,,,,,,,,,,,gray,flipped triangle
27.0,1.0,0.5,1,1.0,1.0,284.20305252099996,2.0,phase_1,,,,,,,,,,,,,yellow,line
61.0,1.0,0.5,1,3.0,3.0,334.136962891,2.0,phase_1,,,,,,,,,,,,,yellow,line
0.0,8.0,0.0,1,1.0,1.0,300.467014313,2.0,phase_1,,,,,,,,,,,,,green,diamond
0.0,8.0,0.0,1,2.0,2.0,317.86894798300006,2.0,phase_1,,,,,,,,,,,,,green,diamond
115.0,6.0,1.0,0,2.0,2.0,366.800069809,2.0,phase_1,,,,,,,,,,,,,cyan,hexagon
102.0,6.0,1.0,0,2.0,2.0,351.027965546,2.0,phase_1,,,,,,,,,,,,,cyan,hexagon
414.0,4.0,4.0,0,2.0,2.0,350.21519660900003,2.0,phase_1,,,,,,,,,,,,,gray,flipped triangle
411.0,4.0,4.0,0,4.0,4.0,334.026098251,2.0,phase_1,,,,,,,,,,,,,gray,flipped triangle
416.0,4.0,4.0,0,3.0,3.0,350.644826889,2.0,phase_1,,,,,,,,,,,,,gray,flipped triangle
102.0,2.0,1.0,1,4.0,4.0,401.27801895100004,2.0,phase_1,,,,,,,,,,,,,magenta,triangle
94.0,2.0,1.0,1,4.0,4.0,417.890787125,2.0,phase_1,,,,,,,,,,,,,magenta,triangle
0.0,6.0,0.0,0,4.0,4.0,283.923149109,2.0,phase_1,,,,,,,,,,,,,cyan,hexagon
30.0,1.0,0.5,1,3.0,3.0,351.092815399,2.0,phase_1,,,,,,,,,,,,,yellow,line
89.0,2.0,1.0,1,2.0,2.0,317.198991776,2.0,phase_1,,,,,,,,,,,,,magenta,triangle
415.0,8.0,4.0,1,4.0,4.0,350.92186927800003,2.0,phase_1,,,,,,,,,,,,,green,diamond
77.0,2.0,1.0,1,2.0,2.0,267.23098754899996,2.0,phase_1,,,,,,,,,,,,,magenta,triangle
123.0,6.0,1.0,0,3.0,3.0,284.391880035,2.0,phase_1,,,,,,,,,,,,,cyan,hexagon
110.0,2.0,1.0,1,1.0,1.0,267.61913299599996,2.0,phase_1,,,,,,,,,,,,,magenta,triangle
396.0,8.0,4.0,1,2.0,2.0,350.865125656,2.0,phase_1,,,,,,,,,,,,,green,diamond
399.0,4.0,4.0,0,4.0,4.0,334.24901962300004,2.0,phase_1,,,,,,,,,,,,,gray,flipped triangle
0.0,7.0,0.0,0,3.0,3.0,317.462921143,2.0,phase_1,,,,,,,,,,,,,white,square
0.0,5.0,0.0,0,3.0,3.0,651.09705925,2.0,phase_1,,,,,,,,,,,,,blue,circle
0.0,3.0,0.0,1,1.0,1.0,384.325027466,2.0,phase_1,,,,,,,,,,,,,orange,cross
0.0,1.0,0.0,1,1.0,1.0,201.014041901,2.0,phase_1,,,,,,,,,,,,,yellow,line
116.0,2.0,1.0,1,3.0,3.0,300.933837891,2.0,phase_1,,,,,,,,,,,,,magenta,triangle
57.0,5.0,0.5,0,2.0,2.0,317.74997711199995,2.0,phase_1,,,,,,,,,,,,,blue,circle
47.0,1.0,0.5,1,1.0,1.0,334.254980087,2.0,phase_1,,,,,,,,,,,,,yellow,line
0.0,8.0,0.0,1,2.0,2.0,317.788124084,2.0,phase_1,,,,,,,,,,,,,green,diamond
47.0,5.0,0.5,0,3.0,3.0,300.81605911300005,2.0,phase_1,,,,,,,,,,,,,blue,circle
401.0,4.0,4.0,0,3.0,3.0,317.879915237,2.0,phase_1,,,,,,,,,,,,,gray,flipped triangle
43.0,1.0,0.5,1,1.0,1.0,317.35205650300003,2.0,phase_1,,,,,,,,,,,,,yellow,line
407.0,4.0,4.0,0,4.0,4.0,267.06504821799996,2.0,phase_1,,,,,,,,,,,,,gray,flipped triangle
0.0,7.0,0.0,0,2.0,2.0,300.604820251,2.0,phase_1,,,,,,,,,,,,,white,square
423.0,8.0,4.0,1,2.0,2.0,350.65698623699996,2.0,phase_1,,,,,,,,,,,,,green,diamond
386.0,8.0,4.0,1,2.0,2.0,467.6258564,2.0,phase_1,,,,,,,,,,,,,green,diamond
219.0,3.0,2.0,1,3.0,3.0,350.69513320899995,2.0,phase_1,,,,,,,,,,,,,orange,cross
54.0,1.0,0.5,1,4.0,4.0,334.086179733,2.0,phase_1,,,,,,,,,,,,,yellow,line
100.0,2.0,1.0,1,4.0,4.0,300.831079483,2.0,phase_1,,,,,,,,,,,,,magenta,triangle
185.0,3.0,2.0,1,3.0,3.0,333.765983582,2.0,phase_1,,,,,,,,,,,,,orange,cross
186.0,3.0,2.0,1,1.0,1.0,301.16391181899996,2.0,phase_1,,,,,,,,,,,,,orange,cross
66.0,5.0,0.5,0,1.0,1.0,384.74893569899996,2.0,phase_1,,,,,,,,,,,,,blue,circle
0.0,6.0,0.0,0,3.0,3.0,334.195137024,2.0,phase_1,,,,,,,,,,,,,cyan,hexagon
28.0,1.0,0.5,1,1.0,1.0,367.574930191,2.0,phase_1,,,,,,,,,,,,,yellow,line
0.0,7.0,0.0,0,4.0,4.0,417.812824249,2.0,phase_1,,,,,,,,,,,,,white,square
207.0,7.0,2.0,0,3.0,3.0,317.331075668,2.0,phase_1,,,,,,,,,,,,,white,square
384.0,4.0,4.0,0,1.0,1.0,400.892972946,2.0,phase_1,,,,,,,,,,,,,gray,flipped triangle
0.0,1.0,0.0,1,3.0,3.0,301.33080482500003,2.0,phase_1,,,,,,,,,,,,,yellow,line
78.0,6.0,1.0,0,2.0,2.0,317.505121231,2.0,phase_1,,,,,,,,,,,,,cyan,hexagon
56.0,1.0,0.5,1,1.0,1.0,284.348964691,2.0,phase_1,,,,,,,,,,,,,yellow,line
0.0,7.0,0.0,0,4.0,4.0,183.953046799,2.0,phase_1,,,,,,,,,,,,,white,square
405.0,8.0,4.0,1,2.0,2.0,318.160057068,2.0,phase_1,,,,,,,,,,,,,green,diamond
109.0,6.0,1.0,0,1.0,1.0,350.703001022,2.0,phase_1,,,,,,,,,,,,,cyan,hexagon
0.0,6.0,0.0,0,4.0,4.0,117.594003677,2.0,phase_1,,,,,,,,,,,,,cyan,hexagon
0.0,4.0,0.0,0,2.0,2.0,367.92898178099995,2.0,phase_1,,,,,,,,,,,,,gray,flipped triangle
201.0,3.0,2.0,1,3.0,3.0,301.076889038,2.0,phase_1,,,,,,,,,,,,,orange,cross
105.0,6.0,1.0,0,4.0,4.0,268.060922623,2.0,phase_1,,,,,,,,,,,,,cyan,hexagon
84.0,2.0,1.0,1,2.0,2.0,367.702007294,2.0,phase_1,,,,,,,,,,,,,magenta,triangle
197.0,7.0,2.0,0,4.0,4.0,417.23394393899997,2.0,phase_1,,,,,,,,,,,,,white,square
61.0,1.0,0.5,1,1.0,1.0,334.401845932,2.0,phase_1,,,,,,,,,,,,,yellow,line
69.0,5.0,0.5,0,3.0,3.0,317.396879196,2.0,phase_1,,,,,,,,,,,,,blue,circle
41.0,1.0,0.5,1,2.0,2.0,367.563962936,2.0,phase_1,,,,,,,,,,,,,yellow,line
93.0,6.0,1.0,0,3.0,3.0,300.919055939,2.0,phase_1,,,,,,,,,,,,,cyan,hexagon
77.0,6.0,1.0,0,3.0,3.0,301.15199089099997,2.0,phase_1,,,,,,,,,,,,,cyan,hexagon
0.0,7.0,0.0,0,1.0,1.0,134.58204269400002,2.0,phase_1,,,,,,,,,,,,,white,square
65.0,5.0,0.5,0,2.0,2.0,317.482948303,2.0,phase_1,,,,,,,,,,,,,blue,circle
425.0,8.0,4.0,1,1.0,1.0,350.800991058,2.0,phase_1,,,,,,,,,,,,,green,diamond
0.0,7.0,0.0,0,4.0,4.0,333.695888519,2.0,phase_1,,,,,,,,,,,,,white,square
86.0,2.0,1.0,1,2.0,2.0,384.54079628,2.0,phase_1,,,,,,,,,,,,,magenta,triangle
191.0,3.0,2.0,1,4.0,4.0,367.87700653099995,2.0,phase_1,,,,,,,,,,,,,orange,cross
113.0,6.0,1.0,0,3.0,3.0,351.337909698,2.0,phase_1,,,,,,,,,,,,,cyan,hexagon
0.0,3.0,0.0,1,4.0,4.0,134.252786636,2.0,phase_1,,,,,,,,,,,,,orange,cross
412.0,4.0,4.0,0,4.0,4.0,367.094993591,2.0,phase_1,,,,,,,,,,,,,gray,flipped triangle
92.0,6.0,1.0,0,1.0,1.0,400.771856308,2.0,phase_1,,,,,,,,,,,,,cyan,hexagon
176.0,3.0,2.0,1,4.0,4.0,334.8300457,2.0,phase_1,,,,,,,,,,,,,orange,cross
97.0,6.0,1.0,0,2.0,2.0,334.143877029,2.0,phase_1,,,,,,,,,,,,,cyan,hexagon
105.0,2.0,1.0,1,1.0,1.0,350.857019424,2.0,phase_1,,,,,,,,,,,,,magenta,triangle
215.0,7.0,2.0,0,4.0,4.0,334.626913071,2.0,phase_1,,,,,,,,,,,,,white,square
204.0,7.0,2.0,0,2.0,2.0,367.426872253,2.0,phase_1,,,,,,,,,,,,,white,square
182.0,7.0,2.0,0,3.0,3.0,333.935976028,2.0,phase_1,,,,,,,,,,,,,white,square
0.0,6.0,0.0,0,4.0,4.0,484.01403427099996,2.0,phase_1,,,,,,,,,,,,,cyan,hexagon
415.0,4.0,4.0,0,2.0,2.0,284.264087677,2.0,phase_1,,,,,,,,,,,,,gray,flipped triangle
124.0,2.0,1.0,1,1.0,1.0,384.41205024699997,2.0,phase_1,,,,,,,,,,,,,magenta,triangle
0.0,8.0,0.0,1,3.0,3.0,316.83301925700005,2.0,phase_1,,,,,,,,,,,,,green,diamond
196.0,7.0,2.0,0,2.0,2.0,334.406852722,2.0,phase_1,,,,,,,,,,,,,white,square
213.0,7.0,2.0,0,4.0,4.0,250.98109245299997,2.0,phase_1,,,,,,,,,,,,,white,square
194.0,3.0,2.0,1,3.0,3.0,317.834854126,2.0,phase_1,,,,,,,,,,,,,orange,cross
94.0,6.0,1.0,0,2.0,2.0,334.192037582,2.0,phase_1,,,,,,,,,,,,,cyan,hexagon
74.0,5.0,0.5,0,4.0,4.0,418.062925339,2.0,phase_1,,,,,,,,,,,,,blue,circle
393.0,4.0,4.0,0,1.0,1.0,317.477941513,2.0,phase_1,,,,,,,,,,,,,gray,flipped triangle
34.0,5.0,0.5,0,3.0,3.0,267.35496521000005,2.0,phase_1,,,,,,,,,,,,,blue,circle
0.0,7.0,0.0,0,1.0,1.0,367.396116257,2.0,phase_1,,,,,,,,,,,,,white,square
0.0,1.0,0.0,1,3.0,3.0,350.718021393,2.0,phase_1,,,,,,,,,,,,,yellow,line
220.0,7.0,2.0,0,1.0,1.0,234.169006348,2.0,phase_1,,,,,,,,,,,,,white,square
0.0,8.0,0.0,1,1.0,1.0,100.260019302,2.0,phase_1,,,,,,,,,,,,,green,diamond
0.0,5.0,0.0,0,2.0,2.0,333.974123001,2.0,phase_1,,,,,,,,,,,,,blue,circle
83.0,6.0,1.0,0,1.0,1.0,367.819070816,2.0,phase_1,,,,,,,,,,,,,cyan,hexagon
405.0,4.0,4.0,0,4.0,4.0,383.826971054,3.0,phase_1,,,,,,,,,,,,,gray,flipped triangle
389.0,4.0,4.0,0,3.0,3.0,300.673961639,3.0,phase_1,,,,,,,,,,,,,gray,flipped triangle
404.0,8.0,4.0,1,4.0,4.0,300.788164139,3.0,phase_1,,,,,,,,,,,,,green,diamond
0.0,1.0,0.0,1,4.0,4.0,334.010124207,3.0,phase_1,,,,,,,,,,,,,yellow,line
178.0,3.0,2.0,1,4.0,4.0,300.709962845,3.0,phase_1,,,,,,,,,,,,,orange,cross
72.0,5.0,0.5,0,4.0,4.0,317.312955856,3.0,phase_1,,,,,,,,,,,,,blue,circle
45.0,5.0,0.5,0,1.0,1.0,317.529916763,3.0,phase_1,,,,,,,,,,,,,blue,circle
213.0,3.0,2.0,1,1.0,1.0,317.06905365,3.0,phase_1,,,,,,,,,,,,,orange,cross
28.0,1.0,0.5,1,3.0,3.0,317.341089249,3.0,phase_1,,,,,,,,,,,,,yellow,line
197.0,7.0,2.0,0,2.0,2.0,467.519044876,3.0,phase_1,,,,,,,,,,,,,white,square
53.0,5.0,0.5,0,1.0,1.0,351.340055466,3.0,phase_1,,,,,,,,,,,,,blue,circle
49.0,1.0,0.5,1,4.0,4.0,267.623901367,3.0,phase_1,,,,,,,,,,,,,yellow,line
190.0,3.0,2.0,1,3.0,3.0,267.59886741599996,3.0,phase_1,,,,,,,,,,,,,orange,cross
212.0,3.0,2.0,1,1.0,1.0,333.834886551,3.0,phase_1,,,,,,,,,,,,,orange,cross
404.0,8.0,4.0,1,3.0,3.0,317.764043808,3.0,phase_1,,,,,,,,,,,,,green,diamond
52.0,5.0,0.5,0,4.0,4.0,334.068775177,3.0,phase_1,,,,,,,,,,,,,blue,circle
0.0,6.0,0.0,0,4.0,4.0,233.515977859,3.0,phase_1,,,,,,,,,,,,,cyan,hexagon
0.0,4.0,0.0,0,4.0,4.0,233.983039856,3.0,phase_1,,,,,,,,,,,,,gray,flipped triangle
0.0,6.0,0.0,0,2.0,2.0,350.857973099,3.0,phase_1,,,,,,,,,,,,,cyan,hexagon
0.0,5.0,0.0,0,2.0,2.0,334.69581603999995,3.0,phase_1,,,,,,,,,,,,,blue,circle
71.0,1.0,0.5,1,3.0,3.0,400.746107101,3.0,phase_1,,,,,,,,,,,,,yellow,line
398.0,8.0,4.0,1,3.0,3.0,334.811925888,3.0,phase_1,,,,,,,,,,,,,green,diamond
91.0,2.0,1.0,1,2.0,2.0,300.474882126,3.0,phase_1,,,,,,,,,,,,,magenta,triangle
0.0,1.0,0.0,1,2.0,2.0,184.501171112,3.0,phase_1,,,,,,,,,,,,,yellow,line
377.0,8.0,4.0,1,3.0,3.0,350.586891174,3.0,phase_1,,,,,,,,,,,,,green,diamond
0.0,2.0,0.0,1,1.0,1.0,334.112882614,3.0,phase_1,,,,,,,,,,,,,magenta,triangle
0.0,4.0,0.0,0,1.0,1.0,300.505161285,3.0,phase_1,,,,,,,,,,,,,gray,flipped triangle
0.0,7.0,0.0,0,3.0,3.0,267.309904099,3.0,phase_1,,,,,,,,,,,,,white,square
92.0,6.0,1.0,0,2.0,2.0,334.10811424300005,3.0,phase_1,,,,,,,,,,,,,cyan,hexagon
0.0,3.0,0.0,1,1.0,1.0,100.672006607,3.0,phase_1,,,,,,,,,,,,,orange,cross
37.0,1.0,0.5,1,4.0,4.0,300.48084259,3.0,phase_1,,,,,,,,,,,,,yellow,line
0.0,6.0,0.0,0,3.0,3.0,150.380134583,3.0,phase_1,,,,,,,,,,,,,cyan,hexagon
85.0,6.0,1.0,0,3.0,3.0,317.224979401,3.0,phase_1,,,,,,,,,,,,,cyan,hexagon
201.0,7.0,2.0,0,2.0,2.0,317.268848419,3.0,phase_1,,,,,,,,,,,,,white,square
88.0,6.0,1.0,0,2.0,2.0,301.020145416,3.0,phase_1,,,,,,,,,,,,,cyan,hexagon
0.0,6.0,0.0,0,3.0,3.0,350.922107697,3.0,phase_1,,,,,,,,,,,,,cyan,hexagon
0.0,3.0,0.0,1,1.0,1.0,200.49500465399998,3.0,phase_1,,,,,,,,,,,,,orange,cross
0.0,7.0,0.0,0,4.0,4.0,250.692844391,3.0,phase_1,,,,,,,,,,,,,white,square
33.0,1.0,0.5,1,1.0,1.0,350.526094437,3.0,phase_1,,,,,,,,,,,,,yellow,line
0.0,2.0,0.0,1,3.0,3.0,150.742053986,3.0,phase_1,,,,,,,,,,,,,magenta,triangle
215.0,3.0,2.0,1,3.0,3.0,401.08704566999995,3.0,phase_1,,,,,,,,,,,,,orange,cross
27.0,1.0,0.5,1,4.0,4.0,351.198911667,3.0,phase_1,,,,,,,,,,,,,yellow,line
416.0,4.0,4.0,0,3.0,3.0,434.057950974,3.0,phase_1,,,,,,,,,,,,,gray,flipped triangle
192.0,3.0,2.0,1,2.0,2.0,334.612846375,3.0,phase_1,,,,,,,,,,,,,orange,cross
205.0,7.0,2.0,0,2.0,2.0,333.832979202,3.0,phase_1,,,,,,,,,,,,,white,square
0.0,8.0,0.0,1,3.0,3.0,334.24496650699996,3.0,phase_1,,,,,,,,,,,,,green,diamond
59.0,1.0,0.5,1,1.0,1.0,284.027099609,3.0,phase_1,,,,,,,,,,,,,yellow,line
73.0,5.0,0.5,0,3.0,3.0,283.52284431500004,3.0,phase_1,,,,,,,,,,,,,blue,circle
109.0,2.0,1.0,1,2.0,2.0,283.834934235,3.0,phase_1,,,,,,,,,,,,,magenta,triangle
413.0,8.0,4.0,1,4.0,4.0,233.9220047,3.0,phase_1,,,,,,,,,,,,,green,diamond
32.0,1.0,0.5,1,3.0,3.0,351.118087769,3.0,phase_1,,,,,,,,,,,,,yellow,line
396.0,4.0,4.0,0,3.0,3.0,450.709104538,3.0,phase_1,,,,,,,,,,,,,gray,flipped triangle
36.0,1.0,0.5,1,1.0,1.0,267.58217811599997,3.0,phase_1,,,,,,,,,,,,,yellow,line
388.0,8.0,4.0,1,2.0,2.0,317.36493110699996,3.0,phase_1,,,,,,,,,,,,,green,diamond
0.0,6.0,0.0,0,2.0,2.0,217.223882675,3.0,phase_1,,,,,,,,,,,,,cyan,hexagon
88.0,6.0,1.0,0,4.0,4.0,217.776060104,3.0,phase_1,,,,,,,,,,,,,cyan,hexagon
0.0,7.0,0.0,0,4.0,4.0,100.59094429,3.0,phase_1,,,,,,,,,,,,,white,square
0.0,8.0,0.0,1,2.0,2.0,150.51412582400002,3.0,phase_1,,,,,,,,,,,,,green,diamond
97.0,2.0,1.0,1,1.0,1.0,300.160884857,3.0,phase_1,,,,,,,,,,,,,magenta,triangle
53.0,1.0,0.5,1,4.0,4.0,367.64407157899996,3.0,phase_1,,,,,,,,,,,,,yellow,line
0.0,8.0,0.0,1,1.0,1.0,333.910942078,3.0,phase_1,,,,,,,,,,,,,green,diamond
0.0,7.0,0.0,0,4.0,4.0,167.11306572,3.0,phase_1,,,,,,,,,,,,,white,square
407.0,8.0,4.0,1,1.0,1.0,334.328174591,3.0,phase_1,,,,,,,,,,,,,green,diamond
47.0,1.0,0.5,1,1.0,1.0,350.893974304,3.0,phase_1,,,,,,,,,,,,,yellow,line
0.0,7.0,0.0,0,2.0,2.0,301.09405517600004,3.0,phase_1,,,,,,,,,,,,,white,square
375.0,4.0,4.0,0,4.0,4.0,300.31299591100003,3.0,phase_1,,,,,,,,,,,,,gray,flipped triangle
96.0,2.0,1.0,1,1.0,1.0,316.45679473900003,3.0,phase_1,,,,,,,,,,,,,magenta,triangle
216.0,3.0,2.0,1,2.0,2.0,334.403038025,3.0,phase_1,,,,,,,,,,,,,orange,cross
39.0,5.0,0.5,0,2.0,2.0,450.46877861,3.0,phase_1,,,,,,,,,,,,,blue,circle
0.0,5.0,0.0,0,3.0,3.0,250.522136688,3.0,phase_1,,,,,,,,,,,,,blue,circle
55.0,5.0,0.5,0,2.0,2.0,367.748022079,3.0,phase_1,,,,,,,,,,,,,blue,circle
117.0,2.0,1.0,1,2.0,2.0,367.242097855,3.0,phase_1,,,,,,,,,,,,,magenta,triangle
81.0,2.0,1.0,1,2.0,2.0,350.915908813,3.0,phase_1,,,,,,,,,,,,,magenta,triangle
225.0,7.0,2.0,0,4.0,4.0,334.470033646,3.0,phase_1,,,,,,,,,,,,,white,square
410.0,4.0,4.0,0,2.0,2.0,384.30500030499996,3.0,phase_1,,,,,,,,,,,,,gray,flipped triangle
84.0,6.0,1.0,0,2.0,2.0,467.95606613200005,3.0,phase_1,,,,,,,,,,,,,cyan,hexagon
196.0,3.0,2.0,1,4.0,4.0,333.453893661,3.0,phase_1,,,,,,,,,,,,,orange,cross
0.0,6.0,0.0,0,1.0,1.0,334.15222167999997,3.0,phase_1,,,,,,,,,,,,,cyan,hexagon
0.0,8.0,0.0,1,4.0,4.0,367.553949356,3.0,phase_1,,,,,,,,,,,,,green,diamond
0.0,7.0,0.0,0,1.0,1.0,150.66885948200002,3.0,phase_1,,,,,,,,,,,,,white,square
0.0,4.0,0.0,0,1.0,1.0,301.23090743999995,3.0,phase_1,,,,,,,,,,,,,gray,flipped triangle
36.0,1.0,0.5,1,1.0,1.0,417.299032211,3.0,phase_1,,,,,,,,,,,,,yellow,line
0.0,1.0,0.0,1,4.0,4.0,884.2639923099999,3.0,phase_1,,,,,,,,,,,,,yellow,line
122.0,2.0,1.0,1,3.0,3.0,301.384925842,3.0,phase_1,,,,,,,,,,,,,magenta,triangle
0.0,7.0,0.0,0,1.0,1.0,334.563970566,3.0,phase_1,,,,,,,,,,,,,white,square
0.0,5.0,0.0,0,4.0,4.0,150.83193779,3.0,phase_1,,,,,,,,,,,,,blue,circle
0.0,6.0,0.0,0,4.0,4.0,350.59809684799995,3.0,phase_1,,,,,,,,,,,,,cyan,hexagon
185.0,7.0,2.0,0,3.0,3.0,350.800991058,3.0,phase_1,,,,,,,,,,,,,white,square
0.0,7.0,0.0,0,1.0,1.0,200.438022614,3.0,phase_1,,,,,,,,,,,,,white,square
215.0,3.0,2.0,1,3.0,3.0,451.28607749900004,3.0,phase_1,,,,,,,,,,,,,orange,cross
176.0,3.0,2.0,1,1.0,1.0,251.16205215499997,3.0,phase_1,,,,,,,,,,,,,orange,cross
375.0,4.0,4.0,0,2.0,2.0,350.703001022,3.0,phase_1,,,,,,,,,,,,,gray,flipped triangle
406.0,8.0,4.0,1,2.0,2.0,333.698987961,3.0,phase_1,,,,,,,,,,,,,green,diamond
0.0,6.0,0.0,0,1.0,1.0,301.046848297,3.0,phase_1,,,,,,,,,,,,,cyan,hexagon
375.0,8.0,4.0,1,3.0,3.0,317.947149277,3.0,phase_1,,,,,,,,,,,,,green,diamond
0.0,2.0,0.0,1,4.0,4.0,250.53000450099998,3.0,phase_1,,,,,,,,,,,,,magenta,triangle
0.0,5.0,0.0,0,1.0,1.0,300.770044327,3.0,phase_1,,,,,,,,,,,,,blue,circle
424.0,8.0,4.0,1,2.0,2.0,267.498016357,3.0,phase_1,,,,,,,,,,,,,green,diamond
0.0,7.0,0.0,0,3.0,3.0,317.561864853,3.0,phase_1,,,,,,,,,,,,,white,square
424.0,8.0,4.0,1,3.0,3.0,368.04103851300005,3.0,phase_1,,,,,,,,,,,,,green,diamond
405.0,8.0,4.0,1,4.0,4.0,467.522859573,4.0,phase_1,,,,,,,,,,,,,green,diamond
80.0,6.0,1.0,0,2.0,2.0,334.114074707,4.0,phase_1,,,,,,,,,,,,,cyan,hexagon
43.0,1.0,0.5,1,3.0,3.0,351.220846176,4.0,phase_1,,,,,,,,,,,,,yellow,line
401.0,8.0,4.0,1,4.0,4.0,400.850057602,4.0,phase_1,,,,,,,,,,,,,green,diamond
388.0,8.0,4.0,1,2.0,2.0,334.649085999,4.0,phase_1,,,,,,,,,,,,,green,diamond
193.0,7.0,2.0,0,1.0,1.0,334.35606956500004,4.0,phase_1,,,,,,,,,,,,,white,square
184.0,3.0,2.0,1,1.0,1.0,450.911998749,4.0,phase_1,,,,,,,,,,,,,orange,cross
425.0,8.0,4.0,1,2.0,2.0,334.22994613599997,4.0,phase_1,,,,,,,,,,,,,green,diamond
85.0,2.0,1.0,1,2.0,2.0,334.10406112699997,4.0,phase_1,,,,,,,,,,,,,magenta,triangle
0.0,4.0,0.0,0,2.0,2.0,66.8470859528,4.0,phase_1,,,,,,,,,,,,,gray,flipped triangle
0.0,1.0,0.0,1,4.0,4.0,368.212938309,4.0,phase_1,,,,,,,,,,,,,yellow,line
0.0,3.0,0.0,1,1.0,1.0,350.701808929,4.0,phase_1,,,,,,,,,,,,,orange,cross
0.0,4.0,0.0,0,2.0,2.0,150.388002396,4.0,phase_1,,,,,,,,,,,,,gray,flipped triangle
0.0,6.0,0.0,0,4.0,4.0,367.127180099,4.0,phase_1,,,,,,,,,,,,,cyan,hexagon
202.0,7.0,2.0,0,3.0,3.0,318.01295280500005,4.0,phase_1,,,,,,,,,,,,,white,square
188.0,3.0,2.0,1,2.0,2.0,250.960111618,4.0,phase_1,,,,,,,,,,,,,orange,cross
85.0,2.0,1.0,1,1.0,1.0,284.289836884,4.0,phase_1,,,,,,,,,,,,,magenta,triangle
0.0,4.0,0.0,0,1.0,1.0,350.435972214,4.0,phase_1,,,,,,,,,,,,,gray,flipped triangle
208.0,7.0,2.0,0,4.0,4.0,318.08590889,4.0,phase_1,,,,,,,,,,,,,white,square
202.0,3.0,2.0,1,1.0,1.0,317.827939987,4.0,phase_1,,,,,,,,,,,,,orange,cross
0.0,5.0,0.0,0,1.0,1.0,301.13482475300003,4.0,phase_1,,,,,,,,,,,,,blue,circle
201.0,7.0,2.0,0,2.0,2.0,334.213018417,4.0,phase_1,,,,,,,,,,,,,white,square
0.0,8.0,0.0,1,3.0,3.0,100.302934647,4.0,phase_1,,,,,,,,,,,,,green,diamond
392.0,4.0,4.0,0,2.0,2.0,368.083000183,4.0,phase_1,,,,,,,,,,,,,gray,flipped triangle
108.0,6.0,1.0,0,2.0,2.0,367.37203598,4.0,phase_1,,,,,,,,,,,,,cyan,hexagon
386.0,8.0,4.0,1,3.0,3.0,367.383003235,4.0,phase_1,,,,,,,,,,,,,green,diamond
36.0,5.0,0.5,0,3.0,3.0,333.959817886,4.0,phase_1,,,,,,,,,,,,,blue,circle
0.0,7.0,0.0,0,1.0,1.0,316.730976105,4.0,phase_1,,,,,,,,,,,,,white,square
216.0,7.0,2.0,0,2.0,2.0,400.961875916,4.0,phase_1,,,,,,,,,,,,,white,square
0.0,5.0,0.0,0,4.0,4.0,117.302179337,4.0,phase_1,,,,,,,,,,,,,blue,circle
0.0,5.0,0.0,0,3.0,3.0,367.439031601,4.0,phase_1,,,,,,,,,,,,,blue,circle
58.0,1.0,0.5,1,4.0,4.0,417.304039001,4.0,phase_1,,,,,,,,,,,,,yellow,line
378.0,8.0,4.0,1,3.0,3.0,367.417097092,4.0,phase_1,,,,,,,,,,,,,green,diamond
0.0,1.0,0.0,1,4.0,4.0,350.594043732,4.0,phase_1,,,,,,,,,,,,,yellow,line
106.0,6.0,1.0,0,4.0,4.0,384.31596756000005,4.0,phase_1,,,,,,,,,,,,,cyan,hexagon
176.0,3.0,2.0,1,4.0,4.0,351.10187530499996,4.0,phase_1,,,,,,,,,,,,,orange,cross
73.0,5.0,0.5,0,3.0,3.0,400.65503120399995,4.0,phase_1,,,,,,,,,,,,,blue,circle
63.0,5.0,0.5,0,1.0,1.0,333.829879761,4.0,phase_1,,,,,,,,,,,,,blue,circle
55.0,5.0,0.5,0,1.0,1.0,317.96503067,4.0,phase_1,,,,,,,,,,,,,blue,circle
0.0,2.0,0.0,1,1.0,1.0,200.659990311,4.0,phase_1,,,,,,,,,,,,,magenta,triangle
0.0,4.0,0.0,0,4.0,4.0,367.578029633,4.0,phase_1,,,,,,,,,,,,,gray,flipped triangle
0.0,5.0,0.0,0,3.0,3.0,317.524909973,4.0,phase_1,,,,,,,,,,,,,blue,circle
401.0,4.0,4.0,0,4.0,4.0,334.449052811,4.0,phase_1,,,,,,,,,,,,,gray,flipped triangle
416.0,4.0,4.0,0,1.0,1.0,450.988054276,4.0,phase_1,,,,,,,,,,,,,gray,flipped triangle
41.0,5.0,0.5,0,1.0,1.0,334.35297012300003,4.0,phase_1,,,,,,,,,,,,,blue,circle
220.0,7.0,2.0,0,3.0,3.0,333.84513855,4.0,phase_1,,,,,,,,,,,,,white,square
0.0,5.0,0.0,0,3.0,3.0,150.95901489300002,4.0,phase_1,,,,,,,,,,,,,blue,circle
206.0,3.0,2.0,1,2.0,2.0,267.371177673,4.0,phase_1,,,,,,,,,,,,,orange,cross
39.0,1.0,0.5,1,4.0,4.0,317.54708290099995,4.0,phase_1,,,,,,,,,,,,,yellow,line
0.0,3.0,0.0,1,4.0,4.0,250.648975372,4.0,phase_1,,,,,,,,,,,,,orange,cross
413.0,4.0,4.0,0,3.0,3.0,317.26312637300003,4.0,phase_1,,,,,,,,,,,,,gray,flipped triangle
0.0,5.0,0.0,0,4.0,4.0,183.953046799,4.0,phase_1,,,,,,,,,,,,,blue,circle
400.0,8.0,4.0,1,2.0,2.0,384.814977646,4.0,phase_1,,,,,,,,,,,,,green,diamond
124.0,2.0,1.0,1,2.0,2.0,400.58183670000005,4.0,phase_1,,,,,,,,,,,,,magenta,triangle
28.0,1.0,0.5,1,4.0,4.0,351.07207298300006,4.0,phase_1,,,,,,,,,,,,,yellow,line
0.0,5.0,0.0,0,2.0,2.0,500.98705291699997,4.0,phase_1,,,,,,,,,,,,,blue,circle
59.0,1.0,0.5,1,4.0,4.0,284.24096107500003,4.0,phase_1,,,,,,,,,,,,,yellow,line
95.0,2.0,1.0,1,1.0,1.0,317.420005798,4.0,phase_1,,,,,,,,,,,,,magenta,triangle
0.0,6.0,0.0,0,4.0,4.0,935.2819919589999,4.0,phase_1,,,,,,,,,,,,,cyan,hexagon
182.0,3.0,2.0,1,3.0,3.0,367.53582954399997,4.0,phase_1,,,,,,,,,,,,,orange,cross
191.0,3.0,2.0,1,4.0,4.0,317.541837692,4.0,phase_1,,,,,,,,,,,,,orange,cross
176.0,3.0,2.0,1,3.0,3.0,284.70993042,4.0,phase_1,,,,,,,,,,,,,orange,cross
0.0,3.0,0.0,1,3.0,3.0,349.959850311,4.0,phase_1,,,,,,,,,,,,,orange,cross
48.0,5.0,0.5,0,4.0,4.0,334.143161774,4.0,phase_1,,,,,,,,,,,,,blue,circle
203.0,7.0,2.0,0,2.0,2.0,350.86989402800003,4.0,phase_1,,,,,,,,,,,,,white,square
108.0,2.0,1.0,1,3.0,3.0,301.114082336,4.0,phase_1,,,,,,,,,,,,,magenta,triangle
0.0,4.0,0.0,0,4.0,4.0,434.459924698,4.0,phase_1,,,,,,,,,,,,,gray,flipped triangle
75.0,2.0,1.0,1,1.0,1.0,350.85105896000005,4.0,phase_1,,,,,,,,,,,,,magenta,triangle
216.0,7.0,2.0,0,2.0,2.0,350.74090957600004,4.0,phase_1,,,,,,,,,,,,,white,square
0.0,7.0,0.0,0,3.0,3.0,317.91806221,4.0,phase_1,,,,,,,,,,,,,white,square
28.0,5.0,0.5,0,1.0,1.0,400.74300766,4.0,phase_1,,,,,,,,,,,,,blue,circle
0.0,4.0,0.0,0,1.0,1.0,200.763940811,4.0,phase_1,,,,,,,,,,,,,gray,flipped triangle
0.0,8.0,0.0,1,2.0,,,4.0,phase_1,,,,,,,,,,,,,green,diamond
0.0,5.0,0.0,0,3.0,,,4.0,phase_1,,,,,,,,,,,,,blue,circle
0.0,1.0,0.0,1,2.0,,,4.0,phase_1,,,,,,,,,,,,,yellow,line
0.0,5.0,0.0,0,4.0,,,4.0,phase_1,,,,,,,,,,,,,blue,circle
0.0,1.0,0.0,1,1.0,,,4.0,phase_1,,,,,,,,,,,,,yellow,line
0.0,8.0,0.0,1,2.0,,,4.0,phase_1,,,,,,,,,,,,,green,diamond
0.0,2.0,0.0,1,4.0,,,4.0,phase_1,,,,,,,,,,,,,magenta,triangle
0.0,1.0,0.0,1,1.0,,,4.0,phase_1,,,,,,,,,,,,,yellow,line
0.0,4.0,0.0,0,3.0,,,4.0,phase_1,,,,,,,,,,,,,gray,flipped triangle
0.0,2.0,0.0,1,1.0,,,4.0,phase_1,,,,,,,,,,,,,magenta,triangle
0.0,1.0,0.0,1,1.0,,,4.0,phase_1,,,,,,,,,,,,,yellow,line
0.0,2.0,0.0,1,3.0,,,4.0,phase_1,,,,,,,,,,,,,magenta,triangle
0.0,5.0,0.0,0,1.0,,,4.0,phase_1,,,,,,,,,,,,,blue,circle
0.0,5.0,0.0,0,3.0,3.0,334.31506156899997,4.0,phase_1,,,,,,,,,,,,,blue,circle
94.0,2.0,1.0,1,4.0,4.0,584.897994995,4.0,phase_1,,,,,,,,,,,,,magenta,triangle
91.0,2.0,1.0,1,1.0,1.0,350.25906562800003,4.0,phase_1,,,,,,,,,,,,,magenta,triangle
91.0,2.0,1.0,1,3.0,3.0,251.336097717,4.0,phase_1,,,,,,,,,,,,,magenta,triangle
0.0,6.0,0.0,0,3.0,3.0,117.067098618,4.0,phase_1,,,,,,,,,,,,,cyan,hexagon
0.0,6.0,0.0,0,2.0,2.0,83.34517478939999,4.0,phase_1,,,,,,,,,,,,,cyan,hexagon
387.0,4.0,4.0,0,3.0,3.0,384.38296318100004,4.0,phase_1,,,,,,,,,,,,,gray,flipped triangle
0.0,8.0,0.0,1,2.0,2.0,50.4150390625,4.0,phase_1,,,,,,,,,,,,,green,diamond
0.0,2.0,0.0,1,1.0,1.0,350.419044495,4.0,phase_1,,,,,,,,,,,,,magenta,triangle
52.0,1.0,0.5,1,1.0,1.0,417.289018631,4.0,phase_1,,,,,,,,,,,,,yellow,line
175.0,3.0,2.0,1,3.0,3.0,350.85010528600003,4.0,phase_1,,,,,,,,,,,,,orange,cross
0.0,8.0,0.0,1,2.0,2.0,367.44594574,4.0,phase_1,,,,,,,,,,,,,green,diamond
0.0,6.0,0.0,0,4.0,4.0,267.115116119,4.0,phase_1,,,,,,,,,,,,,cyan,hexagon
0.0,2.0,0.0,1,2.0,2.0,317.525863647,4.0,phase_1,,,,,,,,,,,,,magenta,triangle
99.0,6.0,1.0,0,2.0,2.0,367.89608001700003,4.0,phase_1,,,,,,,,,,,,,cyan,hexagon
0.0,3.0,2.0,1,5.0,5.0,467.57888793899997,1.0,phase_2,stop,250.0,250.0,3.0,,,,,,,,,orange,cross
0.0,6.0,1.0,0,6.0,6.0,400.68006515499997,1.0,phase_2,go,250.0,250.0,1.0,,,,,,,,,cyan,hexagon
0.0,7.0,2.0,0,5.0,5.0,384.856939316,1.0,phase_2,go,250.0,250.0,1.0,,,,,,,,,white,square
0.0,3.0,2.0,1,5.0,0.0,,1.0,phase_2,stop,200.0,250.0,4.0,,,,,,,,,orange,cross
0.0,4.0,4.0,0,5.0,5.0,400.757074356,1.0,phase_2,go,200.0,250.0,1.0,,,,,,,,,gray,flipped triangle
0.0,8.0,4.0,1,5.0,5.0,351.084947586,1.0,phase_2,go,200.0,250.0,1.0,,,,,,,,,green,diamond
0.0,2.0,1.0,1,5.0,5.0,316.832065582,1.0,phase_2,go,200.0,250.0,1.0,,,,,,,,,magenta,triangle
0.0,6.0,1.0,0,6.0,6.0,366.948127747,1.0,phase_2,go,200.0,250.0,1.0,,,,,,,,,cyan,hexagon
0.0,5.0,0.5,0,5.0,5.0,333.77099037199997,1.0,phase_2,go,200.0,250.0,1.0,,,,,,,,,blue,circle
0.0,2.0,1.0,1,5.0,5.0,367.486000061,1.0,phase_2,stop,250.0,250.0,3.0,,,,,,,,,magenta,triangle
0.0,2.0,1.0,1,5.0,0.0,,1.0,phase_2,stop,200.0,250.0,4.0,,,,,,,,,magenta,triangle
0.0,3.0,2.0,1,5.0,5.0,350.97002983100003,1.0,phase_2,stop,250.0,250.0,3.0,,,,,,,,,orange,cross
0.0,8.0,4.0,1,6.0,6.0,384.3998909,1.0,phase_2,stop,250.0,250.0,3.0,,,,,,,,,green,diamond
0.0,8.0,4.0,1,5.0,5.0,434.21697616600005,1.0,phase_2,stop,200.0,250.0,3.0,,,,,,,,,green,diamond
0.0,4.0,4.0,0,6.0,6.0,551.502943039,1.0,phase_2,go,200.0,250.0,1.0,,,,,,,,,gray,flipped triangle
0.0,4.0,4.0,0,6.0,6.0,350.67009925800005,1.0,phase_2,go,200.0,250.0,1.0,,,,,,,,,gray,flipped triangle
0.0,1.0,0.5,1,6.0,6.0,518.0270671840001,1.0,phase_2,go,200.0,250.0,1.0,,,,,,,,,yellow,line
0.0,6.0,1.0,0,6.0,6.0,468.394994736,1.0,phase_2,go,200.0,250.0,1.0,,,,,,,,,cyan,hexagon
0.0,6.0,1.0,0,6.0,6.0,417.486190796,1.0,phase_2,go,200.0,250.0,1.0,,,,,,,,,cyan,hexagon
0.0,4.0,4.0,0,5.0,5.0,450.606107712,1.0,phase_2,go,200.0,250.0,1.0,,,,,,,,,gray,flipped triangle
0.0,8.0,4.0,1,5.0,5.0,417.506933212,1.0,phase_2,stop,150.0,250.0,3.0,,,,,,,,,green,diamond
0.0,1.0,0.5,1,6.0,0.0,,1.0,phase_2,stop,150.0,200.0,4.0,,,,,,,,,yellow,line
0.0,2.0,1.0,1,6.0,0.0,,1.0,phase_2,stop,150.0,250.0,4.0,,,,,,,,,magenta,triangle
0.0,1.0,0.5,1,6.0,0.0,,1.0,phase_2,stop,150.0,300.0,4.0,,,,,,,,,yellow,line
0.0,3.0,2.0,1,6.0,0.0,,1.0,phase_2,stop,150.0,350.0,4.0,,,,,,,,,orange,cross
0.0,2.0,1.0,1,6.0,6.0,434.180021286,1.0,phase_2,go,150.0,350.0,1.0,,,,,,,,,magenta,triangle
0.0,4.0,4.0,0,6.0,6.0,384.13310051,1.0,phase_2,go,150.0,350.0,1.0,,,,,,,,,gray,flipped triangle
0.0,1.0,0.5,1,6.0,6.0,401.682138443,1.0,phase_2,stop,150.0,400.0,3.0,,,,,,,,,yellow,line
0.0,6.0,1.0,0,5.0,5.0,617.8719997410001,1.0,phase_2,go,150.0,400.0,1.0,,,,,,,,,cyan,hexagon
0.0,2.0,1.0,1,6.0,0.0,,1.0,phase_2,stop,150.0,350.0,4.0,,,,,,,,,magenta,triangle
0.0,5.0,0.5,0,5.0,5.0,784.140825272,1.0,phase_2,go,150.0,350.0,1.0,,,,,,,,,blue,circle
0.0,7.0,2.0,0,5.0,5.0,601.551055908,1.0,phase_2,go,150.0,350.0,1.0,,,,,,,,,white,square
0.0,7.0,2.0,0,6.0,6.0,501.02496147200003,1.0,phase_2,go,150.0,350.0,1.0,,,,,,,,,white,square
0.0,3.0,2.0,1,5.0,5.0,551.202058792,1.0,phase_2,go,150.0,350.0,1.0,,,,,,,,,orange,cross
0.0,6.0,1.0,0,6.0,6.0,450.915813446,1.0,phase_2,go,150.0,350.0,1.0,,,,,,,,,cyan,hexagon
0.0,3.0,2.0,1,5.0,0.0,,1.0,phase_2,stop,100.0,350.0,4.0,,,,,,,,,orange,cross
0.0,3.0,2.0,1,5.0,5.0,784.574985504,2.0,phase_2,go,100.0,350.0,1.0,,,,,,,,,orange,cross
0.0,8.0,4.0,1,6.0,6.0,450.98900795000003,2.0,phase_2,stop,100.0,400.0,3.0,,,,,,,,,green,diamond
0.0,1.0,0.5,1,5.0,0.0,,2.0,phase_2,stop,150.0,400.0,4.0,,,,,,,,,yellow,line
0.0,4.0,4.0,0,6.0,6.0,384.808063507,2.0,phase_2,go,150.0,400.0,1.0,,,,,,,,,gray,flipped triangle
0.0,3.0,2.0,1,5.0,5.0,384.848117828,2.0,phase_2,stop,200.0,400.0,3.0,,,,,,,,,orange,cross
0.0,4.0,4.0,0,6.0,6.0,417.36412048299997,2.0,phase_2,go,200.0,400.0,1.0,,,,,,,,,gray,flipped triangle
0.0,3.0,2.0,1,5.0,0.0,,2.0,phase_2,stop,150.0,400.0,4.0,,,,,,,,,orange,cross
0.0,2.0,1.0,1,5.0,5.0,467.46087074300004,2.0,phase_2,stop,200.0,400.0,3.0,,,,,,,,,magenta,triangle
0.0,7.0,2.0,0,6.0,6.0,535.001993179,2.0,phase_2,go,200.0,400.0,1.0,,,,,,,,,white,square
0.0,4.0,4.0,0,5.0,5.0,417.35386848400003,2.0,phase_2,go,200.0,400.0,1.0,,,,,,,,,gray,flipped triangle
0.0,5.0,0.5,0,5.0,5.0,417.919874191,2.0,phase_2,go,200.0,400.0,1.0,,,,,,,,,blue,circle
0.0,2.0,1.0,1,5.0,0.0,,2.0,phase_2,stop,150.0,400.0,4.0,,,,,,,,,magenta,triangle
0.0,8.0,4.0,1,6.0,6.0,617.699861526,2.0,phase_2,stop,150.0,350.0,3.0,,,,,,,,,green,diamond
0.0,1.0,0.5,1,6.0,0.0,,2.0,phase_2,stop,150.0,300.0,4.0,,,,,,,,,yellow,line
0.0,3.0,2.0,1,5.0,0.0,,2.0,phase_2,stop,200.0,300.0,4.0,,,,,,,,,orange,cross
0.0,2.0,1.0,1,5.0,5.0,401.293992996,2.0,phase_2,go,200.0,300.0,1.0,,,,,,,,,magenta,triangle
0.0,7.0,2.0,0,6.0,6.0,434.566020966,2.0,phase_2,go,200.0,300.0,1.0,,,,,,,,,white,square
0.0,4.0,4.0,0,6.0,6.0,484.91191864,2.0,phase_2,go,200.0,300.0,1.0,,,,,,,,,gray,flipped triangle
0.0,6.0,1.0,0,6.0,6.0,434.38792228700004,2.0,phase_2,go,200.0,300.0,1.0,,,,,,,,,cyan,hexagon
0.0,1.0,0.5,1,5.0,0.0,,2.0,phase_2,stop,250.0,300.0,4.0,,,,,,,,,yellow,line
0.0,4.0,4.0,0,5.0,5.0,801.836967468,2.0,phase_2,go,250.0,300.0,1.0,,,,,,,,,gray,flipped triangle
0.0,5.0,0.5,0,5.0,5.0,483.892917633,2.0,phase_2,go,250.0,300.0,1.0,,,,,,,,,blue,circle
0.0,5.0,0.5,0,6.0,6.0,450.752973557,2.0,phase_2,go,250.0,300.0,1.0,,,,,,,,,blue,circle
0.0,6.0,1.0,0,6.0,6.0,400.33197402999997,2.0,phase_2,go,250.0,300.0,1.0,,,,,,,,,cyan,hexagon
0.0,8.0,4.0,1,6.0,6.0,434.422016144,2.0,phase_2,stop,250.0,350.0,3.0,,,,,,,,,green,diamond
0.0,8.0,4.0,1,5.0,0.0,,2.0,phase_2,stop,300.0,350.0,4.0,,,,,,,,,green,diamond
0.0,4.0,4.0,0,5.0,5.0,534.58404541,2.0,phase_2,go,300.0,350.0,1.0,,,,,,,,,gray,flipped triangle
0.0,1.0,0.5,1,6.0,0.0,,2.0,phase_2,stop,300.0,300.0,4.0,,,,,,,,,yellow,line
0.0,7.0,2.0,0,6.0,6.0,751.20806694,2.0,phase_2,go,300.0,300.0,1.0,,,,,,,,,white,square
0.0,8.0,4.0,1,6.0,0.0,,2.0,phase_2,stop,300.0,350.0,4.0,,,,,,,,,green,diamond
0.0,7.0,2.0,0,5.0,5.0,717.730998993,2.0,phase_2,go,300.0,350.0,1.0,,,,,,,,,white,square
0.0,4.0,4.0,0,6.0,6.0,467.434883118,2.0,phase_2,go,300.0,350.0,1.0,,,,,,,,,gray,flipped triangle
0.0,6.0,1.0,0,5.0,5.0,467.60511398299997,2.0,phase_2,go,300.0,350.0,1.0,,,,,,,,,cyan,hexagon
0.0,4.0,4.0,0,6.0,6.0,401.309013367,2.0,phase_2,go,300.0,350.0,1.0,,,,,,,,,gray,flipped triangle
0.0,5.0,0.5,0,5.0,5.0,400.43592452999997,2.0,phase_2,go,300.0,350.0,1.0,,,,,,,,,blue,circle
0.0,5.0,0.5,0,6.0,6.0,450.169086456,2.0,phase_2,go,300.0,350.0,1.0,,,,,,,,,blue,circle
0.0,3.0,2.0,1,5.0,0.0,,3.0,phase_2,stop,350.0,350.0,4.0,,,,,,,,,orange,cross
0.0,1.0,0.5,1,5.0,0.0,,3.0,phase_2,stop,400.0,350.0,4.0,,,,,,,,,yellow,line
0.0,6.0,1.0,0,6.0,6.0,350.744962692,3.0,phase_2,go,400.0,350.0,1.0,,,,,,,,,cyan,hexagon
0.0,5.0,0.5,0,5.0,5.0,417.455911636,3.0,phase_2,go,400.0,350.0,1.0,,,,,,,,,blue,circle
0.0,5.0,0.5,0,6.0,6.0,367.429971695,3.0,phase_2,go,400.0,350.0,1.0,,,,,,,,,blue,circle
0.0,5.0,0.5,0,5.0,5.0,500.92291832,3.0,phase_2,go,400.0,350.0,1.0,,,,,,,,,blue,circle
0.0,3.0,2.0,1,6.0,6.0,517.958879471,3.0,phase_2,stop,400.0,400.0,3.0,,,,,,,,,orange,cross
0.0,2.0,1.0,1,6.0,0.0,,3.0,phase_2,stop,400.0,350.0,4.0,,,,,,,,,magenta,triangle
0.0,3.0,2.0,1,5.0,5.0,701.251983643,3.0,phase_2,go,400.0,350.0,1.0,,,,,,,,,orange,cross
0.0,6.0,1.0,0,6.0,6.0,801.389932632,3.0,phase_2,go,400.0,350.0,1.0,,,,,,,,,cyan,hexagon
0.0,2.0,1.0,1,6.0,6.0,433.95781517,3.0,phase_2,stop,400.0,400.0,3.0,,,,,,,,,magenta,triangle
0.0,8.0,4.0,1,6.0,0.0,,3.0,phase_2,stop,400.0,350.0,4.0,,,,,,,,,green,diamond
0.0,5.0,0.5,0,6.0,6.0,534.118890762,3.0,phase_2,go,400.0,350.0,1.0,,,,,,,,,blue,circle
0.0,8.0,4.0,1,6.0,0.0,,3.0,phase_2,stop,400.0,400.0,4.0,,,,,,,,,green,diamond
0.0,2.0,1.0,1,5.0,5.0,551.1500835420001,3.0,phase_2,go,400.0,400.0,1.0,,,,,,,,,magenta,triangle
0.0,8.0,4.0,1,5.0,0.0,,3.0,phase_2,stop,450.0,400.0,4.0,,,,,,,,,green,diamond
0.0,5.0,0.5,0,6.0,6.0,751.457929611,3.0,phase_2,go,450.0,400.0,1.0,,,,,,,,,blue,circle
0.0,1.0,0.5,1,6.0,6.0,417.191982269,3.0,phase_2,stop,450.0,450.0,3.0,,,,,,,,,yellow,line
0.0,5.0,0.5,0,5.0,5.0,684.096813202,3.0,phase_2,go,450.0,450.0,1.0,,,,,,,,,blue,circle
0.0,6.0,1.0,0,5.0,5.0,517.3461437230001,3.0,phase_2,go,450.0,450.0,1.0,,,,,,,,,cyan,hexagon
0.0,1.0,0.5,1,5.0,0.0,,3.0,phase_2,stop,500.0,450.0,4.0,,,,,,,,,yellow,line
0.0,4.0,4.0,0,5.0,5.0,651.152133942,3.0,phase_2,go,500.0,450.0,1.0,,,,,,,,,gray,flipped triangle
0.0,5.0,0.5,0,6.0,6.0,517.282009125,3.0,phase_2,go,500.0,450.0,1.0,,,,,,,,,blue,circle
0.0,3.0,2.0,1,5.0,5.0,534.282922745,3.0,phase_2,stop,550.0,450.0,3.0,,,,,,,,,orange,cross
0.0,1.0,0.5,1,6.0,0.0,,3.0,phase_2,stop,550.0,400.0,4.0,,,,,,,,,yellow,line
0.0,1.0,0.5,1,5.0,5.0,684.422969818,3.0,phase_2,go,550.0,400.0,1.0,,,,,,,,,yellow,line
0.0,6.0,1.0,0,5.0,5.0,534.436941147,3.0,phase_2,go,550.0,400.0,1.0,,,,,,,,,cyan,hexagon
0.0,8.0,4.0,1,5.0,0.0,,3.0,phase_2,stop,500.0,400.0,4.0,,,,,,,,,green,diamond
0.0,7.0,2.0,0,5.0,5.0,734.428882599,3.0,phase_2,go,500.0,400.0,1.0,,,,,,,,,white,square
0.0,8.0,4.0,1,6.0,0.0,,3.0,phase_2,stop,500.0,450.0,4.0,,,,,,,,,green,diamond
0.0,1.0,0.5,1,6.0,0.0,,3.0,phase_2,stop,500.0,500.0,4.0,,,,,,,,,yellow,line
0.0,2.0,1.0,1,5.0,0.0,,3.0,phase_2,stop,550.0,500.0,4.0,,,,,,,,,magenta,triangle
0.0,8.0,4.0,1,6.0,0.0,,3.0,phase_2,stop,550.0,550.0,4.0,,,,,,,,,green,diamond
0.0,1.0,0.5,1,6.0,6.0,751.124858856,3.0,phase_2,stop,550.0,600.0,3.0,,,,,,,,,yellow,line
0.0,1.0,0.5,1,5.0,5.0,534.852981567,3.0,phase_2,stop,600.0,600.0,3.0,,,,,,,,,yellow,line
0.0,2.0,1.0,1,6.0,6.0,801.698923111,3.0,phase_2,go,600.0,600.0,1.0,,,,,,,,,magenta,triangle
0.0,6.0,1.0,0,5.0,5.0,550.5409240719999,4.0,phase_2,go,600.0,600.0,1.0,,,,,,,,,cyan,hexagon
0.0,1.0,0.5,1,5.0,5.0,700.7238864899999,4.0,phase_2,go,600.0,600.0,1.0,,,,,,,,,yellow,line
0.0,3.0,2.0,1,5.0,0.0,,4.0,phase_2,stop,550.0,600.0,4.0,,,,,,,,,orange,cross
0.0,5.0,0.5,0,6.0,6.0,917.749166489,4.0,phase_2,go,550.0,600.0,1.0,,,,,,,,,blue,circle
0.0,2.0,1.0,1,6.0,0.0,,4.0,phase_2,stop,550.0,550.0,4.0,,,,,,,,,magenta,triangle
0.0,1.0,0.5,1,6.0,6.0,801.262140274,4.0,phase_2,go,550.0,550.0,1.0,,,,,,,,,yellow,line
0.0,3.0,2.0,1,6.0,6.0,734.2891693119999,4.0,phase_2,stop,550.0,600.0,3.0,,,,,,,,,orange,cross
0.0,7.0,2.0,0,5.0,5.0,734.311103821,4.0,phase_2,go,550.0,600.0,1.0,,,,,,,,,white,square
0.0,2.0,1.0,1,5.0,5.0,518.15199852,4.0,phase_2,stop,600.0,600.0,3.0,,,,,,,,,magenta,triangle
0.0,6.0,1.0,0,6.0,0.0,,4.0,phase_2,go,600.0,600.0,5.0,,,,,,,,,cyan,hexagon
0.0,4.0,4.0,0,5.0,5.0,834.545850754,4.0,phase_2,go,600.0,600.0,1.0,,,,,,,,,gray,flipped triangle
0.0,3.0,2.0,1,6.0,6.0,500.909090042,4.0,phase_2,stop,600.0,550.0,3.0,,,,,,,,,orange,cross
0.0,8.0,4.0,1,5.0,0.0,,4.0,phase_2,stop,550.0,550.0,4.0,,,,,,,,,green,diamond
0.0,6.0,1.0,0,6.0,6.0,834.532976151,4.0,phase_2,go,550.0,550.0,1.0,,,,,,,,,cyan,hexagon
0.0,2.0,1.0,1,6.0,6.0,635.046005249,4.0,phase_2,go,550.0,550.0,1.0,,,,,,,,,magenta,triangle
0.0,2.0,1.0,1,6.0,0.0,,4.0,phase_2,stop,550.0,500.0,4.0,,,,,,,,,magenta,triangle
0.0,2.0,1.0,1,5.0,0.0,,4.0,phase_2,stop,600.0,500.0,4.0,,,,,,,,,magenta,triangle
0.0,8.0,4.0,1,6.0,6.0,534.294843674,4.0,phase_2,go,600.0,500.0,1.0,,,,,,,,,green,diamond
0.0,7.0,2.0,0,6.0,6.0,718.1320190429999,4.0,phase_2,go,600.0,500.0,1.0,,,,,,,,,white,square
0.0,3.0,2.0,1,6.0,0.0,,4.0,phase_2,stop,600.0,550.0,4.0,,,,,,,,,orange,cross
0.0,6.0,1.0,0,5.0,5.0,868.534088135,4.0,phase_2,go,600.0,550.0,1.0,,,,,,,,,cyan,hexagon
0.0,4.0,4.0,0,6.0,6.0,550.6680011750001,4.0,phase_2,go,600.0,550.0,1.0,,,,,,,,,gray,flipped triangle
0.0,5.0,0.5,0,5.0,5.0,367.239952087,4.0,phase_2,go,600.0,550.0,1.0,,,,,,,,,blue,circle
0.0,7.0,2.0,0,5.0,5.0,450.74915885900003,4.0,phase_2,go,600.0,550.0,1.0,,,,,,,,,white,square
0.0,7.0,2.0,0,5.0,5.0,400.759935379,4.0,phase_2,go,600.0,550.0,1.0,,,,,,,,,white,square
0.0,4.0,4.0,0,5.0,5.0,517.512798309,4.0,phase_2,go,600.0,550.0,1.0,,,,,,,,,gray,flipped triangle
0.0,8.0,4.0,1,5.0,5.0,867.781877518,4.0,phase_2,go,600.0,550.0,1.0,,,,,,,,,green,diamond
0.0,5.0,0.5,0,6.0,6.0,784.3830585479999,4.0,phase_2,go,600.0,550.0,1.0,,,,,,,,,blue,circle
0.0,8.0,4.0,1,5.0,5.0,367.187023163,4.0,phase_2,go,600.0,550.0,1.0,,,,,,,,,green,diamond
0.0,4.0,4.0,0,6.0,6.0,451.00402832000003,4.0,phase_2,go,600.0,550.0,1.0,,,,,,,,,gray,flipped triangle
0.0,3.0,2.0,1,5.0,5.0,701.4188766479999,4.0,phase_2,go,600.0,550.0,1.0,,,,,,,,,orange,cross
0.0,7.0,2.0,0,6.0,6.0,600.974082947,4.0,phase_2,go,600.0,550.0,1.0,,,,,,,,,white,square
0.0,3.0,2.0,1,5.0,5.0,483.700990677,4.0,phase_2,stop,650.0,550.0,3.0,,,,,,,,,orange,cross
0.0,1.0,0.5,1,6.0,0.0,,4.0,phase_2,stop,650.0,600.0,4.0,,,,,,,,,yellow,line
0.0,2.0,1.0,1,5.0,5.0,734.8101139070001,4.0,phase_2,stop,600.0,600.0,3.0,,,,,,,,,magenta,triangle
0.0,1.0,0.5,1,6.0,6.0,717.739105225,4.0,phase_2,go,600.0,600.0,1.0,,,,,,,,,yellow,line
0.0,7.0,2.0,0,5.0,5.0,434.18097496,5.0,phase_2,go,600.0,600.0,1.0,,,,,,,,,white,square
0.0,1.0,0.5,1,6.0,6.0,300.412893295,5.0,phase_2,go,600.0,600.0,1.0,,,,,,,,,yellow,line
0.0,1.0,0.5,1,6.0,6.0,350.85105896000005,5.0,phase_2,stop,600.0,650.0,3.0,,,,,,,,,yellow,line
0.0,8.0,4.0,1,6.0,6.0,734.692811966,5.0,phase_2,go,600.0,650.0,1.0,,,,,,,,,green,diamond
0.0,7.0,2.0,0,6.0,6.0,384.086847305,5.0,phase_2,go,600.0,650.0,1.0,,,,,,,,,white,square
0.0,3.0,2.0,1,5.0,5.0,350.800991058,5.0,phase_2,go,600.0,650.0,1.0,,,,,,,,,orange,cross
0.0,6.0,1.0,0,6.0,6.0,284.285068512,5.0,phase_2,go,600.0,650.0,1.0,,,,,,,,,cyan,hexagon
0.0,5.0,0.5,0,5.0,5.0,283.77699852,5.0,phase_2,go,600.0,650.0,1.0,,,,,,,,,blue,circle
0.0,3.0,2.0,1,5.0,5.0,367.26808548,5.0,phase_2,stop,550.0,650.0,3.0,,,,,,,,,orange,cross
0.0,4.0,4.0,0,5.0,5.0,634.133815765,5.0,phase_2,go,550.0,650.0,1.0,,,,,,,,,gray,flipped triangle
0.0,8.0,4.0,1,5.0,5.0,367.294073105,5.0,phase_2,stop,500.0,650.0,3.0,,,,,,,,,green,diamond
0.0,5.0,0.5,0,6.0,6.0,450.843095779,5.0,phase_2,go,500.0,650.0,1.0,,,,,,,,,blue,circle
0.0,3.0,2.0,1,6.0,0.0,,5.0,phase_2,stop,500.0,600.0,4.0,,,,,,,,,orange,cross
0.0,1.0,0.5,1,6.0,6.0,818.675994873,5.0,phase_2,stop,500.0,650.0,3.0,,,,,,,,,yellow,line
0.0,5.0,0.5,0,6.0,6.0,751.801967621,5.0,phase_2,go,500.0,650.0,1.0,,,,,,,,,blue,circle
0.0,5.0,0.5,0,6.0,6.0,367.65909194899996,5.0,phase_2,go,500.0,650.0,1.0,,,,,,,,,blue,circle
0.0,3.0,2.0,1,5.0,5.0,450.813055038,5.0,phase_2,stop,450.0,650.0,3.0,,,,,,,,,orange,cross
0.0,7.0,2.0,0,5.0,5.0,367.66910552999997,5.0,phase_2,go,450.0,650.0,1.0,,,,,,,,,white,square
0.0,2.0,1.0,1,5.0,5.0,383.670091629,5.0,phase_2,stop,400.0,650.0,3.0,,,,,,,,,magenta,triangle
0.0,8.0,4.0,1,5.0,5.0,868.089914322,5.0,phase_2,go,400.0,650.0,1.0,,,,,,,,,green,diamond
0.0,6.0,1.0,0,5.0,5.0,367.98810958900003,5.0,phase_2,go,400.0,650.0,1.0,,,,,,,,,cyan,hexagon
0.0,5.0,0.5,0,6.0,5.0,250.44107437099998,5.0,phase_2,go,400.0,650.0,2.0,,,,,,,,,blue,circle
0.0,4.0,4.0,0,5.0,5.0,400.570869446,5.0,phase_2,go,400.0,650.0,1.0,,,,,,,,,gray,flipped triangle
0.0,7.0,2.0,0,6.0,6.0,284.000873566,5.0,phase_2,go,400.0,650.0,1.0,,,,,,,,,white,square
0.0,2.0,1.0,1,6.0,6.0,367.671012878,5.0,phase_2,stop,400.0,600.0,3.0,,,,,,,,,magenta,triangle
0.0,8.0,4.0,1,5.0,0.0,,5.0,phase_2,stop,350.0,600.0,4.0,,,,,,,,,green,diamond
0.0,2.0,1.0,1,5.0,0.0,,5.0,phase_2,stop,400.0,600.0,4.0,,,,,,,,,magenta,triangle
0.0,4.0,4.0,0,5.0,5.0,534.27195549,5.0,phase_2,go,400.0,600.0,1.0,,,,,,,,,gray,flipped triangle
0.0,2.0,1.0,1,5.0,5.0,367.36011505100004,5.0,phase_2,stop,450.0,600.0,3.0,,,,,,,,,magenta,triangle
0.0,5.0,0.5,0,6.0,6.0,584.0990543370001,5.0,phase_2,go,450.0,600.0,1.0,,,,,,,,,blue,circle
0.0,7.0,2.0,0,6.0,6.0,534.4641208649999,5.0,phase_2,go,450.0,600.0,1.0,,,,,,,,,white,square
0.0,1.0,0.5,1,5.0,0.0,,5.0,phase_2,stop,400.0,600.0,4.0,,,,,,,,,yellow,line
0.0,6.0,1.0,0,5.0,5.0,600.775003433,5.0,phase_2,go,400.0,600.0,1.0,,,,,,,,,cyan,hexagon
0.0,3.0,2.0,1,6.0,6.0,450.42204856899997,5.0,phase_2,stop,400.0,550.0,3.0,,,,,,,,,orange,cross
0.0,1.0,0.5,1,6.0,0.0,,5.0,phase_2,stop,400.0,500.0,4.0,,,,,,,,,yellow,line
0.0,2.0,1.0,1,6.0,6.0,601.316928864,5.0,phase_2,go,400.0,500.0,1.0,,,,,,,,,magenta,triangle
0.0,5.0,0.5,0,5.0,5.0,417.428970337,6.0,phase_2,go,400.0,500.0,1.0,,,,,,,,,blue,circle
0.0,4.0,4.0,0,5.0,5.0,400.535106659,6.0,phase_2,go,400.0,500.0,1.0,,,,,,,,,gray,flipped triangle
0.0,4.0,4.0,0,6.0,6.0,250.64396858199999,6.0,phase_2,go,400.0,500.0,1.0,,,,,,,,,gray,flipped triangle
0.0,2.0,1.0,1,6.0,6.0,484.518051147,6.0,phase_2,stop,400.0,550.0,3.0,,,,,,,,,magenta,triangle
0.0,1.0,0.5,1,6.0,0.0,,6.0,phase_2,go,400.0,550.0,5.0,,,,,,,,,yellow,line
0.0,3.0,2.0,1,6.0,6.0,534.077882767,6.0,phase_2,stop,400.0,500.0,3.0,,,,,,,,,orange,cross
0.0,6.0,1.0,0,6.0,6.0,584.206104279,6.0,phase_2,go,400.0,500.0,1.0,,,,,,,,,cyan,hexagon
0.0,5.0,0.5,0,6.0,6.0,400.73704719499995,6.0,phase_2,go,400.0,500.0,1.0,,,,,,,,,blue,circle
0.0,3.0,2.0,1,6.0,6.0,383.83698463400003,6.0,phase_2,go,400.0,500.0,1.0,,,,,,,,,orange,cross
0.0,5.0,0.5,0,6.0,6.0,367.619037628,6.0,phase_2,go,400.0,500.0,1.0,,,,,,,,,blue,circle
0.0,1.0,0.5,1,5.0,5.0,367.38801002499997,6.0,phase_2,go,400.0,500.0,1.0,,,,,,,,,yellow,line
0.0,3.0,2.0,1,6.0,0.0,,6.0,phase_2,stop,400.0,450.0,4.0,,,,,,,,,orange,cross
0.0,3.0,2.0,1,6.0,0.0,,6.0,phase_2,go,400.0,450.0,5.0,,,,,,,,,orange,cross
0.0,7.0,2.0,0,5.0,5.0,701.066970825,6.0,phase_2,go,400.0,450.0,1.0,,,,,,,,,white,square
0.0,2.0,1.0,1,6.0,6.0,534.78884697,6.0,phase_2,stop,400.0,500.0,3.0,,,,,,,,,magenta,triangle
0.0,4.0,4.0,0,5.0,5.0,567.883968353,6.0,phase_2,go,400.0,500.0,1.0,,,,,,,,,gray,flipped triangle
0.0,8.0,4.0,1,6.0,6.0,367.631912231,6.0,phase_2,stop,400.0,450.0,3.0,,,,,,,,,green,diamond
0.0,4.0,4.0,0,6.0,6.0,517.424821854,6.0,phase_2,go,400.0,450.0,1.0,,,,,,,,,gray,flipped triangle
0.0,2.0,1.0,1,6.0,6.0,717.839002609,6.0,phase_2,go,400.0,450.0,1.0,,,,,,,,,magenta,triangle
0.0,7.0,2.0,0,5.0,5.0,417.54889488199996,6.0,phase_2,go,400.0,450.0,1.0,,,,,,,,,white,square
0.0,2.0,1.0,1,5.0,5.0,384.206056595,6.0,phase_2,stop,450.0,450.0,3.0,,,,,,,,,magenta,triangle
0.0,5.0,0.5,0,5.0,5.0,417.791128159,6.0,phase_2,go,450.0,450.0,1.0,,,,,,,,,blue,circle
0.0,2.0,1.0,1,5.0,0.0,,6.0,phase_2,stop,400.0,450.0,4.0,,,,,,,,,magenta,triangle
0.0,1.0,0.5,1,5.0,0.0,,6.0,phase_2,stop,450.0,450.0,4.0,,,,,,,,,yellow,line
0.0,8.0,4.0,1,5.0,5.0,751.679897308,6.0,phase_2,go,450.0,450.0,1.0,,,,,,,,,green,diamond
0.0,6.0,1.0,0,5.0,5.0,417.07205772400005,6.0,phase_2,go,450.0,450.0,1.0,,,,,,,,,cyan,hexagon
0.0,7.0,2.0,0,6.0,6.0,350.464105606,6.0,phase_2,go,450.0,450.0,1.0,,,,,,,,,white,square
0.0,3.0,2.0,1,6.0,6.0,417.149066925,6.0,phase_2,stop,450.0,400.0,3.0,,,,,,,,,orange,cross
0.0,3.0,2.0,1,5.0,0.0,,6.0,phase_2,stop,500.0,400.0,4.0,,,,,,,,,orange,cross
0.0,7.0,2.0,0,5.0,5.0,400.955915451,6.0,phase_2,go,500.0,400.0,1.0,,,,,,,,,white,square
0.0,6.0,1.0,0,5.0,5.0,417.50907897900004,6.0,phase_2,go,500.0,400.0,1.0,,,,,,,,,cyan,hexagon
0.0,8.0,4.0,1,6.0,0.0,,6.0,phase_2,stop,500.0,350.0,4.0,,,,,,,,,green,diamond
0.0,2.0,1.0,1,5.0,5.0,567.895889282,6.0,phase_2,stop,550.0,350.0,3.0,,,,,,,,,magenta,triangle
0.0,6.0,1.0,0,6.0,6.0,768.032073975,6.0,phase_2,go,550.0,350.0,1.0,,,,,,,,,cyan,hexagon
0.0,5.0,0.5,0,5.0,5.0,500.463962555,6.0,phase_2,go,550.0,350.0,1.0,,,,,,,,,blue,circle
0.0,2.0,1.0,1,5.0,0.0,,6.0,phase_2,stop,500.0,350.0,4.0,,,,,,,,,magenta,triangle
0.0,6.0,1.0,0,5.0,5.0,383.759021759,7.0,phase_2,go,500.0,350.0,1.0,,,,,,,,,cyan,hexagon
0.0,8.0,4.0,1,6.0,6.0,350.677967072,7.0,phase_2,go,500.0,350.0,1.0,,,,,,,,,green,diamond
0.0,4.0,4.0,0,5.0,5.0,451.142072678,7.0,phase_2,go,500.0,350.0,1.0,,,,,,,,,gray,flipped triangle
0.0,8.0,4.0,1,5.0,0.0,,7.0,phase_2,stop,550.0,350.0,4.0,,,,,,,,,green,diamond
0.0,6.0,1.0,0,5.0,5.0,601.700782776,7.0,phase_2,go,550.0,350.0,1.0,,,,,,,,,cyan,hexagon
0.0,8.0,4.0,1,6.0,0.0,,7.0,phase_2,stop,550.0,400.0,4.0,,,,,,,,,green,diamond
0.0,2.0,1.0,1,6.0,0.0,,7.0,phase_2,stop,550.0,450.0,4.0,,,,,,,,,magenta,triangle
0.0,3.0,2.0,1,6.0,0.0,,7.0,phase_2,go,550.0,450.0,5.0,,,,,,,,,orange,cross
0.0,7.0,2.0,0,6.0,6.0,500.37312507599995,7.0,phase_2,go,550.0,450.0,1.0,,,,,,,,,white,square
0.0,6.0,1.0,0,5.0,5.0,401.086091995,7.0,phase_2,go,550.0,450.0,1.0,,,,,,,,,cyan,hexagon
0.0,5.0,0.5,0,6.0,6.0,400.468111038,7.0,phase_2,go,550.0,450.0,1.0,,,,,,,,,blue,circle
0.0,7.0,2.0,0,5.0,5.0,367.331981659,7.0,phase_2,go,550.0,450.0,1.0,,,,,,,,,white,square
0.0,5.0,0.5,0,5.0,5.0,350.555896759,7.0,phase_2,go,550.0,450.0,1.0,,,,,,,,,blue,circle
0.0,7.0,2.0,0,6.0,6.0,334.587097168,7.0,phase_2,go,550.0,450.0,1.0,,,,,,,,,white,square
0.0,4.0,4.0,0,5.0,5.0,367.814064026,7.0,phase_2,go,550.0,450.0,1.0,,,,,,,,,gray,flipped triangle
0.0,7.0,2.0,0,6.0,6.0,333.64295959500004,7.0,phase_2,go,550.0,450.0,1.0,,,,,,,,,white,square
0.0,1.0,0.5,1,5.0,5.0,367.224931717,7.0,phase_2,go,550.0,450.0,1.0,,,,,,,,,yellow,line
0.0,6.0,1.0,0,6.0,6.0,450.54793357799997,7.0,phase_2,go,550.0,450.0,1.0,,,,,,,,,cyan,hexagon
0.0,4.0,4.0,0,5.0,5.0,367.868900299,7.0,phase_2,go,550.0,450.0,1.0,,,,,,,,,gray,flipped triangle
0.0,7.0,2.0,0,6.0,6.0,384.170055389,7.0,phase_2,go,550.0,450.0,1.0,,,,,,,,,white,square
0.0,6.0,1.0,0,6.0,6.0,483.654022217,7.0,phase_2,go,550.0,450.0,1.0,,,,,,,,,cyan,hexagon
0.0,3.0,2.0,1,6.0,0.0,,7.0,phase_2,stop,550.0,500.0,4.0,,,,,,,,,orange,cross
0.0,8.0,4.0,1,6.0,6.0,634.668111801,7.0,phase_2,stop,550.0,550.0,3.0,,,,,,,,,green,diamond
0.0,3.0,2.0,1,6.0,0.0,,7.0,phase_2,stop,550.0,500.0,4.0,,,,,,,,,orange,cross
0.0,1.0,0.5,1,6.0,0.0,,7.0,phase_2,stop,550.0,550.0,4.0,,,,,,,,,yellow,line
0.0,2.0,1.0,1,5.0,5.0,417.491912842,7.0,phase_2,stop,600.0,550.0,3.0,,,,,,,,,magenta,triangle
0.0,2.0,1.0,1,5.0,0.0,,7.0,phase_2,go,600.0,550.0,5.0,,,,,,,,,magenta,triangle
0.0,7.0,2.0,0,5.0,5.0,417.723894119,7.0,phase_2,go,600.0,550.0,1.0,,,,,,,,,white,square
0.0,1.0,0.5,1,5.0,5.0,384.34886932399996,7.0,phase_2,stop,550.0,550.0,3.0,,,,,,,,,yellow,line
0.0,7.0,2.0,0,6.0,6.0,500.983953476,7.0,phase_2,go,550.0,550.0,1.0,,,,,,,,,white,square
0.0,4.0,4.0,0,6.0,6.0,467.82398223900003,7.0,phase_2,go,550.0,550.0,1.0,,,,,,,,,gray,flipped triangle
0.0,7.0,2.0,0,5.0,5.0,484.18307304399997,7.0,phase_2,go,550.0,550.0,1.0,,,,,,,,,white,square
0.0,7.0,2.0,0,5.0,5.0,350.69704055799997,7.0,phase_2,go,550.0,550.0,1.0,,,,,,,,,white,square
0.0,8.0,4.0,1,6.0,6.0,400.882005692,7.0,phase_2,stop,550.0,600.0,3.0,,,,,,,,,green,diamond
0.0,5.0,0.5,0,5.0,5.0,534.357070923,7.0,phase_2,go,550.0,600.0,1.0,,,,,,,,,blue,circle
0.0,5.0,0.5,0,5.0,5.0,383.945941925,7.0,phase_2,go,550.0,600.0,1.0,,,,,,,,,blue,circle
0.0,7.0,2.0,0,5.0,5.0,334.253072739,8.0,phase_2,go,550.0,600.0,1.0,,,,,,,,,white,square
0.0,7.0,2.0,0,6.0,6.0,350.657939911,8.0,phase_2,go,550.0,600.0,1.0,,,,,,,,,white,square
0.0,1.0,0.5,1,6.0,6.0,367.316961288,8.0,phase_2,stop,550.0,550.0,3.0,,,,,,,,,yellow,line
0.0,4.0,4.0,0,6.0,6.0,500.80084800699996,8.0,phase_2,go,550.0,550.0,1.0,,,,,,,,,gray,flipped triangle
0.0,5.0,0.5,0,6.0,6.0,534.518003464,8.0,phase_2,go,550.0,550.0,1.0,,,,,,,,,blue,circle
0.0,5.0,0.5,0,6.0,6.0,384.32788848900003,8.0,phase_2,go,550.0,550.0,1.0,,,,,,,,,blue,circle
0.0,4.0,4.0,0,6.0,6.0,417.612075806,8.0,phase_2,go,550.0,550.0,1.0,,,,,,,,,gray,flipped triangle
0.0,4.0,4.0,0,5.0,5.0,350.49414634699997,8.0,phase_2,go,550.0,550.0,1.0,,,,,,,,,gray,flipped triangle
0.0,4.0,4.0,0,5.0,5.0,367.887973785,8.0,phase_2,go,550.0,550.0,1.0,,,,,,,,,gray,flipped triangle
0.0,8.0,4.0,1,6.0,6.0,434.20505523699995,8.0,phase_2,stop,550.0,500.0,3.0,,,,,,,,,green,diamond
0.0,8.0,4.0,1,6.0,0.0,,8.0,phase_2,stop,550.0,450.0,4.0,,,,,,,,,green,diamond
0.0,2.0,1.0,1,6.0,0.0,,8.0,phase_2,stop,550.0,500.0,4.0,,,,,,,,,magenta,triangle
0.0,6.0,1.0,0,6.0,6.0,550.748825073,8.0,phase_2,go,550.0,500.0,1.0,,,,,,,,,cyan,hexagon
0.0,4.0,4.0,0,5.0,5.0,451.12895965599995,8.0,phase_2,go,550.0,500.0,1.0,,,,,,,,,gray,flipped triangle
0.0,1.0,0.5,1,6.0,0.0,,8.0,phase_2,stop,550.0,550.0,4.0,,,,,,,,,yellow,line
0.0,6.0,1.0,0,5.0,5.0,467.366933823,8.0,phase_2,go,550.0,550.0,1.0,,,,,,,,,cyan,hexagon
0.0,4.0,4.0,0,5.0,5.0,433.75420570399996,8.0,phase_2,go,550.0,550.0,1.0,,,,,,,,,gray,flipped triangle
0.0,1.0,0.5,1,5.0,0.0,,8.0,phase_2,stop,500.0,550.0,4.0,,,,,,,,,yellow,line
0.0,5.0,0.5,0,6.0,6.0,367.717981339,8.0,phase_2,go,500.0,550.0,1.0,,,,,,,,,blue,circle
0.0,8.0,4.0,1,5.0,0.0,,8.0,phase_2,go,500.0,550.0,5.0,,,,,,,,,green,diamond
0.0,6.0,1.0,0,6.0,6.0,400.812149048,8.0,phase_2,go,500.0,550.0,1.0,,,,,,,,,cyan,hexagon
0.0,8.0,4.0,1,6.0,0.0,,8.0,phase_2,stop,500.0,600.0,4.0,,,,,,,,,green,diamond
0.0,4.0,4.0,0,6.0,6.0,551.048994064,8.0,phase_2,go,500.0,600.0,1.0,,,,,,,,,gray,flipped triangle
0.0,5.0,0.5,0,6.0,6.0,417.73390770000003,8.0,phase_2,go,500.0,600.0,1.0,,,,,,,,,blue,circle
0.0,3.0,2.0,1,5.0,5.0,384.501934052,8.0,phase_2,stop,550.0,600.0,3.0,,,,,,,,,orange,cross
0.0,7.0,2.0,0,5.0,5.0,450.82616806,8.0,phase_2,go,550.0,600.0,1.0,,,,,,,,,white,square
0.0,6.0,1.0,0,5.0,5.0,384.251117706,8.0,phase_2,go,550.0,600.0,1.0,,,,,,,,,cyan,hexagon
0.0,6.0,1.0,0,5.0,5.0,417.51194000199996,8.0,phase_2,go,550.0,600.0,1.0,,,,,,,,,cyan,hexagon
0.0,3.0,2.0,1,5.0,5.0,950.817108154,8.0,phase_2,go,550.0,600.0,1.0,,,,,,,,,orange,cross
0.0,1.0,0.5,1,5.0,5.0,417.834997177,8.0,phase_2,stop,500.0,600.0,3.0,,,,,,,,,yellow,line
0.0,7.0,2.0,0,5.0,5.0,550.664901733,8.0,phase_2,go,500.0,600.0,1.0,,,,,,,,,white,square
0.0,1.0,0.5,1,6.0,6.0,734.862089157,8.0,phase_2,stop,500.0,650.0,3.0,,,,,,,,,yellow,line
0.0,7.0,2.0,0,5.0,5.0,667.976140976,8.0,phase_2,go,500.0,650.0,1.0,,,,,,,,,white,square
0.0,8.0,4.0,1,5.0,0.0,,8.0,phase_2,stop,450.0,650.0,4.0,,,,,,,,,green,diamond
0.0,6.0,1.0,0,5.0,5.0,501.325845718,8.0,phase_2,go,450.0,650.0,1.0,,,,,,,,,cyan,hexagon
0.0,6.0,1.0,0,6.0,6.0,433.45785141,8.0,phase_2,go,450.0,650.0,1.0,,,,,,,,,cyan,hexagon
0.0,5.0,0.5,0,7.0,,,1.0,phase_3,,,,,0.0,,195.0,156.0,117.0,39.0,234.0,78.0,blue,circle
0.0,5.0,0.5,0,7.0,3.0,1785.34317017,1.0,phase_3,,,,,196.0,4.0,147.0,49.0,196.0,294.0,245.0,98.0,blue,circle
0.0,5.0,0.5,0,7.0,5.0,3237.26201057,1.0,phase_3,,,,,132.0,3.0,88.0,220.0,176.0,264.0,132.0,44.0,blue,circle
0.0,4.0,4.0,0,7.0,2.0,3070.1920986200003,1.0,phase_3,,,,,170.0,5.0,136.0,170.0,204.0,68.0,102.0,34.0,gray,flipped triangle
0.0,5.0,0.5,0,7.0,1.0,2319.60201263,1.0,phase_3,,,,,156.0,4.0,156.0,195.0,78.0,234.0,39.0,117.0,blue,circle
0.0,6.0,1.0,0,7.0,2.0,2753.26991081,1.0,phase_3,,,,,176.0,4.0,132.0,176.0,264.0,220.0,44.0,88.0,cyan,hexagon
0.0,3.0,2.0,1,7.0,1.0,2653.28192711,1.0,phase_3,,,,,98.0,2.0,98.0,245.0,147.0,294.0,49.0,196.0,orange,cross
0.0,5.0,0.5,0,7.0,1.0,3137.3500824,1.0,phase_3,,,,,324.0,6.0,324.0,216.0,162.0,270.0,54.0,108.0,blue,circle
0.0,7.0,2.0,0,7.0,5.0,1485.22901535,1.0,phase_3,,,,,216.0,4.0,54.0,162.0,324.0,108.0,216.0,270.0,white,square
0.0,4.0,4.0,0,7.0,5.0,2469.87104416,1.0,phase_3,,,,,195.0,5.0,156.0,234.0,117.0,39.0,195.0,78.0,gray,flipped triangle
0.0,5.0,0.5,0,7.0,2.0,1952.56686211,1.0,phase_3,,,,,136.0,4.0,204.0,136.0,170.0,34.0,102.0,68.0,blue,circle
0.0,5.0,0.5,0,7.0,2.0,1935.65392494,1.0,phase_3,,,,,147.0,3.0,98.0,147.0,294.0,49.0,245.0,196.0,blue,circle
0.0,1.0,0.5,1,7.0,2.0,2319.45896149,1.0,phase_3,,,,,54.0,1.0,324.0,54.0,216.0,162.0,108.0,270.0,yellow,line
0.0,5.0,0.5,0,7.0,3.0,2586.5960121199996,1.0,phase_3,,,,,136.0,4.0,34.0,204.0,136.0,170.0,68.0,102.0,blue,circle
0.0,7.0,2.0,0,7.0,5.0,2986.93299294,1.0,phase_3,,,,,220.0,5.0,44.0,176.0,264.0,132.0,220.0,88.0,white,square
0.0,3.0,2.0,1,7.0,2.0,1835.4201316800002,1.0,phase_3,,,,,102.0,3.0,68.0,102.0,136.0,204.0,170.0,34.0,orange,cross
0.0,7.0,2.0,0,7.0,4.0,4755.53202629,1.0,phase_3,,,,,147.0,3.0,98.0,49.0,196.0,147.0,245.0,294.0,white,square
0.0,4.0,4.0,0,7.0,1.0,4772.0489502,1.0,phase_3,,,,,216.0,4.0,216.0,270.0,162.0,324.0,108.0,54.0,gray,flipped triangle
0.0,2.0,1.0,1,7.0,6.0,2970.8998203300002,1.0,phase_3,,,,,195.0,5.0,39.0,234.0,156.0,78.0,117.0,195.0,magenta,triangle
0.0,8.0,4.0,1,7.0,4.0,3287.3249054000003,1.0,phase_3,,,,,195.0,5.0,39.0,156.0,78.0,195.0,234.0,117.0,green,diamond
0.0,5.0,0.5,0,7.0,3.0,4054.5420646699995,2.0,phase_3,,,,,216.0,4.0,108.0,54.0,216.0,324.0,162.0,270.0,blue,circle
0.0,6.0,1.0,0,7.0,2.0,4004.6329498300006,2.0,phase_3,,,,,195.0,5.0,234.0,195.0,78.0,39.0,156.0,117.0,cyan,hexagon
0.0,3.0,2.0,1,7.0,,,2.0,phase_3,,,,,0.0,,324.0,54.0,162.0,216.0,270.0,108.0,orange,cross
0.0,4.0,4.0,0,7.0,3.0,4839.10179138,2.0,phase_3,,,,,195.0,5.0,78.0,234.0,195.0,39.0,156.0,117.0,gray,flipped triangle
0.0,4.0,4.0,0,7.0,3.0,3887.82691956,2.0,phase_3,,,,,196.0,4.0,294.0,98.0,196.0,245.0,49.0,147.0,gray,flipped triangle
0.0,6.0,1.0,0,7.0,5.0,4221.45485878,2.0,phase_3,,,,,176.0,4.0,88.0,264.0,44.0,220.0,176.0,132.0,cyan,hexagon
0.0,7.0,2.0,0,7.0,1.0,4204.58388329,2.0,phase_3,,,,,195.0,5.0,195.0,117.0,78.0,39.0,156.0,234.0,white,square
0.0,8.0,4.0,1,7.0,6.0,3570.8680152899997,2.0,phase_3,,,,,196.0,4.0,49.0,245.0,294.0,147.0,98.0,196.0,green,diamond
0.0,8.0,4.0,1,7.0,6.0,4872.64609337,2.0,phase_3,,,,,170.0,5.0,68.0,204.0,136.0,102.0,34.0,170.0,green,diamond
0.0,2.0,1.0,1,7.0,2.0,3654.2828083,2.0,phase_3,,,,,216.0,4.0,324.0,216.0,108.0,162.0,54.0,270.0,magenta,triangle
0.0,6.0,1.0,0,7.0,2.0,3720.78800201,2.0,phase_3,,,,,245.0,5.0,147.0,245.0,294.0,98.0,196.0,49.0,cyan,hexagon
0.0,1.0,0.5,1,7.0,5.0,3003.67617607,2.0,phase_3,,,,,324.0,6.0,216.0,162.0,270.0,108.0,324.0,54.0,yellow,line
0.0,1.0,0.5,1,7.0,5.0,4772.29595184,2.0,phase_3,,,,,102.0,3.0,34.0,68.0,170.0,136.0,102.0,204.0,yellow,line
0.0,8.0,4.0,1,7.0,2.0,4338.84906769,2.0,phase_3,,,,,204.0,6.0,102.0,204.0,68.0,34.0,136.0,170.0,green,diamond
0.0,2.0,1.0,1,7.0,6.0,3838.21582794,2.0,phase_3,,,,,196.0,4.0,49.0,147.0,98.0,294.0,245.0,196.0,magenta,triangle
0.0,7.0,2.0,0,7.0,5.0,2085.2289199800002,2.0,phase_3,,,,,204.0,6.0,34.0,102.0,68.0,136.0,204.0,170.0,white,square
0.0,2.0,1.0,1,7.0,4.0,3920.42183876,2.0,phase_3,,,,,195.0,5.0,117.0,156.0,234.0,195.0,78.0,39.0,magenta,triangle
0.0,4.0,4.0,0,7.0,4.0,3637.74681091,2.0,phase_3,,,,,170.0,5.0,136.0,68.0,34.0,170.0,204.0,102.0,gray,flipped triangle
0.0,8.0,4.0,1,7.0,6.0,4671.50092125,2.0,phase_3,,,,,195.0,5.0,117.0,39.0,234.0,78.0,156.0,195.0,green,diamond
0.0,1.0,0.5,1,7.0,3.0,2769.8760032699997,2.0,phase_3,,,,,170.0,5.0,102.0,204.0,170.0,136.0,34.0,68.0,yellow,line
0.0,3.0,2.0,1,7.0,4.0,3186.85889244,3.0,phase_3,,,,,176.0,4.0,220.0,264.0,44.0,176.0,132.0,88.0,orange,cross
0.0,7.0,2.0,0,7.0,1.0,2937.29615211,3.0,phase_3,,,,,245.0,5.0,245.0,294.0,147.0,196.0,49.0,98.0,white,square
0.0,7.0,2.0,0,7.0,3.0,3821.25806808,3.0,phase_3,,,,,220.0,5.0,132.0,176.0,220.0,44.0,264.0,88.0,white,square
0.0,3.0,2.0,1,7.0,1.0,3320.1520443,3.0,phase_3,,,,,117.0,3.0,117.0,78.0,234.0,39.0,156.0,195.0,orange,cross
0.0,6.0,1.0,0,7.0,,,3.0,phase_3,,,,,0.0,,108.0,54.0,324.0,270.0,216.0,162.0,cyan,hexagon
0.0,1.0,0.5,1,7.0,3.0,1952.60882378,3.0,phase_3,,,,,98.0,2.0,196.0,245.0,98.0,294.0,147.0,49.0,yellow,line
0.0,1.0,0.5,1,7.0,5.0,2736.5469932600004,3.0,phase_3,,,,,78.0,2.0,117.0,156.0,39.0,234.0,78.0,195.0,yellow,line
0.0,1.0,0.5,1,7.0,6.0,3554.21113968,3.0,phase_3,,,,,147.0,3.0,245.0,196.0,294.0,49.0,98.0,147.0,yellow,line
0.0,3.0,2.0,1,7.0,6.0,2652.90403366,3.0,phase_3,,,,,102.0,3.0,34.0,136.0,170.0,204.0,68.0,102.0,orange,cross
0.0,6.0,1.0,0,7.0,3.0,2853.46913338,3.0,phase_3,,,,,245.0,5.0,98.0,294.0,245.0,147.0,49.0,196.0,cyan,hexagon
0.0,2.0,1.0,1,7.0,1.0,3203.65691185,3.0,phase_3,,,,,170.0,5.0,170.0,68.0,102.0,204.0,34.0,136.0,magenta,triangle
0.0,2.0,1.0,1,7.0,,,3.0,phase_3,,,,,0.0,,216.0,324.0,270.0,54.0,108.0,162.0,magenta,triangle
0.0,2.0,1.0,1,7.0,4.0,2669.60906982,3.0,phase_3,,,,,220.0,5.0,264.0,132.0,176.0,220.0,88.0,44.0,magenta,triangle
0.0,2.0,1.0,1,7.0,5.0,3453.40800285,3.0,phase_3,,,,,204.0,6.0,102.0,136.0,34.0,170.0,204.0,68.0,magenta,triangle
0.0,3.0,2.0,1,7.0,1.0,3436.98692322,3.0,phase_3,,,,,78.0,2.0,78.0,39.0,117.0,234.0,195.0,156.0,orange,cross
0.0,8.0,4.0,1,7.0,5.0,3854.2098999,3.0,phase_3,,,,,220.0,5.0,264.0,44.0,176.0,88.0,220.0,132.0,green,diamond
0.0,2.0,1.0,1,7.0,4.0,3971.33088112,3.0,phase_3,,,,,176.0,4.0,132.0,44.0,220.0,176.0,88.0,264.0,magenta,triangle
0.0,1.0,0.5,1,7.0,6.0,3754.30011749,3.0,phase_3,,,,,117.0,3.0,234.0,78.0,195.0,39.0,156.0,117.0,yellow,line
0.0,1.0,0.5,1,7.0,1.0,2669.94810104,3.0,phase_3,,,,,132.0,3.0,132.0,44.0,176.0,264.0,220.0,88.0,yellow,line
0.0,7.0,2.0,0,7.0,3.0,3771.20900154,3.0,phase_3,,,,,270.0,5.0,216.0,324.0,270.0,108.0,54.0,162.0,white,square
0.0,5.0,0.5,0,7.0,3.0,2903.19395065,4.0,phase_3,,,,,220.0,5.0,132.0,88.0,220.0,176.0,44.0,264.0,blue,circle
0.0,4.0,4.0,0,7.0,6.0,2886.6901397700003,4.0,phase_3,,,,,162.0,3.0,54.0,270.0,324.0,108.0,216.0,162.0,gray,flipped triangle
0.0,8.0,4.0,1,7.0,2.0,4038.230896,4.0,phase_3,,,,,196.0,4.0,245.0,196.0,147.0,49.0,294.0,98.0,green,diamond
0.0,3.0,2.0,1,7.0,2.0,4104.86388206,4.0,phase_3,,,,,98.0,2.0,49.0,98.0,294.0,245.0,196.0,147.0,orange,cross
0.0,8.0,4.0,1,7.0,1.0,3453.9959430699996,4.0,phase_3,,,,,220.0,5.0,220.0,44.0,132.0,88.0,264.0,176.0,green,diamond
0.0,8.0,4.0,1,7.0,,,4.0,phase_3,,,,,0.0,,54.0,162.0,270.0,324.0,108.0,216.0,green,diamond
0.0,4.0,4.0,0,7.0,3.0,3687.27087975,4.0,phase_3,,,,,176.0,4.0,88.0,132.0,176.0,220.0,44.0,264.0,gray,flipped triangle
0.0,7.0,2.0,0,7.0,6.0,3203.56988907,4.0,phase_3,,,,,170.0,5.0,204.0,102.0,34.0,136.0,68.0,170.0,white,square
0.0,2.0,1.0,1,7.0,1.0,3270.97606659,4.0,phase_3,,,,,196.0,4.0,196.0,245.0,294.0,98.0,147.0,49.0,magenta,triangle
0.0,6.0,1.0,0,7.0,3.0,3787.1971130399997,4.0,phase_3,,,,,108.0,2.0,216.0,162.0,108.0,324.0,54.0,270.0,cyan,hexagon
0.0,6.0,1.0,0,7.0,4.0,3687.13784218,4.0,phase_3,,,,,195.0,5.0,234.0,78.0,156.0,195.0,117.0,39.0,cyan,hexagon
0.0,8.0,4.0,1,7.0,3.0,2987.03289032,4.0,phase_3,,,,,216.0,4.0,324.0,108.0,216.0,54.0,162.0,270.0,green,diamond
0.0,6.0,1.0,0,7.0,5.0,3537.30201721,4.0,phase_3,,,,,34.0,1.0,136.0,170.0,204.0,102.0,34.0,68.0,cyan,hexagon
0.0,1.0,0.5,1,7.0,5.0,3520.98202705,4.0,phase_3,,,,,88.0,2.0,44.0,176.0,220.0,264.0,88.0,132.0,yellow,line
0.0,7.0,2.0,0,7.0,6.0,3237.37883568,4.0,phase_3,,,,,195.0,5.0,156.0,234.0,78.0,117.0,39.0,195.0,white,square
0.0,3.0,2.0,1,7.0,1.0,3070.759058,4.0,phase_3,,,,,162.0,3.0,162.0,54.0,270.0,324.0,108.0,216.0,orange,cross
0.0,6.0,1.0,0,7.0,5.0,2953.551054,4.0,phase_3,,,,,170.0,5.0,102.0,34.0,204.0,136.0,170.0,68.0,cyan,hexagon
0.0,3.0,2.0,1,7.0,6.0,2402.70495415,4.0,phase_3,,,,,88.0,2.0,132.0,264.0,176.0,44.0,220.0,88.0,orange,cross
0.0,4.0,4.0,0,7.0,5.0,4588.73105049,4.0,phase_3,,,,,176.0,4.0,132.0,44.0,264.0,220.0,176.0,88.0,gray,flipped triangle
0.0,4.0,4.0,0,7.0,6.0,3154.01101112,4.0,phase_3,,,,,245.0,5.0,196.0,49.0,147.0,294.0,98.0,245.0,gray,flipped triangle
