raw_reward_magnitude,stim_reward,stepwise_reward_magnitude,paired_with_stopping,stim_location,response,reaction_time,block,which_phase,stop_signal_trial_type,left_SSD,right_SSD,accuracy,chosen_bidding_amount,chosen_bidding_level,possible_bid_1,possible_bid_2,possible_bid_3,possible_bid_4,possible_bid_5,possible_bid_6,color_text,shape_text
205.0,3.0,3.0,1,2.0,2.0,484.65681076,1.0,phase_1,,,,,,,,,,,,,cyan,circle
376.0,4.0,4.0,1,1.0,1.0,417.484998703,1.0,phase_1,,,,,,,,,,,,,white,cross
385.0,8.0,4.0,0,2.0,2.0,484.42792892499995,1.0,phase_1,,,,,,,,,,,,,yellow,line
178.0,7.0,3.0,0,3.0,3.0,484.143972397,1.0,phase_1,,,,,,,,,,,,,magenta,triangle
99.0,2.0,2.0,0,4.0,4.0,384.18006897000004,1.0,phase_1,,,,,,,,,,,,,green,diamond
377.0,8.0,4.0,0,2.0,2.0,367.671012878,1.0,phase_1,,,,,,,,,,,,,yellow,line
189.0,3.0,3.0,1,3.0,3.0,317.481040955,1.0,phase_1,,,,,,,,,,,,,cyan,circle
217.0,7.0,3.0,0,3.0,3.0,367.738008499,1.0,phase_1,,,,,,,,,,,,,magenta,triangle
39.0,1.0,1.0,1,4.0,4.0,450.567960739,1.0,phase_1,,,,,,,,,,,,,blue,hexagon
65.0,5.0,1.0,0,3.0,3.0,400.444984436,1.0,phase_1,,,,,,,,,,,,,gray,square
0.0,2.0,0.0,0,2.0,2.0,368.147850037,1.0,phase_1,,,,,,,,,,,,,green,diamond
101.0,2.0,2.0,0,3.0,3.0,384.490966797,1.0,phase_1,,,,,,,,,,,,,green,diamond
402.0,4.0,4.0,1,3.0,3.0,367.513179779,1.0,phase_1,,,,,,,,,,,,,white,cross
397.0,8.0,4.0,0,1.0,1.0,468.12701225300003,1.0,phase_1,,,,,,,,,,,,,yellow,line
184.0,7.0,3.0,0,4.0,4.0,434.87405777,1.0,phase_1,,,,,,,,,,,,,magenta,triangle
418.0,4.0,4.0,1,1.0,1.0,417.5760746,1.0,phase_1,,,,,,,,,,,,,white,cross
0.0,8.0,0.0,0,1.0,1.0,400.892972946,1.0,phase_1,,,,,,,,,,,,,yellow,line
62.0,5.0,1.0,0,2.0,2.0,384.371042252,1.0,phase_1,,,,,,,,,,,,,gray,square
38.0,5.0,1.0,0,4.0,4.0,483.726024628,1.0,phase_1,,,,,,,,,,,,,gray,square
45.0,5.0,1.0,0,1.0,1.0,368.007183075,1.0,phase_1,,,,,,,,,,,,,gray,square
401.0,4.0,4.0,1,3.0,3.0,384.68289375300003,1.0,phase_1,,,,,,,,,,,,,white,cross
46.0,1.0,1.0,1,4.0,4.0,434.094905853,1.0,phase_1,,,,,,,,,,,,,blue,hexagon
0.0,1.0,0.0,1,2.0,2.0,400.916814804,1.0,phase_1,,,,,,,,,,,,,blue,hexagon
196.0,7.0,3.0,0,3.0,3.0,418.122053146,1.0,phase_1,,,,,,,,,,,,,magenta,triangle
0.0,2.0,0.0,0,1.0,1.0,384.083986282,1.0,phase_1,,,,,,,,,,,,,green,diamond
57.0,5.0,1.0,0,3.0,3.0,550.596952438,1.0,phase_1,,,,,,,,,,,,,gray,square
62.0,1.0,1.0,1,1.0,1.0,451.371908188,1.0,phase_1,,,,,,,,,,,,,blue,hexagon
82.0,2.0,2.0,0,2.0,2.0,417.814016342,1.0,phase_1,,,,,,,,,,,,,green,diamond
421.0,8.0,4.0,0,4.0,4.0,601.186990738,1.0,phase_1,,,,,,,,,,,,,yellow,line
206.0,3.0,3.0,1,4.0,4.0,601.711034775,1.0,phase_1,,,,,,,,,,,,,cyan,circle
56.0,5.0,1.0,0,4.0,4.0,534.624099731,1.0,phase_1,,,,,,,,,,,,,gray,square
71.0,5.0,1.0,0,1.0,1.0,367.39015579200003,1.0,phase_1,,,,,,,,,,,,,gray,square
43.0,1.0,1.0,1,4.0,4.0,434.253931046,1.0,phase_1,,,,,,,,,,,,,blue,hexagon
72.0,1.0,1.0,1,1.0,1.0,450.46710967999996,1.0,phase_1,,,,,,,,,,,,,blue,hexagon
99.0,6.0,2.0,1,4.0,4.0,451.152801514,1.0,phase_1,,,,,,,,,,,,,orange,flipped triangle
218.0,7.0,3.0,0,1.0,1.0,534.384012222,1.0,phase_1,,,,,,,,,,,,,magenta,triangle
208.0,7.0,3.0,0,2.0,2.0,534.747123718,1.0,phase_1,,,,,,,,,,,,,magenta,triangle
106.0,6.0,2.0,1,2.0,2.0,517.2560215000001,1.0,phase_1,,,,,,,,,,,,,orange,flipped triangle
208.0,7.0,3.0,0,2.0,2.0,400.784015656,1.0,phase_1,,,,,,,,,,,,,magenta,triangle
95.0,2.0,2.0,0,4.0,4.0,550.981044769,1.0,phase_1,,,,,,,,,,,,,green,diamond
0.0,2.0,0.0,0,3.0,3.0,417.51885414099996,1.0,phase_1,,,,,,,,,,,,,green,diamond
185.0,3.0,3.0,1,4.0,4.0,433.70795249900004,1.0,phase_1,,,,,,,,,,,,,cyan,circle
0.0,7.0,0.0,0,2.0,2.0,417.784929276,1.0,phase_1,,,,,,,,,,,,,magenta,triangle
208.0,3.0,3.0,1,2.0,2.0,434.259176254,1.0,phase_1,,,,,,,,,,,,,cyan,circle
106.0,6.0,2.0,1,4.0,4.0,450.818777084,1.0,phase_1,,,,,,,,,,,,,orange,flipped triangle
98.0,6.0,2.0,1,4.0,4.0,501.07097625700004,1.0,phase_1,,,,,,,,,,,,,orange,flipped triangle
30.0,1.0,1.0,1,1.0,1.0,451.501131058,1.0,phase_1,,,,,,,,,,,,,blue,hexagon
40.0,1.0,1.0,1,3.0,3.0,518.121004105,1.0,phase_1,,,,,,,,,,,,,blue,hexagon
0.0,4.0,0.0,1,4.0,4.0,501.33299827599996,1.0,phase_1,,,,,,,,,,,,,white,cross
53.0,5.0,1.0,0,3.0,3.0,383.994102478,1.0,phase_1,,,,,,,,,,,,,gray,square
95.0,6.0,2.0,1,3.0,3.0,400.49099922199997,1.0,phase_1,,,,,,,,,,,,,orange,flipped triangle
99.0,6.0,2.0,1,2.0,2.0,467.528104782,1.0,phase_1,,,,,,,,,,,,,orange,flipped triangle
39.0,5.0,1.0,0,3.0,3.0,467.77510643,1.0,phase_1,,,,,,,,,,,,,gray,square
396.0,8.0,4.0,0,3.0,3.0,401.148080826,1.0,phase_1,,,,,,,,,,,,,yellow,line
413.0,8.0,4.0,0,1.0,1.0,468.072891235,1.0,phase_1,,,,,,,,,,,,,yellow,line
109.0,6.0,2.0,1,2.0,2.0,718.1470394129999,1.0,phase_1,,,,,,,,,,,,,orange,flipped triangle
383.0,4.0,4.0,1,2.0,2.0,551.002025604,1.0,phase_1,,,,,,,,,,,,,white,cross
0.0,5.0,0.0,0,4.0,4.0,484.237909317,1.0,phase_1,,,,,,,,,,,,,gray,square
395.0,8.0,4.0,0,2.0,2.0,484.612941742,1.0,phase_1,,,,,,,,,,,,,yellow,line
213.0,3.0,3.0,1,4.0,4.0,484.148025513,1.0,phase_1,,,,,,,,,,,,,cyan,circle
0.0,4.0,0.0,1,3.0,3.0,584.3868255619999,1.0,phase_1,,,,,,,,,,,,,white,cross
72.0,5.0,1.0,0,1.0,1.0,584.60521698,1.0,phase_1,,,,,,,,,,,,,gray,square
85.0,6.0,2.0,1,1.0,1.0,384.509086609,1.0,phase_1,,,,,,,,,,,,,orange,flipped triangle
97.0,2.0,2.0,0,3.0,3.0,551.239013672,1.0,phase_1,,,,,,,,,,,,,green,diamond
382.0,8.0,4.0,0,3.0,3.0,418.08915138199995,1.0,phase_1,,,,,,,,,,,,,yellow,line
186.0,7.0,3.0,0,2.0,2.0,450.90389251700003,1.0,phase_1,,,,,,,,,,,,,magenta,triangle
400.0,8.0,4.0,0,1.0,1.0,433.909893036,1.0,phase_1,,,,,,,,,,,,,yellow,line
383.0,4.0,4.0,1,2.0,2.0,484.03096199,1.0,phase_1,,,,,,,,,,,,,white,cross
0.0,6.0,0.0,1,1.0,1.0,501.34801864599996,1.0,phase_1,,,,,,,,,,,,,orange,flipped triangle
204.0,7.0,3.0,0,4.0,4.0,484.39097404499995,1.0,phase_1,,,,,,,,,,,,,magenta,triangle
52.0,1.0,1.0,1,3.0,3.0,434.606790543,1.0,phase_1,,,,,,,,,,,,,blue,hexagon
100.0,6.0,2.0,1,4.0,4.0,501.20902061499993,1.0,phase_1,,,,,,,,,,,,,orange,flipped triangle
210.0,3.0,3.0,1,1.0,1.0,400.653123856,1.0,phase_1,,,,,,,,,,,,,cyan,circle
107.0,2.0,2.0,0,4.0,4.0,618.188142776,1.0,phase_1,,,,,,,,,,,,,green,diamond
184.0,3.0,3.0,1,3.0,3.0,418.44987869299996,1.0,phase_1,,,,,,,,,,,,,cyan,circle
205.0,3.0,3.0,1,1.0,1.0,400.597810745,1.0,phase_1,,,,,,,,,,,,,cyan,circle
202.0,3.0,3.0,1,2.0,2.0,350.914955139,1.0,phase_1,,,,,,,,,,,,,cyan,circle
90.0,6.0,2.0,1,4.0,4.0,434.382915497,1.0,phase_1,,,,,,,,,,,,,orange,flipped triangle
0.0,7.0,0.0,0,1.0,1.0,518.531084061,1.0,phase_1,,,,,,,,,,,,,magenta,triangle
48.0,5.0,1.0,0,4.0,4.0,467.455148697,1.0,phase_1,,,,,,,,,,,,,gray,square
187.0,3.0,3.0,1,1.0,1.0,600.844144821,1.0,phase_1,,,,,,,,,,,,,cyan,circle
0.0,4.0,0.0,1,1.0,1.0,484.266996384,1.0,phase_1,,,,,,,,,,,,,white,cross
412.0,8.0,4.0,0,1.0,1.0,367.571115494,1.0,phase_1,,,,,,,,,,,,,yellow,line
221.0,3.0,3.0,1,2.0,2.0,417.544841766,1.0,phase_1,,,,,,,,,,,,,cyan,circle
84.0,6.0,2.0,1,2.0,2.0,484.464883804,1.0,phase_1,,,,,,,,,,,,,orange,flipped triangle
0.0,2.0,0.0,0,1.0,1.0,500.731945038,1.0,phase_1,,,,,,,,,,,,,green,diamond
51.0,5.0,1.0,0,2.0,2.0,784.684896469,1.0,phase_1,,,,,,,,,,,,,gray,square
86.0,6.0,2.0,1,4.0,4.0,868.260860443,1.0,phase_1,,,,,,,,,,,,,orange,flipped triangle
389.0,8.0,4.0,0,2.0,2.0,667.6251888280001,1.0,phase_1,,,,,,,,,,,,,yellow,line
378.0,8.0,4.0,0,2.0,2.0,400.736093521,1.0,phase_1,,,,,,,,,,,,,yellow,line
40.0,1.0,1.0,1,1.0,1.0,433.645009995,1.0,phase_1,,,,,,,,,,,,,blue,hexagon
394.0,8.0,4.0,0,3.0,3.0,517.59314537,1.0,phase_1,,,,,,,,,,,,,yellow,line
103.0,6.0,2.0,1,4.0,4.0,400.763988495,1.0,phase_1,,,,,,,,,,,,,orange,flipped triangle
111.0,6.0,2.0,1,2.0,2.0,434.281110764,1.0,phase_1,,,,,,,,,,,,,orange,flipped triangle
205.0,7.0,3.0,0,1.0,1.0,417.83404350300003,1.0,phase_1,,,,,,,,,,,,,magenta,triangle
399.0,4.0,4.0,1,3.0,3.0,450.86598396299996,1.0,phase_1,,,,,,,,,,,,,white,cross
196.0,7.0,3.0,0,4.0,4.0,417.82498359699997,1.0,phase_1,,,,,,,,,,,,,magenta,triangle
0.0,6.0,0.0,1,3.0,3.0,433.822154999,1.0,phase_1,,,,,,,,,,,,,orange,flipped triangle
210.0,7.0,3.0,0,3.0,3.0,434.31901931799996,1.0,phase_1,,,,,,,,,,,,,magenta,triangle
391.0,4.0,4.0,1,3.0,3.0,451.057910919,1.0,phase_1,,,,,,,,,,,,,white,cross
0.0,8.0,0.0,0,2.0,2.0,484.696149826,2.0,phase_1,,,,,,,,,,,,,yellow,line
27.0,1.0,1.0,1,3.0,3.0,450.56700706500004,2.0,phase_1,,,,,,,,,,,,,blue,hexagon
113.0,2.0,2.0,0,1.0,1.0,383.93712043799997,2.0,phase_1,,,,,,,,,,,,,green,diamond
208.0,7.0,3.0,0,2.0,2.0,384.117126465,2.0,phase_1,,,,,,,,,,,,,magenta,triangle
376.0,8.0,4.0,0,4.0,4.0,368.376016617,2.0,phase_1,,,,,,,,,,,,,yellow,line
119.0,6.0,2.0,1,3.0,3.0,317.63792037999997,2.0,phase_1,,,,,,,,,,,,,orange,flipped triangle
189.0,3.0,3.0,1,2.0,2.0,367.99788475,2.0,phase_1,,,,,,,,,,,,,cyan,circle
400.0,4.0,4.0,1,3.0,3.0,417.398929596,2.0,phase_1,,,,,,,,,,,,,white,cross
403.0,4.0,4.0,1,4.0,4.0,384.359836578,2.0,phase_1,,,,,,,,,,,,,white,cross
207.0,7.0,3.0,0,1.0,1.0,301.116943359,2.0,phase_1,,,,,,,,,,,,,magenta,triangle
177.0,3.0,3.0,1,3.0,3.0,400.896072388,2.0,phase_1,,,,,,,,,,,,,cyan,circle
406.0,8.0,4.0,0,1.0,1.0,500.83494186400003,2.0,phase_1,,,,,,,,,,,,,yellow,line
120.0,6.0,2.0,1,1.0,1.0,534.8730087280001,2.0,phase_1,,,,,,,,,,,,,orange,flipped triangle
42.0,1.0,1.0,1,4.0,4.0,384.626150131,2.0,phase_1,,,,,,,,,,,,,blue,hexagon
397.0,8.0,4.0,0,3.0,3.0,434.66901779200003,2.0,phase_1,,,,,,,,,,,,,yellow,line
66.0,1.0,1.0,1,4.0,4.0,434.010028839,2.0,phase_1,,,,,,,,,,,,,blue,hexagon
76.0,2.0,2.0,0,4.0,4.0,450.63400268600003,2.0,phase_1,,,,,,,,,,,,,green,diamond
68.0,5.0,1.0,0,3.0,3.0,484.225034714,2.0,phase_1,,,,,,,,,,,,,gray,square
47.0,5.0,1.0,0,1.0,1.0,450.92010498,2.0,phase_1,,,,,,,,,,,,,gray,square
70.0,5.0,1.0,0,4.0,4.0,450.77395439099996,2.0,phase_1,,,,,,,,,,,,,gray,square
84.0,2.0,2.0,0,1.0,1.0,501.06787681599997,2.0,phase_1,,,,,,,,,,,,,green,diamond
32.0,1.0,1.0,1,2.0,2.0,718.1711196900001,2.0,phase_1,,,,,,,,,,,,,blue,hexagon
198.0,7.0,3.0,0,3.0,3.0,384.128093719,2.0,phase_1,,,,,,,,,,,,,magenta,triangle
84.0,2.0,2.0,0,2.0,2.0,651.176929474,2.0,phase_1,,,,,,,,,,,,,green,diamond
175.0,3.0,3.0,1,1.0,1.0,583.924055099,2.0,phase_1,,,,,,,,,,,,,cyan,circle
379.0,8.0,4.0,0,4.0,4.0,734.797954559,2.0,phase_1,,,,,,,,,,,,,yellow,line
397.0,8.0,4.0,0,2.0,2.0,651.3869762420001,2.0,phase_1,,,,,,,,,,,,,yellow,line
181.0,7.0,3.0,0,3.0,3.0,417.432069778,2.0,phase_1,,,,,,,,,,,,,magenta,triangle
403.0,4.0,4.0,1,4.0,4.0,466.995000839,2.0,phase_1,,,,,,,,,,,,,white,cross
76.0,6.0,2.0,1,3.0,3.0,400.907039642,2.0,phase_1,,,,,,,,,,,,,orange,flipped triangle
112.0,2.0,2.0,0,2.0,2.0,551.2239933010001,2.0,phase_1,,,,,,,,,,,,,green,diamond
194.0,3.0,3.0,1,4.0,4.0,667.56606102,2.0,phase_1,,,,,,,,,,,,,cyan,circle
0.0,8.0,0.0,0,2.0,2.0,367.99287796000004,2.0,phase_1,,,,,,,,,,,,,yellow,line
208.0,7.0,3.0,0,4.0,4.0,551.167011261,2.0,phase_1,,,,,,,,,,,,,magenta,triangle
224.0,3.0,3.0,1,2.0,2.0,450.90293884299996,2.0,phase_1,,,,,,,,,,,,,cyan,circle
0.0,1.0,0.0,1,2.0,2.0,451.18093490599995,2.0,phase_1,,,,,,,,,,,,,blue,hexagon
208.0,3.0,3.0,1,1.0,1.0,417.873859406,2.0,phase_1,,,,,,,,,,,,,cyan,circle
117.0,2.0,2.0,0,3.0,3.0,384.891033173,2.0,phase_1,,,,,,,,,,,,,green,diamond
0.0,2.0,0.0,0,4.0,4.0,434.153795242,2.0,phase_1,,,,,,,,,,,,,green,diamond
418.0,4.0,4.0,1,4.0,4.0,601.264953613,2.0,phase_1,,,,,,,,,,,,,white,cross
0.0,6.0,0.0,1,2.0,2.0,484.600067139,2.0,phase_1,,,,,,,,,,,,,orange,flipped triangle
0.0,4.0,0.0,1,4.0,4.0,434.376001358,2.0,phase_1,,,,,,,,,,,,,white,cross
0.0,2.0,0.0,0,2.0,2.0,417.443990707,2.0,phase_1,,,,,,,,,,,,,green,diamond
81.0,6.0,2.0,1,1.0,1.0,601.161003113,2.0,phase_1,,,,,,,,,,,,,orange,flipped triangle
0.0,7.0,0.0,0,2.0,2.0,450.83594322199997,2.0,phase_1,,,,,,,,,,,,,magenta,triangle
0.0,2.0,0.0,0,4.0,4.0,434.111118317,2.0,phase_1,,,,,,,,,,,,,green,diamond
198.0,7.0,3.0,0,2.0,2.0,617.298841476,2.0,phase_1,,,,,,,,,,,,,magenta,triangle
225.0,7.0,3.0,0,2.0,2.0,567.914009094,2.0,phase_1,,,,,,,,,,,,,magenta,triangle
118.0,2.0,2.0,0,1.0,1.0,367.300033569,2.0,phase_1,,,,,,,,,,,,,green,diamond
183.0,7.0,3.0,0,3.0,3.0,500.864982605,2.0,phase_1,,,,,,,,,,,,,magenta,triangle
0.0,2.0,0.0,0,1.0,1.0,584.644079208,2.0,phase_1,,,,,,,,,,,,,green,diamond
56.0,5.0,1.0,0,4.0,4.0,501.087188721,2.0,phase_1,,,,,,,,,,,,,gray,square
29.0,5.0,1.0,0,2.0,2.0,683.969020844,2.0,phase_1,,,,,,,,,,,,,gray,square
396.0,8.0,4.0,0,4.0,4.0,484.093904495,2.0,phase_1,,,,,,,,,,,,,yellow,line
0.0,5.0,0.0,0,1.0,1.0,534.512042999,2.0,phase_1,,,,,,,,,,,,,gray,square
423.0,8.0,4.0,0,3.0,3.0,517.2190666199999,2.0,phase_1,,,,,,,,,,,,,yellow,line
84.0,6.0,2.0,1,1.0,1.0,550.7280826570001,2.0,phase_1,,,,,,,,,,,,,orange,flipped triangle
0.0,1.0,0.0,1,1.0,1.0,434.272050858,2.0,phase_1,,,,,,,,,,,,,blue,hexagon
376.0,8.0,4.0,0,1.0,1.0,733.9439392090001,2.0,phase_1,,,,,,,,,,,,,yellow,line
202.0,3.0,3.0,1,2.0,2.0,734.740018845,2.0,phase_1,,,,,,,,,,,,,cyan,circle
0.0,3.0,0.0,1,1.0,1.0,334.247112274,2.0,phase_1,,,,,,,,,,,,,cyan,circle
95.0,2.0,2.0,0,3.0,3.0,483.97088050800005,2.0,phase_1,,,,,,,,,,,,,green,diamond
187.0,7.0,3.0,0,1.0,1.0,400.82192421,2.0,phase_1,,,,,,,,,,,,,magenta,triangle
37.0,1.0,1.0,1,1.0,1.0,451.23600959799995,2.0,phase_1,,,,,,,,,,,,,blue,hexagon
120.0,6.0,2.0,1,3.0,3.0,500.810861588,2.0,phase_1,,,,,,,,,,,,,orange,flipped triangle
0.0,2.0,0.0,0,2.0,2.0,584.405899048,2.0,phase_1,,,,,,,,,,,,,green,diamond
54.0,5.0,1.0,0,3.0,3.0,500.264883041,2.0,phase_1,,,,,,,,,,,,,gray,square
224.0,3.0,3.0,1,1.0,1.0,518.290042877,2.0,phase_1,,,,,,,,,,,,,cyan,circle
0.0,7.0,0.0,0,3.0,3.0,434.37910079999995,2.0,phase_1,,,,,,,,,,,,,magenta,triangle
0.0,3.0,0.0,1,4.0,4.0,400.784015656,2.0,phase_1,,,,,,,,,,,,,cyan,circle
182.0,7.0,3.0,0,3.0,3.0,584.444999695,2.0,phase_1,,,,,,,,,,,,,magenta,triangle
113.0,2.0,2.0,0,3.0,3.0,367.52891540499996,2.0,phase_1,,,,,,,,,,,,,green,diamond
219.0,3.0,3.0,1,2.0,2.0,434.12899971,2.0,phase_1,,,,,,,,,,,,,cyan,circle
178.0,7.0,3.0,0,4.0,4.0,651.823997498,2.0,phase_1,,,,,,,,,,,,,magenta,triangle
83.0,6.0,2.0,1,4.0,4.0,467.964887619,2.0,phase_1,,,,,,,,,,,,,orange,flipped triangle
420.0,4.0,4.0,1,1.0,1.0,534.293174744,2.0,phase_1,,,,,,,,,,,,,white,cross
50.0,1.0,1.0,1,4.0,4.0,450.671195984,2.0,phase_1,,,,,,,,,,,,,blue,hexagon
0.0,7.0,0.0,0,2.0,2.0,450.84786415099995,2.0,phase_1,,,,,,,,,,,,,magenta,triangle
26.0,5.0,1.0,0,1.0,1.0,517.652988434,2.0,phase_1,,,,,,,,,,,,,gray,square
120.0,2.0,2.0,0,4.0,4.0,451.09605789200003,2.0,phase_1,,,,,,,,,,,,,green,diamond
74.0,1.0,1.0,1,1.0,1.0,384.636878967,2.0,phase_1,,,,,,,,,,,,,blue,hexagon
0.0,4.0,0.0,1,4.0,4.0,417.625188828,2.0,phase_1,,,,,,,,,,,,,white,cross
123.0,2.0,2.0,0,3.0,3.0,518.1570053099999,2.0,phase_1,,,,,,,,,,,,,green,diamond
52.0,1.0,1.0,1,2.0,2.0,600.72684288,2.0,phase_1,,,,,,,,,,,,,blue,hexagon
0.0,1.0,0.0,1,4.0,4.0,517.655134201,2.0,phase_1,,,,,,,,,,,,,blue,hexagon
59.0,5.0,1.0,0,1.0,1.0,617.7928447720001,2.0,phase_1,,,,,,,,,,,,,gray,square
67.0,5.0,1.0,0,1.0,1.0,400.89392662,2.0,phase_1,,,,,,,,,,,,,gray,square
0.0,1.0,0.0,1,3.0,3.0,484.497070312,2.0,phase_1,,,,,,,,,,,,,blue,hexagon
0.0,3.0,0.0,1,2.0,2.0,384.496927261,2.0,phase_1,,,,,,,,,,,,,cyan,circle
80.0,6.0,2.0,1,3.0,3.0,467.73195266700003,2.0,phase_1,,,,,,,,,,,,,orange,flipped triangle
0.0,8.0,0.0,0,3.0,3.0,417.541027069,2.0,phase_1,,,,,,,,,,,,,yellow,line
412.0,4.0,4.0,1,3.0,3.0,384.2420578,2.0,phase_1,,,,,,,,,,,,,white,cross
392.0,8.0,4.0,0,1.0,1.0,684.2250823969999,2.0,phase_1,,,,,,,,,,,,,yellow,line
210.0,3.0,3.0,1,2.0,2.0,567.806005478,2.0,phase_1,,,,,,,,,,,,,cyan,circle
0.0,8.0,0.0,0,3.0,3.0,467.936992645,2.0,phase_1,,,,,,,,,,,,,yellow,line
38.0,1.0,1.0,1,3.0,3.0,434.062957764,2.0,phase_1,,,,,,,,,,,,,blue,hexagon
223.0,7.0,3.0,0,4.0,4.0,534.309864044,2.0,phase_1,,,,,,,,,,,,,magenta,triangle
62.0,5.0,1.0,0,4.0,4.0,484.041213989,2.0,phase_1,,,,,,,,,,,,,gray,square
0.0,3.0,0.0,1,2.0,2.0,651.376962662,2.0,phase_1,,,,,,,,,,,,,cyan,circle
424.0,8.0,4.0,0,2.0,2.0,517.763853073,2.0,phase_1,,,,,,,,,,,,,yellow,line
419.0,4.0,4.0,1,1.0,1.0,400.764942169,3.0,phase_1,,,,,,,,,,,,,white,cross
412.0,8.0,4.0,0,4.0,4.0,451.19905471799996,3.0,phase_1,,,,,,,,,,,,,yellow,line
185.0,7.0,3.0,0,4.0,4.0,401.181936264,3.0,phase_1,,,,,,,,,,,,,magenta,triangle
64.0,1.0,1.0,1,3.0,3.0,534.307003021,3.0,phase_1,,,,,,,,,,,,,blue,hexagon
99.0,2.0,2.0,0,2.0,2.0,383.940935135,3.0,phase_1,,,,,,,,,,,,,green,diamond
27.0,1.0,1.0,1,4.0,4.0,384.63521003700004,3.0,phase_1,,,,,,,,,,,,,blue,hexagon
0.0,2.0,0.0,0,4.0,4.0,517.664909363,3.0,phase_1,,,,,,,,,,,,,green,diamond
0.0,2.0,0.0,0,1.0,1.0,384.756088257,3.0,phase_1,,,,,,,,,,,,,green,diamond
408.0,4.0,4.0,1,1.0,1.0,367.957830429,3.0,phase_1,,,,,,,,,,,,,white,cross
43.0,1.0,1.0,1,3.0,3.0,417.65308380100004,3.0,phase_1,,,,,,,,,,,,,blue,hexagon
185.0,7.0,3.0,0,1.0,1.0,350.591897964,3.0,phase_1,,,,,,,,,,,,,magenta,triangle
0.0,1.0,0.0,1,3.0,3.0,400.975942612,3.0,phase_1,,,,,,,,,,,,,blue,hexagon
40.0,5.0,1.0,0,4.0,4.0,401.090860367,3.0,phase_1,,,,,,,,,,,,,gray,square
0.0,7.0,0.0,0,4.0,4.0,467.370986938,3.0,phase_1,,,,,,,,,,,,,magenta,triangle
191.0,7.0,3.0,0,1.0,1.0,501.086950302,3.0,phase_1,,,,,,,,,,,,,magenta,triangle
25.0,1.0,1.0,1,2.0,2.0,801.393985748,3.0,phase_1,,,,,,,,,,,,,blue,hexagon
0.0,8.0,0.0,0,4.0,4.0,417.246818542,3.0,phase_1,,,,,,,,,,,,,yellow,line
406.0,8.0,4.0,0,3.0,3.0,434.089899063,3.0,phase_1,,,,,,,,,,,,,yellow,line
51.0,5.0,1.0,0,4.0,4.0,417.495012283,3.0,phase_1,,,,,,,,,,,,,gray,square
376.0,8.0,4.0,0,4.0,4.0,434.39507484399996,3.0,phase_1,,,,,,,,,,,,,yellow,line
95.0,2.0,2.0,0,4.0,4.0,417.313814163,3.0,phase_1,,,,,,,,,,,,,green,diamond
377.0,4.0,4.0,1,3.0,3.0,401.07011795000005,3.0,phase_1,,,,,,,,,,,,,white,cross
187.0,3.0,3.0,1,2.0,2.0,484.419107437,3.0,phase_1,,,,,,,,,,,,,cyan,circle
92.0,6.0,2.0,1,3.0,3.0,484.616041183,3.0,phase_1,,,,,,,,,,,,,orange,flipped triangle
0.0,1.0,0.0,1,2.0,2.0,534.338951111,3.0,phase_1,,,,,,,,,,,,,blue,hexagon
103.0,6.0,2.0,1,2.0,2.0,584.070920944,3.0,phase_1,,,,,,,,,,,,,orange,flipped triangle
414.0,4.0,4.0,1,2.0,2.0,534.557104111,3.0,phase_1,,,,,,,,,,,,,white,cross
0.0,4.0,0.0,1,1.0,1.0,451.7390728,3.0,phase_1,,,,,,,,,,,,,white,cross
199.0,7.0,3.0,0,1.0,1.0,567.8391456600001,3.0,phase_1,,,,,,,,,,,,,magenta,triangle
195.0,7.0,3.0,0,2.0,2.0,333.977937698,3.0,phase_1,,,,,,,,,,,,,magenta,triangle
84.0,6.0,2.0,1,3.0,3.0,433.621883392,3.0,phase_1,,,,,,,,,,,,,orange,flipped triangle
413.0,4.0,4.0,1,3.0,3.0,434.083223343,3.0,phase_1,,,,,,,,,,,,,white,cross
223.0,3.0,3.0,1,1.0,1.0,450.819969177,3.0,phase_1,,,,,,,,,,,,,cyan,circle
105.0,2.0,2.0,0,3.0,3.0,400.96783638,3.0,phase_1,,,,,,,,,,,,,green,diamond
189.0,3.0,3.0,1,3.0,3.0,501.32703781099997,3.0,phase_1,,,,,,,,,,,,,cyan,circle
83.0,2.0,2.0,0,4.0,4.0,567.450761795,3.0,phase_1,,,,,,,,,,,,,green,diamond
398.0,4.0,4.0,1,2.0,2.0,484.05408859299996,3.0,phase_1,,,,,,,,,,,,,white,cross
0.0,8.0,0.0,0,2.0,2.0,500.92101097099993,3.0,phase_1,,,,,,,,,,,,,yellow,line
41.0,1.0,1.0,1,3.0,3.0,434.946060181,3.0,phase_1,,,,,,,,,,,,,blue,hexagon
52.0,1.0,1.0,1,2.0,2.0,534.3239307399999,3.0,phase_1,,,,,,,,,,,,,blue,hexagon
0.0,5.0,0.0,0,1.0,1.0,784.565210342,3.0,phase_1,,,,,,,,,,,,,gray,square
0.0,7.0,0.0,0,4.0,4.0,417.41919517499997,3.0,phase_1,,,,,,,,,,,,,magenta,triangle
418.0,4.0,4.0,1,4.0,4.0,451.002836227,3.0,phase_1,,,,,,,,,,,,,white,cross
189.0,3.0,3.0,1,1.0,1.0,384.626865387,3.0,phase_1,,,,,,,,,,,,,cyan,circle
29.0,5.0,1.0,0,4.0,4.0,451.261997223,3.0,phase_1,,,,,,,,,,,,,gray,square
78.0,6.0,2.0,1,1.0,1.0,400.797128677,3.0,phase_1,,,,,,,,,,,,,orange,flipped triangle
0.0,7.0,0.0,0,2.0,2.0,484.78102684000004,3.0,phase_1,,,,,,,,,,,,,magenta,triangle
0.0,1.0,0.0,1,1.0,1.0,451.195955276,3.0,phase_1,,,,,,,,,,,,,blue,hexagon
397.0,8.0,4.0,0,2.0,2.0,467.437982559,3.0,phase_1,,,,,,,,,,,,,yellow,line
80.0,6.0,2.0,1,3.0,3.0,434.433221817,3.0,phase_1,,,,,,,,,,,,,orange,flipped triangle
189.0,3.0,3.0,1,2.0,2.0,734.69209671,3.0,phase_1,,,,,,,,,,,,,cyan,circle
0.0,4.0,0.0,1,2.0,2.0,851.6259193420001,3.0,phase_1,,,,,,,,,,,,,white,cross
78.0,6.0,2.0,1,3.0,3.0,467.49091148400004,3.0,phase_1,,,,,,,,,,,,,orange,flipped triangle
46.0,5.0,1.0,0,4.0,4.0,434.279918671,3.0,phase_1,,,,,,,,,,,,,gray,square
31.0,5.0,1.0,0,1.0,1.0,400.99310874900004,3.0,phase_1,,,,,,,,,,,,,gray,square
71.0,5.0,1.0,0,2.0,2.0,601.15814209,3.0,phase_1,,,,,,,,,,,,,gray,square
390.0,4.0,4.0,1,3.0,3.0,367.425918579,3.0,phase_1,,,,,,,,,,,,,white,cross
0.0,2.0,0.0,0,4.0,4.0,384.761095047,3.0,phase_1,,,,,,,,,,,,,green,diamond
111.0,2.0,2.0,0,3.0,3.0,417.38700866700003,3.0,phase_1,,,,,,,,,,,,,green,diamond
399.0,4.0,4.0,1,1.0,1.0,550.8320331570001,3.0,phase_1,,,,,,,,,,,,,white,cross
209.0,7.0,3.0,0,3.0,3.0,384.145975113,3.0,phase_1,,,,,,,,,,,,,magenta,triangle
182.0,3.0,3.0,1,4.0,4.0,434.403896332,3.0,phase_1,,,,,,,,,,,,,cyan,circle
0.0,3.0,0.0,1,1.0,1.0,451.287031174,3.0,phase_1,,,,,,,,,,,,,cyan,circle
67.0,1.0,1.0,1,1.0,1.0,467.848062515,3.0,phase_1,,,,,,,,,,,,,blue,hexagon
66.0,1.0,1.0,1,2.0,2.0,384.371995926,3.0,phase_1,,,,,,,,,,,,,blue,hexagon
117.0,2.0,2.0,0,3.0,3.0,384.38701629599996,3.0,phase_1,,,,,,,,,,,,,green,diamond
82.0,6.0,2.0,1,2.0,2.0,467.21410751300004,3.0,phase_1,,,,,,,,,,,,,orange,flipped triangle
111.0,6.0,2.0,1,4.0,4.0,517.5900459290001,3.0,phase_1,,,,,,,,,,,,,orange,flipped triangle
225.0,3.0,3.0,1,1.0,1.0,434.504032135,3.0,phase_1,,,,,,,,,,,,,cyan,circle
75.0,6.0,2.0,1,3.0,3.0,384.546041489,3.0,phase_1,,,,,,,,,,,,,orange,flipped triangle
66.0,5.0,1.0,0,4.0,4.0,534.385919571,3.0,phase_1,,,,,,,,,,,,,gray,square
85.0,6.0,2.0,1,2.0,2.0,467.767953873,3.0,phase_1,,,,,,,,,,,,,orange,flipped triangle
416.0,4.0,4.0,1,2.0,2.0,467.588186264,3.0,phase_1,,,,,,,,,,,,,white,cross
211.0,7.0,3.0,0,4.0,4.0,501.034975052,3.0,phase_1,,,,,,,,,,,,,magenta,triangle
74.0,5.0,1.0,0,1.0,1.0,467.158079147,3.0,phase_1,,,,,,,,,,,,,gray,square
25.0,5.0,1.0,0,1.0,1.0,400.97284317,3.0,phase_1,,,,,,,,,,,,,gray,square
396.0,8.0,4.0,0,1.0,1.0,400.916814804,3.0,phase_1,,,,,,,,,,,,,yellow,line
422.0,8.0,4.0,0,1.0,1.0,401.064157486,3.0,phase_1,,,,,,,,,,,,,yellow,line
91.0,2.0,2.0,0,1.0,1.0,868.4139251710001,3.0,phase_1,,,,,,,,,,,,,green,diamond
89.0,2.0,2.0,0,2.0,2.0,634.288072586,3.0,phase_1,,,,,,,,,,,,,green,diamond
51.0,5.0,1.0,0,4.0,4.0,685.040950775,3.0,phase_1,,,,,,,,,,,,,gray,square
0.0,5.0,0.0,0,1.0,1.0,484.19499397299995,3.0,phase_1,,,,,,,,,,,,,gray,square
198.0,3.0,3.0,1,1.0,1.0,400.656938553,3.0,phase_1,,,,,,,,,,,,,cyan,circle
193.0,3.0,3.0,1,3.0,3.0,617.8028583529999,3.0,phase_1,,,,,,,,,,,,,cyan,circle
25.0,5.0,1.0,0,3.0,3.0,451.259851456,3.0,phase_1,,,,,,,,,,,,,gray,square
115.0,6.0,2.0,1,4.0,4.0,484.18712616,3.0,phase_1,,,,,,,,,,,,,orange,flipped triangle
65.0,5.0,1.0,0,4.0,4.0,417.70410537699996,3.0,phase_1,,,,,,,,,,,,,gray,square
375.0,4.0,4.0,1,3.0,3.0,484.539031982,3.0,phase_1,,,,,,,,,,,,,white,cross
179.0,7.0,3.0,0,4.0,4.0,484.735012054,3.0,phase_1,,,,,,,,,,,,,magenta,triangle
0.0,4.0,0.0,1,1.0,1.0,484.323978424,3.0,phase_1,,,,,,,,,,,,,white,cross
105.0,2.0,2.0,0,3.0,3.0,417.282819748,3.0,phase_1,,,,,,,,,,,,,green,diamond
217.0,3.0,3.0,1,3.0,3.0,467.220067978,3.0,phase_1,,,,,,,,,,,,,cyan,circle
416.0,4.0,4.0,1,3.0,3.0,351.413965225,3.0,phase_1,,,,,,,,,,,,,white,cross
175.0,7.0,3.0,0,3.0,3.0,351.23991966200003,3.0,phase_1,,,,,,,,,,,,,magenta,triangle
207.0,3.0,3.0,1,2.0,2.0,467.764854431,3.0,phase_1,,,,,,,,,,,,,cyan,circle
388.0,4.0,4.0,1,4.0,4.0,467.30995178200004,3.0,phase_1,,,,,,,,,,,,,white,cross
100.0,2.0,2.0,0,2.0,2.0,467.991828918,3.0,phase_1,,,,,,,,,,,,,green,diamond
383.0,4.0,4.0,1,2.0,2.0,467.63086319,3.0,phase_1,,,,,,,,,,,,,white,cross
220.0,7.0,3.0,0,2.0,2.0,434.406995773,3.0,phase_1,,,,,,,,,,,,,magenta,triangle
81.0,6.0,2.0,1,2.0,2.0,517.0881748200001,3.0,phase_1,,,,,,,,,,,,,orange,flipped triangle
199.0,7.0,3.0,0,3.0,3.0,400.877952576,4.0,phase_1,,,,,,,,,,,,,magenta,triangle
98.0,2.0,2.0,0,4.0,4.0,384.353876114,4.0,phase_1,,,,,,,,,,,,,green,diamond
397.0,4.0,4.0,1,2.0,2.0,434.26012992899996,4.0,phase_1,,,,,,,,,,,,,white,cross
180.0,3.0,3.0,1,3.0,3.0,350.683927536,4.0,phase_1,,,,,,,,,,,,,cyan,circle
79.0,6.0,2.0,1,4.0,4.0,417.198896408,4.0,phase_1,,,,,,,,,,,,,orange,flipped triangle
60.0,1.0,1.0,1,4.0,4.0,417.532920837,4.0,phase_1,,,,,,,,,,,,,blue,hexagon
181.0,3.0,3.0,1,2.0,2.0,434.26203727700005,4.0,phase_1,,,,,,,,,,,,,cyan,circle
386.0,4.0,4.0,1,2.0,2.0,467.387199402,4.0,phase_1,,,,,,,,,,,,,white,cross
26.0,1.0,1.0,1,1.0,1.0,534.250974655,4.0,phase_1,,,,,,,,,,,,,blue,hexagon
0.0,5.0,0.0,0,4.0,4.0,484.088897705,4.0,phase_1,,,,,,,,,,,,,gray,square
119.0,6.0,2.0,1,1.0,1.0,467.835903168,4.0,phase_1,,,,,,,,,,,,,orange,flipped triangle
390.0,8.0,4.0,0,2.0,2.0,567.842006683,4.0,phase_1,,,,,,,,,,,,,yellow,line
199.0,3.0,3.0,1,2.0,2.0,501.25503540000005,4.0,phase_1,,,,,,,,,,,,,cyan,circle
399.0,8.0,4.0,0,3.0,3.0,417.37103462199997,4.0,phase_1,,,,,,,,,,,,,yellow,line
102.0,2.0,2.0,0,4.0,4.0,434.08489227300004,4.0,phase_1,,,,,,,,,,,,,green,diamond
204.0,3.0,3.0,1,2.0,2.0,451.40504837000003,4.0,phase_1,,,,,,,,,,,,,cyan,circle
386.0,8.0,4.0,0,1.0,1.0,417.84119605999996,4.0,phase_1,,,,,,,,,,,,,yellow,line
201.0,7.0,3.0,0,1.0,1.0,434.375047684,4.0,phase_1,,,,,,,,,,,,,magenta,triangle
71.0,5.0,1.0,0,1.0,1.0,384.570121765,4.0,phase_1,,,,,,,,,,,,,gray,square
122.0,2.0,2.0,0,2.0,2.0,568.22681427,4.0,phase_1,,,,,,,,,,,,,green,diamond
415.0,8.0,4.0,0,3.0,3.0,401.198148727,4.0,phase_1,,,,,,,,,,,,,yellow,line
84.0,6.0,2.0,1,1.0,1.0,434.572935104,4.0,phase_1,,,,,,,,,,,,,orange,flipped triangle
0.0,2.0,0.0,0,2.0,2.0,367.64216423,4.0,phase_1,,,,,,,,,,,,,green,diamond
216.0,7.0,3.0,0,3.0,3.0,368.020057678,4.0,phase_1,,,,,,,,,,,,,magenta,triangle
92.0,6.0,2.0,1,4.0,4.0,467.743873596,4.0,phase_1,,,,,,,,,,,,,orange,flipped triangle
64.0,5.0,1.0,0,3.0,3.0,601.116895676,4.0,phase_1,,,,,,,,,,,,,gray,square
97.0,6.0,2.0,1,3.0,3.0,417.65499115,4.0,phase_1,,,,,,,,,,,,,orange,flipped triangle
72.0,1.0,1.0,1,2.0,2.0,434.31782722500003,4.0,phase_1,,,,,,,,,,,,,blue,hexagon
36.0,5.0,1.0,0,4.0,4.0,384.38701629599996,4.0,phase_1,,,,,,,,,,,,,gray,square
384.0,4.0,4.0,1,4.0,4.0,484.28606987,4.0,phase_1,,,,,,,,,,,,,white,cross
0.0,7.0,0.0,0,2.0,2.0,600.8808612820001,4.0,phase_1,,,,,,,,,,,,,magenta,triangle
84.0,6.0,2.0,1,4.0,4.0,400.896072388,4.0,phase_1,,,,,,,,,,,,,orange,flipped triangle
60.0,1.0,1.0,1,3.0,3.0,384.05799865700004,4.0,phase_1,,,,,,,,,,,,,blue,hexagon
112.0,2.0,2.0,0,4.0,4.0,367.88010597199997,4.0,phase_1,,,,,,,,,,,,,green,diamond
397.0,8.0,4.0,0,4.0,4.0,434.12494659400005,4.0,phase_1,,,,,,,,,,,,,yellow,line
223.0,3.0,3.0,1,1.0,1.0,367.675065994,4.0,phase_1,,,,,,,,,,,,,cyan,circle
191.0,3.0,3.0,1,2.0,2.0,400.987148285,4.0,phase_1,,,,,,,,,,,,,cyan,circle
66.0,1.0,1.0,1,2.0,2.0,434.383869171,4.0,phase_1,,,,,,,,,,,,,blue,hexagon
96.0,2.0,2.0,0,1.0,1.0,417.931079865,4.0,phase_1,,,,,,,,,,,,,green,diamond
194.0,7.0,3.0,0,2.0,2.0,367.619991302,4.0,phase_1,,,,,,,,,,,,,magenta,triangle
0.0,1.0,0.0,1,1.0,1.0,567.4850940700001,4.0,phase_1,,,,,,,,,,,,,blue,hexagon
37.0,1.0,1.0,1,3.0,3.0,534.437894821,4.0,phase_1,,,,,,,,,,,,,blue,hexagon
111.0,6.0,2.0,1,3.0,3.0,384.415149689,4.0,phase_1,,,,,,,,,,,,,orange,flipped triangle
52.0,1.0,1.0,1,3.0,3.0,334.189176559,4.0,phase_1,,,,,,,,,,,,,blue,hexagon
381.0,4.0,4.0,1,1.0,1.0,451.474905014,4.0,phase_1,,,,,,,,,,,,,white,cross
71.0,1.0,1.0,1,2.0,2.0,450.487852097,4.0,phase_1,,,,,,,,,,,,,blue,hexagon
0.0,8.0,0.0,0,3.0,3.0,501.27291679399997,4.0,phase_1,,,,,,,,,,,,,yellow,line
221.0,3.0,3.0,1,4.0,4.0,484.476804733,4.0,phase_1,,,,,,,,,,,,,cyan,circle
0.0,4.0,0.0,1,1.0,1.0,567.8491592409999,4.0,phase_1,,,,,,,,,,,,,white,cross
38.0,5.0,1.0,0,3.0,3.0,701.005935669,4.0,phase_1,,,,,,,,,,,,,gray,square
0.0,4.0,0.0,1,4.0,4.0,851.4430522920001,4.0,phase_1,,,,,,,,,,,,,white,cross
103.0,2.0,2.0,0,4.0,4.0,417.54603385900003,4.0,phase_1,,,,,,,,,,,,,green,diamond
0.0,4.0,0.0,1,2.0,2.0,467.983961105,4.0,phase_1,,,,,,,,,,,,,white,cross
0.0,7.0,0.0,0,3.0,3.0,383.925914764,4.0,phase_1,,,,,,,,,,,,,magenta,triangle
104.0,6.0,2.0,1,3.0,3.0,367.249965668,4.0,phase_1,,,,,,,,,,,,,orange,flipped triangle
412.0,4.0,4.0,1,1.0,1.0,467.930078506,4.0,phase_1,,,,,,,,,,,,,white,cross
71.0,5.0,1.0,0,1.0,1.0,500.48685073900003,4.0,phase_1,,,,,,,,,,,,,gray,square
382.0,8.0,4.0,0,4.0,4.0,567.361831665,4.0,phase_1,,,,,,,,,,,,,yellow,line
54.0,1.0,1.0,1,4.0,4.0,400.96616745,4.0,phase_1,,,,,,,,,,,,,blue,hexagon
204.0,3.0,3.0,1,4.0,4.0,334.203004837,4.0,phase_1,,,,,,,,,,,,,cyan,circle
0.0,7.0,0.0,0,1.0,1.0,434.081077576,4.0,phase_1,,,,,,,,,,,,,magenta,triangle
411.0,8.0,4.0,0,3.0,3.0,368.076086044,4.0,phase_1,,,,,,,,,,,,,yellow,line
68.0,5.0,1.0,0,4.0,4.0,434.545040131,4.0,phase_1,,,,,,,,,,,,,gray,square
0.0,2.0,0.0,0,2.0,2.0,584.388971329,4.0,phase_1,,,,,,,,,,,,,green,diamond
403.0,4.0,4.0,1,1.0,1.0,651.059150696,4.0,phase_1,,,,,,,,,,,,,white,cross
399.0,4.0,4.0,1,1.0,1.0,751.3649463649999,4.0,phase_1,,,,,,,,,,,,,white,cross
109.0,2.0,2.0,0,2.0,2.0,501.059055328,4.0,phase_1,,,,,,,,,,,,,green,diamond
39.0,1.0,1.0,1,1.0,1.0,417.480945587,4.0,phase_1,,,,,,,,,,,,,blue,hexagon
378.0,4.0,4.0,1,2.0,2.0,450.922012329,4.0,phase_1,,,,,,,,,,,,,white,cross
58.0,1.0,1.0,1,3.0,3.0,417.97590255700004,4.0,phase_1,,,,,,,,,,,,,blue,hexagon
379.0,4.0,4.0,1,3.0,3.0,417.62208938599997,4.0,phase_1,,,,,,,,,,,,,white,cross
58.0,5.0,1.0,0,1.0,1.0,517.8630352020001,4.0,phase_1,,,,,,,,,,,,,gray,square
0.0,4.0,0.0,1,3.0,3.0,418.16997528099995,4.0,phase_1,,,,,,,,,,,,,white,cross
32.0,1.0,1.0,1,2.0,2.0,384.041070938,4.0,phase_1,,,,,,,,,,,,,blue,hexagon
419.0,8.0,4.0,0,3.0,3.0,434.560060501,4.0,phase_1,,,,,,,,,,,,,yellow,line
0.0,3.0,0.0,1,4.0,4.0,451.246976852,4.0,phase_1,,,,,,,,,,,,,cyan,circle
379.0,8.0,4.0,0,2.0,2.0,401.042938232,4.0,phase_1,,,,,,,,,,,,,yellow,line
117.0,6.0,2.0,1,2.0,2.0,434.49091911299996,4.0,phase_1,,,,,,,,,,,,,orange,flipped triangle
0.0,3.0,0.0,1,4.0,4.0,484.381914139,4.0,phase_1,,,,,,,,,,,,,cyan,circle
82.0,6.0,2.0,1,3.0,3.0,401.319026947,4.0,phase_1,,,,,,,,,,,,,orange,flipped triangle
392.0,8.0,4.0,0,3.0,3.0,384.206056595,4.0,phase_1,,,,,,,,,,,,,yellow,line
0.0,2.0,0.0,0,1.0,1.0,417.228937149,4.0,phase_1,,,,,,,,,,,,,green,diamond
0.0,5.0,0.0,0,2.0,2.0,517.7450180049999,4.0,phase_1,,,,,,,,,,,,,gray,square
193.0,3.0,3.0,1,1.0,1.0,367.45905876200004,4.0,phase_1,,,,,,,,,,,,,cyan,circle
377.0,8.0,4.0,0,4.0,4.0,434.62395668,4.0,phase_1,,,,,,,,,,,,,yellow,line
68.0,5.0,1.0,0,4.0,4.0,451.24077796899996,4.0,phase_1,,,,,,,,,,,,,gray,square
0.0,4.0,0.0,1,1.0,1.0,417.568922043,4.0,phase_1,,,,,,,,,,,,,white,cross
0.0,8.0,0.0,0,1.0,1.0,417.96708107,4.0,phase_1,,,,,,,,,,,,,yellow,line
186.0,7.0,3.0,0,3.0,3.0,467.700004578,4.0,phase_1,,,,,,,,,,,,,magenta,triangle
107.0,6.0,2.0,1,2.0,2.0,534.3668460849999,4.0,phase_1,,,,,,,,,,,,,orange,flipped triangle
0.0,3.0,0.0,1,4.0,4.0,468.013048172,4.0,phase_1,,,,,,,,,,,,,cyan,circle
67.0,5.0,1.0,0,2.0,2.0,450.848817825,4.0,phase_1,,,,,,,,,,,,,gray,square
102.0,6.0,2.0,1,1.0,1.0,384.45520401,4.0,phase_1,,,,,,,,,,,,,orange,flipped triangle
0.0,1.0,0.0,1,1.0,1.0,567.628145218,4.0,phase_1,,,,,,,,,,,,,blue,hexagon
382.0,8.0,4.0,0,4.0,4.0,467.758893967,4.0,phase_1,,,,,,,,,,,,,yellow,line
49.0,5.0,1.0,0,3.0,3.0,567.65794754,4.0,phase_1,,,,,,,,,,,,,gray,square
0.0,1.0,0.0,1,1.0,1.0,384.207010269,4.0,phase_1,,,,,,,,,,,,,blue,hexagon
0.0,1.0,0.0,1,4.0,4.0,434.859991074,4.0,phase_1,,,,,,,,,,,,,blue,hexagon
0.0,6.0,0.0,1,2.0,2.0,434.592008591,4.0,phase_1,,,,,,,,,,,,,orange,flipped triangle
76.0,2.0,2.0,0,3.0,3.0,434.49187278700003,4.0,phase_1,,,,,,,,,,,,,green,diamond
0.0,3.0,3.0,1,6.0,6.0,501.029014587,1.0,phase_2,stop,250.0,250.0,3.0,,,,,,,,,cyan,circle
0.0,4.0,4.0,1,5.0,5.0,467.58413314800003,1.0,phase_2,go,250.0,250.0,1.0,,,,,,,,,white,cross
0.0,5.0,1.0,0,5.0,5.0,668.332099915,1.0,phase_2,go,250.0,250.0,1.0,,,,,,,,,gray,square
0.0,8.0,4.0,0,6.0,6.0,450.731992722,1.0,phase_2,go,250.0,250.0,1.0,,,,,,,,,yellow,line
0.0,1.0,1.0,1,6.0,0.0,,1.0,phase_2,stop,250.0,200.0,4.0,,,,,,,,,blue,hexagon
0.0,1.0,1.0,1,6.0,6.0,618.031978607,1.0,phase_2,go,250.0,200.0,1.0,,,,,,,,,blue,hexagon
0.0,6.0,2.0,1,5.0,0.0,,1.0,phase_2,stop,250.0,200.0,4.0,,,,,,,,,orange,flipped triangle
0.0,4.0,4.0,1,6.0,0.0,,1.0,phase_2,stop,250.0,250.0,4.0,,,,,,,,,white,cross
0.0,3.0,3.0,1,5.0,0.0,,1.0,phase_2,stop,300.0,250.0,4.0,,,,,,,,,cyan,circle
0.0,1.0,1.0,1,6.0,0.0,,1.0,phase_2,stop,300.0,300.0,4.0,,,,,,,,,blue,hexagon
0.0,3.0,3.0,1,6.0,6.0,684.648036957,1.0,phase_2,go,300.0,300.0,1.0,,,,,,,,,cyan,circle
0.0,3.0,3.0,1,5.0,0.0,,1.0,phase_2,stop,350.0,300.0,4.0,,,,,,,,,cyan,circle
0.0,6.0,2.0,1,6.0,0.0,,1.0,phase_2,stop,350.0,350.0,4.0,,,,,,,,,orange,flipped triangle
0.0,7.0,3.0,0,6.0,6.0,917.541980743,1.0,phase_2,go,350.0,350.0,1.0,,,,,,,,,magenta,triangle
0.0,2.0,2.0,0,6.0,6.0,634.6600055690001,1.0,phase_2,go,350.0,350.0,1.0,,,,,,,,,green,diamond
0.0,3.0,3.0,1,6.0,6.0,767.815828323,1.0,phase_2,go,350.0,350.0,1.0,,,,,,,,,cyan,circle
0.0,5.0,1.0,0,6.0,6.0,751.4770030980001,1.0,phase_2,go,350.0,350.0,1.0,,,,,,,,,gray,square
0.0,4.0,4.0,1,5.0,5.0,751.296043396,1.0,phase_2,go,350.0,350.0,1.0,,,,,,,,,white,cross
0.0,7.0,3.0,0,5.0,5.0,467.659950256,1.0,phase_2,go,350.0,350.0,1.0,,,,,,,,,magenta,triangle
0.0,1.0,1.0,1,6.0,0.0,,1.0,phase_2,stop,350.0,400.0,4.0,,,,,,,,,blue,hexagon
0.0,5.0,1.0,0,6.0,6.0,751.3051033019999,1.0,phase_2,go,350.0,400.0,1.0,,,,,,,,,gray,square
0.0,2.0,2.0,0,5.0,5.0,567.7430629730001,1.0,phase_2,go,350.0,400.0,1.0,,,,,,,,,green,diamond
0.0,8.0,4.0,0,5.0,5.0,634.518861771,1.0,phase_2,go,350.0,400.0,1.0,,,,,,,,,yellow,line
0.0,8.0,4.0,0,5.0,5.0,684.059143066,1.0,phase_2,go,350.0,400.0,1.0,,,,,,,,,yellow,line
0.0,3.0,3.0,1,6.0,0.0,,1.0,phase_2,stop,350.0,450.0,4.0,,,,,,,,,cyan,circle
0.0,4.0,4.0,1,6.0,0.0,,1.0,phase_2,stop,350.0,500.0,4.0,,,,,,,,,white,cross
0.0,2.0,2.0,0,5.0,5.0,651.627779007,1.0,phase_2,go,350.0,500.0,1.0,,,,,,,,,green,diamond
0.0,5.0,1.0,0,5.0,5.0,484.238147736,1.0,phase_2,go,350.0,500.0,1.0,,,,,,,,,gray,square
0.0,6.0,2.0,1,6.0,6.0,483.993053436,1.0,phase_2,stop,350.0,550.0,3.0,,,,,,,,,orange,flipped triangle
0.0,8.0,4.0,0,5.0,5.0,601.1369228359999,1.0,phase_2,go,350.0,550.0,1.0,,,,,,,,,yellow,line
0.0,6.0,2.0,1,5.0,5.0,750.642061234,1.0,phase_2,go,350.0,550.0,1.0,,,,,,,,,orange,flipped triangle
0.0,4.0,4.0,1,5.0,5.0,417.768955231,1.0,phase_2,stop,400.0,550.0,3.0,,,,,,,,,white,cross
0.0,8.0,4.0,0,5.0,5.0,684.811115265,1.0,phase_2,go,400.0,550.0,1.0,,,,,,,,,yellow,line
0.0,1.0,1.0,1,6.0,6.0,501.433849335,1.0,phase_2,stop,400.0,500.0,3.0,,,,,,,,,blue,hexagon
0.0,2.0,2.0,0,5.0,5.0,801.541090012,1.0,phase_2,go,400.0,500.0,1.0,,,,,,,,,green,diamond
0.0,8.0,4.0,0,5.0,5.0,917.808055878,1.0,phase_2,go,400.0,500.0,1.0,,,,,,,,,yellow,line
0.0,4.0,4.0,1,5.0,5.0,400.678157806,2.0,phase_2,stop,350.0,500.0,3.0,,,,,,,,,white,cross
0.0,8.0,4.0,0,6.0,6.0,401.223897934,2.0,phase_2,go,350.0,500.0,1.0,,,,,,,,,yellow,line
0.0,1.0,1.0,1,6.0,0.0,,2.0,phase_2,stop,350.0,450.0,4.0,,,,,,,,,blue,hexagon
0.0,5.0,1.0,0,6.0,6.0,717.708110809,2.0,phase_2,go,350.0,450.0,1.0,,,,,,,,,gray,square
0.0,4.0,4.0,1,5.0,0.0,,2.0,phase_2,stop,300.0,450.0,4.0,,,,,,,,,white,cross
0.0,1.0,1.0,1,6.0,6.0,350.759983063,2.0,phase_2,stop,300.0,500.0,3.0,,,,,,,,,blue,hexagon
0.0,2.0,2.0,0,5.0,5.0,634.998083115,2.0,phase_2,go,300.0,500.0,1.0,,,,,,,,,green,diamond
0.0,2.0,2.0,0,5.0,5.0,634.37795639,2.0,phase_2,go,300.0,500.0,1.0,,,,,,,,,green,diamond
0.0,3.0,3.0,1,5.0,0.0,,2.0,phase_2,stop,350.0,500.0,4.0,,,,,,,,,cyan,circle
0.0,4.0,4.0,1,6.0,0.0,,2.0,phase_2,stop,350.0,450.0,4.0,,,,,,,,,white,cross
0.0,7.0,3.0,0,5.0,5.0,718.0569171909999,2.0,phase_2,go,350.0,450.0,1.0,,,,,,,,,magenta,triangle
0.0,2.0,2.0,0,5.0,5.0,834.5079422,2.0,phase_2,go,350.0,450.0,1.0,,,,,,,,,green,diamond
0.0,2.0,2.0,0,6.0,6.0,734.658002853,2.0,phase_2,go,350.0,450.0,1.0,,,,,,,,,green,diamond
0.0,3.0,3.0,1,5.0,0.0,,2.0,phase_2,stop,400.0,450.0,4.0,,,,,,,,,cyan,circle
0.0,6.0,2.0,1,6.0,6.0,550.689220428,2.0,phase_2,go,400.0,450.0,1.0,,,,,,,,,orange,flipped triangle
0.0,2.0,2.0,0,5.0,5.0,667.600870132,2.0,phase_2,go,400.0,450.0,1.0,,,,,,,,,green,diamond
0.0,4.0,4.0,1,6.0,6.0,601.1059284209999,2.0,phase_2,stop,400.0,500.0,3.0,,,,,,,,,white,cross
0.0,4.0,4.0,1,5.0,5.0,701.429128647,2.0,phase_2,go,400.0,500.0,1.0,,,,,,,,,white,cross
0.0,1.0,1.0,1,5.0,0.0,,2.0,phase_2,stop,450.0,500.0,4.0,,,,,,,,,blue,hexagon
0.0,1.0,1.0,1,6.0,6.0,667.835950851,2.0,phase_2,go,450.0,500.0,1.0,,,,,,,,,blue,hexagon
0.0,5.0,1.0,0,6.0,6.0,868.260145187,2.0,phase_2,go,450.0,500.0,1.0,,,,,,,,,gray,square
0.0,4.0,4.0,1,6.0,0.0,,2.0,phase_2,stop,450.0,450.0,4.0,,,,,,,,,white,cross
0.0,2.0,2.0,0,5.0,5.0,417.640209198,2.0,phase_2,go,450.0,450.0,1.0,,,,,,,,,green,diamond
0.0,3.0,3.0,1,6.0,6.0,617.717027664,2.0,phase_2,stop,450.0,500.0,3.0,,,,,,,,,cyan,circle
0.0,5.0,1.0,0,6.0,6.0,717.772006989,2.0,phase_2,go,450.0,500.0,1.0,,,,,,,,,gray,square
0.0,6.0,2.0,1,5.0,5.0,433.709144592,2.0,phase_2,stop,500.0,500.0,3.0,,,,,,,,,orange,flipped triangle
0.0,7.0,3.0,0,5.0,5.0,634.323835373,2.0,phase_2,go,500.0,500.0,1.0,,,,,,,,,magenta,triangle
0.0,8.0,4.0,0,6.0,6.0,684.3299865719999,2.0,phase_2,go,500.0,500.0,1.0,,,,,,,,,yellow,line
0.0,2.0,2.0,0,6.0,6.0,718.075037003,2.0,phase_2,go,500.0,500.0,1.0,,,,,,,,,green,diamond
0.0,7.0,3.0,0,5.0,5.0,700.601100922,2.0,phase_2,go,500.0,500.0,1.0,,,,,,,,,magenta,triangle
0.0,5.0,1.0,0,5.0,5.0,801.048994064,2.0,phase_2,go,500.0,500.0,1.0,,,,,,,,,gray,square
0.0,5.0,1.0,0,5.0,5.0,551.646947861,2.0,phase_2,go,500.0,500.0,1.0,,,,,,,,,gray,square
0.0,5.0,1.0,0,6.0,6.0,685.3799819950001,2.0,phase_2,go,500.0,500.0,1.0,,,,,,,,,gray,square
0.0,8.0,4.0,0,5.0,5.0,567.616939545,2.0,phase_2,go,500.0,500.0,1.0,,,,,,,,,yellow,line
0.0,4.0,4.0,1,6.0,6.0,634.4780921939999,2.0,phase_2,stop,500.0,450.0,3.0,,,,,,,,,white,cross
0.0,4.0,4.0,1,6.0,6.0,534.346103668,2.0,phase_2,stop,500.0,400.0,3.0,,,,,,,,,white,cross
0.0,3.0,3.0,1,6.0,6.0,417.859792709,3.0,phase_2,stop,500.0,350.0,3.0,,,,,,,,,cyan,circle
0.0,4.0,4.0,1,6.0,0.0,,3.0,phase_2,stop,500.0,300.0,4.0,,,,,,,,,white,cross
0.0,4.0,4.0,1,5.0,5.0,350.225925446,3.0,phase_2,stop,450.0,300.0,3.0,,,,,,,,,white,cross
0.0,5.0,1.0,0,5.0,5.0,418.374061584,3.0,phase_2,go,450.0,300.0,1.0,,,,,,,,,gray,square
0.0,3.0,3.0,1,6.0,0.0,,3.0,phase_2,stop,450.0,350.0,4.0,,,,,,,,,cyan,circle
0.0,3.0,3.0,1,5.0,5.0,701.128959656,3.0,phase_2,go,450.0,350.0,1.0,,,,,,,,,cyan,circle
0.0,7.0,3.0,0,5.0,5.0,635.001897812,3.0,phase_2,go,450.0,350.0,1.0,,,,,,,,,magenta,triangle
0.0,3.0,3.0,1,6.0,0.0,,3.0,phase_2,stop,450.0,400.0,4.0,,,,,,,,,cyan,circle
0.0,7.0,3.0,0,6.0,0.0,,3.0,phase_2,go,450.0,400.0,5.0,,,,,,,,,magenta,triangle
0.0,3.0,3.0,1,6.0,6.0,434.08703804,3.0,phase_2,stop,450.0,450.0,3.0,,,,,,,,,cyan,circle
0.0,2.0,2.0,0,5.0,5.0,300.497055054,3.0,phase_2,go,450.0,450.0,1.0,,,,,,,,,green,diamond
0.0,3.0,3.0,1,6.0,0.0,,3.0,phase_2,stop,450.0,400.0,4.0,,,,,,,,,cyan,circle
0.0,7.0,3.0,0,5.0,5.0,701.2591362000001,3.0,phase_2,go,450.0,400.0,1.0,,,,,,,,,magenta,triangle
0.0,7.0,3.0,0,6.0,6.0,834.634065628,3.0,phase_2,go,450.0,400.0,1.0,,,,,,,,,magenta,triangle
0.0,8.0,4.0,0,5.0,5.0,534.4769954679999,3.0,phase_2,go,450.0,400.0,1.0,,,,,,,,,yellow,line
0.0,4.0,4.0,1,6.0,0.0,,3.0,phase_2,stop,450.0,450.0,4.0,,,,,,,,,white,cross
0.0,2.0,2.0,0,6.0,6.0,902.2738933559999,3.0,phase_2,go,450.0,450.0,1.0,,,,,,,,,green,diamond
0.0,2.0,2.0,0,5.0,5.0,801.045894623,3.0,phase_2,go,450.0,450.0,1.0,,,,,,,,,green,diamond
0.0,2.0,2.0,0,5.0,5.0,617.4271106719999,3.0,phase_2,go,450.0,450.0,1.0,,,,,,,,,green,diamond
0.0,7.0,3.0,0,6.0,6.0,750.782966614,3.0,phase_2,go,450.0,450.0,1.0,,,,,,,,,magenta,triangle
0.0,8.0,4.0,0,5.0,5.0,568.068027496,3.0,phase_2,go,450.0,450.0,1.0,,,,,,,,,yellow,line
0.0,2.0,2.0,0,6.0,6.0,734.956979752,3.0,phase_2,go,450.0,450.0,1.0,,,,,,,,,green,diamond
0.0,6.0,2.0,1,5.0,5.0,784.469842911,3.0,phase_2,go,450.0,450.0,1.0,,,,,,,,,orange,flipped triangle
0.0,1.0,1.0,1,6.0,0.0,,3.0,phase_2,stop,450.0,500.0,4.0,,,,,,,,,blue,hexagon
0.0,8.0,4.0,0,5.0,5.0,367.723941803,3.0,phase_2,go,450.0,500.0,1.0,,,,,,,,,yellow,line
0.0,2.0,2.0,0,6.0,6.0,634.375095367,3.0,phase_2,go,450.0,500.0,1.0,,,,,,,,,green,diamond
0.0,7.0,3.0,0,6.0,6.0,852.0910739899999,3.0,phase_2,go,450.0,500.0,1.0,,,,,,,,,magenta,triangle
0.0,8.0,4.0,0,5.0,5.0,684.642791748,3.0,phase_2,go,450.0,500.0,1.0,,,,,,,,,yellow,line
0.0,3.0,3.0,1,6.0,6.0,417.60396957399996,3.0,phase_2,go,450.0,500.0,1.0,,,,,,,,,cyan,circle
0.0,3.0,3.0,1,6.0,6.0,784.4779491419999,3.0,phase_2,go,450.0,500.0,1.0,,,,,,,,,cyan,circle
0.0,6.0,2.0,1,5.0,5.0,500.96702575700004,3.0,phase_2,stop,400.0,500.0,3.0,,,,,,,,,orange,flipped triangle
0.0,3.0,3.0,1,6.0,6.0,467.703819275,3.0,phase_2,stop,400.0,550.0,3.0,,,,,,,,,cyan,circle
0.0,6.0,2.0,1,5.0,0.0,,3.0,phase_2,stop,350.0,550.0,4.0,,,,,,,,,orange,flipped triangle
0.0,7.0,3.0,0,5.0,5.0,584.3210220340001,3.0,phase_2,go,350.0,550.0,1.0,,,,,,,,,magenta,triangle
0.0,1.0,1.0,1,5.0,5.0,400.518894196,3.0,phase_2,stop,400.0,550.0,3.0,,,,,,,,,blue,hexagon
0.0,6.0,2.0,1,5.0,5.0,450.696229935,3.0,phase_2,go,400.0,550.0,1.0,,,,,,,,,orange,flipped triangle
0.0,3.0,3.0,1,6.0,6.0,533.749818802,4.0,phase_2,stop,400.0,500.0,3.0,,,,,,,,,cyan,circle
0.0,4.0,4.0,1,5.0,5.0,383.527994156,4.0,phase_2,stop,350.0,500.0,3.0,,,,,,,,,white,cross
0.0,6.0,2.0,1,6.0,6.0,634.4130039219999,4.0,phase_2,stop,350.0,450.0,3.0,,,,,,,,,orange,flipped triangle
0.0,1.0,1.0,1,5.0,0.0,,4.0,phase_2,stop,300.0,450.0,4.0,,,,,,,,,blue,hexagon
0.0,2.0,2.0,0,5.0,5.0,450.74820518499996,4.0,phase_2,go,300.0,450.0,1.0,,,,,,,,,green,diamond
0.0,1.0,1.0,1,5.0,5.0,400.722026825,4.0,phase_2,stop,350.0,450.0,3.0,,,,,,,,,blue,hexagon
0.0,4.0,4.0,1,6.0,0.0,,4.0,phase_2,go,350.0,450.0,5.0,,,,,,,,,white,cross
0.0,5.0,1.0,0,6.0,6.0,534.047842026,4.0,phase_2,go,350.0,450.0,1.0,,,,,,,,,gray,square
0.0,1.0,1.0,1,5.0,0.0,,4.0,phase_2,stop,300.0,450.0,4.0,,,,,,,,,blue,hexagon
0.0,8.0,4.0,0,6.0,6.0,751.378059387,4.0,phase_2,go,300.0,450.0,1.0,,,,,,,,,yellow,line
0.0,3.0,3.0,1,6.0,6.0,650.783061981,4.0,phase_2,go,300.0,450.0,1.0,,,,,,,,,cyan,circle
0.0,8.0,4.0,0,5.0,5.0,684.7290992740001,4.0,phase_2,go,300.0,450.0,1.0,,,,,,,,,yellow,line
0.0,4.0,4.0,1,5.0,5.0,450.667858124,4.0,phase_2,stop,350.0,450.0,3.0,,,,,,,,,white,cross
0.0,4.0,4.0,1,5.0,0.0,,4.0,phase_2,stop,300.0,450.0,4.0,,,,,,,,,white,cross
0.0,7.0,3.0,0,5.0,5.0,484.220981598,4.0,phase_2,go,300.0,450.0,1.0,,,,,,,,,magenta,triangle
0.0,8.0,4.0,0,5.0,5.0,450.90293884299996,4.0,phase_2,go,300.0,450.0,1.0,,,,,,,,,yellow,line
0.0,4.0,4.0,1,6.0,6.0,501.40094757099996,4.0,phase_2,stop,300.0,400.0,3.0,,,,,,,,,white,cross
0.0,4.0,4.0,1,6.0,6.0,650.9358882900001,4.0,phase_2,go,300.0,400.0,1.0,,,,,,,,,white,cross
0.0,4.0,4.0,1,6.0,0.0,,4.0,phase_2,stop,300.0,350.0,4.0,,,,,,,,,white,cross
0.0,8.0,4.0,0,6.0,6.0,667.014837265,4.0,phase_2,go,300.0,350.0,1.0,,,,,,,,,yellow,line
0.0,7.0,3.0,0,5.0,5.0,701.370954514,4.0,phase_2,go,300.0,350.0,1.0,,,,,,,,,magenta,triangle
0.0,1.0,1.0,1,5.0,5.0,383.939027786,4.0,phase_2,stop,350.0,350.0,3.0,,,,,,,,,blue,hexagon
0.0,8.0,4.0,0,5.0,5.0,418.08295249900004,4.0,phase_2,go,350.0,350.0,1.0,,,,,,,,,yellow,line
0.0,7.0,3.0,0,5.0,5.0,767.88020134,4.0,phase_2,go,350.0,350.0,1.0,,,,,,,,,magenta,triangle
0.0,6.0,2.0,1,6.0,0.0,,4.0,phase_2,stop,350.0,400.0,4.0,,,,,,,,,orange,flipped triangle
0.0,1.0,1.0,1,6.0,6.0,534.301042557,4.0,phase_2,stop,350.0,450.0,3.0,,,,,,,,,blue,hexagon
0.0,3.0,3.0,1,6.0,6.0,467.386007309,4.0,phase_2,stop,350.0,400.0,3.0,,,,,,,,,cyan,circle
0.0,2.0,2.0,0,6.0,6.0,734.59815979,4.0,phase_2,go,350.0,400.0,1.0,,,,,,,,,green,diamond
0.0,1.0,1.0,1,5.0,0.0,,4.0,phase_2,stop,300.0,400.0,4.0,,,,,,,,,blue,hexagon
0.0,4.0,4.0,1,5.0,0.0,,4.0,phase_2,stop,350.0,400.0,4.0,,,,,,,,,white,cross
0.0,4.0,4.0,1,6.0,6.0,467.89407730100004,4.0,phase_2,stop,350.0,350.0,3.0,,,,,,,,,white,cross
0.0,2.0,2.0,0,5.0,5.0,684.490919113,4.0,phase_2,go,350.0,350.0,1.0,,,,,,,,,green,diamond
0.0,1.0,1.0,1,5.0,5.0,350.704908371,4.0,phase_2,stop,400.0,350.0,3.0,,,,,,,,,blue,hexagon
0.0,3.0,3.0,1,6.0,6.0,634.124040604,4.0,phase_2,go,400.0,350.0,1.0,,,,,,,,,cyan,circle
0.0,3.0,3.0,1,6.0,0.0,,4.0,phase_2,stop,400.0,300.0,4.0,,,,,,,,,cyan,circle
0.0,6.0,2.0,1,6.0,0.0,,4.0,phase_2,stop,400.0,350.0,4.0,,,,,,,,,orange,flipped triangle
0.0,1.0,1.0,1,5.0,0.0,,5.0,phase_2,stop,350.0,350.0,4.0,,,,,,,,,blue,hexagon
0.0,5.0,1.0,0,6.0,6.0,534.387111664,5.0,phase_2,go,350.0,350.0,1.0,,,,,,,,,gray,square
0.0,2.0,2.0,0,5.0,5.0,601.581096649,5.0,phase_2,go,350.0,350.0,1.0,,,,,,,,,green,diamond
0.0,4.0,4.0,1,5.0,0.0,,5.0,phase_2,stop,400.0,350.0,4.0,,,,,,,,,white,cross
0.0,5.0,1.0,0,6.0,6.0,667.572021484,5.0,phase_2,go,400.0,350.0,1.0,,,,,,,,,gray,square
0.0,3.0,3.0,1,5.0,0.0,,5.0,phase_2,stop,450.0,350.0,4.0,,,,,,,,,cyan,circle
0.0,1.0,1.0,1,6.0,0.0,,5.0,phase_2,stop,450.0,400.0,4.0,,,,,,,,,blue,hexagon
0.0,2.0,2.0,0,5.0,5.0,367.842912674,5.0,phase_2,go,450.0,400.0,1.0,,,,,,,,,green,diamond
0.0,8.0,4.0,0,6.0,6.0,884.621858597,5.0,phase_2,go,450.0,400.0,1.0,,,,,,,,,yellow,line
0.0,2.0,2.0,0,6.0,6.0,717.735052109,5.0,phase_2,go,450.0,400.0,1.0,,,,,,,,,green,diamond
0.0,2.0,2.0,0,6.0,6.0,466.638803482,5.0,phase_2,go,450.0,400.0,1.0,,,,,,,,,green,diamond
0.0,5.0,1.0,0,6.0,6.0,685.184001923,5.0,phase_2,go,450.0,400.0,1.0,,,,,,,,,gray,square
0.0,2.0,2.0,0,5.0,5.0,634.744167328,5.0,phase_2,go,450.0,400.0,1.0,,,,,,,,,green,diamond
0.0,1.0,1.0,1,6.0,6.0,501.09004974399994,5.0,phase_2,stop,450.0,450.0,3.0,,,,,,,,,blue,hexagon
0.0,3.0,3.0,1,6.0,0.0,,5.0,phase_2,stop,450.0,400.0,4.0,,,,,,,,,cyan,circle
0.0,2.0,2.0,0,5.0,5.0,333.695888519,5.0,phase_2,go,450.0,400.0,1.0,,,,,,,,,green,diamond
0.0,2.0,2.0,0,5.0,5.0,734.558105469,5.0,phase_2,go,450.0,400.0,1.0,,,,,,,,,green,diamond
0.0,5.0,1.0,0,5.0,5.0,501.32894516000005,5.0,phase_2,go,450.0,400.0,1.0,,,,,,,,,gray,square
0.0,5.0,1.0,0,5.0,5.0,634.3870162960001,5.0,phase_2,go,450.0,400.0,1.0,,,,,,,,,gray,square
0.0,7.0,3.0,0,6.0,6.0,417.68980026199995,5.0,phase_2,go,450.0,400.0,1.0,,,,,,,,,magenta,triangle
0.0,6.0,2.0,1,6.0,0.0,,5.0,phase_2,stop,450.0,450.0,4.0,,,,,,,,,orange,flipped triangle
0.0,6.0,2.0,1,6.0,6.0,751.0788440700001,5.0,phase_2,go,450.0,450.0,1.0,,,,,,,,,orange,flipped triangle
0.0,4.0,4.0,1,6.0,6.0,635.314941406,5.0,phase_2,stop,450.0,500.0,3.0,,,,,,,,,white,cross
0.0,3.0,3.0,1,6.0,0.0,,5.0,phase_2,stop,450.0,450.0,4.0,,,,,,,,,cyan,circle
0.0,8.0,4.0,0,5.0,5.0,718.327045441,5.0,phase_2,go,450.0,450.0,1.0,,,,,,,,,yellow,line
0.0,5.0,1.0,0,5.0,5.0,734.2970371250001,5.0,phase_2,go,450.0,450.0,1.0,,,,,,,,,gray,square
0.0,3.0,3.0,1,6.0,6.0,700.693130493,5.0,phase_2,stop,450.0,500.0,3.0,,,,,,,,,cyan,circle
0.0,1.0,1.0,1,6.0,0.0,,5.0,phase_2,stop,450.0,450.0,4.0,,,,,,,,,blue,hexagon
0.0,1.0,1.0,1,5.0,0.0,,5.0,phase_2,stop,500.0,450.0,4.0,,,,,,,,,blue,hexagon
0.0,3.0,3.0,1,6.0,6.0,401.39102935799997,5.0,phase_2,go,500.0,450.0,1.0,,,,,,,,,cyan,circle
0.0,3.0,3.0,1,5.0,5.0,551.593065262,5.0,phase_2,stop,550.0,450.0,3.0,,,,,,,,,cyan,circle
0.0,8.0,4.0,0,5.0,6.0,851.0499000550001,5.0,phase_2,go,550.0,450.0,2.0,,,,,,,,,yellow,line
0.0,8.0,4.0,0,5.0,5.0,767.700910568,5.0,phase_2,go,550.0,450.0,1.0,,,,,,,,,yellow,line
0.0,4.0,4.0,1,6.0,0.0,,5.0,phase_2,stop,550.0,500.0,4.0,,,,,,,,,white,cross
0.0,6.0,2.0,1,5.0,5.0,684.419870377,5.0,phase_2,stop,500.0,500.0,3.0,,,,,,,,,orange,flipped triangle
0.0,2.0,2.0,0,5.0,5.0,717.859983444,5.0,phase_2,go,500.0,500.0,1.0,,,,,,,,,green,diamond
0.0,6.0,2.0,1,6.0,6.0,484.778881073,6.0,phase_2,stop,500.0,550.0,3.0,,,,,,,,,orange,flipped triangle
0.0,6.0,2.0,1,6.0,6.0,383.98098945600003,6.0,phase_2,stop,500.0,500.0,3.0,,,,,,,,,orange,flipped triangle
0.0,7.0,3.0,0,6.0,6.0,684.365034103,6.0,phase_2,go,500.0,500.0,1.0,,,,,,,,,magenta,triangle
0.0,4.0,4.0,1,5.0,5.0,417.573213577,6.0,phase_2,stop,450.0,500.0,3.0,,,,,,,,,white,cross
0.0,6.0,2.0,1,6.0,6.0,768.066883087,6.0,phase_2,go,450.0,500.0,1.0,,,,,,,,,orange,flipped triangle
0.0,3.0,3.0,1,6.0,6.0,534.1320037840001,6.0,phase_2,stop,450.0,450.0,3.0,,,,,,,,,cyan,circle
0.0,6.0,2.0,1,5.0,5.0,334.253072739,6.0,phase_2,stop,400.0,450.0,3.0,,,,,,,,,orange,flipped triangle
0.0,4.0,4.0,1,5.0,5.0,400.624036789,6.0,phase_2,go,400.0,450.0,1.0,,,,,,,,,white,cross
0.0,7.0,3.0,0,6.0,6.0,600.770950317,6.0,phase_2,go,400.0,450.0,1.0,,,,,,,,,magenta,triangle
0.0,8.0,4.0,0,5.0,5.0,567.848920822,6.0,phase_2,go,400.0,450.0,1.0,,,,,,,,,yellow,line
0.0,6.0,2.0,1,5.0,5.0,401.00312233,6.0,phase_2,stop,350.0,450.0,3.0,,,,,,,,,orange,flipped triangle
0.0,7.0,3.0,0,5.0,5.0,334.30004119899996,6.0,phase_2,go,350.0,450.0,1.0,,,,,,,,,magenta,triangle
0.0,6.0,2.0,1,5.0,5.0,250.67400932299998,6.0,phase_2,stop,300.0,450.0,3.0,,,,,,,,,orange,flipped triangle
0.0,6.0,2.0,1,5.0,5.0,367.27309227,6.0,phase_2,go,300.0,450.0,1.0,,,,,,,,,orange,flipped triangle
0.0,7.0,3.0,0,5.0,5.0,300.566911697,6.0,phase_2,go,300.0,450.0,1.0,,,,,,,,,magenta,triangle
0.0,1.0,1.0,1,6.0,6.0,350.347042084,6.0,phase_2,go,300.0,450.0,1.0,,,,,,,,,blue,hexagon
0.0,8.0,4.0,0,6.0,6.0,417.456865311,6.0,phase_2,go,300.0,450.0,1.0,,,,,,,,,yellow,line
0.0,5.0,1.0,0,5.0,5.0,334.037065506,6.0,phase_2,go,300.0,450.0,1.0,,,,,,,,,gray,square
0.0,1.0,1.0,1,5.0,5.0,383.82101059,6.0,phase_2,go,300.0,450.0,1.0,,,,,,,,,blue,hexagon
0.0,1.0,1.0,1,5.0,5.0,367.565155029,6.0,phase_2,stop,250.0,450.0,3.0,,,,,,,,,blue,hexagon
0.0,6.0,2.0,1,5.0,5.0,367.417812347,6.0,phase_2,stop,200.0,450.0,3.0,,,,,,,,,orange,flipped triangle
0.0,2.0,2.0,0,6.0,6.0,617.53487587,6.0,phase_2,go,200.0,450.0,1.0,,,,,,,,,green,diamond
0.0,5.0,1.0,0,6.0,6.0,634.395122528,6.0,phase_2,go,200.0,450.0,1.0,,,,,,,,,gray,square
0.0,6.0,2.0,1,6.0,6.0,634.083032608,6.0,phase_2,stop,200.0,400.0,3.0,,,,,,,,,orange,flipped triangle
0.0,3.0,3.0,1,5.0,5.0,384.300947189,6.0,phase_2,stop,150.0,400.0,3.0,,,,,,,,,cyan,circle
0.0,8.0,4.0,0,5.0,5.0,450.717926025,6.0,phase_2,go,150.0,400.0,1.0,,,,,,,,,yellow,line
0.0,2.0,2.0,0,6.0,6.0,467.32401847799997,6.0,phase_2,go,150.0,400.0,1.0,,,,,,,,,green,diamond
0.0,8.0,4.0,0,6.0,6.0,450.91104507399996,6.0,phase_2,go,150.0,400.0,1.0,,,,,,,,,yellow,line
0.0,7.0,3.0,0,6.0,6.0,551.033973694,6.0,phase_2,go,150.0,400.0,1.0,,,,,,,,,magenta,triangle
0.0,7.0,3.0,0,5.0,5.0,434.196949005,6.0,phase_2,go,150.0,400.0,1.0,,,,,,,,,magenta,triangle
0.0,5.0,1.0,0,6.0,6.0,600.6870269780001,6.0,phase_2,go,150.0,400.0,1.0,,,,,,,,,gray,square
0.0,5.0,1.0,0,6.0,6.0,434.333086014,6.0,phase_2,go,150.0,400.0,1.0,,,,,,,,,gray,square
0.0,8.0,4.0,0,6.0,6.0,534.105062485,6.0,phase_2,go,150.0,400.0,1.0,,,,,,,,,yellow,line
0.0,3.0,3.0,1,6.0,6.0,400.688886642,6.0,phase_2,stop,150.0,350.0,3.0,,,,,,,,,cyan,circle
0.0,4.0,4.0,1,5.0,5.0,484.10701751700003,6.0,phase_2,stop,100.0,350.0,3.0,,,,,,,,,white,cross
0.0,7.0,3.0,0,5.0,5.0,550.8320331570001,6.0,phase_2,go,100.0,350.0,1.0,,,,,,,,,magenta,triangle
0.0,1.0,1.0,1,5.0,5.0,450.89602470399996,7.0,phase_2,go,100.0,350.0,1.0,,,,,,,,,blue,hexagon
0.0,8.0,4.0,0,5.0,5.0,401.032924652,7.0,phase_2,go,100.0,350.0,1.0,,,,,,,,,yellow,line
0.0,5.0,1.0,0,6.0,6.0,350.40307045000003,7.0,phase_2,go,100.0,350.0,1.0,,,,,,,,,gray,square
0.0,7.0,3.0,0,5.0,5.0,283.764123917,7.0,phase_2,go,100.0,350.0,1.0,,,,,,,,,magenta,triangle
0.0,7.0,3.0,0,6.0,6.0,366.839885712,7.0,phase_2,go,100.0,350.0,1.0,,,,,,,,,magenta,triangle
0.0,8.0,4.0,0,5.0,5.0,351.07088089,7.0,phase_2,go,100.0,350.0,1.0,,,,,,,,,yellow,line
0.0,5.0,1.0,0,5.0,5.0,367.194890976,7.0,phase_2,go,100.0,350.0,1.0,,,,,,,,,gray,square
0.0,1.0,1.0,1,5.0,5.0,351.421117783,7.0,phase_2,go,100.0,350.0,1.0,,,,,,,,,blue,hexagon
0.0,5.0,1.0,0,5.0,5.0,300.80890655499996,7.0,phase_2,go,100.0,350.0,1.0,,,,,,,,,gray,square
0.0,6.0,2.0,1,5.0,0.0,,7.0,phase_2,stop,50.0,350.0,4.0,,,,,,,,,orange,flipped triangle
0.0,8.0,4.0,0,6.0,6.0,418.279886246,7.0,phase_2,go,50.0,350.0,1.0,,,,,,,,,yellow,line
0.0,5.0,1.0,0,5.0,5.0,368.17312240599995,7.0,phase_2,go,50.0,350.0,1.0,,,,,,,,,gray,square
0.0,5.0,1.0,0,6.0,6.0,334.03801918,7.0,phase_2,go,50.0,350.0,1.0,,,,,,,,,gray,square
0.0,4.0,4.0,1,5.0,5.0,417.40798950199996,7.0,phase_2,go,50.0,350.0,1.0,,,,,,,,,white,cross
0.0,5.0,1.0,0,6.0,6.0,383.84199142499995,7.0,phase_2,go,50.0,350.0,1.0,,,,,,,,,gray,square
0.0,7.0,3.0,0,5.0,5.0,517.394065857,7.0,phase_2,go,50.0,350.0,1.0,,,,,,,,,magenta,triangle
0.0,8.0,4.0,0,6.0,6.0,333.885908127,7.0,phase_2,go,50.0,350.0,1.0,,,,,,,,,yellow,line
0.0,6.0,2.0,1,5.0,0.0,,7.0,phase_2,stop,100.0,350.0,4.0,,,,,,,,,orange,flipped triangle
0.0,4.0,4.0,1,6.0,6.0,434.562921524,7.0,phase_2,go,100.0,350.0,1.0,,,,,,,,,white,cross
0.0,7.0,3.0,0,6.0,6.0,666.838169098,7.0,phase_2,go,100.0,350.0,1.0,,,,,,,,,magenta,triangle
0.0,1.0,1.0,1,6.0,0.0,,7.0,phase_2,stop,100.0,300.0,4.0,,,,,,,,,blue,hexagon
0.0,6.0,2.0,1,5.0,0.0,,7.0,phase_2,stop,150.0,300.0,4.0,,,,,,,,,orange,flipped triangle
0.0,6.0,2.0,1,6.0,6.0,351.333856583,7.0,phase_2,stop,150.0,350.0,3.0,,,,,,,,,orange,flipped triangle
0.0,6.0,2.0,1,5.0,0.0,,7.0,phase_2,stop,200.0,350.0,4.0,,,,,,,,,orange,flipped triangle
0.0,6.0,2.0,1,5.0,0.0,,7.0,phase_2,stop,250.0,350.0,4.0,,,,,,,,,orange,flipped triangle
0.0,5.0,1.0,0,6.0,6.0,634.557962418,7.0,phase_2,go,250.0,350.0,1.0,,,,,,,,,gray,square
0.0,2.0,2.0,0,6.0,6.0,601.191997528,7.0,phase_2,go,250.0,350.0,1.0,,,,,,,,,green,diamond
0.0,6.0,2.0,1,6.0,0.0,,7.0,phase_2,stop,250.0,300.0,4.0,,,,,,,,,orange,flipped triangle
0.0,5.0,1.0,0,5.0,5.0,567.6839351650001,7.0,phase_2,go,250.0,300.0,1.0,,,,,,,,,gray,square
0.0,8.0,4.0,0,6.0,6.0,600.978136063,7.0,phase_2,go,250.0,300.0,1.0,,,,,,,,,yellow,line
0.0,8.0,4.0,0,5.0,5.0,817.7921772,7.0,phase_2,go,250.0,300.0,1.0,,,,,,,,,yellow,line
0.0,5.0,1.0,0,6.0,6.0,350.844860077,7.0,phase_2,go,250.0,300.0,1.0,,,,,,,,,gray,square
0.0,7.0,3.0,0,6.0,6.0,434.79394912699996,7.0,phase_2,go,250.0,300.0,1.0,,,,,,,,,magenta,triangle
0.0,3.0,3.0,1,5.0,5.0,601.02891922,7.0,phase_2,go,250.0,300.0,1.0,,,,,,,,,cyan,circle
0.0,2.0,2.0,0,6.0,6.0,517.4939632420001,7.0,phase_2,go,250.0,300.0,1.0,,,,,,,,,green,diamond
0.0,8.0,4.0,0,6.0,6.0,367.686033249,7.0,phase_2,go,250.0,300.0,1.0,,,,,,,,,yellow,line
0.0,2.0,2.0,0,5.0,5.0,484.225988388,8.0,phase_2,go,250.0,300.0,1.0,,,,,,,,,green,diamond
0.0,1.0,1.0,1,6.0,6.0,434.38410759,8.0,phase_2,go,250.0,300.0,1.0,,,,,,,,,blue,hexagon
0.0,6.0,2.0,1,6.0,6.0,333.796024323,8.0,phase_2,stop,250.0,350.0,3.0,,,,,,,,,orange,flipped triangle
0.0,6.0,2.0,1,5.0,5.0,618.082046509,8.0,phase_2,go,250.0,350.0,1.0,,,,,,,,,orange,flipped triangle
0.0,2.0,2.0,0,6.0,6.0,517.5900459290001,8.0,phase_2,go,250.0,350.0,1.0,,,,,,,,,green,diamond
0.0,1.0,1.0,1,5.0,5.0,417.65618324300004,8.0,phase_2,go,250.0,350.0,1.0,,,,,,,,,blue,hexagon
0.0,3.0,3.0,1,5.0,0.0,,8.0,phase_2,stop,300.0,350.0,4.0,,,,,,,,,cyan,circle
0.0,5.0,1.0,0,5.0,5.0,434.083938599,8.0,phase_2,go,300.0,350.0,1.0,,,,,,,,,gray,square
0.0,1.0,1.0,1,5.0,5.0,450.750112534,8.0,phase_2,stop,350.0,350.0,3.0,,,,,,,,,blue,hexagon
0.0,7.0,3.0,0,5.0,5.0,434.26012992899996,8.0,phase_2,go,350.0,350.0,1.0,,,,,,,,,magenta,triangle
0.0,2.0,2.0,0,5.0,5.0,484.111785889,8.0,phase_2,go,350.0,350.0,1.0,,,,,,,,,green,diamond
0.0,8.0,4.0,0,6.0,6.0,367.70987510699996,8.0,phase_2,go,350.0,350.0,1.0,,,,,,,,,yellow,line
0.0,4.0,4.0,1,6.0,6.0,367.313861847,8.0,phase_2,stop,350.0,300.0,3.0,,,,,,,,,white,cross
0.0,8.0,4.0,0,5.0,5.0,467.80490875199996,8.0,phase_2,go,350.0,300.0,1.0,,,,,,,,,yellow,line
0.0,7.0,3.0,0,6.0,6.0,334.418058395,8.0,phase_2,go,350.0,300.0,1.0,,,,,,,,,magenta,triangle
0.0,7.0,3.0,0,6.0,6.0,467.688083649,8.0,phase_2,go,350.0,300.0,1.0,,,,,,,,,magenta,triangle
0.0,3.0,3.0,1,6.0,6.0,350.419998169,8.0,phase_2,stop,350.0,250.0,3.0,,,,,,,,,cyan,circle
0.0,4.0,4.0,1,6.0,6.0,734.5349788670001,8.0,phase_2,go,350.0,250.0,1.0,,,,,,,,,white,cross
0.0,5.0,1.0,0,5.0,5.0,868.02482605,8.0,phase_2,go,350.0,250.0,1.0,,,,,,,,,gray,square
0.0,6.0,2.0,1,5.0,0.0,,8.0,phase_2,stop,300.0,250.0,4.0,,,,,,,,,orange,flipped triangle
0.0,7.0,3.0,0,5.0,5.0,718.3310985569999,8.0,phase_2,go,300.0,250.0,1.0,,,,,,,,,magenta,triangle
0.0,5.0,1.0,0,6.0,6.0,500.62298774699997,8.0,phase_2,go,300.0,250.0,1.0,,,,,,,,,gray,square
0.0,1.0,1.0,1,5.0,5.0,417.61088371299996,8.0,phase_2,stop,350.0,250.0,3.0,,,,,,,,,blue,hexagon
0.0,5.0,1.0,0,6.0,6.0,617.44594574,8.0,phase_2,go,350.0,250.0,1.0,,,,,,,,,gray,square
0.0,4.0,4.0,1,6.0,0.0,,8.0,phase_2,stop,350.0,200.0,4.0,,,,,,,,,white,cross
0.0,1.0,1.0,1,5.0,5.0,718.0130481719999,8.0,phase_2,go,350.0,200.0,1.0,,,,,,,,,blue,hexagon
0.0,7.0,3.0,0,5.0,5.0,417.65904426599997,8.0,phase_2,go,350.0,200.0,1.0,,,,,,,,,magenta,triangle
0.0,5.0,1.0,0,6.0,6.0,600.8629798889999,8.0,phase_2,go,350.0,200.0,1.0,,,,,,,,,gray,square
0.0,6.0,2.0,1,5.0,0.0,,8.0,phase_2,go,350.0,200.0,5.0,,,,,,,,,orange,flipped triangle
0.0,7.0,3.0,0,6.0,6.0,351.001024246,8.0,phase_2,go,350.0,200.0,1.0,,,,,,,,,magenta,triangle
0.0,7.0,3.0,0,6.0,6.0,384.472131729,8.0,phase_2,go,350.0,200.0,1.0,,,,,,,,,magenta,triangle
0.0,1.0,1.0,1,6.0,6.0,350.805997849,8.0,phase_2,stop,350.0,250.0,3.0,,,,,,,,,blue,hexagon
0.0,2.0,2.0,0,6.0,6.0,350.836992264,8.0,phase_2,go,350.0,250.0,1.0,,,,,,,,,green,diamond
0.0,3.0,3.0,1,5.0,0.0,,8.0,phase_2,stop,300.0,250.0,4.0,,,,,,,,,cyan,circle
0.0,7.0,3.0,0,6.0,6.0,601.280927658,8.0,phase_2,go,300.0,250.0,1.0,,,,,,,,,magenta,triangle
0.0,1.0,1.0,1,5.0,0.0,,8.0,phase_2,stop,350.0,250.0,4.0,,,,,,,,,blue,hexagon
0.0,5.0,1.0,0,7.0,,,1.0,phase_3,,,,,0.0,,54.0,108.0,270.0,216.0,324.0,162.0,gray,square
0.0,5.0,1.0,0,7.0,2.0,2787.04285622,1.0,phase_3,,,,,234.0,6.0,39.0,234.0,195.0,78.0,156.0,117.0,gray,square
0.0,1.0,1.0,1,7.0,3.0,2570.02687454,1.0,phase_3,,,,,102.0,3.0,204.0,170.0,102.0,68.0,136.0,34.0,blue,hexagon
0.0,6.0,2.0,1,7.0,2.0,2119.36998367,1.0,phase_3,,,,,102.0,3.0,170.0,102.0,136.0,68.0,34.0,204.0,orange,flipped triangle
0.0,6.0,2.0,1,7.0,5.0,2336.1270427699997,1.0,phase_3,,,,,132.0,3.0,88.0,264.0,220.0,176.0,132.0,44.0,orange,flipped triangle
0.0,1.0,1.0,1,7.0,4.0,2002.2220611599998,1.0,phase_3,,,,,216.0,4.0,324.0,108.0,54.0,216.0,162.0,270.0,blue,hexagon
0.0,7.0,3.0,0,7.0,5.0,1568.63212585,1.0,phase_3,,,,,270.0,5.0,324.0,108.0,162.0,216.0,270.0,54.0,magenta,triangle
0.0,5.0,1.0,0,7.0,3.0,1351.40490532,1.0,phase_3,,,,,216.0,4.0,324.0,54.0,216.0,108.0,270.0,162.0,gray,square
0.0,8.0,4.0,0,7.0,3.0,2085.95609665,1.0,phase_3,,,,,195.0,5.0,156.0,39.0,195.0,117.0,78.0,234.0,yellow,line
0.0,7.0,3.0,0,7.0,4.0,2102.03409195,1.0,phase_3,,,,,117.0,3.0,156.0,234.0,78.0,117.0,39.0,195.0,magenta,triangle
0.0,7.0,3.0,0,7.0,4.0,901.011943817,1.0,phase_3,,,,,102.0,3.0,34.0,204.0,68.0,102.0,170.0,136.0,magenta,triangle
0.0,4.0,4.0,1,7.0,2.0,1518.9909935,1.0,phase_3,,,,,132.0,3.0,264.0,132.0,44.0,220.0,176.0,88.0,white,cross
0.0,1.0,1.0,1,7.0,4.0,1218.3740139000001,1.0,phase_3,,,,,220.0,5.0,264.0,88.0,44.0,220.0,176.0,132.0,blue,hexagon
0.0,3.0,3.0,1,7.0,4.0,1118.6649799299998,1.0,phase_3,,,,,196.0,4.0,294.0,49.0,98.0,196.0,147.0,245.0,cyan,circle
0.0,6.0,2.0,1,7.0,4.0,1034.42406654,1.0,phase_3,,,,,102.0,3.0,204.0,170.0,136.0,102.0,34.0,68.0,orange,flipped triangle
0.0,5.0,1.0,0,7.0,6.0,1752.23398209,1.0,phase_3,,,,,98.0,2.0,49.0,294.0,245.0,147.0,196.0,98.0,gray,square
0.0,3.0,3.0,1,7.0,1.0,2835.85214615,1.0,phase_3,,,,,162.0,3.0,162.0,324.0,108.0,270.0,54.0,216.0,cyan,circle
0.0,2.0,2.0,0,7.0,5.0,1568.76301765,1.0,phase_3,,,,,147.0,3.0,245.0,196.0,49.0,98.0,147.0,294.0,green,diamond
0.0,2.0,2.0,0,7.0,6.0,2136.15202904,1.0,phase_3,,,,,156.0,4.0,39.0,234.0,117.0,195.0,78.0,156.0,green,diamond
0.0,8.0,4.0,0,7.0,2.0,2369.93598938,1.0,phase_3,,,,,136.0,4.0,34.0,136.0,170.0,68.0,102.0,204.0,yellow,line
0.0,3.0,3.0,1,7.0,6.0,1418.51210594,2.0,phase_3,,,,,102.0,3.0,34.0,136.0,170.0,68.0,204.0,102.0,cyan,circle
0.0,4.0,4.0,1,7.0,2.0,1301.6078472099998,2.0,phase_3,,,,,49.0,1.0,147.0,49.0,98.0,196.0,294.0,245.0,white,cross
0.0,7.0,3.0,0,7.0,4.0,1902.45294571,2.0,phase_3,,,,,44.0,1.0,132.0,88.0,220.0,44.0,264.0,176.0,magenta,triangle
0.0,4.0,4.0,1,7.0,2.0,2236.37914658,2.0,phase_3,,,,,324.0,6.0,162.0,324.0,270.0,216.0,54.0,108.0,white,cross
0.0,6.0,2.0,1,7.0,6.0,2669.77000237,2.0,phase_3,,,,,132.0,3.0,88.0,44.0,220.0,176.0,264.0,132.0,orange,flipped triangle
0.0,8.0,4.0,0,7.0,3.0,2052.5221824600003,2.0,phase_3,,,,,49.0,1.0,98.0,147.0,49.0,245.0,196.0,294.0,yellow,line
0.0,2.0,2.0,0,7.0,1.0,2719.56086159,2.0,phase_3,,,,,216.0,4.0,216.0,108.0,162.0,270.0,54.0,324.0,green,diamond
0.0,7.0,3.0,0,7.0,6.0,1551.52893066,2.0,phase_3,,,,,132.0,3.0,44.0,176.0,88.0,220.0,264.0,132.0,magenta,triangle
0.0,6.0,2.0,1,7.0,6.0,1351.89390182,2.0,phase_3,,,,,162.0,3.0,216.0,108.0,54.0,324.0,270.0,162.0,orange,flipped triangle
0.0,8.0,4.0,0,7.0,4.0,1234.40504074,2.0,phase_3,,,,,220.0,5.0,88.0,264.0,132.0,220.0,44.0,176.0,yellow,line
0.0,5.0,1.0,0,7.0,5.0,1518.68700981,2.0,phase_3,,,,,132.0,3.0,88.0,220.0,264.0,44.0,132.0,176.0,gray,square
0.0,1.0,1.0,1,7.0,2.0,1418.72096062,2.0,phase_3,,,,,196.0,4.0,245.0,196.0,147.0,294.0,98.0,49.0,blue,hexagon
0.0,5.0,1.0,0,7.0,3.0,1835.50310135,2.0,phase_3,,,,,88.0,2.0,132.0,264.0,88.0,220.0,176.0,44.0,gray,square
0.0,7.0,3.0,0,7.0,4.0,1084.3980312299998,2.0,phase_3,,,,,195.0,5.0,78.0,234.0,39.0,195.0,117.0,156.0,magenta,triangle
0.0,3.0,3.0,1,7.0,5.0,1385.6210708600001,2.0,phase_3,,,,,162.0,3.0,54.0,108.0,324.0,270.0,162.0,216.0,cyan,circle
0.0,2.0,2.0,0,7.0,3.0,1151.87597275,2.0,phase_3,,,,,98.0,2.0,196.0,294.0,98.0,245.0,49.0,147.0,green,diamond
0.0,5.0,1.0,0,7.0,2.0,2269.0448761000002,2.0,phase_3,,,,,98.0,2.0,147.0,98.0,49.0,196.0,245.0,294.0,gray,square
0.0,4.0,4.0,1,7.0,4.0,1918.9119339000001,2.0,phase_3,,,,,216.0,4.0,270.0,324.0,162.0,216.0,108.0,54.0,white,cross
0.0,7.0,3.0,0,7.0,4.0,2285.69817543,2.0,phase_3,,,,,98.0,2.0,294.0,49.0,147.0,98.0,196.0,245.0,magenta,triangle
0.0,5.0,1.0,0,7.0,3.0,1518.12386513,2.0,phase_3,,,,,68.0,2.0,136.0,102.0,68.0,34.0,170.0,204.0,gray,square
0.0,1.0,1.0,1,7.0,4.0,1685.23812294,3.0,phase_3,,,,,220.0,5.0,44.0,176.0,88.0,220.0,132.0,264.0,blue,hexagon
0.0,7.0,3.0,0,7.0,4.0,1451.94506645,3.0,phase_3,,,,,196.0,4.0,294.0,147.0,49.0,196.0,245.0,98.0,magenta,triangle
0.0,7.0,3.0,0,7.0,4.0,784.382104874,3.0,phase_3,,,,,162.0,3.0,216.0,270.0,108.0,162.0,324.0,54.0,magenta,triangle
0.0,4.0,4.0,1,7.0,2.0,1718.8849449200002,3.0,phase_3,,,,,68.0,2.0,34.0,68.0,102.0,136.0,170.0,204.0,white,cross
0.0,8.0,4.0,0,7.0,3.0,1401.53598785,3.0,phase_3,,,,,54.0,1.0,324.0,108.0,54.0,162.0,270.0,216.0,yellow,line
0.0,6.0,2.0,1,7.0,4.0,1902.60601044,3.0,phase_3,,,,,39.0,1.0,195.0,234.0,117.0,39.0,156.0,78.0,orange,flipped triangle
0.0,3.0,3.0,1,7.0,3.0,2286.09013557,3.0,phase_3,,,,,78.0,2.0,234.0,117.0,78.0,39.0,156.0,195.0,cyan,circle
0.0,2.0,2.0,0,7.0,3.0,1335.1910114300001,3.0,phase_3,,,,,156.0,4.0,117.0,39.0,156.0,78.0,195.0,234.0,green,diamond
0.0,5.0,1.0,0,7.0,6.0,1218.47581863,3.0,phase_3,,,,,68.0,2.0,204.0,102.0,34.0,170.0,136.0,68.0,gray,square
0.0,6.0,2.0,1,7.0,1.0,1485.27884483,3.0,phase_3,,,,,196.0,4.0,196.0,147.0,49.0,245.0,98.0,294.0,orange,flipped triangle
0.0,2.0,2.0,0,7.0,4.0,951.297998428,3.0,phase_3,,,,,204.0,6.0,102.0,68.0,136.0,204.0,34.0,170.0,green,diamond
0.0,3.0,3.0,1,7.0,4.0,767.783880234,3.0,phase_3,,,,,117.0,3.0,195.0,78.0,156.0,117.0,234.0,39.0,cyan,circle
0.0,1.0,1.0,1,7.0,4.0,967.64087677,3.0,phase_3,,,,,270.0,5.0,162.0,324.0,54.0,270.0,216.0,108.0,blue,hexagon
0.0,8.0,4.0,0,7.0,5.0,1251.95813179,3.0,phase_3,,,,,245.0,5.0,49.0,147.0,196.0,294.0,245.0,98.0,yellow,line
0.0,3.0,3.0,1,7.0,3.0,1051.6240596799998,3.0,phase_3,,,,,102.0,3.0,34.0,68.0,102.0,170.0,204.0,136.0,cyan,circle
0.0,2.0,2.0,0,7.0,4.0,1100.88992119,3.0,phase_3,,,,,162.0,3.0,324.0,216.0,108.0,162.0,54.0,270.0,green,diamond
0.0,6.0,2.0,1,7.0,4.0,951.683998108,3.0,phase_3,,,,,195.0,5.0,234.0,78.0,117.0,195.0,39.0,156.0,orange,flipped triangle
0.0,6.0,2.0,1,7.0,5.0,1151.48210526,3.0,phase_3,,,,,98.0,2.0,294.0,245.0,196.0,49.0,98.0,147.0,orange,flipped triangle
0.0,1.0,1.0,1,7.0,3.0,1168.58696938,3.0,phase_3,,,,,195.0,5.0,117.0,78.0,195.0,234.0,156.0,39.0,blue,hexagon
0.0,4.0,4.0,1,7.0,3.0,1868.84999275,3.0,phase_3,,,,,147.0,3.0,98.0,294.0,147.0,196.0,49.0,245.0,white,cross
0.0,1.0,1.0,1,7.0,5.0,1702.44193077,4.0,phase_3,,,,,245.0,5.0,147.0,98.0,294.0,49.0,245.0,196.0,blue,hexagon
0.0,4.0,4.0,1,7.0,2.0,1351.23896599,4.0,phase_3,,,,,220.0,5.0,44.0,220.0,132.0,88.0,176.0,264.0,white,cross
0.0,8.0,4.0,0,7.0,3.0,1135.5509758,4.0,phase_3,,,,,78.0,2.0,156.0,39.0,78.0,195.0,234.0,117.0,yellow,line
0.0,6.0,2.0,1,7.0,6.0,1868.80207062,4.0,phase_3,,,,,108.0,2.0,324.0,270.0,162.0,54.0,216.0,108.0,orange,flipped triangle
0.0,4.0,4.0,1,7.0,3.0,1235.21494865,4.0,phase_3,,,,,234.0,6.0,117.0,156.0,234.0,195.0,78.0,39.0,white,cross
0.0,3.0,3.0,1,7.0,3.0,1084.91396904,4.0,phase_3,,,,,132.0,3.0,220.0,44.0,132.0,264.0,88.0,176.0,cyan,circle
0.0,1.0,1.0,1,7.0,4.0,634.7169876099999,4.0,phase_3,,,,,117.0,3.0,234.0,39.0,78.0,117.0,156.0,195.0,blue,hexagon
0.0,5.0,1.0,0,7.0,5.0,1218.36400032,4.0,phase_3,,,,,156.0,4.0,234.0,117.0,78.0,195.0,156.0,39.0,gray,square
0.0,7.0,3.0,0,7.0,3.0,984.498977661,4.0,phase_3,,,,,136.0,4.0,204.0,102.0,136.0,170.0,34.0,68.0,magenta,triangle
0.0,4.0,4.0,1,7.0,4.0,834.275960922,4.0,phase_3,,,,,204.0,6.0,102.0,136.0,34.0,204.0,68.0,170.0,white,cross
0.0,2.0,2.0,0,7.0,5.0,918.117046356,4.0,phase_3,,,,,88.0,2.0,220.0,132.0,44.0,264.0,88.0,176.0,green,diamond
0.0,8.0,4.0,0,7.0,2.0,1151.56507492,4.0,phase_3,,,,,132.0,3.0,44.0,132.0,88.0,264.0,176.0,220.0,yellow,line
0.0,8.0,4.0,0,7.0,3.0,2169.44384575,4.0,phase_3,,,,,54.0,1.0,216.0,162.0,54.0,108.0,324.0,270.0,yellow,line
0.0,3.0,3.0,1,7.0,6.0,2469.73204613,4.0,phase_3,,,,,264.0,6.0,220.0,88.0,176.0,44.0,132.0,264.0,cyan,circle
0.0,4.0,4.0,1,7.0,3.0,1017.53401756,4.0,phase_3,,,,,117.0,3.0,78.0,234.0,117.0,39.0,156.0,195.0,white,cross
0.0,8.0,4.0,0,7.0,3.0,1150.98309517,4.0,phase_3,,,,,68.0,2.0,204.0,102.0,68.0,170.0,34.0,136.0,yellow,line
0.0,1.0,1.0,1,7.0,4.0,967.2281742099999,4.0,phase_3,,,,,136.0,4.0,170.0,204.0,102.0,136.0,34.0,68.0,blue,hexagon
0.0,2.0,2.0,0,7.0,3.0,1018.46909523,4.0,phase_3,,,,,176.0,4.0,264.0,220.0,176.0,44.0,88.0,132.0,green,diamond
0.0,3.0,3.0,1,7.0,5.0,935.310125351,4.0,phase_3,,,,,196.0,4.0,49.0,98.0,245.0,294.0,196.0,147.0,cyan,circle
0.0,2.0,2.0,0,7.0,3.0,968.04690361,4.0,phase_3,,,,,102.0,3.0,204.0,68.0,102.0,170.0,34.0,136.0,green,diamond
