stepwise_reward_magnitude,paired_with_stopping,quadrant,response,reaction_time,block,which_part,stop_signal_trial_type,left_SSD,right_SSD,accuracy,chosen_bidding_amount,chosen_bidding_level,possible_bid_1,possible_bid_2,possible_bid_3,possible_bid_4,possible_bid_5,possible_bid_6,color_text,shape_text
2.0,0,1.0,1.0,417.58608818100004,1.0,part_1,,,,,,,,,,,,,magenta,triangle
1.0,0,4.0,4.0,317.608118057,1.0,part_1,,,,,,,,,,,,,green,flipped triangle
1.0,0,3.0,3.0,351.448059082,1.0,part_1,,,,,,,,,,,,,green,flipped triangle
1.0,1,4.0,4.0,317.32797622699997,1.0,part_1,,,,,,,,,,,,,orange,circle
0.5,0,2.0,2.0,350.74090957600004,1.0,part_1,,,,,,,,,,,,,cyan,hexagon
4.0,1,2.0,2.0,351.045846939,1.0,part_1,,,,,,,,,,,,,blue,cross
4.0,0,3.0,3.0,317.80004501300004,1.0,part_1,,,,,,,,,,,,,white,square
0.5,1,3.0,3.0,317.276954651,1.0,part_1,,,,,,,,,,,,,yellow,diamond
0.5,0,1.0,1.0,366.991996765,1.0,part_1,,,,,,,,,,,,,cyan,hexagon
4.0,1,1.0,1.0,367.54012107799997,1.0,part_1,,,,,,,,,,,,,blue,cross
1.0,1,3.0,3.0,333.695888519,1.0,part_1,,,,,,,,,,,,,orange,circle
2.0,0,1.0,1.0,350.74782371500004,1.0,part_1,,,,,,,,,,,,,magenta,triangle
0.5,0,2.0,2.0,301.225185394,1.0,part_1,,,,,,,,,,,,,cyan,hexagon
1.0,0,4.0,4.0,283.969163895,1.0,part_1,,,,,,,,,,,,,green,flipped triangle
2.0,1,4.0,4.0,333.944797516,1.0,part_1,,,,,,,,,,,,,gray,line
1.0,1,1.0,1.0,317.24810600300003,1.0,part_1,,,,,,,,,,,,,orange,circle
0.5,0,4.0,4.0,301.025867462,1.0,part_1,,,,,,,,,,,,,cyan,hexagon
2.0,1,4.0,4.0,301.004171371,1.0,part_1,,,,,,,,,,,,,gray,line
2.0,1,2.0,2.0,317.564964294,1.0,part_1,,,,,,,,,,,,,gray,line
2.0,0,3.0,3.0,300.68898201,1.0,part_1,,,,,,,,,,,,,magenta,triangle
0.5,0,1.0,1.0,301.012992859,1.0,part_1,,,,,,,,,,,,,cyan,hexagon
2.0,1,1.0,1.0,401.530981064,1.0,part_1,,,,,,,,,,,,,gray,line
4.0,0,3.0,3.0,317.508935928,1.0,part_1,,,,,,,,,,,,,white,square
2.0,1,4.0,4.0,317.16203689599996,1.0,part_1,,,,,,,,,,,,,gray,line
4.0,1,2.0,2.0,317.543029785,1.0,part_1,,,,,,,,,,,,,blue,cross
0.5,1,3.0,3.0,317.455053329,1.0,part_1,,,,,,,,,,,,,yellow,diamond
1.0,1,3.0,3.0,367.835044861,1.0,part_1,,,,,,,,,,,,,orange,circle
2.0,1,3.0,3.0,334.362030029,1.0,part_1,,,,,,,,,,,,,gray,line
4.0,1,2.0,2.0,284.455060959,1.0,part_1,,,,,,,,,,,,,blue,cross
0.5,1,4.0,4.0,400.96616745,1.0,part_1,,,,,,,,,,,,,yellow,diamond
4.0,0,1.0,1.0,334.24115181,1.0,part_1,,,,,,,,,,,,,white,square
0.5,0,1.0,1.0,334.19013023400004,1.0,part_1,,,,,,,,,,,,,cyan,hexagon
2.0,1,3.0,3.0,284.085035324,1.0,part_1,,,,,,,,,,,,,gray,line
0.5,0,4.0,4.0,300.718069077,1.0,part_1,,,,,,,,,,,,,cyan,hexagon
1.0,1,3.0,3.0,300.46582222,1.0,part_1,,,,,,,,,,,,,orange,circle
2.0,1,4.0,4.0,333.899021149,1.0,part_1,,,,,,,,,,,,,gray,line
0.5,0,3.0,3.0,334.34486389200003,1.0,part_1,,,,,,,,,,,,,cyan,hexagon
2.0,0,4.0,4.0,334.21111106899997,1.0,part_1,,,,,,,,,,,,,magenta,triangle
4.0,0,2.0,2.0,384.14001464800003,1.0,part_1,,,,,,,,,,,,,white,square
1.0,0,2.0,2.0,350.550889969,1.0,part_1,,,,,,,,,,,,,green,flipped triangle
4.0,0,4.0,4.0,350.838899612,1.0,part_1,,,,,,,,,,,,,white,square
0.5,0,2.0,2.0,317.565917969,1.0,part_1,,,,,,,,,,,,,cyan,hexagon
4.0,1,1.0,1.0,384.895086288,1.0,part_1,,,,,,,,,,,,,blue,cross
2.0,1,3.0,3.0,334.234952927,1.0,part_1,,,,,,,,,,,,,gray,line
4.0,0,3.0,3.0,384.423017502,1.0,part_1,,,,,,,,,,,,,white,square
2.0,1,2.0,2.0,350.776195526,1.0,part_1,,,,,,,,,,,,,gray,line
2.0,0,2.0,2.0,317.979097366,1.0,part_1,,,,,,,,,,,,,magenta,triangle
4.0,1,2.0,2.0,334.17892456100003,1.0,part_1,,,,,,,,,,,,,blue,cross
0.5,0,3.0,3.0,284.04784202599996,1.0,part_1,,,,,,,,,,,,,cyan,hexagon
1.0,0,3.0,3.0,350.79407691999995,1.0,part_1,,,,,,,,,,,,,green,flipped triangle
2.0,0,2.0,2.0,300.89807510400004,1.0,part_1,,,,,,,,,,,,,magenta,triangle
0.5,1,4.0,4.0,334.372997284,1.0,part_1,,,,,,,,,,,,,yellow,diamond
4.0,1,3.0,3.0,317.82317161599997,1.0,part_1,,,,,,,,,,,,,blue,cross
0.5,1,4.0,4.0,367.725133896,1.0,part_1,,,,,,,,,,,,,yellow,diamond
4.0,1,1.0,1.0,350.25906562800003,1.0,part_1,,,,,,,,,,,,,blue,cross
4.0,0,4.0,4.0,334.21492576599996,1.0,part_1,,,,,,,,,,,,,white,square
4.0,0,2.0,2.0,351.326942444,1.0,part_1,,,,,,,,,,,,,white,square
1.0,0,1.0,1.0,283.764839172,1.0,part_1,,,,,,,,,,,,,green,flipped triangle
0.5,0,2.0,2.0,384.283065796,1.0,part_1,,,,,,,,,,,,,cyan,hexagon
1.0,0,1.0,1.0,317.698955536,1.0,part_1,,,,,,,,,,,,,green,flipped triangle
0.5,1,3.0,3.0,300.604104996,1.0,part_1,,,,,,,,,,,,,yellow,diamond
0.5,1,4.0,4.0,317.398071289,1.0,part_1,,,,,,,,,,,,,yellow,diamond
2.0,1,3.0,3.0,350.641965866,1.0,part_1,,,,,,,,,,,,,gray,line
4.0,1,1.0,1.0,384.55915451,1.0,part_1,,,,,,,,,,,,,blue,cross
4.0,0,1.0,1.0,350.93998909000004,1.0,part_1,,,,,,,,,,,,,white,square
2.0,1,1.0,1.0,417.094945908,1.0,part_1,,,,,,,,,,,,,gray,line
0.5,0,2.0,2.0,350.876092911,1.0,part_1,,,,,,,,,,,,,cyan,hexagon
0.5,1,2.0,2.0,384.323835373,1.0,part_1,,,,,,,,,,,,,yellow,diamond
0.5,1,2.0,2.0,367.604017258,1.0,part_1,,,,,,,,,,,,,yellow,diamond
1.0,1,2.0,2.0,367.587089539,1.0,part_1,,,,,,,,,,,,,orange,circle
4.0,0,1.0,1.0,333.759069443,1.0,part_1,,,,,,,,,,,,,white,square
0.5,0,4.0,4.0,300.357818604,1.0,part_1,,,,,,,,,,,,,cyan,hexagon
4.0,0,1.0,1.0,300.61388015700004,1.0,part_1,,,,,,,,,,,,,white,square
4.0,1,4.0,4.0,317.342042923,1.0,part_1,,,,,,,,,,,,,blue,cross
0.5,0,3.0,3.0,283.734083176,1.0,part_1,,,,,,,,,,,,,cyan,hexagon
0.5,0,1.0,1.0,300.646066666,1.0,part_1,,,,,,,,,,,,,cyan,hexagon
2.0,1,2.0,2.0,416.76807403600003,1.0,part_1,,,,,,,,,,,,,gray,line
2.0,0,3.0,3.0,334.33699607799997,1.0,part_1,,,,,,,,,,,,,magenta,triangle
1.0,1,2.0,2.0,334.090948105,1.0,part_1,,,,,,,,,,,,,orange,circle
2.0,1,4.0,4.0,334.14912223799996,1.0,part_1,,,,,,,,,,,,,gray,line
1.0,1,3.0,3.0,284.05380249,1.0,part_1,,,,,,,,,,,,,orange,circle
2.0,1,1.0,1.0,283.933877945,1.0,part_1,,,,,,,,,,,,,gray,line
0.5,1,4.0,4.0,350.717067719,1.0,part_1,,,,,,,,,,,,,yellow,diamond
1.0,1,4.0,4.0,334.163188934,1.0,part_1,,,,,,,,,,,,,orange,circle
2.0,1,2.0,2.0,367.469787598,1.0,part_1,,,,,,,,,,,,,gray,line
0.5,0,4.0,4.0,418.318986893,1.0,part_1,,,,,,,,,,,,,cyan,hexagon
0.5,1,3.0,3.0,300.88019371,1.0,part_1,,,,,,,,,,,,,yellow,diamond
2.0,0,1.0,1.0,284.10720825199996,1.0,part_1,,,,,,,,,,,,,magenta,triangle
2.0,1,1.0,1.0,285.034894943,1.0,part_1,,,,,,,,,,,,,gray,line
4.0,1,2.0,2.0,367.43998527499997,1.0,part_1,,,,,,,,,,,,,blue,cross
2.0,1,1.0,1.0,334.12694931,1.0,part_1,,,,,,,,,,,,,gray,line
0.5,1,3.0,3.0,300.512075424,1.0,part_1,,,,,,,,,,,,,yellow,diamond
4.0,0,4.0,4.0,384.14812088,1.0,part_1,,,,,,,,,,,,,white,square
2.0,1,2.0,2.0,350.771903992,1.0,part_1,,,,,,,,,,,,,gray,line
2.0,1,1.0,1.0,350.71182251,1.0,part_1,,,,,,,,,,,,,gray,line
0.5,1,1.0,1.0,334.384918213,1.0,part_1,,,,,,,,,,,,,yellow,diamond
1.0,0,4.0,4.0,601.878166199,1.0,part_1,,,,,,,,,,,,,green,flipped triangle
2.0,0,2.0,2.0,317.442893982,1.0,part_1,,,,,,,,,,,,,magenta,triangle
4.0,1,3.0,3.0,301.407814026,1.0,part_1,,,,,,,,,,,,,blue,cross
2.0,1,4.0,4.0,317.347049713,1.0,part_1,,,,,,,,,,,,,gray,line
2.0,1,4.0,4.0,417.397022247,2.0,part_1,,,,,,,,,,,,,gray,line
2.0,1,4.0,4.0,551.113843918,2.0,part_1,,,,,,,,,,,,,gray,line
4.0,1,2.0,2.0,334.112882614,2.0,part_1,,,,,,,,,,,,,blue,cross
1.0,1,1.0,1.0,317.610025406,2.0,part_1,,,,,,,,,,,,,orange,circle
1.0,0,4.0,4.0,333.73188972500003,2.0,part_1,,,,,,,,,,,,,green,flipped triangle
0.5,1,3.0,3.0,267.298936844,2.0,part_1,,,,,,,,,,,,,yellow,diamond
4.0,0,2.0,2.0,300.47583579999997,2.0,part_1,,,,,,,,,,,,,white,square
2.0,0,2.0,2.0,300.828933716,2.0,part_1,,,,,,,,,,,,,magenta,triangle
2.0,0,2.0,2.0,702.038049698,2.0,part_1,,,,,,,,,,,,,magenta,triangle
2.0,1,2.0,2.0,317.27313995400004,2.0,part_1,,,,,,,,,,,,,gray,line
0.5,1,2.0,2.0,400.722980499,2.0,part_1,,,,,,,,,,,,,yellow,diamond
4.0,0,1.0,1.0,334.27810668899997,2.0,part_1,,,,,,,,,,,,,white,square
0.5,0,4.0,4.0,317.43311882,2.0,part_1,,,,,,,,,,,,,cyan,hexagon
2.0,1,1.0,1.0,334.218025208,2.0,part_1,,,,,,,,,,,,,gray,line
4.0,1,3.0,3.0,334.09285545299997,2.0,part_1,,,,,,,,,,,,,blue,cross
4.0,0,2.0,2.0,334.3770504,2.0,part_1,,,,,,,,,,,,,white,square
4.0,0,2.0,2.0,351.013898849,2.0,part_1,,,,,,,,,,,,,white,square
2.0,0,3.0,3.0,334.098815918,2.0,part_1,,,,,,,,,,,,,magenta,triangle
0.5,0,1.0,1.0,283.77819061300005,2.0,part_1,,,,,,,,,,,,,cyan,hexagon
2.0,1,4.0,4.0,350.692033768,2.0,part_1,,,,,,,,,,,,,gray,line
4.0,0,3.0,3.0,300.675153732,2.0,part_1,,,,,,,,,,,,,white,square
1.0,1,3.0,3.0,317.713975906,2.0,part_1,,,,,,,,,,,,,orange,circle
0.5,0,2.0,2.0,333.56714248699996,2.0,part_1,,,,,,,,,,,,,cyan,hexagon
0.5,1,3.0,3.0,283.854961395,2.0,part_1,,,,,,,,,,,,,yellow,diamond
0.5,0,4.0,4.0,300.936937332,2.0,part_1,,,,,,,,,,,,,cyan,hexagon
1.0,0,4.0,4.0,333.98604393,2.0,part_1,,,,,,,,,,,,,green,flipped triangle
4.0,1,1.0,1.0,334.226846695,2.0,part_1,,,,,,,,,,,,,blue,cross
2.0,1,1.0,1.0,317.316055298,2.0,part_1,,,,,,,,,,,,,gray,line
2.0,1,1.0,1.0,317.163944244,2.0,part_1,,,,,,,,,,,,,gray,line
2.0,1,3.0,3.0,317.682027817,2.0,part_1,,,,,,,,,,,,,gray,line
0.5,0,4.0,4.0,334.16986465499997,2.0,part_1,,,,,,,,,,,,,cyan,hexagon
0.5,1,2.0,2.0,334.626913071,2.0,part_1,,,,,,,,,,,,,yellow,diamond
1.0,0,3.0,3.0,267.668962479,2.0,part_1,,,,,,,,,,,,,green,flipped triangle
0.5,0,1.0,1.0,283.893108368,2.0,part_1,,,,,,,,,,,,,cyan,hexagon
4.0,1,4.0,4.0,317.215919495,2.0,part_1,,,,,,,,,,,,,blue,cross
2.0,0,3.0,3.0,351.112127304,2.0,part_1,,,,,,,,,,,,,magenta,triangle
4.0,0,3.0,3.0,484.832048416,2.0,part_1,,,,,,,,,,,,,white,square
2.0,0,3.0,3.0,350.836992264,2.0,part_1,,,,,,,,,,,,,magenta,triangle
2.0,0,3.0,3.0,317.591905594,2.0,part_1,,,,,,,,,,,,,magenta,triangle
0.5,1,3.0,3.0,334.2628479,2.0,part_1,,,,,,,,,,,,,yellow,diamond
4.0,1,4.0,4.0,334.021091461,2.0,part_1,,,,,,,,,,,,,blue,cross
4.0,0,4.0,4.0,317.38996505700004,2.0,part_1,,,,,,,,,,,,,white,square
2.0,1,3.0,3.0,334.316968918,2.0,part_1,,,,,,,,,,,,,gray,line
0.5,0,1.0,1.0,434.48805809000004,2.0,part_1,,,,,,,,,,,,,cyan,hexagon
0.5,1,3.0,3.0,400.89488029499995,2.0,part_1,,,,,,,,,,,,,yellow,diamond
2.0,0,4.0,4.0,367.578983307,2.0,part_1,,,,,,,,,,,,,magenta,triangle
0.5,0,1.0,1.0,334.188938141,2.0,part_1,,,,,,,,,,,,,cyan,hexagon
2.0,1,1.0,1.0,300.720930099,2.0,part_1,,,,,,,,,,,,,gray,line
4.0,1,2.0,2.0,350.766897202,2.0,part_1,,,,,,,,,,,,,blue,cross
0.5,1,2.0,2.0,334.408998489,2.0,part_1,,,,,,,,,,,,,yellow,diamond
1.0,1,3.0,3.0,317.607164383,2.0,part_1,,,,,,,,,,,,,orange,circle
0.5,0,1.0,1.0,267.66991615300003,2.0,part_1,,,,,,,,,,,,,cyan,hexagon
1.0,0,4.0,4.0,334.010839462,2.0,part_1,,,,,,,,,,,,,green,flipped triangle
0.5,0,3.0,3.0,351.15814209,2.0,part_1,,,,,,,,,,,,,cyan,hexagon
1.0,0,4.0,4.0,334.039926529,2.0,part_1,,,,,,,,,,,,,green,flipped triangle
2.0,1,1.0,1.0,284.150123596,2.0,part_1,,,,,,,,,,,,,gray,line
1.0,1,2.0,2.0,384.23705101,2.0,part_1,,,,,,,,,,,,,orange,circle
0.5,0,3.0,3.0,317.557096481,2.0,part_1,,,,,,,,,,,,,cyan,hexagon
0.5,1,1.0,1.0,417.6030159,2.0,part_1,,,,,,,,,,,,,yellow,diamond
0.5,1,4.0,4.0,267.524957657,2.0,part_1,,,,,,,,,,,,,yellow,diamond
1.0,1,2.0,2.0,434.139966965,2.0,part_1,,,,,,,,,,,,,orange,circle
2.0,1,1.0,1.0,401.01981163,2.0,part_1,,,,,,,,,,,,,gray,line
1.0,0,4.0,4.0,350.7168293,2.0,part_1,,,,,,,,,,,,,green,flipped triangle
1.0,1,1.0,1.0,300.82011222799997,2.0,part_1,,,,,,,,,,,,,orange,circle
0.5,0,2.0,2.0,534.465074539,2.0,part_1,,,,,,,,,,,,,cyan,hexagon
0.5,1,3.0,3.0,300.811052322,2.0,part_1,,,,,,,,,,,,,yellow,diamond
0.5,0,2.0,2.0,501.26004219099997,2.0,part_1,,,,,,,,,,,,,cyan,hexagon
4.0,1,3.0,3.0,334.34605598400003,2.0,part_1,,,,,,,,,,,,,blue,cross
4.0,1,1.0,1.0,333.674907684,2.0,part_1,,,,,,,,,,,,,blue,cross
2.0,0,3.0,3.0,334.445953369,2.0,part_1,,,,,,,,,,,,,magenta,triangle
2.0,1,4.0,4.0,334.222793579,2.0,part_1,,,,,,,,,,,,,gray,line
2.0,0,4.0,4.0,584.531068802,2.0,part_1,,,,,,,,,,,,,magenta,triangle
4.0,1,2.0,2.0,517.9469585420001,2.0,part_1,,,,,,,,,,,,,blue,cross
2.0,0,1.0,1.0,334.292888641,2.0,part_1,,,,,,,,,,,,,magenta,triangle
1.0,0,2.0,2.0,801.4080524440001,2.0,part_1,,,,,,,,,,,,,green,flipped triangle
1.0,1,4.0,4.0,417.67501831100003,2.0,part_1,,,,,,,,,,,,,orange,circle
4.0,1,4.0,4.0,384.06610488900003,2.0,part_1,,,,,,,,,,,,,blue,cross
1.0,0,2.0,2.0,467.44799614,2.0,part_1,,,,,,,,,,,,,green,flipped triangle
0.5,0,1.0,1.0,317.853927612,2.0,part_1,,,,,,,,,,,,,cyan,hexagon
0.5,0,3.0,3.0,350.843191147,2.0,part_1,,,,,,,,,,,,,cyan,hexagon
4.0,1,1.0,1.0,433.76493453999996,2.0,part_1,,,,,,,,,,,,,blue,cross
1.0,1,2.0,2.0,367.650032043,2.0,part_1,,,,,,,,,,,,,orange,circle
4.0,0,3.0,3.0,334.003925323,2.0,part_1,,,,,,,,,,,,,white,square
2.0,0,2.0,2.0,367.45500564599996,2.0,part_1,,,,,,,,,,,,,magenta,triangle
1.0,1,2.0,2.0,367.980003357,2.0,part_1,,,,,,,,,,,,,orange,circle
2.0,1,3.0,3.0,384.347915649,2.0,part_1,,,,,,,,,,,,,gray,line
2.0,1,1.0,1.0,434.373855591,2.0,part_1,,,,,,,,,,,,,gray,line
0.5,0,1.0,1.0,367.92016029399997,2.0,part_1,,,,,,,,,,,,,cyan,hexagon
0.5,1,4.0,4.0,484.518051147,2.0,part_1,,,,,,,,,,,,,yellow,diamond
0.5,1,1.0,1.0,417.701005936,2.0,part_1,,,,,,,,,,,,,yellow,diamond
2.0,0,4.0,4.0,434.13496017499995,2.0,part_1,,,,,,,,,,,,,magenta,triangle
4.0,1,2.0,2.0,384.306907654,2.0,part_1,,,,,,,,,,,,,blue,cross
0.5,1,4.0,4.0,300.80890655499996,2.0,part_1,,,,,,,,,,,,,yellow,diamond
1.0,1,1.0,1.0,467.486858368,2.0,part_1,,,,,,,,,,,,,orange,circle
1.0,0,1.0,1.0,484.878063202,2.0,part_1,,,,,,,,,,,,,green,flipped triangle
1.0,1,2.0,2.0,500.890016556,2.0,part_1,,,,,,,,,,,,,orange,circle
4.0,1,2.0,2.0,434.20505523699995,2.0,part_1,,,,,,,,,,,,,blue,cross
4.0,0,4.0,4.0,417.65213012699996,2.0,part_1,,,,,,,,,,,,,white,square
4.0,1,3.0,3.0,450.95109939599996,2.0,part_1,,,,,,,,,,,,,blue,cross
0.5,1,4.0,4.0,350.900173187,2.0,part_1,,,,,,,,,,,,,yellow,diamond
1.0,0,2.0,2.0,718.101024628,3.0,part_1,,,,,,,,,,,,,green,flipped triangle
1.0,1,4.0,4.0,400.76780319200003,3.0,part_1,,,,,,,,,,,,,orange,circle
0.5,0,3.0,3.0,383.77404213,3.0,part_1,,,,,,,,,,,,,cyan,hexagon
4.0,0,4.0,4.0,467.64302253700004,3.0,part_1,,,,,,,,,,,,,white,square
2.0,0,2.0,2.0,350.836038589,3.0,part_1,,,,,,,,,,,,,magenta,triangle
4.0,1,4.0,4.0,467.76413917499997,3.0,part_1,,,,,,,,,,,,,blue,cross
2.0,0,4.0,4.0,400.642871857,3.0,part_1,,,,,,,,,,,,,magenta,triangle
1.0,1,3.0,3.0,367.817878723,3.0,part_1,,,,,,,,,,,,,orange,circle
2.0,0,4.0,4.0,350.980997086,3.0,part_1,,,,,,,,,,,,,magenta,triangle
1.0,1,1.0,1.0,350.848913193,3.0,part_1,,,,,,,,,,,,,orange,circle
1.0,0,1.0,1.0,368.176937103,3.0,part_1,,,,,,,,,,,,,green,flipped triangle
1.0,0,2.0,2.0,334.68198776199995,3.0,part_1,,,,,,,,,,,,,green,flipped triangle
4.0,1,4.0,4.0,401.000976562,3.0,part_1,,,,,,,,,,,,,blue,cross
2.0,0,3.0,3.0,384.032011032,3.0,part_1,,,,,,,,,,,,,magenta,triangle
2.0,1,1.0,1.0,434.34214591999995,3.0,part_1,,,,,,,,,,,,,gray,line
4.0,0,1.0,1.0,367.553949356,3.0,part_1,,,,,,,,,,,,,white,square
0.5,0,4.0,4.0,350.82101821900005,3.0,part_1,,,,,,,,,,,,,cyan,hexagon
1.0,0,4.0,4.0,417.58108139,3.0,part_1,,,,,,,,,,,,,green,flipped triangle
4.0,0,2.0,2.0,400.91300010699996,3.0,part_1,,,,,,,,,,,,,white,square
2.0,0,1.0,1.0,317.581892014,3.0,part_1,,,,,,,,,,,,,magenta,triangle
1.0,0,3.0,3.0,367.85817146299996,3.0,part_1,,,,,,,,,,,,,green,flipped triangle
1.0,0,4.0,4.0,450.768947601,3.0,part_1,,,,,,,,,,,,,green,flipped triangle
4.0,0,3.0,3.0,618.468046188,3.0,part_1,,,,,,,,,,,,,white,square
1.0,1,2.0,2.0,417.406082153,3.0,part_1,,,,,,,,,,,,,orange,circle
0.5,1,4.0,4.0,466.75992012,3.0,part_1,,,,,,,,,,,,,yellow,diamond
2.0,1,2.0,2.0,434.67092514,3.0,part_1,,,,,,,,,,,,,gray,line
1.0,1,3.0,3.0,367.223978043,3.0,part_1,,,,,,,,,,,,,orange,circle
0.5,1,3.0,3.0,384.627819061,3.0,part_1,,,,,,,,,,,,,yellow,diamond
4.0,1,3.0,3.0,401.077032089,3.0,part_1,,,,,,,,,,,,,blue,cross
4.0,1,2.0,2.0,401.525974274,3.0,part_1,,,,,,,,,,,,,blue,cross
4.0,0,3.0,3.0,367.474079132,3.0,part_1,,,,,,,,,,,,,white,square
1.0,1,1.0,1.0,401.216983795,3.0,part_1,,,,,,,,,,,,,orange,circle
1.0,0,1.0,1.0,467.767000198,3.0,part_1,,,,,,,,,,,,,green,flipped triangle
4.0,1,2.0,2.0,350.635051727,3.0,part_1,,,,,,,,,,,,,blue,cross
1.0,1,3.0,3.0,383.83007049599996,3.0,part_1,,,,,,,,,,,,,orange,circle
4.0,1,4.0,4.0,334.527015686,3.0,part_1,,,,,,,,,,,,,blue,cross
2.0,0,4.0,4.0,200.558900833,3.0,part_1,,,,,,,,,,,,,magenta,triangle
2.0,1,4.0,4.0,434.592008591,3.0,part_1,,,,,,,,,,,,,gray,line
4.0,0,2.0,2.0,417.461872101,3.0,part_1,,,,,,,,,,,,,white,square
1.0,0,1.0,1.0,383.967876434,3.0,part_1,,,,,,,,,,,,,green,flipped triangle
0.5,0,4.0,4.0,367.579221725,3.0,part_1,,,,,,,,,,,,,cyan,hexagon
2.0,0,3.0,3.0,451.014995575,3.0,part_1,,,,,,,,,,,,,magenta,triangle
4.0,0,1.0,1.0,534.1000556949999,3.0,part_1,,,,,,,,,,,,,white,square
1.0,0,3.0,3.0,351.39083862300004,3.0,part_1,,,,,,,,,,,,,green,flipped triangle
1.0,1,2.0,2.0,417.33789444,3.0,part_1,,,,,,,,,,,,,orange,circle
1.0,0,4.0,4.0,418.359994888,3.0,part_1,,,,,,,,,,,,,green,flipped triangle
2.0,0,2.0,2.0,400.69103241,3.0,part_1,,,,,,,,,,,,,magenta,triangle
4.0,0,3.0,3.0,650.8970260619999,3.0,part_1,,,,,,,,,,,,,white,square
1.0,1,3.0,3.0,400.980949402,3.0,part_1,,,,,,,,,,,,,orange,circle
2.0,0,3.0,3.0,350.72088241600005,3.0,part_1,,,,,,,,,,,,,magenta,triangle
1.0,1,2.0,2.0,367.77806281999995,3.0,part_1,,,,,,,,,,,,,orange,circle
4.0,0,2.0,2.0,318.032026291,3.0,part_1,,,,,,,,,,,,,white,square
4.0,1,2.0,2.0,384.968996048,3.0,part_1,,,,,,,,,,,,,blue,cross
2.0,1,1.0,1.0,501.064062119,3.0,part_1,,,,,,,,,,,,,gray,line
2.0,0,1.0,1.0,434.09109115599995,3.0,part_1,,,,,,,,,,,,,magenta,triangle
2.0,1,1.0,1.0,501.121997833,3.0,part_1,,,,,,,,,,,,,gray,line
1.0,1,3.0,3.0,450.725793839,3.0,part_1,,,,,,,,,,,,,orange,circle
4.0,0,1.0,1.0,585.099935532,3.0,part_1,,,,,,,,,,,,,white,square
4.0,1,4.0,4.0,567.5899982450001,3.0,part_1,,,,,,,,,,,,,blue,cross
2.0,1,3.0,3.0,567.170143127,3.0,part_1,,,,,,,,,,,,,gray,line
2.0,1,1.0,1.0,534.352064133,3.0,part_1,,,,,,,,,,,,,gray,line
1.0,1,3.0,3.0,517.356872559,3.0,part_1,,,,,,,,,,,,,orange,circle
1.0,0,2.0,2.0,434.005022049,3.0,part_1,,,,,,,,,,,,,green,flipped triangle
0.5,0,2.0,2.0,401.22604370100004,3.0,part_1,,,,,,,,,,,,,cyan,hexagon
1.0,1,1.0,1.0,367.54798889200003,3.0,part_1,,,,,,,,,,,,,orange,circle
1.0,0,2.0,2.0,384.58704948400003,3.0,part_1,,,,,,,,,,,,,green,flipped triangle
1.0,1,1.0,1.0,901.8871784209999,3.0,part_1,,,,,,,,,,,,,orange,circle
4.0,1,3.0,3.0,467.764854431,3.0,part_1,,,,,,,,,,,,,blue,cross
2.0,0,3.0,3.0,434.293031693,3.0,part_1,,,,,,,,,,,,,magenta,triangle
0.5,0,3.0,3.0,367.61403083799996,3.0,part_1,,,,,,,,,,,,,cyan,hexagon
0.5,0,3.0,3.0,801.306009293,3.0,part_1,,,,,,,,,,,,,cyan,hexagon
1.0,0,4.0,4.0,334.469079971,3.0,part_1,,,,,,,,,,,,,green,flipped triangle
4.0,1,4.0,4.0,450.648069382,3.0,part_1,,,,,,,,,,,,,blue,cross
2.0,0,2.0,2.0,451.022863388,3.0,part_1,,,,,,,,,,,,,magenta,triangle
2.0,0,4.0,4.0,383.645057678,3.0,part_1,,,,,,,,,,,,,magenta,triangle
0.5,1,2.0,2.0,351.068019867,3.0,part_1,,,,,,,,,,,,,yellow,diamond
1.0,0,4.0,4.0,384.285926819,3.0,part_1,,,,,,,,,,,,,green,flipped triangle
1.0,0,1.0,1.0,367.722034454,3.0,part_1,,,,,,,,,,,,,green,flipped triangle
0.5,1,4.0,4.0,417.590856552,3.0,part_1,,,,,,,,,,,,,yellow,diamond
2.0,0,1.0,1.0,350.841999054,3.0,part_1,,,,,,,,,,,,,magenta,triangle
0.5,1,4.0,4.0,384.068965912,3.0,part_1,,,,,,,,,,,,,yellow,diamond
0.5,1,1.0,1.0,418.03693771400003,3.0,part_1,,,,,,,,,,,,,yellow,diamond
0.5,0,2.0,2.0,467.63610839800003,3.0,part_1,,,,,,,,,,,,,cyan,hexagon
4.0,0,2.0,2.0,418.034076691,3.0,part_1,,,,,,,,,,,,,white,square
2.0,0,3.0,3.0,467.415809631,3.0,part_1,,,,,,,,,,,,,magenta,triangle
0.5,1,1.0,1.0,300.73094368,3.0,part_1,,,,,,,,,,,,,yellow,diamond
0.5,1,1.0,1.0,918.1799888610001,3.0,part_1,,,,,,,,,,,,,yellow,diamond
0.5,1,3.0,3.0,401.23987197900004,3.0,part_1,,,,,,,,,,,,,yellow,diamond
4.0,1,1.0,1.0,400.563955307,3.0,part_1,,,,,,,,,,,,,blue,cross
0.5,1,2.0,2.0,383.81004333500005,3.0,part_1,,,,,,,,,,,,,yellow,diamond
0.5,0,4.0,4.0,484.30204391499996,3.0,part_1,,,,,,,,,,,,,cyan,hexagon
4.0,0,2.0,2.0,334.331989288,3.0,part_1,,,,,,,,,,,,,white,square
4.0,0,2.0,2.0,350.59595108,3.0,part_1,,,,,,,,,,,,,white,square
4.0,1,1.0,1.0,451.17902755700004,3.0,part_1,,,,,,,,,,,,,blue,cross
1.0,1,4.0,4.0,400.763034821,3.0,part_1,,,,,,,,,,,,,orange,circle
4.0,1,4.0,4.0,584.454059601,3.0,part_1,,,,,,,,,,,,,blue,cross
0.5,1,1.0,1.0,584.56492424,3.0,part_1,,,,,,,,,,,,,yellow,diamond
2.0,0,3.0,3.0,401.709079742,3.0,part_1,,,,,,,,,,,,,magenta,triangle
0.5,0,2.0,2.0,367.086172104,3.0,part_1,,,,,,,,,,,,,cyan,hexagon
1.0,0,1.0,1.0,517.456054688,3.0,part_1,,,,,,,,,,,,,green,flipped triangle
1.0,0,1.0,1.0,834.8450660709999,4.0,part_1,,,,,,,,,,,,,green,flipped triangle
2.0,1,1.0,1.0,350.828886032,4.0,part_1,,,,,,,,,,,,,gray,line
0.5,0,1.0,1.0,300.877094269,4.0,part_1,,,,,,,,,,,,,cyan,hexagon
4.0,0,4.0,4.0,284.322023392,4.0,part_1,,,,,,,,,,,,,white,square
0.5,0,1.0,1.0,334.127902985,4.0,part_1,,,,,,,,,,,,,cyan,hexagon
1.0,0,1.0,1.0,401.32880210900004,4.0,part_1,,,,,,,,,,,,,green,flipped triangle
2.0,1,2.0,2.0,367.373943329,4.0,part_1,,,,,,,,,,,,,gray,line
1.0,0,4.0,4.0,300.719022751,4.0,part_1,,,,,,,,,,,,,green,flipped triangle
0.5,0,2.0,2.0,367.45095253,4.0,part_1,,,,,,,,,,,,,cyan,hexagon
2.0,0,2.0,2.0,383.997917175,4.0,part_1,,,,,,,,,,,,,magenta,triangle
2.0,0,3.0,3.0,401.06678009,4.0,part_1,,,,,,,,,,,,,magenta,triangle
2.0,0,3.0,3.0,367.506027222,4.0,part_1,,,,,,,,,,,,,magenta,triangle
1.0,0,3.0,3.0,418.205976486,4.0,part_1,,,,,,,,,,,,,green,flipped triangle
0.5,1,4.0,4.0,350.679159164,4.0,part_1,,,,,,,,,,,,,yellow,diamond
1.0,1,3.0,3.0,367.54488945,4.0,part_1,,,,,,,,,,,,,orange,circle
4.0,0,2.0,2.0,401.33023262,4.0,part_1,,,,,,,,,,,,,white,square
4.0,0,4.0,4.0,367.52510070799997,4.0,part_1,,,,,,,,,,,,,white,square
4.0,0,3.0,3.0,350.54302215599995,4.0,part_1,,,,,,,,,,,,,white,square
2.0,0,2.0,2.0,384.97805595399996,4.0,part_1,,,,,,,,,,,,,magenta,triangle
1.0,1,3.0,3.0,384.10210609399996,4.0,part_1,,,,,,,,,,,,,orange,circle
1.0,1,2.0,2.0,350.880861282,4.0,part_1,,,,,,,,,,,,,orange,circle
2.0,1,2.0,2.0,367.05708503700004,4.0,part_1,,,,,,,,,,,,,gray,line
4.0,1,2.0,2.0,333.75382423400004,4.0,part_1,,,,,,,,,,,,,blue,cross
2.0,0,1.0,1.0,367.844820023,4.0,part_1,,,,,,,,,,,,,magenta,triangle
4.0,0,4.0,4.0,417.517900467,4.0,part_1,,,,,,,,,,,,,white,square
1.0,0,3.0,3.0,384.44209098799996,4.0,part_1,,,,,,,,,,,,,green,flipped triangle
0.5,1,3.0,3.0,367.982149124,4.0,part_1,,,,,,,,,,,,,yellow,diamond
2.0,1,4.0,4.0,384.21010971100003,4.0,part_1,,,,,,,,,,,,,gray,line
1.0,1,3.0,3.0,367.740869522,4.0,part_1,,,,,,,,,,,,,orange,circle
4.0,0,3.0,3.0,400.980949402,4.0,part_1,,,,,,,,,,,,,white,square
1.0,0,3.0,3.0,467.396020889,4.0,part_1,,,,,,,,,,,,,green,flipped triangle
0.5,1,3.0,3.0,367.719888687,4.0,part_1,,,,,,,,,,,,,yellow,diamond
0.5,0,1.0,1.0,351.14312171899996,4.0,part_1,,,,,,,,,,,,,cyan,hexagon
0.5,1,1.0,1.0,367.331981659,4.0,part_1,,,,,,,,,,,,,yellow,diamond
2.0,0,4.0,4.0,334.46097374,4.0,part_1,,,,,,,,,,,,,magenta,triangle
0.5,1,4.0,4.0,351.15098953200004,4.0,part_1,,,,,,,,,,,,,yellow,diamond
0.5,1,1.0,1.0,384.714126587,4.0,part_1,,,,,,,,,,,,,yellow,diamond
2.0,0,2.0,2.0,351.11784935000003,4.0,part_1,,,,,,,,,,,,,magenta,triangle
4.0,1,1.0,1.0,351.037025452,4.0,part_1,,,,,,,,,,,,,blue,cross
0.5,0,4.0,4.0,334.073066711,4.0,part_1,,,,,,,,,,,,,cyan,hexagon
4.0,1,1.0,1.0,317.784070969,4.0,part_1,,,,,,,,,,,,,blue,cross
0.5,1,2.0,2.0,333.753108978,4.0,part_1,,,,,,,,,,,,,yellow,diamond
1.0,1,2.0,2.0,300.60601234399996,4.0,part_1,,,,,,,,,,,,,orange,circle
1.0,1,2.0,2.0,434.629917145,4.0,part_1,,,,,,,,,,,,,orange,circle
2.0,0,1.0,1.0,317.78192520100004,4.0,part_1,,,,,,,,,,,,,magenta,triangle
4.0,0,3.0,3.0,400.980949402,4.0,part_1,,,,,,,,,,,,,white,square
4.0,0,2.0,2.0,367.952108383,4.0,part_1,,,,,,,,,,,,,white,square
1.0,0,2.0,2.0,434.32903289800004,4.0,part_1,,,,,,,,,,,,,green,flipped triangle
0.5,1,1.0,1.0,350.929021835,4.0,part_1,,,,,,,,,,,,,yellow,diamond
1.0,1,2.0,2.0,384.379148483,4.0,part_1,,,,,,,,,,,,,orange,circle
4.0,1,1.0,1.0,485.054969788,4.0,part_1,,,,,,,,,,,,,blue,cross
0.5,1,3.0,3.0,551.328897476,4.0,part_1,,,,,,,,,,,,,yellow,diamond
4.0,1,2.0,2.0,584.5420360569999,4.0,part_1,,,,,,,,,,,,,blue,cross
1.0,1,2.0,2.0,584.097146988,4.0,part_1,,,,,,,,,,,,,orange,circle
1.0,1,4.0,4.0,351.21417045600003,4.0,part_1,,,,,,,,,,,,,orange,circle
1.0,0,4.0,4.0,401.36384964,4.0,part_1,,,,,,,,,,,,,green,flipped triangle
1.0,1,4.0,4.0,317.712068558,4.0,part_1,,,,,,,,,,,,,orange,circle
0.5,0,4.0,4.0,417.675971985,4.0,part_1,,,,,,,,,,,,,cyan,hexagon
4.0,0,2.0,2.0,317.48318672199997,4.0,part_1,,,,,,,,,,,,,white,square
1.0,0,3.0,3.0,350.844860077,4.0,part_1,,,,,,,,,,,,,green,flipped triangle
1.0,0,1.0,1.0,351.40204429600004,4.0,part_1,,,,,,,,,,,,,green,flipped triangle
1.0,0,3.0,3.0,317.877054214,4.0,part_1,,,,,,,,,,,,,green,flipped triangle
4.0,1,1.0,1.0,434.065103531,4.0,part_1,,,,,,,,,,,,,blue,cross
1.0,0,2.0,2.0,451.053857803,4.0,part_1,,,,,,,,,,,,,green,flipped triangle
4.0,0,3.0,3.0,266.74699783299997,4.0,part_1,,,,,,,,,,,,,white,square
4.0,0,3.0,3.0,467.97609329200003,4.0,part_1,,,,,,,,,,,,,white,square
0.5,0,1.0,1.0,584.442853928,4.0,part_1,,,,,,,,,,,,,cyan,hexagon
1.0,0,4.0,4.0,334.081888199,4.0,part_1,,,,,,,,,,,,,green,flipped triangle
4.0,1,1.0,1.0,317.41309165999996,4.0,part_1,,,,,,,,,,,,,blue,cross
1.0,0,1.0,1.0,384.155035019,4.0,part_1,,,,,,,,,,,,,green,flipped triangle
0.5,1,4.0,4.0,484.575986862,4.0,part_1,,,,,,,,,,,,,yellow,diamond
4.0,1,1.0,1.0,351.02391243,4.0,part_1,,,,,,,,,,,,,blue,cross
4.0,1,4.0,4.0,417.543888092,4.0,part_1,,,,,,,,,,,,,blue,cross
4.0,0,2.0,2.0,317.231178284,4.0,part_1,,,,,,,,,,,,,white,square
1.0,1,3.0,3.0,467.652082443,4.0,part_1,,,,,,,,,,,,,orange,circle
1.0,0,4.0,4.0,417.672872543,4.0,part_1,,,,,,,,,,,,,green,flipped triangle
0.5,1,4.0,4.0,417.72699356100003,4.0,part_1,,,,,,,,,,,,,yellow,diamond
1.0,1,2.0,2.0,600.769996643,4.0,part_1,,,,,,,,,,,,,orange,circle
4.0,0,4.0,4.0,317.58713722199997,4.0,part_1,,,,,,,,,,,,,white,square
4.0,0,3.0,3.0,284.216880798,4.0,part_1,,,,,,,,,,,,,white,square
4.0,0,4.0,4.0,351.036071777,4.0,part_1,,,,,,,,,,,,,white,square
0.5,0,4.0,4.0,467.674016953,4.0,part_1,,,,,,,,,,,,,cyan,hexagon
2.0,1,2.0,2.0,767.594099045,4.0,part_1,,,,,,,,,,,,,gray,line
4.0,1,1.0,1.0,350.68488121,4.0,part_1,,,,,,,,,,,,,blue,cross
0.5,0,4.0,4.0,434.67998504599996,4.0,part_1,,,,,,,,,,,,,cyan,hexagon
4.0,0,2.0,2.0,334.621906281,4.0,part_1,,,,,,,,,,,,,white,square
2.0,0,1.0,1.0,317.291975021,4.0,part_1,,,,,,,,,,,,,magenta,triangle
2.0,1,1.0,1.0,350.735902786,4.0,part_1,,,,,,,,,,,,,gray,line
1.0,1,2.0,2.0,300.611972809,4.0,part_1,,,,,,,,,,,,,orange,circle
2.0,0,3.0,3.0,484.25102233900003,4.0,part_1,,,,,,,,,,,,,magenta,triangle
1.0,0,3.0,3.0,367.660999298,4.0,part_1,,,,,,,,,,,,,green,flipped triangle
2.0,0,1.0,1.0,384.028196335,4.0,part_1,,,,,,,,,,,,,magenta,triangle
2.0,0,3.0,3.0,367.535114288,4.0,part_1,,,,,,,,,,,,,magenta,triangle
1.0,1,1.0,1.0,350.831031799,4.0,part_1,,,,,,,,,,,,,orange,circle
2.0,1,4.0,4.0,417.83881187400004,4.0,part_1,,,,,,,,,,,,,gray,line
1.0,1,3.0,3.0,434.58008766200004,4.0,part_1,,,,,,,,,,,,,orange,circle
0.5,1,4.0,4.0,601.4108657840001,4.0,part_1,,,,,,,,,,,,,yellow,diamond
4.0,1,3.0,3.0,434.25083160400004,4.0,part_1,,,,,,,,,,,,,blue,cross
1.0,0,4.0,4.0,467.674970627,4.0,part_1,,,,,,,,,,,,,green,flipped triangle
2.0,0,2.0,2.0,284.113168716,4.0,part_1,,,,,,,,,,,,,magenta,triangle
4.0,1,5.0,5.0,367.76685714700005,1.0,part_2,stop,250.0,250.0,3.0,,,,,,,,,blue,cross
0.5,0,6.0,6.0,434.07797813400003,1.0,part_2,go,250.0,250.0,1.0,,,,,,,,,cyan,hexagon
0.5,1,6.0,6.0,384.319067001,1.0,part_2,stop,250.0,250.0,3.0,,,,,,,,,yellow,diamond
1.0,1,6.0,,,1.0,,stop,250.0,200.0,4.0,,,,,,,,,orange,circle
1.0,1,6.0,,,1.0,,stop,250.0,250.0,4.0,,,,,,,,,orange,circle
4.0,1,5.0,,,1.0,,stop,200.0,250.0,4.0,,,,,,,,,blue,cross
1.0,0,6.0,6.0,567.593097687,1.0,part_2,go,200.0,250.0,1.0,,,,,,,,,green,flipped triangle
0.5,1,5.0,,,1.0,,stop,250.0,250.0,4.0,,,,,,,,,yellow,diamond
4.0,1,5.0,,,1.0,,stop,300.0,250.0,4.0,,,,,,,,,blue,cross
4.0,1,5.0,5.0,484.75098609900004,1.0,part_2,stop,350.0,250.0,3.0,,,,,,,,,blue,cross
0.5,1,6.0,6.0,651.579856873,1.0,part_2,go,350.0,250.0,1.0,,,,,,,,,yellow,diamond
4.0,0,6.0,,,1.0,,go,350.0,250.0,5.0,,,,,,,,,white,square
2.0,1,6.0,6.0,367.678880692,1.0,part_2,go,350.0,250.0,1.0,,,,,,,,,gray,line
0.5,1,6.0,6.0,617.635965347,1.0,part_2,go,350.0,250.0,1.0,,,,,,,,,yellow,diamond
2.0,1,5.0,,,1.0,,stop,300.0,250.0,4.0,,,,,,,,,gray,line
0.5,1,6.0,,,1.0,,stop,300.0,300.0,4.0,,,,,,,,,yellow,diamond
1.0,0,6.0,6.0,834.071159363,1.0,part_2,go,300.0,300.0,1.0,,,,,,,,,green,flipped triangle
1.0,1,6.0,,,1.0,,stop,300.0,350.0,4.0,,,,,,,,,orange,circle
4.0,0,6.0,,,1.0,,go,300.0,350.0,5.0,,,,,,,,,white,square
1.0,0,5.0,5.0,684.683084488,1.0,part_2,go,300.0,350.0,1.0,,,,,,,,,green,flipped triangle
1.0,0,5.0,5.0,651.234865189,1.0,part_2,go,300.0,350.0,1.0,,,,,,,,,green,flipped triangle
2.0,1,5.0,,,1.0,,stop,350.0,350.0,4.0,,,,,,,,,gray,line
0.5,1,5.0,5.0,517.887115479,1.0,part_2,stop,400.0,350.0,3.0,,,,,,,,,yellow,diamond
2.0,1,5.0,,,1.0,,stop,350.0,350.0,4.0,,,,,,,,,gray,line
4.0,1,5.0,,,1.0,,go,350.0,350.0,5.0,,,,,,,,,blue,cross
4.0,1,5.0,5.0,701.1020183559999,1.0,part_2,go,350.0,350.0,1.0,,,,,,,,,blue,cross
4.0,1,6.0,6.0,317.685842514,1.0,part_2,go,350.0,350.0,1.0,,,,,,,,,blue,cross
2.0,0,6.0,,,1.0,,go,350.0,350.0,5.0,,,,,,,,,magenta,triangle
2.0,0,6.0,,,1.0,,go,350.0,350.0,5.0,,,,,,,,,magenta,triangle
1.0,0,6.0,6.0,801.68390274,1.0,part_2,go,350.0,350.0,1.0,,,,,,,,,green,flipped triangle
2.0,0,5.0,5.0,284.31892395,1.0,part_2,go,350.0,350.0,1.0,,,,,,,,,magenta,triangle
2.0,0,5.0,5.0,801.6278743739999,1.0,part_2,go,350.0,350.0,1.0,,,,,,,,,magenta,triangle
1.0,0,5.0,,,1.0,,go,350.0,350.0,5.0,,,,,,,,,green,flipped triangle
0.5,0,5.0,,,1.0,,go,350.0,350.0,5.0,,,,,,,,,cyan,hexagon
4.0,0,5.0,5.0,367.195129395,1.0,part_2,go,350.0,350.0,1.0,,,,,,,,,white,square
1.0,1,6.0,,,1.0,,stop,350.0,400.0,4.0,,,,,,,,,orange,circle
0.5,0,6.0,6.0,851.483106613,2.0,part_2,go,350.0,400.0,1.0,,,,,,,,,cyan,hexagon
2.0,1,5.0,5.0,400.814056396,2.0,part_2,stop,400.0,400.0,3.0,,,,,,,,,gray,line
1.0,1,5.0,5.0,417.252063751,2.0,part_2,go,400.0,400.0,1.0,,,,,,,,,orange,circle
4.0,0,6.0,6.0,484.11297798199996,2.0,part_2,go,400.0,400.0,1.0,,,,,,,,,white,square
4.0,0,5.0,5.0,534.895896912,2.0,part_2,go,400.0,400.0,1.0,,,,,,,,,white,square
4.0,1,5.0,5.0,450.616836548,2.0,part_2,stop,350.0,400.0,3.0,,,,,,,,,blue,cross
2.0,0,6.0,6.0,601.1989116670001,2.0,part_2,go,350.0,400.0,1.0,,,,,,,,,magenta,triangle
4.0,0,5.0,5.0,551.47600174,2.0,part_2,go,350.0,400.0,1.0,,,,,,,,,white,square
0.5,0,5.0,5.0,600.998878479,2.0,part_2,go,350.0,400.0,1.0,,,,,,,,,cyan,hexagon
0.5,0,6.0,6.0,467.590093613,2.0,part_2,go,350.0,400.0,1.0,,,,,,,,,cyan,hexagon
1.0,0,5.0,5.0,433.372020721,2.0,part_2,go,350.0,400.0,1.0,,,,,,,,,green,flipped triangle
1.0,0,6.0,6.0,384.484767914,2.0,part_2,go,350.0,400.0,1.0,,,,,,,,,green,flipped triangle
4.0,0,5.0,5.0,568.2461261750001,2.0,part_2,go,350.0,400.0,1.0,,,,,,,,,white,square
2.0,1,6.0,6.0,534.752845764,2.0,part_2,go,350.0,400.0,1.0,,,,,,,,,gray,line
1.0,0,5.0,5.0,200.264930725,2.0,part_2,go,350.0,400.0,1.0,,,,,,,,,green,flipped triangle
4.0,0,5.0,5.0,500.97393989600005,2.0,part_2,go,350.0,400.0,1.0,,,,,,,,,white,square
2.0,1,5.0,5.0,667.984008789,2.0,part_2,stop,300.0,400.0,3.0,,,,,,,,,gray,line
2.0,0,6.0,6.0,434.046983719,2.0,part_2,go,300.0,400.0,1.0,,,,,,,,,magenta,triangle
4.0,0,6.0,,,2.0,,go,300.0,400.0,5.0,,,,,,,,,white,square
0.5,1,5.0,5.0,318.14980506899997,2.0,part_2,stop,250.0,400.0,3.0,,,,,,,,,yellow,diamond
4.0,0,6.0,6.0,283.59794616700003,2.0,part_2,go,250.0,400.0,1.0,,,,,,,,,white,square
1.0,1,6.0,6.0,317.885875702,2.0,part_2,stop,250.0,450.0,3.0,,,,,,,,,orange,circle
0.5,0,6.0,6.0,317.451953888,2.0,part_2,go,250.0,450.0,1.0,,,,,,,,,cyan,hexagon
4.0,0,5.0,5.0,284.209012985,2.0,part_2,go,250.0,450.0,1.0,,,,,,,,,white,square
1.0,0,5.0,5.0,367.038965225,2.0,part_2,go,250.0,450.0,1.0,,,,,,,,,green,flipped triangle
2.0,1,5.0,5.0,434.107065201,2.0,part_2,stop,200.0,450.0,3.0,,,,,,,,,gray,line
2.0,0,6.0,6.0,317.872047424,2.0,part_2,go,200.0,450.0,1.0,,,,,,,,,magenta,triangle
1.0,1,6.0,6.0,83.3251476288,2.0,part_2,stop,200.0,400.0,3.0,,,,,,,,,orange,circle
4.0,1,5.0,5.0,284.283161163,2.0,part_2,go,200.0,400.0,1.0,,,,,,,,,blue,cross
2.0,0,6.0,6.0,350.630998611,2.0,part_2,go,200.0,400.0,1.0,,,,,,,,,magenta,triangle
1.0,0,6.0,6.0,617.952108383,2.0,part_2,go,200.0,400.0,1.0,,,,,,,,,green,flipped triangle
2.0,1,5.0,5.0,433.450222015,2.0,part_2,stop,150.0,400.0,3.0,,,,,,,,,gray,line
0.5,0,6.0,6.0,250.92506408699998,2.0,part_2,go,150.0,400.0,1.0,,,,,,,,,cyan,hexagon
0.5,0,6.0,6.0,851.134061813,2.0,part_2,go,150.0,400.0,1.0,,,,,,,,,cyan,hexagon
0.5,0,6.0,6.0,350.924968719,2.0,part_2,go,150.0,400.0,1.0,,,,,,,,,cyan,hexagon
1.0,0,5.0,5.0,300.29797554,2.0,part_2,go,150.0,400.0,1.0,,,,,,,,,green,flipped triangle
4.0,1,6.0,6.0,467.843055725,3.0,part_2,go,150.0,400.0,1.0,,,,,,,,,blue,cross
2.0,0,5.0,5.0,367.376089096,3.0,part_2,go,150.0,400.0,1.0,,,,,,,,,magenta,triangle
4.0,1,5.0,5.0,367.723941803,3.0,part_2,stop,100.0,400.0,3.0,,,,,,,,,blue,cross
1.0,0,6.0,6.0,367.901086807,3.0,part_2,go,100.0,400.0,1.0,,,,,,,,,green,flipped triangle
0.5,1,5.0,5.0,434.750080109,3.0,part_2,stop,50.0,400.0,3.0,,,,,,,,,yellow,diamond
0.5,1,5.0,5.0,467.320919037,3.0,part_2,stop,1.38777878078e-14,400.0,3.0,,,,,,,,,yellow,diamond
1.0,0,6.0,6.0,383.96692276,3.0,part_2,go,1.38777878078e-14,400.0,1.0,,,,,,,,,green,flipped triangle
4.0,1,5.0,5.0,300.77910423300006,3.0,part_2,stop,1.38777878078e-14,400.0,3.0,,,,,,,,,blue,cross
0.5,1,6.0,6.0,433.95709991499996,3.0,part_2,go,1.38777878078e-14,400.0,1.0,,,,,,,,,yellow,diamond
1.0,1,5.0,5.0,617.373943329,3.0,part_2,stop,1.38777878078e-14,400.0,3.0,,,,,,,,,orange,circle
2.0,1,5.0,5.0,450.59013366700003,3.0,part_2,go,1.38777878078e-14,400.0,1.0,,,,,,,,,gray,line
0.5,1,5.0,5.0,366.83678627,3.0,part_2,stop,1.38777878078e-14,400.0,3.0,,,,,,,,,yellow,diamond
1.0,0,6.0,6.0,300.522089005,3.0,part_2,go,1.38777878078e-14,400.0,1.0,,,,,,,,,green,flipped triangle
2.0,1,6.0,6.0,284.18684005700004,3.0,part_2,stop,1.38777878078e-14,350.0,3.0,,,,,,,,,gray,line
4.0,1,6.0,6.0,284.33704376199995,3.0,part_2,stop,1.38777878078e-14,300.0,3.0,,,,,,,,,blue,cross
4.0,1,5.0,5.0,300.50110816999995,3.0,part_2,stop,1.38777878078e-14,300.0,3.0,,,,,,,,,blue,cross
0.5,0,5.0,5.0,350.46100616499996,3.0,part_2,go,1.38777878078e-14,300.0,1.0,,,,,,,,,cyan,hexagon
2.0,0,6.0,6.0,300.83608627300003,3.0,part_2,go,1.38777878078e-14,300.0,1.0,,,,,,,,,magenta,triangle
4.0,1,6.0,6.0,317.682981491,3.0,part_2,go,1.38777878078e-14,300.0,1.0,,,,,,,,,blue,cross
2.0,1,6.0,6.0,317.504167557,3.0,part_2,stop,1.38777878078e-14,250.0,3.0,,,,,,,,,gray,line
0.5,1,6.0,6.0,300.731897354,3.0,part_2,stop,1.38777878078e-14,200.0,3.0,,,,,,,,,yellow,diamond
4.0,0,6.0,6.0,300.50683021500004,3.0,part_2,go,1.38777878078e-14,200.0,1.0,,,,,,,,,white,square
0.5,1,5.0,5.0,300.94599723799996,3.0,part_2,stop,1.38777878078e-14,200.0,3.0,,,,,,,,,yellow,diamond
0.5,0,5.0,5.0,334.357023239,3.0,part_2,go,1.38777878078e-14,200.0,1.0,,,,,,,,,cyan,hexagon
2.0,1,6.0,6.0,568.39799881,3.0,part_2,stop,1.38777878078e-14,150.0,3.0,,,,,,,,,gray,line
0.5,1,5.0,5.0,667.132139206,3.0,part_2,stop,1.38777878078e-14,150.0,3.0,,,,,,,,,yellow,diamond
0.5,1,6.0,6.0,367.710113525,3.0,part_2,stop,1.38777878078e-14,100.0,3.0,,,,,,,,,yellow,diamond
4.0,1,6.0,6.0,334.342002869,3.0,part_2,stop,1.38777878078e-14,50.0,3.0,,,,,,,,,blue,cross
0.5,1,6.0,6.0,367.174863815,3.0,part_2,go,1.38777878078e-14,50.0,1.0,,,,,,,,,yellow,diamond
2.0,1,5.0,5.0,334.093093872,3.0,part_2,stop,1.38777878078e-14,50.0,3.0,,,,,,,,,gray,line
0.5,0,5.0,,,3.0,,go,1.38777878078e-14,50.0,5.0,,,,,,,,,cyan,hexagon
1.0,1,5.0,5.0,317.06619262699996,3.0,part_2,stop,1.38777878078e-14,50.0,3.0,,,,,,,,,orange,circle
0.5,1,5.0,5.0,316.81609153700003,3.0,part_2,stop,1.38777878078e-14,50.0,3.0,,,,,,,,,yellow,diamond
1.0,0,6.0,6.0,283.974885941,3.0,part_2,go,1.38777878078e-14,50.0,1.0,,,,,,,,,green,flipped triangle
2.0,1,5.0,5.0,301.11193656899997,3.0,part_2,stop,1.38777878078e-14,50.0,3.0,,,,,,,,,gray,line
0.5,1,6.0,6.0,350.571155548,3.0,part_2,stop,1.38777878078e-14,1.38777878078e-14,3.0,,,,,,,,,yellow,diamond
2.0,1,5.0,5.0,767.8129673000001,4.0,part_2,stop,1.38777878078e-14,1.38777878078e-14,3.0,,,,,,,,,gray,line
1.0,1,6.0,,,4.0,,stop,1.38777878078e-14,1.38777878078e-14,4.0,,,,,,,,,orange,circle
4.0,0,5.0,5.0,551.1038303380001,4.0,part_2,go,1.38777878078e-14,1.38777878078e-14,1.0,,,,,,,,,white,square
0.5,0,5.0,,,4.0,,go,1.38777878078e-14,1.38777878078e-14,5.0,,,,,,,,,cyan,hexagon
0.5,0,6.0,6.0,500.73719024700006,4.0,part_2,go,1.38777878078e-14,1.38777878078e-14,1.0,,,,,,,,,cyan,hexagon
2.0,0,5.0,5.0,634.864091873,4.0,part_2,go,1.38777878078e-14,1.38777878078e-14,1.0,,,,,,,,,magenta,triangle
0.5,0,5.0,5.0,384.52291488599997,4.0,part_2,go,1.38777878078e-14,1.38777878078e-14,1.0,,,,,,,,,cyan,hexagon
2.0,1,5.0,5.0,451.32493972799995,4.0,part_2,go,1.38777878078e-14,1.38777878078e-14,1.0,,,,,,,,,gray,line
0.5,0,5.0,5.0,401.38387680100004,4.0,part_2,go,1.38777878078e-14,1.38777878078e-14,1.0,,,,,,,,,cyan,hexagon
2.0,0,5.0,5.0,350.803852081,4.0,part_2,go,1.38777878078e-14,1.38777878078e-14,1.0,,,,,,,,,magenta,triangle
1.0,1,6.0,,,4.0,,stop,1.38777878078e-14,50.0,4.0,,,,,,,,,orange,circle
1.0,0,6.0,6.0,617.9141998289999,4.0,part_2,go,1.38777878078e-14,50.0,1.0,,,,,,,,,green,flipped triangle
1.0,1,6.0,,,4.0,,stop,1.38777878078e-14,100.0,4.0,,,,,,,,,orange,circle
2.0,1,6.0,,,4.0,,stop,1.38777878078e-14,150.0,4.0,,,,,,,,,gray,line
0.5,0,5.0,5.0,501.37209892300007,4.0,part_2,go,1.38777878078e-14,150.0,1.0,,,,,,,,,cyan,hexagon
0.5,0,5.0,5.0,433.78496170000005,4.0,part_2,go,1.38777878078e-14,150.0,1.0,,,,,,,,,cyan,hexagon
4.0,0,5.0,5.0,334.61689949,4.0,part_2,go,1.38777878078e-14,150.0,1.0,,,,,,,,,white,square
4.0,0,6.0,6.0,417.54603385900003,4.0,part_2,go,1.38777878078e-14,150.0,1.0,,,,,,,,,white,square
1.0,1,5.0,5.0,484.36999321,4.0,part_2,go,1.38777878078e-14,150.0,1.0,,,,,,,,,orange,circle
0.5,1,6.0,6.0,367.434978485,4.0,part_2,stop,1.38777878078e-14,200.0,3.0,,,,,,,,,yellow,diamond
2.0,1,6.0,6.0,667.8001880649999,4.0,part_2,go,1.38777878078e-14,200.0,1.0,,,,,,,,,gray,line
4.0,0,6.0,6.0,551.2948036189999,4.0,part_2,go,1.38777878078e-14,200.0,1.0,,,,,,,,,white,square
0.5,0,6.0,6.0,918.242931366,4.0,part_2,go,1.38777878078e-14,200.0,1.0,,,,,,,,,cyan,hexagon
2.0,0,6.0,6.0,501.071929932,4.0,part_2,go,1.38777878078e-14,200.0,1.0,,,,,,,,,magenta,triangle
2.0,0,6.0,6.0,467.943906784,4.0,part_2,go,1.38777878078e-14,200.0,1.0,,,,,,,,,magenta,triangle
4.0,0,5.0,5.0,500.925064087,4.0,part_2,go,1.38777878078e-14,200.0,1.0,,,,,,,,,white,square
1.0,0,5.0,5.0,467.158079147,4.0,part_2,go,1.38777878078e-14,200.0,1.0,,,,,,,,,green,flipped triangle
2.0,1,5.0,,,4.0,,stop,1.38777878078e-14,200.0,4.0,,,,,,,,,gray,line
1.0,1,6.0,,,4.0,,stop,1.38777878078e-14,150.0,4.0,,,,,,,,,orange,circle
1.0,1,5.0,,,4.0,,stop,50.0,150.0,4.0,,,,,,,,,orange,circle
4.0,1,6.0,,,4.0,,stop,50.0,200.0,4.0,,,,,,,,,blue,cross
1.0,1,6.0,,,4.0,,stop,50.0,250.0,4.0,,,,,,,,,orange,circle
2.0,1,6.0,,,4.0,,stop,50.0,300.0,4.0,,,,,,,,,gray,line
1.0,0,5.0,5.0,817.8980350490001,4.0,part_2,go,50.0,300.0,1.0,,,,,,,,,green,flipped triangle
2.0,0,6.0,6.0,734.887838364,4.0,part_2,go,50.0,300.0,1.0,,,,,,,,,magenta,triangle
2.0,0,5.0,5.0,534.287929535,4.0,part_2,go,50.0,300.0,1.0,,,,,,,,,magenta,triangle
4.0,1,5.0,,,5.0,,stop,100.0,300.0,4.0,,,,,,,,,blue,cross
4.0,1,6.0,6.0,484.59887504600005,5.0,part_2,stop,100.0,350.0,3.0,,,,,,,,,blue,cross
0.5,0,6.0,6.0,517.579078674,5.0,part_2,go,100.0,350.0,1.0,,,,,,,,,cyan,hexagon
1.0,0,5.0,5.0,551.112890244,5.0,part_2,go,100.0,350.0,1.0,,,,,,,,,green,flipped triangle
4.0,0,6.0,6.0,417.486906052,5.0,part_2,go,100.0,350.0,1.0,,,,,,,,,white,square
1.0,1,6.0,6.0,367.147922516,5.0,part_2,stop,100.0,300.0,3.0,,,,,,,,,orange,circle
4.0,0,6.0,6.0,617.7289485929999,5.0,part_2,go,100.0,300.0,1.0,,,,,,,,,white,square
0.5,1,6.0,,,5.0,,stop,100.0,250.0,4.0,,,,,,,,,yellow,diamond
2.0,1,5.0,,,5.0,,stop,150.0,250.0,4.0,,,,,,,,,gray,line
2.0,1,6.0,,,5.0,,stop,150.0,300.0,4.0,,,,,,,,,gray,line
4.0,1,6.0,,,5.0,,stop,150.0,350.0,4.0,,,,,,,,,blue,cross
1.0,1,5.0,5.0,901.6590118409999,5.0,part_2,go,150.0,350.0,1.0,,,,,,,,,orange,circle
4.0,0,5.0,5.0,818.382978439,5.0,part_2,go,150.0,350.0,1.0,,,,,,,,,white,square
1.0,0,5.0,5.0,384.661912918,5.0,part_2,go,150.0,350.0,1.0,,,,,,,,,green,flipped triangle
0.5,1,5.0,5.0,334.290981293,5.0,part_2,stop,200.0,350.0,3.0,,,,,,,,,yellow,diamond
1.0,1,5.0,,,5.0,,stop,150.0,350.0,4.0,,,,,,,,,orange,circle
0.5,0,5.0,5.0,500.8289814,5.0,part_2,go,150.0,350.0,1.0,,,,,,,,,cyan,hexagon
4.0,0,5.0,5.0,367.22612381000005,5.0,part_2,go,150.0,350.0,1.0,,,,,,,,,white,square
2.0,0,5.0,5.0,401.578903198,5.0,part_2,go,150.0,350.0,1.0,,,,,,,,,magenta,triangle
0.5,0,5.0,5.0,350.036859512,5.0,part_2,go,150.0,350.0,1.0,,,,,,,,,cyan,hexagon
2.0,0,5.0,5.0,417.423963547,5.0,part_2,go,150.0,350.0,1.0,,,,,,,,,magenta,triangle
4.0,1,6.0,6.0,467.119932175,5.0,part_2,stop,150.0,400.0,3.0,,,,,,,,,blue,cross
0.5,0,6.0,6.0,601.3200283049999,5.0,part_2,go,150.0,400.0,1.0,,,,,,,,,cyan,hexagon
1.0,1,6.0,6.0,517.4920558929999,5.0,part_2,stop,150.0,350.0,3.0,,,,,,,,,orange,circle
1.0,1,6.0,6.0,584.392786026,5.0,part_2,stop,150.0,300.0,3.0,,,,,,,,,orange,circle
4.0,0,5.0,5.0,534.600019455,5.0,part_2,go,150.0,300.0,1.0,,,,,,,,,white,square
1.0,0,6.0,6.0,835.163831711,5.0,part_2,go,150.0,300.0,1.0,,,,,,,,,green,flipped triangle
1.0,1,6.0,6.0,517.5509452819999,5.0,part_2,go,150.0,300.0,1.0,,,,,,,,,orange,circle
0.5,1,6.0,,,5.0,,stop,150.0,250.0,4.0,,,,,,,,,yellow,diamond
0.5,0,5.0,5.0,751.5518665310001,5.0,part_2,go,150.0,250.0,1.0,,,,,,,,,cyan,hexagon
4.0,0,6.0,6.0,668.10798645,5.0,part_2,go,150.0,250.0,1.0,,,,,,,,,white,square
0.5,1,5.0,,,5.0,,stop,200.0,250.0,4.0,,,,,,,,,yellow,diamond
1.0,1,5.0,5.0,600.937843323,5.0,part_2,go,200.0,250.0,1.0,,,,,,,,,orange,circle
1.0,1,5.0,5.0,684.252977371,5.0,part_2,go,200.0,250.0,1.0,,,,,,,,,orange,circle
4.0,1,6.0,,,5.0,,stop,200.0,300.0,4.0,,,,,,,,,blue,cross
1.0,0,6.0,,,5.0,,go,200.0,300.0,5.0,,,,,,,,,green,flipped triangle
4.0,1,5.0,,,6.0,,stop,250.0,300.0,4.0,,,,,,,,,blue,cross
2.0,1,6.0,6.0,617.6941394810001,6.0,part_2,stop,250.0,350.0,3.0,,,,,,,,,gray,line
4.0,1,6.0,,,6.0,,stop,250.0,300.0,4.0,,,,,,,,,blue,cross
1.0,1,5.0,,,6.0,,stop,300.0,300.0,4.0,,,,,,,,,orange,circle
2.0,1,6.0,6.0,517.465114594,6.0,part_2,go,300.0,300.0,1.0,,,,,,,,,gray,line
4.0,0,5.0,5.0,667.983055115,6.0,part_2,go,300.0,300.0,1.0,,,,,,,,,white,square
4.0,0,6.0,6.0,417.68980026199995,6.0,part_2,go,300.0,300.0,1.0,,,,,,,,,white,square
2.0,1,6.0,6.0,367.882966995,6.0,part_2,stop,300.0,350.0,3.0,,,,,,,,,gray,line
0.5,0,5.0,5.0,600.836992264,6.0,part_2,go,300.0,350.0,1.0,,,,,,,,,cyan,hexagon
0.5,0,6.0,6.0,551.0730743409999,6.0,part_2,go,300.0,350.0,1.0,,,,,,,,,cyan,hexagon
4.0,0,6.0,6.0,366.988897324,6.0,part_2,go,300.0,350.0,1.0,,,,,,,,,white,square
2.0,0,6.0,6.0,501.329898834,6.0,part_2,go,300.0,350.0,1.0,,,,,,,,,magenta,triangle
2.0,0,5.0,5.0,333.781003952,6.0,part_2,go,300.0,350.0,1.0,,,,,,,,,magenta,triangle
0.5,1,6.0,6.0,467.766046524,6.0,part_2,stop,300.0,300.0,3.0,,,,,,,,,yellow,diamond
4.0,0,5.0,5.0,567.29722023,6.0,part_2,go,300.0,300.0,1.0,,,,,,,,,white,square
0.5,1,5.0,,,6.0,,stop,350.0,300.0,4.0,,,,,,,,,yellow,diamond
1.0,1,6.0,,,6.0,,stop,350.0,250.0,4.0,,,,,,,,,orange,circle
2.0,1,6.0,6.0,718.02520752,6.0,part_2,go,350.0,250.0,1.0,,,,,,,,,gray,line
2.0,1,6.0,,,6.0,,stop,350.0,300.0,4.0,,,,,,,,,gray,line
2.0,0,6.0,6.0,717.587947845,6.0,part_2,go,350.0,300.0,1.0,,,,,,,,,magenta,triangle
1.0,1,6.0,6.0,500.84805488600006,6.0,part_2,stop,350.0,350.0,3.0,,,,,,,,,orange,circle
1.0,0,5.0,5.0,667.757987976,6.0,part_2,go,350.0,350.0,1.0,,,,,,,,,green,flipped triangle
2.0,0,5.0,5.0,584.168195724,6.0,part_2,go,350.0,350.0,1.0,,,,,,,,,magenta,triangle
4.0,1,5.0,5.0,450.785160065,6.0,part_2,go,350.0,350.0,1.0,,,,,,,,,blue,cross
2.0,1,5.0,5.0,417.562961578,6.0,part_2,stop,400.0,350.0,3.0,,,,,,,,,gray,line
1.0,0,5.0,5.0,500.855922699,6.0,part_2,go,400.0,350.0,1.0,,,,,,,,,green,flipped triangle
1.0,0,6.0,6.0,768.2468891139999,6.0,part_2,go,400.0,350.0,1.0,,,,,,,,,green,flipped triangle
0.5,0,5.0,5.0,517.1279907229999,6.0,part_2,go,400.0,350.0,1.0,,,,,,,,,cyan,hexagon
0.5,0,5.0,5.0,384.457111359,6.0,part_2,go,400.0,350.0,1.0,,,,,,,,,cyan,hexagon
2.0,0,5.0,5.0,317.30699539200003,6.0,part_2,go,400.0,350.0,1.0,,,,,,,,,magenta,triangle
2.0,1,5.0,,,6.0,,stop,350.0,350.0,4.0,,,,,,,,,gray,line
2.0,1,5.0,5.0,917.783021927,6.0,part_2,go,350.0,350.0,1.0,,,,,,,,,gray,line
0.5,1,6.0,6.0,334.176063538,6.0,part_2,stop,350.0,300.0,3.0,,,,,,,,,yellow,diamond
2.0,1,6.0,,,6.0,,stop,350.0,250.0,4.0,,,,,,,,,gray,line
1.0,0,6.0,,,6.0,,go,350.0,250.0,5.0,,,,,,,,,green,flipped triangle
2.0,0,5.0,5.0,333.978891373,6.0,part_2,go,350.0,250.0,1.0,,,,,,,,,magenta,triangle
2.0,0,6.0,6.0,384.366989136,7.0,part_2,go,350.0,250.0,1.0,,,,,,,,,magenta,triangle
1.0,0,5.0,5.0,551.196813583,7.0,part_2,go,350.0,250.0,1.0,,,,,,,,,green,flipped triangle
2.0,0,5.0,5.0,383.82101059,7.0,part_2,go,350.0,250.0,1.0,,,,,,,,,magenta,triangle
2.0,1,6.0,6.0,450.885057449,7.0,part_2,go,350.0,250.0,1.0,,,,,,,,,gray,line
0.5,1,5.0,5.0,467.77200698900003,7.0,part_2,go,350.0,250.0,1.0,,,,,,,,,yellow,diamond
2.0,0,6.0,6.0,350.466966629,7.0,part_2,go,350.0,250.0,1.0,,,,,,,,,magenta,triangle
1.0,0,6.0,6.0,351.35102272,7.0,part_2,go,350.0,250.0,1.0,,,,,,,,,green,flipped triangle
0.5,0,6.0,6.0,384.488105774,7.0,part_2,go,350.0,250.0,1.0,,,,,,,,,cyan,hexagon
0.5,0,5.0,5.0,318.00103187599996,7.0,part_2,go,350.0,250.0,1.0,,,,,,,,,cyan,hexagon
1.0,0,6.0,6.0,300.57692527800003,7.0,part_2,go,350.0,250.0,1.0,,,,,,,,,green,flipped triangle
2.0,0,6.0,6.0,317.243814468,7.0,part_2,go,350.0,250.0,1.0,,,,,,,,,magenta,triangle
2.0,0,5.0,5.0,300.817966461,7.0,part_2,go,350.0,250.0,1.0,,,,,,,,,magenta,triangle
2.0,1,6.0,,,7.0,,stop,350.0,300.0,4.0,,,,,,,,,gray,line
1.0,0,5.0,5.0,785.141944885,7.0,part_2,go,350.0,300.0,1.0,,,,,,,,,green,flipped triangle
4.0,0,5.0,5.0,617.307901382,7.0,part_2,go,350.0,300.0,1.0,,,,,,,,,white,square
0.5,1,5.0,5.0,450.783014297,7.0,part_2,stop,400.0,300.0,3.0,,,,,,,,,yellow,diamond
1.0,1,6.0,6.0,851.24206543,7.0,part_2,go,400.0,300.0,1.0,,,,,,,,,orange,circle
4.0,0,6.0,6.0,617.3458099369999,7.0,part_2,go,400.0,300.0,1.0,,,,,,,,,white,square
4.0,0,5.0,5.0,650.746107101,7.0,part_2,go,400.0,300.0,1.0,,,,,,,,,white,square
0.5,1,6.0,,,7.0,,stop,400.0,350.0,4.0,,,,,,,,,yellow,diamond
0.5,1,6.0,,,7.0,,stop,400.0,400.0,4.0,,,,,,,,,yellow,diamond
0.5,1,6.0,6.0,801.309108734,7.0,part_2,go,400.0,400.0,1.0,,,,,,,,,yellow,diamond
1.0,1,5.0,,,7.0,,stop,350.0,400.0,4.0,,,,,,,,,orange,circle
4.0,0,5.0,5.0,734.814167023,7.0,part_2,go,350.0,400.0,1.0,,,,,,,,,white,square
1.0,1,6.0,6.0,667.662143707,7.0,part_2,go,350.0,400.0,1.0,,,,,,,,,orange,circle
0.5,0,5.0,5.0,350.924968719,7.0,part_2,go,350.0,400.0,1.0,,,,,,,,,cyan,hexagon
4.0,0,6.0,6.0,500.85616111800005,7.0,part_2,go,350.0,400.0,1.0,,,,,,,,,white,square
4.0,1,5.0,,,7.0,,stop,400.0,400.0,4.0,,,,,,,,,blue,cross
2.0,0,5.0,5.0,751.19304657,7.0,part_2,go,400.0,400.0,1.0,,,,,,,,,magenta,triangle
4.0,1,5.0,5.0,617.123126984,7.0,part_2,stop,450.0,400.0,3.0,,,,,,,,,blue,cross
2.0,0,5.0,5.0,784.659147263,7.0,part_2,go,450.0,400.0,1.0,,,,,,,,,magenta,triangle
2.0,0,6.0,6.0,567.667007446,7.0,part_2,go,450.0,400.0,1.0,,,,,,,,,magenta,triangle
1.0,1,6.0,6.0,383.941888809,7.0,part_2,stop,450.0,450.0,3.0,,,,,,,,,orange,circle
4.0,1,5.0,5.0,784.968852997,7.0,part_2,go,450.0,450.0,1.0,,,,,,,,,blue,cross
4.0,1,6.0,,,7.0,,stop,450.0,400.0,4.0,,,,,,,,,blue,cross
2.0,0,5.0,5.0,851.1011600490001,7.0,part_2,go,450.0,400.0,1.0,,,,,,,,,magenta,triangle
4.0,0,6.0,6.0,367.264032364,8.0,part_2,go,450.0,400.0,1.0,,,,,,,,,white,square
1.0,0,6.0,6.0,501.05190277099996,8.0,part_2,go,450.0,400.0,1.0,,,,,,,,,green,flipped triangle
0.5,0,6.0,6.0,434.630870819,8.0,part_2,go,450.0,400.0,1.0,,,,,,,,,cyan,hexagon
2.0,0,5.0,5.0,367.474079132,8.0,part_2,go,450.0,400.0,1.0,,,,,,,,,magenta,triangle
2.0,0,5.0,5.0,334.027051926,8.0,part_2,go,450.0,400.0,1.0,,,,,,,,,magenta,triangle
0.5,1,5.0,5.0,317.557096481,8.0,part_2,go,450.0,400.0,1.0,,,,,,,,,yellow,diamond
2.0,0,6.0,6.0,367.602109909,8.0,part_2,go,450.0,400.0,1.0,,,,,,,,,magenta,triangle
4.0,1,6.0,6.0,400.304794312,8.0,part_2,stop,450.0,450.0,3.0,,,,,,,,,blue,cross
4.0,0,5.0,5.0,384.222984314,8.0,part_2,go,450.0,450.0,1.0,,,,,,,,,white,square
1.0,1,6.0,,,8.0,,stop,450.0,400.0,4.0,,,,,,,,,orange,circle
2.0,1,6.0,,,8.0,,stop,450.0,450.0,4.0,,,,,,,,,gray,line
1.0,0,5.0,5.0,734.597921371,8.0,part_2,go,450.0,450.0,1.0,,,,,,,,,green,flipped triangle
4.0,1,6.0,,,8.0,,stop,450.0,500.0,4.0,,,,,,,,,blue,cross
0.5,0,6.0,6.0,701.1828422550001,8.0,part_2,go,450.0,500.0,1.0,,,,,,,,,cyan,hexagon
0.5,0,5.0,5.0,550.9769916529999,8.0,part_2,go,450.0,500.0,1.0,,,,,,,,,cyan,hexagon
1.0,0,6.0,6.0,600.723981857,8.0,part_2,go,450.0,500.0,1.0,,,,,,,,,green,flipped triangle
0.5,0,6.0,6.0,751.075029373,8.0,part_2,go,450.0,500.0,1.0,,,,,,,,,cyan,hexagon
1.0,0,6.0,6.0,367.35200882000004,8.0,part_2,go,450.0,500.0,1.0,,,,,,,,,green,flipped triangle
4.0,0,6.0,,,8.0,,go,450.0,500.0,5.0,,,,,,,,,white,square
1.0,1,6.0,5.0,250.591993332,8.0,part_2,stop,450.0,550.0,3.0,,,,,,,,,orange,circle
4.0,1,5.0,5.0,501.48296356199995,8.0,part_2,stop,400.0,550.0,3.0,,,,,,,,,blue,cross
1.0,1,6.0,,,8.0,,stop,400.0,500.0,4.0,,,,,,,,,orange,circle
0.5,0,5.0,5.0,717.934131622,8.0,part_2,go,400.0,500.0,1.0,,,,,,,,,cyan,hexagon
4.0,1,5.0,,,8.0,,stop,350.0,500.0,4.0,,,,,,,,,blue,cross
4.0,1,5.0,,,8.0,,stop,400.0,500.0,4.0,,,,,,,,,blue,cross
0.5,1,5.0,5.0,967.309951782,8.0,part_2,go,400.0,500.0,1.0,,,,,,,,,yellow,diamond
1.0,1,5.0,,,8.0,,stop,450.0,500.0,4.0,,,,,,,,,orange,circle
0.5,1,5.0,,,8.0,,stop,500.0,500.0,4.0,,,,,,,,,yellow,diamond
4.0,1,5.0,,,8.0,,stop,550.0,500.0,4.0,,,,,,,,,blue,cross
1.0,1,6.0,,,8.0,,go,550.0,500.0,5.0,,,,,,,,,orange,circle
0.5,1,5.0,5.0,484.349966049,8.0,part_2,stop,600.0,500.0,3.0,,,,,,,,,yellow,diamond
2.0,1,5.0,5.0,801.49102211,8.0,part_2,stop,550.0,500.0,3.0,,,,,,,,,gray,line
4.0,0,6.0,,,8.0,,go,550.0,500.0,5.0,,,,,,,,,white,square
4.0,1,5.0,5.0,467.925071716,8.0,part_2,go,550.0,500.0,1.0,,,,,,,,,blue,cross
0.5,1,5.0,5.0,384.460926056,8.0,part_2,go,550.0,500.0,1.0,,,,,,,,,yellow,diamond
1.0,0,6.0,,,8.0,,go,550.0,500.0,5.0,,,,,,,,,green,flipped triangle
1.0,0,7.0,,,1.0,,go,,,,0.0,,88.0,44.0,264.0,132.0,220.0,176.0,green,flipped triangle
0.5,1,7.0,3.0,2269.77992058,1.0,part_3,stop,,,,68.0,2.0,204.0,170.0,68.0,34.0,136.0,102.0,yellow,diamond
0.5,0,7.0,5.0,3287.43696213,1.0,part_3,go,,,,34.0,1.0,102.0,68.0,170.0,204.0,34.0,136.0,cyan,hexagon
4.0,1,7.0,1.0,4905.20310402,1.0,part_3,stop,,,,44.0,1.0,44.0,88.0,176.0,220.0,264.0,132.0,blue,cross
0.5,0,7.0,1.0,2352.3161411300002,1.0,part_3,go,,,,54.0,1.0,54.0,216.0,324.0,162.0,108.0,270.0,cyan,hexagon
2.0,1,7.0,4.0,4421.350955960001,1.0,part_3,stop,,,,216.0,4.0,54.0,270.0,108.0,216.0,162.0,324.0,gray,line
2.0,0,7.0,1.0,4021.2841033900004,1.0,part_3,go,,,,264.0,6.0,264.0,176.0,88.0,132.0,220.0,44.0,magenta,triangle
0.5,0,7.0,,,1.0,,go,,,,0.0,,204.0,102.0,34.0,68.0,170.0,136.0,cyan,hexagon
4.0,1,7.0,5.0,4905.83205223,1.0,part_3,stop,,,,234.0,6.0,78.0,117.0,195.0,39.0,234.0,156.0,blue,cross
0.5,1,7.0,,,1.0,,stop,,,,0.0,,196.0,147.0,49.0,245.0,294.0,98.0,yellow,diamond
1.0,1,7.0,4.0,1685.95314026,1.0,part_3,stop,,,,34.0,1.0,68.0,170.0,136.0,34.0,204.0,102.0,orange,circle
1.0,0,7.0,4.0,2770.0650692000004,1.0,part_3,go,,,,234.0,6.0,117.0,156.0,195.0,234.0,39.0,78.0,green,flipped triangle
0.5,1,7.0,6.0,3754.4779777500003,1.0,part_3,stop,,,,170.0,5.0,68.0,136.0,102.0,34.0,204.0,170.0,yellow,diamond
4.0,0,7.0,2.0,2952.9941082,1.0,part_3,go,,,,264.0,6.0,132.0,264.0,176.0,44.0,88.0,220.0,white,square
1.0,0,7.0,2.0,2503.21388245,1.0,part_3,go,,,,147.0,3.0,196.0,147.0,49.0,245.0,294.0,98.0,green,flipped triangle
4.0,0,7.0,5.0,2937.03389168,1.0,part_3,go,,,,324.0,6.0,270.0,108.0,162.0,216.0,324.0,54.0,white,square
2.0,0,7.0,5.0,2336.58099174,1.0,part_3,go,,,,195.0,5.0,156.0,78.0,39.0,234.0,195.0,117.0,magenta,triangle
1.0,1,7.0,2.0,1952.50797272,1.0,part_3,stop,,,,49.0,1.0,245.0,49.0,196.0,98.0,294.0,147.0,orange,circle
4.0,1,7.0,1.0,1601.7370224000001,1.0,part_3,stop,,,,324.0,6.0,324.0,162.0,108.0,270.0,216.0,54.0,blue,cross
1.0,1,7.0,4.0,3220.67308426,1.0,part_3,stop,,,,98.0,2.0,245.0,49.0,147.0,98.0,294.0,196.0,orange,circle
4.0,0,7.0,2.0,3203.60302925,2.0,part_3,go,,,,264.0,6.0,176.0,264.0,220.0,88.0,44.0,132.0,white,square
4.0,0,7.0,3.0,2402.8182029699997,2.0,part_3,go,,,,294.0,6.0,98.0,245.0,294.0,49.0,196.0,147.0,white,square
0.5,0,7.0,3.0,2169.7998046899997,2.0,part_3,go,,,,39.0,1.0,234.0,78.0,39.0,195.0,156.0,117.0,cyan,hexagon
4.0,1,7.0,6.0,3554.12507057,2.0,part_3,stop,,,,294.0,6.0,49.0,98.0,147.0,245.0,196.0,294.0,blue,cross
0.5,1,7.0,5.0,4371.14095688,2.0,part_3,stop,,,,39.0,1.0,156.0,234.0,78.0,195.0,39.0,117.0,yellow,diamond
0.5,0,7.0,6.0,2469.42210197,2.0,part_3,go,,,,49.0,1.0,196.0,98.0,245.0,294.0,147.0,49.0,cyan,hexagon
4.0,1,7.0,4.0,2819.88096237,2.0,part_3,stop,,,,204.0,6.0,102.0,34.0,136.0,204.0,68.0,170.0,blue,cross
2.0,1,7.0,4.0,2953.00889015,2.0,part_3,stop,,,,195.0,5.0,117.0,234.0,39.0,195.0,156.0,78.0,gray,line
2.0,1,7.0,1.0,2753.57198715,2.0,part_3,stop,,,,170.0,5.0,170.0,136.0,204.0,68.0,102.0,34.0,gray,line
0.5,0,7.0,2.0,3721.48609161,2.0,part_3,go,,,,39.0,1.0,234.0,39.0,156.0,78.0,117.0,195.0,cyan,hexagon
0.5,1,7.0,2.0,3737.23292351,2.0,part_3,stop,,,,176.0,4.0,220.0,176.0,88.0,44.0,264.0,132.0,yellow,diamond
2.0,1,7.0,1.0,2953.88007164,2.0,part_3,stop,,,,196.0,4.0,196.0,245.0,294.0,49.0,98.0,147.0,gray,line
0.5,0,7.0,4.0,1535.27116776,2.0,part_3,go,,,,44.0,1.0,264.0,88.0,132.0,44.0,176.0,220.0,cyan,hexagon
0.5,1,7.0,5.0,3220.5848693800003,2.0,part_3,stop,,,,196.0,4.0,147.0,245.0,49.0,98.0,196.0,294.0,yellow,diamond
4.0,1,7.0,6.0,2569.4830417599997,2.0,part_3,stop,,,,264.0,6.0,88.0,220.0,44.0,132.0,176.0,264.0,blue,cross
4.0,0,7.0,1.0,1601.91988945,2.0,part_3,go,,,,234.0,6.0,234.0,195.0,156.0,39.0,117.0,78.0,white,square
4.0,1,7.0,3.0,2919.65103149,2.0,part_3,stop,,,,270.0,5.0,216.0,108.0,270.0,324.0,54.0,162.0,blue,cross
4.0,0,7.0,5.0,1868.72196198,2.0,part_3,go,,,,234.0,6.0,156.0,195.0,78.0,117.0,234.0,39.0,white,square
4.0,0,7.0,4.0,951.0109424589999,2.0,part_3,go,,,,324.0,6.0,54.0,216.0,270.0,324.0,108.0,162.0,white,square
2.0,0,7.0,6.0,2486.23299599,2.0,part_3,go,,,,162.0,3.0,54.0,216.0,324.0,270.0,108.0,162.0,magenta,triangle
1.0,0,7.0,3.0,2402.8799533799997,3.0,part_3,go,,,,117.0,3.0,195.0,156.0,117.0,78.0,234.0,39.0,green,flipped triangle
2.0,1,7.0,6.0,2202.63791084,3.0,part_3,stop,,,,176.0,4.0,132.0,44.0,220.0,264.0,88.0,176.0,gray,line
0.5,0,7.0,6.0,2503.02100182,3.0,part_3,go,,,,44.0,1.0,264.0,176.0,132.0,88.0,220.0,44.0,cyan,hexagon
2.0,1,7.0,3.0,3353.6541461899997,3.0,part_3,stop,,,,170.0,5.0,68.0,102.0,170.0,34.0,136.0,204.0,gray,line
0.5,1,7.0,1.0,4321.1779594399995,3.0,part_3,stop,,,,132.0,3.0,132.0,44.0,220.0,88.0,264.0,176.0,yellow,diamond
0.5,1,7.0,6.0,1801.60522461,3.0,part_3,stop,,,,108.0,2.0,270.0,54.0,162.0,324.0,216.0,108.0,yellow,diamond
4.0,0,7.0,4.0,2402.85921097,3.0,part_3,go,,,,204.0,6.0,34.0,170.0,102.0,204.0,68.0,136.0,white,square
1.0,1,7.0,2.0,4288.198947909999,3.0,part_3,stop,,,,132.0,3.0,88.0,132.0,264.0,44.0,220.0,176.0,orange,circle
4.0,0,7.0,6.0,2786.9091033900004,3.0,part_3,go,,,,294.0,6.0,98.0,49.0,196.0,245.0,147.0,294.0,white,square
2.0,1,7.0,6.0,3787.35995293,3.0,part_3,stop,,,,294.0,6.0,245.0,147.0,196.0,98.0,49.0,294.0,gray,line
2.0,0,7.0,2.0,1201.47490501,3.0,part_3,go,,,,68.0,2.0,170.0,68.0,136.0,204.0,34.0,102.0,magenta,triangle
1.0,1,7.0,5.0,3136.85297966,3.0,part_3,stop,,,,108.0,2.0,270.0,162.0,54.0,324.0,108.0,216.0,orange,circle
1.0,0,7.0,1.0,3854.4108867600003,3.0,part_3,go,,,,196.0,4.0,196.0,147.0,245.0,98.0,294.0,49.0,green,flipped triangle
2.0,0,7.0,,,3.0,,go,,,,0.0,,156.0,39.0,78.0,117.0,234.0,195.0,magenta,triangle
2.0,1,7.0,4.0,1201.35712624,3.0,part_3,stop,,,,176.0,4.0,88.0,220.0,132.0,176.0,44.0,264.0,gray,line
1.0,0,7.0,5.0,1618.18814278,3.0,part_3,go,,,,204.0,6.0,68.0,34.0,102.0,170.0,204.0,136.0,green,flipped triangle
4.0,1,7.0,6.0,1852.25009918,3.0,part_3,stop,,,,294.0,6.0,245.0,147.0,196.0,49.0,98.0,294.0,blue,cross
1.0,1,7.0,4.0,3571.00701332,3.0,part_3,stop,,,,54.0,1.0,270.0,162.0,324.0,54.0,108.0,216.0,orange,circle
4.0,1,7.0,4.0,1902.28199959,3.0,part_3,stop,,,,234.0,6.0,39.0,195.0,156.0,234.0,78.0,117.0,blue,cross
0.5,0,7.0,4.0,1135.12611389,3.0,part_3,go,,,,49.0,1.0,147.0,98.0,245.0,49.0,294.0,196.0,cyan,hexagon
0.5,1,7.0,2.0,1902.51493454,4.0,part_3,stop,,,,54.0,1.0,108.0,54.0,270.0,216.0,162.0,324.0,yellow,diamond
2.0,0,7.0,3.0,3270.43199539,4.0,part_3,go,,,,162.0,3.0,54.0,324.0,162.0,216.0,270.0,108.0,magenta,triangle
2.0,1,7.0,3.0,3220.28493881,4.0,part_3,stop,,,,162.0,3.0,54.0,324.0,162.0,216.0,108.0,270.0,gray,line
1.0,1,7.0,4.0,2186.00487709,4.0,part_3,stop,,,,78.0,2.0,234.0,117.0,195.0,78.0,156.0,39.0,orange,circle
4.0,1,7.0,1.0,1268.1291103400001,4.0,part_3,stop,,,,204.0,6.0,204.0,170.0,34.0,102.0,136.0,68.0,blue,cross
4.0,0,7.0,3.0,2453.09400558,4.0,part_3,go,,,,204.0,6.0,102.0,136.0,204.0,170.0,34.0,68.0,white,square
2.0,1,7.0,1.0,2669.9640750900003,4.0,part_3,stop,,,,156.0,4.0,156.0,117.0,195.0,78.0,39.0,234.0,gray,line
2.0,0,7.0,,,4.0,,go,,,,0.0,,68.0,136.0,170.0,34.0,204.0,102.0,magenta,triangle
2.0,0,7.0,2.0,1401.69692039,4.0,part_3,go,,,,147.0,3.0,196.0,147.0,49.0,98.0,245.0,294.0,magenta,triangle
1.0,1,7.0,3.0,2385.95199585,4.0,part_3,stop,,,,88.0,2.0,220.0,44.0,88.0,132.0,176.0,264.0,orange,circle
0.5,1,7.0,5.0,1401.66902542,4.0,part_3,stop,,,,156.0,4.0,117.0,195.0,78.0,39.0,156.0,234.0,yellow,diamond
2.0,0,7.0,3.0,1735.68320274,4.0,part_3,go,,,,147.0,3.0,196.0,49.0,147.0,245.0,98.0,294.0,magenta,triangle
1.0,0,7.0,4.0,2386.12389565,4.0,part_3,go,,,,204.0,6.0,68.0,34.0,170.0,204.0,136.0,102.0,green,flipped triangle
0.5,0,7.0,3.0,2219.75398064,4.0,part_3,go,,,,54.0,1.0,108.0,324.0,54.0,270.0,162.0,216.0,cyan,hexagon
1.0,1,7.0,5.0,2986.51909828,4.0,part_3,stop,,,,78.0,2.0,195.0,117.0,156.0,39.0,78.0,234.0,orange,circle
1.0,0,7.0,4.0,3037.06884384,4.0,part_3,go,,,,132.0,3.0,44.0,220.0,176.0,132.0,88.0,264.0,green,flipped triangle
2.0,0,7.0,,,4.0,,go,,,,0.0,,264.0,132.0,88.0,176.0,220.0,44.0,magenta,triangle
1.0,1,7.0,3.0,3187.32714653,4.0,part_3,stop,,,,34.0,1.0,204.0,136.0,34.0,170.0,102.0,68.0,orange,circle
1.0,0,7.0,4.0,3287.17184067,4.0,part_3,go,,,,162.0,3.0,108.0,270.0,324.0,162.0,54.0,216.0,green,flipped triangle
1.0,0,7.0,2.0,2102.8928756699997,4.0,part_3,go,,,,162.0,3.0,324.0,162.0,54.0,216.0,270.0,108.0,green,flipped triangle
