stepwise_reward_magnitude,paired_with_stopping,quadrant,response,reaction_time,block,which_part,stop_signal_trial_type,left_SSD,right_SSD,accuracy,chosen_bidding_amount,chosen_bidding_level,possible_bid_1,possible_bid_2,possible_bid_3,possible_bid_4,possible_bid_5,possible_bid_6,color_text,shape_text
0.5,1,2.0,2.0,484.22002792399996,1.0,part_1,,,,,,,,,,,,,yellow,hexagon
1.0,1,2.0,2.0,333.978891373,1.0,part_1,,,,,,,,,,,,,cyan,cross
0.5,0,4.0,4.0,351.063013077,1.0,part_1,,,,,,,,,,,,,white,line
2.0,1,2.0,2.0,317.593097687,1.0,part_1,,,,,,,,,,,,,magenta,diamond
4.0,1,3.0,3.0,517.727851868,1.0,part_1,,,,,,,,,,,,,green,flipped triangle
2.0,1,3.0,3.0,501.27410888699995,1.0,part_1,,,,,,,,,,,,,magenta,diamond
4.0,0,1.0,1.0,351.000070572,1.0,part_1,,,,,,,,,,,,,orange,square
4.0,1,3.0,3.0,417.244911194,1.0,part_1,,,,,,,,,,,,,green,flipped triangle
4.0,1,1.0,1.0,400.80308914200003,1.0,part_1,,,,,,,,,,,,,green,flipped triangle
0.5,1,1.0,1.0,401.19409561199996,1.0,part_1,,,,,,,,,,,,,yellow,hexagon
2.0,1,2.0,2.0,384.06395912199997,1.0,part_1,,,,,,,,,,,,,magenta,diamond
2.0,1,4.0,4.0,317.517995834,1.0,part_1,,,,,,,,,,,,,magenta,diamond
4.0,1,4.0,4.0,317.34180450400004,1.0,part_1,,,,,,,,,,,,,green,flipped triangle
2.0,1,2.0,2.0,334.494113922,1.0,part_1,,,,,,,,,,,,,magenta,diamond
4.0,0,1.0,1.0,351.042985916,1.0,part_1,,,,,,,,,,,,,orange,square
2.0,0,4.0,4.0,400.979995728,1.0,part_1,,,,,,,,,,,,,blue,triangle
1.0,1,3.0,3.0,434.51499939,1.0,part_1,,,,,,,,,,,,,cyan,cross
0.5,0,4.0,4.0,434.04316902200003,1.0,part_1,,,,,,,,,,,,,white,line
2.0,0,2.0,2.0,434.16595459,1.0,part_1,,,,,,,,,,,,,blue,triangle
0.5,1,2.0,2.0,417.09899902300003,1.0,part_1,,,,,,,,,,,,,yellow,hexagon
2.0,0,3.0,3.0,334.180116653,1.0,part_1,,,,,,,,,,,,,blue,triangle
4.0,1,3.0,3.0,350.687980652,1.0,part_1,,,,,,,,,,,,,green,flipped triangle
4.0,0,1.0,1.0,634.454965591,1.0,part_1,,,,,,,,,,,,,orange,square
0.5,1,2.0,2.0,284.090995789,1.0,part_1,,,,,,,,,,,,,yellow,hexagon
0.5,1,1.0,1.0,350.86297988900003,1.0,part_1,,,,,,,,,,,,,yellow,hexagon
1.0,0,1.0,1.0,334.137916565,1.0,part_1,,,,,,,,,,,,,gray,circle
0.5,0,2.0,2.0,317.08908081100003,1.0,part_1,,,,,,,,,,,,,white,line
2.0,1,3.0,3.0,317.422866821,1.0,part_1,,,,,,,,,,,,,magenta,diamond
0.5,1,4.0,4.0,300.588846207,1.0,part_1,,,,,,,,,,,,,yellow,hexagon
0.5,0,3.0,3.0,351.329088211,1.0,part_1,,,,,,,,,,,,,white,line
0.5,0,3.0,3.0,317.780971527,1.0,part_1,,,,,,,,,,,,,white,line
2.0,0,2.0,2.0,367.219924927,1.0,part_1,,,,,,,,,,,,,blue,triangle
4.0,0,2.0,2.0,301.031112671,1.0,part_1,,,,,,,,,,,,,orange,square
0.5,0,3.0,3.0,367.812871933,1.0,part_1,,,,,,,,,,,,,white,line
0.5,0,4.0,4.0,334.11908149699997,1.0,part_1,,,,,,,,,,,,,white,line
1.0,0,4.0,4.0,350.40092468299997,1.0,part_1,,,,,,,,,,,,,gray,circle
4.0,1,1.0,1.0,484.40980911300005,1.0,part_1,,,,,,,,,,,,,green,flipped triangle
1.0,1,4.0,4.0,317.552804947,1.0,part_1,,,,,,,,,,,,,cyan,cross
2.0,0,4.0,4.0,367.62619018600003,1.0,part_1,,,,,,,,,,,,,blue,triangle
0.5,0,2.0,2.0,417.31595992999996,1.0,part_1,,,,,,,,,,,,,white,line
0.5,1,4.0,4.0,367.630004883,1.0,part_1,,,,,,,,,,,,,yellow,hexagon
4.0,0,3.0,3.0,383.904933929,1.0,part_1,,,,,,,,,,,,,orange,square
0.5,1,1.0,1.0,384.36293602,1.0,part_1,,,,,,,,,,,,,yellow,hexagon
1.0,0,1.0,1.0,367.80381202700005,1.0,part_1,,,,,,,,,,,,,gray,circle
1.0,0,3.0,3.0,317.501068115,1.0,part_1,,,,,,,,,,,,,gray,circle
4.0,0,3.0,3.0,300.701141357,1.0,part_1,,,,,,,,,,,,,orange,square
1.0,0,3.0,3.0,350.59499740599995,1.0,part_1,,,,,,,,,,,,,gray,circle
1.0,1,3.0,3.0,384.135007858,1.0,part_1,,,,,,,,,,,,,cyan,cross
0.5,0,4.0,4.0,350.811958313,1.0,part_1,,,,,,,,,,,,,white,line
1.0,1,2.0,2.0,318.114042282,1.0,part_1,,,,,,,,,,,,,cyan,cross
2.0,1,4.0,4.0,350.867986679,1.0,part_1,,,,,,,,,,,,,magenta,diamond
2.0,0,4.0,4.0,333.603143692,1.0,part_1,,,,,,,,,,,,,blue,triangle
0.5,1,1.0,1.0,384.693861008,1.0,part_1,,,,,,,,,,,,,yellow,hexagon
0.5,0,1.0,1.0,334.555864334,1.0,part_1,,,,,,,,,,,,,white,line
1.0,1,1.0,1.0,317.34800338699995,1.0,part_1,,,,,,,,,,,,,cyan,cross
1.0,1,4.0,4.0,467.667102814,1.0,part_1,,,,,,,,,,,,,cyan,cross
2.0,1,4.0,4.0,333.914995193,1.0,part_1,,,,,,,,,,,,,magenta,diamond
0.5,1,1.0,1.0,367.337942123,1.0,part_1,,,,,,,,,,,,,yellow,hexagon
0.5,0,4.0,4.0,334.036111832,1.0,part_1,,,,,,,,,,,,,white,line
0.5,0,2.0,2.0,350.691080093,1.0,part_1,,,,,,,,,,,,,white,line
2.0,1,3.0,3.0,383.955001831,1.0,part_1,,,,,,,,,,,,,magenta,diamond
1.0,0,2.0,2.0,384.565830231,1.0,part_1,,,,,,,,,,,,,gray,circle
0.5,0,3.0,3.0,417.773008347,1.0,part_1,,,,,,,,,,,,,white,line
0.5,0,4.0,4.0,367.215871811,1.0,part_1,,,,,,,,,,,,,white,line
1.0,1,1.0,1.0,384.29403305100004,1.0,part_1,,,,,,,,,,,,,cyan,cross
0.5,0,1.0,1.0,284.23190116899997,1.0,part_1,,,,,,,,,,,,,white,line
0.5,1,1.0,1.0,317.35801696799996,1.0,part_1,,,,,,,,,,,,,yellow,hexagon
2.0,0,1.0,1.0,350.914001465,1.0,part_1,,,,,,,,,,,,,blue,triangle
0.5,0,3.0,3.0,367.59305000300003,1.0,part_1,,,,,,,,,,,,,white,line
1.0,0,4.0,4.0,383.90588760400004,1.0,part_1,,,,,,,,,,,,,gray,circle
2.0,0,1.0,1.0,367.391109467,1.0,part_1,,,,,,,,,,,,,blue,triangle
0.5,1,4.0,4.0,334.103107452,1.0,part_1,,,,,,,,,,,,,yellow,hexagon
2.0,0,1.0,1.0,467.64087677,1.0,part_1,,,,,,,,,,,,,blue,triangle
4.0,1,2.0,2.0,334.082126617,1.0,part_1,,,,,,,,,,,,,green,flipped triangle
1.0,0,1.0,1.0,434.652090073,1.0,part_1,,,,,,,,,,,,,gray,circle
1.0,1,3.0,3.0,384.510993958,1.0,part_1,,,,,,,,,,,,,cyan,cross
2.0,0,4.0,4.0,367.370843887,1.0,part_1,,,,,,,,,,,,,blue,triangle
0.5,0,3.0,3.0,401.128053665,1.0,part_1,,,,,,,,,,,,,white,line
4.0,1,2.0,2.0,367.493867874,1.0,part_1,,,,,,,,,,,,,green,flipped triangle
4.0,1,3.0,3.0,384.665966034,1.0,part_1,,,,,,,,,,,,,green,flipped triangle
4.0,1,2.0,2.0,417.562961578,1.0,part_1,,,,,,,,,,,,,green,flipped triangle
0.5,1,1.0,1.0,417.11711883500004,1.0,part_1,,,,,,,,,,,,,yellow,hexagon
1.0,1,1.0,1.0,417.823076248,1.0,part_1,,,,,,,,,,,,,cyan,cross
2.0,0,3.0,3.0,417.64903068499996,1.0,part_1,,,,,,,,,,,,,blue,triangle
0.5,1,2.0,2.0,334.59305763199995,1.0,part_1,,,,,,,,,,,,,yellow,hexagon
4.0,1,1.0,1.0,417.366981506,1.0,part_1,,,,,,,,,,,,,green,flipped triangle
2.0,0,2.0,2.0,367.57016181899996,1.0,part_1,,,,,,,,,,,,,blue,triangle
4.0,1,2.0,2.0,301.40209198,1.0,part_1,,,,,,,,,,,,,green,flipped triangle
1.0,1,4.0,4.0,417.74201393100003,1.0,part_1,,,,,,,,,,,,,cyan,cross
1.0,0,2.0,2.0,317.437887192,1.0,part_1,,,,,,,,,,,,,gray,circle
0.5,0,3.0,3.0,384.314060211,1.0,part_1,,,,,,,,,,,,,white,line
1.0,1,2.0,2.0,367.384195328,1.0,part_1,,,,,,,,,,,,,cyan,cross
2.0,1,4.0,4.0,401.48091316200004,1.0,part_1,,,,,,,,,,,,,magenta,diamond
1.0,1,1.0,1.0,400.465011597,1.0,part_1,,,,,,,,,,,,,cyan,cross
2.0,0,4.0,4.0,367.472887039,1.0,part_1,,,,,,,,,,,,,blue,triangle
4.0,0,2.0,2.0,367.46311187699996,1.0,part_1,,,,,,,,,,,,,orange,square
2.0,1,3.0,3.0,551.472187042,1.0,part_1,,,,,,,,,,,,,magenta,diamond
1.0,0,4.0,4.0,617.505073547,1.0,part_1,,,,,,,,,,,,,gray,circle
2.0,1,3.0,3.0,334.71393585199996,1.0,part_1,,,,,,,,,,,,,magenta,diamond
2.0,1,2.0,2.0,584.456205368,1.0,part_1,,,,,,,,,,,,,magenta,diamond
0.5,0,2.0,2.0,384.14287567099996,2.0,part_1,,,,,,,,,,,,,white,line
1.0,1,2.0,2.0,333.94598960900004,2.0,part_1,,,,,,,,,,,,,cyan,cross
4.0,1,3.0,3.0,367.41495132399996,2.0,part_1,,,,,,,,,,,,,green,flipped triangle
1.0,0,2.0,2.0,367.681026459,2.0,part_1,,,,,,,,,,,,,gray,circle
0.5,0,2.0,2.0,334.435939789,2.0,part_1,,,,,,,,,,,,,white,line
1.0,1,4.0,4.0,367.269039154,2.0,part_1,,,,,,,,,,,,,cyan,cross
0.5,1,1.0,1.0,334.33103561400003,2.0,part_1,,,,,,,,,,,,,yellow,hexagon
0.5,1,4.0,4.0,383.977890015,2.0,part_1,,,,,,,,,,,,,yellow,hexagon
1.0,0,4.0,4.0,334.138870239,2.0,part_1,,,,,,,,,,,,,gray,circle
2.0,1,1.0,1.0,317.945957184,2.0,part_1,,,,,,,,,,,,,magenta,diamond
0.5,1,4.0,4.0,367.93994903600003,2.0,part_1,,,,,,,,,,,,,yellow,hexagon
1.0,1,3.0,3.0,367.286920547,2.0,part_1,,,,,,,,,,,,,cyan,cross
1.0,1,2.0,2.0,351.027011871,2.0,part_1,,,,,,,,,,,,,cyan,cross
1.0,0,3.0,3.0,367.471218109,2.0,part_1,,,,,,,,,,,,,gray,circle
4.0,0,1.0,1.0,368.115186691,2.0,part_1,,,,,,,,,,,,,orange,square
2.0,0,4.0,4.0,384.224891663,2.0,part_1,,,,,,,,,,,,,blue,triangle
2.0,1,4.0,4.0,350.84605216999995,2.0,part_1,,,,,,,,,,,,,magenta,diamond
1.0,0,1.0,1.0,400.7999897,2.0,part_1,,,,,,,,,,,,,gray,circle
1.0,0,2.0,2.0,467.837810516,2.0,part_1,,,,,,,,,,,,,gray,circle
1.0,1,3.0,3.0,500.9729862209999,2.0,part_1,,,,,,,,,,,,,cyan,cross
2.0,1,1.0,1.0,700.875997543,2.0,part_1,,,,,,,,,,,,,magenta,diamond
1.0,0,2.0,2.0,450.678110123,2.0,part_1,,,,,,,,,,,,,gray,circle
1.0,1,4.0,4.0,400.675058365,2.0,part_1,,,,,,,,,,,,,cyan,cross
2.0,0,2.0,2.0,367.639064789,2.0,part_1,,,,,,,,,,,,,blue,triangle
4.0,1,4.0,4.0,400.876998901,2.0,part_1,,,,,,,,,,,,,green,flipped triangle
1.0,0,1.0,1.0,450.878858566,2.0,part_1,,,,,,,,,,,,,gray,circle
2.0,0,3.0,3.0,400.849103928,2.0,part_1,,,,,,,,,,,,,blue,triangle
1.0,0,4.0,4.0,350.59809684799995,2.0,part_1,,,,,,,,,,,,,gray,circle
0.5,1,2.0,2.0,384.359121323,2.0,part_1,,,,,,,,,,,,,yellow,hexagon
2.0,0,1.0,1.0,417.909145355,2.0,part_1,,,,,,,,,,,,,blue,triangle
0.5,0,1.0,1.0,367.291212082,2.0,part_1,,,,,,,,,,,,,white,line
4.0,1,2.0,2.0,334.455013275,2.0,part_1,,,,,,,,,,,,,green,flipped triangle
0.5,1,1.0,1.0,384.011030197,2.0,part_1,,,,,,,,,,,,,yellow,hexagon
1.0,1,1.0,1.0,367.46311187699996,2.0,part_1,,,,,,,,,,,,,cyan,cross
2.0,1,4.0,4.0,434.142112732,2.0,part_1,,,,,,,,,,,,,magenta,diamond
4.0,0,4.0,4.0,334.265947342,2.0,part_1,,,,,,,,,,,,,orange,square
4.0,0,1.0,1.0,418.004989624,2.0,part_1,,,,,,,,,,,,,orange,square
1.0,0,4.0,4.0,400.69890022299995,2.0,part_1,,,,,,,,,,,,,gray,circle
1.0,1,3.0,3.0,601.561069489,2.0,part_1,,,,,,,,,,,,,cyan,cross
4.0,0,4.0,4.0,400.88105201699994,2.0,part_1,,,,,,,,,,,,,orange,square
0.5,1,3.0,3.0,384.12499427800003,2.0,part_1,,,,,,,,,,,,,yellow,hexagon
2.0,0,2.0,2.0,367.906093597,2.0,part_1,,,,,,,,,,,,,blue,triangle
4.0,1,1.0,1.0,300.839185715,2.0,part_1,,,,,,,,,,,,,green,flipped triangle
4.0,0,2.0,2.0,367.536783218,2.0,part_1,,,,,,,,,,,,,orange,square
1.0,0,3.0,3.0,383.710861206,2.0,part_1,,,,,,,,,,,,,gray,circle
0.5,0,3.0,3.0,400.861978531,2.0,part_1,,,,,,,,,,,,,white,line
4.0,0,4.0,4.0,367.60687828100004,2.0,part_1,,,,,,,,,,,,,orange,square
4.0,0,1.0,1.0,334.553956985,2.0,part_1,,,,,,,,,,,,,orange,square
2.0,1,1.0,1.0,267.34495162999997,2.0,part_1,,,,,,,,,,,,,magenta,diamond
1.0,1,3.0,3.0,317.600011826,2.0,part_1,,,,,,,,,,,,,cyan,cross
2.0,0,4.0,4.0,334.181070328,2.0,part_1,,,,,,,,,,,,,blue,triangle
4.0,1,1.0,1.0,417.424917221,2.0,part_1,,,,,,,,,,,,,green,flipped triangle
1.0,1,4.0,4.0,384.811878204,2.0,part_1,,,,,,,,,,,,,cyan,cross
4.0,1,2.0,2.0,467.743873596,2.0,part_1,,,,,,,,,,,,,green,flipped triangle
4.0,1,3.0,3.0,351.137876511,2.0,part_1,,,,,,,,,,,,,green,flipped triangle
1.0,0,3.0,3.0,367.670059204,2.0,part_1,,,,,,,,,,,,,gray,circle
1.0,0,3.0,3.0,351.479053497,2.0,part_1,,,,,,,,,,,,,gray,circle
1.0,1,2.0,2.0,400.712013245,2.0,part_1,,,,,,,,,,,,,cyan,cross
2.0,1,3.0,3.0,367.49792099,2.0,part_1,,,,,,,,,,,,,magenta,diamond
0.5,0,4.0,4.0,400.995969772,2.0,part_1,,,,,,,,,,,,,white,line
2.0,0,4.0,4.0,568.1631565089999,2.0,part_1,,,,,,,,,,,,,blue,triangle
0.5,0,3.0,3.0,367.386817932,2.0,part_1,,,,,,,,,,,,,white,line
2.0,0,3.0,3.0,367.937088013,2.0,part_1,,,,,,,,,,,,,blue,triangle
4.0,0,3.0,3.0,334.223985672,2.0,part_1,,,,,,,,,,,,,orange,square
1.0,0,3.0,3.0,300.42600631700003,2.0,part_1,,,,,,,,,,,,,gray,circle
4.0,0,1.0,1.0,467.552900314,2.0,part_1,,,,,,,,,,,,,orange,square
4.0,0,2.0,2.0,551.2261390689999,2.0,part_1,,,,,,,,,,,,,orange,square
4.0,0,4.0,4.0,350.937843323,2.0,part_1,,,,,,,,,,,,,orange,square
4.0,1,3.0,3.0,517.588853836,2.0,part_1,,,,,,,,,,,,,green,flipped triangle
4.0,0,4.0,4.0,367.54107475300003,2.0,part_1,,,,,,,,,,,,,orange,square
1.0,1,4.0,4.0,384.007930756,2.0,part_1,,,,,,,,,,,,,cyan,cross
1.0,1,4.0,4.0,400.60997009299996,2.0,part_1,,,,,,,,,,,,,cyan,cross
2.0,0,1.0,1.0,384.553909302,2.0,part_1,,,,,,,,,,,,,blue,triangle
2.0,1,1.0,1.0,434.39722061199996,2.0,part_1,,,,,,,,,,,,,magenta,diamond
1.0,1,2.0,2.0,317.002058029,2.0,part_1,,,,,,,,,,,,,cyan,cross
0.5,1,4.0,4.0,400.98190307600004,2.0,part_1,,,,,,,,,,,,,yellow,hexagon
0.5,1,1.0,1.0,384.300947189,2.0,part_1,,,,,,,,,,,,,yellow,hexagon
2.0,0,3.0,3.0,351.069927216,2.0,part_1,,,,,,,,,,,,,blue,triangle
2.0,0,2.0,2.0,467.47016906700003,2.0,part_1,,,,,,,,,,,,,blue,triangle
1.0,0,3.0,3.0,434.405088425,2.0,part_1,,,,,,,,,,,,,gray,circle
1.0,0,2.0,2.0,351.026058197,2.0,part_1,,,,,,,,,,,,,gray,circle
0.5,0,3.0,3.0,417.534828186,2.0,part_1,,,,,,,,,,,,,white,line
0.5,1,1.0,1.0,534.40117836,2.0,part_1,,,,,,,,,,,,,yellow,hexagon
2.0,1,2.0,2.0,501.57809257499997,2.0,part_1,,,,,,,,,,,,,magenta,diamond
4.0,1,2.0,2.0,434.720039368,2.0,part_1,,,,,,,,,,,,,green,flipped triangle
4.0,0,3.0,3.0,600.931882858,2.0,part_1,,,,,,,,,,,,,orange,square
0.5,1,2.0,2.0,367.341995239,2.0,part_1,,,,,,,,,,,,,yellow,hexagon
0.5,0,1.0,1.0,434.147119522,2.0,part_1,,,,,,,,,,,,,white,line
2.0,0,1.0,1.0,350.327014923,2.0,part_1,,,,,,,,,,,,,blue,triangle
4.0,1,3.0,3.0,484.314918518,2.0,part_1,,,,,,,,,,,,,green,flipped triangle
2.0,1,4.0,4.0,417.705059052,2.0,part_1,,,,,,,,,,,,,magenta,diamond
2.0,1,2.0,2.0,417.65999794000004,2.0,part_1,,,,,,,,,,,,,magenta,diamond
2.0,0,1.0,1.0,451.421022415,2.0,part_1,,,,,,,,,,,,,blue,triangle
4.0,1,4.0,4.0,567.7561759949999,2.0,part_1,,,,,,,,,,,,,green,flipped triangle
1.0,0,2.0,2.0,400.758981705,2.0,part_1,,,,,,,,,,,,,gray,circle
1.0,0,1.0,1.0,417.905807495,2.0,part_1,,,,,,,,,,,,,gray,circle
4.0,0,3.0,3.0,450.956106186,2.0,part_1,,,,,,,,,,,,,orange,square
4.0,1,2.0,2.0,401.179075241,2.0,part_1,,,,,,,,,,,,,green,flipped triangle
0.5,1,2.0,2.0,333.945035934,2.0,part_1,,,,,,,,,,,,,yellow,hexagon
0.5,1,1.0,1.0,434.064865112,2.0,part_1,,,,,,,,,,,,,yellow,hexagon
2.0,1,3.0,3.0,417.703151703,3.0,part_1,,,,,,,,,,,,,magenta,diamond
1.0,0,2.0,2.0,433.89701843299997,3.0,part_1,,,,,,,,,,,,,gray,circle
4.0,0,3.0,3.0,434.600830078,3.0,part_1,,,,,,,,,,,,,orange,square
2.0,1,1.0,1.0,350.630998611,3.0,part_1,,,,,,,,,,,,,magenta,diamond
1.0,0,4.0,4.0,284.554004669,3.0,part_1,,,,,,,,,,,,,gray,circle
0.5,0,3.0,3.0,434.587955475,3.0,part_1,,,,,,,,,,,,,white,line
2.0,0,2.0,2.0,367.713928223,3.0,part_1,,,,,,,,,,,,,blue,triangle
2.0,1,2.0,2.0,551.1248111719999,3.0,part_1,,,,,,,,,,,,,magenta,diamond
4.0,1,1.0,1.0,350.848913193,3.0,part_1,,,,,,,,,,,,,green,flipped triangle
2.0,1,1.0,1.0,284.090995789,3.0,part_1,,,,,,,,,,,,,magenta,diamond
2.0,0,3.0,3.0,367.223978043,3.0,part_1,,,,,,,,,,,,,blue,triangle
0.5,1,2.0,2.0,333.995103836,3.0,part_1,,,,,,,,,,,,,yellow,hexagon
1.0,0,1.0,1.0,317.76714325,3.0,part_1,,,,,,,,,,,,,gray,circle
4.0,0,1.0,1.0,334.179162979,3.0,part_1,,,,,,,,,,,,,orange,square
4.0,1,4.0,4.0,383.94403457600004,3.0,part_1,,,,,,,,,,,,,green,flipped triangle
0.5,0,4.0,4.0,317.574977875,3.0,part_1,,,,,,,,,,,,,white,line
2.0,0,3.0,3.0,417.402982712,3.0,part_1,,,,,,,,,,,,,blue,triangle
0.5,0,3.0,3.0,351.25112533600003,3.0,part_1,,,,,,,,,,,,,white,line
1.0,1,2.0,2.0,350.689172745,3.0,part_1,,,,,,,,,,,,,cyan,cross
1.0,0,1.0,1.0,367.44594574,3.0,part_1,,,,,,,,,,,,,gray,circle
4.0,1,4.0,4.0,367.63215064999997,3.0,part_1,,,,,,,,,,,,,green,flipped triangle
0.5,1,3.0,3.0,350.986003876,3.0,part_1,,,,,,,,,,,,,yellow,hexagon
2.0,1,2.0,2.0,500.829935074,3.0,part_1,,,,,,,,,,,,,magenta,diamond
0.5,1,1.0,1.0,384.292125702,3.0,part_1,,,,,,,,,,,,,yellow,hexagon
4.0,0,4.0,4.0,367.630958557,3.0,part_1,,,,,,,,,,,,,orange,square
0.5,1,4.0,4.0,334.393978119,3.0,part_1,,,,,,,,,,,,,yellow,hexagon
2.0,0,4.0,4.0,467.359781265,3.0,part_1,,,,,,,,,,,,,blue,triangle
0.5,0,1.0,1.0,350.69704055799997,3.0,part_1,,,,,,,,,,,,,white,line
4.0,1,4.0,4.0,367.280006409,3.0,part_1,,,,,,,,,,,,,green,flipped triangle
1.0,1,3.0,3.0,434.11898613,3.0,part_1,,,,,,,,,,,,,cyan,cross
2.0,1,4.0,4.0,334.238052368,3.0,part_1,,,,,,,,,,,,,magenta,diamond
4.0,0,3.0,3.0,367.952108383,3.0,part_1,,,,,,,,,,,,,orange,square
0.5,0,4.0,4.0,400.57301521299996,3.0,part_1,,,,,,,,,,,,,white,line
1.0,0,3.0,3.0,334.345817566,3.0,part_1,,,,,,,,,,,,,gray,circle
2.0,0,4.0,4.0,384.454965591,3.0,part_1,,,,,,,,,,,,,blue,triangle
4.0,1,2.0,2.0,417.475938797,3.0,part_1,,,,,,,,,,,,,green,flipped triangle
0.5,0,3.0,3.0,534.152984619,3.0,part_1,,,,,,,,,,,,,white,line
0.5,0,1.0,1.0,500.992059708,3.0,part_1,,,,,,,,,,,,,white,line
0.5,1,2.0,2.0,517.3959732059999,3.0,part_1,,,,,,,,,,,,,yellow,hexagon
0.5,0,4.0,4.0,434.343099594,3.0,part_1,,,,,,,,,,,,,white,line
4.0,0,4.0,4.0,351.340055466,3.0,part_1,,,,,,,,,,,,,orange,square
0.5,1,4.0,4.0,400.768041611,3.0,part_1,,,,,,,,,,,,,yellow,hexagon
0.5,1,1.0,1.0,283.946037292,3.0,part_1,,,,,,,,,,,,,yellow,hexagon
1.0,0,2.0,2.0,384.250879288,3.0,part_1,,,,,,,,,,,,,gray,circle
4.0,1,4.0,4.0,351.09710693399995,3.0,part_1,,,,,,,,,,,,,green,flipped triangle
0.5,1,2.0,2.0,284.220933914,3.0,part_1,,,,,,,,,,,,,yellow,hexagon
1.0,1,1.0,1.0,334.639072418,3.0,part_1,,,,,,,,,,,,,cyan,cross
1.0,1,2.0,2.0,384.00888442999997,3.0,part_1,,,,,,,,,,,,,cyan,cross
1.0,0,3.0,3.0,367.45190620399995,3.0,part_1,,,,,,,,,,,,,gray,circle
0.5,1,2.0,2.0,501.266956329,3.0,part_1,,,,,,,,,,,,,yellow,hexagon
4.0,1,4.0,4.0,367.961168289,3.0,part_1,,,,,,,,,,,,,green,flipped triangle
2.0,0,2.0,2.0,368.026971817,3.0,part_1,,,,,,,,,,,,,blue,triangle
4.0,0,3.0,3.0,367.045164108,3.0,part_1,,,,,,,,,,,,,orange,square
2.0,0,2.0,2.0,384.4871521,3.0,part_1,,,,,,,,,,,,,blue,triangle
4.0,0,3.0,3.0,333.836078644,3.0,part_1,,,,,,,,,,,,,orange,square
1.0,0,1.0,1.0,367.604017258,3.0,part_1,,,,,,,,,,,,,gray,circle
0.5,0,4.0,4.0,534.744977951,3.0,part_1,,,,,,,,,,,,,white,line
4.0,0,4.0,4.0,401.335954666,3.0,part_1,,,,,,,,,,,,,orange,square
0.5,1,2.0,2.0,350.800991058,3.0,part_1,,,,,,,,,,,,,yellow,hexagon
1.0,1,1.0,1.0,317.367076874,3.0,part_1,,,,,,,,,,,,,cyan,cross
4.0,1,1.0,1.0,284.483194351,3.0,part_1,,,,,,,,,,,,,green,flipped triangle
4.0,0,4.0,4.0,350.927829742,3.0,part_1,,,,,,,,,,,,,orange,square
1.0,0,1.0,1.0,400.916814804,3.0,part_1,,,,,,,,,,,,,gray,circle
4.0,1,3.0,3.0,350.826978683,3.0,part_1,,,,,,,,,,,,,green,flipped triangle
2.0,0,4.0,4.0,384.74512100199996,3.0,part_1,,,,,,,,,,,,,blue,triangle
4.0,0,1.0,1.0,317.213058472,3.0,part_1,,,,,,,,,,,,,orange,square
2.0,0,2.0,2.0,317.337989807,3.0,part_1,,,,,,,,,,,,,blue,triangle
0.5,0,3.0,3.0,367.254972458,3.0,part_1,,,,,,,,,,,,,white,line
4.0,1,3.0,3.0,367.39015579200003,3.0,part_1,,,,,,,,,,,,,green,flipped triangle
4.0,0,2.0,2.0,534.247159958,3.0,part_1,,,,,,,,,,,,,orange,square
2.0,1,3.0,3.0,367.877960205,3.0,part_1,,,,,,,,,,,,,magenta,diamond
2.0,0,2.0,2.0,367.446899414,3.0,part_1,,,,,,,,,,,,,blue,triangle
4.0,0,2.0,2.0,400.73084831200003,3.0,part_1,,,,,,,,,,,,,orange,square
1.0,1,3.0,3.0,334.202051163,3.0,part_1,,,,,,,,,,,,,cyan,cross
4.0,0,1.0,1.0,451.17688179,3.0,part_1,,,,,,,,,,,,,orange,square
1.0,0,4.0,4.0,417.099952698,3.0,part_1,,,,,,,,,,,,,gray,circle
4.0,0,3.0,3.0,333.920955658,3.0,part_1,,,,,,,,,,,,,orange,square
0.5,1,4.0,4.0,384.649991989,3.0,part_1,,,,,,,,,,,,,yellow,hexagon
4.0,0,4.0,4.0,384.59706306500004,3.0,part_1,,,,,,,,,,,,,orange,square
2.0,1,3.0,3.0,367.28811264,3.0,part_1,,,,,,,,,,,,,magenta,diamond
0.5,0,3.0,3.0,316.94984436,3.0,part_1,,,,,,,,,,,,,white,line
4.0,1,2.0,2.0,500.697851181,3.0,part_1,,,,,,,,,,,,,green,flipped triangle
2.0,1,2.0,2.0,284.156084061,3.0,part_1,,,,,,,,,,,,,magenta,diamond
2.0,1,3.0,3.0,401.039123535,3.0,part_1,,,,,,,,,,,,,magenta,diamond
4.0,1,2.0,2.0,350.90303421000004,3.0,part_1,,,,,,,,,,,,,green,flipped triangle
2.0,1,2.0,2.0,300.82488060000003,3.0,part_1,,,,,,,,,,,,,magenta,diamond
0.5,1,1.0,1.0,384.27901268,3.0,part_1,,,,,,,,,,,,,yellow,hexagon
0.5,0,4.0,4.0,417.35601425199997,3.0,part_1,,,,,,,,,,,,,white,line
1.0,1,1.0,1.0,301.130056381,3.0,part_1,,,,,,,,,,,,,cyan,cross
0.5,1,1.0,1.0,367.56587028499996,3.0,part_1,,,,,,,,,,,,,yellow,hexagon
2.0,0,2.0,2.0,400.907993317,3.0,part_1,,,,,,,,,,,,,blue,triangle
0.5,0,3.0,3.0,434.270858765,3.0,part_1,,,,,,,,,,,,,white,line
0.5,0,1.0,1.0,367.780208588,3.0,part_1,,,,,,,,,,,,,white,line
2.0,1,1.0,1.0,300.81200599699997,3.0,part_1,,,,,,,,,,,,,magenta,diamond
4.0,1,1.0,1.0,317.58403778099995,3.0,part_1,,,,,,,,,,,,,green,flipped triangle
1.0,1,1.0,1.0,317.682027817,3.0,part_1,,,,,,,,,,,,,cyan,cross
1.0,0,3.0,3.0,417.733192444,3.0,part_1,,,,,,,,,,,,,gray,circle
2.0,0,1.0,1.0,350.522041321,3.0,part_1,,,,,,,,,,,,,blue,triangle
2.0,0,2.0,2.0,367.733955383,3.0,part_1,,,,,,,,,,,,,blue,triangle
0.5,1,4.0,4.0,350.513935089,3.0,part_1,,,,,,,,,,,,,yellow,hexagon
0.5,0,2.0,2.0,383.947134018,4.0,part_1,,,,,,,,,,,,,white,line
0.5,1,4.0,4.0,350.59499740599995,4.0,part_1,,,,,,,,,,,,,yellow,hexagon
4.0,1,3.0,3.0,317.607879639,4.0,part_1,,,,,,,,,,,,,green,flipped triangle
4.0,0,1.0,1.0,350.958824158,4.0,part_1,,,,,,,,,,,,,orange,square
1.0,1,2.0,2.0,400.615930557,4.0,part_1,,,,,,,,,,,,,cyan,cross
4.0,1,3.0,3.0,334.040880203,4.0,part_1,,,,,,,,,,,,,green,flipped triangle
0.5,0,4.0,4.0,434.17382240300003,4.0,part_1,,,,,,,,,,,,,white,line
2.0,1,2.0,2.0,467.82207489,4.0,part_1,,,,,,,,,,,,,magenta,diamond
0.5,0,1.0,1.0,484.247922897,4.0,part_1,,,,,,,,,,,,,white,line
4.0,0,1.0,1.0,601.0620594019999,4.0,part_1,,,,,,,,,,,,,orange,square
0.5,1,2.0,2.0,434.24391746500004,4.0,part_1,,,,,,,,,,,,,yellow,hexagon
2.0,0,4.0,4.0,367.471933365,4.0,part_1,,,,,,,,,,,,,blue,triangle
1.0,1,2.0,2.0,668.3139801030001,4.0,part_1,,,,,,,,,,,,,cyan,cross
4.0,0,3.0,3.0,433.79807472199997,4.0,part_1,,,,,,,,,,,,,orange,square
4.0,0,4.0,4.0,651.4439582819999,4.0,part_1,,,,,,,,,,,,,orange,square
2.0,0,3.0,3.0,484.285116196,4.0,part_1,,,,,,,,,,,,,blue,triangle
0.5,1,3.0,3.0,417.158126831,4.0,part_1,,,,,,,,,,,,,yellow,hexagon
2.0,0,1.0,1.0,434.17096138,4.0,part_1,,,,,,,,,,,,,blue,triangle
1.0,1,1.0,1.0,384.211063385,4.0,part_1,,,,,,,,,,,,,cyan,cross
4.0,1,1.0,1.0,334.197998047,4.0,part_1,,,,,,,,,,,,,green,flipped triangle
1.0,1,2.0,2.0,483.89005661,4.0,part_1,,,,,,,,,,,,,cyan,cross
0.5,0,1.0,1.0,350.587129593,4.0,part_1,,,,,,,,,,,,,white,line
4.0,1,4.0,4.0,450.81400871299996,4.0,part_1,,,,,,,,,,,,,green,flipped triangle
4.0,1,1.0,1.0,384.390115738,4.0,part_1,,,,,,,,,,,,,green,flipped triangle
2.0,0,1.0,1.0,367.342948914,4.0,part_1,,,,,,,,,,,,,blue,triangle
2.0,1,4.0,4.0,400.730133057,4.0,part_1,,,,,,,,,,,,,magenta,diamond
4.0,1,4.0,4.0,333.842039108,4.0,part_1,,,,,,,,,,,,,green,flipped triangle
1.0,1,1.0,1.0,434.25893783600003,4.0,part_1,,,,,,,,,,,,,cyan,cross
2.0,0,3.0,3.0,533.874034882,4.0,part_1,,,,,,,,,,,,,blue,triangle
2.0,1,3.0,3.0,367.52510070799997,4.0,part_1,,,,,,,,,,,,,magenta,diamond
1.0,0,2.0,2.0,400.707960129,4.0,part_1,,,,,,,,,,,,,gray,circle
2.0,1,4.0,4.0,317.37303733799996,4.0,part_1,,,,,,,,,,,,,magenta,diamond
1.0,0,4.0,4.0,333.693027496,4.0,part_1,,,,,,,,,,,,,gray,circle
2.0,1,2.0,2.0,300.633907318,4.0,part_1,,,,,,,,,,,,,magenta,diamond
0.5,1,1.0,1.0,333.96697044399997,4.0,part_1,,,,,,,,,,,,,yellow,hexagon
0.5,0,4.0,4.0,334.450006485,4.0,part_1,,,,,,,,,,,,,white,line
0.5,0,2.0,2.0,283.989906311,4.0,part_1,,,,,,,,,,,,,white,line
1.0,1,1.0,1.0,300.64702034000004,4.0,part_1,,,,,,,,,,,,,cyan,cross
4.0,0,3.0,3.0,451.107025146,4.0,part_1,,,,,,,,,,,,,orange,square
1.0,1,4.0,4.0,333.972930908,4.0,part_1,,,,,,,,,,,,,cyan,cross
4.0,0,2.0,2.0,300.64392089800003,4.0,part_1,,,,,,,,,,,,,orange,square
2.0,0,4.0,4.0,350.741147995,4.0,part_1,,,,,,,,,,,,,blue,triangle
0.5,1,2.0,2.0,350.879907608,4.0,part_1,,,,,,,,,,,,,yellow,hexagon
2.0,1,2.0,2.0,300.625085831,4.0,part_1,,,,,,,,,,,,,magenta,diamond
1.0,1,4.0,4.0,384.283065796,4.0,part_1,,,,,,,,,,,,,cyan,cross
2.0,0,4.0,4.0,317.523002625,4.0,part_1,,,,,,,,,,,,,blue,triangle
0.5,1,4.0,4.0,334.01894569399997,4.0,part_1,,,,,,,,,,,,,yellow,hexagon
2.0,0,3.0,3.0,701.003789902,4.0,part_1,,,,,,,,,,,,,blue,triangle
2.0,1,3.0,3.0,451.03597641,4.0,part_1,,,,,,,,,,,,,magenta,diamond
4.0,0,3.0,3.0,401.17597579999995,4.0,part_1,,,,,,,,,,,,,orange,square
1.0,1,1.0,1.0,534.536123276,4.0,part_1,,,,,,,,,,,,,cyan,cross
2.0,1,3.0,3.0,367.608070374,4.0,part_1,,,,,,,,,,,,,magenta,diamond
4.0,1,2.0,2.0,367.17414856000005,4.0,part_1,,,,,,,,,,,,,green,flipped triangle
2.0,0,4.0,4.0,334.34009552,4.0,part_1,,,,,,,,,,,,,blue,triangle
4.0,1,2.0,2.0,317.38519668600003,4.0,part_1,,,,,,,,,,,,,green,flipped triangle
1.0,1,3.0,3.0,434.301137924,4.0,part_1,,,,,,,,,,,,,cyan,cross
1.0,0,1.0,1.0,684.830904007,4.0,part_1,,,,,,,,,,,,,gray,circle
2.0,1,2.0,2.0,417.290210724,4.0,part_1,,,,,,,,,,,,,magenta,diamond
2.0,0,4.0,4.0,451.336860657,4.0,part_1,,,,,,,,,,,,,blue,triangle
1.0,1,1.0,1.0,618.335008621,4.0,part_1,,,,,,,,,,,,,cyan,cross
0.5,1,4.0,4.0,401.124954224,4.0,part_1,,,,,,,,,,,,,yellow,hexagon
2.0,1,2.0,2.0,351.073026657,4.0,part_1,,,,,,,,,,,,,magenta,diamond
2.0,1,3.0,3.0,384.430885315,4.0,part_1,,,,,,,,,,,,,magenta,diamond
0.5,1,2.0,2.0,383.993864059,4.0,part_1,,,,,,,,,,,,,yellow,hexagon
1.0,0,3.0,3.0,317.29102134699997,4.0,part_1,,,,,,,,,,,,,gray,circle
1.0,1,1.0,1.0,384.158849716,4.0,part_1,,,,,,,,,,,,,cyan,cross
1.0,0,2.0,2.0,367.21611022900004,4.0,part_1,,,,,,,,,,,,,gray,circle
0.5,0,3.0,3.0,400.877952576,4.0,part_1,,,,,,,,,,,,,white,line
1.0,0,4.0,4.0,400.73704719499995,4.0,part_1,,,,,,,,,,,,,gray,circle
2.0,1,1.0,1.0,367.600917816,4.0,part_1,,,,,,,,,,,,,magenta,diamond
0.5,0,2.0,2.0,300.77409744299996,4.0,part_1,,,,,,,,,,,,,white,line
1.0,0,4.0,4.0,433.943033218,4.0,part_1,,,,,,,,,,,,,gray,circle
4.0,1,3.0,3.0,367.337226868,4.0,part_1,,,,,,,,,,,,,green,flipped triangle
0.5,0,3.0,3.0,367.505073547,4.0,part_1,,,,,,,,,,,,,white,line
2.0,1,3.0,3.0,351.46903991700003,4.0,part_1,,,,,,,,,,,,,magenta,diamond
1.0,0,1.0,1.0,401.233911514,4.0,part_1,,,,,,,,,,,,,gray,circle
1.0,0,2.0,2.0,384.203910828,4.0,part_1,,,,,,,,,,,,,gray,circle
1.0,1,1.0,1.0,434.275150299,4.0,part_1,,,,,,,,,,,,,cyan,cross
4.0,0,2.0,2.0,350.845098495,4.0,part_1,,,,,,,,,,,,,orange,square
4.0,0,2.0,2.0,384.577989578,4.0,part_1,,,,,,,,,,,,,orange,square
0.5,0,4.0,4.0,367.560863495,4.0,part_1,,,,,,,,,,,,,white,line
0.5,1,1.0,1.0,317.518949509,4.0,part_1,,,,,,,,,,,,,yellow,hexagon
2.0,1,1.0,1.0,634.33599472,4.0,part_1,,,,,,,,,,,,,magenta,diamond
4.0,0,4.0,4.0,366.787910461,4.0,part_1,,,,,,,,,,,,,orange,square
1.0,0,1.0,1.0,367.633104324,4.0,part_1,,,,,,,,,,,,,gray,circle
4.0,0,2.0,2.0,401.07011795000005,4.0,part_1,,,,,,,,,,,,,orange,square
1.0,0,3.0,3.0,801.171064377,4.0,part_1,,,,,,,,,,,,,gray,circle
1.0,1,3.0,3.0,317.656993866,4.0,part_1,,,,,,,,,,,,,cyan,cross
4.0,1,3.0,3.0,333.989858627,4.0,part_1,,,,,,,,,,,,,green,flipped triangle
4.0,0,4.0,4.0,334.448099136,4.0,part_1,,,,,,,,,,,,,orange,square
4.0,1,1.0,1.0,617.8050041199999,4.0,part_1,,,,,,,,,,,,,green,flipped triangle
4.0,0,3.0,3.0,333.879947662,4.0,part_1,,,,,,,,,,,,,orange,square
2.0,1,4.0,4.0,333.943843842,4.0,part_1,,,,,,,,,,,,,magenta,diamond
4.0,1,1.0,1.0,300.682067871,4.0,part_1,,,,,,,,,,,,,green,flipped triangle
1.0,1,2.0,2.0,434.291124344,4.0,part_1,,,,,,,,,,,,,cyan,cross
2.0,0,2.0,2.0,351.43899917600004,4.0,part_1,,,,,,,,,,,,,blue,triangle
0.5,1,3.0,3.0,384.40513610799997,4.0,part_1,,,,,,,,,,,,,yellow,hexagon
4.0,1,3.0,3.0,317.49200820899995,4.0,part_1,,,,,,,,,,,,,green,flipped triangle
4.0,0,4.0,4.0,350.64291954,4.0,part_1,,,,,,,,,,,,,orange,square
1.0,0,1.0,1.0,417.500019073,4.0,part_1,,,,,,,,,,,,,gray,circle
0.5,1,5.0,5.0,583.948135376,1.0,part_2,stop,250.0,250.0,3.0,,,,,,,,,yellow,hexagon
4.0,0,5.0,5.0,366.88709259,1.0,part_2,go,250.0,250.0,1.0,,,,,,,,,orange,square
2.0,1,5.0,5.0,417.355060577,1.0,part_2,go,250.0,250.0,1.0,,,,,,,,,magenta,diamond
0.5,1,6.0,,,1.0,,stop,250.0,250.0,4.0,,,,,,,,,yellow,hexagon
0.5,1,5.0,,,1.0,,stop,200.0,250.0,4.0,,,,,,,,,yellow,hexagon
1.0,1,5.0,5.0,400.593042374,1.0,part_2,go,200.0,250.0,1.0,,,,,,,,,cyan,cross
4.0,1,5.0,,,1.0,,stop,250.0,250.0,4.0,,,,,,,,,green,flipped triangle
1.0,0,5.0,5.0,417.719841003,1.0,part_2,go,250.0,250.0,1.0,,,,,,,,,gray,circle
1.0,1,5.0,5.0,467.558145523,1.0,part_2,stop,300.0,250.0,3.0,,,,,,,,,cyan,cross
4.0,0,6.0,6.0,667.8528785709999,1.0,part_2,go,300.0,250.0,1.0,,,,,,,,,orange,square
4.0,0,6.0,6.0,417.64497757000004,1.0,part_2,go,300.0,250.0,1.0,,,,,,,,,orange,square
0.5,0,6.0,6.0,534.2650413509999,1.0,part_2,go,300.0,250.0,1.0,,,,,,,,,white,line
1.0,1,5.0,,,1.0,,stop,250.0,250.0,4.0,,,,,,,,,cyan,cross
4.0,0,5.0,5.0,384.52911377,1.0,part_2,go,250.0,250.0,1.0,,,,,,,,,orange,square
0.5,1,6.0,,,1.0,,stop,250.0,300.0,4.0,,,,,,,,,yellow,hexagon
1.0,1,6.0,6.0,417.502880096,1.0,part_2,stop,250.0,350.0,3.0,,,,,,,,,cyan,cross
1.0,0,6.0,6.0,918.2238578800001,1.0,part_2,go,250.0,350.0,1.0,,,,,,,,,gray,circle
1.0,1,6.0,,,1.0,,stop,250.0,300.0,4.0,,,,,,,,,cyan,cross
4.0,1,6.0,,,1.0,,stop,250.0,350.0,4.0,,,,,,,,,green,flipped triangle
4.0,0,6.0,6.0,617.3698902130001,1.0,part_2,go,250.0,350.0,1.0,,,,,,,,,orange,square
0.5,0,5.0,5.0,517.845869064,1.0,part_2,go,250.0,350.0,1.0,,,,,,,,,white,line
2.0,0,6.0,6.0,700.8650302890001,1.0,part_2,go,250.0,350.0,1.0,,,,,,,,,blue,triangle
2.0,1,5.0,,,1.0,,stop,300.0,350.0,4.0,,,,,,,,,magenta,diamond
0.5,1,5.0,,,1.0,,stop,350.0,350.0,4.0,,,,,,,,,yellow,hexagon
0.5,1,5.0,,,1.0,,stop,400.0,350.0,4.0,,,,,,,,,yellow,hexagon
4.0,1,6.0,6.0,383.989810944,1.0,part_2,go,400.0,350.0,1.0,,,,,,,,,green,flipped triangle
0.5,1,6.0,,,1.0,,stop,400.0,400.0,4.0,,,,,,,,,yellow,hexagon
4.0,0,5.0,5.0,634.161949158,1.0,part_2,go,400.0,400.0,1.0,,,,,,,,,orange,square
4.0,0,6.0,6.0,367.516994476,1.0,part_2,go,400.0,400.0,1.0,,,,,,,,,orange,square
4.0,1,6.0,,,1.0,,stop,400.0,450.0,4.0,,,,,,,,,green,flipped triangle
0.5,0,5.0,5.0,367.47002601599996,1.0,part_2,go,400.0,450.0,1.0,,,,,,,,,white,line
0.5,1,6.0,6.0,433.812856674,1.0,part_2,go,400.0,450.0,1.0,,,,,,,,,yellow,hexagon
1.0,0,6.0,6.0,467.892885208,1.0,part_2,go,400.0,450.0,1.0,,,,,,,,,gray,circle
4.0,0,5.0,5.0,534.385204315,1.0,part_2,go,400.0,450.0,1.0,,,,,,,,,orange,square
2.0,1,5.0,,,1.0,,stop,450.0,450.0,4.0,,,,,,,,,magenta,diamond
1.0,0,6.0,6.0,867.809057236,1.0,part_2,go,450.0,450.0,1.0,,,,,,,,,gray,circle
1.0,1,6.0,6.0,751.29699707,2.0,part_2,stop,450.0,500.0,3.0,,,,,,,,,cyan,cross
4.0,1,6.0,6.0,601.162910461,2.0,part_2,go,450.0,500.0,1.0,,,,,,,,,green,flipped triangle
0.5,1,6.0,6.0,567.631006241,2.0,part_2,stop,450.0,450.0,3.0,,,,,,,,,yellow,hexagon
1.0,0,5.0,5.0,384.39106941200004,2.0,part_2,go,450.0,450.0,1.0,,,,,,,,,gray,circle
2.0,1,5.0,,,2.0,,stop,500.0,450.0,4.0,,,,,,,,,magenta,diamond
1.0,0,6.0,6.0,701.261997223,2.0,part_2,go,500.0,450.0,1.0,,,,,,,,,gray,circle
4.0,0,5.0,5.0,634.2830657960001,2.0,part_2,go,500.0,450.0,1.0,,,,,,,,,orange,square
2.0,1,6.0,6.0,318.17984580999996,2.0,part_2,stop,500.0,400.0,3.0,,,,,,,,,magenta,diamond
4.0,1,6.0,,,2.0,,stop,500.0,350.0,4.0,,,,,,,,,green,flipped triangle
2.0,1,6.0,,,2.0,,stop,500.0,400.0,4.0,,,,,,,,,magenta,diamond
2.0,1,5.0,5.0,567.9409503940001,2.0,part_2,go,500.0,400.0,1.0,,,,,,,,,magenta,diamond
1.0,0,6.0,6.0,517.9128646849999,2.0,part_2,go,500.0,400.0,1.0,,,,,,,,,gray,circle
2.0,1,6.0,,,2.0,,stop,500.0,450.0,4.0,,,,,,,,,magenta,diamond
4.0,1,5.0,5.0,667.3719882969999,2.0,part_2,stop,550.0,450.0,3.0,,,,,,,,,green,flipped triangle
1.0,0,6.0,6.0,818.125009537,2.0,part_2,go,550.0,450.0,1.0,,,,,,,,,gray,circle
4.0,0,5.0,5.0,834.272861481,2.0,part_2,go,550.0,450.0,1.0,,,,,,,,,orange,square
2.0,0,5.0,5.0,434.458971024,2.0,part_2,go,550.0,450.0,1.0,,,,,,,,,blue,triangle
0.5,1,5.0,5.0,384.14287567099996,2.0,part_2,go,550.0,450.0,1.0,,,,,,,,,yellow,hexagon
2.0,1,5.0,5.0,551.061868668,2.0,part_2,stop,500.0,450.0,3.0,,,,,,,,,magenta,diamond
4.0,0,6.0,6.0,918.386936188,2.0,part_2,go,500.0,450.0,1.0,,,,,,,,,orange,square
0.5,1,6.0,,,2.0,,stop,500.0,500.0,4.0,,,,,,,,,yellow,hexagon
2.0,0,6.0,6.0,918.493032455,2.0,part_2,go,500.0,500.0,1.0,,,,,,,,,blue,triangle
4.0,0,5.0,5.0,968.525886536,2.0,part_2,go,500.0,500.0,1.0,,,,,,,,,orange,square
1.0,1,5.0,5.0,500.91910362199997,2.0,part_2,go,500.0,500.0,1.0,,,,,,,,,cyan,cross
1.0,1,5.0,5.0,567.765951157,2.0,part_2,stop,450.0,500.0,3.0,,,,,,,,,cyan,cross
0.5,0,6.0,6.0,684.4711303710001,2.0,part_2,go,450.0,500.0,1.0,,,,,,,,,white,line
4.0,0,6.0,6.0,417.255163193,2.0,part_2,go,450.0,500.0,1.0,,,,,,,,,orange,square
2.0,1,6.0,6.0,417.914152145,2.0,part_2,stop,450.0,550.0,3.0,,,,,,,,,magenta,diamond
0.5,1,6.0,6.0,651.257991791,2.0,part_2,stop,450.0,500.0,3.0,,,,,,,,,yellow,hexagon
2.0,1,5.0,5.0,484.34090614300004,2.0,part_2,go,450.0,500.0,1.0,,,,,,,,,magenta,diamond
2.0,1,5.0,,,2.0,,stop,400.0,500.0,4.0,,,,,,,,,magenta,diamond
4.0,1,6.0,,,2.0,,stop,400.0,450.0,4.0,,,,,,,,,green,flipped triangle
2.0,0,5.0,5.0,818.1960582730001,2.0,part_2,go,400.0,450.0,1.0,,,,,,,,,blue,triangle
0.5,1,5.0,5.0,417.417049408,2.0,part_2,stop,450.0,450.0,3.0,,,,,,,,,yellow,hexagon
4.0,1,5.0,,,2.0,,stop,400.0,450.0,4.0,,,,,,,,,green,flipped triangle
1.0,0,5.0,5.0,534.3320369720001,2.0,part_2,go,400.0,450.0,1.0,,,,,,,,,gray,circle
1.0,0,5.0,5.0,818.091154099,3.0,part_2,go,400.0,450.0,1.0,,,,,,,,,gray,circle
4.0,0,5.0,5.0,350.59595108,3.0,part_2,go,400.0,450.0,1.0,,,,,,,,,orange,square
4.0,0,5.0,5.0,284.180164337,3.0,part_2,go,400.0,450.0,1.0,,,,,,,,,orange,square
1.0,1,6.0,6.0,617.453813553,3.0,part_2,stop,400.0,500.0,3.0,,,,,,,,,cyan,cross
4.0,1,5.0,5.0,350.867986679,3.0,part_2,stop,450.0,500.0,3.0,,,,,,,,,green,flipped triangle
4.0,1,6.0,6.0,317.53087043799997,3.0,part_2,go,450.0,500.0,1.0,,,,,,,,,green,flipped triangle
4.0,1,6.0,,,3.0,,stop,450.0,450.0,4.0,,,,,,,,,green,flipped triangle
0.5,0,6.0,6.0,434.372186661,3.0,part_2,go,450.0,450.0,1.0,,,,,,,,,white,line
0.5,1,6.0,6.0,317.466020584,3.0,part_2,stop,450.0,500.0,3.0,,,,,,,,,yellow,hexagon
2.0,1,5.0,5.0,417.730093002,3.0,part_2,stop,400.0,500.0,3.0,,,,,,,,,magenta,diamond
1.0,0,6.0,6.0,667.904853821,3.0,part_2,go,400.0,500.0,1.0,,,,,,,,,gray,circle
0.5,0,5.0,5.0,451.006889343,3.0,part_2,go,400.0,500.0,1.0,,,,,,,,,white,line
2.0,0,6.0,6.0,801.314115524,3.0,part_2,go,400.0,500.0,1.0,,,,,,,,,blue,triangle
1.0,1,6.0,6.0,334.195137024,3.0,part_2,stop,400.0,450.0,3.0,,,,,,,,,cyan,cross
0.5,1,6.0,6.0,750.8668899539999,3.0,part_2,go,400.0,450.0,1.0,,,,,,,,,yellow,hexagon
4.0,0,5.0,5.0,634.9890232089999,3.0,part_2,go,400.0,450.0,1.0,,,,,,,,,orange,square
4.0,1,6.0,6.0,367.608070374,3.0,part_2,go,400.0,450.0,1.0,,,,,,,,,green,flipped triangle
0.5,0,5.0,5.0,601.102828979,3.0,part_2,go,400.0,450.0,1.0,,,,,,,,,white,line
0.5,1,5.0,,,3.0,,stop,350.0,450.0,4.0,,,,,,,,,yellow,hexagon
4.0,1,5.0,,,3.0,,stop,400.0,450.0,4.0,,,,,,,,,green,flipped triangle
0.5,1,6.0,6.0,518.359899521,3.0,part_2,go,400.0,450.0,1.0,,,,,,,,,yellow,hexagon
4.0,1,5.0,,,3.0,,stop,450.0,450.0,4.0,,,,,,,,,green,flipped triangle
1.0,0,5.0,5.0,718.267917633,3.0,part_2,go,450.0,450.0,1.0,,,,,,,,,gray,circle
2.0,0,6.0,6.0,668.041944504,3.0,part_2,go,450.0,450.0,1.0,,,,,,,,,blue,triangle
2.0,1,6.0,,,3.0,,stop,450.0,400.0,4.0,,,,,,,,,magenta,diamond
4.0,1,6.0,,,3.0,,stop,450.0,450.0,4.0,,,,,,,,,green,flipped triangle
2.0,1,5.0,5.0,634.0739727020001,3.0,part_2,go,450.0,450.0,1.0,,,,,,,,,magenta,diamond
1.0,0,6.0,6.0,384.052991867,3.0,part_2,go,450.0,450.0,1.0,,,,,,,,,gray,circle
4.0,0,5.0,5.0,451.16209983799996,3.0,part_2,go,450.0,450.0,1.0,,,,,,,,,orange,square
1.0,1,6.0,6.0,517.452955246,3.0,part_2,stop,450.0,500.0,3.0,,,,,,,,,cyan,cross
0.5,1,6.0,,,3.0,,stop,450.0,450.0,4.0,,,,,,,,,yellow,hexagon
2.0,0,5.0,5.0,316.97392463700004,3.0,part_2,go,450.0,450.0,1.0,,,,,,,,,blue,triangle
2.0,1,5.0,5.0,935.01996994,3.0,part_2,go,450.0,450.0,1.0,,,,,,,,,magenta,diamond
0.5,0,5.0,5.0,668.14994812,3.0,part_2,go,450.0,450.0,1.0,,,,,,,,,white,line
1.0,1,5.0,,,3.0,,stop,500.0,450.0,4.0,,,,,,,,,cyan,cross
1.0,1,6.0,6.0,584.82003212,3.0,part_2,stop,500.0,500.0,3.0,,,,,,,,,cyan,cross
1.0,1,5.0,5.0,484.420061111,4.0,part_2,stop,550.0,500.0,3.0,,,,,,,,,cyan,cross
1.0,0,5.0,5.0,851.504087448,4.0,part_2,go,550.0,500.0,1.0,,,,,,,,,gray,circle
0.5,0,5.0,5.0,834.648132324,4.0,part_2,go,550.0,500.0,1.0,,,,,,,,,white,line
2.0,1,5.0,,,4.0,,stop,500.0,500.0,4.0,,,,,,,,,magenta,diamond
1.0,0,6.0,6.0,818.1109428410001,4.0,part_2,go,500.0,500.0,1.0,,,,,,,,,gray,circle
0.5,1,5.0,5.0,484.053134918,4.0,part_2,stop,550.0,500.0,3.0,,,,,,,,,yellow,hexagon
4.0,0,6.0,,,4.0,,go,550.0,500.0,5.0,,,,,,,,,orange,square
4.0,0,6.0,6.0,317.380905151,4.0,part_2,go,550.0,500.0,1.0,,,,,,,,,orange,square
1.0,1,6.0,6.0,851.480960846,4.0,part_2,go,550.0,500.0,1.0,,,,,,,,,cyan,cross
2.0,1,6.0,6.0,567.711830139,4.0,part_2,go,550.0,500.0,1.0,,,,,,,,,magenta,diamond
2.0,1,6.0,6.0,417.126178741,4.0,part_2,stop,550.0,450.0,3.0,,,,,,,,,magenta,diamond
0.5,1,6.0,,,4.0,,stop,550.0,400.0,4.0,,,,,,,,,yellow,hexagon
2.0,0,6.0,6.0,567.6748752589999,4.0,part_2,go,550.0,400.0,1.0,,,,,,,,,blue,triangle
1.0,1,5.0,5.0,417.61493682900004,4.0,part_2,stop,500.0,400.0,3.0,,,,,,,,,cyan,cross
2.0,0,6.0,6.0,717.782020569,4.0,part_2,go,500.0,400.0,1.0,,,,,,,,,blue,triangle
2.0,0,5.0,5.0,701.823949814,4.0,part_2,go,500.0,400.0,1.0,,,,,,,,,blue,triangle
1.0,0,6.0,6.0,334.59997177099996,4.0,part_2,go,500.0,400.0,1.0,,,,,,,,,gray,circle
2.0,0,5.0,5.0,734.6849441530001,4.0,part_2,go,500.0,400.0,1.0,,,,,,,,,blue,triangle
1.0,1,5.0,,,4.0,,stop,450.0,400.0,4.0,,,,,,,,,cyan,cross
2.0,0,6.0,6.0,734.073162079,4.0,part_2,go,450.0,400.0,1.0,,,,,,,,,blue,triangle
1.0,1,5.0,,,4.0,,stop,500.0,400.0,4.0,,,,,,,,,cyan,cross
2.0,1,5.0,,,4.0,,stop,550.0,400.0,4.0,,,,,,,,,magenta,diamond
2.0,0,6.0,6.0,317.290067673,4.0,part_2,go,550.0,400.0,1.0,,,,,,,,,blue,triangle
1.0,0,6.0,6.0,434.039831161,4.0,part_2,go,550.0,400.0,1.0,,,,,,,,,gray,circle
4.0,1,6.0,,,4.0,,stop,550.0,450.0,4.0,,,,,,,,,green,flipped triangle
4.0,0,6.0,6.0,867.914915085,4.0,part_2,go,550.0,450.0,1.0,,,,,,,,,orange,square
1.0,0,5.0,,,4.0,,go,550.0,450.0,5.0,,,,,,,,,gray,circle
0.5,0,5.0,5.0,334.097862244,4.0,part_2,go,550.0,450.0,1.0,,,,,,,,,white,line
0.5,0,5.0,5.0,601.063013077,4.0,part_2,go,550.0,450.0,1.0,,,,,,,,,white,line
1.0,1,5.0,5.0,734.5318794249999,4.0,part_2,stop,600.0,450.0,3.0,,,,,,,,,cyan,cross
2.0,0,5.0,5.0,818.056106567,4.0,part_2,go,600.0,450.0,1.0,,,,,,,,,blue,triangle
1.0,1,6.0,6.0,617.703914642,4.0,part_2,stop,600.0,500.0,3.0,,,,,,,,,cyan,cross
0.5,1,6.0,6.0,734.794855118,4.0,part_2,go,600.0,500.0,1.0,,,,,,,,,yellow,hexagon
2.0,1,5.0,5.0,651.435136795,4.0,part_2,stop,550.0,500.0,3.0,,,,,,,,,magenta,diamond
1.0,0,5.0,5.0,801.446914673,4.0,part_2,go,550.0,500.0,1.0,,,,,,,,,gray,circle
0.5,0,6.0,6.0,633.8658332819999,4.0,part_2,go,550.0,500.0,1.0,,,,,,,,,white,line
0.5,1,5.0,5.0,350.975990295,5.0,part_2,go,550.0,500.0,1.0,,,,,,,,,yellow,hexagon
2.0,1,6.0,6.0,400.420188904,5.0,part_2,stop,550.0,450.0,3.0,,,,,,,,,magenta,diamond
0.5,1,6.0,6.0,317.44194030799997,5.0,part_2,stop,550.0,400.0,3.0,,,,,,,,,yellow,hexagon
0.5,0,6.0,6.0,484.476089478,5.0,part_2,go,550.0,400.0,1.0,,,,,,,,,white,line
1.0,0,5.0,5.0,434.036970139,5.0,part_2,go,550.0,400.0,1.0,,,,,,,,,gray,circle
1.0,1,5.0,5.0,317.155838013,5.0,part_2,go,550.0,400.0,1.0,,,,,,,,,cyan,cross
4.0,1,5.0,5.0,534.368991852,5.0,part_2,stop,500.0,400.0,3.0,,,,,,,,,green,flipped triangle
0.5,1,6.0,6.0,333.97507667499997,5.0,part_2,stop,500.0,350.0,3.0,,,,,,,,,yellow,hexagon
1.0,1,5.0,5.0,351.076841354,5.0,part_2,stop,450.0,350.0,3.0,,,,,,,,,cyan,cross
0.5,0,6.0,6.0,367.63286590599995,5.0,part_2,go,450.0,350.0,1.0,,,,,,,,,white,line
1.0,0,6.0,6.0,484.383106232,5.0,part_2,go,450.0,350.0,1.0,,,,,,,,,gray,circle
0.5,0,6.0,6.0,334.097862244,5.0,part_2,go,450.0,350.0,1.0,,,,,,,,,white,line
1.0,1,5.0,5.0,634.3989372249999,5.0,part_2,go,450.0,350.0,1.0,,,,,,,,,cyan,cross
1.0,0,6.0,6.0,467.592954636,5.0,part_2,go,450.0,350.0,1.0,,,,,,,,,gray,circle
4.0,1,5.0,5.0,818.021059036,5.0,part_2,go,450.0,350.0,1.0,,,,,,,,,green,flipped triangle
1.0,0,6.0,6.0,717.9210186,5.0,part_2,go,450.0,350.0,1.0,,,,,,,,,gray,circle
4.0,0,6.0,6.0,317.33489036599997,5.0,part_2,go,450.0,350.0,1.0,,,,,,,,,orange,square
4.0,1,5.0,5.0,450.934171677,5.0,part_2,stop,400.0,350.0,3.0,,,,,,,,,green,flipped triangle
0.5,0,6.0,6.0,634.652137756,5.0,part_2,go,400.0,350.0,1.0,,,,,,,,,white,line
1.0,0,6.0,6.0,818.1421756740001,5.0,part_2,go,400.0,350.0,1.0,,,,,,,,,gray,circle
2.0,0,5.0,5.0,567.848205566,5.0,part_2,go,400.0,350.0,1.0,,,,,,,,,blue,triangle
0.5,1,5.0,5.0,734.256982803,5.0,part_2,go,400.0,350.0,1.0,,,,,,,,,yellow,hexagon
0.5,0,6.0,6.0,417.66500473,5.0,part_2,go,400.0,350.0,1.0,,,,,,,,,white,line
2.0,0,6.0,6.0,734.36498642,5.0,part_2,go,400.0,350.0,1.0,,,,,,,,,blue,triangle
2.0,1,5.0,5.0,333.919048309,5.0,part_2,stop,350.0,350.0,3.0,,,,,,,,,magenta,diamond
1.0,1,5.0,5.0,634.416103363,5.0,part_2,go,350.0,350.0,1.0,,,,,,,,,cyan,cross
0.5,0,5.0,5.0,584.591150284,5.0,part_2,go,350.0,350.0,1.0,,,,,,,,,white,line
4.0,1,6.0,,,5.0,,stop,350.0,300.0,4.0,,,,,,,,,green,flipped triangle
0.5,0,5.0,5.0,567.6500797269999,5.0,part_2,go,350.0,300.0,1.0,,,,,,,,,white,line
2.0,1,5.0,5.0,284.53707695,5.0,part_2,stop,300.0,300.0,3.0,,,,,,,,,magenta,diamond
4.0,1,5.0,5.0,367.375135422,5.0,part_2,stop,250.0,300.0,3.0,,,,,,,,,green,flipped triangle
0.5,1,6.0,6.0,300.72593689,5.0,part_2,stop,250.0,350.0,3.0,,,,,,,,,yellow,hexagon
4.0,1,5.0,,,5.0,,stop,200.0,350.0,4.0,,,,,,,,,green,flipped triangle
2.0,1,6.0,,,5.0,,stop,200.0,300.0,4.0,,,,,,,,,magenta,diamond
4.0,0,6.0,6.0,535.060167313,5.0,part_2,go,200.0,300.0,1.0,,,,,,,,,orange,square
2.0,0,5.0,5.0,283.728122711,5.0,part_2,go,200.0,300.0,1.0,,,,,,,,,blue,triangle
2.0,1,6.0,,,6.0,,stop,200.0,350.0,4.0,,,,,,,,,magenta,diamond
4.0,1,5.0,5.0,551.757097244,6.0,part_2,go,200.0,350.0,1.0,,,,,,,,,green,flipped triangle
0.5,0,5.0,5.0,484.624862671,6.0,part_2,go,200.0,350.0,1.0,,,,,,,,,white,line
1.0,1,6.0,6.0,500.93412399299996,6.0,part_2,go,200.0,350.0,1.0,,,,,,,,,cyan,cross
2.0,0,6.0,6.0,300.879001617,6.0,part_2,go,200.0,350.0,1.0,,,,,,,,,blue,triangle
0.5,1,5.0,5.0,333.80484580999996,6.0,part_2,stop,250.0,350.0,3.0,,,,,,,,,yellow,hexagon
2.0,1,5.0,,,6.0,,stop,200.0,350.0,4.0,,,,,,,,,magenta,diamond
0.5,0,5.0,5.0,534.755945206,6.0,part_2,go,200.0,350.0,1.0,,,,,,,,,white,line
4.0,1,6.0,6.0,500.78701972999994,6.0,part_2,stop,200.0,400.0,3.0,,,,,,,,,green,flipped triangle
0.5,0,6.0,6.0,550.56810379,6.0,part_2,go,200.0,400.0,1.0,,,,,,,,,white,line
0.5,0,5.0,5.0,334.19013023400004,6.0,part_2,go,200.0,400.0,1.0,,,,,,,,,white,line
0.5,0,5.0,5.0,267.658948898,6.0,part_2,go,200.0,400.0,1.0,,,,,,,,,white,line
0.5,0,6.0,6.0,417.58608818100004,6.0,part_2,go,200.0,400.0,1.0,,,,,,,,,white,line
2.0,0,6.0,6.0,718.162059784,6.0,part_2,go,200.0,400.0,1.0,,,,,,,,,blue,triangle
1.0,0,6.0,6.0,501.10387802099996,6.0,part_2,go,200.0,400.0,1.0,,,,,,,,,gray,circle
2.0,0,6.0,6.0,367.478132248,6.0,part_2,go,200.0,400.0,1.0,,,,,,,,,blue,triangle
2.0,0,5.0,5.0,434.19814109799995,6.0,part_2,go,200.0,400.0,1.0,,,,,,,,,blue,triangle
4.0,1,6.0,6.0,650.697946548,6.0,part_2,go,200.0,400.0,1.0,,,,,,,,,green,flipped triangle
0.5,1,5.0,5.0,534.646987915,6.0,part_2,go,200.0,400.0,1.0,,,,,,,,,yellow,hexagon
0.5,0,6.0,6.0,534.2819690700001,6.0,part_2,go,200.0,400.0,1.0,,,,,,,,,white,line
2.0,0,6.0,6.0,434.549093246,6.0,part_2,go,200.0,400.0,1.0,,,,,,,,,blue,triangle
4.0,1,6.0,,,6.0,,stop,200.0,350.0,4.0,,,,,,,,,green,flipped triangle
0.5,0,6.0,6.0,634.2520713810001,6.0,part_2,go,200.0,350.0,1.0,,,,,,,,,white,line
0.5,0,5.0,5.0,485.050916672,6.0,part_2,go,200.0,350.0,1.0,,,,,,,,,white,line
4.0,0,5.0,5.0,333.37998390200005,6.0,part_2,go,200.0,350.0,1.0,,,,,,,,,orange,square
2.0,0,5.0,5.0,601.181983948,6.0,part_2,go,200.0,350.0,1.0,,,,,,,,,blue,triangle
4.0,0,5.0,5.0,818.063020706,6.0,part_2,go,200.0,350.0,1.0,,,,,,,,,orange,square
4.0,0,5.0,5.0,683.969974518,6.0,part_2,go,200.0,350.0,1.0,,,,,,,,,orange,square
2.0,0,5.0,5.0,434.119939804,6.0,part_2,go,200.0,350.0,1.0,,,,,,,,,blue,triangle
4.0,1,5.0,,,6.0,,stop,250.0,350.0,4.0,,,,,,,,,green,flipped triangle
2.0,1,6.0,,,6.0,,stop,250.0,400.0,4.0,,,,,,,,,magenta,diamond
4.0,0,6.0,6.0,667.944908142,6.0,part_2,go,250.0,400.0,1.0,,,,,,,,,orange,square
4.0,1,5.0,,,6.0,,stop,300.0,400.0,4.0,,,,,,,,,green,flipped triangle
4.0,1,6.0,,,6.0,,stop,300.0,450.0,4.0,,,,,,,,,green,flipped triangle
0.5,0,5.0,5.0,617.615938187,6.0,part_2,go,300.0,450.0,1.0,,,,,,,,,white,line
2.0,1,6.0,6.0,701.550006866,6.0,part_2,go,300.0,450.0,1.0,,,,,,,,,magenta,diamond
4.0,0,6.0,6.0,584.342002869,7.0,part_2,go,300.0,450.0,1.0,,,,,,,,,orange,square
4.0,0,6.0,6.0,367.801904678,7.0,part_2,go,300.0,450.0,1.0,,,,,,,,,orange,square
2.0,0,5.0,5.0,500.866889954,7.0,part_2,go,300.0,450.0,1.0,,,,,,,,,blue,triangle
1.0,0,6.0,6.0,350.88300704999995,7.0,part_2,go,300.0,450.0,1.0,,,,,,,,,gray,circle
4.0,1,5.0,5.0,317.845821381,7.0,part_2,go,300.0,450.0,1.0,,,,,,,,,green,flipped triangle
0.5,1,5.0,5.0,517.48085022,7.0,part_2,stop,350.0,450.0,3.0,,,,,,,,,yellow,hexagon
1.0,0,6.0,6.0,534.7959995269999,7.0,part_2,go,350.0,450.0,1.0,,,,,,,,,gray,circle
1.0,0,5.0,5.0,583.851099014,7.0,part_2,go,350.0,450.0,1.0,,,,,,,,,gray,circle
1.0,1,6.0,6.0,534.77191925,7.0,part_2,stop,350.0,500.0,3.0,,,,,,,,,cyan,cross
0.5,0,6.0,6.0,617.7589893339999,7.0,part_2,go,350.0,500.0,1.0,,,,,,,,,white,line
2.0,0,6.0,6.0,651.06511116,7.0,part_2,go,350.0,500.0,1.0,,,,,,,,,blue,triangle
2.0,0,5.0,5.0,467.80204772900004,7.0,part_2,go,350.0,500.0,1.0,,,,,,,,,blue,triangle
2.0,0,6.0,6.0,634.787082672,7.0,part_2,go,350.0,500.0,1.0,,,,,,,,,blue,triangle
4.0,0,5.0,5.0,634.1779232030001,7.0,part_2,go,350.0,500.0,1.0,,,,,,,,,orange,square
0.5,1,6.0,6.0,618.1249618530001,7.0,part_2,go,350.0,500.0,1.0,,,,,,,,,yellow,hexagon
2.0,0,5.0,5.0,634.4220638280001,7.0,part_2,go,350.0,500.0,1.0,,,,,,,,,blue,triangle
1.0,0,5.0,5.0,400.88796615599995,7.0,part_2,go,350.0,500.0,1.0,,,,,,,,,gray,circle
2.0,1,5.0,5.0,717.689990997,7.0,part_2,go,350.0,500.0,1.0,,,,,,,,,magenta,diamond
0.5,1,5.0,,,7.0,,stop,300.0,500.0,4.0,,,,,,,,,yellow,hexagon
2.0,0,6.0,6.0,501.23095512399993,7.0,part_2,go,300.0,500.0,1.0,,,,,,,,,blue,triangle
4.0,0,6.0,6.0,618.0469989779999,7.0,part_2,go,300.0,500.0,1.0,,,,,,,,,orange,square
0.5,0,6.0,6.0,517.1740055079999,7.0,part_2,go,300.0,500.0,1.0,,,,,,,,,white,line
0.5,1,5.0,,,7.0,,stop,350.0,500.0,4.0,,,,,,,,,yellow,hexagon
2.0,1,5.0,,,7.0,,stop,400.0,500.0,4.0,,,,,,,,,magenta,diamond
0.5,1,5.0,,,7.0,,stop,450.0,500.0,4.0,,,,,,,,,yellow,hexagon
1.0,0,5.0,5.0,701.4582157140001,7.0,part_2,go,450.0,500.0,1.0,,,,,,,,,gray,circle
1.0,0,6.0,6.0,500.894069672,7.0,part_2,go,450.0,500.0,1.0,,,,,,,,,gray,circle
4.0,0,5.0,5.0,450.695991516,7.0,part_2,go,450.0,500.0,1.0,,,,,,,,,orange,square
0.5,0,6.0,6.0,366.94192886400003,7.0,part_2,go,450.0,500.0,1.0,,,,,,,,,white,line
4.0,0,5.0,5.0,367.602109909,7.0,part_2,go,450.0,500.0,1.0,,,,,,,,,orange,square
2.0,0,5.0,5.0,500.690937042,7.0,part_2,go,450.0,500.0,1.0,,,,,,,,,blue,triangle
2.0,1,6.0,6.0,567.492008209,7.0,part_2,stop,450.0,450.0,3.0,,,,,,,,,magenta,diamond
2.0,0,5.0,5.0,717.726945877,7.0,part_2,go,450.0,450.0,1.0,,,,,,,,,blue,triangle
2.0,0,6.0,6.0,901.6749858860001,7.0,part_2,go,450.0,450.0,1.0,,,,,,,,,blue,triangle
2.0,0,6.0,6.0,734.4911098480001,7.0,part_2,go,450.0,450.0,1.0,,,,,,,,,blue,triangle
1.0,0,6.0,6.0,734.4529628749999,7.0,part_2,go,450.0,450.0,1.0,,,,,,,,,gray,circle
4.0,1,6.0,,,8.0,,stop,450.0,400.0,4.0,,,,,,,,,green,flipped triangle
1.0,0,5.0,5.0,351.125001907,8.0,part_2,go,450.0,400.0,1.0,,,,,,,,,gray,circle
2.0,1,5.0,5.0,334.005832672,8.0,part_2,stop,500.0,400.0,3.0,,,,,,,,,magenta,diamond
1.0,1,6.0,6.0,567.3961639400001,8.0,part_2,stop,500.0,450.0,3.0,,,,,,,,,cyan,cross
1.0,1,6.0,,,8.0,,stop,500.0,400.0,4.0,,,,,,,,,cyan,cross
4.0,1,6.0,6.0,617.783784866,8.0,part_2,stop,500.0,450.0,3.0,,,,,,,,,green,flipped triangle
1.0,1,6.0,,,8.0,,stop,500.0,400.0,4.0,,,,,,,,,cyan,cross
4.0,1,5.0,,,8.0,,stop,450.0,400.0,4.0,,,,,,,,,green,flipped triangle
1.0,1,6.0,,,8.0,,go,450.0,400.0,5.0,,,,,,,,,cyan,cross
2.0,0,6.0,6.0,450.464010239,8.0,part_2,go,450.0,400.0,1.0,,,,,,,,,blue,triangle
0.5,1,5.0,5.0,434.772014618,8.0,part_2,stop,500.0,400.0,3.0,,,,,,,,,yellow,hexagon
0.5,0,5.0,5.0,784.832000732,8.0,part_2,go,500.0,400.0,1.0,,,,,,,,,white,line
0.5,0,5.0,5.0,801.069021225,8.0,part_2,go,500.0,400.0,1.0,,,,,,,,,white,line
4.0,0,6.0,6.0,684.22293663,8.0,part_2,go,500.0,400.0,1.0,,,,,,,,,orange,square
0.5,0,5.0,5.0,633.955001831,8.0,part_2,go,500.0,400.0,1.0,,,,,,,,,white,line
0.5,1,6.0,,,8.0,,stop,500.0,450.0,4.0,,,,,,,,,yellow,hexagon
1.0,0,6.0,6.0,701.279878616,8.0,part_2,go,500.0,450.0,1.0,,,,,,,,,gray,circle
1.0,1,5.0,,,8.0,,stop,450.0,450.0,4.0,,,,,,,,,cyan,cross
2.0,0,5.0,5.0,784.547805786,8.0,part_2,go,450.0,450.0,1.0,,,,,,,,,blue,triangle
2.0,1,5.0,,,8.0,,stop,500.0,450.0,4.0,,,,,,,,,magenta,diamond
0.5,1,5.0,,,8.0,,stop,550.0,450.0,4.0,,,,,,,,,yellow,hexagon
4.0,0,5.0,5.0,650.813817978,8.0,part_2,go,550.0,450.0,1.0,,,,,,,,,orange,square
4.0,0,6.0,6.0,701.320886612,8.0,part_2,go,550.0,450.0,1.0,,,,,,,,,orange,square
0.5,0,5.0,5.0,651.585102081,8.0,part_2,go,550.0,450.0,1.0,,,,,,,,,white,line
2.0,1,6.0,6.0,717.861890793,8.0,part_2,go,550.0,450.0,1.0,,,,,,,,,magenta,diamond
4.0,1,5.0,5.0,667.804956436,8.0,part_2,go,550.0,450.0,1.0,,,,,,,,,green,flipped triangle
1.0,1,5.0,5.0,584.522008896,8.0,part_2,stop,600.0,450.0,3.0,,,,,,,,,cyan,cross
1.0,0,6.0,6.0,600.9228229519999,8.0,part_2,go,600.0,450.0,1.0,,,,,,,,,gray,circle
1.0,1,6.0,,,8.0,,stop,600.0,500.0,4.0,,,,,,,,,cyan,cross
1.0,0,5.0,5.0,451.064109802,8.0,part_2,go,600.0,500.0,1.0,,,,,,,,,gray,circle
1.0,1,6.0,6.0,718.448162079,8.0,part_2,go,600.0,500.0,1.0,,,,,,,,,cyan,cross
2.0,1,6.0,,,8.0,,stop,600.0,550.0,4.0,,,,,,,,,magenta,diamond
4.0,0,5.0,5.0,817.7440166470001,8.0,part_2,go,600.0,550.0,1.0,,,,,,,,,orange,square
1.0,1,5.0,,,8.0,,stop,550.0,550.0,4.0,,,,,,,,,cyan,cross
4.0,1,6.0,6.0,718.055009842,8.0,part_2,stop,550.0,600.0,3.0,,,,,,,,,green,flipped triangle
1.0,1,6.0,,,8.0,,stop,550.0,550.0,4.0,,,,,,,,,cyan,cross
2.0,0,7.0,,,1.0,,go,,,,0.0,,220.0,44.0,132.0,88.0,176.0,264.0,blue,triangle
2.0,1,7.0,1.0,2470.04890442,1.0,part_3,stop,,,,264.0,6.0,264.0,220.0,132.0,88.0,176.0,44.0,magenta,diamond
0.5,0,7.0,3.0,2319.6439743,1.0,part_3,go,,,,136.0,4.0,34.0,102.0,136.0,170.0,204.0,68.0,white,line
2.0,0,7.0,4.0,1668.77698898,1.0,part_3,go,,,,170.0,5.0,136.0,68.0,102.0,170.0,204.0,34.0,blue,triangle
2.0,1,7.0,5.0,1618.7450885800001,1.0,part_3,stop,,,,294.0,6.0,98.0,196.0,49.0,147.0,294.0,245.0,magenta,diamond
2.0,1,7.0,5.0,1701.8239498100002,1.0,part_3,stop,,,,264.0,6.0,176.0,220.0,44.0,132.0,264.0,88.0,magenta,diamond
1.0,0,7.0,4.0,1818.86696815,1.0,part_3,go,,,,264.0,6.0,176.0,88.0,220.0,264.0,44.0,132.0,gray,circle
1.0,1,7.0,3.0,2085.6590271,1.0,part_3,stop,,,,170.0,5.0,102.0,68.0,170.0,34.0,136.0,204.0,cyan,cross
0.5,1,7.0,1.0,2318.97091866,1.0,part_3,stop,,,,245.0,5.0,245.0,147.0,196.0,49.0,294.0,98.0,yellow,hexagon
4.0,1,7.0,1.0,2202.44693756,1.0,part_3,stop,,,,324.0,6.0,324.0,216.0,54.0,108.0,162.0,270.0,green,flipped triangle
0.5,1,7.0,4.0,1668.9291000399999,1.0,part_3,stop,,,,234.0,6.0,195.0,78.0,156.0,234.0,117.0,39.0,yellow,hexagon
0.5,0,7.0,6.0,2135.4038715399997,1.0,part_3,go,,,,108.0,2.0,162.0,270.0,216.0,54.0,324.0,108.0,white,line
2.0,0,7.0,1.0,2336.34400368,1.0,part_3,go,,,,324.0,6.0,324.0,162.0,54.0,216.0,270.0,108.0,blue,triangle
2.0,1,7.0,3.0,1368.64590645,1.0,part_3,stop,,,,270.0,5.0,54.0,162.0,270.0,324.0,108.0,216.0,magenta,diamond
1.0,0,7.0,4.0,1868.87478828,1.0,part_3,go,,,,216.0,4.0,54.0,324.0,162.0,216.0,270.0,108.0,gray,circle
2.0,1,7.0,3.0,2352.61106491,1.0,part_3,stop,,,,216.0,4.0,324.0,54.0,216.0,162.0,108.0,270.0,magenta,diamond
0.5,0,7.0,3.0,1952.48579979,1.0,part_3,go,,,,195.0,5.0,156.0,39.0,195.0,117.0,234.0,78.0,white,line
4.0,1,7.0,1.0,1885.42795181,1.0,part_3,stop,,,,220.0,5.0,220.0,44.0,88.0,132.0,264.0,176.0,green,flipped triangle
2.0,1,7.0,4.0,1968.85204315,1.0,part_3,stop,,,,234.0,6.0,195.0,39.0,117.0,234.0,78.0,156.0,magenta,diamond
2.0,0,7.0,1.0,2202.5790214500003,1.0,part_3,go,,,,220.0,5.0,220.0,132.0,264.0,44.0,88.0,176.0,blue,triangle
0.5,0,7.0,4.0,2085.74008942,2.0,part_3,go,,,,170.0,5.0,136.0,34.0,68.0,170.0,204.0,102.0,white,line
1.0,0,7.0,3.0,2452.82387733,2.0,part_3,go,,,,294.0,6.0,147.0,196.0,294.0,49.0,245.0,98.0,gray,circle
1.0,1,7.0,6.0,1652.25601196,2.0,part_3,stop,,,,132.0,3.0,44.0,220.0,264.0,176.0,88.0,132.0,cyan,cross
0.5,1,7.0,3.0,1985.38589478,2.0,part_3,stop,,,,234.0,6.0,39.0,156.0,234.0,117.0,78.0,195.0,yellow,hexagon
0.5,1,7.0,4.0,2220.2088832900004,2.0,part_3,stop,,,,204.0,6.0,68.0,34.0,102.0,204.0,136.0,170.0,yellow,hexagon
2.0,0,7.0,3.0,1434.9269866900001,2.0,part_3,go,,,,234.0,6.0,117.0,195.0,234.0,156.0,39.0,78.0,blue,triangle
2.0,0,7.0,6.0,2252.29907036,2.0,part_3,go,,,,216.0,4.0,162.0,270.0,324.0,108.0,54.0,216.0,blue,triangle
1.0,0,7.0,6.0,2752.75802612,2.0,part_3,go,,,,245.0,5.0,147.0,294.0,49.0,98.0,196.0,245.0,gray,circle
0.5,1,7.0,3.0,2052.52599716,2.0,part_3,stop,,,,264.0,6.0,176.0,88.0,264.0,44.0,220.0,132.0,yellow,hexagon
0.5,0,7.0,1.0,1768.79096031,2.0,part_3,go,,,,54.0,1.0,54.0,270.0,324.0,216.0,108.0,162.0,white,line
4.0,1,7.0,6.0,1735.39018631,2.0,part_3,stop,,,,264.0,6.0,220.0,88.0,132.0,176.0,44.0,264.0,green,flipped triangle
4.0,1,7.0,4.0,2452.95596123,2.0,part_3,stop,,,,294.0,6.0,49.0,196.0,98.0,294.0,147.0,245.0,green,flipped triangle
4.0,0,7.0,5.0,2602.43797302,2.0,part_3,go,,,,324.0,6.0,54.0,108.0,216.0,162.0,324.0,270.0,orange,square
1.0,1,7.0,5.0,1901.99303627,2.0,part_3,stop,,,,102.0,3.0,68.0,204.0,34.0,136.0,102.0,170.0,cyan,cross
4.0,0,7.0,5.0,2119.3261146500004,2.0,part_3,go,,,,264.0,6.0,44.0,88.0,176.0,132.0,264.0,220.0,orange,square
4.0,0,7.0,2.0,1435.77384949,2.0,part_3,go,,,,204.0,6.0,136.0,204.0,102.0,34.0,68.0,170.0,orange,square
0.5,0,7.0,3.0,2152.4589061700003,2.0,part_3,go,,,,98.0,2.0,147.0,294.0,98.0,49.0,196.0,245.0,white,line
4.0,0,7.0,1.0,1618.16596985,2.0,part_3,go,,,,294.0,6.0,294.0,49.0,245.0,196.0,147.0,98.0,orange,square
4.0,1,7.0,4.0,1835.55912971,2.0,part_3,stop,,,,234.0,6.0,195.0,117.0,156.0,234.0,78.0,39.0,green,flipped triangle
0.5,0,7.0,6.0,1685.41693687,2.0,part_3,go,,,,44.0,1.0,88.0,132.0,264.0,220.0,176.0,44.0,white,line
0.5,0,7.0,5.0,1501.80101395,3.0,part_3,go,,,,44.0,1.0,220.0,264.0,132.0,176.0,44.0,88.0,white,line
2.0,1,7.0,2.0,1634.66620445,3.0,part_3,stop,,,,204.0,6.0,170.0,204.0,34.0,102.0,68.0,136.0,magenta,diamond
1.0,0,7.0,1.0,2152.57310867,3.0,part_3,go,,,,204.0,6.0,204.0,170.0,34.0,68.0,136.0,102.0,gray,circle
4.0,1,7.0,1.0,1334.41495895,3.0,part_3,stop,,,,234.0,6.0,234.0,78.0,195.0,117.0,156.0,39.0,green,flipped triangle
4.0,1,7.0,4.0,1685.15110016,3.0,part_3,stop,,,,245.0,5.0,49.0,196.0,147.0,245.0,98.0,294.0,green,flipped triangle
1.0,0,7.0,1.0,2219.3660736099996,3.0,part_3,go,,,,195.0,5.0,195.0,156.0,117.0,234.0,39.0,78.0,gray,circle
1.0,1,7.0,2.0,2002.70295143,3.0,part_3,stop,,,,108.0,2.0,324.0,108.0,162.0,270.0,216.0,54.0,cyan,cross
1.0,0,7.0,3.0,2636.1489296,3.0,part_3,go,,,,162.0,3.0,324.0,270.0,162.0,108.0,54.0,216.0,gray,circle
0.5,1,7.0,4.0,2586.66300774,3.0,part_3,stop,,,,324.0,6.0,162.0,54.0,216.0,324.0,270.0,108.0,yellow,hexagon
1.0,1,7.0,5.0,2836.78412437,3.0,part_3,stop,,,,234.0,6.0,195.0,39.0,156.0,78.0,234.0,117.0,cyan,cross
0.5,0,7.0,6.0,1902.45914459,3.0,part_3,go,,,,49.0,1.0,98.0,196.0,147.0,245.0,294.0,49.0,white,line
4.0,1,7.0,4.0,2620.19586563,3.0,part_3,stop,,,,270.0,5.0,216.0,324.0,108.0,270.0,54.0,162.0,green,flipped triangle
1.0,1,7.0,4.0,2402.74715424,3.0,part_3,stop,,,,49.0,1.0,196.0,245.0,98.0,49.0,147.0,294.0,cyan,cross
0.5,1,7.0,2.0,1552.11186409,3.0,part_3,stop,,,,162.0,3.0,108.0,162.0,324.0,216.0,54.0,270.0,yellow,hexagon
2.0,1,7.0,5.0,1535.4959964799998,3.0,part_3,stop,,,,234.0,6.0,78.0,117.0,39.0,156.0,234.0,195.0,magenta,diamond
4.0,0,7.0,1.0,1568.38703156,3.0,part_3,go,,,,204.0,6.0,204.0,68.0,136.0,170.0,34.0,102.0,orange,square
4.0,1,7.0,1.0,1868.75796318,3.0,part_3,stop,,,,204.0,6.0,204.0,34.0,136.0,68.0,170.0,102.0,green,flipped triangle
0.5,1,7.0,3.0,1868.80993843,3.0,part_3,stop,,,,264.0,6.0,132.0,176.0,264.0,220.0,44.0,88.0,yellow,hexagon
0.5,1,7.0,3.0,1985.53991318,3.0,part_3,stop,,,,204.0,6.0,102.0,136.0,204.0,68.0,34.0,170.0,yellow,hexagon
1.0,1,7.0,3.0,2452.3360729200003,3.0,part_3,stop,,,,78.0,2.0,39.0,156.0,78.0,195.0,117.0,234.0,cyan,cross
4.0,0,7.0,3.0,1451.85303688,4.0,part_3,go,,,,234.0,6.0,39.0,195.0,234.0,117.0,78.0,156.0,orange,square
1.0,0,7.0,4.0,1952.29101181,4.0,part_3,go,,,,176.0,4.0,220.0,132.0,88.0,176.0,44.0,264.0,gray,circle
2.0,0,7.0,5.0,2536.30590439,4.0,part_3,go,,,,294.0,6.0,147.0,49.0,196.0,245.0,294.0,98.0,blue,triangle
4.0,0,7.0,1.0,2202.10504532,4.0,part_3,go,,,,234.0,6.0,234.0,78.0,195.0,156.0,39.0,117.0,orange,square
2.0,0,7.0,5.0,2202.59714127,4.0,part_3,go,,,,195.0,5.0,156.0,117.0,39.0,78.0,195.0,234.0,blue,triangle
2.0,1,7.0,6.0,2386.1229419700003,4.0,part_3,stop,,,,196.0,4.0,49.0,147.0,98.0,294.0,245.0,196.0,magenta,diamond
2.0,0,7.0,4.0,2586.43698692,4.0,part_3,go,,,,170.0,5.0,34.0,136.0,68.0,170.0,102.0,204.0,blue,triangle
1.0,1,7.0,1.0,2369.3499565099996,4.0,part_3,stop,,,,108.0,2.0,108.0,270.0,162.0,324.0,216.0,54.0,cyan,cross
0.5,0,7.0,6.0,1802.17313766,4.0,part_3,go,,,,78.0,2.0,234.0,117.0,39.0,195.0,156.0,78.0,white,line
4.0,0,7.0,2.0,2102.55599022,4.0,part_3,go,,,,294.0,6.0,245.0,294.0,196.0,98.0,147.0,49.0,orange,square
4.0,0,7.0,5.0,2753.22198868,4.0,part_3,go,,,,264.0,6.0,88.0,44.0,220.0,132.0,264.0,176.0,orange,square
1.0,1,7.0,1.0,2285.91990471,4.0,part_3,stop,,,,88.0,2.0,88.0,176.0,264.0,220.0,132.0,44.0,cyan,cross
1.0,0,7.0,3.0,2102.97107697,4.0,part_3,go,,,,170.0,5.0,136.0,102.0,170.0,34.0,68.0,204.0,gray,circle
2.0,1,7.0,2.0,2102.80299187,4.0,part_3,stop,,,,170.0,5.0,34.0,170.0,136.0,204.0,68.0,102.0,magenta,diamond
4.0,1,7.0,6.0,1935.7900619499999,4.0,part_3,stop,,,,204.0,6.0,102.0,34.0,68.0,170.0,136.0,204.0,green,flipped triangle
1.0,1,7.0,3.0,3270.3230381,4.0,part_3,stop,,,,98.0,2.0,294.0,196.0,98.0,147.0,245.0,49.0,cyan,cross
1.0,0,7.0,1.0,3954.60414886,4.0,part_3,go,,,,195.0,5.0,195.0,156.0,39.0,117.0,234.0,78.0,gray,circle
0.5,1,7.0,3.0,2786.10801697,4.0,part_3,stop,,,,294.0,6.0,49.0,245.0,294.0,147.0,98.0,196.0,yellow,hexagon
4.0,0,7.0,5.0,2185.54806709,4.0,part_3,go,,,,216.0,4.0,324.0,108.0,162.0,54.0,216.0,270.0,orange,square
2.0,0,7.0,3.0,3971.3671207400002,4.0,part_3,go,,,,147.0,3.0,98.0,245.0,147.0,196.0,49.0,294.0,blue,triangle
