stepwise_reward_magnitude,paired_with_stopping,quadrant,response,reaction_time,block,which_part,stop_signal_trial_type,left_SSD,right_SSD,accuracy,chosen_bidding_amount,chosen_bidding_level,possible_bid_1,possible_bid_2,possible_bid_3,possible_bid_4,possible_bid_5,possible_bid_6,color_text,shape_text
4.0,0,4.0,4.0,601.551055908,1.0,part_1,,,,,,,,,,,,,yellow,triangle
1.0,0,2.0,2.0,417.226791382,1.0,part_1,,,,,,,,,,,,,gray,diamond
0.5,1,1.0,1.0,400.767087936,1.0,part_1,,,,,,,,,,,,,cyan,flipped triangle
2.0,1,2.0,2.0,501.10602378799996,1.0,part_1,,,,,,,,,,,,,blue,square
2.0,1,4.0,4.0,450.694084167,1.0,part_1,,,,,,,,,,,,,blue,square
2.0,0,3.0,3.0,518.218994141,1.0,part_1,,,,,,,,,,,,,green,line
2.0,0,3.0,3.0,384.649991989,1.0,part_1,,,,,,,,,,,,,green,line
4.0,0,1.0,1.0,317.795991898,1.0,part_1,,,,,,,,,,,,,yellow,triangle
4.0,1,3.0,3.0,384.231090546,1.0,part_1,,,,,,,,,,,,,magenta,cross
0.5,0,2.0,2.0,317.62290000900003,1.0,part_1,,,,,,,,,,,,,orange,circle
4.0,1,2.0,2.0,317.521095276,1.0,part_1,,,,,,,,,,,,,magenta,cross
4.0,0,3.0,3.0,350.760936737,1.0,part_1,,,,,,,,,,,,,yellow,triangle
4.0,1,1.0,1.0,384.577989578,1.0,part_1,,,,,,,,,,,,,magenta,cross
0.5,0,1.0,1.0,384.14478302,1.0,part_1,,,,,,,,,,,,,orange,circle
1.0,0,1.0,1.0,334.49697494500003,1.0,part_1,,,,,,,,,,,,,gray,diamond
1.0,1,1.0,1.0,334.04898643499996,1.0,part_1,,,,,,,,,,,,,white,hexagon
4.0,1,4.0,4.0,401.26299858100003,1.0,part_1,,,,,,,,,,,,,magenta,cross
4.0,0,4.0,4.0,434.617996216,1.0,part_1,,,,,,,,,,,,,yellow,triangle
2.0,0,4.0,4.0,601.622104645,1.0,part_1,,,,,,,,,,,,,green,line
0.5,1,1.0,1.0,367.36321449300004,1.0,part_1,,,,,,,,,,,,,cyan,flipped triangle
1.0,1,3.0,3.0,417.91582107500005,1.0,part_1,,,,,,,,,,,,,white,hexagon
0.5,0,4.0,4.0,517.456054688,1.0,part_1,,,,,,,,,,,,,orange,circle
1.0,0,2.0,2.0,467.216014862,1.0,part_1,,,,,,,,,,,,,gray,diamond
4.0,1,4.0,4.0,584.851980209,1.0,part_1,,,,,,,,,,,,,magenta,cross
0.5,1,4.0,4.0,801.789045334,1.0,part_1,,,,,,,,,,,,,cyan,flipped triangle
2.0,0,2.0,2.0,484.046936035,1.0,part_1,,,,,,,,,,,,,green,line
4.0,0,3.0,3.0,384.527921677,1.0,part_1,,,,,,,,,,,,,yellow,triangle
1.0,0,3.0,3.0,384.122133255,1.0,part_1,,,,,,,,,,,,,gray,diamond
0.5,1,1.0,1.0,801.498889923,1.0,part_1,,,,,,,,,,,,,cyan,flipped triangle
1.0,1,1.0,1.0,668.0531501769999,1.0,part_1,,,,,,,,,,,,,white,hexagon
2.0,0,2.0,2.0,418.01404952999997,1.0,part_1,,,,,,,,,,,,,green,line
1.0,0,2.0,2.0,384.050130844,1.0,part_1,,,,,,,,,,,,,gray,diamond
4.0,0,2.0,2.0,300.894021988,1.0,part_1,,,,,,,,,,,,,yellow,triangle
4.0,1,3.0,3.0,417.224884033,1.0,part_1,,,,,,,,,,,,,magenta,cross
2.0,0,1.0,1.0,367.38204956100003,1.0,part_1,,,,,,,,,,,,,green,line
0.5,0,4.0,4.0,401.238918304,1.0,part_1,,,,,,,,,,,,,orange,circle
0.5,1,1.0,1.0,401.043891907,1.0,part_1,,,,,,,,,,,,,cyan,flipped triangle
4.0,0,1.0,1.0,350.939035416,1.0,part_1,,,,,,,,,,,,,yellow,triangle
4.0,0,4.0,4.0,400.66194534299996,1.0,part_1,,,,,,,,,,,,,yellow,triangle
4.0,1,2.0,2.0,350.94118118299997,1.0,part_1,,,,,,,,,,,,,magenta,cross
0.5,0,4.0,4.0,350.728988647,1.0,part_1,,,,,,,,,,,,,orange,circle
2.0,1,3.0,3.0,334.271907806,1.0,part_1,,,,,,,,,,,,,blue,square
1.0,0,2.0,2.0,350.535154343,1.0,part_1,,,,,,,,,,,,,gray,diamond
0.5,1,3.0,3.0,368.076086044,1.0,part_1,,,,,,,,,,,,,cyan,flipped triangle
2.0,0,1.0,1.0,300.86803436300005,1.0,part_1,,,,,,,,,,,,,green,line
4.0,0,4.0,4.0,417.541027069,1.0,part_1,,,,,,,,,,,,,yellow,triangle
2.0,0,1.0,1.0,417.676925659,1.0,part_1,,,,,,,,,,,,,green,line
4.0,0,2.0,2.0,317.342042923,1.0,part_1,,,,,,,,,,,,,yellow,triangle
1.0,0,2.0,2.0,316.890954971,1.0,part_1,,,,,,,,,,,,,gray,diamond
4.0,1,4.0,4.0,384.44304466200003,1.0,part_1,,,,,,,,,,,,,magenta,cross
0.5,0,1.0,1.0,384.293079376,1.0,part_1,,,,,,,,,,,,,orange,circle
2.0,0,4.0,4.0,417.701005936,1.0,part_1,,,,,,,,,,,,,green,line
4.0,1,3.0,3.0,417.92893409699997,1.0,part_1,,,,,,,,,,,,,magenta,cross
1.0,1,1.0,1.0,366.955041885,1.0,part_1,,,,,,,,,,,,,white,hexagon
2.0,1,2.0,2.0,300.614833832,1.0,part_1,,,,,,,,,,,,,blue,square
0.5,0,1.0,1.0,317.277908325,1.0,part_1,,,,,,,,,,,,,orange,circle
1.0,0,2.0,2.0,317.144155502,1.0,part_1,,,,,,,,,,,,,gray,diamond
4.0,1,3.0,3.0,350.786924362,1.0,part_1,,,,,,,,,,,,,magenta,cross
0.5,1,3.0,3.0,400.676012039,1.0,part_1,,,,,,,,,,,,,cyan,flipped triangle
0.5,0,4.0,4.0,400.486946106,1.0,part_1,,,,,,,,,,,,,orange,circle
1.0,1,2.0,2.0,283.562898636,1.0,part_1,,,,,,,,,,,,,white,hexagon
0.5,0,1.0,1.0,317.35801696799996,1.0,part_1,,,,,,,,,,,,,orange,circle
2.0,0,1.0,1.0,417.75918006899997,1.0,part_1,,,,,,,,,,,,,green,line
2.0,1,2.0,2.0,267.771959305,1.0,part_1,,,,,,,,,,,,,blue,square
1.0,1,2.0,2.0,334.07092094399997,1.0,part_1,,,,,,,,,,,,,white,hexagon
0.5,0,1.0,1.0,384.40108299300005,1.0,part_1,,,,,,,,,,,,,orange,circle
0.5,1,3.0,3.0,367.429018021,1.0,part_1,,,,,,,,,,,,,cyan,flipped triangle
1.0,1,3.0,3.0,351.366996765,1.0,part_1,,,,,,,,,,,,,white,hexagon
1.0,0,4.0,4.0,417.650938034,1.0,part_1,,,,,,,,,,,,,gray,diamond
2.0,0,1.0,1.0,450.80113410900003,1.0,part_1,,,,,,,,,,,,,green,line
2.0,1,4.0,4.0,467.514038086,1.0,part_1,,,,,,,,,,,,,blue,square
4.0,1,4.0,4.0,384.382009506,1.0,part_1,,,,,,,,,,,,,magenta,cross
2.0,0,4.0,4.0,433.66193771400003,1.0,part_1,,,,,,,,,,,,,green,line
0.5,1,2.0,2.0,384.636878967,1.0,part_1,,,,,,,,,,,,,cyan,flipped triangle
4.0,1,3.0,3.0,400.76208114599996,1.0,part_1,,,,,,,,,,,,,magenta,cross
2.0,1,4.0,4.0,384.56010818500005,1.0,part_1,,,,,,,,,,,,,blue,square
0.5,1,4.0,4.0,467.33307838400003,1.0,part_1,,,,,,,,,,,,,cyan,flipped triangle
2.0,0,1.0,1.0,417.059183121,1.0,part_1,,,,,,,,,,,,,green,line
2.0,0,2.0,2.0,367.442846298,1.0,part_1,,,,,,,,,,,,,green,line
1.0,0,3.0,3.0,401.084899902,1.0,part_1,,,,,,,,,,,,,gray,diamond
4.0,0,4.0,4.0,434.320926666,1.0,part_1,,,,,,,,,,,,,yellow,triangle
4.0,1,4.0,4.0,384.1381073,1.0,part_1,,,,,,,,,,,,,magenta,cross
2.0,0,4.0,4.0,384.531021118,1.0,part_1,,,,,,,,,,,,,green,line
4.0,0,2.0,2.0,400.956869125,1.0,part_1,,,,,,,,,,,,,yellow,triangle
0.5,0,3.0,3.0,384.17506218000005,1.0,part_1,,,,,,,,,,,,,orange,circle
0.5,1,3.0,3.0,368.193149567,1.0,part_1,,,,,,,,,,,,,cyan,flipped triangle
1.0,0,2.0,2.0,350.651025772,1.0,part_1,,,,,,,,,,,,,gray,diamond
0.5,0,3.0,3.0,351.07588768,1.0,part_1,,,,,,,,,,,,,orange,circle
0.5,1,3.0,3.0,350.735902786,1.0,part_1,,,,,,,,,,,,,cyan,flipped triangle
1.0,0,3.0,3.0,351.400136948,1.0,part_1,,,,,,,,,,,,,gray,diamond
2.0,0,1.0,1.0,418.081998825,1.0,part_1,,,,,,,,,,,,,green,line
4.0,1,3.0,3.0,351.136922836,1.0,part_1,,,,,,,,,,,,,magenta,cross
2.0,1,2.0,2.0,351.480007172,1.0,part_1,,,,,,,,,,,,,blue,square
4.0,0,3.0,3.0,367.650032043,1.0,part_1,,,,,,,,,,,,,yellow,triangle
0.5,0,2.0,2.0,367.038965225,1.0,part_1,,,,,,,,,,,,,orange,circle
4.0,0,1.0,1.0,384.117841721,1.0,part_1,,,,,,,,,,,,,yellow,triangle
0.5,1,2.0,2.0,301.0430336,1.0,part_1,,,,,,,,,,,,,cyan,flipped triangle
2.0,1,4.0,4.0,350.641965866,1.0,part_1,,,,,,,,,,,,,blue,square
4.0,0,1.0,1.0,400.532007217,1.0,part_1,,,,,,,,,,,,,yellow,triangle
2.0,1,3.0,3.0,367.47694015499997,1.0,part_1,,,,,,,,,,,,,blue,square
1.0,1,1.0,1.0,467.876911163,2.0,part_1,,,,,,,,,,,,,white,hexagon
4.0,1,1.0,1.0,384.423017502,2.0,part_1,,,,,,,,,,,,,magenta,cross
1.0,0,4.0,4.0,417.963027954,2.0,part_1,,,,,,,,,,,,,gray,diamond
0.5,1,1.0,1.0,384.207010269,2.0,part_1,,,,,,,,,,,,,cyan,flipped triangle
0.5,0,1.0,1.0,384.349107742,2.0,part_1,,,,,,,,,,,,,orange,circle
4.0,1,3.0,3.0,383.982896805,2.0,part_1,,,,,,,,,,,,,magenta,cross
1.0,0,1.0,1.0,384.212017059,2.0,part_1,,,,,,,,,,,,,gray,diamond
0.5,0,2.0,2.0,334.290981293,2.0,part_1,,,,,,,,,,,,,orange,circle
2.0,1,2.0,2.0,434.612035751,2.0,part_1,,,,,,,,,,,,,blue,square
1.0,0,4.0,4.0,400.81000328100004,2.0,part_1,,,,,,,,,,,,,gray,diamond
4.0,0,4.0,4.0,450.513839722,2.0,part_1,,,,,,,,,,,,,yellow,triangle
1.0,0,3.0,3.0,367.88892746,2.0,part_1,,,,,,,,,,,,,gray,diamond
2.0,1,2.0,2.0,401.05414390600004,2.0,part_1,,,,,,,,,,,,,blue,square
1.0,1,2.0,2.0,351.034879684,2.0,part_1,,,,,,,,,,,,,white,hexagon
2.0,1,4.0,4.0,417.63782501199995,2.0,part_1,,,,,,,,,,,,,blue,square
2.0,1,3.0,3.0,483.869075775,2.0,part_1,,,,,,,,,,,,,blue,square
0.5,0,3.0,3.0,400.559902191,2.0,part_1,,,,,,,,,,,,,orange,circle
4.0,0,3.0,3.0,400.789022446,2.0,part_1,,,,,,,,,,,,,yellow,triangle
4.0,1,2.0,2.0,333.52804184,2.0,part_1,,,,,,,,,,,,,magenta,cross
0.5,0,2.0,2.0,468.03092956499995,2.0,part_1,,,,,,,,,,,,,orange,circle
1.0,0,3.0,3.0,317.81888008100003,2.0,part_1,,,,,,,,,,,,,gray,diamond
4.0,0,4.0,4.0,367.308855057,2.0,part_1,,,,,,,,,,,,,yellow,triangle
0.5,1,1.0,1.0,351.40514373800005,2.0,part_1,,,,,,,,,,,,,cyan,flipped triangle
4.0,1,1.0,1.0,367.635011673,2.0,part_1,,,,,,,,,,,,,magenta,cross
4.0,1,1.0,1.0,384.437084198,2.0,part_1,,,,,,,,,,,,,magenta,cross
1.0,1,2.0,2.0,500.80895423899995,2.0,part_1,,,,,,,,,,,,,white,hexagon
1.0,0,1.0,1.0,551.3629913330001,2.0,part_1,,,,,,,,,,,,,gray,diamond
2.0,0,3.0,3.0,484.476089478,2.0,part_1,,,,,,,,,,,,,green,line
2.0,0,4.0,4.0,417.681932449,2.0,part_1,,,,,,,,,,,,,green,line
1.0,1,2.0,2.0,350.847005844,2.0,part_1,,,,,,,,,,,,,white,hexagon
0.5,0,3.0,3.0,350.369930267,2.0,part_1,,,,,,,,,,,,,orange,circle
0.5,1,3.0,3.0,351.074934006,2.0,part_1,,,,,,,,,,,,,cyan,flipped triangle
2.0,0,1.0,1.0,434.056997299,2.0,part_1,,,,,,,,,,,,,green,line
2.0,0,2.0,2.0,367.88010597199997,2.0,part_1,,,,,,,,,,,,,green,line
1.0,0,1.0,1.0,384.300947189,2.0,part_1,,,,,,,,,,,,,gray,diamond
2.0,0,3.0,3.0,501.27196312,2.0,part_1,,,,,,,,,,,,,green,line
4.0,0,2.0,2.0,350.681066513,2.0,part_1,,,,,,,,,,,,,yellow,triangle
0.5,1,4.0,4.0,484.11011695900004,2.0,part_1,,,,,,,,,,,,,cyan,flipped triangle
1.0,1,1.0,1.0,384.273052216,2.0,part_1,,,,,,,,,,,,,white,hexagon
2.0,1,3.0,3.0,401.45397186300005,2.0,part_1,,,,,,,,,,,,,blue,square
0.5,0,3.0,3.0,434.492111206,2.0,part_1,,,,,,,,,,,,,orange,circle
2.0,0,4.0,4.0,434.92412567099996,2.0,part_1,,,,,,,,,,,,,green,line
4.0,1,3.0,3.0,401.135921478,2.0,part_1,,,,,,,,,,,,,magenta,cross
2.0,0,2.0,2.0,333.549976349,2.0,part_1,,,,,,,,,,,,,green,line
4.0,0,4.0,4.0,384.164810181,2.0,part_1,,,,,,,,,,,,,yellow,triangle
4.0,1,2.0,2.0,434.287071228,2.0,part_1,,,,,,,,,,,,,magenta,cross
2.0,1,1.0,1.0,350.641012192,2.0,part_1,,,,,,,,,,,,,blue,square
4.0,0,4.0,4.0,417.569875717,2.0,part_1,,,,,,,,,,,,,yellow,triangle
4.0,0,4.0,4.0,517.54283905,2.0,part_1,,,,,,,,,,,,,yellow,triangle
0.5,1,2.0,2.0,617.561817169,2.0,part_1,,,,,,,,,,,,,cyan,flipped triangle
1.0,1,2.0,2.0,417.602062225,2.0,part_1,,,,,,,,,,,,,white,hexagon
0.5,1,2.0,2.0,334.075927734,2.0,part_1,,,,,,,,,,,,,cyan,flipped triangle
4.0,1,4.0,4.0,384.046077728,2.0,part_1,,,,,,,,,,,,,magenta,cross
4.0,0,3.0,3.0,384.105920792,2.0,part_1,,,,,,,,,,,,,yellow,triangle
4.0,0,1.0,1.0,367.358922958,2.0,part_1,,,,,,,,,,,,,yellow,triangle
4.0,0,4.0,4.0,384.312868118,2.0,part_1,,,,,,,,,,,,,yellow,triangle
2.0,1,2.0,2.0,400.16579628,2.0,part_1,,,,,,,,,,,,,blue,square
0.5,0,3.0,3.0,400.385141373,2.0,part_1,,,,,,,,,,,,,orange,circle
0.5,1,1.0,1.0,384.014844894,2.0,part_1,,,,,,,,,,,,,cyan,flipped triangle
0.5,1,2.0,2.0,317.597150803,2.0,part_1,,,,,,,,,,,,,cyan,flipped triangle
1.0,1,4.0,4.0,434.049844742,2.0,part_1,,,,,,,,,,,,,white,hexagon
0.5,1,4.0,4.0,417.490005493,2.0,part_1,,,,,,,,,,,,,cyan,flipped triangle
1.0,1,4.0,4.0,400.629997253,2.0,part_1,,,,,,,,,,,,,white,hexagon
2.0,1,3.0,3.0,367.835044861,2.0,part_1,,,,,,,,,,,,,blue,square
1.0,0,3.0,3.0,334.308862686,2.0,part_1,,,,,,,,,,,,,gray,diamond
0.5,1,3.0,3.0,367.50793457000003,2.0,part_1,,,,,,,,,,,,,cyan,flipped triangle
4.0,0,2.0,2.0,400.92682838400003,2.0,part_1,,,,,,,,,,,,,yellow,triangle
2.0,1,2.0,2.0,384.077072144,2.0,part_1,,,,,,,,,,,,,blue,square
1.0,0,1.0,1.0,484.47394371,2.0,part_1,,,,,,,,,,,,,gray,diamond
1.0,1,1.0,1.0,451.297044754,2.0,part_1,,,,,,,,,,,,,white,hexagon
4.0,0,4.0,4.0,484.738111496,2.0,part_1,,,,,,,,,,,,,yellow,triangle
2.0,0,1.0,1.0,451.308012009,2.0,part_1,,,,,,,,,,,,,green,line
2.0,0,1.0,1.0,484.449863434,2.0,part_1,,,,,,,,,,,,,green,line
0.5,1,1.0,1.0,417.520999908,2.0,part_1,,,,,,,,,,,,,cyan,flipped triangle
4.0,0,3.0,3.0,601.129055023,2.0,part_1,,,,,,,,,,,,,yellow,triangle
0.5,1,4.0,4.0,384.481906891,2.0,part_1,,,,,,,,,,,,,cyan,flipped triangle
0.5,0,1.0,1.0,668.0228710169999,2.0,part_1,,,,,,,,,,,,,orange,circle
2.0,1,2.0,2.0,484.664201736,2.0,part_1,,,,,,,,,,,,,blue,square
1.0,0,3.0,3.0,384.387969971,2.0,part_1,,,,,,,,,,,,,gray,diamond
0.5,1,3.0,3.0,417.880058289,2.0,part_1,,,,,,,,,,,,,cyan,flipped triangle
0.5,1,4.0,4.0,367.829084396,2.0,part_1,,,,,,,,,,,,,cyan,flipped triangle
2.0,0,3.0,3.0,384.18388366700003,2.0,part_1,,,,,,,,,,,,,green,line
1.0,0,1.0,1.0,417.437791824,2.0,part_1,,,,,,,,,,,,,gray,diamond
4.0,1,1.0,1.0,484.34209823599997,2.0,part_1,,,,,,,,,,,,,magenta,cross
4.0,0,3.0,3.0,450.93488693200004,2.0,part_1,,,,,,,,,,,,,yellow,triangle
1.0,1,4.0,4.0,468.27387809799995,2.0,part_1,,,,,,,,,,,,,white,hexagon
0.5,1,2.0,2.0,484.304189682,2.0,part_1,,,,,,,,,,,,,cyan,flipped triangle
1.0,1,3.0,3.0,434.279918671,2.0,part_1,,,,,,,,,,,,,white,hexagon
2.0,0,4.0,4.0,551.453828812,2.0,part_1,,,,,,,,,,,,,green,line
1.0,1,2.0,2.0,450.48904418899997,2.0,part_1,,,,,,,,,,,,,white,hexagon
0.5,0,2.0,2.0,451.244115829,2.0,part_1,,,,,,,,,,,,,orange,circle
1.0,1,2.0,2.0,451.297044754,2.0,part_1,,,,,,,,,,,,,white,hexagon
4.0,1,4.0,4.0,567.0089721679999,2.0,part_1,,,,,,,,,,,,,magenta,cross
0.5,0,1.0,1.0,534.533977509,2.0,part_1,,,,,,,,,,,,,orange,circle
0.5,1,4.0,4.0,517.8101062769999,2.0,part_1,,,,,,,,,,,,,cyan,flipped triangle
1.0,1,4.0,4.0,634.575128555,2.0,part_1,,,,,,,,,,,,,white,hexagon
4.0,1,4.0,4.0,433.819055557,2.0,part_1,,,,,,,,,,,,,magenta,cross
2.0,1,1.0,1.0,484.33804512,2.0,part_1,,,,,,,,,,,,,blue,square
0.5,1,2.0,2.0,418.060064316,2.0,part_1,,,,,,,,,,,,,cyan,flipped triangle
0.5,0,3.0,3.0,467.824935913,2.0,part_1,,,,,,,,,,,,,orange,circle
4.0,1,2.0,2.0,384.213924408,3.0,part_1,,,,,,,,,,,,,magenta,cross
4.0,1,3.0,3.0,500.877857208,3.0,part_1,,,,,,,,,,,,,magenta,cross
1.0,1,4.0,4.0,451.017141342,3.0,part_1,,,,,,,,,,,,,white,hexagon
4.0,0,4.0,4.0,500.866174698,3.0,part_1,,,,,,,,,,,,,yellow,triangle
2.0,0,4.0,4.0,450.981140137,3.0,part_1,,,,,,,,,,,,,green,line
4.0,0,4.0,4.0,417.91582107500005,3.0,part_1,,,,,,,,,,,,,yellow,triangle
1.0,0,3.0,3.0,434.22198295600003,3.0,part_1,,,,,,,,,,,,,gray,diamond
2.0,1,3.0,3.0,501.33180618299997,3.0,part_1,,,,,,,,,,,,,blue,square
0.5,0,1.0,1.0,450.935125351,3.0,part_1,,,,,,,,,,,,,orange,circle
4.0,1,4.0,4.0,384.84787940999996,3.0,part_1,,,,,,,,,,,,,magenta,cross
1.0,1,3.0,3.0,317.68488884,3.0,part_1,,,,,,,,,,,,,white,hexagon
1.0,0,3.0,3.0,317.408084869,3.0,part_1,,,,,,,,,,,,,gray,diamond
4.0,0,3.0,3.0,434.63206291200004,3.0,part_1,,,,,,,,,,,,,yellow,triangle
0.5,1,1.0,1.0,401.444911957,3.0,part_1,,,,,,,,,,,,,cyan,flipped triangle
0.5,1,4.0,4.0,467.764854431,3.0,part_1,,,,,,,,,,,,,cyan,flipped triangle
2.0,1,2.0,2.0,451.252222061,3.0,part_1,,,,,,,,,,,,,blue,square
1.0,1,4.0,4.0,383.554935455,3.0,part_1,,,,,,,,,,,,,white,hexagon
0.5,0,2.0,2.0,451.102018356,3.0,part_1,,,,,,,,,,,,,orange,circle
1.0,0,1.0,1.0,351.413965225,3.0,part_1,,,,,,,,,,,,,gray,diamond
0.5,0,2.0,2.0,317.361116409,3.0,part_1,,,,,,,,,,,,,orange,circle
1.0,1,4.0,4.0,350.883960724,3.0,part_1,,,,,,,,,,,,,white,hexagon
1.0,0,1.0,1.0,384.001016617,3.0,part_1,,,,,,,,,,,,,gray,diamond
0.5,1,3.0,3.0,384.293079376,3.0,part_1,,,,,,,,,,,,,cyan,flipped triangle
4.0,1,1.0,1.0,317.538022995,3.0,part_1,,,,,,,,,,,,,magenta,cross
4.0,1,2.0,2.0,367.116928101,3.0,part_1,,,,,,,,,,,,,magenta,cross
0.5,0,1.0,1.0,417.619943619,3.0,part_1,,,,,,,,,,,,,orange,circle
1.0,0,4.0,4.0,384.295940399,3.0,part_1,,,,,,,,,,,,,gray,diamond
1.0,0,4.0,4.0,401.14593505899995,3.0,part_1,,,,,,,,,,,,,gray,diamond
2.0,0,1.0,1.0,401.266098022,3.0,part_1,,,,,,,,,,,,,green,line
0.5,1,3.0,3.0,350.86297988900003,3.0,part_1,,,,,,,,,,,,,cyan,flipped triangle
4.0,0,2.0,2.0,317.717075348,3.0,part_1,,,,,,,,,,,,,yellow,triangle
2.0,1,2.0,2.0,334.15007591200003,3.0,part_1,,,,,,,,,,,,,blue,square
1.0,0,2.0,2.0,434.63492393499996,3.0,part_1,,,,,,,,,,,,,gray,diamond
4.0,0,3.0,3.0,401.130914688,3.0,part_1,,,,,,,,,,,,,yellow,triangle
4.0,1,2.0,2.0,334.231853485,3.0,part_1,,,,,,,,,,,,,magenta,cross
2.0,1,3.0,3.0,350.625991821,3.0,part_1,,,,,,,,,,,,,blue,square
1.0,1,4.0,4.0,534.323215485,3.0,part_1,,,,,,,,,,,,,white,hexagon
0.5,1,3.0,3.0,350.73900222799995,3.0,part_1,,,,,,,,,,,,,cyan,flipped triangle
2.0,0,1.0,1.0,384.06586647,3.0,part_1,,,,,,,,,,,,,green,line
1.0,1,2.0,2.0,318.46904754599996,3.0,part_1,,,,,,,,,,,,,white,hexagon
0.5,1,4.0,4.0,384.03606414800004,3.0,part_1,,,,,,,,,,,,,cyan,flipped triangle
2.0,1,3.0,3.0,384.824991226,3.0,part_1,,,,,,,,,,,,,blue,square
2.0,1,2.0,2.0,334.59997177099996,3.0,part_1,,,,,,,,,,,,,blue,square
0.5,1,3.0,3.0,417.69719123799996,3.0,part_1,,,,,,,,,,,,,cyan,flipped triangle
1.0,0,1.0,1.0,384.19795036299996,3.0,part_1,,,,,,,,,,,,,gray,diamond
0.5,1,3.0,3.0,367.442131042,3.0,part_1,,,,,,,,,,,,,cyan,flipped triangle
0.5,1,2.0,2.0,434.50307846100003,3.0,part_1,,,,,,,,,,,,,cyan,flipped triangle
0.5,0,2.0,2.0,484.636068344,3.0,part_1,,,,,,,,,,,,,orange,circle
4.0,0,1.0,1.0,484.32207107500005,3.0,part_1,,,,,,,,,,,,,yellow,triangle
1.0,1,4.0,4.0,384.49001312300004,3.0,part_1,,,,,,,,,,,,,white,hexagon
1.0,1,3.0,3.0,417.438030243,3.0,part_1,,,,,,,,,,,,,white,hexagon
2.0,0,4.0,4.0,418.0560112,3.0,part_1,,,,,,,,,,,,,green,line
0.5,0,2.0,2.0,434.22293663,3.0,part_1,,,,,,,,,,,,,orange,circle
0.5,0,1.0,1.0,434.016942978,3.0,part_1,,,,,,,,,,,,,orange,circle
2.0,0,1.0,1.0,501.309156418,3.0,part_1,,,,,,,,,,,,,green,line
2.0,1,3.0,3.0,550.626993179,3.0,part_1,,,,,,,,,,,,,blue,square
1.0,1,3.0,3.0,383.801937103,3.0,part_1,,,,,,,,,,,,,white,hexagon
1.0,1,1.0,1.0,334.553956985,3.0,part_1,,,,,,,,,,,,,white,hexagon
0.5,0,2.0,2.0,317.548036575,3.0,part_1,,,,,,,,,,,,,orange,circle
0.5,0,4.0,4.0,400.989055634,3.0,part_1,,,,,,,,,,,,,orange,circle
1.0,0,3.0,3.0,350.703954697,3.0,part_1,,,,,,,,,,,,,gray,diamond
2.0,0,1.0,1.0,367.492198944,3.0,part_1,,,,,,,,,,,,,green,line
4.0,1,3.0,3.0,400.94304084799995,3.0,part_1,,,,,,,,,,,,,magenta,cross
2.0,0,4.0,4.0,367.707967758,3.0,part_1,,,,,,,,,,,,,green,line
4.0,1,1.0,1.0,400.671958923,3.0,part_1,,,,,,,,,,,,,magenta,cross
4.0,1,2.0,2.0,417.95086860699996,3.0,part_1,,,,,,,,,,,,,magenta,cross
1.0,1,1.0,1.0,384.3729496,3.0,part_1,,,,,,,,,,,,,white,hexagon
1.0,1,2.0,2.0,284.502029419,3.0,part_1,,,,,,,,,,,,,white,hexagon
4.0,1,4.0,4.0,467.749834061,3.0,part_1,,,,,,,,,,,,,magenta,cross
1.0,0,2.0,2.0,467.791080475,3.0,part_1,,,,,,,,,,,,,gray,diamond
0.5,0,1.0,1.0,350.728988647,3.0,part_1,,,,,,,,,,,,,orange,circle
2.0,1,2.0,2.0,367.697000504,3.0,part_1,,,,,,,,,,,,,blue,square
2.0,1,2.0,2.0,400.954961777,3.0,part_1,,,,,,,,,,,,,blue,square
1.0,1,1.0,1.0,500.868082047,3.0,part_1,,,,,,,,,,,,,white,hexagon
0.5,0,1.0,1.0,484.61198806799996,3.0,part_1,,,,,,,,,,,,,orange,circle
1.0,1,1.0,1.0,434.65089798,3.0,part_1,,,,,,,,,,,,,white,hexagon
2.0,1,3.0,3.0,484.647035599,3.0,part_1,,,,,,,,,,,,,blue,square
1.0,0,4.0,4.0,417.166948318,3.0,part_1,,,,,,,,,,,,,gray,diamond
0.5,0,1.0,1.0,484.62200164800004,3.0,part_1,,,,,,,,,,,,,orange,circle
2.0,0,2.0,2.0,350.19803047199997,3.0,part_1,,,,,,,,,,,,,green,line
1.0,1,4.0,4.0,417.789936066,3.0,part_1,,,,,,,,,,,,,white,hexagon
4.0,0,3.0,3.0,468.122959137,3.0,part_1,,,,,,,,,,,,,yellow,triangle
1.0,0,4.0,4.0,384.016990662,3.0,part_1,,,,,,,,,,,,,gray,diamond
4.0,1,4.0,4.0,384.241104126,3.0,part_1,,,,,,,,,,,,,magenta,cross
1.0,1,2.0,2.0,367.327213287,3.0,part_1,,,,,,,,,,,,,white,hexagon
2.0,1,2.0,2.0,317.496776581,3.0,part_1,,,,,,,,,,,,,blue,square
2.0,1,4.0,4.0,417.751073837,3.0,part_1,,,,,,,,,,,,,blue,square
0.5,0,1.0,1.0,500.946044922,3.0,part_1,,,,,,,,,,,,,orange,circle
4.0,1,1.0,1.0,300.503969193,3.0,part_1,,,,,,,,,,,,,magenta,cross
0.5,1,4.0,4.0,451.05123519899996,3.0,part_1,,,,,,,,,,,,,cyan,flipped triangle
4.0,1,3.0,3.0,400.66194534299996,3.0,part_1,,,,,,,,,,,,,magenta,cross
4.0,0,1.0,1.0,367.501974106,3.0,part_1,,,,,,,,,,,,,yellow,triangle
0.5,1,1.0,1.0,501.262903214,3.0,part_1,,,,,,,,,,,,,cyan,flipped triangle
0.5,0,2.0,2.0,434.376955032,3.0,part_1,,,,,,,,,,,,,orange,circle
1.0,1,3.0,3.0,501.123905182,3.0,part_1,,,,,,,,,,,,,white,hexagon
1.0,1,2.0,2.0,400.923013687,3.0,part_1,,,,,,,,,,,,,white,hexagon
0.5,1,3.0,3.0,417.87481308,3.0,part_1,,,,,,,,,,,,,cyan,flipped triangle
1.0,1,4.0,4.0,584.326028824,3.0,part_1,,,,,,,,,,,,,white,hexagon
2.0,0,4.0,4.0,567.718982697,3.0,part_1,,,,,,,,,,,,,green,line
0.5,1,3.0,3.0,500.704050064,3.0,part_1,,,,,,,,,,,,,cyan,flipped triangle
1.0,0,2.0,2.0,384.140968323,4.0,part_1,,,,,,,,,,,,,gray,diamond
1.0,1,3.0,3.0,317.74187088,4.0,part_1,,,,,,,,,,,,,white,hexagon
2.0,1,1.0,1.0,350.57687759400005,4.0,part_1,,,,,,,,,,,,,blue,square
2.0,0,1.0,1.0,400.97498893700003,4.0,part_1,,,,,,,,,,,,,green,line
4.0,1,2.0,2.0,334.580898285,4.0,part_1,,,,,,,,,,,,,magenta,cross
1.0,0,2.0,2.0,334.44404602099996,4.0,part_1,,,,,,,,,,,,,gray,diamond
2.0,0,1.0,1.0,384.710073471,4.0,part_1,,,,,,,,,,,,,green,line
2.0,0,3.0,3.0,384.22203064,4.0,part_1,,,,,,,,,,,,,green,line
1.0,1,2.0,2.0,333.909988403,4.0,part_1,,,,,,,,,,,,,white,hexagon
0.5,0,3.0,3.0,350.712776184,4.0,part_1,,,,,,,,,,,,,orange,circle
1.0,0,4.0,4.0,401.318073273,4.0,part_1,,,,,,,,,,,,,gray,diamond
0.5,0,2.0,2.0,267.524003983,4.0,part_1,,,,,,,,,,,,,orange,circle
0.5,0,3.0,3.0,317.211866379,4.0,part_1,,,,,,,,,,,,,orange,circle
2.0,0,1.0,1.0,367.735147476,4.0,part_1,,,,,,,,,,,,,green,line
4.0,0,1.0,1.0,350.865840912,4.0,part_1,,,,,,,,,,,,,yellow,triangle
1.0,0,1.0,1.0,367.469072342,4.0,part_1,,,,,,,,,,,,,gray,diamond
1.0,1,4.0,4.0,368.188142776,4.0,part_1,,,,,,,,,,,,,white,hexagon
4.0,1,1.0,1.0,417.490959167,4.0,part_1,,,,,,,,,,,,,magenta,cross
4.0,1,3.0,3.0,383.511066437,4.0,part_1,,,,,,,,,,,,,magenta,cross
2.0,1,1.0,1.0,334.28311348,4.0,part_1,,,,,,,,,,,,,blue,square
4.0,0,2.0,2.0,367.557048798,4.0,part_1,,,,,,,,,,,,,yellow,triangle
4.0,1,3.0,3.0,317.344903946,4.0,part_1,,,,,,,,,,,,,magenta,cross
2.0,0,2.0,2.0,367.72108077999997,4.0,part_1,,,,,,,,,,,,,green,line
2.0,1,4.0,4.0,367.31004715,4.0,part_1,,,,,,,,,,,,,blue,square
0.5,0,4.0,4.0,384.02605056799996,4.0,part_1,,,,,,,,,,,,,orange,circle
2.0,1,4.0,4.0,367.826938629,4.0,part_1,,,,,,,,,,,,,blue,square
1.0,1,3.0,3.0,367.53201484699997,4.0,part_1,,,,,,,,,,,,,white,hexagon
2.0,0,2.0,2.0,317.472934723,4.0,part_1,,,,,,,,,,,,,green,line
2.0,1,3.0,3.0,400.55894851700003,4.0,part_1,,,,,,,,,,,,,blue,square
2.0,0,2.0,2.0,351.014852524,4.0,part_1,,,,,,,,,,,,,green,line
4.0,0,4.0,4.0,367.511987686,4.0,part_1,,,,,,,,,,,,,yellow,triangle
2.0,1,4.0,4.0,367.542982101,4.0,part_1,,,,,,,,,,,,,blue,square
4.0,1,4.0,4.0,383.948087692,4.0,part_1,,,,,,,,,,,,,magenta,cross
0.5,1,1.0,1.0,333.790063858,4.0,part_1,,,,,,,,,,,,,cyan,flipped triangle
4.0,1,2.0,2.0,334.07497406,4.0,part_1,,,,,,,,,,,,,magenta,cross
4.0,0,3.0,3.0,284.835100174,4.0,part_1,,,,,,,,,,,,,yellow,triangle
2.0,1,3.0,3.0,350.99887847900004,4.0,part_1,,,,,,,,,,,,,blue,square
4.0,1,2.0,2.0,334.679841995,4.0,part_1,,,,,,,,,,,,,magenta,cross
2.0,0,1.0,1.0,417.330026627,4.0,part_1,,,,,,,,,,,,,green,line
4.0,0,2.0,2.0,284.20400619500003,4.0,part_1,,,,,,,,,,,,,yellow,triangle
2.0,0,4.0,4.0,350.687026978,4.0,part_1,,,,,,,,,,,,,green,line
0.5,1,4.0,4.0,384.636878967,4.0,part_1,,,,,,,,,,,,,cyan,flipped triangle
1.0,0,4.0,4.0,401.198148727,4.0,part_1,,,,,,,,,,,,,gray,diamond
2.0,1,4.0,4.0,334.264039993,4.0,part_1,,,,,,,,,,,,,blue,square
1.0,1,2.0,2.0,418.068885803,4.0,part_1,,,,,,,,,,,,,white,hexagon
0.5,1,3.0,3.0,317.43812561,4.0,part_1,,,,,,,,,,,,,cyan,flipped triangle
2.0,0,3.0,3.0,433.864116669,4.0,part_1,,,,,,,,,,,,,green,line
0.5,0,2.0,2.0,317.409038544,4.0,part_1,,,,,,,,,,,,,orange,circle
1.0,0,4.0,4.0,317.80695915200005,4.0,part_1,,,,,,,,,,,,,gray,diamond
2.0,1,1.0,1.0,350.975036621,4.0,part_1,,,,,,,,,,,,,blue,square
4.0,1,2.0,2.0,334.703922272,4.0,part_1,,,,,,,,,,,,,magenta,cross
4.0,1,2.0,2.0,334.02585983299997,4.0,part_1,,,,,,,,,,,,,magenta,cross
1.0,0,3.0,3.0,367.625951767,4.0,part_1,,,,,,,,,,,,,gray,diamond
1.0,0,3.0,3.0,351.30405426,4.0,part_1,,,,,,,,,,,,,gray,diamond
1.0,0,3.0,3.0,484.344959259,4.0,part_1,,,,,,,,,,,,,gray,diamond
1.0,0,2.0,2.0,334.14483070399996,4.0,part_1,,,,,,,,,,,,,gray,diamond
1.0,0,3.0,3.0,367.77305602999996,4.0,part_1,,,,,,,,,,,,,gray,diamond
4.0,0,1.0,1.0,367.933034897,4.0,part_1,,,,,,,,,,,,,yellow,triangle
4.0,1,1.0,1.0,350.289106369,4.0,part_1,,,,,,,,,,,,,magenta,cross
4.0,0,3.0,3.0,400.804042816,4.0,part_1,,,,,,,,,,,,,yellow,triangle
4.0,0,3.0,3.0,350.521087646,4.0,part_1,,,,,,,,,,,,,yellow,triangle
0.5,1,2.0,2.0,284.234046936,4.0,part_1,,,,,,,,,,,,,cyan,flipped triangle
0.5,1,4.0,4.0,384.500026703,4.0,part_1,,,,,,,,,,,,,cyan,flipped triangle
0.5,1,2.0,2.0,300.817012787,4.0,part_1,,,,,,,,,,,,,cyan,flipped triangle
0.5,0,3.0,3.0,350.698947906,4.0,part_1,,,,,,,,,,,,,orange,circle
2.0,1,3.0,3.0,350.515127182,4.0,part_1,,,,,,,,,,,,,blue,square
2.0,1,4.0,4.0,351.284980774,4.0,part_1,,,,,,,,,,,,,blue,square
2.0,1,2.0,2.0,317.322969437,4.0,part_1,,,,,,,,,,,,,blue,square
2.0,0,2.0,2.0,450.914859772,4.0,part_1,,,,,,,,,,,,,green,line
1.0,1,1.0,1.0,384.392023087,4.0,part_1,,,,,,,,,,,,,white,hexagon
4.0,0,1.0,1.0,367.562770844,4.0,part_1,,,,,,,,,,,,,yellow,triangle
0.5,1,1.0,1.0,334.05995369000004,4.0,part_1,,,,,,,,,,,,,cyan,flipped triangle
4.0,0,3.0,3.0,300.606966019,4.0,part_1,,,,,,,,,,,,,yellow,triangle
1.0,0,1.0,1.0,367.29693412800003,4.0,part_1,,,,,,,,,,,,,gray,diamond
1.0,0,4.0,4.0,467.20290184000004,4.0,part_1,,,,,,,,,,,,,gray,diamond
1.0,1,2.0,2.0,501.51085853599994,4.0,part_1,,,,,,,,,,,,,white,hexagon
1.0,0,4.0,4.0,417.709827423,4.0,part_1,,,,,,,,,,,,,gray,diamond
4.0,0,4.0,4.0,400.83193779,4.0,part_1,,,,,,,,,,,,,yellow,triangle
0.5,0,1.0,1.0,451.49588584900005,4.0,part_1,,,,,,,,,,,,,orange,circle
2.0,1,4.0,4.0,384.124040604,4.0,part_1,,,,,,,,,,,,,blue,square
0.5,0,4.0,4.0,367.270946503,4.0,part_1,,,,,,,,,,,,,orange,circle
4.0,0,3.0,3.0,351.140975952,4.0,part_1,,,,,,,,,,,,,yellow,triangle
1.0,1,1.0,1.0,384.182214737,4.0,part_1,,,,,,,,,,,,,white,hexagon
0.5,0,3.0,3.0,367.453098297,4.0,part_1,,,,,,,,,,,,,orange,circle
1.0,1,1.0,1.0,350.867986679,4.0,part_1,,,,,,,,,,,,,white,hexagon
0.5,0,1.0,1.0,451.662063599,4.0,part_1,,,,,,,,,,,,,orange,circle
0.5,0,3.0,3.0,450.874090195,4.0,part_1,,,,,,,,,,,,,orange,circle
4.0,0,2.0,2.0,400.061845779,4.0,part_1,,,,,,,,,,,,,yellow,triangle
1.0,1,3.0,3.0,367.409944534,4.0,part_1,,,,,,,,,,,,,white,hexagon
4.0,1,1.0,1.0,367.769002914,4.0,part_1,,,,,,,,,,,,,magenta,cross
2.0,0,2.0,2.0,384.769916534,4.0,part_1,,,,,,,,,,,,,green,line
2.0,0,1.0,1.0,384.171009064,4.0,part_1,,,,,,,,,,,,,green,line
0.5,0,4.0,4.0,485.07285118100003,4.0,part_1,,,,,,,,,,,,,orange,circle
2.0,1,4.0,4.0,350.8040905,4.0,part_1,,,,,,,,,,,,,blue,square
2.0,0,4.0,4.0,367.929935455,4.0,part_1,,,,,,,,,,,,,green,line
2.0,1,1.0,1.0,284.067153931,4.0,part_1,,,,,,,,,,,,,blue,square
4.0,1,4.0,4.0,300.684928894,4.0,part_1,,,,,,,,,,,,,magenta,cross
2.0,1,4.0,4.0,417.32001304600004,4.0,part_1,,,,,,,,,,,,,blue,square
2.0,1,2.0,2.0,350.52680969200003,4.0,part_1,,,,,,,,,,,,,blue,square
1.0,0,1.0,1.0,317.531108856,4.0,part_1,,,,,,,,,,,,,gray,diamond
4.0,0,5.0,5.0,501.03688240099996,1.0,part_2,go,250.0,250.0,1.0,,,,,,,,,yellow,triangle
2.0,1,6.0,6.0,451.0409832,1.0,part_2,stop,250.0,250.0,3.0,,,,,,,,,blue,square
4.0,1,5.0,,,1.0,,stop,250.0,250.0,4.0,,,,,,,,,magenta,cross
2.0,0,5.0,5.0,417.391061783,1.0,part_2,go,250.0,250.0,1.0,,,,,,,,,green,line
2.0,0,6.0,6.0,667.5729751590001,1.0,part_2,go,250.0,250.0,1.0,,,,,,,,,green,line
2.0,0,6.0,6.0,651.335954666,1.0,part_2,go,250.0,250.0,1.0,,,,,,,,,green,line
2.0,1,5.0,,,1.0,,stop,300.0,250.0,4.0,,,,,,,,,blue,square
0.5,1,5.0,,,1.0,,stop,350.0,250.0,4.0,,,,,,,,,cyan,flipped triangle
2.0,0,6.0,6.0,517.169952393,1.0,part_2,go,350.0,250.0,1.0,,,,,,,,,green,line
2.0,1,6.0,6.0,584.037065506,1.0,part_2,stop,350.0,200.0,3.0,,,,,,,,,blue,square
0.5,0,5.0,5.0,518.03612709,1.0,part_2,go,350.0,200.0,1.0,,,,,,,,,orange,circle
4.0,0,5.0,5.0,451.392889023,1.0,part_2,go,350.0,200.0,1.0,,,,,,,,,yellow,triangle
1.0,1,6.0,,,1.0,,stop,350.0,150.0,4.0,,,,,,,,,white,hexagon
4.0,1,6.0,6.0,467.63491630600004,1.0,part_2,go,350.0,150.0,1.0,,,,,,,,,magenta,cross
4.0,1,6.0,,,1.0,,stop,350.0,200.0,4.0,,,,,,,,,magenta,cross
0.5,1,6.0,,,1.0,,stop,350.0,250.0,4.0,,,,,,,,,cyan,flipped triangle
4.0,0,5.0,5.0,367.538928986,1.0,part_2,go,350.0,250.0,1.0,,,,,,,,,yellow,triangle
4.0,0,6.0,6.0,400.653123856,1.0,part_2,go,350.0,250.0,1.0,,,,,,,,,yellow,triangle
2.0,1,5.0,,,1.0,,stop,400.0,250.0,4.0,,,,,,,,,blue,square
4.0,1,6.0,6.0,500.91791152999997,1.0,part_2,go,400.0,250.0,1.0,,,,,,,,,magenta,cross
2.0,1,6.0,6.0,351.17983818100004,1.0,part_2,go,400.0,250.0,1.0,,,,,,,,,blue,square
2.0,0,5.0,5.0,584.4831466669999,1.0,part_2,go,400.0,250.0,1.0,,,,,,,,,green,line
2.0,0,5.0,5.0,417.299985886,1.0,part_2,go,400.0,250.0,1.0,,,,,,,,,green,line
0.5,0,5.0,5.0,383.74209404,1.0,part_2,go,400.0,250.0,1.0,,,,,,,,,orange,circle
1.0,0,5.0,5.0,450.747013092,1.0,part_2,go,400.0,250.0,1.0,,,,,,,,,gray,diamond
2.0,1,6.0,6.0,417.16003417999997,1.0,part_2,stop,400.0,300.0,3.0,,,,,,,,,blue,square
1.0,1,5.0,5.0,567.2171115880001,1.0,part_2,stop,450.0,300.0,3.0,,,,,,,,,white,hexagon
0.5,0,5.0,5.0,734.3928813929999,1.0,part_2,go,450.0,300.0,1.0,,,,,,,,,orange,circle
4.0,1,6.0,,,1.0,,stop,450.0,250.0,4.0,,,,,,,,,magenta,cross
2.0,1,6.0,6.0,450.989961624,1.0,part_2,stop,450.0,300.0,3.0,,,,,,,,,blue,square
0.5,1,5.0,5.0,417.297124863,1.0,part_2,stop,400.0,300.0,3.0,,,,,,,,,cyan,flipped triangle
1.0,0,6.0,6.0,718.105077744,1.0,part_2,go,400.0,300.0,1.0,,,,,,,,,gray,diamond
2.0,1,5.0,,,1.0,,stop,350.0,300.0,4.0,,,,,,,,,blue,square
0.5,1,6.0,6.0,534.092187881,1.0,part_2,go,350.0,300.0,1.0,,,,,,,,,cyan,flipped triangle
4.0,1,6.0,6.0,668.406963348,1.0,part_2,go,350.0,300.0,1.0,,,,,,,,,magenta,cross
4.0,0,5.0,5.0,534.399986267,1.0,part_2,go,350.0,300.0,1.0,,,,,,,,,yellow,triangle
2.0,1,6.0,,,2.0,,stop,350.0,250.0,4.0,,,,,,,,,blue,square
1.0,0,5.0,5.0,367.446899414,2.0,part_2,go,350.0,250.0,1.0,,,,,,,,,gray,diamond
0.5,0,5.0,5.0,501.234054565,2.0,part_2,go,350.0,250.0,1.0,,,,,,,,,orange,circle
2.0,0,6.0,6.0,484.029054642,2.0,part_2,go,350.0,250.0,1.0,,,,,,,,,green,line
1.0,0,5.0,5.0,650.949001312,2.0,part_2,go,350.0,250.0,1.0,,,,,,,,,gray,diamond
1.0,1,6.0,6.0,600.9159088130001,2.0,part_2,go,350.0,250.0,1.0,,,,,,,,,white,hexagon
2.0,1,5.0,5.0,384.041786194,2.0,part_2,stop,400.0,250.0,3.0,,,,,,,,,blue,square
4.0,0,6.0,6.0,384.155035019,2.0,part_2,go,400.0,250.0,1.0,,,,,,,,,yellow,triangle
2.0,1,6.0,6.0,450.832843781,2.0,part_2,stop,400.0,300.0,3.0,,,,,,,,,blue,square
0.5,0,6.0,6.0,534.263134003,2.0,part_2,go,400.0,300.0,1.0,,,,,,,,,orange,circle
4.0,0,5.0,5.0,383.955955505,2.0,part_2,go,400.0,300.0,1.0,,,,,,,,,yellow,triangle
0.5,0,5.0,5.0,534.20996666,2.0,part_2,go,400.0,300.0,1.0,,,,,,,,,orange,circle
1.0,0,5.0,5.0,367.285966873,2.0,part_2,go,400.0,300.0,1.0,,,,,,,,,gray,diamond
4.0,0,5.0,5.0,401.13401412999997,2.0,part_2,go,400.0,300.0,1.0,,,,,,,,,yellow,triangle
0.5,0,6.0,6.0,618.07513237,2.0,part_2,go,400.0,300.0,1.0,,,,,,,,,orange,circle
0.5,1,5.0,5.0,500.84519386299996,2.0,part_2,go,400.0,300.0,1.0,,,,,,,,,cyan,flipped triangle
2.0,0,5.0,5.0,467.908859253,2.0,part_2,go,400.0,300.0,1.0,,,,,,,,,green,line
2.0,0,5.0,5.0,434.58199501,2.0,part_2,go,400.0,300.0,1.0,,,,,,,,,green,line
4.0,0,6.0,6.0,483.88504982,2.0,part_2,go,400.0,300.0,1.0,,,,,,,,,yellow,triangle
2.0,0,6.0,6.0,434.33713912999997,2.0,part_2,go,400.0,300.0,1.0,,,,,,,,,green,line
2.0,0,6.0,6.0,517.646074295,2.0,part_2,go,400.0,300.0,1.0,,,,,,,,,green,line
0.5,1,6.0,6.0,501.33991241499996,2.0,part_2,stop,400.0,250.0,3.0,,,,,,,,,cyan,flipped triangle
0.5,1,6.0,,,2.0,,stop,400.0,200.0,4.0,,,,,,,,,cyan,flipped triangle
2.0,0,6.0,6.0,517.323970795,2.0,part_2,go,400.0,200.0,1.0,,,,,,,,,green,line
0.5,0,5.0,5.0,351.016044617,2.0,part_2,go,400.0,200.0,1.0,,,,,,,,,orange,circle
0.5,0,5.0,5.0,517.127037048,2.0,part_2,go,400.0,200.0,1.0,,,,,,,,,orange,circle
0.5,0,5.0,5.0,550.894021988,2.0,part_2,go,400.0,200.0,1.0,,,,,,,,,orange,circle
2.0,1,6.0,6.0,484.261989594,2.0,part_2,go,400.0,200.0,1.0,,,,,,,,,blue,square
2.0,1,5.0,5.0,484.292030334,2.0,part_2,stop,350.0,200.0,3.0,,,,,,,,,blue,square
1.0,1,6.0,6.0,551.578998566,2.0,part_2,stop,350.0,250.0,3.0,,,,,,,,,white,hexagon
4.0,1,5.0,5.0,700.8128166199999,2.0,part_2,go,350.0,250.0,1.0,,,,,,,,,magenta,cross
1.0,1,6.0,,,2.0,,stop,350.0,200.0,4.0,,,,,,,,,white,hexagon
1.0,0,6.0,6.0,651.2038707730001,2.0,part_2,go,350.0,200.0,1.0,,,,,,,,,gray,diamond
4.0,0,5.0,5.0,601.2630462650001,2.0,part_2,go,350.0,200.0,1.0,,,,,,,,,yellow,triangle
4.0,0,5.0,5.0,634.45520401,2.0,part_2,go,350.0,200.0,1.0,,,,,,,,,yellow,triangle
0.5,1,6.0,6.0,367.542028427,2.0,part_2,stop,350.0,250.0,3.0,,,,,,,,,cyan,flipped triangle
0.5,0,6.0,6.0,467.05007553099995,3.0,part_2,go,350.0,250.0,1.0,,,,,,,,,orange,circle
1.0,0,6.0,6.0,584.4810009,3.0,part_2,go,350.0,250.0,1.0,,,,,,,,,gray,diamond
0.5,1,6.0,,,3.0,,stop,350.0,200.0,4.0,,,,,,,,,cyan,flipped triangle
4.0,0,5.0,5.0,667.4971580509999,3.0,part_2,go,350.0,200.0,1.0,,,,,,,,,yellow,triangle
2.0,1,5.0,5.0,634.3729496,3.0,part_2,go,350.0,200.0,1.0,,,,,,,,,blue,square
4.0,0,6.0,6.0,468.09983253499996,3.0,part_2,go,350.0,200.0,1.0,,,,,,,,,yellow,triangle
4.0,0,6.0,6.0,501.115083694,3.0,part_2,go,350.0,200.0,1.0,,,,,,,,,yellow,triangle
4.0,1,6.0,6.0,434.159994125,3.0,part_2,stop,350.0,250.0,3.0,,,,,,,,,magenta,cross
1.0,0,5.0,5.0,550.5940914150001,3.0,part_2,go,350.0,250.0,1.0,,,,,,,,,gray,diamond
2.0,1,6.0,6.0,434.796094894,3.0,part_2,go,350.0,250.0,1.0,,,,,,,,,blue,square
4.0,0,5.0,5.0,434.405088425,3.0,part_2,go,350.0,250.0,1.0,,,,,,,,,yellow,triangle
0.5,1,6.0,,,3.0,,stop,350.0,200.0,4.0,,,,,,,,,cyan,flipped triangle
0.5,1,6.0,6.0,450.842142105,3.0,part_2,go,350.0,200.0,1.0,,,,,,,,,cyan,flipped triangle
1.0,0,6.0,6.0,484.054803848,3.0,part_2,go,350.0,200.0,1.0,,,,,,,,,gray,diamond
0.5,1,5.0,5.0,517.633914948,3.0,part_2,go,350.0,200.0,1.0,,,,,,,,,cyan,flipped triangle
1.0,0,5.0,5.0,450.870990753,3.0,part_2,go,350.0,200.0,1.0,,,,,,,,,gray,diamond
2.0,0,5.0,5.0,450.898885727,3.0,part_2,go,350.0,200.0,1.0,,,,,,,,,green,line
0.5,1,5.0,5.0,434.787988663,3.0,part_2,stop,300.0,200.0,3.0,,,,,,,,,cyan,flipped triangle
0.5,0,6.0,6.0,567.51704216,3.0,part_2,go,300.0,200.0,1.0,,,,,,,,,orange,circle
2.0,0,6.0,6.0,484.21502113300005,3.0,part_2,go,300.0,200.0,1.0,,,,,,,,,green,line
1.0,0,6.0,6.0,501.16491317699996,3.0,part_2,go,300.0,200.0,1.0,,,,,,,,,gray,diamond
1.0,0,5.0,5.0,417.418003082,3.0,part_2,go,300.0,200.0,1.0,,,,,,,,,gray,diamond
1.0,1,6.0,6.0,317.375898361,3.0,part_2,stop,300.0,250.0,3.0,,,,,,,,,white,hexagon
4.0,1,5.0,5.0,417.254924774,3.0,part_2,go,300.0,250.0,1.0,,,,,,,,,magenta,cross
4.0,0,5.0,5.0,484.23409462,3.0,part_2,go,300.0,250.0,1.0,,,,,,,,,yellow,triangle
2.0,0,6.0,6.0,467.32497215300003,3.0,part_2,go,300.0,250.0,1.0,,,,,,,,,green,line
4.0,0,5.0,5.0,500.97393989600005,3.0,part_2,go,300.0,250.0,1.0,,,,,,,,,yellow,triangle
1.0,1,5.0,5.0,400.913953781,3.0,part_2,stop,250.0,250.0,3.0,,,,,,,,,white,hexagon
0.5,0,6.0,6.0,518.1732177729999,3.0,part_2,go,250.0,250.0,1.0,,,,,,,,,orange,circle
4.0,0,6.0,6.0,451.15399360699996,3.0,part_2,go,250.0,250.0,1.0,,,,,,,,,yellow,triangle
0.5,0,6.0,6.0,517.705917358,3.0,part_2,go,250.0,250.0,1.0,,,,,,,,,orange,circle
0.5,0,5.0,5.0,584.7110748289999,3.0,part_2,go,250.0,250.0,1.0,,,,,,,,,orange,circle
2.0,0,5.0,5.0,584.256887436,3.0,part_2,go,250.0,250.0,1.0,,,,,,,,,green,line
1.0,0,5.0,5.0,568.017959595,3.0,part_2,go,250.0,250.0,1.0,,,,,,,,,gray,diamond
4.0,1,5.0,,,3.0,,stop,200.0,250.0,4.0,,,,,,,,,magenta,cross
1.0,0,5.0,5.0,584.5811367030001,3.0,part_2,go,200.0,250.0,1.0,,,,,,,,,gray,diamond
2.0,0,6.0,6.0,634.459972382,4.0,part_2,go,200.0,250.0,1.0,,,,,,,,,green,line
0.5,1,6.0,,,4.0,,stop,200.0,200.0,4.0,,,,,,,,,cyan,flipped triangle
1.0,0,6.0,6.0,401.07512474099997,4.0,part_2,go,200.0,200.0,1.0,,,,,,,,,gray,diamond
2.0,1,6.0,6.0,618.362188339,4.0,part_2,go,200.0,200.0,1.0,,,,,,,,,blue,square
1.0,1,6.0,,,4.0,,stop,200.0,250.0,4.0,,,,,,,,,white,hexagon
2.0,1,6.0,6.0,551.110982895,4.0,part_2,go,200.0,250.0,1.0,,,,,,,,,blue,square
2.0,0,6.0,6.0,467.843055725,4.0,part_2,go,200.0,250.0,1.0,,,,,,,,,green,line
4.0,1,5.0,5.0,517.956972122,4.0,part_2,go,200.0,250.0,1.0,,,,,,,,,magenta,cross
1.0,1,5.0,,,4.0,,stop,250.0,250.0,4.0,,,,,,,,,white,hexagon
4.0,0,5.0,5.0,451.138019562,4.0,part_2,go,250.0,250.0,1.0,,,,,,,,,yellow,triangle
1.0,0,6.0,6.0,517.330884933,4.0,part_2,go,250.0,250.0,1.0,,,,,,,,,gray,diamond
2.0,1,5.0,5.0,384.23204422000003,4.0,part_2,stop,300.0,250.0,3.0,,,,,,,,,blue,square
1.0,0,5.0,5.0,784.616947174,4.0,part_2,go,300.0,250.0,1.0,,,,,,,,,gray,diamond
2.0,1,5.0,5.0,484.889984131,4.0,part_2,go,300.0,250.0,1.0,,,,,,,,,blue,square
4.0,0,5.0,5.0,450.731992722,4.0,part_2,go,300.0,250.0,1.0,,,,,,,,,yellow,triangle
4.0,0,5.0,5.0,533.547878265,4.0,part_2,go,300.0,250.0,1.0,,,,,,,,,yellow,triangle
0.5,1,5.0,,,4.0,,stop,250.0,250.0,4.0,,,,,,,,,cyan,flipped triangle
1.0,0,5.0,5.0,601.138114929,4.0,part_2,go,250.0,250.0,1.0,,,,,,,,,gray,diamond
1.0,0,6.0,6.0,501.03998184200003,4.0,part_2,go,250.0,250.0,1.0,,,,,,,,,gray,diamond
4.0,0,6.0,6.0,534.306049347,4.0,part_2,go,250.0,250.0,1.0,,,,,,,,,yellow,triangle
4.0,0,5.0,5.0,300.298929214,4.0,part_2,go,250.0,250.0,1.0,,,,,,,,,yellow,triangle
0.5,0,5.0,5.0,367.999076843,4.0,part_2,go,250.0,250.0,1.0,,,,,,,,,orange,circle
0.5,1,6.0,6.0,367.233991623,4.0,part_2,stop,250.0,300.0,3.0,,,,,,,,,cyan,flipped triangle
1.0,0,6.0,6.0,550.320863724,4.0,part_2,go,250.0,300.0,1.0,,,,,,,,,gray,diamond
0.5,0,6.0,6.0,300.395011902,4.0,part_2,go,250.0,300.0,1.0,,,,,,,,,orange,circle
1.0,0,5.0,5.0,267.46702194200003,4.0,part_2,go,250.0,300.0,1.0,,,,,,,,,gray,diamond
4.0,1,5.0,5.0,434.378862381,4.0,part_2,stop,300.0,300.0,3.0,,,,,,,,,magenta,cross
0.5,1,6.0,6.0,467.342853546,4.0,part_2,go,300.0,300.0,1.0,,,,,,,,,cyan,flipped triangle
4.0,1,5.0,,,4.0,,stop,250.0,300.0,4.0,,,,,,,,,magenta,cross
0.5,0,6.0,6.0,484.920978546,4.0,part_2,go,250.0,300.0,1.0,,,,,,,,,orange,circle
0.5,1,6.0,,,4.0,,stop,250.0,250.0,4.0,,,,,,,,,cyan,flipped triangle
2.0,0,6.0,6.0,451.26914977999996,4.0,part_2,go,250.0,250.0,1.0,,,,,,,,,green,line
1.0,1,5.0,5.0,367.47312545799997,4.0,part_2,go,250.0,250.0,1.0,,,,,,,,,white,hexagon
4.0,1,5.0,,,4.0,,stop,300.0,250.0,4.0,,,,,,,,,magenta,cross
4.0,0,6.0,6.0,417.044878006,4.0,part_2,go,300.0,250.0,1.0,,,,,,,,,yellow,triangle
2.0,1,5.0,5.0,450.916051865,4.0,part_2,go,300.0,250.0,1.0,,,,,,,,,blue,square
4.0,0,6.0,6.0,551.078081131,5.0,part_2,go,300.0,250.0,1.0,,,,,,,,,yellow,triangle
0.5,0,6.0,6.0,468.45293045000005,5.0,part_2,go,300.0,250.0,1.0,,,,,,,,,orange,circle
2.0,0,5.0,5.0,484.549045563,5.0,part_2,go,300.0,250.0,1.0,,,,,,,,,green,line
0.5,1,6.0,6.0,500.905036926,5.0,part_2,stop,300.0,300.0,3.0,,,,,,,,,cyan,flipped triangle
0.5,1,6.0,,,5.0,,stop,300.0,250.0,4.0,,,,,,,,,cyan,flipped triangle
0.5,0,5.0,5.0,500.923871994,5.0,part_2,go,300.0,250.0,1.0,,,,,,,,,orange,circle
4.0,0,6.0,6.0,734.570980072,5.0,part_2,go,300.0,250.0,1.0,,,,,,,,,yellow,triangle
0.5,1,5.0,5.0,534.456014633,5.0,part_2,go,300.0,250.0,1.0,,,,,,,,,cyan,flipped triangle
1.0,0,6.0,6.0,384.15980339099997,5.0,part_2,go,300.0,250.0,1.0,,,,,,,,,gray,diamond
4.0,0,5.0,5.0,417.493104935,5.0,part_2,go,300.0,250.0,1.0,,,,,,,,,yellow,triangle
2.0,1,5.0,5.0,433.57300758400004,5.0,part_2,stop,350.0,250.0,3.0,,,,,,,,,blue,square
0.5,0,5.0,5.0,367.667913437,5.0,part_2,go,350.0,250.0,1.0,,,,,,,,,orange,circle
0.5,0,5.0,5.0,534.557104111,5.0,part_2,go,350.0,250.0,1.0,,,,,,,,,orange,circle
4.0,1,5.0,5.0,334.367990494,5.0,part_2,stop,300.0,250.0,3.0,,,,,,,,,magenta,cross
2.0,1,5.0,5.0,334.040880203,5.0,part_2,go,300.0,250.0,1.0,,,,,,,,,blue,square
1.0,0,5.0,5.0,350.738048553,5.0,part_2,go,300.0,250.0,1.0,,,,,,,,,gray,diamond
2.0,0,6.0,6.0,483.98709297199997,5.0,part_2,go,300.0,250.0,1.0,,,,,,,,,green,line
2.0,1,5.0,5.0,367.63286590599995,5.0,part_2,stop,250.0,250.0,3.0,,,,,,,,,blue,square
0.5,1,6.0,,,5.0,,stop,250.0,300.0,4.0,,,,,,,,,cyan,flipped triangle
1.0,1,6.0,6.0,484.184980392,5.0,part_2,go,250.0,300.0,1.0,,,,,,,,,white,hexagon
2.0,0,5.0,5.0,467.552900314,5.0,part_2,go,250.0,300.0,1.0,,,,,,,,,green,line
1.0,1,6.0,6.0,450.708866119,5.0,part_2,stop,250.0,350.0,3.0,,,,,,,,,white,hexagon
4.0,1,5.0,5.0,467.236042023,5.0,part_2,go,250.0,350.0,1.0,,,,,,,,,magenta,cross
4.0,0,5.0,5.0,367.162942886,5.0,part_2,go,250.0,350.0,1.0,,,,,,,,,yellow,triangle
4.0,1,5.0,,,5.0,,stop,200.0,350.0,4.0,,,,,,,,,magenta,cross
4.0,1,6.0,6.0,450.80709457399996,5.0,part_2,stop,200.0,300.0,3.0,,,,,,,,,magenta,cross
1.0,1,5.0,,,5.0,,stop,250.0,300.0,4.0,,,,,,,,,white,hexagon
2.0,1,6.0,6.0,417.583942413,5.0,part_2,stop,250.0,250.0,3.0,,,,,,,,,blue,square
4.0,1,6.0,,,5.0,,stop,250.0,200.0,4.0,,,,,,,,,magenta,cross
4.0,1,5.0,,,5.0,,stop,300.0,200.0,4.0,,,,,,,,,magenta,cross
2.0,1,6.0,,,5.0,,stop,300.0,250.0,4.0,,,,,,,,,blue,square
1.0,1,6.0,,,5.0,,stop,300.0,300.0,4.0,,,,,,,,,white,hexagon
2.0,0,6.0,6.0,617.556095123,5.0,part_2,go,300.0,300.0,1.0,,,,,,,,,green,line
0.5,0,6.0,6.0,500.952959061,5.0,part_2,go,300.0,300.0,1.0,,,,,,,,,orange,circle
2.0,1,5.0,5.0,434.086799622,5.0,part_2,stop,350.0,300.0,3.0,,,,,,,,,blue,square
4.0,1,6.0,,,5.0,,stop,350.0,350.0,4.0,,,,,,,,,magenta,cross
1.0,1,5.0,5.0,484.095096588,6.0,part_2,stop,300.0,350.0,3.0,,,,,,,,,white,hexagon
0.5,1,6.0,6.0,401.760101318,6.0,part_2,stop,300.0,400.0,3.0,,,,,,,,,cyan,flipped triangle
1.0,1,6.0,,,6.0,,stop,300.0,350.0,4.0,,,,,,,,,white,hexagon
2.0,0,5.0,5.0,417.747020721,6.0,part_2,go,300.0,350.0,1.0,,,,,,,,,green,line
1.0,1,6.0,6.0,351.136922836,6.0,part_2,go,300.0,350.0,1.0,,,,,,,,,white,hexagon
4.0,1,5.0,5.0,417.636156082,6.0,part_2,go,300.0,350.0,1.0,,,,,,,,,magenta,cross
2.0,1,5.0,5.0,417.13905334500004,6.0,part_2,stop,250.0,350.0,3.0,,,,,,,,,blue,square
4.0,1,6.0,,,6.0,,stop,250.0,400.0,4.0,,,,,,,,,magenta,cross
0.5,1,5.0,,,6.0,,stop,200.0,400.0,4.0,,,,,,,,,cyan,flipped triangle
1.0,0,5.0,5.0,467.35405921899996,6.0,part_2,go,200.0,400.0,1.0,,,,,,,,,gray,diamond
1.0,1,5.0,,,6.0,,stop,250.0,400.0,4.0,,,,,,,,,white,hexagon
2.0,0,5.0,5.0,567.560911179,6.0,part_2,go,250.0,400.0,1.0,,,,,,,,,green,line
4.0,0,5.0,5.0,484.13991928099995,6.0,part_2,go,250.0,400.0,1.0,,,,,,,,,yellow,triangle
0.5,1,6.0,6.0,534.638881683,6.0,part_2,stop,250.0,450.0,3.0,,,,,,,,,cyan,flipped triangle
0.5,1,6.0,6.0,451.101064682,6.0,part_2,stop,250.0,400.0,3.0,,,,,,,,,cyan,flipped triangle
2.0,0,6.0,6.0,434.432029724,6.0,part_2,go,250.0,400.0,1.0,,,,,,,,,green,line
2.0,0,5.0,5.0,500.851869583,6.0,part_2,go,250.0,400.0,1.0,,,,,,,,,green,line
2.0,1,5.0,5.0,367.31791496299996,6.0,part_2,stop,300.0,400.0,3.0,,,,,,,,,blue,square
4.0,0,6.0,6.0,300.91691017200003,6.0,part_2,go,300.0,400.0,1.0,,,,,,,,,yellow,triangle
1.0,1,6.0,,,6.0,,stop,300.0,350.0,4.0,,,,,,,,,white,hexagon
4.0,1,6.0,6.0,417.565107346,6.0,part_2,stop,300.0,400.0,3.0,,,,,,,,,magenta,cross
1.0,0,6.0,6.0,401.041030884,6.0,part_2,go,300.0,400.0,1.0,,,,,,,,,gray,diamond
2.0,1,5.0,5.0,367.313861847,6.0,part_2,stop,250.0,400.0,3.0,,,,,,,,,blue,square
1.0,1,5.0,,,6.0,,stop,200.0,400.0,4.0,,,,,,,,,white,hexagon
4.0,1,6.0,6.0,501.10101699800003,6.0,part_2,stop,200.0,350.0,3.0,,,,,,,,,magenta,cross
2.0,1,6.0,,,6.0,,stop,200.0,300.0,4.0,,,,,,,,,blue,square
4.0,1,6.0,,,6.0,,stop,200.0,350.0,4.0,,,,,,,,,magenta,cross
0.5,0,6.0,6.0,551.399946213,6.0,part_2,go,200.0,350.0,1.0,,,,,,,,,orange,circle
1.0,1,6.0,6.0,350.54707527200003,6.0,part_2,go,200.0,350.0,1.0,,,,,,,,,white,hexagon
0.5,1,5.0,5.0,417.45996475199996,6.0,part_2,stop,250.0,350.0,3.0,,,,,,,,,cyan,flipped triangle
0.5,1,6.0,6.0,417.557954788,6.0,part_2,go,250.0,350.0,1.0,,,,,,,,,cyan,flipped triangle
0.5,0,5.0,5.0,384.262084961,6.0,part_2,go,250.0,350.0,1.0,,,,,,,,,orange,circle
1.0,0,6.0,6.0,450.774908066,6.0,part_2,go,250.0,350.0,1.0,,,,,,,,,gray,diamond
4.0,1,5.0,5.0,367.693901062,6.0,part_2,stop,200.0,350.0,3.0,,,,,,,,,magenta,cross
0.5,0,5.0,5.0,367.41089820900004,6.0,part_2,go,200.0,350.0,1.0,,,,,,,,,orange,circle
0.5,1,5.0,,,6.0,,stop,150.0,350.0,4.0,,,,,,,,,cyan,flipped triangle
0.5,0,6.0,6.0,433.92896652200005,7.0,part_2,go,150.0,350.0,1.0,,,,,,,,,orange,circle
0.5,1,6.0,6.0,551.202058792,7.0,part_2,stop,150.0,400.0,3.0,,,,,,,,,cyan,flipped triangle
0.5,0,6.0,6.0,501.3198852539999,7.0,part_2,go,150.0,400.0,1.0,,,,,,,,,orange,circle
1.0,1,6.0,6.0,500.46205520599995,7.0,part_2,stop,150.0,350.0,3.0,,,,,,,,,white,hexagon
2.0,1,6.0,6.0,417.54508018499996,7.0,part_2,stop,150.0,300.0,3.0,,,,,,,,,blue,square
4.0,1,6.0,,,7.0,,stop,150.0,250.0,4.0,,,,,,,,,magenta,cross
1.0,1,5.0,,,7.0,,stop,200.0,250.0,4.0,,,,,,,,,white,hexagon
4.0,0,6.0,6.0,667.1168804170001,7.0,part_2,go,200.0,250.0,1.0,,,,,,,,,yellow,triangle
1.0,0,5.0,5.0,433.95614624,7.0,part_2,go,200.0,250.0,1.0,,,,,,,,,gray,diamond
1.0,0,5.0,5.0,584.347009659,7.0,part_2,go,200.0,250.0,1.0,,,,,,,,,gray,diamond
0.5,0,5.0,5.0,518.184900284,7.0,part_2,go,200.0,250.0,1.0,,,,,,,,,orange,circle
4.0,1,6.0,6.0,467.190027237,7.0,part_2,stop,200.0,300.0,3.0,,,,,,,,,magenta,cross
4.0,0,5.0,5.0,317.826986313,7.0,part_2,go,200.0,300.0,1.0,,,,,,,,,yellow,triangle
0.5,1,5.0,5.0,367.744922638,7.0,part_2,go,200.0,300.0,1.0,,,,,,,,,cyan,flipped triangle
1.0,1,6.0,,,7.0,,stop,200.0,250.0,4.0,,,,,,,,,white,hexagon
2.0,0,5.0,5.0,417.146921158,7.0,part_2,go,200.0,250.0,1.0,,,,,,,,,green,line
4.0,1,6.0,6.0,417.68598556499995,7.0,part_2,go,200.0,250.0,1.0,,,,,,,,,magenta,cross
1.0,0,6.0,6.0,484.321117401,7.0,part_2,go,200.0,250.0,1.0,,,,,,,,,gray,diamond
2.0,1,5.0,5.0,434.051036835,7.0,part_2,stop,250.0,250.0,3.0,,,,,,,,,blue,square
1.0,1,6.0,6.0,450.70099830600003,7.0,part_2,go,250.0,250.0,1.0,,,,,,,,,white,hexagon
2.0,1,5.0,,,7.0,,stop,200.0,250.0,4.0,,,,,,,,,blue,square
1.0,1,6.0,6.0,350.887060165,7.0,part_2,stop,200.0,300.0,3.0,,,,,,,,,white,hexagon
0.5,1,5.0,5.0,417.764186859,7.0,part_2,stop,250.0,300.0,3.0,,,,,,,,,cyan,flipped triangle
1.0,0,6.0,6.0,534.024000168,7.0,part_2,go,250.0,300.0,1.0,,,,,,,,,gray,diamond
1.0,1,6.0,,,7.0,,stop,250.0,250.0,4.0,,,,,,,,,white,hexagon
4.0,1,5.0,,,7.0,,stop,200.0,250.0,4.0,,,,,,,,,magenta,cross
2.0,0,6.0,6.0,567.571163177,7.0,part_2,go,200.0,250.0,1.0,,,,,,,,,green,line
2.0,0,5.0,5.0,434.06200408899997,7.0,part_2,go,200.0,250.0,1.0,,,,,,,,,green,line
2.0,0,5.0,5.0,384.53578949,7.0,part_2,go,200.0,250.0,1.0,,,,,,,,,green,line
4.0,1,5.0,,,7.0,,stop,250.0,250.0,4.0,,,,,,,,,magenta,cross
0.5,0,6.0,6.0,351.019859314,7.0,part_2,go,250.0,250.0,1.0,,,,,,,,,orange,circle
2.0,0,5.0,5.0,400.94995498699996,7.0,part_2,go,250.0,250.0,1.0,,,,,,,,,green,line
1.0,1,6.0,6.0,367.42186546299996,7.0,part_2,stop,250.0,300.0,3.0,,,,,,,,,white,hexagon
4.0,1,5.0,5.0,501.15799903900006,7.0,part_2,stop,300.0,300.0,3.0,,,,,,,,,magenta,cross
0.5,1,5.0,5.0,400.84409713699995,7.0,part_2,stop,250.0,300.0,3.0,,,,,,,,,cyan,flipped triangle
1.0,0,5.0,5.0,384.039163589,7.0,part_2,go,250.0,300.0,1.0,,,,,,,,,gray,diamond
1.0,1,5.0,5.0,401.43609046899996,8.0,part_2,go,250.0,300.0,1.0,,,,,,,,,white,hexagon
4.0,1,5.0,,,8.0,,stop,200.0,300.0,4.0,,,,,,,,,magenta,cross
0.5,0,6.0,6.0,434.321880341,8.0,part_2,go,200.0,300.0,1.0,,,,,,,,,orange,circle
4.0,1,5.0,,,8.0,,stop,250.0,300.0,4.0,,,,,,,,,magenta,cross
1.0,1,6.0,,,8.0,,stop,250.0,250.0,4.0,,,,,,,,,white,hexagon
2.0,1,5.0,,,8.0,,stop,300.0,250.0,4.0,,,,,,,,,blue,square
2.0,1,5.0,5.0,484.441995621,8.0,part_2,stop,350.0,250.0,3.0,,,,,,,,,blue,square
0.5,1,6.0,6.0,434.455871582,8.0,part_2,stop,350.0,300.0,3.0,,,,,,,,,cyan,flipped triangle
4.0,0,5.0,5.0,568.22013855,8.0,part_2,go,350.0,300.0,1.0,,,,,,,,,yellow,triangle
1.0,0,6.0,6.0,433.969974518,8.0,part_2,go,350.0,300.0,1.0,,,,,,,,,gray,diamond
2.0,1,5.0,5.0,351.031064987,8.0,part_2,stop,300.0,300.0,3.0,,,,,,,,,blue,square
1.0,1,6.0,6.0,434.340953827,8.0,part_2,go,300.0,300.0,1.0,,,,,,,,,white,hexagon
1.0,0,6.0,6.0,551.4500141139999,8.0,part_2,go,300.0,300.0,1.0,,,,,,,,,gray,diamond
4.0,0,5.0,5.0,367.614984512,8.0,part_2,go,300.0,300.0,1.0,,,,,,,,,yellow,triangle
2.0,0,6.0,6.0,517.385005951,8.0,part_2,go,300.0,300.0,1.0,,,,,,,,,green,line
4.0,1,6.0,,,8.0,,stop,300.0,250.0,4.0,,,,,,,,,magenta,cross
1.0,0,5.0,5.0,501.25098228499996,8.0,part_2,go,300.0,250.0,1.0,,,,,,,,,gray,diamond
1.0,1,5.0,5.0,384.104013443,8.0,part_2,stop,250.0,250.0,3.0,,,,,,,,,white,hexagon
0.5,0,6.0,6.0,401.14593505899995,8.0,part_2,go,250.0,250.0,1.0,,,,,,,,,orange,circle
1.0,1,6.0,6.0,484.21311378499996,8.0,part_2,stop,250.0,300.0,3.0,,,,,,,,,white,hexagon
4.0,0,5.0,5.0,383.801937103,8.0,part_2,go,250.0,300.0,1.0,,,,,,,,,yellow,triangle
4.0,0,6.0,6.0,534.878969193,8.0,part_2,go,250.0,300.0,1.0,,,,,,,,,yellow,triangle
1.0,0,6.0,6.0,551.172018051,8.0,part_2,go,250.0,300.0,1.0,,,,,,,,,gray,diamond
2.0,0,5.0,5.0,401.093959808,8.0,part_2,go,250.0,300.0,1.0,,,,,,,,,green,line
2.0,0,5.0,5.0,367.337942123,8.0,part_2,go,250.0,300.0,1.0,,,,,,,,,green,line
0.5,1,5.0,5.0,401.093959808,8.0,part_2,stop,200.0,300.0,3.0,,,,,,,,,cyan,flipped triangle
0.5,0,6.0,6.0,417.40512847900004,8.0,part_2,go,200.0,300.0,1.0,,,,,,,,,orange,circle
1.0,1,5.0,5.0,501.045227051,8.0,part_2,go,200.0,300.0,1.0,,,,,,,,,white,hexagon
0.5,0,5.0,5.0,401.42202377300003,8.0,part_2,go,200.0,300.0,1.0,,,,,,,,,orange,circle
1.0,1,6.0,,,8.0,,stop,200.0,250.0,4.0,,,,,,,,,white,hexagon
0.5,1,6.0,6.0,617.696046829,8.0,part_2,go,200.0,250.0,1.0,,,,,,,,,cyan,flipped triangle
1.0,1,5.0,,,8.0,,stop,150.0,250.0,4.0,,,,,,,,,white,hexagon
1.0,0,6.0,6.0,517.712831497,8.0,part_2,go,150.0,250.0,1.0,,,,,,,,,gray,diamond
0.5,0,5.0,5.0,317.856788635,8.0,part_2,go,150.0,250.0,1.0,,,,,,,,,orange,circle
0.5,0,6.0,6.0,334.436893463,8.0,part_2,go,150.0,250.0,1.0,,,,,,,,,orange,circle
2.0,0,6.0,6.0,317.683935165,8.0,part_2,go,150.0,250.0,1.0,,,,,,,,,green,line
4.0,1,7.0,,,1.0,,stop,,,,0.0,,49.0,245.0,294.0,196.0,147.0,98.0,magenta,cross
4.0,0,7.0,2.0,2903.18512917,1.0,part_3,go,,,,78.0,2.0,39.0,78.0,195.0,234.0,117.0,156.0,yellow,triangle
1.0,1,7.0,5.0,2552.87504196,1.0,part_3,stop,,,,234.0,6.0,195.0,39.0,78.0,117.0,234.0,156.0,white,hexagon
2.0,0,7.0,4.0,2736.33599281,1.0,part_3,go,,,,220.0,5.0,88.0,176.0,264.0,220.0,44.0,132.0,green,line
0.5,1,7.0,6.0,2703.07993889,1.0,part_3,stop,,,,162.0,3.0,54.0,216.0,324.0,108.0,270.0,162.0,cyan,flipped triangle
4.0,0,7.0,3.0,3287.07003593,1.0,part_3,go,,,,132.0,3.0,88.0,220.0,132.0,264.0,176.0,44.0,yellow,triangle
1.0,1,7.0,2.0,3520.6980705299998,1.0,part_3,stop,,,,132.0,3.0,88.0,132.0,44.0,220.0,176.0,264.0,white,hexagon
1.0,1,7.0,3.0,3354.02202606,1.0,part_3,stop,,,,162.0,3.0,108.0,270.0,162.0,216.0,324.0,54.0,white,hexagon
0.5,1,7.0,4.0,2636.64412498,1.0,part_3,stop,,,,117.0,3.0,39.0,234.0,195.0,117.0,156.0,78.0,cyan,flipped triangle
4.0,0,7.0,5.0,3587.65983582,1.0,part_3,go,,,,170.0,5.0,34.0,68.0,204.0,136.0,170.0,102.0,yellow,triangle
0.5,0,7.0,6.0,1835.4930877699999,1.0,part_3,go,,,,132.0,3.0,88.0,220.0,44.0,176.0,264.0,132.0,orange,circle
1.0,0,7.0,3.0,3036.8208885199997,1.0,part_3,go,,,,117.0,3.0,195.0,234.0,117.0,78.0,39.0,156.0,gray,diamond
0.5,0,7.0,4.0,2853.4820079799997,1.0,part_3,go,,,,117.0,3.0,156.0,234.0,78.0,117.0,39.0,195.0,orange,circle
0.5,1,7.0,2.0,3087.1181488,1.0,part_3,stop,,,,216.0,4.0,270.0,216.0,108.0,54.0,162.0,324.0,cyan,flipped triangle
1.0,1,7.0,4.0,4405.20310402,1.0,part_3,stop,,,,68.0,2.0,136.0,204.0,170.0,68.0,102.0,34.0,white,hexagon
0.5,0,7.0,4.0,2853.47604752,1.0,part_3,go,,,,147.0,3.0,98.0,49.0,196.0,147.0,294.0,245.0,orange,circle
0.5,1,7.0,5.0,3587.85510063,1.0,part_3,stop,,,,102.0,3.0,136.0,34.0,170.0,68.0,102.0,204.0,cyan,flipped triangle
0.5,0,7.0,2.0,3787.8069877599996,1.0,part_3,go,,,,245.0,5.0,49.0,245.0,196.0,98.0,294.0,147.0,orange,circle
0.5,0,7.0,4.0,3704.33497429,1.0,part_3,go,,,,162.0,3.0,270.0,108.0,54.0,162.0,324.0,216.0,orange,circle
2.0,0,7.0,3.0,2519.74201202,1.0,part_3,go,,,,196.0,4.0,98.0,245.0,196.0,49.0,294.0,147.0,green,line
0.5,0,7.0,3.0,2886.70396805,2.0,part_3,go,,,,117.0,3.0,78.0,234.0,117.0,156.0,195.0,39.0,orange,circle
0.5,1,7.0,2.0,1969.06900406,2.0,part_3,stop,,,,245.0,5.0,294.0,245.0,147.0,98.0,196.0,49.0,cyan,flipped triangle
4.0,0,7.0,2.0,133.893966675,2.0,part_3,go,,,,49.0,1.0,147.0,49.0,98.0,245.0,196.0,294.0,yellow,triangle
4.0,1,7.0,5.0,3971.7001915,2.0,part_3,stop,,,,220.0,5.0,44.0,132.0,88.0,264.0,220.0,176.0,magenta,cross
1.0,1,7.0,6.0,3838.12499046,2.0,part_3,stop,,,,216.0,4.0,162.0,270.0,324.0,108.0,54.0,216.0,white,hexagon
1.0,0,7.0,2.0,2603.14893723,2.0,part_3,go,,,,68.0,2.0,34.0,68.0,136.0,204.0,170.0,102.0,gray,diamond
0.5,0,7.0,4.0,1635.27393341,2.0,part_3,go,,,,176.0,4.0,88.0,220.0,264.0,176.0,132.0,44.0,orange,circle
2.0,0,7.0,5.0,2902.739048,2.0,part_3,go,,,,270.0,5.0,324.0,108.0,54.0,216.0,270.0,162.0,green,line
4.0,1,7.0,1.0,1101.2091636700002,2.0,part_3,stop,,,,234.0,6.0,234.0,78.0,117.0,195.0,39.0,156.0,magenta,cross
2.0,0,7.0,4.0,4288.58208656,2.0,part_3,go,,,,196.0,4.0,147.0,49.0,245.0,196.0,98.0,294.0,green,line
4.0,0,7.0,4.0,4655.75313568,2.0,part_3,go,,,,132.0,3.0,264.0,88.0,44.0,132.0,220.0,176.0,yellow,triangle
2.0,1,7.0,1.0,2920.28403282,2.0,part_3,stop,,,,102.0,3.0,102.0,34.0,68.0,136.0,204.0,170.0,blue,square
0.5,1,7.0,6.0,1952.3730278,2.0,part_3,stop,,,,39.0,1.0,78.0,195.0,234.0,117.0,156.0,39.0,cyan,flipped triangle
2.0,1,7.0,4.0,2870.08881569,2.0,part_3,stop,,,,196.0,4.0,49.0,147.0,294.0,196.0,98.0,245.0,blue,square
0.5,1,7.0,1.0,150.228977203,2.0,part_3,stop,,,,147.0,3.0,147.0,245.0,49.0,98.0,196.0,294.0,cyan,flipped triangle
2.0,0,7.0,3.0,3586.87996864,2.0,part_3,go,,,,132.0,3.0,44.0,88.0,132.0,264.0,176.0,220.0,green,line
2.0,0,7.0,6.0,4438.71998787,2.0,part_3,go,,,,156.0,4.0,39.0,195.0,117.0,234.0,78.0,156.0,green,line
4.0,1,7.0,5.0,4054.6309948000003,2.0,part_3,stop,,,,102.0,3.0,136.0,34.0,68.0,170.0,102.0,204.0,magenta,cross
2.0,1,7.0,,,2.0,,stop,,,,0.0,,294.0,245.0,98.0,147.0,49.0,196.0,blue,square
2.0,0,7.0,1.0,2903.48386765,2.0,part_3,go,,,,156.0,4.0,156.0,234.0,195.0,39.0,117.0,78.0,green,line
1.0,1,7.0,4.0,2553.04002762,3.0,part_3,stop,,,,147.0,3.0,245.0,49.0,98.0,147.0,196.0,294.0,white,hexagon
2.0,1,7.0,,,3.0,,stop,,,,0.0,,68.0,170.0,102.0,34.0,204.0,136.0,blue,square
2.0,0,7.0,4.0,1468.65606308,3.0,part_3,go,,,,102.0,3.0,136.0,68.0,34.0,102.0,204.0,170.0,green,line
1.0,1,7.0,2.0,1185.25600433,3.0,part_3,stop,,,,294.0,6.0,147.0,294.0,245.0,49.0,98.0,196.0,white,hexagon
0.5,1,7.0,6.0,2753.41010094,3.0,part_3,stop,,,,68.0,2.0,170.0,204.0,34.0,102.0,136.0,68.0,cyan,flipped triangle
1.0,1,7.0,5.0,317.521095276,3.0,part_3,stop,,,,102.0,3.0,68.0,204.0,170.0,34.0,102.0,136.0,white,hexagon
4.0,1,7.0,5.0,2452.91900635,3.0,part_3,stop,,,,136.0,4.0,68.0,204.0,170.0,34.0,136.0,102.0,magenta,cross
0.5,0,7.0,4.0,1719.07997131,3.0,part_3,go,,,,136.0,4.0,68.0,204.0,102.0,136.0,34.0,170.0,orange,circle
4.0,0,7.0,2.0,217.54598617599999,3.0,part_3,go,,,,108.0,2.0,324.0,108.0,216.0,270.0,162.0,54.0,yellow,triangle
0.5,1,7.0,4.0,1735.31198502,3.0,part_3,stop,,,,88.0,2.0,264.0,176.0,132.0,88.0,44.0,220.0,cyan,flipped triangle
2.0,1,7.0,5.0,4638.58914375,3.0,part_3,stop,,,,216.0,4.0,162.0,270.0,324.0,54.0,216.0,108.0,blue,square
1.0,0,7.0,5.0,400.896072388,3.0,part_3,go,,,,108.0,2.0,54.0,324.0,270.0,216.0,108.0,162.0,gray,diamond
2.0,1,7.0,2.0,2086.0171318099997,3.0,part_3,stop,,,,156.0,4.0,78.0,156.0,195.0,39.0,117.0,234.0,blue,square
4.0,1,7.0,1.0,734.7941398620001,3.0,part_3,stop,,,,54.0,1.0,54.0,216.0,162.0,270.0,108.0,324.0,magenta,cross
1.0,1,7.0,3.0,2386.4889144900003,3.0,part_3,stop,,,,195.0,5.0,78.0,234.0,195.0,117.0,156.0,39.0,white,hexagon
1.0,0,7.0,5.0,1568.9928531599999,3.0,part_3,go,,,,245.0,5.0,294.0,98.0,147.0,49.0,245.0,196.0,gray,diamond
2.0,1,7.0,,,3.0,,stop,,,,0.0,,54.0,270.0,108.0,162.0,216.0,324.0,blue,square
1.0,0,7.0,2.0,934.406042099,3.0,part_3,go,,,,176.0,4.0,132.0,176.0,44.0,220.0,264.0,88.0,gray,diamond
0.5,1,7.0,2.0,1151.4458656299998,3.0,part_3,stop,,,,44.0,1.0,264.0,44.0,88.0,220.0,176.0,132.0,cyan,flipped triangle
2.0,1,7.0,6.0,4371.13595009,3.0,part_3,stop,,,,78.0,2.0,39.0,195.0,234.0,156.0,117.0,78.0,blue,square
0.5,0,7.0,2.0,2369.8480129199997,4.0,part_3,go,,,,216.0,4.0,54.0,216.0,270.0,108.0,162.0,324.0,orange,circle
2.0,0,7.0,4.0,1835.7329368599999,4.0,part_3,go,,,,216.0,4.0,54.0,162.0,324.0,216.0,108.0,270.0,green,line
4.0,1,7.0,1.0,1067.6791667900002,4.0,part_3,stop,,,,44.0,1.0,44.0,176.0,132.0,220.0,264.0,88.0,magenta,cross
4.0,1,7.0,6.0,283.92195701599996,4.0,part_3,stop,,,,108.0,2.0,324.0,162.0,270.0,54.0,216.0,108.0,magenta,cross
0.5,0,7.0,2.0,1018.10407639,4.0,part_3,go,,,,136.0,4.0,102.0,136.0,34.0,170.0,68.0,204.0,orange,circle
1.0,0,7.0,4.0,900.9330272669999,4.0,part_3,go,,,,117.0,3.0,195.0,156.0,39.0,117.0,78.0,234.0,gray,diamond
1.0,1,7.0,6.0,734.569072723,4.0,part_3,stop,,,,132.0,3.0,176.0,88.0,220.0,264.0,44.0,132.0,white,hexagon
2.0,1,7.0,2.0,250.29993057299998,4.0,part_3,stop,,,,176.0,4.0,132.0,176.0,88.0,264.0,220.0,44.0,blue,square
1.0,0,7.0,4.0,767.631053925,4.0,part_3,go,,,,136.0,4.0,170.0,102.0,68.0,136.0,34.0,204.0,gray,diamond
4.0,0,7.0,5.0,83.6880207062,4.0,part_3,go,,,,54.0,1.0,270.0,162.0,324.0,216.0,54.0,108.0,yellow,triangle
4.0,0,7.0,6.0,50.6510734558,4.0,part_3,go,,,,156.0,4.0,195.0,234.0,78.0,39.0,117.0,156.0,yellow,triangle
1.0,0,7.0,3.0,16.824960708600003,4.0,part_3,go,,,,132.0,3.0,176.0,44.0,132.0,88.0,220.0,264.0,gray,diamond
2.0,0,7.0,1.0,667.7350997919999,4.0,part_3,go,,,,136.0,4.0,136.0,34.0,170.0,102.0,68.0,204.0,green,line
4.0,1,7.0,6.0,83.7681293488,4.0,part_3,stop,,,,78.0,2.0,195.0,234.0,117.0,39.0,156.0,78.0,magenta,cross
4.0,0,7.0,3.0,133.53395462,4.0,part_3,go,,,,204.0,6.0,136.0,102.0,204.0,68.0,34.0,170.0,yellow,triangle
2.0,1,7.0,1.0,133.506059647,4.0,part_3,stop,,,,88.0,2.0,88.0,264.0,132.0,44.0,220.0,176.0,blue,square
4.0,0,7.0,5.0,1235.57305336,4.0,part_3,go,,,,98.0,2.0,294.0,147.0,245.0,49.0,98.0,196.0,yellow,triangle
4.0,1,7.0,2.0,349.847078323,4.0,part_3,stop,,,,294.0,6.0,245.0,294.0,147.0,98.0,196.0,49.0,magenta,cross
1.0,0,7.0,1.0,150.563001633,4.0,part_3,go,,,,294.0,6.0,294.0,147.0,98.0,245.0,49.0,196.0,gray,diamond
1.0,0,7.0,3.0,150.11715888999998,4.0,part_3,go,,,,108.0,2.0,162.0,270.0,108.0,216.0,324.0,54.0,gray,diamond
