stepwise_reward_magnitude,paired_with_stopping,quadrant,response,reaction_time,block,which_part,stop_signal_trial_type,left_SSD,right_SSD,accuracy,chosen_bidding_amount,chosen_bidding_level,possible_bid_1,possible_bid_2,possible_bid_3,possible_bid_4,possible_bid_5,possible_bid_6,color_text,shape_text
0.5,0,3.0,3.0,401.54314041099997,1.0,part_1,,,,,,,,,,,,,yellow,flipped triangle
0.5,1,1.0,1.0,367.176055908,1.0,part_1,,,,,,,,,,,,,magenta,diamond
4.0,0,3.0,3.0,367.245197296,1.0,part_1,,,,,,,,,,,,,gray,line
0.5,0,1.0,1.0,333.76288414,1.0,part_1,,,,,,,,,,,,,yellow,flipped triangle
1.0,1,1.0,1.0,351.039886475,1.0,part_1,,,,,,,,,,,,,green,hexagon
0.5,1,4.0,4.0,400.75492858900003,1.0,part_1,,,,,,,,,,,,,magenta,diamond
0.5,0,2.0,2.0,333.883047104,1.0,part_1,,,,,,,,,,,,,yellow,flipped triangle
2.0,1,2.0,2.0,317.708969116,1.0,part_1,,,,,,,,,,,,,blue,circle
4.0,0,1.0,1.0,351.39298439,1.0,part_1,,,,,,,,,,,,,gray,line
4.0,1,3.0,3.0,334.175109863,1.0,part_1,,,,,,,,,,,,,cyan,square
2.0,1,1.0,1.0,351.287841797,1.0,part_1,,,,,,,,,,,,,blue,circle
2.0,0,3.0,3.0,317.515134811,1.0,part_1,,,,,,,,,,,,,orange,cross
1.0,0,3.0,3.0,334.472179413,1.0,part_1,,,,,,,,,,,,,white,triangle
1.0,1,4.0,4.0,367.465019226,1.0,part_1,,,,,,,,,,,,,green,hexagon
0.5,1,4.0,4.0,334.05590057399996,1.0,part_1,,,,,,,,,,,,,magenta,diamond
0.5,0,3.0,3.0,317.444801331,1.0,part_1,,,,,,,,,,,,,yellow,flipped triangle
2.0,0,2.0,2.0,367.698907852,1.0,part_1,,,,,,,,,,,,,orange,cross
0.5,1,4.0,4.0,401.163816452,1.0,part_1,,,,,,,,,,,,,magenta,diamond
2.0,0,2.0,2.0,334.430932999,1.0,part_1,,,,,,,,,,,,,orange,cross
0.5,0,1.0,1.0,351.523160934,1.0,part_1,,,,,,,,,,,,,yellow,flipped triangle
0.5,1,2.0,2.0,350.50606727599995,1.0,part_1,,,,,,,,,,,,,magenta,diamond
1.0,1,1.0,1.0,350.908041,1.0,part_1,,,,,,,,,,,,,green,hexagon
0.5,1,4.0,4.0,383.960008621,1.0,part_1,,,,,,,,,,,,,magenta,diamond
0.5,1,4.0,4.0,317.238092422,1.0,part_1,,,,,,,,,,,,,magenta,diamond
1.0,0,3.0,3.0,350.56996345500005,1.0,part_1,,,,,,,,,,,,,white,triangle
4.0,0,1.0,1.0,350.877046585,1.0,part_1,,,,,,,,,,,,,gray,line
1.0,1,3.0,3.0,350.849866867,1.0,part_1,,,,,,,,,,,,,green,hexagon
0.5,1,4.0,4.0,384.243965149,1.0,part_1,,,,,,,,,,,,,magenta,diamond
0.5,0,2.0,2.0,334.020137787,1.0,part_1,,,,,,,,,,,,,yellow,flipped triangle
0.5,1,2.0,2.0,351.15694999699997,1.0,part_1,,,,,,,,,,,,,magenta,diamond
4.0,0,1.0,1.0,567.8358078,1.0,part_1,,,,,,,,,,,,,gray,line
4.0,1,4.0,4.0,634.433031082,1.0,part_1,,,,,,,,,,,,,cyan,square
0.5,1,4.0,4.0,684.6499443050001,1.0,part_1,,,,,,,,,,,,,magenta,diamond
1.0,1,3.0,3.0,367.434978485,1.0,part_1,,,,,,,,,,,,,green,hexagon
1.0,0,3.0,3.0,751.121044159,1.0,part_1,,,,,,,,,,,,,white,triangle
2.0,0,2.0,2.0,334.733009338,1.0,part_1,,,,,,,,,,,,,orange,cross
4.0,1,1.0,1.0,317.83413887,1.0,part_1,,,,,,,,,,,,,cyan,square
2.0,0,2.0,2.0,350.788116455,1.0,part_1,,,,,,,,,,,,,orange,cross
1.0,1,4.0,4.0,350.641012192,1.0,part_1,,,,,,,,,,,,,green,hexagon
1.0,0,4.0,4.0,384.521007538,1.0,part_1,,,,,,,,,,,,,white,triangle
4.0,0,3.0,3.0,367.758989334,1.0,part_1,,,,,,,,,,,,,gray,line
2.0,0,4.0,4.0,367.594003677,1.0,part_1,,,,,,,,,,,,,orange,cross
4.0,0,4.0,4.0,351.235866547,1.0,part_1,,,,,,,,,,,,,gray,line
2.0,0,1.0,1.0,384.343147278,1.0,part_1,,,,,,,,,,,,,orange,cross
2.0,1,2.0,2.0,367.11502075199996,1.0,part_1,,,,,,,,,,,,,blue,circle
4.0,0,1.0,1.0,367.55609512300003,1.0,part_1,,,,,,,,,,,,,gray,line
2.0,0,4.0,4.0,384.371042252,1.0,part_1,,,,,,,,,,,,,orange,cross
0.5,1,1.0,1.0,367.680072784,1.0,part_1,,,,,,,,,,,,,magenta,diamond
2.0,1,1.0,1.0,351.084947586,1.0,part_1,,,,,,,,,,,,,blue,circle
4.0,1,1.0,1.0,350.557088852,1.0,part_1,,,,,,,,,,,,,cyan,square
4.0,1,3.0,3.0,351.110935211,1.0,part_1,,,,,,,,,,,,,cyan,square
2.0,1,2.0,2.0,350.995063782,1.0,part_1,,,,,,,,,,,,,blue,circle
1.0,0,3.0,3.0,401.51095390300003,1.0,part_1,,,,,,,,,,,,,white,triangle
0.5,0,4.0,4.0,501.004934311,1.0,part_1,,,,,,,,,,,,,yellow,flipped triangle
0.5,1,1.0,1.0,367.710113525,1.0,part_1,,,,,,,,,,,,,magenta,diamond
4.0,0,3.0,3.0,400.97618102999996,1.0,part_1,,,,,,,,,,,,,gray,line
2.0,1,2.0,2.0,334.42401886,1.0,part_1,,,,,,,,,,,,,blue,circle
1.0,1,1.0,1.0,367.779016495,1.0,part_1,,,,,,,,,,,,,green,hexagon
1.0,1,1.0,1.0,401.172161102,1.0,part_1,,,,,,,,,,,,,green,hexagon
4.0,1,1.0,1.0,333.687067032,1.0,part_1,,,,,,,,,,,,,cyan,square
1.0,0,3.0,3.0,367.43187904399997,1.0,part_1,,,,,,,,,,,,,white,triangle
4.0,1,4.0,4.0,417.966842651,1.0,part_1,,,,,,,,,,,,,cyan,square
1.0,0,2.0,2.0,384.144067764,1.0,part_1,,,,,,,,,,,,,white,triangle
4.0,1,4.0,4.0,400.707006454,1.0,part_1,,,,,,,,,,,,,cyan,square
0.5,1,2.0,2.0,384.248018265,1.0,part_1,,,,,,,,,,,,,magenta,diamond
1.0,0,1.0,1.0,417.540073395,1.0,part_1,,,,,,,,,,,,,white,triangle
1.0,0,3.0,3.0,384.64808464099997,1.0,part_1,,,,,,,,,,,,,white,triangle
4.0,0,4.0,4.0,433.926105499,1.0,part_1,,,,,,,,,,,,,gray,line
0.5,1,2.0,2.0,350.87800025900003,1.0,part_1,,,,,,,,,,,,,magenta,diamond
4.0,0,2.0,2.0,384.26804542499997,1.0,part_1,,,,,,,,,,,,,gray,line
1.0,0,3.0,3.0,384.078025818,1.0,part_1,,,,,,,,,,,,,white,triangle
0.5,0,2.0,2.0,350.841999054,1.0,part_1,,,,,,,,,,,,,yellow,flipped triangle
1.0,0,2.0,2.0,367.3620224,1.0,part_1,,,,,,,,,,,,,white,triangle
1.0,1,3.0,3.0,350.918054581,1.0,part_1,,,,,,,,,,,,,green,hexagon
1.0,0,4.0,4.0,384.160041809,1.0,part_1,,,,,,,,,,,,,white,triangle
2.0,1,1.0,1.0,384.602069855,1.0,part_1,,,,,,,,,,,,,blue,circle
2.0,1,3.0,3.0,367.867946625,1.0,part_1,,,,,,,,,,,,,blue,circle
2.0,0,4.0,4.0,417.461156845,1.0,part_1,,,,,,,,,,,,,orange,cross
2.0,0,3.0,3.0,367.243051529,1.0,part_1,,,,,,,,,,,,,orange,cross
2.0,0,2.0,2.0,334.28478241,1.0,part_1,,,,,,,,,,,,,orange,cross
4.0,1,3.0,3.0,367.290973663,1.0,part_1,,,,,,,,,,,,,cyan,square
1.0,1,2.0,2.0,367.95592308000005,1.0,part_1,,,,,,,,,,,,,green,hexagon
0.5,0,3.0,3.0,367.38491058299996,1.0,part_1,,,,,,,,,,,,,yellow,flipped triangle
1.0,1,4.0,4.0,350.60691833500005,1.0,part_1,,,,,,,,,,,,,green,hexagon
4.0,1,3.0,3.0,351.10497474699997,1.0,part_1,,,,,,,,,,,,,cyan,square
4.0,0,1.0,1.0,384.418010712,1.0,part_1,,,,,,,,,,,,,gray,line
2.0,0,2.0,2.0,350.502967834,1.0,part_1,,,,,,,,,,,,,orange,cross
1.0,0,4.0,4.0,333.967208862,1.0,part_1,,,,,,,,,,,,,white,triangle
4.0,1,4.0,4.0,351.011037827,1.0,part_1,,,,,,,,,,,,,cyan,square
0.5,0,2.0,2.0,334.67388153099995,1.0,part_1,,,,,,,,,,,,,yellow,flipped triangle
0.5,0,2.0,2.0,351.46689415,1.0,part_1,,,,,,,,,,,,,yellow,flipped triangle
2.0,0,1.0,1.0,400.71010589599996,1.0,part_1,,,,,,,,,,,,,orange,cross
2.0,1,2.0,2.0,334.137201309,1.0,part_1,,,,,,,,,,,,,blue,circle
0.5,0,2.0,2.0,350.346088409,1.0,part_1,,,,,,,,,,,,,yellow,flipped triangle
2.0,1,1.0,1.0,301.02515220600003,1.0,part_1,,,,,,,,,,,,,blue,circle
1.0,0,4.0,4.0,334.120988846,1.0,part_1,,,,,,,,,,,,,white,triangle
0.5,1,3.0,3.0,367.36702919000004,1.0,part_1,,,,,,,,,,,,,magenta,diamond
1.0,1,3.0,3.0,401.064872742,1.0,part_1,,,,,,,,,,,,,green,hexagon
4.0,1,1.0,1.0,300.732135773,1.0,part_1,,,,,,,,,,,,,cyan,square
0.5,0,4.0,4.0,333.988189697,1.0,part_1,,,,,,,,,,,,,yellow,flipped triangle
0.5,0,3.0,3.0,500.98705291699997,2.0,part_1,,,,,,,,,,,,,yellow,flipped triangle
4.0,0,3.0,3.0,367.284059525,2.0,part_1,,,,,,,,,,,,,gray,line
2.0,0,4.0,4.0,350.881814957,2.0,part_1,,,,,,,,,,,,,orange,cross
2.0,1,2.0,2.0,350.836992264,2.0,part_1,,,,,,,,,,,,,blue,circle
2.0,0,1.0,1.0,350.881099701,2.0,part_1,,,,,,,,,,,,,orange,cross
2.0,1,2.0,2.0,367.95091629,2.0,part_1,,,,,,,,,,,,,blue,circle
2.0,1,3.0,3.0,334.206104279,2.0,part_1,,,,,,,,,,,,,blue,circle
0.5,1,1.0,1.0,351.000070572,2.0,part_1,,,,,,,,,,,,,magenta,diamond
0.5,0,4.0,4.0,618.0191040039999,2.0,part_1,,,,,,,,,,,,,yellow,flipped triangle
0.5,0,3.0,3.0,334.066867828,2.0,part_1,,,,,,,,,,,,,yellow,flipped triangle
0.5,1,4.0,4.0,417.671918869,2.0,part_1,,,,,,,,,,,,,magenta,diamond
4.0,0,1.0,1.0,367.90895462000003,2.0,part_1,,,,,,,,,,,,,gray,line
2.0,0,3.0,3.0,350.513935089,2.0,part_1,,,,,,,,,,,,,orange,cross
4.0,1,1.0,1.0,350.99196434000004,2.0,part_1,,,,,,,,,,,,,cyan,square
2.0,0,2.0,2.0,350.985765457,2.0,part_1,,,,,,,,,,,,,orange,cross
2.0,0,4.0,4.0,334.280967712,2.0,part_1,,,,,,,,,,,,,orange,cross
2.0,0,3.0,3.0,350.807905197,2.0,part_1,,,,,,,,,,,,,orange,cross
2.0,0,3.0,3.0,334.063053131,2.0,part_1,,,,,,,,,,,,,orange,cross
4.0,1,2.0,2.0,334.77807045000003,2.0,part_1,,,,,,,,,,,,,cyan,square
0.5,0,4.0,4.0,350.820064545,2.0,part_1,,,,,,,,,,,,,yellow,flipped triangle
1.0,0,1.0,1.0,350.948095322,2.0,part_1,,,,,,,,,,,,,white,triangle
4.0,1,3.0,3.0,351.074934006,2.0,part_1,,,,,,,,,,,,,cyan,square
0.5,0,4.0,4.0,367.398023605,2.0,part_1,,,,,,,,,,,,,yellow,flipped triangle
2.0,1,3.0,3.0,351.274013519,2.0,part_1,,,,,,,,,,,,,blue,circle
0.5,0,4.0,4.0,334.146022797,2.0,part_1,,,,,,,,,,,,,yellow,flipped triangle
2.0,0,4.0,4.0,300.811052322,2.0,part_1,,,,,,,,,,,,,orange,cross
2.0,1,1.0,1.0,350.759983063,2.0,part_1,,,,,,,,,,,,,blue,circle
4.0,0,2.0,2.0,367.056846619,2.0,part_1,,,,,,,,,,,,,gray,line
2.0,1,2.0,2.0,367.75302887,2.0,part_1,,,,,,,,,,,,,blue,circle
2.0,1,1.0,1.0,350.395917892,2.0,part_1,,,,,,,,,,,,,blue,circle
4.0,1,3.0,3.0,334.49983596799996,2.0,part_1,,,,,,,,,,,,,cyan,square
1.0,0,2.0,2.0,334.55109596299997,2.0,part_1,,,,,,,,,,,,,white,triangle
2.0,0,2.0,2.0,367.41900444,2.0,part_1,,,,,,,,,,,,,orange,cross
1.0,1,1.0,1.0,334.01799202,2.0,part_1,,,,,,,,,,,,,green,hexagon
1.0,1,4.0,4.0,367.758989334,2.0,part_1,,,,,,,,,,,,,green,hexagon
2.0,1,2.0,2.0,317.82412529,2.0,part_1,,,,,,,,,,,,,blue,circle
1.0,1,3.0,3.0,350.736141205,2.0,part_1,,,,,,,,,,,,,green,hexagon
0.5,1,3.0,3.0,351.313114166,2.0,part_1,,,,,,,,,,,,,magenta,diamond
4.0,0,2.0,2.0,367.398023605,2.0,part_1,,,,,,,,,,,,,gray,line
2.0,1,4.0,4.0,351.125001907,2.0,part_1,,,,,,,,,,,,,blue,circle
4.0,1,2.0,2.0,284.477949142,2.0,part_1,,,,,,,,,,,,,cyan,square
0.5,1,3.0,3.0,367.79594421400003,2.0,part_1,,,,,,,,,,,,,magenta,diamond
2.0,1,1.0,1.0,334.12289619399996,2.0,part_1,,,,,,,,,,,,,blue,circle
4.0,1,1.0,1.0,367.53320694,2.0,part_1,,,,,,,,,,,,,cyan,square
4.0,1,2.0,2.0,334.394931793,2.0,part_1,,,,,,,,,,,,,cyan,square
1.0,1,4.0,4.0,367.722988129,2.0,part_1,,,,,,,,,,,,,green,hexagon
0.5,0,1.0,1.0,350.331068039,2.0,part_1,,,,,,,,,,,,,yellow,flipped triangle
2.0,1,4.0,4.0,350.905179977,2.0,part_1,,,,,,,,,,,,,blue,circle
0.5,0,2.0,2.0,267.273187637,2.0,part_1,,,,,,,,,,,,,yellow,flipped triangle
0.5,1,2.0,2.0,317.50392913800005,2.0,part_1,,,,,,,,,,,,,magenta,diamond
0.5,0,1.0,1.0,384.124040604,2.0,part_1,,,,,,,,,,,,,yellow,flipped triangle
4.0,1,4.0,4.0,334.2628479,2.0,part_1,,,,,,,,,,,,,cyan,square
1.0,1,4.0,4.0,350.340843201,2.0,part_1,,,,,,,,,,,,,green,hexagon
1.0,1,1.0,1.0,367.511987686,2.0,part_1,,,,,,,,,,,,,green,hexagon
1.0,0,1.0,1.0,350.914001465,2.0,part_1,,,,,,,,,,,,,white,triangle
1.0,0,2.0,2.0,350.84605216999995,2.0,part_1,,,,,,,,,,,,,white,triangle
0.5,1,2.0,2.0,350.838184357,2.0,part_1,,,,,,,,,,,,,magenta,diamond
2.0,1,3.0,3.0,367.337942123,2.0,part_1,,,,,,,,,,,,,blue,circle
4.0,0,2.0,2.0,350.966930389,2.0,part_1,,,,,,,,,,,,,gray,line
0.5,1,3.0,3.0,383.907079697,2.0,part_1,,,,,,,,,,,,,magenta,diamond
1.0,1,3.0,3.0,350.819826126,2.0,part_1,,,,,,,,,,,,,green,hexagon
0.5,1,3.0,3.0,366.998910904,2.0,part_1,,,,,,,,,,,,,magenta,diamond
1.0,1,3.0,3.0,367.001056671,2.0,part_1,,,,,,,,,,,,,green,hexagon
1.0,0,1.0,1.0,367.62213707,2.0,part_1,,,,,,,,,,,,,white,triangle
0.5,0,1.0,1.0,367.21897125199996,2.0,part_1,,,,,,,,,,,,,yellow,flipped triangle
0.5,1,1.0,1.0,367.667913437,2.0,part_1,,,,,,,,,,,,,magenta,diamond
1.0,0,1.0,1.0,368.177890778,2.0,part_1,,,,,,,,,,,,,white,triangle
2.0,0,1.0,1.0,367.65098571799996,2.0,part_1,,,,,,,,,,,,,orange,cross
1.0,0,2.0,2.0,334.26308631899997,2.0,part_1,,,,,,,,,,,,,white,triangle
4.0,0,1.0,1.0,367.347002029,2.0,part_1,,,,,,,,,,,,,gray,line
1.0,0,4.0,4.0,417.370080948,2.0,part_1,,,,,,,,,,,,,white,triangle
4.0,1,4.0,4.0,300.99391937300004,2.0,part_1,,,,,,,,,,,,,cyan,square
1.0,1,4.0,4.0,334.321022034,2.0,part_1,,,,,,,,,,,,,green,hexagon
1.0,1,3.0,3.0,333.714962006,2.0,part_1,,,,,,,,,,,,,green,hexagon
4.0,0,4.0,4.0,367.72608757,2.0,part_1,,,,,,,,,,,,,gray,line
2.0,0,2.0,2.0,384.114980698,2.0,part_1,,,,,,,,,,,,,orange,cross
4.0,0,3.0,3.0,500.43487548800005,2.0,part_1,,,,,,,,,,,,,gray,line
2.0,1,1.0,1.0,351.021051407,2.0,part_1,,,,,,,,,,,,,blue,circle
1.0,1,3.0,3.0,350.758075714,2.0,part_1,,,,,,,,,,,,,green,hexagon
4.0,0,1.0,1.0,334.201812744,2.0,part_1,,,,,,,,,,,,,gray,line
1.0,0,4.0,4.0,384.40179824800003,2.0,part_1,,,,,,,,,,,,,white,triangle
4.0,0,2.0,2.0,350.947856903,2.0,part_1,,,,,,,,,,,,,gray,line
2.0,1,4.0,4.0,400.66504478499996,2.0,part_1,,,,,,,,,,,,,blue,circle
0.5,1,3.0,3.0,367.532968521,2.0,part_1,,,,,,,,,,,,,magenta,diamond
2.0,0,4.0,4.0,367.202997208,2.0,part_1,,,,,,,,,,,,,orange,cross
1.0,1,2.0,2.0,334.51294899,2.0,part_1,,,,,,,,,,,,,green,hexagon
0.5,0,4.0,4.0,300.770998001,2.0,part_1,,,,,,,,,,,,,yellow,flipped triangle
0.5,0,3.0,3.0,334.167957306,2.0,part_1,,,,,,,,,,,,,yellow,flipped triangle
4.0,0,2.0,2.0,367.666959763,2.0,part_1,,,,,,,,,,,,,gray,line
1.0,1,1.0,1.0,367.429971695,2.0,part_1,,,,,,,,,,,,,green,hexagon
4.0,0,1.0,1.0,400.659799576,2.0,part_1,,,,,,,,,,,,,gray,line
0.5,1,2.0,2.0,301.29814147900004,2.0,part_1,,,,,,,,,,,,,magenta,diamond
2.0,1,4.0,4.0,351.162910461,2.0,part_1,,,,,,,,,,,,,blue,circle
1.0,0,4.0,4.0,334.32888984699997,2.0,part_1,,,,,,,,,,,,,white,triangle
2.0,1,3.0,3.0,350.883960724,2.0,part_1,,,,,,,,,,,,,blue,circle
4.0,0,2.0,2.0,350.742101669,2.0,part_1,,,,,,,,,,,,,gray,line
1.0,1,2.0,2.0,400.806188583,2.0,part_1,,,,,,,,,,,,,green,hexagon
2.0,0,3.0,3.0,350.29888153099995,2.0,part_1,,,,,,,,,,,,,orange,cross
4.0,0,1.0,1.0,384.63115692099996,2.0,part_1,,,,,,,,,,,,,gray,line
0.5,0,4.0,4.0,350.787878036,2.0,part_1,,,,,,,,,,,,,yellow,flipped triangle
1.0,1,4.0,4.0,417.7069664,3.0,part_1,,,,,,,,,,,,,green,hexagon
4.0,0,2.0,2.0,350.415945053,3.0,part_1,,,,,,,,,,,,,gray,line
2.0,1,4.0,4.0,333.781003952,3.0,part_1,,,,,,,,,,,,,blue,circle
2.0,0,3.0,3.0,300.72212219200003,3.0,part_1,,,,,,,,,,,,,orange,cross
1.0,0,2.0,2.0,283.803939819,3.0,part_1,,,,,,,,,,,,,white,triangle
1.0,0,2.0,2.0,350.886106491,3.0,part_1,,,,,,,,,,,,,white,triangle
0.5,0,1.0,1.0,300.744056702,3.0,part_1,,,,,,,,,,,,,yellow,flipped triangle
1.0,1,1.0,1.0,334.25784111,3.0,part_1,,,,,,,,,,,,,green,hexagon
4.0,1,4.0,4.0,350.812911987,3.0,part_1,,,,,,,,,,,,,cyan,square
0.5,1,3.0,3.0,351.0389328,3.0,part_1,,,,,,,,,,,,,magenta,diamond
1.0,0,3.0,3.0,333.83202552800003,3.0,part_1,,,,,,,,,,,,,white,triangle
1.0,1,1.0,1.0,300.81200599699997,3.0,part_1,,,,,,,,,,,,,green,hexagon
2.0,0,3.0,3.0,300.71401596100003,3.0,part_1,,,,,,,,,,,,,orange,cross
4.0,1,3.0,3.0,400.954961777,3.0,part_1,,,,,,,,,,,,,cyan,square
4.0,1,1.0,1.0,334.225893021,3.0,part_1,,,,,,,,,,,,,cyan,square
2.0,0,2.0,2.0,300.937175751,3.0,part_1,,,,,,,,,,,,,orange,cross
2.0,0,4.0,4.0,334.297895432,3.0,part_1,,,,,,,,,,,,,orange,cross
0.5,1,1.0,1.0,333.83893966700003,3.0,part_1,,,,,,,,,,,,,magenta,diamond
2.0,1,4.0,4.0,367.948055267,3.0,part_1,,,,,,,,,,,,,blue,circle
0.5,0,1.0,1.0,317.677974701,3.0,part_1,,,,,,,,,,,,,yellow,flipped triangle
2.0,1,2.0,2.0,334.072113037,3.0,part_1,,,,,,,,,,,,,blue,circle
4.0,0,2.0,2.0,384.28902626,3.0,part_1,,,,,,,,,,,,,gray,line
4.0,0,4.0,4.0,367.87700653099995,3.0,part_1,,,,,,,,,,,,,gray,line
4.0,0,2.0,2.0,334.196090698,3.0,part_1,,,,,,,,,,,,,gray,line
2.0,1,4.0,4.0,367.411851883,3.0,part_1,,,,,,,,,,,,,blue,circle
1.0,1,4.0,4.0,351.02200508100003,3.0,part_1,,,,,,,,,,,,,green,hexagon
2.0,0,2.0,2.0,350.639820099,3.0,part_1,,,,,,,,,,,,,orange,cross
0.5,1,4.0,4.0,334.007978439,3.0,part_1,,,,,,,,,,,,,magenta,diamond
0.5,0,3.0,3.0,333.879947662,3.0,part_1,,,,,,,,,,,,,yellow,flipped triangle
2.0,1,3.0,3.0,367.13385582,3.0,part_1,,,,,,,,,,,,,blue,circle
1.0,0,4.0,4.0,367.166042328,3.0,part_1,,,,,,,,,,,,,white,triangle
4.0,0,4.0,4.0,367.616891861,3.0,part_1,,,,,,,,,,,,,gray,line
4.0,1,2.0,2.0,317.50297546400003,3.0,part_1,,,,,,,,,,,,,cyan,square
2.0,0,1.0,1.0,367.240190506,3.0,part_1,,,,,,,,,,,,,orange,cross
0.5,1,4.0,4.0,334.100008011,3.0,part_1,,,,,,,,,,,,,magenta,diamond
1.0,0,2.0,2.0,350.65698623699996,3.0,part_1,,,,,,,,,,,,,white,triangle
2.0,0,4.0,4.0,384.335041046,3.0,part_1,,,,,,,,,,,,,orange,cross
4.0,1,4.0,4.0,367.517948151,3.0,part_1,,,,,,,,,,,,,cyan,square
4.0,0,2.0,2.0,383.99887085,3.0,part_1,,,,,,,,,,,,,gray,line
2.0,0,1.0,1.0,350.862026215,3.0,part_1,,,,,,,,,,,,,orange,cross
2.0,1,3.0,3.0,384.21320915200005,3.0,part_1,,,,,,,,,,,,,blue,circle
0.5,1,1.0,1.0,350.329875946,3.0,part_1,,,,,,,,,,,,,magenta,diamond
1.0,1,3.0,3.0,517.890930176,3.0,part_1,,,,,,,,,,,,,green,hexagon
2.0,0,2.0,2.0,317.46006012,3.0,part_1,,,,,,,,,,,,,orange,cross
0.5,1,2.0,2.0,317.721128464,3.0,part_1,,,,,,,,,,,,,magenta,diamond
4.0,1,2.0,2.0,383.96501541099997,3.0,part_1,,,,,,,,,,,,,cyan,square
2.0,1,2.0,2.0,351.068019867,3.0,part_1,,,,,,,,,,,,,blue,circle
1.0,1,2.0,2.0,367.38801002499997,3.0,part_1,,,,,,,,,,,,,green,hexagon
0.5,0,2.0,2.0,250.769138336,3.0,part_1,,,,,,,,,,,,,yellow,flipped triangle
0.5,0,2.0,2.0,350.760936737,3.0,part_1,,,,,,,,,,,,,yellow,flipped triangle
1.0,0,3.0,3.0,366.883993149,3.0,part_1,,,,,,,,,,,,,white,triangle
4.0,1,3.0,3.0,367.757081985,3.0,part_1,,,,,,,,,,,,,cyan,square
0.5,1,1.0,1.0,401.06511116,3.0,part_1,,,,,,,,,,,,,magenta,diamond
0.5,1,3.0,3.0,384.56010818500005,3.0,part_1,,,,,,,,,,,,,magenta,diamond
0.5,0,1.0,1.0,368.11709404,3.0,part_1,,,,,,,,,,,,,yellow,flipped triangle
4.0,0,2.0,2.0,333.86683464099997,3.0,part_1,,,,,,,,,,,,,gray,line
1.0,1,1.0,1.0,333.81319046000004,3.0,part_1,,,,,,,,,,,,,green,hexagon
0.5,1,3.0,3.0,367.736101151,3.0,part_1,,,,,,,,,,,,,magenta,diamond
0.5,0,1.0,1.0,317.62909889199994,3.0,part_1,,,,,,,,,,,,,yellow,flipped triangle
4.0,1,3.0,3.0,334.449052811,3.0,part_1,,,,,,,,,,,,,cyan,square
4.0,0,1.0,1.0,350.383043289,3.0,part_1,,,,,,,,,,,,,gray,line
2.0,0,4.0,4.0,384.76395607,3.0,part_1,,,,,,,,,,,,,orange,cross
4.0,1,2.0,2.0,350.84104537999997,3.0,part_1,,,,,,,,,,,,,cyan,square
2.0,0,1.0,1.0,367.42496490499997,3.0,part_1,,,,,,,,,,,,,orange,cross
4.0,1,3.0,3.0,351.011991501,3.0,part_1,,,,,,,,,,,,,cyan,square
2.0,1,3.0,3.0,367.052078247,3.0,part_1,,,,,,,,,,,,,blue,circle
0.5,1,2.0,2.0,417.55294799800004,3.0,part_1,,,,,,,,,,,,,magenta,diamond
4.0,0,4.0,4.0,383.80408287,3.0,part_1,,,,,,,,,,,,,gray,line
0.5,1,1.0,1.0,317.437887192,3.0,part_1,,,,,,,,,,,,,magenta,diamond
2.0,0,1.0,1.0,367.17009544399997,3.0,part_1,,,,,,,,,,,,,orange,cross
4.0,0,4.0,4.0,384.332895279,3.0,part_1,,,,,,,,,,,,,gray,line
1.0,0,3.0,3.0,401.104211807,3.0,part_1,,,,,,,,,,,,,white,triangle
4.0,0,1.0,1.0,300.474882126,3.0,part_1,,,,,,,,,,,,,gray,line
1.0,0,3.0,3.0,334.10501480100004,3.0,part_1,,,,,,,,,,,,,white,triangle
0.5,1,2.0,2.0,350.46005249,3.0,part_1,,,,,,,,,,,,,magenta,diamond
1.0,0,4.0,4.0,350.716114044,3.0,part_1,,,,,,,,,,,,,white,triangle
4.0,0,3.0,3.0,384.33218002300003,3.0,part_1,,,,,,,,,,,,,gray,line
0.5,1,4.0,4.0,350.714921951,3.0,part_1,,,,,,,,,,,,,magenta,diamond
0.5,0,3.0,3.0,383.646965027,3.0,part_1,,,,,,,,,,,,,yellow,flipped triangle
2.0,1,4.0,4.0,317.884206772,3.0,part_1,,,,,,,,,,,,,blue,circle
1.0,1,4.0,4.0,367.67292022699996,3.0,part_1,,,,,,,,,,,,,green,hexagon
1.0,0,2.0,2.0,384.269952774,3.0,part_1,,,,,,,,,,,,,white,triangle
0.5,1,1.0,1.0,417.210102081,3.0,part_1,,,,,,,,,,,,,magenta,diamond
1.0,1,3.0,3.0,417.719125748,3.0,part_1,,,,,,,,,,,,,green,hexagon
4.0,0,3.0,3.0,401.49712562599996,3.0,part_1,,,,,,,,,,,,,gray,line
1.0,0,4.0,4.0,384.035110474,3.0,part_1,,,,,,,,,,,,,white,triangle
0.5,0,3.0,3.0,350.982189178,3.0,part_1,,,,,,,,,,,,,yellow,flipped triangle
4.0,1,3.0,3.0,367.31505394000004,3.0,part_1,,,,,,,,,,,,,cyan,square
2.0,0,2.0,2.0,434.30685997,3.0,part_1,,,,,,,,,,,,,orange,cross
2.0,1,3.0,3.0,417.627096176,3.0,part_1,,,,,,,,,,,,,blue,circle
2.0,1,4.0,4.0,384.530067444,3.0,part_1,,,,,,,,,,,,,blue,circle
1.0,0,1.0,1.0,384.303092957,3.0,part_1,,,,,,,,,,,,,white,triangle
4.0,0,1.0,1.0,367.585897446,3.0,part_1,,,,,,,,,,,,,gray,line
0.5,0,1.0,1.0,434.447050095,3.0,part_1,,,,,,,,,,,,,yellow,flipped triangle
4.0,0,4.0,4.0,501.23882293699995,3.0,part_1,,,,,,,,,,,,,gray,line
4.0,1,2.0,2.0,400.734901428,3.0,part_1,,,,,,,,,,,,,cyan,square
1.0,1,4.0,4.0,450.50096511799995,3.0,part_1,,,,,,,,,,,,,green,hexagon
1.0,0,1.0,1.0,367.441177368,3.0,part_1,,,,,,,,,,,,,white,triangle
0.5,0,1.0,1.0,384.001016617,3.0,part_1,,,,,,,,,,,,,yellow,flipped triangle
2.0,1,1.0,1.0,450.800895691,3.0,part_1,,,,,,,,,,,,,blue,circle
2.0,1,2.0,2.0,667.865991592,4.0,part_1,,,,,,,,,,,,,blue,circle
0.5,0,4.0,4.0,400.923013687,4.0,part_1,,,,,,,,,,,,,yellow,flipped triangle
0.5,0,4.0,4.0,351.162910461,4.0,part_1,,,,,,,,,,,,,yellow,flipped triangle
4.0,0,2.0,2.0,366.832971573,4.0,part_1,,,,,,,,,,,,,gray,line
2.0,0,1.0,1.0,333.602190018,4.0,part_1,,,,,,,,,,,,,orange,cross
2.0,0,3.0,3.0,367.39182472199997,4.0,part_1,,,,,,,,,,,,,orange,cross
2.0,0,3.0,3.0,384.40990448,4.0,part_1,,,,,,,,,,,,,orange,cross
1.0,0,4.0,4.0,367.40303039599996,4.0,part_1,,,,,,,,,,,,,white,triangle
0.5,1,3.0,3.0,367.4659729,4.0,part_1,,,,,,,,,,,,,magenta,diamond
0.5,1,2.0,2.0,300.462007523,4.0,part_1,,,,,,,,,,,,,magenta,diamond
0.5,0,1.0,1.0,367.557048798,4.0,part_1,,,,,,,,,,,,,yellow,flipped triangle
1.0,1,2.0,2.0,334.088802338,4.0,part_1,,,,,,,,,,,,,green,hexagon
4.0,0,1.0,1.0,333.965063095,4.0,part_1,,,,,,,,,,,,,gray,line
0.5,1,4.0,4.0,350.717067719,4.0,part_1,,,,,,,,,,,,,magenta,diamond
1.0,0,1.0,1.0,351.100921631,4.0,part_1,,,,,,,,,,,,,white,triangle
1.0,0,4.0,4.0,350.31104087800003,4.0,part_1,,,,,,,,,,,,,white,triangle
2.0,1,4.0,4.0,350.811958313,4.0,part_1,,,,,,,,,,,,,blue,circle
4.0,1,3.0,3.0,350.834846497,4.0,part_1,,,,,,,,,,,,,cyan,square
2.0,0,3.0,3.0,384.159088135,4.0,part_1,,,,,,,,,,,,,orange,cross
1.0,1,4.0,4.0,350.918054581,4.0,part_1,,,,,,,,,,,,,green,hexagon
1.0,1,2.0,2.0,317.277908325,4.0,part_1,,,,,,,,,,,,,green,hexagon
1.0,0,2.0,2.0,451.575040817,4.0,part_1,,,,,,,,,,,,,white,triangle
2.0,1,2.0,2.0,250.64802169799998,4.0,part_1,,,,,,,,,,,,,blue,circle
4.0,1,4.0,4.0,350.700855255,4.0,part_1,,,,,,,,,,,,,cyan,square
4.0,1,2.0,2.0,317.38996505700004,4.0,part_1,,,,,,,,,,,,,cyan,square
2.0,0,3.0,3.0,350.666999817,4.0,part_1,,,,,,,,,,,,,orange,cross
0.5,0,2.0,2.0,367.634057999,4.0,part_1,,,,,,,,,,,,,yellow,flipped triangle
0.5,1,1.0,1.0,300.819158554,4.0,part_1,,,,,,,,,,,,,magenta,diamond
0.5,1,4.0,4.0,367.41900444,4.0,part_1,,,,,,,,,,,,,magenta,diamond
4.0,1,1.0,1.0,367.67792701699994,4.0,part_1,,,,,,,,,,,,,cyan,square
1.0,0,3.0,3.0,367.647886276,4.0,part_1,,,,,,,,,,,,,white,triangle
4.0,1,3.0,3.0,334.460020065,4.0,part_1,,,,,,,,,,,,,cyan,square
4.0,0,1.0,1.0,317.25907325699995,4.0,part_1,,,,,,,,,,,,,gray,line
4.0,1,2.0,2.0,317.372083664,4.0,part_1,,,,,,,,,,,,,cyan,square
2.0,0,3.0,3.0,367.58899688699995,4.0,part_1,,,,,,,,,,,,,orange,cross
0.5,0,1.0,1.0,350.604057312,4.0,part_1,,,,,,,,,,,,,yellow,flipped triangle
4.0,1,1.0,1.0,367.44904518100003,4.0,part_1,,,,,,,,,,,,,cyan,square
4.0,1,4.0,4.0,434.218883514,4.0,part_1,,,,,,,,,,,,,cyan,square
2.0,1,1.0,1.0,317.19613075300003,4.0,part_1,,,,,,,,,,,,,blue,circle
0.5,1,4.0,4.0,417.058944702,4.0,part_1,,,,,,,,,,,,,magenta,diamond
1.0,1,3.0,3.0,350.790977478,4.0,part_1,,,,,,,,,,,,,green,hexagon
4.0,1,4.0,4.0,350.786924362,4.0,part_1,,,,,,,,,,,,,cyan,square
2.0,0,2.0,2.0,350.682973862,4.0,part_1,,,,,,,,,,,,,orange,cross
4.0,1,4.0,4.0,284.62505340599995,4.0,part_1,,,,,,,,,,,,,cyan,square
0.5,1,3.0,3.0,367.28787422199997,4.0,part_1,,,,,,,,,,,,,magenta,diamond
2.0,0,1.0,1.0,384.59682464599996,4.0,part_1,,,,,,,,,,,,,orange,cross
0.5,0,4.0,4.0,367.3350811,4.0,part_1,,,,,,,,,,,,,yellow,flipped triangle
1.0,1,2.0,2.0,300.901174545,4.0,part_1,,,,,,,,,,,,,green,hexagon
0.5,0,3.0,3.0,367.913007736,4.0,part_1,,,,,,,,,,,,,yellow,flipped triangle
4.0,0,2.0,2.0,367.48886108399995,4.0,part_1,,,,,,,,,,,,,gray,line
1.0,1,1.0,1.0,367.52986908,4.0,part_1,,,,,,,,,,,,,green,hexagon
0.5,1,1.0,1.0,368.026018143,4.0,part_1,,,,,,,,,,,,,magenta,diamond
4.0,1,3.0,3.0,367.48886108399995,4.0,part_1,,,,,,,,,,,,,cyan,square
2.0,1,3.0,3.0,417.24896431,4.0,part_1,,,,,,,,,,,,,blue,circle
2.0,1,2.0,2.0,316.87116622900004,4.0,part_1,,,,,,,,,,,,,blue,circle
0.5,0,3.0,3.0,350.629091263,4.0,part_1,,,,,,,,,,,,,yellow,flipped triangle
1.0,0,1.0,1.0,317.38305091899997,4.0,part_1,,,,,,,,,,,,,white,triangle
1.0,1,3.0,3.0,367.883205414,4.0,part_1,,,,,,,,,,,,,green,hexagon
1.0,1,3.0,3.0,600.31414032,4.0,part_1,,,,,,,,,,,,,green,hexagon
0.5,1,2.0,2.0,367.28096008299997,4.0,part_1,,,,,,,,,,,,,magenta,diamond
0.5,0,2.0,2.0,334.40113067600004,4.0,part_1,,,,,,,,,,,,,yellow,flipped triangle
4.0,0,1.0,1.0,350.661039352,4.0,part_1,,,,,,,,,,,,,gray,line
1.0,1,1.0,1.0,351.589202881,4.0,part_1,,,,,,,,,,,,,green,hexagon
2.0,0,4.0,4.0,333.95695686299996,4.0,part_1,,,,,,,,,,,,,orange,cross
4.0,1,4.0,4.0,367.015123367,4.0,part_1,,,,,,,,,,,,,cyan,square
4.0,1,2.0,2.0,333.62793922400004,4.0,part_1,,,,,,,,,,,,,cyan,square
2.0,1,2.0,2.0,400.639057159,4.0,part_1,,,,,,,,,,,,,blue,circle
4.0,1,4.0,4.0,367.45190620399995,4.0,part_1,,,,,,,,,,,,,cyan,square
2.0,1,3.0,3.0,333.931207657,4.0,part_1,,,,,,,,,,,,,blue,circle
1.0,0,3.0,3.0,367.40398407000004,4.0,part_1,,,,,,,,,,,,,white,triangle
2.0,1,4.0,4.0,351.351976395,4.0,part_1,,,,,,,,,,,,,blue,circle
2.0,0,1.0,1.0,567.959070206,4.0,part_1,,,,,,,,,,,,,orange,cross
2.0,1,3.0,3.0,334.47098732,4.0,part_1,,,,,,,,,,,,,blue,circle
1.0,0,4.0,4.0,350.300073624,4.0,part_1,,,,,,,,,,,,,white,triangle
4.0,1,2.0,2.0,300.803899765,4.0,part_1,,,,,,,,,,,,,cyan,square
1.0,0,1.0,1.0,350.76379776,4.0,part_1,,,,,,,,,,,,,white,triangle
1.0,0,4.0,4.0,350.634098053,4.0,part_1,,,,,,,,,,,,,white,triangle
1.0,1,2.0,2.0,317.294836044,4.0,part_1,,,,,,,,,,,,,green,hexagon
4.0,0,3.0,3.0,368.01600456200003,4.0,part_1,,,,,,,,,,,,,gray,line
1.0,1,1.0,1.0,317.669153214,4.0,part_1,,,,,,,,,,,,,green,hexagon
4.0,0,1.0,1.0,367.247819901,4.0,part_1,,,,,,,,,,,,,gray,line
0.5,0,1.0,1.0,317.344903946,4.0,part_1,,,,,,,,,,,,,yellow,flipped triangle
1.0,1,4.0,4.0,400.55108070399996,4.0,part_1,,,,,,,,,,,,,green,hexagon
0.5,0,4.0,4.0,367.377996445,4.0,part_1,,,,,,,,,,,,,yellow,flipped triangle
0.5,0,3.0,3.0,367.492198944,4.0,part_1,,,,,,,,,,,,,yellow,flipped triangle
1.0,0,4.0,4.0,367.630004883,4.0,part_1,,,,,,,,,,,,,white,triangle
1.0,0,2.0,2.0,400.73800087,4.0,part_1,,,,,,,,,,,,,white,triangle
1.0,0,1.0,1.0,317.60597228999995,4.0,part_1,,,,,,,,,,,,,white,triangle
2.0,1,3.0,3.0,367.264032364,4.0,part_1,,,,,,,,,,,,,blue,circle
1.0,1,1.0,1.0,351.027965546,4.0,part_1,,,,,,,,,,,,,green,hexagon
2.0,0,1.0,1.0,400.75397491499996,4.0,part_1,,,,,,,,,,,,,orange,cross
0.5,1,2.0,2.0,367.693901062,4.0,part_1,,,,,,,,,,,,,magenta,diamond
4.0,1,2.0,2.0,350.390911102,4.0,part_1,,,,,,,,,,,,,cyan,square
4.0,0,2.0,2.0,383.918046951,4.0,part_1,,,,,,,,,,,,,gray,line
0.5,0,4.0,4.0,383.941173553,4.0,part_1,,,,,,,,,,,,,yellow,flipped triangle
4.0,0,3.0,3.0,384.015083313,4.0,part_1,,,,,,,,,,,,,gray,line
4.0,1,1.0,1.0,350.897073746,4.0,part_1,,,,,,,,,,,,,cyan,square
1.0,1,2.0,2.0,350.478887558,4.0,part_1,,,,,,,,,,,,,green,hexagon
4.0,0,3.0,3.0,350.83985328700004,4.0,part_1,,,,,,,,,,,,,gray,line
2.0,1,4.0,4.0,350.463867188,4.0,part_1,,,,,,,,,,,,,blue,circle
4.0,0,6.0,6.0,734.2178821560001,1.0,part_2,go,250.0,250.0,1.0,,,,,,,,,gray,line
1.0,1,6.0,6.0,367.409944534,1.0,part_2,stop,250.0,250.0,3.0,,,,,,,,,green,hexagon
0.5,0,6.0,6.0,517.651081085,1.0,part_2,go,250.0,250.0,1.0,,,,,,,,,yellow,flipped triangle
1.0,0,6.0,6.0,750.7479190829999,1.0,part_2,go,250.0,250.0,1.0,,,,,,,,,white,triangle
4.0,0,6.0,6.0,551.5120029450001,1.0,part_2,go,250.0,250.0,1.0,,,,,,,,,gray,line
4.0,1,5.0,,,1.0,,stop,250.0,250.0,4.0,,,,,,,,,cyan,square
2.0,1,5.0,5.0,534.308195114,1.0,part_2,go,250.0,250.0,1.0,,,,,,,,,blue,circle
0.5,0,5.0,5.0,567.879915237,1.0,part_2,go,250.0,250.0,1.0,,,,,,,,,yellow,flipped triangle
4.0,0,5.0,5.0,567.678928375,1.0,part_2,go,250.0,250.0,1.0,,,,,,,,,gray,line
0.5,0,6.0,6.0,500.865936279,1.0,part_2,go,250.0,250.0,1.0,,,,,,,,,yellow,flipped triangle
4.0,0,6.0,6.0,551.1310100559999,1.0,part_2,go,250.0,250.0,1.0,,,,,,,,,gray,line
1.0,1,5.0,,,1.0,,stop,300.0,250.0,4.0,,,,,,,,,green,hexagon
4.0,1,5.0,,,1.0,,stop,350.0,250.0,4.0,,,,,,,,,cyan,square
2.0,0,6.0,6.0,684.438943863,1.0,part_2,go,350.0,250.0,1.0,,,,,,,,,orange,cross
1.0,1,6.0,,,1.0,,stop,350.0,200.0,4.0,,,,,,,,,green,hexagon
2.0,0,5.0,5.0,567.440986633,1.0,part_2,go,350.0,200.0,1.0,,,,,,,,,orange,cross
2.0,1,6.0,,,1.0,,stop,350.0,250.0,4.0,,,,,,,,,blue,circle
4.0,0,6.0,6.0,583.925962448,1.0,part_2,go,350.0,250.0,1.0,,,,,,,,,gray,line
4.0,0,6.0,6.0,801.081895828,1.0,part_2,go,350.0,250.0,1.0,,,,,,,,,gray,line
2.0,0,5.0,5.0,834.553956985,1.0,part_2,go,350.0,250.0,1.0,,,,,,,,,orange,cross
2.0,1,6.0,,,1.0,,stop,350.0,300.0,4.0,,,,,,,,,blue,circle
4.0,0,5.0,5.0,534.233093262,1.0,part_2,go,350.0,300.0,1.0,,,,,,,,,gray,line
4.0,0,5.0,5.0,417.470932007,1.0,part_2,go,350.0,300.0,1.0,,,,,,,,,gray,line
2.0,1,6.0,,,1.0,,stop,350.0,350.0,4.0,,,,,,,,,blue,circle
2.0,0,5.0,5.0,600.4791259770001,1.0,part_2,go,350.0,350.0,1.0,,,,,,,,,orange,cross
2.0,1,6.0,6.0,650.815010071,1.0,part_2,go,350.0,350.0,1.0,,,,,,,,,blue,circle
0.5,1,6.0,,,1.0,,stop,350.0,400.0,4.0,,,,,,,,,magenta,diamond
4.0,1,6.0,6.0,584.396123886,1.0,part_2,stop,350.0,450.0,3.0,,,,,,,,,cyan,square
1.0,0,6.0,6.0,567.6379203800001,1.0,part_2,go,350.0,450.0,1.0,,,,,,,,,white,triangle
1.0,1,5.0,,,1.0,,stop,400.0,450.0,4.0,,,,,,,,,green,hexagon
4.0,0,5.0,5.0,567.7728652950001,1.0,part_2,go,400.0,450.0,1.0,,,,,,,,,gray,line
4.0,0,5.0,5.0,550.816059113,1.0,part_2,go,400.0,450.0,1.0,,,,,,,,,gray,line
1.0,0,5.0,5.0,484.38000679,1.0,part_2,go,400.0,450.0,1.0,,,,,,,,,white,triangle
0.5,1,5.0,5.0,434.533834457,1.0,part_2,stop,450.0,450.0,3.0,,,,,,,,,magenta,diamond
4.0,0,5.0,5.0,501.04689598100003,1.0,part_2,go,450.0,450.0,1.0,,,,,,,,,gray,line
4.0,0,5.0,5.0,584.1529369350001,1.0,part_2,go,450.0,450.0,1.0,,,,,,,,,gray,line
1.0,0,5.0,5.0,517.4620151519999,2.0,part_2,go,450.0,450.0,1.0,,,,,,,,,white,triangle
4.0,1,5.0,5.0,317.292928696,2.0,part_2,stop,400.0,450.0,3.0,,,,,,,,,cyan,square
1.0,0,6.0,6.0,400.885105133,2.0,part_2,go,400.0,450.0,1.0,,,,,,,,,white,triangle
2.0,1,5.0,5.0,434.111833572,2.0,part_2,go,400.0,450.0,1.0,,,,,,,,,blue,circle
4.0,0,5.0,5.0,433.876037598,2.0,part_2,go,400.0,450.0,1.0,,,,,,,,,gray,line
4.0,1,6.0,6.0,500.870943069,2.0,part_2,go,400.0,450.0,1.0,,,,,,,,,cyan,square
0.5,0,5.0,5.0,417.598962784,2.0,part_2,go,400.0,450.0,1.0,,,,,,,,,yellow,flipped triangle
2.0,0,6.0,6.0,501.18684768699995,2.0,part_2,go,400.0,450.0,1.0,,,,,,,,,orange,cross
2.0,0,6.0,5.0,467.20886230499997,2.0,part_2,go,400.0,450.0,2.0,,,,,,,,,orange,cross
0.5,1,5.0,5.0,384.115219116,2.0,part_2,stop,350.0,450.0,3.0,,,,,,,,,magenta,diamond
0.5,1,5.0,5.0,401.106119156,2.0,part_2,stop,300.0,450.0,3.0,,,,,,,,,magenta,diamond
1.0,1,6.0,6.0,401.44705772400005,2.0,part_2,stop,300.0,400.0,3.0,,,,,,,,,green,hexagon
0.5,1,5.0,,,2.0,,stop,250.0,400.0,4.0,,,,,,,,,magenta,diamond
4.0,0,6.0,6.0,467.66495704700003,2.0,part_2,go,250.0,400.0,1.0,,,,,,,,,gray,line
0.5,0,5.0,5.0,550.990104675,2.0,part_2,go,250.0,400.0,1.0,,,,,,,,,yellow,flipped triangle
4.0,0,6.0,6.0,567.551851273,2.0,part_2,go,250.0,400.0,1.0,,,,,,,,,gray,line
2.0,1,5.0,5.0,617.7599430079999,2.0,part_2,go,250.0,400.0,1.0,,,,,,,,,blue,circle
2.0,1,5.0,5.0,617.622852325,2.0,part_2,go,250.0,400.0,1.0,,,,,,,,,blue,circle
1.0,0,6.0,6.0,634.787082672,2.0,part_2,go,250.0,400.0,1.0,,,,,,,,,white,triangle
0.5,1,5.0,5.0,617.6700592039999,2.0,part_2,go,250.0,400.0,1.0,,,,,,,,,magenta,diamond
4.0,1,6.0,6.0,484.116077423,2.0,part_2,stop,250.0,350.0,3.0,,,,,,,,,cyan,square
4.0,1,6.0,,,2.0,,stop,250.0,300.0,4.0,,,,,,,,,cyan,square
2.0,0,5.0,5.0,584.415912628,2.0,part_2,go,250.0,300.0,1.0,,,,,,,,,orange,cross
0.5,0,6.0,6.0,567.5201416020001,2.0,part_2,go,250.0,300.0,1.0,,,,,,,,,yellow,flipped triangle
2.0,0,6.0,6.0,584.812879562,2.0,part_2,go,250.0,300.0,1.0,,,,,,,,,orange,cross
2.0,1,5.0,,,2.0,,stop,300.0,300.0,4.0,,,,,,,,,blue,circle
2.0,1,5.0,,,2.0,,stop,350.0,300.0,4.0,,,,,,,,,blue,circle
1.0,1,6.0,,,2.0,,stop,350.0,350.0,4.0,,,,,,,,,green,hexagon
1.0,1,6.0,,,2.0,,stop,350.0,400.0,4.0,,,,,,,,,green,hexagon
1.0,0,6.0,6.0,568.253040314,2.0,part_2,go,350.0,400.0,1.0,,,,,,,,,white,triangle
2.0,1,6.0,,,2.0,,stop,350.0,450.0,4.0,,,,,,,,,blue,circle
2.0,0,6.0,6.0,684.1681003570001,2.0,part_2,go,350.0,450.0,1.0,,,,,,,,,orange,cross
0.5,0,5.0,5.0,851.176023483,2.0,part_2,go,350.0,450.0,1.0,,,,,,,,,yellow,flipped triangle
2.0,0,6.0,6.0,584.35177803,2.0,part_2,go,350.0,450.0,1.0,,,,,,,,,orange,cross
1.0,0,5.0,5.0,651.3400077819999,2.0,part_2,go,350.0,450.0,1.0,,,,,,,,,white,triangle
0.5,0,5.0,5.0,517.48085022,2.0,part_2,go,350.0,450.0,1.0,,,,,,,,,yellow,flipped triangle
2.0,1,6.0,6.0,717.8521156310001,3.0,part_2,stop,350.0,500.0,3.0,,,,,,,,,blue,circle
2.0,0,6.0,6.0,650.930166245,3.0,part_2,go,350.0,500.0,1.0,,,,,,,,,orange,cross
4.0,1,6.0,6.0,601.001024246,3.0,part_2,stop,350.0,450.0,3.0,,,,,,,,,cyan,square
2.0,1,6.0,,,3.0,,stop,350.0,400.0,4.0,,,,,,,,,blue,circle
0.5,1,5.0,5.0,717.7989482879999,3.0,part_2,go,350.0,400.0,1.0,,,,,,,,,magenta,diamond
4.0,1,6.0,,,3.0,,stop,350.0,450.0,4.0,,,,,,,,,cyan,square
4.0,1,5.0,,,3.0,,stop,400.0,450.0,4.0,,,,,,,,,cyan,square
2.0,0,6.0,6.0,584.6359729769999,3.0,part_2,go,400.0,450.0,1.0,,,,,,,,,orange,cross
1.0,0,6.0,6.0,651.09205246,3.0,part_2,go,400.0,450.0,1.0,,,,,,,,,white,triangle
4.0,1,6.0,,,3.0,,stop,400.0,500.0,4.0,,,,,,,,,cyan,square
1.0,1,5.0,5.0,534.473180771,3.0,part_2,stop,450.0,500.0,3.0,,,,,,,,,green,hexagon
4.0,1,6.0,6.0,667.6399707789999,3.0,part_2,go,450.0,500.0,1.0,,,,,,,,,cyan,square
4.0,0,5.0,5.0,751.569986343,3.0,part_2,go,450.0,500.0,1.0,,,,,,,,,gray,line
4.0,1,5.0,,,3.0,,stop,400.0,500.0,4.0,,,,,,,,,cyan,square
1.0,1,5.0,,,3.0,,stop,450.0,500.0,4.0,,,,,,,,,green,hexagon
1.0,0,5.0,5.0,967.962026596,3.0,part_2,go,450.0,500.0,1.0,,,,,,,,,white,triangle
1.0,0,5.0,5.0,834.749937057,3.0,part_2,go,450.0,500.0,1.0,,,,,,,,,white,triangle
1.0,1,5.0,,,3.0,,stop,500.0,500.0,4.0,,,,,,,,,green,hexagon
1.0,1,6.0,6.0,700.714826584,3.0,part_2,stop,500.0,550.0,3.0,,,,,,,,,green,hexagon
4.0,1,5.0,,,3.0,,stop,550.0,550.0,4.0,,,,,,,,,cyan,square
2.0,0,5.0,5.0,717.681884766,3.0,part_2,go,550.0,550.0,1.0,,,,,,,,,orange,cross
0.5,1,5.0,,,3.0,,stop,600.0,550.0,4.0,,,,,,,,,magenta,diamond
4.0,1,6.0,,,3.0,,stop,600.0,500.0,4.0,,,,,,,,,cyan,square
1.0,1,5.0,5.0,784.7678661350001,3.0,part_2,stop,650.0,500.0,3.0,,,,,,,,,green,hexagon
4.0,1,6.0,6.0,967.748880386,3.0,part_2,go,650.0,500.0,1.0,,,,,,,,,cyan,square
0.5,1,6.0,,,3.0,,stop,650.0,550.0,4.0,,,,,,,,,magenta,diamond
2.0,0,6.0,6.0,951.460838318,3.0,part_2,go,650.0,550.0,1.0,,,,,,,,,orange,cross
0.5,1,5.0,,,3.0,,stop,600.0,550.0,4.0,,,,,,,,,magenta,diamond
0.5,0,6.0,6.0,951.323032379,3.0,part_2,go,600.0,550.0,1.0,,,,,,,,,yellow,flipped triangle
4.0,0,5.0,5.0,751.6980171199999,3.0,part_2,go,600.0,550.0,1.0,,,,,,,,,gray,line
0.5,0,5.0,5.0,851.361036301,3.0,part_2,go,600.0,550.0,1.0,,,,,,,,,yellow,flipped triangle
1.0,1,6.0,6.0,801.389932632,3.0,part_2,go,600.0,550.0,1.0,,,,,,,,,green,hexagon
2.0,0,5.0,5.0,851.3939380649999,3.0,part_2,go,600.0,550.0,1.0,,,,,,,,,orange,cross
2.0,0,5.0,5.0,784.409046173,3.0,part_2,go,600.0,550.0,1.0,,,,,,,,,orange,cross
4.0,0,6.0,6.0,868.1519031519999,3.0,part_2,go,600.0,550.0,1.0,,,,,,,,,gray,line
1.0,1,6.0,,,3.0,,go,600.0,550.0,5.0,,,,,,,,,green,hexagon
0.5,1,6.0,6.0,417.69289970399996,4.0,part_2,stop,600.0,600.0,3.0,,,,,,,,,magenta,diamond
2.0,0,6.0,6.0,701.2941837310001,4.0,part_2,go,600.0,600.0,1.0,,,,,,,,,orange,cross
0.5,1,5.0,5.0,634.377002716,4.0,part_2,stop,650.0,600.0,3.0,,,,,,,,,magenta,diamond
1.0,1,6.0,6.0,701.039075851,4.0,part_2,go,650.0,600.0,1.0,,,,,,,,,green,hexagon
0.5,1,5.0,5.0,617.633104324,4.0,part_2,stop,600.0,600.0,3.0,,,,,,,,,magenta,diamond
4.0,0,6.0,6.0,684.592008591,4.0,part_2,go,600.0,600.0,1.0,,,,,,,,,gray,line
1.0,0,5.0,5.0,634.435892105,4.0,part_2,go,600.0,600.0,1.0,,,,,,,,,white,triangle
0.5,1,5.0,5.0,650.740861893,4.0,part_2,stop,550.0,600.0,3.0,,,,,,,,,magenta,diamond
0.5,0,6.0,6.0,784.654855728,4.0,part_2,go,550.0,600.0,1.0,,,,,,,,,yellow,flipped triangle
0.5,0,5.0,5.0,750.6752014159999,4.0,part_2,go,550.0,600.0,1.0,,,,,,,,,yellow,flipped triangle
1.0,1,5.0,,,4.0,,stop,500.0,600.0,4.0,,,,,,,,,green,hexagon
2.0,0,5.0,5.0,701.3380527500001,4.0,part_2,go,500.0,600.0,1.0,,,,,,,,,orange,cross
1.0,1,5.0,,,4.0,,stop,550.0,600.0,4.0,,,,,,,,,green,hexagon
0.5,1,6.0,,,4.0,,stop,550.0,550.0,4.0,,,,,,,,,magenta,diamond
2.0,0,6.0,6.0,801.063776016,4.0,part_2,go,550.0,550.0,1.0,,,,,,,,,orange,cross
4.0,1,5.0,5.0,818.5429573060001,4.0,part_2,go,550.0,550.0,1.0,,,,,,,,,cyan,square
0.5,0,6.0,6.0,717.841863632,4.0,part_2,go,550.0,550.0,1.0,,,,,,,,,yellow,flipped triangle
1.0,0,6.0,6.0,751.0700225830001,4.0,part_2,go,550.0,550.0,1.0,,,,,,,,,white,triangle
1.0,0,5.0,5.0,717.736959457,4.0,part_2,go,550.0,550.0,1.0,,,,,,,,,white,triangle
1.0,0,5.0,5.0,650.5701541899999,4.0,part_2,go,550.0,550.0,1.0,,,,,,,,,white,triangle
2.0,0,5.0,5.0,617.462158203,4.0,part_2,go,550.0,550.0,1.0,,,,,,,,,orange,cross
4.0,1,6.0,6.0,668.152093887,4.0,part_2,stop,550.0,600.0,3.0,,,,,,,,,cyan,square
4.0,0,6.0,6.0,767.970085144,4.0,part_2,go,550.0,600.0,1.0,,,,,,,,,gray,line
4.0,0,5.0,5.0,700.8869647979999,4.0,part_2,go,550.0,600.0,1.0,,,,,,,,,gray,line
0.5,0,5.0,5.0,834.421157837,4.0,part_2,go,550.0,600.0,1.0,,,,,,,,,yellow,flipped triangle
0.5,0,5.0,5.0,734.2920303340001,4.0,part_2,go,550.0,600.0,1.0,,,,,,,,,yellow,flipped triangle
2.0,0,6.0,6.0,634.385108948,4.0,part_2,go,550.0,600.0,1.0,,,,,,,,,orange,cross
0.5,0,6.0,6.0,634.212970734,4.0,part_2,go,550.0,600.0,1.0,,,,,,,,,yellow,flipped triangle
4.0,0,6.0,6.0,701.372146606,4.0,part_2,go,550.0,600.0,1.0,,,,,,,,,gray,line
0.5,0,5.0,5.0,701.236009598,4.0,part_2,go,550.0,600.0,1.0,,,,,,,,,yellow,flipped triangle
4.0,0,6.0,6.0,734.488010406,4.0,part_2,go,550.0,600.0,1.0,,,,,,,,,gray,line
4.0,0,5.0,5.0,700.8030414579999,4.0,part_2,go,550.0,600.0,1.0,,,,,,,,,gray,line
4.0,1,6.0,,,4.0,,stop,550.0,550.0,4.0,,,,,,,,,cyan,square
0.5,0,6.0,6.0,801.367044449,4.0,part_2,go,550.0,550.0,1.0,,,,,,,,,yellow,flipped triangle
2.0,0,5.0,5.0,784.518957138,4.0,part_2,go,550.0,550.0,1.0,,,,,,,,,orange,cross
2.0,1,6.0,,,4.0,,stop,550.0,600.0,4.0,,,,,,,,,blue,circle
2.0,1,5.0,5.0,668.0381298069999,5.0,part_2,stop,600.0,600.0,3.0,,,,,,,,,blue,circle
1.0,1,6.0,6.0,618.144989014,5.0,part_2,go,600.0,600.0,1.0,,,,,,,,,green,hexagon
0.5,1,5.0,5.0,450.814962387,5.0,part_2,stop,550.0,600.0,3.0,,,,,,,,,magenta,diamond
2.0,1,5.0,,,5.0,,stop,500.0,600.0,4.0,,,,,,,,,blue,circle
0.5,1,5.0,5.0,700.706005096,5.0,part_2,go,500.0,600.0,1.0,,,,,,,,,magenta,diamond
1.0,1,6.0,6.0,634.859800339,5.0,part_2,go,500.0,600.0,1.0,,,,,,,,,green,hexagon
4.0,1,6.0,6.0,617.6710128779999,5.0,part_2,go,500.0,600.0,1.0,,,,,,,,,cyan,square
1.0,1,5.0,5.0,651.1759758,5.0,part_2,stop,550.0,600.0,3.0,,,,,,,,,green,hexagon
1.0,1,6.0,6.0,701.696872711,5.0,part_2,stop,550.0,650.0,3.0,,,,,,,,,green,hexagon
0.5,1,5.0,,,5.0,,stop,500.0,650.0,4.0,,,,,,,,,magenta,diamond
2.0,1,5.0,5.0,667.271852493,5.0,part_2,stop,550.0,650.0,3.0,,,,,,,,,blue,circle
2.0,0,5.0,5.0,767.835140228,5.0,part_2,go,550.0,650.0,1.0,,,,,,,,,orange,cross
0.5,1,5.0,,,5.0,,stop,500.0,650.0,4.0,,,,,,,,,magenta,diamond
2.0,1,6.0,,,5.0,,stop,500.0,600.0,4.0,,,,,,,,,blue,circle
2.0,1,6.0,,,5.0,,stop,500.0,650.0,4.0,,,,,,,,,blue,circle
1.0,1,6.0,6.0,918.072938919,5.0,part_2,go,500.0,650.0,1.0,,,,,,,,,green,hexagon
0.5,0,6.0,6.0,884.6809864039999,5.0,part_2,go,500.0,650.0,1.0,,,,,,,,,yellow,flipped triangle
4.0,0,5.0,5.0,701.3330459590001,5.0,part_2,go,500.0,650.0,1.0,,,,,,,,,gray,line
2.0,1,6.0,,,5.0,,stop,500.0,700.0,4.0,,,,,,,,,blue,circle
4.0,1,6.0,6.0,885.2059841160001,5.0,part_2,go,500.0,700.0,1.0,,,,,,,,,cyan,square
1.0,0,6.0,6.0,951.46894455,5.0,part_2,go,500.0,700.0,1.0,,,,,,,,,white,triangle
0.5,1,5.0,5.0,868.7319755550001,5.0,part_2,go,500.0,700.0,1.0,,,,,,,,,magenta,diamond
1.0,0,6.0,6.0,751.110076904,5.0,part_2,go,500.0,700.0,1.0,,,,,,,,,white,triangle
1.0,0,5.0,5.0,734.452009201,5.0,part_2,go,500.0,700.0,1.0,,,,,,,,,white,triangle
2.0,1,6.0,6.0,835.109949112,5.0,part_2,stop,500.0,750.0,3.0,,,,,,,,,blue,circle
0.5,1,5.0,5.0,684.756040573,5.0,part_2,go,500.0,750.0,1.0,,,,,,,,,magenta,diamond
4.0,0,5.0,5.0,701.3318538670001,5.0,part_2,go,500.0,750.0,1.0,,,,,,,,,gray,line
1.0,0,5.0,5.0,784.835100174,5.0,part_2,go,500.0,750.0,1.0,,,,,,,,,white,triangle
0.5,0,6.0,6.0,718.4059619899999,5.0,part_2,go,500.0,750.0,1.0,,,,,,,,,yellow,flipped triangle
1.0,0,6.0,6.0,717.419147491,5.0,part_2,go,500.0,750.0,1.0,,,,,,,,,white,triangle
4.0,1,5.0,5.0,734.7559928889999,5.0,part_2,go,500.0,750.0,1.0,,,,,,,,,cyan,square
4.0,0,6.0,6.0,767.711877823,5.0,part_2,go,500.0,750.0,1.0,,,,,,,,,gray,line
4.0,1,5.0,5.0,700.963973999,5.0,part_2,stop,550.0,750.0,3.0,,,,,,,,,cyan,square
1.0,1,6.0,6.0,800.943851471,5.0,part_2,go,550.0,750.0,1.0,,,,,,,,,green,hexagon
2.0,0,6.0,6.0,701.1020183559999,5.0,part_2,go,550.0,750.0,1.0,,,,,,,,,orange,cross
4.0,1,5.0,,,5.0,,stop,500.0,750.0,4.0,,,,,,,,,cyan,square
4.0,1,5.0,5.0,400.552988052,6.0,part_2,stop,550.0,750.0,3.0,,,,,,,,,cyan,square
2.0,1,6.0,6.0,651.56006813,6.0,part_2,go,550.0,750.0,1.0,,,,,,,,,blue,circle
4.0,1,5.0,5.0,585.037946701,6.0,part_2,stop,500.0,750.0,3.0,,,,,,,,,cyan,square
2.0,0,6.0,6.0,768.074989319,6.0,part_2,go,500.0,750.0,1.0,,,,,,,,,orange,cross
2.0,0,6.0,6.0,751.003026962,6.0,part_2,go,500.0,750.0,1.0,,,,,,,,,orange,cross
1.0,0,5.0,5.0,734.460115433,6.0,part_2,go,500.0,750.0,1.0,,,,,,,,,white,triangle
1.0,1,6.0,6.0,701.514959335,6.0,part_2,stop,500.0,700.0,3.0,,,,,,,,,green,hexagon
4.0,1,5.0,,,6.0,,stop,450.0,700.0,4.0,,,,,,,,,cyan,square
4.0,1,5.0,5.0,800.73595047,6.0,part_2,go,450.0,700.0,1.0,,,,,,,,,cyan,square
0.5,1,6.0,6.0,801.560163498,6.0,part_2,stop,450.0,650.0,3.0,,,,,,,,,magenta,diamond
2.0,0,5.0,,,6.0,,go,450.0,650.0,5.0,,,,,,,,,orange,cross
2.0,1,5.0,5.0,917.816877365,6.0,part_2,go,450.0,650.0,1.0,,,,,,,,,blue,circle
1.0,1,6.0,,,6.0,,stop,450.0,600.0,4.0,,,,,,,,,green,hexagon
0.5,1,5.0,,,6.0,,go,450.0,600.0,5.0,,,,,,,,,magenta,diamond
2.0,0,6.0,6.0,851.572036743,6.0,part_2,go,450.0,600.0,1.0,,,,,,,,,orange,cross
2.0,1,6.0,6.0,768.002033234,6.0,part_2,stop,450.0,650.0,3.0,,,,,,,,,blue,circle
4.0,0,5.0,5.0,700.986862183,6.0,part_2,go,450.0,650.0,1.0,,,,,,,,,gray,line
0.5,1,5.0,,,6.0,,stop,500.0,650.0,4.0,,,,,,,,,magenta,diamond
4.0,1,5.0,,,6.0,,stop,550.0,650.0,4.0,,,,,,,,,cyan,square
1.0,1,5.0,5.0,717.773199081,6.0,part_2,stop,600.0,650.0,3.0,,,,,,,,,green,hexagon
1.0,1,6.0,,,6.0,,stop,600.0,600.0,4.0,,,,,,,,,green,hexagon
1.0,1,5.0,,,6.0,,stop,550.0,600.0,4.0,,,,,,,,,green,hexagon
1.0,1,6.0,,,6.0,,stop,550.0,650.0,4.0,,,,,,,,,green,hexagon
2.0,0,6.0,,,6.0,,go,550.0,650.0,5.0,,,,,,,,,orange,cross
0.5,1,5.0,5.0,717.909812927,6.0,part_2,stop,600.0,650.0,3.0,,,,,,,,,magenta,diamond
0.5,0,5.0,5.0,851.115942001,6.0,part_2,go,600.0,650.0,1.0,,,,,,,,,yellow,flipped triangle
0.5,1,5.0,,,6.0,,stop,550.0,650.0,4.0,,,,,,,,,magenta,diamond
4.0,0,6.0,6.0,801.030874252,6.0,part_2,go,550.0,650.0,1.0,,,,,,,,,gray,line
1.0,0,6.0,6.0,784.9230766300001,6.0,part_2,go,550.0,650.0,1.0,,,,,,,,,white,triangle
0.5,0,6.0,6.0,767.66705513,6.0,part_2,go,550.0,650.0,1.0,,,,,,,,,yellow,flipped triangle
2.0,0,5.0,5.0,768.1870460509999,6.0,part_2,go,550.0,650.0,1.0,,,,,,,,,orange,cross
0.5,1,6.0,6.0,801.124095917,6.0,part_2,stop,550.0,700.0,3.0,,,,,,,,,magenta,diamond
1.0,0,6.0,,,6.0,,go,550.0,700.0,5.0,,,,,,,,,white,triangle
4.0,1,6.0,6.0,667.4320697779999,6.0,part_2,stop,550.0,650.0,3.0,,,,,,,,,cyan,square
2.0,0,6.0,6.0,918.167829514,6.0,part_2,go,550.0,650.0,1.0,,,,,,,,,orange,cross
1.0,0,5.0,5.0,968.133926392,6.0,part_2,go,550.0,650.0,1.0,,,,,,,,,white,triangle
0.5,1,5.0,5.0,767.358064651,7.0,part_2,stop,600.0,650.0,3.0,,,,,,,,,magenta,diamond
0.5,0,6.0,6.0,851.202964783,7.0,part_2,go,600.0,650.0,1.0,,,,,,,,,yellow,flipped triangle
2.0,1,5.0,,,7.0,,stop,550.0,650.0,4.0,,,,,,,,,blue,circle
4.0,0,5.0,5.0,801.5079498289999,7.0,part_2,go,550.0,650.0,1.0,,,,,,,,,gray,line
2.0,1,5.0,,,7.0,,stop,600.0,650.0,4.0,,,,,,,,,blue,circle
1.0,1,5.0,5.0,935.173988342,7.0,part_2,go,600.0,650.0,1.0,,,,,,,,,green,hexagon
0.5,0,6.0,6.0,901.2379646300001,7.0,part_2,go,600.0,650.0,1.0,,,,,,,,,yellow,flipped triangle
0.5,1,6.0,6.0,867.840051651,7.0,part_2,go,600.0,650.0,1.0,,,,,,,,,magenta,diamond
2.0,1,6.0,6.0,851.613998413,7.0,part_2,go,600.0,650.0,1.0,,,,,,,,,blue,circle
1.0,0,5.0,5.0,801.2239933010001,7.0,part_2,go,600.0,650.0,1.0,,,,,,,,,white,triangle
1.0,1,5.0,5.0,701.256990433,7.0,part_2,stop,650.0,650.0,3.0,,,,,,,,,green,hexagon
2.0,1,5.0,,,7.0,,stop,600.0,650.0,4.0,,,,,,,,,blue,circle
0.5,1,6.0,,,7.0,,stop,600.0,600.0,4.0,,,,,,,,,magenta,diamond
2.0,0,6.0,6.0,901.507139206,7.0,part_2,go,600.0,600.0,1.0,,,,,,,,,orange,cross
1.0,0,6.0,,,7.0,,go,600.0,600.0,5.0,,,,,,,,,white,triangle
2.0,0,5.0,5.0,851.004123688,7.0,part_2,go,600.0,600.0,1.0,,,,,,,,,orange,cross
1.0,0,6.0,6.0,934.689998627,7.0,part_2,go,600.0,600.0,1.0,,,,,,,,,white,triangle
0.5,0,6.0,6.0,968.565940857,7.0,part_2,go,600.0,600.0,1.0,,,,,,,,,yellow,flipped triangle
4.0,1,6.0,,,7.0,,stop,600.0,650.0,4.0,,,,,,,,,cyan,square
0.5,0,6.0,,,7.0,,go,600.0,650.0,5.0,,,,,,,,,yellow,flipped triangle
4.0,1,6.0,,,7.0,,stop,600.0,700.0,4.0,,,,,,,,,cyan,square
0.5,0,5.0,,,7.0,,go,600.0,700.0,5.0,,,,,,,,,yellow,flipped triangle
2.0,0,6.0,6.0,734.591007233,7.0,part_2,go,600.0,700.0,1.0,,,,,,,,,orange,cross
4.0,1,5.0,5.0,834.923028946,7.0,part_2,stop,650.0,700.0,3.0,,,,,,,,,cyan,square
0.5,1,6.0,,,7.0,,stop,650.0,750.0,4.0,,,,,,,,,magenta,diamond
1.0,1,5.0,,,7.0,,stop,600.0,750.0,4.0,,,,,,,,,green,hexagon
0.5,0,5.0,5.0,901.075839996,7.0,part_2,go,600.0,750.0,1.0,,,,,,,,,yellow,flipped triangle
4.0,0,6.0,6.0,850.9171009060001,7.0,part_2,go,600.0,750.0,1.0,,,,,,,,,gray,line
2.0,1,5.0,5.0,818.701028824,7.0,part_2,stop,650.0,750.0,3.0,,,,,,,,,blue,circle
4.0,0,6.0,,,7.0,,go,650.0,750.0,5.0,,,,,,,,,gray,line
4.0,0,5.0,5.0,935.1191520689999,7.0,part_2,go,650.0,750.0,1.0,,,,,,,,,gray,line
0.5,1,5.0,,,7.0,,stop,600.0,750.0,4.0,,,,,,,,,magenta,diamond
4.0,1,5.0,,,7.0,,stop,650.0,750.0,4.0,,,,,,,,,cyan,square
4.0,1,5.0,,,7.0,,stop,700.0,750.0,4.0,,,,,,,,,cyan,square
2.0,0,6.0,6.0,818.35603714,7.0,part_2,go,700.0,750.0,1.0,,,,,,,,,orange,cross
0.5,0,6.0,6.0,935.039997101,7.0,part_2,go,700.0,750.0,1.0,,,,,,,,,yellow,flipped triangle
0.5,1,6.0,6.0,284.361839294,8.0,part_2,go,700.0,750.0,1.0,,,,,,,,,magenta,diamond
1.0,0,6.0,6.0,317.714929581,8.0,part_2,go,700.0,750.0,1.0,,,,,,,,,white,triangle
1.0,0,6.0,6.0,283.803224564,8.0,part_2,go,700.0,750.0,1.0,,,,,,,,,white,triangle
2.0,1,5.0,5.0,317.26217269899996,8.0,part_2,stop,750.0,750.0,3.0,,,,,,,,,blue,circle
4.0,0,5.0,5.0,383.844137192,8.0,part_2,go,750.0,750.0,1.0,,,,,,,,,gray,line
1.0,1,5.0,5.0,350.620985031,8.0,part_2,stop,700.0,750.0,3.0,,,,,,,,,green,hexagon
2.0,1,6.0,6.0,568.003892899,8.0,part_2,stop,700.0,750.0,3.0,,,,,,,,,blue,circle
0.5,1,5.0,5.0,767.8418159480001,8.0,part_2,go,700.0,750.0,1.0,,,,,,,,,magenta,diamond
2.0,1,6.0,6.0,317.528009415,8.0,part_2,go,700.0,750.0,1.0,,,,,,,,,blue,circle
0.5,0,6.0,6.0,300.862789154,8.0,part_2,go,700.0,750.0,1.0,,,,,,,,,yellow,flipped triangle
0.5,0,5.0,5.0,300.495147705,8.0,part_2,go,700.0,750.0,1.0,,,,,,,,,yellow,flipped triangle
1.0,0,6.0,6.0,250.298976898,8.0,part_2,go,700.0,750.0,1.0,,,,,,,,,white,triangle
2.0,1,5.0,5.0,300.446987152,8.0,part_2,stop,650.0,750.0,3.0,,,,,,,,,blue,circle
4.0,0,6.0,6.0,300.79913139300004,8.0,part_2,go,650.0,750.0,1.0,,,,,,,,,gray,line
1.0,1,6.0,6.0,316.91503524800004,8.0,part_2,stop,650.0,700.0,3.0,,,,,,,,,green,hexagon
0.5,0,6.0,6.0,334.261894226,8.0,part_2,go,650.0,700.0,1.0,,,,,,,,,yellow,flipped triangle
2.0,1,6.0,5.0,250.77009201,8.0,part_2,stop,650.0,650.0,3.0,,,,,,,,,blue,circle
0.5,0,6.0,6.0,283.977985382,8.0,part_2,go,650.0,650.0,1.0,,,,,,,,,yellow,flipped triangle
1.0,0,5.0,5.0,267.385005951,8.0,part_2,go,650.0,650.0,1.0,,,,,,,,,white,triangle
0.5,0,6.0,6.0,233.858108521,8.0,part_2,go,650.0,650.0,1.0,,,,,,,,,yellow,flipped triangle
1.0,1,5.0,5.0,300.897121429,8.0,part_2,go,650.0,650.0,1.0,,,,,,,,,green,hexagon
2.0,1,5.0,5.0,334.295988083,8.0,part_2,stop,600.0,650.0,3.0,,,,,,,,,blue,circle
4.0,1,6.0,6.0,233.55388641399998,8.0,part_2,go,600.0,650.0,1.0,,,,,,,,,cyan,square
1.0,0,6.0,5.0,283.78200531,8.0,part_2,go,600.0,650.0,2.0,,,,,,,,,white,triangle
1.0,0,5.0,5.0,333.895921707,8.0,part_2,go,600.0,650.0,1.0,,,,,,,,,white,triangle
0.5,0,6.0,6.0,267.474889755,8.0,part_2,go,600.0,650.0,1.0,,,,,,,,,yellow,flipped triangle
1.0,0,5.0,5.0,317.610025406,8.0,part_2,go,600.0,650.0,1.0,,,,,,,,,white,triangle
1.0,0,5.0,5.0,317.46220588700004,8.0,part_2,go,600.0,650.0,1.0,,,,,,,,,white,triangle
0.5,1,5.0,5.0,350.82077979999997,8.0,part_2,stop,550.0,650.0,3.0,,,,,,,,,magenta,diamond
1.0,1,5.0,5.0,667.685985565,8.0,part_2,stop,500.0,650.0,3.0,,,,,,,,,green,hexagon
0.5,0,5.0,5.0,684.516906738,8.0,part_2,go,500.0,650.0,1.0,,,,,,,,,yellow,flipped triangle
2.0,0,6.0,6.0,534.440994263,8.0,part_2,go,500.0,650.0,1.0,,,,,,,,,orange,cross
1.0,0,5.0,5.0,567.905902863,8.0,part_2,go,500.0,650.0,1.0,,,,,,,,,white,triangle
2.0,1,5.0,5.0,500.881195068,8.0,part_2,stop,450.0,650.0,3.0,,,,,,,,,blue,circle
0.5,1,5.0,,,8.0,,stop,400.0,650.0,4.0,,,,,,,,,magenta,diamond
4.0,0,6.0,6.0,817.714929581,8.0,part_2,go,400.0,650.0,1.0,,,,,,,,,gray,line
2.0,1,7.0,,,1.0,,stop,,,,0.0,,136.0,68.0,204.0,102.0,170.0,34.0,blue,circle
4.0,0,7.0,4.0,2235.93616486,1.0,part_3,go,,,,176.0,4.0,264.0,88.0,132.0,176.0,220.0,44.0,gray,line
1.0,0,7.0,6.0,2235.81004143,1.0,part_3,go,,,,170.0,5.0,102.0,34.0,136.0,204.0,68.0,170.0,white,triangle
1.0,0,7.0,5.0,2202.89111137,1.0,part_3,go,,,,176.0,4.0,220.0,132.0,88.0,44.0,176.0,264.0,white,triangle
4.0,1,7.0,3.0,1835.9489440900002,1.0,part_3,stop,,,,39.0,1.0,156.0,195.0,39.0,117.0,234.0,78.0,cyan,square
2.0,1,7.0,4.0,2469.2759513899996,1.0,part_3,stop,,,,88.0,2.0,264.0,132.0,176.0,88.0,44.0,220.0,blue,circle
1.0,1,7.0,1.0,2269.16193962,1.0,part_3,stop,,,,264.0,6.0,264.0,176.0,88.0,132.0,44.0,220.0,green,hexagon
4.0,0,7.0,6.0,1385.1051330599998,1.0,part_3,go,,,,216.0,4.0,162.0,270.0,324.0,54.0,108.0,216.0,gray,line
2.0,0,7.0,2.0,1418.227911,1.0,part_3,go,,,,117.0,3.0,39.0,117.0,156.0,78.0,234.0,195.0,orange,cross
1.0,0,7.0,5.0,1451.29990578,1.0,part_3,go,,,,98.0,2.0,196.0,294.0,245.0,49.0,98.0,147.0,white,triangle
2.0,1,7.0,2.0,1285.49814224,1.0,part_3,stop,,,,54.0,1.0,162.0,54.0,324.0,108.0,270.0,216.0,blue,circle
0.5,0,7.0,6.0,1234.77196693,1.0,part_3,go,,,,102.0,3.0,34.0,136.0,170.0,204.0,68.0,102.0,yellow,flipped triangle
0.5,0,7.0,1.0,1451.93314552,1.0,part_3,go,,,,98.0,2.0,98.0,49.0,147.0,294.0,245.0,196.0,yellow,flipped triangle
0.5,1,7.0,4.0,1534.93285179,1.0,part_3,stop,,,,132.0,3.0,88.0,44.0,264.0,132.0,220.0,176.0,magenta,diamond
4.0,1,7.0,3.0,1100.80504417,1.0,part_3,stop,,,,170.0,5.0,102.0,204.0,170.0,136.0,34.0,68.0,cyan,square
0.5,1,7.0,2.0,1167.65785217,1.0,part_3,stop,,,,102.0,3.0,34.0,102.0,68.0,136.0,204.0,170.0,magenta,diamond
4.0,1,7.0,6.0,1267.5769329099999,1.0,part_3,stop,,,,176.0,4.0,44.0,88.0,220.0,264.0,132.0,176.0,cyan,square
0.5,0,7.0,3.0,1852.16617584,1.0,part_3,go,,,,216.0,4.0,108.0,324.0,216.0,270.0,54.0,162.0,yellow,flipped triangle
2.0,0,7.0,3.0,1918.95294189,1.0,part_3,go,,,,162.0,3.0,324.0,216.0,162.0,108.0,270.0,54.0,orange,cross
4.0,1,7.0,2.0,1802.29091644,1.0,part_3,stop,,,,44.0,1.0,132.0,44.0,220.0,176.0,264.0,88.0,cyan,square
0.5,1,7.0,4.0,1468.14012527,2.0,part_3,stop,,,,196.0,4.0,98.0,294.0,49.0,196.0,147.0,245.0,magenta,diamond
2.0,0,7.0,1.0,1668.84183884,2.0,part_3,go,,,,147.0,3.0,147.0,294.0,49.0,196.0,245.0,98.0,orange,cross
2.0,0,7.0,6.0,3170.6631183599998,2.0,part_3,go,,,,136.0,4.0,68.0,204.0,170.0,102.0,34.0,136.0,orange,cross
1.0,0,7.0,6.0,2469.9919223800002,2.0,part_3,go,,,,196.0,4.0,49.0,147.0,98.0,245.0,294.0,196.0,white,triangle
1.0,1,7.0,2.0,1702.4040222200001,2.0,part_3,stop,,,,196.0,4.0,49.0,196.0,294.0,98.0,245.0,147.0,green,hexagon
4.0,0,7.0,5.0,2152.5530815099996,2.0,part_3,go,,,,234.0,6.0,117.0,195.0,78.0,156.0,234.0,39.0,gray,line
2.0,1,7.0,1.0,1952.48293877,2.0,part_3,stop,,,,147.0,3.0,147.0,49.0,245.0,294.0,98.0,196.0,blue,circle
0.5,0,7.0,6.0,1669.2211628,2.0,part_3,go,,,,132.0,3.0,88.0,264.0,44.0,176.0,220.0,132.0,yellow,flipped triangle
0.5,0,7.0,3.0,1435.05191803,2.0,part_3,go,,,,117.0,3.0,78.0,156.0,117.0,234.0,195.0,39.0,yellow,flipped triangle
0.5,0,7.0,5.0,1351.64999962,2.0,part_3,go,,,,88.0,2.0,176.0,44.0,132.0,264.0,88.0,220.0,yellow,flipped triangle
2.0,1,7.0,1.0,1601.72390938,2.0,part_3,stop,,,,216.0,4.0,216.0,324.0,54.0,270.0,108.0,162.0,blue,circle
0.5,0,7.0,5.0,1384.43589211,2.0,part_3,go,,,,196.0,4.0,98.0,49.0,147.0,245.0,196.0,294.0,yellow,flipped triangle
2.0,0,7.0,3.0,2185.49013138,2.0,part_3,go,,,,102.0,3.0,68.0,204.0,102.0,34.0,170.0,136.0,orange,cross
2.0,1,7.0,5.0,1251.8379688300001,2.0,part_3,stop,,,,132.0,3.0,264.0,220.0,88.0,44.0,132.0,176.0,blue,circle
4.0,0,7.0,4.0,1418.86997223,2.0,part_3,go,,,,68.0,2.0,102.0,170.0,34.0,68.0,204.0,136.0,gray,line
4.0,1,7.0,2.0,1501.67012215,2.0,part_3,stop,,,,156.0,4.0,234.0,156.0,39.0,78.0,117.0,195.0,cyan,square
1.0,1,7.0,5.0,1602.17308998,2.0,part_3,stop,,,,162.0,3.0,324.0,108.0,54.0,270.0,162.0,216.0,green,hexagon
1.0,0,7.0,6.0,1735.36920547,2.0,part_3,go,,,,216.0,4.0,270.0,324.0,54.0,108.0,162.0,216.0,white,triangle
1.0,0,7.0,2.0,1334.74111557,2.0,part_3,go,,,,156.0,4.0,195.0,156.0,234.0,39.0,117.0,78.0,white,triangle
1.0,1,7.0,3.0,1418.21694374,2.0,part_3,stop,,,,117.0,3.0,195.0,39.0,117.0,78.0,156.0,234.0,green,hexagon
4.0,1,7.0,5.0,3086.9829654699997,3.0,part_3,stop,,,,294.0,6.0,196.0,147.0,49.0,245.0,294.0,98.0,cyan,square
0.5,0,7.0,3.0,1267.49920845,3.0,part_3,go,,,,162.0,3.0,54.0,324.0,162.0,108.0,216.0,270.0,yellow,flipped triangle
4.0,1,7.0,5.0,1485.2669239,3.0,part_3,stop,,,,196.0,4.0,147.0,98.0,49.0,245.0,196.0,294.0,cyan,square
4.0,0,7.0,4.0,1835.7839584399999,3.0,part_3,go,,,,176.0,4.0,220.0,264.0,132.0,176.0,88.0,44.0,gray,line
4.0,1,7.0,3.0,1869.05407906,3.0,part_3,stop,,,,216.0,4.0,324.0,54.0,216.0,270.0,162.0,108.0,cyan,square
2.0,0,7.0,3.0,1851.8440723400001,3.0,part_3,go,,,,162.0,3.0,216.0,108.0,162.0,54.0,270.0,324.0,orange,cross
4.0,0,7.0,6.0,1585.07204056,3.0,part_3,go,,,,162.0,3.0,270.0,108.0,216.0,54.0,324.0,162.0,gray,line
1.0,1,7.0,2.0,1685.00900269,3.0,part_3,stop,,,,136.0,4.0,68.0,136.0,34.0,204.0,102.0,170.0,green,hexagon
1.0,1,7.0,5.0,1635.32495499,3.0,part_3,stop,,,,98.0,2.0,49.0,147.0,245.0,294.0,98.0,196.0,green,hexagon
2.0,0,7.0,4.0,1251.86395645,3.0,part_3,go,,,,176.0,4.0,88.0,132.0,220.0,176.0,264.0,44.0,orange,cross
4.0,0,7.0,2.0,1651.65805817,3.0,part_3,go,,,,196.0,4.0,98.0,196.0,147.0,245.0,49.0,294.0,gray,line
1.0,1,7.0,6.0,2569.52381134,3.0,part_3,stop,,,,68.0,2.0,136.0,170.0,204.0,34.0,102.0,68.0,green,hexagon
2.0,1,7.0,2.0,2335.8299732200003,3.0,part_3,stop,,,,68.0,2.0,136.0,68.0,170.0,204.0,34.0,102.0,blue,circle
4.0,1,7.0,4.0,1368.54815483,3.0,part_3,stop,,,,108.0,2.0,54.0,324.0,216.0,108.0,162.0,270.0,cyan,square
0.5,1,7.0,2.0,2119.34399605,3.0,part_3,stop,,,,245.0,5.0,147.0,245.0,98.0,196.0,49.0,294.0,magenta,diamond
2.0,1,7.0,6.0,1952.09097862,3.0,part_3,stop,,,,156.0,4.0,117.0,234.0,39.0,78.0,195.0,156.0,blue,circle
4.0,0,7.0,3.0,1801.77092552,3.0,part_3,go,,,,68.0,2.0,136.0,34.0,68.0,102.0,170.0,204.0,gray,line
1.0,1,7.0,1.0,2503.0479431199997,3.0,part_3,stop,,,,54.0,1.0,54.0,216.0,324.0,270.0,162.0,108.0,green,hexagon
0.5,1,7.0,2.0,2669.5959568,3.0,part_3,stop,,,,204.0,6.0,136.0,204.0,34.0,102.0,68.0,170.0,magenta,diamond
2.0,0,7.0,4.0,1118.17383766,3.0,part_3,go,,,,44.0,1.0,88.0,264.0,220.0,44.0,176.0,132.0,orange,cross
2.0,1,7.0,4.0,1301.89990997,4.0,part_3,stop,,,,117.0,3.0,234.0,195.0,156.0,117.0,39.0,78.0,blue,circle
4.0,0,7.0,5.0,2352.82206535,4.0,part_3,go,,,,98.0,2.0,147.0,294.0,49.0,196.0,98.0,245.0,gray,line
4.0,0,7.0,3.0,2186.04707718,4.0,part_3,go,,,,78.0,2.0,117.0,39.0,78.0,195.0,234.0,156.0,gray,line
4.0,1,7.0,4.0,1117.7701950100002,4.0,part_3,stop,,,,102.0,3.0,170.0,68.0,204.0,102.0,136.0,34.0,cyan,square
0.5,1,7.0,1.0,2302.73103714,4.0,part_3,stop,,,,264.0,6.0,264.0,220.0,88.0,132.0,176.0,44.0,magenta,diamond
0.5,1,7.0,3.0,1769.01102066,4.0,part_3,stop,,,,234.0,6.0,195.0,156.0,234.0,78.0,117.0,39.0,magenta,diamond
1.0,1,7.0,5.0,1634.79185104,4.0,part_3,stop,,,,176.0,4.0,132.0,264.0,220.0,44.0,176.0,88.0,green,hexagon
0.5,1,7.0,4.0,1518.56899261,4.0,part_3,stop,,,,195.0,5.0,39.0,117.0,234.0,195.0,156.0,78.0,magenta,diamond
1.0,0,7.0,3.0,2018.9571380600003,4.0,part_3,go,,,,117.0,3.0,39.0,156.0,117.0,78.0,195.0,234.0,white,triangle
2.0,1,7.0,2.0,2169.33202744,4.0,part_3,stop,,,,98.0,2.0,49.0,98.0,294.0,196.0,245.0,147.0,blue,circle
0.5,1,7.0,1.0,2302.18505859,4.0,part_3,stop,,,,216.0,4.0,216.0,270.0,108.0,54.0,324.0,162.0,magenta,diamond
2.0,0,7.0,5.0,2502.87008286,4.0,part_3,go,,,,156.0,4.0,39.0,234.0,117.0,195.0,156.0,78.0,orange,cross
0.5,0,7.0,3.0,2136.08717918,4.0,part_3,go,,,,136.0,4.0,102.0,68.0,136.0,170.0,204.0,34.0,yellow,flipped triangle
1.0,0,7.0,5.0,1401.54004097,4.0,part_3,go,,,,176.0,4.0,44.0,220.0,264.0,132.0,176.0,88.0,white,triangle
0.5,0,7.0,5.0,1167.81806946,4.0,part_3,go,,,,156.0,4.0,195.0,78.0,117.0,234.0,156.0,39.0,yellow,flipped triangle
2.0,0,7.0,5.0,1168.0688857999999,4.0,part_3,go,,,,98.0,2.0,49.0,294.0,147.0,245.0,98.0,196.0,orange,cross
0.5,1,7.0,4.0,1335.15810966,4.0,part_3,stop,,,,270.0,5.0,108.0,216.0,54.0,270.0,162.0,324.0,magenta,diamond
1.0,0,7.0,6.0,2319.2551136,4.0,part_3,go,,,,162.0,3.0,54.0,324.0,270.0,216.0,108.0,162.0,white,triangle
1.0,0,7.0,6.0,1368.54195595,4.0,part_3,go,,,,170.0,5.0,204.0,34.0,68.0,136.0,102.0,170.0,white,triangle
1.0,1,7.0,3.0,1551.48601532,4.0,part_3,stop,,,,195.0,5.0,156.0,39.0,195.0,78.0,117.0,234.0,green,hexagon
