raw_reward_magnitude,stim_reward,stepwise_reward_magnitude,paired_with_stopping,stim_location,response,reaction_time,block,which_phase,stop_signal_trial_type,left_SSD,right_SSD,accuracy,chosen_bidding_amount,chosen_bidding_level,possible_bid_1,possible_bid_2,possible_bid_3,possible_bid_4,possible_bid_5,possible_bid_6,color_text,shape_text
384.0,4.0,4.0,0,3.0,3.0,450.604915619,1.0,phase_1,,,,,,,,,,,,,white,cross
49.0,1.0,0.5,1,4.0,4.0,384.24992561299996,1.0,phase_1,,,,,,,,,,,,,gray,circle
100.0,2.0,1.0,0,2.0,2.0,351.164102554,1.0,phase_1,,,,,,,,,,,,,cyan,square
0.0,1.0,0.0,1,3.0,3.0,351.163864136,1.0,phase_1,,,,,,,,,,,,,gray,circle
68.0,5.0,0.5,0,2.0,2.0,384.135961533,1.0,phase_1,,,,,,,,,,,,,green,triangle
125.0,2.0,1.0,0,1.0,1.0,284.34395790099995,1.0,phase_1,,,,,,,,,,,,,cyan,square
398.0,8.0,4.0,1,2.0,2.0,317.126989365,1.0,phase_1,,,,,,,,,,,,,blue,diamond
0.0,5.0,0.0,0,4.0,4.0,367.486953735,1.0,phase_1,,,,,,,,,,,,,green,triangle
34.0,5.0,0.5,0,3.0,3.0,367.340803146,1.0,phase_1,,,,,,,,,,,,,green,triangle
34.0,1.0,0.5,1,1.0,1.0,333.899974823,1.0,phase_1,,,,,,,,,,,,,gray,circle
198.0,3.0,2.0,1,2.0,2.0,400.900125504,1.0,phase_1,,,,,,,,,,,,,yellow,line
178.0,7.0,2.0,0,2.0,2.0,367.649078369,1.0,phase_1,,,,,,,,,,,,,orange,flipped triangle
98.0,6.0,1.0,1,3.0,3.0,367.457866669,1.0,phase_1,,,,,,,,,,,,,magenta,hexagon
0.0,6.0,0.0,1,3.0,3.0,384.468078613,1.0,phase_1,,,,,,,,,,,,,magenta,hexagon
50.0,5.0,0.5,0,3.0,3.0,367.479085922,1.0,phase_1,,,,,,,,,,,,,green,triangle
91.0,2.0,1.0,0,4.0,4.0,333.972930908,1.0,phase_1,,,,,,,,,,,,,cyan,square
122.0,6.0,1.0,1,3.0,3.0,334.361076355,1.0,phase_1,,,,,,,,,,,,,magenta,hexagon
95.0,6.0,1.0,1,1.0,1.0,350.51202774,1.0,phase_1,,,,,,,,,,,,,magenta,hexagon
206.0,3.0,2.0,1,4.0,4.0,417.480945587,1.0,phase_1,,,,,,,,,,,,,yellow,line
92.0,2.0,1.0,0,1.0,1.0,334.082126617,1.0,phase_1,,,,,,,,,,,,,cyan,square
386.0,4.0,4.0,0,1.0,1.0,384.625196457,1.0,phase_1,,,,,,,,,,,,,white,cross
183.0,7.0,2.0,0,3.0,3.0,350.66485405,1.0,phase_1,,,,,,,,,,,,,orange,flipped triangle
117.0,6.0,1.0,1,3.0,3.0,350.263834,1.0,phase_1,,,,,,,,,,,,,magenta,hexagon
0.0,2.0,0.0,0,4.0,4.0,350.78907012900004,1.0,phase_1,,,,,,,,,,,,,cyan,square
0.0,4.0,0.0,0,4.0,4.0,384.232997894,1.0,phase_1,,,,,,,,,,,,,white,cross
0.0,2.0,0.0,0,4.0,4.0,367.494106293,1.0,phase_1,,,,,,,,,,,,,cyan,square
97.0,6.0,1.0,1,4.0,4.0,367.91777610800006,1.0,phase_1,,,,,,,,,,,,,magenta,hexagon
217.0,3.0,2.0,1,4.0,4.0,384.05799865700004,1.0,phase_1,,,,,,,,,,,,,yellow,line
105.0,2.0,1.0,0,4.0,4.0,400.815010071,1.0,phase_1,,,,,,,,,,,,,cyan,square
81.0,6.0,1.0,1,2.0,2.0,333.928108215,1.0,phase_1,,,,,,,,,,,,,magenta,hexagon
0.0,7.0,0.0,0,1.0,1.0,300.654888153,1.0,phase_1,,,,,,,,,,,,,orange,flipped triangle
224.0,3.0,2.0,1,4.0,4.0,334.176063538,1.0,phase_1,,,,,,,,,,,,,yellow,line
186.0,7.0,2.0,0,2.0,2.0,383.63599777200005,1.0,phase_1,,,,,,,,,,,,,orange,flipped triangle
75.0,2.0,1.0,0,3.0,3.0,367.703914642,1.0,phase_1,,,,,,,,,,,,,cyan,square
187.0,3.0,2.0,1,4.0,4.0,400.83694458,1.0,phase_1,,,,,,,,,,,,,yellow,line
415.0,4.0,4.0,0,3.0,3.0,384.272813797,1.0,phase_1,,,,,,,,,,,,,white,cross
394.0,8.0,4.0,1,2.0,2.0,334.347009659,1.0,phase_1,,,,,,,,,,,,,blue,diamond
402.0,4.0,4.0,0,2.0,2.0,400.86221694899996,1.0,phase_1,,,,,,,,,,,,,white,cross
105.0,6.0,1.0,1,4.0,4.0,384.66691970799997,1.0,phase_1,,,,,,,,,,,,,magenta,hexagon
408.0,8.0,4.0,1,4.0,4.0,350.79979896500004,1.0,phase_1,,,,,,,,,,,,,blue,diamond
394.0,8.0,4.0,1,2.0,2.0,333.97507667499997,1.0,phase_1,,,,,,,,,,,,,blue,diamond
0.0,1.0,0.0,1,1.0,1.0,367.453098297,1.0,phase_1,,,,,,,,,,,,,gray,circle
0.0,8.0,0.0,1,4.0,4.0,367.577791214,1.0,phase_1,,,,,,,,,,,,,blue,diamond
206.0,3.0,2.0,1,3.0,3.0,366.967916489,1.0,phase_1,,,,,,,,,,,,,yellow,line
177.0,7.0,2.0,0,4.0,4.0,367.765188217,1.0,phase_1,,,,,,,,,,,,,orange,flipped triangle
381.0,8.0,4.0,1,3.0,3.0,350.517988205,1.0,phase_1,,,,,,,,,,,,,blue,diamond
0.0,6.0,0.0,1,3.0,3.0,334.11097526599997,1.0,phase_1,,,,,,,,,,,,,magenta,hexagon
420.0,4.0,4.0,0,2.0,2.0,317.32106208799996,1.0,phase_1,,,,,,,,,,,,,white,cross
38.0,1.0,0.5,1,4.0,4.0,350.939035416,1.0,phase_1,,,,,,,,,,,,,gray,circle
114.0,6.0,1.0,1,3.0,3.0,333.378076553,1.0,phase_1,,,,,,,,,,,,,magenta,hexagon
213.0,3.0,2.0,1,3.0,3.0,367.458105087,1.0,phase_1,,,,,,,,,,,,,yellow,line
175.0,7.0,2.0,0,3.0,3.0,334.333896637,1.0,phase_1,,,,,,,,,,,,,orange,flipped triangle
96.0,6.0,1.0,1,4.0,4.0,350.815057755,1.0,phase_1,,,,,,,,,,,,,magenta,hexagon
196.0,7.0,2.0,0,2.0,2.0,334.175825119,1.0,phase_1,,,,,,,,,,,,,orange,flipped triangle
117.0,6.0,1.0,1,1.0,1.0,317.622184753,1.0,phase_1,,,,,,,,,,,,,magenta,hexagon
77.0,2.0,1.0,0,1.0,1.0,334.00106430100004,1.0,phase_1,,,,,,,,,,,,,cyan,square
0.0,7.0,0.0,0,4.0,4.0,550.937891006,1.0,phase_1,,,,,,,,,,,,,orange,flipped triangle
377.0,4.0,4.0,0,2.0,2.0,351.19795799300005,1.0,phase_1,,,,,,,,,,,,,white,cross
175.0,7.0,2.0,0,4.0,4.0,334.037065506,1.0,phase_1,,,,,,,,,,,,,orange,flipped triangle
73.0,1.0,0.5,1,1.0,1.0,351.128101349,1.0,phase_1,,,,,,,,,,,,,gray,circle
400.0,8.0,4.0,1,1.0,1.0,284.075021744,1.0,phase_1,,,,,,,,,,,,,blue,diamond
0.0,1.0,0.0,1,1.0,1.0,350.53801536599997,1.0,phase_1,,,,,,,,,,,,,gray,circle
0.0,6.0,0.0,1,1.0,1.0,283.895015717,1.0,phase_1,,,,,,,,,,,,,magenta,hexagon
202.0,7.0,2.0,0,1.0,1.0,284.41715240499997,1.0,phase_1,,,,,,,,,,,,,orange,flipped triangle
0.0,6.0,0.0,1,2.0,2.0,317.69514083900003,1.0,phase_1,,,,,,,,,,,,,magenta,hexagon
0.0,1.0,0.0,1,1.0,1.0,283.751010895,1.0,phase_1,,,,,,,,,,,,,gray,circle
63.0,5.0,0.5,0,4.0,4.0,434.199094772,1.0,phase_1,,,,,,,,,,,,,green,triangle
0.0,3.0,0.0,1,3.0,3.0,334.143161774,1.0,phase_1,,,,,,,,,,,,,yellow,line
402.0,4.0,4.0,0,3.0,3.0,367.434978485,1.0,phase_1,,,,,,,,,,,,,white,cross
0.0,6.0,0.0,1,2.0,2.0,334.83791351300005,1.0,phase_1,,,,,,,,,,,,,magenta,hexagon
183.0,3.0,2.0,1,3.0,3.0,384.80091095,1.0,phase_1,,,,,,,,,,,,,yellow,line
122.0,2.0,1.0,0,1.0,1.0,334.16700363200005,1.0,phase_1,,,,,,,,,,,,,cyan,square
417.0,8.0,4.0,1,2.0,2.0,284.54685211199995,1.0,phase_1,,,,,,,,,,,,,blue,diamond
108.0,6.0,1.0,1,2.0,2.0,333.899974823,1.0,phase_1,,,,,,,,,,,,,magenta,hexagon
0.0,5.0,0.0,0,3.0,3.0,384.750843048,1.0,phase_1,,,,,,,,,,,,,green,triangle
420.0,4.0,4.0,0,3.0,3.0,367.32316017200003,1.0,phase_1,,,,,,,,,,,,,white,cross
106.0,6.0,1.0,1,2.0,2.0,350.742101669,1.0,phase_1,,,,,,,,,,,,,magenta,hexagon
221.0,7.0,2.0,0,4.0,4.0,417.85502433799996,1.0,phase_1,,,,,,,,,,,,,orange,flipped triangle
97.0,2.0,1.0,0,2.0,2.0,333.895921707,1.0,phase_1,,,,,,,,,,,,,cyan,square
0.0,1.0,0.0,1,1.0,1.0,417.781114578,1.0,phase_1,,,,,,,,,,,,,gray,circle
119.0,6.0,1.0,1,2.0,2.0,333.984851837,1.0,phase_1,,,,,,,,,,,,,magenta,hexagon
94.0,2.0,1.0,0,1.0,1.0,350.963830948,1.0,phase_1,,,,,,,,,,,,,cyan,square
59.0,1.0,0.5,1,3.0,3.0,350.891113281,1.0,phase_1,,,,,,,,,,,,,gray,circle
211.0,7.0,2.0,0,1.0,1.0,350.5859375,1.0,phase_1,,,,,,,,,,,,,orange,flipped triangle
398.0,4.0,4.0,0,1.0,1.0,350.87800025900003,1.0,phase_1,,,,,,,,,,,,,white,cross
63.0,5.0,0.5,0,2.0,2.0,350.326061249,1.0,phase_1,,,,,,,,,,,,,green,triangle
104.0,6.0,1.0,1,1.0,1.0,367.774963379,1.0,phase_1,,,,,,,,,,,,,magenta,hexagon
0.0,2.0,0.0,0,4.0,4.0,384.058952332,1.0,phase_1,,,,,,,,,,,,,cyan,square
121.0,2.0,1.0,0,2.0,2.0,317.653894424,1.0,phase_1,,,,,,,,,,,,,cyan,square
405.0,4.0,4.0,0,3.0,3.0,401.51405334500004,1.0,phase_1,,,,,,,,,,,,,white,cross
65.0,1.0,0.5,1,1.0,1.0,367.058992386,1.0,phase_1,,,,,,,,,,,,,gray,circle
68.0,5.0,0.5,0,1.0,1.0,384.11593437199997,1.0,phase_1,,,,,,,,,,,,,green,triangle
192.0,3.0,2.0,1,3.0,3.0,401.134967804,1.0,phase_1,,,,,,,,,,,,,yellow,line
409.0,8.0,4.0,1,2.0,2.0,351.068019867,1.0,phase_1,,,,,,,,,,,,,blue,diamond
101.0,2.0,1.0,0,4.0,4.0,367.52510070799997,1.0,phase_1,,,,,,,,,,,,,cyan,square
193.0,3.0,2.0,1,4.0,4.0,351.159095764,1.0,phase_1,,,,,,,,,,,,,yellow,line
111.0,2.0,1.0,0,2.0,2.0,333.847999573,1.0,phase_1,,,,,,,,,,,,,cyan,square
382.0,8.0,4.0,1,1.0,1.0,333.57596397400005,1.0,phase_1,,,,,,,,,,,,,blue,diamond
391.0,8.0,4.0,1,2.0,2.0,333.99796485900004,1.0,phase_1,,,,,,,,,,,,,blue,diamond
70.0,5.0,0.5,0,1.0,1.0,383.917808533,1.0,phase_1,,,,,,,,,,,,,green,triangle
409.0,8.0,4.0,1,2.0,2.0,350.821971893,2.0,phase_1,,,,,,,,,,,,,blue,diamond
0.0,2.0,0.0,0,2.0,2.0,334.268808365,2.0,phase_1,,,,,,,,,,,,,cyan,square
210.0,7.0,2.0,0,2.0,2.0,334.17797088599997,2.0,phase_1,,,,,,,,,,,,,orange,flipped triangle
93.0,2.0,1.0,0,1.0,1.0,317.655801773,2.0,phase_1,,,,,,,,,,,,,cyan,square
0.0,5.0,0.0,0,2.0,2.0,317.142009735,2.0,phase_1,,,,,,,,,,,,,green,triangle
216.0,3.0,2.0,1,1.0,1.0,367.624998093,2.0,phase_1,,,,,,,,,,,,,yellow,line
105.0,2.0,1.0,0,1.0,1.0,351.12380981399997,2.0,phase_1,,,,,,,,,,,,,cyan,square
76.0,6.0,1.0,1,4.0,4.0,400.94494819600004,2.0,phase_1,,,,,,,,,,,,,magenta,hexagon
0.0,4.0,0.0,0,4.0,4.0,417.927980423,2.0,phase_1,,,,,,,,,,,,,white,cross
224.0,7.0,2.0,0,1.0,1.0,351.087093353,2.0,phase_1,,,,,,,,,,,,,orange,flipped triangle
404.0,4.0,4.0,0,1.0,1.0,350.694894791,2.0,phase_1,,,,,,,,,,,,,white,cross
0.0,1.0,0.0,1,1.0,1.0,367.628097534,2.0,phase_1,,,,,,,,,,,,,gray,circle
110.0,2.0,1.0,0,3.0,3.0,400.856971741,2.0,phase_1,,,,,,,,,,,,,cyan,square
0.0,2.0,0.0,0,4.0,4.0,401.245832443,2.0,phase_1,,,,,,,,,,,,,cyan,square
381.0,4.0,4.0,0,3.0,3.0,351.058006287,2.0,phase_1,,,,,,,,,,,,,white,cross
0.0,5.0,0.0,0,1.0,1.0,451.153039932,2.0,phase_1,,,,,,,,,,,,,green,triangle
123.0,2.0,1.0,0,4.0,4.0,334.20109748799996,2.0,phase_1,,,,,,,,,,,,,cyan,square
72.0,1.0,0.5,1,2.0,2.0,334.592103958,2.0,phase_1,,,,,,,,,,,,,gray,circle
0.0,1.0,0.0,1,1.0,1.0,317.911148071,2.0,phase_1,,,,,,,,,,,,,gray,circle
410.0,8.0,4.0,1,2.0,2.0,367.52891540499996,2.0,phase_1,,,,,,,,,,,,,blue,diamond
411.0,4.0,4.0,0,1.0,1.0,317.479848862,2.0,phase_1,,,,,,,,,,,,,white,cross
0.0,5.0,0.0,0,3.0,3.0,284.417867661,2.0,phase_1,,,,,,,,,,,,,green,triangle
95.0,6.0,1.0,1,1.0,1.0,334.506988525,2.0,phase_1,,,,,,,,,,,,,magenta,hexagon
0.0,8.0,0.0,1,1.0,1.0,350.18801689099996,2.0,phase_1,,,,,,,,,,,,,blue,diamond
0.0,3.0,0.0,1,1.0,1.0,317.653894424,2.0,phase_1,,,,,,,,,,,,,yellow,line
66.0,1.0,0.5,1,2.0,2.0,300.813913345,2.0,phase_1,,,,,,,,,,,,,gray,circle
0.0,2.0,0.0,0,3.0,3.0,317.90995597799997,2.0,phase_1,,,,,,,,,,,,,cyan,square
207.0,3.0,2.0,1,2.0,2.0,317.753076553,2.0,phase_1,,,,,,,,,,,,,yellow,line
0.0,1.0,0.0,1,4.0,4.0,350.540876389,2.0,phase_1,,,,,,,,,,,,,gray,circle
46.0,5.0,0.5,0,2.0,2.0,333.909988403,2.0,phase_1,,,,,,,,,,,,,green,triangle
415.0,8.0,4.0,1,3.0,3.0,350.223064423,2.0,phase_1,,,,,,,,,,,,,blue,diamond
59.0,1.0,0.5,1,3.0,3.0,367.527008057,2.0,phase_1,,,,,,,,,,,,,gray,circle
213.0,7.0,2.0,0,2.0,2.0,384.155035019,2.0,phase_1,,,,,,,,,,,,,orange,flipped triangle
118.0,2.0,1.0,0,2.0,2.0,351.436853409,2.0,phase_1,,,,,,,,,,,,,cyan,square
0.0,7.0,0.0,0,2.0,2.0,366.945981979,2.0,phase_1,,,,,,,,,,,,,orange,flipped triangle
215.0,3.0,2.0,1,3.0,3.0,400.50697326700003,2.0,phase_1,,,,,,,,,,,,,yellow,line
79.0,2.0,1.0,0,2.0,2.0,334.233999252,2.0,phase_1,,,,,,,,,,,,,cyan,square
0.0,7.0,0.0,0,1.0,1.0,367.181062698,2.0,phase_1,,,,,,,,,,,,,orange,flipped triangle
0.0,1.0,0.0,1,4.0,4.0,417.255878448,2.0,phase_1,,,,,,,,,,,,,gray,circle
31.0,5.0,0.5,0,4.0,4.0,400.87914466899997,2.0,phase_1,,,,,,,,,,,,,green,triangle
99.0,6.0,1.0,1,1.0,1.0,350.814819336,2.0,phase_1,,,,,,,,,,,,,magenta,hexagon
72.0,1.0,0.5,1,2.0,2.0,367.557048798,2.0,phase_1,,,,,,,,,,,,,gray,circle
115.0,2.0,1.0,0,1.0,1.0,301.254034042,2.0,phase_1,,,,,,,,,,,,,cyan,square
74.0,5.0,0.5,0,3.0,3.0,384.048938751,2.0,phase_1,,,,,,,,,,,,,green,triangle
121.0,2.0,1.0,0,3.0,3.0,351.337909698,2.0,phase_1,,,,,,,,,,,,,cyan,square
0.0,2.0,0.0,0,3.0,3.0,417.12212562599996,2.0,phase_1,,,,,,,,,,,,,cyan,square
50.0,5.0,0.5,0,2.0,2.0,351.174116135,2.0,phase_1,,,,,,,,,,,,,green,triangle
207.0,7.0,2.0,0,4.0,4.0,384.22679901099997,2.0,phase_1,,,,,,,,,,,,,orange,flipped triangle
49.0,5.0,0.5,0,1.0,1.0,367.530107498,2.0,phase_1,,,,,,,,,,,,,green,triangle
0.0,2.0,0.0,0,4.0,4.0,384.26399231000005,2.0,phase_1,,,,,,,,,,,,,cyan,square
209.0,7.0,2.0,0,3.0,3.0,350.89802742,2.0,phase_1,,,,,,,,,,,,,orange,flipped triangle
0.0,6.0,0.0,1,2.0,2.0,368.170022964,2.0,phase_1,,,,,,,,,,,,,magenta,hexagon
42.0,1.0,0.5,1,3.0,3.0,400.39992332500003,2.0,phase_1,,,,,,,,,,,,,gray,circle
0.0,2.0,0.0,0,3.0,3.0,350.882053375,2.0,phase_1,,,,,,,,,,,,,cyan,square
52.0,1.0,0.5,1,4.0,4.0,401.05700492899996,2.0,phase_1,,,,,,,,,,,,,gray,circle
224.0,7.0,2.0,0,3.0,3.0,417.526960373,2.0,phase_1,,,,,,,,,,,,,orange,flipped triangle
216.0,7.0,2.0,0,2.0,2.0,450.68597793600003,2.0,phase_1,,,,,,,,,,,,,orange,flipped triangle
199.0,3.0,2.0,1,2.0,2.0,333.492994308,2.0,phase_1,,,,,,,,,,,,,yellow,line
78.0,6.0,1.0,1,2.0,2.0,350.882053375,2.0,phase_1,,,,,,,,,,,,,magenta,hexagon
203.0,7.0,2.0,0,1.0,1.0,350.753068924,2.0,phase_1,,,,,,,,,,,,,orange,flipped triangle
378.0,4.0,4.0,0,3.0,3.0,317.85106658899997,2.0,phase_1,,,,,,,,,,,,,white,cross
52.0,1.0,0.5,1,1.0,1.0,367.996931076,2.0,phase_1,,,,,,,,,,,,,gray,circle
214.0,3.0,2.0,1,1.0,1.0,350.40998458900003,2.0,phase_1,,,,,,,,,,,,,yellow,line
61.0,1.0,0.5,1,3.0,3.0,351.225137711,2.0,phase_1,,,,,,,,,,,,,gray,circle
0.0,4.0,0.0,0,2.0,2.0,367.50698089599996,2.0,phase_1,,,,,,,,,,,,,white,cross
208.0,7.0,2.0,0,1.0,1.0,317.226171494,2.0,phase_1,,,,,,,,,,,,,orange,flipped triangle
25.0,5.0,0.5,0,3.0,3.0,417.69599914599996,2.0,phase_1,,,,,,,,,,,,,green,triangle
378.0,4.0,4.0,0,3.0,3.0,367.42496490499997,2.0,phase_1,,,,,,,,,,,,,white,cross
0.0,1.0,0.0,1,1.0,1.0,317.282915115,2.0,phase_1,,,,,,,,,,,,,gray,circle
192.0,7.0,2.0,0,1.0,1.0,367.690086365,2.0,phase_1,,,,,,,,,,,,,orange,flipped triangle
219.0,7.0,2.0,0,4.0,4.0,384.01985168500005,2.0,phase_1,,,,,,,,,,,,,orange,flipped triangle
109.0,6.0,1.0,1,3.0,3.0,384.155035019,2.0,phase_1,,,,,,,,,,,,,magenta,hexagon
25.0,1.0,0.5,1,3.0,3.0,350.962162018,2.0,phase_1,,,,,,,,,,,,,gray,circle
0.0,3.0,0.0,1,4.0,4.0,367.479085922,2.0,phase_1,,,,,,,,,,,,,yellow,line
109.0,6.0,1.0,1,4.0,4.0,334.20109748799996,2.0,phase_1,,,,,,,,,,,,,magenta,hexagon
0.0,6.0,0.0,1,4.0,4.0,333.978176117,2.0,phase_1,,,,,,,,,,,,,magenta,hexagon
0.0,2.0,0.0,0,3.0,3.0,334.17797088599997,2.0,phase_1,,,,,,,,,,,,,cyan,square
393.0,4.0,4.0,0,3.0,3.0,366.91904067999997,2.0,phase_1,,,,,,,,,,,,,white,cross
107.0,2.0,1.0,0,4.0,4.0,367.48790741,2.0,phase_1,,,,,,,,,,,,,cyan,square
209.0,3.0,2.0,1,2.0,2.0,401.324033737,2.0,phase_1,,,,,,,,,,,,,yellow,line
55.0,5.0,0.5,0,4.0,4.0,434.383869171,2.0,phase_1,,,,,,,,,,,,,green,triangle
65.0,5.0,0.5,0,1.0,1.0,367.836952209,2.0,phase_1,,,,,,,,,,,,,green,triangle
107.0,2.0,1.0,0,2.0,2.0,367.338895798,2.0,phase_1,,,,,,,,,,,,,cyan,square
0.0,8.0,0.0,1,4.0,4.0,350.813150406,2.0,phase_1,,,,,,,,,,,,,blue,diamond
385.0,8.0,4.0,1,3.0,3.0,367.151975632,2.0,phase_1,,,,,,,,,,,,,blue,diamond
98.0,6.0,1.0,1,4.0,4.0,333.974838257,2.0,phase_1,,,,,,,,,,,,,magenta,hexagon
391.0,4.0,4.0,0,4.0,4.0,350.870132446,2.0,phase_1,,,,,,,,,,,,,white,cross
0.0,4.0,0.0,0,4.0,4.0,367.59185791,2.0,phase_1,,,,,,,,,,,,,white,cross
408.0,4.0,4.0,0,2.0,2.0,384.361982346,2.0,phase_1,,,,,,,,,,,,,white,cross
411.0,8.0,4.0,1,4.0,4.0,367.722034454,2.0,phase_1,,,,,,,,,,,,,blue,diamond
184.0,3.0,2.0,1,2.0,2.0,384.178876877,2.0,phase_1,,,,,,,,,,,,,yellow,line
213.0,7.0,2.0,0,3.0,3.0,384.27710533100003,2.0,phase_1,,,,,,,,,,,,,orange,flipped triangle
0.0,5.0,0.0,0,3.0,3.0,351.042032242,2.0,phase_1,,,,,,,,,,,,,green,triangle
0.0,7.0,0.0,0,2.0,2.0,334.359884262,2.0,phase_1,,,,,,,,,,,,,orange,flipped triangle
113.0,6.0,1.0,1,1.0,1.0,355.83305358900003,2.0,phase_1,,,,,,,,,,,,,magenta,hexagon
195.0,7.0,2.0,0,4.0,4.0,400.79498291,2.0,phase_1,,,,,,,,,,,,,orange,flipped triangle
205.0,7.0,2.0,0,4.0,4.0,351.019859314,2.0,phase_1,,,,,,,,,,,,,orange,flipped triangle
43.0,5.0,0.5,0,4.0,4.0,350.76403617899996,2.0,phase_1,,,,,,,,,,,,,green,triangle
175.0,7.0,2.0,0,1.0,1.0,384.08780098,2.0,phase_1,,,,,,,,,,,,,orange,flipped triangle
32.0,1.0,0.5,1,4.0,4.0,417.59800910900003,2.0,phase_1,,,,,,,,,,,,,gray,circle
220.0,3.0,2.0,1,4.0,4.0,384.181976318,3.0,phase_1,,,,,,,,,,,,,yellow,line
0.0,5.0,0.0,0,4.0,4.0,350.76403617899996,3.0,phase_1,,,,,,,,,,,,,green,triangle
217.0,3.0,2.0,1,3.0,3.0,333.895921707,3.0,phase_1,,,,,,,,,,,,,yellow,line
0.0,3.0,0.0,1,3.0,3.0,384.729862213,3.0,phase_1,,,,,,,,,,,,,yellow,line
380.0,4.0,4.0,0,2.0,2.0,300.796031952,3.0,phase_1,,,,,,,,,,,,,white,cross
122.0,6.0,1.0,1,3.0,3.0,334.40423011800004,3.0,phase_1,,,,,,,,,,,,,magenta,hexagon
115.0,6.0,1.0,1,3.0,3.0,284.477949142,3.0,phase_1,,,,,,,,,,,,,magenta,hexagon
36.0,5.0,0.5,0,4.0,4.0,334.604978561,3.0,phase_1,,,,,,,,,,,,,green,triangle
195.0,7.0,2.0,0,3.0,3.0,351.121902466,3.0,phase_1,,,,,,,,,,,,,orange,flipped triangle
386.0,8.0,4.0,1,4.0,4.0,367.79594421400003,3.0,phase_1,,,,,,,,,,,,,blue,diamond
60.0,1.0,0.5,1,4.0,4.0,367.923021317,3.0,phase_1,,,,,,,,,,,,,gray,circle
396.0,8.0,4.0,1,1.0,1.0,367.520093918,3.0,phase_1,,,,,,,,,,,,,blue,diamond
409.0,4.0,4.0,0,2.0,2.0,350.776910782,3.0,phase_1,,,,,,,,,,,,,white,cross
412.0,8.0,4.0,1,3.0,3.0,367.666959763,3.0,phase_1,,,,,,,,,,,,,blue,diamond
47.0,5.0,0.5,0,1.0,1.0,367.7110672,3.0,phase_1,,,,,,,,,,,,,green,triangle
186.0,3.0,2.0,1,4.0,4.0,334.002971649,3.0,phase_1,,,,,,,,,,,,,yellow,line
45.0,5.0,0.5,0,2.0,2.0,300.748109818,3.0,phase_1,,,,,,,,,,,,,green,triangle
0.0,1.0,0.0,1,2.0,2.0,384.05704498299997,3.0,phase_1,,,,,,,,,,,,,gray,circle
395.0,4.0,4.0,0,2.0,2.0,350.694894791,3.0,phase_1,,,,,,,,,,,,,white,cross
197.0,7.0,2.0,0,4.0,4.0,417.391061783,3.0,phase_1,,,,,,,,,,,,,orange,flipped triangle
56.0,5.0,0.5,0,1.0,1.0,367.891073227,3.0,phase_1,,,,,,,,,,,,,green,triangle
381.0,4.0,4.0,0,3.0,3.0,384.263038635,3.0,phase_1,,,,,,,,,,,,,white,cross
94.0,6.0,1.0,1,4.0,4.0,334.403038025,3.0,phase_1,,,,,,,,,,,,,magenta,hexagon
0.0,3.0,0.0,1,4.0,4.0,367.72108077999997,3.0,phase_1,,,,,,,,,,,,,yellow,line
104.0,2.0,1.0,0,2.0,2.0,467.52905845600003,3.0,phase_1,,,,,,,,,,,,,cyan,square
79.0,6.0,1.0,1,2.0,2.0,316.870927811,3.0,phase_1,,,,,,,,,,,,,magenta,hexagon
0.0,5.0,0.0,0,4.0,4.0,350.747108459,3.0,phase_1,,,,,,,,,,,,,green,triangle
412.0,8.0,4.0,1,1.0,1.0,384.551048279,3.0,phase_1,,,,,,,,,,,,,blue,diamond
200.0,3.0,2.0,1,4.0,4.0,367.616891861,3.0,phase_1,,,,,,,,,,,,,yellow,line
35.0,1.0,0.5,1,2.0,2.0,484.838008881,3.0,phase_1,,,,,,,,,,,,,gray,circle
38.0,1.0,0.5,1,2.0,2.0,317.528963089,3.0,phase_1,,,,,,,,,,,,,gray,circle
212.0,7.0,2.0,0,2.0,2.0,267.23098754899996,3.0,phase_1,,,,,,,,,,,,,orange,flipped triangle
78.0,6.0,1.0,1,2.0,2.0,317.22092628499996,3.0,phase_1,,,,,,,,,,,,,magenta,hexagon
57.0,1.0,0.5,1,4.0,4.0,400.687932968,3.0,phase_1,,,,,,,,,,,,,gray,circle
182.0,7.0,2.0,0,2.0,2.0,284.07406806899996,3.0,phase_1,,,,,,,,,,,,,orange,flipped triangle
116.0,6.0,1.0,1,1.0,1.0,384.15622711199995,3.0,phase_1,,,,,,,,,,,,,magenta,hexagon
0.0,3.0,0.0,1,1.0,1.0,367.280006409,3.0,phase_1,,,,,,,,,,,,,yellow,line
186.0,7.0,2.0,0,2.0,2.0,317.322015762,3.0,phase_1,,,,,,,,,,,,,orange,flipped triangle
72.0,1.0,0.5,1,1.0,1.0,300.84991455100004,3.0,phase_1,,,,,,,,,,,,,gray,circle
0.0,7.0,0.0,0,2.0,2.0,301.289081573,3.0,phase_1,,,,,,,,,,,,,orange,flipped triangle
186.0,3.0,2.0,1,1.0,1.0,333.796977997,3.0,phase_1,,,,,,,,,,,,,yellow,line
0.0,8.0,0.0,1,1.0,1.0,300.676107407,3.0,phase_1,,,,,,,,,,,,,blue,diamond
0.0,3.0,0.0,1,4.0,4.0,417.45996475199996,3.0,phase_1,,,,,,,,,,,,,yellow,line
56.0,5.0,0.5,0,1.0,1.0,350.829124451,3.0,phase_1,,,,,,,,,,,,,green,triangle
388.0,4.0,4.0,0,2.0,2.0,318.181991577,3.0,phase_1,,,,,,,,,,,,,white,cross
0.0,7.0,0.0,0,3.0,3.0,451.27487182600004,3.0,phase_1,,,,,,,,,,,,,orange,flipped triangle
0.0,5.0,0.0,0,2.0,2.0,317.633152008,3.0,phase_1,,,,,,,,,,,,,green,triangle
213.0,7.0,2.0,0,1.0,1.0,300.99606514,3.0,phase_1,,,,,,,,,,,,,orange,flipped triangle
71.0,5.0,0.5,0,3.0,3.0,384.172916412,3.0,phase_1,,,,,,,,,,,,,green,triangle
181.0,3.0,2.0,1,3.0,3.0,350.970983505,3.0,phase_1,,,,,,,,,,,,,yellow,line
88.0,6.0,1.0,1,1.0,1.0,334.54418182399996,3.0,phase_1,,,,,,,,,,,,,magenta,hexagon
381.0,8.0,4.0,1,1.0,1.0,384.08613204999995,3.0,phase_1,,,,,,,,,,,,,blue,diamond
390.0,8.0,4.0,1,3.0,3.0,333.80198478700004,3.0,phase_1,,,,,,,,,,,,,blue,diamond
68.0,5.0,0.5,0,3.0,3.0,334.185123444,3.0,phase_1,,,,,,,,,,,,,green,triangle
0.0,2.0,0.0,0,1.0,1.0,367.289066315,3.0,phase_1,,,,,,,,,,,,,cyan,square
402.0,4.0,4.0,0,4.0,4.0,367.662906647,3.0,phase_1,,,,,,,,,,,,,white,cross
26.0,1.0,0.5,1,3.0,3.0,334.147930145,3.0,phase_1,,,,,,,,,,,,,gray,circle
59.0,5.0,0.5,0,1.0,1.0,334.33699607799997,3.0,phase_1,,,,,,,,,,,,,green,triangle
43.0,1.0,0.5,1,4.0,4.0,367.3350811,3.0,phase_1,,,,,,,,,,,,,gray,circle
422.0,4.0,4.0,0,2.0,2.0,484.422206879,3.0,phase_1,,,,,,,,,,,,,white,cross
0.0,7.0,0.0,0,2.0,2.0,384.279966354,3.0,phase_1,,,,,,,,,,,,,orange,flipped triangle
78.0,2.0,1.0,0,4.0,4.0,350.749015808,3.0,phase_1,,,,,,,,,,,,,cyan,square
380.0,8.0,4.0,1,4.0,4.0,351.05681419399997,3.0,phase_1,,,,,,,,,,,,,blue,diamond
93.0,6.0,1.0,1,4.0,4.0,367.354154587,3.0,phase_1,,,,,,,,,,,,,magenta,hexagon
423.0,4.0,4.0,0,1.0,1.0,351.175069809,3.0,phase_1,,,,,,,,,,,,,white,cross
105.0,2.0,1.0,0,2.0,2.0,317.486047745,3.0,phase_1,,,,,,,,,,,,,cyan,square
40.0,5.0,0.5,0,2.0,2.0,350.986003876,3.0,phase_1,,,,,,,,,,,,,green,triangle
48.0,1.0,0.5,1,1.0,1.0,466.958999634,3.0,phase_1,,,,,,,,,,,,,gray,circle
0.0,3.0,0.0,1,3.0,3.0,350.378036499,3.0,phase_1,,,,,,,,,,,,,yellow,line
120.0,6.0,1.0,1,1.0,1.0,333.75787735,3.0,phase_1,,,,,,,,,,,,,magenta,hexagon
212.0,3.0,2.0,1,4.0,4.0,400.70605278,3.0,phase_1,,,,,,,,,,,,,yellow,line
391.0,4.0,4.0,0,3.0,3.0,400.961875916,3.0,phase_1,,,,,,,,,,,,,white,cross
0.0,8.0,0.0,1,3.0,3.0,400.74801445,3.0,phase_1,,,,,,,,,,,,,blue,diamond
214.0,3.0,2.0,1,1.0,1.0,367.36011505100004,3.0,phase_1,,,,,,,,,,,,,yellow,line
0.0,8.0,0.0,1,2.0,2.0,317.469120026,3.0,phase_1,,,,,,,,,,,,,blue,diamond
413.0,4.0,4.0,0,3.0,3.0,367.34890937800003,3.0,phase_1,,,,,,,,,,,,,white,cross
179.0,3.0,2.0,1,3.0,3.0,517.910957336,3.0,phase_1,,,,,,,,,,,,,yellow,line
184.0,3.0,2.0,1,4.0,4.0,401.221036911,3.0,phase_1,,,,,,,,,,,,,yellow,line
104.0,2.0,1.0,0,1.0,1.0,384.04917716999995,3.0,phase_1,,,,,,,,,,,,,cyan,square
0.0,5.0,0.0,0,1.0,1.0,317.60692596399997,3.0,phase_1,,,,,,,,,,,,,green,triangle
111.0,2.0,1.0,0,3.0,3.0,350.260972977,3.0,phase_1,,,,,,,,,,,,,cyan,square
32.0,1.0,0.5,1,3.0,3.0,384.230136871,3.0,phase_1,,,,,,,,,,,,,gray,circle
33.0,1.0,0.5,1,3.0,3.0,351.06492042499997,3.0,phase_1,,,,,,,,,,,,,gray,circle
0.0,4.0,0.0,0,4.0,4.0,350.599050522,3.0,phase_1,,,,,,,,,,,,,white,cross
215.0,3.0,2.0,1,3.0,3.0,350.870847702,3.0,phase_1,,,,,,,,,,,,,yellow,line
197.0,7.0,2.0,0,3.0,3.0,350.76189041099997,3.0,phase_1,,,,,,,,,,,,,orange,flipped triangle
0.0,7.0,0.0,0,2.0,2.0,384.181022644,3.0,phase_1,,,,,,,,,,,,,orange,flipped triangle
396.0,8.0,4.0,1,4.0,4.0,367.43998527499997,3.0,phase_1,,,,,,,,,,,,,blue,diamond
180.0,7.0,2.0,0,1.0,1.0,383.996009827,3.0,phase_1,,,,,,,,,,,,,orange,flipped triangle
223.0,3.0,2.0,1,4.0,4.0,367.649078369,3.0,phase_1,,,,,,,,,,,,,yellow,line
55.0,1.0,0.5,1,2.0,2.0,350.750923157,3.0,phase_1,,,,,,,,,,,,,gray,circle
100.0,2.0,1.0,0,1.0,1.0,350.71396827700005,3.0,phase_1,,,,,,,,,,,,,cyan,square
187.0,7.0,2.0,0,3.0,3.0,351.31692886400003,3.0,phase_1,,,,,,,,,,,,,orange,flipped triangle
222.0,3.0,2.0,1,1.0,1.0,350.518941879,3.0,phase_1,,,,,,,,,,,,,yellow,line
69.0,5.0,0.5,0,1.0,1.0,367.52080917399996,3.0,phase_1,,,,,,,,,,,,,green,triangle
402.0,4.0,4.0,0,2.0,2.0,384.11688804600004,3.0,phase_1,,,,,,,,,,,,,white,cross
88.0,2.0,1.0,0,3.0,3.0,367.4659729,3.0,phase_1,,,,,,,,,,,,,cyan,square
122.0,6.0,1.0,1,2.0,2.0,334.410190582,3.0,phase_1,,,,,,,,,,,,,magenta,hexagon
391.0,8.0,4.0,1,4.0,4.0,450.81400871299996,3.0,phase_1,,,,,,,,,,,,,blue,diamond
380.0,4.0,4.0,0,4.0,4.0,367.40899086,3.0,phase_1,,,,,,,,,,,,,white,cross
205.0,3.0,2.0,1,1.0,1.0,418.21312904399997,4.0,phase_1,,,,,,,,,,,,,yellow,line
409.0,8.0,4.0,1,1.0,1.0,351.313829422,4.0,phase_1,,,,,,,,,,,,,blue,diamond
383.0,8.0,4.0,1,2.0,2.0,317.859888077,4.0,phase_1,,,,,,,,,,,,,blue,diamond
100.0,6.0,1.0,1,4.0,4.0,317.395210266,4.0,phase_1,,,,,,,,,,,,,magenta,hexagon
113.0,2.0,1.0,0,1.0,1.0,284.189224243,4.0,phase_1,,,,,,,,,,,,,cyan,square
119.0,6.0,1.0,1,4.0,4.0,384.02390479999997,4.0,phase_1,,,,,,,,,,,,,magenta,hexagon
194.0,3.0,2.0,1,2.0,2.0,350.92997551,4.0,phase_1,,,,,,,,,,,,,yellow,line
383.0,8.0,4.0,1,2.0,2.0,317.305803299,4.0,phase_1,,,,,,,,,,,,,blue,diamond
421.0,8.0,4.0,1,1.0,1.0,333.987951279,4.0,phase_1,,,,,,,,,,,,,blue,diamond
385.0,4.0,4.0,0,1.0,1.0,367.12288856500004,4.0,phase_1,,,,,,,,,,,,,white,cross
0.0,8.0,0.0,1,2.0,2.0,317.40379333500005,4.0,phase_1,,,,,,,,,,,,,blue,diamond
40.0,1.0,0.5,1,2.0,2.0,367.693901062,4.0,phase_1,,,,,,,,,,,,,gray,circle
0.0,4.0,0.0,0,3.0,3.0,350.80289840700004,4.0,phase_1,,,,,,,,,,,,,white,cross
0.0,1.0,0.0,1,4.0,4.0,334.240913391,4.0,phase_1,,,,,,,,,,,,,gray,circle
0.0,8.0,0.0,1,1.0,1.0,300.641059875,4.0,phase_1,,,,,,,,,,,,,blue,diamond
85.0,6.0,1.0,1,3.0,3.0,434.20982360799997,4.0,phase_1,,,,,,,,,,,,,magenta,hexagon
72.0,5.0,0.5,0,2.0,2.0,334.716081619,4.0,phase_1,,,,,,,,,,,,,green,triangle
74.0,1.0,0.5,1,4.0,4.0,400.83789825400004,4.0,phase_1,,,,,,,,,,,,,gray,circle
219.0,7.0,2.0,0,1.0,1.0,434.60392952,4.0,phase_1,,,,,,,,,,,,,orange,flipped triangle
184.0,7.0,2.0,0,1.0,1.0,367.580890656,4.0,phase_1,,,,,,,,,,,,,orange,flipped triangle
67.0,5.0,0.5,0,4.0,4.0,367.968082428,4.0,phase_1,,,,,,,,,,,,,green,triangle
0.0,5.0,0.0,0,4.0,4.0,384.696006775,4.0,phase_1,,,,,,,,,,,,,green,triangle
35.0,1.0,0.5,1,4.0,4.0,384.254932404,4.0,phase_1,,,,,,,,,,,,,gray,circle
102.0,2.0,1.0,0,4.0,4.0,317.347049713,4.0,phase_1,,,,,,,,,,,,,cyan,square
63.0,1.0,0.5,1,3.0,3.0,350.39806366,4.0,phase_1,,,,,,,,,,,,,gray,circle
78.0,2.0,1.0,0,3.0,3.0,350.548028946,4.0,phase_1,,,,,,,,,,,,,cyan,square
388.0,4.0,4.0,0,3.0,3.0,351.15790367100004,4.0,phase_1,,,,,,,,,,,,,white,cross
100.0,2.0,1.0,0,3.0,3.0,334.237098694,4.0,phase_1,,,,,,,,,,,,,cyan,square
383.0,4.0,4.0,0,4.0,4.0,384.139060974,4.0,phase_1,,,,,,,,,,,,,white,cross
47.0,5.0,0.5,0,3.0,3.0,333.965063095,4.0,phase_1,,,,,,,,,,,,,green,triangle
96.0,6.0,1.0,1,1.0,1.0,350.99005699199995,4.0,phase_1,,,,,,,,,,,,,magenta,hexagon
75.0,1.0,0.5,1,3.0,3.0,333.82296562199997,4.0,phase_1,,,,,,,,,,,,,gray,circle
201.0,3.0,2.0,1,3.0,3.0,384.10997390700004,4.0,phase_1,,,,,,,,,,,,,yellow,line
72.0,1.0,0.5,1,1.0,1.0,401.128053665,4.0,phase_1,,,,,,,,,,,,,gray,circle
50.0,5.0,0.5,0,3.0,3.0,383.764982224,4.0,phase_1,,,,,,,,,,,,,green,triangle
212.0,7.0,2.0,0,2.0,2.0,334.185838699,4.0,phase_1,,,,,,,,,,,,,orange,flipped triangle
45.0,1.0,0.5,1,4.0,4.0,383.911848068,4.0,phase_1,,,,,,,,,,,,,gray,circle
80.0,2.0,1.0,0,4.0,4.0,417.309045792,4.0,phase_1,,,,,,,,,,,,,cyan,square
57.0,1.0,0.5,1,3.0,3.0,368.112802505,4.0,phase_1,,,,,,,,,,,,,gray,circle
389.0,8.0,4.0,1,2.0,2.0,367.12288856500004,4.0,phase_1,,,,,,,,,,,,,blue,diamond
38.0,1.0,0.5,1,3.0,3.0,367.274999619,4.0,phase_1,,,,,,,,,,,,,gray,circle
417.0,4.0,4.0,0,2.0,2.0,484.004020691,4.0,phase_1,,,,,,,,,,,,,white,cross
0.0,1.0,0.0,1,2.0,2.0,350.619077682,4.0,phase_1,,,,,,,,,,,,,gray,circle
94.0,2.0,1.0,0,3.0,3.0,317.10791587800003,4.0,phase_1,,,,,,,,,,,,,cyan,square
386.0,8.0,4.0,1,1.0,1.0,350.793123245,4.0,phase_1,,,,,,,,,,,,,blue,diamond
415.0,8.0,4.0,1,4.0,4.0,383.908033371,4.0,phase_1,,,,,,,,,,,,,blue,diamond
64.0,5.0,0.5,0,4.0,4.0,383.835077286,4.0,phase_1,,,,,,,,,,,,,green,triangle
107.0,6.0,1.0,1,1.0,1.0,484.175920486,4.0,phase_1,,,,,,,,,,,,,magenta,hexagon
0.0,3.0,0.0,1,2.0,2.0,333.893060684,4.0,phase_1,,,,,,,,,,,,,yellow,line
378.0,8.0,4.0,1,1.0,1.0,418.21002960199996,4.0,phase_1,,,,,,,,,,,,,blue,diamond
211.0,3.0,2.0,1,1.0,1.0,334.069013596,4.0,phase_1,,,,,,,,,,,,,yellow,line
49.0,5.0,0.5,0,1.0,1.0,350.90684890700004,4.0,phase_1,,,,,,,,,,,,,green,triangle
424.0,8.0,4.0,1,1.0,1.0,367.702007294,4.0,phase_1,,,,,,,,,,,,,blue,diamond
200.0,7.0,2.0,0,4.0,4.0,401.108980179,4.0,phase_1,,,,,,,,,,,,,orange,flipped triangle
0.0,5.0,0.0,0,3.0,3.0,400.722980499,4.0,phase_1,,,,,,,,,,,,,green,triangle
383.0,4.0,4.0,0,1.0,1.0,367.481946945,4.0,phase_1,,,,,,,,,,,,,white,cross
33.0,5.0,0.5,0,4.0,4.0,383.708000183,4.0,phase_1,,,,,,,,,,,,,green,triangle
225.0,7.0,2.0,0,2.0,2.0,366.965055466,4.0,phase_1,,,,,,,,,,,,,orange,flipped triangle
422.0,4.0,4.0,0,2.0,2.0,367.285966873,4.0,phase_1,,,,,,,,,,,,,white,cross
418.0,4.0,4.0,0,1.0,1.0,417.82498359699997,4.0,phase_1,,,,,,,,,,,,,white,cross
69.0,5.0,0.5,0,4.0,4.0,384.632110596,4.0,phase_1,,,,,,,,,,,,,green,triangle
0.0,6.0,0.0,1,3.0,3.0,384.108066559,4.0,phase_1,,,,,,,,,,,,,magenta,hexagon
220.0,3.0,2.0,1,3.0,3.0,384.42111015300003,4.0,phase_1,,,,,,,,,,,,,yellow,line
0.0,8.0,0.0,1,3.0,3.0,351.40490531899997,4.0,phase_1,,,,,,,,,,,,,blue,diamond
225.0,7.0,2.0,0,4.0,4.0,417.74106025699996,4.0,phase_1,,,,,,,,,,,,,orange,flipped triangle
407.0,8.0,4.0,1,2.0,2.0,350.59809684799995,4.0,phase_1,,,,,,,,,,,,,blue,diamond
213.0,3.0,2.0,1,2.0,2.0,334.209918976,4.0,phase_1,,,,,,,,,,,,,yellow,line
67.0,5.0,0.5,0,4.0,4.0,401.10015869100005,4.0,phase_1,,,,,,,,,,,,,green,triangle
106.0,6.0,1.0,1,1.0,1.0,384.166002274,4.0,phase_1,,,,,,,,,,,,,magenta,hexagon
120.0,6.0,1.0,1,4.0,4.0,384.231090546,4.0,phase_1,,,,,,,,,,,,,magenta,hexagon
417.0,8.0,4.0,1,2.0,2.0,317.96002388,4.0,phase_1,,,,,,,,,,,,,blue,diamond
84.0,2.0,1.0,0,1.0,1.0,300.741910934,4.0,phase_1,,,,,,,,,,,,,cyan,square
102.0,6.0,1.0,1,1.0,1.0,367.508172989,4.0,phase_1,,,,,,,,,,,,,magenta,hexagon
418.0,4.0,4.0,0,4.0,4.0,417.680025101,4.0,phase_1,,,,,,,,,,,,,white,cross
48.0,5.0,0.5,0,4.0,4.0,367.247104645,4.0,phase_1,,,,,,,,,,,,,green,triangle
424.0,8.0,4.0,1,2.0,2.0,368.10708046,4.0,phase_1,,,,,,,,,,,,,blue,diamond
209.0,3.0,2.0,1,2.0,2.0,350.708007812,4.0,phase_1,,,,,,,,,,,,,yellow,line
0.0,1.0,0.0,1,3.0,3.0,367.908000946,4.0,phase_1,,,,,,,,,,,,,gray,circle
410.0,4.0,4.0,0,2.0,2.0,433.97092819200003,4.0,phase_1,,,,,,,,,,,,,white,cross
397.0,8.0,4.0,1,2.0,2.0,301.092147827,4.0,phase_1,,,,,,,,,,,,,blue,diamond
0.0,4.0,0.0,0,1.0,1.0,367.515087128,4.0,phase_1,,,,,,,,,,,,,white,cross
391.0,8.0,4.0,1,1.0,1.0,367.849111557,4.0,phase_1,,,,,,,,,,,,,blue,diamond
411.0,4.0,4.0,0,2.0,2.0,267.71998405500005,4.0,phase_1,,,,,,,,,,,,,white,cross
0.0,6.0,0.0,1,3.0,3.0,367.40398407000004,4.0,phase_1,,,,,,,,,,,,,magenta,hexagon
185.0,3.0,2.0,1,4.0,4.0,433.970212936,4.0,phase_1,,,,,,,,,,,,,yellow,line
120.0,2.0,1.0,0,3.0,3.0,384.42492485,4.0,phase_1,,,,,,,,,,,,,cyan,square
0.0,8.0,0.0,1,2.0,2.0,317.044019699,4.0,phase_1,,,,,,,,,,,,,blue,diamond
414.0,8.0,4.0,1,3.0,3.0,384.284973145,4.0,phase_1,,,,,,,,,,,,,blue,diamond
0.0,4.0,0.0,0,1.0,1.0,417.40798950199996,4.0,phase_1,,,,,,,,,,,,,white,cross
201.0,3.0,2.0,1,2.0,2.0,334.71703529399997,4.0,phase_1,,,,,,,,,,,,,yellow,line
95.0,2.0,1.0,0,2.0,2.0,351.20892524699997,4.0,phase_1,,,,,,,,,,,,,cyan,square
0.0,4.0,0.0,0,3.0,3.0,367.26593971299997,4.0,phase_1,,,,,,,,,,,,,white,cross
415.0,8.0,4.0,1,3.0,3.0,351.177930832,4.0,phase_1,,,,,,,,,,,,,blue,diamond
213.0,3.0,2.0,1,4.0,4.0,400.739192963,4.0,phase_1,,,,,,,,,,,,,yellow,line
104.0,6.0,1.0,1,3.0,3.0,334.06114578200004,4.0,phase_1,,,,,,,,,,,,,magenta,hexagon
178.0,7.0,2.0,0,3.0,3.0,334.043979645,4.0,phase_1,,,,,,,,,,,,,orange,flipped triangle
40.0,5.0,0.5,0,4.0,4.0,400.74706077599996,4.0,phase_1,,,,,,,,,,,,,green,triangle
207.0,3.0,2.0,1,2.0,2.0,367.69318580600003,4.0,phase_1,,,,,,,,,,,,,yellow,line
67.0,5.0,0.5,0,4.0,4.0,401.14402771000005,4.0,phase_1,,,,,,,,,,,,,green,triangle
418.0,4.0,4.0,0,1.0,1.0,367.763996124,4.0,phase_1,,,,,,,,,,,,,white,cross
0.0,5.0,0.5,0,6.0,6.0,434.400081635,1.0,phase_2,go,250.0,250.0,1.0,,,,,,,,,green,triangle
0.0,4.0,4.0,0,5.0,5.0,400.851964951,1.0,phase_2,go,250.0,250.0,1.0,,,,,,,,,white,cross
0.0,8.0,4.0,1,6.0,6.0,451.00998878499996,1.0,phase_2,go,250.0,250.0,1.0,,,,,,,,,blue,diamond
0.0,2.0,1.0,0,5.0,5.0,567.4448013309999,1.0,phase_2,go,250.0,250.0,1.0,,,,,,,,,cyan,square
0.0,4.0,4.0,0,5.0,5.0,417.028903961,1.0,phase_2,go,250.0,250.0,1.0,,,,,,,,,white,cross
0.0,2.0,1.0,0,5.0,5.0,634.172201157,1.0,phase_2,go,250.0,250.0,1.0,,,,,,,,,cyan,square
0.0,8.0,4.0,1,6.0,0.0,,1.0,phase_2,stop,250.0,250.0,4.0,,,,,,,,,blue,diamond
0.0,8.0,4.0,1,6.0,6.0,367.13886261,1.0,phase_2,stop,250.0,300.0,3.0,,,,,,,,,blue,diamond
0.0,6.0,1.0,1,6.0,6.0,350.780963898,1.0,phase_2,go,250.0,300.0,1.0,,,,,,,,,magenta,hexagon
0.0,6.0,1.0,1,5.0,0.0,,1.0,phase_2,stop,250.0,300.0,4.0,,,,,,,,,magenta,hexagon
0.0,6.0,1.0,1,5.0,5.0,501.32703781099997,1.0,phase_2,go,250.0,300.0,1.0,,,,,,,,,magenta,hexagon
0.0,2.0,1.0,0,5.0,5.0,534.4331264499999,1.0,phase_2,go,250.0,300.0,1.0,,,,,,,,,cyan,square
0.0,1.0,0.5,1,6.0,0.0,,1.0,phase_2,stop,250.0,250.0,4.0,,,,,,,,,gray,circle
0.0,7.0,2.0,0,5.0,5.0,434.386014938,1.0,phase_2,go,250.0,250.0,1.0,,,,,,,,,orange,flipped triangle
0.0,7.0,2.0,0,5.0,5.0,467.703104019,1.0,phase_2,go,250.0,250.0,1.0,,,,,,,,,orange,flipped triangle
0.0,5.0,0.5,0,5.0,5.0,534.941911697,1.0,phase_2,go,250.0,250.0,1.0,,,,,,,,,green,triangle
0.0,3.0,2.0,1,6.0,0.0,,1.0,phase_2,stop,250.0,300.0,4.0,,,,,,,,,yellow,line
0.0,3.0,2.0,1,6.0,6.0,451.222896576,1.0,phase_2,stop,250.0,350.0,3.0,,,,,,,,,yellow,line
0.0,5.0,0.5,0,6.0,6.0,534.352064133,1.0,phase_2,go,250.0,350.0,1.0,,,,,,,,,green,triangle
0.0,4.0,4.0,0,6.0,6.0,584.383964539,1.0,phase_2,go,250.0,350.0,1.0,,,,,,,,,white,cross
0.0,3.0,2.0,1,5.0,5.0,584.0299129489999,1.0,phase_2,go,250.0,350.0,1.0,,,,,,,,,yellow,line
0.0,7.0,2.0,0,5.0,5.0,484.18807983399995,1.0,phase_2,go,250.0,350.0,1.0,,,,,,,,,orange,flipped triangle
0.0,2.0,1.0,0,6.0,6.0,534.043073654,1.0,phase_2,go,250.0,350.0,1.0,,,,,,,,,cyan,square
0.0,4.0,4.0,0,5.0,5.0,483.98399352999996,1.0,phase_2,go,250.0,350.0,1.0,,,,,,,,,white,cross
0.0,7.0,2.0,0,6.0,6.0,517.476797104,1.0,phase_2,go,250.0,350.0,1.0,,,,,,,,,orange,flipped triangle
0.0,2.0,1.0,0,6.0,6.0,484.23504829399997,1.0,phase_2,go,250.0,350.0,1.0,,,,,,,,,cyan,square
0.0,3.0,2.0,1,5.0,0.0,,1.0,phase_2,stop,300.0,350.0,4.0,,,,,,,,,yellow,line
0.0,6.0,1.0,1,6.0,0.0,,1.0,phase_2,stop,300.0,300.0,4.0,,,,,,,,,magenta,hexagon
0.0,1.0,0.5,1,5.0,5.0,434.076070786,1.0,phase_2,stop,350.0,300.0,3.0,,,,,,,,,gray,circle
0.0,6.0,1.0,1,5.0,5.0,451.600074768,1.0,phase_2,stop,300.0,300.0,3.0,,,,,,,,,magenta,hexagon
0.0,2.0,1.0,0,6.0,6.0,567.700862885,1.0,phase_2,go,300.0,300.0,1.0,,,,,,,,,cyan,square
0.0,7.0,2.0,0,5.0,5.0,567.676067352,1.0,phase_2,go,300.0,300.0,1.0,,,,,,,,,orange,flipped triangle
0.0,1.0,0.5,1,6.0,0.0,,1.0,phase_2,stop,300.0,350.0,4.0,,,,,,,,,gray,circle
0.0,4.0,4.0,0,5.0,5.0,650.485038757,1.0,phase_2,go,300.0,350.0,1.0,,,,,,,,,white,cross
0.0,4.0,4.0,0,6.0,6.0,567.608118057,1.0,phase_2,go,300.0,350.0,1.0,,,,,,,,,white,cross
0.0,5.0,0.5,0,6.0,6.0,484.371900558,1.0,phase_2,go,300.0,350.0,1.0,,,,,,,,,green,triangle
0.0,3.0,2.0,1,5.0,5.0,467.803001404,2.0,phase_2,stop,250.0,350.0,3.0,,,,,,,,,yellow,line
0.0,3.0,2.0,1,5.0,0.0,,2.0,phase_2,stop,200.0,350.0,4.0,,,,,,,,,yellow,line
0.0,6.0,1.0,1,6.0,6.0,401.546001434,2.0,phase_2,stop,200.0,400.0,3.0,,,,,,,,,magenta,hexagon
0.0,5.0,0.5,0,6.0,6.0,550.601005554,2.0,phase_2,go,200.0,400.0,1.0,,,,,,,,,green,triangle
0.0,3.0,2.0,1,6.0,0.0,,2.0,phase_2,stop,200.0,350.0,4.0,,,,,,,,,yellow,line
0.0,2.0,1.0,0,5.0,5.0,568.213939667,2.0,phase_2,go,200.0,350.0,1.0,,,,,,,,,cyan,square
0.0,5.0,0.5,0,6.0,6.0,567.6889419559999,2.0,phase_2,go,200.0,350.0,1.0,,,,,,,,,green,triangle
0.0,2.0,1.0,0,5.0,5.0,500.935077667,2.0,phase_2,go,200.0,350.0,1.0,,,,,,,,,cyan,square
0.0,3.0,2.0,1,6.0,6.0,434.107065201,2.0,phase_2,stop,200.0,400.0,3.0,,,,,,,,,yellow,line
0.0,7.0,2.0,0,6.0,6.0,484.23385620100004,2.0,phase_2,go,200.0,400.0,1.0,,,,,,,,,orange,flipped triangle
0.0,6.0,1.0,1,5.0,0.0,,2.0,phase_2,stop,250.0,400.0,4.0,,,,,,,,,magenta,hexagon
0.0,7.0,2.0,0,6.0,6.0,451.170921326,2.0,phase_2,go,250.0,400.0,1.0,,,,,,,,,orange,flipped triangle
0.0,7.0,2.0,0,6.0,6.0,534.541130066,2.0,phase_2,go,250.0,400.0,1.0,,,,,,,,,orange,flipped triangle
0.0,2.0,1.0,0,5.0,5.0,634.2589855189999,2.0,phase_2,go,250.0,400.0,1.0,,,,,,,,,cyan,square
0.0,3.0,2.0,1,5.0,0.0,,2.0,phase_2,stop,300.0,400.0,4.0,,,,,,,,,yellow,line
0.0,7.0,2.0,0,5.0,5.0,467.577934265,2.0,phase_2,go,300.0,400.0,1.0,,,,,,,,,orange,flipped triangle
0.0,5.0,0.5,0,6.0,6.0,483.891010284,2.0,phase_2,go,300.0,400.0,1.0,,,,,,,,,green,triangle
0.0,4.0,4.0,0,6.0,6.0,517.378091812,2.0,phase_2,go,300.0,400.0,1.0,,,,,,,,,white,cross
0.0,7.0,2.0,0,5.0,5.0,501.0099411009999,2.0,phase_2,go,300.0,400.0,1.0,,,,,,,,,orange,flipped triangle
0.0,6.0,1.0,1,6.0,0.0,,2.0,phase_2,stop,300.0,350.0,4.0,,,,,,,,,magenta,hexagon
0.0,8.0,4.0,1,5.0,0.0,,2.0,phase_2,stop,350.0,350.0,4.0,,,,,,,,,blue,diamond
0.0,4.0,4.0,0,5.0,5.0,550.719022751,2.0,phase_2,go,350.0,350.0,1.0,,,,,,,,,white,cross
0.0,3.0,2.0,1,6.0,6.0,650.786876678,2.0,phase_2,go,350.0,350.0,1.0,,,,,,,,,yellow,line
0.0,3.0,2.0,1,5.0,0.0,,2.0,phase_2,stop,400.0,350.0,4.0,,,,,,,,,yellow,line
0.0,4.0,4.0,0,6.0,6.0,400.870084763,2.0,phase_2,go,400.0,350.0,1.0,,,,,,,,,white,cross
0.0,1.0,0.5,1,5.0,5.0,517.8718566890001,2.0,phase_2,go,400.0,350.0,1.0,,,,,,,,,gray,circle
0.0,7.0,2.0,0,5.0,5.0,667.878866196,2.0,phase_2,go,400.0,350.0,1.0,,,,,,,,,orange,flipped triangle
0.0,6.0,1.0,1,6.0,6.0,500.84400177,2.0,phase_2,stop,400.0,400.0,3.0,,,,,,,,,magenta,hexagon
0.0,8.0,4.0,1,5.0,5.0,467.33307838400003,2.0,phase_2,stop,450.0,400.0,3.0,,,,,,,,,blue,diamond
0.0,2.0,1.0,0,6.0,6.0,484.307050705,2.0,phase_2,go,450.0,400.0,1.0,,,,,,,,,cyan,square
0.0,6.0,1.0,1,5.0,0.0,,2.0,phase_2,stop,400.0,400.0,4.0,,,,,,,,,magenta,hexagon
0.0,8.0,4.0,1,6.0,6.0,651.530981064,2.0,phase_2,go,400.0,400.0,1.0,,,,,,,,,blue,diamond
0.0,8.0,4.0,1,6.0,0.0,,2.0,phase_2,stop,400.0,350.0,4.0,,,,,,,,,blue,diamond
0.0,2.0,1.0,0,5.0,5.0,684.825897217,2.0,phase_2,go,400.0,350.0,1.0,,,,,,,,,cyan,square
0.0,2.0,1.0,0,6.0,6.0,701.38502121,2.0,phase_2,go,400.0,350.0,1.0,,,,,,,,,cyan,square
0.0,8.0,4.0,1,5.0,5.0,768.224000931,2.0,phase_2,stop,450.0,350.0,3.0,,,,,,,,,blue,diamond
0.0,2.0,1.0,0,6.0,6.0,517.819166183,3.0,phase_2,go,450.0,350.0,1.0,,,,,,,,,cyan,square
0.0,2.0,1.0,0,6.0,6.0,467.48399734500003,3.0,phase_2,go,450.0,350.0,1.0,,,,,,,,,cyan,square
0.0,1.0,0.5,1,5.0,0.0,,3.0,phase_2,stop,400.0,350.0,4.0,,,,,,,,,gray,circle
0.0,8.0,4.0,1,5.0,5.0,517.785072327,3.0,phase_2,stop,450.0,350.0,3.0,,,,,,,,,blue,diamond
0.0,1.0,0.5,1,6.0,0.0,,3.0,phase_2,stop,450.0,400.0,4.0,,,,,,,,,gray,circle
0.0,5.0,0.5,0,5.0,5.0,450.863838196,3.0,phase_2,go,450.0,400.0,1.0,,,,,,,,,green,triangle
0.0,2.0,1.0,0,5.0,5.0,668.261051178,3.0,phase_2,go,450.0,400.0,1.0,,,,,,,,,cyan,square
0.0,5.0,0.5,0,5.0,5.0,483.847141266,3.0,phase_2,go,450.0,400.0,1.0,,,,,,,,,green,triangle
0.0,1.0,0.5,1,6.0,6.0,700.904130936,3.0,phase_2,stop,450.0,450.0,3.0,,,,,,,,,gray,circle
0.0,1.0,0.5,1,5.0,5.0,668.231964111,3.0,phase_2,go,450.0,450.0,1.0,,,,,,,,,gray,circle
0.0,8.0,4.0,1,5.0,5.0,701.636075974,3.0,phase_2,go,450.0,450.0,1.0,,,,,,,,,blue,diamond
0.0,6.0,1.0,1,5.0,0.0,,3.0,phase_2,stop,400.0,450.0,4.0,,,,,,,,,magenta,hexagon
0.0,5.0,0.5,0,5.0,5.0,518.138170242,3.0,phase_2,go,400.0,450.0,1.0,,,,,,,,,green,triangle
0.0,5.0,0.5,0,5.0,5.0,651.664018631,3.0,phase_2,go,400.0,450.0,1.0,,,,,,,,,green,triangle
0.0,8.0,4.0,1,6.0,6.0,617.9528236389999,3.0,phase_2,go,400.0,450.0,1.0,,,,,,,,,blue,diamond
0.0,5.0,0.5,0,5.0,5.0,834.972143173,3.0,phase_2,go,400.0,450.0,1.0,,,,,,,,,green,triangle
0.0,1.0,0.5,1,5.0,5.0,834.3958854680001,3.0,phase_2,go,400.0,450.0,1.0,,,,,,,,,gray,circle
0.0,6.0,1.0,1,5.0,0.0,,3.0,phase_2,stop,450.0,450.0,4.0,,,,,,,,,magenta,hexagon
0.0,6.0,1.0,1,6.0,6.0,384.248018265,3.0,phase_2,stop,450.0,400.0,3.0,,,,,,,,,magenta,hexagon
0.0,5.0,0.5,0,6.0,6.0,617.779970169,3.0,phase_2,go,450.0,400.0,1.0,,,,,,,,,green,triangle
0.0,2.0,1.0,0,6.0,6.0,501.168966293,3.0,phase_2,go,450.0,400.0,1.0,,,,,,,,,cyan,square
0.0,8.0,4.0,1,6.0,6.0,467.998027802,3.0,phase_2,go,450.0,400.0,1.0,,,,,,,,,blue,diamond
0.0,2.0,1.0,0,5.0,5.0,550.899982452,3.0,phase_2,go,450.0,400.0,1.0,,,,,,,,,cyan,square
0.0,7.0,2.0,0,6.0,6.0,450.839996338,3.0,phase_2,go,450.0,400.0,1.0,,,,,,,,,orange,flipped triangle
0.0,4.0,4.0,0,5.0,5.0,801.379919052,3.0,phase_2,go,450.0,400.0,1.0,,,,,,,,,white,cross
0.0,5.0,0.5,0,5.0,5.0,467.71597862199997,3.0,phase_2,go,450.0,400.0,1.0,,,,,,,,,green,triangle
0.0,5.0,0.5,0,6.0,6.0,383.9199543,3.0,phase_2,go,450.0,400.0,1.0,,,,,,,,,green,triangle
0.0,1.0,0.5,1,6.0,0.0,,3.0,phase_2,stop,450.0,350.0,4.0,,,,,,,,,gray,circle
0.0,4.0,4.0,0,6.0,6.0,534.446001053,3.0,phase_2,go,450.0,350.0,1.0,,,,,,,,,white,cross
0.0,4.0,4.0,0,5.0,5.0,600.524902344,3.0,phase_2,go,450.0,350.0,1.0,,,,,,,,,white,cross
0.0,1.0,0.5,1,6.0,6.0,567.489147186,3.0,phase_2,go,450.0,350.0,1.0,,,,,,,,,gray,circle
0.0,3.0,2.0,1,5.0,5.0,467.644929886,3.0,phase_2,go,450.0,350.0,1.0,,,,,,,,,yellow,line
0.0,6.0,1.0,1,6.0,6.0,517.596960068,3.0,phase_2,go,450.0,350.0,1.0,,,,,,,,,magenta,hexagon
0.0,5.0,0.5,0,6.0,6.0,484.577894211,3.0,phase_2,go,450.0,350.0,1.0,,,,,,,,,green,triangle
0.0,2.0,1.0,0,6.0,6.0,484.00688171400003,3.0,phase_2,go,450.0,350.0,1.0,,,,,,,,,cyan,square
0.0,5.0,0.5,0,6.0,6.0,500.886917114,3.0,phase_2,go,450.0,350.0,1.0,,,,,,,,,green,triangle
0.0,4.0,4.0,0,6.0,6.0,483.99591445899995,4.0,phase_2,go,450.0,350.0,1.0,,,,,,,,,white,cross
0.0,6.0,1.0,1,6.0,6.0,484.040975571,4.0,phase_2,stop,450.0,400.0,3.0,,,,,,,,,magenta,hexagon
0.0,7.0,2.0,0,6.0,6.0,417.144060135,4.0,phase_2,go,450.0,400.0,1.0,,,,,,,,,orange,flipped triangle
0.0,1.0,0.5,1,5.0,5.0,467.613935471,4.0,phase_2,stop,500.0,400.0,3.0,,,,,,,,,gray,circle
0.0,3.0,2.0,1,5.0,5.0,517.97413826,4.0,phase_2,go,500.0,400.0,1.0,,,,,,,,,yellow,line
0.0,2.0,1.0,0,5.0,5.0,616.978168488,4.0,phase_2,go,500.0,400.0,1.0,,,,,,,,,cyan,square
0.0,8.0,4.0,1,5.0,5.0,451.076984406,4.0,phase_2,stop,450.0,400.0,3.0,,,,,,,,,blue,diamond
0.0,8.0,4.0,1,5.0,5.0,400.845050812,4.0,phase_2,go,450.0,400.0,1.0,,,,,,,,,blue,diamond
0.0,1.0,0.5,1,6.0,6.0,451.318979263,4.0,phase_2,stop,450.0,350.0,3.0,,,,,,,,,gray,circle
0.0,2.0,1.0,0,6.0,6.0,567.991018295,4.0,phase_2,go,450.0,350.0,1.0,,,,,,,,,cyan,square
0.0,1.0,0.5,1,5.0,5.0,517.786026001,4.0,phase_2,go,450.0,350.0,1.0,,,,,,,,,gray,circle
0.0,7.0,2.0,0,5.0,5.0,567.5899982450001,4.0,phase_2,go,450.0,350.0,1.0,,,,,,,,,orange,flipped triangle
0.0,3.0,2.0,1,5.0,5.0,567.942857742,4.0,phase_2,go,450.0,350.0,1.0,,,,,,,,,yellow,line
0.0,1.0,0.5,1,5.0,0.0,,4.0,phase_2,stop,400.0,350.0,4.0,,,,,,,,,gray,circle
0.0,2.0,1.0,0,6.0,6.0,601.412057877,4.0,phase_2,go,400.0,350.0,1.0,,,,,,,,,cyan,square
0.0,8.0,4.0,1,5.0,5.0,534.378051758,4.0,phase_2,stop,450.0,350.0,3.0,,,,,,,,,blue,diamond
0.0,6.0,1.0,1,6.0,0.0,,4.0,phase_2,stop,450.0,300.0,4.0,,,,,,,,,magenta,hexagon
0.0,7.0,2.0,0,5.0,5.0,617.753982544,4.0,phase_2,go,450.0,300.0,1.0,,,,,,,,,orange,flipped triangle
0.0,1.0,0.5,1,5.0,0.0,,4.0,phase_2,stop,400.0,300.0,4.0,,,,,,,,,gray,circle
0.0,5.0,0.5,0,6.0,6.0,617.710113525,4.0,phase_2,go,400.0,300.0,1.0,,,,,,,,,green,triangle
0.0,7.0,2.0,0,6.0,6.0,517.9369449620001,4.0,phase_2,go,400.0,300.0,1.0,,,,,,,,,orange,flipped triangle
0.0,5.0,0.5,0,5.0,5.0,567.4550533290001,4.0,phase_2,go,400.0,300.0,1.0,,,,,,,,,green,triangle
0.0,4.0,4.0,0,6.0,6.0,550.626993179,4.0,phase_2,go,400.0,300.0,1.0,,,,,,,,,white,cross
0.0,1.0,0.5,1,5.0,5.0,567.373991013,4.0,phase_2,stop,450.0,300.0,3.0,,,,,,,,,gray,circle
0.0,4.0,4.0,0,5.0,5.0,701.3289928439999,4.0,phase_2,go,450.0,300.0,1.0,,,,,,,,,white,cross
0.0,6.0,1.0,1,5.0,0.0,,4.0,phase_2,stop,400.0,300.0,4.0,,,,,,,,,magenta,hexagon
0.0,1.0,0.5,1,6.0,0.0,,4.0,phase_2,stop,400.0,350.0,4.0,,,,,,,,,gray,circle
0.0,4.0,4.0,0,5.0,5.0,584.817171097,4.0,phase_2,go,400.0,350.0,1.0,,,,,,,,,white,cross
0.0,5.0,0.5,0,6.0,6.0,534.0549945829999,4.0,phase_2,go,400.0,350.0,1.0,,,,,,,,,green,triangle
0.0,4.0,4.0,0,6.0,6.0,534.123897552,4.0,phase_2,go,400.0,350.0,1.0,,,,,,,,,white,cross
0.0,3.0,2.0,1,6.0,6.0,501.20997428900006,4.0,phase_2,stop,400.0,400.0,3.0,,,,,,,,,yellow,line
0.0,4.0,4.0,0,6.0,6.0,601.123094559,4.0,phase_2,go,400.0,400.0,1.0,,,,,,,,,white,cross
0.0,8.0,4.0,1,6.0,0.0,,4.0,phase_2,stop,400.0,350.0,4.0,,,,,,,,,blue,diamond
0.0,8.0,4.0,1,6.0,6.0,568.217039108,4.0,phase_2,go,400.0,350.0,1.0,,,,,,,,,blue,diamond
0.0,2.0,1.0,0,6.0,6.0,650.920152664,4.0,phase_2,go,400.0,350.0,1.0,,,,,,,,,cyan,square
0.0,1.0,0.5,1,5.0,5.0,634.404182434,4.0,phase_2,stop,450.0,350.0,3.0,,,,,,,,,gray,circle
0.0,5.0,0.5,0,5.0,5.0,584.4922065730001,5.0,phase_2,go,450.0,350.0,1.0,,,,,,,,,green,triangle
0.0,8.0,4.0,1,5.0,0.0,,5.0,phase_2,stop,400.0,350.0,4.0,,,,,,,,,blue,diamond
0.0,5.0,0.5,0,5.0,5.0,584.108114243,5.0,phase_2,go,400.0,350.0,1.0,,,,,,,,,green,triangle
0.0,1.0,0.5,1,6.0,0.0,,5.0,phase_2,stop,400.0,400.0,4.0,,,,,,,,,gray,circle
0.0,6.0,1.0,1,6.0,6.0,718.208789825,5.0,phase_2,stop,400.0,450.0,3.0,,,,,,,,,magenta,hexagon
0.0,2.0,1.0,0,6.0,6.0,651.715040207,5.0,phase_2,go,400.0,450.0,1.0,,,,,,,,,cyan,square
0.0,4.0,4.0,0,5.0,5.0,567.703962326,5.0,phase_2,go,400.0,450.0,1.0,,,,,,,,,white,cross
0.0,4.0,4.0,0,6.0,6.0,684.531927109,5.0,phase_2,go,400.0,450.0,1.0,,,,,,,,,white,cross
0.0,4.0,4.0,0,5.0,5.0,767.425060272,5.0,phase_2,go,400.0,450.0,1.0,,,,,,,,,white,cross
0.0,3.0,2.0,1,6.0,0.0,,5.0,phase_2,stop,400.0,400.0,4.0,,,,,,,,,yellow,line
0.0,8.0,4.0,1,5.0,5.0,517.184972763,5.0,phase_2,stop,450.0,400.0,3.0,,,,,,,,,blue,diamond
0.0,6.0,1.0,1,5.0,0.0,,5.0,phase_2,stop,400.0,400.0,4.0,,,,,,,,,magenta,hexagon
0.0,1.0,0.5,1,6.0,6.0,567.990064621,5.0,phase_2,go,400.0,400.0,1.0,,,,,,,,,gray,circle
0.0,8.0,4.0,1,5.0,0.0,,5.0,phase_2,stop,450.0,400.0,4.0,,,,,,,,,blue,diamond
0.0,3.0,2.0,1,5.0,5.0,767.781019211,5.0,phase_2,go,450.0,400.0,1.0,,,,,,,,,yellow,line
0.0,4.0,4.0,0,6.0,6.0,734.724998474,5.0,phase_2,go,450.0,400.0,1.0,,,,,,,,,white,cross
0.0,5.0,0.5,0,5.0,5.0,534.483909607,5.0,phase_2,go,450.0,400.0,1.0,,,,,,,,,green,triangle
0.0,1.0,0.5,1,5.0,5.0,617.697000504,5.0,phase_2,stop,500.0,400.0,3.0,,,,,,,,,gray,circle
0.0,4.0,4.0,0,5.0,5.0,684.614896774,5.0,phase_2,go,500.0,400.0,1.0,,,,,,,,,white,cross
0.0,8.0,4.0,1,5.0,0.0,,5.0,phase_2,stop,450.0,400.0,4.0,,,,,,,,,blue,diamond
0.0,2.0,1.0,0,6.0,6.0,551.0210990910001,5.0,phase_2,go,450.0,400.0,1.0,,,,,,,,,cyan,square
0.0,8.0,4.0,1,6.0,6.0,584.588050842,5.0,phase_2,stop,450.0,450.0,3.0,,,,,,,,,blue,diamond
0.0,6.0,1.0,1,5.0,0.0,,5.0,phase_2,stop,500.0,450.0,4.0,,,,,,,,,magenta,hexagon
0.0,8.0,4.0,1,5.0,5.0,650.9180068969999,5.0,phase_2,go,500.0,450.0,1.0,,,,,,,,,blue,diamond
0.0,1.0,0.5,1,6.0,0.0,,5.0,phase_2,stop,500.0,400.0,4.0,,,,,,,,,gray,circle
0.0,4.0,4.0,0,6.0,6.0,684.614896774,5.0,phase_2,go,500.0,400.0,1.0,,,,,,,,,white,cross
0.0,3.0,2.0,1,6.0,6.0,717.9181575780001,5.0,phase_2,go,500.0,400.0,1.0,,,,,,,,,yellow,line
0.0,3.0,2.0,1,5.0,0.0,,5.0,phase_2,stop,550.0,400.0,4.0,,,,,,,,,yellow,line
0.0,7.0,2.0,0,6.0,6.0,618.010044098,5.0,phase_2,go,550.0,400.0,1.0,,,,,,,,,orange,flipped triangle
0.0,5.0,0.5,0,6.0,6.0,834.5079422,5.0,phase_2,go,550.0,400.0,1.0,,,,,,,,,green,triangle
0.0,5.0,0.5,0,6.0,6.0,618.2351112370001,5.0,phase_2,go,550.0,400.0,1.0,,,,,,,,,green,triangle
0.0,7.0,2.0,0,5.0,5.0,667.944908142,5.0,phase_2,go,550.0,400.0,1.0,,,,,,,,,orange,flipped triangle
0.0,4.0,4.0,0,6.0,6.0,767.602920532,5.0,phase_2,go,550.0,400.0,1.0,,,,,,,,,white,cross
0.0,7.0,2.0,0,6.0,6.0,567.586898804,5.0,phase_2,go,550.0,400.0,1.0,,,,,,,,,orange,flipped triangle
0.0,3.0,2.0,1,6.0,6.0,567.6960945129999,5.0,phase_2,go,550.0,400.0,1.0,,,,,,,,,yellow,line
0.0,8.0,4.0,1,5.0,5.0,817.633867264,5.0,phase_2,stop,600.0,400.0,3.0,,,,,,,,,blue,diamond
0.0,3.0,2.0,1,5.0,5.0,450.675010681,6.0,phase_2,stop,550.0,400.0,3.0,,,,,,,,,yellow,line
0.0,5.0,0.5,0,6.0,6.0,451.159954071,6.0,phase_2,go,550.0,400.0,1.0,,,,,,,,,green,triangle
0.0,5.0,0.5,0,5.0,5.0,433.897972107,6.0,phase_2,go,550.0,400.0,1.0,,,,,,,,,green,triangle
0.0,4.0,4.0,0,6.0,6.0,400.521993637,6.0,phase_2,go,550.0,400.0,1.0,,,,,,,,,white,cross
0.0,4.0,4.0,0,6.0,6.0,384.576797485,6.0,phase_2,go,550.0,400.0,1.0,,,,,,,,,white,cross
0.0,6.0,1.0,1,6.0,6.0,450.381040573,6.0,phase_2,go,550.0,400.0,1.0,,,,,,,,,magenta,hexagon
0.0,3.0,2.0,1,5.0,0.0,,6.0,phase_2,stop,500.0,400.0,4.0,,,,,,,,,yellow,line
0.0,8.0,4.0,1,6.0,0.0,,6.0,phase_2,stop,500.0,450.0,4.0,,,,,,,,,blue,diamond
0.0,5.0,0.5,0,5.0,5.0,601.238965988,6.0,phase_2,go,500.0,450.0,1.0,,,,,,,,,green,triangle
0.0,3.0,2.0,1,5.0,5.0,434.35716629,6.0,phase_2,stop,550.0,450.0,3.0,,,,,,,,,yellow,line
0.0,1.0,0.5,1,5.0,5.0,567.8749084469999,6.0,phase_2,stop,500.0,450.0,3.0,,,,,,,,,gray,circle
0.0,1.0,0.5,1,5.0,0.0,,6.0,phase_2,stop,450.0,450.0,4.0,,,,,,,,,gray,circle
0.0,7.0,2.0,0,5.0,5.0,634.349107742,6.0,phase_2,go,450.0,450.0,1.0,,,,,,,,,orange,flipped triangle
0.0,6.0,1.0,1,5.0,5.0,701.395988464,6.0,phase_2,stop,500.0,450.0,3.0,,,,,,,,,magenta,hexagon
0.0,3.0,2.0,1,6.0,0.0,,6.0,phase_2,stop,500.0,500.0,4.0,,,,,,,,,yellow,line
0.0,7.0,2.0,0,5.0,5.0,834.7878456120001,6.0,phase_2,go,500.0,500.0,1.0,,,,,,,,,orange,flipped triangle
0.0,7.0,2.0,0,6.0,6.0,751.5819072720001,6.0,phase_2,go,500.0,500.0,1.0,,,,,,,,,orange,flipped triangle
0.0,5.0,0.5,0,6.0,6.0,784.955978394,6.0,phase_2,go,500.0,500.0,1.0,,,,,,,,,green,triangle
0.0,3.0,2.0,1,6.0,6.0,534.6148014070001,6.0,phase_2,stop,500.0,550.0,3.0,,,,,,,,,yellow,line
0.0,4.0,4.0,0,5.0,5.0,785.071134567,6.0,phase_2,go,500.0,550.0,1.0,,,,,,,,,white,cross
0.0,1.0,0.5,1,5.0,0.0,,6.0,phase_2,stop,450.0,550.0,4.0,,,,,,,,,gray,circle
0.0,6.0,1.0,1,5.0,0.0,,6.0,phase_2,stop,500.0,550.0,4.0,,,,,,,,,magenta,hexagon
0.0,4.0,4.0,0,6.0,6.0,667.969942093,6.0,phase_2,go,500.0,550.0,1.0,,,,,,,,,white,cross
0.0,7.0,2.0,0,6.0,6.0,583.693981171,6.0,phase_2,go,500.0,550.0,1.0,,,,,,,,,orange,flipped triangle
0.0,4.0,4.0,0,6.0,6.0,417.181968689,6.0,phase_2,go,500.0,550.0,1.0,,,,,,,,,white,cross
0.0,1.0,0.5,1,6.0,6.0,700.9220123289999,6.0,phase_2,stop,500.0,500.0,3.0,,,,,,,,,gray,circle
0.0,6.0,1.0,1,5.0,0.0,,6.0,phase_2,stop,550.0,500.0,4.0,,,,,,,,,magenta,hexagon
0.0,5.0,0.5,0,6.0,6.0,651.1850357059999,6.0,phase_2,go,550.0,500.0,1.0,,,,,,,,,green,triangle
0.0,2.0,1.0,0,5.0,5.0,767.4510478970001,6.0,phase_2,go,550.0,500.0,1.0,,,,,,,,,cyan,square
0.0,3.0,2.0,1,6.0,6.0,584.828138351,6.0,phase_2,stop,550.0,450.0,3.0,,,,,,,,,yellow,line
0.0,8.0,4.0,1,5.0,0.0,,6.0,phase_2,stop,600.0,450.0,4.0,,,,,,,,,blue,diamond
0.0,6.0,1.0,1,6.0,6.0,568.051099777,6.0,phase_2,go,600.0,450.0,1.0,,,,,,,,,magenta,hexagon
0.0,7.0,2.0,0,6.0,6.0,651.2229442600001,6.0,phase_2,go,600.0,450.0,1.0,,,,,,,,,orange,flipped triangle
0.0,4.0,4.0,0,5.0,5.0,634.392976761,6.0,phase_2,go,600.0,450.0,1.0,,,,,,,,,white,cross
0.0,3.0,2.0,1,6.0,6.0,667.340993881,6.0,phase_2,go,600.0,450.0,1.0,,,,,,,,,yellow,line
0.0,5.0,0.5,0,5.0,5.0,734.330892563,6.0,phase_2,go,600.0,450.0,1.0,,,,,,,,,green,triangle
0.0,1.0,0.5,1,5.0,5.0,484.465837479,7.0,phase_2,stop,650.0,450.0,3.0,,,,,,,,,gray,circle
0.0,7.0,2.0,0,6.0,6.0,434.06414985699996,7.0,phase_2,go,650.0,450.0,1.0,,,,,,,,,orange,flipped triangle
0.0,3.0,2.0,1,6.0,0.0,,7.0,phase_2,stop,650.0,400.0,4.0,,,,,,,,,yellow,line
0.0,6.0,1.0,1,5.0,5.0,501.38092041000004,7.0,phase_2,stop,600.0,400.0,3.0,,,,,,,,,magenta,hexagon
0.0,7.0,2.0,0,6.0,6.0,617.396116257,7.0,phase_2,go,600.0,400.0,1.0,,,,,,,,,orange,flipped triangle
0.0,6.0,1.0,1,5.0,5.0,651.579141617,7.0,phase_2,go,600.0,400.0,1.0,,,,,,,,,magenta,hexagon
0.0,4.0,4.0,0,5.0,5.0,634.0739727020001,7.0,phase_2,go,600.0,400.0,1.0,,,,,,,,,white,cross
0.0,4.0,4.0,0,6.0,6.0,551.311969757,7.0,phase_2,go,600.0,400.0,1.0,,,,,,,,,white,cross
0.0,3.0,2.0,1,6.0,0.0,,7.0,phase_2,stop,600.0,450.0,4.0,,,,,,,,,yellow,line
0.0,6.0,1.0,1,6.0,0.0,,7.0,phase_2,stop,600.0,500.0,4.0,,,,,,,,,magenta,hexagon
0.0,1.0,0.5,1,6.0,6.0,484.334945679,7.0,phase_2,go,600.0,500.0,1.0,,,,,,,,,gray,circle
0.0,2.0,1.0,0,5.0,5.0,667.397975922,7.0,phase_2,go,600.0,500.0,1.0,,,,,,,,,cyan,square
0.0,1.0,0.5,1,5.0,5.0,684.414863586,7.0,phase_2,go,600.0,500.0,1.0,,,,,,,,,gray,circle
0.0,7.0,2.0,0,5.0,5.0,517.397880554,7.0,phase_2,go,600.0,500.0,1.0,,,,,,,,,orange,flipped triangle
0.0,7.0,2.0,0,6.0,6.0,434.01098251300004,7.0,phase_2,go,600.0,500.0,1.0,,,,,,,,,orange,flipped triangle
0.0,5.0,0.5,0,5.0,5.0,767.9140567779999,7.0,phase_2,go,600.0,500.0,1.0,,,,,,,,,green,triangle
0.0,1.0,0.5,1,5.0,5.0,684.612989426,7.0,phase_2,stop,550.0,500.0,3.0,,,,,,,,,gray,circle
0.0,1.0,0.5,1,5.0,5.0,517.6610946659999,7.0,phase_2,go,550.0,500.0,1.0,,,,,,,,,gray,circle
0.0,7.0,2.0,0,5.0,5.0,483.697891235,7.0,phase_2,go,550.0,500.0,1.0,,,,,,,,,orange,flipped triangle
0.0,6.0,1.0,1,6.0,6.0,584.841966629,7.0,phase_2,stop,550.0,550.0,3.0,,,,,,,,,magenta,hexagon
0.0,7.0,2.0,0,5.0,5.0,668.173074722,7.0,phase_2,go,550.0,550.0,1.0,,,,,,,,,orange,flipped triangle
0.0,2.0,1.0,0,5.0,5.0,585.050821304,7.0,phase_2,go,550.0,550.0,1.0,,,,,,,,,cyan,square
0.0,6.0,1.0,1,6.0,6.0,667.708158493,7.0,phase_2,stop,550.0,500.0,3.0,,,,,,,,,magenta,hexagon
0.0,6.0,1.0,1,6.0,6.0,633.9898109439999,7.0,phase_2,go,550.0,500.0,1.0,,,,,,,,,magenta,hexagon
0.0,4.0,4.0,0,5.0,5.0,884.811878204,7.0,phase_2,go,550.0,500.0,1.0,,,,,,,,,white,cross
0.0,8.0,4.0,1,5.0,0.0,,7.0,phase_2,stop,500.0,500.0,4.0,,,,,,,,,blue,diamond
0.0,8.0,4.0,1,6.0,6.0,534.486055374,7.0,phase_2,stop,500.0,450.0,3.0,,,,,,,,,blue,diamond
0.0,7.0,2.0,0,5.0,5.0,684.770107269,7.0,phase_2,go,500.0,450.0,1.0,,,,,,,,,orange,flipped triangle
0.0,7.0,2.0,0,6.0,6.0,684.452056885,7.0,phase_2,go,500.0,450.0,1.0,,,,,,,,,orange,flipped triangle
0.0,2.0,1.0,0,6.0,6.0,700.717926025,7.0,phase_2,go,500.0,450.0,1.0,,,,,,,,,cyan,square
0.0,3.0,2.0,1,6.0,0.0,,7.0,phase_2,stop,500.0,400.0,4.0,,,,,,,,,yellow,line
0.0,7.0,2.0,0,5.0,5.0,617.614984512,7.0,phase_2,go,500.0,400.0,1.0,,,,,,,,,orange,flipped triangle
0.0,1.0,0.5,1,6.0,0.0,,7.0,phase_2,stop,500.0,450.0,4.0,,,,,,,,,gray,circle
0.0,8.0,4.0,1,6.0,0.0,,7.0,phase_2,stop,500.0,500.0,4.0,,,,,,,,,blue,diamond
0.0,6.0,1.0,1,6.0,6.0,650.7120132450001,7.0,phase_2,stop,500.0,550.0,3.0,,,,,,,,,magenta,hexagon
0.0,2.0,1.0,0,5.0,5.0,701.0149955750001,7.0,phase_2,go,500.0,550.0,1.0,,,,,,,,,cyan,square
0.0,1.0,0.5,1,6.0,6.0,534.230947495,8.0,phase_2,stop,500.0,500.0,3.0,,,,,,,,,gray,circle
0.0,3.0,2.0,1,5.0,5.0,634.272098541,8.0,phase_2,stop,550.0,500.0,3.0,,,,,,,,,yellow,line
0.0,4.0,4.0,0,6.0,6.0,617.5830364230001,8.0,phase_2,go,550.0,500.0,1.0,,,,,,,,,white,cross
0.0,8.0,4.0,1,5.0,0.0,,8.0,phase_2,stop,500.0,500.0,4.0,,,,,,,,,blue,diamond
0.0,5.0,0.5,0,5.0,5.0,767.88020134,8.0,phase_2,go,500.0,500.0,1.0,,,,,,,,,green,triangle
0.0,3.0,2.0,1,5.0,5.0,701.308965683,8.0,phase_2,stop,550.0,500.0,3.0,,,,,,,,,yellow,line
0.0,7.0,2.0,0,6.0,6.0,751.249074936,8.0,phase_2,go,550.0,500.0,1.0,,,,,,,,,orange,flipped triangle
0.0,5.0,0.5,0,6.0,6.0,751.2750625609999,8.0,phase_2,go,550.0,500.0,1.0,,,,,,,,,green,triangle
0.0,4.0,4.0,0,5.0,5.0,718.003034592,8.0,phase_2,go,550.0,500.0,1.0,,,,,,,,,white,cross
0.0,3.0,2.0,1,5.0,0.0,,8.0,phase_2,stop,500.0,500.0,4.0,,,,,,,,,yellow,line
0.0,6.0,1.0,1,5.0,5.0,684.610128403,8.0,phase_2,go,500.0,500.0,1.0,,,,,,,,,magenta,hexagon
0.0,8.0,4.0,1,5.0,5.0,668.0409908290001,8.0,phase_2,stop,550.0,500.0,3.0,,,,,,,,,blue,diamond
0.0,3.0,2.0,1,5.0,0.0,,8.0,phase_2,stop,500.0,500.0,4.0,,,,,,,,,yellow,line
0.0,5.0,0.5,0,5.0,5.0,584.5279693599999,8.0,phase_2,go,500.0,500.0,1.0,,,,,,,,,green,triangle
0.0,2.0,1.0,0,5.0,5.0,683.8560104369999,8.0,phase_2,go,500.0,500.0,1.0,,,,,,,,,cyan,square
0.0,3.0,2.0,1,5.0,0.0,,8.0,phase_2,stop,550.0,500.0,4.0,,,,,,,,,yellow,line
0.0,6.0,1.0,1,6.0,6.0,601.570129395,8.0,phase_2,go,550.0,500.0,1.0,,,,,,,,,magenta,hexagon
0.0,2.0,1.0,0,5.0,5.0,834.818840027,8.0,phase_2,go,550.0,500.0,1.0,,,,,,,,,cyan,square
0.0,2.0,1.0,0,6.0,6.0,801.446914673,8.0,phase_2,go,550.0,500.0,1.0,,,,,,,,,cyan,square
0.0,8.0,4.0,1,6.0,6.0,584.450006485,8.0,phase_2,stop,550.0,450.0,3.0,,,,,,,,,blue,diamond
0.0,2.0,1.0,0,6.0,6.0,634.360074997,8.0,phase_2,go,550.0,450.0,1.0,,,,,,,,,cyan,square
0.0,6.0,1.0,1,5.0,5.0,634.3379020689999,8.0,phase_2,stop,600.0,450.0,3.0,,,,,,,,,magenta,hexagon
0.0,8.0,4.0,1,5.0,0.0,,8.0,phase_2,stop,550.0,450.0,4.0,,,,,,,,,blue,diamond
0.0,7.0,2.0,0,6.0,6.0,767.993927002,8.0,phase_2,go,550.0,450.0,1.0,,,,,,,,,orange,flipped triangle
0.0,1.0,0.5,1,6.0,0.0,,8.0,phase_2,stop,550.0,400.0,4.0,,,,,,,,,gray,circle
0.0,8.0,4.0,1,5.0,5.0,734.327793121,8.0,phase_2,stop,600.0,400.0,3.0,,,,,,,,,blue,diamond
0.0,2.0,1.0,0,6.0,6.0,816.932916641,8.0,phase_2,go,600.0,400.0,1.0,,,,,,,,,cyan,square
0.0,2.0,1.0,0,6.0,6.0,750.846147537,8.0,phase_2,go,600.0,400.0,1.0,,,,,,,,,cyan,square
0.0,8.0,4.0,1,5.0,5.0,584.156036377,8.0,phase_2,go,600.0,400.0,1.0,,,,,,,,,blue,diamond
0.0,7.0,2.0,0,6.0,6.0,718.0280685419999,8.0,phase_2,go,600.0,400.0,1.0,,,,,,,,,orange,flipped triangle
0.0,3.0,2.0,1,6.0,0.0,,8.0,phase_2,stop,600.0,450.0,4.0,,,,,,,,,yellow,line
0.0,2.0,1.0,0,6.0,6.0,651.031970978,8.0,phase_2,go,600.0,450.0,1.0,,,,,,,,,cyan,square
0.0,6.0,1.0,1,6.0,0.0,,8.0,phase_2,stop,600.0,500.0,4.0,,,,,,,,,magenta,hexagon
0.0,1.0,0.5,1,6.0,6.0,568.003892899,8.0,phase_2,stop,600.0,550.0,3.0,,,,,,,,,gray,circle
0.0,8.0,4.0,1,5.0,5.0,718.334913254,8.0,phase_2,stop,550.0,550.0,3.0,,,,,,,,,blue,diamond
0.0,5.0,0.5,0,6.0,6.0,684.998989105,8.0,phase_2,go,550.0,550.0,1.0,,,,,,,,,green,triangle
0.0,2.0,1.0,0,7.0,,,1.0,phase_3,,,,,0.0,,98.0,294.0,147.0,49.0,245.0,196.0,cyan,square
0.0,6.0,1.0,1,7.0,6.0,2636.52801514,1.0,phase_3,,,,,147.0,3.0,196.0,245.0,294.0,98.0,49.0,147.0,magenta,hexagon
0.0,3.0,2.0,1,7.0,2.0,3053.63106728,1.0,phase_3,,,,,88.0,2.0,44.0,88.0,264.0,220.0,132.0,176.0,yellow,line
0.0,7.0,2.0,0,7.0,3.0,1402.2979736300001,1.0,phase_3,,,,,195.0,5.0,234.0,156.0,195.0,117.0,78.0,39.0,orange,flipped triangle
0.0,8.0,4.0,1,7.0,4.0,1151.55696869,1.0,phase_3,,,,,170.0,5.0,34.0,102.0,136.0,170.0,68.0,204.0,blue,diamond
0.0,6.0,1.0,1,7.0,6.0,1134.59992409,1.0,phase_3,,,,,204.0,6.0,136.0,34.0,170.0,102.0,68.0,204.0,magenta,hexagon
0.0,5.0,0.5,0,7.0,1.0,1368.65401268,1.0,phase_3,,,,,49.0,1.0,49.0,294.0,245.0,196.0,147.0,98.0,green,triangle
0.0,4.0,4.0,0,7.0,3.0,1585.03007889,1.0,phase_3,,,,,117.0,3.0,39.0,195.0,117.0,156.0,234.0,78.0,white,cross
0.0,4.0,4.0,0,7.0,1.0,1301.58996582,1.0,phase_3,,,,,170.0,5.0,170.0,34.0,102.0,68.0,204.0,136.0,white,cross
0.0,7.0,2.0,0,7.0,6.0,1201.3370990800001,1.0,phase_3,,,,,220.0,5.0,264.0,132.0,44.0,176.0,88.0,220.0,orange,flipped triangle
0.0,1.0,0.5,1,7.0,2.0,1852.66304016,1.0,phase_3,,,,,39.0,1.0,195.0,39.0,156.0,78.0,117.0,234.0,gray,circle
0.0,7.0,2.0,0,7.0,1.0,1685.3911876700001,1.0,phase_3,,,,,54.0,1.0,54.0,162.0,108.0,324.0,270.0,216.0,orange,flipped triangle
0.0,5.0,0.5,0,7.0,5.0,1401.66091919,1.0,phase_3,,,,,88.0,2.0,132.0,264.0,220.0,176.0,88.0,44.0,green,triangle
0.0,4.0,4.0,0,7.0,4.0,1552.18601227,1.0,phase_3,,,,,216.0,4.0,324.0,54.0,162.0,216.0,108.0,270.0,white,cross
0.0,1.0,0.5,1,7.0,4.0,1051.45001411,1.0,phase_3,,,,,98.0,2.0,147.0,294.0,245.0,98.0,49.0,196.0,gray,circle
0.0,6.0,1.0,1,7.0,2.0,2102.84113884,1.0,phase_3,,,,,270.0,5.0,216.0,270.0,108.0,324.0,162.0,54.0,magenta,hexagon
0.0,6.0,1.0,1,7.0,3.0,1118.23701859,1.0,phase_3,,,,,270.0,5.0,324.0,54.0,270.0,108.0,162.0,216.0,magenta,hexagon
0.0,6.0,1.0,1,7.0,6.0,1384.79089737,1.0,phase_3,,,,,234.0,6.0,195.0,39.0,78.0,156.0,117.0,234.0,magenta,hexagon
0.0,5.0,0.5,0,7.0,4.0,1251.88207626,1.0,phase_3,,,,,108.0,2.0,162.0,270.0,324.0,108.0,54.0,216.0,green,triangle
0.0,3.0,2.0,1,7.0,1.0,1051.34987831,1.0,phase_3,,,,,44.0,1.0,44.0,176.0,132.0,220.0,88.0,264.0,yellow,line
0.0,5.0,0.5,0,7.0,4.0,1918.62010956,2.0,phase_3,,,,,136.0,4.0,204.0,170.0,102.0,136.0,68.0,34.0,green,triangle
0.0,6.0,1.0,1,7.0,5.0,1751.65200233,2.0,phase_3,,,,,245.0,5.0,98.0,49.0,196.0,294.0,245.0,147.0,magenta,hexagon
0.0,2.0,1.0,0,7.0,5.0,1418.4949397999999,2.0,phase_3,,,,,108.0,2.0,270.0,324.0,162.0,216.0,108.0,54.0,cyan,square
0.0,6.0,1.0,1,7.0,4.0,1167.9699420900001,2.0,phase_3,,,,,220.0,5.0,44.0,132.0,88.0,220.0,264.0,176.0,magenta,hexagon
0.0,6.0,1.0,1,7.0,2.0,1068.2199001299998,2.0,phase_3,,,,,204.0,6.0,170.0,204.0,102.0,136.0,68.0,34.0,magenta,hexagon
0.0,3.0,2.0,1,7.0,1.0,1618.92199516,2.0,phase_3,,,,,34.0,1.0,34.0,170.0,68.0,204.0,102.0,136.0,yellow,line
0.0,2.0,1.0,0,7.0,3.0,1435.40811539,2.0,phase_3,,,,,98.0,2.0,196.0,245.0,98.0,49.0,294.0,147.0,cyan,square
0.0,3.0,2.0,1,7.0,5.0,1785.45594215,2.0,phase_3,,,,,54.0,1.0,216.0,162.0,108.0,270.0,54.0,324.0,yellow,line
0.0,2.0,1.0,0,7.0,2.0,1568.73011589,2.0,phase_3,,,,,132.0,3.0,220.0,132.0,176.0,44.0,88.0,264.0,cyan,square
0.0,8.0,4.0,1,7.0,5.0,1585.60776711,2.0,phase_3,,,,,147.0,3.0,98.0,294.0,49.0,196.0,147.0,245.0,blue,diamond
0.0,8.0,4.0,1,7.0,1.0,1351.6159057599998,2.0,phase_3,,,,,216.0,4.0,216.0,54.0,324.0,108.0,270.0,162.0,blue,diamond
0.0,7.0,2.0,0,7.0,5.0,1168.5409545900002,2.0,phase_3,,,,,98.0,2.0,147.0,49.0,245.0,196.0,98.0,294.0,orange,flipped triangle
0.0,2.0,1.0,0,7.0,5.0,1168.14398766,2.0,phase_3,,,,,176.0,4.0,44.0,264.0,88.0,132.0,176.0,220.0,cyan,square
0.0,1.0,0.5,1,7.0,3.0,1418.43700409,2.0,phase_3,,,,,78.0,2.0,117.0,195.0,78.0,39.0,156.0,234.0,gray,circle
0.0,7.0,2.0,0,7.0,4.0,1168.0669784499999,2.0,phase_3,,,,,102.0,3.0,136.0,204.0,34.0,102.0,170.0,68.0,orange,flipped triangle
0.0,6.0,1.0,1,7.0,3.0,1535.17603874,2.0,phase_3,,,,,234.0,6.0,117.0,39.0,234.0,195.0,156.0,78.0,magenta,hexagon
0.0,1.0,0.5,1,7.0,6.0,1134.71293449,2.0,phase_3,,,,,49.0,1.0,196.0,147.0,245.0,98.0,294.0,49.0,gray,circle
0.0,5.0,0.5,0,7.0,1.0,1718.9719676999998,2.0,phase_3,,,,,176.0,4.0,176.0,88.0,220.0,44.0,264.0,132.0,green,triangle
0.0,8.0,4.0,1,7.0,4.0,2018.42713356,2.0,phase_3,,,,,195.0,5.0,78.0,39.0,156.0,195.0,117.0,234.0,blue,diamond
0.0,2.0,1.0,0,7.0,6.0,1084.76400375,2.0,phase_3,,,,,136.0,4.0,68.0,102.0,170.0,204.0,34.0,136.0,cyan,square
0.0,2.0,1.0,0,7.0,3.0,968.2281017299999,3.0,phase_3,,,,,162.0,3.0,324.0,270.0,162.0,54.0,108.0,216.0,cyan,square
0.0,2.0,1.0,0,7.0,5.0,1185.32109261,3.0,phase_3,,,,,170.0,5.0,102.0,136.0,204.0,34.0,170.0,68.0,cyan,square
0.0,3.0,2.0,1,7.0,4.0,767.836093903,3.0,phase_3,,,,,49.0,1.0,294.0,98.0,147.0,49.0,196.0,245.0,yellow,line
0.0,5.0,0.5,0,7.0,1.0,1802.08396912,3.0,phase_3,,,,,162.0,3.0,162.0,324.0,54.0,216.0,108.0,270.0,green,triangle
0.0,7.0,2.0,0,7.0,5.0,1318.39990616,3.0,phase_3,,,,,68.0,2.0,102.0,170.0,34.0,136.0,68.0,204.0,orange,flipped triangle
0.0,3.0,2.0,1,7.0,3.0,1084.597826,3.0,phase_3,,,,,54.0,1.0,108.0,216.0,54.0,324.0,162.0,270.0,yellow,line
0.0,2.0,1.0,0,7.0,5.0,1218.97101402,3.0,phase_3,,,,,195.0,5.0,78.0,117.0,39.0,234.0,195.0,156.0,cyan,square
0.0,4.0,4.0,0,7.0,2.0,1334.4540596000002,3.0,phase_3,,,,,204.0,6.0,170.0,204.0,102.0,68.0,34.0,136.0,white,cross
0.0,1.0,0.5,1,7.0,5.0,1151.5460014300002,3.0,phase_3,,,,,132.0,3.0,264.0,44.0,176.0,88.0,132.0,220.0,gray,circle
0.0,3.0,2.0,1,7.0,1.0,1367.5210475899999,3.0,phase_3,,,,,98.0,2.0,98.0,49.0,245.0,147.0,196.0,294.0,yellow,line
0.0,3.0,2.0,1,7.0,4.0,1402.0318985,3.0,phase_3,,,,,78.0,2.0,234.0,156.0,39.0,78.0,195.0,117.0,yellow,line
0.0,4.0,4.0,0,7.0,3.0,950.9220123289999,3.0,phase_3,,,,,132.0,3.0,176.0,220.0,132.0,44.0,88.0,264.0,white,cross
0.0,5.0,0.5,0,7.0,3.0,1234.74287987,3.0,phase_3,,,,,117.0,3.0,78.0,195.0,117.0,156.0,234.0,39.0,green,triangle
0.0,1.0,0.5,1,7.0,6.0,1551.79190636,3.0,phase_3,,,,,162.0,3.0,270.0,54.0,324.0,108.0,216.0,162.0,gray,circle
0.0,8.0,4.0,1,7.0,4.0,2119.47703362,3.0,phase_3,,,,,176.0,4.0,220.0,132.0,264.0,176.0,44.0,88.0,blue,diamond
0.0,8.0,4.0,1,7.0,4.0,1451.95102692,3.0,phase_3,,,,,216.0,4.0,162.0,108.0,324.0,216.0,270.0,54.0,blue,diamond
0.0,1.0,0.5,1,7.0,3.0,1300.88591576,3.0,phase_3,,,,,88.0,2.0,264.0,44.0,88.0,132.0,220.0,176.0,gray,circle
0.0,5.0,0.5,0,7.0,3.0,1118.14618111,3.0,phase_3,,,,,170.0,5.0,34.0,136.0,170.0,204.0,68.0,102.0,green,triangle
0.0,1.0,0.5,1,7.0,2.0,1368.70312691,3.0,phase_3,,,,,68.0,2.0,136.0,68.0,204.0,102.0,34.0,170.0,gray,circle
0.0,3.0,2.0,1,7.0,2.0,984.5938682560001,3.0,phase_3,,,,,78.0,2.0,39.0,78.0,195.0,234.0,156.0,117.0,yellow,line
0.0,2.0,1.0,0,7.0,3.0,984.718799591,4.0,phase_3,,,,,117.0,3.0,39.0,234.0,117.0,195.0,156.0,78.0,cyan,square
0.0,8.0,4.0,1,7.0,6.0,967.703819275,4.0,phase_3,,,,,264.0,6.0,176.0,44.0,220.0,132.0,88.0,264.0,blue,diamond
0.0,7.0,2.0,0,7.0,4.0,1201.6160488100002,4.0,phase_3,,,,,196.0,4.0,245.0,98.0,294.0,196.0,49.0,147.0,orange,flipped triangle
0.0,4.0,4.0,0,7.0,3.0,1201.17497444,4.0,phase_3,,,,,156.0,4.0,117.0,195.0,156.0,78.0,234.0,39.0,white,cross
0.0,6.0,1.0,1,7.0,3.0,1485.26406288,4.0,phase_3,,,,,264.0,6.0,176.0,132.0,264.0,44.0,220.0,88.0,magenta,hexagon
0.0,1.0,0.5,1,7.0,4.0,934.609889984,4.0,phase_3,,,,,136.0,4.0,68.0,204.0,102.0,136.0,170.0,34.0,gray,circle
0.0,8.0,4.0,1,7.0,1.0,1585.51597595,4.0,phase_3,,,,,196.0,4.0,196.0,49.0,147.0,98.0,245.0,294.0,blue,diamond
0.0,8.0,4.0,1,7.0,3.0,2119.3089485200003,4.0,phase_3,,,,,204.0,6.0,170.0,68.0,204.0,136.0,102.0,34.0,blue,diamond
0.0,4.0,4.0,0,7.0,5.0,2486.22512817,4.0,phase_3,,,,,196.0,4.0,49.0,245.0,294.0,98.0,196.0,147.0,white,cross
0.0,4.0,4.0,0,7.0,4.0,1218.23596954,4.0,phase_3,,,,,162.0,3.0,270.0,216.0,108.0,162.0,324.0,54.0,white,cross
0.0,3.0,2.0,1,7.0,5.0,1117.50793457,4.0,phase_3,,,,,68.0,2.0,136.0,170.0,204.0,102.0,68.0,34.0,yellow,line
0.0,7.0,2.0,0,7.0,5.0,1001.52611732,4.0,phase_3,,,,,78.0,2.0,156.0,195.0,117.0,39.0,78.0,234.0,orange,flipped triangle
0.0,5.0,0.5,0,7.0,6.0,1034.43288803,4.0,phase_3,,,,,78.0,2.0,156.0,117.0,195.0,39.0,234.0,78.0,green,triangle
0.0,4.0,4.0,0,7.0,5.0,1118.25799942,4.0,phase_3,,,,,176.0,4.0,132.0,220.0,44.0,88.0,176.0,264.0,white,cross
0.0,8.0,4.0,1,7.0,1.0,1335.0200653099998,4.0,phase_3,,,,,195.0,5.0,195.0,78.0,156.0,234.0,39.0,117.0,blue,diamond
0.0,7.0,2.0,0,7.0,4.0,1835.91198921,4.0,phase_3,,,,,162.0,3.0,216.0,270.0,108.0,162.0,54.0,324.0,orange,flipped triangle
0.0,4.0,4.0,0,7.0,1.0,2102.5390625,4.0,phase_3,,,,,147.0,3.0,147.0,196.0,294.0,98.0,49.0,245.0,white,cross
0.0,5.0,0.5,0,7.0,3.0,1618.70789528,4.0,phase_3,,,,,147.0,3.0,196.0,294.0,147.0,245.0,98.0,49.0,green,triangle
0.0,1.0,0.5,1,7.0,4.0,1418.37501526,4.0,phase_3,,,,,54.0,1.0,324.0,216.0,162.0,54.0,108.0,270.0,gray,circle
0.0,7.0,2.0,0,7.0,6.0,1385.53476334,4.0,phase_3,,,,,176.0,4.0,44.0,220.0,264.0,88.0,132.0,176.0,orange,flipped triangle
