stepwise_reward_magnitude,paired_with_stopping,quadrant,response,reaction_time,block,which_part,stop_signal_trial_type,left_SSD,right_SSD,accuracy,chosen_bidding_amount,chosen_bidding_level,possible_bid_1,possible_bid_2,possible_bid_3,possible_bid_4,possible_bid_5,possible_bid_6,color_text,shape_text
4.0,1,4.0,4.0,434.34691429099996,1.0,part_1,,,,,,,,,,,,,yellow,diamond
2.0,1,4.0,4.0,401.03888511699995,1.0,part_1,,,,,,,,,,,,,orange,triangle
4.0,0,1.0,1.0,368.327140808,1.0,part_1,,,,,,,,,,,,,magenta,hexagon
2.0,0,1.0,1.0,434.117078781,1.0,part_1,,,,,,,,,,,,,white,flipped triangle
4.0,1,4.0,4.0,417.466163635,1.0,part_1,,,,,,,,,,,,,yellow,diamond
1.0,0,2.0,2.0,500.592947006,1.0,part_1,,,,,,,,,,,,,cyan,line
2.0,0,4.0,4.0,468.60814094499995,1.0,part_1,,,,,,,,,,,,,white,flipped triangle
1.0,1,3.0,3.0,517.933130264,1.0,part_1,,,,,,,,,,,,,blue,square
2.0,1,2.0,2.0,434.104204178,1.0,part_1,,,,,,,,,,,,,orange,triangle
2.0,1,4.0,4.0,484.32302475,1.0,part_1,,,,,,,,,,,,,orange,triangle
1.0,1,2.0,2.0,401.179790497,1.0,part_1,,,,,,,,,,,,,blue,square
4.0,1,4.0,4.0,467.437028885,1.0,part_1,,,,,,,,,,,,,yellow,diamond
0.5,0,1.0,1.0,400.721073151,1.0,part_1,,,,,,,,,,,,,green,cross
1.0,1,3.0,3.0,450.615882874,1.0,part_1,,,,,,,,,,,,,blue,square
4.0,0,1.0,1.0,500.864982605,1.0,part_1,,,,,,,,,,,,,magenta,hexagon
0.5,1,2.0,2.0,483.771085739,1.0,part_1,,,,,,,,,,,,,gray,circle
2.0,0,3.0,3.0,450.62613487199997,1.0,part_1,,,,,,,,,,,,,white,flipped triangle
1.0,0,3.0,3.0,467.190980911,1.0,part_1,,,,,,,,,,,,,cyan,line
0.5,0,1.0,1.0,417.435884476,1.0,part_1,,,,,,,,,,,,,green,cross
2.0,1,1.0,1.0,500.960826874,1.0,part_1,,,,,,,,,,,,,orange,triangle
4.0,0,1.0,1.0,451.088905334,1.0,part_1,,,,,,,,,,,,,magenta,hexagon
4.0,0,4.0,4.0,417.594909668,1.0,part_1,,,,,,,,,,,,,magenta,hexagon
1.0,0,2.0,2.0,417.374134064,1.0,part_1,,,,,,,,,,,,,cyan,line
0.5,0,2.0,2.0,484.068155289,1.0,part_1,,,,,,,,,,,,,green,cross
2.0,0,4.0,4.0,467.887878418,1.0,part_1,,,,,,,,,,,,,white,flipped triangle
2.0,0,2.0,2.0,368.18003654499995,1.0,part_1,,,,,,,,,,,,,white,flipped triangle
1.0,1,3.0,3.0,350.749969482,1.0,part_1,,,,,,,,,,,,,blue,square
2.0,1,4.0,4.0,451.370000839,1.0,part_1,,,,,,,,,,,,,orange,triangle
0.5,1,3.0,3.0,500.98800659200003,1.0,part_1,,,,,,,,,,,,,gray,circle
0.5,0,4.0,4.0,434.20696258500004,1.0,part_1,,,,,,,,,,,,,green,cross
2.0,0,3.0,3.0,401.00288391099997,1.0,part_1,,,,,,,,,,,,,white,flipped triangle
0.5,1,2.0,2.0,367.48290062,1.0,part_1,,,,,,,,,,,,,gray,circle
2.0,1,1.0,1.0,467.548847198,1.0,part_1,,,,,,,,,,,,,orange,triangle
2.0,0,1.0,1.0,434.07917022699996,1.0,part_1,,,,,,,,,,,,,white,flipped triangle
1.0,0,4.0,4.0,468.219995499,1.0,part_1,,,,,,,,,,,,,cyan,line
0.5,1,4.0,4.0,451.216936111,1.0,part_1,,,,,,,,,,,,,gray,circle
2.0,1,2.0,2.0,401.527881622,1.0,part_1,,,,,,,,,,,,,orange,triangle
0.5,0,4.0,4.0,500.62084198,1.0,part_1,,,,,,,,,,,,,green,cross
2.0,1,3.0,3.0,667.991161346,1.0,part_1,,,,,,,,,,,,,orange,triangle
4.0,0,3.0,3.0,500.69999694800003,1.0,part_1,,,,,,,,,,,,,magenta,hexagon
0.5,0,3.0,3.0,417.734146118,1.0,part_1,,,,,,,,,,,,,green,cross
1.0,1,2.0,2.0,400.818824768,1.0,part_1,,,,,,,,,,,,,blue,square
2.0,1,1.0,1.0,384.118080139,1.0,part_1,,,,,,,,,,,,,orange,triangle
0.5,1,3.0,3.0,350.358009338,1.0,part_1,,,,,,,,,,,,,gray,circle
1.0,1,4.0,4.0,417.286157608,1.0,part_1,,,,,,,,,,,,,blue,square
4.0,0,1.0,1.0,384.170055389,1.0,part_1,,,,,,,,,,,,,magenta,hexagon
0.5,0,1.0,1.0,384.1381073,1.0,part_1,,,,,,,,,,,,,green,cross
1.0,0,2.0,2.0,350.491046906,1.0,part_1,,,,,,,,,,,,,cyan,line
2.0,1,2.0,2.0,367.191076279,1.0,part_1,,,,,,,,,,,,,orange,triangle
0.5,1,1.0,1.0,484.85398292499997,1.0,part_1,,,,,,,,,,,,,gray,circle
0.5,1,1.0,1.0,467.285871506,1.0,part_1,,,,,,,,,,,,,gray,circle
4.0,1,1.0,1.0,350.954771042,1.0,part_1,,,,,,,,,,,,,yellow,diamond
4.0,1,2.0,2.0,317.988872528,1.0,part_1,,,,,,,,,,,,,yellow,diamond
1.0,0,1.0,1.0,367.942094803,1.0,part_1,,,,,,,,,,,,,cyan,line
2.0,0,1.0,1.0,334.185838699,1.0,part_1,,,,,,,,,,,,,white,flipped triangle
2.0,1,4.0,4.0,417.28305816700004,1.0,part_1,,,,,,,,,,,,,orange,triangle
0.5,1,2.0,2.0,334.12599563599997,1.0,part_1,,,,,,,,,,,,,gray,circle
1.0,0,2.0,2.0,400.549888611,1.0,part_1,,,,,,,,,,,,,cyan,line
2.0,1,4.0,4.0,401.50213241600005,1.0,part_1,,,,,,,,,,,,,orange,triangle
0.5,0,1.0,1.0,384.121894836,1.0,part_1,,,,,,,,,,,,,green,cross
1.0,0,4.0,4.0,401.578187943,1.0,part_1,,,,,,,,,,,,,cyan,line
1.0,0,4.0,4.0,383.975028992,1.0,part_1,,,,,,,,,,,,,cyan,line
4.0,1,1.0,1.0,417.813062668,1.0,part_1,,,,,,,,,,,,,yellow,diamond
2.0,0,3.0,3.0,351.250886917,1.0,part_1,,,,,,,,,,,,,white,flipped triangle
0.5,0,1.0,1.0,351.152896881,1.0,part_1,,,,,,,,,,,,,green,cross
1.0,1,4.0,4.0,384.853124619,1.0,part_1,,,,,,,,,,,,,blue,square
2.0,0,4.0,4.0,417.11997985799997,1.0,part_1,,,,,,,,,,,,,white,flipped triangle
1.0,1,3.0,3.0,383.76617431600005,1.0,part_1,,,,,,,,,,,,,blue,square
2.0,1,2.0,2.0,350.689172745,1.0,part_1,,,,,,,,,,,,,orange,triangle
2.0,0,2.0,2.0,384.15288925199997,1.0,part_1,,,,,,,,,,,,,white,flipped triangle
4.0,0,1.0,1.0,401.082992554,1.0,part_1,,,,,,,,,,,,,magenta,hexagon
1.0,0,3.0,3.0,400.592088699,1.0,part_1,,,,,,,,,,,,,cyan,line
4.0,0,4.0,4.0,400.942802429,1.0,part_1,,,,,,,,,,,,,magenta,hexagon
2.0,1,2.0,2.0,333.873987198,1.0,part_1,,,,,,,,,,,,,orange,triangle
0.5,0,4.0,4.0,350.49414634699997,1.0,part_1,,,,,,,,,,,,,green,cross
1.0,1,2.0,2.0,351.133108139,1.0,part_1,,,,,,,,,,,,,blue,square
4.0,0,3.0,3.0,300.790071487,1.0,part_1,,,,,,,,,,,,,magenta,hexagon
0.5,1,3.0,3.0,384.004831314,1.0,part_1,,,,,,,,,,,,,gray,circle
1.0,1,3.0,3.0,350.378036499,1.0,part_1,,,,,,,,,,,,,blue,square
4.0,0,2.0,2.0,384.037017822,1.0,part_1,,,,,,,,,,,,,magenta,hexagon
1.0,1,3.0,3.0,383.84819030799997,1.0,part_1,,,,,,,,,,,,,blue,square
4.0,1,4.0,4.0,367.92397499099997,1.0,part_1,,,,,,,,,,,,,yellow,diamond
2.0,0,3.0,3.0,434.31711196900005,1.0,part_1,,,,,,,,,,,,,white,flipped triangle
0.5,0,3.0,3.0,434.615850449,1.0,part_1,,,,,,,,,,,,,green,cross
2.0,0,1.0,1.0,417.546987534,1.0,part_1,,,,,,,,,,,,,white,flipped triangle
1.0,0,3.0,3.0,367.479085922,1.0,part_1,,,,,,,,,,,,,cyan,line
1.0,1,3.0,3.0,367.23804473900003,1.0,part_1,,,,,,,,,,,,,blue,square
1.0,0,2.0,2.0,383.91709327700005,1.0,part_1,,,,,,,,,,,,,cyan,line
0.5,0,2.0,2.0,400.728940964,1.0,part_1,,,,,,,,,,,,,green,cross
4.0,1,2.0,2.0,450.845956802,1.0,part_1,,,,,,,,,,,,,yellow,diamond
2.0,1,1.0,1.0,434.154033661,1.0,part_1,,,,,,,,,,,,,orange,triangle
4.0,1,2.0,2.0,401.224136353,1.0,part_1,,,,,,,,,,,,,yellow,diamond
4.0,1,1.0,1.0,333.736896515,1.0,part_1,,,,,,,,,,,,,yellow,diamond
0.5,1,4.0,4.0,400.814056396,1.0,part_1,,,,,,,,,,,,,gray,circle
4.0,0,3.0,3.0,483.76297950699995,1.0,part_1,,,,,,,,,,,,,magenta,hexagon
1.0,0,3.0,3.0,400.937080383,1.0,part_1,,,,,,,,,,,,,cyan,line
4.0,0,3.0,3.0,383.901834488,1.0,part_1,,,,,,,,,,,,,magenta,hexagon
2.0,1,2.0,2.0,350.37612915,1.0,part_1,,,,,,,,,,,,,orange,triangle
1.0,0,4.0,4.0,350.676059723,1.0,part_1,,,,,,,,,,,,,cyan,line
1.0,0,1.0,1.0,450.690031052,1.0,part_1,,,,,,,,,,,,,cyan,line
1.0,1,4.0,4.0,567.8629875180001,2.0,part_1,,,,,,,,,,,,,blue,square
1.0,1,3.0,3.0,351.109981537,2.0,part_1,,,,,,,,,,,,,blue,square
2.0,1,1.0,1.0,350.569009781,2.0,part_1,,,,,,,,,,,,,orange,triangle
2.0,1,3.0,3.0,350.79598426800004,2.0,part_1,,,,,,,,,,,,,orange,triangle
2.0,1,4.0,4.0,417.751073837,2.0,part_1,,,,,,,,,,,,,orange,triangle
4.0,1,4.0,4.0,384.72580909699997,2.0,part_1,,,,,,,,,,,,,yellow,diamond
2.0,0,1.0,1.0,367.18082427999997,2.0,part_1,,,,,,,,,,,,,white,flipped triangle
1.0,0,2.0,2.0,400.789022446,2.0,part_1,,,,,,,,,,,,,cyan,line
1.0,0,1.0,1.0,384.386062622,2.0,part_1,,,,,,,,,,,,,cyan,line
4.0,1,2.0,2.0,417.621850967,2.0,part_1,,,,,,,,,,,,,yellow,diamond
4.0,0,4.0,4.0,317.803144455,2.0,part_1,,,,,,,,,,,,,magenta,hexagon
0.5,0,3.0,3.0,267.06695556600005,2.0,part_1,,,,,,,,,,,,,green,cross
0.5,1,3.0,3.0,384.320020676,2.0,part_1,,,,,,,,,,,,,gray,circle
2.0,0,4.0,4.0,333.962202072,2.0,part_1,,,,,,,,,,,,,white,flipped triangle
4.0,1,4.0,4.0,451.200008392,2.0,part_1,,,,,,,,,,,,,yellow,diamond
2.0,0,4.0,4.0,400.540113449,2.0,part_1,,,,,,,,,,,,,white,flipped triangle
4.0,1,1.0,1.0,334.069013596,2.0,part_1,,,,,,,,,,,,,yellow,diamond
0.5,0,2.0,2.0,367.61713027999997,2.0,part_1,,,,,,,,,,,,,green,cross
4.0,0,2.0,2.0,383.750915527,2.0,part_1,,,,,,,,,,,,,magenta,hexagon
2.0,0,1.0,1.0,333.73785018899997,2.0,part_1,,,,,,,,,,,,,white,flipped triangle
2.0,0,2.0,2.0,417.669057846,2.0,part_1,,,,,,,,,,,,,white,flipped triangle
1.0,0,4.0,4.0,384.302854538,2.0,part_1,,,,,,,,,,,,,cyan,line
4.0,0,4.0,4.0,417.523145676,2.0,part_1,,,,,,,,,,,,,magenta,hexagon
2.0,1,4.0,4.0,533.684968948,2.0,part_1,,,,,,,,,,,,,orange,triangle
0.5,1,2.0,2.0,500.37503242500003,2.0,part_1,,,,,,,,,,,,,gray,circle
4.0,1,4.0,4.0,367.294073105,2.0,part_1,,,,,,,,,,,,,yellow,diamond
0.5,0,4.0,4.0,401.09205246,2.0,part_1,,,,,,,,,,,,,green,cross
4.0,0,2.0,2.0,367.491006851,2.0,part_1,,,,,,,,,,,,,magenta,hexagon
1.0,0,2.0,2.0,367.124080658,2.0,part_1,,,,,,,,,,,,,cyan,line
0.5,1,1.0,1.0,417.44208335900004,2.0,part_1,,,,,,,,,,,,,gray,circle
2.0,1,2.0,2.0,367.50698089599996,2.0,part_1,,,,,,,,,,,,,orange,triangle
1.0,1,2.0,2.0,383.815050125,2.0,part_1,,,,,,,,,,,,,blue,square
4.0,0,4.0,4.0,367.942094803,2.0,part_1,,,,,,,,,,,,,magenta,hexagon
1.0,0,1.0,1.0,400.853157043,2.0,part_1,,,,,,,,,,,,,cyan,line
1.0,1,4.0,4.0,384.063005447,2.0,part_1,,,,,,,,,,,,,blue,square
2.0,1,2.0,2.0,417.641162872,2.0,part_1,,,,,,,,,,,,,orange,triangle
4.0,0,3.0,3.0,300.93884468100003,2.0,part_1,,,,,,,,,,,,,magenta,hexagon
1.0,0,1.0,1.0,417.237043381,2.0,part_1,,,,,,,,,,,,,cyan,line
1.0,1,1.0,1.0,450.880050659,2.0,part_1,,,,,,,,,,,,,blue,square
1.0,0,3.0,3.0,417.340040207,2.0,part_1,,,,,,,,,,,,,cyan,line
4.0,0,4.0,4.0,700.469970703,2.0,part_1,,,,,,,,,,,,,magenta,hexagon
0.5,1,2.0,2.0,384.083986282,2.0,part_1,,,,,,,,,,,,,gray,circle
4.0,1,3.0,3.0,351.03392601,2.0,part_1,,,,,,,,,,,,,yellow,diamond
1.0,1,3.0,3.0,467.64993667600004,2.0,part_1,,,,,,,,,,,,,blue,square
1.0,1,4.0,4.0,400.779008865,2.0,part_1,,,,,,,,,,,,,blue,square
0.5,1,1.0,1.0,400.82597732500005,2.0,part_1,,,,,,,,,,,,,gray,circle
1.0,0,2.0,2.0,367.60282516499996,2.0,part_1,,,,,,,,,,,,,cyan,line
0.5,0,4.0,4.0,467.844009399,2.0,part_1,,,,,,,,,,,,,green,cross
0.5,0,1.0,1.0,467.16403961199995,2.0,part_1,,,,,,,,,,,,,green,cross
0.5,1,2.0,2.0,417.49787330600003,2.0,part_1,,,,,,,,,,,,,gray,circle
0.5,1,1.0,1.0,418.48087310799997,2.0,part_1,,,,,,,,,,,,,gray,circle
0.5,0,3.0,3.0,334.07998085,2.0,part_1,,,,,,,,,,,,,green,cross
1.0,0,2.0,2.0,517.468929291,2.0,part_1,,,,,,,,,,,,,cyan,line
2.0,1,3.0,3.0,367.07901954700003,2.0,part_1,,,,,,,,,,,,,orange,triangle
0.5,0,2.0,2.0,418.04599762,2.0,part_1,,,,,,,,,,,,,green,cross
0.5,1,2.0,2.0,383.946180344,2.0,part_1,,,,,,,,,,,,,gray,circle
2.0,0,4.0,4.0,383.959054947,2.0,part_1,,,,,,,,,,,,,white,flipped triangle
4.0,0,3.0,3.0,368.278026581,2.0,part_1,,,,,,,,,,,,,magenta,hexagon
4.0,1,4.0,4.0,467.37194061300005,2.0,part_1,,,,,,,,,,,,,yellow,diamond
0.5,1,2.0,2.0,384.402036667,2.0,part_1,,,,,,,,,,,,,gray,circle
4.0,1,1.0,1.0,418.167829514,2.0,part_1,,,,,,,,,,,,,yellow,diamond
1.0,0,4.0,4.0,417.69695282000004,2.0,part_1,,,,,,,,,,,,,cyan,line
1.0,0,1.0,1.0,384.402036667,2.0,part_1,,,,,,,,,,,,,cyan,line
0.5,1,3.0,3.0,350.68202018700003,2.0,part_1,,,,,,,,,,,,,gray,circle
0.5,1,4.0,4.0,350.966930389,2.0,part_1,,,,,,,,,,,,,gray,circle
4.0,1,1.0,1.0,350.89302063,2.0,part_1,,,,,,,,,,,,,yellow,diamond
4.0,0,1.0,1.0,384.366989136,2.0,part_1,,,,,,,,,,,,,magenta,hexagon
4.0,0,1.0,1.0,367.233037949,2.0,part_1,,,,,,,,,,,,,magenta,hexagon
1.0,1,2.0,2.0,367.123842239,2.0,part_1,,,,,,,,,,,,,blue,square
0.5,1,2.0,2.0,367.17414856000005,2.0,part_1,,,,,,,,,,,,,gray,circle
0.5,1,1.0,1.0,367.123126984,2.0,part_1,,,,,,,,,,,,,gray,circle
1.0,1,3.0,3.0,384.40108299300005,2.0,part_1,,,,,,,,,,,,,blue,square
4.0,1,2.0,2.0,417.480945587,2.0,part_1,,,,,,,,,,,,,yellow,diamond
0.5,1,3.0,3.0,333.659887314,2.0,part_1,,,,,,,,,,,,,gray,circle
0.5,1,3.0,3.0,400.959968567,2.0,part_1,,,,,,,,,,,,,gray,circle
2.0,1,3.0,3.0,334.084033966,2.0,part_1,,,,,,,,,,,,,orange,triangle
2.0,1,1.0,1.0,350.660800934,2.0,part_1,,,,,,,,,,,,,orange,triangle
2.0,0,1.0,1.0,384.61494445799997,2.0,part_1,,,,,,,,,,,,,white,flipped triangle
1.0,0,3.0,3.0,384.054899216,2.0,part_1,,,,,,,,,,,,,cyan,line
4.0,1,3.0,3.0,384.468078613,2.0,part_1,,,,,,,,,,,,,yellow,diamond
2.0,0,2.0,2.0,451.376914978,2.0,part_1,,,,,,,,,,,,,white,flipped triangle
2.0,0,3.0,3.0,367.32602119399996,2.0,part_1,,,,,,,,,,,,,white,flipped triangle
4.0,0,2.0,2.0,367.444038391,2.0,part_1,,,,,,,,,,,,,magenta,hexagon
2.0,0,3.0,3.0,350.82101821900005,2.0,part_1,,,,,,,,,,,,,white,flipped triangle
0.5,0,4.0,4.0,467.716932297,2.0,part_1,,,,,,,,,,,,,green,cross
0.5,0,4.0,4.0,350.97694397000004,2.0,part_1,,,,,,,,,,,,,green,cross
2.0,0,3.0,3.0,351.256132126,2.0,part_1,,,,,,,,,,,,,white,flipped triangle
2.0,1,4.0,4.0,401.023864746,2.0,part_1,,,,,,,,,,,,,orange,triangle
1.0,0,1.0,1.0,367.520093918,2.0,part_1,,,,,,,,,,,,,cyan,line
2.0,0,1.0,1.0,418.05291175800005,2.0,part_1,,,,,,,,,,,,,white,flipped triangle
4.0,1,3.0,3.0,367.839813232,2.0,part_1,,,,,,,,,,,,,yellow,diamond
1.0,1,3.0,3.0,368.209123611,2.0,part_1,,,,,,,,,,,,,blue,square
1.0,1,1.0,1.0,400.722026825,2.0,part_1,,,,,,,,,,,,,blue,square
2.0,1,1.0,1.0,350.382089615,2.0,part_1,,,,,,,,,,,,,orange,triangle
0.5,1,3.0,3.0,400.809049606,2.0,part_1,,,,,,,,,,,,,gray,circle
0.5,0,2.0,2.0,334.52296257,2.0,part_1,,,,,,,,,,,,,green,cross
4.0,0,3.0,3.0,350.382089615,2.0,part_1,,,,,,,,,,,,,magenta,hexagon
2.0,0,4.0,4.0,484.229803085,2.0,part_1,,,,,,,,,,,,,white,flipped triangle
2.0,0,1.0,1.0,450.736999512,2.0,part_1,,,,,,,,,,,,,white,flipped triangle
2.0,0,2.0,2.0,451.335906982,2.0,part_1,,,,,,,,,,,,,white,flipped triangle
0.5,0,3.0,3.0,701.326847076,3.0,part_1,,,,,,,,,,,,,green,cross
0.5,1,2.0,2.0,383.829116821,3.0,part_1,,,,,,,,,,,,,gray,circle
4.0,1,3.0,3.0,383.675813675,3.0,part_1,,,,,,,,,,,,,yellow,diamond
0.5,0,4.0,4.0,367.21897125199996,3.0,part_1,,,,,,,,,,,,,green,cross
1.0,1,2.0,2.0,351.12285614,3.0,part_1,,,,,,,,,,,,,blue,square
1.0,0,2.0,2.0,367.376089096,3.0,part_1,,,,,,,,,,,,,cyan,line
4.0,1,1.0,1.0,400.814056396,3.0,part_1,,,,,,,,,,,,,yellow,diamond
2.0,1,1.0,1.0,350.95000267,3.0,part_1,,,,,,,,,,,,,orange,triangle
0.5,1,4.0,4.0,367.996931076,3.0,part_1,,,,,,,,,,,,,gray,circle
2.0,0,1.0,1.0,334.1319561,3.0,part_1,,,,,,,,,,,,,white,flipped triangle
2.0,1,4.0,4.0,367.327928543,3.0,part_1,,,,,,,,,,,,,orange,triangle
1.0,1,1.0,1.0,367.313146591,3.0,part_1,,,,,,,,,,,,,blue,square
0.5,0,1.0,1.0,384.722948074,3.0,part_1,,,,,,,,,,,,,green,cross
0.5,0,2.0,2.0,367.44499206499995,3.0,part_1,,,,,,,,,,,,,green,cross
1.0,0,3.0,3.0,334.115982056,3.0,part_1,,,,,,,,,,,,,cyan,line
4.0,0,2.0,2.0,334.656000137,3.0,part_1,,,,,,,,,,,,,magenta,hexagon
0.5,0,3.0,3.0,351.250886917,3.0,part_1,,,,,,,,,,,,,green,cross
1.0,1,1.0,1.0,350.59094429,3.0,part_1,,,,,,,,,,,,,blue,square
0.5,0,4.0,4.0,383.986949921,3.0,part_1,,,,,,,,,,,,,green,cross
0.5,0,2.0,2.0,350.956916809,3.0,part_1,,,,,,,,,,,,,green,cross
4.0,0,1.0,1.0,351.360082626,3.0,part_1,,,,,,,,,,,,,magenta,hexagon
0.5,0,2.0,2.0,384.462118149,3.0,part_1,,,,,,,,,,,,,green,cross
0.5,0,2.0,2.0,384.53578949,3.0,part_1,,,,,,,,,,,,,green,cross
1.0,1,3.0,3.0,350.625038147,3.0,part_1,,,,,,,,,,,,,blue,square
2.0,1,1.0,1.0,451.078891754,3.0,part_1,,,,,,,,,,,,,orange,triangle
4.0,1,1.0,1.0,434.005022049,3.0,part_1,,,,,,,,,,,,,yellow,diamond
2.0,0,1.0,1.0,384.616136551,3.0,part_1,,,,,,,,,,,,,white,flipped triangle
4.0,1,2.0,2.0,367.383956909,3.0,part_1,,,,,,,,,,,,,yellow,diamond
0.5,1,3.0,3.0,334.319114685,3.0,part_1,,,,,,,,,,,,,gray,circle
4.0,1,1.0,1.0,367.428064346,3.0,part_1,,,,,,,,,,,,,yellow,diamond
4.0,0,2.0,2.0,317.821025848,3.0,part_1,,,,,,,,,,,,,magenta,hexagon
4.0,0,1.0,1.0,334.47504043600003,3.0,part_1,,,,,,,,,,,,,magenta,hexagon
0.5,1,3.0,3.0,400.91180801400003,3.0,part_1,,,,,,,,,,,,,gray,circle
4.0,0,4.0,4.0,350.938081741,3.0,part_1,,,,,,,,,,,,,magenta,hexagon
4.0,1,3.0,3.0,450.84095001199995,3.0,part_1,,,,,,,,,,,,,yellow,diamond
1.0,1,2.0,2.0,351.088047028,3.0,part_1,,,,,,,,,,,,,blue,square
0.5,1,2.0,2.0,351.05395317100005,3.0,part_1,,,,,,,,,,,,,gray,circle
1.0,1,2.0,2.0,350.43787956200003,3.0,part_1,,,,,,,,,,,,,blue,square
2.0,1,1.0,1.0,334.614992142,3.0,part_1,,,,,,,,,,,,,orange,triangle
2.0,1,1.0,1.0,384.266138077,3.0,part_1,,,,,,,,,,,,,orange,triangle
0.5,0,3.0,3.0,367.515087128,3.0,part_1,,,,,,,,,,,,,green,cross
2.0,0,1.0,1.0,334.10501480100004,3.0,part_1,,,,,,,,,,,,,white,flipped triangle
4.0,1,3.0,3.0,351.57585143999995,3.0,part_1,,,,,,,,,,,,,yellow,diamond
0.5,0,1.0,1.0,351.027965546,3.0,part_1,,,,,,,,,,,,,green,cross
2.0,1,4.0,4.0,400.24900436400003,3.0,part_1,,,,,,,,,,,,,orange,triangle
4.0,1,3.0,3.0,350.999116898,3.0,part_1,,,,,,,,,,,,,yellow,diamond
4.0,1,4.0,4.0,400.91300010699996,3.0,part_1,,,,,,,,,,,,,yellow,diamond
1.0,0,3.0,3.0,433.881998062,3.0,part_1,,,,,,,,,,,,,cyan,line
0.5,1,3.0,3.0,334.409952164,3.0,part_1,,,,,,,,,,,,,gray,circle
1.0,0,3.0,3.0,334.434986115,3.0,part_1,,,,,,,,,,,,,cyan,line
0.5,1,2.0,2.0,368.020057678,3.0,part_1,,,,,,,,,,,,,gray,circle
2.0,1,1.0,1.0,451.236963272,3.0,part_1,,,,,,,,,,,,,orange,triangle
0.5,0,1.0,1.0,401.224136353,3.0,part_1,,,,,,,,,,,,,green,cross
1.0,1,2.0,2.0,334.223985672,3.0,part_1,,,,,,,,,,,,,blue,square
2.0,0,3.0,3.0,334.183931351,3.0,part_1,,,,,,,,,,,,,white,flipped triangle
4.0,1,3.0,3.0,350.800037384,3.0,part_1,,,,,,,,,,,,,yellow,diamond
1.0,0,3.0,3.0,350.54898262,3.0,part_1,,,,,,,,,,,,,cyan,line
0.5,0,2.0,2.0,384.124040604,3.0,part_1,,,,,,,,,,,,,green,cross
1.0,1,1.0,1.0,350.95405578599997,3.0,part_1,,,,,,,,,,,,,blue,square
2.0,1,4.0,4.0,334.295034409,3.0,part_1,,,,,,,,,,,,,orange,triangle
2.0,0,3.0,3.0,300.840854645,3.0,part_1,,,,,,,,,,,,,white,flipped triangle
4.0,0,1.0,1.0,333.99605751,3.0,part_1,,,,,,,,,,,,,magenta,hexagon
1.0,0,3.0,3.0,351.125001907,3.0,part_1,,,,,,,,,,,,,cyan,line
1.0,1,3.0,3.0,317.506074905,3.0,part_1,,,,,,,,,,,,,blue,square
1.0,1,4.0,4.0,367.798089981,3.0,part_1,,,,,,,,,,,,,blue,square
0.5,0,4.0,4.0,350.845098495,3.0,part_1,,,,,,,,,,,,,green,cross
4.0,1,2.0,2.0,334.327936172,3.0,part_1,,,,,,,,,,,,,yellow,diamond
2.0,1,1.0,1.0,434.267997742,3.0,part_1,,,,,,,,,,,,,orange,triangle
4.0,0,3.0,3.0,350.927114487,3.0,part_1,,,,,,,,,,,,,magenta,hexagon
2.0,1,4.0,4.0,317.290067673,3.0,part_1,,,,,,,,,,,,,orange,triangle
2.0,1,3.0,3.0,367.251873016,3.0,part_1,,,,,,,,,,,,,orange,triangle
1.0,0,2.0,2.0,434.35907363900003,3.0,part_1,,,,,,,,,,,,,cyan,line
0.5,0,4.0,4.0,367.40398407000004,3.0,part_1,,,,,,,,,,,,,green,cross
2.0,0,4.0,4.0,400.965929031,3.0,part_1,,,,,,,,,,,,,white,flipped triangle
4.0,1,2.0,2.0,400.904893875,3.0,part_1,,,,,,,,,,,,,yellow,diamond
1.0,1,4.0,4.0,384.24992561299996,3.0,part_1,,,,,,,,,,,,,blue,square
1.0,1,3.0,3.0,334.585905075,3.0,part_1,,,,,,,,,,,,,blue,square
2.0,0,1.0,1.0,384.41300392200003,3.0,part_1,,,,,,,,,,,,,white,flipped triangle
1.0,1,4.0,4.0,384.16886329700003,3.0,part_1,,,,,,,,,,,,,blue,square
4.0,0,4.0,4.0,384.32097435000003,3.0,part_1,,,,,,,,,,,,,magenta,hexagon
0.5,0,2.0,2.0,368.415117264,3.0,part_1,,,,,,,,,,,,,green,cross
1.0,0,1.0,1.0,401.238203049,3.0,part_1,,,,,,,,,,,,,cyan,line
1.0,0,4.0,4.0,317.911148071,3.0,part_1,,,,,,,,,,,,,cyan,line
1.0,0,1.0,1.0,351.144075394,3.0,part_1,,,,,,,,,,,,,cyan,line
4.0,0,4.0,4.0,317.48700141899997,3.0,part_1,,,,,,,,,,,,,magenta,hexagon
1.0,1,4.0,4.0,400.911092758,3.0,part_1,,,,,,,,,,,,,blue,square
2.0,1,3.0,3.0,300.659894943,3.0,part_1,,,,,,,,,,,,,orange,triangle
0.5,0,3.0,3.0,367.40088462800003,3.0,part_1,,,,,,,,,,,,,green,cross
0.5,0,2.0,2.0,434.65304374699997,3.0,part_1,,,,,,,,,,,,,green,cross
4.0,0,1.0,1.0,534.94310379,3.0,part_1,,,,,,,,,,,,,magenta,hexagon
1.0,0,4.0,4.0,300.785064697,3.0,part_1,,,,,,,,,,,,,cyan,line
0.5,1,4.0,4.0,367.427825928,3.0,part_1,,,,,,,,,,,,,gray,circle
0.5,1,2.0,2.0,384.479045868,3.0,part_1,,,,,,,,,,,,,gray,circle
2.0,0,2.0,2.0,350.713014603,3.0,part_1,,,,,,,,,,,,,white,flipped triangle
2.0,1,4.0,4.0,383.24785232500005,3.0,part_1,,,,,,,,,,,,,orange,triangle
4.0,0,4.0,4.0,417.516946793,3.0,part_1,,,,,,,,,,,,,magenta,hexagon
1.0,1,2.0,2.0,383.991956711,3.0,part_1,,,,,,,,,,,,,blue,square
4.0,0,2.0,2.0,417.839050293,3.0,part_1,,,,,,,,,,,,,magenta,hexagon
2.0,0,4.0,4.0,417.25683212300004,3.0,part_1,,,,,,,,,,,,,white,flipped triangle
1.0,1,4.0,4.0,383.973836899,3.0,part_1,,,,,,,,,,,,,blue,square
4.0,1,2.0,2.0,584.3930244449999,4.0,part_1,,,,,,,,,,,,,yellow,diamond
0.5,1,2.0,2.0,367.426156998,4.0,part_1,,,,,,,,,,,,,gray,circle
1.0,0,3.0,3.0,351.244211197,4.0,part_1,,,,,,,,,,,,,cyan,line
2.0,0,3.0,3.0,334.30814742999996,4.0,part_1,,,,,,,,,,,,,white,flipped triangle
1.0,1,4.0,4.0,300.736904144,4.0,part_1,,,,,,,,,,,,,blue,square
4.0,1,2.0,2.0,367.760181427,4.0,part_1,,,,,,,,,,,,,yellow,diamond
4.0,0,4.0,4.0,333.611965179,4.0,part_1,,,,,,,,,,,,,magenta,hexagon
2.0,1,2.0,2.0,367.686986923,4.0,part_1,,,,,,,,,,,,,orange,triangle
4.0,1,2.0,2.0,384.18507576,4.0,part_1,,,,,,,,,,,,,yellow,diamond
1.0,0,1.0,1.0,383.894920349,4.0,part_1,,,,,,,,,,,,,cyan,line
1.0,0,3.0,3.0,368.088006973,4.0,part_1,,,,,,,,,,,,,cyan,line
1.0,1,2.0,2.0,350.57497024500003,4.0,part_1,,,,,,,,,,,,,blue,square
4.0,0,4.0,4.0,351.01699829100005,4.0,part_1,,,,,,,,,,,,,magenta,hexagon
0.5,1,1.0,1.0,383.789777756,4.0,part_1,,,,,,,,,,,,,gray,circle
0.5,1,2.0,2.0,333.817958832,4.0,part_1,,,,,,,,,,,,,gray,circle
0.5,0,4.0,4.0,367.274999619,4.0,part_1,,,,,,,,,,,,,green,cross
1.0,1,4.0,4.0,367.847919464,4.0,part_1,,,,,,,,,,,,,blue,square
4.0,0,4.0,4.0,400.655984879,4.0,part_1,,,,,,,,,,,,,magenta,hexagon
1.0,0,2.0,2.0,367.06089973400003,4.0,part_1,,,,,,,,,,,,,cyan,line
2.0,1,4.0,4.0,367.64407157899996,4.0,part_1,,,,,,,,,,,,,orange,triangle
2.0,0,1.0,1.0,400.780916214,4.0,part_1,,,,,,,,,,,,,white,flipped triangle
4.0,1,3.0,3.0,334.53011512800003,4.0,part_1,,,,,,,,,,,,,yellow,diamond
2.0,0,1.0,1.0,367.70987510699996,4.0,part_1,,,,,,,,,,,,,white,flipped triangle
4.0,0,3.0,3.0,334.409952164,4.0,part_1,,,,,,,,,,,,,magenta,hexagon
1.0,0,4.0,4.0,333.750963211,4.0,part_1,,,,,,,,,,,,,cyan,line
4.0,1,2.0,2.0,334.232091904,4.0,part_1,,,,,,,,,,,,,yellow,diamond
4.0,0,1.0,1.0,350.99792480499997,4.0,part_1,,,,,,,,,,,,,magenta,hexagon
1.0,1,3.0,3.0,351.145029068,4.0,part_1,,,,,,,,,,,,,blue,square
0.5,1,4.0,4.0,301.052093506,4.0,part_1,,,,,,,,,,,,,gray,circle
4.0,0,4.0,4.0,384.555101395,4.0,part_1,,,,,,,,,,,,,magenta,hexagon
0.5,0,3.0,3.0,367.697000504,4.0,part_1,,,,,,,,,,,,,green,cross
4.0,1,4.0,4.0,350.34894943200004,4.0,part_1,,,,,,,,,,,,,yellow,diamond
0.5,1,2.0,2.0,400.75302124,4.0,part_1,,,,,,,,,,,,,gray,circle
4.0,0,4.0,4.0,401.228904724,4.0,part_1,,,,,,,,,,,,,magenta,hexagon
0.5,0,1.0,1.0,434.07297134400005,4.0,part_1,,,,,,,,,,,,,green,cross
1.0,0,1.0,1.0,384.033918381,4.0,part_1,,,,,,,,,,,,,cyan,line
0.5,1,3.0,3.0,433.976173401,4.0,part_1,,,,,,,,,,,,,gray,circle
4.0,0,1.0,1.0,450.64902305600003,4.0,part_1,,,,,,,,,,,,,magenta,hexagon
0.5,1,4.0,4.0,350.85487365700004,4.0,part_1,,,,,,,,,,,,,gray,circle
2.0,0,2.0,2.0,350.780963898,4.0,part_1,,,,,,,,,,,,,white,flipped triangle
1.0,0,2.0,2.0,400.624036789,4.0,part_1,,,,,,,,,,,,,cyan,line
0.5,0,3.0,3.0,367.161989212,4.0,part_1,,,,,,,,,,,,,green,cross
1.0,1,3.0,3.0,367.567062378,4.0,part_1,,,,,,,,,,,,,blue,square
1.0,0,2.0,2.0,400.542020798,4.0,part_1,,,,,,,,,,,,,cyan,line
4.0,1,3.0,3.0,367.67792701699994,4.0,part_1,,,,,,,,,,,,,yellow,diamond
0.5,1,3.0,3.0,350.75902938800004,4.0,part_1,,,,,,,,,,,,,gray,circle
0.5,0,3.0,3.0,334.519147873,4.0,part_1,,,,,,,,,,,,,green,cross
4.0,1,2.0,2.0,301.555871964,4.0,part_1,,,,,,,,,,,,,yellow,diamond
2.0,1,4.0,4.0,368.04008483900003,4.0,part_1,,,,,,,,,,,,,orange,triangle
0.5,1,3.0,3.0,317.474842072,4.0,part_1,,,,,,,,,,,,,gray,circle
2.0,1,1.0,1.0,350.68488121,4.0,part_1,,,,,,,,,,,,,orange,triangle
4.0,1,1.0,1.0,367.542028427,4.0,part_1,,,,,,,,,,,,,yellow,diamond
2.0,1,3.0,3.0,351.058959961,4.0,part_1,,,,,,,,,,,,,orange,triangle
1.0,1,2.0,2.0,317.64698028600003,4.0,part_1,,,,,,,,,,,,,blue,square
0.5,1,3.0,3.0,317.51585006700003,4.0,part_1,,,,,,,,,,,,,gray,circle
2.0,0,1.0,1.0,351.70102119399996,4.0,part_1,,,,,,,,,,,,,white,flipped triangle
4.0,0,1.0,1.0,334.05995369000004,4.0,part_1,,,,,,,,,,,,,magenta,hexagon
2.0,0,4.0,4.0,351.171970367,4.0,part_1,,,,,,,,,,,,,white,flipped triangle
2.0,1,4.0,4.0,367.522954941,4.0,part_1,,,,,,,,,,,,,orange,triangle
4.0,0,1.0,1.0,351.16815567,4.0,part_1,,,,,,,,,,,,,magenta,hexagon
1.0,0,1.0,1.0,333.837985992,4.0,part_1,,,,,,,,,,,,,cyan,line
0.5,0,4.0,4.0,333.77909660299997,4.0,part_1,,,,,,,,,,,,,green,cross
1.0,0,3.0,3.0,350.663900375,4.0,part_1,,,,,,,,,,,,,cyan,line
0.5,0,3.0,3.0,450.70004463199996,4.0,part_1,,,,,,,,,,,,,green,cross
4.0,0,3.0,3.0,301.079034805,4.0,part_1,,,,,,,,,,,,,magenta,hexagon
2.0,0,1.0,1.0,334.093093872,4.0,part_1,,,,,,,,,,,,,white,flipped triangle
0.5,1,2.0,2.0,317.32916832,4.0,part_1,,,,,,,,,,,,,gray,circle
4.0,1,1.0,1.0,317.723989487,4.0,part_1,,,,,,,,,,,,,yellow,diamond
4.0,1,2.0,2.0,317.810058594,4.0,part_1,,,,,,,,,,,,,yellow,diamond
0.5,0,2.0,2.0,367.671012878,4.0,part_1,,,,,,,,,,,,,green,cross
0.5,1,4.0,4.0,250.693082809,4.0,part_1,,,,,,,,,,,,,gray,circle
1.0,1,1.0,1.0,351.140975952,4.0,part_1,,,,,,,,,,,,,blue,square
1.0,1,2.0,2.0,317.69514083900003,4.0,part_1,,,,,,,,,,,,,blue,square
1.0,0,4.0,4.0,367.23804473900003,4.0,part_1,,,,,,,,,,,,,cyan,line
2.0,0,3.0,3.0,318.04394722,4.0,part_1,,,,,,,,,,,,,white,flipped triangle
1.0,1,4.0,4.0,334.191083908,4.0,part_1,,,,,,,,,,,,,blue,square
1.0,1,1.0,1.0,367.719888687,4.0,part_1,,,,,,,,,,,,,blue,square
0.5,0,2.0,2.0,350.608110428,4.0,part_1,,,,,,,,,,,,,green,cross
0.5,0,3.0,3.0,351.119995117,4.0,part_1,,,,,,,,,,,,,green,cross
2.0,0,4.0,4.0,317.756175995,4.0,part_1,,,,,,,,,,,,,white,flipped triangle
0.5,1,2.0,2.0,350.630998611,4.0,part_1,,,,,,,,,,,,,gray,circle
2.0,1,1.0,1.0,334.16390419000004,4.0,part_1,,,,,,,,,,,,,orange,triangle
0.5,1,3.0,3.0,300.596952438,4.0,part_1,,,,,,,,,,,,,gray,circle
4.0,1,4.0,4.0,316.982984543,4.0,part_1,,,,,,,,,,,,,yellow,diamond
4.0,1,2.0,2.0,450.736045837,4.0,part_1,,,,,,,,,,,,,yellow,diamond
4.0,1,1.0,1.0,300.678014755,4.0,part_1,,,,,,,,,,,,,yellow,diamond
2.0,1,3.0,3.0,317.86894798300006,4.0,part_1,,,,,,,,,,,,,orange,triangle
4.0,0,1.0,1.0,350.59809684799995,4.0,part_1,,,,,,,,,,,,,magenta,hexagon
2.0,0,1.0,1.0,334.409952164,4.0,part_1,,,,,,,,,,,,,white,flipped triangle
4.0,0,3.0,3.0,350.969076157,4.0,part_1,,,,,,,,,,,,,magenta,hexagon
0.5,1,4.0,4.0,501.493930817,4.0,part_1,,,,,,,,,,,,,gray,circle
2.0,1,3.0,3.0,400.51317215,4.0,part_1,,,,,,,,,,,,,orange,triangle
2.0,0,2.0,2.0,334.003925323,4.0,part_1,,,,,,,,,,,,,white,flipped triangle
4.0,1,1.0,1.0,335.126876831,4.0,part_1,,,,,,,,,,,,,yellow,diamond
1.0,1,1.0,1.0,467.396974564,4.0,part_1,,,,,,,,,,,,,blue,square
2.0,0,4.0,4.0,417.747020721,4.0,part_1,,,,,,,,,,,,,white,flipped triangle
4.0,1,2.0,2.0,351.017951965,4.0,part_1,,,,,,,,,,,,,yellow,diamond
4.0,0,1.0,1.0,334.650993347,4.0,part_1,,,,,,,,,,,,,magenta,hexagon
2.0,0,2.0,2.0,401.00812912,4.0,part_1,,,,,,,,,,,,,white,flipped triangle
2.0,1,4.0,4.0,350.46005249,4.0,part_1,,,,,,,,,,,,,orange,triangle
0.5,0,5.0,5.0,451.165914536,1.0,part_2,go,250.0,250.0,1.0,,,,,,,,,green,cross
0.5,0,6.0,6.0,534.1088771819999,1.0,part_2,go,250.0,250.0,1.0,,,,,,,,,green,cross
2.0,1,6.0,6.0,417.6030159,1.0,part_2,stop,250.0,250.0,3.0,,,,,,,,,orange,triangle
2.0,1,6.0,,,1.0,,stop,250.0,200.0,4.0,,,,,,,,,orange,triangle
0.5,0,5.0,5.0,417.706012726,1.0,part_2,go,250.0,200.0,1.0,,,,,,,,,green,cross
0.5,0,6.0,6.0,567.512989044,1.0,part_2,go,250.0,200.0,1.0,,,,,,,,,green,cross
0.5,0,5.0,5.0,634.365081787,1.0,part_2,go,250.0,200.0,1.0,,,,,,,,,green,cross
0.5,1,6.0,,,1.0,,stop,250.0,250.0,4.0,,,,,,,,,gray,circle
0.5,1,5.0,,,1.0,,stop,250.0,250.0,4.0,,,,,,,,,gray,circle
2.0,1,6.0,6.0,534.446001053,1.0,part_2,stop,250.0,300.0,3.0,,,,,,,,,orange,triangle
4.0,0,6.0,6.0,667.3579215999999,1.0,part_2,go,250.0,300.0,1.0,,,,,,,,,magenta,hexagon
1.0,1,5.0,,,1.0,,stop,300.0,300.0,4.0,,,,,,,,,blue,square
4.0,1,6.0,6.0,501.06906890900007,1.0,part_2,go,300.0,300.0,1.0,,,,,,,,,yellow,diamond
0.5,1,5.0,,,1.0,,stop,350.0,300.0,4.0,,,,,,,,,gray,circle
2.0,1,6.0,,,1.0,,stop,350.0,250.0,4.0,,,,,,,,,orange,triangle
1.0,0,6.0,6.0,550.734996796,1.0,part_2,go,350.0,250.0,1.0,,,,,,,,,cyan,line
1.0,1,5.0,,,1.0,,go,350.0,250.0,5.0,,,,,,,,,blue,square
0.5,1,6.0,6.0,417.74892807000003,1.0,part_2,stop,350.0,300.0,3.0,,,,,,,,,gray,circle
0.5,0,6.0,6.0,617.5158023829999,1.0,part_2,go,350.0,300.0,1.0,,,,,,,,,green,cross
1.0,1,6.0,,,1.0,,stop,350.0,250.0,4.0,,,,,,,,,blue,square
1.0,0,5.0,5.0,517.703056335,1.0,part_2,go,350.0,250.0,1.0,,,,,,,,,cyan,line
4.0,1,5.0,,,1.0,,stop,400.0,250.0,4.0,,,,,,,,,yellow,diamond
2.0,0,5.0,5.0,801.435947418,1.0,part_2,go,400.0,250.0,1.0,,,,,,,,,white,flipped triangle
0.5,1,5.0,5.0,751.1360645289999,1.0,part_2,go,400.0,250.0,1.0,,,,,,,,,gray,circle
0.5,0,6.0,6.0,701.190948486,1.0,part_2,go,400.0,250.0,1.0,,,,,,,,,green,cross
0.5,1,5.0,5.0,451.247930527,1.0,part_2,stop,450.0,250.0,3.0,,,,,,,,,gray,circle
4.0,0,5.0,5.0,717.447042465,1.0,part_2,go,450.0,250.0,1.0,,,,,,,,,magenta,hexagon
4.0,1,5.0,,,1.0,,stop,400.0,250.0,4.0,,,,,,,,,yellow,diamond
1.0,0,5.0,5.0,484.275102615,1.0,part_2,go,400.0,250.0,1.0,,,,,,,,,cyan,line
1.0,1,6.0,,,1.0,,stop,400.0,300.0,4.0,,,,,,,,,blue,square
2.0,0,5.0,5.0,617.3508167269999,1.0,part_2,go,400.0,300.0,1.0,,,,,,,,,white,flipped triangle
4.0,1,5.0,,,1.0,,stop,450.0,300.0,4.0,,,,,,,,,yellow,diamond
1.0,1,6.0,,,1.0,,stop,450.0,350.0,4.0,,,,,,,,,blue,square
1.0,0,5.0,5.0,434.465169907,1.0,part_2,go,450.0,350.0,1.0,,,,,,,,,cyan,line
1.0,0,6.0,6.0,651.0660648349999,1.0,part_2,go,450.0,350.0,1.0,,,,,,,,,cyan,line
4.0,1,6.0,,,1.0,,stop,450.0,400.0,4.0,,,,,,,,,yellow,diamond
4.0,0,6.0,,,2.0,,go,450.0,400.0,5.0,,,,,,,,,magenta,hexagon
1.0,1,5.0,5.0,701.116800308,2.0,part_2,go,450.0,400.0,1.0,,,,,,,,,blue,square
1.0,0,6.0,,,2.0,,go,450.0,400.0,5.0,,,,,,,,,cyan,line
1.0,0,6.0,,,2.0,,go,450.0,400.0,5.0,,,,,,,,,cyan,line
2.0,0,6.0,,,2.0,,go,450.0,400.0,5.0,,,,,,,,,white,flipped triangle
0.5,0,6.0,,,2.0,,go,450.0,400.0,5.0,,,,,,,,,green,cross
4.0,0,5.0,5.0,384.304046631,2.0,part_2,go,450.0,400.0,1.0,,,,,,,,,magenta,hexagon
0.5,0,6.0,,,2.0,,go,450.0,400.0,5.0,,,,,,,,,green,cross
2.0,0,6.0,,,2.0,,go,450.0,400.0,5.0,,,,,,,,,white,flipped triangle
4.0,0,5.0,5.0,367.423057556,2.0,part_2,go,450.0,400.0,1.0,,,,,,,,,magenta,hexagon
2.0,0,5.0,5.0,584.980010986,2.0,part_2,go,450.0,400.0,1.0,,,,,,,,,white,flipped triangle
4.0,1,5.0,,,2.0,,stop,500.0,400.0,4.0,,,,,,,,,yellow,diamond
1.0,0,5.0,5.0,584.344863892,2.0,part_2,go,500.0,400.0,1.0,,,,,,,,,cyan,line
4.0,1,6.0,,,2.0,,stop,500.0,450.0,4.0,,,,,,,,,yellow,diamond
4.0,1,6.0,,,2.0,,stop,500.0,500.0,4.0,,,,,,,,,yellow,diamond
2.0,0,5.0,5.0,667.71197319,2.0,part_2,go,500.0,500.0,1.0,,,,,,,,,white,flipped triangle
2.0,1,6.0,,,2.0,,stop,500.0,550.0,4.0,,,,,,,,,orange,triangle
2.0,0,5.0,5.0,835.171937943,2.0,part_2,go,500.0,550.0,1.0,,,,,,,,,white,flipped triangle
0.5,0,5.0,5.0,851.356983185,2.0,part_2,go,500.0,550.0,1.0,,,,,,,,,green,cross
1.0,0,5.0,5.0,884.561061859,2.0,part_2,go,500.0,550.0,1.0,,,,,,,,,cyan,line
4.0,0,5.0,5.0,801.697969437,2.0,part_2,go,500.0,550.0,1.0,,,,,,,,,magenta,hexagon
4.0,0,6.0,,,2.0,,go,500.0,550.0,5.0,,,,,,,,,magenta,hexagon
0.5,0,6.0,,,2.0,,go,500.0,550.0,5.0,,,,,,,,,green,cross
4.0,0,5.0,5.0,667.634963989,2.0,part_2,go,500.0,550.0,1.0,,,,,,,,,magenta,hexagon
2.0,0,5.0,5.0,584.117889404,2.0,part_2,go,500.0,550.0,1.0,,,,,,,,,white,flipped triangle
1.0,0,6.0,,,2.0,,go,500.0,550.0,5.0,,,,,,,,,cyan,line
4.0,1,6.0,,,2.0,,stop,500.0,600.0,4.0,,,,,,,,,yellow,diamond
2.0,1,5.0,5.0,634.387969971,2.0,part_2,go,500.0,600.0,1.0,,,,,,,,,orange,triangle
2.0,0,6.0,,,2.0,,go,500.0,600.0,5.0,,,,,,,,,white,flipped triangle
0.5,1,6.0,,,2.0,,stop,500.0,650.0,4.0,,,,,,,,,gray,circle
0.5,0,5.0,5.0,768.005132675,2.0,part_2,go,500.0,650.0,1.0,,,,,,,,,green,cross
4.0,0,5.0,5.0,850.938081741,2.0,part_2,go,500.0,650.0,1.0,,,,,,,,,magenta,hexagon
2.0,0,6.0,,,2.0,,go,500.0,650.0,5.0,,,,,,,,,white,flipped triangle
0.5,1,5.0,,,2.0,,stop,550.0,650.0,4.0,,,,,,,,,gray,circle
4.0,1,5.0,,,2.0,,stop,600.0,650.0,4.0,,,,,,,,,yellow,diamond
1.0,0,6.0,,,2.0,,go,600.0,650.0,5.0,,,,,,,,,cyan,line
1.0,1,6.0,6.0,567.459821701,3.0,part_2,go,600.0,650.0,1.0,,,,,,,,,blue,square
1.0,1,6.0,6.0,767.8868770600001,3.0,part_2,stop,600.0,700.0,3.0,,,,,,,,,blue,square
1.0,0,5.0,5.0,517.629146576,3.0,part_2,go,600.0,700.0,1.0,,,,,,,,,cyan,line
0.5,1,5.0,,,3.0,,stop,650.0,700.0,4.0,,,,,,,,,gray,circle
2.0,0,6.0,6.0,751.737117767,3.0,part_2,go,650.0,700.0,1.0,,,,,,,,,white,flipped triangle
0.5,0,5.0,5.0,633.885145187,3.0,part_2,go,650.0,700.0,1.0,,,,,,,,,green,cross
2.0,0,6.0,6.0,617.934942245,3.0,part_2,go,650.0,700.0,1.0,,,,,,,,,white,flipped triangle
0.5,1,6.0,6.0,817.759037018,3.0,part_2,stop,650.0,650.0,3.0,,,,,,,,,gray,circle
4.0,1,6.0,,,3.0,,stop,650.0,600.0,4.0,,,,,,,,,yellow,diamond
1.0,1,5.0,5.0,433.656215668,3.0,part_2,stop,700.0,600.0,3.0,,,,,,,,,blue,square
1.0,0,6.0,6.0,667.491912842,3.0,part_2,go,700.0,600.0,1.0,,,,,,,,,cyan,line
0.5,1,6.0,6.0,784.3828201289999,3.0,part_2,stop,700.0,650.0,3.0,,,,,,,,,gray,circle
2.0,1,6.0,6.0,834.967851639,3.0,part_2,go,700.0,650.0,1.0,,,,,,,,,orange,triangle
4.0,1,5.0,,,3.0,,stop,650.0,650.0,4.0,,,,,,,,,yellow,diamond
4.0,0,6.0,,,3.0,,go,650.0,650.0,5.0,,,,,,,,,magenta,hexagon
2.0,0,6.0,,,3.0,,go,650.0,650.0,5.0,,,,,,,,,white,flipped triangle
2.0,1,5.0,5.0,784.702062607,3.0,part_2,stop,700.0,650.0,3.0,,,,,,,,,orange,triangle
0.5,0,5.0,5.0,417.907953262,3.0,part_2,go,700.0,650.0,1.0,,,,,,,,,green,cross
4.0,0,6.0,6.0,434.626817703,3.0,part_2,go,700.0,650.0,1.0,,,,,,,,,magenta,hexagon
0.5,1,6.0,6.0,484.467983246,3.0,part_2,stop,700.0,600.0,3.0,,,,,,,,,gray,circle
4.0,1,5.0,5.0,634.431123734,3.0,part_2,stop,650.0,600.0,3.0,,,,,,,,,yellow,diamond
2.0,1,5.0,5.0,717.9570198060001,3.0,part_2,go,650.0,600.0,1.0,,,,,,,,,orange,triangle
1.0,0,5.0,5.0,617.692947388,3.0,part_2,go,650.0,600.0,1.0,,,,,,,,,cyan,line
0.5,0,6.0,6.0,617.7151203159999,3.0,part_2,go,650.0,600.0,1.0,,,,,,,,,green,cross
0.5,0,5.0,5.0,367.863893509,3.0,part_2,go,650.0,600.0,1.0,,,,,,,,,green,cross
4.0,0,6.0,6.0,567.284107208,3.0,part_2,go,650.0,600.0,1.0,,,,,,,,,magenta,hexagon
1.0,1,5.0,5.0,551.414966583,3.0,part_2,stop,600.0,600.0,3.0,,,,,,,,,blue,square
0.5,1,5.0,5.0,450.95801353499996,3.0,part_2,go,600.0,600.0,1.0,,,,,,,,,gray,circle
4.0,0,6.0,6.0,584.894895554,3.0,part_2,go,600.0,600.0,1.0,,,,,,,,,magenta,hexagon
0.5,1,5.0,5.0,483.731985092,3.0,part_2,stop,550.0,600.0,3.0,,,,,,,,,gray,circle
0.5,1,5.0,6.0,934.2730045320001,3.0,part_2,go,550.0,600.0,2.0,,,,,,,,,gray,circle
1.0,0,6.0,6.0,818.1521892549999,3.0,part_2,go,550.0,600.0,1.0,,,,,,,,,cyan,line
0.5,0,6.0,6.0,433.956861496,3.0,part_2,go,550.0,600.0,1.0,,,,,,,,,green,cross
1.0,1,5.0,5.0,618.0181503299999,3.0,part_2,stop,500.0,600.0,3.0,,,,,,,,,blue,square
2.0,0,5.0,5.0,434.224843979,3.0,part_2,go,500.0,600.0,1.0,,,,,,,,,white,flipped triangle
2.0,0,5.0,5.0,417.643070221,3.0,part_2,go,500.0,600.0,1.0,,,,,,,,,white,flipped triangle
0.5,1,6.0,6.0,534.543991089,4.0,part_2,stop,500.0,550.0,3.0,,,,,,,,,gray,circle
4.0,1,6.0,6.0,567.4669742579999,4.0,part_2,go,500.0,550.0,1.0,,,,,,,,,yellow,diamond
1.0,1,6.0,6.0,717.516899109,4.0,part_2,go,500.0,550.0,1.0,,,,,,,,,blue,square
0.5,1,6.0,,,4.0,,stop,500.0,500.0,4.0,,,,,,,,,gray,circle
4.0,0,6.0,6.0,918.271064758,4.0,part_2,go,500.0,500.0,1.0,,,,,,,,,magenta,hexagon
0.5,0,6.0,6.0,801.661968231,4.0,part_2,go,500.0,500.0,1.0,,,,,,,,,green,cross
2.0,0,5.0,5.0,684.43107605,4.0,part_2,go,500.0,500.0,1.0,,,,,,,,,white,flipped triangle
0.5,1,6.0,6.0,851.3660430909999,4.0,part_2,go,500.0,500.0,1.0,,,,,,,,,gray,circle
4.0,0,5.0,5.0,718.2869911189999,4.0,part_2,go,500.0,500.0,1.0,,,,,,,,,magenta,hexagon
2.0,1,5.0,,,4.0,,stop,450.0,500.0,4.0,,,,,,,,,orange,triangle
2.0,0,6.0,6.0,517.691135406,4.0,part_2,go,450.0,500.0,1.0,,,,,,,,,white,flipped triangle
0.5,1,6.0,6.0,767.947912216,4.0,part_2,stop,450.0,550.0,3.0,,,,,,,,,gray,circle
2.0,1,6.0,6.0,667.8841114039999,4.0,part_2,stop,450.0,500.0,3.0,,,,,,,,,orange,triangle
0.5,0,5.0,5.0,767.777919769,4.0,part_2,go,450.0,500.0,1.0,,,,,,,,,green,cross
2.0,0,5.0,5.0,967.9570198060001,4.0,part_2,go,450.0,500.0,1.0,,,,,,,,,white,flipped triangle
0.5,1,5.0,,,4.0,,stop,500.0,500.0,4.0,,,,,,,,,gray,circle
1.0,1,5.0,5.0,801.688909531,4.0,part_2,go,500.0,500.0,1.0,,,,,,,,,blue,square
2.0,1,5.0,,,4.0,,stop,550.0,500.0,4.0,,,,,,,,,orange,triangle
4.0,0,6.0,6.0,785.143136978,4.0,part_2,go,550.0,500.0,1.0,,,,,,,,,magenta,hexagon
1.0,0,5.0,5.0,867.891788483,4.0,part_2,go,550.0,500.0,1.0,,,,,,,,,cyan,line
2.0,0,6.0,6.0,734.74407196,4.0,part_2,go,550.0,500.0,1.0,,,,,,,,,white,flipped triangle
2.0,1,6.0,,,4.0,,stop,550.0,450.0,4.0,,,,,,,,,orange,triangle
2.0,0,5.0,5.0,718.3690071110001,4.0,part_2,go,550.0,450.0,1.0,,,,,,,,,white,flipped triangle
4.0,1,5.0,,,4.0,,stop,600.0,450.0,4.0,,,,,,,,,yellow,diamond
1.0,1,5.0,5.0,850.921154022,4.0,part_2,go,600.0,450.0,1.0,,,,,,,,,blue,square
1.0,1,5.0,5.0,751.0838508610001,4.0,part_2,stop,650.0,450.0,3.0,,,,,,,,,blue,square
4.0,0,5.0,5.0,851.432085037,4.0,part_2,go,650.0,450.0,1.0,,,,,,,,,magenta,hexagon
4.0,1,5.0,5.0,834.779977798,4.0,part_2,stop,600.0,450.0,3.0,,,,,,,,,yellow,diamond
4.0,1,5.0,5.0,601.809024811,4.0,part_2,stop,550.0,450.0,3.0,,,,,,,,,yellow,diamond
1.0,0,6.0,6.0,934.103012085,4.0,part_2,go,550.0,450.0,1.0,,,,,,,,,cyan,line
1.0,1,6.0,,,4.0,,stop,550.0,500.0,4.0,,,,,,,,,blue,square
1.0,0,5.0,5.0,967.751979828,4.0,part_2,go,550.0,500.0,1.0,,,,,,,,,cyan,line
4.0,0,6.0,6.0,934.565067291,4.0,part_2,go,550.0,500.0,1.0,,,,,,,,,magenta,hexagon
2.0,0,5.0,5.0,901.795864105,4.0,part_2,go,550.0,500.0,1.0,,,,,,,,,white,flipped triangle
0.5,1,6.0,6.0,867.567062378,4.0,part_2,go,550.0,500.0,1.0,,,,,,,,,gray,circle
4.0,0,6.0,6.0,867.816925049,4.0,part_2,go,550.0,500.0,1.0,,,,,,,,,magenta,hexagon
1.0,1,5.0,5.0,651.444911957,5.0,part_2,stop,500.0,500.0,3.0,,,,,,,,,blue,square
0.5,1,6.0,6.0,501.527786255,5.0,part_2,stop,500.0,550.0,3.0,,,,,,,,,gray,circle
2.0,1,6.0,6.0,450.89316368100003,5.0,part_2,stop,500.0,500.0,3.0,,,,,,,,,orange,triangle
4.0,0,6.0,6.0,634.145021439,5.0,part_2,go,500.0,500.0,1.0,,,,,,,,,magenta,hexagon
0.5,1,5.0,5.0,500.925779343,5.0,part_2,go,500.0,500.0,1.0,,,,,,,,,gray,circle
1.0,1,5.0,5.0,317.456007004,5.0,part_2,stop,450.0,500.0,3.0,,,,,,,,,blue,square
2.0,0,5.0,5.0,684.322118759,5.0,part_2,go,450.0,500.0,1.0,,,,,,,,,white,flipped triangle
4.0,0,5.0,5.0,350.47602653499996,5.0,part_2,go,450.0,500.0,1.0,,,,,,,,,magenta,hexagon
0.5,0,6.0,6.0,317.869901657,5.0,part_2,go,450.0,500.0,1.0,,,,,,,,,green,cross
1.0,1,5.0,5.0,601.0558605189999,5.0,part_2,stop,400.0,500.0,3.0,,,,,,,,,blue,square
0.5,1,6.0,,,5.0,,stop,400.0,450.0,4.0,,,,,,,,,gray,circle
0.5,0,5.0,5.0,584.125041962,5.0,part_2,go,400.0,450.0,1.0,,,,,,,,,green,cross
2.0,1,6.0,6.0,651.319026947,5.0,part_2,stop,400.0,500.0,3.0,,,,,,,,,orange,triangle
0.5,1,5.0,5.0,734.542131424,5.0,part_2,go,400.0,500.0,1.0,,,,,,,,,gray,circle
1.0,0,6.0,6.0,834.542989731,5.0,part_2,go,400.0,500.0,1.0,,,,,,,,,cyan,line
1.0,0,5.0,5.0,501.37090682999997,5.0,part_2,go,400.0,500.0,1.0,,,,,,,,,cyan,line
4.0,0,5.0,5.0,817.899227142,5.0,part_2,go,400.0,500.0,1.0,,,,,,,,,magenta,hexagon
4.0,0,6.0,6.0,934.672832489,5.0,part_2,go,400.0,500.0,1.0,,,,,,,,,magenta,hexagon
4.0,1,6.0,6.0,734.314918518,5.0,part_2,go,400.0,500.0,1.0,,,,,,,,,yellow,diamond
4.0,1,5.0,5.0,300.388097763,5.0,part_2,stop,350.0,500.0,3.0,,,,,,,,,yellow,diamond
0.5,1,5.0,5.0,484.356880188,5.0,part_2,stop,300.0,500.0,3.0,,,,,,,,,gray,circle
0.5,0,6.0,6.0,417.421102524,5.0,part_2,go,300.0,500.0,1.0,,,,,,,,,green,cross
1.0,0,6.0,6.0,400.207042694,5.0,part_2,go,300.0,500.0,1.0,,,,,,,,,cyan,line
2.0,1,5.0,5.0,367.086172104,5.0,part_2,stop,250.0,500.0,3.0,,,,,,,,,orange,triangle
2.0,0,6.0,6.0,500.77605247500003,5.0,part_2,go,250.0,500.0,1.0,,,,,,,,,white,flipped triangle
4.0,0,5.0,5.0,451.16782188400003,5.0,part_2,go,250.0,500.0,1.0,,,,,,,,,magenta,hexagon
2.0,1,5.0,,,5.0,,stop,200.0,500.0,4.0,,,,,,,,,orange,triangle
4.0,1,6.0,6.0,400.692939758,5.0,part_2,go,200.0,500.0,1.0,,,,,,,,,yellow,diamond
0.5,0,5.0,5.0,650.980949402,5.0,part_2,go,200.0,500.0,1.0,,,,,,,,,green,cross
0.5,0,5.0,5.0,650.946140289,5.0,part_2,go,200.0,500.0,1.0,,,,,,,,,green,cross
1.0,0,6.0,6.0,533.998012543,5.0,part_2,go,200.0,500.0,1.0,,,,,,,,,cyan,line
2.0,0,6.0,6.0,451.16281509400005,5.0,part_2,go,200.0,500.0,1.0,,,,,,,,,white,flipped triangle
2.0,1,6.0,6.0,467.69809722900004,5.0,part_2,stop,200.0,450.0,3.0,,,,,,,,,orange,triangle
4.0,1,5.0,5.0,634.832143784,5.0,part_2,go,200.0,450.0,1.0,,,,,,,,,yellow,diamond
1.0,0,6.0,6.0,517.230987549,5.0,part_2,go,200.0,450.0,1.0,,,,,,,,,cyan,line
4.0,1,6.0,6.0,484.09199714700003,5.0,part_2,stop,200.0,400.0,3.0,,,,,,,,,yellow,diamond
4.0,0,6.0,6.0,785.108804703,6.0,part_2,go,200.0,400.0,1.0,,,,,,,,,magenta,hexagon
1.0,1,6.0,,,6.0,,stop,200.0,350.0,4.0,,,,,,,,,blue,square
1.0,0,5.0,5.0,484.775066376,6.0,part_2,go,200.0,350.0,1.0,,,,,,,,,cyan,line
4.0,1,5.0,,,6.0,,stop,250.0,350.0,4.0,,,,,,,,,yellow,diamond
0.5,0,5.0,5.0,467.222929001,6.0,part_2,go,250.0,350.0,1.0,,,,,,,,,green,cross
1.0,0,6.0,6.0,700.830936432,6.0,part_2,go,250.0,350.0,1.0,,,,,,,,,cyan,line
2.0,1,6.0,,,6.0,,stop,250.0,400.0,4.0,,,,,,,,,orange,triangle
0.5,1,5.0,5.0,400.781154633,6.0,part_2,stop,300.0,400.0,3.0,,,,,,,,,gray,circle
1.0,0,5.0,5.0,350.52180290200005,6.0,part_2,go,300.0,400.0,1.0,,,,,,,,,cyan,line
1.0,1,5.0,,,6.0,,stop,250.0,400.0,4.0,,,,,,,,,blue,square
1.0,0,6.0,6.0,617.7318096160001,6.0,part_2,go,250.0,400.0,1.0,,,,,,,,,cyan,line
1.0,0,6.0,6.0,434.308052063,6.0,part_2,go,250.0,400.0,1.0,,,,,,,,,cyan,line
1.0,1,6.0,,,6.0,,stop,250.0,450.0,4.0,,,,,,,,,blue,square
0.5,1,5.0,,,6.0,,stop,300.0,450.0,4.0,,,,,,,,,gray,circle
2.0,1,5.0,,,6.0,,stop,350.0,450.0,4.0,,,,,,,,,orange,triangle
4.0,1,6.0,6.0,484.153985977,6.0,part_2,stop,350.0,500.0,3.0,,,,,,,,,yellow,diamond
2.0,1,5.0,,,6.0,,stop,400.0,500.0,4.0,,,,,,,,,orange,triangle
0.5,0,6.0,6.0,601.171016693,6.0,part_2,go,400.0,500.0,1.0,,,,,,,,,green,cross
2.0,1,6.0,,,6.0,,stop,400.0,450.0,4.0,,,,,,,,,orange,triangle
1.0,1,5.0,,,6.0,,stop,450.0,450.0,4.0,,,,,,,,,blue,square
2.0,0,6.0,6.0,701.277017593,6.0,part_2,go,450.0,450.0,1.0,,,,,,,,,white,flipped triangle
0.5,0,5.0,5.0,633.761167526,6.0,part_2,go,450.0,450.0,1.0,,,,,,,,,green,cross
4.0,1,6.0,6.0,617.741823196,6.0,part_2,go,450.0,450.0,1.0,,,,,,,,,yellow,diamond
4.0,0,5.0,5.0,734.4310283660001,6.0,part_2,go,450.0,450.0,1.0,,,,,,,,,magenta,hexagon
4.0,1,6.0,6.0,701.177120209,6.0,part_2,go,450.0,450.0,1.0,,,,,,,,,yellow,diamond
4.0,1,5.0,5.0,667.9489612579999,6.0,part_2,go,450.0,450.0,1.0,,,,,,,,,yellow,diamond
4.0,0,5.0,5.0,683.820962906,6.0,part_2,go,450.0,450.0,1.0,,,,,,,,,magenta,hexagon
4.0,0,6.0,6.0,400.66409111,6.0,part_2,go,450.0,450.0,1.0,,,,,,,,,magenta,hexagon
2.0,0,5.0,5.0,501.14297866799996,6.0,part_2,go,450.0,450.0,1.0,,,,,,,,,white,flipped triangle
1.0,1,6.0,6.0,401.38077735900004,6.0,part_2,go,450.0,450.0,1.0,,,,,,,,,blue,square
2.0,1,6.0,6.0,450.47402381899997,6.0,part_2,go,450.0,450.0,1.0,,,,,,,,,orange,triangle
1.0,0,5.0,5.0,334.19704437300004,6.0,part_2,go,450.0,450.0,1.0,,,,,,,,,cyan,line
2.0,1,5.0,5.0,484.10797119100005,6.0,part_2,stop,500.0,450.0,3.0,,,,,,,,,orange,triangle
0.5,0,6.0,6.0,484.508991241,6.0,part_2,go,500.0,450.0,1.0,,,,,,,,,green,cross
1.0,1,5.0,5.0,401.483058929,6.0,part_2,stop,450.0,450.0,3.0,,,,,,,,,blue,square
1.0,0,6.0,6.0,534.245967865,6.0,part_2,go,450.0,450.0,1.0,,,,,,,,,cyan,line
4.0,0,5.0,5.0,617.602109909,7.0,part_2,go,450.0,450.0,1.0,,,,,,,,,magenta,hexagon
2.0,1,6.0,6.0,484.294891357,7.0,part_2,go,450.0,450.0,1.0,,,,,,,,,orange,triangle
2.0,0,5.0,5.0,416.954994202,7.0,part_2,go,450.0,450.0,1.0,,,,,,,,,white,flipped triangle
2.0,1,5.0,5.0,317.635059357,7.0,part_2,stop,400.0,450.0,3.0,,,,,,,,,orange,triangle
4.0,0,6.0,6.0,534.4629287719999,7.0,part_2,go,400.0,450.0,1.0,,,,,,,,,magenta,hexagon
1.0,1,6.0,6.0,501.096010208,7.0,part_2,stop,400.0,500.0,3.0,,,,,,,,,blue,square
1.0,0,6.0,6.0,550.747871399,7.0,part_2,go,400.0,500.0,1.0,,,,,,,,,cyan,line
4.0,0,6.0,6.0,500.63991546599993,7.0,part_2,go,400.0,500.0,1.0,,,,,,,,,magenta,hexagon
0.5,1,6.0,,,7.0,,stop,400.0,450.0,4.0,,,,,,,,,gray,circle
4.0,1,5.0,,,7.0,,stop,350.0,450.0,4.0,,,,,,,,,yellow,diamond
2.0,1,5.0,5.0,601.256847382,7.0,part_2,go,350.0,450.0,1.0,,,,,,,,,orange,triangle
2.0,0,5.0,5.0,768.7790393829999,7.0,part_2,go,350.0,450.0,1.0,,,,,,,,,white,flipped triangle
0.5,1,6.0,6.0,718.0221080780001,7.0,part_2,stop,350.0,500.0,3.0,,,,,,,,,gray,circle
4.0,0,6.0,5.0,768.089056015,7.0,part_2,go,350.0,500.0,2.0,,,,,,,,,magenta,hexagon
1.0,0,5.0,5.0,801.561117172,7.0,part_2,go,350.0,500.0,1.0,,,,,,,,,cyan,line
1.0,1,5.0,,,7.0,,stop,400.0,500.0,4.0,,,,,,,,,blue,square
0.5,0,5.0,5.0,767.9641246799999,7.0,part_2,go,400.0,500.0,1.0,,,,,,,,,green,cross
0.5,0,6.0,6.0,668.5400009159999,7.0,part_2,go,400.0,500.0,1.0,,,,,,,,,green,cross
2.0,1,6.0,6.0,768.341064453,7.0,part_2,go,400.0,500.0,1.0,,,,,,,,,orange,triangle
0.5,0,6.0,6.0,734.2381477360001,7.0,part_2,go,400.0,500.0,1.0,,,,,,,,,green,cross
1.0,0,6.0,6.0,667.120933533,7.0,part_2,go,400.0,500.0,1.0,,,,,,,,,cyan,line
4.0,0,5.0,5.0,701.3299465179999,7.0,part_2,go,400.0,500.0,1.0,,,,,,,,,magenta,hexagon
2.0,1,5.0,,,7.0,,stop,450.0,500.0,4.0,,,,,,,,,orange,triangle
0.5,1,5.0,,,7.0,,stop,500.0,500.0,4.0,,,,,,,,,gray,circle
2.0,1,6.0,,,7.0,,stop,500.0,450.0,4.0,,,,,,,,,orange,triangle
1.0,1,5.0,5.0,734.626054764,7.0,part_2,stop,550.0,450.0,3.0,,,,,,,,,blue,square
0.5,1,6.0,,,7.0,,stop,550.0,500.0,4.0,,,,,,,,,gray,circle
4.0,1,5.0,,,7.0,,stop,500.0,500.0,4.0,,,,,,,,,yellow,diamond
4.0,1,5.0,,,7.0,,stop,550.0,500.0,4.0,,,,,,,,,yellow,diamond
1.0,1,6.0,6.0,817.867040634,7.0,part_2,go,550.0,500.0,1.0,,,,,,,,,blue,square
2.0,0,5.0,5.0,817.632913589,7.0,part_2,go,550.0,500.0,1.0,,,,,,,,,white,flipped triangle
2.0,1,5.0,5.0,734.409093857,7.0,part_2,stop,600.0,500.0,3.0,,,,,,,,,orange,triangle
4.0,1,6.0,,,7.0,,stop,600.0,550.0,4.0,,,,,,,,,yellow,diamond
0.5,0,5.0,5.0,885.5898380279999,7.0,part_2,go,600.0,550.0,1.0,,,,,,,,,green,cross
1.0,0,6.0,6.0,517.210006714,7.0,part_2,go,600.0,550.0,1.0,,,,,,,,,cyan,line
1.0,1,6.0,6.0,667.8099632259999,7.0,part_2,stop,600.0,600.0,3.0,,,,,,,,,blue,square
4.0,1,5.0,5.0,702.088832855,8.0,part_2,go,600.0,600.0,1.0,,,,,,,,,yellow,diamond
1.0,0,5.0,5.0,734.352827072,8.0,part_2,go,600.0,600.0,1.0,,,,,,,,,cyan,line
2.0,1,6.0,6.0,868.032932281,8.0,part_2,go,600.0,600.0,1.0,,,,,,,,,orange,triangle
2.0,1,6.0,6.0,684.4329833979999,8.0,part_2,stop,600.0,550.0,3.0,,,,,,,,,orange,triangle
2.0,1,6.0,6.0,617.615938187,8.0,part_2,go,600.0,550.0,1.0,,,,,,,,,orange,triangle
2.0,0,6.0,6.0,384.039163589,8.0,part_2,go,600.0,550.0,1.0,,,,,,,,,white,flipped triangle
4.0,1,5.0,5.0,552.1001815799999,8.0,part_2,stop,550.0,550.0,3.0,,,,,,,,,yellow,diamond
2.0,0,5.0,5.0,484.437942505,8.0,part_2,go,550.0,550.0,1.0,,,,,,,,,white,flipped triangle
0.5,0,6.0,6.0,517.680883408,8.0,part_2,go,550.0,550.0,1.0,,,,,,,,,green,cross
2.0,0,5.0,5.0,634.648084641,8.0,part_2,go,550.0,550.0,1.0,,,,,,,,,white,flipped triangle
1.0,1,5.0,5.0,650.982141495,8.0,part_2,stop,500.0,550.0,3.0,,,,,,,,,blue,square
0.5,1,6.0,6.0,651.494979858,8.0,part_2,stop,500.0,500.0,3.0,,,,,,,,,gray,circle
1.0,1,6.0,6.0,600.908994675,8.0,part_2,go,500.0,500.0,1.0,,,,,,,,,blue,square
0.5,1,6.0,,,8.0,,stop,500.0,450.0,4.0,,,,,,,,,gray,circle
4.0,0,6.0,6.0,684.44609642,8.0,part_2,go,500.0,450.0,1.0,,,,,,,,,magenta,hexagon
2.0,0,5.0,5.0,568.2549476620001,8.0,part_2,go,500.0,450.0,1.0,,,,,,,,,white,flipped triangle
4.0,1,6.0,6.0,584.314107895,8.0,part_2,stop,500.0,500.0,3.0,,,,,,,,,yellow,diamond
1.0,1,5.0,5.0,601.047992706,8.0,part_2,stop,450.0,500.0,3.0,,,,,,,,,blue,square
2.0,0,6.0,6.0,601.2780666350001,8.0,part_2,go,450.0,500.0,1.0,,,,,,,,,white,flipped triangle
1.0,1,5.0,,,8.0,,stop,400.0,500.0,4.0,,,,,,,,,blue,square
1.0,1,5.0,,,8.0,,stop,450.0,500.0,4.0,,,,,,,,,blue,square
0.5,0,5.0,5.0,817.896127701,8.0,part_2,go,450.0,500.0,1.0,,,,,,,,,green,cross
4.0,1,5.0,,,8.0,,stop,500.0,500.0,4.0,,,,,,,,,yellow,diamond
0.5,1,6.0,6.0,818.049907684,8.0,part_2,go,500.0,500.0,1.0,,,,,,,,,gray,circle
0.5,1,5.0,5.0,851.777076721,8.0,part_2,go,500.0,500.0,1.0,,,,,,,,,gray,circle
0.5,0,6.0,6.0,718.454837799,8.0,part_2,go,500.0,500.0,1.0,,,,,,,,,green,cross
2.0,0,6.0,6.0,801.240921021,8.0,part_2,go,500.0,500.0,1.0,,,,,,,,,white,flipped triangle
1.0,0,5.0,5.0,717.936038971,8.0,part_2,go,500.0,500.0,1.0,,,,,,,,,cyan,line
2.0,1,5.0,5.0,750.756978989,8.0,part_2,stop,550.0,500.0,3.0,,,,,,,,,orange,triangle
2.0,1,6.0,,,8.0,,stop,550.0,450.0,4.0,,,,,,,,,orange,triangle
1.0,1,6.0,6.0,567.425966263,8.0,part_2,stop,550.0,500.0,3.0,,,,,,,,,blue,square
4.0,1,6.0,,,8.0,,stop,550.0,450.0,4.0,,,,,,,,,yellow,diamond
4.0,0,6.0,6.0,701.484918594,8.0,part_2,go,550.0,450.0,1.0,,,,,,,,,magenta,hexagon
4.0,0,5.0,5.0,734.6208095549999,8.0,part_2,go,550.0,450.0,1.0,,,,,,,,,magenta,hexagon
2.0,0,5.0,5.0,683.912038803,8.0,part_2,go,550.0,450.0,1.0,,,,,,,,,white,flipped triangle
0.5,0,5.0,5.0,701.479911804,8.0,part_2,go,550.0,450.0,1.0,,,,,,,,,green,cross
2.0,1,7.0,2.0,1485.55207253,1.0,part_3,stop,,,,195.0,5.0,39.0,195.0,234.0,78.0,117.0,156.0,orange,triangle
1.0,1,7.0,5.0,951.401948929,1.0,part_3,stop,,,,117.0,3.0,195.0,39.0,234.0,78.0,117.0,156.0,blue,square
4.0,0,7.0,2.0,1618.51906776,1.0,part_3,go,,,,220.0,5.0,88.0,220.0,176.0,132.0,264.0,44.0,magenta,hexagon
1.0,0,7.0,6.0,1385.06984711,1.0,part_3,go,,,,245.0,5.0,98.0,49.0,147.0,294.0,196.0,245.0,cyan,line
4.0,1,7.0,1.0,1602.0128727000001,1.0,part_3,stop,,,,294.0,6.0,294.0,245.0,147.0,196.0,49.0,98.0,yellow,diamond
2.0,1,7.0,5.0,1034.86704826,1.0,part_3,stop,,,,132.0,3.0,176.0,88.0,220.0,44.0,132.0,264.0,orange,triangle
0.5,1,7.0,6.0,968.200922012,1.0,part_3,stop,,,,216.0,4.0,54.0,324.0,270.0,108.0,162.0,216.0,gray,circle
1.0,1,7.0,2.0,900.959968567,1.0,part_3,stop,,,,162.0,3.0,270.0,162.0,216.0,54.0,324.0,108.0,blue,square
1.0,1,7.0,2.0,1969.48409081,1.0,part_3,stop,,,,44.0,1.0,264.0,44.0,220.0,132.0,88.0,176.0,blue,square
4.0,1,7.0,6.0,901.2060165409999,1.0,part_3,stop,,,,156.0,4.0,234.0,39.0,117.0,195.0,78.0,156.0,yellow,diamond
4.0,1,7.0,1.0,917.9959297180001,1.0,part_3,stop,,,,196.0,4.0,196.0,147.0,49.0,245.0,98.0,294.0,yellow,diamond
0.5,1,7.0,4.0,501.028060913,1.0,part_3,stop,,,,170.0,5.0,204.0,102.0,34.0,170.0,136.0,68.0,gray,circle
1.0,0,7.0,1.0,901.143074036,1.0,part_3,go,,,,117.0,3.0,117.0,156.0,195.0,78.0,234.0,39.0,cyan,line
2.0,0,7.0,3.0,734.4369888309999,1.0,part_3,go,,,,108.0,2.0,324.0,216.0,108.0,162.0,270.0,54.0,white,flipped triangle
1.0,1,7.0,1.0,1818.4909820599999,1.0,part_3,stop,,,,147.0,3.0,147.0,98.0,245.0,294.0,196.0,49.0,blue,square
1.0,1,7.0,5.0,1635.67900658,1.0,part_3,stop,,,,196.0,4.0,245.0,98.0,147.0,294.0,196.0,49.0,blue,square
4.0,0,7.0,6.0,2552.83093452,1.0,part_3,go,,,,136.0,4.0,34.0,102.0,204.0,170.0,68.0,136.0,magenta,hexagon
0.5,0,7.0,3.0,1551.27000809,1.0,part_3,go,,,,54.0,1.0,216.0,324.0,54.0,270.0,108.0,162.0,green,cross
2.0,1,7.0,6.0,1702.12006569,1.0,part_3,stop,,,,204.0,6.0,102.0,34.0,170.0,136.0,68.0,204.0,orange,triangle
4.0,1,7.0,2.0,2252.39086151,1.0,part_3,stop,,,,216.0,4.0,270.0,216.0,324.0,54.0,108.0,162.0,yellow,diamond
0.5,0,7.0,5.0,1435.28008461,2.0,part_3,go,,,,204.0,6.0,68.0,34.0,136.0,102.0,204.0,170.0,green,cross
0.5,0,7.0,2.0,1118.58987808,2.0,part_3,go,,,,220.0,5.0,132.0,220.0,44.0,264.0,88.0,176.0,green,cross
1.0,0,7.0,1.0,2569.46015358,2.0,part_3,go,,,,162.0,3.0,162.0,108.0,216.0,270.0,324.0,54.0,cyan,line
1.0,0,7.0,6.0,1802.13499069,2.0,part_3,go,,,,264.0,6.0,88.0,176.0,220.0,44.0,132.0,264.0,cyan,line
4.0,0,7.0,2.0,1735.58807373,2.0,part_3,go,,,,245.0,5.0,98.0,245.0,294.0,49.0,147.0,196.0,magenta,hexagon
1.0,0,7.0,6.0,1468.86110306,2.0,part_3,go,,,,102.0,3.0,204.0,170.0,34.0,68.0,136.0,102.0,cyan,line
0.5,0,7.0,3.0,1819.09108162,2.0,part_3,go,,,,196.0,4.0,98.0,147.0,196.0,49.0,245.0,294.0,green,cross
4.0,1,7.0,6.0,1618.52288246,2.0,part_3,stop,,,,170.0,5.0,34.0,136.0,204.0,102.0,68.0,170.0,yellow,diamond
0.5,1,7.0,3.0,1134.30309296,2.0,part_3,stop,,,,195.0,5.0,39.0,234.0,195.0,117.0,78.0,156.0,gray,circle
2.0,0,7.0,5.0,1268.48602295,2.0,part_3,go,,,,156.0,4.0,117.0,78.0,234.0,195.0,156.0,39.0,white,flipped triangle
4.0,0,7.0,2.0,1718.92213821,2.0,part_3,go,,,,117.0,3.0,195.0,117.0,156.0,234.0,39.0,78.0,magenta,hexagon
4.0,1,7.0,6.0,1184.5908165,2.0,part_3,stop,,,,156.0,4.0,195.0,39.0,78.0,117.0,234.0,156.0,yellow,diamond
2.0,1,7.0,2.0,1368.54195595,2.0,part_3,stop,,,,264.0,6.0,88.0,264.0,44.0,176.0,220.0,132.0,orange,triangle
0.5,0,7.0,5.0,1101.80807114,2.0,part_3,go,,,,156.0,4.0,39.0,117.0,234.0,78.0,156.0,195.0,green,cross
2.0,0,7.0,1.0,1285.37917137,2.0,part_3,go,,,,49.0,1.0,49.0,245.0,294.0,98.0,196.0,147.0,white,flipped triangle
1.0,0,7.0,5.0,1218.94598007,2.0,part_3,go,,,,162.0,3.0,216.0,270.0,108.0,54.0,162.0,324.0,cyan,line
2.0,1,7.0,2.0,1535.52484512,2.0,part_3,stop,,,,234.0,6.0,39.0,234.0,117.0,78.0,195.0,156.0,orange,triangle
0.5,1,7.0,5.0,1051.31292343,2.0,part_3,stop,,,,220.0,5.0,44.0,88.0,264.0,176.0,220.0,132.0,gray,circle
2.0,1,7.0,5.0,1102.05817223,2.0,part_3,stop,,,,294.0,6.0,98.0,245.0,196.0,49.0,294.0,147.0,orange,triangle
4.0,0,7.0,2.0,1285.0739955899999,2.0,part_3,go,,,,176.0,4.0,44.0,176.0,132.0,264.0,88.0,220.0,magenta,hexagon
2.0,1,7.0,6.0,1034.80386734,3.0,part_3,stop,,,,108.0,2.0,324.0,162.0,216.0,54.0,270.0,108.0,orange,triangle
2.0,0,7.0,2.0,1601.62806511,3.0,part_3,go,,,,162.0,3.0,270.0,162.0,216.0,54.0,108.0,324.0,white,flipped triangle
4.0,1,7.0,4.0,935.116052628,3.0,part_3,stop,,,,176.0,4.0,264.0,220.0,132.0,176.0,88.0,44.0,yellow,diamond
2.0,0,7.0,3.0,3003.26085091,3.0,part_3,go,,,,176.0,4.0,44.0,264.0,176.0,220.0,132.0,88.0,white,flipped triangle
1.0,0,7.0,4.0,1351.91893578,3.0,part_3,go,,,,195.0,5.0,39.0,78.0,117.0,195.0,156.0,234.0,cyan,line
1.0,1,7.0,5.0,1418.49803925,3.0,part_3,stop,,,,195.0,5.0,156.0,39.0,117.0,234.0,195.0,78.0,blue,square
4.0,0,7.0,5.0,2419.60096359,3.0,part_3,go,,,,204.0,6.0,102.0,34.0,136.0,68.0,204.0,170.0,magenta,hexagon
2.0,0,7.0,5.0,1451.39217377,3.0,part_3,go,,,,204.0,6.0,68.0,170.0,102.0,136.0,204.0,34.0,white,flipped triangle
1.0,1,7.0,5.0,1652.1089077,3.0,part_3,stop,,,,136.0,4.0,102.0,204.0,170.0,34.0,136.0,68.0,blue,square
4.0,0,7.0,6.0,1902.8179645500002,3.0,part_3,go,,,,108.0,2.0,162.0,324.0,54.0,216.0,270.0,108.0,magenta,hexagon
0.5,0,7.0,1.0,1034.7840786,3.0,part_3,go,,,,34.0,1.0,34.0,102.0,170.0,68.0,204.0,136.0,green,cross
0.5,1,7.0,4.0,1468.60218048,3.0,part_3,stop,,,,176.0,4.0,220.0,132.0,264.0,176.0,44.0,88.0,gray,circle
0.5,1,7.0,6.0,951.232910156,3.0,part_3,stop,,,,117.0,3.0,39.0,234.0,156.0,195.0,78.0,117.0,gray,circle
4.0,0,7.0,1.0,1651.76296234,3.0,part_3,go,,,,270.0,5.0,270.0,162.0,108.0,54.0,216.0,324.0,magenta,hexagon
2.0,1,7.0,4.0,2386.21902466,3.0,part_3,stop,,,,270.0,5.0,162.0,324.0,108.0,270.0,216.0,54.0,orange,triangle
0.5,1,7.0,6.0,2336.1251354200003,3.0,part_3,stop,,,,49.0,1.0,147.0,294.0,98.0,196.0,245.0,49.0,gray,circle
0.5,0,7.0,1.0,2168.8477993,3.0,part_3,go,,,,44.0,1.0,44.0,264.0,88.0,220.0,176.0,132.0,green,cross
1.0,1,7.0,5.0,1134.7219944,3.0,part_3,stop,,,,324.0,6.0,162.0,108.0,54.0,216.0,324.0,270.0,blue,square
2.0,0,7.0,3.0,1618.7779903399999,3.0,part_3,go,,,,170.0,5.0,68.0,204.0,170.0,34.0,102.0,136.0,white,flipped triangle
0.5,1,7.0,2.0,3237.18190193,3.0,part_3,stop,,,,98.0,2.0,245.0,98.0,196.0,49.0,147.0,294.0,gray,circle
2.0,0,7.0,5.0,2002.4259090399999,4.0,part_3,go,,,,49.0,1.0,147.0,196.0,294.0,98.0,49.0,245.0,white,flipped triangle
2.0,1,7.0,1.0,2669.5189476,4.0,part_3,stop,,,,170.0,5.0,170.0,204.0,34.0,68.0,102.0,136.0,orange,triangle
0.5,1,7.0,1.0,2602.74887085,4.0,part_3,stop,,,,162.0,3.0,162.0,54.0,324.0,270.0,108.0,216.0,gray,circle
0.5,1,7.0,6.0,1918.3831214900001,4.0,part_3,stop,,,,136.0,4.0,68.0,204.0,34.0,170.0,102.0,136.0,gray,circle
4.0,0,7.0,3.0,1535.46404839,4.0,part_3,go,,,,245.0,5.0,98.0,196.0,245.0,49.0,147.0,294.0,magenta,hexagon
4.0,1,7.0,3.0,1968.92809868,4.0,part_3,stop,,,,204.0,6.0,102.0,68.0,204.0,136.0,34.0,170.0,yellow,diamond
2.0,1,7.0,5.0,1184.1981411,4.0,part_3,stop,,,,294.0,6.0,98.0,245.0,147.0,196.0,294.0,49.0,orange,triangle
2.0,0,7.0,1.0,1251.4641284900001,4.0,part_3,go,,,,132.0,3.0,132.0,44.0,176.0,264.0,88.0,220.0,white,flipped triangle
0.5,0,7.0,6.0,1184.7910880999998,4.0,part_3,go,,,,245.0,5.0,196.0,49.0,294.0,147.0,98.0,245.0,green,cross
0.5,0,7.0,4.0,1051.86104774,4.0,part_3,go,,,,39.0,1.0,78.0,234.0,195.0,39.0,117.0,156.0,green,cross
4.0,0,7.0,4.0,1351.66192055,4.0,part_3,go,,,,195.0,5.0,234.0,39.0,156.0,195.0,78.0,117.0,magenta,hexagon
1.0,0,7.0,2.0,1368.4329986599998,4.0,part_3,go,,,,98.0,2.0,147.0,98.0,196.0,294.0,245.0,49.0,cyan,line
4.0,1,7.0,2.0,1718.22714806,4.0,part_3,stop,,,,324.0,6.0,108.0,324.0,54.0,162.0,270.0,216.0,yellow,diamond
2.0,0,7.0,6.0,1484.87782478,4.0,part_3,go,,,,78.0,2.0,117.0,39.0,156.0,195.0,234.0,78.0,white,flipped triangle
4.0,1,7.0,4.0,1501.54304504,4.0,part_3,stop,,,,264.0,6.0,88.0,132.0,220.0,264.0,176.0,44.0,yellow,diamond
0.5,0,7.0,5.0,3220.8569049800003,4.0,part_3,go,,,,162.0,3.0,324.0,270.0,54.0,216.0,162.0,108.0,green,cross
1.0,1,7.0,1.0,2019.11497116,4.0,part_3,stop,,,,264.0,6.0,264.0,220.0,88.0,176.0,132.0,44.0,blue,square
1.0,0,7.0,6.0,884.52911377,4.0,part_3,go,,,,44.0,1.0,176.0,132.0,220.0,264.0,88.0,44.0,cyan,line
1.0,0,7.0,4.0,1334.7139358499999,4.0,part_3,go,,,,68.0,2.0,102.0,34.0,170.0,68.0,204.0,136.0,cyan,line
1.0,1,7.0,4.0,1168.02120209,4.0,part_3,stop,,,,204.0,6.0,34.0,136.0,68.0,204.0,102.0,170.0,blue,square
