raw_reward_magnitude,stim_reward,stepwise_reward_magnitude,paired_with_stopping,stim_location,response,reaction_time,block,which_phase,stop_signal_trial_type,left_SSD,right_SSD,accuracy,chosen_bidding_amount,chosen_bidding_level,possible_bid_1,possible_bid_2,possible_bid_3,possible_bid_4,possible_bid_5,possible_bid_6,color_text,shape_text
219.0,3.0,3.0,1,1.0,1.0,534.265995026,1.0,phase_1,,,,,,,,,,,,,orange,cross
0.0,6.0,0.0,1,2.0,2.0,433.953046799,1.0,phase_1,,,,,,,,,,,,,cyan,square
216.0,7.0,3.0,0,4.0,4.0,350.927829742,1.0,phase_1,,,,,,,,,,,,,yellow,circle
392.0,4.0,4.0,0,3.0,3.0,383.91709327700005,1.0,phase_1,,,,,,,,,,,,,magenta,flipped triangle
25.0,1.0,1.0,1,1.0,1.0,417.65213012699996,1.0,phase_1,,,,,,,,,,,,,blue,line
391.0,4.0,4.0,0,3.0,3.0,350.223064423,1.0,phase_1,,,,,,,,,,,,,magenta,flipped triangle
0.0,4.0,0.0,0,2.0,2.0,417.76299476599996,1.0,phase_1,,,,,,,,,,,,,magenta,flipped triangle
396.0,4.0,4.0,0,1.0,1.0,501.07598304699997,1.0,phase_1,,,,,,,,,,,,,magenta,flipped triangle
421.0,4.0,4.0,0,3.0,3.0,384.315013885,1.0,phase_1,,,,,,,,,,,,,magenta,flipped triangle
71.0,5.0,1.0,0,4.0,4.0,417.553901672,1.0,phase_1,,,,,,,,,,,,,gray,triangle
394.0,4.0,4.0,0,3.0,3.0,367.557048798,1.0,phase_1,,,,,,,,,,,,,magenta,flipped triangle
214.0,7.0,3.0,0,2.0,2.0,383.77904892,1.0,phase_1,,,,,,,,,,,,,yellow,circle
0.0,7.0,0.0,0,2.0,2.0,417.137861252,1.0,phase_1,,,,,,,,,,,,,yellow,circle
51.0,5.0,1.0,0,4.0,4.0,467.79012680100004,1.0,phase_1,,,,,,,,,,,,,gray,triangle
0.0,4.0,0.0,0,2.0,2.0,400.52914619399996,1.0,phase_1,,,,,,,,,,,,,magenta,flipped triangle
83.0,2.0,2.0,0,3.0,3.0,533.923864365,1.0,phase_1,,,,,,,,,,,,,white,hexagon
78.0,6.0,2.0,1,4.0,4.0,417.85192489599996,1.0,phase_1,,,,,,,,,,,,,cyan,square
0.0,8.0,0.0,1,1.0,1.0,451.102018356,1.0,phase_1,,,,,,,,,,,,,green,diamond
72.0,1.0,1.0,1,2.0,2.0,400.688886642,1.0,phase_1,,,,,,,,,,,,,blue,line
75.0,5.0,1.0,0,1.0,1.0,401.76200866700003,1.0,phase_1,,,,,,,,,,,,,gray,triangle
412.0,8.0,4.0,1,2.0,2.0,450.46687126200004,1.0,phase_1,,,,,,,,,,,,,green,diamond
181.0,7.0,3.0,0,2.0,2.0,367.453098297,1.0,phase_1,,,,,,,,,,,,,yellow,circle
215.0,7.0,3.0,0,1.0,1.0,434.23700332600004,1.0,phase_1,,,,,,,,,,,,,yellow,circle
0.0,1.0,0.0,1,2.0,2.0,383.97598266600005,1.0,phase_1,,,,,,,,,,,,,blue,line
83.0,6.0,2.0,1,4.0,4.0,468.07217598,1.0,phase_1,,,,,,,,,,,,,cyan,square
190.0,3.0,3.0,1,3.0,3.0,400.950908661,1.0,phase_1,,,,,,,,,,,,,orange,cross
212.0,7.0,3.0,0,2.0,2.0,383.89897346500004,1.0,phase_1,,,,,,,,,,,,,yellow,circle
415.0,8.0,4.0,1,1.0,1.0,434.175014496,1.0,phase_1,,,,,,,,,,,,,green,diamond
115.0,2.0,2.0,0,4.0,4.0,417.49787330600003,1.0,phase_1,,,,,,,,,,,,,white,hexagon
124.0,6.0,2.0,1,2.0,2.0,317.879915237,1.0,phase_1,,,,,,,,,,,,,cyan,square
104.0,6.0,2.0,1,3.0,3.0,300.656080246,1.0,phase_1,,,,,,,,,,,,,cyan,square
83.0,6.0,2.0,1,4.0,4.0,434.678077698,1.0,phase_1,,,,,,,,,,,,,cyan,square
87.0,2.0,2.0,0,3.0,3.0,350.816965103,1.0,phase_1,,,,,,,,,,,,,white,hexagon
204.0,3.0,3.0,1,4.0,4.0,417.057991028,1.0,phase_1,,,,,,,,,,,,,orange,cross
40.0,1.0,1.0,1,3.0,3.0,417.150020599,1.0,phase_1,,,,,,,,,,,,,blue,line
190.0,3.0,3.0,1,4.0,4.0,384.59396362300004,1.0,phase_1,,,,,,,,,,,,,orange,cross
182.0,3.0,3.0,1,4.0,4.0,367.603063583,1.0,phase_1,,,,,,,,,,,,,orange,cross
399.0,4.0,4.0,0,3.0,3.0,367.341995239,1.0,phase_1,,,,,,,,,,,,,magenta,flipped triangle
83.0,6.0,2.0,1,1.0,1.0,334.203958511,1.0,phase_1,,,,,,,,,,,,,cyan,square
54.0,5.0,1.0,0,3.0,3.0,317.15798378,1.0,phase_1,,,,,,,,,,,,,gray,triangle
63.0,5.0,1.0,0,3.0,3.0,367.598056793,1.0,phase_1,,,,,,,,,,,,,gray,triangle
88.0,6.0,2.0,1,1.0,1.0,400.875091553,1.0,phase_1,,,,,,,,,,,,,cyan,square
39.0,1.0,1.0,1,4.0,4.0,350.65007209799995,1.0,phase_1,,,,,,,,,,,,,blue,line
0.0,1.0,0.0,1,1.0,1.0,400.687932968,1.0,phase_1,,,,,,,,,,,,,blue,line
175.0,7.0,3.0,0,3.0,3.0,317.528009415,1.0,phase_1,,,,,,,,,,,,,yellow,circle
114.0,6.0,2.0,1,4.0,4.0,417.45710372900004,1.0,phase_1,,,,,,,,,,,,,cyan,square
0.0,5.0,0.0,0,3.0,3.0,351.131916046,1.0,phase_1,,,,,,,,,,,,,gray,triangle
64.0,1.0,1.0,1,2.0,2.0,384.365797043,1.0,phase_1,,,,,,,,,,,,,blue,line
0.0,5.0,0.0,0,1.0,1.0,384.154081345,1.0,phase_1,,,,,,,,,,,,,gray,triangle
75.0,2.0,2.0,0,4.0,4.0,351.09019279499995,1.0,phase_1,,,,,,,,,,,,,white,hexagon
0.0,1.0,0.0,1,3.0,3.0,350.40783882100004,1.0,phase_1,,,,,,,,,,,,,blue,line
0.0,3.0,0.0,1,2.0,2.0,401.318073273,1.0,phase_1,,,,,,,,,,,,,orange,cross
380.0,8.0,4.0,1,2.0,2.0,417.57392883299997,1.0,phase_1,,,,,,,,,,,,,green,diamond
0.0,4.0,0.0,0,3.0,3.0,284.546136856,1.0,phase_1,,,,,,,,,,,,,magenta,flipped triangle
394.0,8.0,4.0,1,4.0,4.0,383.80408287,1.0,phase_1,,,,,,,,,,,,,green,diamond
0.0,8.0,0.0,1,2.0,2.0,367.557048798,1.0,phase_1,,,,,,,,,,,,,green,diamond
73.0,5.0,1.0,0,1.0,1.0,351.09496116599996,1.0,phase_1,,,,,,,,,,,,,gray,triangle
0.0,8.0,0.0,1,4.0,4.0,417.660951614,1.0,phase_1,,,,,,,,,,,,,green,diamond
384.0,4.0,4.0,0,3.0,3.0,400.871992111,1.0,phase_1,,,,,,,,,,,,,magenta,flipped triangle
222.0,7.0,3.0,0,1.0,1.0,367.79212951700003,1.0,phase_1,,,,,,,,,,,,,yellow,circle
31.0,1.0,1.0,1,2.0,2.0,384.433984756,1.0,phase_1,,,,,,,,,,,,,blue,line
0.0,6.0,0.0,1,1.0,1.0,417.747020721,1.0,phase_1,,,,,,,,,,,,,cyan,square
384.0,4.0,4.0,0,2.0,2.0,417.620897293,1.0,phase_1,,,,,,,,,,,,,magenta,flipped triangle
182.0,7.0,3.0,0,1.0,1.0,351.037979126,1.0,phase_1,,,,,,,,,,,,,yellow,circle
125.0,2.0,2.0,0,4.0,4.0,333.95695686299996,1.0,phase_1,,,,,,,,,,,,,white,hexagon
109.0,6.0,2.0,1,1.0,1.0,367.338895798,1.0,phase_1,,,,,,,,,,,,,cyan,square
75.0,6.0,2.0,1,4.0,4.0,367.35606193499996,1.0,phase_1,,,,,,,,,,,,,cyan,square
0.0,5.0,0.0,0,3.0,3.0,484.19213295000003,1.0,phase_1,,,,,,,,,,,,,gray,triangle
73.0,5.0,1.0,0,4.0,4.0,500.827074051,1.0,phase_1,,,,,,,,,,,,,gray,triangle
181.0,7.0,3.0,0,3.0,3.0,350.969076157,1.0,phase_1,,,,,,,,,,,,,yellow,circle
109.0,6.0,2.0,1,1.0,1.0,333.844900131,1.0,phase_1,,,,,,,,,,,,,cyan,square
0.0,3.0,0.0,1,3.0,3.0,400.984048843,1.0,phase_1,,,,,,,,,,,,,orange,cross
114.0,6.0,2.0,1,1.0,1.0,350.736856461,1.0,phase_1,,,,,,,,,,,,,cyan,square
114.0,6.0,2.0,1,2.0,2.0,384.45687294000004,1.0,phase_1,,,,,,,,,,,,,cyan,square
60.0,1.0,1.0,1,1.0,1.0,350.48985481299997,1.0,phase_1,,,,,,,,,,,,,blue,line
51.0,5.0,1.0,0,2.0,2.0,366.858005524,1.0,phase_1,,,,,,,,,,,,,gray,triangle
0.0,1.0,0.0,1,4.0,4.0,400.61211586,1.0,phase_1,,,,,,,,,,,,,blue,line
0.0,1.0,0.0,1,3.0,3.0,334.21206474300004,1.0,phase_1,,,,,,,,,,,,,blue,line
0.0,4.0,0.0,0,2.0,2.0,367.834091187,1.0,phase_1,,,,,,,,,,,,,magenta,flipped triangle
0.0,1.0,0.0,1,2.0,2.0,301.124811172,1.0,phase_1,,,,,,,,,,,,,blue,line
186.0,7.0,3.0,0,4.0,4.0,383.937835693,1.0,phase_1,,,,,,,,,,,,,yellow,circle
124.0,2.0,2.0,0,2.0,2.0,367.729902267,1.0,phase_1,,,,,,,,,,,,,white,hexagon
94.0,2.0,2.0,0,1.0,1.0,334.511995316,1.0,phase_1,,,,,,,,,,,,,white,hexagon
175.0,3.0,3.0,1,4.0,4.0,417.67501831100003,1.0,phase_1,,,,,,,,,,,,,orange,cross
395.0,8.0,4.0,1,2.0,2.0,334.24496650699996,1.0,phase_1,,,,,,,,,,,,,green,diamond
0.0,6.0,0.0,1,1.0,1.0,334.203004837,1.0,phase_1,,,,,,,,,,,,,cyan,square
35.0,1.0,1.0,1,4.0,4.0,384.34600830100004,1.0,phase_1,,,,,,,,,,,,,blue,line
112.0,2.0,2.0,0,3.0,3.0,384.14287567099996,1.0,phase_1,,,,,,,,,,,,,white,hexagon
35.0,1.0,1.0,1,3.0,3.0,484.018087387,1.0,phase_1,,,,,,,,,,,,,blue,line
116.0,6.0,2.0,1,1.0,1.0,333.992004395,1.0,phase_1,,,,,,,,,,,,,cyan,square
222.0,3.0,3.0,1,3.0,3.0,450.821876526,1.0,phase_1,,,,,,,,,,,,,orange,cross
46.0,5.0,1.0,0,1.0,1.0,350.80718994100005,1.0,phase_1,,,,,,,,,,,,,gray,triangle
125.0,2.0,2.0,0,4.0,4.0,367.658138275,1.0,phase_1,,,,,,,,,,,,,white,hexagon
40.0,5.0,1.0,0,3.0,3.0,333.955049515,1.0,phase_1,,,,,,,,,,,,,gray,triangle
205.0,7.0,3.0,0,2.0,2.0,351.212024689,1.0,phase_1,,,,,,,,,,,,,yellow,circle
66.0,1.0,1.0,1,1.0,1.0,350.87108612099996,1.0,phase_1,,,,,,,,,,,,,blue,line
68.0,1.0,1.0,1,1.0,1.0,333.712100983,1.0,phase_1,,,,,,,,,,,,,blue,line
0.0,3.0,0.0,1,4.0,4.0,400.640964508,1.0,phase_1,,,,,,,,,,,,,orange,cross
407.0,4.0,4.0,0,4.0,4.0,435.034990311,1.0,phase_1,,,,,,,,,,,,,magenta,flipped triangle
0.0,8.0,0.0,1,2.0,2.0,333.818912506,1.0,phase_1,,,,,,,,,,,,,green,diamond
0.0,1.0,0.0,1,2.0,2.0,350.528001785,2.0,phase_1,,,,,,,,,,,,,blue,line
85.0,2.0,2.0,0,4.0,4.0,367.658853531,2.0,phase_1,,,,,,,,,,,,,white,hexagon
0.0,3.0,0.0,1,4.0,4.0,334.04898643499996,2.0,phase_1,,,,,,,,,,,,,orange,cross
0.0,5.0,0.0,0,1.0,1.0,400.882005692,2.0,phase_1,,,,,,,,,,,,,gray,triangle
394.0,8.0,4.0,1,4.0,4.0,383.90994072,2.0,phase_1,,,,,,,,,,,,,green,diamond
191.0,3.0,3.0,1,1.0,1.0,368.141889572,2.0,phase_1,,,,,,,,,,,,,orange,cross
0.0,4.0,0.0,0,1.0,1.0,350.970983505,2.0,phase_1,,,,,,,,,,,,,magenta,flipped triangle
115.0,6.0,2.0,1,1.0,1.0,350.478172302,2.0,phase_1,,,,,,,,,,,,,cyan,square
56.0,1.0,1.0,1,3.0,3.0,434.448957443,2.0,phase_1,,,,,,,,,,,,,blue,line
110.0,2.0,2.0,0,4.0,4.0,334.30099487300004,2.0,phase_1,,,,,,,,,,,,,white,hexagon
0.0,6.0,0.0,1,1.0,1.0,384.000062943,2.0,phase_1,,,,,,,,,,,,,cyan,square
198.0,3.0,3.0,1,4.0,4.0,317.39497184799995,2.0,phase_1,,,,,,,,,,,,,orange,cross
116.0,6.0,2.0,1,4.0,4.0,334.25998687699996,2.0,phase_1,,,,,,,,,,,,,cyan,square
35.0,5.0,1.0,0,2.0,2.0,384.082078934,2.0,phase_1,,,,,,,,,,,,,gray,triangle
198.0,3.0,3.0,1,4.0,4.0,334.447145462,2.0,phase_1,,,,,,,,,,,,,orange,cross
209.0,7.0,3.0,0,3.0,3.0,317.06404686,2.0,phase_1,,,,,,,,,,,,,yellow,circle
185.0,3.0,3.0,1,1.0,1.0,400.845050812,2.0,phase_1,,,,,,,,,,,,,orange,cross
375.0,4.0,4.0,0,3.0,3.0,317.577123642,2.0,phase_1,,,,,,,,,,,,,magenta,flipped triangle
0.0,1.0,0.0,1,1.0,1.0,317.808151245,2.0,phase_1,,,,,,,,,,,,,blue,line
181.0,3.0,3.0,1,1.0,1.0,400.543212891,2.0,phase_1,,,,,,,,,,,,,orange,cross
95.0,6.0,2.0,1,4.0,4.0,400.508880615,2.0,phase_1,,,,,,,,,,,,,cyan,square
63.0,5.0,1.0,0,4.0,4.0,417.700052261,2.0,phase_1,,,,,,,,,,,,,gray,triangle
190.0,7.0,3.0,0,4.0,4.0,350.945949554,2.0,phase_1,,,,,,,,,,,,,yellow,circle
46.0,1.0,1.0,1,3.0,3.0,367.676973343,2.0,phase_1,,,,,,,,,,,,,blue,line
424.0,8.0,4.0,1,2.0,2.0,383.996009827,2.0,phase_1,,,,,,,,,,,,,green,diamond
0.0,3.0,0.0,1,4.0,4.0,367.776870728,2.0,phase_1,,,,,,,,,,,,,orange,cross
0.0,5.0,0.0,0,3.0,3.0,350.737094879,2.0,phase_1,,,,,,,,,,,,,gray,triangle
80.0,2.0,2.0,0,4.0,4.0,367.762088776,2.0,phase_1,,,,,,,,,,,,,white,hexagon
225.0,7.0,3.0,0,2.0,2.0,367.924928665,2.0,phase_1,,,,,,,,,,,,,yellow,circle
72.0,1.0,1.0,1,3.0,3.0,384.027957916,2.0,phase_1,,,,,,,,,,,,,blue,line
43.0,1.0,1.0,1,4.0,4.0,351.06492042499997,2.0,phase_1,,,,,,,,,,,,,blue,line
379.0,8.0,4.0,1,2.0,2.0,334.247112274,2.0,phase_1,,,,,,,,,,,,,green,diamond
409.0,8.0,4.0,1,3.0,3.0,334.25998687699996,2.0,phase_1,,,,,,,,,,,,,green,diamond
0.0,1.0,0.0,1,2.0,2.0,434.174060822,2.0,phase_1,,,,,,,,,,,,,blue,line
387.0,8.0,4.0,1,2.0,2.0,418.022871017,2.0,phase_1,,,,,,,,,,,,,green,diamond
0.0,5.0,0.0,0,3.0,3.0,401.11088752700005,2.0,phase_1,,,,,,,,,,,,,gray,triangle
0.0,1.0,0.0,1,2.0,2.0,317.483901978,2.0,phase_1,,,,,,,,,,,,,blue,line
205.0,3.0,3.0,1,3.0,3.0,384.41491127,2.0,phase_1,,,,,,,,,,,,,orange,cross
415.0,4.0,4.0,0,1.0,1.0,350.811004639,2.0,phase_1,,,,,,,,,,,,,magenta,flipped triangle
203.0,7.0,3.0,0,3.0,3.0,384.191989899,2.0,phase_1,,,,,,,,,,,,,yellow,circle
0.0,4.0,0.0,0,4.0,4.0,417.526960373,2.0,phase_1,,,,,,,,,,,,,magenta,flipped triangle
384.0,8.0,4.0,1,1.0,1.0,384.846925735,2.0,phase_1,,,,,,,,,,,,,green,diamond
180.0,3.0,3.0,1,1.0,1.0,384.73200798,2.0,phase_1,,,,,,,,,,,,,orange,cross
407.0,8.0,4.0,1,2.0,2.0,367.854118347,2.0,phase_1,,,,,,,,,,,,,green,diamond
187.0,7.0,3.0,0,2.0,2.0,333.927869797,2.0,phase_1,,,,,,,,,,,,,yellow,circle
82.0,2.0,2.0,0,1.0,1.0,317.39783287,2.0,phase_1,,,,,,,,,,,,,white,hexagon
0.0,2.0,0.0,0,3.0,3.0,334.175825119,2.0,phase_1,,,,,,,,,,,,,white,hexagon
196.0,3.0,3.0,1,3.0,3.0,334.397792816,2.0,phase_1,,,,,,,,,,,,,orange,cross
107.0,6.0,2.0,1,1.0,1.0,350.887060165,2.0,phase_1,,,,,,,,,,,,,cyan,square
0.0,3.0,0.0,1,2.0,2.0,301.237106323,2.0,phase_1,,,,,,,,,,,,,orange,cross
178.0,3.0,3.0,1,4.0,4.0,334.609031677,2.0,phase_1,,,,,,,,,,,,,orange,cross
32.0,1.0,1.0,1,3.0,3.0,351.469993591,2.0,phase_1,,,,,,,,,,,,,blue,line
416.0,8.0,4.0,1,3.0,3.0,350.732088089,2.0,phase_1,,,,,,,,,,,,,green,diamond
51.0,5.0,1.0,0,1.0,1.0,350.136995316,2.0,phase_1,,,,,,,,,,,,,gray,triangle
0.0,6.0,0.0,1,4.0,4.0,384.32097435000003,2.0,phase_1,,,,,,,,,,,,,cyan,square
186.0,3.0,3.0,1,1.0,1.0,368.06511879,2.0,phase_1,,,,,,,,,,,,,orange,cross
423.0,4.0,4.0,0,1.0,1.0,367.941141129,2.0,phase_1,,,,,,,,,,,,,magenta,flipped triangle
381.0,8.0,4.0,1,1.0,1.0,367.474079132,2.0,phase_1,,,,,,,,,,,,,green,diamond
193.0,7.0,3.0,0,4.0,4.0,384.195804596,2.0,phase_1,,,,,,,,,,,,,yellow,circle
112.0,6.0,2.0,1,3.0,3.0,333.655118942,2.0,phase_1,,,,,,,,,,,,,cyan,square
407.0,8.0,4.0,1,1.0,1.0,367.694854736,2.0,phase_1,,,,,,,,,,,,,green,diamond
66.0,5.0,1.0,0,4.0,4.0,384.15718078599997,2.0,phase_1,,,,,,,,,,,,,gray,triangle
417.0,8.0,4.0,1,4.0,4.0,367.621898651,2.0,phase_1,,,,,,,,,,,,,green,diamond
65.0,5.0,1.0,0,1.0,1.0,367.843866348,2.0,phase_1,,,,,,,,,,,,,gray,triangle
118.0,6.0,2.0,1,2.0,2.0,367.538928986,2.0,phase_1,,,,,,,,,,,,,cyan,square
0.0,3.0,0.0,1,4.0,4.0,384.08613204999995,2.0,phase_1,,,,,,,,,,,,,orange,cross
410.0,8.0,4.0,1,2.0,2.0,317.752122879,2.0,phase_1,,,,,,,,,,,,,green,diamond
384.0,4.0,4.0,0,2.0,2.0,451.076984406,2.0,phase_1,,,,,,,,,,,,,magenta,flipped triangle
97.0,6.0,2.0,1,2.0,2.0,350.791931152,2.0,phase_1,,,,,,,,,,,,,cyan,square
220.0,3.0,3.0,1,2.0,2.0,350.428104401,2.0,phase_1,,,,,,,,,,,,,orange,cross
77.0,6.0,2.0,1,1.0,1.0,467.85306930499996,2.0,phase_1,,,,,,,,,,,,,cyan,square
402.0,4.0,4.0,0,3.0,3.0,383.85319709799995,2.0,phase_1,,,,,,,,,,,,,magenta,flipped triangle
56.0,5.0,1.0,0,3.0,3.0,484.488010406,2.0,phase_1,,,,,,,,,,,,,gray,triangle
0.0,8.0,0.0,1,2.0,2.0,317.656993866,2.0,phase_1,,,,,,,,,,,,,green,diamond
25.0,1.0,1.0,1,3.0,3.0,383.91399383500004,2.0,phase_1,,,,,,,,,,,,,blue,line
198.0,7.0,3.0,0,1.0,1.0,334.742069244,2.0,phase_1,,,,,,,,,,,,,yellow,circle
0.0,6.0,0.0,1,2.0,2.0,300.72903633100003,2.0,phase_1,,,,,,,,,,,,,cyan,square
0.0,3.0,0.0,1,1.0,1.0,333.73999595600003,2.0,phase_1,,,,,,,,,,,,,orange,cross
0.0,5.0,0.0,0,3.0,3.0,383.590936661,2.0,phase_1,,,,,,,,,,,,,gray,triangle
62.0,1.0,1.0,1,1.0,1.0,368.343830109,2.0,phase_1,,,,,,,,,,,,,blue,line
215.0,3.0,3.0,1,2.0,2.0,334.760904312,2.0,phase_1,,,,,,,,,,,,,orange,cross
417.0,8.0,4.0,1,3.0,3.0,384.829044342,2.0,phase_1,,,,,,,,,,,,,green,diamond
41.0,1.0,1.0,1,3.0,3.0,351.18389129599996,2.0,phase_1,,,,,,,,,,,,,blue,line
418.0,8.0,4.0,1,2.0,2.0,317.543029785,2.0,phase_1,,,,,,,,,,,,,green,diamond
48.0,1.0,1.0,1,2.0,2.0,333.72592926,2.0,phase_1,,,,,,,,,,,,,blue,line
0.0,3.0,0.0,1,3.0,3.0,350.05903243999995,2.0,phase_1,,,,,,,,,,,,,orange,cross
185.0,7.0,3.0,0,4.0,4.0,350.919961929,2.0,phase_1,,,,,,,,,,,,,yellow,circle
380.0,8.0,4.0,1,1.0,1.0,400.34008026099997,2.0,phase_1,,,,,,,,,,,,,green,diamond
100.0,6.0,2.0,1,3.0,3.0,317.79479980499997,2.0,phase_1,,,,,,,,,,,,,cyan,square
58.0,5.0,1.0,0,1.0,1.0,334.032058716,2.0,phase_1,,,,,,,,,,,,,gray,triangle
82.0,6.0,2.0,1,4.0,4.0,350.61788559,2.0,phase_1,,,,,,,,,,,,,cyan,square
0.0,6.0,0.0,1,4.0,4.0,367.390871048,2.0,phase_1,,,,,,,,,,,,,cyan,square
403.0,8.0,4.0,1,2.0,2.0,318.181037903,2.0,phase_1,,,,,,,,,,,,,green,diamond
219.0,3.0,3.0,1,4.0,4.0,334.769964218,2.0,phase_1,,,,,,,,,,,,,orange,cross
198.0,3.0,3.0,1,2.0,2.0,317.49892234799995,2.0,phase_1,,,,,,,,,,,,,orange,cross
36.0,1.0,1.0,1,2.0,2.0,301.16891861,2.0,phase_1,,,,,,,,,,,,,blue,line
412.0,4.0,4.0,0,2.0,2.0,317.34800338699995,2.0,phase_1,,,,,,,,,,,,,magenta,flipped triangle
0.0,3.0,0.0,1,3.0,3.0,367.51389503499996,2.0,phase_1,,,,,,,,,,,,,orange,cross
401.0,8.0,4.0,1,4.0,4.0,317.625045776,2.0,phase_1,,,,,,,,,,,,,green,diamond
419.0,4.0,4.0,0,3.0,3.0,351.326942444,2.0,phase_1,,,,,,,,,,,,,magenta,flipped triangle
77.0,6.0,2.0,1,3.0,3.0,451.523780823,3.0,phase_1,,,,,,,,,,,,,cyan,square
83.0,6.0,2.0,1,1.0,1.0,317.029953003,3.0,phase_1,,,,,,,,,,,,,cyan,square
416.0,4.0,4.0,0,2.0,2.0,300.82011222799997,3.0,phase_1,,,,,,,,,,,,,magenta,flipped triangle
423.0,8.0,4.0,1,2.0,2.0,318.073034286,3.0,phase_1,,,,,,,,,,,,,green,diamond
192.0,3.0,3.0,1,3.0,3.0,334.733009338,3.0,phase_1,,,,,,,,,,,,,orange,cross
0.0,7.0,0.0,0,1.0,1.0,317.390918732,3.0,phase_1,,,,,,,,,,,,,yellow,circle
418.0,8.0,4.0,1,1.0,1.0,351.40109062199997,3.0,phase_1,,,,,,,,,,,,,green,diamond
220.0,3.0,3.0,1,1.0,1.0,334.361076355,3.0,phase_1,,,,,,,,,,,,,orange,cross
37.0,5.0,1.0,0,2.0,2.0,317.368984222,3.0,phase_1,,,,,,,,,,,,,gray,triangle
0.0,6.0,0.0,1,1.0,1.0,367.59305000300003,3.0,phase_1,,,,,,,,,,,,,cyan,square
384.0,4.0,4.0,0,2.0,2.0,284.470796585,3.0,phase_1,,,,,,,,,,,,,magenta,flipped triangle
216.0,7.0,3.0,0,4.0,4.0,435.122013092,3.0,phase_1,,,,,,,,,,,,,yellow,circle
0.0,6.0,0.0,1,2.0,2.0,300.30798912,3.0,phase_1,,,,,,,,,,,,,cyan,square
184.0,7.0,3.0,0,1.0,1.0,334.48195457500003,3.0,phase_1,,,,,,,,,,,,,yellow,circle
114.0,2.0,2.0,0,2.0,2.0,334.59186553999996,3.0,phase_1,,,,,,,,,,,,,white,hexagon
179.0,7.0,3.0,0,3.0,3.0,334.238052368,3.0,phase_1,,,,,,,,,,,,,yellow,circle
201.0,7.0,3.0,0,1.0,1.0,283.565044403,3.0,phase_1,,,,,,,,,,,,,yellow,circle
96.0,2.0,2.0,0,1.0,1.0,334.30981636,3.0,phase_1,,,,,,,,,,,,,white,hexagon
0.0,3.0,0.0,1,3.0,3.0,368.234872818,3.0,phase_1,,,,,,,,,,,,,orange,cross
117.0,2.0,2.0,0,4.0,4.0,584.8639011380001,3.0,phase_1,,,,,,,,,,,,,white,hexagon
388.0,4.0,4.0,0,4.0,4.0,367.37203598,3.0,phase_1,,,,,,,,,,,,,magenta,flipped triangle
0.0,3.0,0.0,1,1.0,1.0,317.243099213,3.0,phase_1,,,,,,,,,,,,,orange,cross
70.0,5.0,1.0,0,3.0,3.0,350.842952728,3.0,phase_1,,,,,,,,,,,,,gray,triangle
216.0,3.0,3.0,1,3.0,3.0,384.178876877,3.0,phase_1,,,,,,,,,,,,,orange,cross
0.0,7.0,0.0,0,4.0,4.0,367.628097534,3.0,phase_1,,,,,,,,,,,,,yellow,circle
67.0,1.0,1.0,1,2.0,2.0,334.082841873,3.0,phase_1,,,,,,,,,,,,,blue,line
397.0,8.0,4.0,1,2.0,2.0,400.625944138,3.0,phase_1,,,,,,,,,,,,,green,diamond
75.0,5.0,1.0,0,4.0,4.0,384.233951569,3.0,phase_1,,,,,,,,,,,,,gray,triangle
401.0,4.0,4.0,0,4.0,4.0,367.630958557,3.0,phase_1,,,,,,,,,,,,,magenta,flipped triangle
73.0,5.0,1.0,0,3.0,3.0,333.940982819,3.0,phase_1,,,,,,,,,,,,,gray,triangle
0.0,3.0,0.0,1,3.0,3.0,317.885875702,3.0,phase_1,,,,,,,,,,,,,orange,cross
193.0,3.0,3.0,1,1.0,1.0,384.150981903,3.0,phase_1,,,,,,,,,,,,,orange,cross
0.0,4.0,0.0,0,4.0,4.0,350.697994232,3.0,phase_1,,,,,,,,,,,,,magenta,flipped triangle
383.0,8.0,4.0,1,2.0,2.0,317.54899025,3.0,phase_1,,,,,,,,,,,,,green,diamond
41.0,5.0,1.0,0,4.0,4.0,317.467927933,3.0,phase_1,,,,,,,,,,,,,gray,triangle
43.0,5.0,1.0,0,1.0,1.0,334.436178207,3.0,phase_1,,,,,,,,,,,,,gray,triangle
425.0,4.0,4.0,0,4.0,4.0,367.662906647,3.0,phase_1,,,,,,,,,,,,,magenta,flipped triangle
109.0,6.0,2.0,1,4.0,4.0,367.55895614599996,3.0,phase_1,,,,,,,,,,,,,cyan,square
124.0,2.0,2.0,0,2.0,2.0,300.936937332,3.0,phase_1,,,,,,,,,,,,,white,hexagon
81.0,2.0,2.0,0,4.0,4.0,317.38495826699994,3.0,phase_1,,,,,,,,,,,,,white,hexagon
205.0,7.0,3.0,0,1.0,1.0,300.579071045,3.0,phase_1,,,,,,,,,,,,,yellow,circle
73.0,5.0,1.0,0,2.0,2.0,400.578975677,3.0,phase_1,,,,,,,,,,,,,gray,triangle
38.0,1.0,1.0,1,2.0,2.0,350.72708129899996,3.0,phase_1,,,,,,,,,,,,,blue,line
27.0,5.0,1.0,0,4.0,4.0,367.41805076599996,3.0,phase_1,,,,,,,,,,,,,gray,triangle
213.0,7.0,3.0,0,4.0,4.0,317.144155502,3.0,phase_1,,,,,,,,,,,,,yellow,circle
67.0,5.0,1.0,0,3.0,3.0,417.5760746,3.0,phase_1,,,,,,,,,,,,,gray,triangle
0.0,3.0,0.0,1,3.0,3.0,350.25501251199995,3.0,phase_1,,,,,,,,,,,,,orange,cross
0.0,5.0,0.0,0,1.0,1.0,334.082841873,3.0,phase_1,,,,,,,,,,,,,gray,triangle
410.0,4.0,4.0,0,1.0,1.0,334.01894569399997,3.0,phase_1,,,,,,,,,,,,,magenta,flipped triangle
0.0,2.0,0.0,0,2.0,2.0,367.288827896,3.0,phase_1,,,,,,,,,,,,,white,hexagon
85.0,2.0,2.0,0,1.0,1.0,300.739049911,3.0,phase_1,,,,,,,,,,,,,white,hexagon
58.0,1.0,1.0,1,4.0,4.0,400.954008102,3.0,phase_1,,,,,,,,,,,,,blue,line
57.0,1.0,1.0,1,1.0,1.0,317.883968353,3.0,phase_1,,,,,,,,,,,,,blue,line
95.0,2.0,2.0,0,3.0,3.0,334.204912186,3.0,phase_1,,,,,,,,,,,,,white,hexagon
53.0,5.0,1.0,0,1.0,1.0,367.058038712,3.0,phase_1,,,,,,,,,,,,,gray,triangle
62.0,1.0,1.0,1,2.0,2.0,417.45996475199996,3.0,phase_1,,,,,,,,,,,,,blue,line
403.0,8.0,4.0,1,4.0,4.0,351.396083832,3.0,phase_1,,,,,,,,,,,,,green,diamond
403.0,8.0,4.0,1,1.0,1.0,334.21111106899997,3.0,phase_1,,,,,,,,,,,,,green,diamond
0.0,3.0,0.0,1,1.0,1.0,334.309101105,3.0,phase_1,,,,,,,,,,,,,orange,cross
210.0,3.0,3.0,1,1.0,1.0,317.605018616,3.0,phase_1,,,,,,,,,,,,,orange,cross
405.0,8.0,4.0,1,2.0,2.0,350.599050522,3.0,phase_1,,,,,,,,,,,,,green,diamond
184.0,7.0,3.0,0,2.0,2.0,384.59396362300004,3.0,phase_1,,,,,,,,,,,,,yellow,circle
420.0,8.0,4.0,1,4.0,4.0,401.022911072,3.0,phase_1,,,,,,,,,,,,,green,diamond
48.0,5.0,1.0,0,1.0,1.0,333.96697044399997,3.0,phase_1,,,,,,,,,,,,,gray,triangle
56.0,5.0,1.0,0,1.0,1.0,367.00296402,3.0,phase_1,,,,,,,,,,,,,gray,triangle
381.0,4.0,4.0,0,1.0,1.0,300.65393447900004,3.0,phase_1,,,,,,,,,,,,,magenta,flipped triangle
37.0,5.0,1.0,0,3.0,3.0,334.017038345,3.0,phase_1,,,,,,,,,,,,,gray,triangle
80.0,2.0,2.0,0,3.0,3.0,317.24691391,3.0,phase_1,,,,,,,,,,,,,white,hexagon
95.0,6.0,2.0,1,3.0,3.0,317.085027695,3.0,phase_1,,,,,,,,,,,,,cyan,square
107.0,6.0,2.0,1,4.0,4.0,450.953006744,3.0,phase_1,,,,,,,,,,,,,cyan,square
420.0,4.0,4.0,0,3.0,3.0,317.814826965,3.0,phase_1,,,,,,,,,,,,,magenta,flipped triangle
104.0,2.0,2.0,0,3.0,3.0,334.42592620799996,3.0,phase_1,,,,,,,,,,,,,white,hexagon
194.0,3.0,3.0,1,3.0,3.0,334.65385437,3.0,phase_1,,,,,,,,,,,,,orange,cross
108.0,2.0,2.0,0,3.0,3.0,350.39305687,3.0,phase_1,,,,,,,,,,,,,white,hexagon
100.0,2.0,2.0,0,2.0,2.0,383.97693634,3.0,phase_1,,,,,,,,,,,,,white,hexagon
186.0,3.0,3.0,1,3.0,3.0,334.321022034,3.0,phase_1,,,,,,,,,,,,,orange,cross
75.0,2.0,2.0,0,3.0,3.0,317.564964294,3.0,phase_1,,,,,,,,,,,,,white,hexagon
40.0,5.0,1.0,0,2.0,2.0,317.486047745,3.0,phase_1,,,,,,,,,,,,,gray,triangle
85.0,2.0,2.0,0,2.0,2.0,284.462928772,3.0,phase_1,,,,,,,,,,,,,white,hexagon
385.0,4.0,4.0,0,4.0,4.0,317.381858826,3.0,phase_1,,,,,,,,,,,,,magenta,flipped triangle
198.0,7.0,3.0,0,2.0,2.0,300.83990097000003,3.0,phase_1,,,,,,,,,,,,,yellow,circle
381.0,8.0,4.0,1,2.0,2.0,300.945043564,3.0,phase_1,,,,,,,,,,,,,green,diamond
114.0,2.0,2.0,0,3.0,3.0,300.639867783,3.0,phase_1,,,,,,,,,,,,,white,hexagon
0.0,7.0,0.0,0,4.0,4.0,250.88500976599997,3.0,phase_1,,,,,,,,,,,,,yellow,circle
37.0,1.0,1.0,1,3.0,3.0,384.32788848900003,3.0,phase_1,,,,,,,,,,,,,blue,line
187.0,3.0,3.0,1,4.0,4.0,350.636959076,3.0,phase_1,,,,,,,,,,,,,orange,cross
106.0,6.0,2.0,1,2.0,2.0,284.89995002700005,3.0,phase_1,,,,,,,,,,,,,cyan,square
0.0,7.0,0.0,0,1.0,1.0,284.206151962,3.0,phase_1,,,,,,,,,,,,,yellow,circle
47.0,5.0,1.0,0,4.0,4.0,367.254972458,3.0,phase_1,,,,,,,,,,,,,gray,triangle
103.0,2.0,2.0,0,4.0,4.0,384.314060211,3.0,phase_1,,,,,,,,,,,,,white,hexagon
0.0,8.0,0.0,1,2.0,2.0,301.030874252,3.0,phase_1,,,,,,,,,,,,,green,diamond
422.0,4.0,4.0,0,2.0,2.0,434.14115905799997,3.0,phase_1,,,,,,,,,,,,,magenta,flipped triangle
0.0,8.0,0.0,1,3.0,3.0,384.516000748,3.0,phase_1,,,,,,,,,,,,,green,diamond
0.0,5.0,0.0,0,4.0,4.0,351.48715972900004,3.0,phase_1,,,,,,,,,,,,,gray,triangle
414.0,8.0,4.0,1,3.0,3.0,384.02390479999997,3.0,phase_1,,,,,,,,,,,,,green,diamond
79.0,2.0,2.0,0,2.0,2.0,333.831787109,3.0,phase_1,,,,,,,,,,,,,white,hexagon
0.0,2.0,0.0,0,3.0,3.0,334.562063217,3.0,phase_1,,,,,,,,,,,,,white,hexagon
208.0,7.0,3.0,0,1.0,1.0,317.78883934000004,3.0,phase_1,,,,,,,,,,,,,yellow,circle
206.0,3.0,3.0,1,4.0,4.0,350.774049759,3.0,phase_1,,,,,,,,,,,,,orange,cross
190.0,7.0,3.0,0,4.0,4.0,384.203910828,3.0,phase_1,,,,,,,,,,,,,yellow,circle
37.0,1.0,1.0,1,2.0,2.0,418.040037155,4.0,phase_1,,,,,,,,,,,,,blue,line
181.0,7.0,3.0,0,3.0,3.0,350.55303573599997,4.0,phase_1,,,,,,,,,,,,,yellow,circle
91.0,2.0,2.0,0,2.0,2.0,317.438840866,4.0,phase_1,,,,,,,,,,,,,white,hexagon
94.0,6.0,2.0,1,4.0,4.0,367.838144302,4.0,phase_1,,,,,,,,,,,,,cyan,square
411.0,4.0,4.0,0,3.0,3.0,367.84315109299996,4.0,phase_1,,,,,,,,,,,,,magenta,flipped triangle
0.0,5.0,0.0,0,3.0,3.0,351.039171219,4.0,phase_1,,,,,,,,,,,,,gray,triangle
71.0,1.0,1.0,1,3.0,3.0,350.56591033899997,4.0,phase_1,,,,,,,,,,,,,blue,line
0.0,2.0,0.0,0,3.0,3.0,334.571123123,4.0,phase_1,,,,,,,,,,,,,white,hexagon
180.0,7.0,3.0,0,1.0,1.0,367.812871933,4.0,phase_1,,,,,,,,,,,,,yellow,circle
408.0,8.0,4.0,1,4.0,4.0,384.265899658,4.0,phase_1,,,,,,,,,,,,,green,diamond
0.0,6.0,0.0,1,3.0,3.0,418.00904274,4.0,phase_1,,,,,,,,,,,,,cyan,square
52.0,1.0,1.0,1,4.0,4.0,401.13210678099995,4.0,phase_1,,,,,,,,,,,,,blue,line
222.0,7.0,3.0,0,4.0,4.0,367.90895462000003,4.0,phase_1,,,,,,,,,,,,,yellow,circle
197.0,3.0,3.0,1,2.0,2.0,317.45100021400003,4.0,phase_1,,,,,,,,,,,,,orange,cross
58.0,1.0,1.0,1,1.0,1.0,334.704875946,4.0,phase_1,,,,,,,,,,,,,blue,line
402.0,4.0,4.0,0,1.0,1.0,383.46219062800003,4.0,phase_1,,,,,,,,,,,,,magenta,flipped triangle
391.0,8.0,4.0,1,3.0,3.0,351.09496116599996,4.0,phase_1,,,,,,,,,,,,,green,diamond
410.0,8.0,4.0,1,3.0,3.0,301.028013229,4.0,phase_1,,,,,,,,,,,,,green,diamond
399.0,8.0,4.0,1,2.0,2.0,334.347963333,4.0,phase_1,,,,,,,,,,,,,green,diamond
46.0,5.0,1.0,0,3.0,3.0,350.58307647699996,4.0,phase_1,,,,,,,,,,,,,gray,triangle
0.0,2.0,0.0,0,4.0,4.0,334.073066711,4.0,phase_1,,,,,,,,,,,,,white,hexagon
59.0,5.0,1.0,0,4.0,4.0,451.496124268,4.0,phase_1,,,,,,,,,,,,,gray,triangle
112.0,2.0,2.0,0,2.0,2.0,283.984899521,4.0,phase_1,,,,,,,,,,,,,white,hexagon
0.0,5.0,0.0,0,2.0,2.0,334.223031998,4.0,phase_1,,,,,,,,,,,,,gray,triangle
0.0,5.0,0.0,0,3.0,3.0,334.23089981100003,4.0,phase_1,,,,,,,,,,,,,gray,triangle
48.0,5.0,1.0,0,2.0,2.0,384.52386856100003,4.0,phase_1,,,,,,,,,,,,,gray,triangle
92.0,2.0,2.0,0,4.0,4.0,351.160049438,4.0,phase_1,,,,,,,,,,,,,white,hexagon
0.0,4.0,0.0,0,4.0,4.0,367.08188056899996,4.0,phase_1,,,,,,,,,,,,,magenta,flipped triangle
403.0,4.0,4.0,0,2.0,2.0,318.000078201,4.0,phase_1,,,,,,,,,,,,,magenta,flipped triangle
0.0,7.0,0.0,0,1.0,1.0,384.231090546,4.0,phase_1,,,,,,,,,,,,,yellow,circle
100.0,2.0,2.0,0,4.0,4.0,334.180116653,4.0,phase_1,,,,,,,,,,,,,white,hexagon
0.0,1.0,0.0,1,1.0,1.0,417.938947678,4.0,phase_1,,,,,,,,,,,,,blue,line
99.0,2.0,2.0,0,1.0,1.0,401.221990585,4.0,phase_1,,,,,,,,,,,,,white,hexagon
200.0,7.0,3.0,0,2.0,2.0,350.608110428,4.0,phase_1,,,,,,,,,,,,,yellow,circle
0.0,8.0,0.0,1,1.0,1.0,351.298809052,4.0,phase_1,,,,,,,,,,,,,green,diamond
0.0,2.0,0.0,0,4.0,4.0,367.638111115,4.0,phase_1,,,,,,,,,,,,,white,hexagon
414.0,4.0,4.0,0,3.0,3.0,351.213932037,4.0,phase_1,,,,,,,,,,,,,magenta,flipped triangle
0.0,6.0,0.0,1,4.0,4.0,401.259899139,4.0,phase_1,,,,,,,,,,,,,cyan,square
83.0,2.0,2.0,0,3.0,3.0,351.27305984500003,4.0,phase_1,,,,,,,,,,,,,white,hexagon
0.0,2.0,0.0,0,1.0,1.0,351.190090179,4.0,phase_1,,,,,,,,,,,,,white,hexagon
103.0,6.0,2.0,1,4.0,4.0,334.43808555600003,4.0,phase_1,,,,,,,,,,,,,cyan,square
208.0,7.0,3.0,0,3.0,3.0,351.120233536,4.0,phase_1,,,,,,,,,,,,,yellow,circle
59.0,1.0,1.0,1,3.0,3.0,384.191036224,4.0,phase_1,,,,,,,,,,,,,blue,line
385.0,8.0,4.0,1,4.0,4.0,367.62905120799996,4.0,phase_1,,,,,,,,,,,,,green,diamond
81.0,6.0,2.0,1,3.0,3.0,317.279100418,4.0,phase_1,,,,,,,,,,,,,cyan,square
55.0,1.0,1.0,1,3.0,3.0,350.056886673,4.0,phase_1,,,,,,,,,,,,,blue,line
40.0,1.0,1.0,1,2.0,2.0,334.464073181,4.0,phase_1,,,,,,,,,,,,,blue,line
0.0,8.0,0.0,1,3.0,3.0,351.025104523,4.0,phase_1,,,,,,,,,,,,,green,diamond
115.0,6.0,2.0,1,1.0,1.0,350.907087326,4.0,phase_1,,,,,,,,,,,,,cyan,square
222.0,3.0,3.0,1,1.0,1.0,367.40899086,4.0,phase_1,,,,,,,,,,,,,orange,cross
81.0,6.0,2.0,1,4.0,4.0,451.500892639,4.0,phase_1,,,,,,,,,,,,,cyan,square
106.0,6.0,2.0,1,2.0,2.0,317.73018837,4.0,phase_1,,,,,,,,,,,,,cyan,square
0.0,7.0,0.0,0,2.0,2.0,351.140975952,4.0,phase_1,,,,,,,,,,,,,yellow,circle
86.0,2.0,2.0,0,2.0,2.0,283.86998176599997,4.0,phase_1,,,,,,,,,,,,,white,hexagon
381.0,4.0,4.0,0,4.0,4.0,333.95290374800004,4.0,phase_1,,,,,,,,,,,,,magenta,flipped triangle
412.0,4.0,4.0,0,1.0,1.0,701.246976852,4.0,phase_1,,,,,,,,,,,,,magenta,flipped triangle
182.0,7.0,3.0,0,4.0,4.0,367.629766464,4.0,phase_1,,,,,,,,,,,,,yellow,circle
43.0,1.0,1.0,1,3.0,3.0,334.169149399,4.0,phase_1,,,,,,,,,,,,,blue,line
110.0,2.0,2.0,0,2.0,2.0,333.51993560799997,4.0,phase_1,,,,,,,,,,,,,white,hexagon
0.0,7.0,0.0,0,3.0,3.0,367.871046066,4.0,phase_1,,,,,,,,,,,,,yellow,circle
205.0,7.0,3.0,0,4.0,4.0,350.75902938800004,4.0,phase_1,,,,,,,,,,,,,yellow,circle
215.0,7.0,3.0,0,4.0,4.0,384.21988487199997,4.0,phase_1,,,,,,,,,,,,,yellow,circle
122.0,6.0,2.0,1,2.0,2.0,350.552082062,4.0,phase_1,,,,,,,,,,,,,cyan,square
121.0,2.0,2.0,0,3.0,3.0,350.907087326,4.0,phase_1,,,,,,,,,,,,,white,hexagon
118.0,2.0,2.0,0,4.0,4.0,350.793838501,4.0,phase_1,,,,,,,,,,,,,white,hexagon
410.0,4.0,4.0,0,2.0,2.0,334.155082703,4.0,phase_1,,,,,,,,,,,,,magenta,flipped triangle
0.0,7.0,0.0,0,4.0,4.0,367.591142654,4.0,phase_1,,,,,,,,,,,,,yellow,circle
0.0,5.0,0.0,0,2.0,2.0,333.86397361800005,4.0,phase_1,,,,,,,,,,,,,gray,triangle
401.0,4.0,4.0,0,1.0,1.0,401.165008545,4.0,phase_1,,,,,,,,,,,,,magenta,flipped triangle
412.0,4.0,4.0,0,2.0,2.0,333.86397361800005,4.0,phase_1,,,,,,,,,,,,,magenta,flipped triangle
0.0,7.0,0.0,0,1.0,1.0,351.130962372,4.0,phase_1,,,,,,,,,,,,,yellow,circle
403.0,8.0,4.0,1,2.0,2.0,301.260948181,4.0,phase_1,,,,,,,,,,,,,green,diamond
185.0,7.0,3.0,0,1.0,1.0,401.11398696900005,4.0,phase_1,,,,,,,,,,,,,yellow,circle
0.0,5.0,0.0,0,3.0,3.0,384.151935577,4.0,phase_1,,,,,,,,,,,,,gray,triangle
400.0,4.0,4.0,0,2.0,2.0,316.82205200199996,4.0,phase_1,,,,,,,,,,,,,magenta,flipped triangle
103.0,2.0,2.0,0,4.0,4.0,384.28401947000003,4.0,phase_1,,,,,,,,,,,,,white,hexagon
60.0,5.0,1.0,0,1.0,1.0,384.303092957,4.0,phase_1,,,,,,,,,,,,,gray,triangle
417.0,4.0,4.0,0,4.0,4.0,417.41204261800004,4.0,phase_1,,,,,,,,,,,,,magenta,flipped triangle
25.0,1.0,1.0,1,2.0,2.0,334.276914597,4.0,phase_1,,,,,,,,,,,,,blue,line
91.0,2.0,2.0,0,2.0,2.0,484.800815582,4.0,phase_1,,,,,,,,,,,,,white,hexagon
55.0,1.0,1.0,1,1.0,1.0,400.89893341100003,4.0,phase_1,,,,,,,,,,,,,blue,line
378.0,8.0,4.0,1,1.0,1.0,367.162942886,4.0,phase_1,,,,,,,,,,,,,green,diamond
69.0,1.0,1.0,1,1.0,1.0,383.775949478,4.0,phase_1,,,,,,,,,,,,,blue,line
183.0,3.0,3.0,1,1.0,1.0,333.909988403,4.0,phase_1,,,,,,,,,,,,,orange,cross
0.0,7.0,0.0,0,1.0,1.0,334.565162659,4.0,phase_1,,,,,,,,,,,,,yellow,circle
0.0,6.0,0.0,1,3.0,3.0,384.19890403700003,4.0,phase_1,,,,,,,,,,,,,cyan,square
379.0,4.0,4.0,0,1.0,1.0,317.224025726,4.0,phase_1,,,,,,,,,,,,,magenta,flipped triangle
0.0,4.0,0.0,0,1.0,1.0,367.662906647,4.0,phase_1,,,,,,,,,,,,,magenta,flipped triangle
85.0,2.0,2.0,0,1.0,1.0,334.224939346,4.0,phase_1,,,,,,,,,,,,,white,hexagon
217.0,3.0,3.0,1,1.0,1.0,268.23902130100004,4.0,phase_1,,,,,,,,,,,,,orange,cross
202.0,3.0,3.0,1,4.0,4.0,400.976896286,4.0,phase_1,,,,,,,,,,,,,orange,cross
422.0,4.0,4.0,0,3.0,3.0,367.990016937,4.0,phase_1,,,,,,,,,,,,,magenta,flipped triangle
408.0,8.0,4.0,1,1.0,1.0,301.10478401200004,4.0,phase_1,,,,,,,,,,,,,green,diamond
189.0,7.0,3.0,0,2.0,2.0,317.47388839700005,4.0,phase_1,,,,,,,,,,,,,yellow,circle
109.0,2.0,2.0,0,2.0,2.0,300.966978073,4.0,phase_1,,,,,,,,,,,,,white,hexagon
0.0,6.0,0.0,1,3.0,3.0,350.87800025900003,4.0,phase_1,,,,,,,,,,,,,cyan,square
48.0,1.0,1.0,1,4.0,4.0,384.130001068,4.0,phase_1,,,,,,,,,,,,,blue,line
398.0,8.0,4.0,1,2.0,2.0,350.613832474,4.0,phase_1,,,,,,,,,,,,,green,diamond
416.0,4.0,4.0,0,3.0,3.0,351.083040237,4.0,phase_1,,,,,,,,,,,,,magenta,flipped triangle
393.0,4.0,4.0,0,4.0,4.0,384.385108948,4.0,phase_1,,,,,,,,,,,,,magenta,flipped triangle
0.0,8.0,4.0,1,5.0,5.0,451.154947281,1.0,phase_2,go,250.0,250.0,1.0,,,,,,,,,green,diamond
0.0,4.0,4.0,0,6.0,6.0,484.33899879499995,1.0,phase_2,go,250.0,250.0,1.0,,,,,,,,,magenta,flipped triangle
0.0,5.0,1.0,0,5.0,5.0,501.330852509,1.0,phase_2,go,250.0,250.0,1.0,,,,,,,,,gray,triangle
0.0,7.0,3.0,0,5.0,5.0,367.409944534,1.0,phase_2,go,250.0,250.0,1.0,,,,,,,,,yellow,circle
0.0,7.0,3.0,0,5.0,5.0,434.514045715,1.0,phase_2,go,250.0,250.0,1.0,,,,,,,,,yellow,circle
0.0,8.0,4.0,1,5.0,5.0,500.978946686,1.0,phase_2,stop,250.0,250.0,3.0,,,,,,,,,green,diamond
0.0,2.0,2.0,0,5.0,5.0,501.019954681,1.0,phase_2,go,250.0,250.0,1.0,,,,,,,,,white,hexagon
0.0,5.0,1.0,0,6.0,6.0,617.742061615,1.0,phase_2,go,250.0,250.0,1.0,,,,,,,,,gray,triangle
0.0,5.0,1.0,0,6.0,6.0,401.292085648,1.0,phase_2,go,250.0,250.0,1.0,,,,,,,,,gray,triangle
0.0,1.0,1.0,1,5.0,5.0,634.3979835509999,1.0,phase_2,stop,200.0,250.0,3.0,,,,,,,,,blue,line
0.0,5.0,1.0,0,6.0,6.0,534.169912338,1.0,phase_2,go,200.0,250.0,1.0,,,,,,,,,gray,triangle
0.0,8.0,4.0,1,6.0,0.0,,1.0,phase_2,stop,200.0,250.0,4.0,,,,,,,,,green,diamond
0.0,2.0,2.0,0,6.0,6.0,483.816862106,1.0,phase_2,go,200.0,250.0,1.0,,,,,,,,,white,hexagon
0.0,3.0,3.0,1,5.0,0.0,,1.0,phase_2,stop,150.0,250.0,4.0,,,,,,,,,orange,cross
0.0,6.0,2.0,1,6.0,0.0,,1.0,phase_2,stop,150.0,300.0,4.0,,,,,,,,,cyan,square
0.0,8.0,4.0,1,6.0,0.0,,1.0,phase_2,stop,150.0,350.0,4.0,,,,,,,,,green,diamond
0.0,4.0,4.0,0,6.0,6.0,701.1699676510001,1.0,phase_2,go,150.0,350.0,1.0,,,,,,,,,magenta,flipped triangle
0.0,7.0,3.0,0,5.0,5.0,583.969831467,1.0,phase_2,go,150.0,350.0,1.0,,,,,,,,,yellow,circle
0.0,3.0,3.0,1,5.0,0.0,,1.0,phase_2,stop,200.0,350.0,4.0,,,,,,,,,orange,cross
0.0,5.0,1.0,0,6.0,6.0,617.735147476,1.0,phase_2,go,200.0,350.0,1.0,,,,,,,,,gray,triangle
0.0,6.0,2.0,1,6.0,0.0,,1.0,phase_2,stop,200.0,400.0,4.0,,,,,,,,,cyan,square
0.0,6.0,2.0,1,5.0,0.0,,1.0,phase_2,stop,250.0,400.0,4.0,,,,,,,,,cyan,square
0.0,3.0,3.0,1,6.0,0.0,,1.0,phase_2,stop,250.0,450.0,4.0,,,,,,,,,orange,cross
0.0,1.0,1.0,1,5.0,5.0,785.1898670200001,1.0,phase_2,go,250.0,450.0,1.0,,,,,,,,,blue,line
0.0,6.0,2.0,1,5.0,0.0,,1.0,phase_2,stop,300.0,450.0,4.0,,,,,,,,,cyan,square
0.0,8.0,4.0,1,5.0,0.0,,1.0,phase_2,stop,350.0,450.0,4.0,,,,,,,,,green,diamond
0.0,7.0,3.0,0,6.0,6.0,701.29108429,1.0,phase_2,go,350.0,450.0,1.0,,,,,,,,,yellow,circle
0.0,1.0,1.0,1,5.0,5.0,867.6271438599999,1.0,phase_2,go,350.0,450.0,1.0,,,,,,,,,blue,line
0.0,7.0,3.0,0,6.0,6.0,617.552995682,1.0,phase_2,go,350.0,450.0,1.0,,,,,,,,,yellow,circle
0.0,2.0,2.0,0,5.0,5.0,484.481096268,1.0,phase_2,go,350.0,450.0,1.0,,,,,,,,,white,hexagon
0.0,5.0,1.0,0,6.0,6.0,501.30581855800006,1.0,phase_2,go,350.0,450.0,1.0,,,,,,,,,gray,triangle
0.0,2.0,2.0,0,6.0,6.0,684.584140778,1.0,phase_2,go,350.0,450.0,1.0,,,,,,,,,white,hexagon
0.0,5.0,1.0,0,5.0,5.0,484.295845032,1.0,phase_2,go,350.0,450.0,1.0,,,,,,,,,gray,triangle
0.0,8.0,4.0,1,6.0,6.0,634.5698833470001,1.0,phase_2,go,350.0,450.0,1.0,,,,,,,,,green,diamond
0.0,8.0,4.0,1,6.0,6.0,434.144020081,1.0,phase_2,stop,350.0,500.0,3.0,,,,,,,,,green,diamond
0.0,2.0,2.0,0,5.0,5.0,533.979177475,1.0,phase_2,go,350.0,500.0,1.0,,,,,,,,,white,hexagon
0.0,4.0,4.0,0,5.0,5.0,501.11579895,2.0,phase_2,go,350.0,500.0,1.0,,,,,,,,,magenta,flipped triangle
0.0,7.0,3.0,0,6.0,6.0,433.86507034299996,2.0,phase_2,go,350.0,500.0,1.0,,,,,,,,,yellow,circle
0.0,4.0,4.0,0,5.0,5.0,550.951004028,2.0,phase_2,go,350.0,500.0,1.0,,,,,,,,,magenta,flipped triangle
0.0,6.0,2.0,1,5.0,5.0,450.934171677,2.0,phase_2,stop,400.0,500.0,3.0,,,,,,,,,cyan,square
0.0,8.0,4.0,1,5.0,0.0,,2.0,phase_2,stop,350.0,500.0,4.0,,,,,,,,,green,diamond
0.0,3.0,3.0,1,6.0,6.0,667.807102203,2.0,phase_2,go,350.0,500.0,1.0,,,,,,,,,orange,cross
0.0,2.0,2.0,0,6.0,6.0,751.585006714,2.0,phase_2,go,350.0,500.0,1.0,,,,,,,,,white,hexagon
0.0,4.0,4.0,0,5.0,5.0,668.085098267,2.0,phase_2,go,350.0,500.0,1.0,,,,,,,,,magenta,flipped triangle
0.0,2.0,2.0,0,5.0,5.0,534.456968307,2.0,phase_2,go,350.0,500.0,1.0,,,,,,,,,white,hexagon
0.0,1.0,1.0,1,6.0,6.0,534.872055054,2.0,phase_2,stop,350.0,450.0,3.0,,,,,,,,,blue,line
0.0,3.0,3.0,1,6.0,0.0,,2.0,phase_2,stop,350.0,400.0,4.0,,,,,,,,,orange,cross
0.0,8.0,4.0,1,6.0,6.0,617.846012115,2.0,phase_2,go,350.0,400.0,1.0,,,,,,,,,green,diamond
0.0,1.0,1.0,1,5.0,0.0,,2.0,phase_2,stop,400.0,400.0,4.0,,,,,,,,,blue,line
0.0,2.0,2.0,0,6.0,6.0,517.117977142,2.0,phase_2,go,400.0,400.0,1.0,,,,,,,,,white,hexagon
0.0,5.0,1.0,0,6.0,6.0,701.5609741210001,2.0,phase_2,go,400.0,400.0,1.0,,,,,,,,,gray,triangle
0.0,4.0,4.0,0,6.0,6.0,667.630910873,2.0,phase_2,go,400.0,400.0,1.0,,,,,,,,,magenta,flipped triangle
0.0,2.0,2.0,0,6.0,6.0,667.824983597,2.0,phase_2,go,400.0,400.0,1.0,,,,,,,,,white,hexagon
0.0,5.0,1.0,0,5.0,5.0,634.9678039549999,2.0,phase_2,go,400.0,400.0,1.0,,,,,,,,,gray,triangle
0.0,3.0,3.0,1,6.0,0.0,,2.0,phase_2,stop,400.0,450.0,4.0,,,,,,,,,orange,cross
0.0,7.0,3.0,0,6.0,6.0,767.741918564,2.0,phase_2,go,400.0,450.0,1.0,,,,,,,,,yellow,circle
0.0,8.0,4.0,1,5.0,0.0,,2.0,phase_2,stop,450.0,450.0,4.0,,,,,,,,,green,diamond
0.0,8.0,4.0,1,5.0,0.0,,2.0,phase_2,stop,500.0,450.0,4.0,,,,,,,,,green,diamond
0.0,7.0,3.0,0,6.0,6.0,734.946012497,2.0,phase_2,go,500.0,450.0,1.0,,,,,,,,,yellow,circle
0.0,5.0,1.0,0,6.0,6.0,834.342002869,2.0,phase_2,go,500.0,450.0,1.0,,,,,,,,,gray,triangle
0.0,1.0,1.0,1,5.0,5.0,734.3931198119999,2.0,phase_2,stop,550.0,450.0,3.0,,,,,,,,,blue,line
0.0,7.0,3.0,0,5.0,0.0,,2.0,phase_2,go,550.0,450.0,5.0,,,,,,,,,yellow,circle
0.0,6.0,2.0,1,6.0,0.0,,2.0,phase_2,stop,550.0,500.0,4.0,,,,,,,,,cyan,square
0.0,6.0,2.0,1,6.0,0.0,,2.0,phase_2,stop,550.0,550.0,4.0,,,,,,,,,cyan,square
0.0,5.0,1.0,0,5.0,5.0,650.997161865,2.0,phase_2,go,550.0,550.0,1.0,,,,,,,,,gray,triangle
0.0,3.0,3.0,1,5.0,0.0,,2.0,phase_2,stop,500.0,550.0,4.0,,,,,,,,,orange,cross
0.0,3.0,3.0,1,6.0,0.0,,2.0,phase_2,stop,500.0,600.0,4.0,,,,,,,,,orange,cross
0.0,7.0,3.0,0,5.0,5.0,968.2397842409999,2.0,phase_2,go,500.0,600.0,1.0,,,,,,,,,yellow,circle
0.0,1.0,1.0,1,6.0,6.0,533.6949825290001,2.0,phase_2,stop,500.0,650.0,3.0,,,,,,,,,blue,line
0.0,5.0,1.0,0,5.0,5.0,800.883054733,2.0,phase_2,go,500.0,650.0,1.0,,,,,,,,,gray,triangle
0.0,7.0,3.0,0,5.0,5.0,734.645843506,2.0,phase_2,go,500.0,650.0,1.0,,,,,,,,,yellow,circle
0.0,1.0,1.0,1,5.0,5.0,501.66296958900006,2.0,phase_2,stop,550.0,650.0,3.0,,,,,,,,,blue,line
0.0,5.0,1.0,0,6.0,6.0,500.825881958,3.0,phase_2,go,550.0,650.0,1.0,,,,,,,,,gray,triangle
0.0,8.0,4.0,1,6.0,6.0,450.926065445,3.0,phase_2,stop,550.0,600.0,3.0,,,,,,,,,green,diamond
0.0,1.0,1.0,1,6.0,6.0,651.332139969,3.0,phase_2,stop,550.0,550.0,3.0,,,,,,,,,blue,line
0.0,8.0,4.0,1,6.0,0.0,,3.0,phase_2,stop,550.0,500.0,4.0,,,,,,,,,green,diamond
0.0,4.0,4.0,0,6.0,6.0,551.018953323,3.0,phase_2,go,550.0,500.0,1.0,,,,,,,,,magenta,flipped triangle
0.0,7.0,3.0,0,6.0,6.0,650.979042053,3.0,phase_2,go,550.0,500.0,1.0,,,,,,,,,yellow,circle
0.0,2.0,2.0,0,6.0,6.0,768.049001694,3.0,phase_2,go,550.0,500.0,1.0,,,,,,,,,white,hexagon
0.0,2.0,2.0,0,5.0,5.0,334.091901779,3.0,phase_2,go,550.0,500.0,1.0,,,,,,,,,white,hexagon
0.0,7.0,3.0,0,6.0,6.0,500.870943069,3.0,phase_2,go,550.0,500.0,1.0,,,,,,,,,yellow,circle
0.0,4.0,4.0,0,5.0,5.0,617.539167404,3.0,phase_2,go,550.0,500.0,1.0,,,,,,,,,magenta,flipped triangle
0.0,3.0,3.0,1,6.0,6.0,651.270866394,3.0,phase_2,go,550.0,500.0,1.0,,,,,,,,,orange,cross
0.0,1.0,1.0,1,5.0,5.0,450.501918793,3.0,phase_2,go,550.0,500.0,1.0,,,,,,,,,blue,line
0.0,7.0,3.0,0,5.0,5.0,434.248924255,3.0,phase_2,go,550.0,500.0,1.0,,,,,,,,,yellow,circle
0.0,3.0,3.0,1,6.0,6.0,400.782108307,3.0,phase_2,stop,550.0,550.0,3.0,,,,,,,,,orange,cross
0.0,3.0,3.0,1,5.0,5.0,484.200000763,3.0,phase_2,stop,500.0,550.0,3.0,,,,,,,,,orange,cross
0.0,3.0,3.0,1,5.0,0.0,,3.0,phase_2,stop,450.0,550.0,4.0,,,,,,,,,orange,cross
0.0,2.0,2.0,0,5.0,5.0,567.533016205,3.0,phase_2,go,450.0,550.0,1.0,,,,,,,,,white,hexagon
0.0,1.0,1.0,1,5.0,0.0,,3.0,phase_2,stop,500.0,550.0,4.0,,,,,,,,,blue,line
0.0,4.0,4.0,0,6.0,6.0,634.2530250550001,3.0,phase_2,go,500.0,550.0,1.0,,,,,,,,,magenta,flipped triangle
0.0,4.0,4.0,0,6.0,6.0,901.1449813840001,3.0,phase_2,go,500.0,550.0,1.0,,,,,,,,,magenta,flipped triangle
0.0,8.0,4.0,1,5.0,5.0,650.974035263,3.0,phase_2,stop,550.0,550.0,3.0,,,,,,,,,green,diamond
0.0,7.0,3.0,0,5.0,5.0,601.377010345,3.0,phase_2,go,550.0,550.0,1.0,,,,,,,,,yellow,circle
0.0,1.0,1.0,1,5.0,5.0,734.225988388,3.0,phase_2,go,550.0,550.0,1.0,,,,,,,,,blue,line
0.0,3.0,3.0,1,5.0,5.0,584.242105484,3.0,phase_2,go,550.0,550.0,1.0,,,,,,,,,orange,cross
0.0,7.0,3.0,0,5.0,5.0,450.745820999,3.0,phase_2,go,550.0,550.0,1.0,,,,,,,,,yellow,circle
0.0,5.0,1.0,0,5.0,5.0,501.22904777499997,3.0,phase_2,go,550.0,550.0,1.0,,,,,,,,,gray,triangle
0.0,4.0,4.0,0,6.0,6.0,383.538961411,3.0,phase_2,go,550.0,550.0,1.0,,,,,,,,,magenta,flipped triangle
0.0,4.0,4.0,0,5.0,5.0,434.006929398,3.0,phase_2,go,550.0,550.0,1.0,,,,,,,,,magenta,flipped triangle
0.0,1.0,1.0,1,6.0,6.0,467.936992645,3.0,phase_2,stop,550.0,500.0,3.0,,,,,,,,,blue,line
0.0,7.0,3.0,0,5.0,5.0,684.710979462,3.0,phase_2,go,550.0,500.0,1.0,,,,,,,,,yellow,circle
0.0,2.0,2.0,0,5.0,5.0,717.841863632,3.0,phase_2,go,550.0,500.0,1.0,,,,,,,,,white,hexagon
0.0,8.0,4.0,1,6.0,6.0,667.947053909,3.0,phase_2,go,550.0,500.0,1.0,,,,,,,,,green,diamond
0.0,6.0,2.0,1,6.0,0.0,,3.0,phase_2,stop,550.0,450.0,4.0,,,,,,,,,cyan,square
0.0,8.0,4.0,1,6.0,0.0,,3.0,phase_2,stop,550.0,500.0,4.0,,,,,,,,,green,diamond
0.0,5.0,1.0,0,5.0,5.0,400.79498291,3.0,phase_2,go,550.0,500.0,1.0,,,,,,,,,gray,triangle
0.0,1.0,1.0,1,6.0,0.0,,3.0,phase_2,stop,550.0,550.0,4.0,,,,,,,,,blue,line
0.0,8.0,4.0,1,5.0,5.0,384.584903717,4.0,phase_2,stop,500.0,550.0,3.0,,,,,,,,,green,diamond
0.0,7.0,3.0,0,5.0,5.0,885.3509426119999,4.0,phase_2,go,500.0,550.0,1.0,,,,,,,,,yellow,circle
0.0,2.0,2.0,0,6.0,6.0,534.3968868259999,4.0,phase_2,go,500.0,550.0,1.0,,,,,,,,,white,hexagon
0.0,1.0,1.0,1,6.0,6.0,500.730037689,4.0,phase_2,stop,500.0,600.0,3.0,,,,,,,,,blue,line
0.0,2.0,2.0,0,6.0,6.0,701.43198967,4.0,phase_2,go,500.0,600.0,1.0,,,,,,,,,white,hexagon
0.0,1.0,1.0,1,5.0,5.0,417.28687286400003,4.0,phase_2,stop,450.0,600.0,3.0,,,,,,,,,blue,line
0.0,2.0,2.0,0,6.0,6.0,484.30109024,4.0,phase_2,go,450.0,600.0,1.0,,,,,,,,,white,hexagon
0.0,7.0,3.0,0,5.0,5.0,417.770147324,4.0,phase_2,go,450.0,600.0,1.0,,,,,,,,,yellow,circle
0.0,4.0,4.0,0,6.0,6.0,517.076969147,4.0,phase_2,go,450.0,600.0,1.0,,,,,,,,,magenta,flipped triangle
0.0,6.0,2.0,1,5.0,5.0,450.954198837,4.0,phase_2,stop,400.0,600.0,3.0,,,,,,,,,cyan,square
0.0,6.0,2.0,1,5.0,0.0,,4.0,phase_2,stop,350.0,600.0,4.0,,,,,,,,,cyan,square
0.0,1.0,1.0,1,6.0,6.0,516.9000625609999,4.0,phase_2,stop,350.0,550.0,3.0,,,,,,,,,blue,line
0.0,3.0,3.0,1,6.0,0.0,,4.0,phase_2,stop,350.0,500.0,4.0,,,,,,,,,orange,cross
0.0,4.0,4.0,0,5.0,5.0,550.928115845,4.0,phase_2,go,350.0,500.0,1.0,,,,,,,,,magenta,flipped triangle
0.0,3.0,3.0,1,6.0,0.0,,4.0,phase_2,stop,350.0,550.0,4.0,,,,,,,,,orange,cross
0.0,3.0,3.0,1,5.0,5.0,601.725101471,4.0,phase_2,stop,400.0,550.0,3.0,,,,,,,,,orange,cross
0.0,8.0,4.0,1,6.0,6.0,701.177835464,4.0,phase_2,stop,400.0,600.0,3.0,,,,,,,,,green,diamond
0.0,2.0,2.0,0,6.0,6.0,851.212024689,4.0,phase_2,go,400.0,600.0,1.0,,,,,,,,,white,hexagon
0.0,4.0,4.0,0,5.0,5.0,751.263141632,4.0,phase_2,go,400.0,600.0,1.0,,,,,,,,,magenta,flipped triangle
0.0,6.0,2.0,1,5.0,5.0,651.2701511380001,4.0,phase_2,go,400.0,600.0,1.0,,,,,,,,,cyan,square
0.0,7.0,3.0,0,5.0,5.0,451.40385627700005,4.0,phase_2,go,400.0,600.0,1.0,,,,,,,,,yellow,circle
0.0,8.0,4.0,1,5.0,5.0,433.950901031,4.0,phase_2,go,400.0,600.0,1.0,,,,,,,,,green,diamond
0.0,5.0,1.0,0,6.0,6.0,500.961065292,4.0,phase_2,go,400.0,600.0,1.0,,,,,,,,,gray,triangle
0.0,3.0,3.0,1,5.0,5.0,584.5258235929999,4.0,phase_2,go,400.0,600.0,1.0,,,,,,,,,orange,cross
0.0,4.0,4.0,0,6.0,6.0,501.450061798,4.0,phase_2,go,400.0,600.0,1.0,,,,,,,,,magenta,flipped triangle
0.0,8.0,4.0,1,5.0,5.0,400.625944138,4.0,phase_2,go,400.0,600.0,1.0,,,,,,,,,green,diamond
0.0,1.0,1.0,1,5.0,5.0,400.916814804,4.0,phase_2,stop,350.0,600.0,3.0,,,,,,,,,blue,line
0.0,7.0,3.0,0,6.0,6.0,717.633008957,4.0,phase_2,go,350.0,600.0,1.0,,,,,,,,,yellow,circle
0.0,3.0,3.0,1,6.0,0.0,,4.0,phase_2,stop,350.0,550.0,4.0,,,,,,,,,orange,cross
0.0,3.0,3.0,1,6.0,0.0,,4.0,phase_2,stop,350.0,600.0,4.0,,,,,,,,,orange,cross
0.0,3.0,3.0,1,6.0,6.0,717.6349163059999,4.0,phase_2,stop,350.0,650.0,3.0,,,,,,,,,orange,cross
0.0,7.0,3.0,0,6.0,6.0,751.590013504,4.0,phase_2,go,350.0,650.0,1.0,,,,,,,,,yellow,circle
0.0,2.0,2.0,0,5.0,5.0,801.5668392179999,4.0,phase_2,go,350.0,650.0,1.0,,,,,,,,,white,hexagon
0.0,8.0,4.0,1,5.0,0.0,,4.0,phase_2,stop,300.0,650.0,4.0,,,,,,,,,green,diamond
0.0,4.0,4.0,0,5.0,5.0,717.90599823,4.0,phase_2,go,300.0,650.0,1.0,,,,,,,,,magenta,flipped triangle
0.0,6.0,2.0,1,6.0,6.0,751.21307373,4.0,phase_2,stop,300.0,600.0,3.0,,,,,,,,,cyan,square
0.0,4.0,4.0,0,6.0,6.0,383.77690315200005,5.0,phase_2,go,300.0,600.0,1.0,,,,,,,,,magenta,flipped triangle
0.0,3.0,3.0,1,5.0,5.0,384.212017059,5.0,phase_2,stop,350.0,600.0,3.0,,,,,,,,,orange,cross
0.0,5.0,1.0,0,5.0,5.0,651.486158371,5.0,phase_2,go,350.0,600.0,1.0,,,,,,,,,gray,triangle
0.0,6.0,2.0,1,6.0,6.0,585.173845291,5.0,phase_2,stop,350.0,550.0,3.0,,,,,,,,,cyan,square
0.0,5.0,1.0,0,5.0,5.0,584.3820571900001,5.0,phase_2,go,350.0,550.0,1.0,,,,,,,,,gray,triangle
0.0,5.0,1.0,0,6.0,6.0,867.760896683,5.0,phase_2,go,350.0,550.0,1.0,,,,,,,,,gray,triangle
0.0,5.0,1.0,0,6.0,6.0,701.304912567,5.0,phase_2,go,350.0,550.0,1.0,,,,,,,,,gray,triangle
0.0,6.0,2.0,1,6.0,6.0,834.930896759,5.0,phase_2,go,350.0,550.0,1.0,,,,,,,,,cyan,square
0.0,1.0,1.0,1,6.0,6.0,484.670877457,5.0,phase_2,stop,350.0,500.0,3.0,,,,,,,,,blue,line
0.0,2.0,2.0,0,5.0,5.0,500.51903724699997,5.0,phase_2,go,350.0,500.0,1.0,,,,,,,,,white,hexagon
0.0,4.0,4.0,0,5.0,5.0,333.963155746,5.0,phase_2,go,350.0,500.0,1.0,,,,,,,,,magenta,flipped triangle
0.0,8.0,4.0,1,5.0,0.0,,5.0,phase_2,stop,300.0,500.0,4.0,,,,,,,,,green,diamond
0.0,4.0,4.0,0,5.0,5.0,684.2570304870001,5.0,phase_2,go,300.0,500.0,1.0,,,,,,,,,magenta,flipped triangle
0.0,8.0,4.0,1,6.0,0.0,,5.0,phase_2,stop,300.0,450.0,4.0,,,,,,,,,green,diamond
0.0,5.0,1.0,0,6.0,6.0,701.3168334960001,5.0,phase_2,go,300.0,450.0,1.0,,,,,,,,,gray,triangle
0.0,4.0,4.0,0,5.0,5.0,851.4580726620001,5.0,phase_2,go,300.0,450.0,1.0,,,,,,,,,magenta,flipped triangle
0.0,2.0,2.0,0,6.0,6.0,634.232997894,5.0,phase_2,go,300.0,450.0,1.0,,,,,,,,,white,hexagon
0.0,1.0,1.0,1,5.0,5.0,467.177867889,5.0,phase_2,go,300.0,450.0,1.0,,,,,,,,,blue,line
0.0,2.0,2.0,0,6.0,6.0,651.849985123,5.0,phase_2,go,300.0,450.0,1.0,,,,,,,,,white,hexagon
0.0,8.0,4.0,1,6.0,6.0,484.688997269,5.0,phase_2,stop,300.0,500.0,3.0,,,,,,,,,green,diamond
0.0,5.0,1.0,0,6.0,6.0,717.946052551,5.0,phase_2,go,300.0,500.0,1.0,,,,,,,,,gray,triangle
0.0,7.0,3.0,0,5.0,5.0,600.9080409999999,5.0,phase_2,go,300.0,500.0,1.0,,,,,,,,,yellow,circle
0.0,1.0,1.0,1,5.0,5.0,517.791986465,5.0,phase_2,stop,350.0,500.0,3.0,,,,,,,,,blue,line
0.0,1.0,1.0,1,6.0,6.0,584.8009586329999,5.0,phase_2,stop,350.0,450.0,3.0,,,,,,,,,blue,line
0.0,3.0,3.0,1,5.0,0.0,,5.0,phase_2,stop,300.0,450.0,4.0,,,,,,,,,orange,cross
0.0,7.0,3.0,0,5.0,5.0,701.0860443119999,5.0,phase_2,go,300.0,450.0,1.0,,,,,,,,,yellow,circle
0.0,1.0,1.0,1,5.0,5.0,751.467227936,5.0,phase_2,go,300.0,450.0,1.0,,,,,,,,,blue,line
0.0,6.0,2.0,1,5.0,0.0,,5.0,phase_2,stop,350.0,450.0,4.0,,,,,,,,,cyan,square
0.0,5.0,1.0,0,5.0,5.0,734.317064285,5.0,phase_2,go,350.0,450.0,1.0,,,,,,,,,gray,triangle
0.0,7.0,3.0,0,6.0,6.0,651.3278484340001,5.0,phase_2,go,350.0,450.0,1.0,,,,,,,,,yellow,circle
0.0,3.0,3.0,1,5.0,5.0,551.296949387,5.0,phase_2,go,350.0,450.0,1.0,,,,,,,,,orange,cross
0.0,8.0,4.0,1,6.0,6.0,383.884906769,5.0,phase_2,go,350.0,450.0,1.0,,,,,,,,,green,diamond
0.0,7.0,3.0,0,6.0,6.0,501.07789039600004,5.0,phase_2,go,350.0,450.0,1.0,,,,,,,,,yellow,circle
0.0,7.0,3.0,0,6.0,6.0,567.2218799589999,5.0,phase_2,go,350.0,450.0,1.0,,,,,,,,,yellow,circle
0.0,5.0,1.0,0,6.0,6.0,601.4919281010001,5.0,phase_2,go,350.0,450.0,1.0,,,,,,,,,gray,triangle
0.0,5.0,1.0,0,5.0,5.0,384.35292244000004,5.0,phase_2,go,350.0,450.0,1.0,,,,,,,,,gray,triangle
0.0,6.0,2.0,1,5.0,5.0,484.227895737,6.0,phase_2,stop,400.0,450.0,3.0,,,,,,,,,cyan,square
0.0,4.0,4.0,0,6.0,6.0,534.199953079,6.0,phase_2,go,400.0,450.0,1.0,,,,,,,,,magenta,flipped triangle
0.0,8.0,4.0,1,6.0,6.0,300.292015076,6.0,phase_2,stop,400.0,400.0,3.0,,,,,,,,,green,diamond
0.0,5.0,1.0,0,6.0,6.0,484.294891357,6.0,phase_2,go,400.0,400.0,1.0,,,,,,,,,gray,triangle
0.0,5.0,1.0,0,5.0,5.0,418.135166168,6.0,phase_2,go,400.0,400.0,1.0,,,,,,,,,gray,triangle
0.0,2.0,2.0,0,6.0,6.0,350.876092911,6.0,phase_2,go,400.0,400.0,1.0,,,,,,,,,white,hexagon
0.0,7.0,3.0,0,5.0,5.0,467.631101608,6.0,phase_2,go,400.0,400.0,1.0,,,,,,,,,yellow,circle
0.0,3.0,3.0,1,6.0,6.0,450.58107376099997,6.0,phase_2,stop,400.0,350.0,3.0,,,,,,,,,orange,cross
0.0,3.0,3.0,1,6.0,0.0,,6.0,phase_2,stop,400.0,300.0,4.0,,,,,,,,,orange,cross
0.0,2.0,2.0,0,5.0,5.0,467.73886680600003,6.0,phase_2,go,400.0,300.0,1.0,,,,,,,,,white,hexagon
0.0,4.0,4.0,0,5.0,5.0,551.0010719300001,6.0,phase_2,go,400.0,300.0,1.0,,,,,,,,,magenta,flipped triangle
0.0,6.0,2.0,1,5.0,5.0,517.688035965,6.0,phase_2,stop,350.0,300.0,3.0,,,,,,,,,cyan,square
0.0,4.0,4.0,0,6.0,6.0,567.507982254,6.0,phase_2,go,350.0,300.0,1.0,,,,,,,,,magenta,flipped triangle
0.0,3.0,3.0,1,5.0,5.0,550.537109375,6.0,phase_2,go,350.0,300.0,1.0,,,,,,,,,orange,cross
0.0,6.0,2.0,1,6.0,6.0,351.43804550199997,6.0,phase_2,stop,350.0,350.0,3.0,,,,,,,,,cyan,square
0.0,1.0,1.0,1,5.0,0.0,,6.0,phase_2,stop,300.0,350.0,4.0,,,,,,,,,blue,line
0.0,6.0,2.0,1,6.0,6.0,351.12214088400003,6.0,phase_2,stop,300.0,300.0,3.0,,,,,,,,,cyan,square
0.0,3.0,3.0,1,6.0,0.0,,6.0,phase_2,stop,300.0,250.0,4.0,,,,,,,,,orange,cross
0.0,8.0,4.0,1,5.0,0.0,,6.0,phase_2,stop,350.0,250.0,4.0,,,,,,,,,green,diamond
0.0,3.0,3.0,1,6.0,0.0,,6.0,phase_2,stop,350.0,300.0,4.0,,,,,,,,,orange,cross
0.0,3.0,3.0,1,6.0,0.0,,6.0,phase_2,stop,350.0,350.0,4.0,,,,,,,,,orange,cross
0.0,1.0,1.0,1,5.0,5.0,401.60298347500003,6.0,phase_2,stop,400.0,350.0,3.0,,,,,,,,,blue,line
0.0,6.0,2.0,1,6.0,0.0,,6.0,phase_2,stop,400.0,400.0,4.0,,,,,,,,,cyan,square
0.0,8.0,4.0,1,5.0,0.0,,6.0,phase_2,stop,350.0,400.0,4.0,,,,,,,,,green,diamond
0.0,2.0,2.0,0,5.0,5.0,667.6449775699999,6.0,phase_2,go,350.0,400.0,1.0,,,,,,,,,white,hexagon
0.0,4.0,4.0,0,6.0,6.0,400.81715583799996,6.0,phase_2,go,350.0,400.0,1.0,,,,,,,,,magenta,flipped triangle
0.0,6.0,2.0,1,5.0,0.0,,6.0,phase_2,stop,400.0,400.0,4.0,,,,,,,,,cyan,square
0.0,1.0,1.0,1,5.0,0.0,,6.0,phase_2,stop,450.0,400.0,4.0,,,,,,,,,blue,line
0.0,3.0,3.0,1,5.0,5.0,701.18689537,6.0,phase_2,go,450.0,400.0,1.0,,,,,,,,,orange,cross
0.0,7.0,3.0,0,6.0,6.0,351.323127747,6.0,phase_2,go,450.0,400.0,1.0,,,,,,,,,yellow,circle
0.0,2.0,2.0,0,5.0,5.0,484.232902527,6.0,phase_2,go,450.0,400.0,1.0,,,,,,,,,white,hexagon
0.0,6.0,2.0,1,6.0,6.0,301.274061203,6.0,phase_2,stop,450.0,450.0,3.0,,,,,,,,,cyan,square
0.0,4.0,4.0,0,6.0,6.0,768.0480480189999,6.0,phase_2,go,450.0,450.0,1.0,,,,,,,,,magenta,flipped triangle
0.0,6.0,2.0,1,6.0,6.0,701.431035995,6.0,phase_2,go,450.0,450.0,1.0,,,,,,,,,cyan,square
0.0,3.0,3.0,1,5.0,5.0,667.453050613,6.0,phase_2,go,450.0,450.0,1.0,,,,,,,,,orange,cross
0.0,3.0,3.0,1,5.0,5.0,400.838851929,6.0,phase_2,stop,500.0,450.0,3.0,,,,,,,,,orange,cross
0.0,1.0,1.0,1,6.0,6.0,367.656946182,7.0,phase_2,stop,500.0,400.0,3.0,,,,,,,,,blue,line
0.0,2.0,2.0,0,6.0,6.0,417.468070984,7.0,phase_2,go,500.0,400.0,1.0,,,,,,,,,white,hexagon
0.0,4.0,4.0,0,6.0,6.0,401.422977448,7.0,phase_2,go,500.0,400.0,1.0,,,,,,,,,magenta,flipped triangle
0.0,8.0,4.0,1,6.0,6.0,400.985002518,7.0,phase_2,stop,500.0,350.0,3.0,,,,,,,,,green,diamond
0.0,8.0,4.0,1,6.0,6.0,367.267847061,7.0,phase_2,stop,500.0,300.0,3.0,,,,,,,,,green,diamond
0.0,2.0,2.0,0,6.0,6.0,584.300041199,7.0,phase_2,go,500.0,300.0,1.0,,,,,,,,,white,hexagon
0.0,6.0,2.0,1,6.0,6.0,350.831985474,7.0,phase_2,go,500.0,300.0,1.0,,,,,,,,,cyan,square
0.0,5.0,1.0,0,6.0,6.0,534.364938736,7.0,phase_2,go,500.0,300.0,1.0,,,,,,,,,gray,triangle
0.0,5.0,1.0,0,5.0,0.0,,7.0,phase_2,go,500.0,300.0,5.0,,,,,,,,,gray,triangle
0.0,2.0,2.0,0,6.0,6.0,617.50793457,7.0,phase_2,go,500.0,300.0,1.0,,,,,,,,,white,hexagon
0.0,2.0,2.0,0,5.0,0.0,,7.0,phase_2,go,500.0,300.0,5.0,,,,,,,,,white,hexagon
0.0,7.0,3.0,0,5.0,0.0,,7.0,phase_2,go,500.0,300.0,5.0,,,,,,,,,yellow,circle
0.0,7.0,3.0,0,6.0,6.0,417.400121689,7.0,phase_2,go,500.0,300.0,1.0,,,,,,,,,yellow,circle
0.0,1.0,1.0,1,5.0,0.0,,7.0,phase_2,go,500.0,300.0,5.0,,,,,,,,,blue,line
0.0,8.0,4.0,1,6.0,6.0,450.59704780600003,7.0,phase_2,go,500.0,300.0,1.0,,,,,,,,,green,diamond
0.0,4.0,4.0,0,5.0,0.0,,7.0,phase_2,go,500.0,300.0,5.0,,,,,,,,,magenta,flipped triangle
0.0,6.0,2.0,1,6.0,6.0,367.494106293,7.0,phase_2,stop,500.0,250.0,3.0,,,,,,,,,cyan,square
0.0,1.0,1.0,1,6.0,0.0,,7.0,phase_2,stop,500.0,200.0,4.0,,,,,,,,,blue,line
0.0,2.0,2.0,0,5.0,0.0,,7.0,phase_2,go,500.0,200.0,5.0,,,,,,,,,white,hexagon
0.0,1.0,1.0,1,6.0,6.0,701.581001282,7.0,phase_2,go,500.0,200.0,1.0,,,,,,,,,blue,line
0.0,4.0,4.0,0,5.0,0.0,,7.0,phase_2,go,500.0,200.0,5.0,,,,,,,,,magenta,flipped triangle
0.0,2.0,2.0,0,6.0,6.0,367.11883544899996,7.0,phase_2,go,500.0,200.0,1.0,,,,,,,,,white,hexagon
0.0,4.0,4.0,0,5.0,0.0,,7.0,phase_2,go,500.0,200.0,5.0,,,,,,,,,magenta,flipped triangle
0.0,7.0,3.0,0,6.0,6.0,534.4071388240001,7.0,phase_2,go,500.0,200.0,1.0,,,,,,,,,yellow,circle
0.0,1.0,1.0,1,5.0,0.0,,7.0,phase_2,stop,450.0,200.0,4.0,,,,,,,,,blue,line
0.0,6.0,2.0,1,6.0,0.0,,7.0,phase_2,stop,450.0,250.0,4.0,,,,,,,,,cyan,square
0.0,5.0,1.0,0,5.0,0.0,,7.0,phase_2,go,450.0,250.0,5.0,,,,,,,,,gray,triangle
0.0,5.0,1.0,0,5.0,0.0,,7.0,phase_2,go,450.0,250.0,5.0,,,,,,,,,gray,triangle
0.0,1.0,1.0,1,5.0,0.0,,7.0,phase_2,stop,500.0,250.0,4.0,,,,,,,,,blue,line
0.0,4.0,4.0,0,5.0,0.0,,7.0,phase_2,go,500.0,250.0,5.0,,,,,,,,,magenta,flipped triangle
0.0,3.0,3.0,1,5.0,0.0,,7.0,phase_2,stop,550.0,250.0,4.0,,,,,,,,,orange,cross
0.0,6.0,2.0,1,6.0,0.0,,7.0,phase_2,stop,550.0,300.0,4.0,,,,,,,,,cyan,square
0.0,1.0,1.0,1,5.0,0.0,,7.0,phase_2,go,550.0,300.0,5.0,,,,,,,,,blue,line
0.0,8.0,4.0,1,5.0,0.0,,7.0,phase_2,go,550.0,300.0,5.0,,,,,,,,,green,diamond
0.0,7.0,3.0,0,5.0,0.0,,7.0,phase_2,go,550.0,300.0,5.0,,,,,,,,,yellow,circle
0.0,7.0,3.0,0,5.0,0.0,,7.0,phase_2,go,550.0,300.0,5.0,,,,,,,,,yellow,circle
0.0,2.0,2.0,0,6.0,0.0,,8.0,phase_2,go,550.0,300.0,5.0,,,,,,,,,white,hexagon
0.0,8.0,4.0,1,5.0,0.0,,8.0,phase_2,stop,600.0,300.0,4.0,,,,,,,,,green,diamond
0.0,2.0,2.0,0,5.0,0.0,,8.0,phase_2,go,600.0,300.0,5.0,,,,,,,,,white,hexagon
0.0,7.0,3.0,0,6.0,6.0,301.021099091,8.0,phase_2,go,600.0,300.0,1.0,,,,,,,,,yellow,circle
0.0,4.0,4.0,0,5.0,0.0,,8.0,phase_2,go,600.0,300.0,5.0,,,,,,,,,magenta,flipped triangle
0.0,5.0,1.0,0,5.0,0.0,,8.0,phase_2,go,600.0,300.0,5.0,,,,,,,,,gray,triangle
0.0,6.0,2.0,1,6.0,6.0,283.884048462,8.0,phase_2,stop,600.0,350.0,3.0,,,,,,,,,cyan,square
0.0,6.0,2.0,1,5.0,0.0,,8.0,phase_2,go,600.0,350.0,5.0,,,,,,,,,cyan,square
0.0,6.0,2.0,1,6.0,6.0,317.68488884,8.0,phase_2,stop,600.0,300.0,3.0,,,,,,,,,cyan,square
0.0,3.0,3.0,1,6.0,6.0,334.16700363200005,8.0,phase_2,stop,600.0,250.0,3.0,,,,,,,,,orange,cross
0.0,1.0,1.0,1,6.0,0.0,,8.0,phase_2,stop,600.0,200.0,4.0,,,,,,,,,blue,line
0.0,5.0,1.0,0,5.0,0.0,,8.0,phase_2,go,600.0,200.0,5.0,,,,,,,,,gray,triangle
0.0,4.0,4.0,0,6.0,6.0,367.820978165,8.0,phase_2,go,600.0,200.0,1.0,,,,,,,,,magenta,flipped triangle
0.0,6.0,2.0,1,5.0,0.0,,8.0,phase_2,go,600.0,200.0,5.0,,,,,,,,,cyan,square
0.0,6.0,2.0,1,6.0,6.0,317.333936691,8.0,phase_2,go,600.0,200.0,1.0,,,,,,,,,cyan,square
0.0,5.0,1.0,0,6.0,6.0,417.593002319,8.0,phase_2,go,600.0,200.0,1.0,,,,,,,,,gray,triangle
0.0,6.0,2.0,1,5.0,0.0,,8.0,phase_2,go,600.0,200.0,5.0,,,,,,,,,cyan,square
0.0,4.0,4.0,0,6.0,6.0,717.893838882,8.0,phase_2,go,600.0,200.0,1.0,,,,,,,,,magenta,flipped triangle
0.0,8.0,4.0,1,6.0,6.0,367.79999733,8.0,phase_2,stop,600.0,250.0,3.0,,,,,,,,,green,diamond
0.0,1.0,1.0,1,6.0,6.0,317.48700141899997,8.0,phase_2,stop,600.0,200.0,3.0,,,,,,,,,blue,line
0.0,5.0,1.0,0,6.0,6.0,317.64793396000005,8.0,phase_2,go,600.0,200.0,1.0,,,,,,,,,gray,triangle
0.0,6.0,2.0,1,6.0,6.0,334.155082703,8.0,phase_2,go,600.0,200.0,1.0,,,,,,,,,cyan,square
0.0,7.0,3.0,0,5.0,0.0,,8.0,phase_2,go,600.0,200.0,5.0,,,,,,,,,yellow,circle
0.0,1.0,1.0,1,5.0,0.0,,8.0,phase_2,stop,650.0,200.0,4.0,,,,,,,,,blue,line
0.0,6.0,2.0,1,5.0,0.0,,8.0,phase_2,stop,700.0,200.0,4.0,,,,,,,,,cyan,square
0.0,8.0,4.0,1,5.0,0.0,,8.0,phase_2,stop,750.0,200.0,4.0,,,,,,,,,green,diamond
0.0,4.0,4.0,0,5.0,0.0,,8.0,phase_2,go,750.0,200.0,5.0,,,,,,,,,magenta,flipped triangle
0.0,8.0,4.0,1,5.0,0.0,,8.0,phase_2,stop,750.0,200.0,4.0,,,,,,,,,green,diamond
0.0,5.0,1.0,0,6.0,6.0,434.042930603,8.0,phase_2,go,750.0,200.0,1.0,,,,,,,,,gray,triangle
0.0,2.0,2.0,0,5.0,0.0,,8.0,phase_2,go,750.0,200.0,5.0,,,,,,,,,white,hexagon
0.0,6.0,2.0,1,5.0,0.0,,8.0,phase_2,stop,750.0,200.0,4.0,,,,,,,,,cyan,square
0.0,2.0,2.0,0,6.0,6.0,300.749063492,8.0,phase_2,go,750.0,200.0,1.0,,,,,,,,,white,hexagon
0.0,2.0,2.0,0,6.0,6.0,367.40303039599996,8.0,phase_2,go,750.0,200.0,1.0,,,,,,,,,white,hexagon
0.0,3.0,3.0,1,5.0,0.0,,8.0,phase_2,go,750.0,200.0,5.0,,,,,,,,,orange,cross
0.0,4.0,4.0,0,5.0,0.0,,8.0,phase_2,go,750.0,200.0,5.0,,,,,,,,,magenta,flipped triangle
0.0,3.0,3.0,1,6.0,6.0,417.79088974,8.0,phase_2,stop,750.0,150.0,3.0,,,,,,,,,orange,cross
0.0,3.0,3.0,1,7.0,3.0,4388.23008537,1.0,phase_3,,,,,88.0,2.0,176.0,220.0,88.0,132.0,264.0,44.0,orange,cross
0.0,1.0,1.0,1,7.0,4.0,3737.5700473800002,1.0,phase_3,,,,,68.0,2.0,102.0,34.0,204.0,68.0,136.0,170.0,blue,line
0.0,3.0,3.0,1,7.0,2.0,2169.1160202,1.0,phase_3,,,,,270.0,5.0,108.0,270.0,54.0,324.0,216.0,162.0,orange,cross
0.0,3.0,3.0,1,7.0,2.0,3337.11218834,1.0,phase_3,,,,,195.0,5.0,156.0,195.0,234.0,117.0,78.0,39.0,orange,cross
0.0,4.0,4.0,0,7.0,,,1.0,phase_3,,,,,0.0,,136.0,170.0,102.0,68.0,34.0,204.0,magenta,flipped triangle
0.0,2.0,2.0,0,7.0,5.0,2269.3190574600003,1.0,phase_3,,,,,54.0,1.0,162.0,270.0,324.0,108.0,54.0,216.0,white,hexagon
0.0,8.0,4.0,1,7.0,2.0,2069.2691803000002,1.0,phase_3,,,,,170.0,5.0,204.0,170.0,34.0,102.0,136.0,68.0,green,diamond
0.0,3.0,3.0,1,7.0,3.0,2419.9748039200003,1.0,phase_3,,,,,245.0,5.0,49.0,147.0,245.0,98.0,196.0,294.0,orange,cross
0.0,5.0,1.0,0,7.0,6.0,2519.69099045,1.0,phase_3,,,,,98.0,2.0,196.0,49.0,294.0,245.0,147.0,98.0,gray,triangle
0.0,3.0,3.0,1,7.0,3.0,1701.8370628399998,1.0,phase_3,,,,,102.0,3.0,136.0,204.0,102.0,34.0,68.0,170.0,orange,cross
0.0,7.0,3.0,0,7.0,1.0,1551.3181686399998,1.0,phase_3,,,,,78.0,2.0,78.0,195.0,156.0,117.0,234.0,39.0,yellow,circle
0.0,6.0,2.0,1,7.0,2.0,2519.04797554,1.0,phase_3,,,,,78.0,2.0,156.0,78.0,39.0,234.0,117.0,195.0,cyan,square
0.0,7.0,3.0,0,7.0,4.0,1852.40721703,1.0,phase_3,,,,,195.0,5.0,117.0,234.0,156.0,195.0,78.0,39.0,yellow,circle
0.0,3.0,3.0,1,7.0,2.0,1968.49703789,1.0,phase_3,,,,,176.0,4.0,220.0,176.0,88.0,132.0,264.0,44.0,orange,cross
0.0,7.0,3.0,0,7.0,4.0,1885.24794579,1.0,phase_3,,,,,204.0,6.0,102.0,34.0,170.0,204.0,68.0,136.0,yellow,circle
0.0,6.0,2.0,1,7.0,4.0,1635.15996933,1.0,phase_3,,,,,196.0,4.0,245.0,294.0,98.0,196.0,147.0,49.0,cyan,square
0.0,8.0,4.0,1,7.0,5.0,1818.98903847,1.0,phase_3,,,,,98.0,2.0,196.0,147.0,245.0,49.0,98.0,294.0,green,diamond
0.0,4.0,4.0,0,7.0,1.0,1769.0207958199999,1.0,phase_3,,,,,324.0,6.0,324.0,54.0,270.0,108.0,216.0,162.0,magenta,flipped triangle
0.0,2.0,2.0,0,7.0,6.0,2603.40499878,1.0,phase_3,,,,,162.0,3.0,270.0,108.0,216.0,324.0,54.0,162.0,white,hexagon
0.0,2.0,2.0,0,7.0,1.0,2202.71396637,1.0,phase_3,,,,,98.0,2.0,98.0,294.0,49.0,196.0,147.0,245.0,white,hexagon
0.0,3.0,3.0,1,7.0,5.0,1651.80301666,2.0,phase_3,,,,,162.0,3.0,270.0,216.0,324.0,108.0,162.0,54.0,orange,cross
0.0,1.0,1.0,1,7.0,3.0,2035.68196297,2.0,phase_3,,,,,98.0,2.0,245.0,196.0,98.0,294.0,147.0,49.0,blue,line
0.0,6.0,2.0,1,7.0,6.0,1635.73598862,2.0,phase_3,,,,,49.0,1.0,196.0,98.0,245.0,147.0,294.0,49.0,cyan,square
0.0,6.0,2.0,1,7.0,1.0,1869.08698082,2.0,phase_3,,,,,68.0,2.0,68.0,136.0,170.0,204.0,34.0,102.0,cyan,square
0.0,2.0,2.0,0,7.0,5.0,2469.62594986,2.0,phase_3,,,,,196.0,4.0,294.0,98.0,49.0,147.0,196.0,245.0,white,hexagon
0.0,8.0,4.0,1,7.0,3.0,2269.36388016,2.0,phase_3,,,,,136.0,4.0,102.0,170.0,136.0,34.0,204.0,68.0,green,diamond
0.0,2.0,2.0,0,7.0,5.0,1485.12291908,2.0,phase_3,,,,,156.0,4.0,39.0,234.0,195.0,78.0,156.0,117.0,white,hexagon
0.0,7.0,3.0,0,7.0,5.0,1685.6470107999999,2.0,phase_3,,,,,108.0,2.0,54.0,216.0,162.0,270.0,108.0,324.0,yellow,circle
0.0,2.0,2.0,0,7.0,6.0,1952.45909691,2.0,phase_3,,,,,68.0,2.0,34.0,136.0,102.0,170.0,204.0,68.0,white,hexagon
0.0,2.0,2.0,0,7.0,1.0,4421.37217522,2.0,phase_3,,,,,156.0,4.0,156.0,78.0,117.0,234.0,195.0,39.0,white,hexagon
0.0,7.0,3.0,0,7.0,2.0,1251.9309520699999,2.0,phase_3,,,,,176.0,4.0,264.0,176.0,44.0,88.0,132.0,220.0,yellow,circle
0.0,7.0,3.0,0,7.0,3.0,1401.3800621,2.0,phase_3,,,,,147.0,3.0,196.0,98.0,147.0,245.0,49.0,294.0,yellow,circle
0.0,4.0,4.0,0,7.0,5.0,2319.53597069,2.0,phase_3,,,,,196.0,4.0,294.0,147.0,98.0,245.0,196.0,49.0,magenta,flipped triangle
0.0,1.0,1.0,1,7.0,4.0,1501.9600391400002,2.0,phase_3,,,,,78.0,2.0,156.0,234.0,39.0,78.0,195.0,117.0,blue,line
0.0,8.0,4.0,1,7.0,2.0,1301.1460304299999,2.0,phase_3,,,,,270.0,5.0,216.0,270.0,324.0,54.0,162.0,108.0,green,diamond
0.0,4.0,4.0,0,7.0,1.0,2169.1839695000003,2.0,phase_3,,,,,216.0,4.0,216.0,324.0,54.0,270.0,162.0,108.0,magenta,flipped triangle
0.0,6.0,2.0,1,7.0,1.0,1752.29787827,2.0,phase_3,,,,,54.0,1.0,54.0,216.0,270.0,108.0,324.0,162.0,cyan,square
0.0,5.0,1.0,0,7.0,5.0,1568.9561367000001,2.0,phase_3,,,,,39.0,1.0,156.0,195.0,234.0,117.0,39.0,78.0,gray,triangle
0.0,6.0,2.0,1,7.0,3.0,1918.8477993,2.0,phase_3,,,,,68.0,2.0,102.0,170.0,68.0,136.0,204.0,34.0,cyan,square
0.0,4.0,4.0,0,7.0,6.0,2753.35693359,2.0,phase_3,,,,,245.0,5.0,49.0,98.0,294.0,147.0,196.0,245.0,magenta,flipped triangle
0.0,2.0,2.0,0,7.0,5.0,1468.46485138,3.0,phase_3,,,,,44.0,1.0,176.0,220.0,88.0,132.0,44.0,264.0,white,hexagon
0.0,3.0,3.0,1,7.0,4.0,1969.10977364,3.0,phase_3,,,,,170.0,5.0,136.0,102.0,204.0,170.0,34.0,68.0,orange,cross
0.0,8.0,4.0,1,7.0,5.0,2019.2098617599997,3.0,phase_3,,,,,264.0,6.0,44.0,220.0,176.0,132.0,264.0,88.0,green,diamond
0.0,7.0,3.0,0,7.0,1.0,2102.6220321700002,3.0,phase_3,,,,,88.0,2.0,88.0,264.0,44.0,220.0,132.0,176.0,yellow,circle
0.0,5.0,1.0,0,7.0,3.0,2753.00788879,3.0,phase_3,,,,,78.0,2.0,234.0,156.0,78.0,39.0,117.0,195.0,gray,triangle
0.0,6.0,2.0,1,7.0,2.0,1818.52602959,3.0,phase_3,,,,,54.0,1.0,216.0,54.0,162.0,324.0,270.0,108.0,cyan,square
0.0,4.0,4.0,0,7.0,4.0,2986.7720603899998,3.0,phase_3,,,,,264.0,6.0,88.0,44.0,220.0,264.0,132.0,176.0,magenta,flipped triangle
0.0,1.0,1.0,1,7.0,5.0,2269.19317245,3.0,phase_3,,,,,54.0,1.0,108.0,270.0,216.0,162.0,54.0,324.0,blue,line
0.0,8.0,4.0,1,7.0,6.0,3253.9541721299997,3.0,phase_3,,,,,234.0,6.0,78.0,117.0,156.0,195.0,39.0,234.0,green,diamond
0.0,5.0,1.0,0,7.0,3.0,1584.94091034,3.0,phase_3,,,,,34.0,1.0,170.0,204.0,34.0,68.0,102.0,136.0,gray,triangle
0.0,4.0,4.0,0,7.0,6.0,2318.9551830299997,3.0,phase_3,,,,,204.0,6.0,68.0,34.0,170.0,136.0,102.0,204.0,magenta,flipped triangle
0.0,1.0,1.0,1,7.0,5.0,3019.43993568,3.0,phase_3,,,,,34.0,1.0,170.0,204.0,68.0,102.0,34.0,136.0,blue,line
0.0,1.0,1.0,1,7.0,4.0,1652.01616287,3.0,phase_3,,,,,39.0,1.0,78.0,117.0,195.0,39.0,156.0,234.0,blue,line
0.0,6.0,2.0,1,7.0,5.0,2035.90297699,3.0,phase_3,,,,,44.0,1.0,264.0,88.0,220.0,176.0,44.0,132.0,cyan,square
0.0,5.0,1.0,0,7.0,2.0,2402.74405479,3.0,phase_3,,,,,54.0,1.0,162.0,54.0,324.0,108.0,216.0,270.0,gray,triangle
0.0,5.0,1.0,0,7.0,4.0,1752.3272037499999,3.0,phase_3,,,,,88.0,2.0,176.0,44.0,264.0,88.0,220.0,132.0,gray,triangle
0.0,4.0,4.0,0,7.0,4.0,2703.64403725,3.0,phase_3,,,,,195.0,5.0,234.0,39.0,156.0,195.0,117.0,78.0,magenta,flipped triangle
0.0,8.0,4.0,1,7.0,4.0,1835.8771801,3.0,phase_3,,,,,220.0,5.0,44.0,264.0,132.0,220.0,88.0,176.0,green,diamond
0.0,5.0,1.0,0,7.0,2.0,2636.37590408,3.0,phase_3,,,,,54.0,1.0,324.0,54.0,162.0,108.0,270.0,216.0,gray,triangle
0.0,3.0,3.0,1,7.0,4.0,2119.48990822,3.0,phase_3,,,,,117.0,3.0,234.0,195.0,156.0,117.0,39.0,78.0,orange,cross
0.0,5.0,1.0,0,7.0,5.0,1836.02499962,4.0,phase_3,,,,,147.0,3.0,98.0,245.0,196.0,49.0,147.0,294.0,gray,triangle
0.0,6.0,2.0,1,7.0,3.0,1385.4959011100002,4.0,phase_3,,,,,176.0,4.0,220.0,88.0,176.0,132.0,44.0,264.0,cyan,square
0.0,1.0,1.0,1,7.0,5.0,1218.28198433,4.0,phase_3,,,,,44.0,1.0,264.0,132.0,176.0,88.0,44.0,220.0,blue,line
0.0,8.0,4.0,1,7.0,3.0,2352.8430461899998,4.0,phase_3,,,,,294.0,6.0,196.0,49.0,294.0,98.0,245.0,147.0,green,diamond
0.0,7.0,3.0,0,7.0,4.0,3020.18904686,4.0,phase_3,,,,,102.0,3.0,34.0,170.0,136.0,102.0,68.0,204.0,yellow,circle
0.0,4.0,4.0,0,7.0,3.0,2001.89805031,4.0,phase_3,,,,,234.0,6.0,39.0,117.0,234.0,156.0,78.0,195.0,magenta,flipped triangle
0.0,5.0,1.0,0,7.0,3.0,2102.83994675,4.0,phase_3,,,,,68.0,2.0,204.0,102.0,68.0,170.0,34.0,136.0,gray,triangle
0.0,6.0,2.0,1,7.0,4.0,1284.49201584,4.0,phase_3,,,,,39.0,1.0,234.0,195.0,78.0,39.0,156.0,117.0,cyan,square
0.0,2.0,2.0,0,7.0,1.0,2136.03711128,4.0,phase_3,,,,,44.0,1.0,44.0,220.0,264.0,132.0,88.0,176.0,white,hexagon
0.0,5.0,1.0,0,7.0,2.0,2252.90083885,4.0,phase_3,,,,,264.0,6.0,44.0,264.0,132.0,220.0,176.0,88.0,gray,triangle
0.0,1.0,1.0,1,7.0,5.0,1751.90997124,4.0,phase_3,,,,,54.0,1.0,324.0,270.0,108.0,162.0,54.0,216.0,blue,line
0.0,1.0,1.0,1,7.0,2.0,1952.4641037,4.0,phase_3,,,,,49.0,1.0,147.0,49.0,196.0,245.0,294.0,98.0,blue,line
0.0,4.0,4.0,0,7.0,4.0,2552.8709888500002,4.0,phase_3,,,,,44.0,1.0,88.0,132.0,176.0,44.0,264.0,220.0,magenta,flipped triangle
0.0,8.0,4.0,1,7.0,6.0,1768.63718033,4.0,phase_3,,,,,234.0,6.0,117.0,78.0,195.0,39.0,156.0,234.0,green,diamond
0.0,8.0,4.0,1,7.0,6.0,1018.1879997300001,4.0,phase_3,,,,,270.0,5.0,324.0,162.0,108.0,216.0,54.0,270.0,green,diamond
0.0,1.0,1.0,1,7.0,6.0,1434.92412567,4.0,phase_3,,,,,44.0,1.0,176.0,132.0,88.0,220.0,264.0,44.0,blue,line
0.0,7.0,3.0,0,7.0,1.0,1952.75211334,4.0,phase_3,,,,,54.0,1.0,54.0,162.0,270.0,108.0,216.0,324.0,yellow,circle
0.0,2.0,2.0,0,7.0,6.0,2920.19891739,4.0,phase_3,,,,,34.0,1.0,68.0,102.0,136.0,204.0,170.0,34.0,white,hexagon
0.0,7.0,3.0,0,7.0,3.0,1802.1440506,4.0,phase_3,,,,,98.0,2.0,294.0,147.0,98.0,196.0,49.0,245.0,yellow,circle
0.0,3.0,3.0,1,7.0,4.0,1352.20694542,4.0,phase_3,,,,,98.0,2.0,294.0,147.0,245.0,98.0,49.0,196.0,orange,cross
