raw_reward_magnitude,stim_reward,stepwise_reward_magnitude,paired_with_stopping,stim_location,response,reaction_time,block,which_phase,stop_signal_trial_type,left_SSD,right_SSD,accuracy,chosen_bidding_amount,chosen_bidding_level,possible_bid_1,possible_bid_2,possible_bid_3,possible_bid_4,possible_bid_5,possible_bid_6,color_text,shape_text
34.0,1.0,1.0,1,3.0,3.0,484.175920486,1.0,phase_1,,,,,,,,,,,,,white,triangle
222.0,3.0,3.0,1,4.0,4.0,450.904130936,1.0,phase_1,,,,,,,,,,,,,magenta,square
67.0,5.0,1.0,0,3.0,3.0,401.29899978599997,1.0,phase_1,,,,,,,,,,,,,blue,flipped triangle
178.0,7.0,3.0,0,4.0,4.0,467.94509887699996,1.0,phase_1,,,,,,,,,,,,,yellow,circle
208.0,7.0,3.0,0,1.0,1.0,350.665092468,1.0,phase_1,,,,,,,,,,,,,yellow,circle
409.0,4.0,4.0,0,2.0,2.0,484.21311378499996,1.0,phase_1,,,,,,,,,,,,,orange,line
38.0,1.0,1.0,1,3.0,3.0,334.568977356,1.0,phase_1,,,,,,,,,,,,,white,triangle
62.0,1.0,1.0,1,1.0,1.0,350.540876389,1.0,phase_1,,,,,,,,,,,,,white,triangle
122.0,2.0,2.0,0,4.0,4.0,334.004163742,1.0,phase_1,,,,,,,,,,,,,green,cross
179.0,7.0,3.0,0,4.0,4.0,384.493112564,1.0,phase_1,,,,,,,,,,,,,yellow,circle
104.0,6.0,2.0,1,3.0,3.0,384.42492485,1.0,phase_1,,,,,,,,,,,,,cyan,hexagon
191.0,3.0,3.0,1,2.0,2.0,384.112119675,1.0,phase_1,,,,,,,,,,,,,magenta,square
421.0,8.0,4.0,1,1.0,1.0,334.137916565,1.0,phase_1,,,,,,,,,,,,,gray,diamond
0.0,8.0,0.0,1,3.0,3.0,351.161956787,1.0,phase_1,,,,,,,,,,,,,gray,diamond
0.0,8.0,0.0,1,2.0,2.0,350.912094116,1.0,phase_1,,,,,,,,,,,,,gray,diamond
181.0,3.0,3.0,1,2.0,2.0,367.24901199299995,1.0,phase_1,,,,,,,,,,,,,magenta,square
77.0,2.0,2.0,0,2.0,2.0,367.567062378,1.0,phase_1,,,,,,,,,,,,,green,cross
75.0,6.0,2.0,1,3.0,3.0,434.576034546,1.0,phase_1,,,,,,,,,,,,,cyan,hexagon
105.0,6.0,2.0,1,4.0,4.0,418.17402839700003,1.0,phase_1,,,,,,,,,,,,,cyan,hexagon
383.0,4.0,4.0,0,1.0,1.0,400.54297447199997,1.0,phase_1,,,,,,,,,,,,,orange,line
391.0,8.0,4.0,1,3.0,3.0,350.771188736,1.0,phase_1,,,,,,,,,,,,,gray,diamond
0.0,5.0,0.0,0,3.0,3.0,401.515960693,1.0,phase_1,,,,,,,,,,,,,blue,flipped triangle
222.0,7.0,3.0,0,3.0,3.0,334.36298370400004,1.0,phase_1,,,,,,,,,,,,,yellow,circle
0.0,1.0,0.0,1,3.0,3.0,367.694139481,1.0,phase_1,,,,,,,,,,,,,white,triangle
403.0,8.0,4.0,1,2.0,2.0,417.247056961,1.0,phase_1,,,,,,,,,,,,,gray,diamond
98.0,6.0,2.0,1,2.0,2.0,383.77904892,1.0,phase_1,,,,,,,,,,,,,cyan,hexagon
190.0,3.0,3.0,1,2.0,2.0,384.351968765,1.0,phase_1,,,,,,,,,,,,,magenta,square
0.0,1.0,0.0,1,2.0,2.0,383.934020996,1.0,phase_1,,,,,,,,,,,,,white,triangle
67.0,1.0,1.0,1,4.0,4.0,384.31596756000005,1.0,phase_1,,,,,,,,,,,,,white,triangle
122.0,6.0,2.0,1,3.0,3.0,350.589036942,1.0,phase_1,,,,,,,,,,,,,cyan,hexagon
43.0,5.0,1.0,0,1.0,1.0,317.401170731,1.0,phase_1,,,,,,,,,,,,,blue,flipped triangle
394.0,8.0,4.0,1,3.0,3.0,317.494869232,1.0,phase_1,,,,,,,,,,,,,gray,diamond
0.0,4.0,0.0,0,1.0,1.0,417.60492324800003,1.0,phase_1,,,,,,,,,,,,,orange,line
104.0,6.0,2.0,1,2.0,2.0,384.02104377700005,1.0,phase_1,,,,,,,,,,,,,cyan,hexagon
176.0,7.0,3.0,0,4.0,4.0,451.039075851,1.0,phase_1,,,,,,,,,,,,,yellow,circle
0.0,5.0,0.0,0,3.0,3.0,367.812156677,1.0,phase_1,,,,,,,,,,,,,blue,flipped triangle
0.0,8.0,0.0,1,1.0,1.0,401.087999344,1.0,phase_1,,,,,,,,,,,,,gray,diamond
403.0,4.0,4.0,0,3.0,3.0,334.275007248,1.0,phase_1,,,,,,,,,,,,,orange,line
202.0,3.0,3.0,1,3.0,3.0,384.325027466,1.0,phase_1,,,,,,,,,,,,,magenta,square
85.0,2.0,2.0,0,3.0,3.0,400.760173798,1.0,phase_1,,,,,,,,,,,,,green,cross
112.0,6.0,2.0,1,2.0,2.0,333.956003189,1.0,phase_1,,,,,,,,,,,,,cyan,hexagon
0.0,7.0,0.0,0,2.0,2.0,333.93383026099997,1.0,phase_1,,,,,,,,,,,,,yellow,circle
204.0,7.0,3.0,0,2.0,2.0,334.219932556,1.0,phase_1,,,,,,,,,,,,,yellow,circle
44.0,1.0,1.0,1,4.0,4.0,434.321880341,1.0,phase_1,,,,,,,,,,,,,white,triangle
419.0,4.0,4.0,0,2.0,2.0,350.919008255,1.0,phase_1,,,,,,,,,,,,,orange,line
0.0,7.0,0.0,0,1.0,1.0,334.56993102999996,1.0,phase_1,,,,,,,,,,,,,yellow,circle
104.0,2.0,2.0,0,2.0,2.0,334.501981735,1.0,phase_1,,,,,,,,,,,,,green,cross
87.0,6.0,2.0,1,3.0,3.0,334.18703079200003,1.0,phase_1,,,,,,,,,,,,,cyan,hexagon
204.0,7.0,3.0,0,1.0,1.0,384.088993073,1.0,phase_1,,,,,,,,,,,,,yellow,circle
404.0,8.0,4.0,1,3.0,3.0,367.099046707,1.0,phase_1,,,,,,,,,,,,,gray,diamond
395.0,8.0,4.0,1,2.0,2.0,384.59682464599996,1.0,phase_1,,,,,,,,,,,,,gray,diamond
392.0,4.0,4.0,0,4.0,4.0,384.745836258,1.0,phase_1,,,,,,,,,,,,,orange,line
0.0,3.0,0.0,1,2.0,2.0,300.21905899,1.0,phase_1,,,,,,,,,,,,,magenta,square
56.0,5.0,1.0,0,4.0,4.0,384.540081024,1.0,phase_1,,,,,,,,,,,,,blue,flipped triangle
0.0,3.0,0.0,1,2.0,2.0,350.785017014,1.0,phase_1,,,,,,,,,,,,,magenta,square
195.0,3.0,3.0,1,4.0,4.0,450.911998749,1.0,phase_1,,,,,,,,,,,,,magenta,square
28.0,5.0,1.0,0,1.0,1.0,367.643117905,1.0,phase_1,,,,,,,,,,,,,blue,flipped triangle
217.0,7.0,3.0,0,3.0,3.0,384.382009506,1.0,phase_1,,,,,,,,,,,,,yellow,circle
50.0,1.0,1.0,1,4.0,4.0,383.655071259,1.0,phase_1,,,,,,,,,,,,,white,triangle
198.0,3.0,3.0,1,1.0,1.0,383.900880814,1.0,phase_1,,,,,,,,,,,,,magenta,square
0.0,8.0,0.0,1,1.0,1.0,417.471885681,1.0,phase_1,,,,,,,,,,,,,gray,diamond
225.0,7.0,3.0,0,1.0,1.0,500.92601776099997,1.0,phase_1,,,,,,,,,,,,,yellow,circle
0.0,7.0,0.0,0,1.0,1.0,417.835950851,1.0,phase_1,,,,,,,,,,,,,yellow,circle
208.0,3.0,3.0,1,4.0,4.0,467.224836349,1.0,phase_1,,,,,,,,,,,,,magenta,square
32.0,5.0,1.0,0,4.0,4.0,384.682178497,1.0,phase_1,,,,,,,,,,,,,blue,flipped triangle
88.0,6.0,2.0,1,4.0,4.0,367.88702011099997,1.0,phase_1,,,,,,,,,,,,,cyan,hexagon
216.0,7.0,3.0,0,4.0,4.0,334.336042404,1.0,phase_1,,,,,,,,,,,,,yellow,circle
51.0,5.0,1.0,0,4.0,4.0,367.852926254,1.0,phase_1,,,,,,,,,,,,,blue,flipped triangle
417.0,8.0,4.0,1,2.0,2.0,400.60615539599996,1.0,phase_1,,,,,,,,,,,,,gray,diamond
77.0,6.0,2.0,1,1.0,1.0,350.680112839,1.0,phase_1,,,,,,,,,,,,,cyan,hexagon
0.0,4.0,0.0,0,4.0,4.0,384.114980698,1.0,phase_1,,,,,,,,,,,,,orange,line
398.0,4.0,4.0,0,1.0,1.0,384.573936462,1.0,phase_1,,,,,,,,,,,,,orange,line
0.0,4.0,0.0,0,3.0,3.0,383.71014595,1.0,phase_1,,,,,,,,,,,,,orange,line
0.0,5.0,0.0,0,4.0,4.0,351.078987122,1.0,phase_1,,,,,,,,,,,,,blue,flipped triangle
121.0,2.0,2.0,0,1.0,1.0,384.300947189,1.0,phase_1,,,,,,,,,,,,,green,cross
180.0,3.0,3.0,1,3.0,3.0,484.539985657,1.0,phase_1,,,,,,,,,,,,,magenta,square
217.0,7.0,3.0,0,3.0,3.0,384.151935577,1.0,phase_1,,,,,,,,,,,,,yellow,circle
221.0,3.0,3.0,1,1.0,1.0,500.851869583,1.0,phase_1,,,,,,,,,,,,,magenta,square
111.0,2.0,2.0,0,4.0,4.0,567.3630237579999,1.0,phase_1,,,,,,,,,,,,,green,cross
0.0,1.0,0.0,1,2.0,2.0,367.046117783,1.0,phase_1,,,,,,,,,,,,,white,triangle
0.0,5.0,0.0,0,2.0,2.0,468.268156052,1.0,phase_1,,,,,,,,,,,,,blue,flipped triangle
395.0,8.0,4.0,1,3.0,3.0,401.104927063,1.0,phase_1,,,,,,,,,,,,,gray,diamond
195.0,3.0,3.0,1,1.0,1.0,550.879955292,1.0,phase_1,,,,,,,,,,,,,magenta,square
36.0,5.0,1.0,0,4.0,4.0,384.194850922,1.0,phase_1,,,,,,,,,,,,,blue,flipped triangle
0.0,8.0,0.0,1,4.0,4.0,367.367982864,1.0,phase_1,,,,,,,,,,,,,gray,diamond
385.0,8.0,4.0,1,3.0,3.0,367.611885071,1.0,phase_1,,,,,,,,,,,,,gray,diamond
202.0,3.0,3.0,1,1.0,1.0,367.172002792,1.0,phase_1,,,,,,,,,,,,,magenta,square
0.0,4.0,0.0,0,1.0,1.0,400.65217018100003,1.0,phase_1,,,,,,,,,,,,,orange,line
185.0,7.0,3.0,0,1.0,1.0,467.35811233500004,1.0,phase_1,,,,,,,,,,,,,yellow,circle
380.0,8.0,4.0,1,2.0,2.0,383.742809296,1.0,phase_1,,,,,,,,,,,,,gray,diamond
205.0,3.0,3.0,1,2.0,2.0,351.052999496,1.0,phase_1,,,,,,,,,,,,,magenta,square
193.0,3.0,3.0,1,1.0,1.0,334.427118301,1.0,phase_1,,,,,,,,,,,,,magenta,square
110.0,2.0,2.0,0,1.0,1.0,533.738851547,1.0,phase_1,,,,,,,,,,,,,green,cross
409.0,4.0,4.0,0,2.0,2.0,350.682973862,1.0,phase_1,,,,,,,,,,,,,orange,line
392.0,4.0,4.0,0,4.0,4.0,450.796127319,1.0,phase_1,,,,,,,,,,,,,orange,line
68.0,5.0,1.0,0,4.0,4.0,417.61898994399996,1.0,phase_1,,,,,,,,,,,,,blue,flipped triangle
56.0,5.0,1.0,0,3.0,3.0,351.08590126,1.0,phase_1,,,,,,,,,,,,,blue,flipped triangle
185.0,3.0,3.0,1,4.0,4.0,384.213924408,1.0,phase_1,,,,,,,,,,,,,magenta,square
103.0,6.0,2.0,1,1.0,1.0,350.672006607,1.0,phase_1,,,,,,,,,,,,,cyan,hexagon
32.0,1.0,1.0,1,2.0,2.0,350.89612007100004,1.0,phase_1,,,,,,,,,,,,,white,triangle
204.0,7.0,3.0,0,2.0,2.0,416.82600975,2.0,phase_1,,,,,,,,,,,,,yellow,circle
0.0,7.0,0.0,0,3.0,3.0,367.790222168,2.0,phase_1,,,,,,,,,,,,,yellow,circle
188.0,3.0,3.0,1,3.0,3.0,417.91915893600003,2.0,phase_1,,,,,,,,,,,,,magenta,square
0.0,3.0,0.0,1,4.0,4.0,417.728900909,2.0,phase_1,,,,,,,,,,,,,magenta,square
77.0,2.0,2.0,0,2.0,2.0,401.041030884,2.0,phase_1,,,,,,,,,,,,,green,cross
0.0,2.0,0.0,0,4.0,4.0,451.756000519,2.0,phase_1,,,,,,,,,,,,,green,cross
0.0,8.0,0.0,1,3.0,3.0,401.121139526,2.0,phase_1,,,,,,,,,,,,,gray,diamond
0.0,8.0,0.0,1,2.0,2.0,351.130008698,2.0,phase_1,,,,,,,,,,,,,gray,diamond
92.0,6.0,2.0,1,3.0,3.0,434.713125229,2.0,phase_1,,,,,,,,,,,,,cyan,hexagon
191.0,7.0,3.0,0,1.0,1.0,401.413202286,2.0,phase_1,,,,,,,,,,,,,yellow,circle
67.0,1.0,1.0,1,4.0,4.0,418.218851089,2.0,phase_1,,,,,,,,,,,,,white,triangle
100.0,2.0,2.0,0,1.0,1.0,534.729003906,2.0,phase_1,,,,,,,,,,,,,green,cross
0.0,3.0,0.0,1,3.0,3.0,384.39702987699997,2.0,phase_1,,,,,,,,,,,,,magenta,square
191.0,7.0,3.0,0,4.0,4.0,351.011991501,2.0,phase_1,,,,,,,,,,,,,yellow,circle
42.0,1.0,1.0,1,4.0,4.0,350.558996201,2.0,phase_1,,,,,,,,,,,,,white,triangle
95.0,6.0,2.0,1,2.0,2.0,434.090852737,2.0,phase_1,,,,,,,,,,,,,cyan,hexagon
96.0,2.0,2.0,0,3.0,3.0,333.82296562199997,2.0,phase_1,,,,,,,,,,,,,green,cross
0.0,2.0,0.0,0,2.0,2.0,434.84592437699996,2.0,phase_1,,,,,,,,,,,,,green,cross
0.0,6.0,0.0,1,2.0,2.0,417.248010635,2.0,phase_1,,,,,,,,,,,,,cyan,hexagon
111.0,2.0,2.0,0,4.0,4.0,417.048215866,2.0,phase_1,,,,,,,,,,,,,green,cross
106.0,6.0,2.0,1,3.0,3.0,333.77504348800005,2.0,phase_1,,,,,,,,,,,,,cyan,hexagon
177.0,7.0,3.0,0,1.0,1.0,367.969989777,2.0,phase_1,,,,,,,,,,,,,yellow,circle
0.0,5.0,0.0,0,2.0,2.0,350.97193718000005,2.0,phase_1,,,,,,,,,,,,,blue,flipped triangle
0.0,2.0,0.0,0,3.0,3.0,401.59201622,2.0,phase_1,,,,,,,,,,,,,green,cross
93.0,6.0,2.0,1,3.0,3.0,401.310920715,2.0,phase_1,,,,,,,,,,,,,cyan,hexagon
51.0,1.0,1.0,1,2.0,2.0,350.89302063,2.0,phase_1,,,,,,,,,,,,,white,triangle
379.0,8.0,4.0,1,1.0,1.0,401.07512474099997,2.0,phase_1,,,,,,,,,,,,,gray,diamond
409.0,4.0,4.0,0,4.0,4.0,383.941888809,2.0,phase_1,,,,,,,,,,,,,orange,line
0.0,7.0,0.0,0,2.0,2.0,317.762136459,2.0,phase_1,,,,,,,,,,,,,yellow,circle
0.0,7.0,0.0,0,2.0,2.0,367.70009994500003,2.0,phase_1,,,,,,,,,,,,,yellow,circle
406.0,8.0,4.0,1,3.0,3.0,401.052951813,2.0,phase_1,,,,,,,,,,,,,gray,diamond
90.0,2.0,2.0,0,1.0,1.0,400.698184967,2.0,phase_1,,,,,,,,,,,,,green,cross
204.0,7.0,3.0,0,4.0,4.0,367.901086807,2.0,phase_1,,,,,,,,,,,,,yellow,circle
58.0,5.0,1.0,0,2.0,2.0,334.22017097500003,2.0,phase_1,,,,,,,,,,,,,blue,flipped triangle
0.0,6.0,0.0,1,1.0,1.0,317.344903946,2.0,phase_1,,,,,,,,,,,,,cyan,hexagon
0.0,8.0,0.0,1,3.0,3.0,367.640018463,2.0,phase_1,,,,,,,,,,,,,gray,diamond
388.0,4.0,4.0,0,3.0,3.0,417.86193847699997,2.0,phase_1,,,,,,,,,,,,,orange,line
83.0,2.0,2.0,0,2.0,2.0,401.482105255,2.0,phase_1,,,,,,,,,,,,,green,cross
0.0,4.0,0.0,0,3.0,3.0,401.16190910299997,2.0,phase_1,,,,,,,,,,,,,orange,line
73.0,5.0,1.0,0,1.0,1.0,418.050050735,2.0,phase_1,,,,,,,,,,,,,blue,flipped triangle
0.0,4.0,0.0,0,4.0,4.0,417.73295402499997,2.0,phase_1,,,,,,,,,,,,,orange,line
0.0,2.0,0.0,0,4.0,4.0,434.187889099,2.0,phase_1,,,,,,,,,,,,,green,cross
55.0,1.0,1.0,1,3.0,3.0,384.440898895,2.0,phase_1,,,,,,,,,,,,,white,triangle
101.0,2.0,2.0,0,3.0,3.0,351.050138474,2.0,phase_1,,,,,,,,,,,,,green,cross
64.0,1.0,1.0,1,4.0,4.0,384.251117706,2.0,phase_1,,,,,,,,,,,,,white,triangle
91.0,6.0,2.0,1,3.0,3.0,350.94690322900004,2.0,phase_1,,,,,,,,,,,,,cyan,hexagon
0.0,1.0,0.0,1,1.0,1.0,385.20097732500005,2.0,phase_1,,,,,,,,,,,,,white,triangle
192.0,3.0,3.0,1,3.0,3.0,367.36011505100004,2.0,phase_1,,,,,,,,,,,,,magenta,square
0.0,3.0,0.0,1,2.0,2.0,350.969076157,2.0,phase_1,,,,,,,,,,,,,magenta,square
211.0,7.0,3.0,0,1.0,1.0,483.959913254,2.0,phase_1,,,,,,,,,,,,,yellow,circle
0.0,3.0,0.0,1,1.0,1.0,351.029872894,2.0,phase_1,,,,,,,,,,,,,magenta,square
224.0,3.0,3.0,1,4.0,4.0,417.679071426,2.0,phase_1,,,,,,,,,,,,,magenta,square
384.0,8.0,4.0,1,2.0,2.0,367.406129837,2.0,phase_1,,,,,,,,,,,,,gray,diamond
212.0,3.0,3.0,1,3.0,3.0,384.03296470600003,2.0,phase_1,,,,,,,,,,,,,magenta,square
89.0,2.0,2.0,0,1.0,1.0,400.42901039099996,2.0,phase_1,,,,,,,,,,,,,green,cross
383.0,4.0,4.0,0,1.0,1.0,400.99000930799997,2.0,phase_1,,,,,,,,,,,,,orange,line
36.0,5.0,1.0,0,2.0,2.0,351.032972336,2.0,phase_1,,,,,,,,,,,,,blue,flipped triangle
0.0,3.0,0.0,1,4.0,4.0,501.627922058,2.0,phase_1,,,,,,,,,,,,,magenta,square
0.0,5.0,0.0,0,2.0,2.0,333.773851395,2.0,phase_1,,,,,,,,,,,,,blue,flipped triangle
381.0,8.0,4.0,1,1.0,1.0,484.29107666,2.0,phase_1,,,,,,,,,,,,,gray,diamond
96.0,2.0,2.0,0,1.0,1.0,584.463119507,2.0,phase_1,,,,,,,,,,,,,green,cross
0.0,1.0,0.0,1,1.0,1.0,602.0100116729999,2.0,phase_1,,,,,,,,,,,,,white,triangle
61.0,1.0,1.0,1,3.0,3.0,418.209075928,2.0,phase_1,,,,,,,,,,,,,white,triangle
214.0,3.0,3.0,1,4.0,4.0,367.38204956100003,2.0,phase_1,,,,,,,,,,,,,magenta,square
185.0,3.0,3.0,1,4.0,4.0,450.77395439099996,2.0,phase_1,,,,,,,,,,,,,magenta,square
120.0,2.0,2.0,0,1.0,1.0,467.782020569,2.0,phase_1,,,,,,,,,,,,,green,cross
0.0,7.0,0.0,0,2.0,2.0,451.057195663,2.0,phase_1,,,,,,,,,,,,,yellow,circle
37.0,5.0,1.0,0,3.0,3.0,567.414999008,2.0,phase_1,,,,,,,,,,,,,blue,flipped triangle
394.0,4.0,4.0,0,4.0,4.0,434.038877487,2.0,phase_1,,,,,,,,,,,,,orange,line
88.0,6.0,2.0,1,2.0,2.0,400.872945786,2.0,phase_1,,,,,,,,,,,,,cyan,hexagon
376.0,8.0,4.0,1,4.0,4.0,417.75393486,2.0,phase_1,,,,,,,,,,,,,gray,diamond
100.0,2.0,2.0,0,3.0,3.0,735.178947449,2.0,phase_1,,,,,,,,,,,,,green,cross
395.0,8.0,4.0,1,2.0,2.0,433.931112289,2.0,phase_1,,,,,,,,,,,,,gray,diamond
0.0,3.0,0.0,1,3.0,3.0,834.259986877,2.0,phase_1,,,,,,,,,,,,,magenta,square
188.0,7.0,3.0,0,1.0,1.0,451.390028,2.0,phase_1,,,,,,,,,,,,,yellow,circle
389.0,4.0,4.0,0,4.0,4.0,434.036016464,2.0,phase_1,,,,,,,,,,,,,orange,line
200.0,7.0,3.0,0,1.0,1.0,483.928918839,2.0,phase_1,,,,,,,,,,,,,yellow,circle
418.0,8.0,4.0,1,4.0,4.0,401.02314949,2.0,phase_1,,,,,,,,,,,,,gray,diamond
0.0,3.0,0.0,1,4.0,4.0,484.652996063,2.0,phase_1,,,,,,,,,,,,,magenta,square
204.0,7.0,3.0,0,2.0,2.0,418.219089508,2.0,phase_1,,,,,,,,,,,,,yellow,circle
61.0,1.0,1.0,1,1.0,1.0,450.479030609,2.0,phase_1,,,,,,,,,,,,,white,triangle
0.0,5.0,0.0,0,2.0,2.0,500.92291832,2.0,phase_1,,,,,,,,,,,,,blue,flipped triangle
114.0,6.0,2.0,1,3.0,3.0,584.369182587,2.0,phase_1,,,,,,,,,,,,,cyan,hexagon
179.0,3.0,3.0,1,2.0,2.0,350.95500946000004,2.0,phase_1,,,,,,,,,,,,,magenta,square
105.0,6.0,2.0,1,4.0,4.0,484.111070633,2.0,phase_1,,,,,,,,,,,,,cyan,hexagon
225.0,7.0,3.0,0,4.0,4.0,517.80796051,2.0,phase_1,,,,,,,,,,,,,yellow,circle
70.0,1.0,1.0,1,1.0,1.0,350.914001465,2.0,phase_1,,,,,,,,,,,,,white,triangle
0.0,1.0,0.0,1,4.0,4.0,484.688997269,2.0,phase_1,,,,,,,,,,,,,white,triangle
0.0,2.0,0.0,0,2.0,2.0,350.497961044,2.0,phase_1,,,,,,,,,,,,,green,cross
0.0,5.0,0.0,0,2.0,2.0,417.538881302,2.0,phase_1,,,,,,,,,,,,,blue,flipped triangle
62.0,5.0,1.0,0,3.0,3.0,601.548910141,2.0,phase_1,,,,,,,,,,,,,blue,flipped triangle
0.0,6.0,0.0,1,1.0,1.0,650.985002518,2.0,phase_1,,,,,,,,,,,,,cyan,hexagon
201.0,3.0,3.0,1,3.0,3.0,534.8560810089999,2.0,phase_1,,,,,,,,,,,,,magenta,square
0.0,1.0,0.0,1,4.0,4.0,433.966159821,2.0,phase_1,,,,,,,,,,,,,white,triangle
106.0,2.0,2.0,0,2.0,2.0,367.520093918,2.0,phase_1,,,,,,,,,,,,,green,cross
0.0,5.0,0.0,0,4.0,4.0,467.91195869399996,2.0,phase_1,,,,,,,,,,,,,blue,flipped triangle
391.0,8.0,4.0,1,1.0,1.0,484.267950058,2.0,phase_1,,,,,,,,,,,,,gray,diamond
0.0,1.0,0.0,1,1.0,1.0,483.956098557,2.0,phase_1,,,,,,,,,,,,,white,triangle
0.0,1.0,0.0,1,1.0,1.0,433.95400047299995,2.0,phase_1,,,,,,,,,,,,,white,triangle
30.0,1.0,1.0,1,1.0,1.0,400.446891785,2.0,phase_1,,,,,,,,,,,,,white,triangle
390.0,4.0,4.0,0,3.0,3.0,701.453924179,3.0,phase_1,,,,,,,,,,,,,orange,line
424.0,8.0,4.0,1,1.0,1.0,467.816114426,3.0,phase_1,,,,,,,,,,,,,gray,diamond
49.0,1.0,1.0,1,3.0,3.0,601.109027863,3.0,phase_1,,,,,,,,,,,,,white,triangle
122.0,2.0,2.0,0,2.0,2.0,401.215076447,3.0,phase_1,,,,,,,,,,,,,green,cross
393.0,4.0,4.0,0,1.0,1.0,400.569915771,3.0,phase_1,,,,,,,,,,,,,orange,line
32.0,5.0,1.0,0,3.0,3.0,601.050853729,3.0,phase_1,,,,,,,,,,,,,blue,flipped triangle
105.0,2.0,2.0,0,3.0,3.0,584.448814392,3.0,phase_1,,,,,,,,,,,,,green,cross
0.0,5.0,0.0,0,2.0,2.0,451.41816139199994,3.0,phase_1,,,,,,,,,,,,,blue,flipped triangle
392.0,8.0,4.0,1,2.0,2.0,483.892917633,3.0,phase_1,,,,,,,,,,,,,gray,diamond
0.0,7.0,0.0,0,1.0,1.0,434.229135513,3.0,phase_1,,,,,,,,,,,,,yellow,circle
124.0,6.0,2.0,1,3.0,3.0,600.983858109,3.0,phase_1,,,,,,,,,,,,,cyan,hexagon
177.0,3.0,3.0,1,2.0,2.0,400.94304084799995,3.0,phase_1,,,,,,,,,,,,,magenta,square
0.0,4.0,0.0,0,4.0,4.0,434.355974197,3.0,phase_1,,,,,,,,,,,,,orange,line
375.0,4.0,4.0,0,1.0,1.0,418.000936508,3.0,phase_1,,,,,,,,,,,,,orange,line
407.0,8.0,4.0,1,1.0,1.0,418.020009995,3.0,phase_1,,,,,,,,,,,,,gray,diamond
0.0,2.0,0.0,0,4.0,4.0,416.908979416,3.0,phase_1,,,,,,,,,,,,,green,cross
82.0,2.0,2.0,0,4.0,4.0,451.195001602,3.0,phase_1,,,,,,,,,,,,,green,cross
0.0,6.0,0.0,1,4.0,4.0,401.571989059,3.0,phase_1,,,,,,,,,,,,,cyan,hexagon
81.0,6.0,2.0,1,4.0,4.0,434.453010559,3.0,phase_1,,,,,,,,,,,,,cyan,hexagon
69.0,5.0,1.0,0,2.0,2.0,384.491920471,3.0,phase_1,,,,,,,,,,,,,blue,flipped triangle
380.0,8.0,4.0,1,1.0,1.0,367.074966431,3.0,phase_1,,,,,,,,,,,,,gray,diamond
0.0,8.0,0.0,1,2.0,2.0,451.246976852,3.0,phase_1,,,,,,,,,,,,,gray,diamond
406.0,8.0,4.0,1,1.0,1.0,317.970991135,3.0,phase_1,,,,,,,,,,,,,gray,diamond
0.0,6.0,0.0,1,2.0,2.0,350.505113602,3.0,phase_1,,,,,,,,,,,,,cyan,hexagon
61.0,1.0,1.0,1,2.0,2.0,434.35096740700004,3.0,phase_1,,,,,,,,,,,,,white,triangle
36.0,5.0,1.0,0,1.0,1.0,367.206096649,3.0,phase_1,,,,,,,,,,,,,blue,flipped triangle
395.0,4.0,4.0,0,3.0,3.0,751.374006271,3.0,phase_1,,,,,,,,,,,,,orange,line
208.0,7.0,3.0,0,3.0,3.0,650.650024414,3.0,phase_1,,,,,,,,,,,,,yellow,circle
0.0,8.0,0.0,1,3.0,3.0,584.4471454620001,3.0,phase_1,,,,,,,,,,,,,gray,diamond
388.0,8.0,4.0,1,2.0,2.0,467.41819381700003,3.0,phase_1,,,,,,,,,,,,,gray,diamond
119.0,2.0,2.0,0,1.0,1.0,434.710979462,3.0,phase_1,,,,,,,,,,,,,green,cross
0.0,2.0,0.0,0,1.0,1.0,434.024095535,3.0,phase_1,,,,,,,,,,,,,green,cross
28.0,1.0,1.0,1,3.0,3.0,618.313074112,3.0,phase_1,,,,,,,,,,,,,white,triangle
384.0,4.0,4.0,0,3.0,3.0,650.892972946,3.0,phase_1,,,,,,,,,,,,,orange,line
47.0,1.0,1.0,1,1.0,1.0,501.013994217,3.0,phase_1,,,,,,,,,,,,,white,triangle
179.0,3.0,3.0,1,3.0,3.0,584.417104721,3.0,phase_1,,,,,,,,,,,,,magenta,square
175.0,3.0,3.0,1,1.0,1.0,501.54185295099995,3.0,phase_1,,,,,,,,,,,,,magenta,square
409.0,4.0,4.0,0,2.0,2.0,417.713165283,3.0,phase_1,,,,,,,,,,,,,orange,line
225.0,7.0,3.0,0,1.0,1.0,383.72302055399996,3.0,phase_1,,,,,,,,,,,,,yellow,circle
77.0,6.0,2.0,1,3.0,3.0,484.492063522,3.0,phase_1,,,,,,,,,,,,,cyan,hexagon
214.0,7.0,3.0,0,3.0,3.0,951.102972031,3.0,phase_1,,,,,,,,,,,,,yellow,circle
45.0,5.0,1.0,0,2.0,2.0,383.840799332,3.0,phase_1,,,,,,,,,,,,,blue,flipped triangle
122.0,6.0,2.0,1,1.0,1.0,417.70792007399996,3.0,phase_1,,,,,,,,,,,,,cyan,hexagon
30.0,1.0,1.0,1,3.0,3.0,568.3350563050001,3.0,phase_1,,,,,,,,,,,,,white,triangle
109.0,2.0,2.0,0,4.0,4.0,500.92101097099993,3.0,phase_1,,,,,,,,,,,,,green,cross
115.0,6.0,2.0,1,4.0,4.0,517.4200534820001,3.0,phase_1,,,,,,,,,,,,,cyan,hexagon
60.0,5.0,1.0,0,1.0,1.0,435.074806213,3.0,phase_1,,,,,,,,,,,,,blue,flipped triangle
178.0,7.0,3.0,0,4.0,4.0,601.1059284209999,3.0,phase_1,,,,,,,,,,,,,yellow,circle
68.0,1.0,1.0,1,4.0,4.0,401.258945465,3.0,phase_1,,,,,,,,,,,,,white,triangle
0.0,3.0,0.0,1,4.0,4.0,500.982999802,3.0,phase_1,,,,,,,,,,,,,magenta,square
78.0,6.0,2.0,1,2.0,2.0,367.582082748,3.0,phase_1,,,,,,,,,,,,,cyan,hexagon
92.0,6.0,2.0,1,4.0,4.0,417.781114578,3.0,phase_1,,,,,,,,,,,,,cyan,hexagon
221.0,7.0,3.0,0,2.0,2.0,416.846036911,3.0,phase_1,,,,,,,,,,,,,yellow,circle
212.0,3.0,3.0,1,1.0,1.0,467.67616272000004,3.0,phase_1,,,,,,,,,,,,,magenta,square
54.0,1.0,1.0,1,4.0,4.0,401.036977768,3.0,phase_1,,,,,,,,,,,,,white,triangle
414.0,8.0,4.0,1,1.0,1.0,384.27901268,3.0,phase_1,,,,,,,,,,,,,gray,diamond
208.0,7.0,3.0,0,4.0,4.0,384.14001464800003,3.0,phase_1,,,,,,,,,,,,,yellow,circle
72.0,5.0,1.0,0,3.0,3.0,551.126003265,3.0,phase_1,,,,,,,,,,,,,blue,flipped triangle
40.0,1.0,1.0,1,2.0,2.0,351.12905502300003,3.0,phase_1,,,,,,,,,,,,,white,triangle
376.0,4.0,4.0,0,3.0,3.0,568.0899620060001,3.0,phase_1,,,,,,,,,,,,,orange,line
116.0,6.0,2.0,1,3.0,3.0,451.37500762900004,3.0,phase_1,,,,,,,,,,,,,cyan,hexagon
102.0,2.0,2.0,0,3.0,3.0,500.61893463100006,3.0,phase_1,,,,,,,,,,,,,green,cross
117.0,6.0,2.0,1,3.0,3.0,433.21490287800003,3.0,phase_1,,,,,,,,,,,,,cyan,hexagon
415.0,4.0,4.0,0,1.0,1.0,400.42901039099996,3.0,phase_1,,,,,,,,,,,,,orange,line
48.0,5.0,1.0,0,4.0,4.0,400.794029236,3.0,phase_1,,,,,,,,,,,,,blue,flipped triangle
0.0,3.0,0.0,1,2.0,2.0,367.37012863200005,3.0,phase_1,,,,,,,,,,,,,magenta,square
119.0,2.0,2.0,0,4.0,4.0,500.282049179,3.0,phase_1,,,,,,,,,,,,,green,cross
389.0,8.0,4.0,1,2.0,2.0,434.064865112,3.0,phase_1,,,,,,,,,,,,,gray,diamond
0.0,1.0,0.0,1,4.0,4.0,617.95592308,3.0,phase_1,,,,,,,,,,,,,white,triangle
386.0,8.0,4.0,1,2.0,2.0,401.168107986,3.0,phase_1,,,,,,,,,,,,,gray,diamond
220.0,3.0,3.0,1,3.0,3.0,600.93998909,3.0,phase_1,,,,,,,,,,,,,magenta,square
183.0,7.0,3.0,0,4.0,4.0,434.23509597799995,3.0,phase_1,,,,,,,,,,,,,yellow,circle
210.0,7.0,3.0,0,3.0,3.0,535.05897522,3.0,phase_1,,,,,,,,,,,,,yellow,circle
381.0,4.0,4.0,0,2.0,2.0,467.50211715700004,3.0,phase_1,,,,,,,,,,,,,orange,line
387.0,4.0,4.0,0,1.0,1.0,400.398015976,3.0,phase_1,,,,,,,,,,,,,orange,line
378.0,4.0,4.0,0,3.0,3.0,568.1030750269999,3.0,phase_1,,,,,,,,,,,,,orange,line
0.0,2.0,0.0,0,2.0,2.0,417.798995972,3.0,phase_1,,,,,,,,,,,,,green,cross
0.0,7.0,0.0,0,2.0,2.0,367.281198502,3.0,phase_1,,,,,,,,,,,,,yellow,circle
390.0,4.0,4.0,0,1.0,1.0,417.526006699,3.0,phase_1,,,,,,,,,,,,,orange,line
189.0,3.0,3.0,1,4.0,4.0,417.207956314,3.0,phase_1,,,,,,,,,,,,,magenta,square
410.0,8.0,4.0,1,4.0,4.0,517.965078354,3.0,phase_1,,,,,,,,,,,,,gray,diamond
77.0,2.0,2.0,0,2.0,2.0,417.788982391,3.0,phase_1,,,,,,,,,,,,,green,cross
193.0,3.0,3.0,1,4.0,4.0,434.465169907,3.0,phase_1,,,,,,,,,,,,,magenta,square
0.0,6.0,0.0,1,2.0,2.0,334.59997177099996,3.0,phase_1,,,,,,,,,,,,,cyan,hexagon
90.0,6.0,2.0,1,4.0,4.0,433.974027634,3.0,phase_1,,,,,,,,,,,,,cyan,hexagon
406.0,8.0,4.0,1,2.0,2.0,451.689004898,3.0,phase_1,,,,,,,,,,,,,gray,diamond
69.0,5.0,1.0,0,3.0,3.0,600.771903992,3.0,phase_1,,,,,,,,,,,,,blue,flipped triangle
51.0,1.0,1.0,1,4.0,4.0,484.656095505,3.0,phase_1,,,,,,,,,,,,,white,triangle
420.0,8.0,4.0,1,3.0,3.0,568.205118179,3.0,phase_1,,,,,,,,,,,,,gray,diamond
61.0,5.0,1.0,0,1.0,1.0,384.073972702,3.0,phase_1,,,,,,,,,,,,,blue,flipped triangle
0.0,3.0,0.0,1,4.0,4.0,434.15498733500004,3.0,phase_1,,,,,,,,,,,,,magenta,square
0.0,1.0,0.0,1,2.0,2.0,334.228992462,3.0,phase_1,,,,,,,,,,,,,white,triangle
61.0,5.0,1.0,0,1.0,1.0,400.619029999,3.0,phase_1,,,,,,,,,,,,,blue,flipped triangle
422.0,4.0,4.0,0,3.0,3.0,601.102113724,3.0,phase_1,,,,,,,,,,,,,orange,line
411.0,8.0,4.0,1,4.0,4.0,417.18411445600003,3.0,phase_1,,,,,,,,,,,,,gray,diamond
197.0,3.0,3.0,1,1.0,1.0,351.020097733,3.0,phase_1,,,,,,,,,,,,,magenta,square
0.0,3.0,0.0,1,1.0,1.0,401.00812912,3.0,phase_1,,,,,,,,,,,,,magenta,square
0.0,5.0,0.0,0,1.0,1.0,384.334087372,3.0,phase_1,,,,,,,,,,,,,blue,flipped triangle
390.0,4.0,4.0,0,4.0,4.0,400.47287940999996,3.0,phase_1,,,,,,,,,,,,,orange,line
81.0,2.0,2.0,0,2.0,2.0,451.16901397699996,3.0,phase_1,,,,,,,,,,,,,green,cross
224.0,7.0,3.0,0,4.0,4.0,450.531005859,4.0,phase_1,,,,,,,,,,,,,yellow,circle
385.0,4.0,4.0,0,2.0,2.0,367.59018898,4.0,phase_1,,,,,,,,,,,,,orange,line
37.0,1.0,1.0,1,3.0,3.0,551.356077194,4.0,phase_1,,,,,,,,,,,,,white,triangle
383.0,4.0,4.0,0,1.0,1.0,334.582805634,4.0,phase_1,,,,,,,,,,,,,orange,line
0.0,5.0,0.0,0,3.0,3.0,584.5799446110001,4.0,phase_1,,,,,,,,,,,,,blue,flipped triangle
77.0,6.0,2.0,1,4.0,4.0,417.96207427999997,4.0,phase_1,,,,,,,,,,,,,cyan,hexagon
223.0,7.0,3.0,0,2.0,2.0,350.870132446,4.0,phase_1,,,,,,,,,,,,,yellow,circle
0.0,3.0,0.0,1,3.0,3.0,601.087093353,4.0,phase_1,,,,,,,,,,,,,magenta,square
114.0,6.0,2.0,1,3.0,3.0,518.137931824,4.0,phase_1,,,,,,,,,,,,,cyan,hexagon
116.0,2.0,2.0,0,4.0,4.0,451.59602165200005,4.0,phase_1,,,,,,,,,,,,,green,cross
417.0,4.0,4.0,0,2.0,2.0,384.231090546,4.0,phase_1,,,,,,,,,,,,,orange,line
31.0,5.0,1.0,0,3.0,3.0,500.78010559099994,4.0,phase_1,,,,,,,,,,,,,blue,flipped triangle
0.0,1.0,0.0,1,1.0,1.0,384.00888442999997,4.0,phase_1,,,,,,,,,,,,,white,triangle
82.0,6.0,2.0,1,3.0,3.0,568.067073822,4.0,phase_1,,,,,,,,,,,,,cyan,hexagon
186.0,7.0,3.0,0,4.0,4.0,434.25989151,4.0,phase_1,,,,,,,,,,,,,yellow,circle
0.0,5.0,0.0,0,2.0,2.0,567.94500351,4.0,phase_1,,,,,,,,,,,,,blue,flipped triangle
86.0,6.0,2.0,1,4.0,4.0,568.351984024,4.0,phase_1,,,,,,,,,,,,,cyan,hexagon
408.0,4.0,4.0,0,1.0,1.0,467.898130417,4.0,phase_1,,,,,,,,,,,,,orange,line
42.0,1.0,1.0,1,1.0,1.0,550.703048706,4.0,phase_1,,,,,,,,,,,,,white,triangle
0.0,1.0,0.0,1,4.0,4.0,550.9121418000001,4.0,phase_1,,,,,,,,,,,,,white,triangle
412.0,4.0,4.0,0,2.0,2.0,367.579936981,4.0,phase_1,,,,,,,,,,,,,orange,line
61.0,5.0,1.0,0,1.0,1.0,317.626953125,4.0,phase_1,,,,,,,,,,,,,blue,flipped triangle
0.0,5.0,0.0,0,1.0,1.0,501.30009651200004,4.0,phase_1,,,,,,,,,,,,,blue,flipped triangle
70.0,1.0,1.0,1,3.0,3.0,584.427833557,4.0,phase_1,,,,,,,,,,,,,white,triangle
390.0,8.0,4.0,1,1.0,1.0,467.068910599,4.0,phase_1,,,,,,,,,,,,,gray,diamond
94.0,2.0,2.0,0,3.0,3.0,550.900936127,4.0,phase_1,,,,,,,,,,,,,green,cross
27.0,1.0,1.0,1,2.0,2.0,351.15694999699997,4.0,phase_1,,,,,,,,,,,,,white,triangle
51.0,1.0,1.0,1,1.0,1.0,384.180784225,4.0,phase_1,,,,,,,,,,,,,white,triangle
108.0,2.0,2.0,0,1.0,1.0,434.417009354,4.0,phase_1,,,,,,,,,,,,,green,cross
215.0,7.0,3.0,0,4.0,4.0,450.937986374,4.0,phase_1,,,,,,,,,,,,,yellow,circle
0.0,3.0,0.0,1,4.0,4.0,450.760126114,4.0,phase_1,,,,,,,,,,,,,magenta,square
0.0,8.0,0.0,1,3.0,3.0,534.218072891,4.0,phase_1,,,,,,,,,,,,,gray,diamond
396.0,4.0,4.0,0,1.0,1.0,366.98317527800003,4.0,phase_1,,,,,,,,,,,,,orange,line
122.0,2.0,2.0,0,3.0,3.0,584.555149078,4.0,phase_1,,,,,,,,,,,,,green,cross
417.0,8.0,4.0,1,1.0,1.0,467.56005287199997,4.0,phase_1,,,,,,,,,,,,,gray,diamond
179.0,3.0,3.0,1,4.0,4.0,350.577116013,4.0,phase_1,,,,,,,,,,,,,magenta,square
420.0,8.0,4.0,1,3.0,3.0,467.17596054100005,4.0,phase_1,,,,,,,,,,,,,gray,diamond
79.0,2.0,2.0,0,4.0,4.0,401.162147522,4.0,phase_1,,,,,,,,,,,,,green,cross
400.0,8.0,4.0,1,2.0,2.0,617.793798447,4.0,phase_1,,,,,,,,,,,,,gray,diamond
46.0,1.0,1.0,1,3.0,3.0,467.860937119,4.0,phase_1,,,,,,,,,,,,,white,triangle
422.0,4.0,4.0,0,2.0,2.0,350.92997551,4.0,phase_1,,,,,,,,,,,,,orange,line
0.0,7.0,0.0,0,4.0,4.0,417.449951172,4.0,phase_1,,,,,,,,,,,,,yellow,circle
25.0,5.0,1.0,0,3.0,3.0,450.94799995399995,4.0,phase_1,,,,,,,,,,,,,blue,flipped triangle
62.0,1.0,1.0,1,4.0,4.0,400.788068771,4.0,phase_1,,,,,,,,,,,,,white,triangle
85.0,6.0,2.0,1,3.0,3.0,484.494924545,4.0,phase_1,,,,,,,,,,,,,cyan,hexagon
393.0,8.0,4.0,1,4.0,4.0,384.10186767600004,4.0,phase_1,,,,,,,,,,,,,gray,diamond
0.0,6.0,0.0,1,4.0,4.0,551.13697052,4.0,phase_1,,,,,,,,,,,,,cyan,hexagon
0.0,4.0,0.0,0,4.0,4.0,484.40217971799996,4.0,phase_1,,,,,,,,,,,,,orange,line
400.0,4.0,4.0,0,4.0,4.0,400.789022446,4.0,phase_1,,,,,,,,,,,,,orange,line
99.0,6.0,2.0,1,2.0,2.0,484.423875809,4.0,phase_1,,,,,,,,,,,,,cyan,hexagon
0.0,5.0,0.0,0,1.0,1.0,418.098926544,4.0,phase_1,,,,,,,,,,,,,blue,flipped triangle
76.0,6.0,2.0,1,4.0,4.0,417.856931686,4.0,phase_1,,,,,,,,,,,,,cyan,hexagon
0.0,1.0,0.0,1,1.0,1.0,367.37298965499997,4.0,phase_1,,,,,,,,,,,,,white,triangle
111.0,2.0,2.0,0,1.0,1.0,468.333959579,4.0,phase_1,,,,,,,,,,,,,green,cross
93.0,2.0,2.0,0,4.0,4.0,350.99196434000004,4.0,phase_1,,,,,,,,,,,,,green,cross
413.0,4.0,4.0,0,3.0,3.0,517.7829265590001,4.0,phase_1,,,,,,,,,,,,,orange,line
0.0,5.0,0.0,0,2.0,2.0,367.31100082399996,4.0,phase_1,,,,,,,,,,,,,blue,flipped triangle
101.0,2.0,2.0,0,3.0,3.0,434.33380127,4.0,phase_1,,,,,,,,,,,,,green,cross
0.0,2.0,0.0,0,2.0,2.0,417.45710372900004,4.0,phase_1,,,,,,,,,,,,,green,cross
79.0,2.0,2.0,0,4.0,4.0,467.674970627,4.0,phase_1,,,,,,,,,,,,,green,cross
118.0,6.0,2.0,1,2.0,2.0,400.984048843,4.0,phase_1,,,,,,,,,,,,,cyan,hexagon
376.0,4.0,4.0,0,1.0,1.0,351.114988327,4.0,phase_1,,,,,,,,,,,,,orange,line
58.0,5.0,1.0,0,4.0,4.0,451.488018036,4.0,phase_1,,,,,,,,,,,,,blue,flipped triangle
0.0,1.0,0.0,1,3.0,3.0,434.53884124800004,4.0,phase_1,,,,,,,,,,,,,white,triangle
190.0,7.0,3.0,0,3.0,3.0,517.7829265590001,4.0,phase_1,,,,,,,,,,,,,yellow,circle
90.0,2.0,2.0,0,1.0,1.0,450.64902305600003,4.0,phase_1,,,,,,,,,,,,,green,cross
200.0,7.0,3.0,0,3.0,3.0,484.45487022400005,4.0,phase_1,,,,,,,,,,,,,yellow,circle
411.0,4.0,4.0,0,1.0,1.0,417.824029922,4.0,phase_1,,,,,,,,,,,,,orange,line
32.0,5.0,1.0,0,1.0,1.0,384.612083435,4.0,phase_1,,,,,,,,,,,,,blue,flipped triangle
101.0,2.0,2.0,0,4.0,4.0,417.195796967,4.0,phase_1,,,,,,,,,,,,,green,cross
0.0,5.0,0.0,0,1.0,1.0,383.856058121,4.0,phase_1,,,,,,,,,,,,,blue,flipped triangle
394.0,4.0,4.0,0,3.0,3.0,534.369945526,4.0,phase_1,,,,,,,,,,,,,orange,line
375.0,4.0,4.0,0,1.0,1.0,384.363174438,4.0,phase_1,,,,,,,,,,,,,orange,line
105.0,6.0,2.0,1,1.0,1.0,417.718172073,4.0,phase_1,,,,,,,,,,,,,cyan,hexagon
83.0,6.0,2.0,1,3.0,3.0,467.991828918,4.0,phase_1,,,,,,,,,,,,,cyan,hexagon
192.0,3.0,3.0,1,2.0,2.0,367.673873901,4.0,phase_1,,,,,,,,,,,,,magenta,square
104.0,2.0,2.0,0,2.0,2.0,434.333086014,4.0,phase_1,,,,,,,,,,,,,green,cross
117.0,6.0,2.0,1,2.0,2.0,401.235818863,4.0,phase_1,,,,,,,,,,,,,cyan,hexagon
376.0,8.0,4.0,1,3.0,3.0,500.931978226,4.0,phase_1,,,,,,,,,,,,,gray,diamond
396.0,4.0,4.0,0,2.0,2.0,317.518949509,4.0,phase_1,,,,,,,,,,,,,orange,line
198.0,7.0,3.0,0,4.0,4.0,450.757026672,4.0,phase_1,,,,,,,,,,,,,yellow,circle
58.0,1.0,1.0,1,2.0,2.0,450.917005539,4.0,phase_1,,,,,,,,,,,,,white,triangle
39.0,5.0,1.0,0,4.0,4.0,401.300907135,4.0,phase_1,,,,,,,,,,,,,blue,flipped triangle
421.0,4.0,4.0,0,2.0,2.0,417.770862579,4.0,phase_1,,,,,,,,,,,,,orange,line
55.0,5.0,1.0,0,3.0,3.0,584.290027618,4.0,phase_1,,,,,,,,,,,,,blue,flipped triangle
220.0,3.0,3.0,1,3.0,3.0,501.329183578,4.0,phase_1,,,,,,,,,,,,,magenta,square
77.0,6.0,2.0,1,2.0,2.0,384.76800918600003,4.0,phase_1,,,,,,,,,,,,,cyan,hexagon
383.0,8.0,4.0,1,2.0,2.0,351.185798645,4.0,phase_1,,,,,,,,,,,,,gray,diamond
63.0,5.0,1.0,0,4.0,4.0,417.76609420799997,4.0,phase_1,,,,,,,,,,,,,blue,flipped triangle
193.0,7.0,3.0,0,2.0,2.0,350.713014603,4.0,phase_1,,,,,,,,,,,,,yellow,circle
47.0,1.0,1.0,1,1.0,1.0,367.934942245,4.0,phase_1,,,,,,,,,,,,,white,triangle
71.0,1.0,1.0,1,1.0,1.0,384.294986725,4.0,phase_1,,,,,,,,,,,,,white,triangle
0.0,8.0,0.0,1,1.0,1.0,384.191036224,4.0,phase_1,,,,,,,,,,,,,gray,diamond
75.0,6.0,2.0,1,2.0,2.0,334.52320098900003,4.0,phase_1,,,,,,,,,,,,,cyan,hexagon
90.0,2.0,2.0,0,2.0,2.0,401.47399902300003,4.0,phase_1,,,,,,,,,,,,,green,cross
219.0,7.0,3.0,0,2.0,2.0,333.974123001,4.0,phase_1,,,,,,,,,,,,,yellow,circle
0.0,6.0,0.0,1,3.0,3.0,501.05881690999996,4.0,phase_1,,,,,,,,,,,,,cyan,hexagon
219.0,7.0,3.0,0,4.0,4.0,418.49184036300005,4.0,phase_1,,,,,,,,,,,,,yellow,circle
0.0,3.0,0.0,1,2.0,2.0,333.834171295,4.0,phase_1,,,,,,,,,,,,,magenta,square
49.0,5.0,1.0,0,1.0,1.0,400.554180145,4.0,phase_1,,,,,,,,,,,,,blue,flipped triangle
0.0,4.0,4.0,0,5.0,5.0,517.34995842,1.0,phase_2,go,250.0,250.0,1.0,,,,,,,,,orange,line
0.0,2.0,2.0,0,6.0,6.0,451.210975647,1.0,phase_2,go,250.0,250.0,1.0,,,,,,,,,green,cross
0.0,4.0,4.0,0,6.0,6.0,417.260885239,1.0,phase_2,go,250.0,250.0,1.0,,,,,,,,,orange,line
0.0,3.0,3.0,1,5.0,0.0,,1.0,phase_2,stop,250.0,250.0,4.0,,,,,,,,,magenta,square
0.0,8.0,4.0,1,6.0,6.0,300.645112991,1.0,phase_2,stop,250.0,250.0,3.0,,,,,,,,,gray,diamond
0.0,5.0,1.0,0,6.0,6.0,567.555189133,1.0,phase_2,go,250.0,250.0,1.0,,,,,,,,,blue,flipped triangle
0.0,6.0,2.0,1,5.0,0.0,,1.0,phase_2,stop,300.0,250.0,4.0,,,,,,,,,cyan,hexagon
0.0,2.0,2.0,0,5.0,5.0,667.5870418549999,1.0,phase_2,go,300.0,250.0,1.0,,,,,,,,,green,cross
0.0,7.0,3.0,0,5.0,5.0,451.088905334,1.0,phase_2,go,300.0,250.0,1.0,,,,,,,,,yellow,circle
0.0,1.0,1.0,1,5.0,0.0,,1.0,phase_2,stop,350.0,250.0,4.0,,,,,,,,,white,triangle
0.0,6.0,2.0,1,6.0,0.0,,1.0,phase_2,stop,350.0,200.0,4.0,,,,,,,,,cyan,hexagon
0.0,6.0,2.0,1,5.0,5.0,450.613021851,1.0,phase_2,stop,400.0,200.0,3.0,,,,,,,,,cyan,hexagon
0.0,2.0,2.0,0,6.0,6.0,517.5819396969999,1.0,phase_2,go,400.0,200.0,1.0,,,,,,,,,green,cross
0.0,1.0,1.0,1,5.0,5.0,484.356880188,1.0,phase_2,stop,350.0,200.0,3.0,,,,,,,,,white,triangle
0.0,2.0,2.0,0,5.0,5.0,534.1360569,1.0,phase_2,go,350.0,200.0,1.0,,,,,,,,,green,cross
0.0,5.0,1.0,0,5.0,5.0,550.3771305079999,1.0,phase_2,go,350.0,200.0,1.0,,,,,,,,,blue,flipped triangle
0.0,2.0,2.0,0,6.0,6.0,667.8981781010001,1.0,phase_2,go,350.0,200.0,1.0,,,,,,,,,green,cross
0.0,7.0,3.0,0,6.0,6.0,467.344999313,1.0,phase_2,go,350.0,200.0,1.0,,,,,,,,,yellow,circle
0.0,7.0,3.0,0,6.0,6.0,384.10210609399996,1.0,phase_2,go,350.0,200.0,1.0,,,,,,,,,yellow,circle
0.0,5.0,1.0,0,5.0,5.0,401.23295784000004,1.0,phase_2,go,350.0,200.0,1.0,,,,,,,,,blue,flipped triangle
0.0,8.0,4.0,1,6.0,6.0,517.642974854,1.0,phase_2,go,350.0,200.0,1.0,,,,,,,,,gray,diamond
0.0,2.0,2.0,0,6.0,6.0,534.40117836,1.0,phase_2,go,350.0,200.0,1.0,,,,,,,,,green,cross
0.0,2.0,2.0,0,6.0,6.0,384.913921356,1.0,phase_2,go,350.0,200.0,1.0,,,,,,,,,green,cross
0.0,8.0,4.0,1,6.0,0.0,,1.0,phase_2,stop,350.0,250.0,4.0,,,,,,,,,gray,diamond
0.0,2.0,2.0,0,6.0,6.0,534.2881679530001,1.0,phase_2,go,350.0,250.0,1.0,,,,,,,,,green,cross
0.0,4.0,4.0,0,5.0,5.0,517.45390892,1.0,phase_2,go,350.0,250.0,1.0,,,,,,,,,orange,line
0.0,6.0,2.0,1,5.0,0.0,,1.0,phase_2,stop,300.0,250.0,4.0,,,,,,,,,cyan,hexagon
0.0,5.0,1.0,0,5.0,5.0,484.216928482,1.0,phase_2,go,300.0,250.0,1.0,,,,,,,,,blue,flipped triangle
0.0,2.0,2.0,0,6.0,6.0,384.233951569,1.0,phase_2,go,300.0,250.0,1.0,,,,,,,,,green,cross
0.0,8.0,4.0,1,5.0,5.0,451.115846634,1.0,phase_2,stop,350.0,250.0,3.0,,,,,,,,,gray,diamond
0.0,8.0,4.0,1,5.0,0.0,,1.0,phase_2,stop,300.0,250.0,4.0,,,,,,,,,gray,diamond
0.0,1.0,1.0,1,5.0,5.0,483.738183975,1.0,phase_2,stop,350.0,250.0,3.0,,,,,,,,,white,triangle
0.0,3.0,3.0,1,5.0,5.0,567.287921906,1.0,phase_2,go,350.0,250.0,1.0,,,,,,,,,magenta,square
0.0,5.0,1.0,0,6.0,6.0,617.5510883329999,1.0,phase_2,go,350.0,250.0,1.0,,,,,,,,,blue,flipped triangle
0.0,7.0,3.0,0,6.0,6.0,501.18994712800003,1.0,phase_2,go,350.0,250.0,1.0,,,,,,,,,yellow,circle
0.0,4.0,4.0,0,6.0,6.0,417.361974716,1.0,phase_2,go,350.0,250.0,1.0,,,,,,,,,orange,line
0.0,4.0,4.0,0,6.0,6.0,484.675884247,2.0,phase_2,go,350.0,250.0,1.0,,,,,,,,,orange,line
0.0,7.0,3.0,0,5.0,5.0,401.023864746,2.0,phase_2,go,350.0,250.0,1.0,,,,,,,,,yellow,circle
0.0,8.0,4.0,1,5.0,0.0,,2.0,phase_2,stop,300.0,250.0,4.0,,,,,,,,,gray,diamond
0.0,3.0,3.0,1,5.0,5.0,501.152038574,2.0,phase_2,go,300.0,250.0,1.0,,,,,,,,,magenta,square
0.0,6.0,2.0,1,5.0,5.0,467.565059662,2.0,phase_2,stop,350.0,250.0,3.0,,,,,,,,,cyan,hexagon
0.0,1.0,1.0,1,5.0,5.0,467.36788749699997,2.0,phase_2,go,350.0,250.0,1.0,,,,,,,,,white,triangle
0.0,2.0,2.0,0,5.0,5.0,433.891057968,2.0,phase_2,go,350.0,250.0,1.0,,,,,,,,,green,cross
0.0,5.0,1.0,0,5.0,5.0,484.231948853,2.0,phase_2,go,350.0,250.0,1.0,,,,,,,,,blue,flipped triangle
0.0,2.0,2.0,0,6.0,6.0,684.480905533,2.0,phase_2,go,350.0,250.0,1.0,,,,,,,,,green,cross
0.0,4.0,4.0,0,6.0,6.0,434.313058853,2.0,phase_2,go,350.0,250.0,1.0,,,,,,,,,orange,line
0.0,5.0,1.0,0,6.0,6.0,383.7890625,2.0,phase_2,go,350.0,250.0,1.0,,,,,,,,,blue,flipped triangle
0.0,3.0,3.0,1,6.0,6.0,350.805044174,2.0,phase_2,stop,350.0,300.0,3.0,,,,,,,,,magenta,square
0.0,2.0,2.0,0,5.0,5.0,450.802087784,2.0,phase_2,go,350.0,300.0,1.0,,,,,,,,,green,cross
0.0,4.0,4.0,0,6.0,6.0,517.963171005,2.0,phase_2,go,350.0,300.0,1.0,,,,,,,,,orange,line
0.0,8.0,4.0,1,5.0,5.0,484.25388336199995,2.0,phase_2,go,350.0,300.0,1.0,,,,,,,,,gray,diamond
0.0,7.0,3.0,0,6.0,6.0,500.58317184400005,2.0,phase_2,go,350.0,300.0,1.0,,,,,,,,,yellow,circle
0.0,4.0,4.0,0,6.0,6.0,650.875806808,2.0,phase_2,go,350.0,300.0,1.0,,,,,,,,,orange,line
0.0,1.0,1.0,1,6.0,6.0,350.756883621,2.0,phase_2,go,350.0,300.0,1.0,,,,,,,,,white,triangle
0.0,8.0,4.0,1,5.0,0.0,,2.0,phase_2,stop,300.0,300.0,4.0,,,,,,,,,gray,diamond
0.0,2.0,2.0,0,6.0,6.0,634.5031261439999,2.0,phase_2,go,300.0,300.0,1.0,,,,,,,,,green,cross
0.0,4.0,4.0,0,5.0,5.0,634.698152542,2.0,phase_2,go,300.0,300.0,1.0,,,,,,,,,orange,line
0.0,8.0,4.0,1,6.0,0.0,,2.0,phase_2,stop,300.0,250.0,4.0,,,,,,,,,gray,diamond
0.0,3.0,3.0,1,6.0,0.0,,2.0,phase_2,stop,300.0,300.0,4.0,,,,,,,,,magenta,square
0.0,6.0,2.0,1,6.0,0.0,,2.0,phase_2,stop,300.0,350.0,4.0,,,,,,,,,cyan,hexagon
0.0,1.0,1.0,1,6.0,6.0,500.72097778299997,2.0,phase_2,stop,300.0,400.0,3.0,,,,,,,,,white,triangle
0.0,2.0,2.0,0,5.0,5.0,567.86608696,2.0,phase_2,go,300.0,400.0,1.0,,,,,,,,,green,cross
0.0,1.0,1.0,1,6.0,0.0,,2.0,phase_2,stop,300.0,350.0,4.0,,,,,,,,,white,triangle
0.0,2.0,2.0,0,5.0,5.0,550.4078865050001,2.0,phase_2,go,300.0,350.0,1.0,,,,,,,,,green,cross
0.0,7.0,3.0,0,5.0,5.0,751.060009003,2.0,phase_2,go,300.0,350.0,1.0,,,,,,,,,yellow,circle
0.0,1.0,1.0,1,6.0,0.0,,2.0,phase_2,stop,300.0,400.0,4.0,,,,,,,,,white,triangle
0.0,2.0,2.0,0,5.0,5.0,634.818077087,2.0,phase_2,go,300.0,400.0,1.0,,,,,,,,,green,cross
0.0,1.0,1.0,1,5.0,5.0,517.9009437560001,2.0,phase_2,stop,350.0,400.0,3.0,,,,,,,,,white,triangle
0.0,6.0,2.0,1,6.0,6.0,617.532014847,2.0,phase_2,go,350.0,400.0,1.0,,,,,,,,,cyan,hexagon
0.0,6.0,2.0,1,6.0,0.0,,2.0,phase_2,stop,350.0,450.0,4.0,,,,,,,,,cyan,hexagon
0.0,5.0,1.0,0,5.0,5.0,684.5269203189999,2.0,phase_2,go,350.0,450.0,1.0,,,,,,,,,blue,flipped triangle
0.0,3.0,3.0,1,5.0,0.0,,2.0,phase_2,stop,300.0,450.0,4.0,,,,,,,,,magenta,square
0.0,5.0,1.0,0,5.0,5.0,550.889968872,3.0,phase_2,go,300.0,450.0,1.0,,,,,,,,,blue,flipped triangle
0.0,1.0,1.0,1,6.0,6.0,551.901817322,3.0,phase_2,go,300.0,450.0,1.0,,,,,,,,,white,triangle
0.0,8.0,4.0,1,6.0,6.0,501.40810012799994,3.0,phase_2,stop,300.0,500.0,3.0,,,,,,,,,gray,diamond
0.0,2.0,2.0,0,6.0,6.0,601.46689415,3.0,phase_2,go,300.0,500.0,1.0,,,,,,,,,green,cross
0.0,5.0,1.0,0,6.0,6.0,600.607156754,3.0,phase_2,go,300.0,500.0,1.0,,,,,,,,,blue,flipped triangle
0.0,6.0,2.0,1,5.0,0.0,,3.0,phase_2,stop,350.0,500.0,4.0,,,,,,,,,cyan,hexagon
0.0,8.0,4.0,1,6.0,6.0,617.7780628200001,3.0,phase_2,stop,350.0,450.0,3.0,,,,,,,,,gray,diamond
0.0,7.0,3.0,0,5.0,5.0,802.139043808,3.0,phase_2,go,350.0,450.0,1.0,,,,,,,,,yellow,circle
0.0,8.0,4.0,1,6.0,0.0,,3.0,phase_2,stop,350.0,400.0,4.0,,,,,,,,,gray,diamond
0.0,6.0,2.0,1,5.0,0.0,,3.0,phase_2,stop,400.0,400.0,4.0,,,,,,,,,cyan,hexagon
0.0,3.0,3.0,1,5.0,0.0,,3.0,phase_2,stop,450.0,400.0,4.0,,,,,,,,,magenta,square
0.0,1.0,1.0,1,5.0,0.0,,3.0,phase_2,stop,500.0,400.0,4.0,,,,,,,,,white,triangle
0.0,5.0,1.0,0,6.0,6.0,567.9068565370001,3.0,phase_2,go,500.0,400.0,1.0,,,,,,,,,blue,flipped triangle
0.0,8.0,4.0,1,6.0,0.0,,3.0,phase_2,stop,500.0,450.0,4.0,,,,,,,,,gray,diamond
0.0,6.0,2.0,1,6.0,0.0,,3.0,phase_2,stop,500.0,500.0,4.0,,,,,,,,,cyan,hexagon
0.0,5.0,1.0,0,5.0,5.0,768.1000232700001,3.0,phase_2,go,500.0,500.0,1.0,,,,,,,,,blue,flipped triangle
0.0,4.0,4.0,0,5.0,5.0,934.142827988,3.0,phase_2,go,500.0,500.0,1.0,,,,,,,,,orange,line
0.0,7.0,3.0,0,5.0,5.0,617.920875549,3.0,phase_2,go,500.0,500.0,1.0,,,,,,,,,yellow,circle
0.0,1.0,1.0,1,5.0,0.0,,3.0,phase_2,stop,550.0,500.0,4.0,,,,,,,,,white,triangle
0.0,8.0,4.0,1,5.0,5.0,768.12005043,3.0,phase_2,go,550.0,500.0,1.0,,,,,,,,,gray,diamond
0.0,5.0,1.0,0,5.0,5.0,918.1771278379999,3.0,phase_2,go,550.0,500.0,1.0,,,,,,,,,blue,flipped triangle
0.0,6.0,2.0,1,6.0,6.0,717.3330783839999,3.0,phase_2,stop,550.0,550.0,3.0,,,,,,,,,cyan,hexagon
0.0,4.0,4.0,0,6.0,6.0,734.505176544,3.0,phase_2,go,550.0,550.0,1.0,,,,,,,,,orange,line
0.0,5.0,1.0,0,5.0,5.0,567.412137985,3.0,phase_2,go,550.0,550.0,1.0,,,,,,,,,blue,flipped triangle
0.0,3.0,3.0,1,5.0,5.0,700.779914856,3.0,phase_2,stop,600.0,550.0,3.0,,,,,,,,,magenta,square
0.0,5.0,1.0,0,6.0,6.0,801.551103592,3.0,phase_2,go,600.0,550.0,1.0,,,,,,,,,blue,flipped triangle
0.0,3.0,3.0,1,6.0,0.0,,3.0,phase_2,stop,600.0,500.0,4.0,,,,,,,,,magenta,square
0.0,5.0,1.0,0,5.0,5.0,834.419965744,3.0,phase_2,go,600.0,500.0,1.0,,,,,,,,,blue,flipped triangle
0.0,7.0,3.0,0,6.0,6.0,917.9790019989999,3.0,phase_2,go,600.0,500.0,1.0,,,,,,,,,yellow,circle
0.0,4.0,4.0,0,5.0,5.0,801.578044891,3.0,phase_2,go,600.0,500.0,1.0,,,,,,,,,orange,line
0.0,1.0,1.0,1,5.0,5.0,668.385028839,3.0,phase_2,stop,550.0,500.0,3.0,,,,,,,,,white,triangle
0.0,5.0,1.0,0,6.0,6.0,751.1260509489999,3.0,phase_2,go,550.0,500.0,1.0,,,,,,,,,blue,flipped triangle
0.0,4.0,4.0,0,6.0,6.0,768.0029869079999,3.0,phase_2,go,550.0,500.0,1.0,,,,,,,,,orange,line
0.0,8.0,4.0,1,5.0,0.0,,3.0,phase_2,stop,500.0,500.0,4.0,,,,,,,,,gray,diamond
0.0,5.0,1.0,0,6.0,0.0,,3.0,phase_2,go,500.0,500.0,5.0,,,,,,,,,blue,flipped triangle
0.0,6.0,2.0,1,6.0,6.0,884.806871414,3.0,phase_2,go,500.0,500.0,1.0,,,,,,,,,cyan,hexagon
0.0,6.0,2.0,1,6.0,6.0,417.63281822199997,4.0,phase_2,go,500.0,500.0,1.0,,,,,,,,,cyan,hexagon
0.0,4.0,4.0,0,5.0,5.0,567.667007446,4.0,phase_2,go,500.0,500.0,1.0,,,,,,,,,orange,line
0.0,4.0,4.0,0,6.0,6.0,517.793178558,4.0,phase_2,go,500.0,500.0,1.0,,,,,,,,,orange,line
0.0,7.0,3.0,0,6.0,6.0,466.845035553,4.0,phase_2,go,500.0,500.0,1.0,,,,,,,,,yellow,circle
0.0,5.0,1.0,0,5.0,5.0,601.027011871,4.0,phase_2,go,500.0,500.0,1.0,,,,,,,,,blue,flipped triangle
0.0,7.0,3.0,0,5.0,5.0,600.785970688,4.0,phase_2,go,500.0,500.0,1.0,,,,,,,,,yellow,circle
0.0,3.0,3.0,1,6.0,6.0,500.894069672,4.0,phase_2,go,500.0,500.0,1.0,,,,,,,,,magenta,square
0.0,1.0,1.0,1,5.0,5.0,434.073209763,4.0,phase_2,stop,550.0,500.0,3.0,,,,,,,,,white,triangle
0.0,4.0,4.0,0,6.0,6.0,584.197044373,4.0,phase_2,go,550.0,500.0,1.0,,,,,,,,,orange,line
0.0,8.0,4.0,1,5.0,5.0,634.749889374,4.0,phase_2,stop,500.0,500.0,3.0,,,,,,,,,gray,diamond
0.0,6.0,2.0,1,6.0,0.0,,4.0,phase_2,stop,500.0,550.0,4.0,,,,,,,,,cyan,hexagon
0.0,1.0,1.0,1,5.0,0.0,,4.0,phase_2,stop,450.0,550.0,4.0,,,,,,,,,white,triangle
0.0,3.0,3.0,1,6.0,6.0,501.28316879299996,4.0,phase_2,stop,450.0,600.0,3.0,,,,,,,,,magenta,square
0.0,7.0,3.0,0,6.0,6.0,433.861970901,4.0,phase_2,go,450.0,600.0,1.0,,,,,,,,,yellow,circle
0.0,7.0,3.0,0,5.0,5.0,617.954015732,4.0,phase_2,go,450.0,600.0,1.0,,,,,,,,,yellow,circle
0.0,8.0,4.0,1,5.0,5.0,517.8880691530001,4.0,phase_2,stop,500.0,600.0,3.0,,,,,,,,,gray,diamond
0.0,1.0,1.0,1,6.0,6.0,651.13902092,4.0,phase_2,stop,500.0,550.0,3.0,,,,,,,,,white,triangle
0.0,1.0,1.0,1,5.0,5.0,767.943143845,4.0,phase_2,go,500.0,550.0,1.0,,,,,,,,,white,triangle
0.0,6.0,2.0,1,6.0,6.0,501.08385086100003,4.0,phase_2,go,500.0,550.0,1.0,,,,,,,,,cyan,hexagon
0.0,4.0,4.0,0,6.0,6.0,651.197195053,4.0,phase_2,go,500.0,550.0,1.0,,,,,,,,,orange,line
0.0,4.0,4.0,0,5.0,5.0,700.976848602,4.0,phase_2,go,500.0,550.0,1.0,,,,,,,,,orange,line
0.0,2.0,2.0,0,6.0,6.0,767.759084702,4.0,phase_2,go,500.0,550.0,1.0,,,,,,,,,green,cross
0.0,2.0,2.0,0,6.0,6.0,484.061002731,4.0,phase_2,go,500.0,550.0,1.0,,,,,,,,,green,cross
0.0,7.0,3.0,0,6.0,6.0,600.888967514,4.0,phase_2,go,500.0,550.0,1.0,,,,,,,,,yellow,circle
0.0,3.0,3.0,1,5.0,0.0,,4.0,phase_2,stop,450.0,550.0,4.0,,,,,,,,,magenta,square
0.0,3.0,3.0,1,6.0,6.0,584.7399234769999,4.0,phase_2,stop,450.0,500.0,3.0,,,,,,,,,magenta,square
0.0,1.0,1.0,1,5.0,0.0,,4.0,phase_2,stop,500.0,500.0,4.0,,,,,,,,,white,triangle
0.0,3.0,3.0,1,5.0,0.0,,4.0,phase_2,stop,550.0,500.0,4.0,,,,,,,,,magenta,square
0.0,7.0,3.0,0,5.0,5.0,835.081100464,4.0,phase_2,go,550.0,500.0,1.0,,,,,,,,,yellow,circle
0.0,6.0,2.0,1,6.0,6.0,434.25321578999996,4.0,phase_2,stop,550.0,450.0,3.0,,,,,,,,,cyan,hexagon
0.0,5.0,1.0,0,5.0,5.0,667.746067047,4.0,phase_2,go,550.0,450.0,1.0,,,,,,,,,blue,flipped triangle
0.0,2.0,2.0,0,5.0,5.0,601.6709804530001,4.0,phase_2,go,550.0,450.0,1.0,,,,,,,,,green,cross
0.0,2.0,2.0,0,5.0,5.0,517.2169208529999,4.0,phase_2,go,550.0,450.0,1.0,,,,,,,,,green,cross
0.0,8.0,4.0,1,5.0,5.0,450.800895691,4.0,phase_2,stop,600.0,450.0,3.0,,,,,,,,,gray,diamond
0.0,3.0,3.0,1,6.0,6.0,650.783061981,4.0,phase_2,go,600.0,450.0,1.0,,,,,,,,,magenta,square
0.0,7.0,3.0,0,6.0,6.0,651.093959808,4.0,phase_2,go,600.0,450.0,1.0,,,,,,,,,yellow,circle
0.0,5.0,1.0,0,5.0,5.0,451.138019562,5.0,phase_2,go,600.0,450.0,1.0,,,,,,,,,blue,flipped triangle
0.0,8.0,4.0,1,5.0,5.0,484.72213745100004,5.0,phase_2,stop,550.0,450.0,3.0,,,,,,,,,gray,diamond
0.0,8.0,4.0,1,5.0,5.0,417.458772659,5.0,phase_2,go,550.0,450.0,1.0,,,,,,,,,gray,diamond
0.0,2.0,2.0,0,6.0,6.0,667.984008789,5.0,phase_2,go,550.0,450.0,1.0,,,,,,,,,green,cross
0.0,4.0,4.0,0,6.0,6.0,533.749818802,5.0,phase_2,go,550.0,450.0,1.0,,,,,,,,,orange,line
0.0,7.0,3.0,0,5.0,5.0,667.5651073460001,5.0,phase_2,go,550.0,450.0,1.0,,,,,,,,,yellow,circle
0.0,7.0,3.0,0,6.0,6.0,500.844955444,5.0,phase_2,go,550.0,450.0,1.0,,,,,,,,,yellow,circle
0.0,4.0,4.0,0,5.0,5.0,517.717123032,5.0,phase_2,go,550.0,450.0,1.0,,,,,,,,,orange,line
0.0,6.0,2.0,1,5.0,5.0,684.8652362820001,5.0,phase_2,go,550.0,450.0,1.0,,,,,,,,,cyan,hexagon
0.0,6.0,2.0,1,5.0,5.0,650.9959697720001,5.0,phase_2,stop,500.0,450.0,3.0,,,,,,,,,cyan,hexagon
0.0,4.0,4.0,0,6.0,6.0,751.18803978,5.0,phase_2,go,500.0,450.0,1.0,,,,,,,,,orange,line
0.0,2.0,2.0,0,5.0,5.0,467.865943909,5.0,phase_2,go,500.0,450.0,1.0,,,,,,,,,green,cross
0.0,5.0,1.0,0,5.0,5.0,684.3030452730001,5.0,phase_2,go,500.0,450.0,1.0,,,,,,,,,blue,flipped triangle
0.0,7.0,3.0,0,6.0,6.0,634.916067123,5.0,phase_2,go,500.0,450.0,1.0,,,,,,,,,yellow,circle
0.0,3.0,3.0,1,5.0,0.0,,5.0,phase_2,stop,450.0,450.0,4.0,,,,,,,,,magenta,square
0.0,2.0,2.0,0,6.0,6.0,400.851964951,5.0,phase_2,go,450.0,450.0,1.0,,,,,,,,,green,cross
0.0,1.0,1.0,1,6.0,0.0,,5.0,phase_2,stop,450.0,400.0,4.0,,,,,,,,,white,triangle
0.0,8.0,4.0,1,6.0,0.0,,5.0,phase_2,stop,450.0,450.0,4.0,,,,,,,,,gray,diamond
0.0,6.0,2.0,1,6.0,6.0,651.200056076,5.0,phase_2,stop,450.0,500.0,3.0,,,,,,,,,cyan,hexagon
0.0,6.0,2.0,1,6.0,6.0,834.4769477839999,5.0,phase_2,go,450.0,500.0,1.0,,,,,,,,,cyan,hexagon
0.0,1.0,1.0,1,5.0,0.0,,5.0,phase_2,stop,500.0,500.0,4.0,,,,,,,,,white,triangle
0.0,7.0,3.0,0,6.0,6.0,834.7001075740001,5.0,phase_2,go,500.0,500.0,1.0,,,,,,,,,yellow,circle
0.0,8.0,4.0,1,6.0,0.0,,5.0,phase_2,stop,500.0,450.0,4.0,,,,,,,,,gray,diamond
0.0,5.0,1.0,0,6.0,6.0,784.7688198090001,5.0,phase_2,go,500.0,450.0,1.0,,,,,,,,,blue,flipped triangle
0.0,4.0,4.0,0,6.0,6.0,734.367132187,5.0,phase_2,go,500.0,450.0,1.0,,,,,,,,,orange,line
0.0,2.0,2.0,0,5.0,5.0,717.736959457,5.0,phase_2,go,500.0,450.0,1.0,,,,,,,,,green,cross
0.0,6.0,2.0,1,5.0,0.0,,5.0,phase_2,stop,550.0,450.0,4.0,,,,,,,,,cyan,hexagon
0.0,5.0,1.0,0,5.0,5.0,900.9661674500001,5.0,phase_2,go,550.0,450.0,1.0,,,,,,,,,blue,flipped triangle
0.0,3.0,3.0,1,6.0,0.0,,5.0,phase_2,stop,550.0,500.0,4.0,,,,,,,,,magenta,square
0.0,2.0,2.0,0,5.0,5.0,684.145927429,5.0,phase_2,go,550.0,500.0,1.0,,,,,,,,,green,cross
0.0,4.0,4.0,0,6.0,6.0,684.3581199649999,5.0,phase_2,go,550.0,500.0,1.0,,,,,,,,,orange,line
0.0,3.0,3.0,1,5.0,5.0,751.264810562,5.0,phase_2,go,550.0,500.0,1.0,,,,,,,,,magenta,square
0.0,8.0,4.0,1,5.0,0.0,,5.0,phase_2,stop,600.0,500.0,4.0,,,,,,,,,gray,diamond
0.0,1.0,1.0,1,6.0,0.0,,5.0,phase_2,stop,600.0,550.0,4.0,,,,,,,,,white,triangle
0.0,4.0,4.0,0,5.0,0.0,,5.0,phase_2,go,600.0,550.0,5.0,,,,,,,,,orange,line
0.0,7.0,3.0,0,6.0,0.0,,5.0,phase_2,go,600.0,550.0,5.0,,,,,,,,,yellow,circle
0.0,7.0,3.0,0,5.0,5.0,400.997877121,6.0,phase_2,go,600.0,550.0,1.0,,,,,,,,,yellow,circle
0.0,3.0,3.0,1,5.0,5.0,617.767810822,6.0,phase_2,stop,650.0,550.0,3.0,,,,,,,,,magenta,square
0.0,6.0,2.0,1,5.0,5.0,751.27696991,6.0,phase_2,go,650.0,550.0,1.0,,,,,,,,,cyan,hexagon
0.0,1.0,1.0,1,6.0,6.0,650.861978531,6.0,phase_2,go,650.0,550.0,1.0,,,,,,,,,white,triangle
0.0,6.0,2.0,1,5.0,5.0,651.304960251,6.0,phase_2,stop,600.0,550.0,3.0,,,,,,,,,cyan,hexagon
0.0,5.0,1.0,0,6.0,6.0,718.151807785,6.0,phase_2,go,600.0,550.0,1.0,,,,,,,,,blue,flipped triangle
0.0,8.0,4.0,1,6.0,6.0,667.496204376,6.0,phase_2,stop,600.0,600.0,3.0,,,,,,,,,gray,diamond
0.0,5.0,1.0,0,5.0,5.0,417.72699356100003,6.0,phase_2,go,600.0,600.0,1.0,,,,,,,,,blue,flipped triangle
0.0,3.0,3.0,1,5.0,0.0,,6.0,phase_2,stop,550.0,600.0,4.0,,,,,,,,,magenta,square
0.0,8.0,4.0,1,5.0,5.0,801.357984543,6.0,phase_2,go,550.0,600.0,1.0,,,,,,,,,gray,diamond
0.0,3.0,3.0,1,5.0,5.0,634.009122849,6.0,phase_2,stop,600.0,600.0,3.0,,,,,,,,,magenta,square
0.0,6.0,2.0,1,6.0,6.0,451.097011566,6.0,phase_2,stop,600.0,550.0,3.0,,,,,,,,,cyan,hexagon
0.0,7.0,3.0,0,6.0,6.0,801.0289669040001,6.0,phase_2,go,600.0,550.0,1.0,,,,,,,,,yellow,circle
0.0,2.0,2.0,0,5.0,5.0,734.618902206,6.0,phase_2,go,600.0,550.0,1.0,,,,,,,,,green,cross
0.0,6.0,2.0,1,6.0,6.0,433.872938156,6.0,phase_2,stop,600.0,500.0,3.0,,,,,,,,,cyan,hexagon
0.0,5.0,1.0,0,6.0,6.0,684.9520206450001,6.0,phase_2,go,600.0,500.0,1.0,,,,,,,,,blue,flipped triangle
0.0,4.0,4.0,0,5.0,5.0,534.214019775,6.0,phase_2,go,600.0,500.0,1.0,,,,,,,,,orange,line
0.0,1.0,1.0,1,5.0,5.0,701.5769481660001,6.0,phase_2,stop,550.0,500.0,3.0,,,,,,,,,white,triangle
0.0,8.0,4.0,1,6.0,6.0,551.052808762,6.0,phase_2,stop,550.0,450.0,3.0,,,,,,,,,gray,diamond
0.0,2.0,2.0,0,6.0,6.0,717.581033707,6.0,phase_2,go,550.0,450.0,1.0,,,,,,,,,green,cross
0.0,3.0,3.0,1,6.0,6.0,383.65411758399995,6.0,phase_2,stop,550.0,400.0,3.0,,,,,,,,,magenta,square
0.0,7.0,3.0,0,6.0,6.0,467.153072357,6.0,phase_2,go,550.0,400.0,1.0,,,,,,,,,yellow,circle
0.0,6.0,2.0,1,6.0,0.0,,6.0,phase_2,stop,550.0,350.0,4.0,,,,,,,,,cyan,hexagon
0.0,6.0,2.0,1,5.0,5.0,600.859880447,6.0,phase_2,stop,500.0,350.0,3.0,,,,,,,,,cyan,hexagon
0.0,2.0,2.0,0,5.0,5.0,684.191942215,6.0,phase_2,go,500.0,350.0,1.0,,,,,,,,,green,cross
0.0,7.0,3.0,0,6.0,6.0,834.621906281,6.0,phase_2,go,500.0,350.0,1.0,,,,,,,,,yellow,circle
0.0,1.0,1.0,1,6.0,6.0,467.385053635,6.0,phase_2,go,500.0,350.0,1.0,,,,,,,,,white,triangle
0.0,7.0,3.0,0,5.0,5.0,684.947013855,6.0,phase_2,go,500.0,350.0,1.0,,,,,,,,,yellow,circle
0.0,4.0,4.0,0,5.0,5.0,551.608085632,6.0,phase_2,go,500.0,350.0,1.0,,,,,,,,,orange,line
0.0,1.0,1.0,1,6.0,0.0,,6.0,phase_2,stop,500.0,400.0,4.0,,,,,,,,,white,triangle
0.0,2.0,2.0,0,6.0,6.0,617.84696579,6.0,phase_2,go,500.0,400.0,1.0,,,,,,,,,green,cross
0.0,1.0,1.0,1,5.0,0.0,,6.0,phase_2,stop,450.0,400.0,4.0,,,,,,,,,white,triangle
0.0,3.0,3.0,1,5.0,5.0,433.929920197,6.0,phase_2,stop,500.0,400.0,3.0,,,,,,,,,magenta,square
0.0,7.0,3.0,0,6.0,6.0,400.927066803,6.0,phase_2,go,500.0,400.0,1.0,,,,,,,,,yellow,circle
0.0,1.0,1.0,1,5.0,0.0,,6.0,phase_2,stop,450.0,400.0,4.0,,,,,,,,,white,triangle
0.0,2.0,2.0,0,6.0,6.0,701.580047607,6.0,phase_2,go,450.0,400.0,1.0,,,,,,,,,green,cross
0.0,4.0,4.0,0,5.0,5.0,450.731992722,7.0,phase_2,go,450.0,400.0,1.0,,,,,,,,,orange,line
0.0,5.0,1.0,0,5.0,5.0,700.839996338,7.0,phase_2,go,450.0,400.0,1.0,,,,,,,,,blue,flipped triangle
0.0,6.0,2.0,1,5.0,5.0,501.37114524799995,7.0,phase_2,stop,500.0,400.0,3.0,,,,,,,,,cyan,hexagon
0.0,1.0,1.0,1,6.0,6.0,600.997924805,7.0,phase_2,stop,500.0,450.0,3.0,,,,,,,,,white,triangle
0.0,4.0,4.0,0,5.0,5.0,667.828083038,7.0,phase_2,go,500.0,450.0,1.0,,,,,,,,,orange,line
0.0,2.0,2.0,0,5.0,5.0,467.641115189,7.0,phase_2,go,500.0,450.0,1.0,,,,,,,,,green,cross
0.0,4.0,4.0,0,6.0,6.0,668.351173401,7.0,phase_2,go,500.0,450.0,1.0,,,,,,,,,orange,line
0.0,6.0,2.0,1,6.0,0.0,,7.0,phase_2,stop,500.0,400.0,4.0,,,,,,,,,cyan,hexagon
0.0,3.0,3.0,1,6.0,6.0,751.722812653,7.0,phase_2,go,500.0,400.0,1.0,,,,,,,,,magenta,square
0.0,7.0,3.0,0,6.0,6.0,584.7558975219999,7.0,phase_2,go,500.0,400.0,1.0,,,,,,,,,yellow,circle
0.0,1.0,1.0,1,5.0,5.0,600.848913193,7.0,phase_2,go,500.0,400.0,1.0,,,,,,,,,white,triangle
0.0,3.0,3.0,1,6.0,6.0,434.428215027,7.0,phase_2,go,500.0,400.0,1.0,,,,,,,,,magenta,square
0.0,6.0,2.0,1,6.0,6.0,434.60488319399997,7.0,phase_2,go,500.0,400.0,1.0,,,,,,,,,cyan,hexagon
0.0,3.0,3.0,1,5.0,5.0,484.586954117,7.0,phase_2,stop,450.0,400.0,3.0,,,,,,,,,magenta,square
0.0,5.0,1.0,0,5.0,5.0,784.3170166020001,7.0,phase_2,go,450.0,400.0,1.0,,,,,,,,,blue,flipped triangle
0.0,1.0,1.0,1,5.0,5.0,818.2570934299999,7.0,phase_2,go,450.0,400.0,1.0,,,,,,,,,white,triangle
0.0,7.0,3.0,0,5.0,5.0,801.373004913,7.0,phase_2,go,450.0,400.0,1.0,,,,,,,,,yellow,circle
0.0,3.0,3.0,1,5.0,0.0,,7.0,phase_2,stop,400.0,400.0,4.0,,,,,,,,,magenta,square
0.0,5.0,1.0,0,6.0,6.0,517.488002777,7.0,phase_2,go,400.0,400.0,1.0,,,,,,,,,blue,flipped triangle
0.0,4.0,4.0,0,5.0,5.0,817.8141117099999,7.0,phase_2,go,400.0,400.0,1.0,,,,,,,,,orange,line
0.0,5.0,1.0,0,5.0,5.0,534.27195549,7.0,phase_2,go,400.0,400.0,1.0,,,,,,,,,blue,flipped triangle
0.0,2.0,2.0,0,6.0,6.0,768.3207988739999,7.0,phase_2,go,400.0,400.0,1.0,,,,,,,,,green,cross
0.0,8.0,4.0,1,6.0,6.0,701.3318538670001,7.0,phase_2,go,400.0,400.0,1.0,,,,,,,,,gray,diamond
0.0,7.0,3.0,0,6.0,0.0,,7.0,phase_2,go,400.0,400.0,5.0,,,,,,,,,yellow,circle
0.0,5.0,1.0,0,5.0,5.0,734.611988068,7.0,phase_2,go,400.0,400.0,1.0,,,,,,,,,blue,flipped triangle
0.0,5.0,1.0,0,6.0,6.0,401.13401412999997,7.0,phase_2,go,400.0,400.0,1.0,,,,,,,,,blue,flipped triangle
0.0,6.0,2.0,1,6.0,6.0,367.62905120799996,7.0,phase_2,stop,400.0,450.0,3.0,,,,,,,,,cyan,hexagon
0.0,4.0,4.0,0,6.0,6.0,584.1500759119999,7.0,phase_2,go,400.0,450.0,1.0,,,,,,,,,orange,line
0.0,3.0,3.0,1,6.0,0.0,,7.0,phase_2,stop,400.0,400.0,4.0,,,,,,,,,magenta,square
0.0,7.0,3.0,0,5.0,5.0,701.557159424,7.0,phase_2,go,400.0,400.0,1.0,,,,,,,,,yellow,circle
0.0,8.0,4.0,1,6.0,6.0,684.066057205,7.0,phase_2,go,400.0,400.0,1.0,,,,,,,,,gray,diamond
0.0,3.0,3.0,1,6.0,6.0,701.668024063,7.0,phase_2,go,400.0,400.0,1.0,,,,,,,,,magenta,square
0.0,1.0,1.0,1,5.0,5.0,785.4490280150001,7.0,phase_2,go,400.0,400.0,1.0,,,,,,,,,white,triangle
0.0,3.0,3.0,1,5.0,5.0,551.394939423,7.0,phase_2,stop,450.0,400.0,3.0,,,,,,,,,magenta,square
0.0,4.0,4.0,0,5.0,5.0,784.43813324,7.0,phase_2,go,450.0,400.0,1.0,,,,,,,,,orange,line
0.0,6.0,2.0,1,6.0,0.0,,7.0,phase_2,stop,450.0,450.0,4.0,,,,,,,,,cyan,hexagon
0.0,8.0,4.0,1,5.0,5.0,467.90003776599997,8.0,phase_2,stop,400.0,450.0,3.0,,,,,,,,,gray,diamond
0.0,6.0,2.0,1,6.0,6.0,434.73911285400004,8.0,phase_2,stop,400.0,500.0,3.0,,,,,,,,,cyan,hexagon
0.0,5.0,1.0,0,5.0,5.0,818.211078644,8.0,phase_2,go,400.0,500.0,1.0,,,,,,,,,blue,flipped triangle
0.0,6.0,2.0,1,5.0,5.0,434.001922607,8.0,phase_2,stop,350.0,500.0,3.0,,,,,,,,,cyan,hexagon
0.0,4.0,4.0,0,5.0,5.0,651.003837585,8.0,phase_2,go,350.0,500.0,1.0,,,,,,,,,orange,line
0.0,3.0,3.0,1,6.0,6.0,584.028959274,8.0,phase_2,stop,350.0,450.0,3.0,,,,,,,,,magenta,square
0.0,8.0,4.0,1,6.0,0.0,,8.0,phase_2,stop,350.0,400.0,4.0,,,,,,,,,gray,diamond
0.0,1.0,1.0,1,6.0,0.0,,8.0,phase_2,stop,350.0,450.0,4.0,,,,,,,,,white,triangle
0.0,6.0,2.0,1,6.0,6.0,751.249074936,8.0,phase_2,go,350.0,450.0,1.0,,,,,,,,,cyan,hexagon
0.0,8.0,4.0,1,5.0,0.0,,8.0,phase_2,stop,300.0,450.0,4.0,,,,,,,,,gray,diamond
0.0,7.0,3.0,0,5.0,5.0,484.683990479,8.0,phase_2,go,300.0,450.0,1.0,,,,,,,,,yellow,circle
0.0,5.0,1.0,0,6.0,6.0,684.682130814,8.0,phase_2,go,300.0,450.0,1.0,,,,,,,,,blue,flipped triangle
0.0,1.0,1.0,1,5.0,0.0,,8.0,phase_2,stop,350.0,450.0,4.0,,,,,,,,,white,triangle
0.0,1.0,1.0,1,5.0,0.0,,8.0,phase_2,stop,400.0,450.0,4.0,,,,,,,,,white,triangle
0.0,3.0,3.0,1,6.0,0.0,,8.0,phase_2,stop,400.0,500.0,4.0,,,,,,,,,magenta,square
0.0,3.0,3.0,1,5.0,0.0,,8.0,phase_2,stop,450.0,500.0,4.0,,,,,,,,,magenta,square
0.0,2.0,2.0,0,5.0,5.0,534.133911133,8.0,phase_2,go,450.0,500.0,1.0,,,,,,,,,green,cross
0.0,7.0,3.0,0,5.0,5.0,667.9489612579999,8.0,phase_2,go,450.0,500.0,1.0,,,,,,,,,yellow,circle
0.0,7.0,3.0,0,5.0,5.0,734.8539829250001,8.0,phase_2,go,450.0,500.0,1.0,,,,,,,,,yellow,circle
0.0,1.0,1.0,1,6.0,6.0,351.36795043899997,8.0,phase_2,stop,450.0,550.0,3.0,,,,,,,,,white,triangle
0.0,2.0,2.0,0,6.0,6.0,684.6210956570001,8.0,phase_2,go,450.0,550.0,1.0,,,,,,,,,green,cross
0.0,8.0,4.0,1,6.0,6.0,551.125049591,8.0,phase_2,go,450.0,550.0,1.0,,,,,,,,,gray,diamond
0.0,4.0,4.0,0,6.0,6.0,550.958156586,8.0,phase_2,go,450.0,550.0,1.0,,,,,,,,,orange,line
0.0,8.0,4.0,1,6.0,6.0,651.2529850010001,8.0,phase_2,stop,450.0,500.0,3.0,,,,,,,,,gray,diamond
0.0,7.0,3.0,0,6.0,6.0,650.838851929,8.0,phase_2,go,450.0,500.0,1.0,,,,,,,,,yellow,circle
0.0,3.0,3.0,1,6.0,0.0,,8.0,phase_2,stop,450.0,450.0,4.0,,,,,,,,,magenta,square
0.0,3.0,3.0,1,5.0,0.0,,8.0,phase_2,stop,500.0,450.0,4.0,,,,,,,,,magenta,square
0.0,8.0,4.0,1,5.0,5.0,801.342010498,8.0,phase_2,go,500.0,450.0,1.0,,,,,,,,,gray,diamond
0.0,3.0,3.0,1,6.0,6.0,767.951011658,8.0,phase_2,go,500.0,450.0,1.0,,,,,,,,,magenta,square
0.0,2.0,2.0,0,5.0,5.0,700.964927673,8.0,phase_2,go,500.0,450.0,1.0,,,,,,,,,green,cross
0.0,4.0,4.0,0,5.0,5.0,767.729043961,8.0,phase_2,go,500.0,450.0,1.0,,,,,,,,,orange,line
0.0,5.0,1.0,0,5.0,5.0,834.7349166869999,8.0,phase_2,go,500.0,450.0,1.0,,,,,,,,,blue,flipped triangle
0.0,1.0,1.0,1,6.0,6.0,434.046983719,8.0,phase_2,stop,500.0,500.0,3.0,,,,,,,,,white,triangle
0.0,8.0,4.0,1,5.0,0.0,,8.0,phase_2,stop,550.0,500.0,4.0,,,,,,,,,gray,diamond
0.0,8.0,4.0,1,6.0,0.0,,8.0,phase_2,stop,550.0,450.0,4.0,,,,,,,,,gray,diamond
0.0,4.0,4.0,0,6.0,6.0,767.549991608,8.0,phase_2,go,550.0,450.0,1.0,,,,,,,,,orange,line
0.0,2.0,2.0,0,7.0,,,1.0,phase_3,,,,,0.0,,245.0,147.0,196.0,98.0,49.0,294.0,green,cross
0.0,4.0,4.0,0,7.0,3.0,1418.7541008,1.0,phase_3,,,,,102.0,3.0,34.0,68.0,102.0,136.0,204.0,170.0,orange,line
0.0,6.0,2.0,1,7.0,4.0,1418.34402084,1.0,phase_3,,,,,245.0,5.0,147.0,98.0,294.0,245.0,49.0,196.0,cyan,hexagon
0.0,6.0,2.0,1,7.0,2.0,1468.83201599,1.0,phase_3,,,,,88.0,2.0,44.0,88.0,264.0,132.0,176.0,220.0,cyan,hexagon
0.0,1.0,1.0,1,7.0,5.0,1134.64307785,1.0,phase_3,,,,,162.0,3.0,270.0,54.0,324.0,108.0,162.0,216.0,white,triangle
0.0,5.0,1.0,0,7.0,6.0,1118.17502975,1.0,phase_3,,,,,78.0,2.0,117.0,195.0,39.0,234.0,156.0,78.0,blue,flipped triangle
0.0,8.0,4.0,1,7.0,2.0,1201.46584511,1.0,phase_3,,,,,220.0,5.0,88.0,220.0,176.0,264.0,132.0,44.0,gray,diamond
0.0,8.0,4.0,1,7.0,1.0,683.817863464,1.0,phase_3,,,,,132.0,3.0,132.0,220.0,88.0,264.0,44.0,176.0,gray,diamond
0.0,8.0,4.0,1,7.0,5.0,1085.05797386,1.0,phase_3,,,,,98.0,2.0,245.0,196.0,49.0,294.0,98.0,147.0,gray,diamond
0.0,5.0,1.0,0,7.0,4.0,1134.45901871,1.0,phase_3,,,,,176.0,4.0,264.0,88.0,132.0,176.0,220.0,44.0,blue,flipped triangle
0.0,3.0,3.0,1,7.0,3.0,2836.9920253799996,1.0,phase_3,,,,,270.0,5.0,162.0,54.0,270.0,108.0,216.0,324.0,magenta,square
0.0,4.0,4.0,0,7.0,4.0,1135.00189781,1.0,phase_3,,,,,108.0,2.0,216.0,54.0,162.0,108.0,324.0,270.0,orange,line
0.0,3.0,3.0,1,7.0,6.0,1101.1199951199999,1.0,phase_3,,,,,34.0,1.0,170.0,136.0,102.0,68.0,204.0,34.0,magenta,square
0.0,5.0,1.0,0,7.0,1.0,1084.2769146,1.0,phase_3,,,,,78.0,2.0,78.0,195.0,234.0,39.0,117.0,156.0,blue,flipped triangle
0.0,8.0,4.0,1,7.0,3.0,984.805107117,1.0,phase_3,,,,,170.0,5.0,204.0,136.0,170.0,102.0,34.0,68.0,gray,diamond
0.0,2.0,2.0,0,7.0,4.0,901.577949524,1.0,phase_3,,,,,245.0,5.0,147.0,98.0,294.0,245.0,196.0,49.0,green,cross
0.0,5.0,1.0,0,7.0,5.0,984.7860336299999,1.0,phase_3,,,,,54.0,1.0,216.0,324.0,162.0,270.0,54.0,108.0,blue,flipped triangle
0.0,2.0,2.0,0,7.0,2.0,1017.95196533,1.0,phase_3,,,,,220.0,5.0,176.0,220.0,44.0,264.0,132.0,88.0,green,cross
0.0,2.0,2.0,0,7.0,4.0,1101.19795799,1.0,phase_3,,,,,68.0,2.0,34.0,136.0,102.0,68.0,170.0,204.0,green,cross
0.0,2.0,2.0,0,7.0,1.0,1251.52301788,1.0,phase_3,,,,,195.0,5.0,195.0,39.0,78.0,117.0,234.0,156.0,green,cross
0.0,5.0,1.0,0,7.0,4.0,1084.85293388,2.0,phase_3,,,,,34.0,1.0,170.0,136.0,102.0,34.0,68.0,204.0,blue,flipped triangle
0.0,1.0,1.0,1,7.0,5.0,1217.5979614300002,2.0,phase_3,,,,,245.0,5.0,49.0,98.0,294.0,147.0,245.0,196.0,white,triangle
0.0,7.0,3.0,0,7.0,3.0,1001.51205063,2.0,phase_3,,,,,170.0,5.0,102.0,204.0,170.0,34.0,136.0,68.0,yellow,circle
0.0,4.0,4.0,0,7.0,1.0,1234.71617699,2.0,phase_3,,,,,294.0,6.0,294.0,196.0,98.0,245.0,147.0,49.0,orange,line
0.0,7.0,3.0,0,7.0,5.0,1000.79989433,2.0,phase_3,,,,,39.0,1.0,117.0,156.0,234.0,78.0,39.0,195.0,yellow,circle
0.0,6.0,2.0,1,7.0,4.0,1084.4841003400002,2.0,phase_3,,,,,102.0,3.0,170.0,136.0,34.0,102.0,204.0,68.0,cyan,hexagon
0.0,5.0,1.0,0,7.0,5.0,1134.97614861,2.0,phase_3,,,,,147.0,3.0,98.0,294.0,245.0,196.0,147.0,49.0,blue,flipped triangle
0.0,4.0,4.0,0,7.0,5.0,584.131002426,2.0,phase_3,,,,,132.0,3.0,88.0,176.0,220.0,44.0,132.0,264.0,orange,line
0.0,1.0,1.0,1,7.0,6.0,400.987863541,2.0,phase_3,,,,,68.0,2.0,170.0,136.0,102.0,204.0,34.0,68.0,white,triangle
0.0,1.0,1.0,1,7.0,1.0,684.808015823,2.0,phase_3,,,,,117.0,3.0,117.0,234.0,195.0,78.0,156.0,39.0,white,triangle
0.0,1.0,1.0,1,7.0,2.0,533.7409973140001,2.0,phase_3,,,,,264.0,6.0,44.0,264.0,176.0,132.0,220.0,88.0,white,triangle
0.0,8.0,4.0,1,7.0,2.0,633.679866791,2.0,phase_3,,,,,68.0,2.0,204.0,68.0,170.0,102.0,34.0,136.0,gray,diamond
0.0,6.0,2.0,1,7.0,3.0,584.107160568,2.0,phase_3,,,,,132.0,3.0,176.0,264.0,132.0,220.0,88.0,44.0,cyan,hexagon
0.0,7.0,3.0,0,7.0,4.0,650.484800339,2.0,phase_3,,,,,108.0,2.0,324.0,54.0,162.0,108.0,270.0,216.0,yellow,circle
0.0,2.0,2.0,0,7.0,5.0,550.827026367,2.0,phase_3,,,,,44.0,1.0,264.0,176.0,132.0,220.0,44.0,88.0,green,cross
0.0,7.0,3.0,0,7.0,6.0,600.8479595179999,2.0,phase_3,,,,,102.0,3.0,136.0,34.0,68.0,204.0,170.0,102.0,yellow,circle
0.0,5.0,1.0,0,7.0,1.0,667.765855789,2.0,phase_3,,,,,294.0,6.0,294.0,98.0,245.0,196.0,49.0,147.0,blue,flipped triangle
0.0,7.0,3.0,0,7.0,2.0,367.603063583,2.0,phase_3,,,,,196.0,4.0,147.0,196.0,98.0,49.0,245.0,294.0,yellow,circle
0.0,6.0,2.0,1,7.0,6.0,518.2847976679999,2.0,phase_3,,,,,156.0,4.0,117.0,195.0,78.0,234.0,39.0,156.0,cyan,hexagon
0.0,2.0,2.0,0,7.0,5.0,400.52103996299996,2.0,phase_3,,,,,136.0,4.0,204.0,170.0,102.0,34.0,136.0,68.0,green,cross
0.0,1.0,1.0,1,7.0,4.0,751.556873322,3.0,phase_3,,,,,264.0,6.0,132.0,88.0,176.0,264.0,44.0,220.0,white,triangle
0.0,4.0,4.0,0,7.0,3.0,566.973924637,3.0,phase_3,,,,,156.0,4.0,39.0,78.0,156.0,195.0,234.0,117.0,orange,line
0.0,8.0,4.0,1,7.0,4.0,400.89392662,3.0,phase_3,,,,,162.0,3.0,54.0,108.0,324.0,162.0,216.0,270.0,gray,diamond
0.0,2.0,2.0,0,7.0,5.0,868.2811260220001,3.0,phase_3,,,,,270.0,5.0,216.0,108.0,162.0,54.0,270.0,324.0,green,cross
0.0,7.0,3.0,0,7.0,3.0,567.641019821,3.0,phase_3,,,,,216.0,4.0,54.0,108.0,216.0,324.0,162.0,270.0,yellow,circle
0.0,8.0,4.0,1,7.0,5.0,767.484903336,3.0,phase_3,,,,,156.0,4.0,195.0,234.0,39.0,78.0,156.0,117.0,gray,diamond
0.0,6.0,2.0,1,7.0,4.0,467.524051666,3.0,phase_3,,,,,68.0,2.0,136.0,102.0,170.0,68.0,204.0,34.0,cyan,hexagon
0.0,2.0,2.0,0,7.0,5.0,901.0961055759999,3.0,phase_3,,,,,195.0,5.0,78.0,39.0,234.0,156.0,195.0,117.0,green,cross
0.0,3.0,3.0,1,7.0,6.0,651.40581131,3.0,phase_3,,,,,195.0,5.0,156.0,39.0,234.0,78.0,117.0,195.0,magenta,square
0.0,3.0,3.0,1,7.0,5.0,600.537061691,3.0,phase_3,,,,,132.0,3.0,220.0,264.0,44.0,176.0,132.0,88.0,magenta,square
0.0,3.0,3.0,1,7.0,4.0,1568.09806824,3.0,phase_3,,,,,49.0,1.0,196.0,147.0,245.0,49.0,98.0,294.0,magenta,square
0.0,3.0,3.0,1,7.0,1.0,768.531084061,3.0,phase_3,,,,,170.0,5.0,170.0,136.0,68.0,204.0,34.0,102.0,magenta,square
0.0,5.0,1.0,0,7.0,5.0,550.781011581,3.0,phase_3,,,,,220.0,5.0,264.0,44.0,176.0,132.0,220.0,88.0,blue,flipped triangle
0.0,4.0,4.0,0,7.0,6.0,1151.24583244,3.0,phase_3,,,,,88.0,2.0,44.0,132.0,176.0,220.0,264.0,88.0,orange,line
0.0,4.0,4.0,0,7.0,2.0,1117.46788025,3.0,phase_3,,,,,156.0,4.0,39.0,156.0,78.0,117.0,195.0,234.0,orange,line
0.0,6.0,2.0,1,7.0,6.0,1067.5780773200001,3.0,phase_3,,,,,98.0,2.0,147.0,245.0,49.0,294.0,196.0,98.0,cyan,hexagon
0.0,1.0,1.0,1,7.0,5.0,1518.61000061,3.0,phase_3,,,,,324.0,6.0,162.0,270.0,54.0,216.0,324.0,108.0,white,triangle
0.0,7.0,3.0,0,7.0,2.0,1101.6719341300002,3.0,phase_3,,,,,264.0,6.0,132.0,264.0,176.0,88.0,220.0,44.0,yellow,circle
0.0,1.0,1.0,1,7.0,1.0,667.642116547,3.0,phase_3,,,,,147.0,3.0,147.0,245.0,294.0,98.0,49.0,196.0,white,triangle
0.0,8.0,4.0,1,7.0,5.0,901.118040085,3.0,phase_3,,,,,195.0,5.0,39.0,234.0,156.0,78.0,195.0,117.0,gray,diamond
0.0,6.0,2.0,1,7.0,4.0,667.7799224849999,4.0,phase_3,,,,,234.0,6.0,39.0,195.0,156.0,234.0,78.0,117.0,cyan,hexagon
0.0,7.0,3.0,0,7.0,5.0,501.06692314099996,4.0,phase_3,,,,,245.0,5.0,294.0,147.0,49.0,196.0,245.0,98.0,yellow,circle
0.0,3.0,3.0,1,7.0,6.0,434.592962265,4.0,phase_3,,,,,108.0,2.0,216.0,162.0,54.0,324.0,270.0,108.0,magenta,square
0.0,8.0,4.0,1,7.0,2.0,984.38501358,4.0,phase_3,,,,,216.0,4.0,270.0,216.0,108.0,324.0,162.0,54.0,gray,diamond
0.0,5.0,1.0,0,7.0,5.0,1201.25317574,4.0,phase_3,,,,,136.0,4.0,102.0,170.0,204.0,34.0,136.0,68.0,blue,flipped triangle
0.0,6.0,2.0,1,7.0,1.0,700.836181641,4.0,phase_3,,,,,324.0,6.0,324.0,54.0,108.0,270.0,162.0,216.0,cyan,hexagon
0.0,3.0,3.0,1,7.0,1.0,767.58813858,4.0,phase_3,,,,,220.0,5.0,220.0,44.0,132.0,88.0,176.0,264.0,magenta,square
0.0,6.0,2.0,1,7.0,5.0,717.5459861759999,4.0,phase_3,,,,,162.0,3.0,216.0,324.0,54.0,270.0,162.0,108.0,cyan,hexagon
0.0,4.0,4.0,0,7.0,4.0,751.21307373,4.0,phase_3,,,,,147.0,3.0,294.0,98.0,196.0,147.0,245.0,49.0,orange,line
0.0,7.0,3.0,0,7.0,5.0,867.7728176119999,4.0,phase_3,,,,,132.0,3.0,220.0,176.0,88.0,44.0,132.0,264.0,yellow,circle
0.0,5.0,1.0,0,7.0,3.0,651.1268615719999,4.0,phase_3,,,,,270.0,5.0,162.0,324.0,270.0,108.0,54.0,216.0,blue,flipped triangle
0.0,1.0,1.0,1,7.0,6.0,735.0149154659999,4.0,phase_3,,,,,39.0,1.0,78.0,234.0,195.0,117.0,156.0,39.0,white,triangle
0.0,4.0,4.0,0,7.0,5.0,751.189947128,4.0,phase_3,,,,,136.0,4.0,68.0,204.0,102.0,170.0,136.0,34.0,orange,line
0.0,1.0,1.0,1,7.0,5.0,751.734972,4.0,phase_3,,,,,170.0,5.0,34.0,68.0,204.0,102.0,170.0,136.0,white,triangle
0.0,3.0,3.0,1,7.0,6.0,667.742013931,4.0,phase_3,,,,,39.0,1.0,117.0,234.0,156.0,78.0,195.0,39.0,magenta,square
0.0,2.0,2.0,0,7.0,1.0,733.8261604310001,4.0,phase_3,,,,,324.0,6.0,324.0,270.0,54.0,216.0,108.0,162.0,green,cross
0.0,7.0,3.0,0,7.0,5.0,718.22309494,4.0,phase_3,,,,,234.0,6.0,195.0,78.0,117.0,39.0,234.0,156.0,yellow,circle
0.0,4.0,4.0,0,7.0,3.0,1100.77404976,4.0,phase_3,,,,,270.0,5.0,162.0,54.0,270.0,108.0,216.0,324.0,orange,line
0.0,3.0,3.0,1,7.0,5.0,651.1650085450001,4.0,phase_3,,,,,49.0,1.0,294.0,147.0,245.0,196.0,49.0,98.0,magenta,square
0.0,8.0,4.0,1,7.0,5.0,584.78808403,4.0,phase_3,,,,,245.0,5.0,147.0,196.0,49.0,98.0,245.0,294.0,gray,diamond
