stepwise_reward_magnitude,paired_with_stopping,quadrant,response,reaction_time,block,which_part,stop_signal_trial_type,left_SSD,right_SSD,accuracy,chosen_bidding_amount,chosen_bidding_level,possible_bid_1,possible_bid_2,possible_bid_3,possible_bid_4,possible_bid_5,possible_bid_6,color_text,shape_text
4.0,1,1.0,1.0,534.712076187,1.0,part_1,,,,,,,,,,,,,green,flipped triangle
4.0,1,4.0,4.0,450.72388649,1.0,part_1,,,,,,,,,,,,,green,flipped triangle
1.0,0,4.0,4.0,484.30204391499996,1.0,part_1,,,,,,,,,,,,,cyan,circle
4.0,0,4.0,4.0,467.84901619000004,1.0,part_1,,,,,,,,,,,,,orange,line
2.0,0,3.0,3.0,501.188993454,1.0,part_1,,,,,,,,,,,,,blue,square
2.0,1,4.0,4.0,468.027114868,1.0,part_1,,,,,,,,,,,,,yellow,triangle
1.0,1,3.0,3.0,551.490068436,1.0,part_1,,,,,,,,,,,,,white,hexagon
2.0,1,4.0,4.0,384.410858154,1.0,part_1,,,,,,,,,,,,,yellow,triangle
4.0,0,2.0,2.0,484.603881836,1.0,part_1,,,,,,,,,,,,,orange,line
2.0,0,1.0,1.0,517.52614975,1.0,part_1,,,,,,,,,,,,,blue,square
2.0,0,2.0,2.0,384.919166565,1.0,part_1,,,,,,,,,,,,,blue,square
2.0,0,3.0,3.0,384.609937668,1.0,part_1,,,,,,,,,,,,,blue,square
1.0,0,3.0,3.0,400.75492858900003,1.0,part_1,,,,,,,,,,,,,cyan,circle
2.0,0,3.0,3.0,417.09280014,1.0,part_1,,,,,,,,,,,,,blue,square
0.5,1,3.0,3.0,417.455911636,1.0,part_1,,,,,,,,,,,,,gray,diamond
0.5,1,1.0,1.0,434.111833572,1.0,part_1,,,,,,,,,,,,,gray,diamond
4.0,0,2.0,2.0,450.678825378,1.0,part_1,,,,,,,,,,,,,orange,line
4.0,0,1.0,1.0,384.691953659,1.0,part_1,,,,,,,,,,,,,orange,line
0.5,0,4.0,4.0,334.332942963,1.0,part_1,,,,,,,,,,,,,magenta,cross
2.0,1,4.0,4.0,501.190900803,1.0,part_1,,,,,,,,,,,,,yellow,triangle
4.0,0,1.0,1.0,450.417041779,1.0,part_1,,,,,,,,,,,,,orange,line
4.0,1,2.0,2.0,484.25412178,1.0,part_1,,,,,,,,,,,,,green,flipped triangle
2.0,1,1.0,1.0,401.03888511699995,1.0,part_1,,,,,,,,,,,,,yellow,triangle
1.0,1,4.0,4.0,484.67397689800003,1.0,part_1,,,,,,,,,,,,,white,hexagon
1.0,0,1.0,1.0,417.51408577,1.0,part_1,,,,,,,,,,,,,cyan,circle
1.0,0,4.0,4.0,450.543880463,1.0,part_1,,,,,,,,,,,,,cyan,circle
2.0,1,4.0,4.0,450.520992279,1.0,part_1,,,,,,,,,,,,,yellow,triangle
4.0,1,1.0,1.0,351.222038269,1.0,part_1,,,,,,,,,,,,,green,flipped triangle
2.0,0,2.0,2.0,468.492031097,1.0,part_1,,,,,,,,,,,,,blue,square
4.0,1,4.0,4.0,433.97903442399996,1.0,part_1,,,,,,,,,,,,,green,flipped triangle
4.0,0,3.0,3.0,451.04193687400004,1.0,part_1,,,,,,,,,,,,,orange,line
2.0,1,2.0,2.0,468.101978302,1.0,part_1,,,,,,,,,,,,,yellow,triangle
1.0,0,1.0,1.0,501.188993454,1.0,part_1,,,,,,,,,,,,,cyan,circle
0.5,1,2.0,2.0,434.309959412,1.0,part_1,,,,,,,,,,,,,gray,diamond
2.0,0,2.0,2.0,400.892972946,1.0,part_1,,,,,,,,,,,,,blue,square
4.0,0,3.0,3.0,501.10411644,1.0,part_1,,,,,,,,,,,,,orange,line
4.0,1,2.0,2.0,434.807062149,1.0,part_1,,,,,,,,,,,,,green,flipped triangle
1.0,1,3.0,3.0,434.594869614,1.0,part_1,,,,,,,,,,,,,white,hexagon
2.0,1,4.0,4.0,483.685970306,1.0,part_1,,,,,,,,,,,,,yellow,triangle
1.0,1,1.0,1.0,434.40294265700004,1.0,part_1,,,,,,,,,,,,,white,hexagon
4.0,1,2.0,2.0,467.696905136,1.0,part_1,,,,,,,,,,,,,green,flipped triangle
1.0,0,4.0,4.0,501.167058945,1.0,part_1,,,,,,,,,,,,,cyan,circle
0.5,0,1.0,1.0,417.140007019,1.0,part_1,,,,,,,,,,,,,magenta,cross
2.0,0,4.0,4.0,467.43893623400004,1.0,part_1,,,,,,,,,,,,,blue,square
0.5,1,3.0,3.0,384.203910828,1.0,part_1,,,,,,,,,,,,,gray,diamond
4.0,1,4.0,4.0,451.12490654,1.0,part_1,,,,,,,,,,,,,green,flipped triangle
1.0,1,2.0,2.0,367.425918579,1.0,part_1,,,,,,,,,,,,,white,hexagon
2.0,0,4.0,4.0,334.25784111,1.0,part_1,,,,,,,,,,,,,blue,square
2.0,0,4.0,4.0,417.513847351,1.0,part_1,,,,,,,,,,,,,blue,square
4.0,0,1.0,1.0,451.053142548,1.0,part_1,,,,,,,,,,,,,orange,line
1.0,0,4.0,4.0,417.684078217,1.0,part_1,,,,,,,,,,,,,cyan,circle
1.0,1,3.0,3.0,434.607982635,1.0,part_1,,,,,,,,,,,,,white,hexagon
1.0,1,1.0,1.0,467.274904251,1.0,part_1,,,,,,,,,,,,,white,hexagon
0.5,0,3.0,3.0,417.438030243,1.0,part_1,,,,,,,,,,,,,magenta,cross
1.0,1,1.0,1.0,368.165969849,1.0,part_1,,,,,,,,,,,,,white,hexagon
4.0,0,1.0,1.0,518.000125885,1.0,part_1,,,,,,,,,,,,,orange,line
0.5,1,4.0,4.0,518.037080765,1.0,part_1,,,,,,,,,,,,,gray,diamond
0.5,1,2.0,2.0,417.732000351,1.0,part_1,,,,,,,,,,,,,gray,diamond
2.0,0,3.0,3.0,450.911998749,1.0,part_1,,,,,,,,,,,,,blue,square
1.0,1,2.0,2.0,467.69499778700003,1.0,part_1,,,,,,,,,,,,,white,hexagon
0.5,0,3.0,3.0,468.31703186,1.0,part_1,,,,,,,,,,,,,magenta,cross
0.5,1,3.0,3.0,633.99720192,1.0,part_1,,,,,,,,,,,,,gray,diamond
2.0,0,1.0,1.0,400.804042816,1.0,part_1,,,,,,,,,,,,,blue,square
2.0,0,4.0,4.0,417.411088943,1.0,part_1,,,,,,,,,,,,,blue,square
4.0,0,2.0,2.0,517.5058841709999,1.0,part_1,,,,,,,,,,,,,orange,line
0.5,1,4.0,4.0,584.6660137179999,1.0,part_1,,,,,,,,,,,,,gray,diamond
0.5,0,4.0,4.0,518.0768966669999,1.0,part_1,,,,,,,,,,,,,magenta,cross
0.5,0,4.0,4.0,467.557191849,1.0,part_1,,,,,,,,,,,,,magenta,cross
1.0,0,2.0,2.0,417.489051819,1.0,part_1,,,,,,,,,,,,,cyan,circle
2.0,1,1.0,1.0,417.422056198,1.0,part_1,,,,,,,,,,,,,yellow,triangle
1.0,0,2.0,2.0,500.78892707800003,1.0,part_1,,,,,,,,,,,,,cyan,circle
1.0,0,4.0,4.0,667.9341793059999,1.0,part_1,,,,,,,,,,,,,cyan,circle
4.0,1,3.0,3.0,450.772047043,1.0,part_1,,,,,,,,,,,,,green,flipped triangle
0.5,1,3.0,3.0,467.834234238,1.0,part_1,,,,,,,,,,,,,gray,diamond
1.0,0,2.0,2.0,467.56005287199997,1.0,part_1,,,,,,,,,,,,,cyan,circle
1.0,0,2.0,2.0,518.064975739,1.0,part_1,,,,,,,,,,,,,cyan,circle
2.0,0,3.0,3.0,417.495965958,1.0,part_1,,,,,,,,,,,,,blue,square
4.0,1,1.0,1.0,551.750898361,1.0,part_1,,,,,,,,,,,,,green,flipped triangle
1.0,0,3.0,3.0,450.828075409,1.0,part_1,,,,,,,,,,,,,cyan,circle
2.0,0,2.0,2.0,434.67998504599996,1.0,part_1,,,,,,,,,,,,,blue,square
4.0,1,1.0,1.0,435.127973557,1.0,part_1,,,,,,,,,,,,,green,flipped triangle
2.0,1,3.0,3.0,485.08691787699996,1.0,part_1,,,,,,,,,,,,,yellow,triangle
0.5,0,4.0,4.0,751.4011859889999,1.0,part_1,,,,,,,,,,,,,magenta,cross
2.0,0,1.0,1.0,467.45800972,1.0,part_1,,,,,,,,,,,,,blue,square
0.5,1,3.0,3.0,485.044956207,1.0,part_1,,,,,,,,,,,,,gray,diamond
2.0,0,3.0,3.0,501.13606452899995,1.0,part_1,,,,,,,,,,,,,blue,square
4.0,0,1.0,1.0,517.287015915,1.0,part_1,,,,,,,,,,,,,orange,line
4.0,0,1.0,1.0,451.698064804,1.0,part_1,,,,,,,,,,,,,orange,line
4.0,1,2.0,2.0,450.925827026,1.0,part_1,,,,,,,,,,,,,green,flipped triangle
4.0,1,1.0,1.0,617.780923843,1.0,part_1,,,,,,,,,,,,,green,flipped triangle
0.5,0,2.0,2.0,417.45615005499997,1.0,part_1,,,,,,,,,,,,,magenta,cross
1.0,0,1.0,1.0,483.840942383,1.0,part_1,,,,,,,,,,,,,cyan,circle
4.0,1,3.0,3.0,450.51407814,1.0,part_1,,,,,,,,,,,,,green,flipped triangle
2.0,1,2.0,2.0,434.19194221500004,1.0,part_1,,,,,,,,,,,,,yellow,triangle
1.0,1,2.0,2.0,400.705099106,1.0,part_1,,,,,,,,,,,,,white,hexagon
2.0,0,2.0,2.0,468.07909011799995,1.0,part_1,,,,,,,,,,,,,blue,square
1.0,1,3.0,3.0,417.535066605,1.0,part_1,,,,,,,,,,,,,white,hexagon
0.5,0,1.0,1.0,367.32196807900004,1.0,part_1,,,,,,,,,,,,,magenta,cross
1.0,1,2.0,2.0,467.58413314800003,1.0,part_1,,,,,,,,,,,,,white,hexagon
1.0,1,3.0,3.0,417.68980026199995,1.0,part_1,,,,,,,,,,,,,white,hexagon
2.0,1,2.0,2.0,451.441049576,2.0,part_1,,,,,,,,,,,,,yellow,triangle
0.5,0,3.0,3.0,417.787075043,2.0,part_1,,,,,,,,,,,,,magenta,cross
1.0,1,1.0,1.0,367.481946945,2.0,part_1,,,,,,,,,,,,,white,hexagon
4.0,1,3.0,3.0,451.49183273299997,2.0,part_1,,,,,,,,,,,,,green,flipped triangle
1.0,1,3.0,3.0,384.341001511,2.0,part_1,,,,,,,,,,,,,white,hexagon
0.5,0,3.0,3.0,417.49691963199996,2.0,part_1,,,,,,,,,,,,,magenta,cross
2.0,1,2.0,2.0,318.112134933,2.0,part_1,,,,,,,,,,,,,yellow,triangle
0.5,1,3.0,3.0,433.50195884699997,2.0,part_1,,,,,,,,,,,,,gray,diamond
2.0,1,2.0,2.0,400.24900436400003,2.0,part_1,,,,,,,,,,,,,yellow,triangle
1.0,1,3.0,3.0,351.06086731000005,2.0,part_1,,,,,,,,,,,,,white,hexagon
1.0,0,3.0,3.0,434.25989151,2.0,part_1,,,,,,,,,,,,,cyan,circle
4.0,0,1.0,1.0,551.558971405,2.0,part_1,,,,,,,,,,,,,orange,line
0.5,1,2.0,2.0,517.668008804,2.0,part_1,,,,,,,,,,,,,gray,diamond
4.0,0,4.0,4.0,584.537029266,2.0,part_1,,,,,,,,,,,,,orange,line
0.5,0,1.0,1.0,417.684078217,2.0,part_1,,,,,,,,,,,,,magenta,cross
4.0,0,1.0,1.0,418.256998062,2.0,part_1,,,,,,,,,,,,,orange,line
1.0,0,4.0,4.0,467.669963837,2.0,part_1,,,,,,,,,,,,,cyan,circle
1.0,0,2.0,2.0,350.844860077,2.0,part_1,,,,,,,,,,,,,cyan,circle
0.5,0,4.0,4.0,500.907897949,2.0,part_1,,,,,,,,,,,,,magenta,cross
1.0,0,2.0,2.0,451.2591362,2.0,part_1,,,,,,,,,,,,,cyan,circle
0.5,1,3.0,3.0,551.054000854,2.0,part_1,,,,,,,,,,,,,gray,diamond
0.5,0,1.0,1.0,450.55603980999996,2.0,part_1,,,,,,,,,,,,,magenta,cross
0.5,1,1.0,1.0,484.133958817,2.0,part_1,,,,,,,,,,,,,gray,diamond
1.0,1,2.0,2.0,417.953968048,2.0,part_1,,,,,,,,,,,,,white,hexagon
0.5,1,4.0,4.0,451.232194901,2.0,part_1,,,,,,,,,,,,,gray,diamond
0.5,0,2.0,2.0,384.103059769,2.0,part_1,,,,,,,,,,,,,magenta,cross
2.0,1,4.0,4.0,517.305850983,2.0,part_1,,,,,,,,,,,,,yellow,triangle
2.0,1,4.0,4.0,534.203052521,2.0,part_1,,,,,,,,,,,,,yellow,triangle
2.0,1,4.0,4.0,501.502990723,2.0,part_1,,,,,,,,,,,,,yellow,triangle
1.0,1,4.0,4.0,550.857067108,2.0,part_1,,,,,,,,,,,,,white,hexagon
2.0,1,3.0,3.0,484.541893005,2.0,part_1,,,,,,,,,,,,,yellow,triangle
0.5,0,4.0,4.0,534.352064133,2.0,part_1,,,,,,,,,,,,,magenta,cross
2.0,1,2.0,2.0,417.33789444,2.0,part_1,,,,,,,,,,,,,yellow,triangle
1.0,0,4.0,4.0,500.962018967,2.0,part_1,,,,,,,,,,,,,cyan,circle
0.5,1,1.0,1.0,401.388883591,2.0,part_1,,,,,,,,,,,,,gray,diamond
1.0,1,3.0,3.0,383.795976639,2.0,part_1,,,,,,,,,,,,,white,hexagon
2.0,1,1.0,1.0,384.521961212,2.0,part_1,,,,,,,,,,,,,yellow,triangle
4.0,0,2.0,2.0,400.650024414,2.0,part_1,,,,,,,,,,,,,orange,line
1.0,1,1.0,1.0,433.901071548,2.0,part_1,,,,,,,,,,,,,white,hexagon
4.0,1,3.0,3.0,550.8670806880001,2.0,part_1,,,,,,,,,,,,,green,flipped triangle
4.0,1,1.0,1.0,384.07206535299997,2.0,part_1,,,,,,,,,,,,,green,flipped triangle
4.0,1,4.0,4.0,450.864076614,2.0,part_1,,,,,,,,,,,,,green,flipped triangle
0.5,1,2.0,2.0,383.95094871500004,2.0,part_1,,,,,,,,,,,,,gray,diamond
4.0,1,1.0,1.0,551.624059677,2.0,part_1,,,,,,,,,,,,,green,flipped triangle
4.0,0,2.0,2.0,717.456817627,2.0,part_1,,,,,,,,,,,,,orange,line
4.0,0,3.0,3.0,534.604072571,2.0,part_1,,,,,,,,,,,,,orange,line
0.5,0,1.0,1.0,434.682130814,2.0,part_1,,,,,,,,,,,,,magenta,cross
0.5,1,2.0,2.0,400.63500404399997,2.0,part_1,,,,,,,,,,,,,gray,diamond
0.5,0,2.0,2.0,451.446056366,2.0,part_1,,,,,,,,,,,,,magenta,cross
0.5,0,4.0,4.0,718.132972717,2.0,part_1,,,,,,,,,,,,,magenta,cross
0.5,1,1.0,1.0,484.56001281700003,2.0,part_1,,,,,,,,,,,,,gray,diamond
4.0,1,3.0,3.0,434.719800949,2.0,part_1,,,,,,,,,,,,,green,flipped triangle
1.0,0,2.0,2.0,367.624998093,2.0,part_1,,,,,,,,,,,,,cyan,circle
2.0,0,2.0,2.0,401.44300460799997,2.0,part_1,,,,,,,,,,,,,blue,square
1.0,1,4.0,4.0,550.939798355,2.0,part_1,,,,,,,,,,,,,white,hexagon
0.5,0,3.0,3.0,400.546073914,2.0,part_1,,,,,,,,,,,,,magenta,cross
4.0,0,3.0,3.0,484.39788818399995,2.0,part_1,,,,,,,,,,,,,orange,line
4.0,0,4.0,4.0,551.0959625239999,2.0,part_1,,,,,,,,,,,,,orange,line
1.0,0,2.0,2.0,517.663002014,2.0,part_1,,,,,,,,,,,,,cyan,circle
0.5,1,2.0,2.0,483.889818192,2.0,part_1,,,,,,,,,,,,,gray,diamond
1.0,0,2.0,2.0,485.006093979,2.0,part_1,,,,,,,,,,,,,cyan,circle
0.5,1,1.0,1.0,417.25897789,2.0,part_1,,,,,,,,,,,,,gray,diamond
2.0,1,3.0,3.0,367.123126984,2.0,part_1,,,,,,,,,,,,,yellow,triangle
0.5,0,1.0,1.0,517.8840160369999,2.0,part_1,,,,,,,,,,,,,magenta,cross
4.0,0,4.0,4.0,467.292070389,2.0,part_1,,,,,,,,,,,,,orange,line
4.0,0,3.0,3.0,484.10701751700003,2.0,part_1,,,,,,,,,,,,,orange,line
1.0,0,1.0,1.0,368.390083313,2.0,part_1,,,,,,,,,,,,,cyan,circle
4.0,1,3.0,3.0,450.77419281,2.0,part_1,,,,,,,,,,,,,green,flipped triangle
2.0,1,3.0,3.0,501.12986564600004,2.0,part_1,,,,,,,,,,,,,yellow,triangle
1.0,0,3.0,3.0,484.08412933299996,2.0,part_1,,,,,,,,,,,,,cyan,circle
4.0,1,1.0,1.0,433.874130249,2.0,part_1,,,,,,,,,,,,,green,flipped triangle
4.0,1,4.0,4.0,534.127950668,2.0,part_1,,,,,,,,,,,,,green,flipped triangle
4.0,0,2.0,2.0,517.754793167,2.0,part_1,,,,,,,,,,,,,orange,line
0.5,0,2.0,2.0,534.62100029,2.0,part_1,,,,,,,,,,,,,magenta,cross
2.0,1,4.0,4.0,551.625967026,2.0,part_1,,,,,,,,,,,,,yellow,triangle
1.0,1,1.0,1.0,501.17897987399994,2.0,part_1,,,,,,,,,,,,,white,hexagon
0.5,0,1.0,1.0,450.871944427,2.0,part_1,,,,,,,,,,,,,magenta,cross
0.5,1,2.0,2.0,451.200962067,2.0,part_1,,,,,,,,,,,,,gray,diamond
2.0,0,4.0,4.0,517.5819396969999,2.0,part_1,,,,,,,,,,,,,blue,square
4.0,0,1.0,1.0,484.31587219200003,2.0,part_1,,,,,,,,,,,,,orange,line
0.5,0,4.0,4.0,484.204053879,2.0,part_1,,,,,,,,,,,,,magenta,cross
4.0,1,2.0,2.0,417.752981186,2.0,part_1,,,,,,,,,,,,,green,flipped triangle
1.0,1,4.0,4.0,717.843055725,2.0,part_1,,,,,,,,,,,,,white,hexagon
1.0,1,1.0,1.0,450.75511932399996,2.0,part_1,,,,,,,,,,,,,white,hexagon
0.5,0,4.0,4.0,567.29388237,2.0,part_1,,,,,,,,,,,,,magenta,cross
4.0,1,4.0,4.0,434.001207352,2.0,part_1,,,,,,,,,,,,,green,flipped triangle
1.0,0,2.0,2.0,601.0921001429999,2.0,part_1,,,,,,,,,,,,,cyan,circle
1.0,0,1.0,1.0,551.867008209,2.0,part_1,,,,,,,,,,,,,cyan,circle
1.0,0,3.0,3.0,533.7820053099999,2.0,part_1,,,,,,,,,,,,,cyan,circle
2.0,0,1.0,1.0,467.10705757100004,2.0,part_1,,,,,,,,,,,,,blue,square
2.0,0,2.0,2.0,401.463985443,2.0,part_1,,,,,,,,,,,,,blue,square
4.0,1,4.0,4.0,417.532920837,2.0,part_1,,,,,,,,,,,,,green,flipped triangle
1.0,0,3.0,3.0,384.49716567999997,2.0,part_1,,,,,,,,,,,,,cyan,circle
4.0,1,3.0,3.0,484.09199714700003,2.0,part_1,,,,,,,,,,,,,green,flipped triangle
2.0,1,3.0,3.0,617.238044739,2.0,part_1,,,,,,,,,,,,,yellow,triangle
4.0,0,4.0,4.0,784.1460704799999,2.0,part_1,,,,,,,,,,,,,orange,line
4.0,1,4.0,4.0,467.69785880999996,2.0,part_1,,,,,,,,,,,,,green,flipped triangle
1.0,0,1.0,1.0,467.94509887699996,2.0,part_1,,,,,,,,,,,,,cyan,circle
2.0,0,1.0,1.0,467.558860779,2.0,part_1,,,,,,,,,,,,,blue,square
2.0,0,3.0,3.0,434.340953827,2.0,part_1,,,,,,,,,,,,,blue,square
0.5,1,4.0,4.0,617.491960526,3.0,part_1,,,,,,,,,,,,,gray,diamond
0.5,0,1.0,1.0,417.80304908799997,3.0,part_1,,,,,,,,,,,,,magenta,cross
0.5,0,1.0,1.0,467.680931091,3.0,part_1,,,,,,,,,,,,,magenta,cross
4.0,0,4.0,4.0,384.19008255,3.0,part_1,,,,,,,,,,,,,orange,line
2.0,0,4.0,4.0,467.83494949299995,3.0,part_1,,,,,,,,,,,,,blue,square
4.0,1,2.0,2.0,534.821987152,3.0,part_1,,,,,,,,,,,,,green,flipped triangle
0.5,1,4.0,4.0,517.7669525150001,3.0,part_1,,,,,,,,,,,,,gray,diamond
4.0,1,2.0,2.0,634.574174881,3.0,part_1,,,,,,,,,,,,,green,flipped triangle
1.0,1,3.0,3.0,451.369047165,3.0,part_1,,,,,,,,,,,,,white,hexagon
4.0,1,2.0,2.0,534.348964691,3.0,part_1,,,,,,,,,,,,,green,flipped triangle
2.0,0,2.0,2.0,433.885097504,3.0,part_1,,,,,,,,,,,,,blue,square
0.5,0,3.0,3.0,384.59706306500004,3.0,part_1,,,,,,,,,,,,,magenta,cross
4.0,0,3.0,3.0,400.391101837,3.0,part_1,,,,,,,,,,,,,orange,line
2.0,1,4.0,4.0,434.34214591999995,3.0,part_1,,,,,,,,,,,,,yellow,triangle
2.0,0,3.0,3.0,467.42010116600005,3.0,part_1,,,,,,,,,,,,,blue,square
4.0,0,2.0,2.0,384.00292396500004,3.0,part_1,,,,,,,,,,,,,orange,line
0.5,0,2.0,2.0,468.020200729,3.0,part_1,,,,,,,,,,,,,magenta,cross
0.5,0,2.0,2.0,434.267997742,3.0,part_1,,,,,,,,,,,,,magenta,cross
1.0,0,1.0,1.0,467.33188629200004,3.0,part_1,,,,,,,,,,,,,cyan,circle
4.0,0,3.0,3.0,450.897932053,3.0,part_1,,,,,,,,,,,,,orange,line
0.5,1,3.0,3.0,435.149908066,3.0,part_1,,,,,,,,,,,,,gray,diamond
1.0,1,1.0,1.0,501.093864441,3.0,part_1,,,,,,,,,,,,,white,hexagon
2.0,1,3.0,3.0,401.108026505,3.0,part_1,,,,,,,,,,,,,yellow,triangle
0.5,1,1.0,1.0,484.590053558,3.0,part_1,,,,,,,,,,,,,gray,diamond
0.5,0,2.0,2.0,500.803947449,3.0,part_1,,,,,,,,,,,,,magenta,cross
4.0,0,4.0,4.0,484.546899796,3.0,part_1,,,,,,,,,,,,,orange,line
2.0,1,2.0,2.0,417.62208938599997,3.0,part_1,,,,,,,,,,,,,yellow,triangle
0.5,0,3.0,3.0,450.885057449,3.0,part_1,,,,,,,,,,,,,magenta,cross
2.0,1,3.0,3.0,400.781869888,3.0,part_1,,,,,,,,,,,,,yellow,triangle
2.0,0,3.0,3.0,484.613180161,3.0,part_1,,,,,,,,,,,,,blue,square
0.5,1,3.0,3.0,417.79708862300004,3.0,part_1,,,,,,,,,,,,,gray,diamond
0.5,0,1.0,1.0,467.98992157000004,3.0,part_1,,,,,,,,,,,,,magenta,cross
1.0,1,3.0,3.0,534.4629287719999,3.0,part_1,,,,,,,,,,,,,white,hexagon
2.0,1,2.0,2.0,433.770895004,3.0,part_1,,,,,,,,,,,,,yellow,triangle
1.0,1,1.0,1.0,467.31710434,3.0,part_1,,,,,,,,,,,,,white,hexagon
1.0,1,2.0,2.0,400.813102722,3.0,part_1,,,,,,,,,,,,,white,hexagon
2.0,0,4.0,4.0,667.99902916,3.0,part_1,,,,,,,,,,,,,blue,square
0.5,1,4.0,4.0,484.698057175,3.0,part_1,,,,,,,,,,,,,gray,diamond
4.0,0,3.0,3.0,483.905076981,3.0,part_1,,,,,,,,,,,,,orange,line
0.5,1,1.0,1.0,401.386976242,3.0,part_1,,,,,,,,,,,,,gray,diamond
2.0,1,3.0,3.0,484.405994415,3.0,part_1,,,,,,,,,,,,,yellow,triangle
2.0,1,1.0,1.0,418.546915054,3.0,part_1,,,,,,,,,,,,,yellow,triangle
0.5,0,4.0,4.0,468.549013138,3.0,part_1,,,,,,,,,,,,,magenta,cross
2.0,1,3.0,3.0,401.076793671,3.0,part_1,,,,,,,,,,,,,yellow,triangle
1.0,1,4.0,4.0,417.29092598,3.0,part_1,,,,,,,,,,,,,white,hexagon
0.5,0,1.0,1.0,417.450904846,3.0,part_1,,,,,,,,,,,,,magenta,cross
0.5,1,4.0,4.0,451.54595375099996,3.0,part_1,,,,,,,,,,,,,gray,diamond
4.0,1,3.0,3.0,434.110164642,3.0,part_1,,,,,,,,,,,,,green,flipped triangle
0.5,0,4.0,4.0,534.1041088100001,3.0,part_1,,,,,,,,,,,,,magenta,cross
0.5,1,2.0,2.0,517.874956131,3.0,part_1,,,,,,,,,,,,,gray,diamond
2.0,0,2.0,2.0,483.67190361,3.0,part_1,,,,,,,,,,,,,blue,square
2.0,1,2.0,2.0,384.81783866899997,3.0,part_1,,,,,,,,,,,,,yellow,triangle
1.0,1,2.0,2.0,451.011180878,3.0,part_1,,,,,,,,,,,,,white,hexagon
4.0,1,3.0,3.0,434.405088425,3.0,part_1,,,,,,,,,,,,,green,flipped triangle
2.0,0,2.0,2.0,434.240102768,3.0,part_1,,,,,,,,,,,,,blue,square
0.5,1,2.0,2.0,334.644079208,3.0,part_1,,,,,,,,,,,,,gray,diamond
0.5,0,1.0,1.0,467.9210186,3.0,part_1,,,,,,,,,,,,,magenta,cross
4.0,0,1.0,1.0,367.566823959,3.0,part_1,,,,,,,,,,,,,orange,line
0.5,0,3.0,3.0,451.360225677,3.0,part_1,,,,,,,,,,,,,magenta,cross
1.0,0,4.0,4.0,401.23915672299995,3.0,part_1,,,,,,,,,,,,,cyan,circle
4.0,1,1.0,1.0,551.0509014129999,3.0,part_1,,,,,,,,,,,,,green,flipped triangle
2.0,1,1.0,1.0,451.637983322,3.0,part_1,,,,,,,,,,,,,yellow,triangle
4.0,0,4.0,4.0,483.638048172,3.0,part_1,,,,,,,,,,,,,orange,line
2.0,0,1.0,1.0,483.94417762800003,3.0,part_1,,,,,,,,,,,,,blue,square
4.0,0,1.0,1.0,550.863027573,3.0,part_1,,,,,,,,,,,,,orange,line
4.0,1,1.0,1.0,417.240142822,3.0,part_1,,,,,,,,,,,,,green,flipped triangle
0.5,1,2.0,2.0,417.953014374,3.0,part_1,,,,,,,,,,,,,gray,diamond
4.0,0,1.0,1.0,451.761007309,3.0,part_1,,,,,,,,,,,,,orange,line
4.0,0,4.0,4.0,451.349020004,3.0,part_1,,,,,,,,,,,,,orange,line
1.0,0,1.0,1.0,467.193841934,3.0,part_1,,,,,,,,,,,,,cyan,circle
2.0,1,4.0,4.0,450.938940048,3.0,part_1,,,,,,,,,,,,,yellow,triangle
2.0,0,4.0,4.0,468.21880340599995,3.0,part_1,,,,,,,,,,,,,blue,square
1.0,0,2.0,2.0,467.321872711,3.0,part_1,,,,,,,,,,,,,cyan,circle
0.5,0,2.0,2.0,501.303911209,3.0,part_1,,,,,,,,,,,,,magenta,cross
4.0,0,2.0,2.0,450.638771057,3.0,part_1,,,,,,,,,,,,,orange,line
0.5,1,4.0,4.0,434.110879898,3.0,part_1,,,,,,,,,,,,,gray,diamond
1.0,1,4.0,4.0,468.008995056,3.0,part_1,,,,,,,,,,,,,white,hexagon
4.0,1,2.0,2.0,451.558113098,3.0,part_1,,,,,,,,,,,,,green,flipped triangle
1.0,0,3.0,3.0,333.643913269,3.0,part_1,,,,,,,,,,,,,cyan,circle
2.0,1,4.0,4.0,551.060914993,3.0,part_1,,,,,,,,,,,,,yellow,triangle
2.0,0,2.0,2.0,500.84185600300003,3.0,part_1,,,,,,,,,,,,,blue,square
1.0,1,1.0,1.0,401.517152786,3.0,part_1,,,,,,,,,,,,,white,hexagon
2.0,1,4.0,4.0,417.672157288,3.0,part_1,,,,,,,,,,,,,yellow,triangle
2.0,1,4.0,4.0,467.725038528,3.0,part_1,,,,,,,,,,,,,yellow,triangle
4.0,1,3.0,3.0,400.83599090599995,3.0,part_1,,,,,,,,,,,,,green,flipped triangle
4.0,0,1.0,1.0,451.195001602,3.0,part_1,,,,,,,,,,,,,orange,line
4.0,0,1.0,1.0,417.927026749,3.0,part_1,,,,,,,,,,,,,orange,line
0.5,1,2.0,2.0,433.923006058,3.0,part_1,,,,,,,,,,,,,gray,diamond
2.0,1,3.0,3.0,400.980949402,3.0,part_1,,,,,,,,,,,,,yellow,triangle
2.0,1,2.0,2.0,467.609882355,3.0,part_1,,,,,,,,,,,,,yellow,triangle
1.0,0,1.0,1.0,451.32684707600004,3.0,part_1,,,,,,,,,,,,,cyan,circle
1.0,1,4.0,4.0,417.91582107500005,3.0,part_1,,,,,,,,,,,,,white,hexagon
1.0,0,1.0,1.0,384.20104980499997,3.0,part_1,,,,,,,,,,,,,cyan,circle
1.0,0,4.0,4.0,534.1329574580001,3.0,part_1,,,,,,,,,,,,,cyan,circle
2.0,1,4.0,4.0,400.781869888,3.0,part_1,,,,,,,,,,,,,yellow,triangle
4.0,0,3.0,3.0,467.615127563,3.0,part_1,,,,,,,,,,,,,orange,line
1.0,0,3.0,3.0,417.778968811,3.0,part_1,,,,,,,,,,,,,cyan,circle
4.0,0,1.0,1.0,667.946100235,3.0,part_1,,,,,,,,,,,,,orange,line
1.0,0,3.0,3.0,433.94088745100004,3.0,part_1,,,,,,,,,,,,,cyan,circle
0.5,0,3.0,3.0,467.692136765,3.0,part_1,,,,,,,,,,,,,magenta,cross
2.0,1,1.0,1.0,467.917919159,4.0,part_1,,,,,,,,,,,,,yellow,triangle
4.0,1,4.0,4.0,433.945894241,4.0,part_1,,,,,,,,,,,,,green,flipped triangle
0.5,0,4.0,4.0,484.415054321,4.0,part_1,,,,,,,,,,,,,magenta,cross
1.0,1,2.0,2.0,451.039075851,4.0,part_1,,,,,,,,,,,,,white,hexagon
4.0,1,1.0,1.0,384.265899658,4.0,part_1,,,,,,,,,,,,,green,flipped triangle
1.0,0,3.0,3.0,384.276866913,4.0,part_1,,,,,,,,,,,,,cyan,circle
4.0,1,2.0,2.0,584.879875183,4.0,part_1,,,,,,,,,,,,,green,flipped triangle
0.5,1,2.0,2.0,418.110132217,4.0,part_1,,,,,,,,,,,,,gray,diamond
1.0,0,2.0,2.0,384.17506218000005,4.0,part_1,,,,,,,,,,,,,cyan,circle
4.0,0,3.0,3.0,451.004981995,4.0,part_1,,,,,,,,,,,,,orange,line
0.5,1,2.0,2.0,317.555189133,4.0,part_1,,,,,,,,,,,,,gray,diamond
0.5,1,1.0,1.0,451.26914977999996,4.0,part_1,,,,,,,,,,,,,gray,diamond
0.5,0,1.0,1.0,484.313011169,4.0,part_1,,,,,,,,,,,,,magenta,cross
1.0,1,1.0,1.0,534.232139587,4.0,part_1,,,,,,,,,,,,,white,hexagon
2.0,0,4.0,4.0,400.47979354899996,4.0,part_1,,,,,,,,,,,,,blue,square
0.5,1,2.0,2.0,350.65317153899997,4.0,part_1,,,,,,,,,,,,,gray,diamond
4.0,0,4.0,4.0,534.8451137540001,4.0,part_1,,,,,,,,,,,,,orange,line
1.0,1,3.0,3.0,434.03911590599995,4.0,part_1,,,,,,,,,,,,,white,hexagon
2.0,0,3.0,3.0,400.851964951,4.0,part_1,,,,,,,,,,,,,blue,square
2.0,0,4.0,4.0,501.03402137800003,4.0,part_1,,,,,,,,,,,,,blue,square
2.0,1,1.0,1.0,517.587900162,4.0,part_1,,,,,,,,,,,,,yellow,triangle
1.0,1,2.0,2.0,317.821979523,4.0,part_1,,,,,,,,,,,,,white,hexagon
4.0,1,2.0,2.0,334.127902985,4.0,part_1,,,,,,,,,,,,,green,flipped triangle
4.0,0,1.0,1.0,517.514944077,4.0,part_1,,,,,,,,,,,,,orange,line
2.0,1,4.0,4.0,517.4810886380001,4.0,part_1,,,,,,,,,,,,,yellow,triangle
4.0,0,2.0,2.0,350.646018982,4.0,part_1,,,,,,,,,,,,,orange,line
1.0,1,2.0,2.0,350.874900818,4.0,part_1,,,,,,,,,,,,,white,hexagon
4.0,1,2.0,2.0,384.147167206,4.0,part_1,,,,,,,,,,,,,green,flipped triangle
2.0,0,4.0,4.0,417.54508018499996,4.0,part_1,,,,,,,,,,,,,blue,square
1.0,0,2.0,2.0,367.20108985900004,4.0,part_1,,,,,,,,,,,,,cyan,circle
1.0,0,3.0,3.0,417.373895645,4.0,part_1,,,,,,,,,,,,,cyan,circle
0.5,1,1.0,1.0,434.594869614,4.0,part_1,,,,,,,,,,,,,gray,diamond
1.0,1,1.0,1.0,417.575836182,4.0,part_1,,,,,,,,,,,,,white,hexagon
1.0,1,1.0,1.0,367.38491058299996,4.0,part_1,,,,,,,,,,,,,white,hexagon
1.0,1,1.0,1.0,384.314060211,4.0,part_1,,,,,,,,,,,,,white,hexagon
0.5,1,3.0,3.0,467.610836029,4.0,part_1,,,,,,,,,,,,,gray,diamond
2.0,0,3.0,3.0,451.029062271,4.0,part_1,,,,,,,,,,,,,blue,square
0.5,1,4.0,4.0,467.653989792,4.0,part_1,,,,,,,,,,,,,gray,diamond
4.0,1,1.0,1.0,434.08703804,4.0,part_1,,,,,,,,,,,,,green,flipped triangle
1.0,0,1.0,1.0,467.547893524,4.0,part_1,,,,,,,,,,,,,cyan,circle
4.0,1,2.0,2.0,534.018993378,4.0,part_1,,,,,,,,,,,,,green,flipped triangle
1.0,1,4.0,4.0,600.855112076,4.0,part_1,,,,,,,,,,,,,white,hexagon
0.5,1,3.0,3.0,433.926105499,4.0,part_1,,,,,,,,,,,,,gray,diamond
2.0,0,2.0,2.0,551.108121872,4.0,part_1,,,,,,,,,,,,,blue,square
0.5,0,2.0,2.0,433.648109436,4.0,part_1,,,,,,,,,,,,,magenta,cross
4.0,0,3.0,3.0,501.044034958,4.0,part_1,,,,,,,,,,,,,orange,line
1.0,0,4.0,4.0,651.278018951,4.0,part_1,,,,,,,,,,,,,cyan,circle
0.5,0,4.0,4.0,517.863988876,4.0,part_1,,,,,,,,,,,,,magenta,cross
2.0,1,1.0,1.0,417.862892151,4.0,part_1,,,,,,,,,,,,,yellow,triangle
2.0,0,3.0,3.0,451.39503478999995,4.0,part_1,,,,,,,,,,,,,blue,square
1.0,1,3.0,3.0,467.44799614,4.0,part_1,,,,,,,,,,,,,white,hexagon
0.5,0,1.0,1.0,383.67795944200003,4.0,part_1,,,,,,,,,,,,,magenta,cross
1.0,0,2.0,2.0,450.670957565,4.0,part_1,,,,,,,,,,,,,cyan,circle
4.0,1,4.0,4.0,501.05214119,4.0,part_1,,,,,,,,,,,,,green,flipped triangle
0.5,0,3.0,3.0,433.563947678,4.0,part_1,,,,,,,,,,,,,magenta,cross
1.0,1,1.0,1.0,366.770982742,4.0,part_1,,,,,,,,,,,,,white,hexagon
0.5,0,4.0,4.0,534.905195236,4.0,part_1,,,,,,,,,,,,,magenta,cross
4.0,0,4.0,4.0,401.074886322,4.0,part_1,,,,,,,,,,,,,orange,line
4.0,1,1.0,1.0,500.71406364399996,4.0,part_1,,,,,,,,,,,,,green,flipped triangle
0.5,0,1.0,1.0,450.85191726700003,4.0,part_1,,,,,,,,,,,,,magenta,cross
4.0,1,4.0,4.0,450.84500312800003,4.0,part_1,,,,,,,,,,,,,green,flipped triangle
1.0,1,1.0,1.0,417.569875717,4.0,part_1,,,,,,,,,,,,,white,hexagon
2.0,1,4.0,4.0,501.140117645,4.0,part_1,,,,,,,,,,,,,yellow,triangle
1.0,1,1.0,1.0,450.479984283,4.0,part_1,,,,,,,,,,,,,white,hexagon
1.0,1,2.0,2.0,400.377988815,4.0,part_1,,,,,,,,,,,,,white,hexagon
0.5,1,4.0,4.0,484.41386222799997,4.0,part_1,,,,,,,,,,,,,gray,diamond
0.5,0,4.0,4.0,484.184026718,4.0,part_1,,,,,,,,,,,,,magenta,cross
0.5,1,2.0,2.0,450.95205307000003,4.0,part_1,,,,,,,,,,,,,gray,diamond
2.0,1,3.0,3.0,434.169054031,4.0,part_1,,,,,,,,,,,,,yellow,triangle
1.0,0,4.0,4.0,450.983047485,4.0,part_1,,,,,,,,,,,,,cyan,circle
2.0,0,3.0,3.0,434.093952179,4.0,part_1,,,,,,,,,,,,,blue,square
0.5,1,1.0,1.0,401.18598938,4.0,part_1,,,,,,,,,,,,,gray,diamond
2.0,1,2.0,2.0,417.39010810900004,4.0,part_1,,,,,,,,,,,,,yellow,triangle
4.0,1,4.0,4.0,534.471035004,4.0,part_1,,,,,,,,,,,,,green,flipped triangle
4.0,0,3.0,3.0,834.3129158019999,4.0,part_1,,,,,,,,,,,,,orange,line
0.5,1,4.0,4.0,501.39403343199996,4.0,part_1,,,,,,,,,,,,,gray,diamond
2.0,0,4.0,4.0,417.543888092,4.0,part_1,,,,,,,,,,,,,blue,square
2.0,0,3.0,3.0,601.505994797,4.0,part_1,,,,,,,,,,,,,blue,square
1.0,0,4.0,4.0,401.101112366,4.0,part_1,,,,,,,,,,,,,cyan,circle
2.0,0,4.0,4.0,550.9059429170001,4.0,part_1,,,,,,,,,,,,,blue,square
2.0,0,4.0,4.0,400.38895607,4.0,part_1,,,,,,,,,,,,,blue,square
2.0,1,3.0,3.0,468.22190284699997,4.0,part_1,,,,,,,,,,,,,yellow,triangle
0.5,0,1.0,1.0,500.892877579,4.0,part_1,,,,,,,,,,,,,magenta,cross
4.0,1,3.0,3.0,434.18097496,4.0,part_1,,,,,,,,,,,,,green,flipped triangle
2.0,1,3.0,3.0,434.36503410299997,4.0,part_1,,,,,,,,,,,,,yellow,triangle
4.0,0,3.0,3.0,417.318105698,4.0,part_1,,,,,,,,,,,,,orange,line
0.5,1,2.0,2.0,467.884063721,4.0,part_1,,,,,,,,,,,,,gray,diamond
4.0,1,3.0,3.0,417.151212692,4.0,part_1,,,,,,,,,,,,,green,flipped triangle
2.0,0,1.0,1.0,467.94199943499996,4.0,part_1,,,,,,,,,,,,,blue,square
4.0,0,2.0,2.0,434.471130371,4.0,part_1,,,,,,,,,,,,,orange,line
2.0,0,1.0,1.0,434.31901931799996,4.0,part_1,,,,,,,,,,,,,blue,square
2.0,0,3.0,3.0,401.09920501700003,4.0,part_1,,,,,,,,,,,,,blue,square
2.0,1,2.0,2.0,451.967000961,4.0,part_1,,,,,,,,,,,,,yellow,triangle
0.5,1,3.0,3.0,467.442035675,4.0,part_1,,,,,,,,,,,,,gray,diamond
0.5,1,2.0,2.0,401.268005371,4.0,part_1,,,,,,,,,,,,,gray,diamond
1.0,1,2.0,2.0,451.309919357,4.0,part_1,,,,,,,,,,,,,white,hexagon
1.0,0,3.0,3.0,400.24900436400003,4.0,part_1,,,,,,,,,,,,,cyan,circle
1.0,0,1.0,1.0,601.236820221,4.0,part_1,,,,,,,,,,,,,cyan,circle
1.0,1,2.0,2.0,417.58894920299997,4.0,part_1,,,,,,,,,,,,,white,hexagon
2.0,0,3.0,3.0,467.63491630600004,4.0,part_1,,,,,,,,,,,,,blue,square
2.0,1,6.0,,,1.0,,stop,250.0,250.0,4.0,,,,,,,,,yellow,triangle
2.0,0,6.0,6.0,400.20608902,1.0,part_2,go,250.0,250.0,1.0,,,,,,,,,blue,square
1.0,1,6.0,6.0,418.457984924,1.0,part_2,go,250.0,250.0,1.0,,,,,,,,,white,hexagon
4.0,1,6.0,6.0,484.09199714700003,1.0,part_2,stop,250.0,300.0,3.0,,,,,,,,,green,flipped triangle
1.0,1,5.0,,,1.0,,stop,250.0,300.0,4.0,,,,,,,,,white,hexagon
4.0,0,5.0,5.0,651.278972626,1.0,part_2,go,250.0,300.0,1.0,,,,,,,,,orange,line
0.5,0,6.0,6.0,718.5919284820001,1.0,part_2,go,250.0,300.0,1.0,,,,,,,,,magenta,cross
0.5,0,5.0,5.0,650.7639884949999,1.0,part_2,go,250.0,300.0,1.0,,,,,,,,,magenta,cross
1.0,1,6.0,,,1.0,,stop,250.0,250.0,4.0,,,,,,,,,white,hexagon
2.0,0,5.0,5.0,551.432132721,1.0,part_2,go,250.0,250.0,1.0,,,,,,,,,blue,square
4.0,0,5.0,5.0,534.2869758610001,1.0,part_2,go,250.0,250.0,1.0,,,,,,,,,orange,line
0.5,0,5.0,5.0,667.8388118739999,1.0,part_2,go,250.0,250.0,1.0,,,,,,,,,magenta,cross
4.0,1,6.0,6.0,484.400033951,1.0,part_2,stop,250.0,300.0,3.0,,,,,,,,,green,flipped triangle
2.0,1,5.0,,,1.0,,stop,300.0,300.0,4.0,,,,,,,,,yellow,triangle
1.0,0,5.0,5.0,500.515937805,1.0,part_2,go,300.0,300.0,1.0,,,,,,,,,cyan,circle
2.0,1,6.0,,,1.0,,stop,300.0,250.0,4.0,,,,,,,,,yellow,triangle
2.0,0,5.0,5.0,601.165056229,1.0,part_2,go,300.0,250.0,1.0,,,,,,,,,blue,square
2.0,0,5.0,5.0,700.536966324,1.0,part_2,go,300.0,250.0,1.0,,,,,,,,,blue,square
4.0,0,6.0,6.0,534.399986267,1.0,part_2,go,300.0,250.0,1.0,,,,,,,,,orange,line
0.5,0,5.0,5.0,484.445095062,1.0,part_2,go,300.0,250.0,1.0,,,,,,,,,magenta,cross
0.5,1,6.0,,,1.0,,stop,300.0,300.0,4.0,,,,,,,,,gray,diamond
1.0,1,6.0,,,1.0,,stop,300.0,350.0,4.0,,,,,,,,,white,hexagon
4.0,0,6.0,6.0,684.414863586,1.0,part_2,go,300.0,350.0,1.0,,,,,,,,,orange,line
4.0,1,5.0,,,1.0,,stop,350.0,350.0,4.0,,,,,,,,,green,flipped triangle
1.0,0,5.0,5.0,717.822790146,1.0,part_2,go,350.0,350.0,1.0,,,,,,,,,cyan,circle
1.0,0,6.0,6.0,784.6269607539999,1.0,part_2,go,350.0,350.0,1.0,,,,,,,,,cyan,circle
1.0,1,6.0,,,1.0,,stop,350.0,400.0,4.0,,,,,,,,,white,hexagon
0.5,0,6.0,6.0,601.155996323,1.0,part_2,go,350.0,400.0,1.0,,,,,,,,,magenta,cross
4.0,0,5.0,5.0,634.248018265,1.0,part_2,go,350.0,400.0,1.0,,,,,,,,,orange,line
0.5,0,6.0,6.0,417.757034302,1.0,part_2,go,350.0,400.0,1.0,,,,,,,,,magenta,cross
4.0,0,6.0,6.0,700.712203979,1.0,part_2,go,350.0,400.0,1.0,,,,,,,,,orange,line
1.0,0,5.0,5.0,734.061956406,1.0,part_2,go,350.0,400.0,1.0,,,,,,,,,cyan,circle
1.0,1,6.0,6.0,617.807865143,1.0,part_2,stop,350.0,450.0,3.0,,,,,,,,,white,hexagon
0.5,0,5.0,5.0,734.6010208130001,1.0,part_2,go,350.0,450.0,1.0,,,,,,,,,magenta,cross
0.5,0,5.0,5.0,801.080942154,1.0,part_2,go,350.0,450.0,1.0,,,,,,,,,magenta,cross
2.0,1,5.0,,,1.0,,stop,400.0,450.0,4.0,,,,,,,,,yellow,triangle
1.0,1,5.0,,,2.0,,stop,450.0,450.0,4.0,,,,,,,,,white,hexagon
1.0,1,5.0,,,2.0,,stop,500.0,450.0,4.0,,,,,,,,,white,hexagon
1.0,0,5.0,5.0,618.14904213,2.0,part_2,go,500.0,450.0,1.0,,,,,,,,,cyan,circle
1.0,0,6.0,6.0,734.25412178,2.0,part_2,go,500.0,450.0,1.0,,,,,,,,,cyan,circle
0.5,1,6.0,6.0,601.744174957,2.0,part_2,go,500.0,450.0,1.0,,,,,,,,,gray,diamond
1.0,0,6.0,,,2.0,,go,500.0,450.0,5.0,,,,,,,,,cyan,circle
2.0,0,6.0,6.0,583.9421749109999,2.0,part_2,go,500.0,450.0,1.0,,,,,,,,,blue,square
4.0,1,5.0,5.0,467.672109604,2.0,part_2,go,500.0,450.0,1.0,,,,,,,,,green,flipped triangle
1.0,0,6.0,6.0,617.37203598,2.0,part_2,go,500.0,450.0,1.0,,,,,,,,,cyan,circle
4.0,0,6.0,6.0,600.57091713,2.0,part_2,go,500.0,450.0,1.0,,,,,,,,,orange,line
1.0,1,6.0,6.0,684.946060181,2.0,part_2,go,500.0,450.0,1.0,,,,,,,,,white,hexagon
2.0,1,6.0,6.0,434.42487716700003,2.0,part_2,go,500.0,450.0,1.0,,,,,,,,,yellow,triangle
1.0,0,5.0,5.0,417.57917404200003,2.0,part_2,go,500.0,450.0,1.0,,,,,,,,,cyan,circle
2.0,0,5.0,5.0,517.824888229,2.0,part_2,go,500.0,450.0,1.0,,,,,,,,,blue,square
1.0,1,6.0,6.0,617.322921753,2.0,part_2,stop,500.0,400.0,3.0,,,,,,,,,white,hexagon
2.0,0,5.0,5.0,701.09295845,2.0,part_2,go,500.0,400.0,1.0,,,,,,,,,blue,square
0.5,0,5.0,5.0,684.772968292,2.0,part_2,go,500.0,400.0,1.0,,,,,,,,,magenta,cross
1.0,1,5.0,5.0,751.219987869,2.0,part_2,go,500.0,400.0,1.0,,,,,,,,,white,hexagon
1.0,1,5.0,5.0,717.9968357089999,2.0,part_2,go,500.0,400.0,1.0,,,,,,,,,white,hexagon
4.0,0,6.0,6.0,818.390846252,2.0,part_2,go,500.0,400.0,1.0,,,,,,,,,orange,line
4.0,1,6.0,,,2.0,,stop,500.0,350.0,4.0,,,,,,,,,green,flipped triangle
2.0,1,5.0,5.0,734.881877899,2.0,part_2,stop,550.0,350.0,3.0,,,,,,,,,yellow,triangle
1.0,1,6.0,,,2.0,,stop,550.0,400.0,4.0,,,,,,,,,white,hexagon
2.0,0,5.0,5.0,734.177827835,2.0,part_2,go,550.0,400.0,1.0,,,,,,,,,blue,square
2.0,1,6.0,6.0,868.1070804599999,2.0,part_2,go,550.0,400.0,1.0,,,,,,,,,yellow,triangle
0.5,1,5.0,5.0,584.465026855,2.0,part_2,stop,500.0,400.0,3.0,,,,,,,,,gray,diamond
1.0,1,5.0,5.0,884.945869446,2.0,part_2,go,500.0,400.0,1.0,,,,,,,,,white,hexagon
1.0,0,5.0,5.0,884.5820426939999,2.0,part_2,go,500.0,400.0,1.0,,,,,,,,,cyan,circle
1.0,1,6.0,6.0,834.0928554530001,2.0,part_2,go,500.0,400.0,1.0,,,,,,,,,white,hexagon
1.0,0,5.0,5.0,818.04895401,2.0,part_2,go,500.0,400.0,1.0,,,,,,,,,cyan,circle
4.0,1,5.0,,,2.0,,stop,450.0,400.0,4.0,,,,,,,,,green,flipped triangle
2.0,1,6.0,,,2.0,,stop,450.0,450.0,4.0,,,,,,,,,yellow,triangle
0.5,0,5.0,5.0,701.44701004,2.0,part_2,go,450.0,450.0,1.0,,,,,,,,,magenta,cross
0.5,1,6.0,,,2.0,,stop,450.0,500.0,4.0,,,,,,,,,gray,diamond
0.5,0,6.0,6.0,934.5898628230001,2.0,part_2,go,450.0,500.0,1.0,,,,,,,,,magenta,cross
4.0,0,6.0,6.0,818.10092926,2.0,part_2,go,450.0,500.0,1.0,,,,,,,,,orange,line
4.0,1,6.0,6.0,651.173114777,3.0,part_2,stop,450.0,550.0,3.0,,,,,,,,,green,flipped triangle
0.5,0,5.0,5.0,667.961120605,3.0,part_2,go,450.0,550.0,1.0,,,,,,,,,magenta,cross
2.0,0,6.0,6.0,801.589012146,3.0,part_2,go,450.0,550.0,1.0,,,,,,,,,blue,square
1.0,0,6.0,6.0,834.8391056060001,3.0,part_2,go,450.0,550.0,1.0,,,,,,,,,cyan,circle
4.0,1,6.0,,,3.0,,stop,450.0,500.0,4.0,,,,,,,,,green,flipped triangle
2.0,1,6.0,,,3.0,,stop,450.0,550.0,4.0,,,,,,,,,yellow,triangle
0.5,1,5.0,5.0,801.460981369,3.0,part_2,go,450.0,550.0,1.0,,,,,,,,,gray,diamond
1.0,0,5.0,5.0,784.140825272,3.0,part_2,go,450.0,550.0,1.0,,,,,,,,,cyan,circle
1.0,1,6.0,,,3.0,,stop,450.0,600.0,4.0,,,,,,,,,white,hexagon
1.0,1,5.0,,,3.0,,stop,500.0,600.0,4.0,,,,,,,,,white,hexagon
0.5,1,6.0,,,3.0,,stop,500.0,650.0,4.0,,,,,,,,,gray,diamond
1.0,0,6.0,6.0,784.260034561,3.0,part_2,go,500.0,650.0,1.0,,,,,,,,,cyan,circle
4.0,1,5.0,5.0,667.8228378299999,3.0,part_2,stop,550.0,650.0,3.0,,,,,,,,,green,flipped triangle
1.0,1,6.0,,,3.0,,stop,550.0,700.0,4.0,,,,,,,,,white,hexagon
0.5,1,5.0,,,3.0,,stop,500.0,700.0,4.0,,,,,,,,,gray,diamond
4.0,0,6.0,,,3.0,,go,500.0,700.0,5.0,,,,,,,,,orange,line
0.5,0,5.0,5.0,801.214933395,3.0,part_2,go,500.0,700.0,1.0,,,,,,,,,magenta,cross
4.0,1,6.0,6.0,751.481056213,3.0,part_2,stop,500.0,750.0,3.0,,,,,,,,,green,flipped triangle
1.0,1,6.0,6.0,834.7709178919999,3.0,part_2,stop,500.0,700.0,3.0,,,,,,,,,white,hexagon
0.5,0,6.0,6.0,851.924180984,3.0,part_2,go,500.0,700.0,1.0,,,,,,,,,magenta,cross
1.0,0,5.0,,,3.0,,go,500.0,700.0,5.0,,,,,,,,,cyan,circle
0.5,0,6.0,,,3.0,,go,500.0,700.0,5.0,,,,,,,,,magenta,cross
1.0,0,5.0,5.0,684.293985367,3.0,part_2,go,500.0,700.0,1.0,,,,,,,,,cyan,circle
2.0,1,5.0,5.0,651.100158691,3.0,part_2,stop,550.0,700.0,3.0,,,,,,,,,yellow,triangle
4.0,1,5.0,,,3.0,,stop,500.0,700.0,4.0,,,,,,,,,green,flipped triangle
1.0,1,5.0,,,3.0,,stop,550.0,700.0,4.0,,,,,,,,,white,hexagon
4.0,0,5.0,,,3.0,,go,550.0,700.0,5.0,,,,,,,,,orange,line
4.0,1,6.0,6.0,817.547798157,3.0,part_2,stop,550.0,650.0,3.0,,,,,,,,,green,flipped triangle
1.0,0,5.0,,,3.0,,go,550.0,650.0,5.0,,,,,,,,,cyan,circle
2.0,1,6.0,,,3.0,,stop,550.0,600.0,4.0,,,,,,,,,yellow,triangle
4.0,1,5.0,,,3.0,,stop,600.0,600.0,4.0,,,,,,,,,green,flipped triangle
0.5,1,5.0,,,3.0,,stop,650.0,600.0,4.0,,,,,,,,,gray,diamond
1.0,0,5.0,5.0,801.518917084,3.0,part_2,go,650.0,600.0,1.0,,,,,,,,,cyan,circle
2.0,1,6.0,,,3.0,,stop,650.0,650.0,4.0,,,,,,,,,yellow,triangle
4.0,1,6.0,,,3.0,,stop,650.0,700.0,4.0,,,,,,,,,green,flipped triangle
2.0,1,5.0,,,3.0,,stop,700.0,700.0,4.0,,,,,,,,,yellow,triangle
4.0,1,5.0,,,4.0,,stop,750.0,700.0,4.0,,,,,,,,,green,flipped triangle
1.0,0,5.0,,,4.0,,go,750.0,700.0,5.0,,,,,,,,,cyan,circle
1.0,1,5.0,5.0,817.961931229,4.0,part_2,stop,750.0,700.0,3.0,,,,,,,,,white,hexagon
0.5,0,5.0,,,4.0,,go,750.0,700.0,5.0,,,,,,,,,magenta,cross
4.0,1,6.0,,,4.0,,stop,750.0,750.0,4.0,,,,,,,,,green,flipped triangle
2.0,1,5.0,,,4.0,,stop,700.0,750.0,4.0,,,,,,,,,yellow,triangle
0.5,0,6.0,6.0,968.1689739230001,4.0,part_2,go,700.0,750.0,1.0,,,,,,,,,magenta,cross
0.5,1,6.0,,,4.0,,stop,700.0,750.0,4.0,,,,,,,,,gray,diamond
2.0,0,6.0,,,4.0,,go,700.0,750.0,5.0,,,,,,,,,blue,square
2.0,1,6.0,,,4.0,,go,700.0,750.0,5.0,,,,,,,,,yellow,triangle
0.5,0,5.0,5.0,884.634971619,4.0,part_2,go,700.0,750.0,1.0,,,,,,,,,magenta,cross
2.0,0,6.0,6.0,950.838804245,4.0,part_2,go,700.0,750.0,1.0,,,,,,,,,blue,square
4.0,0,6.0,6.0,918.437004089,4.0,part_2,go,700.0,750.0,1.0,,,,,,,,,orange,line
4.0,1,6.0,6.0,884.7019672389999,4.0,part_2,stop,700.0,750.0,3.0,,,,,,,,,green,flipped triangle
2.0,0,6.0,,,4.0,,go,700.0,750.0,5.0,,,,,,,,,blue,square
4.0,0,5.0,5.0,801.148176193,4.0,part_2,go,700.0,750.0,1.0,,,,,,,,,orange,line
2.0,0,6.0,,,4.0,,go,700.0,750.0,5.0,,,,,,,,,blue,square
0.5,0,5.0,,,4.0,,go,700.0,750.0,5.0,,,,,,,,,magenta,cross
2.0,1,5.0,5.0,884.530067444,4.0,part_2,stop,750.0,750.0,3.0,,,,,,,,,yellow,triangle
0.5,1,5.0,,,4.0,,stop,700.0,750.0,4.0,,,,,,,,,gray,diamond
0.5,1,6.0,,,4.0,,stop,700.0,700.0,4.0,,,,,,,,,gray,diamond
1.0,1,5.0,,,4.0,,stop,750.0,700.0,4.0,,,,,,,,,white,hexagon
1.0,0,5.0,,,4.0,,go,750.0,700.0,5.0,,,,,,,,,cyan,circle
1.0,1,5.0,,,4.0,,stop,750.0,700.0,4.0,,,,,,,,,white,hexagon
1.0,0,5.0,,,4.0,,go,750.0,700.0,5.0,,,,,,,,,cyan,circle
1.0,0,5.0,5.0,934.7088336940001,4.0,part_2,go,750.0,700.0,1.0,,,,,,,,,cyan,circle
2.0,1,5.0,,,4.0,,stop,750.0,700.0,4.0,,,,,,,,,yellow,triangle
0.5,0,6.0,6.0,768.634080887,4.0,part_2,go,750.0,700.0,1.0,,,,,,,,,magenta,cross
1.0,1,6.0,6.0,934.6320629119999,4.0,part_2,go,750.0,700.0,1.0,,,,,,,,,white,hexagon
2.0,0,5.0,,,4.0,,go,750.0,700.0,5.0,,,,,,,,,blue,square
4.0,0,6.0,6.0,918.259859085,4.0,part_2,go,750.0,700.0,1.0,,,,,,,,,orange,line
2.0,0,6.0,6.0,768.108844757,4.0,part_2,go,750.0,700.0,1.0,,,,,,,,,blue,square
0.5,1,5.0,,,4.0,,stop,750.0,700.0,4.0,,,,,,,,,gray,diamond
0.5,1,6.0,,,4.0,,stop,750.0,750.0,4.0,,,,,,,,,gray,diamond
1.0,0,6.0,6.0,851.691007614,4.0,part_2,go,750.0,750.0,1.0,,,,,,,,,cyan,circle
4.0,1,6.0,6.0,917.808055878,4.0,part_2,go,750.0,750.0,1.0,,,,,,,,,green,flipped triangle
2.0,1,5.0,,,5.0,,stop,750.0,750.0,4.0,,,,,,,,,yellow,triangle
4.0,0,6.0,,,5.0,,go,750.0,750.0,5.0,,,,,,,,,orange,line
1.0,0,6.0,6.0,851.39298439,5.0,part_2,go,750.0,750.0,1.0,,,,,,,,,cyan,circle
2.0,1,5.0,5.0,851.4559268950001,5.0,part_2,stop,750.0,750.0,3.0,,,,,,,,,yellow,triangle
0.5,1,6.0,,,5.0,,stop,750.0,750.0,4.0,,,,,,,,,gray,diamond
2.0,0,6.0,6.0,718.091964722,5.0,part_2,go,750.0,750.0,1.0,,,,,,,,,blue,square
0.5,1,5.0,,,5.0,,stop,700.0,750.0,4.0,,,,,,,,,gray,diamond
1.0,0,6.0,,,5.0,,go,700.0,750.0,5.0,,,,,,,,,cyan,circle
0.5,1,6.0,6.0,918.583154678,5.0,part_2,go,700.0,750.0,1.0,,,,,,,,,gray,diamond
0.5,1,5.0,,,5.0,,stop,750.0,750.0,4.0,,,,,,,,,gray,diamond
0.5,1,5.0,,,5.0,,stop,750.0,750.0,4.0,,,,,,,,,gray,diamond
4.0,0,5.0,,,5.0,,go,750.0,750.0,5.0,,,,,,,,,orange,line
1.0,0,6.0,6.0,901.5069007870001,5.0,part_2,go,750.0,750.0,1.0,,,,,,,,,cyan,circle
0.5,1,6.0,6.0,868.055820465,5.0,part_2,stop,750.0,750.0,3.0,,,,,,,,,gray,diamond
4.0,1,5.0,,,5.0,,stop,750.0,750.0,4.0,,,,,,,,,green,flipped triangle
2.0,0,5.0,,,5.0,,go,750.0,750.0,5.0,,,,,,,,,blue,square
2.0,0,6.0,,,5.0,,go,750.0,750.0,5.0,,,,,,,,,blue,square
0.5,1,6.0,,,5.0,,stop,750.0,700.0,4.0,,,,,,,,,gray,diamond
4.0,1,5.0,,,5.0,,stop,750.0,700.0,4.0,,,,,,,,,green,flipped triangle
4.0,1,5.0,,,5.0,,go,750.0,700.0,5.0,,,,,,,,,green,flipped triangle
1.0,1,5.0,,,5.0,,stop,750.0,700.0,4.0,,,,,,,,,white,hexagon
4.0,1,6.0,,,5.0,,go,750.0,700.0,5.0,,,,,,,,,green,flipped triangle
2.0,0,6.0,,,5.0,,go,750.0,700.0,5.0,,,,,,,,,blue,square
4.0,0,5.0,,,5.0,,go,750.0,700.0,5.0,,,,,,,,,orange,line
4.0,1,6.0,,,5.0,,stop,750.0,750.0,4.0,,,,,,,,,green,flipped triangle
2.0,1,6.0,,,5.0,,go,750.0,750.0,5.0,,,,,,,,,yellow,triangle
0.5,1,5.0,5.0,801.411151886,5.0,part_2,stop,750.0,750.0,3.0,,,,,,,,,gray,diamond
4.0,1,6.0,,,5.0,,stop,750.0,750.0,4.0,,,,,,,,,green,flipped triangle
4.0,0,6.0,,,5.0,,go,750.0,750.0,5.0,,,,,,,,,orange,line
0.5,0,5.0,,,5.0,,go,750.0,750.0,5.0,,,,,,,,,magenta,cross
2.0,1,6.0,6.0,967.795133591,5.0,part_2,go,750.0,750.0,1.0,,,,,,,,,yellow,triangle
2.0,0,5.0,,,5.0,,go,750.0,750.0,5.0,,,,,,,,,blue,square
2.0,0,6.0,,,5.0,,go,750.0,750.0,5.0,,,,,,,,,blue,square
4.0,0,5.0,5.0,801.023960114,5.0,part_2,go,750.0,750.0,1.0,,,,,,,,,orange,line
4.0,1,5.0,,,5.0,,stop,700.0,750.0,4.0,,,,,,,,,green,flipped triangle
4.0,0,5.0,,,5.0,,go,700.0,750.0,5.0,,,,,,,,,orange,line
0.5,1,6.0,,,6.0,,go,700.0,750.0,5.0,,,,,,,,,gray,diamond
0.5,0,5.0,5.0,802.0710945129999,6.0,part_2,go,700.0,750.0,1.0,,,,,,,,,magenta,cross
0.5,0,5.0,5.0,717.928886414,6.0,part_2,go,700.0,750.0,1.0,,,,,,,,,magenta,cross
0.5,0,6.0,6.0,617.763996124,6.0,part_2,go,700.0,750.0,1.0,,,,,,,,,magenta,cross
0.5,1,6.0,6.0,484.10701751700003,6.0,part_2,stop,700.0,750.0,3.0,,,,,,,,,gray,diamond
2.0,1,5.0,5.0,517.432928085,6.0,part_2,stop,750.0,750.0,3.0,,,,,,,,,yellow,triangle
0.5,1,6.0,6.0,734.18879509,6.0,part_2,stop,750.0,700.0,3.0,,,,,,,,,gray,diamond
4.0,1,6.0,6.0,350.867986679,6.0,part_2,go,750.0,700.0,1.0,,,,,,,,,green,flipped triangle
2.0,0,5.0,5.0,484.175920486,6.0,part_2,go,750.0,700.0,1.0,,,,,,,,,blue,square
1.0,1,5.0,5.0,450.90699195900004,6.0,part_2,stop,700.0,700.0,3.0,,,,,,,,,white,hexagon
1.0,1,5.0,5.0,451.27487182600004,6.0,part_2,stop,650.0,700.0,3.0,,,,,,,,,white,hexagon
0.5,0,6.0,6.0,367.65098571799996,6.0,part_2,go,650.0,700.0,1.0,,,,,,,,,magenta,cross
4.0,1,6.0,6.0,367.892026901,6.0,part_2,stop,650.0,650.0,3.0,,,,,,,,,green,flipped triangle
4.0,1,5.0,5.0,384.301900864,6.0,part_2,stop,600.0,650.0,3.0,,,,,,,,,green,flipped triangle
2.0,1,5.0,5.0,501.355886459,6.0,part_2,go,600.0,650.0,1.0,,,,,,,,,yellow,triangle
2.0,1,6.0,6.0,350.57592392,6.0,part_2,go,600.0,650.0,1.0,,,,,,,,,yellow,triangle
2.0,0,6.0,6.0,367.06089973400003,6.0,part_2,go,600.0,650.0,1.0,,,,,,,,,blue,square
0.5,1,5.0,5.0,417.475938797,6.0,part_2,stop,550.0,650.0,3.0,,,,,,,,,gray,diamond
0.5,1,5.0,5.0,416.944980621,6.0,part_2,stop,500.0,650.0,3.0,,,,,,,,,gray,diamond
4.0,0,6.0,6.0,301.330089569,6.0,part_2,go,500.0,650.0,1.0,,,,,,,,,orange,line
0.5,0,6.0,6.0,367.919921875,6.0,part_2,go,500.0,650.0,1.0,,,,,,,,,magenta,cross
0.5,0,6.0,6.0,333.935022354,6.0,part_2,go,500.0,650.0,1.0,,,,,,,,,magenta,cross
1.0,1,5.0,5.0,334.58495140099996,6.0,part_2,stop,450.0,650.0,3.0,,,,,,,,,white,hexagon
2.0,1,6.0,6.0,350.956916809,6.0,part_2,stop,450.0,600.0,3.0,,,,,,,,,yellow,triangle
1.0,1,5.0,5.0,317.10410118100003,6.0,part_2,stop,400.0,600.0,3.0,,,,,,,,,white,hexagon
4.0,0,6.0,6.0,384.001016617,6.0,part_2,go,400.0,600.0,1.0,,,,,,,,,orange,line
1.0,0,6.0,6.0,367.871046066,6.0,part_2,go,400.0,600.0,1.0,,,,,,,,,cyan,circle
0.5,1,5.0,5.0,367.07091331500004,6.0,part_2,stop,350.0,600.0,3.0,,,,,,,,,gray,diamond
0.5,1,5.0,5.0,301.398992538,6.0,part_2,stop,300.0,600.0,3.0,,,,,,,,,gray,diamond
1.0,0,6.0,6.0,350.67987442,6.0,part_2,go,300.0,600.0,1.0,,,,,,,,,cyan,circle
0.5,0,5.0,5.0,350.468158722,6.0,part_2,go,300.0,600.0,1.0,,,,,,,,,magenta,cross
4.0,0,5.0,5.0,434.001922607,6.0,part_2,go,300.0,600.0,1.0,,,,,,,,,orange,line
2.0,1,5.0,5.0,401.067972183,6.0,part_2,stop,250.0,600.0,3.0,,,,,,,,,yellow,triangle
1.0,1,6.0,6.0,350.723028183,6.0,part_2,stop,250.0,550.0,3.0,,,,,,,,,white,hexagon
1.0,1,6.0,6.0,384.276151657,6.0,part_2,go,250.0,550.0,1.0,,,,,,,,,white,hexagon
0.5,0,5.0,5.0,383.998155594,6.0,part_2,go,250.0,550.0,1.0,,,,,,,,,magenta,cross
4.0,1,6.0,,,7.0,,stop,250.0,500.0,4.0,,,,,,,,,green,flipped triangle
4.0,0,6.0,6.0,650.677919388,7.0,part_2,go,250.0,500.0,1.0,,,,,,,,,orange,line
1.0,0,6.0,6.0,734.636068344,7.0,part_2,go,250.0,500.0,1.0,,,,,,,,,cyan,circle
2.0,0,5.0,5.0,601.26709938,7.0,part_2,go,250.0,500.0,1.0,,,,,,,,,blue,square
2.0,0,5.0,5.0,868.059873581,7.0,part_2,go,250.0,500.0,1.0,,,,,,,,,blue,square
0.5,1,6.0,6.0,667.855024338,7.0,part_2,go,250.0,500.0,1.0,,,,,,,,,gray,diamond
2.0,0,5.0,5.0,650.9499549870001,7.0,part_2,go,250.0,500.0,1.0,,,,,,,,,blue,square
4.0,1,5.0,,,7.0,,stop,200.0,500.0,4.0,,,,,,,,,green,flipped triangle
4.0,0,5.0,5.0,734.475135803,7.0,part_2,go,200.0,500.0,1.0,,,,,,,,,orange,line
2.0,1,5.0,,,7.0,,stop,250.0,500.0,4.0,,,,,,,,,yellow,triangle
1.0,0,6.0,6.0,634.675979614,7.0,part_2,go,250.0,500.0,1.0,,,,,,,,,cyan,circle
0.5,0,5.0,5.0,551.172971725,7.0,part_2,go,250.0,500.0,1.0,,,,,,,,,magenta,cross
4.0,0,5.0,5.0,517.514944077,7.0,part_2,go,250.0,500.0,1.0,,,,,,,,,orange,line
4.0,1,6.0,6.0,517.6820755,7.0,part_2,go,250.0,500.0,1.0,,,,,,,,,green,flipped triangle
2.0,0,6.0,6.0,817.720890045,7.0,part_2,go,250.0,500.0,1.0,,,,,,,,,blue,square
1.0,0,5.0,5.0,884.306192398,7.0,part_2,go,250.0,500.0,1.0,,,,,,,,,cyan,circle
0.5,0,6.0,6.0,535.1610183720001,7.0,part_2,go,250.0,500.0,1.0,,,,,,,,,magenta,cross
2.0,0,6.0,6.0,650.949001312,7.0,part_2,go,250.0,500.0,1.0,,,,,,,,,blue,square
2.0,1,6.0,,,7.0,,stop,250.0,550.0,4.0,,,,,,,,,yellow,triangle
2.0,1,5.0,,,7.0,,stop,300.0,550.0,4.0,,,,,,,,,yellow,triangle
2.0,1,6.0,6.0,734.3928813929999,7.0,part_2,stop,300.0,600.0,3.0,,,,,,,,,yellow,triangle
2.0,1,5.0,,,7.0,,stop,350.0,600.0,4.0,,,,,,,,,yellow,triangle
4.0,0,6.0,6.0,667.845964432,7.0,part_2,go,350.0,600.0,1.0,,,,,,,,,orange,line
0.5,1,6.0,6.0,784.461021423,7.0,part_2,go,350.0,600.0,1.0,,,,,,,,,gray,diamond
4.0,1,5.0,,,7.0,,stop,400.0,600.0,4.0,,,,,,,,,green,flipped triangle
2.0,1,6.0,6.0,718.075037003,7.0,part_2,go,400.0,600.0,1.0,,,,,,,,,yellow,triangle
1.0,1,5.0,,,7.0,,stop,450.0,600.0,4.0,,,,,,,,,white,hexagon
1.0,1,5.0,5.0,834.479808807,7.0,part_2,go,450.0,600.0,1.0,,,,,,,,,white,hexagon
0.5,1,6.0,,,7.0,,stop,450.0,550.0,4.0,,,,,,,,,gray,diamond
0.5,1,5.0,,,7.0,,stop,500.0,550.0,4.0,,,,,,,,,gray,diamond
4.0,1,6.0,6.0,684.3769550320001,7.0,part_2,go,500.0,550.0,1.0,,,,,,,,,green,flipped triangle
4.0,0,5.0,5.0,667.998075485,7.0,part_2,go,500.0,550.0,1.0,,,,,,,,,orange,line
0.5,0,5.0,5.0,517.941951752,7.0,part_2,go,500.0,550.0,1.0,,,,,,,,,magenta,cross
1.0,0,6.0,6.0,785.429000854,7.0,part_2,go,500.0,550.0,1.0,,,,,,,,,cyan,circle
2.0,1,5.0,,,7.0,,stop,550.0,550.0,4.0,,,,,,,,,yellow,triangle
4.0,0,6.0,6.0,801.4731407170001,7.0,part_2,go,550.0,550.0,1.0,,,,,,,,,orange,line
1.0,0,6.0,6.0,818.704128265,8.0,part_2,go,550.0,550.0,1.0,,,,,,,,,cyan,circle
0.5,1,5.0,5.0,801.4938831329999,8.0,part_2,go,550.0,550.0,1.0,,,,,,,,,gray,diamond
4.0,0,5.0,5.0,751.395940781,8.0,part_2,go,550.0,550.0,1.0,,,,,,,,,orange,line
4.0,0,5.0,5.0,684.600114822,8.0,part_2,go,550.0,550.0,1.0,,,,,,,,,orange,line
0.5,1,5.0,5.0,784.548044205,8.0,part_2,go,550.0,550.0,1.0,,,,,,,,,gray,diamond
1.0,0,5.0,5.0,618.581056595,8.0,part_2,go,550.0,550.0,1.0,,,,,,,,,cyan,circle
1.0,1,6.0,6.0,717.539072037,8.0,part_2,stop,550.0,600.0,3.0,,,,,,,,,white,hexagon
2.0,0,5.0,,,8.0,,go,550.0,600.0,5.0,,,,,,,,,blue,square
2.0,0,6.0,6.0,701.620101929,8.0,part_2,go,550.0,600.0,1.0,,,,,,,,,blue,square
4.0,1,6.0,6.0,901.241064072,8.0,part_2,go,550.0,600.0,1.0,,,,,,,,,green,flipped triangle
4.0,0,6.0,,,8.0,,go,550.0,600.0,5.0,,,,,,,,,orange,line
2.0,0,6.0,6.0,851.3500690459999,8.0,part_2,go,550.0,600.0,1.0,,,,,,,,,blue,square
2.0,1,6.0,6.0,400.37393569899996,8.0,part_2,stop,550.0,550.0,3.0,,,,,,,,,yellow,triangle
2.0,1,5.0,5.0,667.752027512,8.0,part_2,go,550.0,550.0,1.0,,,,,,,,,yellow,triangle
4.0,0,5.0,5.0,568.141937256,8.0,part_2,go,550.0,550.0,1.0,,,,,,,,,orange,line
0.5,0,5.0,5.0,618.0469989779999,8.0,part_2,go,550.0,550.0,1.0,,,,,,,,,magenta,cross
1.0,0,5.0,5.0,634.01889801,8.0,part_2,go,550.0,550.0,1.0,,,,,,,,,cyan,circle
2.0,1,5.0,5.0,667.651176453,8.0,part_2,stop,600.0,550.0,3.0,,,,,,,,,yellow,triangle
2.0,0,6.0,6.0,717.7250385279999,8.0,part_2,go,600.0,550.0,1.0,,,,,,,,,blue,square
0.5,0,6.0,6.0,750.89097023,8.0,part_2,go,600.0,550.0,1.0,,,,,,,,,magenta,cross
0.5,1,6.0,6.0,834.576845169,8.0,part_2,go,600.0,550.0,1.0,,,,,,,,,gray,diamond
4.0,0,5.0,5.0,868.027925491,8.0,part_2,go,600.0,550.0,1.0,,,,,,,,,orange,line
2.0,0,6.0,6.0,817.544937134,8.0,part_2,go,600.0,550.0,1.0,,,,,,,,,blue,square
2.0,0,6.0,6.0,451.032876968,8.0,part_2,go,600.0,550.0,1.0,,,,,,,,,blue,square
0.5,1,6.0,,,8.0,,stop,600.0,500.0,4.0,,,,,,,,,gray,diamond
0.5,0,6.0,6.0,784.512996674,8.0,part_2,go,600.0,500.0,1.0,,,,,,,,,magenta,cross
1.0,1,5.0,,,8.0,,stop,550.0,500.0,4.0,,,,,,,,,white,hexagon
4.0,0,6.0,6.0,934.546947479,8.0,part_2,go,550.0,500.0,1.0,,,,,,,,,orange,line
1.0,0,5.0,5.0,901.350975037,8.0,part_2,go,550.0,500.0,1.0,,,,,,,,,cyan,circle
4.0,0,6.0,6.0,934.626102448,8.0,part_2,go,550.0,500.0,1.0,,,,,,,,,orange,line
1.0,1,5.0,,,8.0,,stop,600.0,500.0,4.0,,,,,,,,,white,hexagon
0.5,0,6.0,6.0,918.113946915,8.0,part_2,go,600.0,500.0,1.0,,,,,,,,,magenta,cross
2.0,0,6.0,,,8.0,,go,600.0,500.0,5.0,,,,,,,,,blue,square
4.0,1,5.0,5.0,917.8180694580001,8.0,part_2,go,600.0,500.0,1.0,,,,,,,,,green,flipped triangle
2.0,0,5.0,5.0,767.9591178889999,8.0,part_2,go,600.0,500.0,1.0,,,,,,,,,blue,square
4.0,1,5.0,5.0,784.7540378570001,8.0,part_2,stop,650.0,500.0,3.0,,,,,,,,,green,flipped triangle
2.0,1,7.0,5.0,2169.3801879899997,1.0,part_3,stop,,,,220.0,5.0,44.0,88.0,132.0,264.0,220.0,176.0,yellow,triangle
4.0,0,7.0,2.0,4571.5379715,1.0,part_3,go,,,,294.0,6.0,49.0,294.0,196.0,147.0,245.0,98.0,orange,line
4.0,1,7.0,5.0,3938.34400177,1.0,part_3,stop,,,,195.0,5.0,39.0,117.0,234.0,156.0,195.0,78.0,green,flipped triangle
2.0,0,7.0,2.0,2502.86221504,1.0,part_3,go,,,,204.0,6.0,34.0,204.0,102.0,68.0,170.0,136.0,blue,square
0.5,0,7.0,4.0,3054.0330409999997,1.0,part_3,go,,,,270.0,5.0,54.0,324.0,162.0,270.0,216.0,108.0,magenta,cross
2.0,0,7.0,5.0,3420.7599163100003,1.0,part_3,go,,,,245.0,5.0,196.0,49.0,294.0,147.0,245.0,98.0,blue,square
0.5,0,7.0,4.0,4705.50107956,1.0,part_3,go,,,,136.0,4.0,204.0,68.0,170.0,136.0,102.0,34.0,magenta,cross
4.0,0,7.0,2.0,3854.596138,1.0,part_3,go,,,,195.0,5.0,117.0,195.0,78.0,234.0,156.0,39.0,orange,line
1.0,1,7.0,6.0,3503.9420127900003,1.0,part_3,stop,,,,170.0,5.0,204.0,102.0,34.0,68.0,136.0,170.0,white,hexagon
0.5,1,7.0,2.0,3304.04400826,1.0,part_3,stop,,,,324.0,6.0,270.0,324.0,162.0,216.0,108.0,54.0,gray,diamond
0.5,1,7.0,6.0,2636.39783859,1.0,part_3,stop,,,,195.0,5.0,117.0,156.0,234.0,39.0,78.0,195.0,gray,diamond
0.5,0,7.0,1.0,3137.26186752,1.0,part_3,go,,,,132.0,3.0,132.0,88.0,264.0,220.0,44.0,176.0,magenta,cross
2.0,1,7.0,4.0,3170.81904411,1.0,part_3,stop,,,,195.0,5.0,39.0,117.0,156.0,195.0,234.0,78.0,yellow,triangle
4.0,1,7.0,2.0,3487.4620437599997,1.0,part_3,stop,,,,156.0,4.0,39.0,156.0,78.0,234.0,117.0,195.0,green,flipped triangle
0.5,0,7.0,3.0,2135.75196266,1.0,part_3,go,,,,195.0,5.0,78.0,156.0,195.0,234.0,117.0,39.0,magenta,cross
4.0,1,7.0,5.0,3169.8470115699997,1.0,part_3,stop,,,,270.0,5.0,54.0,216.0,162.0,108.0,270.0,324.0,green,flipped triangle
0.5,0,7.0,2.0,3187.25705147,1.0,part_3,go,,,,195.0,5.0,156.0,195.0,234.0,39.0,117.0,78.0,magenta,cross
0.5,1,7.0,4.0,2269.49381828,1.0,part_3,stop,,,,176.0,4.0,44.0,132.0,264.0,176.0,88.0,220.0,gray,diamond
4.0,0,7.0,1.0,3103.45888138,1.0,part_3,go,,,,220.0,5.0,220.0,132.0,88.0,44.0,264.0,176.0,orange,line
0.5,1,7.0,2.0,2686.69390678,1.0,part_3,stop,,,,270.0,5.0,216.0,270.0,54.0,108.0,162.0,324.0,gray,diamond
0.5,0,7.0,6.0,2252.5300979599997,2.0,part_3,go,,,,270.0,5.0,216.0,54.0,108.0,324.0,162.0,270.0,magenta,cross
2.0,1,7.0,4.0,3203.7820816,2.0,part_3,stop,,,,220.0,5.0,132.0,44.0,264.0,220.0,88.0,176.0,yellow,triangle
1.0,0,7.0,1.0,2519.6468830100002,2.0,part_3,go,,,,195.0,5.0,195.0,117.0,234.0,78.0,39.0,156.0,cyan,circle
2.0,0,7.0,2.0,3453.9778232599997,2.0,part_3,go,,,,136.0,4.0,34.0,136.0,102.0,204.0,170.0,68.0,blue,square
4.0,0,7.0,3.0,3403.58614922,2.0,part_3,go,,,,170.0,5.0,102.0,204.0,170.0,136.0,34.0,68.0,orange,line
1.0,1,7.0,2.0,2402.74405479,2.0,part_3,stop,,,,220.0,5.0,176.0,220.0,44.0,264.0,88.0,132.0,white,hexagon
1.0,0,7.0,4.0,2953.4859657300003,2.0,part_3,go,,,,136.0,4.0,34.0,68.0,102.0,136.0,170.0,204.0,cyan,circle
2.0,1,7.0,5.0,3337.49985695,2.0,part_3,stop,,,,170.0,5.0,136.0,102.0,204.0,68.0,170.0,34.0,yellow,triangle
2.0,0,7.0,5.0,2569.44990158,2.0,part_3,go,,,,220.0,5.0,132.0,176.0,44.0,264.0,220.0,88.0,blue,square
4.0,0,7.0,2.0,3003.33213806,2.0,part_3,go,,,,220.0,5.0,176.0,220.0,132.0,88.0,264.0,44.0,orange,line
2.0,1,7.0,6.0,3220.35598755,2.0,part_3,stop,,,,170.0,5.0,136.0,102.0,204.0,34.0,68.0,170.0,yellow,triangle
2.0,0,7.0,1.0,3053.69591713,2.0,part_3,go,,,,245.0,5.0,245.0,49.0,196.0,147.0,98.0,294.0,blue,square
4.0,1,7.0,6.0,3103.67798805,2.0,part_3,stop,,,,245.0,5.0,294.0,196.0,147.0,98.0,49.0,245.0,green,flipped triangle
0.5,0,7.0,6.0,2903.39493752,2.0,part_3,go,,,,196.0,4.0,49.0,98.0,245.0,294.0,147.0,196.0,magenta,cross
1.0,0,7.0,2.0,2636.85297966,2.0,part_3,go,,,,147.0,3.0,98.0,147.0,196.0,245.0,49.0,294.0,cyan,circle
2.0,1,7.0,3.0,2753.5331249200003,2.0,part_3,stop,,,,234.0,6.0,78.0,156.0,234.0,39.0,195.0,117.0,yellow,triangle
1.0,1,7.0,5.0,2770.02882957,2.0,part_3,stop,,,,216.0,4.0,162.0,270.0,54.0,108.0,216.0,324.0,white,hexagon
2.0,0,7.0,5.0,3220.60108185,2.0,part_3,go,,,,220.0,5.0,176.0,88.0,132.0,44.0,220.0,264.0,blue,square
0.5,1,7.0,6.0,3154.08182144,2.0,part_3,stop,,,,170.0,5.0,204.0,68.0,34.0,102.0,136.0,170.0,gray,diamond
0.5,1,7.0,3.0,3303.40099335,2.0,part_3,stop,,,,196.0,4.0,49.0,245.0,196.0,294.0,98.0,147.0,gray,diamond
0.5,1,7.0,3.0,1884.47213173,3.0,part_3,stop,,,,176.0,4.0,44.0,220.0,176.0,264.0,132.0,88.0,gray,diamond
2.0,1,7.0,6.0,1818.68004799,3.0,part_3,stop,,,,196.0,4.0,98.0,49.0,294.0,147.0,245.0,196.0,yellow,triangle
1.0,0,7.0,4.0,2169.57402229,3.0,part_3,go,,,,170.0,5.0,102.0,136.0,68.0,170.0,204.0,34.0,cyan,circle
1.0,1,7.0,2.0,3070.21808624,3.0,part_3,stop,,,,156.0,4.0,78.0,156.0,195.0,117.0,39.0,234.0,white,hexagon
1.0,0,7.0,1.0,2352.84090042,3.0,part_3,go,,,,270.0,5.0,270.0,324.0,54.0,162.0,108.0,216.0,cyan,circle
1.0,1,7.0,5.0,2969.5670604700003,3.0,part_3,stop,,,,44.0,1.0,132.0,264.0,220.0,176.0,44.0,88.0,white,hexagon
1.0,0,7.0,2.0,3487.4958991999997,3.0,part_3,go,,,,195.0,5.0,117.0,195.0,39.0,78.0,234.0,156.0,cyan,circle
0.5,0,7.0,3.0,3037.23192215,3.0,part_3,go,,,,176.0,4.0,44.0,88.0,176.0,132.0,220.0,264.0,magenta,cross
1.0,1,7.0,2.0,3287.2850894900002,3.0,part_3,stop,,,,170.0,5.0,136.0,170.0,204.0,102.0,34.0,68.0,white,hexagon
0.5,1,7.0,3.0,3470.84999084,3.0,part_3,stop,,,,196.0,4.0,98.0,49.0,196.0,147.0,245.0,294.0,gray,diamond
1.0,0,7.0,3.0,2870.6090450300003,3.0,part_3,go,,,,220.0,5.0,264.0,132.0,220.0,88.0,44.0,176.0,cyan,circle
0.5,0,7.0,2.0,3421.02193832,3.0,part_3,go,,,,196.0,4.0,147.0,196.0,245.0,98.0,294.0,49.0,magenta,cross
0.5,1,7.0,1.0,2769.86789703,3.0,part_3,stop,,,,195.0,5.0,195.0,117.0,78.0,39.0,234.0,156.0,gray,diamond
4.0,1,7.0,2.0,2653.1188488000003,3.0,part_3,stop,,,,170.0,5.0,34.0,170.0,204.0,136.0,102.0,68.0,green,flipped triangle
4.0,0,7.0,6.0,3286.6990566299996,3.0,part_3,go,,,,216.0,4.0,54.0,162.0,108.0,324.0,270.0,216.0,orange,line
4.0,1,7.0,3.0,3437.48188019,3.0,part_3,stop,,,,220.0,5.0,176.0,264.0,220.0,132.0,44.0,88.0,green,flipped triangle
4.0,1,7.0,4.0,3237.33687401,3.0,part_3,stop,,,,196.0,4.0,245.0,294.0,147.0,196.0,98.0,49.0,green,flipped triangle
4.0,1,7.0,3.0,3353.6059856399997,3.0,part_3,stop,,,,176.0,4.0,220.0,44.0,176.0,88.0,132.0,264.0,green,flipped triangle
0.5,0,7.0,3.0,3053.47204208,3.0,part_3,go,,,,170.0,5.0,102.0,204.0,170.0,68.0,34.0,136.0,magenta,cross
1.0,0,7.0,2.0,4321.64096832,3.0,part_3,go,,,,270.0,5.0,108.0,270.0,162.0,216.0,54.0,324.0,cyan,circle
1.0,1,7.0,4.0,2269.02294159,4.0,part_3,stop,,,,216.0,4.0,162.0,270.0,108.0,216.0,324.0,54.0,white,hexagon
1.0,1,7.0,3.0,2953.76491547,4.0,part_3,stop,,,,245.0,5.0,98.0,49.0,245.0,147.0,196.0,294.0,white,hexagon
1.0,1,7.0,4.0,2618.80993843,4.0,part_3,stop,,,,196.0,4.0,98.0,49.0,294.0,196.0,245.0,147.0,white,hexagon
1.0,0,7.0,1.0,3120.60880661,4.0,part_3,go,,,,245.0,5.0,245.0,98.0,294.0,196.0,147.0,49.0,cyan,circle
1.0,0,7.0,4.0,2803.05194855,4.0,part_3,go,,,,44.0,1.0,264.0,132.0,176.0,44.0,220.0,88.0,cyan,circle
4.0,0,7.0,3.0,3420.6597804999997,4.0,part_3,go,,,,245.0,5.0,49.0,294.0,245.0,147.0,98.0,196.0,orange,line
4.0,0,7.0,6.0,3454.06913757,4.0,part_3,go,,,,195.0,5.0,234.0,117.0,156.0,78.0,39.0,195.0,orange,line
2.0,1,7.0,5.0,4354.89296913,4.0,part_3,stop,,,,216.0,4.0,324.0,162.0,108.0,270.0,216.0,54.0,yellow,triangle
2.0,1,7.0,1.0,4238.220930099999,4.0,part_3,stop,,,,216.0,4.0,216.0,54.0,108.0,324.0,162.0,270.0,yellow,triangle
2.0,0,7.0,3.0,4905.93600273,4.0,part_3,go,,,,216.0,4.0,108.0,324.0,216.0,270.0,54.0,162.0,blue,square
1.0,1,7.0,4.0,4922.716856,4.0,part_3,stop,,,,156.0,4.0,117.0,234.0,195.0,156.0,39.0,78.0,white,hexagon
0.5,1,7.0,1.0,3937.5448226900003,4.0,part_3,stop,,,,170.0,5.0,170.0,136.0,68.0,204.0,34.0,102.0,gray,diamond
4.0,1,7.0,1.0,2853.01804543,4.0,part_3,stop,,,,170.0,5.0,170.0,136.0,68.0,102.0,204.0,34.0,green,flipped triangle
2.0,1,7.0,3.0,3003.32999229,4.0,part_3,stop,,,,196.0,4.0,147.0,294.0,196.0,98.0,49.0,245.0,yellow,triangle
2.0,0,7.0,2.0,1818.22419167,4.0,part_3,go,,,,78.0,2.0,195.0,78.0,117.0,234.0,156.0,39.0,blue,square
2.0,0,7.0,5.0,3220.25895119,4.0,part_3,go,,,,195.0,5.0,156.0,78.0,234.0,39.0,195.0,117.0,blue,square
4.0,0,7.0,4.0,3253.48901749,4.0,part_3,go,,,,216.0,4.0,162.0,54.0,324.0,216.0,108.0,270.0,orange,line
4.0,0,7.0,4.0,2302.35600471,4.0,part_3,go,,,,170.0,5.0,68.0,34.0,204.0,170.0,102.0,136.0,orange,line
4.0,1,7.0,2.0,4004.50110435,4.0,part_3,stop,,,,216.0,4.0,108.0,216.0,270.0,324.0,54.0,162.0,green,flipped triangle
2.0,0,7.0,5.0,2620.20897865,4.0,part_3,go,,,,270.0,5.0,162.0,324.0,216.0,108.0,270.0,54.0,blue,square
