raw_reward_magnitude,stim_reward,stepwise_reward_magnitude,paired_with_stopping,stim_location,response,reaction_time,block,num_trial_presentations,which_phase,stop_signal_trial_type,left_SSD,right_SSD,accuracy,chosen_bidding_amount,chosen_bidding_level,possible_bid_1,possible_bid_2,possible_bid_3,possible_bid_4,possible_bid_5,possible_bid_6,color_text,shape_text
0.0,2.0,0.0,0.0,3.0,3.0,460.4659249998803,1.0,1.0,phase_1,,,,,,,,,,,,,yellow,hexagon
65.0,5.0,1.0,1.0,1.0,1.0,505.04049999995004,1.0,1.0,phase_1,,,,,,,,,,,,,green,cross
381.0,4.0,4.0,0.0,2.0,2.0,501.4711860001171,1.0,1.0,phase_1,,,,,,,,,,,,,cyan,square
410.0,8.0,4.0,1.0,2.0,2.0,461.8117400000301,1.0,1.0,phase_1,,,,,,,,,,,,,gray,flipped triangle
38.0,1.0,1.0,0.0,1.0,1.0,444.6282620001511,1.0,1.0,phase_1,,,,,,,,,,,,,magenta,triangle
388.0,8.0,4.0,1.0,3.0,3.0,449.7894789999463,1.0,1.0,phase_1,,,,,,,,,,,,,gray,flipped triangle
111.0,6.0,2.0,1.0,2.0,2.0,362.9918149999867,1.0,1.0,phase_1,,,,,,,,,,,,,white,I
224.0,7.0,3.0,1.0,1.0,1.0,464.7186459999375,1.0,1.0,phase_1,,,,,,,,,,,,,orange,circle
28.0,1.0,1.0,0.0,4.0,4.0,433.5485380001955,1.0,1.0,phase_1,,,,,,,,,,,,,magenta,triangle
64.0,5.0,1.0,1.0,2.0,2.0,382.6991490000182,1.0,1.0,phase_1,,,,,,,,,,,,,green,cross
49.0,1.0,1.0,0.0,1.0,1.0,325.8960489999936,1.0,1.0,phase_1,,,,,,,,,,,,,magenta,triangle
68.0,1.0,1.0,0.0,2.0,2.0,342.4061450000408,1.0,1.0,phase_1,,,,,,,,,,,,,magenta,triangle
415.0,4.0,4.0,0.0,1.0,1.0,351.0071079999761,1.0,1.0,phase_1,,,,,,,,,,,,,cyan,square
57.0,1.0,1.0,0.0,4.0,4.0,317.7538659999754,1.0,1.0,phase_1,,,,,,,,,,,,,magenta,triangle
0.0,2.0,0.0,0.0,4.0,4.0,323.228914000083,1.0,1.0,phase_1,,,,,,,,,,,,,yellow,hexagon
118.0,6.0,2.0,1.0,3.0,3.0,418.7110479999774,1.0,1.0,phase_1,,,,,,,,,,,,,white,I
198.0,7.0,3.0,1.0,1.0,1.0,415.9005019998858,1.0,1.0,phase_1,,,,,,,,,,,,,orange,circle
185.0,3.0,3.0,0.0,4.0,4.0,326.8734660000518,1.0,1.0,phase_1,,,,,,,,,,,,,blue,diamond
34.0,5.0,1.0,1.0,3.0,3.0,389.6200500000759,1.0,1.0,phase_1,,,,,,,,,,,,,green,cross
114.0,6.0,2.0,1.0,1.0,1.0,331.815934999895,1.0,1.0,phase_1,,,,,,,,,,,,,white,I
0.0,4.0,0.0,0.0,1.0,1.0,370.8601019998241,1.0,1.0,phase_1,,,,,,,,,,,,,cyan,square
381.0,8.0,4.0,1.0,4.0,4.0,405.053788000032,1.0,1.0,phase_1,,,,,,,,,,,,,gray,flipped triangle
188.0,3.0,3.0,0.0,3.0,3.0,417.365387000018,1.0,1.0,phase_1,,,,,,,,,,,,,blue,diamond
0.0,8.0,0.0,1.0,4.0,4.0,364.1643800001475,1.0,1.0,phase_1,,,,,,,,,,,,,gray,flipped triangle
192.0,7.0,3.0,1.0,4.0,4.0,395.5850650002048,1.0,1.0,phase_1,,,,,,,,,,,,,orange,circle
423.0,4.0,4.0,0.0,3.0,3.0,432.5674389999676,1.0,1.0,phase_1,,,,,,,,,,,,,cyan,square
376.0,8.0,4.0,1.0,1.0,1.0,373.9772020001055,1.0,1.0,phase_1,,,,,,,,,,,,,gray,flipped triangle
415.0,4.0,4.0,0.0,3.0,3.0,374.5182569998633,1.0,1.0,phase_1,,,,,,,,,,,,,cyan,square
178.0,3.0,3.0,0.0,3.0,3.0,391.8672769998466,1.0,1.0,phase_1,,,,,,,,,,,,,blue,diamond
0.0,6.0,0.0,1.0,3.0,3.0,343.6887059999662,1.0,1.0,phase_1,,,,,,,,,,,,,white,I
84.0,6.0,2.0,1.0,4.0,4.0,402.9426960000819,1.0,1.0,phase_1,,,,,,,,,,,,,white,I
388.0,4.0,4.0,0.0,4.0,4.0,360.4766670000572,1.0,1.0,phase_1,,,,,,,,,,,,,cyan,square
212.0,3.0,3.0,0.0,3.0,3.0,341.1811940000007,1.0,1.0,phase_1,,,,,,,,,,,,,blue,diamond
0.0,6.0,0.0,1.0,3.0,3.0,350.3785450000123,1.0,1.0,phase_1,,,,,,,,,,,,,white,I
219.0,3.0,3.0,0.0,1.0,1.0,483.7200320000647,1.0,1.0,phase_1,,,,,,,,,,,,,blue,diamond
415.0,8.0,4.0,1.0,4.0,4.0,384.2029109998748,1.0,1.0,phase_1,,,,,,,,,,,,,gray,flipped triangle
0.0,4.0,0.0,0.0,3.0,3.0,354.8457120000421,1.0,1.0,phase_1,,,,,,,,,,,,,cyan,square
83.0,6.0,2.0,1.0,1.0,1.0,431.6479780000009,1.0,1.0,phase_1,,,,,,,,,,,,,white,I
213.0,3.0,3.0,0.0,3.0,3.0,324.5333679999476,1.0,1.0,phase_1,,,,,,,,,,,,,blue,diamond
205.0,7.0,3.0,1.0,2.0,2.0,378.4759039999699,1.0,1.0,phase_1,,,,,,,,,,,,,orange,circle
92.0,6.0,2.0,1.0,3.0,3.0,429.4822020001447,1.0,1.0,phase_1,,,,,,,,,,,,,white,I
0.0,2.0,0.0,0.0,2.0,2.0,426.1888119999639,1.0,1.0,phase_1,,,,,,,,,,,,,yellow,hexagon
123.0,2.0,2.0,0.0,4.0,4.0,399.0934680000464,1.0,1.0,phase_1,,,,,,,,,,,,,yellow,hexagon
40.0,1.0,1.0,0.0,1.0,1.0,434.4176390000029,1.0,1.0,phase_1,,,,,,,,,,,,,magenta,triangle
224.0,3.0,3.0,0.0,3.0,3.0,403.8409950001096,1.0,1.0,phase_1,,,,,,,,,,,,,blue,diamond
0.0,7.0,0.0,1.0,3.0,3.0,447.622377000016,1.0,1.0,phase_1,,,,,,,,,,,,,orange,circle
0.0,3.0,0.0,0.0,1.0,1.0,458.7690989999373,1.0,2.0,phase_1,,,,,,,,,,,,,blue,diamond
0.0,3.0,0.0,0.0,4.0,4.0,601.9676759999584,1.0,1.0,phase_1,,,,,,,,,,,,,blue,diamond
49.0,5.0,1.0,1.0,4.0,4.0,398.419684999908,1.0,1.0,phase_1,,,,,,,,,,,,,green,cross
77.0,6.0,2.0,1.0,2.0,2.0,484.8677100001168,1.0,1.0,phase_1,,,,,,,,,,,,,white,I
29.0,5.0,1.0,1.0,4.0,4.0,405.0922970000101,1.0,1.0,phase_1,,,,,,,,,,,,,green,cross
0.0,5.0,0.0,1.0,4.0,4.0,383.8386949998948,1.0,1.0,phase_1,,,,,,,,,,,,,green,cross
194.0,3.0,3.0,0.0,1.0,1.0,452.8331999999864,1.0,1.0,phase_1,,,,,,,,,,,,,blue,diamond
219.0,7.0,3.0,1.0,1.0,1.0,516.5844939999715,1.0,1.0,phase_1,,,,,,,,,,,,,orange,circle
0.0,5.0,0.0,1.0,2.0,2.0,417.9722080000374,1.0,1.0,phase_1,,,,,,,,,,,,,green,cross
204.0,3.0,3.0,0.0,4.0,4.0,453.3864539998831,1.0,1.0,phase_1,,,,,,,,,,,,,blue,diamond
104.0,2.0,2.0,0.0,2.0,2.0,452.4866490000931,1.0,1.0,phase_1,,,,,,,,,,,,,yellow,hexagon
39.0,5.0,1.0,1.0,4.0,4.0,421.3555989999804,1.0,1.0,phase_1,,,,,,,,,,,,,green,cross
0.0,2.0,0.0,0.0,1.0,1.0,516.7077480000444,1.0,1.0,phase_1,,,,,,,,,,,,,yellow,hexagon
0.0,4.0,0.0,0.0,2.0,2.0,409.7346040000502,1.0,1.0,phase_1,,,,,,,,,,,,,cyan,square
415.0,8.0,4.0,1.0,4.0,4.0,437.7071139999771,1.0,1.0,phase_1,,,,,,,,,,,,,gray,flipped triangle
176.0,3.0,3.0,0.0,2.0,2.0,351.0516310000184,1.0,1.0,phase_1,,,,,,,,,,,,,blue,diamond
185.0,7.0,3.0,1.0,2.0,2.0,377.8686660000403,1.0,1.0,phase_1,,,,,,,,,,,,,orange,circle
96.0,6.0,2.0,1.0,4.0,4.0,517.8998540000066,1.0,1.0,phase_1,,,,,,,,,,,,,white,I
124.0,6.0,2.0,1.0,2.0,2.0,517.0096960000592,1.0,1.0,phase_1,,,,,,,,,,,,,white,I
55.0,1.0,1.0,0.0,2.0,2.0,389.7157019998758,1.0,1.0,phase_1,,,,,,,,,,,,,magenta,triangle
394.0,4.0,4.0,0.0,4.0,4.0,344.0666770000007,1.0,1.0,phase_1,,,,,,,,,,,,,cyan,square
192.0,3.0,3.0,0.0,4.0,4.0,354.5715019999989,1.0,1.0,phase_1,,,,,,,,,,,,,blue,diamond
205.0,3.0,3.0,0.0,2.0,2.0,326.6693160001068,1.0,1.0,phase_1,,,,,,,,,,,,,blue,diamond
401.0,8.0,4.0,1.0,4.0,4.0,342.3725039999681,1.0,1.0,phase_1,,,,,,,,,,,,,gray,flipped triangle
0.0,5.0,0.0,1.0,2.0,2.0,266.0797430000912,1.0,1.0,phase_1,,,,,,,,,,,,,green,cross
83.0,2.0,2.0,0.0,3.0,3.0,502.2880509998231,1.0,1.0,phase_1,,,,,,,,,,,,,yellow,hexagon
93.0,2.0,2.0,0.0,4.0,4.0,290.1628189999883,1.0,1.0,phase_1,,,,,,,,,,,,,yellow,hexagon
0.0,5.0,0.0,1.0,1.0,1.0,613.6045440000544,1.0,2.0,phase_1,,,,,,,,,,,,,green,cross
50.0,5.0,1.0,1.0,2.0,2.0,493.1554729998879,1.0,1.0,phase_1,,,,,,,,,,,,,green,cross
104.0,2.0,2.0,0.0,1.0,1.0,408.4276769999633,1.0,1.0,phase_1,,,,,,,,,,,,,yellow,hexagon
0.0,6.0,0.0,1.0,3.0,3.0,524.4155259999843,1.0,1.0,phase_1,,,,,,,,,,,,,white,I
0.0,4.0,0.0,0.0,3.0,3.0,514.7424310000588,1.0,1.0,phase_1,,,,,,,,,,,,,cyan,square
0.0,4.0,0.0,0.0,1.0,1.0,512.6345859998764,1.0,1.0,phase_1,,,,,,,,,,,,,cyan,square
413.0,8.0,4.0,1.0,1.0,1.0,372.2944849998839,1.0,1.0,phase_1,,,,,,,,,,,,,gray,flipped triangle
393.0,4.0,4.0,0.0,4.0,4.0,405.3648450001219,1.0,1.0,phase_1,,,,,,,,,,,,,cyan,square
74.0,1.0,1.0,0.0,1.0,1.0,387.6440070000626,1.0,1.0,phase_1,,,,,,,,,,,,,magenta,triangle
393.0,8.0,4.0,1.0,2.0,2.0,568.1986360000337,1.0,1.0,phase_1,,,,,,,,,,,,,gray,flipped triangle
104.0,6.0,2.0,1.0,2.0,2.0,398.9739490000374,1.0,1.0,phase_1,,,,,,,,,,,,,white,I
101.0,2.0,2.0,0.0,2.0,2.0,432.8865210000003,1.0,1.0,phase_1,,,,,,,,,,,,,yellow,hexagon
386.0,8.0,4.0,1.0,2.0,2.0,400.1704449999579,1.0,1.0,phase_1,,,,,,,,,,,,,gray,flipped triangle
37.0,5.0,1.0,1.0,4.0,4.0,407.6309409999794,1.0,1.0,phase_1,,,,,,,,,,,,,green,cross
104.0,6.0,2.0,1.0,4.0,4.0,427.3645920000035,1.0,1.0,phase_1,,,,,,,,,,,,,white,I
67.0,1.0,1.0,0.0,1.0,1.0,521.8793920000735,1.0,1.0,phase_1,,,,,,,,,,,,,magenta,triangle
116.0,6.0,2.0,1.0,1.0,1.0,597.1227259999523,1.0,1.0,phase_1,,,,,,,,,,,,,white,I
116.0,2.0,2.0,0.0,4.0,4.0,530.2645479998773,1.0,1.0,phase_1,,,,,,,,,,,,,yellow,hexagon
380.0,4.0,4.0,0.0,4.0,4.0,446.8228439998256,1.0,1.0,phase_1,,,,,,,,,,,,,cyan,square
208.0,3.0,3.0,0.0,1.0,1.0,376.6555380000227,1.0,1.0,phase_1,,,,,,,,,,,,,blue,diamond
29.0,1.0,1.0,0.0,3.0,3.0,567.5577219999468,1.0,1.0,phase_1,,,,,,,,,,,,,magenta,triangle
378.0,8.0,4.0,1.0,1.0,1.0,417.140776999986,1.0,1.0,phase_1,,,,,,,,,,,,,gray,flipped triangle
189.0,7.0,3.0,1.0,2.0,2.0,399.4032470000093,1.0,1.0,phase_1,,,,,,,,,,,,,orange,circle
58.0,1.0,1.0,0.0,2.0,2.0,360.813483000129,1.0,1.0,phase_1,,,,,,,,,,,,,magenta,triangle
215.0,3.0,3.0,0.0,1.0,1.0,464.5400290000907,1.0,1.0,phase_1,,,,,,,,,,,,,blue,diamond
220.0,3.0,3.0,0.0,2.0,2.0,418.5832690000097,1.0,1.0,phase_1,,,,,,,,,,,,,blue,diamond
176.0,7.0,3.0,1.0,3.0,3.0,438.4000949999063,1.0,1.0,phase_1,,,,,,,,,,,,,orange,circle
198.0,3.0,3.0,0.0,2.0,2.0,555.4476859999795,2.0,1.0,phase_1,,,,,,,,,,,,,blue,diamond
0.0,8.0,0.0,1.0,1.0,1.0,389.762575000077,2.0,1.0,phase_1,,,,,,,,,,,,,gray,flipped triangle
0.0,2.0,0.0,0.0,3.0,3.0,413.0553350000809,2.0,1.0,phase_1,,,,,,,,,,,,,yellow,hexagon
107.0,6.0,2.0,1.0,3.0,3.0,449.9061880001136,2.0,1.0,phase_1,,,,,,,,,,,,,white,I
205.0,7.0,3.0,1.0,2.0,2.0,425.2889479998885,2.0,1.0,phase_1,,,,,,,,,,,,,orange,circle
0.0,3.0,0.0,0.0,1.0,1.0,325.5794299998342,2.0,1.0,phase_1,,,,,,,,,,,,,blue,diamond
0.0,5.0,0.0,1.0,2.0,2.0,340.1493940000364,2.0,1.0,phase_1,,,,,,,,,,,,,green,cross
96.0,2.0,2.0,0.0,4.0,4.0,385.2057429999149,2.0,1.0,phase_1,,,,,,,,,,,,,yellow,hexagon
0.0,2.0,0.0,0.0,3.0,3.0,637.7613019999444,2.0,1.0,phase_1,,,,,,,,,,,,,yellow,hexagon
216.0,3.0,3.0,0.0,4.0,4.0,471.5272649998496,2.0,1.0,phase_1,,,,,,,,,,,,,blue,diamond
383.0,8.0,4.0,1.0,2.0,2.0,616.3221499998599,2.0,1.0,phase_1,,,,,,,,,,,,,gray,flipped triangle
95.0,2.0,2.0,0.0,4.0,4.0,380.745356000034,2.0,1.0,phase_1,,,,,,,,,,,,,yellow,hexagon
48.0,1.0,1.0,0.0,3.0,3.0,551.8782760000249,2.0,1.0,phase_1,,,,,,,,,,,,,magenta,triangle
411.0,4.0,4.0,0.0,1.0,1.0,468.3118880000165,2.0,1.0,phase_1,,,,,,,,,,,,,cyan,square
212.0,7.0,3.0,1.0,1.0,1.0,410.4079740000088,2.0,1.0,phase_1,,,,,,,,,,,,,orange,circle
0.0,2.0,0.0,0.0,3.0,3.0,510.972559000038,2.0,1.0,phase_1,,,,,,,,,,,,,yellow,hexagon
0.0,2.0,0.0,0.0,3.0,3.0,391.8478180000875,2.0,1.0,phase_1,,,,,,,,,,,,,yellow,hexagon
99.0,6.0,2.0,1.0,4.0,4.0,345.1172189998033,2.0,1.0,phase_1,,,,,,,,,,,,,white,I
0.0,7.0,0.0,1.0,4.0,4.0,407.3440029999347,2.0,1.0,phase_1,,,,,,,,,,,,,orange,circle
0.0,5.0,0.0,1.0,3.0,3.0,416.2126129999706,2.0,1.0,phase_1,,,,,,,,,,,,,green,cross
178.0,7.0,3.0,1.0,3.0,3.0,367.2244829999727,2.0,1.0,phase_1,,,,,,,,,,,,,orange,circle
376.0,4.0,4.0,0.0,2.0,2.0,457.5791390000177,2.0,1.0,phase_1,,,,,,,,,,,,,cyan,square
80.0,6.0,2.0,1.0,1.0,1.0,423.0878249998113,2.0,1.0,phase_1,,,,,,,,,,,,,white,I
396.0,8.0,4.0,1.0,1.0,1.0,423.6281290000079,2.0,1.0,phase_1,,,,,,,,,,,,,gray,flipped triangle
0.0,6.0,0.0,1.0,2.0,2.0,437.5532179999482,2.0,1.0,phase_1,,,,,,,,,,,,,white,I
0.0,8.0,0.0,1.0,2.0,2.0,410.6571410000015,2.0,1.0,phase_1,,,,,,,,,,,,,gray,flipped triangle
386.0,4.0,4.0,0.0,1.0,1.0,508.0041720000281,2.0,1.0,phase_1,,,,,,,,,,,,,cyan,square
217.0,7.0,3.0,1.0,1.0,1.0,417.0853840000745,2.0,1.0,phase_1,,,,,,,,,,,,,orange,circle
85.0,6.0,2.0,1.0,3.0,3.0,479.1423850001592,2.0,1.0,phase_1,,,,,,,,,,,,,white,I
74.0,5.0,1.0,1.0,3.0,3.0,387.6699279999229,2.0,1.0,phase_1,,,,,,,,,,,,,green,cross
111.0,2.0,2.0,0.0,1.0,1.0,401.7274469999847,2.0,1.0,phase_1,,,,,,,,,,,,,yellow,hexagon
0.0,8.0,0.0,1.0,4.0,4.0,488.6090949999015,2.0,1.0,phase_1,,,,,,,,,,,,,gray,flipped triangle
411.0,4.0,4.0,0.0,3.0,3.0,460.5474360000698,2.0,1.0,phase_1,,,,,,,,,,,,,cyan,square
0.0,5.0,0.0,1.0,4.0,4.0,452.4320460000126,2.0,1.0,phase_1,,,,,,,,,,,,,green,cross
64.0,1.0,1.0,0.0,1.0,1.0,387.654909000048,2.0,1.0,phase_1,,,,,,,,,,,,,magenta,triangle
409.0,8.0,4.0,1.0,4.0,4.0,418.8757429999441,2.0,1.0,phase_1,,,,,,,,,,,,,gray,flipped triangle
423.0,8.0,4.0,1.0,4.0,4.0,617.6819280001382,2.0,1.0,phase_1,,,,,,,,,,,,,gray,flipped triangle
49.0,1.0,1.0,0.0,1.0,1.0,438.4534890000395,2.0,1.0,phase_1,,,,,,,,,,,,,magenta,triangle
0.0,4.0,0.0,0.0,2.0,2.0,447.0164330000443,2.0,1.0,phase_1,,,,,,,,,,,,,cyan,square
413.0,4.0,4.0,0.0,1.0,1.0,453.9294579999477,2.0,1.0,phase_1,,,,,,,,,,,,,cyan,square
383.0,4.0,4.0,0.0,4.0,4.0,459.5861520001563,2.0,1.0,phase_1,,,,,,,,,,,,,cyan,square
51.0,5.0,1.0,1.0,3.0,3.0,346.1367039999459,2.0,1.0,phase_1,,,,,,,,,,,,,green,cross
396.0,4.0,4.0,0.0,1.0,1.0,414.486381000188,2.0,1.0,phase_1,,,,,,,,,,,,,cyan,square
405.0,4.0,4.0,0.0,4.0,4.0,351.432867000085,2.0,1.0,phase_1,,,,,,,,,,,,,cyan,square
34.0,1.0,1.0,0.0,4.0,4.0,401.9024910001008,2.0,1.0,phase_1,,,,,,,,,,,,,magenta,triangle
410.0,4.0,4.0,0.0,2.0,2.0,401.4651380000487,2.0,1.0,phase_1,,,,,,,,,,,,,cyan,square
216.0,7.0,3.0,1.0,4.0,4.0,466.9379409999692,2.0,1.0,phase_1,,,,,,,,,,,,,orange,circle
40.0,5.0,1.0,1.0,1.0,1.0,322.5902950000545,2.0,1.0,phase_1,,,,,,,,,,,,,green,cross
79.0,6.0,2.0,1.0,2.0,2.0,295.7313039999008,2.0,1.0,phase_1,,,,,,,,,,,,,white,I
32.0,1.0,1.0,0.0,2.0,2.0,372.9252289999749,2.0,1.0,phase_1,,,,,,,,,,,,,magenta,triangle
123.0,6.0,2.0,1.0,1.0,1.0,490.5546379998213,2.0,1.0,phase_1,,,,,,,,,,,,,white,I
381.0,8.0,4.0,1.0,2.0,2.0,415.5832779999855,2.0,1.0,phase_1,,,,,,,,,,,,,gray,flipped triangle
97.0,2.0,2.0,0.0,3.0,3.0,385.3225430000293,2.0,1.0,phase_1,,,,,,,,,,,,,yellow,hexagon
0.0,4.0,0.0,0.0,4.0,4.0,567.8346409999904,2.0,1.0,phase_1,,,,,,,,,,,,,cyan,square
175.0,3.0,3.0,0.0,4.0,4.0,382.3166779998246,2.0,1.0,phase_1,,,,,,,,,,,,,blue,diamond
392.0,8.0,4.0,1.0,2.0,2.0,303.2117850000304,2.0,1.0,phase_1,,,,,,,,,,,,,gray,flipped triangle
104.0,6.0,2.0,1.0,3.0,3.0,402.2226900001442,2.0,1.0,phase_1,,,,,,,,,,,,,white,I
409.0,4.0,4.0,0.0,1.0,1.0,378.4381390000817,2.0,1.0,phase_1,,,,,,,,,,,,,cyan,square
0.0,4.0,0.0,0.0,3.0,3.0,637.4070900001243,2.0,1.0,phase_1,,,,,,,,,,,,,cyan,square
216.0,3.0,3.0,0.0,2.0,2.0,421.388319000016,2.0,1.0,phase_1,,,,,,,,,,,,,blue,diamond
119.0,2.0,2.0,0.0,4.0,4.0,342.1187100000225,2.0,1.0,phase_1,,,,,,,,,,,,,yellow,hexagon
62.0,1.0,1.0,0.0,3.0,3.0,385.2184669999587,2.0,1.0,phase_1,,,,,,,,,,,,,magenta,triangle
194.0,7.0,3.0,1.0,4.0,4.0,337.5887549998424,2.0,1.0,phase_1,,,,,,,,,,,,,orange,circle
0.0,3.0,0.0,0.0,3.0,3.0,406.9444959998236,2.0,1.0,phase_1,,,,,,,,,,,,,blue,diamond
125.0,2.0,2.0,0.0,1.0,1.0,390.17287999990907,2.0,1.0,phase_1,,,,,,,,,,,,,yellow,hexagon
203.0,3.0,3.0,0.0,1.0,1.0,450.5127030001858,2.0,1.0,phase_1,,,,,,,,,,,,,blue,diamond
115.0,2.0,2.0,0.0,4.0,4.0,448.036970999965,2.0,1.0,phase_1,,,,,,,,,,,,,yellow,hexagon
0.0,7.0,0.0,1.0,3.0,3.0,456.8406509999931,2.0,1.0,phase_1,,,,,,,,,,,,,orange,circle
37.0,1.0,1.0,0.0,4.0,4.0,411.4745009999296,2.0,1.0,phase_1,,,,,,,,,,,,,magenta,triangle
210.0,3.0,3.0,0.0,3.0,3.0,395.764735000057,2.0,1.0,phase_1,,,,,,,,,,,,,blue,diamond
86.0,6.0,2.0,1.0,2.0,2.0,571.3351909998892,2.0,1.0,phase_1,,,,,,,,,,,,,white,I
83.0,6.0,2.0,1.0,2.0,2.0,688.6543450000318,2.0,1.0,phase_1,,,,,,,,,,,,,white,I
119.0,6.0,2.0,1.0,4.0,4.0,398.8358100000368,2.0,1.0,phase_1,,,,,,,,,,,,,white,I
33.0,1.0,1.0,0.0,2.0,2.0,469.0790679999281,2.0,1.0,phase_1,,,,,,,,,,,,,magenta,triangle
116.0,2.0,2.0,0.0,3.0,3.0,449.8156559998278,2.0,1.0,phase_1,,,,,,,,,,,,,yellow,hexagon
177.0,7.0,3.0,1.0,3.0,3.0,450.4302490001919,2.0,1.0,phase_1,,,,,,,,,,,,,orange,circle
400.0,8.0,4.0,1.0,3.0,3.0,968.4466310000062,2.0,1.0,phase_1,,,,,,,,,,,,,gray,flipped triangle
90.0,2.0,2.0,0.0,1.0,1.0,608.5792169999422,2.0,1.0,phase_1,,,,,,,,,,,,,yellow,hexagon
414.0,4.0,4.0,0.0,2.0,2.0,476.9629469999472,2.0,1.0,phase_1,,,,,,,,,,,,,cyan,square
411.0,8.0,4.0,1.0,3.0,3.0,448.0362429999331,2.0,1.0,phase_1,,,,,,,,,,,,,gray,flipped triangle
56.0,5.0,1.0,1.0,2.0,2.0,548.1390939999073,2.0,1.0,phase_1,,,,,,,,,,,,,green,cross
383.0,4.0,4.0,0.0,1.0,1.0,368.1554929999038,2.0,1.0,phase_1,,,,,,,,,,,,,cyan,square
57.0,5.0,1.0,1.0,1.0,1.0,388.9755449999938,2.0,1.0,phase_1,,,,,,,,,,,,,green,cross
0.0,3.0,0.0,0.0,1.0,1.0,338.282516000163,2.0,1.0,phase_1,,,,,,,,,,,,,blue,diamond
0.0,1.0,0.0,0.0,2.0,2.0,328.4868239998104,2.0,1.0,phase_1,,,,,,,,,,,,,magenta,triangle
82.0,2.0,2.0,0.0,2.0,2.0,424.2501650001031,2.0,1.0,phase_1,,,,,,,,,,,,,yellow,hexagon
79.0,2.0,2.0,0.0,1.0,1.0,401.3535690000935,2.0,1.0,phase_1,,,,,,,,,,,,,yellow,hexagon
27.0,1.0,1.0,0.0,3.0,3.0,608.5412519998954,2.0,1.0,phase_1,,,,,,,,,,,,,magenta,triangle
62.0,1.0,1.0,0.0,4.0,4.0,376.2150190000284,2.0,1.0,phase_1,,,,,,,,,,,,,magenta,triangle
0.0,3.0,0.0,0.0,4.0,4.0,373.6529410000457,2.0,1.0,phase_1,,,,,,,,,,,,,blue,diamond
36.0,1.0,1.0,0.0,1.0,1.0,481.6109079999933,2.0,1.0,phase_1,,,,,,,,,,,,,magenta,triangle
424.0,8.0,4.0,1.0,2.0,2.0,537.890667000056,2.0,1.0,phase_1,,,,,,,,,,,,,gray,flipped triangle
0.0,1.0,0.0,0.0,2.0,2.0,376.8360330000178,2.0,1.0,phase_1,,,,,,,,,,,,,magenta,triangle
28.0,5.0,1.0,1.0,3.0,3.0,373.3065919998353,2.0,1.0,phase_1,,,,,,,,,,,,,green,cross
194.0,7.0,3.0,1.0,3.0,3.0,438.5930240000562,2.0,1.0,phase_1,,,,,,,,,,,,,orange,circle
51.0,1.0,1.0,0.0,3.0,3.0,365.987394000058,2.0,1.0,phase_1,,,,,,,,,,,,,magenta,triangle
177.0,3.0,3.0,0.0,1.0,1.0,307.8670740001143,2.0,1.0,phase_1,,,,,,,,,,,,,blue,diamond
121.0,2.0,2.0,0.0,4.0,4.0,385.3787180000836,2.0,1.0,phase_1,,,,,,,,,,,,,yellow,hexagon
0.0,7.0,0.0,1.0,4.0,4.0,331.559062999986,2.0,1.0,phase_1,,,,,,,,,,,,,orange,circle
399.0,4.0,4.0,0.0,3.0,3.0,435.4519280000204,2.0,1.0,phase_1,,,,,,,,,,,,,cyan,square
381.0,4.0,4.0,0.0,2.0,2.0,567.1519300001364,3.0,1.0,phase_1,,,,,,,,,,,,,cyan,square
0.0,8.0,0.0,1.0,4.0,4.0,386.5666199999396,3.0,1.0,phase_1,,,,,,,,,,,,,gray,flipped triangle
404.0,8.0,4.0,1.0,1.0,1.0,439.0910649999568,3.0,1.0,phase_1,,,,,,,,,,,,,gray,flipped triangle
418.0,8.0,4.0,1.0,4.0,4.0,415.7728339998812,3.0,1.0,phase_1,,,,,,,,,,,,,gray,flipped triangle
403.0,4.0,4.0,0.0,1.0,1.0,351.6982360001748,3.0,1.0,phase_1,,,,,,,,,,,,,cyan,square
0.0,7.0,0.0,1.0,2.0,2.0,376.9832999998925,3.0,1.0,phase_1,,,,,,,,,,,,,orange,circle
68.0,5.0,1.0,1.0,3.0,3.0,391.9688420000966,3.0,1.0,phase_1,,,,,,,,,,,,,green,cross
387.0,4.0,4.0,0.0,2.0,2.0,388.3109700000204,3.0,1.0,phase_1,,,,,,,,,,,,,cyan,square
84.0,2.0,2.0,0.0,3.0,3.0,433.7235689999943,3.0,1.0,phase_1,,,,,,,,,,,,,yellow,hexagon
40.0,5.0,1.0,1.0,3.0,3.0,428.612732999909,3.0,1.0,phase_1,,,,,,,,,,,,,green,cross
73.0,1.0,1.0,0.0,2.0,2.0,436.3071020000006,3.0,1.0,phase_1,,,,,,,,,,,,,magenta,triangle
0.0,1.0,0.0,0.0,3.0,3.0,468.240951000098,3.0,1.0,phase_1,,,,,,,,,,,,,magenta,triangle
0.0,6.0,0.0,1.0,3.0,3.0,405.3655390000585,3.0,1.0,phase_1,,,,,,,,,,,,,white,I
96.0,2.0,2.0,0.0,4.0,4.0,516.5032449999671,3.0,1.0,phase_1,,,,,,,,,,,,,yellow,hexagon
202.0,7.0,3.0,1.0,4.0,4.0,485.273202000144,3.0,1.0,phase_1,,,,,,,,,,,,,orange,circle
411.0,8.0,4.0,1.0,1.0,1.0,453.8539910001873,3.0,1.0,phase_1,,,,,,,,,,,,,gray,flipped triangle
182.0,7.0,3.0,1.0,1.0,1.0,404.6777720000136,3.0,1.0,phase_1,,,,,,,,,,,,,orange,circle
93.0,6.0,2.0,1.0,3.0,3.0,335.5819900000369,3.0,1.0,phase_1,,,,,,,,,,,,,white,I
0.0,5.0,0.0,1.0,3.0,3.0,392.0647790000657,3.0,1.0,phase_1,,,,,,,,,,,,,green,cross
0.0,8.0,0.0,1.0,4.0,4.0,527.3355299998457,3.0,1.0,phase_1,,,,,,,,,,,,,gray,flipped triangle
182.0,3.0,3.0,0.0,4.0,4.0,511.59089299994776,3.0,1.0,phase_1,,,,,,,,,,,,,blue,diamond
224.0,3.0,3.0,0.0,4.0,4.0,361.9175950000226,3.0,1.0,phase_1,,,,,,,,,,,,,blue,diamond
400.0,4.0,4.0,0.0,3.0,3.0,394.5058389999758,3.0,1.0,phase_1,,,,,,,,,,,,,cyan,square
203.0,7.0,3.0,1.0,3.0,3.0,409.3546200001583,3.0,1.0,phase_1,,,,,,,,,,,,,orange,circle
62.0,5.0,1.0,1.0,2.0,2.0,434.8160920001191,3.0,1.0,phase_1,,,,,,,,,,,,,green,cross
388.0,8.0,4.0,1.0,3.0,3.0,455.9564020000834,3.0,1.0,phase_1,,,,,,,,,,,,,gray,flipped triangle
121.0,6.0,2.0,1.0,1.0,1.0,438.3596929999385,3.0,1.0,phase_1,,,,,,,,,,,,,white,I
0.0,1.0,0.0,0.0,2.0,2.0,367.1583230000124,3.0,1.0,phase_1,,,,,,,,,,,,,magenta,triangle
394.0,8.0,4.0,1.0,1.0,1.0,383.7076489999163,3.0,1.0,phase_1,,,,,,,,,,,,,gray,flipped triangle
53.0,5.0,1.0,1.0,4.0,4.0,423.8451950000126,3.0,1.0,phase_1,,,,,,,,,,,,,green,cross
192.0,7.0,3.0,1.0,4.0,4.0,397.6955499999803,3.0,1.0,phase_1,,,,,,,,,,,,,orange,circle
86.0,2.0,2.0,0.0,3.0,3.0,546.3418269998783,3.0,1.0,phase_1,,,,,,,,,,,,,yellow,hexagon
80.0,2.0,2.0,0.0,2.0,2.0,401.5883830002167,3.0,1.0,phase_1,,,,,,,,,,,,,yellow,hexagon
179.0,7.0,3.0,1.0,1.0,1.0,406.4030780000394,3.0,1.0,phase_1,,,,,,,,,,,,,orange,circle
0.0,3.0,0.0,0.0,3.0,3.0,402.5564329999724,3.0,1.0,phase_1,,,,,,,,,,,,,blue,diamond
424.0,4.0,4.0,0.0,2.0,2.0,491.294014999994,3.0,1.0,phase_1,,,,,,,,,,,,,cyan,square
401.0,4.0,4.0,0.0,1.0,1.0,755.6387570000425,3.0,1.0,phase_1,,,,,,,,,,,,,cyan,square
409.0,4.0,4.0,0.0,4.0,4.0,601.4315410000108,3.0,1.0,phase_1,,,,,,,,,,,,,cyan,square
423.0,8.0,4.0,1.0,3.0,3.0,406.4808819998688,3.0,1.0,phase_1,,,,,,,,,,,,,gray,flipped triangle
383.0,8.0,4.0,1.0,3.0,3.0,363.885122000056,3.0,1.0,phase_1,,,,,,,,,,,,,gray,flipped triangle
387.0,8.0,4.0,1.0,4.0,4.0,337.0610049998959,3.0,1.0,phase_1,,,,,,,,,,,,,gray,flipped triangle
39.0,1.0,1.0,0.0,4.0,4.0,349.0259200000309,3.0,1.0,phase_1,,,,,,,,,,,,,magenta,triangle
378.0,4.0,4.0,0.0,2.0,2.0,435.0926330000675,3.0,1.0,phase_1,,,,,,,,,,,,,cyan,square
73.0,5.0,1.0,1.0,1.0,1.0,519.9820359998739,3.0,1.0,phase_1,,,,,,,,,,,,,green,cross
50.0,1.0,1.0,0.0,4.0,4.0,419.0336139999999,3.0,1.0,phase_1,,,,,,,,,,,,,magenta,triangle
114.0,6.0,2.0,1.0,3.0,3.0,476.7694670001674,3.0,1.0,phase_1,,,,,,,,,,,,,white,I
101.0,6.0,2.0,1.0,4.0,4.0,390.5585160000555,3.0,1.0,phase_1,,,,,,,,,,,,,white,I
99.0,2.0,2.0,0.0,1.0,1.0,438.889103999827,3.0,1.0,phase_1,,,,,,,,,,,,,yellow,hexagon
69.0,5.0,1.0,1.0,4.0,4.0,454.7778290000224,3.0,1.0,phase_1,,,,,,,,,,,,,green,cross
77.0,6.0,2.0,1.0,1.0,1.0,428.2722699999794,3.0,1.0,phase_1,,,,,,,,,,,,,white,I
383.0,8.0,4.0,1.0,2.0,2.0,465.0977629999033,3.0,1.0,phase_1,,,,,,,,,,,,,gray,flipped triangle
0.0,5.0,0.0,1.0,3.0,3.0,441.5107380000336,3.0,1.0,phase_1,,,,,,,,,,,,,green,cross
53.0,1.0,1.0,0.0,3.0,3.0,462.6198959999783,3.0,1.0,phase_1,,,,,,,,,,,,,magenta,triangle
425.0,4.0,4.0,0.0,4.0,4.0,398.6148449998836,3.0,1.0,phase_1,,,,,,,,,,,,,cyan,square
96.0,6.0,2.0,1.0,2.0,2.0,440.6379530000777,3.0,1.0,phase_1,,,,,,,,,,,,,white,I
103.0,6.0,2.0,1.0,3.0,3.0,497.2028569998201,3.0,1.0,phase_1,,,,,,,,,,,,,white,I
210.0,7.0,3.0,1.0,4.0,4.0,356.5917180001179,3.0,1.0,phase_1,,,,,,,,,,,,,orange,circle
0.0,1.0,0.0,0.0,4.0,4.0,438.3196599999337,3.0,1.0,phase_1,,,,,,,,,,,,,magenta,triangle
114.0,2.0,2.0,0.0,3.0,3.0,454.06707799998,3.0,1.0,phase_1,,,,,,,,,,,,,yellow,hexagon
0.0,2.0,0.0,0.0,2.0,2.0,433.3654710001156,3.0,1.0,phase_1,,,,,,,,,,,,,yellow,hexagon
405.0,8.0,4.0,1.0,2.0,2.0,365.025168000102,3.0,1.0,phase_1,,,,,,,,,,,,,gray,flipped triangle
118.0,2.0,2.0,0.0,1.0,1.0,352.4603999999272,3.0,1.0,phase_1,,,,,,,,,,,,,yellow,hexagon
182.0,3.0,3.0,0.0,4.0,4.0,334.7991220000494,3.0,1.0,phase_1,,,,,,,,,,,,,blue,diamond
399.0,8.0,4.0,1.0,2.0,2.0,505.0819279999814,3.0,1.0,phase_1,,,,,,,,,,,,,gray,flipped triangle
57.0,5.0,1.0,1.0,3.0,3.0,437.4411930000406,3.0,1.0,phase_1,,,,,,,,,,,,,green,cross
197.0,3.0,3.0,0.0,3.0,3.0,432.2006200000032,3.0,1.0,phase_1,,,,,,,,,,,,,blue,diamond
388.0,4.0,4.0,0.0,4.0,4.0,345.32141799991217,3.0,1.0,phase_1,,,,,,,,,,,,,cyan,square
68.0,1.0,1.0,0.0,2.0,2.0,544.109748999972,3.0,1.0,phase_1,,,,,,,,,,,,,magenta,triangle
68.0,1.0,1.0,0.0,4.0,4.0,435.4634849999002,3.0,1.0,phase_1,,,,,,,,,,,,,magenta,triangle
107.0,2.0,2.0,0.0,1.0,1.0,428.4855719999996,3.0,1.0,phase_1,,,,,,,,,,,,,yellow,hexagon
409.0,8.0,4.0,1.0,4.0,4.0,397.529921999876,3.0,1.0,phase_1,,,,,,,,,,,,,gray,flipped triangle
219.0,3.0,3.0,0.0,2.0,2.0,335.0753209999766,3.0,1.0,phase_1,,,,,,,,,,,,,blue,diamond
192.0,3.0,3.0,0.0,2.0,2.0,369.208657000172,3.0,1.0,phase_1,,,,,,,,,,,,,blue,diamond
0.0,1.0,0.0,0.0,3.0,3.0,658.3676720001677,3.0,1.0,phase_1,,,,,,,,,,,,,magenta,triangle
187.0,7.0,3.0,1.0,3.0,3.0,455.568489999905,3.0,1.0,phase_1,,,,,,,,,,,,,orange,circle
0.0,2.0,0.0,0.0,4.0,4.0,496.2643680000838,3.0,1.0,phase_1,,,,,,,,,,,,,yellow,hexagon
82.0,6.0,2.0,1.0,4.0,4.0,404.9962619999405,3.0,1.0,phase_1,,,,,,,,,,,,,white,I
58.0,5.0,1.0,1.0,2.0,2.0,332.0804959998895,3.0,1.0,phase_1,,,,,,,,,,,,,green,cross
0.0,1.0,0.0,0.0,3.0,3.0,682.2589089999838,3.0,1.0,phase_1,,,,,,,,,,,,,magenta,triangle
114.0,2.0,2.0,0.0,3.0,3.0,399.2935989999751,3.0,1.0,phase_1,,,,,,,,,,,,,yellow,hexagon
0.0,6.0,0.0,1.0,2.0,2.0,447.6433760000873,3.0,1.0,phase_1,,,,,,,,,,,,,white,I
107.0,2.0,2.0,0.0,1.0,1.0,498.5137569999551,3.0,1.0,phase_1,,,,,,,,,,,,,yellow,hexagon
27.0,5.0,1.0,1.0,1.0,1.0,434.0467210001861,3.0,1.0,phase_1,,,,,,,,,,,,,green,cross
87.0,6.0,2.0,1.0,2.0,2.0,563.9380400000391,3.0,1.0,phase_1,,,,,,,,,,,,,white,I
213.0,7.0,3.0,1.0,1.0,1.0,377.1768789999896,3.0,1.0,phase_1,,,,,,,,,,,,,orange,circle
25.0,5.0,1.0,1.0,2.0,2.0,328.8648159998502,3.0,1.0,phase_1,,,,,,,,,,,,,green,cross
56.0,1.0,1.0,0.0,1.0,1.0,375.9869200000594,3.0,1.0,phase_1,,,,,,,,,,,,,magenta,triangle
392.0,4.0,4.0,0.0,3.0,3.0,420.708205999972,3.0,1.0,phase_1,,,,,,,,,,,,,cyan,square
182.0,3.0,3.0,0.0,2.0,2.0,402.3708960000931,3.0,1.0,phase_1,,,,,,,,,,,,,blue,diamond
0.0,8.0,0.0,1.0,1.0,1.0,534.1656210000565,3.0,1.0,phase_1,,,,,,,,,,,,,gray,flipped triangle
0.0,8.0,0.0,1.0,4.0,4.0,407.7082500000415,3.0,1.0,phase_1,,,,,,,,,,,,,gray,flipped triangle
420.0,4.0,4.0,0.0,2.0,2.0,708.5343030000786,3.0,1.0,phase_1,,,,,,,,,,,,,cyan,square
179.0,3.0,3.0,0.0,2.0,2.0,372.645102999968,3.0,1.0,phase_1,,,,,,,,,,,,,blue,diamond
0.0,3.0,0.0,0.0,3.0,3.0,421.0478859999966,3.0,1.0,phase_1,,,,,,,,,,,,,blue,diamond
83.0,2.0,2.0,0.0,3.0,3.0,441.4714609999919,3.0,1.0,phase_1,,,,,,,,,,,,,yellow,hexagon
0.0,7.0,0.0,1.0,3.0,3.0,408.4310650000589,3.0,1.0,phase_1,,,,,,,,,,,,,orange,circle
403.0,8.0,4.0,1.0,3.0,3.0,371.9157579998864,3.0,1.0,phase_1,,,,,,,,,,,,,gray,flipped triangle
175.0,7.0,3.0,1.0,2.0,2.0,636.5987809999751,3.0,1.0,phase_1,,,,,,,,,,,,,orange,circle
74.0,5.0,1.0,1.0,3.0,3.0,432.5166539999827,3.0,1.0,phase_1,,,,,,,,,,,,,green,cross
401.0,8.0,4.0,1.0,1.0,1.0,379.5579009999983,3.0,1.0,phase_1,,,,,,,,,,,,,gray,flipped triangle
205.0,3.0,3.0,0.0,3.0,3.0,641.4863350000815,4.0,1.0,phase_1,,,,,,,,,,,,,blue,diamond
125.0,6.0,2.0,1.0,1.0,1.0,436.9213649997618,4.0,1.0,phase_1,,,,,,,,,,,,,white,I
224.0,7.0,3.0,1.0,4.0,4.0,351.7389389999152,4.0,1.0,phase_1,,,,,,,,,,,,,orange,circle
49.0,5.0,1.0,1.0,4.0,4.0,324.6413050001138,4.0,1.0,phase_1,,,,,,,,,,,,,green,cross
68.0,5.0,1.0,1.0,4.0,4.0,353.2650719998855,4.0,1.0,phase_1,,,,,,,,,,,,,green,cross
390.0,4.0,4.0,0.0,3.0,3.0,270.0919129997601,4.0,1.0,phase_1,,,,,,,,,,,,,cyan,square
204.0,7.0,3.0,1.0,2.0,2.0,349.9682400001802,4.0,1.0,phase_1,,,,,,,,,,,,,orange,circle
212.0,7.0,3.0,1.0,3.0,3.0,336.2776389999453,4.0,1.0,phase_1,,,,,,,,,,,,,orange,circle
83.0,2.0,2.0,0.0,4.0,4.0,355.221408000034,4.0,1.0,phase_1,,,,,,,,,,,,,yellow,hexagon
87.0,2.0,2.0,0.0,3.0,3.0,343.2346220001818,4.0,1.0,phase_1,,,,,,,,,,,,,yellow,hexagon
116.0,6.0,2.0,1.0,2.0,2.0,365.8523990002322,4.0,1.0,phase_1,,,,,,,,,,,,,white,I
104.0,2.0,2.0,0.0,2.0,2.0,423.5209139997096,4.0,1.0,phase_1,,,,,,,,,,,,,yellow,hexagon
83.0,6.0,2.0,1.0,1.0,1.0,724.2407379999349,4.0,1.0,phase_1,,,,,,,,,,,,,white,I
25.0,1.0,1.0,0.0,2.0,2.0,405.33331000006,4.0,1.0,phase_1,,,,,,,,,,,,,magenta,triangle
95.0,6.0,2.0,1.0,4.0,4.0,313.6270380000496,4.0,1.0,phase_1,,,,,,,,,,,,,white,I
48.0,5.0,1.0,1.0,1.0,1.0,429.8133659999621,4.0,1.0,phase_1,,,,,,,,,,,,,green,cross
197.0,7.0,3.0,1.0,3.0,3.0,511.95534299995415,4.0,1.0,phase_1,,,,,,,,,,,,,orange,circle
414.0,8.0,4.0,1.0,1.0,1.0,466.5425680000226,4.0,1.0,phase_1,,,,,,,,,,,,,gray,flipped triangle
224.0,3.0,3.0,0.0,3.0,3.0,349.4599240002571,4.0,1.0,phase_1,,,,,,,,,,,,,blue,diamond
0.0,6.0,0.0,1.0,1.0,1.0,304.412683999999,4.0,1.0,phase_1,,,,,,,,,,,,,white,I
0.0,3.0,0.0,0.0,1.0,1.0,418.3869889998277,4.0,1.0,phase_1,,,,,,,,,,,,,blue,diamond
92.0,2.0,2.0,0.0,1.0,1.0,409.2715240003599,4.0,1.0,phase_1,,,,,,,,,,,,,yellow,hexagon
217.0,3.0,3.0,0.0,1.0,1.0,383.0415480001647,4.0,1.0,phase_1,,,,,,,,,,,,,blue,diamond
401.0,4.0,4.0,0.0,1.0,1.0,299.771168999996,4.0,1.0,phase_1,,,,,,,,,,,,,cyan,square
0.0,6.0,0.0,1.0,1.0,1.0,299.0920779998305,4.0,1.0,phase_1,,,,,,,,,,,,,white,I
189.0,3.0,3.0,0.0,4.0,4.0,352.2544139996171,4.0,1.0,phase_1,,,,,,,,,,,,,blue,diamond
188.0,7.0,3.0,1.0,4.0,4.0,300.6931999998414,4.0,1.0,phase_1,,,,,,,,,,,,,orange,circle
30.0,5.0,1.0,1.0,2.0,2.0,376.4272290000008,4.0,1.0,phase_1,,,,,,,,,,,,,green,cross
65.0,1.0,1.0,0.0,2.0,2.0,357.0887819996642,4.0,1.0,phase_1,,,,,,,,,,,,,magenta,triangle
121.0,6.0,2.0,1.0,3.0,3.0,448.3668440002475,4.0,1.0,phase_1,,,,,,,,,,,,,white,I
0.0,6.0,0.0,1.0,3.0,3.0,356.4364220001152,4.0,1.0,phase_1,,,,,,,,,,,,,white,I
0.0,3.0,0.0,0.0,1.0,1.0,426.0328059999665,4.0,1.0,phase_1,,,,,,,,,,,,,blue,diamond
0.0,1.0,0.0,0.0,3.0,3.0,440.560294000079,4.0,1.0,phase_1,,,,,,,,,,,,,magenta,triangle
208.0,7.0,3.0,1.0,2.0,2.0,513.4802380002839,4.0,1.0,phase_1,,,,,,,,,,,,,orange,circle
50.0,5.0,1.0,1.0,1.0,1.0,398.0974969999806,4.0,1.0,phase_1,,,,,,,,,,,,,green,cross
182.0,7.0,3.0,1.0,1.0,1.0,381.6313050001554,4.0,1.0,phase_1,,,,,,,,,,,,,orange,circle
107.0,6.0,2.0,1.0,3.0,3.0,379.9349350001648,4.0,1.0,phase_1,,,,,,,,,,,,,white,I
121.0,2.0,2.0,0.0,3.0,3.0,323.3511399998861,4.0,1.0,phase_1,,,,,,,,,,,,,yellow,hexagon
212.0,3.0,3.0,0.0,1.0,1.0,496.0062499999367,4.0,1.0,phase_1,,,,,,,,,,,,,blue,diamond
0.0,5.0,0.0,1.0,1.0,1.0,371.3477430001148,4.0,1.0,phase_1,,,,,,,,,,,,,green,cross
62.0,5.0,1.0,1.0,2.0,2.0,409.2147169999407,4.0,1.0,phase_1,,,,,,,,,,,,,green,cross
85.0,2.0,2.0,0.0,2.0,2.0,381.6746239999702,4.0,1.0,phase_1,,,,,,,,,,,,,yellow,hexagon
43.0,1.0,1.0,0.0,4.0,4.0,304.8211840000476,4.0,1.0,phase_1,,,,,,,,,,,,,magenta,triangle
224.0,7.0,3.0,1.0,2.0,2.0,349.1159649997826,4.0,1.0,phase_1,,,,,,,,,,,,,orange,circle
43.0,5.0,1.0,1.0,2.0,2.0,322.1958770000128,4.0,1.0,phase_1,,,,,,,,,,,,,green,cross
194.0,3.0,3.0,0.0,4.0,4.0,346.0547129998303,4.0,1.0,phase_1,,,,,,,,,,,,,blue,diamond
67.0,5.0,1.0,1.0,1.0,1.0,353.3473279999271,4.0,1.0,phase_1,,,,,,,,,,,,,green,cross
420.0,8.0,4.0,1.0,4.0,4.0,361.4394770002036,4.0,1.0,phase_1,,,,,,,,,,,,,gray,flipped triangle
36.0,5.0,1.0,1.0,1.0,1.0,532.4717610001244,4.0,1.0,phase_1,,,,,,,,,,,,,green,cross
205.0,7.0,3.0,1.0,2.0,2.0,361.5631820002818,4.0,1.0,phase_1,,,,,,,,,,,,,orange,circle
30.0,1.0,1.0,0.0,1.0,1.0,312.0723679999173,4.0,1.0,phase_1,,,,,,,,,,,,,magenta,triangle
205.0,3.0,3.0,0.0,1.0,1.0,307.9480410001451,4.0,1.0,phase_1,,,,,,,,,,,,,blue,diamond
384.0,4.0,4.0,0.0,3.0,3.0,331.6570100000717,4.0,1.0,phase_1,,,,,,,,,,,,,cyan,square
50.0,1.0,1.0,0.0,3.0,3.0,343.9984040001036,4.0,1.0,phase_1,,,,,,,,,,,,,magenta,triangle
404.0,4.0,4.0,0.0,4.0,4.0,300.3470150001703,4.0,1.0,phase_1,,,,,,,,,,,,,cyan,square
0.0,4.0,0.0,0.0,3.0,3.0,336.1859880001248,4.0,1.0,phase_1,,,,,,,,,,,,,cyan,square
97.0,6.0,2.0,1.0,4.0,4.0,291.1894109997774,4.0,1.0,phase_1,,,,,,,,,,,,,white,I
380.0,8.0,4.0,1.0,3.0,3.0,415.0995820000389,4.0,1.0,phase_1,,,,,,,,,,,,,gray,flipped triangle
57.0,1.0,1.0,0.0,3.0,3.0,362.5567979997868,4.0,1.0,phase_1,,,,,,,,,,,,,magenta,triangle
198.0,3.0,3.0,0.0,3.0,3.0,350.7061430000249,4.0,1.0,phase_1,,,,,,,,,,,,,blue,diamond
215.0,7.0,3.0,1.0,1.0,1.0,266.6647340001873,4.0,1.0,phase_1,,,,,,,,,,,,,orange,circle
220.0,7.0,3.0,1.0,4.0,4.0,315.9884600004261,4.0,1.0,phase_1,,,,,,,,,,,,,orange,circle
219.0,7.0,3.0,1.0,4.0,4.0,289.0970079997714,4.0,1.0,phase_1,,,,,,,,,,,,,orange,circle
74.0,1.0,1.0,0.0,3.0,3.0,346.7523660001461,4.0,1.0,phase_1,,,,,,,,,,,,,magenta,triangle
69.0,1.0,1.0,0.0,3.0,3.0,346.4095030003591,4.0,1.0,phase_1,,,,,,,,,,,,,magenta,triangle
216.0,7.0,3.0,1.0,3.0,3.0,279.2030519999571,4.0,1.0,phase_1,,,,,,,,,,,,,orange,circle
55.0,5.0,1.0,1.0,1.0,1.0,656.0952210002142,4.0,1.0,phase_1,,,,,,,,,,,,,green,cross
0.0,7.0,0.0,1.0,2.0,2.0,365.916610000113,4.0,1.0,phase_1,,,,,,,,,,,,,orange,circle
182.0,7.0,3.0,1.0,3.0,3.0,330.4168620002201,4.0,1.0,phase_1,,,,,,,,,,,,,orange,circle
0.0,8.0,0.0,1.0,1.0,1.0,306.5414969996709,4.0,1.0,phase_1,,,,,,,,,,,,,gray,flipped triangle
0.0,1.0,0.0,0.0,1.0,1.0,428.7900569997873,4.0,1.0,phase_1,,,,,,,,,,,,,magenta,triangle
33.0,5.0,1.0,1.0,3.0,3.0,350.3510030000143,4.0,1.0,phase_1,,,,,,,,,,,,,green,cross
0.0,6.0,0.0,1.0,1.0,1.0,299.5697609999297,4.0,1.0,phase_1,,,,,,,,,,,,,white,I
103.0,2.0,2.0,0.0,2.0,2.0,486.0481420000724,4.0,1.0,phase_1,,,,,,,,,,,,,yellow,hexagon
0.0,7.0,0.0,1.0,4.0,4.0,572.9477739996582,4.0,1.0,phase_1,,,,,,,,,,,,,orange,circle
0.0,7.0,0.0,1.0,4.0,4.0,507.87498799991226,4.0,1.0,phase_1,,,,,,,,,,,,,orange,circle
40.0,1.0,1.0,0.0,4.0,4.0,347.6735369999915,4.0,1.0,phase_1,,,,,,,,,,,,,magenta,triangle
90.0,6.0,2.0,1.0,4.0,4.0,381.2873080000827,4.0,1.0,phase_1,,,,,,,,,,,,,white,I
32.0,5.0,1.0,1.0,4.0,4.0,295.5921160000798,4.0,1.0,phase_1,,,,,,,,,,,,,green,cross
77.0,2.0,2.0,0.0,2.0,2.0,434.7128469999006,4.0,1.0,phase_1,,,,,,,,,,,,,yellow,hexagon
418.0,4.0,4.0,0.0,3.0,3.0,363.9643149999756,4.0,1.0,phase_1,,,,,,,,,,,,,cyan,square
423.0,4.0,4.0,0.0,2.0,2.0,354.0673809998225,4.0,1.0,phase_1,,,,,,,,,,,,,cyan,square
27.0,1.0,1.0,0.0,2.0,2.0,365.0393510001777,4.0,1.0,phase_1,,,,,,,,,,,,,magenta,triangle
124.0,2.0,2.0,0.0,2.0,2.0,291.0022969999772,4.0,1.0,phase_1,,,,,,,,,,,,,yellow,hexagon
27.0,5.0,1.0,1.0,4.0,4.0,421.8574330002411,4.0,1.0,phase_1,,,,,,,,,,,,,green,cross
0.0,7.0,0.0,1.0,3.0,3.0,423.7837599998784,4.0,1.0,phase_1,,,,,,,,,,,,,orange,circle
0.0,4.0,0.0,0.0,1.0,1.0,391.807881999739,4.0,1.0,phase_1,,,,,,,,,,,,,cyan,square
202.0,3.0,3.0,0.0,2.0,2.0,360.6717960001333,4.0,1.0,phase_1,,,,,,,,,,,,,blue,diamond
115.0,6.0,2.0,1.0,1.0,1.0,342.9536439998628,4.0,1.0,phase_1,,,,,,,,,,,,,white,I
68.0,5.0,1.0,1.0,3.0,3.0,433.8474470000619,4.0,1.0,phase_1,,,,,,,,,,,,,green,cross
0.0,1.0,0.0,0.0,3.0,3.0,374.7474739998324,4.0,1.0,phase_1,,,,,,,,,,,,,magenta,triangle
383.0,4.0,4.0,0.0,3.0,3.0,338.3374330001061,4.0,1.0,phase_1,,,,,,,,,,,,,cyan,square
384.0,8.0,4.0,1.0,1.0,1.0,491.4563960001032,4.0,1.0,phase_1,,,,,,,,,,,,,gray,flipped triangle
0.0,8.0,0.0,1.0,3.0,3.0,382.8152910000426,4.0,1.0,phase_1,,,,,,,,,,,,,gray,flipped triangle
38.0,5.0,1.0,1.0,2.0,2.0,370.3949999999167,4.0,1.0,phase_1,,,,,,,,,,,,,green,cross
390.0,8.0,4.0,1.0,3.0,3.0,339.7643530001915,4.0,1.0,phase_1,,,,,,,,,,,,,gray,flipped triangle
425.0,8.0,4.0,1.0,3.0,3.0,383.3944140001222,4.0,1.0,phase_1,,,,,,,,,,,,,gray,flipped triangle
198.0,7.0,3.0,1.0,2.0,2.0,410.8944619997601,4.0,1.0,phase_1,,,,,,,,,,,,,orange,circle
77.0,2.0,2.0,0.0,2.0,2.0,359.5397650001359,4.0,1.0,phase_1,,,,,,,,,,,,,yellow,hexagon
187.0,3.0,3.0,0.0,1.0,1.0,584.4126100000722,4.0,1.0,phase_1,,,,,,,,,,,,,blue,diamond
0.0,4.0,4.0,0.0,6.0,6.0,423.1223439996938,1.0,1.0,phase_2,go,250.0,250.0,1.0,,,,,,,,,cyan,square
0.0,6.0,2.0,1.0,6.0,0.0,0.0,1.0,1.0,phase_2,stop,250.0,250.0,4.0,,,,,,,,,white,I
0.0,1.0,1.0,0.0,6.0,6.0,522.5444349998725,1.0,1.0,phase_2,go,250.0,300.0,1.0,,,,,,,,,magenta,triangle
0.0,4.0,4.0,0.0,5.0,5.0,784.8159579998537,1.0,1.0,phase_2,go,250.0,300.0,1.0,,,,,,,,,cyan,square
0.0,6.0,2.0,1.0,6.0,0.0,0.0,1.0,1.0,phase_2,stop,250.0,300.0,4.0,,,,,,,,,white,I
0.0,6.0,2.0,1.0,5.0,5.0,406.5110470000945,1.0,1.0,phase_2,stop,250.0,350.0,3.0,,,,,,,,,white,I
0.0,5.0,1.0,1.0,6.0,0.0,0.0,1.0,1.0,phase_2,stop,200.0,350.0,4.0,,,,,,,,,green,cross
0.0,2.0,2.0,0.0,6.0,6.0,482.7760630000739,1.0,1.0,phase_2,go,200.0,400.0,1.0,,,,,,,,,yellow,hexagon
0.0,5.0,1.0,1.0,5.0,0.0,0.0,1.0,1.0,phase_2,stop,200.0,400.0,4.0,,,,,,,,,green,cross
0.0,3.0,3.0,0.0,6.0,6.0,948.2786559997294,1.0,1.0,phase_2,go,250.0,400.0,1.0,,,,,,,,,blue,diamond
0.0,5.0,1.0,1.0,6.0,0.0,0.0,1.0,1.0,phase_2,stop,250.0,400.0,4.0,,,,,,,,,green,cross
0.0,7.0,3.0,1.0,6.0,0.0,0.0,1.0,1.0,phase_2,stop,250.0,450.0,4.0,,,,,,,,,orange,circle
0.0,8.0,4.0,1.0,6.0,0.0,0.0,1.0,1.0,phase_2,stop,250.0,500.0,4.0,,,,,,,,,gray,flipped triangle
0.0,4.0,4.0,0.0,5.0,5.0,764.8350750000645,1.0,1.0,phase_2,go,250.0,550.0,1.0,,,,,,,,,cyan,square
0.0,7.0,3.0,1.0,6.0,0.0,0.0,1.0,1.0,phase_2,stop,250.0,550.0,4.0,,,,,,,,,orange,circle
0.0,3.0,3.0,0.0,5.0,5.0,797.5539659996684,1.0,1.0,phase_2,go,250.0,600.0,1.0,,,,,,,,,blue,diamond
0.0,5.0,1.0,1.0,6.0,6.0,728.054616999998,1.0,1.0,phase_2,go,250.0,600.0,1.0,,,,,,,,,green,cross
0.0,4.0,4.0,0.0,5.0,5.0,639.014834000136,1.0,1.0,phase_2,go,250.0,600.0,1.0,,,,,,,,,cyan,square
0.0,6.0,2.0,1.0,6.0,6.0,493.3869920000688,1.0,1.0,phase_2,stop,250.0,600.0,3.0,,,,,,,,,white,I
0.0,7.0,3.0,1.0,6.0,6.0,623.2291540000006,1.0,1.0,phase_2,stop,250.0,550.0,3.0,,,,,,,,,orange,circle
0.0,4.0,4.0,0.0,6.0,6.0,778.3736309997948,1.0,1.0,phase_2,go,250.0,500.0,1.0,,,,,,,,,cyan,square
0.0,2.0,2.0,0.0,6.0,6.0,947.7988970002116,1.0,1.0,phase_2,go,250.0,500.0,1.0,,,,,,,,,yellow,hexagon
0.0,7.0,3.0,1.0,5.0,0.0,0.0,1.0,1.0,phase_2,stop,250.0,500.0,4.0,,,,,,,,,orange,circle
0.0,3.0,3.0,0.0,6.0,6.0,717.2607689999495,1.0,1.0,phase_2,go,300.0,500.0,1.0,,,,,,,,,blue,diamond
0.0,6.0,2.0,1.0,5.0,0.0,0.0,1.0,1.0,phase_2,stop,300.0,500.0,4.0,,,,,,,,,white,I
0.0,2.0,2.0,0.0,5.0,5.0,778.6383029997523,1.0,1.0,phase_2,go,350.0,500.0,1.0,,,,,,,,,yellow,hexagon
0.0,5.0,1.0,1.0,6.0,0.0,0.0,1.0,1.0,phase_2,stop,350.0,500.0,4.0,,,,,,,,,green,cross
0.0,6.0,2.0,1.0,6.0,6.0,609.9937949998093,1.0,1.0,phase_2,go,350.0,550.0,1.0,,,,,,,,,white,I
0.0,1.0,1.0,0.0,5.0,5.0,562.0251649997954,1.0,1.0,phase_2,go,350.0,550.0,1.0,,,,,,,,,magenta,triangle
0.0,8.0,4.0,1.0,6.0,6.0,736.0408119998283,1.0,1.0,phase_2,go,350.0,550.0,1.0,,,,,,,,,gray,flipped triangle
0.0,1.0,1.0,0.0,6.0,6.0,604.999060999944,1.0,1.0,phase_2,go,350.0,550.0,1.0,,,,,,,,,magenta,triangle
0.0,4.0,4.0,0.0,6.0,6.0,562.2986140001558,1.0,1.0,phase_2,go,350.0,550.0,1.0,,,,,,,,,cyan,square
0.0,2.0,2.0,0.0,5.0,5.0,504.9211639998248,1.0,1.0,phase_2,go,350.0,550.0,1.0,,,,,,,,,yellow,hexagon
0.0,2.0,2.0,0.0,6.0,6.0,335.9278500001892,1.0,1.0,phase_2,go,350.0,550.0,1.0,,,,,,,,,yellow,hexagon
0.0,8.0,4.0,1.0,6.0,6.0,598.8925500000732,1.0,1.0,phase_2,stop,350.0,550.0,3.0,,,,,,,,,gray,flipped triangle
0.0,4.0,4.0,0.0,5.0,5.0,668.033517999902,1.0,1.0,phase_2,go,350.0,500.0,1.0,,,,,,,,,cyan,square
0.0,6.0,2.0,1.0,6.0,6.0,533.2209810003405,2.0,1.0,phase_2,go,350.0,500.0,1.0,,,,,,,,,white,I
0.0,8.0,4.0,1.0,6.0,6.0,401.295530000425,2.0,1.0,phase_2,stop,350.0,500.0,3.0,,,,,,,,,gray,flipped triangle
0.0,2.0,2.0,0.0,6.0,6.0,608.6586569999781,2.0,1.0,phase_2,go,350.0,450.0,1.0,,,,,,,,,yellow,hexagon
0.0,5.0,1.0,1.0,6.0,0.0,0.0,2.0,1.0,phase_2,stop,350.0,450.0,4.0,,,,,,,,,green,cross
0.0,2.0,2.0,0.0,5.0,5.0,714.5759139998518,2.0,1.0,phase_2,go,350.0,500.0,1.0,,,,,,,,,yellow,hexagon
0.0,7.0,3.0,1.0,6.0,0.0,0.0,2.0,1.0,phase_2,stop,350.0,500.0,4.0,,,,,,,,,orange,circle
0.0,4.0,4.0,0.0,5.0,5.0,640.99796399978,2.0,1.0,phase_2,go,350.0,550.0,1.0,,,,,,,,,cyan,square
0.0,8.0,4.0,1.0,6.0,6.0,616.1151669998617,2.0,1.0,phase_2,stop,350.0,550.0,3.0,,,,,,,,,gray,flipped triangle
0.0,7.0,3.0,1.0,6.0,0.0,0.0,2.0,1.0,phase_2,stop,350.0,500.0,4.0,,,,,,,,,orange,circle
0.0,5.0,1.0,1.0,6.0,6.0,668.399066999882,2.0,1.0,phase_2,stop,350.0,550.0,3.0,,,,,,,,,green,cross
0.0,8.0,4.0,1.0,6.0,6.0,874.6532250002019,2.0,1.0,phase_2,go,350.0,500.0,1.0,,,,,,,,,gray,flipped triangle
0.0,4.0,4.0,0.0,6.0,6.0,807.4586790003195,2.0,1.0,phase_2,go,350.0,500.0,1.0,,,,,,,,,cyan,square
0.0,7.0,3.0,1.0,5.0,0.0,0.0,2.0,1.0,phase_2,stop,350.0,500.0,4.0,,,,,,,,,orange,circle
0.0,6.0,2.0,1.0,5.0,0.0,0.0,2.0,1.0,phase_2,stop,400.0,500.0,4.0,,,,,,,,,white,I
0.0,1.0,1.0,0.0,6.0,6.0,729.7757339997588,2.0,1.0,phase_2,go,450.0,500.0,1.0,,,,,,,,,magenta,triangle
0.0,6.0,2.0,1.0,6.0,0.0,0.0,2.0,1.0,phase_2,stop,450.0,500.0,4.0,,,,,,,,,white,I
0.0,5.0,1.0,1.0,5.0,0.0,0.0,2.0,1.0,phase_2,stop,450.0,550.0,4.0,,,,,,,,,green,cross
0.0,7.0,3.0,1.0,6.0,0.0,0.0,2.0,1.0,phase_2,stop,500.0,550.0,4.0,,,,,,,,,orange,circle
0.0,2.0,2.0,0.0,6.0,6.0,796.3764619998983,2.0,1.0,phase_2,go,500.0,600.0,1.0,,,,,,,,,yellow,hexagon
0.0,1.0,1.0,0.0,5.0,5.0,610.3929109999626,2.0,1.0,phase_2,go,500.0,600.0,1.0,,,,,,,,,magenta,triangle
0.0,3.0,3.0,0.0,6.0,6.0,874.3749519999255,2.0,1.0,phase_2,go,500.0,600.0,1.0,,,,,,,,,blue,diamond
0.0,4.0,4.0,0.0,6.0,6.0,766.9713600002979,2.0,1.0,phase_2,go,500.0,600.0,1.0,,,,,,,,,cyan,square
0.0,5.0,1.0,1.0,6.0,6.0,750.7610509996994,2.0,1.0,phase_2,stop,500.0,600.0,3.0,,,,,,,,,green,cross
0.0,6.0,2.0,1.0,6.0,0.0,0.0,2.0,1.0,phase_2,stop,500.0,550.0,4.0,,,,,,,,,white,I
0.0,4.0,4.0,0.0,6.0,6.0,1009.2160230001357,2.0,1.0,phase_2,go,500.0,600.0,1.0,,,,,,,,,cyan,square
0.0,8.0,4.0,1.0,5.0,0.0,0.0,2.0,1.0,phase_2,stop,500.0,600.0,4.0,,,,,,,,,gray,flipped triangle
0.0,2.0,2.0,0.0,6.0,6.0,912.31625599994,2.0,1.0,phase_2,go,550.0,600.0,1.0,,,,,,,,,yellow,hexagon
0.0,3.0,3.0,0.0,5.0,5.0,718.4086890001709,2.0,1.0,phase_2,go,550.0,600.0,1.0,,,,,,,,,blue,diamond
0.0,3.0,3.0,0.0,5.0,5.0,721.962011999949,2.0,1.0,phase_2,go,550.0,600.0,1.0,,,,,,,,,blue,diamond
0.0,1.0,1.0,0.0,6.0,6.0,812.3682939999526,2.0,1.0,phase_2,go,550.0,600.0,1.0,,,,,,,,,magenta,triangle
0.0,7.0,3.0,1.0,5.0,5.0,586.4209579999624,2.0,1.0,phase_2,stop,550.0,600.0,3.0,,,,,,,,,orange,circle
0.0,1.0,1.0,0.0,5.0,5.0,621.6470389999813,2.0,1.0,phase_2,go,500.0,600.0,1.0,,,,,,,,,magenta,triangle
0.0,5.0,1.0,1.0,6.0,0.0,0.0,2.0,1.0,phase_2,stop,500.0,600.0,4.0,,,,,,,,,green,cross
0.0,1.0,1.0,0.0,6.0,6.0,654.4598780001252,2.0,1.0,phase_2,go,500.0,650.0,1.0,,,,,,,,,magenta,triangle
0.0,5.0,1.0,1.0,5.0,5.0,1018.0647570000474,2.0,1.0,phase_2,go,500.0,650.0,1.0,,,,,,,,,green,cross
0.0,3.0,3.0,0.0,6.0,6.0,656.1595899997883,2.0,1.0,phase_2,go,500.0,650.0,1.0,,,,,,,,,blue,diamond
0.0,5.0,1.0,1.0,6.0,6.0,643.8183320001372,3.0,1.0,phase_2,go,500.0,650.0,1.0,,,,,,,,,green,cross
0.0,7.0,3.0,1.0,6.0,6.0,360.899824000171,3.0,1.0,phase_2,stop,500.0,650.0,3.0,,,,,,,,,orange,circle
0.0,8.0,4.0,1.0,5.0,5.0,402.0025039999382,3.0,1.0,phase_2,stop,500.0,600.0,3.0,,,,,,,,,gray,flipped triangle
0.0,1.0,1.0,0.0,6.0,6.0,515.50879000024,3.0,1.0,phase_2,go,450.0,600.0,1.0,,,,,,,,,magenta,triangle
0.0,4.0,4.0,0.0,6.0,6.0,452.4885079999876,3.0,1.0,phase_2,go,450.0,600.0,1.0,,,,,,,,,cyan,square
0.0,2.0,2.0,0.0,6.0,6.0,521.3190569998005,3.0,1.0,phase_2,go,450.0,600.0,1.0,,,,,,,,,yellow,hexagon
0.0,8.0,4.0,1.0,5.0,0.0,0.0,3.0,1.0,phase_2,stop,450.0,600.0,4.0,,,,,,,,,gray,flipped triangle
0.0,2.0,2.0,0.0,5.0,5.0,655.8370940001623,3.0,1.0,phase_2,go,500.0,600.0,1.0,,,,,,,,,yellow,hexagon
0.0,6.0,2.0,1.0,5.0,0.0,0.0,3.0,1.0,phase_2,stop,500.0,600.0,4.0,,,,,,,,,white,I
0.0,8.0,4.0,1.0,5.0,0.0,0.0,3.0,1.0,phase_2,stop,550.0,600.0,4.0,,,,,,,,,gray,flipped triangle
0.0,2.0,2.0,0.0,5.0,5.0,662.3848409999482,3.0,1.0,phase_2,go,600.0,600.0,1.0,,,,,,,,,yellow,hexagon
0.0,3.0,3.0,0.0,5.0,5.0,442.0907619996796,3.0,1.0,phase_2,go,600.0,600.0,1.0,,,,,,,,,blue,diamond
0.0,7.0,3.0,1.0,5.0,5.0,364.7077340001488,3.0,1.0,phase_2,stop,600.0,600.0,3.0,,,,,,,,,orange,circle
0.0,7.0,3.0,1.0,6.0,6.0,754.8777810002321,3.0,1.0,phase_2,go,550.0,600.0,1.0,,,,,,,,,orange,circle
0.0,7.0,3.0,1.0,5.0,5.0,753.7681110002268,3.0,1.0,phase_2,go,550.0,600.0,1.0,,,,,,,,,orange,circle
0.0,6.0,2.0,1.0,6.0,0.0,0.0,3.0,1.0,phase_2,stop,550.0,600.0,4.0,,,,,,,,,white,I
0.0,5.0,1.0,1.0,6.0,0.0,0.0,3.0,1.0,phase_2,stop,550.0,650.0,4.0,,,,,,,,,green,cross
0.0,3.0,3.0,0.0,6.0,6.0,616.7595350002557,3.0,1.0,phase_2,go,550.0,700.0,1.0,,,,,,,,,blue,diamond
0.0,8.0,4.0,1.0,6.0,0.0,0.0,3.0,1.0,phase_2,stop,550.0,700.0,4.0,,,,,,,,,gray,flipped triangle
0.0,8.0,4.0,1.0,6.0,6.0,848.6768180000581,3.0,1.0,phase_2,go,550.0,750.0,1.0,,,,,,,,,gray,flipped triangle
0.0,6.0,2.0,1.0,6.0,6.0,783.1815489998917,3.0,1.0,phase_2,stop,550.0,750.0,3.0,,,,,,,,,white,I
0.0,2.0,2.0,0.0,6.0,6.0,628.9634980003029,3.0,1.0,phase_2,go,550.0,700.0,1.0,,,,,,,,,yellow,hexagon
0.0,1.0,1.0,0.0,6.0,6.0,498.2063750003362,3.0,1.0,phase_2,go,550.0,700.0,1.0,,,,,,,,,magenta,triangle
0.0,8.0,4.0,1.0,6.0,0.0,0.0,3.0,1.0,phase_2,stop,550.0,700.0,4.0,,,,,,,,,gray,flipped triangle
0.0,2.0,2.0,0.0,5.0,5.0,496.2756270001591,3.0,1.0,phase_2,go,550.0,750.0,1.0,,,,,,,,,yellow,hexagon
0.0,7.0,3.0,1.0,5.0,0.0,0.0,3.0,1.0,phase_2,stop,550.0,750.0,4.0,,,,,,,,,orange,circle
0.0,7.0,3.0,1.0,5.0,5.0,495.8330640001804,3.0,1.0,phase_2,stop,600.0,750.0,3.0,,,,,,,,,orange,circle
0.0,1.0,1.0,0.0,6.0,6.0,559.7998589996678,3.0,1.0,phase_2,go,550.0,750.0,1.0,,,,,,,,,magenta,triangle
0.0,6.0,2.0,1.0,6.0,6.0,811.6227589998743,3.0,1.0,phase_2,stop,550.0,750.0,3.0,,,,,,,,,white,I
0.0,8.0,4.0,1.0,6.0,6.0,539.443809000204,3.0,1.0,phase_2,stop,550.0,700.0,3.0,,,,,,,,,gray,flipped triangle
0.0,1.0,1.0,0.0,5.0,5.0,850.52154899995,3.0,1.0,phase_2,go,550.0,650.0,1.0,,,,,,,,,magenta,triangle
0.0,4.0,4.0,0.0,5.0,5.0,449.4079639998745,3.0,1.0,phase_2,go,550.0,650.0,1.0,,,,,,,,,cyan,square
0.0,4.0,4.0,0.0,5.0,5.0,373.6918060003518,3.0,1.0,phase_2,go,550.0,650.0,1.0,,,,,,,,,cyan,square
0.0,8.0,4.0,1.0,5.0,0.0,0.0,3.0,1.0,phase_2,stop,550.0,650.0,4.0,,,,,,,,,gray,flipped triangle
0.0,5.0,1.0,1.0,5.0,5.0,731.7226350000965,3.0,1.0,phase_2,stop,600.0,650.0,3.0,,,,,,,,,green,cross
0.0,7.0,3.0,1.0,5.0,5.0,494.8490419997142,3.0,1.0,phase_2,go,550.0,650.0,1.0,,,,,,,,,orange,circle
0.0,2.0,2.0,0.0,5.0,5.0,428.9933459999702,4.0,1.0,phase_2,go,550.0,650.0,1.0,,,,,,,,,yellow,hexagon
0.0,6.0,2.0,1.0,5.0,5.0,337.8612709998378,4.0,1.0,phase_2,go,550.0,650.0,1.0,,,,,,,,,white,I
0.0,4.0,4.0,0.0,6.0,6.0,376.2979049997739,4.0,1.0,phase_2,go,550.0,650.0,1.0,,,,,,,,,cyan,square
0.0,4.0,4.0,0.0,5.0,5.0,360.9765969999898,4.0,1.0,phase_2,go,550.0,650.0,1.0,,,,,,,,,cyan,square
0.0,5.0,1.0,1.0,5.0,5.0,408.083624000028,4.0,1.0,phase_2,stop,550.0,650.0,3.0,,,,,,,,,green,cross
0.0,5.0,1.0,1.0,6.0,6.0,782.3866300000191,4.0,1.0,phase_2,stop,500.0,650.0,3.0,,,,,,,,,green,cross
0.0,3.0,3.0,0.0,5.0,5.0,458.5377420003169,4.0,1.0,phase_2,go,500.0,600.0,1.0,,,,,,,,,blue,diamond
0.0,3.0,3.0,0.0,5.0,5.0,430.5159989999083,4.0,1.0,phase_2,go,500.0,600.0,1.0,,,,,,,,,blue,diamond
0.0,8.0,4.0,1.0,5.0,0.0,0.0,4.0,1.0,phase_2,stop,500.0,600.0,4.0,,,,,,,,,gray,flipped triangle
0.0,3.0,3.0,0.0,6.0,6.0,546.8627669997659,4.0,1.0,phase_2,go,550.0,600.0,1.0,,,,,,,,,blue,diamond
0.0,6.0,2.0,1.0,6.0,6.0,737.1916350002721,4.0,1.0,phase_2,go,550.0,600.0,1.0,,,,,,,,,white,I
0.0,7.0,3.0,1.0,6.0,0.0,0.0,4.0,1.0,phase_2,stop,550.0,600.0,4.0,,,,,,,,,orange,circle
0.0,4.0,4.0,0.0,6.0,6.0,553.6298809997788,4.0,1.0,phase_2,go,550.0,650.0,1.0,,,,,,,,,cyan,square
0.0,1.0,1.0,0.0,5.0,5.0,434.9481770000238,4.0,1.0,phase_2,go,550.0,650.0,1.0,,,,,,,,,magenta,triangle
0.0,7.0,3.0,1.0,6.0,6.0,486.6624929995851,4.0,1.0,phase_2,stop,550.0,650.0,3.0,,,,,,,,,orange,circle
0.0,1.0,1.0,0.0,5.0,5.0,509.43003000020326,4.0,1.0,phase_2,go,550.0,600.0,1.0,,,,,,,,,magenta,triangle
0.0,8.0,4.0,1.0,6.0,0.0,0.0,4.0,1.0,phase_2,stop,550.0,600.0,4.0,,,,,,,,,gray,flipped triangle
0.0,7.0,3.0,1.0,5.0,5.0,457.8158909998819,4.0,1.0,phase_2,stop,550.0,650.0,3.0,,,,,,,,,orange,circle
0.0,5.0,1.0,1.0,5.0,5.0,915.7333829998606,4.0,1.0,phase_2,go,500.0,650.0,1.0,,,,,,,,,green,cross
0.0,1.0,1.0,0.0,5.0,5.0,450.9428350002054,4.0,1.0,phase_2,go,500.0,650.0,1.0,,,,,,,,,magenta,triangle
0.0,4.0,4.0,0.0,6.0,6.0,648.3619890000227,4.0,1.0,phase_2,go,500.0,650.0,1.0,,,,,,,,,cyan,square
0.0,6.0,2.0,1.0,6.0,0.0,0.0,4.0,1.0,phase_2,stop,500.0,650.0,4.0,,,,,,,,,white,I
0.0,1.0,1.0,0.0,5.0,5.0,515.3624699996726,4.0,1.0,phase_2,go,500.0,700.0,1.0,,,,,,,,,magenta,triangle
0.0,8.0,4.0,1.0,5.0,5.0,885.4668570002104,4.0,1.0,phase_2,go,500.0,700.0,1.0,,,,,,,,,gray,flipped triangle
0.0,2.0,2.0,0.0,6.0,6.0,566.5203829998973,4.0,1.0,phase_2,go,500.0,700.0,1.0,,,,,,,,,yellow,hexagon
0.0,3.0,3.0,0.0,5.0,5.0,486.925754999902,4.0,1.0,phase_2,go,500.0,700.0,1.0,,,,,,,,,blue,diamond
0.0,2.0,2.0,0.0,5.0,5.0,349.35324599973677,4.0,1.0,phase_2,go,500.0,700.0,1.0,,,,,,,,,yellow,hexagon
0.0,3.0,3.0,0.0,6.0,6.0,490.2031619999434,4.0,1.0,phase_2,go,500.0,700.0,1.0,,,,,,,,,blue,diamond
0.0,7.0,3.0,1.0,5.0,5.0,376.4629649999733,4.0,1.0,phase_2,stop,500.0,700.0,3.0,,,,,,,,,orange,circle
0.0,4.0,4.0,0.0,6.0,6.0,373.7934740001947,4.0,1.0,phase_2,go,450.0,700.0,1.0,,,,,,,,,cyan,square
0.0,8.0,4.0,1.0,6.0,6.0,457.806955000251,4.0,1.0,phase_2,go,450.0,700.0,1.0,,,,,,,,,gray,flipped triangle
0.0,7.0,3.0,1.0,6.0,6.0,581.6209200002049,4.0,1.0,phase_2,stop,450.0,700.0,3.0,,,,,,,,,orange,circle
0.0,5.0,1.0,1.0,5.0,5.0,484.2742770001678,4.0,1.0,phase_2,stop,450.0,650.0,3.0,,,,,,,,,green,cross
0.0,1.0,1.0,0.0,5.0,5.0,409.9970940001185,4.0,1.0,phase_2,go,400.0,650.0,1.0,,,,,,,,,magenta,triangle
0.0,5.0,1.0,1.0,5.0,0.0,0.0,4.0,1.0,phase_2,stop,400.0,650.0,4.0,,,,,,,,,green,cross
0.0,4.0,4.0,0.0,6.0,6.0,354.6143650000886,4.0,1.0,phase_2,go,450.0,650.0,1.0,,,,,,,,,cyan,square
0.0,1.0,1.0,0.0,6.0,6.0,545.8153649997257,5.0,1.0,phase_2,go,450.0,650.0,1.0,,,,,,,,,magenta,triangle
0.0,6.0,2.0,1.0,5.0,5.0,386.5233599999556,5.0,1.0,phase_2,go,450.0,650.0,1.0,,,,,,,,,white,I
0.0,1.0,1.0,0.0,6.0,6.0,317.0206569998299,5.0,1.0,phase_2,go,450.0,650.0,1.0,,,,,,,,,magenta,triangle
0.0,8.0,4.0,1.0,5.0,5.0,379.6702350000487,5.0,1.0,phase_2,stop,450.0,650.0,3.0,,,,,,,,,gray,flipped triangle
0.0,2.0,2.0,0.0,5.0,5.0,412.3811879999266,5.0,1.0,phase_2,go,400.0,650.0,1.0,,,,,,,,,yellow,hexagon
0.0,1.0,1.0,0.0,5.0,5.0,375.589370000398,5.0,1.0,phase_2,go,400.0,650.0,1.0,,,,,,,,,magenta,triangle
0.0,4.0,4.0,0.0,6.0,6.0,381.7443050002111,5.0,1.0,phase_2,go,400.0,650.0,1.0,,,,,,,,,cyan,square
0.0,1.0,1.0,0.0,6.0,6.0,362.3440229998778,5.0,1.0,phase_2,go,400.0,650.0,1.0,,,,,,,,,magenta,triangle
0.0,4.0,4.0,0.0,6.0,6.0,406.1837620001824,5.0,1.0,phase_2,go,400.0,650.0,1.0,,,,,,,,,cyan,square
0.0,4.0,4.0,0.0,5.0,5.0,394.235227000081,5.0,1.0,phase_2,go,400.0,650.0,1.0,,,,,,,,,cyan,square
0.0,3.0,3.0,0.0,5.0,5.0,402.855375999934,5.0,1.0,phase_2,go,400.0,650.0,1.0,,,,,,,,,blue,diamond
0.0,3.0,3.0,0.0,5.0,5.0,396.9745540002805,5.0,1.0,phase_2,go,400.0,650.0,1.0,,,,,,,,,blue,diamond
0.0,7.0,3.0,1.0,5.0,0.0,0.0,5.0,1.0,phase_2,stop,400.0,650.0,4.0,,,,,,,,,orange,circle
0.0,1.0,1.0,0.0,6.0,6.0,544.5786489999591,5.0,1.0,phase_2,go,450.0,650.0,1.0,,,,,,,,,magenta,triangle
0.0,1.0,1.0,0.0,5.0,5.0,417.751896000027,5.0,1.0,phase_2,go,450.0,650.0,1.0,,,,,,,,,magenta,triangle
0.0,6.0,2.0,1.0,6.0,6.0,756.0374390000106,5.0,1.0,phase_2,stop,450.0,650.0,3.0,,,,,,,,,white,I
0.0,3.0,3.0,0.0,6.0,6.0,471.5584099999432,5.0,1.0,phase_2,go,450.0,600.0,1.0,,,,,,,,,blue,diamond
0.0,8.0,4.0,1.0,6.0,6.0,456.3362799999595,5.0,1.0,phase_2,stop,450.0,600.0,3.0,,,,,,,,,gray,flipped triangle
0.0,4.0,4.0,0.0,6.0,6.0,524.8161429999527,5.0,1.0,phase_2,go,450.0,550.0,1.0,,,,,,,,,cyan,square
0.0,6.0,2.0,1.0,5.0,0.0,0.0,5.0,1.0,phase_2,stop,450.0,550.0,4.0,,,,,,,,,white,I
0.0,6.0,2.0,1.0,5.0,5.0,801.882177999687,5.0,1.0,phase_2,go,500.0,550.0,1.0,,,,,,,,,white,I
0.0,3.0,3.0,0.0,5.0,5.0,516.7412949999743,5.0,1.0,phase_2,go,500.0,550.0,1.0,,,,,,,,,blue,diamond
0.0,6.0,2.0,1.0,6.0,6.0,769.5921310000813,5.0,1.0,phase_2,go,500.0,550.0,1.0,,,,,,,,,white,I
0.0,3.0,3.0,0.0,6.0,6.0,558.3617380002579,5.0,1.0,phase_2,go,500.0,550.0,1.0,,,,,,,,,blue,diamond
0.0,1.0,1.0,0.0,6.0,6.0,373.9154939999025,5.0,1.0,phase_2,go,500.0,550.0,1.0,,,,,,,,,magenta,triangle
0.0,2.0,2.0,0.0,6.0,6.0,584.7636119997333,5.0,1.0,phase_2,go,500.0,550.0,1.0,,,,,,,,,yellow,hexagon
0.0,5.0,1.0,1.0,5.0,5.0,811.2460080001256,5.0,1.0,phase_2,go,500.0,550.0,1.0,,,,,,,,,green,cross
0.0,8.0,4.0,1.0,5.0,0.0,0.0,5.0,1.0,phase_2,stop,500.0,550.0,4.0,,,,,,,,,gray,flipped triangle
0.0,6.0,2.0,1.0,5.0,5.0,724.9565500001154,5.0,1.0,phase_2,go,550.0,550.0,1.0,,,,,,,,,white,I
0.0,3.0,3.0,0.0,5.0,5.0,467.3776839999846,5.0,1.0,phase_2,go,550.0,550.0,1.0,,,,,,,,,blue,diamond
0.0,7.0,3.0,1.0,5.0,5.0,370.1133790000313,5.0,1.0,phase_2,stop,550.0,550.0,3.0,,,,,,,,,orange,circle
0.0,1.0,1.0,0.0,5.0,5.0,698.2161249998171,5.0,1.0,phase_2,go,500.0,550.0,1.0,,,,,,,,,magenta,triangle
0.0,2.0,2.0,0.0,6.0,6.0,419.0312330001688,5.0,1.0,phase_2,go,500.0,550.0,1.0,,,,,,,,,yellow,hexagon
0.0,1.0,1.0,0.0,5.0,5.0,348.861315999784,5.0,1.0,phase_2,go,500.0,550.0,1.0,,,,,,,,,magenta,triangle
0.0,6.0,2.0,1.0,5.0,0.0,0.0,5.0,1.0,phase_2,stop,500.0,550.0,4.0,,,,,,,,,white,I
0.0,2.0,2.0,0.0,6.0,6.0,550.773591000052,5.0,1.0,phase_2,go,550.0,550.0,1.0,,,,,,,,,yellow,hexagon
0.0,5.0,1.0,1.0,5.0,5.0,419.281754000167,6.0,1.0,phase_2,go,550.0,550.0,1.0,,,,,,,,,green,cross
0.0,2.0,2.0,0.0,5.0,5.0,400.8115429996906,6.0,1.0,phase_2,go,550.0,550.0,1.0,,,,,,,,,yellow,hexagon
0.0,4.0,4.0,0.0,5.0,5.0,386.1232809999819,6.0,1.0,phase_2,go,550.0,550.0,1.0,,,,,,,,,cyan,square
0.0,7.0,3.0,1.0,6.0,6.0,375.0767559999985,6.0,1.0,phase_2,go,550.0,550.0,1.0,,,,,,,,,orange,circle
0.0,6.0,2.0,1.0,5.0,5.0,701.1705649997566,6.0,1.0,phase_2,stop,550.0,550.0,3.0,,,,,,,,,white,I
0.0,1.0,1.0,0.0,6.0,6.0,446.4849139999387,6.0,1.0,phase_2,go,500.0,550.0,1.0,,,,,,,,,magenta,triangle
0.0,6.0,2.0,1.0,6.0,6.0,348.1295070000669,6.0,1.0,phase_2,stop,500.0,550.0,3.0,,,,,,,,,white,I
0.0,2.0,2.0,0.0,6.0,6.0,587.6602110001841,6.0,1.0,phase_2,go,500.0,500.0,1.0,,,,,,,,,yellow,hexagon
0.0,6.0,2.0,1.0,6.0,0.0,0.0,6.0,1.0,phase_2,stop,500.0,500.0,4.0,,,,,,,,,white,I
0.0,1.0,1.0,0.0,5.0,5.0,467.7483639998172,6.0,1.0,phase_2,go,500.0,550.0,1.0,,,,,,,,,magenta,triangle
0.0,6.0,2.0,1.0,5.0,0.0,0.0,6.0,1.0,phase_2,stop,500.0,550.0,4.0,,,,,,,,,white,I
0.0,5.0,1.0,1.0,5.0,0.0,0.0,6.0,1.0,phase_2,stop,550.0,550.0,4.0,,,,,,,,,green,cross
0.0,3.0,3.0,0.0,5.0,5.0,456.5680000000611,6.0,1.0,phase_2,go,600.0,550.0,1.0,,,,,,,,,blue,diamond
0.0,6.0,2.0,1.0,5.0,5.0,707.723857000019,6.0,1.0,phase_2,stop,600.0,550.0,3.0,,,,,,,,,white,I
0.0,4.0,4.0,0.0,6.0,6.0,453.88844099989,6.0,1.0,phase_2,go,550.0,550.0,1.0,,,,,,,,,cyan,square
0.0,4.0,4.0,0.0,5.0,5.0,325.2957499998956,6.0,1.0,phase_2,go,550.0,550.0,1.0,,,,,,,,,cyan,square
0.0,1.0,1.0,0.0,5.0,5.0,428.0143710002448,6.0,1.0,phase_2,go,550.0,550.0,1.0,,,,,,,,,magenta,triangle
0.0,8.0,4.0,1.0,5.0,5.0,371.9317650002267,6.0,1.0,phase_2,stop,550.0,550.0,3.0,,,,,,,,,gray,flipped triangle
0.0,4.0,4.0,0.0,5.0,5.0,477.0363409998026,6.0,1.0,phase_2,go,500.0,550.0,1.0,,,,,,,,,cyan,square
0.0,3.0,3.0,0.0,6.0,6.0,345.801862999906,6.0,1.0,phase_2,go,500.0,550.0,1.0,,,,,,,,,blue,diamond
0.0,3.0,3.0,0.0,6.0,6.0,376.4892500003043,6.0,1.0,phase_2,go,500.0,550.0,1.0,,,,,,,,,blue,diamond
0.0,3.0,3.0,0.0,5.0,5.0,429.3902220001655,6.0,1.0,phase_2,go,500.0,550.0,1.0,,,,,,,,,blue,diamond
0.0,4.0,4.0,0.0,5.0,5.0,406.6849349997028,6.0,1.0,phase_2,go,500.0,550.0,1.0,,,,,,,,,cyan,square
0.0,3.0,3.0,0.0,6.0,6.0,426.709892999952,6.0,1.0,phase_2,go,500.0,550.0,1.0,,,,,,,,,blue,diamond
0.0,7.0,3.0,1.0,5.0,5.0,835.0157290001334,6.0,1.0,phase_2,go,500.0,550.0,1.0,,,,,,,,,orange,circle
0.0,4.0,4.0,0.0,5.0,5.0,428.5139150001669,6.0,1.0,phase_2,go,500.0,550.0,1.0,,,,,,,,,cyan,square
0.0,6.0,2.0,1.0,5.0,0.0,0.0,6.0,1.0,phase_2,stop,500.0,550.0,4.0,,,,,,,,,white,I
0.0,1.0,1.0,0.0,5.0,5.0,331.9424010001057,6.0,1.0,phase_2,go,550.0,550.0,1.0,,,,,,,,,magenta,triangle
0.0,5.0,1.0,1.0,5.0,0.0,0.0,6.0,1.0,phase_2,stop,550.0,550.0,4.0,,,,,,,,,green,cross
0.0,3.0,3.0,0.0,6.0,6.0,466.5519239997593,6.0,1.0,phase_2,go,600.0,550.0,1.0,,,,,,,,,blue,diamond
0.0,8.0,4.0,1.0,6.0,0.0,0.0,6.0,1.0,phase_2,stop,600.0,550.0,4.0,,,,,,,,,gray,flipped triangle
0.0,3.0,3.0,0.0,6.0,6.0,440.4822100000274,6.0,1.0,phase_2,go,600.0,600.0,1.0,,,,,,,,,blue,diamond
0.0,4.0,4.0,0.0,5.0,5.0,557.6716269997632,6.0,1.0,phase_2,go,600.0,600.0,1.0,,,,,,,,,cyan,square
0.0,5.0,1.0,1.0,5.0,0.0,0.0,6.0,1.0,phase_2,stop,600.0,600.0,4.0,,,,,,,,,green,cross
0.0,3.0,3.0,0.0,5.0,5.0,456.1689729998761,6.0,1.0,phase_2,go,650.0,600.0,1.0,,,,,,,,,blue,diamond
0.0,7.0,3.0,1.0,5.0,5.0,921.901371000331,6.0,1.0,phase_2,go,650.0,600.0,1.0,,,,,,,,,orange,circle
0.0,5.0,1.0,1.0,6.0,6.0,350.0700999998116,7.0,1.0,phase_2,stop,650.0,600.0,3.0,,,,,,,,,green,cross
0.0,1.0,1.0,0.0,6.0,6.0,443.924448999951,7.0,1.0,phase_2,go,650.0,550.0,1.0,,,,,,,,,magenta,triangle
0.0,2.0,2.0,0.0,5.0,5.0,478.2662860002347,7.0,1.0,phase_2,go,650.0,550.0,1.0,,,,,,,,,yellow,hexagon
0.0,2.0,2.0,0.0,5.0,5.0,357.4548199999299,7.0,1.0,phase_2,go,650.0,550.0,1.0,,,,,,,,,yellow,hexagon
0.0,1.0,1.0,0.0,6.0,6.0,512.922079999953,7.0,1.0,phase_2,go,650.0,550.0,1.0,,,,,,,,,magenta,triangle
0.0,5.0,1.0,1.0,5.0,5.0,795.7593530004488,7.0,1.0,phase_2,stop,650.0,550.0,3.0,,,,,,,,,green,cross
0.0,5.0,1.0,1.0,6.0,0.0,0.0,7.0,1.0,phase_2,stop,600.0,550.0,4.0,,,,,,,,,green,cross
0.0,7.0,3.0,1.0,5.0,5.0,537.7129220000825,7.0,1.0,phase_2,stop,600.0,600.0,3.0,,,,,,,,,orange,circle
0.0,3.0,3.0,0.0,5.0,5.0,401.9724589998077,7.0,1.0,phase_2,go,550.0,600.0,1.0,,,,,,,,,blue,diamond
0.0,8.0,4.0,1.0,5.0,0.0,0.0,7.0,1.0,phase_2,stop,550.0,600.0,4.0,,,,,,,,,gray,flipped triangle
0.0,4.0,4.0,0.0,5.0,5.0,572.3106460000054,7.0,1.0,phase_2,go,600.0,600.0,1.0,,,,,,,,,cyan,square
0.0,4.0,4.0,0.0,6.0,6.0,460.2367769998636,7.0,1.0,phase_2,go,600.0,600.0,1.0,,,,,,,,,cyan,square
0.0,2.0,2.0,0.0,6.0,6.0,497.3516719996951,7.0,1.0,phase_2,go,600.0,600.0,1.0,,,,,,,,,yellow,hexagon
0.0,2.0,2.0,0.0,5.0,5.0,538.1185010000991,7.0,1.0,phase_2,go,600.0,600.0,1.0,,,,,,,,,yellow,hexagon
0.0,1.0,1.0,0.0,6.0,6.0,675.1979450000363,7.0,1.0,phase_2,go,600.0,600.0,1.0,,,,,,,,,magenta,triangle
0.0,3.0,3.0,0.0,6.0,6.0,409.8925359999157,7.0,1.0,phase_2,go,600.0,600.0,1.0,,,,,,,,,blue,diamond
0.0,2.0,2.0,0.0,6.0,6.0,429.1757769997275,7.0,1.0,phase_2,go,600.0,600.0,1.0,,,,,,,,,yellow,hexagon
0.0,4.0,4.0,0.0,5.0,5.0,436.3847220001844,7.0,1.0,phase_2,go,600.0,600.0,1.0,,,,,,,,,cyan,square
0.0,7.0,3.0,1.0,5.0,0.0,0.0,7.0,1.0,phase_2,stop,600.0,600.0,4.0,,,,,,,,,orange,circle
0.0,2.0,2.0,0.0,5.0,5.0,562.4162399999477,7.0,1.0,phase_2,go,650.0,600.0,1.0,,,,,,,,,yellow,hexagon
0.0,8.0,4.0,1.0,6.0,0.0,0.0,7.0,1.0,phase_2,stop,650.0,600.0,4.0,,,,,,,,,gray,flipped triangle
0.0,3.0,3.0,0.0,5.0,5.0,464.0698030002568,7.0,1.0,phase_2,go,650.0,650.0,1.0,,,,,,,,,blue,diamond
0.0,2.0,2.0,0.0,6.0,6.0,419.9691940002594,7.0,1.0,phase_2,go,650.0,650.0,1.0,,,,,,,,,yellow,hexagon
0.0,8.0,4.0,1.0,5.0,0.0,0.0,7.0,1.0,phase_2,stop,650.0,650.0,4.0,,,,,,,,,gray,flipped triangle
0.0,6.0,2.0,1.0,5.0,0.0,0.0,7.0,1.0,phase_2,stop,700.0,650.0,4.0,,,,,,,,,white,I
0.0,6.0,2.0,1.0,5.0,5.0,789.4650279999951,7.0,1.0,phase_2,stop,750.0,650.0,3.0,,,,,,,,,white,I
0.0,5.0,1.0,1.0,6.0,6.0,414.37735099998457,7.0,1.0,phase_2,go,700.0,650.0,1.0,,,,,,,,,green,cross
0.0,6.0,2.0,1.0,6.0,6.0,616.7534659998637,7.0,1.0,phase_2,stop,700.0,650.0,3.0,,,,,,,,,white,I
0.0,7.0,3.0,1.0,5.0,5.0,478.4258539998518,7.0,1.0,phase_2,stop,700.0,600.0,3.0,,,,,,,,,orange,circle
0.0,4.0,4.0,0.0,5.0,5.0,747.865542999989,7.0,1.0,phase_2,go,650.0,600.0,1.0,,,,,,,,,cyan,square
0.0,2.0,2.0,0.0,5.0,5.0,410.546487999909,7.0,1.0,phase_2,go,650.0,600.0,1.0,,,,,,,,,yellow,hexagon
0.0,7.0,3.0,1.0,6.0,6.0,654.429729000185,7.0,1.0,phase_2,go,650.0,600.0,1.0,,,,,,,,,orange,circle
0.0,5.0,1.0,1.0,6.0,0.0,0.0,7.0,1.0,phase_2,stop,650.0,600.0,4.0,,,,,,,,,green,cross
0.0,3.0,3.0,0.0,6.0,6.0,527.6947389997986,7.0,1.0,phase_2,go,650.0,650.0,1.0,,,,,,,,,blue,diamond
0.0,6.0,2.0,1.0,6.0,0.0,0.0,7.0,1.0,phase_2,stop,650.0,650.0,4.0,,,,,,,,,white,I
0.0,8.0,4.0,1.0,5.0,5.0,1008.4367750000638,7.0,1.0,phase_2,go,650.0,700.0,1.0,,,,,,,,,gray,flipped triangle
0.0,3.0,3.0,0.0,5.0,5.0,366.0287970001263,8.0,1.0,phase_2,go,650.0,700.0,1.0,,,,,,,,,blue,diamond
0.0,5.0,1.0,1.0,5.0,5.0,881.0283019997769,8.0,1.0,phase_2,stop,650.0,700.0,3.0,,,,,,,,,green,cross
0.0,7.0,3.0,1.0,6.0,6.0,854.1701630001626,8.0,1.0,phase_2,stop,600.0,700.0,3.0,,,,,,,,,orange,circle
0.0,7.0,3.0,1.0,6.0,6.0,1062.5128859996948,8.0,1.0,phase_2,go,600.0,650.0,1.0,,,,,,,,,orange,circle
0.0,8.0,4.0,1.0,5.0,0.0,0.0,8.0,1.0,phase_2,stop,600.0,650.0,4.0,,,,,,,,,gray,flipped triangle
0.0,5.0,1.0,1.0,5.0,5.0,946.1490560001948,8.0,1.0,phase_2,go,650.0,650.0,1.0,,,,,,,,,green,cross
0.0,1.0,1.0,0.0,5.0,5.0,446.2083619996519,8.0,1.0,phase_2,go,650.0,650.0,1.0,,,,,,,,,magenta,triangle
0.0,8.0,4.0,1.0,5.0,5.0,406.8925070000659,8.0,1.0,phase_2,go,650.0,650.0,1.0,,,,,,,,,gray,flipped triangle
0.0,5.0,1.0,1.0,6.0,6.0,827.4538509999729,8.0,1.0,phase_2,go,650.0,650.0,1.0,,,,,,,,,green,cross
0.0,7.0,3.0,1.0,6.0,6.0,379.5394409999062,8.0,1.0,phase_2,go,650.0,650.0,1.0,,,,,,,,,orange,circle
0.0,8.0,4.0,1.0,6.0,6.0,888.3359749997908,8.0,1.0,phase_2,go,650.0,650.0,1.0,,,,,,,,,gray,flipped triangle
0.0,7.0,3.0,1.0,6.0,6.0,439.8087730000952,8.0,1.0,phase_2,stop,650.0,650.0,3.0,,,,,,,,,orange,circle
0.0,8.0,4.0,1.0,5.0,0.0,0.0,8.0,1.0,phase_2,stop,650.0,600.0,4.0,,,,,,,,,gray,flipped triangle
0.0,1.0,1.0,0.0,5.0,5.0,476.4154449999296,8.0,1.0,phase_2,go,700.0,600.0,1.0,,,,,,,,,magenta,triangle
0.0,8.0,4.0,1.0,6.0,0.0,0.0,8.0,1.0,phase_2,stop,700.0,600.0,4.0,,,,,,,,,gray,flipped triangle
0.0,2.0,2.0,0.0,5.0,5.0,499.9281239997799,8.0,1.0,phase_2,go,700.0,650.0,1.0,,,,,,,,,yellow,hexagon
0.0,8.0,4.0,1.0,5.0,0.0,0.0,8.0,1.0,phase_2,stop,700.0,650.0,4.0,,,,,,,,,gray,flipped triangle
0.0,2.0,2.0,0.0,6.0,6.0,412.5355450000825,8.0,1.0,phase_2,go,750.0,650.0,1.0,,,,,,,,,yellow,hexagon
0.0,8.0,4.0,1.0,5.0,5.0,915.5005539996636,8.0,1.0,phase_2,go,750.0,650.0,1.0,,,,,,,,,gray,flipped triangle
0.0,2.0,2.0,0.0,6.0,6.0,471.4246730000013,8.0,1.0,phase_2,go,750.0,650.0,1.0,,,,,,,,,yellow,hexagon
0.0,5.0,1.0,1.0,6.0,6.0,384.7707210002227,8.0,1.0,phase_2,stop,750.0,650.0,3.0,,,,,,,,,green,cross
0.0,4.0,4.0,0.0,6.0,6.0,557.9271810001956,8.0,1.0,phase_2,go,750.0,600.0,1.0,,,,,,,,,cyan,square
0.0,3.0,3.0,0.0,6.0,6.0,413.8735010001255,8.0,1.0,phase_2,go,750.0,600.0,1.0,,,,,,,,,blue,diamond
0.0,3.0,3.0,0.0,5.0,5.0,402.8036919999067,8.0,1.0,phase_2,go,750.0,600.0,1.0,,,,,,,,,blue,diamond
0.0,8.0,4.0,1.0,6.0,0.0,0.0,8.0,1.0,phase_2,stop,750.0,600.0,4.0,,,,,,,,,gray,flipped triangle
0.0,3.0,3.0,0.0,6.0,6.0,376.8827300000339,8.0,1.0,phase_2,go,750.0,650.0,1.0,,,,,,,,,blue,diamond
0.0,5.0,1.0,1.0,5.0,5.0,833.8427230000889,8.0,1.0,phase_2,stop,750.0,650.0,3.0,,,,,,,,,green,cross
0.0,5.0,1.0,1.0,5.0,0.0,0.0,8.0,1.0,phase_2,stop,700.0,650.0,4.0,,,,,,,,,green,cross
0.0,2.0,2.0,0.0,5.0,5.0,522.2148390002985,8.0,1.0,phase_2,go,750.0,650.0,1.0,,,,,,,,,yellow,hexagon
0.0,7.0,3.0,1.0,5.0,0.0,0.0,8.0,1.0,phase_2,stop,750.0,650.0,4.0,,,,,,,,,orange,circle
0.0,6.0,2.0,1.0,5.0,0.0,0.0,8.0,1.0,phase_2,stop,800.0,650.0,4.0,,,,,,,,,white,I
0.0,2.0,2.0,0.0,5.0,5.0,625.8269740001197,8.0,1.0,phase_2,go,850.0,650.0,1.0,,,,,,,,,yellow,hexagon
0.0,6.0,2.0,1.0,5.0,5.0,919.3066809998528,8.0,1.0,phase_2,go,850.0,650.0,1.0,,,,,,,,,white,I
0.0,7.0,3.0,1.0,6.0,6.0,530.8166650002022,8.0,1.0,phase_2,stop,850.0,650.0,3.0,,,,,,,,,orange,circle
0.0,1.0,1.0,0.0,6.0,6.0,511.4293690003251,8.0,1.0,phase_2,go,850.0,600.0,1.0,,,,,,,,,magenta,triangle
0.0,5.0,1.0,1.0,6.0,0.0,0.0,8.0,1.0,phase_2,stop,850.0,600.0,4.0,,,,,,,,,green,cross
0.0,6.0,2.0,1.0,7.0,3.0,2451.136469000176,1.0,1.0,phase_3,,,,,34.0,1.0,68.0,102.0,34.0,204.0,136.0,170.0,white,I
0.0,8.0,4.0,1.0,7.0,2.0,2794.469428999946,1.0,1.0,phase_3,,,,,49.0,1.0,245.0,49.0,294.0,147.0,98.0,196.0,gray,flipped triangle
0.0,8.0,4.0,1.0,7.0,2.0,3481.8601169999965,1.0,1.0,phase_3,,,,,108.0,2.0,270.0,108.0,216.0,162.0,324.0,54.0,gray,flipped triangle
0.0,6.0,2.0,1.0,7.0,4.0,1889.821516000211,1.0,1.0,phase_3,,,,,102.0,3.0,170.0,68.0,136.0,102.0,34.0,204.0,white,I
0.0,7.0,3.0,1.0,7.0,5.0,2054.102082999634,1.0,1.0,phase_3,,,,,78.0,2.0,117.0,195.0,156.0,39.0,78.0,234.0,orange,circle
0.0,8.0,4.0,1.0,7.0,5.0,2512.565894999625,1.0,1.0,phase_3,,,,,88.0,2.0,220.0,44.0,132.0,264.0,88.0,176.0,gray,flipped triangle
0.0,4.0,4.0,0.0,7.0,3.0,2271.3584170001013,1.0,1.0,phase_3,,,,,102.0,3.0,68.0,170.0,102.0,34.0,204.0,136.0,cyan,square
0.0,4.0,4.0,0.0,7.0,5.0,1399.440894000236,1.0,1.0,phase_3,,,,,264.0,6.0,220.0,176.0,88.0,44.0,264.0,132.0,cyan,square
0.0,6.0,2.0,1.0,7.0,4.0,2995.034932000181,1.0,1.0,phase_3,,,,,162.0,3.0,108.0,324.0,270.0,162.0,216.0,54.0,white,I
0.0,1.0,1.0,0.0,7.0,1.0,2463.1035759998667,1.0,1.0,phase_3,,,,,162.0,3.0,162.0,216.0,54.0,270.0,324.0,108.0,magenta,triangle
0.0,1.0,1.0,0.0,7.0,1.0,1240.9136589999434,1.0,2.0,phase_3,,,,,216.0,4.0,216.0,54.0,324.0,270.0,162.0,108.0,magenta,triangle
0.0,6.0,2.0,1.0,7.0,4.0,1041.1405460004062,1.0,1.0,phase_3,,,,,78.0,2.0,39.0,234.0,156.0,78.0,195.0,117.0,white,I
0.0,5.0,1.0,1.0,7.0,2.0,1956.6178790000777,1.0,1.0,phase_3,,,,,88.0,2.0,220.0,88.0,132.0,44.0,176.0,264.0,green,cross
0.0,3.0,3.0,0.0,7.0,3.0,1653.7234649999846,1.0,1.0,phase_3,,,,,170.0,5.0,34.0,204.0,170.0,68.0,136.0,102.0,blue,diamond
0.0,3.0,3.0,0.0,7.0,5.0,1264.2454719998568,1.0,1.0,phase_3,,,,,216.0,4.0,108.0,162.0,324.0,270.0,216.0,54.0,blue,diamond
0.0,5.0,1.0,1.0,7.0,3.0,2468.155518000003,1.0,1.0,phase_3,,,,,196.0,4.0,147.0,245.0,196.0,294.0,98.0,49.0,green,cross
0.0,2.0,2.0,0.0,7.0,6.0,651.8374769998445,1.0,1.0,phase_3,,,,,117.0,3.0,156.0,234.0,39.0,195.0,78.0,117.0,yellow,hexagon
0.0,6.0,2.0,1.0,7.0,2.0,1286.4839190001476,1.0,1.0,phase_3,,,,,132.0,3.0,264.0,132.0,176.0,220.0,44.0,88.0,white,I
0.0,1.0,1.0,0.0,7.0,3.0,1504.4256179999138,1.0,1.0,phase_3,,,,,136.0,4.0,204.0,170.0,136.0,68.0,102.0,34.0,magenta,triangle
0.0,8.0,4.0,1.0,7.0,6.0,1048.5253080000805,1.0,1.0,phase_3,,,,,34.0,1.0,204.0,102.0,68.0,170.0,136.0,34.0,gray,flipped triangle
0.0,1.0,1.0,0.0,7.0,1.0,1516.175277000002,2.0,1.0,phase_3,,,,,68.0,2.0,68.0,170.0,204.0,102.0,34.0,136.0,magenta,triangle
0.0,3.0,3.0,0.0,7.0,5.0,903.8273049995952,2.0,1.0,phase_3,,,,,78.0,2.0,195.0,39.0,117.0,156.0,78.0,234.0,blue,diamond
0.0,3.0,3.0,0.0,7.0,2.0,752.7123210002173,2.0,1.0,phase_3,,,,,176.0,4.0,44.0,176.0,220.0,264.0,132.0,88.0,blue,diamond
0.0,8.0,4.0,1.0,7.0,5.0,1501.5743839999232,2.0,1.0,phase_3,,,,,117.0,3.0,78.0,234.0,39.0,195.0,117.0,156.0,gray,flipped triangle
0.0,1.0,1.0,0.0,7.0,4.0,1440.8986500002356,2.0,1.0,phase_3,,,,,98.0,2.0,245.0,147.0,196.0,98.0,49.0,294.0,magenta,triangle
0.0,7.0,3.0,1.0,7.0,6.0,1163.4235390001777,2.0,1.0,phase_3,,,,,176.0,4.0,132.0,88.0,264.0,220.0,44.0,176.0,orange,circle
0.0,5.0,1.0,1.0,7.0,3.0,708.2190309997713,2.0,1.0,phase_3,,,,,78.0,2.0,156.0,234.0,78.0,195.0,39.0,117.0,green,cross
0.0,8.0,4.0,1.0,7.0,5.0,958.5189870003888,2.0,1.0,phase_3,,,,,39.0,1.0,117.0,234.0,156.0,195.0,39.0,78.0,gray,flipped triangle
0.0,6.0,2.0,1.0,7.0,4.0,1015.9031639996099,2.0,1.0,phase_3,,,,,78.0,2.0,234.0,195.0,156.0,78.0,117.0,39.0,white,I
0.0,4.0,4.0,0.0,7.0,1.0,985.6849030002196,2.0,1.0,phase_3,,,,,324.0,6.0,324.0,162.0,108.0,216.0,270.0,54.0,cyan,square
0.0,4.0,4.0,0.0,7.0,3.0,1098.041595999348,2.0,1.0,phase_3,,,,,195.0,5.0,156.0,78.0,195.0,234.0,39.0,117.0,cyan,square
0.0,2.0,2.0,0.0,7.0,1.0,1457.2268969996005,2.0,1.0,phase_3,,,,,136.0,4.0,136.0,204.0,102.0,170.0,34.0,68.0,yellow,hexagon
0.0,4.0,4.0,0.0,7.0,3.0,1454.565453000214,2.0,1.0,phase_3,,,,,108.0,2.0,324.0,216.0,108.0,270.0,54.0,162.0,cyan,square
0.0,7.0,3.0,1.0,7.0,5.0,1551.2305399997786,2.0,1.0,phase_3,,,,,147.0,3.0,294.0,49.0,245.0,98.0,147.0,196.0,orange,circle
0.0,2.0,2.0,0.0,7.0,3.0,896.0086970000702,2.0,1.0,phase_3,,,,,162.0,3.0,108.0,54.0,162.0,270.0,324.0,216.0,yellow,hexagon
0.0,7.0,3.0,1.0,7.0,3.0,1213.628043999961,2.0,1.0,phase_3,,,,,136.0,4.0,204.0,68.0,136.0,102.0,34.0,170.0,orange,circle
0.0,7.0,3.0,1.0,7.0,2.0,887.9371020002509,2.0,1.0,phase_3,,,,,108.0,2.0,54.0,108.0,162.0,270.0,324.0,216.0,orange,circle
0.0,5.0,1.0,1.0,7.0,6.0,1760.9535000001415,2.0,1.0,phase_3,,,,,108.0,2.0,216.0,54.0,324.0,162.0,270.0,108.0,green,cross
0.0,5.0,1.0,1.0,7.0,3.0,1422.1533200006888,2.0,1.0,phase_3,,,,,49.0,1.0,294.0,196.0,49.0,98.0,147.0,245.0,green,cross
0.0,1.0,1.0,0.0,7.0,2.0,1624.3866550003077,2.0,1.0,phase_3,,,,,88.0,2.0,132.0,88.0,264.0,44.0,176.0,220.0,magenta,triangle
0.0,3.0,3.0,0.0,7.0,2.0,765.6897610004307,3.0,1.0,phase_3,,,,,324.0,6.0,216.0,324.0,270.0,54.0,108.0,162.0,blue,diamond
0.0,7.0,3.0,1.0,7.0,5.0,943.8607430001866,3.0,1.0,phase_3,,,,,216.0,4.0,324.0,108.0,270.0,54.0,216.0,162.0,orange,circle
0.0,5.0,1.0,1.0,7.0,3.0,1122.338139999556,3.0,1.0,phase_3,,,,,204.0,6.0,136.0,68.0,204.0,170.0,34.0,102.0,green,cross
0.0,5.0,1.0,1.0,7.0,2.0,721.7159599995284,3.0,1.0,phase_3,,,,,234.0,6.0,117.0,234.0,39.0,156.0,78.0,195.0,green,cross
0.0,2.0,2.0,0.0,7.0,2.0,1677.179602999786,3.0,1.0,phase_3,,,,,196.0,4.0,147.0,196.0,49.0,294.0,245.0,98.0,yellow,hexagon
0.0,2.0,2.0,0.0,7.0,5.0,2031.4525369994958,3.0,1.0,phase_3,,,,,117.0,3.0,234.0,156.0,195.0,39.0,117.0,78.0,yellow,hexagon
0.0,2.0,2.0,0.0,7.0,6.0,799.6166359998824,3.0,1.0,phase_3,,,,,88.0,2.0,132.0,176.0,220.0,44.0,264.0,88.0,yellow,hexagon
0.0,8.0,4.0,1.0,7.0,4.0,1827.5700569993203,3.0,1.0,phase_3,,,,,49.0,1.0,196.0,294.0,147.0,49.0,245.0,98.0,gray,flipped triangle
0.0,1.0,1.0,0.0,7.0,6.0,663.6837790001664,3.0,1.0,phase_3,,,,,88.0,2.0,264.0,44.0,176.0,220.0,132.0,88.0,magenta,triangle
0.0,4.0,4.0,0.0,7.0,2.0,542.5140939996709,3.0,1.0,phase_3,,,,,98.0,2.0,147.0,98.0,294.0,245.0,49.0,196.0,cyan,square
0.0,2.0,2.0,0.0,7.0,1.0,1378.8952709992373,3.0,1.0,phase_3,,,,,132.0,3.0,132.0,88.0,264.0,176.0,44.0,220.0,yellow,hexagon
0.0,3.0,3.0,0.0,7.0,4.0,711.6191989998697,3.0,1.0,phase_3,,,,,234.0,6.0,117.0,156.0,195.0,234.0,39.0,78.0,blue,diamond
0.0,1.0,1.0,0.0,7.0,3.0,871.7847689995324,3.0,1.0,phase_3,,,,,156.0,4.0,117.0,78.0,156.0,39.0,195.0,234.0,magenta,triangle
0.0,3.0,3.0,0.0,7.0,5.0,1254.391566000777,3.0,1.0,phase_3,,,,,98.0,2.0,147.0,49.0,245.0,196.0,98.0,294.0,blue,diamond
0.0,5.0,1.0,1.0,7.0,3.0,1683.71098300031,3.0,1.0,phase_3,,,,,136.0,4.0,102.0,68.0,136.0,170.0,34.0,204.0,green,cross
0.0,1.0,1.0,0.0,7.0,2.0,1179.484059999595,3.0,1.0,phase_3,,,,,117.0,3.0,156.0,117.0,39.0,234.0,78.0,195.0,magenta,triangle
0.0,8.0,4.0,1.0,7.0,6.0,1270.246592000149,3.0,1.0,phase_3,,,,,34.0,1.0,204.0,68.0,102.0,170.0,136.0,34.0,gray,flipped triangle
0.0,7.0,3.0,1.0,7.0,5.0,1749.4902480002563,3.0,1.0,phase_3,,,,,44.0,1.0,88.0,176.0,264.0,132.0,44.0,220.0,orange,circle
0.0,5.0,1.0,1.0,7.0,1.0,1043.464678999953,3.0,1.0,phase_3,,,,,132.0,3.0,132.0,176.0,220.0,44.0,88.0,264.0,green,cross
0.0,8.0,4.0,1.0,7.0,4.0,1580.9727639998528,3.0,1.0,phase_3,,,,,132.0,3.0,264.0,220.0,44.0,132.0,88.0,176.0,gray,flipped triangle
0.0,4.0,4.0,0.0,7.0,3.0,655.891340999915,4.0,1.0,phase_3,,,,,147.0,3.0,245.0,49.0,147.0,98.0,196.0,294.0,cyan,square
0.0,6.0,2.0,1.0,7.0,2.0,1248.5425459999533,4.0,1.0,phase_3,,,,,216.0,4.0,108.0,216.0,162.0,54.0,324.0,270.0,white,I
0.0,4.0,4.0,0.0,7.0,5.0,1068.9501859997108,4.0,1.0,phase_3,,,,,264.0,6.0,88.0,132.0,44.0,220.0,264.0,176.0,cyan,square
0.0,7.0,3.0,1.0,7.0,6.0,583.1632389999868,4.0,1.0,phase_3,,,,,196.0,4.0,98.0,245.0,49.0,147.0,294.0,196.0,orange,circle
0.0,3.0,3.0,0.0,7.0,1.0,1144.8002970000744,4.0,1.0,phase_3,,,,,220.0,5.0,220.0,264.0,176.0,132.0,44.0,88.0,blue,diamond
0.0,8.0,4.0,1.0,7.0,4.0,884.3020700005582,4.0,1.0,phase_3,,,,,108.0,2.0,324.0,216.0,162.0,108.0,54.0,270.0,gray,flipped triangle
0.0,3.0,3.0,0.0,7.0,1.0,1163.4608490003302,4.0,1.0,phase_3,,,,,98.0,2.0,98.0,196.0,49.0,294.0,147.0,245.0,blue,diamond
0.0,4.0,4.0,0.0,7.0,6.0,269.1629989994908,4.0,1.0,phase_3,,,,,78.0,2.0,195.0,234.0,39.0,156.0,117.0,78.0,cyan,square
0.0,4.0,4.0,0.0,7.0,3.0,437.5743129994589,4.0,1.0,phase_3,,,,,204.0,6.0,34.0,102.0,204.0,68.0,170.0,136.0,cyan,square
0.0,2.0,2.0,0.0,7.0,6.0,1084.4174860003477,4.0,1.0,phase_3,,,,,98.0,2.0,245.0,147.0,196.0,294.0,49.0,98.0,yellow,hexagon
0.0,3.0,3.0,0.0,7.0,5.0,635.6162450001648,4.0,1.0,phase_3,,,,,170.0,5.0,34.0,204.0,68.0,136.0,170.0,102.0,blue,diamond
0.0,5.0,1.0,1.0,7.0,6.0,473.8981410000633,4.0,1.0,phase_3,,,,,54.0,1.0,162.0,108.0,216.0,324.0,270.0,54.0,green,cross
0.0,2.0,2.0,0.0,7.0,1.0,394.156952999765,4.0,1.0,phase_3,,,,,204.0,6.0,204.0,68.0,170.0,136.0,102.0,34.0,yellow,hexagon
0.0,2.0,2.0,0.0,7.0,4.0,1056.8007839992788,4.0,1.0,phase_3,,,,,162.0,3.0,108.0,54.0,270.0,162.0,216.0,324.0,yellow,hexagon
0.0,7.0,3.0,1.0,7.0,6.0,1377.389272000073,4.0,1.0,phase_3,,,,,68.0,2.0,204.0,170.0,102.0,34.0,136.0,68.0,orange,circle
0.0,6.0,2.0,1.0,7.0,2.0,1657.226903999799,4.0,1.0,phase_3,,,,,196.0,4.0,98.0,196.0,294.0,49.0,245.0,147.0,white,I
0.0,6.0,2.0,1.0,7.0,1.0,1261.169696000252,4.0,1.0,phase_3,,,,,245.0,5.0,245.0,98.0,294.0,196.0,147.0,49.0,white,I
0.0,6.0,2.0,1.0,7.0,5.0,1705.8032029999597,4.0,1.0,phase_3,,,,,220.0,5.0,44.0,88.0,132.0,176.0,220.0,264.0,white,I
0.0,7.0,3.0,1.0,7.0,5.0,946.9995059998836,4.0,1.0,phase_3,,,,,156.0,4.0,234.0,39.0,78.0,117.0,156.0,195.0,orange,circle
0.0,1.0,1.0,0.0,7.0,4.0,1684.008017999986,4.0,1.0,phase_3,,,,,196.0,4.0,49.0,147.0,245.0,196.0,98.0,294.0,magenta,triangle
