raw_reward_magnitude,stim_reward,stepwise_reward_magnitude,paired_with_stopping,quadrant,response,reaction_time,block,num_trial_presentations,which_part,stop_signal_trial_type,left_SSD,right_SSD,accuracy,chosen_bidding_amount,chosen_bidding_level,possible_bid_1,possible_bid_2,possible_bid_3,possible_bid_4,possible_bid_5,possible_bid_6,color_text,shape_text
218.0,3.0,3.0,0.0,4.0,4.0,368.1498880000617,1.0,1.0,part_1,,,,,,,,,,,,,green,flipped triangle
210.0,7.0,3.0,1.0,3.0,3.0,395.6500799999958,1.0,1.0,part_1,,,,,,,,,,,,,gray,hexagon
414.0,8.0,4.0,1.0,2.0,2.0,297.1544600000015,1.0,1.0,part_1,,,,,,,,,,,,,orange,square
92.0,6.0,2.0,1.0,3.0,3.0,279.5796000000337,1.0,1.0,part_1,,,,,,,,,,,,,yellow,triangle
224.0,7.0,3.0,1.0,1.0,1.0,322.8518559999429,1.0,2.0,part_1,,,,,,,,,,,,,gray,hexagon
204.0,3.0,3.0,0.0,2.0,2.0,304.3402970001807,1.0,1.0,part_1,,,,,,,,,,,,,green,flipped triangle
383.0,4.0,4.0,0.0,1.0,1.0,313.4994450001613,1.0,1.0,part_1,,,,,,,,,,,,,white,diamond
91.0,6.0,2.0,1.0,1.0,1.0,300.6380229999195,1.0,1.0,part_1,,,,,,,,,,,,,yellow,triangle
105.0,2.0,2.0,0.0,2.0,2.0,328.726388999712,1.0,1.0,part_1,,,,,,,,,,,,,cyan,cross
198.0,3.0,3.0,0.0,2.0,2.0,315.3778139999303,1.0,1.0,part_1,,,,,,,,,,,,,green,flipped triangle
0.0,8.0,0.0,1.0,1.0,1.0,277.6670700000068,1.0,1.0,part_1,,,,,,,,,,,,,orange,square
217.0,7.0,3.0,1.0,3.0,3.0,357.5419980002152,1.0,1.0,part_1,,,,,,,,,,,,,gray,hexagon
0.0,5.0,0.0,1.0,2.0,2.0,383.6216409999906,1.0,1.0,part_1,,,,,,,,,,,,,blue,circle
202.0,7.0,3.0,1.0,2.0,2.0,345.8093630001713,1.0,1.0,part_1,,,,,,,,,,,,,gray,hexagon
410.0,4.0,4.0,0.0,3.0,3.0,369.8802019998766,1.0,1.0,part_1,,,,,,,,,,,,,white,diamond
125.0,2.0,2.0,0.0,4.0,4.0,357.0569170001363,1.0,1.0,part_1,,,,,,,,,,,,,cyan,cross
110.0,6.0,2.0,1.0,1.0,1.0,359.7524099996008,1.0,1.0,part_1,,,,,,,,,,,,,yellow,triangle
34.0,1.0,1.0,0.0,3.0,3.0,276.820010999927,1.0,1.0,part_1,,,,,,,,,,,,,magenta,I
0.0,8.0,0.0,1.0,3.0,3.0,320.9282530001474,1.0,1.0,part_1,,,,,,,,,,,,,orange,square
423.0,4.0,4.0,0.0,1.0,1.0,324.0323509999143,1.0,1.0,part_1,,,,,,,,,,,,,white,diamond
420.0,8.0,4.0,1.0,2.0,2.0,367.7487300001303,1.0,1.0,part_1,,,,,,,,,,,,,orange,square
0.0,3.0,0.0,0.0,4.0,4.0,316.0898249998354,1.0,1.0,part_1,,,,,,,,,,,,,green,flipped triangle
112.0,2.0,2.0,0.0,1.0,1.0,342.304545999923,1.0,1.0,part_1,,,,,,,,,,,,,cyan,cross
54.0,1.0,1.0,0.0,1.0,1.0,374.1351419998864,1.0,1.0,part_1,,,,,,,,,,,,,magenta,I
398.0,8.0,4.0,1.0,3.0,3.0,432.4735669997608,1.0,2.0,part_1,,,,,,,,,,,,,orange,square
0.0,6.0,0.0,1.0,2.0,2.0,434.0350779998516,1.0,1.0,part_1,,,,,,,,,,,,,yellow,triangle
415.0,8.0,4.0,1.0,3.0,3.0,415.7723219996114,1.0,1.0,part_1,,,,,,,,,,,,,orange,square
377.0,8.0,4.0,1.0,3.0,3.0,414.6772469998723,1.0,1.0,part_1,,,,,,,,,,,,,orange,square
197.0,7.0,3.0,1.0,2.0,2.0,418.7631069999042,1.0,1.0,part_1,,,,,,,,,,,,,gray,hexagon
0.0,4.0,0.0,0.0,1.0,1.0,371.6346409996731,1.0,1.0,part_1,,,,,,,,,,,,,white,diamond
30.0,1.0,1.0,0.0,2.0,2.0,426.1173109998708,1.0,1.0,part_1,,,,,,,,,,,,,magenta,I
0.0,6.0,0.0,1.0,2.0,2.0,547.6614240001254,1.0,1.0,part_1,,,,,,,,,,,,,yellow,triangle
117.0,6.0,2.0,1.0,3.0,3.0,297.4648760000491,1.0,1.0,part_1,,,,,,,,,,,,,yellow,triangle
29.0,1.0,1.0,0.0,2.0,2.0,284.1556960001981,1.0,1.0,part_1,,,,,,,,,,,,,magenta,I
377.0,4.0,4.0,0.0,4.0,4.0,548.8932410003144,1.0,1.0,part_1,,,,,,,,,,,,,white,diamond
0.0,4.0,0.0,0.0,4.0,4.0,337.0341270001518,1.0,1.0,part_1,,,,,,,,,,,,,white,diamond
121.0,2.0,2.0,0.0,3.0,3.0,298.214408000149,1.0,1.0,part_1,,,,,,,,,,,,,cyan,cross
0.0,3.0,0.0,0.0,4.0,4.0,349.6059740000419,1.0,1.0,part_1,,,,,,,,,,,,,green,flipped triangle
29.0,5.0,1.0,1.0,1.0,1.0,389.722206999977,1.0,1.0,part_1,,,,,,,,,,,,,blue,circle
0.0,2.0,0.0,0.0,2.0,2.0,369.0879249998033,1.0,1.0,part_1,,,,,,,,,,,,,cyan,cross
201.0,7.0,3.0,1.0,2.0,2.0,650.5748740000854,1.0,1.0,part_1,,,,,,,,,,,,,gray,hexagon
31.0,1.0,1.0,0.0,4.0,4.0,456.8347129998074,1.0,1.0,part_1,,,,,,,,,,,,,magenta,I
425.0,8.0,4.0,1.0,2.0,2.0,594.431326999711,1.0,1.0,part_1,,,,,,,,,,,,,orange,square
414.0,4.0,4.0,0.0,4.0,4.0,578.3624559999225,1.0,1.0,part_1,,,,,,,,,,,,,white,diamond
99.0,6.0,2.0,1.0,1.0,1.0,430.1385210001172,1.0,1.0,part_1,,,,,,,,,,,,,yellow,triangle
179.0,7.0,3.0,1.0,2.0,2.0,514.8289980002119,1.0,1.0,part_1,,,,,,,,,,,,,gray,hexagon
67.0,5.0,1.0,1.0,1.0,1.0,433.9403719995971,1.0,1.0,part_1,,,,,,,,,,,,,blue,circle
117.0,2.0,2.0,0.0,1.0,1.0,482.6284000000669,1.0,1.0,part_1,,,,,,,,,,,,,cyan,cross
65.0,5.0,1.0,1.0,3.0,3.0,443.9452080000592,1.0,1.0,part_1,,,,,,,,,,,,,blue,circle
36.0,5.0,1.0,1.0,4.0,4.0,401.3870349999706,1.0,1.0,part_1,,,,,,,,,,,,,blue,circle
117.0,6.0,2.0,1.0,3.0,3.0,396.5469999998277,1.0,1.0,part_1,,,,,,,,,,,,,yellow,triangle
204.0,7.0,3.0,1.0,2.0,2.0,362.4700210002629,1.0,1.0,part_1,,,,,,,,,,,,,gray,hexagon
0.0,2.0,0.0,0.0,1.0,1.0,392.184855999858,1.0,1.0,part_1,,,,,,,,,,,,,cyan,cross
47.0,1.0,1.0,0.0,2.0,2.0,434.693968999909,1.0,1.0,part_1,,,,,,,,,,,,,magenta,I
401.0,8.0,4.0,1.0,3.0,3.0,343.1414279998535,1.0,1.0,part_1,,,,,,,,,,,,,orange,square
0.0,2.0,0.0,0.0,3.0,3.0,374.4262610002806,1.0,1.0,part_1,,,,,,,,,,,,,cyan,cross
198.0,7.0,3.0,1.0,1.0,1.0,360.1161389997287,1.0,1.0,part_1,,,,,,,,,,,,,gray,hexagon
0.0,3.0,0.0,0.0,4.0,4.0,319.2479930003173,1.0,1.0,part_1,,,,,,,,,,,,,green,flipped triangle
218.0,7.0,3.0,1.0,2.0,2.0,301.1502669996844,1.0,1.0,part_1,,,,,,,,,,,,,gray,hexagon
386.0,4.0,4.0,0.0,3.0,3.0,300.7274269998561,1.0,1.0,part_1,,,,,,,,,,,,,white,diamond
38.0,1.0,1.0,0.0,2.0,2.0,367.5702929999715,1.0,1.0,part_1,,,,,,,,,,,,,magenta,I
36.0,1.0,1.0,0.0,3.0,3.0,354.00103999973,1.0,1.0,part_1,,,,,,,,,,,,,magenta,I
405.0,4.0,4.0,0.0,3.0,3.0,407.5574739999865,1.0,1.0,part_1,,,,,,,,,,,,,white,diamond
389.0,4.0,4.0,0.0,2.0,2.0,543.3357540000543,1.0,1.0,part_1,,,,,,,,,,,,,white,diamond
0.0,6.0,0.0,1.0,2.0,2.0,590.4928489999293,1.0,1.0,part_1,,,,,,,,,,,,,yellow,triangle
110.0,6.0,2.0,1.0,2.0,2.0,363.6478559997158,1.0,1.0,part_1,,,,,,,,,,,,,yellow,triangle
50.0,1.0,1.0,0.0,3.0,3.0,331.4900169998509,1.0,1.0,part_1,,,,,,,,,,,,,magenta,I
117.0,2.0,2.0,0.0,3.0,3.0,367.6682420000361,1.0,1.0,part_1,,,,,,,,,,,,,cyan,cross
54.0,1.0,1.0,0.0,1.0,1.0,424.0259600001081,1.0,1.0,part_1,,,,,,,,,,,,,magenta,I
400.0,8.0,4.0,1.0,3.0,3.0,334.5741520001866,1.0,1.0,part_1,,,,,,,,,,,,,orange,square
51.0,5.0,1.0,1.0,1.0,1.0,390.0091369996517,1.0,1.0,part_1,,,,,,,,,,,,,blue,circle
54.0,5.0,1.0,1.0,3.0,3.0,259.9286879999454,1.0,1.0,part_1,,,,,,,,,,,,,blue,circle
202.0,7.0,3.0,1.0,3.0,3.0,339.3959999998515,1.0,1.0,part_1,,,,,,,,,,,,,gray,hexagon
84.0,2.0,2.0,0.0,2.0,2.0,400.5617080001684,1.0,1.0,part_1,,,,,,,,,,,,,cyan,cross
71.0,5.0,1.0,1.0,3.0,3.0,324.3593759998475,1.0,1.0,part_1,,,,,,,,,,,,,blue,circle
104.0,6.0,2.0,1.0,1.0,1.0,315.3039460003128,1.0,1.0,part_1,,,,,,,,,,,,,yellow,triangle
71.0,1.0,1.0,0.0,4.0,4.0,659.3531040002745,1.0,1.0,part_1,,,,,,,,,,,,,magenta,I
69.0,1.0,1.0,0.0,1.0,1.0,362.1287199998733,1.0,1.0,part_1,,,,,,,,,,,,,magenta,I
216.0,3.0,3.0,0.0,3.0,3.0,360.796004000349,1.0,1.0,part_1,,,,,,,,,,,,,green,flipped triangle
415.0,4.0,4.0,0.0,1.0,1.0,680.0762030002261,1.0,1.0,part_1,,,,,,,,,,,,,white,diamond
208.0,7.0,3.0,1.0,4.0,4.0,454.5629290000761,1.0,1.0,part_1,,,,,,,,,,,,,gray,hexagon
69.0,1.0,1.0,0.0,1.0,1.0,397.1488270003647,1.0,1.0,part_1,,,,,,,,,,,,,magenta,I
65.0,1.0,1.0,0.0,1.0,1.0,369.9020710000695,1.0,1.0,part_1,,,,,,,,,,,,,magenta,I
415.0,8.0,4.0,1.0,2.0,2.0,971.5464389996667,1.0,1.0,part_1,,,,,,,,,,,,,orange,square
78.0,2.0,2.0,0.0,2.0,2.0,727.422291000039,1.0,1.0,part_1,,,,,,,,,,,,,cyan,cross
99.0,2.0,2.0,0.0,4.0,4.0,538.0358530001104,1.0,1.0,part_1,,,,,,,,,,,,,cyan,cross
84.0,6.0,2.0,1.0,1.0,1.0,568.861248000303,1.0,1.0,part_1,,,,,,,,,,,,,yellow,triangle
0.0,1.0,0.0,0.0,4.0,4.0,384.6647310001572,1.0,1.0,part_1,,,,,,,,,,,,,magenta,I
400.0,4.0,4.0,0.0,4.0,4.0,513.1078059998799,1.0,1.0,part_1,,,,,,,,,,,,,white,diamond
62.0,1.0,1.0,0.0,2.0,2.0,393.3566819996485,1.0,1.0,part_1,,,,,,,,,,,,,magenta,I
398.0,8.0,4.0,1.0,1.0,1.0,419.3033470000955,1.0,1.0,part_1,,,,,,,,,,,,,orange,square
377.0,8.0,4.0,1.0,1.0,1.0,305.3469960000257,1.0,1.0,part_1,,,,,,,,,,,,,orange,square
102.0,6.0,2.0,1.0,3.0,3.0,318.9910500000223,1.0,1.0,part_1,,,,,,,,,,,,,yellow,triangle
57.0,5.0,1.0,1.0,2.0,2.0,384.5347569999831,1.0,1.0,part_1,,,,,,,,,,,,,blue,circle
215.0,3.0,3.0,0.0,1.0,1.0,398.0858930003705,1.0,1.0,part_1,,,,,,,,,,,,,green,flipped triangle
0.0,7.0,0.0,1.0,3.0,3.0,690.4902239998592,1.0,1.0,part_1,,,,,,,,,,,,,gray,hexagon
0.0,6.0,0.0,1.0,1.0,1.0,937.5295479999296,1.0,1.0,part_1,,,,,,,,,,,,,yellow,triangle
0.0,7.0,0.0,1.0,3.0,3.0,477.7939820000938,1.0,1.0,part_1,,,,,,,,,,,,,gray,hexagon
0.0,3.0,0.0,0.0,4.0,4.0,334.538823999992,1.0,1.0,part_1,,,,,,,,,,,,,green,flipped triangle
401.0,4.0,4.0,0.0,4.0,4.0,517.6737880001383,1.0,1.0,part_1,,,,,,,,,,,,,white,diamond
0.0,7.0,0.0,1.0,2.0,2.0,337.625700999979,2.0,2.0,part_1,,,,,,,,,,,,,gray,hexagon
0.0,5.0,0.0,1.0,2.0,2.0,307.2850640000979,2.0,1.0,part_1,,,,,,,,,,,,,blue,circle
62.0,5.0,1.0,1.0,1.0,1.0,298.4133810000458,2.0,1.0,part_1,,,,,,,,,,,,,blue,circle
176.0,7.0,3.0,1.0,4.0,4.0,329.6171570000297,2.0,1.0,part_1,,,,,,,,,,,,,gray,hexagon
202.0,3.0,3.0,0.0,3.0,3.0,319.1384490000928,2.0,1.0,part_1,,,,,,,,,,,,,green,flipped triangle
217.0,3.0,3.0,0.0,3.0,3.0,318.1890579999162,2.0,1.0,part_1,,,,,,,,,,,,,green,flipped triangle
58.0,1.0,1.0,0.0,2.0,2.0,328.9702419997411,2.0,1.0,part_1,,,,,,,,,,,,,magenta,I
0.0,1.0,0.0,0.0,2.0,2.0,352.7505710003424,2.0,1.0,part_1,,,,,,,,,,,,,magenta,I
422.0,8.0,4.0,1.0,1.0,1.0,326.6401939999923,2.0,1.0,part_1,,,,,,,,,,,,,orange,square
0.0,2.0,0.0,0.0,4.0,4.0,396.7243170000074,2.0,1.0,part_1,,,,,,,,,,,,,cyan,cross
60.0,1.0,1.0,0.0,3.0,3.0,365.9970380003869,2.0,1.0,part_1,,,,,,,,,,,,,magenta,I
27.0,5.0,1.0,1.0,4.0,4.0,420.3556369998296,2.0,1.0,part_1,,,,,,,,,,,,,blue,circle
409.0,4.0,4.0,0.0,3.0,3.0,306.5920720000576,2.0,1.0,part_1,,,,,,,,,,,,,white,diamond
103.0,2.0,2.0,0.0,2.0,2.0,642.6556619999246,2.0,1.0,part_1,,,,,,,,,,,,,cyan,cross
0.0,3.0,0.0,0.0,1.0,1.0,305.4353030001948,2.0,1.0,part_1,,,,,,,,,,,,,green,flipped triangle
0.0,3.0,0.0,0.0,2.0,2.0,398.5710080000899,2.0,1.0,part_1,,,,,,,,,,,,,green,flipped triangle
48.0,1.0,1.0,0.0,4.0,4.0,291.329911000048,2.0,1.0,part_1,,,,,,,,,,,,,magenta,I
409.0,4.0,4.0,0.0,3.0,3.0,299.5264330002101,2.0,1.0,part_1,,,,,,,,,,,,,white,diamond
46.0,5.0,1.0,1.0,3.0,3.0,304.8179630000049,2.0,1.0,part_1,,,,,,,,,,,,,blue,circle
52.0,1.0,1.0,0.0,3.0,3.0,304.3444230002023,2.0,1.0,part_1,,,,,,,,,,,,,magenta,I
182.0,7.0,3.0,1.0,3.0,3.0,361.7419309994147,2.0,1.0,part_1,,,,,,,,,,,,,gray,hexagon
177.0,3.0,3.0,0.0,1.0,1.0,437.4691869998059,2.0,1.0,part_1,,,,,,,,,,,,,green,flipped triangle
0.0,6.0,0.0,1.0,2.0,2.0,353.9420120005161,2.0,1.0,part_1,,,,,,,,,,,,,yellow,triangle
77.0,6.0,2.0,1.0,3.0,3.0,280.2754389995243,2.0,1.0,part_1,,,,,,,,,,,,,yellow,triangle
0.0,2.0,0.0,0.0,4.0,4.0,341.7313330000979,2.0,1.0,part_1,,,,,,,,,,,,,cyan,cross
0.0,7.0,0.0,1.0,1.0,1.0,222.6894240002366,2.0,1.0,part_1,,,,,,,,,,,,,gray,hexagon
415.0,8.0,4.0,1.0,2.0,2.0,315.7908229995882,2.0,1.0,part_1,,,,,,,,,,,,,orange,square
0.0,2.0,0.0,0.0,4.0,4.0,369.086081000205,2.0,1.0,part_1,,,,,,,,,,,,,cyan,cross
0.0,2.0,0.0,0.0,2.0,2.0,380.0662609992287,2.0,1.0,part_1,,,,,,,,,,,,,cyan,cross
105.0,6.0,2.0,1.0,1.0,1.0,298.1391299999814,2.0,1.0,part_1,,,,,,,,,,,,,yellow,triangle
0.0,3.0,0.0,0.0,1.0,1.0,598.745986000722,2.0,1.0,part_1,,,,,,,,,,,,,green,flipped triangle
409.0,8.0,4.0,1.0,3.0,3.0,796.6852680001466,2.0,1.0,part_1,,,,,,,,,,,,,orange,square
397.0,8.0,4.0,1.0,4.0,4.0,608.9220660005594,2.0,2.0,part_1,,,,,,,,,,,,,orange,square
381.0,4.0,4.0,0.0,2.0,2.0,573.3236679998299,2.0,1.0,part_1,,,,,,,,,,,,,white,diamond
104.0,2.0,2.0,0.0,3.0,3.0,398.4907610001755,2.0,1.0,part_1,,,,,,,,,,,,,cyan,cross
0.0,3.0,0.0,0.0,3.0,3.0,334.1870809999818,2.0,1.0,part_1,,,,,,,,,,,,,green,flipped triangle
178.0,7.0,3.0,1.0,3.0,3.0,294.7753360003844,2.0,1.0,part_1,,,,,,,,,,,,,gray,hexagon
106.0,6.0,2.0,1.0,4.0,4.0,418.4453919997395,2.0,1.0,part_1,,,,,,,,,,,,,yellow,triangle
386.0,8.0,4.0,1.0,2.0,2.0,582.4073549993045,2.0,1.0,part_1,,,,,,,,,,,,,orange,square
181.0,7.0,3.0,1.0,2.0,2.0,780.8116030000747,2.0,1.0,part_1,,,,,,,,,,,,,gray,hexagon
196.0,3.0,3.0,0.0,3.0,3.0,449.6494260001782,2.0,1.0,part_1,,,,,,,,,,,,,green,flipped triangle
210.0,3.0,3.0,0.0,4.0,4.0,346.2244210004428,2.0,1.0,part_1,,,,,,,,,,,,,green,flipped triangle
62.0,1.0,1.0,0.0,4.0,4.0,461.9182380001803,2.0,1.0,part_1,,,,,,,,,,,,,magenta,I
215.0,7.0,3.0,1.0,4.0,4.0,382.2639580002942,2.0,1.0,part_1,,,,,,,,,,,,,gray,hexagon
178.0,3.0,3.0,0.0,4.0,4.0,394.026978000511,2.0,1.0,part_1,,,,,,,,,,,,,green,flipped triangle
415.0,4.0,4.0,0.0,2.0,2.0,442.418696000459,2.0,1.0,part_1,,,,,,,,,,,,,white,diamond
112.0,2.0,2.0,0.0,3.0,3.0,500.88342199978797,2.0,1.0,part_1,,,,,,,,,,,,,cyan,cross
62.0,5.0,1.0,1.0,3.0,3.0,403.3589270002267,2.0,1.0,part_1,,,,,,,,,,,,,blue,circle
0.0,2.0,0.0,0.0,4.0,4.0,298.0110099997546,2.0,1.0,part_1,,,,,,,,,,,,,cyan,cross
0.0,6.0,0.0,1.0,1.0,1.0,438.6038580005333,2.0,1.0,part_1,,,,,,,,,,,,,yellow,triangle
0.0,1.0,0.0,0.0,1.0,1.0,469.3705749996297,2.0,1.0,part_1,,,,,,,,,,,,,magenta,I
181.0,3.0,3.0,0.0,4.0,4.0,429.2749419992105,2.0,1.0,part_1,,,,,,,,,,,,,green,flipped triangle
0.0,4.0,0.0,0.0,4.0,4.0,537.7660829999513,2.0,1.0,part_1,,,,,,,,,,,,,white,diamond
0.0,8.0,0.0,1.0,4.0,4.0,262.1136890002162,2.0,1.0,part_1,,,,,,,,,,,,,orange,square
190.0,7.0,3.0,1.0,3.0,3.0,368.7008739998418,2.0,1.0,part_1,,,,,,,,,,,,,gray,hexagon
0.0,2.0,0.0,0.0,2.0,2.0,305.0569009992614,2.0,1.0,part_1,,,,,,,,,,,,,cyan,cross
38.0,5.0,1.0,1.0,1.0,1.0,387.7581390006526,2.0,1.0,part_1,,,,,,,,,,,,,blue,circle
44.0,1.0,1.0,0.0,2.0,2.0,729.2687239996667,2.0,1.0,part_1,,,,,,,,,,,,,magenta,I
40.0,5.0,1.0,1.0,4.0,4.0,330.1439260003462,2.0,1.0,part_1,,,,,,,,,,,,,blue,circle
82.0,2.0,2.0,0.0,1.0,1.0,293.9006720007455,2.0,1.0,part_1,,,,,,,,,,,,,cyan,cross
211.0,3.0,3.0,0.0,1.0,1.0,296.152525999787,2.0,1.0,part_1,,,,,,,,,,,,,green,flipped triangle
52.0,5.0,1.0,1.0,4.0,4.0,388.9966300002925,2.0,1.0,part_1,,,,,,,,,,,,,blue,circle
387.0,4.0,4.0,0.0,4.0,4.0,330.5686359999527,2.0,1.0,part_1,,,,,,,,,,,,,white,diamond
103.0,6.0,2.0,1.0,2.0,2.0,337.0234089998121,2.0,1.0,part_1,,,,,,,,,,,,,yellow,triangle
178.0,7.0,3.0,1.0,1.0,1.0,274.1060609996566,2.0,1.0,part_1,,,,,,,,,,,,,gray,hexagon
195.0,7.0,3.0,1.0,3.0,3.0,435.1085680000324,2.0,1.0,part_1,,,,,,,,,,,,,gray,hexagon
48.0,1.0,1.0,0.0,1.0,1.0,328.9298910003708,2.0,1.0,part_1,,,,,,,,,,,,,magenta,I
58.0,5.0,1.0,1.0,4.0,4.0,331.2374730003284,2.0,1.0,part_1,,,,,,,,,,,,,blue,circle
76.0,6.0,2.0,1.0,3.0,3.0,787.0406749998438,2.0,1.0,part_1,,,,,,,,,,,,,yellow,triangle
112.0,6.0,2.0,1.0,2.0,2.0,419.962877999751,2.0,1.0,part_1,,,,,,,,,,,,,yellow,triangle
0.0,8.0,0.0,1.0,3.0,3.0,470.5683249994763,2.0,1.0,part_1,,,,,,,,,,,,,orange,square
412.0,8.0,4.0,1.0,2.0,2.0,415.0967539999328,2.0,1.0,part_1,,,,,,,,,,,,,orange,square
409.0,8.0,4.0,1.0,1.0,1.0,405.4993839999952,2.0,1.0,part_1,,,,,,,,,,,,,orange,square
0.0,5.0,0.0,1.0,2.0,2.0,538.1217980002475,2.0,1.0,part_1,,,,,,,,,,,,,blue,circle
96.0,2.0,2.0,0.0,4.0,4.0,609.341222000694,2.0,1.0,part_1,,,,,,,,,,,,,cyan,cross
98.0,2.0,2.0,0.0,1.0,1.0,394.6696519997204,2.0,1.0,part_1,,,,,,,,,,,,,cyan,cross
205.0,7.0,3.0,1.0,1.0,1.0,399.2401349996726,2.0,1.0,part_1,,,,,,,,,,,,,gray,hexagon
192.0,7.0,3.0,1.0,2.0,2.0,504.38360899988766,2.0,1.0,part_1,,,,,,,,,,,,,gray,hexagon
193.0,3.0,3.0,0.0,1.0,1.0,651.2602860002517,2.0,1.0,part_1,,,,,,,,,,,,,green,flipped triangle
220.0,7.0,3.0,1.0,1.0,1.0,555.6892759996117,2.0,1.0,part_1,,,,,,,,,,,,,gray,hexagon
28.0,1.0,1.0,0.0,1.0,1.0,721.6155689993684,2.0,1.0,part_1,,,,,,,,,,,,,magenta,I
0.0,7.0,0.0,1.0,1.0,1.0,429.3277619999571,2.0,1.0,part_1,,,,,,,,,,,,,gray,hexagon
0.0,7.0,0.0,1.0,2.0,2.0,467.5023290001263,2.0,1.0,part_1,,,,,,,,,,,,,gray,hexagon
83.0,2.0,2.0,0.0,3.0,3.0,614.4170970001142,2.0,1.0,part_1,,,,,,,,,,,,,cyan,cross
112.0,6.0,2.0,1.0,3.0,3.0,546.8126619998657,2.0,1.0,part_1,,,,,,,,,,,,,yellow,triangle
92.0,6.0,2.0,1.0,4.0,4.0,427.2232350003833,2.0,1.0,part_1,,,,,,,,,,,,,yellow,triangle
182.0,3.0,3.0,0.0,3.0,3.0,596.7025070003729,2.0,1.0,part_1,,,,,,,,,,,,,green,flipped triangle
57.0,5.0,1.0,1.0,1.0,1.0,628.2631320000291,2.0,1.0,part_1,,,,,,,,,,,,,blue,circle
0.0,7.0,0.0,1.0,2.0,2.0,574.0681859997494,2.0,1.0,part_1,,,,,,,,,,,,,gray,hexagon
57.0,1.0,1.0,0.0,3.0,3.0,342.3002830004407,2.0,1.0,part_1,,,,,,,,,,,,,magenta,I
207.0,7.0,3.0,1.0,2.0,2.0,416.6760509997402,2.0,1.0,part_1,,,,,,,,,,,,,gray,hexagon
189.0,7.0,3.0,1.0,1.0,1.0,430.4856700000528,2.0,1.0,part_1,,,,,,,,,,,,,gray,hexagon
391.0,4.0,4.0,0.0,3.0,3.0,594.6188070001881,2.0,1.0,part_1,,,,,,,,,,,,,white,diamond
0.0,1.0,0.0,0.0,4.0,4.0,421.8440169997848,2.0,1.0,part_1,,,,,,,,,,,,,magenta,I
35.0,5.0,1.0,1.0,3.0,3.0,373.1035400005567,2.0,1.0,part_1,,,,,,,,,,,,,blue,circle
121.0,6.0,2.0,1.0,2.0,2.0,362.6642600002014,2.0,1.0,part_1,,,,,,,,,,,,,yellow,triangle
178.0,3.0,3.0,0.0,3.0,3.0,461.4475819998915,2.0,1.0,part_1,,,,,,,,,,,,,green,flipped triangle
403.0,8.0,4.0,1.0,3.0,3.0,352.113845000531,2.0,1.0,part_1,,,,,,,,,,,,,orange,square
377.0,8.0,4.0,1.0,4.0,4.0,344.9152049997792,2.0,1.0,part_1,,,,,,,,,,,,,orange,square
403.0,4.0,4.0,0.0,4.0,4.0,351.6665739998643,2.0,1.0,part_1,,,,,,,,,,,,,white,diamond
28.0,5.0,1.0,1.0,2.0,2.0,357.9592180003601,3.0,1.0,part_1,,,,,,,,,,,,,blue,circle
223.0,3.0,3.0,0.0,3.0,3.0,279.152895000152,3.0,1.0,part_1,,,,,,,,,,,,,green,flipped triangle
389.0,8.0,4.0,1.0,1.0,1.0,440.3774660004274,3.0,1.0,part_1,,,,,,,,,,,,,orange,square
106.0,2.0,2.0,0.0,1.0,1.0,383.4228590003476,3.0,1.0,part_1,,,,,,,,,,,,,cyan,cross
203.0,7.0,3.0,1.0,1.0,1.0,399.1142149998268,3.0,1.0,part_1,,,,,,,,,,,,,gray,hexagon
195.0,3.0,3.0,0.0,2.0,2.0,350.2794110008835,3.0,2.0,part_1,,,,,,,,,,,,,green,flipped triangle
210.0,7.0,3.0,1.0,3.0,3.0,331.8989990002592,3.0,1.0,part_1,,,,,,,,,,,,,gray,hexagon
377.0,4.0,4.0,0.0,4.0,4.0,269.3046150006921,3.0,1.0,part_1,,,,,,,,,,,,,white,diamond
0.0,8.0,0.0,1.0,1.0,1.0,366.3540750003449,3.0,1.0,part_1,,,,,,,,,,,,,orange,square
0.0,7.0,0.0,1.0,3.0,3.0,385.1429970000026,3.0,1.0,part_1,,,,,,,,,,,,,gray,hexagon
393.0,8.0,4.0,1.0,4.0,4.0,368.264800000361,3.0,1.0,part_1,,,,,,,,,,,,,orange,square
27.0,1.0,1.0,0.0,2.0,2.0,812.7378899998803,3.0,1.0,part_1,,,,,,,,,,,,,magenta,I
0.0,8.0,0.0,1.0,4.0,4.0,535.4888740002934,3.0,1.0,part_1,,,,,,,,,,,,,orange,square
104.0,6.0,2.0,1.0,4.0,4.0,323.2267059993319,3.0,2.0,part_1,,,,,,,,,,,,,yellow,triangle
35.0,5.0,1.0,1.0,1.0,1.0,336.0885960000814,3.0,1.0,part_1,,,,,,,,,,,,,blue,circle
189.0,3.0,3.0,0.0,2.0,2.0,455.2116699996986,3.0,1.0,part_1,,,,,,,,,,,,,green,flipped triangle
95.0,2.0,2.0,0.0,3.0,3.0,587.2722180001801,3.0,1.0,part_1,,,,,,,,,,,,,cyan,cross
196.0,7.0,3.0,1.0,3.0,3.0,745.5246379995515,3.0,1.0,part_1,,,,,,,,,,,,,gray,hexagon
400.0,8.0,4.0,1.0,4.0,4.0,595.4860510000799,3.0,1.0,part_1,,,,,,,,,,,,,orange,square
92.0,2.0,2.0,0.0,3.0,3.0,653.2589769994956,3.0,1.0,part_1,,,,,,,,,,,,,cyan,cross
74.0,1.0,1.0,0.0,3.0,3.0,414.0451759994903,3.0,1.0,part_1,,,,,,,,,,,,,magenta,I
224.0,3.0,3.0,0.0,1.0,1.0,393.554655999651,3.0,1.0,part_1,,,,,,,,,,,,,green,flipped triangle
66.0,1.0,1.0,0.0,4.0,4.0,724.4092020000608,3.0,1.0,part_1,,,,,,,,,,,,,magenta,I
35.0,1.0,1.0,0.0,1.0,1.0,476.2214940001286,3.0,1.0,part_1,,,,,,,,,,,,,magenta,I
0.0,1.0,0.0,0.0,4.0,4.0,441.7155110004387,3.0,1.0,part_1,,,,,,,,,,,,,magenta,I
83.0,2.0,2.0,0.0,2.0,2.0,628.496783000628,3.0,1.0,part_1,,,,,,,,,,,,,cyan,cross
194.0,3.0,3.0,0.0,1.0,1.0,370.5510529998719,3.0,1.0,part_1,,,,,,,,,,,,,green,flipped triangle
49.0,1.0,1.0,0.0,4.0,4.0,511.19346899940865,3.0,1.0,part_1,,,,,,,,,,,,,magenta,I
96.0,6.0,2.0,1.0,1.0,1.0,434.9278089994186,3.0,1.0,part_1,,,,,,,,,,,,,yellow,triangle
76.0,2.0,2.0,0.0,4.0,4.0,511.71308099947055,3.0,1.0,part_1,,,,,,,,,,,,,cyan,cross
220.0,7.0,3.0,1.0,4.0,4.0,544.8150980000719,3.0,1.0,part_1,,,,,,,,,,,,,gray,hexagon
192.0,7.0,3.0,1.0,1.0,1.0,452.3010619996057,3.0,1.0,part_1,,,,,,,,,,,,,gray,hexagon
0.0,5.0,0.0,1.0,4.0,4.0,534.6602650006389,3.0,1.0,part_1,,,,,,,,,,,,,blue,circle
391.0,4.0,4.0,0.0,4.0,4.0,512.220096999954,3.0,1.0,part_1,,,,,,,,,,,,,white,diamond
0.0,6.0,0.0,1.0,1.0,1.0,396.3207330007208,3.0,1.0,part_1,,,,,,,,,,,,,yellow,triangle
179.0,3.0,3.0,0.0,1.0,1.0,715.2547290006623,3.0,1.0,part_1,,,,,,,,,,,,,green,flipped triangle
99.0,2.0,2.0,0.0,3.0,3.0,409.3540019994179,3.0,1.0,part_1,,,,,,,,,,,,,cyan,cross
49.0,5.0,1.0,1.0,3.0,3.0,640.8074279997891,3.0,1.0,part_1,,,,,,,,,,,,,blue,circle
0.0,8.0,0.0,1.0,3.0,3.0,398.4484459997475,3.0,1.0,part_1,,,,,,,,,,,,,orange,square
177.0,7.0,3.0,1.0,4.0,4.0,429.4505340003525,3.0,1.0,part_1,,,,,,,,,,,,,gray,hexagon
383.0,8.0,4.0,1.0,2.0,2.0,645.1137770000059,3.0,1.0,part_1,,,,,,,,,,,,,orange,square
398.0,4.0,4.0,0.0,2.0,2.0,420.1526410006408,3.0,1.0,part_1,,,,,,,,,,,,,white,diamond
69.0,5.0,1.0,1.0,2.0,2.0,370.3651109999555,3.0,2.0,part_1,,,,,,,,,,,,,blue,circle
0.0,2.0,0.0,0.0,1.0,1.0,439.972179000506,3.0,1.0,part_1,,,,,,,,,,,,,cyan,cross
178.0,3.0,3.0,0.0,2.0,2.0,399.7146459996656,3.0,1.0,part_1,,,,,,,,,,,,,green,flipped triangle
216.0,7.0,3.0,1.0,3.0,3.0,332.2991490003915,3.0,1.0,part_1,,,,,,,,,,,,,gray,hexagon
103.0,6.0,2.0,1.0,1.0,1.0,312.9750739999508,3.0,1.0,part_1,,,,,,,,,,,,,yellow,triangle
381.0,8.0,4.0,1.0,4.0,4.0,308.2219610005268,3.0,1.0,part_1,,,,,,,,,,,,,orange,square
95.0,6.0,2.0,1.0,4.0,4.0,337.3815200002354,3.0,1.0,part_1,,,,,,,,,,,,,yellow,triangle
98.0,6.0,2.0,1.0,4.0,4.0,306.42850500044,3.0,1.0,part_1,,,,,,,,,,,,,yellow,triangle
386.0,8.0,4.0,1.0,3.0,3.0,322.2009499995693,3.0,1.0,part_1,,,,,,,,,,,,,orange,square
52.0,1.0,1.0,0.0,4.0,4.0,252.1622949998345,3.0,1.0,part_1,,,,,,,,,,,,,magenta,I
90.0,2.0,2.0,0.0,2.0,2.0,359.3766639996829,3.0,1.0,part_1,,,,,,,,,,,,,cyan,cross
0.0,1.0,0.0,0.0,3.0,3.0,327.3626410000361,3.0,1.0,part_1,,,,,,,,,,,,,magenta,I
46.0,1.0,1.0,0.0,1.0,1.0,363.3913230005419,3.0,1.0,part_1,,,,,,,,,,,,,magenta,I
0.0,1.0,0.0,0.0,3.0,3.0,382.8687290006201,3.0,1.0,part_1,,,,,,,,,,,,,magenta,I
414.0,4.0,4.0,0.0,2.0,2.0,416.516402000525,3.0,2.0,part_1,,,,,,,,,,,,,white,diamond
406.0,8.0,4.0,1.0,4.0,4.0,483.0062060000273,3.0,1.0,part_1,,,,,,,,,,,,,orange,square
117.0,2.0,2.0,0.0,2.0,2.0,397.2923940000328,3.0,1.0,part_1,,,,,,,,,,,,,cyan,cross
122.0,2.0,2.0,0.0,4.0,4.0,291.789541000071,3.0,1.0,part_1,,,,,,,,,,,,,cyan,cross
0.0,3.0,0.0,0.0,1.0,1.0,334.0634310006862,3.0,1.0,part_1,,,,,,,,,,,,,green,flipped triangle
94.0,2.0,2.0,0.0,1.0,1.0,306.8901440001355,3.0,1.0,part_1,,,,,,,,,,,,,cyan,cross
123.0,2.0,2.0,0.0,1.0,1.0,343.3244779998858,3.0,1.0,part_1,,,,,,,,,,,,,cyan,cross
0.0,5.0,0.0,1.0,3.0,3.0,358.0040180004289,3.0,1.0,part_1,,,,,,,,,,,,,blue,circle
84.0,2.0,2.0,0.0,2.0,2.0,424.4483989996297,3.0,1.0,part_1,,,,,,,,,,,,,cyan,cross
203.0,3.0,3.0,0.0,2.0,2.0,321.2715200006641,3.0,1.0,part_1,,,,,,,,,,,,,green,flipped triangle
0.0,4.0,0.0,0.0,3.0,3.0,353.0093019999185,3.0,1.0,part_1,,,,,,,,,,,,,white,diamond
190.0,3.0,3.0,0.0,4.0,4.0,352.960363999955,3.0,1.0,part_1,,,,,,,,,,,,,green,flipped triangle
102.0,2.0,2.0,0.0,3.0,3.0,533.9512299997295,3.0,1.0,part_1,,,,,,,,,,,,,cyan,cross
99.0,6.0,2.0,1.0,2.0,2.0,328.5897579999073,3.0,1.0,part_1,,,,,,,,,,,,,yellow,triangle
425.0,4.0,4.0,0.0,1.0,1.0,368.8974320002671,3.0,1.0,part_1,,,,,,,,,,,,,white,diamond
52.0,5.0,1.0,1.0,2.0,2.0,442.3358819994973,3.0,1.0,part_1,,,,,,,,,,,,,blue,circle
0.0,1.0,0.0,0.0,4.0,4.0,327.6748709995445,3.0,1.0,part_1,,,,,,,,,,,,,magenta,I
406.0,4.0,4.0,0.0,2.0,2.0,323.9874369992321,3.0,1.0,part_1,,,,,,,,,,,,,white,diamond
403.0,8.0,4.0,1.0,1.0,1.0,392.4288349999187,3.0,1.0,part_1,,,,,,,,,,,,,orange,square
91.0,2.0,2.0,0.0,1.0,1.0,315.9803829994416,3.0,1.0,part_1,,,,,,,,,,,,,cyan,cross
52.0,5.0,1.0,1.0,4.0,4.0,360.3146469995408,3.0,1.0,part_1,,,,,,,,,,,,,blue,circle
393.0,4.0,4.0,0.0,2.0,2.0,468.7848439998561,3.0,1.0,part_1,,,,,,,,,,,,,white,diamond
0.0,8.0,0.0,1.0,2.0,2.0,557.2729779996735,3.0,1.0,part_1,,,,,,,,,,,,,orange,square
423.0,8.0,4.0,1.0,2.0,2.0,625.6179080000948,3.0,1.0,part_1,,,,,,,,,,,,,orange,square
67.0,1.0,1.0,0.0,4.0,4.0,507.52372599981754,3.0,1.0,part_1,,,,,,,,,,,,,magenta,I
82.0,6.0,2.0,1.0,4.0,4.0,462.0794409993323,3.0,1.0,part_1,,,,,,,,,,,,,yellow,triangle
110.0,6.0,2.0,1.0,2.0,2.0,483.7583219996304,3.0,1.0,part_1,,,,,,,,,,,,,yellow,triangle
84.0,6.0,2.0,1.0,2.0,2.0,436.6086949994496,3.0,1.0,part_1,,,,,,,,,,,,,yellow,triangle
0.0,5.0,0.0,1.0,2.0,2.0,372.0098200001303,3.0,1.0,part_1,,,,,,,,,,,,,blue,circle
0.0,4.0,0.0,0.0,2.0,2.0,379.6928370002206,3.0,1.0,part_1,,,,,,,,,,,,,white,diamond
57.0,1.0,1.0,0.0,4.0,4.0,349.0708709996397,3.0,1.0,part_1,,,,,,,,,,,,,magenta,I
47.0,5.0,1.0,1.0,4.0,4.0,344.3626160005806,3.0,1.0,part_1,,,,,,,,,,,,,blue,circle
0.0,8.0,0.0,1.0,2.0,2.0,362.0039560000805,3.0,1.0,part_1,,,,,,,,,,,,,orange,square
383.0,4.0,4.0,0.0,1.0,1.0,348.5855369999626,3.0,1.0,part_1,,,,,,,,,,,,,white,diamond
58.0,1.0,1.0,0.0,3.0,3.0,374.0573009999934,3.0,1.0,part_1,,,,,,,,,,,,,magenta,I
397.0,4.0,4.0,0.0,1.0,1.0,386.8190330003926,3.0,1.0,part_1,,,,,,,,,,,,,white,diamond
386.0,8.0,4.0,1.0,1.0,1.0,354.8193319993515,3.0,1.0,part_1,,,,,,,,,,,,,orange,square
40.0,1.0,1.0,0.0,3.0,3.0,497.4349770000117,3.0,1.0,part_1,,,,,,,,,,,,,magenta,I
90.0,6.0,2.0,1.0,1.0,1.0,485.3281459991194,3.0,1.0,part_1,,,,,,,,,,,,,yellow,triangle
198.0,3.0,3.0,0.0,2.0,2.0,847.5601500003904,3.0,1.0,part_1,,,,,,,,,,,,,green,flipped triangle
83.0,6.0,2.0,1.0,4.0,4.0,671.5859420000925,3.0,1.0,part_1,,,,,,,,,,,,,yellow,triangle
192.0,3.0,3.0,0.0,3.0,3.0,565.6064450004124,3.0,1.0,part_1,,,,,,,,,,,,,green,flipped triangle
60.0,5.0,1.0,1.0,3.0,3.0,391.5212560004875,3.0,1.0,part_1,,,,,,,,,,,,,blue,circle
48.0,5.0,1.0,1.0,2.0,2.0,364.2446619996917,3.0,1.0,part_1,,,,,,,,,,,,,blue,circle
222.0,3.0,3.0,0.0,3.0,3.0,363.937156999782,4.0,1.0,part_1,,,,,,,,,,,,,green,flipped triangle
110.0,2.0,2.0,0.0,1.0,1.0,364.7958960000323,4.0,1.0,part_1,,,,,,,,,,,,,cyan,cross
105.0,2.0,2.0,0.0,4.0,4.0,469.9344149994431,4.0,1.0,part_1,,,,,,,,,,,,,cyan,cross
193.0,7.0,3.0,1.0,4.0,4.0,459.5061429999987,4.0,1.0,part_1,,,,,,,,,,,,,gray,hexagon
178.0,7.0,3.0,1.0,4.0,4.0,535.908324999582,4.0,1.0,part_1,,,,,,,,,,,,,gray,hexagon
414.0,8.0,4.0,1.0,1.0,1.0,421.96401699948177,4.0,1.0,part_1,,,,,,,,,,,,,orange,square
398.0,4.0,4.0,0.0,2.0,2.0,612.8298359999462,4.0,1.0,part_1,,,,,,,,,,,,,white,diamond
88.0,6.0,2.0,1.0,4.0,4.0,568.997366000076,4.0,1.0,part_1,,,,,,,,,,,,,yellow,triangle
77.0,2.0,2.0,0.0,4.0,4.0,374.4718520001697,4.0,1.0,part_1,,,,,,,,,,,,,cyan,cross
48.0,5.0,1.0,1.0,1.0,1.0,332.4048929998753,4.0,1.0,part_1,,,,,,,,,,,,,blue,circle
425.0,8.0,4.0,1.0,4.0,4.0,447.1188050001728,4.0,1.0,part_1,,,,,,,,,,,,,orange,square
207.0,3.0,3.0,0.0,2.0,2.0,359.4904720002887,4.0,2.0,part_1,,,,,,,,,,,,,green,flipped triangle
0.0,4.0,0.0,0.0,4.0,4.0,319.9431789998925,4.0,1.0,part_1,,,,,,,,,,,,,white,diamond
208.0,3.0,3.0,0.0,1.0,1.0,374.6927370002595,4.0,1.0,part_1,,,,,,,,,,,,,green,flipped triangle
123.0,6.0,2.0,1.0,4.0,4.0,384.6164019996649,4.0,1.0,part_1,,,,,,,,,,,,,yellow,triangle
36.0,1.0,1.0,0.0,4.0,4.0,372.969527999885,4.0,1.0,part_1,,,,,,,,,,,,,magenta,I
110.0,2.0,2.0,0.0,3.0,3.0,517.4068909991547,4.0,1.0,part_1,,,,,,,,,,,,,cyan,cross
420.0,4.0,4.0,0.0,1.0,1.0,396.7212150000705,4.0,1.0,part_1,,,,,,,,,,,,,white,diamond
386.0,4.0,4.0,0.0,1.0,1.0,469.8323719994732,4.0,1.0,part_1,,,,,,,,,,,,,white,diamond
198.0,7.0,3.0,1.0,2.0,2.0,514.1786599997431,4.0,1.0,part_1,,,,,,,,,,,,,gray,hexagon
176.0,3.0,3.0,0.0,4.0,4.0,292.2267249996366,4.0,1.0,part_1,,,,,,,,,,,,,green,flipped triangle
105.0,6.0,2.0,1.0,4.0,4.0,419.8970899997221,4.0,1.0,part_1,,,,,,,,,,,,,yellow,triangle
44.0,5.0,1.0,1.0,4.0,4.0,342.5617169996258,4.0,1.0,part_1,,,,,,,,,,,,,blue,circle
0.0,4.0,0.0,0.0,4.0,4.0,344.2432120000376,4.0,1.0,part_1,,,,,,,,,,,,,white,diamond
403.0,4.0,4.0,0.0,1.0,1.0,351.7075489999115,4.0,1.0,part_1,,,,,,,,,,,,,white,diamond
104.0,2.0,2.0,0.0,4.0,4.0,375.1167330001408,4.0,1.0,part_1,,,,,,,,,,,,,cyan,cross
30.0,5.0,1.0,1.0,4.0,4.0,316.3711179995516,4.0,1.0,part_1,,,,,,,,,,,,,blue,circle
377.0,4.0,4.0,0.0,3.0,3.0,328.2183390001592,4.0,1.0,part_1,,,,,,,,,,,,,white,diamond
44.0,1.0,1.0,0.0,2.0,2.0,299.5720010003424,4.0,1.0,part_1,,,,,,,,,,,,,magenta,I
66.0,5.0,1.0,1.0,1.0,1.0,450.9364719997393,4.0,1.0,part_1,,,,,,,,,,,,,blue,circle
220.0,3.0,3.0,0.0,4.0,4.0,378.6079299998164,4.0,1.0,part_1,,,,,,,,,,,,,green,flipped triangle
92.0,2.0,2.0,0.0,2.0,2.0,509.71127600041655,4.0,1.0,part_1,,,,,,,,,,,,,cyan,cross
0.0,5.0,0.0,1.0,1.0,1.0,338.5370070000135,4.0,1.0,part_1,,,,,,,,,,,,,blue,circle
405.0,8.0,4.0,1.0,3.0,3.0,428.892941000413,4.0,1.0,part_1,,,,,,,,,,,,,orange,square
386.0,4.0,4.0,0.0,4.0,4.0,386.1354720002055,4.0,1.0,part_1,,,,,,,,,,,,,white,diamond
387.0,8.0,4.0,1.0,4.0,4.0,513.8698129994737,4.0,1.0,part_1,,,,,,,,,,,,,orange,square
415.0,4.0,4.0,0.0,4.0,4.0,388.667236999936,4.0,1.0,part_1,,,,,,,,,,,,,white,diamond
425.0,4.0,4.0,0.0,2.0,2.0,755.5499330001112,4.0,1.0,part_1,,,,,,,,,,,,,white,diamond
0.0,5.0,0.0,1.0,1.0,1.0,530.7221709999794,4.0,1.0,part_1,,,,,,,,,,,,,blue,circle
78.0,6.0,2.0,1.0,2.0,2.0,421.5318470005513,4.0,1.0,part_1,,,,,,,,,,,,,yellow,triangle
391.0,8.0,4.0,1.0,3.0,3.0,396.319516999938,4.0,1.0,part_1,,,,,,,,,,,,,orange,square
94.0,6.0,2.0,1.0,3.0,3.0,491.9757529996786,4.0,1.0,part_1,,,,,,,,,,,,,yellow,triangle
0.0,4.0,0.0,0.0,2.0,2.0,462.9784139997355,4.0,1.0,part_1,,,,,,,,,,,,,white,diamond
0.0,3.0,0.0,0.0,2.0,2.0,421.0884189997159,4.0,1.0,part_1,,,,,,,,,,,,,green,flipped triangle
400.0,4.0,4.0,0.0,2.0,2.0,415.2367549995688,4.0,1.0,part_1,,,,,,,,,,,,,white,diamond
50.0,5.0,1.0,1.0,2.0,2.0,365.0397950004844,4.0,1.0,part_1,,,,,,,,,,,,,blue,circle
117.0,6.0,2.0,1.0,1.0,1.0,365.452181999899,4.0,1.0,part_1,,,,,,,,,,,,,yellow,triangle
34.0,5.0,1.0,1.0,2.0,2.0,437.7058669997495,4.0,1.0,part_1,,,,,,,,,,,,,blue,circle
122.0,6.0,2.0,1.0,3.0,3.0,420.9478319999107,4.0,1.0,part_1,,,,,,,,,,,,,yellow,triangle
58.0,5.0,1.0,1.0,2.0,2.0,503.6447779993978,4.0,1.0,part_1,,,,,,,,,,,,,blue,circle
0.0,1.0,0.0,0.0,2.0,2.0,525.3096899996308,4.0,1.0,part_1,,,,,,,,,,,,,magenta,I
0.0,5.0,0.0,1.0,4.0,4.0,385.5882309999288,4.0,1.0,part_1,,,,,,,,,,,,,blue,circle
0.0,4.0,0.0,0.0,2.0,2.0,533.956641000259,4.0,1.0,part_1,,,,,,,,,,,,,white,diamond
223.0,7.0,3.0,1.0,4.0,4.0,551.6748999998526,4.0,1.0,part_1,,,,,,,,,,,,,gray,hexagon
183.0,7.0,3.0,1.0,4.0,4.0,357.8410849995634,4.0,1.0,part_1,,,,,,,,,,,,,gray,hexagon
0.0,6.0,0.0,1.0,1.0,1.0,524.7353849999854,4.0,1.0,part_1,,,,,,,,,,,,,yellow,triangle
36.0,5.0,1.0,1.0,1.0,1.0,505.3192199993646,4.0,1.0,part_1,,,,,,,,,,,,,blue,circle
384.0,4.0,4.0,0.0,3.0,3.0,393.2839710005282,4.0,1.0,part_1,,,,,,,,,,,,,white,diamond
0.0,1.0,0.0,0.0,2.0,2.0,677.8492789999291,4.0,1.0,part_1,,,,,,,,,,,,,magenta,I
197.0,3.0,3.0,0.0,2.0,2.0,429.5747340001981,4.0,1.0,part_1,,,,,,,,,,,,,green,flipped triangle
0.0,8.0,0.0,1.0,1.0,1.0,416.248823999922,4.0,1.0,part_1,,,,,,,,,,,,,orange,square
211.0,7.0,3.0,1.0,4.0,4.0,336.0116530002415,4.0,1.0,part_1,,,,,,,,,,,,,gray,hexagon
202.0,3.0,3.0,0.0,3.0,3.0,438.736985000105,4.0,1.0,part_1,,,,,,,,,,,,,green,flipped triangle
104.0,2.0,2.0,0.0,4.0,4.0,589.4080079997366,4.0,1.0,part_1,,,,,,,,,,,,,cyan,cross
52.0,1.0,1.0,0.0,2.0,2.0,454.1347119993588,4.0,1.0,part_1,,,,,,,,,,,,,magenta,I
391.0,8.0,4.0,1.0,4.0,4.0,480.3312689991799,4.0,1.0,part_1,,,,,,,,,,,,,orange,square
69.0,5.0,1.0,1.0,3.0,3.0,328.6221920006937,4.0,1.0,part_1,,,,,,,,,,,,,blue,circle
31.0,5.0,1.0,1.0,3.0,3.0,314.0263920004145,4.0,1.0,part_1,,,,,,,,,,,,,blue,circle
0.0,4.0,0.0,0.0,1.0,1.0,323.9176839997526,4.0,1.0,part_1,,,,,,,,,,,,,white,diamond
391.0,8.0,4.0,1.0,1.0,1.0,301.2809370002287,4.0,1.0,part_1,,,,,,,,,,,,,orange,square
110.0,2.0,2.0,0.0,2.0,2.0,442.2050579996721,4.0,1.0,part_1,,,,,,,,,,,,,cyan,cross
0.0,6.0,0.0,1.0,4.0,4.0,336.5382450001561,4.0,1.0,part_1,,,,,,,,,,,,,yellow,triangle
384.0,8.0,4.0,1.0,2.0,2.0,641.373585999645,4.0,1.0,part_1,,,,,,,,,,,,,orange,square
220.0,3.0,3.0,0.0,1.0,1.0,376.2416589997883,4.0,1.0,part_1,,,,,,,,,,,,,green,flipped triangle
104.0,6.0,2.0,1.0,2.0,2.0,363.7146450000728,4.0,1.0,part_1,,,,,,,,,,,,,yellow,triangle
51.0,1.0,1.0,0.0,3.0,3.0,287.3768780000318,4.0,1.0,part_1,,,,,,,,,,,,,magenta,I
383.0,8.0,4.0,1.0,4.0,4.0,328.6644390000219,4.0,1.0,part_1,,,,,,,,,,,,,orange,square
74.0,5.0,1.0,1.0,2.0,2.0,372.6854989999992,4.0,1.0,part_1,,,,,,,,,,,,,blue,circle
192.0,3.0,3.0,0.0,4.0,4.0,375.0357379994966,4.0,1.0,part_1,,,,,,,,,,,,,green,flipped triangle
54.0,5.0,1.0,1.0,4.0,4.0,832.6650909993987,4.0,1.0,part_1,,,,,,,,,,,,,blue,circle
83.0,6.0,2.0,1.0,2.0,2.0,610.6352269998752,4.0,1.0,part_1,,,,,,,,,,,,,yellow,triangle
183.0,3.0,3.0,0.0,2.0,2.0,332.7064909999535,4.0,1.0,part_1,,,,,,,,,,,,,green,flipped triangle
103.0,2.0,2.0,0.0,1.0,1.0,422.8399109997554,4.0,1.0,part_1,,,,,,,,,,,,,cyan,cross
194.0,7.0,3.0,1.0,1.0,1.0,467.5529500000266,4.0,1.0,part_1,,,,,,,,,,,,,gray,hexagon
88.0,2.0,2.0,0.0,4.0,4.0,789.0679629999795,4.0,1.0,part_1,,,,,,,,,,,,,cyan,cross
205.0,3.0,3.0,0.0,1.0,1.0,435.0279829995997,4.0,1.0,part_1,,,,,,,,,,,,,green,flipped triangle
410.0,8.0,4.0,1.0,1.0,1.0,476.8234729999676,4.0,1.0,part_1,,,,,,,,,,,,,orange,square
412.0,4.0,4.0,0.0,1.0,1.0,387.3474330002864,4.0,1.0,part_1,,,,,,,,,,,,,white,diamond
125.0,6.0,2.0,1.0,3.0,3.0,338.9634010000009,4.0,1.0,part_1,,,,,,,,,,,,,yellow,triangle
0.0,6.0,0.0,1.0,4.0,4.0,334.1249880004397,4.0,1.0,part_1,,,,,,,,,,,,,yellow,triangle
422.0,4.0,4.0,0.0,3.0,3.0,366.4328189997832,4.0,1.0,part_1,,,,,,,,,,,,,white,diamond
44.0,5.0,1.0,1.0,2.0,2.0,944.33216500056,4.0,1.0,part_1,,,,,,,,,,,,,blue,circle
35.0,1.0,1.0,0.0,1.0,1.0,427.4377179999646,4.0,1.0,part_1,,,,,,,,,,,,,magenta,I
391.0,4.0,4.0,0.0,3.0,3.0,422.6247500000681,4.0,1.0,part_1,,,,,,,,,,,,,white,diamond
210.0,3.0,3.0,0.0,4.0,4.0,310.1115350000327,4.0,1.0,part_1,,,,,,,,,,,,,green,flipped triangle
0.0,5.0,0.0,1.0,4.0,4.0,421.5499629999613,4.0,1.0,part_1,,,,,,,,,,,,,blue,circle
222.0,7.0,3.0,1.0,1.0,1.0,462.947148999774,4.0,1.0,part_1,,,,,,,,,,,,,gray,hexagon
0.0,7.0,0.0,1.0,3.0,3.0,471.8923700002051,4.0,1.0,part_1,,,,,,,,,,,,,gray,hexagon
0.0,7.0,0.0,1.0,2.0,2.0,596.8783569996958,4.0,1.0,part_1,,,,,,,,,,,,,gray,hexagon
201.0,3.0,3.0,0.0,4.0,4.0,539.832003999436,4.0,1.0,part_1,,,,,,,,,,,,,green,flipped triangle
0.0,3.0,3.0,0.0,6.0,6.0,886.0652499997741,1.0,0.0,part_2,go,250.0,250.0,1.0,,,,,,,,,green,flipped triangle
0.0,5.0,1.0,1.0,5.0,5.0,852.0310180001616,1.0,0.0,part_2,go,250.0,250.0,1.0,,,,,,,,,blue,circle
0.0,7.0,3.0,1.0,5.0,0.0,0.0,1.0,0.0,part_2,stop,250.0,250.0,4.0,,,,,,,,,gray,hexagon
0.0,7.0,3.0,1.0,5.0,0.0,0.0,1.0,0.0,part_2,stop,300.0,250.0,4.0,,,,,,,,,gray,hexagon
0.0,6.0,2.0,1.0,5.0,5.0,863.4452989999772,1.0,0.0,part_2,go,350.0,250.0,1.0,,,,,,,,,yellow,triangle
0.0,5.0,1.0,1.0,5.0,0.0,0.0,1.0,0.0,part_2,stop,350.0,250.0,4.0,,,,,,,,,blue,circle
0.0,5.0,1.0,1.0,5.0,5.0,883.4493970007316,1.0,0.0,part_2,go,400.0,250.0,1.0,,,,,,,,,blue,circle
0.0,7.0,3.0,1.0,6.0,6.0,958.0412139994224,1.0,0.0,part_2,go,400.0,250.0,1.0,,,,,,,,,gray,hexagon
0.0,3.0,3.0,0.0,6.0,6.0,977.5294870005382,1.0,0.0,part_2,go,400.0,250.0,1.0,,,,,,,,,green,flipped triangle
0.0,4.0,4.0,0.0,5.0,5.0,1097.404796999399,1.0,0.0,part_2,go,400.0,250.0,1.0,,,,,,,,,white,diamond
0.0,8.0,4.0,1.0,5.0,0.0,0.0,1.0,0.0,part_2,stop,400.0,250.0,4.0,,,,,,,,,orange,square
0.0,7.0,3.0,1.0,6.0,0.0,0.0,1.0,0.0,part_2,stop,450.0,250.0,4.0,,,,,,,,,gray,hexagon
0.0,2.0,2.0,0.0,5.0,5.0,1010.7804810004382,1.0,0.0,part_2,go,450.0,300.0,1.0,,,,,,,,,cyan,cross
0.0,1.0,1.0,0.0,6.0,6.0,907.3210839997046,1.0,0.0,part_2,go,450.0,300.0,1.0,,,,,,,,,magenta,I
0.0,8.0,4.0,1.0,5.0,0.0,0.0,1.0,0.0,part_2,stop,450.0,300.0,4.0,,,,,,,,,orange,square
0.0,4.0,4.0,0.0,6.0,6.0,1067.513787999815,1.0,0.0,part_2,go,500.0,300.0,1.0,,,,,,,,,white,diamond
0.0,6.0,2.0,1.0,6.0,6.0,1108.3807100003469,1.0,0.0,part_2,go,500.0,300.0,1.0,,,,,,,,,yellow,triangle
0.0,2.0,2.0,0.0,6.0,6.0,957.8545949998444,1.0,0.0,part_2,go,500.0,300.0,1.0,,,,,,,,,cyan,cross
0.0,7.0,3.0,1.0,6.0,0.0,0.0,1.0,0.0,part_2,stop,500.0,300.0,4.0,,,,,,,,,gray,hexagon
0.0,3.0,3.0,0.0,6.0,6.0,758.5871330002192,1.0,0.0,part_2,go,500.0,350.0,1.0,,,,,,,,,green,flipped triangle
0.0,8.0,4.0,1.0,6.0,0.0,0.0,1.0,0.0,part_2,stop,500.0,350.0,4.0,,,,,,,,,orange,square
0.0,3.0,3.0,0.0,6.0,6.0,897.9105039998103,1.0,0.0,part_2,go,500.0,400.0,1.0,,,,,,,,,green,flipped triangle
0.0,4.0,4.0,0.0,5.0,5.0,876.1951360002058,1.0,0.0,part_2,go,500.0,400.0,1.0,,,,,,,,,white,diamond
0.0,2.0,2.0,0.0,5.0,5.0,945.41669299997,1.0,0.0,part_2,go,500.0,400.0,1.0,,,,,,,,,cyan,cross
0.0,5.0,1.0,1.0,5.0,0.0,0.0,1.0,0.0,part_2,stop,500.0,400.0,4.0,,,,,,,,,blue,circle
0.0,8.0,4.0,1.0,5.0,0.0,0.0,1.0,0.0,part_2,stop,550.0,400.0,4.0,,,,,,,,,orange,square
0.0,1.0,1.0,0.0,6.0,6.0,1215.4894089999289,1.0,0.0,part_2,go,600.0,400.0,1.0,,,,,,,,,magenta,I
0.0,8.0,4.0,1.0,6.0,0.0,0.0,1.0,0.0,part_2,stop,600.0,400.0,4.0,,,,,,,,,orange,square
0.0,3.0,3.0,0.0,5.0,5.0,1020.0199669998256,1.0,0.0,part_2,go,600.0,450.0,1.0,,,,,,,,,green,flipped triangle
0.0,1.0,1.0,0.0,5.0,5.0,1014.9822000003039,1.0,0.0,part_2,go,600.0,450.0,1.0,,,,,,,,,magenta,I
0.0,8.0,4.0,1.0,6.0,6.0,1188.2551650005553,1.0,0.0,part_2,go,600.0,450.0,1.0,,,,,,,,,orange,square
0.0,4.0,4.0,0.0,6.0,6.0,1496.4234409999335,1.0,0.0,part_2,go,600.0,450.0,1.0,,,,,,,,,white,diamond
0.0,8.0,4.0,1.0,6.0,6.0,1082.0488670005943,1.0,0.0,part_2,go,600.0,450.0,1.0,,,,,,,,,orange,square
0.0,5.0,1.0,1.0,6.0,0.0,0.0,1.0,0.0,part_2,stop,600.0,450.0,4.0,,,,,,,,,blue,circle
0.0,1.0,1.0,0.0,6.0,6.0,1128.995176999524,1.0,0.0,part_2,go,600.0,500.0,1.0,,,,,,,,,magenta,I
0.0,8.0,4.0,1.0,6.0,6.0,1074.8366350007927,1.0,0.0,part_2,go,600.0,500.0,1.0,,,,,,,,,orange,square
0.0,8.0,4.0,1.0,5.0,5.0,891.1757100004252,2.0,0.0,part_2,go,600.0,500.0,1.0,,,,,,,,,orange,square
0.0,2.0,2.0,0.0,6.0,6.0,779.8603040000671,2.0,0.0,part_2,go,600.0,500.0,1.0,,,,,,,,,cyan,cross
0.0,5.0,1.0,1.0,6.0,6.0,379.7363329995278,2.0,0.0,part_2,stop,600.0,500.0,3.0,,,,,,,,,blue,circle
0.0,6.0,2.0,1.0,5.0,5.0,667.5356820005618,2.0,0.0,part_2,stop,600.0,450.0,3.0,,,,,,,,,yellow,triangle
0.0,2.0,2.0,0.0,5.0,5.0,919.875128000058,2.0,0.0,part_2,go,550.0,450.0,1.0,,,,,,,,,cyan,cross
0.0,1.0,1.0,0.0,6.0,6.0,872.2103300005983,2.0,0.0,part_2,go,550.0,450.0,1.0,,,,,,,,,magenta,I
0.0,6.0,2.0,1.0,5.0,5.0,679.775351999524,2.0,0.0,part_2,stop,550.0,450.0,3.0,,,,,,,,,yellow,triangle
0.0,5.0,1.0,1.0,5.0,0.0,0.0,2.0,0.0,part_2,stop,500.0,450.0,4.0,,,,,,,,,blue,circle
0.0,1.0,1.0,0.0,5.0,5.0,697.9215530000147,2.0,0.0,part_2,go,550.0,450.0,1.0,,,,,,,,,magenta,I
0.0,6.0,2.0,1.0,6.0,6.0,543.1980590001331,2.0,0.0,part_2,go,550.0,450.0,1.0,,,,,,,,,yellow,triangle
0.0,3.0,3.0,0.0,5.0,5.0,526.6406529999585,2.0,0.0,part_2,go,550.0,450.0,1.0,,,,,,,,,green,flipped triangle
0.0,5.0,1.0,1.0,5.0,5.0,620.1638399998046,2.0,0.0,part_2,go,550.0,450.0,1.0,,,,,,,,,blue,circle
0.0,6.0,2.0,1.0,5.0,5.0,709.9784350002665,2.0,0.0,part_2,stop,550.0,450.0,3.0,,,,,,,,,yellow,triangle
0.0,2.0,2.0,0.0,5.0,5.0,1018.4513719996175,2.0,0.0,part_2,go,500.0,450.0,1.0,,,,,,,,,cyan,cross
0.0,7.0,3.0,1.0,5.0,0.0,0.0,2.0,0.0,part_2,stop,500.0,450.0,4.0,,,,,,,,,gray,hexagon
0.0,1.0,1.0,0.0,6.0,6.0,626.8511190000936,2.0,0.0,part_2,go,550.0,450.0,1.0,,,,,,,,,magenta,I
0.0,4.0,4.0,0.0,6.0,6.0,746.3013189999401,2.0,0.0,part_2,go,550.0,450.0,1.0,,,,,,,,,white,diamond
0.0,3.0,3.0,0.0,5.0,5.0,271.1529870002778,2.0,0.0,part_2,go,550.0,450.0,1.0,,,,,,,,,green,flipped triangle
0.0,6.0,2.0,1.0,6.0,6.0,581.6342819998681,2.0,0.0,part_2,go,550.0,450.0,1.0,,,,,,,,,yellow,triangle
0.0,6.0,2.0,1.0,5.0,0.0,0.0,2.0,0.0,part_2,stop,550.0,450.0,4.0,,,,,,,,,yellow,triangle
0.0,2.0,2.0,0.0,5.0,5.0,1084.889557999304,2.0,0.0,part_2,go,600.0,450.0,1.0,,,,,,,,,cyan,cross
0.0,7.0,3.0,1.0,6.0,0.0,0.0,2.0,0.0,part_2,stop,600.0,450.0,4.0,,,,,,,,,gray,hexagon
0.0,5.0,1.0,1.0,6.0,0.0,0.0,2.0,0.0,part_2,stop,600.0,500.0,4.0,,,,,,,,,blue,circle
0.0,1.0,1.0,0.0,6.0,6.0,1172.6811270000326,2.0,0.0,part_2,go,600.0,550.0,1.0,,,,,,,,,magenta,I
0.0,8.0,4.0,1.0,5.0,5.0,812.5862829992911,2.0,0.0,part_2,go,600.0,550.0,1.0,,,,,,,,,orange,square
0.0,3.0,3.0,0.0,5.0,5.0,1077.927641000315,2.0,0.0,part_2,go,600.0,550.0,1.0,,,,,,,,,green,flipped triangle
0.0,1.0,1.0,0.0,6.0,6.0,979.2713169999844,2.0,0.0,part_2,go,600.0,550.0,1.0,,,,,,,,,magenta,I
0.0,3.0,3.0,0.0,6.0,6.0,880.8731460003401,2.0,0.0,part_2,go,600.0,550.0,1.0,,,,,,,,,green,flipped triangle
0.0,1.0,1.0,0.0,5.0,5.0,399.2904800006727,2.0,0.0,part_2,go,600.0,550.0,1.0,,,,,,,,,magenta,I
0.0,7.0,3.0,1.0,6.0,0.0,0.0,2.0,0.0,part_2,stop,600.0,550.0,4.0,,,,,,,,,gray,hexagon
0.0,1.0,1.0,0.0,5.0,5.0,412.5994880005237,2.0,0.0,part_2,go,600.0,600.0,1.0,,,,,,,,,magenta,I
0.0,7.0,3.0,1.0,5.0,0.0,0.0,2.0,0.0,part_2,stop,600.0,600.0,4.0,,,,,,,,,gray,hexagon
0.0,8.0,4.0,1.0,6.0,6.0,353.1889519999822,2.0,0.0,part_2,stop,650.0,600.0,3.0,,,,,,,,,orange,square
0.0,2.0,2.0,0.0,6.0,6.0,1311.405620000187,2.0,0.0,part_2,go,650.0,550.0,1.0,,,,,,,,,cyan,cross
0.0,8.0,4.0,1.0,6.0,0.0,0.0,2.0,0.0,part_2,stop,650.0,550.0,4.0,,,,,,,,,orange,square
0.0,7.0,3.0,1.0,5.0,5.0,712.0535379999637,2.0,0.0,part_2,stop,650.0,600.0,3.0,,,,,,,,,gray,hexagon
0.0,7.0,3.0,1.0,5.0,0.0,0.0,3.0,0.0,part_2,stop,600.0,600.0,4.0,,,,,,,,,gray,hexagon
0.0,8.0,4.0,1.0,6.0,6.0,539.8523849999037,3.0,0.0,part_2,go,650.0,600.0,1.0,,,,,,,,,orange,square
0.0,2.0,2.0,0.0,5.0,5.0,397.7107999999134,3.0,0.0,part_2,go,650.0,600.0,1.0,,,,,,,,,cyan,cross
0.0,7.0,3.0,1.0,5.0,5.0,283.0591649999405,3.0,0.0,part_2,stop,650.0,600.0,3.0,,,,,,,,,gray,hexagon
0.0,1.0,1.0,0.0,5.0,5.0,302.22735299958,3.0,0.0,part_2,go,600.0,600.0,1.0,,,,,,,,,magenta,I
0.0,7.0,3.0,1.0,6.0,6.0,371.6408549998959,3.0,0.0,part_2,stop,600.0,600.0,3.0,,,,,,,,,gray,hexagon
0.0,7.0,3.0,1.0,5.0,5.0,750.3436899996814,3.0,0.0,part_2,go,600.0,550.0,1.0,,,,,,,,,gray,hexagon
0.0,5.0,1.0,1.0,5.0,5.0,386.3218000005872,3.0,0.0,part_2,stop,600.0,550.0,3.0,,,,,,,,,blue,circle
0.0,1.0,1.0,0.0,5.0,5.0,686.3016180004706,3.0,0.0,part_2,go,550.0,550.0,1.0,,,,,,,,,magenta,I
0.0,3.0,3.0,0.0,6.0,6.0,477.9899400000431,3.0,0.0,part_2,go,550.0,550.0,1.0,,,,,,,,,green,flipped triangle
0.0,1.0,1.0,0.0,5.0,5.0,790.3886450003483,3.0,0.0,part_2,go,550.0,550.0,1.0,,,,,,,,,magenta,I
0.0,8.0,4.0,1.0,5.0,5.0,582.2871390000728,3.0,0.0,part_2,stop,550.0,550.0,3.0,,,,,,,,,orange,square
0.0,2.0,2.0,0.0,6.0,6.0,624.2088369999692,3.0,0.0,part_2,go,500.0,550.0,1.0,,,,,,,,,cyan,cross
0.0,1.0,1.0,0.0,6.0,6.0,481.7204780001702,3.0,0.0,part_2,go,500.0,550.0,1.0,,,,,,,,,magenta,I
0.0,5.0,1.0,1.0,5.0,5.0,652.8909519993249,3.0,0.0,part_2,stop,500.0,550.0,3.0,,,,,,,,,blue,circle
0.0,5.0,1.0,1.0,6.0,6.0,1072.3459040000307,3.0,0.0,part_2,stop,450.0,550.0,3.0,,,,,,,,,blue,circle
0.0,4.0,4.0,0.0,6.0,6.0,626.661041999796,3.0,0.0,part_2,go,450.0,500.0,1.0,,,,,,,,,white,diamond
0.0,8.0,4.0,1.0,5.0,5.0,361.85463000038,3.0,0.0,part_2,stop,450.0,500.0,3.0,,,,,,,,,orange,square
0.0,4.0,4.0,0.0,5.0,5.0,727.0703439999124,3.0,0.0,part_2,go,400.0,500.0,1.0,,,,,,,,,white,diamond
0.0,8.0,4.0,1.0,5.0,5.0,770.0516080003581,3.0,0.0,part_2,stop,400.0,500.0,3.0,,,,,,,,,orange,square
0.0,1.0,1.0,0.0,6.0,6.0,881.9672680001531,3.0,0.0,part_2,go,350.0,500.0,1.0,,,,,,,,,magenta,I
0.0,8.0,4.0,1.0,6.0,6.0,497.5953069997558,3.0,0.0,part_2,stop,350.0,500.0,3.0,,,,,,,,,orange,square
0.0,4.0,4.0,0.0,6.0,6.0,637.2425539993856,3.0,0.0,part_2,go,350.0,450.0,1.0,,,,,,,,,white,diamond
0.0,5.0,1.0,1.0,6.0,6.0,416.9659210001555,3.0,0.0,part_2,stop,350.0,450.0,3.0,,,,,,,,,blue,circle
0.0,1.0,1.0,0.0,5.0,5.0,515.6702849999419,3.0,0.0,part_2,go,350.0,400.0,1.0,,,,,,,,,magenta,I
0.0,5.0,1.0,1.0,6.0,6.0,487.3716739994052,3.0,0.0,part_2,stop,350.0,400.0,3.0,,,,,,,,,blue,circle
0.0,1.0,1.0,0.0,5.0,5.0,275.9437100003197,3.0,0.0,part_2,go,350.0,350.0,1.0,,,,,,,,,magenta,I
0.0,2.0,2.0,0.0,5.0,5.0,384.2402010004662,3.0,0.0,part_2,go,350.0,350.0,1.0,,,,,,,,,cyan,cross
0.0,2.0,2.0,0.0,5.0,5.0,710.9612009999182,3.0,0.0,part_2,go,350.0,350.0,1.0,,,,,,,,,cyan,cross
0.0,8.0,4.0,1.0,6.0,6.0,429.8848090002138,3.0,0.0,part_2,go,350.0,350.0,1.0,,,,,,,,,orange,square
0.0,5.0,1.0,1.0,5.0,5.0,383.3586800001285,3.0,0.0,part_2,stop,350.0,350.0,3.0,,,,,,,,,blue,circle
0.0,1.0,1.0,0.0,6.0,6.0,316.2509209996642,3.0,0.0,part_2,go,300.0,350.0,1.0,,,,,,,,,magenta,I
0.0,4.0,4.0,0.0,6.0,6.0,315.2779299998656,3.0,0.0,part_2,go,300.0,350.0,1.0,,,,,,,,,white,diamond
0.0,3.0,3.0,0.0,6.0,6.0,742.2155229996861,3.0,0.0,part_2,go,300.0,350.0,1.0,,,,,,,,,green,flipped triangle
0.0,3.0,3.0,0.0,5.0,5.0,814.0547259999948,3.0,0.0,part_2,go,300.0,350.0,1.0,,,,,,,,,green,flipped triangle
0.0,6.0,2.0,1.0,5.0,0.0,0.0,3.0,0.0,part_2,stop,300.0,350.0,4.0,,,,,,,,,yellow,triangle
0.0,2.0,2.0,0.0,6.0,6.0,1195.2777940005035,4.0,0.0,part_2,go,350.0,350.0,1.0,,,,,,,,,cyan,cross
0.0,1.0,1.0,0.0,5.0,5.0,264.2253249996429,4.0,0.0,part_2,go,350.0,350.0,1.0,,,,,,,,,magenta,I
0.0,5.0,1.0,1.0,6.0,0.0,0.0,4.0,0.0,part_2,stop,350.0,350.0,4.0,,,,,,,,,blue,circle
0.0,7.0,3.0,1.0,6.0,0.0,0.0,4.0,0.0,part_2,stop,350.0,400.0,4.0,,,,,,,,,gray,hexagon
0.0,7.0,3.0,1.0,6.0,0.0,0.0,4.0,0.0,part_2,stop,350.0,450.0,4.0,,,,,,,,,gray,hexagon
0.0,7.0,3.0,1.0,6.0,6.0,1040.8008049998898,4.0,0.0,part_2,go,350.0,500.0,1.0,,,,,,,,,gray,hexagon
0.0,2.0,2.0,0.0,5.0,5.0,676.9028180005989,4.0,0.0,part_2,go,350.0,500.0,1.0,,,,,,,,,cyan,cross
0.0,2.0,2.0,0.0,5.0,5.0,344.0170639996722,4.0,0.0,part_2,go,350.0,500.0,1.0,,,,,,,,,cyan,cross
0.0,2.0,2.0,0.0,5.0,5.0,276.6548050003621,4.0,0.0,part_2,go,350.0,500.0,1.0,,,,,,,,,cyan,cross
0.0,8.0,4.0,1.0,6.0,6.0,351.8191720004324,4.0,0.0,part_2,stop,350.0,500.0,3.0,,,,,,,,,orange,square
0.0,2.0,2.0,0.0,5.0,5.0,556.1074099996404,4.0,0.0,part_2,go,350.0,450.0,1.0,,,,,,,,,cyan,cross
0.0,6.0,2.0,1.0,6.0,6.0,260.3570360006415,4.0,0.0,part_2,stop,350.0,450.0,3.0,,,,,,,,,yellow,triangle
0.0,3.0,3.0,0.0,5.0,5.0,409.6636309996029,4.0,0.0,part_2,go,350.0,400.0,1.0,,,,,,,,,green,flipped triangle
0.0,3.0,3.0,0.0,6.0,6.0,247.5873560006221,4.0,0.0,part_2,go,350.0,400.0,1.0,,,,,,,,,green,flipped triangle
0.0,4.0,4.0,0.0,5.0,5.0,339.3465019998984,4.0,0.0,part_2,go,350.0,400.0,1.0,,,,,,,,,white,diamond
0.0,6.0,2.0,1.0,5.0,5.0,689.5232609995219,4.0,0.0,part_2,go,350.0,400.0,1.0,,,,,,,,,yellow,triangle
0.0,8.0,4.0,1.0,6.0,6.0,256.6513120000309,4.0,0.0,part_2,stop,350.0,400.0,3.0,,,,,,,,,orange,square
0.0,5.0,1.0,1.0,5.0,5.0,391.4165850001154,4.0,0.0,part_2,stop,350.0,350.0,3.0,,,,,,,,,blue,circle
0.0,1.0,1.0,0.0,5.0,5.0,635.7878890003121,4.0,0.0,part_2,go,300.0,350.0,1.0,,,,,,,,,magenta,I
0.0,5.0,1.0,1.0,6.0,6.0,281.8569769997339,4.0,0.0,part_2,stop,300.0,350.0,3.0,,,,,,,,,blue,circle
0.0,6.0,2.0,1.0,6.0,6.0,263.240281000435,4.0,0.0,part_2,go,300.0,300.0,1.0,,,,,,,,,yellow,triangle
0.0,1.0,1.0,0.0,6.0,6.0,306.6764290006176,4.0,0.0,part_2,go,300.0,300.0,1.0,,,,,,,,,magenta,I
0.0,3.0,3.0,0.0,5.0,5.0,312.0345090001137,4.0,0.0,part_2,go,300.0,300.0,1.0,,,,,,,,,green,flipped triangle
0.0,1.0,1.0,0.0,6.0,6.0,250.3534930001478,4.0,0.0,part_2,go,300.0,300.0,1.0,,,,,,,,,magenta,I
0.0,5.0,1.0,1.0,6.0,6.0,343.5996990001513,4.0,0.0,part_2,stop,300.0,300.0,3.0,,,,,,,,,blue,circle
0.0,6.0,2.0,1.0,5.0,5.0,383.9381579991823,4.0,0.0,part_2,stop,300.0,250.0,3.0,,,,,,,,,yellow,triangle
0.0,3.0,3.0,0.0,5.0,5.0,319.9344429995108,4.0,0.0,part_2,go,250.0,250.0,1.0,,,,,,,,,green,flipped triangle
0.0,3.0,3.0,0.0,6.0,6.0,320.5767700001161,4.0,0.0,part_2,go,250.0,250.0,1.0,,,,,,,,,green,flipped triangle
0.0,1.0,1.0,0.0,6.0,6.0,317.7282520000517,4.0,0.0,part_2,go,250.0,250.0,1.0,,,,,,,,,magenta,I
0.0,7.0,3.0,1.0,5.0,5.0,486.3258329996824,4.0,0.0,part_2,go,250.0,250.0,1.0,,,,,,,,,gray,hexagon
0.0,2.0,2.0,0.0,6.0,6.0,443.740610999157,4.0,0.0,part_2,go,250.0,250.0,1.0,,,,,,,,,cyan,cross
0.0,3.0,3.0,0.0,6.0,6.0,345.1473840004837,4.0,0.0,part_2,go,250.0,250.0,1.0,,,,,,,,,green,flipped triangle
0.0,6.0,2.0,1.0,6.0,6.0,492.957282000134,4.0,0.0,part_2,stop,250.0,250.0,3.0,,,,,,,,,yellow,triangle
0.0,8.0,4.0,1.0,6.0,6.0,376.4001389999976,4.0,0.0,part_2,stop,250.0,200.0,3.0,,,,,,,,,orange,square
0.0,1.0,1.0,0.0,5.0,5.0,365.3184699996927,4.0,0.0,part_2,go,250.0,150.0,1.0,,,,,,,,,magenta,I
0.0,5.0,1.0,1.0,6.0,6.0,526.0887879994698,4.0,0.0,part_2,go,250.0,150.0,1.0,,,,,,,,,blue,circle
0.0,7.0,3.0,1.0,6.0,0.0,0.0,5.0,0.0,part_2,stop,250.0,150.0,4.0,,,,,,,,,gray,hexagon
0.0,4.0,4.0,0.0,5.0,5.0,502.39012700058083,5.0,0.0,part_2,go,250.0,200.0,1.0,,,,,,,,,white,diamond
0.0,5.0,1.0,1.0,5.0,0.0,0.0,5.0,0.0,part_2,stop,250.0,200.0,4.0,,,,,,,,,blue,circle
0.0,8.0,4.0,1.0,5.0,5.0,347.4308989998462,5.0,0.0,part_2,stop,300.0,200.0,3.0,,,,,,,,,orange,square
0.0,7.0,3.0,1.0,6.0,0.0,0.0,5.0,0.0,part_2,stop,250.0,200.0,4.0,,,,,,,,,gray,hexagon
0.0,6.0,2.0,1.0,6.0,6.0,659.9222209997606,5.0,0.0,part_2,go,250.0,250.0,1.0,,,,,,,,,yellow,triangle
0.0,5.0,1.0,1.0,6.0,0.0,0.0,5.0,0.0,part_2,stop,250.0,250.0,4.0,,,,,,,,,blue,circle
0.0,6.0,2.0,1.0,6.0,0.0,0.0,5.0,0.0,part_2,stop,250.0,300.0,4.0,,,,,,,,,yellow,triangle
0.0,4.0,4.0,0.0,6.0,6.0,657.3143750001691,5.0,0.0,part_2,go,250.0,350.0,1.0,,,,,,,,,white,diamond
0.0,1.0,1.0,0.0,5.0,5.0,597.9230969996934,5.0,0.0,part_2,go,250.0,350.0,1.0,,,,,,,,,magenta,I
0.0,7.0,3.0,1.0,5.0,5.0,731.9663520001995,5.0,0.0,part_2,go,250.0,350.0,1.0,,,,,,,,,gray,hexagon
0.0,2.0,2.0,0.0,6.0,6.0,316.9809640003223,5.0,0.0,part_2,go,250.0,350.0,1.0,,,,,,,,,cyan,cross
0.0,7.0,3.0,1.0,6.0,6.0,422.132237000369,5.0,0.0,part_2,stop,250.0,350.0,3.0,,,,,,,,,gray,hexagon
0.0,6.0,2.0,1.0,5.0,5.0,757.3747209999055,5.0,0.0,part_2,stop,250.0,300.0,3.0,,,,,,,,,yellow,triangle
0.0,3.0,3.0,0.0,5.0,5.0,761.775433999901,5.0,0.0,part_2,go,200.0,300.0,1.0,,,,,,,,,green,flipped triangle
0.0,1.0,1.0,0.0,6.0,6.0,538.016305000383,5.0,0.0,part_2,go,200.0,300.0,1.0,,,,,,,,,magenta,I
0.0,7.0,3.0,1.0,6.0,0.0,0.0,5.0,0.0,part_2,stop,200.0,300.0,4.0,,,,,,,,,gray,hexagon
0.0,2.0,2.0,0.0,6.0,6.0,1335.4346810001516,5.0,0.0,part_2,go,200.0,350.0,1.0,,,,,,,,,cyan,cross
0.0,6.0,2.0,1.0,6.0,0.0,0.0,5.0,0.0,part_2,stop,200.0,350.0,4.0,,,,,,,,,yellow,triangle
0.0,4.0,4.0,0.0,6.0,0.0,0.0,5.0,0.0,part_2,go,200.0,400.0,5.0,,,,,,,,,white,diamond
0.0,4.0,4.0,0.0,6.0,6.0,421.1706379992392,5.0,0.0,part_2,go,200.0,400.0,1.0,,,,,,,,,white,diamond
0.0,8.0,4.0,1.0,6.0,6.0,347.5949549992947,5.0,0.0,part_2,stop,200.0,400.0,3.0,,,,,,,,,orange,square
0.0,7.0,3.0,1.0,6.0,6.0,506.9612219995179,5.0,0.0,part_2,stop,200.0,350.0,3.0,,,,,,,,,gray,hexagon
0.0,4.0,4.0,0.0,5.0,5.0,493.30420699971,5.0,0.0,part_2,go,200.0,300.0,1.0,,,,,,,,,white,diamond
0.0,5.0,1.0,1.0,5.0,5.0,497.7506330005781,5.0,0.0,part_2,go,200.0,300.0,1.0,,,,,,,,,blue,circle
0.0,2.0,2.0,0.0,6.0,6.0,365.1308979997338,5.0,0.0,part_2,go,200.0,300.0,1.0,,,,,,,,,cyan,cross
0.0,6.0,2.0,1.0,5.0,0.0,0.0,5.0,0.0,part_2,stop,200.0,300.0,4.0,,,,,,,,,yellow,triangle
0.0,2.0,2.0,0.0,6.0,6.0,337.691292999807,5.0,0.0,part_2,go,250.0,300.0,1.0,,,,,,,,,cyan,cross
0.0,2.0,2.0,0.0,6.0,6.0,460.531350000565,5.0,0.0,part_2,go,250.0,300.0,1.0,,,,,,,,,cyan,cross
0.0,4.0,4.0,0.0,6.0,6.0,746.436000000358,5.0,0.0,part_2,go,250.0,300.0,1.0,,,,,,,,,white,diamond
0.0,5.0,1.0,1.0,5.0,5.0,382.7642220003326,5.0,0.0,part_2,stop,250.0,300.0,3.0,,,,,,,,,blue,circle
0.0,6.0,2.0,1.0,6.0,6.0,218.9269489999787,5.0,0.0,part_2,stop,200.0,300.0,3.0,,,,,,,,,yellow,triangle
0.0,4.0,4.0,0.0,6.0,6.0,568.1277960002262,5.0,0.0,part_2,go,200.0,250.0,1.0,,,,,,,,,white,diamond
0.0,3.0,3.0,0.0,6.0,6.0,727.0998670001063,5.0,0.0,part_2,go,200.0,250.0,1.0,,,,,,,,,green,flipped triangle
0.0,4.0,4.0,0.0,5.0,5.0,410.9142910001537,5.0,0.0,part_2,go,200.0,250.0,1.0,,,,,,,,,white,diamond
0.0,5.0,1.0,1.0,6.0,6.0,526.8980800001373,5.0,0.0,part_2,go,200.0,250.0,1.0,,,,,,,,,blue,circle
0.0,7.0,3.0,1.0,5.0,0.0,0.0,6.0,0.0,part_2,stop,200.0,250.0,4.0,,,,,,,,,gray,hexagon
0.0,7.0,3.0,1.0,5.0,0.0,0.0,6.0,0.0,part_2,stop,250.0,250.0,4.0,,,,,,,,,gray,hexagon
0.0,2.0,2.0,0.0,6.0,6.0,286.3174929998422,6.0,0.0,part_2,go,300.0,250.0,1.0,,,,,,,,,cyan,cross
0.0,5.0,1.0,1.0,6.0,0.0,0.0,6.0,0.0,part_2,stop,300.0,250.0,4.0,,,,,,,,,blue,circle
0.0,3.0,3.0,0.0,6.0,6.0,488.8711730000068,6.0,0.0,part_2,go,300.0,300.0,1.0,,,,,,,,,green,flipped triangle
0.0,8.0,4.0,1.0,5.0,5.0,340.2181920000657,6.0,0.0,part_2,stop,300.0,300.0,3.0,,,,,,,,,orange,square
0.0,3.0,3.0,0.0,6.0,6.0,520.265040000595,6.0,0.0,part_2,go,250.0,300.0,1.0,,,,,,,,,green,flipped triangle
0.0,7.0,3.0,1.0,6.0,6.0,340.654168000583,6.0,0.0,part_2,stop,250.0,300.0,3.0,,,,,,,,,gray,hexagon
0.0,5.0,1.0,1.0,5.0,5.0,341.448180000043,6.0,0.0,part_2,stop,250.0,250.0,3.0,,,,,,,,,blue,circle
0.0,5.0,1.0,1.0,6.0,0.0,0.0,6.0,0.0,part_2,stop,200.0,250.0,4.0,,,,,,,,,blue,circle
0.0,3.0,3.0,0.0,5.0,5.0,439.5221670001774,6.0,0.0,part_2,go,200.0,300.0,1.0,,,,,,,,,green,flipped triangle
0.0,6.0,2.0,1.0,6.0,0.0,0.0,6.0,0.0,part_2,stop,200.0,300.0,4.0,,,,,,,,,yellow,triangle
0.0,3.0,3.0,0.0,5.0,5.0,399.5564699998795,6.0,0.0,part_2,go,200.0,350.0,1.0,,,,,,,,,green,flipped triangle
0.0,7.0,3.0,1.0,5.0,0.0,0.0,6.0,0.0,part_2,stop,200.0,350.0,4.0,,,,,,,,,gray,hexagon
0.0,2.0,2.0,0.0,6.0,6.0,955.9778870006994,6.0,0.0,part_2,go,250.0,350.0,1.0,,,,,,,,,cyan,cross
0.0,4.0,4.0,0.0,5.0,5.0,633.9903680000134,6.0,0.0,part_2,go,250.0,350.0,1.0,,,,,,,,,white,diamond
0.0,7.0,3.0,1.0,6.0,6.0,524.6301630004382,6.0,0.0,part_2,stop,250.0,350.0,3.0,,,,,,,,,gray,hexagon
0.0,4.0,4.0,0.0,5.0,5.0,285.4193739995025,6.0,0.0,part_2,go,250.0,300.0,1.0,,,,,,,,,white,diamond
0.0,3.0,3.0,0.0,6.0,6.0,592.8219509996779,6.0,0.0,part_2,go,250.0,300.0,1.0,,,,,,,,,green,flipped triangle
0.0,5.0,1.0,1.0,5.0,0.0,0.0,6.0,0.0,part_2,stop,250.0,300.0,4.0,,,,,,,,,blue,circle
0.0,2.0,2.0,0.0,5.0,5.0,349.4044410008428,6.0,0.0,part_2,go,300.0,300.0,1.0,,,,,,,,,cyan,cross
0.0,2.0,2.0,0.0,5.0,5.0,932.6206420000744,6.0,0.0,part_2,go,300.0,300.0,1.0,,,,,,,,,cyan,cross
0.0,6.0,2.0,1.0,5.0,5.0,593.7757570000031,6.0,0.0,part_2,go,300.0,300.0,1.0,,,,,,,,,yellow,triangle
0.0,6.0,2.0,1.0,5.0,0.0,0.0,6.0,0.0,part_2,stop,300.0,300.0,4.0,,,,,,,,,yellow,triangle
0.0,3.0,3.0,0.0,5.0,5.0,695.8434919997671,6.0,0.0,part_2,go,350.0,300.0,1.0,,,,,,,,,green,flipped triangle
0.0,6.0,2.0,1.0,6.0,0.0,0.0,6.0,0.0,part_2,stop,350.0,300.0,4.0,,,,,,,,,yellow,triangle
0.0,2.0,2.0,0.0,6.0,6.0,424.4060139999419,6.0,0.0,part_2,go,350.0,350.0,1.0,,,,,,,,,cyan,cross
0.0,7.0,3.0,1.0,6.0,6.0,1234.8562980005229,6.0,0.0,part_2,go,350.0,350.0,1.0,,,,,,,,,gray,hexagon
0.0,5.0,1.0,1.0,6.0,6.0,417.9492690000188,6.0,0.0,part_2,stop,350.0,350.0,3.0,,,,,,,,,blue,circle
0.0,4.0,4.0,0.0,5.0,5.0,421.9936879999295,6.0,0.0,part_2,go,350.0,300.0,1.0,,,,,,,,,white,diamond
0.0,6.0,2.0,1.0,6.0,6.0,649.1980340006194,6.0,0.0,part_2,go,350.0,300.0,1.0,,,,,,,,,yellow,triangle
0.0,7.0,3.0,1.0,5.0,5.0,463.8257420001537,6.0,0.0,part_2,stop,350.0,300.0,3.0,,,,,,,,,gray,hexagon
0.0,4.0,4.0,0.0,6.0,6.0,578.2008280002628,6.0,0.0,part_2,go,300.0,300.0,1.0,,,,,,,,,white,diamond
0.0,6.0,2.0,1.0,5.0,0.0,0.0,6.0,0.0,part_2,stop,300.0,300.0,4.0,,,,,,,,,yellow,triangle
0.0,5.0,1.0,1.0,5.0,5.0,363.8547689997722,6.0,0.0,part_2,go,350.0,300.0,1.0,,,,,,,,,blue,circle
0.0,1.0,1.0,0.0,5.0,5.0,541.11307400035,6.0,0.0,part_2,go,350.0,300.0,1.0,,,,,,,,,magenta,I
0.0,7.0,3.0,1.0,6.0,6.0,819.6968319998632,7.0,0.0,part_2,go,350.0,300.0,1.0,,,,,,,,,gray,hexagon
0.0,4.0,4.0,0.0,6.0,6.0,449.0868399998362,7.0,0.0,part_2,go,350.0,300.0,1.0,,,,,,,,,white,diamond
0.0,3.0,3.0,0.0,5.0,5.0,462.9725470003905,7.0,0.0,part_2,go,350.0,300.0,1.0,,,,,,,,,green,flipped triangle
0.0,2.0,2.0,0.0,5.0,5.0,352.2461789998488,7.0,0.0,part_2,go,350.0,300.0,1.0,,,,,,,,,cyan,cross
0.0,8.0,4.0,1.0,5.0,5.0,529.3286409996654,7.0,0.0,part_2,stop,350.0,300.0,3.0,,,,,,,,,orange,square
0.0,4.0,4.0,0.0,6.0,6.0,673.6108209997838,7.0,0.0,part_2,go,300.0,300.0,1.0,,,,,,,,,white,diamond
0.0,6.0,2.0,1.0,6.0,6.0,427.8521750002255,7.0,0.0,part_2,stop,300.0,300.0,3.0,,,,,,,,,yellow,triangle
0.0,6.0,2.0,1.0,5.0,0.0,0.0,7.0,0.0,part_2,stop,300.0,250.0,4.0,,,,,,,,,yellow,triangle
0.0,8.0,4.0,1.0,5.0,5.0,441.9624109996221,7.0,0.0,part_2,stop,350.0,250.0,3.0,,,,,,,,,orange,square
0.0,2.0,2.0,0.0,5.0,5.0,738.754826999866,7.0,0.0,part_2,go,300.0,250.0,1.0,,,,,,,,,cyan,cross
0.0,2.0,2.0,0.0,6.0,6.0,534.779537999384,7.0,0.0,part_2,go,300.0,250.0,1.0,,,,,,,,,cyan,cross
0.0,8.0,4.0,1.0,6.0,0.0,0.0,7.0,0.0,part_2,stop,300.0,250.0,4.0,,,,,,,,,orange,square
0.0,4.0,4.0,0.0,5.0,5.0,262.4127870003576,7.0,0.0,part_2,go,300.0,300.0,1.0,,,,,,,,,white,diamond
0.0,1.0,1.0,0.0,5.0,5.0,402.0844939996095,7.0,0.0,part_2,go,300.0,300.0,1.0,,,,,,,,,magenta,I
0.0,4.0,4.0,0.0,5.0,5.0,385.9043259999453,7.0,0.0,part_2,go,300.0,300.0,1.0,,,,,,,,,white,diamond
0.0,8.0,4.0,1.0,6.0,0.0,0.0,7.0,0.0,part_2,stop,300.0,300.0,4.0,,,,,,,,,orange,square
0.0,4.0,4.0,0.0,5.0,5.0,429.9271480003881,7.0,0.0,part_2,go,300.0,350.0,1.0,,,,,,,,,white,diamond
0.0,1.0,1.0,0.0,6.0,6.0,964.9093409998386,7.0,0.0,part_2,go,300.0,350.0,1.0,,,,,,,,,magenta,I
0.0,3.0,3.0,0.0,6.0,6.0,603.9154000000053,7.0,0.0,part_2,go,300.0,350.0,1.0,,,,,,,,,green,flipped triangle
0.0,2.0,2.0,0.0,6.0,6.0,422.2225029998299,7.0,0.0,part_2,go,300.0,350.0,1.0,,,,,,,,,cyan,cross
0.0,5.0,1.0,1.0,6.0,6.0,522.32057800029,7.0,0.0,part_2,stop,300.0,350.0,3.0,,,,,,,,,blue,circle
0.0,8.0,4.0,1.0,6.0,0.0,0.0,7.0,0.0,part_2,stop,300.0,300.0,4.0,,,,,,,,,orange,square
0.0,1.0,1.0,0.0,5.0,5.0,787.5577999993766,7.0,0.0,part_2,go,300.0,350.0,1.0,,,,,,,,,magenta,I
0.0,3.0,3.0,0.0,5.0,5.0,710.2539529996648,7.0,0.0,part_2,go,300.0,350.0,1.0,,,,,,,,,green,flipped triangle
0.0,3.0,3.0,0.0,5.0,5.0,945.2709819997837,7.0,0.0,part_2,go,300.0,350.0,1.0,,,,,,,,,green,flipped triangle
0.0,6.0,2.0,1.0,6.0,0.0,0.0,7.0,0.0,part_2,stop,300.0,350.0,4.0,,,,,,,,,yellow,triangle
0.0,6.0,2.0,1.0,5.0,5.0,359.665756999675,7.0,0.0,part_2,stop,300.0,400.0,3.0,,,,,,,,,yellow,triangle
0.0,8.0,4.0,1.0,6.0,0.0,0.0,7.0,0.0,part_2,stop,250.0,400.0,4.0,,,,,,,,,orange,square
0.0,4.0,4.0,0.0,5.0,5.0,704.8909510003796,7.0,0.0,part_2,go,250.0,450.0,1.0,,,,,,,,,white,diamond
0.0,8.0,4.0,1.0,5.0,5.0,442.0016849999229,7.0,0.0,part_2,go,250.0,450.0,1.0,,,,,,,,,orange,square
0.0,3.0,3.0,0.0,5.0,5.0,438.6817710001196,7.0,0.0,part_2,go,250.0,450.0,1.0,,,,,,,,,green,flipped triangle
0.0,2.0,2.0,0.0,5.0,5.0,547.6955080002881,7.0,0.0,part_2,go,250.0,450.0,1.0,,,,,,,,,cyan,cross
0.0,1.0,1.0,0.0,5.0,5.0,446.7290149996188,7.0,0.0,part_2,go,250.0,450.0,1.0,,,,,,,,,magenta,I
0.0,1.0,1.0,0.0,5.0,5.0,392.440407000322,7.0,0.0,part_2,go,250.0,450.0,1.0,,,,,,,,,magenta,I
0.0,4.0,4.0,0.0,6.0,6.0,710.0370179996389,7.0,0.0,part_2,go,250.0,450.0,1.0,,,,,,,,,white,diamond
0.0,8.0,4.0,1.0,5.0,0.0,0.0,7.0,0.0,part_2,stop,250.0,450.0,4.0,,,,,,,,,orange,square
0.0,2.0,2.0,0.0,5.0,5.0,803.5647460001201,8.0,0.0,part_2,go,300.0,450.0,1.0,,,,,,,,,cyan,cross
0.0,5.0,1.0,1.0,6.0,6.0,369.1924049999215,8.0,0.0,part_2,go,300.0,450.0,1.0,,,,,,,,,blue,circle
0.0,2.0,2.0,0.0,6.0,6.0,343.8448739998421,8.0,0.0,part_2,go,300.0,450.0,1.0,,,,,,,,,cyan,cross
0.0,6.0,2.0,1.0,5.0,5.0,423.1881870000507,8.0,0.0,part_2,stop,300.0,450.0,3.0,,,,,,,,,yellow,triangle
0.0,4.0,4.0,0.0,6.0,6.0,340.6361940005808,8.0,0.0,part_2,go,250.0,450.0,1.0,,,,,,,,,white,diamond
0.0,4.0,4.0,0.0,5.0,5.0,409.1159269992204,8.0,0.0,part_2,go,250.0,450.0,1.0,,,,,,,,,white,diamond
0.0,7.0,3.0,1.0,5.0,0.0,0.0,8.0,0.0,part_2,stop,250.0,450.0,4.0,,,,,,,,,gray,hexagon
0.0,4.0,4.0,0.0,5.0,5.0,552.1180239993555,8.0,0.0,part_2,go,300.0,450.0,1.0,,,,,,,,,white,diamond
0.0,5.0,1.0,1.0,5.0,0.0,0.0,8.0,0.0,part_2,stop,300.0,450.0,4.0,,,,,,,,,blue,circle
0.0,6.0,2.0,1.0,6.0,6.0,402.4844030000167,8.0,0.0,part_2,stop,350.0,450.0,3.0,,,,,,,,,yellow,triangle
0.0,7.0,3.0,1.0,5.0,0.0,0.0,8.0,0.0,part_2,stop,350.0,400.0,4.0,,,,,,,,,gray,hexagon
0.0,1.0,1.0,0.0,6.0,6.0,341.63332600019197,8.0,0.0,part_2,go,400.0,400.0,1.0,,,,,,,,,magenta,I
0.0,7.0,3.0,1.0,5.0,5.0,452.2962820001339,8.0,0.0,part_2,go,400.0,400.0,1.0,,,,,,,,,gray,hexagon
0.0,5.0,1.0,1.0,5.0,5.0,646.2698459999956,8.0,0.0,part_2,go,400.0,400.0,1.0,,,,,,,,,blue,circle
0.0,1.0,1.0,0.0,6.0,6.0,348.2759349999469,8.0,0.0,part_2,go,400.0,400.0,1.0,,,,,,,,,magenta,I
0.0,6.0,2.0,1.0,6.0,6.0,338.3219039997129,8.0,0.0,part_2,stop,400.0,400.0,3.0,,,,,,,,,yellow,triangle
0.0,3.0,3.0,0.0,5.0,5.0,362.8630740004155,8.0,0.0,part_2,go,400.0,350.0,1.0,,,,,,,,,green,flipped triangle
0.0,1.0,1.0,0.0,6.0,6.0,453.9811839995309,8.0,0.0,part_2,go,400.0,350.0,1.0,,,,,,,,,magenta,I
0.0,4.0,4.0,0.0,5.0,5.0,417.0660350000617,8.0,0.0,part_2,go,400.0,350.0,1.0,,,,,,,,,white,diamond
0.0,6.0,2.0,1.0,5.0,5.0,433.1538719998207,8.0,0.0,part_2,stop,400.0,350.0,3.0,,,,,,,,,yellow,triangle
0.0,8.0,4.0,1.0,5.0,5.0,381.15641100012,8.0,0.0,part_2,stop,350.0,350.0,3.0,,,,,,,,,orange,square
0.0,3.0,3.0,0.0,5.0,5.0,307.0433379998576,8.0,0.0,part_2,go,300.0,350.0,1.0,,,,,,,,,green,flipped triangle
0.0,4.0,4.0,0.0,6.0,6.0,608.1358960000216,8.0,0.0,part_2,go,300.0,350.0,1.0,,,,,,,,,white,diamond
0.0,8.0,4.0,1.0,5.0,5.0,372.9846520000137,8.0,0.0,part_2,stop,300.0,350.0,3.0,,,,,,,,,orange,square
0.0,2.0,2.0,0.0,6.0,6.0,272.9562149997946,8.0,0.0,part_2,go,250.0,350.0,1.0,,,,,,,,,cyan,cross
0.0,6.0,2.0,1.0,5.0,5.0,526.8810299994584,8.0,0.0,part_2,stop,250.0,350.0,3.0,,,,,,,,,yellow,triangle
0.0,3.0,3.0,0.0,6.0,6.0,350.3438980005739,8.0,0.0,part_2,go,200.0,350.0,1.0,,,,,,,,,green,flipped triangle
0.0,3.0,3.0,0.0,6.0,6.0,572.1780690000742,8.0,0.0,part_2,go,200.0,350.0,1.0,,,,,,,,,green,flipped triangle
0.0,3.0,3.0,0.0,6.0,6.0,612.5814940005512,8.0,0.0,part_2,go,200.0,350.0,1.0,,,,,,,,,green,flipped triangle
0.0,8.0,4.0,1.0,5.0,5.0,680.1104289997966,8.0,0.0,part_2,stop,200.0,350.0,3.0,,,,,,,,,orange,square
0.0,4.0,4.0,0.0,6.0,6.0,479.2205869998724,8.0,0.0,part_2,go,150.0,350.0,1.0,,,,,,,,,white,diamond
0.0,5.0,1.0,1.0,6.0,6.0,293.1328590002522,8.0,0.0,part_2,stop,150.0,350.0,3.0,,,,,,,,,blue,circle
0.0,4.0,4.0,0.0,5.0,5.0,339.945352999166,8.0,0.0,part_2,go,150.0,300.0,1.0,,,,,,,,,white,diamond
0.0,7.0,3.0,1.0,5.0,5.0,519.6895039998708,8.0,0.0,part_2,go,150.0,300.0,1.0,,,,,,,,,gray,hexagon
0.0,8.0,4.0,1.0,5.0,5.0,267.1624710001197,8.0,0.0,part_2,go,150.0,300.0,1.0,,,,,,,,,orange,square
0.0,6.0,2.0,1.0,6.0,6.0,414.8494669998399,8.0,0.0,part_2,stop,150.0,300.0,3.0,,,,,,,,,yellow,triangle
0.0,7.0,3.0,1.0,7.0,4.0,999.0692689998468,1.0,2.0,part_3,go,0.0,0.0,0.0,264.0,6.0,220.0,44.0,132.0,264.0,88.0,176.0,gray,hexagon
0.0,8.0,4.0,1.0,7.0,2.0,3337.1383779995085,1.0,1.0,part_3,go,0.0,0.0,0.0,264.0,6.0,88.0,264.0,132.0,220.0,176.0,44.0,orange,square
0.0,6.0,2.0,1.0,7.0,1.0,2066.082714000004,1.0,1.0,part_3,go,0.0,0.0,0.0,294.0,6.0,294.0,98.0,147.0,196.0,49.0,245.0,yellow,triangle
0.0,4.0,4.0,0.0,7.0,5.0,2623.9683870007866,1.0,1.0,part_3,go,0.0,0.0,0.0,108.0,2.0,324.0,54.0,216.0,270.0,108.0,162.0,white,diamond
0.0,2.0,2.0,0.0,7.0,2.0,1961.3231439998344,1.0,1.0,part_3,go,0.0,0.0,0.0,270.0,5.0,216.0,270.0,54.0,162.0,324.0,108.0,cyan,cross
0.0,5.0,1.0,1.0,7.0,4.0,1381.5310569998474,1.0,1.0,part_3,go,0.0,0.0,0.0,132.0,3.0,220.0,44.0,264.0,132.0,88.0,176.0,blue,circle
0.0,1.0,1.0,0.0,7.0,6.0,997.8049100000136,1.0,1.0,part_3,go,0.0,0.0,0.0,245.0,5.0,98.0,294.0,49.0,196.0,147.0,245.0,magenta,I
0.0,1.0,1.0,0.0,7.0,1.0,1477.5344330000737,1.0,1.0,part_3,go,0.0,0.0,0.0,234.0,6.0,234.0,156.0,39.0,195.0,78.0,117.0,magenta,I
0.0,6.0,2.0,1.0,7.0,2.0,1981.853612000123,1.0,1.0,part_3,go,0.0,0.0,0.0,204.0,6.0,136.0,204.0,68.0,102.0,170.0,34.0,yellow,triangle
0.0,7.0,3.0,1.0,7.0,2.0,990.518365000753,1.0,1.0,part_3,go,0.0,0.0,0.0,234.0,6.0,117.0,234.0,39.0,156.0,78.0,195.0,gray,hexagon
0.0,2.0,2.0,0.0,7.0,3.0,1690.871127999344,1.0,1.0,part_3,go,0.0,0.0,0.0,245.0,5.0,294.0,147.0,245.0,196.0,98.0,49.0,cyan,cross
0.0,2.0,2.0,0.0,7.0,1.0,1170.1344379998773,1.0,1.0,part_3,go,0.0,0.0,0.0,264.0,6.0,264.0,176.0,220.0,88.0,44.0,132.0,cyan,cross
0.0,4.0,4.0,0.0,7.0,5.0,1282.0676410001397,1.0,1.0,part_3,go,0.0,0.0,0.0,136.0,4.0,204.0,34.0,68.0,102.0,136.0,170.0,white,diamond
0.0,8.0,4.0,1.0,7.0,3.0,1390.184692999355,1.0,1.0,part_3,go,0.0,0.0,0.0,234.0,6.0,78.0,117.0,234.0,156.0,39.0,195.0,orange,square
0.0,2.0,2.0,0.0,7.0,5.0,619.6013019998645,1.0,1.0,part_3,go,0.0,0.0,0.0,234.0,6.0,39.0,156.0,195.0,78.0,234.0,117.0,cyan,cross
0.0,1.0,1.0,0.0,7.0,4.0,1822.3228100005144,1.0,1.0,part_3,go,0.0,0.0,0.0,102.0,3.0,136.0,170.0,34.0,102.0,204.0,68.0,magenta,I
0.0,4.0,4.0,0.0,7.0,4.0,614.5328099992184,1.0,1.0,part_3,go,0.0,0.0,0.0,245.0,5.0,49.0,147.0,98.0,245.0,294.0,196.0,white,diamond
0.0,6.0,2.0,1.0,7.0,5.0,866.2262569996528,1.0,1.0,part_3,go,0.0,0.0,0.0,220.0,5.0,264.0,176.0,88.0,132.0,220.0,44.0,yellow,triangle
0.0,5.0,1.0,1.0,7.0,5.0,755.4827169997225,1.0,1.0,part_3,go,0.0,0.0,0.0,147.0,3.0,98.0,294.0,245.0,49.0,147.0,196.0,blue,circle
0.0,1.0,1.0,0.0,7.0,5.0,1488.9566510000805,1.0,1.0,part_3,go,0.0,0.0,0.0,204.0,6.0,170.0,102.0,68.0,34.0,204.0,136.0,magenta,I
0.0,6.0,2.0,1.0,7.0,3.0,1368.4431609999592,2.0,1.0,part_3,go,0.0,0.0,0.0,294.0,6.0,49.0,196.0,294.0,147.0,98.0,245.0,yellow,triangle
0.0,2.0,2.0,0.0,7.0,4.0,775.6758970008377,2.0,1.0,part_3,go,0.0,0.0,0.0,204.0,6.0,34.0,102.0,170.0,204.0,68.0,136.0,cyan,cross
0.0,5.0,1.0,1.0,7.0,5.0,1220.5828369997107,2.0,1.0,part_3,go,0.0,0.0,0.0,117.0,3.0,78.0,39.0,195.0,234.0,117.0,156.0,blue,circle
0.0,4.0,4.0,0.0,7.0,4.0,639.8344260005615,2.0,1.0,part_3,go,0.0,0.0,0.0,195.0,5.0,117.0,234.0,78.0,195.0,39.0,156.0,white,diamond
0.0,1.0,1.0,0.0,7.0,5.0,1125.843361000079,2.0,1.0,part_3,go,0.0,0.0,0.0,216.0,4.0,324.0,162.0,270.0,108.0,216.0,54.0,magenta,I
0.0,1.0,1.0,0.0,7.0,5.0,767.5127769998653,2.0,1.0,part_3,go,0.0,0.0,0.0,264.0,6.0,44.0,88.0,176.0,220.0,264.0,132.0,magenta,I
0.0,6.0,2.0,1.0,7.0,5.0,842.8584209996188,2.0,1.0,part_3,go,0.0,0.0,0.0,132.0,3.0,220.0,176.0,264.0,88.0,132.0,44.0,yellow,triangle
0.0,8.0,4.0,1.0,7.0,5.0,999.9601919998896,2.0,1.0,part_3,go,0.0,0.0,0.0,34.0,1.0,170.0,102.0,204.0,136.0,34.0,68.0,orange,square
0.0,8.0,4.0,1.0,7.0,5.0,469.6351279999362,2.0,1.0,part_3,go,0.0,0.0,0.0,34.0,1.0,170.0,68.0,102.0,136.0,34.0,204.0,orange,square
0.0,8.0,4.0,1.0,7.0,2.0,798.7222699994163,2.0,1.0,part_3,go,0.0,0.0,0.0,49.0,1.0,196.0,49.0,147.0,98.0,294.0,245.0,orange,square
0.0,5.0,1.0,1.0,7.0,2.0,877.4243400002888,2.0,1.0,part_3,go,0.0,0.0,0.0,170.0,5.0,204.0,170.0,102.0,68.0,34.0,136.0,blue,circle
0.0,1.0,1.0,0.0,7.0,4.0,722.3603720003666,2.0,1.0,part_3,go,0.0,0.0,0.0,234.0,6.0,78.0,39.0,117.0,234.0,195.0,156.0,magenta,I
0.0,3.0,3.0,0.0,7.0,2.0,1321.4352380000491,2.0,1.0,part_3,go,0.0,0.0,0.0,34.0,1.0,170.0,34.0,204.0,136.0,102.0,68.0,green,flipped triangle
0.0,4.0,4.0,0.0,7.0,4.0,1227.3919480003317,2.0,1.0,part_3,go,0.0,0.0,0.0,156.0,4.0,117.0,195.0,39.0,156.0,78.0,234.0,white,diamond
0.0,7.0,3.0,1.0,7.0,1.0,696.6257200001564,2.0,1.0,part_3,go,0.0,0.0,0.0,220.0,5.0,220.0,132.0,176.0,264.0,44.0,88.0,gray,hexagon
0.0,7.0,3.0,1.0,7.0,2.0,863.4364250001454,2.0,1.0,part_3,go,0.0,0.0,0.0,216.0,4.0,324.0,216.0,108.0,54.0,162.0,270.0,gray,hexagon
0.0,4.0,4.0,0.0,7.0,2.0,1045.966964999934,2.0,1.0,part_3,go,0.0,0.0,0.0,220.0,5.0,44.0,220.0,88.0,176.0,132.0,264.0,white,diamond
0.0,1.0,1.0,0.0,7.0,6.0,739.3082250000589,2.0,1.0,part_3,go,0.0,0.0,0.0,264.0,6.0,220.0,44.0,132.0,176.0,88.0,264.0,magenta,I
0.0,8.0,4.0,1.0,7.0,1.0,1105.8663560006607,2.0,1.0,part_3,go,0.0,0.0,0.0,132.0,3.0,132.0,220.0,88.0,176.0,264.0,44.0,orange,square
0.0,4.0,4.0,0.0,7.0,1.0,996.085665999999,2.0,1.0,part_3,go,0.0,0.0,0.0,220.0,5.0,220.0,176.0,88.0,132.0,44.0,264.0,white,diamond
0.0,5.0,1.0,1.0,7.0,4.0,1794.96964900045,3.0,1.0,part_3,go,0.0,0.0,0.0,162.0,3.0,324.0,54.0,216.0,162.0,108.0,270.0,blue,circle
0.0,3.0,3.0,0.0,7.0,2.0,1073.8375569999334,3.0,1.0,part_3,go,0.0,0.0,0.0,264.0,6.0,220.0,264.0,44.0,132.0,176.0,88.0,green,flipped triangle
0.0,5.0,1.0,1.0,7.0,5.0,1132.7825180005675,3.0,1.0,part_3,go,0.0,0.0,0.0,170.0,5.0,102.0,136.0,68.0,204.0,170.0,34.0,blue,circle
0.0,5.0,1.0,1.0,7.0,5.0,580.6987070000105,3.0,1.0,part_3,go,0.0,0.0,0.0,88.0,2.0,220.0,44.0,132.0,264.0,88.0,176.0,blue,circle
0.0,3.0,3.0,0.0,7.0,2.0,597.5433100002192,3.0,1.0,part_3,go,0.0,0.0,0.0,147.0,3.0,49.0,147.0,196.0,245.0,294.0,98.0,green,flipped triangle
0.0,8.0,4.0,1.0,7.0,1.0,710.9074729996792,3.0,1.0,part_3,go,0.0,0.0,0.0,196.0,4.0,196.0,147.0,98.0,294.0,49.0,245.0,orange,square
0.0,7.0,3.0,1.0,7.0,2.0,275.6638739992922,3.0,1.0,part_3,go,0.0,0.0,0.0,204.0,6.0,68.0,204.0,136.0,34.0,102.0,170.0,gray,hexagon
0.0,3.0,3.0,0.0,7.0,2.0,984.3639400005486,3.0,1.0,part_3,go,0.0,0.0,0.0,234.0,6.0,39.0,234.0,195.0,78.0,156.0,117.0,green,flipped triangle
0.0,1.0,1.0,0.0,7.0,1.0,1000.6333210003504,3.0,1.0,part_3,go,0.0,0.0,0.0,294.0,6.0,294.0,147.0,49.0,98.0,196.0,245.0,magenta,I
0.0,7.0,3.0,1.0,7.0,2.0,962.8155620002872,3.0,1.0,part_3,go,0.0,0.0,0.0,245.0,5.0,147.0,245.0,98.0,294.0,49.0,196.0,gray,hexagon
0.0,8.0,4.0,1.0,7.0,1.0,888.8706610005102,3.0,1.0,part_3,go,0.0,0.0,0.0,54.0,1.0,54.0,324.0,270.0,216.0,162.0,108.0,orange,square
0.0,2.0,2.0,0.0,7.0,2.0,708.3371299995633,3.0,1.0,part_3,go,0.0,0.0,0.0,264.0,6.0,132.0,264.0,88.0,220.0,176.0,44.0,cyan,cross
0.0,8.0,4.0,1.0,7.0,2.0,503.3913159995791,3.0,1.0,part_3,go,0.0,0.0,0.0,117.0,3.0,195.0,117.0,39.0,234.0,156.0,78.0,orange,square
0.0,5.0,1.0,1.0,7.0,2.0,789.4927659999667,3.0,1.0,part_3,go,0.0,0.0,0.0,54.0,1.0,216.0,54.0,108.0,162.0,324.0,270.0,blue,circle
0.0,3.0,3.0,0.0,7.0,1.0,707.9509800005326,3.0,1.0,part_3,go,0.0,0.0,0.0,220.0,5.0,220.0,132.0,176.0,88.0,44.0,264.0,green,flipped triangle
0.0,1.0,1.0,0.0,7.0,2.0,1012.9385800000821,3.0,1.0,part_3,go,0.0,0.0,0.0,162.0,3.0,324.0,162.0,270.0,108.0,216.0,54.0,magenta,I
0.0,3.0,3.0,0.0,7.0,2.0,939.9423329996353,3.0,1.0,part_3,go,0.0,0.0,0.0,54.0,1.0,162.0,54.0,324.0,270.0,108.0,216.0,green,flipped triangle
0.0,7.0,3.0,1.0,7.0,3.0,363.1715540004734,3.0,1.0,part_3,go,0.0,0.0,0.0,162.0,3.0,270.0,54.0,162.0,108.0,324.0,216.0,gray,hexagon
0.0,7.0,3.0,1.0,7.0,1.0,509.820168999795,3.0,1.0,part_3,go,0.0,0.0,0.0,117.0,3.0,117.0,156.0,39.0,195.0,234.0,78.0,gray,hexagon
0.0,2.0,2.0,0.0,7.0,2.0,1196.840605000034,3.0,1.0,part_3,go,0.0,0.0,0.0,324.0,6.0,216.0,324.0,108.0,162.0,54.0,270.0,cyan,cross
0.0,3.0,3.0,0.0,7.0,1.0,289.0994389999832,4.0,1.0,part_3,go,0.0,0.0,0.0,204.0,6.0,204.0,68.0,102.0,34.0,136.0,170.0,green,flipped triangle
0.0,3.0,3.0,0.0,7.0,2.0,288.8076529998216,4.0,1.0,part_3,go,0.0,0.0,0.0,108.0,2.0,54.0,108.0,324.0,162.0,270.0,216.0,green,flipped triangle
0.0,7.0,3.0,1.0,7.0,6.0,360.7738099999551,4.0,1.0,part_3,go,0.0,0.0,0.0,147.0,3.0,294.0,49.0,245.0,98.0,196.0,147.0,gray,hexagon
0.0,6.0,2.0,1.0,7.0,6.0,509.96065599974827,4.0,1.0,part_3,go,0.0,0.0,0.0,54.0,1.0,108.0,162.0,270.0,216.0,324.0,54.0,yellow,triangle
0.0,4.0,4.0,0.0,7.0,5.0,263.758904999122,4.0,1.0,part_3,go,0.0,0.0,0.0,54.0,1.0,216.0,270.0,108.0,162.0,54.0,324.0,white,diamond
0.0,2.0,2.0,0.0,7.0,2.0,302.7172809997864,4.0,1.0,part_3,go,0.0,0.0,0.0,294.0,6.0,49.0,294.0,98.0,147.0,245.0,196.0,cyan,cross
0.0,6.0,2.0,1.0,7.0,3.0,154.6002840004803,4.0,1.0,part_3,go,0.0,0.0,0.0,136.0,4.0,34.0,102.0,136.0,68.0,204.0,170.0,yellow,triangle
0.0,6.0,2.0,1.0,7.0,6.0,163.11388000031,4.0,1.0,part_3,go,0.0,0.0,0.0,117.0,3.0,78.0,234.0,39.0,195.0,156.0,117.0,yellow,triangle
0.0,6.0,2.0,1.0,7.0,2.0,262.453342000299,4.0,1.0,part_3,go,0.0,0.0,0.0,216.0,4.0,162.0,216.0,54.0,270.0,324.0,108.0,yellow,triangle
0.0,3.0,3.0,0.0,7.0,4.0,8.2675300000119,4.0,1.0,part_3,go,0.0,0.0,0.0,78.0,2.0,156.0,234.0,195.0,78.0,39.0,117.0,green,flipped triangle
0.0,5.0,1.0,1.0,7.0,3.0,29.2869289996815,4.0,1.0,part_3,go,0.0,0.0,0.0,49.0,1.0,294.0,196.0,49.0,245.0,98.0,147.0,blue,circle
0.0,7.0,3.0,1.0,7.0,1.0,245.2342249998764,4.0,1.0,part_3,go,0.0,0.0,0.0,170.0,5.0,170.0,136.0,102.0,204.0,68.0,34.0,gray,hexagon
0.0,2.0,2.0,0.0,7.0,1.0,273.9056779992097,4.0,1.0,part_3,go,0.0,0.0,0.0,156.0,4.0,156.0,39.0,195.0,234.0,117.0,78.0,cyan,cross
0.0,8.0,4.0,1.0,7.0,6.0,0.3280430000813,4.0,1.0,part_3,go,0.0,0.0,0.0,324.0,6.0,270.0,216.0,162.0,54.0,108.0,324.0,orange,square
0.0,5.0,1.0,1.0,7.0,1.0,262.58394999968,4.0,1.0,part_3,go,0.0,0.0,0.0,156.0,4.0,156.0,195.0,39.0,78.0,117.0,234.0,blue,circle
0.0,2.0,2.0,0.0,7.0,1.0,324.6535660000518,4.0,1.0,part_3,go,0.0,0.0,0.0,34.0,1.0,34.0,136.0,68.0,102.0,204.0,170.0,cyan,cross
0.0,4.0,4.0,0.0,7.0,1.0,881.3360379999722,4.0,1.0,part_3,go,0.0,0.0,0.0,245.0,5.0,245.0,196.0,147.0,49.0,98.0,294.0,white,diamond
0.0,4.0,4.0,0.0,7.0,6.0,693.5494989993458,4.0,1.0,part_3,go,0.0,0.0,0.0,136.0,4.0,204.0,68.0,170.0,34.0,102.0,136.0,white,diamond
0.0,6.0,2.0,1.0,7.0,1.0,31.657880000238897,4.0,1.0,part_3,go,0.0,0.0,0.0,195.0,5.0,195.0,39.0,78.0,234.0,156.0,117.0,yellow,triangle
0.0,3.0,3.0,0.0,7.0,6.0,293.6831389997678,4.0,1.0,part_3,go,0.0,0.0,0.0,294.0,6.0,196.0,147.0,98.0,245.0,49.0,294.0,green,flipped triangle
