raw_reward_magnitude,stim_reward,stepwise_reward_magnitude,paired_with_stopping,quadrant,response,reaction_time,block,num_trial_presentations,which_part,stop_signal_trial_type,left_SSD,right_SSD,accuracy,chosen_bidding_amount,chosen_bidding_level,possible_bid_1,possible_bid_2,possible_bid_3,possible_bid_4,possible_bid_5,possible_bid_6,color_text,shape_text
421.0,8.0,4.0,1.0,3.0,3.0,403.5627690000183,1.0,1.0,part_1,,,,,,,,,,,,,gray,hexagon
109.0,6.0,2.0,1.0,4.0,4.0,293.7691089991858,1.0,1.0,part_1,,,,,,,,,,,,,blue,triangle
111.0,6.0,2.0,1.0,3.0,3.0,382.0753469999545,1.0,1.0,part_1,,,,,,,,,,,,,blue,triangle
60.0,5.0,1.0,1.0,2.0,2.0,291.3248029999522,1.0,1.0,part_1,,,,,,,,,,,,,green,flipped triangle
177.0,3.0,3.0,0.0,3.0,3.0,336.877480000112,1.0,1.0,part_1,,,,,,,,,,,,,cyan,I
87.0,6.0,2.0,1.0,1.0,1.0,322.6931979997971,1.0,1.0,part_1,,,,,,,,,,,,,blue,triangle
400.0,8.0,4.0,1.0,3.0,3.0,313.6570039996513,1.0,1.0,part_1,,,,,,,,,,,,,gray,hexagon
42.0,1.0,1.0,0.0,2.0,2.0,288.694908999787,1.0,1.0,part_1,,,,,,,,,,,,,orange,diamond
191.0,3.0,3.0,0.0,2.0,2.0,361.3743859996248,1.0,1.0,part_1,,,,,,,,,,,,,cyan,I
210.0,3.0,3.0,0.0,1.0,1.0,349.5757900000171,1.0,1.0,part_1,,,,,,,,,,,,,cyan,I
104.0,2.0,2.0,0.0,1.0,1.0,336.594609999338,1.0,1.0,part_1,,,,,,,,,,,,,yellow,cross
391.0,4.0,4.0,0.0,1.0,1.0,341.1240360001102,1.0,1.0,part_1,,,,,,,,,,,,,magenta,circle
0.0,3.0,0.0,0.0,4.0,4.0,382.9224920000342,1.0,1.0,part_1,,,,,,,,,,,,,cyan,I
390.0,4.0,4.0,0.0,1.0,1.0,317.6890410004489,1.0,1.0,part_1,,,,,,,,,,,,,magenta,circle
33.0,5.0,1.0,1.0,3.0,3.0,324.3556620000163,1.0,1.0,part_1,,,,,,,,,,,,,green,flipped triangle
115.0,2.0,2.0,0.0,2.0,2.0,309.2205470002227,1.0,1.0,part_1,,,,,,,,,,,,,yellow,cross
54.0,5.0,1.0,1.0,4.0,4.0,229.5004099996731,1.0,1.0,part_1,,,,,,,,,,,,,green,flipped triangle
33.0,1.0,1.0,0.0,1.0,1.0,369.7997080007553,1.0,1.0,part_1,,,,,,,,,,,,,orange,diamond
380.0,4.0,4.0,0.0,1.0,1.0,354.1653689999293,1.0,1.0,part_1,,,,,,,,,,,,,magenta,circle
0.0,7.0,0.0,1.0,3.0,3.0,320.9244210001998,1.0,1.0,part_1,,,,,,,,,,,,,white,square
77.0,2.0,2.0,0.0,3.0,3.0,312.4396509992948,1.0,1.0,part_1,,,,,,,,,,,,,yellow,cross
0.0,7.0,0.0,1.0,2.0,2.0,320.2062780001142,1.0,1.0,part_1,,,,,,,,,,,,,white,square
125.0,6.0,2.0,1.0,3.0,3.0,320.8854009999413,1.0,1.0,part_1,,,,,,,,,,,,,blue,triangle
51.0,1.0,1.0,0.0,3.0,3.0,308.7691390001055,1.0,1.0,part_1,,,,,,,,,,,,,orange,diamond
52.0,1.0,1.0,0.0,1.0,1.0,335.0779279999187,1.0,2.0,part_1,,,,,,,,,,,,,orange,diamond
0.0,6.0,0.0,1.0,1.0,1.0,389.2319639999186,1.0,1.0,part_1,,,,,,,,,,,,,blue,triangle
46.0,1.0,1.0,0.0,4.0,4.0,369.8933810001108,1.0,1.0,part_1,,,,,,,,,,,,,orange,diamond
415.0,4.0,4.0,0.0,4.0,4.0,337.5462489993879,1.0,1.0,part_1,,,,,,,,,,,,,magenta,circle
220.0,7.0,3.0,1.0,1.0,1.0,448.6319349998666,1.0,1.0,part_1,,,,,,,,,,,,,white,square
110.0,6.0,2.0,1.0,2.0,2.0,325.3038089997062,1.0,1.0,part_1,,,,,,,,,,,,,blue,triangle
87.0,2.0,2.0,0.0,1.0,1.0,468.8094590001128,1.0,1.0,part_1,,,,,,,,,,,,,yellow,cross
381.0,8.0,4.0,1.0,3.0,3.0,380.7553380001991,1.0,1.0,part_1,,,,,,,,,,,,,gray,hexagon
199.0,7.0,3.0,1.0,1.0,1.0,347.0946639999965,1.0,1.0,part_1,,,,,,,,,,,,,white,square
47.0,5.0,1.0,1.0,1.0,1.0,352.6336420000007,1.0,1.0,part_1,,,,,,,,,,,,,green,flipped triangle
197.0,3.0,3.0,0.0,2.0,2.0,348.4670110001389,1.0,1.0,part_1,,,,,,,,,,,,,cyan,I
197.0,7.0,3.0,1.0,3.0,3.0,320.5193069998131,1.0,1.0,part_1,,,,,,,,,,,,,white,square
0.0,2.0,0.0,0.0,2.0,2.0,321.7766030002167,1.0,1.0,part_1,,,,,,,,,,,,,yellow,cross
387.0,4.0,4.0,0.0,2.0,2.0,386.7546749997927,1.0,1.0,part_1,,,,,,,,,,,,,magenta,circle
66.0,5.0,1.0,1.0,3.0,3.0,313.1086040002628,1.0,1.0,part_1,,,,,,,,,,,,,green,flipped triangle
410.0,8.0,4.0,1.0,3.0,3.0,417.0202139994217,1.0,1.0,part_1,,,,,,,,,,,,,gray,hexagon
0.0,8.0,0.0,1.0,2.0,2.0,341.1581260006642,1.0,1.0,part_1,,,,,,,,,,,,,gray,hexagon
0.0,1.0,0.0,0.0,1.0,1.0,343.5852929997054,1.0,1.0,part_1,,,,,,,,,,,,,orange,diamond
381.0,4.0,4.0,0.0,3.0,3.0,392.7472619998298,1.0,1.0,part_1,,,,,,,,,,,,,magenta,circle
421.0,4.0,4.0,0.0,3.0,3.0,306.8610519994763,1.0,1.0,part_1,,,,,,,,,,,,,magenta,circle
112.0,2.0,2.0,0.0,2.0,2.0,283.9556169992647,1.0,1.0,part_1,,,,,,,,,,,,,yellow,cross
177.0,7.0,3.0,1.0,3.0,3.0,362.4154300005102,1.0,1.0,part_1,,,,,,,,,,,,,white,square
58.0,1.0,1.0,0.0,2.0,2.0,274.3522639993898,1.0,1.0,part_1,,,,,,,,,,,,,orange,diamond
108.0,2.0,2.0,0.0,1.0,1.0,506.799294999837,1.0,2.0,part_1,,,,,,,,,,,,,yellow,cross
409.0,4.0,4.0,0.0,4.0,4.0,293.3314089996202,1.0,1.0,part_1,,,,,,,,,,,,,magenta,circle
26.0,5.0,1.0,1.0,3.0,3.0,330.1984330000778,1.0,1.0,part_1,,,,,,,,,,,,,green,flipped triangle
397.0,4.0,4.0,0.0,1.0,1.0,467.8674899996622,1.0,1.0,part_1,,,,,,,,,,,,,magenta,circle
413.0,4.0,4.0,0.0,2.0,2.0,417.5265019994185,1.0,1.0,part_1,,,,,,,,,,,,,magenta,circle
26.0,1.0,1.0,0.0,3.0,3.0,306.8806069995844,1.0,1.0,part_1,,,,,,,,,,,,,orange,diamond
424.0,4.0,4.0,0.0,2.0,2.0,347.3360119996869,1.0,1.0,part_1,,,,,,,,,,,,,magenta,circle
0.0,6.0,0.0,1.0,3.0,3.0,334.051294999881,1.0,1.0,part_1,,,,,,,,,,,,,blue,triangle
0.0,7.0,0.0,1.0,2.0,2.0,312.5711170005161,1.0,1.0,part_1,,,,,,,,,,,,,white,square
103.0,6.0,2.0,1.0,4.0,4.0,293.2954520001658,1.0,1.0,part_1,,,,,,,,,,,,,blue,triangle
0.0,5.0,0.0,1.0,1.0,1.0,266.0371009997107,1.0,1.0,part_1,,,,,,,,,,,,,green,flipped triangle
111.0,2.0,2.0,0.0,4.0,4.0,526.3692369999262,1.0,1.0,part_1,,,,,,,,,,,,,yellow,cross
183.0,3.0,3.0,0.0,3.0,3.0,400.699603999783,1.0,1.0,part_1,,,,,,,,,,,,,cyan,I
224.0,7.0,3.0,1.0,4.0,4.0,428.9195549999931,1.0,1.0,part_1,,,,,,,,,,,,,white,square
214.0,7.0,3.0,1.0,2.0,2.0,334.0409000002182,1.0,1.0,part_1,,,,,,,,,,,,,white,square
85.0,2.0,2.0,0.0,1.0,1.0,619.6579859997655,1.0,1.0,part_1,,,,,,,,,,,,,yellow,cross
424.0,8.0,4.0,1.0,2.0,2.0,432.7597060000698,1.0,1.0,part_1,,,,,,,,,,,,,gray,hexagon
221.0,7.0,3.0,1.0,3.0,3.0,318.6653469992961,1.0,1.0,part_1,,,,,,,,,,,,,white,square
0.0,6.0,0.0,1.0,2.0,2.0,355.0086189998183,1.0,1.0,part_1,,,,,,,,,,,,,blue,triangle
56.0,5.0,1.0,1.0,3.0,3.0,432.0024359994932,1.0,1.0,part_1,,,,,,,,,,,,,green,flipped triangle
193.0,7.0,3.0,1.0,1.0,1.0,473.7418949998755,1.0,1.0,part_1,,,,,,,,,,,,,white,square
406.0,4.0,4.0,0.0,3.0,3.0,423.136710000108,1.0,1.0,part_1,,,,,,,,,,,,,magenta,circle
83.0,2.0,2.0,0.0,3.0,3.0,359.9538839998786,1.0,1.0,part_1,,,,,,,,,,,,,yellow,cross
0.0,5.0,0.0,1.0,2.0,2.0,270.2767180007868,1.0,1.0,part_1,,,,,,,,,,,,,green,flipped triangle
424.0,4.0,4.0,0.0,4.0,4.0,289.5320039997386,1.0,1.0,part_1,,,,,,,,,,,,,magenta,circle
42.0,5.0,1.0,1.0,1.0,1.0,282.4801910001042,1.0,1.0,part_1,,,,,,,,,,,,,green,flipped triangle
84.0,6.0,2.0,1.0,3.0,3.0,268.7524950006263,1.0,1.0,part_1,,,,,,,,,,,,,blue,triangle
390.0,8.0,4.0,1.0,4.0,4.0,414.4627320001746,1.0,1.0,part_1,,,,,,,,,,,,,gray,hexagon
377.0,8.0,4.0,1.0,1.0,1.0,383.4929829999964,1.0,1.0,part_1,,,,,,,,,,,,,gray,hexagon
219.0,3.0,3.0,0.0,3.0,3.0,413.9164200005325,1.0,1.0,part_1,,,,,,,,,,,,,cyan,I
122.0,2.0,2.0,0.0,4.0,4.0,396.0752550001416,1.0,1.0,part_1,,,,,,,,,,,,,yellow,cross
0.0,2.0,0.0,0.0,4.0,4.0,328.3483149998574,1.0,1.0,part_1,,,,,,,,,,,,,yellow,cross
26.0,5.0,1.0,1.0,1.0,1.0,525.0160679997862,1.0,1.0,part_1,,,,,,,,,,,,,green,flipped triangle
205.0,3.0,3.0,0.0,1.0,1.0,369.5054079998954,1.0,1.0,part_1,,,,,,,,,,,,,cyan,I
204.0,3.0,3.0,0.0,2.0,2.0,345.6841340002938,1.0,1.0,part_1,,,,,,,,,,,,,cyan,I
0.0,4.0,0.0,0.0,2.0,2.0,330.561120999846,1.0,1.0,part_1,,,,,,,,,,,,,magenta,circle
41.0,5.0,1.0,1.0,2.0,2.0,324.141695000435,1.0,1.0,part_1,,,,,,,,,,,,,green,flipped triangle
32.0,1.0,1.0,0.0,4.0,4.0,304.8427220001031,1.0,1.0,part_1,,,,,,,,,,,,,orange,diamond
73.0,1.0,1.0,0.0,3.0,3.0,389.7018339994247,1.0,1.0,part_1,,,,,,,,,,,,,orange,diamond
33.0,1.0,1.0,0.0,2.0,2.0,330.3116940005566,1.0,1.0,part_1,,,,,,,,,,,,,orange,diamond
0.0,6.0,0.0,1.0,4.0,4.0,343.7337049999769,1.0,1.0,part_1,,,,,,,,,,,,,blue,triangle
377.0,4.0,4.0,0.0,4.0,4.0,435.9695820003253,1.0,1.0,part_1,,,,,,,,,,,,,magenta,circle
0.0,5.0,0.0,1.0,3.0,3.0,463.2773399998768,1.0,1.0,part_1,,,,,,,,,,,,,green,flipped triangle
0.0,8.0,0.0,1.0,1.0,1.0,527.1365460002926,1.0,1.0,part_1,,,,,,,,,,,,,gray,hexagon
385.0,4.0,4.0,0.0,3.0,3.0,292.5761099995725,1.0,1.0,part_1,,,,,,,,,,,,,magenta,circle
222.0,7.0,3.0,1.0,1.0,1.0,284.3743490002453,1.0,1.0,part_1,,,,,,,,,,,,,white,square
56.0,5.0,1.0,1.0,4.0,4.0,257.0720049998272,1.0,1.0,part_1,,,,,,,,,,,,,green,flipped triangle
0.0,4.0,0.0,0.0,2.0,2.0,275.1715069998681,1.0,1.0,part_1,,,,,,,,,,,,,magenta,circle
0.0,3.0,0.0,0.0,4.0,4.0,294.7617439995156,1.0,1.0,part_1,,,,,,,,,,,,,cyan,I
0.0,5.0,0.0,1.0,4.0,4.0,415.7353150003473,1.0,1.0,part_1,,,,,,,,,,,,,green,flipped triangle
0.0,3.0,0.0,0.0,2.0,2.0,331.2544700002036,1.0,1.0,part_1,,,,,,,,,,,,,cyan,I
0.0,2.0,0.0,0.0,2.0,2.0,395.0104759996975,1.0,1.0,part_1,,,,,,,,,,,,,yellow,cross
54.0,5.0,1.0,1.0,3.0,3.0,264.4594499997765,1.0,1.0,part_1,,,,,,,,,,,,,green,flipped triangle
110.0,2.0,2.0,0.0,1.0,1.0,354.3515889996342,2.0,1.0,part_1,,,,,,,,,,,,,yellow,cross
399.0,8.0,4.0,1.0,4.0,4.0,280.4975050003122,2.0,1.0,part_1,,,,,,,,,,,,,gray,hexagon
71.0,1.0,1.0,0.0,3.0,3.0,290.5471320000288,2.0,1.0,part_1,,,,,,,,,,,,,orange,diamond
0.0,1.0,0.0,0.0,4.0,4.0,391.6062710004553,2.0,1.0,part_1,,,,,,,,,,,,,orange,diamond
0.0,4.0,0.0,0.0,4.0,4.0,336.4473569999973,2.0,1.0,part_1,,,,,,,,,,,,,magenta,circle
423.0,8.0,4.0,1.0,1.0,1.0,439.1780109999672,2.0,1.0,part_1,,,,,,,,,,,,,gray,hexagon
66.0,1.0,1.0,0.0,4.0,4.0,325.4656899998736,2.0,1.0,part_1,,,,,,,,,,,,,orange,diamond
0.0,6.0,0.0,1.0,1.0,1.0,338.8940519998868,2.0,1.0,part_1,,,,,,,,,,,,,blue,triangle
421.0,4.0,4.0,0.0,4.0,4.0,326.7991359998632,2.0,1.0,part_1,,,,,,,,,,,,,magenta,circle
79.0,2.0,2.0,0.0,2.0,2.0,307.3031110006923,2.0,1.0,part_1,,,,,,,,,,,,,yellow,cross
115.0,6.0,2.0,1.0,3.0,3.0,321.6157369997745,2.0,1.0,part_1,,,,,,,,,,,,,blue,triangle
39.0,5.0,1.0,1.0,2.0,2.0,418.4783430000607,2.0,1.0,part_1,,,,,,,,,,,,,green,flipped triangle
0.0,7.0,0.0,1.0,2.0,2.0,339.1647929993269,2.0,1.0,part_1,,,,,,,,,,,,,white,square
384.0,4.0,4.0,0.0,3.0,3.0,368.4820630005561,2.0,1.0,part_1,,,,,,,,,,,,,magenta,circle
77.0,6.0,2.0,1.0,2.0,2.0,329.5947160004289,2.0,1.0,part_1,,,,,,,,,,,,,blue,triangle
83.0,6.0,2.0,1.0,1.0,1.0,339.7612850003497,2.0,1.0,part_1,,,,,,,,,,,,,blue,triangle
201.0,7.0,3.0,1.0,3.0,3.0,332.3804840001685,2.0,1.0,part_1,,,,,,,,,,,,,white,square
206.0,7.0,3.0,1.0,2.0,2.0,373.3773899994048,2.0,1.0,part_1,,,,,,,,,,,,,white,square
0.0,3.0,0.0,0.0,4.0,4.0,351.9313760007208,2.0,1.0,part_1,,,,,,,,,,,,,cyan,I
54.0,1.0,1.0,0.0,2.0,2.0,333.7961510005698,2.0,1.0,part_1,,,,,,,,,,,,,orange,diamond
89.0,2.0,2.0,0.0,3.0,3.0,313.6425080001572,2.0,1.0,part_1,,,,,,,,,,,,,yellow,cross
63.0,5.0,1.0,1.0,3.0,3.0,358.0890240000371,2.0,1.0,part_1,,,,,,,,,,,,,green,flipped triangle
115.0,6.0,2.0,1.0,4.0,4.0,366.4802479997888,2.0,1.0,part_1,,,,,,,,,,,,,blue,triangle
393.0,4.0,4.0,0.0,3.0,3.0,320.7916100000147,2.0,1.0,part_1,,,,,,,,,,,,,magenta,circle
219.0,7.0,3.0,1.0,1.0,1.0,314.4841860002998,2.0,1.0,part_1,,,,,,,,,,,,,white,square
0.0,4.0,0.0,0.0,4.0,4.0,311.9855750001079,2.0,1.0,part_1,,,,,,,,,,,,,magenta,circle
0.0,1.0,0.0,0.0,3.0,3.0,350.9346509999886,2.0,1.0,part_1,,,,,,,,,,,,,orange,diamond
0.0,5.0,0.0,1.0,4.0,4.0,298.4226069993383,2.0,1.0,part_1,,,,,,,,,,,,,green,flipped triangle
63.0,5.0,1.0,1.0,3.0,3.0,298.4266829998887,2.0,1.0,part_1,,,,,,,,,,,,,green,flipped triangle
59.0,5.0,1.0,1.0,1.0,1.0,376.4276789997893,2.0,2.0,part_1,,,,,,,,,,,,,green,flipped triangle
120.0,6.0,2.0,1.0,2.0,2.0,376.7966329996852,2.0,1.0,part_1,,,,,,,,,,,,,blue,triangle
376.0,4.0,4.0,0.0,1.0,1.0,352.669283999603,2.0,1.0,part_1,,,,,,,,,,,,,magenta,circle
220.0,3.0,3.0,0.0,4.0,4.0,343.9684949998991,2.0,1.0,part_1,,,,,,,,,,,,,cyan,I
418.0,8.0,4.0,1.0,4.0,4.0,359.3235919997823,2.0,1.0,part_1,,,,,,,,,,,,,gray,hexagon
409.0,4.0,4.0,0.0,2.0,2.0,329.2982889997802,2.0,1.0,part_1,,,,,,,,,,,,,magenta,circle
63.0,1.0,1.0,0.0,1.0,1.0,261.5828279995185,2.0,1.0,part_1,,,,,,,,,,,,,orange,diamond
178.0,7.0,3.0,1.0,1.0,1.0,310.3472370003146,2.0,1.0,part_1,,,,,,,,,,,,,white,square
108.0,2.0,2.0,0.0,2.0,2.0,412.4374829998487,2.0,1.0,part_1,,,,,,,,,,,,,yellow,cross
380.0,8.0,4.0,1.0,2.0,2.0,338.1040889998985,2.0,1.0,part_1,,,,,,,,,,,,,gray,hexagon
197.0,3.0,3.0,0.0,3.0,3.0,321.3254999991477,2.0,1.0,part_1,,,,,,,,,,,,,cyan,I
0.0,4.0,0.0,0.0,4.0,4.0,280.5286419998083,2.0,1.0,part_1,,,,,,,,,,,,,magenta,circle
419.0,4.0,4.0,0.0,2.0,2.0,293.2067479996476,2.0,1.0,part_1,,,,,,,,,,,,,magenta,circle
0.0,2.0,0.0,0.0,4.0,4.0,270.8511929995438,2.0,1.0,part_1,,,,,,,,,,,,,yellow,cross
0.0,3.0,0.0,0.0,1.0,1.0,342.3286480001479,2.0,1.0,part_1,,,,,,,,,,,,,cyan,I
58.0,5.0,1.0,1.0,3.0,3.0,318.3350760000394,2.0,1.0,part_1,,,,,,,,,,,,,green,flipped triangle
0.0,3.0,0.0,0.0,1.0,1.0,284.4043630002488,2.0,1.0,part_1,,,,,,,,,,,,,cyan,I
103.0,2.0,2.0,0.0,2.0,2.0,357.94613199959707,2.0,1.0,part_1,,,,,,,,,,,,,yellow,cross
97.0,6.0,2.0,1.0,4.0,4.0,407.9060009999011,2.0,2.0,part_1,,,,,,,,,,,,,blue,triangle
87.0,6.0,2.0,1.0,1.0,1.0,486.3410699999804,2.0,1.0,part_1,,,,,,,,,,,,,blue,triangle
43.0,5.0,1.0,1.0,2.0,2.0,359.7048429992355,2.0,1.0,part_1,,,,,,,,,,,,,green,flipped triangle
384.0,8.0,4.0,1.0,4.0,4.0,391.5561690000686,2.0,1.0,part_1,,,,,,,,,,,,,gray,hexagon
399.0,4.0,4.0,0.0,1.0,1.0,445.9524599997166,2.0,1.0,part_1,,,,,,,,,,,,,magenta,circle
220.0,7.0,3.0,1.0,4.0,4.0,374.6701670006587,2.0,1.0,part_1,,,,,,,,,,,,,white,square
51.0,1.0,1.0,0.0,2.0,2.0,332.6115589998153,2.0,1.0,part_1,,,,,,,,,,,,,orange,diamond
215.0,7.0,3.0,1.0,2.0,2.0,349.4870829999854,2.0,2.0,part_1,,,,,,,,,,,,,white,square
397.0,8.0,4.0,1.0,4.0,4.0,399.121421000018,2.0,1.0,part_1,,,,,,,,,,,,,gray,hexagon
122.0,2.0,2.0,0.0,4.0,4.0,468.8581359996533,2.0,1.0,part_1,,,,,,,,,,,,,yellow,cross
201.0,3.0,3.0,0.0,4.0,4.0,455.8151610008281,2.0,1.0,part_1,,,,,,,,,,,,,cyan,I
0.0,3.0,0.0,0.0,2.0,2.0,327.8986109999096,2.0,1.0,part_1,,,,,,,,,,,,,cyan,I
73.0,5.0,1.0,1.0,4.0,4.0,345.2310780003245,2.0,1.0,part_1,,,,,,,,,,,,,green,flipped triangle
29.0,1.0,1.0,0.0,1.0,1.0,433.3352419998846,2.0,1.0,part_1,,,,,,,,,,,,,orange,diamond
185.0,7.0,3.0,1.0,1.0,1.0,457.3214760002884,2.0,1.0,part_1,,,,,,,,,,,,,white,square
0.0,1.0,0.0,0.0,2.0,2.0,361.8177890002698,2.0,2.0,part_1,,,,,,,,,,,,,orange,diamond
46.0,5.0,1.0,1.0,1.0,1.0,377.3724429993308,2.0,1.0,part_1,,,,,,,,,,,,,green,flipped triangle
177.0,7.0,3.0,1.0,3.0,3.0,370.3492439999536,2.0,1.0,part_1,,,,,,,,,,,,,white,square
56.0,1.0,1.0,0.0,2.0,2.0,348.0267450004248,2.0,1.0,part_1,,,,,,,,,,,,,orange,diamond
41.0,1.0,1.0,0.0,2.0,2.0,336.5810080003939,2.0,1.0,part_1,,,,,,,,,,,,,orange,diamond
44.0,5.0,1.0,1.0,4.0,4.0,342.576906999966,2.0,1.0,part_1,,,,,,,,,,,,,green,flipped triangle
0.0,2.0,0.0,0.0,4.0,4.0,459.9060709997502,2.0,1.0,part_1,,,,,,,,,,,,,yellow,cross
0.0,4.0,0.0,0.0,2.0,2.0,441.27755000045,2.0,1.0,part_1,,,,,,,,,,,,,magenta,circle
210.0,7.0,3.0,1.0,4.0,4.0,329.2217069993057,2.0,1.0,part_1,,,,,,,,,,,,,white,square
0.0,1.0,0.0,0.0,1.0,1.0,307.3245120003776,2.0,1.0,part_1,,,,,,,,,,,,,orange,diamond
199.0,3.0,3.0,0.0,3.0,3.0,367.9435859994555,2.0,1.0,part_1,,,,,,,,,,,,,cyan,I
92.0,6.0,2.0,1.0,2.0,2.0,401.5751420001834,2.0,1.0,part_1,,,,,,,,,,,,,blue,triangle
0.0,4.0,0.0,0.0,2.0,2.0,383.2831210002041,2.0,1.0,part_1,,,,,,,,,,,,,magenta,circle
93.0,6.0,2.0,1.0,1.0,1.0,306.8038769997656,2.0,1.0,part_1,,,,,,,,,,,,,blue,triangle
34.0,5.0,1.0,1.0,2.0,2.0,322.2033470001406,2.0,1.0,part_1,,,,,,,,,,,,,green,flipped triangle
115.0,2.0,2.0,0.0,3.0,3.0,474.7718779999559,2.0,1.0,part_1,,,,,,,,,,,,,yellow,cross
413.0,8.0,4.0,1.0,1.0,1.0,465.9960279996085,2.0,1.0,part_1,,,,,,,,,,,,,gray,hexagon
0.0,1.0,0.0,0.0,4.0,4.0,332.5600810003379,2.0,1.0,part_1,,,,,,,,,,,,,orange,diamond
0.0,5.0,0.0,1.0,1.0,1.0,364.5150009997451,2.0,2.0,part_1,,,,,,,,,,,,,green,flipped triangle
0.0,2.0,0.0,0.0,2.0,2.0,350.3452409995589,2.0,1.0,part_1,,,,,,,,,,,,,yellow,cross
0.0,8.0,0.0,1.0,2.0,2.0,437.4128569997992,2.0,1.0,part_1,,,,,,,,,,,,,gray,hexagon
423.0,4.0,4.0,0.0,3.0,3.0,404.7209459995429,2.0,1.0,part_1,,,,,,,,,,,,,magenta,circle
205.0,7.0,3.0,1.0,4.0,4.0,435.7244650000211,2.0,1.0,part_1,,,,,,,,,,,,,white,square
33.0,1.0,1.0,0.0,3.0,3.0,390.750907000438,2.0,1.0,part_1,,,,,,,,,,,,,orange,diamond
79.0,6.0,2.0,1.0,3.0,3.0,516.1338770003567,2.0,1.0,part_1,,,,,,,,,,,,,blue,triangle
81.0,2.0,2.0,0.0,1.0,1.0,440.7505810004295,2.0,1.0,part_1,,,,,,,,,,,,,yellow,cross
0.0,2.0,0.0,0.0,3.0,3.0,382.891125000242,2.0,1.0,part_1,,,,,,,,,,,,,yellow,cross
89.0,6.0,2.0,1.0,4.0,4.0,327.8791009997803,2.0,1.0,part_1,,,,,,,,,,,,,blue,triangle
0.0,5.0,0.0,1.0,4.0,4.0,446.8595179996555,2.0,1.0,part_1,,,,,,,,,,,,,green,flipped triangle
176.0,7.0,3.0,1.0,4.0,4.0,329.5448460003172,2.0,1.0,part_1,,,,,,,,,,,,,white,square
421.0,8.0,4.0,1.0,2.0,2.0,411.1245180001788,2.0,1.0,part_1,,,,,,,,,,,,,gray,hexagon
397.0,8.0,4.0,1.0,3.0,3.0,403.4468780000679,2.0,1.0,part_1,,,,,,,,,,,,,gray,hexagon
0.0,7.0,0.0,1.0,3.0,3.0,403.7807969998539,2.0,1.0,part_1,,,,,,,,,,,,,white,square
193.0,3.0,3.0,0.0,2.0,2.0,469.064845999128,2.0,1.0,part_1,,,,,,,,,,,,,cyan,I
197.0,7.0,3.0,1.0,2.0,2.0,418.1445940002959,2.0,1.0,part_1,,,,,,,,,,,,,white,square
210.0,7.0,3.0,1.0,3.0,3.0,322.248407999723,2.0,1.0,part_1,,,,,,,,,,,,,white,square
26.0,1.0,1.0,0.0,3.0,3.0,414.6119830002135,2.0,1.0,part_1,,,,,,,,,,,,,orange,diamond
77.0,2.0,2.0,0.0,2.0,2.0,411.323416000414,2.0,1.0,part_1,,,,,,,,,,,,,yellow,cross
0.0,2.0,0.0,0.0,1.0,1.0,317.2873809999146,3.0,1.0,part_1,,,,,,,,,,,,,yellow,cross
34.0,1.0,1.0,0.0,4.0,4.0,357.6316680000673,3.0,1.0,part_1,,,,,,,,,,,,,orange,diamond
69.0,1.0,1.0,0.0,3.0,3.0,393.8752789999853,3.0,1.0,part_1,,,,,,,,,,,,,orange,diamond
222.0,3.0,3.0,0.0,2.0,2.0,340.4022519998761,3.0,1.0,part_1,,,,,,,,,,,,,cyan,I
185.0,3.0,3.0,0.0,2.0,2.0,325.1200180002342,3.0,1.0,part_1,,,,,,,,,,,,,cyan,I
60.0,1.0,1.0,0.0,2.0,2.0,404.7898039998472,3.0,1.0,part_1,,,,,,,,,,,,,orange,diamond
77.0,6.0,2.0,1.0,2.0,2.0,334.5588389993281,3.0,1.0,part_1,,,,,,,,,,,,,blue,triangle
0.0,8.0,0.0,1.0,1.0,1.0,522.4789229996532,3.0,1.0,part_1,,,,,,,,,,,,,gray,hexagon
424.0,8.0,4.0,1.0,1.0,1.0,371.3111650004066,3.0,1.0,part_1,,,,,,,,,,,,,gray,hexagon
0.0,7.0,0.0,1.0,1.0,1.0,347.9651520001425,3.0,1.0,part_1,,,,,,,,,,,,,white,square
46.0,5.0,1.0,1.0,2.0,2.0,348.0708849992879,3.0,1.0,part_1,,,,,,,,,,,,,green,flipped triangle
406.0,8.0,4.0,1.0,3.0,3.0,320.1864050006406,3.0,1.0,part_1,,,,,,,,,,,,,gray,hexagon
413.0,4.0,4.0,0.0,4.0,4.0,287.8232020002542,3.0,1.0,part_1,,,,,,,,,,,,,magenta,circle
56.0,1.0,1.0,0.0,2.0,2.0,342.3123060001671,3.0,1.0,part_1,,,,,,,,,,,,,orange,diamond
69.0,5.0,1.0,1.0,1.0,1.0,337.2191080006814,3.0,1.0,part_1,,,,,,,,,,,,,green,flipped triangle
224.0,3.0,3.0,0.0,3.0,3.0,340.4777030000332,3.0,1.0,part_1,,,,,,,,,,,,,cyan,I
397.0,4.0,4.0,0.0,1.0,1.0,333.7175829992702,3.0,1.0,part_1,,,,,,,,,,,,,magenta,circle
378.0,4.0,4.0,0.0,2.0,2.0,333.3128680005757,3.0,1.0,part_1,,,,,,,,,,,,,magenta,circle
412.0,4.0,4.0,0.0,4.0,4.0,299.7038160001466,3.0,1.0,part_1,,,,,,,,,,,,,magenta,circle
29.0,5.0,1.0,1.0,2.0,2.0,486.5196920000016,3.0,1.0,part_1,,,,,,,,,,,,,green,flipped triangle
385.0,8.0,4.0,1.0,4.0,4.0,491.3533109993295,3.0,1.0,part_1,,,,,,,,,,,,,gray,hexagon
71.0,1.0,1.0,0.0,2.0,2.0,340.4314739991605,3.0,1.0,part_1,,,,,,,,,,,,,orange,diamond
37.0,1.0,1.0,0.0,3.0,3.0,382.6398000001063,3.0,1.0,part_1,,,,,,,,,,,,,orange,diamond
218.0,7.0,3.0,1.0,4.0,4.0,349.5510800003103,3.0,1.0,part_1,,,,,,,,,,,,,white,square
67.0,5.0,1.0,1.0,4.0,4.0,339.3272769999385,3.0,1.0,part_1,,,,,,,,,,,,,green,flipped triangle
33.0,5.0,1.0,1.0,4.0,4.0,357.0310679997419,3.0,1.0,part_1,,,,,,,,,,,,,green,flipped triangle
424.0,4.0,4.0,0.0,2.0,2.0,380.7072839999819,3.0,1.0,part_1,,,,,,,,,,,,,magenta,circle
113.0,6.0,2.0,1.0,1.0,1.0,359.6019420001539,3.0,1.0,part_1,,,,,,,,,,,,,blue,triangle
120.0,2.0,2.0,0.0,1.0,1.0,421.1280440003975,3.0,1.0,part_1,,,,,,,,,,,,,yellow,cross
90.0,6.0,2.0,1.0,3.0,3.0,505.64254599976266,3.0,1.0,part_1,,,,,,,,,,,,,blue,triangle
0.0,1.0,0.0,0.0,3.0,3.0,440.4954909996377,3.0,1.0,part_1,,,,,,,,,,,,,orange,diamond
113.0,2.0,2.0,0.0,3.0,3.0,437.2301390003485,3.0,1.0,part_1,,,,,,,,,,,,,yellow,cross
197.0,7.0,3.0,1.0,4.0,4.0,467.1754740002143,3.0,1.0,part_1,,,,,,,,,,,,,white,square
125.0,2.0,2.0,0.0,4.0,4.0,371.8051290006769,3.0,1.0,part_1,,,,,,,,,,,,,yellow,cross
178.0,7.0,3.0,1.0,4.0,4.0,377.3119480001696,3.0,1.0,part_1,,,,,,,,,,,,,white,square
0.0,5.0,0.0,1.0,1.0,1.0,498.6450920005154,3.0,1.0,part_1,,,,,,,,,,,,,green,flipped triangle
108.0,6.0,2.0,1.0,3.0,3.0,511.3661739997042,3.0,1.0,part_1,,,,,,,,,,,,,blue,triangle
115.0,6.0,2.0,1.0,2.0,2.0,486.6724049998083,3.0,1.0,part_1,,,,,,,,,,,,,blue,triangle
187.0,3.0,3.0,0.0,2.0,2.0,392.43702499970817,3.0,1.0,part_1,,,,,,,,,,,,,cyan,I
51.0,5.0,1.0,1.0,4.0,4.0,320.6693470001482,3.0,1.0,part_1,,,,,,,,,,,,,green,flipped triangle
124.0,6.0,2.0,1.0,4.0,4.0,427.5961749999624,3.0,1.0,part_1,,,,,,,,,,,,,blue,triangle
397.0,8.0,4.0,1.0,2.0,2.0,377.9416859997582,3.0,1.0,part_1,,,,,,,,,,,,,gray,hexagon
52.0,5.0,1.0,1.0,2.0,2.0,360.8586730006209,3.0,1.0,part_1,,,,,,,,,,,,,green,flipped triangle
0.0,3.0,0.0,0.0,2.0,2.0,361.5642619997743,3.0,1.0,part_1,,,,,,,,,,,,,cyan,I
87.0,2.0,2.0,0.0,3.0,3.0,772.3720960002538,3.0,1.0,part_1,,,,,,,,,,,,,yellow,cross
394.0,8.0,4.0,1.0,3.0,3.0,579.880731999765,3.0,1.0,part_1,,,,,,,,,,,,,gray,hexagon
0.0,6.0,0.0,1.0,3.0,3.0,448.3972339994579,3.0,1.0,part_1,,,,,,,,,,,,,blue,triangle
80.0,6.0,2.0,1.0,2.0,2.0,436.4320000004227,3.0,1.0,part_1,,,,,,,,,,,,,blue,triangle
201.0,3.0,3.0,0.0,1.0,1.0,500.8644680001453,3.0,1.0,part_1,,,,,,,,,,,,,cyan,I
44.0,1.0,1.0,0.0,3.0,3.0,369.6954930001084,3.0,1.0,part_1,,,,,,,,,,,,,orange,diamond
204.0,3.0,3.0,0.0,4.0,4.0,388.0440100001578,3.0,1.0,part_1,,,,,,,,,,,,,cyan,I
394.0,4.0,4.0,0.0,4.0,4.0,386.9897369995669,3.0,1.0,part_1,,,,,,,,,,,,,magenta,circle
104.0,6.0,2.0,1.0,4.0,4.0,326.809848999801,3.0,1.0,part_1,,,,,,,,,,,,,blue,triangle
215.0,3.0,3.0,0.0,4.0,4.0,334.7022630005085,3.0,1.0,part_1,,,,,,,,,,,,,cyan,I
108.0,6.0,2.0,1.0,3.0,3.0,376.858116999756,3.0,1.0,part_1,,,,,,,,,,,,,blue,triangle
176.0,3.0,3.0,0.0,3.0,3.0,390.0298309999925,3.0,1.0,part_1,,,,,,,,,,,,,cyan,I
224.0,3.0,3.0,0.0,1.0,1.0,683.5912719998305,3.0,1.0,part_1,,,,,,,,,,,,,cyan,I
181.0,3.0,3.0,0.0,4.0,4.0,426.0774699996545,3.0,1.0,part_1,,,,,,,,,,,,,cyan,I
0.0,1.0,0.0,0.0,3.0,3.0,446.8290960003287,3.0,1.0,part_1,,,,,,,,,,,,,orange,diamond
85.0,6.0,2.0,1.0,1.0,1.0,466.5547129998231,3.0,1.0,part_1,,,,,,,,,,,,,blue,triangle
197.0,3.0,3.0,0.0,2.0,2.0,451.1998930001937,3.0,1.0,part_1,,,,,,,,,,,,,cyan,I
210.0,7.0,3.0,1.0,3.0,3.0,517.3381590002464,3.0,1.0,part_1,,,,,,,,,,,,,white,square
192.0,7.0,3.0,1.0,3.0,3.0,489.334623999639,3.0,1.0,part_1,,,,,,,,,,,,,white,square
115.0,2.0,2.0,0.0,3.0,3.0,345.9582240002419,3.0,1.0,part_1,,,,,,,,,,,,,yellow,cross
187.0,7.0,3.0,1.0,1.0,1.0,545.8138650001274,3.0,1.0,part_1,,,,,,,,,,,,,white,square
0.0,4.0,0.0,0.0,2.0,2.0,405.2030570001079,3.0,2.0,part_1,,,,,,,,,,,,,magenta,circle
198.0,7.0,3.0,1.0,4.0,4.0,443.4763760000351,3.0,1.0,part_1,,,,,,,,,,,,,white,square
0.0,8.0,0.0,1.0,4.0,4.0,560.1665009999124,3.0,1.0,part_1,,,,,,,,,,,,,gray,hexagon
192.0,3.0,3.0,0.0,2.0,2.0,455.7728240006327,3.0,1.0,part_1,,,,,,,,,,,,,cyan,I
0.0,1.0,0.0,0.0,1.0,1.0,524.892409000131,3.0,1.0,part_1,,,,,,,,,,,,,orange,diamond
401.0,8.0,4.0,1.0,2.0,2.0,386.870915000145,3.0,1.0,part_1,,,,,,,,,,,,,gray,hexagon
205.0,3.0,3.0,0.0,4.0,4.0,436.0625380004421,3.0,1.0,part_1,,,,,,,,,,,,,cyan,I
110.0,2.0,2.0,0.0,2.0,2.0,322.1243590005542,3.0,1.0,part_1,,,,,,,,,,,,,yellow,cross
47.0,1.0,1.0,0.0,1.0,1.0,296.51644099976687,3.0,1.0,part_1,,,,,,,,,,,,,orange,diamond
122.0,6.0,2.0,1.0,1.0,1.0,382.9145989993776,3.0,1.0,part_1,,,,,,,,,,,,,blue,triangle
406.0,4.0,4.0,0.0,2.0,2.0,323.3049439995739,3.0,1.0,part_1,,,,,,,,,,,,,magenta,circle
224.0,7.0,3.0,1.0,3.0,3.0,353.7674199997127,3.0,1.0,part_1,,,,,,,,,,,,,white,square
176.0,3.0,3.0,0.0,1.0,1.0,369.2324610001378,3.0,1.0,part_1,,,,,,,,,,,,,cyan,I
387.0,8.0,4.0,1.0,4.0,4.0,324.2028909999135,3.0,1.0,part_1,,,,,,,,,,,,,gray,hexagon
105.0,6.0,2.0,1.0,2.0,2.0,314.4974919996457,3.0,1.0,part_1,,,,,,,,,,,,,blue,triangle
85.0,2.0,2.0,0.0,2.0,2.0,380.8593150006345,3.0,1.0,part_1,,,,,,,,,,,,,yellow,cross
215.0,3.0,3.0,0.0,2.0,2.0,394.7155240002757,3.0,1.0,part_1,,,,,,,,,,,,,cyan,I
210.0,3.0,3.0,0.0,3.0,3.0,390.7194220000747,3.0,1.0,part_1,,,,,,,,,,,,,cyan,I
412.0,8.0,4.0,1.0,3.0,3.0,423.3800949996293,3.0,1.0,part_1,,,,,,,,,,,,,gray,hexagon
71.0,5.0,1.0,1.0,4.0,4.0,359.7861429998374,3.0,1.0,part_1,,,,,,,,,,,,,green,flipped triangle
0.0,8.0,0.0,1.0,4.0,4.0,411.5802940004869,3.0,1.0,part_1,,,,,,,,,,,,,gray,hexagon
37.0,5.0,1.0,1.0,2.0,2.0,322.1236219997081,3.0,1.0,part_1,,,,,,,,,,,,,green,flipped triangle
122.0,6.0,2.0,1.0,3.0,3.0,319.1658549994827,3.0,1.0,part_1,,,,,,,,,,,,,blue,triangle
63.0,1.0,1.0,0.0,1.0,1.0,395.7476450004833,3.0,1.0,part_1,,,,,,,,,,,,,orange,diamond
210.0,3.0,3.0,0.0,1.0,1.0,416.3830280003822,3.0,1.0,part_1,,,,,,,,,,,,,cyan,I
424.0,8.0,4.0,1.0,3.0,3.0,358.5560120000082,3.0,1.0,part_1,,,,,,,,,,,,,gray,hexagon
33.0,1.0,1.0,0.0,1.0,1.0,326.5341000005719,3.0,1.0,part_1,,,,,,,,,,,,,orange,diamond
0.0,7.0,0.0,1.0,4.0,4.0,372.0744530000957,3.0,1.0,part_1,,,,,,,,,,,,,white,square
178.0,3.0,3.0,0.0,4.0,4.0,376.2777689998984,3.0,1.0,part_1,,,,,,,,,,,,,cyan,I
178.0,3.0,3.0,0.0,1.0,1.0,458.0983349997041,3.0,1.0,part_1,,,,,,,,,,,,,cyan,I
0.0,7.0,0.0,1.0,3.0,3.0,444.7937300001285,3.0,1.0,part_1,,,,,,,,,,,,,white,square
71.0,5.0,1.0,1.0,3.0,3.0,583.1364770001528,3.0,1.0,part_1,,,,,,,,,,,,,green,flipped triangle
415.0,8.0,4.0,1.0,3.0,3.0,373.2138630002737,3.0,1.0,part_1,,,,,,,,,,,,,gray,hexagon
383.0,4.0,4.0,0.0,1.0,1.0,360.4564449997269,3.0,1.0,part_1,,,,,,,,,,,,,magenta,circle
110.0,6.0,2.0,1.0,4.0,4.0,371.8823120007073,3.0,1.0,part_1,,,,,,,,,,,,,blue,triangle
376.0,8.0,4.0,1.0,4.0,4.0,443.6219870003697,4.0,1.0,part_1,,,,,,,,,,,,,gray,hexagon
0.0,8.0,0.0,1.0,1.0,1.0,369.0855019995069,4.0,1.0,part_1,,,,,,,,,,,,,gray,hexagon
0.0,5.0,0.0,1.0,3.0,3.0,333.5236240000085,4.0,1.0,part_1,,,,,,,,,,,,,green,flipped triangle
214.0,3.0,3.0,0.0,1.0,1.0,498.1346200002008,4.0,1.0,part_1,,,,,,,,,,,,,cyan,I
0.0,1.0,0.0,0.0,3.0,3.0,315.257847999419,4.0,1.0,part_1,,,,,,,,,,,,,orange,diamond
56.0,5.0,1.0,1.0,4.0,4.0,362.4418849994981,4.0,1.0,part_1,,,,,,,,,,,,,green,flipped triangle
46.0,1.0,1.0,0.0,4.0,4.0,376.1246359999859,4.0,1.0,part_1,,,,,,,,,,,,,orange,diamond
191.0,7.0,3.0,1.0,2.0,2.0,329.1282950003733,4.0,1.0,part_1,,,,,,,,,,,,,white,square
63.0,5.0,1.0,1.0,1.0,1.0,348.2072450005944,4.0,1.0,part_1,,,,,,,,,,,,,green,flipped triangle
92.0,2.0,2.0,0.0,2.0,2.0,383.9288110002599,4.0,1.0,part_1,,,,,,,,,,,,,yellow,cross
32.0,5.0,1.0,1.0,3.0,3.0,335.5510789997424,4.0,1.0,part_1,,,,,,,,,,,,,green,flipped triangle
183.0,7.0,3.0,1.0,2.0,2.0,483.6733199999798,4.0,1.0,part_1,,,,,,,,,,,,,white,square
51.0,5.0,1.0,1.0,2.0,2.0,401.1504399995829,4.0,1.0,part_1,,,,,,,,,,,,,green,flipped triangle
93.0,2.0,2.0,0.0,1.0,1.0,377.0937499994033,4.0,1.0,part_1,,,,,,,,,,,,,yellow,cross
397.0,4.0,4.0,0.0,1.0,1.0,449.9043989999336,4.0,1.0,part_1,,,,,,,,,,,,,magenta,circle
0.0,6.0,0.0,1.0,4.0,4.0,387.5393360003727,4.0,1.0,part_1,,,,,,,,,,,,,blue,triangle
86.0,2.0,2.0,0.0,4.0,4.0,445.6014879997383,4.0,1.0,part_1,,,,,,,,,,,,,yellow,cross
177.0,3.0,3.0,0.0,3.0,3.0,391.5308310006367,4.0,1.0,part_1,,,,,,,,,,,,,cyan,I
0.0,6.0,0.0,1.0,4.0,4.0,470.7113290005509,4.0,1.0,part_1,,,,,,,,,,,,,blue,triangle
67.0,1.0,1.0,0.0,4.0,4.0,378.0411560001084,4.0,1.0,part_1,,,,,,,,,,,,,orange,diamond
0.0,7.0,0.0,1.0,4.0,4.0,458.9983180003401,4.0,1.0,part_1,,,,,,,,,,,,,white,square
0.0,3.0,0.0,0.0,2.0,2.0,486.6522160000386,4.0,1.0,part_1,,,,,,,,,,,,,cyan,I
391.0,8.0,4.0,1.0,2.0,2.0,328.9781650000805,4.0,1.0,part_1,,,,,,,,,,,,,gray,hexagon
63.0,1.0,1.0,0.0,4.0,4.0,379.0582419997008,4.0,1.0,part_1,,,,,,,,,,,,,orange,diamond
100.0,6.0,2.0,1.0,4.0,4.0,325.0833809997857,4.0,1.0,part_1,,,,,,,,,,,,,blue,triangle
85.0,6.0,2.0,1.0,2.0,2.0,368.9620200002537,4.0,1.0,part_1,,,,,,,,,,,,,blue,triangle
419.0,8.0,4.0,1.0,1.0,1.0,456.8859900000461,4.0,1.0,part_1,,,,,,,,,,,,,gray,hexagon
186.0,3.0,3.0,0.0,1.0,1.0,381.1658900003749,4.0,1.0,part_1,,,,,,,,,,,,,cyan,I
105.0,2.0,2.0,0.0,4.0,4.0,627.0337959995231,4.0,1.0,part_1,,,,,,,,,,,,,yellow,cross
105.0,2.0,2.0,0.0,3.0,3.0,387.9363650003142,4.0,1.0,part_1,,,,,,,,,,,,,yellow,cross
104.0,2.0,2.0,0.0,4.0,4.0,364.310549000038,4.0,1.0,part_1,,,,,,,,,,,,,yellow,cross
0.0,8.0,0.0,1.0,3.0,3.0,429.7079030002351,4.0,1.0,part_1,,,,,,,,,,,,,gray,hexagon
86.0,6.0,2.0,1.0,1.0,1.0,331.6328340006294,4.0,1.0,part_1,,,,,,,,,,,,,blue,triangle
0.0,6.0,0.0,1.0,4.0,4.0,348.4573630003069,4.0,1.0,part_1,,,,,,,,,,,,,blue,triangle
389.0,4.0,4.0,0.0,3.0,3.0,408.4264570001323,4.0,1.0,part_1,,,,,,,,,,,,,magenta,circle
176.0,7.0,3.0,1.0,2.0,2.0,642.4416259997088,4.0,1.0,part_1,,,,,,,,,,,,,white,square
409.0,8.0,4.0,1.0,1.0,1.0,399.549532000492,4.0,1.0,part_1,,,,,,,,,,,,,gray,hexagon
0.0,7.0,0.0,1.0,3.0,3.0,335.2051880001454,4.0,1.0,part_1,,,,,,,,,,,,,white,square
413.0,8.0,4.0,1.0,1.0,1.0,497.2169929997108,4.0,1.0,part_1,,,,,,,,,,,,,gray,hexagon
383.0,8.0,4.0,1.0,2.0,2.0,420.4834250003841,4.0,1.0,part_1,,,,,,,,,,,,,gray,hexagon
43.0,1.0,1.0,0.0,4.0,4.0,685.9969790002651,4.0,1.0,part_1,,,,,,,,,,,,,orange,diamond
81.0,6.0,2.0,1.0,3.0,3.0,346.3087199997972,4.0,1.0,part_1,,,,,,,,,,,,,blue,triangle
215.0,7.0,3.0,1.0,2.0,2.0,329.2844959996728,4.0,1.0,part_1,,,,,,,,,,,,,white,square
66.0,1.0,1.0,0.0,1.0,1.0,455.8797460003916,4.0,1.0,part_1,,,,,,,,,,,,,orange,diamond
56.0,1.0,1.0,0.0,1.0,1.0,462.1704759993008,4.0,2.0,part_1,,,,,,,,,,,,,orange,diamond
80.0,2.0,2.0,0.0,3.0,3.0,370.6286880005791,4.0,1.0,part_1,,,,,,,,,,,,,yellow,cross
400.0,4.0,4.0,0.0,4.0,4.0,360.6892419993528,4.0,1.0,part_1,,,,,,,,,,,,,magenta,circle
393.0,8.0,4.0,1.0,2.0,2.0,344.6631200004049,4.0,2.0,part_1,,,,,,,,,,,,,gray,hexagon
181.0,7.0,3.0,1.0,1.0,1.0,376.1924619993806,4.0,2.0,part_1,,,,,,,,,,,,,white,square
54.0,1.0,1.0,0.0,1.0,1.0,439.8718090005786,4.0,1.0,part_1,,,,,,,,,,,,,orange,diamond
221.0,3.0,3.0,0.0,4.0,4.0,323.410624000644,4.0,1.0,part_1,,,,,,,,,,,,,cyan,I
198.0,3.0,3.0,0.0,4.0,4.0,513.4147600001597,4.0,1.0,part_1,,,,,,,,,,,,,cyan,I
124.0,2.0,2.0,0.0,1.0,1.0,412.5766720007959,4.0,1.0,part_1,,,,,,,,,,,,,yellow,cross
205.0,7.0,3.0,1.0,3.0,3.0,366.6594970000005,4.0,1.0,part_1,,,,,,,,,,,,,white,square
103.0,6.0,2.0,1.0,4.0,4.0,435.623041999861,4.0,1.0,part_1,,,,,,,,,,,,,blue,triangle
105.0,6.0,2.0,1.0,1.0,1.0,363.3701659991857,4.0,1.0,part_1,,,,,,,,,,,,,blue,triangle
204.0,7.0,3.0,1.0,2.0,2.0,359.0905379996911,4.0,1.0,part_1,,,,,,,,,,,,,white,square
0.0,3.0,0.0,0.0,1.0,1.0,422.218134999639,4.0,1.0,part_1,,,,,,,,,,,,,cyan,I
0.0,2.0,0.0,0.0,1.0,1.0,565.2122569999847,4.0,1.0,part_1,,,,,,,,,,,,,yellow,cross
0.0,6.0,0.0,1.0,1.0,1.0,370.0336490001064,4.0,1.0,part_1,,,,,,,,,,,,,blue,triangle
66.0,5.0,1.0,1.0,1.0,1.0,375.1640750006118,4.0,1.0,part_1,,,,,,,,,,,,,green,flipped triangle
393.0,4.0,4.0,0.0,1.0,1.0,430.1222019994384,4.0,1.0,part_1,,,,,,,,,,,,,magenta,circle
406.0,8.0,4.0,1.0,4.0,4.0,515.3036800002155,4.0,2.0,part_1,,,,,,,,,,,,,gray,hexagon
104.0,6.0,2.0,1.0,1.0,1.0,478.7226339994959,4.0,1.0,part_1,,,,,,,,,,,,,blue,triangle
389.0,8.0,4.0,1.0,2.0,2.0,603.255979000096,4.0,1.0,part_1,,,,,,,,,,,,,gray,hexagon
59.0,1.0,1.0,0.0,3.0,3.0,522.0959739999671,4.0,1.0,part_1,,,,,,,,,,,,,orange,diamond
401.0,4.0,4.0,0.0,4.0,4.0,373.1017320005776,4.0,1.0,part_1,,,,,,,,,,,,,magenta,circle
206.0,3.0,3.0,0.0,3.0,3.0,385.0057710005785,4.0,1.0,part_1,,,,,,,,,,,,,cyan,I
84.0,2.0,2.0,0.0,4.0,4.0,491.869559999941,4.0,1.0,part_1,,,,,,,,,,,,,yellow,cross
0.0,8.0,0.0,1.0,1.0,1.0,546.8440810000175,4.0,1.0,part_1,,,,,,,,,,,,,gray,hexagon
418.0,4.0,4.0,0.0,2.0,2.0,318.6288719998629,4.0,1.0,part_1,,,,,,,,,,,,,magenta,circle
53.0,1.0,1.0,0.0,4.0,4.0,333.6503290001928,4.0,1.0,part_1,,,,,,,,,,,,,orange,diamond
100.0,2.0,2.0,0.0,1.0,1.0,396.4741149993642,4.0,1.0,part_1,,,,,,,,,,,,,yellow,cross
0.0,4.0,0.0,0.0,2.0,2.0,397.198994000064,4.0,1.0,part_1,,,,,,,,,,,,,magenta,circle
378.0,8.0,4.0,1.0,1.0,1.0,346.4869340004952,4.0,1.0,part_1,,,,,,,,,,,,,gray,hexagon
186.0,7.0,3.0,1.0,4.0,4.0,241.2123069998415,4.0,2.0,part_1,,,,,,,,,,,,,white,square
387.0,8.0,4.0,1.0,1.0,1.0,361.7400379998798,4.0,1.0,part_1,,,,,,,,,,,,,gray,hexagon
393.0,8.0,4.0,1.0,2.0,2.0,316.9561590002558,4.0,1.0,part_1,,,,,,,,,,,,,gray,hexagon
204.0,7.0,3.0,1.0,2.0,2.0,359.1616920002707,4.0,1.0,part_1,,,,,,,,,,,,,white,square
33.0,5.0,1.0,1.0,4.0,4.0,388.4849169999143,4.0,1.0,part_1,,,,,,,,,,,,,green,flipped triangle
378.0,8.0,4.0,1.0,1.0,1.0,458.164279999437,4.0,1.0,part_1,,,,,,,,,,,,,gray,hexagon
0.0,2.0,0.0,0.0,2.0,2.0,513.5812030002853,4.0,1.0,part_1,,,,,,,,,,,,,yellow,cross
0.0,8.0,0.0,1.0,2.0,2.0,442.336575999434,4.0,1.0,part_1,,,,,,,,,,,,,gray,hexagon
387.0,4.0,4.0,0.0,3.0,3.0,346.8026860000464,4.0,1.0,part_1,,,,,,,,,,,,,magenta,circle
409.0,8.0,4.0,1.0,4.0,4.0,387.5592899994444,4.0,1.0,part_1,,,,,,,,,,,,,gray,hexagon
0.0,4.0,0.0,0.0,3.0,3.0,427.0728639994559,4.0,1.0,part_1,,,,,,,,,,,,,magenta,circle
112.0,6.0,2.0,1.0,2.0,2.0,314.1455909999422,4.0,1.0,part_1,,,,,,,,,,,,,blue,triangle
378.0,4.0,4.0,0.0,2.0,2.0,313.3750379993216,4.0,1.0,part_1,,,,,,,,,,,,,magenta,circle
90.0,2.0,2.0,0.0,3.0,3.0,678.3815850003521,4.0,1.0,part_1,,,,,,,,,,,,,yellow,cross
201.0,7.0,3.0,1.0,1.0,1.0,471.0620480000216,4.0,2.0,part_1,,,,,,,,,,,,,white,square
220.0,3.0,3.0,0.0,1.0,1.0,441.8526600002224,4.0,1.0,part_1,,,,,,,,,,,,,cyan,I
109.0,2.0,2.0,0.0,4.0,4.0,432.6537410006494,4.0,1.0,part_1,,,,,,,,,,,,,yellow,cross
0.0,5.0,0.0,1.0,2.0,2.0,313.6523080002007,4.0,1.0,part_1,,,,,,,,,,,,,green,flipped triangle
103.0,2.0,2.0,0.0,2.0,2.0,360.180737000519,4.0,1.0,part_1,,,,,,,,,,,,,yellow,cross
53.0,5.0,1.0,1.0,1.0,1.0,272.425908000514,4.0,1.0,part_1,,,,,,,,,,,,,green,flipped triangle
410.0,4.0,4.0,0.0,3.0,3.0,312.2590850007327,4.0,1.0,part_1,,,,,,,,,,,,,magenta,circle
33.0,5.0,1.0,1.0,1.0,1.0,293.4773659999337,4.0,1.0,part_1,,,,,,,,,,,,,green,flipped triangle
218.0,3.0,3.0,0.0,4.0,4.0,340.1661870002499,4.0,1.0,part_1,,,,,,,,,,,,,cyan,I
39.0,1.0,1.0,0.0,4.0,4.0,304.5742080003037,4.0,1.0,part_1,,,,,,,,,,,,,orange,diamond
97.0,2.0,2.0,0.0,4.0,4.0,392.1714830003111,4.0,1.0,part_1,,,,,,,,,,,,,yellow,cross
0.0,7.0,3.0,1.0,6.0,6.0,461.8896799993308,1.0,0.0,part_2,stop,250.0,250.0,3.0,,,,,,,,,white,square
0.0,4.0,4.0,0.0,6.0,6.0,353.0195539997294,1.0,0.0,part_2,go,250.0,200.0,1.0,,,,,,,,,magenta,circle
0.0,8.0,4.0,1.0,5.0,5.0,454.8395620004157,1.0,0.0,part_2,stop,250.0,200.0,3.0,,,,,,,,,gray,hexagon
0.0,3.0,3.0,0.0,5.0,5.0,845.3823620002368,1.0,0.0,part_2,go,200.0,200.0,1.0,,,,,,,,,cyan,I
0.0,8.0,4.0,1.0,6.0,0.0,0.0,1.0,0.0,part_2,stop,200.0,200.0,4.0,,,,,,,,,gray,hexagon
0.0,4.0,4.0,0.0,5.0,5.0,782.7162429994132,1.0,0.0,part_2,go,200.0,250.0,1.0,,,,,,,,,magenta,circle
0.0,5.0,1.0,1.0,5.0,0.0,0.0,1.0,0.0,part_2,stop,200.0,250.0,4.0,,,,,,,,,green,flipped triangle
0.0,1.0,1.0,0.0,6.0,6.0,638.4882969996397,1.0,0.0,part_2,go,250.0,250.0,1.0,,,,,,,,,orange,diamond
0.0,5.0,1.0,1.0,6.0,0.0,0.0,1.0,0.0,part_2,stop,250.0,250.0,4.0,,,,,,,,,green,flipped triangle
0.0,3.0,3.0,0.0,6.0,6.0,469.3816110002444,1.0,0.0,part_2,go,250.0,300.0,1.0,,,,,,,,,cyan,I
0.0,4.0,4.0,0.0,5.0,5.0,729.3463759997394,1.0,0.0,part_2,go,250.0,300.0,1.0,,,,,,,,,magenta,circle
0.0,7.0,3.0,1.0,5.0,0.0,0.0,1.0,0.0,part_2,stop,250.0,300.0,4.0,,,,,,,,,white,square
0.0,8.0,4.0,1.0,5.0,0.0,0.0,1.0,0.0,part_2,stop,300.0,300.0,4.0,,,,,,,,,gray,hexagon
0.0,2.0,2.0,0.0,6.0,6.0,568.8821069998085,1.0,0.0,part_2,go,350.0,300.0,1.0,,,,,,,,,yellow,cross
0.0,6.0,2.0,1.0,5.0,0.0,0.0,1.0,0.0,part_2,stop,350.0,300.0,4.0,,,,,,,,,blue,triangle
0.0,3.0,3.0,0.0,6.0,6.0,396.47567099927977,1.0,0.0,part_2,go,400.0,300.0,1.0,,,,,,,,,cyan,I
0.0,4.0,4.0,0.0,5.0,5.0,675.7812910000212,1.0,0.0,part_2,go,400.0,300.0,1.0,,,,,,,,,magenta,circle
0.0,8.0,4.0,1.0,6.0,6.0,339.3344969999816,1.0,0.0,part_2,stop,400.0,300.0,3.0,,,,,,,,,gray,hexagon
0.0,2.0,2.0,0.0,5.0,5.0,648.1025290004254,1.0,0.0,part_2,go,400.0,250.0,1.0,,,,,,,,,yellow,cross
0.0,5.0,1.0,1.0,5.0,5.0,606.21437699956,1.0,0.0,part_2,stop,400.0,250.0,3.0,,,,,,,,,green,flipped triangle
0.0,3.0,3.0,0.0,5.0,5.0,590.8509069995489,1.0,0.0,part_2,go,350.0,250.0,1.0,,,,,,,,,cyan,I
0.0,3.0,3.0,0.0,6.0,6.0,681.3896269995894,1.0,0.0,part_2,go,350.0,250.0,1.0,,,,,,,,,cyan,I
0.0,2.0,2.0,0.0,6.0,6.0,467.4445989994638,1.0,0.0,part_2,go,350.0,250.0,1.0,,,,,,,,,yellow,cross
0.0,8.0,4.0,1.0,6.0,0.0,0.0,1.0,0.0,part_2,stop,350.0,250.0,4.0,,,,,,,,,gray,hexagon
0.0,3.0,3.0,0.0,6.0,6.0,703.7863169998673,1.0,0.0,part_2,go,350.0,300.0,1.0,,,,,,,,,cyan,I
0.0,1.0,1.0,0.0,6.0,6.0,636.1063290005404,1.0,0.0,part_2,go,350.0,300.0,1.0,,,,,,,,,orange,diamond
0.0,6.0,2.0,1.0,5.0,0.0,0.0,1.0,0.0,part_2,stop,350.0,300.0,4.0,,,,,,,,,blue,triangle
0.0,4.0,4.0,0.0,6.0,6.0,592.3328779999792,1.0,0.0,part_2,go,400.0,300.0,1.0,,,,,,,,,magenta,circle
0.0,2.0,2.0,0.0,6.0,6.0,436.3238959995215,1.0,0.0,part_2,go,400.0,300.0,1.0,,,,,,,,,yellow,cross
0.0,1.0,1.0,0.0,5.0,5.0,581.5371799999411,1.0,0.0,part_2,go,400.0,300.0,1.0,,,,,,,,,orange,diamond
0.0,8.0,4.0,1.0,6.0,0.0,0.0,1.0,0.0,part_2,stop,400.0,300.0,4.0,,,,,,,,,gray,hexagon
0.0,8.0,4.0,1.0,5.0,0.0,0.0,1.0,0.0,part_2,stop,400.0,350.0,4.0,,,,,,,,,gray,hexagon
0.0,6.0,2.0,1.0,5.0,5.0,614.7591869994358,1.0,0.0,part_2,stop,450.0,350.0,3.0,,,,,,,,,blue,triangle
0.0,4.0,4.0,0.0,6.0,6.0,683.879992000584,1.0,0.0,part_2,go,400.0,350.0,1.0,,,,,,,,,magenta,circle
0.0,6.0,2.0,1.0,6.0,6.0,856.1364299994239,1.0,0.0,part_2,go,400.0,350.0,1.0,,,,,,,,,blue,triangle
0.0,6.0,2.0,1.0,5.0,0.0,0.0,1.0,0.0,part_2,stop,400.0,350.0,4.0,,,,,,,,,blue,triangle
0.0,2.0,2.0,0.0,5.0,5.0,652.9338489999645,2.0,0.0,part_2,go,450.0,350.0,1.0,,,,,,,,,yellow,cross
0.0,3.0,3.0,0.0,5.0,5.0,481.4297619996068,2.0,0.0,part_2,go,450.0,350.0,1.0,,,,,,,,,cyan,I
0.0,7.0,3.0,1.0,6.0,6.0,556.022242999461,2.0,0.0,part_2,go,450.0,350.0,1.0,,,,,,,,,white,square
0.0,4.0,4.0,0.0,6.0,6.0,469.0161980006451,2.0,0.0,part_2,go,450.0,350.0,1.0,,,,,,,,,magenta,circle
0.0,8.0,4.0,1.0,5.0,5.0,448.4067420007704,2.0,0.0,part_2,stop,450.0,350.0,3.0,,,,,,,,,gray,hexagon
0.0,5.0,1.0,1.0,6.0,0.0,0.0,2.0,0.0,part_2,stop,400.0,350.0,4.0,,,,,,,,,green,flipped triangle
0.0,4.0,4.0,0.0,5.0,5.0,690.1688480002122,2.0,0.0,part_2,go,400.0,400.0,1.0,,,,,,,,,magenta,circle
0.0,7.0,3.0,1.0,5.0,0.0,0.0,2.0,0.0,part_2,stop,400.0,400.0,4.0,,,,,,,,,white,square
0.0,6.0,2.0,1.0,5.0,5.0,403.269487000216,2.0,0.0,part_2,go,450.0,400.0,1.0,,,,,,,,,blue,triangle
0.0,5.0,1.0,1.0,6.0,6.0,523.8872749996517,2.0,0.0,part_2,stop,450.0,400.0,3.0,,,,,,,,,green,flipped triangle
0.0,4.0,4.0,0.0,6.0,6.0,715.121179999187,2.0,0.0,part_2,go,450.0,350.0,1.0,,,,,,,,,magenta,circle
0.0,1.0,1.0,0.0,5.0,5.0,610.4175820000819,2.0,0.0,part_2,go,450.0,350.0,1.0,,,,,,,,,orange,diamond
0.0,2.0,2.0,0.0,5.0,5.0,414.0813959993465,2.0,0.0,part_2,go,450.0,350.0,1.0,,,,,,,,,yellow,cross
0.0,5.0,1.0,1.0,5.0,0.0,0.0,2.0,0.0,part_2,stop,450.0,350.0,4.0,,,,,,,,,green,flipped triangle
0.0,6.0,2.0,1.0,6.0,0.0,0.0,2.0,0.0,part_2,stop,500.0,350.0,4.0,,,,,,,,,blue,triangle
0.0,4.0,4.0,0.0,6.0,6.0,741.3104449997263,2.0,0.0,part_2,go,500.0,400.0,1.0,,,,,,,,,magenta,circle
0.0,1.0,1.0,0.0,5.0,5.0,540.7767189999504,2.0,0.0,part_2,go,500.0,400.0,1.0,,,,,,,,,orange,diamond
0.0,4.0,4.0,0.0,5.0,5.0,439.108323000255,2.0,0.0,part_2,go,500.0,400.0,1.0,,,,,,,,,magenta,circle
0.0,7.0,3.0,1.0,5.0,5.0,463.5325740000553,2.0,0.0,part_2,stop,500.0,400.0,3.0,,,,,,,,,white,square
0.0,3.0,3.0,0.0,5.0,5.0,656.1217930002385,2.0,0.0,part_2,go,450.0,400.0,1.0,,,,,,,,,cyan,I
0.0,3.0,3.0,0.0,5.0,5.0,640.2964889994109,2.0,0.0,part_2,go,450.0,400.0,1.0,,,,,,,,,cyan,I
0.0,2.0,2.0,0.0,5.0,5.0,615.0841729995591,2.0,0.0,part_2,go,450.0,400.0,1.0,,,,,,,,,yellow,cross
0.0,8.0,4.0,1.0,6.0,0.0,0.0,2.0,0.0,part_2,stop,450.0,400.0,4.0,,,,,,,,,gray,hexagon
0.0,3.0,3.0,0.0,6.0,6.0,640.7138499998837,2.0,0.0,part_2,go,450.0,450.0,1.0,,,,,,,,,cyan,I
0.0,2.0,2.0,0.0,6.0,6.0,585.8353479998186,2.0,0.0,part_2,go,450.0,450.0,1.0,,,,,,,,,yellow,cross
0.0,8.0,4.0,1.0,5.0,5.0,897.5701520002985,2.0,0.0,part_2,go,450.0,450.0,1.0,,,,,,,,,gray,hexagon
0.0,2.0,2.0,0.0,6.0,6.0,518.633735999174,2.0,0.0,part_2,go,450.0,450.0,1.0,,,,,,,,,yellow,cross
0.0,6.0,2.0,1.0,5.0,0.0,0.0,2.0,0.0,part_2,stop,450.0,450.0,4.0,,,,,,,,,blue,triangle
0.0,8.0,4.0,1.0,5.0,0.0,0.0,2.0,0.0,part_2,stop,500.0,450.0,4.0,,,,,,,,,gray,hexagon
0.0,8.0,4.0,1.0,6.0,6.0,760.3046750000431,2.0,0.0,part_2,go,550.0,450.0,1.0,,,,,,,,,gray,hexagon
0.0,8.0,4.0,1.0,5.0,5.0,1208.349188000284,2.0,0.0,part_2,go,550.0,450.0,1.0,,,,,,,,,gray,hexagon
0.0,7.0,3.0,1.0,5.0,5.0,488.5477670004547,2.0,0.0,part_2,go,550.0,450.0,1.0,,,,,,,,,white,square
0.0,3.0,3.0,0.0,6.0,6.0,581.0540640004547,2.0,0.0,part_2,go,550.0,450.0,1.0,,,,,,,,,cyan,I
0.0,4.0,4.0,0.0,5.0,5.0,500.27179999960936,2.0,0.0,part_2,go,550.0,450.0,1.0,,,,,,,,,magenta,circle
0.0,5.0,1.0,1.0,5.0,5.0,684.0003480001542,2.0,0.0,part_2,stop,550.0,450.0,3.0,,,,,,,,,green,flipped triangle
0.0,8.0,4.0,1.0,5.0,0.0,0.0,2.0,0.0,part_2,stop,500.0,450.0,4.0,,,,,,,,,gray,hexagon
0.0,1.0,1.0,0.0,6.0,6.0,565.041521999774,3.0,0.0,part_2,go,550.0,450.0,1.0,,,,,,,,,orange,diamond
0.0,3.0,3.0,0.0,5.0,5.0,393.5115300000689,3.0,0.0,part_2,go,550.0,450.0,1.0,,,,,,,,,cyan,I
0.0,7.0,3.0,1.0,6.0,6.0,490.7452509996801,3.0,0.0,part_2,stop,550.0,450.0,3.0,,,,,,,,,white,square
0.0,6.0,2.0,1.0,5.0,0.0,0.0,3.0,0.0,part_2,stop,550.0,400.0,4.0,,,,,,,,,blue,triangle
0.0,6.0,2.0,1.0,5.0,5.0,559.1195249999146,3.0,0.0,part_2,stop,600.0,400.0,3.0,,,,,,,,,blue,triangle
0.0,5.0,1.0,1.0,5.0,5.0,756.8254150000939,3.0,0.0,part_2,go,550.0,400.0,1.0,,,,,,,,,green,flipped triangle
0.0,7.0,3.0,1.0,6.0,6.0,288.8748630002737,3.0,0.0,part_2,stop,550.0,400.0,3.0,,,,,,,,,white,square
0.0,6.0,2.0,1.0,5.0,5.0,722.5851409993993,3.0,0.0,part_2,go,550.0,350.0,1.0,,,,,,,,,blue,triangle
0.0,7.0,3.0,1.0,5.0,5.0,660.4889710006319,3.0,0.0,part_2,stop,550.0,350.0,3.0,,,,,,,,,white,square
0.0,2.0,2.0,0.0,5.0,5.0,664.4872720007697,3.0,0.0,part_2,go,500.0,350.0,1.0,,,,,,,,,yellow,cross
0.0,3.0,3.0,0.0,6.0,6.0,439.5856289993389,3.0,0.0,part_2,go,500.0,350.0,1.0,,,,,,,,,cyan,I
0.0,8.0,4.0,1.0,6.0,6.0,868.9233430004606,3.0,0.0,part_2,stop,500.0,350.0,3.0,,,,,,,,,gray,hexagon
0.0,2.0,2.0,0.0,6.0,6.0,563.2341309992626,3.0,0.0,part_2,go,500.0,300.0,1.0,,,,,,,,,yellow,cross
0.0,8.0,4.0,1.0,5.0,5.0,736.9985479999741,3.0,0.0,part_2,go,500.0,300.0,1.0,,,,,,,,,gray,hexagon
0.0,6.0,2.0,1.0,5.0,0.0,0.0,3.0,0.0,part_2,stop,500.0,300.0,4.0,,,,,,,,,blue,triangle
0.0,5.0,1.0,1.0,6.0,0.0,0.0,3.0,0.0,part_2,stop,550.0,300.0,4.0,,,,,,,,,green,flipped triangle
0.0,7.0,3.0,1.0,5.0,5.0,612.9835359997742,3.0,0.0,part_2,stop,550.0,350.0,3.0,,,,,,,,,white,square
0.0,4.0,4.0,0.0,5.0,5.0,829.4569909994607,3.0,0.0,part_2,go,500.0,350.0,1.0,,,,,,,,,magenta,circle
0.0,5.0,1.0,1.0,5.0,0.0,0.0,3.0,0.0,part_2,stop,500.0,350.0,4.0,,,,,,,,,green,flipped triangle
0.0,1.0,1.0,0.0,6.0,6.0,772.3054539992518,3.0,0.0,part_2,go,550.0,350.0,1.0,,,,,,,,,orange,diamond
0.0,7.0,3.0,1.0,6.0,0.0,0.0,3.0,0.0,part_2,stop,550.0,350.0,4.0,,,,,,,,,white,square
0.0,5.0,1.0,1.0,6.0,0.0,0.0,3.0,0.0,part_2,stop,550.0,400.0,4.0,,,,,,,,,green,flipped triangle
0.0,3.0,3.0,0.0,5.0,5.0,682.2305820005568,3.0,0.0,part_2,go,550.0,450.0,1.0,,,,,,,,,cyan,I
0.0,4.0,4.0,0.0,5.0,5.0,724.5748900004401,3.0,0.0,part_2,go,550.0,450.0,1.0,,,,,,,,,magenta,circle
0.0,8.0,4.0,1.0,5.0,0.0,0.0,3.0,0.0,part_2,stop,550.0,450.0,4.0,,,,,,,,,gray,hexagon
0.0,4.0,4.0,0.0,6.0,6.0,679.2549140000119,3.0,0.0,part_2,go,600.0,450.0,1.0,,,,,,,,,magenta,circle
0.0,1.0,1.0,0.0,5.0,5.0,741.2086270005602,3.0,0.0,part_2,go,600.0,450.0,1.0,,,,,,,,,orange,diamond
0.0,7.0,3.0,1.0,5.0,5.0,415.14770699996,3.0,0.0,part_2,stop,600.0,450.0,3.0,,,,,,,,,white,square
0.0,1.0,1.0,0.0,6.0,6.0,645.1637800000753,3.0,0.0,part_2,go,550.0,450.0,1.0,,,,,,,,,orange,diamond
0.0,1.0,1.0,0.0,5.0,5.0,750.7563030003439,3.0,0.0,part_2,go,550.0,450.0,1.0,,,,,,,,,orange,diamond
0.0,3.0,3.0,0.0,5.0,5.0,668.4206030004134,3.0,0.0,part_2,go,550.0,450.0,1.0,,,,,,,,,cyan,I
0.0,1.0,1.0,0.0,6.0,6.0,523.6929769998824,3.0,0.0,part_2,go,550.0,450.0,1.0,,,,,,,,,orange,diamond
0.0,2.0,2.0,0.0,6.0,6.0,605.9053150002001,3.0,0.0,part_2,go,550.0,450.0,1.0,,,,,,,,,yellow,cross
0.0,2.0,2.0,0.0,5.0,5.0,670.8011050004643,3.0,0.0,part_2,go,550.0,450.0,1.0,,,,,,,,,yellow,cross
0.0,1.0,1.0,0.0,5.0,5.0,412.8890189995218,3.0,0.0,part_2,go,550.0,450.0,1.0,,,,,,,,,orange,diamond
0.0,1.0,1.0,0.0,5.0,5.0,502.6758049998534,3.0,0.0,part_2,go,550.0,450.0,1.0,,,,,,,,,orange,diamond
0.0,8.0,4.0,1.0,6.0,6.0,342.1801240001514,4.0,0.0,part_2,stop,550.0,450.0,3.0,,,,,,,,,gray,hexagon
0.0,3.0,3.0,0.0,6.0,6.0,273.1258129997513,4.0,0.0,part_2,go,550.0,400.0,1.0,,,,,,,,,cyan,I
0.0,2.0,2.0,0.0,6.0,6.0,309.881721000238,4.0,0.0,part_2,go,550.0,400.0,1.0,,,,,,,,,yellow,cross
0.0,7.0,3.0,1.0,5.0,5.0,277.2832939999716,4.0,0.0,part_2,stop,550.0,400.0,3.0,,,,,,,,,white,square
0.0,7.0,3.0,1.0,5.0,5.0,352.3606150001797,4.0,0.0,part_2,stop,500.0,400.0,3.0,,,,,,,,,white,square
0.0,7.0,3.0,1.0,6.0,6.0,325.8633249997729,4.0,0.0,part_2,go,450.0,400.0,1.0,,,,,,,,,white,square
0.0,6.0,2.0,1.0,5.0,5.0,278.7396979992991,4.0,0.0,part_2,go,450.0,400.0,1.0,,,,,,,,,blue,triangle
0.0,5.0,1.0,1.0,6.0,6.0,275.8530089995474,4.0,0.0,part_2,go,450.0,400.0,1.0,,,,,,,,,green,flipped triangle
0.0,8.0,4.0,1.0,6.0,6.0,325.1167069993244,4.0,0.0,part_2,go,450.0,400.0,1.0,,,,,,,,,gray,hexagon
0.0,2.0,2.0,0.0,6.0,6.0,410.3191500007597,4.0,0.0,part_2,go,450.0,400.0,1.0,,,,,,,,,yellow,cross
0.0,7.0,3.0,1.0,5.0,5.0,480.0680600001215,4.0,0.0,part_2,stop,450.0,400.0,3.0,,,,,,,,,white,square
0.0,8.0,4.0,1.0,5.0,5.0,475.4096549995665,4.0,0.0,part_2,stop,400.0,400.0,3.0,,,,,,,,,gray,hexagon
0.0,2.0,2.0,0.0,5.0,5.0,466.4371910002955,4.0,0.0,part_2,go,350.0,400.0,1.0,,,,,,,,,yellow,cross
0.0,6.0,2.0,1.0,6.0,6.0,361.255505000372,4.0,0.0,part_2,stop,350.0,400.0,3.0,,,,,,,,,blue,triangle
0.0,5.0,1.0,1.0,6.0,6.0,386.1881240000002,4.0,0.0,part_2,go,350.0,350.0,1.0,,,,,,,,,green,flipped triangle
0.0,8.0,4.0,1.0,6.0,0.0,0.0,4.0,0.0,part_2,stop,350.0,350.0,4.0,,,,,,,,,gray,hexagon
0.0,5.0,1.0,1.0,6.0,6.0,453.0573580004784,4.0,0.0,part_2,stop,350.0,400.0,3.0,,,,,,,,,green,flipped triangle
0.0,7.0,3.0,1.0,5.0,5.0,403.5572390002926,4.0,0.0,part_2,go,350.0,350.0,1.0,,,,,,,,,white,square
0.0,4.0,4.0,0.0,5.0,5.0,374.1434319999825,4.0,0.0,part_2,go,350.0,350.0,1.0,,,,,,,,,magenta,circle
0.0,1.0,1.0,0.0,5.0,5.0,581.3150490002954,4.0,0.0,part_2,go,350.0,350.0,1.0,,,,,,,,,orange,diamond
0.0,3.0,3.0,0.0,5.0,5.0,371.9431729996358,4.0,0.0,part_2,go,350.0,350.0,1.0,,,,,,,,,cyan,I
0.0,6.0,2.0,1.0,5.0,5.0,384.0929710004275,4.0,0.0,part_2,stop,350.0,350.0,3.0,,,,,,,,,blue,triangle
0.0,2.0,2.0,0.0,6.0,6.0,421.3590990002558,4.0,0.0,part_2,go,300.0,350.0,1.0,,,,,,,,,yellow,cross
0.0,1.0,1.0,0.0,5.0,5.0,290.72306100079,4.0,0.0,part_2,go,300.0,350.0,1.0,,,,,,,,,orange,diamond
0.0,4.0,4.0,0.0,6.0,6.0,278.5827449997669,4.0,0.0,part_2,go,300.0,350.0,1.0,,,,,,,,,magenta,circle
0.0,2.0,2.0,0.0,6.0,6.0,336.5478220002842,4.0,0.0,part_2,go,300.0,350.0,1.0,,,,,,,,,yellow,cross
0.0,6.0,2.0,1.0,6.0,6.0,315.1567929999146,4.0,0.0,part_2,go,300.0,350.0,1.0,,,,,,,,,blue,triangle
0.0,8.0,4.0,1.0,6.0,6.0,336.4662679996399,4.0,0.0,part_2,stop,300.0,350.0,3.0,,,,,,,,,gray,hexagon
0.0,1.0,1.0,0.0,6.0,6.0,322.9829779993451,4.0,0.0,part_2,go,300.0,300.0,1.0,,,,,,,,,orange,diamond
0.0,1.0,1.0,0.0,6.0,6.0,357.6720400005797,4.0,0.0,part_2,go,300.0,300.0,1.0,,,,,,,,,orange,diamond
0.0,8.0,4.0,1.0,6.0,6.0,326.0828049997144,4.0,0.0,part_2,go,300.0,300.0,1.0,,,,,,,,,gray,hexagon
0.0,4.0,4.0,0.0,6.0,6.0,296.4615830005641,4.0,0.0,part_2,go,300.0,300.0,1.0,,,,,,,,,magenta,circle
0.0,5.0,1.0,1.0,6.0,6.0,340.282823999587,4.0,0.0,part_2,stop,300.0,300.0,3.0,,,,,,,,,green,flipped triangle
0.0,2.0,2.0,0.0,6.0,6.0,380.8530769993012,4.0,0.0,part_2,go,300.0,250.0,1.0,,,,,,,,,yellow,cross
0.0,7.0,3.0,1.0,6.0,6.0,305.5170939996969,4.0,0.0,part_2,stop,300.0,250.0,3.0,,,,,,,,,white,square
0.0,5.0,1.0,1.0,6.0,6.0,403.5114260004775,4.0,0.0,part_2,stop,300.0,200.0,3.0,,,,,,,,,green,flipped triangle
0.0,1.0,1.0,0.0,6.0,6.0,765.4340760000196,5.0,0.0,part_2,go,300.0,150.0,1.0,,,,,,,,,orange,diamond
0.0,6.0,2.0,1.0,6.0,0.0,0.0,5.0,0.0,part_2,stop,300.0,150.0,4.0,,,,,,,,,blue,triangle
0.0,6.0,2.0,1.0,5.0,0.0,0.0,5.0,0.0,part_2,stop,300.0,200.0,4.0,,,,,,,,,blue,triangle
0.0,2.0,2.0,0.0,5.0,5.0,555.2502059999824,5.0,0.0,part_2,go,350.0,200.0,1.0,,,,,,,,,yellow,cross
0.0,2.0,2.0,0.0,5.0,5.0,312.7533679999033,5.0,0.0,part_2,go,350.0,200.0,1.0,,,,,,,,,yellow,cross
0.0,4.0,4.0,0.0,6.0,6.0,381.0568459994101,5.0,0.0,part_2,go,350.0,200.0,1.0,,,,,,,,,magenta,circle
0.0,5.0,1.0,1.0,5.0,0.0,0.0,5.0,0.0,part_2,stop,350.0,200.0,4.0,,,,,,,,,green,flipped triangle
0.0,6.0,2.0,1.0,5.0,5.0,822.8066120000221,5.0,0.0,part_2,go,400.0,200.0,1.0,,,,,,,,,blue,triangle
0.0,2.0,2.0,0.0,6.0,6.0,326.7287019998548,5.0,0.0,part_2,go,400.0,200.0,1.0,,,,,,,,,yellow,cross
0.0,5.0,1.0,1.0,5.0,0.0,0.0,5.0,0.0,part_2,stop,400.0,200.0,4.0,,,,,,,,,green,flipped triangle
0.0,4.0,4.0,0.0,5.0,5.0,539.5993459997044,5.0,0.0,part_2,go,450.0,200.0,1.0,,,,,,,,,magenta,circle
0.0,3.0,3.0,0.0,6.0,6.0,381.0997049995421,5.0,0.0,part_2,go,450.0,200.0,1.0,,,,,,,,,cyan,I
0.0,5.0,1.0,1.0,5.0,5.0,768.5906130000149,5.0,0.0,part_2,go,450.0,200.0,1.0,,,,,,,,,green,flipped triangle
0.0,8.0,4.0,1.0,5.0,0.0,0.0,5.0,0.0,part_2,stop,450.0,200.0,4.0,,,,,,,,,gray,hexagon
0.0,7.0,3.0,1.0,5.0,5.0,654.3579520002822,5.0,0.0,part_2,stop,500.0,200.0,3.0,,,,,,,,,white,square
0.0,4.0,4.0,0.0,5.0,5.0,619.8312480000823,5.0,0.0,part_2,go,450.0,200.0,1.0,,,,,,,,,magenta,circle
0.0,3.0,3.0,0.0,5.0,5.0,535.9605280000324,5.0,0.0,part_2,go,450.0,200.0,1.0,,,,,,,,,cyan,I
0.0,5.0,1.0,1.0,6.0,6.0,401.1515029997099,5.0,0.0,part_2,stop,450.0,200.0,3.0,,,,,,,,,green,flipped triangle
0.0,2.0,2.0,0.0,5.0,5.0,520.3107910001563,5.0,0.0,part_2,go,450.0,150.0,1.0,,,,,,,,,yellow,cross
0.0,1.0,1.0,0.0,5.0,5.0,677.2442799992859,5.0,0.0,part_2,go,450.0,150.0,1.0,,,,,,,,,orange,diamond
0.0,7.0,3.0,1.0,6.0,0.0,0.0,5.0,0.0,part_2,stop,450.0,150.0,4.0,,,,,,,,,white,square
0.0,3.0,3.0,0.0,5.0,5.0,432.0063220002339,5.0,0.0,part_2,go,450.0,200.0,1.0,,,,,,,,,cyan,I
0.0,6.0,2.0,1.0,6.0,6.0,531.1837090002882,5.0,0.0,part_2,go,450.0,200.0,1.0,,,,,,,,,blue,triangle
0.0,1.0,1.0,0.0,6.0,6.0,547.2914900001342,5.0,0.0,part_2,go,450.0,200.0,1.0,,,,,,,,,orange,diamond
0.0,7.0,3.0,1.0,6.0,6.0,657.2651630003747,5.0,0.0,part_2,go,450.0,200.0,1.0,,,,,,,,,white,square
0.0,6.0,2.0,1.0,5.0,5.0,746.5879709998262,5.0,0.0,part_2,stop,450.0,200.0,3.0,,,,,,,,,blue,triangle
0.0,4.0,4.0,0.0,6.0,6.0,542.3452699997142,5.0,0.0,part_2,go,400.0,200.0,1.0,,,,,,,,,magenta,circle
0.0,1.0,1.0,0.0,5.0,5.0,543.6066240008586,5.0,0.0,part_2,go,400.0,200.0,1.0,,,,,,,,,orange,diamond
0.0,1.0,1.0,0.0,6.0,6.0,362.0598349998545,5.0,0.0,part_2,go,400.0,200.0,1.0,,,,,,,,,orange,diamond
0.0,3.0,3.0,0.0,5.0,5.0,576.7508950002593,5.0,0.0,part_2,go,400.0,200.0,1.0,,,,,,,,,cyan,I
0.0,1.0,1.0,0.0,6.0,6.0,310.4468290002842,5.0,0.0,part_2,go,400.0,200.0,1.0,,,,,,,,,orange,diamond
0.0,7.0,3.0,1.0,5.0,5.0,799.0904099997351,5.0,0.0,part_2,go,400.0,200.0,1.0,,,,,,,,,white,square
0.0,4.0,4.0,0.0,6.0,6.0,331.8804929995167,5.0,0.0,part_2,go,400.0,200.0,1.0,,,,,,,,,magenta,circle
0.0,8.0,4.0,1.0,5.0,0.0,0.0,5.0,0.0,part_2,stop,400.0,200.0,4.0,,,,,,,,,gray,hexagon
0.0,4.0,4.0,0.0,5.0,5.0,564.9777990001894,5.0,0.0,part_2,go,450.0,200.0,1.0,,,,,,,,,magenta,circle
0.0,7.0,3.0,1.0,6.0,0.0,0.0,5.0,0.0,part_2,stop,450.0,200.0,4.0,,,,,,,,,white,square
0.0,2.0,2.0,0.0,5.0,5.0,531.3938609997422,6.0,0.0,part_2,go,450.0,250.0,1.0,,,,,,,,,yellow,cross
0.0,1.0,1.0,0.0,5.0,5.0,378.469510999821,6.0,0.0,part_2,go,450.0,250.0,1.0,,,,,,,,,orange,diamond
0.0,8.0,4.0,1.0,6.0,0.0,0.0,6.0,0.0,part_2,stop,450.0,250.0,4.0,,,,,,,,,gray,hexagon
0.0,3.0,3.0,0.0,5.0,5.0,355.4813210002976,6.0,0.0,part_2,go,450.0,300.0,1.0,,,,,,,,,cyan,I
0.0,7.0,3.0,1.0,6.0,0.0,0.0,6.0,0.0,part_2,stop,450.0,300.0,4.0,,,,,,,,,white,square
0.0,6.0,2.0,1.0,6.0,6.0,798.623645000589,6.0,0.0,part_2,go,450.0,350.0,1.0,,,,,,,,,blue,triangle
0.0,7.0,3.0,1.0,5.0,0.0,0.0,6.0,0.0,part_2,stop,450.0,350.0,4.0,,,,,,,,,white,square
0.0,4.0,4.0,0.0,6.0,6.0,462.053805999858,6.0,0.0,part_2,go,500.0,350.0,1.0,,,,,,,,,magenta,circle
0.0,7.0,3.0,1.0,5.0,5.0,651.0554489996139,6.0,0.0,part_2,go,500.0,350.0,1.0,,,,,,,,,white,square
0.0,6.0,2.0,1.0,6.0,0.0,0.0,6.0,0.0,part_2,stop,500.0,350.0,4.0,,,,,,,,,blue,triangle
0.0,7.0,3.0,1.0,6.0,0.0,0.0,6.0,0.0,part_2,stop,500.0,400.0,4.0,,,,,,,,,white,square
0.0,2.0,2.0,0.0,6.0,6.0,533.7150610002936,6.0,0.0,part_2,go,500.0,450.0,1.0,,,,,,,,,yellow,cross
0.0,6.0,2.0,1.0,6.0,0.0,0.0,6.0,0.0,part_2,stop,500.0,450.0,4.0,,,,,,,,,blue,triangle
0.0,5.0,1.0,1.0,6.0,0.0,0.0,6.0,0.0,part_2,stop,500.0,500.0,4.0,,,,,,,,,green,flipped triangle
0.0,4.0,4.0,0.0,6.0,6.0,560.1026690001163,6.0,0.0,part_2,go,500.0,550.0,1.0,,,,,,,,,magenta,circle
0.0,3.0,3.0,0.0,6.0,6.0,331.2951959997008,6.0,0.0,part_2,go,500.0,550.0,1.0,,,,,,,,,cyan,I
0.0,1.0,1.0,0.0,6.0,6.0,312.2099379997962,6.0,0.0,part_2,go,500.0,550.0,1.0,,,,,,,,,orange,diamond
0.0,8.0,4.0,1.0,5.0,5.0,350.9079149998797,6.0,0.0,part_2,stop,500.0,550.0,3.0,,,,,,,,,gray,hexagon
0.0,6.0,2.0,1.0,5.0,0.0,0.0,6.0,0.0,part_2,stop,450.0,550.0,4.0,,,,,,,,,blue,triangle
0.0,1.0,1.0,0.0,5.0,5.0,559.7833680003532,6.0,0.0,part_2,go,500.0,550.0,1.0,,,,,,,,,orange,diamond
0.0,4.0,4.0,0.0,5.0,5.0,545.6605999997919,6.0,0.0,part_2,go,500.0,550.0,1.0,,,,,,,,,magenta,circle
0.0,5.0,1.0,1.0,5.0,0.0,0.0,6.0,0.0,part_2,stop,500.0,550.0,4.0,,,,,,,,,green,flipped triangle
0.0,7.0,3.0,1.0,6.0,6.0,477.4586100002125,6.0,0.0,part_2,stop,550.0,550.0,3.0,,,,,,,,,white,square
0.0,3.0,3.0,0.0,6.0,6.0,433.0639740001061,6.0,0.0,part_2,go,550.0,500.0,1.0,,,,,,,,,cyan,I
0.0,2.0,2.0,0.0,5.0,5.0,319.791931000509,6.0,0.0,part_2,go,550.0,500.0,1.0,,,,,,,,,yellow,cross
0.0,8.0,4.0,1.0,5.0,0.0,0.0,6.0,0.0,part_2,stop,550.0,500.0,4.0,,,,,,,,,gray,hexagon
0.0,1.0,1.0,0.0,5.0,5.0,580.1793229993564,6.0,0.0,part_2,go,600.0,500.0,1.0,,,,,,,,,orange,diamond
0.0,1.0,1.0,0.0,6.0,6.0,532.6121119996969,6.0,0.0,part_2,go,600.0,500.0,1.0,,,,,,,,,orange,diamond
0.0,8.0,4.0,1.0,5.0,5.0,652.7622480007267,6.0,0.0,part_2,stop,600.0,500.0,3.0,,,,,,,,,gray,hexagon
0.0,8.0,4.0,1.0,6.0,0.0,0.0,6.0,0.0,part_2,stop,550.0,500.0,4.0,,,,,,,,,gray,hexagon
0.0,3.0,3.0,0.0,5.0,5.0,497.7911189998849,6.0,0.0,part_2,go,550.0,550.0,1.0,,,,,,,,,cyan,I
0.0,8.0,4.0,1.0,5.0,5.0,721.7127760004587,6.0,0.0,part_2,go,550.0,550.0,1.0,,,,,,,,,gray,hexagon
0.0,5.0,1.0,1.0,5.0,0.0,0.0,6.0,0.0,part_2,stop,550.0,550.0,4.0,,,,,,,,,green,flipped triangle
0.0,6.0,2.0,1.0,6.0,0.0,0.0,6.0,0.0,part_2,stop,600.0,550.0,4.0,,,,,,,,,blue,triangle
0.0,3.0,3.0,0.0,6.0,6.0,474.4343940001272,6.0,0.0,part_2,go,600.0,600.0,1.0,,,,,,,,,cyan,I
0.0,2.0,2.0,0.0,6.0,6.0,359.9752510008329,6.0,0.0,part_2,go,600.0,600.0,1.0,,,,,,,,,yellow,cross
0.0,2.0,2.0,0.0,5.0,5.0,461.861332000808,7.0,0.0,part_2,go,600.0,600.0,1.0,,,,,,,,,yellow,cross
0.0,5.0,1.0,1.0,6.0,6.0,719.5499250001376,7.0,0.0,part_2,go,600.0,600.0,1.0,,,,,,,,,green,flipped triangle
0.0,2.0,2.0,0.0,5.0,5.0,334.3498790000012,7.0,0.0,part_2,go,600.0,600.0,1.0,,,,,,,,,yellow,cross
0.0,6.0,2.0,1.0,5.0,5.0,324.8837529999946,7.0,0.0,part_2,stop,600.0,600.0,3.0,,,,,,,,,blue,triangle
0.0,5.0,1.0,1.0,6.0,6.0,672.9060699999536,7.0,0.0,part_2,go,550.0,600.0,1.0,,,,,,,,,green,flipped triangle
0.0,2.0,2.0,0.0,6.0,6.0,471.5507319997414,7.0,0.0,part_2,go,550.0,600.0,1.0,,,,,,,,,yellow,cross
0.0,4.0,4.0,0.0,6.0,6.0,415.0231600006009,7.0,0.0,part_2,go,550.0,600.0,1.0,,,,,,,,,magenta,circle
0.0,3.0,3.0,0.0,6.0,6.0,353.9077690002159,7.0,0.0,part_2,go,550.0,600.0,1.0,,,,,,,,,cyan,I
0.0,5.0,1.0,1.0,5.0,5.0,685.5966610000905,7.0,0.0,part_2,stop,550.0,600.0,3.0,,,,,,,,,green,flipped triangle
0.0,4.0,4.0,0.0,5.0,5.0,475.0282449995211,7.0,0.0,part_2,go,500.0,600.0,1.0,,,,,,,,,magenta,circle
0.0,7.0,3.0,1.0,6.0,6.0,714.8304590000407,7.0,0.0,part_2,stop,500.0,600.0,3.0,,,,,,,,,white,square
0.0,5.0,1.0,1.0,5.0,0.0,0.0,7.0,0.0,part_2,stop,500.0,550.0,4.0,,,,,,,,,green,flipped triangle
0.0,7.0,3.0,1.0,6.0,6.0,817.6504670000213,7.0,0.0,part_2,stop,550.0,550.0,3.0,,,,,,,,,white,square
0.0,4.0,4.0,0.0,6.0,6.0,726.8245019995447,7.0,0.0,part_2,go,550.0,500.0,1.0,,,,,,,,,magenta,circle
0.0,1.0,1.0,0.0,5.0,5.0,458.7977010005488,7.0,0.0,part_2,go,550.0,500.0,1.0,,,,,,,,,orange,diamond
0.0,1.0,1.0,0.0,6.0,6.0,472.4748369999361,7.0,0.0,part_2,go,550.0,500.0,1.0,,,,,,,,,orange,diamond
0.0,6.0,2.0,1.0,6.0,0.0,0.0,7.0,0.0,part_2,stop,550.0,500.0,4.0,,,,,,,,,blue,triangle
0.0,6.0,2.0,1.0,6.0,0.0,0.0,7.0,0.0,part_2,stop,550.0,550.0,4.0,,,,,,,,,blue,triangle
0.0,1.0,1.0,0.0,5.0,5.0,577.1694539998862,7.0,0.0,part_2,go,550.0,600.0,1.0,,,,,,,,,orange,diamond
0.0,8.0,4.0,1.0,6.0,6.0,1112.375757999871,7.0,0.0,part_2,go,550.0,600.0,1.0,,,,,,,,,gray,hexagon
0.0,2.0,2.0,0.0,5.0,5.0,459.8898739996002,7.0,0.0,part_2,go,550.0,600.0,1.0,,,,,,,,,yellow,cross
0.0,4.0,4.0,0.0,6.0,6.0,337.2455990001981,7.0,0.0,part_2,go,550.0,600.0,1.0,,,,,,,,,magenta,circle
0.0,6.0,2.0,1.0,6.0,6.0,698.537058000511,7.0,0.0,part_2,stop,550.0,600.0,3.0,,,,,,,,,blue,triangle
0.0,4.0,4.0,0.0,5.0,5.0,425.1185729999633,7.0,0.0,part_2,go,550.0,550.0,1.0,,,,,,,,,magenta,circle
0.0,4.0,4.0,0.0,6.0,6.0,446.2536920000275,7.0,0.0,part_2,go,550.0,550.0,1.0,,,,,,,,,magenta,circle
0.0,1.0,1.0,0.0,5.0,5.0,481.1540199998489,7.0,0.0,part_2,go,550.0,550.0,1.0,,,,,,,,,orange,diamond
0.0,5.0,1.0,1.0,5.0,5.0,298.8729869994131,7.0,0.0,part_2,stop,550.0,550.0,3.0,,,,,,,,,green,flipped triangle
0.0,6.0,2.0,1.0,6.0,0.0,0.0,7.0,0.0,part_2,stop,500.0,550.0,4.0,,,,,,,,,blue,triangle
0.0,6.0,2.0,1.0,6.0,6.0,812.6993789992412,7.0,0.0,part_2,go,500.0,600.0,1.0,,,,,,,,,blue,triangle
0.0,5.0,1.0,1.0,5.0,5.0,805.9573749997071,7.0,0.0,part_2,go,500.0,600.0,1.0,,,,,,,,,green,flipped triangle
0.0,7.0,3.0,1.0,6.0,6.0,668.8957340002162,7.0,0.0,part_2,stop,500.0,600.0,3.0,,,,,,,,,white,square
0.0,5.0,1.0,1.0,6.0,0.0,0.0,7.0,0.0,part_2,stop,500.0,550.0,4.0,,,,,,,,,green,flipped triangle
0.0,3.0,3.0,0.0,5.0,5.0,460.1223870004105,7.0,0.0,part_2,go,500.0,600.0,1.0,,,,,,,,,cyan,I
0.0,6.0,2.0,1.0,6.0,6.0,751.6237820000242,7.0,0.0,part_2,stop,500.0,600.0,3.0,,,,,,,,,blue,triangle
0.0,5.0,1.0,1.0,6.0,0.0,0.0,7.0,0.0,part_2,stop,500.0,550.0,4.0,,,,,,,,,green,flipped triangle
0.0,2.0,2.0,0.0,5.0,5.0,557.6174210000318,7.0,0.0,part_2,go,500.0,600.0,1.0,,,,,,,,,yellow,cross
0.0,7.0,3.0,1.0,5.0,5.0,302.6781019998452,8.0,0.0,part_2,go,500.0,600.0,1.0,,,,,,,,,white,square
0.0,5.0,1.0,1.0,5.0,0.0,0.0,8.0,0.0,part_2,stop,500.0,600.0,4.0,,,,,,,,,green,flipped triangle
0.0,6.0,2.0,1.0,5.0,0.0,0.0,8.0,0.0,part_2,stop,550.0,600.0,4.0,,,,,,,,,blue,triangle
0.0,5.0,1.0,1.0,6.0,6.0,859.8755659995732,8.0,0.0,part_2,go,600.0,600.0,1.0,,,,,,,,,green,flipped triangle
0.0,3.0,3.0,0.0,6.0,6.0,441.1810189994867,8.0,0.0,part_2,go,600.0,600.0,1.0,,,,,,,,,cyan,I
0.0,7.0,3.0,1.0,5.0,5.0,663.846590000503,8.0,0.0,part_2,stop,600.0,600.0,3.0,,,,,,,,,white,square
0.0,3.0,3.0,0.0,5.0,5.0,482.3801259999527,8.0,0.0,part_2,go,550.0,600.0,1.0,,,,,,,,,cyan,I
0.0,1.0,1.0,0.0,6.0,6.0,474.5923480004421,8.0,0.0,part_2,go,550.0,600.0,1.0,,,,,,,,,orange,diamond
0.0,7.0,3.0,1.0,6.0,6.0,755.9528479996516,8.0,0.0,part_2,stop,550.0,600.0,3.0,,,,,,,,,white,square
0.0,5.0,1.0,1.0,5.0,5.0,877.8081159998692,8.0,0.0,part_2,go,550.0,550.0,1.0,,,,,,,,,green,flipped triangle
0.0,3.0,3.0,0.0,6.0,6.0,466.2447419996169,8.0,0.0,part_2,go,550.0,550.0,1.0,,,,,,,,,cyan,I
0.0,2.0,2.0,0.0,5.0,5.0,494.0106439998999,8.0,0.0,part_2,go,550.0,550.0,1.0,,,,,,,,,yellow,cross
0.0,2.0,2.0,0.0,6.0,6.0,318.8755060000403,8.0,0.0,part_2,go,550.0,550.0,1.0,,,,,,,,,yellow,cross
0.0,8.0,4.0,1.0,6.0,6.0,378.4123599998565,8.0,0.0,part_2,stop,550.0,550.0,3.0,,,,,,,,,gray,hexagon
0.0,4.0,4.0,0.0,5.0,5.0,491.8127210003149,8.0,0.0,part_2,go,550.0,500.0,1.0,,,,,,,,,magenta,circle
0.0,7.0,3.0,1.0,6.0,0.0,0.0,8.0,0.0,part_2,stop,550.0,500.0,4.0,,,,,,,,,white,square
0.0,1.0,1.0,0.0,5.0,5.0,517.5862669993876,8.0,0.0,part_2,go,550.0,550.0,1.0,,,,,,,,,orange,diamond
0.0,3.0,3.0,0.0,6.0,6.0,421.4575450005213,8.0,0.0,part_2,go,550.0,550.0,1.0,,,,,,,,,cyan,I
0.0,3.0,3.0,0.0,6.0,6.0,387.991239999792,8.0,0.0,part_2,go,550.0,550.0,1.0,,,,,,,,,cyan,I
0.0,1.0,1.0,0.0,6.0,6.0,361.2342349997561,8.0,0.0,part_2,go,550.0,550.0,1.0,,,,,,,,,orange,diamond
0.0,5.0,1.0,1.0,5.0,5.0,296.4771349998045,8.0,0.0,part_2,stop,550.0,550.0,3.0,,,,,,,,,green,flipped triangle
0.0,4.0,4.0,0.0,5.0,5.0,481.7444079999404,8.0,0.0,part_2,go,500.0,550.0,1.0,,,,,,,,,magenta,circle
0.0,6.0,2.0,1.0,6.0,0.0,0.0,8.0,0.0,part_2,stop,500.0,550.0,4.0,,,,,,,,,blue,triangle
0.0,7.0,3.0,1.0,5.0,5.0,873.974258999624,8.0,0.0,part_2,go,500.0,600.0,1.0,,,,,,,,,white,square
0.0,8.0,4.0,1.0,6.0,6.0,863.998750999599,8.0,0.0,part_2,go,500.0,600.0,1.0,,,,,,,,,gray,hexagon
0.0,1.0,1.0,0.0,6.0,6.0,421.2246600000071,8.0,0.0,part_2,go,500.0,600.0,1.0,,,,,,,,,orange,diamond
0.0,5.0,1.0,1.0,6.0,6.0,757.7156780007499,8.0,0.0,part_2,stop,500.0,600.0,3.0,,,,,,,,,green,flipped triangle
0.0,3.0,3.0,0.0,5.0,5.0,454.8792069999763,8.0,0.0,part_2,go,500.0,550.0,1.0,,,,,,,,,cyan,I
0.0,6.0,2.0,1.0,6.0,0.0,0.0,8.0,0.0,part_2,stop,500.0,550.0,4.0,,,,,,,,,blue,triangle
0.0,8.0,4.0,1.0,5.0,0.0,0.0,8.0,0.0,part_2,stop,500.0,600.0,4.0,,,,,,,,,gray,hexagon
0.0,3.0,3.0,0.0,5.0,5.0,486.4732840005672,8.0,0.0,part_2,go,550.0,600.0,1.0,,,,,,,,,cyan,I
0.0,4.0,4.0,0.0,5.0,5.0,533.6470680003913,8.0,0.0,part_2,go,550.0,600.0,1.0,,,,,,,,,magenta,circle
0.0,8.0,4.0,1.0,6.0,0.0,0.0,8.0,0.0,part_2,stop,550.0,600.0,4.0,,,,,,,,,gray,hexagon
0.0,2.0,2.0,0.0,5.0,5.0,465.2835580000101,8.0,0.0,part_2,go,550.0,650.0,1.0,,,,,,,,,yellow,cross
0.0,2.0,2.0,0.0,6.0,6.0,381.6520149994176,8.0,0.0,part_2,go,550.0,650.0,1.0,,,,,,,,,yellow,cross
0.0,3.0,3.0,0.0,6.0,6.0,493.0801099999371,8.0,0.0,part_2,go,550.0,650.0,1.0,,,,,,,,,cyan,I
0.0,4.0,4.0,0.0,7.0,3.0,4617.587701999582,1.0,1.0,part_3,go,0.0,0.0,0.0,324.0,6.0,162.0,270.0,324.0,54.0,108.0,216.0,magenta,circle
0.0,8.0,4.0,1.0,7.0,1.0,1060.6415839993133,1.0,2.0,part_3,go,0.0,0.0,0.0,170.0,5.0,170.0,68.0,204.0,34.0,136.0,102.0,gray,hexagon
0.0,7.0,3.0,1.0,7.0,2.0,1809.7358240001995,1.0,1.0,part_3,go,0.0,0.0,0.0,88.0,2.0,264.0,88.0,176.0,44.0,220.0,132.0,white,square
0.0,4.0,4.0,0.0,7.0,2.0,1774.3120690001888,1.0,1.0,part_3,go,0.0,0.0,0.0,170.0,5.0,34.0,170.0,136.0,102.0,204.0,68.0,magenta,circle
0.0,3.0,3.0,0.0,7.0,4.0,2820.463861999997,1.0,1.0,part_3,go,0.0,0.0,0.0,264.0,6.0,132.0,220.0,176.0,264.0,44.0,88.0,cyan,I
0.0,2.0,2.0,0.0,7.0,5.0,1663.387307999983,1.0,1.0,part_3,go,0.0,0.0,0.0,234.0,6.0,156.0,117.0,39.0,78.0,234.0,195.0,yellow,cross
0.0,7.0,3.0,1.0,7.0,3.0,1684.091021000313,1.0,1.0,part_3,go,0.0,0.0,0.0,49.0,1.0,294.0,196.0,49.0,245.0,98.0,147.0,white,square
0.0,3.0,3.0,0.0,7.0,1.0,1843.4969130003085,1.0,1.0,part_3,go,0.0,0.0,0.0,245.0,5.0,245.0,147.0,98.0,49.0,294.0,196.0,cyan,I
0.0,6.0,2.0,1.0,7.0,3.0,1341.2128219997612,1.0,1.0,part_3,go,0.0,0.0,0.0,49.0,1.0,98.0,196.0,49.0,147.0,294.0,245.0,blue,triangle
0.0,8.0,4.0,1.0,7.0,2.0,1177.1985150007822,1.0,1.0,part_3,go,0.0,0.0,0.0,176.0,4.0,88.0,176.0,264.0,44.0,132.0,220.0,gray,hexagon
0.0,5.0,1.0,1.0,7.0,4.0,2327.44516799994,1.0,1.0,part_3,go,0.0,0.0,0.0,196.0,4.0,294.0,147.0,245.0,196.0,49.0,98.0,green,flipped triangle
0.0,7.0,3.0,1.0,7.0,4.0,1436.8221450004055,1.0,1.0,part_3,go,0.0,0.0,0.0,39.0,1.0,195.0,117.0,78.0,39.0,156.0,234.0,white,square
0.0,7.0,3.0,1.0,7.0,5.0,1416.6731870000149,1.0,1.0,part_3,go,0.0,0.0,0.0,54.0,1.0,270.0,108.0,162.0,324.0,54.0,216.0,white,square
0.0,4.0,4.0,0.0,7.0,4.0,1364.6169200001168,1.0,1.0,part_3,go,0.0,0.0,0.0,245.0,5.0,147.0,294.0,98.0,245.0,49.0,196.0,magenta,circle
0.0,6.0,2.0,1.0,7.0,4.0,1466.1494849997323,1.0,1.0,part_3,go,0.0,0.0,0.0,34.0,1.0,102.0,170.0,204.0,34.0,136.0,68.0,blue,triangle
0.0,5.0,1.0,1.0,7.0,3.0,2691.707296000459,1.0,1.0,part_3,go,0.0,0.0,0.0,108.0,2.0,54.0,270.0,108.0,324.0,216.0,162.0,green,flipped triangle
0.0,2.0,2.0,0.0,7.0,4.0,1690.2330030006851,1.0,1.0,part_3,go,0.0,0.0,0.0,234.0,6.0,195.0,78.0,39.0,234.0,156.0,117.0,yellow,cross
0.0,5.0,1.0,1.0,7.0,2.0,2237.1953439997014,1.0,1.0,part_3,go,0.0,0.0,0.0,78.0,2.0,234.0,78.0,156.0,117.0,39.0,195.0,green,flipped triangle
0.0,2.0,2.0,0.0,7.0,5.0,1262.9414020002514,1.0,1.0,part_3,go,0.0,0.0,0.0,324.0,6.0,54.0,216.0,162.0,108.0,324.0,270.0,yellow,cross
0.0,1.0,1.0,0.0,7.0,3.0,2556.2045970000327,1.0,1.0,part_3,go,0.0,0.0,0.0,294.0,6.0,49.0,245.0,294.0,196.0,147.0,98.0,orange,diamond
0.0,2.0,2.0,0.0,7.0,2.0,1784.8554390002391,2.0,1.0,part_3,go,0.0,0.0,0.0,102.0,3.0,204.0,102.0,34.0,136.0,68.0,170.0,yellow,cross
0.0,4.0,4.0,0.0,7.0,2.0,1184.267417999763,2.0,1.0,part_3,go,0.0,0.0,0.0,270.0,5.0,324.0,270.0,216.0,162.0,54.0,108.0,magenta,circle
0.0,3.0,3.0,0.0,7.0,2.0,2174.77449999933,2.0,1.0,part_3,go,0.0,0.0,0.0,204.0,6.0,170.0,204.0,34.0,136.0,102.0,68.0,cyan,I
0.0,1.0,1.0,0.0,7.0,5.0,2206.754920000094,2.0,1.0,part_3,go,0.0,0.0,0.0,102.0,3.0,136.0,68.0,170.0,34.0,102.0,204.0,orange,diamond
0.0,3.0,3.0,0.0,7.0,3.0,1545.8185759998742,2.0,1.0,part_3,go,0.0,0.0,0.0,117.0,3.0,195.0,78.0,117.0,156.0,39.0,234.0,cyan,I
0.0,1.0,1.0,0.0,7.0,1.0,2070.843866999894,2.0,1.0,part_3,go,0.0,0.0,0.0,132.0,3.0,132.0,176.0,44.0,264.0,88.0,220.0,orange,diamond
0.0,1.0,1.0,0.0,7.0,6.0,1706.934213999375,2.0,1.0,part_3,go,0.0,0.0,0.0,117.0,3.0,195.0,234.0,156.0,39.0,78.0,117.0,orange,diamond
0.0,1.0,1.0,0.0,7.0,3.0,1475.353408999581,2.0,1.0,part_3,go,0.0,0.0,0.0,136.0,4.0,170.0,34.0,136.0,102.0,68.0,204.0,orange,diamond
0.0,7.0,3.0,1.0,7.0,1.0,1401.4480259993434,2.0,1.0,part_3,go,0.0,0.0,0.0,54.0,1.0,54.0,324.0,162.0,108.0,216.0,270.0,white,square
0.0,4.0,4.0,0.0,7.0,1.0,1822.5857079996783,2.0,1.0,part_3,go,0.0,0.0,0.0,234.0,6.0,234.0,78.0,39.0,156.0,195.0,117.0,magenta,circle
0.0,3.0,3.0,0.0,7.0,5.0,1160.653795000144,2.0,1.0,part_3,go,0.0,0.0,0.0,156.0,4.0,234.0,195.0,117.0,78.0,156.0,39.0,cyan,I
0.0,2.0,2.0,0.0,7.0,3.0,1032.7521499993964,2.0,1.0,part_3,go,0.0,0.0,0.0,204.0,6.0,102.0,170.0,204.0,68.0,136.0,34.0,yellow,cross
0.0,4.0,4.0,0.0,7.0,5.0,1205.048992999764,2.0,1.0,part_3,go,0.0,0.0,0.0,176.0,4.0,264.0,220.0,132.0,88.0,176.0,44.0,magenta,circle
0.0,8.0,4.0,1.0,7.0,2.0,1903.6607529997127,2.0,1.0,part_3,go,0.0,0.0,0.0,245.0,5.0,196.0,245.0,294.0,147.0,49.0,98.0,gray,hexagon
0.0,5.0,1.0,1.0,7.0,3.0,1259.592459000487,2.0,1.0,part_3,go,0.0,0.0,0.0,108.0,2.0,324.0,162.0,108.0,216.0,270.0,54.0,green,flipped triangle
0.0,3.0,3.0,0.0,7.0,4.0,1989.047689000472,2.0,1.0,part_3,go,0.0,0.0,0.0,294.0,6.0,245.0,147.0,196.0,294.0,49.0,98.0,cyan,I
0.0,6.0,2.0,1.0,7.0,1.0,1770.6377769991375,2.0,1.0,part_3,go,0.0,0.0,0.0,54.0,1.0,54.0,216.0,108.0,162.0,324.0,270.0,blue,triangle
0.0,4.0,4.0,0.0,7.0,3.0,1495.585581999876,2.0,1.0,part_3,go,0.0,0.0,0.0,136.0,4.0,102.0,170.0,136.0,68.0,34.0,204.0,magenta,circle
0.0,8.0,4.0,1.0,7.0,5.0,1465.1576370006296,2.0,1.0,part_3,go,0.0,0.0,0.0,49.0,1.0,294.0,196.0,245.0,98.0,49.0,147.0,gray,hexagon
0.0,6.0,2.0,1.0,7.0,2.0,1599.3672799995693,2.0,1.0,part_3,go,0.0,0.0,0.0,44.0,1.0,264.0,44.0,176.0,132.0,88.0,220.0,blue,triangle
0.0,1.0,1.0,0.0,7.0,1.0,1566.8255959999442,3.0,1.0,part_3,go,0.0,0.0,0.0,294.0,6.0,294.0,245.0,98.0,147.0,196.0,49.0,orange,diamond
0.0,8.0,4.0,1.0,7.0,3.0,1428.8233079996644,3.0,1.0,part_3,go,0.0,0.0,0.0,68.0,2.0,204.0,102.0,68.0,170.0,136.0,34.0,gray,hexagon
0.0,7.0,3.0,1.0,7.0,5.0,1638.9195340007063,3.0,1.0,part_3,go,0.0,0.0,0.0,34.0,1.0,68.0,170.0,102.0,136.0,34.0,204.0,white,square
0.0,2.0,2.0,0.0,7.0,3.0,1821.5852700004689,3.0,1.0,part_3,go,0.0,0.0,0.0,324.0,6.0,162.0,216.0,324.0,270.0,108.0,54.0,yellow,cross
0.0,5.0,1.0,1.0,7.0,3.0,770.3105129994583,3.0,1.0,part_3,go,0.0,0.0,0.0,68.0,2.0,136.0,102.0,68.0,170.0,204.0,34.0,green,flipped triangle
0.0,4.0,4.0,0.0,7.0,4.0,1399.2953240003771,3.0,1.0,part_3,go,0.0,0.0,0.0,294.0,6.0,245.0,98.0,49.0,294.0,196.0,147.0,magenta,circle
0.0,1.0,1.0,0.0,7.0,4.0,1085.0087589997202,3.0,1.0,part_3,go,0.0,0.0,0.0,324.0,6.0,54.0,216.0,270.0,324.0,108.0,162.0,orange,diamond
0.0,6.0,2.0,1.0,7.0,3.0,1587.0538930003022,3.0,1.0,part_3,go,0.0,0.0,0.0,39.0,1.0,78.0,156.0,39.0,195.0,117.0,234.0,blue,triangle
0.0,2.0,2.0,0.0,7.0,6.0,1400.9048670004631,3.0,1.0,part_3,go,0.0,0.0,0.0,44.0,1.0,264.0,176.0,88.0,132.0,220.0,44.0,yellow,cross
0.0,3.0,3.0,0.0,7.0,1.0,2256.3958199998524,3.0,1.0,part_3,go,0.0,0.0,0.0,204.0,6.0,204.0,136.0,34.0,170.0,102.0,68.0,cyan,I
0.0,2.0,2.0,0.0,7.0,4.0,1187.8350449997015,3.0,1.0,part_3,go,0.0,0.0,0.0,245.0,5.0,49.0,147.0,196.0,245.0,294.0,98.0,yellow,cross
0.0,8.0,4.0,1.0,7.0,1.0,1488.4232780004822,3.0,1.0,part_3,go,0.0,0.0,0.0,39.0,1.0,39.0,234.0,195.0,156.0,117.0,78.0,gray,hexagon
0.0,6.0,2.0,1.0,7.0,3.0,1131.6480919995229,3.0,1.0,part_3,go,0.0,0.0,0.0,68.0,2.0,102.0,204.0,68.0,170.0,34.0,136.0,blue,triangle
0.0,7.0,3.0,1.0,7.0,5.0,1594.203233999906,3.0,1.0,part_3,go,0.0,0.0,0.0,49.0,1.0,294.0,147.0,196.0,245.0,49.0,98.0,white,square
0.0,2.0,2.0,0.0,7.0,6.0,1896.683077000489,3.0,1.0,part_3,go,0.0,0.0,0.0,294.0,6.0,98.0,245.0,49.0,196.0,147.0,294.0,yellow,cross
0.0,6.0,2.0,1.0,7.0,5.0,1289.9003380007343,3.0,1.0,part_3,go,0.0,0.0,0.0,98.0,2.0,245.0,294.0,147.0,196.0,98.0,49.0,blue,triangle
0.0,6.0,2.0,1.0,7.0,2.0,1727.614834000633,3.0,1.0,part_3,go,0.0,0.0,0.0,39.0,1.0,156.0,39.0,117.0,195.0,78.0,234.0,blue,triangle
0.0,5.0,1.0,1.0,7.0,3.0,1398.55499299847,3.0,1.0,part_3,go,0.0,0.0,0.0,136.0,4.0,34.0,204.0,136.0,102.0,68.0,170.0,green,flipped triangle
0.0,8.0,4.0,1.0,7.0,1.0,1462.513209000463,3.0,1.0,part_3,go,0.0,0.0,0.0,132.0,3.0,132.0,220.0,88.0,264.0,176.0,44.0,gray,hexagon
0.0,8.0,4.0,1.0,7.0,4.0,1660.336182998435,3.0,1.0,part_3,go,0.0,0.0,0.0,108.0,2.0,216.0,324.0,54.0,108.0,162.0,270.0,gray,hexagon
0.0,7.0,3.0,1.0,7.0,1.0,1353.696273999958,4.0,1.0,part_3,go,0.0,0.0,0.0,88.0,2.0,88.0,176.0,132.0,220.0,264.0,44.0,white,square
0.0,1.0,1.0,0.0,7.0,5.0,1601.7899779999425,4.0,1.0,part_3,go,0.0,0.0,0.0,176.0,4.0,132.0,44.0,88.0,220.0,176.0,264.0,orange,diamond
0.0,7.0,3.0,1.0,7.0,6.0,1984.6152410009379,4.0,1.0,part_3,go,0.0,0.0,0.0,39.0,1.0,156.0,195.0,117.0,234.0,78.0,39.0,white,square
0.0,5.0,1.0,1.0,7.0,2.0,1931.2499269999537,4.0,1.0,part_3,go,0.0,0.0,0.0,176.0,4.0,88.0,176.0,220.0,264.0,132.0,44.0,green,flipped triangle
0.0,7.0,3.0,1.0,7.0,5.0,1816.0343340005056,4.0,1.0,part_3,go,0.0,0.0,0.0,34.0,1.0,170.0,102.0,68.0,204.0,34.0,136.0,white,square
0.0,3.0,3.0,0.0,7.0,4.0,1608.0956990008417,4.0,1.0,part_3,go,0.0,0.0,0.0,270.0,5.0,54.0,108.0,216.0,270.0,162.0,324.0,cyan,I
0.0,1.0,1.0,0.0,7.0,1.0,1553.7043069998615,4.0,1.0,part_3,go,0.0,0.0,0.0,195.0,5.0,195.0,156.0,39.0,117.0,78.0,234.0,orange,diamond
0.0,8.0,4.0,1.0,7.0,3.0,2261.614904999078,4.0,1.0,part_3,go,0.0,0.0,0.0,162.0,3.0,108.0,324.0,162.0,54.0,270.0,216.0,gray,hexagon
0.0,5.0,1.0,1.0,7.0,3.0,1525.1878740000393,4.0,1.0,part_3,go,0.0,0.0,0.0,147.0,3.0,196.0,294.0,147.0,49.0,245.0,98.0,green,flipped triangle
0.0,6.0,2.0,1.0,7.0,5.0,1192.2884159994285,4.0,1.0,part_3,go,0.0,0.0,0.0,44.0,1.0,88.0,220.0,176.0,264.0,44.0,132.0,blue,triangle
0.0,5.0,1.0,1.0,7.0,1.0,1303.313379001338,4.0,1.0,part_3,go,0.0,0.0,0.0,78.0,2.0,78.0,156.0,195.0,117.0,39.0,234.0,green,flipped triangle
0.0,4.0,4.0,0.0,7.0,1.0,1508.5972109991417,4.0,1.0,part_3,go,0.0,0.0,0.0,264.0,6.0,264.0,176.0,44.0,132.0,220.0,88.0,magenta,circle
0.0,8.0,4.0,1.0,7.0,2.0,1680.0891929997306,4.0,1.0,part_3,go,0.0,0.0,0.0,117.0,3.0,78.0,117.0,234.0,39.0,195.0,156.0,gray,hexagon
0.0,5.0,1.0,1.0,7.0,1.0,2072.886997000751,4.0,1.0,part_3,go,0.0,0.0,0.0,132.0,3.0,132.0,220.0,176.0,264.0,44.0,88.0,green,flipped triangle
0.0,1.0,1.0,0.0,7.0,5.0,1628.5146030004398,4.0,1.0,part_3,go,0.0,0.0,0.0,324.0,6.0,162.0,108.0,54.0,216.0,324.0,270.0,orange,diamond
0.0,3.0,3.0,0.0,7.0,4.0,1414.897533999465,4.0,1.0,part_3,go,0.0,0.0,0.0,264.0,6.0,44.0,220.0,176.0,264.0,132.0,88.0,cyan,I
0.0,4.0,4.0,0.0,7.0,5.0,1647.108634999313,4.0,1.0,part_3,go,0.0,0.0,0.0,234.0,6.0,39.0,117.0,78.0,156.0,234.0,195.0,magenta,circle
0.0,3.0,3.0,0.0,7.0,2.0,1147.6615520004998,4.0,1.0,part_3,go,0.0,0.0,0.0,324.0,6.0,162.0,324.0,270.0,54.0,216.0,108.0,cyan,I
0.0,2.0,2.0,0.0,7.0,5.0,1183.4041190013522,4.0,1.0,part_3,go,0.0,0.0,0.0,264.0,6.0,44.0,176.0,220.0,88.0,264.0,132.0,yellow,cross
0.0,6.0,2.0,1.0,7.0,3.0,1984.4890679996752,4.0,1.0,part_3,go,0.0,0.0,0.0,216.0,4.0,54.0,162.0,216.0,270.0,108.0,324.0,blue,triangle
