raw_reward_magnitude,stim_reward,stepwise_reward_magnitude,paired_with_stopping,stim_location,response,reaction_time,block,num_trial_presentations,which_phase,stop_signal_trial_type,left_SSD,right_SSD,accuracy,chosen_bidding_amount,chosen_bidding_level,possible_bid_1,possible_bid_2,possible_bid_3,possible_bid_4,possible_bid_5,possible_bid_6,color_text,shape_text
50.0,1.0,1.0,0.0,2.0,2.0,305.0351330002741,1.0,1.0,phase_1,,,,,,,,,,,,,white,flipped triangle
409.0,8.0,4.0,1.0,2.0,2.0,249.3491820000599,1.0,1.0,phase_1,,,,,,,,,,,,,cyan,hexagon
204.0,3.0,3.0,0.0,3.0,3.0,282.2507570003836,1.0,1.0,phase_1,,,,,,,,,,,,,green,diamond
54.0,1.0,1.0,0.0,2.0,2.0,250.3161460003866,1.0,1.0,phase_1,,,,,,,,,,,,,white,flipped triangle
210.0,7.0,3.0,1.0,1.0,1.0,261.4379449996704,1.0,1.0,phase_1,,,,,,,,,,,,,gray,square
0.0,7.0,0.0,1.0,4.0,4.0,234.1078570002537,1.0,1.0,phase_1,,,,,,,,,,,,,gray,square
415.0,4.0,4.0,0.0,1.0,1.0,274.9577660001705,1.0,2.0,phase_1,,,,,,,,,,,,,magenta,cross
0.0,5.0,0.0,1.0,1.0,1.0,265.3104099999837,1.0,1.0,phase_1,,,,,,,,,,,,,yellow,I
52.0,5.0,1.0,1.0,4.0,4.0,305.7347830003891,1.0,1.0,phase_1,,,,,,,,,,,,,yellow,I
183.0,3.0,3.0,0.0,4.0,4.0,249.825901999884,1.0,1.0,phase_1,,,,,,,,,,,,,green,diamond
29.0,5.0,1.0,1.0,4.0,4.0,315.1672839999264,1.0,1.0,phase_1,,,,,,,,,,,,,yellow,I
0.0,3.0,0.0,0.0,3.0,3.0,285.9754619998966,1.0,1.0,phase_1,,,,,,,,,,,,,green,diamond
26.0,1.0,1.0,0.0,4.0,4.0,244.6526570001879,1.0,1.0,phase_1,,,,,,,,,,,,,white,flipped triangle
81.0,6.0,2.0,1.0,2.0,2.0,267.9000810003344,1.0,1.0,phase_1,,,,,,,,,,,,,blue,triangle
122.0,2.0,2.0,0.0,2.0,2.0,281.1609619998307,1.0,1.0,phase_1,,,,,,,,,,,,,orange,circle
392.0,8.0,4.0,1.0,2.0,2.0,250.7515940001212,1.0,1.0,phase_1,,,,,,,,,,,,,cyan,hexagon
404.0,4.0,4.0,0.0,2.0,2.0,266.9537599999785,1.0,1.0,phase_1,,,,,,,,,,,,,magenta,cross
66.0,5.0,1.0,1.0,3.0,3.0,277.693587000158,1.0,1.0,phase_1,,,,,,,,,,,,,yellow,I
25.0,1.0,1.0,0.0,3.0,3.0,268.1738989999758,1.0,1.0,phase_1,,,,,,,,,,,,,white,flipped triangle
401.0,8.0,4.0,1.0,1.0,1.0,236.6520350001337,1.0,1.0,phase_1,,,,,,,,,,,,,cyan,hexagon
391.0,4.0,4.0,0.0,2.0,2.0,266.0266620000584,1.0,1.0,phase_1,,,,,,,,,,,,,magenta,cross
381.0,4.0,4.0,0.0,3.0,3.0,277.7402309998251,1.0,1.0,phase_1,,,,,,,,,,,,,magenta,cross
36.0,1.0,1.0,0.0,2.0,2.0,241.2124190000213,1.0,1.0,phase_1,,,,,,,,,,,,,white,flipped triangle
90.0,2.0,2.0,0.0,1.0,1.0,262.8416179995838,1.0,1.0,phase_1,,,,,,,,,,,,,orange,circle
211.0,3.0,3.0,0.0,1.0,1.0,239.1156900002897,1.0,1.0,phase_1,,,,,,,,,,,,,green,diamond
76.0,6.0,2.0,1.0,4.0,4.0,254.6024640000723,1.0,1.0,phase_1,,,,,,,,,,,,,blue,triangle
210.0,3.0,3.0,0.0,2.0,2.0,242.9567109998061,1.0,1.0,phase_1,,,,,,,,,,,,,green,diamond
204.0,7.0,3.0,1.0,3.0,3.0,281.1161829999946,1.0,1.0,phase_1,,,,,,,,,,,,,gray,square
0.0,5.0,0.0,1.0,1.0,1.0,224.7795980001683,1.0,1.0,phase_1,,,,,,,,,,,,,yellow,I
0.0,4.0,0.0,0.0,2.0,2.0,251.0033430003204,1.0,1.0,phase_1,,,,,,,,,,,,,magenta,cross
408.0,8.0,4.0,1.0,4.0,4.0,274.2793659999734,1.0,1.0,phase_1,,,,,,,,,,,,,cyan,hexagon
0.0,7.0,0.0,1.0,1.0,1.0,262.3911999999109,1.0,1.0,phase_1,,,,,,,,,,,,,gray,square
390.0,8.0,4.0,1.0,1.0,1.0,274.183938999613,1.0,1.0,phase_1,,,,,,,,,,,,,cyan,hexagon
115.0,6.0,2.0,1.0,2.0,2.0,251.11570399985789,1.0,1.0,phase_1,,,,,,,,,,,,,blue,triangle
0.0,3.0,0.0,0.0,2.0,2.0,0.3185780001331,1.0,2.0,phase_1,,,,,,,,,,,,,green,diamond
407.0,8.0,4.0,1.0,3.0,3.0,233.6037529998975,1.0,1.0,phase_1,,,,,,,,,,,,,cyan,hexagon
28.0,1.0,1.0,0.0,2.0,2.0,271.2621320001744,1.0,1.0,phase_1,,,,,,,,,,,,,white,flipped triangle
410.0,4.0,4.0,0.0,4.0,4.0,299.570340000173,1.0,1.0,phase_1,,,,,,,,,,,,,magenta,cross
0.0,3.0,0.0,0.0,1.0,1.0,235.2403909999338,1.0,1.0,phase_1,,,,,,,,,,,,,green,diamond
0.0,4.0,0.0,0.0,2.0,2.0,224.5159480003167,1.0,1.0,phase_1,,,,,,,,,,,,,magenta,cross
419.0,4.0,4.0,0.0,3.0,3.0,279.4483050001872,1.0,1.0,phase_1,,,,,,,,,,,,,magenta,cross
402.0,8.0,4.0,1.0,1.0,1.0,245.7869719996779,1.0,1.0,phase_1,,,,,,,,,,,,,cyan,hexagon
34.0,5.0,1.0,1.0,2.0,2.0,240.9179969999968,1.0,1.0,phase_1,,,,,,,,,,,,,yellow,I
84.0,2.0,2.0,0.0,1.0,1.0,277.2225580001759,1.0,1.0,phase_1,,,,,,,,,,,,,orange,circle
41.0,1.0,1.0,0.0,1.0,1.0,252.07316400019408,1.0,1.0,phase_1,,,,,,,,,,,,,white,flipped triangle
35.0,5.0,1.0,1.0,1.0,1.0,260.3018240001802,1.0,1.0,phase_1,,,,,,,,,,,,,yellow,I
79.0,6.0,2.0,1.0,4.0,4.0,285.9521350001159,1.0,1.0,phase_1,,,,,,,,,,,,,blue,triangle
77.0,2.0,2.0,0.0,3.0,3.0,328.1369269998322,1.0,1.0,phase_1,,,,,,,,,,,,,orange,circle
0.0,5.0,0.0,1.0,1.0,1.0,238.1403259996659,1.0,1.0,phase_1,,,,,,,,,,,,,yellow,I
84.0,2.0,2.0,0.0,2.0,2.0,257.0809310000186,1.0,1.0,phase_1,,,,,,,,,,,,,orange,circle
194.0,7.0,3.0,1.0,4.0,4.0,293.8433970002734,1.0,1.0,phase_1,,,,,,,,,,,,,gray,square
86.0,6.0,2.0,1.0,3.0,3.0,278.6820769997575,1.0,1.0,phase_1,,,,,,,,,,,,,blue,triangle
0.0,3.0,0.0,0.0,4.0,4.0,278.4098400002222,1.0,1.0,phase_1,,,,,,,,,,,,,green,diamond
64.0,5.0,1.0,1.0,3.0,3.0,279.2557569996461,1.0,1.0,phase_1,,,,,,,,,,,,,yellow,I
377.0,8.0,4.0,1.0,3.0,3.0,290.0256399998397,1.0,1.0,phase_1,,,,,,,,,,,,,cyan,hexagon
80.0,2.0,2.0,0.0,1.0,1.0,249.71570400020929,1.0,1.0,phase_1,,,,,,,,,,,,,orange,circle
90.0,2.0,2.0,0.0,2.0,2.0,244.94373900006389,1.0,1.0,phase_1,,,,,,,,,,,,,orange,circle
376.0,8.0,4.0,1.0,4.0,4.0,234.8122820003482,1.0,1.0,phase_1,,,,,,,,,,,,,cyan,hexagon
117.0,6.0,2.0,1.0,1.0,1.0,240.0644049998845,1.0,1.0,phase_1,,,,,,,,,,,,,blue,triangle
0.0,5.0,0.0,1.0,2.0,2.0,237.2652939998261,1.0,1.0,phase_1,,,,,,,,,,,,,yellow,I
79.0,2.0,2.0,0.0,2.0,2.0,328.0511980001392,1.0,1.0,phase_1,,,,,,,,,,,,,orange,circle
61.0,1.0,1.0,0.0,2.0,2.0,259.7396699998171,1.0,1.0,phase_1,,,,,,,,,,,,,white,flipped triangle
96.0,6.0,2.0,1.0,4.0,4.0,254.29682499998307,1.0,1.0,phase_1,,,,,,,,,,,,,blue,triangle
202.0,7.0,3.0,1.0,1.0,1.0,245.6882200003747,1.0,1.0,phase_1,,,,,,,,,,,,,gray,square
215.0,3.0,3.0,0.0,4.0,4.0,284.0782910002417,1.0,1.0,phase_1,,,,,,,,,,,,,green,diamond
69.0,1.0,1.0,0.0,4.0,4.0,263.3679200002916,1.0,1.0,phase_1,,,,,,,,,,,,,white,flipped triangle
386.0,8.0,4.0,1.0,3.0,3.0,259.8278419995949,1.0,1.0,phase_1,,,,,,,,,,,,,cyan,hexagon
0.0,1.0,0.0,0.0,2.0,2.0,211.6154739997,1.0,1.0,phase_1,,,,,,,,,,,,,white,flipped triangle
0.0,8.0,0.0,1.0,3.0,3.0,267.6989759997923,1.0,1.0,phase_1,,,,,,,,,,,,,cyan,hexagon
115.0,2.0,2.0,0.0,1.0,1.0,228.9148380000369,1.0,1.0,phase_1,,,,,,,,,,,,,orange,circle
54.0,1.0,1.0,0.0,3.0,3.0,246.811587999673,1.0,1.0,phase_1,,,,,,,,,,,,,white,flipped triangle
58.0,5.0,1.0,1.0,4.0,4.0,251.26860699992898,1.0,1.0,phase_1,,,,,,,,,,,,,yellow,I
41.0,5.0,1.0,1.0,1.0,1.0,222.9175469997244,1.0,1.0,phase_1,,,,,,,,,,,,,yellow,I
114.0,2.0,2.0,0.0,4.0,4.0,322.0361829999092,1.0,1.0,phase_1,,,,,,,,,,,,,orange,circle
222.0,3.0,3.0,0.0,3.0,3.0,225.7886019997386,1.0,1.0,phase_1,,,,,,,,,,,,,green,diamond
223.0,3.0,3.0,0.0,1.0,1.0,230.6504670000322,1.0,1.0,phase_1,,,,,,,,,,,,,green,diamond
0.0,1.0,0.0,0.0,4.0,4.0,267.1951720003562,1.0,1.0,phase_1,,,,,,,,,,,,,white,flipped triangle
0.0,4.0,0.0,0.0,1.0,1.0,223.4639650000645,1.0,1.0,phase_1,,,,,,,,,,,,,magenta,cross
114.0,6.0,2.0,1.0,3.0,3.0,274.8973520001527,1.0,1.0,phase_1,,,,,,,,,,,,,blue,triangle
0.0,4.0,0.0,0.0,4.0,4.0,251.3367499996093,1.0,1.0,phase_1,,,,,,,,,,,,,magenta,cross
204.0,7.0,3.0,1.0,1.0,1.0,250.80777199991638,1.0,1.0,phase_1,,,,,,,,,,,,,gray,square
93.0,6.0,2.0,1.0,4.0,4.0,237.5620100001469,1.0,1.0,phase_1,,,,,,,,,,,,,blue,triangle
379.0,4.0,4.0,0.0,4.0,4.0,250.3880879999087,1.0,1.0,phase_1,,,,,,,,,,,,,magenta,cross
90.0,6.0,2.0,1.0,4.0,4.0,267.0495070001379,1.0,1.0,phase_1,,,,,,,,,,,,,blue,triangle
28.0,5.0,1.0,1.0,4.0,4.0,269.5737050003117,1.0,1.0,phase_1,,,,,,,,,,,,,yellow,I
225.0,7.0,3.0,1.0,1.0,1.0,219.4038719999298,1.0,1.0,phase_1,,,,,,,,,,,,,gray,square
66.0,1.0,1.0,0.0,3.0,3.0,221.3481199996749,1.0,1.0,phase_1,,,,,,,,,,,,,white,flipped triangle
103.0,2.0,2.0,0.0,4.0,4.0,270.704078000108,1.0,1.0,phase_1,,,,,,,,,,,,,orange,circle
0.0,1.0,0.0,0.0,4.0,4.0,261.4737660001083,1.0,1.0,phase_1,,,,,,,,,,,,,white,flipped triangle
113.0,2.0,2.0,0.0,3.0,3.0,245.8116900002096,1.0,2.0,phase_1,,,,,,,,,,,,,orange,circle
413.0,8.0,4.0,1.0,4.0,4.0,272.9985890000534,1.0,1.0,phase_1,,,,,,,,,,,,,cyan,hexagon
202.0,3.0,3.0,0.0,2.0,2.0,226.9889260001036,1.0,1.0,phase_1,,,,,,,,,,,,,green,diamond
410.0,8.0,4.0,1.0,2.0,2.0,259.4642599997314,1.0,1.0,phase_1,,,,,,,,,,,,,cyan,hexagon
417.0,4.0,4.0,0.0,2.0,2.0,259.6659509999881,1.0,1.0,phase_1,,,,,,,,,,,,,magenta,cross
0.0,2.0,0.0,0.0,2.0,2.0,245.1694179999322,1.0,1.0,phase_1,,,,,,,,,,,,,orange,circle
0.0,2.0,0.0,0.0,4.0,4.0,227.4128670001118,1.0,1.0,phase_1,,,,,,,,,,,,,orange,circle
120.0,2.0,2.0,0.0,4.0,4.0,287.5516459998835,1.0,1.0,phase_1,,,,,,,,,,,,,orange,circle
376.0,8.0,4.0,1.0,2.0,2.0,212.5010640002074,1.0,1.0,phase_1,,,,,,,,,,,,,cyan,hexagon
0.0,7.0,0.0,1.0,4.0,4.0,255.1593449998108,1.0,1.0,phase_1,,,,,,,,,,,,,gray,square
64.0,1.0,1.0,0.0,4.0,4.0,252.28619500012428,1.0,1.0,phase_1,,,,,,,,,,,,,white,flipped triangle
0.0,2.0,0.0,0.0,1.0,1.0,266.0189469997931,2.0,1.0,phase_1,,,,,,,,,,,,,orange,circle
0.0,1.0,0.0,0.0,1.0,1.0,244.1607490000024,2.0,1.0,phase_1,,,,,,,,,,,,,white,flipped triangle
71.0,1.0,1.0,0.0,2.0,2.0,213.9713269998537,2.0,1.0,phase_1,,,,,,,,,,,,,white,flipped triangle
28.0,1.0,1.0,0.0,4.0,4.0,212.4179709999225,2.0,1.0,phase_1,,,,,,,,,,,,,white,flipped triangle
85.0,2.0,2.0,0.0,1.0,1.0,215.3736610002852,2.0,1.0,phase_1,,,,,,,,,,,,,orange,circle
396.0,8.0,4.0,1.0,1.0,1.0,245.5571909999889,2.0,1.0,phase_1,,,,,,,,,,,,,cyan,hexagon
109.0,6.0,2.0,1.0,2.0,2.0,238.44132000022,2.0,1.0,phase_1,,,,,,,,,,,,,blue,triangle
208.0,7.0,3.0,1.0,1.0,1.0,317.8783500002282,2.0,1.0,phase_1,,,,,,,,,,,,,gray,square
209.0,3.0,3.0,0.0,3.0,3.0,261.8198310001389,2.0,1.0,phase_1,,,,,,,,,,,,,green,diamond
186.0,7.0,3.0,1.0,4.0,4.0,243.2325400000081,2.0,1.0,phase_1,,,,,,,,,,,,,gray,square
376.0,4.0,4.0,0.0,3.0,3.0,262.6030540000101,2.0,1.0,phase_1,,,,,,,,,,,,,magenta,cross
30.0,5.0,1.0,1.0,4.0,4.0,224.9864390000766,2.0,1.0,phase_1,,,,,,,,,,,,,yellow,I
0.0,7.0,0.0,1.0,1.0,1.0,208.8990550000744,2.0,1.0,phase_1,,,,,,,,,,,,,gray,square
29.0,1.0,1.0,0.0,4.0,4.0,232.1145720002277,2.0,1.0,phase_1,,,,,,,,,,,,,white,flipped triangle
424.0,4.0,4.0,0.0,4.0,4.0,242.1393619997616,2.0,1.0,phase_1,,,,,,,,,,,,,magenta,cross
108.0,6.0,2.0,1.0,3.0,3.0,244.3829799999548,2.0,1.0,phase_1,,,,,,,,,,,,,blue,triangle
59.0,5.0,1.0,1.0,1.0,1.0,269.7038649998831,2.0,1.0,phase_1,,,,,,,,,,,,,yellow,I
0.0,3.0,0.0,0.0,4.0,4.0,219.280843999968,2.0,1.0,phase_1,,,,,,,,,,,,,green,diamond
0.0,3.0,0.0,0.0,1.0,1.0,226.1122119998617,2.0,1.0,phase_1,,,,,,,,,,,,,green,diamond
124.0,2.0,2.0,0.0,3.0,3.0,257.0925100003478,2.0,1.0,phase_1,,,,,,,,,,,,,orange,circle
90.0,6.0,2.0,1.0,1.0,1.0,211.2834140002633,2.0,1.0,phase_1,,,,,,,,,,,,,blue,triangle
0.0,1.0,0.0,0.0,1.0,1.0,205.6203170000117,2.0,1.0,phase_1,,,,,,,,,,,,,white,flipped triangle
0.0,6.0,0.0,1.0,3.0,3.0,229.0575960000751,2.0,1.0,phase_1,,,,,,,,,,,,,blue,triangle
0.0,7.0,0.0,1.0,4.0,4.0,244.7814440001821,2.0,1.0,phase_1,,,,,,,,,,,,,gray,square
30.0,1.0,1.0,0.0,1.0,1.0,184.4803659996614,2.0,1.0,phase_1,,,,,,,,,,,,,white,flipped triangle
0.0,3.0,0.0,0.0,4.0,4.0,198.5810470000615,2.0,1.0,phase_1,,,,,,,,,,,,,green,diamond
56.0,1.0,1.0,0.0,4.0,4.0,234.2385500001,2.0,1.0,phase_1,,,,,,,,,,,,,white,flipped triangle
0.0,6.0,0.0,1.0,2.0,2.0,238.9650049999545,2.0,1.0,phase_1,,,,,,,,,,,,,blue,triangle
109.0,2.0,2.0,0.0,1.0,1.0,237.0242449997022,2.0,2.0,phase_1,,,,,,,,,,,,,orange,circle
220.0,3.0,3.0,0.0,2.0,2.0,244.4182720000753,2.0,1.0,phase_1,,,,,,,,,,,,,green,diamond
89.0,2.0,2.0,0.0,3.0,3.0,244.48237299975509,2.0,1.0,phase_1,,,,,,,,,,,,,orange,circle
0.0,2.0,0.0,0.0,3.0,3.0,252.36222100011219,2.0,1.0,phase_1,,,,,,,,,,,,,orange,circle
119.0,2.0,2.0,0.0,2.0,2.0,266.1286669999754,2.0,1.0,phase_1,,,,,,,,,,,,,orange,circle
34.0,1.0,1.0,0.0,3.0,3.0,259.3432849998862,2.0,1.0,phase_1,,,,,,,,,,,,,white,flipped triangle
215.0,7.0,3.0,1.0,3.0,3.0,242.8563079997729,2.0,1.0,phase_1,,,,,,,,,,,,,gray,square
115.0,6.0,2.0,1.0,4.0,4.0,247.8915159999815,2.0,1.0,phase_1,,,,,,,,,,,,,blue,triangle
88.0,6.0,2.0,1.0,1.0,1.0,223.2426549999218,2.0,1.0,phase_1,,,,,,,,,,,,,blue,triangle
0.0,7.0,0.0,1.0,3.0,3.0,244.3842470001982,2.0,1.0,phase_1,,,,,,,,,,,,,gray,square
98.0,6.0,2.0,1.0,1.0,1.0,216.3278699999864,2.0,1.0,phase_1,,,,,,,,,,,,,blue,triangle
223.0,3.0,3.0,0.0,2.0,2.0,224.5165720000841,2.0,1.0,phase_1,,,,,,,,,,,,,green,diamond
389.0,8.0,4.0,1.0,2.0,2.0,238.40210499975,2.0,1.0,phase_1,,,,,,,,,,,,,cyan,hexagon
0.0,2.0,0.0,0.0,3.0,3.0,221.0517220000838,2.0,1.0,phase_1,,,,,,,,,,,,,orange,circle
0.0,1.0,0.0,0.0,4.0,4.0,196.8947079999452,2.0,1.0,phase_1,,,,,,,,,,,,,white,flipped triangle
0.0,2.0,0.0,0.0,1.0,1.0,220.5379339998217,2.0,1.0,phase_1,,,,,,,,,,,,,orange,circle
192.0,3.0,3.0,0.0,3.0,3.0,263.1626630000028,2.0,1.0,phase_1,,,,,,,,,,,,,green,diamond
117.0,2.0,2.0,0.0,4.0,4.0,263.8705199997275,2.0,1.0,phase_1,,,,,,,,,,,,,orange,circle
180.0,3.0,3.0,0.0,3.0,3.0,229.0718230001402,2.0,1.0,phase_1,,,,,,,,,,,,,green,diamond
0.0,6.0,0.0,1.0,4.0,4.0,238.1809540001995,2.0,1.0,phase_1,,,,,,,,,,,,,blue,triangle
80.0,6.0,2.0,1.0,3.0,3.0,236.613251000108,2.0,1.0,phase_1,,,,,,,,,,,,,blue,triangle
108.0,2.0,2.0,0.0,3.0,3.0,260.3816370001368,2.0,1.0,phase_1,,,,,,,,,,,,,orange,circle
406.0,8.0,4.0,1.0,1.0,1.0,209.5669390000694,2.0,1.0,phase_1,,,,,,,,,,,,,cyan,hexagon
184.0,7.0,3.0,1.0,1.0,1.0,253.38609700020243,2.0,1.0,phase_1,,,,,,,,,,,,,gray,square
386.0,4.0,4.0,0.0,4.0,4.0,216.88336999977759,2.0,1.0,phase_1,,,,,,,,,,,,,magenta,cross
77.0,6.0,2.0,1.0,1.0,1.0,244.106716999795,2.0,1.0,phase_1,,,,,,,,,,,,,blue,triangle
219.0,7.0,3.0,1.0,1.0,1.0,229.0823240000463,2.0,1.0,phase_1,,,,,,,,,,,,,gray,square
49.0,5.0,1.0,1.0,3.0,3.0,222.4637580002308,2.0,1.0,phase_1,,,,,,,,,,,,,yellow,I
0.0,5.0,0.0,1.0,3.0,3.0,238.5705219999181,2.0,1.0,phase_1,,,,,,,,,,,,,yellow,I
392.0,4.0,4.0,0.0,3.0,3.0,262.9732030000014,2.0,1.0,phase_1,,,,,,,,,,,,,magenta,cross
77.0,2.0,2.0,0.0,1.0,1.0,212.3364650001349,2.0,1.0,phase_1,,,,,,,,,,,,,orange,circle
421.0,4.0,4.0,0.0,3.0,3.0,208.9822439997988,2.0,1.0,phase_1,,,,,,,,,,,,,magenta,cross
408.0,4.0,4.0,0.0,1.0,1.0,199.1144039998289,2.0,1.0,phase_1,,,,,,,,,,,,,magenta,cross
85.0,6.0,2.0,1.0,2.0,2.0,219.9139379999906,2.0,1.0,phase_1,,,,,,,,,,,,,blue,triangle
0.0,4.0,0.0,0.0,3.0,3.0,232.1863390002363,2.0,1.0,phase_1,,,,,,,,,,,,,magenta,cross
73.0,1.0,1.0,0.0,3.0,3.0,267.0542390001174,2.0,1.0,phase_1,,,,,,,,,,,,,white,flipped triangle
61.0,5.0,1.0,1.0,3.0,3.0,239.0395010002066,2.0,1.0,phase_1,,,,,,,,,,,,,yellow,I
421.0,8.0,4.0,1.0,3.0,3.0,232.0911540000452,2.0,1.0,phase_1,,,,,,,,,,,,,cyan,hexagon
0.0,6.0,0.0,1.0,4.0,4.0,304.453088000173,2.0,2.0,phase_1,,,,,,,,,,,,,blue,triangle
219.0,3.0,3.0,0.0,4.0,4.0,264.8468449997381,2.0,1.0,phase_1,,,,,,,,,,,,,green,diamond
381.0,8.0,4.0,1.0,2.0,2.0,242.2181819997604,2.0,1.0,phase_1,,,,,,,,,,,,,cyan,hexagon
67.0,5.0,1.0,1.0,4.0,4.0,225.5597750004199,2.0,1.0,phase_1,,,,,,,,,,,,,yellow,I
391.0,8.0,4.0,1.0,4.0,4.0,264.8859839996476,2.0,1.0,phase_1,,,,,,,,,,,,,cyan,hexagon
69.0,5.0,1.0,1.0,1.0,1.0,242.6519099999495,2.0,1.0,phase_1,,,,,,,,,,,,,yellow,I
81.0,2.0,2.0,0.0,4.0,4.0,260.9251969997785,2.0,1.0,phase_1,,,,,,,,,,,,,orange,circle
377.0,4.0,4.0,0.0,2.0,2.0,244.4055450000632,2.0,1.0,phase_1,,,,,,,,,,,,,magenta,cross
376.0,4.0,4.0,0.0,1.0,1.0,238.8652869999532,2.0,1.0,phase_1,,,,,,,,,,,,,magenta,cross
201.0,7.0,3.0,1.0,2.0,2.0,281.0325469999952,2.0,1.0,phase_1,,,,,,,,,,,,,gray,square
0.0,1.0,0.0,0.0,3.0,3.0,265.5570770002669,2.0,1.0,phase_1,,,,,,,,,,,,,white,flipped triangle
415.0,8.0,4.0,1.0,3.0,3.0,268.6014420000902,2.0,1.0,phase_1,,,,,,,,,,,,,cyan,hexagon
193.0,3.0,3.0,0.0,1.0,1.0,213.5335289999602,2.0,1.0,phase_1,,,,,,,,,,,,,green,diamond
401.0,4.0,4.0,0.0,3.0,3.0,264.0082770003573,2.0,1.0,phase_1,,,,,,,,,,,,,magenta,cross
419.0,8.0,4.0,1.0,4.0,4.0,252.00571900040808,2.0,1.0,phase_1,,,,,,,,,,,,,cyan,hexagon
0.0,3.0,0.0,0.0,1.0,1.0,217.9569529998843,2.0,1.0,phase_1,,,,,,,,,,,,,green,diamond
379.0,8.0,4.0,1.0,1.0,1.0,215.8089079998717,2.0,1.0,phase_1,,,,,,,,,,,,,cyan,hexagon
28.0,1.0,1.0,0.0,1.0,1.0,236.58961000001,2.0,1.0,phase_1,,,,,,,,,,,,,white,flipped triangle
424.0,8.0,4.0,1.0,2.0,2.0,256.4958660000229,2.0,1.0,phase_1,,,,,,,,,,,,,cyan,hexagon
84.0,6.0,2.0,1.0,2.0,2.0,257.3683499999788,2.0,2.0,phase_1,,,,,,,,,,,,,blue,triangle
416.0,4.0,4.0,0.0,3.0,3.0,305.1929899997958,2.0,1.0,phase_1,,,,,,,,,,,,,magenta,cross
0.0,1.0,0.0,0.0,1.0,1.0,229.530903000068,2.0,1.0,phase_1,,,,,,,,,,,,,white,flipped triangle
201.0,3.0,3.0,0.0,3.0,3.0,266.4563299999827,2.0,1.0,phase_1,,,,,,,,,,,,,green,diamond
75.0,5.0,1.0,1.0,2.0,2.0,267.3794140000609,2.0,1.0,phase_1,,,,,,,,,,,,,yellow,I
0.0,8.0,0.0,1.0,4.0,4.0,252.36282200012278,2.0,1.0,phase_1,,,,,,,,,,,,,cyan,hexagon
0.0,2.0,0.0,0.0,2.0,2.0,247.4538149999716,2.0,1.0,phase_1,,,,,,,,,,,,,orange,circle
31.0,5.0,1.0,1.0,1.0,1.0,227.2525920002408,2.0,1.0,phase_1,,,,,,,,,,,,,yellow,I
381.0,4.0,4.0,0.0,4.0,4.0,248.1089949997112,2.0,1.0,phase_1,,,,,,,,,,,,,magenta,cross
209.0,7.0,3.0,1.0,2.0,2.0,234.7669890000361,2.0,1.0,phase_1,,,,,,,,,,,,,gray,square
424.0,8.0,4.0,1.0,4.0,4.0,229.0392279996922,2.0,1.0,phase_1,,,,,,,,,,,,,cyan,hexagon
0.0,8.0,0.0,1.0,4.0,4.0,268.7506269999176,2.0,1.0,phase_1,,,,,,,,,,,,,cyan,hexagon
0.0,5.0,0.0,1.0,3.0,3.0,269.760325000334,2.0,1.0,phase_1,,,,,,,,,,,,,yellow,I
407.0,4.0,4.0,0.0,4.0,4.0,238.2267849998243,2.0,1.0,phase_1,,,,,,,,,,,,,magenta,cross
112.0,2.0,2.0,0.0,2.0,2.0,241.4277030002267,2.0,1.0,phase_1,,,,,,,,,,,,,orange,circle
187.0,7.0,3.0,1.0,4.0,4.0,343.740895999872,3.0,1.0,phase_1,,,,,,,,,,,,,gray,square
176.0,7.0,3.0,1.0,2.0,2.0,239.401779000218,3.0,1.0,phase_1,,,,,,,,,,,,,gray,square
424.0,8.0,4.0,1.0,1.0,1.0,228.4668160000365,3.0,1.0,phase_1,,,,,,,,,,,,,cyan,hexagon
59.0,5.0,1.0,1.0,3.0,3.0,303.6911929998496,3.0,2.0,phase_1,,,,,,,,,,,,,yellow,I
71.0,1.0,1.0,0.0,3.0,3.0,286.2320639997051,3.0,1.0,phase_1,,,,,,,,,,,,,white,flipped triangle
218.0,7.0,3.0,1.0,4.0,4.0,252.92331199989349,3.0,1.0,phase_1,,,,,,,,,,,,,gray,square
84.0,2.0,2.0,0.0,3.0,3.0,225.1463930001591,3.0,1.0,phase_1,,,,,,,,,,,,,orange,circle
113.0,6.0,2.0,1.0,4.0,4.0,260.389662000307,3.0,1.0,phase_1,,,,,,,,,,,,,blue,triangle
0.0,1.0,0.0,0.0,2.0,2.0,248.5875369998211,3.0,1.0,phase_1,,,,,,,,,,,,,white,flipped triangle
90.0,2.0,2.0,0.0,4.0,4.0,228.5110399998302,3.0,1.0,phase_1,,,,,,,,,,,,,orange,circle
382.0,8.0,4.0,1.0,2.0,2.0,233.2184539995978,3.0,1.0,phase_1,,,,,,,,,,,,,cyan,hexagon
176.0,7.0,3.0,1.0,3.0,3.0,265.5167149996487,3.0,1.0,phase_1,,,,,,,,,,,,,gray,square
124.0,2.0,2.0,0.0,3.0,3.0,269.0889499999684,3.0,1.0,phase_1,,,,,,,,,,,,,orange,circle
75.0,1.0,1.0,0.0,4.0,4.0,256.8886210001437,3.0,1.0,phase_1,,,,,,,,,,,,,white,flipped triangle
417.0,8.0,4.0,1.0,4.0,4.0,269.6013889999449,3.0,1.0,phase_1,,,,,,,,,,,,,cyan,hexagon
28.0,5.0,1.0,1.0,1.0,1.0,254.70774599989448,3.0,1.0,phase_1,,,,,,,,,,,,,yellow,I
77.0,6.0,2.0,1.0,1.0,1.0,251.3560649999817,3.0,1.0,phase_1,,,,,,,,,,,,,blue,triangle
122.0,6.0,2.0,1.0,4.0,4.0,253.1916689999889,3.0,1.0,phase_1,,,,,,,,,,,,,blue,triangle
118.0,2.0,2.0,0.0,4.0,4.0,262.3960619998797,3.0,1.0,phase_1,,,,,,,,,,,,,orange,circle
88.0,2.0,2.0,0.0,2.0,2.0,250.14607000002798,3.0,1.0,phase_1,,,,,,,,,,,,,orange,circle
61.0,5.0,1.0,1.0,4.0,4.0,229.64306399990159,3.0,1.0,phase_1,,,,,,,,,,,,,yellow,I
37.0,5.0,1.0,1.0,3.0,3.0,262.0701310002005,3.0,1.0,phase_1,,,,,,,,,,,,,yellow,I
0.0,7.0,0.0,1.0,1.0,1.0,231.6711979997308,3.0,1.0,phase_1,,,,,,,,,,,,,gray,square
0.0,4.0,0.0,0.0,4.0,4.0,257.8951119999146,3.0,1.0,phase_1,,,,,,,,,,,,,magenta,cross
0.0,8.0,0.0,1.0,1.0,1.0,229.485134999777,3.0,1.0,phase_1,,,,,,,,,,,,,cyan,hexagon
202.0,3.0,3.0,0.0,4.0,4.0,250.52135799978709,3.0,1.0,phase_1,,,,,,,,,,,,,green,diamond
49.0,1.0,1.0,0.0,1.0,1.0,197.144488000049,3.0,1.0,phase_1,,,,,,,,,,,,,white,flipped triangle
115.0,2.0,2.0,0.0,4.0,4.0,215.5459330001576,3.0,1.0,phase_1,,,,,,,,,,,,,orange,circle
404.0,8.0,4.0,1.0,3.0,3.0,265.5394749999686,3.0,1.0,phase_1,,,,,,,,,,,,,cyan,hexagon
201.0,7.0,3.0,1.0,4.0,4.0,300.8839690000968,3.0,1.0,phase_1,,,,,,,,,,,,,gray,square
0.0,5.0,0.0,1.0,2.0,2.0,276.2044440000863,3.0,1.0,phase_1,,,,,,,,,,,,,yellow,I
206.0,3.0,3.0,0.0,4.0,4.0,256.4909299999272,3.0,1.0,phase_1,,,,,,,,,,,,,green,diamond
0.0,5.0,0.0,1.0,4.0,4.0,249.2315239996969,3.0,1.0,phase_1,,,,,,,,,,,,,yellow,I
0.0,4.0,0.0,0.0,4.0,4.0,245.9010560000933,3.0,1.0,phase_1,,,,,,,,,,,,,magenta,cross
50.0,5.0,1.0,1.0,2.0,2.0,242.6244769999357,3.0,1.0,phase_1,,,,,,,,,,,,,yellow,I
40.0,1.0,1.0,0.0,2.0,2.0,237.1662739997191,3.0,1.0,phase_1,,,,,,,,,,,,,white,flipped triangle
400.0,8.0,4.0,1.0,4.0,4.0,213.9160790002279,3.0,1.0,phase_1,,,,,,,,,,,,,cyan,hexagon
0.0,8.0,0.0,1.0,3.0,3.0,265.3598129995771,3.0,1.0,phase_1,,,,,,,,,,,,,cyan,hexagon
223.0,7.0,3.0,1.0,3.0,3.0,277.8055859998858,3.0,1.0,phase_1,,,,,,,,,,,,,gray,square
0.0,5.0,0.0,1.0,1.0,1.0,230.6663680001293,3.0,1.0,phase_1,,,,,,,,,,,,,yellow,I
113.0,6.0,2.0,1.0,3.0,3.0,265.184670999588,3.0,1.0,phase_1,,,,,,,,,,,,,blue,triangle
197.0,3.0,3.0,0.0,2.0,2.0,237.0308230001683,3.0,1.0,phase_1,,,,,,,,,,,,,green,diamond
381.0,8.0,4.0,1.0,1.0,1.0,273.575092000101,3.0,1.0,phase_1,,,,,,,,,,,,,cyan,hexagon
404.0,4.0,4.0,0.0,1.0,1.0,252.0454969999264,3.0,1.0,phase_1,,,,,,,,,,,,,magenta,cross
96.0,2.0,2.0,0.0,3.0,3.0,259.2406030007623,3.0,1.0,phase_1,,,,,,,,,,,,,orange,circle
176.0,3.0,3.0,0.0,1.0,1.0,209.3576699999175,3.0,1.0,phase_1,,,,,,,,,,,,,green,diamond
187.0,3.0,3.0,0.0,1.0,1.0,196.430001000408,3.0,1.0,phase_1,,,,,,,,,,,,,green,diamond
52.0,1.0,1.0,0.0,4.0,4.0,225.8987630002593,3.0,1.0,phase_1,,,,,,,,,,,,,white,flipped triangle
59.0,1.0,1.0,0.0,3.0,3.0,263.2448650001606,3.0,1.0,phase_1,,,,,,,,,,,,,white,flipped triangle
386.0,8.0,4.0,1.0,1.0,1.0,204.0782290005154,3.0,1.0,phase_1,,,,,,,,,,,,,cyan,hexagon
34.0,1.0,1.0,0.0,1.0,1.0,246.2585839994062,3.0,1.0,phase_1,,,,,,,,,,,,,white,flipped triangle
26.0,5.0,1.0,1.0,3.0,3.0,260.3056369998739,3.0,1.0,phase_1,,,,,,,,,,,,,yellow,I
40.0,5.0,1.0,1.0,3.0,3.0,258.8706810001895,3.0,1.0,phase_1,,,,,,,,,,,,,yellow,I
0.0,8.0,0.0,1.0,2.0,2.0,267.045589999725,3.0,1.0,phase_1,,,,,,,,,,,,,cyan,hexagon
177.0,3.0,3.0,0.0,2.0,2.0,260.4449370001021,3.0,1.0,phase_1,,,,,,,,,,,,,green,diamond
376.0,4.0,4.0,0.0,1.0,1.0,227.160938000452,3.0,1.0,phase_1,,,,,,,,,,,,,magenta,cross
104.0,2.0,2.0,0.0,2.0,2.0,250.07158299922588,3.0,1.0,phase_1,,,,,,,,,,,,,orange,circle
71.0,5.0,1.0,1.0,1.0,1.0,245.8247490003486,3.0,2.0,phase_1,,,,,,,,,,,,,yellow,I
386.0,4.0,4.0,0.0,3.0,3.0,274.8402650004209,3.0,1.0,phase_1,,,,,,,,,,,,,magenta,cross
0.0,6.0,0.0,1.0,2.0,2.0,254.6784250007476,3.0,1.0,phase_1,,,,,,,,,,,,,blue,triangle
406.0,4.0,4.0,0.0,3.0,3.0,296.4280719997987,3.0,1.0,phase_1,,,,,,,,,,,,,magenta,cross
40.0,1.0,1.0,0.0,3.0,3.0,287.0628209993811,3.0,1.0,phase_1,,,,,,,,,,,,,white,flipped triangle
62.0,1.0,1.0,0.0,1.0,1.0,215.541210000083,3.0,1.0,phase_1,,,,,,,,,,,,,white,flipped triangle
397.0,8.0,4.0,1.0,3.0,3.0,266.1635109998315,3.0,2.0,phase_1,,,,,,,,,,,,,cyan,hexagon
0.0,7.0,0.0,1.0,3.0,3.0,309.4664079999347,3.0,1.0,phase_1,,,,,,,,,,,,,gray,square
86.0,2.0,2.0,0.0,1.0,1.0,227.571686000374,3.0,1.0,phase_1,,,,,,,,,,,,,orange,circle
0.0,6.0,0.0,1.0,1.0,1.0,248.5969500003193,3.0,1.0,phase_1,,,,,,,,,,,,,blue,triangle
217.0,7.0,3.0,1.0,4.0,4.0,271.4764499996818,3.0,1.0,phase_1,,,,,,,,,,,,,gray,square
57.0,1.0,1.0,0.0,1.0,1.0,226.8846419992769,3.0,1.0,phase_1,,,,,,,,,,,,,white,flipped triangle
390.0,4.0,4.0,0.0,4.0,4.0,240.7321069995305,3.0,1.0,phase_1,,,,,,,,,,,,,magenta,cross
0.0,4.0,0.0,0.0,3.0,3.0,279.7048719994564,3.0,1.0,phase_1,,,,,,,,,,,,,magenta,cross
184.0,3.0,3.0,0.0,4.0,4.0,261.5142470003775,3.0,1.0,phase_1,,,,,,,,,,,,,green,diamond
201.0,3.0,3.0,0.0,3.0,3.0,283.8174469998193,3.0,1.0,phase_1,,,,,,,,,,,,,green,diamond
180.0,7.0,3.0,1.0,3.0,3.0,277.9641799997989,3.0,1.0,phase_1,,,,,,,,,,,,,gray,square
65.0,5.0,1.0,1.0,2.0,2.0,426.3927960000728,3.0,1.0,phase_1,,,,,,,,,,,,,yellow,I
112.0,6.0,2.0,1.0,2.0,2.0,309.2055870001786,3.0,1.0,phase_1,,,,,,,,,,,,,blue,triangle
89.0,6.0,2.0,1.0,3.0,3.0,295.6563739999183,3.0,1.0,phase_1,,,,,,,,,,,,,blue,triangle
194.0,7.0,3.0,1.0,4.0,4.0,243.3809479998672,3.0,1.0,phase_1,,,,,,,,,,,,,gray,square
211.0,7.0,3.0,1.0,3.0,3.0,273.8021779996415,3.0,1.0,phase_1,,,,,,,,,,,,,gray,square
218.0,3.0,3.0,0.0,4.0,4.0,234.5057749998886,3.0,1.0,phase_1,,,,,,,,,,,,,green,diamond
410.0,8.0,4.0,1.0,4.0,4.0,254.37724199946388,3.0,1.0,phase_1,,,,,,,,,,,,,cyan,hexagon
0.0,1.0,0.0,0.0,3.0,3.0,298.9242470002864,3.0,1.0,phase_1,,,,,,,,,,,,,white,flipped triangle
76.0,2.0,2.0,0.0,3.0,3.0,301.9098009999652,3.0,1.0,phase_1,,,,,,,,,,,,,orange,circle
0.0,3.0,0.0,0.0,3.0,3.0,281.2812949996441,3.0,1.0,phase_1,,,,,,,,,,,,,green,diamond
0.0,8.0,0.0,1.0,2.0,2.0,278.9336129999356,3.0,1.0,phase_1,,,,,,,,,,,,,cyan,hexagon
54.0,5.0,1.0,1.0,2.0,2.0,293.0718819998219,3.0,1.0,phase_1,,,,,,,,,,,,,yellow,I
71.0,5.0,1.0,1.0,2.0,2.0,274.1964079996251,3.0,1.0,phase_1,,,,,,,,,,,,,yellow,I
220.0,7.0,3.0,1.0,2.0,2.0,256.4617540001563,3.0,1.0,phase_1,,,,,,,,,,,,,gray,square
62.0,5.0,1.0,1.0,4.0,4.0,247.3878239998157,3.0,1.0,phase_1,,,,,,,,,,,,,yellow,I
36.0,5.0,1.0,1.0,1.0,1.0,215.1878100003159,3.0,1.0,phase_1,,,,,,,,,,,,,yellow,I
37.0,1.0,1.0,0.0,1.0,1.0,240.9242789999552,3.0,1.0,phase_1,,,,,,,,,,,,,white,flipped triangle
397.0,4.0,4.0,0.0,2.0,2.0,252.24894199982367,3.0,1.0,phase_1,,,,,,,,,,,,,magenta,cross
65.0,1.0,1.0,0.0,3.0,3.0,285.5192950000855,3.0,1.0,phase_1,,,,,,,,,,,,,white,flipped triangle
176.0,3.0,3.0,0.0,4.0,4.0,230.900183999438,3.0,1.0,phase_1,,,,,,,,,,,,,green,diamond
413.0,4.0,4.0,0.0,4.0,4.0,241.0064960004092,3.0,1.0,phase_1,,,,,,,,,,,,,magenta,cross
111.0,6.0,2.0,1.0,4.0,4.0,224.5837410000604,3.0,1.0,phase_1,,,,,,,,,,,,,blue,triangle
73.0,5.0,1.0,1.0,4.0,4.0,279.6294800000396,3.0,1.0,phase_1,,,,,,,,,,,,,yellow,I
396.0,4.0,4.0,0.0,1.0,1.0,237.9954429998179,3.0,1.0,phase_1,,,,,,,,,,,,,magenta,cross
424.0,4.0,4.0,0.0,1.0,1.0,232.5578889995085,3.0,1.0,phase_1,,,,,,,,,,,,,magenta,cross
209.0,3.0,3.0,0.0,2.0,2.0,247.8920479998123,3.0,1.0,phase_1,,,,,,,,,,,,,green,diamond
414.0,8.0,4.0,1.0,1.0,1.0,300.6359259998135,4.0,1.0,phase_1,,,,,,,,,,,,,cyan,hexagon
0.0,6.0,0.0,1.0,4.0,4.0,244.4260530000974,4.0,1.0,phase_1,,,,,,,,,,,,,blue,triangle
400.0,4.0,4.0,0.0,2.0,2.0,246.7030199995861,4.0,1.0,phase_1,,,,,,,,,,,,,magenta,cross
118.0,6.0,2.0,1.0,2.0,2.0,270.6989439993776,4.0,1.0,phase_1,,,,,,,,,,,,,blue,triangle
0.0,5.0,0.0,1.0,2.0,2.0,263.517287000468,4.0,1.0,phase_1,,,,,,,,,,,,,yellow,I
413.0,4.0,4.0,0.0,2.0,2.0,242.6825659995302,4.0,1.0,phase_1,,,,,,,,,,,,,magenta,cross
111.0,2.0,2.0,0.0,1.0,1.0,195.4586320007365,4.0,1.0,phase_1,,,,,,,,,,,,,orange,circle
206.0,7.0,3.0,1.0,2.0,2.0,262.4414700003399,4.0,1.0,phase_1,,,,,,,,,,,,,gray,square
69.0,5.0,1.0,1.0,3.0,3.0,252.57927399979963,4.0,1.0,phase_1,,,,,,,,,,,,,yellow,I
67.0,1.0,1.0,0.0,4.0,4.0,259.9890510000477,4.0,1.0,phase_1,,,,,,,,,,,,,white,flipped triangle
392.0,4.0,4.0,0.0,1.0,1.0,212.0237790004466,4.0,1.0,phase_1,,,,,,,,,,,,,magenta,cross
186.0,3.0,3.0,0.0,1.0,1.0,223.0168320002121,4.0,1.0,phase_1,,,,,,,,,,,,,green,diamond
37.0,1.0,1.0,0.0,2.0,2.0,233.4316320002472,4.0,1.0,phase_1,,,,,,,,,,,,,white,flipped triangle
192.0,3.0,3.0,0.0,3.0,3.0,252.6926860000458,4.0,1.0,phase_1,,,,,,,,,,,,,green,diamond
416.0,8.0,4.0,1.0,3.0,3.0,229.3174010001166,4.0,2.0,phase_1,,,,,,,,,,,,,cyan,hexagon
194.0,3.0,3.0,0.0,1.0,1.0,146.491937999599,4.0,1.0,phase_1,,,,,,,,,,,,,green,diamond
0.0,2.0,0.0,0.0,3.0,3.0,497.4033720000079,4.0,1.0,phase_1,,,,,,,,,,,,,orange,circle
414.0,4.0,4.0,0.0,1.0,1.0,232.677985999544,4.0,1.0,phase_1,,,,,,,,,,,,,magenta,cross
104.0,6.0,2.0,1.0,2.0,2.0,289.1662299998643,4.0,1.0,phase_1,,,,,,,,,,,,,blue,triangle
25.0,5.0,1.0,1.0,4.0,4.0,202.75482600027308,4.0,1.0,phase_1,,,,,,,,,,,,,yellow,I
57.0,5.0,1.0,1.0,2.0,2.0,244.6240580002268,4.0,1.0,phase_1,,,,,,,,,,,,,yellow,I
0.0,8.0,0.0,1.0,2.0,2.0,264.2655740000919,4.0,1.0,phase_1,,,,,,,,,,,,,cyan,hexagon
200.0,3.0,3.0,0.0,3.0,3.0,243.7050220005403,4.0,1.0,phase_1,,,,,,,,,,,,,green,diamond
0.0,2.0,0.0,0.0,1.0,1.0,215.8642979993601,4.0,1.0,phase_1,,,,,,,,,,,,,orange,circle
199.0,3.0,3.0,0.0,1.0,1.0,225.3728109999428,4.0,1.0,phase_1,,,,,,,,,,,,,green,diamond
193.0,7.0,3.0,1.0,1.0,1.0,248.1704609999724,4.0,1.0,phase_1,,,,,,,,,,,,,gray,square
183.0,7.0,3.0,1.0,4.0,4.0,272.8508449999935,4.0,1.0,phase_1,,,,,,,,,,,,,gray,square
31.0,1.0,1.0,0.0,2.0,2.0,240.6749640003909,4.0,1.0,phase_1,,,,,,,,,,,,,white,flipped triangle
0.0,3.0,0.0,0.0,3.0,3.0,279.9053549997552,4.0,1.0,phase_1,,,,,,,,,,,,,green,diamond
0.0,7.0,0.0,1.0,2.0,2.0,243.319399000029,4.0,1.0,phase_1,,,,,,,,,,,,,gray,square
125.0,6.0,2.0,1.0,2.0,2.0,221.7097109996757,4.0,1.0,phase_1,,,,,,,,,,,,,blue,triangle
28.0,5.0,1.0,1.0,3.0,3.0,287.5843199999508,4.0,1.0,phase_1,,,,,,,,,,,,,yellow,I
180.0,7.0,3.0,1.0,2.0,2.0,232.5393700002678,4.0,1.0,phase_1,,,,,,,,,,,,,gray,square
402.0,4.0,4.0,0.0,2.0,2.0,253.3145550005429,4.0,1.0,phase_1,,,,,,,,,,,,,magenta,cross
182.0,3.0,3.0,0.0,1.0,1.0,242.5223509999341,4.0,1.0,phase_1,,,,,,,,,,,,,green,diamond
222.0,7.0,3.0,1.0,2.0,2.0,285.7691300005172,4.0,1.0,phase_1,,,,,,,,,,,,,gray,square
54.0,5.0,1.0,1.0,2.0,2.0,249.6583869997266,4.0,1.0,phase_1,,,,,,,,,,,,,yellow,I
202.0,7.0,3.0,1.0,4.0,4.0,291.8145390003701,4.0,1.0,phase_1,,,,,,,,,,,,,gray,square
0.0,7.0,0.0,1.0,3.0,3.0,293.6960390006788,4.0,1.0,phase_1,,,,,,,,,,,,,gray,square
180.0,3.0,3.0,0.0,4.0,4.0,234.3593799996597,4.0,1.0,phase_1,,,,,,,,,,,,,green,diamond
424.0,4.0,4.0,0.0,2.0,2.0,230.8655560000261,4.0,1.0,phase_1,,,,,,,,,,,,,magenta,cross
399.0,4.0,4.0,0.0,3.0,3.0,283.959720999519,4.0,1.0,phase_1,,,,,,,,,,,,,magenta,cross
84.0,6.0,2.0,1.0,3.0,3.0,261.6766999999527,4.0,1.0,phase_1,,,,,,,,,,,,,blue,triangle
410.0,4.0,4.0,0.0,4.0,4.0,231.7705350005781,4.0,1.0,phase_1,,,,,,,,,,,,,magenta,cross
103.0,6.0,2.0,1.0,1.0,1.0,210.43634000034208,4.0,1.0,phase_1,,,,,,,,,,,,,blue,triangle
124.0,6.0,2.0,1.0,1.0,1.0,252.18002000019618,4.0,1.0,phase_1,,,,,,,,,,,,,blue,triangle
399.0,8.0,4.0,1.0,3.0,3.0,246.044860999973,4.0,1.0,phase_1,,,,,,,,,,,,,cyan,hexagon
113.0,2.0,2.0,0.0,4.0,4.0,247.7067879999595,4.0,2.0,phase_1,,,,,,,,,,,,,orange,circle
81.0,2.0,2.0,0.0,2.0,2.0,239.137534999827,4.0,1.0,phase_1,,,,,,,,,,,,,orange,circle
177.0,7.0,3.0,1.0,3.0,3.0,295.9841129995766,4.0,1.0,phase_1,,,,,,,,,,,,,gray,square
111.0,2.0,2.0,0.0,1.0,1.0,204.4852069993794,4.0,1.0,phase_1,,,,,,,,,,,,,orange,circle
0.0,8.0,0.0,1.0,2.0,2.0,265.4721239996434,4.0,1.0,phase_1,,,,,,,,,,,,,cyan,hexagon
199.0,7.0,3.0,1.0,2.0,2.0,292.6818839996485,4.0,1.0,phase_1,,,,,,,,,,,,,gray,square
217.0,3.0,3.0,0.0,2.0,2.0,260.742245000074,4.0,1.0,phase_1,,,,,,,,,,,,,green,diamond
124.0,6.0,2.0,1.0,3.0,3.0,256.0604959999182,4.0,1.0,phase_1,,,,,,,,,,,,,blue,triangle
125.0,2.0,2.0,0.0,3.0,3.0,299.0877570000521,4.0,1.0,phase_1,,,,,,,,,,,,,orange,circle
81.0,6.0,2.0,1.0,1.0,1.0,243.7415919994237,4.0,1.0,phase_1,,,,,,,,,,,,,blue,triangle
204.0,3.0,3.0,0.0,1.0,1.0,241.9068429999242,4.0,1.0,phase_1,,,,,,,,,,,,,green,diamond
223.0,7.0,3.0,1.0,3.0,3.0,243.2481209998513,4.0,1.0,phase_1,,,,,,,,,,,,,gray,square
98.0,2.0,2.0,0.0,4.0,4.0,246.9508110007154,4.0,1.0,phase_1,,,,,,,,,,,,,orange,circle
182.0,7.0,3.0,1.0,4.0,4.0,259.7741859999587,4.0,1.0,phase_1,,,,,,,,,,,,,gray,square
56.0,5.0,1.0,1.0,2.0,2.0,253.14325300041668,4.0,1.0,phase_1,,,,,,,,,,,,,yellow,I
192.0,7.0,3.0,1.0,1.0,1.0,227.2550939997017,4.0,1.0,phase_1,,,,,,,,,,,,,gray,square
93.0,2.0,2.0,0.0,2.0,2.0,225.6043509996743,4.0,1.0,phase_1,,,,,,,,,,,,,orange,circle
413.0,8.0,4.0,1.0,4.0,4.0,231.2864740006261,4.0,1.0,phase_1,,,,,,,,,,,,,cyan,hexagon
0.0,6.0,0.0,1.0,1.0,1.0,229.0469409999787,4.0,1.0,phase_1,,,,,,,,,,,,,blue,triangle
120.0,6.0,2.0,1.0,1.0,1.0,255.349405000743,4.0,1.0,phase_1,,,,,,,,,,,,,blue,triangle
37.0,5.0,1.0,1.0,1.0,1.0,229.1519480004353,4.0,1.0,phase_1,,,,,,,,,,,,,yellow,I
209.0,7.0,3.0,1.0,3.0,3.0,275.4066310008056,4.0,1.0,phase_1,,,,,,,,,,,,,gray,square
192.0,7.0,3.0,1.0,3.0,3.0,283.9011370006119,4.0,1.0,phase_1,,,,,,,,,,,,,gray,square
0.0,2.0,0.0,0.0,1.0,1.0,206.4609380004185,4.0,1.0,phase_1,,,,,,,,,,,,,orange,circle
40.0,5.0,1.0,1.0,1.0,1.0,219.5676399996955,4.0,1.0,phase_1,,,,,,,,,,,,,yellow,I
58.0,1.0,1.0,0.0,4.0,4.0,235.0851490000423,4.0,1.0,phase_1,,,,,,,,,,,,,white,flipped triangle
197.0,7.0,3.0,1.0,1.0,1.0,200.1489260001108,4.0,1.0,phase_1,,,,,,,,,,,,,gray,square
0.0,6.0,0.0,1.0,4.0,4.0,244.7646290002012,4.0,1.0,phase_1,,,,,,,,,,,,,blue,triangle
208.0,3.0,3.0,0.0,4.0,4.0,281.3131029997748,4.0,1.0,phase_1,,,,,,,,,,,,,green,diamond
84.0,6.0,2.0,1.0,3.0,3.0,261.0922069998196,4.0,1.0,phase_1,,,,,,,,,,,,,blue,triangle
0.0,6.0,0.0,1.0,1.0,1.0,247.7979300001607,4.0,1.0,phase_1,,,,,,,,,,,,,blue,triangle
0.0,4.0,0.0,0.0,1.0,1.0,226.1462280002888,4.0,2.0,phase_1,,,,,,,,,,,,,magenta,cross
392.0,8.0,4.0,1.0,2.0,2.0,250.1572190003571,4.0,1.0,phase_1,,,,,,,,,,,,,cyan,hexagon
409.0,4.0,4.0,0.0,1.0,1.0,244.0019850000681,4.0,1.0,phase_1,,,,,,,,,,,,,magenta,cross
111.0,6.0,2.0,1.0,2.0,2.0,305.0937670004714,4.0,1.0,phase_1,,,,,,,,,,,,,blue,triangle
194.0,3.0,3.0,0.0,3.0,3.0,282.5443049996465,4.0,1.0,phase_1,,,,,,,,,,,,,green,diamond
35.0,1.0,1.0,0.0,3.0,3.0,296.7653600007907,4.0,1.0,phase_1,,,,,,,,,,,,,white,flipped triangle
225.0,3.0,3.0,0.0,2.0,2.0,264.3472499994459,4.0,1.0,phase_1,,,,,,,,,,,,,green,diamond
382.0,4.0,4.0,0.0,4.0,4.0,278.4757749996061,4.0,1.0,phase_1,,,,,,,,,,,,,magenta,cross
376.0,8.0,4.0,1.0,2.0,2.0,262.3295900002631,4.0,1.0,phase_1,,,,,,,,,,,,,cyan,hexagon
389.0,4.0,4.0,0.0,2.0,2.0,253.1589849995725,4.0,1.0,phase_1,,,,,,,,,,,,,magenta,cross
90.0,6.0,2.0,1.0,4.0,4.0,294.6955540000999,4.0,1.0,phase_1,,,,,,,,,,,,,blue,triangle
187.0,3.0,3.0,0.0,2.0,2.0,259.4800639999448,4.0,1.0,phase_1,,,,,,,,,,,,,green,diamond
0.0,8.0,0.0,1.0,3.0,3.0,283.9774639996903,4.0,1.0,phase_1,,,,,,,,,,,,,cyan,hexagon
119.0,6.0,2.0,1.0,3.0,3.0,282.7796259998649,4.0,1.0,phase_1,,,,,,,,,,,,,blue,triangle
69.0,1.0,1.0,0.0,2.0,2.0,293.703364999601,4.0,1.0,phase_1,,,,,,,,,,,,,white,flipped triangle
34.0,5.0,1.0,1.0,2.0,2.0,242.5181700000394,4.0,1.0,phase_1,,,,,,,,,,,,,yellow,I
404.0,8.0,4.0,1.0,3.0,3.0,262.8440400003455,4.0,1.0,phase_1,,,,,,,,,,,,,cyan,hexagon
61.0,1.0,1.0,0.0,1.0,1.0,213.9575370001694,4.0,1.0,phase_1,,,,,,,,,,,,,white,flipped triangle
187.0,7.0,3.0,1.0,2.0,2.0,245.0470750000022,4.0,1.0,phase_1,,,,,,,,,,,,,gray,square
200.0,7.0,3.0,1.0,2.0,2.0,242.2884319994409,4.0,1.0,phase_1,,,,,,,,,,,,,gray,square
59.0,1.0,1.0,0.0,1.0,1.0,258.694595999259,4.0,1.0,phase_1,,,,,,,,,,,,,white,flipped triangle
0.0,4.0,0.0,0.0,4.0,4.0,236.7113299997072,4.0,2.0,phase_1,,,,,,,,,,,,,magenta,cross
0.0,3.0,3.0,0.0,6.0,6.0,328.0128010001135,1.0,1.0,phase_2,go,250.0,250.0,1.0,,,,,,,,,green,diamond
0.0,6.0,2.0,1.0,5.0,5.0,219.1088490008041,1.0,1.0,phase_2,stop,250.0,250.0,3.0,,,,,,,,,blue,triangle
0.0,1.0,1.0,0.0,6.0,6.0,219.8545620003642,1.0,1.0,phase_2,go,200.0,250.0,1.0,,,,,,,,,white,flipped triangle
0.0,8.0,4.0,1.0,5.0,5.0,219.47501500017088,1.0,1.0,phase_2,go,200.0,250.0,1.0,,,,,,,,,cyan,hexagon
0.0,7.0,3.0,1.0,6.0,6.0,344.072220000271,1.0,1.0,phase_2,go,200.0,250.0,1.0,,,,,,,,,gray,square
0.0,3.0,3.0,0.0,5.0,5.0,212.2674760003065,1.0,1.0,phase_2,go,200.0,250.0,1.0,,,,,,,,,green,diamond
0.0,2.0,2.0,0.0,5.0,5.0,243.0398870001227,1.0,1.0,phase_2,go,200.0,250.0,1.0,,,,,,,,,orange,circle
0.0,3.0,3.0,0.0,6.0,6.0,332.4836130004769,1.0,1.0,phase_2,go,200.0,250.0,1.0,,,,,,,,,green,diamond
0.0,5.0,1.0,1.0,5.0,5.0,237.31052599941899,1.0,1.0,phase_2,stop,200.0,250.0,3.0,,,,,,,,,yellow,I
0.0,1.0,1.0,0.0,5.0,5.0,329.0867530004107,1.0,1.0,phase_2,go,150.0,250.0,1.0,,,,,,,,,white,flipped triangle
0.0,6.0,2.0,1.0,5.0,0.0,0.0,1.0,1.0,phase_2,stop,150.0,250.0,4.0,,,,,,,,,blue,triangle
0.0,8.0,4.0,1.0,5.0,5.0,242.6973960000396,1.0,1.0,phase_2,stop,200.0,250.0,3.0,,,,,,,,,cyan,hexagon
0.0,2.0,2.0,0.0,5.0,5.0,402.6500469999519,1.0,1.0,phase_2,go,150.0,250.0,1.0,,,,,,,,,orange,circle
0.0,5.0,1.0,1.0,6.0,6.0,448.8856230000237,1.0,1.0,phase_2,go,150.0,250.0,1.0,,,,,,,,,yellow,I
0.0,4.0,4.0,0.0,6.0,6.0,326.0761339997771,1.0,1.0,phase_2,go,150.0,250.0,1.0,,,,,,,,,magenta,cross
0.0,8.0,4.0,1.0,6.0,6.0,425.7912200000646,1.0,1.0,phase_2,go,150.0,250.0,1.0,,,,,,,,,cyan,hexagon
0.0,5.0,1.0,1.0,5.0,5.0,304.0806110002449,1.0,1.0,phase_2,go,150.0,250.0,1.0,,,,,,,,,yellow,I
0.0,1.0,1.0,0.0,6.0,6.0,247.8907659997276,1.0,1.0,phase_2,go,150.0,250.0,1.0,,,,,,,,,white,flipped triangle
0.0,4.0,4.0,0.0,6.0,6.0,279.9265470002865,1.0,1.0,phase_2,go,150.0,250.0,1.0,,,,,,,,,magenta,cross
0.0,8.0,4.0,1.0,6.0,6.0,291.0229620001701,1.0,1.0,phase_2,stop,150.0,250.0,3.0,,,,,,,,,cyan,hexagon
0.0,4.0,4.0,0.0,5.0,5.0,396.1873360003665,1.0,1.0,phase_2,go,150.0,200.0,1.0,,,,,,,,,magenta,cross
0.0,6.0,2.0,1.0,6.0,0.0,0.0,1.0,1.0,phase_2,stop,150.0,200.0,4.0,,,,,,,,,blue,triangle
0.0,1.0,1.0,0.0,6.0,6.0,231.5927780000493,1.0,1.0,phase_2,go,150.0,250.0,1.0,,,,,,,,,white,flipped triangle
0.0,7.0,3.0,1.0,5.0,5.0,207.4728800007506,1.0,1.0,phase_2,stop,150.0,250.0,3.0,,,,,,,,,gray,square
0.0,2.0,2.0,0.0,5.0,5.0,491.3170070003616,1.0,1.0,phase_2,go,100.0,250.0,1.0,,,,,,,,,orange,circle
0.0,5.0,1.0,1.0,6.0,0.0,0.0,1.0,1.0,phase_2,stop,100.0,250.0,4.0,,,,,,,,,yellow,I
0.0,4.0,4.0,0.0,6.0,6.0,451.3094120002279,1.0,1.0,phase_2,go,100.0,300.0,1.0,,,,,,,,,magenta,cross
0.0,7.0,3.0,1.0,5.0,0.0,0.0,1.0,1.0,phase_2,stop,100.0,300.0,4.0,,,,,,,,,gray,square
0.0,6.0,2.0,1.0,5.0,5.0,282.1492379998744,1.0,1.0,phase_2,go,150.0,300.0,1.0,,,,,,,,,blue,triangle
0.0,3.0,3.0,0.0,5.0,5.0,238.9132520002022,1.0,1.0,phase_2,go,150.0,300.0,1.0,,,,,,,,,green,diamond
0.0,2.0,2.0,0.0,6.0,6.0,280.9964070002024,1.0,1.0,phase_2,go,150.0,300.0,1.0,,,,,,,,,orange,circle
0.0,2.0,2.0,0.0,5.0,5.0,234.3526509994262,1.0,1.0,phase_2,go,150.0,300.0,1.0,,,,,,,,,orange,circle
0.0,4.0,4.0,0.0,6.0,6.0,300.0550970000404,1.0,1.0,phase_2,go,150.0,300.0,1.0,,,,,,,,,magenta,cross
0.0,1.0,1.0,0.0,5.0,5.0,291.422035999858,1.0,1.0,phase_2,go,150.0,300.0,1.0,,,,,,,,,white,flipped triangle
0.0,5.0,1.0,1.0,5.0,5.0,304.7129570004472,1.0,1.0,phase_2,stop,150.0,300.0,3.0,,,,,,,,,yellow,I
0.0,4.0,4.0,0.0,6.0,6.0,314.84016700051137,1.0,1.0,phase_2,go,100.0,300.0,1.0,,,,,,,,,magenta,cross
0.0,8.0,4.0,1.0,6.0,0.0,0.0,2.0,1.0,phase_2,stop,100.0,300.0,4.0,,,,,,,,,cyan,hexagon
0.0,1.0,1.0,0.0,5.0,5.0,293.7413379995632,2.0,1.0,phase_2,go,100.0,350.0,1.0,,,,,,,,,white,flipped triangle
0.0,7.0,3.0,1.0,5.0,0.0,0.0,2.0,1.0,phase_2,stop,100.0,350.0,4.0,,,,,,,,,gray,square
0.0,2.0,2.0,0.0,6.0,6.0,242.9703299994798,2.0,1.0,phase_2,go,150.0,350.0,1.0,,,,,,,,,orange,circle
0.0,5.0,1.0,1.0,5.0,5.0,333.4861329994965,2.0,1.0,phase_2,go,150.0,350.0,1.0,,,,,,,,,yellow,I
0.0,5.0,1.0,1.0,6.0,6.0,382.022544999927,2.0,1.0,phase_2,stop,150.0,350.0,3.0,,,,,,,,,yellow,I
0.0,8.0,4.0,1.0,5.0,0.0,0.0,2.0,1.0,phase_2,stop,150.0,300.0,4.0,,,,,,,,,cyan,hexagon
0.0,7.0,3.0,1.0,5.0,5.0,326.5771719998156,2.0,1.0,phase_2,stop,200.0,300.0,3.0,,,,,,,,,gray,square
0.0,1.0,1.0,0.0,5.0,5.0,545.6709200007026,2.0,1.0,phase_2,go,150.0,300.0,1.0,,,,,,,,,white,flipped triangle
0.0,4.0,4.0,0.0,6.0,6.0,568.9433739999004,2.0,1.0,phase_2,go,150.0,300.0,1.0,,,,,,,,,magenta,cross
0.0,1.0,1.0,0.0,5.0,5.0,583.0420929996762,2.0,1.0,phase_2,go,150.0,300.0,1.0,,,,,,,,,white,flipped triangle
0.0,6.0,2.0,1.0,5.0,0.0,0.0,2.0,1.0,phase_2,stop,150.0,300.0,4.0,,,,,,,,,blue,triangle
0.0,8.0,4.0,1.0,5.0,5.0,357.8767640001388,2.0,1.0,phase_2,go,200.0,300.0,1.0,,,,,,,,,cyan,hexagon
0.0,3.0,3.0,0.0,6.0,6.0,446.1727010002505,2.0,1.0,phase_2,go,200.0,300.0,1.0,,,,,,,,,green,diamond
0.0,5.0,1.0,1.0,5.0,0.0,0.0,2.0,1.0,phase_2,stop,200.0,300.0,4.0,,,,,,,,,yellow,I
0.0,5.0,1.0,1.0,6.0,6.0,264.9290210001709,2.0,1.0,phase_2,stop,250.0,300.0,3.0,,,,,,,,,yellow,I
0.0,3.0,3.0,0.0,6.0,6.0,412.6532509999379,2.0,1.0,phase_2,go,250.0,250.0,1.0,,,,,,,,,green,diamond
0.0,3.0,3.0,0.0,5.0,5.0,645.5348110002888,2.0,1.0,phase_2,go,250.0,250.0,1.0,,,,,,,,,green,diamond
0.0,8.0,4.0,1.0,6.0,0.0,0.0,2.0,1.0,phase_2,stop,250.0,250.0,4.0,,,,,,,,,cyan,hexagon
0.0,8.0,4.0,1.0,5.0,5.0,426.874260000659,2.0,1.0,phase_2,stop,250.0,300.0,3.0,,,,,,,,,cyan,hexagon
0.0,6.0,2.0,1.0,6.0,0.0,0.0,2.0,1.0,phase_2,stop,200.0,300.0,4.0,,,,,,,,,blue,triangle
0.0,3.0,3.0,0.0,6.0,6.0,344.3729530008568,2.0,1.0,phase_2,go,200.0,350.0,1.0,,,,,,,,,green,diamond
0.0,8.0,4.0,1.0,6.0,0.0,0.0,2.0,1.0,phase_2,stop,200.0,350.0,4.0,,,,,,,,,cyan,hexagon
0.0,2.0,2.0,0.0,5.0,5.0,517.4233200004892,2.0,1.0,phase_2,go,200.0,400.0,1.0,,,,,,,,,orange,circle
0.0,3.0,3.0,0.0,5.0,5.0,462.4449650000315,2.0,1.0,phase_2,go,200.0,400.0,1.0,,,,,,,,,green,diamond
0.0,3.0,3.0,0.0,6.0,6.0,535.0377770000705,2.0,1.0,phase_2,go,200.0,400.0,1.0,,,,,,,,,green,diamond
0.0,2.0,2.0,0.0,5.0,5.0,524.7356259997105,2.0,1.0,phase_2,go,200.0,400.0,1.0,,,,,,,,,orange,circle
0.0,3.0,3.0,0.0,5.0,5.0,299.9880970000959,2.0,1.0,phase_2,go,200.0,400.0,1.0,,,,,,,,,green,diamond
0.0,4.0,4.0,0.0,5.0,5.0,629.1380000002391,2.0,1.0,phase_2,go,200.0,400.0,1.0,,,,,,,,,magenta,cross
0.0,6.0,2.0,1.0,6.0,6.0,491.5781230001812,2.0,1.0,phase_2,stop,200.0,400.0,3.0,,,,,,,,,blue,triangle
0.0,5.0,1.0,1.0,6.0,6.0,456.1376060000839,2.0,1.0,phase_2,stop,200.0,350.0,3.0,,,,,,,,,yellow,I
0.0,2.0,2.0,0.0,5.0,5.0,733.934455999588,2.0,1.0,phase_2,go,200.0,300.0,1.0,,,,,,,,,orange,circle
0.0,6.0,2.0,1.0,5.0,5.0,669.7297749997233,2.0,1.0,phase_2,go,200.0,300.0,1.0,,,,,,,,,blue,triangle
0.0,8.0,4.0,1.0,5.0,0.0,0.0,2.0,1.0,phase_2,stop,200.0,300.0,4.0,,,,,,,,,cyan,hexagon
0.0,4.0,4.0,0.0,6.0,6.0,548.2826890001888,2.0,1.0,phase_2,go,250.0,300.0,1.0,,,,,,,,,magenta,cross
0.0,3.0,3.0,0.0,6.0,6.0,362.1109579999029,2.0,1.0,phase_2,go,250.0,300.0,1.0,,,,,,,,,green,diamond
0.0,4.0,4.0,0.0,5.0,5.0,302.769955000258,3.0,1.0,phase_2,go,250.0,300.0,1.0,,,,,,,,,magenta,cross
0.0,1.0,1.0,0.0,5.0,5.0,659.8421420003433,3.0,1.0,phase_2,go,250.0,300.0,1.0,,,,,,,,,white,flipped triangle
0.0,5.0,1.0,1.0,6.0,0.0,0.0,3.0,1.0,phase_2,stop,250.0,300.0,4.0,,,,,,,,,yellow,I
0.0,4.0,4.0,0.0,6.0,6.0,352.6411990005726,3.0,1.0,phase_2,go,250.0,350.0,1.0,,,,,,,,,magenta,cross
0.0,6.0,2.0,1.0,5.0,0.0,0.0,3.0,1.0,phase_2,stop,250.0,350.0,4.0,,,,,,,,,blue,triangle
0.0,4.0,4.0,0.0,6.0,6.0,266.8782939999801,3.0,1.0,phase_2,go,300.0,350.0,1.0,,,,,,,,,magenta,cross
0.0,4.0,4.0,0.0,5.0,5.0,583.3973230000993,3.0,1.0,phase_2,go,300.0,350.0,1.0,,,,,,,,,magenta,cross
0.0,4.0,4.0,0.0,6.0,6.0,548.0031910001344,3.0,1.0,phase_2,go,300.0,350.0,1.0,,,,,,,,,magenta,cross
0.0,7.0,3.0,1.0,6.0,0.0,0.0,3.0,1.0,phase_2,stop,300.0,350.0,4.0,,,,,,,,,gray,square
0.0,8.0,4.0,1.0,5.0,5.0,286.5014360004352,3.0,1.0,phase_2,go,300.0,400.0,1.0,,,,,,,,,cyan,hexagon
0.0,8.0,4.0,1.0,5.0,0.0,0.0,3.0,1.0,phase_2,stop,300.0,400.0,4.0,,,,,,,,,cyan,hexagon
0.0,7.0,3.0,1.0,5.0,5.0,347.5267600006191,3.0,1.0,phase_2,go,350.0,400.0,1.0,,,,,,,,,gray,square
0.0,5.0,1.0,1.0,6.0,6.0,496.5515100002449,3.0,1.0,phase_2,go,350.0,400.0,1.0,,,,,,,,,yellow,I
0.0,7.0,3.0,1.0,5.0,0.0,0.0,3.0,1.0,phase_2,stop,350.0,400.0,4.0,,,,,,,,,gray,square
0.0,6.0,2.0,1.0,6.0,6.0,309.020290999797,3.0,1.0,phase_2,stop,400.0,400.0,3.0,,,,,,,,,blue,triangle
0.0,8.0,4.0,1.0,6.0,6.0,460.772927999642,3.0,1.0,phase_2,go,400.0,350.0,1.0,,,,,,,,,cyan,hexagon
0.0,2.0,2.0,0.0,6.0,6.0,753.5932900000262,3.0,1.0,phase_2,go,400.0,350.0,1.0,,,,,,,,,orange,circle
0.0,4.0,4.0,0.0,5.0,5.0,497.2605970006043,3.0,1.0,phase_2,go,400.0,350.0,1.0,,,,,,,,,magenta,cross
0.0,3.0,3.0,0.0,5.0,5.0,453.5284069997942,3.0,1.0,phase_2,go,400.0,350.0,1.0,,,,,,,,,green,diamond
0.0,1.0,1.0,0.0,5.0,5.0,681.3627820001784,3.0,1.0,phase_2,go,400.0,350.0,1.0,,,,,,,,,white,flipped triangle
0.0,4.0,4.0,0.0,5.0,5.0,376.8937869999718,3.0,1.0,phase_2,go,400.0,350.0,1.0,,,,,,,,,magenta,cross
0.0,1.0,1.0,0.0,6.0,6.0,701.0498839999855,3.0,1.0,phase_2,go,400.0,350.0,1.0,,,,,,,,,white,flipped triangle
0.0,3.0,3.0,0.0,6.0,6.0,600.118620000103,3.0,1.0,phase_2,go,400.0,350.0,1.0,,,,,,,,,green,diamond
0.0,8.0,4.0,1.0,6.0,6.0,447.3351360002198,3.0,1.0,phase_2,stop,400.0,350.0,3.0,,,,,,,,,cyan,hexagon
0.0,5.0,1.0,1.0,6.0,0.0,0.0,3.0,1.0,phase_2,stop,400.0,300.0,4.0,,,,,,,,,yellow,I
0.0,1.0,1.0,0.0,5.0,5.0,400.7704730001933,3.0,1.0,phase_2,go,400.0,350.0,1.0,,,,,,,,,white,flipped triangle
0.0,1.0,1.0,0.0,6.0,6.0,359.7109649999765,3.0,1.0,phase_2,go,400.0,350.0,1.0,,,,,,,,,white,flipped triangle
0.0,8.0,4.0,1.0,6.0,0.0,0.0,3.0,1.0,phase_2,stop,400.0,350.0,4.0,,,,,,,,,cyan,hexagon
0.0,6.0,2.0,1.0,5.0,5.0,511.2977299995691,3.0,1.0,phase_2,stop,400.0,400.0,3.0,,,,,,,,,blue,triangle
0.0,3.0,3.0,0.0,5.0,5.0,483.1634749998557,3.0,1.0,phase_2,go,350.0,400.0,1.0,,,,,,,,,green,diamond
0.0,3.0,3.0,0.0,6.0,6.0,547.8407520004112,3.0,1.0,phase_2,go,350.0,400.0,1.0,,,,,,,,,green,diamond
0.0,7.0,3.0,1.0,6.0,0.0,0.0,3.0,1.0,phase_2,stop,350.0,400.0,4.0,,,,,,,,,gray,square
0.0,5.0,1.0,1.0,6.0,6.0,612.8331390000312,3.0,1.0,phase_2,go,350.0,450.0,1.0,,,,,,,,,yellow,I
0.0,1.0,1.0,0.0,6.0,6.0,533.5694730001705,3.0,1.0,phase_2,go,350.0,450.0,1.0,,,,,,,,,white,flipped triangle
0.0,1.0,1.0,0.0,6.0,6.0,781.4780329999849,3.0,1.0,phase_2,go,350.0,450.0,1.0,,,,,,,,,white,flipped triangle
0.0,7.0,3.0,1.0,6.0,6.0,808.9935940006399,3.0,1.0,phase_2,go,350.0,450.0,1.0,,,,,,,,,gray,square
0.0,6.0,2.0,1.0,6.0,0.0,0.0,4.0,1.0,phase_2,stop,350.0,450.0,4.0,,,,,,,,,blue,triangle
0.0,7.0,3.0,1.0,5.0,5.0,383.3172120002928,4.0,1.0,phase_2,stop,350.0,500.0,3.0,,,,,,,,,gray,square
0.0,4.0,4.0,0.0,5.0,5.0,474.9492969995117,4.0,1.0,phase_2,go,300.0,500.0,1.0,,,,,,,,,magenta,cross
0.0,5.0,1.0,1.0,5.0,0.0,0.0,4.0,1.0,phase_2,stop,300.0,500.0,4.0,,,,,,,,,yellow,I
0.0,4.0,4.0,0.0,6.0,6.0,462.9615789999661,4.0,1.0,phase_2,go,350.0,500.0,1.0,,,,,,,,,magenta,cross
0.0,3.0,3.0,0.0,6.0,6.0,534.4393340001261,4.0,1.0,phase_2,go,350.0,500.0,1.0,,,,,,,,,green,diamond
0.0,5.0,1.0,1.0,6.0,6.0,652.1949919997496,4.0,1.0,phase_2,stop,350.0,500.0,3.0,,,,,,,,,yellow,I
0.0,3.0,3.0,0.0,5.0,5.0,451.1715910002749,4.0,1.0,phase_2,go,350.0,450.0,1.0,,,,,,,,,green,diamond
0.0,6.0,2.0,1.0,6.0,6.0,506.32494100045733,4.0,1.0,phase_2,stop,350.0,450.0,3.0,,,,,,,,,blue,triangle
0.0,5.0,1.0,1.0,5.0,5.0,595.084513999609,4.0,1.0,phase_2,go,350.0,400.0,1.0,,,,,,,,,yellow,I
0.0,7.0,3.0,1.0,5.0,0.0,0.0,4.0,1.0,phase_2,stop,350.0,400.0,4.0,,,,,,,,,gray,square
0.0,5.0,1.0,1.0,5.0,0.0,0.0,4.0,1.0,phase_2,stop,400.0,400.0,4.0,,,,,,,,,yellow,I
0.0,6.0,2.0,1.0,5.0,5.0,550.2929280000899,4.0,1.0,phase_2,go,450.0,400.0,1.0,,,,,,,,,blue,triangle
0.0,2.0,2.0,0.0,5.0,5.0,631.9959950005796,4.0,1.0,phase_2,go,450.0,400.0,1.0,,,,,,,,,orange,circle
0.0,1.0,1.0,0.0,6.0,6.0,639.6309469992048,4.0,1.0,phase_2,go,450.0,400.0,1.0,,,,,,,,,white,flipped triangle
0.0,6.0,2.0,1.0,5.0,5.0,546.3604420001502,4.0,1.0,phase_2,stop,450.0,400.0,3.0,,,,,,,,,blue,triangle
0.0,4.0,4.0,0.0,6.0,6.0,678.8143200001286,4.0,1.0,phase_2,go,400.0,400.0,1.0,,,,,,,,,magenta,cross
0.0,8.0,4.0,1.0,5.0,0.0,0.0,4.0,1.0,phase_2,stop,400.0,400.0,4.0,,,,,,,,,cyan,hexagon
0.0,7.0,3.0,1.0,6.0,6.0,462.1137630001612,4.0,1.0,phase_2,go,450.0,400.0,1.0,,,,,,,,,gray,square
0.0,6.0,2.0,1.0,6.0,6.0,752.9989499998919,4.0,1.0,phase_2,go,450.0,400.0,1.0,,,,,,,,,blue,triangle
0.0,1.0,1.0,0.0,6.0,6.0,608.950982999886,4.0,1.0,phase_2,go,450.0,400.0,1.0,,,,,,,,,white,flipped triangle
0.0,6.0,2.0,1.0,5.0,0.0,0.0,4.0,1.0,phase_2,stop,450.0,400.0,4.0,,,,,,,,,blue,triangle
0.0,2.0,2.0,0.0,5.0,5.0,640.1969600001394,4.0,1.0,phase_2,go,500.0,400.0,1.0,,,,,,,,,orange,circle
0.0,3.0,3.0,0.0,6.0,6.0,705.5330270004561,4.0,1.0,phase_2,go,500.0,400.0,1.0,,,,,,,,,green,diamond
0.0,4.0,4.0,0.0,6.0,6.0,738.0861709998499,4.0,1.0,phase_2,go,500.0,400.0,1.0,,,,,,,,,magenta,cross
0.0,7.0,3.0,1.0,5.0,0.0,0.0,4.0,1.0,phase_2,stop,500.0,400.0,4.0,,,,,,,,,gray,square
0.0,2.0,2.0,0.0,6.0,6.0,636.761519999709,4.0,1.0,phase_2,go,550.0,400.0,1.0,,,,,,,,,orange,circle
0.0,5.0,1.0,1.0,5.0,0.0,0.0,4.0,1.0,phase_2,stop,550.0,400.0,4.0,,,,,,,,,yellow,I
0.0,5.0,1.0,1.0,5.0,5.0,729.922149000231,4.0,1.0,phase_2,stop,600.0,400.0,3.0,,,,,,,,,yellow,I
0.0,2.0,2.0,0.0,5.0,5.0,658.1332249998013,4.0,1.0,phase_2,go,550.0,400.0,1.0,,,,,,,,,orange,circle
0.0,2.0,2.0,0.0,5.0,5.0,744.5282810003846,4.0,1.0,phase_2,go,550.0,400.0,1.0,,,,,,,,,orange,circle
0.0,1.0,1.0,0.0,6.0,6.0,667.3429789998409,4.0,1.0,phase_2,go,550.0,400.0,1.0,,,,,,,,,white,flipped triangle
0.0,7.0,3.0,1.0,6.0,0.0,0.0,4.0,1.0,phase_2,stop,550.0,400.0,4.0,,,,,,,,,gray,square
0.0,6.0,2.0,1.0,5.0,0.0,0.0,4.0,1.0,phase_2,stop,550.0,450.0,4.0,,,,,,,,,blue,triangle
0.0,8.0,4.0,1.0,6.0,0.0,0.0,4.0,1.0,phase_2,stop,600.0,450.0,4.0,,,,,,,,,cyan,hexagon
0.0,4.0,4.0,0.0,5.0,5.0,580.1713099999688,4.0,1.0,phase_2,go,600.0,500.0,1.0,,,,,,,,,magenta,cross
0.0,7.0,3.0,1.0,6.0,6.0,389.5585290001691,5.0,1.0,phase_2,go,600.0,500.0,1.0,,,,,,,,,gray,square
0.0,2.0,2.0,0.0,5.0,5.0,437.2341050002433,5.0,1.0,phase_2,go,600.0,500.0,1.0,,,,,,,,,orange,circle
0.0,2.0,2.0,0.0,6.0,6.0,509.79439799994,5.0,1.0,phase_2,go,600.0,500.0,1.0,,,,,,,,,orange,circle
0.0,4.0,4.0,0.0,5.0,5.0,402.5789560000703,5.0,1.0,phase_2,go,600.0,500.0,1.0,,,,,,,,,magenta,cross
0.0,8.0,4.0,1.0,6.0,6.0,647.1081059999051,5.0,1.0,phase_2,stop,600.0,500.0,3.0,,,,,,,,,cyan,hexagon
0.0,3.0,3.0,0.0,5.0,5.0,712.5319619999573,5.0,1.0,phase_2,go,600.0,450.0,1.0,,,,,,,,,green,diamond
0.0,6.0,2.0,1.0,6.0,6.0,676.9385779998629,5.0,1.0,phase_2,go,600.0,450.0,1.0,,,,,,,,,blue,triangle
0.0,1.0,1.0,0.0,5.0,5.0,656.1789629995474,5.0,1.0,phase_2,go,600.0,450.0,1.0,,,,,,,,,white,flipped triangle
0.0,5.0,1.0,1.0,5.0,0.0,0.0,5.0,1.0,phase_2,stop,600.0,450.0,4.0,,,,,,,,,yellow,I
0.0,6.0,2.0,1.0,6.0,6.0,534.309074999328,5.0,1.0,phase_2,stop,650.0,450.0,3.0,,,,,,,,,blue,triangle
0.0,7.0,3.0,1.0,6.0,0.0,0.0,5.0,1.0,phase_2,stop,650.0,400.0,4.0,,,,,,,,,gray,square
0.0,3.0,3.0,0.0,5.0,5.0,611.4579499999309,5.0,1.0,phase_2,go,650.0,450.0,1.0,,,,,,,,,green,diamond
0.0,2.0,2.0,0.0,6.0,6.0,624.213425000562,5.0,1.0,phase_2,go,650.0,450.0,1.0,,,,,,,,,orange,circle
0.0,5.0,1.0,1.0,5.0,5.0,779.9837909997223,5.0,1.0,phase_2,stop,650.0,450.0,3.0,,,,,,,,,yellow,I
0.0,2.0,2.0,0.0,6.0,6.0,742.7164850005283,5.0,1.0,phase_2,go,600.0,450.0,1.0,,,,,,,,,orange,circle
0.0,1.0,1.0,0.0,6.0,6.0,734.87183799989,5.0,1.0,phase_2,go,600.0,450.0,1.0,,,,,,,,,white,flipped triangle
0.0,3.0,3.0,0.0,6.0,6.0,626.6890349997993,5.0,1.0,phase_2,go,600.0,450.0,1.0,,,,,,,,,green,diamond
0.0,2.0,2.0,0.0,6.0,6.0,900.2991150000526,5.0,1.0,phase_2,go,600.0,450.0,1.0,,,,,,,,,orange,circle
0.0,8.0,4.0,1.0,5.0,5.0,563.7304240008234,5.0,1.0,phase_2,stop,600.0,450.0,3.0,,,,,,,,,cyan,hexagon
0.0,7.0,3.0,1.0,6.0,6.0,844.151557999794,5.0,1.0,phase_2,go,550.0,450.0,1.0,,,,,,,,,gray,square
0.0,2.0,2.0,0.0,6.0,6.0,747.8279549995932,5.0,1.0,phase_2,go,550.0,450.0,1.0,,,,,,,,,orange,circle
0.0,7.0,3.0,1.0,5.0,0.0,0.0,5.0,1.0,phase_2,stop,550.0,450.0,4.0,,,,,,,,,gray,square
0.0,7.0,3.0,1.0,6.0,6.0,426.1180579997017,5.0,1.0,phase_2,stop,600.0,450.0,3.0,,,,,,,,,gray,square
0.0,6.0,2.0,1.0,5.0,5.0,500.69598899972334,5.0,1.0,phase_2,go,600.0,400.0,1.0,,,,,,,,,blue,triangle
0.0,5.0,1.0,1.0,6.0,6.0,739.8231870001837,5.0,1.0,phase_2,go,600.0,400.0,1.0,,,,,,,,,yellow,I
0.0,1.0,1.0,0.0,5.0,5.0,572.4176399999124,5.0,1.0,phase_2,go,600.0,400.0,1.0,,,,,,,,,white,flipped triangle
0.0,3.0,3.0,0.0,5.0,5.0,654.977138000504,5.0,1.0,phase_2,go,600.0,400.0,1.0,,,,,,,,,green,diamond
0.0,3.0,3.0,0.0,5.0,5.0,535.3696000001946,5.0,1.0,phase_2,go,600.0,400.0,1.0,,,,,,,,,green,diamond
0.0,6.0,2.0,1.0,5.0,0.0,0.0,5.0,1.0,phase_2,stop,600.0,400.0,4.0,,,,,,,,,blue,triangle
0.0,5.0,1.0,1.0,6.0,0.0,0.0,5.0,1.0,phase_2,stop,650.0,400.0,4.0,,,,,,,,,yellow,I
0.0,1.0,1.0,0.0,5.0,5.0,686.4151710005899,5.0,1.0,phase_2,go,650.0,450.0,1.0,,,,,,,,,white,flipped triangle
0.0,2.0,2.0,0.0,6.0,6.0,456.8587310004659,5.0,1.0,phase_2,go,650.0,450.0,1.0,,,,,,,,,orange,circle
0.0,7.0,3.0,1.0,5.0,5.0,681.147004000195,5.0,1.0,phase_2,stop,650.0,450.0,3.0,,,,,,,,,gray,square
0.0,5.0,1.0,1.0,5.0,5.0,595.439155999884,5.0,1.0,phase_2,stop,600.0,450.0,3.0,,,,,,,,,yellow,I
0.0,6.0,2.0,1.0,5.0,5.0,279.8876349997954,5.0,1.0,phase_2,stop,550.0,450.0,3.0,,,,,,,,,blue,triangle
0.0,1.0,1.0,0.0,5.0,5.0,623.4747449998395,5.0,1.0,phase_2,go,500.0,450.0,1.0,,,,,,,,,white,flipped triangle
0.0,5.0,1.0,1.0,5.0,5.0,533.2592719996683,6.0,1.0,phase_2,stop,500.0,450.0,3.0,,,,,,,,,yellow,I
0.0,1.0,1.0,0.0,5.0,5.0,581.2582030002886,6.0,1.0,phase_2,go,450.0,450.0,1.0,,,,,,,,,white,flipped triangle
0.0,6.0,2.0,1.0,6.0,6.0,581.9567580001603,6.0,1.0,phase_2,stop,450.0,450.0,3.0,,,,,,,,,blue,triangle
0.0,3.0,3.0,0.0,6.0,6.0,651.2319220000791,6.0,1.0,phase_2,go,450.0,400.0,1.0,,,,,,,,,green,diamond
0.0,5.0,1.0,1.0,6.0,0.0,0.0,6.0,1.0,phase_2,stop,450.0,400.0,4.0,,,,,,,,,yellow,I
0.0,3.0,3.0,0.0,5.0,5.0,617.1936359996835,6.0,1.0,phase_2,go,450.0,450.0,1.0,,,,,,,,,green,diamond
0.0,7.0,3.0,1.0,5.0,0.0,0.0,6.0,1.0,phase_2,stop,450.0,450.0,4.0,,,,,,,,,gray,square
0.0,1.0,1.0,0.0,5.0,5.0,690.8174000000145,6.0,1.0,phase_2,go,500.0,450.0,1.0,,,,,,,,,white,flipped triangle
0.0,8.0,4.0,1.0,5.0,5.0,535.0316839994775,6.0,1.0,phase_2,stop,500.0,450.0,3.0,,,,,,,,,cyan,hexagon
0.0,3.0,3.0,0.0,6.0,6.0,723.7121879998085,6.0,1.0,phase_2,go,450.0,450.0,1.0,,,,,,,,,green,diamond
0.0,1.0,1.0,0.0,6.0,6.0,755.0679510004557,6.0,1.0,phase_2,go,450.0,450.0,1.0,,,,,,,,,white,flipped triangle
0.0,1.0,1.0,0.0,5.0,5.0,520.148345999587,6.0,1.0,phase_2,go,450.0,450.0,1.0,,,,,,,,,white,flipped triangle
0.0,3.0,3.0,0.0,5.0,5.0,573.7113679997492,6.0,1.0,phase_2,go,450.0,450.0,1.0,,,,,,,,,green,diamond
0.0,5.0,1.0,1.0,5.0,0.0,0.0,6.0,1.0,phase_2,stop,450.0,450.0,4.0,,,,,,,,,yellow,I
0.0,7.0,3.0,1.0,6.0,0.0,0.0,6.0,1.0,phase_2,stop,500.0,450.0,4.0,,,,,,,,,gray,square
0.0,8.0,4.0,1.0,6.0,6.0,588.5328379999919,6.0,1.0,phase_2,stop,500.0,500.0,3.0,,,,,,,,,cyan,hexagon
0.0,3.0,3.0,0.0,5.0,5.0,686.8194189992209,6.0,1.0,phase_2,go,500.0,450.0,1.0,,,,,,,,,green,diamond
0.0,8.0,4.0,1.0,6.0,0.0,0.0,6.0,1.0,phase_2,stop,500.0,450.0,4.0,,,,,,,,,cyan,hexagon
0.0,4.0,4.0,0.0,5.0,5.0,531.4889300007053,6.0,1.0,phase_2,go,500.0,500.0,1.0,,,,,,,,,magenta,cross
0.0,8.0,4.0,1.0,6.0,6.0,607.8354540004511,6.0,1.0,phase_2,stop,500.0,500.0,3.0,,,,,,,,,cyan,hexagon
0.0,2.0,2.0,0.0,5.0,5.0,562.261655999464,6.0,1.0,phase_2,go,500.0,450.0,1.0,,,,,,,,,orange,circle
0.0,1.0,1.0,0.0,6.0,6.0,744.0270609995423,6.0,1.0,phase_2,go,500.0,450.0,1.0,,,,,,,,,white,flipped triangle
0.0,1.0,1.0,0.0,5.0,5.0,894.1295750000791,6.0,1.0,phase_2,go,500.0,450.0,1.0,,,,,,,,,white,flipped triangle
0.0,4.0,4.0,0.0,6.0,6.0,811.4393960004236,6.0,1.0,phase_2,go,500.0,450.0,1.0,,,,,,,,,magenta,cross
0.0,5.0,1.0,1.0,5.0,0.0,0.0,6.0,1.0,phase_2,stop,500.0,450.0,4.0,,,,,,,,,yellow,I
0.0,1.0,1.0,0.0,6.0,6.0,808.4930049999457,6.0,1.0,phase_2,go,550.0,450.0,1.0,,,,,,,,,white,flipped triangle
0.0,4.0,4.0,0.0,5.0,5.0,782.1036710001863,6.0,1.0,phase_2,go,550.0,450.0,1.0,,,,,,,,,magenta,cross
0.0,7.0,3.0,1.0,5.0,0.0,0.0,6.0,1.0,phase_2,stop,550.0,450.0,4.0,,,,,,,,,gray,square
0.0,4.0,4.0,0.0,6.0,6.0,610.3854110006068,6.0,1.0,phase_2,go,600.0,450.0,1.0,,,,,,,,,magenta,cross
0.0,2.0,2.0,0.0,6.0,6.0,784.6785989995624,6.0,1.0,phase_2,go,600.0,450.0,1.0,,,,,,,,,orange,circle
0.0,7.0,3.0,1.0,5.0,5.0,681.0209529994609,6.0,1.0,phase_2,go,600.0,450.0,1.0,,,,,,,,,gray,square
0.0,2.0,2.0,0.0,5.0,5.0,903.2476179991136,6.0,1.0,phase_2,go,600.0,450.0,1.0,,,,,,,,,orange,circle
0.0,6.0,2.0,1.0,6.0,6.0,571.9711700003245,6.0,1.0,phase_2,stop,600.0,450.0,3.0,,,,,,,,,blue,triangle
0.0,4.0,4.0,0.0,6.0,6.0,817.2574500003975,6.0,1.0,phase_2,go,600.0,400.0,1.0,,,,,,,,,magenta,cross
0.0,2.0,2.0,0.0,6.0,6.0,703.1428130003405,6.0,1.0,phase_2,go,600.0,400.0,1.0,,,,,,,,,orange,circle
0.0,5.0,1.0,1.0,5.0,5.0,609.1073349998624,6.0,1.0,phase_2,go,600.0,400.0,1.0,,,,,,,,,yellow,I
0.0,2.0,2.0,0.0,6.0,6.0,280.6902439997429,7.0,1.0,phase_2,go,600.0,400.0,1.0,,,,,,,,,orange,circle
0.0,8.0,4.0,1.0,5.0,5.0,287.5056289994973,7.0,1.0,phase_2,stop,600.0,400.0,3.0,,,,,,,,,cyan,hexagon
0.0,2.0,2.0,0.0,5.0,5.0,476.767297999686,7.0,1.0,phase_2,go,550.0,400.0,1.0,,,,,,,,,orange,circle
0.0,2.0,2.0,0.0,6.0,6.0,400.1351349998003,7.0,1.0,phase_2,go,550.0,400.0,1.0,,,,,,,,,orange,circle
0.0,2.0,2.0,0.0,5.0,5.0,465.6026200000269,7.0,1.0,phase_2,go,550.0,400.0,1.0,,,,,,,,,orange,circle
0.0,6.0,2.0,1.0,6.0,6.0,469.1937779998625,7.0,1.0,phase_2,go,550.0,400.0,1.0,,,,,,,,,blue,triangle
0.0,8.0,4.0,1.0,6.0,6.0,362.75576800017,7.0,1.0,phase_2,stop,550.0,400.0,3.0,,,,,,,,,cyan,hexagon
0.0,1.0,1.0,0.0,6.0,6.0,380.0652869995247,7.0,1.0,phase_2,go,550.0,350.0,1.0,,,,,,,,,white,flipped triangle
0.0,2.0,2.0,0.0,6.0,6.0,436.0347299998466,7.0,1.0,phase_2,go,550.0,350.0,1.0,,,,,,,,,orange,circle
0.0,7.0,3.0,1.0,5.0,5.0,276.4546170001267,7.0,1.0,phase_2,stop,550.0,350.0,3.0,,,,,,,,,gray,square
0.0,2.0,2.0,0.0,6.0,6.0,605.1348240007428,7.0,1.0,phase_2,go,500.0,350.0,1.0,,,,,,,,,orange,circle
0.0,4.0,4.0,0.0,5.0,5.0,419.9958670005799,7.0,1.0,phase_2,go,500.0,350.0,1.0,,,,,,,,,magenta,cross
0.0,5.0,1.0,1.0,6.0,6.0,615.2101900006528,7.0,1.0,phase_2,go,500.0,350.0,1.0,,,,,,,,,yellow,I
0.0,6.0,2.0,1.0,6.0,6.0,476.1511759998029,7.0,1.0,phase_2,stop,500.0,350.0,3.0,,,,,,,,,blue,triangle
0.0,4.0,4.0,0.0,5.0,5.0,760.778068000036,7.0,1.0,phase_2,go,500.0,300.0,1.0,,,,,,,,,magenta,cross
0.0,1.0,1.0,0.0,6.0,6.0,446.7766740008301,7.0,1.0,phase_2,go,500.0,300.0,1.0,,,,,,,,,white,flipped triangle
0.0,6.0,2.0,1.0,5.0,0.0,0.0,7.0,1.0,phase_2,stop,500.0,300.0,4.0,,,,,,,,,blue,triangle
0.0,4.0,4.0,0.0,5.0,5.0,706.3058260000616,7.0,1.0,phase_2,go,550.0,300.0,1.0,,,,,,,,,magenta,cross
0.0,7.0,3.0,1.0,6.0,0.0,0.0,7.0,1.0,phase_2,stop,550.0,300.0,4.0,,,,,,,,,gray,square
0.0,1.0,1.0,0.0,6.0,6.0,570.6822190004459,7.0,1.0,phase_2,go,550.0,350.0,1.0,,,,,,,,,white,flipped triangle
0.0,7.0,3.0,1.0,5.0,5.0,584.742594999625,7.0,1.0,phase_2,stop,550.0,350.0,3.0,,,,,,,,,gray,square
0.0,8.0,4.0,1.0,5.0,5.0,597.4048680000124,7.0,1.0,phase_2,go,500.0,350.0,1.0,,,,,,,,,cyan,hexagon
0.0,3.0,3.0,0.0,6.0,6.0,684.8371680007403,7.0,1.0,phase_2,go,500.0,350.0,1.0,,,,,,,,,green,diamond
0.0,6.0,2.0,1.0,6.0,0.0,0.0,7.0,1.0,phase_2,stop,500.0,350.0,4.0,,,,,,,,,blue,triangle
0.0,7.0,3.0,1.0,6.0,6.0,445.8996539997315,7.0,1.0,phase_2,stop,500.0,400.0,3.0,,,,,,,,,gray,square
0.0,7.0,3.0,1.0,5.0,0.0,0.0,7.0,1.0,phase_2,stop,500.0,350.0,4.0,,,,,,,,,gray,square
0.0,1.0,1.0,0.0,6.0,6.0,568.9598710005157,7.0,1.0,phase_2,go,550.0,350.0,1.0,,,,,,,,,white,flipped triangle
0.0,4.0,4.0,0.0,5.0,5.0,614.7304520000034,7.0,1.0,phase_2,go,550.0,350.0,1.0,,,,,,,,,magenta,cross
0.0,7.0,3.0,1.0,6.0,6.0,464.2533830001412,7.0,1.0,phase_2,stop,550.0,350.0,3.0,,,,,,,,,gray,square
0.0,6.0,2.0,1.0,6.0,0.0,0.0,7.0,1.0,phase_2,stop,550.0,300.0,4.0,,,,,,,,,blue,triangle
0.0,3.0,3.0,0.0,6.0,6.0,442.9028210006436,7.0,1.0,phase_2,go,550.0,350.0,1.0,,,,,,,,,green,diamond
0.0,2.0,2.0,0.0,6.0,6.0,397.1249449996321,7.0,1.0,phase_2,go,550.0,350.0,1.0,,,,,,,,,orange,circle
0.0,6.0,2.0,1.0,5.0,5.0,587.57410599992,7.0,1.0,phase_2,stop,550.0,350.0,3.0,,,,,,,,,blue,triangle
0.0,5.0,1.0,1.0,6.0,6.0,489.3778030000248,7.0,1.0,phase_2,stop,500.0,350.0,3.0,,,,,,,,,yellow,I
0.0,4.0,4.0,0.0,5.0,5.0,501.0594389996186,7.0,1.0,phase_2,go,500.0,300.0,1.0,,,,,,,,,magenta,cross
0.0,8.0,4.0,1.0,6.0,0.0,0.0,7.0,1.0,phase_2,stop,500.0,300.0,4.0,,,,,,,,,cyan,hexagon
0.0,3.0,3.0,0.0,5.0,5.0,224.1614190006657,8.0,1.0,phase_2,go,500.0,350.0,1.0,,,,,,,,,green,diamond
0.0,7.0,3.0,1.0,6.0,6.0,493.76172600022977,8.0,1.0,phase_2,go,500.0,350.0,1.0,,,,,,,,,gray,square
0.0,8.0,4.0,1.0,5.0,5.0,570.3446339994116,8.0,1.0,phase_2,stop,500.0,350.0,3.0,,,,,,,,,cyan,hexagon
0.0,7.0,3.0,1.0,5.0,5.0,437.7718409996305,8.0,1.0,phase_2,go,450.0,350.0,1.0,,,,,,,,,gray,square
0.0,8.0,4.0,1.0,5.0,5.0,558.0966870002158,8.0,1.0,phase_2,stop,450.0,350.0,3.0,,,,,,,,,cyan,hexagon
0.0,6.0,2.0,1.0,6.0,0.0,0.0,8.0,1.0,phase_2,stop,400.0,350.0,4.0,,,,,,,,,blue,triangle
0.0,3.0,3.0,0.0,5.0,5.0,424.6377189992927,8.0,1.0,phase_2,go,400.0,400.0,1.0,,,,,,,,,green,diamond
0.0,8.0,4.0,1.0,5.0,5.0,528.8950110007136,8.0,1.0,phase_2,go,400.0,400.0,1.0,,,,,,,,,cyan,hexagon
0.0,8.0,4.0,1.0,6.0,6.0,573.4343739995893,8.0,1.0,phase_2,stop,400.0,400.0,3.0,,,,,,,,,cyan,hexagon
0.0,4.0,4.0,0.0,6.0,6.0,507.4946069998987,8.0,1.0,phase_2,go,400.0,350.0,1.0,,,,,,,,,magenta,cross
0.0,7.0,3.0,1.0,6.0,6.0,468.3544899999106,8.0,1.0,phase_2,stop,400.0,350.0,3.0,,,,,,,,,gray,square
0.0,8.0,4.0,1.0,6.0,0.0,0.0,8.0,1.0,phase_2,stop,400.0,300.0,4.0,,,,,,,,,cyan,hexagon
0.0,8.0,4.0,1.0,6.0,6.0,495.8076510001774,8.0,1.0,phase_2,go,400.0,350.0,1.0,,,,,,,,,cyan,hexagon
0.0,7.0,3.0,1.0,6.0,0.0,0.0,8.0,1.0,phase_2,stop,400.0,350.0,4.0,,,,,,,,,gray,square
0.0,1.0,1.0,0.0,5.0,5.0,516.6108109997367,8.0,1.0,phase_2,go,400.0,400.0,1.0,,,,,,,,,white,flipped triangle
0.0,3.0,3.0,0.0,6.0,6.0,546.2384530001145,8.0,1.0,phase_2,go,400.0,400.0,1.0,,,,,,,,,green,diamond
0.0,5.0,1.0,1.0,5.0,0.0,0.0,8.0,1.0,phase_2,stop,400.0,400.0,4.0,,,,,,,,,yellow,I
0.0,6.0,2.0,1.0,5.0,5.0,487.1680000005653,8.0,1.0,phase_2,stop,450.0,400.0,3.0,,,,,,,,,blue,triangle
0.0,5.0,1.0,1.0,6.0,0.0,0.0,8.0,1.0,phase_2,stop,400.0,400.0,4.0,,,,,,,,,yellow,I
0.0,4.0,4.0,0.0,5.0,5.0,515.8780820001994,8.0,1.0,phase_2,go,400.0,450.0,1.0,,,,,,,,,magenta,cross
0.0,7.0,3.0,1.0,6.0,0.0,0.0,8.0,1.0,phase_2,stop,400.0,450.0,4.0,,,,,,,,,gray,square
0.0,2.0,2.0,0.0,5.0,5.0,698.4664729998258,8.0,1.0,phase_2,go,400.0,500.0,1.0,,,,,,,,,orange,circle
0.0,3.0,3.0,0.0,5.0,5.0,547.9990240000916,8.0,1.0,phase_2,go,400.0,500.0,1.0,,,,,,,,,green,diamond
0.0,8.0,4.0,1.0,5.0,5.0,583.3974830002262,8.0,1.0,phase_2,go,400.0,500.0,1.0,,,,,,,,,cyan,hexagon
0.0,6.0,2.0,1.0,6.0,6.0,654.3740980005168,8.0,1.0,phase_2,go,400.0,500.0,1.0,,,,,,,,,blue,triangle
0.0,6.0,2.0,1.0,6.0,6.0,535.4138149996288,8.0,1.0,phase_2,stop,400.0,500.0,3.0,,,,,,,,,blue,triangle
0.0,4.0,4.0,0.0,6.0,6.0,560.240433999752,8.0,1.0,phase_2,go,400.0,450.0,1.0,,,,,,,,,magenta,cross
0.0,2.0,2.0,0.0,5.0,5.0,460.4684159994576,8.0,1.0,phase_2,go,400.0,450.0,1.0,,,,,,,,,orange,circle
0.0,6.0,2.0,1.0,5.0,5.0,374.3898299999273,8.0,1.0,phase_2,go,400.0,450.0,1.0,,,,,,,,,blue,triangle
0.0,3.0,3.0,0.0,6.0,6.0,524.4737780003561,8.0,1.0,phase_2,go,400.0,450.0,1.0,,,,,,,,,green,diamond
0.0,1.0,1.0,0.0,5.0,5.0,660.6983470001069,8.0,1.0,phase_2,go,400.0,450.0,1.0,,,,,,,,,white,flipped triangle
0.0,8.0,4.0,1.0,5.0,0.0,0.0,8.0,1.0,phase_2,stop,400.0,450.0,4.0,,,,,,,,,cyan,hexagon
0.0,4.0,4.0,0.0,5.0,5.0,499.8532070003421,8.0,1.0,phase_2,go,450.0,450.0,1.0,,,,,,,,,magenta,cross
0.0,5.0,1.0,1.0,6.0,6.0,548.7044920000699,8.0,1.0,phase_2,stop,450.0,450.0,3.0,,,,,,,,,yellow,I
0.0,2.0,2.0,0.0,6.0,6.0,586.3795160003065,8.0,1.0,phase_2,go,450.0,400.0,1.0,,,,,,,,,orange,circle
0.0,5.0,1.0,1.0,6.0,0.0,0.0,8.0,1.0,phase_2,stop,450.0,400.0,4.0,,,,,,,,,yellow,I
0.0,2.0,2.0,0.0,7.0,6.0,3956.521744999918,1.0,1.0,phase_3,,,,,98.0,2.0,294.0,245.0,49.0,147.0,196.0,98.0,orange,circle
0.0,6.0,2.0,1.0,7.0,5.0,3616.411488999802,1.0,1.0,phase_3,,,,,98.0,2.0,245.0,147.0,294.0,196.0,98.0,49.0,blue,triangle
0.0,8.0,4.0,1.0,7.0,4.0,495.2840440000727,1.0,2.0,phase_3,,,,,136.0,4.0,68.0,170.0,34.0,136.0,102.0,204.0,cyan,hexagon
0.0,8.0,4.0,1.0,7.0,6.0,3070.8096070002284,1.0,1.0,phase_3,,,,,162.0,3.0,324.0,270.0,216.0,108.0,54.0,162.0,cyan,hexagon
0.0,5.0,1.0,1.0,7.0,4.0,1919.811538000431,1.0,1.0,phase_3,,,,,39.0,1.0,78.0,195.0,156.0,39.0,117.0,234.0,yellow,I
0.0,4.0,4.0,0.0,7.0,6.0,1965.8178719992063,1.0,1.0,phase_3,,,,,204.0,6.0,34.0,102.0,68.0,136.0,170.0,204.0,magenta,cross
0.0,7.0,3.0,1.0,7.0,2.0,1659.8613309997745,1.0,1.0,phase_3,,,,,34.0,1.0,204.0,34.0,102.0,136.0,170.0,68.0,gray,square
0.0,1.0,1.0,0.0,7.0,1.0,1438.347939999403,1.0,1.0,phase_3,,,,,54.0,1.0,54.0,270.0,216.0,162.0,108.0,324.0,white,flipped triangle
0.0,8.0,4.0,1.0,7.0,4.0,1163.692449999871,1.0,1.0,phase_3,,,,,147.0,3.0,98.0,294.0,49.0,147.0,196.0,245.0,cyan,hexagon
0.0,3.0,3.0,0.0,7.0,4.0,2225.730299000133,1.0,1.0,phase_3,,,,,196.0,4.0,147.0,245.0,294.0,196.0,49.0,98.0,green,diamond
0.0,4.0,4.0,0.0,7.0,3.0,1746.8323969997073,1.0,1.0,phase_3,,,,,324.0,6.0,108.0,54.0,324.0,270.0,162.0,216.0,magenta,cross
0.0,5.0,1.0,1.0,7.0,1.0,1297.2330729999155,1.0,1.0,phase_3,,,,,44.0,1.0,44.0,264.0,176.0,132.0,88.0,220.0,yellow,I
0.0,1.0,1.0,0.0,7.0,6.0,1704.8900620002314,1.0,1.0,phase_3,,,,,54.0,1.0,162.0,108.0,324.0,216.0,270.0,54.0,white,flipped triangle
0.0,7.0,3.0,1.0,7.0,2.0,1229.3435050005428,1.0,1.0,phase_3,,,,,108.0,2.0,54.0,108.0,324.0,270.0,216.0,162.0,gray,square
0.0,1.0,1.0,0.0,7.0,4.0,1562.8927720008503,1.0,1.0,phase_3,,,,,49.0,1.0,294.0,98.0,147.0,49.0,196.0,245.0,white,flipped triangle
0.0,6.0,2.0,1.0,7.0,1.0,2030.6107970000085,1.0,1.0,phase_3,,,,,195.0,5.0,195.0,117.0,78.0,234.0,39.0,156.0,blue,triangle
0.0,7.0,3.0,1.0,7.0,4.0,2029.76869899976,1.0,1.0,phase_3,,,,,98.0,2.0,196.0,147.0,294.0,98.0,245.0,49.0,gray,square
0.0,1.0,1.0,0.0,7.0,6.0,1801.7504090003056,1.0,1.0,phase_3,,,,,78.0,2.0,39.0,117.0,156.0,195.0,234.0,78.0,white,flipped triangle
0.0,4.0,4.0,0.0,7.0,4.0,1810.438370999691,1.0,1.0,phase_3,,,,,294.0,6.0,49.0,98.0,147.0,294.0,245.0,196.0,magenta,cross
0.0,5.0,1.0,1.0,7.0,6.0,1992.2999000000343,1.0,1.0,phase_3,,,,,44.0,1.0,220.0,176.0,264.0,88.0,132.0,44.0,yellow,I
0.0,3.0,3.0,0.0,7.0,5.0,1950.5184589997957,2.0,1.0,phase_3,,,,,156.0,4.0,195.0,234.0,78.0,39.0,156.0,117.0,green,diamond
0.0,3.0,3.0,0.0,7.0,2.0,1388.362409000365,2.0,1.0,phase_3,,,,,204.0,6.0,102.0,204.0,136.0,34.0,68.0,170.0,green,diamond
0.0,7.0,3.0,1.0,7.0,3.0,1638.1749050005965,2.0,1.0,phase_3,,,,,117.0,3.0,195.0,234.0,117.0,39.0,78.0,156.0,gray,square
0.0,6.0,2.0,1.0,7.0,5.0,2446.352676999595,2.0,1.0,phase_3,,,,,147.0,3.0,196.0,245.0,49.0,98.0,147.0,294.0,blue,triangle
0.0,1.0,1.0,0.0,7.0,6.0,1865.89955799991,2.0,1.0,phase_3,,,,,132.0,3.0,44.0,220.0,176.0,88.0,264.0,132.0,white,flipped triangle
0.0,2.0,2.0,0.0,7.0,5.0,1617.1994699998322,2.0,1.0,phase_3,,,,,44.0,1.0,220.0,88.0,132.0,176.0,44.0,264.0,orange,circle
0.0,2.0,2.0,0.0,7.0,5.0,651.3318440001967,2.0,1.0,phase_3,,,,,39.0,1.0,195.0,234.0,117.0,156.0,39.0,78.0,orange,circle
0.0,5.0,1.0,1.0,7.0,1.0,1812.3312580000857,2.0,1.0,phase_3,,,,,39.0,1.0,39.0,195.0,156.0,234.0,117.0,78.0,yellow,I
0.0,2.0,2.0,0.0,7.0,5.0,1584.2381840002415,2.0,1.0,phase_3,,,,,49.0,1.0,294.0,245.0,196.0,147.0,49.0,98.0,orange,circle
0.0,8.0,4.0,1.0,7.0,6.0,1769.9071190008908,2.0,1.0,phase_3,,,,,234.0,6.0,156.0,39.0,195.0,117.0,78.0,234.0,cyan,hexagon
0.0,3.0,3.0,0.0,7.0,5.0,2685.8183009999266,2.0,1.0,phase_3,,,,,220.0,5.0,132.0,44.0,176.0,264.0,220.0,88.0,green,diamond
0.0,1.0,1.0,0.0,7.0,4.0,2247.425321999799,2.0,1.0,phase_3,,,,,68.0,2.0,204.0,34.0,170.0,68.0,136.0,102.0,white,flipped triangle
0.0,2.0,2.0,0.0,7.0,3.0,1718.0524380000859,2.0,1.0,phase_3,,,,,44.0,1.0,220.0,132.0,44.0,88.0,264.0,176.0,orange,circle
0.0,5.0,1.0,1.0,7.0,2.0,1214.0457909999895,2.0,1.0,phase_3,,,,,54.0,1.0,324.0,54.0,108.0,162.0,270.0,216.0,yellow,I
0.0,8.0,4.0,1.0,7.0,2.0,1745.3749870001047,2.0,1.0,phase_3,,,,,204.0,6.0,34.0,204.0,68.0,136.0,102.0,170.0,cyan,hexagon
0.0,1.0,1.0,0.0,7.0,4.0,1511.7723809999006,2.0,1.0,phase_3,,,,,78.0,2.0,117.0,195.0,39.0,78.0,234.0,156.0,white,flipped triangle
0.0,6.0,2.0,1.0,7.0,4.0,1250.7314220001715,2.0,1.0,phase_3,,,,,136.0,4.0,204.0,102.0,68.0,136.0,34.0,170.0,blue,triangle
0.0,1.0,1.0,0.0,7.0,2.0,1685.655246999886,2.0,1.0,phase_3,,,,,44.0,1.0,220.0,44.0,132.0,88.0,176.0,264.0,white,flipped triangle
0.0,7.0,3.0,1.0,7.0,3.0,2057.160952000231,2.0,1.0,phase_3,,,,,136.0,4.0,102.0,68.0,136.0,34.0,170.0,204.0,gray,square
0.0,6.0,2.0,1.0,7.0,4.0,1622.9977769999095,2.0,1.0,phase_3,,,,,156.0,4.0,39.0,78.0,195.0,156.0,234.0,117.0,blue,triangle
0.0,8.0,4.0,1.0,7.0,3.0,1058.542574999592,3.0,1.0,phase_3,,,,,220.0,5.0,132.0,88.0,220.0,176.0,44.0,264.0,cyan,hexagon
0.0,3.0,3.0,0.0,7.0,3.0,1466.3024669998777,3.0,1.0,phase_3,,,,,162.0,3.0,108.0,270.0,162.0,54.0,216.0,324.0,green,diamond
0.0,7.0,3.0,1.0,7.0,6.0,1742.3445940003148,3.0,1.0,phase_3,,,,,117.0,3.0,234.0,78.0,156.0,39.0,195.0,117.0,gray,square
0.0,7.0,3.0,1.0,7.0,3.0,2098.1445830002485,3.0,1.0,phase_3,,,,,132.0,3.0,88.0,264.0,132.0,44.0,176.0,220.0,gray,square
0.0,8.0,4.0,1.0,7.0,1.0,2474.346918000265,3.0,1.0,phase_3,,,,,195.0,5.0,195.0,117.0,39.0,156.0,234.0,78.0,cyan,hexagon
0.0,8.0,4.0,1.0,7.0,2.0,1692.7648219998446,3.0,1.0,phase_3,,,,,196.0,4.0,294.0,196.0,49.0,98.0,245.0,147.0,cyan,hexagon
0.0,6.0,2.0,1.0,7.0,3.0,1790.474581000126,3.0,1.0,phase_3,,,,,162.0,3.0,54.0,108.0,162.0,270.0,324.0,216.0,blue,triangle
0.0,5.0,1.0,1.0,7.0,4.0,1230.0814260006518,3.0,1.0,phase_3,,,,,49.0,1.0,98.0,147.0,196.0,49.0,245.0,294.0,yellow,I
0.0,4.0,4.0,0.0,7.0,3.0,1386.6052810008114,3.0,1.0,phase_3,,,,,264.0,6.0,44.0,176.0,264.0,132.0,220.0,88.0,magenta,cross
0.0,4.0,4.0,0.0,7.0,5.0,1737.0620299998336,3.0,1.0,phase_3,,,,,204.0,6.0,34.0,102.0,170.0,136.0,204.0,68.0,magenta,cross
0.0,5.0,1.0,1.0,7.0,2.0,1255.7336959998793,3.0,1.0,phase_3,,,,,34.0,1.0,102.0,34.0,204.0,136.0,170.0,68.0,yellow,I
0.0,3.0,3.0,0.0,7.0,5.0,1768.0551610001205,3.0,1.0,phase_3,,,,,162.0,3.0,216.0,108.0,324.0,54.0,162.0,270.0,green,diamond
0.0,6.0,2.0,1.0,7.0,2.0,1668.384712000261,3.0,1.0,phase_3,,,,,88.0,2.0,176.0,88.0,132.0,220.0,264.0,44.0,blue,triangle
0.0,6.0,2.0,1.0,7.0,3.0,1573.723880000216,3.0,1.0,phase_3,,,,,136.0,4.0,102.0,170.0,136.0,34.0,68.0,204.0,blue,triangle
0.0,6.0,2.0,1.0,7.0,6.0,1852.271421000296,3.0,1.0,phase_3,,,,,132.0,3.0,44.0,176.0,88.0,264.0,220.0,132.0,blue,triangle
0.0,6.0,2.0,1.0,7.0,3.0,1972.303825999916,3.0,1.0,phase_3,,,,,108.0,2.0,324.0,162.0,108.0,54.0,216.0,270.0,blue,triangle
0.0,3.0,3.0,0.0,7.0,1.0,2579.5548230007626,3.0,1.0,phase_3,,,,,195.0,5.0,195.0,78.0,234.0,117.0,39.0,156.0,green,diamond
0.0,5.0,1.0,1.0,7.0,1.0,1550.483030999203,3.0,1.0,phase_3,,,,,49.0,1.0,49.0,294.0,245.0,98.0,196.0,147.0,yellow,I
0.0,4.0,4.0,0.0,7.0,2.0,1366.68430500049,3.0,1.0,phase_3,,,,,234.0,6.0,78.0,234.0,39.0,156.0,117.0,195.0,magenta,cross
0.0,3.0,3.0,0.0,7.0,5.0,1887.779722000232,3.0,1.0,phase_3,,,,,196.0,4.0,245.0,147.0,294.0,49.0,196.0,98.0,green,diamond
0.0,4.0,4.0,0.0,7.0,5.0,1311.2021450006068,4.0,1.0,phase_3,,,,,234.0,6.0,78.0,195.0,156.0,117.0,234.0,39.0,magenta,cross
0.0,3.0,3.0,0.0,7.0,1.0,2221.1477209993973,4.0,1.0,phase_3,,,,,176.0,4.0,176.0,220.0,44.0,264.0,132.0,88.0,green,diamond
0.0,8.0,4.0,1.0,7.0,3.0,2778.790289999961,4.0,1.0,phase_3,,,,,216.0,4.0,108.0,270.0,216.0,54.0,162.0,324.0,cyan,hexagon
0.0,5.0,1.0,1.0,7.0,3.0,821.2192709997908,4.0,1.0,phase_3,,,,,34.0,1.0,102.0,170.0,34.0,204.0,68.0,136.0,yellow,I
0.0,2.0,2.0,0.0,7.0,2.0,1309.4594889998916,4.0,1.0,phase_3,,,,,54.0,1.0,108.0,54.0,162.0,216.0,270.0,324.0,orange,circle
0.0,2.0,2.0,0.0,7.0,4.0,1421.3881470004708,4.0,1.0,phase_3,,,,,34.0,1.0,136.0,102.0,170.0,34.0,68.0,204.0,orange,circle
0.0,2.0,2.0,0.0,7.0,3.0,1301.2141179997343,4.0,1.0,phase_3,,,,,34.0,1.0,204.0,136.0,34.0,68.0,102.0,170.0,orange,circle
0.0,5.0,1.0,1.0,7.0,4.0,828.3789140004956,4.0,1.0,phase_3,,,,,54.0,1.0,108.0,270.0,324.0,54.0,216.0,162.0,yellow,I
0.0,7.0,3.0,1.0,7.0,5.0,1535.4878939997434,4.0,1.0,phase_3,,,,,98.0,2.0,294.0,49.0,245.0,147.0,98.0,196.0,gray,square
0.0,7.0,3.0,1.0,7.0,2.0,1303.2681039994714,4.0,1.0,phase_3,,,,,108.0,2.0,162.0,108.0,324.0,270.0,216.0,54.0,gray,square
0.0,4.0,4.0,0.0,7.0,4.0,1961.4271290001848,4.0,1.0,phase_3,,,,,294.0,6.0,98.0,245.0,147.0,294.0,49.0,196.0,magenta,cross
0.0,8.0,4.0,1.0,7.0,1.0,2096.4794880001136,4.0,1.0,phase_3,,,,,220.0,5.0,220.0,264.0,44.0,176.0,132.0,88.0,cyan,hexagon
0.0,4.0,4.0,0.0,7.0,3.0,1397.7539150000666,4.0,1.0,phase_3,,,,,324.0,6.0,270.0,108.0,324.0,54.0,216.0,162.0,magenta,cross
0.0,2.0,2.0,0.0,7.0,1.0,1276.2855850005508,4.0,1.0,phase_3,,,,,39.0,1.0,39.0,117.0,78.0,156.0,195.0,234.0,orange,circle
0.0,3.0,3.0,0.0,7.0,2.0,2206.1431140000423,4.0,1.0,phase_3,,,,,102.0,3.0,34.0,102.0,136.0,68.0,170.0,204.0,green,diamond
0.0,1.0,1.0,0.0,7.0,3.0,2139.60622400009,4.0,1.0,phase_3,,,,,98.0,2.0,294.0,196.0,98.0,147.0,245.0,49.0,white,flipped triangle
0.0,1.0,1.0,0.0,7.0,6.0,2659.7313720003517,4.0,1.0,phase_3,,,,,136.0,4.0,102.0,34.0,68.0,170.0,204.0,136.0,white,flipped triangle
0.0,2.0,2.0,0.0,7.0,1.0,1477.7853940004206,4.0,1.0,phase_3,,,,,54.0,1.0,54.0,108.0,216.0,324.0,162.0,270.0,orange,circle
0.0,4.0,4.0,0.0,7.0,1.0,1394.7017890004645,4.0,1.0,phase_3,,,,,264.0,6.0,264.0,132.0,220.0,44.0,88.0,176.0,magenta,cross
0.0,7.0,3.0,1.0,7.0,5.0,1622.5842339999872,4.0,1.0,phase_3,,,,,264.0,6.0,220.0,176.0,44.0,132.0,264.0,88.0,gray,square
