raw_reward_magnitude,stim_reward,stepwise_reward_magnitude,paired_with_stopping,quadrant,response,reaction_time,block,num_trial_presentations,which_part,stop_signal_trial_type,left_SSD,right_SSD,accuracy,chosen_bidding_amount,chosen_bidding_level,possible_bid_1,possible_bid_2,possible_bid_3,possible_bid_4,possible_bid_5,possible_bid_6,color_text,shape_text
417.0,8.0,4.0,1.0,3.0,3.0,369.8988969999845,1.0,1.0,part_1,,,,,,,,,,,,,magenta,cross
194.0,7.0,3.0,1.0,2.0,2.0,334.5507349999934,1.0,1.0,part_1,,,,,,,,,,,,,yellow,diamond
0.0,5.0,0.0,1.0,4.0,4.0,345.3150750001441,1.0,1.0,part_1,,,,,,,,,,,,,green,hexagon
30.0,5.0,1.0,1.0,2.0,2.0,302.8449379999074,1.0,1.0,part_1,,,,,,,,,,,,,green,hexagon
0.0,6.0,0.0,1.0,1.0,1.0,321.0826629997427,1.0,1.0,part_1,,,,,,,,,,,,,gray,square
0.0,7.0,0.0,1.0,2.0,2.0,353.3974689999013,1.0,1.0,part_1,,,,,,,,,,,,,yellow,diamond
410.0,4.0,4.0,0.0,2.0,2.0,371.8008810001265,1.0,1.0,part_1,,,,,,,,,,,,,cyan,triangle
100.0,2.0,2.0,0.0,4.0,4.0,352.8263799998967,1.0,1.0,part_1,,,,,,,,,,,,,blue,flipped triangle
389.0,8.0,4.0,1.0,1.0,1.0,347.0655550004267,1.0,1.0,part_1,,,,,,,,,,,,,magenta,cross
103.0,2.0,2.0,0.0,2.0,2.0,283.2321070000034,1.0,1.0,part_1,,,,,,,,,,,,,blue,flipped triangle
221.0,7.0,3.0,1.0,2.0,2.0,332.8067550000924,1.0,1.0,part_1,,,,,,,,,,,,,yellow,diamond
55.0,1.0,1.0,0.0,2.0,2.0,295.1718100002836,1.0,1.0,part_1,,,,,,,,,,,,,white,circle
0.0,6.0,0.0,1.0,2.0,2.0,382.5267090001034,1.0,1.0,part_1,,,,,,,,,,,,,gray,square
60.0,5.0,1.0,1.0,1.0,1.0,314.756030999888,1.0,1.0,part_1,,,,,,,,,,,,,green,hexagon
199.0,3.0,3.0,0.0,3.0,3.0,345.8709180004007,1.0,1.0,part_1,,,,,,,,,,,,,orange,I
380.0,4.0,4.0,0.0,2.0,2.0,281.6369289998874,1.0,1.0,part_1,,,,,,,,,,,,,cyan,triangle
412.0,8.0,4.0,1.0,3.0,3.0,327.2001250002176,1.0,1.0,part_1,,,,,,,,,,,,,magenta,cross
417.0,4.0,4.0,0.0,4.0,4.0,314.1194429999814,1.0,1.0,part_1,,,,,,,,,,,,,cyan,triangle
211.0,3.0,3.0,0.0,1.0,1.0,325.0926159998926,1.0,1.0,part_1,,,,,,,,,,,,,orange,I
0.0,1.0,0.0,0.0,1.0,1.0,309.4532999998591,1.0,1.0,part_1,,,,,,,,,,,,,white,circle
176.0,3.0,3.0,0.0,1.0,1.0,375.9112669999922,1.0,2.0,part_1,,,,,,,,,,,,,orange,I
65.0,5.0,1.0,1.0,1.0,1.0,348.265364999861,1.0,1.0,part_1,,,,,,,,,,,,,green,hexagon
30.0,1.0,1.0,0.0,3.0,3.0,402.5441690000662,1.0,1.0,part_1,,,,,,,,,,,,,white,circle
62.0,1.0,1.0,0.0,4.0,4.0,375.2769409998109,1.0,1.0,part_1,,,,,,,,,,,,,white,circle
411.0,8.0,4.0,1.0,2.0,2.0,265.7871280002837,1.0,1.0,part_1,,,,,,,,,,,,,magenta,cross
85.0,6.0,2.0,1.0,1.0,1.0,349.7463230000903,1.0,1.0,part_1,,,,,,,,,,,,,gray,square
51.0,1.0,1.0,0.0,3.0,3.0,379.2758719996527,1.0,1.0,part_1,,,,,,,,,,,,,white,circle
82.0,6.0,2.0,1.0,3.0,3.0,331.5932249997786,1.0,1.0,part_1,,,,,,,,,,,,,gray,square
99.0,2.0,2.0,0.0,3.0,3.0,363.2564300000922,1.0,1.0,part_1,,,,,,,,,,,,,blue,flipped triangle
186.0,7.0,3.0,1.0,4.0,4.0,404.7134350003034,1.0,1.0,part_1,,,,,,,,,,,,,yellow,diamond
202.0,3.0,3.0,0.0,4.0,4.0,393.2651290001558,1.0,1.0,part_1,,,,,,,,,,,,,orange,I
70.0,5.0,1.0,1.0,4.0,4.0,448.733102999995,1.0,1.0,part_1,,,,,,,,,,,,,green,hexagon
176.0,7.0,3.0,1.0,3.0,3.0,402.9337970000597,1.0,1.0,part_1,,,,,,,,,,,,,yellow,diamond
114.0,2.0,2.0,0.0,4.0,4.0,414.7194550000677,1.0,1.0,part_1,,,,,,,,,,,,,blue,flipped triangle
67.0,5.0,1.0,1.0,3.0,3.0,331.5899459998945,1.0,1.0,part_1,,,,,,,,,,,,,green,hexagon
194.0,3.0,3.0,0.0,4.0,4.0,441.7400350002936,1.0,1.0,part_1,,,,,,,,,,,,,orange,I
0.0,8.0,0.0,1.0,2.0,2.0,416.3479549997646,1.0,1.0,part_1,,,,,,,,,,,,,magenta,cross
376.0,8.0,4.0,1.0,2.0,2.0,380.9958490001008,1.0,1.0,part_1,,,,,,,,,,,,,magenta,cross
0.0,1.0,0.0,0.0,1.0,1.0,406.0250239999732,1.0,1.0,part_1,,,,,,,,,,,,,white,circle
101.0,6.0,2.0,1.0,3.0,3.0,329.5690420000028,1.0,1.0,part_1,,,,,,,,,,,,,gray,square
401.0,4.0,4.0,0.0,4.0,4.0,356.0868210001899,1.0,1.0,part_1,,,,,,,,,,,,,cyan,triangle
192.0,7.0,3.0,1.0,2.0,2.0,339.4567079999433,1.0,1.0,part_1,,,,,,,,,,,,,yellow,diamond
180.0,7.0,3.0,1.0,4.0,4.0,310.1434879999942,1.0,1.0,part_1,,,,,,,,,,,,,yellow,diamond
190.0,3.0,3.0,0.0,2.0,2.0,405.6361350003499,1.0,1.0,part_1,,,,,,,,,,,,,orange,I
423.0,4.0,4.0,0.0,4.0,4.0,399.9463560003278,1.0,1.0,part_1,,,,,,,,,,,,,cyan,triangle
395.0,8.0,4.0,1.0,1.0,1.0,396.2625780000053,1.0,1.0,part_1,,,,,,,,,,,,,magenta,cross
184.0,3.0,3.0,0.0,3.0,3.0,426.8012819998148,1.0,1.0,part_1,,,,,,,,,,,,,orange,I
0.0,3.0,0.0,0.0,1.0,1.0,365.4004949999034,1.0,1.0,part_1,,,,,,,,,,,,,orange,I
94.0,6.0,2.0,1.0,2.0,2.0,419.2653439999958,1.0,1.0,part_1,,,,,,,,,,,,,gray,square
392.0,4.0,4.0,0.0,2.0,2.0,318.7093909996292,1.0,1.0,part_1,,,,,,,,,,,,,cyan,triangle
0.0,3.0,0.0,0.0,2.0,2.0,346.5138260003186,1.0,1.0,part_1,,,,,,,,,,,,,orange,I
79.0,6.0,2.0,1.0,4.0,4.0,398.0551469999227,1.0,1.0,part_1,,,,,,,,,,,,,gray,square
186.0,3.0,3.0,0.0,4.0,4.0,374.889216000156,1.0,1.0,part_1,,,,,,,,,,,,,orange,I
0.0,2.0,0.0,0.0,1.0,1.0,425.8414770001764,1.0,1.0,part_1,,,,,,,,,,,,,blue,flipped triangle
43.0,5.0,1.0,1.0,3.0,3.0,327.6800870003171,1.0,1.0,part_1,,,,,,,,,,,,,green,hexagon
183.0,7.0,3.0,1.0,2.0,2.0,386.9709460000194,1.0,1.0,part_1,,,,,,,,,,,,,yellow,diamond
0.0,7.0,0.0,1.0,2.0,2.0,420.7246370001485,1.0,1.0,part_1,,,,,,,,,,,,,yellow,diamond
0.0,5.0,0.0,1.0,2.0,2.0,345.4261369997766,1.0,1.0,part_1,,,,,,,,,,,,,green,hexagon
0.0,2.0,0.0,0.0,1.0,1.0,385.7422549999683,1.0,1.0,part_1,,,,,,,,,,,,,blue,flipped triangle
394.0,8.0,4.0,1.0,1.0,1.0,407.5067410003612,1.0,1.0,part_1,,,,,,,,,,,,,magenta,cross
194.0,3.0,3.0,0.0,2.0,2.0,566.380028000367,1.0,1.0,part_1,,,,,,,,,,,,,orange,I
96.0,2.0,2.0,0.0,2.0,2.0,392.9412839997894,1.0,1.0,part_1,,,,,,,,,,,,,blue,flipped triangle
202.0,7.0,3.0,1.0,1.0,1.0,359.8975330000939,1.0,1.0,part_1,,,,,,,,,,,,,yellow,diamond
211.0,7.0,3.0,1.0,2.0,2.0,334.1232630000377,1.0,1.0,part_1,,,,,,,,,,,,,yellow,diamond
221.0,7.0,3.0,1.0,3.0,3.0,408.9956660000098,1.0,1.0,part_1,,,,,,,,,,,,,yellow,diamond
0.0,2.0,0.0,0.0,1.0,1.0,397.8649900000164,1.0,1.0,part_1,,,,,,,,,,,,,blue,flipped triangle
26.0,5.0,1.0,1.0,2.0,2.0,402.7054300004238,1.0,1.0,part_1,,,,,,,,,,,,,green,hexagon
0.0,1.0,0.0,0.0,3.0,3.0,333.5364099998514,1.0,1.0,part_1,,,,,,,,,,,,,white,circle
187.0,7.0,3.0,1.0,1.0,1.0,397.6698910000777,1.0,1.0,part_1,,,,,,,,,,,,,yellow,diamond
389.0,4.0,4.0,0.0,3.0,3.0,344.920213000023,1.0,1.0,part_1,,,,,,,,,,,,,cyan,triangle
383.0,4.0,4.0,0.0,3.0,3.0,414.7556329999133,1.0,1.0,part_1,,,,,,,,,,,,,cyan,triangle
417.0,8.0,4.0,1.0,4.0,4.0,349.8793870003283,1.0,1.0,part_1,,,,,,,,,,,,,magenta,cross
383.0,8.0,4.0,1.0,3.0,3.0,447.208443999898,1.0,1.0,part_1,,,,,,,,,,,,,magenta,cross
418.0,4.0,4.0,0.0,1.0,1.0,376.2975060003555,1.0,1.0,part_1,,,,,,,,,,,,,cyan,triangle
200.0,3.0,3.0,0.0,1.0,1.0,419.8432610000964,1.0,1.0,part_1,,,,,,,,,,,,,orange,I
179.0,7.0,3.0,1.0,1.0,1.0,368.6734090001664,1.0,1.0,part_1,,,,,,,,,,,,,yellow,diamond
399.0,8.0,4.0,1.0,4.0,4.0,405.5018170001858,1.0,1.0,part_1,,,,,,,,,,,,,magenta,cross
198.0,7.0,3.0,1.0,2.0,2.0,436.123619999762,1.0,1.0,part_1,,,,,,,,,,,,,yellow,diamond
180.0,3.0,3.0,0.0,3.0,3.0,373.312733000148,1.0,1.0,part_1,,,,,,,,,,,,,orange,I
0.0,3.0,0.0,0.0,4.0,4.0,408.3613940001669,1.0,1.0,part_1,,,,,,,,,,,,,orange,I
0.0,6.0,0.0,1.0,3.0,3.0,376.6067480000856,1.0,1.0,part_1,,,,,,,,,,,,,gray,square
385.0,4.0,4.0,0.0,2.0,2.0,343.1783870000799,1.0,1.0,part_1,,,,,,,,,,,,,cyan,triangle
0.0,6.0,0.0,1.0,2.0,2.0,480.8331560002443,1.0,1.0,part_1,,,,,,,,,,,,,gray,square
80.0,2.0,2.0,0.0,3.0,3.0,408.4291690001009,1.0,1.0,part_1,,,,,,,,,,,,,blue,flipped triangle
404.0,8.0,4.0,1.0,3.0,3.0,423.178800000187,1.0,1.0,part_1,,,,,,,,,,,,,magenta,cross
217.0,3.0,3.0,0.0,1.0,1.0,381.0195370001565,1.0,1.0,part_1,,,,,,,,,,,,,orange,I
406.0,4.0,4.0,0.0,4.0,4.0,366.8263370000204,1.0,1.0,part_1,,,,,,,,,,,,,cyan,triangle
110.0,2.0,2.0,0.0,2.0,2.0,407.0519659999263,1.0,1.0,part_1,,,,,,,,,,,,,blue,flipped triangle
46.0,1.0,1.0,0.0,4.0,4.0,351.3118070000018,1.0,1.0,part_1,,,,,,,,,,,,,white,circle
176.0,3.0,3.0,0.0,3.0,3.0,396.1170710003898,1.0,1.0,part_1,,,,,,,,,,,,,orange,I
0.0,5.0,0.0,1.0,2.0,2.0,432.2555990002001,1.0,1.0,part_1,,,,,,,,,,,,,green,hexagon
34.0,1.0,1.0,0.0,4.0,4.0,431.4930110003843,1.0,1.0,part_1,,,,,,,,,,,,,white,circle
67.0,1.0,1.0,0.0,2.0,2.0,344.0163600002961,1.0,1.0,part_1,,,,,,,,,,,,,white,circle
206.0,3.0,3.0,0.0,3.0,3.0,390.2928009997595,1.0,1.0,part_1,,,,,,,,,,,,,orange,I
125.0,2.0,2.0,0.0,1.0,1.0,411.3554880000265,1.0,1.0,part_1,,,,,,,,,,,,,blue,flipped triangle
0.0,4.0,0.0,0.0,2.0,2.0,427.0630109999729,1.0,1.0,part_1,,,,,,,,,,,,,cyan,triangle
180.0,3.0,3.0,0.0,3.0,3.0,417.436958000053,1.0,1.0,part_1,,,,,,,,,,,,,orange,I
0.0,7.0,0.0,1.0,3.0,3.0,388.6752929997783,1.0,1.0,part_1,,,,,,,,,,,,,yellow,diamond
204.0,3.0,3.0,0.0,2.0,2.0,377.6184690000264,1.0,1.0,part_1,,,,,,,,,,,,,orange,I
211.0,7.0,3.0,1.0,1.0,1.0,407.7592190001269,1.0,1.0,part_1,,,,,,,,,,,,,yellow,diamond
411.0,4.0,4.0,0.0,4.0,4.0,408.8867569998911,2.0,1.0,part_1,,,,,,,,,,,,,cyan,triangle
384.0,4.0,4.0,0.0,1.0,1.0,302.0591909998984,2.0,1.0,part_1,,,,,,,,,,,,,cyan,triangle
194.0,3.0,3.0,0.0,1.0,1.0,324.4620570003462,2.0,1.0,part_1,,,,,,,,,,,,,orange,I
179.0,3.0,3.0,0.0,4.0,4.0,397.0998179997878,2.0,1.0,part_1,,,,,,,,,,,,,orange,I
114.0,6.0,2.0,1.0,3.0,3.0,404.2176819998531,2.0,1.0,part_1,,,,,,,,,,,,,gray,square
0.0,8.0,0.0,1.0,1.0,1.0,378.1656400001338,2.0,1.0,part_1,,,,,,,,,,,,,magenta,cross
83.0,6.0,2.0,1.0,2.0,2.0,471.1615910000546,2.0,1.0,part_1,,,,,,,,,,,,,gray,square
0.0,8.0,0.0,1.0,3.0,3.0,314.9203019997912,2.0,1.0,part_1,,,,,,,,,,,,,magenta,cross
221.0,3.0,3.0,0.0,2.0,2.0,332.8389949997472,2.0,1.0,part_1,,,,,,,,,,,,,orange,I
76.0,6.0,2.0,1.0,2.0,2.0,381.7946900003335,2.0,1.0,part_1,,,,,,,,,,,,,gray,square
117.0,2.0,2.0,0.0,2.0,2.0,334.3802019999202,2.0,1.0,part_1,,,,,,,,,,,,,blue,flipped triangle
108.0,2.0,2.0,0.0,1.0,1.0,457.0562210001299,2.0,1.0,part_1,,,,,,,,,,,,,blue,flipped triangle
423.0,8.0,4.0,1.0,1.0,1.0,412.4860520000766,2.0,1.0,part_1,,,,,,,,,,,,,magenta,cross
0.0,7.0,0.0,1.0,2.0,2.0,355.5183759999636,2.0,1.0,part_1,,,,,,,,,,,,,yellow,diamond
218.0,7.0,3.0,1.0,3.0,3.0,341.7556110002806,2.0,1.0,part_1,,,,,,,,,,,,,yellow,diamond
68.0,5.0,1.0,1.0,3.0,3.0,347.1365979999063,2.0,1.0,part_1,,,,,,,,,,,,,green,hexagon
92.0,2.0,2.0,0.0,3.0,3.0,445.3478750001522,2.0,1.0,part_1,,,,,,,,,,,,,blue,flipped triangle
121.0,2.0,2.0,0.0,1.0,1.0,429.7399659999428,2.0,1.0,part_1,,,,,,,,,,,,,blue,flipped triangle
90.0,6.0,2.0,1.0,2.0,2.0,424.5882770001117,2.0,1.0,part_1,,,,,,,,,,,,,gray,square
38.0,5.0,1.0,1.0,2.0,2.0,451.7609230001653,2.0,1.0,part_1,,,,,,,,,,,,,green,hexagon
417.0,4.0,4.0,0.0,3.0,3.0,324.0451719998418,2.0,1.0,part_1,,,,,,,,,,,,,cyan,triangle
196.0,7.0,3.0,1.0,1.0,1.0,376.8986029999723,2.0,1.0,part_1,,,,,,,,,,,,,yellow,diamond
413.0,8.0,4.0,1.0,2.0,2.0,368.4328039998945,2.0,1.0,part_1,,,,,,,,,,,,,magenta,cross
0.0,6.0,0.0,1.0,4.0,4.0,598.51777699987,2.0,1.0,part_1,,,,,,,,,,,,,gray,square
212.0,3.0,3.0,0.0,1.0,1.0,448.568773000261,2.0,1.0,part_1,,,,,,,,,,,,,orange,I
220.0,7.0,3.0,1.0,3.0,3.0,507.7383180000652,2.0,1.0,part_1,,,,,,,,,,,,,yellow,diamond
120.0,6.0,2.0,1.0,3.0,3.0,366.7977189998055,2.0,1.0,part_1,,,,,,,,,,,,,gray,square
0.0,1.0,0.0,0.0,2.0,2.0,441.4996399996198,2.0,1.0,part_1,,,,,,,,,,,,,white,circle
217.0,3.0,3.0,0.0,4.0,4.0,382.0086900000206,2.0,1.0,part_1,,,,,,,,,,,,,orange,I
183.0,3.0,3.0,0.0,2.0,2.0,458.0427909995705,2.0,1.0,part_1,,,,,,,,,,,,,orange,I
63.0,5.0,1.0,1.0,4.0,4.0,406.3384879996192,2.0,1.0,part_1,,,,,,,,,,,,,green,hexagon
424.0,4.0,4.0,0.0,3.0,3.0,409.7874379999666,2.0,1.0,part_1,,,,,,,,,,,,,cyan,triangle
401.0,4.0,4.0,0.0,3.0,3.0,382.1167139999488,2.0,1.0,part_1,,,,,,,,,,,,,cyan,triangle
0.0,3.0,0.0,0.0,4.0,4.0,393.2751459997234,2.0,1.0,part_1,,,,,,,,,,,,,orange,I
0.0,7.0,0.0,1.0,1.0,1.0,395.994021000206,2.0,1.0,part_1,,,,,,,,,,,,,yellow,diamond
115.0,6.0,2.0,1.0,3.0,3.0,352.2589590002098,2.0,1.0,part_1,,,,,,,,,,,,,gray,square
0.0,4.0,0.0,0.0,4.0,4.0,390.3763429998435,2.0,1.0,part_1,,,,,,,,,,,,,cyan,triangle
0.0,8.0,0.0,1.0,2.0,2.0,395.5393179999191,2.0,1.0,part_1,,,,,,,,,,,,,magenta,cross
92.0,6.0,2.0,1.0,4.0,4.0,426.1828480002805,2.0,1.0,part_1,,,,,,,,,,,,,gray,square
52.0,1.0,1.0,0.0,2.0,2.0,374.3958449999809,2.0,1.0,part_1,,,,,,,,,,,,,white,circle
117.0,6.0,2.0,1.0,1.0,1.0,348.8269480003509,2.0,1.0,part_1,,,,,,,,,,,,,gray,square
88.0,6.0,2.0,1.0,2.0,2.0,432.8540110000176,2.0,1.0,part_1,,,,,,,,,,,,,gray,square
31.0,1.0,1.0,0.0,1.0,1.0,446.2551709998479,2.0,1.0,part_1,,,,,,,,,,,,,white,circle
401.0,8.0,4.0,1.0,1.0,1.0,432.4069409999538,2.0,1.0,part_1,,,,,,,,,,,,,magenta,cross
95.0,2.0,2.0,0.0,4.0,4.0,410.4223499998625,2.0,1.0,part_1,,,,,,,,,,,,,blue,flipped triangle
55.0,5.0,1.0,1.0,1.0,1.0,424.8657139996794,2.0,1.0,part_1,,,,,,,,,,,,,green,hexagon
79.0,6.0,2.0,1.0,1.0,1.0,365.6480849999752,2.0,1.0,part_1,,,,,,,,,,,,,gray,square
218.0,3.0,3.0,0.0,1.0,1.0,349.0164700001514,2.0,1.0,part_1,,,,,,,,,,,,,orange,I
205.0,3.0,3.0,0.0,4.0,4.0,375.918626999919,2.0,1.0,part_1,,,,,,,,,,,,,orange,I
44.0,5.0,1.0,1.0,1.0,1.0,371.3225740002599,2.0,1.0,part_1,,,,,,,,,,,,,green,hexagon
400.0,4.0,4.0,0.0,3.0,3.0,343.2168710000951,2.0,1.0,part_1,,,,,,,,,,,,,cyan,triangle
86.0,6.0,2.0,1.0,2.0,2.0,304.7449969999434,2.0,1.0,part_1,,,,,,,,,,,,,gray,square
0.0,2.0,0.0,0.0,1.0,1.0,361.777899000117,2.0,1.0,part_1,,,,,,,,,,,,,blue,flipped triangle
187.0,3.0,3.0,0.0,1.0,1.0,403.989403000196,2.0,1.0,part_1,,,,,,,,,,,,,orange,I
386.0,8.0,4.0,1.0,2.0,2.0,381.1103230000299,2.0,1.0,part_1,,,,,,,,,,,,,magenta,cross
209.0,7.0,3.0,1.0,1.0,1.0,431.0628570001427,2.0,1.0,part_1,,,,,,,,,,,,,yellow,diamond
0.0,8.0,0.0,1.0,3.0,3.0,382.0091360003061,2.0,1.0,part_1,,,,,,,,,,,,,magenta,cross
88.0,6.0,2.0,1.0,2.0,2.0,371.1102010001923,2.0,1.0,part_1,,,,,,,,,,,,,gray,square
403.0,4.0,4.0,0.0,4.0,4.0,421.2807030003205,2.0,1.0,part_1,,,,,,,,,,,,,cyan,triangle
213.0,3.0,3.0,0.0,1.0,1.0,466.3421079999352,2.0,1.0,part_1,,,,,,,,,,,,,orange,I
115.0,2.0,2.0,0.0,2.0,2.0,434.0349949998199,2.0,2.0,part_1,,,,,,,,,,,,,blue,flipped triangle
44.0,1.0,1.0,0.0,1.0,1.0,394.9474000000919,2.0,1.0,part_1,,,,,,,,,,,,,white,circle
221.0,7.0,3.0,1.0,4.0,4.0,485.9097670000665,2.0,1.0,part_1,,,,,,,,,,,,,yellow,diamond
102.0,2.0,2.0,0.0,3.0,3.0,468.4379929999522,2.0,1.0,part_1,,,,,,,,,,,,,blue,flipped triangle
53.0,5.0,1.0,1.0,1.0,1.0,531.803889999992,2.0,1.0,part_1,,,,,,,,,,,,,green,hexagon
28.0,5.0,1.0,1.0,4.0,4.0,407.7917189997606,2.0,1.0,part_1,,,,,,,,,,,,,green,hexagon
82.0,2.0,2.0,0.0,4.0,4.0,422.488372999851,2.0,1.0,part_1,,,,,,,,,,,,,blue,flipped triangle
83.0,2.0,2.0,0.0,3.0,3.0,397.8887100001884,2.0,1.0,part_1,,,,,,,,,,,,,blue,flipped triangle
200.0,7.0,3.0,1.0,3.0,3.0,430.5171900000459,2.0,1.0,part_1,,,,,,,,,,,,,yellow,diamond
27.0,5.0,1.0,1.0,4.0,4.0,433.8761359999807,2.0,1.0,part_1,,,,,,,,,,,,,green,hexagon
63.0,1.0,1.0,0.0,2.0,2.0,444.4356970002445,2.0,1.0,part_1,,,,,,,,,,,,,white,circle
0.0,4.0,0.0,0.0,1.0,1.0,392.9951840000285,2.0,1.0,part_1,,,,,,,,,,,,,cyan,triangle
0.0,2.0,0.0,0.0,3.0,3.0,360.8252600001833,2.0,1.0,part_1,,,,,,,,,,,,,blue,flipped triangle
194.0,7.0,3.0,1.0,4.0,4.0,437.8015590000359,2.0,1.0,part_1,,,,,,,,,,,,,yellow,diamond
389.0,8.0,4.0,1.0,1.0,1.0,382.157012999869,2.0,1.0,part_1,,,,,,,,,,,,,magenta,cross
66.0,1.0,1.0,0.0,4.0,4.0,440.7957570001599,2.0,1.0,part_1,,,,,,,,,,,,,white,circle
410.0,8.0,4.0,1.0,3.0,3.0,463.1168689998048,2.0,1.0,part_1,,,,,,,,,,,,,magenta,cross
0.0,6.0,0.0,1.0,1.0,1.0,443.7387350003519,2.0,1.0,part_1,,,,,,,,,,,,,gray,square
205.0,7.0,3.0,1.0,4.0,4.0,461.0997830000087,2.0,1.0,part_1,,,,,,,,,,,,,yellow,diamond
199.0,7.0,3.0,1.0,3.0,3.0,412.1835359997021,2.0,1.0,part_1,,,,,,,,,,,,,yellow,diamond
89.0,6.0,2.0,1.0,1.0,1.0,525.8034479998059,2.0,1.0,part_1,,,,,,,,,,,,,gray,square
0.0,3.0,0.0,0.0,1.0,1.0,429.2517300000327,2.0,1.0,part_1,,,,,,,,,,,,,orange,I
52.0,5.0,1.0,1.0,2.0,2.0,412.6240249997863,2.0,1.0,part_1,,,,,,,,,,,,,green,hexagon
0.0,5.0,0.0,1.0,3.0,3.0,413.4805349999624,2.0,1.0,part_1,,,,,,,,,,,,,green,hexagon
74.0,5.0,1.0,1.0,3.0,3.0,440.5038540003261,2.0,1.0,part_1,,,,,,,,,,,,,green,hexagon
410.0,8.0,4.0,1.0,1.0,1.0,445.3162889999476,2.0,1.0,part_1,,,,,,,,,,,,,magenta,cross
403.0,8.0,4.0,1.0,4.0,4.0,407.7955459997611,2.0,1.0,part_1,,,,,,,,,,,,,magenta,cross
423.0,8.0,4.0,1.0,2.0,2.0,317.616562999774,2.0,1.0,part_1,,,,,,,,,,,,,magenta,cross
42.0,5.0,1.0,1.0,3.0,3.0,341.0318470000675,2.0,1.0,part_1,,,,,,,,,,,,,green,hexagon
220.0,3.0,3.0,0.0,4.0,4.0,426.1244559997976,2.0,1.0,part_1,,,,,,,,,,,,,orange,I
216.0,7.0,3.0,1.0,3.0,3.0,390.8514409999952,2.0,1.0,part_1,,,,,,,,,,,,,yellow,diamond
30.0,1.0,1.0,0.0,1.0,1.0,349.2911729999832,2.0,1.0,part_1,,,,,,,,,,,,,white,circle
108.0,6.0,2.0,1.0,3.0,3.0,350.9116519999224,2.0,1.0,part_1,,,,,,,,,,,,,gray,square
221.0,3.0,3.0,0.0,2.0,2.0,617.230710000058,2.0,1.0,part_1,,,,,,,,,,,,,orange,I
42.0,1.0,1.0,0.0,4.0,4.0,441.1462559996835,2.0,1.0,part_1,,,,,,,,,,,,,white,circle
35.0,5.0,1.0,1.0,1.0,1.0,440.6977210001059,2.0,1.0,part_1,,,,,,,,,,,,,green,hexagon
25.0,5.0,1.0,1.0,4.0,4.0,398.4130460003143,2.0,1.0,part_1,,,,,,,,,,,,,green,hexagon
46.0,5.0,1.0,1.0,1.0,1.0,549.750641999708,2.0,1.0,part_1,,,,,,,,,,,,,green,hexagon
390.0,8.0,4.0,1.0,4.0,4.0,388.0497039999682,2.0,1.0,part_1,,,,,,,,,,,,,magenta,cross
378.0,4.0,4.0,0.0,4.0,4.0,469.9174970000968,2.0,1.0,part_1,,,,,,,,,,,,,cyan,triangle
100.0,6.0,2.0,1.0,4.0,4.0,477.4854489996869,3.0,1.0,part_1,,,,,,,,,,,,,gray,square
70.0,5.0,1.0,1.0,2.0,2.0,305.4533240001547,3.0,1.0,part_1,,,,,,,,,,,,,green,hexagon
33.0,1.0,1.0,0.0,4.0,4.0,482.7438830002393,3.0,1.0,part_1,,,,,,,,,,,,,white,circle
376.0,4.0,4.0,0.0,3.0,3.0,441.5932189999694,3.0,1.0,part_1,,,,,,,,,,,,,cyan,triangle
0.0,4.0,0.0,0.0,2.0,2.0,411.0325569999986,3.0,1.0,part_1,,,,,,,,,,,,,cyan,triangle
406.0,8.0,4.0,1.0,4.0,4.0,415.8231920000617,3.0,1.0,part_1,,,,,,,,,,,,,magenta,cross
184.0,7.0,3.0,1.0,3.0,3.0,401.1384259997612,3.0,1.0,part_1,,,,,,,,,,,,,yellow,diamond
120.0,2.0,2.0,0.0,3.0,3.0,361.4610820000052,3.0,1.0,part_1,,,,,,,,,,,,,blue,flipped triangle
406.0,8.0,4.0,1.0,2.0,2.0,364.8864260003392,3.0,1.0,part_1,,,,,,,,,,,,,magenta,cross
115.0,2.0,2.0,0.0,2.0,2.0,455.2874669998346,3.0,1.0,part_1,,,,,,,,,,,,,blue,flipped triangle
0.0,1.0,0.0,0.0,4.0,4.0,437.958026999695,3.0,1.0,part_1,,,,,,,,,,,,,white,circle
209.0,3.0,3.0,0.0,4.0,4.0,401.4606230002755,3.0,1.0,part_1,,,,,,,,,,,,,orange,I
398.0,8.0,4.0,1.0,1.0,1.0,428.4030620001431,3.0,1.0,part_1,,,,,,,,,,,,,magenta,cross
101.0,2.0,2.0,0.0,2.0,2.0,354.2412779997903,3.0,1.0,part_1,,,,,,,,,,,,,blue,flipped triangle
125.0,6.0,2.0,1.0,3.0,3.0,324.6320359999117,3.0,1.0,part_1,,,,,,,,,,,,,gray,square
0.0,8.0,0.0,1.0,3.0,3.0,397.6007830001435,3.0,1.0,part_1,,,,,,,,,,,,,magenta,cross
211.0,3.0,3.0,0.0,3.0,3.0,463.1290290003562,3.0,1.0,part_1,,,,,,,,,,,,,orange,I
42.0,5.0,1.0,1.0,4.0,4.0,429.3221579996498,3.0,1.0,part_1,,,,,,,,,,,,,green,hexagon
90.0,2.0,2.0,0.0,3.0,3.0,399.44184199976,3.0,1.0,part_1,,,,,,,,,,,,,blue,flipped triangle
88.0,2.0,2.0,0.0,2.0,2.0,359.3531040000925,3.0,1.0,part_1,,,,,,,,,,,,,blue,flipped triangle
26.0,1.0,1.0,0.0,2.0,2.0,538.3334490002198,3.0,1.0,part_1,,,,,,,,,,,,,white,circle
0.0,2.0,0.0,0.0,3.0,3.0,375.5413859998953,3.0,1.0,part_1,,,,,,,,,,,,,blue,flipped triangle
61.0,1.0,1.0,0.0,4.0,4.0,419.3402219998461,3.0,1.0,part_1,,,,,,,,,,,,,white,circle
123.0,6.0,2.0,1.0,4.0,4.0,440.8358170003339,3.0,1.0,part_1,,,,,,,,,,,,,gray,square
101.0,6.0,2.0,1.0,1.0,1.0,460.1782159998038,3.0,1.0,part_1,,,,,,,,,,,,,gray,square
213.0,7.0,3.0,1.0,1.0,1.0,423.81687399984,3.0,1.0,part_1,,,,,,,,,,,,,yellow,diamond
95.0,6.0,2.0,1.0,3.0,3.0,375.0869330001478,3.0,1.0,part_1,,,,,,,,,,,,,gray,square
50.0,5.0,1.0,1.0,4.0,4.0,443.7982350000311,3.0,1.0,part_1,,,,,,,,,,,,,green,hexagon
88.0,2.0,2.0,0.0,4.0,4.0,445.5155989999184,3.0,1.0,part_1,,,,,,,,,,,,,blue,flipped triangle
43.0,1.0,1.0,0.0,3.0,3.0,387.8369700000803,3.0,1.0,part_1,,,,,,,,,,,,,white,circle
0.0,3.0,0.0,0.0,2.0,2.0,440.9619350003595,3.0,1.0,part_1,,,,,,,,,,,,,orange,I
0.0,1.0,0.0,0.0,4.0,4.0,424.5195729999977,3.0,1.0,part_1,,,,,,,,,,,,,white,circle
192.0,3.0,3.0,0.0,1.0,1.0,334.8865600000863,3.0,1.0,part_1,,,,,,,,,,,,,orange,I
0.0,1.0,0.0,0.0,4.0,4.0,443.3738299999277,3.0,1.0,part_1,,,,,,,,,,,,,white,circle
101.0,2.0,2.0,0.0,4.0,4.0,556.1692179999227,3.0,1.0,part_1,,,,,,,,,,,,,blue,flipped triangle
96.0,6.0,2.0,1.0,3.0,3.0,424.3417729999237,3.0,1.0,part_1,,,,,,,,,,,,,gray,square
0.0,4.0,0.0,0.0,3.0,3.0,394.0657299999657,3.0,1.0,part_1,,,,,,,,,,,,,cyan,triangle
62.0,1.0,1.0,0.0,3.0,3.0,357.8817080001499,3.0,1.0,part_1,,,,,,,,,,,,,white,circle
25.0,1.0,1.0,0.0,3.0,3.0,431.641201000275,3.0,1.0,part_1,,,,,,,,,,,,,white,circle
0.0,5.0,0.0,1.0,1.0,1.0,538.7862030001997,3.0,1.0,part_1,,,,,,,,,,,,,green,hexagon
0.0,7.0,0.0,1.0,4.0,4.0,466.8051759999798,3.0,1.0,part_1,,,,,,,,,,,,,yellow,diamond
0.0,8.0,0.0,1.0,3.0,3.0,393.6277100001462,3.0,1.0,part_1,,,,,,,,,,,,,magenta,cross
0.0,7.0,0.0,1.0,4.0,4.0,365.5428540000685,3.0,1.0,part_1,,,,,,,,,,,,,yellow,diamond
392.0,8.0,4.0,1.0,1.0,1.0,438.5657940001692,3.0,1.0,part_1,,,,,,,,,,,,,magenta,cross
70.0,1.0,1.0,0.0,1.0,1.0,426.5487870002289,3.0,1.0,part_1,,,,,,,,,,,,,white,circle
42.0,1.0,1.0,0.0,2.0,2.0,368.1887069997174,3.0,1.0,part_1,,,,,,,,,,,,,white,circle
34.0,5.0,1.0,1.0,1.0,1.0,417.2415899997759,3.0,1.0,part_1,,,,,,,,,,,,,green,hexagon
59.0,5.0,1.0,1.0,2.0,2.0,461.9124499999998,3.0,1.0,part_1,,,,,,,,,,,,,green,hexagon
0.0,7.0,0.0,1.0,4.0,4.0,405.3651300000638,3.0,1.0,part_1,,,,,,,,,,,,,yellow,diamond
406.0,4.0,4.0,0.0,1.0,1.0,431.3209860001734,3.0,1.0,part_1,,,,,,,,,,,,,cyan,triangle
0.0,8.0,0.0,1.0,3.0,3.0,416.5738429996963,3.0,1.0,part_1,,,,,,,,,,,,,magenta,cross
408.0,8.0,4.0,1.0,4.0,4.0,798.8720899998043,3.0,1.0,part_1,,,,,,,,,,,,,magenta,cross
400.0,8.0,4.0,1.0,2.0,2.0,428.7988579999364,3.0,1.0,part_1,,,,,,,,,,,,,magenta,cross
384.0,8.0,4.0,1.0,2.0,2.0,534.9109629996747,3.0,1.0,part_1,,,,,,,,,,,,,magenta,cross
96.0,6.0,2.0,1.0,4.0,4.0,480.9436489999825,3.0,1.0,part_1,,,,,,,,,,,,,gray,square
212.0,7.0,3.0,1.0,4.0,4.0,780.8064779997039,3.0,1.0,part_1,,,,,,,,,,,,,yellow,diamond
194.0,7.0,3.0,1.0,2.0,2.0,504.1816809998636,3.0,1.0,part_1,,,,,,,,,,,,,yellow,diamond
68.0,1.0,1.0,0.0,3.0,3.0,399.8494490001576,3.0,1.0,part_1,,,,,,,,,,,,,white,circle
424.0,8.0,4.0,1.0,2.0,2.0,449.6149799997511,3.0,1.0,part_1,,,,,,,,,,,,,magenta,cross
194.0,7.0,3.0,1.0,1.0,1.0,439.5693229998869,3.0,1.0,part_1,,,,,,,,,,,,,yellow,diamond
218.0,3.0,3.0,0.0,4.0,4.0,474.4114659997649,3.0,1.0,part_1,,,,,,,,,,,,,orange,I
218.0,7.0,3.0,1.0,2.0,2.0,434.3732219999765,3.0,1.0,part_1,,,,,,,,,,,,,yellow,diamond
60.0,1.0,1.0,0.0,3.0,3.0,381.6718540001602,3.0,1.0,part_1,,,,,,,,,,,,,white,circle
190.0,7.0,3.0,1.0,4.0,4.0,377.7297520000502,3.0,1.0,part_1,,,,,,,,,,,,,yellow,diamond
0.0,6.0,0.0,1.0,1.0,1.0,501.4910879999661,3.0,1.0,part_1,,,,,,,,,,,,,gray,square
0.0,7.0,0.0,1.0,1.0,1.0,440.3937669999322,3.0,1.0,part_1,,,,,,,,,,,,,yellow,diamond
89.0,2.0,2.0,0.0,1.0,1.0,404.0861620001124,3.0,1.0,part_1,,,,,,,,,,,,,blue,flipped triangle
410.0,4.0,4.0,0.0,2.0,2.0,420.3963800000565,3.0,1.0,part_1,,,,,,,,,,,,,cyan,triangle
217.0,7.0,3.0,1.0,3.0,3.0,412.0367740001711,3.0,1.0,part_1,,,,,,,,,,,,,yellow,diamond
198.0,3.0,3.0,0.0,3.0,3.0,386.6102169999976,3.0,1.0,part_1,,,,,,,,,,,,,orange,I
0.0,8.0,0.0,1.0,3.0,3.0,436.1511160000191,3.0,1.0,part_1,,,,,,,,,,,,,magenta,cross
406.0,4.0,4.0,0.0,2.0,2.0,406.4456440000867,3.0,1.0,part_1,,,,,,,,,,,,,cyan,triangle
399.0,4.0,4.0,0.0,4.0,4.0,448.5316749996855,3.0,1.0,part_1,,,,,,,,,,,,,cyan,triangle
0.0,3.0,0.0,0.0,3.0,3.0,421.2807840003734,3.0,1.0,part_1,,,,,,,,,,,,,orange,I
102.0,6.0,2.0,1.0,4.0,4.0,419.8587559999396,3.0,1.0,part_1,,,,,,,,,,,,,gray,square
100.0,2.0,2.0,0.0,4.0,4.0,377.7764070000557,3.0,1.0,part_1,,,,,,,,,,,,,blue,flipped triangle
184.0,3.0,3.0,0.0,2.0,2.0,479.124581999713,3.0,1.0,part_1,,,,,,,,,,,,,orange,I
123.0,6.0,2.0,1.0,2.0,2.0,471.475699000166,3.0,1.0,part_1,,,,,,,,,,,,,gray,square
81.0,2.0,2.0,0.0,3.0,3.0,400.7123110000066,3.0,1.0,part_1,,,,,,,,,,,,,blue,flipped triangle
0.0,5.0,0.0,1.0,4.0,4.0,412.5996669999949,3.0,1.0,part_1,,,,,,,,,,,,,green,hexagon
408.0,4.0,4.0,0.0,2.0,2.0,402.7389190000576,3.0,1.0,part_1,,,,,,,,,,,,,cyan,triangle
79.0,2.0,2.0,0.0,4.0,4.0,481.6978680000829,3.0,1.0,part_1,,,,,,,,,,,,,blue,flipped triangle
418.0,8.0,4.0,1.0,2.0,2.0,413.2845530002669,3.0,1.0,part_1,,,,,,,,,,,,,magenta,cross
66.0,5.0,1.0,1.0,2.0,2.0,647.8857480001352,3.0,1.0,part_1,,,,,,,,,,,,,green,hexagon
84.0,2.0,2.0,0.0,1.0,1.0,493.7637319999339,3.0,1.0,part_1,,,,,,,,,,,,,blue,flipped triangle
72.0,1.0,1.0,0.0,4.0,4.0,445.5386200002067,3.0,1.0,part_1,,,,,,,,,,,,,white,circle
51.0,5.0,1.0,1.0,1.0,1.0,483.912331999818,3.0,1.0,part_1,,,,,,,,,,,,,green,hexagon
115.0,6.0,2.0,1.0,1.0,1.0,453.5668190001161,3.0,1.0,part_1,,,,,,,,,,,,,gray,square
45.0,1.0,1.0,0.0,4.0,4.0,357.9462319999038,3.0,1.0,part_1,,,,,,,,,,,,,white,circle
0.0,4.0,0.0,0.0,4.0,4.0,422.2637130001203,3.0,1.0,part_1,,,,,,,,,,,,,cyan,triangle
0.0,7.0,0.0,1.0,3.0,3.0,412.9710350002824,3.0,1.0,part_1,,,,,,,,,,,,,yellow,diamond
55.0,5.0,1.0,1.0,2.0,2.0,383.5291999998844,3.0,1.0,part_1,,,,,,,,,,,,,green,hexagon
184.0,7.0,3.0,1.0,4.0,4.0,379.0876080001908,3.0,1.0,part_1,,,,,,,,,,,,,yellow,diamond
393.0,8.0,4.0,1.0,4.0,4.0,397.6259830001254,3.0,1.0,part_1,,,,,,,,,,,,,magenta,cross
0.0,6.0,0.0,1.0,2.0,2.0,443.9515519998167,3.0,1.0,part_1,,,,,,,,,,,,,gray,square
28.0,1.0,1.0,0.0,1.0,1.0,500.13728899966736,3.0,1.0,part_1,,,,,,,,,,,,,white,circle
412.0,4.0,4.0,0.0,1.0,1.0,478.5566180003116,3.0,1.0,part_1,,,,,,,,,,,,,cyan,triangle
0.0,2.0,0.0,0.0,2.0,2.0,483.1167309998818,3.0,2.0,part_1,,,,,,,,,,,,,blue,flipped triangle
57.0,5.0,1.0,1.0,4.0,4.0,384.0766569996958,3.0,1.0,part_1,,,,,,,,,,,,,green,hexagon
72.0,5.0,1.0,1.0,3.0,3.0,540.7984710000164,3.0,1.0,part_1,,,,,,,,,,,,,green,hexagon
401.0,8.0,4.0,1.0,3.0,3.0,617.1407020001425,4.0,1.0,part_1,,,,,,,,,,,,,magenta,cross
76.0,2.0,2.0,0.0,1.0,1.0,447.0742179996705,4.0,1.0,part_1,,,,,,,,,,,,,blue,flipped triangle
423.0,4.0,4.0,0.0,4.0,4.0,392.0063129999107,4.0,1.0,part_1,,,,,,,,,,,,,cyan,triangle
406.0,8.0,4.0,1.0,3.0,3.0,475.1448110000638,4.0,1.0,part_1,,,,,,,,,,,,,magenta,cross
385.0,8.0,4.0,1.0,4.0,4.0,422.2913280000284,4.0,1.0,part_1,,,,,,,,,,,,,magenta,cross
94.0,2.0,2.0,0.0,1.0,1.0,471.7416119997324,4.0,1.0,part_1,,,,,,,,,,,,,blue,flipped triangle
404.0,4.0,4.0,0.0,1.0,1.0,375.1582100003361,4.0,1.0,part_1,,,,,,,,,,,,,cyan,triangle
31.0,5.0,1.0,1.0,3.0,3.0,531.6270969997277,4.0,1.0,part_1,,,,,,,,,,,,,green,hexagon
383.0,4.0,4.0,0.0,1.0,1.0,428.8767120001466,4.0,1.0,part_1,,,,,,,,,,,,,cyan,triangle
0.0,5.0,0.0,1.0,2.0,2.0,330.6754079999336,4.0,1.0,part_1,,,,,,,,,,,,,green,hexagon
0.0,6.0,0.0,1.0,4.0,4.0,419.2104069998095,4.0,1.0,part_1,,,,,,,,,,,,,gray,square
103.0,6.0,2.0,1.0,4.0,4.0,453.2091260002744,4.0,1.0,part_1,,,,,,,,,,,,,gray,square
383.0,8.0,4.0,1.0,3.0,3.0,472.3848399999042,4.0,1.0,part_1,,,,,,,,,,,,,magenta,cross
123.0,2.0,2.0,0.0,4.0,4.0,430.1579900002252,4.0,1.0,part_1,,,,,,,,,,,,,blue,flipped triangle
85.0,2.0,2.0,0.0,2.0,2.0,470.9518700001354,4.0,1.0,part_1,,,,,,,,,,,,,blue,flipped triangle
112.0,2.0,2.0,0.0,2.0,2.0,393.6333510000622,4.0,1.0,part_1,,,,,,,,,,,,,blue,flipped triangle
0.0,5.0,0.0,1.0,2.0,2.0,502.04901600000085,4.0,1.0,part_1,,,,,,,,,,,,,green,hexagon
70.0,1.0,1.0,0.0,1.0,1.0,416.935765999824,4.0,1.0,part_1,,,,,,,,,,,,,white,circle
221.0,3.0,3.0,0.0,2.0,2.0,635.6532989998414,4.0,1.0,part_1,,,,,,,,,,,,,orange,I
74.0,1.0,1.0,0.0,4.0,4.0,382.927392000056,4.0,1.0,part_1,,,,,,,,,,,,,white,circle
61.0,5.0,1.0,1.0,2.0,2.0,388.804292000259,4.0,1.0,part_1,,,,,,,,,,,,,green,hexagon
68.0,5.0,1.0,1.0,4.0,4.0,415.3948270000001,4.0,1.0,part_1,,,,,,,,,,,,,green,hexagon
217.0,7.0,3.0,1.0,1.0,1.0,396.2275499998213,4.0,1.0,part_1,,,,,,,,,,,,,yellow,diamond
176.0,7.0,3.0,1.0,1.0,1.0,455.5813790002503,4.0,1.0,part_1,,,,,,,,,,,,,yellow,diamond
81.0,6.0,2.0,1.0,4.0,4.0,418.9199869997537,4.0,1.0,part_1,,,,,,,,,,,,,gray,square
396.0,8.0,4.0,1.0,4.0,4.0,452.0870389997071,4.0,1.0,part_1,,,,,,,,,,,,,magenta,cross
84.0,6.0,2.0,1.0,1.0,1.0,449.9229769999147,4.0,1.0,part_1,,,,,,,,,,,,,gray,square
194.0,3.0,3.0,0.0,3.0,3.0,395.7282159999522,4.0,1.0,part_1,,,,,,,,,,,,,orange,I
86.0,2.0,2.0,0.0,1.0,1.0,410.5212489998848,4.0,1.0,part_1,,,,,,,,,,,,,blue,flipped triangle
410.0,4.0,4.0,0.0,1.0,1.0,433.8008670001727,4.0,1.0,part_1,,,,,,,,,,,,,cyan,triangle
59.0,1.0,1.0,0.0,3.0,3.0,398.4579680000024,4.0,1.0,part_1,,,,,,,,,,,,,white,circle
112.0,6.0,2.0,1.0,2.0,2.0,458.0330759999924,4.0,1.0,part_1,,,,,,,,,,,,,gray,square
196.0,3.0,3.0,0.0,4.0,4.0,405.52663499966,4.0,1.0,part_1,,,,,,,,,,,,,orange,I
0.0,4.0,0.0,0.0,4.0,4.0,376.5578880002067,4.0,1.0,part_1,,,,,,,,,,,,,cyan,triangle
0.0,2.0,0.0,0.0,4.0,4.0,424.2760679999264,4.0,1.0,part_1,,,,,,,,,,,,,blue,flipped triangle
0.0,3.0,0.0,0.0,4.0,4.0,434.7997410000062,4.0,1.0,part_1,,,,,,,,,,,,,orange,I
395.0,4.0,4.0,0.0,1.0,1.0,343.9962319998813,4.0,1.0,part_1,,,,,,,,,,,,,cyan,triangle
223.0,3.0,3.0,0.0,2.0,2.0,368.2708370001819,4.0,1.0,part_1,,,,,,,,,,,,,orange,I
396.0,4.0,4.0,0.0,1.0,1.0,430.340124000395,4.0,1.0,part_1,,,,,,,,,,,,,cyan,triangle
0.0,2.0,0.0,0.0,2.0,2.0,465.337288000228,4.0,1.0,part_1,,,,,,,,,,,,,blue,flipped triangle
0.0,3.0,0.0,0.0,4.0,4.0,433.2503860000543,4.0,1.0,part_1,,,,,,,,,,,,,orange,I
62.0,5.0,1.0,1.0,4.0,4.0,454.204054999991,4.0,1.0,part_1,,,,,,,,,,,,,green,hexagon
380.0,8.0,4.0,1.0,4.0,4.0,431.0341909999806,4.0,1.0,part_1,,,,,,,,,,,,,magenta,cross
386.0,4.0,4.0,0.0,3.0,3.0,352.7429669998128,4.0,1.0,part_1,,,,,,,,,,,,,cyan,triangle
410.0,8.0,4.0,1.0,1.0,1.0,392.6200539999627,4.0,1.0,part_1,,,,,,,,,,,,,magenta,cross
35.0,1.0,1.0,0.0,3.0,3.0,431.9053799999892,4.0,1.0,part_1,,,,,,,,,,,,,white,circle
0.0,1.0,0.0,0.0,2.0,2.0,385.1630760000262,4.0,1.0,part_1,,,,,,,,,,,,,white,circle
33.0,5.0,1.0,1.0,1.0,1.0,445.0143389999539,4.0,1.0,part_1,,,,,,,,,,,,,green,hexagon
123.0,6.0,2.0,1.0,4.0,4.0,520.2487990000009,4.0,1.0,part_1,,,,,,,,,,,,,gray,square
123.0,2.0,2.0,0.0,3.0,3.0,407.660031999967,4.0,1.0,part_1,,,,,,,,,,,,,blue,flipped triangle
99.0,6.0,2.0,1.0,1.0,1.0,430.4795529997136,4.0,1.0,part_1,,,,,,,,,,,,,gray,square
53.0,1.0,1.0,0.0,2.0,2.0,409.4660499999918,4.0,1.0,part_1,,,,,,,,,,,,,white,circle
204.0,7.0,3.0,1.0,3.0,3.0,360.5364389995884,4.0,1.0,part_1,,,,,,,,,,,,,yellow,diamond
206.0,7.0,3.0,1.0,4.0,4.0,365.5855730003168,4.0,1.0,part_1,,,,,,,,,,,,,yellow,diamond
0.0,1.0,0.0,0.0,2.0,2.0,420.4977979998148,4.0,1.0,part_1,,,,,,,,,,,,,white,circle
413.0,4.0,4.0,0.0,2.0,2.0,375.5233780002527,4.0,1.0,part_1,,,,,,,,,,,,,cyan,triangle
184.0,3.0,3.0,0.0,3.0,3.0,477.3953429998983,4.0,1.0,part_1,,,,,,,,,,,,,orange,I
50.0,1.0,1.0,0.0,3.0,3.0,445.4293369999504,4.0,1.0,part_1,,,,,,,,,,,,,white,circle
394.0,4.0,4.0,0.0,2.0,2.0,360.2904370000033,4.0,1.0,part_1,,,,,,,,,,,,,cyan,triangle
0.0,5.0,0.0,1.0,1.0,1.0,553.0231590000767,4.0,1.0,part_1,,,,,,,,,,,,,green,hexagon
216.0,3.0,3.0,0.0,2.0,2.0,468.9471159999812,4.0,1.0,part_1,,,,,,,,,,,,,orange,I
0.0,3.0,0.0,0.0,2.0,2.0,461.8092830000933,4.0,1.0,part_1,,,,,,,,,,,,,orange,I
393.0,4.0,4.0,0.0,3.0,3.0,460.7545300000311,4.0,1.0,part_1,,,,,,,,,,,,,cyan,triangle
80.0,6.0,2.0,1.0,1.0,1.0,442.3623329998918,4.0,1.0,part_1,,,,,,,,,,,,,gray,square
62.0,5.0,1.0,1.0,3.0,3.0,560.651159000372,4.0,1.0,part_1,,,,,,,,,,,,,green,hexagon
406.0,4.0,4.0,0.0,3.0,3.0,474.3144610001764,4.0,1.0,part_1,,,,,,,,,,,,,cyan,triangle
115.0,2.0,2.0,0.0,3.0,3.0,472.3919960001694,4.0,1.0,part_1,,,,,,,,,,,,,blue,flipped triangle
45.0,5.0,1.0,1.0,3.0,3.0,431.4375000003565,4.0,1.0,part_1,,,,,,,,,,,,,green,hexagon
30.0,5.0,1.0,1.0,2.0,2.0,450.5061410000053,4.0,1.0,part_1,,,,,,,,,,,,,green,hexagon
0.0,2.0,0.0,0.0,4.0,4.0,450.9895490000417,4.0,1.0,part_1,,,,,,,,,,,,,blue,flipped triangle
0.0,5.0,0.0,1.0,3.0,3.0,443.4189839998907,4.0,1.0,part_1,,,,,,,,,,,,,green,hexagon
398.0,4.0,4.0,0.0,1.0,1.0,394.7237259999383,4.0,1.0,part_1,,,,,,,,,,,,,cyan,triangle
110.0,6.0,2.0,1.0,2.0,2.0,672.6245310001104,4.0,1.0,part_1,,,,,,,,,,,,,gray,square
0.0,4.0,0.0,0.0,2.0,2.0,435.6868990003022,4.0,1.0,part_1,,,,,,,,,,,,,cyan,triangle
223.0,7.0,3.0,1.0,2.0,2.0,481.90410899997,4.0,1.0,part_1,,,,,,,,,,,,,yellow,diamond
121.0,6.0,2.0,1.0,1.0,1.0,469.081410000399,4.0,1.0,part_1,,,,,,,,,,,,,gray,square
378.0,8.0,4.0,1.0,3.0,3.0,389.7650570002042,4.0,1.0,part_1,,,,,,,,,,,,,magenta,cross
389.0,4.0,4.0,0.0,2.0,2.0,501.0383130002083,4.0,1.0,part_1,,,,,,,,,,,,,cyan,triangle
27.0,1.0,1.0,0.0,1.0,1.0,422.0249119998698,4.0,1.0,part_1,,,,,,,,,,,,,white,circle
57.0,1.0,1.0,0.0,1.0,1.0,441.1939909996363,4.0,1.0,part_1,,,,,,,,,,,,,white,circle
406.0,8.0,4.0,1.0,3.0,3.0,452.7974650000033,4.0,1.0,part_1,,,,,,,,,,,,,magenta,cross
79.0,2.0,2.0,0.0,1.0,1.0,642.6923700000771,4.0,1.0,part_1,,,,,,,,,,,,,blue,flipped triangle
115.0,6.0,2.0,1.0,4.0,4.0,399.157527999705,4.0,1.0,part_1,,,,,,,,,,,,,gray,square
0.0,4.0,0.0,0.0,3.0,3.0,404.5006279998233,4.0,1.0,part_1,,,,,,,,,,,,,cyan,triangle
58.0,1.0,1.0,0.0,1.0,1.0,435.6662129998767,4.0,1.0,part_1,,,,,,,,,,,,,white,circle
180.0,7.0,3.0,1.0,4.0,4.0,426.4927690001059,4.0,1.0,part_1,,,,,,,,,,,,,yellow,diamond
65.0,1.0,1.0,0.0,2.0,2.0,450.7766629999423,4.0,1.0,part_1,,,,,,,,,,,,,white,circle
390.0,4.0,4.0,0.0,4.0,4.0,388.8940560000264,4.0,1.0,part_1,,,,,,,,,,,,,cyan,triangle
96.0,2.0,2.0,0.0,1.0,1.0,375.1123649999499,4.0,1.0,part_1,,,,,,,,,,,,,blue,flipped triangle
58.0,5.0,1.0,1.0,3.0,3.0,603.0923820003409,4.0,1.0,part_1,,,,,,,,,,,,,green,hexagon
0.0,8.0,0.0,1.0,1.0,1.0,771.5356479998263,4.0,1.0,part_1,,,,,,,,,,,,,magenta,cross
184.0,7.0,3.0,1.0,2.0,2.0,491.1693829999422,4.0,1.0,part_1,,,,,,,,,,,,,yellow,diamond
0.0,6.0,0.0,1.0,3.0,3.0,484.2461980001644,4.0,1.0,part_1,,,,,,,,,,,,,gray,square
0.0,4.0,0.0,0.0,2.0,2.0,456.1711819997072,4.0,1.0,part_1,,,,,,,,,,,,,cyan,triangle
55.0,1.0,1.0,0.0,1.0,1.0,394.0603400001237,4.0,1.0,part_1,,,,,,,,,,,,,white,circle
123.0,2.0,2.0,0.0,4.0,4.0,360.9254990001318,4.0,1.0,part_1,,,,,,,,,,,,,blue,flipped triangle
38.0,1.0,1.0,0.0,2.0,2.0,364.043613999911,4.0,1.0,part_1,,,,,,,,,,,,,white,circle
0.0,1.0,0.0,0.0,2.0,2.0,499.9849910000193,4.0,1.0,part_1,,,,,,,,,,,,,white,circle
100.0,6.0,2.0,1.0,3.0,3.0,329.5847479998883,4.0,1.0,part_1,,,,,,,,,,,,,gray,square
68.0,1.0,1.0,0.0,2.0,2.0,358.360409999932,4.0,1.0,part_1,,,,,,,,,,,,,white,circle
0.0,8.0,4.0,1.0,6.0,6.0,577.1930390001216,1.0,0.0,part_2,stop,250.0,250.0,3.0,,,,,,,,,magenta,cross
0.0,6.0,2.0,1.0,5.0,0.0,0.0,1.0,0.0,part_2,stop,250.0,200.0,4.0,,,,,,,,,gray,square
0.0,3.0,3.0,0.0,5.0,5.0,629.7666089999439,1.0,0.0,part_2,go,300.0,200.0,1.0,,,,,,,,,orange,I
0.0,5.0,1.0,1.0,6.0,0.0,0.0,1.0,0.0,part_2,stop,300.0,200.0,4.0,,,,,,,,,green,hexagon
0.0,2.0,2.0,0.0,5.0,5.0,591.4714260002256,1.0,0.0,part_2,go,300.0,250.0,1.0,,,,,,,,,blue,flipped triangle
0.0,2.0,2.0,0.0,5.0,5.0,642.6790719997371,1.0,0.0,part_2,go,300.0,250.0,1.0,,,,,,,,,blue,flipped triangle
0.0,3.0,3.0,0.0,6.0,6.0,645.9492509998199,1.0,0.0,part_2,go,300.0,250.0,1.0,,,,,,,,,orange,I
0.0,3.0,3.0,0.0,6.0,6.0,608.767596999769,1.0,0.0,part_2,go,300.0,250.0,1.0,,,,,,,,,orange,I
0.0,7.0,3.0,1.0,5.0,0.0,0.0,1.0,0.0,part_2,stop,300.0,250.0,4.0,,,,,,,,,yellow,diamond
0.0,7.0,3.0,1.0,6.0,0.0,0.0,1.0,0.0,part_2,stop,350.0,250.0,4.0,,,,,,,,,yellow,diamond
0.0,7.0,3.0,1.0,5.0,0.0,0.0,1.0,0.0,part_2,stop,350.0,300.0,4.0,,,,,,,,,yellow,diamond
0.0,2.0,2.0,0.0,5.0,5.0,474.4755300002907,1.0,0.0,part_2,go,400.0,300.0,1.0,,,,,,,,,blue,flipped triangle
0.0,2.0,2.0,0.0,6.0,6.0,545.370579000064,1.0,0.0,part_2,go,400.0,300.0,1.0,,,,,,,,,blue,flipped triangle
0.0,3.0,3.0,0.0,5.0,5.0,466.1976789998334,1.0,0.0,part_2,go,400.0,300.0,1.0,,,,,,,,,orange,I
0.0,7.0,3.0,1.0,5.0,0.0,0.0,1.0,0.0,part_2,stop,400.0,300.0,4.0,,,,,,,,,yellow,diamond
0.0,8.0,4.0,1.0,5.0,0.0,0.0,1.0,0.0,part_2,stop,450.0,300.0,4.0,,,,,,,,,magenta,cross
0.0,5.0,1.0,1.0,6.0,6.0,703.8462639998215,1.0,0.0,part_2,go,500.0,300.0,1.0,,,,,,,,,green,hexagon
0.0,2.0,2.0,0.0,6.0,6.0,990.5559570001968,1.0,0.0,part_2,go,500.0,300.0,1.0,,,,,,,,,blue,flipped triangle
0.0,5.0,1.0,1.0,6.0,6.0,846.7323889999534,1.0,0.0,part_2,go,500.0,300.0,1.0,,,,,,,,,green,hexagon
0.0,3.0,3.0,0.0,6.0,6.0,647.8670390001753,1.0,0.0,part_2,go,500.0,300.0,1.0,,,,,,,,,orange,I
0.0,7.0,3.0,1.0,6.0,0.0,0.0,1.0,0.0,part_2,stop,500.0,300.0,4.0,,,,,,,,,yellow,diamond
0.0,3.0,3.0,0.0,6.0,6.0,814.1193239998756,1.0,0.0,part_2,go,500.0,350.0,1.0,,,,,,,,,orange,I
0.0,6.0,2.0,1.0,5.0,5.0,567.0747119997941,1.0,0.0,part_2,go,500.0,350.0,1.0,,,,,,,,,gray,square
0.0,6.0,2.0,1.0,6.0,0.0,0.0,1.0,0.0,part_2,stop,500.0,350.0,4.0,,,,,,,,,gray,square
0.0,7.0,3.0,1.0,5.0,5.0,603.2144470000276,1.0,0.0,part_2,go,500.0,400.0,1.0,,,,,,,,,yellow,diamond
0.0,1.0,1.0,0.0,6.0,6.0,708.9367379999203,1.0,0.0,part_2,go,500.0,400.0,1.0,,,,,,,,,white,circle
0.0,5.0,1.0,1.0,6.0,6.0,544.8541569999179,1.0,0.0,part_2,stop,500.0,400.0,3.0,,,,,,,,,green,hexagon
0.0,6.0,2.0,1.0,5.0,5.0,675.9262040000067,1.0,0.0,part_2,go,500.0,350.0,1.0,,,,,,,,,gray,square
0.0,6.0,2.0,1.0,5.0,0.0,0.0,1.0,0.0,part_2,stop,500.0,350.0,4.0,,,,,,,,,gray,square
0.0,8.0,4.0,1.0,6.0,0.0,0.0,1.0,0.0,part_2,stop,550.0,350.0,4.0,,,,,,,,,magenta,cross
0.0,2.0,2.0,0.0,6.0,6.0,617.0553100000689,1.0,0.0,part_2,go,550.0,400.0,1.0,,,,,,,,,blue,flipped triangle
0.0,8.0,4.0,1.0,6.0,0.0,0.0,1.0,0.0,part_2,stop,550.0,400.0,4.0,,,,,,,,,magenta,cross
0.0,5.0,1.0,1.0,6.0,6.0,605.4133730003741,1.0,0.0,part_2,stop,550.0,450.0,3.0,,,,,,,,,green,hexagon
0.0,1.0,1.0,0.0,5.0,5.0,720.0359810003647,1.0,0.0,part_2,go,550.0,400.0,1.0,,,,,,,,,white,circle
0.0,7.0,3.0,1.0,5.0,0.0,0.0,1.0,0.0,part_2,stop,550.0,400.0,4.0,,,,,,,,,yellow,diamond
0.0,5.0,1.0,1.0,5.0,5.0,814.2280020001635,1.0,0.0,part_2,go,600.0,400.0,1.0,,,,,,,,,green,hexagon
0.0,5.0,1.0,1.0,5.0,5.0,720.631467000203,2.0,0.0,part_2,stop,600.0,400.0,3.0,,,,,,,,,green,hexagon
0.0,7.0,3.0,1.0,5.0,5.0,684.9950020000506,2.0,0.0,part_2,go,550.0,400.0,1.0,,,,,,,,,yellow,diamond
0.0,6.0,2.0,1.0,6.0,6.0,698.3785970001009,2.0,0.0,part_2,go,550.0,400.0,1.0,,,,,,,,,gray,square
0.0,6.0,2.0,1.0,6.0,6.0,440.9859919996961,2.0,0.0,part_2,stop,550.0,400.0,3.0,,,,,,,,,gray,square
0.0,6.0,2.0,1.0,5.0,5.0,447.1266030000151,2.0,0.0,part_2,stop,550.0,350.0,3.0,,,,,,,,,gray,square
0.0,1.0,1.0,0.0,5.0,5.0,451.5694769997935,2.0,0.0,part_2,go,500.0,350.0,1.0,,,,,,,,,white,circle
0.0,2.0,2.0,0.0,5.0,5.0,524.7699829997146,2.0,0.0,part_2,go,500.0,350.0,1.0,,,,,,,,,blue,flipped triangle
0.0,4.0,4.0,0.0,5.0,5.0,493.4877700002289,2.0,0.0,part_2,go,500.0,350.0,1.0,,,,,,,,,cyan,triangle
0.0,7.0,3.0,1.0,6.0,6.0,569.4404240002768,2.0,0.0,part_2,go,500.0,350.0,1.0,,,,,,,,,yellow,diamond
0.0,2.0,2.0,0.0,6.0,6.0,612.8632879999714,2.0,0.0,part_2,go,500.0,350.0,1.0,,,,,,,,,blue,flipped triangle
0.0,1.0,1.0,0.0,6.0,6.0,431.3296410000475,2.0,0.0,part_2,go,500.0,350.0,1.0,,,,,,,,,white,circle
0.0,8.0,4.0,1.0,5.0,5.0,567.7840829998786,2.0,0.0,part_2,stop,500.0,350.0,3.0,,,,,,,,,magenta,cross
0.0,6.0,2.0,1.0,6.0,0.0,0.0,2.0,0.0,part_2,stop,450.0,350.0,4.0,,,,,,,,,gray,square
0.0,3.0,3.0,0.0,5.0,5.0,579.3963599999188,2.0,0.0,part_2,go,450.0,400.0,1.0,,,,,,,,,orange,I
0.0,1.0,1.0,0.0,6.0,6.0,863.6979689999862,2.0,0.0,part_2,go,450.0,400.0,1.0,,,,,,,,,white,circle
0.0,5.0,1.0,1.0,6.0,6.0,664.9608309999167,2.0,0.0,part_2,go,450.0,400.0,1.0,,,,,,,,,green,hexagon
0.0,7.0,3.0,1.0,5.0,0.0,0.0,2.0,0.0,part_2,stop,450.0,400.0,4.0,,,,,,,,,yellow,diamond
0.0,8.0,4.0,1.0,6.0,0.0,0.0,2.0,0.0,part_2,stop,500.0,400.0,4.0,,,,,,,,,magenta,cross
0.0,5.0,1.0,1.0,5.0,5.0,479.1391540002223,2.0,0.0,part_2,stop,500.0,450.0,3.0,,,,,,,,,green,hexagon
0.0,1.0,1.0,0.0,5.0,5.0,585.8698450001611,2.0,0.0,part_2,go,450.0,450.0,1.0,,,,,,,,,white,circle
0.0,6.0,2.0,1.0,5.0,0.0,0.0,2.0,0.0,part_2,stop,450.0,450.0,4.0,,,,,,,,,gray,square
0.0,6.0,2.0,1.0,5.0,0.0,0.0,2.0,0.0,part_2,stop,500.0,450.0,4.0,,,,,,,,,gray,square
0.0,8.0,4.0,1.0,5.0,5.0,714.6964400003526,2.0,0.0,part_2,stop,550.0,450.0,3.0,,,,,,,,,magenta,cross
0.0,4.0,4.0,0.0,6.0,6.0,621.8689699999231,2.0,0.0,part_2,go,500.0,450.0,1.0,,,,,,,,,cyan,triangle
0.0,5.0,1.0,1.0,6.0,0.0,0.0,2.0,0.0,part_2,stop,500.0,450.0,4.0,,,,,,,,,green,hexagon
0.0,3.0,3.0,0.0,5.0,5.0,674.7023200000513,2.0,0.0,part_2,go,500.0,500.0,1.0,,,,,,,,,orange,I
0.0,5.0,1.0,1.0,5.0,0.0,0.0,2.0,0.0,part_2,stop,500.0,500.0,4.0,,,,,,,,,green,hexagon
0.0,3.0,3.0,0.0,5.0,5.0,696.4138729999831,2.0,0.0,part_2,go,550.0,500.0,1.0,,,,,,,,,orange,I
0.0,3.0,3.0,0.0,6.0,6.0,668.4948160000204,2.0,0.0,part_2,go,550.0,500.0,1.0,,,,,,,,,orange,I
0.0,4.0,4.0,0.0,5.0,5.0,934.4659280000088,2.0,0.0,part_2,go,550.0,500.0,1.0,,,,,,,,,cyan,triangle
0.0,7.0,3.0,1.0,6.0,6.0,577.1222920002401,2.0,0.0,part_2,go,550.0,500.0,1.0,,,,,,,,,yellow,diamond
0.0,6.0,2.0,1.0,5.0,5.0,694.5108999998411,2.0,0.0,part_2,stop,550.0,500.0,3.0,,,,,,,,,gray,square
0.0,1.0,1.0,0.0,6.0,6.0,627.1517039999708,2.0,0.0,part_2,go,500.0,500.0,1.0,,,,,,,,,white,circle
0.0,2.0,2.0,0.0,6.0,6.0,749.4983789997605,2.0,0.0,part_2,go,500.0,500.0,1.0,,,,,,,,,blue,flipped triangle
0.0,6.0,2.0,1.0,6.0,0.0,0.0,2.0,0.0,part_2,stop,500.0,500.0,4.0,,,,,,,,,gray,square
0.0,4.0,4.0,0.0,5.0,5.0,727.3634010002752,2.0,0.0,part_2,go,500.0,550.0,1.0,,,,,,,,,cyan,triangle
0.0,8.0,4.0,1.0,6.0,6.0,762.7863679999791,3.0,0.0,part_2,go,500.0,550.0,1.0,,,,,,,,,magenta,cross
0.0,2.0,2.0,0.0,5.0,5.0,734.5286400000077,3.0,0.0,part_2,go,500.0,550.0,1.0,,,,,,,,,blue,flipped triangle
0.0,2.0,2.0,0.0,5.0,5.0,522.4351169999863,3.0,0.0,part_2,go,500.0,550.0,1.0,,,,,,,,,blue,flipped triangle
0.0,8.0,4.0,1.0,6.0,6.0,534.7340090002035,3.0,0.0,part_2,stop,500.0,550.0,3.0,,,,,,,,,magenta,cross
0.0,3.0,3.0,0.0,6.0,6.0,753.3768139996937,3.0,0.0,part_2,go,500.0,500.0,1.0,,,,,,,,,orange,I
0.0,2.0,2.0,0.0,6.0,6.0,610.4324359998827,3.0,0.0,part_2,go,500.0,500.0,1.0,,,,,,,,,blue,flipped triangle
0.0,7.0,3.0,1.0,6.0,0.0,0.0,3.0,0.0,part_2,stop,500.0,500.0,4.0,,,,,,,,,yellow,diamond
0.0,6.0,2.0,1.0,6.0,6.0,852.8005649995976,3.0,0.0,part_2,go,500.0,550.0,1.0,,,,,,,,,gray,square
0.0,4.0,4.0,0.0,6.0,6.0,714.9882479998269,3.0,0.0,part_2,go,500.0,550.0,1.0,,,,,,,,,cyan,triangle
0.0,1.0,1.0,0.0,5.0,5.0,545.7266769999478,3.0,0.0,part_2,go,500.0,550.0,1.0,,,,,,,,,white,circle
0.0,3.0,3.0,0.0,5.0,5.0,683.9568310006143,3.0,0.0,part_2,go,500.0,550.0,1.0,,,,,,,,,orange,I
0.0,8.0,4.0,1.0,5.0,0.0,0.0,3.0,0.0,part_2,stop,500.0,550.0,4.0,,,,,,,,,magenta,cross
0.0,8.0,4.0,1.0,5.0,5.0,609.0139329999147,3.0,0.0,part_2,stop,550.0,550.0,3.0,,,,,,,,,magenta,cross
0.0,1.0,1.0,0.0,5.0,5.0,495.8942189996378,3.0,0.0,part_2,go,500.0,550.0,1.0,,,,,,,,,white,circle
0.0,7.0,3.0,1.0,6.0,6.0,660.7752949994392,3.0,0.0,part_2,stop,500.0,550.0,3.0,,,,,,,,,yellow,diamond
0.0,6.0,2.0,1.0,5.0,5.0,640.6175900001472,3.0,0.0,part_2,stop,500.0,500.0,3.0,,,,,,,,,gray,square
0.0,4.0,4.0,0.0,5.0,5.0,820.3983759995026,3.0,0.0,part_2,go,450.0,500.0,1.0,,,,,,,,,cyan,triangle
0.0,2.0,2.0,0.0,5.0,5.0,766.4026219999869,3.0,0.0,part_2,go,450.0,500.0,1.0,,,,,,,,,blue,flipped triangle
0.0,3.0,3.0,0.0,6.0,6.0,655.7357400006367,3.0,0.0,part_2,go,450.0,500.0,1.0,,,,,,,,,orange,I
0.0,7.0,3.0,1.0,6.0,0.0,0.0,3.0,0.0,part_2,stop,450.0,500.0,4.0,,,,,,,,,yellow,diamond
0.0,4.0,4.0,0.0,5.0,5.0,701.9034749991988,3.0,0.0,part_2,go,450.0,550.0,1.0,,,,,,,,,cyan,triangle
0.0,4.0,4.0,0.0,6.0,6.0,755.4907089997869,3.0,0.0,part_2,go,450.0,550.0,1.0,,,,,,,,,cyan,triangle
0.0,2.0,2.0,0.0,6.0,6.0,658.6192860004303,3.0,0.0,part_2,go,450.0,550.0,1.0,,,,,,,,,blue,flipped triangle
0.0,1.0,1.0,0.0,5.0,5.0,624.8989289997553,3.0,0.0,part_2,go,450.0,550.0,1.0,,,,,,,,,white,circle
0.0,5.0,1.0,1.0,5.0,0.0,0.0,3.0,0.0,part_2,stop,450.0,550.0,4.0,,,,,,,,,green,hexagon
0.0,2.0,2.0,0.0,6.0,6.0,819.1068569994968,3.0,0.0,part_2,go,500.0,550.0,1.0,,,,,,,,,blue,flipped triangle
0.0,1.0,1.0,0.0,5.0,5.0,750.4270649997125,3.0,0.0,part_2,go,500.0,550.0,1.0,,,,,,,,,white,circle
0.0,8.0,4.0,1.0,5.0,0.0,0.0,3.0,0.0,part_2,stop,500.0,550.0,4.0,,,,,,,,,magenta,cross
0.0,7.0,3.0,1.0,5.0,5.0,1100.234096999884,3.0,0.0,part_2,go,550.0,550.0,1.0,,,,,,,,,yellow,diamond
0.0,6.0,2.0,1.0,6.0,0.0,0.0,3.0,0.0,part_2,stop,550.0,550.0,4.0,,,,,,,,,gray,square
0.0,3.0,3.0,0.0,6.0,6.0,1061.8417559999216,3.0,0.0,part_2,go,550.0,600.0,1.0,,,,,,,,,orange,I
0.0,6.0,2.0,1.0,5.0,5.0,898.3226689997537,3.0,0.0,part_2,go,550.0,600.0,1.0,,,,,,,,,gray,square
0.0,8.0,4.0,1.0,6.0,6.0,722.924592999334,3.0,0.0,part_2,go,550.0,600.0,1.0,,,,,,,,,magenta,cross
0.0,5.0,1.0,1.0,5.0,0.0,0.0,3.0,0.0,part_2,stop,550.0,600.0,4.0,,,,,,,,,green,hexagon
0.0,6.0,2.0,1.0,5.0,5.0,691.0695950000445,3.0,0.0,part_2,stop,600.0,600.0,3.0,,,,,,,,,gray,square
0.0,8.0,4.0,1.0,5.0,0.0,0.0,3.0,0.0,part_2,stop,550.0,600.0,4.0,,,,,,,,,magenta,cross
0.0,3.0,3.0,0.0,5.0,5.0,493.9274950002073,4.0,0.0,part_2,go,600.0,600.0,1.0,,,,,,,,,orange,I
0.0,1.0,1.0,0.0,6.0,6.0,332.1768019995943,4.0,0.0,part_2,go,600.0,600.0,1.0,,,,,,,,,white,circle
0.0,1.0,1.0,0.0,5.0,5.0,359.7987419998389,4.0,0.0,part_2,go,600.0,600.0,1.0,,,,,,,,,white,circle
0.0,1.0,1.0,0.0,6.0,6.0,261.1671670001669,4.0,0.0,part_2,go,600.0,600.0,1.0,,,,,,,,,white,circle
0.0,2.0,2.0,0.0,6.0,6.0,517.1849589996782,4.0,0.0,part_2,go,600.0,600.0,1.0,,,,,,,,,blue,flipped triangle
0.0,3.0,3.0,0.0,6.0,6.0,291.5649140004461,4.0,0.0,part_2,go,600.0,600.0,1.0,,,,,,,,,orange,I
0.0,3.0,3.0,0.0,6.0,6.0,317.0040630002404,4.0,0.0,part_2,go,600.0,600.0,1.0,,,,,,,,,orange,I
0.0,1.0,1.0,0.0,5.0,5.0,319.9067890000151,4.0,0.0,part_2,go,600.0,600.0,1.0,,,,,,,,,white,circle
0.0,8.0,4.0,1.0,5.0,5.0,416.503577000185,4.0,0.0,part_2,stop,600.0,600.0,3.0,,,,,,,,,magenta,cross
0.0,4.0,4.0,0.0,6.0,6.0,463.7600040005054,4.0,0.0,part_2,go,550.0,600.0,1.0,,,,,,,,,cyan,triangle
0.0,5.0,1.0,1.0,5.0,5.0,312.7980780000143,4.0,0.0,part_2,go,550.0,600.0,1.0,,,,,,,,,green,hexagon
0.0,3.0,3.0,0.0,5.0,5.0,315.1398820000395,4.0,0.0,part_2,go,550.0,600.0,1.0,,,,,,,,,orange,I
0.0,8.0,4.0,1.0,5.0,5.0,367.647988000499,4.0,0.0,part_2,stop,550.0,600.0,3.0,,,,,,,,,magenta,cross
0.0,8.0,4.0,1.0,5.0,5.0,595.120190999296,4.0,0.0,part_2,stop,500.0,600.0,3.0,,,,,,,,,magenta,cross
0.0,2.0,2.0,0.0,6.0,6.0,450.7959490001667,4.0,0.0,part_2,go,450.0,600.0,1.0,,,,,,,,,blue,flipped triangle
0.0,6.0,2.0,1.0,5.0,5.0,421.5440900006797,4.0,0.0,part_2,stop,450.0,600.0,3.0,,,,,,,,,gray,square
0.0,2.0,2.0,0.0,5.0,5.0,605.7858289996148,4.0,0.0,part_2,go,400.0,600.0,1.0,,,,,,,,,blue,flipped triangle
0.0,6.0,2.0,1.0,6.0,6.0,510.86055999985547,4.0,0.0,part_2,stop,400.0,600.0,3.0,,,,,,,,,gray,square
0.0,5.0,1.0,1.0,6.0,0.0,0.0,4.0,0.0,part_2,stop,400.0,550.0,4.0,,,,,,,,,green,hexagon
0.0,4.0,4.0,0.0,6.0,6.0,798.3806399997775,4.0,0.0,part_2,go,400.0,600.0,1.0,,,,,,,,,cyan,triangle
0.0,3.0,3.0,0.0,5.0,5.0,631.9394930005728,4.0,0.0,part_2,go,400.0,600.0,1.0,,,,,,,,,orange,I
0.0,3.0,3.0,0.0,6.0,6.0,521.0698109995064,4.0,0.0,part_2,go,400.0,600.0,1.0,,,,,,,,,orange,I
0.0,8.0,4.0,1.0,6.0,6.0,374.6867820000261,4.0,0.0,part_2,stop,400.0,600.0,3.0,,,,,,,,,magenta,cross
0.0,7.0,3.0,1.0,5.0,5.0,557.6517199997397,4.0,0.0,part_2,stop,400.0,550.0,3.0,,,,,,,,,yellow,diamond
0.0,5.0,1.0,1.0,5.0,5.0,515.5676949998451,4.0,0.0,part_2,stop,350.0,550.0,3.0,,,,,,,,,green,hexagon
0.0,1.0,1.0,0.0,5.0,5.0,584.4412189999275,4.0,0.0,part_2,go,300.0,550.0,1.0,,,,,,,,,white,circle
0.0,3.0,3.0,0.0,5.0,5.0,543.3700909998151,4.0,0.0,part_2,go,300.0,550.0,1.0,,,,,,,,,orange,I
0.0,4.0,4.0,0.0,5.0,5.0,321.8720439999742,4.0,0.0,part_2,go,300.0,550.0,1.0,,,,,,,,,cyan,triangle
0.0,7.0,3.0,1.0,6.0,6.0,393.5082359994339,4.0,0.0,part_2,stop,300.0,550.0,3.0,,,,,,,,,yellow,diamond
0.0,4.0,4.0,0.0,6.0,6.0,614.2097069996453,4.0,0.0,part_2,go,300.0,500.0,1.0,,,,,,,,,cyan,triangle
0.0,2.0,2.0,0.0,6.0,6.0,651.7970579998291,4.0,0.0,part_2,go,300.0,500.0,1.0,,,,,,,,,blue,flipped triangle
0.0,2.0,2.0,0.0,5.0,5.0,442.2589969999535,4.0,0.0,part_2,go,300.0,500.0,1.0,,,,,,,,,blue,flipped triangle
0.0,5.0,1.0,1.0,6.0,6.0,553.1048769998961,4.0,0.0,part_2,go,300.0,500.0,1.0,,,,,,,,,green,hexagon
0.0,6.0,2.0,1.0,6.0,6.0,474.7090809996734,4.0,0.0,part_2,stop,300.0,500.0,3.0,,,,,,,,,gray,square
0.0,2.0,2.0,0.0,5.0,5.0,552.4114130003,4.0,0.0,part_2,go,300.0,450.0,1.0,,,,,,,,,blue,flipped triangle
0.0,8.0,4.0,1.0,6.0,6.0,318.4363159998611,4.0,0.0,part_2,stop,300.0,450.0,3.0,,,,,,,,,magenta,cross
0.0,4.0,4.0,0.0,6.0,6.0,571.0854879998806,5.0,0.0,part_2,go,300.0,400.0,1.0,,,,,,,,,cyan,triangle
0.0,4.0,4.0,0.0,5.0,5.0,371.9516649998695,5.0,0.0,part_2,go,300.0,400.0,1.0,,,,,,,,,cyan,triangle
0.0,3.0,3.0,0.0,6.0,6.0,424.0876490002847,5.0,0.0,part_2,go,300.0,400.0,1.0,,,,,,,,,orange,I
0.0,5.0,1.0,1.0,5.0,5.0,339.1912879997107,5.0,0.0,part_2,stop,300.0,400.0,3.0,,,,,,,,,green,hexagon
0.0,7.0,3.0,1.0,6.0,6.0,483.5992839998653,5.0,0.0,part_2,go,250.0,400.0,1.0,,,,,,,,,yellow,diamond
0.0,8.0,4.0,1.0,6.0,6.0,449.9022340005467,5.0,0.0,part_2,go,250.0,400.0,1.0,,,,,,,,,magenta,cross
0.0,4.0,4.0,0.0,6.0,6.0,399.7658329999467,5.0,0.0,part_2,go,250.0,400.0,1.0,,,,,,,,,cyan,triangle
0.0,2.0,2.0,0.0,5.0,5.0,514.709555999616,5.0,0.0,part_2,go,250.0,400.0,1.0,,,,,,,,,blue,flipped triangle
0.0,5.0,1.0,1.0,6.0,6.0,439.0357499996753,5.0,0.0,part_2,stop,250.0,400.0,3.0,,,,,,,,,green,hexagon
0.0,6.0,2.0,1.0,6.0,0.0,0.0,5.0,0.0,part_2,stop,250.0,350.0,4.0,,,,,,,,,gray,square
0.0,2.0,2.0,0.0,6.0,6.0,566.5352910000365,5.0,0.0,part_2,go,250.0,400.0,1.0,,,,,,,,,blue,flipped triangle
0.0,3.0,3.0,0.0,5.0,5.0,536.95122299996,5.0,0.0,part_2,go,250.0,400.0,1.0,,,,,,,,,orange,I
0.0,7.0,3.0,1.0,6.0,6.0,360.8011420001276,5.0,0.0,part_2,stop,250.0,400.0,3.0,,,,,,,,,yellow,diamond
0.0,5.0,1.0,1.0,6.0,6.0,735.3397449996919,5.0,0.0,part_2,go,250.0,350.0,1.0,,,,,,,,,green,hexagon
0.0,8.0,4.0,1.0,6.0,0.0,0.0,5.0,0.0,part_2,stop,250.0,350.0,4.0,,,,,,,,,magenta,cross
0.0,3.0,3.0,0.0,6.0,6.0,467.0048449997921,5.0,0.0,part_2,go,250.0,400.0,1.0,,,,,,,,,orange,I
0.0,1.0,1.0,0.0,5.0,5.0,578.0246530002842,5.0,0.0,part_2,go,250.0,400.0,1.0,,,,,,,,,white,circle
0.0,4.0,4.0,0.0,6.0,6.0,552.760360999855,5.0,0.0,part_2,go,250.0,400.0,1.0,,,,,,,,,cyan,triangle
0.0,6.0,2.0,1.0,5.0,5.0,390.2699139998731,5.0,0.0,part_2,go,250.0,400.0,1.0,,,,,,,,,gray,square
0.0,7.0,3.0,1.0,6.0,6.0,288.2010830007857,5.0,0.0,part_2,go,250.0,400.0,1.0,,,,,,,,,yellow,diamond
0.0,1.0,1.0,0.0,5.0,5.0,374.5621680000113,5.0,0.0,part_2,go,250.0,400.0,1.0,,,,,,,,,white,circle
0.0,8.0,4.0,1.0,6.0,6.0,333.0585829999108,5.0,0.0,part_2,stop,250.0,400.0,3.0,,,,,,,,,magenta,cross
0.0,2.0,2.0,0.0,5.0,5.0,521.05501799997,5.0,0.0,part_2,go,250.0,350.0,1.0,,,,,,,,,blue,flipped triangle
0.0,4.0,4.0,0.0,6.0,6.0,464.5305379999627,5.0,0.0,part_2,go,250.0,350.0,1.0,,,,,,,,,cyan,triangle
0.0,2.0,2.0,0.0,5.0,5.0,323.4066719996917,5.0,0.0,part_2,go,250.0,350.0,1.0,,,,,,,,,blue,flipped triangle
0.0,3.0,3.0,0.0,6.0,6.0,419.6350510001139,5.0,0.0,part_2,go,250.0,350.0,1.0,,,,,,,,,orange,I
0.0,8.0,4.0,1.0,6.0,6.0,412.524721000409,5.0,0.0,part_2,go,250.0,350.0,1.0,,,,,,,,,magenta,cross
0.0,8.0,4.0,1.0,6.0,6.0,391.1544109996612,5.0,0.0,part_2,stop,250.0,350.0,3.0,,,,,,,,,magenta,cross
0.0,1.0,1.0,0.0,6.0,6.0,507.41681900035474,5.0,0.0,part_2,go,250.0,300.0,1.0,,,,,,,,,white,circle
0.0,5.0,1.0,1.0,6.0,6.0,419.1637040003115,5.0,0.0,part_2,stop,250.0,300.0,3.0,,,,,,,,,green,hexagon
0.0,3.0,3.0,0.0,5.0,5.0,569.096150000405,5.0,0.0,part_2,go,250.0,250.0,1.0,,,,,,,,,orange,I
0.0,4.0,4.0,0.0,5.0,5.0,480.7650009997815,5.0,0.0,part_2,go,250.0,250.0,1.0,,,,,,,,,cyan,triangle
0.0,4.0,4.0,0.0,6.0,6.0,515.30643300066,5.0,0.0,part_2,go,250.0,250.0,1.0,,,,,,,,,cyan,triangle
0.0,1.0,1.0,0.0,6.0,6.0,455.9828050005308,5.0,0.0,part_2,go,250.0,250.0,1.0,,,,,,,,,white,circle
0.0,1.0,1.0,0.0,6.0,6.0,491.5818789995683,5.0,0.0,part_2,go,250.0,250.0,1.0,,,,,,,,,white,circle
0.0,6.0,2.0,1.0,6.0,0.0,0.0,5.0,0.0,part_2,stop,250.0,250.0,4.0,,,,,,,,,gray,square
0.0,3.0,3.0,0.0,5.0,5.0,420.8847629997763,6.0,0.0,part_2,go,250.0,300.0,1.0,,,,,,,,,orange,I
0.0,1.0,1.0,0.0,5.0,5.0,455.6089229999998,6.0,0.0,part_2,go,250.0,300.0,1.0,,,,,,,,,white,circle
0.0,2.0,2.0,0.0,6.0,6.0,390.7145170005606,6.0,0.0,part_2,go,250.0,300.0,1.0,,,,,,,,,blue,flipped triangle
0.0,1.0,1.0,0.0,6.0,6.0,314.6876239998164,6.0,0.0,part_2,go,250.0,300.0,1.0,,,,,,,,,white,circle
0.0,6.0,2.0,1.0,6.0,6.0,339.4571170001654,6.0,0.0,part_2,stop,250.0,300.0,3.0,,,,,,,,,gray,square
0.0,5.0,1.0,1.0,5.0,0.0,0.0,6.0,0.0,part_2,stop,250.0,250.0,4.0,,,,,,,,,green,hexagon
0.0,6.0,2.0,1.0,6.0,6.0,491.8194800002311,6.0,0.0,part_2,go,300.0,250.0,1.0,,,,,,,,,gray,square
0.0,7.0,3.0,1.0,5.0,5.0,536.2187219998304,6.0,0.0,part_2,go,300.0,250.0,1.0,,,,,,,,,yellow,diamond
0.0,4.0,4.0,0.0,5.0,5.0,546.0022309998749,6.0,0.0,part_2,go,300.0,250.0,1.0,,,,,,,,,cyan,triangle
0.0,3.0,3.0,0.0,5.0,5.0,489.2852530001619,6.0,0.0,part_2,go,300.0,250.0,1.0,,,,,,,,,orange,I
0.0,8.0,4.0,1.0,5.0,5.0,340.8457059995271,6.0,0.0,part_2,stop,300.0,250.0,3.0,,,,,,,,,magenta,cross
0.0,5.0,1.0,1.0,5.0,0.0,0.0,6.0,0.0,part_2,stop,250.0,250.0,4.0,,,,,,,,,green,hexagon
0.0,3.0,3.0,0.0,5.0,5.0,594.141863999539,6.0,0.0,part_2,go,300.0,250.0,1.0,,,,,,,,,orange,I
0.0,3.0,3.0,0.0,6.0,6.0,357.6219669994316,6.0,0.0,part_2,go,300.0,250.0,1.0,,,,,,,,,orange,I
0.0,2.0,2.0,0.0,6.0,6.0,532.1471089991974,6.0,0.0,part_2,go,300.0,250.0,1.0,,,,,,,,,blue,flipped triangle
0.0,2.0,2.0,0.0,6.0,6.0,371.5870780006298,6.0,0.0,part_2,go,300.0,250.0,1.0,,,,,,,,,blue,flipped triangle
0.0,7.0,3.0,1.0,5.0,5.0,365.176467999845,6.0,0.0,part_2,stop,300.0,250.0,3.0,,,,,,,,,yellow,diamond
0.0,6.0,2.0,1.0,5.0,0.0,0.0,6.0,0.0,part_2,stop,250.0,250.0,4.0,,,,,,,,,gray,square
0.0,1.0,1.0,0.0,6.0,6.0,517.6122009997925,6.0,0.0,part_2,go,300.0,250.0,1.0,,,,,,,,,white,circle
0.0,6.0,2.0,1.0,6.0,0.0,0.0,6.0,0.0,part_2,stop,300.0,250.0,4.0,,,,,,,,,gray,square
0.0,7.0,3.0,1.0,5.0,5.0,453.6081299993384,6.0,0.0,part_2,stop,300.0,300.0,3.0,,,,,,,,,yellow,diamond
0.0,4.0,4.0,0.0,6.0,6.0,656.2721299997065,6.0,0.0,part_2,go,250.0,300.0,1.0,,,,,,,,,cyan,triangle
0.0,8.0,4.0,1.0,5.0,0.0,0.0,6.0,0.0,part_2,stop,250.0,300.0,4.0,,,,,,,,,magenta,cross
0.0,8.0,4.0,1.0,5.0,0.0,0.0,6.0,0.0,part_2,stop,300.0,300.0,4.0,,,,,,,,,magenta,cross
0.0,5.0,1.0,1.0,6.0,6.0,512.7457190001223,6.0,0.0,part_2,go,350.0,300.0,1.0,,,,,,,,,green,hexagon
0.0,4.0,4.0,0.0,5.0,5.0,880.5925290007508,6.0,0.0,part_2,go,350.0,300.0,1.0,,,,,,,,,cyan,triangle
0.0,4.0,4.0,0.0,6.0,6.0,579.7770109993508,6.0,0.0,part_2,go,350.0,300.0,1.0,,,,,,,,,cyan,triangle
0.0,4.0,4.0,0.0,6.0,6.0,429.4124230000307,6.0,0.0,part_2,go,350.0,300.0,1.0,,,,,,,,,cyan,triangle
0.0,7.0,3.0,1.0,6.0,6.0,358.5438760001125,6.0,0.0,part_2,stop,350.0,300.0,3.0,,,,,,,,,yellow,diamond
0.0,2.0,2.0,0.0,6.0,6.0,492.5075080000169,6.0,0.0,part_2,go,350.0,250.0,1.0,,,,,,,,,blue,flipped triangle
0.0,1.0,1.0,0.0,6.0,6.0,351.803359000769,6.0,0.0,part_2,go,350.0,250.0,1.0,,,,,,,,,white,circle
0.0,1.0,1.0,0.0,5.0,5.0,453.9112080001359,6.0,0.0,part_2,go,350.0,250.0,1.0,,,,,,,,,white,circle
0.0,6.0,2.0,1.0,6.0,6.0,535.9784320007748,6.0,0.0,part_2,stop,350.0,250.0,3.0,,,,,,,,,gray,square
0.0,5.0,1.0,1.0,5.0,0.0,0.0,6.0,0.0,part_2,stop,350.0,200.0,4.0,,,,,,,,,green,hexagon
0.0,4.0,4.0,0.0,5.0,5.0,539.0618960000211,6.0,0.0,part_2,go,400.0,200.0,1.0,,,,,,,,,cyan,triangle
0.0,2.0,2.0,0.0,5.0,5.0,569.9213960006091,6.0,0.0,part_2,go,400.0,200.0,1.0,,,,,,,,,blue,flipped triangle
0.0,1.0,1.0,0.0,6.0,6.0,456.5631779996693,7.0,0.0,part_2,go,400.0,200.0,1.0,,,,,,,,,white,circle
0.0,1.0,1.0,0.0,5.0,5.0,405.7115799996609,7.0,0.0,part_2,go,400.0,200.0,1.0,,,,,,,,,white,circle
0.0,2.0,2.0,0.0,5.0,5.0,492.7764359999855,7.0,0.0,part_2,go,400.0,200.0,1.0,,,,,,,,,blue,flipped triangle
0.0,4.0,4.0,0.0,5.0,5.0,467.4236430000746,7.0,0.0,part_2,go,400.0,200.0,1.0,,,,,,,,,cyan,triangle
0.0,8.0,4.0,1.0,6.0,6.0,491.4002779996735,7.0,0.0,part_2,go,400.0,200.0,1.0,,,,,,,,,magenta,cross
0.0,3.0,3.0,0.0,5.0,5.0,386.6632210001626,7.0,0.0,part_2,go,400.0,200.0,1.0,,,,,,,,,orange,I
0.0,6.0,2.0,1.0,5.0,5.0,564.5708969996122,7.0,0.0,part_2,stop,400.0,200.0,3.0,,,,,,,,,gray,square
0.0,6.0,2.0,1.0,5.0,0.0,0.0,7.0,0.0,part_2,stop,350.0,200.0,4.0,,,,,,,,,gray,square
0.0,4.0,4.0,0.0,5.0,5.0,686.0436380002284,7.0,0.0,part_2,go,400.0,200.0,1.0,,,,,,,,,cyan,triangle
0.0,1.0,1.0,0.0,6.0,6.0,572.0111860000543,7.0,0.0,part_2,go,400.0,200.0,1.0,,,,,,,,,white,circle
0.0,5.0,1.0,1.0,5.0,0.0,0.0,7.0,0.0,part_2,stop,400.0,200.0,4.0,,,,,,,,,green,hexagon
0.0,5.0,1.0,1.0,6.0,0.0,0.0,7.0,0.0,part_2,stop,450.0,200.0,4.0,,,,,,,,,green,hexagon
0.0,8.0,4.0,1.0,6.0,6.0,774.1338490004637,7.0,0.0,part_2,go,450.0,250.0,1.0,,,,,,,,,magenta,cross
0.0,7.0,3.0,1.0,6.0,0.0,0.0,7.0,0.0,part_2,stop,450.0,250.0,4.0,,,,,,,,,yellow,diamond
0.0,1.0,1.0,0.0,5.0,5.0,385.6895089993486,7.0,0.0,part_2,go,450.0,300.0,1.0,,,,,,,,,white,circle
0.0,8.0,4.0,1.0,5.0,5.0,410.2974110001014,7.0,0.0,part_2,stop,450.0,300.0,3.0,,,,,,,,,magenta,cross
0.0,7.0,3.0,1.0,5.0,5.0,524.193672000365,7.0,0.0,part_2,stop,400.0,300.0,3.0,,,,,,,,,yellow,diamond
0.0,4.0,4.0,0.0,5.0,5.0,562.2672190002049,7.0,0.0,part_2,go,350.0,300.0,1.0,,,,,,,,,cyan,triangle
0.0,5.0,1.0,1.0,5.0,5.0,471.2392550000004,7.0,0.0,part_2,stop,350.0,300.0,3.0,,,,,,,,,green,hexagon
0.0,3.0,3.0,0.0,5.0,5.0,584.886792999896,7.0,0.0,part_2,go,300.0,300.0,1.0,,,,,,,,,orange,I
0.0,4.0,4.0,0.0,5.0,5.0,331.0536879998835,7.0,0.0,part_2,go,300.0,300.0,1.0,,,,,,,,,cyan,triangle
0.0,8.0,4.0,1.0,6.0,6.0,540.1168500002314,7.0,0.0,part_2,go,300.0,300.0,1.0,,,,,,,,,magenta,cross
0.0,8.0,4.0,1.0,6.0,0.0,0.0,7.0,0.0,part_2,stop,300.0,300.0,4.0,,,,,,,,,magenta,cross
0.0,6.0,2.0,1.0,5.0,5.0,568.4374399997978,7.0,0.0,part_2,go,300.0,350.0,1.0,,,,,,,,,gray,square
0.0,5.0,1.0,1.0,6.0,6.0,681.7893880006523,7.0,0.0,part_2,go,300.0,350.0,1.0,,,,,,,,,green,hexagon
0.0,2.0,2.0,0.0,6.0,6.0,581.655932999638,7.0,0.0,part_2,go,300.0,350.0,1.0,,,,,,,,,blue,flipped triangle
0.0,7.0,3.0,1.0,6.0,6.0,492.8860690006331,7.0,0.0,part_2,stop,300.0,350.0,3.0,,,,,,,,,yellow,diamond
0.0,7.0,3.0,1.0,6.0,0.0,0.0,7.0,0.0,part_2,stop,300.0,300.0,4.0,,,,,,,,,yellow,diamond
0.0,2.0,2.0,0.0,5.0,5.0,630.3963549999025,7.0,0.0,part_2,go,300.0,350.0,1.0,,,,,,,,,blue,flipped triangle
0.0,7.0,3.0,1.0,5.0,0.0,0.0,7.0,0.0,part_2,stop,300.0,350.0,4.0,,,,,,,,,yellow,diamond
0.0,4.0,4.0,0.0,5.0,5.0,639.5909689999826,7.0,0.0,part_2,go,350.0,350.0,1.0,,,,,,,,,cyan,triangle
0.0,8.0,4.0,1.0,5.0,0.0,0.0,7.0,0.0,part_2,stop,350.0,350.0,4.0,,,,,,,,,magenta,cross
0.0,3.0,3.0,0.0,6.0,6.0,620.3517809999539,7.0,0.0,part_2,go,400.0,350.0,1.0,,,,,,,,,orange,I
0.0,5.0,1.0,1.0,6.0,0.0,0.0,7.0,0.0,part_2,stop,400.0,350.0,4.0,,,,,,,,,green,hexagon
0.0,1.0,1.0,0.0,5.0,5.0,558.9603929993245,7.0,0.0,part_2,go,400.0,400.0,1.0,,,,,,,,,white,circle
0.0,7.0,3.0,1.0,5.0,5.0,446.3082010006474,7.0,0.0,part_2,go,400.0,400.0,1.0,,,,,,,,,yellow,diamond
0.0,7.0,3.0,1.0,5.0,5.0,464.2290770007093,8.0,0.0,part_2,stop,400.0,400.0,3.0,,,,,,,,,yellow,diamond
0.0,1.0,1.0,0.0,6.0,6.0,503.8944839998294,8.0,0.0,part_2,go,350.0,400.0,1.0,,,,,,,,,white,circle
0.0,8.0,4.0,1.0,5.0,5.0,331.6084770003726,8.0,0.0,part_2,go,350.0,400.0,1.0,,,,,,,,,magenta,cross
0.0,1.0,1.0,0.0,6.0,6.0,353.4707620001427,8.0,0.0,part_2,go,350.0,400.0,1.0,,,,,,,,,white,circle
0.0,6.0,2.0,1.0,6.0,6.0,360.327813999902,8.0,0.0,part_2,go,350.0,400.0,1.0,,,,,,,,,gray,square
0.0,3.0,3.0,0.0,6.0,6.0,545.9549909992347,8.0,0.0,part_2,go,350.0,400.0,1.0,,,,,,,,,orange,I
0.0,2.0,2.0,0.0,6.0,6.0,327.4060060002739,8.0,0.0,part_2,go,350.0,400.0,1.0,,,,,,,,,blue,flipped triangle
0.0,4.0,4.0,0.0,6.0,6.0,370.2234660004251,8.0,0.0,part_2,go,350.0,400.0,1.0,,,,,,,,,cyan,triangle
0.0,7.0,3.0,1.0,5.0,5.0,435.3908659995795,8.0,0.0,part_2,stop,350.0,400.0,3.0,,,,,,,,,yellow,diamond
0.0,6.0,2.0,1.0,6.0,6.0,492.5859139993918,8.0,0.0,part_2,stop,300.0,400.0,3.0,,,,,,,,,gray,square
0.0,1.0,1.0,0.0,6.0,6.0,489.348322999831,8.0,0.0,part_2,go,300.0,350.0,1.0,,,,,,,,,white,circle
0.0,2.0,2.0,0.0,5.0,5.0,504.2040819998874,8.0,0.0,part_2,go,300.0,350.0,1.0,,,,,,,,,blue,flipped triangle
0.0,4.0,4.0,0.0,6.0,6.0,397.4759139991874,8.0,0.0,part_2,go,300.0,350.0,1.0,,,,,,,,,cyan,triangle
0.0,6.0,2.0,1.0,5.0,5.0,360.5696100003115,8.0,0.0,part_2,stop,300.0,350.0,3.0,,,,,,,,,gray,square
0.0,1.0,1.0,0.0,6.0,6.0,565.5579650001528,8.0,0.0,part_2,go,250.0,350.0,1.0,,,,,,,,,white,circle
0.0,5.0,1.0,1.0,5.0,0.0,0.0,8.0,0.0,part_2,stop,250.0,350.0,4.0,,,,,,,,,green,hexagon
0.0,8.0,4.0,1.0,5.0,5.0,485.1185280003847,8.0,0.0,part_2,go,300.0,350.0,1.0,,,,,,,,,magenta,cross
0.0,8.0,4.0,1.0,5.0,0.0,0.0,8.0,0.0,part_2,stop,300.0,350.0,4.0,,,,,,,,,magenta,cross
0.0,4.0,4.0,0.0,6.0,6.0,523.9643519998936,8.0,0.0,part_2,go,350.0,350.0,1.0,,,,,,,,,cyan,triangle
0.0,7.0,3.0,1.0,6.0,6.0,519.8106010002448,8.0,0.0,part_2,stop,350.0,350.0,3.0,,,,,,,,,yellow,diamond
0.0,4.0,4.0,0.0,5.0,5.0,434.7027459998571,8.0,0.0,part_2,go,350.0,300.0,1.0,,,,,,,,,cyan,triangle
0.0,7.0,3.0,1.0,6.0,6.0,452.8761699993993,8.0,0.0,part_2,stop,350.0,300.0,3.0,,,,,,,,,yellow,diamond
0.0,5.0,1.0,1.0,5.0,0.0,0.0,8.0,0.0,part_2,stop,350.0,250.0,4.0,,,,,,,,,green,hexagon
0.0,7.0,3.0,1.0,6.0,6.0,291.246153999964,8.0,0.0,part_2,stop,400.0,250.0,3.0,,,,,,,,,yellow,diamond
0.0,4.0,4.0,0.0,6.0,6.0,391.3090010000815,8.0,0.0,part_2,go,400.0,200.0,1.0,,,,,,,,,cyan,triangle
0.0,7.0,3.0,1.0,5.0,5.0,454.6048110005358,8.0,0.0,part_2,stop,400.0,200.0,3.0,,,,,,,,,yellow,diamond
0.0,4.0,4.0,0.0,5.0,5.0,481.6082480001569,8.0,0.0,part_2,go,350.0,200.0,1.0,,,,,,,,,cyan,triangle
0.0,5.0,1.0,1.0,5.0,5.0,427.0100909998291,8.0,0.0,part_2,stop,350.0,200.0,3.0,,,,,,,,,green,hexagon
0.0,3.0,3.0,0.0,5.0,5.0,486.2221769999451,8.0,0.0,part_2,go,300.0,200.0,1.0,,,,,,,,,orange,I
0.0,5.0,1.0,1.0,5.0,0.0,0.0,8.0,0.0,part_2,stop,300.0,200.0,4.0,,,,,,,,,green,hexagon
0.0,5.0,1.0,1.0,6.0,0.0,0.0,8.0,0.0,part_2,stop,350.0,200.0,4.0,,,,,,,,,green,hexagon
0.0,1.0,1.0,0.0,5.0,5.0,538.9735520002432,8.0,0.0,part_2,go,350.0,250.0,1.0,,,,,,,,,white,circle
0.0,5.0,1.0,1.0,6.0,0.0,0.0,8.0,0.0,part_2,stop,350.0,250.0,4.0,,,,,,,,,green,hexagon
0.0,3.0,3.0,0.0,6.0,6.0,473.7088889996812,8.0,0.0,part_2,go,350.0,300.0,1.0,,,,,,,,,orange,I
0.0,2.0,2.0,0.0,5.0,5.0,363.2433700004185,8.0,0.0,part_2,go,350.0,300.0,1.0,,,,,,,,,blue,flipped triangle
0.0,6.0,2.0,1.0,6.0,6.0,340.4270990004079,8.0,0.0,part_2,stop,350.0,300.0,3.0,,,,,,,,,gray,square
0.0,2.0,2.0,0.0,7.0,2.0,745.7427010003812,1.0,2.0,part_3,go,0.0,0.0,0.0,132.0,3.0,88.0,132.0,44.0,264.0,220.0,176.0,blue,flipped triangle
0.0,1.0,1.0,0.0,7.0,3.0,2728.238173000136,1.0,1.0,part_3,go,0.0,0.0,0.0,195.0,5.0,39.0,117.0,195.0,78.0,156.0,234.0,white,circle
0.0,2.0,2.0,0.0,7.0,2.0,2429.944900999544,1.0,1.0,part_3,go,0.0,0.0,0.0,324.0,6.0,216.0,324.0,108.0,54.0,270.0,162.0,blue,flipped triangle
0.0,3.0,3.0,0.0,7.0,4.0,2648.3076439999422,1.0,1.0,part_3,go,0.0,0.0,0.0,220.0,5.0,88.0,44.0,176.0,220.0,132.0,264.0,orange,I
0.0,5.0,1.0,1.0,7.0,6.0,2486.664383000061,1.0,1.0,part_3,go,0.0,0.0,0.0,176.0,4.0,132.0,220.0,88.0,44.0,264.0,176.0,green,hexagon
0.0,6.0,2.0,1.0,7.0,2.0,2963.2759520000036,1.0,1.0,part_3,go,0.0,0.0,0.0,117.0,3.0,156.0,117.0,78.0,39.0,234.0,195.0,gray,square
0.0,4.0,4.0,0.0,7.0,4.0,2338.2137440003135,1.0,1.0,part_3,go,0.0,0.0,0.0,102.0,3.0,34.0,170.0,68.0,102.0,136.0,204.0,cyan,triangle
0.0,3.0,3.0,0.0,7.0,3.0,4107.874782000181,1.0,1.0,part_3,go,0.0,0.0,0.0,196.0,4.0,245.0,294.0,196.0,49.0,98.0,147.0,orange,I
0.0,5.0,1.0,1.0,7.0,3.0,2181.3738490000105,1.0,1.0,part_3,go,0.0,0.0,0.0,162.0,3.0,270.0,54.0,162.0,324.0,216.0,108.0,green,hexagon
0.0,1.0,1.0,0.0,7.0,5.0,1614.5528389997708,1.0,1.0,part_3,go,0.0,0.0,0.0,136.0,4.0,102.0,68.0,170.0,34.0,136.0,204.0,white,circle
0.0,6.0,2.0,1.0,7.0,6.0,2394.628306999948,1.0,1.0,part_3,go,0.0,0.0,0.0,98.0,2.0,196.0,245.0,294.0,49.0,147.0,98.0,gray,square
0.0,3.0,3.0,0.0,7.0,2.0,2340.2617619995,1.0,1.0,part_3,go,0.0,0.0,0.0,294.0,6.0,196.0,294.0,49.0,245.0,147.0,98.0,orange,I
0.0,8.0,4.0,1.0,7.0,5.0,2536.8955659996573,1.0,1.0,part_3,go,0.0,0.0,0.0,195.0,5.0,117.0,39.0,234.0,78.0,195.0,156.0,magenta,cross
0.0,4.0,4.0,0.0,7.0,3.0,2736.400056000093,1.0,1.0,part_3,go,0.0,0.0,0.0,264.0,6.0,44.0,220.0,264.0,132.0,176.0,88.0,cyan,triangle
0.0,6.0,2.0,1.0,7.0,5.0,2845.022192000215,1.0,1.0,part_3,go,0.0,0.0,0.0,102.0,3.0,136.0,170.0,68.0,204.0,102.0,34.0,gray,square
0.0,5.0,1.0,1.0,7.0,4.0,2284.4569890003186,1.0,1.0,part_3,go,0.0,0.0,0.0,136.0,4.0,170.0,102.0,34.0,136.0,204.0,68.0,green,hexagon
0.0,3.0,3.0,0.0,7.0,3.0,1729.4328489997497,1.0,1.0,part_3,go,0.0,0.0,0.0,170.0,5.0,136.0,204.0,170.0,68.0,34.0,102.0,orange,I
0.0,4.0,4.0,0.0,7.0,2.0,1769.5157899997866,1.0,1.0,part_3,go,0.0,0.0,0.0,264.0,6.0,88.0,264.0,176.0,220.0,44.0,132.0,cyan,triangle
0.0,8.0,4.0,1.0,7.0,4.0,2421.6263759999492,1.0,1.0,part_3,go,0.0,0.0,0.0,196.0,4.0,147.0,49.0,98.0,196.0,294.0,245.0,magenta,cross
0.0,2.0,2.0,0.0,7.0,4.0,2158.1004429999666,1.0,1.0,part_3,go,0.0,0.0,0.0,136.0,4.0,204.0,102.0,68.0,136.0,170.0,34.0,blue,flipped triangle
0.0,3.0,3.0,0.0,7.0,4.0,856.1832620007408,2.0,1.0,part_3,go,0.0,0.0,0.0,264.0,6.0,220.0,88.0,176.0,264.0,132.0,44.0,orange,I
0.0,1.0,1.0,0.0,7.0,5.0,2026.88151700022,2.0,1.0,part_3,go,0.0,0.0,0.0,108.0,2.0,216.0,270.0,162.0,324.0,108.0,54.0,white,circle
0.0,6.0,2.0,1.0,7.0,3.0,1179.4289260005826,2.0,1.0,part_3,go,0.0,0.0,0.0,147.0,3.0,98.0,49.0,147.0,196.0,294.0,245.0,gray,square
0.0,7.0,3.0,1.0,7.0,5.0,1217.5174230005723,2.0,1.0,part_3,go,0.0,0.0,0.0,162.0,3.0,324.0,270.0,54.0,108.0,162.0,216.0,yellow,diamond
0.0,8.0,4.0,1.0,7.0,6.0,1642.561100000421,2.0,1.0,part_3,go,0.0,0.0,0.0,234.0,6.0,156.0,39.0,117.0,78.0,195.0,234.0,magenta,cross
0.0,2.0,2.0,0.0,7.0,3.0,1112.5497590001032,2.0,1.0,part_3,go,0.0,0.0,0.0,117.0,3.0,39.0,234.0,117.0,78.0,195.0,156.0,blue,flipped triangle
0.0,7.0,3.0,1.0,7.0,5.0,1715.7241739996607,2.0,1.0,part_3,go,0.0,0.0,0.0,39.0,1.0,234.0,195.0,117.0,156.0,39.0,78.0,yellow,diamond
0.0,3.0,3.0,0.0,7.0,5.0,1463.4930319998602,2.0,1.0,part_3,go,0.0,0.0,0.0,136.0,4.0,34.0,204.0,102.0,68.0,136.0,170.0,orange,I
0.0,5.0,1.0,1.0,7.0,3.0,1144.22171500064,2.0,1.0,part_3,go,0.0,0.0,0.0,108.0,2.0,324.0,270.0,108.0,54.0,216.0,162.0,green,hexagon
0.0,6.0,2.0,1.0,7.0,2.0,2205.9367920001023,2.0,1.0,part_3,go,0.0,0.0,0.0,162.0,3.0,324.0,162.0,270.0,54.0,216.0,108.0,gray,square
0.0,4.0,4.0,0.0,7.0,2.0,2137.598582999999,2.0,1.0,part_3,go,0.0,0.0,0.0,324.0,6.0,108.0,324.0,54.0,162.0,216.0,270.0,cyan,triangle
0.0,5.0,1.0,1.0,7.0,3.0,1184.5880099999704,2.0,1.0,part_3,go,0.0,0.0,0.0,196.0,4.0,294.0,49.0,196.0,245.0,98.0,147.0,green,hexagon
0.0,7.0,3.0,1.0,7.0,6.0,535.3529099993466,2.0,1.0,part_3,go,0.0,0.0,0.0,176.0,4.0,44.0,88.0,132.0,220.0,264.0,176.0,yellow,diamond
0.0,7.0,3.0,1.0,7.0,4.0,949.5339730001432,2.0,1.0,part_3,go,0.0,0.0,0.0,88.0,2.0,220.0,264.0,132.0,88.0,44.0,176.0,yellow,diamond
0.0,2.0,2.0,0.0,7.0,1.0,1968.430879999687,2.0,1.0,part_3,go,0.0,0.0,0.0,195.0,5.0,195.0,234.0,39.0,78.0,156.0,117.0,blue,flipped triangle
0.0,8.0,4.0,1.0,7.0,4.0,1565.560419000576,2.0,1.0,part_3,go,0.0,0.0,0.0,264.0,6.0,220.0,176.0,44.0,264.0,132.0,88.0,magenta,cross
0.0,6.0,2.0,1.0,7.0,5.0,679.9025559994334,2.0,1.0,part_3,go,0.0,0.0,0.0,117.0,3.0,156.0,39.0,195.0,234.0,117.0,78.0,gray,square
0.0,4.0,4.0,0.0,7.0,3.0,1844.740954000372,2.0,1.0,part_3,go,0.0,0.0,0.0,170.0,5.0,204.0,102.0,170.0,136.0,68.0,34.0,cyan,triangle
0.0,3.0,3.0,0.0,7.0,5.0,1609.9494149993916,2.0,1.0,part_3,go,0.0,0.0,0.0,117.0,3.0,39.0,78.0,234.0,195.0,117.0,156.0,orange,I
0.0,1.0,1.0,0.0,7.0,5.0,791.7756860006193,2.0,1.0,part_3,go,0.0,0.0,0.0,294.0,6.0,245.0,49.0,196.0,147.0,294.0,98.0,white,circle
0.0,6.0,2.0,1.0,7.0,4.0,1315.9102970003005,3.0,1.0,part_3,go,0.0,0.0,0.0,162.0,3.0,324.0,108.0,216.0,162.0,54.0,270.0,gray,square
0.0,2.0,2.0,0.0,7.0,3.0,486.1498019999999,3.0,1.0,part_3,go,0.0,0.0,0.0,147.0,3.0,294.0,98.0,147.0,49.0,245.0,196.0,blue,flipped triangle
0.0,7.0,3.0,1.0,7.0,2.0,1103.3633549996011,3.0,1.0,part_3,go,0.0,0.0,0.0,98.0,2.0,245.0,98.0,196.0,147.0,294.0,49.0,yellow,diamond
0.0,2.0,2.0,0.0,7.0,5.0,316.6392030007046,3.0,1.0,part_3,go,0.0,0.0,0.0,270.0,5.0,324.0,108.0,54.0,216.0,270.0,162.0,blue,flipped triangle
0.0,8.0,4.0,1.0,7.0,1.0,3340.485316000013,3.0,1.0,part_3,go,0.0,0.0,0.0,204.0,6.0,204.0,68.0,34.0,170.0,136.0,102.0,magenta,cross
0.0,7.0,3.0,1.0,7.0,6.0,1831.537660000322,3.0,1.0,part_3,go,0.0,0.0,0.0,49.0,1.0,147.0,196.0,294.0,245.0,98.0,49.0,yellow,diamond
0.0,4.0,4.0,0.0,7.0,1.0,2935.702444000526,3.0,1.0,part_3,go,0.0,0.0,0.0,196.0,4.0,196.0,147.0,245.0,98.0,49.0,294.0,cyan,triangle
0.0,1.0,1.0,0.0,7.0,2.0,3154.1216099994926,3.0,1.0,part_3,go,0.0,0.0,0.0,195.0,5.0,156.0,195.0,234.0,117.0,78.0,39.0,white,circle
0.0,8.0,4.0,1.0,7.0,1.0,3044.6012829997926,3.0,1.0,part_3,go,0.0,0.0,0.0,108.0,2.0,108.0,324.0,270.0,54.0,216.0,162.0,magenta,cross
0.0,1.0,1.0,0.0,7.0,2.0,2584.395167999901,3.0,1.0,part_3,go,0.0,0.0,0.0,44.0,1.0,264.0,44.0,88.0,176.0,132.0,220.0,white,circle
0.0,2.0,2.0,0.0,7.0,4.0,1846.2982199998803,3.0,1.0,part_3,go,0.0,0.0,0.0,147.0,3.0,196.0,245.0,294.0,147.0,49.0,98.0,blue,flipped triangle
0.0,4.0,4.0,0.0,7.0,4.0,2730.7068529999015,3.0,1.0,part_3,go,0.0,0.0,0.0,156.0,4.0,39.0,117.0,234.0,156.0,195.0,78.0,cyan,triangle
0.0,5.0,1.0,1.0,7.0,5.0,1581.197415000133,3.0,1.0,part_3,go,0.0,0.0,0.0,195.0,5.0,39.0,156.0,78.0,234.0,195.0,117.0,green,hexagon
0.0,5.0,1.0,1.0,7.0,1.0,1403.5107009995045,3.0,1.0,part_3,go,0.0,0.0,0.0,204.0,6.0,204.0,34.0,136.0,68.0,170.0,102.0,green,hexagon
0.0,3.0,3.0,0.0,7.0,6.0,1411.894355000186,3.0,1.0,part_3,go,0.0,0.0,0.0,216.0,4.0,108.0,162.0,270.0,54.0,324.0,216.0,orange,I
0.0,6.0,2.0,1.0,7.0,4.0,1036.8033300001116,3.0,1.0,part_3,go,0.0,0.0,0.0,136.0,4.0,170.0,68.0,102.0,136.0,204.0,34.0,gray,square
0.0,7.0,3.0,1.0,7.0,6.0,1050.7214819999715,3.0,1.0,part_3,go,0.0,0.0,0.0,162.0,3.0,108.0,270.0,54.0,324.0,216.0,162.0,yellow,diamond
0.0,4.0,4.0,0.0,7.0,1.0,3135.79717399989,3.0,1.0,part_3,go,0.0,0.0,0.0,117.0,3.0,117.0,234.0,195.0,156.0,39.0,78.0,cyan,triangle
0.0,6.0,2.0,1.0,7.0,3.0,2866.584088000309,3.0,1.0,part_3,go,0.0,0.0,0.0,132.0,3.0,176.0,44.0,132.0,88.0,264.0,220.0,gray,square
0.0,2.0,2.0,0.0,7.0,6.0,1499.3169979998129,3.0,1.0,part_3,go,0.0,0.0,0.0,176.0,4.0,132.0,88.0,220.0,264.0,44.0,176.0,blue,flipped triangle
0.0,8.0,4.0,1.0,7.0,3.0,2093.9060520004205,4.0,1.0,part_3,go,0.0,0.0,0.0,216.0,4.0,108.0,54.0,216.0,162.0,270.0,324.0,magenta,cross
0.0,5.0,1.0,1.0,7.0,6.0,1906.8326550004713,4.0,1.0,part_3,go,0.0,0.0,0.0,220.0,5.0,88.0,132.0,264.0,176.0,44.0,220.0,green,hexagon
0.0,1.0,1.0,0.0,7.0,5.0,2762.363189000098,4.0,1.0,part_3,go,0.0,0.0,0.0,54.0,1.0,324.0,108.0,270.0,162.0,54.0,216.0,white,circle
0.0,3.0,3.0,0.0,7.0,6.0,2377.1690330004276,4.0,1.0,part_3,go,0.0,0.0,0.0,117.0,3.0,156.0,39.0,234.0,78.0,195.0,117.0,orange,I
0.0,5.0,1.0,1.0,7.0,5.0,2379.735000999972,4.0,1.0,part_3,go,0.0,0.0,0.0,147.0,3.0,294.0,98.0,196.0,49.0,147.0,245.0,green,hexagon
0.0,2.0,2.0,0.0,7.0,5.0,3343.901086000187,4.0,1.0,part_3,go,0.0,0.0,0.0,170.0,5.0,136.0,102.0,204.0,34.0,170.0,68.0,blue,flipped triangle
0.0,7.0,3.0,1.0,7.0,2.0,3666.609308000261,4.0,1.0,part_3,go,0.0,0.0,0.0,204.0,6.0,34.0,204.0,102.0,68.0,170.0,136.0,yellow,diamond
0.0,7.0,3.0,1.0,7.0,2.0,3699.8131730006207,4.0,1.0,part_3,go,0.0,0.0,0.0,78.0,2.0,117.0,78.0,156.0,39.0,195.0,234.0,yellow,diamond
0.0,7.0,3.0,1.0,7.0,4.0,3140.4103289996783,4.0,1.0,part_3,go,0.0,0.0,0.0,170.0,5.0,102.0,136.0,204.0,170.0,34.0,68.0,yellow,diamond
0.0,4.0,4.0,0.0,7.0,6.0,1715.9426939997502,4.0,1.0,part_3,go,0.0,0.0,0.0,162.0,3.0,324.0,108.0,270.0,54.0,216.0,162.0,cyan,triangle
0.0,8.0,4.0,1.0,7.0,2.0,2435.36206600038,4.0,1.0,part_3,go,0.0,0.0,0.0,220.0,5.0,176.0,220.0,264.0,132.0,44.0,88.0,magenta,cross
0.0,3.0,3.0,0.0,7.0,4.0,2427.2326340005748,4.0,1.0,part_3,go,0.0,0.0,0.0,162.0,3.0,108.0,54.0,270.0,162.0,324.0,216.0,orange,I
0.0,1.0,1.0,0.0,7.0,4.0,3816.9441480004025,4.0,1.0,part_3,go,0.0,0.0,0.0,88.0,2.0,264.0,220.0,176.0,88.0,44.0,132.0,white,circle
0.0,6.0,2.0,1.0,7.0,6.0,3091.7722660005893,4.0,1.0,part_3,go,0.0,0.0,0.0,44.0,1.0,176.0,88.0,264.0,132.0,220.0,44.0,gray,square
0.0,4.0,4.0,0.0,7.0,2.0,2291.230847999941,4.0,1.0,part_3,go,0.0,0.0,0.0,147.0,3.0,294.0,147.0,196.0,98.0,49.0,245.0,cyan,triangle
0.0,1.0,1.0,0.0,7.0,6.0,2430.632756000705,4.0,1.0,part_3,go,0.0,0.0,0.0,147.0,3.0,294.0,49.0,98.0,245.0,196.0,147.0,white,circle
0.0,8.0,4.0,1.0,7.0,4.0,2927.0062550003786,4.0,1.0,part_3,go,0.0,0.0,0.0,196.0,4.0,147.0,49.0,98.0,196.0,294.0,245.0,magenta,cross
0.0,5.0,1.0,1.0,7.0,1.0,3659.064211999976,4.0,1.0,part_3,go,0.0,0.0,0.0,117.0,3.0,117.0,78.0,39.0,156.0,195.0,234.0,green,hexagon
0.0,8.0,4.0,1.0,7.0,5.0,2852.5681900000563,4.0,1.0,part_3,go,0.0,0.0,0.0,170.0,5.0,34.0,102.0,68.0,204.0,170.0,136.0,magenta,cross
0.0,1.0,1.0,0.0,7.0,2.0,2177.9405780007437,4.0,1.0,part_3,go,0.0,0.0,0.0,170.0,5.0,136.0,170.0,68.0,102.0,204.0,34.0,white,circle
