raw_reward_magnitude,stim_reward,stepwise_reward_magnitude,paired_with_stopping,stim_location,response,reaction_time,block,num_trial_presentations,which_phase,stop_signal_trial_type,left_SSD,right_SSD,accuracy,chosen_bidding_amount,chosen_bidding_level,possible_bid_1,possible_bid_2,possible_bid_3,possible_bid_4,possible_bid_5,possible_bid_6,color_text,shape_text
0.0,8.0,0.0,1.0,2.0,2.0,397.752902999855,1.0,1.0,phase_1,,,,,,,,,,,,,white,flipped triangle
45.0,1.0,0.5,0.0,3.0,3.0,466.6031000001567,1.0,1.0,phase_1,,,,,,,,,,,,,gray,cross
0.0,5.0,0.0,1.0,3.0,3.0,449.2788010002186,1.0,1.0,phase_1,,,,,,,,,,,,,orange,square
206.0,3.0,2.0,0.0,2.0,2.0,350.4402689995913,1.0,1.0,phase_1,,,,,,,,,,,,,magenta,hexagon
40.0,1.0,0.5,0.0,4.0,4.0,433.7752819997149,1.0,1.0,phase_1,,,,,,,,,,,,,gray,cross
190.0,3.0,2.0,0.0,2.0,2.0,325.7529239999712,1.0,1.0,phase_1,,,,,,,,,,,,,magenta,hexagon
0.0,1.0,0.0,0.0,1.0,1.0,426.7701409999063,1.0,1.0,phase_1,,,,,,,,,,,,,gray,cross
67.0,5.0,0.5,1.0,1.0,1.0,457.6366149999558,1.0,1.0,phase_1,,,,,,,,,,,,,orange,square
0.0,1.0,0.0,0.0,4.0,4.0,484.0989620001892,1.0,1.0,phase_1,,,,,,,,,,,,,gray,cross
122.0,6.0,1.0,1.0,1.0,1.0,394.5365800000218,1.0,1.0,phase_1,,,,,,,,,,,,,blue,circle
420.0,8.0,4.0,1.0,3.0,3.0,528.7812430001395,1.0,1.0,phase_1,,,,,,,,,,,,,white,flipped triangle
405.0,8.0,4.0,1.0,3.0,3.0,437.7443920002406,1.0,1.0,phase_1,,,,,,,,,,,,,white,flipped triangle
91.0,6.0,1.0,1.0,2.0,2.0,372.9308349998064,1.0,1.0,phase_1,,,,,,,,,,,,,blue,circle
413.0,4.0,4.0,0.0,4.0,4.0,483.7467639999886,1.0,1.0,phase_1,,,,,,,,,,,,,cyan,I
49.0,5.0,0.5,1.0,1.0,1.0,361.6189010003836,1.0,1.0,phase_1,,,,,,,,,,,,,orange,square
0.0,7.0,0.0,1.0,3.0,3.0,441.9982340000388,1.0,1.0,phase_1,,,,,,,,,,,,,yellow,diamond
0.0,2.0,0.0,0.0,3.0,3.0,424.8153840003397,1.0,1.0,phase_1,,,,,,,,,,,,,green,triangle
86.0,2.0,1.0,0.0,1.0,1.0,468.6277010000594,1.0,1.0,phase_1,,,,,,,,,,,,,green,triangle
0.0,8.0,0.0,1.0,3.0,3.0,340.7847970001967,1.0,1.0,phase_1,,,,,,,,,,,,,white,flipped triangle
107.0,2.0,1.0,0.0,3.0,3.0,449.1128200002094,1.0,1.0,phase_1,,,,,,,,,,,,,green,triangle
377.0,8.0,4.0,1.0,4.0,4.0,441.407856999831,1.0,1.0,phase_1,,,,,,,,,,,,,white,flipped triangle
0.0,1.0,0.0,0.0,4.0,4.0,460.7434189997548,1.0,1.0,phase_1,,,,,,,,,,,,,gray,cross
216.0,3.0,2.0,0.0,2.0,2.0,359.9003500003164,1.0,1.0,phase_1,,,,,,,,,,,,,magenta,hexagon
31.0,1.0,0.5,0.0,3.0,3.0,372.1418149998499,1.0,1.0,phase_1,,,,,,,,,,,,,gray,cross
393.0,8.0,4.0,1.0,1.0,1.0,389.0025840000817,1.0,1.0,phase_1,,,,,,,,,,,,,white,flipped triangle
0.0,1.0,0.0,0.0,4.0,4.0,446.5490350003165,1.0,1.0,phase_1,,,,,,,,,,,,,gray,cross
424.0,8.0,4.0,1.0,4.0,4.0,395.2824530001635,1.0,1.0,phase_1,,,,,,,,,,,,,white,flipped triangle
406.0,8.0,4.0,1.0,4.0,4.0,409.4030699998257,1.0,1.0,phase_1,,,,,,,,,,,,,white,flipped triangle
49.0,1.0,0.5,0.0,4.0,4.0,445.6192630000259,1.0,1.0,phase_1,,,,,,,,,,,,,gray,cross
31.0,5.0,0.5,1.0,2.0,2.0,377.9783830000269,1.0,1.0,phase_1,,,,,,,,,,,,,orange,square
107.0,2.0,1.0,0.0,1.0,1.0,378.9028689998304,1.0,1.0,phase_1,,,,,,,,,,,,,green,triangle
77.0,6.0,1.0,1.0,1.0,1.0,403.2053639998594,1.0,1.0,phase_1,,,,,,,,,,,,,blue,circle
176.0,7.0,2.0,1.0,2.0,2.0,409.0100950002124,1.0,1.0,phase_1,,,,,,,,,,,,,yellow,diamond
202.0,3.0,2.0,0.0,2.0,2.0,388.3706359997632,1.0,1.0,phase_1,,,,,,,,,,,,,magenta,hexagon
179.0,7.0,2.0,1.0,2.0,2.0,359.9260420000973,1.0,1.0,phase_1,,,,,,,,,,,,,yellow,diamond
98.0,6.0,1.0,1.0,2.0,2.0,341.7454820000785,1.0,1.0,phase_1,,,,,,,,,,,,,blue,circle
103.0,6.0,1.0,1.0,3.0,3.0,396.2685799997416,1.0,1.0,phase_1,,,,,,,,,,,,,blue,circle
63.0,1.0,0.5,0.0,4.0,4.0,345.9807160002128,1.0,1.0,phase_1,,,,,,,,,,,,,gray,cross
96.0,6.0,1.0,1.0,4.0,4.0,414.5943049998095,1.0,1.0,phase_1,,,,,,,,,,,,,blue,circle
89.0,6.0,1.0,1.0,1.0,1.0,396.0684189996755,1.0,1.0,phase_1,,,,,,,,,,,,,blue,circle
27.0,1.0,0.5,0.0,4.0,4.0,396.2948040002629,1.0,1.0,phase_1,,,,,,,,,,,,,gray,cross
396.0,8.0,4.0,1.0,2.0,2.0,369.4510029999946,1.0,1.0,phase_1,,,,,,,,,,,,,white,flipped triangle
208.0,3.0,2.0,0.0,4.0,4.0,422.3072939998928,1.0,1.0,phase_1,,,,,,,,,,,,,magenta,hexagon
407.0,4.0,4.0,0.0,1.0,1.0,351.8355659998633,1.0,1.0,phase_1,,,,,,,,,,,,,cyan,I
0.0,8.0,0.0,1.0,3.0,3.0,398.3192339997004,1.0,1.0,phase_1,,,,,,,,,,,,,white,flipped triangle
424.0,4.0,4.0,0.0,1.0,1.0,553.5560819998864,1.0,1.0,phase_1,,,,,,,,,,,,,cyan,I
27.0,5.0,0.5,1.0,4.0,4.0,408.9953539996713,1.0,1.0,phase_1,,,,,,,,,,,,,orange,square
383.0,4.0,4.0,0.0,3.0,3.0,383.5653349997301,1.0,1.0,phase_1,,,,,,,,,,,,,cyan,I
212.0,3.0,2.0,0.0,2.0,2.0,340.6183800002509,1.0,1.0,phase_1,,,,,,,,,,,,,magenta,hexagon
0.0,7.0,0.0,1.0,1.0,1.0,383.227091000208,1.0,1.0,phase_1,,,,,,,,,,,,,yellow,diamond
0.0,5.0,0.0,1.0,1.0,1.0,405.9864310002012,1.0,1.0,phase_1,,,,,,,,,,,,,orange,square
60.0,1.0,0.5,0.0,3.0,3.0,344.6744329999092,1.0,1.0,phase_1,,,,,,,,,,,,,gray,cross
210.0,7.0,2.0,1.0,4.0,4.0,369.4703259998277,1.0,1.0,phase_1,,,,,,,,,,,,,yellow,diamond
401.0,4.0,4.0,0.0,3.0,3.0,444.7084159996848,1.0,1.0,phase_1,,,,,,,,,,,,,cyan,I
48.0,5.0,0.5,1.0,1.0,1.0,345.5918249997012,1.0,1.0,phase_1,,,,,,,,,,,,,orange,square
0.0,4.0,0.0,0.0,4.0,4.0,479.0543459998844,1.0,1.0,phase_1,,,,,,,,,,,,,cyan,I
91.0,6.0,1.0,1.0,1.0,1.0,454.046672000004,1.0,1.0,phase_1,,,,,,,,,,,,,blue,circle
76.0,2.0,1.0,0.0,3.0,3.0,372.1151760000794,1.0,1.0,phase_1,,,,,,,,,,,,,green,triangle
77.0,6.0,1.0,1.0,2.0,2.0,342.6841649998096,1.0,1.0,phase_1,,,,,,,,,,,,,blue,circle
175.0,3.0,2.0,0.0,1.0,1.0,380.6242830000883,1.0,1.0,phase_1,,,,,,,,,,,,,magenta,hexagon
98.0,2.0,1.0,0.0,3.0,3.0,391.9662280000011,1.0,1.0,phase_1,,,,,,,,,,,,,green,triangle
392.0,8.0,4.0,1.0,3.0,3.0,371.1656189998393,1.0,1.0,phase_1,,,,,,,,,,,,,white,flipped triangle
209.0,3.0,2.0,0.0,3.0,3.0,457.4612599999454,1.0,1.0,phase_1,,,,,,,,,,,,,magenta,hexagon
0.0,2.0,0.0,0.0,4.0,4.0,322.2540619999563,1.0,1.0,phase_1,,,,,,,,,,,,,green,triangle
57.0,5.0,0.5,1.0,1.0,1.0,358.1745090000368,1.0,1.0,phase_1,,,,,,,,,,,,,orange,square
175.0,7.0,2.0,1.0,4.0,4.0,494.2418519999592,1.0,1.0,phase_1,,,,,,,,,,,,,yellow,diamond
121.0,2.0,1.0,0.0,4.0,4.0,510.9580329999517,1.0,1.0,phase_1,,,,,,,,,,,,,green,triangle
383.0,8.0,4.0,1.0,3.0,3.0,366.0921059999964,1.0,1.0,phase_1,,,,,,,,,,,,,white,flipped triangle
0.0,5.0,0.0,1.0,2.0,2.0,348.0194379999375,1.0,1.0,phase_1,,,,,,,,,,,,,orange,square
0.0,2.0,0.0,0.0,4.0,4.0,402.3753690003104,1.0,1.0,phase_1,,,,,,,,,,,,,green,triangle
0.0,1.0,0.0,0.0,3.0,3.0,562.2954909999862,1.0,1.0,phase_1,,,,,,,,,,,,,gray,cross
60.0,5.0,0.5,1.0,2.0,2.0,442.9450970001198,1.0,1.0,phase_1,,,,,,,,,,,,,orange,square
216.0,7.0,2.0,1.0,1.0,1.0,385.5607469999995,1.0,1.0,phase_1,,,,,,,,,,,,,yellow,diamond
379.0,4.0,4.0,0.0,4.0,4.0,431.6918230001647,1.0,1.0,phase_1,,,,,,,,,,,,,cyan,I
215.0,7.0,2.0,1.0,4.0,4.0,351.2841130000197,1.0,1.0,phase_1,,,,,,,,,,,,,yellow,diamond
40.0,5.0,0.5,1.0,3.0,3.0,376.8151770000258,1.0,1.0,phase_1,,,,,,,,,,,,,orange,square
0.0,3.0,0.0,0.0,2.0,2.0,316.3161259999469,1.0,1.0,phase_1,,,,,,,,,,,,,magenta,hexagon
215.0,3.0,2.0,0.0,1.0,1.0,435.8055790003163,1.0,1.0,phase_1,,,,,,,,,,,,,magenta,hexagon
40.0,5.0,0.5,1.0,3.0,3.0,378.8555229998565,1.0,1.0,phase_1,,,,,,,,,,,,,orange,square
202.0,7.0,2.0,1.0,2.0,2.0,342.596525999852,1.0,1.0,phase_1,,,,,,,,,,,,,yellow,diamond
220.0,3.0,2.0,0.0,4.0,4.0,386.17928199983,1.0,1.0,phase_1,,,,,,,,,,,,,magenta,hexagon
0.0,7.0,0.0,1.0,4.0,4.0,366.9099100002313,1.0,1.0,phase_1,,,,,,,,,,,,,yellow,diamond
95.0,6.0,1.0,1.0,4.0,4.0,392.6796170003399,1.0,1.0,phase_1,,,,,,,,,,,,,blue,circle
57.0,5.0,0.5,1.0,2.0,2.0,387.832447999699,1.0,1.0,phase_1,,,,,,,,,,,,,orange,square
51.0,1.0,0.5,0.0,3.0,3.0,450.7489799998438,1.0,1.0,phase_1,,,,,,,,,,,,,gray,cross
189.0,7.0,2.0,1.0,3.0,3.0,353.9435190000404,1.0,1.0,phase_1,,,,,,,,,,,,,yellow,diamond
113.0,2.0,1.0,0.0,4.0,4.0,344.4333779998487,1.0,1.0,phase_1,,,,,,,,,,,,,green,triangle
85.0,2.0,1.0,0.0,3.0,3.0,382.3349610001969,1.0,1.0,phase_1,,,,,,,,,,,,,green,triangle
186.0,7.0,2.0,1.0,4.0,4.0,501.55915400000595,1.0,1.0,phase_1,,,,,,,,,,,,,yellow,diamond
50.0,1.0,0.5,0.0,1.0,1.0,438.1908489999659,1.0,1.0,phase_1,,,,,,,,,,,,,gray,cross
67.0,1.0,0.5,0.0,1.0,1.0,464.6465069999976,1.0,1.0,phase_1,,,,,,,,,,,,,gray,cross
114.0,6.0,1.0,1.0,3.0,3.0,361.5463349997299,1.0,1.0,phase_1,,,,,,,,,,,,,blue,circle
194.0,7.0,2.0,1.0,4.0,4.0,539.8040830000355,1.0,1.0,phase_1,,,,,,,,,,,,,yellow,diamond
377.0,8.0,4.0,1.0,1.0,1.0,438.1446600000345,1.0,1.0,phase_1,,,,,,,,,,,,,white,flipped triangle
74.0,1.0,0.5,0.0,4.0,4.0,383.8337239999418,1.0,1.0,phase_1,,,,,,,,,,,,,gray,cross
84.0,6.0,1.0,1.0,1.0,1.0,397.07235700007,1.0,1.0,phase_1,,,,,,,,,,,,,blue,circle
0.0,4.0,0.0,0.0,1.0,1.0,369.3131729996821,1.0,1.0,phase_1,,,,,,,,,,,,,cyan,I
209.0,7.0,2.0,1.0,1.0,1.0,378.9111139999477,1.0,1.0,phase_1,,,,,,,,,,,,,yellow,diamond
63.0,5.0,0.5,1.0,3.0,3.0,370.3139009999177,1.0,1.0,phase_1,,,,,,,,,,,,,orange,square
117.0,6.0,1.0,1.0,3.0,3.0,560.2876369998739,1.0,1.0,phase_1,,,,,,,,,,,,,blue,circle
105.0,2.0,1.0,0.0,3.0,3.0,371.3543759999993,2.0,1.0,phase_1,,,,,,,,,,,,,green,triangle
410.0,8.0,4.0,1.0,2.0,2.0,358.3541870002591,2.0,1.0,phase_1,,,,,,,,,,,,,white,flipped triangle
0.0,6.0,0.0,1.0,4.0,4.0,377.2064159998081,2.0,1.0,phase_1,,,,,,,,,,,,,blue,circle
215.0,3.0,2.0,0.0,4.0,4.0,376.8399499999759,2.0,1.0,phase_1,,,,,,,,,,,,,magenta,hexagon
222.0,7.0,2.0,1.0,4.0,4.0,338.5425309998027,2.0,1.0,phase_1,,,,,,,,,,,,,yellow,diamond
0.0,6.0,0.0,1.0,1.0,1.0,407.3264579997158,2.0,1.0,phase_1,,,,,,,,,,,,,blue,circle
107.0,6.0,1.0,1.0,1.0,1.0,339.6061190001092,2.0,1.0,phase_1,,,,,,,,,,,,,blue,circle
0.0,7.0,0.0,1.0,4.0,4.0,379.1001599997798,2.0,1.0,phase_1,,,,,,,,,,,,,yellow,diamond
407.0,8.0,4.0,1.0,4.0,4.0,367.7688309999212,2.0,1.0,phase_1,,,,,,,,,,,,,white,flipped triangle
381.0,8.0,4.0,1.0,1.0,1.0,414.7508229998493,2.0,1.0,phase_1,,,,,,,,,,,,,white,flipped triangle
0.0,5.0,0.0,1.0,1.0,1.0,430.8240360001036,2.0,1.0,phase_1,,,,,,,,,,,,,orange,square
424.0,4.0,4.0,0.0,4.0,4.0,384.3440750001718,2.0,1.0,phase_1,,,,,,,,,,,,,cyan,I
403.0,8.0,4.0,1.0,4.0,4.0,389.6423649998723,2.0,1.0,phase_1,,,,,,,,,,,,,white,flipped triangle
380.0,4.0,4.0,0.0,2.0,2.0,422.2710950002692,2.0,1.0,phase_1,,,,,,,,,,,,,cyan,I
224.0,3.0,2.0,0.0,1.0,1.0,358.6865520001083,2.0,1.0,phase_1,,,,,,,,,,,,,magenta,hexagon
0.0,3.0,0.0,0.0,2.0,2.0,360.0370180001846,2.0,1.0,phase_1,,,,,,,,,,,,,magenta,hexagon
51.0,1.0,0.5,0.0,1.0,1.0,421.4331849998416,2.0,1.0,phase_1,,,,,,,,,,,,,gray,cross
98.0,6.0,1.0,1.0,3.0,3.0,332.8441210001074,2.0,1.0,phase_1,,,,,,,,,,,,,blue,circle
69.0,1.0,0.5,0.0,4.0,4.0,480.9714449997955,2.0,1.0,phase_1,,,,,,,,,,,,,gray,cross
0.0,6.0,0.0,1.0,2.0,2.0,424.6720940000159,2.0,1.0,phase_1,,,,,,,,,,,,,blue,circle
94.0,2.0,1.0,0.0,3.0,3.0,367.2776079997675,2.0,1.0,phase_1,,,,,,,,,,,,,green,triangle
214.0,3.0,2.0,0.0,3.0,3.0,339.092151999921,2.0,1.0,phase_1,,,,,,,,,,,,,magenta,hexagon
0.0,6.0,0.0,1.0,4.0,4.0,433.8548969999465,2.0,1.0,phase_1,,,,,,,,,,,,,blue,circle
62.0,5.0,0.5,1.0,4.0,4.0,457.9759640000702,2.0,1.0,phase_1,,,,,,,,,,,,,orange,square
220.0,7.0,2.0,1.0,2.0,2.0,291.1999650000325,2.0,1.0,phase_1,,,,,,,,,,,,,yellow,diamond
398.0,8.0,4.0,1.0,2.0,2.0,379.0953140000965,2.0,1.0,phase_1,,,,,,,,,,,,,white,flipped triangle
42.0,1.0,0.5,0.0,2.0,2.0,372.3154990002513,2.0,1.0,phase_1,,,,,,,,,,,,,gray,cross
0.0,4.0,0.0,0.0,4.0,4.0,379.5547049999186,2.0,1.0,phase_1,,,,,,,,,,,,,cyan,I
0.0,7.0,0.0,1.0,2.0,2.0,337.4235589999443,2.0,1.0,phase_1,,,,,,,,,,,,,yellow,diamond
64.0,1.0,0.5,0.0,3.0,3.0,411.6844780000974,2.0,1.0,phase_1,,,,,,,,,,,,,gray,cross
214.0,7.0,2.0,1.0,3.0,3.0,340.3530059999866,2.0,1.0,phase_1,,,,,,,,,,,,,yellow,diamond
213.0,3.0,2.0,0.0,4.0,4.0,371.3622120003492,2.0,1.0,phase_1,,,,,,,,,,,,,magenta,hexagon
397.0,4.0,4.0,0.0,2.0,2.0,314.6310489996722,2.0,1.0,phase_1,,,,,,,,,,,,,cyan,I
397.0,8.0,4.0,1.0,1.0,1.0,406.2225819998275,2.0,1.0,phase_1,,,,,,,,,,,,,white,flipped triangle
0.0,2.0,0.0,0.0,3.0,3.0,333.247327999743,2.0,1.0,phase_1,,,,,,,,,,,,,green,triangle
27.0,1.0,0.5,0.0,1.0,1.0,388.8929730001109,2.0,1.0,phase_1,,,,,,,,,,,,,gray,cross
100.0,2.0,1.0,0.0,1.0,1.0,370.8432550001816,2.0,1.0,phase_1,,,,,,,,,,,,,green,triangle
0.0,4.0,0.0,0.0,2.0,2.0,310.5934179998257,2.0,1.0,phase_1,,,,,,,,,,,,,cyan,I
96.0,2.0,1.0,0.0,4.0,4.0,345.4013549999217,2.0,1.0,phase_1,,,,,,,,,,,,,green,triangle
203.0,7.0,2.0,1.0,3.0,3.0,378.4559489999992,2.0,1.0,phase_1,,,,,,,,,,,,,yellow,diamond
102.0,2.0,1.0,0.0,3.0,3.0,391.4013809999233,2.0,1.0,phase_1,,,,,,,,,,,,,green,triangle
31.0,5.0,0.5,1.0,4.0,4.0,322.2193579999839,2.0,1.0,phase_1,,,,,,,,,,,,,orange,square
182.0,3.0,2.0,0.0,4.0,4.0,404.5507460000408,2.0,2.0,phase_1,,,,,,,,,,,,,magenta,hexagon
80.0,6.0,1.0,1.0,2.0,2.0,370.7801820000895,2.0,1.0,phase_1,,,,,,,,,,,,,blue,circle
109.0,6.0,1.0,1.0,3.0,3.0,325.8070540000517,2.0,1.0,phase_1,,,,,,,,,,,,,blue,circle
215.0,7.0,2.0,1.0,1.0,1.0,509.0888069998982,2.0,1.0,phase_1,,,,,,,,,,,,,yellow,diamond
57.0,1.0,0.5,0.0,3.0,3.0,464.0379829997982,2.0,1.0,phase_1,,,,,,,,,,,,,gray,cross
39.0,5.0,0.5,1.0,3.0,3.0,439.50157200015377,2.0,1.0,phase_1,,,,,,,,,,,,,orange,square
112.0,2.0,1.0,0.0,2.0,2.0,313.7583170000653,2.0,1.0,phase_1,,,,,,,,,,,,,green,triangle
0.0,5.0,0.0,1.0,1.0,1.0,322.1738329998516,2.0,1.0,phase_1,,,,,,,,,,,,,orange,square
218.0,3.0,2.0,0.0,3.0,3.0,356.5776890000052,2.0,1.0,phase_1,,,,,,,,,,,,,magenta,hexagon
381.0,4.0,4.0,0.0,1.0,1.0,561.0999320001611,2.0,1.0,phase_1,,,,,,,,,,,,,cyan,I
82.0,6.0,1.0,1.0,2.0,2.0,401.6080139999758,2.0,1.0,phase_1,,,,,,,,,,,,,blue,circle
49.0,1.0,0.5,0.0,2.0,2.0,449.8518400000648,2.0,1.0,phase_1,,,,,,,,,,,,,gray,cross
401.0,8.0,4.0,1.0,2.0,2.0,335.0025529998675,2.0,1.0,phase_1,,,,,,,,,,,,,white,flipped triangle
0.0,3.0,0.0,0.0,1.0,1.0,518.5134319999634,2.0,1.0,phase_1,,,,,,,,,,,,,magenta,hexagon
89.0,6.0,1.0,1.0,1.0,1.0,485.2618659997461,2.0,1.0,phase_1,,,,,,,,,,,,,blue,circle
206.0,3.0,2.0,0.0,3.0,3.0,518.7315009998201,2.0,1.0,phase_1,,,,,,,,,,,,,magenta,hexagon
212.0,7.0,2.0,1.0,4.0,4.0,522.2434850002173,2.0,1.0,phase_1,,,,,,,,,,,,,yellow,diamond
0.0,6.0,0.0,1.0,3.0,3.0,354.1590939998968,2.0,1.0,phase_1,,,,,,,,,,,,,blue,circle
86.0,6.0,1.0,1.0,2.0,2.0,363.0310069997904,2.0,1.0,phase_1,,,,,,,,,,,,,blue,circle
187.0,3.0,2.0,0.0,3.0,3.0,328.5663299998305,2.0,1.0,phase_1,,,,,,,,,,,,,magenta,hexagon
27.0,5.0,0.5,1.0,2.0,2.0,338.0470289998811,2.0,1.0,phase_1,,,,,,,,,,,,,orange,square
221.0,3.0,2.0,0.0,1.0,1.0,388.7589820001267,2.0,1.0,phase_1,,,,,,,,,,,,,magenta,hexagon
383.0,8.0,4.0,1.0,2.0,2.0,320.8122730002287,2.0,1.0,phase_1,,,,,,,,,,,,,white,flipped triangle
42.0,5.0,0.5,1.0,3.0,3.0,311.4264529999673,2.0,1.0,phase_1,,,,,,,,,,,,,orange,square
119.0,6.0,1.0,1.0,2.0,2.0,370.4034889997274,2.0,1.0,phase_1,,,,,,,,,,,,,blue,circle
121.0,6.0,1.0,1.0,4.0,4.0,405.3006919998552,2.0,1.0,phase_1,,,,,,,,,,,,,blue,circle
63.0,5.0,0.5,1.0,4.0,4.0,430.6770270000015,2.0,1.0,phase_1,,,,,,,,,,,,,orange,square
76.0,6.0,1.0,1.0,2.0,2.0,324.7710499999812,2.0,1.0,phase_1,,,,,,,,,,,,,blue,circle
91.0,2.0,1.0,0.0,4.0,4.0,409.2992460000459,2.0,1.0,phase_1,,,,,,,,,,,,,green,triangle
42.0,5.0,0.5,1.0,1.0,1.0,506.09338799995385,2.0,1.0,phase_1,,,,,,,,,,,,,orange,square
0.0,7.0,0.0,1.0,3.0,3.0,345.0730469999143,2.0,1.0,phase_1,,,,,,,,,,,,,yellow,diamond
199.0,7.0,2.0,1.0,1.0,1.0,493.0494710001767,2.0,1.0,phase_1,,,,,,,,,,,,,yellow,diamond
0.0,2.0,0.0,0.0,2.0,2.0,388.076689999707,2.0,1.0,phase_1,,,,,,,,,,,,,green,triangle
419.0,4.0,4.0,0.0,3.0,3.0,419.8696530002053,2.0,1.0,phase_1,,,,,,,,,,,,,cyan,I
410.0,8.0,4.0,1.0,3.0,3.0,479.1252029999668,2.0,1.0,phase_1,,,,,,,,,,,,,white,flipped triangle
180.0,7.0,2.0,1.0,4.0,4.0,386.3108909999937,2.0,1.0,phase_1,,,,,,,,,,,,,yellow,diamond
389.0,4.0,4.0,0.0,4.0,4.0,417.2408130002623,2.0,1.0,phase_1,,,,,,,,,,,,,cyan,I
182.0,7.0,2.0,1.0,3.0,3.0,370.1521409998349,2.0,1.0,phase_1,,,,,,,,,,,,,yellow,diamond
71.0,5.0,0.5,1.0,2.0,2.0,308.4301769999911,2.0,1.0,phase_1,,,,,,,,,,,,,orange,square
420.0,4.0,4.0,0.0,4.0,4.0,464.8536899999271,2.0,1.0,phase_1,,,,,,,,,,,,,cyan,I
408.0,8.0,4.0,1.0,1.0,1.0,503.5686810001607,2.0,1.0,phase_1,,,,,,,,,,,,,white,flipped triangle
189.0,3.0,2.0,0.0,3.0,3.0,362.2299369999382,2.0,1.0,phase_1,,,,,,,,,,,,,magenta,hexagon
179.0,3.0,2.0,0.0,3.0,3.0,358.852699000181,2.0,1.0,phase_1,,,,,,,,,,,,,magenta,hexagon
377.0,4.0,4.0,0.0,3.0,3.0,358.0625009999494,2.0,1.0,phase_1,,,,,,,,,,,,,cyan,I
0.0,4.0,0.0,0.0,4.0,4.0,718.2114809993436,2.0,1.0,phase_1,,,,,,,,,,,,,cyan,I
187.0,7.0,2.0,1.0,3.0,3.0,371.7531819993382,2.0,1.0,phase_1,,,,,,,,,,,,,yellow,diamond
175.0,7.0,2.0,1.0,4.0,4.0,394.5349310006349,2.0,1.0,phase_1,,,,,,,,,,,,,yellow,diamond
57.0,1.0,0.5,0.0,2.0,2.0,622.9783290000341,2.0,1.0,phase_1,,,,,,,,,,,,,gray,cross
114.0,2.0,1.0,0.0,4.0,4.0,423.1651180007247,2.0,1.0,phase_1,,,,,,,,,,,,,green,triangle
56.0,1.0,0.5,0.0,1.0,1.0,420.096435999767,2.0,1.0,phase_1,,,,,,,,,,,,,gray,cross
395.0,8.0,4.0,1.0,3.0,3.0,376.5676200000598,2.0,1.0,phase_1,,,,,,,,,,,,,white,flipped triangle
52.0,5.0,0.5,1.0,3.0,3.0,471.8338769998809,2.0,1.0,phase_1,,,,,,,,,,,,,orange,square
214.0,7.0,2.0,1.0,3.0,3.0,373.6116979998769,2.0,1.0,phase_1,,,,,,,,,,,,,yellow,diamond
78.0,6.0,1.0,1.0,3.0,3.0,365.3076869995857,2.0,1.0,phase_1,,,,,,,,,,,,,blue,circle
45.0,5.0,0.5,1.0,4.0,4.0,436.0484650005674,2.0,1.0,phase_1,,,,,,,,,,,,,orange,square
124.0,2.0,1.0,0.0,2.0,2.0,367.5221419998706,2.0,1.0,phase_1,,,,,,,,,,,,,green,triangle
48.0,1.0,0.5,0.0,1.0,1.0,533.4883780005839,2.0,1.0,phase_1,,,,,,,,,,,,,gray,cross
0.0,8.0,0.0,1.0,2.0,2.0,323.1001179992745,2.0,1.0,phase_1,,,,,,,,,,,,,white,flipped triangle
0.0,3.0,0.0,0.0,3.0,3.0,406.8568539996704,3.0,1.0,phase_1,,,,,,,,,,,,,magenta,hexagon
113.0,6.0,1.0,1.0,3.0,3.0,380.5043649999788,3.0,1.0,phase_1,,,,,,,,,,,,,blue,circle
105.0,6.0,1.0,1.0,1.0,1.0,402.6986689996192,3.0,1.0,phase_1,,,,,,,,,,,,,blue,circle
188.0,7.0,2.0,1.0,1.0,1.0,435.2454879999641,3.0,1.0,phase_1,,,,,,,,,,,,,yellow,diamond
26.0,1.0,0.5,0.0,1.0,1.0,396.3077369999155,3.0,1.0,phase_1,,,,,,,,,,,,,gray,cross
221.0,7.0,2.0,1.0,2.0,2.0,312.3387869991347,3.0,1.0,phase_1,,,,,,,,,,,,,yellow,diamond
0.0,2.0,0.0,0.0,1.0,1.0,398.5306140002649,3.0,1.0,phase_1,,,,,,,,,,,,,green,triangle
56.0,5.0,0.5,1.0,4.0,4.0,443.7936889999037,3.0,1.0,phase_1,,,,,,,,,,,,,orange,square
176.0,3.0,2.0,0.0,3.0,3.0,429.7494510001343,3.0,1.0,phase_1,,,,,,,,,,,,,magenta,hexagon
28.0,5.0,0.5,1.0,1.0,1.0,386.7178660002537,3.0,1.0,phase_1,,,,,,,,,,,,,orange,square
33.0,5.0,0.5,1.0,3.0,3.0,370.9937650000938,3.0,1.0,phase_1,,,,,,,,,,,,,orange,square
424.0,8.0,4.0,1.0,2.0,2.0,377.8987430005145,3.0,1.0,phase_1,,,,,,,,,,,,,white,flipped triangle
183.0,3.0,2.0,0.0,2.0,2.0,380.7753909995881,3.0,1.0,phase_1,,,,,,,,,,,,,magenta,hexagon
199.0,3.0,2.0,0.0,2.0,2.0,340.5704129991136,3.0,1.0,phase_1,,,,,,,,,,,,,magenta,hexagon
0.0,4.0,0.0,0.0,4.0,4.0,487.4552619994574,3.0,1.0,phase_1,,,,,,,,,,,,,cyan,I
424.0,4.0,4.0,0.0,1.0,1.0,421.3054479996572,3.0,1.0,phase_1,,,,,,,,,,,,,cyan,I
0.0,8.0,0.0,1.0,2.0,2.0,363.0309549998856,3.0,1.0,phase_1,,,,,,,,,,,,,white,flipped triangle
119.0,2.0,1.0,0.0,1.0,1.0,404.163920999963,3.0,1.0,phase_1,,,,,,,,,,,,,green,triangle
222.0,3.0,2.0,0.0,4.0,4.0,330.3464360005819,3.0,1.0,phase_1,,,,,,,,,,,,,magenta,hexagon
0.0,3.0,0.0,0.0,3.0,3.0,411.630667999816,3.0,1.0,phase_1,,,,,,,,,,,,,magenta,hexagon
421.0,8.0,4.0,1.0,4.0,4.0,363.5857009994652,3.0,1.0,phase_1,,,,,,,,,,,,,white,flipped triangle
74.0,1.0,0.5,0.0,2.0,2.0,344.3140600002152,3.0,1.0,phase_1,,,,,,,,,,,,,gray,cross
214.0,7.0,2.0,1.0,1.0,1.0,410.6036960001802,3.0,1.0,phase_1,,,,,,,,,,,,,yellow,diamond
31.0,1.0,0.5,0.0,3.0,3.0,407.7342179998595,3.0,1.0,phase_1,,,,,,,,,,,,,gray,cross
397.0,4.0,4.0,0.0,2.0,2.0,336.5976629993383,3.0,1.0,phase_1,,,,,,,,,,,,,cyan,I
214.0,3.0,2.0,0.0,4.0,4.0,407.4510509999527,3.0,1.0,phase_1,,,,,,,,,,,,,magenta,hexagon
33.0,1.0,0.5,0.0,4.0,4.0,431.9263460001821,3.0,1.0,phase_1,,,,,,,,,,,,,gray,cross
102.0,6.0,1.0,1.0,4.0,4.0,323.3496100001503,3.0,1.0,phase_1,,,,,,,,,,,,,blue,circle
190.0,7.0,2.0,1.0,3.0,3.0,403.2301020006343,3.0,1.0,phase_1,,,,,,,,,,,,,yellow,diamond
0.0,8.0,0.0,1.0,3.0,3.0,327.8679139993983,3.0,1.0,phase_1,,,,,,,,,,,,,white,flipped triangle
0.0,3.0,0.0,0.0,4.0,4.0,443.3637599995563,3.0,1.0,phase_1,,,,,,,,,,,,,magenta,hexagon
94.0,6.0,1.0,1.0,3.0,3.0,361.4617120001639,3.0,1.0,phase_1,,,,,,,,,,,,,blue,circle
389.0,4.0,4.0,0.0,1.0,1.0,392.6771160004136,3.0,1.0,phase_1,,,,,,,,,,,,,cyan,I
0.0,4.0,0.0,0.0,4.0,4.0,327.2065359997214,3.0,1.0,phase_1,,,,,,,,,,,,,cyan,I
48.0,5.0,0.5,1.0,4.0,4.0,435.1713350006321,3.0,1.0,phase_1,,,,,,,,,,,,,orange,square
403.0,4.0,4.0,0.0,1.0,1.0,470.7795300000725,3.0,1.0,phase_1,,,,,,,,,,,,,cyan,I
98.0,6.0,1.0,1.0,3.0,3.0,352.4126579995936,3.0,1.0,phase_1,,,,,,,,,,,,,blue,circle
210.0,3.0,2.0,0.0,2.0,2.0,357.0040720005636,3.0,1.0,phase_1,,,,,,,,,,,,,magenta,hexagon
0.0,2.0,0.0,0.0,4.0,4.0,560.3205610004807,3.0,1.0,phase_1,,,,,,,,,,,,,green,triangle
42.0,1.0,0.5,0.0,2.0,2.0,390.8915609999894,3.0,1.0,phase_1,,,,,,,,,,,,,gray,cross
105.0,2.0,1.0,0.0,2.0,2.0,433.9108029998897,3.0,1.0,phase_1,,,,,,,,,,,,,green,triangle
0.0,4.0,0.0,0.0,1.0,1.0,349.3308990000514,3.0,1.0,phase_1,,,,,,,,,,,,,cyan,I
66.0,5.0,0.5,1.0,3.0,3.0,339.9290979996294,3.0,1.0,phase_1,,,,,,,,,,,,,orange,square
0.0,5.0,0.0,1.0,2.0,2.0,342.9405540000516,3.0,1.0,phase_1,,,,,,,,,,,,,orange,square
398.0,4.0,4.0,0.0,4.0,4.0,444.9487579995548,3.0,1.0,phase_1,,,,,,,,,,,,,cyan,I
396.0,4.0,4.0,0.0,4.0,4.0,369.4854589994065,3.0,1.0,phase_1,,,,,,,,,,,,,cyan,I
116.0,2.0,1.0,0.0,4.0,4.0,361.8371110005682,3.0,1.0,phase_1,,,,,,,,,,,,,green,triangle
0.0,7.0,0.0,1.0,3.0,3.0,366.2032010006442,3.0,1.0,phase_1,,,,,,,,,,,,,yellow,diamond
124.0,6.0,1.0,1.0,2.0,2.0,481.2401230001342,3.0,1.0,phase_1,,,,,,,,,,,,,blue,circle
175.0,7.0,2.0,1.0,1.0,1.0,432.6002960006008,3.0,1.0,phase_1,,,,,,,,,,,,,yellow,diamond
71.0,1.0,0.5,0.0,2.0,2.0,464.2595559998881,3.0,1.0,phase_1,,,,,,,,,,,,,gray,cross
74.0,5.0,0.5,1.0,1.0,1.0,396.1814160002177,3.0,1.0,phase_1,,,,,,,,,,,,,orange,square
0.0,7.0,0.0,1.0,1.0,1.0,393.2596269996793,3.0,1.0,phase_1,,,,,,,,,,,,,yellow,diamond
104.0,2.0,1.0,0.0,4.0,4.0,384.6524620003038,3.0,1.0,phase_1,,,,,,,,,,,,,green,triangle
31.0,5.0,0.5,1.0,4.0,4.0,411.3547870001639,3.0,1.0,phase_1,,,,,,,,,,,,,orange,square
0.0,7.0,0.0,1.0,4.0,4.0,617.6769399999102,3.0,1.0,phase_1,,,,,,,,,,,,,yellow,diamond
51.0,5.0,0.5,1.0,3.0,3.0,395.0612399994497,3.0,1.0,phase_1,,,,,,,,,,,,,orange,square
381.0,8.0,4.0,1.0,1.0,1.0,424.4335029998183,3.0,1.0,phase_1,,,,,,,,,,,,,white,flipped triangle
63.0,1.0,0.5,0.0,2.0,2.0,416.1735659999976,3.0,1.0,phase_1,,,,,,,,,,,,,gray,cross
393.0,4.0,4.0,0.0,4.0,4.0,359.32497199974017,3.0,1.0,phase_1,,,,,,,,,,,,,cyan,I
98.0,2.0,1.0,0.0,3.0,3.0,380.5820099996708,3.0,1.0,phase_1,,,,,,,,,,,,,green,triangle
51.0,5.0,0.5,1.0,4.0,4.0,598.5679590003201,3.0,1.0,phase_1,,,,,,,,,,,,,orange,square
406.0,4.0,4.0,0.0,3.0,3.0,396.8028170002071,3.0,1.0,phase_1,,,,,,,,,,,,,cyan,I
91.0,2.0,1.0,0.0,2.0,2.0,392.5848270000642,3.0,1.0,phase_1,,,,,,,,,,,,,green,triangle
183.0,7.0,2.0,1.0,1.0,1.0,401.3637779999044,3.0,1.0,phase_1,,,,,,,,,,,,,yellow,diamond
104.0,6.0,1.0,1.0,4.0,4.0,362.9157549994488,3.0,1.0,phase_1,,,,,,,,,,,,,blue,circle
78.0,2.0,1.0,0.0,1.0,1.0,421.0215709999829,3.0,1.0,phase_1,,,,,,,,,,,,,green,triangle
187.0,7.0,2.0,1.0,2.0,2.0,332.2195689997897,3.0,1.0,phase_1,,,,,,,,,,,,,yellow,diamond
408.0,4.0,4.0,0.0,3.0,3.0,337.6793830002498,3.0,1.0,phase_1,,,,,,,,,,,,,cyan,I
116.0,6.0,1.0,1.0,3.0,3.0,337.6512679997177,3.0,1.0,phase_1,,,,,,,,,,,,,blue,circle
105.0,6.0,1.0,1.0,4.0,4.0,399.3233099999997,3.0,1.0,phase_1,,,,,,,,,,,,,blue,circle
35.0,1.0,0.5,0.0,1.0,1.0,377.013502000409,3.0,1.0,phase_1,,,,,,,,,,,,,gray,cross
186.0,3.0,2.0,0.0,4.0,4.0,385.511540999687,3.0,1.0,phase_1,,,,,,,,,,,,,magenta,hexagon
218.0,7.0,2.0,1.0,3.0,3.0,303.414485999383,3.0,1.0,phase_1,,,,,,,,,,,,,yellow,diamond
389.0,8.0,4.0,1.0,4.0,4.0,388.4717540004203,3.0,1.0,phase_1,,,,,,,,,,,,,white,flipped triangle
206.0,7.0,2.0,1.0,2.0,2.0,325.4614970001057,3.0,1.0,phase_1,,,,,,,,,,,,,yellow,diamond
123.0,6.0,1.0,1.0,4.0,4.0,350.9344280000732,3.0,1.0,phase_1,,,,,,,,,,,,,blue,circle
206.0,7.0,2.0,1.0,4.0,4.0,367.628187000264,3.0,1.0,phase_1,,,,,,,,,,,,,yellow,diamond
202.0,7.0,2.0,1.0,2.0,2.0,332.4160269994536,3.0,1.0,phase_1,,,,,,,,,,,,,yellow,diamond
391.0,8.0,4.0,1.0,4.0,4.0,337.8192700001818,3.0,1.0,phase_1,,,,,,,,,,,,,white,flipped triangle
49.0,1.0,0.5,0.0,3.0,3.0,339.2078430006222,3.0,1.0,phase_1,,,,,,,,,,,,,gray,cross
421.0,4.0,4.0,0.0,2.0,2.0,366.2886550000621,3.0,1.0,phase_1,,,,,,,,,,,,,cyan,I
222.0,7.0,2.0,1.0,1.0,1.0,429.66541900023,3.0,1.0,phase_1,,,,,,,,,,,,,yellow,diamond
214.0,3.0,2.0,0.0,2.0,2.0,327.6922270006253,3.0,1.0,phase_1,,,,,,,,,,,,,magenta,hexagon
0.0,1.0,0.0,0.0,3.0,3.0,345.5657459999202,3.0,1.0,phase_1,,,,,,,,,,,,,gray,cross
89.0,2.0,1.0,0.0,1.0,1.0,423.2378380002046,3.0,1.0,phase_1,,,,,,,,,,,,,green,triangle
28.0,1.0,0.5,0.0,1.0,1.0,420.281471000635,3.0,1.0,phase_1,,,,,,,,,,,,,gray,cross
40.0,1.0,0.5,0.0,3.0,3.0,334.0716949996931,3.0,1.0,phase_1,,,,,,,,,,,,,gray,cross
84.0,2.0,1.0,0.0,2.0,2.0,355.9150410001166,3.0,1.0,phase_1,,,,,,,,,,,,,green,triangle
31.0,1.0,0.5,0.0,2.0,2.0,345.783228000073,3.0,1.0,phase_1,,,,,,,,,,,,,gray,cross
0.0,6.0,0.0,1.0,3.0,3.0,317.9620430000796,3.0,1.0,phase_1,,,,,,,,,,,,,blue,circle
123.0,2.0,1.0,0.0,2.0,2.0,360.1656190003268,3.0,1.0,phase_1,,,,,,,,,,,,,green,triangle
89.0,2.0,1.0,0.0,2.0,2.0,379.7163079998427,3.0,1.0,phase_1,,,,,,,,,,,,,green,triangle
381.0,4.0,4.0,0.0,3.0,3.0,362.9328600000008,3.0,1.0,phase_1,,,,,,,,,,,,,cyan,I
199.0,7.0,2.0,1.0,3.0,3.0,324.5087029999922,3.0,1.0,phase_1,,,,,,,,,,,,,yellow,diamond
385.0,8.0,4.0,1.0,1.0,1.0,369.449839000481,3.0,1.0,phase_1,,,,,,,,,,,,,white,flipped triangle
410.0,4.0,4.0,0.0,2.0,2.0,336.3645059998816,3.0,1.0,phase_1,,,,,,,,,,,,,cyan,I
74.0,5.0,0.5,1.0,2.0,2.0,325.6620080001084,3.0,1.0,phase_1,,,,,,,,,,,,,orange,square
48.0,1.0,0.5,0.0,2.0,2.0,373.7428459999137,3.0,1.0,phase_1,,,,,,,,,,,,,gray,cross
0.0,3.0,0.0,0.0,2.0,2.0,272.8788459999123,3.0,1.0,phase_1,,,,,,,,,,,,,magenta,hexagon
0.0,1.0,0.0,0.0,1.0,1.0,362.7769179993265,4.0,1.0,phase_1,,,,,,,,,,,,,gray,cross
0.0,1.0,0.0,0.0,4.0,4.0,378.6425090002012,4.0,1.0,phase_1,,,,,,,,,,,,,gray,cross
397.0,8.0,4.0,1.0,4.0,4.0,397.3846409999169,4.0,1.0,phase_1,,,,,,,,,,,,,white,flipped triangle
395.0,4.0,4.0,0.0,1.0,1.0,375.8567309996579,4.0,1.0,phase_1,,,,,,,,,,,,,cyan,I
392.0,4.0,4.0,0.0,2.0,2.0,322.5579339996329,4.0,1.0,phase_1,,,,,,,,,,,,,cyan,I
103.0,2.0,1.0,0.0,2.0,2.0,370.8231499995236,4.0,1.0,phase_1,,,,,,,,,,,,,green,triangle
415.0,4.0,4.0,0.0,2.0,2.0,342.7005670000653,4.0,1.0,phase_1,,,,,,,,,,,,,cyan,I
0.0,4.0,0.0,0.0,1.0,1.0,352.9315989999304,4.0,1.0,phase_1,,,,,,,,,,,,,cyan,I
411.0,8.0,4.0,1.0,3.0,3.0,349.5891960001245,4.0,1.0,phase_1,,,,,,,,,,,,,white,flipped triangle
380.0,8.0,4.0,1.0,2.0,2.0,318.0699340000501,4.0,1.0,phase_1,,,,,,,,,,,,,white,flipped triangle
62.0,1.0,0.5,0.0,4.0,4.0,444.8900079996747,4.0,1.0,phase_1,,,,,,,,,,,,,gray,cross
26.0,5.0,0.5,1.0,2.0,2.0,314.6945620001133,4.0,1.0,phase_1,,,,,,,,,,,,,orange,square
69.0,5.0,0.5,1.0,3.0,3.0,354.0828300001521,4.0,1.0,phase_1,,,,,,,,,,,,,orange,square
122.0,6.0,1.0,1.0,4.0,4.0,334.154641999703,4.0,1.0,phase_1,,,,,,,,,,,,,blue,circle
39.0,1.0,0.5,0.0,4.0,4.0,435.5993009994563,4.0,1.0,phase_1,,,,,,,,,,,,,gray,cross
0.0,8.0,0.0,1.0,1.0,1.0,389.2366709997077,4.0,1.0,phase_1,,,,,,,,,,,,,white,flipped triangle
224.0,7.0,2.0,1.0,2.0,2.0,307.5068399994052,4.0,1.0,phase_1,,,,,,,,,,,,,yellow,diamond
0.0,8.0,0.0,1.0,3.0,3.0,332.6551950003704,4.0,1.0,phase_1,,,,,,,,,,,,,white,flipped triangle
424.0,8.0,4.0,1.0,1.0,1.0,348.3788009998534,4.0,1.0,phase_1,,,,,,,,,,,,,white,flipped triangle
397.0,4.0,4.0,0.0,2.0,2.0,331.8325560003359,4.0,1.0,phase_1,,,,,,,,,,,,,cyan,I
77.0,2.0,1.0,0.0,3.0,3.0,358.8712390001092,4.0,1.0,phase_1,,,,,,,,,,,,,green,triangle
107.0,6.0,1.0,1.0,2.0,2.0,304.1999909992228,4.0,1.0,phase_1,,,,,,,,,,,,,blue,circle
411.0,4.0,4.0,0.0,4.0,4.0,432.4996820005253,4.0,1.0,phase_1,,,,,,,,,,,,,cyan,I
188.0,3.0,2.0,0.0,1.0,1.0,301.9262480001998,4.0,1.0,phase_1,,,,,,,,,,,,,magenta,hexagon
60.0,1.0,0.5,0.0,4.0,4.0,439.589275999424,4.0,1.0,phase_1,,,,,,,,,,,,,gray,cross
405.0,4.0,4.0,0.0,2.0,2.0,385.4197450000356,4.0,1.0,phase_1,,,,,,,,,,,,,cyan,I
117.0,2.0,1.0,0.0,1.0,1.0,369.7318459999223,4.0,1.0,phase_1,,,,,,,,,,,,,green,triangle
385.0,4.0,4.0,0.0,1.0,1.0,297.9196200003571,4.0,1.0,phase_1,,,,,,,,,,,,,cyan,I
415.0,8.0,4.0,1.0,1.0,1.0,354.5217620003313,4.0,1.0,phase_1,,,,,,,,,,,,,white,flipped triangle
80.0,2.0,1.0,0.0,3.0,3.0,417.3773640004583,4.0,1.0,phase_1,,,,,,,,,,,,,green,triangle
95.0,2.0,1.0,0.0,4.0,4.0,415.0140179999653,4.0,1.0,phase_1,,,,,,,,,,,,,green,triangle
122.0,2.0,1.0,0.0,1.0,1.0,279.2109299998628,4.0,1.0,phase_1,,,,,,,,,,,,,green,triangle
410.0,4.0,4.0,0.0,3.0,3.0,332.767488999707,4.0,1.0,phase_1,,,,,,,,,,,,,cyan,I
0.0,6.0,0.0,1.0,1.0,1.0,295.6839580001542,4.0,1.0,phase_1,,,,,,,,,,,,,blue,circle
112.0,6.0,1.0,1.0,4.0,4.0,349.2037070000151,4.0,1.0,phase_1,,,,,,,,,,,,,blue,circle
0.0,7.0,0.0,1.0,2.0,2.0,307.3190670002077,4.0,1.0,phase_1,,,,,,,,,,,,,yellow,diamond
379.0,8.0,4.0,1.0,2.0,2.0,377.802545999657,4.0,1.0,phase_1,,,,,,,,,,,,,white,flipped triangle
0.0,3.0,0.0,0.0,4.0,4.0,378.0825800004095,4.0,1.0,phase_1,,,,,,,,,,,,,magenta,hexagon
98.0,2.0,1.0,0.0,2.0,2.0,312.068231000012,4.0,1.0,phase_1,,,,,,,,,,,,,green,triangle
0.0,1.0,0.0,0.0,1.0,1.0,322.5986529996589,4.0,1.0,phase_1,,,,,,,,,,,,,gray,cross
222.0,3.0,2.0,0.0,3.0,3.0,343.7933209997936,4.0,1.0,phase_1,,,,,,,,,,,,,magenta,hexagon
397.0,8.0,4.0,1.0,2.0,2.0,382.6029479996577,4.0,1.0,phase_1,,,,,,,,,,,,,white,flipped triangle
412.0,4.0,4.0,0.0,4.0,4.0,425.0870769992616,4.0,1.0,phase_1,,,,,,,,,,,,,cyan,I
50.0,5.0,0.5,1.0,4.0,4.0,369.4399120004163,4.0,1.0,phase_1,,,,,,,,,,,,,orange,square
383.0,4.0,4.0,0.0,3.0,3.0,364.9148029999196,4.0,1.0,phase_1,,,,,,,,,,,,,cyan,I
412.0,8.0,4.0,1.0,4.0,4.0,367.3155229998883,4.0,1.0,phase_1,,,,,,,,,,,,,white,flipped triangle
100.0,6.0,1.0,1.0,4.0,4.0,368.8573030003681,4.0,1.0,phase_1,,,,,,,,,,,,,blue,circle
0.0,8.0,0.0,1.0,4.0,4.0,370.3621200002089,4.0,1.0,phase_1,,,,,,,,,,,,,white,flipped triangle
62.0,5.0,0.5,1.0,1.0,1.0,454.3502160004209,4.0,1.0,phase_1,,,,,,,,,,,,,orange,square
213.0,7.0,2.0,1.0,3.0,3.0,318.8881180003591,4.0,1.0,phase_1,,,,,,,,,,,,,yellow,diamond
64.0,5.0,0.5,1.0,2.0,2.0,410.1328480001029,4.0,1.0,phase_1,,,,,,,,,,,,,orange,square
377.0,4.0,4.0,0.0,3.0,3.0,357.7819780002755,4.0,1.0,phase_1,,,,,,,,,,,,,cyan,I
415.0,8.0,4.0,1.0,2.0,2.0,309.7967690000587,4.0,1.0,phase_1,,,,,,,,,,,,,white,flipped triangle
0.0,6.0,0.0,1.0,2.0,2.0,377.4913130000641,4.0,1.0,phase_1,,,,,,,,,,,,,blue,circle
0.0,8.0,0.0,1.0,4.0,4.0,311.6364070001509,4.0,1.0,phase_1,,,,,,,,,,,,,white,flipped triangle
203.0,3.0,2.0,0.0,3.0,3.0,317.7521269999488,4.0,1.0,phase_1,,,,,,,,,,,,,magenta,hexagon
0.0,2.0,0.0,0.0,2.0,2.0,302.9868690000512,4.0,1.0,phase_1,,,,,,,,,,,,,green,triangle
109.0,2.0,1.0,0.0,1.0,1.0,312.1318609992158,4.0,1.0,phase_1,,,,,,,,,,,,,green,triangle
389.0,8.0,4.0,1.0,1.0,1.0,462.642550000055,4.0,1.0,phase_1,,,,,,,,,,,,,white,flipped triangle
0.0,5.0,0.0,1.0,3.0,3.0,524.6992989996215,4.0,1.0,phase_1,,,,,,,,,,,,,orange,square
66.0,1.0,0.5,0.0,1.0,1.0,336.6177979996791,4.0,1.0,phase_1,,,,,,,,,,,,,gray,cross
49.0,5.0,0.5,1.0,1.0,1.0,345.0202910007647,4.0,1.0,phase_1,,,,,,,,,,,,,orange,square
413.0,8.0,4.0,1.0,3.0,3.0,412.6936539996677,4.0,2.0,phase_1,,,,,,,,,,,,,white,flipped triangle
85.0,6.0,1.0,1.0,1.0,1.0,380.5444139998144,4.0,1.0,phase_1,,,,,,,,,,,,,blue,circle
188.0,7.0,2.0,1.0,2.0,2.0,516.4002860001347,4.0,1.0,phase_1,,,,,,,,,,,,,yellow,diamond
0.0,3.0,0.0,0.0,4.0,4.0,447.2198419998676,4.0,1.0,phase_1,,,,,,,,,,,,,magenta,hexagon
411.0,4.0,4.0,0.0,1.0,1.0,360.3849699993589,4.0,1.0,phase_1,,,,,,,,,,,,,cyan,I
199.0,3.0,2.0,0.0,1.0,1.0,382.9192649991455,4.0,1.0,phase_1,,,,,,,,,,,,,magenta,hexagon
95.0,2.0,1.0,0.0,4.0,4.0,487.2051080001256,4.0,1.0,phase_1,,,,,,,,,,,,,green,triangle
411.0,8.0,4.0,1.0,3.0,3.0,357.0203729996137,4.0,1.0,phase_1,,,,,,,,,,,,,white,flipped triangle
0.0,6.0,0.0,1.0,1.0,1.0,326.2899970004582,4.0,1.0,phase_1,,,,,,,,,,,,,blue,circle
0.0,3.0,0.0,0.0,2.0,2.0,360.4550869995364,4.0,1.0,phase_1,,,,,,,,,,,,,magenta,hexagon
180.0,3.0,2.0,0.0,2.0,2.0,373.4773679998397,4.0,1.0,phase_1,,,,,,,,,,,,,magenta,hexagon
0.0,2.0,0.0,0.0,2.0,2.0,376.5946309995343,4.0,1.0,phase_1,,,,,,,,,,,,,green,triangle
0.0,6.0,0.0,1.0,4.0,4.0,414.599931000339,4.0,1.0,phase_1,,,,,,,,,,,,,blue,circle
0.0,5.0,0.0,1.0,4.0,4.0,422.1528100006253,4.0,1.0,phase_1,,,,,,,,,,,,,orange,square
122.0,2.0,1.0,0.0,1.0,1.0,427.0300159996623,4.0,1.0,phase_1,,,,,,,,,,,,,green,triangle
175.0,3.0,2.0,0.0,1.0,1.0,349.9896269995588,4.0,1.0,phase_1,,,,,,,,,,,,,magenta,hexagon
194.0,3.0,2.0,0.0,4.0,4.0,389.5656929998949,4.0,1.0,phase_1,,,,,,,,,,,,,magenta,hexagon
60.0,5.0,0.5,1.0,1.0,1.0,347.5946720000138,4.0,1.0,phase_1,,,,,,,,,,,,,orange,square
49.0,5.0,0.5,1.0,2.0,2.0,397.6216000000931,4.0,1.0,phase_1,,,,,,,,,,,,,orange,square
82.0,2.0,1.0,0.0,2.0,2.0,395.3860780002287,4.0,1.0,phase_1,,,,,,,,,,,,,green,triangle
0.0,5.0,0.0,1.0,4.0,4.0,399.9359350000304,4.0,1.0,phase_1,,,,,,,,,,,,,orange,square
187.0,3.0,2.0,0.0,1.0,1.0,331.5869770003701,4.0,1.0,phase_1,,,,,,,,,,,,,magenta,hexagon
0.0,2.0,0.0,0.0,2.0,2.0,395.1645570004984,4.0,1.0,phase_1,,,,,,,,,,,,,green,triangle
95.0,6.0,1.0,1.0,1.0,1.0,354.00407599991007,4.0,1.0,phase_1,,,,,,,,,,,,,blue,circle
0.0,1.0,0.0,0.0,3.0,3.0,511.8220310005199,4.0,1.0,phase_1,,,,,,,,,,,,,gray,cross
62.0,1.0,0.5,0.0,3.0,3.0,367.5255930002095,4.0,1.0,phase_1,,,,,,,,,,,,,gray,cross
77.0,2.0,1.0,0.0,4.0,4.0,408.9437669999824,4.0,1.0,phase_1,,,,,,,,,,,,,green,triangle
415.0,4.0,4.0,0.0,1.0,1.0,307.1456400002716,4.0,1.0,phase_1,,,,,,,,,,,,,cyan,I
202.0,3.0,2.0,0.0,1.0,1.0,406.8889300006049,4.0,1.0,phase_1,,,,,,,,,,,,,magenta,hexagon
175.0,3.0,2.0,0.0,1.0,1.0,330.4527010004676,4.0,1.0,phase_1,,,,,,,,,,,,,magenta,hexagon
391.0,4.0,4.0,0.0,2.0,2.0,431.9928479999362,4.0,1.0,phase_1,,,,,,,,,,,,,cyan,I
35.0,5.0,0.5,1.0,2.0,2.0,417.2504869993645,4.0,1.0,phase_1,,,,,,,,,,,,,orange,square
0.0,5.0,0.0,1.0,3.0,3.0,349.7129489996951,4.0,1.0,phase_1,,,,,,,,,,,,,orange,square
0.0,4.0,0.0,0.0,1.0,1.0,344.5130629997948,4.0,1.0,phase_1,,,,,,,,,,,,,cyan,I
188.0,3.0,2.0,0.0,4.0,4.0,353.2670570002665,4.0,1.0,phase_1,,,,,,,,,,,,,magenta,hexagon
419.0,8.0,4.0,1.0,3.0,3.0,385.4697810002108,4.0,1.0,phase_1,,,,,,,,,,,,,white,flipped triangle
52.0,1.0,0.5,0.0,2.0,2.0,343.2304380003188,4.0,1.0,phase_1,,,,,,,,,,,,,gray,cross
208.0,7.0,2.0,1.0,1.0,1.0,342.5259679997907,4.0,1.0,phase_1,,,,,,,,,,,,,yellow,diamond
0.0,6.0,1.0,1.0,6.0,6.0,357.8175639995606,1.0,1.0,phase_2,go,250.0,250.0,1.0,,,,,,,,,blue,circle
0.0,1.0,0.5,0.0,6.0,6.0,496.8678059995,1.0,1.0,phase_2,go,250.0,250.0,1.0,,,,,,,,,gray,cross
0.0,2.0,1.0,0.0,5.0,5.0,454.9327559998346,1.0,1.0,phase_2,go,250.0,250.0,1.0,,,,,,,,,green,triangle
0.0,2.0,1.0,0.0,6.0,6.0,365.6737449991851,1.0,1.0,phase_2,go,250.0,250.0,1.0,,,,,,,,,green,triangle
0.0,3.0,2.0,0.0,5.0,5.0,361.3092400000823,1.0,1.0,phase_2,go,250.0,250.0,1.0,,,,,,,,,magenta,hexagon
0.0,7.0,2.0,1.0,6.0,6.0,399.4397559999925,1.0,1.0,phase_2,stop,250.0,250.0,3.0,,,,,,,,,yellow,diamond
0.0,8.0,4.0,1.0,6.0,0.0,0.0,1.0,1.0,phase_2,stop,250.0,200.0,4.0,,,,,,,,,white,flipped triangle
0.0,6.0,1.0,1.0,5.0,0.0,0.0,1.0,1.0,phase_2,stop,250.0,250.0,4.0,,,,,,,,,blue,circle
0.0,5.0,0.5,1.0,5.0,5.0,566.7120529997192,1.0,1.0,phase_2,go,300.0,250.0,1.0,,,,,,,,,orange,square
0.0,2.0,1.0,0.0,6.0,6.0,471.9401180000204,1.0,1.0,phase_2,go,300.0,250.0,1.0,,,,,,,,,green,triangle
0.0,4.0,4.0,0.0,5.0,5.0,564.7818180004833,1.0,1.0,phase_2,go,300.0,250.0,1.0,,,,,,,,,cyan,I
0.0,7.0,2.0,1.0,5.0,5.0,341.3877539996974,1.0,1.0,phase_2,stop,300.0,250.0,3.0,,,,,,,,,yellow,diamond
0.0,6.0,1.0,1.0,5.0,0.0,0.0,1.0,1.0,phase_2,stop,250.0,250.0,4.0,,,,,,,,,blue,circle
0.0,2.0,1.0,0.0,5.0,5.0,819.8631710001791,1.0,1.0,phase_2,go,300.0,250.0,1.0,,,,,,,,,green,triangle
0.0,7.0,2.0,1.0,5.0,5.0,601.0394139993878,1.0,1.0,phase_2,go,300.0,250.0,1.0,,,,,,,,,yellow,diamond
0.0,8.0,4.0,1.0,5.0,0.0,0.0,1.0,1.0,phase_2,stop,300.0,250.0,4.0,,,,,,,,,white,flipped triangle
0.0,3.0,2.0,0.0,5.0,5.0,622.6785769995331,1.0,1.0,phase_2,go,350.0,250.0,1.0,,,,,,,,,magenta,hexagon
0.0,6.0,1.0,1.0,6.0,0.0,0.0,1.0,1.0,phase_2,stop,350.0,250.0,4.0,,,,,,,,,blue,circle
0.0,8.0,4.0,1.0,5.0,5.0,693.7722259999646,1.0,1.0,phase_2,go,350.0,300.0,1.0,,,,,,,,,white,flipped triangle
0.0,1.0,0.5,0.0,5.0,5.0,572.5158470004317,1.0,1.0,phase_2,go,350.0,300.0,1.0,,,,,,,,,gray,cross
0.0,3.0,2.0,0.0,6.0,6.0,556.6253839997444,1.0,1.0,phase_2,go,350.0,300.0,1.0,,,,,,,,,magenta,hexagon
0.0,5.0,0.5,1.0,6.0,6.0,516.11548999972,1.0,1.0,phase_2,go,350.0,300.0,1.0,,,,,,,,,orange,square
0.0,6.0,1.0,1.0,6.0,6.0,722.4256199997399,1.0,1.0,phase_2,go,350.0,300.0,1.0,,,,,,,,,blue,circle
0.0,6.0,1.0,1.0,6.0,0.0,0.0,1.0,1.0,phase_2,stop,350.0,300.0,4.0,,,,,,,,,blue,circle
0.0,8.0,4.0,1.0,6.0,0.0,0.0,1.0,1.0,phase_2,stop,350.0,350.0,4.0,,,,,,,,,white,flipped triangle
0.0,5.0,0.5,1.0,6.0,0.0,0.0,1.0,1.0,phase_2,stop,350.0,400.0,4.0,,,,,,,,,orange,square
0.0,3.0,2.0,0.0,6.0,6.0,756.5959139992628,1.0,1.0,phase_2,go,350.0,450.0,1.0,,,,,,,,,magenta,hexagon
0.0,1.0,0.5,0.0,5.0,5.0,338.8404380002612,1.0,1.0,phase_2,go,350.0,450.0,1.0,,,,,,,,,gray,cross
0.0,3.0,2.0,0.0,5.0,5.0,658.9209230005508,1.0,1.0,phase_2,go,350.0,450.0,1.0,,,,,,,,,magenta,hexagon
0.0,8.0,4.0,1.0,5.0,0.0,0.0,1.0,1.0,phase_2,stop,350.0,450.0,4.0,,,,,,,,,white,flipped triangle
0.0,6.0,1.0,1.0,6.0,6.0,585.3250239997578,1.0,1.0,phase_2,stop,400.0,450.0,3.0,,,,,,,,,blue,circle
0.0,3.0,2.0,0.0,5.0,5.0,858.7032880004699,1.0,1.0,phase_2,go,400.0,400.0,1.0,,,,,,,,,magenta,hexagon
0.0,5.0,0.5,1.0,6.0,0.0,0.0,1.0,1.0,phase_2,stop,400.0,400.0,4.0,,,,,,,,,orange,square
0.0,7.0,2.0,1.0,6.0,0.0,0.0,1.0,1.0,phase_2,stop,400.0,450.0,4.0,,,,,,,,,yellow,diamond
0.0,2.0,1.0,0.0,5.0,5.0,610.4805280001528,1.0,1.0,phase_2,go,400.0,500.0,1.0,,,,,,,,,green,triangle
0.0,7.0,2.0,1.0,6.0,0.0,0.0,1.0,1.0,phase_2,stop,400.0,500.0,4.0,,,,,,,,,yellow,diamond
0.0,2.0,1.0,0.0,6.0,6.0,458.37456199933507,2.0,1.0,phase_2,go,400.0,550.0,1.0,,,,,,,,,green,triangle
0.0,4.0,4.0,0.0,5.0,5.0,439.0298019998226,2.0,1.0,phase_2,go,400.0,550.0,1.0,,,,,,,,,cyan,I
0.0,1.0,0.5,0.0,5.0,5.0,456.0925579999093,2.0,1.0,phase_2,go,400.0,550.0,1.0,,,,,,,,,gray,cross
0.0,7.0,2.0,1.0,5.0,0.0,0.0,2.0,1.0,phase_2,stop,400.0,550.0,4.0,,,,,,,,,yellow,diamond
0.0,3.0,2.0,0.0,5.0,5.0,497.852710999723,2.0,1.0,phase_2,go,450.0,550.0,1.0,,,,,,,,,magenta,hexagon
0.0,1.0,0.5,0.0,5.0,5.0,402.5497889997496,2.0,1.0,phase_2,go,450.0,550.0,1.0,,,,,,,,,gray,cross
0.0,4.0,4.0,0.0,6.0,6.0,381.3182399999277,2.0,1.0,phase_2,go,450.0,550.0,1.0,,,,,,,,,cyan,I
0.0,1.0,0.5,0.0,6.0,6.0,408.1469399998241,2.0,1.0,phase_2,go,450.0,550.0,1.0,,,,,,,,,gray,cross
0.0,5.0,0.5,1.0,5.0,5.0,352.1786530000099,2.0,1.0,phase_2,stop,450.0,550.0,3.0,,,,,,,,,orange,square
0.0,6.0,1.0,1.0,6.0,6.0,603.1035510004585,2.0,1.0,phase_2,stop,400.0,550.0,3.0,,,,,,,,,blue,circle
0.0,5.0,0.5,1.0,5.0,0.0,0.0,2.0,1.0,phase_2,stop,400.0,500.0,4.0,,,,,,,,,orange,square
0.0,3.0,2.0,0.0,6.0,6.0,696.2635199997749,2.0,1.0,phase_2,go,450.0,500.0,1.0,,,,,,,,,magenta,hexagon
0.0,5.0,0.5,1.0,6.0,0.0,0.0,2.0,1.0,phase_2,stop,450.0,500.0,4.0,,,,,,,,,orange,square
0.0,4.0,4.0,0.0,5.0,5.0,715.2172330006579,2.0,1.0,phase_2,go,450.0,550.0,1.0,,,,,,,,,cyan,I
0.0,6.0,1.0,1.0,5.0,5.0,738.4276200000386,2.0,1.0,phase_2,go,450.0,550.0,1.0,,,,,,,,,blue,circle
0.0,6.0,1.0,1.0,5.0,5.0,482.1182220002811,2.0,1.0,phase_2,stop,450.0,550.0,3.0,,,,,,,,,blue,circle
0.0,8.0,4.0,1.0,5.0,0.0,0.0,2.0,1.0,phase_2,stop,400.0,550.0,4.0,,,,,,,,,white,flipped triangle
0.0,4.0,4.0,0.0,6.0,6.0,543.6827069997889,2.0,1.0,phase_2,go,450.0,550.0,1.0,,,,,,,,,cyan,I
0.0,7.0,2.0,1.0,6.0,6.0,581.54706500045,2.0,1.0,phase_2,stop,450.0,550.0,3.0,,,,,,,,,yellow,diamond
0.0,5.0,0.5,1.0,5.0,0.0,0.0,2.0,1.0,phase_2,stop,450.0,500.0,4.0,,,,,,,,,orange,square
0.0,1.0,0.5,0.0,5.0,5.0,748.4887470000103,2.0,1.0,phase_2,go,500.0,500.0,1.0,,,,,,,,,gray,cross
0.0,7.0,2.0,1.0,5.0,5.0,488.9848759994493,2.0,1.0,phase_2,stop,500.0,500.0,3.0,,,,,,,,,yellow,diamond
0.0,5.0,0.5,1.0,5.0,0.0,0.0,2.0,1.0,phase_2,stop,450.0,500.0,4.0,,,,,,,,,orange,square
0.0,8.0,4.0,1.0,6.0,6.0,619.994675000271,2.0,1.0,phase_2,stop,500.0,500.0,3.0,,,,,,,,,white,flipped triangle
0.0,1.0,0.5,0.0,5.0,5.0,754.3120390000695,2.0,1.0,phase_2,go,500.0,450.0,1.0,,,,,,,,,gray,cross
0.0,3.0,2.0,0.0,5.0,5.0,696.876732000419,2.0,1.0,phase_2,go,500.0,450.0,1.0,,,,,,,,,magenta,hexagon
0.0,4.0,4.0,0.0,5.0,5.0,685.3767250004239,2.0,1.0,phase_2,go,500.0,450.0,1.0,,,,,,,,,cyan,I
0.0,7.0,2.0,1.0,5.0,5.0,673.1515230003424,2.0,1.0,phase_2,stop,500.0,450.0,3.0,,,,,,,,,yellow,diamond
0.0,6.0,1.0,1.0,5.0,0.0,0.0,2.0,1.0,phase_2,stop,450.0,450.0,4.0,,,,,,,,,blue,circle
0.0,6.0,1.0,1.0,6.0,6.0,822.1246139992218,2.0,1.0,phase_2,go,500.0,450.0,1.0,,,,,,,,,blue,circle
0.0,8.0,4.0,1.0,6.0,6.0,494.4005400002424,2.0,1.0,phase_2,stop,500.0,450.0,3.0,,,,,,,,,white,flipped triangle
0.0,5.0,0.5,1.0,6.0,6.0,869.2363899999691,2.0,1.0,phase_2,go,500.0,400.0,1.0,,,,,,,,,orange,square
0.0,8.0,4.0,1.0,5.0,0.0,0.0,2.0,1.0,phase_2,stop,500.0,400.0,4.0,,,,,,,,,white,flipped triangle
0.0,5.0,0.5,1.0,5.0,0.0,0.0,2.0,1.0,phase_2,stop,550.0,400.0,4.0,,,,,,,,,orange,square
0.0,3.0,2.0,0.0,5.0,5.0,908.3517369999754,2.0,1.0,phase_2,go,600.0,400.0,1.0,,,,,,,,,magenta,hexagon
0.0,4.0,4.0,0.0,5.0,5.0,725.4467619995921,2.0,1.0,phase_2,go,600.0,400.0,1.0,,,,,,,,,cyan,I
0.0,4.0,4.0,0.0,5.0,5.0,420.8360450002146,3.0,1.0,phase_2,go,600.0,400.0,1.0,,,,,,,,,cyan,I
0.0,8.0,4.0,1.0,6.0,6.0,477.1743740002421,3.0,1.0,phase_2,go,600.0,400.0,1.0,,,,,,,,,white,flipped triangle
0.0,6.0,1.0,1.0,6.0,0.0,0.0,3.0,1.0,phase_2,stop,600.0,400.0,4.0,,,,,,,,,blue,circle
0.0,1.0,0.5,0.0,6.0,6.0,478.6977710000428,3.0,1.0,phase_2,go,600.0,450.0,1.0,,,,,,,,,gray,cross
0.0,8.0,4.0,1.0,5.0,5.0,373.3948819999568,3.0,1.0,phase_2,go,600.0,450.0,1.0,,,,,,,,,white,flipped triangle
0.0,5.0,0.5,1.0,6.0,6.0,328.8454069997897,3.0,1.0,phase_2,stop,600.0,450.0,3.0,,,,,,,,,orange,square
0.0,4.0,4.0,0.0,5.0,5.0,433.7679179998304,3.0,1.0,phase_2,go,600.0,400.0,1.0,,,,,,,,,cyan,I
0.0,5.0,0.5,1.0,6.0,0.0,0.0,3.0,1.0,phase_2,stop,600.0,400.0,4.0,,,,,,,,,orange,square
0.0,2.0,1.0,0.0,6.0,6.0,790.4643649999343,3.0,1.0,phase_2,go,600.0,450.0,1.0,,,,,,,,,green,triangle
0.0,8.0,4.0,1.0,6.0,0.0,0.0,3.0,1.0,phase_2,stop,600.0,450.0,4.0,,,,,,,,,white,flipped triangle
0.0,1.0,0.5,0.0,5.0,5.0,757.8999520001162,3.0,1.0,phase_2,go,600.0,500.0,1.0,,,,,,,,,gray,cross
0.0,5.0,0.5,1.0,6.0,0.0,0.0,3.0,1.0,phase_2,stop,600.0,500.0,4.0,,,,,,,,,orange,square
0.0,1.0,0.5,0.0,5.0,5.0,460.1582539999072,3.0,1.0,phase_2,go,600.0,550.0,1.0,,,,,,,,,gray,cross
0.0,5.0,0.5,1.0,5.0,0.0,0.0,3.0,1.0,phase_2,stop,600.0,550.0,4.0,,,,,,,,,orange,square
0.0,6.0,1.0,1.0,6.0,0.0,0.0,3.0,1.0,phase_2,stop,650.0,550.0,4.0,,,,,,,,,blue,circle
0.0,7.0,2.0,1.0,6.0,6.0,831.8563840002753,3.0,1.0,phase_2,go,650.0,600.0,1.0,,,,,,,,,yellow,diamond
0.0,5.0,0.5,1.0,6.0,0.0,0.0,3.0,1.0,phase_2,stop,650.0,600.0,4.0,,,,,,,,,orange,square
0.0,1.0,0.5,0.0,5.0,5.0,822.2384789996795,3.0,1.0,phase_2,go,650.0,650.0,1.0,,,,,,,,,gray,cross
0.0,6.0,1.0,1.0,5.0,5.0,1008.1780439995782,3.0,1.0,phase_2,go,650.0,650.0,1.0,,,,,,,,,blue,circle
0.0,1.0,0.5,0.0,5.0,5.0,449.5804670004872,3.0,1.0,phase_2,go,650.0,650.0,1.0,,,,,,,,,gray,cross
0.0,8.0,4.0,1.0,5.0,5.0,626.7569989995536,3.0,1.0,phase_2,stop,650.0,650.0,3.0,,,,,,,,,white,flipped triangle
0.0,4.0,4.0,0.0,6.0,6.0,606.1442879999959,3.0,1.0,phase_2,go,600.0,650.0,1.0,,,,,,,,,cyan,I
0.0,1.0,0.5,0.0,6.0,6.0,473.4555439999894,3.0,1.0,phase_2,go,600.0,650.0,1.0,,,,,,,,,gray,cross
0.0,7.0,2.0,1.0,5.0,5.0,681.7270750007083,3.0,1.0,phase_2,stop,600.0,650.0,3.0,,,,,,,,,yellow,diamond
0.0,4.0,4.0,0.0,5.0,5.0,657.3878950002836,3.0,1.0,phase_2,go,550.0,650.0,1.0,,,,,,,,,cyan,I
0.0,8.0,4.0,1.0,6.0,6.0,741.4685900002951,3.0,1.0,phase_2,stop,550.0,650.0,3.0,,,,,,,,,white,flipped triangle
0.0,4.0,4.0,0.0,6.0,6.0,631.0724400000254,3.0,1.0,phase_2,go,550.0,600.0,1.0,,,,,,,,,cyan,I
0.0,2.0,1.0,0.0,5.0,5.0,1069.5497690003322,3.0,1.0,phase_2,go,550.0,600.0,1.0,,,,,,,,,green,triangle
0.0,4.0,4.0,0.0,6.0,6.0,407.2559589994853,3.0,1.0,phase_2,go,550.0,600.0,1.0,,,,,,,,,cyan,I
0.0,6.0,1.0,1.0,6.0,0.0,0.0,3.0,1.0,phase_2,stop,550.0,600.0,4.0,,,,,,,,,blue,circle
0.0,4.0,4.0,0.0,6.0,6.0,538.6775330007367,3.0,1.0,phase_2,go,550.0,650.0,1.0,,,,,,,,,cyan,I
0.0,4.0,4.0,0.0,5.0,5.0,495.9478149994538,3.0,1.0,phase_2,go,550.0,650.0,1.0,,,,,,,,,cyan,I
0.0,4.0,4.0,0.0,6.0,6.0,408.1124660006026,3.0,1.0,phase_2,go,550.0,650.0,1.0,,,,,,,,,cyan,I
0.0,3.0,2.0,0.0,5.0,5.0,865.0379310001881,3.0,1.0,phase_2,go,550.0,650.0,1.0,,,,,,,,,magenta,hexagon
0.0,8.0,4.0,1.0,5.0,5.0,935.8351500004574,3.0,1.0,phase_2,go,550.0,650.0,1.0,,,,,,,,,white,flipped triangle
0.0,2.0,1.0,0.0,5.0,5.0,941.589926999768,3.0,1.0,phase_2,go,550.0,650.0,1.0,,,,,,,,,green,triangle
0.0,7.0,2.0,1.0,5.0,5.0,455.5817760001446,4.0,1.0,phase_2,stop,550.0,650.0,3.0,,,,,,,,,yellow,diamond
0.0,5.0,0.5,1.0,5.0,5.0,785.9673619996101,4.0,1.0,phase_2,go,500.0,650.0,1.0,,,,,,,,,orange,square
0.0,3.0,2.0,0.0,5.0,5.0,383.9192260002164,4.0,1.0,phase_2,go,500.0,650.0,1.0,,,,,,,,,magenta,hexagon
0.0,8.0,4.0,1.0,5.0,5.0,704.7095249999984,4.0,1.0,phase_2,stop,500.0,650.0,3.0,,,,,,,,,white,flipped triangle
0.0,2.0,1.0,0.0,6.0,6.0,692.7663159995063,4.0,1.0,phase_2,go,450.0,650.0,1.0,,,,,,,,,green,triangle
0.0,4.0,4.0,0.0,6.0,6.0,441.4851880001151,4.0,1.0,phase_2,go,450.0,650.0,1.0,,,,,,,,,cyan,I
0.0,5.0,0.5,1.0,6.0,6.0,552.0117229998505,4.0,1.0,phase_2,stop,450.0,650.0,3.0,,,,,,,,,orange,square
0.0,3.0,2.0,0.0,6.0,6.0,641.4477609996538,4.0,1.0,phase_2,go,450.0,600.0,1.0,,,,,,,,,magenta,hexagon
0.0,6.0,1.0,1.0,5.0,0.0,0.0,4.0,1.0,phase_2,stop,450.0,600.0,4.0,,,,,,,,,blue,circle
0.0,5.0,0.5,1.0,5.0,5.0,992.5511490000644,4.0,1.0,phase_2,go,500.0,600.0,1.0,,,,,,,,,orange,square
0.0,5.0,0.5,1.0,6.0,6.0,826.5875869992669,4.0,1.0,phase_2,go,500.0,600.0,1.0,,,,,,,,,orange,square
0.0,8.0,4.0,1.0,6.0,0.0,0.0,4.0,1.0,phase_2,stop,500.0,600.0,4.0,,,,,,,,,white,flipped triangle
0.0,3.0,2.0,0.0,6.0,6.0,628.7529750006797,4.0,1.0,phase_2,go,500.0,650.0,1.0,,,,,,,,,magenta,hexagon
0.0,2.0,1.0,0.0,5.0,5.0,300.0362410002708,4.0,1.0,phase_2,go,500.0,650.0,1.0,,,,,,,,,green,triangle
0.0,2.0,1.0,0.0,5.0,5.0,645.487366999987,4.0,1.0,phase_2,go,500.0,650.0,1.0,,,,,,,,,green,triangle
0.0,8.0,4.0,1.0,5.0,5.0,835.5453909998687,4.0,1.0,phase_2,go,500.0,650.0,1.0,,,,,,,,,white,flipped triangle
0.0,2.0,1.0,0.0,5.0,5.0,757.046239000374,4.0,1.0,phase_2,go,500.0,650.0,1.0,,,,,,,,,green,triangle
0.0,7.0,2.0,1.0,5.0,5.0,323.3908160000283,4.0,1.0,phase_2,stop,500.0,650.0,3.0,,,,,,,,,yellow,diamond
0.0,8.0,4.0,1.0,5.0,0.0,0.0,4.0,1.0,phase_2,stop,450.0,650.0,4.0,,,,,,,,,white,flipped triangle
0.0,3.0,2.0,0.0,6.0,6.0,538.1295560000581,4.0,1.0,phase_2,go,500.0,650.0,1.0,,,,,,,,,magenta,hexagon
0.0,8.0,4.0,1.0,6.0,6.0,784.5188979999875,4.0,1.0,phase_2,go,500.0,650.0,1.0,,,,,,,,,white,flipped triangle
0.0,4.0,4.0,0.0,6.0,6.0,562.5681869996697,4.0,1.0,phase_2,go,500.0,650.0,1.0,,,,,,,,,cyan,I
0.0,6.0,1.0,1.0,6.0,6.0,786.3191739998001,4.0,1.0,phase_2,stop,500.0,650.0,3.0,,,,,,,,,blue,circle
0.0,7.0,2.0,1.0,6.0,6.0,665.7254750007269,4.0,1.0,phase_2,stop,500.0,600.0,3.0,,,,,,,,,yellow,diamond
0.0,3.0,2.0,0.0,6.0,6.0,850.8565490001274,4.0,1.0,phase_2,go,500.0,550.0,1.0,,,,,,,,,magenta,hexagon
0.0,3.0,2.0,0.0,6.0,6.0,775.9996039994803,4.0,1.0,phase_2,go,500.0,550.0,1.0,,,,,,,,,magenta,hexagon
0.0,5.0,0.5,1.0,6.0,0.0,0.0,4.0,1.0,phase_2,stop,500.0,550.0,4.0,,,,,,,,,orange,square
0.0,2.0,1.0,0.0,5.0,5.0,690.4400109997368,4.0,1.0,phase_2,go,500.0,600.0,1.0,,,,,,,,,green,triangle
0.0,4.0,4.0,0.0,5.0,5.0,565.1241739997204,4.0,1.0,phase_2,go,500.0,600.0,1.0,,,,,,,,,cyan,I
0.0,6.0,1.0,1.0,5.0,0.0,0.0,4.0,1.0,phase_2,stop,500.0,600.0,4.0,,,,,,,,,blue,circle
0.0,1.0,0.5,0.0,5.0,5.0,563.4062950002772,4.0,1.0,phase_2,go,550.0,600.0,1.0,,,,,,,,,gray,cross
0.0,1.0,0.5,0.0,6.0,6.0,525.8054709993303,4.0,1.0,phase_2,go,550.0,600.0,1.0,,,,,,,,,gray,cross
0.0,6.0,1.0,1.0,5.0,0.0,0.0,4.0,1.0,phase_2,stop,550.0,600.0,4.0,,,,,,,,,blue,circle
0.0,6.0,1.0,1.0,5.0,0.0,0.0,4.0,1.0,phase_2,stop,600.0,600.0,4.0,,,,,,,,,blue,circle
0.0,5.0,0.5,1.0,6.0,6.0,752.6609879996613,4.0,1.0,phase_2,stop,650.0,600.0,3.0,,,,,,,,,orange,square
0.0,7.0,2.0,1.0,6.0,6.0,813.2102319996193,4.0,1.0,phase_2,go,650.0,550.0,1.0,,,,,,,,,yellow,diamond
0.0,1.0,0.5,0.0,6.0,6.0,436.7581520000385,5.0,1.0,phase_2,go,650.0,550.0,1.0,,,,,,,,,gray,cross
0.0,2.0,1.0,0.0,6.0,6.0,806.2421110007563,5.0,1.0,phase_2,go,650.0,550.0,1.0,,,,,,,,,green,triangle
0.0,3.0,2.0,0.0,5.0,5.0,494.0465890003906,5.0,1.0,phase_2,go,650.0,550.0,1.0,,,,,,,,,magenta,hexagon
0.0,2.0,1.0,0.0,5.0,5.0,401.6124340005262,5.0,1.0,phase_2,go,650.0,550.0,1.0,,,,,,,,,green,triangle
0.0,8.0,4.0,1.0,6.0,6.0,364.8410940004396,5.0,1.0,phase_2,stop,650.0,550.0,3.0,,,,,,,,,white,flipped triangle
0.0,7.0,2.0,1.0,6.0,6.0,538.6879699999554,5.0,1.0,phase_2,stop,650.0,500.0,3.0,,,,,,,,,yellow,diamond
0.0,4.0,4.0,0.0,5.0,5.0,511.4225699999224,5.0,1.0,phase_2,go,650.0,450.0,1.0,,,,,,,,,cyan,I
0.0,3.0,2.0,0.0,6.0,6.0,698.0875580002248,5.0,1.0,phase_2,go,650.0,450.0,1.0,,,,,,,,,magenta,hexagon
0.0,2.0,1.0,0.0,5.0,5.0,653.2923400000072,5.0,1.0,phase_2,go,650.0,450.0,1.0,,,,,,,,,green,triangle
0.0,1.0,0.5,0.0,5.0,5.0,369.3500520002999,5.0,1.0,phase_2,go,650.0,450.0,1.0,,,,,,,,,gray,cross
0.0,2.0,1.0,0.0,6.0,6.0,593.568769999365,5.0,1.0,phase_2,go,650.0,450.0,1.0,,,,,,,,,green,triangle
0.0,1.0,0.5,0.0,6.0,6.0,490.6914060002236,5.0,1.0,phase_2,go,650.0,450.0,1.0,,,,,,,,,gray,cross
0.0,7.0,2.0,1.0,6.0,0.0,0.0,5.0,1.0,phase_2,stop,650.0,450.0,4.0,,,,,,,,,yellow,diamond
0.0,3.0,2.0,0.0,5.0,5.0,482.9656440006147,5.0,1.0,phase_2,go,650.0,500.0,1.0,,,,,,,,,magenta,hexagon
0.0,2.0,1.0,0.0,5.0,5.0,518.3373949994348,5.0,1.0,phase_2,go,650.0,500.0,1.0,,,,,,,,,green,triangle
0.0,3.0,2.0,0.0,5.0,5.0,407.2525709998444,5.0,1.0,phase_2,go,650.0,500.0,1.0,,,,,,,,,magenta,hexagon
0.0,2.0,1.0,0.0,5.0,5.0,599.9515480007176,5.0,1.0,phase_2,go,650.0,500.0,1.0,,,,,,,,,green,triangle
0.0,5.0,0.5,1.0,5.0,0.0,0.0,5.0,1.0,phase_2,stop,650.0,500.0,4.0,,,,,,,,,orange,square
0.0,8.0,4.0,1.0,5.0,5.0,1050.0257869998677,5.0,1.0,phase_2,go,700.0,500.0,1.0,,,,,,,,,white,flipped triangle
0.0,3.0,2.0,0.0,5.0,5.0,379.589451999891,5.0,1.0,phase_2,go,700.0,500.0,1.0,,,,,,,,,magenta,hexagon
0.0,5.0,0.5,1.0,5.0,5.0,900.0214630004848,5.0,1.0,phase_2,go,700.0,500.0,1.0,,,,,,,,,orange,square
0.0,2.0,1.0,0.0,6.0,6.0,478.1281840005249,5.0,1.0,phase_2,go,700.0,500.0,1.0,,,,,,,,,green,triangle
0.0,5.0,0.5,1.0,6.0,0.0,0.0,5.0,1.0,phase_2,stop,700.0,500.0,4.0,,,,,,,,,orange,square
0.0,4.0,4.0,0.0,5.0,5.0,491.3383940001949,5.0,1.0,phase_2,go,700.0,550.0,1.0,,,,,,,,,cyan,I
0.0,7.0,2.0,1.0,5.0,5.0,879.5163250006226,5.0,1.0,phase_2,go,700.0,550.0,1.0,,,,,,,,,yellow,diamond
0.0,4.0,4.0,0.0,6.0,6.0,469.364955999481,5.0,1.0,phase_2,go,700.0,550.0,1.0,,,,,,,,,cyan,I
0.0,6.0,1.0,1.0,5.0,5.0,318.6784669996996,5.0,1.0,phase_2,stop,700.0,550.0,3.0,,,,,,,,,blue,circle
0.0,5.0,0.5,1.0,6.0,6.0,863.1801069996072,5.0,1.0,phase_2,go,650.0,550.0,1.0,,,,,,,,,orange,square
0.0,1.0,0.5,0.0,5.0,5.0,447.3801700005424,5.0,1.0,phase_2,go,650.0,550.0,1.0,,,,,,,,,gray,cross
0.0,7.0,2.0,1.0,6.0,0.0,0.0,5.0,1.0,phase_2,stop,650.0,550.0,4.0,,,,,,,,,yellow,diamond
0.0,8.0,4.0,1.0,5.0,5.0,689.5649729995057,5.0,1.0,phase_2,stop,650.0,600.0,3.0,,,,,,,,,white,flipped triangle
0.0,6.0,1.0,1.0,5.0,5.0,879.8066750005091,5.0,1.0,phase_2,go,600.0,600.0,1.0,,,,,,,,,blue,circle
0.0,3.0,2.0,0.0,6.0,6.0,308.1517420005184,5.0,1.0,phase_2,go,600.0,600.0,1.0,,,,,,,,,magenta,hexagon
0.0,1.0,0.5,0.0,6.0,6.0,518.1793339997967,5.0,1.0,phase_2,go,600.0,600.0,1.0,,,,,,,,,gray,cross
0.0,2.0,1.0,0.0,5.0,5.0,641.4854149998064,5.0,1.0,phase_2,go,600.0,600.0,1.0,,,,,,,,,green,triangle
0.0,2.0,1.0,0.0,5.0,5.0,443.4426879997772,5.0,1.0,phase_2,go,600.0,600.0,1.0,,,,,,,,,green,triangle
0.0,7.0,2.0,1.0,5.0,5.0,379.5963630000187,6.0,1.0,phase_2,stop,600.0,600.0,3.0,,,,,,,,,yellow,diamond
0.0,2.0,1.0,0.0,5.0,5.0,557.3070410000582,6.0,1.0,phase_2,go,550.0,600.0,1.0,,,,,,,,,green,triangle
0.0,4.0,4.0,0.0,6.0,6.0,346.8870000006063,6.0,1.0,phase_2,go,550.0,600.0,1.0,,,,,,,,,cyan,I
0.0,5.0,0.5,1.0,5.0,5.0,764.9295319997691,6.0,1.0,phase_2,stop,550.0,600.0,3.0,,,,,,,,,orange,square
0.0,7.0,2.0,1.0,6.0,6.0,925.6949569999052,6.0,1.0,phase_2,go,500.0,600.0,1.0,,,,,,,,,yellow,diamond
0.0,7.0,2.0,1.0,5.0,5.0,868.6418859997502,6.0,1.0,phase_2,go,500.0,600.0,1.0,,,,,,,,,yellow,diamond
0.0,3.0,2.0,0.0,5.0,5.0,425.7516260004195,6.0,1.0,phase_2,go,500.0,600.0,1.0,,,,,,,,,magenta,hexagon
0.0,5.0,0.5,1.0,6.0,0.0,0.0,6.0,1.0,phase_2,stop,500.0,600.0,4.0,,,,,,,,,orange,square
0.0,7.0,2.0,1.0,6.0,0.0,0.0,6.0,1.0,phase_2,stop,500.0,650.0,4.0,,,,,,,,,yellow,diamond
0.0,1.0,0.5,0.0,6.0,6.0,491.230749999886,6.0,1.0,phase_2,go,500.0,700.0,1.0,,,,,,,,,gray,cross
0.0,8.0,4.0,1.0,5.0,0.0,0.0,6.0,1.0,phase_2,stop,500.0,700.0,4.0,,,,,,,,,white,flipped triangle
0.0,4.0,4.0,0.0,6.0,6.0,478.7773660000312,6.0,1.0,phase_2,go,550.0,700.0,1.0,,,,,,,,,cyan,I
0.0,4.0,4.0,0.0,6.0,6.0,423.5061310000674,6.0,1.0,phase_2,go,550.0,700.0,1.0,,,,,,,,,cyan,I
0.0,5.0,0.5,1.0,6.0,0.0,0.0,6.0,1.0,phase_2,stop,550.0,700.0,4.0,,,,,,,,,orange,square
0.0,6.0,1.0,1.0,5.0,0.0,0.0,6.0,1.0,phase_2,stop,550.0,750.0,4.0,,,,,,,,,blue,circle
0.0,4.0,4.0,0.0,5.0,5.0,520.0449080002727,6.0,1.0,phase_2,go,600.0,750.0,1.0,,,,,,,,,cyan,I
0.0,7.0,2.0,1.0,6.0,6.0,905.4817460000776,6.0,1.0,phase_2,go,600.0,750.0,1.0,,,,,,,,,yellow,diamond
0.0,3.0,2.0,0.0,6.0,6.0,422.0941789999415,6.0,1.0,phase_2,go,600.0,750.0,1.0,,,,,,,,,magenta,hexagon
0.0,4.0,4.0,0.0,6.0,6.0,484.2150539998329,6.0,1.0,phase_2,go,600.0,750.0,1.0,,,,,,,,,cyan,I
0.0,4.0,4.0,0.0,6.0,6.0,385.19301300038927,6.0,1.0,phase_2,go,600.0,750.0,1.0,,,,,,,,,cyan,I
0.0,7.0,2.0,1.0,5.0,0.0,0.0,6.0,1.0,phase_2,stop,600.0,750.0,4.0,,,,,,,,,yellow,diamond
0.0,6.0,1.0,1.0,6.0,0.0,0.0,6.0,1.0,phase_2,stop,650.0,750.0,4.0,,,,,,,,,blue,circle
0.0,8.0,4.0,1.0,5.0,0.0,0.0,6.0,1.0,phase_2,stop,650.0,800.0,4.0,,,,,,,,,white,flipped triangle
0.0,3.0,2.0,0.0,6.0,6.0,616.8475079994096,6.0,1.0,phase_2,go,700.0,800.0,1.0,,,,,,,,,magenta,hexagon
0.0,7.0,2.0,1.0,5.0,5.0,793.6163690001194,6.0,1.0,phase_2,stop,700.0,800.0,3.0,,,,,,,,,yellow,diamond
0.0,7.0,2.0,1.0,5.0,0.0,0.0,6.0,1.0,phase_2,stop,650.0,800.0,4.0,,,,,,,,,yellow,diamond
0.0,8.0,4.0,1.0,5.0,5.0,951.0361499997088,6.0,1.0,phase_2,go,700.0,800.0,1.0,,,,,,,,,white,flipped triangle
0.0,2.0,1.0,0.0,6.0,6.0,585.4958169993552,6.0,1.0,phase_2,go,700.0,800.0,1.0,,,,,,,,,green,triangle
0.0,8.0,4.0,1.0,6.0,0.0,0.0,6.0,1.0,phase_2,stop,700.0,800.0,4.0,,,,,,,,,white,flipped triangle
0.0,7.0,2.0,1.0,5.0,0.0,0.0,6.0,1.0,phase_2,stop,700.0,850.0,4.0,,,,,,,,,yellow,diamond
0.0,7.0,2.0,1.0,5.0,0.0,0.0,6.0,1.0,phase_2,stop,750.0,850.0,4.0,,,,,,,,,yellow,diamond
0.0,1.0,0.5,0.0,6.0,6.0,506.26678800017544,6.0,1.0,phase_2,go,800.0,850.0,1.0,,,,,,,,,gray,cross
0.0,6.0,1.0,1.0,6.0,0.0,0.0,6.0,1.0,phase_2,stop,800.0,850.0,4.0,,,,,,,,,blue,circle
0.0,3.0,2.0,0.0,6.0,6.0,915.4731839998932,6.0,1.0,phase_2,go,800.0,900.0,1.0,,,,,,,,,magenta,hexagon
0.0,1.0,0.5,0.0,6.0,6.0,431.1409129995809,6.0,1.0,phase_2,go,800.0,900.0,1.0,,,,,,,,,gray,cross
0.0,1.0,0.5,0.0,6.0,6.0,364.835681999466,6.0,1.0,phase_2,go,800.0,900.0,1.0,,,,,,,,,gray,cross
0.0,1.0,0.5,0.0,6.0,6.0,440.3173990003779,7.0,1.0,phase_2,go,800.0,900.0,1.0,,,,,,,,,gray,cross
0.0,8.0,4.0,1.0,6.0,6.0,455.5644309994022,7.0,1.0,phase_2,stop,800.0,900.0,3.0,,,,,,,,,white,flipped triangle
0.0,3.0,2.0,0.0,5.0,5.0,549.9442000000272,7.0,1.0,phase_2,go,800.0,850.0,1.0,,,,,,,,,magenta,hexagon
0.0,2.0,1.0,0.0,6.0,6.0,785.1602760001697,7.0,1.0,phase_2,go,800.0,850.0,1.0,,,,,,,,,green,triangle
0.0,7.0,2.0,1.0,5.0,5.0,519.2451259999871,7.0,1.0,phase_2,stop,800.0,850.0,3.0,,,,,,,,,yellow,diamond
0.0,6.0,1.0,1.0,5.0,5.0,1227.020186000118,7.0,1.0,phase_2,go,750.0,850.0,1.0,,,,,,,,,blue,circle
0.0,2.0,1.0,0.0,6.0,6.0,418.6143010001615,7.0,1.0,phase_2,go,750.0,850.0,1.0,,,,,,,,,green,triangle
0.0,7.0,2.0,1.0,6.0,6.0,790.9418279996316,7.0,1.0,phase_2,stop,750.0,850.0,3.0,,,,,,,,,yellow,diamond
0.0,3.0,2.0,0.0,6.0,6.0,505.03873599973303,7.0,1.0,phase_2,go,750.0,800.0,1.0,,,,,,,,,magenta,hexagon
0.0,4.0,4.0,0.0,6.0,6.0,393.4713070002544,7.0,1.0,phase_2,go,750.0,800.0,1.0,,,,,,,,,cyan,I
0.0,2.0,1.0,0.0,6.0,6.0,741.480013999535,7.0,1.0,phase_2,go,750.0,800.0,1.0,,,,,,,,,green,triangle
0.0,8.0,4.0,1.0,6.0,6.0,899.5867379999254,7.0,1.0,phase_2,stop,750.0,800.0,3.0,,,,,,,,,white,flipped triangle
0.0,7.0,2.0,1.0,6.0,0.0,0.0,7.0,1.0,phase_2,stop,750.0,750.0,4.0,,,,,,,,,yellow,diamond
0.0,6.0,1.0,1.0,5.0,0.0,0.0,7.0,1.0,phase_2,stop,750.0,800.0,4.0,,,,,,,,,blue,circle
0.0,5.0,0.5,1.0,5.0,5.0,1305.0097119994462,7.0,1.0,phase_2,go,800.0,800.0,1.0,,,,,,,,,orange,square
0.0,6.0,1.0,1.0,6.0,0.0,0.0,7.0,1.0,phase_2,stop,800.0,800.0,4.0,,,,,,,,,blue,circle
0.0,5.0,0.5,1.0,5.0,5.0,782.9550989999916,7.0,1.0,phase_2,stop,800.0,850.0,3.0,,,,,,,,,orange,square
0.0,8.0,4.0,1.0,6.0,0.0,0.0,7.0,1.0,phase_2,stop,750.0,850.0,4.0,,,,,,,,,white,flipped triangle
0.0,8.0,4.0,1.0,6.0,6.0,1201.108569999633,7.0,1.0,phase_2,go,750.0,900.0,1.0,,,,,,,,,white,flipped triangle
0.0,5.0,0.5,1.0,6.0,0.0,0.0,7.0,1.0,phase_2,stop,750.0,900.0,4.0,,,,,,,,,orange,square
0.0,1.0,0.5,0.0,6.0,6.0,579.1015329996299,7.0,1.0,phase_2,go,750.0,950.0,1.0,,,,,,,,,gray,cross
0.0,1.0,0.5,0.0,5.0,5.0,548.315215999537,7.0,1.0,phase_2,go,750.0,950.0,1.0,,,,,,,,,gray,cross
0.0,2.0,1.0,0.0,6.0,6.0,534.7619819995089,7.0,1.0,phase_2,go,750.0,950.0,1.0,,,,,,,,,green,triangle
0.0,3.0,2.0,0.0,6.0,6.0,490.3323260004981,7.0,1.0,phase_2,go,750.0,950.0,1.0,,,,,,,,,magenta,hexagon
0.0,4.0,4.0,0.0,6.0,6.0,795.8273349995579,7.0,1.0,phase_2,go,750.0,950.0,1.0,,,,,,,,,cyan,I
0.0,6.0,1.0,1.0,6.0,0.0,0.0,7.0,1.0,phase_2,stop,750.0,950.0,4.0,,,,,,,,,blue,circle
0.0,5.0,0.5,1.0,5.0,0.0,0.0,7.0,1.0,phase_2,stop,750.0,1000.0,4.0,,,,,,,,,orange,square
0.0,5.0,0.5,1.0,5.0,0.0,0.0,7.0,1.0,phase_2,stop,800.0,1000.0,4.0,,,,,,,,,orange,square
0.0,1.0,0.5,0.0,5.0,5.0,578.8018690000172,7.0,1.0,phase_2,go,850.0,1000.0,1.0,,,,,,,,,gray,cross
0.0,7.0,2.0,1.0,6.0,6.0,867.1302570000989,7.0,1.0,phase_2,stop,850.0,1000.0,3.0,,,,,,,,,yellow,diamond
0.0,8.0,4.0,1.0,6.0,0.0,0.0,7.0,1.0,phase_2,stop,850.0,950.0,4.0,,,,,,,,,white,flipped triangle
0.0,2.0,1.0,0.0,5.0,5.0,792.995210999834,7.0,1.0,phase_2,go,850.0,1000.0,1.0,,,,,,,,,green,triangle
0.0,6.0,1.0,1.0,5.0,0.0,0.0,7.0,1.0,phase_2,stop,850.0,1000.0,4.0,,,,,,,,,blue,circle
0.0,3.0,2.0,0.0,5.0,5.0,577.7007209999283,7.0,1.0,phase_2,go,900.0,1000.0,1.0,,,,,,,,,magenta,hexagon
0.0,1.0,0.5,0.0,6.0,6.0,516.7118469998968,7.0,1.0,phase_2,go,900.0,1000.0,1.0,,,,,,,,,gray,cross
0.0,1.0,0.5,0.0,5.0,5.0,385.0705180002478,7.0,1.0,phase_2,go,900.0,1000.0,1.0,,,,,,,,,gray,cross
0.0,2.0,1.0,0.0,6.0,6.0,497.6960630001485,8.0,1.0,phase_2,go,900.0,1000.0,1.0,,,,,,,,,green,triangle
0.0,1.0,0.5,0.0,5.0,5.0,395.2919499997733,8.0,1.0,phase_2,go,900.0,1000.0,1.0,,,,,,,,,gray,cross
0.0,6.0,1.0,1.0,6.0,6.0,1067.4898480001502,8.0,1.0,phase_2,stop,900.0,1000.0,3.0,,,,,,,,,blue,circle
0.0,1.0,0.5,0.0,5.0,5.0,391.6121610000118,8.0,1.0,phase_2,go,900.0,950.0,1.0,,,,,,,,,gray,cross
0.0,6.0,1.0,1.0,5.0,0.0,0.0,8.0,1.0,phase_2,stop,900.0,950.0,4.0,,,,,,,,,blue,circle
0.0,2.0,1.0,0.0,5.0,5.0,583.7375589999283,8.0,1.0,phase_2,go,950.0,950.0,1.0,,,,,,,,,green,triangle
0.0,5.0,0.5,1.0,5.0,5.0,503.00449099995603,8.0,1.0,phase_2,stop,950.0,950.0,3.0,,,,,,,,,orange,square
0.0,2.0,1.0,0.0,6.0,6.0,506.0114749994682,8.0,1.0,phase_2,go,900.0,950.0,1.0,,,,,,,,,green,triangle
0.0,4.0,4.0,0.0,5.0,5.0,453.2110829995872,8.0,1.0,phase_2,go,900.0,950.0,1.0,,,,,,,,,cyan,I
0.0,8.0,4.0,1.0,6.0,0.0,0.0,8.0,1.0,phase_2,stop,900.0,950.0,4.0,,,,,,,,,white,flipped triangle
0.0,6.0,1.0,1.0,5.0,0.0,0.0,8.0,1.0,phase_2,stop,900.0,1000.0,4.0,,,,,,,,,blue,circle
0.0,8.0,4.0,1.0,5.0,0.0,0.0,8.0,1.0,phase_2,stop,950.0,1000.0,4.0,,,,,,,,,white,flipped triangle
0.0,3.0,2.0,0.0,5.0,5.0,532.0091349994982,8.0,1.0,phase_2,go,1000.0,1000.0,1.0,,,,,,,,,magenta,hexagon
0.0,8.0,4.0,1.0,5.0,0.0,0.0,8.0,1.0,phase_2,stop,1000.0,1000.0,4.0,,,,,,,,,white,flipped triangle
0.0,6.0,1.0,1.0,6.0,0.0,0.0,8.0,1.0,phase_2,go,1050.0,1000.0,5.0,,,,,,,,,blue,circle
0.0,1.0,0.5,0.0,6.0,6.0,591.8007949994717,8.0,1.0,phase_2,go,1050.0,1000.0,1.0,,,,,,,,,gray,cross
0.0,2.0,1.0,0.0,6.0,6.0,359.5201890002499,8.0,1.0,phase_2,go,1050.0,1000.0,1.0,,,,,,,,,green,triangle
0.0,3.0,2.0,0.0,6.0,6.0,419.8024649995204,8.0,1.0,phase_2,go,1050.0,1000.0,1.0,,,,,,,,,magenta,hexagon
0.0,4.0,4.0,0.0,5.0,5.0,448.8956150007652,8.0,1.0,phase_2,go,1050.0,1000.0,1.0,,,,,,,,,cyan,I
0.0,3.0,2.0,0.0,6.0,6.0,412.6583830002346,8.0,1.0,phase_2,go,1050.0,1000.0,1.0,,,,,,,,,magenta,hexagon
0.0,2.0,1.0,0.0,6.0,6.0,386.8014939998829,8.0,1.0,phase_2,go,1050.0,1000.0,1.0,,,,,,,,,green,triangle
0.0,5.0,0.5,1.0,5.0,5.0,970.1756129998104,8.0,1.0,phase_2,stop,1050.0,1000.0,3.0,,,,,,,,,orange,square
0.0,1.0,0.5,0.0,6.0,6.0,485.5463929998223,8.0,1.0,phase_2,go,1000.0,1000.0,1.0,,,,,,,,,gray,cross
0.0,4.0,4.0,0.0,6.0,6.0,343.3431530002053,8.0,1.0,phase_2,go,1000.0,1000.0,1.0,,,,,,,,,cyan,I
0.0,3.0,2.0,0.0,6.0,6.0,513.295196999934,8.0,1.0,phase_2,go,1000.0,1000.0,1.0,,,,,,,,,magenta,hexagon
0.0,7.0,2.0,1.0,6.0,6.0,323.8311220002288,8.0,1.0,phase_2,go,1000.0,1000.0,1.0,,,,,,,,,yellow,diamond
0.0,8.0,4.0,1.0,6.0,6.0,381.4191010005743,8.0,1.0,phase_2,stop,1000.0,1000.0,3.0,,,,,,,,,white,flipped triangle
0.0,4.0,4.0,0.0,5.0,5.0,583.3594109999467,8.0,1.0,phase_2,go,1000.0,950.0,1.0,,,,,,,,,cyan,I
0.0,4.0,4.0,0.0,5.0,5.0,365.7209120001425,8.0,1.0,phase_2,go,1000.0,950.0,1.0,,,,,,,,,cyan,I
0.0,3.0,2.0,0.0,5.0,5.0,399.4330679997802,8.0,1.0,phase_2,go,1000.0,950.0,1.0,,,,,,,,,magenta,hexagon
0.0,1.0,0.5,0.0,6.0,6.0,426.7754690008587,8.0,1.0,phase_2,go,1000.0,950.0,1.0,,,,,,,,,gray,cross
0.0,7.0,2.0,1.0,5.0,0.0,0.0,8.0,1.0,phase_2,stop,1000.0,950.0,4.0,,,,,,,,,yellow,diamond
0.0,2.0,1.0,0.0,6.0,6.0,534.3715239996527,8.0,1.0,phase_2,go,1050.0,950.0,1.0,,,,,,,,,green,triangle
0.0,7.0,2.0,1.0,6.0,6.0,1251.156293999884,8.0,1.0,phase_2,go,1050.0,950.0,1.0,,,,,,,,,yellow,diamond
0.0,6.0,1.0,1.0,6.0,6.0,1006.6620049992707,8.0,1.0,phase_2,go,1050.0,950.0,1.0,,,,,,,,,blue,circle
0.0,4.0,4.0,0.0,5.0,5.0,412.1301989998756,8.0,1.0,phase_2,go,1050.0,950.0,1.0,,,,,,,,,cyan,I
0.0,7.0,2.0,1.0,7.0,2.0,1022.7365130003818,1.0,2.0,phase_3,,,,,220.0,5.0,176.0,220.0,264.0,132.0,44.0,88.0,yellow,diamond
0.0,6.0,1.0,1.0,7.0,1.0,1602.028811999844,1.0,1.0,phase_3,,,,,195.0,5.0,195.0,234.0,156.0,78.0,39.0,117.0,blue,circle
0.0,3.0,2.0,0.0,7.0,3.0,1141.5805739998175,1.0,1.0,phase_3,,,,,264.0,6.0,44.0,220.0,264.0,132.0,176.0,88.0,magenta,hexagon
0.0,3.0,2.0,0.0,7.0,3.0,690.9086850000676,1.0,1.0,phase_3,,,,,294.0,6.0,49.0,147.0,294.0,196.0,245.0,98.0,magenta,hexagon
0.0,7.0,2.0,1.0,7.0,3.0,1321.7629270002362,1.0,1.0,phase_3,,,,,216.0,4.0,162.0,54.0,216.0,108.0,324.0,270.0,yellow,diamond
0.0,3.0,2.0,0.0,7.0,2.0,1511.5080519999538,1.0,1.0,phase_3,,,,,245.0,5.0,294.0,245.0,147.0,98.0,196.0,49.0,magenta,hexagon
0.0,7.0,2.0,1.0,7.0,6.0,1364.8845260004236,1.0,1.0,phase_3,,,,,204.0,6.0,102.0,34.0,170.0,136.0,68.0,204.0,yellow,diamond
0.0,8.0,4.0,1.0,7.0,4.0,1324.5238650006286,1.0,1.0,phase_3,,,,,324.0,6.0,54.0,216.0,162.0,324.0,108.0,270.0,white,flipped triangle
0.0,2.0,1.0,0.0,7.0,3.0,1169.5113340001626,1.0,1.0,phase_3,,,,,156.0,4.0,195.0,117.0,156.0,78.0,39.0,234.0,green,triangle
0.0,2.0,1.0,0.0,7.0,3.0,836.6100429993821,1.0,1.0,phase_3,,,,,147.0,3.0,49.0,98.0,147.0,245.0,196.0,294.0,green,triangle
0.0,5.0,0.5,1.0,7.0,5.0,1333.9349070001845,1.0,1.0,phase_3,,,,,68.0,2.0,102.0,136.0,34.0,204.0,68.0,170.0,orange,square
0.0,2.0,1.0,0.0,7.0,5.0,1439.1859480001583,1.0,1.0,phase_3,,,,,117.0,3.0,234.0,195.0,39.0,78.0,117.0,156.0,green,triangle
0.0,6.0,1.0,1.0,7.0,1.0,1149.373432000175,1.0,1.0,phase_3,,,,,78.0,2.0,78.0,156.0,117.0,195.0,39.0,234.0,blue,circle
0.0,6.0,1.0,1.0,7.0,5.0,1199.1582939999716,1.0,1.0,phase_3,,,,,88.0,2.0,132.0,176.0,220.0,264.0,88.0,44.0,blue,circle
0.0,1.0,0.5,0.0,7.0,1.0,1155.930965999687,1.0,1.0,phase_3,,,,,49.0,1.0,49.0,196.0,98.0,294.0,245.0,147.0,gray,cross
0.0,7.0,2.0,1.0,7.0,3.0,1545.1370730006602,1.0,1.0,phase_3,,,,,216.0,4.0,270.0,108.0,216.0,162.0,54.0,324.0,yellow,diamond
0.0,3.0,2.0,0.0,7.0,6.0,1441.811743000471,1.0,1.0,phase_3,,,,,195.0,5.0,117.0,156.0,78.0,39.0,234.0,195.0,magenta,hexagon
0.0,4.0,4.0,0.0,7.0,4.0,1606.4156979991822,1.0,1.0,phase_3,,,,,264.0,6.0,220.0,44.0,88.0,264.0,132.0,176.0,cyan,I
0.0,5.0,0.5,1.0,7.0,6.0,1286.707037000269,1.0,1.0,phase_3,,,,,88.0,2.0,176.0,264.0,44.0,220.0,132.0,88.0,orange,square
0.0,8.0,4.0,1.0,7.0,4.0,1240.392497999892,1.0,1.0,phase_3,,,,,204.0,6.0,34.0,102.0,170.0,204.0,68.0,136.0,white,flipped triangle
0.0,8.0,4.0,1.0,7.0,3.0,878.4460580000086,2.0,1.0,phase_3,,,,,264.0,6.0,88.0,44.0,264.0,132.0,176.0,220.0,white,flipped triangle
0.0,3.0,2.0,0.0,7.0,3.0,1222.7388960000098,2.0,1.0,phase_3,,,,,220.0,5.0,88.0,44.0,220.0,264.0,132.0,176.0,magenta,hexagon
0.0,8.0,4.0,1.0,7.0,6.0,848.6823220000588,2.0,1.0,phase_3,,,,,264.0,6.0,88.0,220.0,132.0,44.0,176.0,264.0,white,flipped triangle
0.0,1.0,0.5,0.0,7.0,3.0,903.197218999594,2.0,1.0,phase_3,,,,,234.0,6.0,117.0,78.0,234.0,39.0,156.0,195.0,gray,cross
0.0,2.0,1.0,0.0,7.0,5.0,1243.2377240002097,2.0,1.0,phase_3,,,,,176.0,4.0,264.0,132.0,88.0,44.0,176.0,220.0,green,triangle
0.0,6.0,1.0,1.0,7.0,6.0,1458.417312000165,2.0,1.0,phase_3,,,,,108.0,2.0,54.0,216.0,324.0,270.0,162.0,108.0,blue,circle
0.0,3.0,2.0,0.0,7.0,1.0,1429.5374419998552,2.0,1.0,phase_3,,,,,216.0,4.0,216.0,162.0,324.0,270.0,108.0,54.0,magenta,hexagon
0.0,4.0,4.0,0.0,7.0,2.0,1649.2405279996092,2.0,1.0,phase_3,,,,,294.0,6.0,147.0,294.0,196.0,98.0,49.0,245.0,cyan,I
0.0,4.0,4.0,0.0,7.0,6.0,861.7942720002247,2.0,1.0,phase_3,,,,,234.0,6.0,39.0,78.0,156.0,117.0,195.0,234.0,cyan,I
0.0,3.0,2.0,0.0,7.0,4.0,1156.115570000111,2.0,1.0,phase_3,,,,,108.0,2.0,54.0,270.0,162.0,108.0,324.0,216.0,magenta,hexagon
0.0,5.0,0.5,1.0,7.0,1.0,2101.059018999877,2.0,1.0,phase_3,,,,,68.0,2.0,68.0,102.0,204.0,34.0,170.0,136.0,orange,square
0.0,2.0,1.0,0.0,7.0,3.0,1180.924881000465,2.0,1.0,phase_3,,,,,162.0,3.0,54.0,108.0,162.0,324.0,270.0,216.0,green,triangle
0.0,2.0,1.0,0.0,7.0,3.0,1286.917863999406,2.0,1.0,phase_3,,,,,176.0,4.0,88.0,220.0,176.0,132.0,44.0,264.0,green,triangle
0.0,1.0,0.5,0.0,7.0,3.0,1489.6475189998457,2.0,1.0,phase_3,,,,,49.0,1.0,294.0,245.0,49.0,98.0,147.0,196.0,gray,cross
0.0,7.0,2.0,1.0,7.0,5.0,1104.4742650001351,2.0,1.0,phase_3,,,,,196.0,4.0,294.0,245.0,98.0,147.0,196.0,49.0,yellow,diamond
0.0,4.0,4.0,0.0,7.0,3.0,1065.7980770001814,2.0,1.0,phase_3,,,,,294.0,6.0,196.0,98.0,294.0,245.0,147.0,49.0,cyan,I
0.0,1.0,0.5,0.0,7.0,5.0,1217.2585239995897,2.0,1.0,phase_3,,,,,44.0,1.0,88.0,132.0,264.0,176.0,44.0,220.0,gray,cross
0.0,8.0,4.0,1.0,7.0,3.0,968.0710279999404,2.0,1.0,phase_3,,,,,196.0,4.0,98.0,49.0,196.0,147.0,245.0,294.0,white,flipped triangle
0.0,7.0,2.0,1.0,7.0,2.0,1446.5588260000004,2.0,1.0,phase_3,,,,,195.0,5.0,156.0,195.0,117.0,39.0,78.0,234.0,yellow,diamond
0.0,5.0,0.5,1.0,7.0,6.0,941.6887689994836,2.0,1.0,phase_3,,,,,98.0,2.0,245.0,49.0,147.0,196.0,294.0,98.0,orange,square
0.0,6.0,1.0,1.0,7.0,6.0,648.1084110000666,3.0,1.0,phase_3,,,,,88.0,2.0,132.0,220.0,176.0,264.0,44.0,88.0,blue,circle
0.0,1.0,0.5,0.0,7.0,2.0,906.833791000281,3.0,1.0,phase_3,,,,,44.0,1.0,132.0,44.0,264.0,88.0,176.0,220.0,gray,cross
0.0,4.0,4.0,0.0,7.0,4.0,738.2555859994682,3.0,1.0,phase_3,,,,,324.0,6.0,54.0,216.0,108.0,324.0,270.0,162.0,cyan,I
0.0,8.0,4.0,1.0,7.0,5.0,756.6917879994435,3.0,1.0,phase_3,,,,,245.0,5.0,98.0,294.0,49.0,196.0,245.0,147.0,white,flipped triangle
0.0,8.0,4.0,1.0,7.0,4.0,908.2047709998732,3.0,1.0,phase_3,,,,,270.0,5.0,108.0,216.0,54.0,270.0,162.0,324.0,white,flipped triangle
0.0,8.0,4.0,1.0,7.0,3.0,1218.7435470004857,3.0,1.0,phase_3,,,,,234.0,6.0,39.0,195.0,234.0,78.0,156.0,117.0,white,flipped triangle
0.0,5.0,0.5,1.0,7.0,5.0,1077.761642000041,3.0,1.0,phase_3,,,,,78.0,2.0,39.0,234.0,117.0,195.0,78.0,156.0,orange,square
0.0,2.0,1.0,0.0,7.0,1.0,1399.3730209995192,3.0,1.0,phase_3,,,,,196.0,4.0,196.0,98.0,147.0,294.0,49.0,245.0,green,triangle
0.0,5.0,0.5,1.0,7.0,5.0,1097.987751999426,3.0,1.0,phase_3,,,,,54.0,1.0,108.0,324.0,216.0,270.0,54.0,162.0,orange,square
0.0,2.0,1.0,0.0,7.0,5.0,1287.0130259998405,3.0,1.0,phase_3,,,,,162.0,3.0,54.0,108.0,324.0,270.0,162.0,216.0,green,triangle
0.0,7.0,2.0,1.0,7.0,2.0,868.7595190003776,3.0,1.0,phase_3,,,,,204.0,6.0,68.0,204.0,34.0,170.0,136.0,102.0,yellow,diamond
0.0,4.0,4.0,0.0,7.0,1.0,1348.020483000255,3.0,1.0,phase_3,,,,,204.0,6.0,204.0,170.0,136.0,34.0,68.0,102.0,cyan,I
0.0,4.0,4.0,0.0,7.0,2.0,850.282098000207,3.0,1.0,phase_3,,,,,264.0,6.0,88.0,264.0,176.0,132.0,220.0,44.0,cyan,I
0.0,3.0,2.0,0.0,7.0,2.0,959.6891419996608,3.0,1.0,phase_3,,,,,204.0,6.0,170.0,204.0,102.0,136.0,34.0,68.0,magenta,hexagon
0.0,3.0,2.0,0.0,7.0,4.0,976.0199109996393,3.0,1.0,phase_3,,,,,170.0,5.0,68.0,102.0,204.0,170.0,136.0,34.0,magenta,hexagon
0.0,5.0,0.5,1.0,7.0,6.0,690.5593109995607,3.0,1.0,phase_3,,,,,98.0,2.0,245.0,294.0,49.0,147.0,196.0,98.0,orange,square
0.0,5.0,0.5,1.0,7.0,6.0,643.3590949991412,3.0,1.0,phase_3,,,,,78.0,2.0,39.0,156.0,234.0,195.0,117.0,78.0,orange,square
0.0,7.0,2.0,1.0,7.0,4.0,777.8706380004223,3.0,1.0,phase_3,,,,,44.0,1.0,220.0,88.0,132.0,44.0,176.0,264.0,yellow,diamond
0.0,6.0,1.0,1.0,7.0,3.0,1573.771233000116,3.0,1.0,phase_3,,,,,54.0,1.0,108.0,162.0,54.0,270.0,216.0,324.0,blue,circle
0.0,6.0,1.0,1.0,7.0,5.0,1304.9958120000156,3.0,1.0,phase_3,,,,,98.0,2.0,294.0,196.0,49.0,245.0,98.0,147.0,blue,circle
0.0,7.0,2.0,1.0,7.0,4.0,1027.322789000209,4.0,1.0,phase_3,,,,,98.0,2.0,147.0,49.0,196.0,98.0,245.0,294.0,yellow,diamond
0.0,2.0,1.0,0.0,7.0,1.0,922.5524240000595,4.0,1.0,phase_3,,,,,204.0,6.0,204.0,68.0,136.0,34.0,102.0,170.0,green,triangle
0.0,1.0,0.5,0.0,7.0,4.0,949.6031919998132,4.0,1.0,phase_3,,,,,54.0,1.0,162.0,216.0,324.0,54.0,108.0,270.0,gray,cross
0.0,2.0,1.0,0.0,7.0,3.0,1124.221466999188,4.0,1.0,phase_3,,,,,170.0,5.0,68.0,102.0,170.0,34.0,204.0,136.0,green,triangle
0.0,1.0,0.5,0.0,7.0,2.0,1453.8515639997058,4.0,1.0,phase_3,,,,,34.0,1.0,170.0,34.0,68.0,136.0,102.0,204.0,gray,cross
0.0,5.0,0.5,1.0,7.0,5.0,940.9800160001396,4.0,1.0,phase_3,,,,,132.0,3.0,44.0,220.0,176.0,88.0,132.0,264.0,orange,square
0.0,3.0,2.0,0.0,7.0,3.0,1398.4559070004252,4.0,1.0,phase_3,,,,,195.0,5.0,117.0,234.0,195.0,39.0,78.0,156.0,magenta,hexagon
0.0,6.0,1.0,1.0,7.0,2.0,1046.416675000728,4.0,1.0,phase_3,,,,,68.0,2.0,204.0,68.0,170.0,102.0,34.0,136.0,blue,circle
0.0,7.0,2.0,1.0,7.0,6.0,648.2994259995394,4.0,1.0,phase_3,,,,,117.0,3.0,156.0,234.0,39.0,195.0,78.0,117.0,yellow,diamond
0.0,6.0,1.0,1.0,7.0,4.0,914.8347349992036,4.0,1.0,phase_3,,,,,98.0,2.0,147.0,196.0,49.0,98.0,245.0,294.0,blue,circle
0.0,1.0,0.5,0.0,7.0,1.0,686.233414000526,4.0,1.0,phase_3,,,,,54.0,1.0,54.0,270.0,162.0,108.0,324.0,216.0,gray,cross
0.0,6.0,1.0,1.0,7.0,5.0,1311.4664590002576,4.0,1.0,phase_3,,,,,68.0,2.0,102.0,136.0,170.0,204.0,68.0,34.0,blue,circle
0.0,8.0,4.0,1.0,7.0,4.0,1388.8593639994724,4.0,1.0,phase_3,,,,,195.0,5.0,78.0,234.0,117.0,195.0,39.0,156.0,white,flipped triangle
0.0,4.0,4.0,0.0,7.0,5.0,1332.351117000144,4.0,1.0,phase_3,,,,,204.0,6.0,34.0,68.0,136.0,170.0,204.0,102.0,cyan,I
0.0,5.0,0.5,1.0,7.0,4.0,1210.2421250001498,4.0,1.0,phase_3,,,,,54.0,1.0,324.0,216.0,270.0,54.0,108.0,162.0,orange,square
0.0,4.0,4.0,0.0,7.0,3.0,1240.002074999211,4.0,1.0,phase_3,,,,,234.0,6.0,195.0,39.0,234.0,156.0,117.0,78.0,cyan,I
0.0,1.0,0.5,0.0,7.0,3.0,1393.6708960000033,4.0,1.0,phase_3,,,,,34.0,1.0,68.0,136.0,34.0,204.0,170.0,102.0,gray,cross
0.0,8.0,4.0,1.0,7.0,4.0,1134.3540629995914,4.0,1.0,phase_3,,,,,204.0,6.0,68.0,170.0,102.0,204.0,136.0,34.0,white,flipped triangle
0.0,4.0,4.0,0.0,7.0,1.0,910.4222469995876,4.0,1.0,phase_3,,,,,324.0,6.0,324.0,108.0,54.0,270.0,162.0,216.0,cyan,I
0.0,1.0,0.5,0.0,7.0,2.0,1118.3731849996548,4.0,1.0,phase_3,,,,,234.0,6.0,156.0,234.0,39.0,117.0,195.0,78.0,gray,cross
