raw_reward_magnitude,stim_reward,stepwise_reward_magnitude,paired_with_stopping,stim_location,response,reaction_time,block,num_trial_presentations,which_phase,stop_signal_trial_type,left_SSD,right_SSD,accuracy,chosen_bidding_amount,chosen_bidding_level,possible_bid_1,possible_bid_2,possible_bid_3,possible_bid_4,possible_bid_5,possible_bid_6,color_text,shape_text
187.0,3.0,2.0,0.0,2.0,2.0,410.4566710011568,1.0,1.0,phase_1,,,,,,,,,,,,,yellow,flipped triangle
424.0,8.0,4.0,1.0,3.0,3.0,347.1515090004686,1.0,1.0,phase_1,,,,,,,,,,,,,magenta,triangle
403.0,8.0,4.0,1.0,4.0,4.0,430.5035369998222,1.0,1.0,phase_1,,,,,,,,,,,,,magenta,triangle
117.0,6.0,1.0,1.0,1.0,1.0,323.9155930004926,1.0,1.0,phase_1,,,,,,,,,,,,,white,I
86.0,6.0,1.0,1.0,4.0,4.0,365.1105930002813,1.0,1.0,phase_1,,,,,,,,,,,,,white,I
188.0,7.0,2.0,1.0,4.0,4.0,356.8325830001413,1.0,1.0,phase_1,,,,,,,,,,,,,orange,hexagon
211.0,7.0,2.0,1.0,3.0,3.0,341.8483500008733,1.0,1.0,phase_1,,,,,,,,,,,,,orange,hexagon
221.0,7.0,2.0,1.0,1.0,1.0,348.2555560003675,1.0,1.0,phase_1,,,,,,,,,,,,,orange,hexagon
407.0,4.0,4.0,0.0,1.0,1.0,390.3319780001766,1.0,1.0,phase_1,,,,,,,,,,,,,blue,diamond
0.0,6.0,0.0,1.0,3.0,3.0,320.557089000431,1.0,1.0,phase_1,,,,,,,,,,,,,white,I
57.0,5.0,0.5,1.0,4.0,4.0,362.7779190010187,1.0,1.0,phase_1,,,,,,,,,,,,,gray,circle
411.0,8.0,4.0,1.0,2.0,2.0,337.2490840010869,1.0,1.0,phase_1,,,,,,,,,,,,,magenta,triangle
36.0,1.0,0.5,0.0,1.0,1.0,415.0587750009435,1.0,1.0,phase_1,,,,,,,,,,,,,cyan,square
0.0,3.0,0.0,0.0,1.0,1.0,295.1004770002328,1.0,1.0,phase_1,,,,,,,,,,,,,yellow,flipped triangle
0.0,2.0,0.0,0.0,3.0,3.0,314.9507720008841,1.0,1.0,phase_1,,,,,,,,,,,,,green,cross
86.0,2.0,1.0,0.0,2.0,2.0,363.3020309989661,1.0,1.0,phase_1,,,,,,,,,,,,,green,cross
412.0,8.0,4.0,1.0,4.0,4.0,351.2954480011103,1.0,1.0,phase_1,,,,,,,,,,,,,magenta,triangle
389.0,8.0,4.0,1.0,3.0,3.0,350.3953920007916,1.0,1.0,phase_1,,,,,,,,,,,,,magenta,triangle
104.0,6.0,1.0,1.0,2.0,2.0,312.5383370006602,1.0,1.0,phase_1,,,,,,,,,,,,,white,I
73.0,1.0,0.5,0.0,4.0,4.0,331.8161440001859,1.0,1.0,phase_1,,,,,,,,,,,,,cyan,square
47.0,5.0,0.5,1.0,3.0,3.0,310.3528069987078,1.0,1.0,phase_1,,,,,,,,,,,,,gray,circle
221.0,7.0,2.0,1.0,3.0,3.0,356.8512520014337,1.0,1.0,phase_1,,,,,,,,,,,,,orange,hexagon
0.0,6.0,0.0,1.0,2.0,2.0,383.8757039993652,1.0,1.0,phase_1,,,,,,,,,,,,,white,I
85.0,6.0,1.0,1.0,1.0,1.0,458.4886189986719,1.0,1.0,phase_1,,,,,,,,,,,,,white,I
94.0,6.0,1.0,1.0,1.0,1.0,388.9281329993537,1.0,1.0,phase_1,,,,,,,,,,,,,white,I
222.0,7.0,2.0,1.0,3.0,3.0,333.7017560006643,1.0,1.0,phase_1,,,,,,,,,,,,,orange,hexagon
48.0,5.0,0.5,1.0,4.0,4.0,338.7680900013947,1.0,1.0,phase_1,,,,,,,,,,,,,gray,circle
0.0,4.0,0.0,0.0,4.0,4.0,516.778761999376,1.0,1.0,phase_1,,,,,,,,,,,,,blue,diamond
211.0,3.0,2.0,0.0,4.0,4.0,391.3329040005919,1.0,1.0,phase_1,,,,,,,,,,,,,yellow,flipped triangle
0.0,1.0,0.0,0.0,1.0,1.0,330.0810079999792,1.0,1.0,phase_1,,,,,,,,,,,,,cyan,square
178.0,3.0,2.0,0.0,3.0,3.0,300.4046219994052,1.0,1.0,phase_1,,,,,,,,,,,,,yellow,flipped triangle
0.0,1.0,0.0,0.0,2.0,2.0,363.0439520002255,1.0,1.0,phase_1,,,,,,,,,,,,,cyan,square
0.0,2.0,0.0,0.0,4.0,4.0,389.3276150010933,1.0,1.0,phase_1,,,,,,,,,,,,,green,cross
80.0,6.0,1.0,1.0,4.0,4.0,391.8153930007975,1.0,1.0,phase_1,,,,,,,,,,,,,white,I
121.0,2.0,1.0,0.0,1.0,1.0,351.995031000115,1.0,1.0,phase_1,,,,,,,,,,,,,green,cross
0.0,8.0,0.0,1.0,3.0,3.0,317.4888599987753,1.0,1.0,phase_1,,,,,,,,,,,,,magenta,triangle
0.0,5.0,0.0,1.0,3.0,3.0,353.1256389996997,1.0,1.0,phase_1,,,,,,,,,,,,,gray,circle
101.0,6.0,1.0,1.0,3.0,3.0,304.0926240009867,1.0,1.0,phase_1,,,,,,,,,,,,,white,I
111.0,2.0,1.0,0.0,3.0,3.0,320.9213019999879,1.0,1.0,phase_1,,,,,,,,,,,,,green,cross
386.0,8.0,4.0,1.0,2.0,2.0,415.2487679984915,1.0,1.0,phase_1,,,,,,,,,,,,,magenta,triangle
93.0,2.0,1.0,0.0,3.0,3.0,291.2221309998131,1.0,1.0,phase_1,,,,,,,,,,,,,green,cross
394.0,8.0,4.0,1.0,3.0,3.0,312.6486880009906,1.0,1.0,phase_1,,,,,,,,,,,,,magenta,triangle
0.0,4.0,0.0,0.0,1.0,1.0,298.0050969999865,1.0,1.0,phase_1,,,,,,,,,,,,,blue,diamond
58.0,5.0,0.5,1.0,4.0,4.0,460.5030120001174,1.0,1.0,phase_1,,,,,,,,,,,,,gray,circle
122.0,2.0,1.0,0.0,2.0,2.0,350.7949289996759,1.0,1.0,phase_1,,,,,,,,,,,,,green,cross
385.0,8.0,4.0,1.0,2.0,2.0,307.7802210009395,1.0,1.0,phase_1,,,,,,,,,,,,,magenta,triangle
0.0,7.0,0.0,1.0,2.0,2.0,351.7700400007015,1.0,1.0,phase_1,,,,,,,,,,,,,orange,hexagon
49.0,5.0,0.5,1.0,3.0,3.0,314.7043339995434,1.0,1.0,phase_1,,,,,,,,,,,,,gray,circle
0.0,7.0,0.0,1.0,3.0,3.0,301.1109849994682,1.0,1.0,phase_1,,,,,,,,,,,,,orange,hexagon
211.0,3.0,2.0,0.0,3.0,3.0,308.9874790002795,1.0,1.0,phase_1,,,,,,,,,,,,,yellow,flipped triangle
190.0,3.0,2.0,0.0,2.0,2.0,333.744781999485,1.0,1.0,phase_1,,,,,,,,,,,,,yellow,flipped triangle
64.0,5.0,0.5,1.0,4.0,4.0,355.7091149996267,1.0,1.0,phase_1,,,,,,,,,,,,,gray,circle
57.0,5.0,0.5,1.0,4.0,4.0,308.8154050001321,1.0,1.0,phase_1,,,,,,,,,,,,,gray,circle
80.0,6.0,1.0,1.0,3.0,3.0,316.371139999319,1.0,1.0,phase_1,,,,,,,,,,,,,white,I
0.0,4.0,0.0,0.0,1.0,1.0,352.6092179999978,1.0,1.0,phase_1,,,,,,,,,,,,,blue,diamond
407.0,8.0,4.0,1.0,3.0,3.0,280.0345179985015,1.0,1.0,phase_1,,,,,,,,,,,,,magenta,triangle
122.0,6.0,1.0,1.0,4.0,4.0,338.5095640005602,1.0,1.0,phase_1,,,,,,,,,,,,,white,I
123.0,6.0,1.0,1.0,1.0,1.0,350.976047999211,1.0,1.0,phase_1,,,,,,,,,,,,,white,I
42.0,5.0,0.5,1.0,3.0,3.0,295.3193720004492,1.0,1.0,phase_1,,,,,,,,,,,,,gray,circle
86.0,6.0,1.0,1.0,1.0,1.0,333.1410899991169,1.0,1.0,phase_1,,,,,,,,,,,,,white,I
91.0,6.0,1.0,1.0,2.0,2.0,329.42380299937207,1.0,1.0,phase_1,,,,,,,,,,,,,white,I
394.0,4.0,4.0,0.0,4.0,4.0,301.7461689996707,1.0,1.0,phase_1,,,,,,,,,,,,,blue,diamond
0.0,5.0,0.0,1.0,2.0,2.0,318.1080430003931,1.0,1.0,phase_1,,,,,,,,,,,,,gray,circle
377.0,4.0,4.0,0.0,2.0,2.0,362.0785309994971,1.0,2.0,phase_1,,,,,,,,,,,,,blue,diamond
0.0,6.0,0.0,1.0,4.0,4.0,451.3349680000829,1.0,1.0,phase_1,,,,,,,,,,,,,white,I
0.0,5.0,0.0,1.0,4.0,4.0,459.2972789996565,1.0,1.0,phase_1,,,,,,,,,,,,,gray,circle
108.0,6.0,1.0,1.0,3.0,3.0,348.4440070005803,1.0,1.0,phase_1,,,,,,,,,,,,,white,I
97.0,2.0,1.0,0.0,1.0,1.0,340.6366840008559,1.0,1.0,phase_1,,,,,,,,,,,,,green,cross
96.0,2.0,1.0,0.0,3.0,3.0,276.1301999998977,1.0,1.0,phase_1,,,,,,,,,,,,,green,cross
420.0,4.0,4.0,0.0,2.0,2.0,322.5516769998648,1.0,1.0,phase_1,,,,,,,,,,,,,blue,diamond
58.0,1.0,0.5,0.0,1.0,1.0,349.7064019993559,1.0,1.0,phase_1,,,,,,,,,,,,,cyan,square
399.0,4.0,4.0,0.0,2.0,2.0,352.8810890002205,1.0,1.0,phase_1,,,,,,,,,,,,,blue,diamond
0.0,3.0,0.0,0.0,1.0,1.0,255.41847899876302,1.0,1.0,phase_1,,,,,,,,,,,,,yellow,flipped triangle
220.0,3.0,2.0,0.0,2.0,2.0,321.4333569994778,1.0,1.0,phase_1,,,,,,,,,,,,,yellow,flipped triangle
399.0,4.0,4.0,0.0,4.0,4.0,427.3655309989408,1.0,1.0,phase_1,,,,,,,,,,,,,blue,diamond
0.0,5.0,0.0,1.0,2.0,2.0,388.5359699997934,1.0,1.0,phase_1,,,,,,,,,,,,,gray,circle
376.0,8.0,4.0,1.0,3.0,3.0,375.0834459988255,1.0,1.0,phase_1,,,,,,,,,,,,,magenta,triangle
38.0,1.0,0.5,0.0,2.0,2.0,368.5637670005235,1.0,1.0,phase_1,,,,,,,,,,,,,cyan,square
72.0,1.0,0.5,0.0,1.0,1.0,377.6803180007846,1.0,1.0,phase_1,,,,,,,,,,,,,cyan,square
76.0,2.0,1.0,0.0,3.0,3.0,344.8394240003836,1.0,1.0,phase_1,,,,,,,,,,,,,green,cross
75.0,1.0,0.5,0.0,4.0,4.0,400.3091249996942,1.0,1.0,phase_1,,,,,,,,,,,,,cyan,square
54.0,5.0,0.5,1.0,3.0,3.0,379.274543000065,1.0,1.0,phase_1,,,,,,,,,,,,,gray,circle
114.0,6.0,1.0,1.0,2.0,2.0,310.6032879986742,1.0,1.0,phase_1,,,,,,,,,,,,,white,I
54.0,1.0,0.5,0.0,2.0,2.0,338.4570500002155,1.0,1.0,phase_1,,,,,,,,,,,,,cyan,square
219.0,3.0,2.0,0.0,3.0,3.0,337.7578069994342,1.0,1.0,phase_1,,,,,,,,,,,,,yellow,flipped triangle
378.0,4.0,4.0,0.0,3.0,3.0,340.8245439986785,1.0,1.0,phase_1,,,,,,,,,,,,,blue,diamond
107.0,6.0,1.0,1.0,4.0,4.0,353.0996310000773,1.0,1.0,phase_1,,,,,,,,,,,,,white,I
394.0,8.0,4.0,1.0,4.0,4.0,365.8705160014506,1.0,1.0,phase_1,,,,,,,,,,,,,magenta,triangle
107.0,2.0,1.0,0.0,4.0,4.0,363.1043419991329,1.0,1.0,phase_1,,,,,,,,,,,,,green,cross
0.0,4.0,0.0,0.0,2.0,2.0,332.2788540008332,1.0,1.0,phase_1,,,,,,,,,,,,,blue,diamond
41.0,1.0,0.5,0.0,1.0,1.0,299.3436569995538,1.0,1.0,phase_1,,,,,,,,,,,,,cyan,square
58.0,1.0,0.5,0.0,1.0,1.0,455.4652639999403,1.0,1.0,phase_1,,,,,,,,,,,,,cyan,square
389.0,4.0,4.0,0.0,3.0,3.0,339.9611310014734,1.0,1.0,phase_1,,,,,,,,,,,,,blue,diamond
0.0,8.0,0.0,1.0,2.0,2.0,312.0972830001847,1.0,1.0,phase_1,,,,,,,,,,,,,magenta,triangle
47.0,1.0,0.5,0.0,4.0,4.0,355.643555001734,1.0,1.0,phase_1,,,,,,,,,,,,,cyan,square
84.0,6.0,1.0,1.0,4.0,4.0,438.9716549994773,1.0,1.0,phase_1,,,,,,,,,,,,,white,I
25.0,5.0,0.5,1.0,3.0,3.0,385.4026169992721,1.0,1.0,phase_1,,,,,,,,,,,,,gray,circle
70.0,5.0,0.5,1.0,2.0,2.0,321.3951380002982,1.0,1.0,phase_1,,,,,,,,,,,,,gray,circle
205.0,3.0,2.0,0.0,1.0,1.0,398.0373750000581,1.0,1.0,phase_1,,,,,,,,,,,,,yellow,flipped triangle
0.0,1.0,0.0,0.0,3.0,3.0,329.4934730001841,1.0,1.0,phase_1,,,,,,,,,,,,,cyan,square
420.0,8.0,4.0,1.0,4.0,4.0,480.0880669990874,2.0,1.0,phase_1,,,,,,,,,,,,,magenta,triangle
208.0,7.0,2.0,1.0,2.0,2.0,334.497415999067,2.0,1.0,phase_1,,,,,,,,,,,,,orange,hexagon
208.0,7.0,2.0,1.0,4.0,4.0,444.2361589990469,2.0,2.0,phase_1,,,,,,,,,,,,,orange,hexagon
0.0,8.0,0.0,1.0,3.0,3.0,399.0903539997816,2.0,1.0,phase_1,,,,,,,,,,,,,magenta,triangle
207.0,7.0,2.0,1.0,1.0,1.0,371.9214530010504,2.0,1.0,phase_1,,,,,,,,,,,,,orange,hexagon
0.0,7.0,0.0,1.0,4.0,4.0,428.7105669991433,2.0,1.0,phase_1,,,,,,,,,,,,,orange,hexagon
0.0,3.0,0.0,0.0,2.0,2.0,366.1318230006145,2.0,1.0,phase_1,,,,,,,,,,,,,yellow,flipped triangle
386.0,8.0,4.0,1.0,1.0,1.0,455.1288849997945,2.0,1.0,phase_1,,,,,,,,,,,,,magenta,triangle
75.0,5.0,0.5,1.0,4.0,4.0,460.2404960005515,2.0,1.0,phase_1,,,,,,,,,,,,,gray,circle
118.0,6.0,1.0,1.0,4.0,4.0,506.3508910006931,2.0,1.0,phase_1,,,,,,,,,,,,,white,I
217.0,7.0,2.0,1.0,2.0,2.0,402.9772000012599,2.0,1.0,phase_1,,,,,,,,,,,,,orange,hexagon
0.0,1.0,0.0,0.0,3.0,3.0,389.508255999317,2.0,1.0,phase_1,,,,,,,,,,,,,cyan,square
93.0,6.0,1.0,1.0,1.0,1.0,324.2527420006809,2.0,1.0,phase_1,,,,,,,,,,,,,white,I
59.0,1.0,0.5,0.0,3.0,3.0,416.1276289996749,2.0,1.0,phase_1,,,,,,,,,,,,,cyan,square
31.0,5.0,0.5,1.0,3.0,3.0,341.4709159987978,2.0,1.0,phase_1,,,,,,,,,,,,,gray,circle
125.0,2.0,1.0,0.0,3.0,3.0,364.0720140010671,2.0,1.0,phase_1,,,,,,,,,,,,,green,cross
39.0,5.0,0.5,1.0,2.0,2.0,390.0434829993173,2.0,1.0,phase_1,,,,,,,,,,,,,gray,circle
0.0,6.0,0.0,1.0,3.0,3.0,494.6374609990016,2.0,1.0,phase_1,,,,,,,,,,,,,white,I
207.0,3.0,2.0,0.0,1.0,1.0,465.643056000772,2.0,1.0,phase_1,,,,,,,,,,,,,yellow,flipped triangle
40.0,1.0,0.5,0.0,1.0,1.0,458.2806920006987,2.0,1.0,phase_1,,,,,,,,,,,,,cyan,square
96.0,6.0,1.0,1.0,3.0,3.0,353.7431910008308,2.0,1.0,phase_1,,,,,,,,,,,,,white,I
36.0,5.0,0.5,1.0,2.0,2.0,417.3123830005352,2.0,1.0,phase_1,,,,,,,,,,,,,gray,circle
99.0,6.0,1.0,1.0,3.0,3.0,355.3916930013656,2.0,1.0,phase_1,,,,,,,,,,,,,white,I
0.0,4.0,0.0,0.0,2.0,2.0,318.0198339996423,2.0,1.0,phase_1,,,,,,,,,,,,,blue,diamond
181.0,3.0,2.0,0.0,1.0,1.0,427.9524159992434,2.0,1.0,phase_1,,,,,,,,,,,,,yellow,flipped triangle
395.0,4.0,4.0,0.0,2.0,2.0,478.2412989989097,2.0,1.0,phase_1,,,,,,,,,,,,,blue,diamond
25.0,1.0,0.5,0.0,3.0,3.0,358.9963920003356,2.0,1.0,phase_1,,,,,,,,,,,,,cyan,square
65.0,1.0,0.5,0.0,3.0,3.0,433.4635100003652,2.0,1.0,phase_1,,,,,,,,,,,,,cyan,square
72.0,5.0,0.5,1.0,2.0,2.0,397.4047689989675,2.0,1.0,phase_1,,,,,,,,,,,,,gray,circle
0.0,1.0,0.0,0.0,2.0,2.0,440.4867649991502,2.0,1.0,phase_1,,,,,,,,,,,,,cyan,square
185.0,3.0,2.0,0.0,3.0,3.0,390.1477020008315,2.0,1.0,phase_1,,,,,,,,,,,,,yellow,flipped triangle
0.0,2.0,0.0,0.0,2.0,2.0,417.8103340000234,2.0,1.0,phase_1,,,,,,,,,,,,,green,cross
28.0,1.0,0.5,0.0,2.0,2.0,470.809274000203,2.0,1.0,phase_1,,,,,,,,,,,,,cyan,square
188.0,3.0,2.0,0.0,1.0,1.0,462.7728989999013,2.0,1.0,phase_1,,,,,,,,,,,,,yellow,flipped triangle
0.0,2.0,0.0,0.0,1.0,1.0,466.4818609999202,2.0,1.0,phase_1,,,,,,,,,,,,,green,cross
32.0,1.0,0.5,0.0,4.0,4.0,436.3550929992925,2.0,1.0,phase_1,,,,,,,,,,,,,cyan,square
409.0,4.0,4.0,0.0,4.0,4.0,354.9822320001112,2.0,1.0,phase_1,,,,,,,,,,,,,blue,diamond
377.0,4.0,4.0,0.0,3.0,3.0,329.8168090004765,2.0,1.0,phase_1,,,,,,,,,,,,,blue,diamond
74.0,1.0,0.5,0.0,2.0,2.0,334.5228940015659,2.0,1.0,phase_1,,,,,,,,,,,,,cyan,square
188.0,3.0,2.0,0.0,4.0,4.0,358.4128649999911,2.0,1.0,phase_1,,,,,,,,,,,,,yellow,flipped triangle
181.0,7.0,2.0,1.0,4.0,4.0,380.8074570006283,2.0,1.0,phase_1,,,,,,,,,,,,,orange,hexagon
380.0,4.0,4.0,0.0,3.0,3.0,336.4257349985564,2.0,1.0,phase_1,,,,,,,,,,,,,blue,diamond
0.0,7.0,0.0,1.0,3.0,3.0,338.4648929986724,2.0,1.0,phase_1,,,,,,,,,,,,,orange,hexagon
411.0,4.0,4.0,0.0,1.0,1.0,504.5923739999125,2.0,1.0,phase_1,,,,,,,,,,,,,blue,diamond
220.0,7.0,2.0,1.0,2.0,2.0,493.2119309996778,2.0,1.0,phase_1,,,,,,,,,,,,,orange,hexagon
181.0,3.0,2.0,0.0,2.0,2.0,438.3094340009847,2.0,1.0,phase_1,,,,,,,,,,,,,yellow,flipped triangle
80.0,2.0,1.0,0.0,1.0,1.0,499.253920999763,2.0,1.0,phase_1,,,,,,,,,,,,,green,cross
29.0,1.0,0.5,0.0,3.0,3.0,301.0343400001147,2.0,1.0,phase_1,,,,,,,,,,,,,cyan,square
386.0,4.0,4.0,0.0,3.0,3.0,380.1956829993287,2.0,1.0,phase_1,,,,,,,,,,,,,blue,diamond
420.0,4.0,4.0,0.0,1.0,1.0,436.1926660003519,2.0,1.0,phase_1,,,,,,,,,,,,,blue,diamond
419.0,8.0,4.0,1.0,2.0,2.0,487.6252909998584,2.0,1.0,phase_1,,,,,,,,,,,,,magenta,triangle
0.0,2.0,0.0,0.0,1.0,1.0,451.2898640005005,2.0,1.0,phase_1,,,,,,,,,,,,,green,cross
394.0,8.0,4.0,1.0,4.0,4.0,359.0420719992835,2.0,1.0,phase_1,,,,,,,,,,,,,magenta,triangle
104.0,2.0,1.0,0.0,2.0,2.0,432.5420940003823,2.0,1.0,phase_1,,,,,,,,,,,,,green,cross
411.0,4.0,4.0,0.0,4.0,4.0,407.4648109999543,2.0,1.0,phase_1,,,,,,,,,,,,,blue,diamond
190.0,7.0,2.0,1.0,3.0,3.0,286.7551130002539,2.0,1.0,phase_1,,,,,,,,,,,,,orange,hexagon
420.0,4.0,4.0,0.0,4.0,4.0,459.9112129999412,2.0,1.0,phase_1,,,,,,,,,,,,,blue,diamond
0.0,7.0,0.0,1.0,3.0,3.0,332.3737570008234,2.0,1.0,phase_1,,,,,,,,,,,,,orange,hexagon
217.0,3.0,2.0,0.0,1.0,1.0,478.1686670012277,2.0,1.0,phase_1,,,,,,,,,,,,,yellow,flipped triangle
0.0,8.0,0.0,1.0,2.0,2.0,304.357514000003,2.0,1.0,phase_1,,,,,,,,,,,,,magenta,triangle
190.0,7.0,2.0,1.0,3.0,3.0,379.8716560013417,2.0,1.0,phase_1,,,,,,,,,,,,,orange,hexagon
111.0,6.0,1.0,1.0,3.0,3.0,356.3148729990644,2.0,1.0,phase_1,,,,,,,,,,,,,white,I
124.0,6.0,1.0,1.0,2.0,2.0,524.2806399983237,2.0,1.0,phase_1,,,,,,,,,,,,,white,I
69.0,1.0,0.5,0.0,3.0,3.0,316.1692040011985,2.0,1.0,phase_1,,,,,,,,,,,,,cyan,square
51.0,1.0,0.5,0.0,3.0,3.0,323.213936000684,2.0,1.0,phase_1,,,,,,,,,,,,,cyan,square
84.0,2.0,1.0,0.0,1.0,1.0,486.7941829998017,2.0,1.0,phase_1,,,,,,,,,,,,,green,cross
108.0,2.0,1.0,0.0,1.0,1.0,521.1763080005767,2.0,1.0,phase_1,,,,,,,,,,,,,green,cross
204.0,3.0,2.0,0.0,4.0,4.0,358.0205299986119,2.0,1.0,phase_1,,,,,,,,,,,,,yellow,flipped triangle
25.0,5.0,0.5,1.0,1.0,1.0,461.0048600006848,2.0,1.0,phase_1,,,,,,,,,,,,,gray,circle
178.0,7.0,2.0,1.0,4.0,4.0,441.4999000000534,2.0,1.0,phase_1,,,,,,,,,,,,,orange,hexagon
84.0,2.0,1.0,0.0,1.0,1.0,550.5490409996128,2.0,1.0,phase_1,,,,,,,,,,,,,green,cross
0.0,6.0,0.0,1.0,4.0,4.0,449.66682499944,2.0,1.0,phase_1,,,,,,,,,,,,,white,I
108.0,6.0,1.0,1.0,2.0,2.0,464.3034410000837,2.0,2.0,phase_1,,,,,,,,,,,,,white,I
413.0,4.0,4.0,0.0,4.0,4.0,735.1128540012724,2.0,1.0,phase_1,,,,,,,,,,,,,blue,diamond
104.0,6.0,1.0,1.0,1.0,1.0,557.7421200014214,2.0,1.0,phase_1,,,,,,,,,,,,,white,I
0.0,7.0,0.0,1.0,3.0,3.0,336.7425369997363,2.0,1.0,phase_1,,,,,,,,,,,,,orange,hexagon
393.0,8.0,4.0,1.0,2.0,2.0,443.9212750003207,2.0,1.0,phase_1,,,,,,,,,,,,,magenta,triangle
111.0,6.0,1.0,1.0,1.0,1.0,508.2219890009583,2.0,1.0,phase_1,,,,,,,,,,,,,white,I
125.0,6.0,1.0,1.0,3.0,3.0,360.7211510006891,2.0,1.0,phase_1,,,,,,,,,,,,,white,I
389.0,4.0,4.0,0.0,2.0,2.0,427.0098950000829,2.0,1.0,phase_1,,,,,,,,,,,,,blue,diamond
205.0,3.0,2.0,0.0,4.0,4.0,346.8612770011532,2.0,1.0,phase_1,,,,,,,,,,,,,yellow,flipped triangle
425.0,4.0,4.0,0.0,4.0,4.0,430.4790120004327,2.0,1.0,phase_1,,,,,,,,,,,,,blue,diamond
105.0,2.0,1.0,0.0,4.0,4.0,362.7136750001227,2.0,1.0,phase_1,,,,,,,,,,,,,green,cross
0.0,5.0,0.0,1.0,1.0,1.0,441.6366870009369,2.0,1.0,phase_1,,,,,,,,,,,,,gray,circle
0.0,8.0,0.0,1.0,3.0,3.0,416.6401419988688,2.0,1.0,phase_1,,,,,,,,,,,,,magenta,triangle
386.0,4.0,4.0,0.0,2.0,2.0,473.7879180011077,2.0,1.0,phase_1,,,,,,,,,,,,,blue,diamond
31.0,5.0,0.5,1.0,4.0,4.0,320.9865970002283,2.0,1.0,phase_1,,,,,,,,,,,,,gray,circle
84.0,6.0,1.0,1.0,2.0,2.0,477.257976999681,2.0,1.0,phase_1,,,,,,,,,,,,,white,I
0.0,6.0,0.0,1.0,4.0,4.0,349.203542999021,2.0,1.0,phase_1,,,,,,,,,,,,,white,I
0.0,3.0,0.0,0.0,1.0,1.0,462.0950810003705,2.0,1.0,phase_1,,,,,,,,,,,,,yellow,flipped triangle
192.0,3.0,2.0,0.0,2.0,2.0,429.8200779994658,2.0,1.0,phase_1,,,,,,,,,,,,,yellow,flipped triangle
389.0,8.0,4.0,1.0,1.0,1.0,503.24632699994254,2.0,1.0,phase_1,,,,,,,,,,,,,magenta,triangle
40.0,5.0,0.5,1.0,3.0,3.0,393.0144160003692,2.0,1.0,phase_1,,,,,,,,,,,,,gray,circle
0.0,2.0,0.0,0.0,2.0,2.0,449.3422120012837,2.0,1.0,phase_1,,,,,,,,,,,,,green,cross
81.0,6.0,1.0,1.0,4.0,4.0,479.2959159985912,2.0,1.0,phase_1,,,,,,,,,,,,,white,I
377.0,8.0,4.0,1.0,1.0,1.0,336.1030989999563,2.0,1.0,phase_1,,,,,,,,,,,,,magenta,triangle
424.0,4.0,4.0,0.0,1.0,1.0,480.7672490005643,2.0,1.0,phase_1,,,,,,,,,,,,,blue,diamond
398.0,8.0,4.0,1.0,1.0,1.0,386.127497000416,2.0,1.0,phase_1,,,,,,,,,,,,,magenta,triangle
76.0,6.0,1.0,1.0,2.0,2.0,510.76679799916747,2.0,1.0,phase_1,,,,,,,,,,,,,white,I
0.0,3.0,0.0,0.0,1.0,1.0,435.8158879986149,2.0,1.0,phase_1,,,,,,,,,,,,,yellow,flipped triangle
64.0,5.0,0.5,1.0,3.0,3.0,442.6427469988994,3.0,1.0,phase_1,,,,,,,,,,,,,gray,circle
33.0,5.0,0.5,1.0,3.0,3.0,350.3793330000917,3.0,1.0,phase_1,,,,,,,,,,,,,gray,circle
0.0,3.0,0.0,0.0,2.0,2.0,524.4394419987657,3.0,1.0,phase_1,,,,,,,,,,,,,yellow,flipped triangle
201.0,3.0,2.0,0.0,1.0,1.0,515.0347470007546,3.0,1.0,phase_1,,,,,,,,,,,,,yellow,flipped triangle
412.0,4.0,4.0,0.0,4.0,4.0,296.1192410002695,3.0,1.0,phase_1,,,,,,,,,,,,,blue,diamond
416.0,4.0,4.0,0.0,1.0,1.0,428.2513449998077,3.0,1.0,phase_1,,,,,,,,,,,,,blue,diamond
65.0,5.0,0.5,1.0,2.0,2.0,509.1060249997099,3.0,1.0,phase_1,,,,,,,,,,,,,gray,circle
0.0,4.0,0.0,0.0,2.0,2.0,389.4456489997537,3.0,1.0,phase_1,,,,,,,,,,,,,blue,diamond
0.0,2.0,0.0,0.0,1.0,1.0,429.5136199998524,3.0,1.0,phase_1,,,,,,,,,,,,,green,cross
213.0,7.0,2.0,1.0,2.0,2.0,408.8445640009013,3.0,1.0,phase_1,,,,,,,,,,,,,orange,hexagon
71.0,1.0,0.5,0.0,3.0,3.0,340.4654909991222,3.0,1.0,phase_1,,,,,,,,,,,,,cyan,square
91.0,2.0,1.0,0.0,3.0,3.0,351.1850609993416,3.0,1.0,phase_1,,,,,,,,,,,,,green,cross
105.0,6.0,1.0,1.0,2.0,2.0,482.600655999704,3.0,1.0,phase_1,,,,,,,,,,,,,white,I
0.0,6.0,0.0,1.0,3.0,3.0,362.6166070007457,3.0,1.0,phase_1,,,,,,,,,,,,,white,I
0.0,1.0,0.0,0.0,2.0,2.0,468.2311010001285,3.0,1.0,phase_1,,,,,,,,,,,,,cyan,square
380.0,8.0,4.0,1.0,4.0,4.0,406.158288998995,3.0,1.0,phase_1,,,,,,,,,,,,,magenta,triangle
25.0,1.0,0.5,0.0,4.0,4.0,522.6861219998682,3.0,1.0,phase_1,,,,,,,,,,,,,cyan,square
204.0,3.0,2.0,0.0,3.0,3.0,288.4554869997373,3.0,1.0,phase_1,,,,,,,,,,,,,yellow,flipped triangle
377.0,8.0,4.0,1.0,2.0,2.0,345.5687969999417,3.0,1.0,phase_1,,,,,,,,,,,,,magenta,triangle
57.0,1.0,0.5,0.0,2.0,2.0,496.9340560001001,3.0,1.0,phase_1,,,,,,,,,,,,,cyan,square
199.0,7.0,2.0,1.0,1.0,1.0,524.1618290001497,3.0,1.0,phase_1,,,,,,,,,,,,,orange,hexagon
0.0,4.0,0.0,0.0,3.0,3.0,345.6670249997842,3.0,1.0,phase_1,,,,,,,,,,,,,blue,diamond
117.0,6.0,1.0,1.0,2.0,2.0,505.64428699908603,3.0,1.0,phase_1,,,,,,,,,,,,,white,I
0.0,1.0,0.0,0.0,2.0,2.0,478.5500830003002,3.0,1.0,phase_1,,,,,,,,,,,,,cyan,square
29.0,5.0,0.5,1.0,1.0,1.0,508.32407800044166,3.0,1.0,phase_1,,,,,,,,,,,,,gray,circle
203.0,3.0,2.0,0.0,1.0,1.0,526.2648799998715,3.0,1.0,phase_1,,,,,,,,,,,,,yellow,flipped triangle
199.0,3.0,2.0,0.0,3.0,3.0,365.0927259986929,3.0,1.0,phase_1,,,,,,,,,,,,,yellow,flipped triangle
416.0,8.0,4.0,1.0,4.0,4.0,538.9723999996932,3.0,1.0,phase_1,,,,,,,,,,,,,magenta,triangle
179.0,3.0,2.0,0.0,1.0,1.0,518.4416680003778,3.0,1.0,phase_1,,,,,,,,,,,,,yellow,flipped triangle
28.0,5.0,0.5,1.0,1.0,1.0,422.0522020004864,3.0,1.0,phase_1,,,,,,,,,,,,,gray,circle
398.0,4.0,4.0,0.0,1.0,1.0,495.8250260006025,3.0,1.0,phase_1,,,,,,,,,,,,,blue,diamond
0.0,6.0,0.0,1.0,2.0,2.0,358.9371859998209,3.0,1.0,phase_1,,,,,,,,,,,,,white,I
25.0,1.0,0.5,0.0,4.0,4.0,438.3794830009719,3.0,1.0,phase_1,,,,,,,,,,,,,cyan,square
76.0,6.0,1.0,1.0,4.0,4.0,363.1821029994171,3.0,1.0,phase_1,,,,,,,,,,,,,white,I
221.0,3.0,2.0,0.0,3.0,3.0,560.7063440002094,3.0,1.0,phase_1,,,,,,,,,,,,,yellow,flipped triangle
89.0,6.0,1.0,1.0,3.0,3.0,373.6597280003479,3.0,1.0,phase_1,,,,,,,,,,,,,white,I
68.0,1.0,0.5,0.0,4.0,4.0,453.9096879998396,3.0,1.0,phase_1,,,,,,,,,,,,,cyan,square
423.0,8.0,4.0,1.0,3.0,3.0,358.3714600008534,3.0,1.0,phase_1,,,,,,,,,,,,,magenta,triangle
94.0,2.0,1.0,0.0,4.0,4.0,346.1187299999437,3.0,1.0,phase_1,,,,,,,,,,,,,green,cross
117.0,2.0,1.0,0.0,3.0,3.0,280.0143280001066,3.0,1.0,phase_1,,,,,,,,,,,,,green,cross
0.0,4.0,0.0,0.0,1.0,1.0,466.024211000331,3.0,1.0,phase_1,,,,,,,,,,,,,blue,diamond
190.0,3.0,2.0,0.0,2.0,2.0,457.1917159992154,3.0,1.0,phase_1,,,,,,,,,,,,,yellow,flipped triangle
385.0,4.0,4.0,0.0,1.0,1.0,419.2540489984822,3.0,1.0,phase_1,,,,,,,,,,,,,blue,diamond
400.0,8.0,4.0,1.0,4.0,4.0,455.7504780004819,3.0,1.0,phase_1,,,,,,,,,,,,,magenta,triangle
25.0,5.0,0.5,1.0,2.0,2.0,344.6001129996148,3.0,1.0,phase_1,,,,,,,,,,,,,gray,circle
181.0,7.0,2.0,1.0,1.0,1.0,468.2763510008954,3.0,1.0,phase_1,,,,,,,,,,,,,orange,hexagon
205.0,7.0,2.0,1.0,3.0,3.0,279.7777499999938,3.0,1.0,phase_1,,,,,,,,,,,,,orange,hexagon
418.0,4.0,4.0,0.0,1.0,1.0,338.9739350004674,3.0,1.0,phase_1,,,,,,,,,,,,,blue,diamond
0.0,5.0,0.0,1.0,1.0,1.0,433.2232239994482,3.0,1.0,phase_1,,,,,,,,,,,,,gray,circle
399.0,8.0,4.0,1.0,4.0,4.0,414.8741000008158,3.0,1.0,phase_1,,,,,,,,,,,,,magenta,triangle
0.0,7.0,0.0,1.0,1.0,1.0,428.3695300000545,3.0,1.0,phase_1,,,,,,,,,,,,,orange,hexagon
0.0,2.0,0.0,0.0,2.0,2.0,497.3280080012046,3.0,1.0,phase_1,,,,,,,,,,,,,green,cross
52.0,5.0,0.5,1.0,4.0,4.0,403.3112760007498,3.0,1.0,phase_1,,,,,,,,,,,,,gray,circle
185.0,3.0,2.0,0.0,3.0,3.0,298.7188489987602,3.0,1.0,phase_1,,,,,,,,,,,,,yellow,flipped triangle
409.0,8.0,4.0,1.0,1.0,1.0,305.113911999797,3.0,1.0,phase_1,,,,,,,,,,,,,magenta,triangle
0.0,8.0,0.0,1.0,3.0,3.0,287.3901319999277,3.0,1.0,phase_1,,,,,,,,,,,,,magenta,triangle
98.0,6.0,1.0,1.0,4.0,4.0,493.2242300001235,3.0,1.0,phase_1,,,,,,,,,,,,,white,I
101.0,2.0,1.0,0.0,4.0,4.0,485.2209649998258,3.0,1.0,phase_1,,,,,,,,,,,,,green,cross
420.0,8.0,4.0,1.0,2.0,2.0,506.8258520004747,3.0,1.0,phase_1,,,,,,,,,,,,,magenta,triangle
89.0,6.0,1.0,1.0,1.0,1.0,455.5048539987183,3.0,1.0,phase_1,,,,,,,,,,,,,white,I
395.0,8.0,4.0,1.0,3.0,3.0,295.6344560006982,3.0,1.0,phase_1,,,,,,,,,,,,,magenta,triangle
400.0,4.0,4.0,0.0,2.0,2.0,424.4417819991213,3.0,1.0,phase_1,,,,,,,,,,,,,blue,diamond
190.0,7.0,2.0,1.0,1.0,1.0,389.7322029988572,3.0,1.0,phase_1,,,,,,,,,,,,,orange,hexagon
399.0,8.0,4.0,1.0,2.0,2.0,429.2295070008549,3.0,1.0,phase_1,,,,,,,,,,,,,magenta,triangle
413.0,8.0,4.0,1.0,3.0,3.0,544.5230400000582,3.0,1.0,phase_1,,,,,,,,,,,,,magenta,triangle
0.0,3.0,0.0,0.0,2.0,2.0,401.3942770016001,3.0,1.0,phase_1,,,,,,,,,,,,,yellow,flipped triangle
0.0,2.0,0.0,0.0,1.0,1.0,376.283900000999,3.0,1.0,phase_1,,,,,,,,,,,,,green,cross
199.0,3.0,2.0,0.0,2.0,2.0,423.0120470001566,3.0,1.0,phase_1,,,,,,,,,,,,,yellow,flipped triangle
98.0,2.0,1.0,0.0,3.0,3.0,462.4521799996728,3.0,1.0,phase_1,,,,,,,,,,,,,green,cross
0.0,6.0,0.0,1.0,3.0,3.0,500.9963729989977,3.0,1.0,phase_1,,,,,,,,,,,,,white,I
204.0,7.0,2.0,1.0,2.0,2.0,372.4437609998858,3.0,1.0,phase_1,,,,,,,,,,,,,orange,hexagon
0.0,3.0,0.0,0.0,2.0,2.0,410.069437999482,3.0,1.0,phase_1,,,,,,,,,,,,,yellow,flipped triangle
220.0,3.0,2.0,0.0,4.0,4.0,461.2169219999487,3.0,1.0,phase_1,,,,,,,,,,,,,yellow,flipped triangle
204.0,7.0,2.0,1.0,4.0,4.0,434.8464970007626,3.0,1.0,phase_1,,,,,,,,,,,,,orange,hexagon
111.0,2.0,1.0,0.0,4.0,4.0,433.817656001338,3.0,1.0,phase_1,,,,,,,,,,,,,green,cross
378.0,8.0,4.0,1.0,1.0,1.0,385.5587289999675,3.0,1.0,phase_1,,,,,,,,,,,,,magenta,triangle
0.0,8.0,0.0,1.0,2.0,2.0,415.568397998868,3.0,1.0,phase_1,,,,,,,,,,,,,magenta,triangle
42.0,1.0,0.5,0.0,1.0,1.0,325.477772999875,3.0,1.0,phase_1,,,,,,,,,,,,,cyan,square
59.0,5.0,0.5,1.0,1.0,1.0,435.5139050003345,3.0,1.0,phase_1,,,,,,,,,,,,,gray,circle
57.0,1.0,0.5,0.0,4.0,4.0,430.2221660000214,3.0,1.0,phase_1,,,,,,,,,,,,,cyan,square
208.0,3.0,2.0,0.0,2.0,2.0,382.7620880001632,3.0,1.0,phase_1,,,,,,,,,,,,,yellow,flipped triangle
112.0,6.0,1.0,1.0,3.0,3.0,398.8009589993453,3.0,1.0,phase_1,,,,,,,,,,,,,white,I
205.0,7.0,2.0,1.0,2.0,2.0,427.9778079999232,3.0,1.0,phase_1,,,,,,,,,,,,,orange,hexagon
411.0,8.0,4.0,1.0,1.0,1.0,425.006031000521,3.0,1.0,phase_1,,,,,,,,,,,,,magenta,triangle
411.0,4.0,4.0,0.0,4.0,4.0,336.1378739991778,3.0,1.0,phase_1,,,,,,,,,,,,,blue,diamond
85.0,2.0,1.0,0.0,1.0,1.0,440.5057320000196,3.0,1.0,phase_1,,,,,,,,,,,,,green,cross
196.0,3.0,2.0,0.0,4.0,4.0,440.1945689987769,3.0,1.0,phase_1,,,,,,,,,,,,,yellow,flipped triangle
71.0,5.0,0.5,1.0,1.0,1.0,474.8614459986129,3.0,1.0,phase_1,,,,,,,,,,,,,gray,circle
39.0,1.0,0.5,0.0,3.0,3.0,484.1224860010698,3.0,1.0,phase_1,,,,,,,,,,,,,cyan,square
376.0,4.0,4.0,0.0,3.0,3.0,483.4505479993822,3.0,1.0,phase_1,,,,,,,,,,,,,blue,diamond
33.0,1.0,0.5,0.0,1.0,1.0,392.6572210002632,3.0,1.0,phase_1,,,,,,,,,,,,,cyan,square
97.0,6.0,1.0,1.0,1.0,1.0,448.490425998898,3.0,1.0,phase_1,,,,,,,,,,,,,white,I
182.0,7.0,2.0,1.0,1.0,1.0,471.3564989997394,3.0,1.0,phase_1,,,,,,,,,,,,,orange,hexagon
52.0,1.0,0.5,0.0,2.0,2.0,458.5257290000299,3.0,1.0,phase_1,,,,,,,,,,,,,cyan,square
48.0,1.0,0.5,0.0,4.0,4.0,470.904439998776,3.0,1.0,phase_1,,,,,,,,,,,,,cyan,square
0.0,1.0,0.0,0.0,3.0,3.0,488.274838999132,3.0,1.0,phase_1,,,,,,,,,,,,,cyan,square
108.0,2.0,1.0,0.0,1.0,1.0,316.6335780006193,3.0,1.0,phase_1,,,,,,,,,,,,,green,cross
196.0,3.0,2.0,0.0,4.0,4.0,423.3595580008114,3.0,1.0,phase_1,,,,,,,,,,,,,yellow,flipped triangle
41.0,5.0,0.5,1.0,1.0,1.0,420.4911859997082,3.0,1.0,phase_1,,,,,,,,,,,,,gray,circle
418.0,8.0,4.0,1.0,2.0,2.0,464.6199769995291,3.0,1.0,phase_1,,,,,,,,,,,,,magenta,triangle
0.0,6.0,0.0,1.0,4.0,4.0,487.9701249992649,4.0,1.0,phase_1,,,,,,,,,,,,,white,I
74.0,5.0,0.5,1.0,3.0,3.0,465.3024920007738,4.0,1.0,phase_1,,,,,,,,,,,,,gray,circle
0.0,8.0,0.0,1.0,2.0,2.0,427.6353519999247,4.0,1.0,phase_1,,,,,,,,,,,,,magenta,triangle
0.0,1.0,0.0,0.0,3.0,3.0,621.6094679984963,4.0,1.0,phase_1,,,,,,,,,,,,,cyan,square
185.0,7.0,2.0,1.0,1.0,1.0,554.9093070003437,4.0,1.0,phase_1,,,,,,,,,,,,,orange,hexagon
219.0,7.0,2.0,1.0,2.0,2.0,416.8131280002853,4.0,1.0,phase_1,,,,,,,,,,,,,orange,hexagon
425.0,8.0,4.0,1.0,4.0,4.0,442.8955750008754,4.0,1.0,phase_1,,,,,,,,,,,,,magenta,triangle
51.0,5.0,0.5,1.0,2.0,2.0,456.6843949996837,4.0,1.0,phase_1,,,,,,,,,,,,,gray,circle
180.0,3.0,2.0,0.0,4.0,4.0,337.6057210007275,4.0,1.0,phase_1,,,,,,,,,,,,,yellow,flipped triangle
93.0,2.0,1.0,0.0,2.0,2.0,366.5224329997727,4.0,1.0,phase_1,,,,,,,,,,,,,green,cross
81.0,2.0,1.0,0.0,4.0,4.0,317.6048119985353,4.0,1.0,phase_1,,,,,,,,,,,,,green,cross
31.0,1.0,0.5,0.0,2.0,2.0,313.3317159990838,4.0,1.0,phase_1,,,,,,,,,,,,,cyan,square
99.0,2.0,1.0,0.0,3.0,3.0,504.3832880000991,4.0,1.0,phase_1,,,,,,,,,,,,,green,cross
121.0,6.0,1.0,1.0,3.0,3.0,497.5858139987394,4.0,1.0,phase_1,,,,,,,,,,,,,white,I
0.0,8.0,0.0,1.0,4.0,4.0,467.4628909997409,4.0,1.0,phase_1,,,,,,,,,,,,,magenta,triangle
386.0,8.0,4.0,1.0,3.0,3.0,478.4134830006223,4.0,1.0,phase_1,,,,,,,,,,,,,magenta,triangle
394.0,4.0,4.0,0.0,3.0,3.0,463.6772529993322,4.0,1.0,phase_1,,,,,,,,,,,,,blue,diamond
208.0,3.0,2.0,0.0,1.0,1.0,410.3089029995317,4.0,1.0,phase_1,,,,,,,,,,,,,yellow,flipped triangle
386.0,4.0,4.0,0.0,1.0,1.0,420.4749910004466,4.0,1.0,phase_1,,,,,,,,,,,,,blue,diamond
380.0,4.0,4.0,0.0,3.0,3.0,454.3319930016878,4.0,1.0,phase_1,,,,,,,,,,,,,blue,diamond
62.0,1.0,0.5,0.0,4.0,4.0,460.1235930003895,4.0,1.0,phase_1,,,,,,,,,,,,,cyan,square
123.0,2.0,1.0,0.0,3.0,3.0,313.94933699994,4.0,1.0,phase_1,,,,,,,,,,,,,green,cross
380.0,8.0,4.0,1.0,3.0,3.0,487.2635610008728,4.0,1.0,phase_1,,,,,,,,,,,,,magenta,triangle
0.0,4.0,0.0,0.0,3.0,3.0,483.1187409999984,4.0,1.0,phase_1,,,,,,,,,,,,,blue,diamond
80.0,2.0,1.0,0.0,4.0,4.0,490.0175929997203,4.0,1.0,phase_1,,,,,,,,,,,,,green,cross
0.0,4.0,0.0,0.0,2.0,2.0,434.4614689998707,4.0,1.0,phase_1,,,,,,,,,,,,,blue,diamond
114.0,2.0,1.0,0.0,4.0,4.0,356.5998329995636,4.0,1.0,phase_1,,,,,,,,,,,,,green,cross
201.0,7.0,2.0,1.0,4.0,4.0,450.5934379994869,4.0,1.0,phase_1,,,,,,,,,,,,,orange,hexagon
0.0,7.0,0.0,1.0,2.0,2.0,507.6406699990912,4.0,1.0,phase_1,,,,,,,,,,,,,orange,hexagon
0.0,5.0,0.0,1.0,4.0,4.0,324.5646420000412,4.0,1.0,phase_1,,,,,,,,,,,,,gray,circle
118.0,2.0,1.0,0.0,2.0,2.0,459.6409730002051,4.0,1.0,phase_1,,,,,,,,,,,,,green,cross
104.0,2.0,1.0,0.0,2.0,2.0,481.2120460010192,4.0,1.0,phase_1,,,,,,,,,,,,,green,cross
222.0,3.0,2.0,0.0,4.0,4.0,450.5631640004139,4.0,1.0,phase_1,,,,,,,,,,,,,yellow,flipped triangle
0.0,1.0,0.0,0.0,2.0,2.0,330.4250170003797,4.0,1.0,phase_1,,,,,,,,,,,,,cyan,square
58.0,5.0,0.5,1.0,4.0,4.0,320.0214640000922,4.0,1.0,phase_1,,,,,,,,,,,,,gray,circle
221.0,3.0,2.0,0.0,3.0,3.0,452.5974900006986,4.0,1.0,phase_1,,,,,,,,,,,,,yellow,flipped triangle
74.0,5.0,0.5,1.0,1.0,1.0,424.2772010002227,4.0,1.0,phase_1,,,,,,,,,,,,,gray,circle
0.0,2.0,0.0,0.0,2.0,2.0,425.086889999875,4.0,1.0,phase_1,,,,,,,,,,,,,green,cross
213.0,7.0,2.0,1.0,4.0,4.0,446.0819350006204,4.0,1.0,phase_1,,,,,,,,,,,,,orange,hexagon
89.0,2.0,1.0,0.0,2.0,2.0,438.3059660012804,4.0,1.0,phase_1,,,,,,,,,,,,,green,cross
124.0,2.0,1.0,0.0,1.0,1.0,622.4650510011998,4.0,1.0,phase_1,,,,,,,,,,,,,green,cross
73.0,5.0,0.5,1.0,1.0,1.0,473.9253440002358,4.0,1.0,phase_1,,,,,,,,,,,,,gray,circle
89.0,2.0,1.0,0.0,2.0,2.0,475.345411001399,4.0,1.0,phase_1,,,,,,,,,,,,,green,cross
420.0,8.0,4.0,1.0,2.0,2.0,397.5028740005655,4.0,1.0,phase_1,,,,,,,,,,,,,magenta,triangle
64.0,1.0,0.5,0.0,3.0,3.0,496.0269499988499,4.0,1.0,phase_1,,,,,,,,,,,,,cyan,square
220.0,7.0,2.0,1.0,3.0,3.0,464.0608640002028,4.0,1.0,phase_1,,,,,,,,,,,,,orange,hexagon
0.0,5.0,0.0,1.0,1.0,1.0,355.237252999359,4.0,1.0,phase_1,,,,,,,,,,,,,gray,circle
394.0,4.0,4.0,0.0,1.0,1.0,417.0658889997867,4.0,1.0,phase_1,,,,,,,,,,,,,blue,diamond
404.0,4.0,4.0,0.0,2.0,2.0,419.5932139991782,4.0,1.0,phase_1,,,,,,,,,,,,,blue,diamond
180.0,7.0,2.0,1.0,2.0,2.0,433.5597949993826,4.0,1.0,phase_1,,,,,,,,,,,,,orange,hexagon
0.0,3.0,0.0,0.0,2.0,2.0,399.7859920000337,4.0,1.0,phase_1,,,,,,,,,,,,,yellow,flipped triangle
62.0,5.0,0.5,1.0,2.0,2.0,369.2220639986772,4.0,1.0,phase_1,,,,,,,,,,,,,gray,circle
30.0,1.0,0.5,0.0,1.0,1.0,408.4670539996295,4.0,1.0,phase_1,,,,,,,,,,,,,cyan,square
31.0,1.0,0.5,0.0,3.0,3.0,423.5390670000925,4.0,1.0,phase_1,,,,,,,,,,,,,cyan,square
117.0,2.0,1.0,0.0,2.0,2.0,405.0967969997145,4.0,1.0,phase_1,,,,,,,,,,,,,green,cross
0.0,8.0,0.0,1.0,4.0,4.0,399.4081829987408,4.0,1.0,phase_1,,,,,,,,,,,,,magenta,triangle
0.0,5.0,0.0,1.0,3.0,3.0,470.8395290017506,4.0,1.0,phase_1,,,,,,,,,,,,,gray,circle
211.0,7.0,2.0,1.0,1.0,1.0,389.5057379995705,4.0,1.0,phase_1,,,,,,,,,,,,,orange,hexagon
188.0,7.0,2.0,1.0,3.0,3.0,277.1293069999956,4.0,1.0,phase_1,,,,,,,,,,,,,orange,hexagon
199.0,7.0,2.0,1.0,2.0,2.0,391.0254340007668,4.0,1.0,phase_1,,,,,,,,,,,,,orange,hexagon
76.0,2.0,1.0,0.0,4.0,4.0,401.2838769995142,4.0,1.0,phase_1,,,,,,,,,,,,,green,cross
182.0,3.0,2.0,0.0,4.0,4.0,429.2312509987823,4.0,1.0,phase_1,,,,,,,,,,,,,yellow,flipped triangle
0.0,7.0,0.0,1.0,2.0,2.0,455.3672459987865,4.0,1.0,phase_1,,,,,,,,,,,,,orange,hexagon
185.0,7.0,2.0,1.0,4.0,4.0,529.0398619999905,4.0,1.0,phase_1,,,,,,,,,,,,,orange,hexagon
74.0,1.0,0.5,0.0,2.0,2.0,442.4984979996225,4.0,1.0,phase_1,,,,,,,,,,,,,cyan,square
404.0,8.0,4.0,1.0,1.0,1.0,475.8329600008437,4.0,1.0,phase_1,,,,,,,,,,,,,magenta,triangle
196.0,7.0,2.0,1.0,4.0,4.0,463.8840979987435,4.0,1.0,phase_1,,,,,,,,,,,,,orange,hexagon
30.0,5.0,0.5,1.0,4.0,4.0,425.5437629999505,4.0,1.0,phase_1,,,,,,,,,,,,,gray,circle
196.0,7.0,2.0,1.0,1.0,1.0,450.9102289994189,4.0,1.0,phase_1,,,,,,,,,,,,,orange,hexagon
411.0,8.0,4.0,1.0,1.0,1.0,455.3687259995058,4.0,1.0,phase_1,,,,,,,,,,,,,magenta,triangle
393.0,4.0,4.0,0.0,3.0,3.0,451.2520669995865,4.0,1.0,phase_1,,,,,,,,,,,,,blue,diamond
195.0,7.0,2.0,1.0,2.0,2.0,436.8508459992881,4.0,1.0,phase_1,,,,,,,,,,,,,orange,hexagon
192.0,7.0,2.0,1.0,3.0,3.0,427.3205669996969,4.0,1.0,phase_1,,,,,,,,,,,,,orange,hexagon
89.0,6.0,1.0,1.0,4.0,4.0,454.3757759984146,4.0,1.0,phase_1,,,,,,,,,,,,,white,I
86.0,2.0,1.0,0.0,4.0,4.0,529.4089500002883,4.0,1.0,phase_1,,,,,,,,,,,,,green,cross
423.0,4.0,4.0,0.0,2.0,2.0,426.7814070008171,4.0,1.0,phase_1,,,,,,,,,,,,,blue,diamond
377.0,4.0,4.0,0.0,3.0,3.0,438.478567999482,4.0,1.0,phase_1,,,,,,,,,,,,,blue,diamond
419.0,4.0,4.0,0.0,2.0,2.0,453.2263150013023,4.0,1.0,phase_1,,,,,,,,,,,,,blue,diamond
203.0,7.0,2.0,1.0,3.0,3.0,406.0926669990294,4.0,1.0,phase_1,,,,,,,,,,,,,orange,hexagon
38.0,5.0,0.5,1.0,2.0,2.0,430.0448009998945,4.0,1.0,phase_1,,,,,,,,,,,,,gray,circle
70.0,1.0,0.5,0.0,1.0,1.0,475.2616879995912,4.0,1.0,phase_1,,,,,,,,,,,,,cyan,square
112.0,2.0,1.0,0.0,2.0,2.0,494.9142709992884,4.0,1.0,phase_1,,,,,,,,,,,,,green,cross
93.0,6.0,1.0,1.0,2.0,2.0,450.6613899993681,4.0,1.0,phase_1,,,,,,,,,,,,,white,I
187.0,7.0,2.0,1.0,4.0,4.0,426.1455089999799,4.0,1.0,phase_1,,,,,,,,,,,,,orange,hexagon
403.0,4.0,4.0,0.0,4.0,4.0,463.4226029993442,4.0,1.0,phase_1,,,,,,,,,,,,,blue,diamond
49.0,1.0,0.5,0.0,2.0,2.0,487.5999910000246,4.0,1.0,phase_1,,,,,,,,,,,,,cyan,square
68.0,5.0,0.5,1.0,1.0,1.0,441.385096999511,4.0,1.0,phase_1,,,,,,,,,,,,,gray,circle
213.0,3.0,2.0,0.0,2.0,2.0,397.5119469996571,4.0,1.0,phase_1,,,,,,,,,,,,,yellow,flipped triangle
195.0,3.0,2.0,0.0,2.0,2.0,368.520019999778,4.0,1.0,phase_1,,,,,,,,,,,,,yellow,flipped triangle
179.0,7.0,2.0,1.0,1.0,1.0,417.5196640007925,4.0,1.0,phase_1,,,,,,,,,,,,,orange,hexagon
190.0,3.0,2.0,0.0,3.0,3.0,456.9073330003448,4.0,1.0,phase_1,,,,,,,,,,,,,yellow,flipped triangle
213.0,3.0,2.0,0.0,1.0,1.0,385.5555250011093,4.0,1.0,phase_1,,,,,,,,,,,,,yellow,flipped triangle
0.0,3.0,0.0,0.0,3.0,3.0,404.6033489994443,4.0,1.0,phase_1,,,,,,,,,,,,,yellow,flipped triangle
64.0,1.0,0.5,0.0,2.0,2.0,408.0295229996409,4.0,1.0,phase_1,,,,,,,,,,,,,cyan,square
0.0,7.0,0.0,1.0,1.0,1.0,464.062681001451,4.0,1.0,phase_1,,,,,,,,,,,,,orange,hexagon
0.0,5.0,0.0,1.0,1.0,1.0,450.0117410007078,4.0,1.0,phase_1,,,,,,,,,,,,,gray,circle
377.0,8.0,4.0,1.0,1.0,1.0,470.339811001395,4.0,1.0,phase_1,,,,,,,,,,,,,magenta,triangle
32.0,5.0,0.5,1.0,2.0,2.0,447.4795260011888,4.0,1.0,phase_1,,,,,,,,,,,,,gray,circle
69.0,5.0,0.5,1.0,1.0,1.0,359.3149209991679,4.0,1.0,phase_1,,,,,,,,,,,,,gray,circle
89.0,2.0,1.0,0.0,1.0,1.0,377.9913799990027,4.0,1.0,phase_1,,,,,,,,,,,,,green,cross
0.0,8.0,4.0,1.0,5.0,5.0,402.3224960001244,1.0,1.0,phase_2,stop,250.0,250.0,3.0,,,,,,,,,magenta,triangle
0.0,8.0,4.0,1.0,5.0,0.0,0.0,1.0,1.0,phase_2,stop,200.0,250.0,4.0,,,,,,,,,magenta,triangle
0.0,7.0,2.0,1.0,6.0,6.0,521.7399209996074,1.0,1.0,phase_2,go,250.0,250.0,1.0,,,,,,,,,orange,hexagon
0.0,1.0,0.5,0.0,5.0,5.0,503.1058780004969,1.0,1.0,phase_2,go,250.0,250.0,1.0,,,,,,,,,cyan,square
0.0,5.0,0.5,1.0,5.0,5.0,425.3006760009157,1.0,1.0,phase_2,go,250.0,250.0,1.0,,,,,,,,,gray,circle
0.0,7.0,2.0,1.0,5.0,5.0,406.0420269997848,1.0,1.0,phase_2,stop,250.0,250.0,3.0,,,,,,,,,orange,hexagon
0.0,8.0,4.0,1.0,5.0,0.0,0.0,1.0,1.0,phase_2,stop,200.0,250.0,4.0,,,,,,,,,magenta,triangle
0.0,1.0,0.5,0.0,5.0,5.0,682.4170039999444,1.0,1.0,phase_2,go,250.0,250.0,1.0,,,,,,,,,cyan,square
0.0,6.0,1.0,1.0,6.0,6.0,583.3230160005769,1.0,1.0,phase_2,stop,250.0,250.0,3.0,,,,,,,,,white,I
0.0,8.0,4.0,1.0,6.0,0.0,0.0,1.0,1.0,phase_2,stop,250.0,200.0,4.0,,,,,,,,,magenta,triangle
0.0,2.0,1.0,0.0,5.0,5.0,614.8429770000803,1.0,1.0,phase_2,go,250.0,250.0,1.0,,,,,,,,,green,cross
0.0,5.0,0.5,1.0,5.0,5.0,527.6721270001872,1.0,1.0,phase_2,stop,250.0,250.0,3.0,,,,,,,,,gray,circle
0.0,7.0,2.0,1.0,5.0,5.0,1101.342124000439,1.0,1.0,phase_2,go,200.0,250.0,1.0,,,,,,,,,orange,hexagon
0.0,3.0,2.0,0.0,5.0,5.0,576.5082979996805,1.0,1.0,phase_2,go,200.0,250.0,1.0,,,,,,,,,yellow,flipped triangle
0.0,4.0,4.0,0.0,5.0,5.0,690.7396239985246,1.0,1.0,phase_2,go,200.0,250.0,1.0,,,,,,,,,blue,diamond
0.0,3.0,2.0,0.0,6.0,6.0,541.7272429986042,1.0,1.0,phase_2,go,200.0,250.0,1.0,,,,,,,,,yellow,flipped triangle
0.0,1.0,0.5,0.0,6.0,6.0,459.2006160000892,1.0,1.0,phase_2,go,200.0,250.0,1.0,,,,,,,,,cyan,square
0.0,7.0,2.0,1.0,6.0,0.0,0.0,1.0,1.0,phase_2,stop,200.0,250.0,4.0,,,,,,,,,orange,hexagon
0.0,1.0,0.5,0.0,6.0,6.0,839.2107279996708,1.0,1.0,phase_2,go,200.0,300.0,1.0,,,,,,,,,cyan,square
0.0,1.0,0.5,0.0,6.0,6.0,651.0366279999289,1.0,1.0,phase_2,go,200.0,300.0,1.0,,,,,,,,,cyan,square
0.0,1.0,0.5,0.0,5.0,5.0,641.5435190010612,1.0,1.0,phase_2,go,200.0,300.0,1.0,,,,,,,,,cyan,square
0.0,7.0,2.0,1.0,5.0,5.0,709.528137000234,1.0,1.0,phase_2,go,200.0,300.0,1.0,,,,,,,,,orange,hexagon
0.0,1.0,0.5,0.0,5.0,5.0,779.3044289992395,1.0,1.0,phase_2,go,200.0,300.0,1.0,,,,,,,,,cyan,square
0.0,5.0,0.5,1.0,6.0,0.0,0.0,1.0,1.0,phase_2,stop,200.0,300.0,4.0,,,,,,,,,gray,circle
0.0,2.0,1.0,0.0,6.0,6.0,741.1814609986322,1.0,1.0,phase_2,go,200.0,350.0,1.0,,,,,,,,,green,cross
0.0,5.0,0.5,1.0,6.0,0.0,0.0,1.0,1.0,phase_2,stop,200.0,350.0,4.0,,,,,,,,,gray,circle
0.0,3.0,2.0,0.0,6.0,6.0,414.9849069999618,1.0,1.0,phase_2,go,200.0,400.0,1.0,,,,,,,,,yellow,flipped triangle
0.0,4.0,4.0,0.0,6.0,6.0,372.2510959996725,1.0,1.0,phase_2,go,200.0,400.0,1.0,,,,,,,,,blue,diamond
0.0,3.0,2.0,0.0,5.0,5.0,597.3552850009582,1.0,1.0,phase_2,go,200.0,400.0,1.0,,,,,,,,,yellow,flipped triangle
0.0,2.0,1.0,0.0,6.0,6.0,681.4599160006765,1.0,1.0,phase_2,go,200.0,400.0,1.0,,,,,,,,,green,cross
0.0,1.0,0.5,0.0,6.0,6.0,605.3354249997938,1.0,1.0,phase_2,go,200.0,400.0,1.0,,,,,,,,,cyan,square
0.0,6.0,1.0,1.0,6.0,6.0,643.9256020003086,1.0,1.0,phase_2,go,200.0,400.0,1.0,,,,,,,,,white,I
0.0,8.0,4.0,1.0,5.0,5.0,381.0674740016111,1.0,1.0,phase_2,go,200.0,400.0,1.0,,,,,,,,,magenta,triangle
0.0,4.0,4.0,0.0,5.0,5.0,619.0450760004751,1.0,1.0,phase_2,go,200.0,400.0,1.0,,,,,,,,,blue,diamond
0.0,6.0,1.0,1.0,5.0,0.0,0.0,1.0,1.0,phase_2,stop,200.0,400.0,4.0,,,,,,,,,white,I
0.0,8.0,4.0,1.0,6.0,0.0,0.0,1.0,1.0,phase_2,stop,250.0,400.0,4.0,,,,,,,,,magenta,triangle
0.0,6.0,1.0,1.0,5.0,5.0,1059.52353199973,2.0,1.0,phase_2,go,250.0,450.0,1.0,,,,,,,,,white,I
0.0,5.0,0.5,1.0,6.0,0.0,0.0,2.0,1.0,phase_2,stop,250.0,450.0,4.0,,,,,,,,,gray,circle
0.0,2.0,1.0,0.0,6.0,6.0,925.6869630007714,2.0,1.0,phase_2,go,250.0,500.0,1.0,,,,,,,,,green,cross
0.0,6.0,1.0,1.0,6.0,6.0,818.029033998755,2.0,1.0,phase_2,go,250.0,500.0,1.0,,,,,,,,,white,I
0.0,7.0,2.0,1.0,6.0,6.0,584.3965589992877,2.0,1.0,phase_2,stop,250.0,500.0,3.0,,,,,,,,,orange,hexagon
0.0,5.0,0.5,1.0,6.0,0.0,0.0,2.0,1.0,phase_2,stop,250.0,450.0,4.0,,,,,,,,,gray,circle
0.0,5.0,0.5,1.0,5.0,0.0,0.0,2.0,1.0,phase_2,stop,250.0,500.0,4.0,,,,,,,,,gray,circle
0.0,3.0,2.0,0.0,6.0,6.0,536.8432900013431,2.0,1.0,phase_2,go,300.0,500.0,1.0,,,,,,,,,yellow,flipped triangle
0.0,8.0,4.0,1.0,6.0,6.0,685.5036150009255,2.0,1.0,phase_2,go,300.0,500.0,1.0,,,,,,,,,magenta,triangle
0.0,7.0,2.0,1.0,5.0,0.0,0.0,2.0,1.0,phase_2,stop,300.0,500.0,4.0,,,,,,,,,orange,hexagon
0.0,3.0,2.0,0.0,6.0,6.0,733.1809709994559,2.0,1.0,phase_2,go,350.0,500.0,1.0,,,,,,,,,yellow,flipped triangle
0.0,5.0,0.5,1.0,6.0,6.0,739.5982460002415,2.0,1.0,phase_2,go,350.0,500.0,1.0,,,,,,,,,gray,circle
0.0,5.0,0.5,1.0,5.0,0.0,0.0,2.0,1.0,phase_2,stop,350.0,500.0,4.0,,,,,,,,,gray,circle
0.0,3.0,2.0,0.0,5.0,5.0,792.0504989997426,2.0,1.0,phase_2,go,400.0,500.0,1.0,,,,,,,,,yellow,flipped triangle
0.0,5.0,0.5,1.0,6.0,0.0,0.0,2.0,1.0,phase_2,stop,400.0,500.0,4.0,,,,,,,,,gray,circle
0.0,1.0,0.5,0.0,5.0,5.0,808.704299000965,2.0,1.0,phase_2,go,400.0,550.0,1.0,,,,,,,,,cyan,square
0.0,7.0,2.0,1.0,6.0,0.0,0.0,2.0,1.0,phase_2,stop,400.0,550.0,4.0,,,,,,,,,orange,hexagon
0.0,5.0,0.5,1.0,6.0,0.0,0.0,2.0,1.0,phase_2,stop,400.0,600.0,4.0,,,,,,,,,gray,circle
0.0,1.0,0.5,0.0,6.0,6.0,1014.0834779995205,2.0,1.0,phase_2,go,400.0,650.0,1.0,,,,,,,,,cyan,square
0.0,2.0,1.0,0.0,5.0,5.0,946.7413920010586,2.0,1.0,phase_2,go,400.0,650.0,1.0,,,,,,,,,green,cross
0.0,5.0,0.5,1.0,6.0,0.0,0.0,2.0,1.0,phase_2,stop,400.0,650.0,4.0,,,,,,,,,gray,circle
0.0,7.0,2.0,1.0,5.0,0.0,0.0,2.0,1.0,phase_2,stop,400.0,700.0,4.0,,,,,,,,,orange,hexagon
0.0,1.0,0.5,0.0,5.0,5.0,588.7800040000002,2.0,1.0,phase_2,go,450.0,700.0,1.0,,,,,,,,,cyan,square
0.0,6.0,1.0,1.0,6.0,6.0,841.1238560001948,2.0,1.0,phase_2,stop,450.0,700.0,3.0,,,,,,,,,white,I
0.0,5.0,0.5,1.0,5.0,5.0,1095.659106000312,2.0,1.0,phase_2,go,450.0,650.0,1.0,,,,,,,,,gray,circle
0.0,7.0,2.0,1.0,6.0,6.0,1074.730913998792,2.0,1.0,phase_2,go,450.0,650.0,1.0,,,,,,,,,orange,hexagon
0.0,6.0,1.0,1.0,5.0,0.0,0.0,2.0,1.0,phase_2,stop,450.0,650.0,4.0,,,,,,,,,white,I
0.0,2.0,1.0,0.0,6.0,6.0,877.3509140009992,2.0,1.0,phase_2,go,500.0,650.0,1.0,,,,,,,,,green,cross
0.0,2.0,1.0,0.0,5.0,5.0,978.0859620004776,2.0,1.0,phase_2,go,500.0,650.0,1.0,,,,,,,,,green,cross
0.0,6.0,1.0,1.0,6.0,0.0,0.0,2.0,1.0,phase_2,stop,500.0,650.0,4.0,,,,,,,,,white,I
0.0,4.0,4.0,0.0,5.0,5.0,951.654716000121,2.0,1.0,phase_2,go,500.0,700.0,1.0,,,,,,,,,blue,diamond
0.0,5.0,0.5,1.0,5.0,5.0,1236.0169730000052,2.0,1.0,phase_2,go,500.0,700.0,1.0,,,,,,,,,gray,circle
0.0,1.0,0.5,0.0,6.0,6.0,1102.510455000811,2.0,1.0,phase_2,go,500.0,700.0,1.0,,,,,,,,,cyan,square
0.0,6.0,1.0,1.0,6.0,0.0,0.0,2.0,1.0,phase_2,stop,500.0,700.0,4.0,,,,,,,,,white,I
0.0,1.0,0.5,0.0,6.0,6.0,1029.477152998879,2.0,1.0,phase_2,go,500.0,750.0,1.0,,,,,,,,,cyan,square
0.0,6.0,1.0,1.0,5.0,0.0,0.0,2.0,1.0,phase_2,stop,500.0,750.0,4.0,,,,,,,,,white,I
0.0,7.0,2.0,1.0,5.0,5.0,1063.6787240000558,3.0,1.0,phase_2,go,550.0,750.0,1.0,,,,,,,,,orange,hexagon
0.0,1.0,0.5,0.0,6.0,6.0,790.6416219993844,3.0,1.0,phase_2,go,550.0,750.0,1.0,,,,,,,,,cyan,square
0.0,2.0,1.0,0.0,6.0,6.0,660.322133999216,3.0,1.0,phase_2,go,550.0,750.0,1.0,,,,,,,,,green,cross
0.0,1.0,0.5,0.0,6.0,6.0,662.10485999909,3.0,1.0,phase_2,go,550.0,750.0,1.0,,,,,,,,,cyan,square
0.0,2.0,1.0,0.0,5.0,5.0,676.8995040001755,3.0,1.0,phase_2,go,550.0,750.0,1.0,,,,,,,,,green,cross
0.0,4.0,4.0,0.0,6.0,6.0,598.7469279989455,3.0,1.0,phase_2,go,550.0,750.0,1.0,,,,,,,,,blue,diamond
0.0,6.0,1.0,1.0,5.0,5.0,407.5617649996275,3.0,1.0,phase_2,go,550.0,750.0,1.0,,,,,,,,,white,I
0.0,8.0,4.0,1.0,5.0,5.0,729.3006769996282,3.0,1.0,phase_2,stop,550.0,750.0,3.0,,,,,,,,,magenta,triangle
0.0,4.0,4.0,0.0,6.0,6.0,515.6252859997039,3.0,1.0,phase_2,go,500.0,750.0,1.0,,,,,,,,,blue,diamond
0.0,2.0,1.0,0.0,5.0,5.0,436.7712279999978,3.0,1.0,phase_2,go,500.0,750.0,1.0,,,,,,,,,green,cross
0.0,3.0,2.0,0.0,6.0,6.0,388.8799420001305,3.0,1.0,phase_2,go,500.0,750.0,1.0,,,,,,,,,yellow,flipped triangle
0.0,5.0,0.5,1.0,6.0,6.0,498.4551690013177,3.0,1.0,phase_2,stop,500.0,750.0,3.0,,,,,,,,,gray,circle
0.0,6.0,1.0,1.0,5.0,5.0,776.1819099996501,3.0,1.0,phase_2,go,500.0,700.0,1.0,,,,,,,,,white,I
0.0,8.0,4.0,1.0,6.0,0.0,0.0,3.0,1.0,phase_2,stop,500.0,700.0,4.0,,,,,,,,,magenta,triangle
0.0,8.0,4.0,1.0,6.0,0.0,0.0,3.0,1.0,phase_2,stop,500.0,750.0,4.0,,,,,,,,,magenta,triangle
0.0,1.0,0.5,0.0,6.0,6.0,535.0250620012957,3.0,1.0,phase_2,go,500.0,800.0,1.0,,,,,,,,,cyan,square
0.0,4.0,4.0,0.0,5.0,5.0,529.0332180011319,3.0,1.0,phase_2,go,500.0,800.0,1.0,,,,,,,,,blue,diamond
0.0,1.0,0.5,0.0,6.0,6.0,303.2921640005952,3.0,1.0,phase_2,go,500.0,800.0,1.0,,,,,,,,,cyan,square
0.0,7.0,2.0,1.0,5.0,5.0,555.4815190007503,3.0,1.0,phase_2,stop,500.0,800.0,3.0,,,,,,,,,orange,hexagon
0.0,5.0,0.5,1.0,5.0,5.0,1077.4522939991584,3.0,1.0,phase_2,go,450.0,800.0,1.0,,,,,,,,,gray,circle
0.0,6.0,1.0,1.0,6.0,6.0,350.0535700004548,3.0,1.0,phase_2,stop,450.0,800.0,3.0,,,,,,,,,white,I
0.0,6.0,1.0,1.0,6.0,0.0,0.0,3.0,1.0,phase_2,stop,450.0,750.0,4.0,,,,,,,,,white,I
0.0,4.0,4.0,0.0,5.0,5.0,892.002771000989,3.0,1.0,phase_2,go,450.0,800.0,1.0,,,,,,,,,blue,diamond
0.0,4.0,4.0,0.0,6.0,6.0,537.9918539983919,3.0,1.0,phase_2,go,450.0,800.0,1.0,,,,,,,,,blue,diamond
0.0,5.0,0.5,1.0,5.0,0.0,0.0,3.0,1.0,phase_2,stop,450.0,800.0,4.0,,,,,,,,,gray,circle
0.0,5.0,0.5,1.0,6.0,0.0,0.0,3.0,1.0,phase_2,stop,500.0,800.0,4.0,,,,,,,,,gray,circle
0.0,7.0,2.0,1.0,6.0,6.0,705.6034640008875,3.0,1.0,phase_2,stop,500.0,850.0,3.0,,,,,,,,,orange,hexagon
0.0,1.0,0.5,0.0,6.0,6.0,624.843179999516,3.0,1.0,phase_2,go,500.0,800.0,1.0,,,,,,,,,cyan,square
0.0,1.0,0.5,0.0,5.0,5.0,540.6979979998141,3.0,1.0,phase_2,go,500.0,800.0,1.0,,,,,,,,,cyan,square
0.0,1.0,0.5,0.0,6.0,6.0,512.0061309989978,3.0,1.0,phase_2,go,500.0,800.0,1.0,,,,,,,,,cyan,square
0.0,3.0,2.0,0.0,5.0,5.0,638.6382799992134,3.0,1.0,phase_2,go,500.0,800.0,1.0,,,,,,,,,yellow,flipped triangle
0.0,7.0,2.0,1.0,5.0,0.0,0.0,3.0,1.0,phase_2,stop,500.0,800.0,4.0,,,,,,,,,orange,hexagon
0.0,7.0,2.0,1.0,6.0,0.0,0.0,3.0,1.0,phase_2,stop,550.0,800.0,4.0,,,,,,,,,orange,hexagon
0.0,2.0,1.0,0.0,6.0,6.0,547.0150309993187,3.0,1.0,phase_2,go,550.0,850.0,1.0,,,,,,,,,green,cross
0.0,2.0,1.0,0.0,5.0,5.0,405.5480480001279,3.0,1.0,phase_2,go,550.0,850.0,1.0,,,,,,,,,green,cross
0.0,4.0,4.0,0.0,6.0,6.0,701.7120300006354,3.0,1.0,phase_2,go,550.0,850.0,1.0,,,,,,,,,blue,diamond
0.0,5.0,0.5,1.0,6.0,6.0,1057.8571710011602,4.0,1.0,phase_2,stop,550.0,850.0,3.0,,,,,,,,,gray,circle
0.0,8.0,4.0,1.0,5.0,5.0,606.5241329997662,4.0,1.0,phase_2,stop,550.0,800.0,3.0,,,,,,,,,magenta,triangle
0.0,7.0,2.0,1.0,6.0,6.0,646.6967710002791,4.0,1.0,phase_2,stop,500.0,800.0,3.0,,,,,,,,,orange,hexagon
0.0,1.0,0.5,0.0,5.0,5.0,652.9865540014725,4.0,1.0,phase_2,go,500.0,750.0,1.0,,,,,,,,,cyan,square
0.0,3.0,2.0,0.0,5.0,5.0,547.0010089993593,4.0,1.0,phase_2,go,500.0,750.0,1.0,,,,,,,,,yellow,flipped triangle
0.0,4.0,4.0,0.0,6.0,6.0,478.7362150000263,4.0,1.0,phase_2,go,500.0,750.0,1.0,,,,,,,,,blue,diamond
0.0,4.0,4.0,0.0,6.0,6.0,642.3327080010495,4.0,1.0,phase_2,go,500.0,750.0,1.0,,,,,,,,,blue,diamond
0.0,8.0,4.0,1.0,5.0,5.0,593.5794270008046,4.0,1.0,phase_2,stop,500.0,750.0,3.0,,,,,,,,,magenta,triangle
0.0,2.0,1.0,0.0,5.0,5.0,493.8137199987977,4.0,1.0,phase_2,go,450.0,750.0,1.0,,,,,,,,,green,cross
0.0,7.0,2.0,1.0,6.0,6.0,473.3321749990864,4.0,1.0,phase_2,stop,450.0,750.0,3.0,,,,,,,,,orange,hexagon
0.0,3.0,2.0,0.0,6.0,6.0,1017.2162069993649,4.0,1.0,phase_2,go,450.0,700.0,1.0,,,,,,,,,yellow,flipped triangle
0.0,7.0,2.0,1.0,6.0,0.0,0.0,4.0,1.0,phase_2,stop,450.0,700.0,4.0,,,,,,,,,orange,hexagon
0.0,2.0,1.0,0.0,6.0,6.0,596.6583940007695,4.0,1.0,phase_2,go,450.0,750.0,1.0,,,,,,,,,green,cross
0.0,4.0,4.0,0.0,6.0,6.0,739.0187279997917,4.0,1.0,phase_2,go,450.0,750.0,1.0,,,,,,,,,blue,diamond
0.0,8.0,4.0,1.0,6.0,0.0,0.0,4.0,1.0,phase_2,stop,450.0,750.0,4.0,,,,,,,,,magenta,triangle
0.0,1.0,0.5,0.0,5.0,5.0,589.5926310004143,4.0,1.0,phase_2,go,450.0,800.0,1.0,,,,,,,,,cyan,square
0.0,6.0,1.0,1.0,6.0,6.0,675.6205910005519,4.0,1.0,phase_2,go,450.0,800.0,1.0,,,,,,,,,white,I
0.0,3.0,2.0,0.0,5.0,5.0,931.7851229989174,4.0,1.0,phase_2,go,450.0,800.0,1.0,,,,,,,,,yellow,flipped triangle
0.0,3.0,2.0,0.0,6.0,6.0,582.5434170001245,4.0,1.0,phase_2,go,450.0,800.0,1.0,,,,,,,,,yellow,flipped triangle
0.0,5.0,0.5,1.0,5.0,5.0,434.30442399949237,4.0,1.0,phase_2,stop,450.0,800.0,3.0,,,,,,,,,gray,circle
0.0,6.0,1.0,1.0,6.0,6.0,398.0427700007567,4.0,1.0,phase_2,stop,400.0,800.0,3.0,,,,,,,,,white,I
0.0,8.0,4.0,1.0,5.0,5.0,1012.2905970001741,4.0,1.0,phase_2,go,400.0,750.0,1.0,,,,,,,,,magenta,triangle
0.0,3.0,2.0,0.0,5.0,5.0,427.0590100004483,4.0,1.0,phase_2,go,400.0,750.0,1.0,,,,,,,,,yellow,flipped triangle
0.0,6.0,1.0,1.0,5.0,0.0,0.0,4.0,1.0,phase_2,stop,400.0,750.0,4.0,,,,,,,,,white,I
0.0,7.0,2.0,1.0,6.0,6.0,479.919286999575,4.0,1.0,phase_2,stop,450.0,750.0,3.0,,,,,,,,,orange,hexagon
0.0,1.0,0.5,0.0,5.0,5.0,535.4787739997846,4.0,1.0,phase_2,go,450.0,700.0,1.0,,,,,,,,,cyan,square
0.0,7.0,2.0,1.0,6.0,6.0,947.6002270002936,4.0,1.0,phase_2,go,450.0,700.0,1.0,,,,,,,,,orange,hexagon
0.0,2.0,1.0,0.0,5.0,5.0,509.71761100117874,4.0,1.0,phase_2,go,450.0,700.0,1.0,,,,,,,,,green,cross
0.0,1.0,0.5,0.0,5.0,5.0,413.8431159990432,4.0,1.0,phase_2,go,450.0,700.0,1.0,,,,,,,,,cyan,square
0.0,2.0,1.0,0.0,5.0,5.0,349.9670530000003,4.0,1.0,phase_2,go,450.0,700.0,1.0,,,,,,,,,green,cross
0.0,3.0,2.0,0.0,6.0,6.0,334.0578570005164,4.0,1.0,phase_2,go,450.0,700.0,1.0,,,,,,,,,yellow,flipped triangle
0.0,5.0,0.5,1.0,5.0,5.0,393.528504000642,4.0,1.0,phase_2,stop,450.0,700.0,3.0,,,,,,,,,gray,circle
0.0,8.0,4.0,1.0,5.0,0.0,0.0,4.0,1.0,phase_2,stop,400.0,700.0,4.0,,,,,,,,,magenta,triangle
0.0,1.0,0.5,0.0,5.0,5.0,635.6882700001734,4.0,1.0,phase_2,go,450.0,700.0,1.0,,,,,,,,,cyan,square
0.0,7.0,2.0,1.0,6.0,6.0,734.8363949986378,4.0,1.0,phase_2,stop,450.0,700.0,3.0,,,,,,,,,orange,hexagon
0.0,1.0,0.5,0.0,6.0,6.0,711.6065649988741,4.0,1.0,phase_2,go,450.0,650.0,1.0,,,,,,,,,cyan,square
0.0,4.0,4.0,0.0,6.0,6.0,814.6404319995781,5.0,1.0,phase_2,go,450.0,650.0,1.0,,,,,,,,,blue,diamond
0.0,7.0,2.0,1.0,5.0,0.0,0.0,5.0,1.0,phase_2,stop,450.0,650.0,4.0,,,,,,,,,orange,hexagon
0.0,8.0,4.0,1.0,5.0,0.0,0.0,5.0,1.0,phase_2,stop,500.0,650.0,4.0,,,,,,,,,magenta,triangle
0.0,4.0,4.0,0.0,6.0,6.0,603.3551969994733,5.0,1.0,phase_2,go,550.0,650.0,1.0,,,,,,,,,blue,diamond
0.0,7.0,2.0,1.0,6.0,0.0,0.0,5.0,1.0,phase_2,stop,550.0,650.0,4.0,,,,,,,,,orange,hexagon
0.0,8.0,4.0,1.0,6.0,6.0,847.1341580006992,5.0,1.0,phase_2,stop,550.0,700.0,3.0,,,,,,,,,magenta,triangle
0.0,2.0,1.0,0.0,6.0,6.0,523.9478780003992,5.0,1.0,phase_2,go,550.0,650.0,1.0,,,,,,,,,green,cross
0.0,3.0,2.0,0.0,5.0,5.0,524.439736000204,5.0,1.0,phase_2,go,550.0,650.0,1.0,,,,,,,,,yellow,flipped triangle
0.0,7.0,2.0,1.0,6.0,0.0,0.0,5.0,1.0,phase_2,stop,550.0,650.0,4.0,,,,,,,,,orange,hexagon
0.0,6.0,1.0,1.0,6.0,6.0,532.9356330003066,5.0,1.0,phase_2,stop,550.0,700.0,3.0,,,,,,,,,white,I
0.0,3.0,2.0,0.0,5.0,5.0,390.528465000898,5.0,1.0,phase_2,go,550.0,650.0,1.0,,,,,,,,,yellow,flipped triangle
0.0,5.0,0.5,1.0,5.0,5.0,690.2982770006929,5.0,1.0,phase_2,stop,550.0,650.0,3.0,,,,,,,,,gray,circle
0.0,8.0,4.0,1.0,6.0,0.0,0.0,5.0,1.0,phase_2,stop,500.0,650.0,4.0,,,,,,,,,magenta,triangle
0.0,8.0,4.0,1.0,5.0,0.0,0.0,5.0,1.0,phase_2,stop,500.0,700.0,4.0,,,,,,,,,magenta,triangle
0.0,4.0,4.0,0.0,5.0,5.0,448.1361679991096,5.0,1.0,phase_2,go,550.0,700.0,1.0,,,,,,,,,blue,diamond
0.0,8.0,4.0,1.0,6.0,0.0,0.0,5.0,1.0,phase_2,stop,550.0,700.0,4.0,,,,,,,,,magenta,triangle
0.0,1.0,0.5,0.0,5.0,5.0,544.2155069995351,5.0,1.0,phase_2,go,550.0,750.0,1.0,,,,,,,,,cyan,square
0.0,8.0,4.0,1.0,5.0,5.0,1083.566219000204,5.0,1.0,phase_2,go,550.0,750.0,1.0,,,,,,,,,magenta,triangle
0.0,1.0,0.5,0.0,6.0,6.0,388.9925839994248,5.0,1.0,phase_2,go,550.0,750.0,1.0,,,,,,,,,cyan,square
0.0,2.0,1.0,0.0,6.0,6.0,767.4971950000327,5.0,1.0,phase_2,go,550.0,750.0,1.0,,,,,,,,,green,cross
0.0,3.0,2.0,0.0,5.0,5.0,445.6400920007581,5.0,1.0,phase_2,go,550.0,750.0,1.0,,,,,,,,,yellow,flipped triangle
0.0,6.0,1.0,1.0,5.0,5.0,758.6605850010528,5.0,1.0,phase_2,go,550.0,750.0,1.0,,,,,,,,,white,I
0.0,6.0,1.0,1.0,5.0,5.0,420.0406670006487,5.0,1.0,phase_2,stop,550.0,750.0,3.0,,,,,,,,,white,I
0.0,3.0,2.0,0.0,6.0,6.0,370.3821369999787,5.0,1.0,phase_2,go,500.0,750.0,1.0,,,,,,,,,yellow,flipped triangle
0.0,5.0,0.5,1.0,5.0,0.0,0.0,5.0,1.0,phase_2,stop,500.0,750.0,4.0,,,,,,,,,gray,circle
0.0,2.0,1.0,0.0,6.0,6.0,882.2015810001176,5.0,1.0,phase_2,go,550.0,750.0,1.0,,,,,,,,,green,cross
0.0,8.0,4.0,1.0,6.0,6.0,674.0316750001512,5.0,1.0,phase_2,stop,550.0,750.0,3.0,,,,,,,,,magenta,triangle
0.0,6.0,1.0,1.0,6.0,6.0,948.2319069993536,5.0,1.0,phase_2,stop,550.0,700.0,3.0,,,,,,,,,white,I
0.0,3.0,2.0,0.0,6.0,6.0,612.1012269995845,5.0,1.0,phase_2,go,550.0,650.0,1.0,,,,,,,,,yellow,flipped triangle
0.0,7.0,2.0,1.0,5.0,5.0,870.792984000218,5.0,1.0,phase_2,go,550.0,650.0,1.0,,,,,,,,,orange,hexagon
0.0,1.0,0.5,0.0,5.0,5.0,554.6101020008791,5.0,1.0,phase_2,go,550.0,650.0,1.0,,,,,,,,,cyan,square
0.0,1.0,0.5,0.0,6.0,6.0,616.1881530006212,5.0,1.0,phase_2,go,550.0,650.0,1.0,,,,,,,,,cyan,square
0.0,4.0,4.0,0.0,6.0,6.0,334.293214000354,5.0,1.0,phase_2,go,550.0,650.0,1.0,,,,,,,,,blue,diamond
0.0,4.0,4.0,0.0,5.0,5.0,584.3483469998318,5.0,1.0,phase_2,go,550.0,650.0,1.0,,,,,,,,,blue,diamond
0.0,3.0,2.0,0.0,6.0,6.0,349.5558760005224,5.0,1.0,phase_2,go,550.0,650.0,1.0,,,,,,,,,yellow,flipped triangle
0.0,2.0,1.0,0.0,6.0,6.0,366.0303149990795,5.0,1.0,phase_2,go,550.0,650.0,1.0,,,,,,,,,green,cross
0.0,7.0,2.0,1.0,6.0,6.0,685.9210099992197,6.0,1.0,phase_2,stop,550.0,650.0,3.0,,,,,,,,,orange,hexagon
0.0,5.0,0.5,1.0,6.0,6.0,782.1836250004708,6.0,1.0,phase_2,stop,550.0,600.0,3.0,,,,,,,,,gray,circle
0.0,3.0,2.0,0.0,6.0,5.0,885.5628500004968,6.0,1.0,phase_2,go,550.0,550.0,2.0,,,,,,,,,yellow,flipped triangle
0.0,3.0,2.0,0.0,6.0,6.0,643.5340290008753,6.0,1.0,phase_2,go,550.0,550.0,1.0,,,,,,,,,yellow,flipped triangle
0.0,2.0,1.0,0.0,6.0,6.0,736.8937380015268,6.0,1.0,phase_2,go,550.0,550.0,1.0,,,,,,,,,green,cross
0.0,6.0,1.0,1.0,5.0,5.0,707.3352120005438,6.0,1.0,phase_2,stop,550.0,550.0,3.0,,,,,,,,,white,I
0.0,6.0,1.0,1.0,6.0,0.0,0.0,6.0,1.0,phase_2,stop,500.0,550.0,4.0,,,,,,,,,white,I
0.0,8.0,4.0,1.0,6.0,0.0,0.0,6.0,1.0,phase_2,stop,500.0,600.0,4.0,,,,,,,,,magenta,triangle
0.0,5.0,0.5,1.0,5.0,5.0,869.3259970004874,6.0,1.0,phase_2,go,500.0,650.0,1.0,,,,,,,,,gray,circle
0.0,6.0,1.0,1.0,5.0,0.0,0.0,6.0,1.0,phase_2,stop,500.0,650.0,4.0,,,,,,,,,white,I
0.0,3.0,2.0,0.0,6.0,6.0,510.79116000073554,6.0,1.0,phase_2,go,550.0,650.0,1.0,,,,,,,,,yellow,flipped triangle
0.0,8.0,4.0,1.0,5.0,0.0,0.0,6.0,1.0,phase_2,stop,550.0,650.0,4.0,,,,,,,,,magenta,triangle
0.0,4.0,4.0,0.0,5.0,5.0,665.5681749998621,6.0,1.0,phase_2,go,600.0,650.0,1.0,,,,,,,,,blue,diamond
0.0,1.0,0.5,0.0,5.0,5.0,806.1670229999436,6.0,1.0,phase_2,go,600.0,650.0,1.0,,,,,,,,,cyan,square
0.0,3.0,2.0,0.0,5.0,5.0,812.4659919994883,6.0,1.0,phase_2,go,600.0,650.0,1.0,,,,,,,,,yellow,flipped triangle
0.0,4.0,4.0,0.0,5.0,5.0,841.3601659995038,6.0,1.0,phase_2,go,600.0,650.0,1.0,,,,,,,,,blue,diamond
0.0,2.0,1.0,0.0,5.0,5.0,407.3625519995403,6.0,1.0,phase_2,go,600.0,650.0,1.0,,,,,,,,,green,cross
0.0,5.0,0.5,1.0,5.0,5.0,769.4805339997401,6.0,1.0,phase_2,stop,600.0,650.0,3.0,,,,,,,,,gray,circle
0.0,4.0,4.0,0.0,6.0,6.0,836.2134070011962,6.0,1.0,phase_2,go,550.0,650.0,1.0,,,,,,,,,blue,diamond
0.0,1.0,0.5,0.0,5.0,5.0,829.1143839996948,6.0,1.0,phase_2,go,550.0,650.0,1.0,,,,,,,,,cyan,square
0.0,7.0,2.0,1.0,5.0,5.0,520.993484000428,6.0,1.0,phase_2,go,550.0,650.0,1.0,,,,,,,,,orange,hexagon
0.0,5.0,0.5,1.0,6.0,6.0,337.1517369996581,6.0,1.0,phase_2,stop,550.0,650.0,3.0,,,,,,,,,gray,circle
0.0,8.0,4.0,1.0,6.0,6.0,1079.998211000202,6.0,1.0,phase_2,go,550.0,600.0,1.0,,,,,,,,,magenta,triangle
0.0,6.0,1.0,1.0,6.0,6.0,754.7547109988955,6.0,1.0,phase_2,stop,550.0,600.0,3.0,,,,,,,,,white,I
0.0,8.0,4.0,1.0,6.0,6.0,595.7363420002366,6.0,1.0,phase_2,stop,550.0,550.0,3.0,,,,,,,,,magenta,triangle
0.0,4.0,4.0,0.0,6.0,6.0,576.2639789991226,6.0,1.0,phase_2,go,550.0,500.0,1.0,,,,,,,,,blue,diamond
0.0,7.0,2.0,1.0,5.0,5.0,663.0635370001983,6.0,1.0,phase_2,stop,550.0,500.0,3.0,,,,,,,,,orange,hexagon
0.0,2.0,1.0,0.0,5.0,5.0,571.4364960003877,6.0,1.0,phase_2,go,500.0,500.0,1.0,,,,,,,,,green,cross
0.0,3.0,2.0,0.0,6.0,6.0,791.8171830006031,6.0,1.0,phase_2,go,500.0,500.0,1.0,,,,,,,,,yellow,flipped triangle
0.0,8.0,4.0,1.0,6.0,6.0,421.6232109993143,6.0,1.0,phase_2,go,500.0,500.0,1.0,,,,,,,,,magenta,triangle
0.0,2.0,1.0,0.0,5.0,5.0,511.2769719999051,6.0,1.0,phase_2,go,500.0,500.0,1.0,,,,,,,,,green,cross
0.0,7.0,2.0,1.0,5.0,0.0,0.0,6.0,1.0,phase_2,stop,500.0,500.0,4.0,,,,,,,,,orange,hexagon
0.0,8.0,4.0,1.0,5.0,5.0,754.0315899987036,6.0,1.0,phase_2,go,550.0,500.0,1.0,,,,,,,,,magenta,triangle
0.0,6.0,1.0,1.0,5.0,5.0,733.3746690001135,6.0,1.0,phase_2,stop,550.0,500.0,3.0,,,,,,,,,white,I
0.0,3.0,2.0,0.0,5.0,5.0,846.2119370014989,6.0,1.0,phase_2,go,500.0,500.0,1.0,,,,,,,,,yellow,flipped triangle
0.0,2.0,1.0,0.0,6.0,6.0,761.7601189995185,6.0,1.0,phase_2,go,500.0,500.0,1.0,,,,,,,,,green,cross
0.0,7.0,2.0,1.0,6.0,0.0,0.0,7.0,1.0,phase_2,stop,500.0,500.0,4.0,,,,,,,,,orange,hexagon
0.0,3.0,2.0,0.0,5.0,5.0,590.8246350008994,7.0,1.0,phase_2,go,500.0,550.0,1.0,,,,,,,,,yellow,flipped triangle
0.0,8.0,4.0,1.0,5.0,0.0,0.0,7.0,1.0,phase_2,stop,500.0,550.0,4.0,,,,,,,,,magenta,triangle
0.0,8.0,4.0,1.0,6.0,6.0,385.5855710007745,7.0,1.0,phase_2,go,550.0,550.0,1.0,,,,,,,,,magenta,triangle
0.0,4.0,4.0,0.0,6.0,6.0,632.9324350008392,7.0,1.0,phase_2,go,550.0,550.0,1.0,,,,,,,,,blue,diamond
0.0,1.0,0.5,0.0,6.0,6.0,622.0640519986773,7.0,1.0,phase_2,go,550.0,550.0,1.0,,,,,,,,,cyan,square
0.0,4.0,4.0,0.0,5.0,5.0,712.3861719992419,7.0,1.0,phase_2,go,550.0,550.0,1.0,,,,,,,,,blue,diamond
0.0,4.0,4.0,0.0,6.0,6.0,631.1653309985559,7.0,1.0,phase_2,go,550.0,550.0,1.0,,,,,,,,,blue,diamond
0.0,2.0,1.0,0.0,5.0,5.0,593.0520700003399,7.0,1.0,phase_2,go,550.0,550.0,1.0,,,,,,,,,green,cross
0.0,3.0,2.0,0.0,5.0,5.0,689.3974150007125,7.0,1.0,phase_2,go,550.0,550.0,1.0,,,,,,,,,yellow,flipped triangle
0.0,6.0,1.0,1.0,5.0,0.0,0.0,7.0,1.0,phase_2,stop,550.0,550.0,4.0,,,,,,,,,white,I
0.0,6.0,1.0,1.0,5.0,5.0,834.8774280002544,7.0,1.0,phase_2,stop,600.0,550.0,3.0,,,,,,,,,white,I
0.0,3.0,2.0,0.0,6.0,6.0,414.4705320013599,7.0,1.0,phase_2,go,550.0,550.0,1.0,,,,,,,,,yellow,flipped triangle
0.0,7.0,2.0,1.0,5.0,5.0,969.7785270000168,7.0,1.0,phase_2,go,550.0,550.0,1.0,,,,,,,,,orange,hexagon
0.0,4.0,4.0,0.0,6.0,6.0,424.1584860010334,7.0,1.0,phase_2,go,550.0,550.0,1.0,,,,,,,,,blue,diamond
0.0,2.0,1.0,0.0,6.0,6.0,374.0080919997126,7.0,1.0,phase_2,go,550.0,550.0,1.0,,,,,,,,,green,cross
0.0,6.0,1.0,1.0,6.0,0.0,0.0,7.0,1.0,phase_2,stop,550.0,550.0,4.0,,,,,,,,,white,I
0.0,2.0,1.0,0.0,5.0,5.0,432.1608549998927,7.0,1.0,phase_2,go,550.0,600.0,1.0,,,,,,,,,green,cross
0.0,1.0,0.5,0.0,6.0,6.0,359.2703840004105,7.0,1.0,phase_2,go,550.0,600.0,1.0,,,,,,,,,cyan,square
0.0,6.0,1.0,1.0,6.0,6.0,1043.5352109998348,7.0,1.0,phase_2,go,550.0,600.0,1.0,,,,,,,,,white,I
0.0,3.0,2.0,0.0,5.0,5.0,585.7983899986721,7.0,1.0,phase_2,go,550.0,600.0,1.0,,,,,,,,,yellow,flipped triangle
0.0,5.0,0.5,1.0,5.0,5.0,923.1179650014384,7.0,1.0,phase_2,go,550.0,600.0,1.0,,,,,,,,,gray,circle
0.0,6.0,1.0,1.0,5.0,5.0,689.5438669998839,7.0,1.0,phase_2,stop,550.0,600.0,3.0,,,,,,,,,white,I
0.0,3.0,2.0,0.0,5.0,5.0,487.5381179990654,7.0,1.0,phase_2,go,500.0,600.0,1.0,,,,,,,,,yellow,flipped triangle
0.0,2.0,1.0,0.0,5.0,5.0,542.4482790003822,7.0,1.0,phase_2,go,500.0,600.0,1.0,,,,,,,,,green,cross
0.0,2.0,1.0,0.0,6.0,6.0,340.8657509990007,7.0,1.0,phase_2,go,500.0,600.0,1.0,,,,,,,,,green,cross
0.0,7.0,2.0,1.0,5.0,5.0,345.2968929996132,7.0,1.0,phase_2,stop,500.0,600.0,3.0,,,,,,,,,orange,hexagon
0.0,4.0,4.0,0.0,5.0,5.0,538.89488599998,7.0,1.0,phase_2,go,450.0,600.0,1.0,,,,,,,,,blue,diamond
0.0,5.0,0.5,1.0,6.0,6.0,329.7759479992237,7.0,1.0,phase_2,stop,450.0,600.0,3.0,,,,,,,,,gray,circle
0.0,2.0,1.0,0.0,5.0,5.0,389.822148001258,7.0,1.0,phase_2,go,450.0,550.0,1.0,,,,,,,,,green,cross
0.0,4.0,4.0,0.0,5.0,5.0,542.854063998675,7.0,1.0,phase_2,go,450.0,550.0,1.0,,,,,,,,,blue,diamond
0.0,2.0,1.0,0.0,6.0,6.0,364.9759910003922,7.0,1.0,phase_2,go,450.0,550.0,1.0,,,,,,,,,green,cross
0.0,8.0,4.0,1.0,6.0,6.0,440.8383739992132,7.0,1.0,phase_2,stop,450.0,550.0,3.0,,,,,,,,,magenta,triangle
0.0,6.0,1.0,1.0,5.0,5.0,324.0544979998958,7.0,1.0,phase_2,stop,450.0,500.0,3.0,,,,,,,,,white,I
0.0,5.0,0.5,1.0,6.0,6.0,470.0965239990182,7.0,1.0,phase_2,stop,400.0,500.0,3.0,,,,,,,,,gray,circle
0.0,8.0,4.0,1.0,5.0,5.0,926.1125769990032,7.0,1.0,phase_2,go,400.0,450.0,1.0,,,,,,,,,magenta,triangle
0.0,1.0,0.5,0.0,5.0,5.0,837.6479059988924,8.0,1.0,phase_2,go,400.0,450.0,1.0,,,,,,,,,cyan,square
0.0,5.0,0.5,1.0,5.0,0.0,0.0,8.0,1.0,phase_2,stop,400.0,450.0,4.0,,,,,,,,,gray,circle
0.0,4.0,4.0,0.0,6.0,6.0,591.3298859995848,8.0,1.0,phase_2,go,450.0,450.0,1.0,,,,,,,,,blue,diamond
0.0,7.0,2.0,1.0,5.0,0.0,0.0,8.0,1.0,phase_2,stop,450.0,450.0,4.0,,,,,,,,,orange,hexagon
0.0,6.0,1.0,1.0,6.0,0.0,0.0,8.0,1.0,phase_2,stop,500.0,450.0,4.0,,,,,,,,,white,I
0.0,4.0,4.0,0.0,5.0,5.0,353.5487000008288,8.0,1.0,phase_2,go,500.0,500.0,1.0,,,,,,,,,blue,diamond
0.0,3.0,2.0,0.0,5.0,5.0,626.4802389996476,8.0,1.0,phase_2,go,500.0,500.0,1.0,,,,,,,,,yellow,flipped triangle
0.0,2.0,1.0,0.0,5.0,5.0,676.7390610002622,8.0,1.0,phase_2,go,500.0,500.0,1.0,,,,,,,,,green,cross
0.0,5.0,0.5,1.0,5.0,0.0,0.0,8.0,1.0,phase_2,stop,500.0,500.0,4.0,,,,,,,,,gray,circle
0.0,5.0,0.5,1.0,6.0,6.0,483.922610999798,8.0,1.0,phase_2,stop,550.0,500.0,3.0,,,,,,,,,gray,circle
0.0,2.0,1.0,0.0,6.0,6.0,440.5596839987993,8.0,1.0,phase_2,go,550.0,450.0,1.0,,,,,,,,,green,cross
0.0,4.0,4.0,0.0,5.0,5.0,362.4247749994538,8.0,1.0,phase_2,go,550.0,450.0,1.0,,,,,,,,,blue,diamond
0.0,1.0,0.5,0.0,5.0,5.0,574.8725829998875,8.0,1.0,phase_2,go,550.0,450.0,1.0,,,,,,,,,cyan,square
0.0,4.0,4.0,0.0,5.0,5.0,511.5813539996452,8.0,1.0,phase_2,go,550.0,450.0,1.0,,,,,,,,,blue,diamond
0.0,8.0,4.0,1.0,5.0,5.0,341.9360049992974,8.0,1.0,phase_2,stop,550.0,450.0,3.0,,,,,,,,,magenta,triangle
0.0,5.0,0.5,1.0,5.0,5.0,850.0246910007263,8.0,1.0,phase_2,go,500.0,450.0,1.0,,,,,,,,,gray,circle
0.0,8.0,4.0,1.0,5.0,5.0,614.8413089995302,8.0,1.0,phase_2,stop,500.0,450.0,3.0,,,,,,,,,magenta,triangle
0.0,3.0,2.0,0.0,5.0,5.0,359.2880970008991,8.0,1.0,phase_2,go,450.0,450.0,1.0,,,,,,,,,yellow,flipped triangle
0.0,6.0,1.0,1.0,5.0,5.0,841.3510950013006,8.0,1.0,phase_2,go,450.0,450.0,1.0,,,,,,,,,white,I
0.0,8.0,4.0,1.0,6.0,5.0,95.495365001625,8.0,1.0,phase_2,stop,450.0,450.0,3.0,,,,,,,,,magenta,triangle
0.0,6.0,1.0,1.0,6.0,0.0,0.0,8.0,1.0,phase_2,stop,450.0,400.0,4.0,,,,,,,,,white,I
0.0,5.0,0.5,1.0,6.0,6.0,502.6940790012304,8.0,1.0,phase_2,go,450.0,450.0,1.0,,,,,,,,,gray,circle
0.0,2.0,1.0,0.0,5.0,5.0,600.7808880003722,8.0,1.0,phase_2,go,450.0,450.0,1.0,,,,,,,,,green,cross
0.0,7.0,2.0,1.0,5.0,5.0,572.0586160005041,8.0,1.0,phase_2,stop,450.0,450.0,3.0,,,,,,,,,orange,hexagon
0.0,4.0,4.0,0.0,5.0,5.0,650.4599769996275,8.0,1.0,phase_2,go,400.0,450.0,1.0,,,,,,,,,blue,diamond
0.0,4.0,4.0,0.0,6.0,6.0,400.0173170006746,8.0,1.0,phase_2,go,400.0,450.0,1.0,,,,,,,,,blue,diamond
0.0,2.0,1.0,0.0,6.0,6.0,416.4237999993929,8.0,1.0,phase_2,go,400.0,450.0,1.0,,,,,,,,,green,cross
0.0,4.0,4.0,0.0,5.0,5.0,494.0175690007891,8.0,1.0,phase_2,go,400.0,450.0,1.0,,,,,,,,,blue,diamond
0.0,4.0,4.0,0.0,5.0,5.0,356.8766819989832,8.0,1.0,phase_2,go,400.0,450.0,1.0,,,,,,,,,blue,diamond
0.0,6.0,1.0,1.0,5.0,5.0,393.6176239985798,8.0,1.0,phase_2,stop,400.0,450.0,3.0,,,,,,,,,white,I
0.0,3.0,2.0,0.0,6.0,6.0,415.9996039998077,8.0,1.0,phase_2,go,350.0,450.0,1.0,,,,,,,,,yellow,flipped triangle
0.0,7.0,2.0,1.0,5.0,5.0,391.8629250001686,8.0,1.0,phase_2,stop,350.0,450.0,3.0,,,,,,,,,orange,hexagon
0.0,5.0,0.5,1.0,6.0,6.0,435.7584230001521,8.0,1.0,phase_2,stop,300.0,450.0,3.0,,,,,,,,,gray,circle
0.0,3.0,2.0,0.0,6.0,6.0,405.6988810007169,8.0,1.0,phase_2,go,300.0,400.0,1.0,,,,,,,,,yellow,flipped triangle
0.0,8.0,4.0,1.0,6.0,6.0,392.6566990012361,8.0,1.0,phase_2,stop,300.0,400.0,3.0,,,,,,,,,magenta,triangle
0.0,7.0,2.0,1.0,6.0,0.0,0.0,8.0,1.0,phase_2,stop,300.0,350.0,4.0,,,,,,,,,orange,hexagon
0.0,3.0,2.0,0.0,7.0,2.0,931.3150979996864,1.0,2.0,phase_3,,,,,117.0,3.0,156.0,117.0,195.0,78.0,39.0,234.0,yellow,flipped triangle
0.0,7.0,2.0,1.0,7.0,5.0,2880.4567039987887,1.0,1.0,phase_3,,,,,117.0,3.0,195.0,156.0,78.0,234.0,117.0,39.0,orange,hexagon
0.0,6.0,1.0,1.0,7.0,2.0,3026.408175999677,1.0,1.0,phase_3,,,,,204.0,6.0,34.0,204.0,136.0,102.0,170.0,68.0,white,I
0.0,8.0,4.0,1.0,7.0,5.0,2271.522793998884,1.0,1.0,phase_3,,,,,196.0,4.0,294.0,49.0,245.0,98.0,196.0,147.0,magenta,triangle
0.0,8.0,4.0,1.0,7.0,2.0,1842.0704920008573,1.0,1.0,phase_3,,,,,220.0,5.0,176.0,220.0,44.0,88.0,264.0,132.0,magenta,triangle
0.0,8.0,4.0,1.0,7.0,6.0,2425.167175000752,1.0,1.0,phase_3,,,,,204.0,6.0,34.0,170.0,102.0,136.0,68.0,204.0,magenta,triangle
0.0,6.0,1.0,1.0,7.0,5.0,1900.2095650012047,1.0,1.0,phase_3,,,,,170.0,5.0,68.0,102.0,34.0,136.0,170.0,204.0,white,I
0.0,2.0,1.0,0.0,7.0,3.0,1395.6685249995644,1.0,1.0,phase_3,,,,,220.0,5.0,88.0,176.0,220.0,132.0,44.0,264.0,green,cross
0.0,5.0,0.5,1.0,7.0,3.0,1632.1647630011284,1.0,1.0,phase_3,,,,,176.0,4.0,132.0,220.0,176.0,88.0,44.0,264.0,gray,circle
0.0,4.0,4.0,0.0,7.0,3.0,1282.4730679985803,1.0,1.0,phase_3,,,,,170.0,5.0,204.0,136.0,170.0,102.0,34.0,68.0,blue,diamond
0.0,4.0,4.0,0.0,7.0,3.0,2399.488081000527,1.0,1.0,phase_3,,,,,196.0,4.0,49.0,147.0,196.0,245.0,294.0,98.0,blue,diamond
0.0,7.0,2.0,1.0,7.0,6.0,2457.246126999962,1.0,1.0,phase_3,,,,,294.0,6.0,98.0,49.0,245.0,196.0,147.0,294.0,orange,hexagon
0.0,8.0,4.0,1.0,7.0,5.0,1796.2540919997991,1.0,1.0,phase_3,,,,,216.0,4.0,108.0,324.0,162.0,54.0,216.0,270.0,magenta,triangle
0.0,2.0,1.0,0.0,7.0,3.0,1428.0276780009444,1.0,1.0,phase_3,,,,,195.0,5.0,117.0,39.0,195.0,234.0,156.0,78.0,green,cross
0.0,7.0,2.0,1.0,7.0,4.0,1319.1736089993356,1.0,1.0,phase_3,,,,,176.0,4.0,88.0,132.0,264.0,176.0,220.0,44.0,orange,hexagon
0.0,7.0,2.0,1.0,7.0,5.0,1131.3196449991665,1.0,1.0,phase_3,,,,,220.0,5.0,44.0,264.0,88.0,176.0,220.0,132.0,orange,hexagon
0.0,2.0,1.0,0.0,7.0,5.0,1946.347832999891,1.0,1.0,phase_3,,,,,245.0,5.0,147.0,196.0,294.0,49.0,245.0,98.0,green,cross
0.0,5.0,0.5,1.0,7.0,3.0,1086.7935370006307,1.0,1.0,phase_3,,,,,196.0,4.0,147.0,49.0,196.0,98.0,245.0,294.0,gray,circle
0.0,2.0,1.0,0.0,7.0,5.0,928.6894369997754,1.0,1.0,phase_3,,,,,176.0,4.0,220.0,88.0,132.0,44.0,176.0,264.0,green,cross
0.0,3.0,2.0,0.0,7.0,4.0,1649.8061199999938,1.0,1.0,phase_3,,,,,170.0,5.0,102.0,136.0,204.0,170.0,68.0,34.0,yellow,flipped triangle
0.0,4.0,4.0,0.0,7.0,2.0,2523.042861999784,2.0,1.0,phase_3,,,,,162.0,3.0,108.0,162.0,216.0,324.0,54.0,270.0,blue,diamond
0.0,3.0,2.0,0.0,7.0,4.0,2201.3985340017825,2.0,1.0,phase_3,,,,,156.0,4.0,195.0,78.0,234.0,156.0,117.0,39.0,yellow,flipped triangle
0.0,3.0,2.0,0.0,7.0,2.0,1144.4733119988086,2.0,1.0,phase_3,,,,,216.0,4.0,108.0,216.0,270.0,324.0,54.0,162.0,yellow,flipped triangle
0.0,1.0,0.5,0.0,7.0,4.0,1364.518754999153,2.0,1.0,phase_3,,,,,176.0,4.0,88.0,264.0,132.0,176.0,220.0,44.0,cyan,square
0.0,3.0,2.0,0.0,7.0,2.0,1417.8138980005317,2.0,1.0,phase_3,,,,,196.0,4.0,245.0,196.0,294.0,98.0,49.0,147.0,yellow,flipped triangle
0.0,8.0,4.0,1.0,7.0,5.0,1392.3940080003376,2.0,1.0,phase_3,,,,,170.0,5.0,34.0,102.0,204.0,68.0,170.0,136.0,magenta,triangle
0.0,3.0,2.0,0.0,7.0,5.0,1325.5456530005176,2.0,1.0,phase_3,,,,,176.0,4.0,132.0,220.0,44.0,264.0,176.0,88.0,yellow,flipped triangle
0.0,5.0,0.5,1.0,7.0,2.0,2204.9315619988192,2.0,1.0,phase_3,,,,,162.0,3.0,54.0,162.0,270.0,216.0,324.0,108.0,gray,circle
0.0,5.0,0.5,1.0,7.0,2.0,3265.977303000909,2.0,1.0,phase_3,,,,,195.0,5.0,156.0,195.0,78.0,39.0,234.0,117.0,gray,circle
0.0,6.0,1.0,1.0,7.0,1.0,1685.8481519993802,2.0,1.0,phase_3,,,,,176.0,4.0,176.0,264.0,220.0,44.0,88.0,132.0,white,I
0.0,1.0,0.5,0.0,7.0,1.0,1744.5068519991764,2.0,1.0,phase_3,,,,,195.0,5.0,195.0,78.0,39.0,156.0,117.0,234.0,cyan,square
0.0,6.0,1.0,1.0,7.0,1.0,2748.831319000601,2.0,1.0,phase_3,,,,,162.0,3.0,162.0,324.0,270.0,216.0,108.0,54.0,white,I
0.0,7.0,2.0,1.0,7.0,6.0,2452.997925998716,2.0,1.0,phase_3,,,,,204.0,6.0,170.0,102.0,68.0,136.0,34.0,204.0,orange,hexagon
0.0,2.0,1.0,0.0,7.0,1.0,2992.172521999237,2.0,1.0,phase_3,,,,,170.0,5.0,170.0,102.0,34.0,68.0,136.0,204.0,green,cross
0.0,1.0,0.5,0.0,7.0,5.0,1656.996363999497,2.0,1.0,phase_3,,,,,245.0,5.0,294.0,49.0,98.0,147.0,245.0,196.0,cyan,square
0.0,1.0,0.5,0.0,7.0,3.0,1665.9509550008806,2.0,1.0,phase_3,,,,,196.0,4.0,294.0,147.0,196.0,98.0,245.0,49.0,cyan,square
0.0,1.0,0.5,0.0,7.0,2.0,1494.2179219997342,2.0,1.0,phase_3,,,,,195.0,5.0,39.0,195.0,234.0,156.0,78.0,117.0,cyan,square
0.0,1.0,0.5,0.0,7.0,4.0,2132.566811000288,2.0,1.0,phase_3,,,,,170.0,5.0,68.0,136.0,34.0,170.0,204.0,102.0,cyan,square
0.0,1.0,0.5,0.0,7.0,6.0,1772.5111310010109,2.0,1.0,phase_3,,,,,170.0,5.0,68.0,204.0,34.0,102.0,136.0,170.0,cyan,square
0.0,8.0,4.0,1.0,7.0,3.0,1530.9895039990806,2.0,1.0,phase_3,,,,,196.0,4.0,245.0,98.0,196.0,147.0,49.0,294.0,magenta,triangle
0.0,5.0,0.5,1.0,7.0,3.0,2097.4680979998084,3.0,1.0,phase_3,,,,,220.0,5.0,264.0,132.0,220.0,88.0,176.0,44.0,gray,circle
0.0,5.0,0.5,1.0,7.0,4.0,2059.462065999469,3.0,1.0,phase_3,,,,,216.0,4.0,162.0,108.0,324.0,216.0,270.0,54.0,gray,circle
0.0,1.0,0.5,0.0,7.0,1.0,2788.8757129985606,3.0,1.0,phase_3,,,,,220.0,5.0,220.0,264.0,132.0,88.0,44.0,176.0,cyan,square
0.0,8.0,4.0,1.0,7.0,1.0,2186.803017000784,3.0,1.0,phase_3,,,,,195.0,5.0,195.0,117.0,234.0,156.0,78.0,39.0,magenta,triangle
0.0,8.0,4.0,1.0,7.0,5.0,2105.742998999631,3.0,1.0,phase_3,,,,,220.0,5.0,44.0,88.0,264.0,132.0,220.0,176.0,magenta,triangle
0.0,5.0,0.5,1.0,7.0,6.0,1604.748331999872,3.0,1.0,phase_3,,,,,234.0,6.0,156.0,39.0,195.0,78.0,117.0,234.0,gray,circle
0.0,6.0,1.0,1.0,7.0,4.0,2194.9956990010837,3.0,1.0,phase_3,,,,,195.0,5.0,234.0,117.0,156.0,195.0,39.0,78.0,white,I
0.0,5.0,0.5,1.0,7.0,3.0,1733.8639310000872,3.0,1.0,phase_3,,,,,204.0,6.0,136.0,68.0,204.0,102.0,34.0,170.0,gray,circle
0.0,2.0,1.0,0.0,7.0,4.0,1244.0623130005406,3.0,1.0,phase_3,,,,,196.0,4.0,245.0,147.0,98.0,196.0,294.0,49.0,green,cross
0.0,5.0,0.5,1.0,7.0,4.0,1753.8997379997454,3.0,1.0,phase_3,,,,,245.0,5.0,147.0,98.0,294.0,245.0,196.0,49.0,gray,circle
0.0,1.0,0.5,0.0,7.0,2.0,1939.2437420010535,3.0,1.0,phase_3,,,,,270.0,5.0,324.0,270.0,54.0,216.0,162.0,108.0,cyan,square
0.0,7.0,2.0,1.0,7.0,3.0,2344.779454000673,3.0,1.0,phase_3,,,,,270.0,5.0,108.0,324.0,270.0,54.0,216.0,162.0,orange,hexagon
0.0,4.0,4.0,0.0,7.0,6.0,1506.4878279990808,3.0,1.0,phase_3,,,,,220.0,5.0,264.0,44.0,176.0,132.0,88.0,220.0,blue,diamond
0.0,1.0,0.5,0.0,7.0,1.0,2022.2271820002788,3.0,1.0,phase_3,,,,,216.0,4.0,216.0,324.0,108.0,162.0,270.0,54.0,cyan,square
0.0,4.0,4.0,0.0,7.0,4.0,2022.154674001285,3.0,1.0,phase_3,,,,,264.0,6.0,176.0,44.0,88.0,264.0,220.0,132.0,blue,diamond
0.0,6.0,1.0,1.0,7.0,6.0,1346.8724849990394,3.0,1.0,phase_3,,,,,264.0,6.0,44.0,176.0,88.0,132.0,220.0,264.0,white,I
0.0,6.0,1.0,1.0,7.0,5.0,1634.2238920005911,3.0,1.0,phase_3,,,,,195.0,5.0,39.0,234.0,117.0,78.0,195.0,156.0,white,I
0.0,4.0,4.0,0.0,7.0,3.0,1810.2635230006852,3.0,1.0,phase_3,,,,,204.0,6.0,34.0,136.0,204.0,68.0,170.0,102.0,blue,diamond
0.0,3.0,2.0,0.0,7.0,4.0,1261.7647080005554,3.0,1.0,phase_3,,,,,196.0,4.0,147.0,294.0,49.0,196.0,245.0,98.0,yellow,flipped triangle
0.0,6.0,1.0,1.0,7.0,4.0,931.788157999108,3.0,1.0,phase_3,,,,,270.0,5.0,108.0,162.0,216.0,270.0,54.0,324.0,white,I
0.0,6.0,1.0,1.0,7.0,1.0,2059.9455910014512,4.0,1.0,phase_3,,,,,196.0,4.0,196.0,98.0,245.0,147.0,49.0,294.0,white,I
0.0,5.0,0.5,1.0,7.0,4.0,1403.555688999404,4.0,1.0,phase_3,,,,,170.0,5.0,102.0,204.0,136.0,170.0,34.0,68.0,gray,circle
0.0,3.0,2.0,0.0,7.0,5.0,2079.614928999945,4.0,1.0,phase_3,,,,,270.0,5.0,216.0,162.0,108.0,54.0,270.0,324.0,yellow,flipped triangle
0.0,2.0,1.0,0.0,7.0,6.0,1870.171518999996,4.0,1.0,phase_3,,,,,270.0,5.0,216.0,324.0,108.0,162.0,54.0,270.0,green,cross
0.0,7.0,2.0,1.0,7.0,6.0,1678.956510000717,4.0,1.0,phase_3,,,,,204.0,6.0,136.0,170.0,34.0,68.0,102.0,204.0,orange,hexagon
0.0,4.0,4.0,0.0,7.0,5.0,1559.6602430014173,4.0,1.0,phase_3,,,,,270.0,5.0,54.0,162.0,108.0,324.0,270.0,216.0,blue,diamond
0.0,3.0,2.0,0.0,7.0,4.0,2082.374849000189,4.0,1.0,phase_3,,,,,204.0,6.0,68.0,34.0,102.0,204.0,170.0,136.0,yellow,flipped triangle
0.0,2.0,1.0,0.0,7.0,5.0,2670.7772299996577,4.0,1.0,phase_3,,,,,216.0,4.0,108.0,54.0,324.0,270.0,216.0,162.0,green,cross
0.0,4.0,4.0,0.0,7.0,5.0,2740.6973260003724,4.0,1.0,phase_3,,,,,195.0,5.0,117.0,156.0,78.0,234.0,195.0,39.0,blue,diamond
0.0,8.0,4.0,1.0,7.0,4.0,2315.4674750003323,4.0,1.0,phase_3,,,,,216.0,4.0,324.0,54.0,108.0,216.0,162.0,270.0,magenta,triangle
0.0,4.0,4.0,0.0,7.0,1.0,1771.6835629998968,4.0,1.0,phase_3,,,,,195.0,5.0,195.0,117.0,234.0,78.0,39.0,156.0,blue,diamond
0.0,4.0,4.0,0.0,7.0,2.0,2394.8062430008576,4.0,1.0,phase_3,,,,,245.0,5.0,294.0,245.0,147.0,49.0,196.0,98.0,blue,diamond
0.0,2.0,1.0,0.0,7.0,4.0,2289.286426999752,4.0,1.0,phase_3,,,,,195.0,5.0,39.0,156.0,78.0,195.0,234.0,117.0,green,cross
0.0,7.0,2.0,1.0,7.0,1.0,2590.891041998475,4.0,1.0,phase_3,,,,,270.0,5.0,270.0,324.0,108.0,54.0,162.0,216.0,orange,hexagon
0.0,3.0,2.0,0.0,7.0,2.0,1702.586250999957,4.0,1.0,phase_3,,,,,220.0,5.0,264.0,220.0,176.0,88.0,44.0,132.0,yellow,flipped triangle
0.0,6.0,1.0,1.0,7.0,6.0,1450.3141300010611,4.0,1.0,phase_3,,,,,245.0,5.0,49.0,98.0,196.0,294.0,147.0,245.0,white,I
0.0,7.0,2.0,1.0,7.0,1.0,1665.893353001593,4.0,1.0,phase_3,,,,,195.0,5.0,195.0,156.0,78.0,117.0,234.0,39.0,orange,hexagon
0.0,7.0,2.0,1.0,7.0,4.0,2598.915960999875,4.0,1.0,phase_3,,,,,196.0,4.0,294.0,49.0,245.0,196.0,147.0,98.0,orange,hexagon
0.0,2.0,1.0,0.0,7.0,5.0,1268.3296430004702,4.0,1.0,phase_3,,,,,204.0,6.0,34.0,136.0,102.0,170.0,204.0,68.0,green,cross
0.0,8.0,4.0,1.0,7.0,1.0,1411.7519749997882,4.0,1.0,phase_3,,,,,195.0,5.0,195.0,234.0,78.0,156.0,39.0,117.0,magenta,triangle
