raw_reward_magnitude,stim_reward,stepwise_reward_magnitude,paired_with_stopping,stim_location,response,reaction_time,block,num_trial_presentations,which_phase,stop_signal_trial_type,left_SSD,right_SSD,accuracy,chosen_bidding_amount,chosen_bidding_level,possible_bid_1,possible_bid_2,possible_bid_3,possible_bid_4,possible_bid_5,possible_bid_6,color_text,shape_text
30.0,1.0,1.0,0.0,2.0,2.0,383.4524650001185,1.0,1.0,phase_1,,,,,,,,,,,,,blue,diamond
0.0,2.0,0.0,0.0,1.0,1.0,450.7863460003136,1.0,1.0,phase_1,,,,,,,,,,,,,cyan,cross
179.0,7.0,3.0,1.0,2.0,2.0,479.1091120000601,1.0,1.0,phase_1,,,,,,,,,,,,,green,flipped triangle
211.0,7.0,3.0,1.0,3.0,3.0,367.135128999962,1.0,1.0,phase_1,,,,,,,,,,,,,green,flipped triangle
0.0,8.0,0.0,1.0,4.0,4.0,429.4155489997138,1.0,1.0,phase_1,,,,,,,,,,,,,yellow,circle
406.0,4.0,4.0,0.0,4.0,4.0,421.1408059995847,1.0,1.0,phase_1,,,,,,,,,,,,,white,square
116.0,2.0,2.0,0.0,4.0,4.0,422.2020639999755,1.0,1.0,phase_1,,,,,,,,,,,,,cyan,cross
0.0,8.0,0.0,1.0,1.0,1.0,362.0580840001821,1.0,1.0,phase_1,,,,,,,,,,,,,yellow,circle
42.0,5.0,1.0,1.0,1.0,1.0,381.9226800001161,1.0,1.0,phase_1,,,,,,,,,,,,,magenta,I
82.0,6.0,2.0,1.0,3.0,3.0,260.05328500014,1.0,1.0,phase_1,,,,,,,,,,,,,gray,triangle
109.0,2.0,2.0,0.0,4.0,4.0,276.4650610001808,1.0,1.0,phase_1,,,,,,,,,,,,,cyan,cross
51.0,1.0,1.0,0.0,2.0,2.0,302.860819000216,1.0,1.0,phase_1,,,,,,,,,,,,,blue,diamond
201.0,7.0,3.0,1.0,3.0,3.0,331.1877840001216,1.0,1.0,phase_1,,,,,,,,,,,,,green,flipped triangle
78.0,2.0,2.0,0.0,3.0,3.0,284.8893629998201,1.0,1.0,phase_1,,,,,,,,,,,,,cyan,cross
206.0,3.0,3.0,0.0,4.0,4.0,415.0124899997536,1.0,1.0,phase_1,,,,,,,,,,,,,orange,hexagon
56.0,5.0,1.0,1.0,3.0,3.0,314.3334080000386,1.0,1.0,phase_1,,,,,,,,,,,,,magenta,I
186.0,7.0,3.0,1.0,4.0,4.0,326.8612380002196,1.0,1.0,phase_1,,,,,,,,,,,,,green,flipped triangle
28.0,1.0,1.0,0.0,1.0,1.0,331.2774670002909,1.0,1.0,phase_1,,,,,,,,,,,,,blue,diamond
82.0,2.0,2.0,0.0,3.0,3.0,278.2629039998028,1.0,1.0,phase_1,,,,,,,,,,,,,cyan,cross
0.0,1.0,0.0,0.0,1.0,1.0,531.5244160001384,1.0,1.0,phase_1,,,,,,,,,,,,,blue,diamond
47.0,5.0,1.0,1.0,2.0,2.0,248.4934120002435,1.0,1.0,phase_1,,,,,,,,,,,,,magenta,I
94.0,6.0,2.0,1.0,2.0,2.0,311.4891709997209,1.0,1.0,phase_1,,,,,,,,,,,,,gray,triangle
27.0,1.0,1.0,0.0,1.0,1.0,334.516875999725,1.0,1.0,phase_1,,,,,,,,,,,,,blue,diamond
91.0,6.0,2.0,1.0,2.0,2.0,250.44743199987352,1.0,1.0,phase_1,,,,,,,,,,,,,gray,triangle
93.0,2.0,2.0,0.0,4.0,4.0,378.8817170002403,1.0,2.0,phase_1,,,,,,,,,,,,,cyan,cross
0.0,6.0,0.0,1.0,1.0,1.0,408.1704999998692,1.0,1.0,phase_1,,,,,,,,,,,,,gray,triangle
411.0,8.0,4.0,1.0,4.0,4.0,341.2764460003927,1.0,1.0,phase_1,,,,,,,,,,,,,yellow,circle
191.0,3.0,3.0,0.0,1.0,1.0,401.5564860001177,1.0,1.0,phase_1,,,,,,,,,,,,,orange,hexagon
194.0,3.0,3.0,0.0,3.0,3.0,320.3105900001901,1.0,1.0,phase_1,,,,,,,,,,,,,orange,hexagon
212.0,7.0,3.0,1.0,3.0,3.0,349.020401999951,1.0,1.0,phase_1,,,,,,,,,,,,,green,flipped triangle
0.0,4.0,0.0,0.0,3.0,3.0,377.8864629998679,1.0,1.0,phase_1,,,,,,,,,,,,,white,square
379.0,4.0,4.0,0.0,1.0,1.0,339.9392220003392,1.0,1.0,phase_1,,,,,,,,,,,,,white,square
216.0,3.0,3.0,0.0,3.0,3.0,358.2991620000939,1.0,1.0,phase_1,,,,,,,,,,,,,orange,hexagon
420.0,4.0,4.0,0.0,2.0,2.0,326.9120559998555,1.0,1.0,phase_1,,,,,,,,,,,,,white,square
409.0,4.0,4.0,0.0,1.0,1.0,343.1557649996648,1.0,1.0,phase_1,,,,,,,,,,,,,white,square
102.0,2.0,2.0,0.0,3.0,3.0,336.4052859997173,1.0,1.0,phase_1,,,,,,,,,,,,,cyan,cross
61.0,1.0,1.0,0.0,3.0,3.0,331.7753869996522,1.0,2.0,phase_1,,,,,,,,,,,,,blue,diamond
105.0,6.0,2.0,1.0,1.0,1.0,336.7515079999066,1.0,1.0,phase_1,,,,,,,,,,,,,gray,triangle
398.0,8.0,4.0,1.0,4.0,4.0,328.5539010003049,1.0,1.0,phase_1,,,,,,,,,,,,,yellow,circle
212.0,3.0,3.0,0.0,2.0,2.0,295.825677999801,1.0,1.0,phase_1,,,,,,,,,,,,,orange,hexagon
71.0,1.0,1.0,0.0,3.0,3.0,361.018051999963,1.0,1.0,phase_1,,,,,,,,,,,,,blue,diamond
185.0,3.0,3.0,0.0,2.0,2.0,368.289834999814,1.0,1.0,phase_1,,,,,,,,,,,,,orange,hexagon
395.0,8.0,4.0,1.0,4.0,4.0,373.5689549998824,1.0,1.0,phase_1,,,,,,,,,,,,,yellow,circle
0.0,6.0,0.0,1.0,3.0,3.0,334.4639530000677,1.0,1.0,phase_1,,,,,,,,,,,,,gray,triangle
0.0,3.0,0.0,0.0,1.0,1.0,353.1307799999013,1.0,1.0,phase_1,,,,,,,,,,,,,orange,hexagon
0.0,2.0,0.0,0.0,2.0,2.0,320.3451570002471,1.0,1.0,phase_1,,,,,,,,,,,,,cyan,cross
193.0,7.0,3.0,1.0,2.0,2.0,321.261259000039,1.0,1.0,phase_1,,,,,,,,,,,,,green,flipped triangle
53.0,1.0,1.0,0.0,1.0,1.0,333.5497699999905,1.0,1.0,phase_1,,,,,,,,,,,,,blue,diamond
0.0,2.0,0.0,0.0,3.0,3.0,331.4578140002595,1.0,1.0,phase_1,,,,,,,,,,,,,cyan,cross
213.0,3.0,3.0,0.0,4.0,4.0,339.7344760001033,1.0,1.0,phase_1,,,,,,,,,,,,,orange,hexagon
0.0,4.0,0.0,0.0,2.0,2.0,287.0757149999008,1.0,1.0,phase_1,,,,,,,,,,,,,white,square
409.0,8.0,4.0,1.0,2.0,2.0,336.6493240000636,1.0,1.0,phase_1,,,,,,,,,,,,,yellow,circle
30.0,5.0,1.0,1.0,2.0,2.0,299.0071499998521,1.0,1.0,phase_1,,,,,,,,,,,,,magenta,I
384.0,4.0,4.0,0.0,2.0,2.0,301.7451919999985,1.0,1.0,phase_1,,,,,,,,,,,,,white,square
113.0,2.0,2.0,0.0,1.0,1.0,324.6157280000261,1.0,1.0,phase_1,,,,,,,,,,,,,cyan,cross
69.0,5.0,1.0,1.0,1.0,1.0,375.6680410001536,1.0,1.0,phase_1,,,,,,,,,,,,,magenta,I
414.0,4.0,4.0,0.0,3.0,3.0,296.6881759998614,1.0,1.0,phase_1,,,,,,,,,,,,,white,square
0.0,5.0,0.0,1.0,4.0,4.0,279.3697329998394,1.0,1.0,phase_1,,,,,,,,,,,,,magenta,I
106.0,6.0,2.0,1.0,4.0,4.0,379.7777730001144,1.0,1.0,phase_1,,,,,,,,,,,,,gray,triangle
418.0,4.0,4.0,0.0,1.0,1.0,343.0871969999316,1.0,1.0,phase_1,,,,,,,,,,,,,white,square
0.0,7.0,0.0,1.0,2.0,2.0,282.144469999821,1.0,1.0,phase_1,,,,,,,,,,,,,green,flipped triangle
30.0,1.0,1.0,0.0,3.0,3.0,390.7707299999856,1.0,1.0,phase_1,,,,,,,,,,,,,blue,diamond
64.0,1.0,1.0,0.0,1.0,1.0,335.93727500010567,1.0,1.0,phase_1,,,,,,,,,,,,,blue,diamond
79.0,2.0,2.0,0.0,2.0,2.0,280.2881620000335,1.0,1.0,phase_1,,,,,,,,,,,,,cyan,cross
72.0,1.0,1.0,0.0,3.0,3.0,303.7171430000853,1.0,1.0,phase_1,,,,,,,,,,,,,blue,diamond
189.0,3.0,3.0,0.0,1.0,1.0,349.787132000074,1.0,1.0,phase_1,,,,,,,,,,,,,orange,hexagon
110.0,6.0,2.0,1.0,3.0,3.0,271.9532749997597,1.0,1.0,phase_1,,,,,,,,,,,,,gray,triangle
97.0,2.0,2.0,0.0,1.0,1.0,290.597040999728,1.0,1.0,phase_1,,,,,,,,,,,,,cyan,cross
74.0,5.0,1.0,1.0,4.0,4.0,349.9473639999451,1.0,1.0,phase_1,,,,,,,,,,,,,magenta,I
403.0,8.0,4.0,1.0,2.0,2.0,356.9493640002292,1.0,1.0,phase_1,,,,,,,,,,,,,yellow,circle
0.0,7.0,0.0,1.0,2.0,2.0,266.4546080000036,1.0,1.0,phase_1,,,,,,,,,,,,,green,flipped triangle
379.0,4.0,4.0,0.0,4.0,4.0,339.1779749999841,1.0,1.0,phase_1,,,,,,,,,,,,,white,square
211.0,3.0,3.0,0.0,4.0,4.0,353.5231450000538,1.0,1.0,phase_1,,,,,,,,,,,,,orange,hexagon
0.0,2.0,0.0,0.0,3.0,3.0,341.3854149998769,1.0,1.0,phase_1,,,,,,,,,,,,,cyan,cross
380.0,4.0,4.0,0.0,3.0,3.0,322.3735350002243,1.0,1.0,phase_1,,,,,,,,,,,,,white,square
0.0,6.0,0.0,1.0,4.0,4.0,318.3440319999135,1.0,2.0,phase_1,,,,,,,,,,,,,gray,triangle
0.0,1.0,0.0,0.0,1.0,1.0,288.2766540001285,1.0,1.0,phase_1,,,,,,,,,,,,,blue,diamond
28.0,5.0,1.0,1.0,2.0,2.0,397.810169999957,1.0,1.0,phase_1,,,,,,,,,,,,,magenta,I
104.0,6.0,2.0,1.0,1.0,1.0,440.4189450001468,1.0,1.0,phase_1,,,,,,,,,,,,,gray,triangle
0.0,6.0,0.0,1.0,3.0,3.0,311.9773569997051,1.0,1.0,phase_1,,,,,,,,,,,,,gray,triangle
78.0,6.0,2.0,1.0,1.0,1.0,374.8582519997399,1.0,1.0,phase_1,,,,,,,,,,,,,gray,triangle
110.0,2.0,2.0,0.0,2.0,2.0,297.0890619999409,1.0,1.0,phase_1,,,,,,,,,,,,,cyan,cross
0.0,7.0,0.0,1.0,3.0,3.0,296.3003400000161,1.0,1.0,phase_1,,,,,,,,,,,,,green,flipped triangle
80.0,2.0,2.0,0.0,2.0,2.0,330.1447019998704,1.0,1.0,phase_1,,,,,,,,,,,,,cyan,cross
82.0,2.0,2.0,0.0,4.0,4.0,350.8029300000999,1.0,1.0,phase_1,,,,,,,,,,,,,cyan,cross
82.0,2.0,2.0,0.0,2.0,2.0,276.4451869998083,1.0,1.0,phase_1,,,,,,,,,,,,,cyan,cross
71.0,5.0,1.0,1.0,1.0,1.0,417.4004740002601,1.0,1.0,phase_1,,,,,,,,,,,,,magenta,I
68.0,5.0,1.0,1.0,3.0,3.0,350.9265249999771,1.0,1.0,phase_1,,,,,,,,,,,,,magenta,I
119.0,2.0,2.0,0.0,2.0,2.0,307.5740750000477,1.0,1.0,phase_1,,,,,,,,,,,,,cyan,cross
0.0,2.0,0.0,0.0,3.0,3.0,287.3321590000159,1.0,1.0,phase_1,,,,,,,,,,,,,cyan,cross
80.0,6.0,2.0,1.0,2.0,2.0,422.7703819997259,1.0,1.0,phase_1,,,,,,,,,,,,,gray,triangle
82.0,6.0,2.0,1.0,2.0,2.0,371.6629209998245,1.0,1.0,phase_1,,,,,,,,,,,,,gray,triangle
179.0,3.0,3.0,0.0,1.0,1.0,348.9203690000977,1.0,1.0,phase_1,,,,,,,,,,,,,orange,hexagon
403.0,8.0,4.0,1.0,3.0,3.0,312.5040420000005,1.0,1.0,phase_1,,,,,,,,,,,,,yellow,circle
0.0,4.0,0.0,0.0,4.0,4.0,405.3902549999293,1.0,1.0,phase_1,,,,,,,,,,,,,white,square
56.0,5.0,1.0,1.0,3.0,3.0,370.0224869999147,1.0,1.0,phase_1,,,,,,,,,,,,,magenta,I
198.0,7.0,3.0,1.0,2.0,2.0,295.663728999898,1.0,1.0,phase_1,,,,,,,,,,,,,green,flipped triangle
201.0,3.0,3.0,0.0,4.0,4.0,372.4271820001377,1.0,1.0,phase_1,,,,,,,,,,,,,orange,hexagon
213.0,7.0,3.0,1.0,2.0,2.0,323.9856579998559,1.0,1.0,phase_1,,,,,,,,,,,,,green,flipped triangle
217.0,3.0,3.0,0.0,2.0,2.0,361.0015049998765,1.0,1.0,phase_1,,,,,,,,,,,,,orange,hexagon
0.0,6.0,0.0,1.0,1.0,1.0,467.3482900002454,2.0,1.0,phase_1,,,,,,,,,,,,,gray,triangle
109.0,6.0,2.0,1.0,4.0,4.0,492.3275440000907,2.0,1.0,phase_1,,,,,,,,,,,,,gray,triangle
0.0,7.0,0.0,1.0,1.0,1.0,524.2403309998735,2.0,1.0,phase_1,,,,,,,,,,,,,green,flipped triangle
31.0,1.0,1.0,0.0,2.0,2.0,371.504265999647,2.0,1.0,phase_1,,,,,,,,,,,,,blue,diamond
183.0,7.0,3.0,1.0,1.0,1.0,338.8515540000298,2.0,1.0,phase_1,,,,,,,,,,,,,green,flipped triangle
203.0,3.0,3.0,0.0,1.0,1.0,383.2950539999729,2.0,1.0,phase_1,,,,,,,,,,,,,orange,hexagon
179.0,3.0,3.0,0.0,1.0,1.0,399.9903359999734,2.0,1.0,phase_1,,,,,,,,,,,,,orange,hexagon
0.0,5.0,0.0,1.0,3.0,3.0,372.6760380000087,2.0,1.0,phase_1,,,,,,,,,,,,,magenta,I
113.0,6.0,2.0,1.0,3.0,3.0,338.2805129999724,2.0,1.0,phase_1,,,,,,,,,,,,,gray,triangle
120.0,2.0,2.0,0.0,2.0,2.0,274.8954809999304,2.0,1.0,phase_1,,,,,,,,,,,,,cyan,cross
0.0,1.0,0.0,0.0,3.0,3.0,312.634221999815,2.0,1.0,phase_1,,,,,,,,,,,,,blue,diamond
106.0,6.0,2.0,1.0,1.0,1.0,347.9888609999761,2.0,1.0,phase_1,,,,,,,,,,,,,gray,triangle
0.0,8.0,0.0,1.0,4.0,4.0,269.1594920001989,2.0,1.0,phase_1,,,,,,,,,,,,,yellow,circle
69.0,1.0,1.0,0.0,4.0,4.0,520.6694090002202,2.0,1.0,phase_1,,,,,,,,,,,,,blue,diamond
376.0,4.0,4.0,0.0,2.0,2.0,316.9626030003201,2.0,1.0,phase_1,,,,,,,,,,,,,white,square
191.0,7.0,3.0,1.0,4.0,4.0,408.3158329999605,2.0,1.0,phase_1,,,,,,,,,,,,,green,flipped triangle
54.0,5.0,1.0,1.0,2.0,2.0,314.3621829999574,2.0,1.0,phase_1,,,,,,,,,,,,,magenta,I
376.0,8.0,4.0,1.0,2.0,2.0,384.9461579998205,2.0,1.0,phase_1,,,,,,,,,,,,,yellow,circle
44.0,1.0,1.0,0.0,3.0,3.0,367.2654850001891,2.0,1.0,phase_1,,,,,,,,,,,,,blue,diamond
192.0,7.0,3.0,1.0,3.0,3.0,368.4969509999973,2.0,1.0,phase_1,,,,,,,,,,,,,green,flipped triangle
28.0,1.0,1.0,0.0,4.0,4.0,399.1532609998103,2.0,1.0,phase_1,,,,,,,,,,,,,blue,diamond
403.0,4.0,4.0,0.0,2.0,2.0,327.7331640001648,2.0,1.0,phase_1,,,,,,,,,,,,,white,square
29.0,5.0,1.0,1.0,3.0,3.0,297.2541049998654,2.0,1.0,phase_1,,,,,,,,,,,,,magenta,I
79.0,6.0,2.0,1.0,2.0,2.0,287.4521990001994,2.0,1.0,phase_1,,,,,,,,,,,,,gray,triangle
379.0,8.0,4.0,1.0,1.0,1.0,388.9505899996948,2.0,1.0,phase_1,,,,,,,,,,,,,yellow,circle
28.0,5.0,1.0,1.0,2.0,2.0,533.2302500000878,2.0,1.0,phase_1,,,,,,,,,,,,,magenta,I
187.0,3.0,3.0,0.0,4.0,4.0,391.903702000036,2.0,1.0,phase_1,,,,,,,,,,,,,orange,hexagon
0.0,7.0,0.0,1.0,1.0,1.0,386.3937510000141,2.0,1.0,phase_1,,,,,,,,,,,,,green,flipped triangle
198.0,3.0,3.0,0.0,2.0,2.0,298.5154630000579,2.0,1.0,phase_1,,,,,,,,,,,,,orange,hexagon
103.0,2.0,2.0,0.0,3.0,3.0,308.9632010000969,2.0,1.0,phase_1,,,,,,,,,,,,,cyan,cross
186.0,7.0,3.0,1.0,4.0,4.0,347.3856410000735,2.0,1.0,phase_1,,,,,,,,,,,,,green,flipped triangle
420.0,4.0,4.0,0.0,2.0,2.0,334.2687939998541,2.0,1.0,phase_1,,,,,,,,,,,,,white,square
213.0,3.0,3.0,0.0,2.0,2.0,424.6755889998894,2.0,1.0,phase_1,,,,,,,,,,,,,orange,hexagon
91.0,2.0,2.0,0.0,4.0,4.0,336.0567529998661,2.0,1.0,phase_1,,,,,,,,,,,,,cyan,cross
38.0,1.0,1.0,0.0,3.0,3.0,310.0524100000257,2.0,1.0,phase_1,,,,,,,,,,,,,blue,diamond
0.0,7.0,0.0,1.0,2.0,2.0,286.2633419999838,2.0,1.0,phase_1,,,,,,,,,,,,,green,flipped triangle
106.0,2.0,2.0,0.0,1.0,1.0,372.7106349997484,2.0,1.0,phase_1,,,,,,,,,,,,,cyan,cross
82.0,6.0,2.0,1.0,4.0,4.0,352.730808999695,2.0,1.0,phase_1,,,,,,,,,,,,,gray,triangle
221.0,7.0,3.0,1.0,3.0,3.0,324.3292510001083,2.0,1.0,phase_1,,,,,,,,,,,,,green,flipped triangle
396.0,8.0,4.0,1.0,1.0,1.0,375.6981330002418,2.0,1.0,phase_1,,,,,,,,,,,,,yellow,circle
87.0,6.0,2.0,1.0,2.0,2.0,319.7898060002444,2.0,1.0,phase_1,,,,,,,,,,,,,gray,triangle
110.0,6.0,2.0,1.0,2.0,2.0,346.5123569999377,2.0,1.0,phase_1,,,,,,,,,,,,,gray,triangle
83.0,2.0,2.0,0.0,1.0,1.0,362.8409749999264,2.0,1.0,phase_1,,,,,,,,,,,,,cyan,cross
47.0,1.0,1.0,0.0,4.0,4.0,395.8244550003655,2.0,2.0,phase_1,,,,,,,,,,,,,blue,diamond
0.0,2.0,0.0,0.0,2.0,2.0,338.9564540002538,2.0,1.0,phase_1,,,,,,,,,,,,,cyan,cross
46.0,1.0,1.0,0.0,1.0,1.0,458.1058289995781,2.0,1.0,phase_1,,,,,,,,,,,,,blue,diamond
0.0,1.0,0.0,0.0,2.0,2.0,368.3601419998012,2.0,1.0,phase_1,,,,,,,,,,,,,blue,diamond
0.0,3.0,0.0,0.0,1.0,1.0,411.938669999472,2.0,1.0,phase_1,,,,,,,,,,,,,orange,hexagon
0.0,6.0,0.0,1.0,1.0,1.0,375.2750059993559,2.0,1.0,phase_1,,,,,,,,,,,,,gray,triangle
397.0,8.0,4.0,1.0,2.0,2.0,300.4021669994472,2.0,1.0,phase_1,,,,,,,,,,,,,yellow,circle
0.0,6.0,0.0,1.0,3.0,3.0,326.5579810004055,2.0,1.0,phase_1,,,,,,,,,,,,,gray,triangle
0.0,8.0,0.0,1.0,4.0,4.0,371.1786140002004,2.0,1.0,phase_1,,,,,,,,,,,,,yellow,circle
59.0,5.0,1.0,1.0,2.0,2.0,283.6697399998229,2.0,1.0,phase_1,,,,,,,,,,,,,magenta,I
66.0,5.0,1.0,1.0,1.0,1.0,378.9770390003468,2.0,1.0,phase_1,,,,,,,,,,,,,magenta,I
400.0,4.0,4.0,0.0,2.0,2.0,476.05266499977,2.0,1.0,phase_1,,,,,,,,,,,,,white,square
93.0,6.0,2.0,1.0,3.0,3.0,352.3122389997297,2.0,1.0,phase_1,,,,,,,,,,,,,gray,triangle
106.0,2.0,2.0,0.0,4.0,4.0,362.7645750002557,2.0,1.0,phase_1,,,,,,,,,,,,,cyan,cross
0.0,4.0,0.0,0.0,1.0,1.0,344.3239919997722,2.0,1.0,phase_1,,,,,,,,,,,,,white,square
41.0,1.0,1.0,0.0,1.0,1.0,359.0842539997538,2.0,1.0,phase_1,,,,,,,,,,,,,blue,diamond
202.0,3.0,3.0,0.0,4.0,4.0,342.8615250004441,2.0,1.0,phase_1,,,,,,,,,,,,,orange,hexagon
412.0,4.0,4.0,0.0,4.0,4.0,349.7543699995731,2.0,2.0,phase_1,,,,,,,,,,,,,white,square
72.0,5.0,1.0,1.0,3.0,3.0,304.0673639998204,2.0,1.0,phase_1,,,,,,,,,,,,,magenta,I
117.0,2.0,2.0,0.0,1.0,1.0,379.1206260002582,2.0,1.0,phase_1,,,,,,,,,,,,,cyan,cross
0.0,6.0,0.0,1.0,2.0,2.0,329.3631430005916,2.0,1.0,phase_1,,,,,,,,,,,,,gray,triangle
417.0,4.0,4.0,0.0,2.0,2.0,354.2434870005309,2.0,1.0,phase_1,,,,,,,,,,,,,white,square
423.0,8.0,4.0,1.0,3.0,3.0,291.1534450004183,2.0,1.0,phase_1,,,,,,,,,,,,,yellow,circle
83.0,6.0,2.0,1.0,3.0,3.0,300.1419940001142,2.0,2.0,phase_1,,,,,,,,,,,,,gray,triangle
0.0,7.0,0.0,1.0,2.0,2.0,441.1439929999687,2.0,1.0,phase_1,,,,,,,,,,,,,green,flipped triangle
222.0,3.0,3.0,0.0,3.0,3.0,305.6321770000068,2.0,1.0,phase_1,,,,,,,,,,,,,orange,hexagon
420.0,8.0,4.0,1.0,3.0,3.0,524.6433749998687,2.0,1.0,phase_1,,,,,,,,,,,,,yellow,circle
386.0,8.0,4.0,1.0,1.0,1.0,409.9312919997828,2.0,1.0,phase_1,,,,,,,,,,,,,yellow,circle
410.0,8.0,4.0,1.0,3.0,3.0,341.1013300001286,2.0,1.0,phase_1,,,,,,,,,,,,,yellow,circle
212.0,7.0,3.0,1.0,1.0,1.0,449.1898079995735,2.0,1.0,phase_1,,,,,,,,,,,,,green,flipped triangle
99.0,6.0,2.0,1.0,1.0,1.0,487.2655789995406,2.0,1.0,phase_1,,,,,,,,,,,,,gray,triangle
398.0,8.0,4.0,1.0,3.0,3.0,371.6454169998542,2.0,1.0,phase_1,,,,,,,,,,,,,yellow,circle
192.0,3.0,3.0,0.0,1.0,1.0,466.9297489999735,2.0,1.0,phase_1,,,,,,,,,,,,,orange,hexagon
117.0,2.0,2.0,0.0,4.0,4.0,374.5150770000691,2.0,1.0,phase_1,,,,,,,,,,,,,cyan,cross
74.0,5.0,1.0,1.0,2.0,2.0,330.717772000753,2.0,1.0,phase_1,,,,,,,,,,,,,magenta,I
56.0,1.0,1.0,0.0,2.0,2.0,447.617376999915,2.0,1.0,phase_1,,,,,,,,,,,,,blue,diamond
396.0,4.0,4.0,0.0,3.0,3.0,315.3448089997255,2.0,1.0,phase_1,,,,,,,,,,,,,white,square
0.0,5.0,0.0,1.0,2.0,2.0,333.0833800000619,2.0,2.0,phase_1,,,,,,,,,,,,,magenta,I
423.0,4.0,4.0,0.0,2.0,2.0,324.1032590003669,2.0,1.0,phase_1,,,,,,,,,,,,,white,square
119.0,6.0,2.0,1.0,2.0,2.0,348.716422000507,2.0,1.0,phase_1,,,,,,,,,,,,,gray,triangle
29.0,5.0,1.0,1.0,3.0,3.0,356.2885629999073,2.0,1.0,phase_1,,,,,,,,,,,,,magenta,I
219.0,7.0,3.0,1.0,3.0,3.0,353.0912200003513,2.0,1.0,phase_1,,,,,,,,,,,,,green,flipped triangle
398.0,4.0,4.0,0.0,1.0,1.0,404.1521080007442,2.0,1.0,phase_1,,,,,,,,,,,,,white,square
216.0,7.0,3.0,1.0,3.0,3.0,427.4005019997275,2.0,1.0,phase_1,,,,,,,,,,,,,green,flipped triangle
409.0,8.0,4.0,1.0,2.0,2.0,320.1029600004403,2.0,1.0,phase_1,,,,,,,,,,,,,yellow,circle
110.0,2.0,2.0,0.0,3.0,3.0,352.5039090000064,2.0,1.0,phase_1,,,,,,,,,,,,,cyan,cross
421.0,8.0,4.0,1.0,4.0,4.0,593.0997129999014,2.0,1.0,phase_1,,,,,,,,,,,,,yellow,circle
97.0,6.0,2.0,1.0,1.0,1.0,440.1290730002074,2.0,1.0,phase_1,,,,,,,,,,,,,gray,triangle
0.0,6.0,0.0,1.0,1.0,1.0,410.607054999673,2.0,1.0,phase_1,,,,,,,,,,,,,gray,triangle
0.0,3.0,0.0,0.0,1.0,1.0,425.8869100003721,2.0,1.0,phase_1,,,,,,,,,,,,,orange,hexagon
411.0,4.0,4.0,0.0,3.0,3.0,364.7135100000014,2.0,1.0,phase_1,,,,,,,,,,,,,white,square
87.0,2.0,2.0,0.0,2.0,2.0,422.3117499996078,2.0,1.0,phase_1,,,,,,,,,,,,,cyan,cross
178.0,7.0,3.0,1.0,3.0,3.0,300.3950000002078,2.0,1.0,phase_1,,,,,,,,,,,,,green,flipped triangle
403.0,4.0,4.0,0.0,2.0,2.0,398.7392889994225,2.0,1.0,phase_1,,,,,,,,,,,,,white,square
417.0,8.0,4.0,1.0,3.0,3.0,439.8164720005297,2.0,1.0,phase_1,,,,,,,,,,,,,yellow,circle
214.0,3.0,3.0,0.0,1.0,1.0,465.1767690002089,2.0,1.0,phase_1,,,,,,,,,,,,,orange,hexagon
406.0,8.0,4.0,1.0,1.0,1.0,387.9113739994864,2.0,1.0,phase_1,,,,,,,,,,,,,yellow,circle
106.0,2.0,2.0,0.0,1.0,1.0,381.728442000167,3.0,1.0,phase_1,,,,,,,,,,,,,cyan,cross
78.0,2.0,2.0,0.0,3.0,3.0,270.1467010001579,3.0,1.0,phase_1,,,,,,,,,,,,,cyan,cross
103.0,6.0,2.0,1.0,4.0,4.0,716.5599760000987,3.0,1.0,phase_1,,,,,,,,,,,,,gray,triangle
85.0,6.0,2.0,1.0,4.0,4.0,379.9874639998961,3.0,1.0,phase_1,,,,,,,,,,,,,gray,triangle
400.0,8.0,4.0,1.0,4.0,4.0,400.4556279996905,3.0,1.0,phase_1,,,,,,,,,,,,,yellow,circle
117.0,6.0,2.0,1.0,4.0,4.0,392.3113219998413,3.0,1.0,phase_1,,,,,,,,,,,,,gray,triangle
0.0,3.0,0.0,0.0,4.0,4.0,350.5079520000436,3.0,1.0,phase_1,,,,,,,,,,,,,orange,hexagon
117.0,6.0,2.0,1.0,4.0,4.0,378.6433790000956,3.0,1.0,phase_1,,,,,,,,,,,,,gray,triangle
195.0,3.0,3.0,0.0,4.0,4.0,388.899777000006,3.0,1.0,phase_1,,,,,,,,,,,,,orange,hexagon
115.0,2.0,2.0,0.0,2.0,2.0,311.4301049999994,3.0,1.0,phase_1,,,,,,,,,,,,,cyan,cross
219.0,3.0,3.0,0.0,2.0,2.0,397.1466909997616,3.0,1.0,phase_1,,,,,,,,,,,,,orange,hexagon
62.0,5.0,1.0,1.0,4.0,4.0,367.5384139996822,3.0,1.0,phase_1,,,,,,,,,,,,,magenta,I
221.0,3.0,3.0,0.0,3.0,3.0,310.6022259999008,3.0,1.0,phase_1,,,,,,,,,,,,,orange,hexagon
221.0,3.0,3.0,0.0,3.0,3.0,295.3092400002788,3.0,1.0,phase_1,,,,,,,,,,,,,orange,hexagon
183.0,7.0,3.0,1.0,4.0,4.0,343.4350200004701,3.0,1.0,phase_1,,,,,,,,,,,,,green,flipped triangle
417.0,4.0,4.0,0.0,1.0,1.0,351.3297110002895,3.0,1.0,phase_1,,,,,,,,,,,,,white,square
206.0,3.0,3.0,0.0,2.0,2.0,358.5033040008056,3.0,1.0,phase_1,,,,,,,,,,,,,orange,hexagon
53.0,5.0,1.0,1.0,4.0,4.0,357.4521340005958,3.0,1.0,phase_1,,,,,,,,,,,,,magenta,I
382.0,4.0,4.0,0.0,3.0,3.0,280.2513670003463,3.0,1.0,phase_1,,,,,,,,,,,,,white,square
27.0,5.0,1.0,1.0,4.0,4.0,379.6333210002558,3.0,1.0,phase_1,,,,,,,,,,,,,magenta,I
59.0,1.0,1.0,0.0,1.0,1.0,373.1661550000353,3.0,1.0,phase_1,,,,,,,,,,,,,blue,diamond
203.0,7.0,3.0,1.0,1.0,1.0,390.1185229997281,3.0,1.0,phase_1,,,,,,,,,,,,,green,flipped triangle
414.0,8.0,4.0,1.0,1.0,1.0,394.8661260001245,3.0,1.0,phase_1,,,,,,,,,,,,,yellow,circle
213.0,7.0,3.0,1.0,1.0,1.0,433.4170740003173,3.0,1.0,phase_1,,,,,,,,,,,,,green,flipped triangle
385.0,8.0,4.0,1.0,3.0,3.0,395.8701080000537,3.0,1.0,phase_1,,,,,,,,,,,,,yellow,circle
42.0,1.0,1.0,0.0,2.0,2.0,338.3915980002712,3.0,1.0,phase_1,,,,,,,,,,,,,blue,diamond
56.0,1.0,1.0,0.0,2.0,2.0,359.0172860003804,3.0,1.0,phase_1,,,,,,,,,,,,,blue,diamond
203.0,3.0,3.0,0.0,3.0,3.0,370.5171970004812,3.0,1.0,phase_1,,,,,,,,,,,,,orange,hexagon
179.0,7.0,3.0,1.0,2.0,2.0,339.5353670002805,3.0,2.0,phase_1,,,,,,,,,,,,,green,flipped triangle
217.0,7.0,3.0,1.0,4.0,4.0,416.1336779998237,3.0,1.0,phase_1,,,,,,,,,,,,,green,flipped triangle
395.0,4.0,4.0,0.0,4.0,4.0,516.9653369994194,3.0,1.0,phase_1,,,,,,,,,,,,,white,square
421.0,4.0,4.0,0.0,3.0,3.0,375.0741459998608,3.0,1.0,phase_1,,,,,,,,,,,,,white,square
104.0,2.0,2.0,0.0,1.0,1.0,406.0112520000984,3.0,1.0,phase_1,,,,,,,,,,,,,cyan,cross
0.0,7.0,0.0,1.0,1.0,1.0,359.086624000156,3.0,1.0,phase_1,,,,,,,,,,,,,green,flipped triangle
26.0,5.0,1.0,1.0,2.0,2.0,358.7339549994794,3.0,1.0,phase_1,,,,,,,,,,,,,magenta,I
0.0,1.0,0.0,0.0,3.0,3.0,331.8381409999347,3.0,1.0,phase_1,,,,,,,,,,,,,blue,diamond
0.0,3.0,0.0,0.0,3.0,3.0,336.0403780006891,3.0,1.0,phase_1,,,,,,,,,,,,,orange,hexagon
397.0,4.0,4.0,0.0,4.0,4.0,393.3689750001576,3.0,1.0,phase_1,,,,,,,,,,,,,white,square
35.0,5.0,1.0,1.0,1.0,1.0,378.1664810003349,3.0,1.0,phase_1,,,,,,,,,,,,,magenta,I
0.0,5.0,0.0,1.0,4.0,4.0,357.9560520001905,3.0,1.0,phase_1,,,,,,,,,,,,,magenta,I
79.0,6.0,2.0,1.0,1.0,1.0,342.9951829994024,3.0,1.0,phase_1,,,,,,,,,,,,,gray,triangle
35.0,1.0,1.0,0.0,1.0,1.0,327.3903959998279,3.0,1.0,phase_1,,,,,,,,,,,,,blue,diamond
203.0,7.0,3.0,1.0,4.0,4.0,321.2547600005564,3.0,1.0,phase_1,,,,,,,,,,,,,green,flipped triangle
31.0,5.0,1.0,1.0,1.0,1.0,349.229230999299,3.0,1.0,phase_1,,,,,,,,,,,,,magenta,I
105.0,6.0,2.0,1.0,4.0,4.0,351.893248000124,3.0,1.0,phase_1,,,,,,,,,,,,,gray,triangle
198.0,7.0,3.0,1.0,3.0,3.0,497.3398830006772,3.0,1.0,phase_1,,,,,,,,,,,,,green,flipped triangle
30.0,5.0,1.0,1.0,2.0,2.0,378.4611740002219,3.0,1.0,phase_1,,,,,,,,,,,,,magenta,I
206.0,7.0,3.0,1.0,2.0,2.0,361.2025010006618,3.0,1.0,phase_1,,,,,,,,,,,,,green,flipped triangle
0.0,1.0,0.0,0.0,4.0,4.0,317.3038730001281,3.0,1.0,phase_1,,,,,,,,,,,,,blue,diamond
398.0,4.0,4.0,0.0,3.0,3.0,329.4074570003431,3.0,1.0,phase_1,,,,,,,,,,,,,white,square
56.0,5.0,1.0,1.0,1.0,1.0,319.6264300004259,3.0,1.0,phase_1,,,,,,,,,,,,,magenta,I
74.0,1.0,1.0,0.0,2.0,2.0,374.1786250002406,3.0,1.0,phase_1,,,,,,,,,,,,,blue,diamond
180.0,7.0,3.0,1.0,1.0,1.0,464.7861559997182,3.0,1.0,phase_1,,,,,,,,,,,,,green,flipped triangle
194.0,7.0,3.0,1.0,1.0,1.0,357.7819539996199,3.0,1.0,phase_1,,,,,,,,,,,,,green,flipped triangle
403.0,4.0,4.0,0.0,4.0,4.0,365.6719570008135,3.0,1.0,phase_1,,,,,,,,,,,,,white,square
420.0,8.0,4.0,1.0,3.0,3.0,365.5317780003315,3.0,1.0,phase_1,,,,,,,,,,,,,yellow,circle
185.0,7.0,3.0,1.0,1.0,1.0,348.9542010001969,3.0,1.0,phase_1,,,,,,,,,,,,,green,flipped triangle
0.0,5.0,0.0,1.0,3.0,3.0,339.2964240001674,3.0,1.0,phase_1,,,,,,,,,,,,,magenta,I
122.0,6.0,2.0,1.0,1.0,1.0,373.8830639995285,3.0,1.0,phase_1,,,,,,,,,,,,,gray,triangle
38.0,5.0,1.0,1.0,3.0,3.0,377.2455509997598,3.0,1.0,phase_1,,,,,,,,,,,,,magenta,I
0.0,3.0,0.0,0.0,1.0,1.0,316.3105980002001,3.0,1.0,phase_1,,,,,,,,,,,,,orange,hexagon
415.0,4.0,4.0,0.0,1.0,1.0,331.4848569998503,3.0,1.0,phase_1,,,,,,,,,,,,,white,square
183.0,3.0,3.0,0.0,4.0,4.0,386.7761880001126,3.0,1.0,phase_1,,,,,,,,,,,,,orange,hexagon
105.0,2.0,2.0,0.0,1.0,1.0,381.1557729995911,3.0,1.0,phase_1,,,,,,,,,,,,,cyan,cross
94.0,2.0,2.0,0.0,4.0,4.0,402.8682039997875,3.0,1.0,phase_1,,,,,,,,,,,,,cyan,cross
0.0,1.0,0.0,0.0,2.0,2.0,326.3275830004204,3.0,1.0,phase_1,,,,,,,,,,,,,blue,diamond
104.0,2.0,2.0,0.0,3.0,3.0,296.9093399997291,3.0,1.0,phase_1,,,,,,,,,,,,,cyan,cross
106.0,6.0,2.0,1.0,3.0,3.0,376.776295000127,3.0,1.0,phase_1,,,,,,,,,,,,,gray,triangle
0.0,3.0,0.0,0.0,3.0,3.0,328.7828789998457,3.0,1.0,phase_1,,,,,,,,,,,,,orange,hexagon
64.0,5.0,1.0,1.0,3.0,3.0,351.7849519994342,3.0,1.0,phase_1,,,,,,,,,,,,,magenta,I
0.0,4.0,0.0,0.0,3.0,3.0,317.8633960005754,3.0,1.0,phase_1,,,,,,,,,,,,,white,square
0.0,6.0,0.0,1.0,3.0,3.0,322.1799049997571,3.0,1.0,phase_1,,,,,,,,,,,,,gray,triangle
217.0,3.0,3.0,0.0,4.0,4.0,336.9757469999968,3.0,1.0,phase_1,,,,,,,,,,,,,orange,hexagon
217.0,7.0,3.0,1.0,4.0,4.0,387.2477099994285,3.0,1.0,phase_1,,,,,,,,,,,,,green,flipped triangle
61.0,5.0,1.0,1.0,4.0,4.0,308.2880959991598,3.0,1.0,phase_1,,,,,,,,,,,,,magenta,I
412.0,8.0,4.0,1.0,1.0,1.0,408.8126950000514,3.0,1.0,phase_1,,,,,,,,,,,,,yellow,circle
0.0,1.0,0.0,0.0,2.0,2.0,376.9454230005067,3.0,1.0,phase_1,,,,,,,,,,,,,blue,diamond
38.0,5.0,1.0,1.0,4.0,4.0,429.0083480000248,3.0,1.0,phase_1,,,,,,,,,,,,,magenta,I
47.0,5.0,1.0,1.0,2.0,2.0,342.9848939995281,3.0,1.0,phase_1,,,,,,,,,,,,,magenta,I
111.0,2.0,2.0,0.0,2.0,2.0,381.1118080002416,3.0,1.0,phase_1,,,,,,,,,,,,,cyan,cross
385.0,8.0,4.0,1.0,4.0,4.0,293.3030100002725,3.0,1.0,phase_1,,,,,,,,,,,,,yellow,circle
29.0,1.0,1.0,0.0,3.0,3.0,319.4691069993496,3.0,1.0,phase_1,,,,,,,,,,,,,blue,diamond
178.0,3.0,3.0,0.0,3.0,3.0,336.58592699976,3.0,1.0,phase_1,,,,,,,,,,,,,orange,hexagon
385.0,4.0,4.0,0.0,1.0,1.0,303.62919900017,3.0,1.0,phase_1,,,,,,,,,,,,,white,square
0.0,3.0,0.0,0.0,2.0,2.0,305.9212930002104,3.0,1.0,phase_1,,,,,,,,,,,,,orange,hexagon
0.0,8.0,0.0,1.0,2.0,2.0,349.174724000477,3.0,1.0,phase_1,,,,,,,,,,,,,yellow,circle
0.0,5.0,0.0,1.0,2.0,2.0,353.2985799993184,3.0,1.0,phase_1,,,,,,,,,,,,,magenta,I
42.0,5.0,1.0,1.0,1.0,1.0,282.5400519996037,3.0,1.0,phase_1,,,,,,,,,,,,,magenta,I
26.0,1.0,1.0,0.0,4.0,4.0,303.2747620000009,3.0,1.0,phase_1,,,,,,,,,,,,,blue,diamond
206.0,7.0,3.0,1.0,2.0,2.0,414.7294149997833,3.0,1.0,phase_1,,,,,,,,,,,,,green,flipped triangle
79.0,2.0,2.0,0.0,3.0,3.0,272.4057579998771,3.0,1.0,phase_1,,,,,,,,,,,,,cyan,cross
0.0,8.0,0.0,1.0,1.0,1.0,336.821928000063,3.0,1.0,phase_1,,,,,,,,,,,,,yellow,circle
198.0,3.0,3.0,0.0,1.0,1.0,407.488273999661,3.0,1.0,phase_1,,,,,,,,,,,,,orange,hexagon
0.0,4.0,0.0,0.0,2.0,2.0,494.5044530004452,3.0,1.0,phase_1,,,,,,,,,,,,,white,square
54.0,1.0,1.0,0.0,4.0,4.0,433.4917039996071,3.0,1.0,phase_1,,,,,,,,,,,,,blue,diamond
41.0,5.0,1.0,1.0,4.0,4.0,394.8159190003935,3.0,1.0,phase_1,,,,,,,,,,,,,magenta,I
417.0,8.0,4.0,1.0,4.0,4.0,569.6463020003648,3.0,1.0,phase_1,,,,,,,,,,,,,yellow,circle
222.0,7.0,3.0,1.0,2.0,2.0,317.9224539999268,3.0,1.0,phase_1,,,,,,,,,,,,,green,flipped triangle
122.0,2.0,2.0,0.0,3.0,3.0,457.73678299974557,3.0,1.0,phase_1,,,,,,,,,,,,,cyan,cross
51.0,5.0,1.0,1.0,4.0,4.0,322.5338960000954,3.0,1.0,phase_1,,,,,,,,,,,,,magenta,I
68.0,5.0,1.0,1.0,4.0,4.0,462.7889610001148,4.0,1.0,phase_1,,,,,,,,,,,,,magenta,I
0.0,2.0,0.0,0.0,1.0,1.0,298.4416050003347,4.0,1.0,phase_1,,,,,,,,,,,,,cyan,cross
187.0,7.0,3.0,1.0,1.0,1.0,339.2195690003063,4.0,1.0,phase_1,,,,,,,,,,,,,green,flipped triangle
51.0,1.0,1.0,0.0,4.0,4.0,332.0165759996598,4.0,1.0,phase_1,,,,,,,,,,,,,blue,diamond
0.0,5.0,0.0,1.0,2.0,2.0,370.0108659995749,4.0,1.0,phase_1,,,,,,,,,,,,,magenta,I
0.0,4.0,0.0,0.0,4.0,4.0,337.06162100043,4.0,1.0,phase_1,,,,,,,,,,,,,white,square
214.0,7.0,3.0,1.0,1.0,1.0,309.8489550002341,4.0,1.0,phase_1,,,,,,,,,,,,,green,flipped triangle
391.0,8.0,4.0,1.0,1.0,1.0,376.7030349999913,4.0,1.0,phase_1,,,,,,,,,,,,,yellow,circle
119.0,2.0,2.0,0.0,3.0,3.0,371.8638480004301,4.0,1.0,phase_1,,,,,,,,,,,,,cyan,cross
410.0,4.0,4.0,0.0,1.0,1.0,316.7944459992213,4.0,1.0,phase_1,,,,,,,,,,,,,white,square
192.0,3.0,3.0,0.0,4.0,4.0,299.8441070003537,4.0,1.0,phase_1,,,,,,,,,,,,,orange,hexagon
42.0,1.0,1.0,0.0,4.0,4.0,387.1159649997935,4.0,1.0,phase_1,,,,,,,,,,,,,blue,diamond
69.0,1.0,1.0,0.0,2.0,2.0,362.4788059996717,4.0,1.0,phase_1,,,,,,,,,,,,,blue,diamond
105.0,2.0,2.0,0.0,4.0,4.0,306.4026990005004,4.0,1.0,phase_1,,,,,,,,,,,,,cyan,cross
104.0,6.0,2.0,1.0,4.0,4.0,351.0297029997673,4.0,1.0,phase_1,,,,,,,,,,,,,gray,triangle
93.0,2.0,2.0,0.0,4.0,4.0,344.15139200064,4.0,1.0,phase_1,,,,,,,,,,,,,cyan,cross
0.0,8.0,0.0,1.0,3.0,3.0,446.4789800003927,4.0,1.0,phase_1,,,,,,,,,,,,,yellow,circle
198.0,7.0,3.0,1.0,3.0,3.0,364.3197370001871,4.0,1.0,phase_1,,,,,,,,,,,,,green,flipped triangle
186.0,3.0,3.0,0.0,1.0,1.0,411.8125209997743,4.0,1.0,phase_1,,,,,,,,,,,,,orange,hexagon
89.0,2.0,2.0,0.0,1.0,1.0,453.2803689999127,4.0,1.0,phase_1,,,,,,,,,,,,,cyan,cross
202.0,7.0,3.0,1.0,4.0,4.0,388.9554780007529,4.0,1.0,phase_1,,,,,,,,,,,,,green,flipped triangle
0.0,8.0,0.0,1.0,2.0,2.0,388.1040480000592,4.0,1.0,phase_1,,,,,,,,,,,,,yellow,circle
0.0,3.0,0.0,0.0,4.0,4.0,417.9600199995548,4.0,1.0,phase_1,,,,,,,,,,,,,orange,hexagon
382.0,8.0,4.0,1.0,1.0,1.0,318.2237129994973,4.0,1.0,phase_1,,,,,,,,,,,,,yellow,circle
38.0,1.0,1.0,0.0,3.0,3.0,438.3390920002057,4.0,1.0,phase_1,,,,,,,,,,,,,blue,diamond
180.0,3.0,3.0,0.0,3.0,3.0,399.3686229996456,4.0,1.0,phase_1,,,,,,,,,,,,,orange,hexagon
186.0,3.0,3.0,0.0,2.0,2.0,379.4227729995327,4.0,1.0,phase_1,,,,,,,,,,,,,orange,hexagon
0.0,1.0,0.0,0.0,4.0,4.0,294.6526619998622,4.0,1.0,phase_1,,,,,,,,,,,,,blue,diamond
62.0,1.0,1.0,0.0,4.0,4.0,383.1309119996149,4.0,1.0,phase_1,,,,,,,,,,,,,blue,diamond
379.0,4.0,4.0,0.0,3.0,3.0,367.1982989999378,4.0,1.0,phase_1,,,,,,,,,,,,,white,square
74.0,1.0,1.0,0.0,2.0,2.0,363.5060879996672,4.0,1.0,phase_1,,,,,,,,,,,,,blue,diamond
29.0,1.0,1.0,0.0,1.0,1.0,306.797356000061,4.0,1.0,phase_1,,,,,,,,,,,,,blue,diamond
0.0,4.0,0.0,0.0,4.0,4.0,319.5790620002299,4.0,1.0,phase_1,,,,,,,,,,,,,white,square
398.0,4.0,4.0,0.0,4.0,4.0,353.9386879992889,4.0,1.0,phase_1,,,,,,,,,,,,,white,square
183.0,3.0,3.0,0.0,2.0,2.0,383.2175480001751,4.0,1.0,phase_1,,,,,,,,,,,,,orange,hexagon
385.0,4.0,4.0,0.0,4.0,4.0,325.8638359993711,4.0,1.0,phase_1,,,,,,,,,,,,,white,square
0.0,2.0,0.0,0.0,4.0,4.0,296.0244879996025,4.0,1.0,phase_1,,,,,,,,,,,,,cyan,cross
221.0,7.0,3.0,1.0,4.0,4.0,351.6098930003863,4.0,1.0,phase_1,,,,,,,,,,,,,green,flipped triangle
119.0,6.0,2.0,1.0,3.0,3.0,324.8707109996758,4.0,1.0,phase_1,,,,,,,,,,,,,gray,triangle
384.0,8.0,4.0,1.0,4.0,4.0,321.252280000408,4.0,1.0,phase_1,,,,,,,,,,,,,yellow,circle
93.0,6.0,2.0,1.0,2.0,2.0,442.1263309995993,4.0,2.0,phase_1,,,,,,,,,,,,,gray,triangle
56.0,1.0,1.0,0.0,2.0,2.0,316.8824350004797,4.0,1.0,phase_1,,,,,,,,,,,,,blue,diamond
386.0,8.0,4.0,1.0,3.0,3.0,343.6626910006453,4.0,1.0,phase_1,,,,,,,,,,,,,yellow,circle
0.0,5.0,0.0,1.0,3.0,3.0,497.4287400000321,4.0,1.0,phase_1,,,,,,,,,,,,,magenta,I
192.0,7.0,3.0,1.0,2.0,2.0,406.7235070006063,4.0,1.0,phase_1,,,,,,,,,,,,,green,flipped triangle
0.0,7.0,0.0,1.0,4.0,4.0,335.0089030000163,4.0,1.0,phase_1,,,,,,,,,,,,,green,flipped triangle
391.0,4.0,4.0,0.0,4.0,4.0,351.1194350003279,4.0,1.0,phase_1,,,,,,,,,,,,,white,square
116.0,6.0,2.0,1.0,2.0,2.0,390.4355699996813,4.0,1.0,phase_1,,,,,,,,,,,,,gray,triangle
115.0,6.0,2.0,1.0,1.0,1.0,411.456528000599,4.0,1.0,phase_1,,,,,,,,,,,,,gray,triangle
0.0,3.0,0.0,0.0,1.0,1.0,375.9921149994625,4.0,1.0,phase_1,,,,,,,,,,,,,orange,hexagon
391.0,8.0,4.0,1.0,1.0,1.0,333.2146140000986,4.0,1.0,phase_1,,,,,,,,,,,,,yellow,circle
56.0,5.0,1.0,1.0,1.0,1.0,355.7146819994159,4.0,1.0,phase_1,,,,,,,,,,,,,magenta,I
0.0,1.0,0.0,0.0,3.0,3.0,403.5958219992608,4.0,1.0,phase_1,,,,,,,,,,,,,blue,diamond
78.0,6.0,2.0,1.0,3.0,3.0,388.0384100002629,4.0,1.0,phase_1,,,,,,,,,,,,,gray,triangle
415.0,8.0,4.0,1.0,2.0,2.0,448.2978070000172,4.0,1.0,phase_1,,,,,,,,,,,,,yellow,circle
111.0,6.0,2.0,1.0,3.0,3.0,380.4912209998292,4.0,1.0,phase_1,,,,,,,,,,,,,gray,triangle
68.0,1.0,1.0,0.0,1.0,1.0,409.8712499999237,4.0,1.0,phase_1,,,,,,,,,,,,,blue,diamond
212.0,3.0,3.0,0.0,3.0,3.0,315.7583310003247,4.0,1.0,phase_1,,,,,,,,,,,,,orange,hexagon
44.0,5.0,1.0,1.0,3.0,3.0,349.3796279999515,4.0,1.0,phase_1,,,,,,,,,,,,,magenta,I
102.0,6.0,2.0,1.0,1.0,1.0,430.8402370006661,4.0,1.0,phase_1,,,,,,,,,,,,,gray,triangle
193.0,3.0,3.0,0.0,3.0,3.0,335.3157999999894,4.0,1.0,phase_1,,,,,,,,,,,,,orange,hexagon
47.0,1.0,1.0,0.0,3.0,3.0,334.2338089996701,4.0,1.0,phase_1,,,,,,,,,,,,,blue,diamond
0.0,8.0,0.0,1.0,1.0,1.0,405.278640000688,4.0,1.0,phase_1,,,,,,,,,,,,,yellow,circle
379.0,8.0,4.0,1.0,1.0,1.0,353.783022999778,4.0,1.0,phase_1,,,,,,,,,,,,,yellow,circle
99.0,2.0,2.0,0.0,2.0,2.0,390.8211959997061,4.0,1.0,phase_1,,,,,,,,,,,,,cyan,cross
391.0,4.0,4.0,0.0,4.0,4.0,398.8973049999913,4.0,1.0,phase_1,,,,,,,,,,,,,white,square
413.0,8.0,4.0,1.0,2.0,2.0,411.3005950002844,4.0,1.0,phase_1,,,,,,,,,,,,,yellow,circle
198.0,3.0,3.0,0.0,1.0,1.0,426.7524570004752,4.0,1.0,phase_1,,,,,,,,,,,,,orange,hexagon
89.0,6.0,2.0,1.0,3.0,3.0,360.6689270000061,4.0,1.0,phase_1,,,,,,,,,,,,,gray,triangle
408.0,8.0,4.0,1.0,4.0,4.0,360.7831459994486,4.0,1.0,phase_1,,,,,,,,,,,,,yellow,circle
56.0,1.0,1.0,0.0,3.0,3.0,373.2166219997452,4.0,1.0,phase_1,,,,,,,,,,,,,blue,diamond
202.0,3.0,3.0,0.0,2.0,2.0,380.7109509998554,4.0,1.0,phase_1,,,,,,,,,,,,,orange,hexagon
0.0,4.0,0.0,0.0,4.0,4.0,368.6981959999684,4.0,1.0,phase_1,,,,,,,,,,,,,white,square
46.0,5.0,1.0,1.0,4.0,4.0,391.1527420004859,4.0,1.0,phase_1,,,,,,,,,,,,,magenta,I
409.0,4.0,4.0,0.0,1.0,1.0,420.2860979994511,4.0,1.0,phase_1,,,,,,,,,,,,,white,square
0.0,8.0,0.0,1.0,4.0,4.0,438.9265429999796,4.0,1.0,phase_1,,,,,,,,,,,,,yellow,circle
85.0,2.0,2.0,0.0,1.0,1.0,358.299972000168,4.0,1.0,phase_1,,,,,,,,,,,,,cyan,cross
380.0,8.0,4.0,1.0,3.0,3.0,350.9439730005397,4.0,1.0,phase_1,,,,,,,,,,,,,yellow,circle
69.0,5.0,1.0,1.0,3.0,3.0,352.614306999385,4.0,1.0,phase_1,,,,,,,,,,,,,magenta,I
0.0,5.0,0.0,1.0,2.0,2.0,415.5432580000706,4.0,1.0,phase_1,,,,,,,,,,,,,magenta,I
68.0,1.0,1.0,0.0,4.0,4.0,549.504476999573,4.0,1.0,phase_1,,,,,,,,,,,,,blue,diamond
66.0,1.0,1.0,0.0,4.0,4.0,366.2306690002879,4.0,1.0,phase_1,,,,,,,,,,,,,blue,diamond
379.0,8.0,4.0,1.0,2.0,2.0,365.1340390006226,4.0,1.0,phase_1,,,,,,,,,,,,,yellow,circle
202.0,7.0,3.0,1.0,4.0,4.0,331.5660620000926,4.0,1.0,phase_1,,,,,,,,,,,,,green,flipped triangle
0.0,7.0,0.0,1.0,4.0,4.0,298.5183579994555,4.0,1.0,phase_1,,,,,,,,,,,,,green,flipped triangle
398.0,8.0,4.0,1.0,2.0,2.0,394.7538249994977,4.0,1.0,phase_1,,,,,,,,,,,,,yellow,circle
403.0,8.0,4.0,1.0,4.0,4.0,353.0500500000926,4.0,1.0,phase_1,,,,,,,,,,,,,yellow,circle
195.0,7.0,3.0,1.0,2.0,2.0,371.7051529993114,4.0,1.0,phase_1,,,,,,,,,,,,,green,flipped triangle
51.0,5.0,1.0,1.0,1.0,1.0,370.1872589999766,4.0,1.0,phase_1,,,,,,,,,,,,,magenta,I
418.0,8.0,4.0,1.0,2.0,2.0,391.7167929994321,4.0,1.0,phase_1,,,,,,,,,,,,,yellow,circle
386.0,4.0,4.0,0.0,2.0,2.0,371.7182860000321,4.0,1.0,phase_1,,,,,,,,,,,,,white,square
189.0,7.0,3.0,1.0,1.0,1.0,378.1375859998661,4.0,1.0,phase_1,,,,,,,,,,,,,green,flipped triangle
386.0,4.0,4.0,0.0,3.0,3.0,334.3896159994983,4.0,1.0,phase_1,,,,,,,,,,,,,white,square
0.0,4.0,0.0,0.0,2.0,2.0,330.9257240007355,4.0,1.0,phase_1,,,,,,,,,,,,,white,square
0.0,5.0,0.0,1.0,4.0,4.0,329.6629770002255,4.0,1.0,phase_1,,,,,,,,,,,,,magenta,I
0.0,2.0,0.0,0.0,2.0,2.0,318.8550309996572,4.0,1.0,phase_1,,,,,,,,,,,,,cyan,cross
408.0,4.0,4.0,0.0,3.0,3.0,339.0144430004511,4.0,1.0,phase_1,,,,,,,,,,,,,white,square
120.0,6.0,2.0,1.0,4.0,4.0,305.7621259995358,4.0,1.0,phase_1,,,,,,,,,,,,,gray,triangle
0.0,2.0,0.0,0.0,1.0,1.0,380.223424000178,4.0,1.0,phase_1,,,,,,,,,,,,,cyan,cross
413.0,4.0,4.0,0.0,1.0,1.0,388.9489789999061,4.0,1.0,phase_1,,,,,,,,,,,,,white,square
0.0,1.0,1.0,0.0,6.0,6.0,401.0930149997875,1.0,1.0,phase_2,go,250.0,250.0,1.0,,,,,,,,,blue,diamond
0.0,1.0,1.0,0.0,6.0,6.0,345.4569980003725,1.0,1.0,phase_2,go,250.0,250.0,1.0,,,,,,,,,blue,diamond
0.0,5.0,1.0,1.0,6.0,6.0,400.2993089998199,1.0,1.0,phase_2,stop,250.0,250.0,3.0,,,,,,,,,magenta,I
0.0,3.0,3.0,0.0,6.0,6.0,416.5831589998561,1.0,1.0,phase_2,go,250.0,200.0,1.0,,,,,,,,,orange,hexagon
0.0,4.0,4.0,0.0,5.0,5.0,560.7735860003231,1.0,1.0,phase_2,go,250.0,200.0,1.0,,,,,,,,,white,square
0.0,7.0,3.0,1.0,5.0,5.0,418.0480290006017,1.0,1.0,phase_2,stop,250.0,200.0,3.0,,,,,,,,,green,flipped triangle
0.0,5.0,1.0,1.0,5.0,0.0,0.0,1.0,1.0,phase_2,stop,200.0,200.0,4.0,,,,,,,,,magenta,I
0.0,4.0,4.0,0.0,5.0,5.0,618.6499550003646,1.0,1.0,phase_2,go,250.0,200.0,1.0,,,,,,,,,white,square
0.0,1.0,1.0,0.0,6.0,6.0,740.7044749998022,1.0,1.0,phase_2,go,250.0,200.0,1.0,,,,,,,,,blue,diamond
0.0,3.0,3.0,0.0,6.0,6.0,804.9687800003085,1.0,1.0,phase_2,go,250.0,200.0,1.0,,,,,,,,,orange,hexagon
0.0,4.0,4.0,0.0,6.0,6.0,667.4799250004071,1.0,1.0,phase_2,go,250.0,200.0,1.0,,,,,,,,,white,square
0.0,3.0,3.0,0.0,5.0,5.0,549.5531169999595,1.0,1.0,phase_2,go,250.0,200.0,1.0,,,,,,,,,orange,hexagon
0.0,4.0,4.0,0.0,6.0,6.0,430.0328039998931,1.0,1.0,phase_2,go,250.0,200.0,1.0,,,,,,,,,white,square
0.0,8.0,4.0,1.0,5.0,0.0,0.0,1.0,1.0,phase_2,stop,250.0,200.0,4.0,,,,,,,,,yellow,circle
0.0,1.0,1.0,0.0,6.0,6.0,606.5488489994095,1.0,1.0,phase_2,go,300.0,200.0,1.0,,,,,,,,,blue,diamond
0.0,2.0,2.0,0.0,6.0,6.0,454.42052800081,1.0,1.0,phase_2,go,300.0,200.0,1.0,,,,,,,,,cyan,cross
0.0,4.0,4.0,0.0,5.0,5.0,639.1271419997793,1.0,1.0,phase_2,go,300.0,200.0,1.0,,,,,,,,,white,square
0.0,7.0,3.0,1.0,5.0,0.0,0.0,1.0,1.0,phase_2,stop,300.0,200.0,4.0,,,,,,,,,green,flipped triangle
0.0,2.0,2.0,0.0,5.0,5.0,635.8210150001469,1.0,1.0,phase_2,go,350.0,200.0,1.0,,,,,,,,,cyan,cross
0.0,7.0,3.0,1.0,5.0,5.0,547.0412899994699,1.0,1.0,phase_2,go,350.0,200.0,1.0,,,,,,,,,green,flipped triangle
0.0,5.0,1.0,1.0,6.0,6.0,564.2071700003726,1.0,1.0,phase_2,go,350.0,200.0,1.0,,,,,,,,,magenta,I
0.0,2.0,2.0,0.0,5.0,5.0,436.1316289996466,1.0,1.0,phase_2,go,350.0,200.0,1.0,,,,,,,,,cyan,cross
0.0,7.0,3.0,1.0,6.0,0.0,0.0,1.0,1.0,phase_2,stop,350.0,200.0,4.0,,,,,,,,,green,flipped triangle
0.0,7.0,3.0,1.0,6.0,0.0,0.0,1.0,1.0,phase_2,stop,350.0,250.0,4.0,,,,,,,,,green,flipped triangle
0.0,3.0,3.0,0.0,6.0,6.0,556.310401000701,1.0,1.0,phase_2,go,350.0,300.0,1.0,,,,,,,,,orange,hexagon
0.0,7.0,3.0,1.0,5.0,5.0,552.1573959995294,1.0,1.0,phase_2,go,350.0,300.0,1.0,,,,,,,,,green,flipped triangle
0.0,8.0,4.0,1.0,5.0,5.0,513.2087100000717,1.0,1.0,phase_2,go,350.0,300.0,1.0,,,,,,,,,yellow,circle
0.0,5.0,1.0,1.0,5.0,5.0,399.0209700004925,1.0,1.0,phase_2,stop,350.0,300.0,3.0,,,,,,,,,magenta,I
0.0,7.0,3.0,1.0,5.0,0.0,0.0,1.0,1.0,phase_2,stop,300.0,300.0,4.0,,,,,,,,,green,flipped triangle
0.0,5.0,1.0,1.0,5.0,0.0,0.0,1.0,1.0,phase_2,stop,350.0,300.0,4.0,,,,,,,,,magenta,I
0.0,2.0,2.0,0.0,6.0,6.0,492.7154560000417,1.0,1.0,phase_2,go,400.0,300.0,1.0,,,,,,,,,cyan,cross
0.0,4.0,4.0,0.0,5.0,5.0,464.9848929993823,1.0,1.0,phase_2,go,400.0,300.0,1.0,,,,,,,,,white,square
0.0,5.0,1.0,1.0,5.0,0.0,0.0,1.0,1.0,phase_2,stop,400.0,300.0,4.0,,,,,,,,,magenta,I
0.0,1.0,1.0,0.0,6.0,6.0,688.4767090004971,1.0,1.0,phase_2,go,450.0,300.0,1.0,,,,,,,,,blue,diamond
0.0,8.0,4.0,1.0,6.0,6.0,538.8353489997826,1.0,1.0,phase_2,go,450.0,300.0,1.0,,,,,,,,,yellow,circle
0.0,8.0,4.0,1.0,5.0,5.0,561.9725330006986,1.0,1.0,phase_2,stop,450.0,300.0,3.0,,,,,,,,,yellow,circle
0.0,7.0,3.0,1.0,6.0,6.0,489.7302059998765,2.0,1.0,phase_2,go,400.0,300.0,1.0,,,,,,,,,green,flipped triangle
0.0,8.0,4.0,1.0,5.0,5.0,437.1288379998077,2.0,1.0,phase_2,stop,400.0,300.0,3.0,,,,,,,,,yellow,circle
0.0,1.0,1.0,0.0,6.0,6.0,541.7175840002528,2.0,1.0,phase_2,go,350.0,300.0,1.0,,,,,,,,,blue,diamond
0.0,6.0,2.0,1.0,5.0,5.0,507.0008590000725,2.0,1.0,phase_2,stop,350.0,300.0,3.0,,,,,,,,,gray,triangle
0.0,5.0,1.0,1.0,5.0,0.0,0.0,2.0,1.0,phase_2,stop,300.0,300.0,4.0,,,,,,,,,magenta,I
0.0,1.0,1.0,0.0,5.0,5.0,600.4453830000784,2.0,1.0,phase_2,go,350.0,300.0,1.0,,,,,,,,,blue,diamond
0.0,7.0,3.0,1.0,6.0,6.0,635.9755330004191,2.0,1.0,phase_2,go,350.0,300.0,1.0,,,,,,,,,green,flipped triangle
0.0,8.0,4.0,1.0,6.0,0.0,0.0,2.0,1.0,phase_2,stop,350.0,300.0,4.0,,,,,,,,,yellow,circle
0.0,1.0,1.0,0.0,6.0,6.0,418.5790470000938,2.0,1.0,phase_2,go,350.0,350.0,1.0,,,,,,,,,blue,diamond
0.0,1.0,1.0,0.0,5.0,5.0,652.0474789995205,2.0,1.0,phase_2,go,350.0,350.0,1.0,,,,,,,,,blue,diamond
0.0,4.0,4.0,0.0,5.0,5.0,708.3914810000351,2.0,1.0,phase_2,go,350.0,350.0,1.0,,,,,,,,,white,square
0.0,7.0,3.0,1.0,6.0,6.0,669.3108520003079,2.0,1.0,phase_2,go,350.0,350.0,1.0,,,,,,,,,green,flipped triangle
0.0,3.0,3.0,0.0,6.0,6.0,679.2899860001853,2.0,1.0,phase_2,go,350.0,350.0,1.0,,,,,,,,,orange,hexagon
0.0,5.0,1.0,1.0,5.0,0.0,0.0,2.0,1.0,phase_2,stop,350.0,350.0,4.0,,,,,,,,,magenta,I
0.0,2.0,2.0,0.0,6.0,6.0,619.0418340001997,2.0,1.0,phase_2,go,400.0,350.0,1.0,,,,,,,,,cyan,cross
0.0,1.0,1.0,0.0,5.0,5.0,574.7062430000369,2.0,1.0,phase_2,go,400.0,350.0,1.0,,,,,,,,,blue,diamond
0.0,6.0,2.0,1.0,6.0,6.0,666.9356499996866,2.0,1.0,phase_2,go,400.0,350.0,1.0,,,,,,,,,gray,triangle
0.0,3.0,3.0,0.0,5.0,5.0,569.8989630000142,2.0,1.0,phase_2,go,400.0,350.0,1.0,,,,,,,,,orange,hexagon
0.0,7.0,3.0,1.0,5.0,0.0,0.0,2.0,1.0,phase_2,stop,400.0,350.0,4.0,,,,,,,,,green,flipped triangle
0.0,3.0,3.0,0.0,6.0,6.0,477.0984599999792,2.0,1.0,phase_2,go,450.0,350.0,1.0,,,,,,,,,orange,hexagon
0.0,7.0,3.0,1.0,6.0,0.0,0.0,2.0,1.0,phase_2,stop,450.0,350.0,4.0,,,,,,,,,green,flipped triangle
0.0,1.0,1.0,0.0,6.0,6.0,703.1470430001718,2.0,1.0,phase_2,go,450.0,400.0,1.0,,,,,,,,,blue,diamond
0.0,6.0,2.0,1.0,5.0,0.0,0.0,2.0,1.0,phase_2,stop,450.0,400.0,4.0,,,,,,,,,gray,triangle
0.0,4.0,4.0,0.0,5.0,5.0,676.3840799994796,2.0,1.0,phase_2,go,500.0,400.0,1.0,,,,,,,,,white,square
0.0,4.0,4.0,0.0,5.0,5.0,788.8242079998236,2.0,1.0,phase_2,go,500.0,400.0,1.0,,,,,,,,,white,square
0.0,6.0,2.0,1.0,6.0,0.0,0.0,2.0,1.0,phase_2,stop,500.0,400.0,4.0,,,,,,,,,gray,triangle
0.0,4.0,4.0,0.0,6.0,6.0,698.310312999638,2.0,1.0,phase_2,go,500.0,450.0,1.0,,,,,,,,,white,square
0.0,7.0,3.0,1.0,5.0,5.0,486.7616890005593,2.0,1.0,phase_2,stop,500.0,450.0,3.0,,,,,,,,,green,flipped triangle
0.0,8.0,4.0,1.0,5.0,0.0,0.0,2.0,1.0,phase_2,stop,450.0,450.0,4.0,,,,,,,,,yellow,circle
0.0,8.0,4.0,1.0,5.0,0.0,0.0,2.0,1.0,phase_2,stop,500.0,450.0,4.0,,,,,,,,,yellow,circle
0.0,1.0,1.0,0.0,6.0,6.0,566.7610950004018,2.0,1.0,phase_2,go,550.0,450.0,1.0,,,,,,,,,blue,diamond
0.0,3.0,3.0,0.0,5.0,5.0,728.5810769999443,2.0,1.0,phase_2,go,550.0,450.0,1.0,,,,,,,,,orange,hexagon
0.0,6.0,2.0,1.0,6.0,0.0,0.0,2.0,1.0,phase_2,stop,550.0,450.0,4.0,,,,,,,,,gray,triangle
0.0,5.0,1.0,1.0,5.0,5.0,879.6407290001298,2.0,1.0,phase_2,go,550.0,500.0,1.0,,,,,,,,,magenta,I
0.0,2.0,2.0,0.0,6.0,6.0,693.11387200014,2.0,1.0,phase_2,go,550.0,500.0,1.0,,,,,,,,,cyan,cross
0.0,4.0,4.0,0.0,6.0,6.0,924.1904870004872,2.0,1.0,phase_2,go,550.0,500.0,1.0,,,,,,,,,white,square
0.0,6.0,2.0,1.0,5.0,5.0,487.1311340002648,3.0,1.0,phase_2,go,550.0,500.0,1.0,,,,,,,,,gray,triangle
0.0,1.0,1.0,0.0,5.0,5.0,433.0116989995076,3.0,1.0,phase_2,go,550.0,500.0,1.0,,,,,,,,,blue,diamond
0.0,2.0,2.0,0.0,5.0,5.0,655.0701020005363,3.0,1.0,phase_2,go,550.0,500.0,1.0,,,,,,,,,cyan,cross
0.0,4.0,4.0,0.0,5.0,5.0,609.8808250008005,3.0,1.0,phase_2,go,550.0,500.0,1.0,,,,,,,,,white,square
0.0,2.0,2.0,0.0,6.0,6.0,710.7791429998542,3.0,1.0,phase_2,go,550.0,500.0,1.0,,,,,,,,,cyan,cross
0.0,3.0,3.0,0.0,6.0,6.0,616.543575999458,3.0,1.0,phase_2,go,550.0,500.0,1.0,,,,,,,,,orange,hexagon
0.0,6.0,2.0,1.0,6.0,6.0,680.4520420000699,3.0,1.0,phase_2,stop,550.0,500.0,3.0,,,,,,,,,gray,triangle
0.0,4.0,4.0,0.0,6.0,6.0,578.788693000206,3.0,1.0,phase_2,go,550.0,450.0,1.0,,,,,,,,,white,square
0.0,5.0,1.0,1.0,6.0,6.0,365.94090699964,3.0,1.0,phase_2,stop,550.0,450.0,3.0,,,,,,,,,magenta,I
0.0,8.0,4.0,1.0,6.0,6.0,442.4211499999728,3.0,1.0,phase_2,stop,550.0,400.0,3.0,,,,,,,,,yellow,circle
0.0,7.0,3.0,1.0,6.0,6.0,687.5937929999054,3.0,1.0,phase_2,go,550.0,350.0,1.0,,,,,,,,,green,flipped triangle
0.0,1.0,1.0,0.0,5.0,5.0,620.668472000034,3.0,1.0,phase_2,go,550.0,350.0,1.0,,,,,,,,,blue,diamond
0.0,2.0,2.0,0.0,6.0,6.0,619.633586999953,3.0,1.0,phase_2,go,550.0,350.0,1.0,,,,,,,,,cyan,cross
0.0,4.0,4.0,0.0,6.0,6.0,562.5200250005946,3.0,1.0,phase_2,go,550.0,350.0,1.0,,,,,,,,,white,square
0.0,5.0,1.0,1.0,6.0,0.0,0.0,3.0,1.0,phase_2,stop,550.0,350.0,4.0,,,,,,,,,magenta,I
0.0,5.0,1.0,1.0,5.0,5.0,617.0982920002643,3.0,1.0,phase_2,stop,550.0,400.0,3.0,,,,,,,,,magenta,I
0.0,6.0,2.0,1.0,5.0,5.0,481.3061719996767,3.0,1.0,phase_2,go,500.0,400.0,1.0,,,,,,,,,gray,triangle
0.0,4.0,4.0,0.0,5.0,5.0,699.4972389993563,3.0,1.0,phase_2,go,500.0,400.0,1.0,,,,,,,,,white,square
0.0,4.0,4.0,0.0,6.0,6.0,581.2988919997224,3.0,1.0,phase_2,go,500.0,400.0,1.0,,,,,,,,,white,square
0.0,1.0,1.0,0.0,5.0,5.0,755.6062740004563,3.0,1.0,phase_2,go,500.0,400.0,1.0,,,,,,,,,blue,diamond
0.0,8.0,4.0,1.0,6.0,0.0,0.0,3.0,1.0,phase_2,stop,500.0,400.0,4.0,,,,,,,,,yellow,circle
0.0,8.0,4.0,1.0,6.0,6.0,650.3683410001031,3.0,1.0,phase_2,stop,500.0,450.0,3.0,,,,,,,,,yellow,circle
0.0,8.0,4.0,1.0,5.0,5.0,532.4914399998306,3.0,1.0,phase_2,stop,500.0,400.0,3.0,,,,,,,,,yellow,circle
0.0,3.0,3.0,0.0,5.0,5.0,714.174001000174,3.0,1.0,phase_2,go,450.0,400.0,1.0,,,,,,,,,orange,hexagon
0.0,8.0,4.0,1.0,5.0,5.0,568.2025129999602,3.0,1.0,phase_2,stop,450.0,400.0,3.0,,,,,,,,,yellow,circle
0.0,7.0,3.0,1.0,5.0,5.0,776.9249160000982,3.0,1.0,phase_2,go,400.0,400.0,1.0,,,,,,,,,green,flipped triangle
0.0,6.0,2.0,1.0,6.0,0.0,0.0,3.0,1.0,phase_2,stop,400.0,400.0,4.0,,,,,,,,,gray,triangle
0.0,6.0,2.0,1.0,5.0,5.0,669.5424250001452,3.0,1.0,phase_2,go,400.0,450.0,1.0,,,,,,,,,gray,triangle
0.0,1.0,1.0,0.0,6.0,6.0,786.091087999921,3.0,1.0,phase_2,go,400.0,450.0,1.0,,,,,,,,,blue,diamond
0.0,1.0,1.0,0.0,5.0,5.0,812.5819529996079,3.0,1.0,phase_2,go,400.0,450.0,1.0,,,,,,,,,blue,diamond
0.0,7.0,3.0,1.0,5.0,0.0,0.0,3.0,1.0,phase_2,stop,400.0,450.0,4.0,,,,,,,,,green,flipped triangle
0.0,2.0,2.0,0.0,5.0,5.0,764.0909609999653,3.0,1.0,phase_2,go,450.0,450.0,1.0,,,,,,,,,cyan,cross
0.0,6.0,2.0,1.0,6.0,0.0,0.0,3.0,1.0,phase_2,stop,450.0,450.0,4.0,,,,,,,,,gray,triangle
0.0,7.0,3.0,1.0,6.0,6.0,664.2776030003006,3.0,1.0,phase_2,stop,450.0,500.0,3.0,,,,,,,,,green,flipped triangle
0.0,2.0,2.0,0.0,6.0,6.0,735.32170100043,3.0,1.0,phase_2,go,450.0,450.0,1.0,,,,,,,,,cyan,cross
0.0,5.0,1.0,1.0,6.0,0.0,0.0,3.0,1.0,phase_2,stop,450.0,450.0,4.0,,,,,,,,,magenta,I
0.0,7.0,3.0,1.0,5.0,5.0,380.849214000591,4.0,1.0,phase_2,stop,450.0,500.0,3.0,,,,,,,,,green,flipped triangle
0.0,6.0,2.0,1.0,6.0,6.0,255.0282290003451,4.0,1.0,phase_2,stop,400.0,500.0,3.0,,,,,,,,,gray,triangle
0.0,2.0,2.0,0.0,5.0,5.0,293.335260999811,4.0,1.0,phase_2,go,400.0,450.0,1.0,,,,,,,,,cyan,cross
0.0,2.0,2.0,0.0,5.0,5.0,522.0913109997127,4.0,1.0,phase_2,go,400.0,450.0,1.0,,,,,,,,,cyan,cross
0.0,4.0,4.0,0.0,5.0,5.0,358.4166629998435,4.0,1.0,phase_2,go,400.0,450.0,1.0,,,,,,,,,white,square
0.0,7.0,3.0,1.0,6.0,6.0,324.9527369998759,4.0,1.0,phase_2,stop,400.0,450.0,3.0,,,,,,,,,green,flipped triangle
0.0,3.0,3.0,0.0,5.0,5.0,315.0396199998795,4.0,1.0,phase_2,go,400.0,400.0,1.0,,,,,,,,,orange,hexagon
0.0,2.0,2.0,0.0,5.0,5.0,343.7330930000826,4.0,1.0,phase_2,go,400.0,400.0,1.0,,,,,,,,,cyan,cross
0.0,2.0,2.0,0.0,5.0,5.0,397.8786070001661,4.0,1.0,phase_2,go,400.0,400.0,1.0,,,,,,,,,cyan,cross
0.0,7.0,3.0,1.0,6.0,6.0,324.6643410002434,4.0,1.0,phase_2,stop,400.0,400.0,3.0,,,,,,,,,green,flipped triangle
0.0,3.0,3.0,0.0,6.0,6.0,350.4928230004225,4.0,1.0,phase_2,go,400.0,350.0,1.0,,,,,,,,,orange,hexagon
0.0,1.0,1.0,0.0,6.0,6.0,468.6145289997512,4.0,1.0,phase_2,go,400.0,350.0,1.0,,,,,,,,,blue,diamond
0.0,5.0,1.0,1.0,5.0,5.0,572.5722729994231,4.0,1.0,phase_2,stop,400.0,350.0,3.0,,,,,,,,,magenta,I
0.0,3.0,3.0,0.0,6.0,6.0,629.5747429994663,4.0,1.0,phase_2,go,350.0,350.0,1.0,,,,,,,,,orange,hexagon
0.0,2.0,2.0,0.0,5.0,5.0,411.0494589995142,4.0,1.0,phase_2,go,350.0,350.0,1.0,,,,,,,,,cyan,cross
0.0,1.0,1.0,0.0,5.0,5.0,460.4529120006191,4.0,1.0,phase_2,go,350.0,350.0,1.0,,,,,,,,,blue,diamond
0.0,4.0,4.0,0.0,5.0,5.0,436.3457890003701,4.0,1.0,phase_2,go,350.0,350.0,1.0,,,,,,,,,white,square
0.0,4.0,4.0,0.0,6.0,6.0,271.2917629996809,4.0,1.0,phase_2,go,350.0,350.0,1.0,,,,,,,,,white,square
0.0,6.0,2.0,1.0,6.0,6.0,341.3812680000774,4.0,1.0,phase_2,stop,350.0,350.0,3.0,,,,,,,,,gray,triangle
0.0,5.0,1.0,1.0,6.0,6.0,476.683282000522,4.0,1.0,phase_2,go,350.0,300.0,1.0,,,,,,,,,magenta,I
0.0,1.0,1.0,0.0,6.0,6.0,343.4277760006807,4.0,1.0,phase_2,go,350.0,300.0,1.0,,,,,,,,,blue,diamond
0.0,3.0,3.0,0.0,6.0,6.0,365.0102640003752,4.0,1.0,phase_2,go,350.0,300.0,1.0,,,,,,,,,orange,hexagon
0.0,4.0,4.0,0.0,6.0,6.0,636.2960209999073,4.0,1.0,phase_2,go,350.0,300.0,1.0,,,,,,,,,white,square
0.0,6.0,2.0,1.0,5.0,5.0,430.650911000157,4.0,1.0,phase_2,stop,350.0,300.0,3.0,,,,,,,,,gray,triangle
0.0,2.0,2.0,0.0,6.0,6.0,448.0162709996875,4.0,1.0,phase_2,go,300.0,300.0,1.0,,,,,,,,,cyan,cross
0.0,2.0,2.0,0.0,5.0,5.0,311.3058389999423,4.0,1.0,phase_2,go,300.0,300.0,1.0,,,,,,,,,cyan,cross
0.0,7.0,3.0,1.0,6.0,6.0,400.9555530001307,4.0,1.0,phase_2,stop,300.0,300.0,3.0,,,,,,,,,green,flipped triangle
0.0,1.0,1.0,0.0,6.0,6.0,326.6740620001656,4.0,1.0,phase_2,go,300.0,250.0,1.0,,,,,,,,,blue,diamond
0.0,5.0,1.0,1.0,6.0,6.0,317.0410570000967,4.0,1.0,phase_2,go,300.0,250.0,1.0,,,,,,,,,magenta,I
0.0,5.0,1.0,1.0,6.0,6.0,465.0461640003414,4.0,1.0,phase_2,stop,300.0,250.0,3.0,,,,,,,,,magenta,I
0.0,5.0,1.0,1.0,6.0,0.0,0.0,4.0,1.0,phase_2,stop,300.0,200.0,4.0,,,,,,,,,magenta,I
0.0,4.0,4.0,0.0,5.0,5.0,429.9829920000775,4.0,1.0,phase_2,go,300.0,250.0,1.0,,,,,,,,,white,square
0.0,7.0,3.0,1.0,5.0,0.0,0.0,4.0,1.0,phase_2,stop,300.0,250.0,4.0,,,,,,,,,green,flipped triangle
0.0,6.0,2.0,1.0,5.0,0.0,0.0,4.0,1.0,phase_2,stop,350.0,250.0,4.0,,,,,,,,,gray,triangle
0.0,2.0,2.0,0.0,5.0,5.0,496.0350070005006,4.0,1.0,phase_2,go,400.0,250.0,1.0,,,,,,,,,cyan,cross
0.0,5.0,1.0,1.0,6.0,0.0,0.0,4.0,1.0,phase_2,stop,400.0,250.0,4.0,,,,,,,,,magenta,I
0.0,5.0,1.0,1.0,6.0,6.0,426.6940170000453,5.0,1.0,phase_2,go,400.0,300.0,1.0,,,,,,,,,magenta,I
0.0,8.0,4.0,1.0,6.0,6.0,340.307706999738,5.0,1.0,phase_2,go,400.0,300.0,1.0,,,,,,,,,yellow,circle
0.0,6.0,2.0,1.0,5.0,5.0,440.999367000586,5.0,1.0,phase_2,stop,400.0,300.0,3.0,,,,,,,,,gray,triangle
0.0,7.0,3.0,1.0,6.0,6.0,288.8822589993651,5.0,1.0,phase_2,stop,350.0,300.0,3.0,,,,,,,,,green,flipped triangle
0.0,6.0,2.0,1.0,5.0,5.0,293.5233489997699,5.0,1.0,phase_2,go,350.0,250.0,1.0,,,,,,,,,gray,triangle
0.0,4.0,4.0,0.0,6.0,6.0,333.27347500016907,5.0,1.0,phase_2,go,350.0,250.0,1.0,,,,,,,,,white,square
0.0,2.0,2.0,0.0,6.0,6.0,414.0014519998658,5.0,1.0,phase_2,go,350.0,250.0,1.0,,,,,,,,,cyan,cross
0.0,7.0,3.0,1.0,6.0,6.0,350.5565670002397,5.0,1.0,phase_2,go,350.0,250.0,1.0,,,,,,,,,green,flipped triangle
0.0,3.0,3.0,0.0,6.0,6.0,487.6221730000907,5.0,1.0,phase_2,go,350.0,250.0,1.0,,,,,,,,,orange,hexagon
0.0,1.0,1.0,0.0,5.0,5.0,507.292048000636,5.0,1.0,phase_2,go,350.0,250.0,1.0,,,,,,,,,blue,diamond
0.0,3.0,3.0,0.0,5.0,5.0,594.3240200003856,5.0,1.0,phase_2,go,350.0,250.0,1.0,,,,,,,,,orange,hexagon
0.0,3.0,3.0,0.0,5.0,5.0,389.9113170000419,5.0,1.0,phase_2,go,350.0,250.0,1.0,,,,,,,,,orange,hexagon
0.0,5.0,1.0,1.0,6.0,0.0,0.0,5.0,1.0,phase_2,stop,350.0,250.0,4.0,,,,,,,,,magenta,I
0.0,2.0,2.0,0.0,5.0,5.0,477.9917369996838,5.0,1.0,phase_2,go,350.0,300.0,1.0,,,,,,,,,cyan,cross
0.0,8.0,4.0,1.0,6.0,6.0,350.1280800001041,5.0,1.0,phase_2,go,350.0,300.0,1.0,,,,,,,,,yellow,circle
0.0,2.0,2.0,0.0,5.0,5.0,404.2300390001401,5.0,1.0,phase_2,go,350.0,300.0,1.0,,,,,,,,,cyan,cross
0.0,4.0,4.0,0.0,5.0,5.0,363.2576390000395,5.0,1.0,phase_2,go,350.0,300.0,1.0,,,,,,,,,white,square
0.0,8.0,4.0,1.0,5.0,5.0,283.1942319999143,5.0,1.0,phase_2,go,350.0,300.0,1.0,,,,,,,,,yellow,circle
0.0,8.0,4.0,1.0,5.0,5.0,446.0017699993841,5.0,1.0,phase_2,go,350.0,300.0,1.0,,,,,,,,,yellow,circle
0.0,8.0,4.0,1.0,5.0,0.0,0.0,5.0,1.0,phase_2,stop,350.0,300.0,4.0,,,,,,,,,yellow,circle
0.0,6.0,2.0,1.0,6.0,6.0,450.5595749997155,5.0,1.0,phase_2,go,400.0,300.0,1.0,,,,,,,,,gray,triangle
0.0,5.0,1.0,1.0,5.0,5.0,399.8414819998288,5.0,1.0,phase_2,stop,400.0,300.0,3.0,,,,,,,,,magenta,I
0.0,3.0,3.0,0.0,5.0,5.0,451.9483640006001,5.0,1.0,phase_2,go,350.0,300.0,1.0,,,,,,,,,orange,hexagon
0.0,4.0,4.0,0.0,5.0,5.0,297.1582490008586,5.0,1.0,phase_2,go,350.0,300.0,1.0,,,,,,,,,white,square
0.0,2.0,2.0,0.0,5.0,5.0,315.3451000007408,5.0,1.0,phase_2,go,350.0,300.0,1.0,,,,,,,,,cyan,cross
0.0,6.0,2.0,1.0,6.0,6.0,453.3178660003614,5.0,1.0,phase_2,stop,350.0,300.0,3.0,,,,,,,,,gray,triangle
0.0,2.0,2.0,0.0,6.0,6.0,533.0443880002349,5.0,1.0,phase_2,go,350.0,250.0,1.0,,,,,,,,,cyan,cross
0.0,6.0,2.0,1.0,5.0,0.0,0.0,5.0,1.0,phase_2,stop,350.0,250.0,4.0,,,,,,,,,gray,triangle
0.0,5.0,1.0,1.0,5.0,5.0,503.2470469996042,5.0,1.0,phase_2,stop,400.0,250.0,3.0,,,,,,,,,magenta,I
0.0,1.0,1.0,0.0,5.0,5.0,408.3513850000599,5.0,1.0,phase_2,go,350.0,250.0,1.0,,,,,,,,,blue,diamond
0.0,8.0,4.0,1.0,6.0,0.0,0.0,5.0,1.0,phase_2,stop,350.0,250.0,4.0,,,,,,,,,yellow,circle
0.0,3.0,3.0,0.0,5.0,5.0,433.8978800005861,5.0,1.0,phase_2,go,350.0,300.0,1.0,,,,,,,,,orange,hexagon
0.0,8.0,4.0,1.0,5.0,5.0,340.2165039997271,5.0,1.0,phase_2,stop,350.0,300.0,3.0,,,,,,,,,yellow,circle
0.0,8.0,4.0,1.0,5.0,0.0,0.0,5.0,1.0,phase_2,stop,300.0,300.0,4.0,,,,,,,,,yellow,circle
0.0,7.0,3.0,1.0,5.0,5.0,403.733994000504,5.0,1.0,phase_2,stop,350.0,300.0,3.0,,,,,,,,,green,flipped triangle
0.0,2.0,2.0,0.0,6.0,6.0,438.4581340000295,5.0,1.0,phase_2,go,300.0,300.0,1.0,,,,,,,,,cyan,cross
0.0,2.0,2.0,0.0,6.0,6.0,320.6732029993873,6.0,1.0,phase_2,go,300.0,300.0,1.0,,,,,,,,,cyan,cross
0.0,4.0,4.0,0.0,6.0,6.0,349.3784989996129,6.0,1.0,phase_2,go,300.0,300.0,1.0,,,,,,,,,white,square
0.0,6.0,2.0,1.0,5.0,5.0,333.9284350004163,6.0,1.0,phase_2,stop,300.0,300.0,3.0,,,,,,,,,gray,triangle
0.0,1.0,1.0,0.0,6.0,6.0,274.732417999985,6.0,1.0,phase_2,go,250.0,300.0,1.0,,,,,,,,,blue,diamond
0.0,3.0,3.0,0.0,5.0,5.0,437.1088540001437,6.0,1.0,phase_2,go,250.0,300.0,1.0,,,,,,,,,orange,hexagon
0.0,8.0,4.0,1.0,5.0,5.0,362.4990329999491,6.0,1.0,phase_2,go,250.0,300.0,1.0,,,,,,,,,yellow,circle
0.0,6.0,2.0,1.0,6.0,6.0,295.8338220005316,6.0,1.0,phase_2,go,250.0,300.0,1.0,,,,,,,,,gray,triangle
0.0,6.0,2.0,1.0,6.0,6.0,394.3748709998544,6.0,1.0,phase_2,stop,250.0,300.0,3.0,,,,,,,,,gray,triangle
0.0,3.0,3.0,0.0,6.0,6.0,528.7734880002972,6.0,1.0,phase_2,go,250.0,250.0,1.0,,,,,,,,,orange,hexagon
0.0,3.0,3.0,0.0,5.0,5.0,561.9023680001192,6.0,1.0,phase_2,go,250.0,250.0,1.0,,,,,,,,,orange,hexagon
0.0,4.0,4.0,0.0,6.0,6.0,510.03253599992604,6.0,1.0,phase_2,go,250.0,250.0,1.0,,,,,,,,,white,square
0.0,8.0,4.0,1.0,6.0,0.0,0.0,6.0,1.0,phase_2,stop,250.0,250.0,4.0,,,,,,,,,yellow,circle
0.0,4.0,4.0,0.0,5.0,5.0,463.1977799999731,6.0,1.0,phase_2,go,250.0,300.0,1.0,,,,,,,,,white,square
0.0,5.0,1.0,1.0,5.0,5.0,349.4413900007203,6.0,1.0,phase_2,stop,250.0,300.0,3.0,,,,,,,,,magenta,I
0.0,1.0,1.0,0.0,6.0,6.0,310.0436490003631,6.0,1.0,phase_2,go,200.0,300.0,1.0,,,,,,,,,blue,diamond
0.0,7.0,3.0,1.0,5.0,5.0,376.9357119999768,6.0,1.0,phase_2,stop,200.0,300.0,3.0,,,,,,,,,green,flipped triangle
0.0,3.0,3.0,0.0,5.0,5.0,312.8876250002577,6.0,1.0,phase_2,go,150.0,300.0,1.0,,,,,,,,,orange,hexagon
0.0,2.0,2.0,0.0,6.0,6.0,255.44417899982358,6.0,1.0,phase_2,go,150.0,300.0,1.0,,,,,,,,,cyan,cross
0.0,6.0,2.0,1.0,5.0,0.0,0.0,6.0,1.0,phase_2,stop,150.0,300.0,4.0,,,,,,,,,gray,triangle
0.0,8.0,4.0,1.0,6.0,6.0,332.0723229999203,6.0,1.0,phase_2,stop,200.0,300.0,3.0,,,,,,,,,yellow,circle
0.0,3.0,3.0,0.0,5.0,5.0,271.548267000071,6.0,1.0,phase_2,go,200.0,250.0,1.0,,,,,,,,,orange,hexagon
0.0,6.0,2.0,1.0,5.0,5.0,353.6365350000778,6.0,1.0,phase_2,stop,200.0,250.0,3.0,,,,,,,,,gray,triangle
0.0,7.0,3.0,1.0,5.0,5.0,345.7492540001112,6.0,1.0,phase_2,stop,150.0,250.0,3.0,,,,,,,,,green,flipped triangle
0.0,1.0,1.0,0.0,6.0,6.0,262.1497250001994,6.0,1.0,phase_2,go,100.0,250.0,1.0,,,,,,,,,blue,diamond
0.0,4.0,4.0,0.0,5.0,5.0,322.1172339999611,6.0,1.0,phase_2,go,100.0,250.0,1.0,,,,,,,,,white,square
0.0,4.0,4.0,0.0,6.0,6.0,410.576076000325,6.0,1.0,phase_2,go,100.0,250.0,1.0,,,,,,,,,white,square
0.0,8.0,4.0,1.0,6.0,6.0,331.0378549995221,6.0,1.0,phase_2,go,100.0,250.0,1.0,,,,,,,,,yellow,circle
0.0,3.0,3.0,0.0,6.0,6.0,483.7189809995834,6.0,1.0,phase_2,go,100.0,250.0,1.0,,,,,,,,,orange,hexagon
0.0,7.0,3.0,1.0,5.0,0.0,0.0,6.0,1.0,phase_2,stop,100.0,250.0,4.0,,,,,,,,,green,flipped triangle
0.0,7.0,3.0,1.0,6.0,6.0,463.10402600011,6.0,1.0,phase_2,stop,150.0,250.0,3.0,,,,,,,,,green,flipped triangle
0.0,1.0,1.0,0.0,5.0,5.0,418.3769339997525,6.0,1.0,phase_2,go,150.0,200.0,1.0,,,,,,,,,blue,diamond
0.0,6.0,2.0,1.0,6.0,6.0,303.3559309997145,6.0,1.0,phase_2,stop,150.0,200.0,3.0,,,,,,,,,gray,triangle
0.0,5.0,1.0,1.0,6.0,6.0,291.00284299966,6.0,1.0,phase_2,stop,150.0,150.0,3.0,,,,,,,,,magenta,I
0.0,8.0,4.0,1.0,6.0,6.0,395.6624370002828,6.0,1.0,phase_2,stop,150.0,100.0,3.0,,,,,,,,,yellow,circle
0.0,6.0,2.0,1.0,5.0,5.0,314.6316520005712,6.0,1.0,phase_2,go,150.0,50.0,1.0,,,,,,,,,gray,triangle
0.0,8.0,4.0,1.0,6.0,0.0,0.0,6.0,1.0,phase_2,stop,150.0,50.0,4.0,,,,,,,,,yellow,circle
0.0,7.0,3.0,1.0,6.0,6.0,345.5743509994136,7.0,1.0,phase_2,stop,150.0,100.0,3.0,,,,,,,,,green,flipped triangle
0.0,2.0,2.0,0.0,6.0,6.0,469.2214979995697,7.0,1.0,phase_2,go,150.0,50.0,1.0,,,,,,,,,cyan,cross
0.0,6.0,2.0,1.0,6.0,0.0,0.0,7.0,1.0,phase_2,stop,150.0,50.0,4.0,,,,,,,,,gray,triangle
0.0,6.0,2.0,1.0,6.0,0.0,0.0,7.0,1.0,phase_2,stop,150.0,100.0,4.0,,,,,,,,,gray,triangle
0.0,2.0,2.0,0.0,6.0,6.0,289.7046319994842,7.0,1.0,phase_2,go,150.0,150.0,1.0,,,,,,,,,cyan,cross
0.0,7.0,3.0,1.0,5.0,5.0,507.6122549999127,7.0,1.0,phase_2,go,150.0,150.0,1.0,,,,,,,,,green,flipped triangle
0.0,3.0,3.0,0.0,5.0,5.0,467.80347099957,7.0,1.0,phase_2,go,150.0,150.0,1.0,,,,,,,,,orange,hexagon
0.0,6.0,2.0,1.0,6.0,0.0,0.0,7.0,1.0,phase_2,stop,150.0,150.0,4.0,,,,,,,,,gray,triangle
0.0,1.0,1.0,0.0,5.0,5.0,596.1799810002049,7.0,1.0,phase_2,go,150.0,200.0,1.0,,,,,,,,,blue,diamond
0.0,6.0,2.0,1.0,5.0,0.0,0.0,7.0,1.0,phase_2,stop,150.0,200.0,4.0,,,,,,,,,gray,triangle
0.0,3.0,3.0,0.0,6.0,6.0,569.5957090001684,7.0,1.0,phase_2,go,200.0,200.0,1.0,,,,,,,,,orange,hexagon
0.0,2.0,2.0,0.0,5.0,5.0,423.9827940000396,7.0,1.0,phase_2,go,200.0,200.0,1.0,,,,,,,,,cyan,cross
0.0,3.0,3.0,0.0,5.0,5.0,402.4689739999303,7.0,1.0,phase_2,go,200.0,200.0,1.0,,,,,,,,,orange,hexagon
0.0,5.0,1.0,1.0,6.0,6.0,525.9488589999819,7.0,1.0,phase_2,go,200.0,200.0,1.0,,,,,,,,,magenta,I
0.0,7.0,3.0,1.0,6.0,0.0,0.0,7.0,1.0,phase_2,stop,200.0,200.0,4.0,,,,,,,,,green,flipped triangle
0.0,5.0,1.0,1.0,5.0,5.0,487.1848090006097,7.0,1.0,phase_2,go,200.0,250.0,1.0,,,,,,,,,magenta,I
0.0,2.0,2.0,0.0,6.0,6.0,540.6877300001725,7.0,1.0,phase_2,go,200.0,250.0,1.0,,,,,,,,,cyan,cross
0.0,4.0,4.0,0.0,6.0,6.0,567.6907650004068,7.0,1.0,phase_2,go,200.0,250.0,1.0,,,,,,,,,white,square
0.0,2.0,2.0,0.0,6.0,6.0,507.4672370001281,7.0,1.0,phase_2,go,200.0,250.0,1.0,,,,,,,,,cyan,cross
0.0,6.0,2.0,1.0,5.0,0.0,0.0,7.0,1.0,phase_2,stop,200.0,250.0,4.0,,,,,,,,,gray,triangle
0.0,1.0,1.0,0.0,5.0,5.0,585.8628440000757,7.0,1.0,phase_2,go,250.0,250.0,1.0,,,,,,,,,blue,diamond
0.0,5.0,1.0,1.0,5.0,0.0,0.0,7.0,1.0,phase_2,stop,250.0,250.0,4.0,,,,,,,,,magenta,I
0.0,5.0,1.0,1.0,6.0,0.0,0.0,7.0,1.0,phase_2,stop,300.0,250.0,4.0,,,,,,,,,magenta,I
0.0,4.0,4.0,0.0,6.0,6.0,637.216160999742,7.0,1.0,phase_2,go,300.0,300.0,1.0,,,,,,,,,white,square
0.0,1.0,1.0,0.0,5.0,5.0,636.574873000427,7.0,1.0,phase_2,go,300.0,300.0,1.0,,,,,,,,,blue,diamond
0.0,5.0,1.0,1.0,5.0,5.0,506.9632360000469,7.0,1.0,phase_2,go,300.0,300.0,1.0,,,,,,,,,magenta,I
0.0,7.0,3.0,1.0,6.0,6.0,464.9825719998262,7.0,1.0,phase_2,stop,300.0,300.0,3.0,,,,,,,,,green,flipped triangle
0.0,8.0,4.0,1.0,6.0,0.0,0.0,7.0,1.0,phase_2,stop,300.0,250.0,4.0,,,,,,,,,yellow,circle
0.0,8.0,4.0,1.0,5.0,0.0,0.0,7.0,1.0,phase_2,stop,300.0,300.0,4.0,,,,,,,,,yellow,circle
0.0,2.0,2.0,0.0,5.0,5.0,680.1905239999542,7.0,1.0,phase_2,go,350.0,300.0,1.0,,,,,,,,,cyan,cross
0.0,8.0,4.0,1.0,6.0,0.0,0.0,7.0,1.0,phase_2,stop,350.0,300.0,4.0,,,,,,,,,yellow,circle
0.0,5.0,1.0,1.0,6.0,0.0,0.0,7.0,1.0,phase_2,stop,350.0,350.0,4.0,,,,,,,,,magenta,I
0.0,7.0,3.0,1.0,5.0,0.0,0.0,7.0,1.0,phase_2,stop,350.0,400.0,4.0,,,,,,,,,green,flipped triangle
0.0,3.0,3.0,0.0,6.0,6.0,666.545163999217,7.0,1.0,phase_2,go,400.0,400.0,1.0,,,,,,,,,orange,hexagon
0.0,6.0,2.0,1.0,5.0,5.0,409.463572000277,7.0,1.0,phase_2,go,400.0,400.0,1.0,,,,,,,,,gray,triangle
0.0,3.0,3.0,0.0,6.0,6.0,427.0152010003585,7.0,1.0,phase_2,go,400.0,400.0,1.0,,,,,,,,,orange,hexagon
0.0,6.0,2.0,1.0,6.0,6.0,608.1155230003787,8.0,1.0,phase_2,stop,400.0,400.0,3.0,,,,,,,,,gray,triangle
0.0,5.0,1.0,1.0,6.0,6.0,419.796414999837,8.0,1.0,phase_2,stop,400.0,350.0,3.0,,,,,,,,,magenta,I
0.0,2.0,2.0,0.0,6.0,6.0,576.481000000058,8.0,1.0,phase_2,go,400.0,300.0,1.0,,,,,,,,,cyan,cross
0.0,1.0,1.0,0.0,5.0,5.0,450.482264999664,8.0,1.0,phase_2,go,400.0,300.0,1.0,,,,,,,,,blue,diamond
0.0,3.0,3.0,0.0,6.0,6.0,476.827757999672,8.0,1.0,phase_2,go,400.0,300.0,1.0,,,,,,,,,orange,hexagon
0.0,2.0,2.0,0.0,5.0,5.0,481.9517229998382,8.0,1.0,phase_2,go,400.0,300.0,1.0,,,,,,,,,cyan,cross
0.0,5.0,1.0,1.0,5.0,5.0,496.1643240003468,8.0,1.0,phase_2,go,400.0,300.0,1.0,,,,,,,,,magenta,I
0.0,2.0,2.0,0.0,5.0,5.0,484.2590789994574,8.0,1.0,phase_2,go,400.0,300.0,1.0,,,,,,,,,cyan,cross
0.0,3.0,3.0,0.0,5.0,5.0,534.6998290006013,8.0,1.0,phase_2,go,400.0,300.0,1.0,,,,,,,,,orange,hexagon
0.0,3.0,3.0,0.0,5.0,5.0,465.0028330006535,8.0,1.0,phase_2,go,400.0,300.0,1.0,,,,,,,,,orange,hexagon
0.0,1.0,1.0,0.0,5.0,5.0,444.2040439998891,8.0,1.0,phase_2,go,400.0,300.0,1.0,,,,,,,,,blue,diamond
0.0,6.0,2.0,1.0,6.0,6.0,504.12346299981436,8.0,1.0,phase_2,stop,400.0,300.0,3.0,,,,,,,,,gray,triangle
0.0,1.0,1.0,0.0,6.0,6.0,593.7177209998481,8.0,1.0,phase_2,go,400.0,250.0,1.0,,,,,,,,,blue,diamond
0.0,5.0,1.0,1.0,5.0,5.0,534.4368360001681,8.0,1.0,phase_2,stop,400.0,250.0,3.0,,,,,,,,,magenta,I
0.0,8.0,4.0,1.0,5.0,0.0,0.0,8.0,1.0,phase_2,stop,350.0,250.0,4.0,,,,,,,,,yellow,circle
0.0,4.0,4.0,0.0,5.0,5.0,605.7847470001434,8.0,1.0,phase_2,go,400.0,250.0,1.0,,,,,,,,,white,square
0.0,4.0,4.0,0.0,6.0,6.0,409.9767240004439,8.0,1.0,phase_2,go,400.0,250.0,1.0,,,,,,,,,white,square
0.0,8.0,4.0,1.0,6.0,0.0,0.0,8.0,1.0,phase_2,stop,400.0,250.0,4.0,,,,,,,,,yellow,circle
0.0,1.0,1.0,0.0,5.0,5.0,510.4692940003588,8.0,1.0,phase_2,go,400.0,300.0,1.0,,,,,,,,,blue,diamond
0.0,3.0,3.0,0.0,6.0,6.0,519.7605120001754,8.0,1.0,phase_2,go,400.0,300.0,1.0,,,,,,,,,orange,hexagon
0.0,1.0,1.0,0.0,5.0,5.0,503.33340500037593,8.0,1.0,phase_2,go,400.0,300.0,1.0,,,,,,,,,blue,diamond
0.0,8.0,4.0,1.0,6.0,6.0,464.5719300006021,8.0,1.0,phase_2,stop,400.0,300.0,3.0,,,,,,,,,yellow,circle
0.0,4.0,4.0,0.0,6.0,6.0,469.9236420001398,8.0,1.0,phase_2,go,400.0,250.0,1.0,,,,,,,,,white,square
0.0,4.0,4.0,0.0,6.0,6.0,486.7617370000516,8.0,1.0,phase_2,go,400.0,250.0,1.0,,,,,,,,,white,square
0.0,6.0,2.0,1.0,5.0,5.0,449.5562050005901,8.0,1.0,phase_2,stop,400.0,250.0,3.0,,,,,,,,,gray,triangle
0.0,8.0,4.0,1.0,5.0,5.0,504.86208100028307,8.0,1.0,phase_2,stop,350.0,250.0,3.0,,,,,,,,,yellow,circle
0.0,4.0,4.0,0.0,5.0,5.0,546.2521069994182,8.0,1.0,phase_2,go,300.0,250.0,1.0,,,,,,,,,white,square
0.0,7.0,3.0,1.0,6.0,0.0,0.0,8.0,1.0,phase_2,stop,300.0,250.0,4.0,,,,,,,,,green,flipped triangle
0.0,1.0,1.0,0.0,6.0,6.0,462.7261400000861,8.0,1.0,phase_2,go,300.0,300.0,1.0,,,,,,,,,blue,diamond
0.0,3.0,3.0,0.0,6.0,6.0,653.7137730001632,8.0,1.0,phase_2,go,300.0,300.0,1.0,,,,,,,,,orange,hexagon
0.0,5.0,1.0,1.0,6.0,0.0,0.0,8.0,1.0,phase_2,stop,300.0,300.0,4.0,,,,,,,,,magenta,I
0.0,3.0,3.0,0.0,5.0,5.0,390.432316999977,8.0,1.0,phase_2,go,300.0,350.0,1.0,,,,,,,,,orange,hexagon
0.0,5.0,1.0,1.0,5.0,0.0,0.0,8.0,1.0,phase_2,stop,300.0,350.0,4.0,,,,,,,,,magenta,I
0.0,8.0,4.0,1.0,6.0,0.0,0.0,8.0,1.0,phase_2,stop,350.0,350.0,4.0,,,,,,,,,yellow,circle
0.0,7.0,3.0,1.0,5.0,5.0,465.0203310002325,8.0,1.0,phase_2,stop,350.0,400.0,3.0,,,,,,,,,green,flipped triangle
0.0,8.0,4.0,1.0,5.0,5.0,502.9376689999481,8.0,1.0,phase_2,go,300.0,400.0,1.0,,,,,,,,,yellow,circle
0.0,2.0,2.0,0.0,7.0,4.0,1251.5682239991293,1.0,2.0,phase_3,,,,,324.0,6.0,216.0,162.0,54.0,324.0,270.0,108.0,cyan,cross
0.0,7.0,3.0,1.0,7.0,5.0,2101.7853559997093,1.0,1.0,phase_3,,,,,44.0,1.0,88.0,132.0,220.0,264.0,44.0,176.0,green,flipped triangle
0.0,7.0,3.0,1.0,7.0,5.0,2985.012591000668,1.0,1.0,phase_3,,,,,245.0,5.0,147.0,98.0,49.0,294.0,245.0,196.0,green,flipped triangle
0.0,3.0,3.0,0.0,7.0,1.0,2232.466127000407,1.0,1.0,phase_3,,,,,245.0,5.0,245.0,49.0,294.0,196.0,98.0,147.0,orange,hexagon
0.0,1.0,1.0,0.0,7.0,4.0,3430.708345999846,1.0,1.0,phase_3,,,,,147.0,3.0,49.0,196.0,294.0,147.0,98.0,245.0,blue,diamond
0.0,4.0,4.0,0.0,7.0,5.0,1849.891836999632,1.0,1.0,phase_3,,,,,204.0,6.0,34.0,170.0,68.0,136.0,204.0,102.0,white,square
0.0,1.0,1.0,0.0,7.0,2.0,3051.9609679995483,1.0,1.0,phase_3,,,,,270.0,5.0,54.0,270.0,216.0,162.0,324.0,108.0,blue,diamond
0.0,2.0,2.0,0.0,7.0,1.0,2974.193529999866,1.0,1.0,phase_3,,,,,176.0,4.0,176.0,44.0,220.0,132.0,88.0,264.0,cyan,cross
0.0,2.0,2.0,0.0,7.0,2.0,2000.9650630008764,1.0,1.0,phase_3,,,,,195.0,5.0,117.0,195.0,39.0,234.0,78.0,156.0,cyan,cross
0.0,8.0,4.0,1.0,7.0,3.0,1451.6055490003057,1.0,1.0,phase_3,,,,,204.0,6.0,68.0,34.0,204.0,136.0,170.0,102.0,yellow,circle
0.0,5.0,1.0,1.0,7.0,6.0,2362.769225000193,1.0,1.0,phase_3,,,,,216.0,4.0,270.0,324.0,162.0,54.0,108.0,216.0,magenta,I
0.0,7.0,3.0,1.0,7.0,4.0,2565.5077600004006,1.0,1.0,phase_3,,,,,245.0,5.0,196.0,147.0,294.0,245.0,49.0,98.0,green,flipped triangle
0.0,1.0,1.0,0.0,7.0,5.0,3287.4850150001294,1.0,1.0,phase_3,,,,,264.0,6.0,132.0,44.0,220.0,176.0,264.0,88.0,blue,diamond
0.0,1.0,1.0,0.0,7.0,5.0,1513.5123840000233,1.0,1.0,phase_3,,,,,294.0,6.0,196.0,49.0,147.0,245.0,294.0,98.0,blue,diamond
0.0,8.0,4.0,1.0,7.0,3.0,3221.776088000297,1.0,1.0,phase_3,,,,,170.0,5.0,68.0,204.0,170.0,136.0,34.0,102.0,yellow,circle
0.0,2.0,2.0,0.0,7.0,5.0,2140.2569719994062,1.0,1.0,phase_3,,,,,136.0,4.0,34.0,170.0,68.0,204.0,136.0,102.0,cyan,cross
0.0,1.0,1.0,0.0,7.0,5.0,2646.8059250000806,1.0,1.0,phase_3,,,,,216.0,4.0,54.0,108.0,162.0,324.0,216.0,270.0,blue,diamond
0.0,8.0,4.0,1.0,7.0,1.0,1858.561408999776,1.0,1.0,phase_3,,,,,196.0,4.0,196.0,49.0,245.0,294.0,98.0,147.0,yellow,circle
0.0,2.0,2.0,0.0,7.0,5.0,2800.826476000111,1.0,1.0,phase_3,,,,,136.0,4.0,204.0,170.0,102.0,68.0,136.0,34.0,cyan,cross
0.0,5.0,1.0,1.0,7.0,5.0,2382.5680130003093,1.0,1.0,phase_3,,,,,196.0,4.0,294.0,147.0,49.0,98.0,196.0,245.0,magenta,I
0.0,2.0,2.0,0.0,7.0,2.0,2309.162937999645,2.0,1.0,phase_3,,,,,216.0,4.0,108.0,216.0,270.0,162.0,54.0,324.0,cyan,cross
0.0,3.0,3.0,0.0,7.0,3.0,1084.169056999599,2.0,1.0,phase_3,,,,,216.0,4.0,108.0,270.0,216.0,162.0,54.0,324.0,orange,hexagon
0.0,3.0,3.0,0.0,7.0,4.0,2038.8945320000857,2.0,1.0,phase_3,,,,,156.0,4.0,39.0,234.0,117.0,156.0,78.0,195.0,orange,hexagon
0.0,4.0,4.0,0.0,7.0,3.0,1742.8235900006257,2.0,1.0,phase_3,,,,,245.0,5.0,196.0,294.0,245.0,147.0,98.0,49.0,white,square
0.0,8.0,4.0,1.0,7.0,5.0,1578.425943000184,2.0,1.0,phase_3,,,,,234.0,6.0,156.0,39.0,78.0,195.0,234.0,117.0,yellow,circle
0.0,2.0,2.0,0.0,7.0,4.0,2077.721842000756,2.0,1.0,phase_3,,,,,196.0,4.0,98.0,49.0,147.0,196.0,245.0,294.0,cyan,cross
0.0,4.0,4.0,0.0,7.0,4.0,1690.5217229996197,2.0,1.0,phase_3,,,,,216.0,4.0,162.0,324.0,108.0,216.0,270.0,54.0,white,square
0.0,7.0,3.0,1.0,7.0,3.0,1581.5797160003058,2.0,1.0,phase_3,,,,,195.0,5.0,234.0,117.0,195.0,39.0,156.0,78.0,green,flipped triangle
0.0,3.0,3.0,0.0,7.0,1.0,2401.604521000081,2.0,1.0,phase_3,,,,,216.0,4.0,216.0,108.0,324.0,54.0,162.0,270.0,orange,hexagon
0.0,8.0,4.0,1.0,7.0,1.0,1894.5962289999445,2.0,1.0,phase_3,,,,,220.0,5.0,220.0,176.0,264.0,132.0,88.0,44.0,yellow,circle
0.0,1.0,1.0,0.0,7.0,5.0,2445.436391999465,2.0,1.0,phase_3,,,,,170.0,5.0,204.0,136.0,102.0,68.0,170.0,34.0,blue,diamond
0.0,6.0,2.0,1.0,7.0,6.0,2048.246711000502,2.0,1.0,phase_3,,,,,176.0,4.0,264.0,44.0,132.0,88.0,220.0,176.0,gray,triangle
0.0,4.0,4.0,0.0,7.0,2.0,2301.575862999925,2.0,1.0,phase_3,,,,,195.0,5.0,39.0,195.0,234.0,156.0,78.0,117.0,white,square
0.0,4.0,4.0,0.0,7.0,4.0,2379.927284000587,2.0,1.0,phase_3,,,,,216.0,4.0,108.0,54.0,270.0,216.0,324.0,162.0,white,square
0.0,4.0,4.0,0.0,7.0,2.0,2015.151031000641,2.0,1.0,phase_3,,,,,170.0,5.0,204.0,170.0,136.0,102.0,68.0,34.0,white,square
0.0,7.0,3.0,1.0,7.0,5.0,1843.951864999326,2.0,1.0,phase_3,,,,,195.0,5.0,78.0,117.0,234.0,156.0,195.0,39.0,green,flipped triangle
0.0,5.0,1.0,1.0,7.0,4.0,2324.631360999774,2.0,1.0,phase_3,,,,,170.0,5.0,204.0,34.0,102.0,170.0,68.0,136.0,magenta,I
0.0,6.0,2.0,1.0,7.0,6.0,2430.269757000133,2.0,1.0,phase_3,,,,,245.0,5.0,196.0,294.0,49.0,147.0,98.0,245.0,gray,triangle
0.0,2.0,2.0,0.0,7.0,5.0,2606.1405760001435,2.0,1.0,phase_3,,,,,195.0,5.0,117.0,78.0,156.0,234.0,195.0,39.0,cyan,cross
0.0,5.0,1.0,1.0,7.0,1.0,2188.585920999685,2.0,1.0,phase_3,,,,,176.0,4.0,176.0,264.0,88.0,44.0,132.0,220.0,magenta,I
0.0,5.0,1.0,1.0,7.0,2.0,1595.9390019997954,3.0,1.0,phase_3,,,,,136.0,4.0,170.0,136.0,34.0,204.0,102.0,68.0,magenta,I
0.0,7.0,3.0,1.0,7.0,5.0,2149.9376129995653,3.0,1.0,phase_3,,,,,136.0,4.0,204.0,34.0,68.0,170.0,136.0,102.0,green,flipped triangle
0.0,3.0,3.0,0.0,7.0,3.0,2883.655407999868,3.0,1.0,phase_3,,,,,136.0,4.0,170.0,34.0,136.0,204.0,102.0,68.0,orange,hexagon
0.0,8.0,4.0,1.0,7.0,6.0,2930.237393000425,3.0,1.0,phase_3,,,,,156.0,4.0,39.0,78.0,117.0,234.0,195.0,156.0,yellow,circle
0.0,6.0,2.0,1.0,7.0,5.0,1832.604647000153,3.0,1.0,phase_3,,,,,195.0,5.0,156.0,39.0,234.0,117.0,195.0,78.0,gray,triangle
0.0,6.0,2.0,1.0,7.0,4.0,1499.2455800002062,3.0,1.0,phase_3,,,,,195.0,5.0,156.0,117.0,234.0,195.0,78.0,39.0,gray,triangle
0.0,5.0,1.0,1.0,7.0,6.0,1925.1278339997957,3.0,1.0,phase_3,,,,,195.0,5.0,117.0,39.0,234.0,78.0,156.0,195.0,magenta,I
0.0,6.0,2.0,1.0,7.0,4.0,1974.817018000067,3.0,1.0,phase_3,,,,,270.0,5.0,216.0,54.0,324.0,270.0,162.0,108.0,gray,triangle
0.0,4.0,4.0,0.0,7.0,4.0,2582.9185819993654,3.0,1.0,phase_3,,,,,176.0,4.0,44.0,264.0,220.0,176.0,132.0,88.0,white,square
0.0,3.0,3.0,0.0,7.0,5.0,2142.6894890000767,3.0,1.0,phase_3,,,,,195.0,5.0,78.0,39.0,234.0,156.0,195.0,117.0,orange,hexagon
0.0,1.0,1.0,0.0,7.0,5.0,1708.7573139997403,3.0,1.0,phase_3,,,,,156.0,4.0,39.0,195.0,234.0,117.0,156.0,78.0,blue,diamond
0.0,1.0,1.0,0.0,7.0,5.0,2071.7721420005546,3.0,1.0,phase_3,,,,,117.0,3.0,39.0,156.0,78.0,234.0,117.0,195.0,blue,diamond
0.0,6.0,2.0,1.0,7.0,4.0,2506.640910999522,3.0,1.0,phase_3,,,,,196.0,4.0,245.0,98.0,49.0,196.0,294.0,147.0,gray,triangle
0.0,6.0,2.0,1.0,7.0,3.0,2163.191777000065,3.0,1.0,phase_3,,,,,176.0,4.0,132.0,220.0,176.0,44.0,88.0,264.0,gray,triangle
0.0,6.0,2.0,1.0,7.0,6.0,2809.41000599978,3.0,1.0,phase_3,,,,,170.0,5.0,102.0,34.0,204.0,68.0,136.0,170.0,gray,triangle
0.0,6.0,2.0,1.0,7.0,1.0,3276.199870999335,3.0,1.0,phase_3,,,,,136.0,4.0,136.0,102.0,68.0,170.0,34.0,204.0,gray,triangle
0.0,1.0,1.0,0.0,7.0,4.0,1071.2821569995867,3.0,1.0,phase_3,,,,,176.0,4.0,44.0,88.0,264.0,176.0,220.0,132.0,blue,diamond
0.0,7.0,3.0,1.0,7.0,6.0,1740.1957549991494,3.0,1.0,phase_3,,,,,270.0,5.0,162.0,216.0,108.0,54.0,324.0,270.0,green,flipped triangle
0.0,5.0,1.0,1.0,7.0,2.0,1618.0177539999931,3.0,1.0,phase_3,,,,,147.0,3.0,98.0,147.0,245.0,294.0,196.0,49.0,magenta,I
0.0,5.0,1.0,1.0,7.0,4.0,1627.8883860004498,3.0,1.0,phase_3,,,,,117.0,3.0,234.0,78.0,195.0,117.0,156.0,39.0,magenta,I
0.0,7.0,3.0,1.0,7.0,5.0,1998.8408920007716,4.0,1.0,phase_3,,,,,176.0,4.0,264.0,132.0,88.0,220.0,176.0,44.0,green,flipped triangle
0.0,2.0,2.0,0.0,7.0,1.0,2513.156115000129,4.0,1.0,phase_3,,,,,196.0,4.0,196.0,49.0,294.0,98.0,245.0,147.0,cyan,cross
0.0,3.0,3.0,0.0,7.0,2.0,1332.8585279996332,4.0,1.0,phase_3,,,,,196.0,4.0,49.0,196.0,245.0,147.0,294.0,98.0,orange,hexagon
0.0,2.0,2.0,0.0,7.0,3.0,1550.9418199999343,4.0,1.0,phase_3,,,,,176.0,4.0,44.0,220.0,176.0,264.0,88.0,132.0,cyan,cross
0.0,8.0,4.0,1.0,7.0,4.0,2360.42383899985,4.0,1.0,phase_3,,,,,216.0,4.0,324.0,108.0,270.0,216.0,162.0,54.0,yellow,circle
0.0,7.0,3.0,1.0,7.0,4.0,1588.3554060001188,4.0,1.0,phase_3,,,,,324.0,6.0,270.0,108.0,216.0,324.0,162.0,54.0,green,flipped triangle
0.0,4.0,4.0,0.0,7.0,5.0,1532.138582000698,4.0,1.0,phase_3,,,,,147.0,3.0,98.0,294.0,49.0,196.0,147.0,245.0,white,square
0.0,7.0,3.0,1.0,7.0,4.0,2032.512787000087,4.0,1.0,phase_3,,,,,136.0,4.0,34.0,204.0,102.0,136.0,68.0,170.0,green,flipped triangle
0.0,1.0,1.0,0.0,7.0,6.0,2613.103929999852,4.0,1.0,phase_3,,,,,136.0,4.0,34.0,170.0,68.0,102.0,204.0,136.0,blue,diamond
0.0,4.0,4.0,0.0,7.0,5.0,2091.3290060007057,4.0,1.0,phase_3,,,,,176.0,4.0,264.0,88.0,220.0,132.0,176.0,44.0,white,square
0.0,3.0,3.0,0.0,7.0,5.0,2341.546336000647,4.0,1.0,phase_3,,,,,170.0,5.0,102.0,204.0,68.0,136.0,170.0,34.0,orange,hexagon
0.0,5.0,1.0,1.0,7.0,2.0,1980.446039000526,4.0,1.0,phase_3,,,,,162.0,3.0,324.0,162.0,270.0,54.0,108.0,216.0,magenta,I
0.0,5.0,1.0,1.0,7.0,1.0,2012.3279489998822,4.0,1.0,phase_3,,,,,132.0,3.0,132.0,220.0,264.0,88.0,44.0,176.0,magenta,I
0.0,8.0,4.0,1.0,7.0,4.0,2900.5444610002087,4.0,1.0,phase_3,,,,,216.0,4.0,54.0,324.0,270.0,216.0,108.0,162.0,yellow,circle
0.0,4.0,4.0,0.0,7.0,5.0,1700.7666640001844,4.0,1.0,phase_3,,,,,156.0,4.0,39.0,195.0,78.0,117.0,156.0,234.0,white,square
0.0,6.0,2.0,1.0,7.0,4.0,2689.758047000396,4.0,1.0,phase_3,,,,,216.0,4.0,324.0,270.0,108.0,216.0,54.0,162.0,gray,triangle
0.0,8.0,4.0,1.0,7.0,6.0,1052.263438999944,4.0,1.0,phase_3,,,,,147.0,3.0,294.0,196.0,98.0,49.0,245.0,147.0,yellow,circle
0.0,3.0,3.0,0.0,7.0,3.0,1465.4107469996234,4.0,1.0,phase_3,,,,,176.0,4.0,220.0,264.0,176.0,88.0,132.0,44.0,orange,hexagon
0.0,3.0,3.0,0.0,7.0,4.0,1252.5781249996726,4.0,1.0,phase_3,,,,,132.0,3.0,220.0,176.0,88.0,132.0,44.0,264.0,orange,hexagon
0.0,8.0,4.0,1.0,7.0,6.0,1444.8108719998345,4.0,1.0,phase_3,,,,,132.0,3.0,176.0,264.0,88.0,44.0,220.0,132.0,yellow,circle
