raw_reward_magnitude,stim_reward,stepwise_reward_magnitude,paired_with_stopping,stim_location,response,reaction_time,block,num_trial_presentations,which_phase,stop_signal_trial_type,left_SSD,right_SSD,accuracy,chosen_bidding_amount,chosen_bidding_level,possible_bid_1,possible_bid_2,possible_bid_3,possible_bid_4,possible_bid_5,possible_bid_6,color_text,shape_text
0.0,8.0,0.0,1.0,3.0,3.0,444.5616139998947,1.0,1.0,phase_1,,,,,,,,,,,,,yellow,circle
122.0,6.0,1.0,1.0,4.0,4.0,319.851356000072,1.0,1.0,phase_1,,,,,,,,,,,,,magenta,cross
123.0,6.0,1.0,1.0,2.0,2.0,317.6787299998977,1.0,1.0,phase_1,,,,,,,,,,,,,magenta,cross
424.0,4.0,4.0,0.0,4.0,4.0,269.2394260000128,1.0,1.0,phase_1,,,,,,,,,,,,,cyan,diamond
209.0,7.0,2.0,1.0,4.0,4.0,285.4250080001748,1.0,1.0,phase_1,,,,,,,,,,,,,green,triangle
216.0,3.0,2.0,0.0,2.0,2.0,299.4585280000592,1.0,1.0,phase_1,,,,,,,,,,,,,orange,flipped triangle
34.0,5.0,0.5,1.0,4.0,4.0,328.5232279999945,1.0,1.0,phase_1,,,,,,,,,,,,,white,square
102.0,6.0,1.0,1.0,1.0,1.0,252.68774400001348,1.0,1.0,phase_1,,,,,,,,,,,,,magenta,cross
177.0,7.0,2.0,1.0,2.0,2.0,251.7552940000769,1.0,1.0,phase_1,,,,,,,,,,,,,green,triangle
417.0,8.0,4.0,1.0,2.0,2.0,237.5298380000003,1.0,1.0,phase_1,,,,,,,,,,,,,yellow,circle
176.0,7.0,2.0,1.0,2.0,2.0,237.2921410001254,1.0,1.0,phase_1,,,,,,,,,,,,,green,triangle
81.0,2.0,1.0,0.0,4.0,4.0,295.7365249999384,1.0,1.0,phase_1,,,,,,,,,,,,,gray,hexagon
101.0,2.0,1.0,0.0,1.0,1.0,296.791826000117,1.0,1.0,phase_1,,,,,,,,,,,,,gray,hexagon
0.0,7.0,0.0,1.0,1.0,1.0,310.2674179999667,1.0,1.0,phase_1,,,,,,,,,,,,,green,triangle
0.0,3.0,0.0,0.0,1.0,1.0,277.2283440001502,1.0,1.0,phase_1,,,,,,,,,,,,,orange,flipped triangle
31.0,5.0,0.5,1.0,1.0,1.0,260.2879149999353,1.0,1.0,phase_1,,,,,,,,,,,,,white,square
68.0,5.0,0.5,1.0,2.0,2.0,221.4346270000078,1.0,1.0,phase_1,,,,,,,,,,,,,white,square
101.0,6.0,1.0,1.0,3.0,3.0,263.5963889999857,1.0,1.0,phase_1,,,,,,,,,,,,,magenta,cross
44.0,1.0,0.5,0.0,3.0,3.0,385.6005979998826,1.0,1.0,phase_1,,,,,,,,,,,,,blue,I
0.0,5.0,0.0,1.0,3.0,3.0,302.0792770000753,1.0,2.0,phase_1,,,,,,,,,,,,,white,square
0.0,4.0,0.0,0.0,2.0,2.0,339.6790229999169,1.0,1.0,phase_1,,,,,,,,,,,,,cyan,diamond
49.0,1.0,0.5,0.0,3.0,3.0,285.3824829999212,1.0,1.0,phase_1,,,,,,,,,,,,,blue,I
184.0,7.0,2.0,1.0,3.0,3.0,277.1904950000134,1.0,1.0,phase_1,,,,,,,,,,,,,green,triangle
414.0,8.0,4.0,1.0,4.0,4.0,267.8038779999951,1.0,1.0,phase_1,,,,,,,,,,,,,yellow,circle
71.0,5.0,0.5,1.0,1.0,1.0,260.7951790000697,1.0,1.0,phase_1,,,,,,,,,,,,,white,square
104.0,6.0,1.0,1.0,2.0,2.0,273.3239690001028,1.0,1.0,phase_1,,,,,,,,,,,,,magenta,cross
219.0,3.0,2.0,0.0,3.0,3.0,294.2497299998194,1.0,1.0,phase_1,,,,,,,,,,,,,orange,flipped triangle
410.0,8.0,4.0,1.0,2.0,2.0,293.5008199999629,1.0,1.0,phase_1,,,,,,,,,,,,,yellow,circle
410.0,4.0,4.0,0.0,3.0,3.0,438.9494259999082,1.0,1.0,phase_1,,,,,,,,,,,,,cyan,diamond
0.0,5.0,0.0,1.0,2.0,2.0,290.7053520000318,1.0,1.0,phase_1,,,,,,,,,,,,,white,square
82.0,6.0,1.0,1.0,3.0,3.0,276.7595159998564,1.0,1.0,phase_1,,,,,,,,,,,,,magenta,cross
208.0,3.0,2.0,0.0,4.0,4.0,288.0407410000316,1.0,1.0,phase_1,,,,,,,,,,,,,orange,flipped triangle
76.0,2.0,1.0,0.0,2.0,2.0,251.13470000019328,1.0,1.0,phase_1,,,,,,,,,,,,,gray,hexagon
35.0,5.0,0.5,1.0,4.0,4.0,262.8633639999407,1.0,1.0,phase_1,,,,,,,,,,,,,white,square
0.0,6.0,0.0,1.0,3.0,3.0,358.4524010000223,1.0,1.0,phase_1,,,,,,,,,,,,,magenta,cross
121.0,6.0,1.0,1.0,3.0,3.0,388.8667930000338,1.0,1.0,phase_1,,,,,,,,,,,,,magenta,cross
225.0,3.0,2.0,0.0,1.0,1.0,333.9743969997926,1.0,1.0,phase_1,,,,,,,,,,,,,orange,flipped triangle
0.0,6.0,0.0,1.0,3.0,3.0,297.8100380000796,1.0,1.0,phase_1,,,,,,,,,,,,,magenta,cross
209.0,7.0,2.0,1.0,3.0,3.0,299.7699970001122,1.0,1.0,phase_1,,,,,,,,,,,,,green,triangle
42.0,1.0,0.5,0.0,4.0,4.0,323.7767450000319,1.0,1.0,phase_1,,,,,,,,,,,,,blue,I
48.0,1.0,0.5,0.0,4.0,4.0,290.0719550000303,1.0,1.0,phase_1,,,,,,,,,,,,,blue,I
0.0,2.0,0.0,0.0,2.0,2.0,247.798548999981,1.0,1.0,phase_1,,,,,,,,,,,,,gray,hexagon
225.0,7.0,2.0,1.0,4.0,4.0,289.0390089999073,1.0,1.0,phase_1,,,,,,,,,,,,,green,triangle
49.0,5.0,0.5,1.0,3.0,3.0,325.1224340001499,1.0,1.0,phase_1,,,,,,,,,,,,,white,square
0.0,1.0,0.0,0.0,4.0,4.0,294.1418139998859,1.0,1.0,phase_1,,,,,,,,,,,,,blue,I
0.0,5.0,0.0,1.0,3.0,3.0,344.2539800000759,1.0,1.0,phase_1,,,,,,,,,,,,,white,square
125.0,6.0,1.0,1.0,2.0,2.0,280.9820889999628,1.0,1.0,phase_1,,,,,,,,,,,,,magenta,cross
0.0,4.0,0.0,0.0,1.0,1.0,316.9444099999055,1.0,2.0,phase_1,,,,,,,,,,,,,cyan,diamond
0.0,1.0,0.0,0.0,4.0,4.0,339.0088319999904,1.0,1.0,phase_1,,,,,,,,,,,,,blue,I
398.0,4.0,4.0,0.0,3.0,3.0,330.4411229999004,1.0,1.0,phase_1,,,,,,,,,,,,,cyan,diamond
70.0,5.0,0.5,1.0,3.0,3.0,268.5170129998369,1.0,1.0,phase_1,,,,,,,,,,,,,white,square
101.0,6.0,1.0,1.0,3.0,3.0,276.2100830000236,1.0,1.0,phase_1,,,,,,,,,,,,,magenta,cross
0.0,5.0,0.0,1.0,1.0,1.0,278.2436509999115,1.0,1.0,phase_1,,,,,,,,,,,,,white,square
222.0,3.0,2.0,0.0,1.0,1.0,328.8740960001632,1.0,1.0,phase_1,,,,,,,,,,,,,orange,flipped triangle
33.0,1.0,0.5,0.0,3.0,3.0,319.495242999892,1.0,1.0,phase_1,,,,,,,,,,,,,blue,I
409.0,8.0,4.0,1.0,3.0,3.0,391.4507010001671,1.0,1.0,phase_1,,,,,,,,,,,,,yellow,circle
193.0,3.0,2.0,0.0,4.0,4.0,327.1514260000003,1.0,1.0,phase_1,,,,,,,,,,,,,orange,flipped triangle
424.0,8.0,4.0,1.0,1.0,1.0,321.2195759999758,1.0,1.0,phase_1,,,,,,,,,,,,,yellow,circle
219.0,7.0,2.0,1.0,1.0,1.0,302.1928149998985,1.0,1.0,phase_1,,,,,,,,,,,,,green,triangle
182.0,7.0,2.0,1.0,4.0,4.0,303.7326099999973,1.0,1.0,phase_1,,,,,,,,,,,,,green,triangle
97.0,2.0,1.0,0.0,4.0,4.0,291.9782270000723,1.0,1.0,phase_1,,,,,,,,,,,,,gray,hexagon
386.0,8.0,4.0,1.0,3.0,3.0,354.8465429998941,1.0,1.0,phase_1,,,,,,,,,,,,,yellow,circle
392.0,8.0,4.0,1.0,4.0,4.0,288.6411570000291,1.0,1.0,phase_1,,,,,,,,,,,,,yellow,circle
0.0,6.0,0.0,1.0,3.0,3.0,295.3881319999709,1.0,1.0,phase_1,,,,,,,,,,,,,magenta,cross
0.0,5.0,0.0,1.0,2.0,2.0,308.2492770001863,1.0,1.0,phase_1,,,,,,,,,,,,,white,square
405.0,8.0,4.0,1.0,1.0,1.0,551.5766979999626,1.0,1.0,phase_1,,,,,,,,,,,,,yellow,circle
196.0,3.0,2.0,0.0,2.0,2.0,302.2994850000486,1.0,1.0,phase_1,,,,,,,,,,,,,orange,flipped triangle
0.0,4.0,0.0,0.0,4.0,4.0,256.5254080000159,1.0,1.0,phase_1,,,,,,,,,,,,,cyan,diamond
0.0,4.0,0.0,0.0,2.0,2.0,255.5298639999819,1.0,1.0,phase_1,,,,,,,,,,,,,cyan,diamond
110.0,6.0,1.0,1.0,1.0,1.0,342.0827770000869,1.0,1.0,phase_1,,,,,,,,,,,,,magenta,cross
181.0,3.0,2.0,0.0,4.0,4.0,312.4901319999935,1.0,1.0,phase_1,,,,,,,,,,,,,orange,flipped triangle
377.0,8.0,4.0,1.0,1.0,1.0,358.618498999931,1.0,1.0,phase_1,,,,,,,,,,,,,yellow,circle
0.0,4.0,0.0,0.0,1.0,1.0,312.4236889998428,1.0,1.0,phase_1,,,,,,,,,,,,,cyan,diamond
64.0,5.0,0.5,1.0,4.0,4.0,269.1313809998519,1.0,1.0,phase_1,,,,,,,,,,,,,white,square
117.0,2.0,1.0,0.0,4.0,4.0,327.2711419999723,1.0,1.0,phase_1,,,,,,,,,,,,,gray,hexagon
391.0,4.0,4.0,0.0,3.0,3.0,405.1822540000103,1.0,1.0,phase_1,,,,,,,,,,,,,cyan,diamond
29.0,1.0,0.5,0.0,1.0,1.0,323.7861469999643,1.0,1.0,phase_1,,,,,,,,,,,,,blue,I
0.0,8.0,0.0,1.0,1.0,1.0,358.5359119999793,1.0,1.0,phase_1,,,,,,,,,,,,,yellow,circle
211.0,3.0,2.0,0.0,2.0,2.0,303.9695630000096,1.0,1.0,phase_1,,,,,,,,,,,,,orange,flipped triangle
67.0,5.0,0.5,1.0,4.0,4.0,281.4070470001297,1.0,1.0,phase_1,,,,,,,,,,,,,white,square
388.0,4.0,4.0,0.0,1.0,1.0,235.2237350000905,1.0,1.0,phase_1,,,,,,,,,,,,,cyan,diamond
197.0,7.0,2.0,1.0,1.0,1.0,303.2295580001118,1.0,1.0,phase_1,,,,,,,,,,,,,green,triangle
67.0,1.0,0.5,0.0,2.0,2.0,321.3111370000661,1.0,1.0,phase_1,,,,,,,,,,,,,blue,I
122.0,2.0,1.0,0.0,1.0,1.0,300.2262909999444,1.0,1.0,phase_1,,,,,,,,,,,,,gray,hexagon
0.0,6.0,0.0,1.0,2.0,2.0,295.1798560000043,1.0,1.0,phase_1,,,,,,,,,,,,,magenta,cross
32.0,1.0,0.5,0.0,2.0,2.0,339.5311439999204,1.0,1.0,phase_1,,,,,,,,,,,,,blue,I
0.0,2.0,0.0,0.0,4.0,4.0,273.3410710000044,1.0,1.0,phase_1,,,,,,,,,,,,,gray,hexagon
25.0,5.0,0.5,1.0,1.0,1.0,327.1644639999067,1.0,1.0,phase_1,,,,,,,,,,,,,white,square
399.0,8.0,4.0,1.0,3.0,3.0,374.6357210000042,1.0,1.0,phase_1,,,,,,,,,,,,,yellow,circle
64.0,5.0,0.5,1.0,3.0,3.0,333.6473450001449,1.0,1.0,phase_1,,,,,,,,,,,,,white,square
0.0,3.0,0.0,0.0,2.0,2.0,268.3752210000421,1.0,1.0,phase_1,,,,,,,,,,,,,orange,flipped triangle
405.0,8.0,4.0,1.0,4.0,4.0,265.213784000025,1.0,1.0,phase_1,,,,,,,,,,,,,yellow,circle
395.0,4.0,4.0,0.0,1.0,1.0,338.9818069999819,1.0,1.0,phase_1,,,,,,,,,,,,,cyan,diamond
0.0,1.0,0.0,0.0,3.0,3.0,315.63545899985,1.0,1.0,phase_1,,,,,,,,,,,,,blue,I
107.0,6.0,1.0,1.0,4.0,4.0,257.9794979999406,1.0,1.0,phase_1,,,,,,,,,,,,,magenta,cross
198.0,3.0,2.0,0.0,2.0,2.0,258.8750909999362,1.0,1.0,phase_1,,,,,,,,,,,,,orange,flipped triangle
0.0,5.0,0.0,1.0,2.0,2.0,286.193404999949,1.0,1.0,phase_1,,,,,,,,,,,,,white,square
114.0,6.0,1.0,1.0,4.0,4.0,270.0396130001081,1.0,1.0,phase_1,,,,,,,,,,,,,magenta,cross
397.0,4.0,4.0,0.0,1.0,1.0,289.1100599999845,1.0,1.0,phase_1,,,,,,,,,,,,,cyan,diamond
184.0,3.0,2.0,0.0,1.0,1.0,315.626851999923,1.0,1.0,phase_1,,,,,,,,,,,,,orange,flipped triangle
107.0,2.0,1.0,0.0,1.0,1.0,347.9314279998107,2.0,1.0,phase_1,,,,,,,,,,,,,gray,hexagon
0.0,8.0,0.0,1.0,4.0,4.0,249.0946380003151,2.0,1.0,phase_1,,,,,,,,,,,,,yellow,circle
410.0,4.0,4.0,0.0,2.0,2.0,288.4201080000821,2.0,1.0,phase_1,,,,,,,,,,,,,cyan,diamond
387.0,8.0,4.0,1.0,1.0,1.0,239.2793090002669,2.0,1.0,phase_1,,,,,,,,,,,,,yellow,circle
89.0,2.0,1.0,0.0,1.0,1.0,265.5644490000668,2.0,1.0,phase_1,,,,,,,,,,,,,gray,hexagon
403.0,8.0,4.0,1.0,4.0,4.0,282.4953900003493,2.0,1.0,phase_1,,,,,,,,,,,,,yellow,circle
212.0,7.0,2.0,1.0,1.0,1.0,267.4478730000373,2.0,1.0,phase_1,,,,,,,,,,,,,green,triangle
425.0,4.0,4.0,0.0,2.0,2.0,253.1352699998024,2.0,1.0,phase_1,,,,,,,,,,,,,cyan,diamond
125.0,6.0,1.0,1.0,1.0,1.0,285.238579000179,2.0,1.0,phase_1,,,,,,,,,,,,,magenta,cross
399.0,4.0,4.0,0.0,4.0,4.0,274.6954919998643,2.0,1.0,phase_1,,,,,,,,,,,,,cyan,diamond
214.0,7.0,2.0,1.0,1.0,1.0,281.5013190001991,2.0,1.0,phase_1,,,,,,,,,,,,,green,triangle
423.0,8.0,4.0,1.0,4.0,4.0,340.0491470001725,2.0,1.0,phase_1,,,,,,,,,,,,,yellow,circle
218.0,3.0,2.0,0.0,1.0,1.0,286.2376349999067,2.0,1.0,phase_1,,,,,,,,,,,,,orange,flipped triangle
31.0,5.0,0.5,1.0,2.0,2.0,247.4394770001708,2.0,1.0,phase_1,,,,,,,,,,,,,white,square
0.0,4.0,0.0,0.0,4.0,4.0,311.4335840000422,2.0,1.0,phase_1,,,,,,,,,,,,,cyan,diamond
38.0,5.0,0.5,1.0,3.0,3.0,291.0373370000343,2.0,1.0,phase_1,,,,,,,,,,,,,white,square
88.0,2.0,1.0,0.0,2.0,2.0,286.4221949998864,2.0,1.0,phase_1,,,,,,,,,,,,,gray,hexagon
185.0,3.0,2.0,0.0,1.0,1.0,329.4930679999197,2.0,1.0,phase_1,,,,,,,,,,,,,orange,flipped triangle
122.0,6.0,1.0,1.0,2.0,2.0,277.2244569996474,2.0,1.0,phase_1,,,,,,,,,,,,,magenta,cross
222.0,7.0,2.0,1.0,3.0,3.0,341.257546000179,2.0,1.0,phase_1,,,,,,,,,,,,,green,triangle
110.0,2.0,1.0,0.0,3.0,3.0,357.593973999883,2.0,1.0,phase_1,,,,,,,,,,,,,gray,hexagon
0.0,5.0,0.0,1.0,4.0,4.0,262.641853000332,2.0,1.0,phase_1,,,,,,,,,,,,,white,square
97.0,6.0,1.0,1.0,1.0,1.0,378.0397679997804,2.0,1.0,phase_1,,,,,,,,,,,,,magenta,cross
76.0,2.0,1.0,0.0,4.0,4.0,308.2438619999266,2.0,1.0,phase_1,,,,,,,,,,,,,gray,hexagon
42.0,1.0,0.5,0.0,2.0,2.0,248.766988999705,2.0,1.0,phase_1,,,,,,,,,,,,,blue,I
51.0,1.0,0.5,0.0,4.0,4.0,309.8248510000303,2.0,1.0,phase_1,,,,,,,,,,,,,blue,I
0.0,6.0,0.0,1.0,4.0,4.0,322.0127170002342,2.0,1.0,phase_1,,,,,,,,,,,,,magenta,cross
27.0,1.0,0.5,0.0,4.0,4.0,309.8845049998999,2.0,1.0,phase_1,,,,,,,,,,,,,blue,I
212.0,3.0,2.0,0.0,3.0,3.0,314.9456219998683,2.0,1.0,phase_1,,,,,,,,,,,,,orange,flipped triangle
0.0,3.0,0.0,0.0,4.0,4.0,326.5289870000742,2.0,1.0,phase_1,,,,,,,,,,,,,orange,flipped triangle
0.0,6.0,0.0,1.0,1.0,1.0,300.7709439998507,2.0,1.0,phase_1,,,,,,,,,,,,,magenta,cross
0.0,2.0,0.0,0.0,3.0,3.0,313.7127149998377,2.0,1.0,phase_1,,,,,,,,,,,,,gray,hexagon
101.0,2.0,1.0,0.0,4.0,4.0,399.2065659999753,2.0,1.0,phase_1,,,,,,,,,,,,,gray,hexagon
195.0,3.0,2.0,0.0,2.0,2.0,256.6923639997185,2.0,1.0,phase_1,,,,,,,,,,,,,orange,flipped triangle
378.0,4.0,4.0,0.0,4.0,4.0,255.55935900001708,2.0,1.0,phase_1,,,,,,,,,,,,,cyan,diamond
0.0,1.0,0.0,0.0,3.0,3.0,297.8572559995882,2.0,1.0,phase_1,,,,,,,,,,,,,blue,I
411.0,8.0,4.0,1.0,2.0,2.0,272.3448470001131,2.0,1.0,phase_1,,,,,,,,,,,,,yellow,circle
123.0,2.0,1.0,0.0,1.0,1.0,358.7857909997183,2.0,1.0,phase_1,,,,,,,,,,,,,gray,hexagon
70.0,1.0,0.5,0.0,3.0,3.0,280.5987990000176,2.0,1.0,phase_1,,,,,,,,,,,,,blue,I
0.0,4.0,0.0,0.0,1.0,1.0,425.0179169998773,2.0,1.0,phase_1,,,,,,,,,,,,,cyan,diamond
0.0,3.0,0.0,0.0,1.0,1.0,392.9370070000004,2.0,1.0,phase_1,,,,,,,,,,,,,orange,flipped triangle
97.0,2.0,1.0,0.0,2.0,2.0,270.1813889998448,2.0,1.0,phase_1,,,,,,,,,,,,,gray,hexagon
56.0,5.0,0.5,1.0,1.0,1.0,276.7292749999797,2.0,1.0,phase_1,,,,,,,,,,,,,white,square
383.0,4.0,4.0,0.0,3.0,3.0,336.8698130002485,2.0,1.0,phase_1,,,,,,,,,,,,,cyan,diamond
63.0,1.0,0.5,0.0,2.0,2.0,312.2608919998129,2.0,1.0,phase_1,,,,,,,,,,,,,blue,I
32.0,5.0,0.5,1.0,3.0,3.0,312.5390890004382,2.0,1.0,phase_1,,,,,,,,,,,,,white,square
39.0,1.0,0.5,0.0,1.0,1.0,304.36156199994,2.0,1.0,phase_1,,,,,,,,,,,,,blue,I
77.0,6.0,1.0,1.0,2.0,2.0,213.9812469999924,2.0,1.0,phase_1,,,,,,,,,,,,,magenta,cross
0.0,3.0,0.0,0.0,2.0,2.0,227.6169709998612,2.0,1.0,phase_1,,,,,,,,,,,,,orange,flipped triangle
383.0,8.0,4.0,1.0,1.0,1.0,296.0081979999813,2.0,1.0,phase_1,,,,,,,,,,,,,yellow,circle
0.0,5.0,0.0,1.0,4.0,4.0,325.3250529996876,2.0,1.0,phase_1,,,,,,,,,,,,,white,square
196.0,3.0,2.0,0.0,2.0,2.0,270.722755999941,2.0,1.0,phase_1,,,,,,,,,,,,,orange,flipped triangle
41.0,5.0,0.5,1.0,2.0,2.0,259.1923230002066,2.0,1.0,phase_1,,,,,,,,,,,,,white,square
0.0,7.0,0.0,1.0,2.0,2.0,228.7618939999447,2.0,1.0,phase_1,,,,,,,,,,,,,green,triangle
93.0,2.0,1.0,0.0,4.0,4.0,340.576960999897,2.0,1.0,phase_1,,,,,,,,,,,,,gray,hexagon
182.0,3.0,2.0,0.0,4.0,4.0,326.9986320001408,2.0,1.0,phase_1,,,,,,,,,,,,,orange,flipped triangle
202.0,7.0,2.0,1.0,1.0,1.0,231.5700780000043,2.0,1.0,phase_1,,,,,,,,,,,,,green,triangle
414.0,4.0,4.0,0.0,2.0,2.0,292.5554519997604,2.0,1.0,phase_1,,,,,,,,,,,,,cyan,diamond
378.0,8.0,4.0,1.0,2.0,2.0,287.886945000082,2.0,1.0,phase_1,,,,,,,,,,,,,yellow,circle
67.0,1.0,0.5,0.0,1.0,1.0,304.75264100005,2.0,1.0,phase_1,,,,,,,,,,,,,blue,I
204.0,7.0,2.0,1.0,1.0,1.0,372.2676529996533,2.0,1.0,phase_1,,,,,,,,,,,,,green,triangle
381.0,4.0,4.0,0.0,1.0,1.0,283.6704129999816,2.0,1.0,phase_1,,,,,,,,,,,,,cyan,diamond
398.0,4.0,4.0,0.0,3.0,3.0,312.5621950002824,2.0,1.0,phase_1,,,,,,,,,,,,,cyan,diamond
214.0,3.0,2.0,0.0,4.0,4.0,309.1971500002728,2.0,1.0,phase_1,,,,,,,,,,,,,orange,flipped triangle
381.0,8.0,4.0,1.0,2.0,2.0,258.5790739999538,2.0,1.0,phase_1,,,,,,,,,,,,,yellow,circle
425.0,8.0,4.0,1.0,2.0,2.0,254.94703200001823,2.0,1.0,phase_1,,,,,,,,,,,,,yellow,circle
211.0,7.0,2.0,1.0,2.0,2.0,246.4413399998193,2.0,1.0,phase_1,,,,,,,,,,,,,green,triangle
411.0,4.0,4.0,0.0,4.0,4.0,297.2130279999874,2.0,1.0,phase_1,,,,,,,,,,,,,cyan,diamond
0.0,8.0,0.0,1.0,4.0,4.0,295.4714760003298,2.0,1.0,phase_1,,,,,,,,,,,,,yellow,circle
56.0,1.0,0.5,0.0,1.0,1.0,262.7617079997435,2.0,1.0,phase_1,,,,,,,,,,,,,blue,I
384.0,8.0,4.0,1.0,1.0,1.0,299.4836560001204,2.0,1.0,phase_1,,,,,,,,,,,,,yellow,circle
387.0,8.0,4.0,1.0,4.0,4.0,302.92667999992767,2.0,1.0,phase_1,,,,,,,,,,,,,yellow,circle
99.0,6.0,1.0,1.0,3.0,3.0,331.1245869999766,2.0,1.0,phase_1,,,,,,,,,,,,,magenta,cross
0.0,3.0,0.0,0.0,4.0,4.0,249.0402159996847,2.0,1.0,phase_1,,,,,,,,,,,,,orange,flipped triangle
196.0,7.0,2.0,1.0,4.0,4.0,286.9221830001152,2.0,1.0,phase_1,,,,,,,,,,,,,green,triangle
387.0,4.0,4.0,0.0,1.0,1.0,359.0714129995831,2.0,1.0,phase_1,,,,,,,,,,,,,cyan,diamond
385.0,8.0,4.0,1.0,3.0,3.0,268.1078450000314,2.0,1.0,phase_1,,,,,,,,,,,,,yellow,circle
201.0,3.0,2.0,0.0,4.0,4.0,330.2628149999691,2.0,1.0,phase_1,,,,,,,,,,,,,orange,flipped triangle
218.0,3.0,2.0,0.0,2.0,2.0,304.1161589999319,2.0,1.0,phase_1,,,,,,,,,,,,,orange,flipped triangle
41.0,1.0,0.5,0.0,4.0,4.0,273.2041639997078,2.0,1.0,phase_1,,,,,,,,,,,,,blue,I
397.0,8.0,4.0,1.0,3.0,3.0,326.1868539998431,2.0,1.0,phase_1,,,,,,,,,,,,,yellow,circle
414.0,4.0,4.0,0.0,4.0,4.0,249.4678349999048,2.0,1.0,phase_1,,,,,,,,,,,,,cyan,diamond
377.0,4.0,4.0,0.0,1.0,1.0,248.0496769999263,2.0,1.0,phase_1,,,,,,,,,,,,,cyan,diamond
409.0,4.0,4.0,0.0,3.0,3.0,282.0444489998408,2.0,1.0,phase_1,,,,,,,,,,,,,cyan,diamond
108.0,6.0,1.0,1.0,1.0,1.0,278.2018259999859,2.0,1.0,phase_1,,,,,,,,,,,,,magenta,cross
75.0,6.0,1.0,1.0,1.0,1.0,330.0642590002098,2.0,1.0,phase_1,,,,,,,,,,,,,magenta,cross
89.0,2.0,1.0,0.0,1.0,1.0,348.2919960001709,2.0,1.0,phase_1,,,,,,,,,,,,,gray,hexagon
67.0,1.0,0.5,0.0,2.0,2.0,279.418552000152,2.0,1.0,phase_1,,,,,,,,,,,,,blue,I
398.0,8.0,4.0,1.0,1.0,1.0,298.0446349997692,2.0,1.0,phase_1,,,,,,,,,,,,,yellow,circle
424.0,4.0,4.0,0.0,1.0,1.0,300.8313329996781,2.0,1.0,phase_1,,,,,,,,,,,,,cyan,diamond
379.0,4.0,4.0,0.0,2.0,2.0,291.7420349999702,2.0,1.0,phase_1,,,,,,,,,,,,,cyan,diamond
42.0,5.0,0.5,1.0,3.0,3.0,303.2496649998393,2.0,1.0,phase_1,,,,,,,,,,,,,white,square
209.0,3.0,2.0,0.0,4.0,4.0,303.9718200002426,2.0,1.0,phase_1,,,,,,,,,,,,,orange,flipped triangle
424.0,4.0,4.0,0.0,3.0,3.0,420.1346889999513,2.0,1.0,phase_1,,,,,,,,,,,,,cyan,diamond
392.0,4.0,4.0,0.0,4.0,4.0,247.9733740001393,2.0,1.0,phase_1,,,,,,,,,,,,,cyan,diamond
35.0,1.0,0.5,0.0,4.0,4.0,285.0661469997249,2.0,1.0,phase_1,,,,,,,,,,,,,blue,I
79.0,2.0,1.0,0.0,3.0,3.0,277.0383050001328,2.0,1.0,phase_1,,,,,,,,,,,,,gray,hexagon
117.0,6.0,1.0,1.0,4.0,4.0,252.43786300006832,2.0,1.0,phase_1,,,,,,,,,,,,,magenta,cross
424.0,4.0,4.0,0.0,2.0,2.0,392.1584079998865,2.0,1.0,phase_1,,,,,,,,,,,,,cyan,diamond
66.0,5.0,0.5,1.0,4.0,4.0,308.4242750001067,2.0,1.0,phase_1,,,,,,,,,,,,,white,square
31.0,1.0,0.5,0.0,2.0,2.0,313.1840440000815,3.0,1.0,phase_1,,,,,,,,,,,,,blue,I
198.0,7.0,2.0,1.0,4.0,4.0,241.9797890001973,3.0,1.0,phase_1,,,,,,,,,,,,,green,triangle
212.0,3.0,2.0,0.0,3.0,3.0,282.7957609997611,3.0,1.0,phase_1,,,,,,,,,,,,,orange,flipped triangle
74.0,5.0,0.5,1.0,1.0,1.0,249.4018100001085,3.0,1.0,phase_1,,,,,,,,,,,,,white,square
393.0,4.0,4.0,0.0,3.0,3.0,301.2274129996513,3.0,1.0,phase_1,,,,,,,,,,,,,cyan,diamond
384.0,4.0,4.0,0.0,4.0,4.0,264.9375559999498,3.0,1.0,phase_1,,,,,,,,,,,,,cyan,diamond
67.0,5.0,0.5,1.0,3.0,3.0,271.4454540000588,3.0,1.0,phase_1,,,,,,,,,,,,,white,square
0.0,8.0,0.0,1.0,2.0,2.0,332.210183999905,3.0,1.0,phase_1,,,,,,,,,,,,,yellow,circle
76.0,6.0,1.0,1.0,3.0,3.0,268.9239910000651,3.0,1.0,phase_1,,,,,,,,,,,,,magenta,cross
185.0,7.0,2.0,1.0,2.0,2.0,274.5304250001936,3.0,1.0,phase_1,,,,,,,,,,,,,green,triangle
63.0,5.0,0.5,1.0,1.0,1.0,311.7122769999696,3.0,2.0,phase_1,,,,,,,,,,,,,white,square
0.0,2.0,0.0,0.0,3.0,3.0,306.7084330000398,3.0,1.0,phase_1,,,,,,,,,,,,,gray,hexagon
77.0,2.0,1.0,0.0,2.0,2.0,252.161566000268,3.0,1.0,phase_1,,,,,,,,,,,,,gray,hexagon
0.0,1.0,0.0,0.0,2.0,2.0,247.6654480001343,3.0,1.0,phase_1,,,,,,,,,,,,,blue,I
189.0,3.0,2.0,0.0,3.0,3.0,266.3227240000196,3.0,1.0,phase_1,,,,,,,,,,,,,orange,flipped triangle
0.0,8.0,0.0,1.0,4.0,4.0,266.9689829999697,3.0,1.0,phase_1,,,,,,,,,,,,,yellow,circle
56.0,5.0,0.5,1.0,3.0,3.0,221.4639580001858,3.0,1.0,phase_1,,,,,,,,,,,,,white,square
31.0,1.0,0.5,0.0,3.0,3.0,311.799130000054,3.0,1.0,phase_1,,,,,,,,,,,,,blue,I
193.0,3.0,2.0,0.0,1.0,1.0,577.0520219998616,3.0,1.0,phase_1,,,,,,,,,,,,,orange,flipped triangle
201.0,3.0,2.0,0.0,4.0,4.0,297.9330540001683,3.0,1.0,phase_1,,,,,,,,,,,,,orange,flipped triangle
71.0,1.0,0.5,0.0,4.0,4.0,327.0554880000418,3.0,1.0,phase_1,,,,,,,,,,,,,blue,I
49.0,5.0,0.5,1.0,2.0,2.0,242.89861200031729,3.0,1.0,phase_1,,,,,,,,,,,,,white,square
122.0,2.0,1.0,0.0,1.0,1.0,249.1834319998815,3.0,1.0,phase_1,,,,,,,,,,,,,gray,hexagon
386.0,4.0,4.0,0.0,3.0,3.0,356.2349859998903,3.0,1.0,phase_1,,,,,,,,,,,,,cyan,diamond
393.0,8.0,4.0,1.0,2.0,2.0,305.4817080001157,3.0,1.0,phase_1,,,,,,,,,,,,,yellow,circle
125.0,2.0,1.0,0.0,2.0,2.0,301.4603030001126,3.0,1.0,phase_1,,,,,,,,,,,,,gray,hexagon
195.0,7.0,2.0,1.0,2.0,2.0,316.9738100000359,3.0,1.0,phase_1,,,,,,,,,,,,,green,triangle
397.0,8.0,4.0,1.0,4.0,4.0,300.546265000321,3.0,1.0,phase_1,,,,,,,,,,,,,yellow,circle
60.0,5.0,0.5,1.0,1.0,1.0,355.6026549999842,3.0,1.0,phase_1,,,,,,,,,,,,,white,square
51.0,5.0,0.5,1.0,4.0,4.0,291.7150009998295,3.0,1.0,phase_1,,,,,,,,,,,,,white,square
67.0,5.0,0.5,1.0,2.0,2.0,253.72886500008462,3.0,1.0,phase_1,,,,,,,,,,,,,white,square
81.0,6.0,1.0,1.0,2.0,2.0,287.6546470001813,3.0,1.0,phase_1,,,,,,,,,,,,,magenta,cross
0.0,2.0,0.0,0.0,4.0,4.0,295.8567890000267,3.0,1.0,phase_1,,,,,,,,,,,,,gray,hexagon
199.0,3.0,2.0,0.0,1.0,1.0,324.7843980002471,3.0,1.0,phase_1,,,,,,,,,,,,,orange,flipped triangle
212.0,7.0,2.0,1.0,2.0,2.0,247.7571629997328,3.0,1.0,phase_1,,,,,,,,,,,,,green,triangle
25.0,1.0,0.5,0.0,1.0,1.0,287.5748020001083,3.0,1.0,phase_1,,,,,,,,,,,,,blue,I
41.0,5.0,0.5,1.0,4.0,4.0,285.3725049999411,3.0,1.0,phase_1,,,,,,,,,,,,,white,square
84.0,2.0,1.0,0.0,2.0,2.0,296.8914570001288,3.0,1.0,phase_1,,,,,,,,,,,,,gray,hexagon
0.0,5.0,0.0,1.0,2.0,2.0,281.9796929998119,3.0,1.0,phase_1,,,,,,,,,,,,,white,square
177.0,3.0,2.0,0.0,1.0,1.0,267.200591999881,3.0,1.0,phase_1,,,,,,,,,,,,,orange,flipped triangle
51.0,1.0,0.5,0.0,4.0,4.0,288.5264129999996,3.0,1.0,phase_1,,,,,,,,,,,,,blue,I
58.0,1.0,0.5,0.0,1.0,1.0,311.3943849998577,3.0,1.0,phase_1,,,,,,,,,,,,,blue,I
49.0,1.0,0.5,0.0,1.0,1.0,307.9903789998752,3.0,1.0,phase_1,,,,,,,,,,,,,blue,I
193.0,7.0,2.0,1.0,2.0,2.0,285.5343579999498,3.0,1.0,phase_1,,,,,,,,,,,,,green,triangle
189.0,3.0,2.0,0.0,3.0,3.0,383.9736300001277,3.0,1.0,phase_1,,,,,,,,,,,,,orange,flipped triangle
0.0,8.0,0.0,1.0,4.0,4.0,302.5005070003317,3.0,2.0,phase_1,,,,,,,,,,,,,yellow,circle
56.0,1.0,0.5,0.0,4.0,4.0,290.6256109999958,3.0,1.0,phase_1,,,,,,,,,,,,,blue,I
199.0,7.0,2.0,1.0,3.0,3.0,335.499124999842,3.0,1.0,phase_1,,,,,,,,,,,,,green,triangle
0.0,7.0,0.0,1.0,1.0,1.0,294.0955369999756,3.0,1.0,phase_1,,,,,,,,,,,,,green,triangle
0.0,7.0,0.0,1.0,4.0,4.0,263.9498240000648,3.0,1.0,phase_1,,,,,,,,,,,,,green,triangle
67.0,5.0,0.5,1.0,4.0,4.0,283.7866139998368,3.0,1.0,phase_1,,,,,,,,,,,,,white,square
0.0,2.0,0.0,0.0,2.0,2.0,254.1636490000201,3.0,1.0,phase_1,,,,,,,,,,,,,gray,hexagon
222.0,3.0,2.0,0.0,4.0,4.0,255.8530219998829,3.0,1.0,phase_1,,,,,,,,,,,,,orange,flipped triangle
0.0,7.0,0.0,1.0,4.0,4.0,304.3162099997971,3.0,1.0,phase_1,,,,,,,,,,,,,green,triangle
211.0,7.0,2.0,1.0,2.0,2.0,286.2426289998439,3.0,1.0,phase_1,,,,,,,,,,,,,green,triangle
0.0,1.0,0.0,0.0,4.0,4.0,270.9676560002663,3.0,1.0,phase_1,,,,,,,,,,,,,blue,I
64.0,1.0,0.5,0.0,3.0,3.0,327.5857650000944,3.0,1.0,phase_1,,,,,,,,,,,,,blue,I
29.0,5.0,0.5,1.0,1.0,1.0,346.5577829997528,3.0,1.0,phase_1,,,,,,,,,,,,,white,square
89.0,6.0,1.0,1.0,2.0,2.0,255.9343660000195,3.0,1.0,phase_1,,,,,,,,,,,,,magenta,cross
419.0,8.0,4.0,1.0,4.0,4.0,268.1764609997117,3.0,1.0,phase_1,,,,,,,,,,,,,yellow,circle
201.0,7.0,2.0,1.0,1.0,1.0,494.0734050001083,3.0,1.0,phase_1,,,,,,,,,,,,,green,triangle
41.0,1.0,0.5,0.0,3.0,3.0,314.2378940001435,3.0,1.0,phase_1,,,,,,,,,,,,,blue,I
25.0,1.0,0.5,0.0,2.0,2.0,261.1314719997608,3.0,1.0,phase_1,,,,,,,,,,,,,blue,I
0.0,2.0,0.0,0.0,4.0,4.0,238.0751020000389,3.0,1.0,phase_1,,,,,,,,,,,,,gray,hexagon
121.0,2.0,1.0,0.0,3.0,3.0,269.9922589999914,3.0,1.0,phase_1,,,,,,,,,,,,,gray,hexagon
193.0,7.0,2.0,1.0,1.0,1.0,265.4459979999046,3.0,1.0,phase_1,,,,,,,,,,,,,green,triangle
405.0,4.0,4.0,0.0,2.0,2.0,297.0426729998507,3.0,1.0,phase_1,,,,,,,,,,,,,cyan,diamond
84.0,6.0,1.0,1.0,4.0,4.0,262.9614799998307,3.0,1.0,phase_1,,,,,,,,,,,,,magenta,cross
0.0,7.0,0.0,1.0,1.0,1.0,313.776154000152,3.0,1.0,phase_1,,,,,,,,,,,,,green,triangle
88.0,6.0,1.0,1.0,1.0,1.0,353.7819590001163,3.0,1.0,phase_1,,,,,,,,,,,,,magenta,cross
193.0,7.0,2.0,1.0,3.0,3.0,318.2219630002691,3.0,1.0,phase_1,,,,,,,,,,,,,green,triangle
419.0,4.0,4.0,0.0,1.0,1.0,272.666633999961,3.0,1.0,phase_1,,,,,,,,,,,,,cyan,diamond
0.0,6.0,0.0,1.0,1.0,1.0,283.8275489998523,3.0,1.0,phase_1,,,,,,,,,,,,,magenta,cross
387.0,4.0,4.0,0.0,2.0,2.0,265.2237669999522,3.0,1.0,phase_1,,,,,,,,,,,,,cyan,diamond
379.0,8.0,4.0,1.0,3.0,3.0,293.866866999906,3.0,1.0,phase_1,,,,,,,,,,,,,yellow,circle
423.0,4.0,4.0,0.0,2.0,2.0,275.1532410002255,3.0,1.0,phase_1,,,,,,,,,,,,,cyan,diamond
72.0,1.0,0.5,0.0,4.0,4.0,322.2059260001515,3.0,1.0,phase_1,,,,,,,,,,,,,blue,I
44.0,5.0,0.5,1.0,2.0,2.0,255.0801630000023,3.0,1.0,phase_1,,,,,,,,,,,,,white,square
88.0,2.0,1.0,0.0,4.0,4.0,295.437480000146,3.0,2.0,phase_1,,,,,,,,,,,,,gray,hexagon
117.0,6.0,1.0,1.0,1.0,1.0,316.1835380001321,3.0,1.0,phase_1,,,,,,,,,,,,,magenta,cross
114.0,2.0,1.0,0.0,1.0,1.0,318.7431129999822,3.0,1.0,phase_1,,,,,,,,,,,,,gray,hexagon
0.0,7.0,0.0,1.0,2.0,2.0,249.3194690000564,3.0,1.0,phase_1,,,,,,,,,,,,,green,triangle
380.0,4.0,4.0,0.0,3.0,3.0,273.6765449999438,3.0,1.0,phase_1,,,,,,,,,,,,,cyan,diamond
0.0,6.0,0.0,1.0,2.0,2.0,268.3286070000577,3.0,1.0,phase_1,,,,,,,,,,,,,magenta,cross
0.0,8.0,0.0,1.0,3.0,3.0,273.5822560002816,3.0,1.0,phase_1,,,,,,,,,,,,,yellow,circle
106.0,2.0,1.0,0.0,3.0,3.0,317.358226000124,3.0,1.0,phase_1,,,,,,,,,,,,,gray,hexagon
117.0,2.0,1.0,0.0,4.0,4.0,337.5502699996104,3.0,1.0,phase_1,,,,,,,,,,,,,gray,hexagon
387.0,4.0,4.0,0.0,4.0,4.0,271.0995419997744,3.0,1.0,phase_1,,,,,,,,,,,,,cyan,diamond
58.0,5.0,0.5,1.0,2.0,2.0,368.3916270001646,3.0,1.0,phase_1,,,,,,,,,,,,,white,square
68.0,1.0,0.5,0.0,1.0,1.0,446.2056289999054,3.0,1.0,phase_1,,,,,,,,,,,,,blue,I
108.0,2.0,1.0,0.0,1.0,1.0,338.3973400000286,3.0,1.0,phase_1,,,,,,,,,,,,,gray,hexagon
398.0,8.0,4.0,1.0,1.0,1.0,290.9576710003421,3.0,1.0,phase_1,,,,,,,,,,,,,yellow,circle
111.0,6.0,1.0,1.0,4.0,4.0,314.9736280001889,3.0,1.0,phase_1,,,,,,,,,,,,,magenta,cross
116.0,6.0,1.0,1.0,2.0,2.0,289.9100449999423,3.0,1.0,phase_1,,,,,,,,,,,,,magenta,cross
77.0,2.0,1.0,0.0,3.0,3.0,321.1011360003795,3.0,1.0,phase_1,,,,,,,,,,,,,gray,hexagon
0.0,7.0,0.0,1.0,2.0,2.0,264.4486540002617,3.0,1.0,phase_1,,,,,,,,,,,,,green,triangle
395.0,8.0,4.0,1.0,4.0,4.0,423.2265380001081,3.0,1.0,phase_1,,,,,,,,,,,,,yellow,circle
397.0,4.0,4.0,0.0,2.0,2.0,333.5516459997052,3.0,1.0,phase_1,,,,,,,,,,,,,cyan,diamond
0.0,2.0,0.0,0.0,2.0,2.0,258.9434379997328,3.0,1.0,phase_1,,,,,,,,,,,,,gray,hexagon
60.0,1.0,0.5,0.0,1.0,1.0,294.8719739997614,3.0,1.0,phase_1,,,,,,,,,,,,,blue,I
97.0,6.0,1.0,1.0,1.0,1.0,291.8665749998581,4.0,1.0,phase_1,,,,,,,,,,,,,magenta,cross
0.0,6.0,0.0,1.0,2.0,2.0,263.9092360000177,4.0,1.0,phase_1,,,,,,,,,,,,,magenta,cross
403.0,4.0,4.0,0.0,4.0,4.0,228.6038610000105,4.0,1.0,phase_1,,,,,,,,,,,,,cyan,diamond
72.0,5.0,0.5,1.0,1.0,1.0,214.7445569999035,4.0,1.0,phase_1,,,,,,,,,,,,,white,square
192.0,7.0,2.0,1.0,3.0,3.0,309.3560970000908,4.0,1.0,phase_1,,,,,,,,,,,,,green,triangle
82.0,2.0,1.0,0.0,4.0,4.0,293.4652690000803,4.0,1.0,phase_1,,,,,,,,,,,,,gray,hexagon
196.0,7.0,2.0,1.0,1.0,1.0,312.6224779998665,4.0,1.0,phase_1,,,,,,,,,,,,,green,triangle
125.0,2.0,1.0,0.0,3.0,3.0,335.0369499999033,4.0,1.0,phase_1,,,,,,,,,,,,,gray,hexagon
218.0,7.0,2.0,1.0,3.0,3.0,304.4015519999448,4.0,1.0,phase_1,,,,,,,,,,,,,green,triangle
177.0,7.0,2.0,1.0,4.0,4.0,260.6686359999912,4.0,1.0,phase_1,,,,,,,,,,,,,green,triangle
197.0,3.0,2.0,0.0,1.0,1.0,280.0768269999025,4.0,1.0,phase_1,,,,,,,,,,,,,orange,flipped triangle
0.0,4.0,0.0,0.0,4.0,4.0,281.4647629998035,4.0,1.0,phase_1,,,,,,,,,,,,,cyan,diamond
176.0,3.0,2.0,0.0,3.0,3.0,285.4746830003023,4.0,1.0,phase_1,,,,,,,,,,,,,orange,flipped triangle
89.0,6.0,1.0,1.0,4.0,4.0,329.8260729998219,4.0,1.0,phase_1,,,,,,,,,,,,,magenta,cross
67.0,1.0,0.5,0.0,3.0,3.0,297.9819379997934,4.0,1.0,phase_1,,,,,,,,,,,,,blue,I
27.0,5.0,0.5,1.0,3.0,3.0,319.6107459998529,4.0,1.0,phase_1,,,,,,,,,,,,,white,square
385.0,4.0,4.0,0.0,1.0,1.0,307.7586370000063,4.0,1.0,phase_1,,,,,,,,,,,,,cyan,diamond
0.0,3.0,0.0,0.0,2.0,2.0,253.48743899985487,4.0,1.0,phase_1,,,,,,,,,,,,,orange,flipped triangle
34.0,1.0,0.5,0.0,2.0,2.0,262.0541339997544,4.0,1.0,phase_1,,,,,,,,,,,,,blue,I
189.0,7.0,2.0,1.0,4.0,4.0,237.1407440000439,4.0,1.0,phase_1,,,,,,,,,,,,,green,triangle
405.0,4.0,4.0,0.0,4.0,4.0,333.4576960000959,4.0,1.0,phase_1,,,,,,,,,,,,,cyan,diamond
403.0,4.0,4.0,0.0,1.0,1.0,324.8589810000339,4.0,1.0,phase_1,,,,,,,,,,,,,cyan,diamond
114.0,2.0,1.0,0.0,2.0,2.0,237.3997590002545,4.0,1.0,phase_1,,,,,,,,,,,,,gray,hexagon
403.0,8.0,4.0,1.0,2.0,2.0,303.6924430002727,4.0,1.0,phase_1,,,,,,,,,,,,,yellow,circle
0.0,3.0,0.0,0.0,3.0,3.0,314.9544709999645,4.0,1.0,phase_1,,,,,,,,,,,,,orange,flipped triangle
104.0,6.0,1.0,1.0,3.0,3.0,367.5619470000129,4.0,1.0,phase_1,,,,,,,,,,,,,magenta,cross
48.0,5.0,0.5,1.0,2.0,2.0,272.616115999881,4.0,1.0,phase_1,,,,,,,,,,,,,white,square
202.0,3.0,2.0,0.0,1.0,1.0,309.8816799997621,4.0,1.0,phase_1,,,,,,,,,,,,,orange,flipped triangle
179.0,7.0,2.0,1.0,2.0,2.0,264.3811480002114,4.0,1.0,phase_1,,,,,,,,,,,,,green,triangle
0.0,1.0,0.0,0.0,4.0,4.0,294.6654369998214,4.0,1.0,phase_1,,,,,,,,,,,,,blue,I
0.0,8.0,0.0,1.0,2.0,2.0,293.614671999876,4.0,1.0,phase_1,,,,,,,,,,,,,yellow,circle
106.0,6.0,1.0,1.0,4.0,4.0,252.7119949995722,4.0,1.0,phase_1,,,,,,,,,,,,,magenta,cross
116.0,2.0,1.0,0.0,4.0,4.0,301.4983339999162,4.0,1.0,phase_1,,,,,,,,,,,,,gray,hexagon
196.0,7.0,2.0,1.0,3.0,3.0,292.1949329997915,4.0,1.0,phase_1,,,,,,,,,,,,,green,triangle
0.0,1.0,0.0,0.0,1.0,1.0,293.317191999904,4.0,2.0,phase_1,,,,,,,,,,,,,blue,I
0.0,2.0,0.0,0.0,1.0,1.0,274.0259359998163,4.0,1.0,phase_1,,,,,,,,,,,,,gray,hexagon
39.0,5.0,0.5,1.0,4.0,4.0,303.3403239996914,4.0,1.0,phase_1,,,,,,,,,,,,,white,square
0.0,3.0,0.0,0.0,1.0,1.0,249.8237340000741,4.0,1.0,phase_1,,,,,,,,,,,,,orange,flipped triangle
189.0,7.0,2.0,1.0,4.0,4.0,468.2815910000499,4.0,1.0,phase_1,,,,,,,,,,,,,green,triangle
218.0,7.0,2.0,1.0,4.0,4.0,298.4580199999982,4.0,1.0,phase_1,,,,,,,,,,,,,green,triangle
387.0,8.0,4.0,1.0,3.0,3.0,356.6074939999453,4.0,1.0,phase_1,,,,,,,,,,,,,yellow,circle
424.0,8.0,4.0,1.0,1.0,1.0,287.662538999939,4.0,1.0,phase_1,,,,,,,,,,,,,yellow,circle
0.0,7.0,0.0,1.0,1.0,1.0,291.4113100000577,4.0,1.0,phase_1,,,,,,,,,,,,,green,triangle
0.0,8.0,0.0,1.0,2.0,2.0,280.2370310000697,4.0,1.0,phase_1,,,,,,,,,,,,,yellow,circle
38.0,1.0,0.5,0.0,2.0,2.0,230.8846979999543,4.0,1.0,phase_1,,,,,,,,,,,,,blue,I
0.0,6.0,0.0,1.0,1.0,1.0,506.23007400008646,4.0,1.0,phase_1,,,,,,,,,,,,,magenta,cross
76.0,2.0,1.0,0.0,2.0,2.0,267.0939179997731,4.0,1.0,phase_1,,,,,,,,,,,,,gray,hexagon
75.0,2.0,1.0,0.0,2.0,2.0,262.3466650002228,4.0,1.0,phase_1,,,,,,,,,,,,,gray,hexagon
196.0,3.0,2.0,0.0,4.0,4.0,312.5079789997471,4.0,1.0,phase_1,,,,,,,,,,,,,orange,flipped triangle
0.0,3.0,0.0,0.0,2.0,2.0,439.5169240001451,4.0,1.0,phase_1,,,,,,,,,,,,,orange,flipped triangle
192.0,3.0,2.0,0.0,3.0,3.0,287.044478000098,4.0,1.0,phase_1,,,,,,,,,,,,,orange,flipped triangle
76.0,6.0,1.0,1.0,4.0,4.0,269.3542019997039,4.0,1.0,phase_1,,,,,,,,,,,,,magenta,cross
424.0,8.0,4.0,1.0,3.0,3.0,346.1317229998712,4.0,1.0,phase_1,,,,,,,,,,,,,yellow,circle
76.0,6.0,1.0,1.0,3.0,3.0,331.1081309998371,4.0,1.0,phase_1,,,,,,,,,,,,,magenta,cross
64.0,1.0,0.5,0.0,1.0,1.0,373.3113389998834,4.0,1.0,phase_1,,,,,,,,,,,,,blue,I
424.0,8.0,4.0,1.0,2.0,2.0,214.8345399996287,4.0,1.0,phase_1,,,,,,,,,,,,,yellow,circle
102.0,2.0,1.0,0.0,3.0,3.0,318.3483319999141,4.0,1.0,phase_1,,,,,,,,,,,,,gray,hexagon
222.0,7.0,2.0,1.0,3.0,3.0,302.1265960001074,4.0,1.0,phase_1,,,,,,,,,,,,,green,triangle
391.0,8.0,4.0,1.0,3.0,3.0,289.3855099996472,4.0,1.0,phase_1,,,,,,,,,,,,,yellow,circle
0.0,5.0,0.0,1.0,3.0,3.0,303.5308869998516,4.0,1.0,phase_1,,,,,,,,,,,,,white,square
92.0,6.0,1.0,1.0,2.0,2.0,274.8870129998977,4.0,1.0,phase_1,,,,,,,,,,,,,magenta,cross
181.0,7.0,2.0,1.0,4.0,4.0,276.9063830000959,4.0,1.0,phase_1,,,,,,,,,,,,,green,triangle
48.0,5.0,0.5,1.0,4.0,4.0,303.6471740001616,4.0,1.0,phase_1,,,,,,,,,,,,,white,square
25.0,5.0,0.5,1.0,3.0,3.0,262.3962709999432,4.0,1.0,phase_1,,,,,,,,,,,,,white,square
0.0,2.0,0.0,0.0,3.0,3.0,292.522616000042,4.0,1.0,phase_1,,,,,,,,,,,,,gray,hexagon
33.0,5.0,0.5,1.0,2.0,2.0,339.4950779997998,4.0,1.0,phase_1,,,,,,,,,,,,,white,square
77.0,6.0,1.0,1.0,1.0,1.0,339.3716339996899,4.0,1.0,phase_1,,,,,,,,,,,,,magenta,cross
66.0,1.0,0.5,0.0,3.0,3.0,255.8566380002958,4.0,1.0,phase_1,,,,,,,,,,,,,blue,I
0.0,4.0,0.0,0.0,2.0,2.0,320.1115940000818,4.0,1.0,phase_1,,,,,,,,,,,,,cyan,diamond
93.0,6.0,1.0,1.0,4.0,4.0,279.3005869998524,4.0,1.0,phase_1,,,,,,,,,,,,,magenta,cross
48.0,1.0,0.5,0.0,2.0,2.0,283.2966740002121,4.0,1.0,phase_1,,,,,,,,,,,,,blue,I
216.0,7.0,2.0,1.0,1.0,1.0,261.986287000127,4.0,1.0,phase_1,,,,,,,,,,,,,green,triangle
79.0,6.0,1.0,1.0,3.0,3.0,314.9711119999665,4.0,1.0,phase_1,,,,,,,,,,,,,magenta,cross
380.0,8.0,4.0,1.0,1.0,1.0,444.1072619997612,4.0,1.0,phase_1,,,,,,,,,,,,,yellow,circle
177.0,3.0,2.0,0.0,2.0,2.0,253.8558730002478,4.0,1.0,phase_1,,,,,,,,,,,,,orange,flipped triangle
414.0,8.0,4.0,1.0,4.0,4.0,233.0316709999351,4.0,1.0,phase_1,,,,,,,,,,,,,yellow,circle
0.0,1.0,0.0,0.0,3.0,3.0,312.0564789996933,4.0,1.0,phase_1,,,,,,,,,,,,,blue,I
209.0,3.0,2.0,0.0,2.0,2.0,251.4981109998189,4.0,1.0,phase_1,,,,,,,,,,,,,orange,flipped triangle
104.0,2.0,1.0,0.0,3.0,3.0,371.5194920000613,4.0,1.0,phase_1,,,,,,,,,,,,,gray,hexagon
417.0,4.0,4.0,0.0,2.0,2.0,286.5383620001012,4.0,1.0,phase_1,,,,,,,,,,,,,cyan,diamond
114.0,6.0,1.0,1.0,3.0,3.0,257.2249069999088,4.0,1.0,phase_1,,,,,,,,,,,,,magenta,cross
179.0,3.0,2.0,0.0,2.0,2.0,244.6702980000736,4.0,1.0,phase_1,,,,,,,,,,,,,orange,flipped triangle
0.0,1.0,0.0,0.0,4.0,4.0,276.26374700003,4.0,1.0,phase_1,,,,,,,,,,,,,blue,I
201.0,7.0,2.0,1.0,3.0,3.0,274.2177789996276,4.0,1.0,phase_1,,,,,,,,,,,,,green,triangle
88.0,6.0,1.0,1.0,2.0,2.0,266.5183560002333,4.0,1.0,phase_1,,,,,,,,,,,,,magenta,cross
388.0,8.0,4.0,1.0,2.0,2.0,331.7212060001111,4.0,1.0,phase_1,,,,,,,,,,,,,yellow,circle
42.0,5.0,0.5,1.0,1.0,1.0,314.7779910000281,4.0,1.0,phase_1,,,,,,,,,,,,,white,square
193.0,3.0,2.0,0.0,3.0,3.0,276.5362209997875,4.0,1.0,phase_1,,,,,,,,,,,,,orange,flipped triangle
51.0,5.0,0.5,1.0,2.0,2.0,255.6077980002555,4.0,1.0,phase_1,,,,,,,,,,,,,white,square
99.0,2.0,1.0,0.0,2.0,2.0,252.0045129999744,4.0,1.0,phase_1,,,,,,,,,,,,,gray,hexagon
208.0,7.0,2.0,1.0,2.0,2.0,294.8331870002221,4.0,1.0,phase_1,,,,,,,,,,,,,green,triangle
410.0,8.0,4.0,1.0,3.0,3.0,321.8779379999432,4.0,1.0,phase_1,,,,,,,,,,,,,yellow,circle
104.0,2.0,1.0,0.0,1.0,1.0,382.4728909999066,4.0,1.0,phase_1,,,,,,,,,,,,,gray,hexagon
74.0,1.0,0.5,0.0,3.0,3.0,311.9478600001457,4.0,1.0,phase_1,,,,,,,,,,,,,blue,I
211.0,3.0,2.0,0.0,3.0,3.0,323.5746700001982,4.0,1.0,phase_1,,,,,,,,,,,,,orange,flipped triangle
0.0,7.0,0.0,1.0,4.0,4.0,279.803075000018,4.0,1.0,phase_1,,,,,,,,,,,,,green,triangle
204.0,3.0,2.0,0.0,3.0,3.0,285.5871130000196,4.0,1.0,phase_1,,,,,,,,,,,,,orange,flipped triangle
111.0,2.0,1.0,0.0,3.0,3.0,295.627326000158,4.0,1.0,phase_1,,,,,,,,,,,,,gray,hexagon
92.0,2.0,1.0,0.0,3.0,3.0,283.4657540001899,4.0,1.0,phase_1,,,,,,,,,,,,,gray,hexagon
0.0,4.0,0.0,0.0,2.0,2.0,252.34470500026868,4.0,1.0,phase_1,,,,,,,,,,,,,cyan,diamond
0.0,8.0,4.0,1.0,6.0,6.0,348.6159550002412,1.0,1.0,phase_2,go,250.0,250.0,1.0,,,,,,,,,yellow,circle
0.0,6.0,1.0,1.0,5.0,0.0,0.0,1.0,1.0,phase_2,stop,250.0,250.0,4.0,,,,,,,,,magenta,cross
0.0,6.0,1.0,1.0,5.0,5.0,294.4203250003738,1.0,1.0,phase_2,stop,300.0,250.0,3.0,,,,,,,,,magenta,cross
0.0,5.0,0.5,1.0,6.0,6.0,441.1984499997743,1.0,1.0,phase_2,go,250.0,250.0,1.0,,,,,,,,,white,square
0.0,2.0,1.0,0.0,6.0,6.0,845.8986300001925,1.0,1.0,phase_2,go,250.0,250.0,1.0,,,,,,,,,gray,hexagon
0.0,5.0,0.5,1.0,5.0,0.0,0.0,1.0,1.0,phase_2,stop,250.0,250.0,4.0,,,,,,,,,white,square
0.0,5.0,0.5,1.0,5.0,5.0,402.7268250001725,1.0,1.0,phase_2,stop,300.0,250.0,3.0,,,,,,,,,white,square
0.0,6.0,1.0,1.0,6.0,0.0,0.0,1.0,1.0,phase_2,stop,250.0,250.0,4.0,,,,,,,,,magenta,cross
0.0,7.0,2.0,1.0,6.0,6.0,703.6351309998281,1.0,1.0,phase_2,go,250.0,300.0,1.0,,,,,,,,,green,triangle
0.0,7.0,2.0,1.0,6.0,0.0,0.0,1.0,1.0,phase_2,stop,250.0,300.0,4.0,,,,,,,,,green,triangle
0.0,1.0,0.5,0.0,5.0,5.0,499.1155079997043,1.0,1.0,phase_2,go,250.0,350.0,1.0,,,,,,,,,blue,I
0.0,2.0,1.0,0.0,5.0,5.0,762.5244690002546,1.0,1.0,phase_2,go,250.0,350.0,1.0,,,,,,,,,gray,hexagon
0.0,4.0,4.0,0.0,6.0,6.0,672.8730260001612,1.0,1.0,phase_2,go,250.0,350.0,1.0,,,,,,,,,cyan,diamond
0.0,8.0,4.0,1.0,5.0,0.0,0.0,1.0,1.0,phase_2,stop,250.0,350.0,4.0,,,,,,,,,yellow,circle
0.0,3.0,2.0,0.0,5.0,5.0,448.3277750000525,1.0,1.0,phase_2,go,300.0,350.0,1.0,,,,,,,,,orange,flipped triangle
0.0,6.0,1.0,1.0,5.0,5.0,741.4235219998773,1.0,1.0,phase_2,go,300.0,350.0,1.0,,,,,,,,,magenta,cross
0.0,1.0,0.5,0.0,6.0,6.0,482.1526919999996,1.0,1.0,phase_2,go,300.0,350.0,1.0,,,,,,,,,blue,I
0.0,4.0,4.0,0.0,6.0,6.0,747.5886280003579,1.0,1.0,phase_2,go,300.0,350.0,1.0,,,,,,,,,cyan,diamond
0.0,8.0,4.0,1.0,6.0,0.0,0.0,1.0,1.0,phase_2,stop,300.0,350.0,4.0,,,,,,,,,yellow,circle
0.0,2.0,1.0,0.0,6.0,6.0,316.9015729999955,1.0,1.0,phase_2,go,300.0,400.0,1.0,,,,,,,,,gray,hexagon
0.0,3.0,2.0,0.0,5.0,5.0,625.9469609999542,1.0,1.0,phase_2,go,300.0,400.0,1.0,,,,,,,,,orange,flipped triangle
0.0,2.0,1.0,0.0,6.0,6.0,752.1089199999551,1.0,1.0,phase_2,go,300.0,400.0,1.0,,,,,,,,,gray,hexagon
0.0,4.0,4.0,0.0,6.0,6.0,751.7877629998111,1.0,1.0,phase_2,go,300.0,400.0,1.0,,,,,,,,,cyan,diamond
0.0,1.0,0.5,0.0,5.0,5.0,476.8744089997199,1.0,1.0,phase_2,go,300.0,400.0,1.0,,,,,,,,,blue,I
0.0,3.0,2.0,0.0,6.0,6.0,610.7413119998455,1.0,1.0,phase_2,go,300.0,400.0,1.0,,,,,,,,,orange,flipped triangle
0.0,3.0,2.0,0.0,6.0,6.0,616.6381890002413,1.0,1.0,phase_2,go,300.0,400.0,1.0,,,,,,,,,orange,flipped triangle
0.0,6.0,1.0,1.0,5.0,5.0,402.7147709998644,1.0,1.0,phase_2,stop,300.0,400.0,3.0,,,,,,,,,magenta,cross
0.0,4.0,4.0,0.0,5.0,5.0,683.0210940001962,1.0,1.0,phase_2,go,250.0,400.0,1.0,,,,,,,,,cyan,diamond
0.0,8.0,4.0,1.0,5.0,5.0,372.3169459999553,1.0,1.0,phase_2,stop,250.0,400.0,3.0,,,,,,,,,yellow,circle
0.0,6.0,1.0,1.0,6.0,0.0,0.0,1.0,1.0,phase_2,stop,200.0,400.0,4.0,,,,,,,,,magenta,cross
0.0,7.0,2.0,1.0,6.0,6.0,440.6993289999263,1.0,1.0,phase_2,go,200.0,450.0,1.0,,,,,,,,,green,triangle
0.0,7.0,2.0,1.0,5.0,0.0,0.0,1.0,1.0,phase_2,stop,200.0,450.0,4.0,,,,,,,,,green,triangle
0.0,2.0,1.0,0.0,5.0,5.0,590.4297830002179,1.0,1.0,phase_2,go,250.0,450.0,1.0,,,,,,,,,gray,hexagon
0.0,5.0,0.5,1.0,5.0,0.0,0.0,1.0,1.0,phase_2,stop,250.0,450.0,4.0,,,,,,,,,white,square
0.0,7.0,2.0,1.0,5.0,5.0,369.0604270000222,1.0,1.0,phase_2,go,300.0,450.0,1.0,,,,,,,,,green,triangle
0.0,3.0,2.0,0.0,6.0,6.0,298.3064629997898,1.0,1.0,phase_2,go,300.0,450.0,1.0,,,,,,,,,orange,flipped triangle
0.0,8.0,4.0,1.0,6.0,6.0,429.6888799999578,2.0,1.0,phase_2,stop,300.0,450.0,3.0,,,,,,,,,yellow,circle
0.0,5.0,0.5,1.0,6.0,0.0,0.0,2.0,1.0,phase_2,stop,300.0,400.0,4.0,,,,,,,,,white,square
0.0,8.0,4.0,1.0,6.0,0.0,0.0,2.0,1.0,phase_2,stop,300.0,450.0,4.0,,,,,,,,,yellow,circle
0.0,1.0,0.5,0.0,5.0,5.0,555.9021849999226,2.0,1.0,phase_2,go,300.0,500.0,1.0,,,,,,,,,blue,I
0.0,3.0,2.0,0.0,6.0,6.0,675.224524999976,2.0,1.0,phase_2,go,300.0,500.0,1.0,,,,,,,,,orange,flipped triangle
0.0,5.0,0.5,1.0,5.0,5.0,331.1106620003556,2.0,1.0,phase_2,stop,300.0,500.0,3.0,,,,,,,,,white,square
0.0,2.0,1.0,0.0,5.0,5.0,607.7621449999242,2.0,1.0,phase_2,go,250.0,500.0,1.0,,,,,,,,,gray,hexagon
0.0,5.0,0.5,1.0,5.0,5.0,675.3631130000031,2.0,1.0,phase_2,go,250.0,500.0,1.0,,,,,,,,,white,square
0.0,3.0,2.0,0.0,6.0,6.0,539.7485210000923,2.0,1.0,phase_2,go,250.0,500.0,1.0,,,,,,,,,orange,flipped triangle
0.0,1.0,0.5,0.0,6.0,6.0,610.3408250000939,2.0,1.0,phase_2,go,250.0,500.0,1.0,,,,,,,,,blue,I
0.0,6.0,1.0,1.0,6.0,6.0,480.805328000315,2.0,1.0,phase_2,stop,250.0,500.0,3.0,,,,,,,,,magenta,cross
0.0,7.0,2.0,1.0,6.0,6.0,582.1128610000414,2.0,1.0,phase_2,stop,250.0,450.0,3.0,,,,,,,,,green,triangle
0.0,6.0,1.0,1.0,6.0,6.0,733.7933610001528,2.0,1.0,phase_2,go,250.0,400.0,1.0,,,,,,,,,magenta,cross
0.0,1.0,0.5,0.0,6.0,6.0,755.1826270000674,2.0,1.0,phase_2,go,250.0,400.0,1.0,,,,,,,,,blue,I
0.0,7.0,2.0,1.0,6.0,0.0,0.0,2.0,1.0,phase_2,stop,250.0,400.0,4.0,,,,,,,,,green,triangle
0.0,4.0,4.0,0.0,5.0,5.0,586.8917829998281,2.0,1.0,phase_2,go,250.0,450.0,1.0,,,,,,,,,cyan,diamond
0.0,1.0,0.5,0.0,5.0,5.0,710.7377779998387,2.0,1.0,phase_2,go,250.0,450.0,1.0,,,,,,,,,blue,I
0.0,4.0,4.0,0.0,5.0,5.0,553.4406030001264,2.0,1.0,phase_2,go,250.0,450.0,1.0,,,,,,,,,cyan,diamond
0.0,1.0,0.5,0.0,5.0,5.0,629.8216130003311,2.0,1.0,phase_2,go,250.0,450.0,1.0,,,,,,,,,blue,I
0.0,4.0,4.0,0.0,6.0,6.0,570.2976110001146,2.0,1.0,phase_2,go,250.0,450.0,1.0,,,,,,,,,cyan,diamond
0.0,2.0,1.0,0.0,5.0,5.0,615.3492540001935,2.0,1.0,phase_2,go,250.0,450.0,1.0,,,,,,,,,gray,hexagon
0.0,8.0,4.0,1.0,6.0,6.0,308.2320440003059,2.0,1.0,phase_2,stop,250.0,450.0,3.0,,,,,,,,,yellow,circle
0.0,8.0,4.0,1.0,6.0,0.0,0.0,2.0,1.0,phase_2,stop,250.0,400.0,4.0,,,,,,,,,yellow,circle
0.0,3.0,2.0,0.0,6.0,6.0,637.7886559998842,2.0,1.0,phase_2,go,250.0,450.0,1.0,,,,,,,,,orange,flipped triangle
0.0,4.0,4.0,0.0,5.0,5.0,452.8143840002485,2.0,1.0,phase_2,go,250.0,450.0,1.0,,,,,,,,,cyan,diamond
0.0,7.0,2.0,1.0,5.0,5.0,367.3628930000632,2.0,1.0,phase_2,go,250.0,450.0,1.0,,,,,,,,,green,triangle
0.0,1.0,0.5,0.0,5.0,5.0,365.1179630001024,2.0,1.0,phase_2,go,250.0,450.0,1.0,,,,,,,,,blue,I
0.0,2.0,1.0,0.0,6.0,6.0,543.5479790003228,2.0,1.0,phase_2,go,250.0,450.0,1.0,,,,,,,,,gray,hexagon
0.0,1.0,0.5,0.0,6.0,6.0,487.0974899999964,2.0,1.0,phase_2,go,250.0,450.0,1.0,,,,,,,,,blue,I
0.0,8.0,4.0,1.0,5.0,5.0,301.7283469998801,2.0,1.0,phase_2,stop,250.0,450.0,3.0,,,,,,,,,yellow,circle
0.0,1.0,0.5,0.0,5.0,5.0,540.5257120000897,2.0,1.0,phase_2,go,200.0,450.0,1.0,,,,,,,,,blue,I
0.0,3.0,2.0,0.0,6.0,6.0,455.4523219999282,2.0,1.0,phase_2,go,200.0,450.0,1.0,,,,,,,,,orange,flipped triangle
0.0,3.0,2.0,0.0,6.0,6.0,390.4565429998001,2.0,1.0,phase_2,go,200.0,450.0,1.0,,,,,,,,,orange,flipped triangle
0.0,3.0,2.0,0.0,5.0,5.0,414.3782090000059,2.0,1.0,phase_2,go,200.0,450.0,1.0,,,,,,,,,orange,flipped triangle
0.0,1.0,0.5,0.0,6.0,6.0,559.3987319998632,2.0,1.0,phase_2,go,200.0,450.0,1.0,,,,,,,,,blue,I
0.0,1.0,0.5,0.0,5.0,5.0,397.5262839999232,2.0,1.0,phase_2,go,200.0,450.0,1.0,,,,,,,,,blue,I
0.0,7.0,2.0,1.0,6.0,6.0,580.4811610000797,3.0,1.0,phase_2,stop,200.0,450.0,3.0,,,,,,,,,green,triangle
0.0,4.0,4.0,0.0,5.0,5.0,541.2639239998498,3.0,1.0,phase_2,go,200.0,400.0,1.0,,,,,,,,,cyan,diamond
0.0,2.0,1.0,0.0,6.0,6.0,453.9463789997171,3.0,1.0,phase_2,go,200.0,400.0,1.0,,,,,,,,,gray,hexagon
0.0,5.0,0.5,1.0,6.0,6.0,318.0269860004046,3.0,1.0,phase_2,stop,200.0,400.0,3.0,,,,,,,,,white,square
0.0,6.0,1.0,1.0,5.0,0.0,0.0,3.0,1.0,phase_2,stop,200.0,350.0,4.0,,,,,,,,,magenta,cross
0.0,8.0,4.0,1.0,5.0,0.0,0.0,3.0,1.0,phase_2,stop,250.0,350.0,4.0,,,,,,,,,yellow,circle
0.0,4.0,4.0,0.0,6.0,6.0,583.393862000321,3.0,1.0,phase_2,go,300.0,350.0,1.0,,,,,,,,,cyan,diamond
0.0,4.0,4.0,0.0,6.0,6.0,282.9505690001497,3.0,1.0,phase_2,go,300.0,350.0,1.0,,,,,,,,,cyan,diamond
0.0,3.0,2.0,0.0,5.0,5.0,479.8345229996812,3.0,1.0,phase_2,go,300.0,350.0,1.0,,,,,,,,,orange,flipped triangle
0.0,7.0,2.0,1.0,5.0,5.0,374.0809939999963,3.0,1.0,phase_2,stop,300.0,350.0,3.0,,,,,,,,,green,triangle
0.0,8.0,4.0,1.0,6.0,6.0,275.4891150002549,3.0,1.0,phase_2,stop,250.0,350.0,3.0,,,,,,,,,yellow,circle
0.0,6.0,1.0,1.0,5.0,0.0,0.0,3.0,1.0,phase_2,stop,250.0,300.0,4.0,,,,,,,,,magenta,cross
0.0,6.0,1.0,1.0,6.0,6.0,640.7100390001688,3.0,1.0,phase_2,go,300.0,300.0,1.0,,,,,,,,,magenta,cross
0.0,7.0,2.0,1.0,5.0,0.0,0.0,3.0,1.0,phase_2,stop,300.0,300.0,4.0,,,,,,,,,green,triangle
0.0,7.0,2.0,1.0,5.0,0.0,0.0,3.0,1.0,phase_2,stop,350.0,300.0,4.0,,,,,,,,,green,triangle
0.0,8.0,4.0,1.0,6.0,6.0,901.812498000254,3.0,1.0,phase_2,go,400.0,300.0,1.0,,,,,,,,,yellow,circle
0.0,5.0,0.5,1.0,6.0,0.0,0.0,3.0,1.0,phase_2,stop,400.0,300.0,4.0,,,,,,,,,white,square
0.0,4.0,4.0,0.0,6.0,6.0,609.2301399999087,3.0,1.0,phase_2,go,400.0,350.0,1.0,,,,,,,,,cyan,diamond
0.0,1.0,0.5,0.0,5.0,5.0,561.3943240000481,3.0,1.0,phase_2,go,400.0,350.0,1.0,,,,,,,,,blue,I
0.0,7.0,2.0,1.0,5.0,5.0,341.8609900004412,3.0,1.0,phase_2,stop,400.0,350.0,3.0,,,,,,,,,green,triangle
0.0,2.0,1.0,0.0,5.0,5.0,517.1234310000727,3.0,1.0,phase_2,go,350.0,350.0,1.0,,,,,,,,,gray,hexagon
0.0,1.0,0.5,0.0,6.0,6.0,436.9735589998527,3.0,1.0,phase_2,go,350.0,350.0,1.0,,,,,,,,,blue,I
0.0,3.0,2.0,0.0,6.0,6.0,417.4270080002316,3.0,1.0,phase_2,go,350.0,350.0,1.0,,,,,,,,,orange,flipped triangle
0.0,3.0,2.0,0.0,5.0,5.0,632.5704890000452,3.0,1.0,phase_2,go,350.0,350.0,1.0,,,,,,,,,orange,flipped triangle
0.0,6.0,1.0,1.0,6.0,0.0,0.0,3.0,1.0,phase_2,stop,350.0,350.0,4.0,,,,,,,,,magenta,cross
0.0,1.0,0.5,0.0,6.0,6.0,501.71238099983384,3.0,1.0,phase_2,go,350.0,400.0,1.0,,,,,,,,,blue,I
0.0,4.0,4.0,0.0,5.0,5.0,503.2779469997877,3.0,1.0,phase_2,go,350.0,400.0,1.0,,,,,,,,,cyan,diamond
0.0,1.0,0.5,0.0,6.0,6.0,536.4855299999363,3.0,1.0,phase_2,go,350.0,400.0,1.0,,,,,,,,,blue,I
0.0,8.0,4.0,1.0,6.0,0.0,0.0,3.0,1.0,phase_2,stop,350.0,400.0,4.0,,,,,,,,,yellow,circle
0.0,4.0,4.0,0.0,5.0,5.0,382.8980509997564,3.0,1.0,phase_2,go,350.0,450.0,1.0,,,,,,,,,cyan,diamond
0.0,8.0,4.0,1.0,6.0,0.0,0.0,3.0,1.0,phase_2,stop,350.0,450.0,4.0,,,,,,,,,yellow,circle
0.0,8.0,4.0,1.0,5.0,0.0,0.0,3.0,1.0,phase_2,stop,350.0,500.0,4.0,,,,,,,,,yellow,circle
0.0,7.0,2.0,1.0,5.0,0.0,0.0,3.0,1.0,phase_2,stop,400.0,500.0,4.0,,,,,,,,,green,triangle
0.0,3.0,2.0,0.0,5.0,5.0,501.4284180001596,3.0,1.0,phase_2,go,450.0,500.0,1.0,,,,,,,,,orange,flipped triangle
0.0,4.0,4.0,0.0,6.0,6.0,603.6388000002262,3.0,1.0,phase_2,go,450.0,500.0,1.0,,,,,,,,,cyan,diamond
0.0,5.0,0.5,1.0,6.0,6.0,602.7122660002533,3.0,1.0,phase_2,stop,450.0,500.0,3.0,,,,,,,,,white,square
0.0,1.0,0.5,0.0,6.0,6.0,936.6245209998852,4.0,1.0,phase_2,go,450.0,450.0,1.0,,,,,,,,,blue,I
0.0,7.0,2.0,1.0,5.0,5.0,875.7470949999515,4.0,1.0,phase_2,go,450.0,450.0,1.0,,,,,,,,,green,triangle
0.0,2.0,1.0,0.0,6.0,6.0,554.73264200009,4.0,1.0,phase_2,go,450.0,450.0,1.0,,,,,,,,,gray,hexagon
0.0,5.0,0.5,1.0,6.0,6.0,292.270986999938,4.0,1.0,phase_2,stop,450.0,450.0,3.0,,,,,,,,,white,square
0.0,5.0,0.5,1.0,6.0,6.0,319.3513369997163,4.0,1.0,phase_2,stop,450.0,400.0,3.0,,,,,,,,,white,square
0.0,4.0,4.0,0.0,6.0,6.0,634.9642860000131,4.0,1.0,phase_2,go,450.0,350.0,1.0,,,,,,,,,cyan,diamond
0.0,4.0,4.0,0.0,5.0,5.0,363.9135600001282,4.0,1.0,phase_2,go,450.0,350.0,1.0,,,,,,,,,cyan,diamond
0.0,7.0,2.0,1.0,6.0,6.0,639.090670999849,4.0,1.0,phase_2,go,450.0,350.0,1.0,,,,,,,,,green,triangle
0.0,7.0,2.0,1.0,6.0,0.0,0.0,4.0,1.0,phase_2,stop,450.0,350.0,4.0,,,,,,,,,green,triangle
0.0,5.0,0.5,1.0,6.0,0.0,0.0,4.0,1.0,phase_2,stop,450.0,400.0,4.0,,,,,,,,,white,square
0.0,8.0,4.0,1.0,6.0,0.0,0.0,4.0,1.0,phase_2,stop,450.0,450.0,4.0,,,,,,,,,yellow,circle
0.0,3.0,2.0,0.0,5.0,5.0,673.2344739998553,4.0,1.0,phase_2,go,450.0,500.0,1.0,,,,,,,,,orange,flipped triangle
0.0,5.0,0.5,1.0,6.0,0.0,0.0,4.0,1.0,phase_2,stop,450.0,500.0,4.0,,,,,,,,,white,square
0.0,3.0,2.0,0.0,6.0,6.0,551.2465179999708,4.0,1.0,phase_2,go,450.0,550.0,1.0,,,,,,,,,orange,flipped triangle
0.0,1.0,0.5,0.0,6.0,6.0,535.819346000153,4.0,1.0,phase_2,go,450.0,550.0,1.0,,,,,,,,,blue,I
0.0,5.0,0.5,1.0,6.0,6.0,587.0825010001681,4.0,1.0,phase_2,stop,450.0,550.0,3.0,,,,,,,,,white,square
0.0,2.0,1.0,0.0,6.0,6.0,536.6090459997395,4.0,1.0,phase_2,go,450.0,500.0,1.0,,,,,,,,,gray,hexagon
0.0,5.0,0.5,1.0,5.0,0.0,0.0,4.0,1.0,phase_2,stop,450.0,500.0,4.0,,,,,,,,,white,square
0.0,2.0,1.0,0.0,6.0,6.0,666.0462939998979,4.0,1.0,phase_2,go,500.0,500.0,1.0,,,,,,,,,gray,hexagon
0.0,7.0,2.0,1.0,6.0,0.0,0.0,4.0,1.0,phase_2,stop,500.0,500.0,4.0,,,,,,,,,green,triangle
0.0,2.0,1.0,0.0,5.0,5.0,577.6746440001261,4.0,1.0,phase_2,go,500.0,550.0,1.0,,,,,,,,,gray,hexagon
0.0,7.0,2.0,1.0,6.0,6.0,723.4393429998818,4.0,1.0,phase_2,stop,500.0,550.0,3.0,,,,,,,,,green,triangle
0.0,8.0,4.0,1.0,6.0,0.0,0.0,4.0,1.0,phase_2,stop,500.0,500.0,4.0,,,,,,,,,yellow,circle
0.0,2.0,1.0,0.0,5.0,5.0,585.271819999889,4.0,1.0,phase_2,go,500.0,550.0,1.0,,,,,,,,,gray,hexagon
0.0,5.0,0.5,1.0,5.0,0.0,0.0,4.0,1.0,phase_2,stop,500.0,550.0,4.0,,,,,,,,,white,square
0.0,3.0,2.0,0.0,5.0,5.0,559.8938759999328,4.0,1.0,phase_2,go,550.0,550.0,1.0,,,,,,,,,orange,flipped triangle
0.0,2.0,1.0,0.0,6.0,6.0,580.7624850003776,4.0,1.0,phase_2,go,550.0,550.0,1.0,,,,,,,,,gray,hexagon
0.0,5.0,0.5,1.0,5.0,0.0,0.0,4.0,1.0,phase_2,stop,550.0,550.0,4.0,,,,,,,,,white,square
0.0,7.0,2.0,1.0,5.0,0.0,0.0,4.0,1.0,phase_2,stop,600.0,550.0,4.0,,,,,,,,,green,triangle
0.0,5.0,0.5,1.0,5.0,5.0,1060.420674999932,4.0,1.0,phase_2,go,650.0,550.0,1.0,,,,,,,,,white,square
0.0,4.0,4.0,0.0,6.0,6.0,674.437461999787,4.0,1.0,phase_2,go,650.0,550.0,1.0,,,,,,,,,cyan,diamond
0.0,5.0,0.5,1.0,5.0,5.0,744.3862559998706,4.0,1.0,phase_2,go,650.0,550.0,1.0,,,,,,,,,white,square
0.0,4.0,4.0,0.0,6.0,6.0,672.7298089999749,4.0,1.0,phase_2,go,650.0,550.0,1.0,,,,,,,,,cyan,diamond
0.0,5.0,0.5,1.0,6.0,6.0,699.689753000257,4.0,1.0,phase_2,stop,650.0,550.0,3.0,,,,,,,,,white,square
0.0,7.0,2.0,1.0,6.0,0.0,0.0,4.0,1.0,phase_2,stop,650.0,500.0,4.0,,,,,,,,,green,triangle
0.0,3.0,2.0,0.0,5.0,5.0,571.3396099999954,4.0,1.0,phase_2,go,650.0,550.0,1.0,,,,,,,,,orange,flipped triangle
0.0,6.0,1.0,1.0,5.0,5.0,844.0898889998607,5.0,1.0,phase_2,go,650.0,550.0,1.0,,,,,,,,,magenta,cross
0.0,6.0,1.0,1.0,6.0,6.0,536.7834710000352,5.0,1.0,phase_2,stop,650.0,550.0,3.0,,,,,,,,,magenta,cross
0.0,3.0,2.0,0.0,5.0,5.0,616.0224059999564,5.0,1.0,phase_2,go,650.0,500.0,1.0,,,,,,,,,orange,flipped triangle
0.0,4.0,4.0,0.0,5.0,5.0,332.0161550000193,5.0,1.0,phase_2,go,650.0,500.0,1.0,,,,,,,,,cyan,diamond
0.0,1.0,0.5,0.0,6.0,6.0,435.2570010000818,5.0,1.0,phase_2,go,650.0,500.0,1.0,,,,,,,,,blue,I
0.0,7.0,2.0,1.0,6.0,0.0,0.0,5.0,1.0,phase_2,stop,650.0,500.0,4.0,,,,,,,,,green,triangle
0.0,5.0,0.5,1.0,5.0,5.0,600.876242999675,5.0,1.0,phase_2,go,650.0,550.0,1.0,,,,,,,,,white,square
0.0,7.0,2.0,1.0,5.0,0.0,0.0,5.0,1.0,phase_2,stop,650.0,550.0,4.0,,,,,,,,,green,triangle
0.0,8.0,4.0,1.0,5.0,0.0,0.0,5.0,1.0,phase_2,stop,700.0,550.0,4.0,,,,,,,,,yellow,circle
0.0,1.0,0.5,0.0,5.0,5.0,586.443471000166,5.0,1.0,phase_2,go,750.0,550.0,1.0,,,,,,,,,blue,I
0.0,7.0,2.0,1.0,5.0,0.0,0.0,5.0,1.0,phase_2,stop,750.0,550.0,4.0,,,,,,,,,green,triangle
0.0,6.0,1.0,1.0,6.0,0.0,0.0,5.0,1.0,phase_2,stop,800.0,550.0,4.0,,,,,,,,,magenta,cross
0.0,5.0,0.5,1.0,5.0,5.0,737.3959189999368,5.0,1.0,phase_2,go,800.0,600.0,1.0,,,,,,,,,white,square
0.0,2.0,1.0,0.0,5.0,5.0,545.5102010000701,5.0,1.0,phase_2,go,800.0,600.0,1.0,,,,,,,,,gray,hexagon
0.0,5.0,0.5,1.0,5.0,5.0,833.7014170001567,5.0,1.0,phase_2,stop,800.0,600.0,3.0,,,,,,,,,white,square
0.0,4.0,4.0,0.0,5.0,5.0,511.13126100017325,5.0,1.0,phase_2,go,750.0,600.0,1.0,,,,,,,,,cyan,diamond
0.0,2.0,1.0,0.0,6.0,6.0,486.5745700003572,5.0,1.0,phase_2,go,750.0,600.0,1.0,,,,,,,,,gray,hexagon
0.0,4.0,4.0,0.0,6.0,6.0,416.7525640000349,5.0,1.0,phase_2,go,750.0,600.0,1.0,,,,,,,,,cyan,diamond
0.0,7.0,2.0,1.0,5.0,0.0,0.0,5.0,1.0,phase_2,stop,750.0,600.0,4.0,,,,,,,,,green,triangle
0.0,6.0,1.0,1.0,6.0,0.0,0.0,5.0,1.0,phase_2,stop,800.0,600.0,4.0,,,,,,,,,magenta,cross
0.0,2.0,1.0,0.0,6.0,6.0,442.3682019996704,5.0,1.0,phase_2,go,800.0,650.0,1.0,,,,,,,,,gray,hexagon
0.0,8.0,4.0,1.0,5.0,0.0,0.0,5.0,1.0,phase_2,stop,800.0,650.0,4.0,,,,,,,,,yellow,circle
0.0,5.0,0.5,1.0,6.0,0.0,0.0,5.0,1.0,phase_2,stop,850.0,650.0,4.0,,,,,,,,,white,square
0.0,1.0,0.5,0.0,5.0,5.0,429.548805000195,5.0,1.0,phase_2,go,850.0,700.0,1.0,,,,,,,,,blue,I
0.0,5.0,0.5,1.0,5.0,5.0,1000.3474949999145,5.0,1.0,phase_2,stop,850.0,700.0,3.0,,,,,,,,,white,square
0.0,2.0,1.0,0.0,5.0,5.0,519.8221990003731,5.0,1.0,phase_2,go,800.0,700.0,1.0,,,,,,,,,gray,hexagon
0.0,6.0,1.0,1.0,5.0,0.0,0.0,5.0,1.0,phase_2,stop,800.0,700.0,4.0,,,,,,,,,magenta,cross
0.0,8.0,4.0,1.0,6.0,0.0,0.0,5.0,1.0,phase_2,stop,850.0,700.0,4.0,,,,,,,,,yellow,circle
0.0,1.0,0.5,0.0,6.0,6.0,422.368471000027,5.0,1.0,phase_2,go,850.0,750.0,1.0,,,,,,,,,blue,I
0.0,8.0,4.0,1.0,5.0,5.0,970.7057300001908,5.0,1.0,phase_2,go,850.0,750.0,1.0,,,,,,,,,yellow,circle
0.0,8.0,4.0,1.0,5.0,5.0,904.4585329997972,5.0,1.0,phase_2,go,850.0,750.0,1.0,,,,,,,,,yellow,circle
0.0,8.0,4.0,1.0,5.0,5.0,934.2552999996768,5.0,1.0,phase_2,stop,850.0,750.0,3.0,,,,,,,,,yellow,circle
0.0,2.0,1.0,0.0,6.0,6.0,526.3505140001143,5.0,1.0,phase_2,go,800.0,750.0,1.0,,,,,,,,,gray,hexagon
0.0,3.0,2.0,0.0,6.0,6.0,742.1359830000256,5.0,1.0,phase_2,go,800.0,750.0,1.0,,,,,,,,,orange,flipped triangle
0.0,3.0,2.0,0.0,6.0,6.0,347.7674650002882,5.0,1.0,phase_2,go,800.0,750.0,1.0,,,,,,,,,orange,flipped triangle
0.0,3.0,2.0,0.0,6.0,6.0,1288.0409859999418,5.0,1.0,phase_2,go,800.0,750.0,1.0,,,,,,,,,orange,flipped triangle
0.0,7.0,2.0,1.0,6.0,6.0,592.1795160002148,6.0,1.0,phase_2,stop,800.0,750.0,3.0,,,,,,,,,green,triangle
0.0,3.0,2.0,0.0,6.0,6.0,494.2456680000759,6.0,1.0,phase_2,go,800.0,700.0,1.0,,,,,,,,,orange,flipped triangle
0.0,1.0,0.5,0.0,5.0,5.0,394.2381760002718,6.0,1.0,phase_2,go,800.0,700.0,1.0,,,,,,,,,blue,I
0.0,3.0,2.0,0.0,5.0,5.0,392.0961849999003,6.0,1.0,phase_2,go,800.0,700.0,1.0,,,,,,,,,orange,flipped triangle
0.0,8.0,4.0,1.0,5.0,5.0,1035.4320480000752,6.0,1.0,phase_2,go,800.0,700.0,1.0,,,,,,,,,yellow,circle
0.0,5.0,0.5,1.0,6.0,6.0,411.672875000022,6.0,1.0,phase_2,stop,800.0,700.0,3.0,,,,,,,,,white,square
0.0,4.0,4.0,0.0,5.0,5.0,427.1452819998558,6.0,1.0,phase_2,go,800.0,650.0,1.0,,,,,,,,,cyan,diamond
0.0,4.0,4.0,0.0,5.0,5.0,472.4441550001756,6.0,1.0,phase_2,go,800.0,650.0,1.0,,,,,,,,,cyan,diamond
0.0,2.0,1.0,0.0,6.0,6.0,495.4318640002384,6.0,1.0,phase_2,go,800.0,650.0,1.0,,,,,,,,,gray,hexagon
0.0,5.0,0.5,1.0,6.0,6.0,965.9062470000208,6.0,1.0,phase_2,go,800.0,650.0,1.0,,,,,,,,,white,square
0.0,2.0,1.0,0.0,5.0,5.0,464.7871500001201,6.0,1.0,phase_2,go,800.0,650.0,1.0,,,,,,,,,gray,hexagon
0.0,4.0,4.0,0.0,6.0,6.0,372.5457939999614,6.0,1.0,phase_2,go,800.0,650.0,1.0,,,,,,,,,cyan,diamond
0.0,6.0,1.0,1.0,6.0,6.0,734.4129890002478,6.0,1.0,phase_2,stop,800.0,650.0,3.0,,,,,,,,,magenta,cross
0.0,1.0,0.5,0.0,5.0,5.0,376.8277220001437,6.0,1.0,phase_2,go,800.0,600.0,1.0,,,,,,,,,blue,I
0.0,6.0,1.0,1.0,5.0,0.0,0.0,6.0,1.0,phase_2,stop,800.0,600.0,4.0,,,,,,,,,magenta,cross
0.0,3.0,2.0,0.0,5.0,5.0,446.2768449998293,6.0,1.0,phase_2,go,850.0,600.0,1.0,,,,,,,,,orange,flipped triangle
0.0,8.0,4.0,1.0,5.0,0.0,0.0,6.0,1.0,phase_2,stop,850.0,600.0,4.0,,,,,,,,,yellow,circle
0.0,6.0,1.0,1.0,5.0,5.0,1453.22897799997,6.0,1.0,phase_2,go,900.0,600.0,1.0,,,,,,,,,magenta,cross
0.0,8.0,4.0,1.0,6.0,6.0,584.9386429999868,6.0,1.0,phase_2,stop,900.0,600.0,3.0,,,,,,,,,yellow,circle
0.0,2.0,1.0,0.0,6.0,6.0,478.9111949999096,6.0,1.0,phase_2,go,900.0,550.0,1.0,,,,,,,,,gray,hexagon
0.0,1.0,0.5,0.0,6.0,6.0,328.059248000045,6.0,1.0,phase_2,go,900.0,550.0,1.0,,,,,,,,,blue,I
0.0,6.0,1.0,1.0,5.0,5.0,356.9417669996255,6.0,1.0,phase_2,stop,900.0,550.0,3.0,,,,,,,,,magenta,cross
0.0,6.0,1.0,1.0,6.0,0.0,0.0,6.0,1.0,phase_2,stop,850.0,550.0,4.0,,,,,,,,,magenta,cross
0.0,3.0,2.0,0.0,6.0,6.0,422.8550610000638,6.0,1.0,phase_2,go,850.0,600.0,1.0,,,,,,,,,orange,flipped triangle
0.0,6.0,1.0,1.0,6.0,0.0,0.0,6.0,1.0,phase_2,stop,850.0,600.0,4.0,,,,,,,,,magenta,cross
0.0,6.0,1.0,1.0,5.0,5.0,1006.4474699997843,6.0,1.0,phase_2,stop,850.0,650.0,3.0,,,,,,,,,magenta,cross
0.0,7.0,2.0,1.0,5.0,5.0,661.9692409999516,6.0,1.0,phase_2,go,800.0,650.0,1.0,,,,,,,,,green,triangle
0.0,7.0,2.0,1.0,6.0,6.0,267.8496089997679,6.0,1.0,phase_2,go,800.0,650.0,1.0,,,,,,,,,green,triangle
0.0,1.0,0.5,0.0,6.0,6.0,361.8389180001031,6.0,1.0,phase_2,go,800.0,650.0,1.0,,,,,,,,,blue,I
0.0,6.0,1.0,1.0,5.0,0.0,0.0,6.0,1.0,phase_2,stop,800.0,650.0,4.0,,,,,,,,,magenta,cross
0.0,6.0,1.0,1.0,5.0,0.0,0.0,6.0,1.0,phase_2,stop,850.0,650.0,4.0,,,,,,,,,magenta,cross
0.0,3.0,2.0,0.0,5.0,5.0,491.7064880000907,6.0,1.0,phase_2,go,900.0,650.0,1.0,,,,,,,,,orange,flipped triangle
0.0,5.0,0.5,1.0,5.0,5.0,591.4957710001545,6.0,1.0,phase_2,go,900.0,650.0,1.0,,,,,,,,,white,square
0.0,8.0,4.0,1.0,5.0,0.0,0.0,6.0,1.0,phase_2,stop,900.0,650.0,4.0,,,,,,,,,yellow,circle
0.0,8.0,4.0,1.0,5.0,5.0,772.2005390000959,6.0,1.0,phase_2,stop,950.0,650.0,3.0,,,,,,,,,yellow,circle
0.0,2.0,1.0,0.0,6.0,6.0,476.3065090000964,6.0,1.0,phase_2,go,900.0,650.0,1.0,,,,,,,,,gray,hexagon
0.0,8.0,4.0,1.0,6.0,6.0,919.9843870001132,7.0,1.0,phase_2,go,900.0,650.0,1.0,,,,,,,,,yellow,circle
0.0,5.0,0.5,1.0,5.0,5.0,796.2695420001182,7.0,1.0,phase_2,stop,900.0,650.0,3.0,,,,,,,,,white,square
0.0,6.0,1.0,1.0,6.0,6.0,392.5650900000619,7.0,1.0,phase_2,stop,850.0,650.0,3.0,,,,,,,,,magenta,cross
0.0,5.0,0.5,1.0,5.0,5.0,386.1216520003836,7.0,1.0,phase_2,stop,850.0,600.0,3.0,,,,,,,,,white,square
0.0,1.0,0.5,0.0,5.0,5.0,442.9723660000491,7.0,1.0,phase_2,go,800.0,600.0,1.0,,,,,,,,,blue,I
0.0,7.0,2.0,1.0,5.0,5.0,833.2129909999821,7.0,1.0,phase_2,go,800.0,600.0,1.0,,,,,,,,,green,triangle
0.0,7.0,2.0,1.0,6.0,6.0,723.0111040003067,7.0,1.0,phase_2,stop,800.0,600.0,3.0,,,,,,,,,green,triangle
0.0,1.0,0.5,0.0,6.0,6.0,456.6206270001203,7.0,1.0,phase_2,go,800.0,550.0,1.0,,,,,,,,,blue,I
0.0,7.0,2.0,1.0,5.0,5.0,700.4607489998307,7.0,1.0,phase_2,stop,800.0,550.0,3.0,,,,,,,,,green,triangle
0.0,8.0,4.0,1.0,5.0,0.0,0.0,7.0,1.0,phase_2,stop,750.0,550.0,4.0,,,,,,,,,yellow,circle
0.0,2.0,1.0,0.0,6.0,6.0,573.8205180000477,7.0,1.0,phase_2,go,800.0,550.0,1.0,,,,,,,,,gray,hexagon
0.0,2.0,1.0,0.0,5.0,5.0,599.9021019997599,7.0,1.0,phase_2,go,800.0,550.0,1.0,,,,,,,,,gray,hexagon
0.0,4.0,4.0,0.0,5.0,5.0,625.4863249996561,7.0,1.0,phase_2,go,800.0,550.0,1.0,,,,,,,,,cyan,diamond
0.0,3.0,2.0,0.0,5.0,5.0,399.8562000001584,7.0,1.0,phase_2,go,800.0,550.0,1.0,,,,,,,,,orange,flipped triangle
0.0,7.0,2.0,1.0,5.0,0.0,0.0,7.0,1.0,phase_2,stop,800.0,550.0,4.0,,,,,,,,,green,triangle
0.0,3.0,2.0,0.0,5.0,5.0,460.4233489999387,7.0,1.0,phase_2,go,850.0,550.0,1.0,,,,,,,,,orange,flipped triangle
0.0,1.0,0.5,0.0,5.0,5.0,454.1190630002347,7.0,1.0,phase_2,go,850.0,550.0,1.0,,,,,,,,,blue,I
0.0,4.0,4.0,0.0,6.0,6.0,485.7298500000979,7.0,1.0,phase_2,go,850.0,550.0,1.0,,,,,,,,,cyan,diamond
0.0,6.0,1.0,1.0,6.0,6.0,1291.0745379999753,7.0,1.0,phase_2,go,850.0,550.0,1.0,,,,,,,,,magenta,cross
0.0,5.0,0.5,1.0,6.0,6.0,587.0480379999208,7.0,1.0,phase_2,stop,850.0,550.0,3.0,,,,,,,,,white,square
0.0,6.0,1.0,1.0,6.0,6.0,1159.6799919998375,7.0,1.0,phase_2,go,850.0,500.0,1.0,,,,,,,,,magenta,cross
0.0,1.0,0.5,0.0,5.0,5.0,372.8031360001296,7.0,1.0,phase_2,go,850.0,500.0,1.0,,,,,,,,,blue,I
0.0,8.0,4.0,1.0,6.0,0.0,0.0,7.0,1.0,phase_2,stop,850.0,500.0,4.0,,,,,,,,,yellow,circle
0.0,7.0,2.0,1.0,5.0,5.0,404.3790460000309,7.0,1.0,phase_2,stop,850.0,550.0,3.0,,,,,,,,,green,triangle
0.0,1.0,0.5,0.0,5.0,5.0,401.5247600000293,7.0,1.0,phase_2,go,800.0,550.0,1.0,,,,,,,,,blue,I
0.0,6.0,1.0,1.0,5.0,5.0,837.8862849999678,7.0,1.0,phase_2,stop,800.0,550.0,3.0,,,,,,,,,magenta,cross
0.0,4.0,4.0,0.0,6.0,6.0,528.4370939998553,7.0,1.0,phase_2,go,750.0,550.0,1.0,,,,,,,,,cyan,diamond
0.0,1.0,0.5,0.0,5.0,5.0,363.72936700036,7.0,1.0,phase_2,go,750.0,550.0,1.0,,,,,,,,,blue,I
0.0,4.0,4.0,0.0,5.0,5.0,436.9329480000488,7.0,1.0,phase_2,go,750.0,550.0,1.0,,,,,,,,,cyan,diamond
0.0,2.0,1.0,0.0,5.0,5.0,490.3316599998106,7.0,1.0,phase_2,go,750.0,550.0,1.0,,,,,,,,,gray,hexagon
0.0,3.0,2.0,0.0,6.0,6.0,424.0999610001381,7.0,1.0,phase_2,go,750.0,550.0,1.0,,,,,,,,,orange,flipped triangle
0.0,3.0,2.0,0.0,6.0,6.0,392.3333379998439,7.0,1.0,phase_2,go,750.0,550.0,1.0,,,,,,,,,orange,flipped triangle
0.0,8.0,4.0,1.0,6.0,0.0,0.0,7.0,1.0,phase_2,stop,750.0,550.0,4.0,,,,,,,,,yellow,circle
0.0,3.0,2.0,0.0,5.0,5.0,432.3869859999831,7.0,1.0,phase_2,go,750.0,600.0,1.0,,,,,,,,,orange,flipped triangle
0.0,8.0,4.0,1.0,6.0,6.0,974.8115729998972,7.0,1.0,phase_2,go,750.0,600.0,1.0,,,,,,,,,yellow,circle
0.0,8.0,4.0,1.0,5.0,5.0,791.0448960001304,7.0,1.0,phase_2,stop,750.0,600.0,3.0,,,,,,,,,yellow,circle
0.0,4.0,4.0,0.0,6.0,6.0,722.7520090000326,8.0,1.0,phase_2,go,700.0,600.0,1.0,,,,,,,,,cyan,diamond
0.0,4.0,4.0,0.0,5.0,5.0,351.9364060002772,8.0,1.0,phase_2,go,700.0,600.0,1.0,,,,,,,,,cyan,diamond
0.0,5.0,0.5,1.0,5.0,5.0,326.2481729998399,8.0,1.0,phase_2,stop,700.0,600.0,3.0,,,,,,,,,white,square
0.0,2.0,1.0,0.0,5.0,5.0,404.6572970000852,8.0,1.0,phase_2,go,650.0,600.0,1.0,,,,,,,,,gray,hexagon
0.0,2.0,1.0,0.0,5.0,5.0,374.1529859998991,8.0,1.0,phase_2,go,650.0,600.0,1.0,,,,,,,,,gray,hexagon
0.0,5.0,0.5,1.0,6.0,6.0,276.6968330006421,8.0,1.0,phase_2,go,650.0,600.0,1.0,,,,,,,,,white,square
0.0,2.0,1.0,0.0,6.0,6.0,442.8004510000392,8.0,1.0,phase_2,go,650.0,600.0,1.0,,,,,,,,,gray,hexagon
0.0,4.0,4.0,0.0,5.0,5.0,615.5556849998902,8.0,1.0,phase_2,go,650.0,600.0,1.0,,,,,,,,,cyan,diamond
0.0,2.0,1.0,0.0,5.0,5.0,401.7874649998703,8.0,1.0,phase_2,go,650.0,600.0,1.0,,,,,,,,,gray,hexagon
0.0,8.0,4.0,1.0,5.0,5.0,1070.546810000451,8.0,1.0,phase_2,go,650.0,600.0,1.0,,,,,,,,,yellow,circle
0.0,4.0,4.0,0.0,6.0,6.0,602.4720260002141,8.0,1.0,phase_2,go,650.0,600.0,1.0,,,,,,,,,cyan,diamond
0.0,4.0,4.0,0.0,5.0,5.0,278.6850110005616,8.0,1.0,phase_2,go,650.0,600.0,1.0,,,,,,,,,cyan,diamond
0.0,6.0,1.0,1.0,6.0,6.0,641.4825829997426,8.0,1.0,phase_2,stop,650.0,600.0,3.0,,,,,,,,,magenta,cross
0.0,1.0,0.5,0.0,6.0,6.0,445.6491279997863,8.0,1.0,phase_2,go,650.0,550.0,1.0,,,,,,,,,blue,I
0.0,7.0,2.0,1.0,6.0,0.0,0.0,8.0,1.0,phase_2,stop,650.0,550.0,4.0,,,,,,,,,green,triangle
0.0,3.0,2.0,0.0,5.0,5.0,421.45549199995,8.0,1.0,phase_2,go,650.0,600.0,1.0,,,,,,,,,orange,flipped triangle
0.0,6.0,1.0,1.0,5.0,5.0,383.5793700000067,8.0,1.0,phase_2,stop,650.0,600.0,3.0,,,,,,,,,magenta,cross
0.0,2.0,1.0,0.0,5.0,5.0,361.2464400002864,8.0,1.0,phase_2,go,600.0,600.0,1.0,,,,,,,,,gray,hexagon
0.0,6.0,1.0,1.0,6.0,0.0,0.0,8.0,1.0,phase_2,stop,600.0,600.0,4.0,,,,,,,,,magenta,cross
0.0,1.0,0.5,0.0,6.0,6.0,453.9706450004814,8.0,1.0,phase_2,go,600.0,650.0,1.0,,,,,,,,,blue,I
0.0,3.0,2.0,0.0,5.0,5.0,441.3741700000173,8.0,1.0,phase_2,go,600.0,650.0,1.0,,,,,,,,,orange,flipped triangle
0.0,8.0,4.0,1.0,5.0,5.0,1046.5436169997702,8.0,1.0,phase_2,go,600.0,650.0,1.0,,,,,,,,,yellow,circle
0.0,6.0,1.0,1.0,5.0,5.0,1076.4618659995904,8.0,1.0,phase_2,go,600.0,650.0,1.0,,,,,,,,,magenta,cross
0.0,4.0,4.0,0.0,6.0,6.0,468.7210670008426,8.0,1.0,phase_2,go,600.0,650.0,1.0,,,,,,,,,cyan,diamond
0.0,2.0,1.0,0.0,5.0,5.0,328.5637509998196,8.0,1.0,phase_2,go,600.0,650.0,1.0,,,,,,,,,gray,hexagon
0.0,4.0,4.0,0.0,5.0,5.0,432.0650809995641,8.0,1.0,phase_2,go,600.0,650.0,1.0,,,,,,,,,cyan,diamond
0.0,5.0,0.5,1.0,6.0,0.0,0.0,8.0,1.0,phase_2,stop,600.0,650.0,4.0,,,,,,,,,white,square
0.0,1.0,0.5,0.0,6.0,6.0,440.6900909998512,8.0,1.0,phase_2,go,600.0,700.0,1.0,,,,,,,,,blue,I
0.0,7.0,2.0,1.0,6.0,0.0,0.0,8.0,1.0,phase_2,stop,600.0,700.0,4.0,,,,,,,,,green,triangle
0.0,7.0,2.0,1.0,6.0,0.0,0.0,8.0,1.0,phase_2,stop,600.0,750.0,4.0,,,,,,,,,green,triangle
0.0,6.0,1.0,1.0,6.0,6.0,951.4006449999216,8.0,1.0,phase_2,go,600.0,800.0,1.0,,,,,,,,,magenta,cross
0.0,2.0,1.0,0.0,5.0,5.0,453.3714780000082,8.0,1.0,phase_2,go,600.0,800.0,1.0,,,,,,,,,gray,hexagon
0.0,6.0,1.0,1.0,5.0,0.0,0.0,8.0,1.0,phase_2,stop,600.0,800.0,4.0,,,,,,,,,magenta,cross
0.0,3.0,2.0,0.0,6.0,6.0,454.0362600000662,8.0,1.0,phase_2,go,650.0,800.0,1.0,,,,,,,,,orange,flipped triangle
0.0,2.0,1.0,0.0,6.0,6.0,289.4175190003807,8.0,1.0,phase_2,go,650.0,800.0,1.0,,,,,,,,,gray,hexagon
0.0,5.0,0.5,1.0,6.0,6.0,879.4991360000495,8.0,1.0,phase_2,stop,650.0,800.0,3.0,,,,,,,,,white,square
0.0,3.0,2.0,0.0,7.0,3.0,3174.000884999259,1.0,3.0,phase_3,,,,,108.0,2.0,54.0,270.0,108.0,324.0,162.0,216.0,orange,flipped triangle
0.0,6.0,1.0,1.0,7.0,3.0,3123.0282530004843,1.0,1.0,phase_3,,,,,220.0,5.0,88.0,176.0,220.0,264.0,132.0,44.0,magenta,cross
0.0,3.0,2.0,0.0,7.0,3.0,1363.253204999637,1.0,1.0,phase_3,,,,,88.0,2.0,44.0,132.0,88.0,264.0,176.0,220.0,orange,flipped triangle
0.0,1.0,0.5,0.0,7.0,2.0,1225.6266800004596,1.0,1.0,phase_3,,,,,245.0,5.0,49.0,245.0,294.0,196.0,147.0,98.0,blue,I
0.0,5.0,0.5,1.0,7.0,3.0,1423.0101770008332,1.0,1.0,phase_3,,,,,39.0,1.0,234.0,117.0,39.0,195.0,156.0,78.0,white,square
0.0,8.0,4.0,1.0,7.0,1.0,1767.813016999753,1.0,1.0,phase_3,,,,,195.0,5.0,195.0,156.0,78.0,117.0,39.0,234.0,yellow,circle
0.0,5.0,0.5,1.0,7.0,4.0,1421.9928209995487,1.0,1.0,phase_3,,,,,264.0,6.0,220.0,176.0,44.0,264.0,88.0,132.0,white,square
0.0,8.0,4.0,1.0,7.0,5.0,1748.2792450000488,1.0,1.0,phase_3,,,,,264.0,6.0,176.0,220.0,44.0,132.0,264.0,88.0,yellow,circle
0.0,1.0,0.5,0.0,7.0,4.0,1132.048093999401,1.0,1.0,phase_3,,,,,98.0,2.0,147.0,294.0,196.0,98.0,245.0,49.0,blue,I
0.0,1.0,0.5,0.0,7.0,5.0,1339.6865449994948,1.0,1.0,phase_3,,,,,136.0,4.0,170.0,68.0,34.0,102.0,136.0,204.0,blue,I
0.0,7.0,2.0,1.0,7.0,3.0,1188.1951099994694,1.0,1.0,phase_3,,,,,195.0,5.0,39.0,117.0,195.0,234.0,78.0,156.0,green,triangle
0.0,4.0,4.0,0.0,7.0,4.0,1662.3883099991872,1.0,1.0,phase_3,,,,,78.0,2.0,195.0,156.0,234.0,78.0,39.0,117.0,cyan,diamond
0.0,7.0,2.0,1.0,7.0,1.0,1444.939792999321,1.0,1.0,phase_3,,,,,294.0,6.0,294.0,196.0,98.0,245.0,147.0,49.0,green,triangle
0.0,2.0,1.0,0.0,7.0,6.0,1582.1923270004845,1.0,1.0,phase_3,,,,,39.0,1.0,78.0,195.0,117.0,234.0,156.0,39.0,gray,hexagon
0.0,2.0,1.0,0.0,7.0,5.0,1695.327706000171,1.0,1.0,phase_3,,,,,108.0,2.0,54.0,270.0,324.0,216.0,108.0,162.0,gray,hexagon
0.0,6.0,1.0,1.0,7.0,2.0,1957.7703300001303,1.0,1.0,phase_3,,,,,234.0,6.0,156.0,234.0,39.0,78.0,195.0,117.0,magenta,cross
0.0,6.0,1.0,1.0,7.0,3.0,1247.3374369992598,1.0,1.0,phase_3,,,,,204.0,6.0,68.0,136.0,204.0,170.0,102.0,34.0,magenta,cross
0.0,5.0,0.5,1.0,7.0,4.0,1582.2825029999876,1.0,1.0,phase_3,,,,,162.0,3.0,216.0,108.0,324.0,162.0,54.0,270.0,white,square
0.0,8.0,4.0,1.0,7.0,5.0,1849.4695250001316,1.0,1.0,phase_3,,,,,216.0,4.0,324.0,270.0,54.0,162.0,216.0,108.0,yellow,circle
0.0,3.0,2.0,0.0,7.0,4.0,1634.0550159993654,1.0,1.0,phase_3,,,,,68.0,2.0,136.0,170.0,34.0,68.0,204.0,102.0,orange,flipped triangle
0.0,4.0,4.0,0.0,7.0,4.0,2180.9238870000627,2.0,1.0,phase_3,,,,,170.0,5.0,68.0,204.0,34.0,170.0,102.0,136.0,cyan,diamond
0.0,7.0,2.0,1.0,7.0,3.0,1741.96829200082,2.0,1.0,phase_3,,,,,245.0,5.0,196.0,294.0,245.0,98.0,49.0,147.0,green,triangle
0.0,8.0,4.0,1.0,7.0,3.0,2335.3858370001035,2.0,1.0,phase_3,,,,,102.0,3.0,170.0,204.0,102.0,136.0,34.0,68.0,yellow,circle
0.0,4.0,4.0,0.0,7.0,4.0,2290.9553089994006,2.0,1.0,phase_3,,,,,108.0,2.0,216.0,324.0,270.0,108.0,162.0,54.0,cyan,diamond
0.0,4.0,4.0,0.0,7.0,4.0,2060.311379000268,2.0,1.0,phase_3,,,,,170.0,5.0,204.0,68.0,102.0,170.0,136.0,34.0,cyan,diamond
0.0,1.0,0.5,0.0,7.0,5.0,2218.466540999543,2.0,1.0,phase_3,,,,,162.0,3.0,216.0,54.0,324.0,270.0,162.0,108.0,blue,I
0.0,3.0,2.0,0.0,7.0,3.0,2035.8434149993627,2.0,1.0,phase_3,,,,,162.0,3.0,216.0,54.0,162.0,270.0,108.0,324.0,orange,flipped triangle
0.0,7.0,2.0,1.0,7.0,4.0,1546.3360949997875,2.0,1.0,phase_3,,,,,88.0,2.0,44.0,176.0,264.0,88.0,132.0,220.0,green,triangle
0.0,3.0,2.0,0.0,7.0,2.0,1876.6637059998172,2.0,1.0,phase_3,,,,,78.0,2.0,117.0,78.0,156.0,195.0,39.0,234.0,orange,flipped triangle
0.0,8.0,4.0,1.0,7.0,6.0,1742.2139390000666,2.0,1.0,phase_3,,,,,204.0,6.0,102.0,68.0,34.0,170.0,136.0,204.0,yellow,circle
0.0,3.0,2.0,0.0,7.0,3.0,1613.2837679997465,2.0,1.0,phase_3,,,,,204.0,6.0,136.0,170.0,204.0,68.0,34.0,102.0,orange,flipped triangle
0.0,5.0,0.5,1.0,7.0,1.0,1429.2927280002914,2.0,1.0,phase_3,,,,,108.0,2.0,108.0,270.0,162.0,216.0,324.0,54.0,white,square
0.0,7.0,2.0,1.0,7.0,5.0,1883.14506200004,2.0,1.0,phase_3,,,,,170.0,5.0,34.0,68.0,136.0,102.0,170.0,204.0,green,triangle
0.0,5.0,0.5,1.0,7.0,6.0,1576.1519819998284,2.0,1.0,phase_3,,,,,204.0,6.0,68.0,102.0,170.0,34.0,136.0,204.0,white,square
0.0,2.0,1.0,0.0,7.0,3.0,1381.0875560002387,2.0,1.0,phase_3,,,,,196.0,4.0,49.0,245.0,196.0,147.0,98.0,294.0,gray,hexagon
0.0,3.0,2.0,0.0,7.0,5.0,772.4237359998369,2.0,1.0,phase_3,,,,,196.0,4.0,49.0,245.0,147.0,294.0,196.0,98.0,orange,flipped triangle
0.0,8.0,4.0,1.0,7.0,4.0,1546.7368820000047,2.0,1.0,phase_3,,,,,270.0,5.0,54.0,324.0,216.0,270.0,108.0,162.0,yellow,circle
0.0,3.0,2.0,0.0,7.0,1.0,1522.159899000144,2.0,1.0,phase_3,,,,,117.0,3.0,117.0,78.0,195.0,39.0,234.0,156.0,orange,flipped triangle
0.0,8.0,4.0,1.0,7.0,4.0,1354.1602550003518,2.0,1.0,phase_3,,,,,294.0,6.0,98.0,245.0,49.0,294.0,147.0,196.0,yellow,circle
0.0,6.0,1.0,1.0,7.0,6.0,2109.2507450002813,2.0,1.0,phase_3,,,,,170.0,5.0,204.0,34.0,136.0,68.0,102.0,170.0,magenta,cross
0.0,7.0,2.0,1.0,7.0,4.0,2056.3610859999244,3.0,1.0,phase_3,,,,,170.0,5.0,102.0,68.0,204.0,170.0,34.0,136.0,green,triangle
0.0,8.0,4.0,1.0,7.0,3.0,1517.665205999947,3.0,1.0,phase_3,,,,,234.0,6.0,78.0,39.0,234.0,156.0,117.0,195.0,yellow,circle
0.0,1.0,0.5,0.0,7.0,2.0,2354.9712269996235,3.0,1.0,phase_3,,,,,156.0,4.0,234.0,156.0,195.0,117.0,78.0,39.0,blue,I
0.0,2.0,1.0,0.0,7.0,6.0,1006.0413390001486,3.0,1.0,phase_3,,,,,88.0,2.0,220.0,264.0,44.0,132.0,176.0,88.0,gray,hexagon
0.0,4.0,4.0,0.0,7.0,5.0,1433.4488690001308,3.0,1.0,phase_3,,,,,176.0,4.0,132.0,88.0,44.0,220.0,176.0,264.0,cyan,diamond
0.0,5.0,0.5,1.0,7.0,5.0,1293.4658679996571,3.0,1.0,phase_3,,,,,176.0,4.0,44.0,88.0,220.0,264.0,176.0,132.0,white,square
0.0,5.0,0.5,1.0,7.0,3.0,1892.789311999877,3.0,1.0,phase_3,,,,,34.0,1.0,136.0,68.0,34.0,102.0,170.0,204.0,white,square
0.0,5.0,0.5,1.0,7.0,6.0,1820.1474249999592,3.0,1.0,phase_3,,,,,147.0,3.0,98.0,294.0,49.0,245.0,196.0,147.0,white,square
0.0,6.0,1.0,1.0,7.0,4.0,1749.3883659999483,3.0,1.0,phase_3,,,,,220.0,5.0,176.0,132.0,88.0,220.0,44.0,264.0,magenta,cross
0.0,6.0,1.0,1.0,7.0,2.0,2365.463024999372,3.0,1.0,phase_3,,,,,147.0,3.0,196.0,147.0,49.0,245.0,294.0,98.0,magenta,cross
0.0,2.0,1.0,0.0,7.0,6.0,1307.338180999977,3.0,1.0,phase_3,,,,,102.0,3.0,204.0,34.0,136.0,68.0,170.0,102.0,gray,hexagon
0.0,7.0,2.0,1.0,7.0,3.0,2663.0913789995247,3.0,1.0,phase_3,,,,,108.0,2.0,162.0,270.0,108.0,216.0,324.0,54.0,green,triangle
0.0,2.0,1.0,0.0,7.0,3.0,2313.5107970001627,3.0,1.0,phase_3,,,,,78.0,2.0,234.0,117.0,78.0,195.0,156.0,39.0,gray,hexagon
0.0,3.0,2.0,0.0,7.0,4.0,2391.178380000383,3.0,1.0,phase_3,,,,,147.0,3.0,245.0,98.0,294.0,147.0,196.0,49.0,orange,flipped triangle
0.0,4.0,4.0,0.0,7.0,1.0,2581.016785999964,3.0,1.0,phase_3,,,,,196.0,4.0,196.0,98.0,147.0,245.0,294.0,49.0,cyan,diamond
0.0,6.0,1.0,1.0,7.0,6.0,1496.1705959995015,3.0,1.0,phase_3,,,,,108.0,2.0,54.0,162.0,324.0,270.0,216.0,108.0,magenta,cross
0.0,1.0,0.5,0.0,7.0,1.0,2243.961999000021,3.0,1.0,phase_3,,,,,270.0,5.0,270.0,324.0,108.0,162.0,216.0,54.0,blue,I
0.0,3.0,2.0,0.0,7.0,4.0,2073.6672419998285,3.0,1.0,phase_3,,,,,220.0,5.0,176.0,264.0,44.0,220.0,132.0,88.0,orange,flipped triangle
0.0,6.0,1.0,1.0,7.0,4.0,2067.417380000734,3.0,1.0,phase_3,,,,,196.0,4.0,98.0,147.0,294.0,196.0,49.0,245.0,magenta,cross
0.0,2.0,1.0,0.0,7.0,2.0,1360.2496849998715,3.0,1.0,phase_3,,,,,132.0,3.0,264.0,132.0,220.0,176.0,88.0,44.0,gray,hexagon
0.0,4.0,4.0,0.0,7.0,3.0,2444.4664070006183,4.0,1.0,phase_3,,,,,108.0,2.0,216.0,324.0,108.0,54.0,270.0,162.0,cyan,diamond
0.0,6.0,1.0,1.0,7.0,6.0,3219.0386210004363,4.0,1.0,phase_3,,,,,162.0,3.0,54.0,270.0,108.0,324.0,216.0,162.0,magenta,cross
0.0,4.0,4.0,0.0,7.0,3.0,2285.975177000182,4.0,1.0,phase_3,,,,,156.0,4.0,234.0,78.0,156.0,195.0,39.0,117.0,cyan,diamond
0.0,4.0,4.0,0.0,7.0,1.0,2962.3845350006377,4.0,1.0,phase_3,,,,,176.0,4.0,176.0,44.0,220.0,88.0,132.0,264.0,cyan,diamond
0.0,5.0,0.5,1.0,7.0,6.0,2581.041121000453,4.0,1.0,phase_3,,,,,147.0,3.0,196.0,294.0,49.0,245.0,98.0,147.0,white,square
0.0,1.0,0.5,0.0,7.0,1.0,2175.4235930002324,4.0,1.0,phase_3,,,,,68.0,2.0,68.0,102.0,204.0,136.0,34.0,170.0,blue,I
0.0,2.0,1.0,0.0,7.0,4.0,2491.144993000489,4.0,1.0,phase_3,,,,,68.0,2.0,204.0,34.0,102.0,68.0,170.0,136.0,gray,hexagon
0.0,4.0,4.0,0.0,7.0,2.0,2232.3946589995103,4.0,1.0,phase_3,,,,,196.0,4.0,245.0,196.0,294.0,49.0,98.0,147.0,cyan,diamond
0.0,5.0,0.5,1.0,7.0,3.0,2245.413263000046,4.0,1.0,phase_3,,,,,117.0,3.0,156.0,39.0,117.0,234.0,195.0,78.0,white,square
0.0,7.0,2.0,1.0,7.0,6.0,2750.341976000527,4.0,1.0,phase_3,,,,,216.0,4.0,162.0,54.0,324.0,108.0,270.0,216.0,green,triangle
0.0,1.0,0.5,0.0,7.0,2.0,2469.721153000137,4.0,1.0,phase_3,,,,,132.0,3.0,44.0,132.0,88.0,220.0,264.0,176.0,blue,I
0.0,6.0,1.0,1.0,7.0,6.0,1557.6419710005212,4.0,1.0,phase_3,,,,,117.0,3.0,39.0,234.0,78.0,195.0,156.0,117.0,magenta,cross
0.0,8.0,4.0,1.0,7.0,1.0,2452.7161280002474,4.0,1.0,phase_3,,,,,245.0,5.0,245.0,98.0,196.0,49.0,147.0,294.0,yellow,circle
0.0,2.0,1.0,0.0,7.0,4.0,1837.5278309995335,4.0,1.0,phase_3,,,,,162.0,3.0,270.0,54.0,324.0,162.0,108.0,216.0,gray,hexagon
0.0,8.0,4.0,1.0,7.0,1.0,2407.5353369998998,4.0,1.0,phase_3,,,,,264.0,6.0,264.0,132.0,88.0,176.0,220.0,44.0,yellow,circle
0.0,7.0,2.0,1.0,7.0,6.0,1807.626677999906,4.0,1.0,phase_3,,,,,132.0,3.0,176.0,220.0,44.0,88.0,264.0,132.0,green,triangle
0.0,1.0,0.5,0.0,7.0,4.0,1640.961205000167,4.0,1.0,phase_3,,,,,78.0,2.0,156.0,117.0,39.0,78.0,234.0,195.0,blue,I
0.0,2.0,1.0,0.0,7.0,1.0,2587.487285999486,4.0,1.0,phase_3,,,,,147.0,3.0,147.0,196.0,49.0,98.0,294.0,245.0,gray,hexagon
0.0,7.0,2.0,1.0,7.0,6.0,2334.546598000088,4.0,1.0,phase_3,,,,,195.0,5.0,117.0,156.0,78.0,39.0,234.0,195.0,green,triangle
0.0,1.0,0.5,0.0,7.0,5.0,2366.270102999806,4.0,1.0,phase_3,,,,,220.0,5.0,264.0,176.0,44.0,132.0,220.0,88.0,blue,I
