raw_reward_magnitude,stim_reward,stepwise_reward_magnitude,paired_with_stopping,stim_location,response,reaction_time,block,num_trial_presentations,which_phase,stop_signal_trial_type,left_SSD,right_SSD,accuracy,chosen_bidding_amount,chosen_bidding_level,possible_bid_1,possible_bid_2,possible_bid_3,possible_bid_4,possible_bid_5,possible_bid_6,color_text,shape_text
43.0,5.0,1.0,1.0,2.0,2.0,298.7622340001508,1.0,1.0,phase_1,,,,,,,,,,,,,magenta,triangle
185.0,3.0,3.0,0.0,1.0,1.0,285.5029399997875,1.0,1.0,phase_1,,,,,,,,,,,,,yellow,circle
34.0,5.0,1.0,1.0,3.0,3.0,369.4659779998801,1.0,1.0,phase_1,,,,,,,,,,,,,magenta,triangle
39.0,1.0,1.0,0.0,2.0,2.0,264.399482999579,1.0,1.0,phase_1,,,,,,,,,,,,,white,cross
411.0,4.0,4.0,0.0,3.0,3.0,250.5840230001013,1.0,1.0,phase_1,,,,,,,,,,,,,gray,flipped triangle
222.0,7.0,3.0,1.0,1.0,1.0,251.8206069998996,1.0,1.0,phase_1,,,,,,,,,,,,,green,I
0.0,1.0,0.0,0.0,3.0,3.0,295.291331000044,1.0,1.0,phase_1,,,,,,,,,,,,,white,cross
106.0,2.0,2.0,0.0,1.0,1.0,222.9372829997373,1.0,1.0,phase_1,,,,,,,,,,,,,orange,square
210.0,3.0,3.0,0.0,3.0,3.0,246.7413330000454,1.0,1.0,phase_1,,,,,,,,,,,,,yellow,circle
71.0,1.0,1.0,0.0,2.0,2.0,300.5991410000206,1.0,2.0,phase_1,,,,,,,,,,,,,white,cross
0.0,3.0,0.0,0.0,3.0,3.0,301.5340000001743,1.0,1.0,phase_1,,,,,,,,,,,,,yellow,circle
0.0,6.0,0.0,1.0,3.0,3.0,326.4531729996633,1.0,1.0,phase_1,,,,,,,,,,,,,blue,hexagon
425.0,8.0,4.0,1.0,1.0,1.0,332.9529970001204,1.0,1.0,phase_1,,,,,,,,,,,,,cyan,diamond
0.0,4.0,0.0,0.0,2.0,2.0,287.1845240001676,1.0,1.0,phase_1,,,,,,,,,,,,,gray,flipped triangle
204.0,7.0,3.0,1.0,3.0,3.0,282.8238849997433,1.0,1.0,phase_1,,,,,,,,,,,,,green,I
84.0,2.0,2.0,0.0,3.0,3.0,300.8500859996275,1.0,1.0,phase_1,,,,,,,,,,,,,orange,square
0.0,7.0,0.0,1.0,3.0,3.0,361.8741329996737,1.0,1.0,phase_1,,,,,,,,,,,,,green,I
175.0,3.0,3.0,0.0,1.0,1.0,340.6357750000097,1.0,1.0,phase_1,,,,,,,,,,,,,yellow,circle
380.0,4.0,4.0,0.0,1.0,1.0,373.5405669999636,1.0,1.0,phase_1,,,,,,,,,,,,,gray,flipped triangle
391.0,8.0,4.0,1.0,2.0,2.0,358.206816999882,1.0,1.0,phase_1,,,,,,,,,,,,,cyan,diamond
396.0,4.0,4.0,0.0,4.0,4.0,463.830795999911,1.0,1.0,phase_1,,,,,,,,,,,,,gray,flipped triangle
84.0,6.0,2.0,1.0,3.0,3.0,381.3741509998181,1.0,1.0,phase_1,,,,,,,,,,,,,blue,hexagon
0.0,2.0,0.0,0.0,3.0,3.0,383.1654700002218,1.0,1.0,phase_1,,,,,,,,,,,,,orange,square
419.0,4.0,4.0,0.0,1.0,1.0,435.7313499999691,1.0,1.0,phase_1,,,,,,,,,,,,,gray,flipped triangle
196.0,3.0,3.0,0.0,2.0,2.0,435.7107289997657,1.0,1.0,phase_1,,,,,,,,,,,,,yellow,circle
201.0,3.0,3.0,0.0,1.0,1.0,361.8878820002464,1.0,1.0,phase_1,,,,,,,,,,,,,yellow,circle
61.0,5.0,1.0,1.0,3.0,3.0,450.480281000182,1.0,1.0,phase_1,,,,,,,,,,,,,magenta,triangle
31.0,5.0,1.0,1.0,2.0,2.0,312.0399549998183,1.0,1.0,phase_1,,,,,,,,,,,,,magenta,triangle
29.0,1.0,1.0,0.0,4.0,4.0,378.0513659999087,1.0,1.0,phase_1,,,,,,,,,,,,,white,cross
39.0,5.0,1.0,1.0,1.0,1.0,319.4595999998455,1.0,1.0,phase_1,,,,,,,,,,,,,magenta,triangle
107.0,6.0,2.0,1.0,2.0,2.0,438.2265889998962,1.0,1.0,phase_1,,,,,,,,,,,,,blue,hexagon
0.0,4.0,0.0,0.0,2.0,2.0,351.6393519998928,1.0,1.0,phase_1,,,,,,,,,,,,,gray,flipped triangle
383.0,8.0,4.0,1.0,3.0,3.0,311.3198910000392,1.0,1.0,phase_1,,,,,,,,,,,,,cyan,diamond
182.0,3.0,3.0,0.0,1.0,1.0,353.0366149998372,1.0,1.0,phase_1,,,,,,,,,,,,,yellow,circle
0.0,5.0,0.0,1.0,1.0,1.0,332.5318160000279,1.0,1.0,phase_1,,,,,,,,,,,,,magenta,triangle
407.0,4.0,4.0,0.0,4.0,4.0,452.8872169998976,1.0,1.0,phase_1,,,,,,,,,,,,,gray,flipped triangle
176.0,7.0,3.0,1.0,4.0,4.0,312.2512899999492,1.0,1.0,phase_1,,,,,,,,,,,,,green,I
99.0,6.0,2.0,1.0,1.0,1.0,302.6099070002601,1.0,1.0,phase_1,,,,,,,,,,,,,blue,hexagon
44.0,5.0,1.0,1.0,1.0,1.0,362.3492050001005,1.0,1.0,phase_1,,,,,,,,,,,,,magenta,triangle
98.0,6.0,2.0,1.0,4.0,4.0,275.9952690003047,1.0,1.0,phase_1,,,,,,,,,,,,,blue,hexagon
79.0,6.0,2.0,1.0,1.0,1.0,306.4612319999469,1.0,1.0,phase_1,,,,,,,,,,,,,blue,hexagon
29.0,5.0,1.0,1.0,1.0,1.0,286.06803699995,1.0,1.0,phase_1,,,,,,,,,,,,,magenta,triangle
46.0,5.0,1.0,1.0,4.0,4.0,297.8866319999724,1.0,1.0,phase_1,,,,,,,,,,,,,magenta,triangle
189.0,7.0,3.0,1.0,3.0,3.0,323.4733270001015,1.0,1.0,phase_1,,,,,,,,,,,,,green,I
189.0,3.0,3.0,0.0,4.0,4.0,283.6270560001139,1.0,1.0,phase_1,,,,,,,,,,,,,yellow,circle
200.0,7.0,3.0,1.0,4.0,4.0,308.162696999716,1.0,1.0,phase_1,,,,,,,,,,,,,green,I
0.0,5.0,0.0,1.0,1.0,1.0,273.492000999795,1.0,1.0,phase_1,,,,,,,,,,,,,magenta,triangle
73.0,1.0,1.0,0.0,2.0,2.0,309.4341579999309,1.0,1.0,phase_1,,,,,,,,,,,,,white,cross
98.0,2.0,2.0,0.0,1.0,1.0,362.6555979999466,1.0,1.0,phase_1,,,,,,,,,,,,,orange,square
419.0,8.0,4.0,1.0,2.0,2.0,314.6364950002862,1.0,1.0,phase_1,,,,,,,,,,,,,cyan,diamond
47.0,5.0,1.0,1.0,2.0,2.0,341.7487040001106,1.0,1.0,phase_1,,,,,,,,,,,,,magenta,triangle
0.0,8.0,0.0,1.0,1.0,1.0,319.6894689999681,1.0,1.0,phase_1,,,,,,,,,,,,,cyan,diamond
70.0,5.0,1.0,1.0,2.0,2.0,389.443422000113,1.0,1.0,phase_1,,,,,,,,,,,,,magenta,triangle
0.0,5.0,0.0,1.0,4.0,4.0,284.2158359999303,1.0,1.0,phase_1,,,,,,,,,,,,,magenta,triangle
0.0,8.0,0.0,1.0,2.0,2.0,311.3727589998234,1.0,1.0,phase_1,,,,,,,,,,,,,cyan,diamond
97.0,6.0,2.0,1.0,4.0,4.0,273.060260999955,1.0,1.0,phase_1,,,,,,,,,,,,,blue,hexagon
208.0,7.0,3.0,1.0,1.0,1.0,254.16540100013663,1.0,1.0,phase_1,,,,,,,,,,,,,green,I
0.0,1.0,0.0,0.0,4.0,4.0,337.8346660001625,1.0,1.0,phase_1,,,,,,,,,,,,,white,cross
210.0,7.0,3.0,1.0,2.0,2.0,298.4283829996457,1.0,1.0,phase_1,,,,,,,,,,,,,green,I
210.0,3.0,3.0,0.0,1.0,1.0,290.301381000063,1.0,1.0,phase_1,,,,,,,,,,,,,yellow,circle
0.0,7.0,0.0,1.0,1.0,1.0,306.9461830000364,1.0,1.0,phase_1,,,,,,,,,,,,,green,I
34.0,1.0,1.0,0.0,3.0,3.0,317.4434739999014,1.0,1.0,phase_1,,,,,,,,,,,,,white,cross
214.0,7.0,3.0,1.0,2.0,2.0,318.3252490002815,1.0,1.0,phase_1,,,,,,,,,,,,,green,I
71.0,1.0,1.0,0.0,4.0,4.0,246.1757260002741,1.0,1.0,phase_1,,,,,,,,,,,,,white,cross
46.0,1.0,1.0,0.0,4.0,4.0,334.5412570001826,1.0,1.0,phase_1,,,,,,,,,,,,,white,cross
212.0,7.0,3.0,1.0,2.0,2.0,265.9884969998529,1.0,1.0,phase_1,,,,,,,,,,,,,green,I
77.0,2.0,2.0,0.0,4.0,4.0,305.2291029998741,1.0,2.0,phase_1,,,,,,,,,,,,,orange,square
74.0,5.0,1.0,1.0,4.0,4.0,280.5884630001856,1.0,1.0,phase_1,,,,,,,,,,,,,magenta,triangle
27.0,1.0,1.0,0.0,4.0,4.0,312.7641940000103,1.0,1.0,phase_1,,,,,,,,,,,,,white,cross
78.0,2.0,2.0,0.0,3.0,3.0,305.7558970003811,1.0,1.0,phase_1,,,,,,,,,,,,,orange,square
0.0,2.0,0.0,0.0,2.0,2.0,277.9432349998387,1.0,1.0,phase_1,,,,,,,,,,,,,orange,square
186.0,3.0,3.0,0.0,1.0,1.0,290.1806869999745,1.0,1.0,phase_1,,,,,,,,,,,,,yellow,circle
424.0,8.0,4.0,1.0,3.0,3.0,269.5539579999604,1.0,1.0,phase_1,,,,,,,,,,,,,cyan,diamond
77.0,6.0,2.0,1.0,3.0,3.0,285.2319680000619,1.0,1.0,phase_1,,,,,,,,,,,,,blue,hexagon
26.0,5.0,1.0,1.0,4.0,4.0,279.2136110001593,1.0,1.0,phase_1,,,,,,,,,,,,,magenta,triangle
0.0,7.0,0.0,1.0,4.0,4.0,274.969738999971,1.0,1.0,phase_1,,,,,,,,,,,,,green,I
421.0,4.0,4.0,0.0,2.0,2.0,236.2097430000176,1.0,1.0,phase_1,,,,,,,,,,,,,gray,flipped triangle
0.0,3.0,0.0,0.0,4.0,4.0,221.0730750002767,1.0,1.0,phase_1,,,,,,,,,,,,,yellow,circle
206.0,7.0,3.0,1.0,3.0,3.0,314.7461300000032,1.0,1.0,phase_1,,,,,,,,,,,,,green,I
0.0,2.0,0.0,0.0,2.0,2.0,284.8680389997753,1.0,1.0,phase_1,,,,,,,,,,,,,orange,square
87.0,2.0,2.0,0.0,3.0,3.0,289.8081050002474,1.0,1.0,phase_1,,,,,,,,,,,,,orange,square
0.0,7.0,0.0,1.0,1.0,1.0,305.1673770000889,1.0,1.0,phase_1,,,,,,,,,,,,,green,I
0.0,8.0,0.0,1.0,1.0,1.0,324.8049320000064,1.0,1.0,phase_1,,,,,,,,,,,,,cyan,diamond
220.0,7.0,3.0,1.0,1.0,1.0,264.9959020000096,1.0,1.0,phase_1,,,,,,,,,,,,,green,I
210.0,7.0,3.0,1.0,3.0,3.0,320.3196059998845,1.0,1.0,phase_1,,,,,,,,,,,,,green,I
215.0,7.0,3.0,1.0,3.0,3.0,270.7743390001269,1.0,1.0,phase_1,,,,,,,,,,,,,green,I
42.0,5.0,1.0,1.0,3.0,3.0,292.5447029997485,1.0,1.0,phase_1,,,,,,,,,,,,,magenta,triangle
0.0,5.0,0.0,1.0,1.0,1.0,431.3126359998023,1.0,1.0,phase_1,,,,,,,,,,,,,magenta,triangle
216.0,3.0,3.0,0.0,1.0,1.0,301.7348729999867,1.0,2.0,phase_1,,,,,,,,,,,,,yellow,circle
92.0,2.0,2.0,0.0,4.0,4.0,349.1400069997326,1.0,1.0,phase_1,,,,,,,,,,,,,orange,square
202.0,7.0,3.0,1.0,3.0,3.0,349.5302770002126,1.0,1.0,phase_1,,,,,,,,,,,,,green,I
423.0,8.0,4.0,1.0,1.0,1.0,340.5613940003604,1.0,1.0,phase_1,,,,,,,,,,,,,cyan,diamond
118.0,2.0,2.0,0.0,2.0,2.0,414.3032649999441,1.0,1.0,phase_1,,,,,,,,,,,,,orange,square
0.0,6.0,0.0,1.0,4.0,4.0,345.2012070001728,1.0,1.0,phase_1,,,,,,,,,,,,,blue,hexagon
405.0,4.0,4.0,0.0,3.0,3.0,348.45874400025417,1.0,2.0,phase_1,,,,,,,,,,,,,gray,flipped triangle
110.0,6.0,2.0,1.0,2.0,2.0,347.3823960002846,1.0,1.0,phase_1,,,,,,,,,,,,,blue,hexagon
69.0,5.0,1.0,1.0,2.0,2.0,303.3561090001058,1.0,1.0,phase_1,,,,,,,,,,,,,magenta,triangle
419.0,4.0,4.0,0.0,2.0,2.0,329.896306000137,1.0,1.0,phase_1,,,,,,,,,,,,,gray,flipped triangle
391.0,4.0,4.0,0.0,1.0,1.0,305.3208020000966,1.0,1.0,phase_1,,,,,,,,,,,,,gray,flipped triangle
0.0,6.0,0.0,1.0,3.0,3.0,333.0738350000501,1.0,1.0,phase_1,,,,,,,,,,,,,blue,hexagon
69.0,1.0,1.0,0.0,4.0,4.0,385.7437209999261,2.0,1.0,phase_1,,,,,,,,,,,,,white,cross
216.0,7.0,3.0,1.0,4.0,4.0,256.6422580002836,2.0,1.0,phase_1,,,,,,,,,,,,,green,I
0.0,6.0,0.0,1.0,1.0,1.0,305.9738560000369,2.0,2.0,phase_1,,,,,,,,,,,,,blue,hexagon
0.0,2.0,0.0,0.0,2.0,2.0,343.4228790001725,2.0,1.0,phase_1,,,,,,,,,,,,,orange,square
219.0,3.0,3.0,0.0,4.0,4.0,295.795748999808,2.0,1.0,phase_1,,,,,,,,,,,,,yellow,circle
198.0,3.0,3.0,0.0,3.0,3.0,345.3351220000513,2.0,1.0,phase_1,,,,,,,,,,,,,yellow,circle
71.0,5.0,1.0,1.0,2.0,2.0,270.0743529999272,2.0,1.0,phase_1,,,,,,,,,,,,,magenta,triangle
65.0,1.0,1.0,0.0,2.0,2.0,275.8245019999776,2.0,1.0,phase_1,,,,,,,,,,,,,white,cross
388.0,4.0,4.0,0.0,4.0,4.0,273.7057320000531,2.0,1.0,phase_1,,,,,,,,,,,,,gray,flipped triangle
0.0,7.0,0.0,1.0,2.0,2.0,288.7817790001463,2.0,1.0,phase_1,,,,,,,,,,,,,green,I
44.0,1.0,1.0,0.0,4.0,4.0,305.349926999952,2.0,1.0,phase_1,,,,,,,,,,,,,white,cross
123.0,6.0,2.0,1.0,1.0,1.0,308.6919610000223,2.0,1.0,phase_1,,,,,,,,,,,,,blue,hexagon
122.0,2.0,2.0,0.0,1.0,1.0,291.9158730001072,2.0,1.0,phase_1,,,,,,,,,,,,,orange,square
223.0,3.0,3.0,0.0,4.0,4.0,288.2533179999882,2.0,1.0,phase_1,,,,,,,,,,,,,yellow,circle
47.0,5.0,1.0,1.0,3.0,3.0,332.5602250001793,2.0,1.0,phase_1,,,,,,,,,,,,,magenta,triangle
47.0,1.0,1.0,0.0,3.0,3.0,302.5931160000255,2.0,1.0,phase_1,,,,,,,,,,,,,white,cross
389.0,8.0,4.0,1.0,2.0,2.0,285.9261420003349,2.0,1.0,phase_1,,,,,,,,,,,,,cyan,diamond
187.0,3.0,3.0,0.0,2.0,2.0,325.8246810000855,2.0,1.0,phase_1,,,,,,,,,,,,,yellow,circle
400.0,4.0,4.0,0.0,2.0,2.0,287.7280870002323,2.0,1.0,phase_1,,,,,,,,,,,,,gray,flipped triangle
67.0,1.0,1.0,0.0,1.0,1.0,225.0088969999524,2.0,1.0,phase_1,,,,,,,,,,,,,white,cross
46.0,5.0,1.0,1.0,3.0,3.0,342.4316549999275,2.0,2.0,phase_1,,,,,,,,,,,,,magenta,triangle
93.0,2.0,2.0,0.0,4.0,4.0,294.7111809999114,2.0,1.0,phase_1,,,,,,,,,,,,,orange,square
92.0,2.0,2.0,0.0,4.0,4.0,302.4740159999055,2.0,1.0,phase_1,,,,,,,,,,,,,orange,square
101.0,6.0,2.0,1.0,3.0,3.0,299.6065910001562,2.0,1.0,phase_1,,,,,,,,,,,,,blue,hexagon
0.0,2.0,0.0,0.0,3.0,3.0,356.0041779996936,2.0,1.0,phase_1,,,,,,,,,,,,,orange,square
188.0,3.0,3.0,0.0,3.0,3.0,284.6264770000744,2.0,1.0,phase_1,,,,,,,,,,,,,yellow,circle
386.0,4.0,4.0,0.0,1.0,1.0,300.0099189998764,2.0,1.0,phase_1,,,,,,,,,,,,,gray,flipped triangle
407.0,8.0,4.0,1.0,1.0,1.0,413.6883759997545,2.0,1.0,phase_1,,,,,,,,,,,,,cyan,diamond
70.0,1.0,1.0,0.0,3.0,3.0,568.0717059999552,2.0,1.0,phase_1,,,,,,,,,,,,,white,cross
85.0,2.0,2.0,0.0,2.0,2.0,330.7261420000031,2.0,1.0,phase_1,,,,,,,,,,,,,orange,square
0.0,4.0,0.0,0.0,2.0,2.0,416.7626519997611,2.0,2.0,phase_1,,,,,,,,,,,,,gray,flipped triangle
74.0,1.0,1.0,0.0,3.0,3.0,298.3110650002345,2.0,1.0,phase_1,,,,,,,,,,,,,white,cross
0.0,7.0,0.0,1.0,3.0,3.0,306.4049979998344,2.0,1.0,phase_1,,,,,,,,,,,,,green,I
0.0,4.0,0.0,0.0,1.0,1.0,457.9514230003951,2.0,1.0,phase_1,,,,,,,,,,,,,gray,flipped triangle
114.0,2.0,2.0,0.0,2.0,2.0,313.1789359999857,2.0,1.0,phase_1,,,,,,,,,,,,,orange,square
99.0,6.0,2.0,1.0,3.0,3.0,314.6287999998094,2.0,1.0,phase_1,,,,,,,,,,,,,blue,hexagon
396.0,4.0,4.0,0.0,3.0,3.0,417.3870100003114,2.0,1.0,phase_1,,,,,,,,,,,,,gray,flipped triangle
53.0,5.0,1.0,1.0,3.0,3.0,299.0658720000283,2.0,1.0,phase_1,,,,,,,,,,,,,magenta,triangle
109.0,6.0,2.0,1.0,3.0,3.0,297.7655790000426,2.0,1.0,phase_1,,,,,,,,,,,,,blue,hexagon
27.0,5.0,1.0,1.0,4.0,4.0,380.5513140000585,2.0,2.0,phase_1,,,,,,,,,,,,,magenta,triangle
419.0,8.0,4.0,1.0,4.0,4.0,342.5774719999026,2.0,1.0,phase_1,,,,,,,,,,,,,cyan,diamond
379.0,8.0,4.0,1.0,3.0,3.0,337.2598340001786,2.0,1.0,phase_1,,,,,,,,,,,,,cyan,diamond
87.0,2.0,2.0,0.0,1.0,1.0,401.5084319999005,2.0,1.0,phase_1,,,,,,,,,,,,,orange,square
110.0,6.0,2.0,1.0,4.0,4.0,310.1147130000754,2.0,1.0,phase_1,,,,,,,,,,,,,blue,hexagon
393.0,4.0,4.0,0.0,1.0,1.0,360.2697829996941,2.0,1.0,phase_1,,,,,,,,,,,,,gray,flipped triangle
201.0,7.0,3.0,1.0,2.0,2.0,347.5013620000027,2.0,1.0,phase_1,,,,,,,,,,,,,green,I
77.0,2.0,2.0,0.0,2.0,2.0,338.6017959996934,2.0,1.0,phase_1,,,,,,,,,,,,,orange,square
0.0,1.0,0.0,0.0,1.0,1.0,412.3376930001541,2.0,1.0,phase_1,,,,,,,,,,,,,white,cross
423.0,4.0,4.0,0.0,1.0,1.0,356.5082899999652,2.0,1.0,phase_1,,,,,,,,,,,,,gray,flipped triangle
47.0,1.0,1.0,0.0,2.0,2.0,348.5112229996048,2.0,1.0,phase_1,,,,,,,,,,,,,white,cross
114.0,6.0,2.0,1.0,2.0,2.0,393.3977479996429,2.0,1.0,phase_1,,,,,,,,,,,,,blue,hexagon
383.0,4.0,4.0,0.0,3.0,3.0,335.3283730002658,2.0,1.0,phase_1,,,,,,,,,,,,,gray,flipped triangle
206.0,3.0,3.0,0.0,3.0,3.0,342.3984820001351,2.0,1.0,phase_1,,,,,,,,,,,,,yellow,circle
411.0,8.0,4.0,1.0,1.0,1.0,259.9376690000099,2.0,1.0,phase_1,,,,,,,,,,,,,cyan,diamond
216.0,7.0,3.0,1.0,2.0,2.0,438.3923749996938,2.0,1.0,phase_1,,,,,,,,,,,,,green,I
122.0,6.0,2.0,1.0,1.0,1.0,367.1564979999857,2.0,1.0,phase_1,,,,,,,,,,,,,blue,hexagon
53.0,1.0,1.0,0.0,1.0,1.0,345.881812999778,2.0,1.0,phase_1,,,,,,,,,,,,,white,cross
106.0,6.0,2.0,1.0,3.0,3.0,304.7347520000585,2.0,1.0,phase_1,,,,,,,,,,,,,blue,hexagon
80.0,6.0,2.0,1.0,4.0,4.0,312.626340999941,2.0,1.0,phase_1,,,,,,,,,,,,,blue,hexagon
0.0,8.0,0.0,1.0,3.0,3.0,354.586358999768,2.0,1.0,phase_1,,,,,,,,,,,,,cyan,diamond
424.0,4.0,4.0,0.0,2.0,2.0,352.026768000087,2.0,1.0,phase_1,,,,,,,,,,,,,gray,flipped triangle
187.0,3.0,3.0,0.0,4.0,4.0,551.8015389998254,2.0,1.0,phase_1,,,,,,,,,,,,,yellow,circle
403.0,4.0,4.0,0.0,4.0,4.0,389.1437719998976,2.0,1.0,phase_1,,,,,,,,,,,,,gray,flipped triangle
0.0,2.0,0.0,0.0,2.0,2.0,318.3988420000787,2.0,1.0,phase_1,,,,,,,,,,,,,orange,square
0.0,1.0,0.0,0.0,4.0,4.0,310.9866409999995,2.0,1.0,phase_1,,,,,,,,,,,,,white,cross
26.0,1.0,1.0,0.0,1.0,1.0,296.3509920000433,2.0,1.0,phase_1,,,,,,,,,,,,,white,cross
32.0,5.0,1.0,1.0,1.0,1.0,333.7944900004004,2.0,2.0,phase_1,,,,,,,,,,,,,magenta,triangle
382.0,4.0,4.0,0.0,4.0,4.0,308.9485539999259,2.0,1.0,phase_1,,,,,,,,,,,,,gray,flipped triangle
375.0,8.0,4.0,1.0,4.0,4.0,344.1274630004045,2.0,1.0,phase_1,,,,,,,,,,,,,cyan,diamond
400.0,4.0,4.0,0.0,2.0,2.0,403.1876629996986,2.0,1.0,phase_1,,,,,,,,,,,,,gray,flipped triangle
116.0,2.0,2.0,0.0,3.0,3.0,313.1440820002353,2.0,1.0,phase_1,,,,,,,,,,,,,orange,square
96.0,2.0,2.0,0.0,4.0,4.0,346.1552029998529,2.0,1.0,phase_1,,,,,,,,,,,,,orange,square
419.0,4.0,4.0,0.0,3.0,3.0,381.7869869999413,2.0,1.0,phase_1,,,,,,,,,,,,,gray,flipped triangle
0.0,7.0,0.0,1.0,2.0,2.0,312.5200620002033,2.0,1.0,phase_1,,,,,,,,,,,,,green,I
96.0,6.0,2.0,1.0,4.0,4.0,328.9749879995725,2.0,1.0,phase_1,,,,,,,,,,,,,blue,hexagon
400.0,8.0,4.0,1.0,3.0,3.0,336.0058630000821,2.0,1.0,phase_1,,,,,,,,,,,,,cyan,diamond
180.0,7.0,3.0,1.0,4.0,4.0,319.6558909999112,2.0,1.0,phase_1,,,,,,,,,,,,,green,I
0.0,4.0,0.0,0.0,2.0,2.0,416.3506599998072,2.0,1.0,phase_1,,,,,,,,,,,,,gray,flipped triangle
0.0,3.0,0.0,0.0,3.0,3.0,340.9320239998124,2.0,1.0,phase_1,,,,,,,,,,,,,yellow,circle
180.0,3.0,3.0,0.0,2.0,2.0,322.2426970000924,2.0,1.0,phase_1,,,,,,,,,,,,,yellow,circle
394.0,8.0,4.0,1.0,1.0,1.0,294.5677130001058,2.0,1.0,phase_1,,,,,,,,,,,,,cyan,diamond
214.0,3.0,3.0,0.0,2.0,2.0,283.6825159997715,2.0,1.0,phase_1,,,,,,,,,,,,,yellow,circle
393.0,8.0,4.0,1.0,2.0,2.0,334.6246060000339,2.0,1.0,phase_1,,,,,,,,,,,,,cyan,diamond
0.0,4.0,0.0,0.0,4.0,4.0,317.4712859999999,2.0,1.0,phase_1,,,,,,,,,,,,,gray,flipped triangle
62.0,5.0,1.0,1.0,1.0,1.0,281.2865159999091,2.0,1.0,phase_1,,,,,,,,,,,,,magenta,triangle
42.0,1.0,1.0,0.0,3.0,3.0,317.835162999927,2.0,1.0,phase_1,,,,,,,,,,,,,white,cross
53.0,1.0,1.0,0.0,4.0,4.0,446.5474799999356,2.0,1.0,phase_1,,,,,,,,,,,,,white,cross
0.0,5.0,0.0,1.0,1.0,1.0,272.783093000271,2.0,1.0,phase_1,,,,,,,,,,,,,magenta,triangle
73.0,5.0,1.0,1.0,1.0,1.0,266.0540940000828,2.0,1.0,phase_1,,,,,,,,,,,,,magenta,triangle
223.0,7.0,3.0,1.0,2.0,2.0,305.0680330002251,2.0,1.0,phase_1,,,,,,,,,,,,,green,I
0.0,3.0,0.0,0.0,3.0,3.0,257.3971410001832,2.0,1.0,phase_1,,,,,,,,,,,,,yellow,circle
204.0,3.0,3.0,0.0,4.0,4.0,233.7027910002689,2.0,1.0,phase_1,,,,,,,,,,,,,yellow,circle
380.0,8.0,4.0,1.0,4.0,4.0,322.1654459998717,2.0,1.0,phase_1,,,,,,,,,,,,,cyan,diamond
46.0,1.0,1.0,0.0,4.0,4.0,311.8560859998069,2.0,1.0,phase_1,,,,,,,,,,,,,white,cross
38.0,1.0,1.0,0.0,1.0,1.0,286.8244159999449,2.0,1.0,phase_1,,,,,,,,,,,,,white,cross
375.0,4.0,4.0,0.0,3.0,3.0,292.7765550002732,2.0,1.0,phase_1,,,,,,,,,,,,,gray,flipped triangle
0.0,5.0,0.0,1.0,2.0,2.0,321.7906680001761,2.0,1.0,phase_1,,,,,,,,,,,,,magenta,triangle
184.0,3.0,3.0,0.0,3.0,3.0,289.5227100002557,2.0,1.0,phase_1,,,,,,,,,,,,,yellow,circle
0.0,8.0,0.0,1.0,4.0,4.0,316.16028300004467,2.0,1.0,phase_1,,,,,,,,,,,,,cyan,diamond
401.0,8.0,4.0,1.0,2.0,2.0,367.9207660002248,2.0,1.0,phase_1,,,,,,,,,,,,,cyan,diamond
409.0,8.0,4.0,1.0,1.0,1.0,378.7519350003094,3.0,1.0,phase_1,,,,,,,,,,,,,cyan,diamond
55.0,1.0,1.0,0.0,1.0,1.0,304.7601200000827,3.0,1.0,phase_1,,,,,,,,,,,,,white,cross
375.0,8.0,4.0,1.0,4.0,4.0,294.4656929998928,3.0,1.0,phase_1,,,,,,,,,,,,,cyan,diamond
0.0,4.0,0.0,0.0,1.0,1.0,281.6318350000983,3.0,1.0,phase_1,,,,,,,,,,,,,gray,flipped triangle
0.0,4.0,0.0,0.0,4.0,4.0,295.8806410001671,3.0,1.0,phase_1,,,,,,,,,,,,,gray,flipped triangle
0.0,8.0,0.0,1.0,1.0,1.0,281.3168880002195,3.0,1.0,phase_1,,,,,,,,,,,,,cyan,diamond
35.0,1.0,1.0,0.0,3.0,3.0,310.8222430000751,3.0,1.0,phase_1,,,,,,,,,,,,,white,cross
38.0,5.0,1.0,1.0,4.0,4.0,328.5498679997545,3.0,1.0,phase_1,,,,,,,,,,,,,magenta,triangle
379.0,4.0,4.0,0.0,4.0,4.0,303.8199800002985,3.0,1.0,phase_1,,,,,,,,,,,,,gray,flipped triangle
219.0,7.0,3.0,1.0,1.0,1.0,274.7471930001666,3.0,1.0,phase_1,,,,,,,,,,,,,green,I
403.0,8.0,4.0,1.0,3.0,3.0,327.1213650000391,3.0,1.0,phase_1,,,,,,,,,,,,,cyan,diamond
186.0,7.0,3.0,1.0,1.0,1.0,249.2710359997545,3.0,1.0,phase_1,,,,,,,,,,,,,green,I
121.0,2.0,2.0,0.0,3.0,3.0,351.8432079999911,3.0,2.0,phase_1,,,,,,,,,,,,,orange,square
197.0,7.0,3.0,1.0,4.0,4.0,281.8200420001631,3.0,1.0,phase_1,,,,,,,,,,,,,green,I
117.0,6.0,2.0,1.0,1.0,1.0,277.7188400000341,3.0,1.0,phase_1,,,,,,,,,,,,,blue,hexagon
220.0,3.0,3.0,0.0,1.0,1.0,326.6552170002796,3.0,1.0,phase_1,,,,,,,,,,,,,yellow,circle
0.0,1.0,0.0,0.0,3.0,3.0,322.9754939998202,3.0,1.0,phase_1,,,,,,,,,,,,,white,cross
70.0,5.0,1.0,1.0,4.0,4.0,332.44512200008097,3.0,1.0,phase_1,,,,,,,,,,,,,magenta,triangle
0.0,2.0,0.0,0.0,1.0,1.0,256.049657999938,3.0,1.0,phase_1,,,,,,,,,,,,,orange,square
411.0,4.0,4.0,0.0,1.0,1.0,329.6852870003022,3.0,1.0,phase_1,,,,,,,,,,,,,gray,flipped triangle
385.0,8.0,4.0,1.0,4.0,4.0,335.9532009999384,3.0,1.0,phase_1,,,,,,,,,,,,,cyan,diamond
57.0,5.0,1.0,1.0,2.0,2.0,409.1237270004058,3.0,1.0,phase_1,,,,,,,,,,,,,magenta,triangle
180.0,3.0,3.0,0.0,3.0,3.0,361.2104070002715,3.0,1.0,phase_1,,,,,,,,,,,,,yellow,circle
87.0,6.0,2.0,1.0,2.0,2.0,403.5907869997572,3.0,1.0,phase_1,,,,,,,,,,,,,blue,hexagon
109.0,2.0,2.0,0.0,1.0,1.0,332.3804120000204,3.0,1.0,phase_1,,,,,,,,,,,,,orange,square
394.0,4.0,4.0,0.0,4.0,4.0,315.6136830002651,3.0,1.0,phase_1,,,,,,,,,,,,,gray,flipped triangle
110.0,2.0,2.0,0.0,3.0,3.0,350.9027099999002,3.0,1.0,phase_1,,,,,,,,,,,,,orange,square
394.0,8.0,4.0,1.0,2.0,2.0,335.7059519998984,3.0,1.0,phase_1,,,,,,,,,,,,,cyan,diamond
63.0,1.0,1.0,0.0,4.0,4.0,363.8833179998073,3.0,1.0,phase_1,,,,,,,,,,,,,white,cross
188.0,7.0,3.0,1.0,1.0,1.0,279.508003999581,3.0,1.0,phase_1,,,,,,,,,,,,,green,I
407.0,8.0,4.0,1.0,2.0,2.0,262.3377200002323,3.0,1.0,phase_1,,,,,,,,,,,,,cyan,diamond
29.0,1.0,1.0,0.0,1.0,1.0,315.2990610001325,3.0,1.0,phase_1,,,,,,,,,,,,,white,cross
411.0,4.0,4.0,0.0,1.0,1.0,316.1300240003584,3.0,2.0,phase_1,,,,,,,,,,,,,gray,flipped triangle
92.0,2.0,2.0,0.0,2.0,2.0,419.1150609999567,3.0,1.0,phase_1,,,,,,,,,,,,,orange,square
116.0,6.0,2.0,1.0,1.0,1.0,326.8337590002375,3.0,1.0,phase_1,,,,,,,,,,,,,blue,hexagon
407.0,4.0,4.0,0.0,1.0,1.0,384.2702350002582,3.0,1.0,phase_1,,,,,,,,,,,,,gray,flipped triangle
385.0,4.0,4.0,0.0,3.0,3.0,377.1686869999939,3.0,1.0,phase_1,,,,,,,,,,,,,gray,flipped triangle
79.0,2.0,2.0,0.0,3.0,3.0,390.1381460000266,3.0,1.0,phase_1,,,,,,,,,,,,,orange,square
117.0,2.0,2.0,0.0,4.0,4.0,349.7927980001805,3.0,1.0,phase_1,,,,,,,,,,,,,orange,square
97.0,2.0,2.0,0.0,4.0,4.0,419.4378320003125,3.0,1.0,phase_1,,,,,,,,,,,,,orange,square
114.0,6.0,2.0,1.0,2.0,2.0,359.4409049997011,3.0,1.0,phase_1,,,,,,,,,,,,,blue,hexagon
408.0,8.0,4.0,1.0,2.0,2.0,369.3454270000984,3.0,1.0,phase_1,,,,,,,,,,,,,cyan,diamond
193.0,3.0,3.0,0.0,2.0,2.0,368.120134000037,3.0,1.0,phase_1,,,,,,,,,,,,,yellow,circle
205.0,7.0,3.0,1.0,2.0,2.0,430.8389360003275,3.0,1.0,phase_1,,,,,,,,,,,,,green,I
0.0,1.0,0.0,0.0,2.0,2.0,331.8860310000673,3.0,1.0,phase_1,,,,,,,,,,,,,white,cross
0.0,6.0,0.0,1.0,3.0,3.0,351.14147999956907,3.0,1.0,phase_1,,,,,,,,,,,,,blue,hexagon
420.0,4.0,4.0,0.0,1.0,1.0,264.5857939996858,3.0,1.0,phase_1,,,,,,,,,,,,,gray,flipped triangle
46.0,5.0,1.0,1.0,1.0,1.0,472.680474000299,3.0,1.0,phase_1,,,,,,,,,,,,,magenta,triangle
35.0,5.0,1.0,1.0,4.0,4.0,376.5396349999719,3.0,1.0,phase_1,,,,,,,,,,,,,magenta,triangle
99.0,2.0,2.0,0.0,4.0,4.0,342.6048370001808,3.0,1.0,phase_1,,,,,,,,,,,,,orange,square
55.0,5.0,1.0,1.0,3.0,3.0,353.3840939999209,3.0,1.0,phase_1,,,,,,,,,,,,,magenta,triangle
29.0,5.0,1.0,1.0,3.0,3.0,325.8598459997301,3.0,1.0,phase_1,,,,,,,,,,,,,magenta,triangle
0.0,1.0,0.0,0.0,3.0,3.0,342.7619590001995,3.0,1.0,phase_1,,,,,,,,,,,,,white,cross
0.0,1.0,0.0,0.0,1.0,1.0,295.1621339998382,3.0,1.0,phase_1,,,,,,,,,,,,,white,cross
121.0,2.0,2.0,0.0,2.0,2.0,355.1346340000236,3.0,1.0,phase_1,,,,,,,,,,,,,orange,square
101.0,6.0,2.0,1.0,2.0,2.0,314.9945919994934,3.0,1.0,phase_1,,,,,,,,,,,,,blue,hexagon
96.0,2.0,2.0,0.0,3.0,3.0,348.5747700005959,3.0,1.0,phase_1,,,,,,,,,,,,,orange,square
107.0,2.0,2.0,0.0,3.0,3.0,279.3265010004688,3.0,1.0,phase_1,,,,,,,,,,,,,orange,square
400.0,8.0,4.0,1.0,2.0,2.0,314.8196629999802,3.0,1.0,phase_1,,,,,,,,,,,,,cyan,diamond
0.0,1.0,0.0,0.0,2.0,2.0,415.1620069997079,3.0,1.0,phase_1,,,,,,,,,,,,,white,cross
0.0,8.0,0.0,1.0,1.0,1.0,295.9324449993801,3.0,1.0,phase_1,,,,,,,,,,,,,cyan,diamond
404.0,8.0,4.0,1.0,1.0,1.0,300.7065459996738,3.0,1.0,phase_1,,,,,,,,,,,,,cyan,diamond
196.0,7.0,3.0,1.0,3.0,3.0,335.0196109995522,3.0,1.0,phase_1,,,,,,,,,,,,,green,I
123.0,2.0,2.0,0.0,2.0,2.0,328.9466920004997,3.0,1.0,phase_1,,,,,,,,,,,,,orange,square
222.0,3.0,3.0,0.0,1.0,1.0,395.4523539996444,3.0,1.0,phase_1,,,,,,,,,,,,,yellow,circle
35.0,5.0,1.0,1.0,3.0,3.0,368.4459939995577,3.0,1.0,phase_1,,,,,,,,,,,,,magenta,triangle
93.0,6.0,2.0,1.0,3.0,3.0,332.3096889998851,3.0,1.0,phase_1,,,,,,,,,,,,,blue,hexagon
110.0,2.0,2.0,0.0,4.0,4.0,318.6457970004994,3.0,1.0,phase_1,,,,,,,,,,,,,orange,square
98.0,6.0,2.0,1.0,1.0,1.0,347.9377869998643,3.0,1.0,phase_1,,,,,,,,,,,,,blue,hexagon
121.0,2.0,2.0,0.0,2.0,2.0,331.2581130003309,3.0,1.0,phase_1,,,,,,,,,,,,,orange,square
77.0,2.0,2.0,0.0,3.0,3.0,307.9201990003639,3.0,1.0,phase_1,,,,,,,,,,,,,orange,square
187.0,7.0,3.0,1.0,4.0,4.0,336.6655560002982,3.0,1.0,phase_1,,,,,,,,,,,,,green,I
185.0,7.0,3.0,1.0,2.0,2.0,416.4460470001359,3.0,1.0,phase_1,,,,,,,,,,,,,green,I
98.0,2.0,2.0,0.0,1.0,1.0,291.2479200003872,3.0,1.0,phase_1,,,,,,,,,,,,,orange,square
121.0,6.0,2.0,1.0,4.0,4.0,311.8971140002031,3.0,1.0,phase_1,,,,,,,,,,,,,blue,hexagon
96.0,6.0,2.0,1.0,4.0,4.0,307.7871529994809,3.0,1.0,phase_1,,,,,,,,,,,,,blue,hexagon
408.0,4.0,4.0,0.0,3.0,3.0,326.512191000802,3.0,1.0,phase_1,,,,,,,,,,,,,gray,flipped triangle
0.0,6.0,0.0,1.0,3.0,3.0,298.222579999674,3.0,1.0,phase_1,,,,,,,,,,,,,blue,hexagon
375.0,4.0,4.0,0.0,2.0,2.0,343.5403739995308,3.0,2.0,phase_1,,,,,,,,,,,,,gray,flipped triangle
425.0,4.0,4.0,0.0,3.0,3.0,322.1327239998572,3.0,1.0,phase_1,,,,,,,,,,,,,gray,flipped triangle
0.0,3.0,0.0,0.0,4.0,4.0,373.0949000000692,3.0,1.0,phase_1,,,,,,,,,,,,,yellow,circle
100.0,6.0,2.0,1.0,2.0,2.0,468.6721219995888,3.0,1.0,phase_1,,,,,,,,,,,,,blue,hexagon
118.0,6.0,2.0,1.0,3.0,3.0,309.536196999943,3.0,1.0,phase_1,,,,,,,,,,,,,blue,hexagon
0.0,7.0,0.0,1.0,4.0,4.0,335.1717750001626,3.0,1.0,phase_1,,,,,,,,,,,,,green,I
77.0,6.0,2.0,1.0,1.0,1.0,313.9227860001483,3.0,1.0,phase_1,,,,,,,,,,,,,blue,hexagon
0.0,8.0,0.0,1.0,1.0,1.0,366.26084099953,3.0,1.0,phase_1,,,,,,,,,,,,,cyan,diamond
99.0,2.0,2.0,0.0,1.0,1.0,361.8058989995916,3.0,1.0,phase_1,,,,,,,,,,,,,orange,square
92.0,6.0,2.0,1.0,2.0,2.0,319.175004000499,3.0,1.0,phase_1,,,,,,,,,,,,,blue,hexagon
0.0,1.0,0.0,0.0,2.0,2.0,310.8769350001239,3.0,1.0,phase_1,,,,,,,,,,,,,white,cross
114.0,2.0,2.0,0.0,2.0,2.0,337.9656489996705,3.0,1.0,phase_1,,,,,,,,,,,,,orange,square
375.0,8.0,4.0,1.0,2.0,2.0,400.3006849998201,3.0,1.0,phase_1,,,,,,,,,,,,,cyan,diamond
197.0,3.0,3.0,0.0,4.0,4.0,334.379773999899,3.0,1.0,phase_1,,,,,,,,,,,,,yellow,circle
215.0,3.0,3.0,0.0,2.0,2.0,326.2093479997929,3.0,1.0,phase_1,,,,,,,,,,,,,yellow,circle
194.0,7.0,3.0,1.0,3.0,3.0,440.5513359997712,3.0,1.0,phase_1,,,,,,,,,,,,,green,I
0.0,8.0,0.0,1.0,2.0,2.0,351.2110370002119,3.0,1.0,phase_1,,,,,,,,,,,,,cyan,diamond
193.0,7.0,3.0,1.0,2.0,2.0,334.0330430000904,3.0,1.0,phase_1,,,,,,,,,,,,,green,I
411.0,8.0,4.0,1.0,3.0,3.0,327.1465550005814,3.0,1.0,phase_1,,,,,,,,,,,,,cyan,diamond
180.0,7.0,3.0,1.0,1.0,1.0,302.8329009994195,3.0,1.0,phase_1,,,,,,,,,,,,,green,I
70.0,1.0,1.0,0.0,4.0,4.0,354.4363070004692,3.0,1.0,phase_1,,,,,,,,,,,,,white,cross
0.0,2.0,0.0,0.0,2.0,2.0,316.221250000126,3.0,1.0,phase_1,,,,,,,,,,,,,orange,square
67.0,5.0,1.0,1.0,1.0,1.0,565.203105999899,4.0,1.0,phase_1,,,,,,,,,,,,,magenta,triangle
218.0,3.0,3.0,0.0,3.0,3.0,300.0719120000212,4.0,1.0,phase_1,,,,,,,,,,,,,yellow,circle
202.0,3.0,3.0,0.0,3.0,3.0,314.4090910000159,4.0,1.0,phase_1,,,,,,,,,,,,,yellow,circle
0.0,5.0,0.0,1.0,4.0,4.0,305.5517570001029,4.0,1.0,phase_1,,,,,,,,,,,,,magenta,triangle
176.0,3.0,3.0,0.0,1.0,1.0,307.1756570006982,4.0,1.0,phase_1,,,,,,,,,,,,,yellow,circle
62.0,1.0,1.0,0.0,1.0,1.0,378.1104809995668,4.0,1.0,phase_1,,,,,,,,,,,,,white,cross
101.0,2.0,2.0,0.0,1.0,1.0,305.4709369998818,4.0,1.0,phase_1,,,,,,,,,,,,,orange,square
388.0,8.0,4.0,1.0,4.0,4.0,327.186368999719,4.0,1.0,phase_1,,,,,,,,,,,,,cyan,diamond
0.0,2.0,0.0,0.0,1.0,1.0,230.2865210003801,4.0,1.0,phase_1,,,,,,,,,,,,,orange,square
29.0,1.0,1.0,0.0,2.0,2.0,306.1799220004104,4.0,1.0,phase_1,,,,,,,,,,,,,white,cross
0.0,2.0,0.0,0.0,1.0,1.0,253.3403750003344,4.0,1.0,phase_1,,,,,,,,,,,,,orange,square
208.0,3.0,3.0,0.0,2.0,2.0,329.088997999861,4.0,1.0,phase_1,,,,,,,,,,,,,yellow,circle
214.0,7.0,3.0,1.0,4.0,4.0,306.3233610000679,4.0,1.0,phase_1,,,,,,,,,,,,,green,I
92.0,6.0,2.0,1.0,1.0,1.0,287.2255719994427,4.0,1.0,phase_1,,,,,,,,,,,,,blue,hexagon
63.0,5.0,1.0,1.0,4.0,4.0,291.7957159997968,4.0,1.0,phase_1,,,,,,,,,,,,,magenta,triangle
419.0,8.0,4.0,1.0,4.0,4.0,264.2859699999462,4.0,1.0,phase_1,,,,,,,,,,,,,cyan,diamond
0.0,3.0,0.0,0.0,4.0,4.0,275.1755580002282,4.0,1.0,phase_1,,,,,,,,,,,,,yellow,circle
409.0,4.0,4.0,0.0,2.0,2.0,296.9521860004533,4.0,1.0,phase_1,,,,,,,,,,,,,gray,flipped triangle
396.0,4.0,4.0,0.0,2.0,2.0,266.7644900002415,4.0,1.0,phase_1,,,,,,,,,,,,,gray,flipped triangle
0.0,7.0,0.0,1.0,1.0,1.0,277.3694569996223,4.0,1.0,phase_1,,,,,,,,,,,,,green,I
205.0,3.0,3.0,0.0,4.0,4.0,336.998413999936,4.0,1.0,phase_1,,,,,,,,,,,,,yellow,circle
184.0,7.0,3.0,1.0,4.0,4.0,418.3753529996465,4.0,1.0,phase_1,,,,,,,,,,,,,green,I
216.0,3.0,3.0,0.0,4.0,4.0,317.7585670000553,4.0,1.0,phase_1,,,,,,,,,,,,,yellow,circle
89.0,2.0,2.0,0.0,2.0,2.0,283.0339000001913,4.0,1.0,phase_1,,,,,,,,,,,,,orange,square
0.0,5.0,0.0,1.0,2.0,2.0,276.5371289997347,4.0,1.0,phase_1,,,,,,,,,,,,,magenta,triangle
421.0,8.0,4.0,1.0,4.0,4.0,293.1657350000023,4.0,1.0,phase_1,,,,,,,,,,,,,cyan,diamond
55.0,5.0,1.0,1.0,2.0,2.0,321.8765999999959,4.0,1.0,phase_1,,,,,,,,,,,,,magenta,triangle
420.0,8.0,4.0,1.0,4.0,4.0,337.3657459997048,4.0,1.0,phase_1,,,,,,,,,,,,,cyan,diamond
46.0,1.0,1.0,0.0,3.0,3.0,386.0184190007203,4.0,1.0,phase_1,,,,,,,,,,,,,white,cross
77.0,6.0,2.0,1.0,2.0,2.0,500.89630899947224,4.0,1.0,phase_1,,,,,,,,,,,,,blue,hexagon
386.0,8.0,4.0,1.0,1.0,1.0,316.3758419996156,4.0,1.0,phase_1,,,,,,,,,,,,,cyan,diamond
0.0,4.0,0.0,0.0,3.0,3.0,292.4824749998151,4.0,1.0,phase_1,,,,,,,,,,,,,gray,flipped triangle
220.0,7.0,3.0,1.0,4.0,4.0,315.4235599995445,4.0,1.0,phase_1,,,,,,,,,,,,,green,I
31.0,1.0,1.0,0.0,1.0,1.0,279.1296350005723,4.0,1.0,phase_1,,,,,,,,,,,,,white,cross
61.0,1.0,1.0,0.0,2.0,2.0,195.6460179999339,4.0,1.0,phase_1,,,,,,,,,,,,,white,cross
198.0,7.0,3.0,1.0,4.0,4.0,279.2898210000203,4.0,1.0,phase_1,,,,,,,,,,,,,green,I
101.0,2.0,2.0,0.0,4.0,4.0,301.6258750003544,4.0,1.0,phase_1,,,,,,,,,,,,,orange,square
100.0,2.0,2.0,0.0,1.0,1.0,285.5378770000243,4.0,1.0,phase_1,,,,,,,,,,,,,orange,square
393.0,4.0,4.0,0.0,4.0,4.0,306.8095059998086,4.0,1.0,phase_1,,,,,,,,,,,,,gray,flipped triangle
396.0,8.0,4.0,1.0,3.0,3.0,291.9152960002975,4.0,1.0,phase_1,,,,,,,,,,,,,cyan,diamond
200.0,3.0,3.0,0.0,4.0,4.0,305.3331239998442,4.0,1.0,phase_1,,,,,,,,,,,,,yellow,circle
175.0,7.0,3.0,1.0,3.0,3.0,296.3580179994096,4.0,1.0,phase_1,,,,,,,,,,,,,green,I
58.0,5.0,1.0,1.0,1.0,1.0,245.8445490001395,4.0,1.0,phase_1,,,,,,,,,,,,,magenta,triangle
43.0,1.0,1.0,0.0,1.0,1.0,296.9598530007715,4.0,1.0,phase_1,,,,,,,,,,,,,white,cross
73.0,1.0,1.0,0.0,1.0,1.0,299.5668180001303,4.0,1.0,phase_1,,,,,,,,,,,,,white,cross
80.0,2.0,2.0,0.0,1.0,1.0,326.2253909997525,4.0,1.0,phase_1,,,,,,,,,,,,,orange,square
0.0,4.0,0.0,0.0,2.0,2.0,301.9638069999928,4.0,1.0,phase_1,,,,,,,,,,,,,gray,flipped triangle
405.0,8.0,4.0,1.0,1.0,1.0,278.4064500001477,4.0,1.0,phase_1,,,,,,,,,,,,,cyan,diamond
0.0,8.0,0.0,1.0,3.0,3.0,379.4575120000445,4.0,1.0,phase_1,,,,,,,,,,,,,cyan,diamond
214.0,3.0,3.0,0.0,2.0,2.0,289.8778729995683,4.0,1.0,phase_1,,,,,,,,,,,,,yellow,circle
411.0,8.0,4.0,1.0,4.0,4.0,336.5014250002787,4.0,2.0,phase_1,,,,,,,,,,,,,cyan,diamond
0.0,7.0,0.0,1.0,3.0,3.0,351.0347770006774,4.0,1.0,phase_1,,,,,,,,,,,,,green,I
218.0,7.0,3.0,1.0,1.0,1.0,287.6835019997088,4.0,1.0,phase_1,,,,,,,,,,,,,green,I
0.0,5.0,0.0,1.0,3.0,3.0,318.5818219999419,4.0,1.0,phase_1,,,,,,,,,,,,,magenta,triangle
0.0,3.0,0.0,0.0,3.0,3.0,334.1693510001278,4.0,1.0,phase_1,,,,,,,,,,,,,yellow,circle
55.0,1.0,1.0,0.0,2.0,2.0,298.911517000306,4.0,1.0,phase_1,,,,,,,,,,,,,white,cross
89.0,6.0,2.0,1.0,4.0,4.0,298.1428410002991,4.0,1.0,phase_1,,,,,,,,,,,,,blue,hexagon
179.0,3.0,3.0,0.0,3.0,3.0,296.5096839998296,4.0,1.0,phase_1,,,,,,,,,,,,,yellow,circle
0.0,6.0,0.0,1.0,1.0,1.0,251.97662899972778,4.0,1.0,phase_1,,,,,,,,,,,,,blue,hexagon
0.0,3.0,0.0,0.0,4.0,4.0,306.5661669998007,4.0,1.0,phase_1,,,,,,,,,,,,,yellow,circle
389.0,4.0,4.0,0.0,4.0,4.0,324.5365619995937,4.0,1.0,phase_1,,,,,,,,,,,,,gray,flipped triangle
29.0,5.0,1.0,1.0,4.0,4.0,305.771561000256,4.0,1.0,phase_1,,,,,,,,,,,,,magenta,triangle
0.0,5.0,0.0,1.0,4.0,4.0,284.0964189999795,4.0,1.0,phase_1,,,,,,,,,,,,,magenta,triangle
53.0,1.0,1.0,0.0,3.0,3.0,378.9147090001279,4.0,1.0,phase_1,,,,,,,,,,,,,white,cross
0.0,6.0,0.0,1.0,3.0,3.0,287.7830620000168,4.0,1.0,phase_1,,,,,,,,,,,,,blue,hexagon
71.0,5.0,1.0,1.0,2.0,2.0,346.1245609996695,4.0,1.0,phase_1,,,,,,,,,,,,,magenta,triangle
32.0,1.0,1.0,0.0,2.0,2.0,195.9943089996159,4.0,2.0,phase_1,,,,,,,,,,,,,white,cross
87.0,6.0,2.0,1.0,4.0,4.0,304.2317859999457,4.0,1.0,phase_1,,,,,,,,,,,,,blue,hexagon
404.0,4.0,4.0,0.0,3.0,3.0,330.6494190001103,4.0,1.0,phase_1,,,,,,,,,,,,,gray,flipped triangle
121.0,6.0,2.0,1.0,2.0,2.0,267.9137479999554,4.0,1.0,phase_1,,,,,,,,,,,,,blue,hexagon
73.0,5.0,1.0,1.0,4.0,4.0,292.4212019997867,4.0,1.0,phase_1,,,,,,,,,,,,,magenta,triangle
35.0,1.0,1.0,0.0,2.0,2.0,303.2360759998482,4.0,1.0,phase_1,,,,,,,,,,,,,white,cross
53.0,5.0,1.0,1.0,1.0,1.0,292.441743999916,4.0,1.0,phase_1,,,,,,,,,,,,,magenta,triangle
0.0,3.0,0.0,0.0,3.0,3.0,312.4486850001631,4.0,1.0,phase_1,,,,,,,,,,,,,yellow,circle
182.0,7.0,3.0,1.0,2.0,2.0,304.3460270000651,4.0,2.0,phase_1,,,,,,,,,,,,,green,I
187.0,7.0,3.0,1.0,3.0,3.0,301.8216919999759,4.0,1.0,phase_1,,,,,,,,,,,,,green,I
53.0,5.0,1.0,1.0,3.0,3.0,405.2909900001396,4.0,1.0,phase_1,,,,,,,,,,,,,magenta,triangle
65.0,5.0,1.0,1.0,2.0,2.0,283.9862210003048,4.0,1.0,phase_1,,,,,,,,,,,,,magenta,triangle
212.0,3.0,3.0,0.0,3.0,3.0,319.9286349999966,4.0,1.0,phase_1,,,,,,,,,,,,,yellow,circle
394.0,4.0,4.0,0.0,2.0,2.0,394.8252800000773,4.0,1.0,phase_1,,,,,,,,,,,,,gray,flipped triangle
58.0,1.0,1.0,0.0,3.0,3.0,268.899446999967,4.0,1.0,phase_1,,,,,,,,,,,,,white,cross
92.0,6.0,2.0,1.0,4.0,4.0,315.6369640000775,4.0,1.0,phase_1,,,,,,,,,,,,,blue,hexagon
121.0,6.0,2.0,1.0,3.0,3.0,305.6308160003027,4.0,1.0,phase_1,,,,,,,,,,,,,blue,hexagon
78.0,6.0,2.0,1.0,3.0,3.0,325.6627119999393,4.0,1.0,phase_1,,,,,,,,,,,,,blue,hexagon
375.0,4.0,4.0,0.0,2.0,2.0,332.8003269998589,4.0,1.0,phase_1,,,,,,,,,,,,,gray,flipped triangle
179.0,7.0,3.0,1.0,1.0,1.0,972.587812000711,4.0,1.0,phase_1,,,,,,,,,,,,,green,I
220.0,3.0,3.0,0.0,2.0,2.0,332.6524820004124,4.0,1.0,phase_1,,,,,,,,,,,,,yellow,circle
0.0,6.0,0.0,1.0,4.0,4.0,312.4709989997427,4.0,1.0,phase_1,,,,,,,,,,,,,blue,hexagon
57.0,1.0,1.0,0.0,3.0,3.0,321.7584849999184,4.0,1.0,phase_1,,,,,,,,,,,,,white,cross
396.0,8.0,4.0,1.0,1.0,1.0,356.2124820000463,4.0,1.0,phase_1,,,,,,,,,,,,,cyan,diamond
85.0,6.0,2.0,1.0,1.0,1.0,327.4929580002208,4.0,1.0,phase_1,,,,,,,,,,,,,blue,hexagon
200.0,7.0,3.0,1.0,1.0,1.0,333.7564319999728,4.0,1.0,phase_1,,,,,,,,,,,,,green,I
0.0,3.0,0.0,0.0,3.0,3.0,339.2712649992973,4.0,1.0,phase_1,,,,,,,,,,,,,yellow,circle
200.0,3.0,3.0,0.0,4.0,4.0,277.1145329998035,4.0,1.0,phase_1,,,,,,,,,,,,,yellow,circle
382.0,8.0,4.0,1.0,3.0,3.0,359.2655219999869,4.0,1.0,phase_1,,,,,,,,,,,,,cyan,diamond
194.0,3.0,3.0,0.0,2.0,2.0,294.0847210002175,4.0,1.0,phase_1,,,,,,,,,,,,,yellow,circle
393.0,8.0,4.0,1.0,3.0,3.0,313.3844989997669,4.0,1.0,phase_1,,,,,,,,,,,,,cyan,diamond
0.0,6.0,0.0,1.0,4.0,4.0,308.9535330000217,4.0,1.0,phase_1,,,,,,,,,,,,,blue,hexagon
396.0,8.0,4.0,1.0,3.0,3.0,334.0665319992695,4.0,1.0,phase_1,,,,,,,,,,,,,cyan,diamond
401.0,4.0,4.0,0.0,4.0,4.0,367.3270580002281,4.0,1.0,phase_1,,,,,,,,,,,,,gray,flipped triangle
0.0,4.0,4.0,0.0,6.0,6.0,432.0773279996501,1.0,1.0,phase_2,go,250.0,250.0,1.0,,,,,,,,,gray,flipped triangle
0.0,2.0,2.0,0.0,6.0,6.0,429.4660659998044,1.0,1.0,phase_2,go,250.0,250.0,1.0,,,,,,,,,orange,square
0.0,7.0,3.0,1.0,5.0,0.0,0.0,1.0,1.0,phase_2,stop,250.0,250.0,4.0,,,,,,,,,green,I
0.0,3.0,3.0,0.0,5.0,5.0,426.7889350003315,1.0,1.0,phase_2,go,300.0,250.0,1.0,,,,,,,,,yellow,circle
0.0,5.0,1.0,1.0,5.0,0.0,0.0,1.0,1.0,phase_2,stop,300.0,250.0,4.0,,,,,,,,,magenta,triangle
0.0,2.0,2.0,0.0,5.0,5.0,826.3847079997504,1.0,1.0,phase_2,go,350.0,250.0,1.0,,,,,,,,,orange,square
0.0,2.0,2.0,0.0,5.0,5.0,797.5661039999977,1.0,1.0,phase_2,go,350.0,250.0,1.0,,,,,,,,,orange,square
0.0,2.0,2.0,0.0,6.0,6.0,898.6552589994972,1.0,1.0,phase_2,go,350.0,250.0,1.0,,,,,,,,,orange,square
0.0,3.0,3.0,0.0,5.0,5.0,750.1892959999168,1.0,1.0,phase_2,go,350.0,250.0,1.0,,,,,,,,,yellow,circle
0.0,7.0,3.0,1.0,6.0,6.0,1040.4573839996374,1.0,1.0,phase_2,go,350.0,250.0,1.0,,,,,,,,,green,I
0.0,4.0,4.0,0.0,5.0,5.0,1041.7709839994131,1.0,1.0,phase_2,go,350.0,250.0,1.0,,,,,,,,,gray,flipped triangle
0.0,4.0,4.0,0.0,6.0,6.0,927.343507999467,1.0,1.0,phase_2,go,350.0,250.0,1.0,,,,,,,,,gray,flipped triangle
0.0,4.0,4.0,0.0,5.0,5.0,774.6696639997026,1.0,1.0,phase_2,go,350.0,250.0,1.0,,,,,,,,,gray,flipped triangle
0.0,6.0,2.0,1.0,6.0,0.0,0.0,1.0,1.0,phase_2,stop,350.0,250.0,4.0,,,,,,,,,blue,hexagon
0.0,8.0,4.0,1.0,5.0,5.0,532.4340949991893,1.0,1.0,phase_2,stop,350.0,300.0,3.0,,,,,,,,,cyan,diamond
0.0,3.0,3.0,0.0,6.0,6.0,985.4881510000268,1.0,1.0,phase_2,go,300.0,300.0,1.0,,,,,,,,,yellow,circle
0.0,5.0,1.0,1.0,6.0,0.0,0.0,1.0,1.0,phase_2,stop,300.0,300.0,4.0,,,,,,,,,magenta,triangle
0.0,4.0,4.0,0.0,6.0,6.0,960.308499000348,1.0,1.0,phase_2,go,300.0,350.0,1.0,,,,,,,,,gray,flipped triangle
0.0,8.0,4.0,1.0,6.0,6.0,1030.7460579997496,1.0,1.0,phase_2,go,300.0,350.0,1.0,,,,,,,,,cyan,diamond
0.0,3.0,3.0,0.0,6.0,6.0,867.7367420004884,1.0,1.0,phase_2,go,300.0,350.0,1.0,,,,,,,,,yellow,circle
0.0,7.0,3.0,1.0,5.0,0.0,0.0,1.0,1.0,phase_2,stop,300.0,350.0,4.0,,,,,,,,,green,I
0.0,4.0,4.0,0.0,5.0,5.0,1025.0001399999746,1.0,1.0,phase_2,go,350.0,350.0,1.0,,,,,,,,,gray,flipped triangle
0.0,6.0,2.0,1.0,6.0,0.0,0.0,1.0,1.0,phase_2,stop,350.0,350.0,4.0,,,,,,,,,blue,hexagon
0.0,4.0,4.0,0.0,6.0,6.0,748.4243210001296,1.0,1.0,phase_2,go,350.0,400.0,1.0,,,,,,,,,gray,flipped triangle
0.0,3.0,3.0,0.0,5.0,5.0,778.2383320000008,1.0,1.0,phase_2,go,350.0,400.0,1.0,,,,,,,,,yellow,circle
0.0,3.0,3.0,0.0,6.0,6.0,809.4982470001924,1.0,1.0,phase_2,go,350.0,400.0,1.0,,,,,,,,,yellow,circle
0.0,6.0,2.0,1.0,5.0,5.0,788.6670460002279,1.0,1.0,phase_2,go,350.0,400.0,1.0,,,,,,,,,blue,hexagon
0.0,5.0,1.0,1.0,5.0,0.0,0.0,1.0,1.0,phase_2,stop,350.0,400.0,4.0,,,,,,,,,magenta,triangle
0.0,3.0,3.0,0.0,5.0,5.0,508.23641900024086,1.0,1.0,phase_2,go,400.0,400.0,1.0,,,,,,,,,yellow,circle
0.0,7.0,3.0,1.0,5.0,0.0,0.0,1.0,1.0,phase_2,stop,400.0,400.0,4.0,,,,,,,,,green,I
0.0,6.0,2.0,1.0,5.0,0.0,0.0,1.0,1.0,phase_2,stop,450.0,400.0,4.0,,,,,,,,,blue,hexagon
0.0,2.0,2.0,0.0,5.0,5.0,722.1561060005115,1.0,1.0,phase_2,go,500.0,400.0,1.0,,,,,,,,,orange,square
0.0,2.0,2.0,0.0,6.0,6.0,780.6667959994229,1.0,1.0,phase_2,go,500.0,400.0,1.0,,,,,,,,,orange,square
0.0,7.0,3.0,1.0,5.0,0.0,0.0,1.0,1.0,phase_2,stop,500.0,400.0,4.0,,,,,,,,,green,I
0.0,2.0,2.0,0.0,6.0,6.0,793.490328000189,1.0,1.0,phase_2,go,550.0,400.0,1.0,,,,,,,,,orange,square
0.0,1.0,1.0,0.0,5.0,5.0,687.4328180001612,1.0,1.0,phase_2,go,550.0,400.0,1.0,,,,,,,,,white,cross
0.0,7.0,3.0,1.0,5.0,5.0,459.9521189993538,2.0,1.0,phase_2,stop,550.0,400.0,3.0,,,,,,,,,green,I
0.0,3.0,3.0,0.0,5.0,5.0,301.8423720004648,2.0,1.0,phase_2,go,500.0,400.0,1.0,,,,,,,,,yellow,circle
0.0,7.0,3.0,1.0,5.0,5.0,307.1415880003769,2.0,1.0,phase_2,stop,500.0,400.0,3.0,,,,,,,,,green,I
0.0,8.0,4.0,1.0,5.0,0.0,0.0,2.0,1.0,phase_2,stop,450.0,400.0,4.0,,,,,,,,,cyan,diamond
0.0,5.0,1.0,1.0,5.0,5.0,340.2701459999662,2.0,1.0,phase_2,go,500.0,400.0,1.0,,,,,,,,,magenta,triangle
0.0,6.0,2.0,1.0,5.0,5.0,371.1339329993279,2.0,1.0,phase_2,go,500.0,400.0,1.0,,,,,,,,,blue,hexagon
0.0,4.0,4.0,0.0,5.0,5.0,453.8732809996872,2.0,1.0,phase_2,go,500.0,400.0,1.0,,,,,,,,,gray,flipped triangle
0.0,7.0,3.0,1.0,5.0,5.0,315.0188139998136,2.0,1.0,phase_2,stop,500.0,400.0,3.0,,,,,,,,,green,I
0.0,6.0,2.0,1.0,5.0,0.0,0.0,2.0,1.0,phase_2,stop,450.0,400.0,4.0,,,,,,,,,blue,hexagon
0.0,4.0,4.0,0.0,5.0,5.0,499.1458200001943,2.0,1.0,phase_2,go,500.0,400.0,1.0,,,,,,,,,gray,flipped triangle
0.0,7.0,3.0,1.0,6.0,6.0,382.3879339997802,2.0,1.0,phase_2,go,500.0,400.0,1.0,,,,,,,,,green,I
0.0,1.0,1.0,0.0,5.0,5.0,585.2018750001662,2.0,1.0,phase_2,go,500.0,400.0,1.0,,,,,,,,,white,cross
0.0,7.0,3.0,1.0,6.0,6.0,256.7462300003171,2.0,1.0,phase_2,stop,500.0,400.0,3.0,,,,,,,,,green,I
0.0,8.0,4.0,1.0,5.0,5.0,446.4780700000119,2.0,1.0,phase_2,stop,500.0,350.0,3.0,,,,,,,,,cyan,diamond
0.0,7.0,3.0,1.0,6.0,0.0,0.0,2.0,1.0,phase_2,stop,450.0,350.0,4.0,,,,,,,,,green,I
0.0,1.0,1.0,0.0,6.0,6.0,590.8350670006257,2.0,1.0,phase_2,go,450.0,400.0,1.0,,,,,,,,,white,cross
0.0,6.0,2.0,1.0,6.0,6.0,450.3370820002601,2.0,1.0,phase_2,stop,450.0,400.0,3.0,,,,,,,,,blue,hexagon
0.0,5.0,1.0,1.0,5.0,0.0,0.0,2.0,1.0,phase_2,stop,450.0,350.0,4.0,,,,,,,,,magenta,triangle
0.0,4.0,4.0,0.0,6.0,6.0,308.6579159999019,2.0,1.0,phase_2,go,500.0,350.0,1.0,,,,,,,,,gray,flipped triangle
0.0,6.0,2.0,1.0,5.0,5.0,552.8626320001422,2.0,1.0,phase_2,stop,500.0,350.0,3.0,,,,,,,,,blue,hexagon
0.0,3.0,3.0,0.0,6.0,6.0,564.8274420000234,2.0,1.0,phase_2,go,450.0,350.0,1.0,,,,,,,,,yellow,circle
0.0,8.0,4.0,1.0,5.0,5.0,404.0895309999541,2.0,1.0,phase_2,go,450.0,350.0,1.0,,,,,,,,,cyan,diamond
0.0,1.0,1.0,0.0,5.0,5.0,403.3226620003916,2.0,1.0,phase_2,go,450.0,350.0,1.0,,,,,,,,,white,cross
0.0,8.0,4.0,1.0,6.0,6.0,461.78679500008,2.0,1.0,phase_2,stop,450.0,350.0,3.0,,,,,,,,,cyan,diamond
0.0,3.0,3.0,0.0,5.0,5.0,706.849424000211,2.0,1.0,phase_2,go,450.0,300.0,1.0,,,,,,,,,yellow,circle
0.0,3.0,3.0,0.0,5.0,5.0,385.4451309998694,2.0,1.0,phase_2,go,450.0,300.0,1.0,,,,,,,,,yellow,circle
0.0,5.0,1.0,1.0,5.0,5.0,309.6192610000798,2.0,1.0,phase_2,stop,450.0,300.0,3.0,,,,,,,,,magenta,triangle
0.0,1.0,1.0,0.0,5.0,5.0,442.831945000762,2.0,1.0,phase_2,go,400.0,300.0,1.0,,,,,,,,,white,cross
0.0,5.0,1.0,1.0,6.0,6.0,338.8611589998618,2.0,1.0,phase_2,go,400.0,300.0,1.0,,,,,,,,,magenta,triangle
0.0,6.0,2.0,1.0,5.0,5.0,447.4911050001537,2.0,1.0,phase_2,stop,400.0,300.0,3.0,,,,,,,,,blue,hexagon
0.0,6.0,2.0,1.0,6.0,0.0,0.0,2.0,1.0,phase_2,stop,350.0,300.0,4.0,,,,,,,,,blue,hexagon
0.0,8.0,4.0,1.0,5.0,5.0,408.9524950004488,2.0,1.0,phase_2,stop,350.0,350.0,3.0,,,,,,,,,cyan,diamond
0.0,3.0,3.0,0.0,6.0,6.0,574.9106889998075,2.0,1.0,phase_2,go,300.0,350.0,1.0,,,,,,,,,yellow,circle
0.0,8.0,4.0,1.0,6.0,6.0,300.2395069997874,2.0,1.0,phase_2,stop,300.0,350.0,3.0,,,,,,,,,cyan,diamond
0.0,8.0,4.0,1.0,5.0,5.0,292.4883369996678,2.0,1.0,phase_2,go,300.0,300.0,1.0,,,,,,,,,cyan,diamond
0.0,8.0,4.0,1.0,6.0,6.0,356.9515969993517,2.0,1.0,phase_2,stop,300.0,300.0,3.0,,,,,,,,,cyan,diamond
0.0,6.0,2.0,1.0,5.0,0.0,0.0,3.0,1.0,phase_2,stop,300.0,250.0,4.0,,,,,,,,,blue,hexagon
0.0,8.0,4.0,1.0,6.0,6.0,352.3963320003531,3.0,1.0,phase_2,stop,350.0,250.0,3.0,,,,,,,,,cyan,diamond
0.0,1.0,1.0,0.0,6.0,6.0,673.3650969999871,3.0,1.0,phase_2,go,350.0,200.0,1.0,,,,,,,,,white,cross
0.0,3.0,3.0,0.0,6.0,6.0,394.2096620003212,3.0,1.0,phase_2,go,350.0,200.0,1.0,,,,,,,,,yellow,circle
0.0,2.0,2.0,0.0,5.0,5.0,482.57095200006,3.0,1.0,phase_2,go,350.0,200.0,1.0,,,,,,,,,orange,square
0.0,5.0,1.0,1.0,5.0,5.0,290.6558479999148,3.0,1.0,phase_2,go,350.0,200.0,1.0,,,,,,,,,magenta,triangle
0.0,8.0,4.0,1.0,5.0,5.0,336.988797000231,3.0,1.0,phase_2,stop,350.0,200.0,3.0,,,,,,,,,cyan,diamond
0.0,1.0,1.0,0.0,5.0,5.0,657.2612330000993,3.0,1.0,phase_2,go,300.0,200.0,1.0,,,,,,,,,white,cross
0.0,6.0,2.0,1.0,6.0,6.0,271.3429800005542,3.0,1.0,phase_2,stop,300.0,200.0,3.0,,,,,,,,,blue,hexagon
0.0,3.0,3.0,0.0,5.0,5.0,668.1283249999979,3.0,1.0,phase_2,go,300.0,150.0,1.0,,,,,,,,,yellow,circle
0.0,5.0,1.0,1.0,6.0,6.0,277.0032660000652,3.0,1.0,phase_2,stop,300.0,150.0,3.0,,,,,,,,,magenta,triangle
0.0,8.0,4.0,1.0,6.0,6.0,289.170954999463,3.0,1.0,phase_2,stop,300.0,100.0,3.0,,,,,,,,,cyan,diamond
0.0,3.0,3.0,0.0,6.0,6.0,541.7913750006846,3.0,1.0,phase_2,go,300.0,50.0,1.0,,,,,,,,,yellow,circle
0.0,2.0,2.0,0.0,5.0,5.0,355.1061739999568,3.0,1.0,phase_2,go,300.0,50.0,1.0,,,,,,,,,orange,square
0.0,6.0,2.0,1.0,6.0,0.0,0.0,3.0,1.0,phase_2,stop,300.0,50.0,4.0,,,,,,,,,blue,hexagon
0.0,6.0,2.0,1.0,6.0,6.0,338.3788789997197,3.0,1.0,phase_2,go,300.0,100.0,1.0,,,,,,,,,blue,hexagon
0.0,6.0,2.0,1.0,6.0,6.0,323.5824390003472,3.0,1.0,phase_2,go,300.0,100.0,1.0,,,,,,,,,blue,hexagon
0.0,8.0,4.0,1.0,6.0,6.0,621.7909300003157,3.0,1.0,phase_2,go,300.0,100.0,1.0,,,,,,,,,cyan,diamond
0.0,7.0,3.0,1.0,5.0,5.0,287.4458859996593,3.0,1.0,phase_2,stop,300.0,100.0,3.0,,,,,,,,,green,I
0.0,6.0,2.0,1.0,5.0,5.0,375.7991459997356,3.0,1.0,phase_2,go,250.0,100.0,1.0,,,,,,,,,blue,hexagon
0.0,4.0,4.0,0.0,6.0,6.0,519.7851129996707,3.0,1.0,phase_2,go,250.0,100.0,1.0,,,,,,,,,gray,flipped triangle
0.0,4.0,4.0,0.0,6.0,6.0,518.9749040000606,3.0,1.0,phase_2,go,250.0,100.0,1.0,,,,,,,,,gray,flipped triangle
0.0,6.0,2.0,1.0,6.0,0.0,0.0,3.0,1.0,phase_2,stop,250.0,100.0,4.0,,,,,,,,,blue,hexagon
0.0,7.0,3.0,1.0,5.0,5.0,289.3973350001033,3.0,1.0,phase_2,go,250.0,150.0,1.0,,,,,,,,,green,I
0.0,1.0,1.0,0.0,6.0,6.0,429.6732810007597,3.0,1.0,phase_2,go,250.0,150.0,1.0,,,,,,,,,white,cross
0.0,6.0,2.0,1.0,5.0,5.0,475.2667129996553,3.0,1.0,phase_2,go,250.0,150.0,1.0,,,,,,,,,blue,hexagon
0.0,3.0,3.0,0.0,5.0,5.0,483.6341720001655,3.0,1.0,phase_2,go,250.0,150.0,1.0,,,,,,,,,yellow,circle
0.0,5.0,1.0,1.0,5.0,5.0,298.1414449996009,3.0,1.0,phase_2,go,250.0,150.0,1.0,,,,,,,,,magenta,triangle
0.0,8.0,4.0,1.0,6.0,0.0,0.0,3.0,1.0,phase_2,stop,250.0,150.0,4.0,,,,,,,,,cyan,diamond
0.0,6.0,2.0,1.0,5.0,0.0,0.0,3.0,1.0,phase_2,stop,250.0,200.0,4.0,,,,,,,,,blue,hexagon
0.0,6.0,2.0,1.0,6.0,6.0,334.2064280004706,3.0,1.0,phase_2,stop,300.0,200.0,3.0,,,,,,,,,blue,hexagon
0.0,1.0,1.0,0.0,6.0,6.0,513.1792940001105,3.0,1.0,phase_2,go,300.0,150.0,1.0,,,,,,,,,white,cross
0.0,3.0,3.0,0.0,5.0,5.0,543.3058889993845,3.0,1.0,phase_2,go,300.0,150.0,1.0,,,,,,,,,yellow,circle
0.0,1.0,1.0,0.0,5.0,5.0,586.4740319993871,3.0,1.0,phase_2,go,300.0,150.0,1.0,,,,,,,,,white,cross
0.0,8.0,4.0,1.0,6.0,6.0,483.0115140002817,3.0,1.0,phase_2,go,300.0,150.0,1.0,,,,,,,,,cyan,diamond
0.0,3.0,3.0,0.0,5.0,5.0,474.603871999534,3.0,1.0,phase_2,go,300.0,150.0,1.0,,,,,,,,,yellow,circle
0.0,5.0,1.0,1.0,6.0,6.0,600.4118709997783,4.0,1.0,phase_2,go,300.0,150.0,1.0,,,,,,,,,magenta,triangle
0.0,1.0,1.0,0.0,6.0,6.0,389.4264450000264,4.0,1.0,phase_2,go,300.0,150.0,1.0,,,,,,,,,white,cross
0.0,5.0,1.0,1.0,5.0,5.0,388.2370040000751,4.0,1.0,phase_2,stop,300.0,150.0,3.0,,,,,,,,,magenta,triangle
0.0,7.0,3.0,1.0,5.0,0.0,0.0,4.0,1.0,phase_2,stop,250.0,150.0,4.0,,,,,,,,,green,I
0.0,1.0,1.0,0.0,5.0,5.0,388.364800999625,4.0,1.0,phase_2,go,300.0,150.0,1.0,,,,,,,,,white,cross
0.0,1.0,1.0,0.0,5.0,5.0,332.1689519998472,4.0,1.0,phase_2,go,300.0,150.0,1.0,,,,,,,,,white,cross
0.0,8.0,4.0,1.0,6.0,0.0,0.0,4.0,1.0,phase_2,stop,300.0,150.0,4.0,,,,,,,,,cyan,diamond
0.0,7.0,3.0,1.0,5.0,5.0,407.3983670004963,4.0,1.0,phase_2,stop,300.0,200.0,3.0,,,,,,,,,green,I
0.0,7.0,3.0,1.0,6.0,0.0,0.0,4.0,1.0,phase_2,stop,250.0,200.0,4.0,,,,,,,,,green,I
0.0,5.0,1.0,1.0,6.0,6.0,371.4611719997265,4.0,1.0,phase_2,go,250.0,250.0,1.0,,,,,,,,,magenta,triangle
0.0,2.0,2.0,0.0,6.0,6.0,383.2903700003953,4.0,1.0,phase_2,go,250.0,250.0,1.0,,,,,,,,,orange,square
0.0,4.0,4.0,0.0,5.0,5.0,347.9555130006702,4.0,1.0,phase_2,go,250.0,250.0,1.0,,,,,,,,,gray,flipped triangle
0.0,7.0,3.0,1.0,6.0,0.0,0.0,4.0,1.0,phase_2,stop,250.0,250.0,4.0,,,,,,,,,green,I
0.0,3.0,3.0,0.0,6.0,6.0,315.9567669999887,4.0,1.0,phase_2,go,250.0,300.0,1.0,,,,,,,,,yellow,circle
0.0,6.0,2.0,1.0,5.0,0.0,0.0,4.0,1.0,phase_2,stop,250.0,300.0,4.0,,,,,,,,,blue,hexagon
0.0,6.0,2.0,1.0,5.0,0.0,0.0,4.0,1.0,phase_2,stop,300.0,300.0,4.0,,,,,,,,,blue,hexagon
0.0,2.0,2.0,0.0,5.0,5.0,335.4837880006016,4.0,1.0,phase_2,go,350.0,300.0,1.0,,,,,,,,,orange,square
0.0,5.0,1.0,1.0,6.0,6.0,272.8612250002697,4.0,1.0,phase_2,stop,350.0,300.0,3.0,,,,,,,,,magenta,triangle
0.0,7.0,3.0,1.0,6.0,0.0,0.0,4.0,1.0,phase_2,stop,350.0,250.0,4.0,,,,,,,,,green,I
0.0,4.0,4.0,0.0,6.0,6.0,399.3340750002971,4.0,1.0,phase_2,go,350.0,300.0,1.0,,,,,,,,,gray,flipped triangle
0.0,1.0,1.0,0.0,6.0,6.0,442.2524299998258,4.0,1.0,phase_2,go,350.0,300.0,1.0,,,,,,,,,white,cross
0.0,3.0,3.0,0.0,5.0,5.0,387.3421950002012,4.0,1.0,phase_2,go,350.0,300.0,1.0,,,,,,,,,yellow,circle
0.0,2.0,2.0,0.0,6.0,6.0,408.5667489998741,4.0,1.0,phase_2,go,350.0,300.0,1.0,,,,,,,,,orange,square
0.0,5.0,1.0,1.0,5.0,5.0,379.1203389992006,4.0,1.0,phase_2,go,350.0,300.0,1.0,,,,,,,,,magenta,triangle
0.0,5.0,1.0,1.0,5.0,5.0,420.7296360000327,4.0,1.0,phase_2,stop,350.0,300.0,3.0,,,,,,,,,magenta,triangle
0.0,8.0,4.0,1.0,5.0,0.0,0.0,4.0,1.0,phase_2,stop,300.0,300.0,4.0,,,,,,,,,cyan,diamond
0.0,2.0,2.0,0.0,6.0,6.0,319.3078189997322,4.0,1.0,phase_2,go,350.0,300.0,1.0,,,,,,,,,orange,square
0.0,4.0,4.0,0.0,5.0,5.0,466.7786230002093,4.0,1.0,phase_2,go,350.0,300.0,1.0,,,,,,,,,gray,flipped triangle
0.0,4.0,4.0,0.0,5.0,5.0,556.2577760001659,4.0,1.0,phase_2,go,350.0,300.0,1.0,,,,,,,,,gray,flipped triangle
0.0,3.0,3.0,0.0,5.0,5.0,454.4788670000343,4.0,1.0,phase_2,go,350.0,300.0,1.0,,,,,,,,,yellow,circle
0.0,5.0,1.0,1.0,5.0,5.0,439.0495369998461,4.0,1.0,phase_2,stop,350.0,300.0,3.0,,,,,,,,,magenta,triangle
0.0,5.0,1.0,1.0,6.0,6.0,552.1607219998259,4.0,1.0,phase_2,go,300.0,300.0,1.0,,,,,,,,,magenta,triangle
0.0,7.0,3.0,1.0,5.0,0.0,0.0,4.0,1.0,phase_2,stop,300.0,300.0,4.0,,,,,,,,,green,I
0.0,2.0,2.0,0.0,5.0,5.0,425.1347700001133,4.0,1.0,phase_2,go,350.0,300.0,1.0,,,,,,,,,orange,square
0.0,5.0,1.0,1.0,6.0,6.0,469.8216169999796,4.0,1.0,phase_2,stop,350.0,300.0,3.0,,,,,,,,,magenta,triangle
0.0,2.0,2.0,0.0,5.0,5.0,565.2882529993803,4.0,1.0,phase_2,go,350.0,250.0,1.0,,,,,,,,,orange,square
0.0,6.0,2.0,1.0,5.0,5.0,463.5966389996611,5.0,1.0,phase_2,stop,350.0,250.0,3.0,,,,,,,,,blue,hexagon
0.0,1.0,1.0,0.0,6.0,6.0,419.5156599998881,5.0,1.0,phase_2,go,300.0,250.0,1.0,,,,,,,,,white,cross
0.0,7.0,3.0,1.0,6.0,0.0,0.0,5.0,1.0,phase_2,stop,300.0,250.0,4.0,,,,,,,,,green,I
0.0,3.0,3.0,0.0,5.0,5.0,333.8927780005178,5.0,1.0,phase_2,go,300.0,300.0,1.0,,,,,,,,,yellow,circle
0.0,8.0,4.0,1.0,5.0,5.0,343.212128000232,5.0,1.0,phase_2,stop,300.0,300.0,3.0,,,,,,,,,cyan,diamond
0.0,1.0,1.0,0.0,5.0,5.0,363.8787609997962,5.0,1.0,phase_2,go,250.0,300.0,1.0,,,,,,,,,white,cross
0.0,7.0,3.0,1.0,6.0,0.0,0.0,5.0,1.0,phase_2,stop,250.0,300.0,4.0,,,,,,,,,green,I
0.0,2.0,2.0,0.0,5.0,5.0,431.7438309999488,5.0,1.0,phase_2,go,250.0,350.0,1.0,,,,,,,,,orange,square
0.0,8.0,4.0,1.0,5.0,0.0,0.0,5.0,1.0,phase_2,stop,250.0,350.0,4.0,,,,,,,,,cyan,diamond
0.0,5.0,1.0,1.0,5.0,5.0,425.0868350000019,5.0,1.0,phase_2,stop,300.0,350.0,3.0,,,,,,,,,magenta,triangle
0.0,7.0,3.0,1.0,6.0,6.0,556.4637839997886,5.0,1.0,phase_2,go,250.0,350.0,1.0,,,,,,,,,green,I
0.0,6.0,2.0,1.0,5.0,0.0,0.0,5.0,1.0,phase_2,stop,250.0,350.0,4.0,,,,,,,,,blue,hexagon
0.0,4.0,4.0,0.0,5.0,5.0,443.410773999858,5.0,1.0,phase_2,go,300.0,350.0,1.0,,,,,,,,,gray,flipped triangle
0.0,4.0,4.0,0.0,6.0,6.0,420.413080999424,5.0,1.0,phase_2,go,300.0,350.0,1.0,,,,,,,,,gray,flipped triangle
0.0,5.0,1.0,1.0,5.0,5.0,405.7786920002399,5.0,1.0,phase_2,stop,300.0,350.0,3.0,,,,,,,,,magenta,triangle
0.0,2.0,2.0,0.0,5.0,5.0,576.6584659995715,5.0,1.0,phase_2,go,250.0,350.0,1.0,,,,,,,,,orange,square
0.0,1.0,1.0,0.0,6.0,6.0,468.4477609998794,5.0,1.0,phase_2,go,250.0,350.0,1.0,,,,,,,,,white,cross
0.0,8.0,4.0,1.0,5.0,5.0,331.267910999486,5.0,1.0,phase_2,stop,250.0,350.0,3.0,,,,,,,,,cyan,diamond
0.0,4.0,4.0,0.0,6.0,6.0,659.1628739997759,5.0,1.0,phase_2,go,200.0,350.0,1.0,,,,,,,,,gray,flipped triangle
0.0,1.0,1.0,0.0,6.0,6.0,493.188315000225,5.0,1.0,phase_2,go,200.0,350.0,1.0,,,,,,,,,white,cross
0.0,1.0,1.0,0.0,5.0,5.0,395.4596899993703,5.0,1.0,phase_2,go,200.0,350.0,1.0,,,,,,,,,white,cross
0.0,7.0,3.0,1.0,6.0,0.0,0.0,5.0,1.0,phase_2,stop,200.0,350.0,4.0,,,,,,,,,green,I
0.0,1.0,1.0,0.0,5.0,5.0,404.0900170002715,5.0,1.0,phase_2,go,200.0,400.0,1.0,,,,,,,,,white,cross
0.0,5.0,1.0,1.0,6.0,6.0,437.3687889992652,5.0,1.0,phase_2,stop,200.0,400.0,3.0,,,,,,,,,magenta,triangle
0.0,1.0,1.0,0.0,6.0,6.0,419.1488639999079,5.0,1.0,phase_2,go,200.0,350.0,1.0,,,,,,,,,white,cross
0.0,5.0,1.0,1.0,5.0,0.0,0.0,5.0,1.0,phase_2,stop,200.0,350.0,4.0,,,,,,,,,magenta,triangle
0.0,7.0,3.0,1.0,6.0,6.0,256.9078530004844,5.0,1.0,phase_2,stop,250.0,350.0,3.0,,,,,,,,,green,I
0.0,1.0,1.0,0.0,5.0,5.0,295.5112099998587,5.0,1.0,phase_2,go,250.0,300.0,1.0,,,,,,,,,white,cross
0.0,5.0,1.0,1.0,6.0,0.0,0.0,5.0,1.0,phase_2,stop,250.0,300.0,4.0,,,,,,,,,magenta,triangle
0.0,8.0,4.0,1.0,5.0,0.0,0.0,5.0,1.0,phase_2,stop,250.0,350.0,4.0,,,,,,,,,cyan,diamond
0.0,8.0,4.0,1.0,6.0,6.0,349.0442600004826,5.0,1.0,phase_2,go,300.0,350.0,1.0,,,,,,,,,cyan,diamond
0.0,1.0,1.0,0.0,6.0,6.0,484.098122999967,5.0,1.0,phase_2,go,300.0,350.0,1.0,,,,,,,,,white,cross
0.0,2.0,2.0,0.0,5.0,5.0,352.9269999999087,5.0,1.0,phase_2,go,300.0,350.0,1.0,,,,,,,,,orange,square
0.0,6.0,2.0,1.0,6.0,6.0,452.5953550000849,5.0,1.0,phase_2,go,300.0,350.0,1.0,,,,,,,,,blue,hexagon
0.0,1.0,1.0,0.0,6.0,6.0,416.5884450003432,5.0,1.0,phase_2,go,300.0,350.0,1.0,,,,,,,,,white,cross
0.0,7.0,3.0,1.0,6.0,6.0,419.8691250003321,5.0,1.0,phase_2,go,300.0,350.0,1.0,,,,,,,,,green,I
0.0,1.0,1.0,0.0,6.0,6.0,533.3053539998218,6.0,1.0,phase_2,go,300.0,350.0,1.0,,,,,,,,,white,cross
0.0,6.0,2.0,1.0,6.0,6.0,420.7463709999501,6.0,1.0,phase_2,stop,300.0,350.0,3.0,,,,,,,,,blue,hexagon
0.0,7.0,3.0,1.0,6.0,6.0,433.9037019999523,6.0,1.0,phase_2,stop,300.0,300.0,3.0,,,,,,,,,green,I
0.0,3.0,3.0,0.0,6.0,6.0,544.8959909999758,6.0,1.0,phase_2,go,300.0,250.0,1.0,,,,,,,,,yellow,circle
0.0,1.0,1.0,0.0,6.0,6.0,489.8752349999995,6.0,1.0,phase_2,go,300.0,250.0,1.0,,,,,,,,,white,cross
0.0,3.0,3.0,0.0,6.0,6.0,435.4294570002821,6.0,1.0,phase_2,go,300.0,250.0,1.0,,,,,,,,,yellow,circle
0.0,2.0,2.0,0.0,5.0,5.0,351.8823679996785,6.0,1.0,phase_2,go,300.0,250.0,1.0,,,,,,,,,orange,square
0.0,1.0,1.0,0.0,6.0,6.0,463.1043939998562,6.0,1.0,phase_2,go,300.0,250.0,1.0,,,,,,,,,white,cross
0.0,1.0,1.0,0.0,5.0,5.0,387.0313649995296,6.0,1.0,phase_2,go,300.0,250.0,1.0,,,,,,,,,white,cross
0.0,8.0,4.0,1.0,5.0,5.0,393.9282009996532,6.0,1.0,phase_2,stop,300.0,250.0,3.0,,,,,,,,,cyan,diamond
0.0,2.0,2.0,0.0,5.0,5.0,665.1683030004278,6.0,1.0,phase_2,go,250.0,250.0,1.0,,,,,,,,,orange,square
0.0,8.0,4.0,1.0,5.0,0.0,0.0,6.0,1.0,phase_2,stop,250.0,250.0,4.0,,,,,,,,,cyan,diamond
0.0,2.0,2.0,0.0,6.0,6.0,324.3772270006957,6.0,1.0,phase_2,go,300.0,250.0,1.0,,,,,,,,,orange,square
0.0,3.0,3.0,0.0,6.0,6.0,416.4796029999706,6.0,1.0,phase_2,go,300.0,250.0,1.0,,,,,,,,,yellow,circle
0.0,6.0,2.0,1.0,5.0,0.0,0.0,6.0,1.0,phase_2,stop,300.0,250.0,4.0,,,,,,,,,blue,hexagon
0.0,3.0,3.0,0.0,6.0,6.0,479.4677429999865,6.0,1.0,phase_2,go,350.0,250.0,1.0,,,,,,,,,yellow,circle
0.0,4.0,4.0,0.0,6.0,6.0,359.5988549996036,6.0,1.0,phase_2,go,350.0,250.0,1.0,,,,,,,,,gray,flipped triangle
0.0,2.0,2.0,0.0,6.0,6.0,295.2714039993225,6.0,1.0,phase_2,go,350.0,250.0,1.0,,,,,,,,,orange,square
0.0,4.0,4.0,0.0,6.0,6.0,337.2425179995844,6.0,1.0,phase_2,go,350.0,250.0,1.0,,,,,,,,,gray,flipped triangle
0.0,4.0,4.0,0.0,6.0,6.0,377.5659430002633,6.0,1.0,phase_2,go,350.0,250.0,1.0,,,,,,,,,gray,flipped triangle
0.0,5.0,1.0,1.0,5.0,5.0,331.438220999189,6.0,1.0,phase_2,stop,350.0,250.0,3.0,,,,,,,,,magenta,triangle
0.0,5.0,1.0,1.0,5.0,5.0,591.7291539999496,6.0,1.0,phase_2,go,300.0,250.0,1.0,,,,,,,,,magenta,triangle
0.0,6.0,2.0,1.0,5.0,5.0,512.3097600007895,6.0,1.0,phase_2,go,300.0,250.0,1.0,,,,,,,,,blue,hexagon
0.0,4.0,4.0,0.0,5.0,5.0,421.2420640005803,6.0,1.0,phase_2,go,300.0,250.0,1.0,,,,,,,,,gray,flipped triangle
0.0,3.0,3.0,0.0,5.0,5.0,364.9032729999817,6.0,1.0,phase_2,go,300.0,250.0,1.0,,,,,,,,,yellow,circle
0.0,2.0,2.0,0.0,5.0,5.0,395.9374270007174,6.0,1.0,phase_2,go,300.0,250.0,1.0,,,,,,,,,orange,square
0.0,6.0,2.0,1.0,6.0,0.0,0.0,6.0,1.0,phase_2,stop,300.0,250.0,4.0,,,,,,,,,blue,hexagon
0.0,4.0,4.0,0.0,5.0,5.0,534.781056000611,6.0,1.0,phase_2,go,300.0,300.0,1.0,,,,,,,,,gray,flipped triangle
0.0,1.0,1.0,0.0,6.0,6.0,503.50314499974047,6.0,1.0,phase_2,go,300.0,300.0,1.0,,,,,,,,,white,cross
0.0,5.0,1.0,1.0,5.0,0.0,0.0,6.0,1.0,phase_2,stop,300.0,300.0,4.0,,,,,,,,,magenta,triangle
0.0,1.0,1.0,0.0,5.0,5.0,571.2517840001965,6.0,1.0,phase_2,go,350.0,300.0,1.0,,,,,,,,,white,cross
0.0,8.0,4.0,1.0,6.0,0.0,0.0,6.0,1.0,phase_2,stop,350.0,300.0,4.0,,,,,,,,,cyan,diamond
0.0,3.0,3.0,0.0,6.0,6.0,370.0552999998763,6.0,1.0,phase_2,go,350.0,350.0,1.0,,,,,,,,,yellow,circle
0.0,7.0,3.0,1.0,6.0,0.0,0.0,6.0,1.0,phase_2,stop,350.0,350.0,4.0,,,,,,,,,green,I
0.0,2.0,2.0,0.0,5.0,5.0,268.9658899998903,6.0,1.0,phase_2,go,350.0,400.0,1.0,,,,,,,,,orange,square
0.0,4.0,4.0,0.0,6.0,6.0,310.6476489992928,6.0,1.0,phase_2,go,350.0,400.0,1.0,,,,,,,,,gray,flipped triangle
0.0,3.0,3.0,0.0,5.0,5.0,474.9345299997003,7.0,1.0,phase_2,go,350.0,400.0,1.0,,,,,,,,,yellow,circle
0.0,4.0,4.0,0.0,5.0,5.0,599.754796000525,7.0,1.0,phase_2,go,350.0,400.0,1.0,,,,,,,,,gray,flipped triangle
0.0,5.0,1.0,1.0,6.0,6.0,436.2067860001843,7.0,1.0,phase_2,stop,350.0,400.0,3.0,,,,,,,,,magenta,triangle
0.0,5.0,1.0,1.0,6.0,0.0,0.0,7.0,1.0,phase_2,stop,350.0,350.0,4.0,,,,,,,,,magenta,triangle
0.0,6.0,2.0,1.0,6.0,6.0,448.4343439999065,7.0,1.0,phase_2,stop,350.0,400.0,3.0,,,,,,,,,blue,hexagon
0.0,8.0,4.0,1.0,6.0,6.0,682.234378999965,7.0,1.0,phase_2,go,350.0,350.0,1.0,,,,,,,,,cyan,diamond
0.0,3.0,3.0,0.0,6.0,6.0,470.6874700004846,7.0,1.0,phase_2,go,350.0,350.0,1.0,,,,,,,,,yellow,circle
0.0,4.0,4.0,0.0,5.0,5.0,547.8365250000934,7.0,1.0,phase_2,go,350.0,350.0,1.0,,,,,,,,,gray,flipped triangle
0.0,6.0,2.0,1.0,5.0,0.0,0.0,7.0,1.0,phase_2,stop,350.0,350.0,4.0,,,,,,,,,blue,hexagon
0.0,1.0,1.0,0.0,6.0,6.0,411.9060020002507,7.0,1.0,phase_2,go,400.0,350.0,1.0,,,,,,,,,white,cross
0.0,3.0,3.0,0.0,5.0,5.0,274.3596099999195,7.0,1.0,phase_2,go,400.0,350.0,1.0,,,,,,,,,yellow,circle
0.0,1.0,1.0,0.0,5.0,5.0,284.8276659997282,7.0,1.0,phase_2,go,400.0,350.0,1.0,,,,,,,,,white,cross
0.0,3.0,3.0,0.0,5.0,5.0,302.4200670006394,7.0,1.0,phase_2,go,400.0,350.0,1.0,,,,,,,,,yellow,circle
0.0,7.0,3.0,1.0,6.0,6.0,435.1772469999559,7.0,1.0,phase_2,stop,400.0,350.0,3.0,,,,,,,,,green,I
0.0,8.0,4.0,1.0,6.0,6.0,522.4068119996446,7.0,1.0,phase_2,go,400.0,300.0,1.0,,,,,,,,,cyan,diamond
0.0,6.0,2.0,1.0,5.0,5.0,547.4860249996709,7.0,1.0,phase_2,stop,400.0,300.0,3.0,,,,,,,,,blue,hexagon
0.0,2.0,2.0,0.0,6.0,6.0,614.7721440001988,7.0,1.0,phase_2,go,350.0,300.0,1.0,,,,,,,,,orange,square
0.0,4.0,4.0,0.0,6.0,6.0,426.6124750001836,7.0,1.0,phase_2,go,350.0,300.0,1.0,,,,,,,,,gray,flipped triangle
0.0,7.0,3.0,1.0,5.0,5.0,471.2597220004682,7.0,1.0,phase_2,stop,350.0,300.0,3.0,,,,,,,,,green,I
0.0,2.0,2.0,0.0,6.0,6.0,460.2635779992852,7.0,1.0,phase_2,go,300.0,300.0,1.0,,,,,,,,,orange,square
0.0,5.0,1.0,1.0,6.0,6.0,418.7340859998585,7.0,1.0,phase_2,stop,300.0,300.0,3.0,,,,,,,,,magenta,triangle
0.0,7.0,3.0,1.0,5.0,5.0,623.5018620000119,7.0,1.0,phase_2,go,300.0,250.0,1.0,,,,,,,,,green,I
0.0,3.0,3.0,0.0,6.0,6.0,383.3008599995082,7.0,1.0,phase_2,go,300.0,250.0,1.0,,,,,,,,,yellow,circle
0.0,2.0,2.0,0.0,5.0,5.0,424.5524459993248,7.0,1.0,phase_2,go,300.0,250.0,1.0,,,,,,,,,orange,square
0.0,8.0,4.0,1.0,6.0,0.0,0.0,7.0,1.0,phase_2,stop,300.0,250.0,4.0,,,,,,,,,cyan,diamond
0.0,2.0,2.0,0.0,6.0,6.0,505.29181499950937,7.0,1.0,phase_2,go,300.0,300.0,1.0,,,,,,,,,orange,square
0.0,4.0,4.0,0.0,6.0,6.0,350.0436169997556,7.0,1.0,phase_2,go,300.0,300.0,1.0,,,,,,,,,gray,flipped triangle
0.0,3.0,3.0,0.0,6.0,6.0,396.8717620000461,7.0,1.0,phase_2,go,300.0,300.0,1.0,,,,,,,,,yellow,circle
0.0,8.0,4.0,1.0,5.0,5.0,286.1524320005628,7.0,1.0,phase_2,stop,300.0,300.0,3.0,,,,,,,,,cyan,diamond
0.0,7.0,3.0,1.0,5.0,5.0,483.9767410003333,7.0,1.0,phase_2,go,250.0,300.0,1.0,,,,,,,,,green,I
0.0,2.0,2.0,0.0,6.0,6.0,403.24193700053,7.0,1.0,phase_2,go,250.0,300.0,1.0,,,,,,,,,orange,square
0.0,2.0,2.0,0.0,6.0,6.0,514.6206449999227,7.0,1.0,phase_2,go,250.0,300.0,1.0,,,,,,,,,orange,square
0.0,8.0,4.0,1.0,6.0,6.0,338.6236430005738,7.0,1.0,phase_2,stop,250.0,300.0,3.0,,,,,,,,,cyan,diamond
0.0,5.0,1.0,1.0,6.0,6.0,409.6415730000444,7.0,1.0,phase_2,stop,250.0,250.0,3.0,,,,,,,,,magenta,triangle
0.0,4.0,4.0,0.0,5.0,5.0,249.9254499998642,7.0,1.0,phase_2,go,250.0,200.0,1.0,,,,,,,,,gray,flipped triangle
0.0,8.0,4.0,1.0,5.0,5.0,286.9956730000922,7.0,1.0,phase_2,stop,250.0,200.0,3.0,,,,,,,,,cyan,diamond
0.0,5.0,1.0,1.0,6.0,0.0,0.0,8.0,1.0,phase_2,stop,200.0,200.0,4.0,,,,,,,,,magenta,triangle
0.0,4.0,4.0,0.0,6.0,6.0,374.6787109994329,8.0,1.0,phase_2,go,200.0,250.0,1.0,,,,,,,,,gray,flipped triangle
0.0,8.0,4.0,1.0,5.0,5.0,239.4556509998437,8.0,1.0,phase_2,go,200.0,250.0,1.0,,,,,,,,,cyan,diamond
0.0,7.0,3.0,1.0,6.0,0.0,0.0,8.0,1.0,phase_2,stop,200.0,250.0,4.0,,,,,,,,,green,I
0.0,7.0,3.0,1.0,5.0,5.0,305.994463999923,8.0,1.0,phase_2,stop,200.0,300.0,3.0,,,,,,,,,green,I
0.0,6.0,2.0,1.0,6.0,6.0,355.5647039993346,8.0,1.0,phase_2,stop,150.0,300.0,3.0,,,,,,,,,blue,hexagon
0.0,6.0,2.0,1.0,6.0,6.0,428.6571749998984,8.0,1.0,phase_2,go,150.0,250.0,1.0,,,,,,,,,blue,hexagon
0.0,6.0,2.0,1.0,6.0,0.0,0.0,8.0,1.0,phase_2,stop,150.0,250.0,4.0,,,,,,,,,blue,hexagon
0.0,5.0,1.0,1.0,6.0,6.0,418.5200930005521,8.0,1.0,phase_2,stop,150.0,300.0,3.0,,,,,,,,,magenta,triangle
0.0,2.0,2.0,0.0,6.0,6.0,483.7799599999925,8.0,1.0,phase_2,go,150.0,250.0,1.0,,,,,,,,,orange,square
0.0,8.0,4.0,1.0,6.0,6.0,291.5090759997838,8.0,1.0,phase_2,stop,150.0,250.0,3.0,,,,,,,,,cyan,diamond
0.0,1.0,1.0,0.0,5.0,5.0,538.0225740000242,8.0,1.0,phase_2,go,150.0,200.0,1.0,,,,,,,,,white,cross
0.0,2.0,2.0,0.0,6.0,6.0,597.8651110008286,8.0,1.0,phase_2,go,150.0,200.0,1.0,,,,,,,,,orange,square
0.0,8.0,4.0,1.0,5.0,0.0,0.0,8.0,1.0,phase_2,stop,150.0,200.0,4.0,,,,,,,,,cyan,diamond
0.0,1.0,1.0,0.0,5.0,5.0,568.5534499998539,8.0,1.0,phase_2,go,200.0,200.0,1.0,,,,,,,,,white,cross
0.0,4.0,4.0,0.0,5.0,5.0,316.5610269998069,8.0,1.0,phase_2,go,200.0,200.0,1.0,,,,,,,,,gray,flipped triangle
0.0,2.0,2.0,0.0,5.0,5.0,391.0522930000297,8.0,1.0,phase_2,go,200.0,200.0,1.0,,,,,,,,,orange,square
0.0,7.0,3.0,1.0,6.0,6.0,482.861077999587,8.0,1.0,phase_2,go,200.0,200.0,1.0,,,,,,,,,green,I
0.0,2.0,2.0,0.0,6.0,6.0,342.341292999663,8.0,1.0,phase_2,go,200.0,200.0,1.0,,,,,,,,,orange,square
0.0,4.0,4.0,0.0,5.0,5.0,263.2929220008009,8.0,1.0,phase_2,go,200.0,200.0,1.0,,,,,,,,,gray,flipped triangle
0.0,3.0,3.0,0.0,6.0,6.0,340.8953680000195,8.0,1.0,phase_2,go,200.0,200.0,1.0,,,,,,,,,yellow,circle
0.0,6.0,2.0,1.0,6.0,0.0,0.0,8.0,1.0,phase_2,stop,200.0,200.0,4.0,,,,,,,,,blue,hexagon
0.0,4.0,4.0,0.0,5.0,5.0,376.2972620006621,8.0,1.0,phase_2,go,200.0,250.0,1.0,,,,,,,,,gray,flipped triangle
0.0,8.0,4.0,1.0,6.0,6.0,297.4852759998612,8.0,1.0,phase_2,stop,200.0,250.0,3.0,,,,,,,,,cyan,diamond
0.0,2.0,2.0,0.0,6.0,6.0,664.321874000052,8.0,1.0,phase_2,go,200.0,200.0,1.0,,,,,,,,,orange,square
0.0,7.0,3.0,1.0,5.0,0.0,0.0,8.0,1.0,phase_2,stop,200.0,200.0,4.0,,,,,,,,,green,I
0.0,5.0,1.0,1.0,5.0,5.0,324.1768240004603,8.0,1.0,phase_2,stop,250.0,200.0,3.0,,,,,,,,,magenta,triangle
0.0,5.0,1.0,1.0,6.0,0.0,0.0,8.0,1.0,phase_2,stop,200.0,200.0,4.0,,,,,,,,,magenta,triangle
0.0,7.0,3.0,1.0,5.0,5.0,304.1602229995988,8.0,1.0,phase_2,go,200.0,250.0,1.0,,,,,,,,,green,I
0.0,1.0,1.0,0.0,5.0,5.0,313.5238439999739,8.0,1.0,phase_2,go,200.0,250.0,1.0,,,,,,,,,white,cross
0.0,2.0,2.0,0.0,5.0,5.0,332.1462819994849,8.0,1.0,phase_2,go,200.0,250.0,1.0,,,,,,,,,orange,square
0.0,3.0,3.0,0.0,6.0,6.0,279.0306070000952,8.0,1.0,phase_2,go,200.0,250.0,1.0,,,,,,,,,yellow,circle
0.0,4.0,4.0,0.0,5.0,5.0,428.2526819997656,8.0,1.0,phase_2,go,200.0,250.0,1.0,,,,,,,,,gray,flipped triangle
0.0,5.0,1.0,1.0,6.0,6.0,290.9426320002239,8.0,1.0,phase_2,stop,200.0,250.0,3.0,,,,,,,,,magenta,triangle
0.0,1.0,1.0,0.0,6.0,6.0,461.6433270002744,8.0,1.0,phase_2,go,200.0,200.0,1.0,,,,,,,,,white,cross
0.0,4.0,4.0,0.0,6.0,6.0,440.2022750000469,8.0,1.0,phase_2,go,200.0,200.0,1.0,,,,,,,,,gray,flipped triangle
0.0,5.0,1.0,1.0,7.0,3.0,3506.941755999833,1.0,1.0,phase_3,,,,,136.0,4.0,204.0,68.0,136.0,170.0,34.0,102.0,magenta,triangle
0.0,8.0,4.0,1.0,7.0,1.0,1580.9597899997243,1.0,2.0,phase_3,,,,,216.0,4.0,216.0,162.0,270.0,108.0,324.0,54.0,cyan,diamond
0.0,4.0,4.0,0.0,7.0,5.0,1031.6591340006198,1.0,1.0,phase_3,,,,,54.0,1.0,162.0,324.0,216.0,270.0,54.0,108.0,gray,flipped triangle
0.0,2.0,2.0,0.0,7.0,4.0,1140.9863620001488,1.0,1.0,phase_3,,,,,132.0,3.0,176.0,264.0,44.0,132.0,220.0,88.0,orange,square
0.0,3.0,3.0,0.0,7.0,6.0,1572.173737000412,1.0,1.0,phase_3,,,,,147.0,3.0,98.0,245.0,49.0,294.0,196.0,147.0,yellow,circle
0.0,1.0,1.0,0.0,7.0,2.0,933.3020889998808,1.0,1.0,phase_3,,,,,88.0,2.0,220.0,88.0,176.0,264.0,44.0,132.0,white,cross
0.0,7.0,3.0,1.0,7.0,4.0,1142.5974519997908,1.0,1.0,phase_3,,,,,324.0,6.0,54.0,270.0,216.0,324.0,108.0,162.0,green,I
0.0,3.0,3.0,0.0,7.0,4.0,818.3244410001862,1.0,1.0,phase_3,,,,,49.0,1.0,98.0,294.0,196.0,49.0,245.0,147.0,yellow,circle
0.0,6.0,2.0,1.0,7.0,1.0,990.0867120004476,1.0,1.0,phase_3,,,,,324.0,6.0,324.0,270.0,216.0,108.0,162.0,54.0,blue,hexagon
0.0,2.0,2.0,0.0,7.0,5.0,592.3117290003574,1.0,1.0,phase_3,,,,,195.0,5.0,39.0,156.0,117.0,234.0,195.0,78.0,orange,square
0.0,8.0,4.0,1.0,7.0,3.0,986.671646999639,1.0,1.0,phase_3,,,,,195.0,5.0,78.0,234.0,195.0,117.0,39.0,156.0,cyan,diamond
0.0,8.0,4.0,1.0,7.0,4.0,700.3767699998207,1.0,1.0,phase_3,,,,,176.0,4.0,88.0,264.0,220.0,176.0,44.0,132.0,cyan,diamond
0.0,8.0,4.0,1.0,7.0,3.0,1258.222317000218,1.0,1.0,phase_3,,,,,156.0,4.0,195.0,234.0,156.0,78.0,117.0,39.0,cyan,diamond
0.0,3.0,3.0,0.0,7.0,1.0,1641.920304999985,1.0,1.0,phase_3,,,,,270.0,5.0,270.0,162.0,216.0,108.0,54.0,324.0,yellow,circle
0.0,4.0,4.0,0.0,7.0,5.0,1047.016313000313,1.0,1.0,phase_3,,,,,68.0,2.0,170.0,136.0,34.0,204.0,68.0,102.0,gray,flipped triangle
0.0,4.0,4.0,0.0,7.0,5.0,919.5598619999146,1.0,1.0,phase_3,,,,,78.0,2.0,117.0,195.0,156.0,39.0,78.0,234.0,gray,flipped triangle
0.0,3.0,3.0,0.0,7.0,2.0,697.9683370000203,1.0,1.0,phase_3,,,,,204.0,6.0,68.0,204.0,136.0,102.0,34.0,170.0,yellow,circle
0.0,2.0,2.0,0.0,7.0,5.0,582.9597249994549,1.0,1.0,phase_3,,,,,245.0,5.0,294.0,98.0,196.0,49.0,245.0,147.0,orange,square
0.0,5.0,1.0,1.0,7.0,5.0,1167.297888999201,1.0,1.0,phase_3,,,,,324.0,6.0,162.0,216.0,270.0,54.0,324.0,108.0,magenta,triangle
0.0,5.0,1.0,1.0,7.0,4.0,1381.3176430003296,1.0,1.0,phase_3,,,,,204.0,6.0,68.0,34.0,136.0,204.0,170.0,102.0,magenta,triangle
0.0,6.0,2.0,1.0,7.0,2.0,950.9212619996106,2.0,1.0,phase_3,,,,,44.0,1.0,264.0,44.0,220.0,88.0,132.0,176.0,blue,hexagon
0.0,4.0,4.0,0.0,7.0,3.0,1091.664980999667,2.0,1.0,phase_3,,,,,264.0,6.0,88.0,44.0,264.0,220.0,176.0,132.0,gray,flipped triangle
0.0,5.0,1.0,1.0,7.0,5.0,769.2911020003521,2.0,1.0,phase_3,,,,,294.0,6.0,49.0,98.0,196.0,147.0,294.0,245.0,magenta,triangle
0.0,4.0,4.0,0.0,7.0,3.0,763.8857380006812,2.0,1.0,phase_3,,,,,98.0,2.0,294.0,245.0,98.0,147.0,196.0,49.0,gray,flipped triangle
0.0,5.0,1.0,1.0,7.0,5.0,1331.433176000246,2.0,1.0,phase_3,,,,,294.0,6.0,147.0,98.0,196.0,245.0,294.0,49.0,magenta,triangle
0.0,7.0,3.0,1.0,7.0,3.0,684.3798569998398,2.0,1.0,phase_3,,,,,294.0,6.0,196.0,245.0,294.0,49.0,98.0,147.0,green,I
0.0,1.0,1.0,0.0,7.0,5.0,1244.8522060003595,2.0,1.0,phase_3,,,,,34.0,1.0,136.0,102.0,68.0,170.0,34.0,204.0,white,cross
0.0,3.0,3.0,0.0,7.0,4.0,1540.486971000064,2.0,1.0,phase_3,,,,,234.0,6.0,78.0,195.0,39.0,234.0,117.0,156.0,yellow,circle
0.0,8.0,4.0,1.0,7.0,5.0,1225.265295999634,2.0,1.0,phase_3,,,,,324.0,6.0,270.0,162.0,108.0,54.0,324.0,216.0,cyan,diamond
0.0,7.0,3.0,1.0,7.0,3.0,1296.4044619993729,2.0,1.0,phase_3,,,,,88.0,2.0,220.0,176.0,88.0,44.0,132.0,264.0,green,I
0.0,2.0,2.0,0.0,7.0,2.0,1053.5004749999644,2.0,1.0,phase_3,,,,,204.0,6.0,34.0,204.0,170.0,136.0,68.0,102.0,orange,square
0.0,1.0,1.0,0.0,7.0,1.0,1037.8610960005972,2.0,1.0,phase_3,,,,,98.0,2.0,98.0,147.0,294.0,49.0,196.0,245.0,white,cross
0.0,3.0,3.0,0.0,7.0,5.0,1331.418513999779,2.0,1.0,phase_3,,,,,78.0,2.0,39.0,234.0,195.0,117.0,78.0,156.0,yellow,circle
0.0,5.0,1.0,1.0,7.0,5.0,1255.277040000692,2.0,1.0,phase_3,,,,,234.0,6.0,156.0,39.0,78.0,117.0,234.0,195.0,magenta,triangle
0.0,7.0,3.0,1.0,7.0,4.0,1122.012808999898,2.0,1.0,phase_3,,,,,68.0,2.0,136.0,34.0,102.0,68.0,204.0,170.0,green,I
0.0,6.0,2.0,1.0,7.0,2.0,985.7056079999892,2.0,1.0,phase_3,,,,,294.0,6.0,98.0,294.0,49.0,196.0,245.0,147.0,blue,hexagon
0.0,5.0,1.0,1.0,7.0,2.0,2514.2091950001486,2.0,1.0,phase_3,,,,,44.0,1.0,176.0,44.0,220.0,264.0,132.0,88.0,magenta,triangle
0.0,6.0,2.0,1.0,7.0,4.0,923.2906489996822,2.0,1.0,phase_3,,,,,234.0,6.0,156.0,195.0,78.0,234.0,117.0,39.0,blue,hexagon
0.0,4.0,4.0,0.0,7.0,4.0,1410.8855779995793,2.0,1.0,phase_3,,,,,117.0,3.0,39.0,78.0,195.0,117.0,234.0,156.0,gray,flipped triangle
0.0,7.0,3.0,1.0,7.0,2.0,2179.657851000229,2.0,1.0,phase_3,,,,,44.0,1.0,88.0,44.0,132.0,176.0,220.0,264.0,green,I
0.0,1.0,1.0,0.0,7.0,5.0,1367.2571010001775,3.0,1.0,phase_3,,,,,39.0,1.0,234.0,78.0,156.0,195.0,39.0,117.0,white,cross
0.0,3.0,3.0,0.0,7.0,4.0,1198.857331999534,3.0,1.0,phase_3,,,,,170.0,5.0,68.0,204.0,34.0,170.0,102.0,136.0,yellow,circle
0.0,7.0,3.0,1.0,7.0,2.0,1360.586990000229,3.0,1.0,phase_3,,,,,196.0,4.0,98.0,196.0,294.0,245.0,49.0,147.0,green,I
0.0,7.0,3.0,1.0,7.0,3.0,1824.7440420000205,3.0,1.0,phase_3,,,,,108.0,2.0,324.0,216.0,108.0,270.0,54.0,162.0,green,I
0.0,6.0,2.0,1.0,7.0,5.0,1343.8790420004807,3.0,1.0,phase_3,,,,,234.0,6.0,78.0,39.0,156.0,117.0,234.0,195.0,blue,hexagon
0.0,3.0,3.0,0.0,7.0,2.0,1276.264183999956,3.0,1.0,phase_3,,,,,176.0,4.0,220.0,176.0,44.0,132.0,88.0,264.0,yellow,circle
0.0,5.0,1.0,1.0,7.0,2.0,1768.2588300003772,3.0,1.0,phase_3,,,,,264.0,6.0,88.0,264.0,220.0,44.0,176.0,132.0,magenta,triangle
0.0,6.0,2.0,1.0,7.0,2.0,1280.7423800004472,3.0,1.0,phase_3,,,,,324.0,6.0,270.0,324.0,162.0,216.0,54.0,108.0,blue,hexagon
0.0,3.0,3.0,0.0,7.0,1.0,1249.509180000132,3.0,1.0,phase_3,,,,,162.0,3.0,162.0,54.0,270.0,324.0,108.0,216.0,yellow,circle
0.0,5.0,1.0,1.0,7.0,1.0,749.834178999663,3.0,1.0,phase_3,,,,,216.0,4.0,216.0,54.0,108.0,162.0,270.0,324.0,magenta,triangle
0.0,8.0,4.0,1.0,7.0,1.0,960.4091059991332,3.0,1.0,phase_3,,,,,204.0,6.0,204.0,68.0,34.0,102.0,136.0,170.0,cyan,diamond
0.0,2.0,2.0,0.0,7.0,5.0,1007.6702810001734,3.0,1.0,phase_3,,,,,162.0,3.0,270.0,54.0,108.0,216.0,162.0,324.0,orange,square
0.0,6.0,2.0,1.0,7.0,1.0,1778.7630590000845,3.0,1.0,phase_3,,,,,264.0,6.0,264.0,88.0,220.0,132.0,44.0,176.0,blue,hexagon
0.0,8.0,4.0,1.0,7.0,5.0,1703.9606210000784,3.0,1.0,phase_3,,,,,136.0,4.0,68.0,170.0,204.0,34.0,136.0,102.0,cyan,diamond
0.0,2.0,2.0,0.0,7.0,3.0,1266.317822000019,3.0,1.0,phase_3,,,,,162.0,3.0,216.0,324.0,162.0,108.0,270.0,54.0,orange,square
0.0,4.0,4.0,0.0,7.0,6.0,921.1630199997672,3.0,1.0,phase_3,,,,,54.0,1.0,270.0,216.0,162.0,108.0,324.0,54.0,gray,flipped triangle
0.0,4.0,4.0,0.0,7.0,6.0,769.1848730000856,3.0,1.0,phase_3,,,,,34.0,1.0,68.0,170.0,102.0,136.0,204.0,34.0,gray,flipped triangle
0.0,1.0,1.0,0.0,7.0,3.0,1237.979561999964,3.0,1.0,phase_3,,,,,162.0,3.0,54.0,216.0,162.0,108.0,270.0,324.0,white,cross
0.0,2.0,2.0,0.0,7.0,4.0,1096.7214049996985,3.0,1.0,phase_3,,,,,78.0,2.0,156.0,39.0,195.0,78.0,117.0,234.0,orange,square
0.0,5.0,1.0,1.0,7.0,1.0,1725.526102999538,3.0,1.0,phase_3,,,,,156.0,4.0,156.0,234.0,195.0,39.0,117.0,78.0,magenta,triangle
0.0,1.0,1.0,0.0,7.0,5.0,1274.4518350000362,4.0,1.0,phase_3,,,,,54.0,1.0,162.0,216.0,108.0,324.0,54.0,270.0,white,cross
0.0,7.0,3.0,1.0,7.0,3.0,1435.711511999216,4.0,1.0,phase_3,,,,,68.0,2.0,102.0,170.0,68.0,34.0,136.0,204.0,green,I
0.0,8.0,4.0,1.0,7.0,4.0,1605.9863069995115,4.0,1.0,phase_3,,,,,294.0,6.0,49.0,98.0,196.0,294.0,245.0,147.0,cyan,diamond
0.0,2.0,2.0,0.0,7.0,3.0,1320.2440830000342,4.0,1.0,phase_3,,,,,264.0,6.0,44.0,88.0,264.0,176.0,220.0,132.0,orange,square
0.0,1.0,1.0,0.0,7.0,3.0,2168.7433399993097,4.0,1.0,phase_3,,,,,39.0,1.0,78.0,234.0,39.0,117.0,195.0,156.0,white,cross
0.0,1.0,1.0,0.0,7.0,5.0,1147.2561179998593,4.0,1.0,phase_3,,,,,34.0,1.0,204.0,170.0,102.0,136.0,34.0,68.0,white,cross
0.0,7.0,3.0,1.0,7.0,3.0,1445.6198879997828,4.0,1.0,phase_3,,,,,234.0,6.0,156.0,195.0,234.0,39.0,78.0,117.0,green,I
0.0,6.0,2.0,1.0,7.0,5.0,1702.9960290001327,4.0,1.0,phase_3,,,,,204.0,6.0,102.0,68.0,34.0,136.0,204.0,170.0,blue,hexagon
0.0,1.0,1.0,0.0,7.0,3.0,2806.8519850003213,4.0,1.0,phase_3,,,,,49.0,1.0,98.0,245.0,49.0,196.0,147.0,294.0,white,cross
0.0,2.0,2.0,0.0,7.0,3.0,1051.034307000009,4.0,1.0,phase_3,,,,,204.0,6.0,170.0,136.0,204.0,34.0,102.0,68.0,orange,square
0.0,8.0,4.0,1.0,7.0,1.0,1874.816799000655,4.0,1.0,phase_3,,,,,220.0,5.0,220.0,176.0,132.0,264.0,88.0,44.0,cyan,diamond
0.0,3.0,3.0,0.0,7.0,3.0,1318.4419780000098,4.0,1.0,phase_3,,,,,176.0,4.0,132.0,44.0,176.0,220.0,88.0,264.0,yellow,circle
0.0,8.0,4.0,1.0,7.0,5.0,1240.9145539995734,4.0,1.0,phase_3,,,,,294.0,6.0,49.0,98.0,196.0,147.0,294.0,245.0,cyan,diamond
0.0,6.0,2.0,1.0,7.0,3.0,1376.943145000041,4.0,1.0,phase_3,,,,,294.0,6.0,147.0,245.0,294.0,196.0,98.0,49.0,blue,hexagon
0.0,2.0,2.0,0.0,7.0,3.0,1929.6542960000809,4.0,1.0,phase_3,,,,,294.0,6.0,245.0,98.0,294.0,196.0,147.0,49.0,orange,square
0.0,4.0,4.0,0.0,7.0,5.0,843.4109179997904,4.0,1.0,phase_3,,,,,88.0,2.0,176.0,220.0,44.0,132.0,88.0,264.0,gray,flipped triangle
0.0,4.0,4.0,0.0,7.0,3.0,1127.3267870001291,4.0,1.0,phase_3,,,,,49.0,1.0,98.0,196.0,49.0,147.0,245.0,294.0,gray,flipped triangle
0.0,6.0,2.0,1.0,7.0,3.0,2152.173605999451,4.0,1.0,phase_3,,,,,204.0,6.0,102.0,34.0,204.0,170.0,68.0,136.0,blue,hexagon
0.0,1.0,1.0,0.0,7.0,3.0,1698.1558190000214,4.0,1.0,phase_3,,,,,44.0,1.0,264.0,88.0,44.0,176.0,132.0,220.0,white,cross
0.0,7.0,3.0,1.0,7.0,3.0,778.9329609995548,4.0,1.0,phase_3,,,,,78.0,2.0,234.0,195.0,78.0,117.0,39.0,156.0,green,I
