raw_reward_magnitude,stim_reward,stepwise_reward_magnitude,paired_with_stopping,stim_location,response,reaction_time,block,num_trial_presentations,which_phase,stop_signal_trial_type,left_SSD,right_SSD,accuracy,chosen_bidding_amount,chosen_bidding_level,possible_bid_1,possible_bid_2,possible_bid_3,possible_bid_4,possible_bid_5,possible_bid_6,color_text,shape_text
47.0,5.0,1.0,1.0,2.0,2.0,330.7060860006459,1.0,1.0,phase_1,,,,,,,,,,,,,orange,flipped triangle
388.0,4.0,4.0,0.0,4.0,4.0,360.2211050001642,1.0,1.0,phase_1,,,,,,,,,,,,,gray,triangle
0.0,5.0,0.0,1.0,1.0,1.0,288.2344379995629,1.0,1.0,phase_1,,,,,,,,,,,,,orange,flipped triangle
0.0,7.0,0.0,1.0,3.0,3.0,322.0056810005189,1.0,1.0,phase_1,,,,,,,,,,,,,yellow,cross
102.0,2.0,2.0,0.0,2.0,2.0,321.5217410006517,1.0,1.0,phase_1,,,,,,,,,,,,,blue,diamond
0.0,7.0,0.0,1.0,4.0,4.0,315.0075140001718,1.0,1.0,phase_1,,,,,,,,,,,,,yellow,cross
385.0,8.0,4.0,1.0,1.0,1.0,327.2748370000045,1.0,1.0,phase_1,,,,,,,,,,,,,magenta,hexagon
419.0,4.0,4.0,0.0,3.0,3.0,289.2509920002339,1.0,1.0,phase_1,,,,,,,,,,,,,gray,triangle
89.0,2.0,2.0,0.0,2.0,2.0,268.7692090003111,1.0,1.0,phase_1,,,,,,,,,,,,,blue,diamond
35.0,5.0,1.0,1.0,3.0,3.0,344.2771939999147,1.0,1.0,phase_1,,,,,,,,,,,,,orange,flipped triangle
399.0,8.0,4.0,1.0,2.0,2.0,319.5880760004002,1.0,1.0,phase_1,,,,,,,,,,,,,magenta,hexagon
0.0,1.0,0.0,0.0,4.0,4.0,364.921460000005,1.0,1.0,phase_1,,,,,,,,,,,,,white,circle
376.0,8.0,4.0,1.0,4.0,4.0,350.6254900003114,1.0,1.0,phase_1,,,,,,,,,,,,,magenta,hexagon
46.0,1.0,1.0,0.0,2.0,2.0,354.9615120000453,1.0,1.0,phase_1,,,,,,,,,,,,,white,circle
207.0,3.0,3.0,0.0,2.0,2.0,437.3322669998742,1.0,1.0,phase_1,,,,,,,,,,,,,green,I
69.0,5.0,1.0,1.0,4.0,4.0,273.3454139997775,1.0,1.0,phase_1,,,,,,,,,,,,,orange,flipped triangle
0.0,7.0,0.0,1.0,2.0,2.0,308.760226999766,1.0,1.0,phase_1,,,,,,,,,,,,,yellow,cross
381.0,8.0,4.0,1.0,1.0,1.0,314.7574929998882,1.0,1.0,phase_1,,,,,,,,,,,,,magenta,hexagon
114.0,2.0,2.0,0.0,4.0,4.0,286.4014169999791,1.0,1.0,phase_1,,,,,,,,,,,,,blue,diamond
83.0,2.0,2.0,0.0,4.0,4.0,326.7105719996834,1.0,1.0,phase_1,,,,,,,,,,,,,blue,diamond
83.0,2.0,2.0,0.0,1.0,1.0,289.2400590008037,1.0,1.0,phase_1,,,,,,,,,,,,,blue,diamond
0.0,4.0,0.0,0.0,1.0,1.0,327.79526899958,1.0,1.0,phase_1,,,,,,,,,,,,,gray,triangle
219.0,7.0,3.0,1.0,1.0,1.0,325.2366749993598,1.0,1.0,phase_1,,,,,,,,,,,,,yellow,cross
0.0,3.0,0.0,0.0,4.0,4.0,306.5954339999734,1.0,1.0,phase_1,,,,,,,,,,,,,green,I
211.0,7.0,3.0,1.0,2.0,2.0,324.7407790004217,1.0,1.0,phase_1,,,,,,,,,,,,,yellow,cross
218.0,3.0,3.0,0.0,4.0,4.0,276.6497550001077,1.0,1.0,phase_1,,,,,,,,,,,,,green,I
75.0,5.0,1.0,1.0,4.0,4.0,353.9531329997771,1.0,1.0,phase_1,,,,,,,,,,,,,orange,flipped triangle
89.0,6.0,2.0,1.0,4.0,4.0,392.8006139994977,1.0,1.0,phase_1,,,,,,,,,,,,,cyan,square
218.0,3.0,3.0,0.0,1.0,1.0,339.7397540002203,1.0,1.0,phase_1,,,,,,,,,,,,,green,I
399.0,8.0,4.0,1.0,2.0,2.0,392.841302999841,1.0,1.0,phase_1,,,,,,,,,,,,,magenta,hexagon
423.0,8.0,4.0,1.0,4.0,4.0,294.0696949999619,1.0,1.0,phase_1,,,,,,,,,,,,,magenta,hexagon
378.0,8.0,4.0,1.0,3.0,3.0,422.858432000794,1.0,1.0,phase_1,,,,,,,,,,,,,magenta,hexagon
89.0,6.0,2.0,1.0,1.0,1.0,246.5663590000986,1.0,1.0,phase_1,,,,,,,,,,,,,cyan,square
118.0,6.0,2.0,1.0,2.0,2.0,243.5789479995946,1.0,1.0,phase_1,,,,,,,,,,,,,cyan,square
176.0,3.0,3.0,0.0,1.0,1.0,425.4573799998979,1.0,2.0,phase_1,,,,,,,,,,,,,green,I
94.0,6.0,2.0,1.0,2.0,2.0,387.8292709996458,1.0,1.0,phase_1,,,,,,,,,,,,,cyan,square
396.0,8.0,4.0,1.0,3.0,3.0,344.7561709999718,1.0,1.0,phase_1,,,,,,,,,,,,,magenta,hexagon
108.0,2.0,2.0,0.0,1.0,1.0,304.1005630002473,1.0,1.0,phase_1,,,,,,,,,,,,,blue,diamond
0.0,8.0,0.0,1.0,1.0,1.0,327.3954080004841,1.0,1.0,phase_1,,,,,,,,,,,,,magenta,hexagon
0.0,6.0,0.0,1.0,4.0,4.0,309.7063960003652,1.0,1.0,phase_1,,,,,,,,,,,,,cyan,square
125.0,2.0,2.0,0.0,4.0,4.0,317.6681519998965,1.0,1.0,phase_1,,,,,,,,,,,,,blue,diamond
197.0,3.0,3.0,0.0,1.0,1.0,332.3936250008046,1.0,1.0,phase_1,,,,,,,,,,,,,green,I
197.0,3.0,3.0,0.0,3.0,3.0,467.6178190002247,1.0,1.0,phase_1,,,,,,,,,,,,,green,I
406.0,8.0,4.0,1.0,2.0,2.0,348.8851149995753,1.0,1.0,phase_1,,,,,,,,,,,,,magenta,hexagon
381.0,4.0,4.0,0.0,2.0,2.0,339.4916179995562,1.0,1.0,phase_1,,,,,,,,,,,,,gray,triangle
37.0,5.0,1.0,1.0,1.0,1.0,278.984907999984,1.0,1.0,phase_1,,,,,,,,,,,,,orange,flipped triangle
118.0,6.0,2.0,1.0,2.0,2.0,314.4533040003807,1.0,1.0,phase_1,,,,,,,,,,,,,cyan,square
0.0,2.0,0.0,0.0,1.0,1.0,308.0311650001022,1.0,1.0,phase_1,,,,,,,,,,,,,blue,diamond
0.0,2.0,0.0,0.0,1.0,1.0,355.4054530004578,1.0,1.0,phase_1,,,,,,,,,,,,,blue,diamond
183.0,3.0,3.0,0.0,2.0,2.0,341.6643029995612,1.0,1.0,phase_1,,,,,,,,,,,,,green,I
216.0,3.0,3.0,0.0,4.0,4.0,350.978522999867,1.0,1.0,phase_1,,,,,,,,,,,,,green,I
79.0,2.0,2.0,0.0,3.0,3.0,377.9142319999664,1.0,2.0,phase_1,,,,,,,,,,,,,blue,diamond
182.0,7.0,3.0,1.0,1.0,1.0,278.3879050002724,1.0,1.0,phase_1,,,,,,,,,,,,,yellow,cross
46.0,1.0,1.0,0.0,2.0,2.0,375.3035539994016,1.0,1.0,phase_1,,,,,,,,,,,,,white,circle
125.0,6.0,2.0,1.0,3.0,3.0,296.7430500002592,1.0,1.0,phase_1,,,,,,,,,,,,,cyan,square
221.0,3.0,3.0,0.0,3.0,3.0,306.32695199983567,1.0,1.0,phase_1,,,,,,,,,,,,,green,I
51.0,1.0,1.0,0.0,4.0,4.0,325.0903759999346,1.0,1.0,phase_1,,,,,,,,,,,,,white,circle
90.0,6.0,2.0,1.0,3.0,3.0,320.9236060001785,1.0,1.0,phase_1,,,,,,,,,,,,,cyan,square
52.0,1.0,1.0,0.0,1.0,1.0,320.53065699983557,1.0,1.0,phase_1,,,,,,,,,,,,,white,circle
116.0,2.0,2.0,0.0,4.0,4.0,390.1976009992722,1.0,1.0,phase_1,,,,,,,,,,,,,blue,diamond
0.0,6.0,0.0,1.0,2.0,2.0,432.031549000385,1.0,1.0,phase_1,,,,,,,,,,,,,cyan,square
213.0,7.0,3.0,1.0,3.0,3.0,303.7320940002246,1.0,1.0,phase_1,,,,,,,,,,,,,yellow,cross
0.0,4.0,0.0,0.0,1.0,1.0,281.0772120001275,1.0,1.0,phase_1,,,,,,,,,,,,,gray,triangle
0.0,1.0,0.0,0.0,4.0,4.0,294.1780800001652,1.0,1.0,phase_1,,,,,,,,,,,,,white,circle
206.0,7.0,3.0,1.0,1.0,1.0,302.6903970003332,1.0,2.0,phase_1,,,,,,,,,,,,,yellow,cross
0.0,1.0,0.0,0.0,3.0,3.0,384.4513550002375,1.0,1.0,phase_1,,,,,,,,,,,,,white,circle
69.0,1.0,1.0,0.0,3.0,3.0,385.6949440005337,1.0,1.0,phase_1,,,,,,,,,,,,,white,circle
0.0,3.0,0.0,0.0,1.0,1.0,422.5023620001593,1.0,1.0,phase_1,,,,,,,,,,,,,green,I
34.0,1.0,1.0,0.0,4.0,4.0,392.7283529992564,1.0,1.0,phase_1,,,,,,,,,,,,,white,circle
113.0,2.0,2.0,0.0,4.0,4.0,319.3382680001377,1.0,1.0,phase_1,,,,,,,,,,,,,blue,diamond
0.0,8.0,0.0,1.0,3.0,3.0,378.5104219996356,1.0,1.0,phase_1,,,,,,,,,,,,,magenta,hexagon
382.0,8.0,4.0,1.0,2.0,2.0,335.4121370002758,1.0,1.0,phase_1,,,,,,,,,,,,,magenta,hexagon
0.0,1.0,0.0,0.0,1.0,1.0,322.529210000539,1.0,1.0,phase_1,,,,,,,,,,,,,white,circle
213.0,7.0,3.0,1.0,4.0,4.0,388.9074219996473,1.0,1.0,phase_1,,,,,,,,,,,,,yellow,cross
40.0,1.0,1.0,0.0,3.0,3.0,350.7901240000137,1.0,1.0,phase_1,,,,,,,,,,,,,white,circle
72.0,5.0,1.0,1.0,3.0,3.0,354.6243379996667,1.0,1.0,phase_1,,,,,,,,,,,,,orange,flipped triangle
0.0,6.0,0.0,1.0,4.0,4.0,318.5244959995543,1.0,1.0,phase_1,,,,,,,,,,,,,cyan,square
196.0,3.0,3.0,0.0,2.0,2.0,299.1806739992171,1.0,1.0,phase_1,,,,,,,,,,,,,green,I
0.0,6.0,0.0,1.0,3.0,3.0,445.9819839994452,1.0,1.0,phase_1,,,,,,,,,,,,,cyan,square
213.0,3.0,3.0,0.0,1.0,1.0,334.2237350007053,1.0,1.0,phase_1,,,,,,,,,,,,,green,I
102.0,6.0,2.0,1.0,3.0,3.0,326.6056120000939,1.0,1.0,phase_1,,,,,,,,,,,,,cyan,square
205.0,3.0,3.0,0.0,3.0,3.0,332.7551420006784,1.0,1.0,phase_1,,,,,,,,,,,,,green,I
410.0,4.0,4.0,0.0,3.0,3.0,274.5814390000305,1.0,1.0,phase_1,,,,,,,,,,,,,gray,triangle
118.0,2.0,2.0,0.0,2.0,2.0,338.7699149998298,1.0,1.0,phase_1,,,,,,,,,,,,,blue,diamond
70.0,1.0,1.0,0.0,4.0,4.0,306.9156110004769,1.0,1.0,phase_1,,,,,,,,,,,,,white,circle
202.0,3.0,3.0,0.0,2.0,2.0,407.6870389999385,1.0,1.0,phase_1,,,,,,,,,,,,,green,I
401.0,8.0,4.0,1.0,4.0,4.0,330.4152950004209,1.0,1.0,phase_1,,,,,,,,,,,,,magenta,hexagon
184.0,7.0,3.0,1.0,4.0,4.0,369.0813270004582,1.0,1.0,phase_1,,,,,,,,,,,,,yellow,cross
62.0,1.0,1.0,0.0,3.0,3.0,282.372579999901,1.0,1.0,phase_1,,,,,,,,,,,,,white,circle
124.0,2.0,2.0,0.0,2.0,2.0,284.138797000196,1.0,1.0,phase_1,,,,,,,,,,,,,blue,diamond
107.0,6.0,2.0,1.0,1.0,1.0,629.419907000738,1.0,1.0,phase_1,,,,,,,,,,,,,cyan,square
36.0,1.0,1.0,0.0,1.0,1.0,959.5390059994317,1.0,1.0,phase_1,,,,,,,,,,,,,white,circle
400.0,4.0,4.0,0.0,4.0,4.0,690.9061409996866,1.0,1.0,phase_1,,,,,,,,,,,,,gray,triangle
209.0,3.0,3.0,0.0,2.0,2.0,464.0437120006027,1.0,1.0,phase_1,,,,,,,,,,,,,green,I
183.0,3.0,3.0,0.0,4.0,4.0,345.185784000023,1.0,1.0,phase_1,,,,,,,,,,,,,green,I
396.0,4.0,4.0,0.0,2.0,2.0,480.9822510005688,1.0,1.0,phase_1,,,,,,,,,,,,,gray,triangle
58.0,5.0,1.0,1.0,1.0,1.0,348.0757420002192,1.0,1.0,phase_1,,,,,,,,,,,,,orange,flipped triangle
391.0,8.0,4.0,1.0,1.0,1.0,408.6193350003668,1.0,1.0,phase_1,,,,,,,,,,,,,magenta,hexagon
78.0,6.0,2.0,1.0,1.0,1.0,473.3264039996356,1.0,1.0,phase_1,,,,,,,,,,,,,cyan,square
46.0,5.0,1.0,1.0,2.0,2.0,832.6199759994779,1.0,1.0,phase_1,,,,,,,,,,,,,orange,flipped triangle
218.0,7.0,3.0,1.0,2.0,2.0,318.3660989998316,2.0,1.0,phase_1,,,,,,,,,,,,,yellow,cross
0.0,8.0,0.0,1.0,4.0,4.0,370.4357039996466,2.0,2.0,phase_1,,,,,,,,,,,,,magenta,hexagon
94.0,6.0,2.0,1.0,1.0,1.0,386.6369869992923,2.0,1.0,phase_1,,,,,,,,,,,,,cyan,square
49.0,1.0,1.0,0.0,4.0,4.0,372.3951909996685,2.0,1.0,phase_1,,,,,,,,,,,,,white,circle
0.0,7.0,0.0,1.0,3.0,3.0,373.8807219997397,2.0,1.0,phase_1,,,,,,,,,,,,,yellow,cross
0.0,4.0,0.0,0.0,4.0,4.0,347.9719120005029,2.0,1.0,phase_1,,,,,,,,,,,,,gray,triangle
206.0,7.0,3.0,1.0,2.0,2.0,573.7622920005379,2.0,1.0,phase_1,,,,,,,,,,,,,yellow,cross
94.0,2.0,2.0,0.0,3.0,3.0,408.6784989995067,2.0,1.0,phase_1,,,,,,,,,,,,,blue,diamond
416.0,4.0,4.0,0.0,2.0,2.0,546.6538350001429,2.0,1.0,phase_1,,,,,,,,,,,,,gray,triangle
193.0,7.0,3.0,1.0,4.0,4.0,498.4220299993467,2.0,1.0,phase_1,,,,,,,,,,,,,yellow,cross
202.0,7.0,3.0,1.0,3.0,3.0,387.7501759998267,2.0,1.0,phase_1,,,,,,,,,,,,,yellow,cross
206.0,3.0,3.0,0.0,2.0,2.0,405.0107260000004,2.0,1.0,phase_1,,,,,,,,,,,,,green,I
124.0,6.0,2.0,1.0,3.0,3.0,459.6420490006494,2.0,1.0,phase_1,,,,,,,,,,,,,cyan,square
72.0,1.0,1.0,0.0,1.0,1.0,408.0757990004713,2.0,1.0,phase_1,,,,,,,,,,,,,white,circle
198.0,7.0,3.0,1.0,2.0,2.0,385.4229939997822,2.0,1.0,phase_1,,,,,,,,,,,,,yellow,cross
103.0,2.0,2.0,0.0,4.0,4.0,321.53888799985,2.0,1.0,phase_1,,,,,,,,,,,,,blue,diamond
0.0,8.0,0.0,1.0,1.0,1.0,321.8656609997197,2.0,1.0,phase_1,,,,,,,,,,,,,magenta,hexagon
422.0,4.0,4.0,0.0,4.0,4.0,426.6045320000557,2.0,1.0,phase_1,,,,,,,,,,,,,gray,triangle
0.0,3.0,0.0,0.0,2.0,2.0,469.5260290000078,2.0,1.0,phase_1,,,,,,,,,,,,,green,I
385.0,4.0,4.0,0.0,1.0,1.0,528.424117999748,2.0,1.0,phase_1,,,,,,,,,,,,,gray,triangle
103.0,6.0,2.0,1.0,3.0,3.0,319.1026450003846,2.0,1.0,phase_1,,,,,,,,,,,,,cyan,square
66.0,5.0,1.0,1.0,4.0,4.0,429.0244620005978,2.0,1.0,phase_1,,,,,,,,,,,,,orange,flipped triangle
58.0,1.0,1.0,0.0,1.0,1.0,537.8013569998075,2.0,1.0,phase_1,,,,,,,,,,,,,white,circle
40.0,5.0,1.0,1.0,2.0,2.0,357.1668229997158,2.0,1.0,phase_1,,,,,,,,,,,,,orange,flipped triangle
0.0,5.0,0.0,1.0,3.0,3.0,451.7543270003443,2.0,1.0,phase_1,,,,,,,,,,,,,orange,flipped triangle
40.0,1.0,1.0,0.0,4.0,4.0,400.5687220005711,2.0,1.0,phase_1,,,,,,,,,,,,,white,circle
218.0,7.0,3.0,1.0,3.0,3.0,375.3214030002709,2.0,1.0,phase_1,,,,,,,,,,,,,yellow,cross
28.0,5.0,1.0,1.0,2.0,2.0,274.9240619996271,2.0,1.0,phase_1,,,,,,,,,,,,,orange,flipped triangle
202.0,7.0,3.0,1.0,4.0,4.0,551.5992589998859,2.0,1.0,phase_1,,,,,,,,,,,,,yellow,cross
49.0,5.0,1.0,1.0,3.0,3.0,598.531276000358,2.0,1.0,phase_1,,,,,,,,,,,,,orange,flipped triangle
46.0,1.0,1.0,0.0,1.0,1.0,451.8349489999309,2.0,1.0,phase_1,,,,,,,,,,,,,white,circle
31.0,5.0,1.0,1.0,4.0,4.0,873.1398459995035,2.0,1.0,phase_1,,,,,,,,,,,,,orange,flipped triangle
391.0,4.0,4.0,0.0,2.0,2.0,489.7406319996662,2.0,1.0,phase_1,,,,,,,,,,,,,gray,triangle
0.0,2.0,0.0,0.0,2.0,2.0,335.1668539999082,2.0,1.0,phase_1,,,,,,,,,,,,,blue,diamond
0.0,8.0,0.0,1.0,4.0,4.0,617.3724780001066,2.0,1.0,phase_1,,,,,,,,,,,,,magenta,hexagon
0.0,3.0,0.0,0.0,2.0,2.0,330.6897359998402,2.0,1.0,phase_1,,,,,,,,,,,,,green,I
78.0,2.0,2.0,0.0,2.0,2.0,324.1924019994258,2.0,2.0,phase_1,,,,,,,,,,,,,blue,diamond
0.0,7.0,0.0,1.0,1.0,1.0,401.3508909993106,2.0,1.0,phase_1,,,,,,,,,,,,,yellow,cross
0.0,7.0,0.0,1.0,3.0,3.0,485.3510579996509,2.0,1.0,phase_1,,,,,,,,,,,,,yellow,cross
71.0,5.0,1.0,1.0,3.0,3.0,447.6834999995844,2.0,1.0,phase_1,,,,,,,,,,,,,orange,flipped triangle
213.0,7.0,3.0,1.0,4.0,4.0,743.1701629993768,2.0,1.0,phase_1,,,,,,,,,,,,,yellow,cross
108.0,6.0,2.0,1.0,3.0,3.0,517.6274750001539,2.0,1.0,phase_1,,,,,,,,,,,,,cyan,square
121.0,2.0,2.0,0.0,4.0,4.0,768.5259700001552,2.0,1.0,phase_1,,,,,,,,,,,,,blue,diamond
177.0,7.0,3.0,1.0,2.0,2.0,486.095381999803,2.0,1.0,phase_1,,,,,,,,,,,,,yellow,cross
78.0,6.0,2.0,1.0,2.0,2.0,840.6614250006896,2.0,1.0,phase_1,,,,,,,,,,,,,cyan,square
0.0,4.0,0.0,0.0,2.0,2.0,862.8157150005791,2.0,1.0,phase_1,,,,,,,,,,,,,gray,triangle
0.0,2.0,0.0,0.0,1.0,1.0,917.133640999964,2.0,1.0,phase_1,,,,,,,,,,,,,blue,diamond
123.0,2.0,2.0,0.0,2.0,2.0,522.4713260004137,2.0,1.0,phase_1,,,,,,,,,,,,,blue,diamond
416.0,8.0,4.0,1.0,3.0,3.0,681.4565670001684,2.0,1.0,phase_1,,,,,,,,,,,,,magenta,hexagon
103.0,6.0,2.0,1.0,1.0,1.0,826.5808559999641,2.0,1.0,phase_1,,,,,,,,,,,,,cyan,square
88.0,2.0,2.0,0.0,3.0,3.0,773.3311510000931,2.0,1.0,phase_1,,,,,,,,,,,,,blue,diamond
100.0,2.0,2.0,0.0,4.0,4.0,594.6757830006391,2.0,1.0,phase_1,,,,,,,,,,,,,blue,diamond
0.0,5.0,0.0,1.0,3.0,3.0,418.0233110000699,2.0,1.0,phase_1,,,,,,,,,,,,,orange,flipped triangle
0.0,6.0,0.0,1.0,4.0,4.0,500.9890680003082,2.0,1.0,phase_1,,,,,,,,,,,,,cyan,square
198.0,3.0,3.0,0.0,4.0,4.0,527.8446579995943,2.0,1.0,phase_1,,,,,,,,,,,,,green,I
38.0,1.0,1.0,0.0,2.0,2.0,370.596504999412,2.0,1.0,phase_1,,,,,,,,,,,,,white,circle
423.0,4.0,4.0,0.0,2.0,2.0,390.2832599997055,2.0,1.0,phase_1,,,,,,,,,,,,,gray,triangle
67.0,1.0,1.0,0.0,4.0,4.0,854.5712260001892,2.0,1.0,phase_1,,,,,,,,,,,,,white,circle
103.0,2.0,2.0,0.0,2.0,2.0,399.2969920000178,2.0,1.0,phase_1,,,,,,,,,,,,,blue,diamond
193.0,7.0,3.0,1.0,1.0,1.0,831.8017669998881,2.0,1.0,phase_1,,,,,,,,,,,,,yellow,cross
391.0,4.0,4.0,0.0,2.0,2.0,595.6203999994614,2.0,1.0,phase_1,,,,,,,,,,,,,gray,triangle
81.0,2.0,2.0,0.0,1.0,1.0,827.8210629996465,2.0,1.0,phase_1,,,,,,,,,,,,,blue,diamond
416.0,8.0,4.0,1.0,3.0,3.0,961.475977000191,2.0,1.0,phase_1,,,,,,,,,,,,,magenta,hexagon
107.0,2.0,2.0,0.0,3.0,3.0,539.1244780003035,2.0,1.0,phase_1,,,,,,,,,,,,,blue,diamond
211.0,3.0,3.0,0.0,4.0,4.0,375.9166949994323,2.0,1.0,phase_1,,,,,,,,,,,,,green,I
423.0,4.0,4.0,0.0,4.0,4.0,600.5760360003478,2.0,1.0,phase_1,,,,,,,,,,,,,gray,triangle
402.0,4.0,4.0,0.0,3.0,3.0,488.9902069999152,2.0,1.0,phase_1,,,,,,,,,,,,,gray,triangle
99.0,6.0,2.0,1.0,2.0,2.0,448.9375539997127,2.0,1.0,phase_1,,,,,,,,,,,,,cyan,square
54.0,1.0,1.0,0.0,3.0,3.0,762.534121000499,2.0,1.0,phase_1,,,,,,,,,,,,,white,circle
40.0,1.0,1.0,0.0,1.0,1.0,887.2078529993814,2.0,1.0,phase_1,,,,,,,,,,,,,white,circle
46.0,1.0,1.0,0.0,2.0,2.0,497.7246140006173,2.0,1.0,phase_1,,,,,,,,,,,,,white,circle
212.0,7.0,3.0,1.0,3.0,3.0,867.0600659997945,2.0,1.0,phase_1,,,,,,,,,,,,,yellow,cross
425.0,8.0,4.0,1.0,3.0,3.0,421.5073239993216,2.0,1.0,phase_1,,,,,,,,,,,,,magenta,hexagon
399.0,8.0,4.0,1.0,4.0,4.0,409.7834829999556,2.0,1.0,phase_1,,,,,,,,,,,,,magenta,hexagon
111.0,6.0,2.0,1.0,1.0,1.0,556.1094409995349,2.0,2.0,phase_1,,,,,,,,,,,,,cyan,square
90.0,2.0,2.0,0.0,3.0,3.0,453.724054000304,2.0,1.0,phase_1,,,,,,,,,,,,,blue,diamond
67.0,5.0,1.0,1.0,1.0,1.0,541.7635100002371,2.0,2.0,phase_1,,,,,,,,,,,,,orange,flipped triangle
118.0,6.0,2.0,1.0,2.0,2.0,337.9485810000915,2.0,1.0,phase_1,,,,,,,,,,,,,cyan,square
0.0,6.0,0.0,1.0,2.0,2.0,948.7860979998004,2.0,1.0,phase_1,,,,,,,,,,,,,cyan,square
421.0,4.0,4.0,0.0,4.0,4.0,653.9855210003225,2.0,1.0,phase_1,,,,,,,,,,,,,gray,triangle
37.0,1.0,1.0,0.0,2.0,2.0,704.7147929997664,2.0,1.0,phase_1,,,,,,,,,,,,,white,circle
34.0,5.0,1.0,1.0,3.0,3.0,700.7158309997976,2.0,1.0,phase_1,,,,,,,,,,,,,orange,flipped triangle
96.0,2.0,2.0,0.0,3.0,3.0,841.6536370004906,2.0,1.0,phase_1,,,,,,,,,,,,,blue,diamond
219.0,3.0,3.0,0.0,3.0,3.0,737.1280489996934,2.0,1.0,phase_1,,,,,,,,,,,,,green,I
0.0,5.0,0.0,1.0,1.0,1.0,338.045817999955,2.0,2.0,phase_1,,,,,,,,,,,,,orange,flipped triangle
102.0,2.0,2.0,0.0,1.0,1.0,741.4920399996845,2.0,1.0,phase_1,,,,,,,,,,,,,blue,diamond
410.0,8.0,4.0,1.0,1.0,1.0,380.1200509997215,2.0,1.0,phase_1,,,,,,,,,,,,,magenta,hexagon
191.0,3.0,3.0,0.0,1.0,1.0,484.8187830002644,2.0,1.0,phase_1,,,,,,,,,,,,,green,I
0.0,5.0,0.0,1.0,2.0,2.0,330.719147000309,2.0,1.0,phase_1,,,,,,,,,,,,,orange,flipped triangle
187.0,7.0,3.0,1.0,1.0,1.0,419.8930659995312,2.0,1.0,phase_1,,,,,,,,,,,,,yellow,cross
216.0,7.0,3.0,1.0,3.0,3.0,368.8754969998626,2.0,1.0,phase_1,,,,,,,,,,,,,yellow,cross
220.0,3.0,3.0,0.0,4.0,4.0,317.0375400004559,2.0,1.0,phase_1,,,,,,,,,,,,,green,I
61.0,5.0,1.0,1.0,3.0,3.0,439.3613049996929,2.0,1.0,phase_1,,,,,,,,,,,,,orange,flipped triangle
386.0,8.0,4.0,1.0,3.0,3.0,370.8465439995052,2.0,1.0,phase_1,,,,,,,,,,,,,magenta,hexagon
0.0,3.0,0.0,0.0,2.0,2.0,812.3613359994124,2.0,1.0,phase_1,,,,,,,,,,,,,green,I
198.0,7.0,3.0,1.0,1.0,1.0,422.0417640008236,2.0,1.0,phase_1,,,,,,,,,,,,,yellow,cross
381.0,8.0,4.0,1.0,4.0,4.0,401.7644309997195,2.0,1.0,phase_1,,,,,,,,,,,,,magenta,hexagon
0.0,6.0,0.0,1.0,2.0,2.0,484.7063759998491,2.0,1.0,phase_1,,,,,,,,,,,,,cyan,square
0.0,1.0,0.0,0.0,3.0,3.0,385.0566250002885,2.0,1.0,phase_1,,,,,,,,,,,,,white,circle
410.0,4.0,4.0,0.0,2.0,2.0,348.9461569997729,2.0,1.0,phase_1,,,,,,,,,,,,,gray,triangle
401.0,4.0,4.0,0.0,3.0,3.0,593.4167750001507,3.0,1.0,phase_1,,,,,,,,,,,,,gray,triangle
0.0,6.0,0.0,1.0,4.0,4.0,711.5155890005553,3.0,1.0,phase_1,,,,,,,,,,,,,cyan,square
198.0,3.0,3.0,0.0,3.0,3.0,427.5554730002113,3.0,1.0,phase_1,,,,,,,,,,,,,green,I
388.0,8.0,4.0,1.0,3.0,3.0,376.8139600006179,3.0,1.0,phase_1,,,,,,,,,,,,,magenta,hexagon
46.0,5.0,1.0,1.0,4.0,4.0,593.3399980003742,3.0,1.0,phase_1,,,,,,,,,,,,,orange,flipped triangle
0.0,7.0,0.0,1.0,4.0,4.0,425.5141860003277,3.0,1.0,phase_1,,,,,,,,,,,,,yellow,cross
125.0,2.0,2.0,0.0,1.0,1.0,418.15965099976887,3.0,1.0,phase_1,,,,,,,,,,,,,blue,diamond
382.0,8.0,4.0,1.0,4.0,4.0,400.5397520004408,3.0,1.0,phase_1,,,,,,,,,,,,,magenta,hexagon
0.0,2.0,0.0,0.0,3.0,3.0,576.046371999837,3.0,1.0,phase_1,,,,,,,,,,,,,blue,diamond
0.0,1.0,0.0,0.0,3.0,3.0,353.3432969998102,3.0,1.0,phase_1,,,,,,,,,,,,,white,circle
399.0,4.0,4.0,0.0,1.0,1.0,372.6119570001174,3.0,1.0,phase_1,,,,,,,,,,,,,gray,triangle
32.0,1.0,1.0,0.0,3.0,3.0,339.8482040001909,3.0,1.0,phase_1,,,,,,,,,,,,,white,circle
0.0,5.0,0.0,1.0,1.0,1.0,403.8406580002629,3.0,1.0,phase_1,,,,,,,,,,,,,orange,flipped triangle
414.0,8.0,4.0,1.0,4.0,4.0,347.7149069994993,3.0,1.0,phase_1,,,,,,,,,,,,,magenta,hexagon
376.0,4.0,4.0,0.0,3.0,3.0,408.0468749998545,3.0,1.0,phase_1,,,,,,,,,,,,,gray,triangle
0.0,8.0,0.0,1.0,1.0,1.0,397.5043300006291,3.0,1.0,phase_1,,,,,,,,,,,,,magenta,hexagon
56.0,1.0,1.0,0.0,4.0,4.0,429.9709820006683,3.0,1.0,phase_1,,,,,,,,,,,,,white,circle
212.0,3.0,3.0,0.0,1.0,1.0,420.2881519995571,3.0,1.0,phase_1,,,,,,,,,,,,,green,I
376.0,8.0,4.0,1.0,2.0,2.0,515.0374530003319,3.0,1.0,phase_1,,,,,,,,,,,,,magenta,hexagon
185.0,3.0,3.0,0.0,4.0,4.0,350.3082810002524,3.0,1.0,phase_1,,,,,,,,,,,,,green,I
56.0,5.0,1.0,1.0,2.0,2.0,397.8784229993835,3.0,1.0,phase_1,,,,,,,,,,,,,orange,flipped triangle
47.0,1.0,1.0,0.0,4.0,4.0,384.5191629998226,3.0,1.0,phase_1,,,,,,,,,,,,,white,circle
76.0,2.0,2.0,0.0,3.0,3.0,443.7562920002165,3.0,1.0,phase_1,,,,,,,,,,,,,blue,diamond
100.0,6.0,2.0,1.0,3.0,3.0,421.5375309995579,3.0,1.0,phase_1,,,,,,,,,,,,,cyan,square
90.0,6.0,2.0,1.0,2.0,2.0,369.7593580000102,3.0,1.0,phase_1,,,,,,,,,,,,,cyan,square
382.0,4.0,4.0,0.0,3.0,3.0,550.4436549999809,3.0,1.0,phase_1,,,,,,,,,,,,,gray,triangle
70.0,5.0,1.0,1.0,1.0,1.0,616.3202830002774,3.0,1.0,phase_1,,,,,,,,,,,,,orange,flipped triangle
0.0,7.0,0.0,1.0,3.0,3.0,638.2072230007907,3.0,1.0,phase_1,,,,,,,,,,,,,yellow,cross
407.0,4.0,4.0,0.0,1.0,1.0,628.4822369998437,3.0,1.0,phase_1,,,,,,,,,,,,,gray,triangle
38.0,5.0,1.0,1.0,1.0,1.0,355.8316059998105,3.0,1.0,phase_1,,,,,,,,,,,,,orange,flipped triangle
221.0,7.0,3.0,1.0,1.0,1.0,322.1885769999062,3.0,1.0,phase_1,,,,,,,,,,,,,yellow,cross
0.0,3.0,0.0,0.0,2.0,2.0,356.0344749994328,3.0,1.0,phase_1,,,,,,,,,,,,,green,I
54.0,5.0,1.0,1.0,2.0,2.0,404.3247439994957,3.0,1.0,phase_1,,,,,,,,,,,,,orange,flipped triangle
28.0,1.0,1.0,0.0,1.0,1.0,469.8455430007016,3.0,1.0,phase_1,,,,,,,,,,,,,white,circle
83.0,6.0,2.0,1.0,2.0,2.0,519.1190659998028,3.0,1.0,phase_1,,,,,,,,,,,,,cyan,square
94.0,2.0,2.0,0.0,1.0,1.0,412.3832949999269,3.0,1.0,phase_1,,,,,,,,,,,,,blue,diamond
96.0,6.0,2.0,1.0,4.0,4.0,529.9320840003929,3.0,1.0,phase_1,,,,,,,,,,,,,cyan,square
0.0,4.0,0.0,0.0,1.0,1.0,462.2038520001297,3.0,1.0,phase_1,,,,,,,,,,,,,gray,triangle
193.0,3.0,3.0,0.0,4.0,4.0,445.3042590002951,3.0,2.0,phase_1,,,,,,,,,,,,,green,I
83.0,6.0,2.0,1.0,1.0,1.0,717.8250960005244,3.0,1.0,phase_1,,,,,,,,,,,,,cyan,square
66.0,5.0,1.0,1.0,4.0,4.0,605.6154880006943,3.0,1.0,phase_1,,,,,,,,,,,,,orange,flipped triangle
32.0,5.0,1.0,1.0,1.0,1.0,539.7193600001629,3.0,1.0,phase_1,,,,,,,,,,,,,orange,flipped triangle
390.0,8.0,4.0,1.0,3.0,3.0,598.4652420002021,3.0,1.0,phase_1,,,,,,,,,,,,,magenta,hexagon
75.0,1.0,1.0,0.0,2.0,2.0,413.7820229998397,3.0,1.0,phase_1,,,,,,,,,,,,,white,circle
419.0,8.0,4.0,1.0,2.0,2.0,740.4884590005167,3.0,1.0,phase_1,,,,,,,,,,,,,magenta,hexagon
61.0,1.0,1.0,0.0,3.0,3.0,661.8682480002462,3.0,1.0,phase_1,,,,,,,,,,,,,white,circle
116.0,6.0,2.0,1.0,4.0,4.0,551.1868800003867,3.0,1.0,phase_1,,,,,,,,,,,,,cyan,square
0.0,5.0,0.0,1.0,3.0,3.0,527.7789890005806,3.0,1.0,phase_1,,,,,,,,,,,,,orange,flipped triangle
0.0,2.0,0.0,0.0,3.0,3.0,338.0566480000198,3.0,1.0,phase_1,,,,,,,,,,,,,blue,diamond
185.0,7.0,3.0,1.0,4.0,4.0,926.7169069999,3.0,1.0,phase_1,,,,,,,,,,,,,yellow,cross
54.0,1.0,1.0,0.0,1.0,1.0,642.3339779994421,3.0,1.0,phase_1,,,,,,,,,,,,,white,circle
44.0,5.0,1.0,1.0,4.0,4.0,645.5079240004125,3.0,1.0,phase_1,,,,,,,,,,,,,orange,flipped triangle
40.0,5.0,1.0,1.0,2.0,2.0,605.1588989994343,3.0,1.0,phase_1,,,,,,,,,,,,,orange,flipped triangle
216.0,7.0,3.0,1.0,4.0,4.0,697.5056869996479,3.0,1.0,phase_1,,,,,,,,,,,,,yellow,cross
35.0,1.0,1.0,0.0,3.0,3.0,687.1791129997291,3.0,1.0,phase_1,,,,,,,,,,,,,white,circle
191.0,7.0,3.0,1.0,1.0,1.0,750.8001339992916,3.0,1.0,phase_1,,,,,,,,,,,,,yellow,cross
111.0,2.0,2.0,0.0,3.0,3.0,574.5683939994706,3.0,1.0,phase_1,,,,,,,,,,,,,blue,diamond
46.0,5.0,1.0,1.0,2.0,2.0,836.7489410002236,3.0,1.0,phase_1,,,,,,,,,,,,,orange,flipped triangle
35.0,1.0,1.0,0.0,3.0,3.0,765.7958230001896,3.0,1.0,phase_1,,,,,,,,,,,,,white,circle
71.0,1.0,1.0,0.0,1.0,1.0,760.1373850002346,3.0,1.0,phase_1,,,,,,,,,,,,,white,circle
193.0,7.0,3.0,1.0,3.0,3.0,741.4143709993368,3.0,1.0,phase_1,,,,,,,,,,,,,yellow,cross
99.0,2.0,2.0,0.0,1.0,1.0,540.7160810000278,3.0,1.0,phase_1,,,,,,,,,,,,,blue,diamond
183.0,7.0,3.0,1.0,3.0,3.0,451.6945350005699,3.0,1.0,phase_1,,,,,,,,,,,,,yellow,cross
420.0,4.0,4.0,0.0,3.0,3.0,515.292129000045,3.0,1.0,phase_1,,,,,,,,,,,,,gray,triangle
96.0,6.0,2.0,1.0,4.0,4.0,459.7670000002836,3.0,1.0,phase_1,,,,,,,,,,,,,cyan,square
410.0,8.0,4.0,1.0,1.0,1.0,380.2048170000489,3.0,1.0,phase_1,,,,,,,,,,,,,magenta,hexagon
0.0,1.0,0.0,0.0,2.0,2.0,519.7483070005546,3.0,1.0,phase_1,,,,,,,,,,,,,white,circle
121.0,6.0,2.0,1.0,1.0,1.0,808.7579029997869,3.0,1.0,phase_1,,,,,,,,,,,,,cyan,square
196.0,7.0,3.0,1.0,1.0,1.0,447.8284699998767,3.0,1.0,phase_1,,,,,,,,,,,,,yellow,cross
0.0,8.0,0.0,1.0,4.0,4.0,336.3806910001585,3.0,1.0,phase_1,,,,,,,,,,,,,magenta,hexagon
93.0,2.0,2.0,0.0,2.0,2.0,359.1451889997188,3.0,2.0,phase_1,,,,,,,,,,,,,blue,diamond
381.0,4.0,4.0,0.0,1.0,1.0,325.7634399997187,3.0,1.0,phase_1,,,,,,,,,,,,,gray,triangle
182.0,7.0,3.0,1.0,3.0,3.0,459.7700210006223,3.0,1.0,phase_1,,,,,,,,,,,,,yellow,cross
197.0,7.0,3.0,1.0,4.0,4.0,318.613219999861,3.0,1.0,phase_1,,,,,,,,,,,,,yellow,cross
391.0,8.0,4.0,1.0,1.0,1.0,387.2591010003816,3.0,1.0,phase_1,,,,,,,,,,,,,magenta,hexagon
114.0,6.0,2.0,1.0,4.0,4.0,484.2909719991439,3.0,1.0,phase_1,,,,,,,,,,,,,cyan,square
125.0,6.0,2.0,1.0,2.0,2.0,347.5249160001112,3.0,1.0,phase_1,,,,,,,,,,,,,cyan,square
399.0,4.0,4.0,0.0,3.0,3.0,361.9110839999848,3.0,1.0,phase_1,,,,,,,,,,,,,gray,triangle
380.0,8.0,4.0,1.0,1.0,1.0,293.6400039998261,3.0,1.0,phase_1,,,,,,,,,,,,,magenta,hexagon
181.0,7.0,3.0,1.0,4.0,4.0,296.2503200005812,3.0,1.0,phase_1,,,,,,,,,,,,,yellow,cross
385.0,4.0,4.0,0.0,2.0,2.0,366.2168600003497,3.0,1.0,phase_1,,,,,,,,,,,,,gray,triangle
0.0,3.0,0.0,0.0,2.0,2.0,314.838377000342,3.0,1.0,phase_1,,,,,,,,,,,,,green,I
0.0,8.0,0.0,1.0,1.0,1.0,387.9238529998474,3.0,1.0,phase_1,,,,,,,,,,,,,magenta,hexagon
78.0,6.0,2.0,1.0,4.0,4.0,309.4833289997041,3.0,1.0,phase_1,,,,,,,,,,,,,cyan,square
0.0,4.0,0.0,0.0,4.0,4.0,565.4540490004365,3.0,5.0,phase_1,,,,,,,,,,,,,gray,triangle
416.0,4.0,4.0,0.0,3.0,3.0,400.2139750000424,3.0,1.0,phase_1,,,,,,,,,,,,,gray,triangle
78.0,2.0,2.0,0.0,4.0,4.0,294.9112079995757,3.0,1.0,phase_1,,,,,,,,,,,,,blue,diamond
177.0,3.0,3.0,0.0,2.0,2.0,311.9266470002912,3.0,1.0,phase_1,,,,,,,,,,,,,green,I
29.0,1.0,1.0,0.0,2.0,2.0,516.4252869999473,3.0,1.0,phase_1,,,,,,,,,,,,,white,circle
384.0,4.0,4.0,0.0,1.0,1.0,430.7701950001501,3.0,1.0,phase_1,,,,,,,,,,,,,gray,triangle
81.0,6.0,2.0,1.0,4.0,4.0,462.875955000527,3.0,1.0,phase_1,,,,,,,,,,,,,cyan,square
61.0,5.0,1.0,1.0,1.0,1.0,355.7465369995043,3.0,1.0,phase_1,,,,,,,,,,,,,orange,flipped triangle
182.0,3.0,3.0,0.0,1.0,1.0,310.3418529999544,3.0,2.0,phase_1,,,,,,,,,,,,,green,I
205.0,7.0,3.0,1.0,2.0,2.0,334.9664759998632,3.0,1.0,phase_1,,,,,,,,,,,,,yellow,cross
44.0,1.0,1.0,0.0,3.0,3.0,421.0586239996701,3.0,1.0,phase_1,,,,,,,,,,,,,white,circle
391.0,4.0,4.0,0.0,1.0,1.0,887.2811600003843,3.0,1.0,phase_1,,,,,,,,,,,,,gray,triangle
382.0,4.0,4.0,0.0,4.0,4.0,701.4539300007527,3.0,1.0,phase_1,,,,,,,,,,,,,gray,triangle
60.0,1.0,1.0,0.0,4.0,4.0,349.5897439997861,3.0,1.0,phase_1,,,,,,,,,,,,,white,circle
182.0,3.0,3.0,0.0,3.0,3.0,624.3709539994597,3.0,1.0,phase_1,,,,,,,,,,,,,green,I
412.0,8.0,4.0,1.0,2.0,2.0,683.5746169999766,3.0,1.0,phase_1,,,,,,,,,,,,,magenta,hexagon
76.0,6.0,2.0,1.0,4.0,4.0,644.9846799996521,4.0,1.0,phase_1,,,,,,,,,,,,,cyan,square
416.0,8.0,4.0,1.0,4.0,4.0,357.805055999961,4.0,1.0,phase_1,,,,,,,,,,,,,magenta,hexagon
0.0,2.0,0.0,0.0,1.0,1.0,789.3528810000134,4.0,1.0,phase_1,,,,,,,,,,,,,blue,diamond
0.0,8.0,0.0,1.0,4.0,4.0,719.0795400001662,4.0,1.0,phase_1,,,,,,,,,,,,,magenta,hexagon
31.0,1.0,1.0,0.0,2.0,2.0,426.5641069996491,4.0,1.0,phase_1,,,,,,,,,,,,,white,circle
422.0,8.0,4.0,1.0,4.0,4.0,786.3119069997992,4.0,1.0,phase_1,,,,,,,,,,,,,magenta,hexagon
420.0,8.0,4.0,1.0,2.0,2.0,533.9622980000058,4.0,1.0,phase_1,,,,,,,,,,,,,magenta,hexagon
35.0,5.0,1.0,1.0,4.0,4.0,780.0008849999358,4.0,1.0,phase_1,,,,,,,,,,,,,orange,flipped triangle
391.0,8.0,4.0,1.0,1.0,1.0,756.3801129999774,4.0,1.0,phase_1,,,,,,,,,,,,,magenta,hexagon
40.0,5.0,1.0,1.0,4.0,4.0,459.2117629999848,4.0,1.0,phase_1,,,,,,,,,,,,,orange,flipped triangle
207.0,7.0,3.0,1.0,2.0,2.0,919.5302480002284,4.0,1.0,phase_1,,,,,,,,,,,,,yellow,cross
123.0,6.0,2.0,1.0,3.0,3.0,452.7953870001511,4.0,1.0,phase_1,,,,,,,,,,,,,cyan,square
193.0,3.0,3.0,0.0,1.0,1.0,455.3106520006622,4.0,1.0,phase_1,,,,,,,,,,,,,green,I
0.0,2.0,0.0,0.0,4.0,4.0,454.9645959996269,4.0,1.0,phase_1,,,,,,,,,,,,,blue,diamond
118.0,2.0,2.0,0.0,1.0,1.0,723.585028999878,4.0,1.0,phase_1,,,,,,,,,,,,,blue,diamond
0.0,4.0,0.0,0.0,2.0,2.0,431.8530820000887,4.0,1.0,phase_1,,,,,,,,,,,,,gray,triangle
202.0,7.0,3.0,1.0,2.0,2.0,457.6976489997832,4.0,1.0,phase_1,,,,,,,,,,,,,yellow,cross
206.0,3.0,3.0,0.0,3.0,3.0,718.2001510000191,4.0,1.0,phase_1,,,,,,,,,,,,,green,I
78.0,2.0,2.0,0.0,2.0,2.0,688.7051469993821,4.0,1.0,phase_1,,,,,,,,,,,,,blue,diamond
0.0,2.0,0.0,0.0,4.0,4.0,801.9731129998036,4.0,1.0,phase_1,,,,,,,,,,,,,blue,diamond
89.0,2.0,2.0,0.0,2.0,2.0,820.8549189994301,4.0,1.0,phase_1,,,,,,,,,,,,,blue,diamond
0.0,3.0,0.0,0.0,4.0,4.0,823.6672140001247,4.0,1.0,phase_1,,,,,,,,,,,,,green,I
0.0,4.0,0.0,0.0,1.0,1.0,628.3956119996219,4.0,1.0,phase_1,,,,,,,,,,,,,gray,triangle
0.0,3.0,0.0,0.0,1.0,1.0,564.7747080001864,4.0,1.0,phase_1,,,,,,,,,,,,,green,I
0.0,4.0,0.0,0.0,1.0,1.0,349.9361939993832,4.0,1.0,phase_1,,,,,,,,,,,,,gray,triangle
0.0,6.0,0.0,1.0,2.0,2.0,384.1558670001177,4.0,1.0,phase_1,,,,,,,,,,,,,cyan,square
81.0,6.0,2.0,1.0,4.0,4.0,411.5250769991689,4.0,1.0,phase_1,,,,,,,,,,,,,cyan,square
193.0,3.0,3.0,0.0,2.0,2.0,552.3945699997057,4.0,1.0,phase_1,,,,,,,,,,,,,green,I
118.0,2.0,2.0,0.0,1.0,1.0,894.7677740006839,4.0,1.0,phase_1,,,,,,,,,,,,,blue,diamond
0.0,7.0,0.0,1.0,1.0,1.0,799.169222999808,4.0,1.0,phase_1,,,,,,,,,,,,,yellow,cross
0.0,1.0,0.0,0.0,4.0,4.0,773.2083249993593,4.0,1.0,phase_1,,,,,,,,,,,,,white,circle
96.0,2.0,2.0,0.0,3.0,3.0,848.5069219996149,4.0,1.0,phase_1,,,,,,,,,,,,,blue,diamond
52.0,5.0,1.0,1.0,3.0,3.0,526.582349999444,4.0,2.0,phase_1,,,,,,,,,,,,,orange,flipped triangle
0.0,5.0,0.0,1.0,3.0,3.0,374.5277690004513,4.0,1.0,phase_1,,,,,,,,,,,,,orange,flipped triangle
100.0,6.0,2.0,1.0,4.0,4.0,805.7445790000202,4.0,1.0,phase_1,,,,,,,,,,,,,cyan,square
0.0,2.0,0.0,0.0,3.0,3.0,650.0451219999377,4.0,1.0,phase_1,,,,,,,,,,,,,blue,diamond
93.0,6.0,2.0,1.0,1.0,1.0,805.6484790004106,4.0,1.0,phase_1,,,,,,,,,,,,,cyan,square
220.0,7.0,3.0,1.0,3.0,3.0,638.6248030003117,4.0,1.0,phase_1,,,,,,,,,,,,,yellow,cross
184.0,3.0,3.0,0.0,2.0,2.0,806.709544000114,4.0,1.0,phase_1,,,,,,,,,,,,,green,I
0.0,1.0,0.0,0.0,4.0,4.0,309.8758450005334,4.0,2.0,phase_1,,,,,,,,,,,,,white,circle
421.0,8.0,4.0,1.0,3.0,3.0,305.9658489992216,4.0,1.0,phase_1,,,,,,,,,,,,,magenta,hexagon
402.0,8.0,4.0,1.0,2.0,2.0,486.9856640007128,4.0,1.0,phase_1,,,,,,,,,,,,,magenta,hexagon
181.0,3.0,3.0,0.0,1.0,1.0,483.0556910001178,4.0,1.0,phase_1,,,,,,,,,,,,,green,I
46.0,5.0,1.0,1.0,1.0,1.0,352.0891660000416,4.0,1.0,phase_1,,,,,,,,,,,,,orange,flipped triangle
399.0,4.0,4.0,0.0,2.0,2.0,482.282805000068,4.0,1.0,phase_1,,,,,,,,,,,,,gray,triangle
57.0,5.0,1.0,1.0,3.0,3.0,738.9577579997422,4.0,1.0,phase_1,,,,,,,,,,,,,orange,flipped triangle
378.0,4.0,4.0,0.0,4.0,4.0,615.04740700002,4.0,1.0,phase_1,,,,,,,,,,,,,gray,triangle
406.0,4.0,4.0,0.0,4.0,4.0,335.2317849994506,4.0,1.0,phase_1,,,,,,,,,,,,,gray,triangle
425.0,4.0,4.0,0.0,1.0,1.0,717.1126379998896,4.0,1.0,phase_1,,,,,,,,,,,,,gray,triangle
66.0,1.0,1.0,0.0,2.0,2.0,962.1458589999748,4.0,1.0,phase_1,,,,,,,,,,,,,white,circle
384.0,8.0,4.0,1.0,3.0,3.0,927.434897999774,4.0,1.0,phase_1,,,,,,,,,,,,,magenta,hexagon
183.0,7.0,3.0,1.0,4.0,4.0,721.0163990002911,4.0,1.0,phase_1,,,,,,,,,,,,,yellow,cross
178.0,7.0,3.0,1.0,3.0,3.0,923.6861770004908,4.0,1.0,phase_1,,,,,,,,,,,,,yellow,cross
81.0,2.0,2.0,0.0,4.0,4.0,840.3978649994315,4.0,1.0,phase_1,,,,,,,,,,,,,blue,diamond
31.0,5.0,1.0,1.0,4.0,4.0,884.305884999776,4.0,1.0,phase_1,,,,,,,,,,,,,orange,flipped triangle
176.0,7.0,3.0,1.0,2.0,2.0,824.6633839999049,4.0,1.0,phase_1,,,,,,,,,,,,,yellow,cross
202.0,3.0,3.0,0.0,4.0,4.0,953.572892000011,4.0,1.0,phase_1,,,,,,,,,,,,,green,I
380.0,4.0,4.0,0.0,2.0,2.0,987.102187000346,4.0,1.0,phase_1,,,,,,,,,,,,,gray,triangle
0.0,1.0,0.0,0.0,4.0,4.0,954.2694990004748,4.0,2.0,phase_1,,,,,,,,,,,,,white,circle
0.0,6.0,0.0,1.0,4.0,4.0,755.6130630000553,4.0,1.0,phase_1,,,,,,,,,,,,,cyan,square
51.0,5.0,1.0,1.0,3.0,3.0,680.2549040003214,4.0,1.0,phase_1,,,,,,,,,,,,,orange,flipped triangle
62.0,5.0,1.0,1.0,3.0,3.0,649.8637019994931,4.0,1.0,phase_1,,,,,,,,,,,,,orange,flipped triangle
0.0,8.0,0.0,1.0,1.0,1.0,839.260331999867,4.0,1.0,phase_1,,,,,,,,,,,,,magenta,hexagon
61.0,1.0,1.0,0.0,1.0,1.0,786.7114339996988,4.0,1.0,phase_1,,,,,,,,,,,,,white,circle
0.0,5.0,0.0,1.0,2.0,2.0,789.9423399994703,4.0,1.0,phase_1,,,,,,,,,,,,,orange,flipped triangle
407.0,8.0,4.0,1.0,2.0,2.0,670.7510179994642,4.0,1.0,phase_1,,,,,,,,,,,,,magenta,hexagon
0.0,7.0,0.0,1.0,1.0,1.0,684.4809959993654,4.0,1.0,phase_1,,,,,,,,,,,,,yellow,cross
57.0,1.0,1.0,0.0,3.0,3.0,683.9076090000162,4.0,1.0,phase_1,,,,,,,,,,,,,white,circle
376.0,4.0,4.0,0.0,1.0,1.0,348.4784299998864,4.0,1.0,phase_1,,,,,,,,,,,,,gray,triangle
0.0,4.0,0.0,0.0,2.0,2.0,304.6127719999276,4.0,1.0,phase_1,,,,,,,,,,,,,gray,triangle
113.0,6.0,2.0,1.0,2.0,2.0,317.8917290006211,4.0,1.0,phase_1,,,,,,,,,,,,,cyan,square
423.0,8.0,4.0,1.0,4.0,4.0,333.720882000307,4.0,1.0,phase_1,,,,,,,,,,,,,magenta,hexagon
79.0,6.0,2.0,1.0,1.0,1.0,583.6469300002136,4.0,1.0,phase_1,,,,,,,,,,,,,cyan,square
390.0,4.0,4.0,0.0,1.0,1.0,423.6284569997224,4.0,1.0,phase_1,,,,,,,,,,,,,gray,triangle
400.0,8.0,4.0,1.0,1.0,1.0,359.2932120000114,4.0,1.0,phase_1,,,,,,,,,,,,,magenta,hexagon
202.0,3.0,3.0,0.0,4.0,4.0,392.2359939997477,4.0,1.0,phase_1,,,,,,,,,,,,,green,I
187.0,3.0,3.0,0.0,2.0,2.0,317.8323239999372,4.0,1.0,phase_1,,,,,,,,,,,,,green,I
29.0,5.0,1.0,1.0,1.0,1.0,314.1875499995876,4.0,1.0,phase_1,,,,,,,,,,,,,orange,flipped triangle
54.0,5.0,1.0,1.0,1.0,1.0,321.19283099928,4.0,1.0,phase_1,,,,,,,,,,,,,orange,flipped triangle
213.0,3.0,3.0,0.0,3.0,3.0,312.5688179998178,4.0,1.0,phase_1,,,,,,,,,,,,,green,I
386.0,4.0,4.0,0.0,1.0,1.0,812.2904800002289,4.0,1.0,phase_1,,,,,,,,,,,,,gray,triangle
102.0,6.0,2.0,1.0,3.0,3.0,761.4759680000134,4.0,1.0,phase_1,,,,,,,,,,,,,cyan,square
36.0,5.0,1.0,1.0,2.0,2.0,359.5401459997447,4.0,1.0,phase_1,,,,,,,,,,,,,orange,flipped triangle
414.0,4.0,4.0,0.0,4.0,4.0,369.343772999855,4.0,1.0,phase_1,,,,,,,,,,,,,gray,triangle
178.0,3.0,3.0,0.0,3.0,3.0,300.2113009997629,4.0,1.0,phase_1,,,,,,,,,,,,,green,I
100.0,2.0,2.0,0.0,3.0,3.0,409.257264000189,4.0,1.0,phase_1,,,,,,,,,,,,,blue,diamond
90.0,2.0,2.0,0.0,1.0,1.0,473.9637909997327,4.0,1.0,phase_1,,,,,,,,,,,,,blue,diamond
88.0,6.0,2.0,1.0,3.0,3.0,340.1341310000134,4.0,1.0,phase_1,,,,,,,,,,,,,cyan,square
213.0,3.0,3.0,0.0,3.0,3.0,372.2337280005376,4.0,1.0,phase_1,,,,,,,,,,,,,green,I
385.0,8.0,4.0,1.0,1.0,1.0,793.3877619998384,4.0,1.0,phase_1,,,,,,,,,,,,,magenta,hexagon
0.0,3.0,0.0,0.0,3.0,3.0,361.2213669994162,4.0,1.0,phase_1,,,,,,,,,,,,,green,I
209.0,7.0,3.0,1.0,2.0,2.0,520.0160340000366,4.0,1.0,phase_1,,,,,,,,,,,,,yellow,cross
416.0,4.0,4.0,0.0,4.0,4.0,459.7267740000461,4.0,1.0,phase_1,,,,,,,,,,,,,gray,triangle
0.0,5.0,0.0,1.0,3.0,3.0,473.6993690003146,4.0,2.0,phase_1,,,,,,,,,,,,,orange,flipped triangle
60.0,5.0,1.0,1.0,2.0,2.0,775.8542689998649,4.0,1.0,phase_1,,,,,,,,,,,,,orange,flipped triangle
66.0,1.0,1.0,0.0,4.0,4.0,566.2227700004223,4.0,1.0,phase_1,,,,,,,,,,,,,white,circle
216.0,3.0,3.0,0.0,1.0,1.0,338.886939999611,4.0,1.0,phase_1,,,,,,,,,,,,,green,I
412.0,4.0,4.0,0.0,3.0,3.0,385.7262380006432,4.0,1.0,phase_1,,,,,,,,,,,,,gray,triangle
31.0,1.0,1.0,0.0,2.0,2.0,459.0211730001101,4.0,2.0,phase_1,,,,,,,,,,,,,white,circle
197.0,7.0,3.0,1.0,1.0,1.0,885.8518699998967,4.0,1.0,phase_1,,,,,,,,,,,,,yellow,cross
0.0,7.0,3.0,1.0,6.0,0.0,0.0,1.0,1.0,phase_2,stop,250.0,250.0,4.0,,,,,,,,,yellow,cross
0.0,1.0,1.0,0.0,5.0,5.0,338.8887259998228,1.0,1.0,phase_2,go,250.0,300.0,1.0,,,,,,,,,white,circle
0.0,5.0,1.0,1.0,5.0,5.0,816.808483999921,1.0,1.0,phase_2,go,250.0,300.0,1.0,,,,,,,,,orange,flipped triangle
0.0,1.0,1.0,0.0,6.0,6.0,676.5674330008551,1.0,1.0,phase_2,go,250.0,300.0,1.0,,,,,,,,,white,circle
0.0,7.0,3.0,1.0,6.0,6.0,417.3973799997839,1.0,1.0,phase_2,stop,250.0,300.0,3.0,,,,,,,,,yellow,cross
0.0,5.0,1.0,1.0,6.0,0.0,0.0,1.0,1.0,phase_2,stop,250.0,250.0,4.0,,,,,,,,,orange,flipped triangle
0.0,3.0,3.0,0.0,6.0,6.0,1001.0502759996598,1.0,1.0,phase_2,go,250.0,300.0,1.0,,,,,,,,,green,I
0.0,2.0,2.0,0.0,6.0,6.0,588.9815689997704,1.0,1.0,phase_2,go,250.0,300.0,1.0,,,,,,,,,blue,diamond
0.0,7.0,3.0,1.0,5.0,0.0,0.0,1.0,1.0,phase_2,stop,250.0,300.0,4.0,,,,,,,,,yellow,cross
0.0,8.0,4.0,1.0,5.0,0.0,0.0,1.0,1.0,phase_2,stop,300.0,300.0,4.0,,,,,,,,,magenta,hexagon
0.0,5.0,1.0,1.0,5.0,0.0,0.0,1.0,1.0,phase_2,stop,350.0,300.0,4.0,,,,,,,,,orange,flipped triangle
0.0,4.0,4.0,0.0,5.0,5.0,532.0535230002861,1.0,1.0,phase_2,go,400.0,300.0,1.0,,,,,,,,,gray,triangle
0.0,7.0,3.0,1.0,5.0,0.0,0.0,1.0,1.0,phase_2,stop,400.0,300.0,4.0,,,,,,,,,yellow,cross
0.0,6.0,2.0,1.0,6.0,6.0,691.3926839997657,1.0,1.0,phase_2,go,450.0,300.0,1.0,,,,,,,,,cyan,square
0.0,7.0,3.0,1.0,5.0,0.0,0.0,1.0,1.0,phase_2,stop,450.0,300.0,4.0,,,,,,,,,yellow,cross
0.0,8.0,4.0,1.0,5.0,0.0,0.0,1.0,1.0,phase_2,stop,500.0,300.0,4.0,,,,,,,,,magenta,hexagon
0.0,8.0,4.0,1.0,6.0,6.0,619.4310230002884,1.0,1.0,phase_2,go,550.0,300.0,1.0,,,,,,,,,magenta,hexagon
0.0,1.0,1.0,0.0,6.0,6.0,605.4331000004822,1.0,1.0,phase_2,go,550.0,300.0,1.0,,,,,,,,,white,circle
0.0,1.0,1.0,0.0,6.0,6.0,594.5838950001416,1.0,1.0,phase_2,go,550.0,300.0,1.0,,,,,,,,,white,circle
0.0,5.0,1.0,1.0,6.0,0.0,0.0,1.0,1.0,phase_2,stop,550.0,300.0,4.0,,,,,,,,,orange,flipped triangle
0.0,5.0,1.0,1.0,5.0,5.0,711.3477949997105,1.0,1.0,phase_2,stop,550.0,350.0,3.0,,,,,,,,,orange,flipped triangle
0.0,2.0,2.0,0.0,5.0,5.0,575.7062069997119,1.0,1.0,phase_2,go,500.0,350.0,1.0,,,,,,,,,blue,diamond
0.0,6.0,2.0,1.0,6.0,6.0,708.0718850002086,1.0,1.0,phase_2,go,500.0,350.0,1.0,,,,,,,,,cyan,square
0.0,3.0,3.0,0.0,5.0,5.0,720.3942910000478,1.0,1.0,phase_2,go,500.0,350.0,1.0,,,,,,,,,green,I
0.0,8.0,4.0,1.0,5.0,5.0,751.884601000711,1.0,1.0,phase_2,go,500.0,350.0,1.0,,,,,,,,,magenta,hexagon
0.0,5.0,1.0,1.0,6.0,0.0,0.0,1.0,1.0,phase_2,stop,500.0,350.0,4.0,,,,,,,,,orange,flipped triangle
0.0,3.0,3.0,0.0,6.0,6.0,818.1490369997846,1.0,1.0,phase_2,go,500.0,400.0,1.0,,,,,,,,,green,I
0.0,8.0,4.0,1.0,6.0,0.0,0.0,1.0,1.0,phase_2,stop,500.0,400.0,4.0,,,,,,,,,magenta,hexagon
0.0,5.0,1.0,1.0,5.0,5.0,742.8213130006043,1.0,1.0,phase_2,go,500.0,450.0,1.0,,,,,,,,,orange,flipped triangle
0.0,6.0,2.0,1.0,5.0,0.0,0.0,1.0,1.0,phase_2,stop,500.0,450.0,4.0,,,,,,,,,cyan,square
0.0,8.0,4.0,1.0,6.0,0.0,0.0,1.0,1.0,phase_2,stop,550.0,450.0,4.0,,,,,,,,,magenta,hexagon
0.0,5.0,1.0,1.0,6.0,0.0,0.0,1.0,1.0,phase_2,stop,550.0,500.0,4.0,,,,,,,,,orange,flipped triangle
0.0,1.0,1.0,0.0,6.0,6.0,876.7275539994444,1.0,1.0,phase_2,go,550.0,550.0,1.0,,,,,,,,,white,circle
0.0,5.0,1.0,1.0,5.0,5.0,1015.2614030002951,1.0,1.0,phase_2,go,550.0,550.0,1.0,,,,,,,,,orange,flipped triangle
0.0,2.0,2.0,0.0,6.0,6.0,930.1285290002852,1.0,1.0,phase_2,go,550.0,550.0,1.0,,,,,,,,,blue,diamond
0.0,4.0,4.0,0.0,5.0,5.0,718.8010910003868,1.0,1.0,phase_2,go,550.0,550.0,1.0,,,,,,,,,gray,triangle
0.0,8.0,4.0,1.0,5.0,5.0,814.9161459996321,2.0,1.0,phase_2,go,550.0,550.0,1.0,,,,,,,,,magenta,hexagon
0.0,6.0,2.0,1.0,5.0,5.0,316.9561170007,2.0,1.0,phase_2,stop,550.0,550.0,3.0,,,,,,,,,cyan,square
0.0,2.0,2.0,0.0,5.0,5.0,669.9807710001551,2.0,1.0,phase_2,go,500.0,550.0,1.0,,,,,,,,,blue,diamond
0.0,3.0,3.0,0.0,5.0,5.0,334.7178049998547,2.0,1.0,phase_2,go,500.0,550.0,1.0,,,,,,,,,green,I
0.0,6.0,2.0,1.0,5.0,5.0,535.036344999753,2.0,1.0,phase_2,stop,500.0,550.0,3.0,,,,,,,,,cyan,square
0.0,2.0,2.0,0.0,6.0,6.0,528.7284890000592,2.0,1.0,phase_2,go,450.0,550.0,1.0,,,,,,,,,blue,diamond
0.0,4.0,4.0,0.0,5.0,5.0,386.6131849999874,2.0,1.0,phase_2,go,450.0,550.0,1.0,,,,,,,,,gray,triangle
0.0,2.0,2.0,0.0,6.0,6.0,426.8166070005463,2.0,1.0,phase_2,go,450.0,550.0,1.0,,,,,,,,,blue,diamond
0.0,5.0,1.0,1.0,6.0,6.0,387.0088960002249,2.0,1.0,phase_2,stop,450.0,550.0,3.0,,,,,,,,,orange,flipped triangle
0.0,7.0,3.0,1.0,5.0,5.0,483.9091809999445,2.0,1.0,phase_2,stop,450.0,500.0,3.0,,,,,,,,,yellow,cross
0.0,1.0,1.0,0.0,6.0,6.0,566.9066910004403,2.0,1.0,phase_2,go,400.0,500.0,1.0,,,,,,,,,white,circle
0.0,7.0,3.0,1.0,6.0,6.0,545.0459789999513,2.0,1.0,phase_2,go,400.0,500.0,1.0,,,,,,,,,yellow,cross
0.0,8.0,4.0,1.0,5.0,5.0,469.582189999528,2.0,1.0,phase_2,stop,400.0,500.0,3.0,,,,,,,,,magenta,hexagon
0.0,3.0,3.0,0.0,5.0,5.0,500.0986439999906,2.0,1.0,phase_2,go,350.0,500.0,1.0,,,,,,,,,green,I
0.0,6.0,2.0,1.0,5.0,5.0,461.2107210004978,2.0,1.0,phase_2,stop,350.0,500.0,3.0,,,,,,,,,cyan,square
0.0,7.0,3.0,1.0,5.0,0.0,0.0,2.0,1.0,phase_2,stop,300.0,500.0,4.0,,,,,,,,,yellow,cross
0.0,8.0,4.0,1.0,6.0,6.0,483.37201300000737,2.0,1.0,phase_2,stop,350.0,500.0,3.0,,,,,,,,,magenta,hexagon
0.0,7.0,3.0,1.0,6.0,6.0,589.0439229997355,2.0,1.0,phase_2,go,350.0,450.0,1.0,,,,,,,,,yellow,cross
0.0,5.0,1.0,1.0,6.0,6.0,623.6272259993711,2.0,1.0,phase_2,go,350.0,450.0,1.0,,,,,,,,,orange,flipped triangle
0.0,4.0,4.0,0.0,6.0,6.0,602.9978750002556,2.0,1.0,phase_2,go,350.0,450.0,1.0,,,,,,,,,gray,triangle
0.0,3.0,3.0,0.0,6.0,6.0,704.7326590000011,2.0,1.0,phase_2,go,350.0,450.0,1.0,,,,,,,,,green,I
0.0,4.0,4.0,0.0,5.0,5.0,544.2754000005152,2.0,1.0,phase_2,go,350.0,450.0,1.0,,,,,,,,,gray,triangle
0.0,6.0,2.0,1.0,5.0,0.0,0.0,2.0,1.0,phase_2,stop,350.0,450.0,4.0,,,,,,,,,cyan,square
0.0,8.0,4.0,1.0,5.0,5.0,812.6985769995372,2.0,1.0,phase_2,go,400.0,450.0,1.0,,,,,,,,,magenta,hexagon
0.0,3.0,3.0,0.0,6.0,6.0,698.354704999474,2.0,1.0,phase_2,go,400.0,450.0,1.0,,,,,,,,,green,I
0.0,4.0,4.0,0.0,5.0,5.0,682.042514999921,2.0,1.0,phase_2,go,400.0,450.0,1.0,,,,,,,,,gray,triangle
0.0,7.0,3.0,1.0,6.0,0.0,0.0,2.0,1.0,phase_2,stop,400.0,450.0,4.0,,,,,,,,,yellow,cross
0.0,3.0,3.0,0.0,5.0,5.0,700.4118159993595,2.0,1.0,phase_2,go,400.0,500.0,1.0,,,,,,,,,green,I
0.0,7.0,3.0,1.0,6.0,6.0,689.2527290001453,2.0,1.0,phase_2,go,400.0,500.0,1.0,,,,,,,,,yellow,cross
0.0,3.0,3.0,0.0,6.0,6.0,480.6425199994919,2.0,1.0,phase_2,go,400.0,500.0,1.0,,,,,,,,,green,I
0.0,4.0,4.0,0.0,6.0,6.0,648.5915029998068,2.0,1.0,phase_2,go,400.0,500.0,1.0,,,,,,,,,gray,triangle
0.0,4.0,4.0,0.0,5.0,5.0,527.2068899994338,2.0,1.0,phase_2,go,400.0,500.0,1.0,,,,,,,,,gray,triangle
0.0,8.0,4.0,1.0,6.0,6.0,541.4333190001344,2.0,1.0,phase_2,stop,400.0,500.0,3.0,,,,,,,,,magenta,hexagon
0.0,8.0,4.0,1.0,5.0,5.0,469.5401859999037,2.0,1.0,phase_2,stop,400.0,450.0,3.0,,,,,,,,,magenta,hexagon
0.0,2.0,2.0,0.0,5.0,5.0,580.0723500005915,2.0,1.0,phase_2,go,350.0,450.0,1.0,,,,,,,,,blue,diamond
0.0,8.0,4.0,1.0,6.0,6.0,636.5991610000492,2.0,1.0,phase_2,stop,350.0,450.0,3.0,,,,,,,,,magenta,hexagon
0.0,3.0,3.0,0.0,6.0,6.0,946.0134930004642,3.0,1.0,phase_2,go,350.0,400.0,1.0,,,,,,,,,green,I
0.0,8.0,4.0,1.0,6.0,6.0,382.4543629998516,3.0,1.0,phase_2,stop,350.0,400.0,3.0,,,,,,,,,magenta,hexagon
0.0,5.0,1.0,1.0,6.0,0.0,0.0,3.0,1.0,phase_2,stop,350.0,350.0,4.0,,,,,,,,,orange,flipped triangle
0.0,3.0,3.0,0.0,6.0,6.0,362.795298000492,3.0,1.0,phase_2,go,350.0,400.0,1.0,,,,,,,,,green,I
0.0,8.0,4.0,1.0,5.0,5.0,427.5723539994942,3.0,1.0,phase_2,stop,350.0,400.0,3.0,,,,,,,,,magenta,hexagon
0.0,6.0,2.0,1.0,5.0,0.0,0.0,3.0,1.0,phase_2,stop,300.0,400.0,4.0,,,,,,,,,cyan,square
0.0,7.0,3.0,1.0,5.0,0.0,0.0,3.0,1.0,phase_2,stop,350.0,400.0,4.0,,,,,,,,,yellow,cross
0.0,6.0,2.0,1.0,5.0,5.0,718.5690099995554,3.0,1.0,phase_2,go,400.0,400.0,1.0,,,,,,,,,cyan,square
0.0,8.0,4.0,1.0,6.0,6.0,526.4940499992008,3.0,1.0,phase_2,go,400.0,400.0,1.0,,,,,,,,,magenta,hexagon
0.0,5.0,1.0,1.0,6.0,6.0,557.0022749998316,3.0,1.0,phase_2,go,400.0,400.0,1.0,,,,,,,,,orange,flipped triangle
0.0,7.0,3.0,1.0,5.0,5.0,693.083703999946,3.0,1.0,phase_2,go,400.0,400.0,1.0,,,,,,,,,yellow,cross
0.0,5.0,1.0,1.0,6.0,6.0,566.2168400003793,3.0,1.0,phase_2,stop,400.0,400.0,3.0,,,,,,,,,orange,flipped triangle
0.0,1.0,1.0,0.0,6.0,6.0,631.6705790004562,3.0,1.0,phase_2,go,400.0,350.0,1.0,,,,,,,,,white,circle
0.0,8.0,4.0,1.0,6.0,0.0,0.0,3.0,1.0,phase_2,stop,400.0,350.0,4.0,,,,,,,,,magenta,hexagon
0.0,7.0,3.0,1.0,6.0,0.0,0.0,3.0,1.0,phase_2,stop,400.0,400.0,4.0,,,,,,,,,yellow,cross
0.0,2.0,2.0,0.0,5.0,5.0,623.5143860003518,3.0,1.0,phase_2,go,400.0,450.0,1.0,,,,,,,,,blue,diamond
0.0,2.0,2.0,0.0,6.0,6.0,598.73130699998,3.0,1.0,phase_2,go,400.0,450.0,1.0,,,,,,,,,blue,diamond
0.0,6.0,2.0,1.0,5.0,0.0,0.0,3.0,1.0,phase_2,stop,400.0,450.0,4.0,,,,,,,,,cyan,square
0.0,1.0,1.0,0.0,6.0,6.0,419.7156340005676,3.0,1.0,phase_2,go,450.0,450.0,1.0,,,,,,,,,white,circle
0.0,8.0,4.0,1.0,5.0,5.0,523.8496169995415,3.0,1.0,phase_2,stop,450.0,450.0,3.0,,,,,,,,,magenta,hexagon
0.0,3.0,3.0,0.0,5.0,5.0,516.8694659996618,3.0,1.0,phase_2,go,400.0,450.0,1.0,,,,,,,,,green,I
0.0,7.0,3.0,1.0,6.0,6.0,583.4057339998253,3.0,1.0,phase_2,stop,400.0,450.0,3.0,,,,,,,,,yellow,cross
0.0,2.0,2.0,0.0,6.0,6.0,836.8016750000606,3.0,1.0,phase_2,go,400.0,400.0,1.0,,,,,,,,,blue,diamond
0.0,1.0,1.0,0.0,5.0,5.0,344.94135299974,3.0,1.0,phase_2,go,400.0,400.0,1.0,,,,,,,,,white,circle
0.0,4.0,4.0,0.0,6.0,6.0,651.0116030003701,3.0,1.0,phase_2,go,400.0,400.0,1.0,,,,,,,,,gray,triangle
0.0,6.0,2.0,1.0,5.0,5.0,388.5870399999476,3.0,1.0,phase_2,stop,400.0,400.0,3.0,,,,,,,,,cyan,square
0.0,6.0,2.0,1.0,6.0,0.0,0.0,3.0,1.0,phase_2,stop,350.0,400.0,4.0,,,,,,,,,cyan,square
0.0,6.0,2.0,1.0,6.0,6.0,1004.7477289999731,3.0,1.0,phase_2,stop,350.0,450.0,3.0,,,,,,,,,cyan,square
0.0,2.0,2.0,0.0,5.0,5.0,389.0640589997929,3.0,1.0,phase_2,go,350.0,400.0,1.0,,,,,,,,,blue,diamond
0.0,1.0,1.0,0.0,6.0,6.0,484.0832820000287,3.0,1.0,phase_2,go,350.0,400.0,1.0,,,,,,,,,white,circle
0.0,3.0,3.0,0.0,5.0,5.0,600.4451420003534,3.0,1.0,phase_2,go,350.0,400.0,1.0,,,,,,,,,green,I
0.0,3.0,3.0,0.0,6.0,6.0,458.1126550001499,3.0,1.0,phase_2,go,350.0,400.0,1.0,,,,,,,,,green,I
0.0,4.0,4.0,0.0,5.0,5.0,726.2100950001695,3.0,1.0,phase_2,go,350.0,400.0,1.0,,,,,,,,,gray,triangle
0.0,1.0,1.0,0.0,5.0,5.0,442.3198880003838,3.0,1.0,phase_2,go,350.0,400.0,1.0,,,,,,,,,white,circle
0.0,6.0,2.0,1.0,6.0,0.0,0.0,3.0,1.0,phase_2,stop,350.0,400.0,4.0,,,,,,,,,cyan,square
0.0,5.0,1.0,1.0,5.0,5.0,387.8686779999043,3.0,1.0,phase_2,stop,350.0,450.0,3.0,,,,,,,,,orange,flipped triangle
0.0,8.0,4.0,1.0,6.0,2.0,700.0005769996278,4.0,1.0,phase_2,go,300.0,450.0,2.0,,,,,,,,,magenta,hexagon
0.0,4.0,4.0,0.0,5.0,5.0,362.1261849993971,4.0,1.0,phase_2,go,300.0,450.0,1.0,,,,,,,,,gray,triangle
0.0,8.0,4.0,1.0,5.0,0.0,0.0,4.0,1.0,phase_2,stop,300.0,450.0,4.0,,,,,,,,,magenta,hexagon
0.0,1.0,1.0,0.0,5.0,5.0,492.7735000001121,4.0,1.0,phase_2,go,350.0,450.0,1.0,,,,,,,,,white,circle
0.0,6.0,2.0,1.0,5.0,0.0,0.0,4.0,1.0,phase_2,stop,350.0,450.0,4.0,,,,,,,,,cyan,square
0.0,7.0,3.0,1.0,5.0,5.0,533.1608369997412,4.0,1.0,phase_2,stop,400.0,450.0,3.0,,,,,,,,,yellow,cross
0.0,6.0,2.0,1.0,5.0,0.0,0.0,4.0,1.0,phase_2,stop,350.0,450.0,4.0,,,,,,,,,cyan,square
0.0,3.0,3.0,0.0,6.0,6.0,680.9077170000819,4.0,1.0,phase_2,go,400.0,450.0,1.0,,,,,,,,,green,I
0.0,6.0,2.0,1.0,6.0,6.0,652.5688330002595,4.0,1.0,phase_2,go,400.0,450.0,1.0,,,,,,,,,cyan,square
0.0,8.0,4.0,1.0,6.0,6.0,419.6938720006073,4.0,1.0,phase_2,stop,400.0,450.0,3.0,,,,,,,,,magenta,hexagon
0.0,1.0,1.0,0.0,6.0,6.0,591.643085999749,4.0,1.0,phase_2,go,400.0,400.0,1.0,,,,,,,,,white,circle
0.0,2.0,2.0,0.0,6.0,6.0,702.9348280002523,4.0,1.0,phase_2,go,400.0,400.0,1.0,,,,,,,,,blue,diamond
0.0,4.0,4.0,0.0,6.0,6.0,635.6471669996608,4.0,1.0,phase_2,go,400.0,400.0,1.0,,,,,,,,,gray,triangle
0.0,4.0,4.0,0.0,5.0,5.0,800.8845710000969,4.0,1.0,phase_2,go,400.0,400.0,1.0,,,,,,,,,gray,triangle
0.0,4.0,4.0,0.0,6.0,6.0,320.2053699997123,4.0,1.0,phase_2,go,400.0,400.0,1.0,,,,,,,,,gray,triangle
0.0,6.0,2.0,1.0,6.0,0.0,0.0,4.0,1.0,phase_2,stop,400.0,400.0,4.0,,,,,,,,,cyan,square
0.0,1.0,1.0,0.0,6.0,6.0,624.9490529999093,4.0,1.0,phase_2,go,400.0,450.0,1.0,,,,,,,,,white,circle
0.0,3.0,3.0,0.0,5.0,5.0,705.118293999476,4.0,1.0,phase_2,go,400.0,450.0,1.0,,,,,,,,,green,I
0.0,5.0,1.0,1.0,5.0,0.0,0.0,4.0,1.0,phase_2,stop,400.0,450.0,4.0,,,,,,,,,orange,flipped triangle
0.0,4.0,4.0,0.0,6.0,6.0,550.8030950004468,4.0,1.0,phase_2,go,450.0,450.0,1.0,,,,,,,,,gray,triangle
0.0,6.0,2.0,1.0,6.0,6.0,1210.8720430005633,4.0,1.0,phase_2,go,450.0,450.0,1.0,,,,,,,,,cyan,square
0.0,5.0,1.0,1.0,5.0,5.0,328.0239570003687,4.0,1.0,phase_2,stop,450.0,450.0,3.0,,,,,,,,,orange,flipped triangle
0.0,6.0,2.0,1.0,6.0,6.0,345.4152550002618,4.0,1.0,phase_2,stop,400.0,450.0,3.0,,,,,,,,,cyan,square
0.0,6.0,2.0,1.0,5.0,0.0,0.0,4.0,1.0,phase_2,stop,400.0,400.0,4.0,,,,,,,,,cyan,square
0.0,4.0,4.0,0.0,6.0,6.0,424.1433089991915,4.0,1.0,phase_2,go,450.0,400.0,1.0,,,,,,,,,gray,triangle
0.0,1.0,1.0,0.0,6.0,6.0,379.0599559997645,4.0,1.0,phase_2,go,450.0,400.0,1.0,,,,,,,,,white,circle
0.0,8.0,4.0,1.0,6.0,6.0,930.5732550001268,4.0,1.0,phase_2,go,450.0,400.0,1.0,,,,,,,,,magenta,hexagon
0.0,2.0,2.0,0.0,6.0,6.0,534.6218539998517,4.0,1.0,phase_2,go,450.0,400.0,1.0,,,,,,,,,blue,diamond
0.0,2.0,2.0,0.0,5.0,5.0,782.7008360000036,4.0,1.0,phase_2,go,450.0,400.0,1.0,,,,,,,,,blue,diamond
0.0,6.0,2.0,1.0,6.0,6.0,499.1960009992908,4.0,1.0,phase_2,go,450.0,400.0,1.0,,,,,,,,,cyan,square
0.0,8.0,4.0,1.0,5.0,5.0,617.331841000123,4.0,1.0,phase_2,stop,450.0,400.0,3.0,,,,,,,,,magenta,hexagon
0.0,5.0,1.0,1.0,6.0,6.0,881.4959810006258,4.0,1.0,phase_2,go,400.0,400.0,1.0,,,,,,,,,orange,flipped triangle
0.0,7.0,3.0,1.0,6.0,0.0,0.0,4.0,1.0,phase_2,stop,400.0,400.0,4.0,,,,,,,,,yellow,cross
0.0,3.0,3.0,0.0,5.0,5.0,574.7906959995817,4.0,1.0,phase_2,go,400.0,450.0,1.0,,,,,,,,,green,I
0.0,1.0,1.0,0.0,5.0,5.0,1171.9692629994825,4.0,1.0,phase_2,go,400.0,450.0,1.0,,,,,,,,,white,circle
0.0,2.0,2.0,0.0,5.0,5.0,839.3264440001076,4.0,1.0,phase_2,go,400.0,450.0,1.0,,,,,,,,,blue,diamond
0.0,6.0,2.0,1.0,5.0,5.0,612.2753670006205,5.0,1.0,phase_2,stop,400.0,450.0,3.0,,,,,,,,,cyan,square
0.0,8.0,4.0,1.0,5.0,5.0,385.2821700002096,5.0,1.0,phase_2,stop,350.0,450.0,3.0,,,,,,,,,magenta,hexagon
0.0,5.0,1.0,1.0,5.0,5.0,728.7318019998565,5.0,1.0,phase_2,stop,300.0,450.0,3.0,,,,,,,,,orange,flipped triangle
0.0,2.0,2.0,0.0,5.0,5.0,669.3951190000007,5.0,1.0,phase_2,go,250.0,450.0,1.0,,,,,,,,,blue,diamond
0.0,5.0,1.0,1.0,5.0,5.0,307.3232759998063,5.0,1.0,phase_2,stop,250.0,450.0,3.0,,,,,,,,,orange,flipped triangle
0.0,1.0,1.0,0.0,5.0,5.0,543.7124949994541,5.0,1.0,phase_2,go,200.0,450.0,1.0,,,,,,,,,white,circle
0.0,1.0,1.0,0.0,5.0,5.0,297.354355000607,5.0,1.0,phase_2,go,200.0,450.0,1.0,,,,,,,,,white,circle
0.0,5.0,1.0,1.0,6.0,6.0,312.7944249999927,5.0,1.0,phase_2,stop,200.0,450.0,3.0,,,,,,,,,orange,flipped triangle
0.0,4.0,4.0,0.0,6.0,6.0,578.8968509996266,5.0,1.0,phase_2,go,200.0,400.0,1.0,,,,,,,,,gray,triangle
0.0,3.0,3.0,0.0,6.0,6.0,529.3846819995451,5.0,1.0,phase_2,go,200.0,400.0,1.0,,,,,,,,,green,I
0.0,7.0,3.0,1.0,6.0,6.0,457.2446499996658,5.0,1.0,phase_2,stop,200.0,400.0,3.0,,,,,,,,,yellow,cross
0.0,1.0,1.0,0.0,5.0,5.0,359.9444960000255,5.0,1.0,phase_2,go,200.0,350.0,1.0,,,,,,,,,white,circle
0.0,1.0,1.0,0.0,5.0,5.0,429.3857410002601,5.0,1.0,phase_2,go,200.0,350.0,1.0,,,,,,,,,white,circle
0.0,2.0,2.0,0.0,5.0,5.0,522.5286460008647,5.0,1.0,phase_2,go,200.0,350.0,1.0,,,,,,,,,blue,diamond
0.0,3.0,3.0,0.0,5.0,5.0,338.91680099986837,5.0,1.0,phase_2,go,200.0,350.0,1.0,,,,,,,,,green,I
0.0,3.0,3.0,0.0,6.0,6.0,326.9459840003037,5.0,1.0,phase_2,go,200.0,350.0,1.0,,,,,,,,,green,I
0.0,8.0,4.0,1.0,5.0,5.0,335.8465490000526,5.0,1.0,phase_2,stop,200.0,350.0,3.0,,,,,,,,,magenta,hexagon
0.0,1.0,1.0,0.0,5.0,5.0,526.9573959994887,5.0,1.0,phase_2,go,150.0,350.0,1.0,,,,,,,,,white,circle
0.0,1.0,1.0,0.0,5.0,5.0,691.7011939995064,5.0,1.0,phase_2,go,150.0,350.0,1.0,,,,,,,,,white,circle
0.0,6.0,2.0,1.0,6.0,6.0,370.1624779996564,5.0,1.0,phase_2,go,150.0,350.0,1.0,,,,,,,,,cyan,square
0.0,6.0,2.0,1.0,5.0,5.0,288.7563690001116,5.0,1.0,phase_2,stop,150.0,350.0,3.0,,,,,,,,,cyan,square
0.0,2.0,2.0,0.0,5.0,5.0,972.455464999257,5.0,1.0,phase_2,go,100.0,350.0,1.0,,,,,,,,,blue,diamond
0.0,3.0,3.0,0.0,5.0,5.0,308.8754350001181,5.0,1.0,phase_2,go,100.0,350.0,1.0,,,,,,,,,green,I
0.0,7.0,3.0,1.0,6.0,6.0,356.7358319996856,5.0,1.0,phase_2,go,100.0,350.0,1.0,,,,,,,,,yellow,cross
0.0,4.0,4.0,0.0,5.0,5.0,432.8364940001847,5.0,1.0,phase_2,go,100.0,350.0,1.0,,,,,,,,,gray,triangle
0.0,2.0,2.0,0.0,5.0,5.0,379.0557520005677,5.0,1.0,phase_2,go,100.0,350.0,1.0,,,,,,,,,blue,diamond
0.0,5.0,1.0,1.0,6.0,6.0,464.4810030004009,5.0,1.0,phase_2,stop,100.0,350.0,3.0,,,,,,,,,orange,flipped triangle
0.0,2.0,2.0,0.0,6.0,6.0,410.9132669991595,5.0,1.0,phase_2,go,100.0,300.0,1.0,,,,,,,,,blue,diamond
0.0,8.0,4.0,1.0,6.0,6.0,509.4071459998304,5.0,1.0,phase_2,stop,100.0,300.0,3.0,,,,,,,,,magenta,hexagon
0.0,1.0,1.0,0.0,5.0,5.0,509.1036530002384,5.0,1.0,phase_2,go,100.0,250.0,1.0,,,,,,,,,white,circle
0.0,5.0,1.0,1.0,5.0,0.0,0.0,5.0,1.0,phase_2,stop,100.0,250.0,4.0,,,,,,,,,orange,flipped triangle
0.0,6.0,2.0,1.0,5.0,0.0,0.0,5.0,1.0,phase_2,stop,150.0,250.0,4.0,,,,,,,,,cyan,square
0.0,2.0,2.0,0.0,5.0,5.0,780.442693000623,5.0,1.0,phase_2,go,200.0,250.0,1.0,,,,,,,,,blue,diamond
0.0,2.0,2.0,0.0,6.0,6.0,297.5769009999567,5.0,1.0,phase_2,go,200.0,250.0,1.0,,,,,,,,,blue,diamond
0.0,8.0,4.0,1.0,6.0,6.0,604.0768570001092,5.0,1.0,phase_2,go,200.0,250.0,1.0,,,,,,,,,magenta,hexagon
0.0,5.0,1.0,1.0,6.0,0.0,0.0,5.0,1.0,phase_2,stop,200.0,250.0,4.0,,,,,,,,,orange,flipped triangle
0.0,7.0,3.0,1.0,5.0,5.0,700.7738769998468,6.0,1.0,phase_2,go,200.0,300.0,1.0,,,,,,,,,yellow,cross
0.0,1.0,1.0,0.0,5.0,5.0,509.60935300008714,6.0,1.0,phase_2,go,200.0,300.0,1.0,,,,,,,,,white,circle
0.0,7.0,3.0,1.0,5.0,5.0,331.723760999921,6.0,1.0,phase_2,stop,200.0,300.0,3.0,,,,,,,,,yellow,cross
0.0,5.0,1.0,1.0,5.0,0.0,0.0,6.0,1.0,phase_2,stop,150.0,300.0,4.0,,,,,,,,,orange,flipped triangle
0.0,3.0,3.0,0.0,6.0,6.0,318.8391009998668,6.0,1.0,phase_2,go,200.0,300.0,1.0,,,,,,,,,green,I
0.0,3.0,3.0,0.0,5.0,5.0,619.1851180001322,6.0,1.0,phase_2,go,200.0,300.0,1.0,,,,,,,,,green,I
0.0,8.0,4.0,1.0,6.0,0.0,0.0,6.0,1.0,phase_2,stop,200.0,300.0,4.0,,,,,,,,,magenta,hexagon
0.0,6.0,2.0,1.0,6.0,6.0,525.6232109995835,6.0,1.0,phase_2,stop,200.0,350.0,3.0,,,,,,,,,cyan,square
0.0,3.0,3.0,0.0,6.0,6.0,596.5427080000154,6.0,1.0,phase_2,go,200.0,300.0,1.0,,,,,,,,,green,I
0.0,4.0,4.0,0.0,5.0,5.0,552.9523779996453,6.0,1.0,phase_2,go,200.0,300.0,1.0,,,,,,,,,gray,triangle
0.0,8.0,4.0,1.0,5.0,5.0,510.311953999917,6.0,1.0,phase_2,stop,200.0,300.0,3.0,,,,,,,,,magenta,hexagon
0.0,7.0,3.0,1.0,6.0,0.0,0.0,6.0,1.0,phase_2,stop,150.0,300.0,4.0,,,,,,,,,yellow,cross
0.0,1.0,1.0,0.0,5.0,5.0,706.4806729995325,6.0,1.0,phase_2,go,150.0,350.0,1.0,,,,,,,,,white,circle
0.0,4.0,4.0,0.0,6.0,6.0,626.1187190002602,6.0,1.0,phase_2,go,150.0,350.0,1.0,,,,,,,,,gray,triangle
0.0,6.0,2.0,1.0,6.0,6.0,423.5313489998589,6.0,1.0,phase_2,go,150.0,350.0,1.0,,,,,,,,,cyan,square
0.0,4.0,4.0,0.0,6.0,6.0,493.7624570002299,6.0,1.0,phase_2,go,150.0,350.0,1.0,,,,,,,,,gray,triangle
0.0,4.0,4.0,0.0,5.0,5.0,450.7968190000611,6.0,1.0,phase_2,go,150.0,350.0,1.0,,,,,,,,,gray,triangle
0.0,1.0,1.0,0.0,6.0,6.0,560.0083629997243,6.0,1.0,phase_2,go,150.0,350.0,1.0,,,,,,,,,white,circle
0.0,6.0,2.0,1.0,5.0,5.0,336.434198000461,6.0,1.0,phase_2,stop,150.0,350.0,3.0,,,,,,,,,cyan,square
0.0,2.0,2.0,0.0,6.0,6.0,415.0995310001235,6.0,1.0,phase_2,go,100.0,350.0,1.0,,,,,,,,,blue,diamond
0.0,3.0,3.0,0.0,6.0,6.0,786.8255060002411,6.0,1.0,phase_2,go,100.0,350.0,1.0,,,,,,,,,green,I
0.0,2.0,2.0,0.0,6.0,6.0,442.3267070005749,6.0,1.0,phase_2,go,100.0,350.0,1.0,,,,,,,,,blue,diamond
0.0,1.0,1.0,0.0,6.0,6.0,456.7825570002242,6.0,1.0,phase_2,go,100.0,350.0,1.0,,,,,,,,,white,circle
0.0,2.0,2.0,0.0,5.0,5.0,371.4316980003787,6.0,1.0,phase_2,go,100.0,350.0,1.0,,,,,,,,,blue,diamond
0.0,1.0,1.0,0.0,5.0,5.0,531.9249470003342,6.0,1.0,phase_2,go,100.0,350.0,1.0,,,,,,,,,white,circle
0.0,3.0,3.0,0.0,6.0,6.0,538.756609000302,6.0,1.0,phase_2,go,100.0,350.0,1.0,,,,,,,,,green,I
0.0,4.0,4.0,0.0,6.0,6.0,583.3697049993134,6.0,1.0,phase_2,go,100.0,350.0,1.0,,,,,,,,,gray,triangle
0.0,7.0,3.0,1.0,6.0,0.0,0.0,6.0,1.0,phase_2,stop,100.0,350.0,4.0,,,,,,,,,yellow,cross
0.0,4.0,4.0,0.0,5.0,5.0,448.674017000485,6.0,1.0,phase_2,go,100.0,400.0,1.0,,,,,,,,,gray,triangle
0.0,4.0,4.0,0.0,6.0,6.0,504.97655299932376,6.0,1.0,phase_2,go,100.0,400.0,1.0,,,,,,,,,gray,triangle
0.0,5.0,1.0,1.0,6.0,0.0,0.0,6.0,1.0,phase_2,stop,100.0,400.0,4.0,,,,,,,,,orange,flipped triangle
0.0,4.0,4.0,0.0,6.0,6.0,773.7297530002252,6.0,1.0,phase_2,go,100.0,450.0,1.0,,,,,,,,,gray,triangle
0.0,7.0,3.0,1.0,5.0,0.0,0.0,6.0,1.0,phase_2,stop,100.0,450.0,4.0,,,,,,,,,yellow,cross
0.0,6.0,2.0,1.0,6.0,6.0,574.7415249998085,6.0,1.0,phase_2,stop,150.0,450.0,3.0,,,,,,,,,cyan,square
0.0,3.0,3.0,0.0,6.0,6.0,519.2594250002003,6.0,1.0,phase_2,go,150.0,400.0,1.0,,,,,,,,,green,I
0.0,5.0,1.0,1.0,5.0,0.0,0.0,6.0,1.0,phase_2,stop,150.0,400.0,4.0,,,,,,,,,orange,flipped triangle
0.0,1.0,1.0,0.0,6.0,6.0,452.8916310000568,7.0,1.0,phase_2,go,200.0,400.0,1.0,,,,,,,,,white,circle
0.0,5.0,1.0,1.0,6.0,6.0,373.8929810006084,7.0,1.0,phase_2,stop,200.0,400.0,3.0,,,,,,,,,orange,flipped triangle
0.0,1.0,1.0,0.0,6.0,6.0,500.69879700004094,7.0,1.0,phase_2,go,200.0,350.0,1.0,,,,,,,,,white,circle
0.0,2.0,2.0,0.0,6.0,6.0,320.1718860000255,7.0,1.0,phase_2,go,200.0,350.0,1.0,,,,,,,,,blue,diamond
0.0,2.0,2.0,0.0,6.0,6.0,545.6555880000451,7.0,1.0,phase_2,go,200.0,350.0,1.0,,,,,,,,,blue,diamond
0.0,2.0,2.0,0.0,5.0,5.0,437.3162249994493,7.0,1.0,phase_2,go,200.0,350.0,1.0,,,,,,,,,blue,diamond
0.0,1.0,1.0,0.0,6.0,6.0,412.7768159996776,7.0,1.0,phase_2,go,200.0,350.0,1.0,,,,,,,,,white,circle
0.0,4.0,4.0,0.0,5.0,5.0,303.4485230000427,7.0,1.0,phase_2,go,200.0,350.0,1.0,,,,,,,,,gray,triangle
0.0,2.0,2.0,0.0,6.0,6.0,362.2596849991168,7.0,1.0,phase_2,go,200.0,350.0,1.0,,,,,,,,,blue,diamond
0.0,8.0,4.0,1.0,5.0,5.0,381.4871559998209,7.0,1.0,phase_2,go,200.0,350.0,1.0,,,,,,,,,magenta,hexagon
0.0,8.0,4.0,1.0,6.0,6.0,385.1376009997693,7.0,1.0,phase_2,stop,200.0,350.0,3.0,,,,,,,,,magenta,hexagon
0.0,6.0,2.0,1.0,6.0,0.0,0.0,7.0,1.0,phase_2,stop,200.0,300.0,4.0,,,,,,,,,cyan,square
0.0,3.0,3.0,0.0,5.0,5.0,579.3441330006317,7.0,1.0,phase_2,go,200.0,350.0,1.0,,,,,,,,,green,I
0.0,3.0,3.0,0.0,5.0,5.0,528.7243329994453,7.0,1.0,phase_2,go,200.0,350.0,1.0,,,,,,,,,green,I
0.0,6.0,2.0,1.0,6.0,6.0,669.4242560006387,7.0,1.0,phase_2,go,200.0,350.0,1.0,,,,,,,,,cyan,square
0.0,7.0,3.0,1.0,5.0,5.0,317.7910019994669,7.0,1.0,phase_2,stop,200.0,350.0,3.0,,,,,,,,,yellow,cross
0.0,7.0,3.0,1.0,5.0,0.0,0.0,7.0,1.0,phase_2,stop,150.0,350.0,4.0,,,,,,,,,yellow,cross
0.0,4.0,4.0,0.0,5.0,5.0,516.0919440004363,7.0,1.0,phase_2,go,200.0,350.0,1.0,,,,,,,,,gray,triangle
0.0,7.0,3.0,1.0,5.0,0.0,0.0,7.0,1.0,phase_2,stop,200.0,350.0,4.0,,,,,,,,,yellow,cross
0.0,2.0,2.0,0.0,6.0,6.0,352.4120940001012,7.0,1.0,phase_2,go,250.0,350.0,1.0,,,,,,,,,blue,diamond
0.0,2.0,2.0,0.0,5.0,5.0,483.2659479998256,7.0,1.0,phase_2,go,250.0,350.0,1.0,,,,,,,,,blue,diamond
0.0,1.0,1.0,0.0,5.0,5.0,470.0899700001173,7.0,1.0,phase_2,go,250.0,350.0,1.0,,,,,,,,,white,circle
0.0,3.0,3.0,0.0,6.0,6.0,571.5457630003584,7.0,1.0,phase_2,go,250.0,350.0,1.0,,,,,,,,,green,I
0.0,7.0,3.0,1.0,5.0,0.0,0.0,7.0,1.0,phase_2,stop,250.0,350.0,4.0,,,,,,,,,yellow,cross
0.0,8.0,4.0,1.0,5.0,5.0,410.2147469993724,7.0,1.0,phase_2,stop,300.0,350.0,3.0,,,,,,,,,magenta,hexagon
0.0,4.0,4.0,0.0,6.0,6.0,509.64619499973196,7.0,1.0,phase_2,go,250.0,350.0,1.0,,,,,,,,,gray,triangle
0.0,1.0,1.0,0.0,5.0,5.0,655.2720579993547,7.0,1.0,phase_2,go,250.0,350.0,1.0,,,,,,,,,white,circle
0.0,5.0,1.0,1.0,5.0,5.0,290.2178859994819,7.0,1.0,phase_2,stop,250.0,350.0,3.0,,,,,,,,,orange,flipped triangle
0.0,8.0,4.0,1.0,6.0,6.0,459.6090439999898,7.0,1.0,phase_2,stop,200.0,350.0,3.0,,,,,,,,,magenta,hexagon
0.0,5.0,1.0,1.0,6.0,0.0,0.0,7.0,1.0,phase_2,stop,200.0,300.0,4.0,,,,,,,,,orange,flipped triangle
0.0,7.0,3.0,1.0,5.0,5.0,518.5195359999852,7.0,1.0,phase_2,go,200.0,350.0,1.0,,,,,,,,,yellow,cross
0.0,7.0,3.0,1.0,5.0,0.0,0.0,7.0,1.0,phase_2,stop,200.0,350.0,4.0,,,,,,,,,yellow,cross
0.0,7.0,3.0,1.0,6.0,0.0,0.0,7.0,1.0,phase_2,stop,250.0,350.0,4.0,,,,,,,,,yellow,cross
0.0,1.0,1.0,0.0,5.0,5.0,537.5674699998854,7.0,1.0,phase_2,go,250.0,400.0,1.0,,,,,,,,,white,circle
0.0,6.0,2.0,1.0,5.0,0.0,0.0,7.0,1.0,phase_2,stop,250.0,400.0,4.0,,,,,,,,,cyan,square
0.0,4.0,4.0,0.0,6.0,6.0,489.0112929997485,7.0,1.0,phase_2,go,300.0,400.0,1.0,,,,,,,,,gray,triangle
0.0,3.0,3.0,0.0,6.0,6.0,657.3503100007656,8.0,1.0,phase_2,go,300.0,400.0,1.0,,,,,,,,,green,I
0.0,7.0,3.0,1.0,5.0,5.0,642.577953,8.0,1.0,phase_2,go,300.0,400.0,1.0,,,,,,,,,yellow,cross
0.0,5.0,1.0,1.0,5.0,5.0,339.2554639995069,8.0,1.0,phase_2,stop,300.0,400.0,3.0,,,,,,,,,orange,flipped triangle
0.0,3.0,3.0,0.0,5.0,5.0,481.5477640004246,8.0,1.0,phase_2,go,250.0,400.0,1.0,,,,,,,,,green,I
0.0,4.0,4.0,0.0,6.0,6.0,399.2859800000587,8.0,1.0,phase_2,go,250.0,400.0,1.0,,,,,,,,,gray,triangle
0.0,8.0,4.0,1.0,6.0,6.0,457.9545050000888,8.0,1.0,phase_2,stop,250.0,400.0,3.0,,,,,,,,,magenta,hexagon
0.0,5.0,1.0,1.0,6.0,6.0,622.8780589999587,8.0,1.0,phase_2,go,250.0,350.0,1.0,,,,,,,,,orange,flipped triangle
0.0,4.0,4.0,0.0,6.0,6.0,502.0927550003762,8.0,1.0,phase_2,go,250.0,350.0,1.0,,,,,,,,,gray,triangle
0.0,4.0,4.0,0.0,5.0,5.0,314.6131560006324,8.0,1.0,phase_2,go,250.0,350.0,1.0,,,,,,,,,gray,triangle
0.0,5.0,1.0,1.0,5.0,5.0,507.4198409993187,8.0,1.0,phase_2,stop,250.0,350.0,3.0,,,,,,,,,orange,flipped triangle
0.0,4.0,4.0,0.0,5.0,5.0,509.9890740002593,8.0,1.0,phase_2,go,200.0,350.0,1.0,,,,,,,,,gray,triangle
0.0,6.0,2.0,1.0,5.0,0.0,0.0,8.0,1.0,phase_2,stop,200.0,350.0,4.0,,,,,,,,,cyan,square
0.0,2.0,2.0,0.0,6.0,6.0,500.04281000019546,8.0,1.0,phase_2,go,250.0,350.0,1.0,,,,,,,,,blue,diamond
0.0,8.0,4.0,1.0,5.0,0.0,0.0,8.0,1.0,phase_2,stop,250.0,350.0,4.0,,,,,,,,,magenta,hexagon
0.0,2.0,2.0,0.0,6.0,6.0,515.1595939996696,8.0,1.0,phase_2,go,300.0,350.0,1.0,,,,,,,,,blue,diamond
0.0,2.0,2.0,0.0,5.0,5.0,379.0347989997826,8.0,1.0,phase_2,go,300.0,350.0,1.0,,,,,,,,,blue,diamond
0.0,5.0,1.0,1.0,5.0,5.0,868.7244379998447,8.0,1.0,phase_2,go,300.0,350.0,1.0,,,,,,,,,orange,flipped triangle
0.0,6.0,2.0,1.0,6.0,6.0,380.182830999729,8.0,1.0,phase_2,stop,300.0,350.0,3.0,,,,,,,,,cyan,square
0.0,7.0,3.0,1.0,6.0,0.0,0.0,8.0,1.0,phase_2,stop,300.0,300.0,4.0,,,,,,,,,yellow,cross
0.0,2.0,2.0,0.0,5.0,5.0,386.3862070002142,8.0,1.0,phase_2,go,300.0,350.0,1.0,,,,,,,,,blue,diamond
0.0,3.0,3.0,0.0,5.0,5.0,424.0421839995179,8.0,1.0,phase_2,go,300.0,350.0,1.0,,,,,,,,,green,I
0.0,8.0,4.0,1.0,5.0,5.0,334.5904079997126,8.0,1.0,phase_2,stop,300.0,350.0,3.0,,,,,,,,,magenta,hexagon
0.0,4.0,4.0,0.0,6.0,6.0,554.0085720003844,8.0,1.0,phase_2,go,250.0,350.0,1.0,,,,,,,,,gray,triangle
0.0,7.0,3.0,1.0,6.0,0.0,0.0,8.0,1.0,phase_2,stop,250.0,350.0,4.0,,,,,,,,,yellow,cross
0.0,3.0,3.0,0.0,5.0,5.0,538.3911420003642,8.0,1.0,phase_2,go,250.0,400.0,1.0,,,,,,,,,green,I
0.0,3.0,3.0,0.0,5.0,5.0,515.6559729994115,8.0,1.0,phase_2,go,250.0,400.0,1.0,,,,,,,,,green,I
0.0,5.0,1.0,1.0,5.0,5.0,586.2484629997198,8.0,1.0,phase_2,go,250.0,400.0,1.0,,,,,,,,,orange,flipped triangle
0.0,2.0,2.0,0.0,5.0,5.0,350.5183229999602,8.0,1.0,phase_2,go,250.0,400.0,1.0,,,,,,,,,blue,diamond
0.0,4.0,4.0,0.0,5.0,5.0,466.9697909994283,8.0,1.0,phase_2,go,250.0,400.0,1.0,,,,,,,,,gray,triangle
0.0,7.0,3.0,1.0,6.0,6.0,640.5710510007339,8.0,1.0,phase_2,go,250.0,400.0,1.0,,,,,,,,,yellow,cross
0.0,6.0,2.0,1.0,6.0,6.0,398.5973380003997,8.0,1.0,phase_2,stop,250.0,400.0,3.0,,,,,,,,,cyan,square
0.0,1.0,1.0,0.0,6.0,6.0,483.0432510007085,8.0,1.0,phase_2,go,250.0,350.0,1.0,,,,,,,,,white,circle
0.0,5.0,1.0,1.0,6.0,0.0,0.0,8.0,1.0,phase_2,stop,250.0,350.0,4.0,,,,,,,,,orange,flipped triangle
0.0,7.0,3.0,1.0,6.0,6.0,552.9347370002142,8.0,1.0,phase_2,stop,250.0,400.0,3.0,,,,,,,,,yellow,cross
0.0,1.0,1.0,0.0,6.0,6.0,485.8145889993466,8.0,1.0,phase_2,go,250.0,350.0,1.0,,,,,,,,,white,circle
0.0,3.0,3.0,0.0,5.0,5.0,299.8718389999339,8.0,1.0,phase_2,go,250.0,350.0,1.0,,,,,,,,,green,I
0.0,3.0,3.0,0.0,7.0,2.0,4809.518751999349,1.0,1.0,phase_3,,,,,204.0,6.0,170.0,204.0,136.0,34.0,102.0,68.0,green,I
0.0,5.0,1.0,1.0,7.0,4.0,4325.888135000241,1.0,1.0,phase_3,,,,,162.0,3.0,108.0,324.0,216.0,162.0,270.0,54.0,orange,flipped triangle
0.0,4.0,4.0,0.0,7.0,4.0,3423.514267000428,1.0,1.0,phase_3,,,,,196.0,4.0,245.0,147.0,98.0,196.0,294.0,49.0,gray,triangle
0.0,7.0,3.0,1.0,7.0,2.0,2301.309943000888,1.0,2.0,phase_3,,,,,156.0,4.0,195.0,156.0,234.0,117.0,78.0,39.0,yellow,cross
0.0,7.0,3.0,1.0,7.0,3.0,1610.105511999791,1.0,1.0,phase_3,,,,,216.0,4.0,162.0,108.0,216.0,324.0,270.0,54.0,yellow,cross
0.0,1.0,1.0,0.0,7.0,4.0,781.4848890002395,1.0,1.0,phase_3,,,,,170.0,5.0,204.0,34.0,136.0,170.0,102.0,68.0,white,circle
0.0,3.0,3.0,0.0,7.0,6.0,1561.2215130004188,1.0,1.0,phase_3,,,,,44.0,1.0,220.0,88.0,176.0,132.0,264.0,44.0,green,I
0.0,6.0,2.0,1.0,7.0,2.0,920.397482000226,1.0,1.0,phase_3,,,,,176.0,4.0,44.0,176.0,264.0,220.0,88.0,132.0,cyan,square
0.0,6.0,2.0,1.0,7.0,2.0,912.4950599998556,1.0,1.0,phase_3,,,,,234.0,6.0,39.0,234.0,156.0,78.0,195.0,117.0,cyan,square
0.0,1.0,1.0,0.0,7.0,4.0,1395.2260010000828,1.0,1.0,phase_3,,,,,195.0,5.0,117.0,234.0,39.0,195.0,78.0,156.0,white,circle
0.0,3.0,3.0,0.0,7.0,3.0,2431.9461509994653,1.0,1.0,phase_3,,,,,117.0,3.0,39.0,78.0,117.0,156.0,234.0,195.0,green,I
0.0,6.0,2.0,1.0,7.0,4.0,845.3497190002963,1.0,1.0,phase_3,,,,,234.0,6.0,156.0,195.0,117.0,234.0,78.0,39.0,cyan,square
0.0,5.0,1.0,1.0,7.0,4.0,1128.692673999467,1.0,1.0,phase_3,,,,,117.0,3.0,156.0,39.0,78.0,117.0,234.0,195.0,orange,flipped triangle
0.0,6.0,2.0,1.0,7.0,5.0,1455.58174100006,1.0,1.0,phase_3,,,,,204.0,6.0,34.0,102.0,68.0,136.0,204.0,170.0,cyan,square
0.0,7.0,3.0,1.0,7.0,4.0,1405.9903520001171,1.0,1.0,phase_3,,,,,245.0,5.0,147.0,98.0,294.0,245.0,49.0,196.0,yellow,cross
0.0,6.0,2.0,1.0,7.0,3.0,1219.110193999768,1.0,1.0,phase_3,,,,,147.0,3.0,49.0,245.0,147.0,196.0,294.0,98.0,cyan,square
0.0,7.0,3.0,1.0,7.0,2.0,1080.9309139995094,1.0,1.0,phase_3,,,,,132.0,3.0,220.0,132.0,264.0,176.0,88.0,44.0,yellow,cross
0.0,4.0,4.0,0.0,7.0,5.0,615.8764149995477,1.0,1.0,phase_3,,,,,102.0,3.0,170.0,34.0,136.0,68.0,102.0,204.0,gray,triangle
0.0,8.0,4.0,1.0,7.0,6.0,189.3903660002251,1.0,1.0,phase_3,,,,,294.0,6.0,49.0,147.0,98.0,245.0,196.0,294.0,magenta,hexagon
0.0,1.0,1.0,0.0,7.0,3.0,1030.4983989999528,1.0,1.0,phase_3,,,,,195.0,5.0,234.0,78.0,195.0,156.0,39.0,117.0,white,circle
0.0,6.0,2.0,1.0,7.0,4.0,1353.3041779992343,2.0,1.0,phase_3,,,,,170.0,5.0,102.0,68.0,34.0,170.0,204.0,136.0,cyan,square
0.0,8.0,4.0,1.0,7.0,4.0,1878.9994320004555,2.0,1.0,phase_3,,,,,195.0,5.0,234.0,117.0,156.0,195.0,78.0,39.0,magenta,hexagon
0.0,3.0,3.0,0.0,7.0,3.0,1448.2078129994989,2.0,1.0,phase_3,,,,,195.0,5.0,117.0,39.0,195.0,234.0,78.0,156.0,green,I
0.0,3.0,3.0,0.0,7.0,6.0,1896.3366549996865,2.0,1.0,phase_3,,,,,170.0,5.0,68.0,34.0,204.0,102.0,136.0,170.0,green,I
0.0,4.0,4.0,0.0,7.0,2.0,1514.6308499997758,2.0,1.0,phase_3,,,,,156.0,4.0,117.0,156.0,78.0,39.0,195.0,234.0,gray,triangle
0.0,1.0,1.0,0.0,7.0,5.0,1208.4450860002107,2.0,1.0,phase_3,,,,,132.0,3.0,264.0,44.0,88.0,220.0,132.0,176.0,white,circle
0.0,6.0,2.0,1.0,7.0,1.0,1608.3964630006449,2.0,1.0,phase_3,,,,,264.0,6.0,264.0,88.0,132.0,44.0,176.0,220.0,cyan,square
0.0,8.0,4.0,1.0,7.0,4.0,609.3531859996801,2.0,1.0,phase_3,,,,,196.0,4.0,98.0,49.0,294.0,196.0,245.0,147.0,magenta,hexagon
0.0,2.0,2.0,0.0,7.0,5.0,170.0002460001997,2.0,1.0,phase_3,,,,,132.0,3.0,264.0,176.0,220.0,44.0,132.0,88.0,blue,diamond
0.0,1.0,1.0,0.0,7.0,4.0,721.6566739998598,2.0,1.0,phase_3,,,,,147.0,3.0,294.0,98.0,49.0,147.0,196.0,245.0,white,circle
0.0,2.0,2.0,0.0,7.0,1.0,1016.1746449994098,2.0,1.0,phase_3,,,,,245.0,5.0,245.0,196.0,147.0,294.0,49.0,98.0,blue,diamond
0.0,8.0,4.0,1.0,7.0,6.0,488.9116200001808,2.0,1.0,phase_3,,,,,324.0,6.0,108.0,270.0,162.0,54.0,216.0,324.0,magenta,hexagon
0.0,5.0,1.0,1.0,7.0,5.0,1482.9681800001708,2.0,1.0,phase_3,,,,,132.0,3.0,264.0,88.0,220.0,44.0,132.0,176.0,orange,flipped triangle
0.0,7.0,3.0,1.0,7.0,1.0,1069.9796560002142,2.0,1.0,phase_3,,,,,245.0,5.0,245.0,98.0,49.0,196.0,147.0,294.0,yellow,cross
0.0,2.0,2.0,0.0,7.0,3.0,846.2628259994744,2.0,1.0,phase_3,,,,,117.0,3.0,156.0,234.0,117.0,39.0,195.0,78.0,blue,diamond
0.0,2.0,2.0,0.0,7.0,5.0,1153.3807469995736,2.0,1.0,phase_3,,,,,132.0,3.0,176.0,220.0,264.0,88.0,132.0,44.0,blue,diamond
0.0,1.0,1.0,0.0,7.0,3.0,1689.837346000786,2.0,1.0,phase_3,,,,,294.0,6.0,98.0,147.0,294.0,49.0,196.0,245.0,white,circle
0.0,5.0,1.0,1.0,7.0,2.0,1484.0073729992582,2.0,1.0,phase_3,,,,,136.0,4.0,102.0,136.0,68.0,204.0,170.0,34.0,orange,flipped triangle
0.0,8.0,4.0,1.0,7.0,4.0,1491.3388680006392,2.0,1.0,phase_3,,,,,176.0,4.0,44.0,88.0,264.0,176.0,220.0,132.0,magenta,hexagon
0.0,4.0,4.0,0.0,7.0,5.0,1686.0902890002762,2.0,1.0,phase_3,,,,,132.0,3.0,88.0,44.0,220.0,264.0,132.0,176.0,gray,triangle
0.0,4.0,4.0,0.0,7.0,2.0,1022.6530150002873,3.0,1.0,phase_3,,,,,216.0,4.0,324.0,216.0,108.0,162.0,54.0,270.0,gray,triangle
0.0,5.0,1.0,1.0,7.0,3.0,780.5987650008319,3.0,1.0,phase_3,,,,,170.0,5.0,102.0,204.0,170.0,68.0,34.0,136.0,orange,flipped triangle
0.0,3.0,3.0,0.0,7.0,1.0,778.2967720004308,3.0,1.0,phase_3,,,,,216.0,4.0,216.0,162.0,108.0,54.0,270.0,324.0,green,I
0.0,1.0,1.0,0.0,7.0,6.0,1318.8587409995307,3.0,1.0,phase_3,,,,,176.0,4.0,264.0,132.0,44.0,220.0,88.0,176.0,white,circle
0.0,2.0,2.0,0.0,7.0,3.0,1212.017789000129,3.0,1.0,phase_3,,,,,136.0,4.0,204.0,68.0,136.0,34.0,170.0,102.0,blue,diamond
0.0,4.0,4.0,0.0,7.0,4.0,821.9487199994546,3.0,1.0,phase_3,,,,,245.0,5.0,294.0,98.0,49.0,245.0,196.0,147.0,gray,triangle
0.0,7.0,3.0,1.0,7.0,2.0,1393.2264610002676,3.0,1.0,phase_3,,,,,204.0,6.0,68.0,204.0,136.0,102.0,170.0,34.0,yellow,cross
0.0,7.0,3.0,1.0,7.0,3.0,1288.82829199938,3.0,1.0,phase_3,,,,,220.0,5.0,176.0,132.0,220.0,264.0,88.0,44.0,yellow,cross
0.0,7.0,3.0,1.0,7.0,2.0,2933.9417260007394,3.0,1.0,phase_3,,,,,204.0,6.0,68.0,204.0,170.0,102.0,34.0,136.0,yellow,cross
0.0,1.0,1.0,0.0,7.0,3.0,1369.3389949994526,3.0,1.0,phase_3,,,,,216.0,4.0,270.0,54.0,216.0,324.0,108.0,162.0,white,circle
0.0,3.0,3.0,0.0,7.0,3.0,1373.518684999908,3.0,1.0,phase_3,,,,,294.0,6.0,49.0,245.0,294.0,98.0,196.0,147.0,green,I
0.0,2.0,2.0,0.0,7.0,3.0,1103.9150690003223,3.0,1.0,phase_3,,,,,147.0,3.0,49.0,98.0,147.0,294.0,196.0,245.0,blue,diamond
0.0,3.0,3.0,0.0,7.0,3.0,1131.2451209996652,3.0,1.0,phase_3,,,,,245.0,5.0,196.0,294.0,245.0,98.0,49.0,147.0,green,I
0.0,1.0,1.0,0.0,7.0,2.0,1286.4897290000954,3.0,1.0,phase_3,,,,,204.0,6.0,136.0,204.0,170.0,68.0,34.0,102.0,white,circle
0.0,2.0,2.0,0.0,7.0,2.0,1425.4046380001455,3.0,1.0,phase_3,,,,,162.0,3.0,270.0,162.0,324.0,216.0,54.0,108.0,blue,diamond
0.0,7.0,3.0,1.0,7.0,5.0,948.3770859997094,3.0,1.0,phase_3,,,,,162.0,3.0,270.0,216.0,54.0,108.0,162.0,324.0,yellow,cross
0.0,8.0,4.0,1.0,7.0,4.0,1261.3220260000162,3.0,1.0,phase_3,,,,,102.0,3.0,204.0,34.0,68.0,102.0,136.0,170.0,magenta,hexagon
0.0,5.0,1.0,1.0,7.0,1.0,1787.6441259995772,3.0,1.0,phase_3,,,,,234.0,6.0,234.0,156.0,78.0,117.0,195.0,39.0,orange,flipped triangle
0.0,5.0,1.0,1.0,7.0,3.0,2131.457223000325,3.0,1.0,phase_3,,,,,196.0,4.0,49.0,98.0,196.0,294.0,147.0,245.0,orange,flipped triangle
0.0,8.0,4.0,1.0,7.0,6.0,505.0973540000996,3.0,1.0,phase_3,,,,,44.0,1.0,176.0,132.0,88.0,220.0,264.0,44.0,magenta,hexagon
0.0,3.0,3.0,0.0,7.0,4.0,609.9917129995447,4.0,1.0,phase_3,,,,,220.0,5.0,88.0,132.0,264.0,220.0,44.0,176.0,green,I
0.0,6.0,2.0,1.0,7.0,2.0,597.9105759997765,4.0,1.0,phase_3,,,,,294.0,6.0,245.0,294.0,147.0,49.0,98.0,196.0,cyan,square
0.0,1.0,1.0,0.0,7.0,1.0,438.101220000135,4.0,1.0,phase_3,,,,,324.0,6.0,324.0,108.0,162.0,216.0,270.0,54.0,white,circle
0.0,3.0,3.0,0.0,7.0,2.0,865.5040140001802,4.0,1.0,phase_3,,,,,108.0,2.0,324.0,108.0,216.0,162.0,270.0,54.0,green,I
0.0,8.0,4.0,1.0,7.0,6.0,225.6371470002705,4.0,1.0,phase_3,,,,,234.0,6.0,78.0,117.0,195.0,156.0,39.0,234.0,magenta,hexagon
0.0,8.0,4.0,1.0,7.0,3.0,822.0627609998701,4.0,1.0,phase_3,,,,,204.0,6.0,136.0,170.0,204.0,34.0,68.0,102.0,magenta,hexagon
0.0,4.0,4.0,0.0,7.0,6.0,382.1987440005614,4.0,1.0,phase_3,,,,,34.0,1.0,68.0,170.0,102.0,136.0,204.0,34.0,gray,triangle
0.0,5.0,1.0,1.0,7.0,1.0,300.2315980002095,4.0,1.0,phase_3,,,,,132.0,3.0,132.0,176.0,220.0,88.0,44.0,264.0,orange,flipped triangle
0.0,2.0,2.0,0.0,7.0,4.0,762.5548849991901,4.0,1.0,phase_3,,,,,117.0,3.0,156.0,39.0,195.0,117.0,234.0,78.0,blue,diamond
0.0,2.0,2.0,0.0,7.0,3.0,119.4923189996188,4.0,1.0,phase_3,,,,,136.0,4.0,68.0,34.0,136.0,204.0,170.0,102.0,blue,diamond
0.0,6.0,2.0,1.0,7.0,6.0,295.7048859998394,4.0,1.0,phase_3,,,,,216.0,4.0,324.0,108.0,54.0,270.0,162.0,216.0,cyan,square
0.0,7.0,3.0,1.0,7.0,5.0,593.2563639998989,4.0,1.0,phase_3,,,,,39.0,1.0,234.0,117.0,78.0,195.0,39.0,156.0,yellow,cross
0.0,5.0,1.0,1.0,7.0,5.0,1122.969834000287,4.0,1.0,phase_3,,,,,49.0,1.0,294.0,98.0,147.0,196.0,49.0,245.0,orange,flipped triangle
0.0,8.0,4.0,1.0,7.0,3.0,362.9079819993421,4.0,1.0,phase_3,,,,,162.0,3.0,270.0,108.0,162.0,54.0,324.0,216.0,magenta,hexagon
0.0,2.0,2.0,0.0,7.0,2.0,426.3509689999409,4.0,1.0,phase_3,,,,,216.0,4.0,108.0,216.0,270.0,324.0,54.0,162.0,blue,diamond
0.0,4.0,4.0,0.0,7.0,2.0,784.3295429993304,4.0,1.0,phase_3,,,,,216.0,4.0,270.0,216.0,324.0,54.0,108.0,162.0,gray,triangle
0.0,4.0,4.0,0.0,7.0,1.0,683.7974130003204,4.0,1.0,phase_3,,,,,176.0,4.0,176.0,88.0,264.0,132.0,220.0,44.0,gray,triangle
0.0,4.0,4.0,0.0,7.0,6.0,665.3755840006852,4.0,1.0,phase_3,,,,,234.0,6.0,117.0,78.0,195.0,39.0,156.0,234.0,gray,triangle
0.0,6.0,2.0,1.0,7.0,3.0,970.7034869998096,4.0,1.0,phase_3,,,,,216.0,4.0,54.0,108.0,216.0,162.0,270.0,324.0,cyan,square
0.0,5.0,1.0,1.0,7.0,6.0,936.510621000707,4.0,1.0,phase_3,,,,,324.0,6.0,270.0,54.0,216.0,108.0,162.0,324.0,orange,flipped triangle
