raw_reward_magnitude,stim_reward,stepwise_reward_magnitude,paired_with_stopping,stim_location,response,reaction_time,block,num_trial_presentations,which_phase,stop_signal_trial_type,left_SSD,right_SSD,accuracy,chosen_bidding_amount,chosen_bidding_level,possible_bid_1,possible_bid_2,possible_bid_3,possible_bid_4,possible_bid_5,possible_bid_6,color_text,shape_text
41.0,5.0,0.5,1.0,2.0,2.0,362.0594869998967,1.0,1.0,phase_1,,,,,,,,,,,,,green,triangle
221.0,3.0,2.0,0.0,2.0,2.0,284.4361180000305,1.0,1.0,phase_1,,,,,,,,,,,,,magenta,square
207.0,3.0,2.0,0.0,3.0,3.0,356.9296369996664,1.0,1.0,phase_1,,,,,,,,,,,,,magenta,square
58.0,5.0,0.5,1.0,4.0,4.0,335.9124929997961,1.0,1.0,phase_1,,,,,,,,,,,,,green,triangle
420.0,8.0,4.0,1.0,3.0,3.0,410.1861659996757,1.0,1.0,phase_1,,,,,,,,,,,,,white,hexagon
381.0,8.0,4.0,1.0,2.0,2.0,323.7435390001337,1.0,1.0,phase_1,,,,,,,,,,,,,white,hexagon
0.0,5.0,0.0,1.0,3.0,3.0,334.9400530000821,1.0,1.0,phase_1,,,,,,,,,,,,,green,triangle
107.0,2.0,1.0,0.0,3.0,3.0,360.3490380000949,1.0,1.0,phase_1,,,,,,,,,,,,,blue,cross
66.0,1.0,0.5,0.0,1.0,1.0,284.3724760000441,1.0,1.0,phase_1,,,,,,,,,,,,,yellow,flipped triangle
47.0,1.0,0.5,0.0,2.0,2.0,299.0429689998564,1.0,1.0,phase_1,,,,,,,,,,,,,yellow,flipped triangle
387.0,8.0,4.0,1.0,4.0,4.0,314.8723260001134,1.0,1.0,phase_1,,,,,,,,,,,,,white,hexagon
389.0,8.0,4.0,1.0,3.0,3.0,322.4727070000881,1.0,1.0,phase_1,,,,,,,,,,,,,white,hexagon
47.0,1.0,0.5,0.0,4.0,4.0,317.7000880000378,1.0,1.0,phase_1,,,,,,,,,,,,,yellow,flipped triangle
30.0,1.0,0.5,0.0,3.0,3.0,277.279419000024,1.0,1.0,phase_1,,,,,,,,,,,,,yellow,flipped triangle
0.0,8.0,0.0,1.0,1.0,1.0,343.626179000239,1.0,1.0,phase_1,,,,,,,,,,,,,white,hexagon
0.0,3.0,0.0,0.0,1.0,1.0,320.818811999743,1.0,1.0,phase_1,,,,,,,,,,,,,magenta,square
186.0,3.0,2.0,0.0,2.0,2.0,296.9597720002639,1.0,1.0,phase_1,,,,,,,,,,,,,magenta,square
62.0,5.0,0.5,1.0,1.0,1.0,296.6796430000613,1.0,1.0,phase_1,,,,,,,,,,,,,green,triangle
197.0,7.0,2.0,1.0,3.0,3.0,296.5249949997997,1.0,1.0,phase_1,,,,,,,,,,,,,cyan,circle
405.0,8.0,4.0,1.0,4.0,4.0,301.3546379997933,1.0,1.0,phase_1,,,,,,,,,,,,,white,hexagon
386.0,8.0,4.0,1.0,2.0,2.0,301.4158890000544,1.0,1.0,phase_1,,,,,,,,,,,,,white,hexagon
212.0,3.0,2.0,0.0,3.0,3.0,347.7477150004233,1.0,1.0,phase_1,,,,,,,,,,,,,magenta,square
0.0,8.0,0.0,1.0,3.0,3.0,294.0663970002788,1.0,1.0,phase_1,,,,,,,,,,,,,white,hexagon
47.0,5.0,0.5,1.0,1.0,1.0,255.14358199961862,1.0,1.0,phase_1,,,,,,,,,,,,,green,triangle
56.0,1.0,0.5,0.0,4.0,4.0,310.4367010000715,1.0,1.0,phase_1,,,,,,,,,,,,,yellow,flipped triangle
404.0,4.0,4.0,0.0,1.0,1.0,270.4672779996144,1.0,1.0,phase_1,,,,,,,,,,,,,gray,I
220.0,7.0,2.0,1.0,3.0,3.0,300.8209429999624,1.0,1.0,phase_1,,,,,,,,,,,,,cyan,circle
391.0,4.0,4.0,0.0,1.0,1.0,276.3399949999439,1.0,1.0,phase_1,,,,,,,,,,,,,gray,I
221.0,7.0,2.0,1.0,4.0,4.0,303.4623300000021,1.0,1.0,phase_1,,,,,,,,,,,,,cyan,circle
215.0,7.0,2.0,1.0,3.0,3.0,303.1886190001387,1.0,1.0,phase_1,,,,,,,,,,,,,cyan,circle
109.0,2.0,1.0,0.0,2.0,2.0,286.4833260000523,1.0,1.0,phase_1,,,,,,,,,,,,,blue,cross
0.0,4.0,0.0,0.0,1.0,1.0,284.7346690000449,1.0,1.0,phase_1,,,,,,,,,,,,,gray,I
92.0,2.0,1.0,0.0,3.0,3.0,331.4417589999721,1.0,1.0,phase_1,,,,,,,,,,,,,blue,cross
195.0,7.0,2.0,1.0,2.0,2.0,293.659774000389,1.0,1.0,phase_1,,,,,,,,,,,,,cyan,circle
106.0,6.0,1.0,1.0,1.0,1.0,265.5335250001371,1.0,1.0,phase_1,,,,,,,,,,,,,orange,diamond
0.0,5.0,0.0,1.0,3.0,3.0,266.3423140002123,1.0,1.0,phase_1,,,,,,,,,,,,,green,triangle
114.0,2.0,1.0,0.0,4.0,4.0,282.8558950000115,1.0,1.0,phase_1,,,,,,,,,,,,,blue,cross
107.0,6.0,1.0,1.0,1.0,1.0,336.6685040000448,1.0,1.0,phase_1,,,,,,,,,,,,,orange,diamond
0.0,8.0,0.0,1.0,4.0,4.0,281.0713779999787,1.0,1.0,phase_1,,,,,,,,,,,,,white,hexagon
181.0,3.0,2.0,0.0,4.0,4.0,270.7686190001368,1.0,1.0,phase_1,,,,,,,,,,,,,magenta,square
0.0,7.0,0.0,1.0,2.0,2.0,290.8325929997772,1.0,1.0,phase_1,,,,,,,,,,,,,cyan,circle
404.0,8.0,4.0,1.0,3.0,3.0,302.2865459997774,1.0,1.0,phase_1,,,,,,,,,,,,,white,hexagon
78.0,6.0,1.0,1.0,2.0,2.0,291.3205899999411,1.0,1.0,phase_1,,,,,,,,,,,,,orange,diamond
69.0,1.0,0.5,0.0,4.0,4.0,247.2236010003143,1.0,1.0,phase_1,,,,,,,,,,,,,yellow,flipped triangle
47.0,5.0,0.5,1.0,4.0,4.0,286.2999130002208,1.0,1.0,phase_1,,,,,,,,,,,,,green,triangle
121.0,2.0,1.0,0.0,4.0,4.0,266.1552640001901,1.0,1.0,phase_1,,,,,,,,,,,,,blue,cross
0.0,2.0,0.0,0.0,3.0,3.0,331.945578000159,1.0,1.0,phase_1,,,,,,,,,,,,,blue,cross
195.0,3.0,2.0,0.0,1.0,1.0,239.3184499997005,1.0,1.0,phase_1,,,,,,,,,,,,,magenta,square
57.0,1.0,0.5,0.0,2.0,2.0,298.8049319997117,1.0,1.0,phase_1,,,,,,,,,,,,,yellow,flipped triangle
198.0,3.0,2.0,0.0,3.0,3.0,277.0015239998429,1.0,1.0,phase_1,,,,,,,,,,,,,magenta,square
409.0,4.0,4.0,0.0,4.0,4.0,288.7328040001193,1.0,1.0,phase_1,,,,,,,,,,,,,gray,I
0.0,7.0,0.0,1.0,2.0,2.0,289.8978150001312,1.0,1.0,phase_1,,,,,,,,,,,,,cyan,circle
418.0,8.0,4.0,1.0,4.0,4.0,262.629692000246,1.0,1.0,phase_1,,,,,,,,,,,,,white,hexagon
79.0,6.0,1.0,1.0,3.0,3.0,286.0667320001084,1.0,1.0,phase_1,,,,,,,,,,,,,orange,diamond
54.0,5.0,0.5,1.0,4.0,4.0,287.4357440000494,1.0,1.0,phase_1,,,,,,,,,,,,,green,triangle
73.0,1.0,0.5,0.0,3.0,3.0,270.6441989998893,1.0,1.0,phase_1,,,,,,,,,,,,,yellow,flipped triangle
65.0,5.0,0.5,1.0,4.0,4.0,432.728254000267,1.0,1.0,phase_1,,,,,,,,,,,,,green,triangle
194.0,7.0,2.0,1.0,4.0,4.0,308.6624390002725,1.0,1.0,phase_1,,,,,,,,,,,,,cyan,circle
0.0,6.0,0.0,1.0,2.0,2.0,333.7157659998411,1.0,1.0,phase_1,,,,,,,,,,,,,orange,diamond
89.0,6.0,1.0,1.0,2.0,2.0,317.3200189999079,1.0,1.0,phase_1,,,,,,,,,,,,,orange,diamond
176.0,7.0,2.0,1.0,3.0,3.0,268.846534000204,1.0,1.0,phase_1,,,,,,,,,,,,,cyan,circle
420.0,8.0,4.0,1.0,3.0,3.0,286.461514000166,1.0,1.0,phase_1,,,,,,,,,,,,,white,hexagon
0.0,3.0,0.0,0.0,4.0,4.0,269.959218999702,1.0,1.0,phase_1,,,,,,,,,,,,,magenta,square
0.0,8.0,0.0,1.0,4.0,4.0,289.444313000331,1.0,1.0,phase_1,,,,,,,,,,,,,white,hexagon
391.0,8.0,4.0,1.0,2.0,2.0,285.2400520000628,1.0,1.0,phase_1,,,,,,,,,,,,,white,hexagon
391.0,8.0,4.0,1.0,2.0,2.0,299.8140310000963,1.0,1.0,phase_1,,,,,,,,,,,,,white,hexagon
112.0,6.0,1.0,1.0,1.0,1.0,315.8734580001692,1.0,1.0,phase_1,,,,,,,,,,,,,orange,diamond
123.0,6.0,1.0,1.0,4.0,4.0,299.6645910002371,1.0,1.0,phase_1,,,,,,,,,,,,,orange,diamond
0.0,2.0,0.0,0.0,4.0,4.0,291.4908660000037,1.0,1.0,phase_1,,,,,,,,,,,,,blue,cross
92.0,6.0,1.0,1.0,2.0,2.0,311.462967999887,1.0,1.0,phase_1,,,,,,,,,,,,,orange,diamond
0.0,6.0,0.0,1.0,3.0,3.0,267.2765269999217,1.0,1.0,phase_1,,,,,,,,,,,,,orange,diamond
412.0,8.0,4.0,1.0,1.0,1.0,296.8772019999051,1.0,1.0,phase_1,,,,,,,,,,,,,white,hexagon
221.0,7.0,2.0,1.0,2.0,2.0,332.9272270002548,1.0,1.0,phase_1,,,,,,,,,,,,,cyan,circle
0.0,6.0,0.0,1.0,1.0,1.0,288.3340620001036,1.0,1.0,phase_1,,,,,,,,,,,,,orange,diamond
102.0,6.0,1.0,1.0,1.0,1.0,293.9464050000424,1.0,1.0,phase_1,,,,,,,,,,,,,orange,diamond
219.0,3.0,2.0,0.0,1.0,1.0,258.5642629996982,1.0,1.0,phase_1,,,,,,,,,,,,,magenta,square
188.0,7.0,2.0,1.0,2.0,2.0,271.6405989999657,1.0,1.0,phase_1,,,,,,,,,,,,,cyan,circle
0.0,2.0,0.0,0.0,2.0,2.0,241.5759569998954,1.0,1.0,phase_1,,,,,,,,,,,,,blue,cross
87.0,6.0,1.0,1.0,2.0,2.0,294.304848000138,1.0,1.0,phase_1,,,,,,,,,,,,,orange,diamond
421.0,4.0,4.0,0.0,4.0,4.0,308.6387609996563,1.0,1.0,phase_1,,,,,,,,,,,,,gray,I
90.0,6.0,1.0,1.0,4.0,4.0,276.5685709996432,1.0,1.0,phase_1,,,,,,,,,,,,,orange,diamond
178.0,3.0,2.0,0.0,2.0,2.0,253.1369109997285,1.0,1.0,phase_1,,,,,,,,,,,,,magenta,square
0.0,8.0,0.0,1.0,3.0,3.0,308.227307999914,1.0,1.0,phase_1,,,,,,,,,,,,,white,hexagon
197.0,3.0,2.0,0.0,2.0,2.0,262.9629299999578,1.0,1.0,phase_1,,,,,,,,,,,,,magenta,square
79.0,2.0,1.0,0.0,1.0,1.0,245.03161299981,1.0,1.0,phase_1,,,,,,,,,,,,,blue,cross
184.0,7.0,2.0,1.0,1.0,1.0,333.9514839999538,1.0,1.0,phase_1,,,,,,,,,,,,,cyan,circle
0.0,3.0,0.0,0.0,1.0,1.0,228.2413829998404,1.0,1.0,phase_1,,,,,,,,,,,,,magenta,square
40.0,1.0,0.5,0.0,3.0,3.0,351.9349279999915,1.0,1.0,phase_1,,,,,,,,,,,,,yellow,flipped triangle
49.0,1.0,0.5,0.0,1.0,1.0,249.5733239998117,1.0,1.0,phase_1,,,,,,,,,,,,,yellow,flipped triangle
88.0,2.0,1.0,0.0,2.0,2.0,281.342310999662,1.0,1.0,phase_1,,,,,,,,,,,,,blue,cross
0.0,3.0,0.0,0.0,2.0,2.0,303.8307089996124,1.0,1.0,phase_1,,,,,,,,,,,,,magenta,square
192.0,7.0,2.0,1.0,1.0,1.0,222.2574090001217,1.0,1.0,phase_1,,,,,,,,,,,,,cyan,circle
197.0,3.0,2.0,0.0,3.0,3.0,307.1129220002149,1.0,1.0,phase_1,,,,,,,,,,,,,magenta,square
0.0,6.0,0.0,1.0,3.0,3.0,281.2408569998297,1.0,1.0,phase_1,,,,,,,,,,,,,orange,diamond
101.0,6.0,1.0,1.0,4.0,4.0,338.8998270002048,1.0,1.0,phase_1,,,,,,,,,,,,,orange,diamond
33.0,5.0,0.5,1.0,3.0,3.0,307.9524159998072,1.0,1.0,phase_1,,,,,,,,,,,,,green,triangle
118.0,2.0,1.0,0.0,1.0,1.0,281.1530960002528,1.0,1.0,phase_1,,,,,,,,,,,,,blue,cross
58.0,1.0,0.5,0.0,1.0,1.0,290.0601500000448,1.0,1.0,phase_1,,,,,,,,,,,,,yellow,flipped triangle
188.0,3.0,2.0,0.0,3.0,3.0,282.063601000118,1.0,1.0,phase_1,,,,,,,,,,,,,magenta,square
42.0,5.0,0.5,1.0,2.0,2.0,290.3280680002353,1.0,1.0,phase_1,,,,,,,,,,,,,green,triangle
33.0,1.0,0.5,0.0,1.0,1.0,291.3095260000773,2.0,1.0,phase_1,,,,,,,,,,,,,yellow,flipped triangle
82.0,2.0,1.0,0.0,4.0,4.0,305.6755470001917,2.0,1.0,phase_1,,,,,,,,,,,,,blue,cross
124.0,6.0,1.0,1.0,1.0,1.0,333.6050070001874,2.0,1.0,phase_1,,,,,,,,,,,,,orange,diamond
0.0,3.0,0.0,0.0,4.0,4.0,351.2422379999407,2.0,1.0,phase_1,,,,,,,,,,,,,magenta,square
0.0,1.0,0.0,0.0,1.0,1.0,319.3007319996468,2.0,1.0,phase_1,,,,,,,,,,,,,yellow,flipped triangle
199.0,7.0,2.0,1.0,1.0,1.0,256.9366070001706,2.0,1.0,phase_1,,,,,,,,,,,,,cyan,circle
106.0,2.0,1.0,0.0,1.0,1.0,305.027610000252,2.0,1.0,phase_1,,,,,,,,,,,,,blue,cross
76.0,2.0,1.0,0.0,4.0,4.0,283.77866000028,2.0,1.0,phase_1,,,,,,,,,,,,,blue,cross
188.0,7.0,2.0,1.0,3.0,3.0,287.8826670003036,2.0,1.0,phase_1,,,,,,,,,,,,,cyan,circle
199.0,3.0,2.0,0.0,4.0,4.0,306.3716269998622,2.0,1.0,phase_1,,,,,,,,,,,,,magenta,square
203.0,3.0,2.0,0.0,2.0,2.0,311.0742569997455,2.0,1.0,phase_1,,,,,,,,,,,,,magenta,square
394.0,8.0,4.0,1.0,1.0,1.0,334.0412529996683,2.0,1.0,phase_1,,,,,,,,,,,,,white,hexagon
423.0,4.0,4.0,0.0,3.0,3.0,453.2969869997032,2.0,1.0,phase_1,,,,,,,,,,,,,gray,I
177.0,3.0,2.0,0.0,3.0,3.0,284.3983160000789,2.0,1.0,phase_1,,,,,,,,,,,,,magenta,square
414.0,4.0,4.0,0.0,3.0,3.0,314.3017630000031,2.0,1.0,phase_1,,,,,,,,,,,,,gray,I
60.0,5.0,0.5,1.0,4.0,4.0,346.5619380003772,2.0,1.0,phase_1,,,,,,,,,,,,,green,triangle
0.0,2.0,0.0,0.0,1.0,1.0,264.6375799999987,2.0,1.0,phase_1,,,,,,,,,,,,,blue,cross
401.0,4.0,4.0,0.0,3.0,3.0,287.8400560002774,2.0,1.0,phase_1,,,,,,,,,,,,,gray,I
383.0,4.0,4.0,0.0,4.0,4.0,292.0872229997258,2.0,1.0,phase_1,,,,,,,,,,,,,gray,I
416.0,8.0,4.0,1.0,1.0,1.0,261.4873569996234,2.0,1.0,phase_1,,,,,,,,,,,,,white,hexagon
212.0,3.0,2.0,0.0,1.0,1.0,263.6948529998335,2.0,1.0,phase_1,,,,,,,,,,,,,magenta,square
409.0,8.0,4.0,1.0,4.0,4.0,314.6941750001133,2.0,1.0,phase_1,,,,,,,,,,,,,white,hexagon
200.0,3.0,2.0,0.0,1.0,1.0,248.7959499999306,2.0,1.0,phase_1,,,,,,,,,,,,,magenta,square
202.0,7.0,2.0,1.0,3.0,3.0,300.7392729996354,2.0,1.0,phase_1,,,,,,,,,,,,,cyan,circle
94.0,2.0,1.0,0.0,3.0,3.0,373.1343060003382,2.0,1.0,phase_1,,,,,,,,,,,,,blue,cross
102.0,2.0,1.0,0.0,2.0,2.0,330.8334369999102,2.0,1.0,phase_1,,,,,,,,,,,,,blue,cross
0.0,2.0,0.0,0.0,4.0,4.0,301.7244130001018,2.0,1.0,phase_1,,,,,,,,,,,,,blue,cross
0.0,8.0,0.0,1.0,3.0,3.0,301.8951720000586,2.0,1.0,phase_1,,,,,,,,,,,,,white,hexagon
221.0,3.0,2.0,0.0,4.0,4.0,419.9179570000524,2.0,1.0,phase_1,,,,,,,,,,,,,magenta,square
0.0,1.0,0.0,0.0,3.0,3.0,329.2966060002982,2.0,1.0,phase_1,,,,,,,,,,,,,yellow,flipped triangle
0.0,4.0,0.0,0.0,2.0,2.0,329.1700479999235,2.0,1.0,phase_1,,,,,,,,,,,,,gray,I
218.0,3.0,2.0,0.0,4.0,4.0,339.8988220001229,2.0,1.0,phase_1,,,,,,,,,,,,,magenta,square
109.0,6.0,1.0,1.0,3.0,3.0,358.0254439998498,2.0,1.0,phase_1,,,,,,,,,,,,,orange,diamond
399.0,4.0,4.0,0.0,3.0,3.0,282.4626239998906,2.0,1.0,phase_1,,,,,,,,,,,,,gray,I
96.0,6.0,1.0,1.0,1.0,1.0,351.1010319998604,2.0,1.0,phase_1,,,,,,,,,,,,,orange,diamond
52.0,5.0,0.5,1.0,2.0,2.0,320.2298940000219,2.0,1.0,phase_1,,,,,,,,,,,,,green,triangle
106.0,2.0,1.0,0.0,1.0,1.0,299.114518999886,2.0,1.0,phase_1,,,,,,,,,,,,,blue,cross
46.0,1.0,0.5,0.0,4.0,4.0,294.6870640002998,2.0,1.0,phase_1,,,,,,,,,,,,,yellow,flipped triangle
0.0,4.0,0.0,0.0,4.0,4.0,308.3037030000923,2.0,2.0,phase_1,,,,,,,,,,,,,gray,I
76.0,6.0,1.0,1.0,2.0,2.0,335.8155759997316,2.0,1.0,phase_1,,,,,,,,,,,,,orange,diamond
398.0,8.0,4.0,1.0,3.0,3.0,295.6408840000222,2.0,1.0,phase_1,,,,,,,,,,,,,white,hexagon
188.0,3.0,2.0,0.0,2.0,2.0,304.4163959998514,2.0,1.0,phase_1,,,,,,,,,,,,,magenta,square
28.0,5.0,0.5,1.0,1.0,1.0,293.2464749997052,2.0,1.0,phase_1,,,,,,,,,,,,,green,triangle
0.0,1.0,0.0,0.0,3.0,3.0,297.9571870000654,2.0,1.0,phase_1,,,,,,,,,,,,,yellow,flipped triangle
0.0,1.0,0.0,0.0,4.0,4.0,408.6262700002407,2.0,1.0,phase_1,,,,,,,,,,,,,yellow,flipped triangle
0.0,5.0,0.0,1.0,1.0,1.0,335.5002240000431,2.0,1.0,phase_1,,,,,,,,,,,,,green,triangle
383.0,8.0,4.0,1.0,4.0,4.0,337.5652360000458,2.0,1.0,phase_1,,,,,,,,,,,,,white,hexagon
116.0,2.0,1.0,0.0,2.0,2.0,299.5169880000503,2.0,1.0,phase_1,,,,,,,,,,,,,blue,cross
56.0,5.0,0.5,1.0,3.0,3.0,295.2563409999129,2.0,1.0,phase_1,,,,,,,,,,,,,green,triangle
412.0,4.0,4.0,0.0,3.0,3.0,336.1164329999155,2.0,1.0,phase_1,,,,,,,,,,,,,gray,I
121.0,6.0,1.0,1.0,2.0,2.0,314.3315369998163,2.0,1.0,phase_1,,,,,,,,,,,,,orange,diamond
0.0,8.0,0.0,1.0,2.0,2.0,272.1311280001828,2.0,1.0,phase_1,,,,,,,,,,,,,white,hexagon
102.0,6.0,1.0,1.0,4.0,4.0,278.5612889997537,2.0,1.0,phase_1,,,,,,,,,,,,,orange,diamond
0.0,3.0,0.0,0.0,1.0,1.0,287.1165930000643,2.0,1.0,phase_1,,,,,,,,,,,,,magenta,square
26.0,1.0,0.5,0.0,3.0,3.0,297.0648079999591,2.0,1.0,phase_1,,,,,,,,,,,,,yellow,flipped triangle
52.0,1.0,0.5,0.0,4.0,4.0,296.9388350002191,2.0,1.0,phase_1,,,,,,,,,,,,,yellow,flipped triangle
0.0,5.0,0.0,1.0,1.0,1.0,277.1846809996532,2.0,1.0,phase_1,,,,,,,,,,,,,green,triangle
396.0,8.0,4.0,1.0,2.0,2.0,325.6831280000369,2.0,1.0,phase_1,,,,,,,,,,,,,white,hexagon
94.0,6.0,1.0,1.0,3.0,3.0,289.41338300001,2.0,1.0,phase_1,,,,,,,,,,,,,orange,diamond
184.0,3.0,2.0,0.0,4.0,4.0,280.2095500001087,2.0,1.0,phase_1,,,,,,,,,,,,,magenta,square
223.0,3.0,2.0,0.0,2.0,2.0,297.7180389998466,2.0,1.0,phase_1,,,,,,,,,,,,,magenta,square
64.0,1.0,0.5,0.0,3.0,3.0,292.0700730001044,2.0,1.0,phase_1,,,,,,,,,,,,,yellow,flipped triangle
0.0,2.0,0.0,0.0,4.0,4.0,279.2452959997717,2.0,1.0,phase_1,,,,,,,,,,,,,blue,cross
215.0,3.0,2.0,0.0,3.0,3.0,271.6381649997856,2.0,1.0,phase_1,,,,,,,,,,,,,magenta,square
124.0,6.0,1.0,1.0,3.0,3.0,315.368602000035,2.0,1.0,phase_1,,,,,,,,,,,,,orange,diamond
87.0,2.0,1.0,0.0,1.0,1.0,325.7787100001224,2.0,1.0,phase_1,,,,,,,,,,,,,blue,cross
414.0,8.0,4.0,1.0,1.0,1.0,294.710084000144,2.0,1.0,phase_1,,,,,,,,,,,,,white,hexagon
0.0,1.0,0.0,0.0,2.0,2.0,313.5304270003871,2.0,1.0,phase_1,,,,,,,,,,,,,yellow,flipped triangle
382.0,8.0,4.0,1.0,4.0,4.0,281.2490859996615,2.0,1.0,phase_1,,,,,,,,,,,,,white,hexagon
381.0,4.0,4.0,0.0,1.0,1.0,282.3354230004042,2.0,1.0,phase_1,,,,,,,,,,,,,gray,I
0.0,5.0,0.0,1.0,1.0,1.0,297.7324440003031,2.0,1.0,phase_1,,,,,,,,,,,,,green,triangle
383.0,8.0,4.0,1.0,3.0,3.0,271.5467580001132,2.0,1.0,phase_1,,,,,,,,,,,,,white,hexagon
124.0,2.0,1.0,0.0,1.0,1.0,307.8406839999843,2.0,1.0,phase_1,,,,,,,,,,,,,blue,cross
0.0,7.0,0.0,1.0,4.0,4.0,300.7496860000174,2.0,1.0,phase_1,,,,,,,,,,,,,cyan,circle
0.0,6.0,0.0,1.0,1.0,1.0,312.0579650003492,2.0,1.0,phase_1,,,,,,,,,,,,,orange,diamond
49.0,5.0,0.5,1.0,3.0,3.0,341.2040709999928,2.0,1.0,phase_1,,,,,,,,,,,,,green,triangle
0.0,1.0,0.0,0.0,3.0,3.0,308.4139999996296,2.0,1.0,phase_1,,,,,,,,,,,,,yellow,flipped triangle
64.0,5.0,0.5,1.0,1.0,1.0,263.141811999958,2.0,1.0,phase_1,,,,,,,,,,,,,green,triangle
81.0,2.0,1.0,0.0,3.0,3.0,288.7480610002058,2.0,1.0,phase_1,,,,,,,,,,,,,blue,cross
112.0,2.0,1.0,0.0,3.0,3.0,293.1381660000625,2.0,1.0,phase_1,,,,,,,,,,,,,blue,cross
223.0,7.0,2.0,1.0,3.0,3.0,304.8544039997978,2.0,1.0,phase_1,,,,,,,,,,,,,cyan,circle
120.0,6.0,1.0,1.0,4.0,4.0,328.4254240002155,2.0,1.0,phase_1,,,,,,,,,,,,,orange,diamond
220.0,3.0,2.0,0.0,1.0,1.0,271.1620449999827,2.0,1.0,phase_1,,,,,,,,,,,,,magenta,square
39.0,5.0,0.5,1.0,2.0,2.0,293.8724050000019,2.0,1.0,phase_1,,,,,,,,,,,,,green,triangle
73.0,5.0,0.5,1.0,3.0,3.0,261.8492050000895,2.0,1.0,phase_1,,,,,,,,,,,,,green,triangle
0.0,4.0,0.0,0.0,4.0,4.0,304.0069240000775,2.0,1.0,phase_1,,,,,,,,,,,,,gray,I
113.0,2.0,1.0,0.0,4.0,4.0,326.7957039997782,2.0,1.0,phase_1,,,,,,,,,,,,,blue,cross
223.0,3.0,2.0,0.0,1.0,1.0,298.0084099999658,2.0,1.0,phase_1,,,,,,,,,,,,,magenta,square
123.0,2.0,1.0,0.0,4.0,4.0,382.5459939998836,2.0,1.0,phase_1,,,,,,,,,,,,,blue,cross
184.0,7.0,2.0,1.0,4.0,4.0,295.2791709999474,2.0,1.0,phase_1,,,,,,,,,,,,,cyan,circle
114.0,6.0,1.0,1.0,3.0,3.0,276.9872349999787,2.0,1.0,phase_1,,,,,,,,,,,,,orange,diamond
0.0,7.0,0.0,1.0,4.0,4.0,372.4848689998907,2.0,1.0,phase_1,,,,,,,,,,,,,cyan,circle
405.0,4.0,4.0,0.0,1.0,1.0,327.9178430002503,2.0,1.0,phase_1,,,,,,,,,,,,,gray,I
206.0,7.0,2.0,1.0,2.0,2.0,325.8012969999981,2.0,1.0,phase_1,,,,,,,,,,,,,cyan,circle
0.0,7.0,0.0,1.0,1.0,1.0,367.3211469999842,2.0,1.0,phase_1,,,,,,,,,,,,,cyan,circle
0.0,3.0,0.0,0.0,3.0,3.0,270.048988000326,2.0,1.0,phase_1,,,,,,,,,,,,,magenta,square
194.0,3.0,2.0,0.0,1.0,1.0,327.7380399999856,2.0,1.0,phase_1,,,,,,,,,,,,,magenta,square
422.0,4.0,4.0,0.0,2.0,2.0,291.2700729998505,2.0,1.0,phase_1,,,,,,,,,,,,,gray,I
377.0,8.0,4.0,1.0,3.0,3.0,267.1797850002804,2.0,1.0,phase_1,,,,,,,,,,,,,white,hexagon
192.0,3.0,2.0,0.0,1.0,1.0,326.272495000012,2.0,1.0,phase_1,,,,,,,,,,,,,magenta,square
97.0,6.0,1.0,1.0,2.0,2.0,281.142433000241,3.0,1.0,phase_1,,,,,,,,,,,,,orange,diamond
400.0,4.0,4.0,0.0,2.0,2.0,287.0407499999601,3.0,1.0,phase_1,,,,,,,,,,,,,gray,I
112.0,6.0,1.0,1.0,2.0,2.0,251.8102330000147,3.0,1.0,phase_1,,,,,,,,,,,,,orange,diamond
0.0,1.0,0.0,0.0,1.0,1.0,254.02597899983448,3.0,1.0,phase_1,,,,,,,,,,,,,yellow,flipped triangle
36.0,1.0,0.5,0.0,1.0,1.0,282.6502729999447,3.0,1.0,phase_1,,,,,,,,,,,,,yellow,flipped triangle
95.0,2.0,1.0,0.0,4.0,4.0,373.3226559998002,3.0,1.0,phase_1,,,,,,,,,,,,,blue,cross
106.0,6.0,1.0,1.0,4.0,4.0,300.3451240001595,3.0,1.0,phase_1,,,,,,,,,,,,,orange,diamond
395.0,4.0,4.0,0.0,1.0,1.0,261.1267349998343,3.0,1.0,phase_1,,,,,,,,,,,,,gray,I
101.0,2.0,1.0,0.0,3.0,3.0,335.7215700002598,3.0,1.0,phase_1,,,,,,,,,,,,,blue,cross
78.0,2.0,1.0,0.0,1.0,1.0,285.6706739999026,3.0,1.0,phase_1,,,,,,,,,,,,,blue,cross
197.0,7.0,2.0,1.0,1.0,1.0,287.9211069998746,3.0,1.0,phase_1,,,,,,,,,,,,,cyan,circle
99.0,6.0,1.0,1.0,2.0,2.0,293.0295490000389,3.0,1.0,phase_1,,,,,,,,,,,,,orange,diamond
77.0,6.0,1.0,1.0,1.0,1.0,265.97822299982,3.0,1.0,phase_1,,,,,,,,,,,,,orange,diamond
0.0,2.0,0.0,0.0,3.0,3.0,335.336763000214,3.0,1.0,phase_1,,,,,,,,,,,,,blue,cross
73.0,5.0,0.5,1.0,3.0,3.0,320.5472929998905,3.0,1.0,phase_1,,,,,,,,,,,,,green,triangle
30.0,5.0,0.5,1.0,2.0,2.0,244.3238969999583,3.0,2.0,phase_1,,,,,,,,,,,,,green,triangle
34.0,5.0,0.5,1.0,2.0,2.0,300.2892380000048,3.0,1.0,phase_1,,,,,,,,,,,,,green,triangle
0.0,7.0,0.0,1.0,4.0,4.0,309.4966560001921,3.0,1.0,phase_1,,,,,,,,,,,,,cyan,circle
34.0,1.0,0.5,0.0,2.0,2.0,260.8436479999909,3.0,1.0,phase_1,,,,,,,,,,,,,yellow,flipped triangle
387.0,4.0,4.0,0.0,1.0,1.0,228.3855430000585,3.0,1.0,phase_1,,,,,,,,,,,,,gray,I
62.0,1.0,0.5,0.0,4.0,4.0,281.6206359998432,3.0,1.0,phase_1,,,,,,,,,,,,,yellow,flipped triangle
113.0,6.0,1.0,1.0,2.0,2.0,295.1011370000742,3.0,1.0,phase_1,,,,,,,,,,,,,orange,diamond
0.0,4.0,0.0,0.0,2.0,2.0,314.6100300000398,3.0,1.0,phase_1,,,,,,,,,,,,,gray,I
189.0,7.0,2.0,1.0,1.0,1.0,306.5526049999789,3.0,1.0,phase_1,,,,,,,,,,,,,cyan,circle
0.0,5.0,0.0,1.0,3.0,3.0,305.5364570000165,3.0,1.0,phase_1,,,,,,,,,,,,,green,triangle
0.0,4.0,0.0,0.0,1.0,1.0,306.3336919999528,3.0,1.0,phase_1,,,,,,,,,,,,,gray,I
223.0,7.0,2.0,1.0,1.0,1.0,286.7000249998455,3.0,1.0,phase_1,,,,,,,,,,,,,cyan,circle
416.0,4.0,4.0,0.0,4.0,4.0,370.4200099996342,3.0,1.0,phase_1,,,,,,,,,,,,,gray,I
124.0,2.0,1.0,0.0,2.0,2.0,279.2612190000909,3.0,1.0,phase_1,,,,,,,,,,,,,blue,cross
60.0,5.0,0.5,1.0,3.0,3.0,281.4507260000027,3.0,1.0,phase_1,,,,,,,,,,,,,green,triangle
60.0,5.0,0.5,1.0,1.0,1.0,270.6022290003602,3.0,1.0,phase_1,,,,,,,,,,,,,green,triangle
411.0,4.0,4.0,0.0,1.0,1.0,249.8228939998625,3.0,1.0,phase_1,,,,,,,,,,,,,gray,I
42.0,5.0,0.5,1.0,4.0,4.0,229.500576999726,3.0,2.0,phase_1,,,,,,,,,,,,,green,triangle
30.0,1.0,0.5,0.0,2.0,2.0,270.4008709997652,3.0,1.0,phase_1,,,,,,,,,,,,,yellow,flipped triangle
112.0,2.0,1.0,0.0,1.0,1.0,340.7289809997564,3.0,1.0,phase_1,,,,,,,,,,,,,blue,cross
55.0,1.0,0.5,0.0,2.0,2.0,307.0913820001806,3.0,1.0,phase_1,,,,,,,,,,,,,yellow,flipped triangle
203.0,3.0,2.0,0.0,4.0,4.0,276.406894000047,3.0,1.0,phase_1,,,,,,,,,,,,,magenta,square
385.0,8.0,4.0,1.0,2.0,2.0,355.6480680003915,3.0,1.0,phase_1,,,,,,,,,,,,,white,hexagon
0.0,4.0,0.0,0.0,3.0,3.0,369.4924360002005,3.0,1.0,phase_1,,,,,,,,,,,,,gray,I
0.0,7.0,0.0,1.0,3.0,3.0,305.8720589997392,3.0,1.0,phase_1,,,,,,,,,,,,,cyan,circle
184.0,3.0,2.0,0.0,3.0,3.0,306.071134999911,3.0,1.0,phase_1,,,,,,,,,,,,,magenta,square
53.0,5.0,0.5,1.0,2.0,2.0,284.3074570000681,3.0,1.0,phase_1,,,,,,,,,,,,,green,triangle
66.0,1.0,0.5,0.0,2.0,2.0,231.5681089999088,3.0,1.0,phase_1,,,,,,,,,,,,,yellow,flipped triangle
71.0,1.0,0.5,0.0,4.0,4.0,293.1957779996992,3.0,1.0,phase_1,,,,,,,,,,,,,yellow,flipped triangle
31.0,1.0,0.5,0.0,1.0,1.0,335.3136549999362,3.0,1.0,phase_1,,,,,,,,,,,,,yellow,flipped triangle
405.0,8.0,4.0,1.0,2.0,2.0,287.5328229997649,3.0,1.0,phase_1,,,,,,,,,,,,,white,hexagon
102.0,2.0,1.0,0.0,3.0,3.0,300.4158179996921,3.0,1.0,phase_1,,,,,,,,,,,,,blue,cross
39.0,1.0,0.5,0.0,4.0,4.0,295.8697369999754,3.0,1.0,phase_1,,,,,,,,,,,,,yellow,flipped triangle
395.0,8.0,4.0,1.0,4.0,4.0,302.9343650000555,3.0,1.0,phase_1,,,,,,,,,,,,,white,hexagon
420.0,4.0,4.0,0.0,3.0,3.0,314.3732899998213,3.0,1.0,phase_1,,,,,,,,,,,,,gray,I
425.0,4.0,4.0,0.0,2.0,2.0,307.873909999671,3.0,1.0,phase_1,,,,,,,,,,,,,gray,I
93.0,2.0,1.0,0.0,1.0,1.0,313.1265020001592,3.0,1.0,phase_1,,,,,,,,,,,,,blue,cross
0.0,8.0,0.0,1.0,3.0,3.0,318.0589290000171,3.0,1.0,phase_1,,,,,,,,,,,,,white,hexagon
423.0,8.0,4.0,1.0,3.0,3.0,309.9401720000969,3.0,1.0,phase_1,,,,,,,,,,,,,white,hexagon
398.0,4.0,4.0,0.0,4.0,4.0,338.9914129998033,3.0,1.0,phase_1,,,,,,,,,,,,,gray,I
0.0,7.0,0.0,1.0,4.0,4.0,336.5683259999059,3.0,1.0,phase_1,,,,,,,,,,,,,cyan,circle
401.0,8.0,4.0,1.0,2.0,2.0,311.9949760002782,3.0,1.0,phase_1,,,,,,,,,,,,,white,hexagon
394.0,4.0,4.0,0.0,2.0,2.0,295.9644280003886,3.0,1.0,phase_1,,,,,,,,,,,,,gray,I
115.0,6.0,1.0,1.0,3.0,3.0,508.62837600016064,3.0,1.0,phase_1,,,,,,,,,,,,,orange,diamond
118.0,6.0,1.0,1.0,3.0,3.0,295.990786999937,3.0,1.0,phase_1,,,,,,,,,,,,,orange,diamond
53.0,1.0,0.5,0.0,2.0,2.0,287.0542400000886,3.0,1.0,phase_1,,,,,,,,,,,,,yellow,flipped triangle
388.0,4.0,4.0,0.0,3.0,3.0,329.4120929999735,3.0,1.0,phase_1,,,,,,,,,,,,,gray,I
54.0,1.0,0.5,0.0,1.0,1.0,341.6390759998648,3.0,1.0,phase_1,,,,,,,,,,,,,yellow,flipped triangle
0.0,4.0,0.0,0.0,3.0,3.0,334.1053540002576,3.0,1.0,phase_1,,,,,,,,,,,,,gray,I
77.0,2.0,1.0,0.0,2.0,2.0,322.2602959999676,3.0,1.0,phase_1,,,,,,,,,,,,,blue,cross
0.0,1.0,0.0,0.0,3.0,3.0,302.8620350000892,3.0,1.0,phase_1,,,,,,,,,,,,,yellow,flipped triangle
396.0,4.0,4.0,0.0,2.0,2.0,338.3899840000595,3.0,1.0,phase_1,,,,,,,,,,,,,gray,I
42.0,1.0,0.5,0.0,3.0,3.0,298.1701199996678,3.0,1.0,phase_1,,,,,,,,,,,,,yellow,flipped triangle
32.0,5.0,0.5,1.0,4.0,4.0,275.7855059999201,3.0,2.0,phase_1,,,,,,,,,,,,,green,triangle
386.0,4.0,4.0,0.0,1.0,1.0,259.0619160000642,3.0,1.0,phase_1,,,,,,,,,,,,,gray,I
223.0,3.0,2.0,0.0,4.0,4.0,349.6757489997435,3.0,1.0,phase_1,,,,,,,,,,,,,magenta,square
65.0,1.0,0.5,0.0,4.0,4.0,295.526480999797,3.0,1.0,phase_1,,,,,,,,,,,,,yellow,flipped triangle
41.0,1.0,0.5,0.0,2.0,2.0,391.3840459999846,3.0,1.0,phase_1,,,,,,,,,,,,,yellow,flipped triangle
184.0,7.0,2.0,1.0,4.0,4.0,286.4740029999666,3.0,1.0,phase_1,,,,,,,,,,,,,cyan,circle
0.0,6.0,0.0,1.0,4.0,4.0,347.4453750000066,3.0,1.0,phase_1,,,,,,,,,,,,,orange,diamond
419.0,8.0,4.0,1.0,3.0,3.0,386.9519579998268,3.0,1.0,phase_1,,,,,,,,,,,,,white,hexagon
0.0,7.0,0.0,1.0,3.0,3.0,310.6920249997529,3.0,1.0,phase_1,,,,,,,,,,,,,cyan,circle
57.0,5.0,0.5,1.0,2.0,2.0,347.0813320000161,3.0,1.0,phase_1,,,,,,,,,,,,,green,triangle
73.0,1.0,0.5,0.0,4.0,4.0,285.2057060003972,3.0,1.0,phase_1,,,,,,,,,,,,,yellow,flipped triangle
0.0,8.0,0.0,1.0,2.0,2.0,320.412079000107,3.0,1.0,phase_1,,,,,,,,,,,,,white,hexagon
0.0,2.0,0.0,0.0,3.0,3.0,305.1928950003457,3.0,1.0,phase_1,,,,,,,,,,,,,blue,cross
82.0,6.0,1.0,1.0,1.0,1.0,307.3815819998344,3.0,1.0,phase_1,,,,,,,,,,,,,orange,diamond
206.0,3.0,2.0,0.0,1.0,1.0,294.9432209998122,3.0,1.0,phase_1,,,,,,,,,,,,,magenta,square
0.0,6.0,0.0,1.0,3.0,3.0,302.833746000033,3.0,1.0,phase_1,,,,,,,,,,,,,orange,diamond
383.0,8.0,4.0,1.0,1.0,1.0,364.5652529999097,3.0,1.0,phase_1,,,,,,,,,,,,,white,hexagon
116.0,6.0,1.0,1.0,3.0,3.0,265.5011780002496,3.0,2.0,phase_1,,,,,,,,,,,,,orange,diamond
58.0,5.0,0.5,1.0,4.0,4.0,332.6485369998408,3.0,1.0,phase_1,,,,,,,,,,,,,green,triangle
40.0,5.0,0.5,1.0,1.0,1.0,294.6474600003057,3.0,1.0,phase_1,,,,,,,,,,,,,green,triangle
32.0,1.0,0.5,0.0,1.0,1.0,331.3259370002015,3.0,1.0,phase_1,,,,,,,,,,,,,yellow,flipped triangle
421.0,8.0,4.0,1.0,3.0,3.0,366.1753010001121,3.0,1.0,phase_1,,,,,,,,,,,,,white,hexagon
88.0,6.0,1.0,1.0,4.0,4.0,387.1064490003846,3.0,1.0,phase_1,,,,,,,,,,,,,orange,diamond
186.0,3.0,2.0,0.0,3.0,3.0,304.5654360003027,3.0,1.0,phase_1,,,,,,,,,,,,,magenta,square
181.0,7.0,2.0,1.0,3.0,3.0,312.8881390002789,3.0,1.0,phase_1,,,,,,,,,,,,,cyan,circle
405.0,4.0,4.0,0.0,3.0,3.0,297.52112999995,3.0,1.0,phase_1,,,,,,,,,,,,,gray,I
84.0,6.0,1.0,1.0,3.0,3.0,306.7698370000471,3.0,1.0,phase_1,,,,,,,,,,,,,orange,diamond
0.0,5.0,0.0,1.0,1.0,1.0,319.8463809999339,3.0,1.0,phase_1,,,,,,,,,,,,,green,triangle
184.0,3.0,2.0,0.0,2.0,2.0,322.6061079999454,3.0,1.0,phase_1,,,,,,,,,,,,,magenta,square
208.0,7.0,2.0,1.0,4.0,4.0,310.5532750000748,3.0,1.0,phase_1,,,,,,,,,,,,,cyan,circle
389.0,4.0,4.0,0.0,4.0,4.0,310.3516400001354,3.0,1.0,phase_1,,,,,,,,,,,,,gray,I
93.0,6.0,1.0,1.0,1.0,1.0,359.4670069996937,3.0,1.0,phase_1,,,,,,,,,,,,,orange,diamond
388.0,8.0,4.0,1.0,4.0,4.0,334.8799909999798,4.0,1.0,phase_1,,,,,,,,,,,,,white,hexagon
101.0,2.0,1.0,0.0,3.0,3.0,356.6861180001979,4.0,1.0,phase_1,,,,,,,,,,,,,blue,cross
178.0,7.0,2.0,1.0,1.0,1.0,278.8037099999201,4.0,1.0,phase_1,,,,,,,,,,,,,cyan,circle
420.0,4.0,4.0,0.0,2.0,2.0,276.0392889999821,4.0,1.0,phase_1,,,,,,,,,,,,,gray,I
400.0,8.0,4.0,1.0,1.0,1.0,281.1121370000364,4.0,1.0,phase_1,,,,,,,,,,,,,white,hexagon
422.0,8.0,4.0,1.0,1.0,1.0,281.9170759998997,4.0,1.0,phase_1,,,,,,,,,,,,,white,hexagon
89.0,2.0,1.0,0.0,3.0,3.0,295.390602000225,4.0,1.0,phase_1,,,,,,,,,,,,,blue,cross
97.0,2.0,1.0,0.0,2.0,2.0,279.0846279999641,4.0,1.0,phase_1,,,,,,,,,,,,,blue,cross
0.0,2.0,0.0,0.0,4.0,4.0,284.0718110001035,4.0,1.0,phase_1,,,,,,,,,,,,,blue,cross
189.0,3.0,2.0,0.0,4.0,4.0,298.6484129996825,4.0,1.0,phase_1,,,,,,,,,,,,,magenta,square
0.0,1.0,0.0,0.0,3.0,3.0,321.0123540002314,4.0,1.0,phase_1,,,,,,,,,,,,,yellow,flipped triangle
0.0,3.0,0.0,0.0,3.0,3.0,310.4574530002537,4.0,1.0,phase_1,,,,,,,,,,,,,magenta,square
223.0,7.0,2.0,1.0,2.0,2.0,281.5375650002352,4.0,1.0,phase_1,,,,,,,,,,,,,cyan,circle
0.0,5.0,0.0,1.0,1.0,1.0,286.2484790002781,4.0,1.0,phase_1,,,,,,,,,,,,,green,triangle
95.0,6.0,1.0,1.0,4.0,4.0,276.8830539998816,4.0,1.0,phase_1,,,,,,,,,,,,,orange,diamond
186.0,7.0,2.0,1.0,1.0,1.0,275.1773280001544,4.0,1.0,phase_1,,,,,,,,,,,,,cyan,circle
93.0,2.0,1.0,0.0,2.0,2.0,303.5803489997306,4.0,1.0,phase_1,,,,,,,,,,,,,blue,cross
212.0,3.0,2.0,0.0,2.0,2.0,290.0486609996733,4.0,1.0,phase_1,,,,,,,,,,,,,magenta,square
177.0,7.0,2.0,1.0,3.0,3.0,319.277607999993,4.0,1.0,phase_1,,,,,,,,,,,,,cyan,circle
60.0,1.0,0.5,0.0,3.0,3.0,294.6498060000522,4.0,1.0,phase_1,,,,,,,,,,,,,yellow,flipped triangle
66.0,5.0,0.5,1.0,4.0,4.0,297.1041460000378,4.0,1.0,phase_1,,,,,,,,,,,,,green,triangle
0.0,1.0,0.0,0.0,1.0,1.0,262.6377429996864,4.0,1.0,phase_1,,,,,,,,,,,,,yellow,flipped triangle
69.0,5.0,0.5,1.0,1.0,1.0,250.16158300013558,4.0,1.0,phase_1,,,,,,,,,,,,,green,triangle
379.0,8.0,4.0,1.0,2.0,2.0,278.9994889999434,4.0,1.0,phase_1,,,,,,,,,,,,,white,hexagon
0.0,6.0,0.0,1.0,2.0,2.0,336.664405999727,4.0,1.0,phase_1,,,,,,,,,,,,,orange,diamond
191.0,3.0,2.0,0.0,1.0,1.0,294.0365889999157,4.0,1.0,phase_1,,,,,,,,,,,,,magenta,square
66.0,1.0,0.5,0.0,2.0,2.0,316.1764070000572,4.0,1.0,phase_1,,,,,,,,,,,,,yellow,flipped triangle
418.0,4.0,4.0,0.0,3.0,3.0,358.3438200003002,4.0,1.0,phase_1,,,,,,,,,,,,,gray,I
395.0,4.0,4.0,0.0,4.0,4.0,312.3256640001273,4.0,1.0,phase_1,,,,,,,,,,,,,gray,I
101.0,6.0,1.0,1.0,4.0,4.0,295.4547429999365,4.0,1.0,phase_1,,,,,,,,,,,,,orange,diamond
389.0,4.0,4.0,0.0,2.0,2.0,308.4490890000779,4.0,1.0,phase_1,,,,,,,,,,,,,gray,I
71.0,5.0,0.5,1.0,3.0,3.0,288.6612629999945,4.0,1.0,phase_1,,,,,,,,,,,,,green,triangle
191.0,7.0,2.0,1.0,4.0,4.0,296.0750319998624,4.0,1.0,phase_1,,,,,,,,,,,,,cyan,circle
219.0,7.0,2.0,1.0,2.0,2.0,266.2644940000973,4.0,1.0,phase_1,,,,,,,,,,,,,cyan,circle
31.0,5.0,0.5,1.0,1.0,1.0,230.4667950002112,4.0,1.0,phase_1,,,,,,,,,,,,,green,triangle
385.0,4.0,4.0,0.0,2.0,2.0,276.153854000313,4.0,1.0,phase_1,,,,,,,,,,,,,gray,I
0.0,7.0,0.0,1.0,2.0,2.0,285.4578210003637,4.0,1.0,phase_1,,,,,,,,,,,,,cyan,circle
391.0,4.0,4.0,0.0,1.0,1.0,300.6220510001185,4.0,1.0,phase_1,,,,,,,,,,,,,gray,I
0.0,4.0,0.0,0.0,1.0,1.0,322.979586999736,4.0,1.0,phase_1,,,,,,,,,,,,,gray,I
99.0,2.0,1.0,0.0,4.0,4.0,323.692784999821,4.0,1.0,phase_1,,,,,,,,,,,,,blue,cross
0.0,4.0,0.0,0.0,2.0,2.0,286.5007740001601,4.0,1.0,phase_1,,,,,,,,,,,,,gray,I
0.0,5.0,0.0,1.0,4.0,4.0,325.9681670001555,4.0,1.0,phase_1,,,,,,,,,,,,,green,triangle
0.0,6.0,0.0,1.0,1.0,1.0,262.039993000144,4.0,1.0,phase_1,,,,,,,,,,,,,orange,diamond
55.0,5.0,0.5,1.0,3.0,3.0,334.7162860000026,4.0,1.0,phase_1,,,,,,,,,,,,,green,triangle
30.0,5.0,0.5,1.0,3.0,3.0,337.9982960000234,4.0,1.0,phase_1,,,,,,,,,,,,,green,triangle
203.0,7.0,2.0,1.0,2.0,2.0,332.7155609999863,4.0,1.0,phase_1,,,,,,,,,,,,,cyan,circle
203.0,7.0,2.0,1.0,2.0,2.0,332.9787340003349,4.0,1.0,phase_1,,,,,,,,,,,,,cyan,circle
98.0,2.0,1.0,0.0,1.0,1.0,328.1457050002245,4.0,1.0,phase_1,,,,,,,,,,,,,blue,cross
186.0,7.0,2.0,1.0,1.0,1.0,245.7237309999982,4.0,1.0,phase_1,,,,,,,,,,,,,cyan,circle
212.0,7.0,2.0,1.0,4.0,4.0,339.5984690000659,4.0,1.0,phase_1,,,,,,,,,,,,,cyan,circle
0.0,5.0,0.0,1.0,2.0,2.0,276.7594100000679,4.0,1.0,phase_1,,,,,,,,,,,,,green,triangle
115.0,2.0,1.0,0.0,2.0,2.0,282.7486149999458,4.0,1.0,phase_1,,,,,,,,,,,,,blue,cross
66.0,5.0,0.5,1.0,3.0,3.0,276.1775009998928,4.0,1.0,phase_1,,,,,,,,,,,,,green,triangle
382.0,4.0,4.0,0.0,1.0,1.0,303.6803800000598,4.0,1.0,phase_1,,,,,,,,,,,,,gray,I
389.0,8.0,4.0,1.0,2.0,2.0,325.8406039999499,4.0,1.0,phase_1,,,,,,,,,,,,,white,hexagon
84.0,2.0,1.0,0.0,2.0,2.0,260.5407320002086,4.0,1.0,phase_1,,,,,,,,,,,,,blue,cross
41.0,5.0,0.5,1.0,4.0,4.0,276.1219099998016,4.0,1.0,phase_1,,,,,,,,,,,,,green,triangle
423.0,8.0,4.0,1.0,4.0,4.0,250.5308790000526,4.0,1.0,phase_1,,,,,,,,,,,,,white,hexagon
36.0,5.0,0.5,1.0,2.0,2.0,302.1576999999524,4.0,1.0,phase_1,,,,,,,,,,,,,green,triangle
176.0,3.0,2.0,0.0,3.0,3.0,253.26743699997678,4.0,1.0,phase_1,,,,,,,,,,,,,magenta,square
379.0,4.0,4.0,0.0,4.0,4.0,245.3057719999378,4.0,1.0,phase_1,,,,,,,,,,,,,gray,I
66.0,5.0,0.5,1.0,1.0,1.0,231.6548389999297,4.0,1.0,phase_1,,,,,,,,,,,,,green,triangle
42.0,1.0,0.5,0.0,1.0,1.0,231.7641670001649,4.0,1.0,phase_1,,,,,,,,,,,,,yellow,flipped triangle
383.0,4.0,4.0,0.0,2.0,2.0,317.3186899998654,4.0,1.0,phase_1,,,,,,,,,,,,,gray,I
98.0,6.0,1.0,1.0,3.0,3.0,272.2878380000111,4.0,1.0,phase_1,,,,,,,,,,,,,orange,diamond
96.0,2.0,1.0,0.0,4.0,4.0,314.7108589996605,4.0,1.0,phase_1,,,,,,,,,,,,,blue,cross
207.0,7.0,2.0,1.0,1.0,1.0,252.0585570000548,4.0,1.0,phase_1,,,,,,,,,,,,,cyan,circle
395.0,8.0,4.0,1.0,1.0,1.0,274.6654780003155,4.0,1.0,phase_1,,,,,,,,,,,,,white,hexagon
212.0,7.0,2.0,1.0,4.0,4.0,288.8090839996948,4.0,1.0,phase_1,,,,,,,,,,,,,cyan,circle
198.0,7.0,2.0,1.0,2.0,2.0,287.3193109999192,4.0,1.0,phase_1,,,,,,,,,,,,,cyan,circle
200.0,7.0,2.0,1.0,4.0,4.0,313.1897999996909,4.0,1.0,phase_1,,,,,,,,,,,,,cyan,circle
377.0,4.0,4.0,0.0,4.0,4.0,322.2949020000669,4.0,1.0,phase_1,,,,,,,,,,,,,gray,I
60.0,1.0,0.5,0.0,3.0,3.0,295.4155400002491,4.0,1.0,phase_1,,,,,,,,,,,,,yellow,flipped triangle
425.0,8.0,4.0,1.0,1.0,1.0,304.3373089999477,4.0,1.0,phase_1,,,,,,,,,,,,,white,hexagon
399.0,8.0,4.0,1.0,1.0,1.0,296.0603860001356,4.0,1.0,phase_1,,,,,,,,,,,,,white,hexagon
90.0,2.0,1.0,0.0,4.0,4.0,453.8573760000872,4.0,1.0,phase_1,,,,,,,,,,,,,blue,cross
218.0,7.0,2.0,1.0,2.0,2.0,336.9262010000966,4.0,1.0,phase_1,,,,,,,,,,,,,cyan,circle
411.0,8.0,4.0,1.0,4.0,4.0,284.6651900003962,4.0,1.0,phase_1,,,,,,,,,,,,,white,hexagon
58.0,1.0,0.5,0.0,3.0,3.0,280.6615690001308,4.0,1.0,phase_1,,,,,,,,,,,,,yellow,flipped triangle
60.0,1.0,0.5,0.0,1.0,1.0,245.5919710000671,4.0,1.0,phase_1,,,,,,,,,,,,,yellow,flipped triangle
208.0,3.0,2.0,0.0,4.0,4.0,303.0132330000015,4.0,1.0,phase_1,,,,,,,,,,,,,magenta,square
0.0,2.0,0.0,0.0,1.0,1.0,285.1594119997571,4.0,1.0,phase_1,,,,,,,,,,,,,blue,cross
0.0,3.0,0.0,0.0,3.0,3.0,302.55815099963,4.0,1.0,phase_1,,,,,,,,,,,,,magenta,square
26.0,5.0,0.5,1.0,2.0,2.0,274.5492340000055,4.0,1.0,phase_1,,,,,,,,,,,,,green,triangle
0.0,3.0,0.0,0.0,2.0,2.0,257.923018999918,4.0,1.0,phase_1,,,,,,,,,,,,,magenta,square
423.0,4.0,4.0,0.0,3.0,3.0,315.715977000309,4.0,1.0,phase_1,,,,,,,,,,,,,gray,I
46.0,5.0,0.5,1.0,1.0,1.0,295.9188960003303,4.0,1.0,phase_1,,,,,,,,,,,,,green,triangle
202.0,3.0,2.0,0.0,2.0,2.0,295.6053960001554,4.0,1.0,phase_1,,,,,,,,,,,,,magenta,square
0.0,6.0,0.0,1.0,2.0,2.0,238.1998159999057,4.0,1.0,phase_1,,,,,,,,,,,,,orange,diamond
41.0,1.0,0.5,0.0,2.0,2.0,218.851819000065,4.0,1.0,phase_1,,,,,,,,,,,,,yellow,flipped triangle
212.0,7.0,2.0,1.0,4.0,4.0,294.2504020002161,4.0,1.0,phase_1,,,,,,,,,,,,,cyan,circle
194.0,3.0,2.0,0.0,4.0,4.0,285.7854080002653,4.0,1.0,phase_1,,,,,,,,,,,,,magenta,square
383.0,4.0,4.0,0.0,2.0,2.0,267.4598999997215,4.0,1.0,phase_1,,,,,,,,,,,,,gray,I
81.0,6.0,1.0,1.0,1.0,1.0,286.3252879997162,4.0,1.0,phase_1,,,,,,,,,,,,,orange,diamond
419.0,4.0,4.0,0.0,4.0,4.0,266.0960369998975,4.0,1.0,phase_1,,,,,,,,,,,,,gray,I
120.0,2.0,1.0,0.0,3.0,3.0,312.07551000034067,4.0,1.0,phase_1,,,,,,,,,,,,,blue,cross
93.0,6.0,1.0,1.0,4.0,4.0,294.2617280000377,4.0,1.0,phase_1,,,,,,,,,,,,,orange,diamond
0.0,8.0,0.0,1.0,3.0,3.0,269.66412000001577,4.0,1.0,phase_1,,,,,,,,,,,,,white,hexagon
28.0,1.0,0.5,0.0,3.0,3.0,288.017795000087,4.0,1.0,phase_1,,,,,,,,,,,,,yellow,flipped triangle
194.0,7.0,2.0,1.0,3.0,3.0,311.4548029998332,4.0,1.0,phase_1,,,,,,,,,,,,,cyan,circle
0.0,8.0,4.0,1.0,5.0,5.0,399.3437320000339,1.0,1.0,phase_2,stop,250.0,250.0,3.0,,,,,,,,,white,hexagon
0.0,7.0,2.0,1.0,5.0,5.0,283.449329999712,1.0,1.0,phase_2,stop,200.0,250.0,3.0,,,,,,,,,cyan,circle
0.0,4.0,4.0,0.0,5.0,5.0,419.0518660002453,1.0,1.0,phase_2,go,150.0,250.0,1.0,,,,,,,,,gray,I
0.0,8.0,4.0,1.0,5.0,5.0,324.4176239995795,1.0,1.0,phase_2,stop,150.0,250.0,3.0,,,,,,,,,white,hexagon
0.0,6.0,1.0,1.0,5.0,0.0,0.0,1.0,1.0,phase_2,stop,100.0,250.0,4.0,,,,,,,,,orange,diamond
0.0,3.0,2.0,0.0,6.0,6.0,381.6729569998642,1.0,1.0,phase_2,go,150.0,250.0,1.0,,,,,,,,,magenta,square
0.0,4.0,4.0,0.0,5.0,5.0,570.6383450005887,1.0,1.0,phase_2,go,150.0,250.0,1.0,,,,,,,,,gray,I
0.0,2.0,1.0,0.0,6.0,6.0,642.641557999923,1.0,1.0,phase_2,go,150.0,250.0,1.0,,,,,,,,,blue,cross
0.0,6.0,1.0,1.0,6.0,6.0,396.1758570003439,1.0,1.0,phase_2,go,150.0,250.0,1.0,,,,,,,,,orange,diamond
0.0,3.0,2.0,0.0,5.0,5.0,457.1025189998181,1.0,1.0,phase_2,go,150.0,250.0,1.0,,,,,,,,,magenta,square
0.0,4.0,4.0,0.0,6.0,6.0,279.8936720000711,1.0,1.0,phase_2,go,150.0,250.0,1.0,,,,,,,,,gray,I
0.0,5.0,0.5,1.0,6.0,6.0,359.1707590003352,1.0,1.0,phase_2,stop,150.0,250.0,3.0,,,,,,,,,green,triangle
0.0,2.0,1.0,0.0,6.0,6.0,418.3718650001538,1.0,1.0,phase_2,go,150.0,200.0,1.0,,,,,,,,,blue,cross
0.0,8.0,4.0,1.0,6.0,6.0,292.8714809995654,1.0,1.0,phase_2,stop,150.0,200.0,3.0,,,,,,,,,white,hexagon
0.0,7.0,2.0,1.0,5.0,0.0,0.0,1.0,1.0,phase_2,stop,150.0,150.0,4.0,,,,,,,,,cyan,circle
0.0,1.0,0.5,0.0,5.0,5.0,472.5651150001795,1.0,1.0,phase_2,go,200.0,150.0,1.0,,,,,,,,,yellow,flipped triangle
0.0,2.0,1.0,0.0,5.0,5.0,374.9199960002443,1.0,1.0,phase_2,go,200.0,150.0,1.0,,,,,,,,,blue,cross
0.0,2.0,1.0,0.0,6.0,6.0,564.3468990001566,1.0,1.0,phase_2,go,200.0,150.0,1.0,,,,,,,,,blue,cross
0.0,5.0,0.5,1.0,5.0,5.0,290.1441249996423,1.0,1.0,phase_2,stop,200.0,150.0,3.0,,,,,,,,,green,triangle
0.0,6.0,1.0,1.0,6.0,0.0,0.0,1.0,1.0,phase_2,stop,150.0,150.0,4.0,,,,,,,,,orange,diamond
0.0,6.0,1.0,1.0,6.0,6.0,535.8382539998274,1.0,1.0,phase_2,go,150.0,200.0,1.0,,,,,,,,,orange,diamond
0.0,6.0,1.0,1.0,5.0,0.0,0.0,1.0,1.0,phase_2,stop,150.0,200.0,4.0,,,,,,,,,orange,diamond
0.0,7.0,2.0,1.0,5.0,0.0,0.0,1.0,1.0,phase_2,stop,200.0,200.0,4.0,,,,,,,,,cyan,circle
0.0,1.0,0.5,0.0,5.0,5.0,407.8645259996847,1.0,1.0,phase_2,go,250.0,200.0,1.0,,,,,,,,,yellow,flipped triangle
0.0,7.0,2.0,1.0,5.0,5.0,553.7907930001893,1.0,1.0,phase_2,go,250.0,200.0,1.0,,,,,,,,,cyan,circle
0.0,5.0,0.5,1.0,5.0,0.0,0.0,1.0,1.0,phase_2,stop,250.0,200.0,4.0,,,,,,,,,green,triangle
0.0,5.0,0.5,1.0,6.0,6.0,467.3766220003017,1.0,1.0,phase_2,go,300.0,200.0,1.0,,,,,,,,,green,triangle
0.0,3.0,2.0,0.0,5.0,5.0,442.713738000748,1.0,1.0,phase_2,go,300.0,200.0,1.0,,,,,,,,,magenta,square
0.0,4.0,4.0,0.0,6.0,6.0,488.5664600005839,1.0,1.0,phase_2,go,300.0,200.0,1.0,,,,,,,,,gray,I
0.0,5.0,0.5,1.0,6.0,0.0,0.0,1.0,1.0,phase_2,stop,300.0,200.0,4.0,,,,,,,,,green,triangle
0.0,7.0,2.0,1.0,6.0,0.0,0.0,1.0,1.0,phase_2,stop,300.0,250.0,4.0,,,,,,,,,cyan,circle
0.0,8.0,4.0,1.0,5.0,0.0,0.0,1.0,1.0,phase_2,stop,300.0,300.0,4.0,,,,,,,,,white,hexagon
0.0,1.0,0.5,0.0,6.0,6.0,505.05481099935423,1.0,1.0,phase_2,go,350.0,300.0,1.0,,,,,,,,,yellow,flipped triangle
0.0,6.0,1.0,1.0,6.0,0.0,0.0,1.0,1.0,phase_2,stop,350.0,300.0,4.0,,,,,,,,,orange,diamond
0.0,7.0,2.0,1.0,5.0,5.0,548.391033000371,1.0,1.0,phase_2,stop,350.0,350.0,3.0,,,,,,,,,cyan,circle
0.0,7.0,2.0,1.0,6.0,6.0,579.541834000338,1.0,1.0,phase_2,go,300.0,350.0,1.0,,,,,,,,,cyan,circle
0.0,3.0,2.0,0.0,6.0,0.0,0.0,2.0,1.0,phase_2,go,300.0,350.0,5.0,,,,,,,,,magenta,square
0.0,1.0,0.5,0.0,5.0,5.0,436.8103710003197,2.0,1.0,phase_2,go,300.0,350.0,1.0,,,,,,,,,yellow,flipped triangle
0.0,6.0,1.0,1.0,5.0,0.0,0.0,2.0,1.0,phase_2,stop,300.0,350.0,4.0,,,,,,,,,orange,diamond
0.0,3.0,2.0,0.0,6.0,6.0,550.8639720001156,2.0,1.0,phase_2,go,350.0,350.0,1.0,,,,,,,,,magenta,square
0.0,4.0,4.0,0.0,5.0,5.0,510.24418900033197,2.0,1.0,phase_2,go,350.0,350.0,1.0,,,,,,,,,gray,I
0.0,8.0,4.0,1.0,6.0,0.0,0.0,2.0,1.0,phase_2,stop,350.0,350.0,4.0,,,,,,,,,white,hexagon
0.0,4.0,4.0,0.0,5.0,5.0,650.7954409999002,2.0,1.0,phase_2,go,350.0,400.0,1.0,,,,,,,,,gray,I
0.0,7.0,2.0,1.0,5.0,0.0,0.0,2.0,1.0,phase_2,stop,350.0,400.0,4.0,,,,,,,,,cyan,circle
0.0,8.0,4.0,1.0,5.0,5.0,543.0076249995182,2.0,1.0,phase_2,stop,400.0,400.0,3.0,,,,,,,,,white,hexagon
0.0,3.0,2.0,0.0,5.0,5.0,631.1564610005007,2.0,1.0,phase_2,go,350.0,400.0,1.0,,,,,,,,,magenta,square
0.0,2.0,1.0,0.0,5.0,5.0,542.8340349999417,2.0,1.0,phase_2,go,350.0,400.0,1.0,,,,,,,,,blue,cross
0.0,2.0,1.0,0.0,5.0,5.0,710.7683479998741,2.0,1.0,phase_2,go,350.0,400.0,1.0,,,,,,,,,blue,cross
0.0,6.0,1.0,1.0,6.0,0.0,0.0,2.0,1.0,phase_2,stop,350.0,400.0,4.0,,,,,,,,,orange,diamond
0.0,3.0,2.0,0.0,6.0,6.0,724.0585319996171,2.0,1.0,phase_2,go,350.0,450.0,1.0,,,,,,,,,magenta,square
0.0,1.0,0.5,0.0,6.0,6.0,567.1037049996812,2.0,1.0,phase_2,go,350.0,450.0,1.0,,,,,,,,,yellow,flipped triangle
0.0,3.0,2.0,0.0,6.0,6.0,622.6922720006769,2.0,1.0,phase_2,go,350.0,450.0,1.0,,,,,,,,,magenta,square
0.0,2.0,1.0,0.0,6.0,6.0,488.3492130002196,2.0,1.0,phase_2,go,350.0,450.0,1.0,,,,,,,,,blue,cross
0.0,2.0,1.0,0.0,6.0,6.0,442.8512519998548,2.0,1.0,phase_2,go,350.0,450.0,1.0,,,,,,,,,blue,cross
0.0,1.0,0.5,0.0,5.0,5.0,409.8012220001692,2.0,1.0,phase_2,go,350.0,450.0,1.0,,,,,,,,,yellow,flipped triangle
0.0,8.0,4.0,1.0,6.0,6.0,328.6228429997209,2.0,1.0,phase_2,stop,350.0,450.0,3.0,,,,,,,,,white,hexagon
0.0,3.0,2.0,0.0,6.0,6.0,541.4627669997572,2.0,1.0,phase_2,go,350.0,400.0,1.0,,,,,,,,,magenta,square
0.0,4.0,4.0,0.0,5.0,5.0,360.4410800007827,2.0,1.0,phase_2,go,350.0,400.0,1.0,,,,,,,,,gray,I
0.0,5.0,0.5,1.0,6.0,0.0,0.0,2.0,1.0,phase_2,stop,350.0,400.0,4.0,,,,,,,,,green,triangle
0.0,5.0,0.5,1.0,6.0,6.0,424.8587459996997,2.0,1.0,phase_2,stop,350.0,450.0,3.0,,,,,,,,,green,triangle
0.0,5.0,0.5,1.0,6.0,0.0,0.0,2.0,1.0,phase_2,stop,350.0,400.0,4.0,,,,,,,,,green,triangle
0.0,2.0,1.0,0.0,5.0,5.0,505.0312480007051,2.0,1.0,phase_2,go,350.0,450.0,1.0,,,,,,,,,blue,cross
0.0,4.0,4.0,0.0,5.0,5.0,389.2563230001542,2.0,1.0,phase_2,go,350.0,450.0,1.0,,,,,,,,,gray,I
0.0,5.0,0.5,1.0,5.0,5.0,322.2129850000783,2.0,1.0,phase_2,stop,350.0,450.0,3.0,,,,,,,,,green,triangle
0.0,3.0,2.0,0.0,5.0,5.0,569.8881460002667,2.0,1.0,phase_2,go,300.0,450.0,1.0,,,,,,,,,magenta,square
0.0,7.0,2.0,1.0,5.0,0.0,0.0,2.0,1.0,phase_2,stop,300.0,450.0,4.0,,,,,,,,,cyan,circle
0.0,3.0,2.0,0.0,5.0,5.0,653.828194000198,2.0,1.0,phase_2,go,350.0,450.0,1.0,,,,,,,,,magenta,square
0.0,6.0,1.0,1.0,5.0,5.0,386.6034259999651,2.0,1.0,phase_2,stop,350.0,450.0,3.0,,,,,,,,,orange,diamond
0.0,8.0,4.0,1.0,6.0,0.0,0.0,2.0,1.0,phase_2,stop,300.0,450.0,4.0,,,,,,,,,white,hexagon
0.0,8.0,4.0,1.0,6.0,6.0,460.5915660004029,2.0,1.0,phase_2,stop,300.0,500.0,3.0,,,,,,,,,white,hexagon
0.0,1.0,0.5,0.0,5.0,5.0,317.2820359995967,2.0,1.0,phase_2,go,300.0,450.0,1.0,,,,,,,,,yellow,flipped triangle
0.0,1.0,0.5,0.0,5.0,5.0,327.5919329998942,2.0,1.0,phase_2,go,300.0,450.0,1.0,,,,,,,,,yellow,flipped triangle
0.0,2.0,1.0,0.0,5.0,5.0,870.0427230005516,3.0,1.0,phase_2,go,300.0,450.0,1.0,,,,,,,,,blue,cross
0.0,2.0,1.0,0.0,5.0,5.0,331.4194839995252,3.0,1.0,phase_2,go,300.0,450.0,1.0,,,,,,,,,blue,cross
0.0,4.0,4.0,0.0,6.0,6.0,612.8112079995844,3.0,1.0,phase_2,go,300.0,450.0,1.0,,,,,,,,,gray,I
0.0,5.0,0.5,1.0,6.0,6.0,347.9924499997651,3.0,1.0,phase_2,stop,300.0,450.0,3.0,,,,,,,,,green,triangle
0.0,3.0,2.0,0.0,6.0,6.0,497.9951579998669,3.0,1.0,phase_2,go,300.0,400.0,1.0,,,,,,,,,magenta,square
0.0,2.0,1.0,0.0,5.0,5.0,249.2932109998946,3.0,1.0,phase_2,go,300.0,400.0,1.0,,,,,,,,,blue,cross
0.0,6.0,1.0,1.0,5.0,0.0,0.0,3.0,1.0,phase_2,stop,300.0,400.0,4.0,,,,,,,,,orange,diamond
0.0,5.0,0.5,1.0,6.0,6.0,322.840451999582,3.0,1.0,phase_2,stop,350.0,400.0,3.0,,,,,,,,,green,triangle
0.0,2.0,1.0,0.0,6.0,6.0,312.4618499996359,3.0,1.0,phase_2,go,350.0,350.0,1.0,,,,,,,,,blue,cross
0.0,4.0,4.0,0.0,6.0,6.0,316.0568280000007,3.0,1.0,phase_2,go,350.0,350.0,1.0,,,,,,,,,gray,I
0.0,6.0,1.0,1.0,5.0,5.0,297.3595539997404,3.0,1.0,phase_2,stop,350.0,350.0,3.0,,,,,,,,,orange,diamond
0.0,7.0,2.0,1.0,6.0,6.0,273.9538910000192,3.0,1.0,phase_2,stop,300.0,350.0,3.0,,,,,,,,,cyan,circle
0.0,1.0,0.5,0.0,6.0,6.0,470.4863320002914,3.0,1.0,phase_2,go,300.0,300.0,1.0,,,,,,,,,yellow,flipped triangle
0.0,2.0,1.0,0.0,5.0,5.0,645.3714369999943,3.0,1.0,phase_2,go,300.0,300.0,1.0,,,,,,,,,blue,cross
0.0,6.0,1.0,1.0,5.0,0.0,0.0,3.0,1.0,phase_2,stop,300.0,300.0,4.0,,,,,,,,,orange,diamond
0.0,2.0,1.0,0.0,6.0,6.0,602.1907579997787,3.0,1.0,phase_2,go,350.0,300.0,1.0,,,,,,,,,blue,cross
0.0,2.0,1.0,0.0,6.0,6.0,357.5596050004606,3.0,1.0,phase_2,go,350.0,300.0,1.0,,,,,,,,,blue,cross
0.0,4.0,4.0,0.0,5.0,5.0,304.2330520001997,3.0,1.0,phase_2,go,350.0,300.0,1.0,,,,,,,,,gray,I
0.0,7.0,2.0,1.0,6.0,6.0,250.9062330000233,3.0,1.0,phase_2,stop,350.0,300.0,3.0,,,,,,,,,cyan,circle
0.0,6.0,1.0,1.0,5.0,5.0,515.0531420003972,3.0,1.0,phase_2,go,350.0,250.0,1.0,,,,,,,,,orange,diamond
0.0,8.0,4.0,1.0,6.0,6.0,379.5763380003336,3.0,1.0,phase_2,stop,350.0,250.0,3.0,,,,,,,,,white,hexagon
0.0,3.0,2.0,0.0,5.0,5.0,381.1132890004955,3.0,1.0,phase_2,go,350.0,200.0,1.0,,,,,,,,,magenta,square
0.0,3.0,2.0,0.0,6.0,6.0,816.5831599999365,3.0,1.0,phase_2,go,350.0,200.0,1.0,,,,,,,,,magenta,square
0.0,1.0,0.5,0.0,6.0,6.0,507.6819810001325,3.0,1.0,phase_2,go,350.0,200.0,1.0,,,,,,,,,yellow,flipped triangle
0.0,4.0,4.0,0.0,6.0,6.0,288.4106070005146,3.0,1.0,phase_2,go,350.0,200.0,1.0,,,,,,,,,gray,I
0.0,5.0,0.5,1.0,5.0,5.0,361.5078510001694,3.0,1.0,phase_2,go,350.0,200.0,1.0,,,,,,,,,green,triangle
0.0,3.0,2.0,0.0,5.0,5.0,301.9304859999465,3.0,1.0,phase_2,go,350.0,200.0,1.0,,,,,,,,,magenta,square
0.0,4.0,4.0,0.0,5.0,5.0,351.6389460000937,3.0,1.0,phase_2,go,350.0,200.0,1.0,,,,,,,,,gray,I
0.0,7.0,2.0,1.0,6.0,0.0,0.0,3.0,1.0,phase_2,stop,350.0,200.0,4.0,,,,,,,,,cyan,circle
0.0,7.0,2.0,1.0,6.0,0.0,0.0,3.0,1.0,phase_2,stop,350.0,250.0,4.0,,,,,,,,,cyan,circle
0.0,2.0,1.0,0.0,5.0,5.0,419.5794209999803,3.0,1.0,phase_2,go,350.0,300.0,1.0,,,,,,,,,blue,cross
0.0,7.0,2.0,1.0,5.0,0.0,0.0,3.0,1.0,phase_2,stop,350.0,300.0,4.0,,,,,,,,,cyan,circle
0.0,2.0,1.0,0.0,6.0,6.0,497.2258249999868,3.0,1.0,phase_2,go,400.0,300.0,1.0,,,,,,,,,blue,cross
0.0,4.0,4.0,0.0,6.0,6.0,465.2296260001094,3.0,1.0,phase_2,go,400.0,300.0,1.0,,,,,,,,,gray,I
0.0,7.0,2.0,1.0,6.0,6.0,394.9677419996078,3.0,1.0,phase_2,stop,400.0,300.0,3.0,,,,,,,,,cyan,circle
0.0,3.0,2.0,0.0,5.0,5.0,539.902694000375,3.0,1.0,phase_2,go,400.0,250.0,1.0,,,,,,,,,magenta,square
0.0,4.0,4.0,0.0,6.0,6.0,286.985428000662,4.0,1.0,phase_2,go,400.0,250.0,1.0,,,,,,,,,gray,I
0.0,7.0,2.0,1.0,6.0,6.0,349.6458019999409,4.0,1.0,phase_2,stop,400.0,250.0,3.0,,,,,,,,,cyan,circle
0.0,2.0,1.0,0.0,5.0,5.0,389.7961430002397,4.0,1.0,phase_2,go,400.0,200.0,1.0,,,,,,,,,blue,cross
0.0,8.0,4.0,1.0,5.0,5.0,465.58246999939,4.0,1.0,phase_2,go,400.0,200.0,1.0,,,,,,,,,white,hexagon
0.0,8.0,4.0,1.0,6.0,0.0,0.0,4.0,1.0,phase_2,stop,400.0,200.0,4.0,,,,,,,,,white,hexagon
0.0,1.0,0.5,0.0,5.0,5.0,502.81176200041955,4.0,1.0,phase_2,go,400.0,250.0,1.0,,,,,,,,,yellow,flipped triangle
0.0,1.0,0.5,0.0,6.0,6.0,465.3062079996743,4.0,1.0,phase_2,go,400.0,250.0,1.0,,,,,,,,,yellow,flipped triangle
0.0,1.0,0.5,0.0,6.0,6.0,377.3594989997946,4.0,1.0,phase_2,go,400.0,250.0,1.0,,,,,,,,,yellow,flipped triangle
0.0,7.0,2.0,1.0,6.0,6.0,322.2281089992975,4.0,1.0,phase_2,stop,400.0,250.0,3.0,,,,,,,,,cyan,circle
0.0,1.0,0.5,0.0,6.0,6.0,390.3958359996977,4.0,1.0,phase_2,go,400.0,200.0,1.0,,,,,,,,,yellow,flipped triangle
0.0,7.0,2.0,1.0,6.0,6.0,318.1987120005942,4.0,1.0,phase_2,stop,400.0,200.0,3.0,,,,,,,,,cyan,circle
0.0,4.0,4.0,0.0,6.0,6.0,417.1316859992657,4.0,1.0,phase_2,go,400.0,150.0,1.0,,,,,,,,,gray,I
0.0,8.0,4.0,1.0,6.0,0.0,0.0,4.0,1.0,phase_2,stop,400.0,150.0,4.0,,,,,,,,,white,hexagon
0.0,4.0,4.0,0.0,5.0,5.0,377.5372810005137,4.0,1.0,phase_2,go,400.0,200.0,1.0,,,,,,,,,gray,I
0.0,8.0,4.0,1.0,5.0,5.0,489.1455110000606,4.0,1.0,phase_2,stop,400.0,200.0,3.0,,,,,,,,,white,hexagon
0.0,5.0,0.5,1.0,5.0,5.0,431.3577840002836,4.0,1.0,phase_2,stop,350.0,200.0,3.0,,,,,,,,,green,triangle
0.0,1.0,0.5,0.0,6.0,6.0,574.7737950005103,4.0,1.0,phase_2,go,300.0,200.0,1.0,,,,,,,,,yellow,flipped triangle
0.0,7.0,2.0,1.0,5.0,0.0,0.0,4.0,1.0,phase_2,stop,300.0,200.0,4.0,,,,,,,,,cyan,circle
0.0,6.0,1.0,1.0,6.0,6.0,503.5964120006611,4.0,1.0,phase_2,go,350.0,200.0,1.0,,,,,,,,,orange,diamond
0.0,8.0,4.0,1.0,5.0,5.0,430.7125280001855,4.0,1.0,phase_2,stop,350.0,200.0,3.0,,,,,,,,,white,hexagon
0.0,7.0,2.0,1.0,5.0,5.0,645.5369860004794,4.0,1.0,phase_2,go,300.0,200.0,1.0,,,,,,,,,cyan,circle
0.0,5.0,0.5,1.0,5.0,5.0,577.3838400000386,4.0,1.0,phase_2,go,300.0,200.0,1.0,,,,,,,,,green,triangle
0.0,2.0,1.0,0.0,5.0,5.0,334.2593709994617,4.0,1.0,phase_2,go,300.0,200.0,1.0,,,,,,,,,blue,cross
0.0,5.0,0.5,1.0,6.0,0.0,0.0,4.0,1.0,phase_2,stop,300.0,200.0,4.0,,,,,,,,,green,triangle
0.0,5.0,0.5,1.0,5.0,5.0,565.2208129995415,4.0,1.0,phase_2,go,300.0,250.0,1.0,,,,,,,,,green,triangle
0.0,8.0,4.0,1.0,6.0,0.0,0.0,4.0,1.0,phase_2,stop,300.0,250.0,4.0,,,,,,,,,white,hexagon
0.0,4.0,4.0,0.0,5.0,5.0,538.9114090003204,4.0,1.0,phase_2,go,300.0,300.0,1.0,,,,,,,,,gray,I
0.0,2.0,1.0,0.0,5.0,5.0,500.891448999937,4.0,1.0,phase_2,go,300.0,300.0,1.0,,,,,,,,,blue,cross
0.0,5.0,0.5,1.0,6.0,0.0,0.0,4.0,1.0,phase_2,stop,300.0,300.0,4.0,,,,,,,,,green,triangle
0.0,4.0,4.0,0.0,6.0,6.0,542.7695719999974,4.0,1.0,phase_2,go,300.0,350.0,1.0,,,,,,,,,gray,I
0.0,4.0,4.0,0.0,5.0,5.0,427.404884999305,4.0,1.0,phase_2,go,300.0,350.0,1.0,,,,,,,,,gray,I
0.0,2.0,1.0,0.0,6.0,6.0,420.06067300008,4.0,1.0,phase_2,go,300.0,350.0,1.0,,,,,,,,,blue,cross
0.0,5.0,0.5,1.0,5.0,5.0,298.2999750001909,4.0,1.0,phase_2,stop,300.0,350.0,3.0,,,,,,,,,green,triangle
0.0,3.0,2.0,0.0,6.0,6.0,471.4201799997681,4.0,1.0,phase_2,go,250.0,350.0,1.0,,,,,,,,,magenta,square
0.0,8.0,4.0,1.0,5.0,5.0,345.1000499999281,4.0,1.0,phase_2,go,250.0,350.0,1.0,,,,,,,,,white,hexagon
0.0,4.0,4.0,0.0,6.0,6.0,552.5076800004172,4.0,1.0,phase_2,go,250.0,350.0,1.0,,,,,,,,,gray,I
0.0,2.0,1.0,0.0,5.0,5.0,321.3055730002452,5.0,1.0,phase_2,go,250.0,350.0,1.0,,,,,,,,,blue,cross
0.0,4.0,4.0,0.0,5.0,5.0,468.0424260004656,5.0,1.0,phase_2,go,250.0,350.0,1.0,,,,,,,,,gray,I
0.0,3.0,2.0,0.0,5.0,5.0,400.2757199996267,5.0,1.0,phase_2,go,250.0,350.0,1.0,,,,,,,,,magenta,square
0.0,8.0,4.0,1.0,6.0,6.0,595.4777540000578,5.0,1.0,phase_2,go,250.0,350.0,1.0,,,,,,,,,white,hexagon
0.0,4.0,4.0,0.0,6.0,6.0,542.8443330001755,5.0,1.0,phase_2,go,250.0,350.0,1.0,,,,,,,,,gray,I
0.0,6.0,1.0,1.0,6.0,6.0,487.2932959997342,5.0,1.0,phase_2,stop,250.0,350.0,3.0,,,,,,,,,orange,diamond
0.0,5.0,0.5,1.0,6.0,6.0,455.7511509992764,5.0,1.0,phase_2,go,250.0,300.0,1.0,,,,,,,,,green,triangle
0.0,8.0,4.0,1.0,6.0,6.0,320.8411550003802,5.0,1.0,phase_2,go,250.0,300.0,1.0,,,,,,,,,white,hexagon
0.0,3.0,2.0,0.0,5.0,5.0,434.940333000668,5.0,1.0,phase_2,go,250.0,300.0,1.0,,,,,,,,,magenta,square
0.0,8.0,4.0,1.0,5.0,0.0,0.0,5.0,1.0,phase_2,stop,250.0,300.0,4.0,,,,,,,,,white,hexagon
0.0,7.0,2.0,1.0,5.0,5.0,520.0374820005891,5.0,1.0,phase_2,go,300.0,300.0,1.0,,,,,,,,,cyan,circle
0.0,1.0,0.5,0.0,5.0,5.0,493.9160799995079,5.0,1.0,phase_2,go,300.0,300.0,1.0,,,,,,,,,yellow,flipped triangle
0.0,7.0,2.0,1.0,6.0,6.0,345.2007349997075,5.0,1.0,phase_2,stop,300.0,300.0,3.0,,,,,,,,,cyan,circle
0.0,1.0,0.5,0.0,5.0,5.0,372.3935309999433,5.0,1.0,phase_2,go,300.0,250.0,1.0,,,,,,,,,yellow,flipped triangle
0.0,5.0,0.5,1.0,5.0,5.0,598.3436559999973,5.0,1.0,phase_2,go,300.0,250.0,1.0,,,,,,,,,green,triangle
0.0,8.0,4.0,1.0,5.0,0.0,0.0,5.0,1.0,phase_2,stop,300.0,250.0,4.0,,,,,,,,,white,hexagon
0.0,6.0,1.0,1.0,5.0,5.0,395.3563449995272,5.0,1.0,phase_2,stop,350.0,250.0,3.0,,,,,,,,,orange,diamond
0.0,2.0,1.0,0.0,6.0,6.0,512.9963520003002,5.0,1.0,phase_2,go,300.0,250.0,1.0,,,,,,,,,blue,cross
0.0,4.0,4.0,0.0,6.0,6.0,422.5647530001879,5.0,1.0,phase_2,go,300.0,250.0,1.0,,,,,,,,,gray,I
0.0,5.0,0.5,1.0,6.0,0.0,0.0,5.0,1.0,phase_2,stop,300.0,250.0,4.0,,,,,,,,,green,triangle
0.0,5.0,0.5,1.0,5.0,0.0,0.0,5.0,1.0,phase_2,stop,300.0,300.0,4.0,,,,,,,,,green,triangle
0.0,6.0,1.0,1.0,5.0,5.0,725.4152759996941,5.0,1.0,phase_2,go,350.0,300.0,1.0,,,,,,,,,orange,diamond
0.0,3.0,2.0,0.0,5.0,5.0,576.9386620004298,5.0,1.0,phase_2,go,350.0,300.0,1.0,,,,,,,,,magenta,square
0.0,6.0,1.0,1.0,6.0,0.0,0.0,5.0,1.0,phase_2,stop,350.0,300.0,4.0,,,,,,,,,orange,diamond
0.0,7.0,2.0,1.0,6.0,0.0,0.0,5.0,1.0,phase_2,stop,350.0,350.0,4.0,,,,,,,,,cyan,circle
0.0,6.0,1.0,1.0,6.0,6.0,568.2211699995605,5.0,1.0,phase_2,go,350.0,400.0,1.0,,,,,,,,,orange,diamond
0.0,8.0,4.0,1.0,5.0,0.0,0.0,5.0,1.0,phase_2,stop,350.0,400.0,4.0,,,,,,,,,white,hexagon
0.0,6.0,1.0,1.0,5.0,0.0,0.0,5.0,1.0,phase_2,stop,400.0,400.0,4.0,,,,,,,,,orange,diamond
0.0,1.0,0.5,0.0,6.0,6.0,791.7313410007409,5.0,1.0,phase_2,go,450.0,400.0,1.0,,,,,,,,,yellow,flipped triangle
0.0,6.0,1.0,1.0,6.0,0.0,0.0,5.0,1.0,phase_2,stop,450.0,400.0,4.0,,,,,,,,,orange,diamond
0.0,3.0,2.0,0.0,5.0,5.0,551.9679950002683,5.0,1.0,phase_2,go,450.0,450.0,1.0,,,,,,,,,magenta,square
0.0,5.0,0.5,1.0,5.0,5.0,684.7205730000496,5.0,1.0,phase_2,go,450.0,450.0,1.0,,,,,,,,,green,triangle
0.0,1.0,0.5,0.0,6.0,6.0,495.5393330001243,5.0,1.0,phase_2,go,450.0,450.0,1.0,,,,,,,,,yellow,flipped triangle
0.0,5.0,0.5,1.0,6.0,0.0,0.0,5.0,1.0,phase_2,stop,450.0,450.0,4.0,,,,,,,,,green,triangle
0.0,6.0,1.0,1.0,6.0,6.0,596.653415000219,5.0,1.0,phase_2,stop,450.0,500.0,3.0,,,,,,,,,orange,diamond
0.0,5.0,0.5,1.0,6.0,6.0,590.8987019993219,5.0,1.0,phase_2,stop,450.0,450.0,3.0,,,,,,,,,green,triangle
0.0,4.0,4.0,0.0,6.0,6.0,376.9817390002572,6.0,1.0,phase_2,go,450.0,400.0,1.0,,,,,,,,,gray,I
0.0,7.0,2.0,1.0,5.0,5.0,297.965113999453,6.0,1.0,phase_2,stop,450.0,400.0,3.0,,,,,,,,,cyan,circle
0.0,6.0,1.0,1.0,5.0,5.0,226.8673660000786,6.0,1.0,phase_2,stop,400.0,400.0,3.0,,,,,,,,,orange,diamond
0.0,3.0,2.0,0.0,6.0,6.0,337.076677999903,6.0,1.0,phase_2,go,350.0,400.0,1.0,,,,,,,,,magenta,square
0.0,7.0,2.0,1.0,5.0,5.0,540.6578270003592,6.0,1.0,phase_2,go,350.0,400.0,1.0,,,,,,,,,cyan,circle
0.0,3.0,2.0,0.0,5.0,5.0,303.8088920002337,6.0,1.0,phase_2,go,350.0,400.0,1.0,,,,,,,,,magenta,square
0.0,8.0,4.0,1.0,5.0,5.0,411.6734139997788,6.0,1.0,phase_2,go,350.0,400.0,1.0,,,,,,,,,white,hexagon
0.0,5.0,0.5,1.0,6.0,6.0,277.2541030008142,6.0,1.0,phase_2,stop,350.0,400.0,3.0,,,,,,,,,green,triangle
0.0,7.0,2.0,1.0,6.0,6.0,472.9856449994258,6.0,1.0,phase_2,stop,350.0,350.0,3.0,,,,,,,,,cyan,circle
0.0,3.0,2.0,0.0,6.0,6.0,419.7909739996248,6.0,1.0,phase_2,go,350.0,300.0,1.0,,,,,,,,,magenta,square
0.0,1.0,0.5,0.0,5.0,5.0,477.2175719999723,6.0,1.0,phase_2,go,350.0,300.0,1.0,,,,,,,,,yellow,flipped triangle
0.0,7.0,2.0,1.0,6.0,6.0,388.6456359996373,6.0,1.0,phase_2,go,350.0,300.0,1.0,,,,,,,,,cyan,circle
0.0,2.0,1.0,0.0,5.0,5.0,381.3887839996823,6.0,1.0,phase_2,go,350.0,300.0,1.0,,,,,,,,,blue,cross
0.0,1.0,0.5,0.0,6.0,6.0,464.989809999679,6.0,1.0,phase_2,go,350.0,300.0,1.0,,,,,,,,,yellow,flipped triangle
0.0,7.0,2.0,1.0,5.0,5.0,265.3753610002241,6.0,1.0,phase_2,stop,350.0,300.0,3.0,,,,,,,,,cyan,circle
0.0,1.0,0.5,0.0,6.0,6.0,417.6887999992686,6.0,1.0,phase_2,go,300.0,300.0,1.0,,,,,,,,,yellow,flipped triangle
0.0,4.0,4.0,0.0,6.0,6.0,365.2084889999969,6.0,1.0,phase_2,go,300.0,300.0,1.0,,,,,,,,,gray,I
0.0,1.0,0.5,0.0,5.0,5.0,336.2905829999363,6.0,1.0,phase_2,go,300.0,300.0,1.0,,,,,,,,,yellow,flipped triangle
0.0,4.0,4.0,0.0,5.0,5.0,343.4729020000304,6.0,1.0,phase_2,go,300.0,300.0,1.0,,,,,,,,,gray,I
0.0,1.0,0.5,0.0,6.0,6.0,302.8645570002481,6.0,1.0,phase_2,go,300.0,300.0,1.0,,,,,,,,,yellow,flipped triangle
0.0,6.0,1.0,1.0,5.0,0.0,0.0,6.0,1.0,phase_2,stop,300.0,300.0,4.0,,,,,,,,,orange,diamond
0.0,6.0,1.0,1.0,5.0,5.0,539.4622869998784,6.0,1.0,phase_2,go,350.0,300.0,1.0,,,,,,,,,orange,diamond
0.0,6.0,1.0,1.0,6.0,6.0,476.4625620000515,6.0,1.0,phase_2,go,350.0,300.0,1.0,,,,,,,,,orange,diamond
0.0,5.0,0.5,1.0,5.0,5.0,334.1776220004249,6.0,1.0,phase_2,stop,350.0,300.0,3.0,,,,,,,,,green,triangle
0.0,7.0,2.0,1.0,6.0,6.0,272.5631509993036,6.0,1.0,phase_2,stop,300.0,300.0,3.0,,,,,,,,,cyan,circle
0.0,1.0,0.5,0.0,6.0,6.0,326.6686279994246,6.0,1.0,phase_2,go,300.0,250.0,1.0,,,,,,,,,yellow,flipped triangle
0.0,7.0,2.0,1.0,5.0,0.0,0.0,6.0,1.0,phase_2,stop,300.0,250.0,4.0,,,,,,,,,cyan,circle
0.0,7.0,2.0,1.0,6.0,0.0,0.0,6.0,1.0,phase_2,stop,350.0,250.0,4.0,,,,,,,,,cyan,circle
0.0,1.0,0.5,0.0,5.0,5.0,483.5635279996495,6.0,1.0,phase_2,go,350.0,300.0,1.0,,,,,,,,,yellow,flipped triangle
0.0,3.0,2.0,0.0,5.0,5.0,325.1002970000627,6.0,1.0,phase_2,go,350.0,300.0,1.0,,,,,,,,,magenta,square
0.0,3.0,2.0,0.0,5.0,5.0,622.3898460002601,6.0,1.0,phase_2,go,350.0,300.0,1.0,,,,,,,,,magenta,square
0.0,1.0,0.5,0.0,6.0,6.0,354.4817639995017,6.0,1.0,phase_2,go,350.0,300.0,1.0,,,,,,,,,yellow,flipped triangle
0.0,2.0,1.0,0.0,6.0,6.0,419.4230699995387,6.0,1.0,phase_2,go,350.0,300.0,1.0,,,,,,,,,blue,cross
0.0,1.0,0.5,0.0,5.0,5.0,353.8308679999318,6.0,1.0,phase_2,go,350.0,300.0,1.0,,,,,,,,,yellow,flipped triangle
0.0,7.0,2.0,1.0,6.0,6.0,386.5744959994117,6.0,1.0,phase_2,go,350.0,300.0,1.0,,,,,,,,,cyan,circle
0.0,6.0,1.0,1.0,6.0,0.0,0.0,6.0,1.0,phase_2,stop,350.0,300.0,4.0,,,,,,,,,orange,diamond
0.0,6.0,1.0,1.0,6.0,6.0,312.3715849997097,7.0,1.0,phase_2,stop,350.0,350.0,3.0,,,,,,,,,orange,diamond
0.0,6.0,1.0,1.0,5.0,5.0,450.3397359994778,7.0,1.0,phase_2,stop,350.0,300.0,3.0,,,,,,,,,orange,diamond
0.0,4.0,4.0,0.0,6.0,6.0,465.129588000309,7.0,1.0,phase_2,go,300.0,300.0,1.0,,,,,,,,,gray,I
0.0,5.0,0.5,1.0,6.0,6.0,377.6928710003631,7.0,1.0,phase_2,stop,300.0,300.0,3.0,,,,,,,,,green,triangle
0.0,5.0,0.5,1.0,5.0,0.0,0.0,7.0,1.0,phase_2,stop,300.0,250.0,4.0,,,,,,,,,green,triangle
0.0,8.0,4.0,1.0,6.0,0.0,0.0,7.0,1.0,phase_2,stop,350.0,250.0,4.0,,,,,,,,,white,hexagon
0.0,8.0,4.0,1.0,6.0,6.0,649.353030000384,7.0,1.0,phase_2,go,350.0,300.0,1.0,,,,,,,,,white,hexagon
0.0,4.0,4.0,0.0,5.0,5.0,408.9985440004966,7.0,1.0,phase_2,go,350.0,300.0,1.0,,,,,,,,,gray,I
0.0,8.0,4.0,1.0,6.0,0.0,0.0,7.0,1.0,phase_2,stop,350.0,300.0,4.0,,,,,,,,,white,hexagon
0.0,6.0,1.0,1.0,6.0,6.0,462.2147489999406,7.0,1.0,phase_2,stop,350.0,350.0,3.0,,,,,,,,,orange,diamond
0.0,4.0,4.0,0.0,5.0,5.0,400.7318610001675,7.0,1.0,phase_2,go,350.0,300.0,1.0,,,,,,,,,gray,I
0.0,5.0,0.5,1.0,5.0,0.0,0.0,7.0,1.0,phase_2,stop,350.0,300.0,4.0,,,,,,,,,green,triangle
0.0,6.0,1.0,1.0,5.0,5.0,510.2668330000597,7.0,1.0,phase_2,stop,400.0,300.0,3.0,,,,,,,,,orange,diamond
0.0,4.0,4.0,0.0,6.0,6.0,533.9638770001329,7.0,1.0,phase_2,go,350.0,300.0,1.0,,,,,,,,,gray,I
0.0,7.0,2.0,1.0,5.0,5.0,562.3621309996452,7.0,1.0,phase_2,go,350.0,300.0,1.0,,,,,,,,,cyan,circle
0.0,4.0,4.0,0.0,5.0,5.0,506.88541700037604,7.0,1.0,phase_2,go,350.0,300.0,1.0,,,,,,,,,gray,I
0.0,8.0,4.0,1.0,6.0,6.0,476.5505989998928,7.0,1.0,phase_2,stop,350.0,300.0,3.0,,,,,,,,,white,hexagon
0.0,8.0,4.0,1.0,6.0,0.0,0.0,7.0,1.0,phase_2,stop,350.0,250.0,4.0,,,,,,,,,white,hexagon
0.0,4.0,4.0,0.0,6.0,6.0,531.2121950000801,7.0,1.0,phase_2,go,350.0,300.0,1.0,,,,,,,,,gray,I
0.0,5.0,0.5,1.0,5.0,0.0,0.0,7.0,1.0,phase_2,stop,350.0,300.0,4.0,,,,,,,,,green,triangle
0.0,3.0,2.0,0.0,6.0,6.0,583.8354090001303,7.0,1.0,phase_2,go,400.0,300.0,1.0,,,,,,,,,magenta,square
0.0,3.0,2.0,0.0,5.0,5.0,588.0887330004043,7.0,1.0,phase_2,go,400.0,300.0,1.0,,,,,,,,,magenta,square
0.0,2.0,1.0,0.0,6.0,6.0,550.3084880001552,7.0,1.0,phase_2,go,400.0,300.0,1.0,,,,,,,,,blue,cross
0.0,2.0,1.0,0.0,6.0,6.0,660.9278409996477,7.0,1.0,phase_2,go,400.0,300.0,1.0,,,,,,,,,blue,cross
0.0,2.0,1.0,0.0,5.0,5.0,581.6374320002069,7.0,1.0,phase_2,go,400.0,300.0,1.0,,,,,,,,,blue,cross
0.0,3.0,2.0,0.0,5.0,5.0,557.7178500006994,7.0,1.0,phase_2,go,400.0,300.0,1.0,,,,,,,,,magenta,square
0.0,7.0,2.0,1.0,5.0,5.0,534.4688839995797,7.0,1.0,phase_2,go,400.0,300.0,1.0,,,,,,,,,cyan,circle
0.0,4.0,4.0,0.0,5.0,5.0,498.6007549996429,7.0,1.0,phase_2,go,400.0,300.0,1.0,,,,,,,,,gray,I
0.0,5.0,0.5,1.0,6.0,6.0,380.3243540005496,7.0,1.0,phase_2,stop,400.0,300.0,3.0,,,,,,,,,green,triangle
0.0,2.0,1.0,0.0,6.0,6.0,405.6717399998888,7.0,1.0,phase_2,go,400.0,250.0,1.0,,,,,,,,,blue,cross
0.0,1.0,0.5,0.0,5.0,5.0,507.5988939997842,7.0,1.0,phase_2,go,400.0,250.0,1.0,,,,,,,,,yellow,flipped triangle
0.0,5.0,0.5,1.0,5.0,5.0,418.3655570004703,7.0,1.0,phase_2,go,400.0,250.0,1.0,,,,,,,,,green,triangle
0.0,4.0,4.0,0.0,6.0,6.0,346.0589840005923,7.0,1.0,phase_2,go,400.0,250.0,1.0,,,,,,,,,gray,I
0.0,1.0,0.5,0.0,5.0,5.0,286.3085089993546,7.0,1.0,phase_2,go,400.0,250.0,1.0,,,,,,,,,yellow,flipped triangle
0.0,3.0,2.0,0.0,6.0,6.0,346.1553770002865,7.0,1.0,phase_2,go,400.0,250.0,1.0,,,,,,,,,magenta,square
0.0,8.0,4.0,1.0,5.0,5.0,395.8112179998352,7.0,1.0,phase_2,stop,400.0,250.0,3.0,,,,,,,,,white,hexagon
0.0,5.0,0.5,1.0,6.0,6.0,362.9522470000665,8.0,1.0,phase_2,stop,350.0,250.0,3.0,,,,,,,,,green,triangle
0.0,8.0,4.0,1.0,5.0,5.0,601.0637220006174,8.0,1.0,phase_2,go,350.0,200.0,1.0,,,,,,,,,white,hexagon
0.0,5.0,0.5,1.0,5.0,5.0,536.832325999967,8.0,1.0,phase_2,go,350.0,200.0,1.0,,,,,,,,,green,triangle
0.0,1.0,0.5,0.0,6.0,6.0,586.6227910000816,8.0,1.0,phase_2,go,350.0,200.0,1.0,,,,,,,,,yellow,flipped triangle
0.0,3.0,2.0,0.0,6.0,6.0,463.3929009996791,8.0,1.0,phase_2,go,350.0,200.0,1.0,,,,,,,,,magenta,square
0.0,8.0,4.0,1.0,5.0,5.0,465.0474459995166,8.0,1.0,phase_2,stop,350.0,200.0,3.0,,,,,,,,,white,hexagon
0.0,3.0,2.0,0.0,6.0,6.0,576.8424600000799,8.0,1.0,phase_2,go,300.0,200.0,1.0,,,,,,,,,magenta,square
0.0,6.0,1.0,1.0,6.0,0.0,0.0,8.0,1.0,phase_2,stop,300.0,200.0,4.0,,,,,,,,,orange,diamond
0.0,8.0,4.0,1.0,5.0,0.0,0.0,8.0,1.0,phase_2,stop,300.0,250.0,4.0,,,,,,,,,white,hexagon
0.0,2.0,1.0,0.0,5.0,5.0,520.9288539999761,8.0,1.0,phase_2,go,350.0,250.0,1.0,,,,,,,,,blue,cross
0.0,3.0,2.0,0.0,6.0,6.0,550.2854039996237,8.0,1.0,phase_2,go,350.0,250.0,1.0,,,,,,,,,magenta,square
0.0,1.0,0.5,0.0,6.0,6.0,534.4422950001899,8.0,1.0,phase_2,go,350.0,250.0,1.0,,,,,,,,,yellow,flipped triangle
0.0,8.0,4.0,1.0,5.0,5.0,506.60198199966544,8.0,1.0,phase_2,stop,350.0,250.0,3.0,,,,,,,,,white,hexagon
0.0,7.0,2.0,1.0,5.0,0.0,0.0,8.0,1.0,phase_2,stop,300.0,250.0,4.0,,,,,,,,,cyan,circle
0.0,2.0,1.0,0.0,6.0,6.0,501.55837500005873,8.0,1.0,phase_2,go,350.0,250.0,1.0,,,,,,,,,blue,cross
0.0,3.0,2.0,0.0,5.0,5.0,760.6510390005496,8.0,1.0,phase_2,go,350.0,250.0,1.0,,,,,,,,,magenta,square
0.0,2.0,1.0,0.0,6.0,6.0,302.8914059996168,8.0,1.0,phase_2,go,350.0,250.0,1.0,,,,,,,,,blue,cross
0.0,8.0,4.0,1.0,6.0,6.0,322.1875819999695,8.0,1.0,phase_2,go,350.0,250.0,1.0,,,,,,,,,white,hexagon
0.0,2.0,1.0,0.0,5.0,5.0,817.1668909999426,8.0,1.0,phase_2,go,350.0,250.0,1.0,,,,,,,,,blue,cross
0.0,3.0,2.0,0.0,6.0,6.0,451.6392260002249,8.0,1.0,phase_2,go,350.0,250.0,1.0,,,,,,,,,magenta,square
0.0,8.0,4.0,1.0,6.0,0.0,0.0,8.0,1.0,phase_2,stop,350.0,250.0,4.0,,,,,,,,,white,hexagon
0.0,6.0,1.0,1.0,6.0,0.0,0.0,8.0,1.0,phase_2,stop,350.0,300.0,4.0,,,,,,,,,orange,diamond
0.0,5.0,0.5,1.0,5.0,5.0,410.750963999817,8.0,1.0,phase_2,stop,350.0,350.0,3.0,,,,,,,,,green,triangle
0.0,4.0,4.0,0.0,5.0,5.0,552.5068580000152,8.0,1.0,phase_2,go,300.0,350.0,1.0,,,,,,,,,gray,I
0.0,1.0,0.5,0.0,5.0,5.0,289.7918449998542,8.0,1.0,phase_2,go,300.0,350.0,1.0,,,,,,,,,yellow,flipped triangle
0.0,1.0,0.5,0.0,5.0,5.0,330.4946219996054,8.0,1.0,phase_2,go,300.0,350.0,1.0,,,,,,,,,yellow,flipped triangle
0.0,2.0,1.0,0.0,5.0,5.0,529.9717420002708,8.0,1.0,phase_2,go,300.0,350.0,1.0,,,,,,,,,blue,cross
0.0,6.0,1.0,1.0,5.0,5.0,409.9660769998081,8.0,1.0,phase_2,stop,300.0,350.0,3.0,,,,,,,,,orange,diamond
0.0,7.0,2.0,1.0,6.0,0.0,0.0,8.0,1.0,phase_2,stop,250.0,350.0,4.0,,,,,,,,,cyan,circle
0.0,2.0,1.0,0.0,6.0,6.0,746.812800999578,8.0,1.0,phase_2,go,250.0,400.0,1.0,,,,,,,,,blue,cross
0.0,1.0,0.5,0.0,6.0,6.0,546.8133949998446,8.0,1.0,phase_2,go,250.0,400.0,1.0,,,,,,,,,yellow,flipped triangle
0.0,6.0,1.0,1.0,5.0,5.0,468.9067729996168,8.0,1.0,phase_2,go,250.0,400.0,1.0,,,,,,,,,orange,diamond
0.0,8.0,4.0,1.0,5.0,5.0,556.0269859997788,8.0,1.0,phase_2,go,250.0,400.0,1.0,,,,,,,,,white,hexagon
0.0,6.0,1.0,1.0,6.0,6.0,527.6466969999092,8.0,1.0,phase_2,stop,250.0,400.0,3.0,,,,,,,,,orange,diamond
0.0,1.0,0.5,0.0,5.0,5.0,553.3790039999076,8.0,1.0,phase_2,go,250.0,350.0,1.0,,,,,,,,,yellow,flipped triangle
0.0,3.0,2.0,0.0,6.0,6.0,605.7078490002823,8.0,1.0,phase_2,go,250.0,350.0,1.0,,,,,,,,,magenta,square
0.0,1.0,0.5,0.0,7.0,6.0,559.2117719997987,1.0,2.0,phase_3,,,,,270.0,5.0,54.0,216.0,324.0,162.0,108.0,270.0,yellow,flipped triangle
0.0,8.0,4.0,1.0,7.0,6.0,2897.9009089998726,1.0,1.0,phase_3,,,,,324.0,6.0,216.0,162.0,108.0,270.0,54.0,324.0,white,hexagon
0.0,8.0,4.0,1.0,7.0,4.0,1267.9852110004504,1.0,1.0,phase_3,,,,,117.0,3.0,195.0,234.0,39.0,117.0,78.0,156.0,white,hexagon
0.0,3.0,2.0,0.0,7.0,2.0,3183.048050999787,1.0,1.0,phase_3,,,,,136.0,4.0,170.0,136.0,204.0,34.0,68.0,102.0,magenta,square
0.0,2.0,1.0,0.0,7.0,4.0,2079.60069299952,1.0,1.0,phase_3,,,,,195.0,5.0,234.0,117.0,156.0,195.0,39.0,78.0,blue,cross
0.0,5.0,0.5,1.0,7.0,5.0,2311.587297999722,1.0,1.0,phase_3,,,,,324.0,6.0,270.0,216.0,54.0,108.0,324.0,162.0,green,triangle
0.0,6.0,1.0,1.0,7.0,1.0,3025.32569899995,1.0,1.0,phase_3,,,,,78.0,2.0,78.0,39.0,117.0,234.0,156.0,195.0,orange,diamond
0.0,6.0,1.0,1.0,7.0,4.0,2620.895129000018,1.0,1.0,phase_3,,,,,216.0,4.0,162.0,108.0,54.0,216.0,270.0,324.0,orange,diamond
0.0,1.0,0.5,0.0,7.0,3.0,1953.5797810003717,1.0,1.0,phase_3,,,,,147.0,3.0,245.0,98.0,147.0,294.0,196.0,49.0,yellow,flipped triangle
0.0,4.0,4.0,0.0,7.0,2.0,2302.2224440001078,1.0,1.0,phase_3,,,,,264.0,6.0,44.0,264.0,220.0,88.0,132.0,176.0,gray,I
0.0,6.0,1.0,1.0,7.0,3.0,1353.2696969996325,1.0,1.0,phase_3,,,,,204.0,6.0,68.0,102.0,204.0,34.0,136.0,170.0,orange,diamond
0.0,4.0,4.0,0.0,7.0,4.0,982.3675950001416,1.0,1.0,phase_3,,,,,245.0,5.0,49.0,294.0,196.0,245.0,147.0,98.0,gray,I
0.0,8.0,4.0,1.0,7.0,5.0,1501.625435999813,1.0,1.0,phase_3,,,,,196.0,4.0,245.0,49.0,294.0,147.0,196.0,98.0,white,hexagon
0.0,5.0,0.5,1.0,7.0,1.0,1839.1615720001937,1.0,1.0,phase_3,,,,,234.0,6.0,234.0,156.0,39.0,78.0,195.0,117.0,green,triangle
0.0,2.0,1.0,0.0,7.0,2.0,1451.2644779997572,1.0,1.0,phase_3,,,,,324.0,6.0,54.0,324.0,162.0,216.0,270.0,108.0,blue,cross
0.0,2.0,1.0,0.0,7.0,4.0,985.410025999954,1.0,1.0,phase_3,,,,,294.0,6.0,98.0,147.0,49.0,294.0,245.0,196.0,blue,cross
0.0,7.0,2.0,1.0,7.0,4.0,904.755887999272,1.0,1.0,phase_3,,,,,98.0,2.0,147.0,196.0,49.0,98.0,294.0,245.0,cyan,circle
0.0,4.0,4.0,0.0,7.0,6.0,1300.2075529993815,1.0,1.0,phase_3,,,,,196.0,4.0,294.0,147.0,49.0,98.0,245.0,196.0,gray,I
0.0,5.0,0.5,1.0,7.0,5.0,1137.9805130000022,1.0,1.0,phase_3,,,,,147.0,3.0,294.0,98.0,196.0,49.0,147.0,245.0,green,triangle
0.0,7.0,2.0,1.0,7.0,3.0,1068.8438990000575,1.0,1.0,phase_3,,,,,54.0,1.0,108.0,162.0,54.0,270.0,324.0,216.0,cyan,circle
0.0,2.0,1.0,0.0,7.0,3.0,1827.844593000009,2.0,1.0,phase_3,,,,,220.0,5.0,44.0,88.0,220.0,176.0,132.0,264.0,blue,cross
0.0,8.0,4.0,1.0,7.0,4.0,1775.0480790000438,2.0,1.0,phase_3,,,,,39.0,1.0,78.0,234.0,195.0,39.0,117.0,156.0,white,hexagon
0.0,4.0,4.0,0.0,7.0,5.0,1288.88127800019,2.0,1.0,phase_3,,,,,117.0,3.0,39.0,78.0,234.0,156.0,117.0,195.0,gray,I
0.0,1.0,0.5,0.0,7.0,1.0,1853.7488660003876,2.0,1.0,phase_3,,,,,264.0,6.0,264.0,88.0,176.0,132.0,44.0,220.0,yellow,flipped triangle
0.0,1.0,0.5,0.0,7.0,6.0,1363.7012489998597,2.0,1.0,phase_3,,,,,204.0,6.0,170.0,34.0,102.0,136.0,68.0,204.0,yellow,flipped triangle
0.0,4.0,4.0,0.0,7.0,4.0,1540.6438520003576,2.0,1.0,phase_3,,,,,170.0,5.0,102.0,136.0,34.0,170.0,68.0,204.0,gray,I
0.0,6.0,1.0,1.0,7.0,3.0,1024.9157879998163,2.0,1.0,phase_3,,,,,88.0,2.0,264.0,220.0,88.0,44.0,176.0,132.0,orange,diamond
0.0,6.0,1.0,1.0,7.0,3.0,1536.784935000469,2.0,1.0,phase_3,,,,,78.0,2.0,39.0,195.0,78.0,117.0,234.0,156.0,orange,diamond
0.0,5.0,0.5,1.0,7.0,4.0,1063.0345520003175,2.0,1.0,phase_3,,,,,245.0,5.0,196.0,147.0,98.0,245.0,49.0,294.0,green,triangle
0.0,2.0,1.0,0.0,7.0,1.0,1960.9671819998769,2.0,1.0,phase_3,,,,,204.0,6.0,204.0,68.0,136.0,34.0,170.0,102.0,blue,cross
0.0,8.0,4.0,1.0,7.0,4.0,1290.1473760002773,2.0,1.0,phase_3,,,,,136.0,4.0,68.0,170.0,34.0,136.0,102.0,204.0,white,hexagon
0.0,1.0,0.5,0.0,7.0,4.0,2271.9740140000795,2.0,1.0,phase_3,,,,,162.0,3.0,108.0,270.0,216.0,162.0,54.0,324.0,yellow,flipped triangle
0.0,2.0,1.0,0.0,7.0,1.0,1553.3244429998376,2.0,1.0,phase_3,,,,,204.0,6.0,204.0,34.0,102.0,136.0,68.0,170.0,blue,cross
0.0,1.0,0.5,0.0,7.0,1.0,1720.9387970005992,2.0,1.0,phase_3,,,,,156.0,4.0,156.0,117.0,39.0,234.0,195.0,78.0,yellow,flipped triangle
0.0,1.0,0.5,0.0,7.0,5.0,1554.0044999997915,2.0,1.0,phase_3,,,,,34.0,1.0,102.0,170.0,136.0,204.0,34.0,68.0,yellow,flipped triangle
0.0,6.0,1.0,1.0,7.0,1.0,1337.296332999358,2.0,1.0,phase_3,,,,,34.0,1.0,34.0,204.0,102.0,68.0,170.0,136.0,orange,diamond
0.0,7.0,2.0,1.0,7.0,3.0,1323.6693509998076,2.0,1.0,phase_3,,,,,196.0,4.0,245.0,98.0,196.0,147.0,294.0,49.0,cyan,circle
0.0,2.0,1.0,0.0,7.0,2.0,1332.2919319998618,2.0,1.0,phase_3,,,,,264.0,6.0,220.0,264.0,88.0,44.0,176.0,132.0,blue,cross
0.0,7.0,2.0,1.0,7.0,4.0,1099.755068000377,2.0,1.0,phase_3,,,,,170.0,5.0,136.0,204.0,102.0,170.0,68.0,34.0,cyan,circle
0.0,8.0,4.0,1.0,7.0,4.0,1253.937049000342,2.0,1.0,phase_3,,,,,98.0,2.0,294.0,147.0,49.0,98.0,245.0,196.0,white,hexagon
0.0,2.0,1.0,0.0,7.0,3.0,1258.8606920007803,3.0,1.0,phase_3,,,,,108.0,2.0,54.0,270.0,108.0,216.0,324.0,162.0,blue,cross
0.0,3.0,2.0,0.0,7.0,4.0,1094.339545999901,3.0,1.0,phase_3,,,,,216.0,4.0,270.0,324.0,54.0,216.0,108.0,162.0,magenta,square
0.0,5.0,0.5,1.0,7.0,6.0,1121.9359639999311,3.0,1.0,phase_3,,,,,54.0,1.0,324.0,162.0,270.0,216.0,108.0,54.0,green,triangle
0.0,5.0,0.5,1.0,7.0,3.0,972.5386720001552,3.0,1.0,phase_3,,,,,176.0,4.0,88.0,44.0,176.0,132.0,264.0,220.0,green,triangle
0.0,8.0,4.0,1.0,7.0,4.0,1621.2932610005737,3.0,1.0,phase_3,,,,,264.0,6.0,88.0,176.0,44.0,264.0,220.0,132.0,white,hexagon
0.0,1.0,0.5,0.0,7.0,1.0,1359.2257000000243,3.0,1.0,phase_3,,,,,88.0,2.0,88.0,220.0,264.0,176.0,44.0,132.0,yellow,flipped triangle
0.0,2.0,1.0,0.0,7.0,5.0,1188.0295939999996,3.0,1.0,phase_3,,,,,234.0,6.0,195.0,156.0,39.0,117.0,234.0,78.0,blue,cross
0.0,8.0,4.0,1.0,7.0,1.0,1241.4913689999594,3.0,1.0,phase_3,,,,,108.0,2.0,108.0,216.0,162.0,54.0,324.0,270.0,white,hexagon
0.0,3.0,2.0,0.0,7.0,2.0,2753.283828000349,3.0,1.0,phase_3,,,,,220.0,5.0,176.0,220.0,88.0,264.0,132.0,44.0,magenta,square
0.0,7.0,2.0,1.0,7.0,2.0,985.1013719999172,3.0,1.0,phase_3,,,,,88.0,2.0,220.0,88.0,44.0,264.0,132.0,176.0,cyan,circle
0.0,1.0,0.5,0.0,7.0,2.0,2388.6774140000853,3.0,1.0,phase_3,,,,,147.0,3.0,294.0,147.0,196.0,98.0,245.0,49.0,yellow,flipped triangle
0.0,2.0,1.0,0.0,7.0,3.0,940.2143799998156,3.0,1.0,phase_3,,,,,294.0,6.0,245.0,49.0,294.0,196.0,98.0,147.0,blue,cross
0.0,7.0,2.0,1.0,7.0,6.0,1673.562248000053,3.0,1.0,phase_3,,,,,54.0,1.0,162.0,216.0,108.0,324.0,270.0,54.0,cyan,circle
0.0,3.0,2.0,0.0,7.0,2.0,1758.649651000269,3.0,1.0,phase_3,,,,,270.0,5.0,324.0,270.0,108.0,54.0,162.0,216.0,magenta,square
0.0,1.0,0.5,0.0,7.0,5.0,966.462520999812,3.0,1.0,phase_3,,,,,78.0,2.0,39.0,117.0,156.0,195.0,78.0,234.0,yellow,flipped triangle
0.0,3.0,2.0,0.0,7.0,2.0,1941.846558999714,3.0,1.0,phase_3,,,,,245.0,5.0,196.0,245.0,98.0,147.0,49.0,294.0,magenta,square
0.0,6.0,1.0,1.0,7.0,4.0,1129.2219269998895,3.0,1.0,phase_3,,,,,220.0,5.0,264.0,44.0,176.0,220.0,132.0,88.0,orange,diamond
0.0,6.0,1.0,1.0,7.0,5.0,1173.670186999516,3.0,1.0,phase_3,,,,,162.0,3.0,324.0,54.0,216.0,270.0,162.0,108.0,orange,diamond
0.0,8.0,4.0,1.0,7.0,4.0,1578.703127999688,3.0,1.0,phase_3,,,,,136.0,4.0,34.0,68.0,204.0,136.0,102.0,170.0,white,hexagon
0.0,4.0,4.0,0.0,7.0,3.0,2100.7381939998595,3.0,1.0,phase_3,,,,,264.0,6.0,220.0,132.0,264.0,88.0,44.0,176.0,gray,I
0.0,6.0,1.0,1.0,7.0,5.0,959.7837410001376,4.0,1.0,phase_3,,,,,98.0,2.0,245.0,49.0,147.0,196.0,98.0,294.0,orange,diamond
0.0,3.0,2.0,0.0,7.0,2.0,1281.5701080007784,4.0,1.0,phase_3,,,,,196.0,4.0,294.0,196.0,49.0,245.0,147.0,98.0,magenta,square
0.0,3.0,2.0,0.0,7.0,5.0,1566.4155370004664,4.0,1.0,phase_3,,,,,264.0,6.0,220.0,88.0,176.0,132.0,264.0,44.0,magenta,square
0.0,7.0,2.0,1.0,7.0,2.0,1464.143545999832,4.0,1.0,phase_3,,,,,44.0,1.0,264.0,44.0,88.0,176.0,220.0,132.0,cyan,circle
0.0,5.0,0.5,1.0,7.0,1.0,2061.3250429996697,4.0,1.0,phase_3,,,,,78.0,2.0,78.0,195.0,117.0,156.0,39.0,234.0,green,triangle
0.0,7.0,2.0,1.0,7.0,3.0,1067.9438899996967,4.0,1.0,phase_3,,,,,170.0,5.0,68.0,136.0,170.0,102.0,204.0,34.0,cyan,circle
0.0,5.0,0.5,1.0,7.0,4.0,1618.5359460005202,4.0,1.0,phase_3,,,,,68.0,2.0,204.0,34.0,102.0,68.0,170.0,136.0,green,triangle
0.0,4.0,4.0,0.0,7.0,4.0,1368.1564600001366,4.0,1.0,phase_3,,,,,216.0,4.0,324.0,54.0,270.0,216.0,162.0,108.0,gray,I
0.0,3.0,2.0,0.0,7.0,3.0,1337.1299840000574,4.0,1.0,phase_3,,,,,204.0,6.0,170.0,34.0,204.0,68.0,136.0,102.0,magenta,square
0.0,3.0,2.0,0.0,7.0,6.0,1346.6564110003674,4.0,1.0,phase_3,,,,,195.0,5.0,234.0,156.0,78.0,117.0,39.0,195.0,magenta,square
0.0,8.0,4.0,1.0,7.0,4.0,1638.51695700032,4.0,1.0,phase_3,,,,,176.0,4.0,264.0,88.0,44.0,176.0,132.0,220.0,white,hexagon
0.0,6.0,1.0,1.0,7.0,2.0,1022.623907999332,4.0,1.0,phase_3,,,,,49.0,1.0,245.0,49.0,294.0,196.0,98.0,147.0,orange,diamond
0.0,4.0,4.0,0.0,7.0,5.0,1287.831296999684,4.0,1.0,phase_3,,,,,270.0,5.0,324.0,108.0,162.0,54.0,270.0,216.0,gray,I
0.0,4.0,4.0,0.0,7.0,2.0,1640.7224669992502,4.0,1.0,phase_3,,,,,102.0,3.0,204.0,102.0,34.0,170.0,68.0,136.0,gray,I
0.0,7.0,2.0,1.0,7.0,3.0,1339.7764640003516,4.0,1.0,phase_3,,,,,195.0,5.0,234.0,39.0,195.0,117.0,156.0,78.0,cyan,circle
0.0,7.0,2.0,1.0,7.0,4.0,1017.4503490006828,4.0,1.0,phase_3,,,,,234.0,6.0,156.0,39.0,117.0,234.0,78.0,195.0,cyan,circle
0.0,4.0,4.0,0.0,7.0,5.0,1164.609295000446,4.0,1.0,phase_3,,,,,195.0,5.0,156.0,78.0,234.0,39.0,195.0,117.0,gray,I
0.0,5.0,0.5,1.0,7.0,2.0,1471.0212829995726,4.0,1.0,phase_3,,,,,68.0,2.0,136.0,68.0,204.0,102.0,34.0,170.0,green,triangle
0.0,5.0,0.5,1.0,7.0,5.0,982.4053050006114,4.0,1.0,phase_3,,,,,176.0,4.0,220.0,44.0,132.0,88.0,176.0,264.0,green,triangle
0.0,3.0,2.0,0.0,7.0,4.0,1549.6203470002,4.0,1.0,phase_3,,,,,78.0,2.0,117.0,234.0,39.0,78.0,195.0,156.0,magenta,square
