raw_reward_magnitude,stim_reward,stepwise_reward_magnitude,paired_with_stopping,quadrant,response,reaction_time,block,num_trial_presentations,which_part,stop_signal_trial_type,left_SSD,right_SSD,accuracy,chosen_bidding_amount,chosen_bidding_level,possible_bid_1,possible_bid_2,possible_bid_3,possible_bid_4,possible_bid_5,possible_bid_6,color_text,shape_text
58.0,5.0,1.0,1.0,1.0,1.0,473.0720330001077,1.0,1.0,part_1,,,,,,,,,,,,,magenta,circle
401.0,4.0,4.0,0.0,4.0,4.0,438.3286140000564,1.0,1.0,part_1,,,,,,,,,,,,,green,flipped triangle
27.0,1.0,1.0,0.0,2.0,2.0,445.6592190001629,1.0,1.0,part_1,,,,,,,,,,,,,white,triangle
101.0,6.0,2.0,1.0,1.0,1.0,516.2708849998126,1.0,1.0,part_1,,,,,,,,,,,,,yellow,I
176.0,3.0,3.0,0.0,2.0,2.0,408.3929390001231,1.0,1.0,part_1,,,,,,,,,,,,,orange,square
392.0,8.0,4.0,1.0,3.0,3.0,361.5651390000494,1.0,1.0,part_1,,,,,,,,,,,,,cyan,hexagon
0.0,4.0,0.0,0.0,3.0,3.0,616.1924769999132,1.0,1.0,part_1,,,,,,,,,,,,,green,flipped triangle
221.0,7.0,3.0,1.0,1.0,1.0,406.6240409999864,1.0,1.0,part_1,,,,,,,,,,,,,blue,cross
185.0,3.0,3.0,0.0,3.0,3.0,362.2590160000527,1.0,1.0,part_1,,,,,,,,,,,,,orange,square
416.0,8.0,4.0,1.0,2.0,2.0,465.3066619998753,1.0,1.0,part_1,,,,,,,,,,,,,cyan,hexagon
80.0,2.0,2.0,0.0,4.0,4.0,492.0969719998993,1.0,1.0,part_1,,,,,,,,,,,,,gray,diamond
0.0,4.0,0.0,0.0,4.0,4.0,405.4827429999932,1.0,1.0,part_1,,,,,,,,,,,,,green,flipped triangle
45.0,1.0,1.0,0.0,3.0,3.0,394.486501999836,1.0,1.0,part_1,,,,,,,,,,,,,white,triangle
410.0,4.0,4.0,0.0,2.0,2.0,455.1489019997916,1.0,1.0,part_1,,,,,,,,,,,,,green,flipped triangle
53.0,1.0,1.0,0.0,4.0,4.0,441.586597999958,1.0,1.0,part_1,,,,,,,,,,,,,white,triangle
0.0,3.0,0.0,0.0,2.0,2.0,395.2758670000094,1.0,1.0,part_1,,,,,,,,,,,,,orange,square
0.0,6.0,0.0,1.0,1.0,1.0,426.0337369998979,1.0,1.0,part_1,,,,,,,,,,,,,yellow,I
0.0,3.0,0.0,0.0,2.0,2.0,492.0186809999904,1.0,1.0,part_1,,,,,,,,,,,,,orange,square
187.0,7.0,3.0,1.0,2.0,2.0,466.6726189998371,1.0,1.0,part_1,,,,,,,,,,,,,blue,cross
394.0,8.0,4.0,1.0,1.0,1.0,542.7812920001998,1.0,1.0,part_1,,,,,,,,,,,,,cyan,hexagon
401.0,4.0,4.0,0.0,3.0,3.0,568.5164110000187,1.0,1.0,part_1,,,,,,,,,,,,,green,flipped triangle
95.0,6.0,2.0,1.0,4.0,4.0,602.2108340000614,1.0,1.0,part_1,,,,,,,,,,,,,yellow,I
34.0,1.0,1.0,0.0,1.0,1.0,619.393048999882,1.0,1.0,part_1,,,,,,,,,,,,,white,triangle
219.0,7.0,3.0,1.0,3.0,3.0,456.9336399999884,1.0,1.0,part_1,,,,,,,,,,,,,blue,cross
0.0,5.0,0.0,1.0,4.0,4.0,543.0166879998524,1.0,1.0,part_1,,,,,,,,,,,,,magenta,circle
0.0,1.0,0.0,0.0,2.0,2.0,426.4263170000504,1.0,1.0,part_1,,,,,,,,,,,,,white,triangle
64.0,1.0,1.0,0.0,3.0,3.0,465.4574029998457,1.0,1.0,part_1,,,,,,,,,,,,,white,triangle
0.0,3.0,0.0,0.0,1.0,1.0,489.6671919998425,1.0,1.0,part_1,,,,,,,,,,,,,orange,square
0.0,1.0,0.0,0.0,2.0,2.0,662.3444980000386,1.0,1.0,part_1,,,,,,,,,,,,,white,triangle
385.0,8.0,4.0,1.0,2.0,2.0,477.0698039999388,1.0,1.0,part_1,,,,,,,,,,,,,cyan,hexagon
203.0,3.0,3.0,0.0,4.0,4.0,481.4871159999256,1.0,1.0,part_1,,,,,,,,,,,,,orange,square
196.0,7.0,3.0,1.0,1.0,1.0,460.9862059999159,1.0,1.0,part_1,,,,,,,,,,,,,blue,cross
205.0,3.0,3.0,0.0,3.0,3.0,671.709195999938,1.0,1.0,part_1,,,,,,,,,,,,,orange,square
71.0,5.0,1.0,1.0,1.0,1.0,449.0381209998304,1.0,1.0,part_1,,,,,,,,,,,,,magenta,circle
32.0,5.0,1.0,1.0,1.0,1.0,640.0840649998827,1.0,1.0,part_1,,,,,,,,,,,,,magenta,circle
417.0,4.0,4.0,0.0,2.0,2.0,443.6800569999377,1.0,1.0,part_1,,,,,,,,,,,,,green,flipped triangle
0.0,4.0,0.0,0.0,2.0,2.0,413.0749619998823,1.0,1.0,part_1,,,,,,,,,,,,,green,flipped triangle
386.0,8.0,4.0,1.0,1.0,1.0,674.2654049999146,1.0,1.0,part_1,,,,,,,,,,,,,cyan,hexagon
196.0,3.0,3.0,0.0,3.0,3.0,654.4373379999797,1.0,1.0,part_1,,,,,,,,,,,,,orange,square
194.0,7.0,3.0,1.0,2.0,2.0,563.0837300000167,1.0,1.0,part_1,,,,,,,,,,,,,blue,cross
419.0,8.0,4.0,1.0,4.0,4.0,557.2403989999657,1.0,1.0,part_1,,,,,,,,,,,,,cyan,hexagon
90.0,6.0,2.0,1.0,3.0,3.0,620.0039119999019,1.0,1.0,part_1,,,,,,,,,,,,,yellow,I
201.0,7.0,3.0,1.0,3.0,3.0,608.7760289999551,1.0,1.0,part_1,,,,,,,,,,,,,blue,cross
219.0,3.0,3.0,0.0,1.0,1.0,463.5274679999384,1.0,1.0,part_1,,,,,,,,,,,,,orange,square
43.0,5.0,1.0,1.0,4.0,4.0,428.8303169998926,1.0,1.0,part_1,,,,,,,,,,,,,magenta,circle
54.0,5.0,1.0,1.0,2.0,2.0,357.9294240000763,1.0,1.0,part_1,,,,,,,,,,,,,magenta,circle
409.0,8.0,4.0,1.0,4.0,4.0,532.720301999916,1.0,1.0,part_1,,,,,,,,,,,,,cyan,hexagon
405.0,8.0,4.0,1.0,3.0,3.0,471.3021330001083,1.0,1.0,part_1,,,,,,,,,,,,,cyan,hexagon
0.0,4.0,0.0,0.0,3.0,3.0,590.9279880002032,1.0,1.0,part_1,,,,,,,,,,,,,green,flipped triangle
118.0,2.0,2.0,0.0,1.0,1.0,573.9135219998843,1.0,1.0,part_1,,,,,,,,,,,,,gray,diamond
221.0,3.0,3.0,0.0,4.0,4.0,427.6477529999738,1.0,1.0,part_1,,,,,,,,,,,,,orange,square
0.0,2.0,0.0,0.0,4.0,4.0,466.3354770000296,1.0,1.0,part_1,,,,,,,,,,,,,gray,diamond
420.0,8.0,4.0,1.0,3.0,3.0,610.2222639999582,1.0,1.0,part_1,,,,,,,,,,,,,cyan,hexagon
59.0,1.0,1.0,0.0,3.0,3.0,612.0351409999785,1.0,1.0,part_1,,,,,,,,,,,,,white,triangle
401.0,4.0,4.0,0.0,1.0,1.0,577.5795050001307,1.0,1.0,part_1,,,,,,,,,,,,,green,flipped triangle
397.0,4.0,4.0,0.0,1.0,1.0,472.8797020000002,1.0,1.0,part_1,,,,,,,,,,,,,green,flipped triangle
0.0,2.0,0.0,0.0,2.0,2.0,585.1515280000967,1.0,1.0,part_1,,,,,,,,,,,,,gray,diamond
420.0,4.0,4.0,0.0,4.0,4.0,530.3192579999632,1.0,1.0,part_1,,,,,,,,,,,,,green,flipped triangle
194.0,7.0,3.0,1.0,2.0,2.0,473.6936059998697,1.0,1.0,part_1,,,,,,,,,,,,,blue,cross
116.0,2.0,2.0,0.0,2.0,2.0,392.7422140000089,1.0,1.0,part_1,,,,,,,,,,,,,gray,diamond
0.0,8.0,0.0,1.0,4.0,4.0,558.0964349999249,1.0,1.0,part_1,,,,,,,,,,,,,cyan,hexagon
116.0,6.0,2.0,1.0,4.0,4.0,475.9312679998402,1.0,1.0,part_1,,,,,,,,,,,,,yellow,I
66.0,5.0,1.0,1.0,1.0,1.0,590.4003080001985,1.0,1.0,part_1,,,,,,,,,,,,,magenta,circle
219.0,3.0,3.0,0.0,1.0,1.0,440.153361000057,1.0,1.0,part_1,,,,,,,,,,,,,orange,square
0.0,6.0,0.0,1.0,1.0,1.0,520.9715880000658,1.0,1.0,part_1,,,,,,,,,,,,,yellow,I
44.0,1.0,1.0,0.0,4.0,4.0,494.8131689998263,1.0,1.0,part_1,,,,,,,,,,,,,white,triangle
0.0,5.0,0.0,1.0,4.0,4.0,582.5371020000603,1.0,1.0,part_1,,,,,,,,,,,,,magenta,circle
35.0,5.0,1.0,1.0,3.0,3.0,487.0990680001341,1.0,1.0,part_1,,,,,,,,,,,,,magenta,circle
187.0,7.0,3.0,1.0,4.0,4.0,638.6942579999868,1.0,1.0,part_1,,,,,,,,,,,,,blue,cross
101.0,2.0,2.0,0.0,1.0,1.0,521.2288460002128,1.0,1.0,part_1,,,,,,,,,,,,,gray,diamond
211.0,3.0,3.0,0.0,3.0,3.0,388.6383510000541,1.0,1.0,part_1,,,,,,,,,,,,,orange,square
0.0,2.0,0.0,0.0,4.0,4.0,458.7242759998844,1.0,1.0,part_1,,,,,,,,,,,,,gray,diamond
193.0,7.0,3.0,1.0,3.0,3.0,590.2384649998567,1.0,1.0,part_1,,,,,,,,,,,,,blue,cross
59.0,5.0,1.0,1.0,3.0,3.0,432.8480860001491,1.0,1.0,part_1,,,,,,,,,,,,,magenta,circle
37.0,5.0,1.0,1.0,4.0,4.0,474.0471729999171,1.0,1.0,part_1,,,,,,,,,,,,,magenta,circle
0.0,6.0,0.0,1.0,4.0,4.0,433.7883349999174,1.0,1.0,part_1,,,,,,,,,,,,,yellow,I
0.0,3.0,0.0,0.0,1.0,1.0,378.2655900001828,1.0,1.0,part_1,,,,,,,,,,,,,orange,square
396.0,8.0,4.0,1.0,1.0,1.0,409.4949760001327,1.0,1.0,part_1,,,,,,,,,,,,,cyan,hexagon
395.0,4.0,4.0,0.0,2.0,2.0,431.921789999933,1.0,1.0,part_1,,,,,,,,,,,,,green,flipped triangle
121.0,2.0,2.0,0.0,2.0,2.0,434.2751700000917,1.0,1.0,part_1,,,,,,,,,,,,,gray,diamond
78.0,2.0,2.0,0.0,3.0,3.0,478.1379720000132,1.0,1.0,part_1,,,,,,,,,,,,,gray,diamond
385.0,4.0,4.0,0.0,3.0,3.0,450.492721000046,1.0,1.0,part_1,,,,,,,,,,,,,green,flipped triangle
69.0,5.0,1.0,1.0,1.0,1.0,451.2378740000713,1.0,1.0,part_1,,,,,,,,,,,,,magenta,circle
423.0,4.0,4.0,0.0,1.0,1.0,458.2334229999105,1.0,1.0,part_1,,,,,,,,,,,,,green,flipped triangle
410.0,8.0,4.0,1.0,3.0,3.0,383.266704000107,1.0,1.0,part_1,,,,,,,,,,,,,cyan,hexagon
123.0,6.0,2.0,1.0,3.0,3.0,548.8748969999051,1.0,1.0,part_1,,,,,,,,,,,,,yellow,I
219.0,3.0,3.0,0.0,1.0,1.0,719.1241809998701,1.0,1.0,part_1,,,,,,,,,,,,,orange,square
52.0,1.0,1.0,0.0,4.0,4.0,548.418644000094,1.0,1.0,part_1,,,,,,,,,,,,,white,triangle
194.0,3.0,3.0,0.0,3.0,3.0,475.7913460000509,1.0,1.0,part_1,,,,,,,,,,,,,orange,square
381.0,8.0,4.0,1.0,1.0,1.0,624.4275110000217,1.0,1.0,part_1,,,,,,,,,,,,,cyan,hexagon
406.0,8.0,4.0,1.0,4.0,4.0,541.664130999834,1.0,1.0,part_1,,,,,,,,,,,,,cyan,hexagon
66.0,1.0,1.0,0.0,2.0,2.0,536.2789810001232,1.0,1.0,part_1,,,,,,,,,,,,,white,triangle
0.0,1.0,0.0,0.0,2.0,2.0,449.5022379999227,1.0,1.0,part_1,,,,,,,,,,,,,white,triangle
413.0,8.0,4.0,1.0,1.0,1.0,693.5658310001145,1.0,1.0,part_1,,,,,,,,,,,,,cyan,hexagon
399.0,4.0,4.0,0.0,2.0,2.0,962.7770889999284,1.0,1.0,part_1,,,,,,,,,,,,,green,flipped triangle
210.0,3.0,3.0,0.0,4.0,4.0,878.6803099999361,1.0,1.0,part_1,,,,,,,,,,,,,orange,square
385.0,4.0,4.0,0.0,3.0,3.0,513.3848640000451,1.0,1.0,part_1,,,,,,,,,,,,,green,flipped triangle
93.0,2.0,2.0,0.0,4.0,4.0,581.4356079999925,1.0,1.0,part_1,,,,,,,,,,,,,gray,diamond
101.0,6.0,2.0,1.0,1.0,1.0,487.603904000025,1.0,1.0,part_1,,,,,,,,,,,,,yellow,I
106.0,2.0,2.0,0.0,3.0,3.0,381.7322400000194,1.0,1.0,part_1,,,,,,,,,,,,,gray,diamond
390.0,8.0,4.0,1.0,4.0,4.0,574.754281999958,2.0,1.0,part_1,,,,,,,,,,,,,cyan,hexagon
425.0,8.0,4.0,1.0,2.0,2.0,437.8130309999051,2.0,1.0,part_1,,,,,,,,,,,,,cyan,hexagon
103.0,6.0,2.0,1.0,3.0,3.0,478.4407429999646,2.0,1.0,part_1,,,,,,,,,,,,,yellow,I
41.0,1.0,1.0,0.0,4.0,4.0,551.3590989999102,2.0,1.0,part_1,,,,,,,,,,,,,white,triangle
0.0,8.0,0.0,1.0,4.0,4.0,749.9591900000269,2.0,1.0,part_1,,,,,,,,,,,,,cyan,hexagon
117.0,2.0,2.0,0.0,1.0,1.0,634.9499180000748,2.0,1.0,part_1,,,,,,,,,,,,,gray,diamond
116.0,6.0,2.0,1.0,4.0,4.0,477.1148060001451,2.0,1.0,part_1,,,,,,,,,,,,,yellow,I
413.0,4.0,4.0,0.0,4.0,4.0,479.3264569998428,2.0,1.0,part_1,,,,,,,,,,,,,green,flipped triangle
417.0,8.0,4.0,1.0,3.0,3.0,458.2611650000672,2.0,1.0,part_1,,,,,,,,,,,,,cyan,hexagon
25.0,1.0,1.0,0.0,1.0,1.0,866.6640950000328,2.0,1.0,part_1,,,,,,,,,,,,,white,triangle
96.0,2.0,2.0,0.0,1.0,1.0,468.5204709999198,2.0,1.0,part_1,,,,,,,,,,,,,gray,diamond
93.0,6.0,2.0,1.0,1.0,1.0,433.1884369998988,2.0,1.0,part_1,,,,,,,,,,,,,yellow,I
118.0,6.0,2.0,1.0,3.0,3.0,390.7097119999889,2.0,1.0,part_1,,,,,,,,,,,,,yellow,I
0.0,8.0,0.0,1.0,1.0,1.0,307.9823139999007,2.0,1.0,part_1,,,,,,,,,,,,,cyan,hexagon
42.0,5.0,1.0,1.0,2.0,2.0,334.9851959999341,2.0,1.0,part_1,,,,,,,,,,,,,magenta,circle
78.0,6.0,2.0,1.0,3.0,3.0,330.15611299993,2.0,1.0,part_1,,,,,,,,,,,,,yellow,I
82.0,2.0,2.0,0.0,2.0,2.0,407.4594900000647,2.0,1.0,part_1,,,,,,,,,,,,,gray,diamond
37.0,5.0,1.0,1.0,3.0,3.0,460.6657990000258,2.0,1.0,part_1,,,,,,,,,,,,,magenta,circle
0.0,8.0,0.0,1.0,4.0,4.0,384.6137250000083,2.0,1.0,part_1,,,,,,,,,,,,,cyan,hexagon
0.0,2.0,0.0,0.0,4.0,4.0,401.7732960001012,2.0,1.0,part_1,,,,,,,,,,,,,gray,diamond
34.0,5.0,1.0,1.0,2.0,2.0,362.3838319999777,2.0,1.0,part_1,,,,,,,,,,,,,magenta,circle
66.0,5.0,1.0,1.0,4.0,4.0,510.231309999881,2.0,1.0,part_1,,,,,,,,,,,,,magenta,circle
48.0,1.0,1.0,0.0,2.0,2.0,473.1345190000411,2.0,1.0,part_1,,,,,,,,,,,,,white,triangle
95.0,6.0,2.0,1.0,3.0,3.0,552.3081620001449,2.0,1.0,part_1,,,,,,,,,,,,,yellow,I
108.0,6.0,2.0,1.0,2.0,2.0,403.4292389999336,2.0,1.0,part_1,,,,,,,,,,,,,yellow,I
403.0,8.0,4.0,1.0,4.0,4.0,426.9694199999776,2.0,1.0,part_1,,,,,,,,,,,,,cyan,hexagon
195.0,7.0,3.0,1.0,3.0,3.0,470.2904939999826,2.0,1.0,part_1,,,,,,,,,,,,,blue,cross
0.0,7.0,0.0,1.0,1.0,1.0,413.5817639999004,2.0,1.0,part_1,,,,,,,,,,,,,blue,cross
101.0,2.0,2.0,0.0,4.0,4.0,609.7979609999129,2.0,1.0,part_1,,,,,,,,,,,,,gray,diamond
88.0,2.0,2.0,0.0,2.0,2.0,528.5529840000436,2.0,1.0,part_1,,,,,,,,,,,,,gray,diamond
0.0,5.0,0.0,1.0,4.0,4.0,601.540784000008,2.0,1.0,part_1,,,,,,,,,,,,,magenta,circle
203.0,7.0,3.0,1.0,3.0,3.0,645.2385569998569,2.0,1.0,part_1,,,,,,,,,,,,,blue,cross
410.0,8.0,4.0,1.0,4.0,4.0,596.5852090000681,2.0,1.0,part_1,,,,,,,,,,,,,cyan,hexagon
194.0,7.0,3.0,1.0,1.0,1.0,625.0205019998702,2.0,1.0,part_1,,,,,,,,,,,,,blue,cross
394.0,8.0,4.0,1.0,2.0,2.0,446.3014770001337,2.0,1.0,part_1,,,,,,,,,,,,,cyan,hexagon
94.0,2.0,2.0,0.0,3.0,3.0,504.2137200000525,2.0,1.0,part_1,,,,,,,,,,,,,gray,diamond
51.0,5.0,1.0,1.0,4.0,4.0,531.8942260000767,2.0,1.0,part_1,,,,,,,,,,,,,magenta,circle
41.0,5.0,1.0,1.0,2.0,2.0,465.7179499999984,2.0,1.0,part_1,,,,,,,,,,,,,magenta,circle
59.0,5.0,1.0,1.0,4.0,4.0,495.5993260000468,2.0,1.0,part_1,,,,,,,,,,,,,magenta,circle
210.0,7.0,3.0,1.0,4.0,4.0,577.4145679999947,2.0,1.0,part_1,,,,,,,,,,,,,blue,cross
176.0,3.0,3.0,0.0,1.0,1.0,486.599316000138,2.0,1.0,part_1,,,,,,,,,,,,,orange,square
381.0,4.0,4.0,0.0,4.0,4.0,459.4876469998326,2.0,2.0,part_1,,,,,,,,,,,,,green,flipped triangle
44.0,5.0,1.0,1.0,3.0,3.0,609.3901650001499,2.0,1.0,part_1,,,,,,,,,,,,,magenta,circle
0.0,7.0,0.0,1.0,4.0,4.0,508.78530399995725,2.0,1.0,part_1,,,,,,,,,,,,,blue,cross
211.0,7.0,3.0,1.0,3.0,3.0,580.6041719999939,2.0,1.0,part_1,,,,,,,,,,,,,blue,cross
26.0,1.0,1.0,0.0,2.0,2.0,503.2937389999006,2.0,1.0,part_1,,,,,,,,,,,,,white,triangle
70.0,5.0,1.0,1.0,4.0,4.0,562.6887460000489,2.0,1.0,part_1,,,,,,,,,,,,,magenta,circle
82.0,2.0,2.0,0.0,3.0,3.0,430.1049009998223,2.0,1.0,part_1,,,,,,,,,,,,,gray,diamond
44.0,1.0,1.0,0.0,1.0,1.0,398.6154439999154,2.0,1.0,part_1,,,,,,,,,,,,,white,triangle
424.0,4.0,4.0,0.0,3.0,3.0,569.2768100000194,2.0,1.0,part_1,,,,,,,,,,,,,green,flipped triangle
185.0,7.0,3.0,1.0,3.0,3.0,435.3740619999371,2.0,1.0,part_1,,,,,,,,,,,,,blue,cross
54.0,1.0,1.0,0.0,4.0,4.0,820.2550949999932,2.0,1.0,part_1,,,,,,,,,,,,,white,triangle
185.0,3.0,3.0,0.0,2.0,2.0,411.7436750000252,2.0,1.0,part_1,,,,,,,,,,,,,orange,square
115.0,2.0,2.0,0.0,2.0,2.0,431.6487999999481,2.0,1.0,part_1,,,,,,,,,,,,,gray,diamond
115.0,2.0,2.0,0.0,2.0,2.0,381.3613459999487,2.0,1.0,part_1,,,,,,,,,,,,,gray,diamond
214.0,3.0,3.0,0.0,2.0,2.0,403.3053480000035,2.0,1.0,part_1,,,,,,,,,,,,,orange,square
0.0,2.0,0.0,0.0,1.0,1.0,418.3452110000871,2.0,1.0,part_1,,,,,,,,,,,,,gray,diamond
78.0,2.0,2.0,0.0,3.0,3.0,421.6226000000915,2.0,1.0,part_1,,,,,,,,,,,,,gray,diamond
224.0,3.0,3.0,0.0,3.0,3.0,387.678957999924,2.0,1.0,part_1,,,,,,,,,,,,,orange,square
74.0,1.0,1.0,0.0,2.0,2.0,394.663778999984,2.0,1.0,part_1,,,,,,,,,,,,,white,triangle
95.0,2.0,2.0,0.0,3.0,3.0,598.4262730000864,2.0,1.0,part_1,,,,,,,,,,,,,gray,diamond
93.0,2.0,2.0,0.0,4.0,4.0,438.6374409998552,2.0,1.0,part_1,,,,,,,,,,,,,gray,diamond
410.0,4.0,4.0,0.0,4.0,4.0,378.920712000081,2.0,1.0,part_1,,,,,,,,,,,,,green,flipped triangle
0.0,5.0,0.0,1.0,1.0,1.0,391.3950209998802,2.0,1.0,part_1,,,,,,,,,,,,,magenta,circle
0.0,1.0,0.0,0.0,2.0,2.0,339.3592580000586,2.0,1.0,part_1,,,,,,,,,,,,,white,triangle
115.0,6.0,2.0,1.0,2.0,2.0,358.9516600000024,2.0,1.0,part_1,,,,,,,,,,,,,yellow,I
52.0,5.0,1.0,1.0,2.0,2.0,335.7406309999078,2.0,1.0,part_1,,,,,,,,,,,,,magenta,circle
57.0,5.0,1.0,1.0,4.0,4.0,435.3287960000216,2.0,1.0,part_1,,,,,,,,,,,,,magenta,circle
0.0,6.0,0.0,1.0,4.0,4.0,439.3744670001069,2.0,1.0,part_1,,,,,,,,,,,,,yellow,I
0.0,6.0,0.0,1.0,3.0,3.0,413.6285580000276,2.0,1.0,part_1,,,,,,,,,,,,,yellow,I
184.0,7.0,3.0,1.0,4.0,4.0,547.6257089999308,2.0,1.0,part_1,,,,,,,,,,,,,blue,cross
56.0,1.0,1.0,0.0,2.0,2.0,475.0149260000853,2.0,1.0,part_1,,,,,,,,,,,,,white,triangle
206.0,3.0,3.0,0.0,4.0,4.0,389.206028999979,2.0,1.0,part_1,,,,,,,,,,,,,orange,square
90.0,2.0,2.0,0.0,3.0,3.0,453.9676500000951,2.0,1.0,part_1,,,,,,,,,,,,,gray,diamond
185.0,7.0,3.0,1.0,4.0,4.0,434.519770000179,2.0,1.0,part_1,,,,,,,,,,,,,blue,cross
60.0,5.0,1.0,1.0,4.0,4.0,388.5231310000563,2.0,1.0,part_1,,,,,,,,,,,,,magenta,circle
57.0,1.0,1.0,0.0,1.0,1.0,482.8886820000662,2.0,1.0,part_1,,,,,,,,,,,,,white,triangle
381.0,8.0,4.0,1.0,4.0,4.0,522.0175739996193,2.0,1.0,part_1,,,,,,,,,,,,,cyan,hexagon
391.0,4.0,4.0,0.0,3.0,3.0,451.100647000203,2.0,1.0,part_1,,,,,,,,,,,,,green,flipped triangle
0.0,1.0,0.0,0.0,4.0,4.0,428.3742550001079,2.0,1.0,part_1,,,,,,,,,,,,,white,triangle
58.0,1.0,1.0,0.0,3.0,3.0,408.2935719998204,2.0,1.0,part_1,,,,,,,,,,,,,white,triangle
184.0,3.0,3.0,0.0,4.0,4.0,573.7165129999084,2.0,1.0,part_1,,,,,,,,,,,,,orange,square
80.0,6.0,2.0,1.0,2.0,2.0,832.003345999965,2.0,1.0,part_1,,,,,,,,,,,,,yellow,I
416.0,4.0,4.0,0.0,1.0,1.0,708.0105960003493,2.0,1.0,part_1,,,,,,,,,,,,,green,flipped triangle
0.0,3.0,0.0,0.0,4.0,4.0,589.1869430001861,2.0,1.0,part_1,,,,,,,,,,,,,orange,square
198.0,7.0,3.0,1.0,1.0,1.0,420.8942300001581,2.0,1.0,part_1,,,,,,,,,,,,,blue,cross
94.0,2.0,2.0,0.0,3.0,3.0,766.5312560002349,2.0,1.0,part_1,,,,,,,,,,,,,gray,diamond
216.0,3.0,3.0,0.0,1.0,1.0,511.77438400009123,2.0,1.0,part_1,,,,,,,,,,,,,orange,square
79.0,2.0,2.0,0.0,4.0,4.0,368.4570619998339,2.0,1.0,part_1,,,,,,,,,,,,,gray,diamond
113.0,6.0,2.0,1.0,3.0,3.0,433.167026999854,2.0,1.0,part_1,,,,,,,,,,,,,yellow,I
115.0,6.0,2.0,1.0,1.0,1.0,441.1597840003196,2.0,1.0,part_1,,,,,,,,,,,,,yellow,I
409.0,4.0,4.0,0.0,4.0,4.0,617.4308169997857,2.0,1.0,part_1,,,,,,,,,,,,,green,flipped triangle
69.0,1.0,1.0,0.0,4.0,4.0,501.82924999990064,2.0,1.0,part_1,,,,,,,,,,,,,white,triangle
219.0,3.0,3.0,0.0,2.0,2.0,496.0512410002593,2.0,1.0,part_1,,,,,,,,,,,,,orange,square
37.0,1.0,1.0,0.0,1.0,1.0,466.6191449996404,2.0,1.0,part_1,,,,,,,,,,,,,white,triangle
106.0,6.0,2.0,1.0,4.0,4.0,421.4733449998675,2.0,1.0,part_1,,,,,,,,,,,,,yellow,I
183.0,7.0,3.0,1.0,2.0,2.0,380.5506889998469,2.0,1.0,part_1,,,,,,,,,,,,,blue,cross
391.0,8.0,4.0,1.0,1.0,1.0,627.8422170003068,2.0,1.0,part_1,,,,,,,,,,,,,cyan,hexagon
42.0,1.0,1.0,0.0,3.0,3.0,448.0259860001752,2.0,1.0,part_1,,,,,,,,,,,,,white,triangle
187.0,3.0,3.0,0.0,4.0,4.0,403.4460560001207,2.0,1.0,part_1,,,,,,,,,,,,,orange,square
176.0,7.0,3.0,1.0,1.0,1.0,512.105290999898,3.0,1.0,part_1,,,,,,,,,,,,,blue,cross
0.0,6.0,0.0,1.0,4.0,4.0,432.5411590002659,3.0,1.0,part_1,,,,,,,,,,,,,yellow,I
0.0,5.0,0.0,1.0,3.0,3.0,439.6820359997946,3.0,1.0,part_1,,,,,,,,,,,,,magenta,circle
420.0,8.0,4.0,1.0,2.0,2.0,349.7971609999695,3.0,1.0,part_1,,,,,,,,,,,,,cyan,hexagon
194.0,3.0,3.0,0.0,2.0,2.0,343.7679210001079,3.0,1.0,part_1,,,,,,,,,,,,,orange,square
399.0,8.0,4.0,1.0,2.0,2.0,327.9615030000968,3.0,1.0,part_1,,,,,,,,,,,,,cyan,hexagon
0.0,3.0,0.0,0.0,3.0,3.0,379.7175209997476,3.0,1.0,part_1,,,,,,,,,,,,,orange,square
0.0,7.0,0.0,1.0,3.0,3.0,412.5563479997254,3.0,1.0,part_1,,,,,,,,,,,,,blue,cross
0.0,8.0,0.0,1.0,1.0,1.0,480.6574120002551,3.0,1.0,part_1,,,,,,,,,,,,,cyan,hexagon
59.0,1.0,1.0,0.0,2.0,2.0,415.9077950002938,3.0,1.0,part_1,,,,,,,,,,,,,white,triangle
195.0,3.0,3.0,0.0,2.0,2.0,340.0611340002797,3.0,1.0,part_1,,,,,,,,,,,,,orange,square
0.0,8.0,0.0,1.0,3.0,3.0,312.2816079999211,3.0,1.0,part_1,,,,,,,,,,,,,cyan,hexagon
0.0,1.0,0.0,0.0,3.0,3.0,424.6023470000182,3.0,1.0,part_1,,,,,,,,,,,,,white,triangle
0.0,7.0,0.0,1.0,3.0,3.0,372.9034309999406,3.0,1.0,part_1,,,,,,,,,,,,,blue,cross
202.0,7.0,3.0,1.0,1.0,1.0,490.7538909997129,3.0,1.0,part_1,,,,,,,,,,,,,blue,cross
88.0,6.0,2.0,1.0,2.0,2.0,324.2600359999414,3.0,1.0,part_1,,,,,,,,,,,,,yellow,I
381.0,4.0,4.0,0.0,3.0,3.0,354.691076999643,3.0,1.0,part_1,,,,,,,,,,,,,green,flipped triangle
194.0,7.0,3.0,1.0,1.0,1.0,501.77932700034944,3.0,1.0,part_1,,,,,,,,,,,,,blue,cross
82.0,6.0,2.0,1.0,4.0,4.0,509.4690300002185,3.0,1.0,part_1,,,,,,,,,,,,,yellow,I
54.0,5.0,1.0,1.0,1.0,1.0,556.1449520000679,3.0,1.0,part_1,,,,,,,,,,,,,magenta,circle
38.0,5.0,1.0,1.0,3.0,3.0,360.8718009995755,3.0,1.0,part_1,,,,,,,,,,,,,magenta,circle
0.0,7.0,0.0,1.0,2.0,2.0,345.8810970000741,3.0,1.0,part_1,,,,,,,,,,,,,blue,cross
0.0,5.0,0.0,1.0,4.0,4.0,369.2459429998962,3.0,1.0,part_1,,,,,,,,,,,,,magenta,circle
46.0,1.0,1.0,0.0,3.0,3.0,356.9877229997473,3.0,1.0,part_1,,,,,,,,,,,,,white,triangle
93.0,6.0,2.0,1.0,2.0,2.0,351.4152470002045,3.0,1.0,part_1,,,,,,,,,,,,,yellow,I
186.0,3.0,3.0,0.0,3.0,3.0,344.5832359998348,3.0,1.0,part_1,,,,,,,,,,,,,orange,square
0.0,8.0,0.0,1.0,4.0,4.0,435.4403090001142,3.0,1.0,part_1,,,,,,,,,,,,,cyan,hexagon
201.0,3.0,3.0,0.0,3.0,3.0,539.1143460001331,3.0,1.0,part_1,,,,,,,,,,,,,orange,square
202.0,3.0,3.0,0.0,2.0,2.0,349.8756040003172,3.0,1.0,part_1,,,,,,,,,,,,,orange,square
205.0,7.0,3.0,1.0,1.0,1.0,553.9188030002151,3.0,1.0,part_1,,,,,,,,,,,,,blue,cross
79.0,6.0,2.0,1.0,3.0,3.0,406.4711699998042,3.0,1.0,part_1,,,,,,,,,,,,,yellow,I
420.0,4.0,4.0,0.0,3.0,3.0,353.1973579997611,3.0,1.0,part_1,,,,,,,,,,,,,green,flipped triangle
385.0,8.0,4.0,1.0,1.0,1.0,445.5217390000143,3.0,1.0,part_1,,,,,,,,,,,,,cyan,hexagon
206.0,7.0,3.0,1.0,3.0,3.0,409.8067989998526,3.0,1.0,part_1,,,,,,,,,,,,,blue,cross
376.0,4.0,4.0,0.0,4.0,4.0,431.6074980001758,3.0,1.0,part_1,,,,,,,,,,,,,green,flipped triangle
376.0,8.0,4.0,1.0,3.0,3.0,445.7929260001947,3.0,1.0,part_1,,,,,,,,,,,,,cyan,hexagon
69.0,1.0,1.0,0.0,3.0,3.0,348.1406609998885,3.0,1.0,part_1,,,,,,,,,,,,,white,triangle
394.0,4.0,4.0,0.0,1.0,1.0,399.3088100000932,3.0,1.0,part_1,,,,,,,,,,,,,green,flipped triangle
386.0,4.0,4.0,0.0,1.0,1.0,426.0252699996272,3.0,1.0,part_1,,,,,,,,,,,,,green,flipped triangle
99.0,2.0,2.0,0.0,2.0,2.0,360.5408610001177,3.0,1.0,part_1,,,,,,,,,,,,,gray,diamond
397.0,8.0,4.0,1.0,3.0,3.0,367.6515209999706,3.0,1.0,part_1,,,,,,,,,,,,,cyan,hexagon
70.0,1.0,1.0,0.0,4.0,4.0,650.7635480002136,3.0,1.0,part_1,,,,,,,,,,,,,white,triangle
409.0,8.0,4.0,1.0,2.0,2.0,372.8801130000647,3.0,1.0,part_1,,,,,,,,,,,,,cyan,hexagon
123.0,6.0,2.0,1.0,1.0,1.0,577.9732330001934,3.0,1.0,part_1,,,,,,,,,,,,,yellow,I
0.0,5.0,0.0,1.0,4.0,4.0,848.2169769999928,3.0,1.0,part_1,,,,,,,,,,,,,magenta,circle
0.0,8.0,0.0,1.0,4.0,4.0,759.7637019998729,3.0,1.0,part_1,,,,,,,,,,,,,cyan,hexagon
85.0,6.0,2.0,1.0,2.0,2.0,437.3724259999108,3.0,1.0,part_1,,,,,,,,,,,,,yellow,I
94.0,6.0,2.0,1.0,3.0,3.0,361.2635389999923,3.0,1.0,part_1,,,,,,,,,,,,,yellow,I
183.0,3.0,3.0,0.0,1.0,1.0,521.9803119998687,3.0,1.0,part_1,,,,,,,,,,,,,orange,square
78.0,2.0,2.0,0.0,1.0,1.0,474.2788900002779,3.0,1.0,part_1,,,,,,,,,,,,,gray,diamond
69.0,5.0,1.0,1.0,3.0,3.0,457.8284730000632,3.0,1.0,part_1,,,,,,,,,,,,,magenta,circle
424.0,8.0,4.0,1.0,4.0,4.0,573.2443040001272,3.0,1.0,part_1,,,,,,,,,,,,,cyan,hexagon
376.0,4.0,4.0,0.0,1.0,1.0,407.2323390000747,3.0,1.0,part_1,,,,,,,,,,,,,green,flipped triangle
208.0,3.0,3.0,0.0,4.0,4.0,462.9842060003284,3.0,1.0,part_1,,,,,,,,,,,,,orange,square
198.0,7.0,3.0,1.0,2.0,2.0,564.6492099999705,3.0,1.0,part_1,,,,,,,,,,,,,blue,cross
0.0,5.0,0.0,1.0,1.0,1.0,458.5487720000856,3.0,1.0,part_1,,,,,,,,,,,,,magenta,circle
0.0,2.0,0.0,0.0,4.0,4.0,509.1993019996153,3.0,1.0,part_1,,,,,,,,,,,,,gray,diamond
0.0,2.0,0.0,0.0,1.0,1.0,409.5779690001109,3.0,1.0,part_1,,,,,,,,,,,,,gray,diamond
193.0,3.0,3.0,0.0,4.0,4.0,429.9704659997587,3.0,1.0,part_1,,,,,,,,,,,,,orange,square
0.0,4.0,0.0,0.0,4.0,4.0,416.495918000237,3.0,1.0,part_1,,,,,,,,,,,,,green,flipped triangle
40.0,5.0,1.0,1.0,4.0,4.0,510.8819619999849,3.0,1.0,part_1,,,,,,,,,,,,,magenta,circle
44.0,5.0,1.0,1.0,2.0,2.0,461.2121599998318,3.0,1.0,part_1,,,,,,,,,,,,,magenta,circle
0.0,4.0,0.0,0.0,3.0,3.0,441.0440100000414,3.0,1.0,part_1,,,,,,,,,,,,,green,flipped triangle
43.0,1.0,1.0,0.0,1.0,1.0,506.44699800022863,3.0,1.0,part_1,,,,,,,,,,,,,white,triangle
42.0,5.0,1.0,1.0,2.0,2.0,406.8459810000604,3.0,1.0,part_1,,,,,,,,,,,,,magenta,circle
82.0,2.0,2.0,0.0,1.0,1.0,529.6751840000979,3.0,1.0,part_1,,,,,,,,,,,,,gray,diamond
194.0,3.0,3.0,0.0,4.0,4.0,679.388476999975,3.0,1.0,part_1,,,,,,,,,,,,,orange,square
193.0,7.0,3.0,1.0,4.0,4.0,681.0978030002843,3.0,1.0,part_1,,,,,,,,,,,,,blue,cross
121.0,6.0,2.0,1.0,1.0,1.0,416.8205959999795,3.0,1.0,part_1,,,,,,,,,,,,,yellow,I
117.0,6.0,2.0,1.0,1.0,1.0,564.8875110000517,3.0,1.0,part_1,,,,,,,,,,,,,yellow,I
27.0,5.0,1.0,1.0,1.0,1.0,566.770631000054,3.0,1.0,part_1,,,,,,,,,,,,,magenta,circle
120.0,2.0,2.0,0.0,1.0,1.0,466.3840200000777,3.0,1.0,part_1,,,,,,,,,,,,,gray,diamond
42.0,1.0,1.0,0.0,1.0,1.0,361.242418999609,3.0,1.0,part_1,,,,,,,,,,,,,white,triangle
0.0,2.0,0.0,0.0,1.0,1.0,397.244695000154,3.0,1.0,part_1,,,,,,,,,,,,,gray,diamond
0.0,7.0,0.0,1.0,2.0,2.0,331.3033239996912,3.0,1.0,part_1,,,,,,,,,,,,,blue,cross
395.0,8.0,4.0,1.0,1.0,1.0,528.1857959998888,3.0,1.0,part_1,,,,,,,,,,,,,cyan,hexagon
216.0,7.0,3.0,1.0,3.0,3.0,437.268222000057,3.0,1.0,part_1,,,,,,,,,,,,,blue,cross
0.0,4.0,0.0,0.0,1.0,1.0,427.6971819999744,3.0,1.0,part_1,,,,,,,,,,,,,green,flipped triangle
0.0,5.0,0.0,1.0,1.0,1.0,393.6383459999888,3.0,1.0,part_1,,,,,,,,,,,,,magenta,circle
214.0,7.0,3.0,1.0,4.0,4.0,622.006274999876,3.0,1.0,part_1,,,,,,,,,,,,,blue,cross
208.0,7.0,3.0,1.0,1.0,1.0,390.9604890000082,3.0,1.0,part_1,,,,,,,,,,,,,blue,cross
203.0,7.0,3.0,1.0,2.0,2.0,316.1584740000762,3.0,1.0,part_1,,,,,,,,,,,,,blue,cross
0.0,1.0,0.0,0.0,4.0,4.0,298.6425760000202,3.0,1.0,part_1,,,,,,,,,,,,,white,triangle
0.0,3.0,0.0,0.0,2.0,2.0,309.1108520002308,3.0,1.0,part_1,,,,,,,,,,,,,orange,square
401.0,8.0,4.0,1.0,1.0,1.0,329.1594920001444,3.0,1.0,part_1,,,,,,,,,,,,,cyan,hexagon
214.0,7.0,3.0,1.0,4.0,4.0,341.6965430001255,3.0,1.0,part_1,,,,,,,,,,,,,blue,cross
406.0,4.0,4.0,0.0,2.0,2.0,326.8902579998212,3.0,1.0,part_1,,,,,,,,,,,,,green,flipped triangle
66.0,1.0,1.0,0.0,2.0,2.0,387.498062999839,3.0,1.0,part_1,,,,,,,,,,,,,white,triangle
35.0,1.0,1.0,0.0,4.0,4.0,434.3390200001522,3.0,1.0,part_1,,,,,,,,,,,,,white,triangle
383.0,8.0,4.0,1.0,4.0,4.0,360.5610999998134,3.0,1.0,part_1,,,,,,,,,,,,,cyan,hexagon
80.0,6.0,2.0,1.0,4.0,4.0,387.822805000269,3.0,1.0,part_1,,,,,,,,,,,,,yellow,I
425.0,4.0,4.0,0.0,1.0,1.0,386.4196829999855,3.0,1.0,part_1,,,,,,,,,,,,,green,flipped triangle
53.0,5.0,1.0,1.0,2.0,2.0,417.1206390001316,3.0,1.0,part_1,,,,,,,,,,,,,magenta,circle
74.0,5.0,1.0,1.0,3.0,3.0,462.3813879998124,3.0,1.0,part_1,,,,,,,,,,,,,magenta,circle
78.0,6.0,2.0,1.0,2.0,2.0,393.3711710001262,3.0,1.0,part_1,,,,,,,,,,,,,yellow,I
82.0,6.0,2.0,1.0,4.0,4.0,361.4863329999025,3.0,1.0,part_1,,,,,,,,,,,,,yellow,I
40.0,1.0,1.0,0.0,4.0,4.0,439.4861519999722,3.0,1.0,part_1,,,,,,,,,,,,,white,triangle
405.0,4.0,4.0,0.0,2.0,2.0,365.863777999948,3.0,1.0,part_1,,,,,,,,,,,,,green,flipped triangle
194.0,3.0,3.0,0.0,3.0,3.0,377.6571729999887,3.0,1.0,part_1,,,,,,,,,,,,,orange,square
108.0,2.0,2.0,0.0,3.0,3.0,323.8063769999826,3.0,1.0,part_1,,,,,,,,,,,,,gray,diamond
401.0,8.0,4.0,1.0,2.0,2.0,511.5450960001908,4.0,1.0,part_1,,,,,,,,,,,,,cyan,hexagon
116.0,2.0,2.0,0.0,4.0,4.0,414.58994200002047,4.0,1.0,part_1,,,,,,,,,,,,,gray,diamond
0.0,4.0,0.0,0.0,3.0,3.0,524.9210639999546,4.0,1.0,part_1,,,,,,,,,,,,,green,flipped triangle
110.0,6.0,2.0,1.0,2.0,2.0,329.4220739999218,4.0,1.0,part_1,,,,,,,,,,,,,yellow,I
401.0,8.0,4.0,1.0,3.0,3.0,376.5151200000218,4.0,1.0,part_1,,,,,,,,,,,,,cyan,hexagon
26.0,5.0,1.0,1.0,1.0,1.0,498.0770910001411,4.0,1.0,part_1,,,,,,,,,,,,,magenta,circle
202.0,3.0,3.0,0.0,1.0,1.0,381.3445499999943,4.0,1.0,part_1,,,,,,,,,,,,,orange,square
0.0,8.0,0.0,1.0,4.0,4.0,386.027235000256,4.0,1.0,part_1,,,,,,,,,,,,,cyan,hexagon
113.0,6.0,2.0,1.0,4.0,4.0,445.43045599994,4.0,1.0,part_1,,,,,,,,,,,,,yellow,I
409.0,4.0,4.0,0.0,1.0,1.0,417.6297720000548,4.0,1.0,part_1,,,,,,,,,,,,,green,flipped triangle
56.0,5.0,1.0,1.0,1.0,1.0,383.3659329998227,4.0,1.0,part_1,,,,,,,,,,,,,magenta,circle
187.0,3.0,3.0,0.0,2.0,2.0,299.7663649998685,4.0,1.0,part_1,,,,,,,,,,,,,orange,square
392.0,4.0,4.0,0.0,3.0,3.0,440.7084649997159,4.0,1.0,part_1,,,,,,,,,,,,,green,flipped triangle
385.0,4.0,4.0,0.0,3.0,3.0,379.9743409999792,4.0,1.0,part_1,,,,,,,,,,,,,green,flipped triangle
183.0,7.0,3.0,1.0,4.0,4.0,591.8272670000988,4.0,1.0,part_1,,,,,,,,,,,,,blue,cross
25.0,5.0,1.0,1.0,3.0,3.0,384.5381709998037,4.0,1.0,part_1,,,,,,,,,,,,,magenta,circle
32.0,5.0,1.0,1.0,1.0,1.0,356.0995309999271,4.0,1.0,part_1,,,,,,,,,,,,,magenta,circle
385.0,8.0,4.0,1.0,1.0,1.0,410.4459810000662,4.0,1.0,part_1,,,,,,,,,,,,,cyan,hexagon
54.0,1.0,1.0,0.0,3.0,3.0,592.3259209998832,4.0,1.0,part_1,,,,,,,,,,,,,white,triangle
0.0,3.0,0.0,0.0,3.0,3.0,349.1783720000967,4.0,1.0,part_1,,,,,,,,,,,,,orange,square
113.0,2.0,2.0,0.0,1.0,1.0,371.0191039999699,4.0,1.0,part_1,,,,,,,,,,,,,gray,diamond
99.0,6.0,2.0,1.0,2.0,2.0,345.7931089997146,4.0,1.0,part_1,,,,,,,,,,,,,yellow,I
67.0,1.0,1.0,0.0,1.0,1.0,385.3048860000854,4.0,1.0,part_1,,,,,,,,,,,,,white,triangle
403.0,4.0,4.0,0.0,4.0,4.0,451.55421499976,4.0,1.0,part_1,,,,,,,,,,,,,green,flipped triangle
193.0,3.0,3.0,0.0,1.0,1.0,537.4865200001295,4.0,1.0,part_1,,,,,,,,,,,,,orange,square
51.0,1.0,1.0,0.0,3.0,3.0,521.0461449996728,4.0,1.0,part_1,,,,,,,,,,,,,white,triangle
0.0,1.0,0.0,0.0,1.0,1.0,546.0254839999834,4.0,1.0,part_1,,,,,,,,,,,,,white,triangle
46.0,5.0,1.0,1.0,4.0,4.0,654.3340569996872,4.0,1.0,part_1,,,,,,,,,,,,,magenta,circle
383.0,4.0,4.0,0.0,4.0,4.0,407.2473020000871,4.0,1.0,part_1,,,,,,,,,,,,,green,flipped triangle
115.0,6.0,2.0,1.0,2.0,2.0,344.7631839999303,4.0,1.0,part_1,,,,,,,,,,,,,yellow,I
103.0,2.0,2.0,0.0,2.0,2.0,337.6909800003886,4.0,1.0,part_1,,,,,,,,,,,,,gray,diamond
71.0,1.0,1.0,0.0,2.0,2.0,335.1747830001841,4.0,1.0,part_1,,,,,,,,,,,,,white,triangle
0.0,4.0,0.0,0.0,3.0,3.0,358.2492260002254,4.0,1.0,part_1,,,,,,,,,,,,,green,flipped triangle
0.0,1.0,0.0,0.0,4.0,4.0,475.0586740001381,4.0,1.0,part_1,,,,,,,,,,,,,white,triangle
0.0,6.0,0.0,1.0,2.0,2.0,286.0359870001048,4.0,1.0,part_1,,,,,,,,,,,,,yellow,I
198.0,3.0,3.0,0.0,3.0,3.0,364.3340080002417,4.0,1.0,part_1,,,,,,,,,,,,,orange,square
202.0,7.0,3.0,1.0,2.0,2.0,328.879343999688,4.0,1.0,part_1,,,,,,,,,,,,,blue,cross
0.0,5.0,0.0,1.0,3.0,3.0,376.6752930000621,4.0,1.0,part_1,,,,,,,,,,,,,magenta,circle
32.0,1.0,1.0,0.0,1.0,1.0,600.0932639999519,4.0,1.0,part_1,,,,,,,,,,,,,white,triangle
394.0,4.0,4.0,0.0,1.0,1.0,864.0579969996907,4.0,1.0,part_1,,,,,,,,,,,,,green,flipped triangle
214.0,3.0,3.0,0.0,2.0,2.0,696.946879999814,4.0,1.0,part_1,,,,,,,,,,,,,orange,square
0.0,6.0,0.0,1.0,4.0,4.0,812.2196040003473,4.0,1.0,part_1,,,,,,,,,,,,,yellow,I
48.0,5.0,1.0,1.0,3.0,3.0,412.7090630004204,4.0,1.0,part_1,,,,,,,,,,,,,magenta,circle
423.0,8.0,4.0,1.0,4.0,4.0,440.7359880001422,4.0,1.0,part_1,,,,,,,,,,,,,cyan,hexagon
32.0,1.0,1.0,0.0,2.0,2.0,324.5922849996532,4.0,1.0,part_1,,,,,,,,,,,,,white,triangle
123.0,2.0,2.0,0.0,4.0,4.0,375.1609209998605,4.0,1.0,part_1,,,,,,,,,,,,,gray,diamond
390.0,4.0,4.0,0.0,2.0,2.0,439.4777349998549,4.0,1.0,part_1,,,,,,,,,,,,,green,flipped triangle
0.0,7.0,0.0,1.0,3.0,3.0,431.3244309996662,4.0,1.0,part_1,,,,,,,,,,,,,blue,cross
219.0,7.0,3.0,1.0,2.0,2.0,374.8506319998341,4.0,1.0,part_1,,,,,,,,,,,,,blue,cross
224.0,7.0,3.0,1.0,1.0,1.0,413.8018980002016,4.0,1.0,part_1,,,,,,,,,,,,,blue,cross
201.0,7.0,3.0,1.0,3.0,3.0,331.348066999908,4.0,1.0,part_1,,,,,,,,,,,,,blue,cross
419.0,4.0,4.0,0.0,2.0,2.0,608.0059289997735,4.0,1.0,part_1,,,,,,,,,,,,,green,flipped triangle
80.0,2.0,2.0,0.0,1.0,1.0,491.6638800000328,4.0,1.0,part_1,,,,,,,,,,,,,gray,diamond
0.0,6.0,0.0,1.0,2.0,2.0,320.8589930000016,4.0,1.0,part_1,,,,,,,,,,,,,yellow,I
201.0,3.0,3.0,0.0,4.0,4.0,476.3072160003503,4.0,1.0,part_1,,,,,,,,,,,,,orange,square
123.0,2.0,2.0,0.0,1.0,1.0,407.6674519997141,4.0,1.0,part_1,,,,,,,,,,,,,gray,diamond
60.0,1.0,1.0,0.0,4.0,4.0,413.4562069998537,4.0,1.0,part_1,,,,,,,,,,,,,white,triangle
67.0,5.0,1.0,1.0,3.0,3.0,398.919067999941,4.0,1.0,part_1,,,,,,,,,,,,,magenta,circle
198.0,3.0,3.0,0.0,1.0,1.0,299.672546000238,4.0,1.0,part_1,,,,,,,,,,,,,orange,square
396.0,4.0,4.0,0.0,2.0,2.0,347.134178000033,4.0,1.0,part_1,,,,,,,,,,,,,green,flipped triangle
38.0,1.0,1.0,0.0,1.0,1.0,348.5222819999762,4.0,1.0,part_1,,,,,,,,,,,,,white,triangle
0.0,2.0,0.0,0.0,1.0,1.0,551.4355400000568,4.0,1.0,part_1,,,,,,,,,,,,,gray,diamond
94.0,6.0,2.0,1.0,4.0,4.0,359.4989670000359,4.0,1.0,part_1,,,,,,,,,,,,,yellow,I
186.0,7.0,3.0,1.0,4.0,4.0,422.8854409998348,4.0,1.0,part_1,,,,,,,,,,,,,blue,cross
219.0,7.0,3.0,1.0,2.0,2.0,431.4658050002435,4.0,1.0,part_1,,,,,,,,,,,,,blue,cross
37.0,1.0,1.0,0.0,3.0,3.0,553.3579789998839,4.0,1.0,part_1,,,,,,,,,,,,,white,triangle
0.0,7.0,0.0,1.0,4.0,4.0,724.5269539998844,4.0,1.0,part_1,,,,,,,,,,,,,blue,cross
176.0,7.0,3.0,1.0,4.0,4.0,560.7867109997642,4.0,1.0,part_1,,,,,,,,,,,,,blue,cross
0.0,7.0,0.0,1.0,1.0,1.0,425.6699099996694,4.0,1.0,part_1,,,,,,,,,,,,,blue,cross
183.0,3.0,3.0,0.0,2.0,2.0,374.3129140002565,4.0,1.0,part_1,,,,,,,,,,,,,orange,square
87.0,2.0,2.0,0.0,4.0,4.0,764.6937640001852,4.0,1.0,part_1,,,,,,,,,,,,,gray,diamond
115.0,2.0,2.0,0.0,4.0,4.0,361.4292649999697,4.0,1.0,part_1,,,,,,,,,,,,,gray,diamond
120.0,6.0,2.0,1.0,1.0,1.0,336.7994219997854,4.0,1.0,part_1,,,,,,,,,,,,,yellow,I
113.0,2.0,2.0,0.0,3.0,3.0,483.5140480004156,4.0,1.0,part_1,,,,,,,,,,,,,gray,diamond
0.0,8.0,0.0,1.0,2.0,2.0,379.9488580002617,4.0,1.0,part_1,,,,,,,,,,,,,cyan,hexagon
390.0,4.0,4.0,0.0,2.0,2.0,327.006171999983,4.0,1.0,part_1,,,,,,,,,,,,,green,flipped triangle
0.0,6.0,0.0,1.0,3.0,3.0,357.5200409995887,4.0,1.0,part_1,,,,,,,,,,,,,yellow,I
390.0,8.0,4.0,1.0,2.0,2.0,370.5926869997711,4.0,1.0,part_1,,,,,,,,,,,,,cyan,hexagon
0.0,3.0,0.0,0.0,3.0,3.0,446.1748399999123,4.0,1.0,part_1,,,,,,,,,,,,,orange,square
0.0,3.0,0.0,0.0,4.0,4.0,545.8731949997855,4.0,1.0,part_1,,,,,,,,,,,,,orange,square
78.0,6.0,2.0,1.0,4.0,4.0,417.059786000209,4.0,1.0,part_1,,,,,,,,,,,,,yellow,I
110.0,2.0,2.0,0.0,2.0,2.0,394.0724340000088,4.0,1.0,part_1,,,,,,,,,,,,,gray,diamond
0.0,1.0,0.0,0.0,1.0,1.0,377.4530309997317,4.0,1.0,part_1,,,,,,,,,,,,,white,triangle
64.0,5.0,1.0,1.0,2.0,2.0,373.286504999669,4.0,1.0,part_1,,,,,,,,,,,,,magenta,circle
407.0,8.0,4.0,1.0,2.0,2.0,266.2880570001107,4.0,1.0,part_1,,,,,,,,,,,,,cyan,hexagon
401.0,4.0,4.0,0.0,3.0,3.0,496.0339979998025,4.0,1.0,part_1,,,,,,,,,,,,,green,flipped triangle
0.0,4.0,0.0,0.0,3.0,3.0,377.3599999999533,4.0,1.0,part_1,,,,,,,,,,,,,green,flipped triangle
407.0,4.0,4.0,0.0,4.0,4.0,368.8754849999895,4.0,1.0,part_1,,,,,,,,,,,,,green,flipped triangle
401.0,8.0,4.0,1.0,3.0,3.0,336.7209520001779,4.0,1.0,part_1,,,,,,,,,,,,,cyan,hexagon
203.0,3.0,3.0,0.0,1.0,1.0,392.5798699997358,4.0,1.0,part_1,,,,,,,,,,,,,orange,square
87.0,6.0,2.0,1.0,1.0,1.0,388.1708819999403,4.0,1.0,part_1,,,,,,,,,,,,,yellow,I
82.0,6.0,2.0,1.0,3.0,3.0,491.4359890003652,4.0,1.0,part_1,,,,,,,,,,,,,yellow,I
45.0,5.0,1.0,1.0,2.0,2.0,374.409198000194,4.0,1.0,part_1,,,,,,,,,,,,,magenta,circle
95.0,2.0,2.0,0.0,4.0,4.0,460.803128000407,4.0,1.0,part_1,,,,,,,,,,,,,gray,diamond
0.0,2.0,0.0,0.0,3.0,3.0,333.8106800001696,4.0,1.0,part_1,,,,,,,,,,,,,gray,diamond
219.0,7.0,3.0,1.0,2.0,2.0,330.4206950001571,4.0,1.0,part_1,,,,,,,,,,,,,blue,cross
85.0,2.0,2.0,0.0,2.0,2.0,306.44069400023,4.0,1.0,part_1,,,,,,,,,,,,,gray,diamond
96.0,6.0,2.0,1.0,1.0,1.0,606.3243640001019,4.0,1.0,part_1,,,,,,,,,,,,,yellow,I
0.0,7.0,0.0,1.0,2.0,2.0,367.5021740000375,4.0,1.0,part_1,,,,,,,,,,,,,blue,cross
376.0,8.0,4.0,1.0,3.0,3.0,420.6436929998745,4.0,1.0,part_1,,,,,,,,,,,,,cyan,hexagon
0.0,2.0,2.0,0.0,6.0,6.0,361.5748889997121,1.0,0.0,part_2,go,250.0,250.0,1.0,,,,,,,,,gray,diamond
0.0,4.0,4.0,0.0,5.0,5.0,307.6789380002083,1.0,0.0,part_2,go,250.0,250.0,1.0,,,,,,,,,green,flipped triangle
0.0,2.0,2.0,0.0,6.0,6.0,247.8626189999886,1.0,0.0,part_2,go,250.0,250.0,1.0,,,,,,,,,gray,diamond
0.0,5.0,1.0,1.0,5.0,0.0,0.0,1.0,0.0,part_2,stop,250.0,250.0,4.0,,,,,,,,,magenta,circle
0.0,5.0,1.0,1.0,6.0,6.0,213.58995299988229,1.0,0.0,part_2,stop,300.0,250.0,3.0,,,,,,,,,magenta,circle
0.0,3.0,3.0,0.0,5.0,5.0,287.5750329999391,1.0,0.0,part_2,go,300.0,200.0,1.0,,,,,,,,,orange,square
0.0,2.0,2.0,0.0,5.0,5.0,333.7821309996798,1.0,0.0,part_2,go,300.0,200.0,1.0,,,,,,,,,gray,diamond
0.0,2.0,2.0,0.0,5.0,5.0,364.2588669999895,1.0,0.0,part_2,go,300.0,200.0,1.0,,,,,,,,,gray,diamond
0.0,8.0,4.0,1.0,6.0,6.0,284.1857920002439,1.0,0.0,part_2,stop,300.0,200.0,3.0,,,,,,,,,cyan,hexagon
0.0,1.0,1.0,0.0,6.0,6.0,560.0760709999122,1.0,0.0,part_2,go,300.0,150.0,1.0,,,,,,,,,white,triangle
0.0,4.0,4.0,0.0,5.0,5.0,309.4674429999031,1.0,0.0,part_2,go,300.0,150.0,1.0,,,,,,,,,green,flipped triangle
0.0,5.0,1.0,1.0,6.0,0.0,0.0,1.0,0.0,part_2,stop,300.0,150.0,4.0,,,,,,,,,magenta,circle
0.0,5.0,1.0,1.0,5.0,5.0,350.9806719998778,1.0,0.0,part_2,stop,300.0,200.0,3.0,,,,,,,,,magenta,circle
0.0,5.0,1.0,1.0,6.0,0.0,0.0,1.0,0.0,part_2,stop,250.0,200.0,4.0,,,,,,,,,magenta,circle
0.0,1.0,1.0,0.0,5.0,5.0,466.9517460001771,1.0,0.0,part_2,go,250.0,250.0,1.0,,,,,,,,,white,triangle
0.0,3.0,3.0,0.0,6.0,6.0,490.9945829999742,1.0,0.0,part_2,go,250.0,250.0,1.0,,,,,,,,,orange,square
0.0,8.0,4.0,1.0,5.0,0.0,0.0,1.0,0.0,part_2,stop,250.0,250.0,4.0,,,,,,,,,cyan,hexagon
0.0,5.0,1.0,1.0,5.0,0.0,0.0,1.0,0.0,part_2,stop,300.0,250.0,4.0,,,,,,,,,magenta,circle
0.0,2.0,2.0,0.0,6.0,6.0,907.5803269997778,1.0,0.0,part_2,go,350.0,250.0,1.0,,,,,,,,,gray,diamond
0.0,3.0,3.0,0.0,6.0,6.0,538.6430690000452,1.0,0.0,part_2,go,350.0,250.0,1.0,,,,,,,,,orange,square
0.0,1.0,1.0,0.0,5.0,5.0,574.9312890002329,1.0,0.0,part_2,go,350.0,250.0,1.0,,,,,,,,,white,triangle
0.0,1.0,1.0,0.0,6.0,6.0,354.6087619997706,1.0,0.0,part_2,go,350.0,250.0,1.0,,,,,,,,,white,triangle
0.0,2.0,2.0,0.0,6.0,6.0,322.4981359999219,1.0,0.0,part_2,go,350.0,250.0,1.0,,,,,,,,,gray,diamond
0.0,8.0,4.0,1.0,6.0,0.0,0.0,1.0,0.0,part_2,stop,350.0,250.0,4.0,,,,,,,,,cyan,hexagon
0.0,3.0,3.0,0.0,6.0,6.0,367.4293459998807,1.0,0.0,part_2,go,350.0,300.0,1.0,,,,,,,,,orange,square
0.0,3.0,3.0,0.0,6.0,6.0,300.5347600001187,1.0,0.0,part_2,go,350.0,300.0,1.0,,,,,,,,,orange,square
0.0,6.0,2.0,1.0,5.0,5.0,395.9845909998876,1.0,0.0,part_2,stop,350.0,300.0,3.0,,,,,,,,,yellow,I
0.0,5.0,1.0,1.0,6.0,6.0,329.2521500002294,1.0,0.0,part_2,go,300.0,300.0,1.0,,,,,,,,,magenta,circle
0.0,3.0,3.0,0.0,5.0,5.0,319.5328920000975,1.0,0.0,part_2,go,300.0,300.0,1.0,,,,,,,,,orange,square
0.0,2.0,2.0,0.0,6.0,6.0,321.6178280003987,1.0,0.0,part_2,go,300.0,300.0,1.0,,,,,,,,,gray,diamond
0.0,3.0,3.0,0.0,6.0,6.0,308.3013170003141,1.0,0.0,part_2,go,300.0,300.0,1.0,,,,,,,,,orange,square
0.0,2.0,2.0,0.0,6.0,6.0,284.0400709997084,1.0,0.0,part_2,go,300.0,300.0,1.0,,,,,,,,,gray,diamond
0.0,7.0,3.0,1.0,6.0,6.0,298.3447840001645,1.0,0.0,part_2,go,300.0,300.0,1.0,,,,,,,,,blue,cross
0.0,1.0,1.0,0.0,5.0,5.0,350.5167719999917,1.0,0.0,part_2,go,300.0,300.0,1.0,,,,,,,,,white,triangle
0.0,6.0,2.0,1.0,6.0,6.0,291.3897849998648,1.0,0.0,part_2,stop,300.0,300.0,3.0,,,,,,,,,yellow,I
0.0,4.0,4.0,0.0,5.0,5.0,334.3288159999247,1.0,0.0,part_2,go,300.0,250.0,1.0,,,,,,,,,green,flipped triangle
0.0,2.0,2.0,0.0,5.0,5.0,680.0025090001327,2.0,0.0,part_2,go,300.0,250.0,1.0,,,,,,,,,gray,diamond
0.0,6.0,2.0,1.0,5.0,0.0,0.0,2.0,0.0,part_2,stop,300.0,250.0,4.0,,,,,,,,,yellow,I
0.0,2.0,2.0,0.0,5.0,5.0,740.9214490003251,2.0,0.0,part_2,go,350.0,250.0,1.0,,,,,,,,,gray,diamond
0.0,5.0,1.0,1.0,6.0,0.0,0.0,2.0,0.0,part_2,stop,350.0,250.0,4.0,,,,,,,,,magenta,circle
0.0,3.0,3.0,0.0,5.0,5.0,1013.9934939998057,2.0,0.0,part_2,go,350.0,300.0,1.0,,,,,,,,,orange,square
0.0,5.0,1.0,1.0,5.0,5.0,874.6176780000496,2.0,0.0,part_2,go,350.0,300.0,1.0,,,,,,,,,magenta,circle
0.0,8.0,4.0,1.0,5.0,5.0,832.0607619998555,2.0,0.0,part_2,go,350.0,300.0,1.0,,,,,,,,,cyan,hexagon
0.0,5.0,1.0,1.0,6.0,0.0,0.0,2.0,0.0,part_2,stop,350.0,300.0,4.0,,,,,,,,,magenta,circle
0.0,7.0,3.0,1.0,6.0,0.0,0.0,2.0,0.0,part_2,stop,350.0,350.0,4.0,,,,,,,,,blue,cross
0.0,2.0,2.0,0.0,5.0,5.0,901.954939999996,2.0,0.0,part_2,go,350.0,400.0,1.0,,,,,,,,,gray,diamond
0.0,4.0,4.0,0.0,6.0,6.0,757.9902249999577,2.0,0.0,part_2,go,350.0,400.0,1.0,,,,,,,,,green,flipped triangle
0.0,5.0,1.0,1.0,5.0,5.0,628.2416230001218,2.0,0.0,part_2,go,350.0,400.0,1.0,,,,,,,,,magenta,circle
0.0,8.0,4.0,1.0,6.0,6.0,630.6943039999169,2.0,0.0,part_2,go,350.0,400.0,1.0,,,,,,,,,cyan,hexagon
0.0,5.0,1.0,1.0,5.0,0.0,0.0,2.0,0.0,part_2,stop,350.0,400.0,4.0,,,,,,,,,magenta,circle
0.0,6.0,2.0,1.0,5.0,5.0,595.3577079999377,2.0,0.0,part_2,go,400.0,400.0,1.0,,,,,,,,,yellow,I
0.0,1.0,1.0,0.0,6.0,6.0,798.851046999971,2.0,0.0,part_2,go,400.0,400.0,1.0,,,,,,,,,white,triangle
0.0,1.0,1.0,0.0,6.0,6.0,854.9842219999846,2.0,0.0,part_2,go,400.0,400.0,1.0,,,,,,,,,white,triangle
0.0,7.0,3.0,1.0,6.0,6.0,953.6705789996632,2.0,0.0,part_2,go,400.0,400.0,1.0,,,,,,,,,blue,cross
0.0,8.0,4.0,1.0,6.0,0.0,0.0,2.0,0.0,part_2,stop,400.0,400.0,4.0,,,,,,,,,cyan,hexagon
0.0,4.0,4.0,0.0,6.0,6.0,824.9495459999707,2.0,0.0,part_2,go,400.0,450.0,1.0,,,,,,,,,green,flipped triangle
0.0,4.0,4.0,0.0,5.0,5.0,649.0877530000034,2.0,0.0,part_2,go,400.0,450.0,1.0,,,,,,,,,green,flipped triangle
0.0,8.0,4.0,1.0,6.0,0.0,0.0,2.0,0.0,part_2,stop,400.0,450.0,4.0,,,,,,,,,cyan,hexagon
0.0,7.0,3.0,1.0,6.0,6.0,575.7190990002528,2.0,0.0,part_2,go,400.0,500.0,1.0,,,,,,,,,blue,cross
0.0,6.0,2.0,1.0,5.0,5.0,824.0959760000806,2.0,0.0,part_2,go,400.0,500.0,1.0,,,,,,,,,yellow,I
0.0,3.0,3.0,0.0,6.0,6.0,771.5022399997906,2.0,0.0,part_2,go,400.0,500.0,1.0,,,,,,,,,orange,square
0.0,1.0,1.0,0.0,6.0,6.0,998.4758069999772,2.0,0.0,part_2,go,400.0,500.0,1.0,,,,,,,,,white,triangle
0.0,4.0,4.0,0.0,6.0,6.0,873.2401639999807,2.0,0.0,part_2,go,400.0,500.0,1.0,,,,,,,,,green,flipped triangle
0.0,2.0,2.0,0.0,6.0,6.0,573.933752999892,2.0,0.0,part_2,go,400.0,500.0,1.0,,,,,,,,,gray,diamond
0.0,8.0,4.0,1.0,5.0,0.0,0.0,2.0,0.0,part_2,stop,400.0,500.0,4.0,,,,,,,,,cyan,hexagon
0.0,1.0,1.0,0.0,5.0,5.0,674.2954819997067,2.0,0.0,part_2,go,450.0,500.0,1.0,,,,,,,,,white,triangle
0.0,1.0,1.0,0.0,5.0,5.0,605.0557290000143,2.0,0.0,part_2,go,450.0,500.0,1.0,,,,,,,,,white,triangle
0.0,7.0,3.0,1.0,6.0,0.0,0.0,2.0,0.0,part_2,stop,450.0,500.0,4.0,,,,,,,,,blue,cross
0.0,4.0,4.0,0.0,6.0,6.0,954.5466879999368,2.0,0.0,part_2,go,450.0,550.0,1.0,,,,,,,,,green,flipped triangle
0.0,1.0,1.0,0.0,6.0,6.0,599.0069190002032,2.0,0.0,part_2,go,450.0,550.0,1.0,,,,,,,,,white,triangle
0.0,1.0,1.0,0.0,6.0,6.0,909.4440930002748,2.0,0.0,part_2,go,450.0,550.0,1.0,,,,,,,,,white,triangle
0.0,4.0,4.0,0.0,6.0,6.0,893.9362299997811,2.0,0.0,part_2,go,450.0,550.0,1.0,,,,,,,,,green,flipped triangle
0.0,7.0,3.0,1.0,6.0,6.0,486.4028699998926,3.0,0.0,part_2,stop,450.0,550.0,3.0,,,,,,,,,blue,cross
0.0,7.0,3.0,1.0,5.0,5.0,332.495217000087,3.0,0.0,part_2,stop,450.0,500.0,3.0,,,,,,,,,blue,cross
0.0,4.0,4.0,0.0,5.0,5.0,619.5110870003191,3.0,0.0,part_2,go,400.0,500.0,1.0,,,,,,,,,green,flipped triangle
0.0,2.0,2.0,0.0,6.0,6.0,562.3666170004071,3.0,0.0,part_2,go,400.0,500.0,1.0,,,,,,,,,gray,diamond
0.0,3.0,3.0,0.0,5.0,5.0,584.5315970000229,3.0,0.0,part_2,go,400.0,500.0,1.0,,,,,,,,,orange,square
0.0,3.0,3.0,0.0,5.0,5.0,552.8048209998815,3.0,0.0,part_2,go,400.0,500.0,1.0,,,,,,,,,orange,square
0.0,7.0,3.0,1.0,5.0,0.0,0.0,3.0,0.0,part_2,stop,400.0,500.0,4.0,,,,,,,,,blue,cross
0.0,6.0,2.0,1.0,6.0,6.0,603.7116029997378,3.0,0.0,part_2,stop,450.0,500.0,3.0,,,,,,,,,yellow,I
0.0,2.0,2.0,0.0,5.0,5.0,793.3703990001959,3.0,0.0,part_2,go,450.0,450.0,1.0,,,,,,,,,gray,diamond
0.0,3.0,3.0,0.0,6.0,6.0,333.9251719999083,3.0,0.0,part_2,go,450.0,450.0,1.0,,,,,,,,,orange,square
0.0,6.0,2.0,1.0,6.0,0.0,0.0,3.0,0.0,part_2,stop,450.0,450.0,4.0,,,,,,,,,yellow,I
0.0,3.0,3.0,0.0,5.0,5.0,387.9418020001139,3.0,0.0,part_2,go,450.0,500.0,1.0,,,,,,,,,orange,square
0.0,6.0,2.0,1.0,6.0,6.0,639.004863000082,3.0,0.0,part_2,stop,450.0,500.0,3.0,,,,,,,,,yellow,I
0.0,4.0,4.0,0.0,6.0,6.0,668.8457420000304,3.0,0.0,part_2,go,450.0,450.0,1.0,,,,,,,,,green,flipped triangle
0.0,7.0,3.0,1.0,6.0,6.0,968.516776999877,3.0,0.0,part_2,stop,450.0,450.0,3.0,,,,,,,,,blue,cross
0.0,5.0,1.0,1.0,6.0,6.0,926.9122769997012,3.0,0.0,part_2,go,450.0,400.0,1.0,,,,,,,,,magenta,circle
0.0,6.0,2.0,1.0,6.0,0.0,0.0,3.0,0.0,part_2,stop,450.0,400.0,4.0,,,,,,,,,yellow,I
0.0,3.0,3.0,0.0,5.0,5.0,889.0618199998244,3.0,0.0,part_2,go,450.0,450.0,1.0,,,,,,,,,orange,square
0.0,2.0,2.0,0.0,6.0,6.0,895.988885999941,3.0,0.0,part_2,go,450.0,450.0,1.0,,,,,,,,,gray,diamond
0.0,2.0,2.0,0.0,5.0,5.0,805.4554420000386,3.0,0.0,part_2,go,450.0,450.0,1.0,,,,,,,,,gray,diamond
0.0,2.0,2.0,0.0,6.0,6.0,493.7474039998051,3.0,0.0,part_2,go,450.0,450.0,1.0,,,,,,,,,gray,diamond
0.0,4.0,4.0,0.0,6.0,6.0,546.6760419999446,3.0,0.0,part_2,go,450.0,450.0,1.0,,,,,,,,,green,flipped triangle
0.0,8.0,4.0,1.0,6.0,0.0,0.0,3.0,0.0,part_2,stop,450.0,450.0,4.0,,,,,,,,,cyan,hexagon
0.0,7.0,3.0,1.0,5.0,5.0,626.9880639997609,3.0,0.0,part_2,go,450.0,500.0,1.0,,,,,,,,,blue,cross
0.0,5.0,1.0,1.0,5.0,0.0,0.0,3.0,0.0,part_2,stop,450.0,500.0,4.0,,,,,,,,,magenta,circle
0.0,1.0,1.0,0.0,5.0,5.0,689.0457870003956,3.0,0.0,part_2,go,500.0,500.0,1.0,,,,,,,,,white,triangle
0.0,5.0,1.0,1.0,6.0,6.0,642.8316020001148,3.0,0.0,part_2,go,500.0,500.0,1.0,,,,,,,,,magenta,circle
0.0,1.0,1.0,0.0,5.0,5.0,621.948906000398,3.0,0.0,part_2,go,500.0,500.0,1.0,,,,,,,,,white,triangle
0.0,6.0,2.0,1.0,6.0,0.0,0.0,3.0,0.0,part_2,stop,500.0,500.0,4.0,,,,,,,,,yellow,I
0.0,5.0,1.0,1.0,6.0,6.0,634.2614310001409,3.0,0.0,part_2,stop,500.0,550.0,3.0,,,,,,,,,magenta,circle
0.0,6.0,2.0,1.0,5.0,0.0,0.0,3.0,0.0,part_2,stop,500.0,500.0,4.0,,,,,,,,,yellow,I
0.0,1.0,1.0,0.0,6.0,6.0,802.4045310003203,3.0,0.0,part_2,go,550.0,500.0,1.0,,,,,,,,,white,triangle
0.0,5.0,1.0,1.0,5.0,5.0,770.2537360000861,3.0,0.0,part_2,go,550.0,500.0,1.0,,,,,,,,,magenta,circle
0.0,2.0,2.0,0.0,5.0,5.0,896.3881089998722,3.0,0.0,part_2,go,550.0,500.0,1.0,,,,,,,,,gray,diamond
0.0,6.0,2.0,1.0,6.0,6.0,472.4571900001137,3.0,0.0,part_2,stop,550.0,500.0,3.0,,,,,,,,,yellow,I
0.0,7.0,3.0,1.0,5.0,5.0,1222.5286590000906,3.0,0.0,part_2,stop,550.0,450.0,3.0,,,,,,,,,blue,cross
0.0,7.0,3.0,1.0,5.0,0.0,0.0,4.0,0.0,part_2,stop,500.0,450.0,4.0,,,,,,,,,blue,cross
0.0,6.0,2.0,1.0,6.0,6.0,540.0348059997668,4.0,0.0,part_2,go,550.0,450.0,1.0,,,,,,,,,yellow,I
0.0,4.0,4.0,0.0,5.0,5.0,324.2063689999668,4.0,0.0,part_2,go,550.0,450.0,1.0,,,,,,,,,green,flipped triangle
0.0,1.0,1.0,0.0,6.0,6.0,536.4635259998067,4.0,0.0,part_2,go,550.0,450.0,1.0,,,,,,,,,white,triangle
0.0,7.0,3.0,1.0,5.0,5.0,363.904070999979,4.0,0.0,part_2,go,550.0,450.0,1.0,,,,,,,,,blue,cross
0.0,4.0,4.0,0.0,5.0,5.0,666.16947600005,4.0,0.0,part_2,go,550.0,450.0,1.0,,,,,,,,,green,flipped triangle
0.0,2.0,2.0,0.0,6.0,6.0,651.9870499996614,4.0,0.0,part_2,go,550.0,450.0,1.0,,,,,,,,,gray,diamond
0.0,3.0,3.0,0.0,6.0,6.0,677.6324639999984,4.0,0.0,part_2,go,550.0,450.0,1.0,,,,,,,,,orange,square
0.0,3.0,3.0,0.0,6.0,6.0,561.8736860001263,4.0,0.0,part_2,go,550.0,450.0,1.0,,,,,,,,,orange,square
0.0,7.0,3.0,1.0,6.0,0.0,0.0,4.0,0.0,part_2,stop,550.0,450.0,4.0,,,,,,,,,blue,cross
0.0,6.0,2.0,1.0,5.0,5.0,702.2412269998313,4.0,0.0,part_2,go,550.0,500.0,1.0,,,,,,,,,yellow,I
0.0,2.0,2.0,0.0,6.0,6.0,631.4686420000726,4.0,0.0,part_2,go,550.0,500.0,1.0,,,,,,,,,gray,diamond
0.0,7.0,3.0,1.0,5.0,5.0,330.7104069999695,4.0,0.0,part_2,stop,550.0,500.0,3.0,,,,,,,,,blue,cross
0.0,8.0,4.0,1.0,6.0,6.0,750.4527609999059,4.0,0.0,part_2,go,500.0,500.0,1.0,,,,,,,,,cyan,hexagon
0.0,6.0,2.0,1.0,5.0,0.0,0.0,4.0,0.0,part_2,stop,500.0,500.0,4.0,,,,,,,,,yellow,I
0.0,5.0,1.0,1.0,6.0,6.0,290.3215040000759,4.0,0.0,part_2,stop,550.0,500.0,3.0,,,,,,,,,magenta,circle
0.0,2.0,2.0,0.0,5.0,5.0,236.4473919997181,4.0,0.0,part_2,go,550.0,450.0,1.0,,,,,,,,,gray,diamond
0.0,8.0,4.0,1.0,5.0,5.0,428.479478999634,4.0,0.0,part_2,stop,550.0,450.0,3.0,,,,,,,,,cyan,hexagon
0.0,5.0,1.0,1.0,5.0,0.0,0.0,4.0,0.0,part_2,stop,500.0,450.0,4.0,,,,,,,,,magenta,circle
0.0,4.0,4.0,0.0,5.0,5.0,720.7211840000127,4.0,0.0,part_2,go,550.0,450.0,1.0,,,,,,,,,green,flipped triangle
0.0,4.0,4.0,0.0,6.0,6.0,734.3862660000013,4.0,0.0,part_2,go,550.0,450.0,1.0,,,,,,,,,green,flipped triangle
0.0,4.0,4.0,0.0,5.0,5.0,679.174557999886,4.0,0.0,part_2,go,550.0,450.0,1.0,,,,,,,,,green,flipped triangle
0.0,2.0,2.0,0.0,5.0,5.0,586.1282310002025,4.0,0.0,part_2,go,550.0,450.0,1.0,,,,,,,,,gray,diamond
0.0,3.0,3.0,0.0,5.0,5.0,480.0214989995766,4.0,0.0,part_2,go,550.0,450.0,1.0,,,,,,,,,orange,square
0.0,5.0,1.0,1.0,5.0,0.0,0.0,4.0,0.0,part_2,stop,550.0,450.0,4.0,,,,,,,,,magenta,circle
0.0,7.0,3.0,1.0,5.0,5.0,591.3509799997883,4.0,0.0,part_2,stop,600.0,450.0,3.0,,,,,,,,,blue,cross
0.0,4.0,4.0,0.0,5.0,5.0,1220.074231000126,4.0,0.0,part_2,go,550.0,450.0,1.0,,,,,,,,,green,flipped triangle
0.0,1.0,1.0,0.0,5.0,5.0,965.0563089999196,4.0,0.0,part_2,go,550.0,450.0,1.0,,,,,,,,,white,triangle
0.0,8.0,4.0,1.0,5.0,0.0,0.0,4.0,0.0,part_2,stop,550.0,450.0,4.0,,,,,,,,,cyan,hexagon
0.0,1.0,1.0,0.0,6.0,6.0,480.0324300003922,4.0,0.0,part_2,go,600.0,450.0,1.0,,,,,,,,,white,triangle
0.0,1.0,1.0,0.0,5.0,5.0,671.5750909997951,4.0,0.0,part_2,go,600.0,450.0,1.0,,,,,,,,,white,triangle
0.0,7.0,3.0,1.0,6.0,0.0,0.0,4.0,0.0,part_2,stop,600.0,450.0,4.0,,,,,,,,,blue,cross
0.0,7.0,3.0,1.0,5.0,5.0,457.3539080001865,4.0,0.0,part_2,stop,600.0,500.0,3.0,,,,,,,,,blue,cross
0.0,1.0,1.0,0.0,5.0,5.0,832.9508699998769,4.0,0.0,part_2,go,550.0,500.0,1.0,,,,,,,,,white,triangle
0.0,5.0,1.0,1.0,6.0,0.0,0.0,4.0,0.0,part_2,stop,550.0,500.0,4.0,,,,,,,,,magenta,circle
0.0,8.0,4.0,1.0,6.0,6.0,615.4531079996559,4.0,0.0,part_2,stop,550.0,550.0,3.0,,,,,,,,,cyan,hexagon
0.0,1.0,1.0,0.0,5.0,5.0,343.6282210000172,5.0,0.0,part_2,go,550.0,500.0,1.0,,,,,,,,,white,triangle
0.0,6.0,2.0,1.0,6.0,6.0,811.4341680002326,5.0,0.0,part_2,go,550.0,500.0,1.0,,,,,,,,,yellow,I
0.0,6.0,2.0,1.0,5.0,5.0,693.1479770000806,5.0,0.0,part_2,go,550.0,500.0,1.0,,,,,,,,,yellow,I
0.0,7.0,3.0,1.0,6.0,6.0,533.525716999975,5.0,0.0,part_2,stop,550.0,500.0,3.0,,,,,,,,,blue,cross
0.0,7.0,3.0,1.0,5.0,0.0,0.0,5.0,0.0,part_2,stop,550.0,450.0,4.0,,,,,,,,,blue,cross
0.0,3.0,3.0,0.0,6.0,6.0,845.4371769998943,5.0,0.0,part_2,go,600.0,450.0,1.0,,,,,,,,,orange,square
0.0,3.0,3.0,0.0,5.0,5.0,995.7365660002324,5.0,0.0,part_2,go,600.0,450.0,1.0,,,,,,,,,orange,square
0.0,2.0,2.0,0.0,6.0,6.0,837.9195980000986,5.0,0.0,part_2,go,600.0,450.0,1.0,,,,,,,,,gray,diamond
0.0,1.0,1.0,0.0,5.0,5.0,705.5746720002389,5.0,0.0,part_2,go,600.0,450.0,1.0,,,,,,,,,white,triangle
0.0,1.0,1.0,0.0,6.0,6.0,887.8853839996736,5.0,0.0,part_2,go,600.0,450.0,1.0,,,,,,,,,white,triangle
0.0,5.0,1.0,1.0,6.0,6.0,710.1551929999914,5.0,0.0,part_2,go,600.0,450.0,1.0,,,,,,,,,magenta,circle
0.0,7.0,3.0,1.0,6.0,6.0,609.7970129999339,5.0,0.0,part_2,go,600.0,450.0,1.0,,,,,,,,,blue,cross
0.0,1.0,1.0,0.0,6.0,6.0,531.4467650000552,5.0,0.0,part_2,go,600.0,450.0,1.0,,,,,,,,,white,triangle
0.0,2.0,2.0,0.0,6.0,6.0,720.8431169997311,5.0,0.0,part_2,go,600.0,450.0,1.0,,,,,,,,,gray,diamond
0.0,6.0,2.0,1.0,5.0,0.0,0.0,5.0,0.0,part_2,stop,600.0,450.0,4.0,,,,,,,,,yellow,I
0.0,4.0,4.0,0.0,6.0,6.0,632.0195280000007,5.0,0.0,part_2,go,650.0,450.0,1.0,,,,,,,,,green,flipped triangle
0.0,7.0,3.0,1.0,5.0,5.0,540.8150830003251,5.0,0.0,part_2,stop,650.0,450.0,3.0,,,,,,,,,blue,cross
0.0,8.0,4.0,1.0,6.0,6.0,746.4325440000721,5.0,0.0,part_2,go,600.0,450.0,1.0,,,,,,,,,cyan,hexagon
0.0,6.0,2.0,1.0,6.0,0.0,0.0,5.0,0.0,part_2,stop,600.0,450.0,4.0,,,,,,,,,yellow,I
0.0,3.0,3.0,0.0,6.0,6.0,874.4895070003622,5.0,0.0,part_2,go,600.0,500.0,1.0,,,,,,,,,orange,square
0.0,7.0,3.0,1.0,6.0,6.0,759.1714160002994,5.0,0.0,part_2,go,600.0,500.0,1.0,,,,,,,,,blue,cross
0.0,6.0,2.0,1.0,5.0,5.0,665.5642830000943,5.0,0.0,part_2,stop,600.0,500.0,3.0,,,,,,,,,yellow,I
0.0,6.0,2.0,1.0,6.0,0.0,0.0,5.0,0.0,part_2,stop,550.0,500.0,4.0,,,,,,,,,yellow,I
0.0,2.0,2.0,0.0,5.0,5.0,749.4625730000735,5.0,0.0,part_2,go,550.0,550.0,1.0,,,,,,,,,gray,diamond
0.0,5.0,1.0,1.0,5.0,0.0,0.0,5.0,0.0,part_2,stop,550.0,550.0,4.0,,,,,,,,,magenta,circle
0.0,8.0,4.0,1.0,5.0,0.0,0.0,5.0,0.0,part_2,stop,600.0,550.0,4.0,,,,,,,,,cyan,hexagon
0.0,8.0,4.0,1.0,5.0,0.0,0.0,5.0,0.0,part_2,stop,650.0,550.0,4.0,,,,,,,,,cyan,hexagon
0.0,3.0,3.0,0.0,5.0,0.0,0.0,5.0,0.0,part_2,go,700.0,550.0,5.0,,,,,,,,,orange,square
0.0,8.0,4.0,1.0,5.0,5.0,739.4899959999748,5.0,0.0,part_2,stop,700.0,550.0,3.0,,,,,,,,,cyan,hexagon
0.0,5.0,1.0,1.0,5.0,5.0,586.6210730000603,5.0,0.0,part_2,stop,650.0,550.0,3.0,,,,,,,,,magenta,circle
0.0,6.0,2.0,1.0,6.0,0.0,0.0,5.0,0.0,part_2,stop,600.0,550.0,4.0,,,,,,,,,yellow,I
0.0,5.0,1.0,1.0,5.0,5.0,407.5803329997143,5.0,0.0,part_2,go,600.0,600.0,1.0,,,,,,,,,magenta,circle
0.0,5.0,1.0,1.0,5.0,5.0,647.7651089999199,5.0,0.0,part_2,stop,600.0,600.0,3.0,,,,,,,,,magenta,circle
0.0,1.0,1.0,0.0,6.0,6.0,669.5677510001588,5.0,0.0,part_2,go,550.0,600.0,1.0,,,,,,,,,white,triangle
0.0,4.0,4.0,0.0,5.0,5.0,621.6789249997419,5.0,0.0,part_2,go,550.0,600.0,1.0,,,,,,,,,green,flipped triangle
0.0,8.0,4.0,1.0,5.0,5.0,611.6987430000336,5.0,0.0,part_2,stop,550.0,600.0,3.0,,,,,,,,,cyan,hexagon
0.0,2.0,2.0,0.0,6.0,6.0,605.8141389999037,6.0,0.0,part_2,go,500.0,600.0,1.0,,,,,,,,,gray,diamond
0.0,4.0,4.0,0.0,6.0,6.0,299.7907690000829,6.0,0.0,part_2,go,500.0,600.0,1.0,,,,,,,,,green,flipped triangle
0.0,5.0,1.0,1.0,6.0,6.0,638.757682999767,6.0,0.0,part_2,stop,500.0,600.0,3.0,,,,,,,,,magenta,circle
0.0,6.0,2.0,1.0,5.0,5.0,540.1867530003983,6.0,0.0,part_2,stop,500.0,550.0,3.0,,,,,,,,,yellow,I
0.0,7.0,3.0,1.0,5.0,0.0,0.0,6.0,0.0,part_2,stop,450.0,550.0,4.0,,,,,,,,,blue,cross
0.0,4.0,4.0,0.0,6.0,6.0,361.5567309998369,6.0,0.0,part_2,go,500.0,550.0,1.0,,,,,,,,,green,flipped triangle
0.0,7.0,3.0,1.0,6.0,6.0,692.9944550001892,6.0,0.0,part_2,go,500.0,550.0,1.0,,,,,,,,,blue,cross
0.0,4.0,4.0,0.0,6.0,6.0,653.1227700002091,6.0,0.0,part_2,go,500.0,550.0,1.0,,,,,,,,,green,flipped triangle
0.0,8.0,4.0,1.0,5.0,5.0,683.2308960001683,6.0,0.0,part_2,go,500.0,550.0,1.0,,,,,,,,,cyan,hexagon
0.0,5.0,1.0,1.0,6.0,6.0,437.3794590001125,6.0,0.0,part_2,stop,500.0,550.0,3.0,,,,,,,,,magenta,circle
0.0,6.0,2.0,1.0,5.0,5.0,638.932665000084,6.0,0.0,part_2,stop,500.0,500.0,3.0,,,,,,,,,yellow,I
0.0,8.0,4.0,1.0,5.0,0.0,0.0,6.0,0.0,part_2,stop,450.0,500.0,4.0,,,,,,,,,cyan,hexagon
0.0,3.0,3.0,0.0,6.0,6.0,794.4157909996648,6.0,0.0,part_2,go,500.0,500.0,1.0,,,,,,,,,orange,square
0.0,8.0,4.0,1.0,5.0,0.0,0.0,6.0,0.0,part_2,stop,500.0,500.0,4.0,,,,,,,,,cyan,hexagon
0.0,1.0,1.0,0.0,6.0,6.0,1300.6654470000285,6.0,0.0,part_2,go,550.0,500.0,1.0,,,,,,,,,white,triangle
0.0,5.0,1.0,1.0,5.0,0.0,0.0,6.0,0.0,part_2,stop,550.0,500.0,4.0,,,,,,,,,magenta,circle
0.0,2.0,2.0,0.0,5.0,5.0,655.0938150003276,6.0,0.0,part_2,go,600.0,500.0,1.0,,,,,,,,,gray,diamond
0.0,7.0,3.0,1.0,6.0,6.0,322.893471000043,6.0,0.0,part_2,stop,600.0,500.0,3.0,,,,,,,,,blue,cross
0.0,4.0,4.0,0.0,6.0,6.0,567.3314239998035,6.0,0.0,part_2,go,600.0,450.0,1.0,,,,,,,,,green,flipped triangle
0.0,3.0,3.0,0.0,5.0,5.0,1151.932570000099,6.0,0.0,part_2,go,600.0,450.0,1.0,,,,,,,,,orange,square
0.0,6.0,2.0,1.0,5.0,0.0,0.0,6.0,0.0,part_2,stop,600.0,450.0,4.0,,,,,,,,,yellow,I
0.0,2.0,2.0,0.0,5.0,5.0,792.5176949997876,6.0,0.0,part_2,go,650.0,450.0,1.0,,,,,,,,,gray,diamond
0.0,4.0,4.0,0.0,6.0,6.0,1036.6642330000104,6.0,0.0,part_2,go,650.0,450.0,1.0,,,,,,,,,green,flipped triangle
0.0,5.0,1.0,1.0,6.0,0.0,0.0,6.0,0.0,part_2,stop,650.0,450.0,4.0,,,,,,,,,magenta,circle
0.0,8.0,4.0,1.0,5.0,5.0,743.8666369998828,6.0,0.0,part_2,stop,650.0,500.0,3.0,,,,,,,,,cyan,hexagon
0.0,1.0,1.0,0.0,6.0,6.0,1329.5971290003763,6.0,0.0,part_2,go,600.0,500.0,1.0,,,,,,,,,white,triangle
0.0,1.0,1.0,0.0,5.0,5.0,756.6350119996059,6.0,0.0,part_2,go,600.0,500.0,1.0,,,,,,,,,white,triangle
0.0,2.0,2.0,0.0,6.0,6.0,743.3370720000312,6.0,0.0,part_2,go,600.0,500.0,1.0,,,,,,,,,gray,diamond
0.0,2.0,2.0,0.0,5.0,5.0,593.9185590000307,6.0,0.0,part_2,go,600.0,500.0,1.0,,,,,,,,,gray,diamond
0.0,7.0,3.0,1.0,6.0,6.0,429.333650999979,6.0,0.0,part_2,stop,600.0,500.0,3.0,,,,,,,,,blue,cross
0.0,4.0,4.0,0.0,5.0,5.0,431.6802449998249,6.0,0.0,part_2,go,600.0,450.0,1.0,,,,,,,,,green,flipped triangle
0.0,5.0,1.0,1.0,6.0,6.0,626.2096259997634,6.0,0.0,part_2,go,600.0,450.0,1.0,,,,,,,,,magenta,circle
0.0,8.0,4.0,1.0,5.0,5.0,591.3557969997782,6.0,0.0,part_2,stop,600.0,450.0,3.0,,,,,,,,,cyan,hexagon
0.0,6.0,2.0,1.0,6.0,0.0,0.0,6.0,0.0,part_2,stop,550.0,450.0,4.0,,,,,,,,,yellow,I
0.0,3.0,3.0,0.0,6.0,6.0,1051.711492999857,6.0,0.0,part_2,go,550.0,500.0,1.0,,,,,,,,,orange,square
0.0,4.0,4.0,0.0,6.0,6.0,566.3928899998609,6.0,0.0,part_2,go,550.0,500.0,1.0,,,,,,,,,green,flipped triangle
0.0,3.0,3.0,0.0,5.0,5.0,498.752229999809,7.0,0.0,part_2,go,550.0,500.0,1.0,,,,,,,,,orange,square
0.0,3.0,3.0,0.0,6.0,6.0,274.7423079999862,7.0,0.0,part_2,go,550.0,500.0,1.0,,,,,,,,,orange,square
0.0,4.0,4.0,0.0,6.0,6.0,466.8117209998854,7.0,0.0,part_2,go,550.0,500.0,1.0,,,,,,,,,green,flipped triangle
0.0,2.0,2.0,0.0,5.0,5.0,620.3089410000757,7.0,0.0,part_2,go,550.0,500.0,1.0,,,,,,,,,gray,diamond
0.0,2.0,2.0,0.0,6.0,6.0,368.6032189998514,7.0,0.0,part_2,go,550.0,500.0,1.0,,,,,,,,,gray,diamond
0.0,7.0,3.0,1.0,6.0,6.0,649.4546470003115,7.0,0.0,part_2,stop,550.0,500.0,3.0,,,,,,,,,blue,cross
0.0,8.0,4.0,1.0,6.0,0.0,0.0,7.0,0.0,part_2,stop,550.0,450.0,4.0,,,,,,,,,cyan,hexagon
0.0,6.0,2.0,1.0,6.0,6.0,567.3798900002112,7.0,0.0,part_2,stop,550.0,500.0,3.0,,,,,,,,,yellow,I
0.0,4.0,4.0,0.0,5.0,5.0,643.9068370000314,7.0,0.0,part_2,go,550.0,450.0,1.0,,,,,,,,,green,flipped triangle
0.0,6.0,2.0,1.0,5.0,5.0,604.237903000012,7.0,0.0,part_2,stop,550.0,450.0,3.0,,,,,,,,,yellow,I
0.0,8.0,4.0,1.0,6.0,6.0,1027.5680939998892,7.0,0.0,part_2,go,500.0,450.0,1.0,,,,,,,,,cyan,hexagon
0.0,1.0,1.0,0.0,5.0,5.0,915.9992119998606,7.0,0.0,part_2,go,500.0,450.0,1.0,,,,,,,,,white,triangle
0.0,8.0,4.0,1.0,6.0,0.0,0.0,7.0,0.0,part_2,stop,500.0,450.0,4.0,,,,,,,,,cyan,hexagon
0.0,7.0,3.0,1.0,5.0,0.0,0.0,7.0,0.0,part_2,stop,500.0,500.0,4.0,,,,,,,,,blue,cross
0.0,4.0,4.0,0.0,6.0,6.0,1074.2820059999758,7.0,0.0,part_2,go,550.0,500.0,1.0,,,,,,,,,green,flipped triangle
0.0,1.0,1.0,0.0,5.0,5.0,784.0423779998673,7.0,0.0,part_2,go,550.0,500.0,1.0,,,,,,,,,white,triangle
0.0,3.0,3.0,0.0,5.0,5.0,703.5399149999648,7.0,0.0,part_2,go,550.0,500.0,1.0,,,,,,,,,orange,square
0.0,3.0,3.0,0.0,6.0,6.0,574.5037689998753,7.0,0.0,part_2,go,550.0,500.0,1.0,,,,,,,,,orange,square
0.0,3.0,3.0,0.0,6.0,6.0,624.2098840002654,7.0,0.0,part_2,go,550.0,500.0,1.0,,,,,,,,,orange,square
0.0,7.0,3.0,1.0,6.0,6.0,943.0518429999212,7.0,0.0,part_2,go,550.0,500.0,1.0,,,,,,,,,blue,cross
0.0,7.0,3.0,1.0,5.0,5.0,638.9579470001081,7.0,0.0,part_2,stop,550.0,500.0,3.0,,,,,,,,,blue,cross
0.0,7.0,3.0,1.0,6.0,0.0,0.0,7.0,0.0,part_2,stop,500.0,500.0,4.0,,,,,,,,,blue,cross
0.0,8.0,4.0,1.0,6.0,0.0,0.0,7.0,0.0,part_2,stop,500.0,550.0,4.0,,,,,,,,,cyan,hexagon
0.0,3.0,3.0,0.0,5.0,5.0,1181.9047390004016,7.0,0.0,part_2,go,500.0,600.0,1.0,,,,,,,,,orange,square
0.0,3.0,3.0,0.0,5.0,5.0,1093.9102430002094,7.0,0.0,part_2,go,500.0,600.0,1.0,,,,,,,,,orange,square
0.0,4.0,4.0,0.0,5.0,5.0,986.06411999981,7.0,0.0,part_2,go,500.0,600.0,1.0,,,,,,,,,green,flipped triangle
0.0,3.0,3.0,0.0,5.0,5.0,820.150637000097,7.0,0.0,part_2,go,500.0,600.0,1.0,,,,,,,,,orange,square
0.0,6.0,2.0,1.0,5.0,5.0,1162.771601000259,7.0,0.0,part_2,go,500.0,600.0,1.0,,,,,,,,,yellow,I
0.0,8.0,4.0,1.0,5.0,0.0,0.0,7.0,0.0,part_2,stop,500.0,600.0,4.0,,,,,,,,,cyan,hexagon
0.0,2.0,2.0,0.0,5.0,5.0,810.5034879999948,7.0,0.0,part_2,go,550.0,600.0,1.0,,,,,,,,,gray,diamond
0.0,7.0,3.0,1.0,5.0,5.0,512.4858499998481,7.0,0.0,part_2,stop,550.0,600.0,3.0,,,,,,,,,blue,cross
0.0,3.0,3.0,0.0,6.0,6.0,1158.8329880000856,7.0,0.0,part_2,go,500.0,600.0,1.0,,,,,,,,,orange,square
0.0,7.0,3.0,1.0,5.0,0.0,0.0,7.0,0.0,part_2,stop,500.0,600.0,4.0,,,,,,,,,blue,cross
0.0,4.0,4.0,0.0,5.0,5.0,843.7931329999628,7.0,0.0,part_2,go,550.0,600.0,1.0,,,,,,,,,green,flipped triangle
0.0,5.0,1.0,1.0,6.0,0.0,0.0,7.0,0.0,part_2,stop,550.0,600.0,4.0,,,,,,,,,magenta,circle
0.0,1.0,1.0,0.0,5.0,5.0,1172.6969590004046,7.0,0.0,part_2,go,550.0,650.0,1.0,,,,,,,,,white,triangle
0.0,8.0,4.0,1.0,5.0,5.0,390.0083810003707,8.0,0.0,part_2,stop,550.0,650.0,3.0,,,,,,,,,cyan,hexagon
0.0,2.0,2.0,0.0,5.0,5.0,338.9973559997088,8.0,0.0,part_2,go,500.0,650.0,1.0,,,,,,,,,gray,diamond
0.0,4.0,4.0,0.0,5.0,5.0,300.5723809997107,8.0,0.0,part_2,go,500.0,650.0,1.0,,,,,,,,,green,flipped triangle
0.0,8.0,4.0,1.0,6.0,6.0,239.9468329999763,8.0,0.0,part_2,go,500.0,650.0,1.0,,,,,,,,,cyan,hexagon
0.0,6.0,2.0,1.0,6.0,6.0,388.7451339996914,8.0,0.0,part_2,stop,500.0,650.0,3.0,,,,,,,,,yellow,I
0.0,5.0,1.0,1.0,5.0,5.0,303.7264949998643,8.0,0.0,part_2,stop,500.0,600.0,3.0,,,,,,,,,magenta,circle
0.0,4.0,4.0,0.0,6.0,6.0,542.362337999748,8.0,0.0,part_2,go,450.0,600.0,1.0,,,,,,,,,green,flipped triangle
0.0,4.0,4.0,0.0,5.0,5.0,303.7141889999475,8.0,0.0,part_2,go,450.0,600.0,1.0,,,,,,,,,green,flipped triangle
0.0,6.0,2.0,1.0,5.0,5.0,489.5197579999149,8.0,0.0,part_2,stop,450.0,600.0,3.0,,,,,,,,,yellow,I
0.0,6.0,2.0,1.0,6.0,6.0,478.2488859996192,8.0,0.0,part_2,stop,400.0,600.0,3.0,,,,,,,,,yellow,I
0.0,8.0,4.0,1.0,6.0,6.0,346.9863380000788,8.0,0.0,part_2,stop,400.0,550.0,3.0,,,,,,,,,cyan,hexagon
0.0,3.0,3.0,0.0,6.0,6.0,335.3970509997452,8.0,0.0,part_2,go,400.0,500.0,1.0,,,,,,,,,orange,square
0.0,6.0,2.0,1.0,5.0,5.0,252.66303900025378,8.0,0.0,part_2,go,400.0,500.0,1.0,,,,,,,,,yellow,I
0.0,5.0,1.0,1.0,5.0,5.0,330.5273750002016,8.0,0.0,part_2,stop,400.0,500.0,3.0,,,,,,,,,magenta,circle
0.0,2.0,2.0,0.0,5.0,5.0,552.7191920000405,8.0,0.0,part_2,go,350.0,500.0,1.0,,,,,,,,,gray,diamond
0.0,8.0,4.0,1.0,6.0,6.0,583.6629929999617,8.0,0.0,part_2,stop,350.0,500.0,3.0,,,,,,,,,cyan,hexagon
0.0,7.0,3.0,1.0,5.0,0.0,0.0,8.0,0.0,part_2,stop,350.0,450.0,4.0,,,,,,,,,blue,cross
0.0,6.0,2.0,1.0,6.0,0.0,0.0,8.0,0.0,part_2,stop,400.0,450.0,4.0,,,,,,,,,yellow,I
0.0,8.0,4.0,1.0,5.0,5.0,853.6026890001267,8.0,0.0,part_2,go,400.0,500.0,1.0,,,,,,,,,cyan,hexagon
0.0,3.0,3.0,0.0,5.0,5.0,777.8586549998181,8.0,0.0,part_2,go,400.0,500.0,1.0,,,,,,,,,orange,square
0.0,6.0,2.0,1.0,5.0,0.0,0.0,8.0,0.0,part_2,stop,400.0,500.0,4.0,,,,,,,,,yellow,I
0.0,1.0,1.0,0.0,6.0,6.0,846.0289079998802,8.0,0.0,part_2,go,450.0,500.0,1.0,,,,,,,,,white,triangle
0.0,2.0,2.0,0.0,6.0,6.0,703.4337009999945,8.0,0.0,part_2,go,450.0,500.0,1.0,,,,,,,,,gray,diamond
0.0,6.0,2.0,1.0,6.0,6.0,442.9778240000814,8.0,0.0,part_2,go,450.0,500.0,1.0,,,,,,,,,yellow,I
0.0,5.0,1.0,1.0,5.0,0.0,0.0,8.0,0.0,part_2,stop,450.0,500.0,4.0,,,,,,,,,magenta,circle
0.0,1.0,1.0,0.0,6.0,6.0,707.9535610000676,8.0,0.0,part_2,go,500.0,500.0,1.0,,,,,,,,,white,triangle
0.0,7.0,3.0,1.0,5.0,0.0,0.0,8.0,0.0,part_2,stop,500.0,500.0,4.0,,,,,,,,,blue,cross
0.0,1.0,1.0,0.0,6.0,6.0,1274.5600069997636,8.0,0.0,part_2,go,550.0,500.0,1.0,,,,,,,,,white,triangle
0.0,1.0,1.0,0.0,5.0,5.0,819.1614359998312,8.0,0.0,part_2,go,550.0,500.0,1.0,,,,,,,,,white,triangle
0.0,8.0,4.0,1.0,6.0,0.0,0.0,8.0,0.0,part_2,stop,550.0,500.0,4.0,,,,,,,,,cyan,hexagon
0.0,5.0,1.0,1.0,6.0,0.0,0.0,8.0,0.0,part_2,stop,550.0,550.0,4.0,,,,,,,,,magenta,circle
0.0,8.0,4.0,1.0,5.0,5.0,902.478856000016,8.0,0.0,part_2,go,550.0,600.0,1.0,,,,,,,,,cyan,hexagon
0.0,3.0,3.0,0.0,5.0,5.0,742.8065409999363,8.0,0.0,part_2,go,550.0,600.0,1.0,,,,,,,,,orange,square
0.0,1.0,1.0,0.0,5.0,5.0,588.4468039998865,8.0,0.0,part_2,go,550.0,600.0,1.0,,,,,,,,,white,triangle
0.0,8.0,4.0,1.0,6.0,6.0,334.3359069999678,8.0,0.0,part_2,stop,550.0,600.0,3.0,,,,,,,,,cyan,hexagon
0.0,4.0,4.0,0.0,5.0,5.0,588.3881590002602,8.0,0.0,part_2,go,550.0,550.0,1.0,,,,,,,,,green,flipped triangle
0.0,7.0,3.0,1.0,7.0,5.0,3695.111869000357,1.0,1.0,part_3,go,0.0,0.0,0.0,176.0,4.0,220.0,88.0,264.0,44.0,176.0,132.0,blue,cross
0.0,8.0,4.0,1.0,7.0,1.0,952.9259509999974,1.0,2.0,part_3,go,0.0,0.0,0.0,220.0,5.0,220.0,44.0,176.0,264.0,132.0,88.0,cyan,hexagon
0.0,1.0,1.0,0.0,7.0,6.0,3181.203970999377,1.0,1.0,part_3,go,0.0,0.0,0.0,234.0,6.0,156.0,117.0,78.0,195.0,39.0,234.0,white,triangle
0.0,1.0,1.0,0.0,7.0,3.0,3045.554249999441,1.0,1.0,part_3,go,0.0,0.0,0.0,324.0,6.0,216.0,270.0,324.0,162.0,54.0,108.0,white,triangle
0.0,8.0,4.0,1.0,7.0,3.0,1840.354144999765,1.0,1.0,part_3,go,0.0,0.0,0.0,234.0,6.0,117.0,156.0,234.0,195.0,78.0,39.0,cyan,hexagon
0.0,7.0,3.0,1.0,7.0,5.0,1818.113197999992,1.0,1.0,part_3,go,0.0,0.0,0.0,34.0,1.0,102.0,204.0,170.0,68.0,34.0,136.0,blue,cross
0.0,6.0,2.0,1.0,7.0,4.0,2723.701726999934,1.0,1.0,part_3,go,0.0,0.0,0.0,88.0,2.0,176.0,132.0,264.0,88.0,44.0,220.0,yellow,I
0.0,1.0,1.0,0.0,7.0,4.0,3297.5371299999097,1.0,1.0,part_3,go,0.0,0.0,0.0,39.0,1.0,156.0,195.0,117.0,39.0,234.0,78.0,white,triangle
0.0,5.0,1.0,1.0,7.0,4.0,1004.1035419999389,1.0,1.0,part_3,go,0.0,0.0,0.0,270.0,5.0,162.0,216.0,108.0,270.0,54.0,324.0,magenta,circle
0.0,6.0,2.0,1.0,7.0,2.0,2055.894606000038,1.0,1.0,part_3,go,0.0,0.0,0.0,98.0,2.0,245.0,98.0,294.0,49.0,196.0,147.0,yellow,I
0.0,3.0,3.0,0.0,7.0,1.0,2583.3296179998797,1.0,1.0,part_3,go,0.0,0.0,0.0,68.0,2.0,68.0,102.0,136.0,204.0,170.0,34.0,orange,square
0.0,3.0,3.0,0.0,7.0,3.0,1271.6385730000184,1.0,1.0,part_3,go,0.0,0.0,0.0,68.0,2.0,34.0,204.0,68.0,136.0,102.0,170.0,orange,square
0.0,2.0,2.0,0.0,7.0,6.0,1152.8588439996383,1.0,1.0,part_3,go,0.0,0.0,0.0,44.0,1.0,176.0,220.0,88.0,132.0,264.0,44.0,gray,diamond
0.0,4.0,4.0,0.0,7.0,1.0,2599.3753579996337,1.0,1.0,part_3,go,0.0,0.0,0.0,108.0,2.0,108.0,162.0,54.0,270.0,216.0,324.0,green,flipped triangle
0.0,5.0,1.0,1.0,7.0,4.0,1477.02753700014,1.0,1.0,part_3,go,0.0,0.0,0.0,49.0,1.0,147.0,196.0,245.0,49.0,98.0,294.0,magenta,circle
0.0,8.0,4.0,1.0,7.0,6.0,1410.0089900002786,1.0,1.0,part_3,go,0.0,0.0,0.0,234.0,6.0,78.0,117.0,195.0,156.0,39.0,234.0,cyan,hexagon
0.0,4.0,4.0,0.0,7.0,5.0,1758.7667360003252,1.0,1.0,part_3,go,0.0,0.0,0.0,39.0,1.0,78.0,117.0,156.0,234.0,39.0,195.0,green,flipped triangle
0.0,8.0,4.0,1.0,7.0,4.0,1403.6079980005525,1.0,1.0,part_3,go,0.0,0.0,0.0,324.0,6.0,162.0,270.0,216.0,324.0,108.0,54.0,cyan,hexagon
0.0,6.0,2.0,1.0,7.0,5.0,1022.6458350007306,1.0,1.0,part_3,go,0.0,0.0,0.0,34.0,1.0,170.0,68.0,102.0,204.0,34.0,136.0,yellow,I
0.0,1.0,1.0,0.0,7.0,1.0,1417.5188060007713,1.0,1.0,part_3,go,0.0,0.0,0.0,245.0,5.0,245.0,147.0,49.0,196.0,98.0,294.0,white,triangle
0.0,3.0,3.0,0.0,7.0,2.0,1646.4010529998632,2.0,1.0,part_3,go,0.0,0.0,0.0,49.0,1.0,196.0,49.0,98.0,294.0,245.0,147.0,orange,square
0.0,2.0,2.0,0.0,7.0,3.0,1145.0452239996594,2.0,1.0,part_3,go,0.0,0.0,0.0,49.0,1.0,147.0,196.0,49.0,294.0,98.0,245.0,gray,diamond
0.0,4.0,4.0,0.0,7.0,6.0,1640.2840769997056,2.0,1.0,part_3,go,0.0,0.0,0.0,49.0,1.0,98.0,294.0,245.0,147.0,196.0,49.0,green,flipped triangle
0.0,2.0,2.0,0.0,7.0,1.0,1079.9503329999425,2.0,1.0,part_3,go,0.0,0.0,0.0,78.0,2.0,78.0,195.0,234.0,117.0,156.0,39.0,gray,diamond
0.0,1.0,1.0,0.0,7.0,5.0,1417.881755000053,2.0,1.0,part_3,go,0.0,0.0,0.0,204.0,6.0,136.0,102.0,68.0,170.0,204.0,34.0,white,triangle
0.0,6.0,2.0,1.0,7.0,3.0,1863.7769630004184,2.0,1.0,part_3,go,0.0,0.0,0.0,39.0,1.0,78.0,117.0,39.0,195.0,234.0,156.0,yellow,I
0.0,8.0,4.0,1.0,7.0,1.0,1953.6747750007637,2.0,1.0,part_3,go,0.0,0.0,0.0,204.0,6.0,204.0,170.0,136.0,68.0,102.0,34.0,cyan,hexagon
0.0,1.0,1.0,0.0,7.0,6.0,1320.5692800001998,2.0,1.0,part_3,go,0.0,0.0,0.0,294.0,6.0,245.0,147.0,49.0,98.0,196.0,294.0,white,triangle
0.0,2.0,2.0,0.0,7.0,5.0,886.6066199998386,2.0,1.0,part_3,go,0.0,0.0,0.0,49.0,1.0,245.0,147.0,294.0,98.0,49.0,196.0,gray,diamond
0.0,3.0,3.0,0.0,7.0,2.0,1656.156805000137,2.0,1.0,part_3,go,0.0,0.0,0.0,39.0,1.0,195.0,39.0,78.0,117.0,234.0,156.0,orange,square
0.0,2.0,2.0,0.0,7.0,5.0,1735.6182020002962,2.0,1.0,part_3,go,0.0,0.0,0.0,88.0,2.0,264.0,132.0,220.0,176.0,88.0,44.0,gray,diamond
0.0,2.0,2.0,0.0,7.0,4.0,1818.5855040001115,2.0,1.0,part_3,go,0.0,0.0,0.0,34.0,1.0,170.0,136.0,204.0,34.0,102.0,68.0,gray,diamond
0.0,2.0,2.0,0.0,7.0,4.0,1668.370286000027,2.0,1.0,part_3,go,0.0,0.0,0.0,34.0,1.0,102.0,204.0,136.0,34.0,170.0,68.0,gray,diamond
0.0,5.0,1.0,1.0,7.0,1.0,2859.6256959999664,2.0,1.0,part_3,go,0.0,0.0,0.0,98.0,2.0,98.0,196.0,294.0,147.0,49.0,245.0,magenta,circle
0.0,1.0,1.0,0.0,7.0,6.0,1757.9113749998214,2.0,1.0,part_3,go,0.0,0.0,0.0,264.0,6.0,88.0,176.0,44.0,220.0,132.0,264.0,white,triangle
0.0,4.0,4.0,0.0,7.0,6.0,1444.0771069994298,2.0,1.0,part_3,go,0.0,0.0,0.0,34.0,1.0,136.0,204.0,102.0,170.0,68.0,34.0,green,flipped triangle
0.0,6.0,2.0,1.0,7.0,2.0,1348.6195220002628,2.0,1.0,part_3,go,0.0,0.0,0.0,88.0,2.0,132.0,88.0,44.0,176.0,264.0,220.0,yellow,I
0.0,1.0,1.0,0.0,7.0,2.0,1316.6398269995625,2.0,1.0,part_3,go,0.0,0.0,0.0,264.0,6.0,132.0,264.0,44.0,88.0,220.0,176.0,white,triangle
0.0,5.0,1.0,1.0,7.0,5.0,1269.9785329996305,2.0,1.0,part_3,go,0.0,0.0,0.0,44.0,1.0,132.0,220.0,88.0,264.0,44.0,176.0,magenta,circle
0.0,1.0,1.0,0.0,7.0,5.0,1496.2485149999338,2.0,1.0,part_3,go,0.0,0.0,0.0,270.0,5.0,162.0,54.0,108.0,216.0,270.0,324.0,white,triangle
0.0,7.0,3.0,1.0,7.0,6.0,2097.0351650003067,3.0,1.0,part_3,go,0.0,0.0,0.0,54.0,1.0,324.0,270.0,108.0,162.0,216.0,54.0,blue,cross
0.0,7.0,3.0,1.0,7.0,4.0,1274.8510149995127,3.0,1.0,part_3,go,0.0,0.0,0.0,49.0,1.0,245.0,147.0,196.0,49.0,294.0,98.0,blue,cross
0.0,3.0,3.0,0.0,7.0,3.0,2679.1304489997856,3.0,1.0,part_3,go,0.0,0.0,0.0,49.0,1.0,196.0,245.0,49.0,147.0,98.0,294.0,orange,square
0.0,4.0,4.0,0.0,7.0,3.0,1909.4868879992648,3.0,1.0,part_3,go,0.0,0.0,0.0,132.0,3.0,176.0,44.0,132.0,220.0,264.0,88.0,green,flipped triangle
0.0,7.0,3.0,1.0,7.0,4.0,1238.6097479993623,3.0,1.0,part_3,go,0.0,0.0,0.0,49.0,1.0,245.0,294.0,98.0,49.0,147.0,196.0,blue,cross
0.0,3.0,3.0,0.0,7.0,2.0,1666.8400720000136,3.0,1.0,part_3,go,0.0,0.0,0.0,44.0,1.0,132.0,44.0,220.0,176.0,88.0,264.0,orange,square
0.0,5.0,1.0,1.0,7.0,4.0,1624.7412729999269,3.0,1.0,part_3,go,0.0,0.0,0.0,108.0,2.0,54.0,270.0,324.0,108.0,162.0,216.0,magenta,circle
0.0,8.0,4.0,1.0,7.0,5.0,1402.2792319992732,3.0,1.0,part_3,go,0.0,0.0,0.0,294.0,6.0,196.0,49.0,98.0,147.0,294.0,245.0,cyan,hexagon
0.0,5.0,1.0,1.0,7.0,5.0,1855.2619279998908,3.0,1.0,part_3,go,0.0,0.0,0.0,39.0,1.0,117.0,156.0,195.0,78.0,39.0,234.0,magenta,circle
0.0,6.0,2.0,1.0,7.0,2.0,2315.639604000353,3.0,1.0,part_3,go,0.0,0.0,0.0,54.0,1.0,108.0,54.0,216.0,162.0,270.0,324.0,yellow,I
0.0,6.0,2.0,1.0,7.0,5.0,1364.3480700002328,3.0,1.0,part_3,go,0.0,0.0,0.0,39.0,1.0,234.0,156.0,117.0,78.0,39.0,195.0,yellow,I
0.0,4.0,4.0,0.0,7.0,6.0,1208.385335999992,3.0,1.0,part_3,go,0.0,0.0,0.0,49.0,1.0,98.0,245.0,294.0,196.0,147.0,49.0,green,flipped triangle
0.0,2.0,2.0,0.0,7.0,2.0,1128.9296200002354,3.0,1.0,part_3,go,0.0,0.0,0.0,54.0,1.0,324.0,54.0,270.0,216.0,162.0,108.0,gray,diamond
0.0,8.0,4.0,1.0,7.0,4.0,1393.329634000111,3.0,1.0,part_3,go,0.0,0.0,0.0,220.0,5.0,264.0,176.0,132.0,220.0,44.0,88.0,cyan,hexagon
0.0,5.0,1.0,1.0,7.0,2.0,1001.3419500000964,3.0,1.0,part_3,go,0.0,0.0,0.0,34.0,1.0,68.0,34.0,102.0,136.0,170.0,204.0,magenta,circle
0.0,2.0,2.0,0.0,7.0,4.0,848.8974299998517,3.0,1.0,part_3,go,0.0,0.0,0.0,39.0,1.0,78.0,234.0,195.0,39.0,117.0,156.0,gray,diamond
0.0,3.0,3.0,0.0,7.0,5.0,1238.801524000337,3.0,1.0,part_3,go,0.0,0.0,0.0,44.0,1.0,88.0,132.0,264.0,176.0,44.0,220.0,orange,square
0.0,7.0,3.0,1.0,7.0,4.0,1125.6848220000393,3.0,1.0,part_3,go,0.0,0.0,0.0,39.0,1.0,156.0,78.0,117.0,39.0,195.0,234.0,blue,cross
0.0,6.0,2.0,1.0,7.0,4.0,1417.7195899992512,3.0,1.0,part_3,go,0.0,0.0,0.0,68.0,2.0,204.0,136.0,34.0,68.0,170.0,102.0,yellow,I
0.0,1.0,1.0,0.0,7.0,6.0,2435.237089999646,3.0,1.0,part_3,go,0.0,0.0,0.0,204.0,6.0,68.0,102.0,34.0,170.0,136.0,204.0,white,triangle
0.0,5.0,1.0,1.0,7.0,2.0,1242.5948109994351,4.0,1.0,part_3,go,0.0,0.0,0.0,34.0,1.0,170.0,34.0,68.0,204.0,102.0,136.0,magenta,circle
0.0,7.0,3.0,1.0,7.0,1.0,2877.9355560000113,4.0,1.0,part_3,go,0.0,0.0,0.0,34.0,1.0,34.0,102.0,204.0,170.0,136.0,68.0,blue,cross
0.0,2.0,2.0,0.0,7.0,4.0,1475.3187630003597,4.0,1.0,part_3,go,0.0,0.0,0.0,108.0,2.0,54.0,270.0,162.0,108.0,216.0,324.0,gray,diamond
0.0,8.0,4.0,1.0,7.0,3.0,1254.9256080001214,4.0,1.0,part_3,go,0.0,0.0,0.0,324.0,6.0,270.0,162.0,324.0,54.0,108.0,216.0,cyan,hexagon
0.0,6.0,2.0,1.0,7.0,5.0,1524.9699460000556,4.0,1.0,part_3,go,0.0,0.0,0.0,98.0,2.0,294.0,196.0,49.0,147.0,98.0,245.0,yellow,I
0.0,8.0,4.0,1.0,7.0,4.0,1034.7538209998677,4.0,1.0,part_3,go,0.0,0.0,0.0,294.0,6.0,49.0,147.0,98.0,294.0,245.0,196.0,cyan,hexagon
0.0,4.0,4.0,0.0,7.0,4.0,1403.8185319996046,4.0,1.0,part_3,go,0.0,0.0,0.0,162.0,3.0,270.0,324.0,216.0,162.0,108.0,54.0,green,flipped triangle
0.0,6.0,2.0,1.0,7.0,6.0,1394.9005120002766,4.0,1.0,part_3,go,0.0,0.0,0.0,54.0,1.0,270.0,324.0,162.0,216.0,108.0,54.0,yellow,I
0.0,5.0,1.0,1.0,7.0,3.0,1564.505105000535,4.0,1.0,part_3,go,0.0,0.0,0.0,39.0,1.0,195.0,78.0,39.0,117.0,234.0,156.0,magenta,circle
0.0,3.0,3.0,0.0,7.0,3.0,2425.5936449999353,4.0,1.0,part_3,go,0.0,0.0,0.0,54.0,1.0,270.0,108.0,54.0,162.0,216.0,324.0,orange,square
0.0,4.0,4.0,0.0,7.0,1.0,1671.9475689997123,4.0,1.0,part_3,go,0.0,0.0,0.0,136.0,4.0,136.0,170.0,68.0,34.0,204.0,102.0,green,flipped triangle
0.0,4.0,4.0,0.0,7.0,5.0,1729.64930299986,4.0,1.0,part_3,go,0.0,0.0,0.0,156.0,4.0,39.0,234.0,195.0,78.0,156.0,117.0,green,flipped triangle
0.0,7.0,3.0,1.0,7.0,3.0,1904.511735999222,4.0,1.0,part_3,go,0.0,0.0,0.0,88.0,2.0,132.0,176.0,88.0,44.0,220.0,264.0,blue,cross
0.0,7.0,3.0,1.0,7.0,4.0,2348.6511410001185,4.0,1.0,part_3,go,0.0,0.0,0.0,108.0,2.0,324.0,54.0,162.0,108.0,216.0,270.0,blue,cross
0.0,4.0,4.0,0.0,7.0,1.0,1385.5304990001969,4.0,1.0,part_3,go,0.0,0.0,0.0,176.0,4.0,176.0,132.0,264.0,220.0,44.0,88.0,green,flipped triangle
0.0,3.0,3.0,0.0,7.0,3.0,1574.2599320001318,4.0,1.0,part_3,go,0.0,0.0,0.0,39.0,1.0,156.0,234.0,39.0,195.0,117.0,78.0,orange,square
0.0,8.0,4.0,1.0,7.0,5.0,2381.2913259998822,4.0,1.0,part_3,go,0.0,0.0,0.0,204.0,6.0,136.0,68.0,170.0,102.0,204.0,34.0,cyan,hexagon
0.0,3.0,3.0,0.0,7.0,6.0,3470.422522999798,4.0,1.0,part_3,go,0.0,0.0,0.0,54.0,1.0,324.0,108.0,162.0,270.0,216.0,54.0,orange,square
0.0,7.0,3.0,1.0,7.0,3.0,1013.5336919993281,4.0,1.0,part_3,go,0.0,0.0,0.0,39.0,1.0,234.0,156.0,39.0,195.0,117.0,78.0,blue,cross
0.0,5.0,1.0,1.0,7.0,5.0,2270.889946999887,4.0,1.0,part_3,go,0.0,0.0,0.0,44.0,1.0,176.0,88.0,132.0,220.0,44.0,264.0,magenta,circle
