raw_reward_magnitude,stim_reward,stepwise_reward_magnitude,paired_with_stopping,stim_location,response,reaction_time,block,num_trial_presentations,which_phase,stop_signal_trial_type,left_SSD,right_SSD,accuracy,chosen_bidding_amount,chosen_bidding_level,possible_bid_1,possible_bid_2,possible_bid_3,possible_bid_4,possible_bid_5,possible_bid_6,color_text,shape_text
185.0,3.0,3.0,0.0,3.0,3.0,564.0611180001542,1.0,1.0,phase_1,,,,,,,,,,,,,blue,triangle
0.0,5.0,0.0,1.0,4.0,4.0,495.5579390000366,1.0,1.0,phase_1,,,,,,,,,,,,,yellow,flipped triangle
186.0,3.0,3.0,0.0,4.0,4.0,363.4227259999534,1.0,1.0,phase_1,,,,,,,,,,,,,blue,triangle
87.0,6.0,2.0,1.0,4.0,4.0,414.6277899999404,1.0,1.0,phase_1,,,,,,,,,,,,,cyan,I
381.0,8.0,4.0,1.0,1.0,1.0,435.3221930000472,1.0,1.0,phase_1,,,,,,,,,,,,,orange,circle
394.0,4.0,4.0,0.0,4.0,4.0,581.6370099998949,1.0,1.0,phase_1,,,,,,,,,,,,,magenta,cross
65.0,5.0,1.0,1.0,3.0,3.0,604.5782030000737,1.0,1.0,phase_1,,,,,,,,,,,,,yellow,flipped triangle
191.0,3.0,3.0,0.0,3.0,3.0,444.0176709999832,1.0,1.0,phase_1,,,,,,,,,,,,,blue,triangle
0.0,3.0,0.0,0.0,2.0,2.0,484.5334209999237,1.0,1.0,phase_1,,,,,,,,,,,,,blue,triangle
49.0,1.0,1.0,0.0,3.0,3.0,385.2951939998092,1.0,1.0,phase_1,,,,,,,,,,,,,white,square
0.0,5.0,0.0,1.0,3.0,3.0,357.8801640001074,1.0,1.0,phase_1,,,,,,,,,,,,,yellow,flipped triangle
0.0,4.0,0.0,0.0,2.0,2.0,420.633971000143,1.0,1.0,phase_1,,,,,,,,,,,,,magenta,cross
419.0,4.0,4.0,0.0,2.0,2.0,400.445290000107,1.0,1.0,phase_1,,,,,,,,,,,,,magenta,cross
122.0,6.0,2.0,1.0,2.0,2.0,349.7300039998663,1.0,1.0,phase_1,,,,,,,,,,,,,cyan,I
27.0,5.0,1.0,1.0,4.0,4.0,340.0703490001433,1.0,1.0,phase_1,,,,,,,,,,,,,yellow,flipped triangle
34.0,5.0,1.0,1.0,1.0,1.0,414.3051139999443,1.0,1.0,phase_1,,,,,,,,,,,,,yellow,flipped triangle
411.0,4.0,4.0,0.0,1.0,1.0,496.1295830000836,1.0,2.0,phase_1,,,,,,,,,,,,,magenta,cross
0.0,4.0,0.0,0.0,2.0,2.0,471.9397779999781,1.0,1.0,phase_1,,,,,,,,,,,,,magenta,cross
38.0,1.0,1.0,0.0,3.0,3.0,426.2386529999276,1.0,1.0,phase_1,,,,,,,,,,,,,white,square
100.0,2.0,2.0,0.0,4.0,4.0,392.3841119999451,1.0,1.0,phase_1,,,,,,,,,,,,,gray,hexagon
0.0,7.0,0.0,1.0,2.0,2.0,449.9791870000535,1.0,1.0,phase_1,,,,,,,,,,,,,green,diamond
0.0,2.0,0.0,0.0,2.0,2.0,459.9003469998024,1.0,1.0,phase_1,,,,,,,,,,,,,gray,hexagon
211.0,3.0,3.0,0.0,4.0,4.0,373.9450319999378,1.0,1.0,phase_1,,,,,,,,,,,,,blue,triangle
204.0,3.0,3.0,0.0,2.0,2.0,362.3977009999635,1.0,1.0,phase_1,,,,,,,,,,,,,blue,triangle
386.0,8.0,4.0,1.0,4.0,4.0,320.8339049999722,1.0,1.0,phase_1,,,,,,,,,,,,,orange,circle
403.0,4.0,4.0,0.0,1.0,1.0,445.2826089998325,1.0,1.0,phase_1,,,,,,,,,,,,,magenta,cross
114.0,6.0,2.0,1.0,4.0,4.0,370.9744280001814,1.0,1.0,phase_1,,,,,,,,,,,,,cyan,I
215.0,7.0,3.0,1.0,1.0,1.0,353.2464229999732,1.0,1.0,phase_1,,,,,,,,,,,,,green,diamond
191.0,7.0,3.0,1.0,1.0,1.0,541.3419050000812,1.0,1.0,phase_1,,,,,,,,,,,,,green,diamond
0.0,8.0,0.0,1.0,2.0,2.0,469.6397889999844,1.0,1.0,phase_1,,,,,,,,,,,,,orange,circle
381.0,4.0,4.0,0.0,1.0,1.0,468.7982640000427,1.0,1.0,phase_1,,,,,,,,,,,,,magenta,cross
0.0,4.0,0.0,0.0,4.0,4.0,370.9682879998581,1.0,1.0,phase_1,,,,,,,,,,,,,magenta,cross
189.0,3.0,3.0,0.0,1.0,1.0,642.0325680001042,1.0,1.0,phase_1,,,,,,,,,,,,,blue,triangle
377.0,8.0,4.0,1.0,2.0,2.0,435.3885560001345,1.0,1.0,phase_1,,,,,,,,,,,,,orange,circle
394.0,8.0,4.0,1.0,1.0,1.0,477.8977969999687,1.0,1.0,phase_1,,,,,,,,,,,,,orange,circle
70.0,5.0,1.0,1.0,2.0,2.0,484.4524659999933,1.0,1.0,phase_1,,,,,,,,,,,,,yellow,flipped triangle
118.0,6.0,2.0,1.0,4.0,4.0,483.0923560000428,1.0,1.0,phase_1,,,,,,,,,,,,,cyan,I
398.0,4.0,4.0,0.0,3.0,3.0,494.7901890000139,1.0,1.0,phase_1,,,,,,,,,,,,,magenta,cross
0.0,2.0,0.0,0.0,1.0,1.0,359.4203780000953,1.0,1.0,phase_1,,,,,,,,,,,,,gray,hexagon
392.0,8.0,4.0,1.0,3.0,3.0,647.9141939998954,1.0,1.0,phase_1,,,,,,,,,,,,,orange,circle
180.0,7.0,3.0,1.0,4.0,4.0,535.0731099999848,1.0,1.0,phase_1,,,,,,,,,,,,,green,diamond
41.0,1.0,1.0,0.0,3.0,3.0,522.6485839998531,1.0,1.0,phase_1,,,,,,,,,,,,,white,square
176.0,3.0,3.0,0.0,3.0,3.0,545.5578090000017,1.0,1.0,phase_1,,,,,,,,,,,,,blue,triangle
185.0,3.0,3.0,0.0,4.0,4.0,360.8824319999257,1.0,1.0,phase_1,,,,,,,,,,,,,blue,triangle
223.0,3.0,3.0,0.0,2.0,2.0,417.1803120000277,1.0,1.0,phase_1,,,,,,,,,,,,,blue,triangle
0.0,3.0,0.0,0.0,3.0,3.0,367.6733130000684,1.0,1.0,phase_1,,,,,,,,,,,,,blue,triangle
400.0,4.0,4.0,0.0,4.0,4.0,351.0844489999272,1.0,1.0,phase_1,,,,,,,,,,,,,magenta,cross
33.0,5.0,1.0,1.0,4.0,4.0,406.9652419998419,1.0,1.0,phase_1,,,,,,,,,,,,,yellow,flipped triangle
85.0,2.0,2.0,0.0,3.0,3.0,592.5749599998653,1.0,1.0,phase_1,,,,,,,,,,,,,gray,hexagon
96.0,2.0,2.0,0.0,3.0,3.0,401.7323390000911,1.0,1.0,phase_1,,,,,,,,,,,,,gray,hexagon
194.0,7.0,3.0,1.0,2.0,2.0,493.2131750001645,1.0,1.0,phase_1,,,,,,,,,,,,,green,diamond
31.0,1.0,1.0,0.0,3.0,3.0,486.8919279999772,1.0,1.0,phase_1,,,,,,,,,,,,,white,square
377.0,8.0,4.0,1.0,4.0,4.0,353.22888299992877,1.0,1.0,phase_1,,,,,,,,,,,,,orange,circle
0.0,1.0,0.0,0.0,2.0,2.0,389.9718939999275,1.0,1.0,phase_1,,,,,,,,,,,,,white,square
115.0,2.0,2.0,0.0,1.0,1.0,603.2643159999225,1.0,1.0,phase_1,,,,,,,,,,,,,gray,hexagon
377.0,4.0,4.0,0.0,3.0,3.0,563.1419569999707,1.0,1.0,phase_1,,,,,,,,,,,,,magenta,cross
223.0,7.0,3.0,1.0,4.0,4.0,451.6532930001631,1.0,1.0,phase_1,,,,,,,,,,,,,green,diamond
421.0,4.0,4.0,0.0,2.0,2.0,467.7229290000468,1.0,1.0,phase_1,,,,,,,,,,,,,magenta,cross
407.0,4.0,4.0,0.0,1.0,1.0,462.7013849999457,1.0,1.0,phase_1,,,,,,,,,,,,,magenta,cross
99.0,2.0,2.0,0.0,1.0,1.0,437.5265419998868,1.0,1.0,phase_1,,,,,,,,,,,,,gray,hexagon
50.0,1.0,1.0,0.0,3.0,3.0,579.2997829998967,1.0,1.0,phase_1,,,,,,,,,,,,,white,square
410.0,4.0,4.0,0.0,2.0,2.0,526.1716039999556,1.0,1.0,phase_1,,,,,,,,,,,,,magenta,cross
86.0,6.0,2.0,1.0,3.0,3.0,393.2699429999502,1.0,1.0,phase_1,,,,,,,,,,,,,cyan,I
377.0,4.0,4.0,0.0,3.0,3.0,361.8833889997859,1.0,1.0,phase_1,,,,,,,,,,,,,magenta,cross
0.0,2.0,0.0,0.0,2.0,2.0,447.7116310001747,1.0,1.0,phase_1,,,,,,,,,,,,,gray,hexagon
27.0,1.0,1.0,0.0,1.0,1.0,443.3443110001462,1.0,1.0,phase_1,,,,,,,,,,,,,white,square
0.0,8.0,0.0,1.0,2.0,2.0,429.5304740001029,1.0,1.0,phase_1,,,,,,,,,,,,,orange,circle
0.0,3.0,0.0,0.0,1.0,1.0,379.097559999991,1.0,1.0,phase_1,,,,,,,,,,,,,blue,triangle
204.0,7.0,3.0,1.0,4.0,4.0,389.1886900000827,1.0,1.0,phase_1,,,,,,,,,,,,,green,diamond
407.0,4.0,4.0,0.0,3.0,3.0,445.4601620000176,1.0,1.0,phase_1,,,,,,,,,,,,,magenta,cross
55.0,5.0,1.0,1.0,4.0,4.0,409.6529809999083,1.0,1.0,phase_1,,,,,,,,,,,,,yellow,flipped triangle
187.0,7.0,3.0,1.0,4.0,4.0,414.6362250000948,1.0,1.0,phase_1,,,,,,,,,,,,,green,diamond
97.0,6.0,2.0,1.0,1.0,1.0,446.9700429999648,1.0,1.0,phase_1,,,,,,,,,,,,,cyan,I
0.0,8.0,0.0,1.0,2.0,2.0,508.4026349998112,1.0,1.0,phase_1,,,,,,,,,,,,,orange,circle
0.0,8.0,0.0,1.0,4.0,4.0,356.2953729999663,1.0,1.0,phase_1,,,,,,,,,,,,,orange,circle
400.0,8.0,4.0,1.0,1.0,1.0,422.8708570001345,1.0,1.0,phase_1,,,,,,,,,,,,,orange,circle
94.0,2.0,2.0,0.0,1.0,1.0,408.1958879999092,1.0,1.0,phase_1,,,,,,,,,,,,,gray,hexagon
56.0,5.0,1.0,1.0,2.0,2.0,454.4597359999898,1.0,1.0,phase_1,,,,,,,,,,,,,yellow,flipped triangle
0.0,7.0,0.0,1.0,4.0,4.0,359.5427889999882,1.0,1.0,phase_1,,,,,,,,,,,,,green,diamond
0.0,7.0,0.0,1.0,4.0,4.0,415.7664529998328,1.0,1.0,phase_1,,,,,,,,,,,,,green,diamond
0.0,3.0,0.0,0.0,4.0,4.0,526.0541140000896,1.0,1.0,phase_1,,,,,,,,,,,,,blue,triangle
107.0,2.0,2.0,0.0,1.0,1.0,443.9962859999014,1.0,1.0,phase_1,,,,,,,,,,,,,gray,hexagon
212.0,3.0,3.0,0.0,2.0,2.0,433.5330510000403,1.0,1.0,phase_1,,,,,,,,,,,,,blue,triangle
69.0,5.0,1.0,1.0,1.0,1.0,420.7094190001044,1.0,1.0,phase_1,,,,,,,,,,,,,yellow,flipped triangle
212.0,7.0,3.0,1.0,1.0,1.0,363.6734340000203,1.0,1.0,phase_1,,,,,,,,,,,,,green,diamond
404.0,4.0,4.0,0.0,3.0,3.0,365.3038379998179,1.0,1.0,phase_1,,,,,,,,,,,,,magenta,cross
425.0,8.0,4.0,1.0,4.0,4.0,268.0837979999069,1.0,1.0,phase_1,,,,,,,,,,,,,orange,circle
194.0,3.0,3.0,0.0,1.0,1.0,360.4735569999775,1.0,1.0,phase_1,,,,,,,,,,,,,blue,triangle
60.0,1.0,1.0,0.0,4.0,4.0,364.5028259998071,1.0,1.0,phase_1,,,,,,,,,,,,,white,square
377.0,4.0,4.0,0.0,4.0,4.0,322.1543059999021,1.0,1.0,phase_1,,,,,,,,,,,,,magenta,cross
197.0,7.0,3.0,1.0,2.0,2.0,467.751521000082,1.0,1.0,phase_1,,,,,,,,,,,,,green,diamond
0.0,7.0,0.0,1.0,2.0,2.0,366.8058750001819,1.0,1.0,phase_1,,,,,,,,,,,,,green,diamond
99.0,6.0,2.0,1.0,2.0,2.0,366.4338329999737,1.0,1.0,phase_1,,,,,,,,,,,,,cyan,I
0.0,4.0,0.0,0.0,2.0,2.0,368.1393489998754,1.0,1.0,phase_1,,,,,,,,,,,,,magenta,cross
91.0,2.0,2.0,0.0,3.0,3.0,434.8669870000776,1.0,1.0,phase_1,,,,,,,,,,,,,gray,hexagon
422.0,8.0,4.0,1.0,2.0,2.0,490.4200170001331,1.0,1.0,phase_1,,,,,,,,,,,,,orange,circle
197.0,3.0,3.0,0.0,1.0,1.0,447.699448999856,1.0,1.0,phase_1,,,,,,,,,,,,,blue,triangle
41.0,5.0,1.0,1.0,4.0,4.0,355.3750680000576,1.0,1.0,phase_1,,,,,,,,,,,,,yellow,flipped triangle
53.0,5.0,1.0,1.0,2.0,2.0,423.023331999957,1.0,1.0,phase_1,,,,,,,,,,,,,yellow,flipped triangle
0.0,8.0,0.0,1.0,1.0,1.0,460.9088400000019,1.0,1.0,phase_1,,,,,,,,,,,,,orange,circle
0.0,4.0,0.0,0.0,1.0,1.0,455.298877000132,2.0,1.0,phase_1,,,,,,,,,,,,,magenta,cross
0.0,2.0,0.0,0.0,4.0,4.0,405.6865810000545,2.0,1.0,phase_1,,,,,,,,,,,,,gray,hexagon
0.0,4.0,0.0,0.0,4.0,4.0,392.0328310000514,2.0,1.0,phase_1,,,,,,,,,,,,,magenta,cross
200.0,3.0,3.0,0.0,3.0,3.0,522.3024570000234,2.0,1.0,phase_1,,,,,,,,,,,,,blue,triangle
419.0,8.0,4.0,1.0,4.0,4.0,386.3350419999278,2.0,1.0,phase_1,,,,,,,,,,,,,orange,circle
416.0,8.0,4.0,1.0,4.0,4.0,348.0797580000399,2.0,1.0,phase_1,,,,,,,,,,,,,orange,circle
407.0,4.0,4.0,0.0,2.0,2.0,488.1594710000172,2.0,1.0,phase_1,,,,,,,,,,,,,magenta,cross
0.0,7.0,0.0,1.0,3.0,3.0,355.9346009999444,2.0,1.0,phase_1,,,,,,,,,,,,,green,diamond
35.0,1.0,1.0,0.0,2.0,2.0,450.8488019998822,2.0,1.0,phase_1,,,,,,,,,,,,,white,square
192.0,3.0,3.0,0.0,1.0,1.0,509.10414099985246,2.0,1.0,phase_1,,,,,,,,,,,,,blue,triangle
375.0,4.0,4.0,0.0,1.0,1.0,372.7515789998961,2.0,1.0,phase_1,,,,,,,,,,,,,magenta,cross
25.0,1.0,1.0,0.0,4.0,4.0,321.3374810000005,2.0,1.0,phase_1,,,,,,,,,,,,,white,square
178.0,3.0,3.0,0.0,1.0,1.0,408.0965969999397,2.0,1.0,phase_1,,,,,,,,,,,,,blue,triangle
376.0,8.0,4.0,1.0,2.0,2.0,435.3107150000141,2.0,1.0,phase_1,,,,,,,,,,,,,orange,circle
86.0,2.0,2.0,0.0,4.0,4.0,270.6924399999479,2.0,1.0,phase_1,,,,,,,,,,,,,gray,hexagon
0.0,1.0,0.0,0.0,1.0,1.0,300.6556180000643,2.0,1.0,phase_1,,,,,,,,,,,,,white,square
105.0,6.0,2.0,1.0,1.0,1.0,353.3668089999082,2.0,1.0,phase_1,,,,,,,,,,,,,cyan,I
122.0,2.0,2.0,0.0,2.0,2.0,383.7687680002091,2.0,1.0,phase_1,,,,,,,,,,,,,gray,hexagon
78.0,2.0,2.0,0.0,4.0,4.0,354.4348439997975,2.0,1.0,phase_1,,,,,,,,,,,,,gray,hexagon
85.0,6.0,2.0,1.0,4.0,4.0,334.7114530001818,2.0,1.0,phase_1,,,,,,,,,,,,,cyan,I
89.0,6.0,2.0,1.0,2.0,2.0,418.9170180000019,2.0,1.0,phase_1,,,,,,,,,,,,,cyan,I
180.0,3.0,3.0,0.0,1.0,1.0,352.9917109999587,2.0,1.0,phase_1,,,,,,,,,,,,,blue,triangle
397.0,4.0,4.0,0.0,3.0,3.0,346.9435599999997,2.0,1.0,phase_1,,,,,,,,,,,,,magenta,cross
37.0,1.0,1.0,0.0,3.0,3.0,576.7373579999457,2.0,1.0,phase_1,,,,,,,,,,,,,white,square
225.0,7.0,3.0,1.0,4.0,4.0,343.6646529999052,2.0,1.0,phase_1,,,,,,,,,,,,,green,diamond
78.0,6.0,2.0,1.0,2.0,2.0,545.4158019999795,2.0,1.0,phase_1,,,,,,,,,,,,,cyan,I
114.0,6.0,2.0,1.0,3.0,3.0,433.558081000001,2.0,1.0,phase_1,,,,,,,,,,,,,cyan,I
181.0,7.0,3.0,1.0,1.0,1.0,400.0759840000683,2.0,1.0,phase_1,,,,,,,,,,,,,green,diamond
35.0,5.0,1.0,1.0,3.0,3.0,373.2895800001188,2.0,1.0,phase_1,,,,,,,,,,,,,yellow,flipped triangle
0.0,3.0,0.0,0.0,2.0,2.0,415.2275649998955,2.0,1.0,phase_1,,,,,,,,,,,,,blue,triangle
390.0,4.0,4.0,0.0,1.0,1.0,393.076001000054,2.0,1.0,phase_1,,,,,,,,,,,,,magenta,cross
69.0,1.0,1.0,0.0,1.0,1.0,347.5171420000151,2.0,1.0,phase_1,,,,,,,,,,,,,white,square
116.0,6.0,2.0,1.0,3.0,3.0,421.0985760000767,2.0,1.0,phase_1,,,,,,,,,,,,,cyan,I
0.0,2.0,0.0,0.0,1.0,1.0,387.4060269999972,2.0,1.0,phase_1,,,,,,,,,,,,,gray,hexagon
77.0,6.0,2.0,1.0,3.0,3.0,342.7516049998758,2.0,1.0,phase_1,,,,,,,,,,,,,cyan,I
201.0,7.0,3.0,1.0,3.0,3.0,395.8966899999723,2.0,1.0,phase_1,,,,,,,,,,,,,green,diamond
386.0,8.0,4.0,1.0,3.0,3.0,350.6284289999257,2.0,1.0,phase_1,,,,,,,,,,,,,orange,circle
58.0,5.0,1.0,1.0,3.0,3.0,395.7893849999436,2.0,1.0,phase_1,,,,,,,,,,,,,yellow,flipped triangle
72.0,1.0,1.0,0.0,2.0,2.0,382.8562210001109,2.0,1.0,phase_1,,,,,,,,,,,,,white,square
409.0,4.0,4.0,0.0,1.0,1.0,572.1286810000947,2.0,1.0,phase_1,,,,,,,,,,,,,magenta,cross
109.0,2.0,2.0,0.0,3.0,3.0,369.3749820001812,2.0,1.0,phase_1,,,,,,,,,,,,,gray,hexagon
380.0,4.0,4.0,0.0,2.0,2.0,393.1405810001251,2.0,1.0,phase_1,,,,,,,,,,,,,magenta,cross
115.0,6.0,2.0,1.0,1.0,1.0,386.5465359999689,2.0,1.0,phase_1,,,,,,,,,,,,,cyan,I
421.0,8.0,4.0,1.0,4.0,4.0,469.1458690001582,2.0,1.0,phase_1,,,,,,,,,,,,,orange,circle
96.0,2.0,2.0,0.0,4.0,4.0,380.6751170000098,2.0,1.0,phase_1,,,,,,,,,,,,,gray,hexagon
0.0,7.0,0.0,1.0,2.0,2.0,360.4234839999662,2.0,1.0,phase_1,,,,,,,,,,,,,green,diamond
37.0,5.0,1.0,1.0,3.0,3.0,450.8711230000699,2.0,1.0,phase_1,,,,,,,,,,,,,yellow,flipped triangle
203.0,7.0,3.0,1.0,2.0,2.0,428.916504999961,2.0,1.0,phase_1,,,,,,,,,,,,,green,diamond
99.0,6.0,2.0,1.0,2.0,2.0,436.6729840000971,2.0,1.0,phase_1,,,,,,,,,,,,,cyan,I
0.0,6.0,0.0,1.0,3.0,3.0,343.6912039999242,2.0,1.0,phase_1,,,,,,,,,,,,,cyan,I
189.0,7.0,3.0,1.0,4.0,4.0,450.8937450000303,2.0,1.0,phase_1,,,,,,,,,,,,,green,diamond
122.0,6.0,2.0,1.0,2.0,2.0,408.2234939999125,2.0,1.0,phase_1,,,,,,,,,,,,,cyan,I
0.0,6.0,0.0,1.0,4.0,4.0,371.4648380000653,2.0,1.0,phase_1,,,,,,,,,,,,,cyan,I
0.0,1.0,0.0,0.0,1.0,1.0,397.1909370000048,2.0,1.0,phase_1,,,,,,,,,,,,,white,square
120.0,6.0,2.0,1.0,1.0,1.0,468.9468399999441,2.0,1.0,phase_1,,,,,,,,,,,,,cyan,I
0.0,6.0,0.0,1.0,4.0,4.0,403.7445769999976,2.0,1.0,phase_1,,,,,,,,,,,,,cyan,I
25.0,5.0,1.0,1.0,4.0,4.0,390.4688499999338,2.0,1.0,phase_1,,,,,,,,,,,,,yellow,flipped triangle
0.0,6.0,0.0,1.0,1.0,1.0,393.1195760001174,2.0,1.0,phase_1,,,,,,,,,,,,,cyan,I
0.0,5.0,0.0,1.0,2.0,2.0,436.11947599993067,2.0,1.0,phase_1,,,,,,,,,,,,,yellow,flipped triangle
0.0,6.0,0.0,1.0,2.0,2.0,466.6922139999769,2.0,1.0,phase_1,,,,,,,,,,,,,cyan,I
184.0,7.0,3.0,1.0,2.0,2.0,459.1737729999749,2.0,1.0,phase_1,,,,,,,,,,,,,green,diamond
210.0,7.0,3.0,1.0,4.0,4.0,477.1248179999929,2.0,1.0,phase_1,,,,,,,,,,,,,green,diamond
28.0,5.0,1.0,1.0,4.0,4.0,378.1741070001772,2.0,1.0,phase_1,,,,,,,,,,,,,yellow,flipped triangle
207.0,3.0,3.0,0.0,1.0,1.0,579.117770999801,2.0,1.0,phase_1,,,,,,,,,,,,,blue,triangle
192.0,7.0,3.0,1.0,2.0,2.0,469.8104359999888,2.0,1.0,phase_1,,,,,,,,,,,,,green,diamond
404.0,8.0,4.0,1.0,3.0,3.0,441.3382569998703,2.0,1.0,phase_1,,,,,,,,,,,,,orange,circle
390.0,8.0,4.0,1.0,2.0,2.0,468.1973620001827,2.0,1.0,phase_1,,,,,,,,,,,,,orange,circle
90.0,2.0,2.0,0.0,3.0,3.0,489.2502190000414,2.0,1.0,phase_1,,,,,,,,,,,,,gray,hexagon
0.0,1.0,0.0,0.0,1.0,1.0,583.34462300013,2.0,1.0,phase_1,,,,,,,,,,,,,white,square
376.0,4.0,4.0,0.0,2.0,2.0,415.0183860001561,2.0,1.0,phase_1,,,,,,,,,,,,,magenta,cross
0.0,6.0,0.0,1.0,4.0,4.0,366.3783020001574,2.0,1.0,phase_1,,,,,,,,,,,,,cyan,I
218.0,7.0,3.0,1.0,1.0,1.0,324.4122529999913,2.0,1.0,phase_1,,,,,,,,,,,,,green,diamond
0.0,4.0,0.0,0.0,1.0,1.0,392.0560430001387,2.0,1.0,phase_1,,,,,,,,,,,,,magenta,cross
51.0,1.0,1.0,0.0,1.0,1.0,339.2561339999247,2.0,1.0,phase_1,,,,,,,,,,,,,white,square
121.0,6.0,2.0,1.0,4.0,4.0,303.3617739999954,2.0,1.0,phase_1,,,,,,,,,,,,,cyan,I
99.0,6.0,2.0,1.0,3.0,3.0,417.8609299999607,2.0,1.0,phase_1,,,,,,,,,,,,,cyan,I
25.0,5.0,1.0,1.0,2.0,2.0,329.3246810001164,2.0,1.0,phase_1,,,,,,,,,,,,,yellow,flipped triangle
65.0,5.0,1.0,1.0,2.0,2.0,426.9186819999504,2.0,1.0,phase_1,,,,,,,,,,,,,yellow,flipped triangle
57.0,5.0,1.0,1.0,3.0,3.0,554.0890369998124,2.0,1.0,phase_1,,,,,,,,,,,,,yellow,flipped triangle
212.0,7.0,3.0,1.0,4.0,4.0,334.3132219999916,2.0,1.0,phase_1,,,,,,,,,,,,,green,diamond
221.0,3.0,3.0,0.0,2.0,2.0,386.1245959999451,2.0,1.0,phase_1,,,,,,,,,,,,,blue,triangle
409.0,8.0,4.0,1.0,4.0,4.0,401.7636500000208,2.0,1.0,phase_1,,,,,,,,,,,,,orange,circle
0.0,5.0,0.0,1.0,3.0,3.0,489.7604549998959,2.0,1.0,phase_1,,,,,,,,,,,,,yellow,flipped triangle
403.0,8.0,4.0,1.0,2.0,2.0,413.0897019999793,2.0,1.0,phase_1,,,,,,,,,,,,,orange,circle
92.0,2.0,2.0,0.0,4.0,4.0,386.2926540000444,2.0,1.0,phase_1,,,,,,,,,,,,,gray,hexagon
210.0,3.0,3.0,0.0,3.0,3.0,402.957416000163,2.0,1.0,phase_1,,,,,,,,,,,,,blue,triangle
0.0,2.0,0.0,0.0,3.0,3.0,434.0797639999891,2.0,1.0,phase_1,,,,,,,,,,,,,gray,hexagon
0.0,2.0,0.0,0.0,1.0,1.0,575.9941250000793,2.0,1.0,phase_1,,,,,,,,,,,,,gray,hexagon
91.0,6.0,2.0,1.0,1.0,1.0,445.2531740000722,2.0,1.0,phase_1,,,,,,,,,,,,,cyan,I
0.0,5.0,0.0,1.0,1.0,1.0,603.3655579999504,2.0,1.0,phase_1,,,,,,,,,,,,,yellow,flipped triangle
0.0,1.0,0.0,0.0,2.0,2.0,558.1092380000428,2.0,1.0,phase_1,,,,,,,,,,,,,white,square
219.0,7.0,3.0,1.0,3.0,3.0,390.3796869999496,2.0,1.0,phase_1,,,,,,,,,,,,,green,diamond
407.0,8.0,4.0,1.0,1.0,1.0,400.8712770000784,2.0,1.0,phase_1,,,,,,,,,,,,,orange,circle
77.0,2.0,2.0,0.0,1.0,1.0,379.4077920001655,2.0,1.0,phase_1,,,,,,,,,,,,,gray,hexagon
381.0,4.0,4.0,0.0,4.0,4.0,401.8737199999123,2.0,1.0,phase_1,,,,,,,,,,,,,magenta,cross
53.0,1.0,1.0,0.0,1.0,1.0,342.5997760000427,2.0,1.0,phase_1,,,,,,,,,,,,,white,square
0.0,2.0,0.0,0.0,2.0,2.0,494.8447360000045,2.0,1.0,phase_1,,,,,,,,,,,,,gray,hexagon
0.0,1.0,0.0,0.0,3.0,3.0,426.5656820000458,2.0,1.0,phase_1,,,,,,,,,,,,,white,square
179.0,3.0,3.0,0.0,3.0,3.0,437.1434659999522,2.0,1.0,phase_1,,,,,,,,,,,,,blue,triangle
0.0,3.0,0.0,0.0,3.0,3.0,455.5629510000472,2.0,1.0,phase_1,,,,,,,,,,,,,blue,triangle
187.0,3.0,3.0,0.0,2.0,2.0,452.0220929998686,3.0,1.0,phase_1,,,,,,,,,,,,,blue,triangle
87.0,6.0,2.0,1.0,3.0,3.0,334.1353389998858,3.0,1.0,phase_1,,,,,,,,,,,,,cyan,I
92.0,6.0,2.0,1.0,4.0,4.0,466.0296120000566,3.0,1.0,phase_1,,,,,,,,,,,,,cyan,I
51.0,5.0,1.0,1.0,1.0,1.0,520.5653380000967,3.0,1.0,phase_1,,,,,,,,,,,,,yellow,flipped triangle
0.0,1.0,0.0,0.0,2.0,2.0,368.890409999949,3.0,1.0,phase_1,,,,,,,,,,,,,white,square
0.0,3.0,0.0,0.0,1.0,1.0,451.3086160000057,3.0,1.0,phase_1,,,,,,,,,,,,,blue,triangle
179.0,7.0,3.0,1.0,2.0,2.0,375.9077269999125,3.0,1.0,phase_1,,,,,,,,,,,,,green,diamond
0.0,6.0,0.0,1.0,1.0,1.0,436.9948930000191,3.0,1.0,phase_1,,,,,,,,,,,,,cyan,I
0.0,2.0,0.0,0.0,2.0,2.0,355.6407240000681,3.0,1.0,phase_1,,,,,,,,,,,,,gray,hexagon
196.0,7.0,3.0,1.0,2.0,2.0,370.8138930001041,3.0,1.0,phase_1,,,,,,,,,,,,,green,diamond
0.0,3.0,0.0,0.0,1.0,1.0,381.0004370000115,3.0,1.0,phase_1,,,,,,,,,,,,,blue,triangle
410.0,8.0,4.0,1.0,4.0,4.0,343.4258600000248,3.0,1.0,phase_1,,,,,,,,,,,,,orange,circle
72.0,5.0,1.0,1.0,4.0,4.0,358.0457769999157,3.0,1.0,phase_1,,,,,,,,,,,,,yellow,flipped triangle
99.0,6.0,2.0,1.0,4.0,4.0,353.0931299999338,3.0,1.0,phase_1,,,,,,,,,,,,,cyan,I
424.0,8.0,4.0,1.0,3.0,3.0,390.5973100002029,3.0,1.0,phase_1,,,,,,,,,,,,,orange,circle
183.0,7.0,3.0,1.0,4.0,4.0,300.7173519999924,3.0,1.0,phase_1,,,,,,,,,,,,,green,diamond
375.0,8.0,4.0,1.0,2.0,2.0,349.9613379999573,3.0,1.0,phase_1,,,,,,,,,,,,,orange,circle
203.0,3.0,3.0,0.0,4.0,4.0,275.8288990000892,3.0,1.0,phase_1,,,,,,,,,,,,,blue,triangle
420.0,8.0,4.0,1.0,4.0,4.0,377.9292719998466,3.0,1.0,phase_1,,,,,,,,,,,,,orange,circle
401.0,4.0,4.0,0.0,3.0,3.0,477.19943900006,3.0,1.0,phase_1,,,,,,,,,,,,,magenta,cross
185.0,7.0,3.0,1.0,3.0,3.0,368.1270459999268,3.0,1.0,phase_1,,,,,,,,,,,,,green,diamond
380.0,4.0,4.0,0.0,2.0,2.0,423.937044000013,3.0,1.0,phase_1,,,,,,,,,,,,,magenta,cross
0.0,5.0,0.0,1.0,2.0,2.0,533.878636000054,3.0,1.0,phase_1,,,,,,,,,,,,,yellow,flipped triangle
74.0,5.0,1.0,1.0,4.0,4.0,374.1947809999146,3.0,1.0,phase_1,,,,,,,,,,,,,yellow,flipped triangle
403.0,8.0,4.0,1.0,2.0,2.0,477.7049909998823,3.0,1.0,phase_1,,,,,,,,,,,,,orange,circle
90.0,6.0,2.0,1.0,4.0,4.0,353.4196799998881,3.0,1.0,phase_1,,,,,,,,,,,,,cyan,I
84.0,2.0,2.0,0.0,3.0,3.0,418.7838929999543,3.0,1.0,phase_1,,,,,,,,,,,,,gray,hexagon
219.0,3.0,3.0,0.0,4.0,4.0,465.5502099999467,3.0,1.0,phase_1,,,,,,,,,,,,,blue,triangle
109.0,6.0,2.0,1.0,2.0,2.0,347.8362849998575,3.0,1.0,phase_1,,,,,,,,,,,,,cyan,I
0.0,6.0,0.0,1.0,4.0,4.0,316.1787269998513,3.0,1.0,phase_1,,,,,,,,,,,,,cyan,I
63.0,5.0,1.0,1.0,3.0,3.0,469.9061090000214,3.0,1.0,phase_1,,,,,,,,,,,,,yellow,flipped triangle
69.0,1.0,1.0,0.0,4.0,4.0,406.2922049999997,3.0,1.0,phase_1,,,,,,,,,,,,,white,square
397.0,8.0,4.0,1.0,1.0,1.0,620.280718999993,3.0,1.0,phase_1,,,,,,,,,,,,,orange,circle
199.0,7.0,3.0,1.0,1.0,1.0,437.8421440001148,3.0,1.0,phase_1,,,,,,,,,,,,,green,diamond
191.0,7.0,3.0,1.0,2.0,2.0,428.7860009999349,3.0,1.0,phase_1,,,,,,,,,,,,,green,diamond
187.0,3.0,3.0,0.0,1.0,1.0,405.6472439999652,3.0,1.0,phase_1,,,,,,,,,,,,,blue,triangle
0.0,8.0,0.0,1.0,3.0,3.0,361.4319969999542,3.0,1.0,phase_1,,,,,,,,,,,,,orange,circle
99.0,2.0,2.0,0.0,2.0,2.0,351.7856969999684,3.0,1.0,phase_1,,,,,,,,,,,,,gray,hexagon
415.0,4.0,4.0,0.0,3.0,3.0,330.4621470001621,3.0,1.0,phase_1,,,,,,,,,,,,,magenta,cross
122.0,2.0,2.0,0.0,4.0,4.0,319.1661359999216,3.0,1.0,phase_1,,,,,,,,,,,,,gray,hexagon
210.0,7.0,3.0,1.0,1.0,1.0,341.1521379998703,3.0,1.0,phase_1,,,,,,,,,,,,,green,diamond
34.0,1.0,1.0,0.0,1.0,1.0,355.275507999977,3.0,1.0,phase_1,,,,,,,,,,,,,white,square
0.0,4.0,0.0,0.0,2.0,2.0,446.054396999898,3.0,1.0,phase_1,,,,,,,,,,,,,magenta,cross
0.0,7.0,0.0,1.0,3.0,3.0,322.8991099999803,3.0,1.0,phase_1,,,,,,,,,,,,,green,diamond
383.0,8.0,4.0,1.0,2.0,2.0,388.6954169997807,3.0,1.0,phase_1,,,,,,,,,,,,,orange,circle
30.0,5.0,1.0,1.0,1.0,1.0,366.2527520000367,3.0,1.0,phase_1,,,,,,,,,,,,,yellow,flipped triangle
211.0,7.0,3.0,1.0,3.0,3.0,356.1771200002113,3.0,1.0,phase_1,,,,,,,,,,,,,green,diamond
0.0,5.0,0.0,1.0,3.0,3.0,375.9976070000448,3.0,1.0,phase_1,,,,,,,,,,,,,yellow,flipped triangle
82.0,6.0,2.0,1.0,4.0,4.0,320.30414799965,3.0,1.0,phase_1,,,,,,,,,,,,,cyan,I
386.0,4.0,4.0,0.0,3.0,3.0,377.6304150001124,3.0,1.0,phase_1,,,,,,,,,,,,,magenta,cross
0.0,5.0,0.0,1.0,1.0,1.0,322.9940770002031,3.0,1.0,phase_1,,,,,,,,,,,,,yellow,flipped triangle
0.0,1.0,0.0,0.0,3.0,3.0,378.0480959999295,3.0,1.0,phase_1,,,,,,,,,,,,,white,square
84.0,6.0,2.0,1.0,1.0,1.0,367.2711190001791,3.0,1.0,phase_1,,,,,,,,,,,,,cyan,I
114.0,2.0,2.0,0.0,2.0,2.0,473.7383040001077,3.0,1.0,phase_1,,,,,,,,,,,,,gray,hexagon
225.0,7.0,3.0,1.0,3.0,3.0,315.8416969999962,3.0,1.0,phase_1,,,,,,,,,,,,,green,diamond
0.0,7.0,0.0,1.0,1.0,1.0,422.222765999777,3.0,1.0,phase_1,,,,,,,,,,,,,green,diamond
0.0,5.0,0.0,1.0,3.0,3.0,329.4715590000123,3.0,1.0,phase_1,,,,,,,,,,,,,yellow,flipped triangle
100.0,6.0,2.0,1.0,1.0,1.0,322.5395639997259,3.0,1.0,phase_1,,,,,,,,,,,,,cyan,I
204.0,7.0,3.0,1.0,3.0,3.0,310.0193069999477,3.0,1.0,phase_1,,,,,,,,,,,,,green,diamond
212.0,3.0,3.0,0.0,4.0,4.0,533.658116999959,3.0,1.0,phase_1,,,,,,,,,,,,,blue,triangle
42.0,1.0,1.0,0.0,3.0,3.0,383.34086499980907,3.0,1.0,phase_1,,,,,,,,,,,,,white,square
219.0,3.0,3.0,0.0,4.0,4.0,336.084092999954,3.0,1.0,phase_1,,,,,,,,,,,,,blue,triangle
116.0,6.0,2.0,1.0,3.0,3.0,363.7370860001283,3.0,1.0,phase_1,,,,,,,,,,,,,cyan,I
74.0,1.0,1.0,0.0,2.0,2.0,391.2433109999256,3.0,1.0,phase_1,,,,,,,,,,,,,white,square
99.0,2.0,2.0,0.0,4.0,4.0,381.8602830001509,3.0,1.0,phase_1,,,,,,,,,,,,,gray,hexagon
0.0,8.0,0.0,1.0,2.0,2.0,393.7054820003141,3.0,1.0,phase_1,,,,,,,,,,,,,orange,circle
33.0,1.0,1.0,0.0,1.0,1.0,412.0944350001991,3.0,1.0,phase_1,,,,,,,,,,,,,white,square
225.0,3.0,3.0,0.0,3.0,3.0,511.40680999969845,3.0,1.0,phase_1,,,,,,,,,,,,,blue,triangle
60.0,1.0,1.0,0.0,2.0,2.0,391.0760579997259,3.0,1.0,phase_1,,,,,,,,,,,,,white,square
416.0,4.0,4.0,0.0,1.0,1.0,428.5059869998804,3.0,1.0,phase_1,,,,,,,,,,,,,magenta,cross
191.0,3.0,3.0,0.0,4.0,4.0,331.6863099998954,3.0,1.0,phase_1,,,,,,,,,,,,,blue,triangle
114.0,2.0,2.0,0.0,1.0,1.0,388.1246189998819,3.0,1.0,phase_1,,,,,,,,,,,,,gray,hexagon
101.0,6.0,2.0,1.0,2.0,2.0,371.9522159999542,3.0,1.0,phase_1,,,,,,,,,,,,,cyan,I
96.0,6.0,2.0,1.0,1.0,1.0,246.9504290002078,3.0,1.0,phase_1,,,,,,,,,,,,,cyan,I
196.0,3.0,3.0,0.0,2.0,2.0,361.230231999798,3.0,1.0,phase_1,,,,,,,,,,,,,blue,triangle
48.0,1.0,1.0,0.0,2.0,2.0,351.0706539996135,3.0,1.0,phase_1,,,,,,,,,,,,,white,square
411.0,8.0,4.0,1.0,1.0,1.0,288.59145299975347,3.0,1.0,phase_1,,,,,,,,,,,,,orange,circle
420.0,4.0,4.0,0.0,1.0,1.0,340.580711000257,3.0,1.0,phase_1,,,,,,,,,,,,,magenta,cross
97.0,2.0,2.0,0.0,1.0,1.0,341.1038799999915,3.0,1.0,phase_1,,,,,,,,,,,,,gray,hexagon
383.0,4.0,4.0,0.0,1.0,1.0,331.5731779998714,3.0,1.0,phase_1,,,,,,,,,,,,,magenta,cross
50.0,5.0,1.0,1.0,2.0,2.0,364.0508079997744,3.0,1.0,phase_1,,,,,,,,,,,,,yellow,flipped triangle
0.0,2.0,0.0,0.0,4.0,4.0,289.5487209998464,3.0,1.0,phase_1,,,,,,,,,,,,,gray,hexagon
0.0,4.0,0.0,0.0,3.0,3.0,309.8079470000812,3.0,1.0,phase_1,,,,,,,,,,,,,magenta,cross
77.0,2.0,2.0,0.0,2.0,2.0,360.6963639999776,3.0,1.0,phase_1,,,,,,,,,,,,,gray,hexagon
0.0,8.0,0.0,1.0,4.0,4.0,351.1030869999558,3.0,1.0,phase_1,,,,,,,,,,,,,orange,circle
401.0,8.0,4.0,1.0,4.0,4.0,340.7986299998811,3.0,1.0,phase_1,,,,,,,,,,,,,orange,circle
0.0,8.0,0.0,1.0,2.0,2.0,300.4260990001057,3.0,1.0,phase_1,,,,,,,,,,,,,orange,circle
381.0,8.0,4.0,1.0,1.0,1.0,522.4830320003093,3.0,1.0,phase_1,,,,,,,,,,,,,orange,circle
0.0,6.0,0.0,1.0,2.0,2.0,354.0235139998913,3.0,1.0,phase_1,,,,,,,,,,,,,cyan,I
407.0,8.0,4.0,1.0,3.0,3.0,506.31395800019163,3.0,1.0,phase_1,,,,,,,,,,,,,orange,circle
55.0,1.0,1.0,0.0,2.0,2.0,426.1469729999589,3.0,1.0,phase_1,,,,,,,,,,,,,white,square
201.0,3.0,3.0,0.0,4.0,4.0,340.8199679997779,3.0,1.0,phase_1,,,,,,,,,,,,,blue,triangle
107.0,6.0,2.0,1.0,1.0,1.0,295.9545449998586,3.0,1.0,phase_1,,,,,,,,,,,,,cyan,I
57.0,1.0,1.0,0.0,4.0,4.0,439.9403570000686,3.0,1.0,phase_1,,,,,,,,,,,,,white,square
0.0,1.0,0.0,0.0,1.0,1.0,540.3977199998735,3.0,1.0,phase_1,,,,,,,,,,,,,white,square
183.0,3.0,3.0,0.0,2.0,2.0,422.0335899999554,3.0,1.0,phase_1,,,,,,,,,,,,,blue,triangle
380.0,8.0,4.0,1.0,1.0,1.0,617.3114949997398,3.0,1.0,phase_1,,,,,,,,,,,,,orange,circle
65.0,1.0,1.0,0.0,2.0,2.0,482.5072870003168,3.0,1.0,phase_1,,,,,,,,,,,,,white,square
58.0,1.0,1.0,0.0,1.0,1.0,468.4885810002015,3.0,1.0,phase_1,,,,,,,,,,,,,white,square
377.0,8.0,4.0,1.0,2.0,2.0,492.3082909999721,3.0,1.0,phase_1,,,,,,,,,,,,,orange,circle
77.0,6.0,2.0,1.0,3.0,3.0,372.9288300000917,4.0,1.0,phase_1,,,,,,,,,,,,,cyan,I
69.0,5.0,1.0,1.0,2.0,2.0,367.4715800002559,4.0,1.0,phase_1,,,,,,,,,,,,,yellow,flipped triangle
67.0,5.0,1.0,1.0,1.0,1.0,355.1731480001763,4.0,1.0,phase_1,,,,,,,,,,,,,yellow,flipped triangle
89.0,2.0,2.0,0.0,1.0,1.0,473.80083500002,4.0,1.0,phase_1,,,,,,,,,,,,,gray,hexagon
218.0,3.0,3.0,0.0,4.0,4.0,344.5543809998526,4.0,1.0,phase_1,,,,,,,,,,,,,blue,triangle
99.0,2.0,2.0,0.0,3.0,3.0,434.0629490002357,4.0,2.0,phase_1,,,,,,,,,,,,,gray,hexagon
181.0,3.0,3.0,0.0,3.0,3.0,477.5794789998144,4.0,1.0,phase_1,,,,,,,,,,,,,blue,triangle
103.0,2.0,2.0,0.0,1.0,1.0,519.1373540001223,4.0,1.0,phase_1,,,,,,,,,,,,,gray,hexagon
60.0,5.0,1.0,1.0,3.0,3.0,465.0704119999318,4.0,1.0,phase_1,,,,,,,,,,,,,yellow,flipped triangle
0.0,3.0,0.0,0.0,1.0,1.0,576.2951599999724,4.0,1.0,phase_1,,,,,,,,,,,,,blue,triangle
67.0,1.0,1.0,0.0,4.0,4.0,445.6713969998418,4.0,1.0,phase_1,,,,,,,,,,,,,white,square
114.0,6.0,2.0,1.0,4.0,4.0,382.4457599998823,4.0,1.0,phase_1,,,,,,,,,,,,,cyan,I
392.0,4.0,4.0,0.0,2.0,2.0,510.6994350003333,4.0,1.0,phase_1,,,,,,,,,,,,,magenta,cross
0.0,3.0,0.0,0.0,4.0,4.0,464.4438549998995,4.0,1.0,phase_1,,,,,,,,,,,,,blue,triangle
185.0,7.0,3.0,1.0,3.0,3.0,501.1457020000307,4.0,1.0,phase_1,,,,,,,,,,,,,green,diamond
72.0,5.0,1.0,1.0,1.0,1.0,346.0431899998184,4.0,1.0,phase_1,,,,,,,,,,,,,yellow,flipped triangle
418.0,8.0,4.0,1.0,1.0,1.0,461.7347289999998,4.0,1.0,phase_1,,,,,,,,,,,,,orange,circle
186.0,7.0,3.0,1.0,3.0,3.0,364.534378999906,4.0,1.0,phase_1,,,,,,,,,,,,,green,diamond
63.0,1.0,1.0,0.0,4.0,4.0,382.2741039998618,4.0,1.0,phase_1,,,,,,,,,,,,,white,square
121.0,2.0,2.0,0.0,4.0,4.0,391.4048589999765,4.0,1.0,phase_1,,,,,,,,,,,,,gray,hexagon
0.0,8.0,0.0,1.0,4.0,4.0,346.7971230002149,4.0,1.0,phase_1,,,,,,,,,,,,,orange,circle
94.0,6.0,2.0,1.0,2.0,2.0,384.9394730000313,4.0,1.0,phase_1,,,,,,,,,,,,,cyan,I
215.0,3.0,3.0,0.0,3.0,3.0,499.8206820000632,4.0,1.0,phase_1,,,,,,,,,,,,,blue,triangle
204.0,3.0,3.0,0.0,3.0,3.0,460.5115499998646,4.0,1.0,phase_1,,,,,,,,,,,,,blue,triangle
96.0,6.0,2.0,1.0,3.0,3.0,341.4767989997926,4.0,1.0,phase_1,,,,,,,,,,,,,cyan,I
87.0,2.0,2.0,0.0,2.0,2.0,462.4020809997091,4.0,1.0,phase_1,,,,,,,,,,,,,gray,hexagon
49.0,5.0,1.0,1.0,2.0,2.0,479.4310970000879,4.0,1.0,phase_1,,,,,,,,,,,,,yellow,flipped triangle
74.0,1.0,1.0,0.0,4.0,4.0,499.4615900000099,4.0,1.0,phase_1,,,,,,,,,,,,,white,square
392.0,4.0,4.0,0.0,4.0,4.0,375.7527170000685,4.0,1.0,phase_1,,,,,,,,,,,,,magenta,cross
415.0,8.0,4.0,1.0,3.0,3.0,440.4360020002968,4.0,1.0,phase_1,,,,,,,,,,,,,orange,circle
87.0,2.0,2.0,0.0,2.0,2.0,465.7630820001941,4.0,1.0,phase_1,,,,,,,,,,,,,gray,hexagon
107.0,6.0,2.0,1.0,1.0,1.0,432.6025570003367,4.0,1.0,phase_1,,,,,,,,,,,,,cyan,I
0.0,7.0,0.0,1.0,2.0,2.0,403.3359320001182,4.0,1.0,phase_1,,,,,,,,,,,,,green,diamond
425.0,4.0,4.0,0.0,3.0,3.0,464.7079480000684,4.0,1.0,phase_1,,,,,,,,,,,,,magenta,cross
184.0,3.0,3.0,0.0,1.0,1.0,529.8078079999868,4.0,1.0,phase_1,,,,,,,,,,,,,blue,triangle
178.0,7.0,3.0,1.0,1.0,1.0,489.5438389999071,4.0,1.0,phase_1,,,,,,,,,,,,,green,diamond
38.0,5.0,1.0,1.0,3.0,3.0,376.3471180000124,4.0,1.0,phase_1,,,,,,,,,,,,,yellow,flipped triangle
31.0,5.0,1.0,1.0,1.0,1.0,394.4301719998293,4.0,1.0,phase_1,,,,,,,,,,,,,yellow,flipped triangle
416.0,8.0,4.0,1.0,2.0,2.0,387.7002379999794,4.0,1.0,phase_1,,,,,,,,,,,,,orange,circle
0.0,4.0,0.0,0.0,1.0,1.0,317.3534400002609,4.0,1.0,phase_1,,,,,,,,,,,,,magenta,cross
107.0,2.0,2.0,0.0,2.0,2.0,411.20968199993507,4.0,1.0,phase_1,,,,,,,,,,,,,gray,hexagon
74.0,5.0,1.0,1.0,4.0,4.0,407.01825799988,4.0,1.0,phase_1,,,,,,,,,,,,,yellow,flipped triangle
0.0,1.0,0.0,0.0,3.0,3.0,446.9849930001146,4.0,1.0,phase_1,,,,,,,,,,,,,white,square
386.0,4.0,4.0,0.0,4.0,4.0,428.28987699977,4.0,1.0,phase_1,,,,,,,,,,,,,magenta,cross
0.0,5.0,0.0,1.0,2.0,2.0,479.9882430002071,4.0,1.0,phase_1,,,,,,,,,,,,,yellow,flipped triangle
403.0,4.0,4.0,0.0,2.0,2.0,390.1738459999251,4.0,1.0,phase_1,,,,,,,,,,,,,magenta,cross
407.0,8.0,4.0,1.0,1.0,1.0,364.9527440002202,4.0,1.0,phase_1,,,,,,,,,,,,,orange,circle
187.0,7.0,3.0,1.0,1.0,1.0,364.9227000000792,4.0,1.0,phase_1,,,,,,,,,,,,,green,diamond
46.0,5.0,1.0,1.0,3.0,3.0,364.8442860003342,4.0,1.0,phase_1,,,,,,,,,,,,,yellow,flipped triangle
392.0,8.0,4.0,1.0,3.0,3.0,374.1318649999812,4.0,1.0,phase_1,,,,,,,,,,,,,orange,circle
0.0,6.0,0.0,1.0,4.0,4.0,327.530834999834,4.0,1.0,phase_1,,,,,,,,,,,,,cyan,I
30.0,1.0,1.0,0.0,1.0,1.0,385.0032390000706,4.0,1.0,phase_1,,,,,,,,,,,,,white,square
200.0,7.0,3.0,1.0,2.0,2.0,409.7278369999912,4.0,1.0,phase_1,,,,,,,,,,,,,green,diamond
72.0,1.0,1.0,0.0,4.0,4.0,406.7232540000987,4.0,1.0,phase_1,,,,,,,,,,,,,white,square
114.0,2.0,2.0,0.0,4.0,4.0,325.8775709996371,4.0,1.0,phase_1,,,,,,,,,,,,,gray,hexagon
42.0,5.0,1.0,1.0,2.0,2.0,408.1282429997372,4.0,1.0,phase_1,,,,,,,,,,,,,yellow,flipped triangle
424.0,4.0,4.0,0.0,4.0,4.0,358.256726000036,4.0,1.0,phase_1,,,,,,,,,,,,,magenta,cross
103.0,6.0,2.0,1.0,2.0,2.0,370.4666079997878,4.0,1.0,phase_1,,,,,,,,,,,,,cyan,I
221.0,3.0,3.0,0.0,2.0,2.0,429.846944000019,4.0,1.0,phase_1,,,,,,,,,,,,,blue,triangle
0.0,7.0,0.0,1.0,2.0,2.0,349.4624319996546,4.0,1.0,phase_1,,,,,,,,,,,,,green,diamond
105.0,2.0,2.0,0.0,3.0,3.0,410.7623520003471,4.0,1.0,phase_1,,,,,,,,,,,,,gray,hexagon
53.0,1.0,1.0,0.0,3.0,3.0,420.5116190000808,4.0,1.0,phase_1,,,,,,,,,,,,,white,square
25.0,1.0,1.0,0.0,2.0,2.0,427.2725939999873,4.0,1.0,phase_1,,,,,,,,,,,,,white,square
424.0,8.0,4.0,1.0,3.0,3.0,363.0083500002001,4.0,1.0,phase_1,,,,,,,,,,,,,orange,circle
53.0,1.0,1.0,0.0,1.0,1.0,486.2849429996458,4.0,1.0,phase_1,,,,,,,,,,,,,white,square
48.0,5.0,1.0,1.0,1.0,1.0,480.5180409998684,4.0,1.0,phase_1,,,,,,,,,,,,,yellow,flipped triangle
46.0,1.0,1.0,0.0,4.0,4.0,382.2439179998582,4.0,1.0,phase_1,,,,,,,,,,,,,white,square
221.0,7.0,3.0,1.0,4.0,4.0,385.6312319999233,4.0,1.0,phase_1,,,,,,,,,,,,,green,diamond
82.0,2.0,2.0,0.0,3.0,3.0,484.3780960000003,4.0,1.0,phase_1,,,,,,,,,,,,,gray,hexagon
70.0,1.0,1.0,0.0,2.0,2.0,452.4585740000475,4.0,1.0,phase_1,,,,,,,,,,,,,white,square
176.0,7.0,3.0,1.0,2.0,2.0,433.7935820003622,4.0,1.0,phase_1,,,,,,,,,,,,,green,diamond
53.0,5.0,1.0,1.0,1.0,1.0,364.530903999821,4.0,1.0,phase_1,,,,,,,,,,,,,yellow,flipped triangle
25.0,1.0,1.0,0.0,3.0,3.0,412.5675939999382,4.0,1.0,phase_1,,,,,,,,,,,,,white,square
380.0,8.0,4.0,1.0,3.0,3.0,368.475238999963,4.0,1.0,phase_1,,,,,,,,,,,,,orange,circle
44.0,5.0,1.0,1.0,1.0,1.0,409.8913920001905,4.0,1.0,phase_1,,,,,,,,,,,,,yellow,flipped triangle
221.0,7.0,3.0,1.0,1.0,1.0,364.147537000008,4.0,1.0,phase_1,,,,,,,,,,,,,green,diamond
118.0,2.0,2.0,0.0,2.0,2.0,445.9666460002154,4.0,1.0,phase_1,,,,,,,,,,,,,gray,hexagon
53.0,5.0,1.0,1.0,2.0,2.0,407.5577110002086,4.0,1.0,phase_1,,,,,,,,,,,,,yellow,flipped triangle
418.0,4.0,4.0,0.0,4.0,4.0,388.5080029999699,4.0,1.0,phase_1,,,,,,,,,,,,,magenta,cross
210.0,3.0,3.0,0.0,2.0,2.0,354.1445450000537,4.0,1.0,phase_1,,,,,,,,,,,,,blue,triangle
225.0,3.0,3.0,0.0,1.0,1.0,354.6448020001662,4.0,1.0,phase_1,,,,,,,,,,,,,blue,triangle
44.0,1.0,1.0,0.0,3.0,3.0,327.5528550002491,4.0,1.0,phase_1,,,,,,,,,,,,,white,square
65.0,1.0,1.0,0.0,2.0,2.0,455.5804209999223,4.0,1.0,phase_1,,,,,,,,,,,,,white,square
207.0,7.0,3.0,1.0,3.0,3.0,420.663109999623,4.0,1.0,phase_1,,,,,,,,,,,,,green,diamond
199.0,3.0,3.0,0.0,2.0,2.0,345.5126129997552,4.0,1.0,phase_1,,,,,,,,,,,,,blue,triangle
101.0,2.0,2.0,0.0,1.0,1.0,497.545631000321,4.0,1.0,phase_1,,,,,,,,,,,,,gray,hexagon
422.0,4.0,4.0,0.0,4.0,4.0,357.1682009996948,4.0,1.0,phase_1,,,,,,,,,,,,,magenta,cross
219.0,7.0,3.0,1.0,3.0,3.0,419.3067470000642,4.0,1.0,phase_1,,,,,,,,,,,,,green,diamond
398.0,8.0,4.0,1.0,3.0,3.0,370.8290640001905,4.0,1.0,phase_1,,,,,,,,,,,,,orange,circle
116.0,2.0,2.0,0.0,2.0,2.0,351.5539909999461,4.0,1.0,phase_1,,,,,,,,,,,,,gray,hexagon
120.0,2.0,2.0,0.0,4.0,4.0,332.9087920001257,4.0,1.0,phase_1,,,,,,,,,,,,,gray,hexagon
424.0,4.0,4.0,0.0,2.0,2.0,350.7980989998032,4.0,1.0,phase_1,,,,,,,,,,,,,magenta,cross
416.0,4.0,4.0,0.0,4.0,4.0,301.0647940000126,4.0,1.0,phase_1,,,,,,,,,,,,,magenta,cross
60.0,5.0,1.0,1.0,4.0,4.0,378.421526999773,4.0,1.0,phase_1,,,,,,,,,,,,,yellow,flipped triangle
90.0,6.0,2.0,1.0,3.0,3.0,425.2912329998253,4.0,1.0,phase_1,,,,,,,,,,,,,cyan,I
25.0,5.0,1.0,1.0,3.0,3.0,385.136741000224,4.0,1.0,phase_1,,,,,,,,,,,,,yellow,flipped triangle
90.0,2.0,2.0,0.0,3.0,3.0,333.8148210000327,4.0,1.0,phase_1,,,,,,,,,,,,,gray,hexagon
56.0,1.0,1.0,0.0,1.0,1.0,386.3083269998242,4.0,1.0,phase_1,,,,,,,,,,,,,white,square
28.0,1.0,1.0,0.0,4.0,4.0,348.2975050001187,4.0,1.0,phase_1,,,,,,,,,,,,,white,square
116.0,2.0,2.0,0.0,2.0,2.0,407.4396249998244,4.0,1.0,phase_1,,,,,,,,,,,,,gray,hexagon
0.0,8.0,4.0,1.0,5.0,0.0,0.0,1.0,1.0,phase_2,stop,250.0,250.0,4.0,,,,,,,,,orange,circle
0.0,6.0,2.0,1.0,6.0,0.0,0.0,1.0,1.0,phase_2,stop,300.0,250.0,4.0,,,,,,,,,cyan,I
0.0,6.0,2.0,1.0,6.0,6.0,497.605035000106,1.0,1.0,phase_2,stop,300.0,300.0,3.0,,,,,,,,,cyan,I
0.0,8.0,4.0,1.0,6.0,6.0,653.3642829999735,1.0,1.0,phase_2,go,300.0,250.0,1.0,,,,,,,,,orange,circle
0.0,2.0,2.0,0.0,6.0,6.0,617.5699979999081,1.0,1.0,phase_2,go,300.0,250.0,1.0,,,,,,,,,gray,hexagon
0.0,4.0,4.0,0.0,5.0,5.0,686.7347509996762,1.0,1.0,phase_2,go,300.0,250.0,1.0,,,,,,,,,magenta,cross
0.0,8.0,4.0,1.0,6.0,0.0,0.0,1.0,1.0,phase_2,stop,300.0,250.0,4.0,,,,,,,,,orange,circle
0.0,7.0,3.0,1.0,5.0,5.0,506.20511600027385,1.0,1.0,phase_2,go,300.0,300.0,1.0,,,,,,,,,green,diamond
0.0,2.0,2.0,0.0,5.0,5.0,664.9381719998928,1.0,1.0,phase_2,go,300.0,300.0,1.0,,,,,,,,,gray,hexagon
0.0,4.0,4.0,0.0,5.0,5.0,517.7275820001341,1.0,1.0,phase_2,go,300.0,300.0,1.0,,,,,,,,,magenta,cross
0.0,1.0,1.0,0.0,6.0,6.0,587.3198640001647,1.0,1.0,phase_2,go,300.0,300.0,1.0,,,,,,,,,white,square
0.0,5.0,1.0,1.0,5.0,0.0,0.0,1.0,1.0,phase_2,stop,300.0,300.0,4.0,,,,,,,,,yellow,flipped triangle
0.0,1.0,1.0,0.0,5.0,5.0,581.9528419997368,1.0,1.0,phase_2,go,350.0,300.0,1.0,,,,,,,,,white,square
0.0,1.0,1.0,0.0,5.0,5.0,796.5977969997766,1.0,1.0,phase_2,go,350.0,300.0,1.0,,,,,,,,,white,square
0.0,8.0,4.0,1.0,6.0,0.0,0.0,1.0,1.0,phase_2,stop,350.0,300.0,4.0,,,,,,,,,orange,circle
0.0,7.0,3.0,1.0,5.0,0.0,0.0,1.0,1.0,phase_2,stop,350.0,350.0,4.0,,,,,,,,,green,diamond
0.0,1.0,1.0,0.0,6.0,6.0,646.2449449995802,1.0,1.0,phase_2,go,400.0,350.0,1.0,,,,,,,,,white,square
0.0,6.0,2.0,1.0,6.0,0.0,0.0,1.0,1.0,phase_2,stop,400.0,350.0,4.0,,,,,,,,,cyan,I
0.0,4.0,4.0,0.0,5.0,5.0,860.2165970000897,1.0,1.0,phase_2,go,400.0,400.0,1.0,,,,,,,,,magenta,cross
0.0,2.0,2.0,0.0,6.0,6.0,1134.0397349999876,1.0,1.0,phase_2,go,400.0,400.0,1.0,,,,,,,,,gray,hexagon
0.0,6.0,2.0,1.0,5.0,0.0,0.0,1.0,1.0,phase_2,stop,400.0,400.0,4.0,,,,,,,,,cyan,I
0.0,3.0,3.0,0.0,6.0,6.0,701.1336790001224,1.0,1.0,phase_2,go,450.0,400.0,1.0,,,,,,,,,blue,triangle
0.0,2.0,2.0,0.0,6.0,6.0,974.428517999968,1.0,1.0,phase_2,go,450.0,400.0,1.0,,,,,,,,,gray,hexagon
0.0,3.0,3.0,0.0,5.0,5.0,787.9287820001082,1.0,1.0,phase_2,go,450.0,400.0,1.0,,,,,,,,,blue,triangle
0.0,1.0,1.0,0.0,6.0,6.0,858.6195099996985,1.0,1.0,phase_2,go,450.0,400.0,1.0,,,,,,,,,white,square
0.0,7.0,3.0,1.0,5.0,0.0,0.0,1.0,1.0,phase_2,stop,450.0,400.0,4.0,,,,,,,,,green,diamond
0.0,6.0,2.0,1.0,5.0,0.0,0.0,1.0,1.0,phase_2,stop,500.0,400.0,4.0,,,,,,,,,cyan,I
0.0,7.0,3.0,1.0,6.0,0.0,0.0,1.0,1.0,phase_2,stop,550.0,400.0,4.0,,,,,,,,,green,diamond
0.0,4.0,4.0,0.0,6.0,6.0,779.2174269998213,1.0,1.0,phase_2,go,550.0,450.0,1.0,,,,,,,,,magenta,cross
0.0,1.0,1.0,0.0,6.0,6.0,1149.008836000121,1.0,1.0,phase_2,go,550.0,450.0,1.0,,,,,,,,,white,square
0.0,6.0,2.0,1.0,6.0,0.0,0.0,1.0,1.0,phase_2,stop,550.0,450.0,4.0,,,,,,,,,cyan,I
0.0,3.0,3.0,0.0,5.0,5.0,675.2650589996847,1.0,1.0,phase_2,go,550.0,500.0,1.0,,,,,,,,,blue,triangle
0.0,7.0,3.0,1.0,5.0,0.0,0.0,1.0,1.0,phase_2,stop,550.0,500.0,4.0,,,,,,,,,green,diamond
0.0,5.0,1.0,1.0,6.0,0.0,0.0,1.0,1.0,phase_2,stop,600.0,500.0,4.0,,,,,,,,,yellow,flipped triangle
0.0,4.0,4.0,0.0,6.0,6.0,944.1422039999452,1.0,1.0,phase_2,go,600.0,550.0,1.0,,,,,,,,,magenta,cross
0.0,2.0,2.0,0.0,6.0,6.0,1115.3084560000934,1.0,1.0,phase_2,go,600.0,550.0,1.0,,,,,,,,,gray,hexagon
0.0,6.0,2.0,1.0,6.0,0.0,0.0,2.0,1.0,phase_2,stop,600.0,550.0,4.0,,,,,,,,,cyan,I
0.0,1.0,1.0,0.0,6.0,6.0,493.6865360000411,2.0,1.0,phase_2,go,600.0,600.0,1.0,,,,,,,,,white,square
0.0,7.0,3.0,1.0,6.0,6.0,574.384296000062,2.0,1.0,phase_2,go,600.0,600.0,1.0,,,,,,,,,green,diamond
0.0,3.0,3.0,0.0,5.0,5.0,404.1189660001691,2.0,1.0,phase_2,go,600.0,600.0,1.0,,,,,,,,,blue,triangle
0.0,3.0,3.0,0.0,6.0,6.0,386.3886149997597,2.0,1.0,phase_2,go,600.0,600.0,1.0,,,,,,,,,blue,triangle
0.0,6.0,2.0,1.0,5.0,5.0,417.8829790002965,2.0,1.0,phase_2,stop,600.0,600.0,3.0,,,,,,,,,cyan,I
0.0,7.0,3.0,1.0,5.0,0.0,0.0,2.0,1.0,phase_2,stop,550.0,600.0,4.0,,,,,,,,,green,diamond
0.0,7.0,3.0,1.0,6.0,6.0,531.7634980001458,2.0,1.0,phase_2,go,600.0,600.0,1.0,,,,,,,,,green,diamond
0.0,2.0,2.0,0.0,5.0,5.0,842.5123689999054,2.0,1.0,phase_2,go,600.0,600.0,1.0,,,,,,,,,gray,hexagon
0.0,5.0,1.0,1.0,6.0,6.0,531.1870880000242,2.0,1.0,phase_2,stop,600.0,600.0,3.0,,,,,,,,,yellow,flipped triangle
0.0,6.0,2.0,1.0,5.0,5.0,669.9023719997967,2.0,1.0,phase_2,stop,600.0,550.0,3.0,,,,,,,,,cyan,I
0.0,3.0,3.0,0.0,5.0,5.0,743.8903969996318,2.0,1.0,phase_2,go,550.0,550.0,1.0,,,,,,,,,blue,triangle
0.0,8.0,4.0,1.0,5.0,0.0,0.0,2.0,1.0,phase_2,stop,550.0,550.0,4.0,,,,,,,,,orange,circle
0.0,1.0,1.0,0.0,5.0,5.0,855.6796839998242,2.0,1.0,phase_2,go,600.0,550.0,1.0,,,,,,,,,white,square
0.0,1.0,1.0,0.0,6.0,6.0,1098.1937090000429,2.0,1.0,phase_2,go,600.0,550.0,1.0,,,,,,,,,white,square
0.0,5.0,1.0,1.0,6.0,6.0,439.2359759999635,2.0,1.0,phase_2,go,600.0,550.0,1.0,,,,,,,,,yellow,flipped triangle
0.0,5.0,1.0,1.0,6.0,6.0,586.125212999832,2.0,1.0,phase_2,stop,600.0,550.0,3.0,,,,,,,,,yellow,flipped triangle
0.0,1.0,1.0,0.0,6.0,6.0,941.5634090000822,2.0,1.0,phase_2,go,600.0,500.0,1.0,,,,,,,,,white,square
0.0,6.0,2.0,1.0,6.0,6.0,387.2560740001063,2.0,1.0,phase_2,stop,600.0,500.0,3.0,,,,,,,,,cyan,I
0.0,8.0,4.0,1.0,6.0,0.0,0.0,2.0,1.0,phase_2,stop,600.0,450.0,4.0,,,,,,,,,orange,circle
0.0,4.0,4.0,0.0,6.0,6.0,815.2858760004165,2.0,1.0,phase_2,go,600.0,500.0,1.0,,,,,,,,,magenta,cross
0.0,8.0,4.0,1.0,5.0,5.0,715.0894200003677,2.0,1.0,phase_2,go,600.0,500.0,1.0,,,,,,,,,orange,circle
0.0,5.0,1.0,1.0,6.0,0.0,0.0,2.0,1.0,phase_2,stop,600.0,500.0,4.0,,,,,,,,,yellow,flipped triangle
0.0,4.0,4.0,0.0,6.0,6.0,984.5395780002946,2.0,1.0,phase_2,go,600.0,550.0,1.0,,,,,,,,,magenta,cross
0.0,7.0,3.0,1.0,6.0,6.0,926.9626640002572,2.0,1.0,phase_2,go,600.0,550.0,1.0,,,,,,,,,green,diamond
0.0,5.0,1.0,1.0,6.0,0.0,0.0,2.0,1.0,phase_2,stop,600.0,550.0,4.0,,,,,,,,,yellow,flipped triangle
0.0,8.0,4.0,1.0,6.0,0.0,0.0,2.0,1.0,phase_2,stop,600.0,600.0,4.0,,,,,,,,,orange,circle
0.0,4.0,4.0,0.0,6.0,6.0,641.572979999637,2.0,1.0,phase_2,go,600.0,650.0,1.0,,,,,,,,,magenta,cross
0.0,2.0,2.0,0.0,6.0,6.0,775.3679589995954,2.0,1.0,phase_2,go,600.0,650.0,1.0,,,,,,,,,gray,hexagon
0.0,6.0,2.0,1.0,6.0,6.0,765.5266050001046,2.0,1.0,phase_2,stop,600.0,650.0,3.0,,,,,,,,,cyan,I
0.0,8.0,4.0,1.0,5.0,5.0,1007.3770300000433,2.0,1.0,phase_2,go,600.0,600.0,1.0,,,,,,,,,orange,circle
0.0,4.0,4.0,0.0,6.0,6.0,805.639501999849,2.0,1.0,phase_2,go,600.0,600.0,1.0,,,,,,,,,magenta,cross
0.0,5.0,1.0,1.0,5.0,0.0,0.0,2.0,1.0,phase_2,stop,600.0,600.0,4.0,,,,,,,,,yellow,flipped triangle
0.0,1.0,1.0,0.0,6.0,6.0,912.80905099984,2.0,1.0,phase_2,go,650.0,600.0,1.0,,,,,,,,,white,square
0.0,4.0,4.0,0.0,6.0,6.0,910.3596049999396,2.0,1.0,phase_2,go,650.0,600.0,1.0,,,,,,,,,magenta,cross
0.0,4.0,4.0,0.0,6.0,6.0,674.7484960001202,2.0,1.0,phase_2,go,650.0,600.0,1.0,,,,,,,,,magenta,cross
0.0,8.0,4.0,1.0,6.0,6.0,1024.1641899997376,3.0,1.0,phase_2,go,650.0,600.0,1.0,,,,,,,,,orange,circle
0.0,4.0,4.0,0.0,6.0,6.0,335.4811709996284,3.0,1.0,phase_2,go,650.0,600.0,1.0,,,,,,,,,magenta,cross
0.0,3.0,3.0,0.0,6.0,6.0,579.4680030003292,3.0,1.0,phase_2,go,650.0,600.0,1.0,,,,,,,,,blue,triangle
0.0,3.0,3.0,0.0,6.0,6.0,428.6380839998855,3.0,1.0,phase_2,go,650.0,600.0,1.0,,,,,,,,,blue,triangle
0.0,7.0,3.0,1.0,5.0,5.0,516.4386430001286,3.0,1.0,phase_2,stop,650.0,600.0,3.0,,,,,,,,,green,diamond
0.0,3.0,3.0,0.0,6.0,6.0,297.0781290000559,3.0,1.0,phase_2,go,600.0,600.0,1.0,,,,,,,,,blue,triangle
0.0,3.0,3.0,0.0,6.0,6.0,520.7226929996978,3.0,1.0,phase_2,go,600.0,600.0,1.0,,,,,,,,,blue,triangle
0.0,1.0,1.0,0.0,5.0,5.0,458.0067850001796,3.0,1.0,phase_2,go,600.0,600.0,1.0,,,,,,,,,white,square
0.0,3.0,3.0,0.0,6.0,6.0,474.4201109997448,3.0,1.0,phase_2,go,600.0,600.0,1.0,,,,,,,,,blue,triangle
0.0,2.0,2.0,0.0,6.0,6.0,771.2759760001973,3.0,1.0,phase_2,go,600.0,600.0,1.0,,,,,,,,,gray,hexagon
0.0,7.0,3.0,1.0,6.0,6.0,430.365329000324,3.0,1.0,phase_2,stop,600.0,600.0,3.0,,,,,,,,,green,diamond
0.0,3.0,3.0,0.0,5.0,5.0,513.2152219998716,3.0,1.0,phase_2,go,600.0,550.0,1.0,,,,,,,,,blue,triangle
0.0,7.0,3.0,1.0,5.0,5.0,717.1937240000261,3.0,1.0,phase_2,stop,600.0,550.0,3.0,,,,,,,,,green,diamond
0.0,2.0,2.0,0.0,6.0,6.0,979.982926000048,3.0,1.0,phase_2,go,550.0,550.0,1.0,,,,,,,,,gray,hexagon
0.0,6.0,2.0,1.0,5.0,5.0,625.8484750001116,3.0,1.0,phase_2,stop,550.0,550.0,3.0,,,,,,,,,cyan,I
0.0,2.0,2.0,0.0,5.0,5.0,816.6490059998068,3.0,1.0,phase_2,go,500.0,550.0,1.0,,,,,,,,,gray,hexagon
0.0,7.0,3.0,1.0,6.0,0.0,0.0,3.0,1.0,phase_2,stop,500.0,550.0,4.0,,,,,,,,,green,diamond
0.0,8.0,4.0,1.0,6.0,6.0,452.7428999999756,3.0,1.0,phase_2,stop,500.0,600.0,3.0,,,,,,,,,orange,circle
0.0,6.0,2.0,1.0,5.0,0.0,0.0,3.0,1.0,phase_2,stop,500.0,550.0,4.0,,,,,,,,,cyan,I
0.0,4.0,4.0,0.0,5.0,5.0,595.7873019997351,3.0,1.0,phase_2,go,550.0,550.0,1.0,,,,,,,,,magenta,cross
0.0,8.0,4.0,1.0,6.0,6.0,669.8665090002578,3.0,1.0,phase_2,go,550.0,550.0,1.0,,,,,,,,,orange,circle
0.0,4.0,4.0,0.0,6.0,6.0,348.0019749999883,3.0,1.0,phase_2,go,550.0,550.0,1.0,,,,,,,,,magenta,cross
0.0,3.0,3.0,0.0,5.0,5.0,396.9753159999527,3.0,1.0,phase_2,go,550.0,550.0,1.0,,,,,,,,,blue,triangle
0.0,2.0,2.0,0.0,5.0,5.0,724.8164799998449,3.0,1.0,phase_2,go,550.0,550.0,1.0,,,,,,,,,gray,hexagon
0.0,1.0,1.0,0.0,5.0,5.0,633.0527570003142,3.0,1.0,phase_2,go,550.0,550.0,1.0,,,,,,,,,white,square
0.0,7.0,3.0,1.0,6.0,6.0,675.1431070001672,3.0,1.0,phase_2,stop,550.0,550.0,3.0,,,,,,,,,green,diamond
0.0,7.0,3.0,1.0,6.0,0.0,0.0,3.0,1.0,phase_2,stop,550.0,500.0,4.0,,,,,,,,,green,diamond
0.0,4.0,4.0,0.0,6.0,6.0,856.2719639999159,3.0,1.0,phase_2,go,550.0,550.0,1.0,,,,,,,,,magenta,cross
0.0,8.0,4.0,1.0,6.0,6.0,523.0392959997516,3.0,1.0,phase_2,stop,550.0,550.0,3.0,,,,,,,,,orange,circle
0.0,3.0,3.0,0.0,5.0,5.0,716.7891540002529,3.0,1.0,phase_2,go,550.0,500.0,1.0,,,,,,,,,blue,triangle
0.0,5.0,1.0,1.0,6.0,6.0,532.1976860000177,3.0,1.0,phase_2,go,550.0,500.0,1.0,,,,,,,,,yellow,flipped triangle
0.0,5.0,1.0,1.0,5.0,5.0,683.6222699998871,3.0,1.0,phase_2,go,550.0,500.0,1.0,,,,,,,,,yellow,flipped triangle
0.0,6.0,2.0,1.0,5.0,5.0,660.5471949997082,3.0,1.0,phase_2,go,550.0,500.0,1.0,,,,,,,,,cyan,I
0.0,8.0,4.0,1.0,5.0,5.0,455.2093960001002,3.0,1.0,phase_2,go,550.0,500.0,1.0,,,,,,,,,orange,circle
0.0,2.0,2.0,0.0,6.0,6.0,745.9805799999231,3.0,1.0,phase_2,go,550.0,500.0,1.0,,,,,,,,,gray,hexagon
0.0,5.0,1.0,1.0,5.0,5.0,968.2814010002404,3.0,1.0,phase_2,go,550.0,500.0,1.0,,,,,,,,,yellow,flipped triangle
0.0,7.0,3.0,1.0,6.0,6.0,540.3188919999593,4.0,1.0,phase_2,stop,550.0,500.0,3.0,,,,,,,,,green,diamond
0.0,5.0,1.0,1.0,6.0,6.0,593.8917009998477,4.0,1.0,phase_2,stop,550.0,450.0,3.0,,,,,,,,,yellow,flipped triangle
0.0,2.0,2.0,0.0,5.0,5.0,597.3873430002641,4.0,1.0,phase_2,go,550.0,400.0,1.0,,,,,,,,,gray,hexagon
0.0,8.0,4.0,1.0,6.0,0.0,0.0,4.0,1.0,phase_2,stop,550.0,400.0,4.0,,,,,,,,,orange,circle
0.0,8.0,4.0,1.0,6.0,6.0,531.1476950000724,4.0,1.0,phase_2,stop,550.0,450.0,3.0,,,,,,,,,orange,circle
0.0,3.0,3.0,0.0,5.0,5.0,610.5593060001411,4.0,1.0,phase_2,go,550.0,400.0,1.0,,,,,,,,,blue,triangle
0.0,5.0,1.0,1.0,5.0,5.0,653.5942239997894,4.0,1.0,phase_2,stop,550.0,400.0,3.0,,,,,,,,,yellow,flipped triangle
0.0,3.0,3.0,0.0,5.0,5.0,792.6704239998799,4.0,1.0,phase_2,go,500.0,400.0,1.0,,,,,,,,,blue,triangle
0.0,6.0,2.0,1.0,5.0,0.0,0.0,4.0,1.0,phase_2,stop,500.0,400.0,4.0,,,,,,,,,cyan,I
0.0,1.0,1.0,0.0,6.0,6.0,724.7866900002009,4.0,1.0,phase_2,go,550.0,400.0,1.0,,,,,,,,,white,square
0.0,7.0,3.0,1.0,6.0,6.0,555.6383250000181,4.0,1.0,phase_2,go,550.0,400.0,1.0,,,,,,,,,green,diamond
0.0,3.0,3.0,0.0,6.0,6.0,591.5600120001727,4.0,1.0,phase_2,go,550.0,400.0,1.0,,,,,,,,,blue,triangle
0.0,4.0,4.0,0.0,5.0,5.0,695.2087159997973,4.0,1.0,phase_2,go,550.0,400.0,1.0,,,,,,,,,magenta,cross
0.0,1.0,1.0,0.0,6.0,6.0,551.5924010001072,4.0,1.0,phase_2,go,550.0,400.0,1.0,,,,,,,,,white,square
0.0,6.0,2.0,1.0,6.0,0.0,0.0,4.0,1.0,phase_2,stop,550.0,400.0,4.0,,,,,,,,,cyan,I
0.0,8.0,4.0,1.0,5.0,0.0,0.0,4.0,1.0,phase_2,stop,550.0,450.0,4.0,,,,,,,,,orange,circle
0.0,7.0,3.0,1.0,5.0,5.0,570.474073999776,4.0,1.0,phase_2,go,600.0,450.0,1.0,,,,,,,,,green,diamond
0.0,3.0,3.0,0.0,5.0,5.0,586.1214510000536,4.0,1.0,phase_2,go,600.0,450.0,1.0,,,,,,,,,blue,triangle
0.0,3.0,3.0,0.0,6.0,6.0,537.9896220001683,4.0,1.0,phase_2,go,600.0,450.0,1.0,,,,,,,,,blue,triangle
0.0,2.0,2.0,0.0,5.0,5.0,562.0142930001748,4.0,1.0,phase_2,go,600.0,450.0,1.0,,,,,,,,,gray,hexagon
0.0,7.0,3.0,1.0,6.0,0.0,0.0,4.0,1.0,phase_2,stop,600.0,450.0,4.0,,,,,,,,,green,diamond
0.0,7.0,3.0,1.0,5.0,5.0,736.0517719998825,4.0,1.0,phase_2,stop,600.0,500.0,3.0,,,,,,,,,green,diamond
0.0,4.0,4.0,0.0,5.0,5.0,783.2335210000565,4.0,1.0,phase_2,go,550.0,500.0,1.0,,,,,,,,,magenta,cross
0.0,7.0,3.0,1.0,6.0,0.0,0.0,4.0,1.0,phase_2,stop,550.0,500.0,4.0,,,,,,,,,green,diamond
0.0,2.0,2.0,0.0,5.0,5.0,591.2049339999612,4.0,1.0,phase_2,go,550.0,550.0,1.0,,,,,,,,,gray,hexagon
0.0,2.0,2.0,0.0,6.0,6.0,760.993086000326,4.0,1.0,phase_2,go,550.0,550.0,1.0,,,,,,,,,gray,hexagon
0.0,8.0,4.0,1.0,5.0,5.0,673.3111519997692,4.0,1.0,phase_2,stop,550.0,550.0,3.0,,,,,,,,,orange,circle
0.0,5.0,1.0,1.0,5.0,5.0,1143.501118000131,4.0,1.0,phase_2,go,500.0,550.0,1.0,,,,,,,,,yellow,flipped triangle
0.0,7.0,3.0,1.0,5.0,0.0,0.0,4.0,1.0,phase_2,stop,500.0,550.0,4.0,,,,,,,,,green,diamond
0.0,7.0,3.0,1.0,6.0,6.0,806.3167319996865,4.0,1.0,phase_2,go,550.0,550.0,1.0,,,,,,,,,green,diamond
0.0,4.0,4.0,0.0,6.0,6.0,650.7850610000787,4.0,1.0,phase_2,go,550.0,550.0,1.0,,,,,,,,,magenta,cross
0.0,6.0,2.0,1.0,5.0,5.0,559.3709699996907,4.0,1.0,phase_2,go,550.0,550.0,1.0,,,,,,,,,cyan,I
0.0,7.0,3.0,1.0,6.0,6.0,582.5585099996715,4.0,1.0,phase_2,stop,550.0,550.0,3.0,,,,,,,,,green,diamond
0.0,8.0,4.0,1.0,5.0,0.0,0.0,4.0,1.0,phase_2,stop,550.0,500.0,4.0,,,,,,,,,orange,circle
0.0,5.0,1.0,1.0,5.0,5.0,864.8093470001186,4.0,1.0,phase_2,go,600.0,500.0,1.0,,,,,,,,,yellow,flipped triangle
0.0,6.0,2.0,1.0,5.0,5.0,782.2355480002443,4.0,1.0,phase_2,go,600.0,500.0,1.0,,,,,,,,,cyan,I
0.0,5.0,1.0,1.0,6.0,6.0,618.0907540001499,5.0,1.0,phase_2,stop,600.0,500.0,3.0,,,,,,,,,yellow,flipped triangle
0.0,2.0,2.0,0.0,6.0,6.0,494.2874459998165,5.0,1.0,phase_2,go,600.0,450.0,1.0,,,,,,,,,gray,hexagon
0.0,2.0,2.0,0.0,6.0,6.0,466.936424999858,5.0,1.0,phase_2,go,600.0,450.0,1.0,,,,,,,,,gray,hexagon
0.0,3.0,3.0,0.0,5.0,5.0,424.1717609997977,5.0,1.0,phase_2,go,600.0,450.0,1.0,,,,,,,,,blue,triangle
0.0,6.0,2.0,1.0,6.0,6.0,469.4991080000363,5.0,1.0,phase_2,go,600.0,450.0,1.0,,,,,,,,,cyan,I
0.0,5.0,1.0,1.0,6.0,6.0,489.3046330003017,5.0,1.0,phase_2,stop,600.0,450.0,3.0,,,,,,,,,yellow,flipped triangle
0.0,2.0,2.0,0.0,5.0,5.0,860.4022170002281,5.0,1.0,phase_2,go,600.0,400.0,1.0,,,,,,,,,gray,hexagon
0.0,5.0,1.0,1.0,6.0,0.0,0.0,5.0,1.0,phase_2,stop,600.0,400.0,4.0,,,,,,,,,yellow,flipped triangle
0.0,8.0,4.0,1.0,5.0,0.0,0.0,5.0,1.0,phase_2,stop,600.0,450.0,4.0,,,,,,,,,orange,circle
0.0,4.0,4.0,0.0,5.0,5.0,510.21384700015915,5.0,1.0,phase_2,go,650.0,450.0,1.0,,,,,,,,,magenta,cross
0.0,2.0,2.0,0.0,5.0,5.0,484.5721050000975,5.0,1.0,phase_2,go,650.0,450.0,1.0,,,,,,,,,gray,hexagon
0.0,6.0,2.0,1.0,5.0,5.0,713.047947999712,5.0,1.0,phase_2,stop,650.0,450.0,3.0,,,,,,,,,cyan,I
0.0,5.0,1.0,1.0,5.0,5.0,1333.4284090001347,5.0,1.0,phase_2,go,600.0,450.0,1.0,,,,,,,,,yellow,flipped triangle
0.0,5.0,1.0,1.0,5.0,0.0,0.0,5.0,1.0,phase_2,stop,600.0,450.0,4.0,,,,,,,,,yellow,flipped triangle
0.0,8.0,4.0,1.0,5.0,5.0,675.7224420002785,5.0,1.0,phase_2,go,650.0,450.0,1.0,,,,,,,,,orange,circle
0.0,6.0,2.0,1.0,5.0,5.0,389.1487680002683,5.0,1.0,phase_2,stop,650.0,450.0,3.0,,,,,,,,,cyan,I
0.0,1.0,1.0,0.0,6.0,6.0,705.213963999995,5.0,1.0,phase_2,go,600.0,450.0,1.0,,,,,,,,,white,square
0.0,8.0,4.0,1.0,6.0,0.0,0.0,5.0,1.0,phase_2,stop,600.0,450.0,4.0,,,,,,,,,orange,circle
0.0,3.0,3.0,0.0,6.0,6.0,782.6262999997198,5.0,1.0,phase_2,go,600.0,500.0,1.0,,,,,,,,,blue,triangle
0.0,2.0,2.0,0.0,5.0,5.0,617.5760969999828,5.0,1.0,phase_2,go,600.0,500.0,1.0,,,,,,,,,gray,hexagon
0.0,7.0,3.0,1.0,5.0,5.0,451.052355000229,5.0,1.0,phase_2,stop,600.0,500.0,3.0,,,,,,,,,green,diamond
0.0,2.0,2.0,0.0,6.0,6.0,808.1030189996454,5.0,1.0,phase_2,go,550.0,500.0,1.0,,,,,,,,,gray,hexagon
0.0,8.0,4.0,1.0,5.0,5.0,619.1924479999216,5.0,1.0,phase_2,stop,550.0,500.0,3.0,,,,,,,,,orange,circle
0.0,2.0,2.0,0.0,5.0,5.0,649.4417200001408,5.0,1.0,phase_2,go,500.0,500.0,1.0,,,,,,,,,gray,hexagon
0.0,8.0,4.0,1.0,5.0,0.0,0.0,5.0,1.0,phase_2,stop,500.0,500.0,4.0,,,,,,,,,orange,circle
0.0,2.0,2.0,0.0,6.0,6.0,615.287623000313,5.0,1.0,phase_2,go,550.0,500.0,1.0,,,,,,,,,gray,hexagon
0.0,3.0,3.0,0.0,6.0,6.0,464.7119210003438,5.0,1.0,phase_2,go,550.0,500.0,1.0,,,,,,,,,blue,triangle
0.0,4.0,4.0,0.0,6.0,6.0,639.3219799997496,5.0,1.0,phase_2,go,550.0,500.0,1.0,,,,,,,,,magenta,cross
0.0,2.0,2.0,0.0,5.0,5.0,568.9418790002492,5.0,1.0,phase_2,go,550.0,500.0,1.0,,,,,,,,,gray,hexagon
0.0,8.0,4.0,1.0,5.0,0.0,0.0,5.0,1.0,phase_2,stop,550.0,500.0,4.0,,,,,,,,,orange,circle
0.0,6.0,2.0,1.0,5.0,5.0,792.7690890001031,5.0,1.0,phase_2,go,600.0,500.0,1.0,,,,,,,,,cyan,I
0.0,3.0,3.0,0.0,6.0,6.0,509.52046000020346,5.0,1.0,phase_2,go,600.0,500.0,1.0,,,,,,,,,blue,triangle
0.0,1.0,1.0,0.0,5.0,5.0,822.4220549996062,5.0,1.0,phase_2,go,600.0,500.0,1.0,,,,,,,,,white,square
0.0,3.0,3.0,0.0,6.0,6.0,750.2299470002072,5.0,1.0,phase_2,go,600.0,500.0,1.0,,,,,,,,,blue,triangle
0.0,4.0,4.0,0.0,6.0,6.0,521.2240639998527,5.0,1.0,phase_2,go,600.0,500.0,1.0,,,,,,,,,magenta,cross
0.0,6.0,2.0,1.0,6.0,6.0,391.5941739996924,5.0,1.0,phase_2,stop,600.0,500.0,3.0,,,,,,,,,cyan,I
0.0,6.0,2.0,1.0,5.0,5.0,464.8530200001914,6.0,1.0,phase_2,stop,600.0,450.0,3.0,,,,,,,,,cyan,I
0.0,8.0,4.0,1.0,5.0,5.0,626.7798660001063,6.0,1.0,phase_2,go,550.0,450.0,1.0,,,,,,,,,orange,circle
0.0,1.0,1.0,0.0,5.0,5.0,542.0532690000073,6.0,1.0,phase_2,go,550.0,450.0,1.0,,,,,,,,,white,square
0.0,1.0,1.0,0.0,6.0,6.0,381.9826789999752,6.0,1.0,phase_2,go,550.0,450.0,1.0,,,,,,,,,white,square
0.0,8.0,4.0,1.0,5.0,5.0,653.547609999805,6.0,1.0,phase_2,stop,550.0,450.0,3.0,,,,,,,,,orange,circle
0.0,7.0,3.0,1.0,5.0,5.0,649.1421699997773,6.0,1.0,phase_2,stop,500.0,450.0,3.0,,,,,,,,,green,diamond
0.0,3.0,3.0,0.0,5.0,5.0,800.1180699998258,6.0,1.0,phase_2,go,450.0,450.0,1.0,,,,,,,,,blue,triangle
0.0,5.0,1.0,1.0,5.0,0.0,0.0,6.0,1.0,phase_2,stop,450.0,450.0,4.0,,,,,,,,,yellow,flipped triangle
0.0,5.0,1.0,1.0,6.0,0.0,0.0,6.0,1.0,phase_2,stop,500.0,450.0,4.0,,,,,,,,,yellow,flipped triangle
0.0,1.0,1.0,0.0,5.0,5.0,670.6743590002588,6.0,1.0,phase_2,go,500.0,500.0,1.0,,,,,,,,,white,square
0.0,4.0,4.0,0.0,5.0,5.0,796.0938950000127,6.0,1.0,phase_2,go,500.0,500.0,1.0,,,,,,,,,magenta,cross
0.0,1.0,1.0,0.0,5.0,5.0,813.3787709998614,6.0,1.0,phase_2,go,500.0,500.0,1.0,,,,,,,,,white,square
0.0,7.0,3.0,1.0,6.0,6.0,443.7495349998244,6.0,1.0,phase_2,stop,500.0,500.0,3.0,,,,,,,,,green,diamond
0.0,3.0,3.0,0.0,6.0,6.0,588.151444000232,6.0,1.0,phase_2,go,500.0,450.0,1.0,,,,,,,,,blue,triangle
0.0,4.0,4.0,0.0,5.0,5.0,610.4094570000598,6.0,1.0,phase_2,go,500.0,450.0,1.0,,,,,,,,,magenta,cross
0.0,3.0,3.0,0.0,6.0,6.0,1044.6278699996585,6.0,1.0,phase_2,go,500.0,450.0,1.0,,,,,,,,,blue,triangle
0.0,1.0,1.0,0.0,5.0,5.0,690.415758999734,6.0,1.0,phase_2,go,500.0,450.0,1.0,,,,,,,,,white,square
0.0,6.0,2.0,1.0,6.0,6.0,895.3128890002517,6.0,1.0,phase_2,go,500.0,450.0,1.0,,,,,,,,,cyan,I
0.0,8.0,4.0,1.0,6.0,6.0,488.42827999988,6.0,1.0,phase_2,stop,500.0,450.0,3.0,,,,,,,,,orange,circle
0.0,8.0,4.0,1.0,6.0,0.0,0.0,6.0,1.0,phase_2,stop,500.0,400.0,4.0,,,,,,,,,orange,circle
0.0,7.0,3.0,1.0,5.0,5.0,645.9291350001877,6.0,1.0,phase_2,stop,500.0,450.0,3.0,,,,,,,,,green,diamond
0.0,3.0,3.0,0.0,6.0,6.0,751.018330000079,6.0,1.0,phase_2,go,450.0,450.0,1.0,,,,,,,,,blue,triangle
0.0,3.0,3.0,0.0,5.0,5.0,932.467435000035,6.0,1.0,phase_2,go,450.0,450.0,1.0,,,,,,,,,blue,triangle
0.0,4.0,4.0,0.0,5.0,5.0,693.6375909999697,6.0,1.0,phase_2,go,450.0,450.0,1.0,,,,,,,,,magenta,cross
0.0,7.0,3.0,1.0,6.0,0.0,0.0,6.0,1.0,phase_2,stop,450.0,450.0,4.0,,,,,,,,,green,diamond
0.0,1.0,1.0,0.0,6.0,6.0,701.1392790000173,6.0,1.0,phase_2,go,450.0,500.0,1.0,,,,,,,,,white,square
0.0,3.0,3.0,0.0,6.0,6.0,663.4240540001883,6.0,1.0,phase_2,go,450.0,500.0,1.0,,,,,,,,,blue,triangle
0.0,5.0,1.0,1.0,6.0,6.0,579.9697699999342,6.0,1.0,phase_2,stop,450.0,500.0,3.0,,,,,,,,,yellow,flipped triangle
0.0,1.0,1.0,0.0,6.0,6.0,751.7245879998882,6.0,1.0,phase_2,go,450.0,450.0,1.0,,,,,,,,,white,square
0.0,4.0,4.0,0.0,6.0,6.0,543.77877800016,6.0,1.0,phase_2,go,450.0,450.0,1.0,,,,,,,,,magenta,cross
0.0,2.0,2.0,0.0,6.0,6.0,727.5574740001503,6.0,1.0,phase_2,go,450.0,450.0,1.0,,,,,,,,,gray,hexagon
0.0,7.0,3.0,1.0,5.0,5.0,707.672630000161,6.0,1.0,phase_2,go,450.0,450.0,1.0,,,,,,,,,green,diamond
0.0,6.0,2.0,1.0,5.0,0.0,0.0,6.0,1.0,phase_2,stop,450.0,450.0,4.0,,,,,,,,,cyan,I
0.0,4.0,4.0,0.0,5.0,5.0,758.43956899962,6.0,1.0,phase_2,go,500.0,450.0,1.0,,,,,,,,,magenta,cross
0.0,2.0,2.0,0.0,6.0,6.0,625.3698329996951,6.0,1.0,phase_2,go,500.0,450.0,1.0,,,,,,,,,gray,hexagon
0.0,2.0,2.0,0.0,5.0,5.0,617.4208509996788,6.0,1.0,phase_2,go,500.0,450.0,1.0,,,,,,,,,gray,hexagon
0.0,7.0,3.0,1.0,6.0,6.0,541.2969570002133,7.0,1.0,phase_2,stop,500.0,450.0,3.0,,,,,,,,,green,diamond
0.0,8.0,4.0,1.0,5.0,5.0,539.4852780000292,7.0,1.0,phase_2,stop,500.0,400.0,3.0,,,,,,,,,orange,circle
0.0,8.0,4.0,1.0,5.0,0.0,0.0,7.0,1.0,phase_2,stop,450.0,400.0,4.0,,,,,,,,,orange,circle
0.0,1.0,1.0,0.0,5.0,5.0,669.5096639996336,7.0,1.0,phase_2,go,500.0,400.0,1.0,,,,,,,,,white,square
0.0,2.0,2.0,0.0,6.0,6.0,666.1826000004112,7.0,1.0,phase_2,go,500.0,400.0,1.0,,,,,,,,,gray,hexagon
0.0,5.0,1.0,1.0,6.0,0.0,0.0,7.0,1.0,phase_2,stop,500.0,400.0,4.0,,,,,,,,,yellow,flipped triangle
0.0,1.0,1.0,0.0,6.0,6.0,1052.791126000102,7.0,1.0,phase_2,go,500.0,450.0,1.0,,,,,,,,,white,square
0.0,8.0,4.0,1.0,6.0,6.0,670.1333930000146,7.0,1.0,phase_2,go,500.0,450.0,1.0,,,,,,,,,orange,circle
0.0,6.0,2.0,1.0,5.0,5.0,469.4990359998883,7.0,1.0,phase_2,stop,500.0,450.0,3.0,,,,,,,,,cyan,I
0.0,2.0,2.0,0.0,5.0,5.0,666.167932999997,7.0,1.0,phase_2,go,450.0,450.0,1.0,,,,,,,,,gray,hexagon
0.0,6.0,2.0,1.0,5.0,0.0,0.0,7.0,1.0,phase_2,stop,450.0,450.0,4.0,,,,,,,,,cyan,I
0.0,7.0,3.0,1.0,5.0,0.0,0.0,7.0,1.0,phase_2,stop,500.0,450.0,4.0,,,,,,,,,green,diamond
0.0,1.0,1.0,0.0,5.0,5.0,629.363836000266,7.0,1.0,phase_2,go,550.0,450.0,1.0,,,,,,,,,white,square
0.0,3.0,3.0,0.0,5.0,5.0,456.8333090001033,7.0,1.0,phase_2,go,550.0,450.0,1.0,,,,,,,,,blue,triangle
0.0,1.0,1.0,0.0,5.0,5.0,631.0524659998009,7.0,1.0,phase_2,go,550.0,450.0,1.0,,,,,,,,,white,square
0.0,1.0,1.0,0.0,5.0,5.0,609.0897129997757,7.0,1.0,phase_2,go,550.0,450.0,1.0,,,,,,,,,white,square
0.0,6.0,2.0,1.0,6.0,6.0,721.7484400002832,7.0,1.0,phase_2,go,550.0,450.0,1.0,,,,,,,,,cyan,I
0.0,5.0,1.0,1.0,5.0,5.0,381.0149959999762,7.0,1.0,phase_2,stop,550.0,450.0,3.0,,,,,,,,,yellow,flipped triangle
0.0,8.0,4.0,1.0,6.0,6.0,491.1538870001095,7.0,1.0,phase_2,stop,500.0,450.0,3.0,,,,,,,,,orange,circle
0.0,1.0,1.0,0.0,5.0,5.0,488.7061879999237,7.0,1.0,phase_2,go,500.0,400.0,1.0,,,,,,,,,white,square
0.0,8.0,4.0,1.0,5.0,0.0,0.0,7.0,1.0,phase_2,stop,500.0,400.0,4.0,,,,,,,,,orange,circle
0.0,2.0,2.0,0.0,6.0,6.0,648.5984199998711,7.0,1.0,phase_2,go,550.0,400.0,1.0,,,,,,,,,gray,hexagon
0.0,4.0,4.0,0.0,5.0,5.0,764.7264689999247,7.0,1.0,phase_2,go,550.0,400.0,1.0,,,,,,,,,magenta,cross
0.0,6.0,2.0,1.0,6.0,6.0,306.5377679999983,7.0,1.0,phase_2,stop,550.0,400.0,3.0,,,,,,,,,cyan,I
0.0,6.0,2.0,1.0,6.0,6.0,509.85703300011664,7.0,1.0,phase_2,go,550.0,350.0,1.0,,,,,,,,,cyan,I
0.0,8.0,4.0,1.0,6.0,6.0,457.2018799999569,7.0,1.0,phase_2,stop,550.0,350.0,3.0,,,,,,,,,orange,circle
0.0,4.0,4.0,0.0,5.0,5.0,683.7921659998756,7.0,1.0,phase_2,go,550.0,300.0,1.0,,,,,,,,,magenta,cross
0.0,3.0,3.0,0.0,5.0,5.0,659.8916519997147,7.0,1.0,phase_2,go,550.0,300.0,1.0,,,,,,,,,blue,triangle
0.0,2.0,2.0,0.0,5.0,5.0,652.0987019998756,7.0,1.0,phase_2,go,550.0,300.0,1.0,,,,,,,,,gray,hexagon
0.0,6.0,2.0,1.0,6.0,0.0,0.0,7.0,1.0,phase_2,stop,550.0,300.0,4.0,,,,,,,,,cyan,I
0.0,6.0,2.0,1.0,6.0,0.0,0.0,7.0,1.0,phase_2,stop,550.0,350.0,4.0,,,,,,,,,cyan,I
0.0,3.0,3.0,0.0,6.0,6.0,610.7492289997936,7.0,1.0,phase_2,go,550.0,400.0,1.0,,,,,,,,,blue,triangle
0.0,1.0,1.0,0.0,6.0,6.0,539.8605659997884,7.0,1.0,phase_2,go,550.0,400.0,1.0,,,,,,,,,white,square
0.0,5.0,1.0,1.0,5.0,5.0,352.6464990000022,7.0,1.0,phase_2,stop,550.0,400.0,3.0,,,,,,,,,yellow,flipped triangle
0.0,3.0,3.0,0.0,5.0,5.0,599.9409030000606,7.0,1.0,phase_2,go,500.0,400.0,1.0,,,,,,,,,blue,triangle
0.0,5.0,1.0,1.0,5.0,5.0,624.5384940002623,7.0,1.0,phase_2,stop,500.0,400.0,3.0,,,,,,,,,yellow,flipped triangle
0.0,2.0,2.0,0.0,5.0,5.0,494.6683279999888,8.0,1.0,phase_2,go,450.0,400.0,1.0,,,,,,,,,gray,hexagon
0.0,6.0,2.0,1.0,5.0,5.0,610.0016010000218,8.0,1.0,phase_2,go,450.0,400.0,1.0,,,,,,,,,cyan,I
0.0,5.0,1.0,1.0,6.0,0.0,0.0,8.0,1.0,phase_2,stop,450.0,400.0,4.0,,,,,,,,,yellow,flipped triangle
0.0,3.0,3.0,0.0,5.0,5.0,827.8623460000745,8.0,1.0,phase_2,go,450.0,450.0,1.0,,,,,,,,,blue,triangle
0.0,1.0,1.0,0.0,6.0,6.0,701.9130469998345,8.0,1.0,phase_2,go,450.0,450.0,1.0,,,,,,,,,white,square
0.0,2.0,2.0,0.0,6.0,6.0,462.8467440002168,8.0,1.0,phase_2,go,450.0,450.0,1.0,,,,,,,,,gray,hexagon
0.0,3.0,3.0,0.0,5.0,5.0,581.9583180000336,8.0,1.0,phase_2,go,450.0,450.0,1.0,,,,,,,,,blue,triangle
0.0,1.0,1.0,0.0,5.0,5.0,462.2228560001531,8.0,1.0,phase_2,go,450.0,450.0,1.0,,,,,,,,,white,square
0.0,5.0,1.0,1.0,6.0,6.0,720.1008120000552,8.0,1.0,phase_2,go,450.0,450.0,1.0,,,,,,,,,yellow,flipped triangle
0.0,7.0,3.0,1.0,5.0,5.0,477.0523629999843,8.0,1.0,phase_2,go,450.0,450.0,1.0,,,,,,,,,green,diamond
0.0,4.0,4.0,0.0,6.0,6.0,685.5418289997033,8.0,1.0,phase_2,go,450.0,450.0,1.0,,,,,,,,,magenta,cross
0.0,8.0,4.0,1.0,6.0,6.0,489.9710119998417,8.0,1.0,phase_2,stop,450.0,450.0,3.0,,,,,,,,,orange,circle
0.0,7.0,3.0,1.0,6.0,0.0,0.0,8.0,1.0,phase_2,stop,450.0,400.0,4.0,,,,,,,,,green,diamond
0.0,5.0,1.0,1.0,6.0,6.0,515.7651320000696,8.0,1.0,phase_2,stop,450.0,450.0,3.0,,,,,,,,,yellow,flipped triangle
0.0,1.0,1.0,0.0,5.0,5.0,578.9078180000615,8.0,1.0,phase_2,go,450.0,400.0,1.0,,,,,,,,,white,square
0.0,5.0,1.0,1.0,5.0,0.0,0.0,8.0,1.0,phase_2,stop,450.0,400.0,4.0,,,,,,,,,yellow,flipped triangle
0.0,6.0,2.0,1.0,6.0,0.0,0.0,8.0,1.0,phase_2,stop,500.0,400.0,4.0,,,,,,,,,cyan,I
0.0,7.0,3.0,1.0,5.0,5.0,546.7606560000604,8.0,1.0,phase_2,stop,500.0,450.0,3.0,,,,,,,,,green,diamond
0.0,4.0,4.0,0.0,6.0,6.0,702.8042559995811,8.0,1.0,phase_2,go,450.0,450.0,1.0,,,,,,,,,magenta,cross
0.0,2.0,2.0,0.0,5.0,5.0,517.3887569999351,8.0,1.0,phase_2,go,450.0,450.0,1.0,,,,,,,,,gray,hexagon
0.0,5.0,1.0,1.0,5.0,0.0,0.0,8.0,1.0,phase_2,stop,450.0,450.0,4.0,,,,,,,,,yellow,flipped triangle
0.0,5.0,1.0,1.0,5.0,0.0,0.0,8.0,1.0,phase_2,stop,500.0,450.0,4.0,,,,,,,,,yellow,flipped triangle
0.0,1.0,1.0,0.0,6.0,6.0,681.7323259997465,8.0,1.0,phase_2,go,550.0,450.0,1.0,,,,,,,,,white,square
0.0,4.0,4.0,0.0,6.0,6.0,739.1691549996722,8.0,1.0,phase_2,go,550.0,450.0,1.0,,,,,,,,,magenta,cross
0.0,7.0,3.0,1.0,5.0,5.0,700.8923769999456,8.0,1.0,phase_2,stop,550.0,450.0,3.0,,,,,,,,,green,diamond
0.0,5.0,1.0,1.0,5.0,0.0,0.0,8.0,1.0,phase_2,stop,500.0,450.0,4.0,,,,,,,,,yellow,flipped triangle
0.0,4.0,4.0,0.0,5.0,5.0,618.7206980002884,8.0,1.0,phase_2,go,550.0,450.0,1.0,,,,,,,,,magenta,cross
0.0,5.0,1.0,1.0,5.0,5.0,486.3277099998413,8.0,1.0,phase_2,go,550.0,450.0,1.0,,,,,,,,,yellow,flipped triangle
0.0,5.0,1.0,1.0,6.0,6.0,378.7133870000616,8.0,1.0,phase_2,stop,550.0,450.0,3.0,,,,,,,,,yellow,flipped triangle
0.0,4.0,4.0,0.0,5.0,5.0,664.7466889999123,8.0,1.0,phase_2,go,550.0,400.0,1.0,,,,,,,,,magenta,cross
0.0,4.0,4.0,0.0,5.0,5.0,561.9557240001996,8.0,1.0,phase_2,go,550.0,400.0,1.0,,,,,,,,,magenta,cross
0.0,4.0,4.0,0.0,5.0,5.0,536.7769110002882,8.0,1.0,phase_2,go,550.0,400.0,1.0,,,,,,,,,magenta,cross
0.0,6.0,2.0,1.0,6.0,6.0,451.3044870000158,8.0,1.0,phase_2,stop,550.0,400.0,3.0,,,,,,,,,cyan,I
0.0,4.0,4.0,0.0,5.0,5.0,563.6555930000213,8.0,1.0,phase_2,go,550.0,350.0,1.0,,,,,,,,,magenta,cross
0.0,1.0,1.0,0.0,5.0,5.0,329.2138329998124,8.0,1.0,phase_2,go,550.0,350.0,1.0,,,,,,,,,white,square
0.0,2.0,2.0,0.0,5.0,5.0,526.9044550000217,8.0,1.0,phase_2,go,550.0,350.0,1.0,,,,,,,,,gray,hexagon
0.0,2.0,2.0,0.0,7.0,4.0,2645.1664619999065,1.0,1.0,phase_3,,,,,220.0,5.0,176.0,132.0,44.0,220.0,88.0,264.0,gray,hexagon
0.0,7.0,3.0,1.0,7.0,2.0,2565.284299000268,1.0,1.0,phase_3,,,,,102.0,3.0,136.0,102.0,34.0,204.0,68.0,170.0,green,diamond
0.0,3.0,3.0,0.0,7.0,4.0,2192.19521299965,1.0,1.0,phase_3,,,,,294.0,6.0,49.0,98.0,245.0,294.0,147.0,196.0,blue,triangle
0.0,5.0,1.0,1.0,7.0,4.0,2231.196163999812,1.0,1.0,phase_3,,,,,170.0,5.0,34.0,136.0,68.0,170.0,204.0,102.0,yellow,flipped triangle
0.0,4.0,4.0,0.0,7.0,2.0,2363.8227859992185,1.0,1.0,phase_3,,,,,132.0,3.0,264.0,132.0,44.0,88.0,176.0,220.0,magenta,cross
0.0,4.0,4.0,0.0,7.0,1.0,1757.6763970000684,1.0,1.0,phase_3,,,,,195.0,5.0,195.0,39.0,234.0,78.0,117.0,156.0,magenta,cross
0.0,7.0,3.0,1.0,7.0,5.0,1758.938543000113,1.0,1.0,phase_3,,,,,245.0,5.0,98.0,196.0,49.0,147.0,245.0,294.0,green,diamond
0.0,1.0,1.0,0.0,7.0,3.0,1758.890144000361,1.0,1.0,phase_3,,,,,294.0,6.0,147.0,49.0,294.0,245.0,196.0,98.0,white,square
0.0,7.0,3.0,1.0,7.0,3.0,1660.0066380005956,1.0,1.0,phase_3,,,,,324.0,6.0,162.0,216.0,324.0,108.0,54.0,270.0,green,diamond
0.0,1.0,1.0,0.0,7.0,2.0,2249.507595999603,1.0,1.0,phase_3,,,,,156.0,4.0,39.0,156.0,195.0,234.0,78.0,117.0,white,square
0.0,7.0,3.0,1.0,7.0,4.0,2001.4120509995337,1.0,1.0,phase_3,,,,,234.0,6.0,39.0,195.0,117.0,234.0,156.0,78.0,green,diamond
0.0,4.0,4.0,0.0,7.0,1.0,2170.1134660006574,1.0,1.0,phase_3,,,,,220.0,5.0,220.0,44.0,132.0,176.0,264.0,88.0,magenta,cross
0.0,6.0,2.0,1.0,7.0,4.0,3053.668312000809,1.0,1.0,phase_3,,,,,195.0,5.0,78.0,117.0,156.0,195.0,39.0,234.0,cyan,I
0.0,3.0,3.0,0.0,7.0,3.0,4188.148918000479,1.0,1.0,phase_3,,,,,216.0,4.0,324.0,54.0,216.0,270.0,108.0,162.0,blue,triangle
0.0,8.0,4.0,1.0,7.0,5.0,3548.4535800005688,1.0,1.0,phase_3,,,,,156.0,4.0,78.0,117.0,195.0,39.0,156.0,234.0,orange,circle
0.0,3.0,3.0,0.0,7.0,5.0,2691.533043999698,1.0,1.0,phase_3,,,,,170.0,5.0,102.0,34.0,136.0,68.0,170.0,204.0,blue,triangle
0.0,3.0,3.0,0.0,7.0,2.0,2101.645531000031,1.0,1.0,phase_3,,,,,294.0,6.0,49.0,294.0,98.0,147.0,196.0,245.0,blue,triangle
0.0,3.0,3.0,0.0,7.0,3.0,3150.7837729996027,1.0,1.0,phase_3,,,,,117.0,3.0,234.0,195.0,117.0,156.0,78.0,39.0,blue,triangle
0.0,3.0,3.0,0.0,7.0,5.0,2787.8726310000275,1.0,1.0,phase_3,,,,,270.0,5.0,162.0,54.0,108.0,324.0,270.0,216.0,blue,triangle
0.0,1.0,1.0,0.0,7.0,3.0,4316.525688000183,1.0,1.0,phase_3,,,,,216.0,4.0,108.0,54.0,216.0,162.0,270.0,324.0,white,square
0.0,7.0,3.0,1.0,7.0,4.0,1766.056562999438,2.0,1.0,phase_3,,,,,324.0,6.0,162.0,216.0,108.0,324.0,54.0,270.0,green,diamond
0.0,1.0,1.0,0.0,7.0,2.0,2634.3363370006045,2.0,1.0,phase_3,,,,,176.0,4.0,132.0,176.0,44.0,88.0,264.0,220.0,white,square
0.0,6.0,2.0,1.0,7.0,6.0,3587.872024999342,2.0,1.0,phase_3,,,,,270.0,5.0,54.0,324.0,216.0,108.0,162.0,270.0,cyan,I
0.0,3.0,3.0,0.0,7.0,2.0,2104.8049339997306,2.0,1.0,phase_3,,,,,88.0,2.0,132.0,88.0,44.0,176.0,220.0,264.0,blue,triangle
0.0,1.0,1.0,0.0,7.0,5.0,2175.6958780006244,2.0,1.0,phase_3,,,,,136.0,4.0,102.0,34.0,170.0,204.0,136.0,68.0,white,square
0.0,1.0,1.0,0.0,7.0,2.0,2496.247066000251,2.0,1.0,phase_3,,,,,162.0,3.0,54.0,162.0,324.0,216.0,270.0,108.0,white,square
0.0,6.0,2.0,1.0,7.0,5.0,1473.9116810005726,2.0,1.0,phase_3,,,,,34.0,1.0,102.0,204.0,68.0,170.0,34.0,136.0,cyan,I
0.0,2.0,2.0,0.0,7.0,3.0,3199.5868630001496,2.0,1.0,phase_3,,,,,204.0,6.0,102.0,136.0,204.0,34.0,170.0,68.0,gray,hexagon
0.0,8.0,4.0,1.0,7.0,5.0,3851.8932590004624,2.0,1.0,phase_3,,,,,54.0,1.0,162.0,108.0,270.0,324.0,54.0,216.0,orange,circle
0.0,7.0,3.0,1.0,7.0,2.0,2388.095957000587,2.0,1.0,phase_3,,,,,204.0,6.0,34.0,204.0,136.0,68.0,170.0,102.0,green,diamond
0.0,2.0,2.0,0.0,7.0,1.0,3835.507449000034,2.0,1.0,phase_3,,,,,204.0,6.0,204.0,170.0,136.0,102.0,68.0,34.0,gray,hexagon
0.0,5.0,1.0,1.0,7.0,5.0,4257.613278000463,2.0,1.0,phase_3,,,,,195.0,5.0,156.0,39.0,117.0,78.0,195.0,234.0,yellow,flipped triangle
0.0,3.0,3.0,0.0,7.0,1.0,3738.358856000559,2.0,1.0,phase_3,,,,,102.0,3.0,102.0,34.0,68.0,204.0,170.0,136.0,blue,triangle
0.0,5.0,1.0,1.0,7.0,2.0,2035.121924999657,2.0,1.0,phase_3,,,,,34.0,1.0,68.0,34.0,204.0,170.0,102.0,136.0,yellow,flipped triangle
0.0,1.0,1.0,0.0,7.0,5.0,2764.7159289999763,2.0,1.0,phase_3,,,,,264.0,6.0,220.0,88.0,176.0,44.0,264.0,132.0,white,square
0.0,2.0,2.0,0.0,7.0,5.0,2032.941894999567,2.0,1.0,phase_3,,,,,49.0,1.0,147.0,196.0,98.0,245.0,49.0,294.0,gray,hexagon
0.0,2.0,2.0,0.0,7.0,6.0,3200.3080920003413,2.0,1.0,phase_3,,,,,132.0,3.0,264.0,44.0,176.0,88.0,220.0,132.0,gray,hexagon
0.0,1.0,1.0,0.0,7.0,4.0,3933.545728999889,2.0,1.0,phase_3,,,,,102.0,3.0,68.0,34.0,204.0,102.0,170.0,136.0,white,square
0.0,2.0,2.0,0.0,7.0,5.0,1744.196290000218,2.0,2.0,phase_3,,,,,245.0,5.0,294.0,196.0,49.0,147.0,245.0,98.0,gray,hexagon
0.0,5.0,1.0,1.0,7.0,1.0,1802.0479279994104,2.0,1.0,phase_3,,,,,98.0,2.0,98.0,49.0,294.0,196.0,245.0,147.0,yellow,flipped triangle
0.0,5.0,1.0,1.0,7.0,5.0,1676.341124999453,3.0,1.0,phase_3,,,,,147.0,3.0,245.0,294.0,196.0,98.0,147.0,49.0,yellow,flipped triangle
0.0,5.0,1.0,1.0,7.0,2.0,1740.3420489999917,3.0,1.0,phase_3,,,,,78.0,2.0,195.0,78.0,156.0,117.0,234.0,39.0,yellow,flipped triangle
0.0,8.0,4.0,1.0,7.0,3.0,2245.8877930002927,3.0,1.0,phase_3,,,,,49.0,1.0,196.0,98.0,49.0,147.0,245.0,294.0,orange,circle
0.0,7.0,3.0,1.0,7.0,1.0,1244.2902900002082,3.0,1.0,phase_3,,,,,176.0,4.0,176.0,132.0,88.0,44.0,220.0,264.0,green,diamond
0.0,2.0,2.0,0.0,7.0,2.0,1213.22283399968,3.0,1.0,phase_3,,,,,195.0,5.0,78.0,195.0,234.0,117.0,39.0,156.0,gray,hexagon
0.0,5.0,1.0,1.0,7.0,4.0,1170.5906890001645,3.0,1.0,phase_3,,,,,54.0,1.0,108.0,162.0,270.0,54.0,216.0,324.0,yellow,flipped triangle
0.0,4.0,4.0,0.0,7.0,2.0,1750.0977320005404,3.0,1.0,phase_3,,,,,117.0,3.0,234.0,117.0,195.0,78.0,156.0,39.0,magenta,cross
0.0,7.0,3.0,1.0,7.0,5.0,1670.35293599929,3.0,1.0,phase_3,,,,,245.0,5.0,49.0,294.0,147.0,196.0,245.0,98.0,green,diamond
0.0,6.0,2.0,1.0,7.0,4.0,2745.516195000164,3.0,1.0,phase_3,,,,,294.0,6.0,196.0,147.0,49.0,294.0,98.0,245.0,cyan,I
0.0,7.0,3.0,1.0,7.0,2.0,1565.67073899987,3.0,1.0,phase_3,,,,,234.0,6.0,78.0,234.0,39.0,195.0,117.0,156.0,green,diamond
0.0,5.0,1.0,1.0,7.0,5.0,2426.8231619998915,3.0,1.0,phase_3,,,,,216.0,4.0,324.0,270.0,162.0,54.0,216.0,108.0,yellow,flipped triangle
0.0,6.0,2.0,1.0,7.0,3.0,3156.745738999234,3.0,1.0,phase_3,,,,,216.0,4.0,54.0,270.0,216.0,108.0,162.0,324.0,cyan,I
0.0,6.0,2.0,1.0,7.0,3.0,2149.491492999914,3.0,1.0,phase_3,,,,,170.0,5.0,136.0,34.0,170.0,68.0,102.0,204.0,cyan,I
0.0,4.0,4.0,0.0,7.0,5.0,3823.709434000193,3.0,1.0,phase_3,,,,,216.0,4.0,324.0,162.0,54.0,108.0,216.0,270.0,magenta,cross
0.0,4.0,4.0,0.0,7.0,6.0,1297.755180000422,3.0,1.0,phase_3,,,,,170.0,5.0,136.0,102.0,68.0,34.0,204.0,170.0,magenta,cross
0.0,2.0,2.0,0.0,7.0,2.0,2027.9474970002411,3.0,1.0,phase_3,,,,,195.0,5.0,78.0,195.0,117.0,39.0,156.0,234.0,gray,hexagon
0.0,8.0,4.0,1.0,7.0,3.0,1590.1990140000637,3.0,1.0,phase_3,,,,,324.0,6.0,270.0,108.0,324.0,216.0,54.0,162.0,orange,circle
0.0,2.0,2.0,0.0,7.0,5.0,2577.847517999544,3.0,1.0,phase_3,,,,,270.0,5.0,216.0,54.0,162.0,108.0,270.0,324.0,gray,hexagon
0.0,5.0,1.0,1.0,7.0,4.0,2451.8340209997405,3.0,1.0,phase_3,,,,,88.0,2.0,132.0,264.0,176.0,88.0,220.0,44.0,yellow,flipped triangle
0.0,8.0,4.0,1.0,7.0,3.0,2999.8324299995147,3.0,1.0,phase_3,,,,,117.0,3.0,78.0,195.0,117.0,234.0,39.0,156.0,orange,circle
0.0,1.0,1.0,0.0,7.0,1.0,2006.603655000617,4.0,1.0,phase_3,,,,,117.0,3.0,117.0,234.0,156.0,195.0,39.0,78.0,white,square
0.0,1.0,1.0,0.0,7.0,6.0,1414.967515999706,4.0,1.0,phase_3,,,,,98.0,2.0,294.0,196.0,49.0,245.0,147.0,98.0,white,square
0.0,4.0,4.0,0.0,7.0,2.0,2863.9732419997017,4.0,1.0,phase_3,,,,,204.0,6.0,136.0,204.0,34.0,68.0,170.0,102.0,magenta,cross
0.0,4.0,4.0,0.0,7.0,5.0,2975.9861359998467,4.0,1.0,phase_3,,,,,196.0,4.0,98.0,147.0,49.0,245.0,196.0,294.0,magenta,cross
0.0,8.0,4.0,1.0,7.0,6.0,1933.6770920008348,4.0,1.0,phase_3,,,,,204.0,6.0,34.0,136.0,170.0,68.0,102.0,204.0,orange,circle
0.0,4.0,4.0,0.0,7.0,3.0,1794.1545730000144,4.0,1.0,phase_3,,,,,147.0,3.0,49.0,245.0,147.0,98.0,294.0,196.0,magenta,cross
0.0,8.0,4.0,1.0,7.0,4.0,1819.9698769994936,4.0,1.0,phase_3,,,,,44.0,1.0,176.0,88.0,132.0,44.0,220.0,264.0,orange,circle
0.0,5.0,1.0,1.0,7.0,2.0,2000.2536519996283,4.0,1.0,phase_3,,,,,264.0,6.0,44.0,264.0,88.0,132.0,176.0,220.0,yellow,flipped triangle
0.0,3.0,3.0,0.0,7.0,6.0,1901.2084360001609,4.0,1.0,phase_3,,,,,234.0,6.0,156.0,39.0,117.0,78.0,195.0,234.0,blue,triangle
0.0,7.0,3.0,1.0,7.0,1.0,2241.606524999952,4.0,1.0,phase_3,,,,,220.0,5.0,220.0,132.0,88.0,44.0,264.0,176.0,green,diamond
0.0,8.0,4.0,1.0,7.0,1.0,2789.734076000059,4.0,1.0,phase_3,,,,,136.0,4.0,136.0,204.0,68.0,102.0,34.0,170.0,orange,circle
0.0,6.0,2.0,1.0,7.0,6.0,2819.6793180004533,4.0,1.0,phase_3,,,,,294.0,6.0,147.0,196.0,49.0,245.0,98.0,294.0,cyan,I
0.0,8.0,4.0,1.0,7.0,1.0,1824.522724999952,4.0,1.0,phase_3,,,,,88.0,2.0,88.0,132.0,220.0,44.0,264.0,176.0,orange,circle
0.0,2.0,2.0,0.0,7.0,2.0,1973.7116999995123,4.0,1.0,phase_3,,,,,216.0,4.0,324.0,216.0,270.0,54.0,108.0,162.0,gray,hexagon
0.0,4.0,4.0,0.0,7.0,6.0,1889.5197529991487,4.0,1.0,phase_3,,,,,54.0,1.0,162.0,270.0,324.0,216.0,108.0,54.0,magenta,cross
0.0,6.0,2.0,1.0,7.0,2.0,2142.4110110001493,4.0,1.0,phase_3,,,,,88.0,2.0,220.0,88.0,176.0,44.0,132.0,264.0,cyan,I
0.0,8.0,4.0,1.0,7.0,5.0,2554.0690050002013,4.0,1.0,phase_3,,,,,294.0,6.0,147.0,196.0,245.0,49.0,294.0,98.0,orange,circle
0.0,6.0,2.0,1.0,7.0,1.0,1966.885574999651,4.0,1.0,phase_3,,,,,44.0,1.0,44.0,132.0,176.0,88.0,220.0,264.0,cyan,I
0.0,6.0,2.0,1.0,7.0,4.0,1674.6912440003143,4.0,1.0,phase_3,,,,,156.0,4.0,117.0,234.0,39.0,156.0,195.0,78.0,cyan,I
0.0,3.0,3.0,0.0,7.0,2.0,1876.213982999616,4.0,1.0,phase_3,,,,,176.0,4.0,44.0,176.0,220.0,264.0,88.0,132.0,blue,triangle
