raw_reward_magnitude,stim_reward,stepwise_reward_magnitude,paired_with_stopping,stim_location,response,reaction_time,block,num_trial_presentations,which_phase,stop_signal_trial_type,left_SSD,right_SSD,accuracy,chosen_bidding_amount,chosen_bidding_level,possible_bid_1,possible_bid_2,possible_bid_3,possible_bid_4,possible_bid_5,possible_bid_6,color_text,shape_text
123.0,6.0,1.0,1.0,4.0,4.0,540.9792729999481,1.0,1.0,phase_1,,,,,,,,,,,,,gray,hexagon
47.0,1.0,0.5,0.0,1.0,1.0,346.5394299998934,1.0,1.0,phase_1,,,,,,,,,,,,,cyan,cross
211.0,3.0,2.0,0.0,1.0,1.0,374.8830580000231,1.0,1.0,phase_1,,,,,,,,,,,,,green,square
63.0,5.0,0.5,1.0,2.0,2.0,390.6896519999918,1.0,1.0,phase_1,,,,,,,,,,,,,blue,triangle
376.0,4.0,4.0,0.0,2.0,2.0,405.688777000023,1.0,1.0,phase_1,,,,,,,,,,,,,magenta,I
424.0,8.0,4.0,1.0,1.0,1.0,370.8995009999398,1.0,1.0,phase_1,,,,,,,,,,,,,orange,circle
125.0,2.0,1.0,0.0,1.0,1.0,469.3622180000147,1.0,1.0,phase_1,,,,,,,,,,,,,yellow,diamond
216.0,3.0,2.0,0.0,2.0,2.0,396.8082910000703,1.0,1.0,phase_1,,,,,,,,,,,,,green,square
104.0,2.0,1.0,0.0,2.0,2.0,354.4325529999241,1.0,1.0,phase_1,,,,,,,,,,,,,yellow,diamond
106.0,2.0,1.0,0.0,3.0,3.0,436.9729719999213,1.0,1.0,phase_1,,,,,,,,,,,,,yellow,diamond
417.0,8.0,4.0,1.0,4.0,4.0,588.2129479998639,1.0,1.0,phase_1,,,,,,,,,,,,,orange,circle
50.0,1.0,0.5,0.0,1.0,1.0,371.4501130000371,1.0,1.0,phase_1,,,,,,,,,,,,,cyan,cross
0.0,6.0,0.0,1.0,3.0,3.0,366.6000430000622,1.0,1.0,phase_1,,,,,,,,,,,,,gray,hexagon
0.0,1.0,0.0,0.0,1.0,1.0,376.4366139998856,1.0,1.0,phase_1,,,,,,,,,,,,,cyan,cross
0.0,7.0,0.0,1.0,3.0,3.0,357.3139829998126,1.0,1.0,phase_1,,,,,,,,,,,,,white,flipped triangle
204.0,7.0,2.0,1.0,1.0,1.0,327.4647190000905,1.0,1.0,phase_1,,,,,,,,,,,,,white,flipped triangle
97.0,6.0,1.0,1.0,3.0,3.0,400.99989000009367,1.0,1.0,phase_1,,,,,,,,,,,,,gray,hexagon
221.0,7.0,2.0,1.0,1.0,1.0,379.9904589998277,1.0,1.0,phase_1,,,,,,,,,,,,,white,flipped triangle
115.0,2.0,1.0,0.0,3.0,3.0,489.9484080001457,1.0,1.0,phase_1,,,,,,,,,,,,,yellow,diamond
0.0,5.0,0.0,1.0,4.0,4.0,395.229769000025,1.0,1.0,phase_1,,,,,,,,,,,,,blue,triangle
72.0,5.0,0.5,1.0,3.0,3.0,408.5092290001739,1.0,1.0,phase_1,,,,,,,,,,,,,blue,triangle
379.0,4.0,4.0,0.0,1.0,1.0,357.3053600000548,1.0,1.0,phase_1,,,,,,,,,,,,,magenta,I
176.0,7.0,2.0,1.0,4.0,4.0,526.6402990000643,1.0,1.0,phase_1,,,,,,,,,,,,,white,flipped triangle
189.0,7.0,2.0,1.0,1.0,1.0,427.6244640000186,1.0,2.0,phase_1,,,,,,,,,,,,,white,flipped triangle
387.0,8.0,4.0,1.0,4.0,4.0,367.1176660000128,1.0,1.0,phase_1,,,,,,,,,,,,,orange,circle
96.0,6.0,1.0,1.0,3.0,3.0,405.7998749999569,1.0,1.0,phase_1,,,,,,,,,,,,,gray,hexagon
0.0,3.0,0.0,0.0,2.0,2.0,535.9401020000405,1.0,1.0,phase_1,,,,,,,,,,,,,green,square
72.0,1.0,0.5,0.0,4.0,4.0,486.7121400000087,1.0,1.0,phase_1,,,,,,,,,,,,,cyan,cross
177.0,7.0,2.0,1.0,1.0,1.0,393.829334999964,1.0,1.0,phase_1,,,,,,,,,,,,,white,flipped triangle
0.0,5.0,0.0,1.0,4.0,4.0,435.7981670000299,1.0,1.0,phase_1,,,,,,,,,,,,,blue,triangle
0.0,5.0,0.0,1.0,2.0,2.0,509.56571999995504,1.0,1.0,phase_1,,,,,,,,,,,,,blue,triangle
215.0,3.0,2.0,0.0,3.0,3.0,596.3954930000455,1.0,1.0,phase_1,,,,,,,,,,,,,green,square
376.0,8.0,4.0,1.0,3.0,3.0,571.5702729999066,1.0,1.0,phase_1,,,,,,,,,,,,,orange,circle
202.0,3.0,2.0,0.0,4.0,4.0,497.0247960000051,1.0,1.0,phase_1,,,,,,,,,,,,,green,square
202.0,7.0,2.0,1.0,4.0,4.0,576.5258010001162,1.0,1.0,phase_1,,,,,,,,,,,,,white,flipped triangle
97.0,6.0,1.0,1.0,3.0,3.0,555.7517979998465,1.0,1.0,phase_1,,,,,,,,,,,,,gray,hexagon
176.0,7.0,2.0,1.0,3.0,3.0,455.1858419999917,1.0,1.0,phase_1,,,,,,,,,,,,,white,flipped triangle
41.0,1.0,0.5,0.0,4.0,4.0,541.3368459999219,1.0,1.0,phase_1,,,,,,,,,,,,,cyan,cross
64.0,1.0,0.5,0.0,3.0,3.0,451.1869059999753,1.0,1.0,phase_1,,,,,,,,,,,,,cyan,cross
93.0,6.0,1.0,1.0,1.0,1.0,433.4060090000093,1.0,1.0,phase_1,,,,,,,,,,,,,gray,hexagon
0.0,3.0,0.0,0.0,4.0,4.0,539.8824760000025,1.0,1.0,phase_1,,,,,,,,,,,,,green,square
41.0,5.0,0.5,1.0,1.0,1.0,478.5779010001079,1.0,1.0,phase_1,,,,,,,,,,,,,blue,triangle
412.0,4.0,4.0,0.0,2.0,2.0,534.2155839998668,1.0,1.0,phase_1,,,,,,,,,,,,,magenta,I
41.0,1.0,0.5,0.0,3.0,3.0,422.9606470000817,1.0,1.0,phase_1,,,,,,,,,,,,,cyan,cross
79.0,6.0,1.0,1.0,2.0,2.0,392.9238890000306,1.0,1.0,phase_1,,,,,,,,,,,,,gray,hexagon
387.0,4.0,4.0,0.0,3.0,3.0,622.9612730001008,1.0,1.0,phase_1,,,,,,,,,,,,,magenta,I
380.0,8.0,4.0,1.0,2.0,2.0,631.5497680000135,1.0,1.0,phase_1,,,,,,,,,,,,,orange,circle
206.0,7.0,2.0,1.0,2.0,2.0,566.9695900000988,1.0,1.0,phase_1,,,,,,,,,,,,,white,flipped triangle
0.0,1.0,0.0,0.0,4.0,4.0,546.8180440000197,1.0,1.0,phase_1,,,,,,,,,,,,,cyan,cross
407.0,4.0,4.0,0.0,3.0,3.0,622.3740249999992,1.0,1.0,phase_1,,,,,,,,,,,,,magenta,I
0.0,7.0,0.0,1.0,3.0,3.0,622.5069789998088,1.0,1.0,phase_1,,,,,,,,,,,,,white,flipped triangle
0.0,3.0,0.0,0.0,3.0,3.0,614.4378369999686,1.0,1.0,phase_1,,,,,,,,,,,,,green,square
181.0,3.0,2.0,0.0,4.0,4.0,599.4048500001554,1.0,1.0,phase_1,,,,,,,,,,,,,green,square
204.0,3.0,2.0,0.0,2.0,2.0,683.6558740001237,1.0,1.0,phase_1,,,,,,,,,,,,,green,square
120.0,6.0,1.0,1.0,4.0,4.0,785.2635969998119,1.0,1.0,phase_1,,,,,,,,,,,,,gray,hexagon
392.0,4.0,4.0,0.0,3.0,3.0,602.3325520000071,1.0,1.0,phase_1,,,,,,,,,,,,,magenta,I
0.0,6.0,0.0,1.0,3.0,3.0,650.8294400000523,1.0,1.0,phase_1,,,,,,,,,,,,,gray,hexagon
76.0,2.0,1.0,0.0,2.0,2.0,662.0718439999109,1.0,1.0,phase_1,,,,,,,,,,,,,yellow,diamond
422.0,8.0,4.0,1.0,4.0,4.0,625.544434999938,1.0,1.0,phase_1,,,,,,,,,,,,,orange,circle
383.0,4.0,4.0,0.0,4.0,4.0,471.5899029997672,1.0,1.0,phase_1,,,,,,,,,,,,,magenta,I
398.0,8.0,4.0,1.0,4.0,4.0,553.8713360001566,1.0,1.0,phase_1,,,,,,,,,,,,,orange,circle
387.0,4.0,4.0,0.0,2.0,2.0,655.683905999922,1.0,1.0,phase_1,,,,,,,,,,,,,magenta,I
59.0,1.0,0.5,0.0,1.0,1.0,684.9580399998558,1.0,1.0,phase_1,,,,,,,,,,,,,cyan,cross
0.0,5.0,0.0,1.0,1.0,1.0,650.3687619997436,1.0,1.0,phase_1,,,,,,,,,,,,,blue,triangle
222.0,3.0,2.0,0.0,4.0,4.0,586.3476209997316,1.0,1.0,phase_1,,,,,,,,,,,,,green,square
0.0,5.0,0.0,1.0,2.0,2.0,587.3562530000527,1.0,1.0,phase_1,,,,,,,,,,,,,blue,triangle
414.0,4.0,4.0,0.0,1.0,1.0,454.782738999711,1.0,1.0,phase_1,,,,,,,,,,,,,magenta,I
410.0,4.0,4.0,0.0,3.0,3.0,422.2459689999596,1.0,1.0,phase_1,,,,,,,,,,,,,magenta,I
56.0,5.0,0.5,1.0,2.0,2.0,702.2224490001463,1.0,1.0,phase_1,,,,,,,,,,,,,blue,triangle
97.0,2.0,1.0,0.0,4.0,4.0,424.6843300002183,1.0,1.0,phase_1,,,,,,,,,,,,,yellow,diamond
391.0,4.0,4.0,0.0,4.0,4.0,647.3905650000233,1.0,1.0,phase_1,,,,,,,,,,,,,magenta,I
0.0,6.0,0.0,1.0,1.0,1.0,699.4264690001728,1.0,1.0,phase_1,,,,,,,,,,,,,gray,hexagon
192.0,7.0,2.0,1.0,1.0,1.0,634.0196240003024,1.0,1.0,phase_1,,,,,,,,,,,,,white,flipped triangle
423.0,4.0,4.0,0.0,1.0,1.0,739.912151000226,1.0,1.0,phase_1,,,,,,,,,,,,,magenta,I
57.0,1.0,0.5,0.0,2.0,2.0,743.1136659997719,1.0,1.0,phase_1,,,,,,,,,,,,,cyan,cross
0.0,4.0,0.0,0.0,1.0,1.0,352.0090369997888,1.0,1.0,phase_1,,,,,,,,,,,,,magenta,I
180.0,7.0,2.0,1.0,3.0,3.0,690.5747929999961,1.0,1.0,phase_1,,,,,,,,,,,,,white,flipped triangle
187.0,3.0,2.0,0.0,2.0,2.0,578.9799949998269,1.0,1.0,phase_1,,,,,,,,,,,,,green,square
80.0,6.0,1.0,1.0,4.0,4.0,946.0623760001,1.0,1.0,phase_1,,,,,,,,,,,,,gray,hexagon
81.0,2.0,1.0,0.0,2.0,2.0,714.6272310001223,1.0,1.0,phase_1,,,,,,,,,,,,,yellow,diamond
376.0,8.0,4.0,1.0,3.0,3.0,689.2295299999205,1.0,1.0,phase_1,,,,,,,,,,,,,orange,circle
105.0,6.0,1.0,1.0,4.0,4.0,571.3972419998754,1.0,1.0,phase_1,,,,,,,,,,,,,gray,hexagon
0.0,4.0,0.0,0.0,4.0,4.0,643.4508209999876,1.0,1.0,phase_1,,,,,,,,,,,,,magenta,I
184.0,7.0,2.0,1.0,2.0,2.0,493.4401049999906,1.0,1.0,phase_1,,,,,,,,,,,,,white,flipped triangle
52.0,5.0,0.5,1.0,2.0,2.0,677.6647489996321,1.0,1.0,phase_1,,,,,,,,,,,,,blue,triangle
176.0,3.0,2.0,0.0,1.0,1.0,593.4582929999124,1.0,1.0,phase_1,,,,,,,,,,,,,green,square
0.0,6.0,0.0,1.0,2.0,2.0,451.786003000052,1.0,1.0,phase_1,,,,,,,,,,,,,gray,hexagon
397.0,4.0,4.0,0.0,3.0,3.0,398.2957210000677,1.0,2.0,phase_1,,,,,,,,,,,,,magenta,I
0.0,4.0,0.0,0.0,4.0,4.0,431.1837779996494,1.0,1.0,phase_1,,,,,,,,,,,,,magenta,I
78.0,6.0,1.0,1.0,2.0,2.0,445.523711000078,1.0,1.0,phase_1,,,,,,,,,,,,,gray,hexagon
215.0,7.0,2.0,1.0,4.0,4.0,485.7526959999632,1.0,1.0,phase_1,,,,,,,,,,,,,white,flipped triangle
27.0,1.0,0.5,0.0,3.0,3.0,740.0242660000913,1.0,1.0,phase_1,,,,,,,,,,,,,cyan,cross
120.0,2.0,1.0,0.0,3.0,3.0,550.742721000006,1.0,1.0,phase_1,,,,,,,,,,,,,yellow,diamond
91.0,2.0,1.0,0.0,4.0,4.0,395.779014999789,1.0,1.0,phase_1,,,,,,,,,,,,,yellow,diamond
0.0,7.0,0.0,1.0,3.0,3.0,339.0929399997731,1.0,1.0,phase_1,,,,,,,,,,,,,white,flipped triangle
125.0,6.0,1.0,1.0,1.0,1.0,455.4211020004004,1.0,1.0,phase_1,,,,,,,,,,,,,gray,hexagon
400.0,8.0,4.0,1.0,1.0,1.0,474.1148769999199,1.0,1.0,phase_1,,,,,,,,,,,,,orange,circle
41.0,5.0,0.5,1.0,1.0,1.0,379.5621050003319,1.0,1.0,phase_1,,,,,,,,,,,,,blue,triangle
0.0,8.0,0.0,1.0,4.0,4.0,688.3687139998074,1.0,1.0,phase_1,,,,,,,,,,,,,orange,circle
379.0,4.0,4.0,0.0,1.0,1.0,598.772537000059,1.0,1.0,phase_1,,,,,,,,,,,,,magenta,I
52.0,1.0,0.5,0.0,3.0,3.0,531.5405559999817,2.0,1.0,phase_1,,,,,,,,,,,,,cyan,cross
421.0,4.0,4.0,0.0,1.0,1.0,526.478815000246,2.0,1.0,phase_1,,,,,,,,,,,,,magenta,I
422.0,4.0,4.0,0.0,3.0,3.0,373.3130149998942,2.0,1.0,phase_1,,,,,,,,,,,,,magenta,I
57.0,5.0,0.5,1.0,2.0,2.0,445.205363000241,2.0,1.0,phase_1,,,,,,,,,,,,,blue,triangle
67.0,5.0,0.5,1.0,4.0,4.0,592.0432269999765,2.0,1.0,phase_1,,,,,,,,,,,,,blue,triangle
46.0,5.0,0.5,1.0,4.0,4.0,389.4053779999922,2.0,1.0,phase_1,,,,,,,,,,,,,blue,triangle
0.0,7.0,0.0,1.0,3.0,3.0,585.7946500000253,2.0,1.0,phase_1,,,,,,,,,,,,,white,flipped triangle
423.0,8.0,4.0,1.0,3.0,3.0,413.5263499997563,2.0,1.0,phase_1,,,,,,,,,,,,,orange,circle
177.0,3.0,2.0,0.0,4.0,4.0,602.6806869999746,2.0,1.0,phase_1,,,,,,,,,,,,,green,square
0.0,2.0,0.0,0.0,1.0,1.0,464.4931100001486,2.0,1.0,phase_1,,,,,,,,,,,,,yellow,diamond
385.0,8.0,4.0,1.0,3.0,3.0,414.6702920002099,2.0,1.0,phase_1,,,,,,,,,,,,,orange,circle
35.0,5.0,0.5,1.0,1.0,1.0,460.5654309998499,2.0,1.0,phase_1,,,,,,,,,,,,,blue,triangle
79.0,2.0,1.0,0.0,4.0,4.0,563.2071659997564,2.0,1.0,phase_1,,,,,,,,,,,,,yellow,diamond
64.0,5.0,0.5,1.0,3.0,3.0,588.4867499999018,2.0,1.0,phase_1,,,,,,,,,,,,,blue,triangle
223.0,7.0,2.0,1.0,4.0,4.0,523.0043699998532,2.0,1.0,phase_1,,,,,,,,,,,,,white,flipped triangle
103.0,2.0,1.0,0.0,3.0,3.0,469.4301570002608,2.0,1.0,phase_1,,,,,,,,,,,,,yellow,diamond
103.0,6.0,1.0,1.0,4.0,4.0,546.4986239999234,2.0,1.0,phase_1,,,,,,,,,,,,,gray,hexagon
192.0,7.0,2.0,1.0,2.0,2.0,525.1923260002513,2.0,1.0,phase_1,,,,,,,,,,,,,white,flipped triangle
83.0,2.0,1.0,0.0,1.0,1.0,577.127050999934,2.0,1.0,phase_1,,,,,,,,,,,,,yellow,diamond
223.0,3.0,2.0,0.0,3.0,3.0,418.1859330001316,2.0,1.0,phase_1,,,,,,,,,,,,,green,square
63.0,1.0,0.5,0.0,1.0,1.0,386.6538840002249,2.0,1.0,phase_1,,,,,,,,,,,,,cyan,cross
67.0,1.0,0.5,0.0,3.0,3.0,438.8747890002378,2.0,1.0,phase_1,,,,,,,,,,,,,cyan,cross
219.0,3.0,2.0,0.0,1.0,1.0,540.1904539999123,2.0,1.0,phase_1,,,,,,,,,,,,,green,square
100.0,6.0,1.0,1.0,2.0,2.0,480.9845199997653,2.0,1.0,phase_1,,,,,,,,,,,,,gray,hexagon
199.0,7.0,2.0,1.0,1.0,1.0,384.6824920001381,2.0,1.0,phase_1,,,,,,,,,,,,,white,flipped triangle
111.0,2.0,1.0,0.0,4.0,4.0,422.3119999996925,2.0,1.0,phase_1,,,,,,,,,,,,,yellow,diamond
88.0,2.0,1.0,0.0,4.0,4.0,602.184443999704,2.0,1.0,phase_1,,,,,,,,,,,,,yellow,diamond
69.0,5.0,0.5,1.0,4.0,4.0,462.9454619998796,2.0,1.0,phase_1,,,,,,,,,,,,,blue,triangle
70.0,5.0,0.5,1.0,4.0,4.0,432.606967999618,2.0,1.0,phase_1,,,,,,,,,,,,,blue,triangle
0.0,8.0,0.0,1.0,4.0,4.0,385.7689350002147,2.0,1.0,phase_1,,,,,,,,,,,,,orange,circle
54.0,1.0,0.5,0.0,4.0,4.0,452.8750289996424,2.0,1.0,phase_1,,,,,,,,,,,,,cyan,cross
0.0,5.0,0.0,1.0,2.0,2.0,655.8812970001782,2.0,1.0,phase_1,,,,,,,,,,,,,blue,triangle
399.0,4.0,4.0,0.0,4.0,4.0,611.1939309998888,2.0,1.0,phase_1,,,,,,,,,,,,,magenta,I
417.0,4.0,4.0,0.0,1.0,1.0,534.7630619999109,2.0,1.0,phase_1,,,,,,,,,,,,,magenta,I
376.0,4.0,4.0,0.0,4.0,4.0,425.9479970000939,2.0,1.0,phase_1,,,,,,,,,,,,,magenta,I
46.0,1.0,0.5,0.0,3.0,3.0,447.4490570000853,2.0,1.0,phase_1,,,,,,,,,,,,,cyan,cross
413.0,4.0,4.0,0.0,4.0,4.0,399.6794429999681,2.0,1.0,phase_1,,,,,,,,,,,,,magenta,I
183.0,3.0,2.0,0.0,3.0,3.0,404.7713260001728,2.0,1.0,phase_1,,,,,,,,,,,,,green,square
88.0,6.0,1.0,1.0,1.0,1.0,568.3819709997806,2.0,1.0,phase_1,,,,,,,,,,,,,gray,hexagon
182.0,3.0,2.0,0.0,2.0,2.0,581.228879000264,2.0,1.0,phase_1,,,,,,,,,,,,,green,square
100.0,2.0,1.0,0.0,3.0,3.0,663.3797500003311,2.0,1.0,phase_1,,,,,,,,,,,,,yellow,diamond
184.0,3.0,2.0,0.0,1.0,1.0,626.4604550001422,2.0,1.0,phase_1,,,,,,,,,,,,,green,square
83.0,6.0,1.0,1.0,3.0,3.0,556.4650860001166,2.0,1.0,phase_1,,,,,,,,,,,,,gray,hexagon
120.0,2.0,1.0,0.0,2.0,2.0,672.2719330000473,2.0,1.0,phase_1,,,,,,,,,,,,,yellow,diamond
42.0,5.0,0.5,1.0,2.0,2.0,595.5900200001452,2.0,1.0,phase_1,,,,,,,,,,,,,blue,triangle
77.0,2.0,1.0,0.0,1.0,1.0,536.5683420000096,2.0,1.0,phase_1,,,,,,,,,,,,,yellow,diamond
118.0,6.0,1.0,1.0,1.0,1.0,473.414479999974,2.0,1.0,phase_1,,,,,,,,,,,,,gray,hexagon
0.0,2.0,0.0,0.0,2.0,2.0,517.0375359998616,2.0,1.0,phase_1,,,,,,,,,,,,,yellow,diamond
186.0,3.0,2.0,0.0,1.0,1.0,497.3931009999432,2.0,1.0,phase_1,,,,,,,,,,,,,green,square
95.0,2.0,1.0,0.0,1.0,1.0,476.1571139997613,2.0,1.0,phase_1,,,,,,,,,,,,,yellow,diamond
379.0,8.0,4.0,1.0,4.0,4.0,623.3120729998518,2.0,1.0,phase_1,,,,,,,,,,,,,orange,circle
69.0,1.0,0.5,0.0,1.0,1.0,352.9573340001661,2.0,1.0,phase_1,,,,,,,,,,,,,cyan,cross
67.0,5.0,0.5,1.0,4.0,4.0,545.5230570000822,2.0,1.0,phase_1,,,,,,,,,,,,,blue,triangle
27.0,5.0,0.5,1.0,4.0,4.0,447.6410920001399,2.0,1.0,phase_1,,,,,,,,,,,,,blue,triangle
404.0,8.0,4.0,1.0,1.0,1.0,439.8251069997059,2.0,1.0,phase_1,,,,,,,,,,,,,orange,circle
96.0,2.0,1.0,0.0,3.0,3.0,546.2662240001919,2.0,1.0,phase_1,,,,,,,,,,,,,yellow,diamond
0.0,5.0,0.0,1.0,4.0,4.0,404.4435020000492,2.0,1.0,phase_1,,,,,,,,,,,,,blue,triangle
386.0,8.0,4.0,1.0,4.0,4.0,533.9787070001876,2.0,1.0,phase_1,,,,,,,,,,,,,orange,circle
47.0,5.0,0.5,1.0,3.0,3.0,550.2156329998797,2.0,1.0,phase_1,,,,,,,,,,,,,blue,triangle
59.0,5.0,0.5,1.0,3.0,3.0,585.6093580000561,2.0,1.0,phase_1,,,,,,,,,,,,,blue,triangle
183.0,7.0,2.0,1.0,1.0,1.0,455.4680489995917,2.0,1.0,phase_1,,,,,,,,,,,,,white,flipped triangle
56.0,1.0,0.5,0.0,4.0,4.0,805.0692819997494,2.0,1.0,phase_1,,,,,,,,,,,,,cyan,cross
224.0,3.0,2.0,0.0,4.0,4.0,492.4100260000159,2.0,1.0,phase_1,,,,,,,,,,,,,green,square
421.0,8.0,4.0,1.0,2.0,2.0,607.0312729998477,2.0,1.0,phase_1,,,,,,,,,,,,,orange,circle
0.0,1.0,0.0,0.0,1.0,1.0,512.5937300003898,2.0,1.0,phase_1,,,,,,,,,,,,,cyan,cross
96.0,6.0,1.0,1.0,4.0,4.0,714.3376250000983,2.0,1.0,phase_1,,,,,,,,,,,,,gray,hexagon
405.0,4.0,4.0,0.0,3.0,3.0,745.8178849997239,2.0,1.0,phase_1,,,,,,,,,,,,,magenta,I
410.0,8.0,4.0,1.0,2.0,2.0,742.1009549998416,2.0,1.0,phase_1,,,,,,,,,,,,,orange,circle
68.0,1.0,0.5,0.0,4.0,4.0,708.0006500000309,2.0,1.0,phase_1,,,,,,,,,,,,,cyan,cross
93.0,2.0,1.0,0.0,2.0,2.0,618.8090210002883,2.0,1.0,phase_1,,,,,,,,,,,,,yellow,diamond
0.0,7.0,0.0,1.0,4.0,4.0,584.1426570000294,2.0,1.0,phase_1,,,,,,,,,,,,,white,flipped triangle
56.0,1.0,0.5,0.0,4.0,4.0,820.8050410003125,2.0,1.0,phase_1,,,,,,,,,,,,,cyan,cross
0.0,3.0,0.0,0.0,2.0,2.0,691.4129720003075,2.0,1.0,phase_1,,,,,,,,,,,,,green,square
175.0,3.0,2.0,0.0,1.0,1.0,572.6928029998817,2.0,1.0,phase_1,,,,,,,,,,,,,green,square
0.0,4.0,0.0,0.0,2.0,2.0,500.52613800016843,2.0,1.0,phase_1,,,,,,,,,,,,,magenta,I
118.0,2.0,1.0,0.0,1.0,1.0,520.6671390001247,2.0,1.0,phase_1,,,,,,,,,,,,,yellow,diamond
0.0,3.0,0.0,0.0,2.0,2.0,702.9281909999554,2.0,1.0,phase_1,,,,,,,,,,,,,green,square
93.0,6.0,1.0,1.0,4.0,4.0,524.0947900001629,2.0,1.0,phase_1,,,,,,,,,,,,,gray,hexagon
405.0,8.0,4.0,1.0,1.0,1.0,840.7177640001464,2.0,1.0,phase_1,,,,,,,,,,,,,orange,circle
413.0,8.0,4.0,1.0,1.0,1.0,622.6159390002977,2.0,1.0,phase_1,,,,,,,,,,,,,orange,circle
0.0,7.0,0.0,1.0,1.0,1.0,581.8230539998694,2.0,1.0,phase_1,,,,,,,,,,,,,white,flipped triangle
106.0,6.0,1.0,1.0,3.0,3.0,619.0047469999627,2.0,1.0,phase_1,,,,,,,,,,,,,gray,hexagon
196.0,3.0,2.0,0.0,1.0,1.0,534.852796999985,2.0,1.0,phase_1,,,,,,,,,,,,,green,square
412.0,8.0,4.0,1.0,3.0,3.0,685.3863860001184,2.0,1.0,phase_1,,,,,,,,,,,,,orange,circle
70.0,5.0,0.5,1.0,3.0,3.0,596.0367600000609,2.0,1.0,phase_1,,,,,,,,,,,,,blue,triangle
181.0,7.0,2.0,1.0,4.0,4.0,565.9192760003862,2.0,1.0,phase_1,,,,,,,,,,,,,white,flipped triangle
211.0,7.0,2.0,1.0,1.0,1.0,603.6255169997276,2.0,1.0,phase_1,,,,,,,,,,,,,white,flipped triangle
206.0,3.0,2.0,0.0,1.0,1.0,549.692954999955,2.0,1.0,phase_1,,,,,,,,,,,,,green,square
0.0,5.0,0.0,1.0,1.0,1.0,619.0137130001858,2.0,1.0,phase_1,,,,,,,,,,,,,blue,triangle
399.0,8.0,4.0,1.0,2.0,2.0,596.9651079999494,2.0,1.0,phase_1,,,,,,,,,,,,,orange,circle
0.0,3.0,0.0,0.0,2.0,2.0,929.9675720003506,2.0,1.0,phase_1,,,,,,,,,,,,,green,square
225.0,7.0,2.0,1.0,2.0,2.0,409.2172779996872,2.0,1.0,phase_1,,,,,,,,,,,,,white,flipped triangle
82.0,6.0,1.0,1.0,1.0,1.0,626.790574000097,2.0,1.0,phase_1,,,,,,,,,,,,,gray,hexagon
0.0,4.0,0.0,0.0,1.0,1.0,428.4707560000242,2.0,1.0,phase_1,,,,,,,,,,,,,magenta,I
125.0,2.0,1.0,0.0,3.0,3.0,510.51453499985655,2.0,1.0,phase_1,,,,,,,,,,,,,yellow,diamond
65.0,1.0,0.5,0.0,3.0,3.0,525.1899909999338,2.0,1.0,phase_1,,,,,,,,,,,,,cyan,cross
93.0,2.0,1.0,0.0,1.0,1.0,525.2314059998753,2.0,1.0,phase_1,,,,,,,,,,,,,yellow,diamond
407.0,8.0,4.0,1.0,2.0,2.0,439.939964000132,2.0,1.0,phase_1,,,,,,,,,,,,,orange,circle
0.0,4.0,0.0,0.0,4.0,4.0,740.3339460001916,2.0,1.0,phase_1,,,,,,,,,,,,,magenta,I
218.0,3.0,2.0,0.0,2.0,2.0,529.3669450002199,2.0,1.0,phase_1,,,,,,,,,,,,,green,square
96.0,2.0,1.0,0.0,2.0,2.0,373.9632369997707,3.0,1.0,phase_1,,,,,,,,,,,,,yellow,diamond
0.0,4.0,0.0,0.0,2.0,2.0,352.6572820001092,3.0,1.0,phase_1,,,,,,,,,,,,,magenta,I
78.0,2.0,1.0,0.0,4.0,4.0,508.4817539996038,3.0,1.0,phase_1,,,,,,,,,,,,,yellow,diamond
196.0,7.0,2.0,1.0,3.0,3.0,531.9193560003441,3.0,1.0,phase_1,,,,,,,,,,,,,white,flipped triangle
40.0,5.0,0.5,1.0,3.0,3.0,374.1919460003373,3.0,1.0,phase_1,,,,,,,,,,,,,blue,triangle
54.0,5.0,0.5,1.0,4.0,4.0,468.3693249999123,3.0,1.0,phase_1,,,,,,,,,,,,,blue,triangle
187.0,7.0,2.0,1.0,3.0,3.0,426.9756470002903,3.0,1.0,phase_1,,,,,,,,,,,,,white,flipped triangle
124.0,6.0,1.0,1.0,2.0,2.0,518.0967539999983,3.0,1.0,phase_1,,,,,,,,,,,,,gray,hexagon
197.0,3.0,2.0,0.0,4.0,4.0,560.1268499999605,3.0,1.0,phase_1,,,,,,,,,,,,,green,square
424.0,4.0,4.0,0.0,2.0,2.0,460.2367740003501,3.0,1.0,phase_1,,,,,,,,,,,,,magenta,I
391.0,8.0,4.0,1.0,1.0,1.0,598.4024619997399,3.0,1.0,phase_1,,,,,,,,,,,,,orange,circle
0.0,6.0,0.0,1.0,2.0,2.0,559.4189399998868,3.0,1.0,phase_1,,,,,,,,,,,,,gray,hexagon
203.0,3.0,2.0,0.0,3.0,3.0,569.9972180000259,3.0,1.0,phase_1,,,,,,,,,,,,,green,square
29.0,5.0,0.5,1.0,1.0,1.0,425.2861800000573,3.0,1.0,phase_1,,,,,,,,,,,,,blue,triangle
220.0,7.0,2.0,1.0,2.0,2.0,688.7577630000123,3.0,1.0,phase_1,,,,,,,,,,,,,white,flipped triangle
75.0,6.0,1.0,1.0,1.0,1.0,516.1547850002535,3.0,1.0,phase_1,,,,,,,,,,,,,gray,hexagon
392.0,8.0,4.0,1.0,2.0,2.0,499.530815000071,3.0,1.0,phase_1,,,,,,,,,,,,,orange,circle
0.0,1.0,0.0,0.0,3.0,3.0,649.2451739995886,3.0,1.0,phase_1,,,,,,,,,,,,,cyan,cross
0.0,2.0,0.0,0.0,4.0,4.0,560.5384310001682,3.0,1.0,phase_1,,,,,,,,,,,,,yellow,diamond
423.0,8.0,4.0,1.0,4.0,4.0,413.9738710000529,3.0,1.0,phase_1,,,,,,,,,,,,,orange,circle
206.0,7.0,2.0,1.0,2.0,2.0,432.5845809999009,3.0,1.0,phase_1,,,,,,,,,,,,,white,flipped triangle
402.0,8.0,4.0,1.0,3.0,3.0,685.7464800000344,3.0,1.0,phase_1,,,,,,,,,,,,,orange,circle
197.0,7.0,2.0,1.0,2.0,2.0,802.5361630002408,3.0,1.0,phase_1,,,,,,,,,,,,,white,flipped triangle
91.0,6.0,1.0,1.0,3.0,3.0,488.4714339996208,3.0,1.0,phase_1,,,,,,,,,,,,,gray,hexagon
32.0,1.0,0.5,0.0,2.0,2.0,436.1341670000911,3.0,1.0,phase_1,,,,,,,,,,,,,cyan,cross
56.0,5.0,0.5,1.0,3.0,3.0,409.2984300000353,3.0,1.0,phase_1,,,,,,,,,,,,,blue,triangle
54.0,5.0,0.5,1.0,3.0,3.0,433.0112260004171,3.0,1.0,phase_1,,,,,,,,,,,,,blue,triangle
399.0,8.0,4.0,1.0,4.0,4.0,394.6736319999218,3.0,1.0,phase_1,,,,,,,,,,,,,orange,circle
0.0,1.0,0.0,0.0,4.0,4.0,602.5067770001442,3.0,1.0,phase_1,,,,,,,,,,,,,cyan,cross
89.0,6.0,1.0,1.0,2.0,2.0,452.402088999861,3.0,1.0,phase_1,,,,,,,,,,,,,gray,hexagon
222.0,7.0,2.0,1.0,3.0,3.0,472.3001060001479,3.0,1.0,phase_1,,,,,,,,,,,,,white,flipped triangle
216.0,3.0,2.0,0.0,2.0,2.0,416.9895140003063,3.0,1.0,phase_1,,,,,,,,,,,,,green,square
123.0,2.0,1.0,0.0,2.0,2.0,396.4882020000004,3.0,1.0,phase_1,,,,,,,,,,,,,yellow,diamond
104.0,6.0,1.0,1.0,1.0,1.0,421.2145869996675,3.0,1.0,phase_1,,,,,,,,,,,,,gray,hexagon
33.0,1.0,0.5,0.0,3.0,3.0,356.7406910001409,3.0,1.0,phase_1,,,,,,,,,,,,,cyan,cross
398.0,4.0,4.0,0.0,1.0,1.0,433.9213029998063,3.0,1.0,phase_1,,,,,,,,,,,,,magenta,I
64.0,1.0,0.5,0.0,4.0,4.0,551.4137369996206,3.0,1.0,phase_1,,,,,,,,,,,,,cyan,cross
0.0,7.0,0.0,1.0,1.0,1.0,371.5865480003231,3.0,1.0,phase_1,,,,,,,,,,,,,white,flipped triangle
75.0,5.0,0.5,1.0,4.0,4.0,360.4647479996856,3.0,1.0,phase_1,,,,,,,,,,,,,blue,triangle
376.0,8.0,4.0,1.0,4.0,4.0,374.0085610002097,3.0,1.0,phase_1,,,,,,,,,,,,,orange,circle
402.0,4.0,4.0,0.0,2.0,2.0,356.8435100000897,3.0,1.0,phase_1,,,,,,,,,,,,,magenta,I
38.0,1.0,0.5,0.0,1.0,1.0,466.7223500000546,3.0,1.0,phase_1,,,,,,,,,,,,,cyan,cross
76.0,6.0,1.0,1.0,4.0,4.0,355.6317279999348,3.0,1.0,phase_1,,,,,,,,,,,,,gray,hexagon
218.0,7.0,2.0,1.0,4.0,4.0,446.7992180002511,3.0,1.0,phase_1,,,,,,,,,,,,,white,flipped triangle
81.0,6.0,1.0,1.0,2.0,2.0,432.0586720000392,3.0,1.0,phase_1,,,,,,,,,,,,,gray,hexagon
216.0,7.0,2.0,1.0,3.0,3.0,418.6738870002955,3.0,1.0,phase_1,,,,,,,,,,,,,white,flipped triangle
58.0,1.0,0.5,0.0,2.0,2.0,443.843655999899,3.0,1.0,phase_1,,,,,,,,,,,,,cyan,cross
70.0,1.0,0.5,0.0,3.0,3.0,389.0679060000366,3.0,1.0,phase_1,,,,,,,,,,,,,cyan,cross
0.0,8.0,0.0,1.0,2.0,2.0,456.2024419997215,3.0,1.0,phase_1,,,,,,,,,,,,,orange,circle
0.0,5.0,0.0,1.0,2.0,2.0,364.4958450004196,3.0,1.0,phase_1,,,,,,,,,,,,,blue,triangle
117.0,6.0,1.0,1.0,2.0,2.0,498.7063230000785,3.0,1.0,phase_1,,,,,,,,,,,,,gray,hexagon
0.0,2.0,0.0,0.0,4.0,4.0,449.1713110001001,3.0,1.0,phase_1,,,,,,,,,,,,,yellow,diamond
399.0,4.0,4.0,0.0,3.0,3.0,607.2696280002674,3.0,1.0,phase_1,,,,,,,,,,,,,magenta,I
402.0,8.0,4.0,1.0,4.0,4.0,589.4159780000336,3.0,1.0,phase_1,,,,,,,,,,,,,orange,circle
0.0,1.0,0.0,0.0,3.0,3.0,757.2001600001386,3.0,1.0,phase_1,,,,,,,,,,,,,cyan,cross
0.0,7.0,0.0,1.0,3.0,3.0,590.1651330000277,3.0,1.0,phase_1,,,,,,,,,,,,,white,flipped triangle
105.0,2.0,1.0,0.0,2.0,2.0,484.52837800005,3.0,1.0,phase_1,,,,,,,,,,,,,yellow,diamond
120.0,6.0,1.0,1.0,1.0,1.0,492.7808369998274,3.0,1.0,phase_1,,,,,,,,,,,,,gray,hexagon
77.0,6.0,1.0,1.0,3.0,3.0,515.4956110000057,3.0,1.0,phase_1,,,,,,,,,,,,,gray,hexagon
0.0,6.0,0.0,1.0,2.0,2.0,532.3750170000494,3.0,1.0,phase_1,,,,,,,,,,,,,gray,hexagon
397.0,8.0,4.0,1.0,1.0,1.0,477.025483000034,3.0,1.0,phase_1,,,,,,,,,,,,,orange,circle
176.0,3.0,2.0,0.0,1.0,1.0,432.0445220000692,3.0,1.0,phase_1,,,,,,,,,,,,,green,square
54.0,5.0,0.5,1.0,1.0,1.0,470.171773000402,3.0,1.0,phase_1,,,,,,,,,,,,,blue,triangle
0.0,8.0,0.0,1.0,2.0,2.0,430.2256669998314,3.0,1.0,phase_1,,,,,,,,,,,,,orange,circle
225.0,3.0,2.0,0.0,2.0,2.0,409.5536760000868,3.0,1.0,phase_1,,,,,,,,,,,,,green,square
423.0,4.0,4.0,0.0,1.0,1.0,478.9912960000038,3.0,1.0,phase_1,,,,,,,,,,,,,magenta,I
67.0,1.0,0.5,0.0,3.0,3.0,527.2052010000152,3.0,1.0,phase_1,,,,,,,,,,,,,cyan,cross
180.0,3.0,2.0,0.0,2.0,2.0,497.4426779999703,3.0,1.0,phase_1,,,,,,,,,,,,,green,square
26.0,5.0,0.5,1.0,4.0,4.0,576.0899920001066,3.0,1.0,phase_1,,,,,,,,,,,,,blue,triangle
405.0,4.0,4.0,0.0,4.0,4.0,413.0677029997969,3.0,1.0,phase_1,,,,,,,,,,,,,magenta,I
0.0,8.0,0.0,1.0,1.0,1.0,409.0036459997463,3.0,1.0,phase_1,,,,,,,,,,,,,orange,circle
105.0,6.0,1.0,1.0,3.0,3.0,515.7815400002619,3.0,1.0,phase_1,,,,,,,,,,,,,gray,hexagon
221.0,3.0,2.0,0.0,3.0,3.0,424.4374889999562,3.0,1.0,phase_1,,,,,,,,,,,,,green,square
29.0,1.0,0.5,0.0,1.0,1.0,377.4888329999157,3.0,1.0,phase_1,,,,,,,,,,,,,cyan,cross
415.0,8.0,4.0,1.0,3.0,3.0,355.3697950001151,3.0,1.0,phase_1,,,,,,,,,,,,,orange,circle
400.0,4.0,4.0,0.0,2.0,2.0,451.8456039995726,3.0,1.0,phase_1,,,,,,,,,,,,,magenta,I
109.0,6.0,1.0,1.0,2.0,2.0,427.1172260000639,3.0,1.0,phase_1,,,,,,,,,,,,,gray,hexagon
0.0,4.0,0.0,0.0,2.0,2.0,463.0706509997253,3.0,1.0,phase_1,,,,,,,,,,,,,magenta,I
31.0,1.0,0.5,0.0,4.0,4.0,688.0144110000401,3.0,1.0,phase_1,,,,,,,,,,,,,cyan,cross
220.0,3.0,2.0,0.0,3.0,3.0,661.8387469998197,3.0,1.0,phase_1,,,,,,,,,,,,,green,square
0.0,1.0,0.0,0.0,1.0,1.0,846.4283430002979,3.0,1.0,phase_1,,,,,,,,,,,,,cyan,cross
0.0,7.0,0.0,1.0,3.0,3.0,416.4337920001344,3.0,1.0,phase_1,,,,,,,,,,,,,white,flipped triangle
109.0,2.0,1.0,0.0,4.0,4.0,543.4818690000611,3.0,1.0,phase_1,,,,,,,,,,,,,yellow,diamond
0.0,5.0,0.0,1.0,3.0,3.0,392.3992499999258,3.0,1.0,phase_1,,,,,,,,,,,,,blue,triangle
70.0,1.0,0.5,0.0,4.0,4.0,338.1288630002927,3.0,1.0,phase_1,,,,,,,,,,,,,cyan,cross
40.0,1.0,0.5,0.0,2.0,2.0,364.9995820001095,3.0,1.0,phase_1,,,,,,,,,,,,,cyan,cross
0.0,6.0,0.0,1.0,3.0,3.0,439.3618519998199,3.0,1.0,phase_1,,,,,,,,,,,,,gray,hexagon
26.0,5.0,0.5,1.0,4.0,4.0,399.8504850001154,3.0,1.0,phase_1,,,,,,,,,,,,,blue,triangle
75.0,1.0,0.5,0.0,2.0,2.0,621.07060299968,3.0,1.0,phase_1,,,,,,,,,,,,,cyan,cross
89.0,2.0,1.0,0.0,1.0,1.0,746.1117950001608,3.0,1.0,phase_1,,,,,,,,,,,,,yellow,diamond
182.0,7.0,2.0,1.0,4.0,4.0,533.528987000409,3.0,1.0,phase_1,,,,,,,,,,,,,white,flipped triangle
102.0,6.0,1.0,1.0,4.0,4.0,520.6891479997466,3.0,1.0,phase_1,,,,,,,,,,,,,gray,hexagon
80.0,2.0,1.0,0.0,3.0,3.0,576.9175700002052,3.0,1.0,phase_1,,,,,,,,,,,,,yellow,diamond
199.0,3.0,2.0,0.0,4.0,4.0,588.9702740000757,3.0,1.0,phase_1,,,,,,,,,,,,,green,square
224.0,7.0,2.0,1.0,2.0,2.0,425.8725350000532,3.0,1.0,phase_1,,,,,,,,,,,,,white,flipped triangle
111.0,6.0,1.0,1.0,1.0,1.0,450.830820000192,3.0,1.0,phase_1,,,,,,,,,,,,,gray,hexagon
415.0,8.0,4.0,1.0,3.0,3.0,446.037269000044,3.0,1.0,phase_1,,,,,,,,,,,,,orange,circle
0.0,2.0,0.0,0.0,3.0,3.0,475.3921110000192,3.0,1.0,phase_1,,,,,,,,,,,,,yellow,diamond
383.0,8.0,4.0,1.0,1.0,1.0,358.1681789996764,3.0,1.0,phase_1,,,,,,,,,,,,,orange,circle
0.0,6.0,0.0,1.0,2.0,2.0,441.9734809998772,3.0,1.0,phase_1,,,,,,,,,,,,,gray,hexagon
0.0,8.0,0.0,1.0,1.0,1.0,460.1765349998459,4.0,1.0,phase_1,,,,,,,,,,,,,orange,circle
50.0,5.0,0.5,1.0,1.0,1.0,416.5049379998891,4.0,1.0,phase_1,,,,,,,,,,,,,blue,triangle
376.0,4.0,4.0,0.0,2.0,2.0,440.8220720001736,4.0,1.0,phase_1,,,,,,,,,,,,,magenta,I
54.0,1.0,0.5,0.0,2.0,2.0,386.9039010000961,4.0,1.0,phase_1,,,,,,,,,,,,,cyan,cross
0.0,2.0,0.0,0.0,1.0,1.0,401.0843650003153,4.0,1.0,phase_1,,,,,,,,,,,,,yellow,diamond
211.0,3.0,2.0,0.0,3.0,3.0,460.348810999676,4.0,1.0,phase_1,,,,,,,,,,,,,green,square
392.0,4.0,4.0,0.0,3.0,3.0,380.7445540001026,4.0,1.0,phase_1,,,,,,,,,,,,,magenta,I
188.0,3.0,2.0,0.0,2.0,2.0,417.7816450001046,4.0,1.0,phase_1,,,,,,,,,,,,,green,square
384.0,4.0,4.0,0.0,2.0,2.0,370.8366920000117,4.0,1.0,phase_1,,,,,,,,,,,,,magenta,I
203.0,7.0,2.0,1.0,4.0,4.0,357.4022980001246,4.0,1.0,phase_1,,,,,,,,,,,,,white,flipped triangle
402.0,4.0,4.0,0.0,1.0,1.0,459.4995170000402,4.0,1.0,phase_1,,,,,,,,,,,,,magenta,I
380.0,4.0,4.0,0.0,4.0,4.0,730.2807870000834,4.0,1.0,phase_1,,,,,,,,,,,,,magenta,I
26.0,1.0,0.5,0.0,1.0,1.0,409.4137020001653,4.0,1.0,phase_1,,,,,,,,,,,,,cyan,cross
189.0,3.0,2.0,0.0,3.0,3.0,461.1634519997096,4.0,1.0,phase_1,,,,,,,,,,,,,green,square
0.0,8.0,0.0,1.0,1.0,1.0,362.1985230001883,4.0,1.0,phase_1,,,,,,,,,,,,,orange,circle
124.0,2.0,1.0,0.0,1.0,1.0,632.7114350001466,4.0,1.0,phase_1,,,,,,,,,,,,,yellow,diamond
0.0,3.0,0.0,0.0,4.0,4.0,477.1121930002664,4.0,1.0,phase_1,,,,,,,,,,,,,green,square
180.0,7.0,2.0,1.0,3.0,3.0,417.1020419998967,4.0,1.0,phase_1,,,,,,,,,,,,,white,flipped triangle
404.0,4.0,4.0,0.0,2.0,2.0,446.6254680000929,4.0,1.0,phase_1,,,,,,,,,,,,,magenta,I
0.0,1.0,0.0,0.0,3.0,3.0,354.6957749999819,4.0,1.0,phase_1,,,,,,,,,,,,,cyan,cross
0.0,2.0,0.0,0.0,2.0,2.0,352.8882099999464,4.0,1.0,phase_1,,,,,,,,,,,,,yellow,diamond
193.0,7.0,2.0,1.0,3.0,3.0,513.2617240001309,4.0,1.0,phase_1,,,,,,,,,,,,,white,flipped triangle
105.0,2.0,1.0,0.0,2.0,2.0,411.7030659999727,4.0,1.0,phase_1,,,,,,,,,,,,,yellow,diamond
118.0,2.0,1.0,0.0,3.0,3.0,473.8260469998749,4.0,1.0,phase_1,,,,,,,,,,,,,yellow,diamond
118.0,6.0,1.0,1.0,2.0,2.0,390.0422200003959,4.0,1.0,phase_1,,,,,,,,,,,,,gray,hexagon
0.0,8.0,0.0,1.0,4.0,4.0,599.2301760002192,4.0,1.0,phase_1,,,,,,,,,,,,,orange,circle
219.0,7.0,2.0,1.0,1.0,1.0,464.4060040000113,4.0,1.0,phase_1,,,,,,,,,,,,,white,flipped triangle
31.0,5.0,0.5,1.0,2.0,2.0,361.7374780001228,4.0,1.0,phase_1,,,,,,,,,,,,,blue,triangle
392.0,8.0,4.0,1.0,2.0,2.0,462.9799500003173,4.0,1.0,phase_1,,,,,,,,,,,,,orange,circle
422.0,8.0,4.0,1.0,1.0,1.0,489.4882530002178,4.0,1.0,phase_1,,,,,,,,,,,,,orange,circle
0.0,3.0,0.0,0.0,3.0,3.0,409.4925249996777,4.0,1.0,phase_1,,,,,,,,,,,,,green,square
117.0,2.0,1.0,0.0,1.0,1.0,499.0543769999931,4.0,1.0,phase_1,,,,,,,,,,,,,yellow,diamond
35.0,1.0,0.5,0.0,4.0,4.0,644.8009880000427,4.0,1.0,phase_1,,,,,,,,,,,,,cyan,cross
186.0,7.0,2.0,1.0,3.0,3.0,345.5548809997708,4.0,1.0,phase_1,,,,,,,,,,,,,white,flipped triangle
0.0,4.0,0.0,0.0,1.0,1.0,468.0484709997472,4.0,1.0,phase_1,,,,,,,,,,,,,magenta,I
384.0,8.0,4.0,1.0,3.0,3.0,463.5039270001471,4.0,1.0,phase_1,,,,,,,,,,,,,orange,circle
96.0,2.0,1.0,0.0,4.0,4.0,423.1308099997477,4.0,1.0,phase_1,,,,,,,,,,,,,yellow,diamond
0.0,6.0,0.0,1.0,3.0,3.0,385.9858079999867,4.0,1.0,phase_1,,,,,,,,,,,,,gray,hexagon
0.0,1.0,0.0,0.0,2.0,2.0,441.2562259999504,4.0,1.0,phase_1,,,,,,,,,,,,,cyan,cross
206.0,3.0,2.0,0.0,4.0,4.0,380.8573220003381,4.0,1.0,phase_1,,,,,,,,,,,,,green,square
118.0,2.0,1.0,0.0,2.0,2.0,442.7946199998587,4.0,1.0,phase_1,,,,,,,,,,,,,yellow,diamond
0.0,3.0,0.0,0.0,3.0,3.0,345.0574500002403,4.0,1.0,phase_1,,,,,,,,,,,,,green,square
33.0,5.0,0.5,1.0,2.0,2.0,383.9071880001938,4.0,1.0,phase_1,,,,,,,,,,,,,blue,triangle
54.0,1.0,0.5,0.0,2.0,2.0,472.9809000000387,4.0,1.0,phase_1,,,,,,,,,,,,,cyan,cross
217.0,3.0,2.0,0.0,3.0,3.0,369.3914360001145,4.0,1.0,phase_1,,,,,,,,,,,,,green,square
75.0,2.0,1.0,0.0,1.0,1.0,463.1129569997938,4.0,1.0,phase_1,,,,,,,,,,,,,yellow,diamond
64.0,5.0,0.5,1.0,1.0,1.0,436.1144969998349,4.0,1.0,phase_1,,,,,,,,,,,,,blue,triangle
30.0,1.0,0.5,0.0,2.0,2.0,405.0351979999504,4.0,1.0,phase_1,,,,,,,,,,,,,cyan,cross
192.0,3.0,2.0,0.0,2.0,2.0,411.4814169997771,4.0,1.0,phase_1,,,,,,,,,,,,,green,square
29.0,5.0,0.5,1.0,3.0,3.0,413.4634619999815,4.0,1.0,phase_1,,,,,,,,,,,,,blue,triangle
0.0,8.0,0.0,1.0,1.0,1.0,455.6644939998477,4.0,1.0,phase_1,,,,,,,,,,,,,orange,circle
417.0,8.0,4.0,1.0,2.0,2.0,610.1387089997843,4.0,1.0,phase_1,,,,,,,,,,,,,orange,circle
125.0,6.0,1.0,1.0,2.0,2.0,464.1541959999813,4.0,1.0,phase_1,,,,,,,,,,,,,gray,hexagon
0.0,8.0,0.0,1.0,3.0,3.0,467.4717050002073,4.0,1.0,phase_1,,,,,,,,,,,,,orange,circle
102.0,2.0,1.0,0.0,3.0,3.0,388.3151299996825,4.0,1.0,phase_1,,,,,,,,,,,,,yellow,diamond
387.0,8.0,4.0,1.0,1.0,1.0,855.2579510001124,4.0,1.0,phase_1,,,,,,,,,,,,,orange,circle
38.0,5.0,0.5,1.0,1.0,1.0,400.3522630000589,4.0,1.0,phase_1,,,,,,,,,,,,,blue,triangle
415.0,4.0,4.0,0.0,3.0,3.0,611.512555000445,4.0,1.0,phase_1,,,,,,,,,,,,,magenta,I
68.0,5.0,0.5,1.0,2.0,2.0,414.2654049996963,4.0,1.0,phase_1,,,,,,,,,,,,,blue,triangle
217.0,7.0,2.0,1.0,2.0,2.0,356.0519510001541,4.0,1.0,phase_1,,,,,,,,,,,,,white,flipped triangle
96.0,6.0,1.0,1.0,1.0,1.0,332.4662029999672,4.0,1.0,phase_1,,,,,,,,,,,,,gray,hexagon
82.0,2.0,1.0,0.0,4.0,4.0,439.0372859998024,4.0,1.0,phase_1,,,,,,,,,,,,,yellow,diamond
0.0,7.0,0.0,1.0,4.0,4.0,372.8178440001102,4.0,1.0,phase_1,,,,,,,,,,,,,white,flipped triangle
211.0,7.0,2.0,1.0,4.0,4.0,440.2050680000684,4.0,1.0,phase_1,,,,,,,,,,,,,white,flipped triangle
0.0,2.0,0.0,0.0,2.0,2.0,465.9713910000391,4.0,1.0,phase_1,,,,,,,,,,,,,yellow,diamond
385.0,4.0,4.0,0.0,4.0,4.0,424.1599919996588,4.0,1.0,phase_1,,,,,,,,,,,,,magenta,I
216.0,7.0,2.0,1.0,3.0,3.0,441.267455000343,4.0,1.0,phase_1,,,,,,,,,,,,,white,flipped triangle
30.0,5.0,0.5,1.0,1.0,1.0,398.0717860004006,4.0,1.0,phase_1,,,,,,,,,,,,,blue,triangle
26.0,1.0,0.5,0.0,2.0,2.0,648.6848819999977,4.0,1.0,phase_1,,,,,,,,,,,,,cyan,cross
175.0,7.0,2.0,1.0,1.0,1.0,432.1494749997328,4.0,1.0,phase_1,,,,,,,,,,,,,white,flipped triangle
405.0,8.0,4.0,1.0,3.0,3.0,548.3678789996702,4.0,1.0,phase_1,,,,,,,,,,,,,orange,circle
118.0,6.0,1.0,1.0,3.0,3.0,394.4538600003398,4.0,1.0,phase_1,,,,,,,,,,,,,gray,hexagon
417.0,4.0,4.0,0.0,1.0,1.0,425.4172189998826,4.0,1.0,phase_1,,,,,,,,,,,,,magenta,I
0.0,1.0,0.0,0.0,1.0,1.0,487.1522789999289,4.0,1.0,phase_1,,,,,,,,,,,,,cyan,cross
115.0,6.0,1.0,1.0,3.0,3.0,416.3716250000107,4.0,1.0,phase_1,,,,,,,,,,,,,gray,hexagon
97.0,2.0,1.0,0.0,4.0,4.0,450.6541959999595,4.0,1.0,phase_1,,,,,,,,,,,,,yellow,diamond
196.0,7.0,2.0,1.0,4.0,4.0,385.3340280002157,4.0,1.0,phase_1,,,,,,,,,,,,,white,flipped triangle
0.0,2.0,0.0,0.0,1.0,1.0,457.4606739997762,4.0,1.0,phase_1,,,,,,,,,,,,,yellow,diamond
414.0,8.0,4.0,1.0,2.0,2.0,383.7378369998987,4.0,1.0,phase_1,,,,,,,,,,,,,orange,circle
58.0,5.0,0.5,1.0,2.0,2.0,403.1725459999506,4.0,1.0,phase_1,,,,,,,,,,,,,blue,triangle
44.0,5.0,0.5,1.0,1.0,1.0,453.4998799999812,4.0,1.0,phase_1,,,,,,,,,,,,,blue,triangle
95.0,6.0,1.0,1.0,4.0,4.0,459.8404200000914,4.0,1.0,phase_1,,,,,,,,,,,,,gray,hexagon
192.0,3.0,2.0,0.0,3.0,3.0,354.1899070000909,4.0,1.0,phase_1,,,,,,,,,,,,,green,square
0.0,2.0,0.0,0.0,4.0,4.0,396.9676690003325,4.0,1.0,phase_1,,,,,,,,,,,,,yellow,diamond
32.0,5.0,0.5,1.0,2.0,2.0,363.2467399997949,4.0,1.0,phase_1,,,,,,,,,,,,,blue,triangle
65.0,5.0,0.5,1.0,3.0,3.0,380.435271999886,4.0,1.0,phase_1,,,,,,,,,,,,,blue,triangle
0.0,4.0,0.0,0.0,1.0,1.0,428.014985000118,4.0,1.0,phase_1,,,,,,,,,,,,,magenta,I
188.0,7.0,2.0,1.0,2.0,2.0,370.6262630003039,4.0,1.0,phase_1,,,,,,,,,,,,,white,flipped triangle
42.0,1.0,0.5,0.0,1.0,1.0,595.3724099999818,4.0,1.0,phase_1,,,,,,,,,,,,,cyan,cross
180.0,3.0,2.0,0.0,4.0,4.0,566.9619860000239,4.0,1.0,phase_1,,,,,,,,,,,,,green,square
29.0,1.0,0.5,0.0,2.0,2.0,437.4415889997181,4.0,1.0,phase_1,,,,,,,,,,,,,cyan,cross
415.0,4.0,4.0,0.0,2.0,2.0,457.5575509998089,4.0,1.0,phase_1,,,,,,,,,,,,,magenta,I
196.0,3.0,2.0,0.0,4.0,4.0,399.3609849999302,4.0,1.0,phase_1,,,,,,,,,,,,,green,square
0.0,3.0,0.0,0.0,2.0,2.0,452.6984100002664,4.0,1.0,phase_1,,,,,,,,,,,,,green,square
386.0,4.0,4.0,0.0,4.0,4.0,961.176807999891,4.0,1.0,phase_1,,,,,,,,,,,,,magenta,I
44.0,1.0,0.5,0.0,1.0,1.0,449.1390630000751,4.0,1.0,phase_1,,,,,,,,,,,,,cyan,cross
193.0,3.0,2.0,0.0,1.0,1.0,341.9593249996069,4.0,1.0,phase_1,,,,,,,,,,,,,green,square
0.0,6.0,0.0,1.0,3.0,3.0,454.3626200002109,4.0,1.0,phase_1,,,,,,,,,,,,,gray,hexagon
422.0,4.0,4.0,0.0,4.0,4.0,495.2197640000122,4.0,1.0,phase_1,,,,,,,,,,,,,magenta,I
379.0,8.0,4.0,1.0,2.0,2.0,387.8498630001559,4.0,1.0,phase_1,,,,,,,,,,,,,orange,circle
0.0,7.0,2.0,1.0,5.0,5.0,293.5539119998793,1.0,1.0,phase_2,go,250.0,250.0,1.0,,,,,,,,,white,flipped triangle
0.0,5.0,0.5,1.0,5.0,0.0,0.0,1.0,1.0,phase_2,stop,250.0,250.0,4.0,,,,,,,,,blue,triangle
0.0,4.0,4.0,0.0,6.0,6.0,470.3114389999427,1.0,1.0,phase_2,go,300.0,250.0,1.0,,,,,,,,,magenta,I
0.0,2.0,1.0,0.0,6.0,6.0,353.2362770001782,1.0,1.0,phase_2,go,300.0,250.0,1.0,,,,,,,,,yellow,diamond
0.0,1.0,0.5,0.0,5.0,5.0,539.369484999952,1.0,1.0,phase_2,go,300.0,250.0,1.0,,,,,,,,,cyan,cross
0.0,8.0,4.0,1.0,5.0,5.0,417.8030269999908,1.0,1.0,phase_2,stop,300.0,250.0,3.0,,,,,,,,,orange,circle
0.0,4.0,4.0,0.0,5.0,5.0,509.1715869998552,1.0,1.0,phase_2,go,250.0,250.0,1.0,,,,,,,,,magenta,I
0.0,4.0,4.0,0.0,5.0,5.0,455.4850519998581,1.0,1.0,phase_2,go,250.0,250.0,1.0,,,,,,,,,magenta,I
0.0,1.0,0.5,0.0,5.0,5.0,557.6261719998001,1.0,1.0,phase_2,go,250.0,250.0,1.0,,,,,,,,,cyan,cross
0.0,7.0,2.0,1.0,5.0,0.0,0.0,1.0,1.0,phase_2,stop,250.0,250.0,4.0,,,,,,,,,white,flipped triangle
0.0,4.0,4.0,0.0,6.0,6.0,360.9505429999444,1.0,1.0,phase_2,go,300.0,250.0,1.0,,,,,,,,,magenta,I
0.0,5.0,0.5,1.0,5.0,5.0,460.5392579996987,1.0,1.0,phase_2,stop,300.0,250.0,3.0,,,,,,,,,blue,triangle
0.0,6.0,1.0,1.0,6.0,0.0,0.0,1.0,1.0,phase_2,stop,250.0,250.0,4.0,,,,,,,,,gray,hexagon
0.0,7.0,2.0,1.0,6.0,0.0,0.0,1.0,1.0,phase_2,stop,250.0,300.0,4.0,,,,,,,,,white,flipped triangle
0.0,3.0,2.0,0.0,5.0,5.0,645.9975990001112,1.0,1.0,phase_2,go,250.0,350.0,1.0,,,,,,,,,green,square
0.0,3.0,2.0,0.0,5.0,5.0,800.8265690000371,1.0,1.0,phase_2,go,250.0,350.0,1.0,,,,,,,,,green,square
0.0,5.0,0.5,1.0,6.0,6.0,428.4079210001437,1.0,1.0,phase_2,go,250.0,350.0,1.0,,,,,,,,,blue,triangle
0.0,7.0,2.0,1.0,6.0,6.0,461.0235939999256,1.0,1.0,phase_2,stop,250.0,350.0,3.0,,,,,,,,,white,flipped triangle
0.0,6.0,1.0,1.0,5.0,5.0,452.1633510003084,1.0,1.0,phase_2,go,250.0,300.0,1.0,,,,,,,,,gray,hexagon
0.0,2.0,1.0,0.0,5.0,5.0,674.8290999998972,1.0,1.0,phase_2,go,250.0,300.0,1.0,,,,,,,,,yellow,diamond
0.0,5.0,0.5,1.0,6.0,6.0,768.5324170001877,1.0,1.0,phase_2,go,250.0,300.0,1.0,,,,,,,,,blue,triangle
0.0,5.0,0.5,1.0,6.0,6.0,531.4306830000532,1.0,1.0,phase_2,go,250.0,300.0,1.0,,,,,,,,,blue,triangle
0.0,1.0,0.5,0.0,5.0,5.0,564.8322910001298,1.0,1.0,phase_2,go,250.0,300.0,1.0,,,,,,,,,cyan,cross
0.0,3.0,2.0,0.0,6.0,6.0,650.9965990003366,1.0,1.0,phase_2,go,250.0,300.0,1.0,,,,,,,,,green,square
0.0,3.0,2.0,0.0,5.0,5.0,364.889459999631,1.0,1.0,phase_2,go,250.0,300.0,1.0,,,,,,,,,green,square
0.0,4.0,4.0,0.0,5.0,5.0,325.846602999718,1.0,1.0,phase_2,go,250.0,300.0,1.0,,,,,,,,,magenta,I
0.0,4.0,4.0,0.0,6.0,6.0,375.1082199996745,1.0,1.0,phase_2,go,250.0,300.0,1.0,,,,,,,,,magenta,I
0.0,5.0,0.5,1.0,5.0,5.0,360.60023500022,1.0,1.0,phase_2,stop,250.0,300.0,3.0,,,,,,,,,blue,triangle
0.0,7.0,2.0,1.0,6.0,0.0,0.0,1.0,1.0,phase_2,stop,200.0,300.0,4.0,,,,,,,,,white,flipped triangle
0.0,4.0,4.0,0.0,6.0,6.0,531.523216000096,1.0,1.0,phase_2,go,200.0,350.0,1.0,,,,,,,,,magenta,I
0.0,1.0,0.5,0.0,5.0,5.0,347.5478169998496,1.0,1.0,phase_2,go,200.0,350.0,1.0,,,,,,,,,cyan,cross
0.0,2.0,1.0,0.0,5.0,5.0,333.3039740000458,1.0,1.0,phase_2,go,200.0,350.0,1.0,,,,,,,,,yellow,diamond
0.0,4.0,4.0,0.0,5.0,5.0,503.2311039999513,1.0,1.0,phase_2,go,200.0,350.0,1.0,,,,,,,,,magenta,I
0.0,6.0,1.0,1.0,6.0,0.0,0.0,1.0,1.0,phase_2,stop,200.0,350.0,4.0,,,,,,,,,gray,hexagon
0.0,5.0,0.5,1.0,5.0,0.0,0.0,1.0,1.0,phase_2,stop,200.0,400.0,4.0,,,,,,,,,blue,triangle
0.0,2.0,1.0,0.0,6.0,6.0,598.7337219999063,1.0,1.0,phase_2,go,250.0,400.0,1.0,,,,,,,,,yellow,diamond
0.0,5.0,0.5,1.0,5.0,0.0,0.0,2.0,1.0,phase_2,stop,250.0,400.0,4.0,,,,,,,,,blue,triangle
0.0,7.0,2.0,1.0,5.0,0.0,0.0,2.0,1.0,phase_2,stop,300.0,400.0,4.0,,,,,,,,,white,flipped triangle
0.0,8.0,4.0,1.0,5.0,5.0,392.6758669999799,2.0,1.0,phase_2,stop,350.0,400.0,3.0,,,,,,,,,orange,circle
0.0,1.0,0.5,0.0,5.0,5.0,397.8730680000808,2.0,1.0,phase_2,go,300.0,400.0,1.0,,,,,,,,,cyan,cross
0.0,4.0,4.0,0.0,6.0,6.0,382.3145329997715,2.0,1.0,phase_2,go,300.0,400.0,1.0,,,,,,,,,magenta,I
0.0,6.0,1.0,1.0,5.0,5.0,398.148676999881,2.0,1.0,phase_2,stop,300.0,400.0,3.0,,,,,,,,,gray,hexagon
0.0,7.0,2.0,1.0,6.0,6.0,493.3537379997688,2.0,1.0,phase_2,stop,250.0,400.0,3.0,,,,,,,,,white,flipped triangle
0.0,6.0,1.0,1.0,5.0,0.0,0.0,2.0,1.0,phase_2,stop,250.0,350.0,4.0,,,,,,,,,gray,hexagon
0.0,1.0,0.5,0.0,5.0,5.0,687.6433999996152,2.0,1.0,phase_2,go,300.0,350.0,1.0,,,,,,,,,cyan,cross
0.0,3.0,2.0,0.0,5.0,5.0,722.6444530001572,2.0,1.0,phase_2,go,300.0,350.0,1.0,,,,,,,,,green,square
0.0,5.0,0.5,1.0,5.0,5.0,278.4100769999895,2.0,1.0,phase_2,stop,300.0,350.0,3.0,,,,,,,,,blue,triangle
0.0,5.0,0.5,1.0,6.0,6.0,506.57427399983135,2.0,1.0,phase_2,stop,250.0,350.0,3.0,,,,,,,,,blue,triangle
0.0,3.0,2.0,0.0,6.0,6.0,651.6358710000532,2.0,1.0,phase_2,go,250.0,300.0,1.0,,,,,,,,,green,square
0.0,2.0,1.0,0.0,6.0,6.0,327.2007669997947,2.0,1.0,phase_2,go,250.0,300.0,1.0,,,,,,,,,yellow,diamond
0.0,3.0,2.0,0.0,5.0,5.0,457.1875659999023,2.0,1.0,phase_2,go,250.0,300.0,1.0,,,,,,,,,green,square
0.0,1.0,0.5,0.0,5.0,5.0,342.6360349999413,2.0,1.0,phase_2,go,250.0,300.0,1.0,,,,,,,,,cyan,cross
0.0,6.0,1.0,1.0,6.0,6.0,242.3404030000711,2.0,1.0,phase_2,go,250.0,300.0,1.0,,,,,,,,,gray,hexagon
0.0,4.0,4.0,0.0,6.0,6.0,343.8288469997133,2.0,1.0,phase_2,go,250.0,300.0,1.0,,,,,,,,,magenta,I
0.0,3.0,2.0,0.0,6.0,6.0,334.0839919997052,2.0,1.0,phase_2,go,250.0,300.0,1.0,,,,,,,,,green,square
0.0,1.0,0.5,0.0,6.0,6.0,339.4170619999386,2.0,1.0,phase_2,go,250.0,300.0,1.0,,,,,,,,,cyan,cross
0.0,5.0,0.5,1.0,6.0,6.0,360.6279079999694,2.0,1.0,phase_2,go,250.0,300.0,1.0,,,,,,,,,blue,triangle
0.0,7.0,2.0,1.0,6.0,6.0,372.729819000142,2.0,1.0,phase_2,stop,250.0,300.0,3.0,,,,,,,,,white,flipped triangle
0.0,7.0,2.0,1.0,5.0,5.0,310.8091140002216,2.0,1.0,phase_2,stop,250.0,250.0,3.0,,,,,,,,,white,flipped triangle
0.0,5.0,0.5,1.0,6.0,6.0,319.7409780000271,2.0,1.0,phase_2,go,200.0,250.0,1.0,,,,,,,,,blue,triangle
0.0,8.0,4.0,1.0,5.0,5.0,309.4373399999313,2.0,1.0,phase_2,stop,200.0,250.0,3.0,,,,,,,,,orange,circle
0.0,2.0,1.0,0.0,6.0,6.0,370.2457280000999,2.0,1.0,phase_2,go,150.0,250.0,1.0,,,,,,,,,yellow,diamond
0.0,5.0,0.5,1.0,6.0,6.0,313.2558060001429,2.0,1.0,phase_2,stop,150.0,250.0,3.0,,,,,,,,,blue,triangle
0.0,7.0,2.0,1.0,6.0,6.0,543.5347229999934,2.0,1.0,phase_2,go,150.0,200.0,1.0,,,,,,,,,white,flipped triangle
0.0,3.0,2.0,0.0,6.0,6.0,256.5888859999177,2.0,1.0,phase_2,go,150.0,200.0,1.0,,,,,,,,,green,square
0.0,7.0,2.0,1.0,5.0,5.0,252.22463499994768,2.0,1.0,phase_2,stop,150.0,200.0,3.0,,,,,,,,,white,flipped triangle
0.0,1.0,0.5,0.0,5.0,5.0,372.2575380002126,2.0,1.0,phase_2,go,100.0,200.0,1.0,,,,,,,,,cyan,cross
0.0,4.0,4.0,0.0,6.0,6.0,524.8233160000382,2.0,1.0,phase_2,go,100.0,200.0,1.0,,,,,,,,,magenta,I
0.0,3.0,2.0,0.0,5.0,5.0,264.1721710001548,2.0,1.0,phase_2,go,100.0,200.0,1.0,,,,,,,,,green,square
0.0,5.0,0.5,1.0,5.0,0.0,0.0,2.0,1.0,phase_2,stop,100.0,200.0,4.0,,,,,,,,,blue,triangle
0.0,8.0,4.0,1.0,5.0,5.0,285.5780879999656,2.0,1.0,phase_2,stop,150.0,200.0,3.0,,,,,,,,,orange,circle
0.0,7.0,2.0,1.0,5.0,5.0,319.4073380000191,2.0,1.0,phase_2,go,100.0,200.0,1.0,,,,,,,,,white,flipped triangle
0.0,2.0,1.0,0.0,5.0,5.0,564.654526999675,3.0,1.0,phase_2,go,100.0,200.0,1.0,,,,,,,,,yellow,diamond
0.0,1.0,0.5,0.0,6.0,6.0,309.2627239998364,3.0,1.0,phase_2,go,100.0,200.0,1.0,,,,,,,,,cyan,cross
0.0,3.0,2.0,0.0,5.0,5.0,305.1070680003249,3.0,1.0,phase_2,go,100.0,200.0,1.0,,,,,,,,,green,square
0.0,8.0,4.0,1.0,5.0,0.0,0.0,3.0,1.0,phase_2,stop,100.0,200.0,4.0,,,,,,,,,orange,circle
0.0,5.0,0.5,1.0,5.0,0.0,0.0,3.0,1.0,phase_2,stop,150.0,200.0,4.0,,,,,,,,,blue,triangle
0.0,4.0,4.0,0.0,6.0,6.0,354.7320410002612,3.0,1.0,phase_2,go,200.0,200.0,1.0,,,,,,,,,magenta,I
0.0,8.0,4.0,1.0,6.0,6.0,293.6712840000837,3.0,1.0,phase_2,stop,200.0,200.0,3.0,,,,,,,,,orange,circle
0.0,4.0,4.0,0.0,6.0,6.0,541.012733000116,3.0,1.0,phase_2,go,200.0,150.0,1.0,,,,,,,,,magenta,I
0.0,8.0,4.0,1.0,6.0,6.0,329.0072849999887,3.0,1.0,phase_2,go,200.0,150.0,1.0,,,,,,,,,orange,circle
0.0,7.0,2.0,1.0,5.0,0.0,0.0,3.0,1.0,phase_2,stop,200.0,150.0,4.0,,,,,,,,,white,flipped triangle
0.0,5.0,0.5,1.0,6.0,0.0,0.0,3.0,1.0,phase_2,stop,250.0,150.0,4.0,,,,,,,,,blue,triangle
0.0,4.0,4.0,0.0,5.0,5.0,506.6986009996981,3.0,1.0,phase_2,go,250.0,200.0,1.0,,,,,,,,,magenta,I
0.0,6.0,1.0,1.0,5.0,5.0,353.8868450000336,3.0,1.0,phase_2,stop,250.0,200.0,3.0,,,,,,,,,gray,hexagon
0.0,8.0,4.0,1.0,6.0,0.0,0.0,3.0,1.0,phase_2,stop,200.0,200.0,4.0,,,,,,,,,orange,circle
0.0,7.0,2.0,1.0,6.0,0.0,0.0,3.0,1.0,phase_2,stop,200.0,250.0,4.0,,,,,,,,,white,flipped triangle
0.0,4.0,4.0,0.0,5.0,5.0,281.2163540002075,3.0,1.0,phase_2,go,200.0,300.0,1.0,,,,,,,,,magenta,I
0.0,7.0,2.0,1.0,6.0,6.0,370.2278830000978,3.0,1.0,phase_2,stop,200.0,300.0,3.0,,,,,,,,,white,flipped triangle
0.0,2.0,1.0,0.0,6.0,6.0,386.9964929999696,3.0,1.0,phase_2,go,200.0,250.0,1.0,,,,,,,,,yellow,diamond
0.0,4.0,4.0,0.0,5.0,5.0,508.7680460001138,3.0,1.0,phase_2,go,200.0,250.0,1.0,,,,,,,,,magenta,I
0.0,1.0,0.5,0.0,6.0,6.0,347.7963009995619,3.0,1.0,phase_2,go,200.0,250.0,1.0,,,,,,,,,cyan,cross
0.0,2.0,1.0,0.0,5.0,5.0,313.1896089998918,3.0,1.0,phase_2,go,200.0,250.0,1.0,,,,,,,,,yellow,diamond
0.0,3.0,2.0,0.0,6.0,6.0,392.718337000133,3.0,1.0,phase_2,go,200.0,250.0,1.0,,,,,,,,,green,square
0.0,8.0,4.0,1.0,6.0,6.0,398.4889840003234,3.0,1.0,phase_2,stop,200.0,250.0,3.0,,,,,,,,,orange,circle
0.0,8.0,4.0,1.0,5.0,0.0,0.0,3.0,1.0,phase_2,stop,200.0,200.0,4.0,,,,,,,,,orange,circle
0.0,1.0,0.5,0.0,5.0,5.0,607.8438939998705,3.0,1.0,phase_2,go,250.0,200.0,1.0,,,,,,,,,cyan,cross
0.0,8.0,4.0,1.0,6.0,0.0,0.0,3.0,1.0,phase_2,stop,250.0,200.0,4.0,,,,,,,,,orange,circle
0.0,4.0,4.0,0.0,6.0,6.0,540.5028089999178,3.0,1.0,phase_2,go,250.0,250.0,1.0,,,,,,,,,magenta,I
0.0,4.0,4.0,0.0,6.0,6.0,538.3381330002521,3.0,1.0,phase_2,go,250.0,250.0,1.0,,,,,,,,,magenta,I
0.0,2.0,1.0,0.0,6.0,6.0,435.0711379997847,3.0,1.0,phase_2,go,250.0,250.0,1.0,,,,,,,,,yellow,diamond
0.0,6.0,1.0,1.0,6.0,6.0,358.8021290001961,3.0,1.0,phase_2,go,250.0,250.0,1.0,,,,,,,,,gray,hexagon
0.0,1.0,0.5,0.0,6.0,6.0,362.2895830003472,3.0,1.0,phase_2,go,250.0,250.0,1.0,,,,,,,,,cyan,cross
0.0,5.0,0.5,1.0,5.0,5.0,560.7558130000143,3.0,1.0,phase_2,go,250.0,250.0,1.0,,,,,,,,,blue,triangle
0.0,1.0,0.5,0.0,5.0,5.0,362.0517610002025,3.0,1.0,phase_2,go,250.0,250.0,1.0,,,,,,,,,cyan,cross
0.0,2.0,1.0,0.0,5.0,5.0,488.6097140001766,3.0,1.0,phase_2,go,250.0,250.0,1.0,,,,,,,,,yellow,diamond
0.0,8.0,4.0,1.0,6.0,6.0,392.4832289999358,3.0,1.0,phase_2,stop,250.0,250.0,3.0,,,,,,,,,orange,circle
0.0,1.0,0.5,0.0,6.0,6.0,596.7019609997806,3.0,1.0,phase_2,go,250.0,200.0,1.0,,,,,,,,,cyan,cross
0.0,2.0,1.0,0.0,5.0,5.0,567.0843219995731,4.0,1.0,phase_2,go,250.0,200.0,1.0,,,,,,,,,yellow,diamond
0.0,8.0,4.0,1.0,6.0,6.0,329.923054000119,4.0,1.0,phase_2,stop,250.0,200.0,3.0,,,,,,,,,orange,circle
0.0,2.0,1.0,0.0,5.0,5.0,338.8216960001955,4.0,1.0,phase_2,go,250.0,150.0,1.0,,,,,,,,,yellow,diamond
0.0,1.0,0.5,0.0,5.0,5.0,462.6888660000077,4.0,1.0,phase_2,go,250.0,150.0,1.0,,,,,,,,,cyan,cross
0.0,2.0,1.0,0.0,5.0,5.0,519.3293190000077,4.0,1.0,phase_2,go,250.0,150.0,1.0,,,,,,,,,yellow,diamond
0.0,6.0,1.0,1.0,6.0,0.0,0.0,4.0,1.0,phase_2,stop,250.0,150.0,4.0,,,,,,,,,gray,hexagon
0.0,5.0,0.5,1.0,5.0,5.0,308.845590999681,4.0,1.0,phase_2,go,250.0,200.0,1.0,,,,,,,,,blue,triangle
0.0,7.0,2.0,1.0,6.0,6.0,295.8262880001712,4.0,1.0,phase_2,stop,250.0,200.0,3.0,,,,,,,,,white,flipped triangle
0.0,1.0,0.5,0.0,6.0,6.0,508.55408200004604,4.0,1.0,phase_2,go,250.0,150.0,1.0,,,,,,,,,cyan,cross
0.0,8.0,4.0,1.0,5.0,5.0,309.7333740001886,4.0,1.0,phase_2,stop,250.0,150.0,3.0,,,,,,,,,orange,circle
0.0,8.0,4.0,1.0,6.0,0.0,0.0,4.0,1.0,phase_2,stop,200.0,150.0,4.0,,,,,,,,,orange,circle
0.0,4.0,4.0,0.0,6.0,6.0,391.2685619998228,4.0,1.0,phase_2,go,200.0,200.0,1.0,,,,,,,,,magenta,I
0.0,2.0,1.0,0.0,6.0,6.0,313.2306980000976,4.0,1.0,phase_2,go,200.0,200.0,1.0,,,,,,,,,yellow,diamond
0.0,7.0,2.0,1.0,5.0,0.0,0.0,4.0,1.0,phase_2,stop,200.0,200.0,4.0,,,,,,,,,white,flipped triangle
0.0,3.0,2.0,0.0,6.0,6.0,532.0025060000262,4.0,1.0,phase_2,go,250.0,200.0,1.0,,,,,,,,,green,square
0.0,1.0,0.5,0.0,6.0,6.0,556.0042799997973,4.0,1.0,phase_2,go,250.0,200.0,1.0,,,,,,,,,cyan,cross
0.0,6.0,1.0,1.0,5.0,5.0,356.4969300000484,4.0,1.0,phase_2,stop,250.0,200.0,3.0,,,,,,,,,gray,hexagon
0.0,4.0,4.0,0.0,5.0,5.0,653.2863700003873,4.0,1.0,phase_2,go,200.0,200.0,1.0,,,,,,,,,magenta,I
0.0,7.0,2.0,1.0,6.0,6.0,556.8013719998817,4.0,1.0,phase_2,go,200.0,200.0,1.0,,,,,,,,,white,flipped triangle
0.0,2.0,1.0,0.0,6.0,6.0,306.410711999888,4.0,1.0,phase_2,go,200.0,200.0,1.0,,,,,,,,,yellow,diamond
0.0,4.0,4.0,0.0,6.0,6.0,283.8173929999357,4.0,1.0,phase_2,go,200.0,200.0,1.0,,,,,,,,,magenta,I
0.0,5.0,0.5,1.0,5.0,5.0,317.4418749999859,4.0,1.0,phase_2,stop,200.0,200.0,3.0,,,,,,,,,blue,triangle
0.0,6.0,1.0,1.0,6.0,6.0,409.6278179999899,4.0,1.0,phase_2,go,150.0,200.0,1.0,,,,,,,,,gray,hexagon
0.0,5.0,0.5,1.0,6.0,6.0,287.6963560001968,4.0,1.0,phase_2,stop,150.0,200.0,3.0,,,,,,,,,blue,triangle
0.0,3.0,2.0,0.0,5.0,5.0,350.726049000059,4.0,1.0,phase_2,go,150.0,150.0,1.0,,,,,,,,,green,square
0.0,3.0,2.0,0.0,6.0,6.0,384.1109949999008,4.0,1.0,phase_2,go,150.0,150.0,1.0,,,,,,,,,green,square
0.0,6.0,1.0,1.0,6.0,6.0,308.8661410001805,4.0,1.0,phase_2,stop,150.0,150.0,3.0,,,,,,,,,gray,hexagon
0.0,6.0,1.0,1.0,6.0,6.0,465.1800500000718,4.0,1.0,phase_2,go,150.0,100.0,1.0,,,,,,,,,gray,hexagon
0.0,1.0,0.5,0.0,6.0,6.0,292.779763999988,4.0,1.0,phase_2,go,150.0,100.0,1.0,,,,,,,,,cyan,cross
0.0,6.0,1.0,1.0,6.0,0.0,0.0,4.0,1.0,phase_2,stop,150.0,100.0,4.0,,,,,,,,,gray,hexagon
0.0,3.0,2.0,0.0,5.0,5.0,487.3400040000888,4.0,1.0,phase_2,go,150.0,150.0,1.0,,,,,,,,,green,square
0.0,7.0,2.0,1.0,6.0,6.0,288.1579429999874,4.0,1.0,phase_2,stop,150.0,150.0,3.0,,,,,,,,,white,flipped triangle
0.0,1.0,0.5,0.0,5.0,5.0,393.0477220001194,4.0,1.0,phase_2,go,150.0,100.0,1.0,,,,,,,,,cyan,cross
0.0,2.0,1.0,0.0,6.0,6.0,292.9466199998387,4.0,1.0,phase_2,go,150.0,100.0,1.0,,,,,,,,,yellow,diamond
0.0,4.0,4.0,0.0,5.0,5.0,501.9576499998948,4.0,1.0,phase_2,go,150.0,100.0,1.0,,,,,,,,,magenta,I
0.0,7.0,2.0,1.0,5.0,0.0,0.0,4.0,1.0,phase_2,stop,150.0,100.0,4.0,,,,,,,,,white,flipped triangle
0.0,4.0,4.0,0.0,5.0,5.0,462.6567580003211,5.0,1.0,phase_2,go,200.0,100.0,1.0,,,,,,,,,magenta,I
0.0,2.0,1.0,0.0,5.0,5.0,389.0372340001704,5.0,1.0,phase_2,go,200.0,100.0,1.0,,,,,,,,,yellow,diamond
0.0,8.0,4.0,1.0,6.0,0.0,0.0,5.0,1.0,phase_2,stop,200.0,100.0,4.0,,,,,,,,,orange,circle
0.0,1.0,0.5,0.0,6.0,6.0,341.101613000319,5.0,1.0,phase_2,go,200.0,150.0,1.0,,,,,,,,,cyan,cross
0.0,6.0,1.0,1.0,5.0,5.0,288.4839389998888,5.0,1.0,phase_2,stop,200.0,150.0,3.0,,,,,,,,,gray,hexagon
0.0,8.0,4.0,1.0,5.0,0.0,0.0,5.0,1.0,phase_2,stop,150.0,150.0,4.0,,,,,,,,,orange,circle
0.0,8.0,4.0,1.0,5.0,5.0,427.2116060001281,5.0,1.0,phase_2,go,200.0,150.0,1.0,,,,,,,,,orange,circle
0.0,3.0,2.0,0.0,6.0,6.0,272.4561560003167,5.0,1.0,phase_2,go,200.0,150.0,1.0,,,,,,,,,green,square
0.0,2.0,1.0,0.0,6.0,6.0,286.1070049998488,5.0,1.0,phase_2,go,200.0,150.0,1.0,,,,,,,,,yellow,diamond
0.0,4.0,4.0,0.0,5.0,5.0,275.6321639999441,5.0,1.0,phase_2,go,200.0,150.0,1.0,,,,,,,,,magenta,I
0.0,1.0,0.5,0.0,6.0,6.0,278.5730919999878,5.0,1.0,phase_2,go,200.0,150.0,1.0,,,,,,,,,cyan,cross
0.0,4.0,4.0,0.0,5.0,5.0,242.9145309997693,5.0,1.0,phase_2,go,200.0,150.0,1.0,,,,,,,,,magenta,I
0.0,4.0,4.0,0.0,6.0,6.0,270.2347489998828,5.0,1.0,phase_2,go,200.0,150.0,1.0,,,,,,,,,magenta,I
0.0,6.0,1.0,1.0,6.0,6.0,255.6851620001907,5.0,1.0,phase_2,stop,200.0,150.0,3.0,,,,,,,,,gray,hexagon
0.0,6.0,1.0,1.0,5.0,5.0,386.5837160001319,5.0,1.0,phase_2,go,200.0,100.0,1.0,,,,,,,,,gray,hexagon
0.0,7.0,2.0,1.0,5.0,0.0,0.0,5.0,1.0,phase_2,stop,200.0,100.0,4.0,,,,,,,,,white,flipped triangle
0.0,8.0,4.0,1.0,5.0,0.0,0.0,5.0,1.0,phase_2,stop,250.0,100.0,4.0,,,,,,,,,orange,circle
0.0,3.0,2.0,0.0,6.0,6.0,418.0068030000257,5.0,1.0,phase_2,go,300.0,100.0,1.0,,,,,,,,,green,square
0.0,7.0,2.0,1.0,5.0,5.0,342.6109410002027,5.0,1.0,phase_2,stop,300.0,100.0,3.0,,,,,,,,,white,flipped triangle
0.0,3.0,2.0,0.0,6.0,6.0,259.9171659999229,5.0,1.0,phase_2,go,250.0,100.0,1.0,,,,,,,,,green,square
0.0,3.0,2.0,0.0,5.0,5.0,330.3161659996476,5.0,1.0,phase_2,go,250.0,100.0,1.0,,,,,,,,,green,square
0.0,5.0,0.5,1.0,5.0,5.0,291.0870949999662,5.0,1.0,phase_2,stop,250.0,100.0,3.0,,,,,,,,,blue,triangle
0.0,2.0,1.0,0.0,5.0,5.0,333.3547849997558,5.0,1.0,phase_2,go,200.0,100.0,1.0,,,,,,,,,yellow,diamond
0.0,3.0,2.0,0.0,5.0,5.0,328.6957800000891,5.0,1.0,phase_2,go,200.0,100.0,1.0,,,,,,,,,green,square
0.0,6.0,1.0,1.0,5.0,0.0,0.0,5.0,1.0,phase_2,stop,200.0,100.0,4.0,,,,,,,,,gray,hexagon
0.0,3.0,2.0,0.0,6.0,6.0,393.3986219999497,5.0,1.0,phase_2,go,250.0,100.0,1.0,,,,,,,,,green,square
0.0,7.0,2.0,1.0,6.0,0.0,0.0,5.0,1.0,phase_2,stop,250.0,100.0,4.0,,,,,,,,,white,flipped triangle
0.0,8.0,4.0,1.0,5.0,0.0,0.0,5.0,1.0,phase_2,stop,250.0,150.0,4.0,,,,,,,,,orange,circle
0.0,1.0,0.5,0.0,6.0,6.0,330.6406480000987,5.0,1.0,phase_2,go,300.0,150.0,1.0,,,,,,,,,cyan,cross
0.0,8.0,4.0,1.0,6.0,6.0,529.7249949999241,5.0,1.0,phase_2,go,300.0,150.0,1.0,,,,,,,,,orange,circle
0.0,8.0,4.0,1.0,5.0,5.0,438.9129979999779,5.0,1.0,phase_2,go,300.0,150.0,1.0,,,,,,,,,orange,circle
0.0,2.0,1.0,0.0,5.0,5.0,334.050851000029,5.0,1.0,phase_2,go,300.0,150.0,1.0,,,,,,,,,yellow,diamond
0.0,5.0,0.5,1.0,6.0,0.0,0.0,5.0,1.0,phase_2,stop,300.0,150.0,4.0,,,,,,,,,blue,triangle
0.0,1.0,0.5,0.0,6.0,6.0,610.4315719999249,5.0,1.0,phase_2,go,300.0,200.0,1.0,,,,,,,,,cyan,cross
0.0,6.0,1.0,1.0,5.0,0.0,0.0,5.0,1.0,phase_2,stop,300.0,200.0,4.0,,,,,,,,,gray,hexagon
0.0,6.0,1.0,1.0,5.0,0.0,0.0,5.0,1.0,phase_2,stop,350.0,200.0,4.0,,,,,,,,,gray,hexagon
0.0,3.0,2.0,0.0,5.0,5.0,510.75386499996966,6.0,1.0,phase_2,go,400.0,200.0,1.0,,,,,,,,,green,square
0.0,8.0,4.0,1.0,5.0,0.0,0.0,6.0,1.0,phase_2,stop,400.0,200.0,4.0,,,,,,,,,orange,circle
0.0,8.0,4.0,1.0,6.0,0.0,0.0,6.0,1.0,phase_2,stop,450.0,200.0,4.0,,,,,,,,,orange,circle
0.0,8.0,4.0,1.0,6.0,0.0,0.0,6.0,1.0,phase_2,stop,450.0,250.0,4.0,,,,,,,,,orange,circle
0.0,4.0,4.0,0.0,6.0,6.0,664.6577900000921,6.0,1.0,phase_2,go,450.0,300.0,1.0,,,,,,,,,magenta,I
0.0,4.0,4.0,0.0,5.0,5.0,557.4885229998472,6.0,1.0,phase_2,go,450.0,300.0,1.0,,,,,,,,,magenta,I
0.0,7.0,2.0,1.0,5.0,0.0,0.0,6.0,1.0,phase_2,stop,450.0,300.0,4.0,,,,,,,,,white,flipped triangle
0.0,2.0,1.0,0.0,6.0,6.0,605.6017560003966,6.0,1.0,phase_2,go,500.0,300.0,1.0,,,,,,,,,yellow,diamond
0.0,5.0,0.5,1.0,5.0,5.0,537.1792519999872,6.0,1.0,phase_2,stop,500.0,300.0,3.0,,,,,,,,,blue,triangle
0.0,3.0,2.0,0.0,6.0,6.0,688.0951020002612,6.0,1.0,phase_2,go,450.0,300.0,1.0,,,,,,,,,green,square
0.0,3.0,2.0,0.0,6.0,6.0,705.5796889999328,6.0,1.0,phase_2,go,450.0,300.0,1.0,,,,,,,,,green,square
0.0,2.0,1.0,0.0,6.0,6.0,541.3344280004821,6.0,1.0,phase_2,go,450.0,300.0,1.0,,,,,,,,,yellow,diamond
0.0,6.0,1.0,1.0,5.0,0.0,0.0,6.0,1.0,phase_2,stop,450.0,300.0,4.0,,,,,,,,,gray,hexagon
0.0,3.0,2.0,0.0,5.0,5.0,977.302057000088,6.0,1.0,phase_2,go,500.0,300.0,1.0,,,,,,,,,green,square
0.0,8.0,4.0,1.0,6.0,6.0,600.0637279994407,6.0,1.0,phase_2,go,500.0,300.0,1.0,,,,,,,,,orange,circle
0.0,3.0,2.0,0.0,6.0,6.0,644.6463889997176,6.0,1.0,phase_2,go,500.0,300.0,1.0,,,,,,,,,green,square
0.0,1.0,0.5,0.0,5.0,5.0,591.7575469993608,6.0,1.0,phase_2,go,500.0,300.0,1.0,,,,,,,,,cyan,cross
0.0,1.0,0.5,0.0,6.0,6.0,694.7847150004236,6.0,1.0,phase_2,go,500.0,300.0,1.0,,,,,,,,,cyan,cross
0.0,6.0,1.0,1.0,5.0,0.0,0.0,6.0,1.0,phase_2,stop,500.0,300.0,4.0,,,,,,,,,gray,hexagon
0.0,7.0,2.0,1.0,6.0,6.0,687.3202269998728,6.0,1.0,phase_2,go,550.0,300.0,1.0,,,,,,,,,white,flipped triangle
0.0,2.0,1.0,0.0,6.0,6.0,445.8352299998296,6.0,1.0,phase_2,go,550.0,300.0,1.0,,,,,,,,,yellow,diamond
0.0,6.0,1.0,1.0,6.0,0.0,0.0,6.0,1.0,phase_2,stop,550.0,300.0,4.0,,,,,,,,,gray,hexagon
0.0,3.0,2.0,0.0,5.0,5.0,648.546733999865,6.0,1.0,phase_2,go,550.0,350.0,1.0,,,,,,,,,green,square
0.0,3.0,2.0,0.0,6.0,6.0,631.4288410003428,6.0,1.0,phase_2,go,550.0,350.0,1.0,,,,,,,,,green,square
0.0,2.0,1.0,0.0,6.0,6.0,566.4560639997944,6.0,1.0,phase_2,go,550.0,350.0,1.0,,,,,,,,,yellow,diamond
0.0,6.0,1.0,1.0,5.0,5.0,636.8380679996335,6.0,1.0,phase_2,stop,550.0,350.0,3.0,,,,,,,,,gray,hexagon
0.0,1.0,0.5,0.0,6.0,6.0,506.75564100038173,6.0,1.0,phase_2,go,500.0,350.0,1.0,,,,,,,,,cyan,cross
0.0,5.0,0.5,1.0,5.0,0.0,0.0,6.0,1.0,phase_2,stop,500.0,350.0,4.0,,,,,,,,,blue,triangle
0.0,7.0,2.0,1.0,6.0,0.0,0.0,6.0,1.0,phase_2,stop,550.0,350.0,4.0,,,,,,,,,white,flipped triangle
0.0,1.0,0.5,0.0,5.0,5.0,688.5201530003542,6.0,1.0,phase_2,go,550.0,400.0,1.0,,,,,,,,,cyan,cross
0.0,4.0,4.0,0.0,6.0,6.0,591.8730459998187,6.0,1.0,phase_2,go,550.0,400.0,1.0,,,,,,,,,magenta,I
0.0,4.0,4.0,0.0,5.0,5.0,589.0114100002393,6.0,1.0,phase_2,go,550.0,400.0,1.0,,,,,,,,,magenta,I
0.0,2.0,1.0,0.0,5.0,5.0,840.5018749999726,6.0,1.0,phase_2,go,550.0,400.0,1.0,,,,,,,,,yellow,diamond
0.0,6.0,1.0,1.0,5.0,0.0,0.0,6.0,1.0,phase_2,stop,550.0,400.0,4.0,,,,,,,,,gray,hexagon
0.0,2.0,1.0,0.0,6.0,6.0,745.3897859995777,6.0,1.0,phase_2,go,600.0,400.0,1.0,,,,,,,,,yellow,diamond
0.0,6.0,1.0,1.0,6.0,0.0,0.0,6.0,1.0,phase_2,stop,600.0,400.0,4.0,,,,,,,,,gray,hexagon
0.0,5.0,0.5,1.0,6.0,0.0,0.0,7.0,1.0,phase_2,stop,600.0,450.0,4.0,,,,,,,,,blue,triangle
0.0,8.0,4.0,1.0,5.0,5.0,593.1999809999979,7.0,1.0,phase_2,stop,600.0,500.0,3.0,,,,,,,,,orange,circle
0.0,8.0,4.0,1.0,6.0,6.0,1021.3490820005973,7.0,1.0,phase_2,go,550.0,500.0,1.0,,,,,,,,,orange,circle
0.0,8.0,4.0,1.0,5.0,0.0,0.0,7.0,1.0,phase_2,stop,550.0,500.0,4.0,,,,,,,,,orange,circle
0.0,5.0,0.5,1.0,5.0,0.0,0.0,7.0,1.0,phase_2,stop,600.0,500.0,4.0,,,,,,,,,blue,triangle
0.0,7.0,2.0,1.0,5.0,5.0,455.1337170005354,7.0,1.0,phase_2,stop,650.0,500.0,3.0,,,,,,,,,white,flipped triangle
0.0,8.0,4.0,1.0,6.0,6.0,681.2108300000546,7.0,1.0,phase_2,go,600.0,500.0,1.0,,,,,,,,,orange,circle
0.0,6.0,1.0,1.0,6.0,6.0,996.5273549996708,7.0,1.0,phase_2,go,600.0,500.0,1.0,,,,,,,,,gray,hexagon
0.0,4.0,4.0,0.0,5.0,5.0,712.2705590008991,7.0,1.0,phase_2,go,600.0,500.0,1.0,,,,,,,,,magenta,I
0.0,6.0,1.0,1.0,5.0,0.0,0.0,7.0,1.0,phase_2,stop,600.0,500.0,4.0,,,,,,,,,gray,hexagon
0.0,5.0,0.5,1.0,6.0,0.0,0.0,7.0,1.0,phase_2,stop,650.0,500.0,4.0,,,,,,,,,blue,triangle
0.0,7.0,2.0,1.0,6.0,0.0,0.0,7.0,1.0,phase_2,stop,650.0,550.0,4.0,,,,,,,,,white,flipped triangle
0.0,5.0,0.5,1.0,6.0,6.0,846.2564850005947,7.0,1.0,phase_2,go,650.0,600.0,1.0,,,,,,,,,blue,triangle
0.0,7.0,2.0,1.0,5.0,5.0,1116.2931259996185,7.0,1.0,phase_2,go,650.0,600.0,1.0,,,,,,,,,white,flipped triangle
0.0,6.0,1.0,1.0,6.0,6.0,902.2422469997764,7.0,1.0,phase_2,go,650.0,600.0,1.0,,,,,,,,,gray,hexagon
0.0,3.0,2.0,0.0,5.0,5.0,767.5949389995367,7.0,1.0,phase_2,go,650.0,600.0,1.0,,,,,,,,,green,square
0.0,4.0,4.0,0.0,5.0,5.0,583.7571970005229,7.0,1.0,phase_2,go,650.0,600.0,1.0,,,,,,,,,magenta,I
0.0,5.0,0.5,1.0,6.0,6.0,422.479602999374,7.0,1.0,phase_2,go,650.0,600.0,1.0,,,,,,,,,blue,triangle
0.0,4.0,4.0,0.0,6.0,6.0,545.4129449999527,7.0,1.0,phase_2,go,650.0,600.0,1.0,,,,,,,,,magenta,I
0.0,1.0,0.5,0.0,6.0,6.0,593.6843110002883,7.0,1.0,phase_2,go,650.0,600.0,1.0,,,,,,,,,cyan,cross
0.0,4.0,4.0,0.0,5.0,5.0,622.0733279997148,7.0,1.0,phase_2,go,650.0,600.0,1.0,,,,,,,,,magenta,I
0.0,7.0,2.0,1.0,5.0,5.0,687.29337700006,7.0,1.0,phase_2,stop,650.0,600.0,3.0,,,,,,,,,white,flipped triangle
0.0,4.0,4.0,0.0,5.0,5.0,644.660947000375,7.0,1.0,phase_2,go,600.0,600.0,1.0,,,,,,,,,magenta,I
0.0,5.0,0.5,1.0,5.0,0.0,0.0,7.0,1.0,phase_2,stop,600.0,600.0,4.0,,,,,,,,,blue,triangle
0.0,8.0,4.0,1.0,6.0,6.0,700.9249470002032,7.0,1.0,phase_2,stop,650.0,600.0,3.0,,,,,,,,,orange,circle
0.0,8.0,4.0,1.0,5.0,0.0,0.0,7.0,1.0,phase_2,stop,650.0,550.0,4.0,,,,,,,,,orange,circle
0.0,1.0,0.5,0.0,5.0,5.0,774.6055119996527,7.0,1.0,phase_2,go,700.0,550.0,1.0,,,,,,,,,cyan,cross
0.0,6.0,1.0,1.0,6.0,0.0,0.0,7.0,1.0,phase_2,stop,700.0,550.0,4.0,,,,,,,,,gray,hexagon
0.0,3.0,2.0,0.0,5.0,5.0,710.4239979998965,7.0,1.0,phase_2,go,700.0,600.0,1.0,,,,,,,,,green,square
0.0,3.0,2.0,0.0,6.0,6.0,846.2928760000068,7.0,1.0,phase_2,go,700.0,600.0,1.0,,,,,,,,,green,square
0.0,3.0,2.0,0.0,5.0,5.0,698.4648679999736,7.0,1.0,phase_2,go,700.0,600.0,1.0,,,,,,,,,green,square
0.0,6.0,1.0,1.0,6.0,0.0,0.0,7.0,1.0,phase_2,stop,700.0,600.0,4.0,,,,,,,,,gray,hexagon
0.0,5.0,0.5,1.0,6.0,0.0,0.0,7.0,1.0,phase_2,stop,700.0,650.0,4.0,,,,,,,,,blue,triangle
0.0,5.0,0.5,1.0,6.0,0.0,0.0,7.0,1.0,phase_2,stop,700.0,700.0,4.0,,,,,,,,,blue,triangle
0.0,1.0,0.5,0.0,6.0,6.0,555.5311039997832,7.0,1.0,phase_2,go,700.0,750.0,1.0,,,,,,,,,cyan,cross
0.0,2.0,1.0,0.0,6.0,6.0,760.9722039996996,7.0,1.0,phase_2,go,700.0,750.0,1.0,,,,,,,,,yellow,diamond
0.0,1.0,0.5,0.0,6.0,6.0,1262.7267710004162,8.0,1.0,phase_2,go,700.0,750.0,1.0,,,,,,,,,cyan,cross
0.0,2.0,1.0,0.0,5.0,5.0,432.6958250003372,8.0,1.0,phase_2,go,700.0,750.0,1.0,,,,,,,,,yellow,diamond
0.0,7.0,2.0,1.0,5.0,0.0,0.0,8.0,1.0,phase_2,stop,700.0,750.0,4.0,,,,,,,,,white,flipped triangle
0.0,3.0,2.0,0.0,6.0,6.0,467.6143249998858,8.0,1.0,phase_2,go,750.0,750.0,1.0,,,,,,,,,green,square
0.0,5.0,0.5,1.0,5.0,5.0,368.445291000171,8.0,1.0,phase_2,stop,750.0,750.0,3.0,,,,,,,,,blue,triangle
0.0,2.0,1.0,0.0,5.0,5.0,502.1062850000817,8.0,1.0,phase_2,go,700.0,750.0,1.0,,,,,,,,,yellow,diamond
0.0,5.0,0.5,1.0,5.0,0.0,0.0,8.0,1.0,phase_2,stop,700.0,750.0,4.0,,,,,,,,,blue,triangle
0.0,6.0,1.0,1.0,6.0,0.0,0.0,8.0,1.0,phase_2,stop,750.0,750.0,4.0,,,,,,,,,gray,hexagon
0.0,1.0,0.5,0.0,5.0,5.0,339.2577639997398,8.0,1.0,phase_2,go,750.0,800.0,1.0,,,,,,,,,cyan,cross
0.0,8.0,4.0,1.0,6.0,6.0,917.6880839995648,8.0,1.0,phase_2,go,750.0,800.0,1.0,,,,,,,,,orange,circle
0.0,2.0,1.0,0.0,6.0,6.0,338.7117289994421,8.0,1.0,phase_2,go,750.0,800.0,1.0,,,,,,,,,yellow,diamond
0.0,5.0,0.5,1.0,6.0,6.0,506.4988809999704,8.0,1.0,phase_2,stop,750.0,800.0,3.0,,,,,,,,,blue,triangle
0.0,3.0,2.0,0.0,6.0,6.0,645.7780800001274,8.0,1.0,phase_2,go,750.0,750.0,1.0,,,,,,,,,green,square
0.0,2.0,1.0,0.0,5.0,5.0,366.1117289993854,8.0,1.0,phase_2,go,750.0,750.0,1.0,,,,,,,,,yellow,diamond
0.0,7.0,2.0,1.0,5.0,5.0,625.7048340003166,8.0,1.0,phase_2,stop,750.0,750.0,3.0,,,,,,,,,white,flipped triangle
0.0,2.0,1.0,0.0,6.0,6.0,464.9039460000495,8.0,1.0,phase_2,go,700.0,750.0,1.0,,,,,,,,,yellow,diamond
0.0,8.0,4.0,1.0,5.0,5.0,434.260966999318,8.0,1.0,phase_2,stop,700.0,750.0,3.0,,,,,,,,,orange,circle
0.0,6.0,1.0,1.0,6.0,6.0,516.4221730001373,8.0,1.0,phase_2,stop,650.0,750.0,3.0,,,,,,,,,gray,hexagon
0.0,2.0,1.0,0.0,5.0,5.0,516.3573540003199,8.0,1.0,phase_2,go,650.0,700.0,1.0,,,,,,,,,yellow,diamond
0.0,8.0,4.0,1.0,5.0,5.0,1352.2365650005668,8.0,1.0,phase_2,go,650.0,700.0,1.0,,,,,,,,,orange,circle
0.0,2.0,1.0,0.0,5.0,5.0,521.1593470003208,8.0,1.0,phase_2,go,650.0,700.0,1.0,,,,,,,,,yellow,diamond
0.0,8.0,4.0,1.0,6.0,6.0,364.6403160000773,8.0,1.0,phase_2,stop,650.0,700.0,3.0,,,,,,,,,orange,circle
0.0,3.0,2.0,0.0,5.0,5.0,278.5314530001415,8.0,1.0,phase_2,go,650.0,650.0,1.0,,,,,,,,,green,square
0.0,1.0,0.5,0.0,5.0,5.0,477.9256379997605,8.0,1.0,phase_2,go,650.0,650.0,1.0,,,,,,,,,cyan,cross
0.0,7.0,2.0,1.0,6.0,6.0,776.2373219993606,8.0,1.0,phase_2,go,650.0,650.0,1.0,,,,,,,,,white,flipped triangle
0.0,1.0,0.5,0.0,6.0,6.0,314.6485909992407,8.0,1.0,phase_2,go,650.0,650.0,1.0,,,,,,,,,cyan,cross
0.0,4.0,4.0,0.0,6.0,6.0,331.7039020002994,8.0,1.0,phase_2,go,650.0,650.0,1.0,,,,,,,,,magenta,I
0.0,6.0,1.0,1.0,5.0,5.0,440.6230949998644,8.0,1.0,phase_2,stop,650.0,650.0,3.0,,,,,,,,,gray,hexagon
0.0,5.0,0.5,1.0,6.0,6.0,553.0799580001258,8.0,1.0,phase_2,stop,600.0,650.0,3.0,,,,,,,,,blue,triangle
0.0,1.0,0.5,0.0,5.0,5.0,496.0169259993563,8.0,1.0,phase_2,go,600.0,600.0,1.0,,,,,,,,,cyan,cross
0.0,2.0,1.0,0.0,5.0,5.0,490.3134520000094,8.0,1.0,phase_2,go,600.0,600.0,1.0,,,,,,,,,yellow,diamond
0.0,7.0,2.0,1.0,6.0,6.0,303.0819180003163,8.0,1.0,phase_2,go,600.0,600.0,1.0,,,,,,,,,white,flipped triangle
0.0,6.0,1.0,1.0,5.0,0.0,0.0,8.0,1.0,phase_2,stop,600.0,600.0,4.0,,,,,,,,,gray,hexagon
0.0,7.0,2.0,1.0,6.0,0.0,0.0,8.0,1.0,phase_2,stop,650.0,600.0,4.0,,,,,,,,,white,flipped triangle
0.0,6.0,1.0,1.0,5.0,5.0,909.2921060000664,8.0,1.0,phase_2,go,650.0,650.0,1.0,,,,,,,,,gray,hexagon
0.0,7.0,2.0,1.0,5.0,6.0,850.8392860003369,8.0,1.0,phase_2,go,650.0,650.0,2.0,,,,,,,,,white,flipped triangle
0.0,5.0,0.5,1.0,7.0,2.0,4331.115621000208,1.0,2.0,phase_3,,,,,147.0,3.0,98.0,147.0,294.0,49.0,245.0,196.0,blue,triangle
0.0,7.0,2.0,1.0,7.0,5.0,1988.784936999764,1.0,1.0,phase_3,,,,,147.0,3.0,294.0,245.0,49.0,196.0,147.0,98.0,white,flipped triangle
0.0,3.0,2.0,0.0,7.0,5.0,2090.5089830002908,1.0,1.0,phase_3,,,,,220.0,5.0,176.0,264.0,88.0,44.0,220.0,132.0,green,square
0.0,3.0,2.0,0.0,7.0,4.0,1346.9863039999836,1.0,1.0,phase_3,,,,,234.0,6.0,78.0,156.0,195.0,234.0,39.0,117.0,green,square
0.0,1.0,0.5,0.0,7.0,1.0,2499.2690950002725,1.0,1.0,phase_3,,,,,204.0,6.0,204.0,102.0,170.0,34.0,68.0,136.0,cyan,cross
0.0,3.0,2.0,0.0,7.0,4.0,1913.805938999758,1.0,1.0,phase_3,,,,,245.0,5.0,147.0,98.0,294.0,245.0,49.0,196.0,green,square
0.0,2.0,1.0,0.0,7.0,1.0,2262.2741080003834,1.0,1.0,phase_3,,,,,234.0,6.0,234.0,39.0,156.0,117.0,195.0,78.0,yellow,diamond
0.0,2.0,1.0,0.0,7.0,1.0,1853.0758779998,1.0,1.0,phase_3,,,,,324.0,6.0,324.0,270.0,108.0,216.0,162.0,54.0,yellow,diamond
0.0,1.0,0.5,0.0,7.0,5.0,2602.783565000209,1.0,1.0,phase_3,,,,,195.0,5.0,78.0,39.0,156.0,117.0,195.0,234.0,cyan,cross
0.0,4.0,4.0,0.0,7.0,2.0,2507.4316700001878,1.0,1.0,phase_3,,,,,270.0,5.0,54.0,270.0,324.0,108.0,216.0,162.0,magenta,I
0.0,8.0,4.0,1.0,7.0,2.0,1660.4513359998236,1.0,1.0,phase_3,,,,,132.0,3.0,44.0,132.0,176.0,264.0,220.0,88.0,orange,circle
0.0,1.0,0.5,0.0,7.0,4.0,1281.1483779996706,1.0,1.0,phase_3,,,,,216.0,4.0,270.0,324.0,54.0,216.0,108.0,162.0,cyan,cross
0.0,4.0,4.0,0.0,7.0,2.0,1652.0310460000474,1.0,1.0,phase_3,,,,,245.0,5.0,196.0,245.0,294.0,49.0,98.0,147.0,magenta,I
0.0,5.0,0.5,1.0,7.0,4.0,1710.865348999505,1.0,1.0,phase_3,,,,,102.0,3.0,34.0,170.0,68.0,102.0,204.0,136.0,blue,triangle
0.0,5.0,0.5,1.0,7.0,6.0,3550.062119999893,1.0,1.0,phase_3,,,,,108.0,2.0,162.0,270.0,324.0,54.0,216.0,108.0,blue,triangle
0.0,2.0,1.0,0.0,7.0,1.0,2395.41893599926,1.0,1.0,phase_3,,,,,294.0,6.0,294.0,98.0,147.0,49.0,245.0,196.0,yellow,diamond
0.0,7.0,2.0,1.0,7.0,3.0,1452.754602000823,1.0,1.0,phase_3,,,,,49.0,1.0,245.0,196.0,49.0,147.0,98.0,294.0,white,flipped triangle
0.0,7.0,2.0,1.0,7.0,6.0,1595.6705629996577,1.0,1.0,phase_3,,,,,54.0,1.0,162.0,108.0,324.0,270.0,216.0,54.0,white,flipped triangle
0.0,5.0,0.5,1.0,7.0,5.0,1849.37286999957,1.0,1.0,phase_3,,,,,88.0,2.0,264.0,176.0,220.0,44.0,88.0,132.0,blue,triangle
0.0,7.0,2.0,1.0,7.0,1.0,2930.7573140004024,1.0,1.0,phase_3,,,,,44.0,1.0,44.0,132.0,220.0,88.0,264.0,176.0,white,flipped triangle
0.0,5.0,0.5,1.0,7.0,3.0,2145.769890000338,2.0,1.0,phase_3,,,,,78.0,2.0,39.0,156.0,78.0,234.0,195.0,117.0,blue,triangle
0.0,5.0,0.5,1.0,7.0,6.0,1892.930695999894,2.0,1.0,phase_3,,,,,54.0,1.0,216.0,162.0,324.0,108.0,270.0,54.0,blue,triangle
0.0,8.0,4.0,1.0,7.0,1.0,2521.92883799944,2.0,1.0,phase_3,,,,,34.0,1.0,34.0,136.0,170.0,68.0,204.0,102.0,orange,circle
0.0,6.0,1.0,1.0,7.0,3.0,1818.0519959996675,2.0,1.0,phase_3,,,,,49.0,1.0,294.0,98.0,49.0,245.0,147.0,196.0,gray,hexagon
0.0,2.0,1.0,0.0,7.0,4.0,2379.9501860003147,2.0,1.0,phase_3,,,,,204.0,6.0,136.0,34.0,102.0,204.0,170.0,68.0,yellow,diamond
0.0,7.0,2.0,1.0,7.0,6.0,1872.185286999411,2.0,1.0,phase_3,,,,,88.0,2.0,220.0,264.0,44.0,132.0,176.0,88.0,white,flipped triangle
0.0,1.0,0.5,0.0,7.0,6.0,2846.982533999835,2.0,1.0,phase_3,,,,,270.0,5.0,54.0,108.0,324.0,162.0,216.0,270.0,cyan,cross
0.0,4.0,4.0,0.0,7.0,4.0,2398.0743829997664,2.0,1.0,phase_3,,,,,204.0,6.0,136.0,170.0,68.0,204.0,34.0,102.0,magenta,I
0.0,1.0,0.5,0.0,7.0,2.0,1292.2476960002314,2.0,1.0,phase_3,,,,,204.0,6.0,102.0,204.0,136.0,34.0,68.0,170.0,cyan,cross
0.0,2.0,1.0,0.0,7.0,4.0,1669.194983000125,2.0,1.0,phase_3,,,,,234.0,6.0,156.0,195.0,78.0,234.0,39.0,117.0,yellow,diamond
0.0,1.0,0.5,0.0,7.0,3.0,1657.8370980005277,2.0,1.0,phase_3,,,,,195.0,5.0,156.0,117.0,195.0,78.0,234.0,39.0,cyan,cross
0.0,3.0,2.0,0.0,7.0,5.0,2273.6218179998104,2.0,1.0,phase_3,,,,,176.0,4.0,220.0,44.0,88.0,132.0,176.0,264.0,green,square
0.0,2.0,1.0,0.0,7.0,4.0,1576.500362999468,2.0,1.0,phase_3,,,,,294.0,6.0,98.0,245.0,49.0,294.0,196.0,147.0,yellow,diamond
0.0,4.0,4.0,0.0,7.0,5.0,1889.880593000271,2.0,1.0,phase_3,,,,,216.0,4.0,54.0,162.0,108.0,270.0,216.0,324.0,magenta,I
0.0,3.0,2.0,0.0,7.0,3.0,2322.417177999341,2.0,1.0,phase_3,,,,,170.0,5.0,204.0,136.0,170.0,34.0,102.0,68.0,green,square
0.0,3.0,2.0,0.0,7.0,6.0,2895.88638800069,2.0,1.0,phase_3,,,,,216.0,4.0,324.0,162.0,108.0,54.0,270.0,216.0,green,square
0.0,4.0,4.0,0.0,7.0,2.0,2482.5384229998235,2.0,1.0,phase_3,,,,,204.0,6.0,68.0,204.0,102.0,170.0,136.0,34.0,magenta,I
0.0,2.0,1.0,0.0,7.0,1.0,2967.730682000365,2.0,1.0,phase_3,,,,,264.0,6.0,264.0,220.0,88.0,132.0,44.0,176.0,yellow,diamond
0.0,8.0,4.0,1.0,7.0,6.0,2381.777448999856,2.0,1.0,phase_3,,,,,54.0,1.0,270.0,324.0,162.0,216.0,108.0,54.0,orange,circle
0.0,4.0,4.0,0.0,7.0,4.0,1307.3852420002368,2.0,1.0,phase_3,,,,,220.0,5.0,132.0,264.0,176.0,220.0,44.0,88.0,magenta,I
0.0,1.0,0.5,0.0,7.0,5.0,2174.891948999175,3.0,1.0,phase_3,,,,,245.0,5.0,98.0,294.0,49.0,147.0,245.0,196.0,cyan,cross
0.0,6.0,1.0,1.0,7.0,3.0,1593.7369980001677,3.0,1.0,phase_3,,,,,54.0,1.0,108.0,216.0,54.0,270.0,324.0,162.0,gray,hexagon
0.0,3.0,2.0,0.0,7.0,6.0,2903.4664180007894,3.0,1.0,phase_3,,,,,270.0,5.0,216.0,324.0,108.0,162.0,54.0,270.0,green,square
0.0,4.0,4.0,0.0,7.0,2.0,1817.0721200003757,3.0,1.0,phase_3,,,,,176.0,4.0,264.0,176.0,132.0,44.0,88.0,220.0,magenta,I
0.0,5.0,0.5,1.0,7.0,3.0,2670.2878520000013,3.0,1.0,phase_3,,,,,98.0,2.0,196.0,147.0,98.0,245.0,49.0,294.0,blue,triangle
0.0,6.0,1.0,1.0,7.0,4.0,1560.8326829997168,3.0,1.0,phase_3,,,,,49.0,1.0,147.0,98.0,294.0,49.0,196.0,245.0,gray,hexagon
0.0,8.0,4.0,1.0,7.0,2.0,2319.224169000336,3.0,1.0,phase_3,,,,,78.0,2.0,39.0,78.0,117.0,234.0,156.0,195.0,orange,circle
0.0,2.0,1.0,0.0,7.0,2.0,3278.254744999685,3.0,1.0,phase_3,,,,,204.0,6.0,102.0,204.0,68.0,136.0,34.0,170.0,yellow,diamond
0.0,5.0,0.5,1.0,7.0,3.0,4576.4807909999945,3.0,1.0,phase_3,,,,,88.0,2.0,44.0,132.0,88.0,264.0,220.0,176.0,blue,triangle
0.0,3.0,2.0,0.0,7.0,1.0,2553.395709999677,3.0,1.0,phase_3,,,,,204.0,6.0,204.0,170.0,136.0,68.0,102.0,34.0,green,square
0.0,7.0,2.0,1.0,7.0,4.0,1398.827699999856,3.0,1.0,phase_3,,,,,34.0,1.0,204.0,136.0,170.0,34.0,102.0,68.0,white,flipped triangle
0.0,7.0,2.0,1.0,7.0,3.0,3114.190977000362,3.0,1.0,phase_3,,,,,39.0,1.0,78.0,117.0,39.0,156.0,195.0,234.0,white,flipped triangle
0.0,8.0,4.0,1.0,7.0,2.0,2165.1983430001565,3.0,1.0,phase_3,,,,,98.0,2.0,196.0,98.0,49.0,294.0,147.0,245.0,orange,circle
0.0,7.0,2.0,1.0,7.0,1.0,2413.588168000388,3.0,1.0,phase_3,,,,,78.0,2.0,78.0,117.0,234.0,195.0,156.0,39.0,white,flipped triangle
0.0,7.0,2.0,1.0,7.0,5.0,2032.586207000349,3.0,1.0,phase_3,,,,,54.0,1.0,216.0,324.0,270.0,162.0,54.0,108.0,white,flipped triangle
0.0,6.0,1.0,1.0,7.0,1.0,1758.41310099986,3.0,1.0,phase_3,,,,,44.0,1.0,44.0,132.0,220.0,264.0,88.0,176.0,gray,hexagon
0.0,5.0,0.5,1.0,7.0,3.0,2194.065114000296,3.0,1.0,phase_3,,,,,68.0,2.0,204.0,102.0,68.0,136.0,34.0,170.0,blue,triangle
0.0,5.0,0.5,1.0,7.0,1.0,1969.399651000458,3.0,1.0,phase_3,,,,,78.0,2.0,78.0,156.0,39.0,117.0,195.0,234.0,blue,triangle
0.0,8.0,4.0,1.0,7.0,6.0,2314.7467110002253,3.0,1.0,phase_3,,,,,54.0,1.0,162.0,324.0,270.0,216.0,108.0,54.0,orange,circle
0.0,6.0,1.0,1.0,7.0,1.0,1179.2516410005192,3.0,1.0,phase_3,,,,,34.0,1.0,34.0,136.0,170.0,204.0,102.0,68.0,gray,hexagon
0.0,1.0,0.5,0.0,7.0,4.0,2594.885769000029,4.0,1.0,phase_3,,,,,176.0,4.0,220.0,132.0,88.0,176.0,44.0,264.0,cyan,cross
0.0,6.0,1.0,1.0,7.0,1.0,1129.3916240001636,4.0,1.0,phase_3,,,,,39.0,1.0,39.0,78.0,195.0,117.0,156.0,234.0,gray,hexagon
0.0,3.0,2.0,0.0,7.0,5.0,2119.593607999377,4.0,1.0,phase_3,,,,,196.0,4.0,49.0,294.0,245.0,147.0,196.0,98.0,green,square
0.0,6.0,1.0,1.0,7.0,6.0,1801.7739999995683,4.0,1.0,phase_3,,,,,44.0,1.0,264.0,132.0,176.0,88.0,220.0,44.0,gray,hexagon
0.0,8.0,4.0,1.0,7.0,2.0,1672.0266110005468,4.0,1.0,phase_3,,,,,78.0,2.0,39.0,78.0,156.0,117.0,195.0,234.0,orange,circle
0.0,2.0,1.0,0.0,7.0,4.0,2444.7535879999123,4.0,1.0,phase_3,,,,,324.0,6.0,54.0,108.0,162.0,324.0,216.0,270.0,yellow,diamond
0.0,6.0,1.0,1.0,7.0,1.0,2512.4151479994907,4.0,1.0,phase_3,,,,,54.0,1.0,54.0,162.0,216.0,324.0,108.0,270.0,gray,hexagon
0.0,2.0,1.0,0.0,7.0,5.0,2126.7423190001864,4.0,1.0,phase_3,,,,,264.0,6.0,88.0,176.0,132.0,220.0,264.0,44.0,yellow,diamond
0.0,6.0,1.0,1.0,7.0,6.0,2185.07727800079,4.0,1.0,phase_3,,,,,34.0,1.0,204.0,170.0,102.0,68.0,136.0,34.0,gray,hexagon
0.0,3.0,2.0,0.0,7.0,3.0,1710.5395250000583,4.0,1.0,phase_3,,,,,195.0,5.0,39.0,117.0,195.0,156.0,234.0,78.0,green,square
0.0,4.0,4.0,0.0,7.0,4.0,1504.889154000011,4.0,1.0,phase_3,,,,,196.0,4.0,245.0,294.0,98.0,196.0,147.0,49.0,magenta,I
0.0,1.0,0.5,0.0,7.0,4.0,2411.2724050000907,4.0,1.0,phase_3,,,,,176.0,4.0,264.0,132.0,88.0,176.0,44.0,220.0,cyan,cross
0.0,6.0,1.0,1.0,7.0,4.0,1734.8611119996349,4.0,1.0,phase_3,,,,,39.0,1.0,195.0,78.0,117.0,39.0,156.0,234.0,gray,hexagon
0.0,8.0,4.0,1.0,7.0,3.0,3129.4280470001468,4.0,1.0,phase_3,,,,,88.0,2.0,44.0,176.0,88.0,132.0,220.0,264.0,orange,circle
0.0,7.0,2.0,1.0,7.0,6.0,2663.2262940001965,4.0,1.0,phase_3,,,,,68.0,2.0,34.0,136.0,170.0,204.0,102.0,68.0,white,flipped triangle
0.0,1.0,0.5,0.0,7.0,6.0,2928.104917999917,4.0,1.0,phase_3,,,,,245.0,5.0,294.0,196.0,147.0,98.0,49.0,245.0,cyan,cross
0.0,8.0,4.0,1.0,7.0,3.0,2302.758382999855,4.0,1.0,phase_3,,,,,49.0,1.0,147.0,98.0,49.0,245.0,294.0,196.0,orange,circle
0.0,8.0,4.0,1.0,7.0,2.0,2194.7287950006285,4.0,1.0,phase_3,,,,,68.0,2.0,136.0,68.0,34.0,204.0,102.0,170.0,orange,circle
0.0,4.0,4.0,0.0,7.0,2.0,1973.209470999791,4.0,1.0,phase_3,,,,,234.0,6.0,117.0,234.0,156.0,78.0,39.0,195.0,magenta,I
0.0,4.0,4.0,0.0,7.0,2.0,1333.7044649997551,4.0,1.0,phase_3,,,,,234.0,6.0,195.0,234.0,78.0,39.0,156.0,117.0,magenta,I
