raw_reward_magnitude,stim_reward,stepwise_reward_magnitude,paired_with_stopping,stim_location,response,reaction_time,block,num_trial_presentations,which_phase,stop_signal_trial_type,left_SSD,right_SSD,accuracy,chosen_bidding_amount,chosen_bidding_level,possible_bid_1,possible_bid_2,possible_bid_3,possible_bid_4,possible_bid_5,possible_bid_6,color_text,shape_text
55.0,1.0,0.5,0.0,2.0,2.0,382.9330010012199,1.0,1.0,phase_1,,,,,,,,,,,,,blue,triangle
420.0,4.0,4.0,0.0,2.0,2.0,389.9631109998154,1.0,1.0,phase_1,,,,,,,,,,,,,orange,diamond
411.0,4.0,4.0,0.0,2.0,2.0,419.15186799997167,1.0,1.0,phase_1,,,,,,,,,,,,,orange,diamond
62.0,5.0,0.5,1.0,1.0,1.0,450.1877380007499,1.0,1.0,phase_1,,,,,,,,,,,,,cyan,circle
209.0,7.0,2.0,1.0,1.0,1.0,363.6041110003134,1.0,1.0,phase_1,,,,,,,,,,,,,yellow,cross
192.0,7.0,2.0,1.0,2.0,2.0,344.172379000156,1.0,1.0,phase_1,,,,,,,,,,,,,yellow,cross
0.0,8.0,0.0,1.0,3.0,3.0,364.3040929982817,1.0,1.0,phase_1,,,,,,,,,,,,,white,flipped triangle
211.0,3.0,2.0,0.0,2.0,2.0,391.6075810011534,1.0,1.0,phase_1,,,,,,,,,,,,,green,square
177.0,3.0,2.0,0.0,3.0,3.0,320.1527209985215,1.0,1.0,phase_1,,,,,,,,,,,,,green,square
403.0,4.0,4.0,0.0,2.0,2.0,527.0501650011283,1.0,1.0,phase_1,,,,,,,,,,,,,orange,diamond
400.0,8.0,4.0,1.0,1.0,1.0,414.2181229999551,1.0,1.0,phase_1,,,,,,,,,,,,,white,flipped triangle
0.0,5.0,0.0,1.0,4.0,4.0,330.3846290000365,1.0,1.0,phase_1,,,,,,,,,,,,,cyan,circle
385.0,4.0,4.0,0.0,4.0,4.0,423.7570300010702,1.0,1.0,phase_1,,,,,,,,,,,,,orange,diamond
189.0,7.0,2.0,1.0,2.0,2.0,302.777495000555,1.0,1.0,phase_1,,,,,,,,,,,,,yellow,cross
378.0,8.0,4.0,1.0,4.0,4.0,347.9195439995237,1.0,1.0,phase_1,,,,,,,,,,,,,white,flipped triangle
34.0,1.0,0.5,0.0,1.0,1.0,343.5601479995966,1.0,1.0,phase_1,,,,,,,,,,,,,blue,triangle
206.0,3.0,2.0,0.0,3.0,3.0,314.9403250008618,1.0,1.0,phase_1,,,,,,,,,,,,,green,square
389.0,8.0,4.0,1.0,3.0,3.0,370.1258149994828,1.0,1.0,phase_1,,,,,,,,,,,,,white,flipped triangle
86.0,2.0,1.0,0.0,2.0,2.0,347.7955469988956,1.0,1.0,phase_1,,,,,,,,,,,,,magenta,hexagon
0.0,8.0,0.0,1.0,4.0,4.0,287.983238000379,1.0,1.0,phase_1,,,,,,,,,,,,,white,flipped triangle
192.0,3.0,2.0,0.0,4.0,4.0,346.3250069999048,1.0,1.0,phase_1,,,,,,,,,,,,,green,square
179.0,3.0,2.0,0.0,1.0,1.0,315.1531080002314,1.0,1.0,phase_1,,,,,,,,,,,,,green,square
76.0,6.0,1.0,1.0,4.0,4.0,437.5959860008152,1.0,1.0,phase_1,,,,,,,,,,,,,gray,I
0.0,3.0,0.0,0.0,2.0,2.0,326.0346320003009,1.0,1.0,phase_1,,,,,,,,,,,,,green,square
178.0,3.0,2.0,0.0,3.0,3.0,251.71979600054328,1.0,1.0,phase_1,,,,,,,,,,,,,green,square
91.0,2.0,1.0,0.0,2.0,2.0,307.9865489999065,1.0,1.0,phase_1,,,,,,,,,,,,,magenta,hexagon
73.0,5.0,0.5,1.0,3.0,3.0,296.2464019983599,1.0,1.0,phase_1,,,,,,,,,,,,,cyan,circle
114.0,2.0,1.0,0.0,3.0,3.0,357.1620660004555,1.0,1.0,phase_1,,,,,,,,,,,,,magenta,hexagon
124.0,2.0,1.0,0.0,3.0,3.0,417.6424970009975,1.0,1.0,phase_1,,,,,,,,,,,,,magenta,hexagon
29.0,1.0,0.5,0.0,1.0,1.0,292.4243329998717,1.0,1.0,phase_1,,,,,,,,,,,,,blue,triangle
221.0,7.0,2.0,1.0,3.0,3.0,374.2164889990818,1.0,1.0,phase_1,,,,,,,,,,,,,yellow,cross
418.0,4.0,4.0,0.0,3.0,3.0,388.5507889990549,1.0,1.0,phase_1,,,,,,,,,,,,,orange,diamond
86.0,2.0,1.0,0.0,3.0,3.0,406.6385379992425,1.0,1.0,phase_1,,,,,,,,,,,,,magenta,hexagon
113.0,6.0,1.0,1.0,1.0,1.0,459.7949120015983,1.0,1.0,phase_1,,,,,,,,,,,,,gray,I
64.0,1.0,0.5,0.0,1.0,1.0,395.1401370013627,1.0,1.0,phase_1,,,,,,,,,,,,,blue,triangle
0.0,8.0,0.0,1.0,4.0,4.0,319.9424049998924,1.0,1.0,phase_1,,,,,,,,,,,,,white,flipped triangle
388.0,8.0,4.0,1.0,3.0,3.0,415.4487910000171,1.0,1.0,phase_1,,,,,,,,,,,,,white,flipped triangle
122.0,6.0,1.0,1.0,1.0,1.0,483.3714999986114,1.0,1.0,phase_1,,,,,,,,,,,,,gray,I
417.0,8.0,4.0,1.0,4.0,4.0,253.3820829994511,1.0,1.0,phase_1,,,,,,,,,,,,,white,flipped triangle
181.0,7.0,2.0,1.0,1.0,1.0,361.9559729995671,1.0,1.0,phase_1,,,,,,,,,,,,,yellow,cross
43.0,1.0,0.5,0.0,2.0,2.0,388.7566289995448,1.0,1.0,phase_1,,,,,,,,,,,,,blue,triangle
215.0,7.0,2.0,1.0,2.0,2.0,414.6371189999627,1.0,1.0,phase_1,,,,,,,,,,,,,yellow,cross
0.0,4.0,0.0,0.0,1.0,1.0,350.1823330007028,1.0,1.0,phase_1,,,,,,,,,,,,,orange,diamond
201.0,7.0,2.0,1.0,4.0,4.0,428.6105480005062,1.0,1.0,phase_1,,,,,,,,,,,,,yellow,cross
86.0,6.0,1.0,1.0,2.0,2.0,305.7821759994112,1.0,1.0,phase_1,,,,,,,,,,,,,gray,I
115.0,6.0,1.0,1.0,2.0,2.0,464.7783000000345,1.0,1.0,phase_1,,,,,,,,,,,,,gray,I
385.0,4.0,4.0,0.0,4.0,4.0,371.6891530002613,1.0,1.0,phase_1,,,,,,,,,,,,,orange,diamond
0.0,2.0,0.0,0.0,3.0,3.0,335.5302350009879,1.0,1.0,phase_1,,,,,,,,,,,,,magenta,hexagon
37.0,1.0,0.5,0.0,1.0,1.0,286.467192998316,1.0,1.0,phase_1,,,,,,,,,,,,,blue,triangle
77.0,2.0,1.0,0.0,1.0,1.0,294.1369860000122,1.0,1.0,phase_1,,,,,,,,,,,,,magenta,hexagon
403.0,8.0,4.0,1.0,4.0,4.0,306.3663339999039,1.0,1.0,phase_1,,,,,,,,,,,,,white,flipped triangle
93.0,6.0,1.0,1.0,3.0,3.0,393.9607249994878,1.0,1.0,phase_1,,,,,,,,,,,,,gray,I
123.0,2.0,1.0,0.0,1.0,1.0,310.0747129992669,1.0,1.0,phase_1,,,,,,,,,,,,,magenta,hexagon
96.0,2.0,1.0,0.0,2.0,2.0,366.2613519991282,1.0,1.0,phase_1,,,,,,,,,,,,,magenta,hexagon
84.0,6.0,1.0,1.0,1.0,1.0,376.87906900100637,1.0,1.0,phase_1,,,,,,,,,,,,,gray,I
0.0,7.0,0.0,1.0,2.0,2.0,424.2274709995399,1.0,1.0,phase_1,,,,,,,,,,,,,yellow,cross
392.0,4.0,4.0,0.0,1.0,1.0,368.1821890004357,1.0,1.0,phase_1,,,,,,,,,,,,,orange,diamond
225.0,7.0,2.0,1.0,2.0,2.0,355.2730899991729,1.0,1.0,phase_1,,,,,,,,,,,,,yellow,cross
28.0,1.0,0.5,0.0,2.0,2.0,386.6001669994148,1.0,1.0,phase_1,,,,,,,,,,,,,blue,triangle
222.0,3.0,2.0,0.0,1.0,1.0,351.3118170012603,1.0,1.0,phase_1,,,,,,,,,,,,,green,square
68.0,1.0,0.5,0.0,3.0,3.0,393.0777669993404,1.0,1.0,phase_1,,,,,,,,,,,,,blue,triangle
204.0,7.0,2.0,1.0,4.0,4.0,331.3183469999785,1.0,1.0,phase_1,,,,,,,,,,,,,yellow,cross
0.0,4.0,0.0,0.0,3.0,3.0,350.211801000114,1.0,1.0,phase_1,,,,,,,,,,,,,orange,diamond
201.0,3.0,2.0,0.0,2.0,2.0,314.5610979991033,1.0,1.0,phase_1,,,,,,,,,,,,,green,square
418.0,8.0,4.0,1.0,1.0,1.0,417.6953980004327,1.0,1.0,phase_1,,,,,,,,,,,,,white,flipped triangle
118.0,2.0,1.0,0.0,3.0,3.0,365.4833179989509,1.0,1.0,phase_1,,,,,,,,,,,,,magenta,hexagon
223.0,7.0,2.0,1.0,3.0,3.0,348.2872510012385,1.0,1.0,phase_1,,,,,,,,,,,,,yellow,cross
423.0,4.0,4.0,0.0,3.0,3.0,287.7282160006871,1.0,1.0,phase_1,,,,,,,,,,,,,orange,diamond
86.0,6.0,1.0,1.0,2.0,2.0,378.2158729991351,1.0,1.0,phase_1,,,,,,,,,,,,,gray,I
0.0,3.0,0.0,0.0,3.0,3.0,326.176430000487,1.0,1.0,phase_1,,,,,,,,,,,,,green,square
395.0,4.0,4.0,0.0,2.0,2.0,353.8768010002968,1.0,1.0,phase_1,,,,,,,,,,,,,orange,diamond
379.0,8.0,4.0,1.0,4.0,4.0,295.9894289997464,1.0,1.0,phase_1,,,,,,,,,,,,,white,flipped triangle
68.0,5.0,0.5,1.0,2.0,2.0,336.0936450008012,1.0,1.0,phase_1,,,,,,,,,,,,,cyan,circle
117.0,2.0,1.0,0.0,2.0,2.0,304.3185269998503,1.0,1.0,phase_1,,,,,,,,,,,,,magenta,hexagon
119.0,6.0,1.0,1.0,3.0,3.0,328.600061000543,1.0,1.0,phase_1,,,,,,,,,,,,,gray,I
391.0,4.0,4.0,0.0,2.0,2.0,325.1794919997337,1.0,1.0,phase_1,,,,,,,,,,,,,orange,diamond
69.0,5.0,0.5,1.0,2.0,2.0,384.2887650007469,1.0,1.0,phase_1,,,,,,,,,,,,,cyan,circle
106.0,2.0,1.0,0.0,1.0,1.0,340.5438360005064,1.0,1.0,phase_1,,,,,,,,,,,,,magenta,hexagon
43.0,1.0,0.5,0.0,4.0,4.0,282.8495190005924,1.0,1.0,phase_1,,,,,,,,,,,,,blue,triangle
48.0,5.0,0.5,1.0,2.0,2.0,355.6750200004899,1.0,1.0,phase_1,,,,,,,,,,,,,cyan,circle
211.0,7.0,2.0,1.0,3.0,3.0,319.5912169994699,1.0,1.0,phase_1,,,,,,,,,,,,,yellow,cross
110.0,6.0,1.0,1.0,2.0,2.0,369.1825659989263,1.0,1.0,phase_1,,,,,,,,,,,,,gray,I
117.0,6.0,1.0,1.0,1.0,1.0,333.7732560012227,1.0,1.0,phase_1,,,,,,,,,,,,,gray,I
206.0,7.0,2.0,1.0,2.0,2.0,273.6040460004005,1.0,1.0,phase_1,,,,,,,,,,,,,yellow,cross
423.0,4.0,4.0,0.0,1.0,1.0,477.4190039988752,1.0,2.0,phase_1,,,,,,,,,,,,,orange,diamond
421.0,8.0,4.0,1.0,2.0,2.0,423.8553320010396,1.0,1.0,phase_1,,,,,,,,,,,,,white,flipped triangle
95.0,6.0,1.0,1.0,3.0,3.0,401.644548999684,1.0,1.0,phase_1,,,,,,,,,,,,,gray,I
0.0,6.0,0.0,1.0,2.0,2.0,340.3279289996135,1.0,1.0,phase_1,,,,,,,,,,,,,gray,I
185.0,3.0,2.0,0.0,3.0,3.0,495.8625979998032,1.0,1.0,phase_1,,,,,,,,,,,,,green,square
225.0,3.0,2.0,0.0,4.0,4.0,603.9901250005641,1.0,1.0,phase_1,,,,,,,,,,,,,green,square
201.0,3.0,2.0,0.0,3.0,3.0,360.7338620004157,1.0,1.0,phase_1,,,,,,,,,,,,,green,square
58.0,1.0,0.5,0.0,2.0,2.0,344.8268920001283,1.0,1.0,phase_1,,,,,,,,,,,,,blue,triangle
184.0,7.0,2.0,1.0,3.0,3.0,379.2538319994492,1.0,1.0,phase_1,,,,,,,,,,,,,yellow,cross
110.0,2.0,1.0,0.0,3.0,3.0,472.1368759983306,1.0,1.0,phase_1,,,,,,,,,,,,,magenta,hexagon
66.0,1.0,0.5,0.0,1.0,1.0,335.3141749994393,1.0,1.0,phase_1,,,,,,,,,,,,,blue,triangle
385.0,8.0,4.0,1.0,1.0,1.0,331.4550260001851,1.0,1.0,phase_1,,,,,,,,,,,,,white,flipped triangle
26.0,1.0,0.5,0.0,4.0,4.0,292.9747270009102,1.0,1.0,phase_1,,,,,,,,,,,,,blue,triangle
176.0,3.0,2.0,0.0,4.0,4.0,365.1795140012837,1.0,1.0,phase_1,,,,,,,,,,,,,green,square
0.0,8.0,0.0,1.0,2.0,2.0,459.4521859999076,1.0,1.0,phase_1,,,,,,,,,,,,,white,flipped triangle
92.0,2.0,1.0,0.0,4.0,4.0,344.8233559993241,1.0,1.0,phase_1,,,,,,,,,,,,,magenta,hexagon
0.0,8.0,0.0,1.0,4.0,4.0,435.9791000006225,2.0,1.0,phase_1,,,,,,,,,,,,,white,flipped triangle
414.0,8.0,4.0,1.0,3.0,3.0,376.1143120009365,2.0,1.0,phase_1,,,,,,,,,,,,,white,flipped triangle
78.0,6.0,1.0,1.0,2.0,2.0,420.1262659989879,2.0,1.0,phase_1,,,,,,,,,,,,,gray,I
199.0,3.0,2.0,0.0,3.0,3.0,410.9183600012329,2.0,1.0,phase_1,,,,,,,,,,,,,green,square
93.0,6.0,1.0,1.0,4.0,4.0,353.9976359988941,2.0,1.0,phase_1,,,,,,,,,,,,,gray,I
34.0,5.0,0.5,1.0,2.0,2.0,336.4498060000187,2.0,1.0,phase_1,,,,,,,,,,,,,cyan,circle
221.0,3.0,2.0,0.0,3.0,3.0,352.8070550000848,2.0,1.0,phase_1,,,,,,,,,,,,,green,square
201.0,7.0,2.0,1.0,4.0,4.0,343.1282269993971,2.0,1.0,phase_1,,,,,,,,,,,,,yellow,cross
82.0,2.0,1.0,0.0,1.0,1.0,356.2838930010912,2.0,1.0,phase_1,,,,,,,,,,,,,magenta,hexagon
62.0,1.0,0.5,0.0,2.0,2.0,327.7176400006283,2.0,1.0,phase_1,,,,,,,,,,,,,blue,triangle
0.0,6.0,0.0,1.0,3.0,3.0,354.127303999121,2.0,1.0,phase_1,,,,,,,,,,,,,gray,I
214.0,3.0,2.0,0.0,1.0,1.0,346.7450610005471,2.0,1.0,phase_1,,,,,,,,,,,,,green,square
77.0,2.0,1.0,0.0,1.0,1.0,415.6342489986855,2.0,1.0,phase_1,,,,,,,,,,,,,magenta,hexagon
29.0,5.0,0.5,1.0,2.0,2.0,378.5772890005319,2.0,1.0,phase_1,,,,,,,,,,,,,cyan,circle
222.0,7.0,2.0,1.0,3.0,3.0,349.3636430011975,2.0,1.0,phase_1,,,,,,,,,,,,,yellow,cross
177.0,7.0,2.0,1.0,4.0,4.0,302.4831509992509,2.0,1.0,phase_1,,,,,,,,,,,,,yellow,cross
110.0,6.0,1.0,1.0,2.0,2.0,361.152987999958,2.0,1.0,phase_1,,,,,,,,,,,,,gray,I
219.0,3.0,2.0,0.0,2.0,2.0,418.4669169990229,2.0,1.0,phase_1,,,,,,,,,,,,,green,square
387.0,4.0,4.0,0.0,4.0,4.0,345.5709710015071,2.0,1.0,phase_1,,,,,,,,,,,,,orange,diamond
389.0,4.0,4.0,0.0,1.0,1.0,380.6138430009014,2.0,1.0,phase_1,,,,,,,,,,,,,orange,diamond
0.0,6.0,0.0,1.0,3.0,3.0,342.4951830002101,2.0,1.0,phase_1,,,,,,,,,,,,,gray,I
44.0,5.0,0.5,1.0,2.0,2.0,309.5010750002984,2.0,1.0,phase_1,,,,,,,,,,,,,cyan,circle
202.0,3.0,2.0,0.0,2.0,2.0,323.8535540003795,2.0,1.0,phase_1,,,,,,,,,,,,,green,square
48.0,1.0,0.5,0.0,3.0,3.0,361.6515559988329,2.0,1.0,phase_1,,,,,,,,,,,,,blue,triangle
0.0,6.0,0.0,1.0,1.0,1.0,348.2901490006043,2.0,1.0,phase_1,,,,,,,,,,,,,gray,I
0.0,6.0,0.0,1.0,2.0,2.0,300.5327749997377,2.0,1.0,phase_1,,,,,,,,,,,,,gray,I
0.0,6.0,0.0,1.0,1.0,1.0,498.9418709992606,2.0,1.0,phase_1,,,,,,,,,,,,,gray,I
179.0,7.0,2.0,1.0,4.0,4.0,288.1756380011211,2.0,1.0,phase_1,,,,,,,,,,,,,yellow,cross
0.0,1.0,0.0,0.0,3.0,3.0,486.3255780001054,2.0,1.0,phase_1,,,,,,,,,,,,,blue,triangle
93.0,2.0,1.0,0.0,1.0,1.0,393.731028001639,2.0,1.0,phase_1,,,,,,,,,,,,,magenta,hexagon
204.0,3.0,2.0,0.0,4.0,4.0,340.6556779991661,2.0,1.0,phase_1,,,,,,,,,,,,,green,square
53.0,5.0,0.5,1.0,4.0,4.0,314.758509000967,2.0,1.0,phase_1,,,,,,,,,,,,,cyan,circle
73.0,1.0,0.5,0.0,4.0,4.0,348.0089959994075,2.0,1.0,phase_1,,,,,,,,,,,,,blue,triangle
70.0,5.0,0.5,1.0,3.0,3.0,388.6531289990671,2.0,1.0,phase_1,,,,,,,,,,,,,cyan,circle
215.0,3.0,2.0,0.0,4.0,4.0,335.5218200013041,2.0,1.0,phase_1,,,,,,,,,,,,,green,square
75.0,1.0,0.5,0.0,1.0,1.0,322.2802509990288,2.0,1.0,phase_1,,,,,,,,,,,,,blue,triangle
101.0,2.0,1.0,0.0,2.0,2.0,311.8579419988236,2.0,1.0,phase_1,,,,,,,,,,,,,magenta,hexagon
0.0,7.0,0.0,1.0,2.0,2.0,401.502018001338,2.0,1.0,phase_1,,,,,,,,,,,,,yellow,cross
35.0,1.0,0.5,0.0,2.0,2.0,357.9555109990906,2.0,1.0,phase_1,,,,,,,,,,,,,blue,triangle
28.0,5.0,0.5,1.0,3.0,3.0,427.2512720017403,2.0,1.0,phase_1,,,,,,,,,,,,,cyan,circle
82.0,6.0,1.0,1.0,1.0,1.0,379.3827409990626,2.0,1.0,phase_1,,,,,,,,,,,,,gray,I
408.0,8.0,4.0,1.0,2.0,2.0,370.0428869997267,2.0,1.0,phase_1,,,,,,,,,,,,,white,flipped triangle
202.0,7.0,2.0,1.0,1.0,1.0,401.2070140015566,2.0,1.0,phase_1,,,,,,,,,,,,,yellow,cross
191.0,7.0,2.0,1.0,1.0,1.0,371.050830999593,2.0,1.0,phase_1,,,,,,,,,,,,,yellow,cross
96.0,6.0,1.0,1.0,3.0,3.0,392.6143019998562,2.0,1.0,phase_1,,,,,,,,,,,,,gray,I
119.0,2.0,1.0,0.0,4.0,4.0,528.7070379999932,2.0,1.0,phase_1,,,,,,,,,,,,,magenta,hexagon
405.0,4.0,4.0,0.0,4.0,4.0,408.5723499993037,2.0,1.0,phase_1,,,,,,,,,,,,,orange,diamond
81.0,2.0,1.0,0.0,2.0,2.0,372.251007000159,2.0,1.0,phase_1,,,,,,,,,,,,,magenta,hexagon
0.0,3.0,0.0,0.0,3.0,3.0,630.4910459984967,2.0,1.0,phase_1,,,,,,,,,,,,,green,square
122.0,2.0,1.0,0.0,2.0,2.0,430.6283789992449,2.0,1.0,phase_1,,,,,,,,,,,,,magenta,hexagon
0.0,2.0,0.0,0.0,2.0,2.0,377.3541409991594,2.0,1.0,phase_1,,,,,,,,,,,,,magenta,hexagon
48.0,5.0,0.5,1.0,4.0,4.0,347.3159879995364,2.0,1.0,phase_1,,,,,,,,,,,,,cyan,circle
53.0,1.0,0.5,0.0,3.0,3.0,469.0709030001017,2.0,1.0,phase_1,,,,,,,,,,,,,blue,triangle
44.0,1.0,0.5,0.0,1.0,1.0,310.5398229999991,2.0,1.0,phase_1,,,,,,,,,,,,,blue,triangle
43.0,5.0,0.5,1.0,4.0,4.0,310.2365689992439,2.0,1.0,phase_1,,,,,,,,,,,,,cyan,circle
31.0,5.0,0.5,1.0,1.0,1.0,326.3826380007231,2.0,1.0,phase_1,,,,,,,,,,,,,cyan,circle
209.0,3.0,2.0,0.0,1.0,1.0,338.8351699995837,2.0,1.0,phase_1,,,,,,,,,,,,,green,square
125.0,2.0,1.0,0.0,1.0,1.0,336.2186530011968,2.0,1.0,phase_1,,,,,,,,,,,,,magenta,hexagon
191.0,3.0,2.0,0.0,1.0,1.0,384.3577539992111,2.0,1.0,phase_1,,,,,,,,,,,,,green,square
58.0,5.0,0.5,1.0,1.0,1.0,394.9468389982939,2.0,1.0,phase_1,,,,,,,,,,,,,cyan,circle
98.0,2.0,1.0,0.0,3.0,3.0,432.190694999008,2.0,1.0,phase_1,,,,,,,,,,,,,magenta,hexagon
418.0,8.0,4.0,1.0,3.0,3.0,379.9370889992133,2.0,1.0,phase_1,,,,,,,,,,,,,white,flipped triangle
28.0,5.0,0.5,1.0,1.0,1.0,334.5180490014172,2.0,1.0,phase_1,,,,,,,,,,,,,cyan,circle
405.0,8.0,4.0,1.0,2.0,2.0,412.8581870008929,2.0,1.0,phase_1,,,,,,,,,,,,,white,flipped triangle
54.0,1.0,0.5,0.0,4.0,4.0,292.5362679998216,2.0,1.0,phase_1,,,,,,,,,,,,,blue,triangle
0.0,2.0,0.0,0.0,2.0,2.0,421.7690929999662,2.0,1.0,phase_1,,,,,,,,,,,,,magenta,hexagon
410.0,8.0,4.0,1.0,3.0,3.0,355.5123089990957,2.0,1.0,phase_1,,,,,,,,,,,,,white,flipped triangle
0.0,1.0,0.0,0.0,2.0,2.0,418.2373389994609,2.0,1.0,phase_1,,,,,,,,,,,,,blue,triangle
70.0,1.0,0.5,0.0,4.0,4.0,373.1005819990969,2.0,1.0,phase_1,,,,,,,,,,,,,blue,triangle
88.0,2.0,1.0,0.0,1.0,1.0,356.9711179989099,2.0,1.0,phase_1,,,,,,,,,,,,,magenta,hexagon
0.0,2.0,0.0,0.0,2.0,2.0,398.2023029984702,2.0,1.0,phase_1,,,,,,,,,,,,,magenta,hexagon
210.0,3.0,2.0,0.0,1.0,1.0,350.3577110004698,2.0,1.0,phase_1,,,,,,,,,,,,,green,square
0.0,2.0,0.0,0.0,4.0,4.0,311.2881300003209,2.0,1.0,phase_1,,,,,,,,,,,,,magenta,hexagon
103.0,6.0,1.0,1.0,1.0,1.0,375.5989839992253,2.0,1.0,phase_1,,,,,,,,,,,,,gray,I
123.0,6.0,1.0,1.0,4.0,4.0,334.7572410002613,2.0,1.0,phase_1,,,,,,,,,,,,,gray,I
113.0,2.0,1.0,0.0,2.0,2.0,354.8186019997956,2.0,1.0,phase_1,,,,,,,,,,,,,magenta,hexagon
0.0,8.0,0.0,1.0,1.0,1.0,345.3831459992216,2.0,1.0,phase_1,,,,,,,,,,,,,white,flipped triangle
0.0,1.0,0.0,0.0,4.0,4.0,297.6789549993555,2.0,1.0,phase_1,,,,,,,,,,,,,blue,triangle
0.0,5.0,0.0,1.0,2.0,2.0,273.7768139995751,2.0,1.0,phase_1,,,,,,,,,,,,,cyan,circle
177.0,7.0,2.0,1.0,3.0,3.0,333.2154209983855,2.0,1.0,phase_1,,,,,,,,,,,,,yellow,cross
0.0,1.0,0.0,0.0,3.0,3.0,390.6414400007634,2.0,1.0,phase_1,,,,,,,,,,,,,blue,triangle
378.0,4.0,4.0,0.0,4.0,4.0,492.54352799835027,2.0,1.0,phase_1,,,,,,,,,,,,,orange,diamond
0.0,3.0,0.0,0.0,3.0,3.0,354.8793040008604,2.0,1.0,phase_1,,,,,,,,,,,,,green,square
384.0,8.0,4.0,1.0,4.0,4.0,363.7001320003037,2.0,1.0,phase_1,,,,,,,,,,,,,white,flipped triangle
0.0,5.0,0.0,1.0,2.0,2.0,382.2413510006299,2.0,1.0,phase_1,,,,,,,,,,,,,cyan,circle
48.0,1.0,0.5,0.0,1.0,1.0,325.7868730015616,2.0,1.0,phase_1,,,,,,,,,,,,,blue,triangle
178.0,7.0,2.0,1.0,2.0,2.0,375.202375000299,2.0,1.0,phase_1,,,,,,,,,,,,,yellow,cross
183.0,7.0,2.0,1.0,3.0,3.0,343.4579869990557,2.0,1.0,phase_1,,,,,,,,,,,,,yellow,cross
36.0,1.0,0.5,0.0,3.0,3.0,343.0655889987974,2.0,1.0,phase_1,,,,,,,,,,,,,blue,triangle
399.0,4.0,4.0,0.0,1.0,1.0,358.6934529994323,2.0,1.0,phase_1,,,,,,,,,,,,,orange,diamond
176.0,3.0,2.0,0.0,3.0,3.0,397.973204999289,2.0,1.0,phase_1,,,,,,,,,,,,,green,square
417.0,4.0,4.0,0.0,1.0,1.0,392.8421750006237,2.0,1.0,phase_1,,,,,,,,,,,,,orange,diamond
0.0,8.0,0.0,1.0,2.0,2.0,372.4122040002839,2.0,1.0,phase_1,,,,,,,,,,,,,white,flipped triangle
54.0,1.0,0.5,0.0,4.0,4.0,281.7694660006964,2.0,1.0,phase_1,,,,,,,,,,,,,blue,triangle
421.0,4.0,4.0,0.0,2.0,2.0,344.873968999309,2.0,1.0,phase_1,,,,,,,,,,,,,orange,diamond
0.0,3.0,0.0,0.0,3.0,3.0,347.3103119995357,2.0,1.0,phase_1,,,,,,,,,,,,,green,square
392.0,8.0,4.0,1.0,3.0,3.0,302.0939260004525,2.0,1.0,phase_1,,,,,,,,,,,,,white,flipped triangle
381.0,4.0,4.0,0.0,2.0,2.0,309.3615510006202,2.0,1.0,phase_1,,,,,,,,,,,,,orange,diamond
66.0,5.0,0.5,1.0,1.0,1.0,293.3243249990482,2.0,1.0,phase_1,,,,,,,,,,,,,cyan,circle
196.0,3.0,2.0,0.0,2.0,2.0,376.5529590000369,2.0,1.0,phase_1,,,,,,,,,,,,,green,square
225.0,7.0,2.0,1.0,1.0,1.0,267.9872910011909,3.0,1.0,phase_1,,,,,,,,,,,,,yellow,cross
0.0,5.0,0.0,1.0,3.0,3.0,395.3427359992929,3.0,1.0,phase_1,,,,,,,,,,,,,cyan,circle
379.0,4.0,4.0,0.0,3.0,3.0,406.466704000195,3.0,1.0,phase_1,,,,,,,,,,,,,orange,diamond
77.0,6.0,1.0,1.0,2.0,2.0,327.3690220012213,3.0,1.0,phase_1,,,,,,,,,,,,,gray,I
0.0,2.0,0.0,0.0,3.0,3.0,314.1755010001361,3.0,1.0,phase_1,,,,,,,,,,,,,magenta,hexagon
64.0,5.0,0.5,1.0,1.0,1.0,391.1614890002965,3.0,1.0,phase_1,,,,,,,,,,,,,cyan,circle
45.0,1.0,0.5,0.0,3.0,3.0,321.203276000233,3.0,1.0,phase_1,,,,,,,,,,,,,blue,triangle
423.0,8.0,4.0,1.0,1.0,1.0,483.0849289992329,3.0,1.0,phase_1,,,,,,,,,,,,,white,flipped triangle
36.0,5.0,0.5,1.0,4.0,4.0,344.4707519993244,3.0,1.0,phase_1,,,,,,,,,,,,,cyan,circle
222.0,3.0,2.0,0.0,4.0,4.0,325.4916130008496,3.0,1.0,phase_1,,,,,,,,,,,,,green,square
388.0,8.0,4.0,1.0,2.0,2.0,331.6355030001432,3.0,1.0,phase_1,,,,,,,,,,,,,white,flipped triangle
388.0,4.0,4.0,0.0,3.0,3.0,290.5826729984255,3.0,1.0,phase_1,,,,,,,,,,,,,orange,diamond
69.0,1.0,0.5,0.0,4.0,4.0,395.3762729997834,3.0,1.0,phase_1,,,,,,,,,,,,,blue,triangle
219.0,7.0,2.0,1.0,4.0,4.0,365.2649329997075,3.0,1.0,phase_1,,,,,,,,,,,,,yellow,cross
73.0,1.0,0.5,0.0,3.0,3.0,336.6428310000628,3.0,1.0,phase_1,,,,,,,,,,,,,blue,triangle
38.0,5.0,0.5,1.0,2.0,2.0,348.38011200008617,3.0,1.0,phase_1,,,,,,,,,,,,,cyan,circle
189.0,3.0,2.0,0.0,2.0,2.0,376.8881199994212,3.0,1.0,phase_1,,,,,,,,,,,,,green,square
38.0,1.0,0.5,0.0,2.0,2.0,444.1167620007036,3.0,1.0,phase_1,,,,,,,,,,,,,blue,triangle
0.0,1.0,0.0,0.0,2.0,2.0,382.0729870003561,3.0,1.0,phase_1,,,,,,,,,,,,,blue,triangle
221.0,3.0,2.0,0.0,4.0,4.0,333.2666209989838,3.0,1.0,phase_1,,,,,,,,,,,,,green,square
108.0,6.0,1.0,1.0,1.0,1.0,318.5083190001023,3.0,1.0,phase_1,,,,,,,,,,,,,gray,I
0.0,1.0,0.0,0.0,4.0,4.0,310.491551999803,3.0,1.0,phase_1,,,,,,,,,,,,,blue,triangle
28.0,1.0,0.5,0.0,2.0,2.0,357.9555399992387,3.0,1.0,phase_1,,,,,,,,,,,,,blue,triangle
125.0,6.0,1.0,1.0,4.0,4.0,442.5201830017613,3.0,1.0,phase_1,,,,,,,,,,,,,gray,I
105.0,2.0,1.0,0.0,4.0,4.0,385.6943999999203,3.0,1.0,phase_1,,,,,,,,,,,,,magenta,hexagon
385.0,4.0,4.0,0.0,3.0,3.0,327.9514969999582,3.0,1.0,phase_1,,,,,,,,,,,,,orange,diamond
191.0,3.0,2.0,0.0,1.0,1.0,414.7156950002681,3.0,1.0,phase_1,,,,,,,,,,,,,green,square
0.0,4.0,0.0,0.0,3.0,3.0,343.339950999507,3.0,1.0,phase_1,,,,,,,,,,,,,orange,diamond
177.0,3.0,2.0,0.0,4.0,4.0,382.8321089986275,3.0,1.0,phase_1,,,,,,,,,,,,,green,square
215.0,3.0,2.0,0.0,1.0,1.0,379.838249000386,3.0,1.0,phase_1,,,,,,,,,,,,,green,square
0.0,5.0,0.0,1.0,3.0,3.0,391.3296179998724,3.0,1.0,phase_1,,,,,,,,,,,,,cyan,circle
54.0,5.0,0.5,1.0,2.0,2.0,281.13123500043,3.0,1.0,phase_1,,,,,,,,,,,,,cyan,circle
76.0,2.0,1.0,0.0,4.0,4.0,284.6302840007411,3.0,1.0,phase_1,,,,,,,,,,,,,magenta,hexagon
400.0,8.0,4.0,1.0,4.0,4.0,369.0914390008402,3.0,1.0,phase_1,,,,,,,,,,,,,white,flipped triangle
408.0,4.0,4.0,0.0,4.0,4.0,297.3081070012995,3.0,1.0,phase_1,,,,,,,,,,,,,orange,diamond
63.0,5.0,0.5,1.0,1.0,1.0,413.4256380002625,3.0,1.0,phase_1,,,,,,,,,,,,,cyan,circle
408.0,4.0,4.0,0.0,1.0,1.0,307.5154469988774,3.0,1.0,phase_1,,,,,,,,,,,,,orange,diamond
201.0,3.0,2.0,0.0,2.0,2.0,382.0288899987645,3.0,1.0,phase_1,,,,,,,,,,,,,green,square
0.0,2.0,0.0,0.0,2.0,2.0,361.7864580010064,3.0,1.0,phase_1,,,,,,,,,,,,,magenta,hexagon
406.0,4.0,4.0,0.0,2.0,2.0,406.5261679988907,3.0,1.0,phase_1,,,,,,,,,,,,,orange,diamond
0.0,8.0,0.0,1.0,3.0,3.0,316.1184879991197,3.0,1.0,phase_1,,,,,,,,,,,,,white,flipped triangle
0.0,7.0,0.0,1.0,1.0,1.0,330.4548169999179,3.0,1.0,phase_1,,,,,,,,,,,,,yellow,cross
57.0,5.0,0.5,1.0,2.0,2.0,419.0786859999207,3.0,1.0,phase_1,,,,,,,,,,,,,cyan,circle
400.0,4.0,4.0,0.0,4.0,4.0,298.5319269992033,3.0,1.0,phase_1,,,,,,,,,,,,,orange,diamond
222.0,7.0,2.0,1.0,3.0,3.0,367.0765939987177,3.0,1.0,phase_1,,,,,,,,,,,,,yellow,cross
99.0,2.0,1.0,0.0,3.0,3.0,358.0708270001196,3.0,1.0,phase_1,,,,,,,,,,,,,magenta,hexagon
0.0,7.0,0.0,1.0,3.0,3.0,328.6276799990446,3.0,1.0,phase_1,,,,,,,,,,,,,yellow,cross
57.0,1.0,0.5,0.0,1.0,1.0,345.6297550001181,3.0,1.0,phase_1,,,,,,,,,,,,,blue,triangle
0.0,7.0,0.0,1.0,2.0,2.0,409.5161810000718,3.0,1.0,phase_1,,,,,,,,,,,,,yellow,cross
404.0,8.0,4.0,1.0,1.0,1.0,421.7137979994731,3.0,1.0,phase_1,,,,,,,,,,,,,white,flipped triangle
181.0,3.0,2.0,0.0,4.0,4.0,351.033073000508,3.0,1.0,phase_1,,,,,,,,,,,,,green,square
414.0,8.0,4.0,1.0,4.0,4.0,358.2579619996977,3.0,1.0,phase_1,,,,,,,,,,,,,white,flipped triangle
184.0,3.0,2.0,0.0,1.0,1.0,342.6852690008672,3.0,1.0,phase_1,,,,,,,,,,,,,green,square
118.0,6.0,1.0,1.0,4.0,4.0,382.4310959989816,3.0,1.0,phase_1,,,,,,,,,,,,,gray,I
106.0,6.0,1.0,1.0,4.0,4.0,360.4822489996877,3.0,1.0,phase_1,,,,,,,,,,,,,gray,I
0.0,2.0,0.0,0.0,4.0,4.0,353.7569489999441,3.0,1.0,phase_1,,,,,,,,,,,,,magenta,hexagon
0.0,7.0,0.0,1.0,4.0,4.0,332.693725998979,3.0,1.0,phase_1,,,,,,,,,,,,,yellow,cross
103.0,2.0,1.0,0.0,4.0,4.0,319.6859389991004,3.0,1.0,phase_1,,,,,,,,,,,,,magenta,hexagon
75.0,5.0,0.5,1.0,1.0,1.0,350.9335620001366,3.0,1.0,phase_1,,,,,,,,,,,,,cyan,circle
399.0,8.0,4.0,1.0,1.0,1.0,375.279125999441,3.0,1.0,phase_1,,,,,,,,,,,,,white,flipped triangle
0.0,5.0,0.0,1.0,1.0,1.0,428.783140001542,3.0,1.0,phase_1,,,,,,,,,,,,,cyan,circle
92.0,6.0,1.0,1.0,3.0,3.0,370.4881779995048,3.0,2.0,phase_1,,,,,,,,,,,,,gray,I
114.0,6.0,1.0,1.0,4.0,4.0,427.5712509988807,3.0,1.0,phase_1,,,,,,,,,,,,,gray,I
0.0,6.0,0.0,1.0,4.0,4.0,439.0492019992962,3.0,1.0,phase_1,,,,,,,,,,,,,gray,I
0.0,4.0,0.0,0.0,4.0,4.0,419.0421900002548,3.0,1.0,phase_1,,,,,,,,,,,,,orange,diamond
59.0,1.0,0.5,0.0,4.0,4.0,383.1155660009244,3.0,1.0,phase_1,,,,,,,,,,,,,blue,triangle
196.0,7.0,2.0,1.0,4.0,4.0,408.0513310000242,3.0,1.0,phase_1,,,,,,,,,,,,,yellow,cross
32.0,5.0,0.5,1.0,4.0,4.0,401.4086219995079,3.0,1.0,phase_1,,,,,,,,,,,,,cyan,circle
37.0,5.0,0.5,1.0,4.0,4.0,431.8428320002567,3.0,1.0,phase_1,,,,,,,,,,,,,cyan,circle
0.0,8.0,0.0,1.0,1.0,1.0,465.4955490004795,3.0,1.0,phase_1,,,,,,,,,,,,,white,flipped triangle
46.0,1.0,0.5,0.0,4.0,4.0,383.5450869992201,3.0,1.0,phase_1,,,,,,,,,,,,,blue,triangle
93.0,2.0,1.0,0.0,3.0,3.0,453.2729570000811,3.0,1.0,phase_1,,,,,,,,,,,,,magenta,hexagon
0.0,4.0,0.0,0.0,2.0,2.0,587.0392640008504,3.0,1.0,phase_1,,,,,,,,,,,,,orange,diamond
108.0,2.0,1.0,0.0,1.0,1.0,456.779968999399,3.0,1.0,phase_1,,,,,,,,,,,,,magenta,hexagon
96.0,2.0,1.0,0.0,3.0,3.0,386.6602569996757,3.0,1.0,phase_1,,,,,,,,,,,,,magenta,hexagon
221.0,7.0,2.0,1.0,1.0,1.0,359.6496200007095,3.0,1.0,phase_1,,,,,,,,,,,,,yellow,cross
0.0,5.0,0.0,1.0,3.0,3.0,313.9852000003884,3.0,1.0,phase_1,,,,,,,,,,,,,cyan,circle
418.0,4.0,4.0,0.0,3.0,3.0,401.6885929995624,3.0,1.0,phase_1,,,,,,,,,,,,,orange,diamond
32.0,1.0,0.5,0.0,2.0,2.0,371.8441799992433,3.0,1.0,phase_1,,,,,,,,,,,,,blue,triangle
405.0,8.0,4.0,1.0,1.0,1.0,345.9957679988292,3.0,1.0,phase_1,,,,,,,,,,,,,white,flipped triangle
0.0,4.0,0.0,0.0,2.0,2.0,412.6865999987785,3.0,1.0,phase_1,,,,,,,,,,,,,orange,diamond
399.0,4.0,4.0,0.0,4.0,4.0,364.521853000042,3.0,1.0,phase_1,,,,,,,,,,,,,orange,diamond
208.0,7.0,2.0,1.0,4.0,4.0,402.8311820002273,3.0,1.0,phase_1,,,,,,,,,,,,,yellow,cross
185.0,3.0,2.0,0.0,2.0,2.0,418.8109240003541,3.0,1.0,phase_1,,,,,,,,,,,,,green,square
388.0,4.0,4.0,0.0,2.0,2.0,386.006668999471,3.0,1.0,phase_1,,,,,,,,,,,,,orange,diamond
0.0,7.0,0.0,1.0,1.0,1.0,383.583147000536,3.0,1.0,phase_1,,,,,,,,,,,,,yellow,cross
376.0,8.0,4.0,1.0,3.0,3.0,322.3896300005435,3.0,1.0,phase_1,,,,,,,,,,,,,white,flipped triangle
0.0,4.0,0.0,0.0,2.0,2.0,321.8684299990855,3.0,1.0,phase_1,,,,,,,,,,,,,orange,diamond
414.0,4.0,4.0,0.0,4.0,4.0,316.9857449993287,3.0,1.0,phase_1,,,,,,,,,,,,,orange,diamond
378.0,8.0,4.0,1.0,2.0,2.0,368.5926910002308,3.0,1.0,phase_1,,,,,,,,,,,,,white,flipped triangle
385.0,8.0,4.0,1.0,4.0,4.0,363.5946489994239,3.0,1.0,phase_1,,,,,,,,,,,,,white,flipped triangle
26.0,5.0,0.5,1.0,1.0,1.0,348.296632999336,3.0,1.0,phase_1,,,,,,,,,,,,,cyan,circle
0.0,2.0,0.0,0.0,4.0,4.0,357.9890429991792,3.0,1.0,phase_1,,,,,,,,,,,,,magenta,hexagon
94.0,2.0,1.0,0.0,4.0,4.0,403.2765049996669,3.0,1.0,phase_1,,,,,,,,,,,,,magenta,hexagon
404.0,4.0,4.0,0.0,4.0,4.0,316.351815001326,3.0,1.0,phase_1,,,,,,,,,,,,,orange,diamond
387.0,8.0,4.0,1.0,1.0,1.0,380.6647660003364,3.0,1.0,phase_1,,,,,,,,,,,,,white,flipped triangle
214.0,7.0,2.0,1.0,4.0,4.0,313.0599320011242,3.0,1.0,phase_1,,,,,,,,,,,,,yellow,cross
99.0,6.0,1.0,1.0,4.0,4.0,315.2083010008937,3.0,1.0,phase_1,,,,,,,,,,,,,gray,I
0.0,4.0,0.0,0.0,2.0,2.0,371.6652909988625,3.0,1.0,phase_1,,,,,,,,,,,,,orange,diamond
122.0,2.0,1.0,0.0,4.0,4.0,412.7558870004577,3.0,1.0,phase_1,,,,,,,,,,,,,magenta,hexagon
0.0,4.0,0.0,0.0,1.0,1.0,311.2584190002962,4.0,1.0,phase_1,,,,,,,,,,,,,orange,diamond
0.0,6.0,0.0,1.0,2.0,2.0,383.8596469995536,4.0,1.0,phase_1,,,,,,,,,,,,,gray,I
77.0,6.0,1.0,1.0,1.0,1.0,353.4149970000726,4.0,1.0,phase_1,,,,,,,,,,,,,gray,I
400.0,4.0,4.0,0.0,1.0,1.0,304.6191949997592,4.0,1.0,phase_1,,,,,,,,,,,,,orange,diamond
385.0,8.0,4.0,1.0,3.0,3.0,319.9258820004615,4.0,1.0,phase_1,,,,,,,,,,,,,white,flipped triangle
0.0,5.0,0.0,1.0,1.0,1.0,327.4965130003693,4.0,1.0,phase_1,,,,,,,,,,,,,cyan,circle
66.0,1.0,0.5,0.0,1.0,1.0,308.0548079997243,4.0,1.0,phase_1,,,,,,,,,,,,,blue,triangle
405.0,4.0,4.0,0.0,1.0,1.0,292.7913820003596,4.0,1.0,phase_1,,,,,,,,,,,,,orange,diamond
110.0,2.0,1.0,0.0,1.0,1.0,278.5681779987499,4.0,1.0,phase_1,,,,,,,,,,,,,magenta,hexagon
414.0,4.0,4.0,0.0,3.0,3.0,385.6327720004628,4.0,1.0,phase_1,,,,,,,,,,,,,orange,diamond
0.0,3.0,0.0,0.0,3.0,3.0,346.43711599892407,4.0,1.0,phase_1,,,,,,,,,,,,,green,square
35.0,5.0,0.5,1.0,3.0,3.0,372.5351709999813,4.0,1.0,phase_1,,,,,,,,,,,,,cyan,circle
384.0,4.0,4.0,0.0,2.0,2.0,354.7355430000607,4.0,1.0,phase_1,,,,,,,,,,,,,orange,diamond
81.0,6.0,1.0,1.0,3.0,3.0,342.1465379997244,4.0,1.0,phase_1,,,,,,,,,,,,,gray,I
109.0,6.0,1.0,1.0,2.0,2.0,311.2498680002318,4.0,1.0,phase_1,,,,,,,,,,,,,gray,I
0.0,1.0,0.0,0.0,4.0,4.0,376.6185170006793,4.0,1.0,phase_1,,,,,,,,,,,,,blue,triangle
0.0,6.0,0.0,1.0,1.0,1.0,339.9537430013879,4.0,1.0,phase_1,,,,,,,,,,,,,gray,I
378.0,4.0,4.0,0.0,1.0,1.0,350.5785069992271,4.0,1.0,phase_1,,,,,,,,,,,,,orange,diamond
210.0,7.0,2.0,1.0,1.0,1.0,357.3226549997343,4.0,1.0,phase_1,,,,,,,,,,,,,yellow,cross
42.0,5.0,0.5,1.0,3.0,3.0,405.1950009998109,4.0,1.0,phase_1,,,,,,,,,,,,,cyan,circle
408.0,8.0,4.0,1.0,2.0,2.0,360.2012890005426,4.0,1.0,phase_1,,,,,,,,,,,,,white,flipped triangle
223.0,3.0,2.0,0.0,2.0,2.0,387.2137139987899,4.0,1.0,phase_1,,,,,,,,,,,,,green,square
32.0,5.0,0.5,1.0,1.0,1.0,334.9736920008581,4.0,1.0,phase_1,,,,,,,,,,,,,cyan,circle
0.0,3.0,0.0,0.0,1.0,1.0,276.4237860010325,4.0,1.0,phase_1,,,,,,,,,,,,,green,square
0.0,1.0,0.0,0.0,4.0,4.0,269.6317789996101,4.0,1.0,phase_1,,,,,,,,,,,,,blue,triangle
423.0,8.0,4.0,1.0,1.0,1.0,328.2603950010525,4.0,1.0,phase_1,,,,,,,,,,,,,white,flipped triangle
199.0,7.0,2.0,1.0,1.0,1.0,317.5185550007882,4.0,1.0,phase_1,,,,,,,,,,,,,yellow,cross
32.0,1.0,0.5,0.0,3.0,3.0,395.6073690005723,4.0,1.0,phase_1,,,,,,,,,,,,,blue,triangle
42.0,1.0,0.5,0.0,3.0,3.0,362.7936810007668,4.0,1.0,phase_1,,,,,,,,,,,,,blue,triangle
96.0,6.0,1.0,1.0,4.0,4.0,384.1382490008982,4.0,1.0,phase_1,,,,,,,,,,,,,gray,I
46.0,5.0,0.5,1.0,3.0,3.0,343.481679999968,4.0,1.0,phase_1,,,,,,,,,,,,,cyan,circle
91.0,6.0,1.0,1.0,2.0,2.0,390.1358670009358,4.0,1.0,phase_1,,,,,,,,,,,,,gray,I
59.0,5.0,0.5,1.0,3.0,3.0,371.8846440006018,4.0,1.0,phase_1,,,,,,,,,,,,,cyan,circle
78.0,2.0,1.0,0.0,3.0,3.0,377.109795999786,4.0,1.0,phase_1,,,,,,,,,,,,,magenta,hexagon
78.0,6.0,1.0,1.0,2.0,2.0,376.9550780016288,4.0,1.0,phase_1,,,,,,,,,,,,,gray,I
0.0,3.0,0.0,0.0,1.0,1.0,314.6637670015479,4.0,1.0,phase_1,,,,,,,,,,,,,green,square
55.0,5.0,0.5,1.0,4.0,4.0,350.563358000727,4.0,1.0,phase_1,,,,,,,,,,,,,cyan,circle
0.0,7.0,0.0,1.0,4.0,4.0,331.9914280000375,4.0,1.0,phase_1,,,,,,,,,,,,,yellow,cross
0.0,5.0,0.0,1.0,4.0,4.0,337.9059039998537,4.0,1.0,phase_1,,,,,,,,,,,,,cyan,circle
206.0,3.0,2.0,0.0,3.0,3.0,343.097545001001,4.0,1.0,phase_1,,,,,,,,,,,,,green,square
410.0,4.0,4.0,0.0,1.0,1.0,324.7951760004071,4.0,1.0,phase_1,,,,,,,,,,,,,orange,diamond
176.0,7.0,2.0,1.0,3.0,3.0,408.0421649996424,4.0,1.0,phase_1,,,,,,,,,,,,,yellow,cross
201.0,7.0,2.0,1.0,1.0,1.0,496.188021999842,4.0,1.0,phase_1,,,,,,,,,,,,,yellow,cross
0.0,3.0,0.0,0.0,2.0,2.0,490.5043369999475,4.0,1.0,phase_1,,,,,,,,,,,,,green,square
417.0,4.0,4.0,0.0,3.0,3.0,353.5157579990482,4.0,1.0,phase_1,,,,,,,,,,,,,orange,diamond
183.0,3.0,2.0,0.0,3.0,3.0,385.8201539987931,4.0,1.0,phase_1,,,,,,,,,,,,,green,square
95.0,2.0,1.0,0.0,4.0,4.0,469.6705469996232,4.0,1.0,phase_1,,,,,,,,,,,,,magenta,hexagon
43.0,5.0,0.5,1.0,4.0,4.0,364.5997090006858,4.0,1.0,phase_1,,,,,,,,,,,,,cyan,circle
206.0,7.0,2.0,1.0,2.0,2.0,345.9621900001366,4.0,1.0,phase_1,,,,,,,,,,,,,yellow,cross
376.0,4.0,4.0,0.0,3.0,3.0,386.5017250009259,4.0,1.0,phase_1,,,,,,,,,,,,,orange,diamond
115.0,2.0,1.0,0.0,2.0,2.0,382.8828949990566,4.0,1.0,phase_1,,,,,,,,,,,,,magenta,hexagon
395.0,8.0,4.0,1.0,4.0,4.0,387.5438110007962,4.0,1.0,phase_1,,,,,,,,,,,,,white,flipped triangle
61.0,5.0,0.5,1.0,2.0,2.0,330.9764059995359,4.0,1.0,phase_1,,,,,,,,,,,,,cyan,circle
185.0,7.0,2.0,1.0,4.0,4.0,338.428439999916,4.0,1.0,phase_1,,,,,,,,,,,,,yellow,cross
124.0,6.0,1.0,1.0,3.0,3.0,385.2595280004607,4.0,1.0,phase_1,,,,,,,,,,,,,gray,I
0.0,4.0,0.0,0.0,2.0,2.0,342.5269830004254,4.0,1.0,phase_1,,,,,,,,,,,,,orange,diamond
37.0,1.0,0.5,0.0,2.0,2.0,379.3988649995299,4.0,1.0,phase_1,,,,,,,,,,,,,blue,triangle
411.0,8.0,4.0,1.0,2.0,2.0,371.4317819994903,4.0,1.0,phase_1,,,,,,,,,,,,,white,flipped triangle
94.0,6.0,1.0,1.0,3.0,3.0,352.211041999908,4.0,1.0,phase_1,,,,,,,,,,,,,gray,I
197.0,3.0,2.0,0.0,4.0,4.0,343.4768909992272,4.0,1.0,phase_1,,,,,,,,,,,,,green,square
61.0,1.0,0.5,0.0,3.0,3.0,409.3922699994436,4.0,1.0,phase_1,,,,,,,,,,,,,blue,triangle
73.0,5.0,0.5,1.0,4.0,4.0,331.0484089997771,4.0,1.0,phase_1,,,,,,,,,,,,,cyan,circle
45.0,5.0,0.5,1.0,3.0,3.0,390.3394540011504,4.0,1.0,phase_1,,,,,,,,,,,,,cyan,circle
63.0,1.0,0.5,0.0,3.0,3.0,339.9263680003059,4.0,1.0,phase_1,,,,,,,,,,,,,blue,triangle
399.0,4.0,4.0,0.0,3.0,3.0,368.8506259986752,4.0,1.0,phase_1,,,,,,,,,,,,,orange,diamond
78.0,2.0,1.0,0.0,4.0,4.0,327.1321609990991,4.0,1.0,phase_1,,,,,,,,,,,,,magenta,hexagon
0.0,5.0,0.0,1.0,3.0,3.0,527.1878740004468,4.0,1.0,phase_1,,,,,,,,,,,,,cyan,circle
0.0,2.0,0.0,0.0,2.0,2.0,341.2551080000412,4.0,1.0,phase_1,,,,,,,,,,,,,magenta,hexagon
420.0,8.0,4.0,1.0,3.0,3.0,366.8744139995397,4.0,1.0,phase_1,,,,,,,,,,,,,white,flipped triangle
208.0,3.0,2.0,0.0,2.0,2.0,431.675820998862,4.0,1.0,phase_1,,,,,,,,,,,,,green,square
105.0,6.0,1.0,1.0,1.0,1.0,377.1364100011851,4.0,1.0,phase_1,,,,,,,,,,,,,gray,I
122.0,6.0,1.0,1.0,1.0,1.0,408.1180640005186,4.0,1.0,phase_1,,,,,,,,,,,,,gray,I
66.0,5.0,0.5,1.0,3.0,3.0,350.7083960012096,4.0,1.0,phase_1,,,,,,,,,,,,,cyan,circle
0.0,3.0,0.0,0.0,1.0,1.0,337.2243720004917,4.0,1.0,phase_1,,,,,,,,,,,,,green,square
191.0,7.0,2.0,1.0,2.0,2.0,292.6663979997101,4.0,1.0,phase_1,,,,,,,,,,,,,yellow,cross
0.0,1.0,0.0,0.0,2.0,2.0,383.6550599990005,4.0,1.0,phase_1,,,,,,,,,,,,,blue,triangle
109.0,2.0,1.0,0.0,4.0,4.0,335.0299700014147,4.0,1.0,phase_1,,,,,,,,,,,,,magenta,hexagon
185.0,7.0,2.0,1.0,1.0,1.0,397.4337559993728,4.0,1.0,phase_1,,,,,,,,,,,,,yellow,cross
98.0,6.0,1.0,1.0,3.0,3.0,411.8032220012537,4.0,1.0,phase_1,,,,,,,,,,,,,gray,I
0.0,6.0,0.0,1.0,4.0,4.0,320.9890710004401,4.0,1.0,phase_1,,,,,,,,,,,,,gray,I
0.0,7.0,0.0,1.0,3.0,3.0,333.836023000913,4.0,1.0,phase_1,,,,,,,,,,,,,yellow,cross
197.0,7.0,2.0,1.0,2.0,2.0,307.2219789992232,4.0,1.0,phase_1,,,,,,,,,,,,,yellow,cross
176.0,7.0,2.0,1.0,2.0,2.0,333.9731249998294,4.0,1.0,phase_1,,,,,,,,,,,,,yellow,cross
391.0,8.0,4.0,1.0,2.0,2.0,355.7074830005149,4.0,1.0,phase_1,,,,,,,,,,,,,white,flipped triangle
84.0,2.0,1.0,0.0,2.0,2.0,495.0230020003801,4.0,1.0,phase_1,,,,,,,,,,,,,magenta,hexagon
101.0,6.0,1.0,1.0,3.0,3.0,380.0857210007962,4.0,1.0,phase_1,,,,,,,,,,,,,gray,I
37.0,5.0,0.5,1.0,3.0,3.0,358.6675400001695,4.0,1.0,phase_1,,,,,,,,,,,,,cyan,circle
225.0,3.0,2.0,0.0,1.0,1.0,351.9618650007032,4.0,1.0,phase_1,,,,,,,,,,,,,green,square
0.0,7.0,0.0,1.0,4.0,4.0,313.7862349994975,4.0,1.0,phase_1,,,,,,,,,,,,,yellow,cross
0.0,8.0,0.0,1.0,3.0,3.0,361.828910999975,4.0,1.0,phase_1,,,,,,,,,,,,,white,flipped triangle
215.0,7.0,2.0,1.0,3.0,3.0,362.2486509993905,4.0,1.0,phase_1,,,,,,,,,,,,,yellow,cross
399.0,8.0,4.0,1.0,3.0,3.0,412.7183089985919,4.0,1.0,phase_1,,,,,,,,,,,,,white,flipped triangle
381.0,8.0,4.0,1.0,4.0,4.0,353.0978190010501,4.0,1.0,phase_1,,,,,,,,,,,,,white,flipped triangle
406.0,8.0,4.0,1.0,2.0,2.0,357.6778390015533,4.0,1.0,phase_1,,,,,,,,,,,,,white,flipped triangle
0.0,1.0,0.0,0.0,4.0,4.0,350.2142559991625,4.0,1.0,phase_1,,,,,,,,,,,,,blue,triangle
417.0,8.0,4.0,1.0,2.0,2.0,356.2173179998353,4.0,1.0,phase_1,,,,,,,,,,,,,white,flipped triangle
31.0,1.0,0.5,0.0,4.0,4.0,366.2118339998415,4.0,1.0,phase_1,,,,,,,,,,,,,blue,triangle
54.0,5.0,0.5,1.0,4.0,4.0,402.9959769995912,4.0,1.0,phase_1,,,,,,,,,,,,,cyan,circle
399.0,8.0,4.0,1.0,1.0,1.0,390.3513080003904,4.0,1.0,phase_1,,,,,,,,,,,,,white,flipped triangle
88.0,6.0,1.0,1.0,4.0,4.0,340.0500870011456,4.0,1.0,phase_1,,,,,,,,,,,,,gray,I
0.0,4.0,4.0,0.0,6.0,6.0,357.3696149996976,1.0,1.0,phase_2,go,250.0,250.0,1.0,,,,,,,,,orange,diamond
0.0,3.0,2.0,0.0,5.0,5.0,528.4335079995799,1.0,1.0,phase_2,go,250.0,250.0,1.0,,,,,,,,,green,square
0.0,5.0,0.5,1.0,6.0,6.0,397.0637129987153,1.0,1.0,phase_2,stop,250.0,250.0,3.0,,,,,,,,,cyan,circle
0.0,4.0,4.0,0.0,5.0,5.0,388.1707479995384,1.0,1.0,phase_2,go,250.0,200.0,1.0,,,,,,,,,orange,diamond
0.0,5.0,0.5,1.0,6.0,6.0,305.5494940017524,1.0,1.0,phase_2,stop,250.0,200.0,3.0,,,,,,,,,cyan,circle
0.0,1.0,0.5,0.0,6.0,6.0,506.8338159999257,1.0,1.0,phase_2,go,250.0,150.0,1.0,,,,,,,,,blue,triangle
0.0,1.0,0.5,0.0,5.0,5.0,458.044647000861,1.0,1.0,phase_2,go,250.0,150.0,1.0,,,,,,,,,blue,triangle
0.0,5.0,0.5,1.0,6.0,6.0,369.2658849995496,1.0,1.0,phase_2,stop,250.0,150.0,3.0,,,,,,,,,cyan,circle
0.0,8.0,4.0,1.0,6.0,0.0,0.0,1.0,1.0,phase_2,stop,250.0,100.0,4.0,,,,,,,,,white,flipped triangle
0.0,6.0,1.0,1.0,5.0,5.0,537.6077959990653,1.0,1.0,phase_2,go,250.0,150.0,1.0,,,,,,,,,gray,I
0.0,3.0,2.0,0.0,6.0,6.0,696.1911720009084,1.0,1.0,phase_2,go,250.0,150.0,1.0,,,,,,,,,green,square
0.0,7.0,2.0,1.0,6.0,6.0,529.0006689992879,1.0,1.0,phase_2,go,250.0,150.0,1.0,,,,,,,,,yellow,cross
0.0,2.0,1.0,0.0,5.0,5.0,552.2602349992667,1.0,1.0,phase_2,go,250.0,150.0,1.0,,,,,,,,,magenta,hexagon
0.0,7.0,2.0,1.0,6.0,0.0,0.0,1.0,1.0,phase_2,stop,250.0,150.0,4.0,,,,,,,,,yellow,cross
0.0,5.0,0.5,1.0,6.0,0.0,0.0,1.0,1.0,phase_2,stop,250.0,200.0,4.0,,,,,,,,,cyan,circle
0.0,6.0,1.0,1.0,6.0,0.0,0.0,1.0,1.0,phase_2,stop,250.0,250.0,4.0,,,,,,,,,gray,I
0.0,7.0,2.0,1.0,5.0,5.0,498.9313080004649,1.0,1.0,phase_2,go,250.0,300.0,1.0,,,,,,,,,yellow,cross
0.0,2.0,1.0,0.0,5.0,5.0,495.8675229991058,1.0,1.0,phase_2,go,250.0,300.0,1.0,,,,,,,,,magenta,hexagon
0.0,8.0,4.0,1.0,6.0,6.0,527.029754999603,1.0,1.0,phase_2,go,250.0,300.0,1.0,,,,,,,,,white,flipped triangle
0.0,5.0,0.5,1.0,6.0,0.0,0.0,1.0,1.0,phase_2,stop,250.0,300.0,4.0,,,,,,,,,cyan,circle
0.0,8.0,4.0,1.0,5.0,5.0,552.1402330014098,1.0,1.0,phase_2,go,250.0,350.0,1.0,,,,,,,,,white,flipped triangle
0.0,5.0,0.5,1.0,5.0,0.0,0.0,1.0,1.0,phase_2,stop,250.0,350.0,4.0,,,,,,,,,cyan,circle
0.0,3.0,2.0,0.0,5.0,5.0,629.4915440012119,1.0,1.0,phase_2,go,300.0,350.0,1.0,,,,,,,,,green,square
0.0,7.0,2.0,1.0,6.0,0.0,0.0,1.0,1.0,phase_2,stop,300.0,350.0,4.0,,,,,,,,,yellow,cross
0.0,6.0,1.0,1.0,6.0,6.0,524.3386270012707,1.0,1.0,phase_2,stop,300.0,400.0,3.0,,,,,,,,,gray,I
0.0,6.0,1.0,1.0,5.0,0.0,0.0,1.0,1.0,phase_2,stop,300.0,350.0,4.0,,,,,,,,,gray,I
0.0,2.0,1.0,0.0,6.0,6.0,456.9069720000698,1.0,1.0,phase_2,go,350.0,350.0,1.0,,,,,,,,,magenta,hexagon
0.0,5.0,0.5,1.0,6.0,0.0,0.0,1.0,1.0,phase_2,stop,350.0,350.0,4.0,,,,,,,,,cyan,circle
0.0,7.0,2.0,1.0,5.0,0.0,0.0,1.0,1.0,phase_2,stop,350.0,400.0,4.0,,,,,,,,,yellow,cross
0.0,6.0,1.0,1.0,6.0,6.0,499.6174879997852,1.0,1.0,phase_2,go,400.0,400.0,1.0,,,,,,,,,gray,I
0.0,2.0,1.0,0.0,6.0,6.0,811.1452299999655,1.0,1.0,phase_2,go,400.0,400.0,1.0,,,,,,,,,magenta,hexagon
0.0,2.0,1.0,0.0,5.0,5.0,481.9749210000736,1.0,1.0,phase_2,go,400.0,400.0,1.0,,,,,,,,,magenta,hexagon
0.0,8.0,4.0,1.0,5.0,5.0,595.7867159995658,1.0,1.0,phase_2,go,400.0,400.0,1.0,,,,,,,,,white,flipped triangle
0.0,2.0,1.0,0.0,5.0,5.0,467.5489349992858,1.0,1.0,phase_2,go,400.0,400.0,1.0,,,,,,,,,magenta,hexagon
0.0,1.0,0.5,0.0,6.0,6.0,403.422043998944,1.0,1.0,phase_2,go,400.0,400.0,1.0,,,,,,,,,blue,triangle
0.0,2.0,1.0,0.0,6.0,6.0,513.0500480008777,1.0,1.0,phase_2,go,400.0,400.0,1.0,,,,,,,,,magenta,hexagon
0.0,7.0,2.0,1.0,5.0,5.0,469.1756840002199,2.0,1.0,phase_2,stop,400.0,400.0,3.0,,,,,,,,,yellow,cross
0.0,3.0,2.0,0.0,6.0,6.0,511.850749999212,2.0,1.0,phase_2,go,350.0,400.0,1.0,,,,,,,,,green,square
0.0,1.0,0.5,0.0,5.0,5.0,449.892914000884,2.0,1.0,phase_2,go,350.0,400.0,1.0,,,,,,,,,blue,triangle
0.0,4.0,4.0,0.0,6.0,6.0,569.2079590007779,2.0,1.0,phase_2,go,350.0,400.0,1.0,,,,,,,,,orange,diamond
0.0,5.0,0.5,1.0,5.0,0.0,0.0,2.0,1.0,phase_2,stop,350.0,400.0,4.0,,,,,,,,,cyan,circle
0.0,5.0,0.5,1.0,5.0,5.0,473.0812939997122,2.0,1.0,phase_2,stop,400.0,400.0,3.0,,,,,,,,,cyan,circle
0.0,3.0,2.0,0.0,5.0,5.0,645.5196059996524,2.0,1.0,phase_2,go,350.0,400.0,1.0,,,,,,,,,green,square
0.0,2.0,1.0,0.0,6.0,6.0,632.1177879999595,2.0,1.0,phase_2,go,350.0,400.0,1.0,,,,,,,,,magenta,hexagon
0.0,8.0,4.0,1.0,5.0,5.0,422.2776379992865,2.0,1.0,phase_2,stop,350.0,400.0,3.0,,,,,,,,,white,flipped triangle
0.0,7.0,2.0,1.0,6.0,0.0,0.0,2.0,1.0,phase_2,stop,300.0,400.0,4.0,,,,,,,,,yellow,cross
0.0,5.0,0.5,1.0,6.0,0.0,0.0,2.0,1.0,phase_2,stop,300.0,450.0,4.0,,,,,,,,,cyan,circle
0.0,1.0,0.5,0.0,5.0,5.0,665.1164739996602,2.0,1.0,phase_2,go,300.0,500.0,1.0,,,,,,,,,blue,triangle
0.0,6.0,1.0,1.0,5.0,0.0,0.0,2.0,1.0,phase_2,stop,300.0,500.0,4.0,,,,,,,,,gray,I
0.0,7.0,2.0,1.0,5.0,0.0,0.0,2.0,1.0,phase_2,stop,350.0,500.0,4.0,,,,,,,,,yellow,cross
0.0,2.0,1.0,0.0,5.0,5.0,784.1094440009329,2.0,1.0,phase_2,go,400.0,500.0,1.0,,,,,,,,,magenta,hexagon
0.0,2.0,1.0,0.0,6.0,6.0,431.644251999387,2.0,1.0,phase_2,go,400.0,500.0,1.0,,,,,,,,,magenta,hexagon
0.0,8.0,4.0,1.0,5.0,5.0,577.883608000775,2.0,1.0,phase_2,stop,400.0,500.0,3.0,,,,,,,,,white,flipped triangle
0.0,8.0,4.0,1.0,6.0,6.0,607.7315550010098,2.0,1.0,phase_2,stop,350.0,500.0,3.0,,,,,,,,,white,flipped triangle
0.0,7.0,2.0,1.0,5.0,0.0,0.0,2.0,1.0,phase_2,stop,350.0,450.0,4.0,,,,,,,,,yellow,cross
0.0,2.0,1.0,0.0,5.0,5.0,645.2638589998969,2.0,1.0,phase_2,go,400.0,450.0,1.0,,,,,,,,,magenta,hexagon
0.0,4.0,4.0,0.0,6.0,6.0,691.0697020011867,2.0,1.0,phase_2,go,400.0,450.0,1.0,,,,,,,,,orange,diamond
0.0,8.0,4.0,1.0,6.0,0.0,0.0,2.0,1.0,phase_2,stop,400.0,450.0,4.0,,,,,,,,,white,flipped triangle
0.0,2.0,1.0,0.0,6.0,6.0,631.3011580004968,2.0,1.0,phase_2,go,400.0,500.0,1.0,,,,,,,,,magenta,hexagon
0.0,6.0,1.0,1.0,6.0,6.0,583.1815279998409,2.0,1.0,phase_2,stop,400.0,500.0,3.0,,,,,,,,,gray,I
0.0,7.0,2.0,1.0,5.0,0.0,0.0,2.0,1.0,phase_2,stop,400.0,450.0,4.0,,,,,,,,,yellow,cross
0.0,2.0,1.0,0.0,6.0,6.0,568.5100399987277,2.0,1.0,phase_2,go,450.0,450.0,1.0,,,,,,,,,magenta,hexagon
0.0,1.0,0.5,0.0,5.0,5.0,756.0111980001238,2.0,1.0,phase_2,go,450.0,450.0,1.0,,,,,,,,,blue,triangle
0.0,4.0,4.0,0.0,6.0,6.0,684.9401560011756,2.0,1.0,phase_2,go,450.0,450.0,1.0,,,,,,,,,orange,diamond
0.0,1.0,0.5,0.0,6.0,6.0,488.93969799974,2.0,1.0,phase_2,go,450.0,450.0,1.0,,,,,,,,,blue,triangle
0.0,8.0,4.0,1.0,5.0,0.0,0.0,2.0,1.0,phase_2,stop,450.0,450.0,4.0,,,,,,,,,white,flipped triangle
0.0,2.0,1.0,0.0,5.0,5.0,512.2913830000471,2.0,1.0,phase_2,go,500.0,450.0,1.0,,,,,,,,,magenta,hexagon
0.0,7.0,2.0,1.0,5.0,5.0,536.4088540009107,2.0,1.0,phase_2,stop,500.0,450.0,3.0,,,,,,,,,yellow,cross
0.0,2.0,1.0,0.0,6.0,6.0,494.3134290006128,2.0,1.0,phase_2,go,450.0,450.0,1.0,,,,,,,,,magenta,hexagon
0.0,2.0,1.0,0.0,5.0,5.0,588.6892170001374,2.0,1.0,phase_2,go,450.0,450.0,1.0,,,,,,,,,magenta,hexagon
0.0,3.0,2.0,0.0,5.0,5.0,625.6191490010679,2.0,1.0,phase_2,go,450.0,450.0,1.0,,,,,,,,,green,square
0.0,8.0,4.0,1.0,6.0,6.0,1065.4497039995476,2.0,1.0,phase_2,go,450.0,450.0,1.0,,,,,,,,,white,flipped triangle
0.0,3.0,2.0,0.0,6.0,6.0,553.4292739994271,3.0,1.0,phase_2,go,450.0,450.0,1.0,,,,,,,,,green,square
0.0,5.0,0.5,1.0,6.0,6.0,660.8027339989349,3.0,1.0,phase_2,go,450.0,450.0,1.0,,,,,,,,,cyan,circle
0.0,7.0,2.0,1.0,6.0,6.0,353.0847400015773,3.0,1.0,phase_2,stop,450.0,450.0,3.0,,,,,,,,,yellow,cross
0.0,1.0,0.5,0.0,5.0,5.0,513.0282589998387,3.0,1.0,phase_2,go,450.0,400.0,1.0,,,,,,,,,blue,triangle
0.0,6.0,1.0,1.0,5.0,5.0,536.9688069986296,3.0,1.0,phase_2,go,450.0,400.0,1.0,,,,,,,,,gray,I
0.0,1.0,0.5,0.0,5.0,5.0,505.4494629985129,3.0,1.0,phase_2,go,450.0,400.0,1.0,,,,,,,,,blue,triangle
0.0,4.0,4.0,0.0,5.0,5.0,671.2276770012977,3.0,1.0,phase_2,go,450.0,400.0,1.0,,,,,,,,,orange,diamond
0.0,1.0,0.5,0.0,5.0,5.0,613.8028599998506,3.0,1.0,phase_2,go,450.0,400.0,1.0,,,,,,,,,blue,triangle
0.0,4.0,4.0,0.0,6.0,6.0,549.5925769992027,3.0,1.0,phase_2,go,450.0,400.0,1.0,,,,,,,,,orange,diamond
0.0,4.0,4.0,0.0,6.0,6.0,307.6356360015779,3.0,1.0,phase_2,go,450.0,400.0,1.0,,,,,,,,,orange,diamond
0.0,3.0,2.0,0.0,6.0,6.0,337.0286080007645,3.0,1.0,phase_2,go,450.0,400.0,1.0,,,,,,,,,green,square
0.0,3.0,2.0,0.0,5.0,5.0,545.3105369997502,3.0,1.0,phase_2,go,450.0,400.0,1.0,,,,,,,,,green,square
0.0,5.0,0.5,1.0,5.0,5.0,443.5778349998145,3.0,1.0,phase_2,stop,450.0,400.0,3.0,,,,,,,,,cyan,circle
0.0,5.0,0.5,1.0,5.0,5.0,548.1995570007712,3.0,1.0,phase_2,stop,400.0,400.0,3.0,,,,,,,,,cyan,circle
0.0,1.0,0.5,0.0,6.0,6.0,977.7571670001636,3.0,1.0,phase_2,go,350.0,400.0,1.0,,,,,,,,,blue,triangle
0.0,1.0,0.5,0.0,5.0,5.0,631.6793930000131,3.0,1.0,phase_2,go,350.0,400.0,1.0,,,,,,,,,blue,triangle
0.0,4.0,4.0,0.0,5.0,5.0,710.5071839996526,3.0,1.0,phase_2,go,350.0,400.0,1.0,,,,,,,,,orange,diamond
0.0,1.0,0.5,0.0,6.0,6.0,604.8385700014478,3.0,1.0,phase_2,go,350.0,400.0,1.0,,,,,,,,,blue,triangle
0.0,2.0,1.0,0.0,6.0,6.0,427.6556519998848,3.0,1.0,phase_2,go,350.0,400.0,1.0,,,,,,,,,magenta,hexagon
0.0,8.0,4.0,1.0,6.0,0.0,0.0,3.0,1.0,phase_2,stop,350.0,400.0,4.0,,,,,,,,,white,flipped triangle
0.0,5.0,0.5,1.0,5.0,5.0,767.1431729995675,3.0,1.0,phase_2,go,350.0,450.0,1.0,,,,,,,,,cyan,circle
0.0,5.0,0.5,1.0,5.0,0.0,0.0,3.0,1.0,phase_2,stop,350.0,450.0,4.0,,,,,,,,,cyan,circle
0.0,1.0,0.5,0.0,6.0,6.0,514.1562499993597,3.0,1.0,phase_2,go,400.0,450.0,1.0,,,,,,,,,blue,triangle
0.0,8.0,4.0,1.0,5.0,0.0,0.0,3.0,1.0,phase_2,stop,400.0,450.0,4.0,,,,,,,,,white,flipped triangle
0.0,5.0,0.5,1.0,6.0,6.0,684.3397140000889,3.0,1.0,phase_2,go,450.0,450.0,1.0,,,,,,,,,cyan,circle
0.0,8.0,4.0,1.0,5.0,0.0,0.0,3.0,1.0,phase_2,stop,450.0,450.0,4.0,,,,,,,,,white,flipped triangle
0.0,6.0,1.0,1.0,6.0,6.0,488.9289109996753,3.0,1.0,phase_2,stop,500.0,450.0,3.0,,,,,,,,,gray,I
0.0,3.0,2.0,0.0,5.0,5.0,520.2561070000229,3.0,1.0,phase_2,go,500.0,400.0,1.0,,,,,,,,,green,square
0.0,3.0,2.0,0.0,6.0,6.0,595.7423349991586,3.0,1.0,phase_2,go,500.0,400.0,1.0,,,,,,,,,green,square
0.0,4.0,4.0,0.0,6.0,6.0,433.3148540008551,3.0,1.0,phase_2,go,500.0,400.0,1.0,,,,,,,,,orange,diamond
0.0,4.0,4.0,0.0,6.0,6.0,342.9768480000348,3.0,1.0,phase_2,go,500.0,400.0,1.0,,,,,,,,,orange,diamond
0.0,4.0,4.0,0.0,6.0,6.0,345.6221160013228,3.0,1.0,phase_2,go,500.0,400.0,1.0,,,,,,,,,orange,diamond
0.0,3.0,2.0,0.0,5.0,5.0,373.1498260003718,3.0,1.0,phase_2,go,500.0,400.0,1.0,,,,,,,,,green,square
0.0,8.0,4.0,1.0,5.0,0.0,0.0,3.0,1.0,phase_2,stop,500.0,400.0,4.0,,,,,,,,,white,flipped triangle
0.0,3.0,2.0,0.0,6.0,6.0,464.5487969992246,3.0,1.0,phase_2,go,550.0,400.0,1.0,,,,,,,,,green,square
0.0,5.0,0.5,1.0,5.0,5.0,615.875755000161,3.0,1.0,phase_2,stop,550.0,400.0,3.0,,,,,,,,,cyan,circle
0.0,7.0,2.0,1.0,6.0,6.0,432.8395450011157,4.0,1.0,phase_2,stop,500.0,400.0,3.0,,,,,,,,,yellow,cross
0.0,8.0,4.0,1.0,6.0,6.0,725.0023199994757,4.0,1.0,phase_2,go,500.0,350.0,1.0,,,,,,,,,white,flipped triangle
0.0,6.0,1.0,1.0,5.0,5.0,600.2674669998669,4.0,1.0,phase_2,stop,500.0,350.0,3.0,,,,,,,,,gray,I
0.0,3.0,2.0,0.0,6.0,6.0,609.7486400012713,4.0,1.0,phase_2,go,450.0,350.0,1.0,,,,,,,,,green,square
0.0,2.0,1.0,0.0,5.0,5.0,496.1906999997154,4.0,1.0,phase_2,go,450.0,350.0,1.0,,,,,,,,,magenta,hexagon
0.0,3.0,2.0,0.0,6.0,6.0,608.0675250013883,4.0,1.0,phase_2,go,450.0,350.0,1.0,,,,,,,,,green,square
0.0,7.0,2.0,1.0,5.0,5.0,315.0226610014215,4.0,1.0,phase_2,stop,450.0,350.0,3.0,,,,,,,,,yellow,cross
0.0,3.0,2.0,0.0,5.0,5.0,447.7563259988528,4.0,1.0,phase_2,go,400.0,350.0,1.0,,,,,,,,,green,square
0.0,4.0,4.0,0.0,6.0,6.0,449.7974259993498,4.0,1.0,phase_2,go,400.0,350.0,1.0,,,,,,,,,orange,diamond
0.0,2.0,1.0,0.0,5.0,5.0,481.8902810002328,4.0,1.0,phase_2,go,400.0,350.0,1.0,,,,,,,,,magenta,hexagon
0.0,6.0,1.0,1.0,5.0,5.0,497.7856040004553,4.0,1.0,phase_2,stop,400.0,350.0,3.0,,,,,,,,,gray,I
0.0,4.0,4.0,0.0,5.0,5.0,459.9966540008608,4.0,1.0,phase_2,go,350.0,350.0,1.0,,,,,,,,,orange,diamond
0.0,3.0,2.0,0.0,5.0,5.0,411.1566859992308,4.0,1.0,phase_2,go,350.0,350.0,1.0,,,,,,,,,green,square
0.0,6.0,1.0,1.0,6.0,6.0,798.6501889990905,4.0,1.0,phase_2,go,350.0,350.0,1.0,,,,,,,,,gray,I
0.0,4.0,4.0,0.0,6.0,6.0,467.25564100052,4.0,1.0,phase_2,go,350.0,350.0,1.0,,,,,,,,,orange,diamond
0.0,2.0,1.0,0.0,5.0,5.0,457.3939609999797,4.0,1.0,phase_2,go,350.0,350.0,1.0,,,,,,,,,magenta,hexagon
0.0,1.0,0.5,0.0,6.0,6.0,369.9952389997634,4.0,1.0,phase_2,go,350.0,350.0,1.0,,,,,,,,,blue,triangle
0.0,4.0,4.0,0.0,5.0,5.0,525.677325000288,4.0,1.0,phase_2,go,350.0,350.0,1.0,,,,,,,,,orange,diamond
0.0,4.0,4.0,0.0,6.0,6.0,470.5422979986906,4.0,1.0,phase_2,go,350.0,350.0,1.0,,,,,,,,,orange,diamond
0.0,7.0,2.0,1.0,5.0,0.0,0.0,4.0,1.0,phase_2,stop,350.0,350.0,4.0,,,,,,,,,yellow,cross
0.0,2.0,1.0,0.0,6.0,6.0,369.6680289995129,4.0,1.0,phase_2,go,400.0,350.0,1.0,,,,,,,,,magenta,hexagon
0.0,3.0,2.0,0.0,5.0,5.0,458.3234590008942,4.0,1.0,phase_2,go,400.0,350.0,1.0,,,,,,,,,green,square
0.0,8.0,4.0,1.0,6.0,0.0,0.0,4.0,1.0,phase_2,stop,400.0,350.0,4.0,,,,,,,,,white,flipped triangle
0.0,4.0,4.0,0.0,5.0,5.0,448.9332440007274,4.0,1.0,phase_2,go,400.0,400.0,1.0,,,,,,,,,orange,diamond
0.0,8.0,4.0,1.0,6.0,6.0,793.7213889999839,4.0,1.0,phase_2,go,400.0,400.0,1.0,,,,,,,,,white,flipped triangle
0.0,1.0,0.5,0.0,6.0,6.0,472.2925229998509,4.0,1.0,phase_2,go,400.0,400.0,1.0,,,,,,,,,blue,triangle
0.0,4.0,4.0,0.0,6.0,6.0,459.2419149994384,4.0,1.0,phase_2,go,400.0,400.0,1.0,,,,,,,,,orange,diamond
0.0,2.0,1.0,0.0,5.0,5.0,336.4358869985153,4.0,1.0,phase_2,go,400.0,400.0,1.0,,,,,,,,,magenta,hexagon
0.0,5.0,0.5,1.0,5.0,5.0,371.5352769995661,4.0,1.0,phase_2,go,400.0,400.0,1.0,,,,,,,,,cyan,circle
0.0,7.0,2.0,1.0,6.0,0.0,0.0,4.0,1.0,phase_2,stop,400.0,400.0,4.0,,,,,,,,,yellow,cross
0.0,4.0,4.0,0.0,5.0,5.0,436.8210760003421,4.0,1.0,phase_2,go,400.0,450.0,1.0,,,,,,,,,orange,diamond
0.0,6.0,1.0,1.0,5.0,0.0,0.0,4.0,1.0,phase_2,stop,400.0,450.0,4.0,,,,,,,,,gray,I
0.0,6.0,1.0,1.0,6.0,0.0,0.0,4.0,1.0,phase_2,stop,450.0,450.0,4.0,,,,,,,,,gray,I
0.0,6.0,1.0,1.0,5.0,0.0,0.0,4.0,1.0,phase_2,stop,450.0,500.0,4.0,,,,,,,,,gray,I
0.0,2.0,1.0,0.0,6.0,6.0,507.80282099913165,4.0,1.0,phase_2,go,500.0,500.0,1.0,,,,,,,,,magenta,hexagon
0.0,7.0,2.0,1.0,5.0,0.0,0.0,4.0,1.0,phase_2,stop,500.0,500.0,4.0,,,,,,,,,yellow,cross
0.0,3.0,2.0,0.0,6.0,6.0,351.3223690006271,5.0,1.0,phase_2,go,550.0,500.0,1.0,,,,,,,,,green,square
0.0,4.0,4.0,0.0,5.0,5.0,433.7741599993023,5.0,1.0,phase_2,go,550.0,500.0,1.0,,,,,,,,,orange,diamond
0.0,8.0,4.0,1.0,6.0,6.0,648.4306239999569,5.0,1.0,phase_2,stop,550.0,500.0,3.0,,,,,,,,,white,flipped triangle
0.0,8.0,4.0,1.0,5.0,5.0,791.8858529992576,5.0,1.0,phase_2,go,550.0,450.0,1.0,,,,,,,,,white,flipped triangle
0.0,6.0,1.0,1.0,6.0,0.0,0.0,5.0,1.0,phase_2,stop,550.0,450.0,4.0,,,,,,,,,gray,I
0.0,3.0,2.0,0.0,6.0,6.0,468.60635199846,5.0,1.0,phase_2,go,550.0,500.0,1.0,,,,,,,,,green,square
0.0,6.0,1.0,1.0,6.0,0.0,0.0,5.0,1.0,phase_2,stop,550.0,500.0,4.0,,,,,,,,,gray,I
0.0,7.0,2.0,1.0,6.0,6.0,719.4557479997457,5.0,1.0,phase_2,go,550.0,550.0,1.0,,,,,,,,,yellow,cross
0.0,5.0,0.5,1.0,5.0,5.0,505.3009209987067,5.0,1.0,phase_2,stop,550.0,550.0,3.0,,,,,,,,,cyan,circle
0.0,8.0,4.0,1.0,5.0,0.0,0.0,5.0,1.0,phase_2,stop,500.0,550.0,4.0,,,,,,,,,white,flipped triangle
0.0,5.0,0.5,1.0,6.0,6.0,490.4429340003844,5.0,1.0,phase_2,stop,550.0,550.0,3.0,,,,,,,,,cyan,circle
0.0,4.0,4.0,0.0,6.0,6.0,591.969324999809,5.0,1.0,phase_2,go,550.0,500.0,1.0,,,,,,,,,orange,diamond
0.0,7.0,2.0,1.0,5.0,5.0,936.0909360002552,5.0,1.0,phase_2,go,550.0,500.0,1.0,,,,,,,,,yellow,cross
0.0,3.0,2.0,0.0,5.0,5.0,416.6087590001552,5.0,1.0,phase_2,go,550.0,500.0,1.0,,,,,,,,,green,square
0.0,2.0,1.0,0.0,5.0,5.0,477.1805529999255,5.0,1.0,phase_2,go,550.0,500.0,1.0,,,,,,,,,magenta,hexagon
0.0,2.0,1.0,0.0,5.0,5.0,376.338370000667,5.0,1.0,phase_2,go,550.0,500.0,1.0,,,,,,,,,magenta,hexagon
0.0,4.0,4.0,0.0,6.0,6.0,471.1162309995416,5.0,1.0,phase_2,go,550.0,500.0,1.0,,,,,,,,,orange,diamond
0.0,5.0,0.5,1.0,6.0,0.0,0.0,5.0,1.0,phase_2,stop,550.0,500.0,4.0,,,,,,,,,cyan,circle
0.0,1.0,0.5,0.0,5.0,5.0,502.50043000050937,5.0,1.0,phase_2,go,550.0,550.0,1.0,,,,,,,,,blue,triangle
0.0,1.0,0.5,0.0,5.0,5.0,372.0779219984251,5.0,1.0,phase_2,go,550.0,550.0,1.0,,,,,,,,,blue,triangle
0.0,7.0,2.0,1.0,6.0,0.0,0.0,5.0,1.0,phase_2,stop,550.0,550.0,4.0,,,,,,,,,yellow,cross
0.0,7.0,2.0,1.0,6.0,0.0,0.0,5.0,1.0,phase_2,stop,550.0,600.0,4.0,,,,,,,,,yellow,cross
0.0,6.0,1.0,1.0,5.0,0.0,0.0,5.0,1.0,phase_2,stop,550.0,650.0,4.0,,,,,,,,,gray,I
0.0,1.0,0.5,0.0,6.0,6.0,593.405272000382,5.0,1.0,phase_2,go,600.0,650.0,1.0,,,,,,,,,blue,triangle
0.0,6.0,1.0,1.0,6.0,6.0,977.2812490009528,5.0,1.0,phase_2,go,600.0,650.0,1.0,,,,,,,,,gray,I
0.0,5.0,0.5,1.0,5.0,5.0,704.8278170004778,5.0,1.0,phase_2,stop,600.0,650.0,3.0,,,,,,,,,cyan,circle
0.0,8.0,4.0,1.0,6.0,0.0,0.0,5.0,1.0,phase_2,stop,550.0,650.0,4.0,,,,,,,,,white,flipped triangle
0.0,3.0,2.0,0.0,6.0,6.0,553.1339440003649,5.0,1.0,phase_2,go,550.0,700.0,1.0,,,,,,,,,green,square
0.0,7.0,2.0,1.0,5.0,5.0,825.8140050002112,5.0,1.0,phase_2,go,550.0,700.0,1.0,,,,,,,,,yellow,cross
0.0,6.0,1.0,1.0,6.0,6.0,877.5480990007054,5.0,1.0,phase_2,go,550.0,700.0,1.0,,,,,,,,,gray,I
0.0,7.0,2.0,1.0,5.0,5.0,681.9642829996155,5.0,1.0,phase_2,stop,550.0,700.0,3.0,,,,,,,,,yellow,cross
0.0,8.0,4.0,1.0,5.0,0.0,0.0,5.0,1.0,phase_2,stop,500.0,700.0,4.0,,,,,,,,,white,flipped triangle
0.0,2.0,1.0,0.0,6.0,6.0,513.5388239996246,5.0,1.0,phase_2,go,550.0,700.0,1.0,,,,,,,,,magenta,hexagon
0.0,7.0,2.0,1.0,6.0,6.0,860.1292120001744,5.0,1.0,phase_2,go,550.0,700.0,1.0,,,,,,,,,yellow,cross
0.0,7.0,2.0,1.0,6.0,6.0,902.1717739997256,5.0,1.0,phase_2,go,550.0,700.0,1.0,,,,,,,,,yellow,cross
0.0,4.0,4.0,0.0,6.0,6.0,430.9324790010578,5.0,1.0,phase_2,go,550.0,700.0,1.0,,,,,,,,,orange,diamond
0.0,7.0,2.0,1.0,6.0,6.0,660.5760889997327,6.0,1.0,phase_2,go,550.0,700.0,1.0,,,,,,,,,yellow,cross
0.0,1.0,0.5,0.0,5.0,5.0,507.25294000039867,6.0,1.0,phase_2,go,550.0,700.0,1.0,,,,,,,,,blue,triangle
0.0,8.0,4.0,1.0,5.0,0.0,0.0,6.0,1.0,phase_2,stop,550.0,700.0,4.0,,,,,,,,,white,flipped triangle
0.0,2.0,1.0,0.0,6.0,6.0,432.2633390002011,6.0,1.0,phase_2,go,600.0,700.0,1.0,,,,,,,,,magenta,hexagon
0.0,8.0,4.0,1.0,6.0,6.0,774.8935489998985,6.0,1.0,phase_2,stop,600.0,700.0,3.0,,,,,,,,,white,flipped triangle
0.0,6.0,1.0,1.0,5.0,0.0,0.0,6.0,1.0,phase_2,stop,600.0,650.0,4.0,,,,,,,,,gray,I
0.0,1.0,0.5,0.0,6.0,6.0,536.8880169990007,6.0,1.0,phase_2,go,650.0,650.0,1.0,,,,,,,,,blue,triangle
0.0,4.0,4.0,0.0,5.0,5.0,509.1928059991915,6.0,1.0,phase_2,go,650.0,650.0,1.0,,,,,,,,,orange,diamond
0.0,6.0,1.0,1.0,6.0,0.0,0.0,6.0,1.0,phase_2,stop,650.0,650.0,4.0,,,,,,,,,gray,I
0.0,7.0,2.0,1.0,5.0,0.0,0.0,6.0,1.0,phase_2,stop,650.0,700.0,4.0,,,,,,,,,yellow,cross
0.0,5.0,0.5,1.0,5.0,5.0,803.6261630004446,6.0,1.0,phase_2,stop,700.0,700.0,3.0,,,,,,,,,cyan,circle
0.0,1.0,0.5,0.0,6.0,6.0,527.1562380003161,6.0,1.0,phase_2,go,650.0,700.0,1.0,,,,,,,,,blue,triangle
0.0,6.0,1.0,1.0,6.0,0.0,0.0,6.0,1.0,phase_2,stop,650.0,700.0,4.0,,,,,,,,,gray,I
0.0,7.0,2.0,1.0,6.0,0.0,0.0,6.0,1.0,phase_2,stop,650.0,750.0,4.0,,,,,,,,,yellow,cross
0.0,3.0,2.0,0.0,5.0,5.0,524.4625100003759,6.0,1.0,phase_2,go,650.0,800.0,1.0,,,,,,,,,green,square
0.0,7.0,2.0,1.0,6.0,6.0,948.7320349999208,6.0,1.0,phase_2,stop,650.0,800.0,3.0,,,,,,,,,yellow,cross
0.0,1.0,0.5,0.0,5.0,5.0,504.5578810004372,6.0,1.0,phase_2,go,650.0,750.0,1.0,,,,,,,,,blue,triangle
0.0,2.0,1.0,0.0,5.0,5.0,481.0481419990537,6.0,1.0,phase_2,go,650.0,750.0,1.0,,,,,,,,,magenta,hexagon
0.0,8.0,4.0,1.0,6.0,0.0,0.0,6.0,1.0,phase_2,stop,650.0,750.0,4.0,,,,,,,,,white,flipped triangle
0.0,5.0,0.5,1.0,6.0,0.0,0.0,6.0,1.0,phase_2,stop,650.0,800.0,4.0,,,,,,,,,cyan,circle
0.0,1.0,0.5,0.0,6.0,6.0,608.6740829996415,6.0,1.0,phase_2,go,650.0,850.0,1.0,,,,,,,,,blue,triangle
0.0,1.0,0.5,0.0,6.0,6.0,499.7275109999464,6.0,1.0,phase_2,go,650.0,850.0,1.0,,,,,,,,,blue,triangle
0.0,7.0,2.0,1.0,6.0,6.0,1217.043934000685,6.0,1.0,phase_2,go,650.0,850.0,1.0,,,,,,,,,yellow,cross
0.0,8.0,4.0,1.0,6.0,6.0,958.2798239989644,6.0,1.0,phase_2,go,650.0,850.0,1.0,,,,,,,,,white,flipped triangle
0.0,3.0,2.0,0.0,5.0,5.0,441.358977001073,6.0,1.0,phase_2,go,650.0,850.0,1.0,,,,,,,,,green,square
0.0,8.0,4.0,1.0,5.0,0.0,0.0,6.0,1.0,phase_2,stop,650.0,850.0,4.0,,,,,,,,,white,flipped triangle
0.0,2.0,1.0,0.0,6.0,6.0,501.26466199981223,6.0,1.0,phase_2,go,700.0,850.0,1.0,,,,,,,,,magenta,hexagon
0.0,8.0,4.0,1.0,6.0,6.0,832.0387120002124,6.0,1.0,phase_2,stop,700.0,850.0,3.0,,,,,,,,,white,flipped triangle
0.0,3.0,2.0,0.0,5.0,5.0,421.3092819991288,6.0,1.0,phase_2,go,700.0,800.0,1.0,,,,,,,,,green,square
0.0,6.0,1.0,1.0,6.0,6.0,939.367699000286,6.0,1.0,phase_2,stop,700.0,800.0,3.0,,,,,,,,,gray,I
0.0,3.0,2.0,0.0,5.0,5.0,484.0461849998974,6.0,1.0,phase_2,go,700.0,750.0,1.0,,,,,,,,,green,square
0.0,8.0,4.0,1.0,5.0,0.0,0.0,6.0,1.0,phase_2,stop,700.0,750.0,4.0,,,,,,,,,white,flipped triangle
0.0,6.0,1.0,1.0,5.0,0.0,0.0,6.0,1.0,phase_2,stop,750.0,750.0,4.0,,,,,,,,,gray,I
0.0,3.0,2.0,0.0,6.0,6.0,484.9018250006338,6.0,1.0,phase_2,go,800.0,750.0,1.0,,,,,,,,,green,square
0.0,6.0,1.0,1.0,6.0,0.0,0.0,6.0,1.0,phase_2,stop,800.0,750.0,4.0,,,,,,,,,gray,I
0.0,8.0,4.0,1.0,6.0,0.0,0.0,6.0,1.0,phase_2,stop,800.0,800.0,4.0,,,,,,,,,white,flipped triangle
0.0,6.0,1.0,1.0,5.0,5.0,1155.3973830014002,7.0,1.0,phase_2,go,800.0,850.0,1.0,,,,,,,,,gray,I
0.0,8.0,4.0,1.0,5.0,0.0,0.0,7.0,1.0,phase_2,stop,800.0,850.0,4.0,,,,,,,,,white,flipped triangle
0.0,5.0,0.5,1.0,6.0,0.0,0.0,7.0,1.0,phase_2,stop,850.0,850.0,4.0,,,,,,,,,cyan,circle
0.0,3.0,2.0,0.0,6.0,6.0,364.9029670013988,7.0,1.0,phase_2,go,850.0,900.0,1.0,,,,,,,,,green,square
0.0,7.0,2.0,1.0,6.0,6.0,802.8063220008335,7.0,1.0,phase_2,stop,850.0,900.0,3.0,,,,,,,,,yellow,cross
0.0,3.0,2.0,0.0,5.0,5.0,490.9238929994899,7.0,1.0,phase_2,go,850.0,850.0,1.0,,,,,,,,,green,square
0.0,4.0,4.0,0.0,5.0,5.0,466.1205820011673,7.0,1.0,phase_2,go,850.0,850.0,1.0,,,,,,,,,orange,diamond
0.0,1.0,0.5,0.0,5.0,5.0,624.9543120011367,7.0,1.0,phase_2,go,850.0,850.0,1.0,,,,,,,,,blue,triangle
0.0,7.0,2.0,1.0,5.0,0.0,0.0,7.0,1.0,phase_2,stop,850.0,850.0,4.0,,,,,,,,,yellow,cross
0.0,5.0,0.5,1.0,6.0,6.0,1320.0666150005418,7.0,1.0,phase_2,go,900.0,850.0,1.0,,,,,,,,,cyan,circle
0.0,5.0,0.5,1.0,6.0,6.0,464.2288110007939,7.0,1.0,phase_2,stop,900.0,850.0,3.0,,,,,,,,,cyan,circle
0.0,6.0,1.0,1.0,5.0,5.0,949.8955300005036,7.0,1.0,phase_2,stop,900.0,800.0,3.0,,,,,,,,,gray,I
0.0,1.0,0.5,0.0,5.0,5.0,459.0011059990502,7.0,1.0,phase_2,go,850.0,800.0,1.0,,,,,,,,,blue,triangle
0.0,6.0,1.0,1.0,6.0,6.0,859.4370589999016,7.0,1.0,phase_2,stop,850.0,800.0,3.0,,,,,,,,,gray,I
0.0,7.0,2.0,1.0,5.0,5.0,730.0730660008412,7.0,1.0,phase_2,stop,850.0,750.0,3.0,,,,,,,,,yellow,cross
0.0,2.0,1.0,0.0,6.0,6.0,479.3576430001849,7.0,1.0,phase_2,go,800.0,750.0,1.0,,,,,,,,,magenta,hexagon
0.0,5.0,0.5,1.0,5.0,5.0,745.319853998808,7.0,1.0,phase_2,go,800.0,750.0,1.0,,,,,,,,,cyan,circle
0.0,1.0,0.5,0.0,5.0,5.0,426.7815990006056,7.0,1.0,phase_2,go,800.0,750.0,1.0,,,,,,,,,blue,triangle
0.0,6.0,1.0,1.0,5.0,5.0,665.6336760006525,7.0,1.0,phase_2,stop,800.0,750.0,3.0,,,,,,,,,gray,I
0.0,5.0,0.5,1.0,6.0,6.0,471.9200390009064,7.0,1.0,phase_2,stop,750.0,750.0,3.0,,,,,,,,,cyan,circle
0.0,8.0,4.0,1.0,6.0,6.0,789.1267689992674,7.0,1.0,phase_2,stop,750.0,700.0,3.0,,,,,,,,,white,flipped triangle
0.0,3.0,2.0,0.0,6.0,6.0,476.3583019994257,7.0,1.0,phase_2,go,750.0,650.0,1.0,,,,,,,,,green,square
0.0,8.0,4.0,1.0,6.0,6.0,684.551875001489,7.0,1.0,phase_2,go,750.0,650.0,1.0,,,,,,,,,white,flipped triangle
0.0,4.0,4.0,0.0,5.0,5.0,374.497386999792,7.0,1.0,phase_2,go,750.0,650.0,1.0,,,,,,,,,orange,diamond
0.0,1.0,0.5,0.0,5.0,5.0,371.7051349995017,7.0,1.0,phase_2,go,750.0,650.0,1.0,,,,,,,,,blue,triangle
0.0,6.0,1.0,1.0,5.0,5.0,919.6142559994768,7.0,1.0,phase_2,stop,750.0,650.0,3.0,,,,,,,,,gray,I
0.0,1.0,0.5,0.0,5.0,5.0,437.8403490009077,7.0,1.0,phase_2,go,700.0,650.0,1.0,,,,,,,,,blue,triangle
0.0,6.0,1.0,1.0,5.0,5.0,1003.2666010010871,7.0,1.0,phase_2,go,700.0,650.0,1.0,,,,,,,,,gray,I
0.0,6.0,1.0,1.0,5.0,5.0,862.2305770004459,7.0,1.0,phase_2,stop,700.0,650.0,3.0,,,,,,,,,gray,I
0.0,1.0,0.5,0.0,6.0,6.0,446.3242679994437,7.0,1.0,phase_2,go,650.0,650.0,1.0,,,,,,,,,blue,triangle
0.0,1.0,0.5,0.0,6.0,6.0,412.9040780007926,7.0,1.0,phase_2,go,650.0,650.0,1.0,,,,,,,,,blue,triangle
0.0,8.0,4.0,1.0,5.0,0.0,0.0,7.0,1.0,phase_2,stop,650.0,650.0,4.0,,,,,,,,,white,flipped triangle
0.0,4.0,4.0,0.0,5.0,5.0,543.6339030002273,7.0,1.0,phase_2,go,700.0,650.0,1.0,,,,,,,,,orange,diamond
0.0,6.0,1.0,1.0,5.0,0.0,0.0,7.0,1.0,phase_2,stop,700.0,650.0,4.0,,,,,,,,,gray,I
0.0,2.0,1.0,0.0,5.0,5.0,495.5219170005875,7.0,1.0,phase_2,go,750.0,650.0,1.0,,,,,,,,,magenta,hexagon
0.0,4.0,4.0,0.0,6.0,6.0,419.7141439999541,7.0,1.0,phase_2,go,750.0,650.0,1.0,,,,,,,,,orange,diamond
0.0,6.0,1.0,1.0,6.0,6.0,893.5009279994119,8.0,1.0,phase_2,go,750.0,650.0,1.0,,,,,,,,,gray,I
0.0,2.0,1.0,0.0,6.0,6.0,414.2913270006829,8.0,1.0,phase_2,go,750.0,650.0,1.0,,,,,,,,,magenta,hexagon
0.0,1.0,0.5,0.0,5.0,5.0,394.7117199986678,8.0,1.0,phase_2,go,750.0,650.0,1.0,,,,,,,,,blue,triangle
0.0,3.0,2.0,0.0,6.0,6.0,496.7193270003918,8.0,1.0,phase_2,go,750.0,650.0,1.0,,,,,,,,,green,square
0.0,4.0,4.0,0.0,5.0,5.0,449.7089470005448,8.0,1.0,phase_2,go,750.0,650.0,1.0,,,,,,,,,orange,diamond
0.0,3.0,2.0,0.0,5.0,5.0,324.7425120007392,8.0,1.0,phase_2,go,750.0,650.0,1.0,,,,,,,,,green,square
0.0,1.0,0.5,0.0,6.0,6.0,386.9541959993512,8.0,1.0,phase_2,go,750.0,650.0,1.0,,,,,,,,,blue,triangle
0.0,8.0,4.0,1.0,5.0,5.0,846.8651210005191,8.0,1.0,phase_2,stop,750.0,650.0,3.0,,,,,,,,,white,flipped triangle
0.0,5.0,0.5,1.0,5.0,0.0,0.0,8.0,1.0,phase_2,stop,700.0,650.0,4.0,,,,,,,,,cyan,circle
0.0,1.0,0.5,0.0,6.0,6.0,522.5106159996358,8.0,1.0,phase_2,go,750.0,650.0,1.0,,,,,,,,,blue,triangle
0.0,8.0,4.0,1.0,5.0,0.0,0.0,8.0,1.0,phase_2,stop,750.0,650.0,4.0,,,,,,,,,white,flipped triangle
0.0,1.0,0.5,0.0,6.0,6.0,509.34050000068964,8.0,1.0,phase_2,go,800.0,650.0,1.0,,,,,,,,,blue,triangle
0.0,3.0,2.0,0.0,5.0,5.0,447.2719360001065,8.0,1.0,phase_2,go,800.0,650.0,1.0,,,,,,,,,green,square
0.0,4.0,4.0,0.0,5.0,5.0,407.4714669986861,8.0,1.0,phase_2,go,800.0,650.0,1.0,,,,,,,,,orange,diamond
0.0,5.0,0.5,1.0,5.0,5.0,400.7281380017957,8.0,1.0,phase_2,stop,800.0,650.0,3.0,,,,,,,,,cyan,circle
0.0,4.0,4.0,0.0,5.0,5.0,491.221135998785,8.0,1.0,phase_2,go,750.0,650.0,1.0,,,,,,,,,orange,diamond
0.0,5.0,0.5,1.0,5.0,5.0,1020.2174030000606,8.0,1.0,phase_2,go,750.0,650.0,1.0,,,,,,,,,cyan,circle
0.0,3.0,2.0,0.0,6.0,6.0,431.2808320009935,8.0,1.0,phase_2,go,750.0,650.0,1.0,,,,,,,,,green,square
0.0,2.0,1.0,0.0,5.0,5.0,475.0757060010073,8.0,1.0,phase_2,go,750.0,650.0,1.0,,,,,,,,,magenta,hexagon
0.0,2.0,1.0,0.0,6.0,6.0,396.207093999692,8.0,1.0,phase_2,go,750.0,650.0,1.0,,,,,,,,,magenta,hexagon
0.0,5.0,0.5,1.0,6.0,0.0,0.0,8.0,1.0,phase_2,stop,750.0,650.0,4.0,,,,,,,,,cyan,circle
0.0,4.0,4.0,0.0,5.0,5.0,468.7203909998061,8.0,1.0,phase_2,go,750.0,700.0,1.0,,,,,,,,,orange,diamond
0.0,4.0,4.0,0.0,5.0,5.0,400.5978250006592,8.0,1.0,phase_2,go,750.0,700.0,1.0,,,,,,,,,orange,diamond
0.0,4.0,4.0,0.0,5.0,5.0,327.3850549994677,8.0,1.0,phase_2,go,750.0,700.0,1.0,,,,,,,,,orange,diamond
0.0,3.0,2.0,0.0,6.0,6.0,368.1590189989947,8.0,1.0,phase_2,go,750.0,700.0,1.0,,,,,,,,,green,square
0.0,4.0,4.0,0.0,6.0,6.0,407.5250429996231,8.0,1.0,phase_2,go,750.0,700.0,1.0,,,,,,,,,orange,diamond
0.0,2.0,1.0,0.0,6.0,6.0,427.9411919997073,8.0,1.0,phase_2,go,750.0,700.0,1.0,,,,,,,,,magenta,hexagon
0.0,7.0,2.0,1.0,6.0,6.0,869.8607990008895,8.0,1.0,phase_2,stop,750.0,700.0,3.0,,,,,,,,,yellow,cross
0.0,6.0,1.0,1.0,6.0,0.0,0.0,8.0,1.0,phase_2,stop,750.0,650.0,4.0,,,,,,,,,gray,I
0.0,5.0,0.5,1.0,6.0,6.0,1062.140897000063,8.0,1.0,phase_2,go,750.0,700.0,1.0,,,,,,,,,cyan,circle
0.0,5.0,0.5,1.0,5.0,0.0,0.0,8.0,1.0,phase_2,stop,750.0,700.0,4.0,,,,,,,,,cyan,circle
0.0,7.0,2.0,1.0,5.0,0.0,0.0,8.0,1.0,phase_2,stop,800.0,700.0,4.0,,,,,,,,,yellow,cross
0.0,7.0,2.0,1.0,5.0,0.0,0.0,8.0,1.0,phase_2,stop,850.0,700.0,4.0,,,,,,,,,yellow,cross
0.0,5.0,0.5,1.0,5.0,5.0,986.0138869989896,8.0,1.0,phase_2,go,900.0,700.0,1.0,,,,,,,,,cyan,circle
0.0,2.0,1.0,0.0,5.0,5.0,461.4671730014379,8.0,1.0,phase_2,go,900.0,700.0,1.0,,,,,,,,,magenta,hexagon
0.0,3.0,2.0,0.0,6.0,6.0,386.2472479995631,8.0,1.0,phase_2,go,900.0,700.0,1.0,,,,,,,,,green,square
0.0,3.0,2.0,0.0,7.0,3.0,1837.2488120003252,1.0,1.0,phase_3,,,,,264.0,6.0,132.0,220.0,264.0,176.0,88.0,44.0,green,square
0.0,3.0,2.0,0.0,7.0,3.0,162.6568350002344,1.0,1.0,phase_3,,,,,34.0,1.0,204.0,68.0,34.0,170.0,102.0,136.0,green,square
0.0,6.0,1.0,1.0,7.0,1.0,2252.91452700003,1.0,1.0,phase_3,,,,,156.0,4.0,156.0,117.0,234.0,195.0,78.0,39.0,gray,I
0.0,4.0,4.0,0.0,7.0,6.0,1702.5278010005422,1.0,1.0,phase_3,,,,,98.0,2.0,147.0,196.0,49.0,245.0,294.0,98.0,orange,diamond
0.0,5.0,0.5,1.0,7.0,4.0,1555.689311999231,1.0,1.0,phase_3,,,,,220.0,5.0,44.0,132.0,176.0,220.0,264.0,88.0,cyan,circle
0.0,2.0,1.0,0.0,7.0,1.0,1316.9664750002994,1.0,1.0,phase_3,,,,,68.0,2.0,68.0,102.0,34.0,136.0,170.0,204.0,magenta,hexagon
0.0,5.0,0.5,1.0,7.0,1.0,1901.1736949996705,1.0,1.0,phase_3,,,,,195.0,5.0,195.0,156.0,234.0,117.0,39.0,78.0,cyan,circle
0.0,3.0,2.0,0.0,7.0,6.0,1088.1095040003856,1.0,1.0,phase_3,,,,,34.0,1.0,170.0,204.0,68.0,136.0,102.0,34.0,green,square
0.0,4.0,4.0,0.0,7.0,5.0,1642.9647370005114,1.0,1.0,phase_3,,,,,78.0,2.0,117.0,156.0,195.0,234.0,78.0,39.0,orange,diamond
0.0,8.0,4.0,1.0,7.0,4.0,2664.604550000149,1.0,1.0,phase_3,,,,,270.0,5.0,324.0,108.0,216.0,270.0,54.0,162.0,white,flipped triangle
0.0,4.0,4.0,0.0,7.0,3.0,2229.862897000203,1.0,1.0,phase_3,,,,,196.0,4.0,49.0,245.0,196.0,147.0,294.0,98.0,orange,diamond
0.0,7.0,2.0,1.0,7.0,5.0,2405.971858999692,1.0,1.0,phase_3,,,,,324.0,6.0,216.0,162.0,54.0,108.0,324.0,270.0,yellow,cross
0.0,1.0,0.5,0.0,7.0,2.0,1369.9956349992135,1.0,1.0,phase_3,,,,,98.0,2.0,245.0,98.0,294.0,196.0,49.0,147.0,blue,triangle
0.0,8.0,4.0,1.0,7.0,1.0,2287.244581000777,1.0,1.0,phase_3,,,,,195.0,5.0,195.0,39.0,234.0,117.0,78.0,156.0,white,flipped triangle
0.0,6.0,1.0,1.0,7.0,1.0,1741.482878998795,1.0,1.0,phase_3,,,,,176.0,4.0,176.0,132.0,264.0,220.0,88.0,44.0,gray,I
0.0,7.0,2.0,1.0,7.0,1.0,1584.8726059994078,1.0,1.0,phase_3,,,,,204.0,6.0,204.0,102.0,68.0,34.0,170.0,136.0,yellow,cross
0.0,3.0,2.0,0.0,7.0,4.0,1633.69111800057,1.0,1.0,phase_3,,,,,49.0,1.0,245.0,98.0,147.0,49.0,294.0,196.0,green,square
0.0,7.0,2.0,1.0,7.0,4.0,1744.8539229990274,1.0,1.0,phase_3,,,,,234.0,6.0,195.0,78.0,156.0,234.0,39.0,117.0,yellow,cross
0.0,7.0,2.0,1.0,7.0,4.0,952.502767999249,1.0,1.0,phase_3,,,,,234.0,6.0,195.0,78.0,39.0,234.0,156.0,117.0,yellow,cross
0.0,8.0,4.0,1.0,7.0,4.0,2430.4139639989444,1.0,1.0,phase_3,,,,,196.0,4.0,245.0,147.0,294.0,196.0,49.0,98.0,white,flipped triangle
0.0,1.0,0.5,0.0,7.0,6.0,1672.024651999891,2.0,1.0,phase_3,,,,,78.0,2.0,234.0,156.0,117.0,195.0,39.0,78.0,blue,triangle
0.0,6.0,1.0,1.0,7.0,6.0,2150.783527000385,2.0,1.0,phase_3,,,,,170.0,5.0,136.0,204.0,34.0,102.0,68.0,170.0,gray,I
0.0,2.0,1.0,0.0,7.0,6.0,1958.778721000272,2.0,1.0,phase_3,,,,,39.0,1.0,156.0,78.0,117.0,234.0,195.0,39.0,magenta,hexagon
0.0,7.0,2.0,1.0,7.0,1.0,1800.7925100009743,2.0,1.0,phase_3,,,,,294.0,6.0,294.0,245.0,49.0,196.0,98.0,147.0,yellow,cross
0.0,2.0,1.0,0.0,7.0,6.0,1713.6437839999417,2.0,1.0,phase_3,,,,,34.0,1.0,136.0,170.0,204.0,68.0,102.0,34.0,magenta,hexagon
0.0,2.0,1.0,0.0,7.0,5.0,2283.907585999259,2.0,1.0,phase_3,,,,,44.0,1.0,88.0,132.0,220.0,264.0,44.0,176.0,magenta,hexagon
0.0,1.0,0.5,0.0,7.0,5.0,2112.02450699966,2.0,1.0,phase_3,,,,,162.0,3.0,270.0,54.0,324.0,108.0,162.0,216.0,blue,triangle
0.0,8.0,4.0,1.0,7.0,5.0,1986.179077999623,2.0,1.0,phase_3,,,,,176.0,4.0,264.0,132.0,88.0,44.0,176.0,220.0,white,flipped triangle
0.0,7.0,2.0,1.0,7.0,5.0,1670.7915219994902,2.0,1.0,phase_3,,,,,264.0,6.0,176.0,220.0,44.0,132.0,264.0,88.0,yellow,cross
0.0,3.0,2.0,0.0,7.0,5.0,1608.6578270005705,2.0,1.0,phase_3,,,,,98.0,2.0,245.0,294.0,147.0,196.0,98.0,49.0,green,square
0.0,6.0,1.0,1.0,7.0,2.0,1868.2156610011589,2.0,1.0,phase_3,,,,,245.0,5.0,196.0,245.0,147.0,294.0,49.0,98.0,gray,I
0.0,5.0,0.5,1.0,7.0,3.0,1744.8858860007022,2.0,1.0,phase_3,,,,,156.0,4.0,39.0,117.0,156.0,234.0,78.0,195.0,cyan,circle
0.0,6.0,1.0,1.0,7.0,3.0,2258.5987050006224,2.0,1.0,phase_3,,,,,196.0,4.0,147.0,98.0,196.0,49.0,294.0,245.0,gray,I
0.0,4.0,4.0,0.0,7.0,6.0,1076.532011000381,2.0,1.0,phase_3,,,,,39.0,1.0,156.0,117.0,78.0,195.0,234.0,39.0,orange,diamond
0.0,2.0,1.0,0.0,7.0,6.0,2853.98871399957,2.0,1.0,phase_3,,,,,108.0,2.0,162.0,216.0,270.0,324.0,54.0,108.0,magenta,hexagon
0.0,6.0,1.0,1.0,7.0,1.0,2947.204781999972,2.0,1.0,phase_3,,,,,270.0,5.0,270.0,54.0,216.0,162.0,108.0,324.0,gray,I
0.0,2.0,1.0,0.0,7.0,5.0,1910.0123850003,2.0,1.0,phase_3,,,,,49.0,1.0,98.0,196.0,294.0,245.0,49.0,147.0,magenta,hexagon
0.0,5.0,0.5,1.0,7.0,5.0,1913.0091389997688,2.0,1.0,phase_3,,,,,170.0,5.0,68.0,136.0,102.0,204.0,170.0,34.0,cyan,circle
0.0,5.0,0.5,1.0,7.0,1.0,2713.6173930011864,2.0,1.0,phase_3,,,,,176.0,4.0,176.0,88.0,264.0,44.0,132.0,220.0,cyan,circle
0.0,1.0,0.5,0.0,7.0,3.0,1615.8768959994632,2.0,1.0,phase_3,,,,,68.0,2.0,102.0,204.0,68.0,136.0,34.0,170.0,blue,triangle
0.0,5.0,0.5,1.0,7.0,3.0,2183.276669999032,3.0,1.0,phase_3,,,,,162.0,3.0,216.0,108.0,162.0,324.0,54.0,270.0,cyan,circle
0.0,4.0,4.0,0.0,7.0,6.0,835.6198269993911,3.0,1.0,phase_3,,,,,34.0,1.0,102.0,68.0,170.0,204.0,136.0,34.0,orange,diamond
0.0,4.0,4.0,0.0,7.0,4.0,2298.8476310001715,3.0,1.0,phase_3,,,,,54.0,1.0,108.0,270.0,324.0,54.0,216.0,162.0,orange,diamond
0.0,1.0,0.5,0.0,7.0,5.0,2237.319440999272,3.0,1.0,phase_3,,,,,136.0,4.0,34.0,68.0,102.0,170.0,136.0,204.0,blue,triangle
0.0,5.0,0.5,1.0,7.0,2.0,1748.594960999981,3.0,1.0,phase_3,,,,,204.0,6.0,102.0,204.0,170.0,34.0,136.0,68.0,cyan,circle
0.0,2.0,1.0,0.0,7.0,5.0,1225.6616590002525,3.0,1.0,phase_3,,,,,54.0,1.0,270.0,216.0,162.0,108.0,54.0,324.0,magenta,hexagon
0.0,7.0,2.0,1.0,7.0,1.0,1943.0938410005183,3.0,1.0,phase_3,,,,,204.0,6.0,204.0,136.0,102.0,170.0,68.0,34.0,yellow,cross
0.0,8.0,4.0,1.0,7.0,5.0,2546.925642998758,3.0,1.0,phase_3,,,,,196.0,4.0,147.0,49.0,294.0,98.0,196.0,245.0,white,flipped triangle
0.0,4.0,4.0,0.0,7.0,1.0,1405.1362549998885,3.0,1.0,phase_3,,,,,54.0,1.0,54.0,270.0,216.0,324.0,108.0,162.0,orange,diamond
0.0,2.0,1.0,0.0,7.0,4.0,1629.8393279994343,3.0,1.0,phase_3,,,,,88.0,2.0,176.0,44.0,220.0,88.0,264.0,132.0,magenta,hexagon
0.0,3.0,2.0,0.0,7.0,4.0,1510.6825599996228,3.0,1.0,phase_3,,,,,44.0,1.0,264.0,220.0,132.0,44.0,88.0,176.0,green,square
0.0,3.0,2.0,0.0,7.0,3.0,2165.615379000883,3.0,1.0,phase_3,,,,,54.0,1.0,324.0,162.0,54.0,216.0,270.0,108.0,green,square
0.0,8.0,4.0,1.0,7.0,3.0,1758.8394839985997,3.0,1.0,phase_3,,,,,324.0,6.0,54.0,108.0,324.0,162.0,270.0,216.0,white,flipped triangle
0.0,5.0,0.5,1.0,7.0,2.0,2368.35108699961,3.0,1.0,phase_3,,,,,294.0,6.0,49.0,294.0,147.0,196.0,98.0,245.0,cyan,circle
0.0,7.0,2.0,1.0,7.0,2.0,1925.2924540014649,3.0,1.0,phase_3,,,,,264.0,6.0,132.0,264.0,176.0,220.0,44.0,88.0,yellow,cross
0.0,2.0,1.0,0.0,7.0,3.0,2345.257798000602,3.0,1.0,phase_3,,,,,39.0,1.0,195.0,117.0,39.0,156.0,234.0,78.0,magenta,hexagon
0.0,1.0,0.5,0.0,7.0,1.0,1871.6690860001108,3.0,1.0,phase_3,,,,,49.0,1.0,49.0,294.0,245.0,98.0,196.0,147.0,blue,triangle
0.0,4.0,4.0,0.0,7.0,5.0,1210.3561220010306,3.0,1.0,phase_3,,,,,44.0,1.0,264.0,176.0,220.0,132.0,44.0,88.0,orange,diamond
0.0,5.0,0.5,1.0,7.0,3.0,1958.7498270011563,3.0,1.0,phase_3,,,,,196.0,4.0,49.0,294.0,196.0,147.0,245.0,98.0,cyan,circle
0.0,6.0,1.0,1.0,7.0,3.0,1466.0060739988694,3.0,1.0,phase_3,,,,,204.0,6.0,170.0,34.0,204.0,136.0,68.0,102.0,gray,I
0.0,8.0,4.0,1.0,7.0,3.0,1740.6618860004528,4.0,1.0,phase_3,,,,,204.0,6.0,68.0,102.0,204.0,136.0,170.0,34.0,white,flipped triangle
0.0,8.0,4.0,1.0,7.0,4.0,1919.6244240010856,4.0,1.0,phase_3,,,,,204.0,6.0,102.0,136.0,34.0,204.0,170.0,68.0,white,flipped triangle
0.0,3.0,2.0,0.0,7.0,5.0,1124.8754110001755,4.0,1.0,phase_3,,,,,39.0,1.0,195.0,156.0,234.0,78.0,39.0,117.0,green,square
0.0,2.0,1.0,0.0,7.0,3.0,2683.067504000064,4.0,1.0,phase_3,,,,,98.0,2.0,294.0,49.0,98.0,196.0,245.0,147.0,magenta,hexagon
0.0,7.0,2.0,1.0,7.0,2.0,1971.1031339993497,4.0,1.0,phase_3,,,,,294.0,6.0,98.0,294.0,49.0,245.0,147.0,196.0,yellow,cross
0.0,4.0,4.0,0.0,7.0,4.0,1617.3872529998334,4.0,1.0,phase_3,,,,,88.0,2.0,132.0,264.0,44.0,88.0,220.0,176.0,orange,diamond
0.0,1.0,0.5,0.0,7.0,2.0,3279.891289999796,4.0,1.0,phase_3,,,,,44.0,1.0,88.0,44.0,132.0,220.0,264.0,176.0,blue,triangle
0.0,5.0,0.5,1.0,7.0,5.0,4088.0538750006963,4.0,1.0,phase_3,,,,,270.0,5.0,162.0,324.0,216.0,108.0,270.0,54.0,cyan,circle
0.0,1.0,0.5,0.0,7.0,4.0,1572.216288999698,4.0,1.0,phase_3,,,,,54.0,1.0,270.0,216.0,108.0,54.0,324.0,162.0,blue,triangle
0.0,6.0,1.0,1.0,7.0,2.0,2505.3048339996167,4.0,1.0,phase_3,,,,,220.0,5.0,88.0,220.0,132.0,44.0,176.0,264.0,gray,I
0.0,3.0,2.0,0.0,7.0,5.0,1110.2942699999403,4.0,1.0,phase_3,,,,,78.0,2.0,156.0,234.0,117.0,195.0,78.0,39.0,green,square
0.0,3.0,2.0,0.0,7.0,6.0,1146.1307770005078,4.0,1.0,phase_3,,,,,54.0,1.0,270.0,108.0,324.0,216.0,162.0,54.0,green,square
0.0,8.0,4.0,1.0,7.0,6.0,1985.3375009988667,4.0,1.0,phase_3,,,,,264.0,6.0,88.0,176.0,220.0,132.0,44.0,264.0,white,flipped triangle
0.0,7.0,2.0,1.0,7.0,6.0,1582.704107000609,4.0,1.0,phase_3,,,,,324.0,6.0,108.0,54.0,270.0,162.0,216.0,324.0,yellow,cross
0.0,6.0,1.0,1.0,7.0,3.0,1547.6283810003224,4.0,1.0,phase_3,,,,,216.0,4.0,54.0,270.0,216.0,162.0,108.0,324.0,gray,I
0.0,1.0,0.5,0.0,7.0,3.0,1808.6265410001945,4.0,1.0,phase_3,,,,,44.0,1.0,220.0,176.0,44.0,132.0,88.0,264.0,blue,triangle
0.0,6.0,1.0,1.0,7.0,1.0,2424.714651000613,4.0,1.0,phase_3,,,,,234.0,6.0,234.0,39.0,195.0,156.0,117.0,78.0,gray,I
0.0,1.0,0.5,0.0,7.0,3.0,2456.85152400074,4.0,1.0,phase_3,,,,,78.0,2.0,117.0,156.0,78.0,195.0,234.0,39.0,blue,triangle
0.0,4.0,4.0,0.0,7.0,6.0,1386.4474649999463,4.0,1.0,phase_3,,,,,34.0,1.0,102.0,170.0,68.0,204.0,136.0,34.0,orange,diamond
0.0,8.0,4.0,1.0,7.0,2.0,1582.6529629994184,4.0,1.0,phase_3,,,,,39.0,1.0,78.0,39.0,195.0,234.0,117.0,156.0,white,flipped triangle
