raw_reward_magnitude,stim_reward,stepwise_reward_magnitude,paired_with_stopping,stim_location,response,reaction_time,block,num_trial_presentations,which_phase,stop_signal_trial_type,left_SSD,right_SSD,accuracy,chosen_bidding_amount,chosen_bidding_level,possible_bid_1,possible_bid_2,possible_bid_3,possible_bid_4,possible_bid_5,possible_bid_6,color_text,shape_text
203.0,3.0,2.0,0.0,1.0,1.0,368.5242380015552,1.0,1.0,phase_1,,,,,,,,,,,,,green,diamond
387.0,4.0,4.0,0.0,4.0,4.0,374.61647300006,1.0,1.0,phase_1,,,,,,,,,,,,,white,flipped triangle
49.0,5.0,0.5,1.0,1.0,1.0,363.9764649997232,1.0,1.0,phase_1,,,,,,,,,,,,,magenta,hexagon
206.0,3.0,2.0,0.0,1.0,1.0,365.320648999841,1.0,1.0,phase_1,,,,,,,,,,,,,green,diamond
384.0,4.0,4.0,0.0,3.0,3.0,352.8342129993689,1.0,1.0,phase_1,,,,,,,,,,,,,white,flipped triangle
0.0,6.0,0.0,1.0,1.0,1.0,354.3993240000418,1.0,1.0,phase_1,,,,,,,,,,,,,orange,square
0.0,5.0,0.0,1.0,1.0,1.0,363.0260709996946,1.0,1.0,phase_1,,,,,,,,,,,,,magenta,hexagon
50.0,1.0,0.5,0.0,2.0,2.0,361.8696199991973,1.0,1.0,phase_1,,,,,,,,,,,,,gray,cross
187.0,7.0,2.0,1.0,2.0,2.0,358.320975999959,1.0,1.0,phase_1,,,,,,,,,,,,,yellow,I
396.0,4.0,4.0,0.0,1.0,1.0,408.786293999583,1.0,1.0,phase_1,,,,,,,,,,,,,white,flipped triangle
0.0,4.0,0.0,0.0,3.0,3.0,427.3635350000404,1.0,1.0,phase_1,,,,,,,,,,,,,white,flipped triangle
0.0,6.0,0.0,1.0,1.0,1.0,384.1458770002646,1.0,1.0,phase_1,,,,,,,,,,,,,orange,square
0.0,7.0,0.0,1.0,4.0,4.0,334.0606330002629,1.0,1.0,phase_1,,,,,,,,,,,,,yellow,I
377.0,8.0,4.0,1.0,4.0,4.0,415.9401489996526,1.0,1.0,phase_1,,,,,,,,,,,,,cyan,triangle
210.0,3.0,2.0,0.0,3.0,3.0,502.5431499998376,1.0,1.0,phase_1,,,,,,,,,,,,,green,diamond
95.0,2.0,1.0,0.0,3.0,3.0,331.0369680002623,1.0,1.0,phase_1,,,,,,,,,,,,,blue,circle
405.0,8.0,4.0,1.0,3.0,3.0,371.3753690008161,1.0,1.0,phase_1,,,,,,,,,,,,,cyan,triangle
54.0,1.0,0.5,0.0,3.0,3.0,325.7269469995663,1.0,1.0,phase_1,,,,,,,,,,,,,gray,cross
61.0,1.0,0.5,0.0,3.0,3.0,360.3198540004086,1.0,1.0,phase_1,,,,,,,,,,,,,gray,cross
424.0,8.0,4.0,1.0,3.0,3.0,310.2814979993127,1.0,1.0,phase_1,,,,,,,,,,,,,cyan,triangle
424.0,4.0,4.0,0.0,4.0,4.0,368.8156379994325,1.0,1.0,phase_1,,,,,,,,,,,,,white,flipped triangle
0.0,3.0,0.0,0.0,2.0,2.0,390.8499760000268,1.0,1.0,phase_1,,,,,,,,,,,,,green,diamond
206.0,7.0,2.0,1.0,1.0,1.0,340.1335889993788,1.0,1.0,phase_1,,,,,,,,,,,,,yellow,I
382.0,4.0,4.0,0.0,2.0,2.0,425.6082550000428,1.0,1.0,phase_1,,,,,,,,,,,,,white,flipped triangle
0.0,6.0,0.0,1.0,4.0,4.0,355.0349359993561,1.0,1.0,phase_1,,,,,,,,,,,,,orange,square
391.0,4.0,4.0,0.0,2.0,2.0,346.2250760003371,1.0,1.0,phase_1,,,,,,,,,,,,,white,flipped triangle
102.0,6.0,1.0,1.0,4.0,4.0,357.1211500002391,1.0,1.0,phase_1,,,,,,,,,,,,,orange,square
197.0,7.0,2.0,1.0,4.0,4.0,357.5855180006329,1.0,1.0,phase_1,,,,,,,,,,,,,yellow,I
396.0,4.0,4.0,0.0,3.0,3.0,443.8127909998002,1.0,1.0,phase_1,,,,,,,,,,,,,white,flipped triangle
79.0,2.0,1.0,0.0,4.0,4.0,322.4525250006991,1.0,1.0,phase_1,,,,,,,,,,,,,blue,circle
0.0,4.0,0.0,0.0,2.0,2.0,388.002592999328,1.0,1.0,phase_1,,,,,,,,,,,,,white,flipped triangle
49.0,5.0,0.5,1.0,3.0,3.0,352.0488680005655,1.0,1.0,phase_1,,,,,,,,,,,,,magenta,hexagon
98.0,2.0,1.0,0.0,1.0,1.0,300.1124580005125,1.0,1.0,phase_1,,,,,,,,,,,,,blue,circle
198.0,7.0,2.0,1.0,3.0,3.0,337.2232609999628,1.0,1.0,phase_1,,,,,,,,,,,,,yellow,I
399.0,4.0,4.0,0.0,1.0,1.0,363.7836979996791,1.0,1.0,phase_1,,,,,,,,,,,,,white,flipped triangle
387.0,8.0,4.0,1.0,2.0,2.0,367.9775559994596,1.0,1.0,phase_1,,,,,,,,,,,,,cyan,triangle
0.0,7.0,0.0,1.0,3.0,3.0,377.4457719991915,1.0,1.0,phase_1,,,,,,,,,,,,,yellow,I
182.0,3.0,2.0,0.0,1.0,1.0,320.0018309998995,1.0,1.0,phase_1,,,,,,,,,,,,,green,diamond
0.0,7.0,0.0,1.0,1.0,1.0,390.5372629997146,1.0,1.0,phase_1,,,,,,,,,,,,,yellow,I
0.0,3.0,0.0,0.0,4.0,4.0,491.7706919986813,1.0,1.0,phase_1,,,,,,,,,,,,,green,diamond
35.0,5.0,0.5,1.0,4.0,4.0,387.2404070007178,1.0,1.0,phase_1,,,,,,,,,,,,,magenta,hexagon
191.0,3.0,2.0,0.0,1.0,1.0,327.0869829993899,1.0,1.0,phase_1,,,,,,,,,,,,,green,diamond
422.0,4.0,4.0,0.0,4.0,4.0,346.4060640017123,1.0,1.0,phase_1,,,,,,,,,,,,,white,flipped triangle
117.0,6.0,1.0,1.0,1.0,1.0,304.3037449988333,1.0,1.0,phase_1,,,,,,,,,,,,,orange,square
88.0,2.0,1.0,0.0,2.0,2.0,340.7634739996865,1.0,1.0,phase_1,,,,,,,,,,,,,blue,circle
376.0,8.0,4.0,1.0,4.0,4.0,412.5418460007495,1.0,1.0,phase_1,,,,,,,,,,,,,cyan,triangle
215.0,7.0,2.0,1.0,3.0,3.0,415.69599200011,1.0,2.0,phase_1,,,,,,,,,,,,,yellow,I
381.0,4.0,4.0,0.0,1.0,1.0,441.6749840002012,1.0,1.0,phase_1,,,,,,,,,,,,,white,flipped triangle
182.0,7.0,2.0,1.0,3.0,3.0,436.5957099998923,1.0,1.0,phase_1,,,,,,,,,,,,,yellow,I
31.0,5.0,0.5,1.0,3.0,3.0,408.0033729987917,1.0,1.0,phase_1,,,,,,,,,,,,,magenta,hexagon
0.0,1.0,0.0,0.0,4.0,4.0,336.6964609995193,1.0,1.0,phase_1,,,,,,,,,,,,,gray,cross
118.0,6.0,1.0,1.0,3.0,3.0,375.6706380008836,1.0,1.0,phase_1,,,,,,,,,,,,,orange,square
121.0,6.0,1.0,1.0,2.0,2.0,366.0235089992056,1.0,1.0,phase_1,,,,,,,,,,,,,orange,square
0.0,7.0,0.0,1.0,4.0,4.0,394.8252300015156,1.0,1.0,phase_1,,,,,,,,,,,,,yellow,I
198.0,3.0,2.0,0.0,2.0,2.0,403.2049409997853,1.0,1.0,phase_1,,,,,,,,,,,,,green,diamond
210.0,3.0,2.0,0.0,4.0,4.0,352.5325299997348,1.0,1.0,phase_1,,,,,,,,,,,,,green,diamond
0.0,3.0,0.0,0.0,4.0,4.0,366.208457000539,1.0,1.0,phase_1,,,,,,,,,,,,,green,diamond
43.0,5.0,0.5,1.0,4.0,4.0,452.7930679996643,1.0,1.0,phase_1,,,,,,,,,,,,,magenta,hexagon
200.0,3.0,2.0,0.0,1.0,1.0,379.0805660009937,1.0,2.0,phase_1,,,,,,,,,,,,,green,diamond
70.0,1.0,0.5,0.0,2.0,2.0,369.231693999609,1.0,1.0,phase_1,,,,,,,,,,,,,gray,cross
195.0,3.0,2.0,0.0,1.0,1.0,355.5650130001595,1.0,1.0,phase_1,,,,,,,,,,,,,green,diamond
200.0,3.0,2.0,0.0,3.0,3.0,482.9682599993248,1.0,1.0,phase_1,,,,,,,,,,,,,green,diamond
416.0,4.0,4.0,0.0,1.0,1.0,408.5551419993862,1.0,1.0,phase_1,,,,,,,,,,,,,white,flipped triangle
416.0,4.0,4.0,0.0,3.0,3.0,375.7450290013366,1.0,1.0,phase_1,,,,,,,,,,,,,white,flipped triangle
72.0,5.0,0.5,1.0,4.0,4.0,578.9807330002077,1.0,1.0,phase_1,,,,,,,,,,,,,magenta,hexagon
0.0,4.0,0.0,0.0,2.0,2.0,449.5402299999114,1.0,1.0,phase_1,,,,,,,,,,,,,white,flipped triangle
45.0,1.0,0.5,0.0,4.0,4.0,380.5169489987747,1.0,1.0,phase_1,,,,,,,,,,,,,gray,cross
89.0,6.0,1.0,1.0,3.0,3.0,419.712378999975,1.0,1.0,phase_1,,,,,,,,,,,,,orange,square
70.0,1.0,0.5,0.0,3.0,3.0,443.6624949994439,1.0,1.0,phase_1,,,,,,,,,,,,,gray,cross
83.0,6.0,1.0,1.0,2.0,2.0,386.9231680000666,1.0,1.0,phase_1,,,,,,,,,,,,,orange,square
0.0,4.0,0.0,0.0,1.0,1.0,364.4424730009632,1.0,1.0,phase_1,,,,,,,,,,,,,white,flipped triangle
0.0,1.0,0.0,0.0,2.0,2.0,362.6258869990124,1.0,1.0,phase_1,,,,,,,,,,,,,gray,cross
82.0,6.0,1.0,1.0,2.0,2.0,446.1139760005608,1.0,1.0,phase_1,,,,,,,,,,,,,orange,square
58.0,5.0,0.5,1.0,1.0,1.0,359.9383259988826,1.0,1.0,phase_1,,,,,,,,,,,,,magenta,hexagon
28.0,1.0,0.5,0.0,1.0,1.0,399.3719909994979,1.0,1.0,phase_1,,,,,,,,,,,,,gray,cross
0.0,6.0,0.0,1.0,3.0,3.0,486.5683339994575,1.0,1.0,phase_1,,,,,,,,,,,,,orange,square
384.0,8.0,4.0,1.0,3.0,3.0,406.0997670003416,1.0,1.0,phase_1,,,,,,,,,,,,,cyan,triangle
213.0,3.0,2.0,0.0,2.0,2.0,434.3796680004743,1.0,1.0,phase_1,,,,,,,,,,,,,green,diamond
51.0,1.0,0.5,0.0,2.0,2.0,447.3693170002661,1.0,1.0,phase_1,,,,,,,,,,,,,gray,cross
108.0,2.0,1.0,0.0,3.0,3.0,494.7279469997738,1.0,1.0,phase_1,,,,,,,,,,,,,blue,circle
59.0,5.0,0.5,1.0,2.0,2.0,534.5212310003262,1.0,1.0,phase_1,,,,,,,,,,,,,magenta,hexagon
98.0,6.0,1.0,1.0,3.0,3.0,434.6410790003574,1.0,1.0,phase_1,,,,,,,,,,,,,orange,square
31.0,1.0,0.5,0.0,1.0,1.0,337.7400360004685,1.0,1.0,phase_1,,,,,,,,,,,,,gray,cross
198.0,3.0,2.0,0.0,4.0,4.0,605.2515890005452,1.0,1.0,phase_1,,,,,,,,,,,,,green,diamond
67.0,1.0,0.5,0.0,3.0,3.0,415.9383610003715,1.0,1.0,phase_1,,,,,,,,,,,,,gray,cross
203.0,7.0,2.0,1.0,2.0,2.0,493.8838470006885,1.0,1.0,phase_1,,,,,,,,,,,,,yellow,I
200.0,7.0,2.0,1.0,2.0,2.0,353.9523090003058,1.0,1.0,phase_1,,,,,,,,,,,,,yellow,I
70.0,5.0,0.5,1.0,1.0,1.0,419.3891559989424,1.0,1.0,phase_1,,,,,,,,,,,,,magenta,hexagon
95.0,6.0,1.0,1.0,1.0,1.0,366.2408020009025,1.0,1.0,phase_1,,,,,,,,,,,,,orange,square
175.0,7.0,2.0,1.0,4.0,4.0,489.1027350004151,1.0,1.0,phase_1,,,,,,,,,,,,,yellow,I
0.0,8.0,0.0,1.0,4.0,4.0,402.7174410002772,1.0,1.0,phase_1,,,,,,,,,,,,,cyan,triangle
0.0,7.0,0.0,1.0,4.0,4.0,386.6469129989127,1.0,1.0,phase_1,,,,,,,,,,,,,yellow,I
400.0,8.0,4.0,1.0,1.0,1.0,262.615628000276,1.0,1.0,phase_1,,,,,,,,,,,,,cyan,triangle
222.0,3.0,2.0,0.0,4.0,4.0,350.376263999351,1.0,1.0,phase_1,,,,,,,,,,,,,green,diamond
395.0,4.0,4.0,0.0,2.0,2.0,384.4862450005166,1.0,1.0,phase_1,,,,,,,,,,,,,white,flipped triangle
108.0,6.0,1.0,1.0,3.0,3.0,328.8752230000682,1.0,1.0,phase_1,,,,,,,,,,,,,orange,square
32.0,5.0,0.5,1.0,4.0,4.0,432.0244980008283,1.0,1.0,phase_1,,,,,,,,,,,,,magenta,hexagon
0.0,8.0,0.0,1.0,2.0,2.0,329.9174790008692,1.0,1.0,phase_1,,,,,,,,,,,,,cyan,triangle
221.0,7.0,2.0,1.0,1.0,1.0,309.4061440006044,1.0,1.0,phase_1,,,,,,,,,,,,,yellow,I
223.0,7.0,2.0,1.0,1.0,1.0,353.8476060002722,1.0,1.0,phase_1,,,,,,,,,,,,,yellow,I
0.0,1.0,0.0,0.0,1.0,1.0,428.8950200007093,2.0,1.0,phase_1,,,,,,,,,,,,,gray,cross
408.0,8.0,4.0,1.0,1.0,1.0,350.7801729992934,2.0,1.0,phase_1,,,,,,,,,,,,,cyan,triangle
0.0,4.0,0.0,0.0,4.0,4.0,416.0181679999368,2.0,1.0,phase_1,,,,,,,,,,,,,white,flipped triangle
121.0,2.0,1.0,0.0,2.0,2.0,405.1426400001219,2.0,1.0,phase_1,,,,,,,,,,,,,blue,circle
29.0,5.0,0.5,1.0,3.0,3.0,377.3737270003039,2.0,1.0,phase_1,,,,,,,,,,,,,magenta,hexagon
209.0,3.0,2.0,0.0,3.0,3.0,363.3258760000899,2.0,1.0,phase_1,,,,,,,,,,,,,green,diamond
0.0,7.0,0.0,1.0,4.0,4.0,479.7133370011579,2.0,1.0,phase_1,,,,,,,,,,,,,yellow,I
83.0,6.0,1.0,1.0,2.0,2.0,408.5460040005273,2.0,1.0,phase_1,,,,,,,,,,,,,orange,square
102.0,6.0,1.0,1.0,4.0,4.0,413.0745769998611,2.0,1.0,phase_1,,,,,,,,,,,,,orange,square
408.0,4.0,4.0,0.0,3.0,3.0,411.1305340011313,2.0,1.0,phase_1,,,,,,,,,,,,,white,flipped triangle
28.0,5.0,0.5,1.0,4.0,4.0,435.7661100002588,2.0,1.0,phase_1,,,,,,,,,,,,,magenta,hexagon
424.0,4.0,4.0,0.0,3.0,3.0,445.356358999561,2.0,1.0,phase_1,,,,,,,,,,,,,white,flipped triangle
216.0,7.0,2.0,1.0,4.0,4.0,469.5774519987026,2.0,1.0,phase_1,,,,,,,,,,,,,yellow,I
213.0,3.0,2.0,0.0,1.0,1.0,377.0636640001612,2.0,1.0,phase_1,,,,,,,,,,,,,green,diamond
58.0,1.0,0.5,0.0,2.0,2.0,421.2890319995495,2.0,1.0,phase_1,,,,,,,,,,,,,gray,cross
408.0,4.0,4.0,0.0,1.0,1.0,377.9520459993364,2.0,1.0,phase_1,,,,,,,,,,,,,white,flipped triangle
0.0,6.0,0.0,1.0,4.0,4.0,430.9520759998122,2.0,1.0,phase_1,,,,,,,,,,,,,orange,square
204.0,3.0,2.0,0.0,2.0,2.0,377.3634009994566,2.0,1.0,phase_1,,,,,,,,,,,,,green,diamond
43.0,5.0,0.5,1.0,3.0,3.0,526.7024589993525,2.0,1.0,phase_1,,,,,,,,,,,,,magenta,hexagon
42.0,1.0,0.5,0.0,1.0,1.0,395.1768210008595,2.0,1.0,phase_1,,,,,,,,,,,,,gray,cross
45.0,1.0,0.5,0.0,2.0,2.0,651.315679999243,2.0,1.0,phase_1,,,,,,,,,,,,,gray,cross
384.0,8.0,4.0,1.0,2.0,2.0,437.67126000057027,2.0,1.0,phase_1,,,,,,,,,,,,,cyan,triangle
79.0,2.0,1.0,0.0,4.0,4.0,771.3540860004287,2.0,1.0,phase_1,,,,,,,,,,,,,blue,circle
413.0,4.0,4.0,0.0,4.0,4.0,532.8711729998759,2.0,1.0,phase_1,,,,,,,,,,,,,white,flipped triangle
93.0,2.0,1.0,0.0,2.0,2.0,475.9885120001854,2.0,1.0,phase_1,,,,,,,,,,,,,blue,circle
82.0,2.0,1.0,0.0,2.0,2.0,489.2511580001155,2.0,1.0,phase_1,,,,,,,,,,,,,blue,circle
35.0,1.0,0.5,0.0,4.0,4.0,452.6133449999179,2.0,2.0,phase_1,,,,,,,,,,,,,gray,cross
376.0,4.0,4.0,0.0,1.0,1.0,472.9191630012792,2.0,1.0,phase_1,,,,,,,,,,,,,white,flipped triangle
116.0,6.0,1.0,1.0,3.0,3.0,463.9109919990005,2.0,1.0,phase_1,,,,,,,,,,,,,orange,square
178.0,7.0,2.0,1.0,3.0,3.0,752.8094489989599,2.0,1.0,phase_1,,,,,,,,,,,,,yellow,I
377.0,4.0,4.0,0.0,2.0,2.0,462.2751500010054,2.0,1.0,phase_1,,,,,,,,,,,,,white,flipped triangle
0.0,4.0,0.0,0.0,2.0,2.0,530.8334960009233,2.0,1.0,phase_1,,,,,,,,,,,,,white,flipped triangle
0.0,6.0,0.0,1.0,1.0,1.0,562.9109890014661,2.0,1.0,phase_1,,,,,,,,,,,,,orange,square
190.0,7.0,2.0,1.0,3.0,3.0,574.7636329997476,2.0,1.0,phase_1,,,,,,,,,,,,,yellow,I
382.0,8.0,4.0,1.0,2.0,2.0,447.8393600002164,2.0,1.0,phase_1,,,,,,,,,,,,,cyan,triangle
385.0,4.0,4.0,0.0,2.0,2.0,427.5008300010086,2.0,1.0,phase_1,,,,,,,,,,,,,white,flipped triangle
391.0,8.0,4.0,1.0,3.0,3.0,845.9807819999696,2.0,1.0,phase_1,,,,,,,,,,,,,cyan,triangle
399.0,8.0,4.0,1.0,3.0,3.0,830.5251300007512,2.0,1.0,phase_1,,,,,,,,,,,,,cyan,triangle
110.0,6.0,1.0,1.0,4.0,4.0,391.2269180000294,2.0,2.0,phase_1,,,,,,,,,,,,,orange,square
384.0,4.0,4.0,0.0,3.0,3.0,374.8180940001475,2.0,1.0,phase_1,,,,,,,,,,,,,white,flipped triangle
41.0,5.0,0.5,1.0,1.0,1.0,439.3434370012983,2.0,1.0,phase_1,,,,,,,,,,,,,magenta,hexagon
43.0,1.0,0.5,0.0,1.0,1.0,455.2593300013541,2.0,1.0,phase_1,,,,,,,,,,,,,gray,cross
0.0,6.0,0.0,1.0,1.0,1.0,363.6037559990654,2.0,1.0,phase_1,,,,,,,,,,,,,orange,square
0.0,1.0,0.0,0.0,4.0,4.0,656.9378469994263,2.0,1.0,phase_1,,,,,,,,,,,,,gray,cross
394.0,8.0,4.0,1.0,1.0,1.0,503.09252999977616,2.0,1.0,phase_1,,,,,,,,,,,,,cyan,triangle
0.0,5.0,0.0,1.0,4.0,4.0,311.6248059995996,2.0,3.0,phase_1,,,,,,,,,,,,,magenta,hexagon
0.0,2.0,0.0,0.0,1.0,1.0,421.2466520002635,2.0,1.0,phase_1,,,,,,,,,,,,,blue,circle
192.0,7.0,2.0,1.0,2.0,2.0,378.0307639990496,2.0,1.0,phase_1,,,,,,,,,,,,,yellow,I
95.0,6.0,1.0,1.0,1.0,1.0,350.6996850010182,2.0,1.0,phase_1,,,,,,,,,,,,,orange,square
93.0,6.0,1.0,1.0,1.0,1.0,473.8268869987223,2.0,1.0,phase_1,,,,,,,,,,,,,orange,square
209.0,7.0,2.0,1.0,2.0,2.0,379.2549850004434,2.0,1.0,phase_1,,,,,,,,,,,,,yellow,I
195.0,7.0,2.0,1.0,2.0,2.0,348.2088119999389,2.0,1.0,phase_1,,,,,,,,,,,,,yellow,I
409.0,8.0,4.0,1.0,1.0,1.0,284.0483859999949,2.0,1.0,phase_1,,,,,,,,,,,,,cyan,triangle
0.0,1.0,0.0,0.0,2.0,2.0,409.9699329999566,2.0,1.0,phase_1,,,,,,,,,,,,,gray,cross
59.0,1.0,0.5,0.0,2.0,2.0,372.2865119998459,2.0,1.0,phase_1,,,,,,,,,,,,,gray,cross
0.0,8.0,0.0,1.0,1.0,1.0,435.9700860004523,2.0,1.0,phase_1,,,,,,,,,,,,,cyan,triangle
413.0,4.0,4.0,0.0,1.0,1.0,364.6372859984694,2.0,1.0,phase_1,,,,,,,,,,,,,white,flipped triangle
108.0,6.0,1.0,1.0,1.0,1.0,434.4590789987705,2.0,1.0,phase_1,,,,,,,,,,,,,orange,square
0.0,3.0,0.0,0.0,4.0,4.0,531.287372999941,2.0,1.0,phase_1,,,,,,,,,,,,,green,diamond
406.0,4.0,4.0,0.0,4.0,4.0,544.8161570002412,2.0,1.0,phase_1,,,,,,,,,,,,,white,flipped triangle
413.0,8.0,4.0,1.0,1.0,1.0,349.4541000000026,2.0,1.0,phase_1,,,,,,,,,,,,,cyan,triangle
0.0,8.0,0.0,1.0,3.0,3.0,577.370819000862,2.0,1.0,phase_1,,,,,,,,,,,,,cyan,triangle
0.0,3.0,0.0,0.0,1.0,1.0,602.6417030006996,2.0,1.0,phase_1,,,,,,,,,,,,,green,diamond
45.0,5.0,0.5,1.0,3.0,3.0,832.9960880000726,2.0,1.0,phase_1,,,,,,,,,,,,,magenta,hexagon
49.0,1.0,0.5,0.0,2.0,2.0,413.3321600002091,2.0,1.0,phase_1,,,,,,,,,,,,,gray,cross
118.0,2.0,1.0,0.0,3.0,3.0,456.1812140000256,2.0,1.0,phase_1,,,,,,,,,,,,,blue,circle
213.0,7.0,2.0,1.0,1.0,1.0,413.26700999889,2.0,1.0,phase_1,,,,,,,,,,,,,yellow,I
108.0,2.0,1.0,0.0,3.0,3.0,529.8192280006333,2.0,1.0,phase_1,,,,,,,,,,,,,blue,circle
43.0,5.0,0.5,1.0,1.0,1.0,306.8545339992852,2.0,1.0,phase_1,,,,,,,,,,,,,magenta,hexagon
381.0,8.0,4.0,1.0,2.0,2.0,506.2216530004662,2.0,1.0,phase_1,,,,,,,,,,,,,cyan,triangle
120.0,2.0,1.0,0.0,3.0,3.0,582.98699199986,2.0,1.0,phase_1,,,,,,,,,,,,,blue,circle
78.0,6.0,1.0,1.0,3.0,3.0,378.5625370001071,2.0,1.0,phase_1,,,,,,,,,,,,,orange,square
83.0,6.0,1.0,1.0,3.0,3.0,432.5126290004846,2.0,1.0,phase_1,,,,,,,,,,,,,orange,square
0.0,3.0,0.0,0.0,1.0,1.0,461.6839180016541,2.0,1.0,phase_1,,,,,,,,,,,,,green,diamond
115.0,2.0,1.0,0.0,3.0,3.0,562.046332999671,2.0,1.0,phase_1,,,,,,,,,,,,,blue,circle
79.0,2.0,1.0,0.0,1.0,1.0,433.9401790002739,2.0,1.0,phase_1,,,,,,,,,,,,,blue,circle
213.0,7.0,2.0,1.0,2.0,2.0,407.6449670010333,2.0,1.0,phase_1,,,,,,,,,,,,,yellow,I
70.0,5.0,0.5,1.0,3.0,3.0,561.9203940004809,2.0,1.0,phase_1,,,,,,,,,,,,,magenta,hexagon
94.0,6.0,1.0,1.0,1.0,1.0,501.77132099997834,2.0,1.0,phase_1,,,,,,,,,,,,,orange,square
193.0,3.0,2.0,0.0,4.0,4.0,522.5437539993436,2.0,1.0,phase_1,,,,,,,,,,,,,green,diamond
393.0,8.0,4.0,1.0,2.0,2.0,290.677893000975,2.0,1.0,phase_1,,,,,,,,,,,,,cyan,triangle
200.0,3.0,2.0,0.0,3.0,3.0,449.7845559999405,2.0,1.0,phase_1,,,,,,,,,,,,,green,diamond
66.0,1.0,0.5,0.0,4.0,4.0,559.7882239999308,2.0,1.0,phase_1,,,,,,,,,,,,,gray,cross
58.0,1.0,0.5,0.0,1.0,1.0,349.7229410004365,2.0,1.0,phase_1,,,,,,,,,,,,,gray,cross
422.0,8.0,4.0,1.0,1.0,1.0,706.0062290001952,2.0,1.0,phase_1,,,,,,,,,,,,,cyan,triangle
61.0,5.0,0.5,1.0,4.0,4.0,900.2133159992809,2.0,1.0,phase_1,,,,,,,,,,,,,magenta,hexagon
94.0,2.0,1.0,0.0,4.0,4.0,841.7888280000625,2.0,2.0,phase_1,,,,,,,,,,,,,blue,circle
422.0,4.0,4.0,0.0,2.0,2.0,561.6318099982891,2.0,1.0,phase_1,,,,,,,,,,,,,white,flipped triangle
54.0,5.0,0.5,1.0,1.0,1.0,465.2523679997102,2.0,1.0,phase_1,,,,,,,,,,,,,magenta,hexagon
396.0,8.0,4.0,1.0,4.0,4.0,381.4202749999822,2.0,1.0,phase_1,,,,,,,,,,,,,cyan,triangle
110.0,2.0,1.0,0.0,1.0,1.0,424.5134829998278,2.0,1.0,phase_1,,,,,,,,,,,,,blue,circle
37.0,5.0,0.5,1.0,3.0,3.0,550.261476999367,2.0,1.0,phase_1,,,,,,,,,,,,,magenta,hexagon
413.0,8.0,4.0,1.0,4.0,4.0,623.9659010007017,2.0,1.0,phase_1,,,,,,,,,,,,,cyan,triangle
0.0,2.0,0.0,0.0,3.0,3.0,414.7575329989195,2.0,1.0,phase_1,,,,,,,,,,,,,blue,circle
65.0,1.0,0.5,0.0,4.0,4.0,427.4519579994376,2.0,1.0,phase_1,,,,,,,,,,,,,gray,cross
187.0,3.0,2.0,0.0,3.0,3.0,446.7867750008736,2.0,1.0,phase_1,,,,,,,,,,,,,green,diamond
0.0,5.0,0.0,1.0,4.0,4.0,398.2907419995172,2.0,1.0,phase_1,,,,,,,,,,,,,magenta,hexagon
0.0,2.0,0.0,0.0,1.0,1.0,351.7282989996602,2.0,1.0,phase_1,,,,,,,,,,,,,blue,circle
85.0,6.0,1.0,1.0,2.0,2.0,313.7566759996844,2.0,1.0,phase_1,,,,,,,,,,,,,orange,square
0.0,1.0,0.0,0.0,4.0,4.0,413.1399229991075,2.0,1.0,phase_1,,,,,,,,,,,,,gray,cross
62.0,1.0,0.5,0.0,4.0,4.0,447.0653330008645,3.0,1.0,phase_1,,,,,,,,,,,,,gray,cross
0.0,2.0,0.0,0.0,3.0,3.0,476.3452210008836,3.0,1.0,phase_1,,,,,,,,,,,,,blue,circle
196.0,7.0,2.0,1.0,1.0,1.0,359.348174999468,3.0,1.0,phase_1,,,,,,,,,,,,,yellow,I
377.0,8.0,4.0,1.0,1.0,1.0,437.2224310009187,3.0,1.0,phase_1,,,,,,,,,,,,,cyan,triangle
102.0,2.0,1.0,0.0,4.0,4.0,514.8449560001609,3.0,1.0,phase_1,,,,,,,,,,,,,blue,circle
0.0,5.0,0.0,1.0,4.0,4.0,479.4760200002201,3.0,1.0,phase_1,,,,,,,,,,,,,magenta,hexagon
99.0,6.0,1.0,1.0,2.0,2.0,435.1190329998644,3.0,1.0,phase_1,,,,,,,,,,,,,orange,square
106.0,2.0,1.0,0.0,2.0,2.0,428.778711000632,3.0,1.0,phase_1,,,,,,,,,,,,,blue,circle
188.0,3.0,2.0,0.0,1.0,1.0,387.0785420003813,3.0,1.0,phase_1,,,,,,,,,,,,,green,diamond
65.0,1.0,0.5,0.0,4.0,4.0,432.4815799991484,3.0,1.0,phase_1,,,,,,,,,,,,,gray,cross
421.0,8.0,4.0,1.0,4.0,4.0,449.8351769998407,3.0,1.0,phase_1,,,,,,,,,,,,,cyan,triangle
82.0,2.0,1.0,0.0,3.0,3.0,542.9914260002988,3.0,1.0,phase_1,,,,,,,,,,,,,blue,circle
0.0,6.0,0.0,1.0,3.0,3.0,486.3259970006766,3.0,1.0,phase_1,,,,,,,,,,,,,orange,square
79.0,6.0,1.0,1.0,1.0,1.0,374.3746939999255,3.0,1.0,phase_1,,,,,,,,,,,,,orange,square
421.0,4.0,4.0,0.0,2.0,2.0,424.0384969998558,3.0,1.0,phase_1,,,,,,,,,,,,,white,flipped triangle
40.0,5.0,0.5,1.0,4.0,4.0,491.1612140003853,3.0,1.0,phase_1,,,,,,,,,,,,,magenta,hexagon
108.0,2.0,1.0,0.0,4.0,4.0,409.0660639994894,3.0,1.0,phase_1,,,,,,,,,,,,,blue,circle
187.0,7.0,2.0,1.0,1.0,1.0,423.2816719995753,3.0,1.0,phase_1,,,,,,,,,,,,,yellow,I
99.0,2.0,1.0,0.0,4.0,4.0,516.9308280001133,3.0,1.0,phase_1,,,,,,,,,,,,,blue,circle
210.0,7.0,2.0,1.0,4.0,4.0,470.4377630005183,3.0,1.0,phase_1,,,,,,,,,,,,,yellow,I
110.0,2.0,1.0,0.0,1.0,1.0,491.0845079994033,3.0,1.0,phase_1,,,,,,,,,,,,,blue,circle
0.0,8.0,0.0,1.0,3.0,3.0,522.9797009997128,3.0,1.0,phase_1,,,,,,,,,,,,,cyan,triangle
221.0,3.0,2.0,0.0,4.0,4.0,519.2567169997346,3.0,1.0,phase_1,,,,,,,,,,,,,green,diamond
110.0,2.0,1.0,0.0,2.0,2.0,485.5943189995741,3.0,1.0,phase_1,,,,,,,,,,,,,blue,circle
38.0,5.0,0.5,1.0,1.0,1.0,366.5438019997964,3.0,1.0,phase_1,,,,,,,,,,,,,magenta,hexagon
95.0,2.0,1.0,0.0,4.0,4.0,449.4173109997064,3.0,1.0,phase_1,,,,,,,,,,,,,blue,circle
215.0,7.0,2.0,1.0,3.0,3.0,499.5654930007731,3.0,1.0,phase_1,,,,,,,,,,,,,yellow,I
406.0,8.0,4.0,1.0,3.0,3.0,524.5102319986472,3.0,1.0,phase_1,,,,,,,,,,,,,cyan,triangle
416.0,8.0,4.0,1.0,2.0,2.0,386.8986820016289,3.0,1.0,phase_1,,,,,,,,,,,,,cyan,triangle
207.0,7.0,2.0,1.0,4.0,4.0,309.3894410012581,3.0,1.0,phase_1,,,,,,,,,,,,,yellow,I
68.0,5.0,0.5,1.0,2.0,2.0,412.2797730015008,3.0,1.0,phase_1,,,,,,,,,,,,,magenta,hexagon
40.0,1.0,0.5,0.0,4.0,4.0,411.2125619994913,3.0,1.0,phase_1,,,,,,,,,,,,,gray,cross
200.0,7.0,2.0,1.0,4.0,4.0,434.9991979997867,3.0,1.0,phase_1,,,,,,,,,,,,,yellow,I
0.0,1.0,0.0,0.0,1.0,1.0,396.4128589996107,3.0,1.0,phase_1,,,,,,,,,,,,,gray,cross
0.0,5.0,0.0,1.0,4.0,4.0,393.1394769988401,3.0,1.0,phase_1,,,,,,,,,,,,,magenta,hexagon
187.0,7.0,2.0,1.0,4.0,4.0,383.8872830001492,3.0,1.0,phase_1,,,,,,,,,,,,,yellow,I
175.0,3.0,2.0,0.0,1.0,1.0,504.038822999064,3.0,1.0,phase_1,,,,,,,,,,,,,green,diamond
38.0,1.0,0.5,0.0,1.0,1.0,611.9161759997951,3.0,1.0,phase_1,,,,,,,,,,,,,gray,cross
83.0,2.0,1.0,0.0,3.0,3.0,529.6009720004804,3.0,1.0,phase_1,,,,,,,,,,,,,blue,circle
117.0,2.0,1.0,0.0,3.0,3.0,687.5466120000056,3.0,1.0,phase_1,,,,,,,,,,,,,blue,circle
88.0,6.0,1.0,1.0,1.0,1.0,488.7300410009629,3.0,1.0,phase_1,,,,,,,,,,,,,orange,square
182.0,3.0,2.0,0.0,3.0,3.0,552.5982680010202,3.0,1.0,phase_1,,,,,,,,,,,,,green,diamond
49.0,1.0,0.5,0.0,1.0,1.0,471.3901590002933,3.0,1.0,phase_1,,,,,,,,,,,,,gray,cross
0.0,6.0,0.0,1.0,1.0,1.0,406.5705970006092,3.0,1.0,phase_1,,,,,,,,,,,,,orange,square
83.0,2.0,1.0,0.0,1.0,1.0,359.6313320012996,3.0,1.0,phase_1,,,,,,,,,,,,,blue,circle
405.0,4.0,4.0,0.0,3.0,3.0,487.1216600004118,3.0,1.0,phase_1,,,,,,,,,,,,,white,flipped triangle
66.0,5.0,0.5,1.0,2.0,2.0,484.0325290006149,3.0,1.0,phase_1,,,,,,,,,,,,,magenta,hexagon
411.0,4.0,4.0,0.0,3.0,3.0,535.8147910010302,3.0,1.0,phase_1,,,,,,,,,,,,,white,flipped triangle
0.0,8.0,0.0,1.0,3.0,3.0,597.635262998665,3.0,1.0,phase_1,,,,,,,,,,,,,cyan,triangle
51.0,5.0,0.5,1.0,2.0,2.0,660.3331709993654,3.0,1.0,phase_1,,,,,,,,,,,,,magenta,hexagon
29.0,1.0,0.5,0.0,3.0,3.0,524.1546819997893,3.0,1.0,phase_1,,,,,,,,,,,,,gray,cross
28.0,1.0,0.5,0.0,2.0,2.0,398.56330099974,3.0,1.0,phase_1,,,,,,,,,,,,,gray,cross
79.0,6.0,1.0,1.0,3.0,3.0,535.4161889990792,3.0,1.0,phase_1,,,,,,,,,,,,,orange,square
116.0,2.0,1.0,0.0,1.0,1.0,448.6237720011559,3.0,1.0,phase_1,,,,,,,,,,,,,blue,circle
193.0,7.0,2.0,1.0,1.0,1.0,411.0803639996447,3.0,1.0,phase_1,,,,,,,,,,,,,yellow,I
0.0,7.0,0.0,1.0,1.0,1.0,357.0288699993398,3.0,1.0,phase_1,,,,,,,,,,,,,yellow,I
37.0,1.0,0.5,0.0,1.0,1.0,501.478751999457,3.0,1.0,phase_1,,,,,,,,,,,,,gray,cross
0.0,3.0,0.0,0.0,3.0,3.0,431.9691220007371,3.0,1.0,phase_1,,,,,,,,,,,,,green,diamond
408.0,8.0,4.0,1.0,4.0,4.0,488.9376360006281,3.0,1.0,phase_1,,,,,,,,,,,,,cyan,triangle
96.0,6.0,1.0,1.0,2.0,2.0,506.0946809990128,3.0,1.0,phase_1,,,,,,,,,,,,,orange,square
0.0,8.0,0.0,1.0,1.0,1.0,383.0259019996447,3.0,1.0,phase_1,,,,,,,,,,,,,cyan,triangle
0.0,7.0,0.0,1.0,3.0,3.0,478.6685819999547,3.0,1.0,phase_1,,,,,,,,,,,,,yellow,I
99.0,6.0,1.0,1.0,1.0,1.0,473.1998469997052,3.0,1.0,phase_1,,,,,,,,,,,,,orange,square
404.0,4.0,4.0,0.0,3.0,3.0,534.9975479985005,3.0,1.0,phase_1,,,,,,,,,,,,,white,flipped triangle
0.0,2.0,0.0,0.0,1.0,1.0,348.0257840001286,3.0,1.0,phase_1,,,,,,,,,,,,,blue,circle
396.0,8.0,4.0,1.0,3.0,3.0,529.1444489994319,3.0,1.0,phase_1,,,,,,,,,,,,,cyan,triangle
0.0,2.0,0.0,0.0,2.0,2.0,363.303715001166,3.0,1.0,phase_1,,,,,,,,,,,,,blue,circle
197.0,3.0,2.0,0.0,3.0,3.0,492.484267000691,3.0,1.0,phase_1,,,,,,,,,,,,,green,diamond
0.0,3.0,0.0,0.0,3.0,3.0,503.02307100173493,3.0,1.0,phase_1,,,,,,,,,,,,,green,diamond
54.0,5.0,0.5,1.0,3.0,3.0,483.6016219996963,3.0,1.0,phase_1,,,,,,,,,,,,,magenta,hexagon
59.0,1.0,0.5,0.0,4.0,4.0,640.9868120008468,3.0,1.0,phase_1,,,,,,,,,,,,,gray,cross
0.0,2.0,0.0,0.0,4.0,4.0,537.7176990004955,3.0,1.0,phase_1,,,,,,,,,,,,,blue,circle
0.0,4.0,0.0,0.0,4.0,4.0,492.8021150008135,3.0,1.0,phase_1,,,,,,,,,,,,,white,flipped triangle
421.0,8.0,4.0,1.0,3.0,3.0,520.5145920008363,3.0,1.0,phase_1,,,,,,,,,,,,,cyan,triangle
115.0,6.0,1.0,1.0,3.0,3.0,459.9419180012773,3.0,1.0,phase_1,,,,,,,,,,,,,orange,square
395.0,8.0,4.0,1.0,1.0,1.0,520.9120560011797,3.0,1.0,phase_1,,,,,,,,,,,,,cyan,triangle
184.0,7.0,2.0,1.0,3.0,3.0,450.9262639985536,3.0,1.0,phase_1,,,,,,,,,,,,,yellow,I
200.0,7.0,2.0,1.0,3.0,3.0,416.2392439993709,3.0,1.0,phase_1,,,,,,,,,,,,,yellow,I
424.0,8.0,4.0,1.0,2.0,2.0,339.4175289995473,3.0,1.0,phase_1,,,,,,,,,,,,,cyan,triangle
384.0,8.0,4.0,1.0,1.0,1.0,450.7694860003539,3.0,1.0,phase_1,,,,,,,,,,,,,cyan,triangle
394.0,4.0,4.0,0.0,4.0,4.0,391.1634150008467,3.0,1.0,phase_1,,,,,,,,,,,,,white,flipped triangle
120.0,6.0,1.0,1.0,4.0,4.0,515.3295199997956,3.0,1.0,phase_1,,,,,,,,,,,,,orange,square
37.0,5.0,0.5,1.0,2.0,2.0,566.3569900007133,3.0,1.0,phase_1,,,,,,,,,,,,,magenta,hexagon
59.0,5.0,0.5,1.0,2.0,2.0,345.7707050001772,3.0,1.0,phase_1,,,,,,,,,,,,,magenta,hexagon
187.0,3.0,2.0,0.0,1.0,1.0,481.4354240006651,3.0,1.0,phase_1,,,,,,,,,,,,,green,diamond
90.0,6.0,1.0,1.0,2.0,2.0,383.4230880001996,3.0,1.0,phase_1,,,,,,,,,,,,,orange,square
223.0,3.0,2.0,0.0,4.0,4.0,497.5459540000884,3.0,1.0,phase_1,,,,,,,,,,,,,green,diamond
387.0,4.0,4.0,0.0,2.0,2.0,376.1757370011764,3.0,1.0,phase_1,,,,,,,,,,,,,white,flipped triangle
45.0,5.0,0.5,1.0,2.0,2.0,483.3070029999362,3.0,1.0,phase_1,,,,,,,,,,,,,magenta,hexagon
28.0,5.0,0.5,1.0,1.0,1.0,421.0145480010396,3.0,1.0,phase_1,,,,,,,,,,,,,magenta,hexagon
102.0,2.0,1.0,0.0,1.0,1.0,379.3092349988001,3.0,1.0,phase_1,,,,,,,,,,,,,blue,circle
222.0,7.0,2.0,1.0,3.0,3.0,478.9697109990811,3.0,1.0,phase_1,,,,,,,,,,,,,yellow,I
31.0,5.0,0.5,1.0,2.0,2.0,333.3726210003078,3.0,1.0,phase_1,,,,,,,,,,,,,magenta,hexagon
387.0,8.0,4.0,1.0,4.0,4.0,406.7366509989369,3.0,4.0,phase_1,,,,,,,,,,,,,cyan,triangle
205.0,7.0,2.0,1.0,4.0,4.0,348.272729999735,3.0,1.0,phase_1,,,,,,,,,,,,,yellow,I
184.0,3.0,2.0,0.0,4.0,4.0,310.5586499987112,3.0,1.0,phase_1,,,,,,,,,,,,,green,diamond
195.0,3.0,2.0,0.0,3.0,3.0,444.8962610003946,3.0,1.0,phase_1,,,,,,,,,,,,,green,diamond
216.0,3.0,2.0,0.0,4.0,4.0,372.1875239989458,3.0,1.0,phase_1,,,,,,,,,,,,,green,diamond
95.0,2.0,1.0,0.0,4.0,4.0,355.4974910002784,3.0,1.0,phase_1,,,,,,,,,,,,,blue,circle
409.0,4.0,4.0,0.0,1.0,1.0,507.4351920011395,3.0,1.0,phase_1,,,,,,,,,,,,,white,flipped triangle
376.0,8.0,4.0,1.0,2.0,2.0,593.382795999787,4.0,1.0,phase_1,,,,,,,,,,,,,cyan,triangle
50.0,5.0,0.5,1.0,4.0,4.0,422.4457959990104,4.0,1.0,phase_1,,,,,,,,,,,,,magenta,hexagon
404.0,8.0,4.0,1.0,2.0,2.0,447.9201869999087,4.0,1.0,phase_1,,,,,,,,,,,,,cyan,triangle
106.0,6.0,1.0,1.0,1.0,1.0,415.4508209994674,4.0,1.0,phase_1,,,,,,,,,,,,,orange,square
419.0,8.0,4.0,1.0,3.0,3.0,438.3919009997044,4.0,1.0,phase_1,,,,,,,,,,,,,cyan,triangle
96.0,2.0,1.0,0.0,1.0,1.0,472.9314019987214,4.0,1.0,phase_1,,,,,,,,,,,,,blue,circle
423.0,4.0,4.0,0.0,1.0,1.0,481.9188179990306,4.0,1.0,phase_1,,,,,,,,,,,,,white,flipped triangle
0.0,2.0,0.0,0.0,4.0,4.0,427.9848880014469,4.0,1.0,phase_1,,,,,,,,,,,,,blue,circle
83.0,2.0,1.0,0.0,4.0,4.0,442.8192710001895,4.0,1.0,phase_1,,,,,,,,,,,,,blue,circle
421.0,4.0,4.0,0.0,2.0,2.0,479.7016299999086,4.0,1.0,phase_1,,,,,,,,,,,,,white,flipped triangle
0.0,7.0,0.0,1.0,3.0,3.0,355.36661200058,4.0,1.0,phase_1,,,,,,,,,,,,,yellow,I
0.0,5.0,0.0,1.0,2.0,2.0,363.1028270010574,4.0,1.0,phase_1,,,,,,,,,,,,,magenta,hexagon
0.0,8.0,0.0,1.0,1.0,1.0,563.0778510003438,4.0,1.0,phase_1,,,,,,,,,,,,,cyan,triangle
209.0,3.0,2.0,0.0,4.0,4.0,400.8006599997316,4.0,1.0,phase_1,,,,,,,,,,,,,green,diamond
384.0,4.0,4.0,0.0,2.0,2.0,514.8102260009182,4.0,1.0,phase_1,,,,,,,,,,,,,white,flipped triangle
124.0,6.0,1.0,1.0,2.0,2.0,465.0785019985051,4.0,1.0,phase_1,,,,,,,,,,,,,orange,square
89.0,2.0,1.0,0.0,1.0,1.0,407.1428839997679,4.0,1.0,phase_1,,,,,,,,,,,,,blue,circle
393.0,4.0,4.0,0.0,1.0,1.0,392.6380679986323,4.0,1.0,phase_1,,,,,,,,,,,,,white,flipped triangle
182.0,7.0,2.0,1.0,3.0,3.0,524.8146310004813,4.0,1.0,phase_1,,,,,,,,,,,,,yellow,I
0.0,4.0,0.0,0.0,4.0,4.0,478.1263389995729,4.0,1.0,phase_1,,,,,,,,,,,,,white,flipped triangle
0.0,7.0,0.0,1.0,4.0,4.0,626.3187390013627,4.0,1.0,phase_1,,,,,,,,,,,,,yellow,I
195.0,7.0,2.0,1.0,2.0,2.0,363.683363999371,4.0,1.0,phase_1,,,,,,,,,,,,,yellow,I
190.0,3.0,2.0,0.0,2.0,2.0,398.3562989997153,4.0,1.0,phase_1,,,,,,,,,,,,,green,diamond
423.0,8.0,4.0,1.0,4.0,4.0,465.254916000049,4.0,1.0,phase_1,,,,,,,,,,,,,cyan,triangle
0.0,4.0,0.0,0.0,2.0,2.0,405.7755969988648,4.0,1.0,phase_1,,,,,,,,,,,,,white,flipped triangle
78.0,2.0,1.0,0.0,1.0,1.0,415.9689459993387,4.0,1.0,phase_1,,,,,,,,,,,,,blue,circle
67.0,5.0,0.5,1.0,2.0,2.0,326.1940350002987,4.0,1.0,phase_1,,,,,,,,,,,,,magenta,hexagon
43.0,1.0,0.5,0.0,2.0,2.0,358.827387999554,4.0,1.0,phase_1,,,,,,,,,,,,,gray,cross
72.0,1.0,0.5,0.0,3.0,3.0,503.0271969990281,4.0,1.0,phase_1,,,,,,,,,,,,,gray,cross
108.0,6.0,1.0,1.0,2.0,2.0,498.0287580001459,4.0,1.0,phase_1,,,,,,,,,,,,,orange,square
209.0,7.0,2.0,1.0,1.0,1.0,428.5316289988259,4.0,2.0,phase_1,,,,,,,,,,,,,yellow,I
0.0,6.0,0.0,1.0,3.0,3.0,578.8004340010957,4.0,1.0,phase_1,,,,,,,,,,,,,orange,square
215.0,3.0,2.0,0.0,3.0,3.0,538.0511650000699,4.0,1.0,phase_1,,,,,,,,,,,,,green,diamond
419.0,4.0,4.0,0.0,4.0,4.0,577.7623079993646,4.0,1.0,phase_1,,,,,,,,,,,,,white,flipped triangle
210.0,7.0,2.0,1.0,4.0,4.0,899.1270169990457,4.0,1.0,phase_1,,,,,,,,,,,,,yellow,I
187.0,3.0,2.0,0.0,3.0,3.0,519.9301979992015,4.0,1.0,phase_1,,,,,,,,,,,,,green,diamond
385.0,8.0,4.0,1.0,4.0,4.0,531.6038739983924,4.0,1.0,phase_1,,,,,,,,,,,,,cyan,triangle
188.0,7.0,2.0,1.0,2.0,2.0,601.6104940008518,4.0,1.0,phase_1,,,,,,,,,,,,,yellow,I
388.0,4.0,4.0,0.0,4.0,4.0,793.2535559993994,4.0,1.0,phase_1,,,,,,,,,,,,,white,flipped triangle
124.0,2.0,1.0,0.0,2.0,2.0,420.7102990003477,4.0,1.0,phase_1,,,,,,,,,,,,,blue,circle
0.0,8.0,0.0,1.0,4.0,4.0,772.6464820007095,4.0,1.0,phase_1,,,,,,,,,,,,,cyan,triangle
204.0,7.0,2.0,1.0,1.0,1.0,851.1555309996766,4.0,1.0,phase_1,,,,,,,,,,,,,yellow,I
0.0,5.0,0.0,1.0,3.0,3.0,925.0535329993,4.0,1.0,phase_1,,,,,,,,,,,,,magenta,hexagon
95.0,6.0,1.0,1.0,3.0,3.0,820.176260000153,4.0,1.0,phase_1,,,,,,,,,,,,,orange,square
187.0,7.0,2.0,1.0,1.0,1.0,558.6638679997122,4.0,1.0,phase_1,,,,,,,,,,,,,yellow,I
207.0,3.0,2.0,0.0,2.0,2.0,816.415708999557,4.0,2.0,phase_1,,,,,,,,,,,,,green,diamond
75.0,1.0,0.5,0.0,4.0,4.0,816.5354289994866,4.0,1.0,phase_1,,,,,,,,,,,,,gray,cross
54.0,1.0,0.5,0.0,1.0,1.0,482.4183749988151,4.0,1.0,phase_1,,,,,,,,,,,,,gray,cross
187.0,3.0,2.0,0.0,2.0,2.0,430.0481840000429,4.0,2.0,phase_1,,,,,,,,,,,,,green,diamond
205.0,3.0,2.0,0.0,2.0,2.0,409.4497539990698,4.0,1.0,phase_1,,,,,,,,,,,,,green,diamond
0.0,1.0,0.0,0.0,2.0,2.0,354.0355229997658,4.0,1.0,phase_1,,,,,,,,,,,,,gray,cross
198.0,7.0,2.0,1.0,4.0,4.0,886.222479000935,4.0,1.0,phase_1,,,,,,,,,,,,,yellow,I
79.0,6.0,1.0,1.0,4.0,4.0,970.6923070007178,4.0,1.0,phase_1,,,,,,,,,,,,,orange,square
110.0,6.0,1.0,1.0,4.0,4.0,795.7859130001452,4.0,1.0,phase_1,,,,,,,,,,,,,orange,square
124.0,6.0,1.0,1.0,4.0,4.0,443.6155519997555,4.0,1.0,phase_1,,,,,,,,,,,,,orange,square
75.0,5.0,0.5,1.0,3.0,3.0,570.4396919991268,4.0,1.0,phase_1,,,,,,,,,,,,,magenta,hexagon
0.0,2.0,0.0,0.0,3.0,3.0,692.9325479995896,4.0,1.0,phase_1,,,,,,,,,,,,,blue,circle
65.0,5.0,0.5,1.0,1.0,1.0,687.0353279991832,4.0,1.0,phase_1,,,,,,,,,,,,,magenta,hexagon
0.0,2.0,0.0,0.0,4.0,4.0,566.6035249996639,4.0,1.0,phase_1,,,,,,,,,,,,,blue,circle
58.0,5.0,0.5,1.0,4.0,4.0,537.3518970009172,4.0,1.0,phase_1,,,,,,,,,,,,,magenta,hexagon
0.0,5.0,0.0,1.0,2.0,2.0,817.2904559996823,4.0,1.0,phase_1,,,,,,,,,,,,,magenta,hexagon
65.0,5.0,0.5,1.0,3.0,3.0,857.721878999655,4.0,1.0,phase_1,,,,,,,,,,,,,magenta,hexagon
376.0,4.0,4.0,0.0,4.0,4.0,933.8993590008612,4.0,1.0,phase_1,,,,,,,,,,,,,white,flipped triangle
0.0,3.0,0.0,0.0,1.0,1.0,519.2373949994362,4.0,2.0,phase_1,,,,,,,,,,,,,green,diamond
215.0,3.0,2.0,0.0,4.0,4.0,967.3352770005296,4.0,1.0,phase_1,,,,,,,,,,,,,green,diamond
0.0,8.0,0.0,1.0,3.0,3.0,474.6441509996657,4.0,1.0,phase_1,,,,,,,,,,,,,cyan,triangle
124.0,2.0,1.0,0.0,2.0,2.0,369.3993549986771,4.0,1.0,phase_1,,,,,,,,,,,,,blue,circle
37.0,1.0,0.5,0.0,1.0,1.0,486.5221299987752,4.0,1.0,phase_1,,,,,,,,,,,,,gray,cross
90.0,2.0,1.0,0.0,3.0,3.0,884.7587529999146,4.0,1.0,phase_1,,,,,,,,,,,,,blue,circle
32.0,1.0,0.5,0.0,3.0,3.0,969.9831099987932,4.0,2.0,phase_1,,,,,,,,,,,,,gray,cross
0.0,5.0,0.0,1.0,3.0,3.0,850.9671550000348,4.0,1.0,phase_1,,,,,,,,,,,,,magenta,hexagon
118.0,6.0,1.0,1.0,4.0,4.0,619.8151979988324,4.0,1.0,phase_1,,,,,,,,,,,,,orange,square
192.0,3.0,2.0,0.0,2.0,2.0,562.3670709992439,4.0,1.0,phase_1,,,,,,,,,,,,,green,diamond
62.0,5.0,0.5,1.0,2.0,2.0,820.4074929999479,4.0,1.0,phase_1,,,,,,,,,,,,,magenta,hexagon
110.0,6.0,1.0,1.0,4.0,4.0,521.9123120004951,4.0,1.0,phase_1,,,,,,,,,,,,,orange,square
400.0,4.0,4.0,0.0,3.0,3.0,490.8343260012771,4.0,1.0,phase_1,,,,,,,,,,,,,white,flipped triangle
0.0,4.0,0.0,0.0,2.0,2.0,941.250071999093,4.0,1.0,phase_1,,,,,,,,,,,,,white,flipped triangle
41.0,1.0,0.5,0.0,3.0,3.0,450.8396080000239,4.0,2.0,phase_1,,,,,,,,,,,,,gray,cross
422.0,8.0,4.0,1.0,2.0,2.0,616.5065740005957,4.0,1.0,phase_1,,,,,,,,,,,,,cyan,triangle
416.0,8.0,4.0,1.0,3.0,3.0,416.6540160003933,4.0,1.0,phase_1,,,,,,,,,,,,,cyan,triangle
85.0,2.0,1.0,0.0,2.0,2.0,507.9833810013952,4.0,1.0,phase_1,,,,,,,,,,,,,blue,circle
388.0,8.0,4.0,1.0,1.0,1.0,492.6039239999227,4.0,1.0,phase_1,,,,,,,,,,,,,cyan,triangle
36.0,5.0,0.5,1.0,4.0,4.0,571.3951759989868,4.0,1.0,phase_1,,,,,,,,,,,,,magenta,hexagon
411.0,8.0,4.0,1.0,4.0,4.0,639.3356349999522,4.0,1.0,phase_1,,,,,,,,,,,,,cyan,triangle
0.0,3.0,0.0,0.0,4.0,4.0,450.36377499855,4.0,1.0,phase_1,,,,,,,,,,,,,green,diamond
0.0,1.0,0.0,0.0,3.0,3.0,445.9277779988042,4.0,1.0,phase_1,,,,,,,,,,,,,gray,cross
191.0,7.0,2.0,1.0,2.0,2.0,405.136893999952,4.0,1.0,phase_1,,,,,,,,,,,,,yellow,I
178.0,3.0,2.0,0.0,2.0,2.0,369.1966099995625,4.0,1.0,phase_1,,,,,,,,,,,,,green,diamond
68.0,1.0,0.5,0.0,3.0,3.0,505.49620000128925,4.0,1.0,phase_1,,,,,,,,,,,,,gray,cross
99.0,2.0,1.0,0.0,2.0,2.0,658.2382249998773,4.0,1.0,phase_1,,,,,,,,,,,,,blue,circle
36.0,1.0,0.5,0.0,2.0,2.0,380.5959949986572,4.0,1.0,phase_1,,,,,,,,,,,,,gray,cross
31.0,1.0,0.5,0.0,4.0,4.0,737.5660800007608,4.0,1.0,phase_1,,,,,,,,,,,,,gray,cross
377.0,4.0,4.0,0.0,4.0,4.0,559.4541299997218,4.0,1.0,phase_1,,,,,,,,,,,,,white,flipped triangle
0.0,5.0,0.0,1.0,2.0,2.0,458.0977090008673,4.0,1.0,phase_1,,,,,,,,,,,,,magenta,hexagon
196.0,3.0,2.0,0.0,2.0,2.0,472.0689270016009,4.0,1.0,phase_1,,,,,,,,,,,,,green,diamond
42.0,5.0,0.5,1.0,1.0,1.0,439.3406090002827,4.0,1.0,phase_1,,,,,,,,,,,,,magenta,hexagon
118.0,2.0,1.0,0.0,4.0,4.0,386.5894160007883,4.0,2.0,phase_1,,,,,,,,,,,,,blue,circle
82.0,6.0,1.0,1.0,4.0,4.0,433.8191930000903,4.0,1.0,phase_1,,,,,,,,,,,,,orange,square
43.0,1.0,0.5,0.0,3.0,3.0,448.1989560008514,4.0,1.0,phase_1,,,,,,,,,,,,,gray,cross
0.0,1.0,0.0,0.0,1.0,1.0,460.7096250001632,4.0,1.0,phase_1,,,,,,,,,,,,,gray,cross
0.0,5.0,0.5,1.0,5.0,0.0,0.0,1.0,1.0,phase_2,stop,250.0,250.0,4.0,,,,,,,,,magenta,hexagon
0.0,3.0,2.0,0.0,6.0,6.0,1227.192031999948,1.0,1.0,phase_2,go,300.0,250.0,1.0,,,,,,,,,green,diamond
0.0,7.0,2.0,1.0,6.0,6.0,1328.9872969999124,1.0,1.0,phase_2,go,300.0,250.0,1.0,,,,,,,,,yellow,I
0.0,3.0,2.0,0.0,5.0,5.0,1302.2933740012377,1.0,1.0,phase_2,go,300.0,250.0,1.0,,,,,,,,,green,diamond
0.0,7.0,2.0,1.0,6.0,0.0,0.0,1.0,1.0,phase_2,stop,300.0,250.0,4.0,,,,,,,,,yellow,I
0.0,1.0,0.5,0.0,5.0,5.0,902.9041419998975,1.0,1.0,phase_2,go,300.0,300.0,1.0,,,,,,,,,gray,cross
0.0,5.0,0.5,1.0,6.0,0.0,0.0,1.0,1.0,phase_2,stop,300.0,300.0,4.0,,,,,,,,,magenta,hexagon
0.0,3.0,2.0,0.0,5.0,5.0,742.9265680002572,1.0,1.0,phase_2,go,300.0,350.0,1.0,,,,,,,,,green,diamond
0.0,5.0,0.5,1.0,6.0,0.0,0.0,1.0,1.0,phase_2,stop,300.0,350.0,4.0,,,,,,,,,magenta,hexagon
0.0,8.0,4.0,1.0,5.0,0.0,0.0,1.0,1.0,phase_2,stop,300.0,400.0,4.0,,,,,,,,,cyan,triangle
0.0,8.0,4.0,1.0,5.0,0.0,0.0,1.0,1.0,phase_2,stop,350.0,400.0,4.0,,,,,,,,,cyan,triangle
0.0,1.0,0.5,0.0,5.0,0.0,0.0,1.0,1.0,phase_2,go,400.0,400.0,5.0,,,,,,,,,gray,cross
0.0,4.0,4.0,0.0,6.0,0.0,0.0,1.0,1.0,phase_2,go,400.0,400.0,5.0,,,,,,,,,white,flipped triangle
0.0,7.0,2.0,1.0,5.0,0.0,0.0,1.0,1.0,phase_2,stop,400.0,400.0,4.0,,,,,,,,,yellow,I
0.0,5.0,0.5,1.0,5.0,5.0,918.5406279993912,1.0,1.0,phase_2,go,450.0,400.0,1.0,,,,,,,,,magenta,hexagon
0.0,3.0,2.0,0.0,5.0,5.0,1167.863484000918,1.0,1.0,phase_2,go,450.0,400.0,1.0,,,,,,,,,green,diamond
0.0,7.0,2.0,1.0,6.0,0.0,0.0,1.0,1.0,phase_2,stop,450.0,400.0,4.0,,,,,,,,,yellow,I
0.0,8.0,4.0,1.0,5.0,0.0,0.0,1.0,1.0,phase_2,stop,450.0,450.0,4.0,,,,,,,,,cyan,triangle
0.0,2.0,1.0,0.0,5.0,5.0,1004.9577910012886,1.0,1.0,phase_2,go,500.0,450.0,1.0,,,,,,,,,blue,circle
0.0,7.0,2.0,1.0,5.0,0.0,0.0,1.0,1.0,phase_2,stop,500.0,450.0,4.0,,,,,,,,,yellow,I
0.0,1.0,0.5,0.0,6.0,6.0,1093.9395159984997,1.0,1.0,phase_2,go,550.0,450.0,1.0,,,,,,,,,gray,cross
0.0,3.0,2.0,0.0,5.0,5.0,1025.020842000231,1.0,1.0,phase_2,go,550.0,450.0,1.0,,,,,,,,,green,diamond
0.0,1.0,0.5,0.0,5.0,0.0,0.0,1.0,1.0,phase_2,go,550.0,450.0,5.0,,,,,,,,,gray,cross
0.0,4.0,4.0,0.0,5.0,5.0,941.6021590004676,1.0,1.0,phase_2,go,550.0,450.0,1.0,,,,,,,,,white,flipped triangle
0.0,5.0,0.5,1.0,6.0,6.0,912.794218000272,1.0,1.0,phase_2,go,550.0,450.0,1.0,,,,,,,,,magenta,hexagon
0.0,2.0,1.0,0.0,5.0,5.0,829.4387080004526,1.0,1.0,phase_2,go,550.0,450.0,1.0,,,,,,,,,blue,circle
0.0,4.0,4.0,0.0,6.0,6.0,954.861697000524,1.0,1.0,phase_2,go,550.0,450.0,1.0,,,,,,,,,white,flipped triangle
0.0,6.0,1.0,1.0,5.0,0.0,0.0,1.0,1.0,phase_2,stop,550.0,450.0,4.0,,,,,,,,,orange,square
0.0,2.0,1.0,0.0,5.0,5.0,1230.4423899986432,1.0,1.0,phase_2,go,600.0,450.0,1.0,,,,,,,,,blue,circle
0.0,4.0,4.0,0.0,5.0,5.0,1036.8526500005828,1.0,1.0,phase_2,go,600.0,450.0,1.0,,,,,,,,,white,flipped triangle
0.0,6.0,1.0,1.0,5.0,5.0,1011.662177999824,1.0,1.0,phase_2,go,600.0,450.0,1.0,,,,,,,,,orange,square
0.0,6.0,1.0,1.0,6.0,0.0,0.0,1.0,1.0,phase_2,stop,600.0,450.0,4.0,,,,,,,,,orange,square
0.0,8.0,4.0,1.0,6.0,6.0,1079.8888560002524,1.0,1.0,phase_2,go,600.0,500.0,1.0,,,,,,,,,cyan,triangle
0.0,5.0,0.5,1.0,6.0,0.0,0.0,1.0,1.0,phase_2,stop,600.0,500.0,4.0,,,,,,,,,magenta,hexagon
0.0,4.0,4.0,0.0,5.0,5.0,1133.2221049997315,1.0,1.0,phase_2,go,600.0,550.0,1.0,,,,,,,,,white,flipped triangle
0.0,3.0,2.0,0.0,6.0,6.0,1142.1049689997744,1.0,1.0,phase_2,go,600.0,550.0,1.0,,,,,,,,,green,diamond
0.0,3.0,2.0,0.0,6.0,6.0,712.6050460010447,2.0,1.0,phase_2,go,600.0,550.0,1.0,,,,,,,,,green,diamond
0.0,8.0,4.0,1.0,5.0,5.0,612.0542870012287,2.0,1.0,phase_2,go,600.0,550.0,1.0,,,,,,,,,cyan,triangle
0.0,6.0,1.0,1.0,5.0,5.0,545.3020990007644,2.0,1.0,phase_2,go,600.0,550.0,1.0,,,,,,,,,orange,square
0.0,5.0,0.5,1.0,5.0,5.0,852.3435709994374,2.0,1.0,phase_2,go,600.0,550.0,1.0,,,,,,,,,magenta,hexagon
0.0,8.0,4.0,1.0,6.0,6.0,588.7826990001486,2.0,1.0,phase_2,stop,600.0,550.0,3.0,,,,,,,,,cyan,triangle
0.0,1.0,0.5,0.0,6.0,6.0,1472.96109600029,2.0,1.0,phase_2,go,600.0,500.0,1.0,,,,,,,,,gray,cross
0.0,3.0,2.0,0.0,5.0,5.0,1053.343847001088,2.0,1.0,phase_2,go,600.0,500.0,1.0,,,,,,,,,green,diamond
0.0,7.0,2.0,1.0,6.0,6.0,922.5975360004668,2.0,1.0,phase_2,go,600.0,500.0,1.0,,,,,,,,,yellow,I
0.0,2.0,1.0,0.0,5.0,5.0,993.9803090001078,2.0,1.0,phase_2,go,600.0,500.0,1.0,,,,,,,,,blue,circle
0.0,6.0,1.0,1.0,6.0,6.0,540.7921109999734,2.0,1.0,phase_2,stop,600.0,500.0,3.0,,,,,,,,,orange,square
0.0,1.0,0.5,0.0,6.0,6.0,948.4604480003328,2.0,1.0,phase_2,go,600.0,450.0,1.0,,,,,,,,,gray,cross
0.0,5.0,0.5,1.0,5.0,5.0,674.1391279992968,2.0,1.0,phase_2,go,600.0,450.0,1.0,,,,,,,,,magenta,hexagon
0.0,2.0,1.0,0.0,5.0,5.0,1087.5726209997083,2.0,1.0,phase_2,go,600.0,450.0,1.0,,,,,,,,,blue,circle
0.0,8.0,4.0,1.0,5.0,5.0,646.4345199983654,2.0,1.0,phase_2,go,600.0,450.0,1.0,,,,,,,,,cyan,triangle
0.0,5.0,0.5,1.0,6.0,0.0,0.0,2.0,1.0,phase_2,stop,600.0,450.0,4.0,,,,,,,,,magenta,hexagon
0.0,4.0,4.0,0.0,5.0,5.0,591.096631000255,2.0,1.0,phase_2,go,600.0,500.0,1.0,,,,,,,,,white,flipped triangle
0.0,5.0,0.5,1.0,6.0,0.0,0.0,2.0,1.0,phase_2,stop,600.0,500.0,4.0,,,,,,,,,magenta,hexagon
0.0,2.0,1.0,0.0,6.0,6.0,1148.9839020014188,2.0,1.0,phase_2,go,600.0,550.0,1.0,,,,,,,,,blue,circle
0.0,4.0,4.0,0.0,6.0,6.0,1129.371122999146,2.0,1.0,phase_2,go,600.0,550.0,1.0,,,,,,,,,white,flipped triangle
0.0,6.0,1.0,1.0,5.0,0.0,0.0,2.0,1.0,phase_2,stop,600.0,550.0,4.0,,,,,,,,,orange,square
0.0,1.0,0.5,0.0,6.0,6.0,1120.5526849989838,2.0,1.0,phase_2,go,650.0,550.0,1.0,,,,,,,,,gray,cross
0.0,2.0,1.0,0.0,6.0,6.0,1110.8223810006166,2.0,1.0,phase_2,go,650.0,550.0,1.0,,,,,,,,,blue,circle
0.0,2.0,1.0,0.0,6.0,6.0,1299.5497979991342,2.0,1.0,phase_2,go,650.0,550.0,1.0,,,,,,,,,blue,circle
0.0,7.0,2.0,1.0,6.0,0.0,0.0,2.0,1.0,phase_2,stop,650.0,550.0,4.0,,,,,,,,,yellow,I
0.0,3.0,2.0,0.0,5.0,5.0,1420.5041240002174,2.0,1.0,phase_2,go,650.0,600.0,1.0,,,,,,,,,green,diamond
0.0,6.0,1.0,1.0,5.0,0.0,0.0,2.0,1.0,phase_2,stop,650.0,600.0,4.0,,,,,,,,,orange,square
0.0,6.0,1.0,1.0,5.0,0.0,0.0,2.0,1.0,phase_2,stop,700.0,600.0,4.0,,,,,,,,,orange,square
0.0,7.0,2.0,1.0,6.0,0.0,0.0,2.0,1.0,phase_2,stop,750.0,600.0,4.0,,,,,,,,,yellow,I
0.0,2.0,1.0,0.0,5.0,5.0,1051.395724000031,2.0,1.0,phase_2,go,750.0,650.0,1.0,,,,,,,,,blue,circle
0.0,3.0,2.0,0.0,5.0,5.0,1220.1236420005444,2.0,1.0,phase_2,go,750.0,650.0,1.0,,,,,,,,,green,diamond
0.0,6.0,1.0,1.0,6.0,0.0,0.0,2.0,1.0,phase_2,stop,750.0,650.0,4.0,,,,,,,,,orange,square
0.0,2.0,1.0,0.0,5.0,5.0,1315.8023099986167,2.0,1.0,phase_2,go,750.0,700.0,1.0,,,,,,,,,blue,circle
0.0,4.0,4.0,0.0,5.0,5.0,1351.8681900004594,2.0,1.0,phase_2,go,750.0,700.0,1.0,,,,,,,,,white,flipped triangle
0.0,6.0,1.0,1.0,5.0,0.0,0.0,2.0,1.0,phase_2,stop,750.0,700.0,4.0,,,,,,,,,orange,square
0.0,8.0,4.0,1.0,5.0,0.0,0.0,2.0,1.0,phase_2,stop,800.0,700.0,4.0,,,,,,,,,cyan,triangle
0.0,1.0,0.5,0.0,6.0,6.0,1206.5326040010405,2.0,1.0,phase_2,go,850.0,700.0,1.0,,,,,,,,,gray,cross
0.0,8.0,4.0,1.0,5.0,5.0,395.6663709996064,3.0,1.0,phase_2,stop,850.0,700.0,3.0,,,,,,,,,cyan,triangle
0.0,7.0,2.0,1.0,6.0,6.0,735.4739940001309,3.0,1.0,phase_2,stop,800.0,700.0,3.0,,,,,,,,,yellow,I
0.0,2.0,1.0,0.0,6.0,6.0,1017.2836870005997,3.0,1.0,phase_2,go,800.0,650.0,1.0,,,,,,,,,blue,circle
0.0,2.0,1.0,0.0,5.0,5.0,890.9433330009051,3.0,1.0,phase_2,go,800.0,650.0,1.0,,,,,,,,,blue,circle
0.0,8.0,4.0,1.0,6.0,0.0,0.0,3.0,1.0,phase_2,stop,800.0,650.0,4.0,,,,,,,,,cyan,triangle
0.0,4.0,4.0,0.0,6.0,6.0,830.7459549996565,3.0,1.0,phase_2,go,800.0,700.0,1.0,,,,,,,,,white,flipped triangle
0.0,1.0,0.5,0.0,6.0,6.0,1035.8645579999577,3.0,1.0,phase_2,go,800.0,700.0,1.0,,,,,,,,,gray,cross
0.0,4.0,4.0,0.0,5.0,5.0,834.2615459987428,3.0,1.0,phase_2,go,800.0,700.0,1.0,,,,,,,,,white,flipped triangle
0.0,5.0,0.5,1.0,5.0,5.0,918.348610000976,3.0,1.0,phase_2,stop,800.0,700.0,3.0,,,,,,,,,magenta,hexagon
0.0,2.0,1.0,0.0,5.0,5.0,1221.0153680007352,3.0,1.0,phase_2,go,750.0,700.0,1.0,,,,,,,,,blue,circle
0.0,4.0,4.0,0.0,5.0,5.0,1010.0520880005206,3.0,1.0,phase_2,go,750.0,700.0,1.0,,,,,,,,,white,flipped triangle
0.0,3.0,2.0,0.0,6.0,6.0,922.371701000884,3.0,1.0,phase_2,go,750.0,700.0,1.0,,,,,,,,,green,diamond
0.0,8.0,4.0,1.0,6.0,0.0,0.0,3.0,1.0,phase_2,stop,750.0,700.0,4.0,,,,,,,,,cyan,triangle
0.0,5.0,0.5,1.0,5.0,5.0,892.9901209994568,3.0,1.0,phase_2,stop,750.0,750.0,3.0,,,,,,,,,magenta,hexagon
0.0,6.0,1.0,1.0,6.0,0.0,0.0,3.0,1.0,phase_2,stop,700.0,750.0,4.0,,,,,,,,,orange,square
0.0,4.0,4.0,0.0,5.0,5.0,1227.2139079996125,3.0,1.0,phase_2,go,700.0,800.0,1.0,,,,,,,,,white,flipped triangle
0.0,8.0,4.0,1.0,5.0,0.0,0.0,3.0,1.0,phase_2,stop,700.0,800.0,4.0,,,,,,,,,cyan,triangle
0.0,6.0,1.0,1.0,5.0,0.0,0.0,3.0,1.0,phase_2,stop,750.0,800.0,4.0,,,,,,,,,orange,square
0.0,7.0,2.0,1.0,5.0,0.0,0.0,3.0,1.0,phase_2,go,800.0,800.0,5.0,,,,,,,,,yellow,I
0.0,2.0,1.0,0.0,6.0,0.0,0.0,3.0,1.0,phase_2,go,800.0,800.0,5.0,,,,,,,,,blue,circle
0.0,1.0,0.5,0.0,5.0,5.0,1078.7563699996101,3.0,1.0,phase_2,go,800.0,800.0,1.0,,,,,,,,,gray,cross
0.0,1.0,0.5,0.0,5.0,0.0,0.0,3.0,1.0,phase_2,go,800.0,800.0,5.0,,,,,,,,,gray,cross
0.0,6.0,1.0,1.0,6.0,0.0,0.0,3.0,1.0,phase_2,stop,800.0,800.0,4.0,,,,,,,,,orange,square
0.0,4.0,4.0,0.0,5.0,5.0,1002.7097239999421,3.0,1.0,phase_2,go,800.0,850.0,1.0,,,,,,,,,white,flipped triangle
0.0,5.0,0.5,1.0,5.0,0.0,0.0,3.0,1.0,phase_2,stop,800.0,850.0,4.0,,,,,,,,,magenta,hexagon
0.0,3.0,2.0,0.0,5.0,5.0,1222.8166929999134,3.0,1.0,phase_2,go,850.0,850.0,1.0,,,,,,,,,green,diamond
0.0,5.0,0.5,1.0,6.0,0.0,0.0,3.0,1.0,phase_2,stop,850.0,850.0,4.0,,,,,,,,,magenta,hexagon
0.0,8.0,4.0,1.0,6.0,6.0,1165.2883980004844,3.0,1.0,phase_2,go,850.0,900.0,1.0,,,,,,,,,cyan,triangle
0.0,3.0,2.0,0.0,5.0,5.0,1070.5137669992837,3.0,1.0,phase_2,go,850.0,900.0,1.0,,,,,,,,,green,diamond
0.0,2.0,1.0,0.0,5.0,0.0,0.0,3.0,1.0,phase_2,go,850.0,900.0,5.0,,,,,,,,,blue,circle
0.0,7.0,2.0,1.0,5.0,5.0,887.2338910005055,3.0,1.0,phase_2,stop,850.0,900.0,3.0,,,,,,,,,yellow,I
0.0,6.0,1.0,1.0,5.0,0.0,0.0,3.0,1.0,phase_2,stop,800.0,900.0,4.0,,,,,,,,,orange,square
0.0,4.0,4.0,0.0,6.0,6.0,711.2056480000319,3.0,1.0,phase_2,go,850.0,900.0,1.0,,,,,,,,,white,flipped triangle
0.0,1.0,0.5,0.0,6.0,6.0,1137.4394440008473,3.0,1.0,phase_2,go,850.0,900.0,1.0,,,,,,,,,gray,cross
0.0,8.0,4.0,1.0,5.0,5.0,1346.113892001085,3.0,1.0,phase_2,go,850.0,900.0,1.0,,,,,,,,,cyan,triangle
0.0,5.0,0.5,1.0,5.0,0.0,0.0,3.0,1.0,phase_2,stop,850.0,900.0,4.0,,,,,,,,,magenta,hexagon
0.0,1.0,0.5,0.0,5.0,5.0,911.8520989995886,4.0,1.0,phase_2,go,900.0,900.0,1.0,,,,,,,,,gray,cross
0.0,5.0,0.5,1.0,5.0,5.0,960.0676930003827,4.0,1.0,phase_2,stop,900.0,900.0,3.0,,,,,,,,,magenta,hexagon
0.0,7.0,2.0,1.0,5.0,0.0,0.0,4.0,1.0,phase_2,stop,850.0,900.0,4.0,,,,,,,,,yellow,I
0.0,4.0,4.0,0.0,5.0,0.0,0.0,4.0,1.0,phase_2,go,900.0,900.0,5.0,,,,,,,,,white,flipped triangle
0.0,4.0,4.0,0.0,6.0,6.0,995.527139000842,4.0,1.0,phase_2,go,900.0,900.0,1.0,,,,,,,,,white,flipped triangle
0.0,3.0,2.0,0.0,5.0,5.0,1051.0528260001593,4.0,1.0,phase_2,go,900.0,900.0,1.0,,,,,,,,,green,diamond
0.0,3.0,2.0,0.0,5.0,5.0,996.1015259996202,4.0,1.0,phase_2,go,900.0,900.0,1.0,,,,,,,,,green,diamond
0.0,2.0,1.0,0.0,6.0,6.0,1053.383417000077,4.0,1.0,phase_2,go,900.0,900.0,1.0,,,,,,,,,blue,circle
0.0,1.0,0.5,0.0,5.0,5.0,1068.8228440012608,4.0,1.0,phase_2,go,900.0,900.0,1.0,,,,,,,,,gray,cross
0.0,3.0,2.0,0.0,5.0,5.0,1027.1911899999395,4.0,1.0,phase_2,go,900.0,900.0,1.0,,,,,,,,,green,diamond
0.0,3.0,2.0,0.0,5.0,5.0,1282.4932570001693,4.0,1.0,phase_2,go,900.0,900.0,1.0,,,,,,,,,green,diamond
0.0,7.0,2.0,1.0,6.0,0.0,0.0,4.0,1.0,phase_2,stop,900.0,900.0,4.0,,,,,,,,,yellow,I
0.0,6.0,1.0,1.0,5.0,5.0,882.2654460000194,4.0,1.0,phase_2,stop,900.0,950.0,3.0,,,,,,,,,orange,square
0.0,8.0,4.0,1.0,5.0,0.0,0.0,4.0,1.0,phase_2,stop,850.0,950.0,4.0,,,,,,,,,cyan,triangle
0.0,4.0,4.0,0.0,6.0,0.0,0.0,4.0,1.0,phase_2,go,900.0,950.0,5.0,,,,,,,,,white,flipped triangle
0.0,1.0,0.5,0.0,6.0,0.0,0.0,4.0,1.0,phase_2,go,900.0,950.0,5.0,,,,,,,,,gray,cross
0.0,5.0,0.5,1.0,6.0,0.0,0.0,4.0,1.0,phase_2,stop,900.0,950.0,4.0,,,,,,,,,magenta,hexagon
0.0,8.0,4.0,1.0,6.0,0.0,0.0,4.0,1.0,phase_2,stop,900.0,1000.0,4.0,,,,,,,,,cyan,triangle
0.0,4.0,4.0,0.0,6.0,0.0,0.0,4.0,1.0,phase_2,go,900.0,1050.0,5.0,,,,,,,,,white,flipped triangle
0.0,2.0,1.0,0.0,5.0,0.0,0.0,4.0,1.0,phase_2,go,900.0,1050.0,5.0,,,,,,,,,blue,circle
0.0,3.0,2.0,0.0,6.0,6.0,1018.8905720006003,4.0,1.0,phase_2,go,900.0,1050.0,1.0,,,,,,,,,green,diamond
0.0,4.0,4.0,0.0,6.0,6.0,1103.430503000709,4.0,1.0,phase_2,go,900.0,1050.0,1.0,,,,,,,,,white,flipped triangle
0.0,2.0,1.0,0.0,6.0,6.0,1023.7118390014075,4.0,1.0,phase_2,go,900.0,1050.0,1.0,,,,,,,,,blue,circle
0.0,8.0,4.0,1.0,6.0,6.0,1362.921418998667,4.0,1.0,phase_2,go,900.0,1050.0,1.0,,,,,,,,,cyan,triangle
0.0,2.0,1.0,0.0,5.0,5.0,1283.3918020005513,4.0,1.0,phase_2,go,900.0,1050.0,1.0,,,,,,,,,blue,circle
0.0,1.0,0.5,0.0,5.0,5.0,1360.7664480005042,4.0,1.0,phase_2,go,900.0,1050.0,1.0,,,,,,,,,gray,cross
0.0,4.0,4.0,0.0,5.0,0.0,0.0,4.0,1.0,phase_2,go,900.0,1050.0,5.0,,,,,,,,,white,flipped triangle
0.0,7.0,2.0,1.0,6.0,0.0,0.0,4.0,1.0,phase_2,stop,900.0,1050.0,4.0,,,,,,,,,yellow,I
0.0,5.0,0.5,1.0,6.0,0.0,0.0,4.0,1.0,phase_2,go,900.0,1100.0,5.0,,,,,,,,,magenta,hexagon
0.0,7.0,2.0,1.0,6.0,0.0,0.0,4.0,1.0,phase_2,stop,900.0,1100.0,4.0,,,,,,,,,yellow,I
0.0,5.0,0.5,1.0,6.0,0.0,0.0,4.0,1.0,phase_2,stop,900.0,1150.0,4.0,,,,,,,,,magenta,hexagon
0.0,4.0,4.0,0.0,5.0,0.0,0.0,4.0,1.0,phase_2,go,900.0,1200.0,5.0,,,,,,,,,white,flipped triangle
0.0,8.0,4.0,1.0,5.0,0.0,0.0,4.0,1.0,phase_2,stop,900.0,1200.0,4.0,,,,,,,,,cyan,triangle
0.0,7.0,2.0,1.0,6.0,0.0,0.0,4.0,1.0,phase_2,go,950.0,1200.0,5.0,,,,,,,,,yellow,I
0.0,8.0,4.0,1.0,5.0,0.0,0.0,4.0,1.0,phase_2,stop,950.0,1200.0,4.0,,,,,,,,,cyan,triangle
0.0,6.0,1.0,1.0,6.0,0.0,0.0,4.0,1.0,phase_2,go,1000.0,1200.0,5.0,,,,,,,,,orange,square
0.0,4.0,4.0,0.0,6.0,6.0,1265.63838400034,5.0,1.0,phase_2,go,1000.0,1200.0,1.0,,,,,,,,,white,flipped triangle
0.0,1.0,0.5,0.0,6.0,6.0,1141.3196350004,5.0,1.0,phase_2,go,1000.0,1200.0,1.0,,,,,,,,,gray,cross
0.0,3.0,2.0,0.0,6.0,6.0,978.555203999349,5.0,1.0,phase_2,go,1000.0,1200.0,1.0,,,,,,,,,green,diamond
0.0,6.0,1.0,1.0,6.0,6.0,1134.3325139987428,5.0,1.0,phase_2,stop,1000.0,1200.0,3.0,,,,,,,,,orange,square
0.0,2.0,1.0,0.0,6.0,0.0,0.0,5.0,1.0,phase_2,go,1000.0,1150.0,5.0,,,,,,,,,blue,circle
0.0,6.0,1.0,1.0,5.0,0.0,0.0,5.0,1.0,phase_2,go,1000.0,1150.0,5.0,,,,,,,,,orange,square
0.0,3.0,2.0,0.0,6.0,0.0,0.0,5.0,1.0,phase_2,go,1000.0,1150.0,5.0,,,,,,,,,green,diamond
0.0,8.0,4.0,1.0,6.0,0.0,0.0,5.0,1.0,phase_2,stop,1000.0,1150.0,4.0,,,,,,,,,cyan,triangle
0.0,6.0,1.0,1.0,5.0,0.0,0.0,5.0,1.0,phase_2,go,1000.0,1200.0,5.0,,,,,,,,,orange,square
0.0,8.0,4.0,1.0,6.0,0.0,0.0,5.0,1.0,phase_2,stop,1000.0,1200.0,4.0,,,,,,,,,cyan,triangle
0.0,7.0,2.0,1.0,5.0,0.0,0.0,5.0,1.0,phase_2,stop,1000.0,1250.0,4.0,,,,,,,,,yellow,I
0.0,1.0,0.5,0.0,6.0,0.0,0.0,5.0,1.0,phase_2,go,1050.0,1250.0,5.0,,,,,,,,,gray,cross
0.0,4.0,4.0,0.0,5.0,5.0,1264.8826690001442,5.0,1.0,phase_2,go,1050.0,1250.0,1.0,,,,,,,,,white,flipped triangle
0.0,7.0,2.0,1.0,5.0,0.0,0.0,5.0,1.0,phase_2,stop,1050.0,1250.0,4.0,,,,,,,,,yellow,I
0.0,1.0,0.5,0.0,5.0,0.0,0.0,5.0,1.0,phase_2,go,1100.0,1250.0,5.0,,,,,,,,,gray,cross
0.0,3.0,2.0,0.0,6.0,6.0,1210.7336600001872,5.0,1.0,phase_2,go,1100.0,1250.0,1.0,,,,,,,,,green,diamond
0.0,3.0,2.0,0.0,6.0,0.0,0.0,5.0,1.0,phase_2,go,1100.0,1250.0,5.0,,,,,,,,,green,diamond
0.0,8.0,4.0,1.0,6.0,0.0,0.0,5.0,1.0,phase_2,stop,1100.0,1250.0,4.0,,,,,,,,,cyan,triangle
0.0,1.0,0.5,0.0,6.0,0.0,0.0,5.0,1.0,phase_2,go,1100.0,1300.0,5.0,,,,,,,,,gray,cross
0.0,6.0,1.0,1.0,6.0,0.0,0.0,5.0,1.0,phase_2,go,1100.0,1300.0,5.0,,,,,,,,,orange,square
0.0,7.0,2.0,1.0,6.0,0.0,0.0,5.0,1.0,phase_2,stop,1100.0,1300.0,4.0,,,,,,,,,yellow,I
0.0,4.0,4.0,0.0,6.0,0.0,0.0,5.0,1.0,phase_2,go,1100.0,1350.0,5.0,,,,,,,,,white,flipped triangle
0.0,8.0,4.0,1.0,5.0,0.0,0.0,5.0,1.0,phase_2,stop,1100.0,1350.0,4.0,,,,,,,,,cyan,triangle
0.0,6.0,1.0,1.0,6.0,0.0,0.0,5.0,1.0,phase_2,stop,1150.0,1350.0,4.0,,,,,,,,,orange,square
0.0,3.0,2.0,0.0,5.0,5.0,1316.5129560002242,5.0,1.0,phase_2,go,1150.0,1400.0,1.0,,,,,,,,,green,diamond
0.0,4.0,4.0,0.0,5.0,0.0,0.0,5.0,1.0,phase_2,go,1150.0,1400.0,5.0,,,,,,,,,white,flipped triangle
0.0,1.0,0.5,0.0,6.0,6.0,1271.913037999184,5.0,1.0,phase_2,go,1150.0,1400.0,1.0,,,,,,,,,gray,cross
0.0,8.0,4.0,1.0,5.0,0.0,0.0,5.0,1.0,phase_2,stop,1150.0,1400.0,4.0,,,,,,,,,cyan,triangle
0.0,6.0,1.0,1.0,6.0,6.0,1482.185606999337,5.0,1.0,phase_2,stop,1200.0,1400.0,3.0,,,,,,,,,orange,square
0.0,1.0,0.5,0.0,5.0,0.0,0.0,5.0,1.0,phase_2,go,1200.0,1350.0,5.0,,,,,,,,,gray,cross
0.0,2.0,1.0,0.0,5.0,0.0,0.0,5.0,1.0,phase_2,go,1200.0,1350.0,5.0,,,,,,,,,blue,circle
0.0,3.0,2.0,0.0,5.0,5.0,1190.8508929991513,5.0,1.0,phase_2,go,1200.0,1350.0,1.0,,,,,,,,,green,diamond
0.0,4.0,4.0,0.0,6.0,0.0,0.0,5.0,1.0,phase_2,go,1200.0,1350.0,5.0,,,,,,,,,white,flipped triangle
0.0,3.0,2.0,0.0,6.0,0.0,0.0,5.0,1.0,phase_2,go,1200.0,1350.0,5.0,,,,,,,,,green,diamond
0.0,6.0,1.0,1.0,6.0,0.0,0.0,5.0,1.0,phase_2,stop,1200.0,1350.0,4.0,,,,,,,,,orange,square
0.0,5.0,0.5,1.0,5.0,0.0,0.0,5.0,1.0,phase_2,stop,1200.0,1400.0,4.0,,,,,,,,,magenta,hexagon
0.0,5.0,0.5,1.0,5.0,5.0,503.2737929996074,6.0,1.0,phase_2,stop,1250.0,1400.0,3.0,,,,,,,,,magenta,hexagon
0.0,1.0,0.5,0.0,5.0,5.0,1298.3114200014825,6.0,1.0,phase_2,go,1200.0,1400.0,1.0,,,,,,,,,gray,cross
0.0,5.0,0.5,1.0,6.0,6.0,1218.370509999659,6.0,1.0,phase_2,go,1200.0,1400.0,1.0,,,,,,,,,magenta,hexagon
0.0,7.0,2.0,1.0,5.0,5.0,1328.986241000166,6.0,1.0,phase_2,stop,1200.0,1400.0,3.0,,,,,,,,,yellow,I
0.0,5.0,0.5,1.0,6.0,0.0,0.0,6.0,1.0,phase_2,stop,1150.0,1400.0,4.0,,,,,,,,,magenta,hexagon
0.0,3.0,2.0,0.0,6.0,0.0,0.0,6.0,1.0,phase_2,go,1150.0,1450.0,5.0,,,,,,,,,green,diamond
0.0,1.0,0.5,0.0,5.0,5.0,1427.8379179995682,6.0,1.0,phase_2,go,1150.0,1450.0,1.0,,,,,,,,,gray,cross
0.0,8.0,4.0,1.0,6.0,0.0,0.0,6.0,1.0,phase_2,go,1150.0,1450.0,5.0,,,,,,,,,cyan,triangle
0.0,5.0,0.5,1.0,5.0,0.0,0.0,6.0,1.0,phase_2,stop,1150.0,1450.0,4.0,,,,,,,,,magenta,hexagon
0.0,3.0,2.0,0.0,5.0,0.0,0.0,6.0,1.0,phase_2,go,1200.0,1450.0,5.0,,,,,,,,,green,diamond
0.0,1.0,0.5,0.0,5.0,5.0,1314.336084999013,6.0,1.0,phase_2,go,1200.0,1450.0,1.0,,,,,,,,,gray,cross
0.0,7.0,2.0,1.0,5.0,5.0,1282.2673760001635,6.0,1.0,phase_2,go,1200.0,1450.0,1.0,,,,,,,,,yellow,I
0.0,7.0,2.0,1.0,6.0,6.0,905.913242000679,6.0,1.0,phase_2,stop,1200.0,1450.0,3.0,,,,,,,,,yellow,I
0.0,3.0,2.0,0.0,6.0,6.0,1413.4538990001602,6.0,1.0,phase_2,go,1200.0,1400.0,1.0,,,,,,,,,green,diamond
0.0,7.0,2.0,1.0,6.0,6.0,1256.3657089995104,6.0,1.0,phase_2,stop,1200.0,1400.0,3.0,,,,,,,,,yellow,I
0.0,4.0,4.0,0.0,6.0,0.0,0.0,6.0,1.0,phase_2,go,1200.0,1350.0,5.0,,,,,,,,,white,flipped triangle
0.0,3.0,2.0,0.0,6.0,6.0,1244.235240999842,6.0,1.0,phase_2,go,1200.0,1350.0,1.0,,,,,,,,,green,diamond
0.0,6.0,1.0,1.0,5.0,0.0,0.0,6.0,1.0,phase_2,stop,1200.0,1350.0,4.0,,,,,,,,,orange,square
0.0,7.0,2.0,1.0,6.0,6.0,1291.759297999306,6.0,1.0,phase_2,go,1250.0,1350.0,1.0,,,,,,,,,yellow,I
0.0,4.0,4.0,0.0,6.0,0.0,0.0,6.0,1.0,phase_2,go,1250.0,1350.0,5.0,,,,,,,,,white,flipped triangle
0.0,6.0,1.0,1.0,5.0,5.0,1085.5378020005446,6.0,1.0,phase_2,go,1250.0,1350.0,1.0,,,,,,,,,orange,square
0.0,4.0,4.0,0.0,6.0,6.0,896.0985869998694,6.0,1.0,phase_2,go,1250.0,1350.0,1.0,,,,,,,,,white,flipped triangle
0.0,6.0,1.0,1.0,5.0,5.0,1135.258475000228,6.0,1.0,phase_2,stop,1250.0,1350.0,3.0,,,,,,,,,orange,square
0.0,4.0,4.0,0.0,6.0,6.0,1131.843478000519,6.0,1.0,phase_2,go,1200.0,1350.0,1.0,,,,,,,,,white,flipped triangle
0.0,5.0,0.5,1.0,6.0,6.0,1454.856464999466,6.0,1.0,phase_2,go,1200.0,1350.0,1.0,,,,,,,,,magenta,hexagon
0.0,2.0,1.0,0.0,5.0,5.0,1461.2392359995283,6.0,1.0,phase_2,go,1200.0,1350.0,1.0,,,,,,,,,blue,circle
0.0,7.0,2.0,1.0,6.0,6.0,1282.732744999521,6.0,1.0,phase_2,stop,1200.0,1350.0,3.0,,,,,,,,,yellow,I
0.0,6.0,1.0,1.0,5.0,5.0,1341.2720760006778,6.0,1.0,phase_2,go,1200.0,1300.0,1.0,,,,,,,,,orange,square
0.0,7.0,2.0,1.0,5.0,0.0,0.0,6.0,1.0,phase_2,stop,1200.0,1300.0,4.0,,,,,,,,,yellow,I
0.0,7.0,2.0,1.0,5.0,0.0,0.0,6.0,1.0,phase_2,stop,1250.0,1300.0,4.0,,,,,,,,,yellow,I
0.0,1.0,0.5,0.0,6.0,6.0,1426.0188309999648,6.0,1.0,phase_2,go,1300.0,1300.0,1.0,,,,,,,,,gray,cross
0.0,3.0,2.0,0.0,6.0,6.0,1231.4789590000146,6.0,1.0,phase_2,go,1300.0,1300.0,1.0,,,,,,,,,green,diamond
0.0,8.0,4.0,1.0,5.0,5.0,1284.983753999768,6.0,1.0,phase_2,go,1300.0,1300.0,1.0,,,,,,,,,cyan,triangle
0.0,8.0,4.0,1.0,6.0,6.0,1296.1119800002052,6.0,1.0,phase_2,stop,1300.0,1300.0,3.0,,,,,,,,,cyan,triangle
0.0,6.0,1.0,1.0,6.0,6.0,717.7801859997999,6.0,1.0,phase_2,stop,1300.0,1250.0,3.0,,,,,,,,,orange,square
0.0,2.0,1.0,0.0,6.0,6.0,1334.960607000539,6.0,1.0,phase_2,go,1300.0,1200.0,1.0,,,,,,,,,blue,circle
0.0,5.0,0.5,1.0,6.0,6.0,1035.9707130010063,7.0,1.0,phase_2,go,1300.0,1200.0,1.0,,,,,,,,,magenta,hexagon
0.0,6.0,1.0,1.0,6.0,6.0,797.2790490002808,7.0,1.0,phase_2,stop,1300.0,1200.0,3.0,,,,,,,,,orange,square
0.0,7.0,2.0,1.0,5.0,5.0,1193.5447129999377,7.0,1.0,phase_2,stop,1300.0,1150.0,3.0,,,,,,,,,yellow,I
0.0,1.0,0.5,0.0,5.0,5.0,1217.2755829997186,7.0,1.0,phase_2,go,1250.0,1150.0,1.0,,,,,,,,,gray,cross
0.0,5.0,0.5,1.0,5.0,5.0,1401.3327949996892,7.0,1.0,phase_2,stop,1250.0,1150.0,3.0,,,,,,,,,magenta,hexagon
0.0,5.0,0.5,1.0,5.0,0.0,0.0,7.0,1.0,phase_2,stop,1200.0,1150.0,4.0,,,,,,,,,magenta,hexagon
0.0,2.0,1.0,0.0,6.0,6.0,850.2052040003036,7.0,1.0,phase_2,go,1250.0,1150.0,1.0,,,,,,,,,blue,circle
0.0,6.0,1.0,1.0,5.0,5.0,1302.8029249999236,7.0,1.0,phase_2,stop,1250.0,1150.0,3.0,,,,,,,,,orange,square
0.0,8.0,4.0,1.0,6.0,0.0,0.0,7.0,1.0,phase_2,stop,1200.0,1150.0,4.0,,,,,,,,,cyan,triangle
0.0,1.0,0.5,0.0,5.0,5.0,802.2667519999231,7.0,1.0,phase_2,go,1200.0,1200.0,1.0,,,,,,,,,gray,cross
0.0,7.0,2.0,1.0,5.0,5.0,1303.3105960003013,7.0,1.0,phase_2,stop,1200.0,1200.0,3.0,,,,,,,,,yellow,I
0.0,8.0,4.0,1.0,6.0,0.0,0.0,7.0,1.0,phase_2,stop,1150.0,1200.0,4.0,,,,,,,,,cyan,triangle
0.0,6.0,1.0,1.0,6.0,0.0,0.0,7.0,1.0,phase_2,go,1150.0,1250.0,5.0,,,,,,,,,orange,square
0.0,4.0,4.0,0.0,5.0,0.0,0.0,7.0,1.0,phase_2,go,1150.0,1250.0,5.0,,,,,,,,,white,flipped triangle
0.0,8.0,4.0,1.0,6.0,0.0,0.0,7.0,1.0,phase_2,stop,1150.0,1250.0,4.0,,,,,,,,,cyan,triangle
0.0,1.0,0.5,0.0,5.0,0.0,0.0,7.0,1.0,phase_2,go,1150.0,1300.0,5.0,,,,,,,,,gray,cross
0.0,8.0,4.0,1.0,5.0,0.0,0.0,7.0,1.0,phase_2,stop,1150.0,1300.0,4.0,,,,,,,,,cyan,triangle
0.0,2.0,1.0,0.0,5.0,0.0,0.0,7.0,1.0,phase_2,go,1200.0,1300.0,5.0,,,,,,,,,blue,circle
0.0,3.0,2.0,0.0,5.0,0.0,0.0,7.0,1.0,phase_2,go,1200.0,1300.0,5.0,,,,,,,,,green,diamond
0.0,1.0,0.5,0.0,6.0,0.0,0.0,7.0,1.0,phase_2,go,1200.0,1300.0,5.0,,,,,,,,,gray,cross
0.0,2.0,1.0,0.0,5.0,5.0,1121.8337770005746,7.0,1.0,phase_2,go,1200.0,1300.0,1.0,,,,,,,,,blue,circle
0.0,5.0,0.5,1.0,6.0,0.0,0.0,7.0,1.0,phase_2,stop,1200.0,1300.0,4.0,,,,,,,,,magenta,hexagon
0.0,2.0,1.0,0.0,6.0,0.0,0.0,7.0,1.0,phase_2,go,1200.0,1350.0,5.0,,,,,,,,,blue,circle
0.0,6.0,1.0,1.0,6.0,0.0,0.0,7.0,1.0,phase_2,stop,1200.0,1350.0,4.0,,,,,,,,,orange,square
0.0,1.0,0.5,0.0,6.0,0.0,0.0,7.0,1.0,phase_2,go,1200.0,1400.0,5.0,,,,,,,,,gray,cross
0.0,5.0,0.5,1.0,6.0,0.0,0.0,7.0,1.0,phase_2,go,1200.0,1400.0,5.0,,,,,,,,,magenta,hexagon
0.0,8.0,4.0,1.0,6.0,0.0,0.0,7.0,1.0,phase_2,stop,1200.0,1400.0,4.0,,,,,,,,,cyan,triangle
0.0,8.0,4.0,1.0,5.0,0.0,0.0,7.0,1.0,phase_2,stop,1200.0,1450.0,4.0,,,,,,,,,cyan,triangle
0.0,2.0,1.0,0.0,5.0,0.0,0.0,7.0,1.0,phase_2,go,1250.0,1450.0,5.0,,,,,,,,,blue,circle
0.0,1.0,0.5,0.0,6.0,0.0,0.0,7.0,1.0,phase_2,go,1250.0,1450.0,5.0,,,,,,,,,gray,cross
0.0,1.0,0.5,0.0,5.0,5.0,1068.7900600005378,7.0,1.0,phase_2,go,1250.0,1450.0,1.0,,,,,,,,,gray,cross
0.0,8.0,4.0,1.0,5.0,0.0,0.0,7.0,1.0,phase_2,stop,1250.0,1450.0,4.0,,,,,,,,,cyan,triangle
0.0,4.0,4.0,0.0,5.0,0.0,0.0,7.0,1.0,phase_2,go,1300.0,1450.0,5.0,,,,,,,,,white,flipped triangle
0.0,5.0,0.5,1.0,6.0,0.0,0.0,7.0,1.0,phase_2,stop,1300.0,1450.0,4.0,,,,,,,,,magenta,hexagon
0.0,2.0,1.0,0.0,6.0,0.0,0.0,7.0,1.0,phase_2,go,1300.0,1500.0,5.0,,,,,,,,,blue,circle
0.0,4.0,4.0,0.0,6.0,0.0,0.0,7.0,1.0,phase_2,go,1300.0,1500.0,5.0,,,,,,,,,white,flipped triangle
0.0,7.0,2.0,1.0,6.0,0.0,0.0,8.0,1.0,phase_2,stop,1300.0,1500.0,4.0,,,,,,,,,yellow,I
0.0,8.0,4.0,1.0,6.0,0.0,0.0,8.0,1.0,phase_2,go,1300.0,1550.0,5.0,,,,,,,,,cyan,triangle
0.0,7.0,2.0,1.0,5.0,0.0,0.0,8.0,1.0,phase_2,stop,1300.0,1550.0,4.0,,,,,,,,,yellow,I
0.0,7.0,2.0,1.0,6.0,0.0,0.0,8.0,1.0,phase_2,stop,1350.0,1550.0,4.0,,,,,,,,,yellow,I
0.0,1.0,0.5,0.0,6.0,0.0,0.0,8.0,1.0,phase_2,go,1350.0,1600.0,5.0,,,,,,,,,gray,cross
0.0,7.0,2.0,1.0,5.0,0.0,0.0,8.0,1.0,phase_2,go,1350.0,1600.0,5.0,,,,,,,,,yellow,I
0.0,1.0,0.5,0.0,5.0,0.0,0.0,8.0,1.0,phase_2,go,1350.0,1600.0,5.0,,,,,,,,,gray,cross
0.0,3.0,2.0,0.0,6.0,0.0,0.0,8.0,1.0,phase_2,go,1350.0,1600.0,5.0,,,,,,,,,green,diamond
0.0,4.0,4.0,0.0,6.0,0.0,0.0,8.0,1.0,phase_2,go,1350.0,1600.0,5.0,,,,,,,,,white,flipped triangle
0.0,2.0,1.0,0.0,6.0,0.0,0.0,8.0,1.0,phase_2,go,1350.0,1600.0,5.0,,,,,,,,,blue,circle
0.0,2.0,1.0,0.0,6.0,0.0,0.0,8.0,1.0,phase_2,go,1350.0,1600.0,5.0,,,,,,,,,blue,circle
0.0,6.0,1.0,1.0,6.0,0.0,0.0,8.0,1.0,phase_2,stop,1350.0,1600.0,4.0,,,,,,,,,orange,square
0.0,7.0,2.0,1.0,5.0,0.0,0.0,8.0,1.0,phase_2,go,1350.0,1650.0,5.0,,,,,,,,,yellow,I
0.0,3.0,2.0,0.0,6.0,0.0,0.0,8.0,1.0,phase_2,go,1350.0,1650.0,5.0,,,,,,,,,green,diamond
0.0,5.0,0.5,1.0,5.0,0.0,0.0,8.0,1.0,phase_2,stop,1350.0,1650.0,4.0,,,,,,,,,magenta,hexagon
0.0,6.0,1.0,1.0,6.0,0.0,0.0,8.0,1.0,phase_2,stop,1400.0,1650.0,4.0,,,,,,,,,orange,square
0.0,1.0,0.5,0.0,6.0,0.0,0.0,8.0,1.0,phase_2,go,1400.0,1700.0,5.0,,,,,,,,,gray,cross
0.0,5.0,0.5,1.0,5.0,0.0,0.0,8.0,1.0,phase_2,stop,1400.0,1700.0,4.0,,,,,,,,,magenta,hexagon
0.0,5.0,0.5,1.0,5.0,0.0,0.0,8.0,1.0,phase_2,stop,1450.0,1700.0,4.0,,,,,,,,,magenta,hexagon
0.0,7.0,2.0,1.0,5.0,0.0,0.0,8.0,1.0,phase_2,go,1500.0,1700.0,5.0,,,,,,,,,yellow,I
0.0,2.0,1.0,0.0,6.0,0.0,0.0,8.0,1.0,phase_2,go,1500.0,1700.0,5.0,,,,,,,,,blue,circle
0.0,2.0,1.0,0.0,6.0,0.0,0.0,8.0,1.0,phase_2,go,1500.0,1700.0,5.0,,,,,,,,,blue,circle
0.0,3.0,2.0,0.0,6.0,0.0,0.0,8.0,1.0,phase_2,go,1500.0,1700.0,5.0,,,,,,,,,green,diamond
0.0,4.0,4.0,0.0,5.0,0.0,0.0,8.0,1.0,phase_2,go,1500.0,1700.0,5.0,,,,,,,,,white,flipped triangle
0.0,6.0,1.0,1.0,6.0,0.0,0.0,8.0,1.0,phase_2,stop,1500.0,1700.0,4.0,,,,,,,,,orange,square
0.0,6.0,1.0,1.0,5.0,5.0,1161.1287529995025,8.0,1.0,phase_2,stop,1500.0,1750.0,3.0,,,,,,,,,orange,square
0.0,2.0,1.0,0.0,6.0,0.0,0.0,8.0,1.0,phase_2,go,1450.0,1750.0,5.0,,,,,,,,,blue,circle
0.0,2.0,1.0,0.0,5.0,0.0,0.0,8.0,1.0,phase_2,go,1450.0,1750.0,5.0,,,,,,,,,blue,circle
0.0,5.0,0.5,1.0,6.0,6.0,1489.1798379994725,8.0,1.0,phase_2,stop,1450.0,1750.0,3.0,,,,,,,,,magenta,hexagon
0.0,8.0,4.0,1.0,6.0,0.0,0.0,8.0,1.0,phase_2,stop,1450.0,1700.0,4.0,,,,,,,,,cyan,triangle
0.0,4.0,4.0,0.0,5.0,0.0,0.0,8.0,1.0,phase_2,go,1450.0,1750.0,5.0,,,,,,,,,white,flipped triangle
0.0,3.0,2.0,0.0,6.0,0.0,0.0,8.0,1.0,phase_2,go,1450.0,1750.0,5.0,,,,,,,,,green,diamond
0.0,3.0,2.0,0.0,5.0,0.0,0.0,8.0,1.0,phase_2,go,1450.0,1750.0,5.0,,,,,,,,,green,diamond
0.0,7.0,2.0,1.0,5.0,0.0,0.0,8.0,1.0,phase_2,stop,1450.0,1750.0,4.0,,,,,,,,,yellow,I
0.0,2.0,1.0,0.0,6.0,0.0,0.0,8.0,1.0,phase_2,go,1500.0,1750.0,5.0,,,,,,,,,blue,circle
0.0,5.0,0.5,1.0,5.0,0.0,0.0,8.0,1.0,phase_2,stop,1500.0,1750.0,4.0,,,,,,,,,magenta,hexagon
0.0,8.0,4.0,1.0,7.0,4.0,3343.733790001352,1.0,1.0,phase_3,,,,,162.0,3.0,270.0,108.0,324.0,162.0,54.0,216.0,cyan,triangle
0.0,8.0,4.0,1.0,7.0,1.0,3182.3415140006546,1.0,1.0,phase_3,,,,,195.0,5.0,195.0,156.0,78.0,39.0,117.0,234.0,cyan,triangle
0.0,7.0,2.0,1.0,7.0,2.0,2739.643810000416,1.0,1.0,phase_3,,,,,245.0,5.0,98.0,245.0,294.0,196.0,147.0,49.0,yellow,I
0.0,8.0,4.0,1.0,7.0,5.0,2988.802372999998,1.0,1.0,phase_3,,,,,245.0,5.0,49.0,147.0,98.0,196.0,245.0,294.0,cyan,triangle
0.0,7.0,2.0,1.0,7.0,2.0,2440.890202000446,1.0,1.0,phase_3,,,,,220.0,5.0,44.0,220.0,176.0,132.0,264.0,88.0,yellow,I
0.0,1.0,0.5,0.0,7.0,2.0,3449.851937000858,1.0,1.0,phase_3,,,,,162.0,3.0,54.0,162.0,324.0,216.0,108.0,270.0,gray,cross
0.0,4.0,4.0,0.0,7.0,5.0,3942.396333999568,1.0,1.0,phase_3,,,,,44.0,1.0,176.0,132.0,220.0,264.0,44.0,88.0,white,flipped triangle
0.0,8.0,4.0,1.0,7.0,2.0,3883.277336999527,1.0,1.0,phase_3,,,,,78.0,2.0,234.0,78.0,117.0,39.0,156.0,195.0,cyan,triangle
0.0,8.0,4.0,1.0,7.0,4.0,3574.47319899984,1.0,1.0,phase_3,,,,,204.0,6.0,68.0,102.0,170.0,204.0,136.0,34.0,cyan,triangle
0.0,6.0,1.0,1.0,7.0,6.0,4131.523759000629,1.0,1.0,phase_3,,,,,220.0,5.0,88.0,264.0,132.0,44.0,176.0,220.0,orange,square
0.0,5.0,0.5,1.0,7.0,2.0,4050.137096999606,1.0,1.0,phase_3,,,,,220.0,5.0,44.0,220.0,88.0,176.0,132.0,264.0,magenta,hexagon
0.0,2.0,1.0,0.0,7.0,5.0,2467.4726560006093,1.0,2.0,phase_3,,,,,108.0,2.0,216.0,270.0,324.0,54.0,108.0,162.0,blue,circle
0.0,4.0,4.0,0.0,7.0,1.0,2262.972438998986,1.0,2.0,phase_3,,,,,294.0,6.0,294.0,196.0,245.0,49.0,147.0,98.0,white,flipped triangle
0.0,3.0,2.0,0.0,7.0,3.0,3038.8041850001173,1.0,2.0,phase_3,,,,,156.0,4.0,117.0,195.0,156.0,39.0,78.0,234.0,green,diamond
0.0,4.0,4.0,0.0,7.0,4.0,3242.520098001478,1.0,1.0,phase_3,,,,,234.0,6.0,195.0,117.0,39.0,234.0,78.0,156.0,white,flipped triangle
0.0,5.0,0.5,1.0,7.0,2.0,4383.99882900012,1.0,1.0,phase_3,,,,,102.0,3.0,204.0,102.0,136.0,34.0,170.0,68.0,magenta,hexagon
0.0,4.0,4.0,0.0,7.0,2.0,4879.787305000718,1.0,1.0,phase_3,,,,,324.0,6.0,162.0,324.0,54.0,108.0,216.0,270.0,white,flipped triangle
0.0,2.0,1.0,0.0,7.0,2.0,4407.72153099897,1.0,1.0,phase_3,,,,,98.0,2.0,245.0,98.0,147.0,294.0,196.0,49.0,blue,circle
0.0,3.0,2.0,0.0,7.0,1.0,2676.03578499984,1.0,1.0,phase_3,,,,,78.0,2.0,78.0,195.0,39.0,117.0,156.0,234.0,green,diamond
0.0,1.0,0.5,0.0,7.0,5.0,2752.055671999188,1.0,1.0,phase_3,,,,,88.0,2.0,176.0,44.0,264.0,132.0,88.0,220.0,gray,cross
0.0,2.0,1.0,0.0,7.0,4.0,2368.169153000053,2.0,1.0,phase_3,,,,,117.0,3.0,234.0,156.0,195.0,117.0,78.0,39.0,blue,circle
0.0,6.0,1.0,1.0,7.0,3.0,2922.720336000566,2.0,1.0,phase_3,,,,,170.0,5.0,68.0,136.0,170.0,204.0,102.0,34.0,orange,square
0.0,5.0,0.5,1.0,7.0,6.0,2460.4205939995154,2.0,1.0,phase_3,,,,,294.0,6.0,147.0,245.0,49.0,98.0,196.0,294.0,magenta,hexagon
0.0,6.0,1.0,1.0,7.0,3.0,3353.076692999821,2.0,1.0,phase_3,,,,,108.0,2.0,216.0,270.0,108.0,54.0,324.0,162.0,orange,square
0.0,6.0,1.0,1.0,7.0,1.0,3590.946508000343,2.0,1.0,phase_3,,,,,195.0,5.0,195.0,117.0,78.0,39.0,234.0,156.0,orange,square
0.0,7.0,2.0,1.0,7.0,1.0,2412.971009000102,2.0,1.0,phase_3,,,,,117.0,3.0,117.0,156.0,234.0,39.0,78.0,195.0,yellow,I
0.0,5.0,0.5,1.0,7.0,4.0,3438.207997000063,2.0,1.0,phase_3,,,,,136.0,4.0,102.0,170.0,68.0,136.0,34.0,204.0,magenta,hexagon
0.0,5.0,0.5,1.0,7.0,4.0,2969.056809999529,2.0,1.0,phase_3,,,,,216.0,4.0,54.0,108.0,270.0,216.0,162.0,324.0,magenta,hexagon
0.0,6.0,1.0,1.0,7.0,2.0,4812.458907999826,2.0,1.0,phase_3,,,,,264.0,6.0,132.0,264.0,44.0,176.0,88.0,220.0,orange,square
0.0,3.0,2.0,0.0,7.0,3.0,693.5815550004918,2.0,2.0,phase_3,,,,,98.0,2.0,196.0,294.0,98.0,147.0,245.0,49.0,green,diamond
0.0,5.0,0.5,1.0,7.0,4.0,4907.973860999846,2.0,1.0,phase_3,,,,,195.0,5.0,78.0,234.0,117.0,195.0,39.0,156.0,magenta,hexagon
0.0,6.0,1.0,1.0,7.0,1.0,3226.6118659990752,2.0,1.0,phase_3,,,,,108.0,2.0,108.0,54.0,216.0,324.0,270.0,162.0,orange,square
0.0,5.0,0.5,1.0,7.0,2.0,1933.7454559990877,2.0,1.0,phase_3,,,,,216.0,4.0,54.0,216.0,162.0,270.0,108.0,324.0,magenta,hexagon
0.0,1.0,0.5,0.0,7.0,3.0,2943.2893310004147,2.0,1.0,phase_3,,,,,136.0,4.0,34.0,170.0,136.0,102.0,68.0,204.0,gray,cross
0.0,8.0,4.0,1.0,7.0,1.0,1282.5554130013188,2.0,1.0,phase_3,,,,,102.0,3.0,102.0,170.0,68.0,34.0,136.0,204.0,cyan,triangle
0.0,1.0,0.5,0.0,7.0,5.0,1291.9490120002592,2.0,1.0,phase_3,,,,,196.0,4.0,98.0,147.0,245.0,294.0,196.0,49.0,gray,cross
0.0,4.0,4.0,0.0,7.0,3.0,1761.453368999355,2.0,1.0,phase_3,,,,,195.0,5.0,156.0,117.0,195.0,39.0,234.0,78.0,white,flipped triangle
0.0,2.0,1.0,0.0,7.0,6.0,2325.666847000321,2.0,1.0,phase_3,,,,,102.0,3.0,204.0,136.0,34.0,170.0,68.0,102.0,blue,circle
0.0,3.0,2.0,0.0,7.0,2.0,2778.7821689998964,2.0,1.0,phase_3,,,,,220.0,5.0,88.0,220.0,132.0,264.0,176.0,44.0,green,diamond
0.0,1.0,0.5,0.0,7.0,4.0,752.6962499996444,2.0,2.0,phase_3,,,,,294.0,6.0,196.0,245.0,98.0,294.0,49.0,147.0,gray,cross
0.0,2.0,1.0,0.0,7.0,5.0,1808.7027420006048,3.0,1.0,phase_3,,,,,88.0,2.0,220.0,44.0,264.0,132.0,88.0,176.0,blue,circle
0.0,8.0,4.0,1.0,7.0,3.0,4188.518744998873,3.0,1.0,phase_3,,,,,132.0,3.0,44.0,176.0,132.0,264.0,220.0,88.0,cyan,triangle
0.0,7.0,2.0,1.0,7.0,2.0,3569.202325999868,3.0,1.0,phase_3,,,,,136.0,4.0,68.0,136.0,170.0,102.0,204.0,34.0,yellow,I
0.0,6.0,1.0,1.0,7.0,1.0,3628.48714699976,3.0,1.0,phase_3,,,,,147.0,3.0,147.0,245.0,196.0,98.0,294.0,49.0,orange,square
0.0,5.0,0.5,1.0,7.0,3.0,3142.166292000184,3.0,1.0,phase_3,,,,,234.0,6.0,117.0,39.0,234.0,195.0,156.0,78.0,magenta,hexagon
0.0,4.0,4.0,0.0,7.0,4.0,500.193706000573,3.0,2.0,phase_3,,,,,170.0,5.0,34.0,68.0,102.0,170.0,136.0,204.0,white,flipped triangle
0.0,3.0,2.0,0.0,7.0,3.0,4149.936448997323,3.0,3.0,phase_3,,,,,34.0,1.0,102.0,204.0,34.0,136.0,170.0,68.0,green,diamond
0.0,3.0,2.0,0.0,7.0,3.0,2240.1045830010844,3.0,1.0,phase_3,,,,,98.0,2.0,147.0,196.0,98.0,294.0,245.0,49.0,green,diamond
0.0,1.0,0.5,0.0,7.0,2.0,2026.2954389982042,3.0,1.0,phase_3,,,,,102.0,3.0,68.0,102.0,136.0,170.0,34.0,204.0,gray,cross
0.0,6.0,1.0,1.0,7.0,3.0,3372.3422789989854,3.0,1.0,phase_3,,,,,136.0,4.0,68.0,204.0,136.0,170.0,102.0,34.0,orange,square
0.0,2.0,1.0,0.0,7.0,4.0,3795.7750469977327,3.0,1.0,phase_3,,,,,170.0,5.0,204.0,102.0,136.0,170.0,68.0,34.0,blue,circle
0.0,4.0,4.0,0.0,7.0,3.0,2746.3341580005363,3.0,1.0,phase_3,,,,,264.0,6.0,88.0,132.0,264.0,176.0,220.0,44.0,white,flipped triangle
0.0,4.0,4.0,0.0,7.0,1.0,2934.979500998452,3.0,1.0,phase_3,,,,,216.0,4.0,216.0,54.0,324.0,270.0,162.0,108.0,white,flipped triangle
0.0,7.0,2.0,1.0,7.0,2.0,1939.348553001764,3.0,1.0,phase_3,,,,,147.0,3.0,245.0,147.0,49.0,294.0,98.0,196.0,yellow,I
0.0,2.0,1.0,0.0,7.0,1.0,1093.096892000176,3.0,3.0,phase_3,,,,,147.0,3.0,147.0,196.0,294.0,98.0,245.0,49.0,blue,circle
0.0,1.0,0.5,0.0,7.0,4.0,426.7539409993333,3.0,1.0,phase_3,,,,,39.0,1.0,78.0,234.0,195.0,39.0,156.0,117.0,gray,cross
0.0,3.0,2.0,0.0,7.0,2.0,2132.7375319997373,3.0,1.0,phase_3,,,,,170.0,5.0,102.0,170.0,34.0,204.0,136.0,68.0,green,diamond
0.0,1.0,0.5,0.0,7.0,2.0,2725.713251002162,3.0,1.0,phase_3,,,,,117.0,3.0,78.0,117.0,156.0,39.0,234.0,195.0,gray,cross
0.0,3.0,2.0,0.0,7.0,1.0,1763.5091399970406,3.0,1.0,phase_3,,,,,162.0,3.0,162.0,108.0,216.0,54.0,324.0,270.0,green,diamond
0.0,6.0,1.0,1.0,7.0,4.0,1941.6574589995437,3.0,1.0,phase_3,,,,,147.0,3.0,196.0,294.0,49.0,147.0,98.0,245.0,orange,square
0.0,2.0,1.0,0.0,7.0,4.0,1837.246724000579,4.0,1.0,phase_3,,,,,108.0,2.0,54.0,216.0,324.0,108.0,270.0,162.0,blue,circle
0.0,2.0,1.0,0.0,7.0,3.0,4652.462268000818,4.0,1.0,phase_3,,,,,88.0,2.0,132.0,220.0,88.0,44.0,176.0,264.0,blue,circle
0.0,7.0,2.0,1.0,7.0,6.0,3151.291095000488,4.0,1.0,phase_3,,,,,156.0,4.0,195.0,39.0,117.0,234.0,78.0,156.0,yellow,I
0.0,8.0,4.0,1.0,7.0,4.0,2808.1983439988107,4.0,1.0,phase_3,,,,,270.0,5.0,54.0,162.0,216.0,270.0,108.0,324.0,cyan,triangle
0.0,6.0,1.0,1.0,7.0,2.0,2597.566593998636,4.0,1.0,phase_3,,,,,156.0,4.0,39.0,156.0,195.0,234.0,117.0,78.0,orange,square
0.0,2.0,1.0,0.0,7.0,3.0,3282.550160001847,4.0,1.0,phase_3,,,,,117.0,3.0,156.0,39.0,117.0,234.0,78.0,195.0,blue,circle
0.0,8.0,4.0,1.0,7.0,2.0,2676.7428109997127,4.0,1.0,phase_3,,,,,245.0,5.0,147.0,245.0,98.0,49.0,196.0,294.0,cyan,triangle
0.0,3.0,2.0,0.0,7.0,4.0,2781.622602000425,4.0,1.0,phase_3,,,,,264.0,6.0,220.0,176.0,88.0,264.0,132.0,44.0,green,diamond
0.0,7.0,2.0,1.0,7.0,6.0,1031.153035000898,4.0,2.0,phase_3,,,,,264.0,6.0,220.0,176.0,132.0,88.0,44.0,264.0,yellow,I
0.0,4.0,4.0,0.0,7.0,2.0,1853.9510080008768,4.0,1.0,phase_3,,,,,147.0,3.0,98.0,147.0,196.0,294.0,245.0,49.0,white,flipped triangle
0.0,3.0,2.0,0.0,7.0,6.0,0.2663619998202,4.0,1.0,phase_3,,,,,324.0,6.0,216.0,108.0,162.0,54.0,270.0,324.0,green,diamond
0.0,5.0,0.5,1.0,7.0,4.0,1753.914837998309,4.0,1.0,phase_3,,,,,245.0,5.0,294.0,196.0,49.0,245.0,98.0,147.0,magenta,hexagon
0.0,7.0,2.0,1.0,7.0,5.0,1506.267715998547,4.0,2.0,phase_3,,,,,324.0,6.0,216.0,162.0,108.0,54.0,324.0,270.0,yellow,I
0.0,7.0,2.0,1.0,7.0,4.0,1583.828935999918,4.0,1.0,phase_3,,,,,324.0,6.0,108.0,162.0,270.0,324.0,54.0,216.0,yellow,I
0.0,5.0,0.5,1.0,7.0,1.0,4238.578647000395,4.0,1.0,phase_3,,,,,264.0,6.0,264.0,88.0,220.0,176.0,132.0,44.0,magenta,hexagon
0.0,4.0,4.0,0.0,7.0,4.0,2556.5017289991374,4.0,1.0,phase_3,,,,,136.0,4.0,170.0,102.0,204.0,136.0,34.0,68.0,white,flipped triangle
0.0,7.0,2.0,1.0,7.0,6.0,2032.8944020002382,4.0,1.0,phase_3,,,,,102.0,3.0,204.0,136.0,170.0,68.0,34.0,102.0,yellow,I
0.0,1.0,0.5,0.0,7.0,4.0,3234.268480002356,4.0,1.0,phase_3,,,,,108.0,2.0,54.0,216.0,270.0,108.0,324.0,162.0,gray,cross
0.0,1.0,0.5,0.0,7.0,4.0,2336.0668230016017,4.0,1.0,phase_3,,,,,220.0,5.0,176.0,88.0,264.0,220.0,132.0,44.0,gray,cross
0.0,8.0,4.0,1.0,7.0,5.0,1349.5920470013516,4.0,1.0,phase_3,,,,,176.0,4.0,132.0,264.0,88.0,220.0,176.0,44.0,cyan,triangle
