raw_reward_magnitude,stim_reward,stepwise_reward_magnitude,paired_with_stopping,stim_location,response,reaction_time,block,num_trial_presentations,which_phase,stop_signal_trial_type,left_SSD,right_SSD,accuracy,chosen_bidding_amount,chosen_bidding_level,possible_bid_1,possible_bid_2,possible_bid_3,possible_bid_4,possible_bid_5,possible_bid_6,color_text,shape_text
213.0,3.0,2.0,0.0,3.0,3.0,269.8078919997897,1.0,1.0,phase_1,,,,,,,,,,,,,white,triangle
0.0,2.0,0.0,0.0,4.0,4.0,276.7226380001375,1.0,1.0,phase_1,,,,,,,,,,,,,gray,square
74.0,5.0,0.5,1.0,1.0,1.0,265.2543330000299,1.0,1.0,phase_1,,,,,,,,,,,,,blue,diamond
188.0,3.0,2.0,0.0,4.0,4.0,263.6111870001514,1.0,1.0,phase_1,,,,,,,,,,,,,white,triangle
188.0,7.0,2.0,1.0,2.0,2.0,225.0363610000931,1.0,1.0,phase_1,,,,,,,,,,,,,orange,hexagon
114.0,6.0,1.0,1.0,3.0,3.0,259.3929229997229,1.0,1.0,phase_1,,,,,,,,,,,,,yellow,I
177.0,3.0,2.0,0.0,1.0,1.0,205.3020690000266,1.0,1.0,phase_1,,,,,,,,,,,,,white,triangle
0.0,3.0,0.0,0.0,4.0,4.0,248.1818940000266,1.0,1.0,phase_1,,,,,,,,,,,,,white,triangle
423.0,4.0,4.0,0.0,1.0,1.0,234.308263999992,1.0,1.0,phase_1,,,,,,,,,,,,,green,circle
193.0,3.0,2.0,0.0,1.0,1.0,296.1954940001305,1.0,2.0,phase_1,,,,,,,,,,,,,white,triangle
96.0,2.0,1.0,0.0,2.0,2.0,246.9934339997053,1.0,1.0,phase_1,,,,,,,,,,,,,gray,square
190.0,3.0,2.0,0.0,2.0,2.0,232.1933139996872,1.0,1.0,phase_1,,,,,,,,,,,,,white,triangle
91.0,2.0,1.0,0.0,4.0,4.0,297.4557490001643,1.0,1.0,phase_1,,,,,,,,,,,,,gray,square
177.0,7.0,2.0,1.0,1.0,1.0,235.40717700007,1.0,1.0,phase_1,,,,,,,,,,,,,orange,hexagon
77.0,2.0,1.0,0.0,3.0,3.0,275.6802590001825,1.0,1.0,phase_1,,,,,,,,,,,,,gray,square
40.0,1.0,0.5,0.0,3.0,3.0,272.4092400003428,1.0,1.0,phase_1,,,,,,,,,,,,,cyan,flipped triangle
0.0,8.0,0.0,1.0,2.0,2.0,281.1915779998344,1.0,1.0,phase_1,,,,,,,,,,,,,magenta,cross
0.0,3.0,0.0,0.0,1.0,1.0,291.2342330000683,1.0,1.0,phase_1,,,,,,,,,,,,,white,triangle
0.0,5.0,0.0,1.0,1.0,1.0,273.7839629999143,1.0,1.0,phase_1,,,,,,,,,,,,,blue,diamond
387.0,8.0,4.0,1.0,2.0,2.0,319.8948540002675,1.0,1.0,phase_1,,,,,,,,,,,,,magenta,cross
104.0,2.0,1.0,0.0,4.0,4.0,276.9371510003111,1.0,1.0,phase_1,,,,,,,,,,,,,gray,square
401.0,4.0,4.0,0.0,4.0,4.0,271.823165999649,1.0,1.0,phase_1,,,,,,,,,,,,,green,circle
113.0,2.0,1.0,0.0,1.0,1.0,260.4121519998443,1.0,1.0,phase_1,,,,,,,,,,,,,gray,square
0.0,4.0,0.0,0.0,4.0,4.0,279.9840409998069,1.0,1.0,phase_1,,,,,,,,,,,,,green,circle
403.0,4.0,4.0,0.0,4.0,4.0,302.7475509998112,1.0,1.0,phase_1,,,,,,,,,,,,,green,circle
85.0,2.0,1.0,0.0,2.0,2.0,318.2376089998797,1.0,1.0,phase_1,,,,,,,,,,,,,gray,square
116.0,2.0,1.0,0.0,1.0,1.0,293.9986369997314,1.0,1.0,phase_1,,,,,,,,,,,,,gray,square
102.0,6.0,1.0,1.0,4.0,4.0,267.3543149999204,1.0,1.0,phase_1,,,,,,,,,,,,,yellow,I
122.0,2.0,1.0,0.0,4.0,4.0,248.4258859999499,1.0,1.0,phase_1,,,,,,,,,,,,,gray,square
50.0,1.0,0.5,0.0,1.0,1.0,274.0526450002107,1.0,1.0,phase_1,,,,,,,,,,,,,cyan,flipped triangle
213.0,3.0,2.0,0.0,1.0,1.0,319.3834870003229,1.0,1.0,phase_1,,,,,,,,,,,,,white,triangle
107.0,6.0,1.0,1.0,3.0,3.0,257.1011210002325,1.0,1.0,phase_1,,,,,,,,,,,,,yellow,I
394.0,4.0,4.0,0.0,3.0,3.0,342.9708430003302,1.0,1.0,phase_1,,,,,,,,,,,,,green,circle
0.0,3.0,0.0,0.0,1.0,1.0,308.8522339999144,1.0,1.0,phase_1,,,,,,,,,,,,,white,triangle
379.0,4.0,4.0,0.0,3.0,3.0,309.8879529998157,1.0,1.0,phase_1,,,,,,,,,,,,,green,circle
214.0,7.0,2.0,1.0,3.0,3.0,244.6425449998059,1.0,1.0,phase_1,,,,,,,,,,,,,orange,hexagon
44.0,5.0,0.5,1.0,2.0,2.0,253.0837939998491,1.0,1.0,phase_1,,,,,,,,,,,,,blue,diamond
29.0,5.0,0.5,1.0,1.0,1.0,296.1281679999956,1.0,1.0,phase_1,,,,,,,,,,,,,blue,diamond
47.0,5.0,0.5,1.0,1.0,1.0,286.5950160003194,1.0,1.0,phase_1,,,,,,,,,,,,,blue,diamond
58.0,1.0,0.5,0.0,1.0,1.0,290.7451040000524,1.0,1.0,phase_1,,,,,,,,,,,,,cyan,flipped triangle
107.0,2.0,1.0,0.0,2.0,2.0,307.0929099999375,1.0,1.0,phase_1,,,,,,,,,,,,,gray,square
189.0,3.0,2.0,0.0,3.0,3.0,264.6724999999605,1.0,1.0,phase_1,,,,,,,,,,,,,white,triangle
72.0,5.0,0.5,1.0,4.0,4.0,242.5836529996559,1.0,1.0,phase_1,,,,,,,,,,,,,blue,diamond
176.0,3.0,2.0,0.0,1.0,1.0,222.7116209996893,1.0,1.0,phase_1,,,,,,,,,,,,,white,triangle
193.0,3.0,2.0,0.0,1.0,1.0,255.4803989996799,1.0,1.0,phase_1,,,,,,,,,,,,,white,triangle
80.0,6.0,1.0,1.0,2.0,2.0,280.5204359997333,1.0,1.0,phase_1,,,,,,,,,,,,,yellow,I
0.0,2.0,0.0,0.0,2.0,2.0,247.7833699999791,1.0,1.0,phase_1,,,,,,,,,,,,,gray,square
0.0,8.0,0.0,1.0,4.0,4.0,301.9447669998953,1.0,1.0,phase_1,,,,,,,,,,,,,magenta,cross
0.0,5.0,0.0,1.0,3.0,3.0,297.3589520001951,1.0,2.0,phase_1,,,,,,,,,,,,,blue,diamond
400.0,4.0,4.0,0.0,4.0,4.0,269.6863390001454,1.0,1.0,phase_1,,,,,,,,,,,,,green,circle
63.0,5.0,0.5,1.0,2.0,2.0,308.2514239999909,1.0,1.0,phase_1,,,,,,,,,,,,,blue,diamond
382.0,4.0,4.0,0.0,2.0,2.0,306.6434729998946,1.0,1.0,phase_1,,,,,,,,,,,,,green,circle
50.0,5.0,0.5,1.0,3.0,3.0,240.654792999976,1.0,1.0,phase_1,,,,,,,,,,,,,blue,diamond
402.0,4.0,4.0,0.0,3.0,3.0,237.5663560001157,1.0,1.0,phase_1,,,,,,,,,,,,,green,circle
178.0,7.0,2.0,1.0,3.0,3.0,249.1273729997374,1.0,1.0,phase_1,,,,,,,,,,,,,orange,hexagon
193.0,7.0,2.0,1.0,2.0,2.0,416.591574999984,1.0,1.0,phase_1,,,,,,,,,,,,,orange,hexagon
190.0,7.0,2.0,1.0,2.0,2.0,288.7360230001832,1.0,1.0,phase_1,,,,,,,,,,,,,orange,hexagon
0.0,7.0,0.0,1.0,1.0,1.0,320.243111000309,1.0,1.0,phase_1,,,,,,,,,,,,,orange,hexagon
377.0,8.0,4.0,1.0,3.0,3.0,259.90984200007,1.0,1.0,phase_1,,,,,,,,,,,,,magenta,cross
377.0,8.0,4.0,1.0,1.0,1.0,294.96101299992,1.0,1.0,phase_1,,,,,,,,,,,,,magenta,cross
0.0,1.0,0.0,0.0,1.0,1.0,337.0835790001365,1.0,1.0,phase_1,,,,,,,,,,,,,cyan,flipped triangle
102.0,2.0,1.0,0.0,1.0,1.0,323.60881600016,1.0,1.0,phase_1,,,,,,,,,,,,,gray,square
87.0,6.0,1.0,1.0,2.0,2.0,247.8749639999478,1.0,1.0,phase_1,,,,,,,,,,,,,yellow,I
113.0,6.0,1.0,1.0,2.0,2.0,231.456961999811,1.0,1.0,phase_1,,,,,,,,,,,,,yellow,I
106.0,2.0,1.0,0.0,1.0,1.0,294.6439319998717,1.0,1.0,phase_1,,,,,,,,,,,,,gray,square
204.0,3.0,2.0,0.0,2.0,2.0,265.0635099998908,1.0,1.0,phase_1,,,,,,,,,,,,,white,triangle
78.0,2.0,1.0,0.0,4.0,4.0,175.4449230002137,1.0,1.0,phase_1,,,,,,,,,,,,,gray,square
37.0,1.0,0.5,0.0,2.0,2.0,210.8132570001544,1.0,1.0,phase_1,,,,,,,,,,,,,cyan,flipped triangle
0.0,5.0,0.0,1.0,4.0,4.0,221.6800649998731,1.0,1.0,phase_1,,,,,,,,,,,,,blue,diamond
86.0,6.0,1.0,1.0,4.0,4.0,297.2068340000078,1.0,1.0,phase_1,,,,,,,,,,,,,yellow,I
0.0,1.0,0.0,0.0,4.0,4.0,369.8448259997349,1.0,1.0,phase_1,,,,,,,,,,,,,cyan,flipped triangle
40.0,5.0,0.5,1.0,4.0,4.0,284.4311799999559,1.0,1.0,phase_1,,,,,,,,,,,,,blue,diamond
44.0,1.0,0.5,0.0,4.0,4.0,324.1775020001114,1.0,1.0,phase_1,,,,,,,,,,,,,cyan,flipped triangle
208.0,3.0,2.0,0.0,3.0,3.0,265.9695929996815,1.0,1.0,phase_1,,,,,,,,,,,,,white,triangle
208.0,7.0,2.0,1.0,3.0,3.0,273.3208120002928,1.0,1.0,phase_1,,,,,,,,,,,,,orange,hexagon
200.0,7.0,2.0,1.0,3.0,3.0,245.1470139999401,1.0,1.0,phase_1,,,,,,,,,,,,,orange,hexagon
394.0,4.0,4.0,0.0,1.0,1.0,323.3834609995938,1.0,1.0,phase_1,,,,,,,,,,,,,green,circle
219.0,3.0,2.0,0.0,4.0,4.0,274.2768629996135,1.0,1.0,phase_1,,,,,,,,,,,,,white,triangle
56.0,1.0,0.5,0.0,2.0,2.0,218.108599000061,1.0,1.0,phase_1,,,,,,,,,,,,,cyan,flipped triangle
65.0,5.0,0.5,1.0,1.0,1.0,304.7678450002422,1.0,1.0,phase_1,,,,,,,,,,,,,blue,diamond
0.0,6.0,0.0,1.0,1.0,1.0,318.7578059996667,1.0,1.0,phase_1,,,,,,,,,,,,,yellow,I
176.0,7.0,2.0,1.0,2.0,2.0,206.4587439999741,1.0,1.0,phase_1,,,,,,,,,,,,,orange,hexagon
197.0,7.0,2.0,1.0,3.0,3.0,269.8079389997474,1.0,1.0,phase_1,,,,,,,,,,,,,orange,hexagon
212.0,7.0,2.0,1.0,1.0,1.0,268.2130550001602,1.0,1.0,phase_1,,,,,,,,,,,,,orange,hexagon
377.0,4.0,4.0,0.0,2.0,2.0,225.8250570002928,1.0,1.0,phase_1,,,,,,,,,,,,,green,circle
0.0,6.0,0.0,1.0,1.0,1.0,244.582096999693,1.0,1.0,phase_1,,,,,,,,,,,,,yellow,I
107.0,2.0,1.0,0.0,2.0,2.0,245.16666099998469,1.0,1.0,phase_1,,,,,,,,,,,,,gray,square
65.0,1.0,0.5,0.0,2.0,2.0,288.5048059997643,1.0,2.0,phase_1,,,,,,,,,,,,,cyan,flipped triangle
122.0,6.0,1.0,1.0,2.0,2.0,304.2490210000323,1.0,1.0,phase_1,,,,,,,,,,,,,yellow,I
120.0,2.0,1.0,0.0,2.0,2.0,210.7394659997226,1.0,1.0,phase_1,,,,,,,,,,,,,gray,square
46.0,1.0,0.5,0.0,2.0,2.0,301.4706880003359,1.0,1.0,phase_1,,,,,,,,,,,,,cyan,flipped triangle
66.0,1.0,0.5,0.0,3.0,3.0,239.80319900010718,1.0,1.0,phase_1,,,,,,,,,,,,,cyan,flipped triangle
397.0,8.0,4.0,1.0,4.0,4.0,340.3913800002556,1.0,1.0,phase_1,,,,,,,,,,,,,magenta,cross
86.0,6.0,1.0,1.0,4.0,4.0,435.4002479999508,1.0,1.0,phase_1,,,,,,,,,,,,,yellow,I
71.0,5.0,0.5,1.0,1.0,1.0,309.3399420004061,1.0,1.0,phase_1,,,,,,,,,,,,,blue,diamond
208.0,3.0,2.0,0.0,3.0,3.0,281.3176720001138,1.0,1.0,phase_1,,,,,,,,,,,,,white,triangle
0.0,7.0,0.0,1.0,2.0,2.0,215.5357249998815,1.0,1.0,phase_1,,,,,,,,,,,,,orange,hexagon
0.0,8.0,0.0,1.0,3.0,3.0,227.9849810001906,1.0,1.0,phase_1,,,,,,,,,,,,,magenta,cross
58.0,5.0,0.5,1.0,4.0,4.0,494.388460999744,1.0,1.0,phase_1,,,,,,,,,,,,,blue,diamond
74.0,1.0,0.5,0.0,4.0,4.0,325.8075919998191,1.0,1.0,phase_1,,,,,,,,,,,,,cyan,flipped triangle
63.0,1.0,0.5,0.0,2.0,2.0,290.6640720002542,2.0,1.0,phase_1,,,,,,,,,,,,,cyan,flipped triangle
43.0,1.0,0.5,0.0,4.0,4.0,258.7199969998437,2.0,1.0,phase_1,,,,,,,,,,,,,cyan,flipped triangle
0.0,8.0,0.0,1.0,3.0,3.0,233.4308330000567,2.0,1.0,phase_1,,,,,,,,,,,,,magenta,cross
178.0,3.0,2.0,0.0,4.0,4.0,350.244642999769,2.0,1.0,phase_1,,,,,,,,,,,,,white,triangle
29.0,1.0,0.5,0.0,2.0,2.0,232.46595899991,2.0,1.0,phase_1,,,,,,,,,,,,,cyan,flipped triangle
176.0,7.0,2.0,1.0,4.0,4.0,296.9454670001141,2.0,1.0,phase_1,,,,,,,,,,,,,orange,hexagon
0.0,4.0,0.0,0.0,1.0,1.0,246.3019510000776,2.0,1.0,phase_1,,,,,,,,,,,,,green,circle
180.0,3.0,2.0,0.0,4.0,4.0,286.1333250002644,2.0,1.0,phase_1,,,,,,,,,,,,,white,triangle
0.0,2.0,0.0,0.0,2.0,2.0,256.0551070000656,2.0,1.0,phase_1,,,,,,,,,,,,,gray,square
0.0,5.0,0.0,1.0,1.0,1.0,321.2980620000962,2.0,1.0,phase_1,,,,,,,,,,,,,blue,diamond
219.0,3.0,2.0,0.0,4.0,4.0,301.1718180000571,2.0,1.0,phase_1,,,,,,,,,,,,,white,triangle
379.0,8.0,4.0,1.0,4.0,4.0,293.9555470002233,2.0,1.0,phase_1,,,,,,,,,,,,,magenta,cross
184.0,3.0,2.0,0.0,3.0,3.0,370.502007000141,2.0,1.0,phase_1,,,,,,,,,,,,,white,triangle
0.0,2.0,0.0,0.0,3.0,3.0,292.1482429997013,2.0,2.0,phase_1,,,,,,,,,,,,,gray,square
65.0,1.0,0.5,0.0,4.0,4.0,405.0664390001657,2.0,1.0,phase_1,,,,,,,,,,,,,cyan,flipped triangle
0.0,3.0,0.0,0.0,3.0,3.0,305.2923780001038,2.0,1.0,phase_1,,,,,,,,,,,,,white,triangle
0.0,3.0,0.0,0.0,4.0,4.0,290.4096009997374,2.0,1.0,phase_1,,,,,,,,,,,,,white,triangle
207.0,7.0,2.0,1.0,4.0,4.0,333.3750819997476,2.0,1.0,phase_1,,,,,,,,,,,,,orange,hexagon
72.0,1.0,0.5,0.0,4.0,4.0,263.6401830000068,2.0,1.0,phase_1,,,,,,,,,,,,,cyan,flipped triangle
197.0,7.0,2.0,1.0,4.0,4.0,388.1745839998984,2.0,1.0,phase_1,,,,,,,,,,,,,orange,hexagon
0.0,1.0,0.0,0.0,3.0,3.0,284.6332700000857,2.0,1.0,phase_1,,,,,,,,,,,,,cyan,flipped triangle
58.0,5.0,0.5,1.0,3.0,3.0,294.4422719997419,2.0,1.0,phase_1,,,,,,,,,,,,,blue,diamond
56.0,5.0,0.5,1.0,3.0,3.0,260.0595500002782,2.0,1.0,phase_1,,,,,,,,,,,,,blue,diamond
32.0,5.0,0.5,1.0,2.0,2.0,239.1810869999062,2.0,1.0,phase_1,,,,,,,,,,,,,blue,diamond
424.0,4.0,4.0,0.0,4.0,4.0,307.7577270000802,2.0,1.0,phase_1,,,,,,,,,,,,,green,circle
0.0,5.0,0.0,1.0,1.0,1.0,499.9665569998797,2.0,1.0,phase_1,,,,,,,,,,,,,blue,diamond
0.0,6.0,0.0,1.0,1.0,1.0,291.5787749998344,2.0,1.0,phase_1,,,,,,,,,,,,,yellow,I
401.0,8.0,4.0,1.0,2.0,2.0,253.1652380002924,2.0,1.0,phase_1,,,,,,,,,,,,,magenta,cross
97.0,2.0,1.0,0.0,3.0,3.0,284.1958500002874,2.0,1.0,phase_1,,,,,,,,,,,,,gray,square
38.0,5.0,0.5,1.0,2.0,2.0,332.000244000028,2.0,1.0,phase_1,,,,,,,,,,,,,blue,diamond
0.0,8.0,0.0,1.0,3.0,3.0,249.1134880001482,2.0,1.0,phase_1,,,,,,,,,,,,,magenta,cross
57.0,5.0,0.5,1.0,3.0,3.0,260.4882720002024,2.0,1.0,phase_1,,,,,,,,,,,,,blue,diamond
124.0,6.0,1.0,1.0,1.0,1.0,262.2491379997882,2.0,1.0,phase_1,,,,,,,,,,,,,yellow,I
56.0,5.0,0.5,1.0,2.0,2.0,302.7147370003149,2.0,1.0,phase_1,,,,,,,,,,,,,blue,diamond
393.0,8.0,4.0,1.0,1.0,1.0,371.2063500001932,2.0,1.0,phase_1,,,,,,,,,,,,,magenta,cross
30.0,1.0,0.5,0.0,4.0,4.0,391.7427680003129,2.0,2.0,phase_1,,,,,,,,,,,,,cyan,flipped triangle
119.0,6.0,1.0,1.0,2.0,2.0,264.9217369998951,2.0,1.0,phase_1,,,,,,,,,,,,,yellow,I
106.0,6.0,1.0,1.0,4.0,4.0,424.5383820002644,2.0,1.0,phase_1,,,,,,,,,,,,,yellow,I
69.0,5.0,0.5,1.0,3.0,3.0,312.8072009999414,2.0,1.0,phase_1,,,,,,,,,,,,,blue,diamond
410.0,4.0,4.0,0.0,3.0,3.0,305.2337469998747,2.0,1.0,phase_1,,,,,,,,,,,,,green,circle
379.0,8.0,4.0,1.0,3.0,3.0,284.7015570000621,2.0,1.0,phase_1,,,,,,,,,,,,,magenta,cross
80.0,2.0,1.0,0.0,3.0,3.0,407.8693089995795,2.0,1.0,phase_1,,,,,,,,,,,,,gray,square
207.0,3.0,2.0,0.0,4.0,4.0,417.2153340000477,2.0,1.0,phase_1,,,,,,,,,,,,,white,triangle
44.0,5.0,0.5,1.0,3.0,3.0,280.5826970002272,2.0,1.0,phase_1,,,,,,,,,,,,,blue,diamond
0.0,7.0,0.0,1.0,2.0,2.0,251.7714979999255,2.0,1.0,phase_1,,,,,,,,,,,,,orange,hexagon
423.0,8.0,4.0,1.0,1.0,1.0,405.9726159998718,2.0,1.0,phase_1,,,,,,,,,,,,,magenta,cross
81.0,6.0,1.0,1.0,1.0,1.0,349.2366659997969,2.0,1.0,phase_1,,,,,,,,,,,,,yellow,I
0.0,4.0,0.0,0.0,4.0,4.0,326.3489820001268,2.0,1.0,phase_1,,,,,,,,,,,,,green,circle
408.0,4.0,4.0,0.0,2.0,2.0,238.899081999989,2.0,1.0,phase_1,,,,,,,,,,,,,green,circle
415.0,4.0,4.0,0.0,4.0,4.0,411.9104070000503,2.0,1.0,phase_1,,,,,,,,,,,,,green,circle
223.0,7.0,2.0,1.0,4.0,4.0,389.2198819999066,2.0,1.0,phase_1,,,,,,,,,,,,,orange,hexagon
0.0,6.0,0.0,1.0,3.0,3.0,269.3683910001709,2.0,1.0,phase_1,,,,,,,,,,,,,yellow,I
377.0,4.0,4.0,0.0,3.0,3.0,319.731142999899,2.0,1.0,phase_1,,,,,,,,,,,,,green,circle
0.0,1.0,0.0,0.0,1.0,1.0,293.8345689999551,2.0,1.0,phase_1,,,,,,,,,,,,,cyan,flipped triangle
205.0,3.0,2.0,0.0,2.0,2.0,266.6396180002266,2.0,1.0,phase_1,,,,,,,,,,,,,white,triangle
222.0,3.0,2.0,0.0,1.0,1.0,278.636484999879,2.0,1.0,phase_1,,,,,,,,,,,,,white,triangle
79.0,6.0,1.0,1.0,3.0,3.0,256.379668000136,2.0,1.0,phase_1,,,,,,,,,,,,,yellow,I
415.0,8.0,4.0,1.0,3.0,3.0,310.2705919995969,2.0,1.0,phase_1,,,,,,,,,,,,,magenta,cross
106.0,2.0,1.0,0.0,1.0,1.0,319.9312860001555,2.0,1.0,phase_1,,,,,,,,,,,,,gray,square
0.0,2.0,0.0,0.0,3.0,3.0,281.2468069996612,2.0,1.0,phase_1,,,,,,,,,,,,,gray,square
116.0,6.0,1.0,1.0,4.0,4.0,302.8123509998295,2.0,1.0,phase_1,,,,,,,,,,,,,yellow,I
184.0,7.0,2.0,1.0,1.0,1.0,345.0047119999908,2.0,1.0,phase_1,,,,,,,,,,,,,orange,hexagon
400.0,8.0,4.0,1.0,2.0,2.0,277.4712320001526,2.0,1.0,phase_1,,,,,,,,,,,,,magenta,cross
207.0,3.0,2.0,0.0,3.0,3.0,256.6608520000955,2.0,1.0,phase_1,,,,,,,,,,,,,white,triangle
0.0,3.0,0.0,0.0,3.0,3.0,295.8131599998523,2.0,1.0,phase_1,,,,,,,,,,,,,white,triangle
0.0,3.0,0.0,0.0,2.0,2.0,355.8300470003814,2.0,1.0,phase_1,,,,,,,,,,,,,white,triangle
69.0,1.0,0.5,0.0,3.0,3.0,284.2355540001335,2.0,1.0,phase_1,,,,,,,,,,,,,cyan,flipped triangle
101.0,2.0,1.0,0.0,3.0,3.0,307.037572000354,2.0,1.0,phase_1,,,,,,,,,,,,,gray,square
78.0,6.0,1.0,1.0,1.0,1.0,321.040579000055,2.0,1.0,phase_1,,,,,,,,,,,,,yellow,I
196.0,3.0,2.0,0.0,3.0,3.0,237.2913419999349,2.0,1.0,phase_1,,,,,,,,,,,,,white,triangle
46.0,1.0,0.5,0.0,1.0,1.0,342.7145940004266,2.0,1.0,phase_1,,,,,,,,,,,,,cyan,flipped triangle
205.0,7.0,2.0,1.0,3.0,3.0,266.2899769998148,2.0,1.0,phase_1,,,,,,,,,,,,,orange,hexagon
422.0,8.0,4.0,1.0,1.0,1.0,408.2397019997188,2.0,1.0,phase_1,,,,,,,,,,,,,magenta,cross
60.0,5.0,0.5,1.0,4.0,4.0,342.5608950001333,2.0,1.0,phase_1,,,,,,,,,,,,,blue,diamond
0.0,5.0,0.0,1.0,4.0,4.0,431.9648410000809,2.0,1.0,phase_1,,,,,,,,,,,,,blue,diamond
45.0,5.0,0.5,1.0,2.0,2.0,277.6598340001328,2.0,1.0,phase_1,,,,,,,,,,,,,blue,diamond
81.0,2.0,1.0,0.0,3.0,3.0,276.2424339998688,2.0,1.0,phase_1,,,,,,,,,,,,,gray,square
201.0,7.0,2.0,1.0,2.0,2.0,379.1181639999195,2.0,1.0,phase_1,,,,,,,,,,,,,orange,hexagon
46.0,5.0,0.5,1.0,1.0,1.0,309.244757000215,2.0,1.0,phase_1,,,,,,,,,,,,,blue,diamond
401.0,8.0,4.0,1.0,1.0,1.0,383.7376980000044,2.0,1.0,phase_1,,,,,,,,,,,,,magenta,cross
208.0,7.0,2.0,1.0,3.0,3.0,321.0532400003103,2.0,1.0,phase_1,,,,,,,,,,,,,orange,hexagon
39.0,5.0,0.5,1.0,1.0,1.0,344.615832999807,2.0,1.0,phase_1,,,,,,,,,,,,,blue,diamond
0.0,1.0,0.0,0.0,1.0,1.0,423.0237199999465,2.0,1.0,phase_1,,,,,,,,,,,,,cyan,flipped triangle
213.0,7.0,2.0,1.0,4.0,4.0,430.0660300000345,2.0,1.0,phase_1,,,,,,,,,,,,,orange,hexagon
0.0,7.0,0.0,1.0,3.0,3.0,298.3617849999973,2.0,1.0,phase_1,,,,,,,,,,,,,orange,hexagon
411.0,4.0,4.0,0.0,2.0,2.0,237.6150790000792,2.0,1.0,phase_1,,,,,,,,,,,,,green,circle
102.0,2.0,1.0,0.0,3.0,3.0,272.7987009998287,2.0,1.0,phase_1,,,,,,,,,,,,,gray,square
0.0,8.0,0.0,1.0,4.0,4.0,342.3574980001831,2.0,1.0,phase_1,,,,,,,,,,,,,magenta,cross
102.0,6.0,1.0,1.0,1.0,1.0,297.0877540001311,2.0,1.0,phase_1,,,,,,,,,,,,,yellow,I
26.0,5.0,0.5,1.0,2.0,2.0,243.7747379999564,2.0,1.0,phase_1,,,,,,,,,,,,,blue,diamond
0.0,4.0,0.0,0.0,4.0,4.0,345.3003130002798,2.0,1.0,phase_1,,,,,,,,,,,,,green,circle
382.0,8.0,4.0,1.0,4.0,4.0,348.19959000014927,2.0,1.0,phase_1,,,,,,,,,,,,,magenta,cross
415.0,4.0,4.0,0.0,3.0,3.0,346.6753739999149,2.0,1.0,phase_1,,,,,,,,,,,,,green,circle
422.0,4.0,4.0,0.0,4.0,4.0,314.9919030001911,2.0,1.0,phase_1,,,,,,,,,,,,,green,circle
388.0,8.0,4.0,1.0,2.0,2.0,266.8664279999575,2.0,1.0,phase_1,,,,,,,,,,,,,magenta,cross
37.0,5.0,0.5,1.0,4.0,4.0,395.9054349998041,2.0,1.0,phase_1,,,,,,,,,,,,,blue,diamond
124.0,2.0,1.0,0.0,4.0,4.0,284.6676159997514,2.0,1.0,phase_1,,,,,,,,,,,,,gray,square
79.0,2.0,1.0,0.0,4.0,4.0,243.4288019999257,2.0,1.0,phase_1,,,,,,,,,,,,,gray,square
46.0,5.0,0.5,1.0,3.0,3.0,304.0323760001229,2.0,1.0,phase_1,,,,,,,,,,,,,blue,diamond
394.0,8.0,4.0,1.0,2.0,2.0,307.1741750000001,2.0,2.0,phase_1,,,,,,,,,,,,,magenta,cross
73.0,1.0,0.5,0.0,3.0,3.0,314.4614699999692,3.0,1.0,phase_1,,,,,,,,,,,,,cyan,flipped triangle
407.0,4.0,4.0,0.0,3.0,3.0,325.8464000000458,3.0,1.0,phase_1,,,,,,,,,,,,,green,circle
407.0,8.0,4.0,1.0,2.0,2.0,280.9709039997869,3.0,1.0,phase_1,,,,,,,,,,,,,magenta,cross
417.0,8.0,4.0,1.0,3.0,3.0,303.1656499997552,3.0,1.0,phase_1,,,,,,,,,,,,,magenta,cross
387.0,4.0,4.0,0.0,2.0,2.0,248.6375590001444,3.0,1.0,phase_1,,,,,,,,,,,,,green,circle
58.0,1.0,0.5,0.0,2.0,2.0,360.6720769998901,3.0,1.0,phase_1,,,,,,,,,,,,,cyan,flipped triangle
393.0,4.0,4.0,0.0,1.0,1.0,248.8627719999385,3.0,1.0,phase_1,,,,,,,,,,,,,green,circle
98.0,6.0,1.0,1.0,4.0,4.0,286.0027410001748,3.0,1.0,phase_1,,,,,,,,,,,,,yellow,I
0.0,8.0,0.0,1.0,2.0,2.0,211.5987739998672,3.0,1.0,phase_1,,,,,,,,,,,,,magenta,cross
31.0,1.0,0.5,0.0,1.0,1.0,312.8076640000472,3.0,1.0,phase_1,,,,,,,,,,,,,cyan,flipped triangle
0.0,5.0,0.0,1.0,2.0,2.0,238.6590290002459,3.0,1.0,phase_1,,,,,,,,,,,,,blue,diamond
219.0,3.0,2.0,0.0,4.0,4.0,296.6000420001364,3.0,1.0,phase_1,,,,,,,,,,,,,white,triangle
394.0,8.0,4.0,1.0,2.0,2.0,383.5931329999766,3.0,1.0,phase_1,,,,,,,,,,,,,magenta,cross
219.0,7.0,2.0,1.0,1.0,1.0,261.0690900000918,3.0,1.0,phase_1,,,,,,,,,,,,,orange,hexagon
387.0,4.0,4.0,0.0,1.0,1.0,343.2943590000832,3.0,1.0,phase_1,,,,,,,,,,,,,green,circle
207.0,7.0,2.0,1.0,4.0,4.0,386.4539149999473,3.0,1.0,phase_1,,,,,,,,,,,,,orange,hexagon
30.0,5.0,0.5,1.0,4.0,4.0,360.6386960000236,3.0,1.0,phase_1,,,,,,,,,,,,,blue,diamond
116.0,6.0,1.0,1.0,3.0,3.0,356.2417890002507,3.0,1.0,phase_1,,,,,,,,,,,,,yellow,I
0.0,7.0,0.0,1.0,3.0,3.0,366.2992479999047,3.0,1.0,phase_1,,,,,,,,,,,,,orange,hexagon
415.0,4.0,4.0,0.0,4.0,4.0,351.2094970001271,3.0,1.0,phase_1,,,,,,,,,,,,,green,circle
92.0,6.0,1.0,1.0,3.0,3.0,409.3980520001423,3.0,1.0,phase_1,,,,,,,,,,,,,yellow,I
200.0,3.0,2.0,0.0,3.0,3.0,336.0126490001676,3.0,1.0,phase_1,,,,,,,,,,,,,white,triangle
412.0,4.0,4.0,0.0,2.0,2.0,329.1703889999553,3.0,1.0,phase_1,,,,,,,,,,,,,green,circle
0.0,2.0,0.0,0.0,1.0,1.0,343.6668809999901,3.0,1.0,phase_1,,,,,,,,,,,,,gray,square
83.0,6.0,1.0,1.0,3.0,3.0,277.1910599999501,3.0,1.0,phase_1,,,,,,,,,,,,,yellow,I
185.0,7.0,2.0,1.0,2.0,2.0,249.431898000239,3.0,1.0,phase_1,,,,,,,,,,,,,orange,hexagon
0.0,4.0,0.0,0.0,3.0,3.0,205.7633880003777,3.0,1.0,phase_1,,,,,,,,,,,,,green,circle
379.0,4.0,4.0,0.0,1.0,1.0,298.4754500002964,3.0,1.0,phase_1,,,,,,,,,,,,,green,circle
83.0,2.0,1.0,0.0,2.0,2.0,317.5459949998185,3.0,1.0,phase_1,,,,,,,,,,,,,gray,square
78.0,6.0,1.0,1.0,4.0,4.0,247.3142280000502,3.0,1.0,phase_1,,,,,,,,,,,,,yellow,I
410.0,8.0,4.0,1.0,1.0,1.0,274.9108739999428,3.0,1.0,phase_1,,,,,,,,,,,,,magenta,cross
107.0,6.0,1.0,1.0,1.0,1.0,350.7942380001623,3.0,1.0,phase_1,,,,,,,,,,,,,yellow,I
207.0,7.0,2.0,1.0,4.0,4.0,396.3693870000497,3.0,1.0,phase_1,,,,,,,,,,,,,orange,hexagon
91.0,6.0,1.0,1.0,2.0,2.0,317.3488499996892,3.0,1.0,phase_1,,,,,,,,,,,,,yellow,I
0.0,2.0,0.0,0.0,4.0,4.0,334.1034539998873,3.0,2.0,phase_1,,,,,,,,,,,,,gray,square
101.0,6.0,1.0,1.0,3.0,3.0,387.5941470000725,3.0,1.0,phase_1,,,,,,,,,,,,,yellow,I
0.0,8.0,0.0,1.0,4.0,4.0,375.7987349999894,3.0,1.0,phase_1,,,,,,,,,,,,,magenta,cross
417.0,4.0,4.0,0.0,2.0,2.0,240.4622359999848,3.0,1.0,phase_1,,,,,,,,,,,,,green,circle
401.0,4.0,4.0,0.0,2.0,2.0,301.9987050001873,3.0,1.0,phase_1,,,,,,,,,,,,,green,circle
117.0,2.0,1.0,0.0,1.0,1.0,329.87942599993397,3.0,1.0,phase_1,,,,,,,,,,,,,gray,square
203.0,3.0,2.0,0.0,2.0,2.0,310.6577690000449,3.0,1.0,phase_1,,,,,,,,,,,,,white,triangle
0.0,1.0,0.0,0.0,1.0,1.0,356.0255050001615,3.0,1.0,phase_1,,,,,,,,,,,,,cyan,flipped triangle
219.0,7.0,2.0,1.0,2.0,2.0,294.2197890001807,3.0,1.0,phase_1,,,,,,,,,,,,,orange,hexagon
197.0,3.0,2.0,0.0,2.0,2.0,314.1175749997273,3.0,1.0,phase_1,,,,,,,,,,,,,white,triangle
31.0,5.0,0.5,1.0,2.0,2.0,334.1819960000975,3.0,1.0,phase_1,,,,,,,,,,,,,blue,diamond
217.0,7.0,2.0,1.0,4.0,4.0,409.9582139997437,3.0,1.0,phase_1,,,,,,,,,,,,,orange,hexagon
0.0,5.0,0.0,1.0,4.0,4.0,306.2162490000446,3.0,1.0,phase_1,,,,,,,,,,,,,blue,diamond
196.0,7.0,2.0,1.0,1.0,1.0,347.4605639999026,3.0,1.0,phase_1,,,,,,,,,,,,,orange,hexagon
37.0,5.0,0.5,1.0,2.0,2.0,251.6365350002161,3.0,1.0,phase_1,,,,,,,,,,,,,blue,diamond
197.0,3.0,2.0,0.0,3.0,3.0,243.3915470001011,3.0,1.0,phase_1,,,,,,,,,,,,,white,triangle
106.0,6.0,1.0,1.0,4.0,4.0,275.8330459996614,3.0,1.0,phase_1,,,,,,,,,,,,,yellow,I
0.0,1.0,0.0,0.0,3.0,3.0,318.4274670002196,3.0,1.0,phase_1,,,,,,,,,,,,,cyan,flipped triangle
394.0,8.0,4.0,1.0,4.0,4.0,337.7036770002632,3.0,1.0,phase_1,,,,,,,,,,,,,magenta,cross
71.0,1.0,0.5,0.0,1.0,1.0,408.1649130002915,3.0,1.0,phase_1,,,,,,,,,,,,,cyan,flipped triangle
185.0,7.0,2.0,1.0,2.0,2.0,324.6378710000499,3.0,1.0,phase_1,,,,,,,,,,,,,orange,hexagon
39.0,1.0,0.5,0.0,3.0,3.0,394.7733679997327,3.0,1.0,phase_1,,,,,,,,,,,,,cyan,flipped triangle
415.0,8.0,4.0,1.0,4.0,4.0,337.4581049997687,3.0,1.0,phase_1,,,,,,,,,,,,,magenta,cross
387.0,4.0,4.0,0.0,1.0,1.0,258.3039720002489,3.0,1.0,phase_1,,,,,,,,,,,,,green,circle
121.0,6.0,1.0,1.0,1.0,1.0,390.5209540002943,3.0,1.0,phase_1,,,,,,,,,,,,,yellow,I
0.0,6.0,0.0,1.0,1.0,1.0,228.8731079997887,3.0,1.0,phase_1,,,,,,,,,,,,,yellow,I
117.0,2.0,1.0,0.0,3.0,3.0,541.4915350002047,3.0,1.0,phase_1,,,,,,,,,,,,,gray,square
125.0,2.0,1.0,0.0,4.0,4.0,417.9552000000512,3.0,1.0,phase_1,,,,,,,,,,,,,gray,square
0.0,2.0,0.0,0.0,4.0,4.0,407.6956309995694,3.0,1.0,phase_1,,,,,,,,,,,,,gray,square
401.0,8.0,4.0,1.0,4.0,4.0,338.8552010001149,3.0,1.0,phase_1,,,,,,,,,,,,,magenta,cross
207.0,3.0,2.0,0.0,2.0,2.0,323.2815679998566,3.0,1.0,phase_1,,,,,,,,,,,,,white,triangle
99.0,6.0,1.0,1.0,3.0,3.0,268.1004730002314,3.0,1.0,phase_1,,,,,,,,,,,,,yellow,I
74.0,1.0,0.5,0.0,3.0,3.0,315.1897959996859,3.0,1.0,phase_1,,,,,,,,,,,,,cyan,flipped triangle
125.0,6.0,1.0,1.0,4.0,4.0,324.0994819998377,3.0,1.0,phase_1,,,,,,,,,,,,,yellow,I
412.0,8.0,4.0,1.0,1.0,1.0,563.9690349999,3.0,1.0,phase_1,,,,,,,,,,,,,magenta,cross
98.0,2.0,1.0,0.0,4.0,4.0,375.0038600001062,3.0,1.0,phase_1,,,,,,,,,,,,,gray,square
223.0,3.0,2.0,0.0,4.0,4.0,286.3518519998251,3.0,1.0,phase_1,,,,,,,,,,,,,white,triangle
119.0,2.0,1.0,0.0,3.0,3.0,256.9848989996899,3.0,1.0,phase_1,,,,,,,,,,,,,gray,square
0.0,5.0,0.0,1.0,3.0,3.0,312.1740219999083,3.0,1.0,phase_1,,,,,,,,,,,,,blue,diamond
0.0,6.0,0.0,1.0,2.0,2.0,278.9861159999418,3.0,1.0,phase_1,,,,,,,,,,,,,yellow,I
385.0,4.0,4.0,0.0,4.0,4.0,358.141397000054,3.0,1.0,phase_1,,,,,,,,,,,,,green,circle
66.0,5.0,0.5,1.0,4.0,4.0,336.0192720001578,3.0,1.0,phase_1,,,,,,,,,,,,,blue,diamond
204.0,7.0,2.0,1.0,3.0,3.0,259.6441420000701,3.0,1.0,phase_1,,,,,,,,,,,,,orange,hexagon
0.0,6.0,0.0,1.0,1.0,1.0,353.988653000215,3.0,1.0,phase_1,,,,,,,,,,,,,yellow,I
0.0,4.0,0.0,0.0,2.0,2.0,317.7361759999257,3.0,1.0,phase_1,,,,,,,,,,,,,green,circle
45.0,1.0,0.5,0.0,4.0,4.0,424.0855960001681,3.0,1.0,phase_1,,,,,,,,,,,,,cyan,flipped triangle
121.0,2.0,1.0,0.0,1.0,1.0,413.3875420002368,3.0,1.0,phase_1,,,,,,,,,,,,,gray,square
0.0,3.0,0.0,0.0,4.0,4.0,314.544666999609,3.0,1.0,phase_1,,,,,,,,,,,,,white,triangle
60.0,1.0,0.5,0.0,2.0,2.0,331.6290099996877,3.0,1.0,phase_1,,,,,,,,,,,,,cyan,flipped triangle
424.0,8.0,4.0,1.0,4.0,4.0,576.9551890002731,3.0,1.0,phase_1,,,,,,,,,,,,,magenta,cross
222.0,7.0,2.0,1.0,4.0,4.0,343.3459979996769,3.0,1.0,phase_1,,,,,,,,,,,,,orange,hexagon
383.0,8.0,4.0,1.0,3.0,3.0,414.8285430001124,3.0,1.0,phase_1,,,,,,,,,,,,,magenta,cross
183.0,3.0,2.0,0.0,4.0,4.0,300.7097680001607,3.0,1.0,phase_1,,,,,,,,,,,,,white,triangle
194.0,3.0,2.0,0.0,1.0,1.0,341.7032900001686,3.0,1.0,phase_1,,,,,,,,,,,,,white,triangle
201.0,3.0,2.0,0.0,1.0,1.0,360.5555789999926,3.0,1.0,phase_1,,,,,,,,,,,,,white,triangle
410.0,4.0,4.0,0.0,3.0,3.0,391.3837189998048,3.0,1.0,phase_1,,,,,,,,,,,,,green,circle
28.0,5.0,0.5,1.0,4.0,4.0,331.7342440000175,3.0,1.0,phase_1,,,,,,,,,,,,,blue,diamond
423.0,8.0,4.0,1.0,2.0,2.0,346.1420570001792,3.0,1.0,phase_1,,,,,,,,,,,,,magenta,cross
193.0,7.0,2.0,1.0,1.0,1.0,276.4529519999996,3.0,1.0,phase_1,,,,,,,,,,,,,orange,hexagon
77.0,6.0,1.0,1.0,2.0,2.0,250.9270579998883,3.0,1.0,phase_1,,,,,,,,,,,,,yellow,I
57.0,5.0,0.5,1.0,4.0,4.0,254.92781699995248,3.0,1.0,phase_1,,,,,,,,,,,,,blue,diamond
74.0,5.0,0.5,1.0,3.0,3.0,276.7841390000285,3.0,1.0,phase_1,,,,,,,,,,,,,blue,diamond
399.0,4.0,4.0,0.0,1.0,1.0,328.8305989999571,3.0,1.0,phase_1,,,,,,,,,,,,,green,circle
85.0,6.0,1.0,1.0,2.0,2.0,225.7761900000332,3.0,1.0,phase_1,,,,,,,,,,,,,yellow,I
417.0,4.0,4.0,0.0,4.0,4.0,415.2762359999542,3.0,1.0,phase_1,,,,,,,,,,,,,green,circle
411.0,8.0,4.0,1.0,3.0,3.0,312.892427999941,3.0,1.0,phase_1,,,,,,,,,,,,,magenta,cross
390.0,4.0,4.0,0.0,1.0,1.0,290.3093439999793,4.0,1.0,phase_1,,,,,,,,,,,,,green,circle
0.0,4.0,0.0,0.0,1.0,1.0,316.1021719997734,4.0,1.0,phase_1,,,,,,,,,,,,,green,circle
401.0,4.0,4.0,0.0,1.0,1.0,279.2215619997478,4.0,1.0,phase_1,,,,,,,,,,,,,green,circle
194.0,7.0,2.0,1.0,4.0,4.0,309.0386559997569,4.0,1.0,phase_1,,,,,,,,,,,,,orange,hexagon
85.0,2.0,1.0,0.0,4.0,4.0,295.9815640001579,4.0,1.0,phase_1,,,,,,,,,,,,,gray,square
120.0,6.0,1.0,1.0,2.0,2.0,264.5027739999932,4.0,1.0,phase_1,,,,,,,,,,,,,yellow,I
385.0,8.0,4.0,1.0,4.0,4.0,411.8089980001969,4.0,1.0,phase_1,,,,,,,,,,,,,magenta,cross
65.0,5.0,0.5,1.0,3.0,3.0,321.1079580000842,4.0,1.0,phase_1,,,,,,,,,,,,,blue,diamond
0.0,4.0,0.0,0.0,4.0,4.0,283.4028700003728,4.0,1.0,phase_1,,,,,,,,,,,,,green,circle
31.0,1.0,0.5,0.0,1.0,1.0,319.9498499998299,4.0,1.0,phase_1,,,,,,,,,,,,,cyan,flipped triangle
52.0,5.0,0.5,1.0,4.0,4.0,280.1067949999378,4.0,1.0,phase_1,,,,,,,,,,,,,blue,diamond
387.0,8.0,4.0,1.0,3.0,3.0,264.715932999934,4.0,1.0,phase_1,,,,,,,,,,,,,magenta,cross
81.0,2.0,1.0,0.0,1.0,1.0,300.1636540002437,4.0,1.0,phase_1,,,,,,,,,,,,,gray,square
380.0,4.0,4.0,0.0,2.0,2.0,271.759917000054,4.0,1.0,phase_1,,,,,,,,,,,,,green,circle
214.0,7.0,2.0,1.0,3.0,3.0,262.821846999941,4.0,1.0,phase_1,,,,,,,,,,,,,orange,hexagon
176.0,3.0,2.0,0.0,4.0,4.0,492.9500289999851,4.0,1.0,phase_1,,,,,,,,,,,,,white,triangle
37.0,1.0,0.5,0.0,1.0,1.0,264.4211940000787,4.0,1.0,phase_1,,,,,,,,,,,,,cyan,flipped triangle
104.0,6.0,1.0,1.0,3.0,3.0,294.8691699998562,4.0,1.0,phase_1,,,,,,,,,,,,,yellow,I
390.0,8.0,4.0,1.0,1.0,1.0,335.2098220002517,4.0,1.0,phase_1,,,,,,,,,,,,,magenta,cross
0.0,2.0,0.0,0.0,2.0,2.0,337.675825000133,4.0,1.0,phase_1,,,,,,,,,,,,,gray,square
0.0,6.0,0.0,1.0,2.0,2.0,300.1292169997214,4.0,1.0,phase_1,,,,,,,,,,,,,yellow,I
212.0,3.0,2.0,0.0,1.0,1.0,309.8832109999421,4.0,1.0,phase_1,,,,,,,,,,,,,white,triangle
52.0,1.0,0.5,0.0,1.0,1.0,491.6199760000381,4.0,1.0,phase_1,,,,,,,,,,,,,cyan,flipped triangle
32.0,1.0,0.5,0.0,3.0,3.0,293.79733199994,4.0,1.0,phase_1,,,,,,,,,,,,,cyan,flipped triangle
402.0,8.0,4.0,1.0,3.0,3.0,309.9912309999126,4.0,1.0,phase_1,,,,,,,,,,,,,magenta,cross
0.0,7.0,0.0,1.0,3.0,3.0,357.3765739997725,4.0,1.0,phase_1,,,,,,,,,,,,,orange,hexagon
0.0,1.0,0.0,0.0,2.0,2.0,372.9374600002302,4.0,1.0,phase_1,,,,,,,,,,,,,cyan,flipped triangle
40.0,1.0,0.5,0.0,4.0,4.0,283.6254990002089,4.0,1.0,phase_1,,,,,,,,,,,,,cyan,flipped triangle
40.0,5.0,0.5,1.0,1.0,1.0,278.2900289998906,4.0,1.0,phase_1,,,,,,,,,,,,,blue,diamond
73.0,5.0,0.5,1.0,3.0,3.0,324.0682420000667,4.0,1.0,phase_1,,,,,,,,,,,,,blue,diamond
0.0,6.0,0.0,1.0,2.0,2.0,268.5579779999898,4.0,1.0,phase_1,,,,,,,,,,,,,yellow,I
417.0,8.0,4.0,1.0,1.0,1.0,246.5768960000787,4.0,1.0,phase_1,,,,,,,,,,,,,magenta,cross
214.0,3.0,2.0,0.0,2.0,2.0,327.8410319999238,4.0,1.0,phase_1,,,,,,,,,,,,,white,triangle
86.0,2.0,1.0,0.0,1.0,1.0,294.0861750003023,4.0,1.0,phase_1,,,,,,,,,,,,,gray,square
180.0,7.0,2.0,1.0,3.0,3.0,301.2154610000834,4.0,1.0,phase_1,,,,,,,,,,,,,orange,hexagon
66.0,1.0,0.5,0.0,1.0,1.0,333.9288219999616,4.0,1.0,phase_1,,,,,,,,,,,,,cyan,flipped triangle
43.0,5.0,0.5,1.0,2.0,2.0,361.6735169998719,4.0,1.0,phase_1,,,,,,,,,,,,,blue,diamond
185.0,3.0,2.0,0.0,2.0,2.0,259.1527199997472,4.0,1.0,phase_1,,,,,,,,,,,,,white,triangle
56.0,1.0,0.5,0.0,1.0,1.0,297.0862099996338,4.0,1.0,phase_1,,,,,,,,,,,,,cyan,flipped triangle
57.0,1.0,0.5,0.0,3.0,3.0,324.9280029999681,4.0,1.0,phase_1,,,,,,,,,,,,,cyan,flipped triangle
0.0,4.0,0.0,0.0,2.0,2.0,245.5234540002493,4.0,1.0,phase_1,,,,,,,,,,,,,green,circle
388.0,4.0,4.0,0.0,1.0,1.0,234.1794100002516,4.0,1.0,phase_1,,,,,,,,,,,,,green,circle
0.0,4.0,0.0,0.0,3.0,3.0,305.0625860000764,4.0,1.0,phase_1,,,,,,,,,,,,,green,circle
410.0,8.0,4.0,1.0,2.0,2.0,356.6781730000912,4.0,1.0,phase_1,,,,,,,,,,,,,magenta,cross
217.0,3.0,2.0,0.0,3.0,3.0,344.1143270001703,4.0,1.0,phase_1,,,,,,,,,,,,,white,triangle
394.0,4.0,4.0,0.0,4.0,4.0,340.1332090002142,4.0,1.0,phase_1,,,,,,,,,,,,,green,circle
387.0,8.0,4.0,1.0,3.0,3.0,280.4356169999664,4.0,1.0,phase_1,,,,,,,,,,,,,magenta,cross
31.0,5.0,0.5,1.0,1.0,1.0,263.0371930004003,4.0,1.0,phase_1,,,,,,,,,,,,,blue,diamond
423.0,4.0,4.0,0.0,2.0,2.0,328.6415279999346,4.0,1.0,phase_1,,,,,,,,,,,,,green,circle
26.0,1.0,0.5,0.0,4.0,4.0,295.8038759998089,4.0,1.0,phase_1,,,,,,,,,,,,,cyan,flipped triangle
28.0,1.0,0.5,0.0,2.0,2.0,239.1914739996536,4.0,1.0,phase_1,,,,,,,,,,,,,cyan,flipped triangle
117.0,6.0,1.0,1.0,2.0,2.0,310.0420760001725,4.0,1.0,phase_1,,,,,,,,,,,,,yellow,I
183.0,7.0,2.0,1.0,2.0,2.0,246.1416999999528,4.0,1.0,phase_1,,,,,,,,,,,,,orange,hexagon
185.0,7.0,2.0,1.0,2.0,2.0,252.0882969997728,4.0,1.0,phase_1,,,,,,,,,,,,,orange,hexagon
185.0,3.0,2.0,0.0,2.0,2.0,219.7002990001237,4.0,1.0,phase_1,,,,,,,,,,,,,white,triangle
189.0,7.0,2.0,1.0,1.0,1.0,318.5446750003393,4.0,1.0,phase_1,,,,,,,,,,,,,orange,hexagon
203.0,7.0,2.0,1.0,1.0,1.0,350.7493560000512,4.0,1.0,phase_1,,,,,,,,,,,,,orange,hexagon
114.0,2.0,1.0,0.0,4.0,4.0,350.7728310000857,4.0,1.0,phase_1,,,,,,,,,,,,,gray,square
97.0,6.0,1.0,1.0,4.0,4.0,304.9250760000177,4.0,1.0,phase_1,,,,,,,,,,,,,yellow,I
87.0,2.0,1.0,0.0,3.0,3.0,531.3755990000573,4.0,1.0,phase_1,,,,,,,,,,,,,gray,square
0.0,7.0,0.0,1.0,3.0,3.0,299.5335189998513,4.0,1.0,phase_1,,,,,,,,,,,,,orange,hexagon
185.0,3.0,2.0,0.0,2.0,2.0,220.67737999987,4.0,1.0,phase_1,,,,,,,,,,,,,white,triangle
81.0,6.0,1.0,1.0,1.0,1.0,359.9704879998171,4.0,1.0,phase_1,,,,,,,,,,,,,yellow,I
47.0,1.0,0.5,0.0,3.0,3.0,284.2168319998563,4.0,1.0,phase_1,,,,,,,,,,,,,cyan,flipped triangle
0.0,2.0,0.0,0.0,3.0,3.0,317.1442180000667,4.0,1.0,phase_1,,,,,,,,,,,,,gray,square
0.0,8.0,0.0,1.0,2.0,2.0,250.49749799973142,4.0,1.0,phase_1,,,,,,,,,,,,,magenta,cross
0.0,6.0,0.0,1.0,1.0,1.0,308.0460389996915,4.0,1.0,phase_1,,,,,,,,,,,,,yellow,I
0.0,5.0,0.0,1.0,4.0,4.0,226.7492670002866,4.0,1.0,phase_1,,,,,,,,,,,,,blue,diamond
86.0,2.0,1.0,0.0,2.0,2.0,287.8674210001009,4.0,1.0,phase_1,,,,,,,,,,,,,gray,square
91.0,2.0,1.0,0.0,3.0,3.0,229.16650599972849,4.0,1.0,phase_1,,,,,,,,,,,,,gray,square
0.0,1.0,0.0,0.0,4.0,4.0,290.0049410000065,4.0,1.0,phase_1,,,,,,,,,,,,,cyan,flipped triangle
66.0,5.0,0.5,1.0,1.0,1.0,210.5513689998588,4.0,1.0,phase_1,,,,,,,,,,,,,blue,diamond
213.0,7.0,2.0,1.0,1.0,1.0,360.736769000141,4.0,1.0,phase_1,,,,,,,,,,,,,orange,hexagon
0.0,7.0,0.0,1.0,3.0,3.0,301.9477029997688,4.0,1.0,phase_1,,,,,,,,,,,,,orange,hexagon
116.0,2.0,1.0,0.0,1.0,1.0,284.6696509996036,4.0,1.0,phase_1,,,,,,,,,,,,,gray,square
85.0,6.0,1.0,1.0,1.0,1.0,330.378354000004,4.0,1.0,phase_1,,,,,,,,,,,,,yellow,I
99.0,2.0,1.0,0.0,2.0,2.0,242.0302699997591,4.0,1.0,phase_1,,,,,,,,,,,,,gray,square
0.0,8.0,0.0,1.0,4.0,4.0,364.0237479999086,4.0,1.0,phase_1,,,,,,,,,,,,,magenta,cross
0.0,7.0,0.0,1.0,1.0,1.0,308.7478939996799,4.0,1.0,phase_1,,,,,,,,,,,,,orange,hexagon
91.0,6.0,1.0,1.0,3.0,3.0,286.8911369996567,4.0,1.0,phase_1,,,,,,,,,,,,,yellow,I
0.0,7.0,0.0,1.0,1.0,1.0,255.00443999999328,4.0,1.0,phase_1,,,,,,,,,,,,,orange,hexagon
397.0,4.0,4.0,0.0,3.0,3.0,256.0277430002315,4.0,1.0,phase_1,,,,,,,,,,,,,green,circle
117.0,6.0,1.0,1.0,1.0,1.0,267.0259169999553,4.0,1.0,phase_1,,,,,,,,,,,,,yellow,I
219.0,7.0,2.0,1.0,1.0,1.0,299.6346300001278,4.0,1.0,phase_1,,,,,,,,,,,,,orange,hexagon
78.0,2.0,1.0,0.0,2.0,2.0,298.4702579997247,4.0,1.0,phase_1,,,,,,,,,,,,,gray,square
380.0,8.0,4.0,1.0,4.0,4.0,229.0263569998387,4.0,1.0,phase_1,,,,,,,,,,,,,magenta,cross
0.0,1.0,0.0,0.0,1.0,1.0,280.1832189998094,4.0,1.0,phase_1,,,,,,,,,,,,,cyan,flipped triangle
383.0,4.0,4.0,0.0,3.0,3.0,300.7414529997732,4.0,1.0,phase_1,,,,,,,,,,,,,green,circle
403.0,8.0,4.0,1.0,4.0,4.0,514.9710150003557,4.0,1.0,phase_1,,,,,,,,,,,,,magenta,cross
92.0,2.0,1.0,0.0,2.0,2.0,249.5576380001694,4.0,1.0,phase_1,,,,,,,,,,,,,gray,square
44.0,1.0,0.5,0.0,3.0,3.0,310.449257000073,4.0,1.0,phase_1,,,,,,,,,,,,,cyan,flipped triangle
96.0,6.0,1.0,1.0,1.0,1.0,218.3501800000158,4.0,1.0,phase_1,,,,,,,,,,,,,yellow,I
0.0,3.0,0.0,0.0,4.0,4.0,244.6238049997191,4.0,1.0,phase_1,,,,,,,,,,,,,white,triangle
57.0,1.0,0.5,0.0,2.0,2.0,295.6161709998923,4.0,1.0,phase_1,,,,,,,,,,,,,cyan,flipped triangle
0.0,3.0,0.0,0.0,4.0,4.0,426.6214560002481,4.0,1.0,phase_1,,,,,,,,,,,,,white,triangle
408.0,8.0,4.0,1.0,1.0,1.0,276.731135000773,4.0,1.0,phase_1,,,,,,,,,,,,,magenta,cross
214.0,3.0,2.0,0.0,1.0,1.0,279.2768270001033,4.0,1.0,phase_1,,,,,,,,,,,,,white,triangle
415.0,8.0,4.0,1.0,2.0,2.0,369.8523739994925,4.0,1.0,phase_1,,,,,,,,,,,,,magenta,cross
38.0,1.0,0.5,0.0,4.0,4.0,309.0045659992029,4.0,1.0,phase_1,,,,,,,,,,,,,cyan,flipped triangle
399.0,8.0,4.0,1.0,3.0,3.0,250.7619640000484,4.0,1.0,phase_1,,,,,,,,,,,,,magenta,cross
0.0,4.0,4.0,0.0,6.0,6.0,311.7172579995895,1.0,1.0,phase_2,go,250.0,250.0,1.0,,,,,,,,,green,circle
0.0,7.0,2.0,1.0,5.0,5.0,440.0608310006646,1.0,1.0,phase_2,stop,250.0,250.0,3.0,,,,,,,,,orange,hexagon
0.0,2.0,1.0,0.0,5.0,5.0,495.4343969993715,1.0,1.0,phase_2,go,200.0,250.0,1.0,,,,,,,,,gray,square
0.0,1.0,0.5,0.0,6.0,6.0,858.1523949997063,1.0,1.0,phase_2,go,200.0,250.0,1.0,,,,,,,,,cyan,flipped triangle
0.0,6.0,1.0,1.0,5.0,0.0,0.0,1.0,1.0,phase_2,stop,200.0,250.0,4.0,,,,,,,,,yellow,I
0.0,5.0,0.5,1.0,5.0,5.0,292.7336359998662,1.0,1.0,phase_2,stop,250.0,250.0,3.0,,,,,,,,,blue,diamond
0.0,8.0,4.0,1.0,6.0,6.0,325.8321399998749,1.0,1.0,phase_2,stop,200.0,250.0,3.0,,,,,,,,,magenta,cross
0.0,2.0,1.0,0.0,5.0,5.0,426.1151059999974,1.0,1.0,phase_2,go,200.0,200.0,1.0,,,,,,,,,gray,square
0.0,5.0,0.5,1.0,6.0,6.0,301.3917980006226,1.0,1.0,phase_2,stop,200.0,200.0,3.0,,,,,,,,,blue,diamond
0.0,1.0,0.5,0.0,5.0,5.0,396.1659619999409,1.0,1.0,phase_2,go,200.0,150.0,1.0,,,,,,,,,cyan,flipped triangle
0.0,6.0,1.0,1.0,5.0,5.0,892.3883730003581,1.0,1.0,phase_2,go,200.0,150.0,1.0,,,,,,,,,yellow,I
0.0,7.0,2.0,1.0,5.0,5.0,1087.3581440000637,1.0,1.0,phase_2,go,200.0,150.0,1.0,,,,,,,,,orange,hexagon
0.0,1.0,0.5,0.0,6.0,6.0,861.7200879998563,1.0,1.0,phase_2,go,200.0,150.0,1.0,,,,,,,,,cyan,flipped triangle
0.0,5.0,0.5,1.0,5.0,0.0,0.0,1.0,1.0,phase_2,stop,200.0,150.0,4.0,,,,,,,,,blue,diamond
0.0,6.0,1.0,1.0,5.0,5.0,740.7901899996432,1.0,1.0,phase_2,go,250.0,150.0,1.0,,,,,,,,,yellow,I
0.0,6.0,1.0,1.0,5.0,5.0,794.2383500003416,1.0,1.0,phase_2,go,250.0,150.0,1.0,,,,,,,,,yellow,I
0.0,8.0,4.0,1.0,5.0,0.0,0.0,1.0,1.0,phase_2,stop,250.0,150.0,4.0,,,,,,,,,magenta,cross
0.0,1.0,0.5,0.0,6.0,6.0,417.1170210001946,1.0,1.0,phase_2,go,300.0,150.0,1.0,,,,,,,,,cyan,flipped triangle
0.0,4.0,4.0,0.0,5.0,5.0,554.4766530001652,1.0,1.0,phase_2,go,300.0,150.0,1.0,,,,,,,,,green,circle
0.0,4.0,4.0,0.0,6.0,6.0,722.4235620005857,1.0,1.0,phase_2,go,300.0,150.0,1.0,,,,,,,,,green,circle
0.0,3.0,2.0,0.0,5.0,5.0,926.5579720004098,1.0,1.0,phase_2,go,300.0,150.0,1.0,,,,,,,,,white,triangle
0.0,3.0,2.0,0.0,6.0,6.0,815.959747999841,1.0,1.0,phase_2,go,300.0,150.0,1.0,,,,,,,,,white,triangle
0.0,5.0,0.5,1.0,6.0,6.0,1043.4503599999516,1.0,1.0,phase_2,go,300.0,150.0,1.0,,,,,,,,,blue,diamond
0.0,7.0,2.0,1.0,6.0,0.0,0.0,1.0,1.0,phase_2,stop,300.0,150.0,4.0,,,,,,,,,orange,hexagon
0.0,4.0,4.0,0.0,6.0,6.0,638.7826000000132,1.0,1.0,phase_2,go,300.0,200.0,1.0,,,,,,,,,green,circle
0.0,6.0,1.0,1.0,6.0,0.0,0.0,1.0,1.0,phase_2,stop,300.0,200.0,4.0,,,,,,,,,yellow,I
0.0,1.0,0.5,0.0,5.0,5.0,429.493055000421,1.0,1.0,phase_2,go,300.0,250.0,1.0,,,,,,,,,cyan,flipped triangle
0.0,2.0,1.0,0.0,6.0,6.0,405.6805059999533,1.0,1.0,phase_2,go,300.0,250.0,1.0,,,,,,,,,gray,square
0.0,1.0,0.5,0.0,5.0,5.0,466.6171769995344,1.0,1.0,phase_2,go,300.0,250.0,1.0,,,,,,,,,cyan,flipped triangle
0.0,4.0,4.0,0.0,6.0,6.0,500.7752640003673,1.0,1.0,phase_2,go,300.0,250.0,1.0,,,,,,,,,green,circle
0.0,1.0,0.5,0.0,5.0,5.0,464.4858880001266,1.0,1.0,phase_2,go,300.0,250.0,1.0,,,,,,,,,cyan,flipped triangle
0.0,5.0,0.5,1.0,5.0,0.0,0.0,1.0,1.0,phase_2,stop,300.0,250.0,4.0,,,,,,,,,blue,diamond
0.0,5.0,0.5,1.0,6.0,0.0,0.0,1.0,1.0,phase_2,stop,350.0,250.0,4.0,,,,,,,,,blue,diamond
0.0,3.0,2.0,0.0,5.0,5.0,446.8169559995658,1.0,1.0,phase_2,go,350.0,300.0,1.0,,,,,,,,,white,triangle
0.0,5.0,0.5,1.0,6.0,0.0,0.0,1.0,1.0,phase_2,stop,350.0,300.0,4.0,,,,,,,,,blue,diamond
0.0,5.0,0.5,1.0,5.0,5.0,314.5129790000283,1.0,1.0,phase_2,go,350.0,350.0,1.0,,,,,,,,,blue,diamond
0.0,1.0,0.5,0.0,6.0,6.0,1221.083575999728,2.0,1.0,phase_2,go,350.0,350.0,1.0,,,,,,,,,cyan,flipped triangle
0.0,4.0,4.0,0.0,6.0,6.0,437.1518719999585,2.0,1.0,phase_2,go,350.0,350.0,1.0,,,,,,,,,green,circle
0.0,8.0,4.0,1.0,6.0,6.0,876.631148999877,2.0,1.0,phase_2,go,350.0,350.0,1.0,,,,,,,,,magenta,cross
0.0,5.0,0.5,1.0,6.0,0.0,0.0,2.0,1.0,phase_2,stop,350.0,350.0,4.0,,,,,,,,,blue,diamond
0.0,4.0,4.0,0.0,6.0,6.0,653.8262209996901,2.0,1.0,phase_2,go,350.0,400.0,1.0,,,,,,,,,green,circle
0.0,3.0,2.0,0.0,6.0,6.0,568.5627719994955,2.0,1.0,phase_2,go,350.0,400.0,1.0,,,,,,,,,white,triangle
0.0,3.0,2.0,0.0,6.0,6.0,650.3345090004586,2.0,1.0,phase_2,go,350.0,400.0,1.0,,,,,,,,,white,triangle
0.0,7.0,2.0,1.0,6.0,6.0,584.8812120002549,2.0,1.0,phase_2,go,350.0,400.0,1.0,,,,,,,,,orange,hexagon
0.0,4.0,4.0,0.0,6.0,6.0,922.6580519998606,2.0,1.0,phase_2,go,350.0,400.0,1.0,,,,,,,,,green,circle
0.0,3.0,2.0,0.0,5.0,5.0,671.8539859994053,2.0,1.0,phase_2,go,350.0,400.0,1.0,,,,,,,,,white,triangle
0.0,6.0,1.0,1.0,5.0,5.0,685.0304839999808,2.0,1.0,phase_2,go,350.0,400.0,1.0,,,,,,,,,yellow,I
0.0,2.0,1.0,0.0,5.0,5.0,423.5964350000358,2.0,1.0,phase_2,go,350.0,400.0,1.0,,,,,,,,,gray,square
0.0,6.0,1.0,1.0,6.0,0.0,0.0,2.0,1.0,phase_2,stop,350.0,400.0,4.0,,,,,,,,,yellow,I
0.0,4.0,4.0,0.0,5.0,5.0,375.5471140002555,2.0,1.0,phase_2,go,350.0,450.0,1.0,,,,,,,,,green,circle
0.0,5.0,0.5,1.0,5.0,5.0,402.3303240001041,2.0,1.0,phase_2,stop,350.0,450.0,3.0,,,,,,,,,blue,diamond
0.0,7.0,2.0,1.0,6.0,6.0,305.8315389998824,2.0,1.0,phase_2,stop,300.0,450.0,3.0,,,,,,,,,orange,hexagon
0.0,8.0,4.0,1.0,5.0,0.0,0.0,2.0,1.0,phase_2,stop,300.0,400.0,4.0,,,,,,,,,magenta,cross
0.0,1.0,0.5,0.0,6.0,6.0,643.3929759996317,2.0,1.0,phase_2,go,350.0,400.0,1.0,,,,,,,,,cyan,flipped triangle
0.0,1.0,0.5,0.0,6.0,6.0,651.8911160001153,2.0,1.0,phase_2,go,350.0,400.0,1.0,,,,,,,,,cyan,flipped triangle
0.0,4.0,4.0,0.0,6.0,6.0,485.1646269999037,2.0,1.0,phase_2,go,350.0,400.0,1.0,,,,,,,,,green,circle
0.0,3.0,2.0,0.0,5.0,5.0,767.8070850006407,2.0,1.0,phase_2,go,350.0,400.0,1.0,,,,,,,,,white,triangle
0.0,6.0,1.0,1.0,6.0,0.0,0.0,2.0,1.0,phase_2,stop,350.0,400.0,4.0,,,,,,,,,yellow,I
0.0,2.0,1.0,0.0,6.0,6.0,536.6066629994748,2.0,1.0,phase_2,go,350.0,450.0,1.0,,,,,,,,,gray,square
0.0,2.0,1.0,0.0,5.0,5.0,772.6367169998412,2.0,1.0,phase_2,go,350.0,450.0,1.0,,,,,,,,,gray,square
0.0,5.0,0.5,1.0,6.0,0.0,0.0,2.0,1.0,phase_2,stop,350.0,450.0,4.0,,,,,,,,,blue,diamond
0.0,8.0,4.0,1.0,6.0,0.0,0.0,2.0,1.0,phase_2,stop,350.0,500.0,4.0,,,,,,,,,magenta,cross
0.0,1.0,0.5,0.0,5.0,5.0,641.2869409996347,2.0,1.0,phase_2,go,350.0,550.0,1.0,,,,,,,,,cyan,flipped triangle
0.0,1.0,0.5,0.0,6.0,6.0,558.7412669992773,2.0,1.0,phase_2,go,350.0,550.0,1.0,,,,,,,,,cyan,flipped triangle
0.0,3.0,2.0,0.0,6.0,6.0,674.3558009993649,2.0,1.0,phase_2,go,350.0,550.0,1.0,,,,,,,,,white,triangle
0.0,5.0,0.5,1.0,6.0,6.0,769.4729770000777,2.0,1.0,phase_2,go,350.0,550.0,1.0,,,,,,,,,blue,diamond
0.0,4.0,4.0,0.0,5.0,5.0,753.13138599995,2.0,1.0,phase_2,go,350.0,550.0,1.0,,,,,,,,,green,circle
0.0,7.0,2.0,1.0,6.0,6.0,443.5604749996855,2.0,1.0,phase_2,stop,350.0,550.0,3.0,,,,,,,,,orange,hexagon
0.0,1.0,0.5,0.0,5.0,5.0,732.6130049996209,2.0,1.0,phase_2,go,350.0,500.0,1.0,,,,,,,,,cyan,flipped triangle
0.0,1.0,0.5,0.0,5.0,5.0,536.7107349993603,2.0,1.0,phase_2,go,350.0,500.0,1.0,,,,,,,,,cyan,flipped triangle
0.0,4.0,4.0,0.0,6.0,6.0,659.1574280000714,2.0,1.0,phase_2,go,350.0,500.0,1.0,,,,,,,,,green,circle
0.0,2.0,1.0,0.0,5.0,5.0,532.2933120005473,2.0,1.0,phase_2,go,350.0,500.0,1.0,,,,,,,,,gray,square
0.0,3.0,2.0,0.0,5.0,5.0,368.891873999928,3.0,1.0,phase_2,go,350.0,500.0,1.0,,,,,,,,,white,triangle
0.0,6.0,1.0,1.0,5.0,5.0,372.2763780006062,3.0,1.0,phase_2,go,350.0,500.0,1.0,,,,,,,,,yellow,I
0.0,2.0,1.0,0.0,5.0,5.0,271.0697729999083,3.0,1.0,phase_2,go,350.0,500.0,1.0,,,,,,,,,gray,square
0.0,7.0,2.0,1.0,5.0,0.0,0.0,3.0,1.0,phase_2,stop,350.0,500.0,4.0,,,,,,,,,orange,hexagon
0.0,7.0,2.0,1.0,5.0,5.0,440.5261069996413,3.0,1.0,phase_2,stop,400.0,500.0,3.0,,,,,,,,,orange,hexagon
0.0,8.0,4.0,1.0,6.0,6.0,301.1565859997063,3.0,1.0,phase_2,stop,350.0,500.0,3.0,,,,,,,,,magenta,cross
0.0,3.0,2.0,0.0,5.0,5.0,508.4680190002473,3.0,1.0,phase_2,go,350.0,450.0,1.0,,,,,,,,,white,triangle
0.0,3.0,2.0,0.0,5.0,5.0,457.3939439997048,3.0,1.0,phase_2,go,350.0,450.0,1.0,,,,,,,,,white,triangle
0.0,3.0,2.0,0.0,5.0,5.0,679.9507989999256,3.0,1.0,phase_2,go,350.0,450.0,1.0,,,,,,,,,white,triangle
0.0,5.0,0.5,1.0,5.0,0.0,0.0,3.0,1.0,phase_2,stop,350.0,450.0,4.0,,,,,,,,,blue,diamond
0.0,4.0,4.0,0.0,5.0,5.0,614.3790490004903,3.0,1.0,phase_2,go,400.0,450.0,1.0,,,,,,,,,green,circle
0.0,5.0,0.5,1.0,5.0,5.0,700.9959209999579,3.0,1.0,phase_2,go,400.0,450.0,1.0,,,,,,,,,blue,diamond
0.0,6.0,1.0,1.0,6.0,0.0,0.0,3.0,1.0,phase_2,stop,400.0,450.0,4.0,,,,,,,,,yellow,I
0.0,8.0,4.0,1.0,5.0,0.0,0.0,3.0,1.0,phase_2,stop,400.0,500.0,4.0,,,,,,,,,magenta,cross
0.0,8.0,4.0,1.0,5.0,0.0,0.0,3.0,1.0,phase_2,stop,450.0,500.0,4.0,,,,,,,,,magenta,cross
0.0,6.0,1.0,1.0,6.0,6.0,550.360238000394,3.0,1.0,phase_2,go,500.0,500.0,1.0,,,,,,,,,yellow,I
0.0,7.0,2.0,1.0,5.0,5.0,544.9631360006606,3.0,1.0,phase_2,stop,500.0,500.0,3.0,,,,,,,,,orange,hexagon
0.0,3.0,2.0,0.0,6.0,6.0,244.2499960006898,3.0,1.0,phase_2,go,450.0,500.0,1.0,,,,,,,,,white,triangle
0.0,3.0,2.0,0.0,6.0,6.0,467.3955210000713,3.0,1.0,phase_2,go,450.0,500.0,1.0,,,,,,,,,white,triangle
0.0,5.0,0.5,1.0,6.0,0.0,0.0,3.0,1.0,phase_2,stop,450.0,500.0,4.0,,,,,,,,,blue,diamond
0.0,2.0,1.0,0.0,5.0,5.0,607.3354589998416,3.0,1.0,phase_2,go,450.0,550.0,1.0,,,,,,,,,gray,square
0.0,1.0,0.5,0.0,5.0,5.0,741.0992740005895,3.0,1.0,phase_2,go,450.0,550.0,1.0,,,,,,,,,cyan,flipped triangle
0.0,3.0,2.0,0.0,6.0,6.0,289.8682320001171,3.0,1.0,phase_2,go,450.0,550.0,1.0,,,,,,,,,white,triangle
0.0,4.0,4.0,0.0,5.0,5.0,789.9381540000832,3.0,1.0,phase_2,go,450.0,550.0,1.0,,,,,,,,,green,circle
0.0,7.0,2.0,1.0,6.0,6.0,712.2159319997081,3.0,1.0,phase_2,stop,450.0,550.0,3.0,,,,,,,,,orange,hexagon
0.0,7.0,2.0,1.0,5.0,5.0,708.9483849995304,3.0,1.0,phase_2,go,450.0,500.0,1.0,,,,,,,,,orange,hexagon
0.0,3.0,2.0,0.0,6.0,6.0,733.2711910003127,3.0,1.0,phase_2,go,450.0,500.0,1.0,,,,,,,,,white,triangle
0.0,2.0,1.0,0.0,5.0,5.0,786.0329779996391,3.0,1.0,phase_2,go,450.0,500.0,1.0,,,,,,,,,gray,square
0.0,3.0,2.0,0.0,5.0,5.0,515.5235169995649,3.0,1.0,phase_2,go,450.0,500.0,1.0,,,,,,,,,white,triangle
0.0,7.0,2.0,1.0,6.0,0.0,0.0,3.0,1.0,phase_2,stop,450.0,500.0,4.0,,,,,,,,,orange,hexagon
0.0,6.0,1.0,1.0,6.0,0.0,0.0,3.0,1.0,phase_2,stop,450.0,550.0,4.0,,,,,,,,,yellow,I
0.0,1.0,0.5,0.0,6.0,6.0,674.207314999876,3.0,1.0,phase_2,go,450.0,600.0,1.0,,,,,,,,,cyan,flipped triangle
0.0,6.0,1.0,1.0,6.0,6.0,311.3077569996676,3.0,1.0,phase_2,stop,450.0,600.0,3.0,,,,,,,,,yellow,I
0.0,7.0,2.0,1.0,6.0,6.0,645.8164640007453,3.0,1.0,phase_2,stop,450.0,550.0,3.0,,,,,,,,,orange,hexagon
0.0,5.0,0.5,1.0,5.0,5.0,566.3246650001383,3.0,1.0,phase_2,stop,450.0,500.0,3.0,,,,,,,,,blue,diamond
0.0,3.0,2.0,0.0,5.0,5.0,659.9373869994452,3.0,1.0,phase_2,go,400.0,500.0,1.0,,,,,,,,,white,triangle
0.0,1.0,0.5,0.0,5.0,5.0,762.72564699957,4.0,1.0,phase_2,go,400.0,500.0,1.0,,,,,,,,,cyan,flipped triangle
0.0,5.0,0.5,1.0,5.0,5.0,594.1083679999792,4.0,1.0,phase_2,go,400.0,500.0,1.0,,,,,,,,,blue,diamond
0.0,4.0,4.0,0.0,6.0,6.0,760.6104329997834,4.0,1.0,phase_2,go,400.0,500.0,1.0,,,,,,,,,green,circle
0.0,1.0,0.5,0.0,6.0,6.0,615.357125000628,4.0,1.0,phase_2,go,400.0,500.0,1.0,,,,,,,,,cyan,flipped triangle
0.0,4.0,4.0,0.0,5.0,5.0,592.785895999441,4.0,1.0,phase_2,go,400.0,500.0,1.0,,,,,,,,,green,circle
0.0,2.0,1.0,0.0,6.0,6.0,993.0971080002564,4.0,1.0,phase_2,go,400.0,500.0,1.0,,,,,,,,,gray,square
0.0,6.0,1.0,1.0,5.0,0.0,0.0,4.0,1.0,phase_2,stop,400.0,500.0,4.0,,,,,,,,,yellow,I
0.0,2.0,1.0,0.0,6.0,6.0,650.7314589998714,4.0,1.0,phase_2,go,450.0,500.0,1.0,,,,,,,,,gray,square
0.0,8.0,4.0,1.0,5.0,5.0,591.3090760004707,4.0,1.0,phase_2,go,450.0,500.0,1.0,,,,,,,,,magenta,cross
0.0,8.0,4.0,1.0,5.0,5.0,780.0530020003862,4.0,1.0,phase_2,go,450.0,500.0,1.0,,,,,,,,,magenta,cross
0.0,5.0,0.5,1.0,6.0,6.0,608.5673649995442,4.0,1.0,phase_2,stop,450.0,500.0,3.0,,,,,,,,,blue,diamond
0.0,2.0,1.0,0.0,5.0,5.0,472.024443999544,4.0,1.0,phase_2,go,450.0,450.0,1.0,,,,,,,,,gray,square
0.0,6.0,1.0,1.0,6.0,6.0,532.6606380003795,4.0,1.0,phase_2,go,450.0,450.0,1.0,,,,,,,,,yellow,I
0.0,6.0,1.0,1.0,5.0,0.0,0.0,4.0,1.0,phase_2,stop,450.0,450.0,4.0,,,,,,,,,yellow,I
0.0,6.0,1.0,1.0,5.0,0.0,0.0,4.0,1.0,phase_2,stop,500.0,450.0,4.0,,,,,,,,,yellow,I
0.0,4.0,4.0,0.0,5.0,5.0,709.906594000131,4.0,1.0,phase_2,go,550.0,450.0,1.0,,,,,,,,,green,circle
0.0,8.0,4.0,1.0,5.0,5.0,413.0266749998554,4.0,1.0,phase_2,stop,550.0,450.0,3.0,,,,,,,,,magenta,cross
0.0,8.0,4.0,1.0,5.0,0.0,0.0,4.0,1.0,phase_2,stop,500.0,450.0,4.0,,,,,,,,,magenta,cross
0.0,8.0,4.0,1.0,6.0,6.0,420.8204669994302,4.0,1.0,phase_2,go,550.0,450.0,1.0,,,,,,,,,magenta,cross
0.0,1.0,0.5,0.0,5.0,5.0,271.2751720000597,4.0,1.0,phase_2,go,550.0,450.0,1.0,,,,,,,,,cyan,flipped triangle
0.0,7.0,2.0,1.0,6.0,6.0,297.8109420000692,4.0,1.0,phase_2,go,550.0,450.0,1.0,,,,,,,,,orange,hexagon
0.0,3.0,2.0,0.0,5.0,5.0,725.657756000146,4.0,1.0,phase_2,go,550.0,450.0,1.0,,,,,,,,,white,triangle
0.0,7.0,2.0,1.0,5.0,5.0,672.9792950000046,4.0,1.0,phase_2,go,550.0,450.0,1.0,,,,,,,,,orange,hexagon
0.0,2.0,1.0,0.0,5.0,5.0,448.1145699992339,4.0,1.0,phase_2,go,550.0,450.0,1.0,,,,,,,,,gray,square
0.0,6.0,1.0,1.0,5.0,5.0,594.8180369996408,4.0,1.0,phase_2,stop,550.0,450.0,3.0,,,,,,,,,yellow,I
0.0,3.0,2.0,0.0,6.0,6.0,898.0435519997627,4.0,1.0,phase_2,go,500.0,450.0,1.0,,,,,,,,,white,triangle
0.0,7.0,2.0,1.0,5.0,0.0,0.0,4.0,1.0,phase_2,stop,500.0,450.0,4.0,,,,,,,,,orange,hexagon
0.0,4.0,4.0,0.0,5.0,5.0,807.8556369991929,4.0,1.0,phase_2,go,550.0,450.0,1.0,,,,,,,,,green,circle
0.0,8.0,4.0,1.0,6.0,0.0,0.0,4.0,1.0,phase_2,stop,550.0,450.0,4.0,,,,,,,,,magenta,cross
0.0,8.0,4.0,1.0,6.0,0.0,0.0,4.0,1.0,phase_2,stop,550.0,500.0,4.0,,,,,,,,,magenta,cross
0.0,3.0,2.0,0.0,5.0,5.0,550.228418000188,4.0,1.0,phase_2,go,550.0,550.0,1.0,,,,,,,,,white,triangle
0.0,8.0,4.0,1.0,6.0,6.0,658.787453999139,4.0,1.0,phase_2,stop,550.0,550.0,3.0,,,,,,,,,magenta,cross
0.0,1.0,0.5,0.0,6.0,6.0,659.6896219998598,4.0,1.0,phase_2,go,550.0,500.0,1.0,,,,,,,,,cyan,flipped triangle
0.0,4.0,4.0,0.0,6.0,6.0,320.2329739997367,4.0,1.0,phase_2,go,550.0,500.0,1.0,,,,,,,,,green,circle
0.0,2.0,1.0,0.0,6.0,6.0,312.953034000202,4.0,1.0,phase_2,go,550.0,500.0,1.0,,,,,,,,,gray,square
0.0,5.0,0.5,1.0,5.0,5.0,449.9198530002104,4.0,1.0,phase_2,go,550.0,500.0,1.0,,,,,,,,,blue,diamond
0.0,5.0,0.5,1.0,5.0,5.0,513.0643049997161,5.0,1.0,phase_2,stop,550.0,500.0,3.0,,,,,,,,,blue,diamond
0.0,3.0,2.0,0.0,5.0,5.0,576.6349139994418,5.0,1.0,phase_2,go,500.0,500.0,1.0,,,,,,,,,white,triangle
0.0,6.0,1.0,1.0,5.0,0.0,0.0,5.0,1.0,phase_2,stop,500.0,500.0,4.0,,,,,,,,,yellow,I
0.0,2.0,1.0,0.0,6.0,6.0,355.1600420005343,5.0,1.0,phase_2,go,550.0,500.0,1.0,,,,,,,,,gray,square
0.0,7.0,2.0,1.0,5.0,5.0,605.4083599992737,5.0,1.0,phase_2,stop,550.0,500.0,3.0,,,,,,,,,orange,hexagon
0.0,7.0,2.0,1.0,5.0,5.0,647.6993460000813,5.0,1.0,phase_2,stop,500.0,500.0,3.0,,,,,,,,,orange,hexagon
0.0,1.0,0.5,0.0,5.0,5.0,820.9869289994458,5.0,1.0,phase_2,go,450.0,500.0,1.0,,,,,,,,,cyan,flipped triangle
0.0,8.0,4.0,1.0,5.0,0.0,0.0,5.0,1.0,phase_2,stop,450.0,500.0,4.0,,,,,,,,,magenta,cross
0.0,4.0,4.0,0.0,5.0,5.0,675.3680920000988,5.0,1.0,phase_2,go,500.0,500.0,1.0,,,,,,,,,green,circle
0.0,6.0,1.0,1.0,5.0,0.0,0.0,5.0,1.0,phase_2,stop,500.0,500.0,4.0,,,,,,,,,yellow,I
0.0,7.0,2.0,1.0,5.0,0.0,0.0,5.0,1.0,phase_2,stop,550.0,500.0,4.0,,,,,,,,,orange,hexagon
0.0,4.0,4.0,0.0,6.0,6.0,723.3862069997485,5.0,1.0,phase_2,go,600.0,500.0,1.0,,,,,,,,,green,circle
0.0,2.0,1.0,0.0,5.0,5.0,367.0429929998136,5.0,1.0,phase_2,go,600.0,500.0,1.0,,,,,,,,,gray,square
0.0,4.0,4.0,0.0,5.0,5.0,343.2851199995639,5.0,1.0,phase_2,go,600.0,500.0,1.0,,,,,,,,,green,circle
0.0,4.0,4.0,0.0,5.0,5.0,458.8573740002175,5.0,1.0,phase_2,go,600.0,500.0,1.0,,,,,,,,,green,circle
0.0,3.0,2.0,0.0,6.0,6.0,706.1175560002084,5.0,1.0,phase_2,go,600.0,500.0,1.0,,,,,,,,,white,triangle
0.0,2.0,1.0,0.0,6.0,6.0,438.5594349996609,5.0,1.0,phase_2,go,600.0,500.0,1.0,,,,,,,,,gray,square
0.0,8.0,4.0,1.0,5.0,0.0,0.0,5.0,1.0,phase_2,stop,600.0,500.0,4.0,,,,,,,,,magenta,cross
0.0,2.0,1.0,0.0,5.0,5.0,617.8232330003084,5.0,1.0,phase_2,go,650.0,500.0,1.0,,,,,,,,,gray,square
0.0,4.0,4.0,0.0,5.0,5.0,340.5831619993478,5.0,1.0,phase_2,go,650.0,500.0,1.0,,,,,,,,,green,circle
0.0,8.0,4.0,1.0,6.0,6.0,316.55460499951,5.0,1.0,phase_2,stop,650.0,500.0,3.0,,,,,,,,,magenta,cross
0.0,8.0,4.0,1.0,6.0,0.0,0.0,5.0,1.0,phase_2,stop,650.0,450.0,4.0,,,,,,,,,magenta,cross
0.0,2.0,1.0,0.0,5.0,5.0,545.1128929998958,5.0,1.0,phase_2,go,650.0,500.0,1.0,,,,,,,,,gray,square
0.0,4.0,4.0,0.0,6.0,6.0,341.6285510002126,5.0,1.0,phase_2,go,650.0,500.0,1.0,,,,,,,,,green,circle
0.0,8.0,4.0,1.0,5.0,5.0,332.1711150001647,5.0,1.0,phase_2,stop,650.0,500.0,3.0,,,,,,,,,magenta,cross
0.0,6.0,1.0,1.0,5.0,5.0,576.5758210000058,5.0,1.0,phase_2,stop,600.0,500.0,3.0,,,,,,,,,yellow,I
0.0,8.0,4.0,1.0,5.0,5.0,777.1205969993389,5.0,1.0,phase_2,go,550.0,500.0,1.0,,,,,,,,,magenta,cross
0.0,3.0,2.0,0.0,6.0,6.0,326.0226749998764,5.0,1.0,phase_2,go,550.0,500.0,1.0,,,,,,,,,white,triangle
0.0,3.0,2.0,0.0,6.0,6.0,746.0262570002669,5.0,1.0,phase_2,go,550.0,500.0,1.0,,,,,,,,,white,triangle
0.0,7.0,2.0,1.0,6.0,0.0,0.0,5.0,1.0,phase_2,stop,550.0,500.0,4.0,,,,,,,,,orange,hexagon
0.0,6.0,1.0,1.0,6.0,0.0,0.0,5.0,1.0,phase_2,stop,550.0,550.0,4.0,,,,,,,,,yellow,I
0.0,8.0,4.0,1.0,6.0,6.0,779.4404719998056,5.0,1.0,phase_2,go,550.0,600.0,1.0,,,,,,,,,magenta,cross
0.0,8.0,4.0,1.0,5.0,0.0,0.0,5.0,1.0,phase_2,stop,550.0,600.0,4.0,,,,,,,,,magenta,cross
0.0,4.0,4.0,0.0,5.0,5.0,918.8944790003006,5.0,1.0,phase_2,go,600.0,600.0,1.0,,,,,,,,,green,circle
0.0,5.0,0.5,1.0,5.0,5.0,487.7055460001429,5.0,1.0,phase_2,stop,600.0,600.0,3.0,,,,,,,,,blue,diamond
0.0,4.0,4.0,0.0,5.0,5.0,679.108665000058,5.0,1.0,phase_2,go,550.0,600.0,1.0,,,,,,,,,green,circle
0.0,5.0,0.5,1.0,6.0,6.0,617.9480580003656,6.0,1.0,phase_2,go,550.0,600.0,1.0,,,,,,,,,blue,diamond
0.0,1.0,0.5,0.0,6.0,6.0,406.738306999614,6.0,1.0,phase_2,go,550.0,600.0,1.0,,,,,,,,,cyan,flipped triangle
0.0,3.0,2.0,0.0,6.0,6.0,782.805142000143,6.0,1.0,phase_2,go,550.0,600.0,1.0,,,,,,,,,white,triangle
0.0,6.0,1.0,1.0,6.0,0.0,0.0,6.0,1.0,phase_2,stop,550.0,600.0,4.0,,,,,,,,,yellow,I
0.0,3.0,2.0,0.0,6.0,6.0,660.669611999765,6.0,1.0,phase_2,go,550.0,650.0,1.0,,,,,,,,,white,triangle
0.0,8.0,4.0,1.0,6.0,6.0,760.3894339999897,6.0,1.0,phase_2,stop,550.0,650.0,3.0,,,,,,,,,magenta,cross
0.0,7.0,2.0,1.0,6.0,6.0,635.5013749998761,6.0,1.0,phase_2,stop,550.0,600.0,3.0,,,,,,,,,orange,hexagon
0.0,6.0,1.0,1.0,5.0,5.0,676.6570540003158,6.0,1.0,phase_2,go,550.0,550.0,1.0,,,,,,,,,yellow,I
0.0,3.0,2.0,0.0,5.0,5.0,987.4008580000008,6.0,1.0,phase_2,go,550.0,550.0,1.0,,,,,,,,,white,triangle
0.0,6.0,1.0,1.0,6.0,0.0,0.0,6.0,1.0,phase_2,stop,550.0,550.0,4.0,,,,,,,,,yellow,I
0.0,4.0,4.0,0.0,6.0,6.0,884.0748599996004,6.0,1.0,phase_2,go,550.0,600.0,1.0,,,,,,,,,green,circle
0.0,6.0,1.0,1.0,6.0,0.0,0.0,6.0,1.0,phase_2,stop,550.0,600.0,4.0,,,,,,,,,yellow,I
0.0,6.0,1.0,1.0,5.0,0.0,0.0,6.0,1.0,phase_2,stop,550.0,650.0,4.0,,,,,,,,,yellow,I
0.0,7.0,2.0,1.0,6.0,6.0,584.5518440000887,6.0,1.0,phase_2,stop,600.0,650.0,3.0,,,,,,,,,orange,hexagon
0.0,1.0,0.5,0.0,5.0,5.0,427.74923900014977,6.0,1.0,phase_2,go,600.0,600.0,1.0,,,,,,,,,cyan,flipped triangle
0.0,2.0,1.0,0.0,6.0,6.0,293.1682950002141,6.0,1.0,phase_2,go,600.0,600.0,1.0,,,,,,,,,gray,square
0.0,3.0,2.0,0.0,6.0,6.0,308.0739730003188,6.0,1.0,phase_2,go,600.0,600.0,1.0,,,,,,,,,white,triangle
0.0,8.0,4.0,1.0,5.0,0.0,0.0,6.0,1.0,phase_2,stop,600.0,600.0,4.0,,,,,,,,,magenta,cross
0.0,8.0,4.0,1.0,6.0,0.0,0.0,6.0,1.0,phase_2,stop,650.0,600.0,4.0,,,,,,,,,magenta,cross
0.0,1.0,0.5,0.0,6.0,6.0,529.1434620003201,6.0,1.0,phase_2,go,650.0,650.0,1.0,,,,,,,,,cyan,flipped triangle
0.0,8.0,4.0,1.0,5.0,0.0,0.0,6.0,1.0,phase_2,stop,650.0,650.0,4.0,,,,,,,,,magenta,cross
0.0,2.0,1.0,0.0,5.0,5.0,594.6888339994985,6.0,1.0,phase_2,go,700.0,650.0,1.0,,,,,,,,,gray,square
0.0,2.0,1.0,0.0,5.0,5.0,324.7562749993449,6.0,1.0,phase_2,go,700.0,650.0,1.0,,,,,,,,,gray,square
0.0,8.0,4.0,1.0,5.0,5.0,310.2731030003269,6.0,1.0,phase_2,stop,700.0,650.0,3.0,,,,,,,,,magenta,cross
0.0,3.0,2.0,0.0,5.0,5.0,668.8366320004207,6.0,1.0,phase_2,go,650.0,650.0,1.0,,,,,,,,,white,triangle
0.0,2.0,1.0,0.0,6.0,6.0,414.0804310000021,6.0,1.0,phase_2,go,650.0,650.0,1.0,,,,,,,,,gray,square
0.0,5.0,0.5,1.0,5.0,5.0,445.3490770001735,6.0,1.0,phase_2,stop,650.0,650.0,3.0,,,,,,,,,blue,diamond
0.0,5.0,0.5,1.0,5.0,5.0,763.8700580000659,6.0,1.0,phase_2,go,600.0,650.0,1.0,,,,,,,,,blue,diamond
0.0,7.0,2.0,1.0,5.0,5.0,674.983414000053,6.0,1.0,phase_2,stop,600.0,650.0,3.0,,,,,,,,,orange,hexagon
0.0,2.0,1.0,0.0,6.0,6.0,346.6426920003869,6.0,1.0,phase_2,go,550.0,650.0,1.0,,,,,,,,,gray,square
0.0,5.0,0.5,1.0,6.0,6.0,635.4498489999969,6.0,1.0,phase_2,stop,550.0,650.0,3.0,,,,,,,,,blue,diamond
0.0,2.0,1.0,0.0,6.0,6.0,365.2316179995978,6.0,1.0,phase_2,go,550.0,600.0,1.0,,,,,,,,,gray,square
0.0,7.0,2.0,1.0,5.0,0.0,0.0,6.0,1.0,phase_2,stop,550.0,600.0,4.0,,,,,,,,,orange,hexagon
0.0,8.0,4.0,1.0,6.0,6.0,882.4268939997637,6.0,1.0,phase_2,go,600.0,600.0,1.0,,,,,,,,,magenta,cross
0.0,2.0,1.0,0.0,6.0,6.0,753.7123000001884,6.0,1.0,phase_2,go,600.0,600.0,1.0,,,,,,,,,gray,square
0.0,6.0,1.0,1.0,5.0,0.0,0.0,6.0,1.0,phase_2,stop,600.0,600.0,4.0,,,,,,,,,yellow,I
0.0,5.0,0.5,1.0,5.0,0.0,0.0,7.0,1.0,phase_2,stop,650.0,600.0,4.0,,,,,,,,,blue,diamond
0.0,1.0,0.5,0.0,5.0,5.0,779.031173000476,7.0,1.0,phase_2,go,700.0,600.0,1.0,,,,,,,,,cyan,flipped triangle
0.0,1.0,0.5,0.0,5.0,5.0,674.4642499998008,7.0,1.0,phase_2,go,700.0,600.0,1.0,,,,,,,,,cyan,flipped triangle
0.0,6.0,1.0,1.0,6.0,0.0,0.0,7.0,1.0,phase_2,stop,700.0,600.0,4.0,,,,,,,,,yellow,I
0.0,1.0,0.5,0.0,6.0,6.0,505.1048739996986,7.0,1.0,phase_2,go,700.0,650.0,1.0,,,,,,,,,cyan,flipped triangle
0.0,5.0,0.5,1.0,6.0,6.0,796.50008399949,7.0,1.0,phase_2,stop,700.0,650.0,3.0,,,,,,,,,blue,diamond
0.0,5.0,0.5,1.0,6.0,6.0,642.0998060002603,7.0,1.0,phase_2,stop,700.0,600.0,3.0,,,,,,,,,blue,diamond
0.0,4.0,4.0,0.0,5.0,5.0,800.1980580002055,7.0,1.0,phase_2,go,700.0,550.0,1.0,,,,,,,,,green,circle
0.0,2.0,1.0,0.0,5.0,5.0,842.8073390005011,7.0,1.0,phase_2,go,700.0,550.0,1.0,,,,,,,,,gray,square
0.0,8.0,4.0,1.0,6.0,0.0,0.0,7.0,1.0,phase_2,stop,700.0,550.0,4.0,,,,,,,,,magenta,cross
0.0,1.0,0.5,0.0,6.0,6.0,633.3982460000698,7.0,1.0,phase_2,go,700.0,600.0,1.0,,,,,,,,,cyan,flipped triangle
0.0,2.0,1.0,0.0,6.0,6.0,503.2812239996929,7.0,1.0,phase_2,go,700.0,600.0,1.0,,,,,,,,,gray,square
0.0,8.0,4.0,1.0,6.0,0.0,0.0,7.0,1.0,phase_2,stop,700.0,600.0,4.0,,,,,,,,,magenta,cross
0.0,4.0,4.0,0.0,5.0,5.0,523.1596140001784,7.0,1.0,phase_2,go,700.0,650.0,1.0,,,,,,,,,green,circle
0.0,4.0,4.0,0.0,6.0,6.0,714.6225580008831,7.0,1.0,phase_2,go,700.0,650.0,1.0,,,,,,,,,green,circle
0.0,8.0,4.0,1.0,6.0,6.0,303.2039279996752,7.0,1.0,phase_2,go,700.0,650.0,1.0,,,,,,,,,magenta,cross
0.0,4.0,4.0,0.0,5.0,5.0,669.4131049998759,7.0,1.0,phase_2,go,700.0,650.0,1.0,,,,,,,,,green,circle
0.0,7.0,2.0,1.0,6.0,6.0,869.3587580000894,7.0,1.0,phase_2,go,700.0,650.0,1.0,,,,,,,,,orange,hexagon
0.0,6.0,1.0,1.0,6.0,0.0,0.0,7.0,1.0,phase_2,stop,700.0,650.0,4.0,,,,,,,,,yellow,I
0.0,4.0,4.0,0.0,6.0,6.0,575.8444350003629,7.0,1.0,phase_2,go,700.0,700.0,1.0,,,,,,,,,green,circle
0.0,6.0,1.0,1.0,6.0,6.0,834.179820000827,7.0,1.0,phase_2,stop,700.0,700.0,3.0,,,,,,,,,yellow,I
0.0,7.0,2.0,1.0,5.0,5.0,587.1177379995061,7.0,1.0,phase_2,stop,700.0,650.0,3.0,,,,,,,,,orange,hexagon
0.0,6.0,1.0,1.0,5.0,5.0,705.6235380005091,7.0,1.0,phase_2,stop,650.0,650.0,3.0,,,,,,,,,yellow,I
0.0,1.0,0.5,0.0,5.0,5.0,524.4641010003761,7.0,1.0,phase_2,go,600.0,650.0,1.0,,,,,,,,,cyan,flipped triangle
0.0,2.0,1.0,0.0,6.0,6.0,498.9333150006132,7.0,1.0,phase_2,go,600.0,650.0,1.0,,,,,,,,,gray,square
0.0,1.0,0.5,0.0,5.0,5.0,357.3680230001628,7.0,1.0,phase_2,go,600.0,650.0,1.0,,,,,,,,,cyan,flipped triangle
0.0,7.0,2.0,1.0,6.0,6.0,381.5436560007583,7.0,1.0,phase_2,stop,600.0,650.0,3.0,,,,,,,,,orange,hexagon
0.0,7.0,2.0,1.0,6.0,0.0,0.0,7.0,1.0,phase_2,stop,600.0,600.0,4.0,,,,,,,,,orange,hexagon
0.0,1.0,0.5,0.0,6.0,6.0,665.5774699993344,7.0,1.0,phase_2,go,600.0,650.0,1.0,,,,,,,,,cyan,flipped triangle
0.0,7.0,2.0,1.0,6.0,0.0,0.0,7.0,1.0,phase_2,stop,600.0,650.0,4.0,,,,,,,,,orange,hexagon
0.0,3.0,2.0,0.0,5.0,5.0,366.6519889993651,7.0,1.0,phase_2,go,600.0,700.0,1.0,,,,,,,,,white,triangle
0.0,6.0,1.0,1.0,6.0,6.0,291.6192829998181,7.0,1.0,phase_2,go,600.0,700.0,1.0,,,,,,,,,yellow,I
0.0,4.0,4.0,0.0,6.0,6.0,745.6605420002234,7.0,1.0,phase_2,go,600.0,700.0,1.0,,,,,,,,,green,circle
0.0,1.0,0.5,0.0,6.0,6.0,894.5492080001713,7.0,1.0,phase_2,go,600.0,700.0,1.0,,,,,,,,,cyan,flipped triangle
0.0,3.0,2.0,0.0,6.0,6.0,436.0336600002483,7.0,1.0,phase_2,go,600.0,700.0,1.0,,,,,,,,,white,triangle
0.0,7.0,2.0,1.0,5.0,5.0,442.3343950002163,7.0,1.0,phase_2,go,600.0,700.0,1.0,,,,,,,,,orange,hexagon
0.0,7.0,2.0,1.0,5.0,5.0,669.5706569998947,8.0,1.0,phase_2,go,600.0,700.0,1.0,,,,,,,,,orange,hexagon
0.0,5.0,0.5,1.0,6.0,6.0,886.8682329994044,8.0,1.0,phase_2,go,600.0,700.0,1.0,,,,,,,,,blue,diamond
0.0,5.0,0.5,1.0,6.0,6.0,607.0774059999167,8.0,1.0,phase_2,stop,600.0,700.0,3.0,,,,,,,,,blue,diamond
0.0,3.0,2.0,0.0,6.0,6.0,562.7012519998971,8.0,1.0,phase_2,go,600.0,650.0,1.0,,,,,,,,,white,triangle
0.0,1.0,0.5,0.0,5.0,5.0,472.5653320001584,8.0,1.0,phase_2,go,600.0,650.0,1.0,,,,,,,,,cyan,flipped triangle
0.0,2.0,1.0,0.0,6.0,6.0,350.6597890000194,8.0,1.0,phase_2,go,600.0,650.0,1.0,,,,,,,,,gray,square
0.0,2.0,1.0,0.0,5.0,5.0,466.8765140004325,8.0,1.0,phase_2,go,600.0,650.0,1.0,,,,,,,,,gray,square
0.0,5.0,0.5,1.0,6.0,6.0,614.2137839997304,8.0,1.0,phase_2,stop,600.0,650.0,3.0,,,,,,,,,blue,diamond
0.0,6.0,1.0,1.0,5.0,5.0,672.4760030001562,8.0,1.0,phase_2,stop,600.0,600.0,3.0,,,,,,,,,yellow,I
0.0,2.0,1.0,0.0,5.0,5.0,660.9213969995835,8.0,1.0,phase_2,go,550.0,600.0,1.0,,,,,,,,,gray,square
0.0,5.0,0.5,1.0,5.0,5.0,336.67364299981267,8.0,1.0,phase_2,stop,550.0,600.0,3.0,,,,,,,,,blue,diamond
0.0,2.0,1.0,0.0,6.0,6.0,561.6676479994567,8.0,1.0,phase_2,go,500.0,600.0,1.0,,,,,,,,,gray,square
0.0,1.0,0.5,0.0,6.0,6.0,696.3381659998049,8.0,1.0,phase_2,go,500.0,600.0,1.0,,,,,,,,,cyan,flipped triangle
0.0,8.0,4.0,1.0,5.0,0.0,0.0,8.0,1.0,phase_2,stop,500.0,600.0,4.0,,,,,,,,,magenta,cross
0.0,8.0,4.0,1.0,5.0,0.0,0.0,8.0,1.0,phase_2,stop,550.0,600.0,4.0,,,,,,,,,magenta,cross
0.0,8.0,4.0,1.0,6.0,6.0,844.1162259996418,8.0,1.0,phase_2,go,600.0,600.0,1.0,,,,,,,,,magenta,cross
0.0,5.0,0.5,1.0,5.0,5.0,635.2164990003075,8.0,1.0,phase_2,stop,600.0,600.0,3.0,,,,,,,,,blue,diamond
0.0,5.0,0.5,1.0,5.0,0.0,0.0,8.0,1.0,phase_2,stop,550.0,600.0,4.0,,,,,,,,,blue,diamond
0.0,5.0,0.5,1.0,6.0,6.0,307.8144410001187,8.0,1.0,phase_2,stop,600.0,600.0,3.0,,,,,,,,,blue,diamond
0.0,4.0,4.0,0.0,6.0,6.0,413.6205380000319,8.0,1.0,phase_2,go,600.0,550.0,1.0,,,,,,,,,green,circle
0.0,2.0,1.0,0.0,6.0,6.0,338.3648869994431,8.0,1.0,phase_2,go,600.0,550.0,1.0,,,,,,,,,gray,square
0.0,5.0,0.5,1.0,6.0,6.0,290.5353529995409,8.0,1.0,phase_2,stop,600.0,550.0,3.0,,,,,,,,,blue,diamond
0.0,1.0,0.5,0.0,5.0,5.0,343.3837739994487,8.0,1.0,phase_2,go,600.0,500.0,1.0,,,,,,,,,cyan,flipped triangle
0.0,7.0,2.0,1.0,6.0,0.0,0.0,8.0,1.0,phase_2,stop,600.0,500.0,4.0,,,,,,,,,orange,hexagon
0.0,7.0,2.0,1.0,5.0,0.0,0.0,8.0,1.0,phase_2,stop,600.0,550.0,4.0,,,,,,,,,orange,hexagon
0.0,3.0,2.0,0.0,6.0,6.0,664.6373979992859,8.0,1.0,phase_2,go,650.0,550.0,1.0,,,,,,,,,white,triangle
0.0,7.0,2.0,1.0,6.0,0.0,0.0,8.0,1.0,phase_2,stop,650.0,550.0,4.0,,,,,,,,,orange,hexagon
0.0,3.0,2.0,0.0,5.0,5.0,833.59398399989,8.0,1.0,phase_2,go,650.0,600.0,1.0,,,,,,,,,white,triangle
0.0,4.0,4.0,0.0,5.0,5.0,777.3081239993189,8.0,1.0,phase_2,go,650.0,600.0,1.0,,,,,,,,,green,circle
0.0,2.0,1.0,0.0,6.0,6.0,519.5374140002968,8.0,1.0,phase_2,go,650.0,600.0,1.0,,,,,,,,,gray,square
0.0,3.0,2.0,0.0,5.0,5.0,598.105594000117,8.0,1.0,phase_2,go,650.0,600.0,1.0,,,,,,,,,white,triangle
0.0,7.0,2.0,1.0,5.0,0.0,0.0,8.0,1.0,phase_2,stop,650.0,600.0,4.0,,,,,,,,,orange,hexagon
0.0,6.0,1.0,1.0,6.0,6.0,739.547008000045,8.0,1.0,phase_2,stop,700.0,600.0,3.0,,,,,,,,,yellow,I
0.0,1.0,0.5,0.0,6.0,6.0,581.2550999999075,8.0,1.0,phase_2,go,700.0,550.0,1.0,,,,,,,,,cyan,flipped triangle
0.0,7.0,2.0,1.0,6.0,6.0,1089.4374300005438,8.0,1.0,phase_2,go,700.0,550.0,1.0,,,,,,,,,orange,hexagon
0.0,6.0,1.0,1.0,6.0,6.0,467.3308739993445,8.0,1.0,phase_2,stop,700.0,550.0,3.0,,,,,,,,,yellow,I
0.0,7.0,2.0,1.0,7.0,3.0,2890.8930130000954,1.0,1.0,phase_3,,,,,195.0,5.0,78.0,156.0,195.0,234.0,39.0,117.0,orange,hexagon
0.0,6.0,1.0,1.0,7.0,5.0,2573.06829800018,1.0,1.0,phase_3,,,,,294.0,6.0,147.0,49.0,196.0,98.0,294.0,245.0,yellow,I
0.0,1.0,0.5,0.0,7.0,5.0,1821.322376000353,1.0,1.0,phase_3,,,,,88.0,2.0,264.0,44.0,220.0,176.0,88.0,132.0,cyan,flipped triangle
0.0,2.0,1.0,0.0,7.0,4.0,950.6410829999368,1.0,1.0,phase_3,,,,,102.0,3.0,204.0,68.0,170.0,102.0,34.0,136.0,gray,square
0.0,5.0,0.5,1.0,7.0,2.0,2498.5945899998114,1.0,1.0,phase_3,,,,,49.0,1.0,98.0,49.0,147.0,245.0,196.0,294.0,blue,diamond
0.0,7.0,2.0,1.0,7.0,2.0,3558.683768999799,1.0,1.0,phase_3,,,,,162.0,3.0,216.0,162.0,324.0,54.0,270.0,108.0,orange,hexagon
0.0,5.0,0.5,1.0,7.0,6.0,1281.6709559992887,1.0,1.0,phase_3,,,,,39.0,1.0,156.0,78.0,195.0,234.0,117.0,39.0,blue,diamond
0.0,3.0,2.0,0.0,7.0,4.0,2342.541529999835,1.0,1.0,phase_3,,,,,170.0,5.0,136.0,102.0,68.0,170.0,204.0,34.0,white,triangle
0.0,2.0,1.0,0.0,7.0,1.0,708.1146809996426,1.0,1.0,phase_3,,,,,132.0,3.0,132.0,44.0,264.0,176.0,220.0,88.0,gray,square
0.0,7.0,2.0,1.0,7.0,5.0,1501.176409999971,1.0,1.0,phase_3,,,,,136.0,4.0,204.0,68.0,170.0,34.0,136.0,102.0,orange,hexagon
0.0,8.0,4.0,1.0,7.0,4.0,1927.671915999781,1.0,1.0,phase_3,,,,,234.0,6.0,195.0,117.0,156.0,234.0,39.0,78.0,magenta,cross
0.0,2.0,1.0,0.0,7.0,2.0,949.9810529996466,1.0,1.0,phase_3,,,,,54.0,1.0,108.0,54.0,216.0,324.0,270.0,162.0,gray,square
0.0,5.0,0.5,1.0,7.0,5.0,867.8935699999784,1.0,1.0,phase_3,,,,,220.0,5.0,264.0,44.0,88.0,176.0,220.0,132.0,blue,diamond
0.0,4.0,4.0,0.0,7.0,2.0,1606.2323659998583,1.0,1.0,phase_3,,,,,324.0,6.0,216.0,324.0,108.0,162.0,270.0,54.0,green,circle
0.0,6.0,1.0,1.0,7.0,3.0,2215.958191000027,1.0,1.0,phase_3,,,,,216.0,4.0,324.0,270.0,216.0,108.0,162.0,54.0,yellow,I
0.0,1.0,0.5,0.0,7.0,3.0,2046.8817710006988,1.0,1.0,phase_3,,,,,156.0,4.0,39.0,117.0,156.0,234.0,195.0,78.0,cyan,flipped triangle
0.0,3.0,2.0,0.0,7.0,1.0,3192.839556999388,1.0,1.0,phase_3,,,,,147.0,3.0,147.0,49.0,196.0,245.0,98.0,294.0,white,triangle
0.0,5.0,0.5,1.0,7.0,5.0,1565.255734000857,1.0,1.0,phase_3,,,,,132.0,3.0,264.0,88.0,44.0,176.0,132.0,220.0,blue,diamond
0.0,4.0,4.0,0.0,7.0,6.0,970.3890099999626,1.0,1.0,phase_3,,,,,264.0,6.0,176.0,88.0,44.0,220.0,132.0,264.0,green,circle
0.0,5.0,0.5,1.0,7.0,2.0,619.1137929999968,1.0,1.0,phase_3,,,,,162.0,3.0,54.0,162.0,108.0,270.0,216.0,324.0,blue,diamond
0.0,6.0,1.0,1.0,7.0,3.0,2018.162041999858,2.0,1.0,phase_3,,,,,204.0,6.0,102.0,136.0,204.0,68.0,34.0,170.0,yellow,I
0.0,8.0,4.0,1.0,7.0,5.0,1865.682736999588,2.0,1.0,phase_3,,,,,102.0,3.0,68.0,204.0,136.0,170.0,102.0,34.0,magenta,cross
0.0,8.0,4.0,1.0,7.0,3.0,1271.3775419997546,2.0,1.0,phase_3,,,,,324.0,6.0,108.0,216.0,324.0,54.0,162.0,270.0,magenta,cross
0.0,4.0,4.0,0.0,7.0,6.0,524.2433870007517,2.0,1.0,phase_3,,,,,234.0,6.0,117.0,78.0,39.0,156.0,195.0,234.0,green,circle
0.0,4.0,4.0,0.0,7.0,1.0,1186.9497360003152,2.0,1.0,phase_3,,,,,245.0,5.0,245.0,147.0,294.0,49.0,98.0,196.0,green,circle
0.0,4.0,4.0,0.0,7.0,5.0,1904.9515369997607,2.0,1.0,phase_3,,,,,195.0,5.0,39.0,78.0,117.0,156.0,195.0,234.0,green,circle
0.0,7.0,2.0,1.0,7.0,6.0,1614.6768839998913,2.0,1.0,phase_3,,,,,162.0,3.0,216.0,54.0,108.0,270.0,324.0,162.0,orange,hexagon
0.0,1.0,0.5,0.0,7.0,2.0,688.659325000117,2.0,1.0,phase_3,,,,,132.0,3.0,44.0,132.0,264.0,220.0,176.0,88.0,cyan,flipped triangle
0.0,6.0,1.0,1.0,7.0,5.0,790.7589830001598,2.0,1.0,phase_3,,,,,245.0,5.0,147.0,294.0,98.0,49.0,245.0,196.0,yellow,I
0.0,7.0,2.0,1.0,7.0,4.0,1050.9893589996864,2.0,1.0,phase_3,,,,,220.0,5.0,176.0,88.0,132.0,220.0,264.0,44.0,orange,hexagon
0.0,6.0,1.0,1.0,7.0,6.0,1624.074176999784,2.0,1.0,phase_3,,,,,216.0,4.0,270.0,54.0,162.0,108.0,324.0,216.0,yellow,I
0.0,2.0,1.0,0.0,7.0,4.0,1495.0716139992437,2.0,1.0,phase_3,,,,,170.0,5.0,68.0,136.0,34.0,170.0,102.0,204.0,gray,square
0.0,1.0,0.5,0.0,7.0,2.0,673.7302449992058,2.0,1.0,phase_3,,,,,108.0,2.0,162.0,108.0,54.0,270.0,216.0,324.0,cyan,flipped triangle
0.0,3.0,2.0,0.0,7.0,3.0,1206.9217459993524,2.0,1.0,phase_3,,,,,220.0,5.0,132.0,176.0,220.0,44.0,88.0,264.0,white,triangle
0.0,3.0,2.0,0.0,7.0,3.0,1946.2410149999412,2.0,1.0,phase_3,,,,,176.0,4.0,88.0,132.0,176.0,44.0,264.0,220.0,white,triangle
0.0,1.0,0.5,0.0,7.0,1.0,1611.053037999227,2.0,1.0,phase_3,,,,,147.0,3.0,147.0,196.0,294.0,49.0,98.0,245.0,cyan,flipped triangle
0.0,1.0,0.5,0.0,7.0,5.0,2264.544750000823,2.0,1.0,phase_3,,,,,68.0,2.0,136.0,204.0,102.0,170.0,68.0,34.0,cyan,flipped triangle
0.0,1.0,0.5,0.0,7.0,3.0,3742.4834840003314,2.0,1.0,phase_3,,,,,68.0,2.0,170.0,204.0,68.0,136.0,102.0,34.0,cyan,flipped triangle
0.0,3.0,2.0,0.0,7.0,2.0,2385.2907860000414,2.0,1.0,phase_3,,,,,136.0,4.0,34.0,136.0,170.0,102.0,204.0,68.0,white,triangle
0.0,7.0,2.0,1.0,7.0,5.0,2413.921069000025,2.0,1.0,phase_3,,,,,220.0,5.0,132.0,176.0,88.0,44.0,220.0,264.0,orange,hexagon
0.0,2.0,1.0,0.0,7.0,6.0,1322.0754650001254,3.0,1.0,phase_3,,,,,132.0,3.0,44.0,220.0,88.0,176.0,264.0,132.0,gray,square
0.0,6.0,1.0,1.0,7.0,1.0,1443.7744570004725,3.0,1.0,phase_3,,,,,234.0,6.0,234.0,117.0,195.0,156.0,39.0,78.0,yellow,I
0.0,6.0,1.0,1.0,7.0,3.0,1214.8471190002963,3.0,1.0,phase_3,,,,,264.0,6.0,132.0,176.0,264.0,220.0,88.0,44.0,yellow,I
0.0,1.0,0.5,0.0,7.0,5.0,611.0083990006387,3.0,1.0,phase_3,,,,,196.0,4.0,294.0,49.0,98.0,147.0,196.0,245.0,cyan,flipped triangle
0.0,1.0,0.5,0.0,7.0,5.0,2264.796063000176,3.0,1.0,phase_3,,,,,78.0,2.0,195.0,39.0,117.0,156.0,78.0,234.0,cyan,flipped triangle
0.0,5.0,0.5,1.0,7.0,6.0,1707.0710200005124,3.0,1.0,phase_3,,,,,147.0,3.0,294.0,245.0,98.0,49.0,196.0,147.0,blue,diamond
0.0,4.0,4.0,0.0,7.0,5.0,3757.1112289997473,3.0,1.0,phase_3,,,,,102.0,3.0,136.0,34.0,68.0,170.0,102.0,204.0,green,circle
0.0,3.0,2.0,0.0,7.0,4.0,1094.9254580000345,3.0,1.0,phase_3,,,,,156.0,4.0,78.0,234.0,39.0,156.0,117.0,195.0,white,triangle
0.0,5.0,0.5,1.0,7.0,2.0,2061.831242000153,3.0,1.0,phase_3,,,,,170.0,5.0,136.0,170.0,204.0,102.0,34.0,68.0,blue,diamond
0.0,8.0,4.0,1.0,7.0,3.0,1283.508411999719,3.0,1.0,phase_3,,,,,264.0,6.0,88.0,132.0,264.0,220.0,176.0,44.0,magenta,cross
0.0,5.0,0.5,1.0,7.0,1.0,2605.1768999996057,3.0,1.0,phase_3,,,,,117.0,3.0,117.0,234.0,195.0,156.0,39.0,78.0,blue,diamond
0.0,4.0,4.0,0.0,7.0,6.0,1019.3249539997851,3.0,1.0,phase_3,,,,,264.0,6.0,132.0,176.0,220.0,44.0,88.0,264.0,green,circle
0.0,7.0,2.0,1.0,7.0,4.0,751.4093219997449,3.0,1.0,phase_3,,,,,234.0,6.0,78.0,117.0,156.0,234.0,39.0,195.0,orange,hexagon
0.0,7.0,2.0,1.0,7.0,5.0,1475.7958139998664,3.0,1.0,phase_3,,,,,196.0,4.0,245.0,49.0,147.0,98.0,196.0,294.0,orange,hexagon
0.0,3.0,2.0,0.0,7.0,6.0,3179.941529999269,3.0,1.0,phase_3,,,,,98.0,2.0,294.0,147.0,196.0,49.0,245.0,98.0,white,triangle
0.0,2.0,1.0,0.0,7.0,2.0,1798.7916779993611,3.0,1.0,phase_3,,,,,147.0,3.0,196.0,147.0,49.0,294.0,245.0,98.0,gray,square
0.0,8.0,4.0,1.0,7.0,5.0,1562.7601890000733,3.0,1.0,phase_3,,,,,294.0,6.0,245.0,98.0,49.0,196.0,294.0,147.0,magenta,cross
0.0,2.0,1.0,0.0,7.0,3.0,972.7728019997812,3.0,1.0,phase_3,,,,,117.0,3.0,39.0,156.0,117.0,234.0,195.0,78.0,gray,square
0.0,3.0,2.0,0.0,7.0,3.0,2146.865663999961,3.0,1.0,phase_3,,,,,162.0,3.0,54.0,324.0,162.0,216.0,270.0,108.0,white,triangle
0.0,4.0,4.0,0.0,7.0,1.0,2028.9960870004502,3.0,1.0,phase_3,,,,,68.0,2.0,68.0,204.0,136.0,34.0,102.0,170.0,green,circle
0.0,2.0,1.0,0.0,7.0,5.0,610.6260639999164,4.0,1.0,phase_3,,,,,108.0,2.0,216.0,324.0,162.0,54.0,108.0,270.0,gray,square
0.0,3.0,2.0,0.0,7.0,3.0,763.181402000555,4.0,1.0,phase_3,,,,,162.0,3.0,270.0,216.0,162.0,54.0,324.0,108.0,white,triangle
0.0,5.0,0.5,1.0,7.0,6.0,617.8145160001804,4.0,1.0,phase_3,,,,,136.0,4.0,170.0,102.0,68.0,204.0,34.0,136.0,blue,diamond
0.0,6.0,1.0,1.0,7.0,3.0,573.0296170004294,4.0,1.0,phase_3,,,,,44.0,1.0,132.0,220.0,44.0,176.0,264.0,88.0,yellow,I
0.0,8.0,4.0,1.0,7.0,2.0,938.456406000114,4.0,1.0,phase_3,,,,,264.0,6.0,176.0,264.0,132.0,88.0,220.0,44.0,magenta,cross
0.0,8.0,4.0,1.0,7.0,5.0,708.6149119995753,4.0,1.0,phase_3,,,,,294.0,6.0,196.0,245.0,49.0,147.0,294.0,98.0,magenta,cross
0.0,8.0,4.0,1.0,7.0,4.0,914.1489240000736,4.0,1.0,phase_3,,,,,102.0,3.0,68.0,136.0,204.0,102.0,170.0,34.0,magenta,cross
0.0,2.0,1.0,0.0,7.0,6.0,1161.8104150002182,4.0,1.0,phase_3,,,,,147.0,3.0,245.0,294.0,196.0,49.0,98.0,147.0,gray,square
0.0,7.0,2.0,1.0,7.0,3.0,1012.0775929999579,4.0,1.0,phase_3,,,,,204.0,6.0,136.0,34.0,204.0,170.0,102.0,68.0,orange,hexagon
0.0,6.0,1.0,1.0,7.0,5.0,1556.7094400003043,4.0,1.0,phase_3,,,,,117.0,3.0,78.0,156.0,195.0,39.0,117.0,234.0,yellow,I
0.0,7.0,2.0,1.0,7.0,2.0,2349.598560000232,4.0,1.0,phase_3,,,,,196.0,4.0,147.0,196.0,245.0,98.0,49.0,294.0,orange,hexagon
0.0,8.0,4.0,1.0,7.0,3.0,983.978678999847,4.0,1.0,phase_3,,,,,117.0,3.0,78.0,156.0,117.0,234.0,195.0,39.0,magenta,cross
0.0,1.0,0.5,0.0,7.0,5.0,1481.8181989994628,4.0,1.0,phase_3,,,,,108.0,2.0,162.0,270.0,216.0,324.0,108.0,54.0,cyan,flipped triangle
0.0,2.0,1.0,0.0,7.0,1.0,1148.7191389996951,4.0,1.0,phase_3,,,,,117.0,3.0,117.0,39.0,156.0,78.0,234.0,195.0,gray,square
0.0,4.0,4.0,0.0,7.0,5.0,2827.488750000157,4.0,1.0,phase_3,,,,,270.0,5.0,324.0,54.0,216.0,108.0,270.0,162.0,green,circle
0.0,4.0,4.0,0.0,7.0,2.0,1546.47394299991,4.0,1.0,phase_3,,,,,49.0,1.0,98.0,49.0,196.0,147.0,294.0,245.0,green,circle
0.0,3.0,2.0,0.0,7.0,3.0,2776.438624000548,4.0,1.0,phase_3,,,,,156.0,4.0,39.0,78.0,156.0,234.0,195.0,117.0,white,triangle
0.0,6.0,1.0,1.0,7.0,2.0,1016.1898249998558,4.0,1.0,phase_3,,,,,204.0,6.0,102.0,204.0,136.0,34.0,68.0,170.0,yellow,I
0.0,5.0,0.5,1.0,7.0,1.0,1489.9869509999917,4.0,1.0,phase_3,,,,,108.0,2.0,108.0,54.0,270.0,324.0,162.0,216.0,blue,diamond
0.0,8.0,4.0,1.0,7.0,4.0,2078.484347000085,4.0,1.0,phase_3,,,,,162.0,3.0,54.0,216.0,324.0,162.0,108.0,270.0,magenta,cross
