raw_reward_magnitude,stim_reward,stepwise_reward_magnitude,paired_with_stopping,quadrant,response,reaction_time,block,num_trial_presentations,which_part,stop_signal_trial_type,left_SSD,right_SSD,accuracy,chosen_bidding_amount,chosen_bidding_level,possible_bid_1,possible_bid_2,possible_bid_3,possible_bid_4,possible_bid_5,possible_bid_6,color_text,shape_text
0.0,6.0,0.0,1.0,3.0,3.0,408.9115070000844,1.0,1.0,part_1,,,,,,,,,,,,,yellow,cross
222.0,7.0,3.0,1.0,4.0,4.0,375.3489079999781,1.0,1.0,part_1,,,,,,,,,,,,,green,flipped triangle
377.0,4.0,4.0,0.0,4.0,4.0,270.4617420004069,1.0,1.0,part_1,,,,,,,,,,,,,magenta,diamond
0.0,2.0,0.0,0.0,1.0,1.0,274.1978710000694,1.0,1.0,part_1,,,,,,,,,,,,,blue,circle
382.0,8.0,4.0,1.0,1.0,1.0,299.7213469998314,1.0,1.0,part_1,,,,,,,,,,,,,orange,square
424.0,4.0,4.0,0.0,4.0,4.0,242.7777410002818,1.0,1.0,part_1,,,,,,,,,,,,,magenta,diamond
66.0,5.0,1.0,1.0,2.0,2.0,297.2912699997323,1.0,1.0,part_1,,,,,,,,,,,,,white,triangle
191.0,3.0,3.0,0.0,3.0,3.0,291.4507130008132,1.0,1.0,part_1,,,,,,,,,,,,,gray,hexagon
0.0,3.0,0.0,0.0,1.0,1.0,324.7159210004611,1.0,1.0,part_1,,,,,,,,,,,,,gray,hexagon
0.0,1.0,0.0,0.0,1.0,1.0,325.1082010001482,1.0,1.0,part_1,,,,,,,,,,,,,cyan,I
60.0,1.0,1.0,0.0,2.0,2.0,283.6361580002631,1.0,1.0,part_1,,,,,,,,,,,,,cyan,I
0.0,3.0,0.0,0.0,3.0,3.0,290.3342390000034,1.0,1.0,part_1,,,,,,,,,,,,,gray,hexagon
48.0,5.0,1.0,1.0,2.0,2.0,281.4883030005148,1.0,1.0,part_1,,,,,,,,,,,,,white,triangle
0.0,2.0,0.0,0.0,4.0,4.0,294.3618110002717,1.0,1.0,part_1,,,,,,,,,,,,,blue,circle
0.0,5.0,0.0,1.0,3.0,3.0,241.4707480002107,1.0,1.0,part_1,,,,,,,,,,,,,white,triangle
42.0,1.0,1.0,0.0,2.0,2.0,267.6627910004754,1.0,1.0,part_1,,,,,,,,,,,,,cyan,I
0.0,3.0,0.0,0.0,2.0,2.0,302.948151000237,1.0,1.0,part_1,,,,,,,,,,,,,gray,hexagon
0.0,6.0,0.0,1.0,2.0,2.0,293.645853000271,1.0,1.0,part_1,,,,,,,,,,,,,yellow,cross
87.0,6.0,2.0,1.0,1.0,1.0,256.5007279999918,1.0,1.0,part_1,,,,,,,,,,,,,yellow,cross
108.0,6.0,2.0,1.0,2.0,2.0,353.7438350003867,1.0,1.0,part_1,,,,,,,,,,,,,yellow,cross
45.0,1.0,1.0,0.0,3.0,3.0,300.7489599995097,1.0,1.0,part_1,,,,,,,,,,,,,cyan,I
81.0,2.0,2.0,0.0,2.0,2.0,272.7591680004479,1.0,1.0,part_1,,,,,,,,,,,,,blue,circle
99.0,2.0,2.0,0.0,3.0,3.0,334.8778879999372,1.0,1.0,part_1,,,,,,,,,,,,,blue,circle
47.0,5.0,1.0,1.0,2.0,2.0,311.7698270007167,1.0,1.0,part_1,,,,,,,,,,,,,white,triangle
388.0,4.0,4.0,0.0,1.0,1.0,287.3580629993739,1.0,1.0,part_1,,,,,,,,,,,,,magenta,diamond
180.0,7.0,3.0,1.0,3.0,3.0,292.4109719997432,1.0,1.0,part_1,,,,,,,,,,,,,green,flipped triangle
89.0,6.0,2.0,1.0,4.0,4.0,296.3011029996778,1.0,1.0,part_1,,,,,,,,,,,,,yellow,cross
212.0,3.0,3.0,0.0,3.0,3.0,315.3312570002526,1.0,1.0,part_1,,,,,,,,,,,,,gray,hexagon
207.0,3.0,3.0,0.0,2.0,2.0,241.1457719999816,1.0,1.0,part_1,,,,,,,,,,,,,gray,hexagon
59.0,5.0,1.0,1.0,3.0,3.0,294.2188970000643,1.0,1.0,part_1,,,,,,,,,,,,,white,triangle
0.0,5.0,0.0,1.0,2.0,2.0,316.004864000206,1.0,1.0,part_1,,,,,,,,,,,,,white,triangle
121.0,6.0,2.0,1.0,4.0,4.0,250.90045899924007,1.0,1.0,part_1,,,,,,,,,,,,,yellow,cross
0.0,4.0,0.0,0.0,3.0,3.0,292.0567909995952,1.0,1.0,part_1,,,,,,,,,,,,,magenta,diamond
56.0,5.0,1.0,1.0,4.0,4.0,321.5738620001502,1.0,1.0,part_1,,,,,,,,,,,,,white,triangle
118.0,2.0,2.0,0.0,1.0,1.0,307.0547930001339,1.0,1.0,part_1,,,,,,,,,,,,,blue,circle
194.0,7.0,3.0,1.0,1.0,1.0,313.5084089999509,1.0,1.0,part_1,,,,,,,,,,,,,green,flipped triangle
0.0,1.0,0.0,0.0,2.0,2.0,304.3531579996852,1.0,1.0,part_1,,,,,,,,,,,,,cyan,I
0.0,7.0,0.0,1.0,2.0,2.0,249.9807639997016,1.0,1.0,part_1,,,,,,,,,,,,,green,flipped triangle
400.0,4.0,4.0,0.0,1.0,1.0,283.2538349994138,1.0,1.0,part_1,,,,,,,,,,,,,magenta,diamond
401.0,8.0,4.0,1.0,2.0,2.0,263.8038169998253,1.0,1.0,part_1,,,,,,,,,,,,,orange,square
398.0,4.0,4.0,0.0,4.0,4.0,268.4710439998525,1.0,1.0,part_1,,,,,,,,,,,,,magenta,diamond
83.0,2.0,2.0,0.0,2.0,2.0,375.5797089997941,1.0,1.0,part_1,,,,,,,,,,,,,blue,circle
121.0,2.0,2.0,0.0,3.0,3.0,240.662956000051,1.0,1.0,part_1,,,,,,,,,,,,,blue,circle
420.0,4.0,4.0,0.0,1.0,1.0,253.3650059995125,1.0,1.0,part_1,,,,,,,,,,,,,magenta,diamond
402.0,4.0,4.0,0.0,3.0,3.0,283.1028079999669,1.0,1.0,part_1,,,,,,,,,,,,,magenta,diamond
35.0,5.0,1.0,1.0,3.0,3.0,306.7467009996107,1.0,1.0,part_1,,,,,,,,,,,,,white,triangle
412.0,4.0,4.0,0.0,2.0,2.0,219.3769320001592,1.0,1.0,part_1,,,,,,,,,,,,,magenta,diamond
81.0,2.0,2.0,0.0,3.0,3.0,294.4306130002587,1.0,1.0,part_1,,,,,,,,,,,,,blue,circle
86.0,6.0,2.0,1.0,2.0,2.0,266.8636719999995,1.0,1.0,part_1,,,,,,,,,,,,,yellow,cross
0.0,5.0,0.0,1.0,4.0,4.0,262.3636179996538,1.0,1.0,part_1,,,,,,,,,,,,,white,triangle
32.0,5.0,1.0,1.0,3.0,3.0,282.9452050000327,1.0,1.0,part_1,,,,,,,,,,,,,white,triangle
181.0,3.0,3.0,0.0,4.0,4.0,307.4548340000547,1.0,1.0,part_1,,,,,,,,,,,,,gray,hexagon
56.0,1.0,1.0,0.0,4.0,4.0,271.646812999279,1.0,1.0,part_1,,,,,,,,,,,,,cyan,I
383.0,4.0,4.0,0.0,4.0,4.0,248.0879200002164,1.0,1.0,part_1,,,,,,,,,,,,,magenta,diamond
78.0,2.0,2.0,0.0,1.0,1.0,259.0363189992786,1.0,1.0,part_1,,,,,,,,,,,,,blue,circle
202.0,3.0,3.0,0.0,3.0,3.0,223.3161819995075,1.0,1.0,part_1,,,,,,,,,,,,,gray,hexagon
111.0,2.0,2.0,0.0,4.0,4.0,275.0431670001489,1.0,1.0,part_1,,,,,,,,,,,,,blue,circle
0.0,5.0,0.0,1.0,2.0,2.0,224.7003599995878,1.0,1.0,part_1,,,,,,,,,,,,,white,triangle
98.0,2.0,2.0,0.0,3.0,3.0,240.458197999942,1.0,1.0,part_1,,,,,,,,,,,,,blue,circle
184.0,7.0,3.0,1.0,1.0,1.0,299.6642769994651,1.0,1.0,part_1,,,,,,,,,,,,,green,flipped triangle
98.0,6.0,2.0,1.0,3.0,3.0,270.6826879993969,1.0,1.0,part_1,,,,,,,,,,,,,yellow,cross
178.0,3.0,3.0,0.0,2.0,2.0,254.51024499943742,1.0,1.0,part_1,,,,,,,,,,,,,gray,hexagon
78.0,6.0,2.0,1.0,1.0,1.0,305.3996649996406,1.0,1.0,part_1,,,,,,,,,,,,,yellow,cross
205.0,3.0,3.0,0.0,2.0,2.0,288.3785229996647,1.0,1.0,part_1,,,,,,,,,,,,,gray,hexagon
109.0,6.0,2.0,1.0,4.0,4.0,295.6888929993511,1.0,1.0,part_1,,,,,,,,,,,,,yellow,cross
217.0,3.0,3.0,0.0,4.0,4.0,304.6713300000192,1.0,1.0,part_1,,,,,,,,,,,,,gray,hexagon
0.0,7.0,0.0,1.0,2.0,2.0,272.1885770006338,1.0,1.0,part_1,,,,,,,,,,,,,green,flipped triangle
52.0,5.0,1.0,1.0,3.0,3.0,251.6183389998332,1.0,1.0,part_1,,,,,,,,,,,,,white,triangle
94.0,2.0,2.0,0.0,2.0,2.0,285.8839520004039,1.0,1.0,part_1,,,,,,,,,,,,,blue,circle
217.0,3.0,3.0,0.0,3.0,3.0,244.2113039996911,1.0,1.0,part_1,,,,,,,,,,,,,gray,hexagon
0.0,6.0,0.0,1.0,2.0,2.0,267.7565320000212,1.0,1.0,part_1,,,,,,,,,,,,,yellow,cross
214.0,3.0,3.0,0.0,1.0,1.0,335.7404270000188,1.0,1.0,part_1,,,,,,,,,,,,,gray,hexagon
421.0,4.0,4.0,0.0,3.0,3.0,238.5482539993972,1.0,1.0,part_1,,,,,,,,,,,,,magenta,diamond
75.0,5.0,1.0,1.0,1.0,1.0,329.444138999861,1.0,2.0,part_1,,,,,,,,,,,,,white,triangle
0.0,3.0,0.0,0.0,2.0,2.0,362.5657180000416,1.0,1.0,part_1,,,,,,,,,,,,,gray,hexagon
123.0,6.0,2.0,1.0,3.0,3.0,298.741358999905,1.0,1.0,part_1,,,,,,,,,,,,,yellow,cross
418.0,8.0,4.0,1.0,1.0,1.0,340.6040350000694,1.0,1.0,part_1,,,,,,,,,,,,,orange,square
37.0,1.0,1.0,0.0,4.0,4.0,354.3145749999894,1.0,1.0,part_1,,,,,,,,,,,,,cyan,I
33.0,1.0,1.0,0.0,3.0,3.0,297.1804630005863,1.0,1.0,part_1,,,,,,,,,,,,,cyan,I
421.0,8.0,4.0,1.0,2.0,2.0,245.9137379992171,1.0,1.0,part_1,,,,,,,,,,,,,orange,square
412.0,8.0,4.0,1.0,2.0,2.0,320.0289790001989,1.0,1.0,part_1,,,,,,,,,,,,,orange,square
0.0,8.0,0.0,1.0,2.0,2.0,276.1514370004079,1.0,1.0,part_1,,,,,,,,,,,,,orange,square
53.0,5.0,1.0,1.0,3.0,3.0,292.1831169996949,1.0,1.0,part_1,,,,,,,,,,,,,white,triangle
77.0,2.0,2.0,0.0,4.0,4.0,309.0199879998181,1.0,1.0,part_1,,,,,,,,,,,,,blue,circle
412.0,8.0,4.0,1.0,3.0,3.0,338.3417120003287,1.0,1.0,part_1,,,,,,,,,,,,,orange,square
0.0,2.0,0.0,0.0,4.0,4.0,383.9878899998439,1.0,1.0,part_1,,,,,,,,,,,,,blue,circle
193.0,3.0,3.0,0.0,4.0,4.0,357.9920550000679,1.0,1.0,part_1,,,,,,,,,,,,,gray,hexagon
96.0,6.0,2.0,1.0,2.0,2.0,314.3275119991813,1.0,1.0,part_1,,,,,,,,,,,,,yellow,cross
0.0,6.0,0.0,1.0,1.0,1.0,300.7026859995676,1.0,1.0,part_1,,,,,,,,,,,,,yellow,cross
103.0,6.0,2.0,1.0,4.0,4.0,296.0939389995474,1.0,1.0,part_1,,,,,,,,,,,,,yellow,cross
187.0,7.0,3.0,1.0,3.0,3.0,319.8170610003217,1.0,1.0,part_1,,,,,,,,,,,,,green,flipped triangle
387.0,8.0,4.0,1.0,4.0,4.0,281.1047120003422,1.0,1.0,part_1,,,,,,,,,,,,,orange,square
221.0,3.0,3.0,0.0,1.0,1.0,338.6280089998763,1.0,1.0,part_1,,,,,,,,,,,,,gray,hexagon
394.0,8.0,4.0,1.0,3.0,3.0,358.8646150001295,1.0,1.0,part_1,,,,,,,,,,,,,orange,square
217.0,3.0,3.0,0.0,2.0,2.0,283.8360669993562,1.0,1.0,part_1,,,,,,,,,,,,,gray,hexagon
44.0,5.0,1.0,1.0,4.0,4.0,297.0451450000837,1.0,1.0,part_1,,,,,,,,,,,,,white,triangle
48.0,1.0,1.0,0.0,1.0,1.0,325.8043980004004,1.0,1.0,part_1,,,,,,,,,,,,,cyan,I
121.0,6.0,2.0,1.0,4.0,4.0,337.486813000396,1.0,1.0,part_1,,,,,,,,,,,,,yellow,cross
29.0,1.0,1.0,0.0,1.0,1.0,271.9520189994,1.0,1.0,part_1,,,,,,,,,,,,,cyan,I
380.0,4.0,4.0,0.0,2.0,2.0,304.0165390002585,1.0,1.0,part_1,,,,,,,,,,,,,magenta,diamond
389.0,4.0,4.0,0.0,4.0,4.0,364.7970900001382,2.0,1.0,part_1,,,,,,,,,,,,,magenta,diamond
219.0,3.0,3.0,0.0,4.0,4.0,385.2594070003761,2.0,1.0,part_1,,,,,,,,,,,,,gray,hexagon
402.0,8.0,4.0,1.0,3.0,3.0,246.2852489998113,2.0,1.0,part_1,,,,,,,,,,,,,orange,square
398.0,4.0,4.0,0.0,3.0,3.0,311.5124949999881,2.0,1.0,part_1,,,,,,,,,,,,,magenta,diamond
0.0,6.0,0.0,1.0,2.0,2.0,263.8533690005715,2.0,1.0,part_1,,,,,,,,,,,,,yellow,cross
111.0,6.0,2.0,1.0,3.0,3.0,280.8843759994488,2.0,1.0,part_1,,,,,,,,,,,,,yellow,cross
186.0,3.0,3.0,0.0,3.0,3.0,286.5327579993391,2.0,1.0,part_1,,,,,,,,,,,,,gray,hexagon
177.0,3.0,3.0,0.0,3.0,3.0,280.5525250005303,2.0,1.0,part_1,,,,,,,,,,,,,gray,hexagon
47.0,1.0,1.0,0.0,1.0,1.0,281.775063999703,2.0,1.0,part_1,,,,,,,,,,,,,cyan,I
404.0,4.0,4.0,0.0,3.0,3.0,287.8245649999371,2.0,1.0,part_1,,,,,,,,,,,,,magenta,diamond
86.0,2.0,2.0,0.0,1.0,1.0,350.4726880000817,2.0,1.0,part_1,,,,,,,,,,,,,blue,circle
420.0,4.0,4.0,0.0,1.0,1.0,377.1141510005691,2.0,1.0,part_1,,,,,,,,,,,,,magenta,diamond
0.0,4.0,0.0,0.0,3.0,3.0,286.7140459993607,2.0,1.0,part_1,,,,,,,,,,,,,magenta,diamond
0.0,7.0,0.0,1.0,1.0,1.0,313.0884310003239,2.0,1.0,part_1,,,,,,,,,,,,,green,flipped triangle
0.0,6.0,0.0,1.0,4.0,4.0,464.9733510004807,2.0,1.0,part_1,,,,,,,,,,,,,yellow,cross
0.0,7.0,0.0,1.0,2.0,2.0,250.397621999582,2.0,1.0,part_1,,,,,,,,,,,,,green,flipped triangle
398.0,8.0,4.0,1.0,4.0,4.0,405.4474040003697,2.0,1.0,part_1,,,,,,,,,,,,,orange,square
121.0,2.0,2.0,0.0,3.0,3.0,332.2696100003668,2.0,1.0,part_1,,,,,,,,,,,,,blue,circle
83.0,2.0,2.0,0.0,4.0,4.0,262.1464339999875,2.0,1.0,part_1,,,,,,,,,,,,,blue,circle
222.0,3.0,3.0,0.0,3.0,3.0,309.3005290002111,2.0,1.0,part_1,,,,,,,,,,,,,gray,hexagon
0.0,1.0,0.0,0.0,1.0,1.0,281.215512000017,2.0,1.0,part_1,,,,,,,,,,,,,cyan,I
105.0,6.0,2.0,1.0,3.0,3.0,329.9383980001948,2.0,1.0,part_1,,,,,,,,,,,,,yellow,cross
41.0,1.0,1.0,0.0,2.0,2.0,297.1714340001199,2.0,1.0,part_1,,,,,,,,,,,,,cyan,I
0.0,6.0,0.0,1.0,3.0,3.0,261.1450980002701,2.0,1.0,part_1,,,,,,,,,,,,,yellow,cross
0.0,3.0,0.0,0.0,2.0,2.0,272.0938720003687,2.0,1.0,part_1,,,,,,,,,,,,,gray,hexagon
103.0,2.0,2.0,0.0,4.0,4.0,270.8173700002589,2.0,1.0,part_1,,,,,,,,,,,,,blue,circle
116.0,2.0,2.0,0.0,2.0,2.0,281.9205069999952,2.0,1.0,part_1,,,,,,,,,,,,,blue,circle
404.0,4.0,4.0,0.0,4.0,4.0,379.3498329996509,2.0,1.0,part_1,,,,,,,,,,,,,magenta,diamond
114.0,6.0,2.0,1.0,2.0,2.0,358.7779160006903,2.0,1.0,part_1,,,,,,,,,,,,,yellow,cross
222.0,3.0,3.0,0.0,4.0,4.0,421.0722420002639,2.0,1.0,part_1,,,,,,,,,,,,,gray,hexagon
389.0,4.0,4.0,0.0,1.0,1.0,307.2931699998662,2.0,1.0,part_1,,,,,,,,,,,,,magenta,diamond
0.0,2.0,0.0,0.0,1.0,1.0,318.5868290001963,2.0,1.0,part_1,,,,,,,,,,,,,blue,circle
219.0,7.0,3.0,1.0,4.0,4.0,396.2720909994459,2.0,1.0,part_1,,,,,,,,,,,,,green,flipped triangle
0.0,3.0,0.0,0.0,2.0,2.0,320.5224970006384,2.0,1.0,part_1,,,,,,,,,,,,,gray,hexagon
217.0,7.0,3.0,1.0,3.0,3.0,283.5094669999307,2.0,1.0,part_1,,,,,,,,,,,,,green,flipped triangle
66.0,5.0,1.0,1.0,1.0,1.0,288.8368399999308,2.0,1.0,part_1,,,,,,,,,,,,,white,triangle
177.0,7.0,3.0,1.0,4.0,4.0,298.233634999633,2.0,1.0,part_1,,,,,,,,,,,,,green,flipped triangle
42.0,5.0,1.0,1.0,2.0,2.0,242.8410599995913,2.0,1.0,part_1,,,,,,,,,,,,,white,triangle
187.0,3.0,3.0,0.0,3.0,3.0,252.8924009993716,2.0,1.0,part_1,,,,,,,,,,,,,gray,hexagon
35.0,1.0,1.0,0.0,2.0,2.0,264.9883320000299,2.0,1.0,part_1,,,,,,,,,,,,,cyan,I
418.0,4.0,4.0,0.0,3.0,3.0,345.5218449998938,2.0,1.0,part_1,,,,,,,,,,,,,magenta,diamond
194.0,7.0,3.0,1.0,2.0,2.0,425.4829929996049,2.0,1.0,part_1,,,,,,,,,,,,,green,flipped triangle
63.0,5.0,1.0,1.0,4.0,4.0,317.5737090004986,2.0,1.0,part_1,,,,,,,,,,,,,white,triangle
36.0,1.0,1.0,0.0,2.0,2.0,274.8040080005012,2.0,1.0,part_1,,,,,,,,,,,,,cyan,I
79.0,6.0,2.0,1.0,4.0,4.0,455.4676280004059,2.0,1.0,part_1,,,,,,,,,,,,,yellow,cross
42.0,5.0,1.0,1.0,3.0,3.0,317.5236259994562,2.0,1.0,part_1,,,,,,,,,,,,,white,triangle
0.0,7.0,0.0,1.0,3.0,3.0,316.4972529993974,2.0,1.0,part_1,,,,,,,,,,,,,green,flipped triangle
0.0,4.0,0.0,0.0,4.0,4.0,394.2686939999476,2.0,1.0,part_1,,,,,,,,,,,,,magenta,diamond
221.0,7.0,3.0,1.0,1.0,1.0,310.0366799999392,2.0,1.0,part_1,,,,,,,,,,,,,green,flipped triangle
199.0,3.0,3.0,0.0,1.0,1.0,385.994797999956,2.0,1.0,part_1,,,,,,,,,,,,,gray,hexagon
103.0,6.0,2.0,1.0,3.0,3.0,307.1561309998287,2.0,1.0,part_1,,,,,,,,,,,,,yellow,cross
202.0,3.0,3.0,0.0,2.0,2.0,236.4089740003692,2.0,1.0,part_1,,,,,,,,,,,,,gray,hexagon
62.0,1.0,1.0,0.0,1.0,1.0,286.6073000004689,2.0,1.0,part_1,,,,,,,,,,,,,cyan,I
124.0,2.0,2.0,0.0,2.0,2.0,254.5468919997802,2.0,1.0,part_1,,,,,,,,,,,,,blue,circle
404.0,8.0,4.0,1.0,1.0,1.0,355.0396750006257,2.0,1.0,part_1,,,,,,,,,,,,,orange,square
220.0,7.0,3.0,1.0,2.0,2.0,250.36102700050827,2.0,1.0,part_1,,,,,,,,,,,,,green,flipped triangle
418.0,8.0,4.0,1.0,4.0,4.0,277.85095299987,2.0,1.0,part_1,,,,,,,,,,,,,orange,square
420.0,8.0,4.0,1.0,1.0,1.0,259.1481589997784,2.0,1.0,part_1,,,,,,,,,,,,,orange,square
391.0,8.0,4.0,1.0,3.0,3.0,270.2116640002714,2.0,1.0,part_1,,,,,,,,,,,,,orange,square
83.0,6.0,2.0,1.0,1.0,1.0,272.614526000325,2.0,1.0,part_1,,,,,,,,,,,,,yellow,cross
0.0,2.0,0.0,0.0,1.0,1.0,346.0775319999811,2.0,1.0,part_1,,,,,,,,,,,,,blue,circle
66.0,1.0,1.0,0.0,4.0,4.0,307.9443219994573,2.0,1.0,part_1,,,,,,,,,,,,,cyan,I
121.0,2.0,2.0,0.0,4.0,4.0,344.3062699998336,2.0,1.0,part_1,,,,,,,,,,,,,blue,circle
60.0,5.0,1.0,1.0,4.0,4.0,351.1269640002865,2.0,1.0,part_1,,,,,,,,,,,,,white,triangle
118.0,6.0,2.0,1.0,2.0,2.0,312.7778680000119,2.0,1.0,part_1,,,,,,,,,,,,,yellow,cross
32.0,1.0,1.0,0.0,2.0,2.0,297.8968349998467,2.0,1.0,part_1,,,,,,,,,,,,,cyan,I
53.0,1.0,1.0,0.0,3.0,3.0,307.7874649998193,2.0,1.0,part_1,,,,,,,,,,,,,cyan,I
424.0,8.0,4.0,1.0,2.0,2.0,238.6979240000073,2.0,1.0,part_1,,,,,,,,,,,,,orange,square
384.0,8.0,4.0,1.0,4.0,4.0,463.3923429992137,2.0,1.0,part_1,,,,,,,,,,,,,orange,square
37.0,1.0,1.0,0.0,1.0,1.0,315.4851690005671,2.0,1.0,part_1,,,,,,,,,,,,,cyan,I
220.0,3.0,3.0,0.0,2.0,2.0,283.7125429996376,2.0,1.0,part_1,,,,,,,,,,,,,gray,hexagon
125.0,6.0,2.0,1.0,4.0,4.0,287.4266149992763,2.0,1.0,part_1,,,,,,,,,,,,,yellow,cross
202.0,7.0,3.0,1.0,4.0,4.0,324.5586889997867,2.0,1.0,part_1,,,,,,,,,,,,,green,flipped triangle
413.0,8.0,4.0,1.0,4.0,4.0,346.5518800003337,2.0,1.0,part_1,,,,,,,,,,,,,orange,square
0.0,2.0,0.0,0.0,4.0,4.0,298.3317040007023,2.0,1.0,part_1,,,,,,,,,,,,,blue,circle
73.0,1.0,1.0,0.0,2.0,2.0,327.3570589999508,2.0,1.0,part_1,,,,,,,,,,,,,cyan,I
87.0,2.0,2.0,0.0,2.0,2.0,352.8958920005607,2.0,1.0,part_1,,,,,,,,,,,,,blue,circle
377.0,8.0,4.0,1.0,3.0,3.0,548.1168109999999,2.0,1.0,part_1,,,,,,,,,,,,,orange,square
101.0,6.0,2.0,1.0,1.0,1.0,267.7317329998914,2.0,1.0,part_1,,,,,,,,,,,,,yellow,cross
176.0,7.0,3.0,1.0,3.0,3.0,331.8772180000451,2.0,1.0,part_1,,,,,,,,,,,,,green,flipped triangle
395.0,8.0,4.0,1.0,2.0,2.0,279.8446150000018,2.0,1.0,part_1,,,,,,,,,,,,,orange,square
222.0,7.0,3.0,1.0,4.0,4.0,368.5764980000385,2.0,1.0,part_1,,,,,,,,,,,,,green,flipped triangle
0.0,5.0,0.0,1.0,1.0,1.0,340.7825400008732,2.0,1.0,part_1,,,,,,,,,,,,,white,triangle
413.0,4.0,4.0,0.0,3.0,3.0,282.8717239999605,2.0,1.0,part_1,,,,,,,,,,,,,magenta,diamond
194.0,3.0,3.0,0.0,1.0,1.0,258.1220510001003,2.0,1.0,part_1,,,,,,,,,,,,,gray,hexagon
48.0,5.0,1.0,1.0,4.0,4.0,327.4522420006178,2.0,1.0,part_1,,,,,,,,,,,,,white,triangle
189.0,7.0,3.0,1.0,2.0,2.0,290.5099109993898,2.0,1.0,part_1,,,,,,,,,,,,,green,flipped triangle
0.0,4.0,0.0,0.0,1.0,1.0,305.750132999492,2.0,1.0,part_1,,,,,,,,,,,,,magenta,diamond
75.0,1.0,1.0,0.0,1.0,1.0,315.2659260003929,2.0,1.0,part_1,,,,,,,,,,,,,cyan,I
114.0,2.0,2.0,0.0,2.0,2.0,321.0763879997103,2.0,1.0,part_1,,,,,,,,,,,,,blue,circle
222.0,7.0,3.0,1.0,1.0,1.0,261.6948340000817,2.0,1.0,part_1,,,,,,,,,,,,,green,flipped triangle
34.0,5.0,1.0,1.0,2.0,2.0,264.8926959991513,2.0,1.0,part_1,,,,,,,,,,,,,white,triangle
0.0,8.0,0.0,1.0,3.0,3.0,273.78590599983,2.0,1.0,part_1,,,,,,,,,,,,,orange,square
0.0,4.0,0.0,0.0,2.0,2.0,316.857462000371,2.0,1.0,part_1,,,,,,,,,,,,,magenta,diamond
0.0,1.0,0.0,0.0,1.0,1.0,228.3734789998561,2.0,1.0,part_1,,,,,,,,,,,,,cyan,I
116.0,6.0,2.0,1.0,2.0,2.0,246.2988859997494,2.0,1.0,part_1,,,,,,,,,,,,,yellow,cross
125.0,2.0,2.0,0.0,1.0,1.0,276.5865950004809,2.0,1.0,part_1,,,,,,,,,,,,,blue,circle
198.0,7.0,3.0,1.0,3.0,3.0,458.1981050005197,2.0,1.0,part_1,,,,,,,,,,,,,green,flipped triangle
55.0,5.0,1.0,1.0,4.0,4.0,261.7716120003024,2.0,1.0,part_1,,,,,,,,,,,,,white,triangle
403.0,8.0,4.0,1.0,1.0,1.0,322.6972090005802,2.0,1.0,part_1,,,,,,,,,,,,,orange,square
105.0,2.0,2.0,0.0,3.0,3.0,325.2638760004629,3.0,1.0,part_1,,,,,,,,,,,,,blue,circle
395.0,4.0,4.0,0.0,2.0,2.0,293.4233259993561,3.0,1.0,part_1,,,,,,,,,,,,,magenta,diamond
83.0,6.0,2.0,1.0,3.0,3.0,290.3717819999656,3.0,1.0,part_1,,,,,,,,,,,,,yellow,cross
0.0,5.0,0.0,1.0,1.0,1.0,275.0017240005036,3.0,1.0,part_1,,,,,,,,,,,,,white,triangle
186.0,7.0,3.0,1.0,4.0,4.0,309.140397000192,3.0,1.0,part_1,,,,,,,,,,,,,green,flipped triangle
176.0,3.0,3.0,0.0,1.0,1.0,292.245646000083,3.0,1.0,part_1,,,,,,,,,,,,,gray,hexagon
187.0,3.0,3.0,0.0,2.0,2.0,293.9728609999292,3.0,1.0,part_1,,,,,,,,,,,,,gray,hexagon
0.0,4.0,0.0,0.0,1.0,1.0,245.3936940000858,3.0,1.0,part_1,,,,,,,,,,,,,magenta,diamond
424.0,8.0,4.0,1.0,4.0,4.0,277.6526670004386,3.0,1.0,part_1,,,,,,,,,,,,,orange,square
179.0,7.0,3.0,1.0,1.0,1.0,261.904799000149,3.0,1.0,part_1,,,,,,,,,,,,,green,flipped triangle
397.0,8.0,4.0,1.0,3.0,3.0,279.9037109998608,3.0,1.0,part_1,,,,,,,,,,,,,orange,square
0.0,4.0,0.0,0.0,4.0,4.0,324.9172310006543,3.0,1.0,part_1,,,,,,,,,,,,,magenta,diamond
383.0,8.0,4.0,1.0,1.0,1.0,221.6017920000013,3.0,1.0,part_1,,,,,,,,,,,,,orange,square
93.0,6.0,2.0,1.0,3.0,3.0,307.2642079996512,3.0,1.0,part_1,,,,,,,,,,,,,yellow,cross
207.0,7.0,3.0,1.0,2.0,2.0,297.8546899994398,3.0,1.0,part_1,,,,,,,,,,,,,green,flipped triangle
73.0,5.0,1.0,1.0,1.0,1.0,372.1967520004909,3.0,1.0,part_1,,,,,,,,,,,,,white,triangle
213.0,3.0,3.0,0.0,4.0,4.0,307.9186980003214,3.0,1.0,part_1,,,,,,,,,,,,,gray,hexagon
37.0,5.0,1.0,1.0,2.0,2.0,282.7529750002213,3.0,1.0,part_1,,,,,,,,,,,,,white,triangle
180.0,3.0,3.0,0.0,4.0,4.0,288.5536350004258,3.0,1.0,part_1,,,,,,,,,,,,,gray,hexagon
46.0,5.0,1.0,1.0,1.0,1.0,207.2034840002743,3.0,1.0,part_1,,,,,,,,,,,,,white,triangle
377.0,4.0,4.0,0.0,3.0,3.0,275.3640870005256,3.0,1.0,part_1,,,,,,,,,,,,,magenta,diamond
384.0,4.0,4.0,0.0,4.0,4.0,310.1213270001608,3.0,1.0,part_1,,,,,,,,,,,,,magenta,diamond
79.0,6.0,2.0,1.0,2.0,2.0,263.912886000071,3.0,1.0,part_1,,,,,,,,,,,,,yellow,cross
379.0,8.0,4.0,1.0,1.0,1.0,243.8086610000027,3.0,1.0,part_1,,,,,,,,,,,,,orange,square
0.0,6.0,0.0,1.0,3.0,3.0,210.1791009999942,3.0,1.0,part_1,,,,,,,,,,,,,yellow,cross
393.0,4.0,4.0,0.0,3.0,3.0,373.6087600000246,3.0,1.0,part_1,,,,,,,,,,,,,magenta,diamond
0.0,1.0,0.0,0.0,2.0,2.0,365.8458770005381,3.0,1.0,part_1,,,,,,,,,,,,,cyan,I
382.0,8.0,4.0,1.0,3.0,3.0,300.2298769997651,3.0,1.0,part_1,,,,,,,,,,,,,orange,square
222.0,3.0,3.0,0.0,1.0,1.0,291.7029339996588,3.0,1.0,part_1,,,,,,,,,,,,,gray,hexagon
33.0,5.0,1.0,1.0,2.0,2.0,241.182662999563,3.0,1.0,part_1,,,,,,,,,,,,,white,triangle
199.0,7.0,3.0,1.0,2.0,2.0,294.0171270001883,3.0,1.0,part_1,,,,,,,,,,,,,green,flipped triangle
98.0,6.0,2.0,1.0,3.0,3.0,312.2103389996482,3.0,1.0,part_1,,,,,,,,,,,,,yellow,cross
0.0,6.0,0.0,1.0,1.0,1.0,261.4291979998597,3.0,1.0,part_1,,,,,,,,,,,,,yellow,cross
0.0,8.0,0.0,1.0,1.0,1.0,367.2907860000123,3.0,1.0,part_1,,,,,,,,,,,,,orange,square
0.0,8.0,0.0,1.0,3.0,3.0,258.996415999718,3.0,1.0,part_1,,,,,,,,,,,,,orange,square
94.0,6.0,2.0,1.0,2.0,2.0,235.2133780004806,3.0,1.0,part_1,,,,,,,,,,,,,yellow,cross
387.0,4.0,4.0,0.0,1.0,1.0,323.9824559996123,3.0,1.0,part_1,,,,,,,,,,,,,magenta,diamond
39.0,5.0,1.0,1.0,2.0,2.0,309.9930429998494,3.0,1.0,part_1,,,,,,,,,,,,,white,triangle
203.0,3.0,3.0,0.0,2.0,2.0,249.95442100043869,3.0,1.0,part_1,,,,,,,,,,,,,gray,hexagon
66.0,1.0,1.0,0.0,4.0,4.0,362.0846200001324,3.0,1.0,part_1,,,,,,,,,,,,,cyan,I
77.0,6.0,2.0,1.0,1.0,1.0,293.9390849996925,3.0,1.0,part_1,,,,,,,,,,,,,yellow,cross
393.0,8.0,4.0,1.0,3.0,3.0,310.9054790002119,3.0,1.0,part_1,,,,,,,,,,,,,orange,square
67.0,1.0,1.0,0.0,3.0,3.0,383.5722119993079,3.0,1.0,part_1,,,,,,,,,,,,,cyan,I
212.0,7.0,3.0,1.0,3.0,3.0,297.9043839995938,3.0,1.0,part_1,,,,,,,,,,,,,green,flipped triangle
423.0,4.0,4.0,0.0,2.0,2.0,243.6208919998534,3.0,1.0,part_1,,,,,,,,,,,,,magenta,diamond
0.0,8.0,0.0,1.0,2.0,2.0,295.3254710000692,3.0,1.0,part_1,,,,,,,,,,,,,orange,square
74.0,5.0,1.0,1.0,4.0,4.0,374.5330060000924,3.0,1.0,part_1,,,,,,,,,,,,,white,triangle
105.0,6.0,2.0,1.0,3.0,3.0,257.7088570005799,3.0,1.0,part_1,,,,,,,,,,,,,yellow,cross
397.0,4.0,4.0,0.0,2.0,2.0,238.9888190000419,3.0,1.0,part_1,,,,,,,,,,,,,magenta,diamond
38.0,5.0,1.0,1.0,2.0,2.0,305.1226830002633,3.0,1.0,part_1,,,,,,,,,,,,,white,triangle
45.0,5.0,1.0,1.0,1.0,1.0,266.8071359994428,3.0,1.0,part_1,,,,,,,,,,,,,white,triangle
377.0,8.0,4.0,1.0,4.0,4.0,312.5695400003678,3.0,1.0,part_1,,,,,,,,,,,,,orange,square
206.0,3.0,3.0,0.0,1.0,1.0,326.8610420000186,3.0,1.0,part_1,,,,,,,,,,,,,gray,hexagon
79.0,2.0,2.0,0.0,2.0,2.0,279.7690440002043,3.0,1.0,part_1,,,,,,,,,,,,,blue,circle
0.0,1.0,0.0,0.0,1.0,1.0,298.3405420000053,3.0,1.0,part_1,,,,,,,,,,,,,cyan,I
68.0,1.0,1.0,0.0,1.0,1.0,357.1036800003639,3.0,1.0,part_1,,,,,,,,,,,,,cyan,I
220.0,3.0,3.0,0.0,4.0,4.0,335.0832619998982,3.0,1.0,part_1,,,,,,,,,,,,,gray,hexagon
0.0,4.0,0.0,0.0,2.0,2.0,241.2334929995268,3.0,1.0,part_1,,,,,,,,,,,,,magenta,diamond
93.0,2.0,2.0,0.0,2.0,2.0,256.3752930000191,3.0,1.0,part_1,,,,,,,,,,,,,blue,circle
0.0,5.0,0.0,1.0,1.0,1.0,274.4334620001609,3.0,1.0,part_1,,,,,,,,,,,,,white,triangle
67.0,5.0,1.0,1.0,1.0,1.0,300.1946500007761,3.0,1.0,part_1,,,,,,,,,,,,,white,triangle
0.0,8.0,0.0,1.0,3.0,3.0,264.6176349999223,3.0,1.0,part_1,,,,,,,,,,,,,orange,square
77.0,2.0,2.0,0.0,4.0,4.0,316.3081689999671,3.0,1.0,part_1,,,,,,,,,,,,,blue,circle
55.0,1.0,1.0,0.0,2.0,2.0,282.5319670000681,3.0,1.0,part_1,,,,,,,,,,,,,cyan,I
74.0,1.0,1.0,0.0,1.0,1.0,261.8745400004627,3.0,1.0,part_1,,,,,,,,,,,,,cyan,I
382.0,4.0,4.0,0.0,2.0,2.0,241.2283370003933,3.0,1.0,part_1,,,,,,,,,,,,,magenta,diamond
101.0,2.0,2.0,0.0,1.0,1.0,336.2985349995142,3.0,1.0,part_1,,,,,,,,,,,,,blue,circle
77.0,6.0,2.0,1.0,1.0,1.0,319.5795020001242,3.0,1.0,part_1,,,,,,,,,,,,,yellow,cross
0.0,3.0,0.0,0.0,2.0,2.0,278.4964399997989,3.0,1.0,part_1,,,,,,,,,,,,,gray,hexagon
0.0,5.0,0.0,1.0,1.0,1.0,249.1397720004897,3.0,1.0,part_1,,,,,,,,,,,,,white,triangle
46.0,1.0,1.0,0.0,4.0,4.0,315.1979579997714,3.0,1.0,part_1,,,,,,,,,,,,,cyan,I
202.0,3.0,3.0,0.0,1.0,1.0,344.7847199995522,3.0,1.0,part_1,,,,,,,,,,,,,gray,hexagon
0.0,2.0,0.0,0.0,4.0,4.0,378.7430100001074,3.0,1.0,part_1,,,,,,,,,,,,,blue,circle
79.0,2.0,2.0,0.0,1.0,1.0,311.7332780002471,3.0,1.0,part_1,,,,,,,,,,,,,blue,circle
406.0,4.0,4.0,0.0,3.0,3.0,270.8849140008169,3.0,1.0,part_1,,,,,,,,,,,,,magenta,diamond
105.0,2.0,2.0,0.0,2.0,2.0,269.5804550003231,3.0,1.0,part_1,,,,,,,,,,,,,blue,circle
0.0,1.0,0.0,0.0,4.0,4.0,369.8358389992791,3.0,1.0,part_1,,,,,,,,,,,,,cyan,I
380.0,8.0,4.0,1.0,2.0,2.0,295.3781539999909,3.0,1.0,part_1,,,,,,,,,,,,,orange,square
0.0,5.0,0.0,1.0,4.0,4.0,269.3910460002371,3.0,1.0,part_1,,,,,,,,,,,,,white,triangle
37.0,5.0,1.0,1.0,1.0,1.0,243.0556300005264,3.0,1.0,part_1,,,,,,,,,,,,,white,triangle
70.0,5.0,1.0,1.0,3.0,3.0,260.0600330006273,3.0,1.0,part_1,,,,,,,,,,,,,white,triangle
42.0,1.0,1.0,0.0,3.0,3.0,319.5826850005687,3.0,2.0,part_1,,,,,,,,,,,,,cyan,I
0.0,3.0,0.0,0.0,3.0,3.0,322.2060119996968,3.0,1.0,part_1,,,,,,,,,,,,,gray,hexagon
98.0,6.0,2.0,1.0,2.0,2.0,353.4976990003997,3.0,1.0,part_1,,,,,,,,,,,,,yellow,cross
178.0,7.0,3.0,1.0,4.0,4.0,421.8713710006341,3.0,1.0,part_1,,,,,,,,,,,,,green,flipped triangle
0.0,3.0,0.0,0.0,1.0,1.0,326.8844300000637,3.0,1.0,part_1,,,,,,,,,,,,,gray,hexagon
0.0,8.0,0.0,1.0,4.0,4.0,316.991949000112,3.0,1.0,part_1,,,,,,,,,,,,,orange,square
68.0,5.0,1.0,1.0,2.0,2.0,270.8809690002454,3.0,1.0,part_1,,,,,,,,,,,,,white,triangle
89.0,2.0,2.0,0.0,4.0,4.0,287.5517490001584,3.0,1.0,part_1,,,,,,,,,,,,,blue,circle
56.0,5.0,1.0,1.0,4.0,4.0,393.6012520007352,3.0,1.0,part_1,,,,,,,,,,,,,white,triangle
123.0,2.0,2.0,0.0,1.0,1.0,302.2160059999805,3.0,1.0,part_1,,,,,,,,,,,,,blue,circle
36.0,5.0,1.0,1.0,4.0,4.0,309.9272419995031,3.0,1.0,part_1,,,,,,,,,,,,,white,triangle
62.0,5.0,1.0,1.0,3.0,3.0,304.3349339995984,3.0,1.0,part_1,,,,,,,,,,,,,white,triangle
194.0,3.0,3.0,0.0,1.0,1.0,427.3288219992537,3.0,1.0,part_1,,,,,,,,,,,,,gray,hexagon
59.0,1.0,1.0,0.0,3.0,3.0,305.2788489994782,3.0,1.0,part_1,,,,,,,,,,,,,cyan,I
181.0,7.0,3.0,1.0,1.0,1.0,393.2385080006497,3.0,1.0,part_1,,,,,,,,,,,,,green,flipped triangle
193.0,7.0,3.0,1.0,1.0,1.0,364.3179930004407,3.0,1.0,part_1,,,,,,,,,,,,,green,flipped triangle
72.0,1.0,1.0,0.0,1.0,1.0,313.5146909999093,3.0,1.0,part_1,,,,,,,,,,,,,cyan,I
205.0,7.0,3.0,1.0,4.0,4.0,286.6050390002783,3.0,1.0,part_1,,,,,,,,,,,,,green,flipped triangle
124.0,2.0,2.0,0.0,4.0,4.0,378.2034610003393,3.0,1.0,part_1,,,,,,,,,,,,,blue,circle
384.0,4.0,4.0,0.0,4.0,4.0,408.1729440003983,4.0,1.0,part_1,,,,,,,,,,,,,magenta,diamond
179.0,3.0,3.0,0.0,2.0,2.0,257.7994849998504,4.0,1.0,part_1,,,,,,,,,,,,,gray,hexagon
39.0,1.0,1.0,0.0,3.0,3.0,252.0113029995627,4.0,1.0,part_1,,,,,,,,,,,,,cyan,I
400.0,8.0,4.0,1.0,1.0,1.0,249.5568459999049,4.0,1.0,part_1,,,,,,,,,,,,,orange,square
94.0,2.0,2.0,0.0,3.0,3.0,288.9053519993467,4.0,1.0,part_1,,,,,,,,,,,,,blue,circle
0.0,7.0,0.0,1.0,2.0,2.0,220.691104999787,4.0,1.0,part_1,,,,,,,,,,,,,green,flipped triangle
203.0,7.0,3.0,1.0,3.0,3.0,259.6636500002205,4.0,1.0,part_1,,,,,,,,,,,,,green,flipped triangle
0.0,7.0,0.0,1.0,3.0,3.0,351.2808360001145,4.0,1.0,part_1,,,,,,,,,,,,,green,flipped triangle
406.0,8.0,4.0,1.0,2.0,2.0,263.0366280000089,4.0,1.0,part_1,,,,,,,,,,,,,orange,square
394.0,4.0,4.0,0.0,2.0,2.0,393.0440569993152,4.0,1.0,part_1,,,,,,,,,,,,,magenta,diamond
52.0,1.0,1.0,0.0,4.0,4.0,298.6987819995192,4.0,1.0,part_1,,,,,,,,,,,,,cyan,I
194.0,7.0,3.0,1.0,4.0,4.0,321.1410009998872,4.0,1.0,part_1,,,,,,,,,,,,,green,flipped triangle
51.0,1.0,1.0,0.0,3.0,3.0,304.0773149996312,4.0,1.0,part_1,,,,,,,,,,,,,cyan,I
98.0,2.0,2.0,0.0,3.0,3.0,291.6075080001974,4.0,1.0,part_1,,,,,,,,,,,,,blue,circle
401.0,4.0,4.0,0.0,1.0,1.0,259.01119399986777,4.0,1.0,part_1,,,,,,,,,,,,,magenta,diamond
48.0,1.0,1.0,0.0,3.0,3.0,324.3306550002671,4.0,1.0,part_1,,,,,,,,,,,,,cyan,I
0.0,1.0,0.0,0.0,2.0,2.0,247.6619299995945,4.0,1.0,part_1,,,,,,,,,,,,,cyan,I
96.0,2.0,2.0,0.0,1.0,1.0,287.0892170003571,4.0,1.0,part_1,,,,,,,,,,,,,blue,circle
418.0,4.0,4.0,0.0,2.0,2.0,314.7687580003548,4.0,1.0,part_1,,,,,,,,,,,,,magenta,diamond
34.0,1.0,1.0,0.0,4.0,4.0,306.2077849999696,4.0,1.0,part_1,,,,,,,,,,,,,cyan,I
81.0,6.0,2.0,1.0,1.0,1.0,301.7432169999665,4.0,1.0,part_1,,,,,,,,,,,,,yellow,cross
44.0,1.0,1.0,0.0,2.0,2.0,245.9837480000715,4.0,1.0,part_1,,,,,,,,,,,,,cyan,I
384.0,8.0,4.0,1.0,4.0,4.0,318.0052119996617,4.0,1.0,part_1,,,,,,,,,,,,,orange,square
103.0,2.0,2.0,0.0,3.0,3.0,278.2151760002307,4.0,1.0,part_1,,,,,,,,,,,,,blue,circle
0.0,2.0,0.0,0.0,3.0,3.0,298.52243500045,4.0,1.0,part_1,,,,,,,,,,,,,blue,circle
0.0,5.0,0.0,1.0,1.0,1.0,332.7517440002339,4.0,1.0,part_1,,,,,,,,,,,,,white,triangle
36.0,5.0,1.0,1.0,3.0,3.0,311.5794099994673,4.0,1.0,part_1,,,,,,,,,,,,,white,triangle
0.0,8.0,0.0,1.0,3.0,3.0,314.5754669994858,4.0,1.0,part_1,,,,,,,,,,,,,orange,square
424.0,4.0,4.0,0.0,1.0,1.0,397.4753480006257,4.0,1.0,part_1,,,,,,,,,,,,,magenta,diamond
189.0,3.0,3.0,0.0,4.0,4.0,319.4465739998122,4.0,1.0,part_1,,,,,,,,,,,,,gray,hexagon
198.0,3.0,3.0,0.0,3.0,3.0,306.6418099997463,4.0,1.0,part_1,,,,,,,,,,,,,gray,hexagon
220.0,7.0,3.0,1.0,1.0,1.0,328.3639299997958,4.0,1.0,part_1,,,,,,,,,,,,,green,flipped triangle
101.0,6.0,2.0,1.0,2.0,2.0,387.8890439991664,4.0,1.0,part_1,,,,,,,,,,,,,yellow,cross
0.0,7.0,0.0,1.0,1.0,1.0,350.7698020002863,4.0,1.0,part_1,,,,,,,,,,,,,green,flipped triangle
202.0,7.0,3.0,1.0,1.0,1.0,467.7472860003036,4.0,1.0,part_1,,,,,,,,,,,,,green,flipped triangle
389.0,8.0,4.0,1.0,2.0,2.0,303.1266440002582,4.0,1.0,part_1,,,,,,,,,,,,,orange,square
179.0,7.0,3.0,1.0,2.0,2.0,280.25888799948,4.0,1.0,part_1,,,,,,,,,,,,,green,flipped triangle
0.0,4.0,0.0,0.0,4.0,4.0,402.0181569994747,4.0,1.0,part_1,,,,,,,,,,,,,magenta,diamond
0.0,2.0,0.0,0.0,4.0,4.0,398.558067000522,4.0,1.0,part_1,,,,,,,,,,,,,blue,circle
0.0,1.0,0.0,0.0,3.0,3.0,307.078965999608,4.0,1.0,part_1,,,,,,,,,,,,,cyan,I
0.0,1.0,0.0,0.0,2.0,2.0,244.5315620007022,4.0,1.0,part_1,,,,,,,,,,,,,cyan,I
420.0,8.0,4.0,1.0,1.0,1.0,306.1163530001067,4.0,1.0,part_1,,,,,,,,,,,,,orange,square
70.0,1.0,1.0,0.0,3.0,3.0,297.7165440006502,4.0,1.0,part_1,,,,,,,,,,,,,cyan,I
0.0,7.0,0.0,1.0,1.0,1.0,312.2451600002023,4.0,1.0,part_1,,,,,,,,,,,,,green,flipped triangle
176.0,7.0,3.0,1.0,2.0,2.0,262.9228570003761,4.0,1.0,part_1,,,,,,,,,,,,,green,flipped triangle
391.0,4.0,4.0,0.0,1.0,1.0,278.1157360004727,4.0,1.0,part_1,,,,,,,,,,,,,magenta,diamond
108.0,2.0,2.0,0.0,3.0,3.0,321.858252000311,4.0,1.0,part_1,,,,,,,,,,,,,blue,circle
51.0,5.0,1.0,1.0,1.0,1.0,346.2832810000691,4.0,1.0,part_1,,,,,,,,,,,,,white,triangle
41.0,5.0,1.0,1.0,1.0,1.0,408.838045000266,4.0,1.0,part_1,,,,,,,,,,,,,white,triangle
403.0,4.0,4.0,0.0,4.0,4.0,347.1934709996276,4.0,1.0,part_1,,,,,,,,,,,,,magenta,diamond
81.0,6.0,2.0,1.0,4.0,4.0,348.5348450003585,4.0,1.0,part_1,,,,,,,,,,,,,yellow,cross
184.0,3.0,3.0,0.0,1.0,1.0,329.0785290000713,4.0,1.0,part_1,,,,,,,,,,,,,gray,hexagon
194.0,3.0,3.0,0.0,2.0,2.0,313.4656530000939,4.0,1.0,part_1,,,,,,,,,,,,,gray,hexagon
63.0,1.0,1.0,0.0,4.0,4.0,313.3825709992379,4.0,1.0,part_1,,,,,,,,,,,,,cyan,I
389.0,8.0,4.0,1.0,2.0,2.0,253.17645500035718,4.0,1.0,part_1,,,,,,,,,,,,,orange,square
179.0,3.0,3.0,0.0,3.0,3.0,282.9429220000747,4.0,1.0,part_1,,,,,,,,,,,,,gray,hexagon
32.0,1.0,1.0,0.0,4.0,4.0,313.6790879998443,4.0,1.0,part_1,,,,,,,,,,,,,cyan,I
202.0,7.0,3.0,1.0,4.0,4.0,310.3760969997893,4.0,1.0,part_1,,,,,,,,,,,,,green,flipped triangle
187.0,7.0,3.0,1.0,3.0,3.0,286.8044359993291,4.0,1.0,part_1,,,,,,,,,,,,,green,flipped triangle
213.0,7.0,3.0,1.0,1.0,1.0,256.3627689996792,4.0,1.0,part_1,,,,,,,,,,,,,green,flipped triangle
404.0,8.0,4.0,1.0,2.0,2.0,199.8318559999461,4.0,1.0,part_1,,,,,,,,,,,,,orange,square
99.0,6.0,2.0,1.0,4.0,4.0,283.6443550004333,4.0,1.0,part_1,,,,,,,,,,,,,yellow,cross
124.0,6.0,2.0,1.0,1.0,1.0,321.9094189998941,4.0,1.0,part_1,,,,,,,,,,,,,yellow,cross
0.0,3.0,0.0,0.0,4.0,4.0,380.7538469991414,4.0,2.0,part_1,,,,,,,,,,,,,gray,hexagon
176.0,3.0,3.0,0.0,4.0,4.0,353.6275679998653,4.0,1.0,part_1,,,,,,,,,,,,,gray,hexagon
124.0,6.0,2.0,1.0,1.0,1.0,392.1085140000286,4.0,1.0,part_1,,,,,,,,,,,,,yellow,cross
423.0,8.0,4.0,1.0,4.0,4.0,380.7310549991598,4.0,1.0,part_1,,,,,,,,,,,,,orange,square
388.0,8.0,4.0,1.0,3.0,3.0,359.4704970000748,4.0,1.0,part_1,,,,,,,,,,,,,orange,square
206.0,7.0,3.0,1.0,3.0,3.0,361.2205320005159,4.0,1.0,part_1,,,,,,,,,,,,,green,flipped triangle
214.0,7.0,3.0,1.0,2.0,2.0,278.067240999917,4.0,1.0,part_1,,,,,,,,,,,,,green,flipped triangle
405.0,8.0,4.0,1.0,3.0,3.0,319.5562380005867,4.0,1.0,part_1,,,,,,,,,,,,,orange,square
38.0,1.0,1.0,0.0,4.0,4.0,325.353017999987,4.0,1.0,part_1,,,,,,,,,,,,,cyan,I
0.0,8.0,0.0,1.0,2.0,2.0,225.7823139998436,4.0,1.0,part_1,,,,,,,,,,,,,orange,square
398.0,8.0,4.0,1.0,4.0,4.0,330.1458800006003,4.0,1.0,part_1,,,,,,,,,,,,,orange,square
56.0,1.0,1.0,0.0,2.0,2.0,548.6594929998319,4.0,1.0,part_1,,,,,,,,,,,,,cyan,I
109.0,2.0,2.0,0.0,4.0,4.0,378.6547279996739,4.0,1.0,part_1,,,,,,,,,,,,,blue,circle
32.0,5.0,1.0,1.0,4.0,4.0,362.540101000377,4.0,1.0,part_1,,,,,,,,,,,,,white,triangle
121.0,6.0,2.0,1.0,3.0,3.0,283.845349999865,4.0,1.0,part_1,,,,,,,,,,,,,yellow,cross
191.0,7.0,3.0,1.0,3.0,3.0,347.075333000248,4.0,1.0,part_1,,,,,,,,,,,,,green,flipped triangle
409.0,4.0,4.0,0.0,2.0,2.0,252.90676199983858,4.0,1.0,part_1,,,,,,,,,,,,,magenta,diamond
0.0,6.0,0.0,1.0,2.0,2.0,365.7819309992192,4.0,1.0,part_1,,,,,,,,,,,,,yellow,cross
409.0,8.0,4.0,1.0,1.0,1.0,355.6294840000191,4.0,1.0,part_1,,,,,,,,,,,,,orange,square
412.0,4.0,4.0,0.0,3.0,3.0,290.6635359995562,4.0,1.0,part_1,,,,,,,,,,,,,magenta,diamond
85.0,2.0,2.0,0.0,1.0,1.0,361.6237370006274,4.0,1.0,part_1,,,,,,,,,,,,,blue,circle
101.0,2.0,2.0,0.0,4.0,4.0,334.6689300005891,4.0,1.0,part_1,,,,,,,,,,,,,blue,circle
36.0,1.0,1.0,0.0,1.0,1.0,279.5528000006015,4.0,1.0,part_1,,,,,,,,,,,,,cyan,I
217.0,7.0,3.0,1.0,2.0,2.0,309.2449870000564,4.0,1.0,part_1,,,,,,,,,,,,,green,flipped triangle
0.0,4.0,0.0,0.0,3.0,3.0,293.1015909998677,4.0,1.0,part_1,,,,,,,,,,,,,magenta,diamond
72.0,5.0,1.0,1.0,3.0,3.0,315.4458559993145,4.0,1.0,part_1,,,,,,,,,,,,,white,triangle
85.0,6.0,2.0,1.0,1.0,1.0,322.9770210000424,4.0,1.0,part_1,,,,,,,,,,,,,yellow,cross
98.0,2.0,2.0,0.0,1.0,1.0,331.9285140005377,4.0,1.0,part_1,,,,,,,,,,,,,blue,circle
217.0,7.0,3.0,1.0,2.0,2.0,327.3890970003776,4.0,1.0,part_1,,,,,,,,,,,,,green,flipped triangle
379.0,4.0,4.0,0.0,4.0,4.0,417.8607270005159,4.0,1.0,part_1,,,,,,,,,,,,,magenta,diamond
0.0,2.0,0.0,0.0,4.0,4.0,587.8526989999955,4.0,1.0,part_1,,,,,,,,,,,,,blue,circle
29.0,5.0,1.0,1.0,1.0,1.0,352.5509589999274,4.0,1.0,part_1,,,,,,,,,,,,,white,triangle
94.0,6.0,2.0,1.0,4.0,4.0,318.6872460000813,4.0,1.0,part_1,,,,,,,,,,,,,yellow,cross
0.0,8.0,0.0,1.0,1.0,1.0,337.2868409996954,4.0,1.0,part_1,,,,,,,,,,,,,orange,square
0.0,7.0,0.0,1.0,2.0,2.0,302.9727069997534,4.0,1.0,part_1,,,,,,,,,,,,,green,flipped triangle
405.0,4.0,4.0,0.0,1.0,1.0,290.3392729995175,4.0,1.0,part_1,,,,,,,,,,,,,magenta,diamond
382.0,4.0,4.0,0.0,2.0,2.0,323.9915969998037,4.0,1.0,part_1,,,,,,,,,,,,,magenta,diamond
0.0,6.0,2.0,1.0,5.0,5.0,389.92026200048707,1.0,0.0,part_2,go,250.0,250.0,1.0,,,,,,,,,yellow,cross
0.0,3.0,3.0,0.0,6.0,6.0,597.8160869999556,1.0,0.0,part_2,go,250.0,250.0,1.0,,,,,,,,,gray,hexagon
0.0,8.0,4.0,1.0,6.0,0.0,0.0,1.0,0.0,part_2,stop,250.0,250.0,4.0,,,,,,,,,orange,square
0.0,5.0,1.0,1.0,6.0,0.0,0.0,1.0,0.0,part_2,stop,250.0,300.0,4.0,,,,,,,,,white,triangle
0.0,1.0,1.0,0.0,6.0,6.0,585.6141020003633,1.0,0.0,part_2,go,250.0,350.0,1.0,,,,,,,,,cyan,I
0.0,2.0,2.0,0.0,5.0,5.0,605.0899589999972,1.0,0.0,part_2,go,250.0,350.0,1.0,,,,,,,,,blue,circle
0.0,4.0,4.0,0.0,6.0,6.0,730.6807109998772,1.0,0.0,part_2,go,250.0,350.0,1.0,,,,,,,,,magenta,diamond
0.0,6.0,2.0,1.0,6.0,6.0,482.2210729998915,1.0,0.0,part_2,stop,250.0,350.0,3.0,,,,,,,,,yellow,cross
0.0,5.0,1.0,1.0,5.0,0.0,0.0,1.0,0.0,part_2,stop,250.0,300.0,4.0,,,,,,,,,white,triangle
0.0,7.0,3.0,1.0,6.0,0.0,0.0,1.0,0.0,part_2,stop,300.0,300.0,4.0,,,,,,,,,green,flipped triangle
0.0,2.0,2.0,0.0,6.0,6.0,658.063418999518,1.0,0.0,part_2,go,300.0,350.0,1.0,,,,,,,,,blue,circle
0.0,4.0,4.0,0.0,6.0,6.0,652.5368390002768,1.0,0.0,part_2,go,300.0,350.0,1.0,,,,,,,,,magenta,diamond
0.0,7.0,3.0,1.0,5.0,0.0,0.0,1.0,0.0,part_2,stop,300.0,350.0,4.0,,,,,,,,,green,flipped triangle
0.0,3.0,3.0,0.0,5.0,5.0,784.1037399994093,1.0,0.0,part_2,go,350.0,350.0,1.0,,,,,,,,,gray,hexagon
0.0,6.0,2.0,1.0,5.0,0.0,0.0,1.0,0.0,part_2,stop,350.0,350.0,4.0,,,,,,,,,yellow,cross
0.0,5.0,1.0,1.0,5.0,0.0,0.0,1.0,0.0,part_2,stop,400.0,350.0,4.0,,,,,,,,,white,triangle
0.0,5.0,1.0,1.0,6.0,0.0,0.0,1.0,0.0,part_2,stop,450.0,350.0,4.0,,,,,,,,,white,triangle
0.0,4.0,4.0,0.0,6.0,6.0,724.7776869999143,1.0,0.0,part_2,go,450.0,400.0,1.0,,,,,,,,,magenta,diamond
0.0,2.0,2.0,0.0,5.0,5.0,729.097591000027,1.0,0.0,part_2,go,450.0,400.0,1.0,,,,,,,,,blue,circle
0.0,2.0,2.0,0.0,6.0,6.0,586.8502410003202,1.0,0.0,part_2,go,450.0,400.0,1.0,,,,,,,,,blue,circle
0.0,8.0,4.0,1.0,5.0,5.0,639.5889320001515,1.0,0.0,part_2,go,450.0,400.0,1.0,,,,,,,,,orange,square
0.0,1.0,1.0,0.0,6.0,6.0,768.0513819996122,1.0,0.0,part_2,go,450.0,400.0,1.0,,,,,,,,,cyan,I
0.0,7.0,3.0,1.0,6.0,0.0,0.0,1.0,0.0,part_2,stop,450.0,400.0,4.0,,,,,,,,,green,flipped triangle
0.0,3.0,3.0,0.0,6.0,6.0,623.9801019992228,1.0,0.0,part_2,go,450.0,450.0,1.0,,,,,,,,,gray,hexagon
0.0,3.0,3.0,0.0,6.0,6.0,601.5556310003376,1.0,0.0,part_2,go,450.0,450.0,1.0,,,,,,,,,gray,hexagon
0.0,4.0,4.0,0.0,6.0,6.0,745.9761119998802,1.0,0.0,part_2,go,450.0,450.0,1.0,,,,,,,,,magenta,diamond
0.0,6.0,2.0,1.0,5.0,5.0,695.1199499999348,1.0,0.0,part_2,go,450.0,450.0,1.0,,,,,,,,,yellow,cross
0.0,6.0,2.0,1.0,5.0,5.0,561.5278650002438,1.0,0.0,part_2,go,450.0,450.0,1.0,,,,,,,,,yellow,cross
0.0,8.0,4.0,1.0,6.0,0.0,0.0,1.0,0.0,part_2,stop,450.0,450.0,4.0,,,,,,,,,orange,square
0.0,6.0,2.0,1.0,6.0,0.0,0.0,1.0,0.0,part_2,stop,450.0,500.0,4.0,,,,,,,,,yellow,cross
0.0,5.0,1.0,1.0,5.0,5.0,484.4297680001546,1.0,0.0,part_2,stop,450.0,550.0,3.0,,,,,,,,,white,triangle
0.0,4.0,4.0,0.0,5.0,5.0,759.2049869999755,1.0,0.0,part_2,go,400.0,550.0,1.0,,,,,,,,,magenta,diamond
0.0,1.0,1.0,0.0,6.0,6.0,901.4064410002902,1.0,0.0,part_2,go,400.0,550.0,1.0,,,,,,,,,cyan,I
0.0,7.0,3.0,1.0,5.0,0.0,0.0,1.0,0.0,part_2,stop,400.0,550.0,4.0,,,,,,,,,green,flipped triangle
0.0,3.0,3.0,0.0,6.0,6.0,543.0207720000908,1.0,0.0,part_2,go,450.0,550.0,1.0,,,,,,,,,gray,hexagon
0.0,4.0,4.0,0.0,5.0,5.0,692.4335730000166,1.0,0.0,part_2,go,450.0,550.0,1.0,,,,,,,,,magenta,diamond
0.0,4.0,4.0,0.0,5.0,5.0,367.4723309995897,2.0,0.0,part_2,go,450.0,550.0,1.0,,,,,,,,,magenta,diamond
0.0,6.0,2.0,1.0,5.0,5.0,370.3374189999522,2.0,0.0,part_2,stop,450.0,550.0,3.0,,,,,,,,,yellow,cross
0.0,1.0,1.0,0.0,5.0,5.0,694.1868399999294,2.0,0.0,part_2,go,400.0,550.0,1.0,,,,,,,,,cyan,I
0.0,4.0,4.0,0.0,5.0,5.0,535.9327169999233,2.0,0.0,part_2,go,400.0,550.0,1.0,,,,,,,,,magenta,diamond
0.0,3.0,3.0,0.0,6.0,6.0,516.4053959997545,2.0,0.0,part_2,go,400.0,550.0,1.0,,,,,,,,,gray,hexagon
0.0,7.0,3.0,1.0,6.0,6.0,476.673011999992,2.0,0.0,part_2,stop,400.0,550.0,3.0,,,,,,,,,green,flipped triangle
0.0,6.0,2.0,1.0,6.0,0.0,0.0,2.0,0.0,part_2,stop,400.0,500.0,4.0,,,,,,,,,yellow,cross
0.0,4.0,4.0,0.0,5.0,5.0,520.3825219996361,2.0,0.0,part_2,go,400.0,550.0,1.0,,,,,,,,,magenta,diamond
0.0,8.0,4.0,1.0,6.0,0.0,0.0,2.0,0.0,part_2,stop,400.0,550.0,4.0,,,,,,,,,orange,square
0.0,4.0,4.0,0.0,6.0,6.0,616.6128509994451,2.0,0.0,part_2,go,400.0,600.0,1.0,,,,,,,,,magenta,diamond
0.0,2.0,2.0,0.0,5.0,5.0,563.3674270002302,2.0,0.0,part_2,go,400.0,600.0,1.0,,,,,,,,,blue,circle
0.0,4.0,4.0,0.0,5.0,5.0,649.9347509998188,2.0,0.0,part_2,go,400.0,600.0,1.0,,,,,,,,,magenta,diamond
0.0,5.0,1.0,1.0,5.0,0.0,0.0,2.0,0.0,part_2,stop,400.0,600.0,4.0,,,,,,,,,white,triangle
0.0,4.0,4.0,0.0,6.0,6.0,682.8028049994828,2.0,0.0,part_2,go,450.0,600.0,1.0,,,,,,,,,magenta,diamond
0.0,5.0,1.0,1.0,6.0,0.0,0.0,2.0,0.0,part_2,stop,450.0,600.0,4.0,,,,,,,,,white,triangle
0.0,1.0,1.0,0.0,6.0,6.0,639.1804710001452,2.0,0.0,part_2,go,450.0,650.0,1.0,,,,,,,,,cyan,I
0.0,3.0,3.0,0.0,6.0,6.0,921.4961090001452,2.0,0.0,part_2,go,450.0,650.0,1.0,,,,,,,,,gray,hexagon
0.0,2.0,2.0,0.0,6.0,6.0,525.2865200000087,2.0,0.0,part_2,go,450.0,650.0,1.0,,,,,,,,,blue,circle
0.0,7.0,3.0,1.0,5.0,0.0,0.0,2.0,0.0,part_2,stop,450.0,650.0,4.0,,,,,,,,,green,flipped triangle
0.0,2.0,2.0,0.0,6.0,6.0,598.0225560006147,2.0,0.0,part_2,go,500.0,650.0,1.0,,,,,,,,,blue,circle
0.0,4.0,4.0,0.0,6.0,6.0,749.432853000144,2.0,0.0,part_2,go,500.0,650.0,1.0,,,,,,,,,magenta,diamond
0.0,8.0,4.0,1.0,5.0,5.0,764.9352109992833,2.0,0.0,part_2,go,500.0,650.0,1.0,,,,,,,,,orange,square
0.0,6.0,2.0,1.0,5.0,5.0,580.422744000316,2.0,0.0,part_2,stop,500.0,650.0,3.0,,,,,,,,,yellow,cross
0.0,2.0,2.0,0.0,5.0,5.0,710.1914699996996,2.0,0.0,part_2,go,450.0,650.0,1.0,,,,,,,,,blue,circle
0.0,2.0,2.0,0.0,6.0,6.0,736.3944740000079,2.0,0.0,part_2,go,450.0,650.0,1.0,,,,,,,,,blue,circle
0.0,3.0,3.0,0.0,5.0,5.0,536.8421840003066,2.0,0.0,part_2,go,450.0,650.0,1.0,,,,,,,,,gray,hexagon
0.0,7.0,3.0,1.0,6.0,6.0,400.561295999978,2.0,0.0,part_2,stop,450.0,650.0,3.0,,,,,,,,,green,flipped triangle
0.0,8.0,4.0,1.0,6.0,0.0,0.0,2.0,0.0,part_2,stop,450.0,600.0,4.0,,,,,,,,,orange,square
0.0,7.0,3.0,1.0,5.0,0.0,0.0,2.0,0.0,part_2,stop,450.0,650.0,4.0,,,,,,,,,green,flipped triangle
0.0,8.0,4.0,1.0,5.0,5.0,483.1720830006816,2.0,0.0,part_2,go,500.0,650.0,1.0,,,,,,,,,orange,square
0.0,1.0,1.0,0.0,5.0,5.0,998.3046469997134,2.0,0.0,part_2,go,500.0,650.0,1.0,,,,,,,,,cyan,I
0.0,4.0,4.0,0.0,6.0,6.0,745.3129840005204,2.0,0.0,part_2,go,500.0,650.0,1.0,,,,,,,,,magenta,diamond
0.0,1.0,1.0,0.0,5.0,5.0,587.7650630000062,2.0,0.0,part_2,go,500.0,650.0,1.0,,,,,,,,,cyan,I
0.0,2.0,2.0,0.0,6.0,6.0,967.6998750001076,2.0,0.0,part_2,go,500.0,650.0,1.0,,,,,,,,,blue,circle
0.0,6.0,2.0,1.0,6.0,0.0,0.0,2.0,0.0,part_2,stop,500.0,650.0,4.0,,,,,,,,,yellow,cross
0.0,8.0,4.0,1.0,5.0,0.0,0.0,2.0,0.0,part_2,stop,500.0,700.0,4.0,,,,,,,,,orange,square
0.0,1.0,1.0,0.0,5.0,5.0,515.651450000405,3.0,0.0,part_2,go,550.0,700.0,1.0,,,,,,,,,cyan,I
0.0,5.0,1.0,1.0,5.0,0.0,0.0,3.0,0.0,part_2,stop,550.0,700.0,4.0,,,,,,,,,white,triangle
0.0,2.0,2.0,0.0,5.0,5.0,738.9816979994066,3.0,0.0,part_2,go,600.0,700.0,1.0,,,,,,,,,blue,circle
0.0,2.0,2.0,0.0,5.0,5.0,707.857487000183,3.0,0.0,part_2,go,600.0,700.0,1.0,,,,,,,,,blue,circle
0.0,1.0,1.0,0.0,5.0,5.0,554.6425140000792,3.0,0.0,part_2,go,600.0,700.0,1.0,,,,,,,,,cyan,I
0.0,6.0,2.0,1.0,6.0,6.0,914.1141320005772,3.0,0.0,part_2,stop,600.0,700.0,3.0,,,,,,,,,yellow,cross
0.0,5.0,1.0,1.0,6.0,0.0,0.0,3.0,0.0,part_2,stop,600.0,650.0,4.0,,,,,,,,,white,triangle
0.0,4.0,4.0,0.0,6.0,6.0,785.4966000004424,3.0,0.0,part_2,go,600.0,700.0,1.0,,,,,,,,,magenta,diamond
0.0,4.0,4.0,0.0,5.0,5.0,677.574543999981,3.0,0.0,part_2,go,600.0,700.0,1.0,,,,,,,,,magenta,diamond
0.0,4.0,4.0,0.0,6.0,6.0,906.1126729993704,3.0,0.0,part_2,go,600.0,700.0,1.0,,,,,,,,,magenta,diamond
0.0,3.0,3.0,0.0,5.0,5.0,860.6404749998546,3.0,0.0,part_2,go,600.0,700.0,1.0,,,,,,,,,gray,hexagon
0.0,6.0,2.0,1.0,6.0,6.0,551.0079319992656,3.0,0.0,part_2,go,600.0,700.0,1.0,,,,,,,,,yellow,cross
0.0,5.0,1.0,1.0,6.0,0.0,0.0,3.0,0.0,part_2,stop,600.0,700.0,4.0,,,,,,,,,white,triangle
0.0,1.0,1.0,0.0,5.0,5.0,788.982543000202,3.0,0.0,part_2,go,600.0,750.0,1.0,,,,,,,,,cyan,I
0.0,8.0,4.0,1.0,6.0,6.0,790.652210999724,3.0,0.0,part_2,stop,600.0,750.0,3.0,,,,,,,,,orange,square
0.0,6.0,2.0,1.0,6.0,6.0,992.2757969998202,3.0,0.0,part_2,go,600.0,700.0,1.0,,,,,,,,,yellow,cross
0.0,8.0,4.0,1.0,5.0,0.0,0.0,3.0,0.0,part_2,stop,600.0,700.0,4.0,,,,,,,,,orange,square
0.0,6.0,2.0,1.0,5.0,5.0,791.8453629999931,3.0,0.0,part_2,stop,650.0,700.0,3.0,,,,,,,,,yellow,cross
0.0,5.0,1.0,1.0,6.0,6.0,808.3284919994185,3.0,0.0,part_2,stop,600.0,700.0,3.0,,,,,,,,,white,triangle
0.0,1.0,1.0,0.0,5.0,5.0,1138.570418999734,3.0,0.0,part_2,go,600.0,650.0,1.0,,,,,,,,,cyan,I
0.0,8.0,4.0,1.0,6.0,0.0,0.0,3.0,0.0,part_2,stop,600.0,650.0,4.0,,,,,,,,,orange,square
0.0,3.0,3.0,0.0,6.0,6.0,1188.3570789996156,3.0,0.0,part_2,go,600.0,700.0,1.0,,,,,,,,,gray,hexagon
0.0,2.0,2.0,0.0,6.0,6.0,1105.8374220001497,3.0,0.0,part_2,go,600.0,700.0,1.0,,,,,,,,,blue,circle
0.0,5.0,1.0,1.0,6.0,6.0,987.4429319997944,3.0,0.0,part_2,go,600.0,700.0,1.0,,,,,,,,,white,triangle
0.0,1.0,1.0,0.0,5.0,5.0,914.8043870000038,3.0,0.0,part_2,go,600.0,700.0,1.0,,,,,,,,,cyan,I
0.0,3.0,3.0,0.0,6.0,6.0,934.5891709999704,3.0,0.0,part_2,go,600.0,700.0,1.0,,,,,,,,,gray,hexagon
0.0,7.0,3.0,1.0,5.0,5.0,727.9240910002045,3.0,0.0,part_2,stop,600.0,700.0,3.0,,,,,,,,,green,flipped triangle
0.0,5.0,1.0,1.0,6.0,6.0,873.5510300002716,3.0,0.0,part_2,go,550.0,700.0,1.0,,,,,,,,,white,triangle
0.0,4.0,4.0,0.0,6.0,6.0,1056.6699130004054,3.0,0.0,part_2,go,550.0,700.0,1.0,,,,,,,,,magenta,diamond
0.0,6.0,2.0,1.0,5.0,0.0,0.0,3.0,0.0,part_2,stop,550.0,700.0,4.0,,,,,,,,,yellow,cross
0.0,8.0,4.0,1.0,6.0,0.0,0.0,3.0,0.0,part_2,stop,600.0,700.0,4.0,,,,,,,,,orange,square
0.0,8.0,4.0,1.0,5.0,5.0,958.3072739997078,3.0,0.0,part_2,go,600.0,750.0,1.0,,,,,,,,,orange,square
0.0,3.0,3.0,0.0,5.0,5.0,921.146191999469,3.0,0.0,part_2,go,600.0,750.0,1.0,,,,,,,,,gray,hexagon
0.0,4.0,4.0,0.0,5.0,5.0,1051.3004000004005,3.0,0.0,part_2,go,600.0,750.0,1.0,,,,,,,,,magenta,diamond
0.0,6.0,2.0,1.0,6.0,0.0,0.0,3.0,0.0,part_2,stop,600.0,750.0,4.0,,,,,,,,,yellow,cross
0.0,8.0,4.0,1.0,5.0,0.0,0.0,3.0,0.0,part_2,stop,600.0,800.0,4.0,,,,,,,,,orange,square
0.0,1.0,1.0,0.0,5.0,5.0,396.6240969994032,4.0,0.0,part_2,go,650.0,800.0,1.0,,,,,,,,,cyan,I
0.0,6.0,2.0,1.0,5.0,5.0,603.1610970003385,4.0,0.0,part_2,stop,650.0,800.0,3.0,,,,,,,,,yellow,cross
0.0,1.0,1.0,0.0,6.0,6.0,677.1578210000371,4.0,0.0,part_2,go,600.0,800.0,1.0,,,,,,,,,cyan,I
0.0,7.0,3.0,1.0,6.0,6.0,715.8675070004392,4.0,0.0,part_2,stop,600.0,800.0,3.0,,,,,,,,,green,flipped triangle
0.0,3.0,3.0,0.0,5.0,0.0,0.0,4.0,0.0,part_2,go,600.0,750.0,5.0,,,,,,,,,gray,hexagon
0.0,4.0,4.0,0.0,5.0,5.0,839.3957700000101,4.0,0.0,part_2,go,600.0,750.0,1.0,,,,,,,,,magenta,diamond
0.0,7.0,3.0,1.0,6.0,6.0,270.9412220001468,4.0,0.0,part_2,stop,600.0,750.0,3.0,,,,,,,,,green,flipped triangle
0.0,3.0,3.0,0.0,6.0,6.0,904.4963970000026,4.0,0.0,part_2,go,600.0,700.0,1.0,,,,,,,,,gray,hexagon
0.0,4.0,4.0,0.0,5.0,5.0,491.28980600016797,4.0,0.0,part_2,go,600.0,700.0,1.0,,,,,,,,,magenta,diamond
0.0,7.0,3.0,1.0,6.0,6.0,642.1254079996288,4.0,0.0,part_2,go,600.0,700.0,1.0,,,,,,,,,green,flipped triangle
0.0,1.0,1.0,0.0,5.0,5.0,510.1379829993675,4.0,0.0,part_2,go,600.0,700.0,1.0,,,,,,,,,cyan,I
0.0,3.0,3.0,0.0,6.0,6.0,686.3937669995721,4.0,0.0,part_2,go,600.0,700.0,1.0,,,,,,,,,gray,hexagon
0.0,6.0,2.0,1.0,6.0,6.0,826.4808269996138,4.0,0.0,part_2,stop,600.0,700.0,3.0,,,,,,,,,yellow,cross
0.0,2.0,2.0,0.0,5.0,5.0,598.6373879995881,4.0,0.0,part_2,go,600.0,650.0,1.0,,,,,,,,,blue,circle
0.0,2.0,2.0,0.0,6.0,6.0,869.3248209992817,4.0,0.0,part_2,go,600.0,650.0,1.0,,,,,,,,,blue,circle
0.0,8.0,4.0,1.0,5.0,0.0,0.0,4.0,0.0,part_2,stop,600.0,650.0,4.0,,,,,,,,,orange,square
0.0,2.0,2.0,0.0,6.0,6.0,506.4882509996096,4.0,0.0,part_2,go,650.0,650.0,1.0,,,,,,,,,blue,circle
0.0,8.0,4.0,1.0,6.0,0.0,0.0,4.0,0.0,part_2,stop,650.0,650.0,4.0,,,,,,,,,orange,square
0.0,5.0,1.0,1.0,5.0,5.0,468.3142599997154,4.0,0.0,part_2,go,650.0,700.0,1.0,,,,,,,,,white,triangle
0.0,7.0,3.0,1.0,5.0,0.0,0.0,4.0,0.0,part_2,stop,650.0,700.0,4.0,,,,,,,,,green,flipped triangle
0.0,8.0,4.0,1.0,6.0,6.0,509.62829099989904,4.0,0.0,part_2,stop,700.0,700.0,3.0,,,,,,,,,orange,square
0.0,6.0,2.0,1.0,6.0,6.0,610.3928029997405,4.0,0.0,part_2,go,700.0,650.0,1.0,,,,,,,,,yellow,cross
0.0,5.0,1.0,1.0,6.0,6.0,595.0252469992847,4.0,0.0,part_2,stop,700.0,650.0,3.0,,,,,,,,,white,triangle
0.0,4.0,4.0,0.0,5.0,5.0,905.3248580003128,4.0,0.0,part_2,go,700.0,600.0,1.0,,,,,,,,,magenta,diamond
0.0,7.0,3.0,1.0,5.0,0.0,0.0,4.0,0.0,part_2,stop,700.0,600.0,4.0,,,,,,,,,green,flipped triangle
0.0,7.0,3.0,1.0,6.0,6.0,794.4280550000258,4.0,0.0,part_2,go,750.0,600.0,1.0,,,,,,,,,green,flipped triangle
0.0,2.0,2.0,0.0,5.0,5.0,588.4317379995991,4.0,0.0,part_2,go,750.0,600.0,1.0,,,,,,,,,blue,circle
0.0,8.0,4.0,1.0,6.0,6.0,572.0330290005222,4.0,0.0,part_2,stop,750.0,600.0,3.0,,,,,,,,,orange,square
0.0,5.0,1.0,1.0,5.0,5.0,702.3954679998496,4.0,0.0,part_2,stop,750.0,550.0,3.0,,,,,,,,,white,triangle
0.0,8.0,4.0,1.0,6.0,0.0,0.0,4.0,0.0,part_2,stop,700.0,550.0,4.0,,,,,,,,,orange,square
0.0,5.0,1.0,1.0,6.0,6.0,809.7282150001774,4.0,0.0,part_2,go,700.0,600.0,1.0,,,,,,,,,white,triangle
0.0,6.0,2.0,1.0,5.0,5.0,818.1480230005036,4.0,0.0,part_2,stop,700.0,600.0,3.0,,,,,,,,,yellow,cross
0.0,8.0,4.0,1.0,5.0,0.0,0.0,4.0,0.0,part_2,stop,650.0,600.0,4.0,,,,,,,,,orange,square
0.0,2.0,2.0,0.0,5.0,5.0,846.3271950004128,4.0,0.0,part_2,go,700.0,600.0,1.0,,,,,,,,,blue,circle
0.0,4.0,4.0,0.0,5.0,5.0,784.6004920002088,4.0,0.0,part_2,go,700.0,600.0,1.0,,,,,,,,,magenta,diamond
0.0,6.0,2.0,1.0,6.0,0.0,0.0,4.0,0.0,part_2,stop,700.0,600.0,4.0,,,,,,,,,yellow,cross
0.0,8.0,4.0,1.0,5.0,5.0,452.6563400004306,5.0,0.0,part_2,stop,700.0,650.0,3.0,,,,,,,,,orange,square
0.0,1.0,1.0,0.0,5.0,5.0,689.1773670004113,5.0,0.0,part_2,go,650.0,650.0,1.0,,,,,,,,,cyan,I
0.0,1.0,1.0,0.0,5.0,5.0,917.4881569997524,5.0,0.0,part_2,go,650.0,650.0,1.0,,,,,,,,,cyan,I
0.0,4.0,4.0,0.0,6.0,6.0,586.2981469999795,5.0,0.0,part_2,go,650.0,650.0,1.0,,,,,,,,,magenta,diamond
0.0,8.0,4.0,1.0,5.0,5.0,684.4028629993772,5.0,0.0,part_2,stop,650.0,650.0,3.0,,,,,,,,,orange,square
0.0,8.0,4.0,1.0,6.0,0.0,0.0,5.0,0.0,part_2,stop,600.0,650.0,4.0,,,,,,,,,orange,square
0.0,3.0,3.0,0.0,5.0,5.0,916.1601220002922,5.0,0.0,part_2,go,600.0,700.0,1.0,,,,,,,,,gray,hexagon
0.0,8.0,4.0,1.0,5.0,0.0,0.0,5.0,0.0,part_2,stop,600.0,700.0,4.0,,,,,,,,,orange,square
0.0,5.0,1.0,1.0,5.0,5.0,737.0431170002121,5.0,0.0,part_2,go,650.0,700.0,1.0,,,,,,,,,white,triangle
0.0,7.0,3.0,1.0,6.0,6.0,895.7287580005868,5.0,0.0,part_2,go,650.0,700.0,1.0,,,,,,,,,green,flipped triangle
0.0,2.0,2.0,0.0,6.0,6.0,649.7733719997996,5.0,0.0,part_2,go,650.0,700.0,1.0,,,,,,,,,blue,circle
0.0,7.0,3.0,1.0,6.0,6.0,370.6318410004314,5.0,0.0,part_2,go,650.0,700.0,1.0,,,,,,,,,green,flipped triangle
0.0,2.0,2.0,0.0,5.0,5.0,745.785111999794,5.0,0.0,part_2,go,650.0,700.0,1.0,,,,,,,,,blue,circle
0.0,7.0,3.0,1.0,5.0,5.0,465.2734239998608,5.0,0.0,part_2,stop,650.0,700.0,3.0,,,,,,,,,green,flipped triangle
0.0,1.0,1.0,0.0,6.0,6.0,739.048301999901,5.0,0.0,part_2,go,600.0,700.0,1.0,,,,,,,,,cyan,I
0.0,8.0,4.0,1.0,5.0,5.0,777.0537950000289,5.0,0.0,part_2,go,600.0,700.0,1.0,,,,,,,,,orange,square
0.0,7.0,3.0,1.0,6.0,6.0,782.2810450006727,5.0,0.0,part_2,stop,600.0,700.0,3.0,,,,,,,,,green,flipped triangle
0.0,2.0,2.0,0.0,5.0,5.0,753.6297470005593,5.0,0.0,part_2,go,600.0,650.0,1.0,,,,,,,,,blue,circle
0.0,6.0,2.0,1.0,6.0,6.0,832.810265000262,5.0,0.0,part_2,go,600.0,650.0,1.0,,,,,,,,,yellow,cross
0.0,5.0,1.0,1.0,5.0,0.0,0.0,5.0,0.0,part_2,stop,600.0,650.0,4.0,,,,,,,,,white,triangle
0.0,6.0,2.0,1.0,5.0,5.0,688.0768860000899,5.0,0.0,part_2,stop,650.0,650.0,3.0,,,,,,,,,yellow,cross
0.0,2.0,2.0,0.0,6.0,6.0,455.7080039994616,5.0,0.0,part_2,go,600.0,650.0,1.0,,,,,,,,,blue,circle
0.0,7.0,3.0,1.0,6.0,6.0,297.0891860004485,5.0,0.0,part_2,go,600.0,650.0,1.0,,,,,,,,,green,flipped triangle
0.0,2.0,2.0,0.0,6.0,6.0,655.112028000076,5.0,0.0,part_2,go,600.0,650.0,1.0,,,,,,,,,blue,circle
0.0,4.0,4.0,0.0,6.0,6.0,877.3652859999856,5.0,0.0,part_2,go,600.0,650.0,1.0,,,,,,,,,magenta,diamond
0.0,4.0,4.0,0.0,6.0,6.0,843.2403320002777,5.0,0.0,part_2,go,600.0,650.0,1.0,,,,,,,,,magenta,diamond
0.0,4.0,4.0,0.0,5.0,5.0,553.3370969997122,5.0,0.0,part_2,go,600.0,650.0,1.0,,,,,,,,,magenta,diamond
0.0,8.0,4.0,1.0,6.0,0.0,0.0,5.0,0.0,part_2,stop,600.0,650.0,4.0,,,,,,,,,orange,square
0.0,1.0,1.0,0.0,5.0,5.0,933.0682030004028,5.0,0.0,part_2,go,600.0,700.0,1.0,,,,,,,,,cyan,I
0.0,2.0,2.0,0.0,5.0,5.0,689.1862190004758,5.0,0.0,part_2,go,600.0,700.0,1.0,,,,,,,,,blue,circle
0.0,7.0,3.0,1.0,5.0,0.0,0.0,5.0,0.0,part_2,stop,600.0,700.0,4.0,,,,,,,,,green,flipped triangle
0.0,5.0,1.0,1.0,5.0,0.0,0.0,5.0,0.0,part_2,stop,650.0,700.0,4.0,,,,,,,,,white,triangle
0.0,1.0,1.0,0.0,6.0,6.0,682.594555999458,5.0,0.0,part_2,go,700.0,700.0,1.0,,,,,,,,,cyan,I
0.0,7.0,3.0,1.0,5.0,0.0,0.0,5.0,0.0,part_2,stop,700.0,700.0,4.0,,,,,,,,,green,flipped triangle
0.0,5.0,1.0,1.0,5.0,5.0,701.7027490001055,5.0,0.0,part_2,stop,750.0,700.0,3.0,,,,,,,,,white,triangle
0.0,7.0,3.0,1.0,5.0,5.0,582.1155870007715,5.0,0.0,part_2,stop,700.0,700.0,3.0,,,,,,,,,green,flipped triangle
0.0,5.0,1.0,1.0,5.0,5.0,370.3926609996415,6.0,0.0,part_2,go,650.0,700.0,1.0,,,,,,,,,white,triangle
0.0,3.0,3.0,0.0,6.0,6.0,556.620594999913,6.0,0.0,part_2,go,650.0,700.0,1.0,,,,,,,,,gray,hexagon
0.0,8.0,4.0,1.0,5.0,0.0,0.0,6.0,0.0,part_2,stop,650.0,700.0,4.0,,,,,,,,,orange,square
0.0,4.0,4.0,0.0,5.0,5.0,867.6948729998912,6.0,0.0,part_2,go,700.0,700.0,1.0,,,,,,,,,magenta,diamond
0.0,3.0,3.0,0.0,5.0,5.0,1183.6884419999478,6.0,0.0,part_2,go,700.0,700.0,1.0,,,,,,,,,gray,hexagon
0.0,1.0,1.0,0.0,6.0,6.0,965.7669580001312,6.0,0.0,part_2,go,700.0,700.0,1.0,,,,,,,,,cyan,I
0.0,4.0,4.0,0.0,6.0,6.0,796.6130300001169,6.0,0.0,part_2,go,700.0,700.0,1.0,,,,,,,,,magenta,diamond
0.0,6.0,2.0,1.0,5.0,0.0,0.0,6.0,0.0,part_2,stop,700.0,700.0,4.0,,,,,,,,,yellow,cross
0.0,3.0,3.0,0.0,5.0,5.0,387.4966639996273,6.0,0.0,part_2,go,750.0,700.0,1.0,,,,,,,,,gray,hexagon
0.0,2.0,2.0,0.0,6.0,6.0,796.1133130002054,6.0,0.0,part_2,go,750.0,700.0,1.0,,,,,,,,,blue,circle
0.0,5.0,1.0,1.0,5.0,0.0,0.0,6.0,0.0,part_2,stop,750.0,700.0,4.0,,,,,,,,,white,triangle
0.0,3.0,3.0,0.0,6.0,6.0,378.5814769998978,6.0,0.0,part_2,go,800.0,700.0,1.0,,,,,,,,,gray,hexagon
0.0,7.0,3.0,1.0,6.0,6.0,801.3267460000861,6.0,0.0,part_2,stop,800.0,700.0,3.0,,,,,,,,,green,flipped triangle
0.0,7.0,3.0,1.0,6.0,0.0,0.0,6.0,0.0,part_2,stop,800.0,650.0,4.0,,,,,,,,,green,flipped triangle
0.0,5.0,1.0,1.0,5.0,5.0,699.0576140005942,6.0,0.0,part_2,stop,800.0,700.0,3.0,,,,,,,,,white,triangle
0.0,1.0,1.0,0.0,6.0,6.0,310.3117190003104,6.0,0.0,part_2,go,750.0,700.0,1.0,,,,,,,,,cyan,I
0.0,6.0,2.0,1.0,6.0,6.0,819.4915270005367,6.0,0.0,part_2,stop,750.0,700.0,3.0,,,,,,,,,yellow,cross
0.0,1.0,1.0,0.0,6.0,6.0,1081.7172679999203,6.0,0.0,part_2,go,750.0,650.0,1.0,,,,,,,,,cyan,I
0.0,3.0,3.0,0.0,5.0,5.0,727.781483000399,6.0,0.0,part_2,go,750.0,650.0,1.0,,,,,,,,,gray,hexagon
0.0,1.0,1.0,0.0,5.0,5.0,858.9013330001762,6.0,0.0,part_2,go,750.0,650.0,1.0,,,,,,,,,cyan,I
0.0,3.0,3.0,0.0,5.0,5.0,801.4203769998858,6.0,0.0,part_2,go,750.0,650.0,1.0,,,,,,,,,gray,hexagon
0.0,2.0,2.0,0.0,5.0,5.0,338.6098829996626,6.0,0.0,part_2,go,750.0,650.0,1.0,,,,,,,,,blue,circle
0.0,3.0,3.0,0.0,5.0,5.0,636.3915709998764,6.0,0.0,part_2,go,750.0,650.0,1.0,,,,,,,,,gray,hexagon
0.0,3.0,3.0,0.0,6.0,6.0,1062.6899369999592,6.0,0.0,part_2,go,750.0,650.0,1.0,,,,,,,,,gray,hexagon
0.0,4.0,4.0,0.0,6.0,6.0,517.057123000086,6.0,0.0,part_2,go,750.0,650.0,1.0,,,,,,,,,magenta,diamond
0.0,5.0,1.0,1.0,6.0,6.0,603.2794749999084,6.0,0.0,part_2,stop,750.0,650.0,3.0,,,,,,,,,white,triangle
0.0,7.0,3.0,1.0,6.0,6.0,754.9849490005727,6.0,0.0,part_2,go,750.0,600.0,1.0,,,,,,,,,green,flipped triangle
0.0,5.0,1.0,1.0,6.0,0.0,0.0,6.0,0.0,part_2,stop,750.0,600.0,4.0,,,,,,,,,white,triangle
0.0,4.0,4.0,0.0,6.0,6.0,738.4188309997626,6.0,0.0,part_2,go,750.0,650.0,1.0,,,,,,,,,magenta,diamond
0.0,8.0,4.0,1.0,6.0,6.0,747.7334100003645,6.0,0.0,part_2,go,750.0,650.0,1.0,,,,,,,,,orange,square
0.0,8.0,4.0,1.0,5.0,5.0,856.079402999967,6.0,0.0,part_2,stop,750.0,650.0,3.0,,,,,,,,,orange,square
0.0,6.0,2.0,1.0,5.0,0.0,0.0,6.0,0.0,part_2,stop,700.0,650.0,4.0,,,,,,,,,yellow,cross
0.0,7.0,3.0,1.0,6.0,6.0,789.0960450004059,6.0,0.0,part_2,stop,750.0,650.0,3.0,,,,,,,,,green,flipped triangle
0.0,8.0,4.0,1.0,6.0,6.0,1083.5738659998242,6.0,0.0,part_2,go,750.0,600.0,1.0,,,,,,,,,orange,square
0.0,7.0,3.0,1.0,6.0,6.0,672.4893979999251,6.0,0.0,part_2,stop,750.0,600.0,3.0,,,,,,,,,green,flipped triangle
0.0,1.0,1.0,0.0,6.0,6.0,1224.8265159996663,6.0,0.0,part_2,go,750.0,550.0,1.0,,,,,,,,,cyan,I
0.0,5.0,1.0,1.0,6.0,6.0,302.3675040003581,7.0,0.0,part_2,stop,750.0,550.0,3.0,,,,,,,,,white,triangle
0.0,6.0,2.0,1.0,6.0,6.0,958.7991439993856,7.0,0.0,part_2,go,750.0,500.0,1.0,,,,,,,,,yellow,cross
0.0,1.0,1.0,0.0,6.0,6.0,845.421040000474,7.0,0.0,part_2,go,750.0,500.0,1.0,,,,,,,,,cyan,I
0.0,6.0,2.0,1.0,6.0,6.0,540.0182580006003,7.0,0.0,part_2,stop,750.0,500.0,3.0,,,,,,,,,yellow,cross
0.0,6.0,2.0,1.0,5.0,5.0,789.9341409993212,7.0,0.0,part_2,stop,750.0,450.0,3.0,,,,,,,,,yellow,cross
0.0,4.0,4.0,0.0,6.0,6.0,1319.3875569995726,7.0,0.0,part_2,go,700.0,450.0,1.0,,,,,,,,,magenta,diamond
0.0,8.0,4.0,1.0,6.0,0.0,0.0,7.0,0.0,part_2,stop,700.0,450.0,4.0,,,,,,,,,orange,square
0.0,6.0,2.0,1.0,6.0,0.0,0.0,7.0,0.0,part_2,stop,700.0,500.0,4.0,,,,,,,,,yellow,cross
0.0,2.0,2.0,0.0,5.0,5.0,691.4161889999377,7.0,0.0,part_2,go,700.0,550.0,1.0,,,,,,,,,blue,circle
0.0,5.0,1.0,1.0,5.0,5.0,950.5102330003864,7.0,0.0,part_2,go,700.0,550.0,1.0,,,,,,,,,white,triangle
0.0,2.0,2.0,0.0,6.0,6.0,1026.1096519998318,7.0,0.0,part_2,go,700.0,550.0,1.0,,,,,,,,,blue,circle
0.0,4.0,4.0,0.0,5.0,5.0,856.0885950000738,7.0,0.0,part_2,go,700.0,550.0,1.0,,,,,,,,,magenta,diamond
0.0,1.0,1.0,0.0,6.0,6.0,765.488312999878,7.0,0.0,part_2,go,700.0,550.0,1.0,,,,,,,,,cyan,I
0.0,7.0,3.0,1.0,5.0,0.0,0.0,7.0,0.0,part_2,stop,700.0,550.0,4.0,,,,,,,,,green,flipped triangle
0.0,3.0,3.0,0.0,6.0,6.0,549.0653560000283,7.0,0.0,part_2,go,750.0,550.0,1.0,,,,,,,,,gray,hexagon
0.0,5.0,1.0,1.0,5.0,0.0,0.0,7.0,0.0,part_2,stop,750.0,550.0,4.0,,,,,,,,,white,triangle
0.0,1.0,1.0,0.0,6.0,6.0,830.5466310002885,7.0,0.0,part_2,go,800.0,550.0,1.0,,,,,,,,,cyan,I
0.0,8.0,4.0,1.0,5.0,0.0,0.0,7.0,0.0,part_2,stop,800.0,550.0,4.0,,,,,,,,,orange,square
0.0,8.0,4.0,1.0,5.0,5.0,660.6259469999713,7.0,0.0,part_2,stop,850.0,550.0,3.0,,,,,,,,,orange,square
0.0,6.0,2.0,1.0,6.0,0.0,0.0,7.0,0.0,part_2,stop,800.0,550.0,4.0,,,,,,,,,yellow,cross
0.0,2.0,2.0,0.0,5.0,5.0,501.2500029997682,7.0,0.0,part_2,go,800.0,600.0,1.0,,,,,,,,,blue,circle
0.0,2.0,2.0,0.0,6.0,6.0,1116.91737000001,7.0,0.0,part_2,go,800.0,600.0,1.0,,,,,,,,,blue,circle
0.0,5.0,1.0,1.0,6.0,6.0,475.1445239999157,7.0,0.0,part_2,stop,800.0,600.0,3.0,,,,,,,,,white,triangle
0.0,3.0,3.0,0.0,6.0,6.0,963.4069270005056,7.0,0.0,part_2,go,800.0,550.0,1.0,,,,,,,,,gray,hexagon
0.0,5.0,1.0,1.0,6.0,6.0,423.1264300005932,7.0,0.0,part_2,go,800.0,550.0,1.0,,,,,,,,,white,triangle
0.0,8.0,4.0,1.0,6.0,6.0,777.051326000219,7.0,0.0,part_2,go,800.0,550.0,1.0,,,,,,,,,orange,square
0.0,7.0,3.0,1.0,6.0,0.0,0.0,7.0,0.0,part_2,stop,800.0,550.0,4.0,,,,,,,,,green,flipped triangle
0.0,8.0,4.0,1.0,5.0,5.0,434.0762920000998,7.0,0.0,part_2,go,800.0,600.0,1.0,,,,,,,,,orange,square
0.0,2.0,2.0,0.0,5.0,5.0,724.0236070001629,7.0,0.0,part_2,go,800.0,600.0,1.0,,,,,,,,,blue,circle
0.0,3.0,3.0,0.0,5.0,5.0,779.5364960002189,7.0,0.0,part_2,go,800.0,600.0,1.0,,,,,,,,,gray,hexagon
0.0,5.0,1.0,1.0,6.0,6.0,818.623192000814,7.0,0.0,part_2,go,800.0,600.0,1.0,,,,,,,,,white,triangle
0.0,7.0,3.0,1.0,5.0,5.0,1008.202808000533,7.0,0.0,part_2,go,800.0,600.0,1.0,,,,,,,,,green,flipped triangle
0.0,7.0,3.0,1.0,5.0,5.0,746.5173779992256,7.0,0.0,part_2,go,800.0,600.0,1.0,,,,,,,,,green,flipped triangle
0.0,6.0,2.0,1.0,5.0,5.0,859.8135799993543,7.0,0.0,part_2,stop,800.0,600.0,3.0,,,,,,,,,yellow,cross
0.0,1.0,1.0,0.0,5.0,5.0,982.480451999436,7.0,0.0,part_2,go,750.0,600.0,1.0,,,,,,,,,cyan,I
0.0,5.0,1.0,1.0,5.0,0.0,0.0,7.0,0.0,part_2,stop,750.0,600.0,4.0,,,,,,,,,white,triangle
0.0,4.0,4.0,0.0,5.0,5.0,183.6068430002342,8.0,0.0,part_2,go,800.0,600.0,1.0,,,,,,,,,magenta,diamond
0.0,2.0,2.0,0.0,5.0,5.0,951.0590099998808,8.0,0.0,part_2,go,800.0,600.0,1.0,,,,,,,,,blue,circle
0.0,7.0,3.0,1.0,5.0,5.0,871.8033719997038,8.0,0.0,part_2,go,800.0,600.0,1.0,,,,,,,,,green,flipped triangle
0.0,3.0,3.0,0.0,5.0,5.0,1056.8004899996597,8.0,0.0,part_2,go,800.0,600.0,1.0,,,,,,,,,gray,hexagon
0.0,1.0,1.0,0.0,6.0,6.0,532.8041160000794,8.0,0.0,part_2,go,800.0,600.0,1.0,,,,,,,,,cyan,I
0.0,5.0,1.0,1.0,6.0,0.0,0.0,8.0,0.0,part_2,stop,800.0,600.0,4.0,,,,,,,,,white,triangle
0.0,1.0,1.0,0.0,5.0,5.0,731.1868299993876,8.0,0.0,part_2,go,800.0,650.0,1.0,,,,,,,,,cyan,I
0.0,2.0,2.0,0.0,5.0,5.0,684.468614999787,8.0,0.0,part_2,go,800.0,650.0,1.0,,,,,,,,,blue,circle
0.0,3.0,3.0,0.0,5.0,5.0,741.004454999711,8.0,0.0,part_2,go,800.0,650.0,1.0,,,,,,,,,gray,hexagon
0.0,4.0,4.0,0.0,5.0,5.0,987.0064120004828,8.0,0.0,part_2,go,800.0,650.0,1.0,,,,,,,,,magenta,diamond
0.0,3.0,3.0,0.0,6.0,6.0,850.5402740001955,8.0,0.0,part_2,go,800.0,650.0,1.0,,,,,,,,,gray,hexagon
0.0,3.0,3.0,0.0,5.0,5.0,888.8361930003157,8.0,0.0,part_2,go,800.0,650.0,1.0,,,,,,,,,gray,hexagon
0.0,4.0,4.0,0.0,5.0,5.0,582.240914999602,8.0,0.0,part_2,go,800.0,650.0,1.0,,,,,,,,,magenta,diamond
0.0,7.0,3.0,1.0,5.0,5.0,647.1985909993236,8.0,0.0,part_2,stop,800.0,650.0,3.0,,,,,,,,,green,flipped triangle
0.0,1.0,1.0,0.0,5.0,5.0,1045.5595729999914,8.0,0.0,part_2,go,750.0,650.0,1.0,,,,,,,,,cyan,I
0.0,2.0,2.0,0.0,6.0,6.0,1011.3708509998105,8.0,0.0,part_2,go,750.0,650.0,1.0,,,,,,,,,blue,circle
0.0,3.0,3.0,0.0,5.0,5.0,886.6564250001829,8.0,0.0,part_2,go,750.0,650.0,1.0,,,,,,,,,gray,hexagon
0.0,5.0,1.0,1.0,6.0,6.0,543.5530030008522,8.0,0.0,part_2,stop,750.0,650.0,3.0,,,,,,,,,white,triangle
0.0,6.0,2.0,1.0,6.0,6.0,788.1349689996568,8.0,0.0,part_2,stop,750.0,600.0,3.0,,,,,,,,,yellow,cross
0.0,3.0,3.0,0.0,6.0,6.0,748.0953619997308,8.0,0.0,part_2,go,750.0,550.0,1.0,,,,,,,,,gray,hexagon
0.0,1.0,1.0,0.0,6.0,6.0,918.4297519996109,8.0,0.0,part_2,go,750.0,550.0,1.0,,,,,,,,,cyan,I
0.0,7.0,3.0,1.0,5.0,5.0,852.6874700000917,8.0,0.0,part_2,stop,750.0,550.0,3.0,,,,,,,,,green,flipped triangle
0.0,2.0,2.0,0.0,6.0,6.0,1354.4830880000518,8.0,0.0,part_2,go,700.0,550.0,1.0,,,,,,,,,blue,circle
0.0,3.0,3.0,0.0,6.0,6.0,829.9938170002861,8.0,0.0,part_2,go,700.0,550.0,1.0,,,,,,,,,gray,hexagon
0.0,1.0,1.0,0.0,6.0,6.0,989.2863610002678,8.0,0.0,part_2,go,700.0,550.0,1.0,,,,,,,,,cyan,I
0.0,8.0,4.0,1.0,6.0,0.0,0.0,8.0,0.0,part_2,stop,700.0,550.0,4.0,,,,,,,,,orange,square
0.0,6.0,2.0,1.0,5.0,5.0,607.5354889999289,8.0,0.0,part_2,stop,700.0,600.0,3.0,,,,,,,,,yellow,cross
0.0,1.0,1.0,0.0,6.0,6.0,914.4635489992652,8.0,0.0,part_2,go,650.0,600.0,1.0,,,,,,,,,cyan,I
0.0,6.0,2.0,1.0,5.0,5.0,966.6099510004642,8.0,0.0,part_2,go,650.0,600.0,1.0,,,,,,,,,yellow,cross
0.0,3.0,3.0,0.0,5.0,5.0,906.884720000562,8.0,0.0,part_2,go,650.0,600.0,1.0,,,,,,,,,gray,hexagon
0.0,3.0,3.0,0.0,5.0,5.0,1026.810155000021,8.0,0.0,part_2,go,650.0,600.0,1.0,,,,,,,,,gray,hexagon
0.0,2.0,2.0,0.0,6.0,6.0,395.7997269999396,8.0,0.0,part_2,go,650.0,600.0,1.0,,,,,,,,,blue,circle
0.0,6.0,2.0,1.0,5.0,0.0,0.0,8.0,0.0,part_2,stop,650.0,600.0,4.0,,,,,,,,,yellow,cross
0.0,1.0,1.0,0.0,5.0,5.0,1472.0031549995838,8.0,0.0,part_2,go,700.0,600.0,1.0,,,,,,,,,cyan,I
0.0,5.0,1.0,1.0,5.0,5.0,735.5308670003069,8.0,0.0,part_2,stop,700.0,600.0,3.0,,,,,,,,,white,triangle
0.0,7.0,3.0,1.0,5.0,0.0,0.0,8.0,0.0,part_2,stop,650.0,600.0,4.0,,,,,,,,,green,flipped triangle
0.0,8.0,4.0,1.0,7.0,4.0,1729.9930799999856,1.0,2.0,part_3,go,0.0,0.0,0.0,195.0,5.0,39.0,156.0,78.0,195.0,117.0,234.0,orange,square
0.0,3.0,3.0,0.0,7.0,1.0,2300.9235019999323,1.0,1.0,part_3,go,0.0,0.0,0.0,117.0,3.0,117.0,78.0,195.0,39.0,156.0,234.0,gray,hexagon
0.0,3.0,3.0,0.0,7.0,1.0,846.797131999665,1.0,1.0,part_3,go,0.0,0.0,0.0,108.0,2.0,108.0,162.0,216.0,54.0,270.0,324.0,gray,hexagon
0.0,6.0,2.0,1.0,7.0,6.0,2188.5951829999613,1.0,1.0,part_3,go,0.0,0.0,0.0,132.0,3.0,176.0,264.0,88.0,220.0,44.0,132.0,yellow,cross
0.0,2.0,2.0,0.0,7.0,2.0,1914.482297000177,1.0,1.0,part_3,go,0.0,0.0,0.0,78.0,2.0,117.0,78.0,195.0,234.0,39.0,156.0,blue,circle
0.0,6.0,2.0,1.0,7.0,6.0,1740.7552840004428,1.0,1.0,part_3,go,0.0,0.0,0.0,108.0,2.0,324.0,162.0,54.0,270.0,216.0,108.0,yellow,cross
0.0,6.0,2.0,1.0,7.0,4.0,1949.5020980002664,1.0,1.0,part_3,go,0.0,0.0,0.0,147.0,3.0,294.0,245.0,49.0,147.0,98.0,196.0,yellow,cross
0.0,3.0,3.0,0.0,7.0,5.0,2163.6033269996915,1.0,1.0,part_3,go,0.0,0.0,0.0,49.0,1.0,196.0,147.0,98.0,294.0,49.0,245.0,gray,hexagon
0.0,7.0,3.0,1.0,7.0,4.0,1725.4025219999676,1.0,1.0,part_3,go,0.0,0.0,0.0,147.0,3.0,98.0,49.0,294.0,147.0,245.0,196.0,green,flipped triangle
0.0,6.0,2.0,1.0,7.0,1.0,1890.4130119999536,1.0,1.0,part_3,go,0.0,0.0,0.0,102.0,3.0,102.0,136.0,34.0,170.0,68.0,204.0,yellow,cross
0.0,7.0,3.0,1.0,7.0,3.0,1995.4407630002609,1.0,1.0,part_3,go,0.0,0.0,0.0,162.0,3.0,324.0,216.0,162.0,54.0,108.0,270.0,green,flipped triangle
0.0,8.0,4.0,1.0,7.0,1.0,1973.0725459994576,1.0,1.0,part_3,go,0.0,0.0,0.0,245.0,5.0,245.0,294.0,98.0,49.0,196.0,147.0,orange,square
0.0,4.0,4.0,0.0,7.0,1.0,1715.8830349999334,1.0,1.0,part_3,go,0.0,0.0,0.0,294.0,6.0,294.0,196.0,147.0,49.0,245.0,98.0,magenta,diamond
0.0,1.0,1.0,0.0,7.0,6.0,2024.4630699999107,1.0,1.0,part_3,go,0.0,0.0,0.0,98.0,2.0,196.0,294.0,49.0,245.0,147.0,98.0,cyan,I
0.0,5.0,1.0,1.0,7.0,3.0,1932.8360609997617,1.0,1.0,part_3,go,0.0,0.0,0.0,176.0,4.0,264.0,132.0,176.0,220.0,44.0,88.0,white,triangle
0.0,4.0,4.0,0.0,7.0,4.0,1411.610892000681,1.0,1.0,part_3,go,0.0,0.0,0.0,204.0,6.0,68.0,136.0,102.0,204.0,34.0,170.0,magenta,diamond
0.0,5.0,1.0,1.0,7.0,2.0,1804.1332430002512,1.0,1.0,part_3,go,0.0,0.0,0.0,117.0,3.0,234.0,117.0,39.0,78.0,156.0,195.0,white,triangle
0.0,6.0,2.0,1.0,7.0,3.0,1308.8371889998598,1.0,1.0,part_3,go,0.0,0.0,0.0,156.0,4.0,234.0,195.0,156.0,117.0,78.0,39.0,yellow,cross
0.0,5.0,1.0,1.0,7.0,1.0,1451.0777909999888,1.0,1.0,part_3,go,0.0,0.0,0.0,270.0,5.0,270.0,54.0,108.0,324.0,162.0,216.0,white,triangle
0.0,8.0,4.0,1.0,7.0,5.0,1298.918438000328,1.0,1.0,part_3,go,0.0,0.0,0.0,264.0,6.0,132.0,220.0,88.0,176.0,264.0,44.0,orange,square
0.0,3.0,3.0,0.0,7.0,2.0,2412.693966000006,2.0,1.0,part_3,go,0.0,0.0,0.0,162.0,3.0,108.0,162.0,324.0,54.0,216.0,270.0,gray,hexagon
0.0,3.0,3.0,0.0,7.0,6.0,1974.303864999456,2.0,1.0,part_3,go,0.0,0.0,0.0,68.0,2.0,136.0,170.0,102.0,34.0,204.0,68.0,gray,hexagon
0.0,1.0,1.0,0.0,7.0,2.0,2073.4400760002245,2.0,1.0,part_3,go,0.0,0.0,0.0,44.0,1.0,176.0,44.0,220.0,88.0,132.0,264.0,cyan,I
0.0,5.0,1.0,1.0,7.0,3.0,1696.5346719998706,2.0,1.0,part_3,go,0.0,0.0,0.0,245.0,5.0,196.0,49.0,245.0,147.0,98.0,294.0,white,triangle
0.0,1.0,1.0,0.0,7.0,4.0,1172.555029999785,2.0,1.0,part_3,go,0.0,0.0,0.0,170.0,5.0,136.0,204.0,102.0,170.0,68.0,34.0,cyan,I
0.0,7.0,3.0,1.0,7.0,2.0,1533.3965789996,2.0,1.0,part_3,go,0.0,0.0,0.0,220.0,5.0,264.0,220.0,132.0,88.0,44.0,176.0,green,flipped triangle
0.0,6.0,2.0,1.0,7.0,5.0,2426.3627070004077,2.0,1.0,part_3,go,0.0,0.0,0.0,39.0,1.0,117.0,78.0,156.0,195.0,39.0,234.0,yellow,cross
0.0,3.0,3.0,0.0,7.0,2.0,2128.91150500036,2.0,1.0,part_3,go,0.0,0.0,0.0,176.0,4.0,220.0,176.0,132.0,264.0,88.0,44.0,gray,hexagon
0.0,2.0,2.0,0.0,7.0,2.0,1966.7133660004763,2.0,1.0,part_3,go,0.0,0.0,0.0,245.0,5.0,98.0,245.0,294.0,147.0,196.0,49.0,blue,circle
0.0,5.0,1.0,1.0,7.0,2.0,2147.5315170000613,2.0,1.0,part_3,go,0.0,0.0,0.0,102.0,3.0,204.0,102.0,136.0,68.0,170.0,34.0,white,triangle
0.0,1.0,1.0,0.0,7.0,3.0,1706.980406999719,2.0,1.0,part_3,go,0.0,0.0,0.0,216.0,4.0,108.0,324.0,216.0,270.0,54.0,162.0,cyan,I
0.0,2.0,2.0,0.0,7.0,5.0,2357.8776579997793,2.0,1.0,part_3,go,0.0,0.0,0.0,170.0,5.0,204.0,34.0,102.0,136.0,170.0,68.0,blue,circle
0.0,2.0,2.0,0.0,7.0,2.0,1263.1919059995198,2.0,1.0,part_3,go,0.0,0.0,0.0,176.0,4.0,132.0,176.0,264.0,220.0,44.0,88.0,blue,circle
0.0,1.0,1.0,0.0,7.0,2.0,1829.5484270001907,2.0,1.0,part_3,go,0.0,0.0,0.0,216.0,4.0,108.0,216.0,270.0,54.0,162.0,324.0,cyan,I
0.0,5.0,1.0,1.0,7.0,2.0,1738.079364999976,2.0,1.0,part_3,go,0.0,0.0,0.0,156.0,4.0,234.0,156.0,39.0,195.0,117.0,78.0,white,triangle
0.0,2.0,2.0,0.0,7.0,2.0,2310.098391999418,2.0,1.0,part_3,go,0.0,0.0,0.0,195.0,5.0,156.0,195.0,234.0,78.0,117.0,39.0,blue,circle
0.0,2.0,2.0,0.0,7.0,6.0,1447.0883920002962,2.0,1.0,part_3,go,0.0,0.0,0.0,196.0,4.0,245.0,147.0,294.0,98.0,49.0,196.0,blue,circle
0.0,4.0,4.0,0.0,7.0,3.0,1589.462549000018,2.0,1.0,part_3,go,0.0,0.0,0.0,147.0,3.0,196.0,49.0,147.0,245.0,98.0,294.0,magenta,diamond
0.0,8.0,4.0,1.0,7.0,5.0,1709.4115099998817,2.0,1.0,part_3,go,0.0,0.0,0.0,204.0,6.0,136.0,102.0,68.0,34.0,204.0,170.0,orange,square
0.0,7.0,3.0,1.0,7.0,4.0,1305.4506429998582,2.0,1.0,part_3,go,0.0,0.0,0.0,234.0,6.0,78.0,117.0,156.0,234.0,39.0,195.0,green,flipped triangle
0.0,6.0,2.0,1.0,7.0,1.0,1837.7624969998576,3.0,1.0,part_3,go,0.0,0.0,0.0,176.0,4.0,176.0,264.0,132.0,44.0,220.0,88.0,yellow,cross
0.0,4.0,4.0,0.0,7.0,5.0,2959.394866999901,3.0,1.0,part_3,go,0.0,0.0,0.0,264.0,6.0,132.0,44.0,88.0,220.0,264.0,176.0,magenta,diamond
0.0,5.0,1.0,1.0,7.0,4.0,2603.478893999636,3.0,1.0,part_3,go,0.0,0.0,0.0,147.0,3.0,49.0,245.0,196.0,147.0,98.0,294.0,white,triangle
0.0,5.0,1.0,1.0,7.0,4.0,1246.6845349999858,3.0,1.0,part_3,go,0.0,0.0,0.0,108.0,2.0,162.0,216.0,54.0,108.0,324.0,270.0,white,triangle
0.0,7.0,3.0,1.0,7.0,1.0,1418.0695239992929,3.0,1.0,part_3,go,0.0,0.0,0.0,234.0,6.0,234.0,195.0,117.0,156.0,78.0,39.0,green,flipped triangle
0.0,5.0,1.0,1.0,7.0,4.0,2770.0323179997213,3.0,1.0,part_3,go,0.0,0.0,0.0,176.0,4.0,88.0,264.0,220.0,176.0,44.0,132.0,white,triangle
0.0,1.0,1.0,0.0,7.0,2.0,1307.999382000162,3.0,1.0,part_3,go,0.0,0.0,0.0,117.0,3.0,234.0,117.0,156.0,78.0,39.0,195.0,cyan,I
0.0,8.0,4.0,1.0,7.0,1.0,1868.266434999896,3.0,1.0,part_3,go,0.0,0.0,0.0,264.0,6.0,264.0,176.0,88.0,220.0,132.0,44.0,orange,square
0.0,7.0,3.0,1.0,7.0,4.0,2592.138850000083,3.0,1.0,part_3,go,0.0,0.0,0.0,176.0,4.0,220.0,44.0,88.0,176.0,264.0,132.0,green,flipped triangle
0.0,8.0,4.0,1.0,7.0,2.0,2308.566241000335,3.0,1.0,part_3,go,0.0,0.0,0.0,270.0,5.0,216.0,270.0,324.0,108.0,54.0,162.0,orange,square
0.0,2.0,2.0,0.0,7.0,1.0,2000.0562180002817,3.0,1.0,part_3,go,0.0,0.0,0.0,108.0,2.0,108.0,324.0,270.0,216.0,54.0,162.0,blue,circle
0.0,4.0,4.0,0.0,7.0,1.0,1658.861945999888,3.0,1.0,part_3,go,0.0,0.0,0.0,44.0,1.0,44.0,132.0,176.0,88.0,220.0,264.0,magenta,diamond
0.0,8.0,4.0,1.0,7.0,5.0,2280.499112999678,3.0,1.0,part_3,go,0.0,0.0,0.0,136.0,4.0,102.0,68.0,34.0,170.0,136.0,204.0,orange,square
0.0,1.0,1.0,0.0,7.0,5.0,1671.61261199999,3.0,1.0,part_3,go,0.0,0.0,0.0,196.0,4.0,98.0,245.0,294.0,147.0,196.0,49.0,cyan,I
0.0,1.0,1.0,0.0,7.0,3.0,1248.9982329998384,3.0,1.0,part_3,go,0.0,0.0,0.0,156.0,4.0,78.0,234.0,156.0,39.0,195.0,117.0,cyan,I
0.0,4.0,4.0,0.0,7.0,3.0,2217.4164590005603,3.0,1.0,part_3,go,0.0,0.0,0.0,204.0,6.0,34.0,68.0,204.0,102.0,136.0,170.0,magenta,diamond
0.0,8.0,4.0,1.0,7.0,3.0,1317.3196100005953,3.0,1.0,part_3,go,0.0,0.0,0.0,294.0,6.0,245.0,98.0,294.0,49.0,147.0,196.0,orange,square
0.0,7.0,3.0,1.0,7.0,2.0,1263.4906140001476,3.0,1.0,part_3,go,0.0,0.0,0.0,136.0,4.0,68.0,136.0,170.0,204.0,102.0,34.0,green,flipped triangle
0.0,8.0,4.0,1.0,7.0,3.0,2908.81953600001,3.0,1.0,part_3,go,0.0,0.0,0.0,270.0,5.0,162.0,324.0,270.0,54.0,108.0,216.0,orange,square
0.0,2.0,2.0,0.0,7.0,6.0,1737.9407429998537,3.0,1.0,part_3,go,0.0,0.0,0.0,132.0,3.0,88.0,264.0,176.0,220.0,44.0,132.0,blue,circle
0.0,3.0,3.0,0.0,7.0,6.0,1851.0359069996412,4.0,1.0,part_3,go,0.0,0.0,0.0,68.0,2.0,204.0,170.0,102.0,136.0,34.0,68.0,gray,hexagon
0.0,4.0,4.0,0.0,7.0,2.0,1953.5263440002384,4.0,1.0,part_3,go,0.0,0.0,0.0,117.0,3.0,156.0,117.0,78.0,195.0,39.0,234.0,magenta,diamond
0.0,4.0,4.0,0.0,7.0,6.0,2309.5255270000052,4.0,1.0,part_3,go,0.0,0.0,0.0,54.0,1.0,216.0,162.0,324.0,108.0,270.0,54.0,magenta,diamond
0.0,3.0,3.0,0.0,7.0,5.0,1450.9901760002322,4.0,1.0,part_3,go,0.0,0.0,0.0,98.0,2.0,49.0,294.0,147.0,196.0,98.0,245.0,gray,hexagon
0.0,1.0,1.0,0.0,7.0,4.0,1960.041825999724,4.0,1.0,part_3,go,0.0,0.0,0.0,132.0,3.0,88.0,44.0,176.0,132.0,264.0,220.0,cyan,I
0.0,4.0,4.0,0.0,7.0,1.0,2637.8642239997134,4.0,1.0,part_3,go,0.0,0.0,0.0,216.0,4.0,216.0,270.0,324.0,54.0,162.0,108.0,magenta,diamond
0.0,4.0,4.0,0.0,7.0,6.0,2468.545297999299,4.0,1.0,part_3,go,0.0,0.0,0.0,195.0,5.0,156.0,117.0,234.0,39.0,78.0,195.0,magenta,diamond
0.0,5.0,1.0,1.0,7.0,3.0,1628.1743320005262,4.0,1.0,part_3,go,0.0,0.0,0.0,204.0,6.0,34.0,68.0,204.0,102.0,136.0,170.0,white,triangle
0.0,1.0,1.0,0.0,7.0,1.0,2062.049166000179,4.0,1.0,part_3,go,0.0,0.0,0.0,170.0,5.0,170.0,102.0,34.0,204.0,68.0,136.0,cyan,I
0.0,7.0,3.0,1.0,7.0,3.0,2821.170915000039,4.0,1.0,part_3,go,0.0,0.0,0.0,245.0,5.0,196.0,294.0,245.0,98.0,147.0,49.0,green,flipped triangle
0.0,6.0,2.0,1.0,7.0,1.0,2142.043341000317,4.0,1.0,part_3,go,0.0,0.0,0.0,102.0,3.0,102.0,68.0,170.0,204.0,136.0,34.0,yellow,cross
0.0,7.0,3.0,1.0,7.0,3.0,2187.4727419999545,4.0,1.0,part_3,go,0.0,0.0,0.0,136.0,4.0,170.0,68.0,136.0,34.0,102.0,204.0,green,flipped triangle
0.0,2.0,2.0,0.0,7.0,6.0,2120.5755999999383,4.0,1.0,part_3,go,0.0,0.0,0.0,102.0,3.0,136.0,68.0,170.0,34.0,204.0,102.0,blue,circle
0.0,6.0,2.0,1.0,7.0,4.0,1606.0212330003196,4.0,1.0,part_3,go,0.0,0.0,0.0,216.0,4.0,54.0,270.0,108.0,216.0,324.0,162.0,yellow,cross
0.0,7.0,3.0,1.0,7.0,3.0,2300.5088709996926,4.0,1.0,part_3,go,0.0,0.0,0.0,108.0,2.0,162.0,54.0,108.0,324.0,270.0,216.0,green,flipped triangle
0.0,6.0,2.0,1.0,7.0,2.0,1642.3518669998884,4.0,1.0,part_3,go,0.0,0.0,0.0,196.0,4.0,49.0,196.0,98.0,294.0,245.0,147.0,yellow,cross
0.0,3.0,3.0,0.0,7.0,2.0,1770.7868570005303,4.0,1.0,part_3,go,0.0,0.0,0.0,117.0,3.0,39.0,117.0,234.0,78.0,156.0,195.0,gray,hexagon
0.0,2.0,2.0,0.0,7.0,4.0,1734.725052999238,4.0,1.0,part_3,go,0.0,0.0,0.0,108.0,2.0,324.0,54.0,216.0,108.0,162.0,270.0,blue,circle
0.0,8.0,4.0,1.0,7.0,4.0,1286.4707290000297,4.0,1.0,part_3,go,0.0,0.0,0.0,195.0,5.0,156.0,78.0,39.0,195.0,234.0,117.0,orange,square
0.0,3.0,3.0,0.0,7.0,5.0,1791.5582050000012,4.0,1.0,part_3,go,0.0,0.0,0.0,220.0,5.0,44.0,176.0,132.0,88.0,220.0,264.0,gray,hexagon
