raw_reward_magnitude,stim_reward,stepwise_reward_magnitude,paired_with_stopping,quadrant,response,reaction_time,block,num_trial_presentations,which_part,stop_signal_trial_type,left_SSD,right_SSD,accuracy,chosen_bidding_amount,chosen_bidding_level,possible_bid_1,possible_bid_2,possible_bid_3,possible_bid_4,possible_bid_5,possible_bid_6,color_text,shape_text
54.0,1.0,1.0,0.0,4.0,4.0,348.1670589999339,1.0,1.0,part_1,,,,,,,,,,,,,green,triangle
223.0,3.0,3.0,0.0,3.0,3.0,412.6418109999576,1.0,1.0,part_1,,,,,,,,,,,,,blue,square
0.0,4.0,0.0,0.0,1.0,1.0,367.1308460000091,1.0,1.0,part_1,,,,,,,,,,,,,cyan,hexagon
0.0,1.0,0.0,0.0,3.0,3.0,324.399652000011,1.0,1.0,part_1,,,,,,,,,,,,,green,triangle
211.0,7.0,3.0,1.0,1.0,1.0,434.9113329999454,1.0,1.0,part_1,,,,,,,,,,,,,white,flipped triangle
55.0,1.0,1.0,0.0,4.0,4.0,345.6572500001584,1.0,1.0,part_1,,,,,,,,,,,,,green,triangle
216.0,3.0,3.0,0.0,2.0,2.0,455.6474800001524,1.0,1.0,part_1,,,,,,,,,,,,,blue,square
0.0,1.0,0.0,0.0,4.0,4.0,426.7252009999538,1.0,1.0,part_1,,,,,,,,,,,,,green,triangle
0.0,6.0,0.0,1.0,3.0,3.0,485.9072940000715,1.0,1.0,part_1,,,,,,,,,,,,,gray,cross
198.0,7.0,3.0,1.0,1.0,1.0,327.5627119999171,1.0,1.0,part_1,,,,,,,,,,,,,white,flipped triangle
224.0,7.0,3.0,1.0,4.0,4.0,389.6056849998786,1.0,1.0,part_1,,,,,,,,,,,,,white,flipped triangle
0.0,3.0,0.0,0.0,2.0,2.0,314.7110080001312,1.0,1.0,part_1,,,,,,,,,,,,,blue,square
41.0,1.0,1.0,0.0,2.0,2.0,436.91383700002,1.0,1.0,part_1,,,,,,,,,,,,,green,triangle
190.0,7.0,3.0,1.0,4.0,4.0,395.4051720002098,1.0,1.0,part_1,,,,,,,,,,,,,white,flipped triangle
177.0,7.0,3.0,1.0,4.0,4.0,340.1187630001914,1.0,1.0,part_1,,,,,,,,,,,,,white,flipped triangle
116.0,6.0,2.0,1.0,3.0,3.0,353.19663700011,1.0,1.0,part_1,,,,,,,,,,,,,gray,cross
120.0,6.0,2.0,1.0,1.0,1.0,364.7053890001643,1.0,1.0,part_1,,,,,,,,,,,,,gray,cross
44.0,5.0,1.0,1.0,1.0,1.0,392.1458679999432,1.0,1.0,part_1,,,,,,,,,,,,,magenta,circle
183.0,3.0,3.0,0.0,3.0,3.0,330.0276140000733,1.0,1.0,part_1,,,,,,,,,,,,,blue,square
376.0,8.0,4.0,1.0,2.0,2.0,328.0051420001655,1.0,1.0,part_1,,,,,,,,,,,,,orange,diamond
0.0,7.0,0.0,1.0,1.0,1.0,313.4985660001348,1.0,1.0,part_1,,,,,,,,,,,,,white,flipped triangle
63.0,1.0,1.0,0.0,2.0,2.0,453.078602000005,1.0,1.0,part_1,,,,,,,,,,,,,green,triangle
107.0,6.0,2.0,1.0,3.0,3.0,504.7960330000478,1.0,1.0,part_1,,,,,,,,,,,,,gray,cross
198.0,3.0,3.0,0.0,3.0,3.0,431.3098049999553,1.0,1.0,part_1,,,,,,,,,,,,,blue,square
0.0,5.0,0.0,1.0,1.0,1.0,305.2340819999699,1.0,1.0,part_1,,,,,,,,,,,,,magenta,circle
184.0,3.0,3.0,0.0,1.0,1.0,362.9713769998943,1.0,1.0,part_1,,,,,,,,,,,,,blue,square
93.0,2.0,2.0,0.0,4.0,4.0,327.2004630000538,1.0,1.0,part_1,,,,,,,,,,,,,yellow,I
103.0,2.0,2.0,0.0,3.0,3.0,395.4230770000322,1.0,1.0,part_1,,,,,,,,,,,,,yellow,I
89.0,2.0,2.0,0.0,4.0,4.0,376.9980669999313,1.0,1.0,part_1,,,,,,,,,,,,,yellow,I
391.0,8.0,4.0,1.0,3.0,3.0,352.4796730000616,1.0,1.0,part_1,,,,,,,,,,,,,orange,diamond
27.0,5.0,1.0,1.0,2.0,2.0,335.3442910001831,1.0,1.0,part_1,,,,,,,,,,,,,magenta,circle
379.0,8.0,4.0,1.0,1.0,1.0,341.692723000051,1.0,1.0,part_1,,,,,,,,,,,,,orange,diamond
0.0,1.0,0.0,0.0,4.0,4.0,303.7084479999521,1.0,1.0,part_1,,,,,,,,,,,,,green,triangle
0.0,7.0,0.0,1.0,1.0,1.0,436.1919399998442,1.0,1.0,part_1,,,,,,,,,,,,,white,flipped triangle
48.0,1.0,1.0,0.0,1.0,1.0,451.7007400002057,1.0,1.0,part_1,,,,,,,,,,,,,green,triangle
181.0,3.0,3.0,0.0,4.0,4.0,272.1798069999295,1.0,1.0,part_1,,,,,,,,,,,,,blue,square
214.0,3.0,3.0,0.0,4.0,4.0,477.9322759998194,1.0,1.0,part_1,,,,,,,,,,,,,blue,square
0.0,1.0,0.0,0.0,4.0,4.0,301.3466759998664,1.0,1.0,part_1,,,,,,,,,,,,,green,triangle
181.0,7.0,3.0,1.0,1.0,1.0,335.2951850001773,1.0,1.0,part_1,,,,,,,,,,,,,white,flipped triangle
66.0,5.0,1.0,1.0,3.0,3.0,380.7113709999612,1.0,1.0,part_1,,,,,,,,,,,,,magenta,circle
59.0,5.0,1.0,1.0,3.0,3.0,425.4519690000506,1.0,1.0,part_1,,,,,,,,,,,,,magenta,circle
424.0,8.0,4.0,1.0,4.0,4.0,309.34768599991,1.0,1.0,part_1,,,,,,,,,,,,,orange,diamond
188.0,7.0,3.0,1.0,2.0,2.0,286.6840029998911,1.0,1.0,part_1,,,,,,,,,,,,,white,flipped triangle
0.0,1.0,0.0,0.0,1.0,1.0,246.4276670000345,1.0,1.0,part_1,,,,,,,,,,,,,green,triangle
399.0,8.0,4.0,1.0,4.0,4.0,347.24234600003,1.0,1.0,part_1,,,,,,,,,,,,,orange,diamond
0.0,7.0,0.0,1.0,4.0,4.0,380.0168929999472,1.0,1.0,part_1,,,,,,,,,,,,,white,flipped triangle
0.0,6.0,0.0,1.0,4.0,4.0,391.2249929999234,1.0,1.0,part_1,,,,,,,,,,,,,gray,cross
211.0,3.0,3.0,0.0,1.0,1.0,286.1289790000683,1.0,1.0,part_1,,,,,,,,,,,,,blue,square
0.0,6.0,0.0,1.0,2.0,2.0,371.5005270000802,1.0,1.0,part_1,,,,,,,,,,,,,gray,cross
0.0,4.0,0.0,0.0,2.0,2.0,384.384903000182,1.0,1.0,part_1,,,,,,,,,,,,,cyan,hexagon
93.0,6.0,2.0,1.0,1.0,1.0,383.3900479999101,1.0,1.0,part_1,,,,,,,,,,,,,gray,cross
0.0,8.0,0.0,1.0,2.0,2.0,281.7485150001175,1.0,1.0,part_1,,,,,,,,,,,,,orange,diamond
0.0,3.0,0.0,0.0,3.0,3.0,408.992107000131,1.0,1.0,part_1,,,,,,,,,,,,,blue,square
120.0,2.0,2.0,0.0,2.0,2.0,350.8954769999945,1.0,1.0,part_1,,,,,,,,,,,,,yellow,I
101.0,6.0,2.0,1.0,1.0,1.0,301.8543149999004,1.0,1.0,part_1,,,,,,,,,,,,,gray,cross
0.0,5.0,0.0,1.0,1.0,1.0,430.1191629999721,1.0,1.0,part_1,,,,,,,,,,,,,magenta,circle
71.0,1.0,1.0,0.0,3.0,3.0,370.2363669999613,1.0,1.0,part_1,,,,,,,,,,,,,green,triangle
0.0,2.0,0.0,0.0,3.0,3.0,358.9193719999457,1.0,1.0,part_1,,,,,,,,,,,,,yellow,I
176.0,7.0,3.0,1.0,3.0,3.0,370.8188359998985,1.0,1.0,part_1,,,,,,,,,,,,,white,flipped triangle
416.0,4.0,4.0,0.0,3.0,3.0,358.3859389998451,1.0,1.0,part_1,,,,,,,,,,,,,cyan,hexagon
0.0,4.0,0.0,0.0,2.0,2.0,425.8391799999117,1.0,1.0,part_1,,,,,,,,,,,,,cyan,hexagon
384.0,4.0,4.0,0.0,4.0,4.0,353.78699400007457,1.0,1.0,part_1,,,,,,,,,,,,,cyan,hexagon
376.0,8.0,4.0,1.0,4.0,4.0,415.6138910000209,1.0,1.0,part_1,,,,,,,,,,,,,orange,diamond
406.0,4.0,4.0,0.0,1.0,1.0,401.6589640000347,1.0,1.0,part_1,,,,,,,,,,,,,cyan,hexagon
404.0,4.0,4.0,0.0,4.0,4.0,298.7184510000134,1.0,1.0,part_1,,,,,,,,,,,,,cyan,hexagon
49.0,1.0,1.0,0.0,1.0,1.0,348.7818140001764,1.0,1.0,part_1,,,,,,,,,,,,,green,triangle
74.0,5.0,1.0,1.0,1.0,1.0,478.3094020001499,1.0,1.0,part_1,,,,,,,,,,,,,magenta,circle
393.0,4.0,4.0,0.0,1.0,1.0,428.6306330000116,1.0,1.0,part_1,,,,,,,,,,,,,cyan,hexagon
114.0,2.0,2.0,0.0,3.0,3.0,302.5852289999875,1.0,1.0,part_1,,,,,,,,,,,,,yellow,I
0.0,8.0,0.0,1.0,3.0,3.0,392.2898250000344,1.0,1.0,part_1,,,,,,,,,,,,,orange,diamond
120.0,2.0,2.0,0.0,2.0,2.0,351.7092059998958,1.0,1.0,part_1,,,,,,,,,,,,,yellow,I
216.0,7.0,3.0,1.0,1.0,1.0,269.7038940000311,1.0,1.0,part_1,,,,,,,,,,,,,white,flipped triangle
408.0,8.0,4.0,1.0,1.0,1.0,345.0961509997796,1.0,1.0,part_1,,,,,,,,,,,,,orange,diamond
0.0,6.0,0.0,1.0,4.0,4.0,289.9352409999665,1.0,1.0,part_1,,,,,,,,,,,,,gray,cross
90.0,6.0,2.0,1.0,4.0,4.0,376.5168320001066,1.0,1.0,part_1,,,,,,,,,,,,,gray,cross
81.0,6.0,2.0,1.0,4.0,4.0,364.7801590000199,1.0,1.0,part_1,,,,,,,,,,,,,gray,cross
391.0,4.0,4.0,0.0,1.0,1.0,408.7924749999274,1.0,1.0,part_1,,,,,,,,,,,,,cyan,hexagon
0.0,2.0,0.0,0.0,2.0,2.0,328.1043180002143,1.0,1.0,part_1,,,,,,,,,,,,,yellow,I
206.0,7.0,3.0,1.0,1.0,1.0,292.6426559999981,1.0,1.0,part_1,,,,,,,,,,,,,white,flipped triangle
0.0,7.0,0.0,1.0,1.0,1.0,338.696796999784,1.0,1.0,part_1,,,,,,,,,,,,,white,flipped triangle
211.0,7.0,3.0,1.0,1.0,1.0,335.4098769998472,1.0,1.0,part_1,,,,,,,,,,,,,white,flipped triangle
101.0,2.0,2.0,0.0,4.0,4.0,332.3665039999923,1.0,1.0,part_1,,,,,,,,,,,,,yellow,I
379.0,4.0,4.0,0.0,1.0,1.0,403.0027670000891,1.0,1.0,part_1,,,,,,,,,,,,,cyan,hexagon
204.0,7.0,3.0,1.0,4.0,4.0,388.7049570000727,1.0,1.0,part_1,,,,,,,,,,,,,white,flipped triangle
27.0,1.0,1.0,0.0,3.0,3.0,389.1055510000569,1.0,1.0,part_1,,,,,,,,,,,,,green,triangle
120.0,6.0,2.0,1.0,3.0,3.0,411.6939789998923,1.0,1.0,part_1,,,,,,,,,,,,,gray,cross
75.0,2.0,2.0,0.0,4.0,4.0,266.6882770001848,1.0,1.0,part_1,,,,,,,,,,,,,yellow,I
194.0,7.0,3.0,1.0,2.0,2.0,391.1839449999661,1.0,1.0,part_1,,,,,,,,,,,,,white,flipped triangle
115.0,6.0,2.0,1.0,3.0,3.0,505.49767300003623,1.0,1.0,part_1,,,,,,,,,,,,,gray,cross
116.0,2.0,2.0,0.0,2.0,2.0,335.8169549999275,1.0,1.0,part_1,,,,,,,,,,,,,yellow,I
0.0,2.0,0.0,0.0,2.0,2.0,340.530383999976,1.0,1.0,part_1,,,,,,,,,,,,,yellow,I
0.0,3.0,0.0,0.0,3.0,3.0,330.770824999945,1.0,1.0,part_1,,,,,,,,,,,,,blue,square
0.0,8.0,0.0,1.0,2.0,2.0,355.1779669999177,1.0,1.0,part_1,,,,,,,,,,,,,orange,diamond
203.0,3.0,3.0,0.0,1.0,1.0,536.0984670001017,1.0,1.0,part_1,,,,,,,,,,,,,blue,square
176.0,3.0,3.0,0.0,2.0,2.0,452.9990429998634,1.0,1.0,part_1,,,,,,,,,,,,,blue,square
82.0,2.0,2.0,0.0,4.0,4.0,370.5721680000806,1.0,1.0,part_1,,,,,,,,,,,,,yellow,I
101.0,6.0,2.0,1.0,2.0,2.0,401.3225539999894,1.0,1.0,part_1,,,,,,,,,,,,,gray,cross
390.0,4.0,4.0,0.0,3.0,3.0,484.349844999997,1.0,1.0,part_1,,,,,,,,,,,,,cyan,hexagon
192.0,7.0,3.0,1.0,2.0,2.0,397.9255029998967,1.0,1.0,part_1,,,,,,,,,,,,,white,flipped triangle
0.0,4.0,0.0,0.0,4.0,4.0,241.919856000095,1.0,1.0,part_1,,,,,,,,,,,,,cyan,hexagon
31.0,5.0,1.0,1.0,2.0,2.0,487.530678999974,2.0,1.0,part_1,,,,,,,,,,,,,magenta,circle
0.0,5.0,0.0,1.0,1.0,1.0,290.7127700000274,2.0,1.0,part_1,,,,,,,,,,,,,magenta,circle
71.0,5.0,1.0,1.0,3.0,3.0,340.5742510001346,2.0,1.0,part_1,,,,,,,,,,,,,magenta,circle
64.0,1.0,1.0,0.0,1.0,1.0,417.1005139999124,2.0,1.0,part_1,,,,,,,,,,,,,green,triangle
208.0,3.0,3.0,0.0,4.0,4.0,372.6130659999853,2.0,1.0,part_1,,,,,,,,,,,,,blue,square
101.0,2.0,2.0,0.0,1.0,1.0,378.5608699997738,2.0,1.0,part_1,,,,,,,,,,,,,yellow,I
187.0,3.0,3.0,0.0,3.0,3.0,313.6895200000253,2.0,1.0,part_1,,,,,,,,,,,,,blue,square
74.0,1.0,1.0,0.0,1.0,1.0,347.0428560003711,2.0,1.0,part_1,,,,,,,,,,,,,green,triangle
378.0,4.0,4.0,0.0,2.0,2.0,359.8606179998569,2.0,1.0,part_1,,,,,,,,,,,,,cyan,hexagon
176.0,7.0,3.0,1.0,3.0,3.0,545.3861529999813,2.0,1.0,part_1,,,,,,,,,,,,,white,flipped triangle
73.0,1.0,1.0,0.0,3.0,3.0,648.578599999837,2.0,1.0,part_1,,,,,,,,,,,,,green,triangle
0.0,8.0,0.0,1.0,1.0,1.0,356.0325480002575,2.0,1.0,part_1,,,,,,,,,,,,,orange,diamond
417.0,4.0,4.0,0.0,3.0,3.0,499.4709520001379,2.0,1.0,part_1,,,,,,,,,,,,,cyan,hexagon
403.0,8.0,4.0,1.0,3.0,3.0,359.6976879998692,2.0,1.0,part_1,,,,,,,,,,,,,orange,diamond
34.0,5.0,1.0,1.0,2.0,2.0,366.3788620001469,2.0,1.0,part_1,,,,,,,,,,,,,magenta,circle
41.0,5.0,1.0,1.0,1.0,1.0,295.1734609996492,2.0,1.0,part_1,,,,,,,,,,,,,magenta,circle
74.0,1.0,1.0,0.0,2.0,2.0,305.9633769998982,2.0,1.0,part_1,,,,,,,,,,,,,green,triangle
408.0,4.0,4.0,0.0,2.0,2.0,469.8355989999072,2.0,1.0,part_1,,,,,,,,,,,,,cyan,hexagon
404.0,8.0,4.0,1.0,4.0,4.0,414.5709489998808,2.0,1.0,part_1,,,,,,,,,,,,,orange,diamond
87.0,2.0,2.0,0.0,3.0,3.0,326.9128370002363,2.0,1.0,part_1,,,,,,,,,,,,,yellow,I
376.0,4.0,4.0,0.0,3.0,3.0,379.6974789997875,2.0,1.0,part_1,,,,,,,,,,,,,cyan,hexagon
0.0,2.0,0.0,0.0,1.0,1.0,301.4021250000951,2.0,1.0,part_1,,,,,,,,,,,,,yellow,I
95.0,2.0,2.0,0.0,1.0,1.0,444.2927299996881,2.0,1.0,part_1,,,,,,,,,,,,,yellow,I
395.0,8.0,4.0,1.0,4.0,4.0,498.2674570001109,2.0,1.0,part_1,,,,,,,,,,,,,orange,diamond
207.0,7.0,3.0,1.0,3.0,3.0,393.9684199999647,2.0,1.0,part_1,,,,,,,,,,,,,white,flipped triangle
47.0,5.0,1.0,1.0,4.0,4.0,308.6276359999829,2.0,1.0,part_1,,,,,,,,,,,,,magenta,circle
404.0,8.0,4.0,1.0,1.0,1.0,454.3306539999321,2.0,1.0,part_1,,,,,,,,,,,,,orange,diamond
412.0,8.0,4.0,1.0,2.0,2.0,340.3518740001345,2.0,1.0,part_1,,,,,,,,,,,,,orange,diamond
422.0,4.0,4.0,0.0,3.0,3.0,425.6330909997814,2.0,1.0,part_1,,,,,,,,,,,,,cyan,hexagon
207.0,3.0,3.0,0.0,1.0,1.0,434.2453060003208,2.0,1.0,part_1,,,,,,,,,,,,,blue,square
201.0,3.0,3.0,0.0,2.0,2.0,317.0437150001817,2.0,1.0,part_1,,,,,,,,,,,,,blue,square
31.0,1.0,1.0,0.0,3.0,3.0,391.2237609997646,2.0,1.0,part_1,,,,,,,,,,,,,green,triangle
203.0,7.0,3.0,1.0,3.0,3.0,498.0787990002682,2.0,1.0,part_1,,,,,,,,,,,,,white,flipped triangle
0.0,1.0,0.0,0.0,4.0,4.0,502.69223600025725,2.0,1.0,part_1,,,,,,,,,,,,,green,triangle
384.0,8.0,4.0,1.0,1.0,1.0,406.8439300003774,2.0,1.0,part_1,,,,,,,,,,,,,orange,diamond
52.0,5.0,1.0,1.0,2.0,2.0,547.2471819998646,2.0,1.0,part_1,,,,,,,,,,,,,magenta,circle
404.0,8.0,4.0,1.0,2.0,2.0,757.5569800001176,2.0,1.0,part_1,,,,,,,,,,,,,orange,diamond
399.0,4.0,4.0,0.0,1.0,1.0,563.4081879998121,2.0,1.0,part_1,,,,,,,,,,,,,cyan,hexagon
57.0,5.0,1.0,1.0,2.0,2.0,319.4639319999623,2.0,1.0,part_1,,,,,,,,,,,,,magenta,circle
86.0,6.0,2.0,1.0,2.0,2.0,352.0891279999887,2.0,1.0,part_1,,,,,,,,,,,,,gray,cross
72.0,1.0,1.0,0.0,2.0,2.0,365.5881989998306,2.0,1.0,part_1,,,,,,,,,,,,,green,triangle
84.0,6.0,2.0,1.0,2.0,2.0,341.2951909999719,2.0,1.0,part_1,,,,,,,,,,,,,gray,cross
31.0,5.0,1.0,1.0,1.0,1.0,343.8444119997257,2.0,1.0,part_1,,,,,,,,,,,,,magenta,circle
191.0,7.0,3.0,1.0,3.0,3.0,424.0173970001706,2.0,1.0,part_1,,,,,,,,,,,,,white,flipped triangle
118.0,6.0,2.0,1.0,1.0,1.0,393.8653879999947,2.0,1.0,part_1,,,,,,,,,,,,,gray,cross
221.0,7.0,3.0,1.0,2.0,2.0,493.2763370002249,2.0,1.0,part_1,,,,,,,,,,,,,white,flipped triangle
95.0,2.0,2.0,0.0,2.0,2.0,330.8050789996741,2.0,1.0,part_1,,,,,,,,,,,,,yellow,I
37.0,5.0,1.0,1.0,1.0,1.0,451.6592899999523,2.0,1.0,part_1,,,,,,,,,,,,,magenta,circle
79.0,2.0,2.0,0.0,4.0,4.0,358.8228339999659,2.0,1.0,part_1,,,,,,,,,,,,,yellow,I
416.0,8.0,4.0,1.0,3.0,3.0,468.1310749997465,2.0,1.0,part_1,,,,,,,,,,,,,orange,diamond
411.0,4.0,4.0,0.0,2.0,2.0,341.515979000178,2.0,1.0,part_1,,,,,,,,,,,,,cyan,hexagon
177.0,3.0,3.0,0.0,3.0,3.0,328.2848759999979,2.0,1.0,part_1,,,,,,,,,,,,,blue,square
37.0,1.0,1.0,0.0,2.0,2.0,328.6505360001683,2.0,1.0,part_1,,,,,,,,,,,,,green,triangle
72.0,5.0,1.0,1.0,4.0,4.0,291.9655290002083,2.0,1.0,part_1,,,,,,,,,,,,,magenta,circle
380.0,8.0,4.0,1.0,3.0,3.0,470.9693439999682,2.0,1.0,part_1,,,,,,,,,,,,,orange,diamond
208.0,7.0,3.0,1.0,1.0,1.0,483.7144079997415,2.0,1.0,part_1,,,,,,,,,,,,,white,flipped triangle
34.0,5.0,1.0,1.0,2.0,2.0,532.6126830000248,2.0,1.0,part_1,,,,,,,,,,,,,magenta,circle
55.0,5.0,1.0,1.0,3.0,3.0,581.5671370000928,2.0,1.0,part_1,,,,,,,,,,,,,magenta,circle
48.0,5.0,1.0,1.0,4.0,4.0,352.3872589998973,2.0,1.0,part_1,,,,,,,,,,,,,magenta,circle
119.0,2.0,2.0,0.0,3.0,3.0,503.9424629999303,2.0,1.0,part_1,,,,,,,,,,,,,yellow,I
108.0,6.0,2.0,1.0,1.0,1.0,386.0199690002446,2.0,1.0,part_1,,,,,,,,,,,,,gray,cross
376.0,4.0,4.0,0.0,2.0,2.0,312.2680830001627,2.0,1.0,part_1,,,,,,,,,,,,,cyan,hexagon
0.0,2.0,0.0,0.0,4.0,4.0,365.9646309997697,2.0,1.0,part_1,,,,,,,,,,,,,yellow,I
97.0,6.0,2.0,1.0,4.0,4.0,446.7813400001432,2.0,1.0,part_1,,,,,,,,,,,,,gray,cross
115.0,2.0,2.0,0.0,1.0,1.0,438.9731810001649,2.0,2.0,part_1,,,,,,,,,,,,,yellow,I
214.0,7.0,3.0,1.0,3.0,3.0,430.459461999817,2.0,1.0,part_1,,,,,,,,,,,,,white,flipped triangle
198.0,7.0,3.0,1.0,3.0,3.0,453.4656290002203,2.0,1.0,part_1,,,,,,,,,,,,,white,flipped triangle
184.0,7.0,3.0,1.0,2.0,2.0,406.1780719998751,2.0,1.0,part_1,,,,,,,,,,,,,white,flipped triangle
0.0,4.0,0.0,0.0,2.0,2.0,394.7657730000173,2.0,1.0,part_1,,,,,,,,,,,,,cyan,hexagon
103.0,6.0,2.0,1.0,3.0,3.0,392.8422899998622,2.0,1.0,part_1,,,,,,,,,,,,,gray,cross
0.0,6.0,0.0,1.0,3.0,3.0,512.6988860001802,2.0,1.0,part_1,,,,,,,,,,,,,gray,cross
381.0,4.0,4.0,0.0,1.0,1.0,420.330980000017,2.0,1.0,part_1,,,,,,,,,,,,,cyan,hexagon
406.0,8.0,4.0,1.0,1.0,1.0,416.3675609997881,2.0,1.0,part_1,,,,,,,,,,,,,orange,diamond
57.0,1.0,1.0,0.0,2.0,2.0,438.0236130000412,2.0,1.0,part_1,,,,,,,,,,,,,green,triangle
34.0,1.0,1.0,0.0,1.0,1.0,414.2586059997484,2.0,1.0,part_1,,,,,,,,,,,,,green,triangle
393.0,8.0,4.0,1.0,1.0,1.0,418.5520989999531,2.0,1.0,part_1,,,,,,,,,,,,,orange,diamond
0.0,6.0,0.0,1.0,2.0,2.0,532.3202020003919,2.0,1.0,part_1,,,,,,,,,,,,,gray,cross
413.0,4.0,4.0,0.0,2.0,2.0,452.7471080000396,2.0,1.0,part_1,,,,,,,,,,,,,cyan,hexagon
103.0,6.0,2.0,1.0,4.0,4.0,431.9113950000428,2.0,1.0,part_1,,,,,,,,,,,,,gray,cross
83.0,2.0,2.0,0.0,2.0,2.0,430.8355370003482,2.0,1.0,part_1,,,,,,,,,,,,,yellow,I
190.0,3.0,3.0,0.0,2.0,2.0,490.6596179998814,2.0,1.0,part_1,,,,,,,,,,,,,blue,square
218.0,7.0,3.0,1.0,3.0,3.0,368.2033929999306,2.0,1.0,part_1,,,,,,,,,,,,,white,flipped triangle
27.0,1.0,1.0,0.0,1.0,1.0,381.2720810001337,2.0,1.0,part_1,,,,,,,,,,,,,green,triangle
395.0,4.0,4.0,0.0,2.0,2.0,451.8757700002425,2.0,1.0,part_1,,,,,,,,,,,,,cyan,hexagon
69.0,1.0,1.0,0.0,1.0,1.0,467.1485710000524,2.0,1.0,part_1,,,,,,,,,,,,,green,triangle
0.0,7.0,0.0,1.0,2.0,2.0,432.7399119997608,2.0,1.0,part_1,,,,,,,,,,,,,white,flipped triangle
422.0,8.0,4.0,1.0,3.0,3.0,507.7548509998451,2.0,1.0,part_1,,,,,,,,,,,,,orange,diamond
73.0,5.0,1.0,1.0,4.0,4.0,476.8783109998367,2.0,1.0,part_1,,,,,,,,,,,,,magenta,circle
0.0,3.0,0.0,0.0,3.0,3.0,400.9446390000448,2.0,1.0,part_1,,,,,,,,,,,,,blue,square
50.0,5.0,1.0,1.0,3.0,3.0,470.0525629996264,2.0,1.0,part_1,,,,,,,,,,,,,magenta,circle
0.0,5.0,0.0,1.0,2.0,2.0,449.3697679999968,2.0,1.0,part_1,,,,,,,,,,,,,magenta,circle
382.0,4.0,4.0,0.0,1.0,1.0,340.0660709999101,2.0,1.0,part_1,,,,,,,,,,,,,cyan,hexagon
58.0,1.0,1.0,0.0,3.0,3.0,304.7179250002045,2.0,1.0,part_1,,,,,,,,,,,,,green,triangle
50.0,1.0,1.0,0.0,3.0,3.0,509.6148150000772,2.0,1.0,part_1,,,,,,,,,,,,,green,triangle
81.0,2.0,2.0,0.0,4.0,4.0,332.1017490002305,2.0,1.0,part_1,,,,,,,,,,,,,yellow,I
112.0,2.0,2.0,0.0,2.0,2.0,474.4626499996229,2.0,1.0,part_1,,,,,,,,,,,,,yellow,I
203.0,3.0,3.0,0.0,2.0,2.0,527.6777779999975,2.0,1.0,part_1,,,,,,,,,,,,,blue,square
0.0,7.0,0.0,1.0,4.0,4.0,346.958529999938,2.0,1.0,part_1,,,,,,,,,,,,,white,flipped triangle
36.0,1.0,1.0,0.0,1.0,1.0,356.8080320001172,2.0,1.0,part_1,,,,,,,,,,,,,green,triangle
0.0,1.0,0.0,0.0,3.0,3.0,440.5153719999362,2.0,1.0,part_1,,,,,,,,,,,,,green,triangle
27.0,5.0,1.0,1.0,3.0,3.0,411.9223289999354,3.0,1.0,part_1,,,,,,,,,,,,,magenta,circle
0.0,4.0,0.0,0.0,2.0,2.0,483.7411899998187,3.0,1.0,part_1,,,,,,,,,,,,,cyan,hexagon
421.0,4.0,4.0,0.0,4.0,4.0,529.7217140000612,3.0,1.0,part_1,,,,,,,,,,,,,cyan,hexagon
224.0,3.0,3.0,0.0,2.0,2.0,474.0304020001531,3.0,1.0,part_1,,,,,,,,,,,,,blue,square
0.0,3.0,0.0,0.0,3.0,3.0,380.1332479997654,3.0,1.0,part_1,,,,,,,,,,,,,blue,square
186.0,7.0,3.0,1.0,4.0,4.0,619.9493449998954,3.0,1.0,part_1,,,,,,,,,,,,,white,flipped triangle
56.0,1.0,1.0,0.0,3.0,3.0,376.0985109997818,3.0,1.0,part_1,,,,,,,,,,,,,green,triangle
36.0,5.0,1.0,1.0,2.0,2.0,391.6325569998662,3.0,1.0,part_1,,,,,,,,,,,,,magenta,circle
68.0,1.0,1.0,0.0,4.0,4.0,366.0490800002662,3.0,1.0,part_1,,,,,,,,,,,,,green,triangle
0.0,5.0,0.0,1.0,3.0,3.0,341.8394440000156,3.0,1.0,part_1,,,,,,,,,,,,,magenta,circle
421.0,8.0,4.0,1.0,2.0,2.0,426.8723049999607,3.0,1.0,part_1,,,,,,,,,,,,,orange,diamond
66.0,1.0,1.0,0.0,4.0,4.0,478.5408560001087,3.0,1.0,part_1,,,,,,,,,,,,,green,triangle
0.0,6.0,0.0,1.0,3.0,3.0,377.0474260004448,3.0,1.0,part_1,,,,,,,,,,,,,gray,cross
0.0,3.0,0.0,0.0,2.0,2.0,405.187332999958,3.0,1.0,part_1,,,,,,,,,,,,,blue,square
206.0,3.0,3.0,0.0,4.0,4.0,373.7632100001065,3.0,1.0,part_1,,,,,,,,,,,,,blue,square
217.0,7.0,3.0,1.0,2.0,2.0,631.9450910000342,3.0,1.0,part_1,,,,,,,,,,,,,white,flipped triangle
380.0,4.0,4.0,0.0,2.0,2.0,354.9976949998381,3.0,1.0,part_1,,,,,,,,,,,,,cyan,hexagon
112.0,2.0,2.0,0.0,1.0,1.0,402.9687190000004,3.0,1.0,part_1,,,,,,,,,,,,,yellow,I
0.0,3.0,0.0,0.0,3.0,3.0,372.5410480001301,3.0,1.0,part_1,,,,,,,,,,,,,blue,square
194.0,3.0,3.0,0.0,4.0,4.0,373.513415999696,3.0,1.0,part_1,,,,,,,,,,,,,blue,square
35.0,1.0,1.0,0.0,4.0,4.0,390.6591319996551,3.0,1.0,part_1,,,,,,,,,,,,,green,triangle
0.0,4.0,0.0,0.0,4.0,4.0,364.6166060002542,3.0,1.0,part_1,,,,,,,,,,,,,cyan,hexagon
178.0,7.0,3.0,1.0,2.0,2.0,350.057256999662,3.0,1.0,part_1,,,,,,,,,,,,,white,flipped triangle
0.0,5.0,0.0,1.0,2.0,2.0,418.7712109996937,3.0,1.0,part_1,,,,,,,,,,,,,magenta,circle
379.0,8.0,4.0,1.0,4.0,4.0,371.6232479996506,3.0,1.0,part_1,,,,,,,,,,,,,orange,diamond
378.0,4.0,4.0,0.0,1.0,1.0,417.6950560004115,3.0,1.0,part_1,,,,,,,,,,,,,cyan,hexagon
120.0,6.0,2.0,1.0,2.0,2.0,378.0496039998979,3.0,1.0,part_1,,,,,,,,,,,,,gray,cross
107.0,2.0,2.0,0.0,1.0,1.0,482.8929519999292,3.0,1.0,part_1,,,,,,,,,,,,,yellow,I
221.0,3.0,3.0,0.0,4.0,4.0,455.6622780000907,3.0,1.0,part_1,,,,,,,,,,,,,blue,square
114.0,6.0,2.0,1.0,1.0,1.0,420.1687579998179,3.0,1.0,part_1,,,,,,,,,,,,,gray,cross
389.0,8.0,4.0,1.0,2.0,2.0,424.8351169999296,3.0,1.0,part_1,,,,,,,,,,,,,orange,diamond
0.0,6.0,0.0,1.0,4.0,4.0,505.3746650000903,3.0,1.0,part_1,,,,,,,,,,,,,gray,cross
411.0,8.0,4.0,1.0,3.0,3.0,424.4146249998266,3.0,1.0,part_1,,,,,,,,,,,,,orange,diamond
120.0,2.0,2.0,0.0,3.0,3.0,410.9677060000649,3.0,1.0,part_1,,,,,,,,,,,,,yellow,I
381.0,8.0,4.0,1.0,4.0,4.0,389.6139769999536,3.0,1.0,part_1,,,,,,,,,,,,,orange,diamond
63.0,5.0,1.0,1.0,1.0,1.0,476.5451250000296,3.0,1.0,part_1,,,,,,,,,,,,,magenta,circle
54.0,5.0,1.0,1.0,4.0,4.0,382.3272849999739,3.0,1.0,part_1,,,,,,,,,,,,,magenta,circle
0.0,3.0,0.0,0.0,1.0,1.0,404.3425740001112,3.0,1.0,part_1,,,,,,,,,,,,,blue,square
86.0,2.0,2.0,0.0,3.0,3.0,372.2547269999268,3.0,1.0,part_1,,,,,,,,,,,,,yellow,I
0.0,5.0,0.0,1.0,2.0,2.0,506.32960199982335,3.0,1.0,part_1,,,,,,,,,,,,,magenta,circle
32.0,5.0,1.0,1.0,3.0,3.0,493.1710579999162,3.0,1.0,part_1,,,,,,,,,,,,,magenta,circle
95.0,6.0,2.0,1.0,3.0,3.0,382.0564510001532,3.0,1.0,part_1,,,,,,,,,,,,,gray,cross
209.0,3.0,3.0,0.0,2.0,2.0,339.6136599999408,3.0,1.0,part_1,,,,,,,,,,,,,blue,square
120.0,6.0,2.0,1.0,4.0,4.0,372.1624310001061,3.0,1.0,part_1,,,,,,,,,,,,,gray,cross
87.0,6.0,2.0,1.0,4.0,4.0,392.4486999999317,3.0,1.0,part_1,,,,,,,,,,,,,gray,cross
198.0,3.0,3.0,0.0,4.0,4.0,380.3383899999062,3.0,1.0,part_1,,,,,,,,,,,,,blue,square
412.0,4.0,4.0,0.0,3.0,3.0,352.43145000004,3.0,1.0,part_1,,,,,,,,,,,,,cyan,hexagon
0.0,7.0,0.0,1.0,3.0,3.0,344.0073679998932,3.0,1.0,part_1,,,,,,,,,,,,,white,flipped triangle
412.0,4.0,4.0,0.0,4.0,4.0,386.0264410000127,3.0,1.0,part_1,,,,,,,,,,,,,cyan,hexagon
382.0,8.0,4.0,1.0,3.0,3.0,383.27780300005537,3.0,1.0,part_1,,,,,,,,,,,,,orange,diamond
223.0,7.0,3.0,1.0,4.0,4.0,373.9359249998415,3.0,1.0,part_1,,,,,,,,,,,,,white,flipped triangle
0.0,8.0,0.0,1.0,2.0,2.0,282.1583159998226,3.0,1.0,part_1,,,,,,,,,,,,,orange,diamond
391.0,4.0,4.0,0.0,4.0,4.0,510.4326329997093,3.0,1.0,part_1,,,,,,,,,,,,,cyan,hexagon
186.0,3.0,3.0,0.0,3.0,3.0,398.5148359997765,3.0,1.0,part_1,,,,,,,,,,,,,blue,square
90.0,2.0,2.0,0.0,3.0,3.0,393.701086999954,3.0,1.0,part_1,,,,,,,,,,,,,yellow,I
378.0,8.0,4.0,1.0,3.0,3.0,335.1015550001648,3.0,1.0,part_1,,,,,,,,,,,,,orange,diamond
406.0,8.0,4.0,1.0,1.0,1.0,319.8881630000869,3.0,1.0,part_1,,,,,,,,,,,,,orange,diamond
78.0,6.0,2.0,1.0,2.0,2.0,363.8701170002605,3.0,1.0,part_1,,,,,,,,,,,,,gray,cross
80.0,2.0,2.0,0.0,1.0,1.0,446.1180150001382,3.0,1.0,part_1,,,,,,,,,,,,,yellow,I
176.0,3.0,3.0,0.0,4.0,4.0,472.4041119998219,3.0,1.0,part_1,,,,,,,,,,,,,blue,square
208.0,7.0,3.0,1.0,2.0,2.0,412.2948690001067,3.0,1.0,part_1,,,,,,,,,,,,,white,flipped triangle
118.0,2.0,2.0,0.0,4.0,4.0,392.0834440000362,3.0,1.0,part_1,,,,,,,,,,,,,yellow,I
62.0,5.0,1.0,1.0,2.0,2.0,455.1736749999691,3.0,1.0,part_1,,,,,,,,,,,,,magenta,circle
202.0,7.0,3.0,1.0,4.0,4.0,476.6146510000908,3.0,1.0,part_1,,,,,,,,,,,,,white,flipped triangle
391.0,8.0,4.0,1.0,3.0,3.0,643.7579099997492,3.0,1.0,part_1,,,,,,,,,,,,,orange,diamond
44.0,1.0,1.0,0.0,1.0,1.0,527.506207999977,3.0,1.0,part_1,,,,,,,,,,,,,green,triangle
421.0,8.0,4.0,1.0,2.0,2.0,356.7971079996823,3.0,1.0,part_1,,,,,,,,,,,,,orange,diamond
100.0,6.0,2.0,1.0,4.0,4.0,327.0287679997636,3.0,1.0,part_1,,,,,,,,,,,,,gray,cross
99.0,6.0,2.0,1.0,3.0,3.0,487.0652489998974,3.0,1.0,part_1,,,,,,,,,,,,,gray,cross
417.0,8.0,4.0,1.0,2.0,2.0,375.2766759998849,3.0,1.0,part_1,,,,,,,,,,,,,orange,diamond
192.0,3.0,3.0,0.0,2.0,2.0,437.4421809998239,3.0,1.0,part_1,,,,,,,,,,,,,blue,square
211.0,3.0,3.0,0.0,1.0,1.0,327.086417999908,3.0,1.0,part_1,,,,,,,,,,,,,blue,square
184.0,7.0,3.0,1.0,2.0,2.0,431.5844580000885,3.0,1.0,part_1,,,,,,,,,,,,,white,flipped triangle
100.0,2.0,2.0,0.0,4.0,4.0,483.5138319999714,3.0,1.0,part_1,,,,,,,,,,,,,yellow,I
218.0,3.0,3.0,0.0,4.0,4.0,364.790721999725,3.0,1.0,part_1,,,,,,,,,,,,,blue,square
421.0,4.0,4.0,0.0,2.0,2.0,439.9544170000808,3.0,1.0,part_1,,,,,,,,,,,,,cyan,hexagon
47.0,1.0,1.0,0.0,3.0,3.0,493.4644140003001,3.0,1.0,part_1,,,,,,,,,,,,,green,triangle
93.0,6.0,2.0,1.0,3.0,3.0,362.102498999775,3.0,1.0,part_1,,,,,,,,,,,,,gray,cross
75.0,6.0,2.0,1.0,1.0,1.0,462.6160029997663,3.0,1.0,part_1,,,,,,,,,,,,,gray,cross
187.0,7.0,3.0,1.0,3.0,3.0,549.2636230001153,3.0,1.0,part_1,,,,,,,,,,,,,white,flipped triangle
0.0,8.0,0.0,1.0,2.0,2.0,434.4687329999033,3.0,1.0,part_1,,,,,,,,,,,,,orange,diamond
407.0,8.0,4.0,1.0,2.0,2.0,325.8226670000113,3.0,1.0,part_1,,,,,,,,,,,,,orange,diamond
32.0,1.0,1.0,0.0,1.0,1.0,556.1271080000552,3.0,1.0,part_1,,,,,,,,,,,,,green,triangle
90.0,2.0,2.0,0.0,2.0,2.0,385.5721690001701,3.0,1.0,part_1,,,,,,,,,,,,,yellow,I
183.0,7.0,3.0,1.0,2.0,2.0,405.8365930000036,3.0,1.0,part_1,,,,,,,,,,,,,white,flipped triangle
212.0,7.0,3.0,1.0,4.0,4.0,373.6626429999887,3.0,1.0,part_1,,,,,,,,,,,,,white,flipped triangle
0.0,7.0,0.0,1.0,4.0,4.0,404.7714250000354,3.0,1.0,part_1,,,,,,,,,,,,,white,flipped triangle
203.0,7.0,3.0,1.0,4.0,4.0,548.2723979998809,3.0,1.0,part_1,,,,,,,,,,,,,white,flipped triangle
398.0,4.0,4.0,0.0,1.0,1.0,423.9531159996659,3.0,1.0,part_1,,,,,,,,,,,,,cyan,hexagon
71.0,5.0,1.0,1.0,1.0,1.0,428.5865609999746,3.0,1.0,part_1,,,,,,,,,,,,,magenta,circle
0.0,6.0,0.0,1.0,4.0,4.0,425.2095130000271,3.0,1.0,part_1,,,,,,,,,,,,,gray,cross
389.0,4.0,4.0,0.0,4.0,4.0,434.9872939997112,3.0,1.0,part_1,,,,,,,,,,,,,cyan,hexagon
379.0,4.0,4.0,0.0,1.0,1.0,361.7227459999412,3.0,1.0,part_1,,,,,,,,,,,,,cyan,hexagon
0.0,2.0,0.0,0.0,3.0,3.0,599.5470210000349,3.0,1.0,part_1,,,,,,,,,,,,,yellow,I
407.0,4.0,4.0,0.0,4.0,4.0,333.8454590002584,3.0,1.0,part_1,,,,,,,,,,,,,cyan,hexagon
45.0,5.0,1.0,1.0,2.0,2.0,320.6576430002315,3.0,1.0,part_1,,,,,,,,,,,,,magenta,circle
71.0,1.0,1.0,0.0,4.0,4.0,325.6558150001183,3.0,1.0,part_1,,,,,,,,,,,,,green,triangle
56.0,5.0,1.0,1.0,2.0,2.0,468.9647509999304,3.0,1.0,part_1,,,,,,,,,,,,,magenta,circle
34.0,1.0,1.0,0.0,2.0,2.0,442.3562560000391,3.0,1.0,part_1,,,,,,,,,,,,,green,triangle
35.0,5.0,1.0,1.0,1.0,1.0,432.3257750002085,3.0,1.0,part_1,,,,,,,,,,,,,magenta,circle
0.0,5.0,0.0,1.0,4.0,4.0,367.1646520001559,4.0,1.0,part_1,,,,,,,,,,,,,magenta,circle
421.0,8.0,4.0,1.0,4.0,4.0,427.95534000015317,4.0,1.0,part_1,,,,,,,,,,,,,orange,diamond
416.0,4.0,4.0,0.0,3.0,3.0,531.9652600001064,4.0,1.0,part_1,,,,,,,,,,,,,cyan,hexagon
0.0,4.0,0.0,0.0,4.0,4.0,382.3481100002937,4.0,1.0,part_1,,,,,,,,,,,,,cyan,hexagon
97.0,2.0,2.0,0.0,2.0,2.0,319.3580460001612,4.0,1.0,part_1,,,,,,,,,,,,,yellow,I
197.0,3.0,3.0,0.0,3.0,3.0,425.8348700000169,4.0,1.0,part_1,,,,,,,,,,,,,blue,square
212.0,3.0,3.0,0.0,1.0,1.0,400.4089679997378,4.0,1.0,part_1,,,,,,,,,,,,,blue,square
0.0,8.0,0.0,1.0,4.0,4.0,342.1564410000428,4.0,1.0,part_1,,,,,,,,,,,,,orange,diamond
0.0,5.0,0.0,1.0,1.0,1.0,433.3888780001871,4.0,1.0,part_1,,,,,,,,,,,,,magenta,circle
95.0,2.0,2.0,0.0,3.0,3.0,464.545253000324,4.0,1.0,part_1,,,,,,,,,,,,,yellow,I
211.0,7.0,3.0,1.0,1.0,1.0,369.9024000002282,4.0,1.0,part_1,,,,,,,,,,,,,white,flipped triangle
416.0,8.0,4.0,1.0,3.0,3.0,464.8102189999008,4.0,1.0,part_1,,,,,,,,,,,,,orange,diamond
404.0,4.0,4.0,0.0,3.0,3.0,424.1219949999504,4.0,1.0,part_1,,,,,,,,,,,,,cyan,hexagon
121.0,6.0,2.0,1.0,1.0,1.0,453.3843849999357,4.0,1.0,part_1,,,,,,,,,,,,,gray,cross
49.0,5.0,1.0,1.0,4.0,4.0,352.5636280000981,4.0,1.0,part_1,,,,,,,,,,,,,magenta,circle
209.0,7.0,3.0,1.0,1.0,1.0,417.9982499999823,4.0,1.0,part_1,,,,,,,,,,,,,white,flipped triangle
0.0,2.0,0.0,0.0,1.0,1.0,430.9605650000776,4.0,1.0,part_1,,,,,,,,,,,,,yellow,I
64.0,5.0,1.0,1.0,3.0,3.0,407.483159000094,4.0,1.0,part_1,,,,,,,,,,,,,magenta,circle
0.0,2.0,0.0,0.0,3.0,3.0,436.3874989999203,4.0,1.0,part_1,,,,,,,,,,,,,yellow,I
0.0,8.0,0.0,1.0,4.0,4.0,433.2269490000726,4.0,1.0,part_1,,,,,,,,,,,,,orange,diamond
25.0,1.0,1.0,0.0,2.0,2.0,521.89399100007,4.0,1.0,part_1,,,,,,,,,,,,,green,triangle
62.0,1.0,1.0,0.0,2.0,2.0,388.8532650003071,4.0,1.0,part_1,,,,,,,,,,,,,green,triangle
404.0,4.0,4.0,0.0,3.0,3.0,527.1677069999896,4.0,1.0,part_1,,,,,,,,,,,,,cyan,hexagon
0.0,2.0,0.0,0.0,4.0,4.0,377.0295230001466,4.0,1.0,part_1,,,,,,,,,,,,,yellow,I
0.0,3.0,0.0,0.0,1.0,1.0,353.3415460001379,4.0,1.0,part_1,,,,,,,,,,,,,blue,square
416.0,4.0,4.0,0.0,2.0,2.0,416.5483990000211,4.0,1.0,part_1,,,,,,,,,,,,,cyan,hexagon
34.0,1.0,1.0,0.0,3.0,3.0,363.1357620001836,4.0,1.0,part_1,,,,,,,,,,,,,green,triangle
31.0,1.0,1.0,0.0,4.0,4.0,538.0750090002948,4.0,1.0,part_1,,,,,,,,,,,,,green,triangle
413.0,8.0,4.0,1.0,2.0,2.0,553.3633090003605,4.0,1.0,part_1,,,,,,,,,,,,,orange,diamond
204.0,3.0,3.0,0.0,1.0,1.0,513.4309009999924,4.0,1.0,part_1,,,,,,,,,,,,,blue,square
206.0,7.0,3.0,1.0,1.0,1.0,418.7425919999441,4.0,1.0,part_1,,,,,,,,,,,,,white,flipped triangle
45.0,1.0,1.0,0.0,4.0,4.0,391.7876079999587,4.0,1.0,part_1,,,,,,,,,,,,,green,triangle
0.0,7.0,0.0,1.0,4.0,4.0,468.2465209998554,4.0,1.0,part_1,,,,,,,,,,,,,white,flipped triangle
184.0,3.0,3.0,0.0,3.0,3.0,508.12780399974145,4.0,1.0,part_1,,,,,,,,,,,,,blue,square
0.0,1.0,0.0,0.0,1.0,1.0,339.9301509998622,4.0,1.0,part_1,,,,,,,,,,,,,green,triangle
59.0,1.0,1.0,0.0,2.0,2.0,411.0673360000874,4.0,1.0,part_1,,,,,,,,,,,,,green,triangle
90.0,6.0,2.0,1.0,2.0,2.0,363.1942850001906,4.0,1.0,part_1,,,,,,,,,,,,,gray,cross
28.0,5.0,1.0,1.0,3.0,3.0,398.0910230002337,4.0,1.0,part_1,,,,,,,,,,,,,magenta,circle
202.0,3.0,3.0,0.0,2.0,2.0,370.5781179996847,4.0,1.0,part_1,,,,,,,,,,,,,blue,square
52.0,1.0,1.0,0.0,3.0,3.0,442.2681050000392,4.0,1.0,part_1,,,,,,,,,,,,,green,triangle
79.0,6.0,2.0,1.0,4.0,4.0,524.0702360001706,4.0,1.0,part_1,,,,,,,,,,,,,gray,cross
191.0,3.0,3.0,0.0,3.0,3.0,633.9993120000145,4.0,1.0,part_1,,,,,,,,,,,,,blue,square
378.0,8.0,4.0,1.0,4.0,4.0,542.998850999993,4.0,1.0,part_1,,,,,,,,,,,,,orange,diamond
28.0,1.0,1.0,0.0,4.0,4.0,513.0522409999685,4.0,1.0,part_1,,,,,,,,,,,,,green,triangle
178.0,3.0,3.0,0.0,3.0,3.0,307.4730620000991,4.0,1.0,part_1,,,,,,,,,,,,,blue,square
74.0,5.0,1.0,1.0,4.0,4.0,313.2727180000074,4.0,1.0,part_1,,,,,,,,,,,,,magenta,circle
211.0,3.0,3.0,0.0,4.0,4.0,428.2936170002358,4.0,1.0,part_1,,,,,,,,,,,,,blue,square
41.0,5.0,1.0,1.0,1.0,1.0,322.6796640001339,4.0,1.0,part_1,,,,,,,,,,,,,magenta,circle
93.0,2.0,2.0,0.0,1.0,1.0,371.6674779998357,4.0,1.0,part_1,,,,,,,,,,,,,yellow,I
406.0,4.0,4.0,0.0,2.0,2.0,341.8073279999589,4.0,1.0,part_1,,,,,,,,,,,,,cyan,hexagon
0.0,8.0,0.0,1.0,3.0,3.0,690.4107020000083,4.0,1.0,part_1,,,,,,,,,,,,,orange,diamond
121.0,6.0,2.0,1.0,2.0,2.0,441.178748999846,4.0,1.0,part_1,,,,,,,,,,,,,gray,cross
0.0,3.0,0.0,0.0,3.0,3.0,622.2108580000167,4.0,1.0,part_1,,,,,,,,,,,,,blue,square
206.0,3.0,3.0,0.0,1.0,1.0,361.4143360000525,4.0,1.0,part_1,,,,,,,,,,,,,blue,square
83.0,6.0,2.0,1.0,2.0,2.0,392.7718599998115,4.0,1.0,part_1,,,,,,,,,,,,,gray,cross
119.0,6.0,2.0,1.0,2.0,2.0,481.2129010001627,4.0,1.0,part_1,,,,,,,,,,,,,gray,cross
68.0,5.0,1.0,1.0,3.0,3.0,486.3301579998733,4.0,1.0,part_1,,,,,,,,,,,,,magenta,circle
69.0,5.0,1.0,1.0,4.0,4.0,352.7884649997759,4.0,1.0,part_1,,,,,,,,,,,,,magenta,circle
0.0,5.0,0.0,1.0,4.0,4.0,479.7189239998261,4.0,1.0,part_1,,,,,,,,,,,,,magenta,circle
0.0,8.0,0.0,1.0,4.0,4.0,330.45716900005567,4.0,1.0,part_1,,,,,,,,,,,,,orange,diamond
82.0,6.0,2.0,1.0,2.0,2.0,378.4467259997655,4.0,1.0,part_1,,,,,,,,,,,,,gray,cross
217.0,3.0,3.0,0.0,1.0,1.0,392.4751610002204,4.0,1.0,part_1,,,,,,,,,,,,,blue,square
99.0,2.0,2.0,0.0,2.0,2.0,410.4061279999769,4.0,1.0,part_1,,,,,,,,,,,,,yellow,I
385.0,4.0,4.0,0.0,3.0,3.0,443.6221580003803,4.0,1.0,part_1,,,,,,,,,,,,,cyan,hexagon
34.0,5.0,1.0,1.0,4.0,4.0,408.4920090003834,4.0,1.0,part_1,,,,,,,,,,,,,magenta,circle
208.0,3.0,3.0,0.0,2.0,2.0,309.1732530001536,4.0,1.0,part_1,,,,,,,,,,,,,blue,square
188.0,3.0,3.0,0.0,1.0,1.0,457.695097999931,4.0,1.0,part_1,,,,,,,,,,,,,blue,square
0.0,2.0,0.0,0.0,1.0,1.0,368.781762999788,4.0,1.0,part_1,,,,,,,,,,,,,yellow,I
0.0,1.0,0.0,0.0,1.0,1.0,359.7084319999339,4.0,1.0,part_1,,,,,,,,,,,,,green,triangle
95.0,6.0,2.0,1.0,3.0,3.0,490.2826379998259,4.0,1.0,part_1,,,,,,,,,,,,,gray,cross
103.0,2.0,2.0,0.0,1.0,1.0,456.7221510001218,4.0,1.0,part_1,,,,,,,,,,,,,yellow,I
385.0,8.0,4.0,1.0,1.0,1.0,399.5821150001575,4.0,1.0,part_1,,,,,,,,,,,,,orange,diamond
89.0,6.0,2.0,1.0,3.0,3.0,490.0410000000192,4.0,1.0,part_1,,,,,,,,,,,,,gray,cross
112.0,6.0,2.0,1.0,4.0,4.0,324.648339000305,4.0,1.0,part_1,,,,,,,,,,,,,gray,cross
0.0,1.0,0.0,0.0,3.0,3.0,360.2558610000415,4.0,1.0,part_1,,,,,,,,,,,,,green,triangle
121.0,2.0,2.0,0.0,3.0,3.0,344.3829220000225,4.0,1.0,part_1,,,,,,,,,,,,,yellow,I
398.0,8.0,4.0,1.0,2.0,2.0,428.0456820001745,4.0,1.0,part_1,,,,,,,,,,,,,orange,diamond
201.0,7.0,3.0,1.0,3.0,3.0,383.4712869997929,4.0,1.0,part_1,,,,,,,,,,,,,white,flipped triangle
421.0,4.0,4.0,0.0,4.0,4.0,413.3848470000885,4.0,1.0,part_1,,,,,,,,,,,,,cyan,hexagon
403.0,4.0,4.0,0.0,4.0,4.0,373.6988870000459,4.0,1.0,part_1,,,,,,,,,,,,,cyan,hexagon
416.0,8.0,4.0,1.0,4.0,4.0,357.4559620001309,4.0,1.0,part_1,,,,,,,,,,,,,orange,diamond
197.0,7.0,3.0,1.0,4.0,4.0,336.9210250002652,4.0,1.0,part_1,,,,,,,,,,,,,white,flipped triangle
95.0,6.0,2.0,1.0,4.0,4.0,328.1393040001603,4.0,1.0,part_1,,,,,,,,,,,,,gray,cross
58.0,5.0,1.0,1.0,4.0,4.0,361.2352260001898,4.0,1.0,part_1,,,,,,,,,,,,,magenta,circle
112.0,6.0,2.0,1.0,1.0,1.0,389.3254499998875,4.0,1.0,part_1,,,,,,,,,,,,,gray,cross
84.0,2.0,2.0,0.0,1.0,1.0,296.9405799999549,4.0,1.0,part_1,,,,,,,,,,,,,yellow,I
412.0,8.0,4.0,1.0,1.0,1.0,319.7219960002257,4.0,1.0,part_1,,,,,,,,,,,,,orange,diamond
0.0,6.0,0.0,1.0,3.0,3.0,416.5473089997249,4.0,1.0,part_1,,,,,,,,,,,,,gray,cross
78.0,2.0,2.0,0.0,3.0,3.0,338.4169779997137,4.0,1.0,part_1,,,,,,,,,,,,,yellow,I
0.0,4.0,0.0,0.0,2.0,2.0,354.4871010003589,4.0,1.0,part_1,,,,,,,,,,,,,cyan,hexagon
390.0,8.0,4.0,1.0,1.0,1.0,405.9100149997903,4.0,1.0,part_1,,,,,,,,,,,,,orange,diamond
0.0,4.0,0.0,0.0,2.0,2.0,389.4279139999526,4.0,1.0,part_1,,,,,,,,,,,,,cyan,hexagon
424.0,4.0,4.0,0.0,4.0,4.0,280.6104979999873,4.0,1.0,part_1,,,,,,,,,,,,,cyan,hexagon
120.0,2.0,2.0,0.0,4.0,4.0,328.6074570000892,4.0,1.0,part_1,,,,,,,,,,,,,yellow,I
121.0,2.0,2.0,0.0,2.0,2.0,465.3011339996737,4.0,1.0,part_1,,,,,,,,,,,,,yellow,I
25.0,5.0,1.0,1.0,1.0,1.0,484.803157999977,4.0,1.0,part_1,,,,,,,,,,,,,magenta,circle
41.0,1.0,1.0,0.0,4.0,4.0,310.8190550001382,4.0,1.0,part_1,,,,,,,,,,,,,green,triangle
0.0,7.0,0.0,1.0,1.0,1.0,452.1858459997929,4.0,1.0,part_1,,,,,,,,,,,,,white,flipped triangle
108.0,2.0,2.0,0.0,1.0,1.0,487.8830000002381,4.0,1.0,part_1,,,,,,,,,,,,,yellow,I
80.0,6.0,2.0,1.0,1.0,1.0,380.795415999728,4.0,1.0,part_1,,,,,,,,,,,,,gray,cross
0.0,5.0,1.0,1.0,5.0,5.0,914.9139030000696,1.0,0.0,part_2,go,250.0,250.0,1.0,,,,,,,,,magenta,circle
0.0,1.0,1.0,0.0,5.0,5.0,631.1708670000371,1.0,0.0,part_2,go,250.0,250.0,1.0,,,,,,,,,green,triangle
0.0,5.0,1.0,1.0,6.0,6.0,772.8514440000254,1.0,0.0,part_2,go,250.0,250.0,1.0,,,,,,,,,magenta,circle
0.0,4.0,4.0,0.0,6.0,6.0,581.1957949999851,1.0,0.0,part_2,go,250.0,250.0,1.0,,,,,,,,,cyan,hexagon
0.0,3.0,3.0,0.0,6.0,6.0,699.987881999732,1.0,0.0,part_2,go,250.0,250.0,1.0,,,,,,,,,blue,square
0.0,4.0,4.0,0.0,5.0,5.0,681.2036359997364,1.0,0.0,part_2,go,250.0,250.0,1.0,,,,,,,,,cyan,hexagon
0.0,1.0,1.0,0.0,5.0,5.0,677.3886940000011,1.0,0.0,part_2,go,250.0,250.0,1.0,,,,,,,,,green,triangle
0.0,2.0,2.0,0.0,6.0,6.0,790.8954320000703,1.0,0.0,part_2,go,250.0,250.0,1.0,,,,,,,,,yellow,I
0.0,6.0,2.0,1.0,5.0,5.0,673.412413999813,1.0,0.0,part_2,go,250.0,250.0,1.0,,,,,,,,,gray,cross
0.0,5.0,1.0,1.0,6.0,0.0,0.0,1.0,0.0,part_2,stop,250.0,250.0,4.0,,,,,,,,,magenta,circle
0.0,2.0,2.0,0.0,5.0,5.0,1023.294081000131,1.0,0.0,part_2,go,250.0,300.0,1.0,,,,,,,,,yellow,I
0.0,4.0,4.0,0.0,6.0,6.0,922.8453749997244,1.0,0.0,part_2,go,250.0,300.0,1.0,,,,,,,,,cyan,hexagon
0.0,3.0,3.0,0.0,6.0,6.0,942.2754000001988,1.0,0.0,part_2,go,250.0,300.0,1.0,,,,,,,,,blue,square
0.0,7.0,3.0,1.0,5.0,0.0,0.0,1.0,0.0,part_2,stop,250.0,300.0,4.0,,,,,,,,,white,flipped triangle
0.0,5.0,1.0,1.0,5.0,0.0,0.0,1.0,0.0,part_2,stop,300.0,300.0,4.0,,,,,,,,,magenta,circle
0.0,1.0,1.0,0.0,5.0,5.0,734.3851519999589,1.0,0.0,part_2,go,350.0,300.0,1.0,,,,,,,,,green,triangle
0.0,3.0,3.0,0.0,6.0,6.0,881.4348060000157,1.0,0.0,part_2,go,350.0,300.0,1.0,,,,,,,,,blue,square
0.0,1.0,1.0,0.0,5.0,5.0,865.080345000024,1.0,0.0,part_2,go,350.0,300.0,1.0,,,,,,,,,green,triangle
0.0,1.0,1.0,0.0,6.0,6.0,351.2464069999623,1.0,0.0,part_2,go,350.0,300.0,1.0,,,,,,,,,green,triangle
0.0,7.0,3.0,1.0,5.0,0.0,0.0,1.0,0.0,part_2,stop,350.0,300.0,4.0,,,,,,,,,white,flipped triangle
0.0,8.0,4.0,1.0,5.0,0.0,0.0,1.0,0.0,part_2,stop,400.0,300.0,4.0,,,,,,,,,orange,diamond
0.0,8.0,4.0,1.0,5.0,0.0,0.0,1.0,0.0,part_2,stop,450.0,300.0,4.0,,,,,,,,,orange,diamond
0.0,2.0,2.0,0.0,5.0,5.0,702.7857059997586,1.0,0.0,part_2,go,500.0,300.0,1.0,,,,,,,,,yellow,I
0.0,7.0,3.0,1.0,5.0,0.0,0.0,1.0,0.0,part_2,stop,500.0,300.0,4.0,,,,,,,,,white,flipped triangle
0.0,4.0,4.0,0.0,5.0,5.0,816.5943109997897,1.0,0.0,part_2,go,550.0,300.0,1.0,,,,,,,,,cyan,hexagon
0.0,4.0,4.0,0.0,5.0,5.0,753.4666249998736,1.0,0.0,part_2,go,550.0,300.0,1.0,,,,,,,,,cyan,hexagon
0.0,6.0,2.0,1.0,5.0,0.0,0.0,1.0,0.0,part_2,stop,550.0,300.0,4.0,,,,,,,,,gray,cross
0.0,3.0,3.0,0.0,6.0,6.0,828.9296819998526,1.0,0.0,part_2,go,600.0,300.0,1.0,,,,,,,,,blue,square
0.0,1.0,1.0,0.0,6.0,6.0,748.6626999998407,1.0,0.0,part_2,go,600.0,300.0,1.0,,,,,,,,,green,triangle
0.0,8.0,4.0,1.0,6.0,0.0,0.0,1.0,0.0,part_2,stop,600.0,300.0,4.0,,,,,,,,,orange,diamond
0.0,4.0,4.0,0.0,5.0,5.0,850.6210900000042,1.0,0.0,part_2,go,600.0,350.0,1.0,,,,,,,,,cyan,hexagon
0.0,2.0,2.0,0.0,5.0,5.0,661.7026529997929,1.0,0.0,part_2,go,600.0,350.0,1.0,,,,,,,,,yellow,I
0.0,6.0,2.0,1.0,6.0,0.0,0.0,1.0,0.0,part_2,stop,600.0,350.0,4.0,,,,,,,,,gray,cross
0.0,8.0,4.0,1.0,5.0,5.0,728.6133059997155,1.0,0.0,part_2,stop,600.0,400.0,3.0,,,,,,,,,orange,diamond
0.0,8.0,4.0,1.0,5.0,5.0,862.8267330000199,1.0,0.0,part_2,go,550.0,400.0,1.0,,,,,,,,,orange,diamond
0.0,6.0,2.0,1.0,6.0,0.0,0.0,1.0,0.0,part_2,stop,550.0,400.0,4.0,,,,,,,,,gray,cross
0.0,1.0,1.0,0.0,6.0,6.0,328.1671909999204,2.0,0.0,part_2,go,550.0,450.0,1.0,,,,,,,,,green,triangle
0.0,2.0,2.0,0.0,5.0,5.0,517.7584600000955,2.0,0.0,part_2,go,550.0,450.0,1.0,,,,,,,,,yellow,I
0.0,3.0,3.0,0.0,5.0,5.0,356.8160380000336,2.0,0.0,part_2,go,550.0,450.0,1.0,,,,,,,,,blue,square
0.0,5.0,1.0,1.0,6.0,6.0,383.2780930001718,2.0,0.0,part_2,stop,550.0,450.0,3.0,,,,,,,,,magenta,circle
0.0,3.0,3.0,0.0,6.0,6.0,686.6553340000792,2.0,0.0,part_2,go,550.0,400.0,1.0,,,,,,,,,blue,square
0.0,1.0,1.0,0.0,6.0,6.0,451.4685489998555,2.0,0.0,part_2,go,550.0,400.0,1.0,,,,,,,,,green,triangle
0.0,7.0,3.0,1.0,6.0,6.0,358.7128929998471,2.0,0.0,part_2,stop,550.0,400.0,3.0,,,,,,,,,white,flipped triangle
0.0,1.0,1.0,0.0,5.0,5.0,776.8385290000879,2.0,0.0,part_2,go,550.0,350.0,1.0,,,,,,,,,green,triangle
0.0,1.0,1.0,0.0,5.0,5.0,610.339594999914,2.0,0.0,part_2,go,550.0,350.0,1.0,,,,,,,,,green,triangle
0.0,7.0,3.0,1.0,5.0,5.0,629.3180549996578,2.0,0.0,part_2,stop,550.0,350.0,3.0,,,,,,,,,white,flipped triangle
0.0,6.0,2.0,1.0,5.0,5.0,577.3529910002253,2.0,0.0,part_2,stop,500.0,350.0,3.0,,,,,,,,,gray,cross
0.0,2.0,2.0,0.0,6.0,6.0,992.027877000055,2.0,0.0,part_2,go,450.0,350.0,1.0,,,,,,,,,yellow,I
0.0,3.0,3.0,0.0,5.0,5.0,504.1479920000711,2.0,0.0,part_2,go,450.0,350.0,1.0,,,,,,,,,blue,square
0.0,2.0,2.0,0.0,6.0,6.0,1011.0454150003534,2.0,0.0,part_2,go,450.0,350.0,1.0,,,,,,,,,yellow,I
0.0,1.0,1.0,0.0,6.0,6.0,838.6834240000098,2.0,0.0,part_2,go,450.0,350.0,1.0,,,,,,,,,green,triangle
0.0,8.0,4.0,1.0,5.0,0.0,0.0,2.0,0.0,part_2,stop,450.0,350.0,4.0,,,,,,,,,orange,diamond
0.0,6.0,2.0,1.0,5.0,0.0,0.0,2.0,0.0,part_2,stop,500.0,350.0,4.0,,,,,,,,,gray,cross
0.0,8.0,4.0,1.0,5.0,5.0,669.4263600002159,2.0,0.0,part_2,stop,550.0,350.0,3.0,,,,,,,,,orange,diamond
0.0,1.0,1.0,0.0,6.0,6.0,702.1433310001157,2.0,0.0,part_2,go,500.0,350.0,1.0,,,,,,,,,green,triangle
0.0,5.0,1.0,1.0,5.0,5.0,949.0257309998924,2.0,0.0,part_2,go,500.0,350.0,1.0,,,,,,,,,magenta,circle
0.0,2.0,2.0,0.0,5.0,5.0,638.5522680002396,2.0,0.0,part_2,go,500.0,350.0,1.0,,,,,,,,,yellow,I
0.0,1.0,1.0,0.0,6.0,6.0,875.1145989999713,2.0,0.0,part_2,go,500.0,350.0,1.0,,,,,,,,,green,triangle
0.0,4.0,4.0,0.0,5.0,5.0,488.6689959998875,2.0,0.0,part_2,go,500.0,350.0,1.0,,,,,,,,,cyan,hexagon
0.0,5.0,1.0,1.0,6.0,6.0,581.0352599996804,2.0,0.0,part_2,go,500.0,350.0,1.0,,,,,,,,,magenta,circle
0.0,2.0,2.0,0.0,5.0,5.0,450.7552579998446,2.0,0.0,part_2,go,500.0,350.0,1.0,,,,,,,,,yellow,I
0.0,5.0,1.0,1.0,5.0,0.0,0.0,2.0,0.0,part_2,stop,500.0,350.0,4.0,,,,,,,,,magenta,circle
0.0,6.0,2.0,1.0,5.0,0.0,0.0,2.0,0.0,part_2,stop,550.0,350.0,4.0,,,,,,,,,gray,cross
0.0,6.0,2.0,1.0,6.0,0.0,0.0,2.0,0.0,part_2,stop,600.0,350.0,4.0,,,,,,,,,gray,cross
0.0,7.0,3.0,1.0,5.0,5.0,679.4154270000945,2.0,0.0,part_2,go,600.0,400.0,1.0,,,,,,,,,white,flipped triangle
0.0,4.0,4.0,0.0,6.0,6.0,777.3932699997204,2.0,0.0,part_2,go,600.0,400.0,1.0,,,,,,,,,cyan,hexagon
0.0,8.0,4.0,1.0,6.0,6.0,527.3559790002764,2.0,0.0,part_2,stop,600.0,400.0,3.0,,,,,,,,,orange,diamond
0.0,7.0,3.0,1.0,6.0,6.0,760.6558550000955,2.0,0.0,part_2,go,600.0,350.0,1.0,,,,,,,,,white,flipped triangle
0.0,3.0,3.0,0.0,6.0,6.0,762.9220490002808,2.0,0.0,part_2,go,600.0,350.0,1.0,,,,,,,,,blue,square
0.0,4.0,4.0,0.0,6.0,6.0,335.5133349996322,2.0,0.0,part_2,go,600.0,350.0,1.0,,,,,,,,,cyan,hexagon
0.0,4.0,4.0,0.0,6.0,6.0,667.8969509998751,2.0,0.0,part_2,go,600.0,350.0,1.0,,,,,,,,,cyan,hexagon
0.0,5.0,1.0,1.0,5.0,5.0,538.6351920001289,2.0,0.0,part_2,stop,600.0,350.0,3.0,,,,,,,,,magenta,circle
0.0,3.0,3.0,0.0,6.0,5.0,0.3118559998256,3.0,0.0,part_2,go,550.0,350.0,2.0,,,,,,,,,blue,square
0.0,7.0,3.0,1.0,6.0,6.0,291.0870660002729,3.0,0.0,part_2,go,550.0,350.0,1.0,,,,,,,,,white,flipped triangle
0.0,5.0,1.0,1.0,6.0,6.0,329.8379470002146,3.0,0.0,part_2,stop,550.0,350.0,3.0,,,,,,,,,magenta,circle
0.0,6.0,2.0,1.0,5.0,5.0,445.2525460001197,3.0,0.0,part_2,go,550.0,300.0,1.0,,,,,,,,,gray,cross
0.0,8.0,4.0,1.0,6.0,6.0,259.7726170001806,3.0,0.0,part_2,stop,550.0,300.0,3.0,,,,,,,,,orange,diamond
0.0,3.0,3.0,0.0,5.0,5.0,318.286540000372,3.0,0.0,part_2,go,550.0,250.0,1.0,,,,,,,,,blue,square
0.0,1.0,1.0,0.0,6.0,6.0,386.6525359999286,3.0,0.0,part_2,go,550.0,250.0,1.0,,,,,,,,,green,triangle
0.0,1.0,1.0,0.0,6.0,6.0,386.4515809996192,3.0,0.0,part_2,go,550.0,250.0,1.0,,,,,,,,,green,triangle
0.0,7.0,3.0,1.0,6.0,6.0,305.0036929998896,3.0,0.0,part_2,stop,550.0,250.0,3.0,,,,,,,,,white,flipped triangle
0.0,4.0,4.0,0.0,5.0,5.0,580.402389000028,3.0,0.0,part_2,go,550.0,200.0,1.0,,,,,,,,,cyan,hexagon
0.0,1.0,1.0,0.0,5.0,5.0,331.8396239997128,3.0,0.0,part_2,go,550.0,200.0,1.0,,,,,,,,,green,triangle
0.0,7.0,3.0,1.0,6.0,6.0,249.4825769999806,3.0,0.0,part_2,go,550.0,200.0,1.0,,,,,,,,,white,flipped triangle
0.0,7.0,3.0,1.0,5.0,5.0,420.411348000016,3.0,0.0,part_2,stop,550.0,200.0,3.0,,,,,,,,,white,flipped triangle
0.0,4.0,4.0,0.0,6.0,6.0,518.6674370002038,3.0,0.0,part_2,go,500.0,200.0,1.0,,,,,,,,,cyan,hexagon
0.0,6.0,2.0,1.0,5.0,5.0,460.7839199998125,3.0,0.0,part_2,stop,500.0,200.0,3.0,,,,,,,,,gray,cross
0.0,1.0,1.0,0.0,5.0,5.0,554.7398689996044,3.0,0.0,part_2,go,450.0,200.0,1.0,,,,,,,,,green,triangle
0.0,1.0,1.0,0.0,5.0,5.0,253.2203229998231,3.0,0.0,part_2,go,450.0,200.0,1.0,,,,,,,,,green,triangle
0.0,7.0,3.0,1.0,6.0,6.0,186.4057769998908,3.0,0.0,part_2,stop,450.0,200.0,3.0,,,,,,,,,white,flipped triangle
0.0,8.0,4.0,1.0,5.0,5.0,430.3744650001135,3.0,0.0,part_2,stop,450.0,150.0,3.0,,,,,,,,,orange,diamond
0.0,7.0,3.0,1.0,5.0,5.0,500.35383800013733,3.0,0.0,part_2,stop,400.0,150.0,3.0,,,,,,,,,white,flipped triangle
0.0,4.0,4.0,0.0,5.0,5.0,473.6954420000074,3.0,0.0,part_2,go,350.0,150.0,1.0,,,,,,,,,cyan,hexagon
0.0,2.0,2.0,0.0,5.0,5.0,307.7653889999965,3.0,0.0,part_2,go,350.0,150.0,1.0,,,,,,,,,yellow,I
0.0,1.0,1.0,0.0,6.0,6.0,349.7747690003052,3.0,0.0,part_2,go,350.0,150.0,1.0,,,,,,,,,green,triangle
0.0,7.0,3.0,1.0,6.0,0.0,0.0,3.0,0.0,part_2,stop,350.0,150.0,4.0,,,,,,,,,white,flipped triangle
0.0,8.0,4.0,1.0,5.0,0.0,0.0,3.0,0.0,part_2,stop,350.0,200.0,4.0,,,,,,,,,orange,diamond
0.0,4.0,4.0,0.0,6.0,6.0,364.7984239996731,3.0,0.0,part_2,go,400.0,200.0,1.0,,,,,,,,,cyan,hexagon
0.0,1.0,1.0,0.0,5.0,5.0,986.2434779997784,3.0,0.0,part_2,go,400.0,200.0,1.0,,,,,,,,,green,triangle
0.0,2.0,2.0,0.0,5.0,5.0,595.5587749999722,3.0,0.0,part_2,go,400.0,200.0,1.0,,,,,,,,,yellow,I
0.0,7.0,3.0,1.0,6.0,6.0,431.7104669999025,3.0,0.0,part_2,go,400.0,200.0,1.0,,,,,,,,,white,flipped triangle
0.0,2.0,2.0,0.0,6.0,6.0,419.4812010000532,3.0,0.0,part_2,go,400.0,200.0,1.0,,,,,,,,,yellow,I
0.0,3.0,3.0,0.0,6.0,6.0,309.2722070000491,3.0,0.0,part_2,go,400.0,200.0,1.0,,,,,,,,,blue,square
0.0,7.0,3.0,1.0,5.0,0.0,0.0,3.0,0.0,part_2,stop,400.0,200.0,4.0,,,,,,,,,white,flipped triangle
0.0,8.0,4.0,1.0,5.0,0.0,0.0,3.0,0.0,part_2,stop,450.0,200.0,4.0,,,,,,,,,orange,diamond
0.0,3.0,3.0,0.0,6.0,6.0,665.5753340000956,3.0,0.0,part_2,go,500.0,200.0,1.0,,,,,,,,,blue,square
0.0,2.0,2.0,0.0,5.0,5.0,357.3644319999403,3.0,0.0,part_2,go,500.0,200.0,1.0,,,,,,,,,yellow,I
0.0,8.0,4.0,1.0,6.0,6.0,297.3170949999257,3.0,0.0,part_2,stop,500.0,200.0,3.0,,,,,,,,,orange,diamond
0.0,5.0,1.0,1.0,6.0,6.0,368.7646580001456,4.0,0.0,part_2,stop,500.0,150.0,3.0,,,,,,,,,magenta,circle
0.0,5.0,1.0,1.0,5.0,5.0,440.2414520000093,4.0,0.0,part_2,stop,500.0,100.0,3.0,,,,,,,,,magenta,circle
0.0,1.0,1.0,0.0,6.0,6.0,522.1140230000856,4.0,0.0,part_2,go,450.0,100.0,1.0,,,,,,,,,green,triangle
0.0,8.0,4.0,1.0,6.0,6.0,602.9976830000123,4.0,0.0,part_2,go,450.0,100.0,1.0,,,,,,,,,orange,diamond
0.0,8.0,4.0,1.0,6.0,0.0,0.0,4.0,0.0,part_2,stop,450.0,100.0,4.0,,,,,,,,,orange,diamond
0.0,7.0,3.0,1.0,6.0,0.0,0.0,4.0,0.0,part_2,stop,450.0,150.0,4.0,,,,,,,,,white,flipped triangle
0.0,4.0,4.0,0.0,6.0,6.0,510.2467810002054,4.0,0.0,part_2,go,450.0,200.0,1.0,,,,,,,,,cyan,hexagon
0.0,3.0,3.0,0.0,5.0,5.0,586.9019619999563,4.0,0.0,part_2,go,450.0,200.0,1.0,,,,,,,,,blue,square
0.0,8.0,4.0,1.0,6.0,0.0,0.0,4.0,0.0,part_2,stop,450.0,200.0,4.0,,,,,,,,,orange,diamond
0.0,7.0,3.0,1.0,5.0,5.0,648.2721389998005,4.0,0.0,part_2,go,450.0,250.0,1.0,,,,,,,,,white,flipped triangle
0.0,5.0,1.0,1.0,5.0,5.0,490.7332399998267,4.0,0.0,part_2,stop,450.0,250.0,3.0,,,,,,,,,magenta,circle
0.0,7.0,3.0,1.0,6.0,6.0,327.9254590001983,4.0,0.0,part_2,go,400.0,250.0,1.0,,,,,,,,,white,flipped triangle
0.0,6.0,2.0,1.0,6.0,6.0,297.3777759998484,4.0,0.0,part_2,go,400.0,250.0,1.0,,,,,,,,,gray,cross
0.0,3.0,3.0,0.0,5.0,5.0,293.402344000242,4.0,0.0,part_2,go,400.0,250.0,1.0,,,,,,,,,blue,square
0.0,4.0,4.0,0.0,5.0,5.0,878.3424050002395,4.0,0.0,part_2,go,400.0,250.0,1.0,,,,,,,,,cyan,hexagon
0.0,8.0,4.0,1.0,6.0,6.0,433.1337939997866,4.0,0.0,part_2,stop,400.0,250.0,3.0,,,,,,,,,orange,diamond
0.0,5.0,1.0,1.0,5.0,5.0,347.8770309998253,4.0,0.0,part_2,stop,400.0,200.0,3.0,,,,,,,,,magenta,circle
0.0,2.0,2.0,0.0,5.0,5.0,737.641837999945,4.0,0.0,part_2,go,350.0,200.0,1.0,,,,,,,,,yellow,I
0.0,4.0,4.0,0.0,5.0,5.0,683.7398910001866,4.0,0.0,part_2,go,350.0,200.0,1.0,,,,,,,,,cyan,hexagon
0.0,6.0,2.0,1.0,5.0,5.0,348.4471880001365,4.0,0.0,part_2,stop,350.0,200.0,3.0,,,,,,,,,gray,cross
0.0,6.0,2.0,1.0,6.0,0.0,0.0,4.0,0.0,part_2,stop,300.0,200.0,4.0,,,,,,,,,gray,cross
0.0,1.0,1.0,0.0,6.0,6.0,634.7324700000172,4.0,0.0,part_2,go,300.0,250.0,1.0,,,,,,,,,green,triangle
0.0,1.0,1.0,0.0,5.0,5.0,795.7400610002878,4.0,0.0,part_2,go,300.0,250.0,1.0,,,,,,,,,green,triangle
0.0,4.0,4.0,0.0,5.0,5.0,521.8706639998345,4.0,0.0,part_2,go,300.0,250.0,1.0,,,,,,,,,cyan,hexagon
0.0,2.0,2.0,0.0,5.0,5.0,448.8492850000511,4.0,0.0,part_2,go,300.0,250.0,1.0,,,,,,,,,yellow,I
0.0,6.0,2.0,1.0,6.0,0.0,0.0,4.0,0.0,part_2,stop,300.0,250.0,4.0,,,,,,,,,gray,cross
0.0,4.0,4.0,0.0,6.0,6.0,645.3996010000083,4.0,0.0,part_2,go,300.0,300.0,1.0,,,,,,,,,cyan,hexagon
0.0,6.0,2.0,1.0,6.0,6.0,586.6993460003869,4.0,0.0,part_2,go,300.0,300.0,1.0,,,,,,,,,gray,cross
0.0,1.0,1.0,0.0,5.0,5.0,357.4123009998402,4.0,0.0,part_2,go,300.0,300.0,1.0,,,,,,,,,green,triangle
0.0,7.0,3.0,1.0,6.0,0.0,0.0,4.0,0.0,part_2,stop,300.0,300.0,4.0,,,,,,,,,white,flipped triangle
0.0,2.0,2.0,0.0,6.0,6.0,582.3443559997941,4.0,0.0,part_2,go,300.0,350.0,1.0,,,,,,,,,yellow,I
0.0,6.0,2.0,1.0,6.0,6.0,430.56592799985077,4.0,0.0,part_2,go,300.0,350.0,1.0,,,,,,,,,gray,cross
0.0,4.0,4.0,0.0,5.0,5.0,431.656629000372,4.0,0.0,part_2,go,300.0,350.0,1.0,,,,,,,,,cyan,hexagon
0.0,1.0,1.0,0.0,6.0,6.0,406.9545980000839,4.0,0.0,part_2,go,300.0,350.0,1.0,,,,,,,,,green,triangle
0.0,5.0,1.0,1.0,5.0,5.0,489.68049899986,4.0,0.0,part_2,stop,300.0,350.0,3.0,,,,,,,,,magenta,circle
0.0,8.0,4.0,1.0,6.0,0.0,0.0,4.0,0.0,part_2,stop,250.0,350.0,4.0,,,,,,,,,orange,diamond
0.0,5.0,1.0,1.0,5.0,5.0,345.3798049999932,5.0,0.0,part_2,go,250.0,400.0,1.0,,,,,,,,,magenta,circle
0.0,8.0,4.0,1.0,5.0,5.0,589.2774300000383,5.0,0.0,part_2,go,250.0,400.0,1.0,,,,,,,,,orange,diamond
0.0,6.0,2.0,1.0,5.0,5.0,354.0578409997579,5.0,0.0,part_2,stop,250.0,400.0,3.0,,,,,,,,,gray,cross
0.0,3.0,3.0,0.0,6.0,6.0,547.3839139999654,5.0,0.0,part_2,go,200.0,400.0,1.0,,,,,,,,,blue,square
0.0,5.0,1.0,1.0,6.0,6.0,521.9848520000596,5.0,0.0,part_2,stop,200.0,400.0,3.0,,,,,,,,,magenta,circle
0.0,3.0,3.0,0.0,5.0,5.0,514.335944999857,5.0,0.0,part_2,go,200.0,350.0,1.0,,,,,,,,,blue,square
0.0,3.0,3.0,0.0,5.0,5.0,581.3923509999768,5.0,0.0,part_2,go,200.0,350.0,1.0,,,,,,,,,blue,square
0.0,4.0,4.0,0.0,6.0,6.0,540.7807909996336,5.0,0.0,part_2,go,200.0,350.0,1.0,,,,,,,,,cyan,hexagon
0.0,5.0,1.0,1.0,6.0,6.0,490.2494160000969,5.0,0.0,part_2,stop,200.0,350.0,3.0,,,,,,,,,magenta,circle
0.0,2.0,2.0,0.0,6.0,6.0,700.8096730000943,5.0,0.0,part_2,go,200.0,300.0,1.0,,,,,,,,,yellow,I
0.0,3.0,3.0,0.0,5.0,5.0,353.1576410000525,5.0,0.0,part_2,go,200.0,300.0,1.0,,,,,,,,,blue,square
0.0,5.0,1.0,1.0,6.0,6.0,281.7933289998109,5.0,0.0,part_2,stop,200.0,300.0,3.0,,,,,,,,,magenta,circle
0.0,1.0,1.0,0.0,5.0,5.0,502.20981700022094,5.0,0.0,part_2,go,200.0,250.0,1.0,,,,,,,,,green,triangle
0.0,8.0,4.0,1.0,6.0,6.0,459.4226190001791,5.0,0.0,part_2,go,200.0,250.0,1.0,,,,,,,,,orange,diamond
0.0,4.0,4.0,0.0,5.0,5.0,543.0055049996554,5.0,0.0,part_2,go,200.0,250.0,1.0,,,,,,,,,cyan,hexagon
0.0,7.0,3.0,1.0,6.0,0.0,0.0,5.0,0.0,part_2,stop,200.0,250.0,4.0,,,,,,,,,white,flipped triangle
0.0,6.0,2.0,1.0,6.0,0.0,0.0,5.0,0.0,part_2,stop,200.0,300.0,4.0,,,,,,,,,gray,cross
0.0,4.0,4.0,0.0,6.0,6.0,643.3108699998229,5.0,0.0,part_2,go,200.0,350.0,1.0,,,,,,,,,cyan,hexagon
0.0,8.0,4.0,1.0,6.0,6.0,669.6243669994146,5.0,0.0,part_2,go,200.0,350.0,1.0,,,,,,,,,orange,diamond
0.0,6.0,2.0,1.0,6.0,6.0,420.8096369993654,5.0,0.0,part_2,stop,200.0,350.0,3.0,,,,,,,,,gray,cross
0.0,3.0,3.0,0.0,5.0,5.0,566.2332070005505,5.0,0.0,part_2,go,200.0,300.0,1.0,,,,,,,,,blue,square
0.0,6.0,2.0,1.0,6.0,6.0,481.8543040000804,5.0,0.0,part_2,stop,200.0,300.0,3.0,,,,,,,,,gray,cross
0.0,8.0,4.0,1.0,5.0,5.0,503.39419600004476,5.0,0.0,part_2,go,200.0,250.0,1.0,,,,,,,,,orange,diamond
0.0,7.0,3.0,1.0,5.0,0.0,0.0,5.0,0.0,part_2,stop,200.0,250.0,4.0,,,,,,,,,white,flipped triangle
0.0,6.0,2.0,1.0,5.0,5.0,665.0890470000377,5.0,0.0,part_2,go,250.0,250.0,1.0,,,,,,,,,gray,cross
0.0,6.0,2.0,1.0,5.0,5.0,472.5676080006451,5.0,0.0,part_2,go,250.0,250.0,1.0,,,,,,,,,gray,cross
0.0,5.0,1.0,1.0,6.0,0.0,0.0,5.0,0.0,part_2,stop,250.0,250.0,4.0,,,,,,,,,magenta,circle
0.0,1.0,1.0,0.0,5.0,5.0,581.655058999786,5.0,0.0,part_2,go,250.0,300.0,1.0,,,,,,,,,green,triangle
0.0,7.0,3.0,1.0,5.0,0.0,0.0,5.0,0.0,part_2,stop,250.0,300.0,4.0,,,,,,,,,white,flipped triangle
0.0,5.0,1.0,1.0,5.0,0.0,0.0,5.0,0.0,part_2,stop,300.0,300.0,4.0,,,,,,,,,magenta,circle
0.0,7.0,3.0,1.0,5.0,0.0,0.0,5.0,0.0,part_2,stop,350.0,300.0,4.0,,,,,,,,,white,flipped triangle
0.0,2.0,2.0,0.0,6.0,6.0,513.3677419999003,5.0,0.0,part_2,go,400.0,300.0,1.0,,,,,,,,,yellow,I
0.0,5.0,1.0,1.0,5.0,5.0,632.4790259996007,5.0,0.0,part_2,stop,400.0,300.0,3.0,,,,,,,,,magenta,circle
0.0,1.0,1.0,0.0,5.0,5.0,877.859475999685,5.0,0.0,part_2,go,350.0,300.0,1.0,,,,,,,,,green,triangle
0.0,2.0,2.0,0.0,6.0,6.0,536.856407000414,5.0,0.0,part_2,go,350.0,300.0,1.0,,,,,,,,,yellow,I
0.0,7.0,3.0,1.0,5.0,0.0,0.0,5.0,0.0,part_2,stop,350.0,300.0,4.0,,,,,,,,,white,flipped triangle
0.0,5.0,1.0,1.0,6.0,6.0,589.2610549999517,6.0,0.0,part_2,go,400.0,300.0,1.0,,,,,,,,,magenta,circle
0.0,1.0,1.0,0.0,6.0,6.0,422.3597729996982,6.0,0.0,part_2,go,400.0,300.0,1.0,,,,,,,,,green,triangle
0.0,3.0,3.0,0.0,6.0,6.0,573.629651000374,6.0,0.0,part_2,go,400.0,300.0,1.0,,,,,,,,,blue,square
0.0,2.0,2.0,0.0,5.0,5.0,533.6164669997743,6.0,0.0,part_2,go,400.0,300.0,1.0,,,,,,,,,yellow,I
0.0,3.0,3.0,0.0,5.0,5.0,685.4018650001308,6.0,0.0,part_2,go,400.0,300.0,1.0,,,,,,,,,blue,square
0.0,4.0,4.0,0.0,5.0,5.0,298.4756720006771,6.0,0.0,part_2,go,400.0,300.0,1.0,,,,,,,,,cyan,hexagon
0.0,6.0,2.0,1.0,5.0,5.0,444.5390720002251,6.0,0.0,part_2,stop,400.0,300.0,3.0,,,,,,,,,gray,cross
0.0,3.0,3.0,0.0,6.0,6.0,491.6434409997237,6.0,0.0,part_2,go,350.0,300.0,1.0,,,,,,,,,blue,square
0.0,6.0,2.0,1.0,6.0,6.0,361.3029520001873,6.0,0.0,part_2,go,350.0,300.0,1.0,,,,,,,,,gray,cross
0.0,6.0,2.0,1.0,6.0,0.0,0.0,6.0,0.0,part_2,stop,350.0,300.0,4.0,,,,,,,,,gray,cross
0.0,4.0,4.0,0.0,6.0,6.0,600.7615349999469,6.0,0.0,part_2,go,350.0,350.0,1.0,,,,,,,,,cyan,hexagon
0.0,6.0,2.0,1.0,5.0,0.0,0.0,6.0,0.0,part_2,stop,350.0,350.0,4.0,,,,,,,,,gray,cross
0.0,1.0,1.0,0.0,5.0,5.0,636.3271599993823,6.0,0.0,part_2,go,400.0,350.0,1.0,,,,,,,,,green,triangle
0.0,8.0,4.0,1.0,5.0,5.0,541.2850310003705,6.0,0.0,part_2,go,400.0,350.0,1.0,,,,,,,,,orange,diamond
0.0,3.0,3.0,0.0,6.0,6.0,428.9703109998299,6.0,0.0,part_2,go,400.0,350.0,1.0,,,,,,,,,blue,square
0.0,2.0,2.0,0.0,5.0,5.0,556.1649159999433,6.0,0.0,part_2,go,400.0,350.0,1.0,,,,,,,,,yellow,I
0.0,2.0,2.0,0.0,6.0,6.0,569.8174769995603,6.0,0.0,part_2,go,400.0,350.0,1.0,,,,,,,,,yellow,I
0.0,2.0,2.0,0.0,5.0,5.0,300.2351830000407,6.0,0.0,part_2,go,400.0,350.0,1.0,,,,,,,,,yellow,I
0.0,5.0,1.0,1.0,5.0,5.0,660.1535130002958,6.0,0.0,part_2,go,400.0,350.0,1.0,,,,,,,,,magenta,circle
0.0,6.0,2.0,1.0,6.0,6.0,490.2742240001316,6.0,0.0,part_2,stop,400.0,350.0,3.0,,,,,,,,,gray,cross
0.0,2.0,2.0,0.0,5.0,5.0,751.2395109997669,6.0,0.0,part_2,go,400.0,300.0,1.0,,,,,,,,,yellow,I
0.0,5.0,1.0,1.0,6.0,0.0,0.0,6.0,0.0,part_2,stop,400.0,300.0,4.0,,,,,,,,,magenta,circle
0.0,4.0,4.0,0.0,6.0,6.0,726.3607739996587,6.0,0.0,part_2,go,400.0,350.0,1.0,,,,,,,,,cyan,hexagon
0.0,2.0,2.0,0.0,6.0,6.0,604.8536170001171,6.0,0.0,part_2,go,400.0,350.0,1.0,,,,,,,,,yellow,I
0.0,5.0,1.0,1.0,6.0,0.0,0.0,6.0,0.0,part_2,stop,400.0,350.0,4.0,,,,,,,,,magenta,circle
0.0,5.0,1.0,1.0,5.0,0.0,0.0,6.0,0.0,part_2,stop,400.0,400.0,4.0,,,,,,,,,magenta,circle
0.0,3.0,3.0,0.0,5.0,5.0,587.766012999964,6.0,0.0,part_2,go,450.0,400.0,1.0,,,,,,,,,blue,square
0.0,3.0,3.0,0.0,6.0,6.0,656.2981600000057,6.0,0.0,part_2,go,450.0,400.0,1.0,,,,,,,,,blue,square
0.0,8.0,4.0,1.0,6.0,0.0,0.0,6.0,0.0,part_2,stop,450.0,400.0,4.0,,,,,,,,,orange,diamond
0.0,4.0,4.0,0.0,5.0,5.0,741.1666090001745,6.0,0.0,part_2,go,450.0,450.0,1.0,,,,,,,,,cyan,hexagon
0.0,2.0,2.0,0.0,6.0,6.0,617.4097029997938,6.0,0.0,part_2,go,450.0,450.0,1.0,,,,,,,,,yellow,I
0.0,4.0,4.0,0.0,6.0,6.0,612.7316160000191,6.0,0.0,part_2,go,450.0,450.0,1.0,,,,,,,,,cyan,hexagon
0.0,4.0,4.0,0.0,5.0,5.0,435.9595129999434,6.0,0.0,part_2,go,450.0,450.0,1.0,,,,,,,,,cyan,hexagon
0.0,5.0,1.0,1.0,5.0,5.0,512.4471980007002,6.0,0.0,part_2,go,450.0,450.0,1.0,,,,,,,,,magenta,circle
0.0,4.0,4.0,0.0,6.0,6.0,466.3881970000147,6.0,0.0,part_2,go,450.0,450.0,1.0,,,,,,,,,cyan,hexagon
0.0,7.0,3.0,1.0,6.0,6.0,500.0925799995457,6.0,0.0,part_2,stop,450.0,450.0,3.0,,,,,,,,,white,flipped triangle
0.0,4.0,4.0,0.0,5.0,5.0,491.4457229997424,7.0,0.0,part_2,go,450.0,400.0,1.0,,,,,,,,,cyan,hexagon
0.0,7.0,3.0,1.0,5.0,5.0,406.6199540002344,7.0,0.0,part_2,stop,450.0,400.0,3.0,,,,,,,,,white,flipped triangle
0.0,7.0,3.0,1.0,6.0,6.0,510.41764999990846,7.0,0.0,part_2,stop,400.0,400.0,3.0,,,,,,,,,white,flipped triangle
0.0,4.0,4.0,0.0,5.0,5.0,462.7256009998746,7.0,0.0,part_2,go,400.0,350.0,1.0,,,,,,,,,cyan,hexagon
0.0,6.0,2.0,1.0,6.0,6.0,421.406931999627,7.0,0.0,part_2,stop,400.0,350.0,3.0,,,,,,,,,gray,cross
0.0,2.0,2.0,0.0,5.0,5.0,620.3842309996617,7.0,0.0,part_2,go,400.0,300.0,1.0,,,,,,,,,yellow,I
0.0,5.0,1.0,1.0,5.0,5.0,433.9723060002143,7.0,0.0,part_2,stop,400.0,300.0,3.0,,,,,,,,,magenta,circle
0.0,4.0,4.0,0.0,6.0,6.0,622.8230050001002,7.0,0.0,part_2,go,350.0,300.0,1.0,,,,,,,,,cyan,hexagon
0.0,7.0,3.0,1.0,5.0,5.0,494.1134049995526,7.0,0.0,part_2,stop,350.0,300.0,3.0,,,,,,,,,white,flipped triangle
0.0,8.0,4.0,1.0,5.0,5.0,464.3366569998761,7.0,0.0,part_2,stop,300.0,300.0,3.0,,,,,,,,,orange,diamond
0.0,8.0,4.0,1.0,6.0,6.0,499.9875430003158,7.0,0.0,part_2,go,250.0,300.0,1.0,,,,,,,,,orange,diamond
0.0,2.0,2.0,0.0,6.0,6.0,667.297676999624,7.0,0.0,part_2,go,250.0,300.0,1.0,,,,,,,,,yellow,I
0.0,7.0,3.0,1.0,5.0,5.0,480.6763750002574,7.0,0.0,part_2,go,250.0,300.0,1.0,,,,,,,,,white,flipped triangle
0.0,8.0,4.0,1.0,5.0,0.0,0.0,7.0,0.0,part_2,stop,250.0,300.0,4.0,,,,,,,,,orange,diamond
0.0,3.0,3.0,0.0,5.0,5.0,614.4610530000136,7.0,0.0,part_2,go,300.0,300.0,1.0,,,,,,,,,blue,square
0.0,8.0,4.0,1.0,6.0,0.0,0.0,7.0,0.0,part_2,stop,300.0,300.0,4.0,,,,,,,,,orange,diamond
0.0,4.0,4.0,0.0,6.0,6.0,618.662353000218,7.0,0.0,part_2,go,300.0,350.0,1.0,,,,,,,,,cyan,hexagon
0.0,8.0,4.0,1.0,5.0,0.0,0.0,7.0,0.0,part_2,stop,300.0,350.0,4.0,,,,,,,,,orange,diamond
0.0,7.0,3.0,1.0,5.0,0.0,0.0,7.0,0.0,part_2,stop,350.0,350.0,4.0,,,,,,,,,white,flipped triangle
0.0,3.0,3.0,0.0,6.0,6.0,628.139155000099,7.0,0.0,part_2,go,400.0,350.0,1.0,,,,,,,,,blue,square
0.0,6.0,2.0,1.0,5.0,0.0,0.0,7.0,0.0,part_2,stop,400.0,350.0,4.0,,,,,,,,,gray,cross
0.0,3.0,3.0,0.0,6.0,6.0,697.3883620003107,7.0,0.0,part_2,go,450.0,350.0,1.0,,,,,,,,,blue,square
0.0,6.0,2.0,1.0,5.0,5.0,584.7460289996889,7.0,0.0,part_2,stop,450.0,350.0,3.0,,,,,,,,,gray,cross
0.0,2.0,2.0,0.0,6.0,6.0,576.7480790000263,7.0,0.0,part_2,go,400.0,350.0,1.0,,,,,,,,,yellow,I
0.0,7.0,3.0,1.0,6.0,0.0,0.0,7.0,0.0,part_2,stop,400.0,350.0,4.0,,,,,,,,,white,flipped triangle
0.0,8.0,4.0,1.0,6.0,0.0,0.0,7.0,0.0,part_2,stop,400.0,400.0,4.0,,,,,,,,,orange,diamond
0.0,3.0,3.0,0.0,5.0,5.0,581.7866970000978,7.0,0.0,part_2,go,400.0,450.0,1.0,,,,,,,,,blue,square
0.0,7.0,3.0,1.0,6.0,6.0,641.3869709995197,7.0,0.0,part_2,go,400.0,450.0,1.0,,,,,,,,,white,flipped triangle
0.0,5.0,1.0,1.0,6.0,6.0,729.6705839999049,7.0,0.0,part_2,go,400.0,450.0,1.0,,,,,,,,,magenta,circle
0.0,5.0,1.0,1.0,6.0,0.0,0.0,7.0,0.0,part_2,stop,400.0,450.0,4.0,,,,,,,,,magenta,circle
0.0,1.0,1.0,0.0,6.0,6.0,631.2326269999176,7.0,0.0,part_2,go,400.0,500.0,1.0,,,,,,,,,green,triangle
0.0,2.0,2.0,0.0,6.0,6.0,611.2034299994775,7.0,0.0,part_2,go,400.0,500.0,1.0,,,,,,,,,yellow,I
0.0,4.0,4.0,0.0,6.0,6.0,827.9851959996449,7.0,0.0,part_2,go,400.0,500.0,1.0,,,,,,,,,cyan,hexagon
0.0,7.0,3.0,1.0,6.0,6.0,594.0414749993579,7.0,0.0,part_2,stop,400.0,500.0,3.0,,,,,,,,,white,flipped triangle
0.0,1.0,1.0,0.0,6.0,6.0,727.8842509995229,7.0,0.0,part_2,go,400.0,450.0,1.0,,,,,,,,,green,triangle
0.0,3.0,3.0,0.0,5.0,5.0,618.6848990000726,7.0,0.0,part_2,go,400.0,450.0,1.0,,,,,,,,,blue,square
0.0,3.0,3.0,0.0,6.0,6.0,600.9452980006245,8.0,0.0,part_2,go,400.0,450.0,1.0,,,,,,,,,blue,square
0.0,8.0,4.0,1.0,5.0,5.0,386.6675449999093,8.0,0.0,part_2,stop,400.0,450.0,3.0,,,,,,,,,orange,diamond
0.0,6.0,2.0,1.0,6.0,6.0,512.3399170006451,8.0,0.0,part_2,stop,350.0,450.0,3.0,,,,,,,,,gray,cross
0.0,1.0,1.0,0.0,5.0,5.0,265.291435999643,8.0,0.0,part_2,go,350.0,400.0,1.0,,,,,,,,,green,triangle
0.0,1.0,1.0,0.0,6.0,6.0,250.2925170001617,8.0,0.0,part_2,go,350.0,400.0,1.0,,,,,,,,,green,triangle
0.0,2.0,2.0,0.0,6.0,6.0,284.0047760000743,8.0,0.0,part_2,go,350.0,400.0,1.0,,,,,,,,,yellow,I
0.0,6.0,2.0,1.0,6.0,6.0,308.1550010001592,8.0,0.0,part_2,stop,350.0,400.0,3.0,,,,,,,,,gray,cross
0.0,4.0,4.0,0.0,5.0,5.0,572.6236029995562,8.0,0.0,part_2,go,350.0,350.0,1.0,,,,,,,,,cyan,hexagon
0.0,2.0,2.0,0.0,5.0,5.0,270.9195099996577,8.0,0.0,part_2,go,350.0,350.0,1.0,,,,,,,,,yellow,I
0.0,8.0,4.0,1.0,6.0,6.0,236.03302399988019,8.0,0.0,part_2,stop,350.0,350.0,3.0,,,,,,,,,orange,diamond
0.0,2.0,2.0,0.0,6.0,6.0,601.4967909995903,8.0,0.0,part_2,go,350.0,300.0,1.0,,,,,,,,,yellow,I
0.0,6.0,2.0,1.0,5.0,5.0,481.7644719996679,8.0,0.0,part_2,go,350.0,300.0,1.0,,,,,,,,,gray,cross
0.0,3.0,3.0,0.0,5.0,5.0,555.925290000232,8.0,0.0,part_2,go,350.0,300.0,1.0,,,,,,,,,blue,square
0.0,2.0,2.0,0.0,5.0,5.0,400.9314750001067,8.0,0.0,part_2,go,350.0,300.0,1.0,,,,,,,,,yellow,I
0.0,3.0,3.0,0.0,6.0,6.0,226.8059079997328,8.0,0.0,part_2,go,350.0,300.0,1.0,,,,,,,,,blue,square
0.0,7.0,3.0,1.0,6.0,0.0,0.0,8.0,0.0,part_2,stop,350.0,300.0,4.0,,,,,,,,,white,flipped triangle
0.0,8.0,4.0,1.0,6.0,0.0,0.0,8.0,0.0,part_2,stop,350.0,350.0,4.0,,,,,,,,,orange,diamond
0.0,1.0,1.0,0.0,5.0,5.0,555.749877999915,8.0,0.0,part_2,go,350.0,400.0,1.0,,,,,,,,,green,triangle
0.0,1.0,1.0,0.0,6.0,6.0,571.5683669995997,8.0,0.0,part_2,go,350.0,400.0,1.0,,,,,,,,,green,triangle
0.0,8.0,4.0,1.0,5.0,5.0,309.7472939998624,8.0,0.0,part_2,stop,350.0,400.0,3.0,,,,,,,,,orange,diamond
0.0,2.0,2.0,0.0,6.0,6.0,499.9015240000517,8.0,0.0,part_2,go,300.0,400.0,1.0,,,,,,,,,yellow,I
0.0,3.0,3.0,0.0,5.0,5.0,650.8361120004338,8.0,0.0,part_2,go,300.0,400.0,1.0,,,,,,,,,blue,square
0.0,8.0,4.0,1.0,6.0,6.0,437.4427859993375,8.0,0.0,part_2,stop,300.0,400.0,3.0,,,,,,,,,orange,diamond
0.0,7.0,3.0,1.0,5.0,5.0,332.7556619997267,8.0,0.0,part_2,stop,300.0,350.0,3.0,,,,,,,,,white,flipped triangle
0.0,3.0,3.0,0.0,5.0,5.0,387.0405840007151,8.0,0.0,part_2,go,250.0,350.0,1.0,,,,,,,,,blue,square
0.0,6.0,2.0,1.0,5.0,0.0,0.0,8.0,0.0,part_2,stop,250.0,350.0,4.0,,,,,,,,,gray,cross
0.0,5.0,1.0,1.0,6.0,0.0,0.0,8.0,0.0,part_2,stop,300.0,350.0,4.0,,,,,,,,,magenta,circle
0.0,3.0,3.0,0.0,5.0,5.0,525.2129430000423,8.0,0.0,part_2,go,300.0,400.0,1.0,,,,,,,,,blue,square
0.0,6.0,2.0,1.0,5.0,0.0,0.0,8.0,0.0,part_2,stop,300.0,400.0,4.0,,,,,,,,,gray,cross
0.0,5.0,1.0,1.0,6.0,6.0,552.1266650002872,8.0,0.0,part_2,stop,350.0,400.0,3.0,,,,,,,,,magenta,circle
0.0,5.0,1.0,1.0,6.0,0.0,0.0,8.0,0.0,part_2,stop,350.0,350.0,4.0,,,,,,,,,magenta,circle
0.0,2.0,2.0,0.0,6.0,6.0,753.7943719999021,8.0,0.0,part_2,go,350.0,400.0,1.0,,,,,,,,,yellow,I
0.0,5.0,1.0,1.0,5.0,0.0,0.0,8.0,0.0,part_2,stop,350.0,400.0,4.0,,,,,,,,,magenta,circle
0.0,5.0,1.0,1.0,5.0,5.0,581.3610739996875,8.0,0.0,part_2,stop,400.0,400.0,3.0,,,,,,,,,magenta,circle
0.0,6.0,2.0,1.0,6.0,0.0,0.0,8.0,0.0,part_2,stop,350.0,400.0,4.0,,,,,,,,,gray,cross
0.0,8.0,4.0,1.0,5.0,5.0,571.2657739995848,8.0,0.0,part_2,go,350.0,450.0,1.0,,,,,,,,,orange,diamond
0.0,3.0,3.0,0.0,7.0,2.0,1518.1366779997916,1.0,1.0,part_3,go,0.0,0.0,0.0,162.0,3.0,270.0,162.0,324.0,216.0,108.0,54.0,blue,square
0.0,4.0,4.0,0.0,7.0,5.0,1213.204073999805,1.0,1.0,part_3,go,0.0,0.0,0.0,220.0,5.0,44.0,176.0,264.0,88.0,220.0,132.0,cyan,hexagon
0.0,4.0,4.0,0.0,7.0,1.0,1530.4136200002176,1.0,1.0,part_3,go,0.0,0.0,0.0,68.0,2.0,68.0,102.0,170.0,34.0,204.0,136.0,cyan,hexagon
0.0,7.0,3.0,1.0,7.0,6.0,1001.8323499998587,1.0,1.0,part_3,go,0.0,0.0,0.0,195.0,5.0,156.0,78.0,234.0,117.0,39.0,195.0,white,flipped triangle
0.0,5.0,1.0,1.0,7.0,3.0,1658.3784750000632,1.0,1.0,part_3,go,0.0,0.0,0.0,54.0,1.0,270.0,108.0,54.0,162.0,324.0,216.0,magenta,circle
0.0,2.0,2.0,0.0,7.0,5.0,1132.597810999869,1.0,1.0,part_3,go,0.0,0.0,0.0,234.0,6.0,39.0,78.0,195.0,156.0,234.0,117.0,yellow,I
0.0,4.0,4.0,0.0,7.0,6.0,2644.5371630006775,1.0,1.0,part_3,go,0.0,0.0,0.0,162.0,3.0,54.0,108.0,324.0,216.0,270.0,162.0,cyan,hexagon
0.0,6.0,2.0,1.0,7.0,1.0,829.8928160002106,1.0,1.0,part_3,go,0.0,0.0,0.0,176.0,4.0,176.0,132.0,88.0,220.0,264.0,44.0,gray,cross
0.0,7.0,3.0,1.0,7.0,1.0,421.6084869995029,1.0,1.0,part_3,go,0.0,0.0,0.0,324.0,6.0,324.0,270.0,162.0,108.0,216.0,54.0,white,flipped triangle
0.0,2.0,2.0,0.0,7.0,5.0,804.0082739998979,1.0,1.0,part_3,go,0.0,0.0,0.0,156.0,4.0,195.0,117.0,39.0,234.0,156.0,78.0,yellow,I
0.0,8.0,4.0,1.0,7.0,4.0,271.5637609999248,1.0,1.0,part_3,go,0.0,0.0,0.0,54.0,1.0,324.0,216.0,108.0,54.0,270.0,162.0,orange,diamond
0.0,5.0,1.0,1.0,7.0,4.0,1395.4735899997104,1.0,2.0,part_3,go,0.0,0.0,0.0,132.0,3.0,44.0,176.0,88.0,132.0,264.0,220.0,magenta,circle
0.0,7.0,3.0,1.0,7.0,6.0,2487.0810160000474,1.0,1.0,part_3,go,0.0,0.0,0.0,44.0,1.0,88.0,176.0,132.0,264.0,220.0,44.0,white,flipped triangle
0.0,1.0,1.0,0.0,7.0,5.0,1887.2426240004645,1.0,1.0,part_3,go,0.0,0.0,0.0,220.0,5.0,44.0,88.0,176.0,132.0,220.0,264.0,green,triangle
0.0,1.0,1.0,0.0,7.0,4.0,2742.527458999575,1.0,1.0,part_3,go,0.0,0.0,0.0,98.0,2.0,147.0,49.0,294.0,98.0,196.0,245.0,green,triangle
0.0,1.0,1.0,0.0,7.0,4.0,2549.4913660004386,1.0,1.0,part_3,go,0.0,0.0,0.0,78.0,2.0,39.0,156.0,195.0,78.0,117.0,234.0,green,triangle
0.0,2.0,2.0,0.0,7.0,2.0,2052.978425999754,1.0,1.0,part_3,go,0.0,0.0,0.0,270.0,5.0,108.0,270.0,324.0,216.0,162.0,54.0,yellow,I
0.0,2.0,2.0,0.0,7.0,5.0,1889.5324180002715,1.0,1.0,part_3,go,0.0,0.0,0.0,264.0,6.0,176.0,44.0,132.0,220.0,264.0,88.0,yellow,I
0.0,8.0,4.0,1.0,7.0,1.0,2738.3699399997568,1.0,1.0,part_3,go,0.0,0.0,0.0,196.0,4.0,196.0,245.0,294.0,147.0,98.0,49.0,orange,diamond
0.0,3.0,3.0,0.0,7.0,5.0,1926.765809000244,1.0,1.0,part_3,go,0.0,0.0,0.0,294.0,6.0,49.0,245.0,147.0,98.0,294.0,196.0,blue,square
0.0,6.0,2.0,1.0,7.0,1.0,1406.3352359999044,2.0,1.0,part_3,go,0.0,0.0,0.0,34.0,1.0,34.0,68.0,204.0,170.0,136.0,102.0,gray,cross
0.0,8.0,4.0,1.0,7.0,6.0,1420.6389809996836,2.0,1.0,part_3,go,0.0,0.0,0.0,68.0,2.0,34.0,204.0,170.0,136.0,102.0,68.0,orange,diamond
0.0,7.0,3.0,1.0,7.0,3.0,2299.2393849999644,2.0,1.0,part_3,go,0.0,0.0,0.0,196.0,4.0,49.0,245.0,196.0,294.0,98.0,147.0,white,flipped triangle
0.0,1.0,1.0,0.0,7.0,5.0,1681.9216699996105,2.0,1.0,part_3,go,0.0,0.0,0.0,108.0,2.0,54.0,270.0,162.0,324.0,108.0,216.0,green,triangle
0.0,3.0,3.0,0.0,7.0,4.0,1951.6477079996548,2.0,1.0,part_3,go,0.0,0.0,0.0,39.0,1.0,156.0,117.0,78.0,39.0,234.0,195.0,blue,square
0.0,5.0,1.0,1.0,7.0,5.0,2257.1166110001286,2.0,1.0,part_3,go,0.0,0.0,0.0,234.0,6.0,78.0,156.0,39.0,117.0,234.0,195.0,magenta,circle
0.0,1.0,1.0,0.0,7.0,4.0,1317.1145989999786,2.0,1.0,part_3,go,0.0,0.0,0.0,117.0,3.0,195.0,78.0,39.0,117.0,234.0,156.0,green,triangle
0.0,6.0,2.0,1.0,7.0,6.0,2187.7729329999056,2.0,1.0,part_3,go,0.0,0.0,0.0,78.0,2.0,234.0,156.0,39.0,117.0,195.0,78.0,gray,cross
0.0,2.0,2.0,0.0,7.0,2.0,2514.953455000068,2.0,1.0,part_3,go,0.0,0.0,0.0,204.0,6.0,102.0,204.0,68.0,170.0,136.0,34.0,yellow,I
0.0,4.0,4.0,0.0,7.0,6.0,1501.4170089998515,2.0,1.0,part_3,go,0.0,0.0,0.0,98.0,2.0,196.0,245.0,294.0,49.0,147.0,98.0,cyan,hexagon
0.0,1.0,1.0,0.0,7.0,5.0,1253.4441520001565,2.0,1.0,part_3,go,0.0,0.0,0.0,324.0,6.0,162.0,108.0,216.0,54.0,324.0,270.0,green,triangle
0.0,3.0,3.0,0.0,7.0,2.0,1684.8322969999572,2.0,1.0,part_3,go,0.0,0.0,0.0,102.0,3.0,136.0,102.0,68.0,34.0,170.0,204.0,blue,square
0.0,7.0,3.0,1.0,7.0,1.0,1396.6395039997224,2.0,1.0,part_3,go,0.0,0.0,0.0,44.0,1.0,44.0,176.0,88.0,264.0,220.0,132.0,white,flipped triangle
0.0,7.0,3.0,1.0,7.0,1.0,926.039106000644,2.0,1.0,part_3,go,0.0,0.0,0.0,49.0,1.0,49.0,147.0,98.0,294.0,245.0,196.0,white,flipped triangle
0.0,6.0,2.0,1.0,7.0,5.0,1230.2508419998048,2.0,1.0,part_3,go,0.0,0.0,0.0,216.0,4.0,324.0,54.0,108.0,270.0,216.0,162.0,gray,cross
0.0,3.0,3.0,0.0,7.0,6.0,624.5709089998854,2.0,1.0,part_3,go,0.0,0.0,0.0,220.0,5.0,88.0,264.0,132.0,176.0,44.0,220.0,blue,square
0.0,7.0,3.0,1.0,7.0,5.0,1553.1448570000066,2.0,1.0,part_3,go,0.0,0.0,0.0,54.0,1.0,270.0,162.0,108.0,324.0,54.0,216.0,white,flipped triangle
0.0,5.0,1.0,1.0,7.0,2.0,2589.999013999659,2.0,1.0,part_3,go,0.0,0.0,0.0,170.0,5.0,34.0,170.0,204.0,68.0,136.0,102.0,magenta,circle
0.0,5.0,1.0,1.0,7.0,5.0,1991.6276960002504,2.0,1.0,part_3,go,0.0,0.0,0.0,132.0,3.0,88.0,176.0,220.0,264.0,132.0,44.0,magenta,circle
0.0,4.0,4.0,0.0,7.0,3.0,1132.0680979997633,2.0,1.0,part_3,go,0.0,0.0,0.0,117.0,3.0,39.0,78.0,117.0,234.0,195.0,156.0,cyan,hexagon
0.0,3.0,3.0,0.0,7.0,3.0,1038.428305000707,3.0,1.0,part_3,go,0.0,0.0,0.0,68.0,2.0,170.0,102.0,68.0,136.0,34.0,204.0,blue,square
0.0,8.0,4.0,1.0,7.0,3.0,2042.6694859997951,3.0,1.0,part_3,go,0.0,0.0,0.0,234.0,6.0,156.0,117.0,234.0,78.0,39.0,195.0,orange,diamond
0.0,2.0,2.0,0.0,7.0,6.0,1354.9327370001265,3.0,1.0,part_3,go,0.0,0.0,0.0,147.0,3.0,98.0,49.0,294.0,245.0,196.0,147.0,yellow,I
0.0,8.0,4.0,1.0,7.0,5.0,1685.464201999821,3.0,1.0,part_3,go,0.0,0.0,0.0,220.0,5.0,264.0,44.0,88.0,176.0,220.0,132.0,orange,diamond
0.0,4.0,4.0,0.0,7.0,2.0,1590.4538069999037,3.0,1.0,part_3,go,0.0,0.0,0.0,34.0,1.0,68.0,34.0,204.0,136.0,170.0,102.0,cyan,hexagon
0.0,5.0,1.0,1.0,7.0,3.0,1393.5969650001423,3.0,1.0,part_3,go,0.0,0.0,0.0,49.0,1.0,294.0,147.0,49.0,245.0,196.0,98.0,magenta,circle
0.0,3.0,3.0,0.0,7.0,5.0,1365.983889000745,3.0,1.0,part_3,go,0.0,0.0,0.0,294.0,6.0,196.0,245.0,147.0,98.0,294.0,49.0,blue,square
0.0,2.0,2.0,0.0,7.0,2.0,1226.3642529997014,3.0,1.0,part_3,go,0.0,0.0,0.0,54.0,1.0,162.0,54.0,270.0,216.0,324.0,108.0,yellow,I
0.0,5.0,1.0,1.0,7.0,5.0,0.32569999984840003,3.0,1.0,part_3,go,0.0,0.0,0.0,216.0,4.0,270.0,324.0,108.0,54.0,216.0,162.0,magenta,circle
0.0,8.0,4.0,1.0,7.0,2.0,358.7410480004109,3.0,1.0,part_3,go,0.0,0.0,0.0,49.0,1.0,147.0,49.0,294.0,196.0,245.0,98.0,orange,diamond
0.0,8.0,4.0,1.0,7.0,3.0,250.03203899996151,3.0,1.0,part_3,go,0.0,0.0,0.0,264.0,6.0,88.0,132.0,264.0,176.0,44.0,220.0,orange,diamond
0.0,6.0,2.0,1.0,7.0,1.0,690.6983779999791,3.0,1.0,part_3,go,0.0,0.0,0.0,78.0,2.0,78.0,234.0,39.0,117.0,156.0,195.0,gray,cross
0.0,8.0,4.0,1.0,7.0,6.0,1040.781278000395,3.0,1.0,part_3,go,0.0,0.0,0.0,162.0,3.0,270.0,54.0,108.0,324.0,216.0,162.0,orange,diamond
0.0,4.0,4.0,0.0,7.0,2.0,610.9990049999396,3.0,1.0,part_3,go,0.0,0.0,0.0,88.0,2.0,44.0,88.0,264.0,132.0,176.0,220.0,cyan,hexagon
0.0,4.0,4.0,0.0,7.0,5.0,1120.337162999931,3.0,1.0,part_3,go,0.0,0.0,0.0,49.0,1.0,98.0,245.0,294.0,196.0,49.0,147.0,cyan,hexagon
0.0,4.0,4.0,0.0,7.0,1.0,314.3504390000089,3.0,1.0,part_3,go,0.0,0.0,0.0,117.0,3.0,117.0,195.0,39.0,156.0,234.0,78.0,cyan,hexagon
0.0,5.0,1.0,1.0,7.0,6.0,477.5759209996977,3.0,1.0,part_3,go,0.0,0.0,0.0,234.0,6.0,117.0,156.0,39.0,78.0,195.0,234.0,magenta,circle
0.0,7.0,3.0,1.0,7.0,2.0,2847.347580999667,3.0,1.0,part_3,go,0.0,0.0,0.0,68.0,2.0,102.0,68.0,170.0,204.0,136.0,34.0,white,flipped triangle
0.0,6.0,2.0,1.0,7.0,3.0,2319.811899999877,3.0,1.0,part_3,go,0.0,0.0,0.0,162.0,3.0,54.0,324.0,162.0,108.0,216.0,270.0,gray,cross
0.0,1.0,1.0,0.0,7.0,6.0,864.3042459998469,3.0,1.0,part_3,go,0.0,0.0,0.0,88.0,2.0,176.0,44.0,220.0,132.0,264.0,88.0,green,triangle
0.0,4.0,4.0,0.0,7.0,5.0,2523.474458000237,4.0,1.0,part_3,go,0.0,0.0,0.0,324.0,6.0,270.0,162.0,54.0,108.0,324.0,216.0,cyan,hexagon
0.0,3.0,3.0,0.0,7.0,2.0,1623.77003399979,4.0,1.0,part_3,go,0.0,0.0,0.0,176.0,4.0,44.0,176.0,220.0,264.0,132.0,88.0,blue,square
0.0,3.0,3.0,0.0,7.0,4.0,1304.6700340000823,4.0,1.0,part_3,go,0.0,0.0,0.0,39.0,1.0,195.0,78.0,156.0,39.0,117.0,234.0,blue,square
0.0,3.0,3.0,0.0,7.0,1.0,2497.695267999916,4.0,1.0,part_3,go,0.0,0.0,0.0,108.0,2.0,108.0,324.0,216.0,270.0,162.0,54.0,blue,square
0.0,6.0,2.0,1.0,7.0,5.0,2620.961745999921,4.0,1.0,part_3,go,0.0,0.0,0.0,68.0,2.0,34.0,136.0,170.0,204.0,68.0,102.0,gray,cross
0.0,2.0,2.0,0.0,7.0,1.0,405.2778229997784,4.0,1.0,part_3,go,0.0,0.0,0.0,88.0,2.0,88.0,176.0,264.0,132.0,44.0,220.0,yellow,I
0.0,1.0,1.0,0.0,7.0,5.0,741.5644880002219,4.0,1.0,part_3,go,0.0,0.0,0.0,170.0,5.0,68.0,204.0,102.0,136.0,170.0,34.0,green,triangle
0.0,6.0,2.0,1.0,7.0,2.0,396.237076000034,4.0,1.0,part_3,go,0.0,0.0,0.0,264.0,6.0,132.0,264.0,88.0,44.0,176.0,220.0,gray,cross
0.0,2.0,2.0,0.0,7.0,4.0,1336.852179999369,4.0,1.0,part_3,go,0.0,0.0,0.0,204.0,6.0,68.0,102.0,170.0,204.0,34.0,136.0,yellow,I
0.0,5.0,1.0,1.0,7.0,1.0,586.7472070003714,4.0,1.0,part_3,go,0.0,0.0,0.0,136.0,4.0,136.0,34.0,170.0,68.0,102.0,204.0,magenta,circle
0.0,1.0,1.0,0.0,7.0,3.0,1638.2368699996732,4.0,1.0,part_3,go,0.0,0.0,0.0,102.0,3.0,136.0,34.0,102.0,68.0,204.0,170.0,green,triangle
0.0,7.0,3.0,1.0,7.0,5.0,1010.7305909996285,4.0,1.0,part_3,go,0.0,0.0,0.0,68.0,2.0,170.0,204.0,102.0,136.0,68.0,34.0,white,flipped triangle
0.0,8.0,4.0,1.0,7.0,5.0,1732.4346320001496,4.0,1.0,part_3,go,0.0,0.0,0.0,204.0,6.0,102.0,170.0,68.0,136.0,204.0,34.0,orange,diamond
0.0,8.0,4.0,1.0,7.0,3.0,1956.2049630003455,4.0,1.0,part_3,go,0.0,0.0,0.0,234.0,6.0,156.0,39.0,234.0,78.0,195.0,117.0,orange,diamond
0.0,6.0,2.0,1.0,7.0,3.0,2594.719077999798,4.0,1.0,part_3,go,0.0,0.0,0.0,49.0,1.0,98.0,294.0,49.0,147.0,245.0,196.0,gray,cross
0.0,6.0,2.0,1.0,7.0,3.0,996.8446559996664,4.0,1.0,part_3,go,0.0,0.0,0.0,49.0,1.0,196.0,245.0,49.0,98.0,294.0,147.0,gray,cross
0.0,1.0,1.0,0.0,7.0,1.0,1020.6376149999414,4.0,1.0,part_3,go,0.0,0.0,0.0,98.0,2.0,98.0,147.0,196.0,245.0,294.0,49.0,green,triangle
0.0,5.0,1.0,1.0,7.0,6.0,991.36536900005,4.0,1.0,part_3,go,0.0,0.0,0.0,98.0,2.0,245.0,147.0,49.0,294.0,196.0,98.0,magenta,circle
0.0,2.0,2.0,0.0,7.0,4.0,2263.805140999466,4.0,1.0,part_3,go,0.0,0.0,0.0,147.0,3.0,294.0,98.0,245.0,147.0,196.0,49.0,yellow,I
0.0,7.0,3.0,1.0,7.0,4.0,2449.4460029991387,4.0,1.0,part_3,go,0.0,0.0,0.0,39.0,1.0,117.0,234.0,195.0,39.0,156.0,78.0,white,flipped triangle
