raw_reward_magnitude,stim_reward,stepwise_reward_magnitude,paired_with_stopping,quadrant,response,reaction_time,block,num_trial_presentations,which_part,stop_signal_trial_type,left_SSD,right_SSD,accuracy,chosen_bidding_amount,chosen_bidding_level,possible_bid_1,possible_bid_2,possible_bid_3,possible_bid_4,possible_bid_5,possible_bid_6,color_text,shape_text
110.0,6.0,2.0,1.0,3.0,3.0,427.4382700000387,1.0,1.0,part_1,,,,,,,,,,,,,cyan,square
175.0,7.0,3.0,1.0,1.0,1.0,342.2683869998764,1.0,1.0,part_1,,,,,,,,,,,,,magenta,I
74.0,1.0,1.0,0.0,2.0,2.0,379.6726149998903,1.0,1.0,part_1,,,,,,,,,,,,,orange,hexagon
224.0,3.0,3.0,0.0,1.0,1.0,250.6673279999631,1.0,1.0,part_1,,,,,,,,,,,,,green,circle
61.0,1.0,1.0,0.0,3.0,3.0,329.3504800003575,1.0,1.0,part_1,,,,,,,,,,,,,orange,hexagon
68.0,1.0,1.0,0.0,3.0,3.0,315.9711739999693,1.0,1.0,part_1,,,,,,,,,,,,,orange,hexagon
77.0,6.0,2.0,1.0,2.0,2.0,281.7483799999536,1.0,1.0,part_1,,,,,,,,,,,,,cyan,square
188.0,7.0,3.0,1.0,1.0,1.0,278.5087739998744,1.0,1.0,part_1,,,,,,,,,,,,,magenta,I
108.0,2.0,2.0,0.0,4.0,4.0,262.600644000031,1.0,1.0,part_1,,,,,,,,,,,,,blue,flipped triangle
122.0,2.0,2.0,0.0,1.0,1.0,259.3307739998636,1.0,1.0,part_1,,,,,,,,,,,,,blue,flipped triangle
38.0,1.0,1.0,0.0,2.0,2.0,261.0941819998515,1.0,1.0,part_1,,,,,,,,,,,,,orange,hexagon
416.0,4.0,4.0,0.0,1.0,1.0,273.1016490001821,1.0,1.0,part_1,,,,,,,,,,,,,yellow,diamond
175.0,3.0,3.0,0.0,3.0,3.0,266.5303740000126,1.0,1.0,part_1,,,,,,,,,,,,,green,circle
180.0,7.0,3.0,1.0,2.0,2.0,326.8242699996335,1.0,1.0,part_1,,,,,,,,,,,,,magenta,I
98.0,6.0,2.0,1.0,4.0,4.0,260.9772430000703,1.0,1.0,part_1,,,,,,,,,,,,,cyan,square
0.0,5.0,0.0,1.0,1.0,1.0,266.6518030000588,1.0,1.0,part_1,,,,,,,,,,,,,white,cross
186.0,3.0,3.0,0.0,1.0,1.0,329.7436140001082,1.0,1.0,part_1,,,,,,,,,,,,,green,circle
48.0,5.0,1.0,1.0,4.0,4.0,295.2955740001926,1.0,1.0,part_1,,,,,,,,,,,,,white,cross
392.0,8.0,4.0,1.0,4.0,4.0,344.6486359998744,1.0,1.0,part_1,,,,,,,,,,,,,gray,triangle
115.0,2.0,2.0,0.0,2.0,2.0,318.4523180002543,1.0,1.0,part_1,,,,,,,,,,,,,blue,flipped triangle
387.0,8.0,4.0,1.0,4.0,4.0,325.1508539997303,1.0,1.0,part_1,,,,,,,,,,,,,gray,triangle
125.0,2.0,2.0,0.0,1.0,1.0,263.0588060001173,1.0,1.0,part_1,,,,,,,,,,,,,blue,flipped triangle
0.0,7.0,0.0,1.0,1.0,1.0,305.0170269998489,1.0,1.0,part_1,,,,,,,,,,,,,magenta,I
66.0,1.0,1.0,0.0,1.0,1.0,285.3963949996796,1.0,1.0,part_1,,,,,,,,,,,,,orange,hexagon
400.0,4.0,4.0,0.0,2.0,2.0,314.3518090000725,1.0,1.0,part_1,,,,,,,,,,,,,yellow,diamond
403.0,4.0,4.0,0.0,3.0,3.0,252.51149900032033,1.0,1.0,part_1,,,,,,,,,,,,,yellow,diamond
403.0,8.0,4.0,1.0,1.0,1.0,233.5972450000554,1.0,1.0,part_1,,,,,,,,,,,,,gray,triangle
0.0,2.0,0.0,0.0,1.0,1.0,330.4221710000092,1.0,1.0,part_1,,,,,,,,,,,,,blue,flipped triangle
53.0,5.0,1.0,1.0,2.0,2.0,371.220416000142,1.0,1.0,part_1,,,,,,,,,,,,,white,cross
187.0,3.0,3.0,0.0,1.0,1.0,300.5721829999856,1.0,1.0,part_1,,,,,,,,,,,,,green,circle
214.0,3.0,3.0,0.0,2.0,2.0,335.114730999976,1.0,1.0,part_1,,,,,,,,,,,,,green,circle
0.0,4.0,0.0,0.0,2.0,2.0,299.8168059998534,1.0,1.0,part_1,,,,,,,,,,,,,yellow,diamond
0.0,8.0,0.0,1.0,3.0,3.0,363.6058329998377,1.0,1.0,part_1,,,,,,,,,,,,,gray,triangle
110.0,2.0,2.0,0.0,4.0,4.0,303.1293330000153,1.0,1.0,part_1,,,,,,,,,,,,,blue,flipped triangle
43.0,5.0,1.0,1.0,4.0,4.0,326.9935850003094,1.0,1.0,part_1,,,,,,,,,,,,,white,cross
0.0,4.0,0.0,0.0,1.0,1.0,267.9871249997632,1.0,1.0,part_1,,,,,,,,,,,,,yellow,diamond
93.0,2.0,2.0,0.0,2.0,2.0,249.8446439999497,1.0,1.0,part_1,,,,,,,,,,,,,blue,flipped triangle
53.0,1.0,1.0,0.0,1.0,1.0,313.4847549999904,1.0,1.0,part_1,,,,,,,,,,,,,orange,hexagon
219.0,7.0,3.0,1.0,2.0,2.0,299.3807050002033,1.0,1.0,part_1,,,,,,,,,,,,,magenta,I
405.0,4.0,4.0,0.0,3.0,3.0,328.4208009999929,1.0,1.0,part_1,,,,,,,,,,,,,yellow,diamond
186.0,7.0,3.0,1.0,1.0,1.0,239.4088880000708,1.0,1.0,part_1,,,,,,,,,,,,,magenta,I
389.0,4.0,4.0,0.0,2.0,2.0,361.9629190002342,1.0,1.0,part_1,,,,,,,,,,,,,yellow,diamond
194.0,7.0,3.0,1.0,1.0,1.0,283.9038810002421,1.0,1.0,part_1,,,,,,,,,,,,,magenta,I
177.0,3.0,3.0,0.0,3.0,3.0,299.8384600000463,1.0,1.0,part_1,,,,,,,,,,,,,green,circle
0.0,4.0,0.0,0.0,3.0,3.0,303.9613020000615,1.0,1.0,part_1,,,,,,,,,,,,,yellow,diamond
0.0,5.0,0.0,1.0,1.0,1.0,263.0684949999704,1.0,1.0,part_1,,,,,,,,,,,,,white,cross
79.0,6.0,2.0,1.0,2.0,2.0,337.0273189998443,1.0,1.0,part_1,,,,,,,,,,,,,cyan,square
98.0,6.0,2.0,1.0,1.0,1.0,385.2313080001295,1.0,1.0,part_1,,,,,,,,,,,,,cyan,square
124.0,2.0,2.0,0.0,4.0,4.0,312.4805610000294,1.0,1.0,part_1,,,,,,,,,,,,,blue,flipped triangle
42.0,1.0,1.0,0.0,2.0,2.0,264.3700950002312,1.0,1.0,part_1,,,,,,,,,,,,,orange,hexagon
214.0,7.0,3.0,1.0,4.0,4.0,331.4879110002948,1.0,1.0,part_1,,,,,,,,,,,,,magenta,I
36.0,1.0,1.0,0.0,2.0,2.0,259.5005230000424,1.0,1.0,part_1,,,,,,,,,,,,,orange,hexagon
68.0,5.0,1.0,1.0,4.0,4.0,280.5000240000481,1.0,1.0,part_1,,,,,,,,,,,,,white,cross
47.0,1.0,1.0,0.0,2.0,2.0,315.0219129997822,1.0,1.0,part_1,,,,,,,,,,,,,orange,hexagon
0.0,1.0,0.0,0.0,2.0,2.0,308.8266539998585,1.0,1.0,part_1,,,,,,,,,,,,,orange,hexagon
410.0,8.0,4.0,1.0,4.0,4.0,277.8689850001683,1.0,1.0,part_1,,,,,,,,,,,,,gray,triangle
0.0,6.0,0.0,1.0,4.0,4.0,295.8179069996731,1.0,1.0,part_1,,,,,,,,,,,,,cyan,square
420.0,8.0,4.0,1.0,2.0,2.0,329.2330680001214,1.0,1.0,part_1,,,,,,,,,,,,,gray,triangle
224.0,3.0,3.0,0.0,2.0,2.0,300.9034629999405,1.0,1.0,part_1,,,,,,,,,,,,,green,circle
0.0,6.0,0.0,1.0,3.0,3.0,332.8396130000328,1.0,1.0,part_1,,,,,,,,,,,,,cyan,square
0.0,3.0,0.0,0.0,2.0,2.0,327.0616700001483,1.0,1.0,part_1,,,,,,,,,,,,,green,circle
220.0,3.0,3.0,0.0,4.0,4.0,286.6529059997447,1.0,1.0,part_1,,,,,,,,,,,,,green,circle
80.0,6.0,2.0,1.0,1.0,1.0,356.1443250000593,1.0,1.0,part_1,,,,,,,,,,,,,cyan,square
0.0,1.0,0.0,0.0,1.0,1.0,336.7978850001236,1.0,1.0,part_1,,,,,,,,,,,,,orange,hexagon
122.0,6.0,2.0,1.0,4.0,4.0,265.5371699997886,1.0,1.0,part_1,,,,,,,,,,,,,cyan,square
177.0,7.0,3.0,1.0,4.0,4.0,315.9376409998913,1.0,1.0,part_1,,,,,,,,,,,,,magenta,I
390.0,8.0,4.0,1.0,1.0,1.0,295.9737520000089,1.0,1.0,part_1,,,,,,,,,,,,,gray,triangle
409.0,4.0,4.0,0.0,4.0,4.0,271.0332319998088,1.0,1.0,part_1,,,,,,,,,,,,,yellow,diamond
0.0,7.0,0.0,1.0,2.0,2.0,293.349168000077,1.0,1.0,part_1,,,,,,,,,,,,,magenta,I
66.0,5.0,1.0,1.0,1.0,1.0,376.5062400002534,1.0,1.0,part_1,,,,,,,,,,,,,white,cross
0.0,2.0,0.0,0.0,4.0,4.0,277.8408730000592,1.0,1.0,part_1,,,,,,,,,,,,,blue,flipped triangle
411.0,4.0,4.0,0.0,1.0,1.0,264.7044659997846,1.0,1.0,part_1,,,,,,,,,,,,,yellow,diamond
59.0,1.0,1.0,0.0,3.0,3.0,370.6259559999125,1.0,1.0,part_1,,,,,,,,,,,,,orange,hexagon
63.0,5.0,1.0,1.0,2.0,2.0,302.93724799958,1.0,1.0,part_1,,,,,,,,,,,,,white,cross
404.0,4.0,4.0,0.0,4.0,4.0,266.3302490000205,1.0,1.0,part_1,,,,,,,,,,,,,yellow,diamond
0.0,5.0,0.0,1.0,2.0,2.0,279.6967290000793,1.0,1.0,part_1,,,,,,,,,,,,,white,cross
392.0,4.0,4.0,0.0,1.0,1.0,290.1654479996978,1.0,1.0,part_1,,,,,,,,,,,,,yellow,diamond
33.0,5.0,1.0,1.0,2.0,2.0,377.1032740000919,1.0,1.0,part_1,,,,,,,,,,,,,white,cross
87.0,2.0,2.0,0.0,2.0,2.0,329.3337390000488,1.0,1.0,part_1,,,,,,,,,,,,,blue,flipped triangle
0.0,6.0,0.0,1.0,3.0,3.0,396.8128880001131,1.0,2.0,part_1,,,,,,,,,,,,,cyan,square
391.0,4.0,4.0,0.0,3.0,3.0,409.7371699999712,1.0,1.0,part_1,,,,,,,,,,,,,yellow,diamond
224.0,7.0,3.0,1.0,4.0,4.0,430.3815729999769,1.0,1.0,part_1,,,,,,,,,,,,,magenta,I
39.0,5.0,1.0,1.0,3.0,3.0,378.9352819999294,1.0,1.0,part_1,,,,,,,,,,,,,white,cross
395.0,4.0,4.0,0.0,1.0,1.0,303.7462899997081,1.0,1.0,part_1,,,,,,,,,,,,,yellow,diamond
0.0,1.0,0.0,0.0,2.0,2.0,370.8247230001689,1.0,1.0,part_1,,,,,,,,,,,,,orange,hexagon
0.0,3.0,0.0,0.0,4.0,4.0,263.9559620001819,1.0,1.0,part_1,,,,,,,,,,,,,green,circle
107.0,2.0,2.0,0.0,3.0,3.0,419.6594270001696,1.0,1.0,part_1,,,,,,,,,,,,,blue,flipped triangle
0.0,2.0,0.0,0.0,4.0,4.0,328.192928000135,1.0,1.0,part_1,,,,,,,,,,,,,blue,flipped triangle
73.0,1.0,1.0,0.0,2.0,2.0,424.308142999962,1.0,1.0,part_1,,,,,,,,,,,,,orange,hexagon
189.0,7.0,3.0,1.0,4.0,4.0,310.3915910000978,1.0,1.0,part_1,,,,,,,,,,,,,magenta,I
117.0,2.0,2.0,0.0,3.0,3.0,331.714158000068,1.0,1.0,part_1,,,,,,,,,,,,,blue,flipped triangle
0.0,6.0,0.0,1.0,1.0,1.0,271.1890830000811,1.0,1.0,part_1,,,,,,,,,,,,,cyan,square
212.0,7.0,3.0,1.0,4.0,4.0,336.8530679999821,1.0,1.0,part_1,,,,,,,,,,,,,magenta,I
74.0,5.0,1.0,1.0,3.0,3.0,364.4048289997954,1.0,1.0,part_1,,,,,,,,,,,,,white,cross
73.0,5.0,1.0,1.0,2.0,2.0,280.7496899999933,1.0,1.0,part_1,,,,,,,,,,,,,white,cross
98.0,6.0,2.0,1.0,4.0,4.0,245.2682890002506,1.0,1.0,part_1,,,,,,,,,,,,,cyan,square
179.0,3.0,3.0,0.0,2.0,2.0,403.212073999839,1.0,1.0,part_1,,,,,,,,,,,,,green,circle
381.0,4.0,4.0,0.0,4.0,4.0,275.5971060000775,1.0,1.0,part_1,,,,,,,,,,,,,yellow,diamond
50.0,1.0,1.0,0.0,1.0,1.0,289.7300320000795,1.0,1.0,part_1,,,,,,,,,,,,,orange,hexagon
207.0,3.0,3.0,0.0,4.0,4.0,310.2554429997326,1.0,1.0,part_1,,,,,,,,,,,,,green,circle
219.0,3.0,3.0,0.0,1.0,1.0,381.3641130000178,2.0,1.0,part_1,,,,,,,,,,,,,green,circle
70.0,1.0,1.0,0.0,1.0,1.0,361.927254999955,2.0,1.0,part_1,,,,,,,,,,,,,orange,hexagon
203.0,7.0,3.0,1.0,1.0,1.0,280.6392050001705,2.0,1.0,part_1,,,,,,,,,,,,,magenta,I
112.0,2.0,2.0,0.0,4.0,4.0,311.665400000038,2.0,1.0,part_1,,,,,,,,,,,,,blue,flipped triangle
183.0,3.0,3.0,0.0,1.0,1.0,265.7092320000629,2.0,1.0,part_1,,,,,,,,,,,,,green,circle
48.0,1.0,1.0,0.0,1.0,1.0,315.2288189999126,2.0,1.0,part_1,,,,,,,,,,,,,orange,hexagon
221.0,7.0,3.0,1.0,1.0,1.0,334.726708999824,2.0,1.0,part_1,,,,,,,,,,,,,magenta,I
188.0,3.0,3.0,0.0,2.0,2.0,583.6467659996742,2.0,1.0,part_1,,,,,,,,,,,,,green,circle
420.0,4.0,4.0,0.0,2.0,2.0,363.3219070002269,2.0,1.0,part_1,,,,,,,,,,,,,yellow,diamond
79.0,2.0,2.0,0.0,1.0,1.0,388.4901979999995,2.0,1.0,part_1,,,,,,,,,,,,,blue,flipped triangle
73.0,1.0,1.0,0.0,4.0,4.0,385.1565979998668,2.0,1.0,part_1,,,,,,,,,,,,,orange,hexagon
413.0,8.0,4.0,1.0,1.0,1.0,333.9483589998053,2.0,1.0,part_1,,,,,,,,,,,,,gray,triangle
63.0,1.0,1.0,0.0,4.0,4.0,375.0718000001143,2.0,1.0,part_1,,,,,,,,,,,,,orange,hexagon
182.0,3.0,3.0,0.0,2.0,2.0,393.8104019998718,2.0,1.0,part_1,,,,,,,,,,,,,green,circle
206.0,7.0,3.0,1.0,3.0,3.0,434.4388029999209,2.0,1.0,part_1,,,,,,,,,,,,,magenta,I
0.0,3.0,0.0,0.0,1.0,1.0,234.8544150004272,2.0,1.0,part_1,,,,,,,,,,,,,green,circle
112.0,6.0,2.0,1.0,2.0,2.0,364.9153520000254,2.0,1.0,part_1,,,,,,,,,,,,,cyan,square
0.0,7.0,0.0,1.0,3.0,3.0,483.6447019997649,2.0,1.0,part_1,,,,,,,,,,,,,magenta,I
112.0,6.0,2.0,1.0,3.0,3.0,464.8492139999689,2.0,1.0,part_1,,,,,,,,,,,,,cyan,square
0.0,4.0,0.0,0.0,2.0,2.0,367.3327550000067,2.0,1.0,part_1,,,,,,,,,,,,,yellow,diamond
413.0,4.0,4.0,0.0,1.0,1.0,361.28058299982507,2.0,1.0,part_1,,,,,,,,,,,,,yellow,diamond
0.0,8.0,0.0,1.0,1.0,1.0,369.06404000001197,2.0,1.0,part_1,,,,,,,,,,,,,gray,triangle
124.0,6.0,2.0,1.0,4.0,4.0,286.6713019998315,2.0,1.0,part_1,,,,,,,,,,,,,cyan,square
82.0,6.0,2.0,1.0,4.0,4.0,341.5175610002734,2.0,1.0,part_1,,,,,,,,,,,,,cyan,square
409.0,8.0,4.0,1.0,1.0,1.0,267.773249000129,2.0,1.0,part_1,,,,,,,,,,,,,gray,triangle
53.0,1.0,1.0,0.0,4.0,4.0,325.4899259995909,2.0,1.0,part_1,,,,,,,,,,,,,orange,hexagon
42.0,5.0,1.0,1.0,2.0,2.0,352.0163660000435,2.0,1.0,part_1,,,,,,,,,,,,,white,cross
389.0,4.0,4.0,0.0,2.0,2.0,457.798122999975,2.0,1.0,part_1,,,,,,,,,,,,,yellow,diamond
205.0,7.0,3.0,1.0,2.0,2.0,410.5024420000518,2.0,1.0,part_1,,,,,,,,,,,,,magenta,I
0.0,1.0,0.0,0.0,3.0,3.0,360.5915599996478,2.0,1.0,part_1,,,,,,,,,,,,,orange,hexagon
45.0,5.0,1.0,1.0,3.0,3.0,442.1578720002799,2.0,1.0,part_1,,,,,,,,,,,,,white,cross
199.0,7.0,3.0,1.0,3.0,3.0,386.3741290001599,2.0,1.0,part_1,,,,,,,,,,,,,magenta,I
94.0,6.0,2.0,1.0,4.0,4.0,365.4614550000588,2.0,1.0,part_1,,,,,,,,,,,,,cyan,square
59.0,5.0,1.0,1.0,4.0,4.0,325.6575719997272,2.0,1.0,part_1,,,,,,,,,,,,,white,cross
0.0,7.0,0.0,1.0,4.0,4.0,315.8536600003572,2.0,1.0,part_1,,,,,,,,,,,,,magenta,I
40.0,5.0,1.0,1.0,3.0,3.0,397.5351300000511,2.0,1.0,part_1,,,,,,,,,,,,,white,cross
88.0,2.0,2.0,0.0,2.0,2.0,321.0142259999884,2.0,1.0,part_1,,,,,,,,,,,,,blue,flipped triangle
43.0,5.0,1.0,1.0,3.0,3.0,401.6551559998333,2.0,1.0,part_1,,,,,,,,,,,,,white,cross
112.0,2.0,2.0,0.0,4.0,4.0,297.0680640000864,2.0,1.0,part_1,,,,,,,,,,,,,blue,flipped triangle
396.0,8.0,4.0,1.0,1.0,1.0,300.2656540002135,2.0,1.0,part_1,,,,,,,,,,,,,gray,triangle
0.0,5.0,0.0,1.0,2.0,2.0,425.7953710002766,2.0,1.0,part_1,,,,,,,,,,,,,white,cross
94.0,6.0,2.0,1.0,3.0,3.0,272.37524299971477,2.0,1.0,part_1,,,,,,,,,,,,,cyan,square
107.0,6.0,2.0,1.0,1.0,1.0,276.0457449999194,2.0,1.0,part_1,,,,,,,,,,,,,cyan,square
114.0,6.0,2.0,1.0,2.0,2.0,338.9389220001249,2.0,1.0,part_1,,,,,,,,,,,,,cyan,square
377.0,8.0,4.0,1.0,2.0,2.0,399.4769360001555,2.0,1.0,part_1,,,,,,,,,,,,,gray,triangle
392.0,4.0,4.0,0.0,3.0,3.0,417.2193889999107,2.0,1.0,part_1,,,,,,,,,,,,,yellow,diamond
395.0,8.0,4.0,1.0,2.0,2.0,315.7510629998796,2.0,1.0,part_1,,,,,,,,,,,,,gray,triangle
183.0,7.0,3.0,1.0,2.0,2.0,410.360368000056,2.0,1.0,part_1,,,,,,,,,,,,,magenta,I
37.0,5.0,1.0,1.0,1.0,1.0,458.3334700000705,2.0,1.0,part_1,,,,,,,,,,,,,white,cross
27.0,1.0,1.0,0.0,1.0,1.0,325.7013389998064,2.0,1.0,part_1,,,,,,,,,,,,,orange,hexagon
0.0,1.0,0.0,0.0,1.0,1.0,306.2798680002743,2.0,1.0,part_1,,,,,,,,,,,,,orange,hexagon
405.0,8.0,4.0,1.0,3.0,3.0,341.608768000242,2.0,1.0,part_1,,,,,,,,,,,,,gray,triangle
0.0,4.0,0.0,0.0,3.0,3.0,402.473025999825,2.0,1.0,part_1,,,,,,,,,,,,,yellow,diamond
207.0,7.0,3.0,1.0,1.0,1.0,413.0320079998455,2.0,1.0,part_1,,,,,,,,,,,,,magenta,I
88.0,6.0,2.0,1.0,3.0,3.0,479.7435519999453,2.0,1.0,part_1,,,,,,,,,,,,,cyan,square
115.0,6.0,2.0,1.0,1.0,1.0,361.7918019999706,2.0,1.0,part_1,,,,,,,,,,,,,cyan,square
124.0,6.0,2.0,1.0,1.0,1.0,317.9250579996733,2.0,1.0,part_1,,,,,,,,,,,,,cyan,square
377.0,8.0,4.0,1.0,4.0,4.0,321.5925630001948,2.0,1.0,part_1,,,,,,,,,,,,,gray,triangle
28.0,1.0,1.0,0.0,4.0,4.0,343.2447629998023,2.0,1.0,part_1,,,,,,,,,,,,,orange,hexagon
29.0,5.0,1.0,1.0,4.0,4.0,409.6883879997222,2.0,1.0,part_1,,,,,,,,,,,,,white,cross
50.0,5.0,1.0,1.0,3.0,3.0,405.0975609998204,2.0,1.0,part_1,,,,,,,,,,,,,white,cross
182.0,7.0,3.0,1.0,3.0,3.0,384.1240819997438,2.0,1.0,part_1,,,,,,,,,,,,,magenta,I
0.0,3.0,0.0,0.0,4.0,4.0,325.0225220003813,2.0,1.0,part_1,,,,,,,,,,,,,green,circle
0.0,3.0,0.0,0.0,4.0,4.0,340.2404209996348,2.0,1.0,part_1,,,,,,,,,,,,,green,circle
403.0,8.0,4.0,1.0,2.0,2.0,340.6727719998343,2.0,1.0,part_1,,,,,,,,,,,,,gray,triangle
0.0,1.0,0.0,0.0,3.0,3.0,341.350999000042,2.0,1.0,part_1,,,,,,,,,,,,,orange,hexagon
202.0,3.0,3.0,0.0,2.0,2.0,420.9728999999242,2.0,1.0,part_1,,,,,,,,,,,,,green,circle
0.0,4.0,0.0,0.0,1.0,1.0,334.81448800012,2.0,1.0,part_1,,,,,,,,,,,,,yellow,diamond
59.0,1.0,1.0,0.0,1.0,1.0,341.1923079997905,2.0,1.0,part_1,,,,,,,,,,,,,orange,hexagon
116.0,6.0,2.0,1.0,4.0,4.0,310.8754520003458,2.0,1.0,part_1,,,,,,,,,,,,,cyan,square
88.0,2.0,2.0,0.0,4.0,4.0,393.8878259996272,2.0,1.0,part_1,,,,,,,,,,,,,blue,flipped triangle
0.0,2.0,0.0,0.0,1.0,1.0,416.7349480003395,2.0,1.0,part_1,,,,,,,,,,,,,blue,flipped triangle
94.0,2.0,2.0,0.0,3.0,3.0,347.0431480000115,2.0,1.0,part_1,,,,,,,,,,,,,blue,flipped triangle
214.0,3.0,3.0,0.0,4.0,4.0,329.2275849998987,2.0,1.0,part_1,,,,,,,,,,,,,green,circle
0.0,7.0,0.0,1.0,1.0,1.0,330.6892420000622,2.0,1.0,part_1,,,,,,,,,,,,,magenta,I
82.0,2.0,2.0,0.0,1.0,1.0,336.9341780003196,2.0,1.0,part_1,,,,,,,,,,,,,blue,flipped triangle
192.0,3.0,3.0,0.0,3.0,3.0,321.2963949999903,2.0,1.0,part_1,,,,,,,,,,,,,green,circle
77.0,2.0,2.0,0.0,4.0,4.0,397.4132969997299,2.0,1.0,part_1,,,,,,,,,,,,,blue,flipped triangle
0.0,5.0,0.0,1.0,2.0,2.0,388.3859079996909,2.0,1.0,part_1,,,,,,,,,,,,,white,cross
37.0,1.0,1.0,0.0,3.0,3.0,408.4342450000804,2.0,1.0,part_1,,,,,,,,,,,,,orange,hexagon
407.0,8.0,4.0,1.0,3.0,3.0,350.6626940002206,2.0,1.0,part_1,,,,,,,,,,,,,gray,triangle
77.0,2.0,2.0,0.0,3.0,3.0,371.4679879999494,2.0,1.0,part_1,,,,,,,,,,,,,blue,flipped triangle
380.0,8.0,4.0,1.0,2.0,2.0,364.3298769998182,2.0,1.0,part_1,,,,,,,,,,,,,gray,triangle
55.0,1.0,1.0,0.0,4.0,4.0,346.4089170001898,2.0,1.0,part_1,,,,,,,,,,,,,orange,hexagon
87.0,2.0,2.0,0.0,2.0,2.0,339.951302999907,2.0,1.0,part_1,,,,,,,,,,,,,blue,flipped triangle
198.0,3.0,3.0,0.0,3.0,3.0,334.1792920000443,2.0,1.0,part_1,,,,,,,,,,,,,green,circle
73.0,5.0,1.0,1.0,2.0,2.0,351.1254160002863,2.0,1.0,part_1,,,,,,,,,,,,,white,cross
202.0,7.0,3.0,1.0,2.0,2.0,367.2012110000651,2.0,1.0,part_1,,,,,,,,,,,,,magenta,I
94.0,2.0,2.0,0.0,1.0,1.0,345.9771910002018,2.0,1.0,part_1,,,,,,,,,,,,,blue,flipped triangle
403.0,4.0,4.0,0.0,2.0,2.0,379.076312000052,2.0,1.0,part_1,,,,,,,,,,,,,yellow,diamond
397.0,4.0,4.0,0.0,1.0,1.0,339.1213680001783,2.0,1.0,part_1,,,,,,,,,,,,,yellow,diamond
0.0,7.0,0.0,1.0,3.0,3.0,328.8669139997182,2.0,1.0,part_1,,,,,,,,,,,,,magenta,I
217.0,3.0,3.0,0.0,4.0,4.0,356.9429409999429,2.0,1.0,part_1,,,,,,,,,,,,,green,circle
389.0,8.0,4.0,1.0,4.0,4.0,351.0230500000943,2.0,1.0,part_1,,,,,,,,,,,,,gray,triangle
0.0,4.0,0.0,0.0,2.0,2.0,313.8291400000526,2.0,1.0,part_1,,,,,,,,,,,,,yellow,diamond
70.0,1.0,1.0,0.0,3.0,3.0,360.2222210001855,2.0,1.0,part_1,,,,,,,,,,,,,orange,hexagon
67.0,5.0,1.0,1.0,2.0,2.0,376.7905519998749,2.0,1.0,part_1,,,,,,,,,,,,,white,cross
103.0,6.0,2.0,1.0,2.0,2.0,320.222269000169,2.0,1.0,part_1,,,,,,,,,,,,,cyan,square
0.0,3.0,0.0,0.0,1.0,1.0,383.8740490000418,2.0,1.0,part_1,,,,,,,,,,,,,green,circle
416.0,8.0,4.0,1.0,2.0,2.0,361.1185190002288,2.0,1.0,part_1,,,,,,,,,,,,,gray,triangle
107.0,2.0,2.0,0.0,1.0,1.0,413.6712159997842,3.0,1.0,part_1,,,,,,,,,,,,,blue,flipped triangle
395.0,4.0,4.0,0.0,3.0,3.0,327.7015740000024,3.0,1.0,part_1,,,,,,,,,,,,,yellow,diamond
220.0,3.0,3.0,0.0,3.0,3.0,419.0636060002362,3.0,1.0,part_1,,,,,,,,,,,,,green,circle
0.0,8.0,0.0,1.0,1.0,1.0,295.8741140000711,3.0,1.0,part_1,,,,,,,,,,,,,gray,triangle
78.0,2.0,2.0,0.0,1.0,1.0,320.7469079998191,3.0,1.0,part_1,,,,,,,,,,,,,blue,flipped triangle
391.0,8.0,4.0,1.0,1.0,1.0,357.895347000067,3.0,1.0,part_1,,,,,,,,,,,,,gray,triangle
0.0,2.0,0.0,0.0,3.0,3.0,359.8375880001185,3.0,1.0,part_1,,,,,,,,,,,,,blue,flipped triangle
0.0,5.0,0.0,1.0,4.0,4.0,320.9145270002409,3.0,1.0,part_1,,,,,,,,,,,,,white,cross
73.0,1.0,1.0,0.0,4.0,4.0,326.7979730003389,3.0,1.0,part_1,,,,,,,,,,,,,orange,hexagon
410.0,4.0,4.0,0.0,4.0,4.0,308.2706670002153,3.0,1.0,part_1,,,,,,,,,,,,,yellow,diamond
0.0,1.0,0.0,0.0,2.0,2.0,286.7945359998884,3.0,1.0,part_1,,,,,,,,,,,,,orange,hexagon
411.0,4.0,4.0,0.0,3.0,3.0,351.1765339999328,3.0,1.0,part_1,,,,,,,,,,,,,yellow,diamond
117.0,6.0,2.0,1.0,2.0,2.0,326.1271599999418,3.0,1.0,part_1,,,,,,,,,,,,,cyan,square
78.0,6.0,2.0,1.0,1.0,1.0,364.9702719999368,3.0,1.0,part_1,,,,,,,,,,,,,cyan,square
115.0,2.0,2.0,0.0,3.0,3.0,374.5114029998149,3.0,1.0,part_1,,,,,,,,,,,,,blue,flipped triangle
414.0,4.0,4.0,0.0,4.0,4.0,371.2384729997211,3.0,1.0,part_1,,,,,,,,,,,,,yellow,diamond
49.0,1.0,1.0,0.0,4.0,4.0,317.2477810003329,3.0,1.0,part_1,,,,,,,,,,,,,orange,hexagon
91.0,6.0,2.0,1.0,3.0,3.0,405.4832910001096,3.0,1.0,part_1,,,,,,,,,,,,,cyan,square
30.0,1.0,1.0,0.0,1.0,1.0,284.1363900001852,3.0,1.0,part_1,,,,,,,,,,,,,orange,hexagon
55.0,5.0,1.0,1.0,4.0,4.0,291.6223970000828,3.0,1.0,part_1,,,,,,,,,,,,,white,cross
110.0,2.0,2.0,0.0,4.0,4.0,295.8183870000539,3.0,1.0,part_1,,,,,,,,,,,,,blue,flipped triangle
0.0,6.0,0.0,1.0,3.0,3.0,456.9504730002336,3.0,1.0,part_1,,,,,,,,,,,,,cyan,square
86.0,6.0,2.0,1.0,3.0,3.0,339.3775049999021,3.0,1.0,part_1,,,,,,,,,,,,,cyan,square
182.0,3.0,3.0,0.0,1.0,1.0,289.3104020004102,3.0,1.0,part_1,,,,,,,,,,,,,green,circle
215.0,7.0,3.0,1.0,3.0,3.0,390.344855999956,3.0,1.0,part_1,,,,,,,,,,,,,magenta,I
214.0,7.0,3.0,1.0,2.0,2.0,400.483061000159,3.0,1.0,part_1,,,,,,,,,,,,,magenta,I
418.0,8.0,4.0,1.0,4.0,4.0,278.1945290003023,3.0,1.0,part_1,,,,,,,,,,,,,gray,triangle
90.0,6.0,2.0,1.0,2.0,2.0,371.8125750001491,3.0,1.0,part_1,,,,,,,,,,,,,cyan,square
38.0,5.0,1.0,1.0,3.0,3.0,349.8972060001506,3.0,1.0,part_1,,,,,,,,,,,,,white,cross
125.0,6.0,2.0,1.0,3.0,3.0,331.4402910000353,3.0,1.0,part_1,,,,,,,,,,,,,cyan,square
28.0,1.0,1.0,0.0,3.0,3.0,363.1291149999924,3.0,1.0,part_1,,,,,,,,,,,,,orange,hexagon
0.0,5.0,0.0,1.0,3.0,3.0,316.3789529999121,3.0,1.0,part_1,,,,,,,,,,,,,white,cross
58.0,1.0,1.0,0.0,3.0,3.0,337.6502699998127,3.0,1.0,part_1,,,,,,,,,,,,,orange,hexagon
412.0,8.0,4.0,1.0,3.0,3.0,338.6452380000264,3.0,1.0,part_1,,,,,,,,,,,,,gray,triangle
207.0,7.0,3.0,1.0,4.0,4.0,334.4975489999342,3.0,1.0,part_1,,,,,,,,,,,,,magenta,I
0.0,8.0,0.0,1.0,1.0,1.0,330.5757879998054,3.0,1.0,part_1,,,,,,,,,,,,,gray,triangle
103.0,6.0,2.0,1.0,4.0,4.0,300.311535000219,3.0,1.0,part_1,,,,,,,,,,,,,cyan,square
203.0,3.0,3.0,0.0,2.0,2.0,342.9253939998489,3.0,1.0,part_1,,,,,,,,,,,,,green,circle
59.0,5.0,1.0,1.0,1.0,1.0,399.2383519998839,3.0,1.0,part_1,,,,,,,,,,,,,white,cross
0.0,8.0,0.0,1.0,2.0,2.0,405.0087680002434,3.0,1.0,part_1,,,,,,,,,,,,,gray,triangle
61.0,5.0,1.0,1.0,2.0,2.0,370.6487499998729,3.0,1.0,part_1,,,,,,,,,,,,,white,cross
214.0,3.0,3.0,0.0,3.0,3.0,366.3281179997284,3.0,1.0,part_1,,,,,,,,,,,,,green,circle
0.0,4.0,0.0,0.0,3.0,3.0,321.6562030002023,3.0,1.0,part_1,,,,,,,,,,,,,yellow,diamond
392.0,8.0,4.0,1.0,1.0,1.0,276.86377600002737,3.0,1.0,part_1,,,,,,,,,,,,,gray,triangle
87.0,6.0,2.0,1.0,1.0,1.0,320.4427769996982,3.0,1.0,part_1,,,,,,,,,,,,,cyan,square
49.0,5.0,1.0,1.0,3.0,3.0,368.6245310000231,3.0,1.0,part_1,,,,,,,,,,,,,white,cross
28.0,5.0,1.0,1.0,4.0,4.0,301.8139340001653,3.0,1.0,part_1,,,,,,,,,,,,,white,cross
403.0,4.0,4.0,0.0,3.0,3.0,431.5990410000268,3.0,1.0,part_1,,,,,,,,,,,,,yellow,diamond
407.0,4.0,4.0,0.0,2.0,2.0,487.5708230001692,3.0,1.0,part_1,,,,,,,,,,,,,yellow,diamond
397.0,8.0,4.0,1.0,3.0,3.0,364.3730880003204,3.0,1.0,part_1,,,,,,,,,,,,,gray,triangle
380.0,4.0,4.0,0.0,3.0,3.0,336.1655629996676,3.0,1.0,part_1,,,,,,,,,,,,,yellow,diamond
404.0,8.0,4.0,1.0,1.0,1.0,280.9721779999563,3.0,1.0,part_1,,,,,,,,,,,,,gray,triangle
0.0,2.0,0.0,0.0,3.0,3.0,355.6427700000313,3.0,2.0,part_1,,,,,,,,,,,,,blue,flipped triangle
53.0,5.0,1.0,1.0,1.0,1.0,415.5913320000763,3.0,1.0,part_1,,,,,,,,,,,,,white,cross
0.0,7.0,0.0,1.0,2.0,2.0,446.2129829998957,3.0,1.0,part_1,,,,,,,,,,,,,magenta,I
414.0,8.0,4.0,1.0,4.0,4.0,323.0111590000888,3.0,1.0,part_1,,,,,,,,,,,,,gray,triangle
86.0,6.0,2.0,1.0,4.0,4.0,327.5570719997631,3.0,1.0,part_1,,,,,,,,,,,,,cyan,square
206.0,3.0,3.0,0.0,4.0,4.0,344.4739780002237,3.0,1.0,part_1,,,,,,,,,,,,,green,circle
180.0,3.0,3.0,0.0,4.0,4.0,359.3432719999327,3.0,1.0,part_1,,,,,,,,,,,,,green,circle
59.0,1.0,1.0,0.0,2.0,2.0,605.5116730003647,3.0,1.0,part_1,,,,,,,,,,,,,orange,hexagon
215.0,3.0,3.0,0.0,2.0,2.0,736.3398830002552,3.0,1.0,part_1,,,,,,,,,,,,,green,circle
0.0,6.0,0.0,1.0,4.0,4.0,331.8087069997091,3.0,1.0,part_1,,,,,,,,,,,,,cyan,square
0.0,7.0,0.0,1.0,1.0,1.0,351.6843560000779,3.0,1.0,part_1,,,,,,,,,,,,,magenta,I
77.0,6.0,2.0,1.0,3.0,3.0,481.3059230000363,3.0,1.0,part_1,,,,,,,,,,,,,cyan,square
115.0,6.0,2.0,1.0,2.0,2.0,364.8757959999784,3.0,1.0,part_1,,,,,,,,,,,,,cyan,square
107.0,6.0,2.0,1.0,1.0,1.0,370.7332930002849,3.0,1.0,part_1,,,,,,,,,,,,,cyan,square
401.0,8.0,4.0,1.0,2.0,2.0,431.1264739999387,3.0,1.0,part_1,,,,,,,,,,,,,gray,triangle
124.0,2.0,2.0,0.0,2.0,2.0,399.5677809998597,3.0,1.0,part_1,,,,,,,,,,,,,blue,flipped triangle
114.0,2.0,2.0,0.0,3.0,3.0,379.5908990000498,3.0,1.0,part_1,,,,,,,,,,,,,blue,flipped triangle
0.0,2.0,0.0,0.0,4.0,4.0,348.9261450004051,3.0,1.0,part_1,,,,,,,,,,,,,blue,flipped triangle
33.0,1.0,1.0,0.0,4.0,4.0,344.7681259999626,3.0,1.0,part_1,,,,,,,,,,,,,orange,hexagon
73.0,5.0,1.0,1.0,1.0,1.0,397.0687999999427,3.0,1.0,part_1,,,,,,,,,,,,,white,cross
97.0,2.0,2.0,0.0,3.0,3.0,369.4561639999847,3.0,1.0,part_1,,,,,,,,,,,,,blue,flipped triangle
423.0,4.0,4.0,0.0,2.0,2.0,369.1600439997273,3.0,1.0,part_1,,,,,,,,,,,,,yellow,diamond
52.0,5.0,1.0,1.0,3.0,3.0,427.0854460000919,3.0,1.0,part_1,,,,,,,,,,,,,white,cross
396.0,4.0,4.0,0.0,3.0,3.0,348.2851399999163,3.0,1.0,part_1,,,,,,,,,,,,,yellow,diamond
376.0,4.0,4.0,0.0,2.0,2.0,480.9563099997831,3.0,1.0,part_1,,,,,,,,,,,,,yellow,diamond
108.0,6.0,2.0,1.0,2.0,2.0,412.3218099998667,3.0,1.0,part_1,,,,,,,,,,,,,cyan,square
390.0,4.0,4.0,0.0,4.0,4.0,302.172822999637,3.0,1.0,part_1,,,,,,,,,,,,,yellow,diamond
27.0,5.0,1.0,1.0,4.0,4.0,453.1320299997787,3.0,1.0,part_1,,,,,,,,,,,,,white,cross
0.0,4.0,0.0,0.0,3.0,3.0,382.1996900001068,3.0,1.0,part_1,,,,,,,,,,,,,yellow,diamond
390.0,4.0,4.0,0.0,4.0,4.0,330.5267050000111,3.0,1.0,part_1,,,,,,,,,,,,,yellow,diamond
0.0,4.0,0.0,0.0,3.0,3.0,412.5344340000083,3.0,1.0,part_1,,,,,,,,,,,,,yellow,diamond
207.0,3.0,3.0,0.0,3.0,3.0,365.88219900022517,3.0,1.0,part_1,,,,,,,,,,,,,green,circle
0.0,8.0,0.0,1.0,3.0,3.0,341.1481190000813,3.0,1.0,part_1,,,,,,,,,,,,,gray,triangle
0.0,3.0,0.0,0.0,1.0,1.0,368.4081979999973,3.0,1.0,part_1,,,,,,,,,,,,,green,circle
400.0,8.0,4.0,1.0,4.0,4.0,300.9423859998605,3.0,1.0,part_1,,,,,,,,,,,,,gray,triangle
220.0,7.0,3.0,1.0,3.0,3.0,373.6762240000644,3.0,1.0,part_1,,,,,,,,,,,,,magenta,I
199.0,3.0,3.0,0.0,3.0,3.0,382.1742580003047,3.0,1.0,part_1,,,,,,,,,,,,,green,circle
0.0,6.0,0.0,1.0,3.0,3.0,433.1799520000459,3.0,1.0,part_1,,,,,,,,,,,,,cyan,square
0.0,2.0,0.0,0.0,4.0,4.0,298.7199119997967,3.0,1.0,part_1,,,,,,,,,,,,,blue,flipped triangle
110.0,6.0,2.0,1.0,4.0,4.0,317.0527009997386,3.0,1.0,part_1,,,,,,,,,,,,,cyan,square
198.0,7.0,3.0,1.0,3.0,3.0,354.5900210001491,3.0,1.0,part_1,,,,,,,,,,,,,magenta,I
187.0,7.0,3.0,1.0,3.0,3.0,354.3634739999106,3.0,1.0,part_1,,,,,,,,,,,,,magenta,I
214.0,7.0,3.0,1.0,3.0,3.0,348.2866839999587,3.0,1.0,part_1,,,,,,,,,,,,,magenta,I
175.0,7.0,3.0,1.0,4.0,4.0,287.2787000001153,3.0,1.0,part_1,,,,,,,,,,,,,magenta,I
0.0,3.0,0.0,0.0,1.0,1.0,288.5604610000882,3.0,1.0,part_1,,,,,,,,,,,,,green,circle
116.0,2.0,2.0,0.0,1.0,1.0,382.5699999997596,3.0,1.0,part_1,,,,,,,,,,,,,blue,flipped triangle
47.0,5.0,1.0,1.0,3.0,3.0,324.3901129999358,3.0,1.0,part_1,,,,,,,,,,,,,white,cross
204.0,3.0,3.0,0.0,4.0,4.0,327.731255999879,3.0,1.0,part_1,,,,,,,,,,,,,green,circle
216.0,7.0,3.0,1.0,4.0,4.0,441.686029000266,4.0,1.0,part_1,,,,,,,,,,,,,magenta,I
0.0,5.0,0.0,1.0,2.0,2.0,418.2096690001344,4.0,1.0,part_1,,,,,,,,,,,,,white,cross
34.0,5.0,1.0,1.0,1.0,1.0,317.4588809997658,4.0,1.0,part_1,,,,,,,,,,,,,white,cross
0.0,8.0,0.0,1.0,4.0,4.0,367.5956130000486,4.0,1.0,part_1,,,,,,,,,,,,,gray,triangle
94.0,6.0,2.0,1.0,1.0,1.0,335.9064159994886,4.0,1.0,part_1,,,,,,,,,,,,,cyan,square
98.0,2.0,2.0,0.0,3.0,3.0,493.6898089999886,4.0,1.0,part_1,,,,,,,,,,,,,blue,flipped triangle
0.0,2.0,0.0,0.0,2.0,2.0,322.9429249995519,4.0,1.0,part_1,,,,,,,,,,,,,blue,flipped triangle
189.0,3.0,3.0,0.0,1.0,1.0,285.4323910005405,4.0,1.0,part_1,,,,,,,,,,,,,green,circle
423.0,8.0,4.0,1.0,2.0,2.0,446.9787010002619,4.0,1.0,part_1,,,,,,,,,,,,,gray,triangle
387.0,4.0,4.0,0.0,1.0,1.0,410.9167019996675,4.0,1.0,part_1,,,,,,,,,,,,,yellow,diamond
186.0,3.0,3.0,0.0,4.0,4.0,315.6446250004592,4.0,1.0,part_1,,,,,,,,,,,,,green,circle
376.0,8.0,4.0,1.0,3.0,3.0,390.818477000721,4.0,1.0,part_1,,,,,,,,,,,,,gray,triangle
381.0,8.0,4.0,1.0,3.0,3.0,380.6893680002758,4.0,1.0,part_1,,,,,,,,,,,,,gray,triangle
97.0,6.0,2.0,1.0,3.0,3.0,322.2282569995514,4.0,1.0,part_1,,,,,,,,,,,,,cyan,square
87.0,6.0,2.0,1.0,1.0,1.0,305.499908999991,4.0,1.0,part_1,,,,,,,,,,,,,cyan,square
212.0,3.0,3.0,0.0,1.0,1.0,402.2529170006237,4.0,1.0,part_1,,,,,,,,,,,,,green,circle
216.0,3.0,3.0,0.0,1.0,1.0,459.5060000001467,4.0,1.0,part_1,,,,,,,,,,,,,green,circle
221.0,3.0,3.0,0.0,2.0,2.0,418.9919820000796,4.0,1.0,part_1,,,,,,,,,,,,,green,circle
59.0,5.0,1.0,1.0,1.0,1.0,401.5822430001208,4.0,1.0,part_1,,,,,,,,,,,,,white,cross
412.0,4.0,4.0,0.0,4.0,4.0,337.4800440005856,4.0,1.0,part_1,,,,,,,,,,,,,yellow,diamond
0.0,8.0,0.0,1.0,1.0,1.0,390.3227869996044,4.0,1.0,part_1,,,,,,,,,,,,,gray,triangle
0.0,2.0,0.0,0.0,1.0,1.0,354.9080650000178,4.0,1.0,part_1,,,,,,,,,,,,,blue,flipped triangle
419.0,8.0,4.0,1.0,1.0,1.0,371.0214310003721,4.0,1.0,part_1,,,,,,,,,,,,,gray,triangle
405.0,8.0,4.0,1.0,3.0,3.0,443.8393450000149,4.0,1.0,part_1,,,,,,,,,,,,,gray,triangle
86.0,2.0,2.0,0.0,3.0,3.0,381.4035320001494,4.0,1.0,part_1,,,,,,,,,,,,,blue,flipped triangle
36.0,5.0,1.0,1.0,1.0,1.0,320.5966519999492,4.0,1.0,part_1,,,,,,,,,,,,,white,cross
216.0,3.0,3.0,0.0,3.0,3.0,309.5343690001755,4.0,1.0,part_1,,,,,,,,,,,,,green,circle
395.0,8.0,4.0,1.0,1.0,1.0,348.2775789998413,4.0,1.0,part_1,,,,,,,,,,,,,gray,triangle
0.0,1.0,0.0,0.0,2.0,2.0,577.991111999836,4.0,1.0,part_1,,,,,,,,,,,,,orange,hexagon
204.0,7.0,3.0,1.0,2.0,2.0,484.0996259999883,4.0,1.0,part_1,,,,,,,,,,,,,magenta,I
29.0,1.0,1.0,0.0,3.0,3.0,483.4516680002707,4.0,1.0,part_1,,,,,,,,,,,,,orange,hexagon
0.0,1.0,0.0,0.0,3.0,3.0,420.9066960002019,4.0,1.0,part_1,,,,,,,,,,,,,orange,hexagon
0.0,5.0,0.0,1.0,1.0,1.0,308.4307660001286,4.0,1.0,part_1,,,,,,,,,,,,,white,cross
411.0,8.0,4.0,1.0,2.0,2.0,401.3874419997592,4.0,1.0,part_1,,,,,,,,,,,,,gray,triangle
93.0,6.0,2.0,1.0,3.0,3.0,590.3718360004859,4.0,1.0,part_1,,,,,,,,,,,,,cyan,square
220.0,7.0,3.0,1.0,2.0,2.0,604.0623500002766,4.0,1.0,part_1,,,,,,,,,,,,,magenta,I
183.0,3.0,3.0,0.0,3.0,3.0,364.9344999994355,4.0,1.0,part_1,,,,,,,,,,,,,green,circle
30.0,5.0,1.0,1.0,4.0,4.0,380.1580240005933,4.0,1.0,part_1,,,,,,,,,,,,,white,cross
40.0,1.0,1.0,0.0,2.0,2.0,394.165265999618,4.0,1.0,part_1,,,,,,,,,,,,,orange,hexagon
70.0,5.0,1.0,1.0,2.0,2.0,457.2930149997773,4.0,1.0,part_1,,,,,,,,,,,,,white,cross
37.0,5.0,1.0,1.0,4.0,4.0,441.7862959999183,4.0,1.0,part_1,,,,,,,,,,,,,white,cross
90.0,2.0,2.0,0.0,2.0,2.0,429.1056109996134,4.0,1.0,part_1,,,,,,,,,,,,,blue,flipped triangle
423.0,8.0,4.0,1.0,3.0,3.0,364.078602000518,4.0,1.0,part_1,,,,,,,,,,,,,gray,triangle
403.0,8.0,4.0,1.0,3.0,3.0,405.7198000000426,4.0,1.0,part_1,,,,,,,,,,,,,gray,triangle
199.0,7.0,3.0,1.0,2.0,2.0,377.9531010004575,4.0,1.0,part_1,,,,,,,,,,,,,magenta,I
0.0,7.0,0.0,1.0,2.0,2.0,397.1221030005836,4.0,1.0,part_1,,,,,,,,,,,,,magenta,I
205.0,3.0,3.0,0.0,2.0,2.0,404.2080960007297,4.0,1.0,part_1,,,,,,,,,,,,,green,circle
94.0,2.0,2.0,0.0,2.0,2.0,395.7964110004468,4.0,1.0,part_1,,,,,,,,,,,,,blue,flipped triangle
390.0,8.0,4.0,1.0,3.0,3.0,437.6686559999143,4.0,1.0,part_1,,,,,,,,,,,,,gray,triangle
224.0,7.0,3.0,1.0,3.0,3.0,370.2802540001357,4.0,1.0,part_1,,,,,,,,,,,,,magenta,I
0.0,6.0,0.0,1.0,4.0,4.0,342.243199999757,4.0,1.0,part_1,,,,,,,,,,,,,cyan,square
43.0,1.0,1.0,0.0,2.0,2.0,342.4126370000522,4.0,1.0,part_1,,,,,,,,,,,,,orange,hexagon
98.0,2.0,2.0,0.0,2.0,2.0,446.4868940003725,4.0,1.0,part_1,,,,,,,,,,,,,blue,flipped triangle
182.0,7.0,3.0,1.0,4.0,4.0,361.1711690000447,4.0,1.0,part_1,,,,,,,,,,,,,magenta,I
377.0,4.0,4.0,0.0,4.0,4.0,319.1632259995458,4.0,1.0,part_1,,,,,,,,,,,,,yellow,diamond
192.0,7.0,3.0,1.0,1.0,1.0,387.1004810007434,4.0,1.0,part_1,,,,,,,,,,,,,magenta,I
216.0,7.0,3.0,1.0,3.0,3.0,324.9531199999182,4.0,1.0,part_1,,,,,,,,,,,,,magenta,I
43.0,1.0,1.0,0.0,3.0,3.0,528.2667459996446,4.0,1.0,part_1,,,,,,,,,,,,,orange,hexagon
183.0,7.0,3.0,1.0,2.0,2.0,455.5988040001466,4.0,1.0,part_1,,,,,,,,,,,,,magenta,I
199.0,3.0,3.0,0.0,4.0,4.0,421.7746620006437,4.0,1.0,part_1,,,,,,,,,,,,,green,circle
423.0,4.0,4.0,0.0,1.0,1.0,392.4404409999624,4.0,1.0,part_1,,,,,,,,,,,,,yellow,diamond
0.0,8.0,0.0,1.0,2.0,2.0,372.4572230003105,4.0,1.0,part_1,,,,,,,,,,,,,gray,triangle
377.0,4.0,4.0,0.0,1.0,1.0,345.0316919997931,4.0,1.0,part_1,,,,,,,,,,,,,yellow,diamond
67.0,1.0,1.0,0.0,4.0,4.0,333.3408359994791,4.0,1.0,part_1,,,,,,,,,,,,,orange,hexagon
0.0,1.0,0.0,0.0,2.0,2.0,340.8107149998614,4.0,1.0,part_1,,,,,,,,,,,,,orange,hexagon
175.0,3.0,3.0,0.0,1.0,1.0,360.2701930003604,4.0,1.0,part_1,,,,,,,,,,,,,green,circle
103.0,2.0,2.0,0.0,4.0,4.0,339.0975270003764,4.0,1.0,part_1,,,,,,,,,,,,,blue,flipped triangle
401.0,4.0,4.0,0.0,2.0,2.0,408.6379570007921,4.0,1.0,part_1,,,,,,,,,,,,,yellow,diamond
0.0,3.0,0.0,0.0,3.0,3.0,379.6379750001506,4.0,1.0,part_1,,,,,,,,,,,,,green,circle
80.0,2.0,2.0,0.0,2.0,2.0,475.6527850004204,4.0,1.0,part_1,,,,,,,,,,,,,blue,flipped triangle
179.0,7.0,3.0,1.0,1.0,1.0,370.0337109994507,4.0,1.0,part_1,,,,,,,,,,,,,magenta,I
70.0,5.0,1.0,1.0,1.0,1.0,363.2864320006774,4.0,1.0,part_1,,,,,,,,,,,,,white,cross
217.0,7.0,3.0,1.0,4.0,4.0,294.4783310003913,4.0,1.0,part_1,,,,,,,,,,,,,magenta,I
418.0,4.0,4.0,0.0,4.0,4.0,407.0293719996698,4.0,1.0,part_1,,,,,,,,,,,,,yellow,diamond
419.0,4.0,4.0,0.0,2.0,2.0,373.7880449998556,4.0,1.0,part_1,,,,,,,,,,,,,yellow,diamond
37.0,1.0,1.0,0.0,4.0,4.0,346.3626470002054,4.0,1.0,part_1,,,,,,,,,,,,,orange,hexagon
39.0,1.0,1.0,0.0,2.0,2.0,436.3875559993175,4.0,1.0,part_1,,,,,,,,,,,,,orange,hexagon
0.0,6.0,0.0,1.0,4.0,4.0,308.9929260004282,4.0,1.0,part_1,,,,,,,,,,,,,cyan,square
52.0,1.0,1.0,0.0,3.0,3.0,374.9241559999063,4.0,1.0,part_1,,,,,,,,,,,,,orange,hexagon
88.0,6.0,2.0,1.0,2.0,2.0,335.3238390000115,4.0,1.0,part_1,,,,,,,,,,,,,cyan,square
394.0,4.0,4.0,0.0,3.0,3.0,362.766181000552,4.0,1.0,part_1,,,,,,,,,,,,,yellow,diamond
0.0,6.0,0.0,1.0,3.0,3.0,383.2213790001333,4.0,1.0,part_1,,,,,,,,,,,,,cyan,square
103.0,2.0,2.0,0.0,4.0,4.0,362.3480149999523,4.0,1.0,part_1,,,,,,,,,,,,,blue,flipped triangle
91.0,2.0,2.0,0.0,1.0,1.0,385.9488879998025,4.0,1.0,part_1,,,,,,,,,,,,,blue,flipped triangle
394.0,8.0,4.0,1.0,4.0,4.0,403.2566169998972,4.0,1.0,part_1,,,,,,,,,,,,,gray,triangle
0.0,5.0,0.0,1.0,2.0,2.0,337.9013230005512,4.0,1.0,part_1,,,,,,,,,,,,,white,cross
45.0,1.0,1.0,0.0,1.0,1.0,329.9297870007649,4.0,1.0,part_1,,,,,,,,,,,,,orange,hexagon
186.0,7.0,3.0,1.0,1.0,1.0,432.276591000118,4.0,1.0,part_1,,,,,,,,,,,,,magenta,I
0.0,7.0,0.0,1.0,2.0,2.0,385.9779399999752,4.0,1.0,part_1,,,,,,,,,,,,,magenta,I
58.0,5.0,1.0,1.0,2.0,2.0,365.2482839997901,4.0,1.0,part_1,,,,,,,,,,,,,white,cross
389.0,8.0,4.0,1.0,4.0,4.0,323.0488290000721,4.0,1.0,part_1,,,,,,,,,,,,,gray,triangle
0.0,8.0,0.0,1.0,4.0,4.0,356.2313590000485,4.0,1.0,part_1,,,,,,,,,,,,,gray,triangle
194.0,3.0,3.0,0.0,4.0,4.0,404.2558620003547,4.0,1.0,part_1,,,,,,,,,,,,,green,circle
28.0,5.0,1.0,1.0,1.0,1.0,361.0611550002431,4.0,1.0,part_1,,,,,,,,,,,,,white,cross
86.0,2.0,2.0,0.0,3.0,3.0,377.1425199993246,4.0,1.0,part_1,,,,,,,,,,,,,blue,flipped triangle
34.0,1.0,1.0,0.0,1.0,1.0,351.3943349998953,4.0,1.0,part_1,,,,,,,,,,,,,orange,hexagon
0.0,3.0,0.0,0.0,2.0,2.0,337.5387280002542,4.0,1.0,part_1,,,,,,,,,,,,,green,circle
98.0,2.0,2.0,0.0,1.0,1.0,379.8012420002123,4.0,1.0,part_1,,,,,,,,,,,,,blue,flipped triangle
411.0,8.0,4.0,1.0,2.0,2.0,389.140516000225,4.0,1.0,part_1,,,,,,,,,,,,,gray,triangle
405.0,4.0,4.0,0.0,1.0,1.0,326.055945999542,4.0,1.0,part_1,,,,,,,,,,,,,yellow,diamond
0.0,1.0,1.0,0.0,6.0,6.0,487.92311100078217,1.0,0.0,part_2,go,250.0,250.0,1.0,,,,,,,,,orange,hexagon
0.0,7.0,3.0,1.0,5.0,0.0,0.0,1.0,0.0,part_2,stop,250.0,250.0,4.0,,,,,,,,,magenta,I
0.0,1.0,1.0,0.0,5.0,5.0,514.2917709999892,1.0,0.0,part_2,go,300.0,250.0,1.0,,,,,,,,,orange,hexagon
0.0,7.0,3.0,1.0,6.0,0.0,0.0,1.0,0.0,part_2,stop,300.0,250.0,4.0,,,,,,,,,magenta,I
0.0,8.0,4.0,1.0,6.0,0.0,0.0,1.0,0.0,part_2,stop,300.0,300.0,4.0,,,,,,,,,gray,triangle
0.0,1.0,1.0,0.0,5.0,5.0,525.2293520006788,1.0,0.0,part_2,go,300.0,350.0,1.0,,,,,,,,,orange,hexagon
0.0,5.0,1.0,1.0,6.0,0.0,0.0,1.0,0.0,part_2,stop,300.0,350.0,4.0,,,,,,,,,white,cross
0.0,6.0,2.0,1.0,6.0,0.0,0.0,1.0,0.0,part_2,stop,300.0,400.0,4.0,,,,,,,,,cyan,square
0.0,1.0,1.0,0.0,6.0,6.0,588.9315289996375,1.0,0.0,part_2,go,300.0,450.0,1.0,,,,,,,,,orange,hexagon
0.0,1.0,1.0,0.0,6.0,6.0,543.273133999719,1.0,0.0,part_2,go,300.0,450.0,1.0,,,,,,,,,orange,hexagon
0.0,2.0,2.0,0.0,5.0,5.0,633.1535109993638,1.0,0.0,part_2,go,300.0,450.0,1.0,,,,,,,,,blue,flipped triangle
0.0,3.0,3.0,0.0,6.0,6.0,529.3953049995253,1.0,0.0,part_2,go,300.0,450.0,1.0,,,,,,,,,green,circle
0.0,6.0,2.0,1.0,5.0,0.0,0.0,1.0,0.0,part_2,stop,300.0,450.0,4.0,,,,,,,,,cyan,square
0.0,5.0,1.0,1.0,6.0,6.0,481.7209010006991,1.0,0.0,part_2,stop,350.0,450.0,3.0,,,,,,,,,white,cross
0.0,1.0,1.0,0.0,5.0,5.0,563.7005930002488,1.0,0.0,part_2,go,350.0,400.0,1.0,,,,,,,,,orange,hexagon
0.0,2.0,2.0,0.0,6.0,6.0,528.0461060001471,1.0,0.0,part_2,go,350.0,400.0,1.0,,,,,,,,,blue,flipped triangle
0.0,5.0,1.0,1.0,5.0,5.0,515.7098149993544,1.0,0.0,part_2,go,350.0,400.0,1.0,,,,,,,,,white,cross
0.0,2.0,2.0,0.0,5.0,5.0,423.3534169998165,1.0,0.0,part_2,go,350.0,400.0,1.0,,,,,,,,,blue,flipped triangle
0.0,7.0,3.0,1.0,5.0,0.0,0.0,1.0,0.0,part_2,stop,350.0,400.0,4.0,,,,,,,,,magenta,I
0.0,6.0,2.0,1.0,6.0,6.0,506.1961840001459,1.0,0.0,part_2,stop,400.0,400.0,3.0,,,,,,,,,cyan,square
0.0,3.0,3.0,0.0,5.0,5.0,604.1327930006446,1.0,0.0,part_2,go,400.0,350.0,1.0,,,,,,,,,green,circle
0.0,2.0,2.0,0.0,5.0,5.0,583.6853699993299,1.0,0.0,part_2,go,400.0,350.0,1.0,,,,,,,,,blue,flipped triangle
0.0,8.0,4.0,1.0,6.0,0.0,0.0,1.0,0.0,part_2,stop,400.0,350.0,4.0,,,,,,,,,gray,triangle
0.0,3.0,3.0,0.0,5.0,5.0,554.9466829997982,1.0,0.0,part_2,go,400.0,400.0,1.0,,,,,,,,,green,circle
0.0,5.0,1.0,1.0,5.0,5.0,546.3321349998296,1.0,0.0,part_2,go,400.0,400.0,1.0,,,,,,,,,white,cross
0.0,7.0,3.0,1.0,6.0,6.0,523.7054409999473,1.0,0.0,part_2,stop,400.0,400.0,3.0,,,,,,,,,magenta,I
0.0,6.0,2.0,1.0,5.0,5.0,529.1941040004531,1.0,0.0,part_2,stop,400.0,350.0,3.0,,,,,,,,,cyan,square
0.0,1.0,1.0,0.0,5.0,5.0,536.6961360005007,1.0,0.0,part_2,go,350.0,350.0,1.0,,,,,,,,,orange,hexagon
0.0,8.0,4.0,1.0,5.0,0.0,0.0,1.0,0.0,part_2,stop,350.0,350.0,4.0,,,,,,,,,gray,triangle
0.0,2.0,2.0,0.0,6.0,6.0,493.549054000141,1.0,0.0,part_2,go,400.0,350.0,1.0,,,,,,,,,blue,flipped triangle
0.0,7.0,3.0,1.0,5.0,0.0,0.0,1.0,0.0,part_2,stop,400.0,350.0,4.0,,,,,,,,,magenta,I
0.0,6.0,2.0,1.0,5.0,5.0,550.1126859999204,1.0,0.0,part_2,go,450.0,350.0,1.0,,,,,,,,,cyan,square
0.0,6.0,2.0,1.0,6.0,0.0,0.0,1.0,0.0,part_2,stop,450.0,350.0,4.0,,,,,,,,,cyan,square
0.0,3.0,3.0,0.0,6.0,6.0,620.2508790001957,1.0,0.0,part_2,go,450.0,400.0,1.0,,,,,,,,,green,circle
0.0,5.0,1.0,1.0,6.0,0.0,0.0,1.0,0.0,part_2,stop,450.0,400.0,4.0,,,,,,,,,white,cross
0.0,6.0,2.0,1.0,6.0,6.0,617.8518650003753,1.0,0.0,part_2,stop,450.0,450.0,3.0,,,,,,,,,cyan,square
0.0,3.0,3.0,0.0,5.0,5.0,656.1001050004052,2.0,0.0,part_2,go,450.0,400.0,1.0,,,,,,,,,green,circle
0.0,5.0,1.0,1.0,5.0,5.0,574.2771049999646,2.0,0.0,part_2,stop,450.0,400.0,3.0,,,,,,,,,white,cross
0.0,3.0,3.0,0.0,6.0,6.0,635.4860060000647,2.0,0.0,part_2,go,400.0,400.0,1.0,,,,,,,,,green,circle
0.0,3.0,3.0,0.0,6.0,6.0,581.6299830003118,2.0,0.0,part_2,go,400.0,400.0,1.0,,,,,,,,,green,circle
0.0,2.0,2.0,0.0,5.0,5.0,521.7021349999413,2.0,0.0,part_2,go,400.0,400.0,1.0,,,,,,,,,blue,flipped triangle
0.0,3.0,3.0,0.0,5.0,5.0,656.876996000392,2.0,0.0,part_2,go,400.0,400.0,1.0,,,,,,,,,green,circle
0.0,1.0,1.0,0.0,5.0,5.0,574.0506519996416,2.0,0.0,part_2,go,400.0,400.0,1.0,,,,,,,,,orange,hexagon
0.0,7.0,3.0,1.0,6.0,0.0,0.0,2.0,0.0,part_2,stop,400.0,400.0,4.0,,,,,,,,,magenta,I
0.0,4.0,4.0,0.0,5.0,5.0,442.8453390000868,2.0,0.0,part_2,go,400.0,450.0,1.0,,,,,,,,,yellow,diamond
0.0,2.0,2.0,0.0,6.0,6.0,633.8869960000011,2.0,0.0,part_2,go,400.0,450.0,1.0,,,,,,,,,blue,flipped triangle
0.0,4.0,4.0,0.0,6.0,6.0,561.8743859995448,2.0,0.0,part_2,go,400.0,450.0,1.0,,,,,,,,,yellow,diamond
0.0,6.0,2.0,1.0,5.0,5.0,579.0475789999618,2.0,0.0,part_2,go,400.0,450.0,1.0,,,,,,,,,cyan,square
0.0,1.0,1.0,0.0,6.0,6.0,397.1569710001859,2.0,0.0,part_2,go,400.0,450.0,1.0,,,,,,,,,orange,hexagon
0.0,1.0,1.0,0.0,5.0,5.0,591.3687910006047,2.0,0.0,part_2,go,400.0,450.0,1.0,,,,,,,,,orange,hexagon
0.0,8.0,4.0,1.0,6.0,6.0,555.7254340001236,2.0,0.0,part_2,stop,400.0,450.0,3.0,,,,,,,,,gray,triangle
0.0,1.0,1.0,0.0,5.0,5.0,547.83364099967,2.0,0.0,part_2,go,400.0,400.0,1.0,,,,,,,,,orange,hexagon
0.0,8.0,4.0,1.0,5.0,0.0,0.0,2.0,0.0,part_2,stop,400.0,400.0,4.0,,,,,,,,,gray,triangle
0.0,5.0,1.0,1.0,6.0,0.0,0.0,2.0,0.0,part_2,stop,450.0,400.0,4.0,,,,,,,,,white,cross
0.0,4.0,4.0,0.0,5.0,5.0,683.1439039997349,2.0,0.0,part_2,go,450.0,450.0,1.0,,,,,,,,,yellow,diamond
0.0,8.0,4.0,1.0,6.0,0.0,0.0,2.0,0.0,part_2,stop,450.0,450.0,4.0,,,,,,,,,gray,triangle
0.0,4.0,4.0,0.0,5.0,5.0,570.2505569997811,2.0,0.0,part_2,go,450.0,500.0,1.0,,,,,,,,,yellow,diamond
0.0,6.0,2.0,1.0,6.0,0.0,0.0,2.0,0.0,part_2,stop,450.0,500.0,4.0,,,,,,,,,cyan,square
0.0,8.0,4.0,1.0,6.0,6.0,704.0225370001281,2.0,0.0,part_2,stop,450.0,550.0,3.0,,,,,,,,,gray,triangle
0.0,3.0,3.0,0.0,6.0,6.0,717.1078459996352,2.0,0.0,part_2,go,450.0,500.0,1.0,,,,,,,,,green,circle
0.0,5.0,1.0,1.0,6.0,6.0,906.644206999772,2.0,0.0,part_2,go,450.0,500.0,1.0,,,,,,,,,white,cross
0.0,6.0,2.0,1.0,6.0,6.0,646.0404519993972,2.0,0.0,part_2,stop,450.0,500.0,3.0,,,,,,,,,cyan,square
0.0,4.0,4.0,0.0,5.0,5.0,655.9748700001364,2.0,0.0,part_2,go,450.0,450.0,1.0,,,,,,,,,yellow,diamond
0.0,6.0,2.0,1.0,6.0,0.0,0.0,2.0,0.0,part_2,stop,450.0,450.0,4.0,,,,,,,,,cyan,square
0.0,8.0,4.0,1.0,5.0,5.0,541.4377729994158,2.0,0.0,part_2,stop,450.0,500.0,3.0,,,,,,,,,gray,triangle
0.0,7.0,3.0,1.0,6.0,6.0,871.1812169995028,2.0,0.0,part_2,go,400.0,500.0,1.0,,,,,,,,,magenta,I
0.0,1.0,1.0,0.0,6.0,6.0,768.4230479999314,2.0,0.0,part_2,go,400.0,500.0,1.0,,,,,,,,,orange,hexagon
0.0,6.0,2.0,1.0,5.0,0.0,0.0,2.0,0.0,part_2,stop,400.0,500.0,4.0,,,,,,,,,cyan,square
0.0,5.0,1.0,1.0,5.0,5.0,595.5200319995129,2.0,0.0,part_2,stop,450.0,500.0,3.0,,,,,,,,,white,cross
0.0,5.0,1.0,1.0,5.0,0.0,0.0,2.0,0.0,part_2,stop,400.0,500.0,4.0,,,,,,,,,white,cross
0.0,3.0,3.0,0.0,6.0,6.0,768.1219830001282,2.0,0.0,part_2,go,450.0,500.0,1.0,,,,,,,,,green,circle
0.0,7.0,3.0,1.0,6.0,0.0,0.0,2.0,0.0,part_2,stop,450.0,500.0,4.0,,,,,,,,,magenta,I
0.0,5.0,1.0,1.0,5.0,5.0,382.4849889997495,3.0,0.0,part_2,stop,450.0,550.0,3.0,,,,,,,,,white,cross
0.0,4.0,4.0,0.0,6.0,6.0,462.1697630000199,3.0,0.0,part_2,go,400.0,550.0,1.0,,,,,,,,,yellow,diamond
0.0,4.0,4.0,0.0,5.0,5.0,581.3512400000036,3.0,0.0,part_2,go,400.0,550.0,1.0,,,,,,,,,yellow,diamond
0.0,1.0,1.0,0.0,6.0,6.0,645.4717530004928,3.0,0.0,part_2,go,400.0,550.0,1.0,,,,,,,,,orange,hexagon
0.0,1.0,1.0,0.0,6.0,6.0,852.1355229995606,3.0,0.0,part_2,go,400.0,550.0,1.0,,,,,,,,,orange,hexagon
0.0,1.0,1.0,0.0,5.0,5.0,689.2512449994683,3.0,0.0,part_2,go,400.0,550.0,1.0,,,,,,,,,orange,hexagon
0.0,3.0,3.0,0.0,5.0,5.0,525.6028149997292,3.0,0.0,part_2,go,400.0,550.0,1.0,,,,,,,,,green,circle
0.0,5.0,1.0,1.0,6.0,6.0,638.688791000277,3.0,0.0,part_2,stop,400.0,550.0,3.0,,,,,,,,,white,cross
0.0,2.0,2.0,0.0,6.0,6.0,650.1836229999753,3.0,0.0,part_2,go,400.0,500.0,1.0,,,,,,,,,blue,flipped triangle
0.0,8.0,4.0,1.0,5.0,5.0,862.7793850000671,3.0,0.0,part_2,go,400.0,500.0,1.0,,,,,,,,,gray,triangle
0.0,6.0,2.0,1.0,6.0,0.0,0.0,3.0,0.0,part_2,stop,400.0,500.0,4.0,,,,,,,,,cyan,square
0.0,7.0,3.0,1.0,5.0,0.0,0.0,3.0,0.0,part_2,stop,400.0,550.0,4.0,,,,,,,,,magenta,I
0.0,1.0,1.0,0.0,6.0,6.0,772.9857240001365,3.0,0.0,part_2,go,450.0,550.0,1.0,,,,,,,,,orange,hexagon
0.0,1.0,1.0,0.0,5.0,5.0,686.0698100008449,3.0,0.0,part_2,go,450.0,550.0,1.0,,,,,,,,,orange,hexagon
0.0,6.0,2.0,1.0,5.0,0.0,0.0,3.0,0.0,part_2,stop,450.0,550.0,4.0,,,,,,,,,cyan,square
0.0,8.0,4.0,1.0,5.0,5.0,651.7640149995714,3.0,0.0,part_2,stop,500.0,550.0,3.0,,,,,,,,,gray,triangle
0.0,1.0,1.0,0.0,6.0,6.0,653.223307999724,3.0,0.0,part_2,go,450.0,550.0,1.0,,,,,,,,,orange,hexagon
0.0,5.0,1.0,1.0,6.0,6.0,835.8699839991459,3.0,0.0,part_2,go,450.0,550.0,1.0,,,,,,,,,white,cross
0.0,7.0,3.0,1.0,5.0,5.0,767.3803520001456,3.0,0.0,part_2,go,450.0,550.0,1.0,,,,,,,,,magenta,I
0.0,7.0,3.0,1.0,5.0,0.0,0.0,3.0,0.0,part_2,stop,450.0,550.0,4.0,,,,,,,,,magenta,I
0.0,8.0,4.0,1.0,5.0,5.0,645.4434010001933,3.0,0.0,part_2,stop,500.0,550.0,3.0,,,,,,,,,gray,triangle
0.0,3.0,3.0,0.0,6.0,6.0,724.2436669994277,3.0,0.0,part_2,go,450.0,550.0,1.0,,,,,,,,,green,circle
0.0,2.0,2.0,0.0,6.0,6.0,878.8125869996293,3.0,0.0,part_2,go,450.0,550.0,1.0,,,,,,,,,blue,flipped triangle
0.0,2.0,2.0,0.0,6.0,6.0,698.4709429998475,3.0,0.0,part_2,go,450.0,550.0,1.0,,,,,,,,,blue,flipped triangle
0.0,8.0,4.0,1.0,5.0,0.0,0.0,3.0,0.0,part_2,stop,450.0,550.0,4.0,,,,,,,,,gray,triangle
0.0,7.0,3.0,1.0,5.0,5.0,726.462879999417,3.0,0.0,part_2,go,500.0,550.0,1.0,,,,,,,,,magenta,I
0.0,6.0,2.0,1.0,5.0,5.0,740.9031340002912,3.0,0.0,part_2,go,500.0,550.0,1.0,,,,,,,,,cyan,square
0.0,7.0,3.0,1.0,5.0,0.0,0.0,3.0,0.0,part_2,stop,500.0,550.0,4.0,,,,,,,,,magenta,I
0.0,1.0,1.0,0.0,6.0,6.0,723.953425000218,3.0,0.0,part_2,go,550.0,550.0,1.0,,,,,,,,,orange,hexagon
0.0,3.0,3.0,0.0,5.0,5.0,638.830771999892,3.0,0.0,part_2,go,550.0,550.0,1.0,,,,,,,,,green,circle
0.0,2.0,2.0,0.0,6.0,6.0,739.30143600046,3.0,0.0,part_2,go,550.0,550.0,1.0,,,,,,,,,blue,flipped triangle
0.0,6.0,2.0,1.0,5.0,5.0,629.8768090000522,3.0,0.0,part_2,stop,550.0,550.0,3.0,,,,,,,,,cyan,square
0.0,8.0,4.0,1.0,6.0,6.0,626.9378440001674,3.0,0.0,part_2,stop,500.0,550.0,3.0,,,,,,,,,gray,triangle
0.0,2.0,2.0,0.0,6.0,6.0,569.3285349998405,3.0,0.0,part_2,go,500.0,500.0,1.0,,,,,,,,,blue,flipped triangle
0.0,3.0,3.0,0.0,6.0,6.0,580.5047599997124,3.0,0.0,part_2,go,500.0,500.0,1.0,,,,,,,,,green,circle
0.0,1.0,1.0,0.0,6.0,6.0,493.7652630005686,3.0,0.0,part_2,go,500.0,500.0,1.0,,,,,,,,,orange,hexagon
0.0,1.0,1.0,0.0,5.0,5.0,531.9592360001479,4.0,0.0,part_2,go,500.0,500.0,1.0,,,,,,,,,orange,hexagon
0.0,1.0,1.0,0.0,5.0,5.0,426.1543839993464,4.0,0.0,part_2,go,500.0,500.0,1.0,,,,,,,,,orange,hexagon
0.0,5.0,1.0,1.0,5.0,5.0,321.6890459998467,4.0,0.0,part_2,go,500.0,500.0,1.0,,,,,,,,,white,cross
0.0,2.0,2.0,0.0,5.0,5.0,562.3119540005064,4.0,0.0,part_2,go,500.0,500.0,1.0,,,,,,,,,blue,flipped triangle
0.0,8.0,4.0,1.0,5.0,5.0,387.7669910007171,4.0,0.0,part_2,stop,500.0,500.0,3.0,,,,,,,,,gray,triangle
0.0,7.0,3.0,1.0,5.0,5.0,658.8416300000972,4.0,0.0,part_2,stop,450.0,500.0,3.0,,,,,,,,,magenta,I
0.0,2.0,2.0,0.0,6.0,6.0,584.0248429994972,4.0,0.0,part_2,go,400.0,500.0,1.0,,,,,,,,,blue,flipped triangle
0.0,4.0,4.0,0.0,6.0,6.0,555.9166080001887,4.0,0.0,part_2,go,400.0,500.0,1.0,,,,,,,,,yellow,diamond
0.0,3.0,3.0,0.0,5.0,5.0,602.4716830006582,4.0,0.0,part_2,go,400.0,500.0,1.0,,,,,,,,,green,circle
0.0,4.0,4.0,0.0,6.0,6.0,400.8507890002875,4.0,0.0,part_2,go,400.0,500.0,1.0,,,,,,,,,yellow,diamond
0.0,1.0,1.0,0.0,5.0,5.0,484.249116000683,4.0,0.0,part_2,go,400.0,500.0,1.0,,,,,,,,,orange,hexagon
0.0,3.0,3.0,0.0,5.0,5.0,727.308186999835,4.0,0.0,part_2,go,400.0,500.0,1.0,,,,,,,,,green,circle
0.0,5.0,1.0,1.0,6.0,6.0,537.0759150000595,4.0,0.0,part_2,stop,400.0,500.0,3.0,,,,,,,,,white,cross
0.0,4.0,4.0,0.0,6.0,6.0,697.026810999887,4.0,0.0,part_2,go,400.0,450.0,1.0,,,,,,,,,yellow,diamond
0.0,6.0,2.0,1.0,5.0,0.0,0.0,4.0,0.0,part_2,stop,400.0,450.0,4.0,,,,,,,,,cyan,square
0.0,8.0,4.0,1.0,5.0,5.0,728.5992070001157,4.0,0.0,part_2,go,450.0,450.0,1.0,,,,,,,,,gray,triangle
0.0,8.0,4.0,1.0,6.0,0.0,0.0,4.0,0.0,part_2,stop,450.0,450.0,4.0,,,,,,,,,gray,triangle
0.0,5.0,1.0,1.0,5.0,0.0,0.0,4.0,0.0,part_2,stop,450.0,500.0,4.0,,,,,,,,,white,cross
0.0,7.0,3.0,1.0,6.0,0.0,0.0,4.0,0.0,part_2,stop,500.0,500.0,4.0,,,,,,,,,magenta,I
0.0,2.0,2.0,0.0,5.0,5.0,596.47517600024,4.0,0.0,part_2,go,500.0,550.0,1.0,,,,,,,,,blue,flipped triangle
0.0,7.0,3.0,1.0,6.0,0.0,0.0,4.0,0.0,part_2,stop,500.0,550.0,4.0,,,,,,,,,magenta,I
0.0,5.0,1.0,1.0,5.0,0.0,0.0,4.0,0.0,part_2,stop,500.0,600.0,4.0,,,,,,,,,white,cross
0.0,2.0,2.0,0.0,5.0,5.0,672.163676999844,4.0,0.0,part_2,go,550.0,600.0,1.0,,,,,,,,,blue,flipped triangle
0.0,3.0,3.0,0.0,6.0,6.0,565.0698879999254,4.0,0.0,part_2,go,550.0,600.0,1.0,,,,,,,,,green,circle
0.0,3.0,3.0,0.0,6.0,6.0,508.75431500026025,4.0,0.0,part_2,go,550.0,600.0,1.0,,,,,,,,,green,circle
0.0,2.0,2.0,0.0,6.0,6.0,443.338987000061,4.0,0.0,part_2,go,550.0,600.0,1.0,,,,,,,,,blue,flipped triangle
0.0,4.0,4.0,0.0,5.0,5.0,265.9556339995106,4.0,0.0,part_2,go,550.0,600.0,1.0,,,,,,,,,yellow,diamond
0.0,3.0,3.0,0.0,5.0,5.0,541.9258480005738,4.0,0.0,part_2,go,550.0,600.0,1.0,,,,,,,,,green,circle
0.0,1.0,1.0,0.0,5.0,5.0,451.3988650005558,4.0,0.0,part_2,go,550.0,600.0,1.0,,,,,,,,,orange,hexagon
0.0,4.0,4.0,0.0,6.0,6.0,514.3651669995961,4.0,0.0,part_2,go,550.0,600.0,1.0,,,,,,,,,yellow,diamond
0.0,6.0,2.0,1.0,5.0,0.0,0.0,4.0,0.0,part_2,stop,550.0,600.0,4.0,,,,,,,,,cyan,square
0.0,6.0,2.0,1.0,5.0,5.0,884.5714740000403,4.0,0.0,part_2,go,600.0,600.0,1.0,,,,,,,,,cyan,square
0.0,4.0,4.0,0.0,6.0,6.0,584.4537450002463,4.0,0.0,part_2,go,600.0,600.0,1.0,,,,,,,,,yellow,diamond
0.0,4.0,4.0,0.0,6.0,6.0,501.2290109998503,4.0,0.0,part_2,go,600.0,600.0,1.0,,,,,,,,,yellow,diamond
0.0,4.0,4.0,0.0,5.0,5.0,362.2586170004069,4.0,0.0,part_2,go,600.0,600.0,1.0,,,,,,,,,yellow,diamond
0.0,8.0,4.0,1.0,5.0,0.0,0.0,4.0,0.0,part_2,stop,600.0,600.0,4.0,,,,,,,,,gray,triangle
0.0,3.0,3.0,0.0,6.0,6.0,379.0149389997168,5.0,0.0,part_2,go,650.0,600.0,1.0,,,,,,,,,green,circle
0.0,5.0,1.0,1.0,6.0,0.0,0.0,5.0,0.0,part_2,stop,650.0,600.0,4.0,,,,,,,,,white,cross
0.0,4.0,4.0,0.0,6.0,6.0,503.4981879998668,5.0,0.0,part_2,go,650.0,650.0,1.0,,,,,,,,,yellow,diamond
0.0,3.0,3.0,0.0,6.0,6.0,455.9544730000198,5.0,0.0,part_2,go,650.0,650.0,1.0,,,,,,,,,green,circle
0.0,7.0,3.0,1.0,6.0,0.0,0.0,5.0,0.0,part_2,stop,650.0,650.0,4.0,,,,,,,,,magenta,I
0.0,3.0,3.0,0.0,6.0,6.0,506.18660300006013,5.0,0.0,part_2,go,650.0,700.0,1.0,,,,,,,,,green,circle
0.0,7.0,3.0,1.0,6.0,6.0,1074.3320000001404,5.0,0.0,part_2,go,650.0,700.0,1.0,,,,,,,,,magenta,I
0.0,6.0,2.0,1.0,6.0,6.0,841.3169079994987,5.0,0.0,part_2,stop,650.0,700.0,3.0,,,,,,,,,cyan,square
0.0,7.0,3.0,1.0,6.0,0.0,0.0,5.0,0.0,part_2,stop,650.0,650.0,4.0,,,,,,,,,magenta,I
0.0,4.0,4.0,0.0,5.0,5.0,569.9868060000881,5.0,0.0,part_2,go,650.0,700.0,1.0,,,,,,,,,yellow,diamond
0.0,2.0,2.0,0.0,5.0,5.0,564.4107839998469,5.0,0.0,part_2,go,650.0,700.0,1.0,,,,,,,,,blue,flipped triangle
0.0,3.0,3.0,0.0,5.0,5.0,397.2495380003238,5.0,0.0,part_2,go,650.0,700.0,1.0,,,,,,,,,green,circle
0.0,8.0,4.0,1.0,5.0,5.0,1100.127789999533,5.0,0.0,part_2,go,650.0,700.0,1.0,,,,,,,,,gray,triangle
0.0,7.0,3.0,1.0,6.0,6.0,1045.461028000318,5.0,0.0,part_2,go,650.0,700.0,1.0,,,,,,,,,magenta,I
0.0,5.0,1.0,1.0,5.0,5.0,1117.1065549997363,5.0,0.0,part_2,go,650.0,700.0,1.0,,,,,,,,,white,cross
0.0,5.0,1.0,1.0,5.0,5.0,917.44676899998,5.0,0.0,part_2,go,650.0,700.0,1.0,,,,,,,,,white,cross
0.0,3.0,3.0,0.0,6.0,6.0,493.3061600004294,5.0,0.0,part_2,go,650.0,700.0,1.0,,,,,,,,,green,circle
0.0,2.0,2.0,0.0,6.0,6.0,437.7182889993491,5.0,0.0,part_2,go,650.0,700.0,1.0,,,,,,,,,blue,flipped triangle
0.0,6.0,2.0,1.0,6.0,6.0,735.257265000655,5.0,0.0,part_2,stop,650.0,700.0,3.0,,,,,,,,,cyan,square
0.0,6.0,2.0,1.0,6.0,6.0,939.5163380004306,5.0,0.0,part_2,go,650.0,650.0,1.0,,,,,,,,,cyan,square
0.0,6.0,2.0,1.0,5.0,0.0,0.0,5.0,0.0,part_2,stop,650.0,650.0,4.0,,,,,,,,,cyan,square
0.0,8.0,4.0,1.0,5.0,0.0,0.0,5.0,0.0,part_2,stop,700.0,650.0,4.0,,,,,,,,,gray,triangle
0.0,2.0,2.0,0.0,6.0,6.0,598.5637459998543,5.0,0.0,part_2,go,750.0,650.0,1.0,,,,,,,,,blue,flipped triangle
0.0,7.0,3.0,1.0,6.0,6.0,995.7699149999826,5.0,0.0,part_2,go,750.0,650.0,1.0,,,,,,,,,magenta,I
0.0,3.0,3.0,0.0,5.0,5.0,303.852370999266,5.0,0.0,part_2,go,750.0,650.0,1.0,,,,,,,,,green,circle
0.0,8.0,4.0,1.0,6.0,0.0,0.0,5.0,0.0,part_2,stop,750.0,650.0,4.0,,,,,,,,,gray,triangle
0.0,8.0,4.0,1.0,5.0,5.0,888.3595010001955,5.0,0.0,part_2,stop,750.0,700.0,3.0,,,,,,,,,gray,triangle
0.0,1.0,1.0,0.0,6.0,6.0,438.4077459999389,5.0,0.0,part_2,go,700.0,700.0,1.0,,,,,,,,,orange,hexagon
0.0,8.0,4.0,1.0,5.0,0.0,0.0,5.0,0.0,part_2,stop,700.0,700.0,4.0,,,,,,,,,gray,triangle
0.0,2.0,2.0,0.0,5.0,5.0,442.8419590003614,5.0,0.0,part_2,go,750.0,700.0,1.0,,,,,,,,,blue,flipped triangle
0.0,6.0,2.0,1.0,5.0,5.0,904.4712800005072,5.0,0.0,part_2,stop,750.0,700.0,3.0,,,,,,,,,cyan,square
0.0,3.0,3.0,0.0,6.0,6.0,433.3709620004811,5.0,0.0,part_2,go,700.0,700.0,1.0,,,,,,,,,green,circle
0.0,5.0,1.0,1.0,5.0,0.0,0.0,5.0,0.0,part_2,stop,700.0,700.0,4.0,,,,,,,,,white,cross
0.0,3.0,3.0,0.0,5.0,5.0,346.1225000000922,5.0,0.0,part_2,go,750.0,700.0,1.0,,,,,,,,,green,circle
0.0,4.0,4.0,0.0,6.0,6.0,343.3223490001182,5.0,0.0,part_2,go,750.0,700.0,1.0,,,,,,,,,yellow,diamond
0.0,2.0,2.0,0.0,5.0,5.0,378.7561200006166,5.0,0.0,part_2,go,750.0,700.0,1.0,,,,,,,,,blue,flipped triangle
0.0,4.0,4.0,0.0,5.0,5.0,317.856285999369,6.0,0.0,part_2,go,750.0,700.0,1.0,,,,,,,,,yellow,diamond
0.0,7.0,3.0,1.0,6.0,0.0,0.0,6.0,0.0,part_2,stop,750.0,700.0,4.0,,,,,,,,,magenta,I
0.0,6.0,2.0,1.0,5.0,0.0,0.0,6.0,0.0,part_2,stop,750.0,750.0,4.0,,,,,,,,,cyan,square
0.0,2.0,2.0,0.0,6.0,6.0,641.247877000751,6.0,0.0,part_2,go,800.0,750.0,1.0,,,,,,,,,blue,flipped triangle
0.0,8.0,4.0,1.0,6.0,6.0,1051.3165630000003,6.0,0.0,part_2,go,800.0,750.0,1.0,,,,,,,,,gray,triangle
0.0,5.0,1.0,1.0,6.0,6.0,1157.2793659997842,6.0,0.0,part_2,go,800.0,750.0,1.0,,,,,,,,,white,cross
0.0,6.0,2.0,1.0,5.0,0.0,0.0,6.0,0.0,part_2,stop,800.0,750.0,4.0,,,,,,,,,cyan,square
0.0,5.0,1.0,1.0,6.0,0.0,0.0,6.0,0.0,part_2,stop,850.0,750.0,4.0,,,,,,,,,white,cross
0.0,1.0,1.0,0.0,6.0,6.0,463.6333379994539,6.0,0.0,part_2,go,850.0,800.0,1.0,,,,,,,,,orange,hexagon
0.0,2.0,2.0,0.0,6.0,6.0,476.7107170000599,6.0,0.0,part_2,go,850.0,800.0,1.0,,,,,,,,,blue,flipped triangle
0.0,4.0,4.0,0.0,5.0,5.0,463.1655519997366,6.0,0.0,part_2,go,850.0,800.0,1.0,,,,,,,,,yellow,diamond
0.0,7.0,3.0,1.0,5.0,0.0,0.0,6.0,0.0,part_2,stop,850.0,800.0,4.0,,,,,,,,,magenta,I
0.0,5.0,1.0,1.0,5.0,0.0,0.0,6.0,0.0,part_2,stop,900.0,800.0,4.0,,,,,,,,,white,cross
0.0,7.0,3.0,1.0,5.0,0.0,0.0,6.0,0.0,part_2,stop,950.0,800.0,4.0,,,,,,,,,magenta,I
0.0,4.0,4.0,0.0,6.0,6.0,557.9821270002867,6.0,0.0,part_2,go,1000.0,800.0,1.0,,,,,,,,,yellow,diamond
0.0,4.0,4.0,0.0,5.0,5.0,447.600102999786,6.0,0.0,part_2,go,1000.0,800.0,1.0,,,,,,,,,yellow,diamond
0.0,2.0,2.0,0.0,5.0,5.0,535.7604699993317,6.0,0.0,part_2,go,1000.0,800.0,1.0,,,,,,,,,blue,flipped triangle
0.0,3.0,3.0,0.0,5.0,5.0,482.842432000325,6.0,0.0,part_2,go,1000.0,800.0,1.0,,,,,,,,,green,circle
0.0,5.0,1.0,1.0,6.0,0.0,0.0,6.0,0.0,part_2,stop,1000.0,800.0,4.0,,,,,,,,,white,cross
0.0,7.0,3.0,1.0,5.0,5.0,1309.8893030000909,6.0,0.0,part_2,go,1000.0,850.0,1.0,,,,,,,,,magenta,I
0.0,4.0,4.0,0.0,5.0,5.0,663.110591000077,6.0,0.0,part_2,go,1000.0,850.0,1.0,,,,,,,,,yellow,diamond
0.0,5.0,1.0,1.0,6.0,0.0,0.0,6.0,0.0,part_2,stop,1000.0,850.0,4.0,,,,,,,,,white,cross
0.0,3.0,3.0,0.0,5.0,5.0,505.7827330001601,6.0,0.0,part_2,go,1000.0,900.0,1.0,,,,,,,,,green,circle
0.0,4.0,4.0,0.0,5.0,5.0,497.5216009997893,6.0,0.0,part_2,go,1000.0,900.0,1.0,,,,,,,,,yellow,diamond
0.0,7.0,3.0,1.0,6.0,0.0,0.0,6.0,0.0,part_2,stop,1000.0,900.0,4.0,,,,,,,,,magenta,I
0.0,6.0,2.0,1.0,6.0,6.0,1256.495329000245,6.0,0.0,part_2,go,1000.0,950.0,1.0,,,,,,,,,cyan,square
0.0,7.0,3.0,1.0,6.0,6.0,1170.9867610006768,6.0,0.0,part_2,go,1000.0,950.0,1.0,,,,,,,,,magenta,I
0.0,4.0,4.0,0.0,5.0,5.0,449.2955780006014,6.0,0.0,part_2,go,1000.0,950.0,1.0,,,,,,,,,yellow,diamond
0.0,4.0,4.0,0.0,6.0,6.0,455.859147999945,6.0,0.0,part_2,go,1000.0,950.0,1.0,,,,,,,,,yellow,diamond
0.0,2.0,2.0,0.0,5.0,5.0,419.7009730005447,6.0,0.0,part_2,go,1000.0,950.0,1.0,,,,,,,,,blue,flipped triangle
0.0,4.0,4.0,0.0,6.0,6.0,468.7695410002561,6.0,0.0,part_2,go,1000.0,950.0,1.0,,,,,,,,,yellow,diamond
0.0,7.0,3.0,1.0,5.0,5.0,1037.2733189997234,6.0,0.0,part_2,stop,1000.0,950.0,3.0,,,,,,,,,magenta,I
0.0,7.0,3.0,1.0,5.0,0.0,0.0,6.0,0.0,part_2,stop,950.0,950.0,4.0,,,,,,,,,magenta,I
0.0,4.0,4.0,0.0,5.0,5.0,580.4635380000036,6.0,0.0,part_2,go,1000.0,950.0,1.0,,,,,,,,,yellow,diamond
0.0,8.0,4.0,1.0,6.0,6.0,1216.5084589996695,6.0,0.0,part_2,go,1000.0,950.0,1.0,,,,,,,,,gray,triangle
0.0,4.0,4.0,0.0,6.0,6.0,469.2723959997238,6.0,0.0,part_2,go,1000.0,950.0,1.0,,,,,,,,,yellow,diamond
0.0,2.0,2.0,0.0,6.0,6.0,333.0810329998712,7.0,0.0,part_2,go,1000.0,950.0,1.0,,,,,,,,,blue,flipped triangle
0.0,1.0,1.0,0.0,6.0,6.0,382.7197119999255,7.0,0.0,part_2,go,1000.0,950.0,1.0,,,,,,,,,orange,hexagon
0.0,1.0,1.0,0.0,6.0,6.0,365.2417309995144,7.0,0.0,part_2,go,1000.0,950.0,1.0,,,,,,,,,orange,hexagon
0.0,7.0,3.0,1.0,5.0,5.0,1056.3931379992937,7.0,0.0,part_2,stop,1000.0,950.0,3.0,,,,,,,,,magenta,I
0.0,2.0,2.0,0.0,5.0,5.0,405.9184590005316,7.0,0.0,part_2,go,950.0,950.0,1.0,,,,,,,,,blue,flipped triangle
0.0,5.0,1.0,1.0,6.0,0.0,0.0,7.0,0.0,part_2,stop,950.0,950.0,4.0,,,,,,,,,white,cross
0.0,3.0,3.0,0.0,6.0,6.0,438.6197829999219,7.0,0.0,part_2,go,950.0,1000.0,1.0,,,,,,,,,green,circle
0.0,4.0,4.0,0.0,6.0,6.0,342.5585709992447,7.0,0.0,part_2,go,950.0,1000.0,1.0,,,,,,,,,yellow,diamond
0.0,4.0,4.0,0.0,5.0,5.0,410.2124230003028,7.0,0.0,part_2,go,950.0,1000.0,1.0,,,,,,,,,yellow,diamond
0.0,5.0,1.0,1.0,6.0,6.0,1160.240690000137,7.0,0.0,part_2,stop,950.0,1000.0,3.0,,,,,,,,,white,cross
0.0,2.0,2.0,0.0,5.0,5.0,389.9982190005175,7.0,0.0,part_2,go,950.0,950.0,1.0,,,,,,,,,blue,flipped triangle
0.0,2.0,2.0,0.0,5.0,5.0,400.302945000476,7.0,0.0,part_2,go,950.0,950.0,1.0,,,,,,,,,blue,flipped triangle
0.0,7.0,3.0,1.0,5.0,5.0,1076.7949700002646,7.0,0.0,part_2,stop,950.0,950.0,3.0,,,,,,,,,magenta,I
0.0,1.0,1.0,0.0,5.0,5.0,406.144177999522,7.0,0.0,part_2,go,900.0,950.0,1.0,,,,,,,,,orange,hexagon
0.0,1.0,1.0,0.0,5.0,5.0,392.4570179997317,7.0,0.0,part_2,go,900.0,950.0,1.0,,,,,,,,,orange,hexagon
0.0,7.0,3.0,1.0,5.0,0.0,0.0,7.0,0.0,part_2,stop,900.0,950.0,4.0,,,,,,,,,magenta,I
0.0,8.0,4.0,1.0,5.0,5.0,695.5004949995782,7.0,0.0,part_2,go,950.0,950.0,1.0,,,,,,,,,gray,triangle
0.0,1.0,1.0,0.0,5.0,5.0,459.2180300005566,7.0,0.0,part_2,go,950.0,950.0,1.0,,,,,,,,,orange,hexagon
0.0,7.0,3.0,1.0,6.0,0.0,0.0,7.0,0.0,part_2,stop,950.0,950.0,4.0,,,,,,,,,magenta,I
0.0,6.0,2.0,1.0,6.0,6.0,1035.0187109997933,7.0,0.0,part_2,stop,950.0,1000.0,3.0,,,,,,,,,cyan,square
0.0,3.0,3.0,0.0,6.0,6.0,391.349253000044,7.0,0.0,part_2,go,950.0,950.0,1.0,,,,,,,,,green,circle
0.0,8.0,4.0,1.0,6.0,0.0,0.0,7.0,0.0,part_2,stop,950.0,950.0,4.0,,,,,,,,,gray,triangle
0.0,4.0,4.0,0.0,5.0,5.0,519.4314580003265,7.0,0.0,part_2,go,950.0,1000.0,1.0,,,,,,,,,yellow,diamond
0.0,6.0,2.0,1.0,5.0,5.0,737.9632629999833,7.0,0.0,part_2,stop,950.0,1000.0,3.0,,,,,,,,,cyan,square
0.0,6.0,2.0,1.0,6.0,6.0,954.626153999925,7.0,0.0,part_2,stop,900.0,1000.0,3.0,,,,,,,,,cyan,square
0.0,8.0,4.0,1.0,5.0,5.0,729.216720000295,7.0,0.0,part_2,stop,900.0,950.0,3.0,,,,,,,,,gray,triangle
0.0,3.0,3.0,0.0,5.0,5.0,486.3012100004198,7.0,0.0,part_2,go,850.0,950.0,1.0,,,,,,,,,green,circle
0.0,5.0,1.0,1.0,6.0,0.0,0.0,7.0,0.0,part_2,stop,850.0,950.0,4.0,,,,,,,,,white,cross
0.0,4.0,4.0,0.0,6.0,6.0,481.3431219999984,7.0,0.0,part_2,go,850.0,1000.0,1.0,,,,,,,,,yellow,diamond
0.0,7.0,3.0,1.0,6.0,0.0,0.0,7.0,0.0,part_2,stop,850.0,1000.0,4.0,,,,,,,,,magenta,I
0.0,1.0,1.0,0.0,5.0,5.0,399.5935880002434,7.0,0.0,part_2,go,850.0,1050.0,1.0,,,,,,,,,orange,hexagon
0.0,1.0,1.0,0.0,5.0,5.0,375.5235210001046,7.0,0.0,part_2,go,850.0,1050.0,1.0,,,,,,,,,orange,hexagon
0.0,8.0,4.0,1.0,5.0,5.0,506.15690399990854,7.0,0.0,part_2,stop,850.0,1050.0,3.0,,,,,,,,,gray,triangle
0.0,2.0,2.0,0.0,6.0,6.0,499.6508409994931,7.0,0.0,part_2,go,800.0,1050.0,1.0,,,,,,,,,blue,flipped triangle
0.0,6.0,2.0,1.0,6.0,6.0,1382.642519000001,7.0,0.0,part_2,go,800.0,1050.0,1.0,,,,,,,,,cyan,square
0.0,6.0,2.0,1.0,6.0,0.0,0.0,7.0,0.0,part_2,stop,800.0,1050.0,4.0,,,,,,,,,cyan,square
0.0,8.0,4.0,1.0,6.0,6.0,333.9858660001482,8.0,0.0,part_2,stop,800.0,1100.0,3.0,,,,,,,,,gray,triangle
0.0,6.0,2.0,1.0,6.0,6.0,1083.8851250000516,8.0,0.0,part_2,go,800.0,1050.0,1.0,,,,,,,,,cyan,square
0.0,2.0,2.0,0.0,5.0,5.0,427.5326259994472,8.0,0.0,part_2,go,800.0,1050.0,1.0,,,,,,,,,blue,flipped triangle
0.0,4.0,4.0,0.0,6.0,6.0,357.5187750002442,8.0,0.0,part_2,go,800.0,1050.0,1.0,,,,,,,,,yellow,diamond
0.0,5.0,1.0,1.0,5.0,0.0,0.0,8.0,0.0,part_2,stop,800.0,1050.0,4.0,,,,,,,,,white,cross
0.0,3.0,3.0,0.0,6.0,6.0,507.47085900002276,8.0,0.0,part_2,go,850.0,1050.0,1.0,,,,,,,,,green,circle
0.0,5.0,1.0,1.0,5.0,0.0,0.0,8.0,0.0,part_2,stop,850.0,1050.0,4.0,,,,,,,,,white,cross
0.0,8.0,4.0,1.0,6.0,6.0,1175.633593999919,8.0,0.0,part_2,stop,900.0,1050.0,3.0,,,,,,,,,gray,triangle
0.0,7.0,3.0,1.0,5.0,0.0,0.0,8.0,0.0,part_2,stop,900.0,1000.0,4.0,,,,,,,,,magenta,I
0.0,1.0,1.0,0.0,6.0,6.0,498.4181439995154,8.0,0.0,part_2,go,950.0,1000.0,1.0,,,,,,,,,orange,hexagon
0.0,4.0,4.0,0.0,5.0,5.0,441.771816000255,8.0,0.0,part_2,go,950.0,1000.0,1.0,,,,,,,,,yellow,diamond
0.0,5.0,1.0,1.0,5.0,0.0,0.0,8.0,0.0,part_2,stop,950.0,1000.0,4.0,,,,,,,,,white,cross
0.0,8.0,4.0,1.0,6.0,6.0,1351.4186440006597,8.0,0.0,part_2,go,1000.0,1000.0,1.0,,,,,,,,,gray,triangle
0.0,5.0,1.0,1.0,5.0,0.0,0.0,8.0,0.0,part_2,stop,1000.0,1000.0,4.0,,,,,,,,,white,cross
0.0,4.0,4.0,0.0,6.0,6.0,392.0533239997894,8.0,0.0,part_2,go,1050.0,1000.0,1.0,,,,,,,,,yellow,diamond
0.0,5.0,1.0,1.0,6.0,6.0,1056.8901239994375,8.0,0.0,part_2,go,1050.0,1000.0,1.0,,,,,,,,,white,cross
0.0,3.0,3.0,0.0,5.0,5.0,426.811827000165,8.0,0.0,part_2,go,1050.0,1000.0,1.0,,,,,,,,,green,circle
0.0,5.0,1.0,1.0,5.0,0.0,0.0,8.0,0.0,part_2,stop,1050.0,1000.0,4.0,,,,,,,,,white,cross
0.0,2.0,2.0,0.0,5.0,5.0,430.0573390000863,8.0,0.0,part_2,go,1100.0,1000.0,1.0,,,,,,,,,blue,flipped triangle
0.0,8.0,4.0,1.0,6.0,6.0,1084.5387079998543,8.0,0.0,part_2,go,1100.0,1000.0,1.0,,,,,,,,,gray,triangle
0.0,7.0,3.0,1.0,6.0,6.0,1333.502782999858,8.0,0.0,part_2,go,1100.0,1000.0,1.0,,,,,,,,,magenta,I
0.0,8.0,4.0,1.0,6.0,6.0,1218.6766430004354,8.0,0.0,part_2,go,1100.0,1000.0,1.0,,,,,,,,,gray,triangle
0.0,1.0,1.0,0.0,6.0,6.0,405.4811750002045,8.0,0.0,part_2,go,1100.0,1000.0,1.0,,,,,,,,,orange,hexagon
0.0,2.0,2.0,0.0,6.0,6.0,364.4227430004321,8.0,0.0,part_2,go,1100.0,1000.0,1.0,,,,,,,,,blue,flipped triangle
0.0,8.0,4.0,1.0,6.0,6.0,858.0413079998834,8.0,0.0,part_2,stop,1100.0,1000.0,3.0,,,,,,,,,gray,triangle
0.0,6.0,2.0,1.0,6.0,0.0,0.0,8.0,0.0,part_2,stop,1100.0,950.0,4.0,,,,,,,,,cyan,square
0.0,6.0,2.0,1.0,5.0,5.0,1337.1701730002314,8.0,0.0,part_2,go,1100.0,1000.0,1.0,,,,,,,,,cyan,square
0.0,1.0,1.0,0.0,6.0,6.0,433.4345070001291,8.0,0.0,part_2,go,1100.0,1000.0,1.0,,,,,,,,,orange,hexagon
0.0,5.0,1.0,1.0,6.0,0.0,0.0,8.0,0.0,part_2,stop,1100.0,1000.0,4.0,,,,,,,,,white,cross
0.0,8.0,4.0,1.0,6.0,0.0,0.0,8.0,0.0,part_2,stop,1100.0,1050.0,4.0,,,,,,,,,gray,triangle
0.0,6.0,2.0,1.0,5.0,5.0,1180.133802000455,8.0,0.0,part_2,stop,1100.0,1100.0,3.0,,,,,,,,,cyan,square
0.0,2.0,2.0,0.0,5.0,5.0,429.9627640002654,8.0,0.0,part_2,go,1050.0,1100.0,1.0,,,,,,,,,blue,flipped triangle
0.0,3.0,3.0,0.0,5.0,5.0,456.338082000002,8.0,0.0,part_2,go,1050.0,1100.0,1.0,,,,,,,,,green,circle
0.0,3.0,3.0,0.0,5.0,5.0,323.401012999966,8.0,0.0,part_2,go,1050.0,1100.0,1.0,,,,,,,,,green,circle
0.0,8.0,4.0,1.0,5.0,0.0,0.0,8.0,0.0,part_2,stop,1050.0,1100.0,4.0,,,,,,,,,gray,triangle
0.0,2.0,2.0,0.0,6.0,6.0,494.2503709999073,8.0,0.0,part_2,go,1100.0,1100.0,1.0,,,,,,,,,blue,flipped triangle
0.0,2.0,2.0,0.0,7.0,2.0,2143.2675229998495,1.0,1.0,part_3,go,0.0,0.0,0.0,176.0,4.0,88.0,176.0,220.0,44.0,264.0,132.0,blue,flipped triangle
0.0,8.0,4.0,1.0,7.0,4.0,1241.9382660000338,1.0,1.0,part_3,go,0.0,0.0,0.0,196.0,4.0,147.0,98.0,49.0,196.0,294.0,245.0,gray,triangle
0.0,7.0,3.0,1.0,7.0,5.0,2094.135192000067,1.0,1.0,part_3,go,0.0,0.0,0.0,294.0,6.0,98.0,196.0,245.0,49.0,294.0,147.0,magenta,I
0.0,1.0,1.0,0.0,7.0,6.0,1979.267962999984,1.0,1.0,part_3,go,0.0,0.0,0.0,39.0,1.0,234.0,156.0,78.0,117.0,195.0,39.0,orange,hexagon
0.0,5.0,1.0,1.0,7.0,4.0,2064.747632000035,1.0,1.0,part_3,go,0.0,0.0,0.0,156.0,4.0,39.0,78.0,234.0,156.0,117.0,195.0,white,cross
0.0,6.0,2.0,1.0,7.0,4.0,2194.680924999375,1.0,1.0,part_3,go,0.0,0.0,0.0,264.0,6.0,44.0,176.0,220.0,264.0,88.0,132.0,cyan,square
0.0,3.0,3.0,0.0,7.0,2.0,2321.4784169995255,1.0,1.0,part_3,go,0.0,0.0,0.0,156.0,4.0,78.0,156.0,234.0,117.0,195.0,39.0,green,circle
0.0,3.0,3.0,0.0,7.0,3.0,1533.5507570007394,1.0,1.0,part_3,go,0.0,0.0,0.0,156.0,4.0,195.0,117.0,156.0,78.0,234.0,39.0,green,circle
0.0,8.0,4.0,1.0,7.0,4.0,2698.7999359998867,1.0,1.0,part_3,go,0.0,0.0,0.0,147.0,3.0,196.0,245.0,98.0,147.0,294.0,49.0,gray,triangle
0.0,3.0,3.0,0.0,7.0,3.0,2462.553733999812,1.0,1.0,part_3,go,0.0,0.0,0.0,147.0,3.0,98.0,294.0,147.0,196.0,49.0,245.0,green,circle
0.0,7.0,3.0,1.0,7.0,2.0,1874.1998049999893,1.0,1.0,part_3,go,0.0,0.0,0.0,234.0,6.0,117.0,234.0,156.0,39.0,78.0,195.0,magenta,I
0.0,8.0,4.0,1.0,7.0,5.0,1850.1078809995304,1.0,1.0,part_3,go,0.0,0.0,0.0,216.0,4.0,54.0,324.0,162.0,108.0,216.0,270.0,gray,triangle
0.0,1.0,1.0,0.0,7.0,1.0,1416.2269810003636,1.0,1.0,part_3,go,0.0,0.0,0.0,156.0,4.0,156.0,234.0,39.0,117.0,78.0,195.0,orange,hexagon
0.0,2.0,2.0,0.0,7.0,5.0,1447.7024739999251,1.0,1.0,part_3,go,0.0,0.0,0.0,98.0,2.0,245.0,49.0,294.0,147.0,98.0,196.0,blue,flipped triangle
0.0,6.0,2.0,1.0,7.0,1.0,1497.4294390003706,1.0,1.0,part_3,go,0.0,0.0,0.0,44.0,1.0,44.0,264.0,220.0,88.0,132.0,176.0,cyan,square
0.0,8.0,4.0,1.0,7.0,4.0,1527.6727000000392,1.0,1.0,part_3,go,0.0,0.0,0.0,324.0,6.0,216.0,108.0,162.0,324.0,54.0,270.0,gray,triangle
0.0,6.0,2.0,1.0,7.0,5.0,1585.3096049995656,1.0,1.0,part_3,go,0.0,0.0,0.0,204.0,6.0,102.0,170.0,34.0,68.0,204.0,136.0,cyan,square
0.0,6.0,2.0,1.0,7.0,2.0,1837.42622400041,1.0,1.0,part_3,go,0.0,0.0,0.0,234.0,6.0,78.0,234.0,117.0,195.0,156.0,39.0,cyan,square
0.0,3.0,3.0,0.0,7.0,2.0,1695.8949230001965,1.0,1.0,part_3,go,0.0,0.0,0.0,162.0,3.0,216.0,162.0,324.0,270.0,54.0,108.0,green,circle
0.0,4.0,4.0,0.0,7.0,1.0,1906.1094850003428,1.0,1.0,part_3,go,0.0,0.0,0.0,68.0,2.0,68.0,170.0,204.0,102.0,34.0,136.0,yellow,diamond
0.0,3.0,3.0,0.0,7.0,4.0,1144.982795999567,2.0,1.0,part_3,go,0.0,0.0,0.0,68.0,2.0,136.0,102.0,204.0,68.0,34.0,170.0,green,circle
0.0,5.0,1.0,1.0,7.0,3.0,1100.4428389996974,2.0,1.0,part_3,go,0.0,0.0,0.0,270.0,5.0,216.0,162.0,270.0,324.0,108.0,54.0,white,cross
0.0,1.0,1.0,0.0,7.0,4.0,1024.7461639992252,2.0,1.0,part_3,go,0.0,0.0,0.0,54.0,1.0,108.0,270.0,216.0,54.0,162.0,324.0,orange,hexagon
0.0,7.0,3.0,1.0,7.0,1.0,922.1127549999436,2.0,1.0,part_3,go,0.0,0.0,0.0,264.0,6.0,264.0,176.0,44.0,88.0,132.0,220.0,magenta,I
0.0,4.0,4.0,0.0,7.0,2.0,1320.052437999948,2.0,1.0,part_3,go,0.0,0.0,0.0,88.0,2.0,44.0,88.0,176.0,220.0,132.0,264.0,yellow,diamond
0.0,8.0,4.0,1.0,7.0,5.0,1158.589020999898,2.0,1.0,part_3,go,0.0,0.0,0.0,220.0,5.0,264.0,132.0,176.0,88.0,220.0,44.0,gray,triangle
0.0,7.0,3.0,1.0,7.0,5.0,1452.241270999366,2.0,1.0,part_3,go,0.0,0.0,0.0,195.0,5.0,156.0,117.0,78.0,234.0,195.0,39.0,magenta,I
0.0,8.0,4.0,1.0,7.0,5.0,2288.273909999589,2.0,1.0,part_3,go,0.0,0.0,0.0,170.0,5.0,34.0,204.0,136.0,68.0,170.0,102.0,gray,triangle
0.0,2.0,2.0,0.0,7.0,2.0,1450.8501379996233,2.0,1.0,part_3,go,0.0,0.0,0.0,162.0,3.0,324.0,162.0,108.0,54.0,216.0,270.0,blue,flipped triangle
0.0,1.0,1.0,0.0,7.0,4.0,1070.5827359997784,2.0,1.0,part_3,go,0.0,0.0,0.0,68.0,2.0,34.0,204.0,170.0,68.0,136.0,102.0,orange,hexagon
0.0,7.0,3.0,1.0,7.0,1.0,969.4416909997016,2.0,1.0,part_3,go,0.0,0.0,0.0,270.0,5.0,270.0,108.0,162.0,54.0,216.0,324.0,magenta,I
0.0,5.0,1.0,1.0,7.0,3.0,1317.307833999621,2.0,1.0,part_3,go,0.0,0.0,0.0,220.0,5.0,44.0,176.0,220.0,132.0,88.0,264.0,white,cross
0.0,4.0,4.0,0.0,7.0,5.0,1627.7324389993737,2.0,1.0,part_3,go,0.0,0.0,0.0,78.0,2.0,156.0,195.0,39.0,117.0,78.0,234.0,yellow,diamond
0.0,4.0,4.0,0.0,7.0,5.0,1218.1367670000327,2.0,1.0,part_3,go,0.0,0.0,0.0,98.0,2.0,147.0,294.0,245.0,196.0,98.0,49.0,yellow,diamond
0.0,7.0,3.0,1.0,7.0,2.0,1004.8300079997716,2.0,1.0,part_3,go,0.0,0.0,0.0,204.0,6.0,102.0,204.0,34.0,136.0,170.0,68.0,magenta,I
0.0,6.0,2.0,1.0,7.0,2.0,1073.5313080003834,2.0,1.0,part_3,go,0.0,0.0,0.0,54.0,1.0,108.0,54.0,270.0,216.0,162.0,324.0,cyan,square
0.0,4.0,4.0,0.0,7.0,6.0,1762.8596819995437,2.0,1.0,part_3,go,0.0,0.0,0.0,196.0,4.0,147.0,245.0,98.0,294.0,49.0,196.0,yellow,diamond
0.0,1.0,1.0,0.0,7.0,2.0,1246.2442519999968,2.0,1.0,part_3,go,0.0,0.0,0.0,132.0,3.0,220.0,132.0,44.0,264.0,176.0,88.0,orange,hexagon
0.0,2.0,2.0,0.0,7.0,2.0,1151.501565000217,2.0,1.0,part_3,go,0.0,0.0,0.0,170.0,5.0,68.0,170.0,204.0,136.0,102.0,34.0,blue,flipped triangle
0.0,4.0,4.0,0.0,7.0,4.0,1278.3428990005632,2.0,1.0,part_3,go,0.0,0.0,0.0,195.0,5.0,78.0,117.0,234.0,195.0,156.0,39.0,yellow,diamond
0.0,7.0,3.0,1.0,7.0,1.0,911.9523499994102,3.0,1.0,part_3,go,0.0,0.0,0.0,204.0,6.0,204.0,34.0,68.0,102.0,136.0,170.0,magenta,I
0.0,5.0,1.0,1.0,7.0,1.0,1565.3802440001527,3.0,1.0,part_3,go,0.0,0.0,0.0,196.0,4.0,196.0,294.0,245.0,49.0,98.0,147.0,white,cross
0.0,1.0,1.0,0.0,7.0,4.0,1181.804767000358,3.0,1.0,part_3,go,0.0,0.0,0.0,98.0,2.0,147.0,196.0,245.0,98.0,294.0,49.0,orange,hexagon
0.0,3.0,3.0,0.0,7.0,3.0,1530.4721729999071,3.0,1.0,part_3,go,0.0,0.0,0.0,98.0,2.0,147.0,196.0,98.0,294.0,49.0,245.0,green,circle
0.0,4.0,4.0,0.0,7.0,3.0,1416.0318180001925,3.0,1.0,part_3,go,0.0,0.0,0.0,216.0,4.0,162.0,324.0,216.0,270.0,54.0,108.0,yellow,diamond
0.0,5.0,1.0,1.0,7.0,1.0,1014.9393129995588,3.0,1.0,part_3,go,0.0,0.0,0.0,170.0,5.0,170.0,102.0,204.0,136.0,34.0,68.0,white,cross
0.0,6.0,2.0,1.0,7.0,2.0,1267.964372000279,3.0,1.0,part_3,go,0.0,0.0,0.0,196.0,4.0,245.0,196.0,147.0,98.0,49.0,294.0,cyan,square
0.0,6.0,2.0,1.0,7.0,5.0,1312.5417319997723,3.0,1.0,part_3,go,0.0,0.0,0.0,294.0,6.0,98.0,245.0,196.0,147.0,294.0,49.0,cyan,square
0.0,3.0,3.0,0.0,7.0,2.0,1177.0348999998532,3.0,1.0,part_3,go,0.0,0.0,0.0,88.0,2.0,132.0,88.0,220.0,44.0,176.0,264.0,green,circle
0.0,7.0,3.0,1.0,7.0,5.0,1458.2786839991968,3.0,1.0,part_3,go,0.0,0.0,0.0,216.0,4.0,162.0,54.0,324.0,108.0,216.0,270.0,magenta,I
0.0,2.0,2.0,0.0,7.0,2.0,1383.9240480001536,3.0,1.0,part_3,go,0.0,0.0,0.0,54.0,1.0,216.0,54.0,162.0,108.0,270.0,324.0,blue,flipped triangle
0.0,5.0,1.0,1.0,7.0,1.0,866.7429639999682,3.0,1.0,part_3,go,0.0,0.0,0.0,245.0,5.0,245.0,49.0,98.0,294.0,196.0,147.0,white,cross
0.0,1.0,1.0,0.0,7.0,5.0,1406.597488999978,3.0,1.0,part_3,go,0.0,0.0,0.0,44.0,1.0,264.0,132.0,220.0,88.0,44.0,176.0,orange,hexagon
0.0,2.0,2.0,0.0,7.0,2.0,1316.9004720002704,3.0,1.0,part_3,go,0.0,0.0,0.0,156.0,4.0,117.0,156.0,195.0,234.0,39.0,78.0,blue,flipped triangle
0.0,7.0,3.0,1.0,7.0,4.0,1845.0326169995608,3.0,1.0,part_3,go,0.0,0.0,0.0,264.0,6.0,176.0,88.0,132.0,264.0,220.0,44.0,magenta,I
0.0,6.0,2.0,1.0,7.0,3.0,1267.2186839999997,3.0,1.0,part_3,go,0.0,0.0,0.0,156.0,4.0,117.0,78.0,156.0,234.0,195.0,39.0,cyan,square
0.0,2.0,2.0,0.0,7.0,5.0,934.5761790000324,3.0,1.0,part_3,go,0.0,0.0,0.0,170.0,5.0,136.0,204.0,34.0,68.0,170.0,102.0,blue,flipped triangle
0.0,2.0,2.0,0.0,7.0,5.0,989.6899549994488,3.0,1.0,part_3,go,0.0,0.0,0.0,117.0,3.0,234.0,39.0,78.0,156.0,117.0,195.0,blue,flipped triangle
0.0,1.0,1.0,0.0,7.0,4.0,1202.2083920001023,3.0,1.0,part_3,go,0.0,0.0,0.0,108.0,2.0,270.0,162.0,54.0,108.0,324.0,216.0,orange,hexagon
0.0,6.0,2.0,1.0,7.0,4.0,931.2749110004006,3.0,1.0,part_3,go,0.0,0.0,0.0,170.0,5.0,136.0,204.0,68.0,170.0,102.0,34.0,cyan,square
0.0,2.0,2.0,0.0,7.0,6.0,1236.075208999864,4.0,1.0,part_3,go,0.0,0.0,0.0,88.0,2.0,176.0,220.0,132.0,44.0,264.0,88.0,blue,flipped triangle
0.0,3.0,3.0,0.0,7.0,2.0,772.3174820002896,4.0,1.0,part_3,go,0.0,0.0,0.0,54.0,1.0,324.0,54.0,108.0,216.0,162.0,270.0,green,circle
0.0,8.0,4.0,1.0,7.0,2.0,1168.0537079992064,4.0,1.0,part_3,go,0.0,0.0,0.0,176.0,4.0,132.0,176.0,88.0,44.0,264.0,220.0,gray,triangle
0.0,4.0,4.0,0.0,7.0,5.0,1101.0295189998942,4.0,1.0,part_3,go,0.0,0.0,0.0,54.0,1.0,324.0,216.0,108.0,270.0,54.0,162.0,yellow,diamond
0.0,6.0,2.0,1.0,7.0,2.0,1210.4739020005582,4.0,1.0,part_3,go,0.0,0.0,0.0,162.0,3.0,270.0,162.0,324.0,54.0,216.0,108.0,cyan,square
0.0,1.0,1.0,0.0,7.0,2.0,1019.5675629993275,4.0,1.0,part_3,go,0.0,0.0,0.0,102.0,3.0,204.0,102.0,136.0,68.0,170.0,34.0,orange,hexagon
0.0,4.0,4.0,0.0,7.0,5.0,1231.5913209995415,4.0,1.0,part_3,go,0.0,0.0,0.0,68.0,2.0,102.0,34.0,204.0,136.0,68.0,170.0,yellow,diamond
0.0,3.0,3.0,0.0,7.0,3.0,1117.555695000192,4.0,1.0,part_3,go,0.0,0.0,0.0,132.0,3.0,176.0,264.0,132.0,44.0,220.0,88.0,green,circle
0.0,1.0,1.0,0.0,7.0,1.0,1052.3904669998956,4.0,1.0,part_3,go,0.0,0.0,0.0,49.0,1.0,49.0,98.0,147.0,245.0,294.0,196.0,orange,hexagon
0.0,5.0,1.0,1.0,7.0,4.0,1207.7165430000605,4.0,1.0,part_3,go,0.0,0.0,0.0,170.0,5.0,102.0,34.0,204.0,170.0,136.0,68.0,white,cross
0.0,5.0,1.0,1.0,7.0,1.0,1072.1487969994996,4.0,1.0,part_3,go,0.0,0.0,0.0,195.0,5.0,195.0,39.0,234.0,117.0,156.0,78.0,white,cross
0.0,8.0,4.0,1.0,7.0,6.0,1101.9680019999214,4.0,1.0,part_3,go,0.0,0.0,0.0,156.0,4.0,78.0,39.0,234.0,195.0,117.0,156.0,gray,triangle
0.0,3.0,3.0,0.0,7.0,4.0,1304.6479569993608,4.0,1.0,part_3,go,0.0,0.0,0.0,170.0,5.0,68.0,102.0,34.0,170.0,204.0,136.0,green,circle
0.0,8.0,4.0,1.0,7.0,6.0,1216.522652999629,4.0,1.0,part_3,go,0.0,0.0,0.0,195.0,5.0,156.0,78.0,234.0,39.0,117.0,195.0,gray,triangle
0.0,4.0,4.0,0.0,7.0,3.0,1335.6107420004264,4.0,1.0,part_3,go,0.0,0.0,0.0,88.0,2.0,220.0,176.0,88.0,44.0,264.0,132.0,yellow,diamond
0.0,5.0,1.0,1.0,7.0,1.0,1248.8864690003538,4.0,1.0,part_3,go,0.0,0.0,0.0,264.0,6.0,264.0,88.0,220.0,44.0,132.0,176.0,white,cross
0.0,2.0,2.0,0.0,7.0,2.0,1467.3436490002132,4.0,1.0,part_3,go,0.0,0.0,0.0,98.0,2.0,294.0,98.0,147.0,245.0,49.0,196.0,blue,flipped triangle
0.0,7.0,3.0,1.0,7.0,2.0,1631.1303369993766,4.0,1.0,part_3,go,0.0,0.0,0.0,245.0,5.0,147.0,245.0,196.0,294.0,98.0,49.0,magenta,I
0.0,5.0,1.0,1.0,7.0,1.0,1126.2929979993714,4.0,1.0,part_3,go,0.0,0.0,0.0,270.0,5.0,270.0,162.0,54.0,324.0,108.0,216.0,white,cross
0.0,8.0,4.0,1.0,7.0,6.0,1782.433640999443,4.0,1.0,part_3,go,0.0,0.0,0.0,136.0,4.0,68.0,204.0,102.0,170.0,34.0,136.0,gray,triangle
