raw_reward_magnitude,stim_reward,stepwise_reward_magnitude,paired_with_stopping,stim_location,response,reaction_time,block,num_trial_presentations,which_phase,stop_signal_trial_type,left_SSD,right_SSD,accuracy,chosen_bidding_amount,chosen_bidding_level,possible_bid_1,possible_bid_2,possible_bid_3,possible_bid_4,possible_bid_5,possible_bid_6,color_text,shape_text
384.0,4.0,4.0,0.0,2.0,2.0,335.1756120000573,1.0,1.0,phase_1,,,,,,,,,,,,,cyan,hexagon
405.0,8.0,4.0,1.0,2.0,2.0,320.267676999947,1.0,1.0,phase_1,,,,,,,,,,,,,magenta,flipped triangle
51.0,1.0,0.5,0.0,1.0,1.0,268.3720079999148,1.0,1.0,phase_1,,,,,,,,,,,,,gray,circle
193.0,3.0,2.0,0.0,1.0,1.0,263.3550139998988,1.0,1.0,phase_1,,,,,,,,,,,,,green,diamond
0.0,3.0,0.0,0.0,3.0,3.0,296.1971929998981,1.0,1.0,phase_1,,,,,,,,,,,,,green,diamond
73.0,1.0,0.5,0.0,3.0,3.0,319.7093649998805,1.0,1.0,phase_1,,,,,,,,,,,,,gray,circle
118.0,2.0,1.0,0.0,4.0,4.0,255.59580399999498,1.0,1.0,phase_1,,,,,,,,,,,,,orange,cross
379.0,4.0,4.0,0.0,4.0,4.0,247.4791869999535,1.0,1.0,phase_1,,,,,,,,,,,,,cyan,hexagon
73.0,5.0,0.5,1.0,3.0,3.0,299.6102530000826,1.0,1.0,phase_1,,,,,,,,,,,,,blue,I
77.0,2.0,1.0,0.0,3.0,3.0,270.8869969999341,1.0,1.0,phase_1,,,,,,,,,,,,,orange,cross
33.0,5.0,0.5,1.0,2.0,2.0,261.9465099999161,1.0,1.0,phase_1,,,,,,,,,,,,,blue,I
96.0,2.0,1.0,0.0,4.0,4.0,229.3524009999146,1.0,1.0,phase_1,,,,,,,,,,,,,orange,cross
26.0,1.0,0.5,0.0,2.0,2.0,248.0734170001142,1.0,1.0,phase_1,,,,,,,,,,,,,gray,circle
204.0,3.0,2.0,0.0,4.0,4.0,241.0881450000488,1.0,1.0,phase_1,,,,,,,,,,,,,green,diamond
406.0,4.0,4.0,0.0,4.0,4.0,224.6873480000886,1.0,1.0,phase_1,,,,,,,,,,,,,cyan,hexagon
0.0,7.0,0.0,1.0,3.0,3.0,240.0306320000709,1.0,1.0,phase_1,,,,,,,,,,,,,yellow,triangle
398.0,8.0,4.0,1.0,4.0,4.0,260.3731859999243,1.0,1.0,phase_1,,,,,,,,,,,,,magenta,flipped triangle
120.0,2.0,1.0,0.0,4.0,4.0,265.973441999904,1.0,1.0,phase_1,,,,,,,,,,,,,orange,cross
389.0,4.0,4.0,0.0,3.0,3.0,215.9298069998385,1.0,1.0,phase_1,,,,,,,,,,,,,cyan,hexagon
177.0,3.0,2.0,0.0,3.0,3.0,287.3234409998986,1.0,1.0,phase_1,,,,,,,,,,,,,green,diamond
93.0,6.0,1.0,1.0,2.0,2.0,305.502320999949,1.0,1.0,phase_1,,,,,,,,,,,,,white,square
0.0,7.0,0.0,1.0,3.0,3.0,262.7358170000207,1.0,1.0,phase_1,,,,,,,,,,,,,yellow,triangle
77.0,6.0,1.0,1.0,2.0,2.0,256.2653120000959,1.0,1.0,phase_1,,,,,,,,,,,,,white,square
225.0,3.0,2.0,0.0,2.0,2.0,230.543402999956,1.0,1.0,phase_1,,,,,,,,,,,,,green,diamond
27.0,5.0,0.5,1.0,1.0,1.0,315.7584799998858,1.0,2.0,phase_1,,,,,,,,,,,,,blue,I
388.0,4.0,4.0,0.0,4.0,4.0,359.7758909997992,1.0,1.0,phase_1,,,,,,,,,,,,,cyan,hexagon
88.0,6.0,1.0,1.0,4.0,4.0,283.4250369999154,1.0,1.0,phase_1,,,,,,,,,,,,,white,square
82.0,6.0,1.0,1.0,3.0,3.0,283.0738410000322,1.0,1.0,phase_1,,,,,,,,,,,,,white,square
0.0,3.0,0.0,0.0,1.0,1.0,261.3787239999965,1.0,1.0,phase_1,,,,,,,,,,,,,green,diamond
188.0,7.0,2.0,1.0,2.0,2.0,307.2466210001039,1.0,1.0,phase_1,,,,,,,,,,,,,yellow,triangle
53.0,1.0,0.5,0.0,3.0,3.0,294.8916349998853,1.0,1.0,phase_1,,,,,,,,,,,,,gray,circle
32.0,5.0,0.5,1.0,3.0,3.0,299.0885730000627,1.0,1.0,phase_1,,,,,,,,,,,,,blue,I
219.0,3.0,2.0,0.0,3.0,3.0,264.9354850000236,1.0,1.0,phase_1,,,,,,,,,,,,,green,diamond
114.0,2.0,1.0,0.0,3.0,3.0,319.9160000001484,1.0,1.0,phase_1,,,,,,,,,,,,,orange,cross
86.0,6.0,1.0,1.0,3.0,3.0,243.2143670000641,1.0,1.0,phase_1,,,,,,,,,,,,,white,square
61.0,5.0,0.5,1.0,2.0,2.0,273.2800179999231,1.0,1.0,phase_1,,,,,,,,,,,,,blue,I
93.0,2.0,1.0,0.0,2.0,2.0,275.9837290000178,1.0,1.0,phase_1,,,,,,,,,,,,,orange,cross
223.0,3.0,2.0,0.0,1.0,1.0,275.2913429999353,1.0,1.0,phase_1,,,,,,,,,,,,,green,diamond
88.0,6.0,1.0,1.0,1.0,1.0,296.8983340001614,1.0,1.0,phase_1,,,,,,,,,,,,,white,square
0.0,8.0,0.0,1.0,2.0,2.0,272.3590070002046,1.0,1.0,phase_1,,,,,,,,,,,,,magenta,flipped triangle
180.0,3.0,2.0,0.0,1.0,1.0,260.534810000081,1.0,1.0,phase_1,,,,,,,,,,,,,green,diamond
98.0,6.0,1.0,1.0,1.0,1.0,247.8996449999613,1.0,1.0,phase_1,,,,,,,,,,,,,white,square
31.0,5.0,0.5,1.0,1.0,1.0,271.3888120001684,1.0,1.0,phase_1,,,,,,,,,,,,,blue,I
39.0,1.0,0.5,0.0,4.0,4.0,356.0999329999958,1.0,2.0,phase_1,,,,,,,,,,,,,gray,circle
91.0,2.0,1.0,0.0,3.0,3.0,322.6033890000508,1.0,1.0,phase_1,,,,,,,,,,,,,orange,cross
96.0,2.0,1.0,0.0,3.0,3.0,323.5015850000309,1.0,1.0,phase_1,,,,,,,,,,,,,orange,cross
87.0,2.0,1.0,0.0,4.0,4.0,322.9035219999332,1.0,1.0,phase_1,,,,,,,,,,,,,orange,cross
179.0,3.0,2.0,0.0,3.0,3.0,328.0809149998731,1.0,1.0,phase_1,,,,,,,,,,,,,green,diamond
88.0,2.0,1.0,0.0,3.0,3.0,311.5259270000479,1.0,1.0,phase_1,,,,,,,,,,,,,orange,cross
47.0,5.0,0.5,1.0,3.0,3.0,350.2850950001175,1.0,1.0,phase_1,,,,,,,,,,,,,blue,I
206.0,7.0,2.0,1.0,1.0,1.0,320.9087180000551,1.0,1.0,phase_1,,,,,,,,,,,,,yellow,triangle
0.0,1.0,0.0,0.0,4.0,4.0,302.6528230000167,1.0,1.0,phase_1,,,,,,,,,,,,,gray,circle
110.0,6.0,1.0,1.0,2.0,2.0,279.0367280001646,1.0,1.0,phase_1,,,,,,,,,,,,,white,square
389.0,8.0,4.0,1.0,4.0,4.0,311.5807220001443,1.0,1.0,phase_1,,,,,,,,,,,,,magenta,flipped triangle
31.0,1.0,0.5,0.0,4.0,4.0,289.3996970001353,1.0,1.0,phase_1,,,,,,,,,,,,,gray,circle
107.0,6.0,1.0,1.0,4.0,4.0,297.6361480000378,1.0,1.0,phase_1,,,,,,,,,,,,,white,square
42.0,1.0,0.5,0.0,3.0,3.0,309.9656450001475,1.0,1.0,phase_1,,,,,,,,,,,,,gray,circle
89.0,6.0,1.0,1.0,4.0,4.0,228.6572520001755,1.0,1.0,phase_1,,,,,,,,,,,,,white,square
392.0,8.0,4.0,1.0,1.0,1.0,279.7195460000239,1.0,1.0,phase_1,,,,,,,,,,,,,magenta,flipped triangle
74.0,5.0,0.5,1.0,3.0,3.0,380.8330259998911,1.0,1.0,phase_1,,,,,,,,,,,,,blue,I
82.0,6.0,1.0,1.0,1.0,1.0,300.8497179998812,1.0,1.0,phase_1,,,,,,,,,,,,,white,square
0.0,1.0,0.0,0.0,2.0,2.0,463.3302839999942,1.0,1.0,phase_1,,,,,,,,,,,,,gray,circle
0.0,1.0,0.0,0.0,2.0,2.0,358.8577820000864,1.0,1.0,phase_1,,,,,,,,,,,,,gray,circle
0.0,6.0,0.0,1.0,3.0,3.0,331.691433999822,1.0,1.0,phase_1,,,,,,,,,,,,,white,square
388.0,8.0,4.0,1.0,1.0,1.0,418.3460110000396,1.0,1.0,phase_1,,,,,,,,,,,,,magenta,flipped triangle
61.0,1.0,0.5,0.0,4.0,4.0,385.537278999891,1.0,1.0,phase_1,,,,,,,,,,,,,gray,circle
191.0,3.0,2.0,0.0,2.0,2.0,275.7883120000315,1.0,1.0,phase_1,,,,,,,,,,,,,green,diamond
0.0,2.0,0.0,0.0,2.0,2.0,302.74891400017617,1.0,1.0,phase_1,,,,,,,,,,,,,orange,cross
106.0,6.0,1.0,1.0,3.0,3.0,315.6838449999668,1.0,1.0,phase_1,,,,,,,,,,,,,white,square
379.0,8.0,4.0,1.0,3.0,3.0,494.3649120000373,1.0,1.0,phase_1,,,,,,,,,,,,,magenta,flipped triangle
413.0,8.0,4.0,1.0,4.0,4.0,314.638240000022,1.0,1.0,phase_1,,,,,,,,,,,,,magenta,flipped triangle
110.0,2.0,1.0,0.0,3.0,3.0,322.9122749999078,1.0,1.0,phase_1,,,,,,,,,,,,,orange,cross
213.0,7.0,2.0,1.0,1.0,1.0,225.9051430000909,1.0,1.0,phase_1,,,,,,,,,,,,,yellow,triangle
117.0,2.0,1.0,0.0,2.0,2.0,345.7931549999102,1.0,1.0,phase_1,,,,,,,,,,,,,orange,cross
406.0,8.0,4.0,1.0,4.0,4.0,275.168037999947,1.0,1.0,phase_1,,,,,,,,,,,,,magenta,flipped triangle
0.0,5.0,0.0,1.0,1.0,1.0,254.50990699982867,1.0,1.0,phase_1,,,,,,,,,,,,,blue,I
50.0,1.0,0.5,0.0,1.0,1.0,333.5849339998731,1.0,1.0,phase_1,,,,,,,,,,,,,gray,circle
0.0,5.0,0.0,1.0,4.0,4.0,349.08180299999,1.0,1.0,phase_1,,,,,,,,,,,,,blue,I
201.0,3.0,2.0,0.0,3.0,3.0,342.6340689998142,1.0,1.0,phase_1,,,,,,,,,,,,,green,diamond
225.0,7.0,2.0,1.0,4.0,4.0,309.8934109998481,1.0,1.0,phase_1,,,,,,,,,,,,,yellow,triangle
423.0,4.0,4.0,0.0,3.0,3.0,340.2075389999481,1.0,1.0,phase_1,,,,,,,,,,,,,cyan,hexagon
27.0,1.0,0.5,0.0,1.0,1.0,270.3132550000191,1.0,1.0,phase_1,,,,,,,,,,,,,gray,circle
409.0,8.0,4.0,1.0,2.0,2.0,475.5878009996195,1.0,1.0,phase_1,,,,,,,,,,,,,magenta,flipped triangle
409.0,4.0,4.0,0.0,4.0,4.0,332.0423129998744,1.0,1.0,phase_1,,,,,,,,,,,,,cyan,hexagon
415.0,8.0,4.0,1.0,2.0,2.0,316.3460240002678,1.0,1.0,phase_1,,,,,,,,,,,,,magenta,flipped triangle
40.0,5.0,0.5,1.0,3.0,3.0,296.9727099998636,1.0,1.0,phase_1,,,,,,,,,,,,,blue,I
402.0,8.0,4.0,1.0,3.0,3.0,308.9683190000869,1.0,1.0,phase_1,,,,,,,,,,,,,magenta,flipped triangle
377.0,4.0,4.0,0.0,1.0,1.0,319.9846359998446,1.0,1.0,phase_1,,,,,,,,,,,,,cyan,hexagon
213.0,7.0,2.0,1.0,4.0,4.0,487.5649679997877,1.0,1.0,phase_1,,,,,,,,,,,,,yellow,triangle
119.0,6.0,1.0,1.0,2.0,2.0,346.1694539996642,1.0,1.0,phase_1,,,,,,,,,,,,,white,square
50.0,5.0,0.5,1.0,1.0,1.0,291.2539939998169,1.0,1.0,phase_1,,,,,,,,,,,,,blue,I
26.0,5.0,0.5,1.0,4.0,4.0,335.0400599997556,1.0,1.0,phase_1,,,,,,,,,,,,,blue,I
73.0,5.0,0.5,1.0,1.0,1.0,265.297591000035,1.0,1.0,phase_1,,,,,,,,,,,,,blue,I
40.0,1.0,0.5,0.0,4.0,4.0,292.0207389997813,1.0,1.0,phase_1,,,,,,,,,,,,,gray,circle
386.0,8.0,4.0,1.0,3.0,3.0,304.3233009998403,1.0,1.0,phase_1,,,,,,,,,,,,,magenta,flipped triangle
410.0,8.0,4.0,1.0,3.0,3.0,329.9774150000303,1.0,1.0,phase_1,,,,,,,,,,,,,magenta,flipped triangle
73.0,5.0,0.5,1.0,2.0,2.0,311.8740849999994,1.0,1.0,phase_1,,,,,,,,,,,,,blue,I
124.0,6.0,1.0,1.0,4.0,4.0,298.5680789997786,1.0,1.0,phase_1,,,,,,,,,,,,,white,square
101.0,2.0,1.0,0.0,3.0,3.0,309.0831539998362,1.0,1.0,phase_1,,,,,,,,,,,,,orange,cross
64.0,1.0,0.5,0.0,2.0,2.0,280.3764209998007,1.0,1.0,phase_1,,,,,,,,,,,,,gray,circle
0.0,5.0,0.0,1.0,3.0,3.0,322.4172989998806,2.0,1.0,phase_1,,,,,,,,,,,,,blue,I
101.0,2.0,1.0,0.0,4.0,4.0,327.6887609999903,2.0,1.0,phase_1,,,,,,,,,,,,,orange,cross
210.0,7.0,2.0,1.0,3.0,3.0,255.7978939998975,2.0,1.0,phase_1,,,,,,,,,,,,,yellow,triangle
56.0,5.0,0.5,1.0,4.0,4.0,276.2932229998114,2.0,1.0,phase_1,,,,,,,,,,,,,blue,I
0.0,2.0,0.0,0.0,3.0,3.0,261.8704579999757,2.0,1.0,phase_1,,,,,,,,,,,,,orange,cross
0.0,1.0,0.0,0.0,2.0,2.0,265.9463330001017,2.0,1.0,phase_1,,,,,,,,,,,,,gray,circle
82.0,2.0,1.0,0.0,1.0,1.0,247.0586919998822,2.0,1.0,phase_1,,,,,,,,,,,,,orange,cross
388.0,8.0,4.0,1.0,1.0,1.0,316.5023350002229,2.0,2.0,phase_1,,,,,,,,,,,,,magenta,flipped triangle
91.0,2.0,1.0,0.0,4.0,4.0,327.4823090000609,2.0,1.0,phase_1,,,,,,,,,,,,,orange,cross
0.0,3.0,0.0,0.0,4.0,4.0,365.474838999944,2.0,1.0,phase_1,,,,,,,,,,,,,green,diamond
203.0,3.0,2.0,0.0,1.0,1.0,280.0407820000146,2.0,1.0,phase_1,,,,,,,,,,,,,green,diamond
188.0,3.0,2.0,0.0,4.0,4.0,362.7275199996802,2.0,1.0,phase_1,,,,,,,,,,,,,green,diamond
0.0,4.0,0.0,0.0,3.0,3.0,339.7288999999546,2.0,1.0,phase_1,,,,,,,,,,,,,cyan,hexagon
0.0,2.0,0.0,0.0,4.0,4.0,380.3117919997021,2.0,1.0,phase_1,,,,,,,,,,,,,orange,cross
395.0,8.0,4.0,1.0,4.0,4.0,348.1024800003069,2.0,1.0,phase_1,,,,,,,,,,,,,magenta,flipped triangle
215.0,7.0,2.0,1.0,2.0,2.0,333.9100869998219,2.0,1.0,phase_1,,,,,,,,,,,,,yellow,triangle
0.0,4.0,0.0,0.0,3.0,3.0,389.9037210003371,2.0,1.0,phase_1,,,,,,,,,,,,,cyan,hexagon
203.0,7.0,2.0,1.0,4.0,4.0,381.3441460001741,2.0,1.0,phase_1,,,,,,,,,,,,,yellow,triangle
27.0,1.0,0.5,0.0,1.0,1.0,277.0345089998045,2.0,1.0,phase_1,,,,,,,,,,,,,gray,circle
0.0,8.0,0.0,1.0,4.0,4.0,269.5552129998759,2.0,1.0,phase_1,,,,,,,,,,,,,magenta,flipped triangle
57.0,1.0,0.5,0.0,2.0,2.0,301.6043049997279,2.0,1.0,phase_1,,,,,,,,,,,,,gray,circle
51.0,1.0,0.5,0.0,1.0,1.0,255.88017100017169,2.0,1.0,phase_1,,,,,,,,,,,,,gray,circle
214.0,7.0,2.0,1.0,3.0,3.0,322.622322999905,2.0,1.0,phase_1,,,,,,,,,,,,,yellow,triangle
83.0,2.0,1.0,0.0,2.0,2.0,281.9589999999152,2.0,1.0,phase_1,,,,,,,,,,,,,orange,cross
206.0,3.0,2.0,0.0,2.0,2.0,283.5664429999269,2.0,1.0,phase_1,,,,,,,,,,,,,green,diamond
36.0,5.0,0.5,1.0,3.0,3.0,320.7510239999465,2.0,1.0,phase_1,,,,,,,,,,,,,blue,I
204.0,7.0,2.0,1.0,3.0,3.0,323.7154219996228,2.0,1.0,phase_1,,,,,,,,,,,,,yellow,triangle
402.0,8.0,4.0,1.0,4.0,4.0,298.7659420000454,2.0,1.0,phase_1,,,,,,,,,,,,,magenta,flipped triangle
51.0,5.0,0.5,1.0,2.0,2.0,327.6441190000696,2.0,1.0,phase_1,,,,,,,,,,,,,blue,I
79.0,6.0,1.0,1.0,3.0,3.0,267.9822519999106,2.0,1.0,phase_1,,,,,,,,,,,,,white,square
87.0,6.0,1.0,1.0,1.0,1.0,297.9932559996996,2.0,1.0,phase_1,,,,,,,,,,,,,white,square
0.0,6.0,0.0,1.0,3.0,3.0,294.9043079997864,2.0,1.0,phase_1,,,,,,,,,,,,,white,square
184.0,3.0,2.0,0.0,3.0,3.0,303.1660489996284,2.0,1.0,phase_1,,,,,,,,,,,,,green,diamond
212.0,3.0,2.0,0.0,1.0,1.0,274.1016759996455,2.0,1.0,phase_1,,,,,,,,,,,,,green,diamond
56.0,1.0,0.5,0.0,3.0,3.0,264.598281000417,2.0,1.0,phase_1,,,,,,,,,,,,,gray,circle
72.0,1.0,0.5,0.0,3.0,3.0,301.2654350000048,2.0,1.0,phase_1,,,,,,,,,,,,,gray,circle
0.0,2.0,0.0,0.0,1.0,1.0,254.89372199990612,2.0,1.0,phase_1,,,,,,,,,,,,,orange,cross
101.0,6.0,1.0,1.0,1.0,1.0,292.8203459996439,2.0,1.0,phase_1,,,,,,,,,,,,,white,square
0.0,6.0,0.0,1.0,2.0,2.0,286.7627239998001,2.0,1.0,phase_1,,,,,,,,,,,,,white,square
43.0,1.0,0.5,0.0,2.0,2.0,268.5110810002697,2.0,1.0,phase_1,,,,,,,,,,,,,gray,circle
0.0,7.0,0.0,1.0,3.0,3.0,283.5355480001453,2.0,1.0,phase_1,,,,,,,,,,,,,yellow,triangle
403.0,8.0,4.0,1.0,3.0,3.0,299.6758180001961,2.0,1.0,phase_1,,,,,,,,,,,,,magenta,flipped triangle
98.0,2.0,1.0,0.0,3.0,3.0,311.9822879998537,2.0,1.0,phase_1,,,,,,,,,,,,,orange,cross
180.0,7.0,2.0,1.0,4.0,4.0,348.3875980000448,2.0,1.0,phase_1,,,,,,,,,,,,,yellow,triangle
396.0,4.0,4.0,0.0,3.0,3.0,331.579819000126,2.0,1.0,phase_1,,,,,,,,,,,,,cyan,hexagon
0.0,4.0,0.0,0.0,3.0,3.0,315.908417999708,2.0,1.0,phase_1,,,,,,,,,,,,,cyan,hexagon
424.0,8.0,4.0,1.0,4.0,4.0,326.4635589998761,2.0,1.0,phase_1,,,,,,,,,,,,,magenta,flipped triangle
0.0,6.0,0.0,1.0,3.0,3.0,330.2618959996835,2.0,1.0,phase_1,,,,,,,,,,,,,white,square
86.0,2.0,1.0,0.0,1.0,1.0,277.8085459999602,2.0,1.0,phase_1,,,,,,,,,,,,,orange,cross
107.0,2.0,1.0,0.0,1.0,1.0,306.5159319999111,2.0,1.0,phase_1,,,,,,,,,,,,,orange,cross
87.0,2.0,1.0,0.0,4.0,4.0,274.1334739998819,2.0,1.0,phase_1,,,,,,,,,,,,,orange,cross
106.0,2.0,1.0,0.0,2.0,2.0,293.9583129996208,2.0,1.0,phase_1,,,,,,,,,,,,,orange,cross
392.0,8.0,4.0,1.0,1.0,1.0,320.6490049997228,2.0,1.0,phase_1,,,,,,,,,,,,,magenta,flipped triangle
402.0,4.0,4.0,0.0,4.0,4.0,275.5910500000027,2.0,1.0,phase_1,,,,,,,,,,,,,cyan,hexagon
0.0,4.0,0.0,0.0,4.0,4.0,313.5756189999483,2.0,1.0,phase_1,,,,,,,,,,,,,cyan,hexagon
391.0,4.0,4.0,0.0,1.0,1.0,346.0138619998361,2.0,1.0,phase_1,,,,,,,,,,,,,cyan,hexagon
64.0,5.0,0.5,1.0,3.0,3.0,301.9643150000775,2.0,1.0,phase_1,,,,,,,,,,,,,blue,I
220.0,3.0,2.0,0.0,1.0,1.0,317.3149250001188,2.0,1.0,phase_1,,,,,,,,,,,,,green,diamond
423.0,8.0,4.0,1.0,2.0,2.0,321.6999239998586,2.0,1.0,phase_1,,,,,,,,,,,,,magenta,flipped triangle
223.0,7.0,2.0,1.0,4.0,4.0,261.7647649999526,2.0,1.0,phase_1,,,,,,,,,,,,,yellow,triangle
206.0,3.0,2.0,0.0,4.0,4.0,315.5439120000665,2.0,1.0,phase_1,,,,,,,,,,,,,green,diamond
102.0,2.0,1.0,0.0,1.0,1.0,310.8125590001691,2.0,1.0,phase_1,,,,,,,,,,,,,orange,cross
0.0,2.0,0.0,0.0,3.0,3.0,307.0558790000177,2.0,1.0,phase_1,,,,,,,,,,,,,orange,cross
91.0,6.0,1.0,1.0,4.0,4.0,336.3436960003128,2.0,1.0,phase_1,,,,,,,,,,,,,white,square
0.0,7.0,0.0,1.0,1.0,1.0,243.8037769998118,2.0,1.0,phase_1,,,,,,,,,,,,,yellow,triangle
391.0,8.0,4.0,1.0,1.0,1.0,458.6600140000882,2.0,1.0,phase_1,,,,,,,,,,,,,magenta,flipped triangle
219.0,7.0,2.0,1.0,1.0,1.0,290.1047209998069,2.0,1.0,phase_1,,,,,,,,,,,,,yellow,triangle
118.0,6.0,1.0,1.0,1.0,1.0,241.8035170003349,2.0,1.0,phase_1,,,,,,,,,,,,,white,square
0.0,2.0,0.0,0.0,1.0,1.0,283.3444719999534,2.0,1.0,phase_1,,,,,,,,,,,,,orange,cross
0.0,6.0,0.0,1.0,2.0,2.0,247.7277190000677,2.0,1.0,phase_1,,,,,,,,,,,,,white,square
0.0,2.0,0.0,0.0,3.0,3.0,305.5125569999291,2.0,1.0,phase_1,,,,,,,,,,,,,orange,cross
395.0,4.0,4.0,0.0,4.0,4.0,343.3888029999252,2.0,1.0,phase_1,,,,,,,,,,,,,cyan,hexagon
0.0,7.0,0.0,1.0,4.0,4.0,346.8917130003319,2.0,1.0,phase_1,,,,,,,,,,,,,yellow,triangle
0.0,6.0,0.0,1.0,2.0,2.0,335.4410790002475,2.0,1.0,phase_1,,,,,,,,,,,,,white,square
223.0,3.0,2.0,0.0,2.0,2.0,275.1453219998439,2.0,1.0,phase_1,,,,,,,,,,,,,green,diamond
389.0,8.0,4.0,1.0,3.0,3.0,289.198117000069,2.0,1.0,phase_1,,,,,,,,,,,,,magenta,flipped triangle
0.0,3.0,0.0,0.0,2.0,2.0,335.8716319999075,2.0,1.0,phase_1,,,,,,,,,,,,,green,diamond
223.0,7.0,2.0,1.0,3.0,3.0,356.2630789997456,2.0,1.0,phase_1,,,,,,,,,,,,,yellow,triangle
183.0,3.0,2.0,0.0,2.0,2.0,327.0591349996721,2.0,1.0,phase_1,,,,,,,,,,,,,green,diamond
55.0,1.0,0.5,0.0,3.0,3.0,288.5976379998283,2.0,1.0,phase_1,,,,,,,,,,,,,gray,circle
0.0,8.0,0.0,1.0,2.0,2.0,298.5849709998547,2.0,1.0,phase_1,,,,,,,,,,,,,magenta,flipped triangle
201.0,7.0,2.0,1.0,2.0,2.0,327.4448679999295,2.0,1.0,phase_1,,,,,,,,,,,,,yellow,triangle
378.0,8.0,4.0,1.0,1.0,1.0,300.4882250002083,2.0,1.0,phase_1,,,,,,,,,,,,,magenta,flipped triangle
82.0,2.0,1.0,0.0,1.0,1.0,285.3867399999217,2.0,1.0,phase_1,,,,,,,,,,,,,orange,cross
27.0,5.0,0.5,1.0,1.0,1.0,499.4658539999363,2.0,1.0,phase_1,,,,,,,,,,,,,blue,I
207.0,7.0,2.0,1.0,2.0,2.0,294.9789530002817,2.0,1.0,phase_1,,,,,,,,,,,,,yellow,triangle
392.0,4.0,4.0,0.0,2.0,2.0,274.2687850000038,2.0,1.0,phase_1,,,,,,,,,,,,,cyan,hexagon
215.0,3.0,2.0,0.0,3.0,3.0,312.3897979999128,2.0,1.0,phase_1,,,,,,,,,,,,,green,diamond
188.0,3.0,2.0,0.0,1.0,1.0,207.4747130000105,2.0,1.0,phase_1,,,,,,,,,,,,,green,diamond
180.0,7.0,2.0,1.0,1.0,1.0,271.3648680000915,2.0,1.0,phase_1,,,,,,,,,,,,,yellow,triangle
193.0,3.0,2.0,0.0,3.0,3.0,311.7887739999787,2.0,1.0,phase_1,,,,,,,,,,,,,green,diamond
66.0,1.0,0.5,0.0,1.0,1.0,246.3574109997353,2.0,1.0,phase_1,,,,,,,,,,,,,gray,circle
36.0,1.0,0.5,0.0,4.0,4.0,311.3977550001436,2.0,1.0,phase_1,,,,,,,,,,,,,gray,circle
0.0,8.0,0.0,1.0,3.0,3.0,348.6476949997268,2.0,1.0,phase_1,,,,,,,,,,,,,magenta,flipped triangle
61.0,5.0,0.5,1.0,1.0,1.0,226.843418000044,2.0,1.0,phase_1,,,,,,,,,,,,,blue,I
0.0,2.0,0.0,0.0,4.0,4.0,288.6660099998153,2.0,1.0,phase_1,,,,,,,,,,,,,orange,cross
54.0,5.0,0.5,1.0,4.0,4.0,509.3310319998636,2.0,1.0,phase_1,,,,,,,,,,,,,blue,I
79.0,2.0,1.0,0.0,1.0,1.0,376.389028000176,2.0,2.0,phase_1,,,,,,,,,,,,,orange,cross
220.0,7.0,2.0,1.0,1.0,1.0,309.8949499999435,2.0,1.0,phase_1,,,,,,,,,,,,,yellow,triangle
193.0,7.0,2.0,1.0,1.0,1.0,314.6621259998028,2.0,1.0,phase_1,,,,,,,,,,,,,yellow,triangle
73.0,5.0,0.5,1.0,2.0,2.0,291.9963750000534,3.0,1.0,phase_1,,,,,,,,,,,,,blue,I
42.0,5.0,0.5,1.0,2.0,2.0,351.7380509997565,3.0,1.0,phase_1,,,,,,,,,,,,,blue,I
403.0,4.0,4.0,0.0,3.0,3.0,309.8696500001097,3.0,1.0,phase_1,,,,,,,,,,,,,cyan,hexagon
123.0,2.0,1.0,0.0,3.0,3.0,321.4487390000613,3.0,1.0,phase_1,,,,,,,,,,,,,orange,cross
74.0,1.0,0.5,0.0,1.0,1.0,319.2045159998997,3.0,1.0,phase_1,,,,,,,,,,,,,gray,circle
0.0,1.0,0.0,0.0,1.0,1.0,302.9048369999145,3.0,1.0,phase_1,,,,,,,,,,,,,gray,circle
0.0,5.0,0.0,1.0,1.0,1.0,302.212192999832,3.0,1.0,phase_1,,,,,,,,,,,,,blue,I
417.0,4.0,4.0,0.0,2.0,2.0,362.8760850001526,3.0,1.0,phase_1,,,,,,,,,,,,,cyan,hexagon
87.0,6.0,1.0,1.0,4.0,4.0,331.5969239997685,3.0,1.0,phase_1,,,,,,,,,,,,,white,square
384.0,8.0,4.0,1.0,1.0,1.0,305.3270370000973,3.0,1.0,phase_1,,,,,,,,,,,,,magenta,flipped triangle
0.0,8.0,0.0,1.0,1.0,1.0,280.4810439997709,3.0,1.0,phase_1,,,,,,,,,,,,,magenta,flipped triangle
119.0,2.0,1.0,0.0,2.0,2.0,307.5536090000241,3.0,1.0,phase_1,,,,,,,,,,,,,orange,cross
386.0,4.0,4.0,0.0,4.0,4.0,340.2878570000212,3.0,1.0,phase_1,,,,,,,,,,,,,cyan,hexagon
114.0,2.0,1.0,0.0,2.0,2.0,301.2894960002086,3.0,1.0,phase_1,,,,,,,,,,,,,orange,cross
0.0,5.0,0.0,1.0,1.0,1.0,324.6825659998649,3.0,1.0,phase_1,,,,,,,,,,,,,blue,I
0.0,8.0,0.0,1.0,1.0,1.0,343.5002309997799,3.0,1.0,phase_1,,,,,,,,,,,,,magenta,flipped triangle
413.0,4.0,4.0,0.0,2.0,2.0,330.7228349999604,3.0,1.0,phase_1,,,,,,,,,,,,,cyan,hexagon
43.0,5.0,0.5,1.0,1.0,1.0,378.5557239998525,3.0,1.0,phase_1,,,,,,,,,,,,,blue,I
184.0,7.0,2.0,1.0,4.0,4.0,367.2702510002636,3.0,1.0,phase_1,,,,,,,,,,,,,yellow,triangle
185.0,7.0,2.0,1.0,1.0,1.0,353.3586120001928,3.0,1.0,phase_1,,,,,,,,,,,,,yellow,triangle
405.0,4.0,4.0,0.0,3.0,3.0,345.6150639999578,3.0,1.0,phase_1,,,,,,,,,,,,,cyan,hexagon
118.0,2.0,1.0,0.0,4.0,4.0,474.835358999826,3.0,1.0,phase_1,,,,,,,,,,,,,orange,cross
191.0,3.0,2.0,0.0,3.0,3.0,377.2460280001724,3.0,1.0,phase_1,,,,,,,,,,,,,green,diamond
378.0,4.0,4.0,0.0,1.0,1.0,375.087758999598,3.0,1.0,phase_1,,,,,,,,,,,,,cyan,hexagon
210.0,3.0,2.0,0.0,1.0,1.0,325.5001050001738,3.0,1.0,phase_1,,,,,,,,,,,,,green,diamond
61.0,1.0,0.5,0.0,2.0,2.0,306.2518449996787,3.0,1.0,phase_1,,,,,,,,,,,,,gray,circle
0.0,3.0,0.0,0.0,3.0,3.0,403.893188999973,3.0,1.0,phase_1,,,,,,,,,,,,,green,diamond
102.0,6.0,1.0,1.0,4.0,4.0,503.31857800028956,3.0,1.0,phase_1,,,,,,,,,,,,,white,square
0.0,3.0,0.0,0.0,4.0,4.0,450.7237030002216,3.0,1.0,phase_1,,,,,,,,,,,,,green,diamond
0.0,2.0,0.0,0.0,2.0,2.0,467.4267330001385,3.0,1.0,phase_1,,,,,,,,,,,,,orange,cross
0.0,1.0,0.0,0.0,3.0,3.0,438.2044630001473,3.0,1.0,phase_1,,,,,,,,,,,,,gray,circle
91.0,6.0,1.0,1.0,1.0,1.0,288.3162640000591,3.0,1.0,phase_1,,,,,,,,,,,,,white,square
218.0,7.0,2.0,1.0,3.0,3.0,363.0851399998391,3.0,1.0,phase_1,,,,,,,,,,,,,yellow,triangle
97.0,2.0,1.0,0.0,1.0,1.0,303.9966800001821,3.0,1.0,phase_1,,,,,,,,,,,,,orange,cross
96.0,6.0,1.0,1.0,2.0,2.0,313.4695039998405,3.0,1.0,phase_1,,,,,,,,,,,,,white,square
57.0,1.0,0.5,0.0,3.0,3.0,305.2724189997207,3.0,1.0,phase_1,,,,,,,,,,,,,gray,circle
106.0,6.0,1.0,1.0,2.0,2.0,281.113656999878,3.0,1.0,phase_1,,,,,,,,,,,,,white,square
211.0,3.0,2.0,0.0,1.0,1.0,330.9120330000041,3.0,1.0,phase_1,,,,,,,,,,,,,green,diamond
406.0,4.0,4.0,0.0,3.0,3.0,262.6939379997566,3.0,1.0,phase_1,,,,,,,,,,,,,cyan,hexagon
378.0,4.0,4.0,0.0,2.0,2.0,248.7965300001633,3.0,1.0,phase_1,,,,,,,,,,,,,cyan,hexagon
400.0,8.0,4.0,1.0,1.0,1.0,294.6716970000125,3.0,1.0,phase_1,,,,,,,,,,,,,magenta,flipped triangle
389.0,4.0,4.0,0.0,2.0,2.0,292.0662399997127,3.0,1.0,phase_1,,,,,,,,,,,,,cyan,hexagon
0.0,4.0,0.0,0.0,1.0,1.0,275.1533430000563,3.0,1.0,phase_1,,,,,,,,,,,,,cyan,hexagon
0.0,2.0,0.0,0.0,3.0,3.0,323.3245739997983,3.0,1.0,phase_1,,,,,,,,,,,,,orange,cross
64.0,1.0,0.5,0.0,2.0,2.0,347.5492810002833,3.0,1.0,phase_1,,,,,,,,,,,,,gray,circle
418.0,8.0,4.0,1.0,3.0,3.0,332.1880160001456,3.0,1.0,phase_1,,,,,,,,,,,,,magenta,flipped triangle
424.0,4.0,4.0,0.0,1.0,1.0,244.9094739999964,3.0,1.0,phase_1,,,,,,,,,,,,,cyan,hexagon
0.0,4.0,0.0,0.0,1.0,1.0,330.7814469999357,3.0,1.0,phase_1,,,,,,,,,,,,,cyan,hexagon
183.0,7.0,2.0,1.0,2.0,2.0,303.7288529999387,3.0,1.0,phase_1,,,,,,,,,,,,,yellow,triangle
0.0,4.0,0.0,0.0,4.0,4.0,405.1522980003028,3.0,2.0,phase_1,,,,,,,,,,,,,cyan,hexagon
186.0,7.0,2.0,1.0,2.0,2.0,375.9543489995849,3.0,1.0,phase_1,,,,,,,,,,,,,yellow,triangle
72.0,5.0,0.5,1.0,4.0,4.0,388.5619909997331,3.0,1.0,phase_1,,,,,,,,,,,,,blue,I
57.0,5.0,0.5,1.0,2.0,2.0,402.2449459998825,3.0,1.0,phase_1,,,,,,,,,,,,,blue,I
0.0,4.0,0.0,0.0,4.0,4.0,449.9715950000791,3.0,1.0,phase_1,,,,,,,,,,,,,cyan,hexagon
0.0,3.0,0.0,0.0,4.0,4.0,480.0076960000297,3.0,1.0,phase_1,,,,,,,,,,,,,green,diamond
191.0,7.0,2.0,1.0,2.0,2.0,337.9037939998852,3.0,1.0,phase_1,,,,,,,,,,,,,yellow,triangle
175.0,3.0,2.0,0.0,4.0,4.0,481.1815399998522,3.0,1.0,phase_1,,,,,,,,,,,,,green,diamond
377.0,8.0,4.0,1.0,2.0,2.0,385.9684410003865,3.0,1.0,phase_1,,,,,,,,,,,,,magenta,flipped triangle
191.0,7.0,2.0,1.0,2.0,2.0,344.858596999984,3.0,1.0,phase_1,,,,,,,,,,,,,yellow,triangle
0.0,8.0,0.0,1.0,3.0,3.0,387.5511729997924,3.0,1.0,phase_1,,,,,,,,,,,,,magenta,flipped triangle
55.0,5.0,0.5,1.0,1.0,1.0,332.9138149997561,3.0,1.0,phase_1,,,,,,,,,,,,,blue,I
206.0,7.0,2.0,1.0,3.0,3.0,369.1822659998252,3.0,1.0,phase_1,,,,,,,,,,,,,yellow,triangle
93.0,6.0,1.0,1.0,3.0,3.0,360.6145190001371,3.0,1.0,phase_1,,,,,,,,,,,,,white,square
69.0,5.0,0.5,1.0,3.0,3.0,403.8799989998551,3.0,1.0,phase_1,,,,,,,,,,,,,blue,I
396.0,8.0,4.0,1.0,2.0,2.0,417.0743190002213,3.0,1.0,phase_1,,,,,,,,,,,,,magenta,flipped triangle
0.0,4.0,0.0,0.0,4.0,4.0,462.1098870002242,3.0,1.0,phase_1,,,,,,,,,,,,,cyan,hexagon
73.0,1.0,0.5,0.0,4.0,4.0,428.7490919996344,3.0,1.0,phase_1,,,,,,,,,,,,,gray,circle
180.0,3.0,2.0,0.0,4.0,4.0,354.8758779998024,3.0,1.0,phase_1,,,,,,,,,,,,,green,diamond
120.0,2.0,1.0,0.0,2.0,2.0,361.6511340001125,3.0,1.0,phase_1,,,,,,,,,,,,,orange,cross
392.0,4.0,4.0,0.0,4.0,4.0,417.6648679999744,3.0,1.0,phase_1,,,,,,,,,,,,,cyan,hexagon
101.0,6.0,1.0,1.0,3.0,3.0,336.416010999983,3.0,1.0,phase_1,,,,,,,,,,,,,white,square
0.0,5.0,0.0,1.0,4.0,4.0,416.5761429999293,3.0,1.0,phase_1,,,,,,,,,,,,,blue,I
0.0,5.0,0.0,1.0,4.0,4.0,340.2125469997372,3.0,1.0,phase_1,,,,,,,,,,,,,blue,I
413.0,8.0,4.0,1.0,2.0,2.0,390.0820009998824,3.0,1.0,phase_1,,,,,,,,,,,,,magenta,flipped triangle
411.0,8.0,4.0,1.0,2.0,2.0,463.9658309997685,3.0,1.0,phase_1,,,,,,,,,,,,,magenta,flipped triangle
0.0,3.0,0.0,0.0,3.0,3.0,375.8283789998131,3.0,1.0,phase_1,,,,,,,,,,,,,green,diamond
206.0,7.0,2.0,1.0,3.0,3.0,441.6993770000772,3.0,1.0,phase_1,,,,,,,,,,,,,yellow,triangle
0.0,1.0,0.0,0.0,2.0,2.0,432.2469930002626,3.0,1.0,phase_1,,,,,,,,,,,,,gray,circle
0.0,1.0,0.0,0.0,4.0,4.0,445.3813319996698,3.0,1.0,phase_1,,,,,,,,,,,,,gray,circle
0.0,1.0,0.0,0.0,2.0,2.0,361.6048600001704,3.0,1.0,phase_1,,,,,,,,,,,,,gray,circle
417.0,4.0,4.0,0.0,3.0,3.0,358.65821099969247,3.0,1.0,phase_1,,,,,,,,,,,,,cyan,hexagon
402.0,4.0,4.0,0.0,3.0,3.0,345.6868459998077,3.0,1.0,phase_1,,,,,,,,,,,,,cyan,hexagon
0.0,8.0,0.0,1.0,3.0,3.0,358.4433109999736,3.0,1.0,phase_1,,,,,,,,,,,,,magenta,flipped triangle
181.0,3.0,2.0,0.0,2.0,2.0,482.1039120001842,3.0,1.0,phase_1,,,,,,,,,,,,,green,diamond
393.0,8.0,4.0,1.0,2.0,2.0,319.5074309996926,3.0,1.0,phase_1,,,,,,,,,,,,,magenta,flipped triangle
124.0,2.0,1.0,0.0,2.0,2.0,370.4474450000816,3.0,1.0,phase_1,,,,,,,,,,,,,orange,cross
123.0,6.0,1.0,1.0,2.0,2.0,287.3751179999999,3.0,1.0,phase_1,,,,,,,,,,,,,white,square
0.0,3.0,0.0,0.0,1.0,1.0,294.6019670002897,3.0,1.0,phase_1,,,,,,,,,,,,,green,diamond
423.0,4.0,4.0,0.0,2.0,2.0,371.2989480000033,3.0,1.0,phase_1,,,,,,,,,,,,,cyan,hexagon
47.0,1.0,0.5,0.0,3.0,3.0,421.9058189996758,3.0,1.0,phase_1,,,,,,,,,,,,,gray,circle
73.0,1.0,0.5,0.0,4.0,4.0,477.1719280001889,3.0,1.0,phase_1,,,,,,,,,,,,,gray,circle
0.0,6.0,0.0,1.0,4.0,4.0,407.5630449997334,3.0,1.0,phase_1,,,,,,,,,,,,,white,square
52.0,1.0,0.5,0.0,1.0,1.0,549.4898279998779,3.0,1.0,phase_1,,,,,,,,,,,,,gray,circle
188.0,7.0,2.0,1.0,1.0,1.0,334.6918919996824,3.0,1.0,phase_1,,,,,,,,,,,,,yellow,triangle
26.0,5.0,0.5,1.0,4.0,4.0,365.8551009998518,3.0,1.0,phase_1,,,,,,,,,,,,,blue,I
31.0,1.0,0.5,0.0,2.0,2.0,298.9498900001308,3.0,1.0,phase_1,,,,,,,,,,,,,gray,circle
32.0,5.0,0.5,1.0,3.0,3.0,331.8481530000099,3.0,1.0,phase_1,,,,,,,,,,,,,blue,I
57.0,5.0,0.5,1.0,4.0,4.0,388.7672050000219,3.0,1.0,phase_1,,,,,,,,,,,,,blue,I
400.0,4.0,4.0,0.0,1.0,1.0,311.4457619999484,3.0,1.0,phase_1,,,,,,,,,,,,,cyan,hexagon
54.0,1.0,0.5,0.0,1.0,1.0,374.9449289998665,3.0,1.0,phase_1,,,,,,,,,,,,,gray,circle
53.0,5.0,0.5,1.0,4.0,4.0,355.6975999999849,4.0,1.0,phase_1,,,,,,,,,,,,,blue,I
213.0,3.0,2.0,0.0,4.0,4.0,305.2082119997976,4.0,1.0,phase_1,,,,,,,,,,,,,green,diamond
413.0,4.0,4.0,0.0,1.0,1.0,320.5936309996104,4.0,1.0,phase_1,,,,,,,,,,,,,cyan,hexagon
120.0,6.0,1.0,1.0,4.0,4.0,311.8926130000545,4.0,1.0,phase_1,,,,,,,,,,,,,white,square
0.0,1.0,0.0,0.0,2.0,2.0,304.4746220002707,4.0,1.0,phase_1,,,,,,,,,,,,,gray,circle
393.0,4.0,4.0,0.0,4.0,4.0,293.0545710000842,4.0,1.0,phase_1,,,,,,,,,,,,,cyan,hexagon
89.0,2.0,1.0,0.0,1.0,1.0,285.6954920002863,4.0,1.0,phase_1,,,,,,,,,,,,,orange,cross
386.0,4.0,4.0,0.0,2.0,2.0,302.1504209996237,4.0,1.0,phase_1,,,,,,,,,,,,,cyan,hexagon
117.0,6.0,1.0,1.0,3.0,3.0,280.6100239999978,4.0,1.0,phase_1,,,,,,,,,,,,,white,square
26.0,1.0,0.5,0.0,1.0,1.0,449.4164780003302,4.0,1.0,phase_1,,,,,,,,,,,,,gray,circle
388.0,4.0,4.0,0.0,4.0,4.0,318.9098830002876,4.0,1.0,phase_1,,,,,,,,,,,,,cyan,hexagon
64.0,5.0,0.5,1.0,2.0,2.0,387.5357209999492,4.0,1.0,phase_1,,,,,,,,,,,,,blue,I
213.0,7.0,2.0,1.0,3.0,3.0,500.4653760001929,4.0,1.0,phase_1,,,,,,,,,,,,,yellow,triangle
0.0,7.0,0.0,1.0,1.0,1.0,426.8454980001479,4.0,1.0,phase_1,,,,,,,,,,,,,yellow,triangle
97.0,6.0,1.0,1.0,3.0,3.0,380.2927770002497,4.0,1.0,phase_1,,,,,,,,,,,,,white,square
417.0,8.0,4.0,1.0,1.0,1.0,446.5532340000209,4.0,1.0,phase_1,,,,,,,,,,,,,magenta,flipped triangle
110.0,2.0,1.0,0.0,1.0,1.0,336.6157450000173,4.0,1.0,phase_1,,,,,,,,,,,,,orange,cross
424.0,8.0,4.0,1.0,1.0,1.0,300.7653410004423,4.0,1.0,phase_1,,,,,,,,,,,,,magenta,flipped triangle
61.0,1.0,0.5,0.0,2.0,2.0,327.3151789999247,4.0,1.0,phase_1,,,,,,,,,,,,,gray,circle
213.0,3.0,2.0,0.0,4.0,4.0,391.2385549997452,4.0,1.0,phase_1,,,,,,,,,,,,,green,diamond
83.0,6.0,1.0,1.0,3.0,3.0,399.8408229999768,4.0,1.0,phase_1,,,,,,,,,,,,,white,square
423.0,8.0,4.0,1.0,3.0,3.0,482.7940169998328,4.0,1.0,phase_1,,,,,,,,,,,,,magenta,flipped triangle
207.0,3.0,2.0,0.0,2.0,2.0,425.7214580002255,4.0,1.0,phase_1,,,,,,,,,,,,,green,diamond
32.0,1.0,0.5,0.0,3.0,3.0,417.4834049999845,4.0,1.0,phase_1,,,,,,,,,,,,,gray,circle
411.0,4.0,4.0,0.0,2.0,2.0,401.5430949998517,4.0,1.0,phase_1,,,,,,,,,,,,,cyan,hexagon
386.0,8.0,4.0,1.0,3.0,3.0,418.9679380001507,4.0,1.0,phase_1,,,,,,,,,,,,,magenta,flipped triangle
181.0,7.0,2.0,1.0,4.0,4.0,447.3010490000888,4.0,1.0,phase_1,,,,,,,,,,,,,yellow,triangle
114.0,6.0,1.0,1.0,2.0,2.0,359.1987219997463,4.0,1.0,phase_1,,,,,,,,,,,,,white,square
93.0,2.0,1.0,0.0,3.0,3.0,395.9855240000252,4.0,1.0,phase_1,,,,,,,,,,,,,orange,cross
406.0,8.0,4.0,1.0,2.0,2.0,446.4674500000001,4.0,1.0,phase_1,,,,,,,,,,,,,magenta,flipped triangle
0.0,7.0,0.0,1.0,4.0,4.0,464.7714130001077,4.0,1.0,phase_1,,,,,,,,,,,,,yellow,triangle
0.0,5.0,0.0,1.0,2.0,2.0,298.5071959997185,4.0,1.0,phase_1,,,,,,,,,,,,,blue,I
0.0,7.0,0.0,1.0,4.0,4.0,369.020386000102,4.0,1.0,phase_1,,,,,,,,,,,,,yellow,triangle
118.0,6.0,1.0,1.0,4.0,4.0,362.35019500009,4.0,1.0,phase_1,,,,,,,,,,,,,white,square
185.0,3.0,2.0,0.0,4.0,4.0,366.144007999992,4.0,1.0,phase_1,,,,,,,,,,,,,green,diamond
213.0,3.0,2.0,0.0,3.0,3.0,287.6876960003756,4.0,1.0,phase_1,,,,,,,,,,,,,green,diamond
177.0,7.0,2.0,1.0,1.0,1.0,332.936305000203,4.0,1.0,phase_1,,,,,,,,,,,,,yellow,triangle
0.0,6.0,0.0,1.0,2.0,2.0,402.9300489996785,4.0,1.0,phase_1,,,,,,,,,,,,,white,square
179.0,7.0,2.0,1.0,2.0,2.0,614.4878380000591,4.0,1.0,phase_1,,,,,,,,,,,,,yellow,triangle
0.0,7.0,0.0,1.0,4.0,4.0,348.5808269997505,4.0,1.0,phase_1,,,,,,,,,,,,,yellow,triangle
198.0,3.0,2.0,0.0,2.0,2.0,310.3148770001098,4.0,1.0,phase_1,,,,,,,,,,,,,green,diamond
424.0,4.0,4.0,0.0,3.0,3.0,301.0235950000606,4.0,1.0,phase_1,,,,,,,,,,,,,cyan,hexagon
198.0,7.0,2.0,1.0,3.0,3.0,357.0601309997983,4.0,1.0,phase_1,,,,,,,,,,,,,yellow,triangle
32.0,1.0,0.5,0.0,4.0,4.0,376.5404700002364,4.0,1.0,phase_1,,,,,,,,,,,,,gray,circle
383.0,4.0,4.0,0.0,1.0,1.0,359.9039949999678,4.0,1.0,phase_1,,,,,,,,,,,,,cyan,hexagon
101.0,6.0,1.0,1.0,1.0,1.0,426.828783000019,4.0,1.0,phase_1,,,,,,,,,,,,,white,square
73.0,1.0,0.5,0.0,4.0,4.0,344.432192000113,4.0,1.0,phase_1,,,,,,,,,,,,,gray,circle
211.0,7.0,2.0,1.0,2.0,2.0,320.3534509998462,4.0,1.0,phase_1,,,,,,,,,,,,,yellow,triangle
0.0,6.0,0.0,1.0,4.0,4.0,289.8469560000194,4.0,1.0,phase_1,,,,,,,,,,,,,white,square
106.0,2.0,1.0,0.0,2.0,2.0,319.1969700001209,4.0,1.0,phase_1,,,,,,,,,,,,,orange,cross
114.0,6.0,1.0,1.0,4.0,4.0,351.5135900001951,4.0,1.0,phase_1,,,,,,,,,,,,,white,square
417.0,8.0,4.0,1.0,3.0,3.0,420.9600799999862,4.0,1.0,phase_1,,,,,,,,,,,,,magenta,flipped triangle
0.0,8.0,0.0,1.0,1.0,1.0,319.467338999857,4.0,1.0,phase_1,,,,,,,,,,,,,magenta,flipped triangle
0.0,3.0,0.0,0.0,2.0,2.0,309.8945010001444,4.0,1.0,phase_1,,,,,,,,,,,,,green,diamond
214.0,3.0,2.0,0.0,1.0,1.0,417.2123910002483,4.0,1.0,phase_1,,,,,,,,,,,,,green,diamond
101.0,2.0,1.0,0.0,4.0,4.0,376.3134999999238,4.0,1.0,phase_1,,,,,,,,,,,,,orange,cross
0.0,5.0,0.0,1.0,1.0,1.0,428.5073759997431,4.0,1.0,phase_1,,,,,,,,,,,,,blue,I
102.0,2.0,1.0,0.0,4.0,4.0,490.0210660002813,4.0,1.0,phase_1,,,,,,,,,,,,,orange,cross
33.0,1.0,0.5,0.0,4.0,4.0,466.0974610001176,4.0,1.0,phase_1,,,,,,,,,,,,,gray,circle
395.0,4.0,4.0,0.0,1.0,1.0,328.8953589999437,4.0,1.0,phase_1,,,,,,,,,,,,,cyan,hexagon
418.0,4.0,4.0,0.0,3.0,3.0,331.4761139999973,4.0,1.0,phase_1,,,,,,,,,,,,,cyan,hexagon
175.0,7.0,2.0,1.0,4.0,4.0,377.9982649998601,4.0,1.0,phase_1,,,,,,,,,,,,,yellow,triangle
398.0,4.0,4.0,0.0,1.0,1.0,495.4131669996968,4.0,1.0,phase_1,,,,,,,,,,,,,cyan,hexagon
186.0,3.0,2.0,0.0,2.0,2.0,432.6001449999239,4.0,1.0,phase_1,,,,,,,,,,,,,green,diamond
52.0,5.0,0.5,1.0,1.0,1.0,363.6607799999183,4.0,1.0,phase_1,,,,,,,,,,,,,blue,I
66.0,5.0,0.5,1.0,4.0,4.0,518.5106919998361,4.0,1.0,phase_1,,,,,,,,,,,,,blue,I
88.0,2.0,1.0,0.0,1.0,1.0,440.111232000163,4.0,1.0,phase_1,,,,,,,,,,,,,orange,cross
0.0,6.0,0.0,1.0,3.0,3.0,350.0400949997129,4.0,1.0,phase_1,,,,,,,,,,,,,white,square
69.0,1.0,0.5,0.0,3.0,3.0,415.7274509998387,4.0,1.0,phase_1,,,,,,,,,,,,,gray,circle
0.0,8.0,0.0,1.0,4.0,4.0,341.7613950000486,4.0,1.0,phase_1,,,,,,,,,,,,,magenta,flipped triangle
415.0,4.0,4.0,0.0,2.0,2.0,386.5715040001305,4.0,1.0,phase_1,,,,,,,,,,,,,cyan,hexagon
51.0,5.0,0.5,1.0,4.0,4.0,362.3210290002134,4.0,1.0,phase_1,,,,,,,,,,,,,blue,I
61.0,5.0,0.5,1.0,1.0,1.0,392.2746030002599,4.0,1.0,phase_1,,,,,,,,,,,,,blue,I
88.0,6.0,1.0,1.0,2.0,2.0,611.5082609999263,4.0,1.0,phase_1,,,,,,,,,,,,,white,square
36.0,5.0,0.5,1.0,4.0,4.0,631.8628949998129,4.0,1.0,phase_1,,,,,,,,,,,,,blue,I
395.0,8.0,4.0,1.0,4.0,4.0,662.0584810002583,4.0,1.0,phase_1,,,,,,,,,,,,,magenta,flipped triangle
36.0,1.0,0.5,0.0,2.0,2.0,415.89009500012247,4.0,1.0,phase_1,,,,,,,,,,,,,gray,circle
120.0,6.0,1.0,1.0,1.0,1.0,398.7044220002644,4.0,1.0,phase_1,,,,,,,,,,,,,white,square
206.0,3.0,2.0,0.0,3.0,3.0,458.2040670002243,4.0,1.0,phase_1,,,,,,,,,,,,,green,diamond
48.0,5.0,0.5,1.0,3.0,3.0,460.5477109998901,4.0,1.0,phase_1,,,,,,,,,,,,,blue,I
48.0,1.0,0.5,0.0,2.0,2.0,409.1708079999989,4.0,1.0,phase_1,,,,,,,,,,,,,gray,circle
88.0,2.0,1.0,0.0,2.0,2.0,438.051722000182,4.0,1.0,phase_1,,,,,,,,,,,,,orange,cross
102.0,6.0,1.0,1.0,2.0,2.0,415.1291799998944,4.0,1.0,phase_1,,,,,,,,,,,,,white,square
218.0,7.0,2.0,1.0,1.0,1.0,383.5623029999624,4.0,1.0,phase_1,,,,,,,,,,,,,yellow,triangle
218.0,3.0,2.0,0.0,4.0,4.0,391.6361169999618,4.0,2.0,phase_1,,,,,,,,,,,,,green,diamond
31.0,5.0,0.5,1.0,2.0,2.0,408.1194820000746,4.0,1.0,phase_1,,,,,,,,,,,,,blue,I
96.0,6.0,1.0,1.0,3.0,3.0,457.377555000221,4.0,1.0,phase_1,,,,,,,,,,,,,white,square
110.0,6.0,1.0,1.0,1.0,1.0,432.0075870000437,4.0,1.0,phase_1,,,,,,,,,,,,,white,square
0.0,7.0,0.0,1.0,2.0,2.0,430.2408839998861,4.0,1.0,phase_1,,,,,,,,,,,,,yellow,triangle
218.0,3.0,2.0,0.0,4.0,4.0,552.1280970001499,4.0,1.0,phase_1,,,,,,,,,,,,,green,diamond
0.0,4.0,0.0,0.0,2.0,2.0,423.0099630003678,4.0,1.0,phase_1,,,,,,,,,,,,,cyan,hexagon
383.0,8.0,4.0,1.0,4.0,4.0,496.2598429997342,4.0,1.0,phase_1,,,,,,,,,,,,,magenta,flipped triangle
0.0,5.0,0.0,1.0,4.0,4.0,388.2321589999264,4.0,1.0,phase_1,,,,,,,,,,,,,blue,I
179.0,7.0,2.0,1.0,4.0,4.0,408.1199689999266,4.0,1.0,phase_1,,,,,,,,,,,,,yellow,triangle
212.0,7.0,2.0,1.0,4.0,4.0,311.167585000021,4.0,1.0,phase_1,,,,,,,,,,,,,yellow,triangle
39.0,5.0,0.5,1.0,2.0,2.0,340.4734300002019,4.0,1.0,phase_1,,,,,,,,,,,,,blue,I
378.0,8.0,4.0,1.0,4.0,4.0,356.74927700029,4.0,1.0,phase_1,,,,,,,,,,,,,magenta,flipped triangle
410.0,4.0,4.0,0.0,1.0,1.0,400.4857899999479,4.0,1.0,phase_1,,,,,,,,,,,,,cyan,hexagon
179.0,3.0,2.0,0.0,2.0,2.0,366.6743410003619,4.0,1.0,phase_1,,,,,,,,,,,,,green,diamond
193.0,7.0,2.0,1.0,3.0,3.0,392.4711629997546,4.0,1.0,phase_1,,,,,,,,,,,,,yellow,triangle
0.0,6.0,1.0,1.0,5.0,5.0,567.2321970000667,1.0,1.0,phase_2,go,250.0,250.0,1.0,,,,,,,,,white,square
0.0,1.0,0.5,0.0,5.0,5.0,622.1080109999093,1.0,1.0,phase_2,go,250.0,250.0,1.0,,,,,,,,,gray,circle
0.0,7.0,2.0,1.0,6.0,6.0,542.6480370001627,1.0,1.0,phase_2,stop,250.0,250.0,3.0,,,,,,,,,yellow,triangle
0.0,2.0,1.0,0.0,5.0,5.0,639.1480830002365,1.0,1.0,phase_2,go,250.0,200.0,1.0,,,,,,,,,orange,cross
0.0,4.0,4.0,0.0,5.0,5.0,648.0577500001345,1.0,1.0,phase_2,go,250.0,200.0,1.0,,,,,,,,,cyan,hexagon
0.0,8.0,4.0,1.0,6.0,6.0,751.2504480000644,1.0,1.0,phase_2,go,250.0,200.0,1.0,,,,,,,,,magenta,flipped triangle
0.0,8.0,4.0,1.0,5.0,0.0,0.0,1.0,1.0,phase_2,stop,250.0,200.0,4.0,,,,,,,,,magenta,flipped triangle
0.0,6.0,1.0,1.0,6.0,0.0,0.0,1.0,1.0,phase_2,stop,300.0,200.0,4.0,,,,,,,,,white,square
0.0,3.0,2.0,0.0,5.0,5.0,550.7487140002922,1.0,1.0,phase_2,go,300.0,250.0,1.0,,,,,,,,,green,diamond
0.0,8.0,4.0,1.0,5.0,0.0,0.0,1.0,1.0,phase_2,stop,300.0,250.0,4.0,,,,,,,,,magenta,flipped triangle
0.0,5.0,0.5,1.0,6.0,0.0,0.0,1.0,1.0,phase_2,stop,350.0,250.0,4.0,,,,,,,,,blue,I
0.0,7.0,2.0,1.0,5.0,0.0,0.0,1.0,1.0,phase_2,stop,350.0,300.0,4.0,,,,,,,,,yellow,triangle
0.0,2.0,1.0,0.0,6.0,6.0,930.0133570000072,1.0,1.0,phase_2,go,400.0,300.0,1.0,,,,,,,,,orange,cross
0.0,5.0,0.5,1.0,6.0,0.0,0.0,1.0,1.0,phase_2,stop,400.0,300.0,4.0,,,,,,,,,blue,I
0.0,7.0,2.0,1.0,5.0,0.0,0.0,1.0,1.0,phase_2,stop,400.0,350.0,4.0,,,,,,,,,yellow,triangle
0.0,1.0,0.5,0.0,5.0,5.0,1476.6549269997995,1.0,1.0,phase_2,go,450.0,350.0,1.0,,,,,,,,,gray,circle
0.0,8.0,4.0,1.0,6.0,6.0,958.084491000136,1.0,1.0,phase_2,go,450.0,350.0,1.0,,,,,,,,,magenta,flipped triangle
0.0,7.0,2.0,1.0,5.0,0.0,0.0,1.0,1.0,phase_2,stop,450.0,350.0,4.0,,,,,,,,,yellow,triangle
0.0,4.0,4.0,0.0,6.0,6.0,873.533234000206,1.0,1.0,phase_2,go,500.0,350.0,1.0,,,,,,,,,cyan,hexagon
0.0,4.0,4.0,0.0,6.0,6.0,922.5933940001596,1.0,1.0,phase_2,go,500.0,350.0,1.0,,,,,,,,,cyan,hexagon
0.0,6.0,1.0,1.0,5.0,5.0,1028.6588590001884,1.0,1.0,phase_2,go,500.0,350.0,1.0,,,,,,,,,white,square
0.0,8.0,4.0,1.0,5.0,0.0,0.0,1.0,1.0,phase_2,stop,500.0,350.0,4.0,,,,,,,,,magenta,flipped triangle
0.0,7.0,2.0,1.0,6.0,6.0,1083.0569450004075,1.0,1.0,phase_2,go,550.0,350.0,1.0,,,,,,,,,yellow,triangle
0.0,6.0,1.0,1.0,6.0,0.0,0.0,1.0,1.0,phase_2,stop,550.0,350.0,4.0,,,,,,,,,white,square
0.0,7.0,2.0,1.0,5.0,0.0,0.0,1.0,1.0,phase_2,stop,550.0,400.0,4.0,,,,,,,,,yellow,triangle
0.0,4.0,4.0,0.0,5.0,5.0,862.0577289998437,1.0,1.0,phase_2,go,600.0,400.0,1.0,,,,,,,,,cyan,hexagon
0.0,2.0,1.0,0.0,6.0,6.0,1055.6510860001254,1.0,1.0,phase_2,go,600.0,400.0,1.0,,,,,,,,,orange,cross
0.0,7.0,2.0,1.0,6.0,0.0,0.0,1.0,1.0,phase_2,stop,600.0,400.0,4.0,,,,,,,,,yellow,triangle
0.0,6.0,1.0,1.0,6.0,0.0,0.0,1.0,1.0,phase_2,stop,600.0,450.0,4.0,,,,,,,,,white,square
0.0,1.0,0.5,0.0,6.0,6.0,850.6114130000242,1.0,1.0,phase_2,go,600.0,500.0,1.0,,,,,,,,,gray,circle
0.0,6.0,1.0,1.0,6.0,0.0,0.0,1.0,1.0,phase_2,stop,600.0,500.0,4.0,,,,,,,,,white,square
0.0,4.0,4.0,0.0,6.0,6.0,860.7515109997621,1.0,1.0,phase_2,go,600.0,550.0,1.0,,,,,,,,,cyan,hexagon
0.0,1.0,0.5,0.0,5.0,5.0,1015.8484569997199,1.0,1.0,phase_2,go,600.0,550.0,1.0,,,,,,,,,gray,circle
0.0,8.0,4.0,1.0,6.0,6.0,761.5002689999528,1.0,1.0,phase_2,stop,600.0,550.0,3.0,,,,,,,,,magenta,flipped triangle
0.0,8.0,4.0,1.0,5.0,0.0,0.0,1.0,1.0,phase_2,stop,600.0,500.0,4.0,,,,,,,,,magenta,flipped triangle
0.0,8.0,4.0,1.0,5.0,0.0,0.0,1.0,1.0,phase_2,stop,650.0,500.0,4.0,,,,,,,,,magenta,flipped triangle
0.0,1.0,0.5,0.0,5.0,5.0,517.7920189998986,2.0,1.0,phase_2,go,700.0,500.0,1.0,,,,,,,,,gray,circle
0.0,4.0,4.0,0.0,5.0,5.0,495.6262900000183,2.0,1.0,phase_2,go,700.0,500.0,1.0,,,,,,,,,cyan,hexagon
0.0,3.0,2.0,0.0,5.0,5.0,552.6046949999,2.0,1.0,phase_2,go,700.0,500.0,1.0,,,,,,,,,green,diamond
0.0,1.0,0.5,0.0,6.0,6.0,612.8974319999543,2.0,1.0,phase_2,go,700.0,500.0,1.0,,,,,,,,,gray,circle
0.0,5.0,0.5,1.0,5.0,5.0,595.713822000107,2.0,1.0,phase_2,stop,700.0,500.0,3.0,,,,,,,,,blue,I
0.0,1.0,0.5,0.0,5.0,5.0,752.601433000109,2.0,1.0,phase_2,go,650.0,500.0,1.0,,,,,,,,,gray,circle
0.0,2.0,1.0,0.0,5.0,5.0,707.4997350000558,2.0,1.0,phase_2,go,650.0,500.0,1.0,,,,,,,,,orange,cross
0.0,2.0,1.0,0.0,6.0,6.0,608.9188369996918,2.0,1.0,phase_2,go,650.0,500.0,1.0,,,,,,,,,orange,cross
0.0,3.0,2.0,0.0,5.0,5.0,730.3081800000655,2.0,1.0,phase_2,go,650.0,500.0,1.0,,,,,,,,,green,diamond
0.0,7.0,2.0,1.0,5.0,5.0,843.5064089999287,2.0,1.0,phase_2,go,650.0,500.0,1.0,,,,,,,,,yellow,triangle
0.0,8.0,4.0,1.0,5.0,5.0,701.6086799999357,2.0,1.0,phase_2,stop,650.0,500.0,3.0,,,,,,,,,magenta,flipped triangle
0.0,5.0,0.5,1.0,6.0,0.0,0.0,2.0,1.0,phase_2,stop,600.0,500.0,4.0,,,,,,,,,blue,I
0.0,5.0,0.5,1.0,5.0,5.0,632.4542819997987,2.0,1.0,phase_2,stop,600.0,550.0,3.0,,,,,,,,,blue,I
0.0,2.0,1.0,0.0,5.0,5.0,649.323939000169,2.0,1.0,phase_2,go,550.0,550.0,1.0,,,,,,,,,orange,cross
0.0,5.0,0.5,1.0,5.0,5.0,868.4436839998853,2.0,1.0,phase_2,go,550.0,550.0,1.0,,,,,,,,,blue,I
0.0,6.0,1.0,1.0,6.0,6.0,672.4546010000267,2.0,1.0,phase_2,stop,550.0,550.0,3.0,,,,,,,,,white,square
0.0,6.0,1.0,1.0,5.0,5.0,728.7059139998746,2.0,1.0,phase_2,stop,550.0,500.0,3.0,,,,,,,,,white,square
0.0,4.0,4.0,0.0,6.0,6.0,775.8595780001087,2.0,1.0,phase_2,go,500.0,500.0,1.0,,,,,,,,,cyan,hexagon
0.0,7.0,2.0,1.0,5.0,0.0,0.0,2.0,1.0,phase_2,stop,500.0,500.0,4.0,,,,,,,,,yellow,triangle
0.0,8.0,4.0,1.0,6.0,0.0,0.0,2.0,1.0,phase_2,stop,550.0,500.0,4.0,,,,,,,,,magenta,flipped triangle
0.0,5.0,0.5,1.0,6.0,6.0,650.9941230001459,2.0,1.0,phase_2,stop,550.0,550.0,3.0,,,,,,,,,blue,I
0.0,8.0,4.0,1.0,6.0,6.0,863.4787519999918,2.0,1.0,phase_2,go,550.0,500.0,1.0,,,,,,,,,magenta,flipped triangle
0.0,1.0,0.5,0.0,6.0,6.0,803.6404090003089,2.0,1.0,phase_2,go,550.0,500.0,1.0,,,,,,,,,gray,circle
0.0,5.0,0.5,1.0,5.0,0.0,0.0,2.0,1.0,phase_2,stop,550.0,500.0,4.0,,,,,,,,,blue,I
0.0,4.0,4.0,0.0,6.0,6.0,602.1742140001152,2.0,1.0,phase_2,go,600.0,500.0,1.0,,,,,,,,,cyan,hexagon
0.0,1.0,0.5,0.0,5.0,5.0,444.8731269999371,2.0,1.0,phase_2,go,600.0,500.0,1.0,,,,,,,,,gray,circle
0.0,5.0,0.5,1.0,6.0,6.0,664.9524130002646,2.0,1.0,phase_2,stop,600.0,500.0,3.0,,,,,,,,,blue,I
0.0,4.0,4.0,0.0,5.0,5.0,796.10708600012,2.0,1.0,phase_2,go,600.0,450.0,1.0,,,,,,,,,cyan,hexagon
0.0,3.0,2.0,0.0,6.0,6.0,979.82223300005,2.0,1.0,phase_2,go,600.0,450.0,1.0,,,,,,,,,green,diamond
0.0,1.0,0.5,0.0,6.0,6.0,752.818464000029,2.0,1.0,phase_2,go,600.0,450.0,1.0,,,,,,,,,gray,circle
0.0,1.0,0.5,0.0,6.0,6.0,584.4063019999339,2.0,1.0,phase_2,go,600.0,450.0,1.0,,,,,,,,,gray,circle
0.0,8.0,4.0,1.0,6.0,0.0,0.0,2.0,1.0,phase_2,stop,600.0,450.0,4.0,,,,,,,,,magenta,flipped triangle
0.0,7.0,2.0,1.0,5.0,5.0,718.6324900003456,2.0,1.0,phase_2,go,600.0,500.0,1.0,,,,,,,,,yellow,triangle
0.0,1.0,0.5,0.0,5.0,5.0,776.3697250002224,2.0,1.0,phase_2,go,600.0,500.0,1.0,,,,,,,,,gray,circle
0.0,3.0,2.0,0.0,6.0,6.0,462.4115630003871,2.0,1.0,phase_2,go,600.0,500.0,1.0,,,,,,,,,green,diamond
0.0,3.0,2.0,0.0,6.0,6.0,448.0077850002999,2.0,1.0,phase_2,go,600.0,500.0,1.0,,,,,,,,,green,diamond
0.0,1.0,0.5,0.0,6.0,6.0,356.848756999625,3.0,1.0,phase_2,go,600.0,500.0,1.0,,,,,,,,,gray,circle
0.0,4.0,4.0,0.0,5.0,5.0,330.3092510000169,3.0,1.0,phase_2,go,600.0,500.0,1.0,,,,,,,,,cyan,hexagon
0.0,6.0,1.0,1.0,5.0,5.0,319.2316650001885,3.0,1.0,phase_2,go,600.0,500.0,1.0,,,,,,,,,white,square
0.0,6.0,1.0,1.0,5.0,5.0,486.2878089998048,3.0,1.0,phase_2,stop,600.0,500.0,3.0,,,,,,,,,white,square
0.0,5.0,0.5,1.0,6.0,6.0,600.5848980003066,3.0,1.0,phase_2,stop,550.0,500.0,3.0,,,,,,,,,blue,I
0.0,8.0,4.0,1.0,5.0,5.0,710.5772859999888,3.0,1.0,phase_2,go,550.0,450.0,1.0,,,,,,,,,magenta,flipped triangle
0.0,6.0,1.0,1.0,5.0,5.0,383.0376430000797,3.0,1.0,phase_2,stop,550.0,450.0,3.0,,,,,,,,,white,square
0.0,2.0,1.0,0.0,5.0,5.0,307.2900010001831,3.0,1.0,phase_2,go,500.0,450.0,1.0,,,,,,,,,orange,cross
0.0,3.0,2.0,0.0,5.0,5.0,513.3971109999038,3.0,1.0,phase_2,go,500.0,450.0,1.0,,,,,,,,,green,diamond
0.0,3.0,2.0,0.0,5.0,5.0,654.595715999676,3.0,1.0,phase_2,go,500.0,450.0,1.0,,,,,,,,,green,diamond
0.0,1.0,0.5,0.0,5.0,5.0,524.618935000035,3.0,1.0,phase_2,go,500.0,450.0,1.0,,,,,,,,,gray,circle
0.0,6.0,1.0,1.0,5.0,5.0,447.4839959998462,3.0,1.0,phase_2,go,500.0,450.0,1.0,,,,,,,,,white,square
0.0,8.0,4.0,1.0,6.0,6.0,343.0432850000215,3.0,1.0,phase_2,stop,500.0,450.0,3.0,,,,,,,,,magenta,flipped triangle
0.0,8.0,4.0,1.0,6.0,6.0,567.7445940000325,3.0,1.0,phase_2,stop,500.0,400.0,3.0,,,,,,,,,magenta,flipped triangle
0.0,3.0,2.0,0.0,6.0,6.0,614.8710369998298,3.0,1.0,phase_2,go,500.0,350.0,1.0,,,,,,,,,green,diamond
0.0,5.0,0.5,1.0,5.0,5.0,614.9121610001202,3.0,1.0,phase_2,stop,500.0,350.0,3.0,,,,,,,,,blue,I
0.0,7.0,2.0,1.0,6.0,0.0,0.0,3.0,1.0,phase_2,stop,450.0,350.0,4.0,,,,,,,,,yellow,triangle
0.0,5.0,0.5,1.0,5.0,5.0,520.3277249997882,3.0,1.0,phase_2,stop,450.0,400.0,3.0,,,,,,,,,blue,I
0.0,4.0,4.0,0.0,5.0,5.0,487.7582220001386,3.0,1.0,phase_2,go,400.0,400.0,1.0,,,,,,,,,cyan,hexagon
0.0,1.0,0.5,0.0,5.0,5.0,303.3968999998251,3.0,1.0,phase_2,go,400.0,400.0,1.0,,,,,,,,,gray,circle
0.0,6.0,1.0,1.0,6.0,6.0,379.5673399999941,3.0,1.0,phase_2,stop,400.0,400.0,3.0,,,,,,,,,white,square
0.0,3.0,2.0,0.0,5.0,5.0,607.2882290000052,3.0,1.0,phase_2,go,400.0,350.0,1.0,,,,,,,,,green,diamond
0.0,4.0,4.0,0.0,5.0,5.0,719.2008920001172,3.0,1.0,phase_2,go,400.0,350.0,1.0,,,,,,,,,cyan,hexagon
0.0,6.0,1.0,1.0,6.0,6.0,240.9460379999473,3.0,1.0,phase_2,stop,400.0,350.0,3.0,,,,,,,,,white,square
0.0,2.0,1.0,0.0,6.0,6.0,551.7430660001992,3.0,1.0,phase_2,go,400.0,300.0,1.0,,,,,,,,,orange,cross
0.0,2.0,1.0,0.0,6.0,6.0,587.9992019999918,3.0,1.0,phase_2,go,400.0,300.0,1.0,,,,,,,,,orange,cross
0.0,3.0,2.0,0.0,6.0,6.0,614.1228610003964,3.0,1.0,phase_2,go,400.0,300.0,1.0,,,,,,,,,green,diamond
0.0,3.0,2.0,0.0,5.0,5.0,470.5651480003325,3.0,1.0,phase_2,go,400.0,300.0,1.0,,,,,,,,,green,diamond
0.0,4.0,4.0,0.0,5.0,5.0,348.5015549999843,3.0,1.0,phase_2,go,400.0,300.0,1.0,,,,,,,,,cyan,hexagon
0.0,6.0,1.0,1.0,5.0,5.0,541.9843590002529,3.0,1.0,phase_2,go,400.0,300.0,1.0,,,,,,,,,white,square
0.0,4.0,4.0,0.0,6.0,6.0,451.0874479997255,3.0,1.0,phase_2,go,400.0,300.0,1.0,,,,,,,,,cyan,hexagon
0.0,7.0,2.0,1.0,6.0,6.0,337.4723890001405,3.0,1.0,phase_2,stop,400.0,300.0,3.0,,,,,,,,,yellow,triangle
0.0,4.0,4.0,0.0,5.0,5.0,605.9227670002656,3.0,1.0,phase_2,go,400.0,250.0,1.0,,,,,,,,,cyan,hexagon
0.0,2.0,1.0,0.0,6.0,6.0,467.8871569999501,3.0,1.0,phase_2,go,400.0,250.0,1.0,,,,,,,,,orange,cross
0.0,8.0,4.0,1.0,5.0,5.0,313.5914630001934,3.0,1.0,phase_2,stop,400.0,250.0,3.0,,,,,,,,,magenta,flipped triangle
0.0,8.0,4.0,1.0,6.0,0.0,0.0,3.0,1.0,phase_2,stop,350.0,250.0,4.0,,,,,,,,,magenta,flipped triangle
0.0,2.0,1.0,0.0,5.0,5.0,356.1632780001673,4.0,1.0,phase_2,go,350.0,300.0,1.0,,,,,,,,,orange,cross
0.0,3.0,2.0,0.0,5.0,5.0,382.5083649999214,4.0,1.0,phase_2,go,350.0,300.0,1.0,,,,,,,,,green,diamond
0.0,7.0,2.0,1.0,5.0,5.0,489.4065619996581,4.0,1.0,phase_2,stop,350.0,300.0,3.0,,,,,,,,,yellow,triangle
0.0,1.0,0.5,0.0,6.0,6.0,571.5273710002293,4.0,1.0,phase_2,go,300.0,300.0,1.0,,,,,,,,,gray,circle
0.0,8.0,4.0,1.0,6.0,6.0,490.3704270000162,4.0,1.0,phase_2,stop,300.0,300.0,3.0,,,,,,,,,magenta,flipped triangle
0.0,5.0,0.5,1.0,6.0,0.0,0.0,4.0,1.0,phase_2,stop,300.0,250.0,4.0,,,,,,,,,blue,I
0.0,8.0,4.0,1.0,5.0,5.0,337.1961500001816,4.0,1.0,phase_2,stop,300.0,300.0,3.0,,,,,,,,,magenta,flipped triangle
0.0,8.0,4.0,1.0,6.0,6.0,698.8193030001639,4.0,1.0,phase_2,go,250.0,300.0,1.0,,,,,,,,,magenta,flipped triangle
0.0,1.0,0.5,0.0,6.0,6.0,578.5630059999676,4.0,1.0,phase_2,go,250.0,300.0,1.0,,,,,,,,,gray,circle
0.0,5.0,0.5,1.0,5.0,5.0,340.5669090002448,4.0,1.0,phase_2,stop,250.0,300.0,3.0,,,,,,,,,blue,I
0.0,3.0,2.0,0.0,5.0,5.0,621.5391109999473,4.0,1.0,phase_2,go,200.0,300.0,1.0,,,,,,,,,green,diamond
0.0,3.0,2.0,0.0,6.0,6.0,423.3557079996899,4.0,1.0,phase_2,go,200.0,300.0,1.0,,,,,,,,,green,diamond
0.0,7.0,2.0,1.0,5.0,5.0,522.0541690000573,4.0,1.0,phase_2,go,200.0,300.0,1.0,,,,,,,,,yellow,triangle
0.0,6.0,1.0,1.0,5.0,5.0,353.2864220001102,4.0,1.0,phase_2,stop,200.0,300.0,3.0,,,,,,,,,white,square
0.0,2.0,1.0,0.0,5.0,5.0,620.6097939998472,4.0,1.0,phase_2,go,150.0,300.0,1.0,,,,,,,,,orange,cross
0.0,2.0,1.0,0.0,5.0,5.0,527.6447870000993,4.0,1.0,phase_2,go,150.0,300.0,1.0,,,,,,,,,orange,cross
0.0,3.0,2.0,0.0,5.0,5.0,663.2971960002578,4.0,1.0,phase_2,go,150.0,300.0,1.0,,,,,,,,,green,diamond
0.0,7.0,2.0,1.0,6.0,0.0,0.0,4.0,1.0,phase_2,stop,150.0,300.0,4.0,,,,,,,,,yellow,triangle
0.0,3.0,2.0,0.0,6.0,6.0,564.372528000149,4.0,1.0,phase_2,go,150.0,350.0,1.0,,,,,,,,,green,diamond
0.0,1.0,0.5,0.0,6.0,6.0,384.438795999813,4.0,1.0,phase_2,go,150.0,350.0,1.0,,,,,,,,,gray,circle
0.0,2.0,1.0,0.0,6.0,6.0,388.2506690001719,4.0,1.0,phase_2,go,150.0,350.0,1.0,,,,,,,,,orange,cross
0.0,5.0,0.5,1.0,5.0,5.0,532.6518009997017,4.0,1.0,phase_2,go,150.0,350.0,1.0,,,,,,,,,blue,I
0.0,7.0,2.0,1.0,6.0,0.0,0.0,4.0,1.0,phase_2,stop,150.0,350.0,4.0,,,,,,,,,yellow,triangle
0.0,7.0,2.0,1.0,6.0,0.0,0.0,4.0,1.0,phase_2,stop,150.0,400.0,4.0,,,,,,,,,yellow,triangle
0.0,2.0,1.0,0.0,5.0,5.0,366.7288749998079,4.0,1.0,phase_2,go,150.0,450.0,1.0,,,,,,,,,orange,cross
0.0,2.0,1.0,0.0,6.0,6.0,306.7390250002972,4.0,1.0,phase_2,go,150.0,450.0,1.0,,,,,,,,,orange,cross
0.0,8.0,4.0,1.0,5.0,5.0,475.2049029998488,4.0,1.0,phase_2,go,150.0,450.0,1.0,,,,,,,,,magenta,flipped triangle
0.0,5.0,0.5,1.0,6.0,6.0,487.0474029999059,4.0,1.0,phase_2,stop,150.0,450.0,3.0,,,,,,,,,blue,I
0.0,2.0,1.0,0.0,5.0,5.0,311.7791390000093,4.0,1.0,phase_2,go,150.0,400.0,1.0,,,,,,,,,orange,cross
0.0,6.0,1.0,1.0,6.0,0.0,0.0,4.0,1.0,phase_2,stop,150.0,400.0,4.0,,,,,,,,,white,square
0.0,3.0,2.0,0.0,5.0,5.0,563.2281089997377,4.0,1.0,phase_2,go,150.0,450.0,1.0,,,,,,,,,green,diamond
0.0,7.0,2.0,1.0,6.0,6.0,520.5171689999588,4.0,1.0,phase_2,go,150.0,450.0,1.0,,,,,,,,,yellow,triangle
0.0,2.0,1.0,0.0,6.0,6.0,288.2258230001753,4.0,1.0,phase_2,go,150.0,450.0,1.0,,,,,,,,,orange,cross
0.0,7.0,2.0,1.0,5.0,5.0,331.4851000000089,4.0,1.0,phase_2,stop,150.0,450.0,3.0,,,,,,,,,yellow,triangle
0.0,1.0,0.5,0.0,6.0,6.0,613.4724660000757,4.0,1.0,phase_2,go,100.0,450.0,1.0,,,,,,,,,gray,circle
0.0,5.0,0.5,1.0,6.0,6.0,319.9772200000552,4.0,1.0,phase_2,stop,100.0,450.0,3.0,,,,,,,,,blue,I
0.0,4.0,4.0,0.0,5.0,5.0,304.502188999777,5.0,1.0,phase_2,go,100.0,400.0,1.0,,,,,,,,,cyan,hexagon
0.0,8.0,4.0,1.0,6.0,6.0,441.0733230001824,5.0,1.0,phase_2,stop,100.0,400.0,3.0,,,,,,,,,magenta,flipped triangle
0.0,6.0,1.0,1.0,6.0,6.0,315.7053549998636,5.0,1.0,phase_2,stop,100.0,350.0,3.0,,,,,,,,,white,square
0.0,7.0,2.0,1.0,5.0,0.0,0.0,5.0,1.0,phase_2,stop,100.0,300.0,4.0,,,,,,,,,yellow,triangle
0.0,2.0,1.0,0.0,5.0,5.0,351.7827939999733,5.0,1.0,phase_2,go,150.0,300.0,1.0,,,,,,,,,orange,cross
0.0,3.0,2.0,0.0,5.0,5.0,320.5121209998651,5.0,1.0,phase_2,go,150.0,300.0,1.0,,,,,,,,,green,diamond
0.0,2.0,1.0,0.0,6.0,6.0,448.5049410000101,5.0,1.0,phase_2,go,150.0,300.0,1.0,,,,,,,,,orange,cross
0.0,6.0,1.0,1.0,5.0,0.0,0.0,5.0,1.0,phase_2,stop,150.0,300.0,4.0,,,,,,,,,white,square
0.0,1.0,0.5,0.0,6.0,6.0,374.9531939997723,5.0,1.0,phase_2,go,200.0,300.0,1.0,,,,,,,,,gray,circle
0.0,5.0,0.5,1.0,5.0,5.0,495.6769460000032,5.0,1.0,phase_2,go,200.0,300.0,1.0,,,,,,,,,blue,I
0.0,2.0,1.0,0.0,5.0,5.0,546.7185120000977,5.0,1.0,phase_2,go,200.0,300.0,1.0,,,,,,,,,orange,cross
0.0,4.0,4.0,0.0,6.0,6.0,529.8819289996572,5.0,1.0,phase_2,go,200.0,300.0,1.0,,,,,,,,,cyan,hexagon
0.0,8.0,4.0,1.0,5.0,0.0,0.0,5.0,1.0,phase_2,stop,200.0,300.0,4.0,,,,,,,,,magenta,flipped triangle
0.0,5.0,0.5,1.0,5.0,0.0,0.0,5.0,1.0,phase_2,stop,250.0,300.0,4.0,,,,,,,,,blue,I
0.0,3.0,2.0,0.0,6.0,6.0,505.91904800012344,5.0,1.0,phase_2,go,300.0,300.0,1.0,,,,,,,,,green,diamond
0.0,2.0,1.0,0.0,6.0,6.0,518.9217380002447,5.0,1.0,phase_2,go,300.0,300.0,1.0,,,,,,,,,orange,cross
0.0,2.0,1.0,0.0,5.0,5.0,611.7585099996177,5.0,1.0,phase_2,go,300.0,300.0,1.0,,,,,,,,,orange,cross
0.0,1.0,0.5,0.0,6.0,6.0,597.5924650001616,5.0,1.0,phase_2,go,300.0,300.0,1.0,,,,,,,,,gray,circle
0.0,7.0,2.0,1.0,6.0,0.0,0.0,5.0,1.0,phase_2,stop,300.0,300.0,4.0,,,,,,,,,yellow,triangle
0.0,7.0,2.0,1.0,5.0,5.0,478.2331419996808,5.0,1.0,phase_2,stop,300.0,350.0,3.0,,,,,,,,,yellow,triangle
0.0,7.0,2.0,1.0,5.0,0.0,0.0,5.0,1.0,phase_2,stop,250.0,350.0,4.0,,,,,,,,,yellow,triangle
0.0,4.0,4.0,0.0,6.0,6.0,594.2842059998839,5.0,1.0,phase_2,go,300.0,350.0,1.0,,,,,,,,,cyan,hexagon
0.0,3.0,2.0,0.0,5.0,5.0,780.9018170000854,5.0,1.0,phase_2,go,300.0,350.0,1.0,,,,,,,,,green,diamond
0.0,2.0,1.0,0.0,6.0,6.0,687.1263889997863,5.0,1.0,phase_2,go,300.0,350.0,1.0,,,,,,,,,orange,cross
0.0,1.0,0.5,0.0,5.0,5.0,777.8109569999287,5.0,1.0,phase_2,go,300.0,350.0,1.0,,,,,,,,,gray,circle
0.0,7.0,2.0,1.0,6.0,0.0,0.0,5.0,1.0,phase_2,stop,300.0,350.0,4.0,,,,,,,,,yellow,triangle
0.0,1.0,0.5,0.0,6.0,6.0,383.0269480004062,5.0,1.0,phase_2,go,300.0,400.0,1.0,,,,,,,,,gray,circle
0.0,2.0,1.0,0.0,6.0,6.0,395.1242729999649,5.0,1.0,phase_2,go,300.0,400.0,1.0,,,,,,,,,orange,cross
0.0,4.0,4.0,0.0,6.0,6.0,353.2383279998612,5.0,1.0,phase_2,go,300.0,400.0,1.0,,,,,,,,,cyan,hexagon
0.0,8.0,4.0,1.0,5.0,0.0,0.0,5.0,1.0,phase_2,stop,300.0,400.0,4.0,,,,,,,,,magenta,flipped triangle
0.0,3.0,2.0,0.0,6.0,6.0,547.6266300001953,5.0,1.0,phase_2,go,350.0,400.0,1.0,,,,,,,,,green,diamond
0.0,3.0,2.0,0.0,5.0,5.0,613.6351079999258,5.0,1.0,phase_2,go,350.0,400.0,1.0,,,,,,,,,green,diamond
0.0,7.0,2.0,1.0,5.0,5.0,612.8878990002704,5.0,1.0,phase_2,go,350.0,400.0,1.0,,,,,,,,,yellow,triangle
0.0,2.0,1.0,0.0,5.0,5.0,562.978689999909,5.0,1.0,phase_2,go,350.0,400.0,1.0,,,,,,,,,orange,cross
0.0,1.0,0.5,0.0,5.0,5.0,554.6275449996756,5.0,1.0,phase_2,go,350.0,400.0,1.0,,,,,,,,,gray,circle
0.0,8.0,4.0,1.0,5.0,0.0,0.0,5.0,1.0,phase_2,stop,350.0,400.0,4.0,,,,,,,,,magenta,flipped triangle
0.0,4.0,4.0,0.0,5.0,5.0,343.2941370001572,6.0,1.0,phase_2,go,400.0,400.0,1.0,,,,,,,,,cyan,hexagon
0.0,4.0,4.0,0.0,5.0,5.0,257.3262559999421,6.0,1.0,phase_2,go,400.0,400.0,1.0,,,,,,,,,cyan,hexagon
0.0,7.0,2.0,1.0,6.0,6.0,264.279980000083,6.0,1.0,phase_2,stop,400.0,400.0,3.0,,,,,,,,,yellow,triangle
0.0,1.0,0.5,0.0,6.0,6.0,426.1953340001128,6.0,1.0,phase_2,go,400.0,350.0,1.0,,,,,,,,,gray,circle
0.0,8.0,4.0,1.0,6.0,6.0,459.8526509998919,6.0,1.0,phase_2,stop,400.0,350.0,3.0,,,,,,,,,magenta,flipped triangle
0.0,7.0,2.0,1.0,6.0,6.0,500.50539900030344,6.0,1.0,phase_2,stop,400.0,300.0,3.0,,,,,,,,,yellow,triangle
0.0,1.0,0.5,0.0,5.0,5.0,401.9440259999101,6.0,1.0,phase_2,go,400.0,250.0,1.0,,,,,,,,,gray,circle
0.0,7.0,2.0,1.0,5.0,5.0,450.5439869999463,6.0,1.0,phase_2,stop,400.0,250.0,3.0,,,,,,,,,yellow,triangle
0.0,4.0,4.0,0.0,5.0,5.0,550.6587139998373,6.0,1.0,phase_2,go,350.0,250.0,1.0,,,,,,,,,cyan,hexagon
0.0,1.0,0.5,0.0,5.0,5.0,427.5094240001635,6.0,1.0,phase_2,go,350.0,250.0,1.0,,,,,,,,,gray,circle
0.0,1.0,0.5,0.0,5.0,5.0,484.4084589999511,6.0,1.0,phase_2,go,350.0,250.0,1.0,,,,,,,,,gray,circle
0.0,4.0,4.0,0.0,6.0,6.0,248.79573599992,6.0,1.0,phase_2,go,350.0,250.0,1.0,,,,,,,,,cyan,hexagon
0.0,3.0,2.0,0.0,6.0,6.0,336.5154419998362,6.0,1.0,phase_2,go,350.0,250.0,1.0,,,,,,,,,green,diamond
0.0,5.0,0.5,1.0,6.0,0.0,0.0,6.0,1.0,phase_2,stop,350.0,250.0,4.0,,,,,,,,,blue,I
0.0,8.0,4.0,1.0,6.0,6.0,431.5561460002755,6.0,1.0,phase_2,stop,350.0,300.0,3.0,,,,,,,,,magenta,flipped triangle
0.0,1.0,0.5,0.0,5.0,5.0,605.3427329998158,6.0,1.0,phase_2,go,350.0,250.0,1.0,,,,,,,,,gray,circle
0.0,8.0,4.0,1.0,5.0,0.0,0.0,6.0,1.0,phase_2,stop,350.0,250.0,4.0,,,,,,,,,magenta,flipped triangle
0.0,3.0,2.0,0.0,6.0,6.0,267.440562000047,6.0,1.0,phase_2,go,400.0,250.0,1.0,,,,,,,,,green,diamond
0.0,3.0,2.0,0.0,6.0,6.0,279.1149780000523,6.0,1.0,phase_2,go,400.0,250.0,1.0,,,,,,,,,green,diamond
0.0,7.0,2.0,1.0,6.0,6.0,297.0443670001259,6.0,1.0,phase_2,go,400.0,250.0,1.0,,,,,,,,,yellow,triangle
0.0,1.0,0.5,0.0,6.0,6.0,493.9828040000975,6.0,1.0,phase_2,go,400.0,250.0,1.0,,,,,,,,,gray,circle
0.0,4.0,4.0,0.0,6.0,6.0,408.0798780000805,6.0,1.0,phase_2,go,400.0,250.0,1.0,,,,,,,,,cyan,hexagon
0.0,5.0,0.5,1.0,5.0,0.0,0.0,6.0,1.0,phase_2,stop,400.0,250.0,4.0,,,,,,,,,blue,I
0.0,4.0,4.0,0.0,6.0,6.0,433.0719549998321,6.0,1.0,phase_2,go,450.0,250.0,1.0,,,,,,,,,cyan,hexagon
0.0,8.0,4.0,1.0,6.0,0.0,0.0,6.0,1.0,phase_2,stop,450.0,250.0,4.0,,,,,,,,,magenta,flipped triangle
0.0,7.0,2.0,1.0,6.0,6.0,281.3327359999675,6.0,1.0,phase_2,go,450.0,300.0,1.0,,,,,,,,,yellow,triangle
0.0,8.0,4.0,1.0,5.0,5.0,347.1083640001779,6.0,1.0,phase_2,go,450.0,300.0,1.0,,,,,,,,,magenta,flipped triangle
0.0,5.0,0.5,1.0,5.0,5.0,567.5930970000991,6.0,1.0,phase_2,go,450.0,300.0,1.0,,,,,,,,,blue,I
0.0,2.0,1.0,0.0,6.0,6.0,562.2168009999768,6.0,1.0,phase_2,go,450.0,300.0,1.0,,,,,,,,,orange,cross
0.0,4.0,4.0,0.0,6.0,6.0,603.3609810001508,6.0,1.0,phase_2,go,450.0,300.0,1.0,,,,,,,,,cyan,hexagon
0.0,3.0,2.0,0.0,5.0,5.0,583.8419189999513,6.0,1.0,phase_2,go,450.0,300.0,1.0,,,,,,,,,green,diamond
0.0,2.0,1.0,0.0,6.0,6.0,316.7286249999961,6.0,1.0,phase_2,go,450.0,300.0,1.0,,,,,,,,,orange,cross
0.0,3.0,2.0,0.0,6.0,6.0,550.8153290002156,6.0,1.0,phase_2,go,450.0,300.0,1.0,,,,,,,,,green,diamond
0.0,6.0,1.0,1.0,5.0,5.0,627.0856190003542,6.0,1.0,phase_2,stop,450.0,300.0,3.0,,,,,,,,,white,square
0.0,4.0,4.0,0.0,6.0,6.0,602.7379440001823,6.0,1.0,phase_2,go,400.0,300.0,1.0,,,,,,,,,cyan,hexagon
0.0,8.0,4.0,1.0,6.0,0.0,0.0,6.0,1.0,phase_2,stop,400.0,300.0,4.0,,,,,,,,,magenta,flipped triangle
0.0,5.0,0.5,1.0,6.0,6.0,660.3166879999662,7.0,1.0,phase_2,go,400.0,350.0,1.0,,,,,,,,,blue,I
0.0,6.0,1.0,1.0,5.0,5.0,336.8470499999603,7.0,1.0,phase_2,stop,400.0,350.0,3.0,,,,,,,,,white,square
0.0,3.0,2.0,0.0,6.0,6.0,419.5566329999565,7.0,1.0,phase_2,go,350.0,350.0,1.0,,,,,,,,,green,diamond
0.0,4.0,4.0,0.0,6.0,6.0,351.5054869999403,7.0,1.0,phase_2,go,350.0,350.0,1.0,,,,,,,,,cyan,hexagon
0.0,7.0,2.0,1.0,5.0,0.0,0.0,7.0,1.0,phase_2,stop,350.0,350.0,4.0,,,,,,,,,yellow,triangle
0.0,2.0,1.0,0.0,5.0,5.0,397.9841129998931,7.0,1.0,phase_2,go,400.0,350.0,1.0,,,,,,,,,orange,cross
0.0,4.0,4.0,0.0,5.0,5.0,221.4443970001411,7.0,1.0,phase_2,go,400.0,350.0,1.0,,,,,,,,,cyan,hexagon
0.0,2.0,1.0,0.0,5.0,5.0,255.0522869996712,7.0,1.0,phase_2,go,400.0,350.0,1.0,,,,,,,,,orange,cross
0.0,5.0,0.5,1.0,6.0,6.0,262.4018949995843,7.0,1.0,phase_2,stop,400.0,350.0,3.0,,,,,,,,,blue,I
0.0,4.0,4.0,0.0,6.0,6.0,338.2093080003869,7.0,1.0,phase_2,go,400.0,300.0,1.0,,,,,,,,,cyan,hexagon
0.0,2.0,1.0,0.0,5.0,5.0,302.7869679999639,7.0,1.0,phase_2,go,400.0,300.0,1.0,,,,,,,,,orange,cross
0.0,6.0,1.0,1.0,5.0,5.0,328.8472690001072,7.0,1.0,phase_2,go,400.0,300.0,1.0,,,,,,,,,white,square
0.0,1.0,0.5,0.0,6.0,6.0,340.8613559995501,7.0,1.0,phase_2,go,400.0,300.0,1.0,,,,,,,,,gray,circle
0.0,6.0,1.0,1.0,6.0,6.0,401.8827979998605,7.0,1.0,phase_2,stop,400.0,300.0,3.0,,,,,,,,,white,square
0.0,6.0,1.0,1.0,6.0,0.0,0.0,7.0,1.0,phase_2,stop,400.0,250.0,4.0,,,,,,,,,white,square
0.0,2.0,1.0,0.0,6.0,6.0,432.7312260002145,7.0,1.0,phase_2,go,400.0,300.0,1.0,,,,,,,,,orange,cross
0.0,4.0,4.0,0.0,5.0,5.0,374.2067439998209,7.0,1.0,phase_2,go,400.0,300.0,1.0,,,,,,,,,cyan,hexagon
0.0,4.0,4.0,0.0,6.0,6.0,301.189281999541,7.0,1.0,phase_2,go,400.0,300.0,1.0,,,,,,,,,cyan,hexagon
0.0,5.0,0.5,1.0,5.0,5.0,503.4664429995246,7.0,1.0,phase_2,stop,400.0,300.0,3.0,,,,,,,,,blue,I
0.0,1.0,0.5,0.0,6.0,6.0,709.2871649992958,7.0,1.0,phase_2,go,350.0,300.0,1.0,,,,,,,,,gray,circle
0.0,6.0,1.0,1.0,6.0,0.0,0.0,7.0,1.0,phase_2,stop,350.0,300.0,4.0,,,,,,,,,white,square
0.0,5.0,0.5,1.0,6.0,6.0,381.9916339998599,7.0,1.0,phase_2,stop,350.0,350.0,3.0,,,,,,,,,blue,I
0.0,8.0,4.0,1.0,5.0,5.0,254.7606360003556,7.0,1.0,phase_2,go,350.0,300.0,1.0,,,,,,,,,magenta,flipped triangle
0.0,3.0,2.0,0.0,5.0,5.0,255.232734000856,7.0,1.0,phase_2,go,350.0,300.0,1.0,,,,,,,,,green,diamond
0.0,4.0,4.0,0.0,5.0,5.0,374.5538449993546,7.0,1.0,phase_2,go,350.0,300.0,1.0,,,,,,,,,cyan,hexagon
0.0,8.0,4.0,1.0,6.0,6.0,336.5146670003014,7.0,1.0,phase_2,stop,350.0,300.0,3.0,,,,,,,,,magenta,flipped triangle
0.0,1.0,0.5,0.0,5.0,5.0,405.5457810000007,7.0,1.0,phase_2,go,350.0,250.0,1.0,,,,,,,,,gray,circle
0.0,6.0,1.0,1.0,5.0,5.0,331.4773530000821,7.0,1.0,phase_2,stop,350.0,250.0,3.0,,,,,,,,,white,square
0.0,6.0,1.0,1.0,6.0,6.0,284.9196609995488,7.0,1.0,phase_2,stop,300.0,250.0,3.0,,,,,,,,,white,square
0.0,6.0,1.0,1.0,5.0,5.0,340.6041449998156,7.0,1.0,phase_2,stop,300.0,200.0,3.0,,,,,,,,,white,square
0.0,3.0,2.0,0.0,5.0,5.0,305.2956679994167,7.0,1.0,phase_2,go,250.0,200.0,1.0,,,,,,,,,green,diamond
0.0,6.0,1.0,1.0,6.0,6.0,295.253467999828,7.0,1.0,phase_2,stop,250.0,200.0,3.0,,,,,,,,,white,square
0.0,3.0,2.0,0.0,6.0,6.0,291.7955940001775,7.0,1.0,phase_2,go,250.0,150.0,1.0,,,,,,,,,green,diamond
0.0,7.0,2.0,1.0,5.0,5.0,253.9657809993514,7.0,1.0,phase_2,go,250.0,150.0,1.0,,,,,,,,,yellow,triangle
0.0,6.0,1.0,1.0,6.0,6.0,245.9579759997723,7.0,1.0,phase_2,stop,250.0,150.0,3.0,,,,,,,,,white,square
0.0,1.0,0.5,0.0,5.0,5.0,402.5351020000016,7.0,1.0,phase_2,go,250.0,100.0,1.0,,,,,,,,,gray,circle
0.0,5.0,0.5,1.0,6.0,6.0,685.4200210000272,8.0,1.0,phase_2,go,250.0,100.0,1.0,,,,,,,,,blue,I
0.0,5.0,0.5,1.0,5.0,5.0,410.1958689998355,8.0,1.0,phase_2,stop,250.0,100.0,3.0,,,,,,,,,blue,I
0.0,4.0,4.0,0.0,6.0,6.0,513.7234920002811,8.0,1.0,phase_2,go,200.0,100.0,1.0,,,,,,,,,cyan,hexagon
0.0,6.0,1.0,1.0,5.0,0.0,0.0,8.0,1.0,phase_2,stop,200.0,100.0,4.0,,,,,,,,,white,square
0.0,6.0,1.0,1.0,6.0,6.0,654.6458210004857,8.0,1.0,phase_2,go,250.0,100.0,1.0,,,,,,,,,white,square
0.0,3.0,2.0,0.0,6.0,6.0,473.8194080000539,8.0,1.0,phase_2,go,250.0,100.0,1.0,,,,,,,,,green,diamond
0.0,7.0,2.0,1.0,6.0,0.0,0.0,8.0,1.0,phase_2,stop,250.0,100.0,4.0,,,,,,,,,yellow,triangle
0.0,5.0,0.5,1.0,5.0,0.0,0.0,8.0,1.0,phase_2,stop,250.0,150.0,4.0,,,,,,,,,blue,I
0.0,2.0,1.0,0.0,5.0,5.0,466.1615450004319,8.0,1.0,phase_2,go,300.0,150.0,1.0,,,,,,,,,orange,cross
0.0,2.0,1.0,0.0,6.0,6.0,546.5798999994149,8.0,1.0,phase_2,go,300.0,150.0,1.0,,,,,,,,,orange,cross
0.0,6.0,1.0,1.0,6.0,0.0,0.0,8.0,1.0,phase_2,stop,300.0,150.0,4.0,,,,,,,,,white,square
0.0,6.0,1.0,1.0,5.0,5.0,601.8645919994015,8.0,1.0,phase_2,go,300.0,200.0,1.0,,,,,,,,,white,square
0.0,8.0,4.0,1.0,5.0,5.0,406.6599899997527,8.0,1.0,phase_2,stop,300.0,200.0,3.0,,,,,,,,,magenta,flipped triangle
0.0,5.0,0.5,1.0,6.0,0.0,0.0,8.0,1.0,phase_2,stop,250.0,200.0,4.0,,,,,,,,,blue,I
0.0,5.0,0.5,1.0,5.0,5.0,562.5603890002822,8.0,1.0,phase_2,go,250.0,250.0,1.0,,,,,,,,,blue,I
0.0,8.0,4.0,1.0,6.0,6.0,546.2322719995427,8.0,1.0,phase_2,go,250.0,250.0,1.0,,,,,,,,,magenta,flipped triangle
0.0,5.0,0.5,1.0,5.0,5.0,686.5903480002089,8.0,1.0,phase_2,go,250.0,250.0,1.0,,,,,,,,,blue,I
0.0,3.0,2.0,0.0,6.0,6.0,681.9936319998305,8.0,1.0,phase_2,go,250.0,250.0,1.0,,,,,,,,,green,diamond
0.0,6.0,1.0,1.0,6.0,0.0,0.0,8.0,1.0,phase_2,stop,250.0,250.0,4.0,,,,,,,,,white,square
0.0,7.0,2.0,1.0,5.0,0.0,0.0,8.0,1.0,phase_2,stop,250.0,300.0,4.0,,,,,,,,,yellow,triangle
0.0,5.0,0.5,1.0,6.0,0.0,0.0,8.0,1.0,phase_2,stop,300.0,300.0,4.0,,,,,,,,,blue,I
0.0,1.0,0.5,0.0,5.0,5.0,678.0639990001873,8.0,1.0,phase_2,go,300.0,350.0,1.0,,,,,,,,,gray,circle
0.0,2.0,1.0,0.0,5.0,5.0,622.7583390000291,8.0,1.0,phase_2,go,300.0,350.0,1.0,,,,,,,,,orange,cross
0.0,7.0,2.0,1.0,6.0,0.0,0.0,8.0,1.0,phase_2,stop,300.0,350.0,4.0,,,,,,,,,yellow,triangle
0.0,4.0,4.0,0.0,5.0,5.0,675.7747100000415,8.0,1.0,phase_2,go,300.0,400.0,1.0,,,,,,,,,cyan,hexagon
0.0,7.0,2.0,1.0,6.0,6.0,603.2334600004106,8.0,1.0,phase_2,stop,300.0,400.0,3.0,,,,,,,,,yellow,triangle
0.0,3.0,2.0,0.0,5.0,5.0,542.2929299993484,8.0,1.0,phase_2,go,300.0,350.0,1.0,,,,,,,,,green,diamond
0.0,8.0,4.0,1.0,5.0,0.0,0.0,8.0,1.0,phase_2,stop,300.0,350.0,4.0,,,,,,,,,magenta,flipped triangle
0.0,5.0,0.5,1.0,5.0,0.0,0.0,8.0,1.0,phase_2,stop,350.0,350.0,4.0,,,,,,,,,blue,I
0.0,4.0,4.0,0.0,5.0,5.0,763.3021069996175,8.0,1.0,phase_2,go,400.0,350.0,1.0,,,,,,,,,cyan,hexagon
0.0,6.0,1.0,1.0,5.0,5.0,758.1788779998533,8.0,1.0,phase_2,go,400.0,350.0,1.0,,,,,,,,,white,square
0.0,1.0,0.5,0.0,6.0,6.0,681.6863120002381,8.0,1.0,phase_2,go,400.0,350.0,1.0,,,,,,,,,gray,circle
0.0,5.0,0.5,1.0,6.0,0.0,0.0,8.0,1.0,phase_2,stop,400.0,350.0,4.0,,,,,,,,,blue,I
0.0,5.0,0.5,1.0,6.0,6.0,566.2794899999426,8.0,1.0,phase_2,go,400.0,400.0,1.0,,,,,,,,,blue,I
0.0,3.0,2.0,0.0,6.0,6.0,613.0385939995904,8.0,1.0,phase_2,go,400.0,400.0,1.0,,,,,,,,,green,diamond
0.0,2.0,1.0,0.0,6.0,6.0,811.9250520003334,8.0,1.0,phase_2,go,400.0,400.0,1.0,,,,,,,,,orange,cross
0.0,2.0,1.0,0.0,7.0,5.0,2288.2022549993053,1.0,1.0,phase_3,,,,,68.0,2.0,34.0,204.0,136.0,170.0,68.0,102.0,orange,cross
0.0,4.0,4.0,0.0,7.0,4.0,2353.120644000228,1.0,1.0,phase_3,,,,,108.0,2.0,324.0,54.0,216.0,108.0,270.0,162.0,cyan,hexagon
0.0,4.0,4.0,0.0,7.0,4.0,3396.394954000243,1.0,1.0,phase_3,,,,,176.0,4.0,132.0,220.0,88.0,176.0,264.0,44.0,cyan,hexagon
0.0,2.0,1.0,0.0,7.0,2.0,3735.293990999708,1.0,1.0,phase_3,,,,,147.0,3.0,294.0,147.0,245.0,196.0,49.0,98.0,orange,cross
0.0,2.0,1.0,0.0,7.0,5.0,1888.2315999999264,1.0,1.0,phase_3,,,,,176.0,4.0,264.0,88.0,44.0,220.0,176.0,132.0,orange,cross
0.0,6.0,1.0,1.0,7.0,6.0,3287.3445349996477,1.0,1.0,phase_3,,,,,132.0,3.0,264.0,176.0,88.0,44.0,220.0,132.0,white,square
0.0,7.0,2.0,1.0,7.0,6.0,2222.9208700000527,1.0,1.0,phase_3,,,,,245.0,5.0,49.0,147.0,294.0,98.0,196.0,245.0,yellow,triangle
0.0,4.0,4.0,0.0,7.0,2.0,2919.20004900021,1.0,1.0,phase_3,,,,,195.0,5.0,78.0,195.0,234.0,39.0,156.0,117.0,cyan,hexagon
0.0,1.0,0.5,0.0,7.0,6.0,4216.875147999417,1.0,1.0,phase_3,,,,,176.0,4.0,220.0,88.0,264.0,44.0,132.0,176.0,gray,circle
0.0,6.0,1.0,1.0,7.0,3.0,2555.3838030000406,1.0,1.0,phase_3,,,,,102.0,3.0,34.0,170.0,102.0,68.0,204.0,136.0,white,square
0.0,4.0,4.0,0.0,7.0,5.0,1455.4922179995629,1.0,1.0,phase_3,,,,,196.0,4.0,294.0,245.0,98.0,147.0,196.0,49.0,cyan,hexagon
0.0,8.0,4.0,1.0,7.0,4.0,1919.7219950001452,1.0,1.0,phase_3,,,,,234.0,6.0,195.0,156.0,78.0,234.0,117.0,39.0,magenta,flipped triangle
0.0,8.0,4.0,1.0,7.0,3.0,3679.914788999668,1.0,1.0,phase_3,,,,,195.0,5.0,78.0,156.0,195.0,117.0,234.0,39.0,magenta,flipped triangle
0.0,6.0,1.0,1.0,7.0,3.0,2884.4369550006377,1.0,1.0,phase_3,,,,,108.0,2.0,54.0,216.0,108.0,324.0,162.0,270.0,white,square
0.0,7.0,2.0,1.0,7.0,5.0,2160.557883000365,1.0,1.0,phase_3,,,,,220.0,5.0,88.0,132.0,44.0,264.0,220.0,176.0,yellow,triangle
0.0,3.0,2.0,0.0,7.0,5.0,2436.039197999889,1.0,1.0,phase_3,,,,,220.0,5.0,132.0,44.0,176.0,88.0,220.0,264.0,green,diamond
0.0,3.0,2.0,0.0,7.0,2.0,1771.2434269997177,1.0,1.0,phase_3,,,,,245.0,5.0,294.0,245.0,98.0,147.0,49.0,196.0,green,diamond
0.0,3.0,2.0,0.0,7.0,2.0,2455.5644199999733,1.0,1.0,phase_3,,,,,270.0,5.0,54.0,270.0,162.0,216.0,108.0,324.0,green,diamond
0.0,2.0,1.0,0.0,7.0,4.0,2386.9937529998424,1.0,1.0,phase_3,,,,,117.0,3.0,234.0,195.0,39.0,117.0,156.0,78.0,orange,cross
0.0,2.0,1.0,0.0,7.0,5.0,3075.037450999844,1.0,1.0,phase_3,,,,,195.0,5.0,117.0,39.0,156.0,234.0,195.0,78.0,orange,cross
0.0,5.0,0.5,1.0,7.0,2.0,1423.2867460004854,2.0,1.0,phase_3,,,,,39.0,1.0,234.0,39.0,156.0,78.0,195.0,117.0,blue,I
0.0,8.0,4.0,1.0,7.0,4.0,2452.6204849998976,2.0,1.0,phase_3,,,,,270.0,5.0,324.0,108.0,162.0,270.0,216.0,54.0,magenta,flipped triangle
0.0,1.0,0.5,0.0,7.0,1.0,2151.480542000172,2.0,1.0,phase_3,,,,,98.0,2.0,98.0,147.0,49.0,294.0,196.0,245.0,gray,circle
0.0,6.0,1.0,1.0,7.0,6.0,1943.322682000144,2.0,1.0,phase_3,,,,,117.0,3.0,78.0,234.0,156.0,195.0,39.0,117.0,white,square
0.0,7.0,2.0,1.0,7.0,5.0,1631.494062999991,2.0,1.0,phase_3,,,,,245.0,5.0,196.0,294.0,98.0,49.0,245.0,147.0,yellow,triangle
0.0,3.0,2.0,0.0,7.0,6.0,2108.8441849997253,2.0,1.0,phase_3,,,,,195.0,5.0,117.0,39.0,156.0,234.0,78.0,195.0,green,diamond
0.0,2.0,1.0,0.0,7.0,6.0,2094.3335430001757,2.0,1.0,phase_3,,,,,162.0,3.0,216.0,54.0,108.0,270.0,324.0,162.0,orange,cross
0.0,1.0,0.5,0.0,7.0,1.0,2302.9661159998795,2.0,1.0,phase_3,,,,,68.0,2.0,68.0,102.0,34.0,204.0,136.0,170.0,gray,circle
0.0,4.0,4.0,0.0,7.0,1.0,1981.476036999993,2.0,1.0,phase_3,,,,,170.0,5.0,170.0,204.0,136.0,102.0,68.0,34.0,cyan,hexagon
0.0,2.0,1.0,0.0,7.0,3.0,3168.256752000161,2.0,1.0,phase_3,,,,,132.0,3.0,44.0,88.0,132.0,264.0,176.0,220.0,orange,cross
0.0,8.0,4.0,1.0,7.0,1.0,1669.7459079996406,2.0,1.0,phase_3,,,,,245.0,5.0,245.0,294.0,49.0,98.0,196.0,147.0,magenta,flipped triangle
0.0,1.0,0.5,0.0,7.0,4.0,2214.2870589996164,2.0,1.0,phase_3,,,,,98.0,2.0,147.0,196.0,245.0,98.0,294.0,49.0,gray,circle
0.0,4.0,4.0,0.0,7.0,5.0,1963.8706149999048,2.0,1.0,phase_3,,,,,117.0,3.0,195.0,78.0,39.0,156.0,117.0,234.0,cyan,hexagon
0.0,2.0,1.0,0.0,7.0,6.0,2358.9888799997425,2.0,1.0,phase_3,,,,,136.0,4.0,68.0,34.0,102.0,170.0,204.0,136.0,orange,cross
0.0,6.0,1.0,1.0,7.0,1.0,2876.2967100001333,2.0,1.0,phase_3,,,,,108.0,2.0,108.0,216.0,162.0,324.0,54.0,270.0,white,square
0.0,8.0,4.0,1.0,7.0,6.0,1814.7681559994453,2.0,1.0,phase_3,,,,,264.0,6.0,88.0,44.0,132.0,220.0,176.0,264.0,magenta,flipped triangle
0.0,8.0,4.0,1.0,7.0,2.0,2529.3338700003005,2.0,1.0,phase_3,,,,,220.0,5.0,44.0,220.0,132.0,88.0,264.0,176.0,magenta,flipped triangle
0.0,6.0,1.0,1.0,7.0,1.0,3463.32735499982,2.0,1.0,phase_3,,,,,88.0,2.0,88.0,264.0,44.0,132.0,176.0,220.0,white,square
0.0,2.0,1.0,0.0,7.0,2.0,1740.2890520006622,2.0,1.0,phase_3,,,,,147.0,3.0,196.0,147.0,294.0,245.0,98.0,49.0,orange,cross
0.0,3.0,2.0,0.0,7.0,4.0,2340.776153999286,2.0,1.0,phase_3,,,,,195.0,5.0,78.0,117.0,39.0,195.0,156.0,234.0,green,diamond
0.0,7.0,2.0,1.0,7.0,6.0,3071.025620999535,3.0,1.0,phase_3,,,,,270.0,5.0,108.0,54.0,324.0,162.0,216.0,270.0,yellow,triangle
0.0,5.0,0.5,1.0,7.0,4.0,2072.178193000582,3.0,1.0,phase_3,,,,,68.0,2.0,136.0,102.0,204.0,68.0,170.0,34.0,blue,I
0.0,5.0,0.5,1.0,7.0,1.0,1791.9789669995223,3.0,1.0,phase_3,,,,,44.0,1.0,44.0,88.0,264.0,132.0,176.0,220.0,blue,I
0.0,8.0,4.0,1.0,7.0,2.0,1944.1969910003536,3.0,1.0,phase_3,,,,,245.0,5.0,196.0,245.0,98.0,147.0,294.0,49.0,magenta,flipped triangle
0.0,1.0,0.5,0.0,7.0,2.0,1931.3978480004157,3.0,1.0,phase_3,,,,,88.0,2.0,44.0,88.0,264.0,220.0,176.0,132.0,gray,circle
0.0,5.0,0.5,1.0,7.0,2.0,1762.627725999664,3.0,1.0,phase_3,,,,,44.0,1.0,132.0,44.0,88.0,220.0,176.0,264.0,blue,I
0.0,5.0,0.5,1.0,7.0,1.0,1240.6039780007632,3.0,1.0,phase_3,,,,,49.0,1.0,49.0,294.0,196.0,245.0,147.0,98.0,blue,I
0.0,4.0,4.0,0.0,7.0,2.0,2412.6341240007605,3.0,1.0,phase_3,,,,,102.0,3.0,170.0,102.0,204.0,34.0,136.0,68.0,cyan,hexagon
0.0,5.0,0.5,1.0,7.0,3.0,1457.1469679995062,3.0,1.0,phase_3,,,,,68.0,2.0,136.0,204.0,68.0,34.0,102.0,170.0,blue,I
0.0,1.0,0.5,0.0,7.0,1.0,2069.762785999956,3.0,1.0,phase_3,,,,,102.0,3.0,102.0,170.0,34.0,136.0,204.0,68.0,gray,circle
0.0,4.0,4.0,0.0,7.0,1.0,2628.160405999552,3.0,1.0,phase_3,,,,,108.0,2.0,108.0,324.0,216.0,270.0,162.0,54.0,cyan,hexagon
0.0,1.0,0.5,0.0,7.0,3.0,1998.4763990005376,3.0,1.0,phase_3,,,,,78.0,2.0,156.0,195.0,78.0,234.0,39.0,117.0,gray,circle
0.0,7.0,2.0,1.0,7.0,1.0,2135.767554999802,3.0,1.0,phase_3,,,,,170.0,5.0,170.0,68.0,102.0,136.0,34.0,204.0,yellow,triangle
0.0,8.0,4.0,1.0,7.0,4.0,2970.274029000393,3.0,1.0,phase_3,,,,,170.0,5.0,204.0,68.0,34.0,170.0,136.0,102.0,magenta,flipped triangle
0.0,3.0,2.0,0.0,7.0,2.0,3328.151550000257,3.0,1.0,phase_3,,,,,132.0,3.0,176.0,132.0,264.0,88.0,44.0,220.0,green,diamond
0.0,1.0,0.5,0.0,7.0,5.0,1987.0624170007432,3.0,1.0,phase_3,,,,,108.0,2.0,324.0,216.0,270.0,54.0,108.0,162.0,gray,circle
0.0,4.0,4.0,0.0,7.0,1.0,1999.120585000128,3.0,1.0,phase_3,,,,,147.0,3.0,147.0,196.0,294.0,245.0,49.0,98.0,cyan,hexagon
0.0,8.0,4.0,1.0,7.0,4.0,2812.1325879992582,3.0,1.0,phase_3,,,,,170.0,5.0,68.0,34.0,136.0,170.0,204.0,102.0,magenta,flipped triangle
0.0,6.0,1.0,1.0,7.0,6.0,1913.8786869998512,3.0,1.0,phase_3,,,,,117.0,3.0,78.0,195.0,39.0,156.0,234.0,117.0,white,square
0.0,7.0,2.0,1.0,7.0,4.0,610.6035060001886,3.0,2.0,phase_3,,,,,136.0,4.0,102.0,170.0,68.0,136.0,204.0,34.0,yellow,triangle
0.0,5.0,0.5,1.0,7.0,5.0,1301.080211000226,4.0,1.0,phase_3,,,,,54.0,1.0,216.0,270.0,324.0,108.0,54.0,162.0,blue,I
0.0,6.0,1.0,1.0,7.0,6.0,2031.1328070001764,4.0,1.0,phase_3,,,,,102.0,3.0,136.0,170.0,34.0,68.0,204.0,102.0,white,square
0.0,6.0,1.0,1.0,7.0,1.0,2706.005348999497,4.0,1.0,phase_3,,,,,147.0,3.0,147.0,196.0,49.0,245.0,294.0,98.0,white,square
0.0,3.0,2.0,0.0,7.0,5.0,1916.3176429992743,4.0,1.0,phase_3,,,,,170.0,5.0,204.0,136.0,34.0,68.0,170.0,102.0,green,diamond
0.0,3.0,2.0,0.0,7.0,2.0,1998.3771690003775,4.0,1.0,phase_3,,,,,162.0,3.0,270.0,162.0,108.0,54.0,324.0,216.0,green,diamond
0.0,5.0,0.5,1.0,7.0,3.0,2024.086645999887,4.0,1.0,phase_3,,,,,78.0,2.0,117.0,156.0,78.0,195.0,234.0,39.0,blue,I
0.0,7.0,2.0,1.0,7.0,1.0,1651.909582999906,4.0,1.0,phase_3,,,,,162.0,3.0,162.0,270.0,216.0,54.0,108.0,324.0,yellow,triangle
0.0,4.0,4.0,0.0,7.0,6.0,1756.259429000238,4.0,1.0,phase_3,,,,,176.0,4.0,44.0,132.0,88.0,220.0,264.0,176.0,cyan,hexagon
0.0,5.0,0.5,1.0,7.0,5.0,1511.275979999482,4.0,1.0,phase_3,,,,,54.0,1.0,324.0,108.0,162.0,216.0,54.0,270.0,blue,I
0.0,8.0,4.0,1.0,7.0,5.0,2192.0674630000576,4.0,1.0,phase_3,,,,,270.0,5.0,162.0,324.0,54.0,216.0,270.0,108.0,magenta,flipped triangle
0.0,1.0,0.5,0.0,7.0,4.0,2225.399345999904,4.0,1.0,phase_3,,,,,78.0,2.0,156.0,117.0,195.0,78.0,39.0,234.0,gray,circle
0.0,3.0,2.0,0.0,7.0,5.0,2449.420490000193,4.0,1.0,phase_3,,,,,136.0,4.0,34.0,68.0,204.0,102.0,136.0,170.0,green,diamond
0.0,7.0,2.0,1.0,7.0,5.0,2554.2020450002383,4.0,1.0,phase_3,,,,,176.0,4.0,264.0,132.0,88.0,220.0,176.0,44.0,yellow,triangle
0.0,7.0,2.0,1.0,7.0,6.0,2490.2396360002967,4.0,1.0,phase_3,,,,,195.0,5.0,234.0,117.0,156.0,39.0,78.0,195.0,yellow,triangle
0.0,7.0,2.0,1.0,7.0,5.0,1230.489782999939,4.0,1.0,phase_3,,,,,195.0,5.0,234.0,156.0,117.0,78.0,195.0,39.0,yellow,triangle
0.0,3.0,2.0,0.0,7.0,3.0,1426.6512129997864,4.0,1.0,phase_3,,,,,196.0,4.0,98.0,294.0,196.0,147.0,49.0,245.0,green,diamond
0.0,5.0,0.5,1.0,7.0,4.0,2909.364131999609,4.0,1.0,phase_3,,,,,49.0,1.0,245.0,147.0,294.0,49.0,98.0,196.0,blue,I
0.0,2.0,1.0,0.0,7.0,1.0,2299.930801000301,4.0,1.0,phase_3,,,,,108.0,2.0,108.0,270.0,324.0,216.0,162.0,54.0,orange,cross
0.0,1.0,0.5,0.0,7.0,4.0,2710.321723000561,4.0,1.0,phase_3,,,,,54.0,1.0,324.0,108.0,270.0,54.0,216.0,162.0,gray,circle
0.0,6.0,1.0,1.0,7.0,1.0,2113.553423999292,4.0,1.0,phase_3,,,,,98.0,2.0,98.0,49.0,294.0,196.0,245.0,147.0,white,square
