raw_reward_magnitude,stim_reward,stepwise_reward_magnitude,paired_with_stopping,stim_location,response,reaction_time,block,num_trial_presentations,which_phase,stop_signal_trial_type,left_SSD,right_SSD,accuracy,chosen_bidding_amount,chosen_bidding_level,possible_bid_1,possible_bid_2,possible_bid_3,possible_bid_4,possible_bid_5,possible_bid_6,color_text,shape_text
403.0,8.0,4.0,1.0,2.0,2.0,535.3531609998754,1.0,1.0,phase_1,,,,,,,,,,,,,white,hexagon
71.0,1.0,0.5,0.0,3.0,3.0,298.7918259998423,1.0,1.0,phase_1,,,,,,,,,,,,,cyan,cross
119.0,6.0,1.0,1.0,1.0,1.0,329.5599479999964,1.0,1.0,phase_1,,,,,,,,,,,,,blue,circle
0.0,4.0,0.0,0.0,1.0,1.0,400.6530990000101,1.0,1.0,phase_1,,,,,,,,,,,,,orange,flipped triangle
50.0,1.0,0.5,0.0,3.0,3.0,362.4913950000064,1.0,1.0,phase_1,,,,,,,,,,,,,cyan,cross
199.0,3.0,2.0,0.0,3.0,3.0,367.6667160000306,1.0,1.0,phase_1,,,,,,,,,,,,,gray,I
392.0,4.0,4.0,0.0,4.0,4.0,306.0026529999504,1.0,1.0,phase_1,,,,,,,,,,,,,orange,flipped triangle
56.0,5.0,0.5,1.0,2.0,2.0,292.2975779999888,1.0,1.0,phase_1,,,,,,,,,,,,,green,triangle
0.0,7.0,0.0,1.0,4.0,4.0,317.3948219998692,1.0,1.0,phase_1,,,,,,,,,,,,,yellow,diamond
211.0,3.0,2.0,0.0,4.0,4.0,319.42248500013187,1.0,1.0,phase_1,,,,,,,,,,,,,gray,I
406.0,4.0,4.0,0.0,2.0,2.0,345.3895000000102,1.0,1.0,phase_1,,,,,,,,,,,,,orange,flipped triangle
0.0,2.0,0.0,0.0,2.0,2.0,413.8671840000825,1.0,1.0,phase_1,,,,,,,,,,,,,magenta,square
219.0,3.0,2.0,0.0,1.0,1.0,289.3688939998355,1.0,1.0,phase_1,,,,,,,,,,,,,gray,I
48.0,5.0,0.5,1.0,3.0,3.0,348.3834799999386,1.0,1.0,phase_1,,,,,,,,,,,,,green,triangle
66.0,5.0,0.5,1.0,1.0,1.0,299.863883999933,1.0,1.0,phase_1,,,,,,,,,,,,,green,triangle
52.0,1.0,0.5,0.0,1.0,1.0,315.9379769999759,1.0,1.0,phase_1,,,,,,,,,,,,,cyan,cross
399.0,8.0,4.0,1.0,1.0,1.0,367.7430000000186,1.0,1.0,phase_1,,,,,,,,,,,,,white,hexagon
57.0,1.0,0.5,0.0,4.0,4.0,413.5643109998455,1.0,2.0,phase_1,,,,,,,,,,,,,cyan,cross
0.0,4.0,0.0,0.0,4.0,4.0,337.4916539999049,1.0,1.0,phase_1,,,,,,,,,,,,,orange,flipped triangle
211.0,7.0,2.0,1.0,2.0,2.0,332.8941920001398,1.0,1.0,phase_1,,,,,,,,,,,,,yellow,diamond
84.0,6.0,1.0,1.0,2.0,2.0,329.1686840000238,1.0,1.0,phase_1,,,,,,,,,,,,,blue,circle
213.0,7.0,2.0,1.0,1.0,1.0,330.7608840000284,1.0,1.0,phase_1,,,,,,,,,,,,,yellow,diamond
96.0,6.0,1.0,1.0,2.0,2.0,328.8626480000403,1.0,1.0,phase_1,,,,,,,,,,,,,blue,circle
380.0,8.0,4.0,1.0,3.0,3.0,340.4159340000205,1.0,1.0,phase_1,,,,,,,,,,,,,white,hexagon
199.0,7.0,2.0,1.0,3.0,3.0,298.2332810001935,1.0,1.0,phase_1,,,,,,,,,,,,,yellow,diamond
416.0,4.0,4.0,0.0,2.0,2.0,319.521942999927,1.0,1.0,phase_1,,,,,,,,,,,,,orange,flipped triangle
202.0,3.0,2.0,0.0,3.0,3.0,317.1370759998808,1.0,1.0,phase_1,,,,,,,,,,,,,gray,I
200.0,3.0,2.0,0.0,1.0,1.0,396.9230200000311,1.0,2.0,phase_1,,,,,,,,,,,,,gray,I
175.0,7.0,2.0,1.0,3.0,3.0,346.7762640000273,1.0,1.0,phase_1,,,,,,,,,,,,,yellow,diamond
403.0,4.0,4.0,0.0,4.0,4.0,388.5682560000987,1.0,1.0,phase_1,,,,,,,,,,,,,orange,flipped triangle
388.0,8.0,4.0,1.0,1.0,1.0,269.4284900001094,1.0,1.0,phase_1,,,,,,,,,,,,,white,hexagon
43.0,5.0,0.5,1.0,1.0,1.0,289.7375309999006,1.0,1.0,phase_1,,,,,,,,,,,,,green,triangle
36.0,5.0,0.5,1.0,2.0,2.0,424.603197000124,1.0,1.0,phase_1,,,,,,,,,,,,,green,triangle
0.0,2.0,0.0,0.0,2.0,2.0,260.1124990001153,1.0,1.0,phase_1,,,,,,,,,,,,,magenta,square
422.0,4.0,4.0,0.0,1.0,1.0,342.3699090001264,1.0,1.0,phase_1,,,,,,,,,,,,,orange,flipped triangle
378.0,4.0,4.0,0.0,4.0,4.0,367.2483759999068,1.0,1.0,phase_1,,,,,,,,,,,,,orange,flipped triangle
403.0,4.0,4.0,0.0,3.0,3.0,353.4169679999195,1.0,1.0,phase_1,,,,,,,,,,,,,orange,flipped triangle
0.0,5.0,0.0,1.0,1.0,1.0,349.70718999989,1.0,1.0,phase_1,,,,,,,,,,,,,green,triangle
92.0,2.0,1.0,0.0,2.0,2.0,348.3080669998344,1.0,1.0,phase_1,,,,,,,,,,,,,magenta,square
66.0,1.0,0.5,0.0,4.0,4.0,317.8043269999762,1.0,1.0,phase_1,,,,,,,,,,,,,cyan,cross
422.0,8.0,4.0,1.0,3.0,3.0,350.6202440000834,1.0,1.0,phase_1,,,,,,,,,,,,,white,hexagon
178.0,3.0,2.0,0.0,4.0,4.0,371.2301939999634,1.0,1.0,phase_1,,,,,,,,,,,,,gray,I
414.0,8.0,4.0,1.0,2.0,2.0,317.8798319997895,1.0,1.0,phase_1,,,,,,,,,,,,,white,hexagon
422.0,8.0,4.0,1.0,3.0,3.0,325.0770170000123,1.0,1.0,phase_1,,,,,,,,,,,,,white,hexagon
100.0,6.0,1.0,1.0,3.0,3.0,352.9247489998397,1.0,1.0,phase_1,,,,,,,,,,,,,blue,circle
200.0,7.0,2.0,1.0,3.0,3.0,335.0815329999932,1.0,1.0,phase_1,,,,,,,,,,,,,yellow,diamond
0.0,3.0,0.0,0.0,4.0,4.0,328.4389899999951,1.0,1.0,phase_1,,,,,,,,,,,,,gray,I
380.0,8.0,4.0,1.0,4.0,4.0,336.9189180000376,1.0,1.0,phase_1,,,,,,,,,,,,,white,hexagon
387.0,4.0,4.0,0.0,2.0,2.0,337.8549219999058,1.0,1.0,phase_1,,,,,,,,,,,,,orange,flipped triangle
0.0,5.0,0.0,1.0,3.0,3.0,328.6690280001494,1.0,1.0,phase_1,,,,,,,,,,,,,green,triangle
70.0,5.0,0.5,1.0,4.0,4.0,359.5880619998297,1.0,1.0,phase_1,,,,,,,,,,,,,green,triangle
199.0,3.0,2.0,0.0,3.0,3.0,331.0560260001693,1.0,1.0,phase_1,,,,,,,,,,,,,gray,I
0.0,4.0,0.0,0.0,3.0,3.0,324.9327200001062,1.0,1.0,phase_1,,,,,,,,,,,,,orange,flipped triangle
0.0,7.0,0.0,1.0,2.0,2.0,352.8273259998968,1.0,1.0,phase_1,,,,,,,,,,,,,yellow,diamond
71.0,5.0,0.5,1.0,4.0,4.0,326.4151480000237,1.0,1.0,phase_1,,,,,,,,,,,,,green,triangle
0.0,8.0,0.0,1.0,3.0,3.0,334.7709140000461,1.0,1.0,phase_1,,,,,,,,,,,,,white,hexagon
86.0,6.0,1.0,1.0,3.0,3.0,328.3863260000998,1.0,1.0,phase_1,,,,,,,,,,,,,blue,circle
56.0,1.0,0.5,0.0,4.0,4.0,338.310341000124,1.0,1.0,phase_1,,,,,,,,,,,,,cyan,cross
0.0,5.0,0.0,1.0,1.0,1.0,333.7475350001568,1.0,1.0,phase_1,,,,,,,,,,,,,green,triangle
384.0,8.0,4.0,1.0,1.0,1.0,316.7725230000542,1.0,1.0,phase_1,,,,,,,,,,,,,white,hexagon
0.0,2.0,0.0,0.0,1.0,1.0,358.2574060001207,1.0,1.0,phase_1,,,,,,,,,,,,,magenta,square
212.0,7.0,2.0,1.0,1.0,1.0,386.0006650002106,1.0,1.0,phase_1,,,,,,,,,,,,,yellow,diamond
29.0,1.0,0.5,0.0,1.0,1.0,249.1883659999985,1.0,1.0,phase_1,,,,,,,,,,,,,cyan,cross
0.0,4.0,0.0,0.0,2.0,2.0,473.898699999836,1.0,1.0,phase_1,,,,,,,,,,,,,orange,flipped triangle
388.0,4.0,4.0,0.0,1.0,1.0,377.7417730000252,1.0,1.0,phase_1,,,,,,,,,,,,,orange,flipped triangle
0.0,7.0,0.0,1.0,3.0,3.0,345.4825720000372,1.0,1.0,phase_1,,,,,,,,,,,,,yellow,diamond
200.0,3.0,2.0,0.0,3.0,3.0,366.4837470000748,1.0,1.0,phase_1,,,,,,,,,,,,,gray,I
115.0,2.0,1.0,0.0,3.0,3.0,534.9110790000395,1.0,1.0,phase_1,,,,,,,,,,,,,magenta,square
0.0,2.0,0.0,0.0,3.0,3.0,271.8636820000029,1.0,1.0,phase_1,,,,,,,,,,,,,magenta,square
386.0,4.0,4.0,0.0,4.0,4.0,400.6482419999884,1.0,1.0,phase_1,,,,,,,,,,,,,orange,flipped triangle
398.0,8.0,4.0,1.0,4.0,4.0,297.6020969999808,1.0,1.0,phase_1,,,,,,,,,,,,,white,hexagon
0.0,1.0,0.0,0.0,4.0,4.0,317.7431510000588,1.0,1.0,phase_1,,,,,,,,,,,,,cyan,cross
105.0,2.0,1.0,0.0,2.0,2.0,429.8612589998356,1.0,1.0,phase_1,,,,,,,,,,,,,magenta,square
118.0,2.0,1.0,0.0,2.0,2.0,298.7535570000545,1.0,1.0,phase_1,,,,,,,,,,,,,magenta,square
54.0,1.0,0.5,0.0,2.0,2.0,272.5525920000109,1.0,1.0,phase_1,,,,,,,,,,,,,cyan,cross
56.0,1.0,0.5,0.0,2.0,2.0,312.4274389999755,1.0,1.0,phase_1,,,,,,,,,,,,,cyan,cross
45.0,1.0,0.5,0.0,4.0,4.0,363.118631999896,1.0,1.0,phase_1,,,,,,,,,,,,,cyan,cross
0.0,4.0,0.0,0.0,4.0,4.0,325.0709219998953,1.0,1.0,phase_1,,,,,,,,,,,,,orange,flipped triangle
46.0,1.0,0.5,0.0,2.0,2.0,370.642387000089,1.0,1.0,phase_1,,,,,,,,,,,,,cyan,cross
422.0,4.0,4.0,0.0,3.0,3.0,462.1286220001366,1.0,1.0,phase_1,,,,,,,,,,,,,orange,flipped triangle
112.0,2.0,1.0,0.0,1.0,1.0,376.2720350000563,1.0,2.0,phase_1,,,,,,,,,,,,,magenta,square
27.0,1.0,0.5,0.0,1.0,1.0,357.4054969999451,1.0,1.0,phase_1,,,,,,,,,,,,,cyan,cross
0.0,3.0,0.0,0.0,1.0,1.0,288.7721939998755,1.0,1.0,phase_1,,,,,,,,,,,,,gray,I
50.0,1.0,0.5,0.0,3.0,3.0,341.5517009998439,1.0,1.0,phase_1,,,,,,,,,,,,,cyan,cross
73.0,1.0,0.5,0.0,4.0,4.0,307.9490640000131,1.0,1.0,phase_1,,,,,,,,,,,,,cyan,cross
55.0,1.0,0.5,0.0,2.0,2.0,334.5760469999277,1.0,1.0,phase_1,,,,,,,,,,,,,cyan,cross
210.0,3.0,2.0,0.0,2.0,2.0,382.8803389999393,1.0,1.0,phase_1,,,,,,,,,,,,,gray,I
203.0,3.0,2.0,0.0,1.0,1.0,336.0224419998303,1.0,1.0,phase_1,,,,,,,,,,,,,gray,I
0.0,6.0,0.0,1.0,4.0,4.0,376.5558210000108,1.0,1.0,phase_1,,,,,,,,,,,,,blue,circle
67.0,5.0,0.5,1.0,4.0,4.0,328.0799980000211,1.0,1.0,phase_1,,,,,,,,,,,,,green,triangle
197.0,7.0,2.0,1.0,2.0,2.0,418.138472999999,1.0,1.0,phase_1,,,,,,,,,,,,,yellow,diamond
0.0,8.0,0.0,1.0,4.0,4.0,292.8009079998901,1.0,1.0,phase_1,,,,,,,,,,,,,white,hexagon
406.0,4.0,4.0,0.0,1.0,1.0,536.8852220001372,1.0,1.0,phase_1,,,,,,,,,,,,,orange,flipped triangle
407.0,8.0,4.0,1.0,3.0,3.0,381.6862579999451,1.0,1.0,phase_1,,,,,,,,,,,,,white,hexagon
60.0,1.0,0.5,0.0,4.0,4.0,324.8328450001736,1.0,1.0,phase_1,,,,,,,,,,,,,cyan,cross
113.0,6.0,1.0,1.0,3.0,3.0,382.1934919999421,1.0,1.0,phase_1,,,,,,,,,,,,,blue,circle
84.0,2.0,1.0,0.0,4.0,4.0,310.58380500007837,1.0,1.0,phase_1,,,,,,,,,,,,,magenta,square
0.0,8.0,0.0,1.0,1.0,1.0,406.8929320001189,1.0,1.0,phase_1,,,,,,,,,,,,,white,hexagon
81.0,6.0,1.0,1.0,3.0,3.0,332.6455689998511,1.0,1.0,phase_1,,,,,,,,,,,,,blue,circle
175.0,3.0,2.0,0.0,4.0,4.0,361.5091080000638,1.0,1.0,phase_1,,,,,,,,,,,,,gray,I
422.0,8.0,4.0,1.0,4.0,4.0,359.0529719999722,2.0,1.0,phase_1,,,,,,,,,,,,,white,hexagon
0.0,8.0,0.0,1.0,4.0,4.0,298.9769880000494,2.0,1.0,phase_1,,,,,,,,,,,,,white,hexagon
406.0,8.0,4.0,1.0,4.0,4.0,302.4557209996601,2.0,1.0,phase_1,,,,,,,,,,,,,white,hexagon
215.0,7.0,2.0,1.0,3.0,3.0,364.6328149998226,2.0,1.0,phase_1,,,,,,,,,,,,,yellow,diamond
399.0,4.0,4.0,0.0,1.0,1.0,435.8878970001569,2.0,1.0,phase_1,,,,,,,,,,,,,orange,flipped triangle
194.0,3.0,2.0,0.0,1.0,1.0,483.8762340000357,2.0,1.0,phase_1,,,,,,,,,,,,,gray,I
55.0,5.0,0.5,1.0,3.0,3.0,532.3753289999331,2.0,1.0,phase_1,,,,,,,,,,,,,green,triangle
0.0,3.0,0.0,0.0,4.0,4.0,363.6673440000777,2.0,1.0,phase_1,,,,,,,,,,,,,gray,I
200.0,7.0,2.0,1.0,4.0,4.0,327.7669260000948,2.0,1.0,phase_1,,,,,,,,,,,,,yellow,diamond
379.0,4.0,4.0,0.0,4.0,4.0,307.1836440003608,2.0,1.0,phase_1,,,,,,,,,,,,,orange,flipped triangle
29.0,5.0,0.5,1.0,2.0,2.0,430.7837569999719,2.0,1.0,phase_1,,,,,,,,,,,,,green,triangle
0.0,1.0,0.0,0.0,3.0,3.0,341.4393570001266,2.0,1.0,phase_1,,,,,,,,,,,,,cyan,cross
416.0,4.0,4.0,0.0,3.0,3.0,298.8048910001453,2.0,1.0,phase_1,,,,,,,,,,,,,orange,flipped triangle
105.0,2.0,1.0,0.0,4.0,4.0,592.480925000018,2.0,1.0,phase_1,,,,,,,,,,,,,magenta,square
0.0,4.0,0.0,0.0,2.0,2.0,369.5756829997663,2.0,1.0,phase_1,,,,,,,,,,,,,orange,flipped triangle
26.0,1.0,0.5,0.0,1.0,1.0,331.0571649999474,2.0,1.0,phase_1,,,,,,,,,,,,,cyan,cross
409.0,8.0,4.0,1.0,2.0,2.0,346.4338829999178,2.0,1.0,phase_1,,,,,,,,,,,,,white,hexagon
218.0,7.0,2.0,1.0,1.0,1.0,379.8965410001074,2.0,1.0,phase_1,,,,,,,,,,,,,yellow,diamond
92.0,2.0,1.0,0.0,3.0,3.0,345.6340360003196,2.0,1.0,phase_1,,,,,,,,,,,,,magenta,square
215.0,3.0,2.0,0.0,1.0,1.0,404.7254600000087,2.0,1.0,phase_1,,,,,,,,,,,,,gray,I
103.0,6.0,1.0,1.0,2.0,2.0,374.0005540003039,2.0,1.0,phase_1,,,,,,,,,,,,,blue,circle
105.0,6.0,1.0,1.0,3.0,3.0,505.5002349999995,2.0,1.0,phase_1,,,,,,,,,,,,,blue,circle
99.0,6.0,1.0,1.0,1.0,1.0,250.95402000033567,2.0,1.0,phase_1,,,,,,,,,,,,,blue,circle
0.0,3.0,0.0,0.0,1.0,1.0,441.5173630000026,2.0,1.0,phase_1,,,,,,,,,,,,,gray,I
0.0,8.0,0.0,1.0,4.0,4.0,368.3441450002647,2.0,1.0,phase_1,,,,,,,,,,,,,white,hexagon
0.0,4.0,0.0,0.0,2.0,2.0,333.7272190001386,2.0,1.0,phase_1,,,,,,,,,,,,,orange,flipped triangle
67.0,1.0,0.5,0.0,1.0,1.0,288.2403530002193,2.0,1.0,phase_1,,,,,,,,,,,,,cyan,cross
47.0,5.0,0.5,1.0,1.0,1.0,283.2166610000968,2.0,1.0,phase_1,,,,,,,,,,,,,green,triangle
41.0,5.0,0.5,1.0,4.0,4.0,395.3494349998436,2.0,2.0,phase_1,,,,,,,,,,,,,green,triangle
50.0,5.0,0.5,1.0,3.0,3.0,371.9388330000583,2.0,1.0,phase_1,,,,,,,,,,,,,green,triangle
413.0,8.0,4.0,1.0,4.0,4.0,366.080667999995,2.0,1.0,phase_1,,,,,,,,,,,,,white,hexagon
108.0,6.0,1.0,1.0,4.0,4.0,359.8252740002863,2.0,1.0,phase_1,,,,,,,,,,,,,blue,circle
0.0,5.0,0.0,1.0,4.0,4.0,297.9714850002892,2.0,1.0,phase_1,,,,,,,,,,,,,green,triangle
210.0,3.0,2.0,0.0,2.0,2.0,392.6800389999698,2.0,1.0,phase_1,,,,,,,,,,,,,gray,I
0.0,7.0,0.0,1.0,3.0,3.0,383.5227619997567,2.0,1.0,phase_1,,,,,,,,,,,,,yellow,diamond
206.0,7.0,2.0,1.0,3.0,3.0,297.5300769999194,2.0,1.0,phase_1,,,,,,,,,,,,,yellow,diamond
392.0,8.0,4.0,1.0,1.0,1.0,425.6827819999671,2.0,1.0,phase_1,,,,,,,,,,,,,white,hexagon
33.0,5.0,0.5,1.0,3.0,3.0,530.9234639998976,2.0,1.0,phase_1,,,,,,,,,,,,,green,triangle
122.0,2.0,1.0,0.0,3.0,3.0,348.4452130001045,2.0,1.0,phase_1,,,,,,,,,,,,,magenta,square
221.0,7.0,2.0,1.0,1.0,1.0,577.110248000281,2.0,1.0,phase_1,,,,,,,,,,,,,yellow,diamond
406.0,8.0,4.0,1.0,4.0,4.0,360.0855269996827,2.0,1.0,phase_1,,,,,,,,,,,,,white,hexagon
46.0,5.0,0.5,1.0,3.0,3.0,533.9839940002093,2.0,1.0,phase_1,,,,,,,,,,,,,green,triangle
186.0,7.0,2.0,1.0,2.0,2.0,363.1917719999364,2.0,1.0,phase_1,,,,,,,,,,,,,yellow,diamond
0.0,8.0,0.0,1.0,2.0,2.0,448.1765740001719,2.0,1.0,phase_1,,,,,,,,,,,,,white,hexagon
45.0,1.0,0.5,0.0,1.0,1.0,356.1407419997522,2.0,1.0,phase_1,,,,,,,,,,,,,cyan,cross
377.0,4.0,4.0,0.0,3.0,3.0,363.3116119999613,2.0,1.0,phase_1,,,,,,,,,,,,,orange,flipped triangle
380.0,4.0,4.0,0.0,3.0,3.0,340.7531200000449,2.0,1.0,phase_1,,,,,,,,,,,,,orange,flipped triangle
404.0,8.0,4.0,1.0,1.0,1.0,462.5844140000481,2.0,1.0,phase_1,,,,,,,,,,,,,white,hexagon
178.0,7.0,2.0,1.0,1.0,1.0,464.3437249997078,2.0,1.0,phase_1,,,,,,,,,,,,,yellow,diamond
115.0,6.0,1.0,1.0,4.0,4.0,373.6948350001512,2.0,1.0,phase_1,,,,,,,,,,,,,blue,circle
407.0,4.0,4.0,0.0,4.0,4.0,390.7213780003076,2.0,1.0,phase_1,,,,,,,,,,,,,orange,flipped triangle
406.0,8.0,4.0,1.0,3.0,3.0,335.5962379996526,2.0,1.0,phase_1,,,,,,,,,,,,,white,hexagon
115.0,6.0,1.0,1.0,2.0,2.0,306.2137259998962,2.0,1.0,phase_1,,,,,,,,,,,,,blue,circle
0.0,5.0,0.0,1.0,2.0,2.0,400.9015069996167,2.0,1.0,phase_1,,,,,,,,,,,,,green,triangle
0.0,5.0,0.0,1.0,4.0,4.0,349.0713490000416,2.0,1.0,phase_1,,,,,,,,,,,,,green,triangle
397.0,4.0,4.0,0.0,2.0,2.0,331.8030219998036,2.0,1.0,phase_1,,,,,,,,,,,,,orange,flipped triangle
62.0,1.0,0.5,0.0,1.0,1.0,388.3353490000445,2.0,1.0,phase_1,,,,,,,,,,,,,cyan,cross
73.0,5.0,0.5,1.0,2.0,2.0,334.0898880001077,2.0,1.0,phase_1,,,,,,,,,,,,,green,triangle
0.0,8.0,0.0,1.0,4.0,4.0,380.0528679998933,2.0,1.0,phase_1,,,,,,,,,,,,,white,hexagon
45.0,5.0,0.5,1.0,2.0,2.0,362.789222000174,2.0,1.0,phase_1,,,,,,,,,,,,,green,triangle
86.0,2.0,1.0,0.0,1.0,1.0,414.6577510000497,2.0,1.0,phase_1,,,,,,,,,,,,,magenta,square
0.0,8.0,0.0,1.0,1.0,1.0,387.8597690004426,2.0,1.0,phase_1,,,,,,,,,,,,,white,hexagon
84.0,6.0,1.0,1.0,4.0,4.0,441.0740409998652,2.0,1.0,phase_1,,,,,,,,,,,,,blue,circle
379.0,8.0,4.0,1.0,2.0,2.0,343.510385999707,2.0,1.0,phase_1,,,,,,,,,,,,,white,hexagon
0.0,6.0,0.0,1.0,4.0,4.0,357.8633699999045,2.0,1.0,phase_1,,,,,,,,,,,,,blue,circle
103.0,2.0,1.0,0.0,1.0,1.0,407.1181560002515,2.0,1.0,phase_1,,,,,,,,,,,,,magenta,square
203.0,7.0,2.0,1.0,1.0,1.0,406.5854850000505,2.0,1.0,phase_1,,,,,,,,,,,,,yellow,diamond
401.0,4.0,4.0,0.0,1.0,1.0,356.49216699994207,2.0,1.0,phase_1,,,,,,,,,,,,,orange,flipped triangle
0.0,5.0,0.0,1.0,3.0,3.0,612.71283699989,2.0,1.0,phase_1,,,,,,,,,,,,,green,triangle
118.0,6.0,1.0,1.0,1.0,1.0,339.7005910001098,2.0,1.0,phase_1,,,,,,,,,,,,,blue,circle
96.0,2.0,1.0,0.0,3.0,3.0,324.1508830001294,2.0,1.0,phase_1,,,,,,,,,,,,,magenta,square
414.0,8.0,4.0,1.0,4.0,4.0,345.5329520002124,2.0,1.0,phase_1,,,,,,,,,,,,,white,hexagon
0.0,2.0,0.0,0.0,2.0,2.0,342.3903940001764,2.0,1.0,phase_1,,,,,,,,,,,,,magenta,square
119.0,2.0,1.0,0.0,4.0,4.0,379.4046800003343,2.0,1.0,phase_1,,,,,,,,,,,,,magenta,square
46.0,1.0,0.5,0.0,4.0,4.0,389.7829100001218,2.0,1.0,phase_1,,,,,,,,,,,,,cyan,cross
92.0,6.0,1.0,1.0,4.0,4.0,333.0281730000024,2.0,1.0,phase_1,,,,,,,,,,,,,blue,circle
120.0,6.0,1.0,1.0,3.0,3.0,423.0956930000502,2.0,1.0,phase_1,,,,,,,,,,,,,blue,circle
57.0,5.0,0.5,1.0,3.0,3.0,366.6995739999947,2.0,1.0,phase_1,,,,,,,,,,,,,green,triangle
0.0,1.0,0.0,0.0,1.0,1.0,385.8334970000214,2.0,1.0,phase_1,,,,,,,,,,,,,cyan,cross
422.0,4.0,4.0,0.0,1.0,1.0,372.6518090002173,2.0,1.0,phase_1,,,,,,,,,,,,,orange,flipped triangle
0.0,3.0,0.0,0.0,1.0,1.0,382.4510139997983,2.0,1.0,phase_1,,,,,,,,,,,,,gray,I
102.0,2.0,1.0,0.0,2.0,2.0,383.2624940000642,2.0,1.0,phase_1,,,,,,,,,,,,,magenta,square
200.0,7.0,2.0,1.0,3.0,3.0,348.6334290000741,2.0,1.0,phase_1,,,,,,,,,,,,,yellow,diamond
403.0,8.0,4.0,1.0,1.0,1.0,414.5878200001789,2.0,1.0,phase_1,,,,,,,,,,,,,white,hexagon
33.0,1.0,0.5,0.0,2.0,2.0,586.2477579998995,2.0,1.0,phase_1,,,,,,,,,,,,,cyan,cross
421.0,8.0,4.0,1.0,1.0,1.0,377.1412299997791,2.0,1.0,phase_1,,,,,,,,,,,,,white,hexagon
122.0,6.0,1.0,1.0,2.0,2.0,441.0155710002073,2.0,1.0,phase_1,,,,,,,,,,,,,blue,circle
45.0,5.0,0.5,1.0,2.0,2.0,351.9900380001672,2.0,1.0,phase_1,,,,,,,,,,,,,green,triangle
79.0,2.0,1.0,0.0,3.0,3.0,342.7793860000747,2.0,2.0,phase_1,,,,,,,,,,,,,magenta,square
38.0,1.0,0.5,0.0,3.0,3.0,360.5041660002825,2.0,1.0,phase_1,,,,,,,,,,,,,cyan,cross
202.0,7.0,2.0,1.0,4.0,4.0,343.7561509999796,2.0,1.0,phase_1,,,,,,,,,,,,,yellow,diamond
76.0,6.0,1.0,1.0,1.0,1.0,402.1553100001256,2.0,1.0,phase_1,,,,,,,,,,,,,blue,circle
390.0,4.0,4.0,0.0,1.0,1.0,427.2975650001172,2.0,1.0,phase_1,,,,,,,,,,,,,orange,flipped triangle
0.0,5.0,0.0,1.0,1.0,1.0,416.1013240000102,2.0,1.0,phase_1,,,,,,,,,,,,,green,triangle
51.0,1.0,0.5,0.0,4.0,4.0,379.1616809999141,2.0,1.0,phase_1,,,,,,,,,,,,,cyan,cross
0.0,1.0,0.0,0.0,2.0,2.0,364.8485280000386,2.0,1.0,phase_1,,,,,,,,,,,,,cyan,cross
115.0,2.0,1.0,0.0,3.0,3.0,361.2967970002501,2.0,1.0,phase_1,,,,,,,,,,,,,magenta,square
178.0,3.0,2.0,0.0,2.0,2.0,446.7467110002872,2.0,1.0,phase_1,,,,,,,,,,,,,gray,I
220.0,3.0,2.0,0.0,4.0,4.0,600.5032540001594,2.0,1.0,phase_1,,,,,,,,,,,,,gray,I
50.0,5.0,0.5,1.0,4.0,4.0,315.1761120002447,2.0,1.0,phase_1,,,,,,,,,,,,,green,triangle
413.0,4.0,4.0,0.0,2.0,2.0,365.1008540000475,3.0,1.0,phase_1,,,,,,,,,,,,,orange,flipped triangle
178.0,7.0,2.0,1.0,2.0,2.0,325.450942000316,3.0,1.0,phase_1,,,,,,,,,,,,,yellow,diamond
66.0,1.0,0.5,0.0,1.0,1.0,333.2248070000787,3.0,1.0,phase_1,,,,,,,,,,,,,cyan,cross
189.0,3.0,2.0,0.0,4.0,4.0,371.5341929996612,3.0,1.0,phase_1,,,,,,,,,,,,,gray,I
41.0,1.0,0.5,0.0,1.0,1.0,344.6647770001618,3.0,1.0,phase_1,,,,,,,,,,,,,cyan,cross
380.0,4.0,4.0,0.0,1.0,1.0,331.9082080001863,3.0,1.0,phase_1,,,,,,,,,,,,,orange,flipped triangle
213.0,3.0,2.0,0.0,3.0,3.0,336.6312919997654,3.0,1.0,phase_1,,,,,,,,,,,,,gray,I
0.0,4.0,0.0,0.0,3.0,3.0,342.1309230002407,3.0,1.0,phase_1,,,,,,,,,,,,,orange,flipped triangle
219.0,7.0,2.0,1.0,1.0,1.0,360.0897549999899,3.0,1.0,phase_1,,,,,,,,,,,,,yellow,diamond
221.0,3.0,2.0,0.0,2.0,2.0,421.4321070003279,3.0,1.0,phase_1,,,,,,,,,,,,,gray,I
0.0,2.0,0.0,0.0,4.0,4.0,446.9907540001259,3.0,1.0,phase_1,,,,,,,,,,,,,magenta,square
401.0,8.0,4.0,1.0,3.0,3.0,396.8445270002121,3.0,1.0,phase_1,,,,,,,,,,,,,white,hexagon
199.0,7.0,2.0,1.0,1.0,1.0,402.1799810002449,3.0,1.0,phase_1,,,,,,,,,,,,,yellow,diamond
199.0,3.0,2.0,0.0,2.0,2.0,414.1102819999105,3.0,1.0,phase_1,,,,,,,,,,,,,gray,I
182.0,3.0,2.0,0.0,4.0,4.0,360.8537599998271,3.0,1.0,phase_1,,,,,,,,,,,,,gray,I
0.0,3.0,0.0,0.0,3.0,3.0,376.9529629998942,3.0,1.0,phase_1,,,,,,,,,,,,,gray,I
390.0,8.0,4.0,1.0,4.0,4.0,344.4696189999376,3.0,1.0,phase_1,,,,,,,,,,,,,white,hexagon
380.0,4.0,4.0,0.0,4.0,4.0,390.1818419999472,3.0,1.0,phase_1,,,,,,,,,,,,,orange,flipped triangle
224.0,3.0,2.0,0.0,3.0,3.0,397.6322799999252,3.0,1.0,phase_1,,,,,,,,,,,,,gray,I
381.0,8.0,4.0,1.0,3.0,3.0,311.9623699999465,3.0,1.0,phase_1,,,,,,,,,,,,,white,hexagon
91.0,2.0,1.0,0.0,1.0,1.0,290.3655259997322,3.0,1.0,phase_1,,,,,,,,,,,,,magenta,square
50.0,5.0,0.5,1.0,1.0,1.0,371.9104119995791,3.0,1.0,phase_1,,,,,,,,,,,,,green,triangle
105.0,6.0,1.0,1.0,2.0,2.0,373.0308579997654,3.0,1.0,phase_1,,,,,,,,,,,,,blue,circle
79.0,6.0,1.0,1.0,3.0,3.0,387.8952350000872,3.0,1.0,phase_1,,,,,,,,,,,,,blue,circle
108.0,6.0,1.0,1.0,1.0,1.0,267.3183300003074,3.0,1.0,phase_1,,,,,,,,,,,,,blue,circle
36.0,1.0,0.5,0.0,2.0,2.0,336.3809729999047,3.0,1.0,phase_1,,,,,,,,,,,,,cyan,cross
379.0,8.0,4.0,1.0,2.0,2.0,277.4800390002383,3.0,1.0,phase_1,,,,,,,,,,,,,white,hexagon
203.0,7.0,2.0,1.0,4.0,4.0,347.7208059998702,3.0,1.0,phase_1,,,,,,,,,,,,,yellow,diamond
212.0,3.0,2.0,0.0,3.0,3.0,614.2186759998367,3.0,1.0,phase_1,,,,,,,,,,,,,gray,I
414.0,4.0,4.0,0.0,3.0,3.0,340.5109780001112,3.0,1.0,phase_1,,,,,,,,,,,,,orange,flipped triangle
62.0,5.0,0.5,1.0,1.0,1.0,341.1852569997791,3.0,1.0,phase_1,,,,,,,,,,,,,green,triangle
67.0,1.0,0.5,0.0,2.0,2.0,316.6910320001079,3.0,1.0,phase_1,,,,,,,,,,,,,cyan,cross
0.0,3.0,0.0,0.0,4.0,4.0,457.9522909998559,3.0,1.0,phase_1,,,,,,,,,,,,,gray,I
112.0,6.0,1.0,1.0,2.0,2.0,324.8209630000929,3.0,1.0,phase_1,,,,,,,,,,,,,blue,circle
386.0,8.0,4.0,1.0,2.0,2.0,328.1868540002506,3.0,1.0,phase_1,,,,,,,,,,,,,white,hexagon
0.0,1.0,0.0,0.0,1.0,1.0,306.0405410001294,3.0,1.0,phase_1,,,,,,,,,,,,,cyan,cross
56.0,5.0,0.5,1.0,1.0,1.0,318.4560610002336,3.0,1.0,phase_1,,,,,,,,,,,,,green,triangle
0.0,7.0,0.0,1.0,3.0,3.0,320.0442329998623,3.0,1.0,phase_1,,,,,,,,,,,,,yellow,diamond
0.0,7.0,0.0,1.0,3.0,3.0,321.8334580001283,3.0,1.0,phase_1,,,,,,,,,,,,,yellow,diamond
84.0,6.0,1.0,1.0,4.0,4.0,323.020465999889,3.0,1.0,phase_1,,,,,,,,,,,,,blue,circle
217.0,3.0,2.0,0.0,2.0,2.0,333.5109389995523,3.0,1.0,phase_1,,,,,,,,,,,,,gray,I
0.0,3.0,0.0,0.0,4.0,4.0,318.7860390003152,3.0,1.0,phase_1,,,,,,,,,,,,,gray,I
120.0,2.0,1.0,0.0,2.0,2.0,421.6939390003063,3.0,1.0,phase_1,,,,,,,,,,,,,magenta,square
184.0,3.0,2.0,0.0,2.0,2.0,355.550893000327,3.0,1.0,phase_1,,,,,,,,,,,,,gray,I
187.0,3.0,2.0,0.0,1.0,1.0,366.5800799999488,3.0,1.0,phase_1,,,,,,,,,,,,,gray,I
38.0,5.0,0.5,1.0,1.0,1.0,553.6160920000839,3.0,1.0,phase_1,,,,,,,,,,,,,green,triangle
0.0,5.0,0.0,1.0,4.0,4.0,339.5615310000721,3.0,1.0,phase_1,,,,,,,,,,,,,green,triangle
200.0,3.0,2.0,0.0,3.0,3.0,329.4396629999028,3.0,1.0,phase_1,,,,,,,,,,,,,gray,I
0.0,7.0,0.0,1.0,1.0,1.0,325.2495510000699,3.0,1.0,phase_1,,,,,,,,,,,,,yellow,diamond
46.0,5.0,0.5,1.0,2.0,2.0,479.1493920001812,3.0,1.0,phase_1,,,,,,,,,,,,,green,triangle
0.0,6.0,0.0,1.0,3.0,3.0,268.5822060002465,3.0,1.0,phase_1,,,,,,,,,,,,,blue,circle
92.0,6.0,1.0,1.0,1.0,1.0,274.9363480002103,3.0,2.0,phase_1,,,,,,,,,,,,,blue,circle
67.0,1.0,0.5,0.0,3.0,3.0,378.8914310002838,3.0,1.0,phase_1,,,,,,,,,,,,,cyan,cross
0.0,5.0,0.0,1.0,3.0,3.0,366.4346549999209,3.0,1.0,phase_1,,,,,,,,,,,,,green,triangle
184.0,7.0,2.0,1.0,4.0,4.0,353.6910940001689,3.0,2.0,phase_1,,,,,,,,,,,,,yellow,diamond
71.0,5.0,0.5,1.0,4.0,4.0,333.0903999999464,3.0,1.0,phase_1,,,,,,,,,,,,,green,triangle
409.0,4.0,4.0,0.0,2.0,2.0,448.318110999935,3.0,1.0,phase_1,,,,,,,,,,,,,orange,flipped triangle
377.0,8.0,4.0,1.0,2.0,2.0,371.643812000002,3.0,1.0,phase_1,,,,,,,,,,,,,white,hexagon
67.0,5.0,0.5,1.0,3.0,3.0,349.8502359998383,3.0,1.0,phase_1,,,,,,,,,,,,,green,triangle
100.0,2.0,1.0,0.0,2.0,2.0,375.1806579998629,3.0,1.0,phase_1,,,,,,,,,,,,,magenta,square
222.0,3.0,2.0,0.0,4.0,4.0,336.1437809999188,3.0,1.0,phase_1,,,,,,,,,,,,,gray,I
0.0,2.0,0.0,0.0,4.0,4.0,359.0418600001612,3.0,1.0,phase_1,,,,,,,,,,,,,magenta,square
224.0,7.0,2.0,1.0,2.0,2.0,364.5879470000182,3.0,1.0,phase_1,,,,,,,,,,,,,yellow,diamond
112.0,6.0,1.0,1.0,4.0,4.0,305.1221000000623,3.0,1.0,phase_1,,,,,,,,,,,,,blue,circle
99.0,2.0,1.0,0.0,2.0,2.0,301.0327669999242,3.0,1.0,phase_1,,,,,,,,,,,,,magenta,square
421.0,4.0,4.0,0.0,3.0,3.0,304.2681769998125,3.0,1.0,phase_1,,,,,,,,,,,,,orange,flipped triangle
51.0,5.0,0.5,1.0,2.0,2.0,321.8687399998998,3.0,1.0,phase_1,,,,,,,,,,,,,green,triangle
113.0,2.0,1.0,0.0,4.0,4.0,314.9189539999497,3.0,1.0,phase_1,,,,,,,,,,,,,magenta,square
0.0,6.0,0.0,1.0,4.0,4.0,380.5121800000961,3.0,1.0,phase_1,,,,,,,,,,,,,blue,circle
96.0,2.0,1.0,0.0,4.0,4.0,383.7498090001645,3.0,1.0,phase_1,,,,,,,,,,,,,magenta,square
406.0,4.0,4.0,0.0,4.0,4.0,327.1466000001055,3.0,1.0,phase_1,,,,,,,,,,,,,orange,flipped triangle
0.0,4.0,0.0,0.0,2.0,2.0,434.4700860001467,3.0,1.0,phase_1,,,,,,,,,,,,,orange,flipped triangle
403.0,8.0,4.0,1.0,1.0,1.0,397.055461999571,3.0,1.0,phase_1,,,,,,,,,,,,,white,hexagon
0.0,2.0,0.0,0.0,1.0,1.0,351.3576509999438,3.0,1.0,phase_1,,,,,,,,,,,,,magenta,square
70.0,1.0,0.5,0.0,2.0,2.0,338.2136099999115,3.0,1.0,phase_1,,,,,,,,,,,,,cyan,cross
418.0,8.0,4.0,1.0,4.0,4.0,356.2213889999839,3.0,1.0,phase_1,,,,,,,,,,,,,white,hexagon
422.0,4.0,4.0,0.0,2.0,2.0,385.9893170001669,3.0,1.0,phase_1,,,,,,,,,,,,,orange,flipped triangle
0.0,1.0,0.0,0.0,3.0,3.0,357.8436480001983,3.0,1.0,phase_1,,,,,,,,,,,,,cyan,cross
387.0,8.0,4.0,1.0,2.0,2.0,357.9792129999077,3.0,1.0,phase_1,,,,,,,,,,,,,white,hexagon
30.0,1.0,0.5,0.0,3.0,3.0,360.827135999898,3.0,1.0,phase_1,,,,,,,,,,,,,cyan,cross
71.0,1.0,0.5,0.0,4.0,4.0,333.6361279998527,3.0,1.0,phase_1,,,,,,,,,,,,,cyan,cross
81.0,6.0,1.0,1.0,2.0,2.0,311.2085729999307,3.0,1.0,phase_1,,,,,,,,,,,,,blue,circle
0.0,1.0,0.0,0.0,1.0,1.0,297.0644510000966,3.0,1.0,phase_1,,,,,,,,,,,,,cyan,cross
422.0,8.0,4.0,1.0,1.0,1.0,346.4197590001276,3.0,1.0,phase_1,,,,,,,,,,,,,white,hexagon
186.0,3.0,2.0,0.0,1.0,1.0,360.1737439998942,3.0,1.0,phase_1,,,,,,,,,,,,,gray,I
398.0,4.0,4.0,0.0,2.0,2.0,432.1455599997534,3.0,1.0,phase_1,,,,,,,,,,,,,orange,flipped triangle
91.0,6.0,1.0,1.0,1.0,1.0,334.2228060000707,3.0,1.0,phase_1,,,,,,,,,,,,,blue,circle
404.0,4.0,4.0,0.0,2.0,2.0,283.8889129998279,3.0,1.0,phase_1,,,,,,,,,,,,,orange,flipped triangle
115.0,6.0,1.0,1.0,1.0,1.0,287.6316979995863,3.0,1.0,phase_1,,,,,,,,,,,,,blue,circle
30.0,5.0,0.5,1.0,2.0,2.0,285.6997449998744,3.0,1.0,phase_1,,,,,,,,,,,,,green,triangle
418.0,4.0,4.0,0.0,1.0,1.0,282.3893869999665,3.0,1.0,phase_1,,,,,,,,,,,,,orange,flipped triangle
122.0,6.0,1.0,1.0,3.0,3.0,401.3253390003228,3.0,1.0,phase_1,,,,,,,,,,,,,blue,circle
210.0,7.0,2.0,1.0,2.0,2.0,332.9921300000933,3.0,1.0,phase_1,,,,,,,,,,,,,yellow,diamond
0.0,6.0,0.0,1.0,1.0,1.0,363.7257179998414,3.0,1.0,phase_1,,,,,,,,,,,,,blue,circle
104.0,6.0,1.0,1.0,4.0,4.0,321.4108750003106,3.0,1.0,phase_1,,,,,,,,,,,,,blue,circle
186.0,7.0,2.0,1.0,4.0,4.0,340.7992279999234,3.0,1.0,phase_1,,,,,,,,,,,,,yellow,diamond
380.0,8.0,4.0,1.0,3.0,3.0,369.1245219997654,3.0,1.0,phase_1,,,,,,,,,,,,,white,hexagon
47.0,1.0,0.5,0.0,1.0,1.0,399.3651189998672,3.0,1.0,phase_1,,,,,,,,,,,,,cyan,cross
104.0,2.0,1.0,0.0,4.0,4.0,329.2180680000456,3.0,1.0,phase_1,,,,,,,,,,,,,magenta,square
52.0,5.0,0.5,1.0,4.0,4.0,370.1891269997759,3.0,1.0,phase_1,,,,,,,,,,,,,green,triangle
199.0,7.0,2.0,1.0,4.0,4.0,349.2532370000845,4.0,1.0,phase_1,,,,,,,,,,,,,yellow,diamond
381.0,4.0,4.0,0.0,4.0,4.0,331.0698739996951,4.0,1.0,phase_1,,,,,,,,,,,,,orange,flipped triangle
414.0,4.0,4.0,0.0,2.0,2.0,393.3767509997778,4.0,1.0,phase_1,,,,,,,,,,,,,orange,flipped triangle
187.0,7.0,2.0,1.0,4.0,4.0,397.6312650002001,4.0,1.0,phase_1,,,,,,,,,,,,,yellow,diamond
0.0,3.0,0.0,0.0,1.0,1.0,436.1878989998331,4.0,1.0,phase_1,,,,,,,,,,,,,gray,I
184.0,7.0,2.0,1.0,2.0,2.0,391.8862909999916,4.0,1.0,phase_1,,,,,,,,,,,,,yellow,diamond
103.0,2.0,1.0,0.0,1.0,1.0,372.3810840001533,4.0,1.0,phase_1,,,,,,,,,,,,,magenta,square
104.0,2.0,1.0,0.0,4.0,4.0,392.1612730000561,4.0,1.0,phase_1,,,,,,,,,,,,,magenta,square
108.0,2.0,1.0,0.0,3.0,3.0,337.5141660003464,4.0,1.0,phase_1,,,,,,,,,,,,,magenta,square
81.0,2.0,1.0,0.0,1.0,1.0,424.2534179998074,4.0,1.0,phase_1,,,,,,,,,,,,,magenta,square
38.0,1.0,0.5,0.0,4.0,4.0,685.1234490000024,4.0,1.0,phase_1,,,,,,,,,,,,,cyan,cross
123.0,2.0,1.0,0.0,1.0,1.0,384.1399620000629,4.0,1.0,phase_1,,,,,,,,,,,,,magenta,square
0.0,2.0,0.0,0.0,3.0,3.0,440.6330199999502,4.0,1.0,phase_1,,,,,,,,,,,,,magenta,square
76.0,2.0,1.0,0.0,1.0,1.0,520.2897919998577,4.0,1.0,phase_1,,,,,,,,,,,,,magenta,square
84.0,2.0,1.0,0.0,4.0,4.0,363.4578869996403,4.0,1.0,phase_1,,,,,,,,,,,,,magenta,square
108.0,2.0,1.0,0.0,3.0,3.0,378.5129369998685,4.0,1.0,phase_1,,,,,,,,,,,,,magenta,square
40.0,5.0,0.5,1.0,4.0,4.0,447.5849760001438,4.0,1.0,phase_1,,,,,,,,,,,,,green,triangle
50.0,1.0,0.5,0.0,2.0,2.0,494.9817029996666,4.0,1.0,phase_1,,,,,,,,,,,,,cyan,cross
217.0,7.0,2.0,1.0,4.0,4.0,349.2383030002202,4.0,1.0,phase_1,,,,,,,,,,,,,yellow,diamond
403.0,4.0,4.0,0.0,1.0,1.0,295.5593410001711,4.0,1.0,phase_1,,,,,,,,,,,,,orange,flipped triangle
182.0,7.0,2.0,1.0,1.0,1.0,332.524112000101,4.0,1.0,phase_1,,,,,,,,,,,,,yellow,diamond
54.0,5.0,0.5,1.0,3.0,3.0,352.1143509997273,4.0,1.0,phase_1,,,,,,,,,,,,,green,triangle
103.0,6.0,1.0,1.0,1.0,1.0,440.0842150002972,4.0,1.0,phase_1,,,,,,,,,,,,,blue,circle
384.0,4.0,4.0,0.0,3.0,3.0,591.0044670004027,4.0,1.0,phase_1,,,,,,,,,,,,,orange,flipped triangle
0.0,1.0,0.0,0.0,4.0,4.0,356.9602409997969,4.0,1.0,phase_1,,,,,,,,,,,,,cyan,cross
0.0,6.0,0.0,1.0,2.0,2.0,399.1622609996739,4.0,1.0,phase_1,,,,,,,,,,,,,blue,circle
40.0,1.0,0.5,0.0,3.0,3.0,383.8896840002235,4.0,1.0,phase_1,,,,,,,,,,,,,cyan,cross
87.0,2.0,1.0,0.0,2.0,2.0,399.1387470000518,4.0,2.0,phase_1,,,,,,,,,,,,,magenta,square
0.0,8.0,0.0,1.0,2.0,2.0,288.0657740001879,4.0,1.0,phase_1,,,,,,,,,,,,,white,hexagon
87.0,6.0,1.0,1.0,3.0,3.0,408.7054629999329,4.0,1.0,phase_1,,,,,,,,,,,,,blue,circle
0.0,1.0,0.0,0.0,2.0,2.0,359.1602740002599,4.0,1.0,phase_1,,,,,,,,,,,,,cyan,cross
43.0,1.0,0.5,0.0,3.0,3.0,321.0719759999847,4.0,1.0,phase_1,,,,,,,,,,,,,cyan,cross
0.0,6.0,0.0,1.0,2.0,2.0,343.5423359997003,4.0,1.0,phase_1,,,,,,,,,,,,,blue,circle
96.0,6.0,1.0,1.0,4.0,4.0,371.849013999963,4.0,1.0,phase_1,,,,,,,,,,,,,blue,circle
84.0,6.0,1.0,1.0,1.0,1.0,393.0695609997201,4.0,1.0,phase_1,,,,,,,,,,,,,blue,circle
67.0,5.0,0.5,1.0,1.0,1.0,325.9094469999581,4.0,1.0,phase_1,,,,,,,,,,,,,green,triangle
0.0,4.0,0.0,0.0,3.0,3.0,388.3776349998697,4.0,1.0,phase_1,,,,,,,,,,,,,orange,flipped triangle
416.0,8.0,4.0,1.0,3.0,3.0,347.463842000252,4.0,1.0,phase_1,,,,,,,,,,,,,white,hexagon
0.0,2.0,0.0,0.0,3.0,3.0,385.1198070001373,4.0,1.0,phase_1,,,,,,,,,,,,,magenta,square
0.0,7.0,0.0,1.0,4.0,4.0,554.9897819996659,4.0,1.0,phase_1,,,,,,,,,,,,,yellow,diamond
416.0,8.0,4.0,1.0,4.0,4.0,359.5027239998671,4.0,1.0,phase_1,,,,,,,,,,,,,white,hexagon
210.0,7.0,2.0,1.0,3.0,3.0,347.9543260000355,4.0,1.0,phase_1,,,,,,,,,,,,,yellow,diamond
379.0,4.0,4.0,0.0,3.0,3.0,298.6550089999582,4.0,1.0,phase_1,,,,,,,,,,,,,orange,flipped triangle
96.0,2.0,1.0,0.0,3.0,3.0,422.6644200002738,4.0,1.0,phase_1,,,,,,,,,,,,,magenta,square
102.0,6.0,1.0,1.0,2.0,2.0,372.4054330000399,4.0,1.0,phase_1,,,,,,,,,,,,,blue,circle
81.0,2.0,1.0,0.0,1.0,1.0,394.8988330002976,4.0,1.0,phase_1,,,,,,,,,,,,,magenta,square
210.0,7.0,2.0,1.0,4.0,4.0,354.8461209998095,4.0,1.0,phase_1,,,,,,,,,,,,,yellow,diamond
44.0,1.0,0.5,0.0,2.0,2.0,553.4173510000073,4.0,1.0,phase_1,,,,,,,,,,,,,cyan,cross
112.0,2.0,1.0,0.0,4.0,4.0,371.65381099976,4.0,1.0,phase_1,,,,,,,,,,,,,magenta,square
35.0,5.0,0.5,1.0,3.0,3.0,370.3259930002787,4.0,1.0,phase_1,,,,,,,,,,,,,green,triangle
0.0,8.0,0.0,1.0,1.0,1.0,341.1700699998619,4.0,1.0,phase_1,,,,,,,,,,,,,white,hexagon
197.0,3.0,2.0,0.0,1.0,1.0,345.1103880001938,4.0,1.0,phase_1,,,,,,,,,,,,,gray,I
0.0,6.0,0.0,1.0,2.0,2.0,440.664106999975,4.0,1.0,phase_1,,,,,,,,,,,,,blue,circle
184.0,3.0,2.0,0.0,4.0,4.0,356.4252589999341,4.0,1.0,phase_1,,,,,,,,,,,,,gray,I
194.0,7.0,2.0,1.0,2.0,2.0,370.5540199998722,4.0,1.0,phase_1,,,,,,,,,,,,,yellow,diamond
0.0,7.0,0.0,1.0,1.0,1.0,419.6193080001649,4.0,1.0,phase_1,,,,,,,,,,,,,yellow,diamond
178.0,7.0,2.0,1.0,2.0,2.0,429.6718780001356,4.0,1.0,phase_1,,,,,,,,,,,,,yellow,diamond
123.0,6.0,1.0,1.0,2.0,2.0,430.0793659999726,4.0,1.0,phase_1,,,,,,,,,,,,,blue,circle
186.0,3.0,2.0,0.0,2.0,2.0,353.7102249997588,4.0,1.0,phase_1,,,,,,,,,,,,,gray,I
60.0,5.0,0.5,1.0,3.0,3.0,333.4938430002694,4.0,1.0,phase_1,,,,,,,,,,,,,green,triangle
96.0,6.0,1.0,1.0,3.0,3.0,338.8133849998667,4.0,1.0,phase_1,,,,,,,,,,,,,blue,circle
190.0,3.0,2.0,0.0,3.0,3.0,323.3754230000158,4.0,1.0,phase_1,,,,,,,,,,,,,gray,I
189.0,7.0,2.0,1.0,1.0,1.0,647.7194130002317,4.0,1.0,phase_1,,,,,,,,,,,,,yellow,diamond
27.0,5.0,0.5,1.0,4.0,4.0,420.6711810002161,4.0,1.0,phase_1,,,,,,,,,,,,,green,triangle
398.0,4.0,4.0,0.0,4.0,4.0,559.5508460000929,4.0,1.0,phase_1,,,,,,,,,,,,,orange,flipped triangle
122.0,2.0,1.0,0.0,3.0,3.0,427.5980259999414,4.0,1.0,phase_1,,,,,,,,,,,,,magenta,square
66.0,5.0,0.5,1.0,1.0,1.0,318.2410480003455,4.0,1.0,phase_1,,,,,,,,,,,,,green,triangle
38.0,5.0,0.5,1.0,1.0,1.0,335.0407689999883,4.0,1.0,phase_1,,,,,,,,,,,,,green,triangle
44.0,5.0,0.5,1.0,2.0,2.0,390.2159730000676,4.0,1.0,phase_1,,,,,,,,,,,,,green,triangle
378.0,8.0,4.0,1.0,2.0,2.0,348.1473289998575,4.0,1.0,phase_1,,,,,,,,,,,,,white,hexagon
0.0,6.0,0.0,1.0,4.0,4.0,363.8886989997445,4.0,1.0,phase_1,,,,,,,,,,,,,blue,circle
184.0,3.0,2.0,0.0,4.0,4.0,323.8566229997559,4.0,1.0,phase_1,,,,,,,,,,,,,gray,I
222.0,7.0,2.0,1.0,4.0,4.0,293.7466929997754,4.0,1.0,phase_1,,,,,,,,,,,,,yellow,diamond
0.0,6.0,0.0,1.0,3.0,3.0,350.6520320001982,4.0,1.0,phase_1,,,,,,,,,,,,,blue,circle
84.0,2.0,1.0,0.0,2.0,2.0,329.5445720000316,4.0,1.0,phase_1,,,,,,,,,,,,,magenta,square
203.0,3.0,2.0,0.0,2.0,2.0,353.8608230001046,4.0,1.0,phase_1,,,,,,,,,,,,,gray,I
178.0,3.0,2.0,0.0,4.0,4.0,439.6567170001617,4.0,1.0,phase_1,,,,,,,,,,,,,gray,I
206.0,3.0,2.0,0.0,3.0,3.0,345.1270790001217,4.0,1.0,phase_1,,,,,,,,,,,,,gray,I
190.0,7.0,2.0,1.0,3.0,3.0,312.8655330001493,4.0,1.0,phase_1,,,,,,,,,,,,,yellow,diamond
0.0,7.0,0.0,1.0,1.0,1.0,409.562840000035,4.0,1.0,phase_1,,,,,,,,,,,,,yellow,diamond
210.0,3.0,2.0,0.0,1.0,1.0,430.600690999654,4.0,1.0,phase_1,,,,,,,,,,,,,gray,I
35.0,1.0,0.5,0.0,3.0,3.0,389.5822049998969,4.0,1.0,phase_1,,,,,,,,,,,,,cyan,cross
0.0,1.0,0.0,0.0,4.0,4.0,439.7188500001903,4.0,1.0,phase_1,,,,,,,,,,,,,cyan,cross
48.0,1.0,0.5,0.0,3.0,3.0,414.6723959997871,4.0,1.0,phase_1,,,,,,,,,,,,,cyan,cross
115.0,2.0,1.0,0.0,2.0,2.0,389.8529580001195,4.0,1.0,phase_1,,,,,,,,,,,,,magenta,square
398.0,8.0,4.0,1.0,3.0,3.0,341.4777879997928,4.0,1.0,phase_1,,,,,,,,,,,,,white,hexagon
220.0,7.0,2.0,1.0,3.0,3.0,367.7579099999093,4.0,1.0,phase_1,,,,,,,,,,,,,yellow,diamond
184.0,7.0,2.0,1.0,3.0,3.0,289.798749000056,4.0,1.0,phase_1,,,,,,,,,,,,,yellow,diamond
79.0,6.0,1.0,1.0,4.0,4.0,405.7494210001096,4.0,1.0,phase_1,,,,,,,,,,,,,blue,circle
26.0,5.0,0.5,1.0,4.0,4.0,428.8058100000853,4.0,1.0,phase_1,,,,,,,,,,,,,green,triangle
390.0,8.0,4.0,1.0,2.0,2.0,617.5281440000617,4.0,1.0,phase_1,,,,,,,,,,,,,white,hexagon
79.0,2.0,1.0,0.0,1.0,1.0,385.4062219998013,4.0,1.0,phase_1,,,,,,,,,,,,,magenta,square
104.0,6.0,1.0,1.0,4.0,4.0,360.1355630003127,4.0,1.0,phase_1,,,,,,,,,,,,,blue,circle
397.0,8.0,4.0,1.0,1.0,1.0,352.5142250000499,4.0,1.0,phase_1,,,,,,,,,,,,,white,hexagon
84.0,2.0,1.0,0.0,4.0,4.0,426.65744299984,4.0,1.0,phase_1,,,,,,,,,,,,,magenta,square
192.0,3.0,2.0,0.0,1.0,1.0,382.499641999857,4.0,1.0,phase_1,,,,,,,,,,,,,gray,I
390.0,4.0,4.0,0.0,3.0,3.0,340.7288620001054,4.0,1.0,phase_1,,,,,,,,,,,,,orange,flipped triangle
218.0,3.0,2.0,0.0,2.0,2.0,347.7690720001192,4.0,1.0,phase_1,,,,,,,,,,,,,gray,I
192.0,7.0,2.0,1.0,2.0,2.0,396.3716429998385,4.0,1.0,phase_1,,,,,,,,,,,,,yellow,diamond
0.0,3.0,0.0,0.0,1.0,1.0,596.7382699996051,4.0,1.0,phase_1,,,,,,,,,,,,,gray,I
0.0,5.0,0.5,1.0,6.0,6.0,529.4888379999065,1.0,1.0,phase_2,stop,250.0,250.0,3.0,,,,,,,,,green,triangle
0.0,6.0,1.0,1.0,6.0,6.0,359.0126180001789,1.0,1.0,phase_2,go,250.0,200.0,1.0,,,,,,,,,blue,circle
0.0,5.0,0.5,1.0,6.0,6.0,305.1107040000715,1.0,1.0,phase_2,stop,250.0,200.0,3.0,,,,,,,,,green,triangle
0.0,5.0,0.5,1.0,5.0,0.0,0.0,1.0,1.0,phase_2,stop,250.0,150.0,4.0,,,,,,,,,green,triangle
0.0,3.0,2.0,0.0,6.0,6.0,629.9013749999176,1.0,1.0,phase_2,go,300.0,150.0,1.0,,,,,,,,,gray,I
0.0,5.0,0.5,1.0,5.0,5.0,639.5589399999153,1.0,1.0,phase_2,go,300.0,150.0,1.0,,,,,,,,,green,triangle
0.0,2.0,1.0,0.0,5.0,5.0,604.3882039998607,1.0,1.0,phase_2,go,300.0,150.0,1.0,,,,,,,,,magenta,square
0.0,5.0,0.5,1.0,6.0,0.0,0.0,1.0,1.0,phase_2,stop,300.0,150.0,4.0,,,,,,,,,green,triangle
0.0,4.0,4.0,0.0,5.0,5.0,575.0363180000022,1.0,1.0,phase_2,go,300.0,200.0,1.0,,,,,,,,,orange,flipped triangle
0.0,8.0,4.0,1.0,5.0,0.0,0.0,1.0,1.0,phase_2,stop,300.0,200.0,4.0,,,,,,,,,white,hexagon
0.0,2.0,1.0,0.0,5.0,5.0,608.2495139999082,1.0,1.0,phase_2,go,350.0,200.0,1.0,,,,,,,,,magenta,square
0.0,4.0,4.0,0.0,5.0,5.0,696.4866160001293,1.0,1.0,phase_2,go,350.0,200.0,1.0,,,,,,,,,orange,flipped triangle
0.0,6.0,1.0,1.0,6.0,0.0,0.0,1.0,1.0,phase_2,stop,350.0,200.0,4.0,,,,,,,,,blue,circle
0.0,1.0,0.5,0.0,6.0,6.0,712.5464490000013,1.0,1.0,phase_2,go,350.0,250.0,1.0,,,,,,,,,cyan,cross
0.0,3.0,2.0,0.0,6.0,6.0,691.0357549995751,1.0,1.0,phase_2,go,350.0,250.0,1.0,,,,,,,,,gray,I
0.0,5.0,0.5,1.0,6.0,0.0,0.0,1.0,1.0,phase_2,stop,350.0,250.0,4.0,,,,,,,,,green,triangle
0.0,1.0,0.5,0.0,6.0,6.0,724.0134280000348,1.0,1.0,phase_2,go,350.0,300.0,1.0,,,,,,,,,cyan,cross
0.0,1.0,0.5,0.0,6.0,6.0,745.1949250003054,1.0,1.0,phase_2,go,350.0,300.0,1.0,,,,,,,,,cyan,cross
0.0,4.0,4.0,0.0,5.0,5.0,693.0230960001609,1.0,1.0,phase_2,go,350.0,300.0,1.0,,,,,,,,,orange,flipped triangle
0.0,2.0,1.0,0.0,6.0,6.0,739.7479599999315,1.0,1.0,phase_2,go,350.0,300.0,1.0,,,,,,,,,magenta,square
0.0,8.0,4.0,1.0,6.0,6.0,796.2641119997897,1.0,1.0,phase_2,go,350.0,300.0,1.0,,,,,,,,,white,hexagon
0.0,6.0,1.0,1.0,6.0,0.0,0.0,1.0,1.0,phase_2,stop,350.0,300.0,4.0,,,,,,,,,blue,circle
0.0,3.0,2.0,0.0,6.0,6.0,676.5881670003182,1.0,1.0,phase_2,go,350.0,350.0,1.0,,,,,,,,,gray,I
0.0,4.0,4.0,0.0,6.0,6.0,886.3038689996756,1.0,1.0,phase_2,go,350.0,350.0,1.0,,,,,,,,,orange,flipped triangle
0.0,5.0,0.5,1.0,5.0,5.0,757.935752999856,1.0,1.0,phase_2,go,350.0,350.0,1.0,,,,,,,,,green,triangle
0.0,3.0,2.0,0.0,5.0,5.0,705.9411979998913,1.0,1.0,phase_2,go,350.0,350.0,1.0,,,,,,,,,gray,I
0.0,2.0,1.0,0.0,6.0,6.0,758.8357130002805,1.0,1.0,phase_2,go,350.0,350.0,1.0,,,,,,,,,magenta,square
0.0,2.0,1.0,0.0,5.0,5.0,750.9227810000993,1.0,1.0,phase_2,go,350.0,350.0,1.0,,,,,,,,,magenta,square
0.0,6.0,1.0,1.0,6.0,0.0,0.0,1.0,1.0,phase_2,stop,350.0,350.0,4.0,,,,,,,,,blue,circle
0.0,7.0,2.0,1.0,5.0,0.0,0.0,1.0,1.0,phase_2,stop,350.0,400.0,4.0,,,,,,,,,yellow,diamond
0.0,6.0,1.0,1.0,6.0,6.0,916.879384999902,1.0,1.0,phase_2,go,400.0,400.0,1.0,,,,,,,,,blue,circle
0.0,7.0,2.0,1.0,5.0,0.0,0.0,1.0,1.0,phase_2,stop,400.0,400.0,4.0,,,,,,,,,yellow,diamond
0.0,5.0,0.5,1.0,5.0,5.0,798.3187039999393,1.0,1.0,phase_2,go,450.0,400.0,1.0,,,,,,,,,green,triangle
0.0,2.0,1.0,0.0,5.0,5.0,810.2163499997914,1.0,1.0,phase_2,go,450.0,400.0,1.0,,,,,,,,,magenta,square
0.0,7.0,2.0,1.0,5.0,5.0,603.2166299996788,1.0,1.0,phase_2,go,450.0,400.0,1.0,,,,,,,,,yellow,diamond
0.0,1.0,0.5,0.0,6.0,6.0,1034.2266640000162,1.0,1.0,phase_2,go,450.0,400.0,1.0,,,,,,,,,cyan,cross
0.0,8.0,4.0,1.0,5.0,5.0,614.3035439999949,2.0,1.0,phase_2,stop,450.0,400.0,3.0,,,,,,,,,white,hexagon
0.0,6.0,1.0,1.0,5.0,0.0,0.0,2.0,1.0,phase_2,stop,400.0,400.0,4.0,,,,,,,,,blue,circle
0.0,6.0,1.0,1.0,5.0,5.0,668.5827790001895,2.0,1.0,phase_2,stop,450.0,400.0,3.0,,,,,,,,,blue,circle
0.0,1.0,0.5,0.0,6.0,6.0,619.1739220003001,2.0,1.0,phase_2,go,400.0,400.0,1.0,,,,,,,,,cyan,cross
0.0,7.0,2.0,1.0,6.0,6.0,630.5479890002061,2.0,1.0,phase_2,go,400.0,400.0,1.0,,,,,,,,,yellow,diamond
0.0,5.0,0.5,1.0,6.0,6.0,514.8064740001246,2.0,1.0,phase_2,stop,400.0,400.0,3.0,,,,,,,,,green,triangle
0.0,3.0,2.0,0.0,6.0,6.0,557.1518650003782,2.0,1.0,phase_2,go,400.0,350.0,1.0,,,,,,,,,gray,I
0.0,4.0,4.0,0.0,6.0,6.0,794.2172429998209,2.0,1.0,phase_2,go,400.0,350.0,1.0,,,,,,,,,orange,flipped triangle
0.0,8.0,4.0,1.0,6.0,6.0,425.5288169997584,2.0,1.0,phase_2,stop,400.0,350.0,3.0,,,,,,,,,white,hexagon
0.0,8.0,4.0,1.0,5.0,0.0,0.0,2.0,1.0,phase_2,stop,400.0,300.0,4.0,,,,,,,,,white,hexagon
0.0,3.0,2.0,0.0,6.0,6.0,688.5001970003941,2.0,1.0,phase_2,go,450.0,300.0,1.0,,,,,,,,,gray,I
0.0,3.0,2.0,0.0,5.0,5.0,776.7780749995836,2.0,1.0,phase_2,go,450.0,300.0,1.0,,,,,,,,,gray,I
0.0,1.0,0.5,0.0,5.0,5.0,716.95502700004,2.0,1.0,phase_2,go,450.0,300.0,1.0,,,,,,,,,cyan,cross
0.0,6.0,1.0,1.0,6.0,6.0,754.7060679999049,2.0,1.0,phase_2,go,450.0,300.0,1.0,,,,,,,,,blue,circle
0.0,2.0,1.0,0.0,5.0,5.0,468.6690410003393,2.0,1.0,phase_2,go,450.0,300.0,1.0,,,,,,,,,magenta,square
0.0,1.0,0.5,0.0,5.0,5.0,542.1810130001177,2.0,1.0,phase_2,go,450.0,300.0,1.0,,,,,,,,,cyan,cross
0.0,8.0,4.0,1.0,5.0,5.0,626.7191200004163,2.0,1.0,phase_2,stop,450.0,300.0,3.0,,,,,,,,,white,hexagon
0.0,3.0,2.0,0.0,6.0,6.0,514.4038070002352,2.0,1.0,phase_2,go,400.0,300.0,1.0,,,,,,,,,gray,I
0.0,8.0,4.0,1.0,5.0,5.0,647.7988859996913,2.0,1.0,phase_2,go,400.0,300.0,1.0,,,,,,,,,white,hexagon
0.0,3.0,2.0,0.0,5.0,5.0,568.1376869997621,2.0,1.0,phase_2,go,400.0,300.0,1.0,,,,,,,,,gray,I
0.0,1.0,0.5,0.0,6.0,6.0,638.8824370001203,2.0,1.0,phase_2,go,400.0,300.0,1.0,,,,,,,,,cyan,cross
0.0,1.0,0.5,0.0,5.0,5.0,488.3581539997976,2.0,1.0,phase_2,go,400.0,300.0,1.0,,,,,,,,,cyan,cross
0.0,8.0,4.0,1.0,6.0,6.0,486.7140599999402,2.0,1.0,phase_2,go,400.0,300.0,1.0,,,,,,,,,white,hexagon
0.0,2.0,1.0,0.0,6.0,6.0,617.104709999694,2.0,1.0,phase_2,go,400.0,300.0,1.0,,,,,,,,,magenta,square
0.0,8.0,4.0,1.0,6.0,0.0,0.0,2.0,1.0,phase_2,stop,400.0,300.0,4.0,,,,,,,,,white,hexagon
0.0,6.0,1.0,1.0,5.0,5.0,530.5872989997624,2.0,1.0,phase_2,stop,400.0,350.0,3.0,,,,,,,,,blue,circle
0.0,8.0,4.0,1.0,5.0,0.0,0.0,2.0,1.0,phase_2,stop,350.0,350.0,4.0,,,,,,,,,white,hexagon
0.0,2.0,1.0,0.0,6.0,6.0,647.373183000127,2.0,1.0,phase_2,go,400.0,350.0,1.0,,,,,,,,,magenta,square
0.0,3.0,2.0,0.0,6.0,6.0,705.0847459995566,2.0,1.0,phase_2,go,400.0,350.0,1.0,,,,,,,,,gray,I
0.0,5.0,0.5,1.0,6.0,6.0,396.4504119999219,2.0,1.0,phase_2,go,400.0,350.0,1.0,,,,,,,,,green,triangle
0.0,5.0,0.5,1.0,5.0,0.0,0.0,2.0,1.0,phase_2,stop,400.0,350.0,4.0,,,,,,,,,green,triangle
0.0,5.0,0.5,1.0,5.0,5.0,695.4125150000436,2.0,1.0,phase_2,go,450.0,350.0,1.0,,,,,,,,,green,triangle
0.0,7.0,2.0,1.0,6.0,6.0,313.6288369996691,2.0,1.0,phase_2,stop,450.0,350.0,3.0,,,,,,,,,yellow,diamond
0.0,5.0,0.5,1.0,6.0,0.0,0.0,2.0,1.0,phase_2,stop,450.0,300.0,4.0,,,,,,,,,green,triangle
0.0,3.0,2.0,0.0,6.0,6.0,696.9287619999704,2.0,1.0,phase_2,go,450.0,350.0,1.0,,,,,,,,,gray,I
0.0,3.0,2.0,0.0,6.0,6.0,638.439242000004,2.0,1.0,phase_2,go,450.0,350.0,1.0,,,,,,,,,gray,I
0.0,6.0,1.0,1.0,6.0,0.0,0.0,3.0,1.0,phase_2,stop,450.0,350.0,4.0,,,,,,,,,blue,circle
0.0,2.0,1.0,0.0,6.0,6.0,601.1744599995836,3.0,1.0,phase_2,go,450.0,400.0,1.0,,,,,,,,,magenta,square
0.0,7.0,2.0,1.0,6.0,6.0,582.4604800000088,3.0,1.0,phase_2,stop,450.0,400.0,3.0,,,,,,,,,yellow,diamond
0.0,5.0,0.5,1.0,6.0,0.0,0.0,3.0,1.0,phase_2,stop,450.0,350.0,4.0,,,,,,,,,green,triangle
0.0,6.0,1.0,1.0,5.0,5.0,564.1097990001072,3.0,1.0,phase_2,go,450.0,400.0,1.0,,,,,,,,,blue,circle
0.0,1.0,0.5,0.0,6.0,6.0,619.1625880001084,3.0,1.0,phase_2,go,450.0,400.0,1.0,,,,,,,,,cyan,cross
0.0,5.0,0.5,1.0,5.0,5.0,541.2612570003148,3.0,1.0,phase_2,stop,450.0,400.0,3.0,,,,,,,,,green,triangle
0.0,6.0,1.0,1.0,5.0,5.0,788.9526050003042,3.0,1.0,phase_2,go,400.0,400.0,1.0,,,,,,,,,blue,circle
0.0,2.0,1.0,0.0,6.0,6.0,627.0726829998239,3.0,1.0,phase_2,go,400.0,400.0,1.0,,,,,,,,,magenta,square
0.0,7.0,2.0,1.0,6.0,6.0,417.0609940001668,3.0,1.0,phase_2,go,400.0,400.0,1.0,,,,,,,,,yellow,diamond
0.0,4.0,4.0,0.0,5.0,5.0,589.2222770003173,3.0,1.0,phase_2,go,400.0,400.0,1.0,,,,,,,,,orange,flipped triangle
0.0,5.0,0.5,1.0,6.0,0.0,0.0,3.0,1.0,phase_2,stop,400.0,400.0,4.0,,,,,,,,,green,triangle
0.0,5.0,0.5,1.0,6.0,6.0,545.9345879999091,3.0,1.0,phase_2,stop,400.0,450.0,3.0,,,,,,,,,green,triangle
0.0,5.0,0.5,1.0,6.0,6.0,772.2257810000883,3.0,1.0,phase_2,go,400.0,400.0,1.0,,,,,,,,,green,triangle
0.0,7.0,2.0,1.0,6.0,0.0,0.0,3.0,1.0,phase_2,stop,400.0,400.0,4.0,,,,,,,,,yellow,diamond
0.0,7.0,2.0,1.0,6.0,0.0,0.0,3.0,1.0,phase_2,stop,400.0,450.0,4.0,,,,,,,,,yellow,diamond
0.0,5.0,0.5,1.0,6.0,0.0,0.0,3.0,1.0,phase_2,stop,400.0,500.0,4.0,,,,,,,,,green,triangle
0.0,4.0,4.0,0.0,5.0,5.0,764.0527920002569,3.0,1.0,phase_2,go,400.0,550.0,1.0,,,,,,,,,orange,flipped triangle
0.0,5.0,0.5,1.0,5.0,0.0,0.0,3.0,1.0,phase_2,stop,400.0,550.0,4.0,,,,,,,,,green,triangle
0.0,7.0,2.0,1.0,6.0,6.0,690.4460050000125,3.0,1.0,phase_2,stop,450.0,550.0,3.0,,,,,,,,,yellow,diamond
0.0,2.0,1.0,0.0,6.0,6.0,619.269216000248,3.0,1.0,phase_2,go,450.0,500.0,1.0,,,,,,,,,magenta,square
0.0,1.0,0.5,0.0,6.0,6.0,711.9181250000111,3.0,1.0,phase_2,go,450.0,500.0,1.0,,,,,,,,,cyan,cross
0.0,1.0,0.5,0.0,6.0,6.0,620.1172000000952,3.0,1.0,phase_2,go,450.0,500.0,1.0,,,,,,,,,cyan,cross
0.0,3.0,2.0,0.0,5.0,5.0,366.9692799999211,3.0,1.0,phase_2,go,450.0,500.0,1.0,,,,,,,,,gray,I
0.0,6.0,1.0,1.0,6.0,6.0,544.4959779997589,3.0,1.0,phase_2,stop,450.0,500.0,3.0,,,,,,,,,blue,circle
0.0,1.0,0.5,0.0,5.0,5.0,677.2988379998424,3.0,1.0,phase_2,go,450.0,450.0,1.0,,,,,,,,,cyan,cross
0.0,7.0,2.0,1.0,6.0,6.0,800.5308729998433,3.0,1.0,phase_2,go,450.0,450.0,1.0,,,,,,,,,yellow,diamond
0.0,8.0,4.0,1.0,5.0,0.0,0.0,3.0,1.0,phase_2,stop,450.0,450.0,4.0,,,,,,,,,white,hexagon
0.0,1.0,0.5,0.0,6.0,6.0,701.4412640000955,3.0,1.0,phase_2,go,500.0,450.0,1.0,,,,,,,,,cyan,cross
0.0,3.0,2.0,0.0,5.0,5.0,512.3762829998668,3.0,1.0,phase_2,go,500.0,450.0,1.0,,,,,,,,,gray,I
0.0,4.0,4.0,0.0,6.0,6.0,746.3019689998873,3.0,1.0,phase_2,go,500.0,450.0,1.0,,,,,,,,,orange,flipped triangle
0.0,8.0,4.0,1.0,6.0,6.0,627.6194479996775,3.0,1.0,phase_2,stop,500.0,450.0,3.0,,,,,,,,,white,hexagon
0.0,8.0,4.0,1.0,6.0,0.0,0.0,3.0,1.0,phase_2,stop,500.0,400.0,4.0,,,,,,,,,white,hexagon
0.0,1.0,0.5,0.0,5.0,5.0,757.6814330000161,3.0,1.0,phase_2,go,500.0,450.0,1.0,,,,,,,,,cyan,cross
0.0,3.0,2.0,0.0,6.0,6.0,701.1508089999552,3.0,1.0,phase_2,go,500.0,450.0,1.0,,,,,,,,,gray,I
0.0,5.0,0.5,1.0,6.0,6.0,551.5545580001344,3.0,1.0,phase_2,go,500.0,450.0,1.0,,,,,,,,,green,triangle
0.0,4.0,4.0,0.0,6.0,6.0,770.9743700002036,4.0,1.0,phase_2,go,500.0,450.0,1.0,,,,,,,,,orange,flipped triangle
0.0,1.0,0.5,0.0,6.0,6.0,388.5490650000065,4.0,1.0,phase_2,go,500.0,450.0,1.0,,,,,,,,,cyan,cross
0.0,7.0,2.0,1.0,5.0,5.0,552.9482409997399,4.0,1.0,phase_2,stop,500.0,450.0,3.0,,,,,,,,,yellow,diamond
0.0,8.0,4.0,1.0,5.0,5.0,600.1470840001275,4.0,1.0,phase_2,stop,450.0,450.0,3.0,,,,,,,,,white,hexagon
0.0,1.0,0.5,0.0,5.0,5.0,748.4091370001806,4.0,1.0,phase_2,go,400.0,450.0,1.0,,,,,,,,,cyan,cross
0.0,4.0,4.0,0.0,5.0,5.0,735.4257499996493,4.0,1.0,phase_2,go,400.0,450.0,1.0,,,,,,,,,orange,flipped triangle
0.0,1.0,0.5,0.0,5.0,5.0,668.0993630002376,4.0,1.0,phase_2,go,400.0,450.0,1.0,,,,,,,,,cyan,cross
0.0,7.0,2.0,1.0,5.0,0.0,0.0,4.0,1.0,phase_2,stop,400.0,450.0,4.0,,,,,,,,,yellow,diamond
0.0,4.0,4.0,0.0,5.0,5.0,775.2852940002413,4.0,1.0,phase_2,go,450.0,450.0,1.0,,,,,,,,,orange,flipped triangle
0.0,6.0,1.0,1.0,6.0,6.0,506.5804159999061,4.0,1.0,phase_2,stop,450.0,450.0,3.0,,,,,,,,,blue,circle
0.0,3.0,2.0,0.0,6.0,6.0,665.0140599999759,4.0,1.0,phase_2,go,450.0,400.0,1.0,,,,,,,,,gray,I
0.0,3.0,2.0,0.0,5.0,5.0,680.5159620002996,4.0,1.0,phase_2,go,450.0,400.0,1.0,,,,,,,,,gray,I
0.0,8.0,4.0,1.0,6.0,6.0,569.727968999814,4.0,1.0,phase_2,stop,450.0,400.0,3.0,,,,,,,,,white,hexagon
0.0,7.0,2.0,1.0,5.0,0.0,0.0,4.0,1.0,phase_2,stop,450.0,350.0,4.0,,,,,,,,,yellow,diamond
0.0,8.0,4.0,1.0,6.0,0.0,0.0,4.0,1.0,phase_2,stop,500.0,350.0,4.0,,,,,,,,,white,hexagon
0.0,8.0,4.0,1.0,6.0,6.0,734.6803990003536,4.0,1.0,phase_2,go,500.0,400.0,1.0,,,,,,,,,white,hexagon
0.0,8.0,4.0,1.0,6.0,6.0,523.086503000286,4.0,1.0,phase_2,stop,500.0,400.0,3.0,,,,,,,,,white,hexagon
0.0,3.0,2.0,0.0,5.0,5.0,651.7321720002656,4.0,1.0,phase_2,go,500.0,350.0,1.0,,,,,,,,,gray,I
0.0,5.0,0.5,1.0,6.0,6.0,508.10620399988693,4.0,1.0,phase_2,go,500.0,350.0,1.0,,,,,,,,,green,triangle
0.0,5.0,0.5,1.0,6.0,6.0,659.1952560002028,4.0,1.0,phase_2,go,500.0,350.0,1.0,,,,,,,,,green,triangle
0.0,4.0,4.0,0.0,6.0,6.0,686.4416979997259,4.0,1.0,phase_2,go,500.0,350.0,1.0,,,,,,,,,orange,flipped triangle
0.0,7.0,2.0,1.0,5.0,5.0,845.0240530000883,4.0,1.0,phase_2,stop,500.0,350.0,3.0,,,,,,,,,yellow,diamond
0.0,5.0,0.5,1.0,5.0,0.0,0.0,4.0,1.0,phase_2,stop,450.0,350.0,4.0,,,,,,,,,green,triangle
0.0,8.0,4.0,1.0,5.0,0.0,0.0,4.0,1.0,phase_2,stop,500.0,350.0,4.0,,,,,,,,,white,hexagon
0.0,2.0,1.0,0.0,5.0,5.0,795.8590660000482,4.0,1.0,phase_2,go,550.0,350.0,1.0,,,,,,,,,magenta,square
0.0,7.0,2.0,1.0,5.0,5.0,891.4906639997753,4.0,1.0,phase_2,go,550.0,350.0,1.0,,,,,,,,,yellow,diamond
0.0,5.0,0.5,1.0,6.0,0.0,0.0,4.0,1.0,phase_2,stop,550.0,350.0,4.0,,,,,,,,,green,triangle
0.0,2.0,1.0,0.0,5.0,5.0,715.6475629999477,4.0,1.0,phase_2,go,550.0,400.0,1.0,,,,,,,,,magenta,square
0.0,6.0,1.0,1.0,5.0,5.0,388.3823760002087,4.0,1.0,phase_2,stop,550.0,400.0,3.0,,,,,,,,,blue,circle
0.0,2.0,1.0,0.0,5.0,5.0,592.9667390000759,4.0,1.0,phase_2,go,500.0,400.0,1.0,,,,,,,,,magenta,square
0.0,7.0,2.0,1.0,6.0,0.0,0.0,4.0,1.0,phase_2,stop,500.0,400.0,4.0,,,,,,,,,yellow,diamond
0.0,4.0,4.0,0.0,5.0,5.0,650.5482210000082,4.0,1.0,phase_2,go,500.0,450.0,1.0,,,,,,,,,orange,flipped triangle
0.0,1.0,0.5,0.0,5.0,5.0,627.8384910001478,4.0,1.0,phase_2,go,500.0,450.0,1.0,,,,,,,,,cyan,cross
0.0,1.0,0.5,0.0,5.0,5.0,769.1463559999647,4.0,1.0,phase_2,go,500.0,450.0,1.0,,,,,,,,,cyan,cross
0.0,4.0,4.0,0.0,6.0,6.0,728.7165660000028,4.0,1.0,phase_2,go,500.0,450.0,1.0,,,,,,,,,orange,flipped triangle
0.0,6.0,1.0,1.0,5.0,5.0,773.2322209999438,4.0,1.0,phase_2,stop,500.0,450.0,3.0,,,,,,,,,blue,circle
0.0,6.0,1.0,1.0,5.0,5.0,586.3036999999167,5.0,1.0,phase_2,stop,450.0,450.0,3.0,,,,,,,,,blue,circle
0.0,2.0,1.0,0.0,6.0,6.0,651.3184400000682,5.0,1.0,phase_2,go,400.0,450.0,1.0,,,,,,,,,magenta,square
0.0,1.0,0.5,0.0,5.0,5.0,433.9399549999143,5.0,1.0,phase_2,go,400.0,450.0,1.0,,,,,,,,,cyan,cross
0.0,5.0,0.5,1.0,5.0,5.0,548.5376689998702,5.0,1.0,phase_2,stop,400.0,450.0,3.0,,,,,,,,,green,triangle
0.0,2.0,1.0,0.0,5.0,5.0,578.1516460001512,5.0,1.0,phase_2,go,350.0,450.0,1.0,,,,,,,,,magenta,square
0.0,2.0,1.0,0.0,6.0,6.0,564.5052529998793,5.0,1.0,phase_2,go,350.0,450.0,1.0,,,,,,,,,magenta,square
0.0,1.0,0.5,0.0,5.0,5.0,365.6855560002441,5.0,1.0,phase_2,go,350.0,450.0,1.0,,,,,,,,,cyan,cross
0.0,2.0,1.0,0.0,5.0,5.0,543.036592000135,5.0,1.0,phase_2,go,350.0,450.0,1.0,,,,,,,,,magenta,square
0.0,8.0,4.0,1.0,6.0,6.0,536.4899179999156,5.0,1.0,phase_2,stop,350.0,450.0,3.0,,,,,,,,,white,hexagon
0.0,2.0,1.0,0.0,6.0,6.0,588.9181480001753,5.0,1.0,phase_2,go,350.0,400.0,1.0,,,,,,,,,magenta,square
0.0,8.0,4.0,1.0,5.0,5.0,391.4791929996681,5.0,1.0,phase_2,stop,350.0,400.0,3.0,,,,,,,,,white,hexagon
0.0,7.0,2.0,1.0,6.0,0.0,0.0,5.0,1.0,phase_2,stop,300.0,400.0,4.0,,,,,,,,,yellow,diamond
0.0,2.0,1.0,0.0,6.0,6.0,578.2194520002122,5.0,1.0,phase_2,go,300.0,450.0,1.0,,,,,,,,,magenta,square
0.0,3.0,2.0,0.0,5.0,5.0,593.3174870001494,5.0,1.0,phase_2,go,300.0,450.0,1.0,,,,,,,,,gray,I
0.0,8.0,4.0,1.0,6.0,0.0,0.0,5.0,1.0,phase_2,stop,300.0,450.0,4.0,,,,,,,,,white,hexagon
0.0,3.0,2.0,0.0,5.0,5.0,688.8988229998176,5.0,1.0,phase_2,go,300.0,500.0,1.0,,,,,,,,,gray,I
0.0,8.0,4.0,1.0,5.0,0.0,0.0,5.0,1.0,phase_2,stop,300.0,500.0,4.0,,,,,,,,,white,hexagon
0.0,4.0,4.0,0.0,6.0,6.0,455.6181279999691,5.0,1.0,phase_2,go,350.0,500.0,1.0,,,,,,,,,orange,flipped triangle
0.0,6.0,1.0,1.0,6.0,0.0,0.0,5.0,1.0,phase_2,stop,350.0,500.0,4.0,,,,,,,,,blue,circle
0.0,3.0,2.0,0.0,5.0,5.0,590.6832720002058,5.0,1.0,phase_2,go,350.0,550.0,1.0,,,,,,,,,gray,I
0.0,3.0,2.0,0.0,6.0,6.0,615.2804020002804,5.0,1.0,phase_2,go,350.0,550.0,1.0,,,,,,,,,gray,I
0.0,2.0,1.0,0.0,5.0,5.0,496.2257679999311,5.0,1.0,phase_2,go,350.0,550.0,1.0,,,,,,,,,magenta,square
0.0,8.0,4.0,1.0,6.0,6.0,345.5388060001496,5.0,1.0,phase_2,go,350.0,550.0,1.0,,,,,,,,,white,hexagon
0.0,4.0,4.0,0.0,6.0,6.0,594.0341430000444,5.0,1.0,phase_2,go,350.0,550.0,1.0,,,,,,,,,orange,flipped triangle
0.0,4.0,4.0,0.0,5.0,5.0,576.6531409999516,5.0,1.0,phase_2,go,350.0,550.0,1.0,,,,,,,,,orange,flipped triangle
0.0,5.0,0.5,1.0,6.0,6.0,586.7125149998174,5.0,1.0,phase_2,stop,350.0,550.0,3.0,,,,,,,,,green,triangle
0.0,6.0,1.0,1.0,5.0,5.0,526.4892099999088,5.0,1.0,phase_2,go,350.0,500.0,1.0,,,,,,,,,blue,circle
0.0,7.0,2.0,1.0,6.0,6.0,540.7043320001321,5.0,1.0,phase_2,stop,350.0,500.0,3.0,,,,,,,,,yellow,diamond
0.0,8.0,4.0,1.0,5.0,5.0,569.0684650003277,5.0,1.0,phase_2,go,350.0,450.0,1.0,,,,,,,,,white,hexagon
0.0,5.0,0.5,1.0,5.0,0.0,0.0,5.0,1.0,phase_2,stop,350.0,450.0,4.0,,,,,,,,,green,triangle
0.0,4.0,4.0,0.0,6.0,6.0,515.194905000044,5.0,1.0,phase_2,go,400.0,450.0,1.0,,,,,,,,,orange,flipped triangle
0.0,7.0,2.0,1.0,5.0,5.0,613.7113310001041,5.0,1.0,phase_2,go,400.0,450.0,1.0,,,,,,,,,yellow,diamond
0.0,3.0,2.0,0.0,6.0,6.0,648.4686239996336,5.0,1.0,phase_2,go,400.0,450.0,1.0,,,,,,,,,gray,I
0.0,7.0,2.0,1.0,5.0,5.0,519.7510279999733,5.0,1.0,phase_2,stop,400.0,450.0,3.0,,,,,,,,,yellow,diamond
0.0,2.0,1.0,0.0,5.0,5.0,560.7346330002656,5.0,1.0,phase_2,go,350.0,450.0,1.0,,,,,,,,,magenta,square
0.0,8.0,4.0,1.0,5.0,5.0,640.2153110002473,5.0,1.0,phase_2,go,350.0,450.0,1.0,,,,,,,,,white,hexagon
0.0,2.0,1.0,0.0,6.0,6.0,499.2743799998607,6.0,1.0,phase_2,go,350.0,450.0,1.0,,,,,,,,,magenta,square
0.0,2.0,1.0,0.0,5.0,5.0,382.3704500000531,6.0,1.0,phase_2,go,350.0,450.0,1.0,,,,,,,,,magenta,square
0.0,6.0,1.0,1.0,5.0,5.0,393.7853649999852,6.0,1.0,phase_2,go,350.0,450.0,1.0,,,,,,,,,blue,circle
0.0,4.0,4.0,0.0,6.0,6.0,445.7366420001563,6.0,1.0,phase_2,go,350.0,450.0,1.0,,,,,,,,,orange,flipped triangle
0.0,8.0,4.0,1.0,5.0,5.0,363.9189420000548,6.0,1.0,phase_2,go,350.0,450.0,1.0,,,,,,,,,white,hexagon
0.0,1.0,0.5,0.0,5.0,5.0,518.5907309996765,6.0,1.0,phase_2,go,350.0,450.0,1.0,,,,,,,,,cyan,cross
0.0,7.0,2.0,1.0,6.0,6.0,348.1294270000035,6.0,1.0,phase_2,stop,350.0,450.0,3.0,,,,,,,,,yellow,diamond
0.0,4.0,4.0,0.0,5.0,5.0,473.4344720000081,6.0,1.0,phase_2,go,350.0,400.0,1.0,,,,,,,,,orange,flipped triangle
0.0,8.0,4.0,1.0,6.0,6.0,563.3765909997237,6.0,1.0,phase_2,stop,350.0,400.0,3.0,,,,,,,,,white,hexagon
0.0,7.0,2.0,1.0,5.0,5.0,498.1303549998301,6.0,1.0,phase_2,go,350.0,350.0,1.0,,,,,,,,,yellow,diamond
0.0,7.0,2.0,1.0,5.0,0.0,0.0,6.0,1.0,phase_2,stop,350.0,350.0,4.0,,,,,,,,,yellow,diamond
0.0,3.0,2.0,0.0,5.0,5.0,616.576446000181,6.0,1.0,phase_2,go,400.0,350.0,1.0,,,,,,,,,gray,I
0.0,8.0,4.0,1.0,5.0,0.0,0.0,6.0,1.0,phase_2,stop,400.0,350.0,4.0,,,,,,,,,white,hexagon
0.0,8.0,4.0,1.0,5.0,0.0,0.0,6.0,1.0,phase_2,stop,450.0,350.0,4.0,,,,,,,,,white,hexagon
0.0,4.0,4.0,0.0,5.0,5.0,744.3505809997077,6.0,1.0,phase_2,go,500.0,350.0,1.0,,,,,,,,,orange,flipped triangle
0.0,2.0,1.0,0.0,5.0,5.0,709.102133000215,6.0,1.0,phase_2,go,500.0,350.0,1.0,,,,,,,,,magenta,square
0.0,4.0,4.0,0.0,5.0,5.0,722.4741339996399,6.0,1.0,phase_2,go,500.0,350.0,1.0,,,,,,,,,orange,flipped triangle
0.0,8.0,4.0,1.0,6.0,0.0,0.0,6.0,1.0,phase_2,stop,500.0,350.0,4.0,,,,,,,,,white,hexagon
0.0,7.0,2.0,1.0,5.0,5.0,1111.8983369997295,6.0,1.0,phase_2,go,500.0,400.0,1.0,,,,,,,,,yellow,diamond
0.0,2.0,1.0,0.0,6.0,6.0,704.804901999978,6.0,1.0,phase_2,go,500.0,400.0,1.0,,,,,,,,,magenta,square
0.0,4.0,4.0,0.0,6.0,6.0,678.8348009999936,6.0,1.0,phase_2,go,500.0,400.0,1.0,,,,,,,,,orange,flipped triangle
0.0,6.0,1.0,1.0,6.0,0.0,0.0,6.0,1.0,phase_2,stop,500.0,400.0,4.0,,,,,,,,,blue,circle
0.0,6.0,1.0,1.0,5.0,5.0,598.0223439996735,6.0,1.0,phase_2,stop,500.0,450.0,3.0,,,,,,,,,blue,circle
0.0,4.0,4.0,0.0,6.0,6.0,824.819060000209,6.0,1.0,phase_2,go,450.0,450.0,1.0,,,,,,,,,orange,flipped triangle
0.0,8.0,4.0,1.0,6.0,6.0,558.9037579998148,6.0,1.0,phase_2,go,450.0,450.0,1.0,,,,,,,,,white,hexagon
0.0,2.0,1.0,0.0,6.0,6.0,589.1598139996859,6.0,1.0,phase_2,go,450.0,450.0,1.0,,,,,,,,,magenta,square
0.0,8.0,4.0,1.0,6.0,6.0,338.9586409998628,6.0,1.0,phase_2,stop,450.0,450.0,3.0,,,,,,,,,white,hexagon
0.0,2.0,1.0,0.0,5.0,5.0,576.2320939998062,6.0,1.0,phase_2,go,450.0,400.0,1.0,,,,,,,,,magenta,square
0.0,3.0,2.0,0.0,6.0,6.0,564.0690710001763,6.0,1.0,phase_2,go,450.0,400.0,1.0,,,,,,,,,gray,I
0.0,3.0,2.0,0.0,5.0,5.0,346.1185510000177,6.0,1.0,phase_2,go,450.0,400.0,1.0,,,,,,,,,gray,I
0.0,8.0,4.0,1.0,5.0,0.0,0.0,6.0,1.0,phase_2,stop,450.0,400.0,4.0,,,,,,,,,white,hexagon
0.0,6.0,1.0,1.0,6.0,6.0,579.6919559998059,6.0,1.0,phase_2,stop,500.0,400.0,3.0,,,,,,,,,blue,circle
0.0,4.0,4.0,0.0,5.0,5.0,620.5561439996927,6.0,1.0,phase_2,go,500.0,350.0,1.0,,,,,,,,,orange,flipped triangle
0.0,3.0,2.0,0.0,6.0,6.0,786.213330999999,6.0,1.0,phase_2,go,500.0,350.0,1.0,,,,,,,,,gray,I
0.0,1.0,0.5,0.0,5.0,5.0,419.0513029998328,6.0,1.0,phase_2,go,500.0,350.0,1.0,,,,,,,,,cyan,cross
0.0,5.0,0.5,1.0,5.0,5.0,383.9118030000463,6.0,1.0,phase_2,stop,500.0,350.0,3.0,,,,,,,,,green,triangle
0.0,6.0,1.0,1.0,6.0,0.0,0.0,7.0,1.0,phase_2,stop,450.0,350.0,4.0,,,,,,,,,blue,circle
0.0,5.0,0.5,1.0,5.0,5.0,573.7932150000233,7.0,1.0,phase_2,stop,450.0,400.0,3.0,,,,,,,,,green,triangle
0.0,3.0,2.0,0.0,5.0,5.0,445.9304150000207,7.0,1.0,phase_2,go,400.0,400.0,1.0,,,,,,,,,gray,I
0.0,1.0,0.5,0.0,6.0,6.0,438.5580620000837,7.0,1.0,phase_2,go,400.0,400.0,1.0,,,,,,,,,cyan,cross
0.0,7.0,2.0,1.0,6.0,6.0,546.082030999969,7.0,1.0,phase_2,stop,400.0,400.0,3.0,,,,,,,,,yellow,diamond
0.0,6.0,1.0,1.0,6.0,0.0,0.0,7.0,1.0,phase_2,stop,400.0,350.0,4.0,,,,,,,,,blue,circle
0.0,1.0,0.5,0.0,6.0,6.0,703.5586340002737,7.0,1.0,phase_2,go,400.0,400.0,1.0,,,,,,,,,cyan,cross
0.0,6.0,1.0,1.0,5.0,0.0,0.0,7.0,1.0,phase_2,stop,400.0,400.0,4.0,,,,,,,,,blue,circle
0.0,1.0,0.5,0.0,6.0,6.0,653.638638999837,7.0,1.0,phase_2,go,450.0,400.0,1.0,,,,,,,,,cyan,cross
0.0,7.0,2.0,1.0,5.0,5.0,356.2090939999507,7.0,1.0,phase_2,stop,450.0,400.0,3.0,,,,,,,,,yellow,diamond
0.0,1.0,0.5,0.0,6.0,6.0,541.1540570003126,7.0,1.0,phase_2,go,400.0,400.0,1.0,,,,,,,,,cyan,cross
0.0,7.0,2.0,1.0,6.0,0.0,0.0,7.0,1.0,phase_2,stop,400.0,400.0,4.0,,,,,,,,,yellow,diamond
0.0,4.0,4.0,0.0,6.0,6.0,617.2059440000339,7.0,1.0,phase_2,go,400.0,450.0,1.0,,,,,,,,,orange,flipped triangle
0.0,3.0,2.0,0.0,6.0,6.0,554.1130880001219,7.0,1.0,phase_2,go,400.0,450.0,1.0,,,,,,,,,gray,I
0.0,4.0,4.0,0.0,5.0,5.0,662.2738089999984,7.0,1.0,phase_2,go,400.0,450.0,1.0,,,,,,,,,orange,flipped triangle
0.0,1.0,0.5,0.0,5.0,5.0,631.978264999816,7.0,1.0,phase_2,go,400.0,450.0,1.0,,,,,,,,,cyan,cross
0.0,7.0,2.0,1.0,5.0,5.0,348.069174000102,7.0,1.0,phase_2,go,400.0,450.0,1.0,,,,,,,,,yellow,diamond
0.0,2.0,1.0,0.0,6.0,6.0,461.982388999786,7.0,1.0,phase_2,go,400.0,450.0,1.0,,,,,,,,,magenta,square
0.0,2.0,1.0,0.0,5.0,5.0,619.4537199999104,7.0,1.0,phase_2,go,400.0,450.0,1.0,,,,,,,,,magenta,square
0.0,7.0,2.0,1.0,6.0,6.0,491.0516700001608,7.0,1.0,phase_2,stop,400.0,450.0,3.0,,,,,,,,,yellow,diamond
0.0,1.0,0.5,0.0,6.0,6.0,629.0940529997897,7.0,1.0,phase_2,go,400.0,400.0,1.0,,,,,,,,,cyan,cross
0.0,7.0,2.0,1.0,5.0,5.0,544.0764549998676,7.0,1.0,phase_2,stop,400.0,400.0,3.0,,,,,,,,,yellow,diamond
0.0,5.0,0.5,1.0,6.0,0.0,0.0,7.0,1.0,phase_2,stop,350.0,400.0,4.0,,,,,,,,,green,triangle
0.0,8.0,4.0,1.0,5.0,0.0,0.0,7.0,1.0,phase_2,stop,350.0,450.0,4.0,,,,,,,,,white,hexagon
0.0,1.0,0.5,0.0,5.0,5.0,726.8778369998472,7.0,1.0,phase_2,go,400.0,450.0,1.0,,,,,,,,,cyan,cross
0.0,3.0,2.0,0.0,5.0,5.0,715.1235499995892,7.0,1.0,phase_2,go,400.0,450.0,1.0,,,,,,,,,gray,I
0.0,6.0,1.0,1.0,6.0,0.0,0.0,7.0,1.0,phase_2,stop,400.0,450.0,4.0,,,,,,,,,blue,circle
0.0,1.0,0.5,0.0,6.0,6.0,692.2090400003071,7.0,1.0,phase_2,go,400.0,500.0,1.0,,,,,,,,,cyan,cross
0.0,1.0,0.5,0.0,5.0,5.0,631.0247090000303,7.0,1.0,phase_2,go,400.0,500.0,1.0,,,,,,,,,cyan,cross
0.0,6.0,1.0,1.0,5.0,0.0,0.0,7.0,1.0,phase_2,stop,400.0,500.0,4.0,,,,,,,,,blue,circle
0.0,1.0,0.5,0.0,6.0,6.0,886.3284829999429,7.0,1.0,phase_2,go,450.0,500.0,1.0,,,,,,,,,cyan,cross
0.0,3.0,2.0,0.0,6.0,6.0,532.2208950001368,7.0,1.0,phase_2,go,450.0,500.0,1.0,,,,,,,,,gray,I
0.0,2.0,1.0,0.0,5.0,5.0,622.1376059997965,7.0,1.0,phase_2,go,450.0,500.0,1.0,,,,,,,,,magenta,square
0.0,8.0,4.0,1.0,6.0,6.0,612.7117860000908,7.0,1.0,phase_2,stop,450.0,500.0,3.0,,,,,,,,,white,hexagon
0.0,3.0,2.0,0.0,5.0,5.0,606.0422499999731,7.0,1.0,phase_2,go,450.0,450.0,1.0,,,,,,,,,gray,I
0.0,7.0,2.0,1.0,5.0,5.0,579.0573340000265,7.0,1.0,phase_2,stop,450.0,450.0,3.0,,,,,,,,,yellow,diamond
0.0,1.0,0.5,0.0,5.0,5.0,496.9892799999797,8.0,1.0,phase_2,go,400.0,450.0,1.0,,,,,,,,,cyan,cross
0.0,4.0,4.0,0.0,6.0,6.0,650.7533700000749,8.0,1.0,phase_2,go,400.0,450.0,1.0,,,,,,,,,orange,flipped triangle
0.0,4.0,4.0,0.0,5.0,5.0,483.4587440000177,8.0,1.0,phase_2,go,400.0,450.0,1.0,,,,,,,,,orange,flipped triangle
0.0,2.0,1.0,0.0,5.0,5.0,410.0750570000855,8.0,1.0,phase_2,go,400.0,450.0,1.0,,,,,,,,,magenta,square
0.0,5.0,0.5,1.0,5.0,5.0,506.6026680001414,8.0,1.0,phase_2,stop,400.0,450.0,3.0,,,,,,,,,green,triangle
0.0,7.0,2.0,1.0,6.0,0.0,0.0,8.0,1.0,phase_2,stop,350.0,450.0,4.0,,,,,,,,,yellow,diamond
0.0,3.0,2.0,0.0,5.0,5.0,644.8340500000995,8.0,1.0,phase_2,go,350.0,500.0,1.0,,,,,,,,,gray,I
0.0,7.0,2.0,1.0,6.0,6.0,565.9271560007255,8.0,1.0,phase_2,stop,350.0,500.0,3.0,,,,,,,,,yellow,diamond
0.0,4.0,4.0,0.0,5.0,5.0,600.5847469996297,8.0,1.0,phase_2,go,350.0,450.0,1.0,,,,,,,,,orange,flipped triangle
0.0,6.0,1.0,1.0,6.0,6.0,633.8824399999794,8.0,1.0,phase_2,go,350.0,450.0,1.0,,,,,,,,,blue,circle
0.0,2.0,1.0,0.0,6.0,6.0,543.2884310002919,8.0,1.0,phase_2,go,350.0,450.0,1.0,,,,,,,,,magenta,square
0.0,5.0,0.5,1.0,5.0,0.0,0.0,8.0,1.0,phase_2,stop,350.0,450.0,4.0,,,,,,,,,green,triangle
0.0,5.0,0.5,1.0,5.0,0.0,0.0,8.0,1.0,phase_2,stop,400.0,450.0,4.0,,,,,,,,,green,triangle
0.0,7.0,2.0,1.0,5.0,0.0,0.0,8.0,1.0,phase_2,stop,450.0,450.0,4.0,,,,,,,,,yellow,diamond
0.0,6.0,1.0,1.0,6.0,6.0,577.6976749993992,8.0,1.0,phase_2,go,500.0,450.0,1.0,,,,,,,,,blue,circle
0.0,3.0,2.0,0.0,5.0,5.0,628.1111400003283,8.0,1.0,phase_2,go,500.0,450.0,1.0,,,,,,,,,gray,I
0.0,6.0,1.0,1.0,5.0,5.0,561.2217099996997,8.0,1.0,phase_2,stop,500.0,450.0,3.0,,,,,,,,,blue,circle
0.0,1.0,0.5,0.0,5.0,5.0,730.5493390003903,8.0,1.0,phase_2,go,450.0,450.0,1.0,,,,,,,,,cyan,cross
0.0,2.0,1.0,0.0,6.0,6.0,733.7077279998994,8.0,1.0,phase_2,go,450.0,450.0,1.0,,,,,,,,,magenta,square
0.0,4.0,4.0,0.0,6.0,6.0,879.2670399998315,8.0,1.0,phase_2,go,450.0,450.0,1.0,,,,,,,,,orange,flipped triangle
0.0,4.0,4.0,0.0,6.0,6.0,627.6294869994672,8.0,1.0,phase_2,go,450.0,450.0,1.0,,,,,,,,,orange,flipped triangle
0.0,3.0,2.0,0.0,6.0,6.0,690.293816999656,8.0,1.0,phase_2,go,450.0,450.0,1.0,,,,,,,,,gray,I
0.0,6.0,1.0,1.0,5.0,0.0,0.0,8.0,1.0,phase_2,stop,450.0,450.0,4.0,,,,,,,,,blue,circle
0.0,6.0,1.0,1.0,5.0,5.0,631.1340299998847,8.0,1.0,phase_2,stop,500.0,450.0,3.0,,,,,,,,,blue,circle
0.0,2.0,1.0,0.0,6.0,6.0,624.8097099996812,8.0,1.0,phase_2,go,450.0,450.0,1.0,,,,,,,,,magenta,square
0.0,6.0,1.0,1.0,5.0,0.0,0.0,8.0,1.0,phase_2,stop,450.0,450.0,4.0,,,,,,,,,blue,circle
0.0,4.0,4.0,0.0,6.0,6.0,871.2309510001432,8.0,1.0,phase_2,go,500.0,450.0,1.0,,,,,,,,,orange,flipped triangle
0.0,6.0,1.0,1.0,6.0,0.0,0.0,8.0,1.0,phase_2,stop,500.0,450.0,4.0,,,,,,,,,blue,circle
0.0,3.0,2.0,0.0,5.0,5.0,755.4478229994857,8.0,1.0,phase_2,go,500.0,500.0,1.0,,,,,,,,,gray,I
0.0,7.0,2.0,1.0,6.0,0.0,0.0,8.0,1.0,phase_2,stop,500.0,500.0,4.0,,,,,,,,,yellow,diamond
0.0,4.0,4.0,0.0,5.0,5.0,621.0301510000136,8.0,1.0,phase_2,go,500.0,550.0,1.0,,,,,,,,,orange,flipped triangle
0.0,5.0,0.5,1.0,5.0,5.0,542.4704690003637,8.0,1.0,phase_2,stop,500.0,550.0,3.0,,,,,,,,,green,triangle
0.0,4.0,4.0,0.0,6.0,6.0,603.5613720005131,8.0,1.0,phase_2,go,450.0,550.0,1.0,,,,,,,,,orange,flipped triangle
0.0,4.0,4.0,0.0,5.0,5.0,570.217409000179,8.0,1.0,phase_2,go,450.0,550.0,1.0,,,,,,,,,orange,flipped triangle
0.0,6.0,1.0,1.0,5.0,5.0,574.0724739998768,8.0,1.0,phase_2,stop,450.0,550.0,3.0,,,,,,,,,blue,circle
0.0,5.0,0.5,1.0,5.0,5.0,572.7899720004643,8.0,1.0,phase_2,stop,400.0,550.0,3.0,,,,,,,,,green,triangle
0.0,5.0,0.5,1.0,7.0,2.0,2702.0365780008437,1.0,1.0,phase_3,,,,,176.0,4.0,132.0,176.0,88.0,44.0,220.0,264.0,green,triangle
0.0,6.0,1.0,1.0,7.0,6.0,2128.8458300005004,1.0,1.0,phase_3,,,,,170.0,5.0,34.0,204.0,68.0,136.0,102.0,170.0,blue,circle
0.0,2.0,1.0,0.0,7.0,4.0,3063.581673000044,1.0,1.0,phase_3,,,,,270.0,5.0,162.0,216.0,324.0,270.0,54.0,108.0,magenta,square
0.0,6.0,1.0,1.0,7.0,5.0,2837.6416990004145,1.0,1.0,phase_3,,,,,234.0,6.0,78.0,39.0,117.0,195.0,234.0,156.0,blue,circle
0.0,6.0,1.0,1.0,7.0,3.0,3070.9003869997105,1.0,1.0,phase_3,,,,,204.0,6.0,170.0,102.0,204.0,136.0,34.0,68.0,blue,circle
0.0,2.0,1.0,0.0,7.0,4.0,2344.1877549994388,1.0,1.0,phase_3,,,,,264.0,6.0,44.0,132.0,176.0,264.0,220.0,88.0,magenta,square
0.0,4.0,4.0,0.0,7.0,6.0,2044.4307110001319,1.0,1.0,phase_3,,,,,117.0,3.0,195.0,78.0,39.0,234.0,156.0,117.0,orange,flipped triangle
0.0,1.0,0.5,0.0,7.0,1.0,1970.335345999956,1.0,1.0,phase_3,,,,,136.0,4.0,136.0,34.0,170.0,102.0,68.0,204.0,cyan,cross
0.0,1.0,0.5,0.0,7.0,2.0,2602.6617099996656,1.0,1.0,phase_3,,,,,44.0,1.0,132.0,44.0,176.0,88.0,264.0,220.0,cyan,cross
0.0,5.0,0.5,1.0,7.0,2.0,1952.4133750001056,1.0,1.0,phase_3,,,,,54.0,1.0,270.0,54.0,108.0,162.0,216.0,324.0,green,triangle
0.0,7.0,2.0,1.0,7.0,3.0,2223.158325999975,1.0,1.0,phase_3,,,,,136.0,4.0,170.0,102.0,136.0,204.0,34.0,68.0,yellow,diamond
0.0,5.0,0.5,1.0,7.0,4.0,1982.501393000348,1.0,1.0,phase_3,,,,,264.0,6.0,88.0,176.0,44.0,264.0,132.0,220.0,green,triangle
0.0,3.0,2.0,0.0,7.0,2.0,1791.0946550000515,1.0,1.0,phase_3,,,,,270.0,5.0,216.0,270.0,324.0,54.0,108.0,162.0,gray,I
0.0,6.0,1.0,1.0,7.0,4.0,2013.6950010000878,1.0,1.0,phase_3,,,,,49.0,1.0,147.0,196.0,245.0,49.0,294.0,98.0,blue,circle
0.0,3.0,2.0,0.0,7.0,3.0,2450.1610639999853,1.0,1.0,phase_3,,,,,195.0,5.0,78.0,156.0,195.0,117.0,39.0,234.0,gray,I
0.0,1.0,0.5,0.0,7.0,4.0,2648.79043000019,1.0,1.0,phase_3,,,,,78.0,2.0,234.0,195.0,117.0,78.0,156.0,39.0,cyan,cross
0.0,4.0,4.0,0.0,7.0,5.0,1784.9151150003308,1.0,1.0,phase_3,,,,,132.0,3.0,220.0,44.0,88.0,176.0,132.0,264.0,orange,flipped triangle
0.0,8.0,4.0,1.0,7.0,3.0,2809.2769889999545,1.0,1.0,phase_3,,,,,220.0,5.0,176.0,264.0,220.0,44.0,88.0,132.0,white,hexagon
0.0,4.0,4.0,0.0,7.0,1.0,1147.9591979996258,1.0,1.0,phase_3,,,,,108.0,2.0,108.0,324.0,270.0,162.0,216.0,54.0,orange,flipped triangle
0.0,7.0,2.0,1.0,7.0,4.0,2117.8592639998897,1.0,1.0,phase_3,,,,,156.0,4.0,234.0,39.0,78.0,156.0,117.0,195.0,yellow,diamond
0.0,1.0,0.5,0.0,7.0,4.0,1440.963033999651,2.0,1.0,phase_3,,,,,156.0,4.0,195.0,234.0,117.0,156.0,39.0,78.0,cyan,cross
0.0,7.0,2.0,1.0,7.0,1.0,2579.522549000103,2.0,1.0,phase_3,,,,,245.0,5.0,245.0,98.0,49.0,147.0,294.0,196.0,yellow,diamond
0.0,6.0,1.0,1.0,7.0,4.0,2528.0599509997046,2.0,1.0,phase_3,,,,,162.0,3.0,324.0,54.0,270.0,162.0,108.0,216.0,blue,circle
0.0,3.0,2.0,0.0,7.0,5.0,1332.0296809997672,2.0,1.0,phase_3,,,,,98.0,2.0,245.0,49.0,147.0,294.0,98.0,196.0,gray,I
0.0,7.0,2.0,1.0,7.0,2.0,1559.7184070002186,2.0,1.0,phase_3,,,,,216.0,4.0,324.0,216.0,162.0,54.0,270.0,108.0,yellow,diamond
0.0,4.0,4.0,0.0,7.0,3.0,1530.9300219996658,2.0,1.0,phase_3,,,,,324.0,6.0,162.0,108.0,324.0,216.0,270.0,54.0,orange,flipped triangle
0.0,4.0,4.0,0.0,7.0,3.0,1833.5046319998585,2.0,1.0,phase_3,,,,,147.0,3.0,245.0,98.0,147.0,49.0,196.0,294.0,orange,flipped triangle
0.0,8.0,4.0,1.0,7.0,5.0,3658.741874000043,2.0,1.0,phase_3,,,,,270.0,5.0,162.0,324.0,54.0,216.0,270.0,108.0,white,hexagon
0.0,1.0,0.5,0.0,7.0,1.0,2043.419420999271,2.0,1.0,phase_3,,,,,324.0,6.0,324.0,108.0,216.0,54.0,270.0,162.0,cyan,cross
0.0,3.0,2.0,0.0,7.0,3.0,1812.810442999762,2.0,1.0,phase_3,,,,,102.0,3.0,136.0,34.0,102.0,68.0,204.0,170.0,gray,I
0.0,6.0,1.0,1.0,7.0,5.0,1189.130094000575,2.0,1.0,phase_3,,,,,196.0,4.0,294.0,245.0,98.0,49.0,196.0,147.0,blue,circle
0.0,5.0,0.5,1.0,7.0,6.0,1305.9625730002151,2.0,1.0,phase_3,,,,,196.0,4.0,98.0,245.0,147.0,49.0,294.0,196.0,green,triangle
0.0,8.0,4.0,1.0,7.0,2.0,1598.211079000066,2.0,1.0,phase_3,,,,,195.0,5.0,156.0,195.0,39.0,234.0,78.0,117.0,white,hexagon
0.0,4.0,4.0,0.0,7.0,6.0,2787.7743540002484,2.0,1.0,phase_3,,,,,34.0,1.0,136.0,204.0,102.0,170.0,68.0,34.0,orange,flipped triangle
0.0,6.0,1.0,1.0,7.0,3.0,3016.0813279999275,2.0,1.0,phase_3,,,,,117.0,3.0,39.0,234.0,117.0,195.0,78.0,156.0,blue,circle
0.0,3.0,2.0,0.0,7.0,4.0,2670.717547000095,2.0,1.0,phase_3,,,,,156.0,4.0,39.0,117.0,195.0,156.0,78.0,234.0,gray,I
0.0,6.0,1.0,1.0,7.0,5.0,2924.656455999866,2.0,1.0,phase_3,,,,,220.0,5.0,88.0,44.0,264.0,132.0,220.0,176.0,blue,circle
0.0,8.0,4.0,1.0,7.0,6.0,1676.7999610001425,2.0,1.0,phase_3,,,,,216.0,4.0,108.0,162.0,270.0,324.0,54.0,216.0,white,hexagon
0.0,8.0,4.0,1.0,7.0,3.0,2147.841940000035,2.0,1.0,phase_3,,,,,147.0,3.0,98.0,196.0,147.0,294.0,49.0,245.0,white,hexagon
0.0,1.0,0.5,0.0,7.0,1.0,1828.7786609998875,2.0,1.0,phase_3,,,,,98.0,2.0,98.0,49.0,196.0,147.0,245.0,294.0,cyan,cross
0.0,7.0,2.0,1.0,7.0,4.0,1556.599919999826,3.0,1.0,phase_3,,,,,132.0,3.0,264.0,44.0,88.0,132.0,220.0,176.0,yellow,diamond
0.0,1.0,0.5,0.0,7.0,1.0,1480.1329850006368,3.0,1.0,phase_3,,,,,204.0,6.0,204.0,136.0,170.0,68.0,102.0,34.0,cyan,cross
0.0,8.0,4.0,1.0,7.0,2.0,1720.610425999439,3.0,1.0,phase_3,,,,,170.0,5.0,68.0,170.0,102.0,34.0,136.0,204.0,white,hexagon
0.0,2.0,1.0,0.0,7.0,2.0,2314.268861000528,3.0,1.0,phase_3,,,,,195.0,5.0,156.0,195.0,234.0,78.0,117.0,39.0,magenta,square
0.0,8.0,4.0,1.0,7.0,5.0,2190.6264099998225,3.0,1.0,phase_3,,,,,294.0,6.0,245.0,49.0,147.0,98.0,294.0,196.0,white,hexagon
0.0,5.0,0.5,1.0,7.0,2.0,2869.869729999664,3.0,1.0,phase_3,,,,,39.0,1.0,234.0,39.0,156.0,195.0,78.0,117.0,green,triangle
0.0,7.0,2.0,1.0,7.0,5.0,2449.798089000069,3.0,1.0,phase_3,,,,,245.0,5.0,196.0,98.0,147.0,49.0,245.0,294.0,yellow,diamond
0.0,5.0,0.5,1.0,7.0,1.0,1435.9674760007692,3.0,1.0,phase_3,,,,,147.0,3.0,147.0,49.0,98.0,196.0,294.0,245.0,green,triangle
0.0,1.0,0.5,0.0,7.0,3.0,1379.6375470001294,3.0,1.0,phase_3,,,,,108.0,2.0,162.0,54.0,108.0,324.0,216.0,270.0,cyan,cross
0.0,5.0,0.5,1.0,7.0,5.0,1419.3762000004426,3.0,1.0,phase_3,,,,,156.0,4.0,39.0,78.0,195.0,117.0,156.0,234.0,green,triangle
0.0,8.0,4.0,1.0,7.0,2.0,3349.5602090006287,3.0,1.0,phase_3,,,,,136.0,4.0,170.0,136.0,68.0,102.0,204.0,34.0,white,hexagon
0.0,3.0,2.0,0.0,7.0,2.0,4201.51863800038,3.0,1.0,phase_3,,,,,220.0,5.0,176.0,220.0,264.0,88.0,132.0,44.0,gray,I
0.0,4.0,4.0,0.0,7.0,4.0,1416.6156480005156,3.0,1.0,phase_3,,,,,245.0,5.0,294.0,98.0,147.0,245.0,49.0,196.0,orange,flipped triangle
0.0,2.0,1.0,0.0,7.0,5.0,2815.446324999357,3.0,1.0,phase_3,,,,,88.0,2.0,44.0,132.0,264.0,176.0,88.0,220.0,magenta,square
0.0,4.0,4.0,0.0,7.0,1.0,2341.0343650002687,3.0,1.0,phase_3,,,,,195.0,5.0,195.0,78.0,156.0,117.0,39.0,234.0,orange,flipped triangle
0.0,8.0,4.0,1.0,7.0,6.0,2625.569147000533,3.0,1.0,phase_3,,,,,234.0,6.0,156.0,78.0,195.0,39.0,117.0,234.0,white,hexagon
0.0,7.0,2.0,1.0,7.0,4.0,4271.366037000007,3.0,1.0,phase_3,,,,,204.0,6.0,170.0,68.0,34.0,204.0,102.0,136.0,yellow,diamond
0.0,6.0,1.0,1.0,7.0,4.0,3359.4494230001146,3.0,1.0,phase_3,,,,,216.0,4.0,270.0,108.0,324.0,216.0,162.0,54.0,blue,circle
0.0,3.0,2.0,0.0,7.0,6.0,3237.0780569999624,3.0,1.0,phase_3,,,,,147.0,3.0,49.0,294.0,98.0,245.0,196.0,147.0,gray,I
0.0,1.0,0.5,0.0,7.0,4.0,2080.1253919999,3.0,1.0,phase_3,,,,,49.0,1.0,196.0,147.0,294.0,49.0,245.0,98.0,cyan,cross
0.0,2.0,1.0,0.0,7.0,5.0,3276.241962000313,4.0,1.0,phase_3,,,,,34.0,1.0,102.0,136.0,170.0,204.0,34.0,68.0,magenta,square
0.0,2.0,1.0,0.0,7.0,5.0,1360.3279730004942,4.0,1.0,phase_3,,,,,49.0,1.0,147.0,98.0,245.0,196.0,49.0,294.0,magenta,square
0.0,7.0,2.0,1.0,7.0,2.0,1048.6564659995563,4.0,1.0,phase_3,,,,,220.0,5.0,176.0,220.0,88.0,44.0,264.0,132.0,yellow,diamond
0.0,2.0,1.0,0.0,7.0,3.0,2056.4768170006573,4.0,1.0,phase_3,,,,,147.0,3.0,49.0,196.0,147.0,294.0,98.0,245.0,magenta,square
0.0,2.0,1.0,0.0,7.0,1.0,1549.7830989997965,4.0,1.0,phase_3,,,,,270.0,5.0,270.0,324.0,216.0,162.0,108.0,54.0,magenta,square
0.0,7.0,2.0,1.0,7.0,5.0,1603.3039839994672,4.0,1.0,phase_3,,,,,162.0,3.0,270.0,108.0,324.0,54.0,162.0,216.0,yellow,diamond
0.0,2.0,1.0,0.0,7.0,6.0,1768.6062410002703,4.0,1.0,phase_3,,,,,117.0,3.0,39.0,195.0,78.0,156.0,234.0,117.0,magenta,square
0.0,5.0,0.5,1.0,7.0,5.0,1591.4633029997276,4.0,1.0,phase_3,,,,,270.0,5.0,108.0,324.0,216.0,162.0,270.0,54.0,green,triangle
0.0,8.0,4.0,1.0,7.0,2.0,1991.0722100003115,4.0,1.0,phase_3,,,,,88.0,2.0,132.0,88.0,176.0,264.0,44.0,220.0,white,hexagon
0.0,3.0,2.0,0.0,7.0,3.0,1157.7294259996052,4.0,1.0,phase_3,,,,,102.0,3.0,170.0,68.0,102.0,204.0,34.0,136.0,gray,I
0.0,3.0,2.0,0.0,7.0,3.0,1633.2018470002367,4.0,1.0,phase_3,,,,,176.0,4.0,44.0,88.0,176.0,132.0,220.0,264.0,gray,I
0.0,6.0,1.0,1.0,7.0,5.0,1718.0103880000388,4.0,1.0,phase_3,,,,,264.0,6.0,176.0,88.0,44.0,220.0,264.0,132.0,blue,circle
0.0,5.0,0.5,1.0,7.0,5.0,1961.2462539998887,4.0,1.0,phase_3,,,,,68.0,2.0,102.0,204.0,170.0,136.0,68.0,34.0,green,triangle
0.0,4.0,4.0,0.0,7.0,1.0,1828.0892720003976,4.0,1.0,phase_3,,,,,136.0,4.0,136.0,170.0,102.0,204.0,68.0,34.0,orange,flipped triangle
0.0,5.0,0.5,1.0,7.0,6.0,2363.6839769997096,4.0,1.0,phase_3,,,,,170.0,5.0,136.0,68.0,204.0,34.0,102.0,170.0,green,triangle
0.0,1.0,0.5,0.0,7.0,5.0,2813.3950860001282,4.0,1.0,phase_3,,,,,220.0,5.0,176.0,264.0,44.0,88.0,220.0,132.0,cyan,cross
0.0,3.0,2.0,0.0,7.0,3.0,2160.0971940006275,4.0,1.0,phase_3,,,,,270.0,5.0,162.0,216.0,270.0,324.0,108.0,54.0,gray,I
0.0,7.0,2.0,1.0,7.0,1.0,2936.749331999636,4.0,1.0,phase_3,,,,,78.0,2.0,78.0,234.0,117.0,195.0,156.0,39.0,yellow,diamond
0.0,2.0,1.0,0.0,7.0,5.0,2018.2206070003303,4.0,1.0,phase_3,,,,,204.0,6.0,34.0,68.0,136.0,170.0,204.0,102.0,magenta,square
0.0,4.0,4.0,0.0,7.0,2.0,2660.827959000017,4.0,1.0,phase_3,,,,,176.0,4.0,44.0,176.0,264.0,88.0,132.0,220.0,orange,flipped triangle
