raw_reward_magnitude,stim_reward,stepwise_reward_magnitude,paired_with_stopping,stim_location,response,reaction_time,block,num_trial_presentations,which_phase,stop_signal_trial_type,left_SSD,right_SSD,accuracy,chosen_bidding_amount,chosen_bidding_level,possible_bid_1,possible_bid_2,possible_bid_3,possible_bid_4,possible_bid_5,possible_bid_6,color_text,shape_text
0.0,5.0,0.0,1.0,1.0,1.0,358.2033960010449,1.0,1.0,phase_1,,,,,,,,,,,,,blue,circle
0.0,4.0,0.0,0.0,2.0,2.0,420.4277729986643,1.0,1.0,phase_1,,,,,,,,,,,,,orange,cross
103.0,6.0,2.0,1.0,2.0,2.0,395.7537229980516,1.0,1.0,phase_1,,,,,,,,,,,,,white,triangle
0.0,4.0,0.0,0.0,2.0,2.0,326.8644609997864,1.0,1.0,phase_1,,,,,,,,,,,,,orange,cross
26.0,5.0,1.0,1.0,2.0,2.0,320.9511490022123,1.0,1.0,phase_1,,,,,,,,,,,,,blue,circle
213.0,7.0,3.0,1.0,3.0,3.0,316.1911480019626,1.0,1.0,phase_1,,,,,,,,,,,,,magenta,hexagon
112.0,6.0,2.0,1.0,1.0,1.0,329.4501390009827,1.0,1.0,phase_1,,,,,,,,,,,,,white,triangle
181.0,3.0,3.0,0.0,2.0,2.0,333.7301739993563,1.0,1.0,phase_1,,,,,,,,,,,,,cyan,I
75.0,2.0,2.0,0.0,4.0,4.0,351.454896001087,1.0,1.0,phase_1,,,,,,,,,,,,,yellow,diamond
111.0,2.0,2.0,0.0,3.0,3.0,298.5581920002005,1.0,1.0,phase_1,,,,,,,,,,,,,yellow,diamond
0.0,4.0,0.0,0.0,2.0,2.0,302.4238880025223,1.0,1.0,phase_1,,,,,,,,,,,,,orange,cross
42.0,5.0,1.0,1.0,1.0,1.0,305.7660259983095,1.0,1.0,phase_1,,,,,,,,,,,,,blue,circle
400.0,4.0,4.0,0.0,2.0,2.0,304.8541960015427,1.0,1.0,phase_1,,,,,,,,,,,,,orange,cross
181.0,3.0,3.0,0.0,4.0,4.0,320.4348200015374,1.0,1.0,phase_1,,,,,,,,,,,,,cyan,I
213.0,3.0,3.0,0.0,4.0,4.0,294.2603539995616,1.0,1.0,phase_1,,,,,,,,,,,,,cyan,I
224.0,7.0,3.0,1.0,4.0,4.0,301.0049120020994,1.0,1.0,phase_1,,,,,,,,,,,,,magenta,hexagon
399.0,8.0,4.0,1.0,1.0,1.0,308.8732249998429,1.0,1.0,phase_1,,,,,,,,,,,,,green,square
217.0,3.0,3.0,0.0,2.0,2.0,324.6474699990358,1.0,1.0,phase_1,,,,,,,,,,,,,cyan,I
423.0,8.0,4.0,1.0,1.0,1.0,312.445736999507,1.0,2.0,phase_1,,,,,,,,,,,,,green,square
203.0,3.0,3.0,0.0,4.0,4.0,343.8917140010744,1.0,1.0,phase_1,,,,,,,,,,,,,cyan,I
0.0,7.0,0.0,1.0,2.0,2.0,330.5710540007567,1.0,1.0,phase_1,,,,,,,,,,,,,magenta,hexagon
0.0,2.0,0.0,0.0,3.0,3.0,297.1189479976601,1.0,1.0,phase_1,,,,,,,,,,,,,yellow,diamond
405.0,4.0,4.0,0.0,4.0,4.0,297.8267899998172,1.0,1.0,phase_1,,,,,,,,,,,,,orange,cross
389.0,4.0,4.0,0.0,3.0,3.0,329.7123510019446,1.0,1.0,phase_1,,,,,,,,,,,,,orange,cross
181.0,7.0,3.0,1.0,1.0,1.0,292.968755999027,1.0,1.0,phase_1,,,,,,,,,,,,,magenta,hexagon
51.0,5.0,1.0,1.0,3.0,3.0,337.1927469997899,1.0,1.0,phase_1,,,,,,,,,,,,,blue,circle
45.0,5.0,1.0,1.0,4.0,4.0,327.6265409986081,1.0,1.0,phase_1,,,,,,,,,,,,,blue,circle
224.0,3.0,3.0,0.0,3.0,3.0,361.3903869991191,1.0,1.0,phase_1,,,,,,,,,,,,,cyan,I
105.0,2.0,2.0,0.0,4.0,4.0,305.7615919969976,1.0,1.0,phase_1,,,,,,,,,,,,,yellow,diamond
0.0,2.0,0.0,0.0,3.0,3.0,350.2506069999072,1.0,1.0,phase_1,,,,,,,,,,,,,yellow,diamond
185.0,7.0,3.0,1.0,2.0,2.0,373.3647959998052,1.0,1.0,phase_1,,,,,,,,,,,,,magenta,hexagon
401.0,8.0,4.0,1.0,4.0,4.0,315.0591880003048,1.0,1.0,phase_1,,,,,,,,,,,,,green,square
0.0,2.0,0.0,0.0,3.0,3.0,345.4952319989388,1.0,1.0,phase_1,,,,,,,,,,,,,yellow,diamond
0.0,6.0,0.0,1.0,2.0,2.0,370.476365002105,1.0,1.0,phase_1,,,,,,,,,,,,,white,triangle
399.0,4.0,4.0,0.0,4.0,4.0,339.0770659971167,1.0,1.0,phase_1,,,,,,,,,,,,,orange,cross
62.0,1.0,1.0,0.0,2.0,2.0,402.8013330025715,1.0,1.0,phase_1,,,,,,,,,,,,,gray,flipped triangle
66.0,1.0,1.0,0.0,4.0,4.0,366.2830979992577,1.0,1.0,phase_1,,,,,,,,,,,,,gray,flipped triangle
392.0,4.0,4.0,0.0,3.0,3.0,332.4795099979383,1.0,1.0,phase_1,,,,,,,,,,,,,orange,cross
67.0,5.0,1.0,1.0,4.0,4.0,322.6642359986726,1.0,1.0,phase_1,,,,,,,,,,,,,blue,circle
35.0,5.0,1.0,1.0,2.0,2.0,373.9592560013989,1.0,1.0,phase_1,,,,,,,,,,,,,blue,circle
415.0,4.0,4.0,0.0,3.0,3.0,339.2789290010114,1.0,1.0,phase_1,,,,,,,,,,,,,orange,cross
381.0,8.0,4.0,1.0,3.0,3.0,347.9425220029952,1.0,1.0,phase_1,,,,,,,,,,,,,green,square
0.0,7.0,0.0,1.0,2.0,2.0,374.270628002705,1.0,1.0,phase_1,,,,,,,,,,,,,magenta,hexagon
217.0,7.0,3.0,1.0,3.0,3.0,340.6185839994577,1.0,1.0,phase_1,,,,,,,,,,,,,magenta,hexagon
414.0,4.0,4.0,0.0,3.0,3.0,336.3580700024613,1.0,1.0,phase_1,,,,,,,,,,,,,orange,cross
387.0,4.0,4.0,0.0,1.0,1.0,455.4838819967699,1.0,1.0,phase_1,,,,,,,,,,,,,orange,cross
52.0,5.0,1.0,1.0,3.0,3.0,347.6480879980954,1.0,1.0,phase_1,,,,,,,,,,,,,blue,circle
103.0,2.0,2.0,0.0,2.0,2.0,418.9406999976199,1.0,1.0,phase_1,,,,,,,,,,,,,yellow,diamond
0.0,1.0,0.0,0.0,4.0,4.0,380.076261000795,1.0,1.0,phase_1,,,,,,,,,,,,,gray,flipped triangle
405.0,8.0,4.0,1.0,3.0,3.0,533.4556479974708,1.0,1.0,phase_1,,,,,,,,,,,,,green,square
0.0,1.0,0.0,0.0,2.0,2.0,361.412977999862,1.0,2.0,phase_1,,,,,,,,,,,,,gray,flipped triangle
410.0,4.0,4.0,0.0,2.0,2.0,395.776580000529,1.0,1.0,phase_1,,,,,,,,,,,,,orange,cross
63.0,1.0,1.0,0.0,2.0,2.0,441.5112140013661,1.0,1.0,phase_1,,,,,,,,,,,,,gray,flipped triangle
0.0,1.0,0.0,0.0,1.0,1.0,334.1681710007833,1.0,1.0,phase_1,,,,,,,,,,,,,gray,flipped triangle
37.0,5.0,1.0,1.0,2.0,2.0,347.5000680009543,1.0,1.0,phase_1,,,,,,,,,,,,,blue,circle
95.0,6.0,2.0,1.0,3.0,3.0,341.6088539997872,1.0,1.0,phase_1,,,,,,,,,,,,,white,triangle
0.0,6.0,0.0,1.0,2.0,2.0,344.2019409994827,1.0,1.0,phase_1,,,,,,,,,,,,,white,triangle
42.0,5.0,1.0,1.0,2.0,2.0,370.1313669989758,1.0,1.0,phase_1,,,,,,,,,,,,,blue,circle
0.0,1.0,0.0,0.0,3.0,3.0,352.2867299980134,1.0,1.0,phase_1,,,,,,,,,,,,,gray,flipped triangle
75.0,5.0,1.0,1.0,3.0,3.0,343.5373679967597,1.0,1.0,phase_1,,,,,,,,,,,,,blue,circle
0.0,5.0,0.0,1.0,3.0,3.0,356.9819370022742,1.0,1.0,phase_1,,,,,,,,,,,,,blue,circle
0.0,6.0,0.0,1.0,4.0,4.0,350.2173509987187,1.0,1.0,phase_1,,,,,,,,,,,,,white,triangle
399.0,8.0,4.0,1.0,4.0,4.0,397.8658089981763,1.0,1.0,phase_1,,,,,,,,,,,,,green,square
0.0,2.0,0.0,0.0,4.0,4.0,343.1516439995903,1.0,1.0,phase_1,,,,,,,,,,,,,yellow,diamond
400.0,4.0,4.0,0.0,2.0,2.0,356.8875900018611,1.0,1.0,phase_1,,,,,,,,,,,,,orange,cross
224.0,3.0,3.0,0.0,2.0,2.0,401.7008939990774,1.0,1.0,phase_1,,,,,,,,,,,,,cyan,I
409.0,8.0,4.0,1.0,4.0,4.0,661.426921000384,1.0,1.0,phase_1,,,,,,,,,,,,,green,square
117.0,2.0,2.0,0.0,2.0,2.0,346.040794000146,1.0,1.0,phase_1,,,,,,,,,,,,,yellow,diamond
219.0,7.0,3.0,1.0,2.0,2.0,461.1497219993907,1.0,1.0,phase_1,,,,,,,,,,,,,magenta,hexagon
189.0,3.0,3.0,0.0,4.0,4.0,358.3568399990327,1.0,1.0,phase_1,,,,,,,,,,,,,cyan,I
396.0,4.0,4.0,0.0,3.0,3.0,586.1800580023555,1.0,1.0,phase_1,,,,,,,,,,,,,orange,cross
75.0,1.0,1.0,0.0,1.0,1.0,398.5696099989582,1.0,1.0,phase_1,,,,,,,,,,,,,gray,flipped triangle
0.0,4.0,0.0,0.0,3.0,3.0,400.8949290000601,1.0,1.0,phase_1,,,,,,,,,,,,,orange,cross
97.0,6.0,2.0,1.0,3.0,3.0,381.2612969995825,1.0,1.0,phase_1,,,,,,,,,,,,,white,triangle
101.0,6.0,2.0,1.0,3.0,3.0,381.6622830017877,1.0,1.0,phase_1,,,,,,,,,,,,,white,triangle
0.0,5.0,0.0,1.0,3.0,3.0,342.4127059988677,1.0,1.0,phase_1,,,,,,,,,,,,,blue,circle
223.0,3.0,3.0,0.0,4.0,4.0,322.5049700013187,1.0,1.0,phase_1,,,,,,,,,,,,,cyan,I
214.0,7.0,3.0,1.0,3.0,3.0,376.5059070028655,1.0,1.0,phase_1,,,,,,,,,,,,,magenta,hexagon
101.0,2.0,2.0,0.0,3.0,3.0,338.7645650000195,1.0,1.0,phase_1,,,,,,,,,,,,,yellow,diamond
78.0,6.0,2.0,1.0,4.0,4.0,343.2216619985411,1.0,1.0,phase_1,,,,,,,,,,,,,white,triangle
0.0,8.0,0.0,1.0,1.0,1.0,468.635789999098,1.0,1.0,phase_1,,,,,,,,,,,,,green,square
188.0,7.0,3.0,1.0,1.0,1.0,458.7924300030863,1.0,1.0,phase_1,,,,,,,,,,,,,magenta,hexagon
0.0,8.0,0.0,1.0,3.0,3.0,376.7841910012066,1.0,1.0,phase_1,,,,,,,,,,,,,green,square
92.0,6.0,2.0,1.0,1.0,1.0,323.1270880023658,1.0,1.0,phase_1,,,,,,,,,,,,,white,triangle
209.0,7.0,3.0,1.0,3.0,3.0,423.5519750000094,1.0,1.0,phase_1,,,,,,,,,,,,,magenta,hexagon
223.0,3.0,3.0,0.0,3.0,3.0,493.1100119974871,1.0,1.0,phase_1,,,,,,,,,,,,,cyan,I
105.0,2.0,2.0,0.0,4.0,4.0,370.6124320015078,1.0,1.0,phase_1,,,,,,,,,,,,,yellow,diamond
180.0,7.0,3.0,1.0,4.0,4.0,341.2515579984756,1.0,1.0,phase_1,,,,,,,,,,,,,magenta,hexagon
25.0,5.0,1.0,1.0,2.0,2.0,376.7776700005925,1.0,1.0,phase_1,,,,,,,,,,,,,blue,circle
0.0,3.0,0.0,0.0,1.0,1.0,397.7557229991362,1.0,1.0,phase_1,,,,,,,,,,,,,cyan,I
0.0,3.0,0.0,0.0,1.0,1.0,381.5717949983082,1.0,1.0,phase_1,,,,,,,,,,,,,cyan,I
31.0,5.0,1.0,1.0,4.0,4.0,323.4217160024855,1.0,1.0,phase_1,,,,,,,,,,,,,blue,circle
47.0,5.0,1.0,1.0,3.0,3.0,469.2934800004877,1.0,1.0,phase_1,,,,,,,,,,,,,blue,circle
223.0,7.0,3.0,1.0,4.0,4.0,358.6581880008452,1.0,1.0,phase_1,,,,,,,,,,,,,magenta,hexagon
81.0,6.0,2.0,1.0,2.0,2.0,385.6699400021171,1.0,1.0,phase_1,,,,,,,,,,,,,white,triangle
0.0,3.0,0.0,0.0,1.0,1.0,358.0213489985908,1.0,1.0,phase_1,,,,,,,,,,,,,cyan,I
63.0,5.0,1.0,1.0,3.0,3.0,297.1211449985276,1.0,1.0,phase_1,,,,,,,,,,,,,blue,circle
382.0,8.0,4.0,1.0,4.0,4.0,413.4917500014126,1.0,1.0,phase_1,,,,,,,,,,,,,green,square
414.0,8.0,4.0,1.0,1.0,1.0,400.2385869971476,1.0,1.0,phase_1,,,,,,,,,,,,,green,square
124.0,6.0,2.0,1.0,3.0,3.0,330.6758480030112,1.0,1.0,phase_1,,,,,,,,,,,,,white,triangle
410.0,8.0,4.0,1.0,2.0,2.0,378.8405100021919,2.0,1.0,phase_1,,,,,,,,,,,,,green,square
392.0,4.0,4.0,0.0,4.0,4.0,326.2853740015998,2.0,1.0,phase_1,,,,,,,,,,,,,orange,cross
188.0,3.0,3.0,0.0,3.0,3.0,400.9802939981455,2.0,1.0,phase_1,,,,,,,,,,,,,cyan,I
198.0,3.0,3.0,0.0,1.0,1.0,371.0927780011843,2.0,1.0,phase_1,,,,,,,,,,,,,cyan,I
112.0,2.0,2.0,0.0,1.0,1.0,356.0950630017032,2.0,1.0,phase_1,,,,,,,,,,,,,yellow,diamond
203.0,3.0,3.0,0.0,3.0,3.0,515.333086001192,2.0,1.0,phase_1,,,,,,,,,,,,,cyan,I
81.0,2.0,2.0,0.0,4.0,4.0,357.2456100009731,2.0,1.0,phase_1,,,,,,,,,,,,,yellow,diamond
88.0,2.0,2.0,0.0,2.0,2.0,384.9247199977981,2.0,1.0,phase_1,,,,,,,,,,,,,yellow,diamond
97.0,6.0,2.0,1.0,1.0,1.0,380.1553340017563,2.0,1.0,phase_1,,,,,,,,,,,,,white,triangle
106.0,6.0,2.0,1.0,3.0,3.0,338.2770059979521,2.0,1.0,phase_1,,,,,,,,,,,,,white,triangle
193.0,7.0,3.0,1.0,3.0,3.0,384.338583000499,2.0,1.0,phase_1,,,,,,,,,,,,,magenta,hexagon
80.0,2.0,2.0,0.0,3.0,3.0,382.8381970015471,2.0,1.0,phase_1,,,,,,,,,,,,,yellow,diamond
0.0,1.0,0.0,0.0,1.0,1.0,363.3342680004716,2.0,1.0,phase_1,,,,,,,,,,,,,gray,flipped triangle
72.0,5.0,1.0,1.0,3.0,3.0,348.6831059999531,2.0,1.0,phase_1,,,,,,,,,,,,,blue,circle
0.0,5.0,0.0,1.0,2.0,2.0,358.0017729982501,2.0,1.0,phase_1,,,,,,,,,,,,,blue,circle
58.0,5.0,1.0,1.0,4.0,4.0,399.9359939989517,2.0,1.0,phase_1,,,,,,,,,,,,,blue,circle
203.0,3.0,3.0,0.0,3.0,3.0,405.1202610025939,2.0,1.0,phase_1,,,,,,,,,,,,,cyan,I
203.0,7.0,3.0,1.0,4.0,4.0,320.7877320019179,2.0,1.0,phase_1,,,,,,,,,,,,,magenta,hexagon
85.0,6.0,2.0,1.0,2.0,2.0,403.6078839999391,2.0,1.0,phase_1,,,,,,,,,,,,,white,triangle
115.0,6.0,2.0,1.0,1.0,1.0,371.9105269992724,2.0,1.0,phase_1,,,,,,,,,,,,,white,triangle
212.0,3.0,3.0,0.0,1.0,1.0,322.1416169981239,2.0,1.0,phase_1,,,,,,,,,,,,,cyan,I
79.0,6.0,2.0,1.0,2.0,2.0,320.638400997268,2.0,1.0,phase_1,,,,,,,,,,,,,white,triangle
101.0,2.0,2.0,0.0,2.0,2.0,398.4335669993015,2.0,1.0,phase_1,,,,,,,,,,,,,yellow,diamond
379.0,8.0,4.0,1.0,3.0,3.0,391.3815480009361,2.0,1.0,phase_1,,,,,,,,,,,,,green,square
25.0,5.0,1.0,1.0,2.0,2.0,318.7960789982753,2.0,1.0,phase_1,,,,,,,,,,,,,blue,circle
37.0,1.0,1.0,0.0,3.0,3.0,376.4548600011039,2.0,1.0,phase_1,,,,,,,,,,,,,gray,flipped triangle
60.0,5.0,1.0,1.0,3.0,3.0,350.9629189975385,2.0,1.0,phase_1,,,,,,,,,,,,,blue,circle
0.0,2.0,0.0,0.0,2.0,2.0,402.1828810000443,2.0,1.0,phase_1,,,,,,,,,,,,,yellow,diamond
123.0,6.0,2.0,1.0,4.0,4.0,350.8797089998552,2.0,1.0,phase_1,,,,,,,,,,,,,white,triangle
417.0,8.0,4.0,1.0,2.0,2.0,460.0046380001004,2.0,1.0,phase_1,,,,,,,,,,,,,green,square
180.0,7.0,3.0,1.0,1.0,1.0,407.7416609979991,2.0,1.0,phase_1,,,,,,,,,,,,,magenta,hexagon
211.0,7.0,3.0,1.0,4.0,4.0,649.7753039984673,2.0,1.0,phase_1,,,,,,,,,,,,,magenta,hexagon
53.0,5.0,1.0,1.0,4.0,4.0,327.5481860000582,2.0,1.0,phase_1,,,,,,,,,,,,,blue,circle
80.0,6.0,2.0,1.0,2.0,2.0,372.5731740014453,2.0,1.0,phase_1,,,,,,,,,,,,,white,triangle
74.0,5.0,1.0,1.0,1.0,1.0,452.9676800011657,2.0,1.0,phase_1,,,,,,,,,,,,,blue,circle
60.0,1.0,1.0,0.0,3.0,3.0,401.4760479985853,2.0,1.0,phase_1,,,,,,,,,,,,,gray,flipped triangle
392.0,8.0,4.0,1.0,1.0,1.0,338.0215300021518,2.0,1.0,phase_1,,,,,,,,,,,,,green,square
56.0,5.0,1.0,1.0,4.0,4.0,644.1308489993389,2.0,1.0,phase_1,,,,,,,,,,,,,blue,circle
0.0,6.0,0.0,1.0,4.0,4.0,366.3000410015229,2.0,1.0,phase_1,,,,,,,,,,,,,white,triangle
378.0,8.0,4.0,1.0,3.0,3.0,554.7139519985649,2.0,1.0,phase_1,,,,,,,,,,,,,green,square
0.0,2.0,0.0,0.0,2.0,2.0,383.8195360003738,2.0,1.0,phase_1,,,,,,,,,,,,,yellow,diamond
203.0,7.0,3.0,1.0,1.0,1.0,413.2217290025437,2.0,1.0,phase_1,,,,,,,,,,,,,magenta,hexagon
221.0,7.0,3.0,1.0,2.0,2.0,353.3517770010803,2.0,1.0,phase_1,,,,,,,,,,,,,magenta,hexagon
185.0,3.0,3.0,0.0,2.0,2.0,381.3084580033319,2.0,1.0,phase_1,,,,,,,,,,,,,cyan,I
177.0,7.0,3.0,1.0,4.0,4.0,324.6399339986965,2.0,1.0,phase_1,,,,,,,,,,,,,magenta,hexagon
196.0,3.0,3.0,0.0,2.0,2.0,297.5623649981571,2.0,1.0,phase_1,,,,,,,,,,,,,cyan,I
111.0,2.0,2.0,0.0,3.0,3.0,376.839481999923,2.0,1.0,phase_1,,,,,,,,,,,,,yellow,diamond
379.0,8.0,4.0,1.0,2.0,2.0,342.2423629999684,2.0,1.0,phase_1,,,,,,,,,,,,,green,square
66.0,5.0,1.0,1.0,4.0,4.0,508.37934800074436,2.0,1.0,phase_1,,,,,,,,,,,,,blue,circle
401.0,8.0,4.0,1.0,3.0,3.0,481.8985279998742,2.0,1.0,phase_1,,,,,,,,,,,,,green,square
382.0,4.0,4.0,0.0,1.0,1.0,347.285298998031,2.0,1.0,phase_1,,,,,,,,,,,,,orange,cross
412.0,4.0,4.0,0.0,1.0,1.0,373.933961000148,2.0,1.0,phase_1,,,,,,,,,,,,,orange,cross
411.0,8.0,4.0,1.0,4.0,4.0,369.6616220004216,2.0,1.0,phase_1,,,,,,,,,,,,,green,square
0.0,1.0,0.0,0.0,4.0,4.0,392.0977749985468,2.0,1.0,phase_1,,,,,,,,,,,,,gray,flipped triangle
117.0,6.0,2.0,1.0,4.0,4.0,328.9042620017426,2.0,1.0,phase_1,,,,,,,,,,,,,white,triangle
0.0,6.0,0.0,1.0,1.0,1.0,420.7800119984313,2.0,1.0,phase_1,,,,,,,,,,,,,white,triangle
82.0,6.0,2.0,1.0,1.0,1.0,319.1391680011293,2.0,1.0,phase_1,,,,,,,,,,,,,white,triangle
204.0,7.0,3.0,1.0,3.0,3.0,382.7613680005015,2.0,1.0,phase_1,,,,,,,,,,,,,magenta,hexagon
85.0,6.0,2.0,1.0,2.0,2.0,396.1043679992144,2.0,1.0,phase_1,,,,,,,,,,,,,white,triangle
25.0,1.0,1.0,0.0,3.0,3.0,372.7026019987534,2.0,1.0,phase_1,,,,,,,,,,,,,gray,flipped triangle
381.0,8.0,4.0,1.0,2.0,2.0,487.8739890009456,2.0,1.0,phase_1,,,,,,,,,,,,,green,square
47.0,1.0,1.0,0.0,2.0,2.0,407.3076410022622,2.0,1.0,phase_1,,,,,,,,,,,,,gray,flipped triangle
188.0,3.0,3.0,0.0,3.0,3.0,382.6661399980366,2.0,1.0,phase_1,,,,,,,,,,,,,cyan,I
98.0,2.0,2.0,0.0,2.0,2.0,374.3948310002452,2.0,1.0,phase_1,,,,,,,,,,,,,yellow,diamond
400.0,8.0,4.0,1.0,1.0,1.0,325.6534620013553,2.0,1.0,phase_1,,,,,,,,,,,,,green,square
401.0,8.0,4.0,1.0,2.0,2.0,346.9487519978429,2.0,1.0,phase_1,,,,,,,,,,,,,green,square
96.0,2.0,2.0,0.0,3.0,3.0,357.604505999916,2.0,1.0,phase_1,,,,,,,,,,,,,yellow,diamond
0.0,3.0,0.0,0.0,2.0,2.0,302.3518410009274,2.0,1.0,phase_1,,,,,,,,,,,,,cyan,I
424.0,4.0,4.0,0.0,1.0,1.0,290.69960700144287,2.0,1.0,phase_1,,,,,,,,,,,,,orange,cross
94.0,2.0,2.0,0.0,1.0,1.0,373.8220960003673,2.0,1.0,phase_1,,,,,,,,,,,,,yellow,diamond
0.0,4.0,0.0,0.0,4.0,4.0,343.4205100020335,2.0,1.0,phase_1,,,,,,,,,,,,,orange,cross
0.0,3.0,0.0,0.0,2.0,2.0,384.0479439968476,2.0,1.0,phase_1,,,,,,,,,,,,,cyan,I
85.0,2.0,2.0,0.0,2.0,2.0,370.4231890005758,2.0,1.0,phase_1,,,,,,,,,,,,,yellow,diamond
179.0,3.0,3.0,0.0,2.0,2.0,336.568957001873,2.0,1.0,phase_1,,,,,,,,,,,,,cyan,I
189.0,7.0,3.0,1.0,2.0,2.0,351.4582159987185,2.0,1.0,phase_1,,,,,,,,,,,,,magenta,hexagon
56.0,1.0,1.0,0.0,2.0,2.0,559.3727340019541,2.0,1.0,phase_1,,,,,,,,,,,,,gray,flipped triangle
0.0,4.0,0.0,0.0,1.0,1.0,373.528467000142,2.0,1.0,phase_1,,,,,,,,,,,,,orange,cross
224.0,7.0,3.0,1.0,3.0,3.0,320.6224429995927,2.0,1.0,phase_1,,,,,,,,,,,,,magenta,hexagon
0.0,4.0,0.0,0.0,4.0,4.0,343.3107300006668,2.0,1.0,phase_1,,,,,,,,,,,,,orange,cross
382.0,4.0,4.0,0.0,1.0,1.0,376.6447060006612,2.0,1.0,phase_1,,,,,,,,,,,,,orange,cross
197.0,7.0,3.0,1.0,1.0,1.0,347.4446920008631,2.0,1.0,phase_1,,,,,,,,,,,,,magenta,hexagon
407.0,4.0,4.0,0.0,2.0,2.0,382.5314479981898,2.0,1.0,phase_1,,,,,,,,,,,,,orange,cross
58.0,1.0,1.0,0.0,2.0,2.0,341.1089809997065,2.0,1.0,phase_1,,,,,,,,,,,,,gray,flipped triangle
82.0,6.0,2.0,1.0,2.0,2.0,333.5606869986804,2.0,1.0,phase_1,,,,,,,,,,,,,white,triangle
0.0,8.0,0.0,1.0,4.0,4.0,496.6109550005058,2.0,1.0,phase_1,,,,,,,,,,,,,green,square
75.0,6.0,2.0,1.0,4.0,4.0,441.2499749996641,2.0,1.0,phase_1,,,,,,,,,,,,,white,triangle
407.0,8.0,4.0,1.0,3.0,3.0,583.4620160021586,2.0,1.0,phase_1,,,,,,,,,,,,,green,square
382.0,8.0,4.0,1.0,2.0,2.0,566.9948239992664,2.0,1.0,phase_1,,,,,,,,,,,,,green,square
0.0,2.0,0.0,0.0,2.0,2.0,357.7608609994058,2.0,1.0,phase_1,,,,,,,,,,,,,yellow,diamond
66.0,1.0,1.0,0.0,4.0,4.0,548.0644499984919,2.0,1.0,phase_1,,,,,,,,,,,,,gray,flipped triangle
52.0,1.0,1.0,0.0,3.0,3.0,418.2922979998693,2.0,1.0,phase_1,,,,,,,,,,,,,gray,flipped triangle
0.0,4.0,0.0,0.0,1.0,1.0,293.5843769992061,2.0,1.0,phase_1,,,,,,,,,,,,,orange,cross
180.0,3.0,3.0,0.0,2.0,2.0,558.5762779992365,2.0,1.0,phase_1,,,,,,,,,,,,,cyan,I
209.0,3.0,3.0,0.0,1.0,1.0,482.6942200015764,2.0,1.0,phase_1,,,,,,,,,,,,,cyan,I
0.0,2.0,0.0,0.0,2.0,2.0,376.7769270016288,2.0,1.0,phase_1,,,,,,,,,,,,,yellow,diamond
0.0,2.0,0.0,0.0,4.0,4.0,433.5946390019671,2.0,1.0,phase_1,,,,,,,,,,,,,yellow,diamond
378.0,4.0,4.0,0.0,1.0,1.0,324.3543180033157,2.0,1.0,phase_1,,,,,,,,,,,,,orange,cross
203.0,7.0,3.0,1.0,2.0,2.0,417.9831159999594,2.0,1.0,phase_1,,,,,,,,,,,,,magenta,hexagon
100.0,2.0,2.0,0.0,3.0,3.0,329.6476620016619,2.0,1.0,phase_1,,,,,,,,,,,,,yellow,diamond
31.0,5.0,1.0,1.0,4.0,4.0,333.0082699976628,2.0,1.0,phase_1,,,,,,,,,,,,,blue,circle
188.0,7.0,3.0,1.0,3.0,3.0,359.7087750022183,3.0,1.0,phase_1,,,,,,,,,,,,,magenta,hexagon
0.0,3.0,0.0,0.0,1.0,1.0,329.3970529994112,3.0,1.0,phase_1,,,,,,,,,,,,,cyan,I
0.0,6.0,0.0,1.0,4.0,4.0,356.4892710019194,3.0,1.0,phase_1,,,,,,,,,,,,,white,triangle
46.0,1.0,1.0,0.0,4.0,4.0,325.663280000299,3.0,1.0,phase_1,,,,,,,,,,,,,gray,flipped triangle
0.0,8.0,0.0,1.0,4.0,4.0,320.4412029990635,3.0,1.0,phase_1,,,,,,,,,,,,,green,square
42.0,1.0,1.0,0.0,4.0,4.0,344.6505929969135,3.0,1.0,phase_1,,,,,,,,,,,,,gray,flipped triangle
45.0,5.0,1.0,1.0,1.0,1.0,411.4019029984774,3.0,1.0,phase_1,,,,,,,,,,,,,blue,circle
401.0,8.0,4.0,1.0,1.0,1.0,299.8838749990682,3.0,1.0,phase_1,,,,,,,,,,,,,green,square
179.0,7.0,3.0,1.0,1.0,1.0,310.0140949973138,3.0,1.0,phase_1,,,,,,,,,,,,,magenta,hexagon
105.0,6.0,2.0,1.0,1.0,1.0,388.294828000653,3.0,1.0,phase_1,,,,,,,,,,,,,white,triangle
57.0,1.0,1.0,0.0,1.0,1.0,298.5482110016164,3.0,1.0,phase_1,,,,,,,,,,,,,gray,flipped triangle
51.0,1.0,1.0,0.0,4.0,4.0,398.0502979975426,3.0,1.0,phase_1,,,,,,,,,,,,,gray,flipped triangle
0.0,5.0,0.0,1.0,4.0,4.0,305.9236930021143,3.0,1.0,phase_1,,,,,,,,,,,,,blue,circle
190.0,3.0,3.0,0.0,2.0,2.0,551.2969660012459,3.0,1.0,phase_1,,,,,,,,,,,,,cyan,I
95.0,2.0,2.0,0.0,4.0,4.0,547.0262889975857,3.0,1.0,phase_1,,,,,,,,,,,,,yellow,diamond
124.0,2.0,2.0,0.0,3.0,3.0,381.2940540010459,3.0,1.0,phase_1,,,,,,,,,,,,,yellow,diamond
121.0,6.0,2.0,1.0,3.0,3.0,353.9263180027774,3.0,1.0,phase_1,,,,,,,,,,,,,white,triangle
61.0,5.0,1.0,1.0,1.0,1.0,296.4883629974792,3.0,1.0,phase_1,,,,,,,,,,,,,blue,circle
0.0,3.0,0.0,0.0,2.0,2.0,409.6774190002179,3.0,1.0,phase_1,,,,,,,,,,,,,cyan,I
60.0,5.0,1.0,1.0,1.0,1.0,739.6133259971975,3.0,1.0,phase_1,,,,,,,,,,,,,blue,circle
60.0,1.0,1.0,0.0,1.0,1.0,424.8114809997787,3.0,2.0,phase_1,,,,,,,,,,,,,gray,flipped triangle
28.0,1.0,1.0,0.0,2.0,2.0,321.961707999435,3.0,1.0,phase_1,,,,,,,,,,,,,gray,flipped triangle
0.0,4.0,0.0,0.0,3.0,3.0,446.1833019995538,3.0,1.0,phase_1,,,,,,,,,,,,,orange,cross
112.0,2.0,2.0,0.0,1.0,1.0,365.5799570005911,3.0,1.0,phase_1,,,,,,,,,,,,,yellow,diamond
106.0,2.0,2.0,0.0,2.0,2.0,285.6849350027914,3.0,1.0,phase_1,,,,,,,,,,,,,yellow,diamond
72.0,1.0,1.0,0.0,1.0,1.0,331.2175200007914,3.0,1.0,phase_1,,,,,,,,,,,,,gray,flipped triangle
70.0,5.0,1.0,1.0,4.0,4.0,391.5349670023715,3.0,1.0,phase_1,,,,,,,,,,,,,blue,circle
0.0,5.0,0.0,1.0,3.0,3.0,498.8232389987388,3.0,1.0,phase_1,,,,,,,,,,,,,blue,circle
116.0,6.0,2.0,1.0,1.0,1.0,362.5661129990476,3.0,1.0,phase_1,,,,,,,,,,,,,white,triangle
121.0,2.0,2.0,0.0,4.0,4.0,362.8562419980881,3.0,1.0,phase_1,,,,,,,,,,,,,yellow,diamond
0.0,8.0,0.0,1.0,3.0,3.0,412.4722259984992,3.0,1.0,phase_1,,,,,,,,,,,,,green,square
66.0,5.0,1.0,1.0,1.0,1.0,331.0911850021512,3.0,1.0,phase_1,,,,,,,,,,,,,blue,circle
53.0,1.0,1.0,0.0,4.0,4.0,462.5714899993909,3.0,1.0,phase_1,,,,,,,,,,,,,gray,flipped triangle
116.0,6.0,2.0,1.0,2.0,2.0,315.022246002627,3.0,1.0,phase_1,,,,,,,,,,,,,white,triangle
401.0,4.0,4.0,0.0,4.0,4.0,425.1683040019998,3.0,1.0,phase_1,,,,,,,,,,,,,orange,cross
390.0,8.0,4.0,1.0,1.0,1.0,320.3859989989723,3.0,1.0,phase_1,,,,,,,,,,,,,green,square
0.0,7.0,0.0,1.0,1.0,1.0,316.0507899992808,3.0,1.0,phase_1,,,,,,,,,,,,,magenta,hexagon
175.0,3.0,3.0,0.0,1.0,1.0,319.6540489989274,3.0,1.0,phase_1,,,,,,,,,,,,,cyan,I
179.0,7.0,3.0,1.0,2.0,2.0,332.9342839970195,3.0,1.0,phase_1,,,,,,,,,,,,,magenta,hexagon
194.0,3.0,3.0,0.0,1.0,1.0,317.5661050008784,3.0,1.0,phase_1,,,,,,,,,,,,,cyan,I
0.0,6.0,0.0,1.0,4.0,4.0,346.8405899984645,3.0,1.0,phase_1,,,,,,,,,,,,,white,triangle
390.0,4.0,4.0,0.0,3.0,3.0,402.6920160031295,3.0,1.0,phase_1,,,,,,,,,,,,,orange,cross
411.0,4.0,4.0,0.0,4.0,4.0,385.3227510007855,3.0,1.0,phase_1,,,,,,,,,,,,,orange,cross
400.0,8.0,4.0,1.0,4.0,4.0,313.0896799993934,3.0,1.0,phase_1,,,,,,,,,,,,,green,square
412.0,8.0,4.0,1.0,3.0,3.0,378.503064999677,3.0,1.0,phase_1,,,,,,,,,,,,,green,square
31.0,1.0,1.0,0.0,3.0,3.0,368.7637629991513,3.0,1.0,phase_1,,,,,,,,,,,,,gray,flipped triangle
387.0,8.0,4.0,1.0,2.0,2.0,336.3529039997956,3.0,1.0,phase_1,,,,,,,,,,,,,green,square
221.0,3.0,3.0,0.0,1.0,1.0,428.0909420012904,3.0,1.0,phase_1,,,,,,,,,,,,,cyan,I
28.0,1.0,1.0,0.0,2.0,2.0,355.3990300024452,3.0,1.0,phase_1,,,,,,,,,,,,,gray,flipped triangle
28.0,5.0,1.0,1.0,3.0,3.0,350.2275589999044,3.0,1.0,phase_1,,,,,,,,,,,,,blue,circle
175.0,7.0,3.0,1.0,3.0,3.0,354.9139269998704,3.0,1.0,phase_1,,,,,,,,,,,,,magenta,hexagon
197.0,3.0,3.0,0.0,1.0,1.0,361.9935589995293,3.0,1.0,phase_1,,,,,,,,,,,,,cyan,I
0.0,8.0,0.0,1.0,4.0,4.0,430.292056997132,3.0,1.0,phase_1,,,,,,,,,,,,,green,square
0.0,3.0,0.0,0.0,3.0,3.0,349.4315459975041,3.0,1.0,phase_1,,,,,,,,,,,,,cyan,I
85.0,2.0,2.0,0.0,3.0,3.0,357.7057719994627,3.0,1.0,phase_1,,,,,,,,,,,,,yellow,diamond
221.0,7.0,3.0,1.0,1.0,1.0,388.6268749993178,3.0,1.0,phase_1,,,,,,,,,,,,,magenta,hexagon
0.0,6.0,0.0,1.0,1.0,1.0,417.295698000089,3.0,1.0,phase_1,,,,,,,,,,,,,white,triangle
198.0,7.0,3.0,1.0,4.0,4.0,408.6923729992122,3.0,1.0,phase_1,,,,,,,,,,,,,magenta,hexagon
401.0,4.0,4.0,0.0,2.0,2.0,466.0825749997457,3.0,1.0,phase_1,,,,,,,,,,,,,orange,cross
420.0,4.0,4.0,0.0,2.0,2.0,382.5461829983396,3.0,1.0,phase_1,,,,,,,,,,,,,orange,cross
45.0,1.0,1.0,0.0,1.0,1.0,474.9638749999576,3.0,1.0,phase_1,,,,,,,,,,,,,gray,flipped triangle
0.0,3.0,0.0,0.0,1.0,1.0,404.5396059991617,3.0,1.0,phase_1,,,,,,,,,,,,,cyan,I
403.0,4.0,4.0,0.0,3.0,3.0,346.3467930014303,3.0,1.0,phase_1,,,,,,,,,,,,,orange,cross
0.0,7.0,0.0,1.0,3.0,3.0,370.7678540013148,3.0,1.0,phase_1,,,,,,,,,,,,,magenta,hexagon
53.0,5.0,1.0,1.0,1.0,1.0,294.8547820014937,3.0,1.0,phase_1,,,,,,,,,,,,,blue,circle
401.0,4.0,4.0,0.0,3.0,3.0,370.214376001968,3.0,1.0,phase_1,,,,,,,,,,,,,orange,cross
26.0,1.0,1.0,0.0,2.0,2.0,387.2982680004497,3.0,1.0,phase_1,,,,,,,,,,,,,gray,flipped triangle
0.0,8.0,0.0,1.0,4.0,4.0,378.9902829994389,3.0,1.0,phase_1,,,,,,,,,,,,,green,square
71.0,5.0,1.0,1.0,2.0,2.0,370.4401510003663,3.0,1.0,phase_1,,,,,,,,,,,,,blue,circle
0.0,2.0,0.0,0.0,1.0,1.0,366.0949580007582,3.0,1.0,phase_1,,,,,,,,,,,,,yellow,diamond
0.0,5.0,0.0,1.0,3.0,3.0,420.0324000012188,3.0,1.0,phase_1,,,,,,,,,,,,,blue,circle
0.0,5.0,0.0,1.0,4.0,4.0,469.0980649975245,3.0,1.0,phase_1,,,,,,,,,,,,,blue,circle
216.0,7.0,3.0,1.0,4.0,4.0,333.7891929986654,3.0,1.0,phase_1,,,,,,,,,,,,,magenta,hexagon
111.0,6.0,2.0,1.0,3.0,3.0,386.4269149999018,3.0,1.0,phase_1,,,,,,,,,,,,,white,triangle
42.0,1.0,1.0,0.0,3.0,3.0,345.281937999971,3.0,1.0,phase_1,,,,,,,,,,,,,gray,flipped triangle
409.0,4.0,4.0,0.0,1.0,1.0,400.7592009984364,3.0,1.0,phase_1,,,,,,,,,,,,,orange,cross
210.0,3.0,3.0,0.0,1.0,1.0,364.7639019982307,3.0,1.0,phase_1,,,,,,,,,,,,,cyan,I
92.0,2.0,2.0,0.0,1.0,1.0,329.1045090008992,3.0,1.0,phase_1,,,,,,,,,,,,,yellow,diamond
67.0,1.0,1.0,0.0,1.0,1.0,332.32094800041517,3.0,1.0,phase_1,,,,,,,,,,,,,gray,flipped triangle
85.0,2.0,2.0,0.0,4.0,4.0,341.8463400012115,3.0,1.0,phase_1,,,,,,,,,,,,,yellow,diamond
82.0,2.0,2.0,0.0,1.0,1.0,347.7291749986761,3.0,1.0,phase_1,,,,,,,,,,,,,yellow,diamond
62.0,5.0,1.0,1.0,3.0,3.0,371.4959639983135,3.0,1.0,phase_1,,,,,,,,,,,,,blue,circle
41.0,5.0,1.0,1.0,2.0,2.0,401.9335359989782,3.0,1.0,phase_1,,,,,,,,,,,,,blue,circle
66.0,5.0,1.0,1.0,2.0,2.0,340.2016540021577,3.0,1.0,phase_1,,,,,,,,,,,,,blue,circle
0.0,5.0,0.0,1.0,4.0,4.0,361.4460549979412,3.0,1.0,phase_1,,,,,,,,,,,,,blue,circle
196.0,7.0,3.0,1.0,2.0,2.0,375.5380169968703,3.0,1.0,phase_1,,,,,,,,,,,,,magenta,hexagon
96.0,2.0,2.0,0.0,2.0,2.0,347.8702419997717,3.0,1.0,phase_1,,,,,,,,,,,,,yellow,diamond
101.0,6.0,2.0,1.0,2.0,2.0,531.4984469987394,3.0,1.0,phase_1,,,,,,,,,,,,,white,triangle
71.0,1.0,1.0,0.0,4.0,4.0,540.0955479999539,3.0,1.0,phase_1,,,,,,,,,,,,,gray,flipped triangle
219.0,3.0,3.0,0.0,3.0,3.0,371.0270090014091,3.0,1.0,phase_1,,,,,,,,,,,,,cyan,I
214.0,3.0,3.0,0.0,3.0,3.0,370.8484269991459,3.0,1.0,phase_1,,,,,,,,,,,,,cyan,I
417.0,4.0,4.0,0.0,4.0,4.0,372.9851110001618,3.0,1.0,phase_1,,,,,,,,,,,,,orange,cross
53.0,1.0,1.0,0.0,3.0,3.0,336.8450839989236,3.0,1.0,phase_1,,,,,,,,,,,,,gray,flipped triangle
212.0,7.0,3.0,1.0,1.0,1.0,310.3057740008808,3.0,1.0,phase_1,,,,,,,,,,,,,magenta,hexagon
115.0,2.0,2.0,0.0,2.0,2.0,324.0588840017153,3.0,1.0,phase_1,,,,,,,,,,,,,yellow,diamond
0.0,7.0,0.0,1.0,2.0,2.0,310.9190200011653,3.0,1.0,phase_1,,,,,,,,,,,,,magenta,hexagon
398.0,8.0,4.0,1.0,1.0,1.0,471.7831810012285,3.0,1.0,phase_1,,,,,,,,,,,,,green,square
392.0,8.0,4.0,1.0,3.0,3.0,327.2954550011491,3.0,2.0,phase_1,,,,,,,,,,,,,green,square
61.0,5.0,1.0,1.0,3.0,3.0,370.0558060008916,3.0,1.0,phase_1,,,,,,,,,,,,,blue,circle
196.0,7.0,3.0,1.0,4.0,4.0,346.8461939992266,3.0,1.0,phase_1,,,,,,,,,,,,,magenta,hexagon
415.0,8.0,4.0,1.0,1.0,1.0,371.7386580028687,4.0,1.0,phase_1,,,,,,,,,,,,,green,square
0.0,5.0,0.0,1.0,1.0,1.0,389.8642099993594,4.0,1.0,phase_1,,,,,,,,,,,,,blue,circle
401.0,4.0,4.0,0.0,3.0,3.0,373.2038260022818,4.0,1.0,phase_1,,,,,,,,,,,,,orange,cross
0.0,4.0,0.0,0.0,2.0,2.0,325.7290580004337,4.0,1.0,phase_1,,,,,,,,,,,,,orange,cross
57.0,5.0,1.0,1.0,1.0,1.0,300.6343599990941,4.0,1.0,phase_1,,,,,,,,,,,,,blue,circle
194.0,7.0,3.0,1.0,2.0,2.0,286.3397279979836,4.0,1.0,phase_1,,,,,,,,,,,,,magenta,hexagon
0.0,8.0,0.0,1.0,2.0,2.0,317.8639459983969,4.0,1.0,phase_1,,,,,,,,,,,,,green,square
98.0,6.0,2.0,1.0,4.0,4.0,399.5561889969394,4.0,1.0,phase_1,,,,,,,,,,,,,white,triangle
216.0,3.0,3.0,0.0,4.0,4.0,434.7009170014644,4.0,1.0,phase_1,,,,,,,,,,,,,cyan,I
70.0,1.0,1.0,0.0,1.0,1.0,317.1958419989096,4.0,1.0,phase_1,,,,,,,,,,,,,gray,flipped triangle
0.0,1.0,0.0,0.0,1.0,1.0,322.9598629986867,4.0,1.0,phase_1,,,,,,,,,,,,,gray,flipped triangle
66.0,1.0,1.0,0.0,1.0,1.0,348.0922010021459,4.0,1.0,phase_1,,,,,,,,,,,,,gray,flipped triangle
111.0,6.0,2.0,1.0,2.0,2.0,499.5221099998161,4.0,1.0,phase_1,,,,,,,,,,,,,white,triangle
403.0,8.0,4.0,1.0,4.0,4.0,367.7044399992155,4.0,1.0,phase_1,,,,,,,,,,,,,green,square
31.0,5.0,1.0,1.0,1.0,1.0,328.5437730010017,4.0,1.0,phase_1,,,,,,,,,,,,,blue,circle
190.0,7.0,3.0,1.0,2.0,2.0,445.1707619991794,4.0,1.0,phase_1,,,,,,,,,,,,,magenta,hexagon
28.0,5.0,1.0,1.0,2.0,2.0,306.56300299961,4.0,1.0,phase_1,,,,,,,,,,,,,blue,circle
210.0,7.0,3.0,1.0,1.0,1.0,382.7923059980094,4.0,1.0,phase_1,,,,,,,,,,,,,magenta,hexagon
78.0,2.0,2.0,0.0,1.0,1.0,301.0702060018957,4.0,1.0,phase_1,,,,,,,,,,,,,yellow,diamond
46.0,5.0,1.0,1.0,1.0,1.0,300.9629579973989,4.0,1.0,phase_1,,,,,,,,,,,,,blue,circle
0.0,1.0,0.0,0.0,3.0,3.0,392.4561960011488,4.0,1.0,phase_1,,,,,,,,,,,,,gray,flipped triangle
85.0,6.0,2.0,1.0,3.0,3.0,374.7822390032524,4.0,1.0,phase_1,,,,,,,,,,,,,white,triangle
61.0,1.0,1.0,0.0,4.0,4.0,339.7703709997586,4.0,1.0,phase_1,,,,,,,,,,,,,gray,flipped triangle
31.0,1.0,1.0,0.0,3.0,3.0,334.0925160009647,4.0,1.0,phase_1,,,,,,,,,,,,,gray,flipped triangle
40.0,1.0,1.0,0.0,4.0,4.0,330.8123720016738,4.0,1.0,phase_1,,,,,,,,,,,,,gray,flipped triangle
115.0,6.0,2.0,1.0,3.0,3.0,331.399632999819,4.0,1.0,phase_1,,,,,,,,,,,,,white,triangle
396.0,8.0,4.0,1.0,4.0,4.0,293.4999220015015,4.0,1.0,phase_1,,,,,,,,,,,,,green,square
385.0,8.0,4.0,1.0,2.0,2.0,375.6320669999695,4.0,1.0,phase_1,,,,,,,,,,,,,green,square
0.0,7.0,0.0,1.0,3.0,3.0,371.4054449992545,4.0,1.0,phase_1,,,,,,,,,,,,,magenta,hexagon
183.0,7.0,3.0,1.0,3.0,3.0,381.5770029978012,4.0,1.0,phase_1,,,,,,,,,,,,,magenta,hexagon
0.0,3.0,0.0,0.0,1.0,1.0,464.4695739989402,4.0,1.0,phase_1,,,,,,,,,,,,,cyan,I
0.0,7.0,0.0,1.0,1.0,1.0,333.3723719988484,4.0,1.0,phase_1,,,,,,,,,,,,,magenta,hexagon
203.0,3.0,3.0,0.0,2.0,2.0,300.6548099983774,4.0,1.0,phase_1,,,,,,,,,,,,,cyan,I
0.0,6.0,0.0,1.0,1.0,1.0,404.7850860006292,4.0,1.0,phase_1,,,,,,,,,,,,,white,triangle
417.0,4.0,4.0,0.0,1.0,1.0,406.7310639984498,4.0,1.0,phase_1,,,,,,,,,,,,,orange,cross
423.0,4.0,4.0,0.0,3.0,3.0,342.4462559996755,4.0,1.0,phase_1,,,,,,,,,,,,,orange,cross
35.0,1.0,1.0,0.0,1.0,1.0,308.6853169988899,4.0,1.0,phase_1,,,,,,,,,,,,,gray,flipped triangle
25.0,1.0,1.0,0.0,3.0,3.0,386.860542002978,4.0,1.0,phase_1,,,,,,,,,,,,,gray,flipped triangle
95.0,6.0,2.0,1.0,3.0,3.0,445.6622230027278,4.0,1.0,phase_1,,,,,,,,,,,,,white,triangle
100.0,6.0,2.0,1.0,4.0,4.0,369.1620520003198,4.0,1.0,phase_1,,,,,,,,,,,,,white,triangle
179.0,3.0,3.0,0.0,3.0,3.0,420.3264129973831,4.0,1.0,phase_1,,,,,,,,,,,,,cyan,I
385.0,4.0,4.0,0.0,4.0,4.0,401.847817000089,4.0,1.0,phase_1,,,,,,,,,,,,,orange,cross
399.0,8.0,4.0,1.0,3.0,3.0,527.4166710005375,4.0,1.0,phase_1,,,,,,,,,,,,,green,square
74.0,1.0,1.0,0.0,2.0,2.0,595.7363810011884,4.0,1.0,phase_1,,,,,,,,,,,,,gray,flipped triangle
0.0,8.0,0.0,1.0,2.0,2.0,415.9521930014307,4.0,1.0,phase_1,,,,,,,,,,,,,green,square
82.0,2.0,2.0,0.0,1.0,1.0,475.7138690001739,4.0,1.0,phase_1,,,,,,,,,,,,,yellow,diamond
0.0,7.0,0.0,1.0,3.0,3.0,322.6470769986918,4.0,1.0,phase_1,,,,,,,,,,,,,magenta,hexagon
183.0,3.0,3.0,0.0,2.0,2.0,318.9419219997944,4.0,1.0,phase_1,,,,,,,,,,,,,cyan,I
398.0,4.0,4.0,0.0,2.0,2.0,345.2423660019121,4.0,1.0,phase_1,,,,,,,,,,,,,orange,cross
223.0,7.0,3.0,1.0,4.0,4.0,617.5978719984414,4.0,1.0,phase_1,,,,,,,,,,,,,magenta,hexagon
40.0,5.0,1.0,1.0,4.0,4.0,377.3392190014419,4.0,1.0,phase_1,,,,,,,,,,,,,blue,circle
381.0,4.0,4.0,0.0,1.0,1.0,374.3667449998611,4.0,1.0,phase_1,,,,,,,,,,,,,orange,cross
97.0,2.0,2.0,0.0,3.0,3.0,343.0757009991794,4.0,1.0,phase_1,,,,,,,,,,,,,yellow,diamond
0.0,6.0,0.0,1.0,2.0,2.0,321.9930550003482,4.0,1.0,phase_1,,,,,,,,,,,,,white,triangle
399.0,4.0,4.0,0.0,4.0,4.0,401.2525340003776,4.0,1.0,phase_1,,,,,,,,,,,,,orange,cross
204.0,3.0,3.0,0.0,4.0,4.0,353.2169369973417,4.0,1.0,phase_1,,,,,,,,,,,,,cyan,I
112.0,6.0,2.0,1.0,4.0,4.0,318.6303179973038,4.0,1.0,phase_1,,,,,,,,,,,,,white,triangle
221.0,3.0,3.0,0.0,1.0,1.0,300.6606600029045,4.0,1.0,phase_1,,,,,,,,,,,,,cyan,I
203.0,7.0,3.0,1.0,2.0,2.0,304.4431419984903,4.0,1.0,phase_1,,,,,,,,,,,,,magenta,hexagon
0.0,1.0,0.0,0.0,1.0,1.0,323.6487470021529,4.0,1.0,phase_1,,,,,,,,,,,,,gray,flipped triangle
180.0,3.0,3.0,0.0,4.0,4.0,350.4360709994216,4.0,1.0,phase_1,,,,,,,,,,,,,cyan,I
415.0,4.0,4.0,0.0,4.0,4.0,426.7500599999039,4.0,1.0,phase_1,,,,,,,,,,,,,orange,cross
420.0,8.0,4.0,1.0,2.0,2.0,351.2709030001133,4.0,1.0,phase_1,,,,,,,,,,,,,green,square
41.0,1.0,1.0,0.0,3.0,3.0,416.958887999499,4.0,1.0,phase_1,,,,,,,,,,,,,gray,flipped triangle
389.0,8.0,4.0,1.0,2.0,2.0,325.2790050028125,4.0,1.0,phase_1,,,,,,,,,,,,,green,square
94.0,6.0,2.0,1.0,1.0,1.0,338.0383889998484,4.0,1.0,phase_1,,,,,,,,,,,,,white,triangle
381.0,4.0,4.0,0.0,2.0,2.0,398.2429759998922,4.0,1.0,phase_1,,,,,,,,,,,,,orange,cross
96.0,6.0,2.0,1.0,4.0,4.0,371.1735910001152,4.0,1.0,phase_1,,,,,,,,,,,,,white,triangle
414.0,4.0,4.0,0.0,2.0,2.0,360.4741599992849,4.0,1.0,phase_1,,,,,,,,,,,,,orange,cross
88.0,6.0,2.0,1.0,1.0,1.0,482.1915160027856,4.0,1.0,phase_1,,,,,,,,,,,,,white,triangle
415.0,8.0,4.0,1.0,1.0,1.0,399.3797870025446,4.0,1.0,phase_1,,,,,,,,,,,,,green,square
105.0,6.0,2.0,1.0,4.0,4.0,584.1219229987473,4.0,1.0,phase_1,,,,,,,,,,,,,white,triangle
177.0,3.0,3.0,0.0,4.0,4.0,304.7007639979711,4.0,1.0,phase_1,,,,,,,,,,,,,cyan,I
117.0,6.0,2.0,1.0,4.0,4.0,321.2654939998174,4.0,1.0,phase_1,,,,,,,,,,,,,white,triangle
399.0,4.0,4.0,0.0,4.0,4.0,369.3122410004434,4.0,1.0,phase_1,,,,,,,,,,,,,orange,cross
61.0,1.0,1.0,0.0,1.0,1.0,360.7020669987832,4.0,1.0,phase_1,,,,,,,,,,,,,gray,flipped triangle
379.0,4.0,4.0,0.0,2.0,2.0,322.4299210014578,4.0,1.0,phase_1,,,,,,,,,,,,,orange,cross
193.0,3.0,3.0,0.0,4.0,4.0,495.6498589999683,4.0,1.0,phase_1,,,,,,,,,,,,,cyan,I
0.0,1.0,0.0,0.0,3.0,3.0,458.7549150019185,4.0,1.0,phase_1,,,,,,,,,,,,,gray,flipped triangle
45.0,1.0,1.0,0.0,4.0,4.0,332.5279169985151,4.0,1.0,phase_1,,,,,,,,,,,,,gray,flipped triangle
123.0,2.0,2.0,0.0,1.0,1.0,545.4593499998737,4.0,1.0,phase_1,,,,,,,,,,,,,yellow,diamond
97.0,2.0,2.0,0.0,2.0,2.0,353.4249459989951,4.0,1.0,phase_1,,,,,,,,,,,,,yellow,diamond
379.0,4.0,4.0,0.0,1.0,1.0,586.064990999148,4.0,1.0,phase_1,,,,,,,,,,,,,orange,cross
116.0,2.0,2.0,0.0,3.0,3.0,413.9460619990132,4.0,1.0,phase_1,,,,,,,,,,,,,yellow,diamond
79.0,2.0,2.0,0.0,4.0,4.0,337.2030389982683,4.0,1.0,phase_1,,,,,,,,,,,,,yellow,diamond
417.0,8.0,4.0,1.0,4.0,4.0,318.469506000838,4.0,1.0,phase_1,,,,,,,,,,,,,green,square
0.0,7.0,0.0,1.0,1.0,1.0,330.4420499989646,4.0,1.0,phase_1,,,,,,,,,,,,,magenta,hexagon
117.0,2.0,2.0,0.0,1.0,1.0,356.4320799996494,4.0,1.0,phase_1,,,,,,,,,,,,,yellow,diamond
115.0,2.0,2.0,0.0,4.0,4.0,325.6928650007467,4.0,1.0,phase_1,,,,,,,,,,,,,yellow,diamond
95.0,2.0,2.0,0.0,1.0,1.0,352.3537000000942,4.0,1.0,phase_1,,,,,,,,,,,,,yellow,diamond
0.0,7.0,0.0,1.0,2.0,2.0,354.3349950014089,4.0,1.0,phase_1,,,,,,,,,,,,,magenta,hexagon
196.0,3.0,3.0,0.0,3.0,3.0,339.0434730026754,4.0,1.0,phase_1,,,,,,,,,,,,,cyan,I
181.0,7.0,3.0,1.0,1.0,1.0,387.9575530008878,4.0,1.0,phase_1,,,,,,,,,,,,,magenta,hexagon
211.0,3.0,3.0,0.0,1.0,1.0,330.965475000994,4.0,1.0,phase_1,,,,,,,,,,,,,cyan,I
116.0,2.0,2.0,0.0,4.0,4.0,334.4775080004183,4.0,1.0,phase_1,,,,,,,,,,,,,yellow,diamond
0.0,8.0,0.0,1.0,2.0,2.0,307.4679700002889,4.0,1.0,phase_1,,,,,,,,,,,,,green,square
424.0,8.0,4.0,1.0,3.0,3.0,347.0365530010895,4.0,1.0,phase_1,,,,,,,,,,,,,green,square
96.0,6.0,2.0,1.0,1.0,1.0,351.4893170031428,4.0,1.0,phase_1,,,,,,,,,,,,,white,triangle
414.0,8.0,4.0,1.0,4.0,4.0,338.5268189995258,4.0,1.0,phase_1,,,,,,,,,,,,,green,square
31.0,1.0,1.0,0.0,2.0,2.0,459.4116210028005,4.0,1.0,phase_1,,,,,,,,,,,,,gray,flipped triangle
0.0,8.0,4.0,1.0,6.0,6.0,473.8022620003903,1.0,1.0,phase_2,stop,250.0,250.0,3.0,,,,,,,,,green,square
0.0,4.0,4.0,0.0,5.0,5.0,495.1659639991703,1.0,1.0,phase_2,go,250.0,200.0,1.0,,,,,,,,,orange,cross
0.0,6.0,2.0,1.0,6.0,0.0,0.0,1.0,1.0,phase_2,stop,250.0,200.0,4.0,,,,,,,,,white,triangle
0.0,5.0,1.0,1.0,6.0,6.0,802.9363530004048,1.0,1.0,phase_2,go,250.0,250.0,1.0,,,,,,,,,blue,circle
0.0,6.0,2.0,1.0,5.0,5.0,726.9028770024306,1.0,1.0,phase_2,go,250.0,250.0,1.0,,,,,,,,,white,triangle
0.0,4.0,4.0,0.0,5.0,5.0,763.4306710024248,1.0,1.0,phase_2,go,250.0,250.0,1.0,,,,,,,,,orange,cross
0.0,6.0,2.0,1.0,6.0,6.0,511.0413529982907,1.0,1.0,phase_2,go,250.0,250.0,1.0,,,,,,,,,white,triangle
0.0,5.0,1.0,1.0,6.0,0.0,0.0,1.0,1.0,phase_2,stop,250.0,250.0,4.0,,,,,,,,,blue,circle
0.0,5.0,1.0,1.0,6.0,0.0,0.0,1.0,1.0,phase_2,stop,250.0,300.0,4.0,,,,,,,,,blue,circle
0.0,6.0,2.0,1.0,6.0,6.0,674.9622050010657,1.0,1.0,phase_2,go,250.0,350.0,1.0,,,,,,,,,white,triangle
0.0,3.0,3.0,0.0,6.0,6.0,636.9408089994977,1.0,1.0,phase_2,go,250.0,350.0,1.0,,,,,,,,,cyan,I
0.0,5.0,1.0,1.0,6.0,6.0,630.5259549990296,1.0,1.0,phase_2,go,250.0,350.0,1.0,,,,,,,,,blue,circle
0.0,4.0,4.0,0.0,6.0,6.0,671.6573570010951,1.0,1.0,phase_2,go,250.0,350.0,1.0,,,,,,,,,orange,cross
0.0,1.0,1.0,0.0,5.0,5.0,654.5258890000696,1.0,1.0,phase_2,go,250.0,350.0,1.0,,,,,,,,,gray,flipped triangle
0.0,4.0,4.0,0.0,5.0,5.0,486.9892770002479,1.0,1.0,phase_2,go,250.0,350.0,1.0,,,,,,,,,orange,cross
0.0,8.0,4.0,1.0,6.0,6.0,437.504600999091,1.0,1.0,phase_2,stop,250.0,350.0,3.0,,,,,,,,,green,square
0.0,4.0,4.0,0.0,5.0,5.0,654.4409359994461,1.0,1.0,phase_2,go,250.0,300.0,1.0,,,,,,,,,orange,cross
0.0,8.0,4.0,1.0,6.0,0.0,0.0,1.0,1.0,phase_2,stop,250.0,300.0,4.0,,,,,,,,,green,square
0.0,8.0,4.0,1.0,6.0,6.0,627.0825959982176,1.0,1.0,phase_2,go,250.0,350.0,1.0,,,,,,,,,green,square
0.0,1.0,1.0,0.0,5.0,5.0,767.1920180000598,1.0,1.0,phase_2,go,250.0,350.0,1.0,,,,,,,,,gray,flipped triangle
0.0,6.0,2.0,1.0,5.0,0.0,0.0,1.0,1.0,phase_2,stop,250.0,350.0,4.0,,,,,,,,,white,triangle
0.0,7.0,3.0,1.0,5.0,0.0,0.0,1.0,1.0,phase_2,stop,300.0,350.0,4.0,,,,,,,,,magenta,hexagon
0.0,6.0,2.0,1.0,6.0,0.0,0.0,1.0,1.0,phase_2,stop,350.0,350.0,4.0,,,,,,,,,white,triangle
0.0,2.0,2.0,0.0,5.0,5.0,519.0540959993086,1.0,1.0,phase_2,go,350.0,400.0,1.0,,,,,,,,,yellow,diamond
0.0,2.0,2.0,0.0,5.0,5.0,619.271118001052,1.0,1.0,phase_2,go,350.0,400.0,1.0,,,,,,,,,yellow,diamond
0.0,3.0,3.0,0.0,6.0,6.0,677.8217850005603,1.0,1.0,phase_2,go,350.0,400.0,1.0,,,,,,,,,cyan,I
0.0,7.0,3.0,1.0,6.0,0.0,0.0,1.0,1.0,phase_2,stop,350.0,400.0,4.0,,,,,,,,,magenta,hexagon
0.0,7.0,3.0,1.0,6.0,0.0,0.0,1.0,1.0,phase_2,stop,350.0,450.0,4.0,,,,,,,,,magenta,hexagon
0.0,5.0,1.0,1.0,5.0,0.0,0.0,1.0,1.0,phase_2,stop,350.0,500.0,4.0,,,,,,,,,blue,circle
0.0,1.0,1.0,0.0,5.0,5.0,841.527127999143,1.0,1.0,phase_2,go,400.0,500.0,1.0,,,,,,,,,gray,flipped triangle
0.0,2.0,2.0,0.0,5.0,5.0,502.0311109983595,1.0,1.0,phase_2,go,400.0,500.0,1.0,,,,,,,,,yellow,diamond
0.0,5.0,1.0,1.0,6.0,0.0,0.0,1.0,1.0,phase_2,stop,400.0,500.0,4.0,,,,,,,,,blue,circle
0.0,8.0,4.0,1.0,5.0,0.0,0.0,1.0,1.0,phase_2,stop,400.0,550.0,4.0,,,,,,,,,green,square
0.0,2.0,2.0,0.0,5.0,5.0,1027.793755998573,1.0,1.0,phase_2,go,450.0,550.0,1.0,,,,,,,,,yellow,diamond
0.0,2.0,2.0,0.0,6.0,6.0,800.0661350015434,1.0,1.0,phase_2,go,450.0,550.0,1.0,,,,,,,,,yellow,diamond
0.0,6.0,2.0,1.0,6.0,0.0,0.0,1.0,1.0,phase_2,stop,450.0,550.0,4.0,,,,,,,,,white,triangle
0.0,3.0,3.0,0.0,5.0,5.0,421.890503999748,2.0,1.0,phase_2,go,450.0,600.0,1.0,,,,,,,,,cyan,I
0.0,5.0,1.0,1.0,5.0,5.0,281.3020850007888,2.0,1.0,phase_2,stop,450.0,600.0,3.0,,,,,,,,,blue,circle
0.0,4.0,4.0,0.0,6.0,6.0,389.1411270014941,2.0,1.0,phase_2,go,400.0,600.0,1.0,,,,,,,,,orange,cross
0.0,4.0,4.0,0.0,5.0,5.0,316.0251430017524,2.0,1.0,phase_2,go,400.0,600.0,1.0,,,,,,,,,orange,cross
0.0,5.0,1.0,1.0,5.0,5.0,364.4594809993577,2.0,1.0,phase_2,stop,400.0,600.0,3.0,,,,,,,,,blue,circle
0.0,6.0,2.0,1.0,6.0,6.0,638.0330899992259,2.0,1.0,phase_2,stop,350.0,600.0,3.0,,,,,,,,,white,triangle
0.0,3.0,3.0,0.0,5.0,5.0,618.2583939989854,2.0,1.0,phase_2,go,350.0,550.0,1.0,,,,,,,,,cyan,I
0.0,1.0,1.0,0.0,6.0,6.0,458.5143830008746,2.0,1.0,phase_2,go,350.0,550.0,1.0,,,,,,,,,gray,flipped triangle
0.0,5.0,1.0,1.0,5.0,5.0,279.9055100003897,2.0,1.0,phase_2,stop,350.0,550.0,3.0,,,,,,,,,blue,circle
0.0,7.0,3.0,1.0,6.0,6.0,597.3866300009831,2.0,1.0,phase_2,stop,300.0,550.0,3.0,,,,,,,,,magenta,hexagon
0.0,7.0,3.0,1.0,6.0,6.0,314.183659000264,2.0,1.0,phase_2,stop,300.0,500.0,3.0,,,,,,,,,magenta,hexagon
0.0,4.0,4.0,0.0,5.0,5.0,522.7600290018017,2.0,1.0,phase_2,go,300.0,450.0,1.0,,,,,,,,,orange,cross
0.0,8.0,4.0,1.0,6.0,6.0,512.513650002802,2.0,1.0,phase_2,go,300.0,450.0,1.0,,,,,,,,,green,square
0.0,1.0,1.0,0.0,5.0,5.0,318.1851730005292,2.0,1.0,phase_2,go,300.0,450.0,1.0,,,,,,,,,gray,flipped triangle
0.0,2.0,2.0,0.0,5.0,5.0,305.8502109997789,2.0,1.0,phase_2,go,300.0,450.0,1.0,,,,,,,,,yellow,diamond
0.0,6.0,2.0,1.0,5.0,5.0,297.9216860003362,2.0,1.0,phase_2,stop,300.0,450.0,3.0,,,,,,,,,white,triangle
0.0,7.0,3.0,1.0,5.0,5.0,378.0900839992682,2.0,1.0,phase_2,stop,250.0,450.0,3.0,,,,,,,,,magenta,hexagon
0.0,6.0,2.0,1.0,6.0,0.0,0.0,2.0,1.0,phase_2,stop,200.0,450.0,4.0,,,,,,,,,white,triangle
0.0,3.0,3.0,0.0,6.0,6.0,445.9672220000357,2.0,1.0,phase_2,go,200.0,500.0,1.0,,,,,,,,,cyan,I
0.0,5.0,1.0,1.0,5.0,0.0,0.0,2.0,1.0,phase_2,stop,200.0,500.0,4.0,,,,,,,,,blue,circle
0.0,3.0,3.0,0.0,6.0,6.0,311.1447770024824,2.0,1.0,phase_2,go,250.0,500.0,1.0,,,,,,,,,cyan,I
0.0,3.0,3.0,0.0,6.0,6.0,464.7148889998789,2.0,1.0,phase_2,go,250.0,500.0,1.0,,,,,,,,,cyan,I
0.0,5.0,1.0,1.0,5.0,5.0,452.5598880027246,2.0,1.0,phase_2,go,250.0,500.0,1.0,,,,,,,,,blue,circle
0.0,8.0,4.0,1.0,5.0,0.0,0.0,2.0,1.0,phase_2,stop,250.0,500.0,4.0,,,,,,,,,green,square
0.0,5.0,1.0,1.0,6.0,6.0,704.7411820021807,2.0,1.0,phase_2,stop,300.0,500.0,3.0,,,,,,,,,blue,circle
0.0,8.0,4.0,1.0,6.0,0.0,0.0,2.0,1.0,phase_2,stop,300.0,450.0,4.0,,,,,,,,,green,square
0.0,3.0,3.0,0.0,6.0,6.0,522.3126739983854,2.0,1.0,phase_2,go,300.0,500.0,1.0,,,,,,,,,cyan,I
0.0,5.0,1.0,1.0,6.0,6.0,643.0302200024016,2.0,1.0,phase_2,stop,300.0,500.0,3.0,,,,,,,,,blue,circle
0.0,1.0,1.0,0.0,5.0,5.0,466.381623999041,2.0,1.0,phase_2,go,300.0,450.0,1.0,,,,,,,,,gray,flipped triangle
0.0,5.0,1.0,1.0,6.0,0.0,0.0,2.0,1.0,phase_2,stop,300.0,450.0,4.0,,,,,,,,,blue,circle
0.0,7.0,3.0,1.0,5.0,5.0,443.20524199793,2.0,1.0,phase_2,stop,300.0,500.0,3.0,,,,,,,,,magenta,hexagon
0.0,5.0,1.0,1.0,5.0,5.0,733.9232550002635,2.0,1.0,phase_2,go,250.0,500.0,1.0,,,,,,,,,blue,circle
0.0,7.0,3.0,1.0,5.0,5.0,393.8527669997711,2.0,1.0,phase_2,go,250.0,500.0,1.0,,,,,,,,,magenta,hexagon
0.0,3.0,3.0,0.0,5.0,5.0,417.3902139991696,2.0,1.0,phase_2,go,250.0,500.0,1.0,,,,,,,,,cyan,I
0.0,7.0,3.0,1.0,6.0,6.0,397.3056610011554,2.0,1.0,phase_2,go,250.0,500.0,1.0,,,,,,,,,magenta,hexagon
0.0,2.0,2.0,0.0,5.0,5.0,725.3339720009535,2.0,1.0,phase_2,go,250.0,500.0,1.0,,,,,,,,,yellow,diamond
0.0,3.0,3.0,0.0,5.0,5.0,953.6758520007425,3.0,1.0,phase_2,go,250.0,500.0,1.0,,,,,,,,,cyan,I
0.0,6.0,2.0,1.0,5.0,5.0,334.9683360029303,3.0,1.0,phase_2,stop,250.0,500.0,3.0,,,,,,,,,white,triangle
0.0,8.0,4.0,1.0,6.0,6.0,323.347122000996,3.0,1.0,phase_2,stop,200.0,500.0,3.0,,,,,,,,,green,square
0.0,5.0,1.0,1.0,5.0,0.0,0.0,3.0,1.0,phase_2,stop,200.0,450.0,4.0,,,,,,,,,blue,circle
0.0,2.0,2.0,0.0,6.0,6.0,633.8687969982857,3.0,1.0,phase_2,go,250.0,450.0,1.0,,,,,,,,,yellow,diamond
0.0,6.0,2.0,1.0,5.0,5.0,439.1196570031752,3.0,1.0,phase_2,stop,250.0,450.0,3.0,,,,,,,,,white,triangle
0.0,8.0,4.0,1.0,5.0,0.0,0.0,3.0,1.0,phase_2,stop,200.0,450.0,4.0,,,,,,,,,green,square
0.0,6.0,2.0,1.0,6.0,6.0,405.043619000935,3.0,1.0,phase_2,go,250.0,450.0,1.0,,,,,,,,,white,triangle
0.0,1.0,1.0,0.0,6.0,6.0,357.8862419999495,3.0,1.0,phase_2,go,250.0,450.0,1.0,,,,,,,,,gray,flipped triangle
0.0,8.0,4.0,1.0,5.0,0.0,0.0,3.0,1.0,phase_2,stop,250.0,450.0,4.0,,,,,,,,,green,square
0.0,3.0,3.0,0.0,6.0,6.0,439.6859500011487,3.0,1.0,phase_2,go,300.0,450.0,1.0,,,,,,,,,cyan,I
0.0,3.0,3.0,0.0,5.0,5.0,524.3157929980953,3.0,1.0,phase_2,go,300.0,450.0,1.0,,,,,,,,,cyan,I
0.0,5.0,1.0,1.0,5.0,0.0,0.0,3.0,1.0,phase_2,stop,300.0,450.0,4.0,,,,,,,,,blue,circle
0.0,2.0,2.0,0.0,6.0,6.0,736.6956919977383,3.0,1.0,phase_2,go,350.0,450.0,1.0,,,,,,,,,yellow,diamond
0.0,1.0,1.0,0.0,6.0,6.0,717.8078039978573,3.0,1.0,phase_2,go,350.0,450.0,1.0,,,,,,,,,gray,flipped triangle
0.0,2.0,2.0,0.0,5.0,5.0,292.197655999189,3.0,1.0,phase_2,go,350.0,450.0,1.0,,,,,,,,,yellow,diamond
0.0,1.0,1.0,0.0,5.0,5.0,272.0752579989494,3.0,1.0,phase_2,go,350.0,450.0,1.0,,,,,,,,,gray,flipped triangle
0.0,8.0,4.0,1.0,6.0,6.0,300.662955000007,3.0,1.0,phase_2,go,350.0,450.0,1.0,,,,,,,,,green,square
0.0,2.0,2.0,0.0,6.0,6.0,409.6155009974609,3.0,1.0,phase_2,go,350.0,450.0,1.0,,,,,,,,,yellow,diamond
0.0,8.0,4.0,1.0,6.0,6.0,412.6392559992382,3.0,1.0,phase_2,go,350.0,450.0,1.0,,,,,,,,,green,square
0.0,7.0,3.0,1.0,5.0,5.0,333.1583729996055,3.0,1.0,phase_2,stop,350.0,450.0,3.0,,,,,,,,,magenta,hexagon
0.0,6.0,2.0,1.0,6.0,0.0,0.0,3.0,1.0,phase_2,stop,300.0,450.0,4.0,,,,,,,,,white,triangle
0.0,1.0,1.0,0.0,6.0,6.0,547.2258779991535,3.0,1.0,phase_2,go,300.0,500.0,1.0,,,,,,,,,gray,flipped triangle
0.0,1.0,1.0,0.0,6.0,6.0,426.7924329978996,3.0,1.0,phase_2,go,300.0,500.0,1.0,,,,,,,,,gray,flipped triangle
0.0,1.0,1.0,0.0,5.0,5.0,322.8585300021223,3.0,1.0,phase_2,go,300.0,500.0,1.0,,,,,,,,,gray,flipped triangle
0.0,8.0,4.0,1.0,5.0,5.0,341.5938100006315,3.0,1.0,phase_2,stop,300.0,500.0,3.0,,,,,,,,,green,square
0.0,4.0,4.0,0.0,5.0,5.0,442.8363740007626,3.0,1.0,phase_2,go,250.0,500.0,1.0,,,,,,,,,orange,cross
0.0,6.0,2.0,1.0,6.0,6.0,298.7520259994198,3.0,1.0,phase_2,stop,250.0,500.0,3.0,,,,,,,,,white,triangle
0.0,2.0,2.0,0.0,5.0,5.0,269.8739170009503,3.0,1.0,phase_2,go,250.0,450.0,1.0,,,,,,,,,yellow,diamond
0.0,1.0,1.0,0.0,5.0,5.0,403.213138000865,3.0,1.0,phase_2,go,250.0,450.0,1.0,,,,,,,,,gray,flipped triangle
0.0,4.0,4.0,0.0,5.0,5.0,385.6567399998312,3.0,1.0,phase_2,go,250.0,450.0,1.0,,,,,,,,,orange,cross
0.0,8.0,4.0,1.0,5.0,5.0,284.9491330016462,3.0,1.0,phase_2,stop,250.0,450.0,3.0,,,,,,,,,green,square
0.0,1.0,1.0,0.0,5.0,5.0,576.9430420004937,3.0,1.0,phase_2,go,200.0,450.0,1.0,,,,,,,,,gray,flipped triangle
0.0,3.0,3.0,0.0,6.0,6.0,296.9792570002028,3.0,1.0,phase_2,go,200.0,450.0,1.0,,,,,,,,,cyan,I
0.0,3.0,3.0,0.0,6.0,6.0,438.983410000219,3.0,1.0,phase_2,go,200.0,450.0,1.0,,,,,,,,,cyan,I
0.0,1.0,1.0,0.0,6.0,6.0,360.6403679987124,3.0,1.0,phase_2,go,200.0,450.0,1.0,,,,,,,,,gray,flipped triangle
0.0,4.0,4.0,0.0,5.0,5.0,559.8650860010821,4.0,1.0,phase_2,go,200.0,450.0,1.0,,,,,,,,,orange,cross
0.0,1.0,1.0,0.0,5.0,5.0,286.4996759999485,4.0,1.0,phase_2,go,200.0,450.0,1.0,,,,,,,,,gray,flipped triangle
0.0,8.0,4.0,1.0,5.0,5.0,338.2981739996467,4.0,1.0,phase_2,go,200.0,450.0,1.0,,,,,,,,,green,square
0.0,5.0,1.0,1.0,6.0,6.0,329.1021160002856,4.0,1.0,phase_2,stop,200.0,450.0,3.0,,,,,,,,,blue,circle
0.0,4.0,4.0,0.0,6.0,6.0,960.3339310015144,4.0,1.0,phase_2,go,200.0,400.0,1.0,,,,,,,,,orange,cross
0.0,5.0,1.0,1.0,5.0,5.0,314.9847820022842,4.0,1.0,phase_2,go,200.0,400.0,1.0,,,,,,,,,blue,circle
0.0,7.0,3.0,1.0,5.0,5.0,332.827071997599,4.0,1.0,phase_2,stop,200.0,400.0,3.0,,,,,,,,,magenta,hexagon
0.0,2.0,2.0,0.0,6.0,6.0,281.722556999739,4.0,1.0,phase_2,go,150.0,400.0,1.0,,,,,,,,,yellow,diamond
0.0,2.0,2.0,0.0,5.0,5.0,565.1951799991366,4.0,1.0,phase_2,go,150.0,400.0,1.0,,,,,,,,,yellow,diamond
0.0,7.0,3.0,1.0,5.0,5.0,478.154649001226,4.0,1.0,phase_2,go,150.0,400.0,1.0,,,,,,,,,magenta,hexagon
0.0,3.0,3.0,0.0,5.0,5.0,345.8609699991939,4.0,1.0,phase_2,go,150.0,400.0,1.0,,,,,,,,,cyan,I
0.0,7.0,3.0,1.0,6.0,6.0,345.735525002965,4.0,1.0,phase_2,stop,150.0,400.0,3.0,,,,,,,,,magenta,hexagon
0.0,4.0,4.0,0.0,6.0,6.0,354.1010890003235,4.0,1.0,phase_2,go,150.0,350.0,1.0,,,,,,,,,orange,cross
0.0,2.0,2.0,0.0,5.0,5.0,271.0696350004582,4.0,1.0,phase_2,go,150.0,350.0,1.0,,,,,,,,,yellow,diamond
0.0,2.0,2.0,0.0,6.0,6.0,554.708584000764,4.0,1.0,phase_2,go,150.0,350.0,1.0,,,,,,,,,yellow,diamond
0.0,2.0,2.0,0.0,5.0,5.0,387.8718470004969,4.0,1.0,phase_2,go,150.0,350.0,1.0,,,,,,,,,yellow,diamond
0.0,8.0,4.0,1.0,5.0,5.0,335.6221539979742,4.0,1.0,phase_2,stop,150.0,350.0,3.0,,,,,,,,,green,square
0.0,4.0,4.0,0.0,6.0,6.0,451.4446880020841,4.0,1.0,phase_2,go,100.0,350.0,1.0,,,,,,,,,orange,cross
0.0,3.0,3.0,0.0,6.0,6.0,515.2958340004261,4.0,1.0,phase_2,go,100.0,350.0,1.0,,,,,,,,,cyan,I
0.0,8.0,4.0,1.0,6.0,6.0,509.36669599832385,4.0,1.0,phase_2,stop,100.0,350.0,3.0,,,,,,,,,green,square
0.0,2.0,2.0,0.0,6.0,6.0,317.3656539984222,4.0,1.0,phase_2,go,100.0,300.0,1.0,,,,,,,,,yellow,diamond
0.0,7.0,3.0,1.0,6.0,6.0,393.4771779968287,4.0,1.0,phase_2,stop,100.0,300.0,3.0,,,,,,,,,magenta,hexagon
0.0,8.0,4.0,1.0,5.0,5.0,316.2618999995175,4.0,1.0,phase_2,stop,100.0,250.0,3.0,,,,,,,,,green,square
0.0,6.0,2.0,1.0,5.0,0.0,0.0,4.0,1.0,phase_2,stop,50.0,250.0,4.0,,,,,,,,,white,triangle
0.0,4.0,4.0,0.0,6.0,6.0,495.0704410002799,4.0,1.0,phase_2,go,100.0,250.0,1.0,,,,,,,,,orange,cross
0.0,5.0,1.0,1.0,6.0,6.0,321.2232529986067,4.0,1.0,phase_2,stop,100.0,250.0,3.0,,,,,,,,,blue,circle
0.0,7.0,3.0,1.0,6.0,6.0,675.3903099997842,4.0,1.0,phase_2,go,100.0,200.0,1.0,,,,,,,,,magenta,hexagon
0.0,4.0,4.0,0.0,6.0,6.0,372.50504099938547,4.0,1.0,phase_2,go,100.0,200.0,1.0,,,,,,,,,orange,cross
0.0,7.0,3.0,1.0,6.0,0.0,0.0,4.0,1.0,phase_2,stop,100.0,200.0,4.0,,,,,,,,,magenta,hexagon
0.0,5.0,1.0,1.0,6.0,6.0,339.8812849991373,4.0,1.0,phase_2,stop,100.0,250.0,3.0,,,,,,,,,blue,circle
0.0,6.0,2.0,1.0,6.0,6.0,948.9028450007028,4.0,1.0,phase_2,go,100.0,200.0,1.0,,,,,,,,,white,triangle
0.0,8.0,4.0,1.0,6.0,6.0,814.6206059973338,4.0,1.0,phase_2,go,100.0,200.0,1.0,,,,,,,,,green,square
0.0,6.0,2.0,1.0,6.0,0.0,0.0,4.0,1.0,phase_2,stop,100.0,200.0,4.0,,,,,,,,,white,triangle
0.0,1.0,1.0,0.0,5.0,5.0,461.7373369983397,4.0,1.0,phase_2,go,100.0,250.0,1.0,,,,,,,,,gray,flipped triangle
0.0,6.0,2.0,1.0,6.0,0.0,0.0,4.0,1.0,phase_2,stop,100.0,250.0,4.0,,,,,,,,,white,triangle
0.0,5.0,1.0,1.0,5.0,0.0,0.0,4.0,1.0,phase_2,stop,100.0,300.0,4.0,,,,,,,,,blue,circle
0.0,5.0,1.0,1.0,6.0,6.0,703.3767870016163,5.0,1.0,phase_2,go,150.0,300.0,1.0,,,,,,,,,blue,circle
0.0,4.0,4.0,0.0,5.0,5.0,329.8554520006291,5.0,1.0,phase_2,go,150.0,300.0,1.0,,,,,,,,,orange,cross
0.0,4.0,4.0,0.0,6.0,6.0,322.2465990002092,5.0,1.0,phase_2,go,150.0,300.0,1.0,,,,,,,,,orange,cross
0.0,1.0,1.0,0.0,6.0,6.0,352.2723509995558,5.0,1.0,phase_2,go,150.0,300.0,1.0,,,,,,,,,gray,flipped triangle
0.0,2.0,2.0,0.0,5.0,5.0,299.6528289986599,5.0,1.0,phase_2,go,150.0,300.0,1.0,,,,,,,,,yellow,diamond
0.0,8.0,4.0,1.0,5.0,0.0,0.0,5.0,1.0,phase_2,stop,150.0,300.0,4.0,,,,,,,,,green,square
0.0,7.0,3.0,1.0,5.0,0.0,0.0,5.0,1.0,phase_2,stop,200.0,300.0,4.0,,,,,,,,,magenta,hexagon
0.0,3.0,3.0,0.0,5.0,5.0,378.7671960017178,5.0,1.0,phase_2,go,250.0,300.0,1.0,,,,,,,,,cyan,I
0.0,7.0,3.0,1.0,5.0,5.0,389.0923699982522,5.0,1.0,phase_2,stop,250.0,300.0,3.0,,,,,,,,,magenta,hexagon
0.0,7.0,3.0,1.0,6.0,6.0,452.67857500221,5.0,1.0,phase_2,stop,200.0,300.0,3.0,,,,,,,,,magenta,hexagon
0.0,8.0,4.0,1.0,6.0,6.0,636.7461029985861,5.0,1.0,phase_2,go,200.0,250.0,1.0,,,,,,,,,green,square
0.0,7.0,3.0,1.0,6.0,0.0,0.0,5.0,1.0,phase_2,stop,200.0,250.0,4.0,,,,,,,,,magenta,hexagon
0.0,6.0,2.0,1.0,5.0,5.0,540.7657690011547,5.0,1.0,phase_2,go,200.0,300.0,1.0,,,,,,,,,white,triangle
0.0,2.0,2.0,0.0,6.0,6.0,750.393588001316,5.0,1.0,phase_2,go,200.0,300.0,1.0,,,,,,,,,yellow,diamond
0.0,7.0,3.0,1.0,6.0,0.0,0.0,5.0,1.0,phase_2,stop,200.0,300.0,4.0,,,,,,,,,magenta,hexagon
0.0,7.0,3.0,1.0,6.0,5.0,974.3269680002412,5.0,1.0,phase_2,go,200.0,350.0,2.0,,,,,,,,,magenta,hexagon
0.0,6.0,2.0,1.0,5.0,5.0,324.2402359974221,5.0,1.0,phase_2,stop,200.0,350.0,3.0,,,,,,,,,white,triangle
0.0,2.0,2.0,0.0,5.0,5.0,490.8223630009161,5.0,1.0,phase_2,go,150.0,350.0,1.0,,,,,,,,,yellow,diamond
0.0,5.0,1.0,1.0,5.0,0.0,0.0,5.0,1.0,phase_2,stop,150.0,350.0,4.0,,,,,,,,,blue,circle
0.0,3.0,3.0,0.0,5.0,5.0,525.4554040002404,5.0,1.0,phase_2,go,200.0,350.0,1.0,,,,,,,,,cyan,I
0.0,5.0,1.0,1.0,6.0,0.0,0.0,5.0,1.0,phase_2,stop,200.0,350.0,4.0,,,,,,,,,blue,circle
0.0,2.0,2.0,0.0,5.0,5.0,479.7212189987476,5.0,1.0,phase_2,go,200.0,400.0,1.0,,,,,,,,,yellow,diamond
0.0,2.0,2.0,0.0,5.0,5.0,837.4455529992701,5.0,1.0,phase_2,go,200.0,400.0,1.0,,,,,,,,,yellow,diamond
0.0,7.0,3.0,1.0,5.0,5.0,605.3988320018107,5.0,1.0,phase_2,go,200.0,400.0,1.0,,,,,,,,,magenta,hexagon
0.0,4.0,4.0,0.0,6.0,6.0,364.2680150005617,5.0,1.0,phase_2,go,200.0,400.0,1.0,,,,,,,,,orange,cross
0.0,3.0,3.0,0.0,5.0,5.0,498.7762370001292,5.0,1.0,phase_2,go,200.0,400.0,1.0,,,,,,,,,cyan,I
0.0,1.0,1.0,0.0,5.0,5.0,341.2329579987272,5.0,1.0,phase_2,go,200.0,400.0,1.0,,,,,,,,,gray,flipped triangle
0.0,1.0,1.0,0.0,6.0,6.0,348.2523190032225,5.0,1.0,phase_2,go,200.0,400.0,1.0,,,,,,,,,gray,flipped triangle
0.0,4.0,4.0,0.0,5.0,5.0,532.9436870015343,5.0,1.0,phase_2,go,200.0,400.0,1.0,,,,,,,,,orange,cross
0.0,8.0,4.0,1.0,6.0,6.0,371.3171069975942,5.0,1.0,phase_2,stop,200.0,400.0,3.0,,,,,,,,,green,square
0.0,4.0,4.0,0.0,6.0,6.0,740.7355440009269,5.0,1.0,phase_2,go,200.0,350.0,1.0,,,,,,,,,orange,cross
0.0,3.0,3.0,0.0,5.0,5.0,349.4849039998371,5.0,1.0,phase_2,go,200.0,350.0,1.0,,,,,,,,,cyan,I
0.0,6.0,2.0,1.0,5.0,0.0,0.0,5.0,1.0,phase_2,stop,200.0,350.0,4.0,,,,,,,,,white,triangle
0.0,5.0,1.0,1.0,6.0,6.0,311.3656130008166,5.0,1.0,phase_2,stop,250.0,350.0,3.0,,,,,,,,,blue,circle
0.0,2.0,2.0,0.0,5.0,5.0,443.8154689996736,5.0,1.0,phase_2,go,250.0,300.0,1.0,,,,,,,,,yellow,diamond
0.0,1.0,1.0,0.0,5.0,5.0,358.2433459996537,5.0,1.0,phase_2,go,250.0,300.0,1.0,,,,,,,,,gray,flipped triangle
0.0,7.0,3.0,1.0,5.0,5.0,523.8941410025291,6.0,1.0,phase_2,stop,250.0,300.0,3.0,,,,,,,,,magenta,hexagon
0.0,4.0,4.0,0.0,6.0,6.0,347.4251059997186,6.0,1.0,phase_2,go,200.0,300.0,1.0,,,,,,,,,orange,cross
0.0,5.0,1.0,1.0,5.0,5.0,509.54552099938155,6.0,1.0,phase_2,go,200.0,300.0,1.0,,,,,,,,,blue,circle
0.0,8.0,4.0,1.0,5.0,5.0,346.1649689998012,6.0,1.0,phase_2,stop,200.0,300.0,3.0,,,,,,,,,green,square
0.0,8.0,4.0,1.0,5.0,5.0,297.6343390000693,6.0,1.0,phase_2,stop,150.0,300.0,3.0,,,,,,,,,green,square
0.0,3.0,3.0,0.0,5.0,5.0,366.9721930018568,6.0,1.0,phase_2,go,100.0,300.0,1.0,,,,,,,,,cyan,I
0.0,3.0,3.0,0.0,5.0,5.0,422.6179979996232,6.0,1.0,phase_2,go,100.0,300.0,1.0,,,,,,,,,cyan,I
0.0,6.0,2.0,1.0,5.0,5.0,309.5374110016564,6.0,1.0,phase_2,stop,100.0,300.0,3.0,,,,,,,,,white,triangle
0.0,6.0,2.0,1.0,6.0,0.0,0.0,6.0,1.0,phase_2,stop,50.0,300.0,4.0,,,,,,,,,white,triangle
0.0,1.0,1.0,0.0,6.0,6.0,564.9261319995276,6.0,1.0,phase_2,go,50.0,350.0,1.0,,,,,,,,,gray,flipped triangle
0.0,5.0,1.0,1.0,6.0,6.0,477.3020200009341,6.0,1.0,phase_2,stop,50.0,350.0,3.0,,,,,,,,,blue,circle
0.0,3.0,3.0,0.0,5.0,5.0,534.1798779991223,6.0,1.0,phase_2,go,50.0,300.0,1.0,,,,,,,,,cyan,I
0.0,8.0,4.0,1.0,5.0,0.0,0.0,6.0,1.0,phase_2,stop,50.0,300.0,4.0,,,,,,,,,green,square
0.0,2.0,2.0,0.0,6.0,6.0,382.8241519986477,6.0,1.0,phase_2,go,100.0,300.0,1.0,,,,,,,,,yellow,diamond
0.0,8.0,4.0,1.0,6.0,0.0,0.0,6.0,1.0,phase_2,stop,100.0,300.0,4.0,,,,,,,,,green,square
0.0,4.0,4.0,0.0,5.0,5.0,513.383960002102,6.0,1.0,phase_2,go,100.0,350.0,1.0,,,,,,,,,orange,cross
0.0,5.0,1.0,1.0,6.0,6.0,889.170558002661,6.0,1.0,phase_2,go,100.0,350.0,1.0,,,,,,,,,blue,circle
0.0,8.0,4.0,1.0,6.0,6.0,339.0113280001969,6.0,1.0,phase_2,stop,100.0,350.0,3.0,,,,,,,,,green,square
0.0,8.0,4.0,1.0,5.0,0.0,0.0,6.0,1.0,phase_2,stop,100.0,300.0,4.0,,,,,,,,,green,square
0.0,8.0,4.0,1.0,5.0,5.0,504.9247329989157,6.0,1.0,phase_2,go,150.0,300.0,1.0,,,,,,,,,green,square
0.0,4.0,4.0,0.0,5.0,5.0,522.9121449992817,6.0,1.0,phase_2,go,150.0,300.0,1.0,,,,,,,,,orange,cross
0.0,5.0,1.0,1.0,5.0,5.0,338.5783990015625,6.0,1.0,phase_2,go,150.0,300.0,1.0,,,,,,,,,blue,circle
0.0,6.0,2.0,1.0,5.0,5.0,352.5266649994591,6.0,1.0,phase_2,stop,150.0,300.0,3.0,,,,,,,,,white,triangle
0.0,7.0,3.0,1.0,5.0,0.0,0.0,6.0,1.0,phase_2,stop,100.0,300.0,4.0,,,,,,,,,magenta,hexagon
0.0,6.0,2.0,1.0,5.0,5.0,439.105418001418,6.0,1.0,phase_2,go,150.0,300.0,1.0,,,,,,,,,white,triangle
0.0,4.0,4.0,0.0,6.0,6.0,418.0349969974486,6.0,1.0,phase_2,go,150.0,300.0,1.0,,,,,,,,,orange,cross
0.0,2.0,2.0,0.0,6.0,6.0,359.5609959993453,6.0,1.0,phase_2,go,150.0,300.0,1.0,,,,,,,,,yellow,diamond
0.0,4.0,4.0,0.0,6.0,6.0,326.119285000459,6.0,1.0,phase_2,go,150.0,300.0,1.0,,,,,,,,,orange,cross
0.0,3.0,3.0,0.0,6.0,6.0,359.6108120000281,6.0,1.0,phase_2,go,150.0,300.0,1.0,,,,,,,,,cyan,I
0.0,7.0,3.0,1.0,5.0,0.0,0.0,6.0,1.0,phase_2,stop,150.0,300.0,4.0,,,,,,,,,magenta,hexagon
0.0,6.0,2.0,1.0,5.0,5.0,456.0200840023753,6.0,1.0,phase_2,stop,200.0,300.0,3.0,,,,,,,,,white,triangle
0.0,2.0,2.0,0.0,6.0,6.0,353.3149799986859,6.0,1.0,phase_2,go,150.0,300.0,1.0,,,,,,,,,yellow,diamond
0.0,3.0,3.0,0.0,5.0,5.0,481.3900650005962,6.0,1.0,phase_2,go,150.0,300.0,1.0,,,,,,,,,cyan,I
0.0,2.0,2.0,0.0,6.0,6.0,440.8602889998292,6.0,1.0,phase_2,go,150.0,300.0,1.0,,,,,,,,,yellow,diamond
0.0,6.0,2.0,1.0,6.0,6.0,356.6986269979679,6.0,1.0,phase_2,stop,150.0,300.0,3.0,,,,,,,,,white,triangle
0.0,2.0,2.0,0.0,6.0,6.0,552.5849390032818,6.0,1.0,phase_2,go,150.0,250.0,1.0,,,,,,,,,yellow,diamond
0.0,7.0,3.0,1.0,6.0,6.0,487.6840420001826,7.0,1.0,phase_2,stop,150.0,250.0,3.0,,,,,,,,,magenta,hexagon
0.0,5.0,1.0,1.0,6.0,6.0,342.9122050001751,7.0,1.0,phase_2,stop,150.0,200.0,3.0,,,,,,,,,blue,circle
0.0,4.0,4.0,0.0,6.0,6.0,526.8707440009166,7.0,1.0,phase_2,go,150.0,150.0,1.0,,,,,,,,,orange,cross
0.0,5.0,1.0,1.0,5.0,0.0,0.0,7.0,1.0,phase_2,stop,150.0,150.0,4.0,,,,,,,,,blue,circle
0.0,5.0,1.0,1.0,6.0,0.0,0.0,7.0,1.0,phase_2,stop,200.0,150.0,4.0,,,,,,,,,blue,circle
0.0,3.0,3.0,0.0,6.0,6.0,588.9835930029221,7.0,1.0,phase_2,go,200.0,200.0,1.0,,,,,,,,,cyan,I
0.0,2.0,2.0,0.0,5.0,5.0,533.7587940011872,7.0,1.0,phase_2,go,200.0,200.0,1.0,,,,,,,,,yellow,diamond
0.0,4.0,4.0,0.0,6.0,6.0,469.059262999508,7.0,1.0,phase_2,go,200.0,200.0,1.0,,,,,,,,,orange,cross
0.0,1.0,1.0,0.0,5.0,5.0,328.0696529982378,7.0,1.0,phase_2,go,200.0,200.0,1.0,,,,,,,,,gray,flipped triangle
0.0,7.0,3.0,1.0,5.0,0.0,0.0,7.0,1.0,phase_2,stop,200.0,200.0,4.0,,,,,,,,,magenta,hexagon
0.0,6.0,2.0,1.0,5.0,0.0,0.0,7.0,1.0,phase_2,stop,250.0,200.0,4.0,,,,,,,,,white,triangle
0.0,4.0,4.0,0.0,6.0,6.0,384.3001259992888,7.0,1.0,phase_2,go,300.0,200.0,1.0,,,,,,,,,orange,cross
0.0,7.0,3.0,1.0,6.0,6.0,557.9884329999913,7.0,1.0,phase_2,go,300.0,200.0,1.0,,,,,,,,,magenta,hexagon
0.0,2.0,2.0,0.0,6.0,6.0,407.0423019984446,7.0,1.0,phase_2,go,300.0,200.0,1.0,,,,,,,,,yellow,diamond
0.0,3.0,3.0,0.0,6.0,6.0,374.598809001327,7.0,1.0,phase_2,go,300.0,200.0,1.0,,,,,,,,,cyan,I
0.0,1.0,1.0,0.0,5.0,5.0,413.1539139998494,7.0,1.0,phase_2,go,300.0,200.0,1.0,,,,,,,,,gray,flipped triangle
0.0,4.0,4.0,0.0,5.0,5.0,466.2782920022437,7.0,1.0,phase_2,go,300.0,200.0,1.0,,,,,,,,,orange,cross
0.0,6.0,2.0,1.0,6.0,6.0,381.8745270000363,7.0,1.0,phase_2,stop,300.0,200.0,3.0,,,,,,,,,white,triangle
0.0,6.0,2.0,1.0,5.0,5.0,545.5257889989298,7.0,1.0,phase_2,go,300.0,150.0,1.0,,,,,,,,,white,triangle
0.0,7.0,3.0,1.0,6.0,0.0,0.0,7.0,1.0,phase_2,stop,300.0,150.0,4.0,,,,,,,,,magenta,hexagon
0.0,4.0,4.0,0.0,5.0,5.0,523.7447910003539,7.0,1.0,phase_2,go,300.0,200.0,1.0,,,,,,,,,orange,cross
0.0,7.0,3.0,1.0,6.0,6.0,563.0198839971854,7.0,1.0,phase_2,go,300.0,200.0,1.0,,,,,,,,,magenta,hexagon
0.0,1.0,1.0,0.0,6.0,6.0,299.9358239976573,7.0,1.0,phase_2,go,300.0,200.0,1.0,,,,,,,,,gray,flipped triangle
0.0,1.0,1.0,0.0,5.0,5.0,277.7584789982938,7.0,1.0,phase_2,go,300.0,200.0,1.0,,,,,,,,,gray,flipped triangle
0.0,1.0,1.0,0.0,6.0,6.0,339.2934719995537,7.0,1.0,phase_2,go,300.0,200.0,1.0,,,,,,,,,gray,flipped triangle
0.0,7.0,3.0,1.0,5.0,5.0,456.4210810021905,7.0,1.0,phase_2,stop,300.0,200.0,3.0,,,,,,,,,magenta,hexagon
0.0,3.0,3.0,0.0,5.0,5.0,337.8897649999999,7.0,1.0,phase_2,go,250.0,200.0,1.0,,,,,,,,,cyan,I
0.0,6.0,2.0,1.0,5.0,5.0,311.3407069977256,7.0,1.0,phase_2,stop,250.0,200.0,3.0,,,,,,,,,white,triangle
0.0,3.0,3.0,0.0,5.0,5.0,565.6938489992172,7.0,1.0,phase_2,go,200.0,200.0,1.0,,,,,,,,,cyan,I
0.0,2.0,2.0,0.0,6.0,6.0,365.259641999728,7.0,1.0,phase_2,go,200.0,200.0,1.0,,,,,,,,,yellow,diamond
0.0,4.0,4.0,0.0,5.0,5.0,305.3758360001666,7.0,1.0,phase_2,go,200.0,200.0,1.0,,,,,,,,,orange,cross
0.0,7.0,3.0,1.0,5.0,5.0,287.2846890022629,7.0,1.0,phase_2,stop,200.0,200.0,3.0,,,,,,,,,magenta,hexagon
0.0,1.0,1.0,0.0,6.0,6.0,302.1354070006055,7.0,1.0,phase_2,go,150.0,200.0,1.0,,,,,,,,,gray,flipped triangle
0.0,1.0,1.0,0.0,5.0,5.0,492.550241000572,7.0,1.0,phase_2,go,150.0,200.0,1.0,,,,,,,,,gray,flipped triangle
0.0,8.0,4.0,1.0,5.0,0.0,0.0,7.0,1.0,phase_2,stop,150.0,200.0,4.0,,,,,,,,,green,square
0.0,2.0,2.0,0.0,6.0,6.0,391.3336790028552,7.0,1.0,phase_2,go,200.0,200.0,1.0,,,,,,,,,yellow,diamond
0.0,7.0,3.0,1.0,6.0,0.0,0.0,8.0,1.0,phase_2,stop,200.0,200.0,4.0,,,,,,,,,magenta,hexagon
0.0,1.0,1.0,0.0,6.0,6.0,393.0524220013467,8.0,1.0,phase_2,go,200.0,250.0,1.0,,,,,,,,,gray,flipped triangle
0.0,5.0,1.0,1.0,5.0,5.0,399.8769360005099,8.0,1.0,phase_2,stop,200.0,250.0,3.0,,,,,,,,,blue,circle
0.0,4.0,4.0,0.0,6.0,6.0,327.0058420021087,8.0,1.0,phase_2,go,150.0,250.0,1.0,,,,,,,,,orange,cross
0.0,6.0,2.0,1.0,6.0,6.0,514.928605996829,8.0,1.0,phase_2,stop,150.0,250.0,3.0,,,,,,,,,white,triangle
0.0,8.0,4.0,1.0,6.0,0.0,0.0,8.0,1.0,phase_2,stop,150.0,200.0,4.0,,,,,,,,,green,square
0.0,6.0,2.0,1.0,6.0,0.0,0.0,8.0,1.0,phase_2,stop,150.0,250.0,4.0,,,,,,,,,white,triangle
0.0,1.0,1.0,0.0,6.0,6.0,547.7988069978892,8.0,1.0,phase_2,go,150.0,300.0,1.0,,,,,,,,,gray,flipped triangle
0.0,6.0,2.0,1.0,5.0,5.0,305.3371220012195,8.0,1.0,phase_2,stop,150.0,300.0,3.0,,,,,,,,,white,triangle
0.0,5.0,1.0,1.0,5.0,0.0,0.0,8.0,1.0,phase_2,stop,100.0,300.0,4.0,,,,,,,,,blue,circle
0.0,7.0,3.0,1.0,5.0,5.0,795.925790000183,8.0,1.0,phase_2,go,150.0,300.0,1.0,,,,,,,,,magenta,hexagon
0.0,3.0,3.0,0.0,5.0,5.0,309.7657039979822,8.0,1.0,phase_2,go,150.0,300.0,1.0,,,,,,,,,cyan,I
0.0,8.0,4.0,1.0,6.0,6.0,322.6532730004692,8.0,1.0,phase_2,go,150.0,300.0,1.0,,,,,,,,,green,square
0.0,3.0,3.0,0.0,6.0,6.0,416.0062139999354,8.0,1.0,phase_2,go,150.0,300.0,1.0,,,,,,,,,cyan,I
0.0,7.0,3.0,1.0,5.0,5.0,401.8169910013967,8.0,1.0,phase_2,stop,150.0,300.0,3.0,,,,,,,,,magenta,hexagon
0.0,5.0,1.0,1.0,5.0,0.0,0.0,8.0,1.0,phase_2,stop,100.0,300.0,4.0,,,,,,,,,blue,circle
0.0,2.0,2.0,0.0,6.0,6.0,469.6411570002965,8.0,1.0,phase_2,go,150.0,300.0,1.0,,,,,,,,,yellow,diamond
0.0,2.0,2.0,0.0,6.0,6.0,417.7466209985141,8.0,1.0,phase_2,go,150.0,300.0,1.0,,,,,,,,,yellow,diamond
0.0,6.0,2.0,1.0,5.0,5.0,581.4507390023209,8.0,1.0,phase_2,go,150.0,300.0,1.0,,,,,,,,,white,triangle
0.0,4.0,4.0,0.0,5.0,5.0,354.6622529975138,8.0,1.0,phase_2,go,150.0,300.0,1.0,,,,,,,,,orange,cross
0.0,3.0,3.0,0.0,6.0,6.0,305.0501660000009,8.0,1.0,phase_2,go,150.0,300.0,1.0,,,,,,,,,cyan,I
0.0,4.0,4.0,0.0,6.0,6.0,321.6635219978343,8.0,1.0,phase_2,go,150.0,300.0,1.0,,,,,,,,,orange,cross
0.0,1.0,1.0,0.0,6.0,6.0,331.4557919984509,8.0,1.0,phase_2,go,150.0,300.0,1.0,,,,,,,,,gray,flipped triangle
0.0,8.0,4.0,1.0,6.0,6.0,332.15295499758207,8.0,1.0,phase_2,stop,150.0,300.0,3.0,,,,,,,,,green,square
0.0,2.0,2.0,0.0,5.0,5.0,386.3925290024781,8.0,1.0,phase_2,go,150.0,250.0,1.0,,,,,,,,,yellow,diamond
0.0,4.0,4.0,0.0,5.0,5.0,348.4165929985465,8.0,1.0,phase_2,go,150.0,250.0,1.0,,,,,,,,,orange,cross
0.0,3.0,3.0,0.0,5.0,5.0,397.9484109986515,8.0,1.0,phase_2,go,150.0,250.0,1.0,,,,,,,,,cyan,I
0.0,1.0,1.0,0.0,6.0,6.0,424.2569509988243,8.0,1.0,phase_2,go,150.0,250.0,1.0,,,,,,,,,gray,flipped triangle
0.0,3.0,3.0,0.0,6.0,6.0,412.0578069996554,8.0,1.0,phase_2,go,150.0,250.0,1.0,,,,,,,,,cyan,I
0.0,1.0,1.0,0.0,6.0,6.0,337.1724819990049,8.0,1.0,phase_2,go,150.0,250.0,1.0,,,,,,,,,gray,flipped triangle
0.0,1.0,1.0,0.0,6.0,6.0,325.1721250016999,8.0,1.0,phase_2,go,150.0,250.0,1.0,,,,,,,,,gray,flipped triangle
0.0,8.0,4.0,1.0,5.0,5.0,324.2130409998935,8.0,1.0,phase_2,stop,150.0,250.0,3.0,,,,,,,,,green,square
0.0,3.0,3.0,0.0,6.0,6.0,318.2251050020568,8.0,1.0,phase_2,go,100.0,250.0,1.0,,,,,,,,,cyan,I
0.0,3.0,3.0,0.0,6.0,6.0,364.6013520010456,8.0,1.0,phase_2,go,100.0,250.0,1.0,,,,,,,,,cyan,I
0.0,8.0,4.0,1.0,5.0,0.0,0.0,8.0,1.0,phase_2,stop,100.0,250.0,4.0,,,,,,,,,green,square
0.0,1.0,1.0,0.0,5.0,5.0,452.0729520008899,8.0,1.0,phase_2,go,150.0,250.0,1.0,,,,,,,,,gray,flipped triangle
0.0,6.0,2.0,1.0,7.0,4.0,3978.5470700007854,1.0,1.0,phase_3,,,,,117.0,3.0,156.0,39.0,78.0,117.0,234.0,195.0,white,triangle
0.0,3.0,3.0,0.0,7.0,2.0,2557.1285740006715,1.0,1.0,phase_3,,,,,102.0,3.0,204.0,102.0,136.0,68.0,34.0,170.0,cyan,I
0.0,7.0,3.0,1.0,7.0,5.0,2063.650381998741,1.0,1.0,phase_3,,,,,162.0,3.0,216.0,108.0,324.0,54.0,162.0,270.0,magenta,hexagon
0.0,1.0,1.0,0.0,7.0,6.0,1753.0885460000718,1.0,1.0,phase_3,,,,,245.0,5.0,294.0,49.0,196.0,147.0,98.0,245.0,gray,flipped triangle
0.0,6.0,2.0,1.0,7.0,4.0,3110.851890000049,1.0,1.0,phase_3,,,,,54.0,1.0,108.0,270.0,324.0,54.0,216.0,162.0,white,triangle
0.0,3.0,3.0,0.0,7.0,1.0,2096.1811519991898,1.0,1.0,phase_3,,,,,147.0,3.0,147.0,245.0,294.0,98.0,49.0,196.0,cyan,I
0.0,4.0,4.0,0.0,7.0,3.0,1561.1201930005336,1.0,1.0,phase_3,,,,,54.0,1.0,216.0,162.0,54.0,270.0,108.0,324.0,orange,cross
0.0,6.0,2.0,1.0,7.0,4.0,2164.7847660024127,1.0,1.0,phase_3,,,,,264.0,6.0,88.0,176.0,44.0,264.0,220.0,132.0,white,triangle
0.0,7.0,3.0,1.0,7.0,1.0,1996.919324999908,1.0,1.0,phase_3,,,,,245.0,5.0,245.0,294.0,147.0,98.0,49.0,196.0,magenta,hexagon
0.0,5.0,1.0,1.0,7.0,6.0,1998.4755149998816,1.0,1.0,phase_3,,,,,264.0,6.0,176.0,220.0,44.0,88.0,132.0,264.0,blue,circle
0.0,6.0,2.0,1.0,7.0,3.0,1705.4724730005546,1.0,1.0,phase_3,,,,,98.0,2.0,196.0,49.0,98.0,294.0,147.0,245.0,white,triangle
0.0,7.0,3.0,1.0,7.0,4.0,1381.9395069986058,1.0,1.0,phase_3,,,,,88.0,2.0,264.0,176.0,44.0,88.0,220.0,132.0,magenta,hexagon
0.0,6.0,2.0,1.0,7.0,2.0,2243.654472000344,1.0,1.0,phase_3,,,,,176.0,4.0,220.0,176.0,88.0,132.0,264.0,44.0,white,triangle
0.0,8.0,4.0,1.0,7.0,2.0,1880.2864979988956,1.0,1.0,phase_3,,,,,98.0,2.0,245.0,98.0,147.0,49.0,294.0,196.0,green,square
0.0,1.0,1.0,0.0,7.0,5.0,1896.248982000543,1.0,1.0,phase_3,,,,,136.0,4.0,102.0,68.0,170.0,34.0,136.0,204.0,gray,flipped triangle
0.0,2.0,2.0,0.0,7.0,4.0,2561.3909240018984,1.0,1.0,phase_3,,,,,132.0,3.0,176.0,264.0,220.0,132.0,44.0,88.0,yellow,diamond
0.0,3.0,3.0,0.0,7.0,3.0,1654.7656129987445,1.0,1.0,phase_3,,,,,196.0,4.0,49.0,245.0,196.0,98.0,147.0,294.0,cyan,I
0.0,3.0,3.0,0.0,7.0,4.0,1503.1940580010996,1.0,1.0,phase_3,,,,,176.0,4.0,44.0,88.0,220.0,176.0,264.0,132.0,cyan,I
0.0,8.0,4.0,1.0,7.0,4.0,1492.7868279992254,1.0,1.0,phase_3,,,,,220.0,5.0,264.0,176.0,44.0,220.0,88.0,132.0,green,square
0.0,5.0,1.0,1.0,7.0,2.0,652.1717730029195,1.0,1.0,phase_3,,,,,88.0,2.0,220.0,88.0,132.0,264.0,44.0,176.0,blue,circle
0.0,4.0,4.0,0.0,7.0,2.0,1260.4679910000414,2.0,1.0,phase_3,,,,,195.0,5.0,156.0,195.0,39.0,117.0,78.0,234.0,orange,cross
0.0,2.0,2.0,0.0,7.0,5.0,1368.385434001539,2.0,1.0,phase_3,,,,,324.0,6.0,108.0,162.0,270.0,216.0,324.0,54.0,yellow,diamond
0.0,2.0,2.0,0.0,7.0,3.0,927.265243997681,2.0,1.0,phase_3,,,,,39.0,1.0,156.0,234.0,39.0,78.0,195.0,117.0,yellow,diamond
0.0,6.0,2.0,1.0,7.0,2.0,690.7888280002226,2.0,1.0,phase_3,,,,,136.0,4.0,204.0,136.0,68.0,170.0,102.0,34.0,white,triangle
0.0,3.0,3.0,0.0,7.0,5.0,534.0563450008631,2.0,1.0,phase_3,,,,,324.0,6.0,108.0,162.0,270.0,216.0,324.0,54.0,cyan,I
0.0,8.0,4.0,1.0,7.0,1.0,492.8158410002652,2.0,1.0,phase_3,,,,,78.0,2.0,78.0,39.0,156.0,234.0,117.0,195.0,green,square
0.0,6.0,2.0,1.0,7.0,6.0,1200.8778780000284,2.0,1.0,phase_3,,,,,49.0,1.0,196.0,147.0,98.0,245.0,294.0,49.0,white,triangle
0.0,7.0,3.0,1.0,7.0,2.0,793.4916869999142,2.0,1.0,phase_3,,,,,54.0,1.0,162.0,54.0,216.0,270.0,108.0,324.0,magenta,hexagon
0.0,1.0,1.0,0.0,7.0,4.0,1368.2693250011653,2.0,1.0,phase_3,,,,,132.0,3.0,44.0,264.0,88.0,132.0,176.0,220.0,gray,flipped triangle
0.0,4.0,4.0,0.0,7.0,5.0,682.6270300007309,2.0,1.0,phase_3,,,,,136.0,4.0,68.0,102.0,34.0,204.0,136.0,170.0,orange,cross
0.0,7.0,3.0,1.0,7.0,2.0,400.9532960008073,2.0,1.0,phase_3,,,,,245.0,5.0,294.0,245.0,98.0,196.0,147.0,49.0,magenta,hexagon
0.0,8.0,4.0,1.0,7.0,4.0,485.0048529988271,2.0,1.0,phase_3,,,,,294.0,6.0,49.0,245.0,196.0,294.0,147.0,98.0,green,square
0.0,2.0,2.0,0.0,7.0,5.0,265.835539001273,2.0,1.0,phase_3,,,,,147.0,3.0,49.0,245.0,98.0,294.0,147.0,196.0,yellow,diamond
0.0,5.0,1.0,1.0,7.0,3.0,545.6524590008485,2.0,1.0,phase_3,,,,,34.0,1.0,68.0,102.0,34.0,204.0,136.0,170.0,blue,circle
0.0,2.0,2.0,0.0,7.0,4.0,1594.77320500082,2.0,1.0,phase_3,,,,,68.0,2.0,34.0,102.0,204.0,68.0,170.0,136.0,yellow,diamond
0.0,5.0,1.0,1.0,7.0,3.0,344.7791159996995,2.0,1.0,phase_3,,,,,102.0,3.0,34.0,170.0,102.0,68.0,136.0,204.0,blue,circle
0.0,3.0,3.0,0.0,7.0,5.0,389.869765000185,2.0,1.0,phase_3,,,,,132.0,3.0,88.0,264.0,44.0,176.0,132.0,220.0,cyan,I
0.0,2.0,2.0,0.0,7.0,2.0,333.7891260016477,2.0,1.0,phase_3,,,,,176.0,4.0,44.0,176.0,88.0,220.0,132.0,264.0,yellow,diamond
0.0,3.0,3.0,0.0,7.0,4.0,609.2109259989229,2.0,1.0,phase_3,,,,,195.0,5.0,78.0,117.0,156.0,195.0,39.0,234.0,cyan,I
0.0,1.0,1.0,0.0,7.0,2.0,373.9269280013104,2.0,1.0,phase_3,,,,,44.0,1.0,264.0,44.0,176.0,88.0,220.0,132.0,gray,flipped triangle
0.0,1.0,1.0,0.0,7.0,4.0,645.5366630034405,3.0,1.0,phase_3,,,,,98.0,2.0,49.0,245.0,294.0,98.0,196.0,147.0,gray,flipped triangle
0.0,6.0,2.0,1.0,7.0,5.0,549.1452679998474,3.0,1.0,phase_3,,,,,117.0,3.0,234.0,39.0,156.0,195.0,117.0,78.0,white,triangle
0.0,5.0,1.0,1.0,7.0,3.0,489.2508189986984,3.0,1.0,phase_3,,,,,54.0,1.0,108.0,162.0,54.0,324.0,270.0,216.0,blue,circle
0.0,5.0,1.0,1.0,7.0,5.0,358.7613999989116,3.0,1.0,phase_3,,,,,117.0,3.0,234.0,195.0,39.0,78.0,117.0,156.0,blue,circle
0.0,1.0,1.0,0.0,7.0,1.0,1698.477123001794,3.0,1.0,phase_3,,,,,234.0,6.0,234.0,39.0,117.0,78.0,195.0,156.0,gray,flipped triangle
0.0,8.0,4.0,1.0,7.0,6.0,400.0743090000469,3.0,1.0,phase_3,,,,,39.0,1.0,195.0,117.0,234.0,78.0,156.0,39.0,green,square
0.0,5.0,1.0,1.0,7.0,3.0,679.8669440031517,3.0,1.0,phase_3,,,,,147.0,3.0,196.0,98.0,147.0,49.0,294.0,245.0,blue,circle
0.0,4.0,4.0,0.0,7.0,4.0,527.6097459973244,3.0,1.0,phase_3,,,,,98.0,2.0,294.0,49.0,147.0,98.0,245.0,196.0,orange,cross
0.0,3.0,3.0,0.0,7.0,4.0,309.715816998505,3.0,1.0,phase_3,,,,,270.0,5.0,324.0,108.0,54.0,270.0,216.0,162.0,cyan,I
0.0,5.0,1.0,1.0,7.0,5.0,493.7298580007336,3.0,1.0,phase_3,,,,,162.0,3.0,108.0,54.0,324.0,270.0,162.0,216.0,blue,circle
0.0,2.0,2.0,0.0,7.0,6.0,352.3226520010212,3.0,1.0,phase_3,,,,,170.0,5.0,68.0,136.0,102.0,34.0,204.0,170.0,yellow,diamond
0.0,6.0,2.0,1.0,7.0,2.0,281.5614079991064,3.0,1.0,phase_3,,,,,68.0,2.0,204.0,68.0,136.0,170.0,102.0,34.0,white,triangle
0.0,3.0,3.0,0.0,7.0,5.0,300.1419030006218,3.0,1.0,phase_3,,,,,102.0,3.0,34.0,204.0,136.0,170.0,102.0,68.0,cyan,I
0.0,5.0,1.0,1.0,7.0,2.0,285.2688050006691,3.0,1.0,phase_3,,,,,39.0,1.0,156.0,39.0,117.0,234.0,195.0,78.0,blue,circle
0.0,1.0,1.0,0.0,7.0,4.0,284.3557020023581,3.0,1.0,phase_3,,,,,108.0,2.0,54.0,324.0,216.0,108.0,270.0,162.0,gray,flipped triangle
0.0,3.0,3.0,0.0,7.0,5.0,365.4895070030761,3.0,1.0,phase_3,,,,,234.0,6.0,39.0,117.0,195.0,78.0,234.0,156.0,cyan,I
0.0,1.0,1.0,0.0,7.0,4.0,427.7641949993267,3.0,1.0,phase_3,,,,,34.0,1.0,170.0,204.0,102.0,34.0,68.0,136.0,gray,flipped triangle
0.0,4.0,4.0,0.0,7.0,2.0,449.0041620010743,3.0,1.0,phase_3,,,,,78.0,2.0,234.0,78.0,117.0,195.0,156.0,39.0,orange,cross
0.0,8.0,4.0,1.0,7.0,2.0,456.0357849986758,3.0,1.0,phase_3,,,,,176.0,4.0,132.0,176.0,264.0,44.0,88.0,220.0,green,square
0.0,5.0,1.0,1.0,7.0,6.0,348.3642719984345,3.0,1.0,phase_3,,,,,98.0,2.0,49.0,196.0,294.0,147.0,245.0,98.0,blue,circle
0.0,4.0,4.0,0.0,7.0,3.0,416.719278000528,4.0,1.0,phase_3,,,,,162.0,3.0,270.0,108.0,162.0,216.0,54.0,324.0,orange,cross
0.0,8.0,4.0,1.0,7.0,4.0,398.5486660021706,4.0,1.0,phase_3,,,,,54.0,1.0,270.0,162.0,324.0,54.0,216.0,108.0,green,square
0.0,4.0,4.0,0.0,7.0,5.0,337.3936529969796,4.0,1.0,phase_3,,,,,132.0,3.0,44.0,220.0,176.0,88.0,132.0,264.0,orange,cross
0.0,8.0,4.0,1.0,7.0,1.0,377.5517600006424,4.0,1.0,phase_3,,,,,204.0,6.0,204.0,136.0,68.0,170.0,102.0,34.0,green,square
0.0,1.0,1.0,0.0,7.0,3.0,436.8372089993499,4.0,1.0,phase_3,,,,,39.0,1.0,78.0,117.0,39.0,195.0,156.0,234.0,gray,flipped triangle
0.0,4.0,4.0,0.0,7.0,4.0,486.2045039990335,4.0,1.0,phase_3,,,,,68.0,2.0,204.0,170.0,136.0,68.0,34.0,102.0,orange,cross
0.0,7.0,3.0,1.0,7.0,2.0,321.029004000593,4.0,1.0,phase_3,,,,,39.0,1.0,195.0,39.0,117.0,234.0,78.0,156.0,magenta,hexagon
0.0,8.0,4.0,1.0,7.0,5.0,309.6155569983239,4.0,1.0,phase_3,,,,,162.0,3.0,324.0,216.0,108.0,270.0,162.0,54.0,green,square
0.0,2.0,2.0,0.0,7.0,2.0,305.3536299994448,4.0,1.0,phase_3,,,,,147.0,3.0,294.0,147.0,98.0,196.0,49.0,245.0,yellow,diamond
0.0,4.0,4.0,0.0,7.0,2.0,353.994741999486,4.0,1.0,phase_3,,,,,98.0,2.0,147.0,98.0,49.0,196.0,294.0,245.0,orange,cross
0.0,6.0,2.0,1.0,7.0,2.0,416.8951810024737,4.0,1.0,phase_3,,,,,270.0,5.0,108.0,270.0,54.0,162.0,324.0,216.0,white,triangle
0.0,2.0,2.0,0.0,7.0,4.0,414.7400149995519,4.0,1.0,phase_3,,,,,324.0,6.0,108.0,162.0,270.0,324.0,54.0,216.0,yellow,diamond
0.0,7.0,3.0,1.0,7.0,2.0,924.9099400003616,4.0,1.0,phase_3,,,,,34.0,1.0,68.0,34.0,204.0,170.0,136.0,102.0,magenta,hexagon
0.0,1.0,1.0,0.0,7.0,4.0,693.4177139992244,4.0,1.0,phase_3,,,,,162.0,3.0,324.0,54.0,108.0,162.0,216.0,270.0,gray,flipped triangle
0.0,2.0,2.0,0.0,7.0,5.0,354.7530699979688,4.0,1.0,phase_3,,,,,156.0,4.0,39.0,234.0,78.0,117.0,156.0,195.0,yellow,diamond
0.0,8.0,4.0,1.0,7.0,4.0,367.660199997772,4.0,1.0,phase_3,,,,,34.0,1.0,170.0,102.0,136.0,34.0,204.0,68.0,green,square
0.0,7.0,3.0,1.0,7.0,5.0,464.1952080019109,4.0,1.0,phase_3,,,,,156.0,4.0,234.0,117.0,39.0,78.0,156.0,195.0,magenta,hexagon
0.0,7.0,3.0,1.0,7.0,1.0,743.8713790033944,4.0,1.0,phase_3,,,,,136.0,4.0,136.0,170.0,34.0,204.0,102.0,68.0,magenta,hexagon
0.0,7.0,3.0,1.0,7.0,4.0,840.1236640020215,4.0,1.0,phase_3,,,,,220.0,5.0,176.0,44.0,132.0,220.0,88.0,264.0,magenta,hexagon
0.0,4.0,4.0,0.0,7.0,2.0,1284.2365469987271,4.0,1.0,phase_3,,,,,264.0,6.0,132.0,264.0,220.0,176.0,88.0,44.0,orange,cross
