raw_reward_magnitude,stim_reward,stepwise_reward_magnitude,paired_with_stopping,stim_location,response,reaction_time,block,num_trial_presentations,which_phase,stop_signal_trial_type,left_SSD,right_SSD,accuracy,chosen_bidding_amount,chosen_bidding_level,possible_bid_1,possible_bid_2,possible_bid_3,possible_bid_4,possible_bid_5,possible_bid_6,color_text,shape_text
73.0,5.0,1.0,1.0,2.0,2.0,374.2985610001597,1.0,1.0,phase_1,,,,,,,,,,,,,gray,circle
56.0,5.0,1.0,1.0,4.0,4.0,303.906999999981,1.0,1.0,phase_1,,,,,,,,,,,,,gray,circle
0.0,8.0,0.0,1.0,1.0,1.0,243.2293589999972,1.0,1.0,phase_1,,,,,,,,,,,,,blue,hexagon
218.0,3.0,3.0,0.0,1.0,1.0,302.0328380000592,1.0,1.0,phase_1,,,,,,,,,,,,,orange,diamond
75.0,6.0,2.0,1.0,1.0,1.0,279.1690560000006,1.0,1.0,phase_1,,,,,,,,,,,,,white,I
413.0,8.0,4.0,1.0,1.0,1.0,287.9085729998678,1.0,1.0,phase_1,,,,,,,,,,,,,blue,hexagon
183.0,3.0,3.0,0.0,3.0,3.0,274.3680209998729,1.0,1.0,phase_1,,,,,,,,,,,,,orange,diamond
32.0,5.0,1.0,1.0,1.0,1.0,303.4788140000728,1.0,1.0,phase_1,,,,,,,,,,,,,gray,circle
40.0,5.0,1.0,1.0,4.0,4.0,318.7223620000168,1.0,1.0,phase_1,,,,,,,,,,,,,gray,circle
421.0,8.0,4.0,1.0,1.0,1.0,270.5840349999562,1.0,1.0,phase_1,,,,,,,,,,,,,blue,hexagon
101.0,6.0,2.0,1.0,4.0,4.0,259.2634820000512,1.0,1.0,phase_1,,,,,,,,,,,,,white,I
44.0,5.0,1.0,1.0,1.0,1.0,298.986960999855,1.0,1.0,phase_1,,,,,,,,,,,,,gray,circle
42.0,5.0,1.0,1.0,4.0,4.0,418.707983999866,1.0,2.0,phase_1,,,,,,,,,,,,,gray,circle
47.0,1.0,1.0,0.0,1.0,1.0,368.2280559999071,1.0,1.0,phase_1,,,,,,,,,,,,,yellow,triangle
415.0,8.0,4.0,1.0,1.0,1.0,315.3881490000003,1.0,1.0,phase_1,,,,,,,,,,,,,blue,hexagon
59.0,1.0,1.0,0.0,4.0,4.0,339.2193160000261,1.0,1.0,phase_1,,,,,,,,,,,,,yellow,triangle
213.0,7.0,3.0,1.0,3.0,3.0,395.1296739999179,1.0,1.0,phase_1,,,,,,,,,,,,,cyan,square
204.0,3.0,3.0,0.0,3.0,3.0,350.826029000018,1.0,1.0,phase_1,,,,,,,,,,,,,orange,diamond
99.0,6.0,2.0,1.0,1.0,1.0,361.3592070000777,1.0,1.0,phase_1,,,,,,,,,,,,,white,I
52.0,5.0,1.0,1.0,2.0,2.0,315.0360289998843,1.0,1.0,phase_1,,,,,,,,,,,,,gray,circle
199.0,3.0,3.0,0.0,2.0,2.0,323.3050759999969,1.0,1.0,phase_1,,,,,,,,,,,,,orange,diamond
58.0,5.0,1.0,1.0,1.0,1.0,309.961352000073,1.0,1.0,phase_1,,,,,,,,,,,,,gray,circle
42.0,1.0,1.0,0.0,1.0,1.0,379.4911080001384,1.0,1.0,phase_1,,,,,,,,,,,,,yellow,triangle
103.0,6.0,2.0,1.0,2.0,2.0,321.2560760000542,1.0,1.0,phase_1,,,,,,,,,,,,,white,I
0.0,5.0,0.0,1.0,1.0,1.0,302.3714299999938,1.0,1.0,phase_1,,,,,,,,,,,,,gray,circle
0.0,7.0,0.0,1.0,1.0,1.0,335.2256069999839,1.0,1.0,phase_1,,,,,,,,,,,,,cyan,square
95.0,6.0,2.0,1.0,1.0,1.0,295.112003999975,1.0,1.0,phase_1,,,,,,,,,,,,,white,I
68.0,1.0,1.0,0.0,2.0,2.0,315.1524429999881,1.0,1.0,phase_1,,,,,,,,,,,,,yellow,triangle
95.0,2.0,2.0,0.0,3.0,3.0,379.9231430000418,1.0,1.0,phase_1,,,,,,,,,,,,,magenta,cross
0.0,4.0,0.0,0.0,3.0,3.0,340.122238000049,1.0,1.0,phase_1,,,,,,,,,,,,,green,flipped triangle
37.0,5.0,1.0,1.0,3.0,3.0,323.2986650000384,1.0,1.0,phase_1,,,,,,,,,,,,,gray,circle
0.0,1.0,0.0,0.0,4.0,4.0,480.3815020000002,1.0,1.0,phase_1,,,,,,,,,,,,,yellow,triangle
185.0,7.0,3.0,1.0,3.0,3.0,342.5940770000579,1.0,1.0,phase_1,,,,,,,,,,,,,cyan,square
376.0,8.0,4.0,1.0,4.0,4.0,434.1777909999109,1.0,1.0,phase_1,,,,,,,,,,,,,blue,hexagon
413.0,4.0,4.0,0.0,3.0,3.0,345.2318240001659,1.0,1.0,phase_1,,,,,,,,,,,,,green,flipped triangle
177.0,3.0,3.0,0.0,3.0,3.0,319.8415910001131,1.0,1.0,phase_1,,,,,,,,,,,,,orange,diamond
36.0,5.0,1.0,1.0,3.0,3.0,348.4181840001383,1.0,1.0,phase_1,,,,,,,,,,,,,gray,circle
184.0,3.0,3.0,0.0,4.0,4.0,396.1583000000246,1.0,1.0,phase_1,,,,,,,,,,,,,orange,diamond
80.0,2.0,2.0,0.0,3.0,3.0,334.1325300000335,1.0,1.0,phase_1,,,,,,,,,,,,,magenta,cross
95.0,6.0,2.0,1.0,1.0,1.0,304.9365290000878,1.0,1.0,phase_1,,,,,,,,,,,,,white,I
214.0,3.0,3.0,0.0,4.0,4.0,329.2931040000439,1.0,1.0,phase_1,,,,,,,,,,,,,orange,diamond
406.0,4.0,4.0,0.0,2.0,2.0,366.4771759999894,1.0,1.0,phase_1,,,,,,,,,,,,,green,flipped triangle
193.0,3.0,3.0,0.0,4.0,4.0,325.0558790000468,1.0,1.0,phase_1,,,,,,,,,,,,,orange,diamond
208.0,3.0,3.0,0.0,1.0,1.0,336.7242849999456,1.0,1.0,phase_1,,,,,,,,,,,,,orange,diamond
378.0,4.0,4.0,0.0,1.0,1.0,427.4185299998407,1.0,1.0,phase_1,,,,,,,,,,,,,green,flipped triangle
53.0,1.0,1.0,0.0,1.0,1.0,387.7385419998518,1.0,1.0,phase_1,,,,,,,,,,,,,yellow,triangle
59.0,5.0,1.0,1.0,2.0,2.0,463.6792490000516,1.0,1.0,phase_1,,,,,,,,,,,,,gray,circle
60.0,5.0,1.0,1.0,4.0,4.0,397.7787909998369,1.0,1.0,phase_1,,,,,,,,,,,,,gray,circle
405.0,8.0,4.0,1.0,4.0,4.0,342.0116409999991,1.0,2.0,phase_1,,,,,,,,,,,,,blue,hexagon
0.0,7.0,0.0,1.0,2.0,2.0,303.0957930000113,1.0,1.0,phase_1,,,,,,,,,,,,,cyan,square
403.0,8.0,4.0,1.0,4.0,4.0,298.9848910001456,1.0,1.0,phase_1,,,,,,,,,,,,,blue,hexagon
0.0,7.0,0.0,1.0,1.0,1.0,300.1260439998532,1.0,1.0,phase_1,,,,,,,,,,,,,cyan,square
181.0,3.0,3.0,0.0,2.0,2.0,354.8978799999531,1.0,1.0,phase_1,,,,,,,,,,,,,orange,diamond
206.0,3.0,3.0,0.0,1.0,1.0,294.0453730000172,1.0,1.0,phase_1,,,,,,,,,,,,,orange,diamond
47.0,5.0,1.0,1.0,2.0,2.0,384.7843119999652,1.0,1.0,phase_1,,,,,,,,,,,,,gray,circle
0.0,2.0,0.0,0.0,4.0,4.0,354.7883200001251,1.0,1.0,phase_1,,,,,,,,,,,,,magenta,cross
0.0,4.0,0.0,0.0,3.0,3.0,397.6910930000485,1.0,1.0,phase_1,,,,,,,,,,,,,green,flipped triangle
33.0,1.0,1.0,0.0,3.0,3.0,369.7165490000316,1.0,1.0,phase_1,,,,,,,,,,,,,yellow,triangle
408.0,8.0,4.0,1.0,2.0,2.0,347.6658120000593,1.0,1.0,phase_1,,,,,,,,,,,,,blue,hexagon
116.0,2.0,2.0,0.0,2.0,2.0,369.2679469997983,1.0,1.0,phase_1,,,,,,,,,,,,,magenta,cross
0.0,1.0,0.0,0.0,1.0,1.0,325.2014319998579,1.0,1.0,phase_1,,,,,,,,,,,,,yellow,triangle
0.0,7.0,0.0,1.0,1.0,1.0,354.7334119998595,1.0,1.0,phase_1,,,,,,,,,,,,,cyan,square
0.0,5.0,0.0,1.0,3.0,3.0,359.7994140000082,1.0,1.0,phase_1,,,,,,,,,,,,,gray,circle
403.0,4.0,4.0,0.0,2.0,2.0,314.3953769999825,1.0,1.0,phase_1,,,,,,,,,,,,,green,flipped triangle
0.0,4.0,0.0,0.0,1.0,1.0,335.3970860000572,1.0,1.0,phase_1,,,,,,,,,,,,,green,flipped triangle
31.0,1.0,1.0,0.0,2.0,2.0,333.5675809998975,1.0,1.0,phase_1,,,,,,,,,,,,,yellow,triangle
376.0,4.0,4.0,0.0,4.0,4.0,343.7021119998462,1.0,1.0,phase_1,,,,,,,,,,,,,green,flipped triangle
416.0,4.0,4.0,0.0,3.0,3.0,398.0022749999534,1.0,1.0,phase_1,,,,,,,,,,,,,green,flipped triangle
398.0,4.0,4.0,0.0,1.0,1.0,312.0609180000429,1.0,1.0,phase_1,,,,,,,,,,,,,green,flipped triangle
59.0,5.0,1.0,1.0,1.0,1.0,314.7663390000161,1.0,1.0,phase_1,,,,,,,,,,,,,gray,circle
117.0,6.0,2.0,1.0,1.0,1.0,332.6161570000749,1.0,1.0,phase_1,,,,,,,,,,,,,white,I
0.0,6.0,0.0,1.0,4.0,4.0,584.3682129998342,1.0,1.0,phase_1,,,,,,,,,,,,,white,I
0.0,7.0,0.0,1.0,3.0,3.0,428.0176019999544,1.0,1.0,phase_1,,,,,,,,,,,,,cyan,square
83.0,6.0,2.0,1.0,2.0,2.0,297.621700000036,1.0,1.0,phase_1,,,,,,,,,,,,,white,I
0.0,5.0,0.0,1.0,2.0,2.0,379.4451680000748,1.0,1.0,phase_1,,,,,,,,,,,,,gray,circle
390.0,4.0,4.0,0.0,4.0,4.0,323.2587879999755,1.0,1.0,phase_1,,,,,,,,,,,,,green,flipped triangle
223.0,3.0,3.0,0.0,2.0,2.0,319.925651000176,1.0,1.0,phase_1,,,,,,,,,,,,,orange,diamond
185.0,7.0,3.0,1.0,4.0,4.0,384.8493180000787,1.0,1.0,phase_1,,,,,,,,,,,,,cyan,square
416.0,8.0,4.0,1.0,3.0,3.0,505.7140750000144,1.0,1.0,phase_1,,,,,,,,,,,,,blue,hexagon
188.0,7.0,3.0,1.0,4.0,4.0,436.0478930000226,1.0,1.0,phase_1,,,,,,,,,,,,,cyan,square
403.0,4.0,4.0,0.0,1.0,1.0,385.1797720001286,1.0,1.0,phase_1,,,,,,,,,,,,,green,flipped triangle
392.0,8.0,4.0,1.0,3.0,3.0,349.8466510000071,1.0,1.0,phase_1,,,,,,,,,,,,,blue,hexagon
52.0,1.0,1.0,0.0,2.0,2.0,339.587665999943,1.0,1.0,phase_1,,,,,,,,,,,,,yellow,triangle
207.0,7.0,3.0,1.0,1.0,1.0,344.9240140000711,1.0,1.0,phase_1,,,,,,,,,,,,,cyan,square
191.0,3.0,3.0,0.0,3.0,3.0,321.8582710001101,1.0,1.0,phase_1,,,,,,,,,,,,,orange,diamond
54.0,5.0,1.0,1.0,4.0,4.0,420.3106620000199,1.0,1.0,phase_1,,,,,,,,,,,,,gray,circle
115.0,6.0,2.0,1.0,3.0,3.0,491.2534469999627,1.0,1.0,phase_1,,,,,,,,,,,,,white,I
420.0,4.0,4.0,0.0,2.0,2.0,343.2694820000961,1.0,1.0,phase_1,,,,,,,,,,,,,green,flipped triangle
378.0,4.0,4.0,0.0,3.0,3.0,419.1467949999605,1.0,1.0,phase_1,,,,,,,,,,,,,green,flipped triangle
0.0,1.0,0.0,0.0,3.0,3.0,360.3952930000105,1.0,1.0,phase_1,,,,,,,,,,,,,yellow,triangle
415.0,8.0,4.0,1.0,2.0,2.0,352.997847999859,1.0,1.0,phase_1,,,,,,,,,,,,,blue,hexagon
63.0,5.0,1.0,1.0,2.0,2.0,364.3210349998753,1.0,1.0,phase_1,,,,,,,,,,,,,gray,circle
83.0,6.0,2.0,1.0,3.0,3.0,497.2384899999724,1.0,1.0,phase_1,,,,,,,,,,,,,white,I
0.0,6.0,0.0,1.0,1.0,1.0,329.6775030000844,1.0,1.0,phase_1,,,,,,,,,,,,,white,I
99.0,2.0,2.0,0.0,1.0,1.0,407.8311729999768,1.0,1.0,phase_1,,,,,,,,,,,,,magenta,cross
383.0,8.0,4.0,1.0,1.0,1.0,423.9383849999285,1.0,1.0,phase_1,,,,,,,,,,,,,blue,hexagon
415.0,4.0,4.0,0.0,1.0,1.0,421.8640829999458,1.0,1.0,phase_1,,,,,,,,,,,,,green,flipped triangle
37.0,1.0,1.0,0.0,1.0,1.0,378.9674329998433,1.0,1.0,phase_1,,,,,,,,,,,,,yellow,triangle
403.0,8.0,4.0,1.0,2.0,2.0,377.4677649998921,1.0,1.0,phase_1,,,,,,,,,,,,,blue,hexagon
190.0,7.0,3.0,1.0,2.0,2.0,356.9762370000262,1.0,1.0,phase_1,,,,,,,,,,,,,cyan,square
119.0,6.0,2.0,1.0,1.0,1.0,487.6750820001234,2.0,1.0,phase_1,,,,,,,,,,,,,white,I
385.0,8.0,4.0,1.0,2.0,2.0,337.8215830000499,2.0,1.0,phase_1,,,,,,,,,,,,,blue,hexagon
190.0,3.0,3.0,0.0,4.0,4.0,426.1686620000091,2.0,1.0,phase_1,,,,,,,,,,,,,orange,diamond
379.0,4.0,4.0,0.0,3.0,3.0,462.0016039998518,2.0,1.0,phase_1,,,,,,,,,,,,,green,flipped triangle
200.0,7.0,3.0,1.0,1.0,1.0,269.6728440000697,2.0,1.0,phase_1,,,,,,,,,,,,,cyan,square
186.0,3.0,3.0,0.0,4.0,4.0,321.1394190000192,2.0,1.0,phase_1,,,,,,,,,,,,,orange,diamond
0.0,6.0,0.0,1.0,3.0,3.0,385.2549640000688,2.0,1.0,phase_1,,,,,,,,,,,,,white,I
209.0,3.0,3.0,0.0,4.0,4.0,379.226158000165,2.0,1.0,phase_1,,,,,,,,,,,,,orange,diamond
113.0,6.0,2.0,1.0,1.0,1.0,303.0501559999266,2.0,1.0,phase_1,,,,,,,,,,,,,white,I
417.0,8.0,4.0,1.0,2.0,2.0,352.1877450000374,2.0,1.0,phase_1,,,,,,,,,,,,,blue,hexagon
75.0,2.0,2.0,0.0,3.0,3.0,415.9528150000824,2.0,1.0,phase_1,,,,,,,,,,,,,magenta,cross
52.0,1.0,1.0,0.0,1.0,1.0,320.5442630001016,2.0,1.0,phase_1,,,,,,,,,,,,,yellow,triangle
48.0,5.0,1.0,1.0,3.0,3.0,385.5947980000564,2.0,1.0,phase_1,,,,,,,,,,,,,gray,circle
44.0,5.0,1.0,1.0,2.0,2.0,421.8296460001056,2.0,1.0,phase_1,,,,,,,,,,,,,gray,circle
79.0,2.0,2.0,0.0,3.0,3.0,402.785182000116,2.0,1.0,phase_1,,,,,,,,,,,,,magenta,cross
381.0,8.0,4.0,1.0,3.0,3.0,367.5070059998688,2.0,1.0,phase_1,,,,,,,,,,,,,blue,hexagon
25.0,1.0,1.0,0.0,3.0,3.0,365.3414340001291,2.0,1.0,phase_1,,,,,,,,,,,,,yellow,triangle
111.0,6.0,2.0,1.0,2.0,2.0,312.9850129998885,2.0,1.0,phase_1,,,,,,,,,,,,,white,I
110.0,6.0,2.0,1.0,2.0,2.0,329.3100680000407,2.0,1.0,phase_1,,,,,,,,,,,,,white,I
85.0,6.0,2.0,1.0,3.0,3.0,381.5607970000201,2.0,1.0,phase_1,,,,,,,,,,,,,white,I
177.0,7.0,3.0,1.0,2.0,2.0,352.9090910001287,2.0,1.0,phase_1,,,,,,,,,,,,,cyan,square
423.0,4.0,4.0,0.0,2.0,2.0,317.4137729999984,2.0,1.0,phase_1,,,,,,,,,,,,,green,flipped triangle
95.0,2.0,2.0,0.0,2.0,2.0,315.7515910002075,2.0,1.0,phase_1,,,,,,,,,,,,,magenta,cross
0.0,3.0,0.0,0.0,1.0,1.0,302.3346840000158,2.0,1.0,phase_1,,,,,,,,,,,,,orange,diamond
0.0,1.0,0.0,0.0,3.0,3.0,341.4277890001358,2.0,1.0,phase_1,,,,,,,,,,,,,yellow,triangle
216.0,7.0,3.0,1.0,1.0,1.0,356.3528330000736,2.0,1.0,phase_1,,,,,,,,,,,,,cyan,square
48.0,1.0,1.0,0.0,4.0,4.0,419.2763779999495,2.0,1.0,phase_1,,,,,,,,,,,,,yellow,triangle
52.0,5.0,1.0,1.0,1.0,1.0,445.7042069998351,2.0,1.0,phase_1,,,,,,,,,,,,,gray,circle
404.0,8.0,4.0,1.0,1.0,1.0,394.0511789999164,2.0,1.0,phase_1,,,,,,,,,,,,,blue,hexagon
88.0,6.0,2.0,1.0,3.0,3.0,430.0117369998588,2.0,1.0,phase_1,,,,,,,,,,,,,white,I
217.0,7.0,3.0,1.0,3.0,3.0,367.1219069999551,2.0,1.0,phase_1,,,,,,,,,,,,,cyan,square
417.0,4.0,4.0,0.0,1.0,1.0,360.8722500000567,2.0,1.0,phase_1,,,,,,,,,,,,,green,flipped triangle
70.0,5.0,1.0,1.0,2.0,2.0,359.225594999998,2.0,1.0,phase_1,,,,,,,,,,,,,gray,circle
223.0,7.0,3.0,1.0,3.0,3.0,372.5411739999344,2.0,1.0,phase_1,,,,,,,,,,,,,cyan,square
44.0,1.0,1.0,0.0,2.0,2.0,506.174011999974,2.0,1.0,phase_1,,,,,,,,,,,,,yellow,triangle
193.0,7.0,3.0,1.0,3.0,3.0,367.9276070001833,2.0,1.0,phase_1,,,,,,,,,,,,,cyan,square
0.0,3.0,0.0,0.0,4.0,4.0,331.0200710000117,2.0,1.0,phase_1,,,,,,,,,,,,,orange,diamond
414.0,4.0,4.0,0.0,2.0,2.0,383.824875000073,2.0,1.0,phase_1,,,,,,,,,,,,,green,flipped triangle
88.0,2.0,2.0,0.0,2.0,2.0,319.1845370001829,2.0,1.0,phase_1,,,,,,,,,,,,,magenta,cross
185.0,3.0,3.0,0.0,1.0,1.0,307.7063210000688,2.0,1.0,phase_1,,,,,,,,,,,,,orange,diamond
31.0,5.0,1.0,1.0,3.0,3.0,378.2178520000343,2.0,1.0,phase_1,,,,,,,,,,,,,gray,circle
44.0,1.0,1.0,0.0,4.0,4.0,412.8343320001022,2.0,1.0,phase_1,,,,,,,,,,,,,yellow,triangle
28.0,5.0,1.0,1.0,1.0,1.0,337.49641899999,2.0,1.0,phase_1,,,,,,,,,,,,,gray,circle
0.0,3.0,0.0,0.0,1.0,1.0,318.005555000127,2.0,1.0,phase_1,,,,,,,,,,,,,orange,diamond
207.0,3.0,3.0,0.0,4.0,4.0,433.5901089998515,2.0,1.0,phase_1,,,,,,,,,,,,,orange,diamond
33.0,5.0,1.0,1.0,3.0,3.0,402.1418109998649,2.0,1.0,phase_1,,,,,,,,,,,,,gray,circle
0.0,7.0,0.0,1.0,2.0,2.0,395.1382390000617,2.0,1.0,phase_1,,,,,,,,,,,,,cyan,square
209.0,7.0,3.0,1.0,1.0,1.0,325.1409079998666,2.0,1.0,phase_1,,,,,,,,,,,,,cyan,square
186.0,7.0,3.0,1.0,3.0,3.0,355.280243000152,2.0,1.0,phase_1,,,,,,,,,,,,,cyan,square
216.0,3.0,3.0,0.0,1.0,1.0,364.8404699999901,2.0,1.0,phase_1,,,,,,,,,,,,,orange,diamond
421.0,4.0,4.0,0.0,4.0,4.0,356.4746259999083,2.0,1.0,phase_1,,,,,,,,,,,,,green,flipped triangle
37.0,1.0,1.0,0.0,2.0,2.0,321.8731139997999,2.0,1.0,phase_1,,,,,,,,,,,,,yellow,triangle
177.0,7.0,3.0,1.0,4.0,4.0,523.1246009998358,2.0,1.0,phase_1,,,,,,,,,,,,,cyan,square
37.0,5.0,1.0,1.0,4.0,4.0,406.1557229999835,2.0,1.0,phase_1,,,,,,,,,,,,,gray,circle
0.0,5.0,0.0,1.0,4.0,4.0,359.5738690000871,2.0,1.0,phase_1,,,,,,,,,,,,,gray,circle
87.0,2.0,2.0,0.0,1.0,1.0,357.9176840000855,2.0,1.0,phase_1,,,,,,,,,,,,,magenta,cross
61.0,1.0,1.0,0.0,1.0,1.0,298.0873209999117,2.0,1.0,phase_1,,,,,,,,,,,,,yellow,triangle
60.0,1.0,1.0,0.0,4.0,4.0,372.4849620000441,2.0,1.0,phase_1,,,,,,,,,,,,,yellow,triangle
405.0,4.0,4.0,0.0,1.0,1.0,324.7771460000876,2.0,1.0,phase_1,,,,,,,,,,,,,green,flipped triangle
87.0,6.0,2.0,1.0,4.0,4.0,354.0976030001275,2.0,1.0,phase_1,,,,,,,,,,,,,white,I
36.0,1.0,1.0,0.0,3.0,3.0,436.8345259999842,2.0,1.0,phase_1,,,,,,,,,,,,,yellow,triangle
120.0,6.0,2.0,1.0,4.0,4.0,363.3181689999674,2.0,1.0,phase_1,,,,,,,,,,,,,white,I
121.0,6.0,2.0,1.0,1.0,1.0,331.7830670000603,2.0,1.0,phase_1,,,,,,,,,,,,,white,I
0.0,2.0,0.0,0.0,4.0,4.0,316.2163300000884,2.0,1.0,phase_1,,,,,,,,,,,,,magenta,cross
403.0,8.0,4.0,1.0,4.0,4.0,351.1779319999277,2.0,1.0,phase_1,,,,,,,,,,,,,blue,hexagon
408.0,4.0,4.0,0.0,4.0,4.0,330.8357809999052,2.0,1.0,phase_1,,,,,,,,,,,,,green,flipped triangle
208.0,7.0,3.0,1.0,4.0,4.0,291.8076799999198,2.0,1.0,phase_1,,,,,,,,,,,,,cyan,square
0.0,4.0,0.0,0.0,3.0,3.0,347.9271009998683,2.0,1.0,phase_1,,,,,,,,,,,,,green,flipped triangle
116.0,6.0,2.0,1.0,1.0,1.0,311.2032190001628,2.0,1.0,phase_1,,,,,,,,,,,,,white,I
379.0,8.0,4.0,1.0,4.0,4.0,284.7981540001001,2.0,1.0,phase_1,,,,,,,,,,,,,blue,hexagon
60.0,5.0,1.0,1.0,4.0,4.0,509.90575700006957,2.0,1.0,phase_1,,,,,,,,,,,,,gray,circle
385.0,4.0,4.0,0.0,2.0,2.0,388.9412019998417,2.0,1.0,phase_1,,,,,,,,,,,,,green,flipped triangle
414.0,8.0,4.0,1.0,3.0,3.0,529.3162340001345,2.0,1.0,phase_1,,,,,,,,,,,,,blue,hexagon
0.0,5.0,0.0,1.0,4.0,4.0,332.9344470000706,2.0,1.0,phase_1,,,,,,,,,,,,,gray,circle
0.0,4.0,0.0,0.0,1.0,1.0,275.2352840000185,2.0,1.0,phase_1,,,,,,,,,,,,,green,flipped triangle
380.0,8.0,4.0,1.0,2.0,2.0,320.8130170000913,2.0,1.0,phase_1,,,,,,,,,,,,,blue,hexagon
80.0,6.0,2.0,1.0,3.0,3.0,343.231693000007,2.0,1.0,phase_1,,,,,,,,,,,,,white,I
217.0,3.0,3.0,0.0,2.0,2.0,304.6844880000208,2.0,1.0,phase_1,,,,,,,,,,,,,orange,diamond
103.0,2.0,2.0,0.0,1.0,1.0,270.0493770000776,2.0,1.0,phase_1,,,,,,,,,,,,,magenta,cross
414.0,4.0,4.0,0.0,4.0,4.0,329.9292359999981,2.0,1.0,phase_1,,,,,,,,,,,,,green,flipped triangle
113.0,2.0,2.0,0.0,2.0,2.0,306.429203999869,2.0,1.0,phase_1,,,,,,,,,,,,,magenta,cross
194.0,3.0,3.0,0.0,1.0,1.0,375.7601880001857,2.0,1.0,phase_1,,,,,,,,,,,,,orange,diamond
83.0,6.0,2.0,1.0,2.0,2.0,369.498066999995,2.0,1.0,phase_1,,,,,,,,,,,,,white,I
54.0,1.0,1.0,0.0,4.0,4.0,419.3546610001704,2.0,1.0,phase_1,,,,,,,,,,,,,yellow,triangle
0.0,3.0,0.0,0.0,4.0,4.0,345.5891710000287,2.0,1.0,phase_1,,,,,,,,,,,,,orange,diamond
110.0,6.0,2.0,1.0,3.0,3.0,411.5650150001784,2.0,1.0,phase_1,,,,,,,,,,,,,white,I
175.0,7.0,3.0,1.0,1.0,1.0,355.7496789999277,2.0,1.0,phase_1,,,,,,,,,,,,,cyan,square
46.0,5.0,1.0,1.0,2.0,2.0,349.4038179999279,2.0,1.0,phase_1,,,,,,,,,,,,,gray,circle
55.0,1.0,1.0,0.0,2.0,2.0,405.8222400001341,2.0,1.0,phase_1,,,,,,,,,,,,,yellow,triangle
54.0,1.0,1.0,0.0,3.0,3.0,490.3463110001667,2.0,1.0,phase_1,,,,,,,,,,,,,yellow,triangle
67.0,5.0,1.0,1.0,3.0,3.0,405.4157860000487,2.0,1.0,phase_1,,,,,,,,,,,,,gray,circle
383.0,4.0,4.0,0.0,4.0,4.0,488.8639360001434,2.0,1.0,phase_1,,,,,,,,,,,,,green,flipped triangle
85.0,2.0,2.0,0.0,3.0,3.0,362.0328380000046,2.0,1.0,phase_1,,,,,,,,,,,,,magenta,cross
87.0,6.0,2.0,1.0,4.0,4.0,295.460716999969,2.0,1.0,phase_1,,,,,,,,,,,,,white,I
93.0,6.0,2.0,1.0,2.0,2.0,353.1633130000955,2.0,1.0,phase_1,,,,,,,,,,,,,white,I
0.0,8.0,0.0,1.0,2.0,2.0,374.6436549999998,2.0,1.0,phase_1,,,,,,,,,,,,,blue,hexagon
60.0,5.0,1.0,1.0,1.0,1.0,324.5711340000525,2.0,1.0,phase_1,,,,,,,,,,,,,gray,circle
221.0,3.0,3.0,0.0,2.0,2.0,282.7425300001778,2.0,1.0,phase_1,,,,,,,,,,,,,orange,diamond
0.0,5.0,0.0,1.0,1.0,1.0,375.8855690000473,2.0,1.0,phase_1,,,,,,,,,,,,,gray,circle
0.0,6.0,0.0,1.0,2.0,2.0,298.7921970000116,2.0,1.0,phase_1,,,,,,,,,,,,,white,I
0.0,1.0,0.0,0.0,2.0,2.0,260.8472940000865,3.0,1.0,phase_1,,,,,,,,,,,,,yellow,triangle
0.0,6.0,0.0,1.0,4.0,4.0,287.9936799999996,3.0,1.0,phase_1,,,,,,,,,,,,,white,I
183.0,7.0,3.0,1.0,4.0,4.0,328.7917509999261,3.0,1.0,phase_1,,,,,,,,,,,,,cyan,square
403.0,4.0,4.0,0.0,3.0,3.0,369.4763749999765,3.0,1.0,phase_1,,,,,,,,,,,,,green,flipped triangle
123.0,6.0,2.0,1.0,4.0,4.0,306.0985669999354,3.0,1.0,phase_1,,,,,,,,,,,,,white,I
199.0,7.0,3.0,1.0,1.0,1.0,231.505621999986,3.0,1.0,phase_1,,,,,,,,,,,,,cyan,square
46.0,1.0,1.0,0.0,3.0,3.0,268.8779769998746,3.0,1.0,phase_1,,,,,,,,,,,,,yellow,triangle
60.0,1.0,1.0,0.0,4.0,4.0,265.2556329999243,3.0,1.0,phase_1,,,,,,,,,,,,,yellow,triangle
0.0,5.0,0.0,1.0,2.0,2.0,290.1897399999598,3.0,1.0,phase_1,,,,,,,,,,,,,gray,circle
0.0,8.0,0.0,1.0,1.0,1.0,374.3975630000022,3.0,1.0,phase_1,,,,,,,,,,,,,blue,hexagon
40.0,1.0,1.0,0.0,4.0,4.0,351.5498520000619,3.0,1.0,phase_1,,,,,,,,,,,,,yellow,triangle
204.0,7.0,3.0,1.0,4.0,4.0,288.9034529998753,3.0,1.0,phase_1,,,,,,,,,,,,,cyan,square
0.0,8.0,0.0,1.0,2.0,2.0,261.9848970000475,3.0,1.0,phase_1,,,,,,,,,,,,,blue,hexagon
0.0,2.0,0.0,0.0,1.0,1.0,364.8681879999458,3.0,2.0,phase_1,,,,,,,,,,,,,magenta,cross
0.0,6.0,0.0,1.0,2.0,2.0,351.9171049999841,3.0,1.0,phase_1,,,,,,,,,,,,,white,I
184.0,7.0,3.0,1.0,2.0,2.0,305.5402049999429,3.0,1.0,phase_1,,,,,,,,,,,,,cyan,square
376.0,4.0,4.0,0.0,4.0,4.0,357.403394999892,3.0,1.0,phase_1,,,,,,,,,,,,,green,flipped triangle
0.0,2.0,0.0,0.0,2.0,2.0,297.6090170000134,3.0,1.0,phase_1,,,,,,,,,,,,,magenta,cross
79.0,6.0,2.0,1.0,3.0,3.0,404.9330730001657,3.0,1.0,phase_1,,,,,,,,,,,,,white,I
106.0,6.0,2.0,1.0,3.0,3.0,387.3810899999625,3.0,1.0,phase_1,,,,,,,,,,,,,white,I
70.0,1.0,1.0,0.0,2.0,2.0,334.6003699998618,3.0,1.0,phase_1,,,,,,,,,,,,,yellow,triangle
214.0,7.0,3.0,1.0,4.0,4.0,400.4527530000814,3.0,1.0,phase_1,,,,,,,,,,,,,cyan,square
201.0,3.0,3.0,0.0,2.0,2.0,569.7475760000543,3.0,1.0,phase_1,,,,,,,,,,,,,orange,diamond
182.0,7.0,3.0,1.0,2.0,2.0,321.8812380000599,3.0,1.0,phase_1,,,,,,,,,,,,,cyan,square
0.0,2.0,0.0,0.0,4.0,4.0,348.700676000135,3.0,1.0,phase_1,,,,,,,,,,,,,magenta,cross
102.0,2.0,2.0,0.0,2.0,2.0,248.3301959998698,3.0,1.0,phase_1,,,,,,,,,,,,,magenta,cross
185.0,3.0,3.0,0.0,4.0,4.0,390.6414780001341,3.0,2.0,phase_1,,,,,,,,,,,,,orange,diamond
58.0,1.0,1.0,0.0,3.0,3.0,339.0214129999549,3.0,1.0,phase_1,,,,,,,,,,,,,yellow,triangle
119.0,6.0,2.0,1.0,4.0,4.0,315.2431729999989,3.0,1.0,phase_1,,,,,,,,,,,,,white,I
26.0,1.0,1.0,0.0,2.0,2.0,355.9663770001862,3.0,1.0,phase_1,,,,,,,,,,,,,yellow,triangle
43.0,1.0,1.0,0.0,3.0,3.0,437.3891970001295,3.0,1.0,phase_1,,,,,,,,,,,,,yellow,triangle
109.0,6.0,2.0,1.0,3.0,3.0,447.322677999864,3.0,1.0,phase_1,,,,,,,,,,,,,white,I
406.0,4.0,4.0,0.0,2.0,2.0,348.3578979999038,3.0,1.0,phase_1,,,,,,,,,,,,,green,flipped triangle
390.0,8.0,4.0,1.0,3.0,3.0,452.6631769999767,3.0,1.0,phase_1,,,,,,,,,,,,,blue,hexagon
0.0,5.0,0.0,1.0,2.0,2.0,403.3149390002108,3.0,1.0,phase_1,,,,,,,,,,,,,gray,circle
0.0,8.0,0.0,1.0,3.0,3.0,300.3336490000947,3.0,1.0,phase_1,,,,,,,,,,,,,blue,hexagon
0.0,8.0,0.0,1.0,1.0,1.0,295.4665719998957,3.0,1.0,phase_1,,,,,,,,,,,,,blue,hexagon
213.0,3.0,3.0,0.0,2.0,2.0,317.5909190003949,3.0,1.0,phase_1,,,,,,,,,,,,,orange,diamond
45.0,5.0,1.0,1.0,3.0,3.0,376.7134119998445,3.0,1.0,phase_1,,,,,,,,,,,,,gray,circle
398.0,8.0,4.0,1.0,3.0,3.0,665.592985999865,3.0,1.0,phase_1,,,,,,,,,,,,,blue,hexagon
76.0,2.0,2.0,0.0,1.0,1.0,497.9144909998467,3.0,1.0,phase_1,,,,,,,,,,,,,magenta,cross
56.0,1.0,1.0,0.0,4.0,4.0,343.5286789999736,3.0,1.0,phase_1,,,,,,,,,,,,,yellow,triangle
93.0,2.0,2.0,0.0,2.0,2.0,316.4567069998156,3.0,1.0,phase_1,,,,,,,,,,,,,magenta,cross
403.0,4.0,4.0,0.0,1.0,1.0,424.8525940001855,3.0,1.0,phase_1,,,,,,,,,,,,,green,flipped triangle
82.0,6.0,2.0,1.0,4.0,4.0,296.0801700000957,3.0,1.0,phase_1,,,,,,,,,,,,,white,I
200.0,3.0,3.0,0.0,1.0,1.0,265.7425009997496,3.0,1.0,phase_1,,,,,,,,,,,,,orange,diamond
393.0,4.0,4.0,0.0,2.0,2.0,300.1919239995914,3.0,1.0,phase_1,,,,,,,,,,,,,green,flipped triangle
61.0,5.0,1.0,1.0,4.0,4.0,315.5384080000658,3.0,1.0,phase_1,,,,,,,,,,,,,gray,circle
197.0,7.0,3.0,1.0,4.0,4.0,482.3565750002672,3.0,1.0,phase_1,,,,,,,,,,,,,cyan,square
417.0,4.0,4.0,0.0,1.0,1.0,293.1961209997098,3.0,1.0,phase_1,,,,,,,,,,,,,green,flipped triangle
0.0,2.0,0.0,0.0,2.0,2.0,380.3921180001453,3.0,1.0,phase_1,,,,,,,,,,,,,magenta,cross
0.0,8.0,0.0,1.0,3.0,3.0,365.9497799999371,3.0,1.0,phase_1,,,,,,,,,,,,,blue,hexagon
120.0,2.0,2.0,0.0,4.0,4.0,391.99664399984607,3.0,1.0,phase_1,,,,,,,,,,,,,magenta,cross
63.0,1.0,1.0,0.0,3.0,3.0,430.6271000000379,3.0,1.0,phase_1,,,,,,,,,,,,,yellow,triangle
82.0,6.0,2.0,1.0,2.0,2.0,388.5065360000226,3.0,1.0,phase_1,,,,,,,,,,,,,white,I
0.0,1.0,0.0,0.0,1.0,1.0,451.1118720001832,3.0,1.0,phase_1,,,,,,,,,,,,,yellow,triangle
125.0,6.0,2.0,1.0,1.0,1.0,401.6092419997221,3.0,1.0,phase_1,,,,,,,,,,,,,white,I
0.0,5.0,0.0,1.0,1.0,1.0,316.2976260000505,3.0,1.0,phase_1,,,,,,,,,,,,,gray,circle
53.0,5.0,1.0,1.0,3.0,3.0,394.4225179998284,3.0,1.0,phase_1,,,,,,,,,,,,,gray,circle
182.0,3.0,3.0,0.0,3.0,3.0,414.4938520003052,3.0,1.0,phase_1,,,,,,,,,,,,,orange,diamond
0.0,8.0,0.0,1.0,4.0,4.0,558.1340389999241,3.0,1.0,phase_1,,,,,,,,,,,,,blue,hexagon
392.0,4.0,4.0,0.0,3.0,3.0,382.1623960002398,3.0,1.0,phase_1,,,,,,,,,,,,,green,flipped triangle
0.0,6.0,0.0,1.0,4.0,4.0,394.7367069999927,3.0,1.0,phase_1,,,,,,,,,,,,,white,I
54.0,5.0,1.0,1.0,1.0,1.0,434.035797999968,3.0,1.0,phase_1,,,,,,,,,,,,,gray,circle
0.0,1.0,0.0,0.0,4.0,4.0,367.2512039997855,3.0,1.0,phase_1,,,,,,,,,,,,,yellow,triangle
76.0,6.0,2.0,1.0,4.0,4.0,396.76368299979,3.0,1.0,phase_1,,,,,,,,,,,,,white,I
110.0,2.0,2.0,0.0,4.0,4.0,363.8448360002257,3.0,1.0,phase_1,,,,,,,,,,,,,magenta,cross
209.0,3.0,3.0,0.0,3.0,3.0,458.9106260000335,3.0,1.0,phase_1,,,,,,,,,,,,,orange,diamond
87.0,2.0,2.0,0.0,4.0,4.0,344.9200109998855,3.0,1.0,phase_1,,,,,,,,,,,,,magenta,cross
395.0,8.0,4.0,1.0,1.0,1.0,341.7000800000096,3.0,1.0,phase_1,,,,,,,,,,,,,blue,hexagon
394.0,8.0,4.0,1.0,1.0,1.0,407.797624000068,3.0,1.0,phase_1,,,,,,,,,,,,,blue,hexagon
0.0,7.0,0.0,1.0,2.0,2.0,384.2606260000138,3.0,1.0,phase_1,,,,,,,,,,,,,cyan,square
422.0,4.0,4.0,0.0,4.0,4.0,441.5152219999072,3.0,1.0,phase_1,,,,,,,,,,,,,green,flipped triangle
379.0,8.0,4.0,1.0,2.0,2.0,341.3835410001411,3.0,1.0,phase_1,,,,,,,,,,,,,blue,hexagon
423.0,8.0,4.0,1.0,4.0,4.0,311.3579790001495,3.0,1.0,phase_1,,,,,,,,,,,,,blue,hexagon
390.0,4.0,4.0,0.0,1.0,1.0,348.5169959999439,3.0,1.0,phase_1,,,,,,,,,,,,,green,flipped triangle
181.0,7.0,3.0,1.0,3.0,3.0,353.3000759998685,3.0,1.0,phase_1,,,,,,,,,,,,,cyan,square
43.0,5.0,1.0,1.0,1.0,1.0,489.9892120001823,3.0,1.0,phase_1,,,,,,,,,,,,,gray,circle
220.0,3.0,3.0,0.0,1.0,1.0,368.3614430001398,3.0,1.0,phase_1,,,,,,,,,,,,,orange,diamond
121.0,2.0,2.0,0.0,3.0,3.0,413.2563850002952,3.0,1.0,phase_1,,,,,,,,,,,,,magenta,cross
60.0,1.0,1.0,0.0,3.0,3.0,398.905661000299,3.0,1.0,phase_1,,,,,,,,,,,,,yellow,triangle
25.0,5.0,1.0,1.0,3.0,3.0,358.3618459997524,3.0,1.0,phase_1,,,,,,,,,,,,,gray,circle
68.0,5.0,1.0,1.0,2.0,2.0,344.7616570001628,3.0,1.0,phase_1,,,,,,,,,,,,,gray,circle
117.0,2.0,2.0,0.0,1.0,1.0,310.700388999976,3.0,1.0,phase_1,,,,,,,,,,,,,magenta,cross
0.0,1.0,0.0,0.0,1.0,1.0,324.505790999865,3.0,1.0,phase_1,,,,,,,,,,,,,yellow,triangle
182.0,3.0,3.0,0.0,2.0,2.0,300.8490910001455,3.0,1.0,phase_1,,,,,,,,,,,,,orange,diamond
0.0,6.0,0.0,1.0,2.0,2.0,305.8204730000398,3.0,1.0,phase_1,,,,,,,,,,,,,white,I
123.0,2.0,2.0,0.0,1.0,1.0,308.4924019999562,3.0,1.0,phase_1,,,,,,,,,,,,,magenta,cross
175.0,3.0,3.0,0.0,4.0,4.0,297.9667620002146,3.0,1.0,phase_1,,,,,,,,,,,,,orange,diamond
0.0,2.0,0.0,0.0,2.0,2.0,286.0090579997631,3.0,1.0,phase_1,,,,,,,,,,,,,magenta,cross
404.0,8.0,4.0,1.0,4.0,4.0,319.4151769998825,3.0,1.0,phase_1,,,,,,,,,,,,,blue,hexagon
122.0,6.0,2.0,1.0,3.0,3.0,378.6335490003694,3.0,1.0,phase_1,,,,,,,,,,,,,white,I
386.0,4.0,4.0,0.0,4.0,4.0,362.0525319997796,3.0,1.0,phase_1,,,,,,,,,,,,,green,flipped triangle
0.0,3.0,0.0,0.0,3.0,3.0,357.8348910000386,3.0,1.0,phase_1,,,,,,,,,,,,,orange,diamond
0.0,8.0,0.0,1.0,3.0,3.0,390.6311870000536,3.0,1.0,phase_1,,,,,,,,,,,,,blue,hexagon
72.0,5.0,1.0,1.0,4.0,4.0,327.1946879999632,3.0,1.0,phase_1,,,,,,,,,,,,,gray,circle
83.0,2.0,2.0,0.0,2.0,2.0,516.7128050002248,3.0,1.0,phase_1,,,,,,,,,,,,,magenta,cross
191.0,7.0,3.0,1.0,2.0,2.0,329.7237760002645,3.0,1.0,phase_1,,,,,,,,,,,,,cyan,square
110.0,2.0,2.0,0.0,4.0,4.0,325.1670300001024,3.0,1.0,phase_1,,,,,,,,,,,,,magenta,cross
222.0,3.0,3.0,0.0,2.0,2.0,320.0032030003967,3.0,1.0,phase_1,,,,,,,,,,,,,orange,diamond
0.0,3.0,0.0,0.0,4.0,4.0,382.3418229999333,4.0,1.0,phase_1,,,,,,,,,,,,,orange,diamond
0.0,4.0,0.0,0.0,1.0,1.0,355.398101999981,4.0,1.0,phase_1,,,,,,,,,,,,,green,flipped triangle
82.0,2.0,2.0,0.0,1.0,1.0,298.159403000227,4.0,1.0,phase_1,,,,,,,,,,,,,magenta,cross
0.0,3.0,0.0,0.0,1.0,1.0,307.1525980003571,4.0,1.0,phase_1,,,,,,,,,,,,,orange,diamond
109.0,2.0,2.0,0.0,3.0,3.0,320.1091430000815,4.0,1.0,phase_1,,,,,,,,,,,,,magenta,cross
28.0,1.0,1.0,0.0,3.0,3.0,311.8696550000095,4.0,1.0,phase_1,,,,,,,,,,,,,yellow,triangle
0.0,8.0,0.0,1.0,4.0,4.0,327.1883620000153,4.0,1.0,phase_1,,,,,,,,,,,,,blue,hexagon
225.0,7.0,3.0,1.0,3.0,3.0,323.9119220002067,4.0,1.0,phase_1,,,,,,,,,,,,,cyan,square
404.0,4.0,4.0,0.0,2.0,2.0,331.6244319998986,4.0,1.0,phase_1,,,,,,,,,,,,,green,flipped triangle
0.0,5.0,0.0,1.0,1.0,1.0,333.155450999584,4.0,1.0,phase_1,,,,,,,,,,,,,gray,circle
221.0,3.0,3.0,0.0,1.0,1.0,356.1701270000412,4.0,1.0,phase_1,,,,,,,,,,,,,orange,diamond
209.0,7.0,3.0,1.0,1.0,1.0,361.3768390000587,4.0,1.0,phase_1,,,,,,,,,,,,,cyan,square
379.0,4.0,4.0,0.0,3.0,3.0,320.998285999849,4.0,1.0,phase_1,,,,,,,,,,,,,green,flipped triangle
188.0,3.0,3.0,0.0,1.0,1.0,365.7354140000279,4.0,1.0,phase_1,,,,,,,,,,,,,orange,diamond
0.0,7.0,0.0,1.0,4.0,4.0,330.0268500001948,4.0,1.0,phase_1,,,,,,,,,,,,,cyan,square
0.0,3.0,0.0,0.0,3.0,3.0,457.4691780003377,4.0,1.0,phase_1,,,,,,,,,,,,,orange,diamond
35.0,5.0,1.0,1.0,2.0,2.0,356.4262579998285,4.0,1.0,phase_1,,,,,,,,,,,,,gray,circle
394.0,4.0,4.0,0.0,4.0,4.0,287.5477140000839,4.0,1.0,phase_1,,,,,,,,,,,,,green,flipped triangle
109.0,2.0,2.0,0.0,3.0,3.0,301.9744190000892,4.0,1.0,phase_1,,,,,,,,,,,,,magenta,cross
102.0,6.0,2.0,1.0,2.0,2.0,328.8801869998679,4.0,1.0,phase_1,,,,,,,,,,,,,white,I
125.0,2.0,2.0,0.0,4.0,4.0,289.0105719998246,4.0,1.0,phase_1,,,,,,,,,,,,,magenta,cross
59.0,1.0,1.0,0.0,1.0,1.0,339.4754609998927,4.0,1.0,phase_1,,,,,,,,,,,,,yellow,triangle
109.0,2.0,2.0,0.0,4.0,4.0,361.2811490002059,4.0,1.0,phase_1,,,,,,,,,,,,,magenta,cross
0.0,6.0,0.0,1.0,1.0,1.0,354.6929609997278,4.0,1.0,phase_1,,,,,,,,,,,,,white,I
0.0,4.0,0.0,0.0,1.0,1.0,409.4695110002249,4.0,1.0,phase_1,,,,,,,,,,,,,green,flipped triangle
417.0,8.0,4.0,1.0,2.0,2.0,385.1757729999008,4.0,1.0,phase_1,,,,,,,,,,,,,blue,hexagon
225.0,3.0,3.0,0.0,2.0,2.0,329.1815289999249,4.0,1.0,phase_1,,,,,,,,,,,,,orange,diamond
194.0,7.0,3.0,1.0,2.0,2.0,259.8016659999302,4.0,1.0,phase_1,,,,,,,,,,,,,cyan,square
67.0,1.0,1.0,0.0,4.0,4.0,332.6617929997155,4.0,1.0,phase_1,,,,,,,,,,,,,yellow,triangle
93.0,2.0,2.0,0.0,3.0,3.0,382.4083200001951,4.0,1.0,phase_1,,,,,,,,,,,,,magenta,cross
221.0,7.0,3.0,1.0,1.0,1.0,336.7606169999817,4.0,1.0,phase_1,,,,,,,,,,,,,cyan,square
0.0,3.0,0.0,0.0,1.0,1.0,357.3051140001553,4.0,1.0,phase_1,,,,,,,,,,,,,orange,diamond
55.0,5.0,1.0,1.0,1.0,1.0,281.3460810002652,4.0,1.0,phase_1,,,,,,,,,,,,,gray,circle
194.0,3.0,3.0,0.0,3.0,3.0,384.0956809999625,4.0,1.0,phase_1,,,,,,,,,,,,,orange,diamond
83.0,2.0,2.0,0.0,4.0,4.0,335.8539040000323,4.0,1.0,phase_1,,,,,,,,,,,,,magenta,cross
106.0,2.0,2.0,0.0,4.0,4.0,378.5130850001224,4.0,1.0,phase_1,,,,,,,,,,,,,magenta,cross
403.0,8.0,4.0,1.0,2.0,2.0,321.3360640002065,4.0,1.0,phase_1,,,,,,,,,,,,,blue,hexagon
82.0,2.0,2.0,0.0,2.0,2.0,324.1661839997505,4.0,1.0,phase_1,,,,,,,,,,,,,magenta,cross
378.0,8.0,4.0,1.0,4.0,4.0,303.3673929999168,4.0,1.0,phase_1,,,,,,,,,,,,,blue,hexagon
69.0,1.0,1.0,0.0,4.0,4.0,371.373290000065,4.0,1.0,phase_1,,,,,,,,,,,,,yellow,triangle
0.0,2.0,0.0,0.0,2.0,2.0,363.8365750002776,4.0,1.0,phase_1,,,,,,,,,,,,,magenta,cross
202.0,3.0,3.0,0.0,3.0,3.0,319.7327190000578,4.0,1.0,phase_1,,,,,,,,,,,,,orange,diamond
115.0,2.0,2.0,0.0,4.0,4.0,330.8411200000591,4.0,1.0,phase_1,,,,,,,,,,,,,magenta,cross
181.0,7.0,3.0,1.0,2.0,2.0,261.6436219996103,4.0,1.0,phase_1,,,,,,,,,,,,,cyan,square
194.0,7.0,3.0,1.0,1.0,1.0,358.5884809999697,4.0,1.0,phase_1,,,,,,,,,,,,,cyan,square
415.0,4.0,4.0,0.0,3.0,3.0,263.1032389999745,4.0,1.0,phase_1,,,,,,,,,,,,,green,flipped triangle
378.0,8.0,4.0,1.0,1.0,1.0,399.7804639998321,4.0,1.0,phase_1,,,,,,,,,,,,,blue,hexagon
111.0,2.0,2.0,0.0,1.0,1.0,423.3195360002355,4.0,1.0,phase_1,,,,,,,,,,,,,magenta,cross
182.0,7.0,3.0,1.0,1.0,1.0,289.2531539996525,4.0,1.0,phase_1,,,,,,,,,,,,,cyan,square
177.0,3.0,3.0,0.0,3.0,3.0,306.9498219997513,4.0,1.0,phase_1,,,,,,,,,,,,,orange,diamond
221.0,7.0,3.0,1.0,4.0,4.0,309.3138959998214,4.0,1.0,phase_1,,,,,,,,,,,,,cyan,square
45.0,1.0,1.0,0.0,2.0,2.0,262.8315649999422,4.0,1.0,phase_1,,,,,,,,,,,,,yellow,triangle
35.0,1.0,1.0,0.0,1.0,1.0,339.6159119997719,4.0,1.0,phase_1,,,,,,,,,,,,,yellow,triangle
0.0,4.0,0.0,0.0,3.0,3.0,320.7643110004028,4.0,1.0,phase_1,,,,,,,,,,,,,green,flipped triangle
119.0,2.0,2.0,0.0,2.0,2.0,245.0807830000485,4.0,1.0,phase_1,,,,,,,,,,,,,magenta,cross
206.0,7.0,3.0,1.0,3.0,3.0,370.279537999977,4.0,1.0,phase_1,,,,,,,,,,,,,cyan,square
80.0,2.0,2.0,0.0,4.0,4.0,329.8992649997672,4.0,1.0,phase_1,,,,,,,,,,,,,magenta,cross
32.0,1.0,1.0,0.0,1.0,1.0,329.3985350001094,4.0,1.0,phase_1,,,,,,,,,,,,,yellow,triangle
0.0,2.0,0.0,0.0,1.0,1.0,336.0237219999362,4.0,1.0,phase_1,,,,,,,,,,,,,magenta,cross
26.0,5.0,1.0,1.0,3.0,3.0,371.2754970001697,4.0,1.0,phase_1,,,,,,,,,,,,,gray,circle
181.0,3.0,3.0,0.0,3.0,3.0,363.5671669999283,4.0,1.0,phase_1,,,,,,,,,,,,,orange,diamond
420.0,8.0,4.0,1.0,3.0,3.0,318.7549760000365,4.0,1.0,phase_1,,,,,,,,,,,,,blue,hexagon
83.0,2.0,2.0,0.0,1.0,1.0,462.4336700003368,4.0,1.0,phase_1,,,,,,,,,,,,,magenta,cross
0.0,4.0,0.0,0.0,3.0,3.0,327.800661999845,4.0,1.0,phase_1,,,,,,,,,,,,,green,flipped triangle
218.0,7.0,3.0,1.0,2.0,2.0,338.2614319998538,4.0,1.0,phase_1,,,,,,,,,,,,,cyan,square
202.0,7.0,3.0,1.0,3.0,3.0,334.3902999999955,4.0,1.0,phase_1,,,,,,,,,,,,,cyan,square
414.0,8.0,4.0,1.0,4.0,4.0,370.8779020003021,4.0,1.0,phase_1,,,,,,,,,,,,,blue,hexagon
404.0,4.0,4.0,0.0,3.0,3.0,344.0047640001467,4.0,1.0,phase_1,,,,,,,,,,,,,green,flipped triangle
0.0,4.0,0.0,0.0,3.0,3.0,335.8279320000292,4.0,1.0,phase_1,,,,,,,,,,,,,green,flipped triangle
0.0,1.0,0.0,0.0,4.0,4.0,337.2869209997589,4.0,1.0,phase_1,,,,,,,,,,,,,yellow,triangle
422.0,8.0,4.0,1.0,2.0,2.0,355.4633939997984,4.0,1.0,phase_1,,,,,,,,,,,,,blue,hexagon
93.0,6.0,2.0,1.0,2.0,2.0,443.3929140000145,4.0,1.0,phase_1,,,,,,,,,,,,,white,I
80.0,6.0,2.0,1.0,4.0,4.0,337.409215000207,4.0,1.0,phase_1,,,,,,,,,,,,,white,I
0.0,2.0,0.0,0.0,4.0,4.0,344.4573709998622,4.0,1.0,phase_1,,,,,,,,,,,,,magenta,cross
222.0,7.0,3.0,1.0,2.0,2.0,297.7903319997494,4.0,1.0,phase_1,,,,,,,,,,,,,cyan,square
220.0,7.0,3.0,1.0,4.0,4.0,328.6424110001462,4.0,1.0,phase_1,,,,,,,,,,,,,cyan,square
406.0,8.0,4.0,1.0,3.0,3.0,452.6845249997677,4.0,1.0,phase_1,,,,,,,,,,,,,blue,hexagon
0.0,1.0,0.0,0.0,3.0,3.0,339.1492619998644,4.0,1.0,phase_1,,,,,,,,,,,,,yellow,triangle
122.0,2.0,2.0,0.0,3.0,3.0,327.492527999766,4.0,1.0,phase_1,,,,,,,,,,,,,magenta,cross
376.0,8.0,4.0,1.0,1.0,1.0,316.2044840000817,4.0,1.0,phase_1,,,,,,,,,,,,,blue,hexagon
119.0,2.0,2.0,0.0,2.0,2.0,303.5564929996326,4.0,1.0,phase_1,,,,,,,,,,,,,magenta,cross
406.0,8.0,4.0,1.0,1.0,1.0,409.6211579999362,4.0,1.0,phase_1,,,,,,,,,,,,,blue,hexagon
0.0,7.0,0.0,1.0,3.0,3.0,403.6049480000656,4.0,1.0,phase_1,,,,,,,,,,,,,cyan,square
109.0,6.0,2.0,1.0,2.0,2.0,382.5639000001501,4.0,1.0,phase_1,,,,,,,,,,,,,white,I
69.0,5.0,1.0,1.0,4.0,4.0,553.8693110001986,4.0,1.0,phase_1,,,,,,,,,,,,,gray,circle
380.0,4.0,4.0,0.0,3.0,3.0,360.5855040000278,4.0,1.0,phase_1,,,,,,,,,,,,,green,flipped triangle
201.0,7.0,3.0,1.0,2.0,2.0,328.5229719999734,4.0,1.0,phase_1,,,,,,,,,,,,,cyan,square
109.0,6.0,2.0,1.0,4.0,4.0,376.0830159999386,4.0,1.0,phase_1,,,,,,,,,,,,,white,I
386.0,8.0,4.0,1.0,4.0,4.0,372.5100689998726,4.0,1.0,phase_1,,,,,,,,,,,,,blue,hexagon
73.0,1.0,1.0,0.0,2.0,2.0,351.0742119997303,4.0,1.0,phase_1,,,,,,,,,,,,,yellow,triangle
393.0,8.0,4.0,1.0,3.0,3.0,328.6152059999949,4.0,1.0,phase_1,,,,,,,,,,,,,blue,hexagon
390.0,8.0,4.0,1.0,3.0,3.0,354.2423479998433,4.0,1.0,phase_1,,,,,,,,,,,,,blue,hexagon
197.0,3.0,3.0,0.0,4.0,4.0,311.4860900000167,4.0,1.0,phase_1,,,,,,,,,,,,,orange,diamond
0.0,3.0,0.0,0.0,2.0,2.0,319.0223779997723,4.0,1.0,phase_1,,,,,,,,,,,,,orange,diamond
101.0,2.0,2.0,0.0,1.0,1.0,344.8342659999071,4.0,1.0,phase_1,,,,,,,,,,,,,magenta,cross
0.0,7.0,0.0,1.0,2.0,2.0,390.1772189997246,4.0,1.0,phase_1,,,,,,,,,,,,,cyan,square
381.0,4.0,4.0,0.0,2.0,2.0,374.4287190002069,4.0,1.0,phase_1,,,,,,,,,,,,,green,flipped triangle
72.0,1.0,1.0,0.0,1.0,1.0,507.34274199976426,4.0,1.0,phase_1,,,,,,,,,,,,,yellow,triangle
0.0,6.0,0.0,1.0,3.0,3.0,345.8755619999465,4.0,1.0,phase_1,,,,,,,,,,,,,white,I
395.0,4.0,4.0,0.0,1.0,1.0,396.2947240001995,4.0,1.0,phase_1,,,,,,,,,,,,,green,flipped triangle
0.0,3.0,3.0,0.0,6.0,6.0,444.9421210001674,1.0,1.0,phase_2,go,250.0,250.0,1.0,,,,,,,,,orange,diamond
0.0,3.0,3.0,0.0,5.0,5.0,687.9917480000586,1.0,1.0,phase_2,go,250.0,250.0,1.0,,,,,,,,,orange,diamond
0.0,5.0,1.0,1.0,5.0,5.0,500.1011210001707,1.0,1.0,phase_2,stop,250.0,250.0,3.0,,,,,,,,,gray,circle
0.0,3.0,3.0,0.0,5.0,5.0,699.7482219999256,1.0,1.0,phase_2,go,200.0,250.0,1.0,,,,,,,,,orange,diamond
0.0,4.0,4.0,0.0,6.0,6.0,692.1353999996427,1.0,1.0,phase_2,go,200.0,250.0,1.0,,,,,,,,,green,flipped triangle
0.0,2.0,2.0,0.0,5.0,5.0,1015.0523540000904,1.0,1.0,phase_2,go,200.0,250.0,1.0,,,,,,,,,magenta,cross
0.0,5.0,1.0,1.0,5.0,5.0,995.146866000141,1.0,1.0,phase_2,go,200.0,250.0,1.0,,,,,,,,,gray,circle
0.0,7.0,3.0,1.0,6.0,0.0,0.0,1.0,1.0,phase_2,stop,200.0,250.0,4.0,,,,,,,,,cyan,square
0.0,7.0,3.0,1.0,5.0,0.0,0.0,1.0,1.0,phase_2,stop,200.0,300.0,4.0,,,,,,,,,cyan,square
0.0,3.0,3.0,0.0,5.0,5.0,857.5508180001634,1.0,1.0,phase_2,go,250.0,300.0,1.0,,,,,,,,,orange,diamond
0.0,4.0,4.0,0.0,6.0,6.0,722.1988969999984,1.0,1.0,phase_2,go,250.0,300.0,1.0,,,,,,,,,green,flipped triangle
0.0,8.0,4.0,1.0,6.0,0.0,0.0,1.0,1.0,phase_2,stop,250.0,300.0,4.0,,,,,,,,,blue,hexagon
0.0,8.0,4.0,1.0,5.0,0.0,0.0,1.0,1.0,phase_2,stop,250.0,350.0,4.0,,,,,,,,,blue,hexagon
0.0,2.0,2.0,0.0,5.0,5.0,1010.0400279998212,1.0,1.0,phase_2,go,300.0,350.0,1.0,,,,,,,,,magenta,cross
0.0,5.0,1.0,1.0,5.0,0.0,0.0,1.0,1.0,phase_2,stop,300.0,350.0,4.0,,,,,,,,,gray,circle
0.0,4.0,4.0,0.0,6.0,6.0,860.1218199996765,1.0,1.0,phase_2,go,350.0,350.0,1.0,,,,,,,,,green,flipped triangle
0.0,3.0,3.0,0.0,6.0,6.0,781.4709230001426,1.0,1.0,phase_2,go,350.0,350.0,1.0,,,,,,,,,orange,diamond
0.0,6.0,2.0,1.0,5.0,0.0,0.0,1.0,1.0,phase_2,stop,350.0,350.0,4.0,,,,,,,,,white,I
0.0,3.0,3.0,0.0,5.0,5.0,729.1771760001211,1.0,1.0,phase_2,go,400.0,350.0,1.0,,,,,,,,,orange,diamond
0.0,4.0,4.0,0.0,5.0,5.0,1096.929842999998,1.0,1.0,phase_2,go,400.0,350.0,1.0,,,,,,,,,green,flipped triangle
0.0,3.0,3.0,0.0,6.0,6.0,775.248613000258,1.0,1.0,phase_2,go,400.0,350.0,1.0,,,,,,,,,orange,diamond
0.0,7.0,3.0,1.0,6.0,0.0,0.0,1.0,1.0,phase_2,stop,400.0,350.0,4.0,,,,,,,,,cyan,square
0.0,1.0,1.0,0.0,5.0,5.0,704.7284539999055,1.0,1.0,phase_2,go,400.0,400.0,1.0,,,,,,,,,yellow,triangle
0.0,3.0,3.0,0.0,5.0,5.0,845.059726999807,1.0,1.0,phase_2,go,400.0,400.0,1.0,,,,,,,,,orange,diamond
0.0,7.0,3.0,1.0,5.0,0.0,0.0,1.0,1.0,phase_2,stop,400.0,400.0,4.0,,,,,,,,,cyan,square
0.0,3.0,3.0,0.0,6.0,6.0,319.8062650003521,1.0,1.0,phase_2,go,450.0,400.0,1.0,,,,,,,,,orange,diamond
0.0,1.0,1.0,0.0,6.0,6.0,812.6213149998875,1.0,1.0,phase_2,go,450.0,400.0,1.0,,,,,,,,,yellow,triangle
0.0,2.0,2.0,0.0,5.0,5.0,847.2096109999256,1.0,1.0,phase_2,go,450.0,400.0,1.0,,,,,,,,,magenta,cross
0.0,5.0,1.0,1.0,6.0,0.0,0.0,1.0,1.0,phase_2,stop,450.0,400.0,4.0,,,,,,,,,gray,circle
0.0,1.0,1.0,0.0,6.0,6.0,513.1889539998156,1.0,1.0,phase_2,go,450.0,450.0,1.0,,,,,,,,,yellow,triangle
0.0,1.0,1.0,0.0,5.0,5.0,791.4844629999607,1.0,1.0,phase_2,go,450.0,450.0,1.0,,,,,,,,,yellow,triangle
0.0,8.0,4.0,1.0,5.0,0.0,0.0,1.0,1.0,phase_2,stop,450.0,450.0,4.0,,,,,,,,,blue,hexagon
0.0,4.0,4.0,0.0,6.0,6.0,434.5835559997795,1.0,1.0,phase_2,go,500.0,450.0,1.0,,,,,,,,,green,flipped triangle
0.0,2.0,2.0,0.0,5.0,5.0,821.5704849999383,1.0,1.0,phase_2,go,500.0,450.0,1.0,,,,,,,,,magenta,cross
0.0,5.0,1.0,1.0,5.0,0.0,0.0,1.0,1.0,phase_2,stop,500.0,450.0,4.0,,,,,,,,,gray,circle
0.0,5.0,1.0,1.0,6.0,0.0,0.0,1.0,1.0,phase_2,stop,550.0,450.0,4.0,,,,,,,,,gray,circle
0.0,5.0,1.0,1.0,5.0,5.0,662.9441170002792,2.0,1.0,phase_2,go,550.0,500.0,1.0,,,,,,,,,gray,circle
0.0,4.0,4.0,0.0,5.0,5.0,416.961220000303,2.0,1.0,phase_2,go,550.0,500.0,1.0,,,,,,,,,green,flipped triangle
0.0,3.0,3.0,0.0,6.0,6.0,355.4424239996478,2.0,1.0,phase_2,go,550.0,500.0,1.0,,,,,,,,,orange,diamond
0.0,8.0,4.0,1.0,6.0,6.0,643.8226619998204,2.0,1.0,phase_2,stop,550.0,500.0,3.0,,,,,,,,,blue,hexagon
0.0,6.0,2.0,1.0,5.0,5.0,729.4099060000008,2.0,1.0,phase_2,stop,550.0,450.0,3.0,,,,,,,,,white,I
0.0,4.0,4.0,0.0,6.0,6.0,856.8619479997324,2.0,1.0,phase_2,go,500.0,450.0,1.0,,,,,,,,,green,flipped triangle
0.0,6.0,2.0,1.0,6.0,6.0,511.50207099999534,2.0,1.0,phase_2,stop,500.0,450.0,3.0,,,,,,,,,white,I
0.0,3.0,3.0,0.0,6.0,6.0,822.4937509999108,2.0,1.0,phase_2,go,500.0,400.0,1.0,,,,,,,,,orange,diamond
0.0,5.0,1.0,1.0,6.0,0.0,0.0,2.0,1.0,phase_2,stop,500.0,400.0,4.0,,,,,,,,,gray,circle
0.0,3.0,3.0,0.0,5.0,5.0,717.5446549999833,2.0,1.0,phase_2,go,500.0,450.0,1.0,,,,,,,,,orange,diamond
0.0,5.0,1.0,1.0,5.0,0.0,0.0,2.0,1.0,phase_2,stop,500.0,450.0,4.0,,,,,,,,,gray,circle
0.0,6.0,2.0,1.0,5.0,5.0,829.4113120000475,2.0,1.0,phase_2,go,550.0,450.0,1.0,,,,,,,,,white,I
0.0,4.0,4.0,0.0,5.0,5.0,654.6660439998959,2.0,1.0,phase_2,go,550.0,450.0,1.0,,,,,,,,,green,flipped triangle
0.0,6.0,2.0,1.0,6.0,6.0,611.7764109999371,2.0,1.0,phase_2,stop,550.0,450.0,3.0,,,,,,,,,white,I
0.0,4.0,4.0,0.0,6.0,6.0,729.3414519999715,2.0,1.0,phase_2,go,550.0,400.0,1.0,,,,,,,,,green,flipped triangle
0.0,4.0,4.0,0.0,6.0,6.0,920.4162420001012,2.0,1.0,phase_2,go,550.0,400.0,1.0,,,,,,,,,green,flipped triangle
0.0,2.0,2.0,0.0,5.0,5.0,731.9200740002998,2.0,1.0,phase_2,go,550.0,400.0,1.0,,,,,,,,,magenta,cross
0.0,2.0,2.0,0.0,6.0,6.0,290.6421029997545,2.0,1.0,phase_2,go,550.0,400.0,1.0,,,,,,,,,magenta,cross
0.0,4.0,4.0,0.0,5.0,5.0,933.0618089998096,2.0,1.0,phase_2,go,550.0,400.0,1.0,,,,,,,,,green,flipped triangle
0.0,5.0,1.0,1.0,5.0,0.0,0.0,2.0,1.0,phase_2,stop,550.0,400.0,4.0,,,,,,,,,gray,circle
0.0,1.0,1.0,0.0,6.0,6.0,815.6011480000416,2.0,1.0,phase_2,go,600.0,400.0,1.0,,,,,,,,,yellow,triangle
0.0,7.0,3.0,1.0,5.0,0.0,0.0,2.0,1.0,phase_2,stop,600.0,400.0,4.0,,,,,,,,,cyan,square
0.0,8.0,4.0,1.0,6.0,6.0,393.5464989999673,2.0,1.0,phase_2,stop,650.0,400.0,3.0,,,,,,,,,blue,hexagon
0.0,3.0,3.0,0.0,5.0,5.0,785.3694670002369,2.0,1.0,phase_2,go,650.0,350.0,1.0,,,,,,,,,orange,diamond
0.0,8.0,4.0,1.0,5.0,0.0,0.0,2.0,1.0,phase_2,stop,650.0,350.0,4.0,,,,,,,,,blue,hexagon
0.0,1.0,1.0,0.0,6.0,6.0,590.026102000138,2.0,1.0,phase_2,go,700.0,350.0,1.0,,,,,,,,,yellow,triangle
0.0,5.0,1.0,1.0,6.0,0.0,0.0,2.0,1.0,phase_2,stop,700.0,350.0,4.0,,,,,,,,,gray,circle
0.0,6.0,2.0,1.0,5.0,5.0,529.8992329999237,2.0,1.0,phase_2,stop,700.0,400.0,3.0,,,,,,,,,white,I
0.0,4.0,4.0,0.0,6.0,6.0,674.0401209999618,2.0,1.0,phase_2,go,650.0,400.0,1.0,,,,,,,,,green,flipped triangle
0.0,5.0,1.0,1.0,6.0,6.0,1082.0083939997858,2.0,1.0,phase_2,go,650.0,400.0,1.0,,,,,,,,,gray,circle
0.0,1.0,1.0,0.0,6.0,6.0,871.9606429999658,2.0,1.0,phase_2,go,650.0,400.0,1.0,,,,,,,,,yellow,triangle
0.0,1.0,1.0,0.0,5.0,5.0,970.6067170000096,2.0,1.0,phase_2,go,650.0,400.0,1.0,,,,,,,,,yellow,triangle
0.0,6.0,2.0,1.0,5.0,0.0,0.0,2.0,1.0,phase_2,stop,650.0,400.0,4.0,,,,,,,,,white,I
0.0,4.0,4.0,0.0,6.0,6.0,715.0941609997972,2.0,1.0,phase_2,go,700.0,400.0,1.0,,,,,,,,,green,flipped triangle
0.0,6.0,2.0,1.0,6.0,0.0,0.0,2.0,1.0,phase_2,stop,700.0,400.0,4.0,,,,,,,,,white,I
0.0,1.0,1.0,0.0,6.0,6.0,650.2464330001203,2.0,1.0,phase_2,go,700.0,450.0,1.0,,,,,,,,,yellow,triangle
0.0,6.0,2.0,1.0,5.0,5.0,398.5712230000899,3.0,1.0,phase_2,go,700.0,450.0,1.0,,,,,,,,,white,I
0.0,8.0,4.0,1.0,5.0,5.0,334.3792069999836,3.0,1.0,phase_2,go,700.0,450.0,1.0,,,,,,,,,blue,hexagon
0.0,6.0,2.0,1.0,6.0,6.0,307.5449379998645,3.0,1.0,phase_2,stop,700.0,450.0,3.0,,,,,,,,,white,I
0.0,8.0,4.0,1.0,5.0,5.0,504.5841700002711,3.0,1.0,phase_2,stop,700.0,400.0,3.0,,,,,,,,,blue,hexagon
0.0,6.0,2.0,1.0,5.0,5.0,500.21732799996244,3.0,1.0,phase_2,stop,650.0,400.0,3.0,,,,,,,,,white,I
0.0,2.0,2.0,0.0,6.0,6.0,495.3198670000347,3.0,1.0,phase_2,go,600.0,400.0,1.0,,,,,,,,,magenta,cross
0.0,6.0,2.0,1.0,5.0,5.0,684.3202620002558,3.0,1.0,phase_2,stop,600.0,400.0,3.0,,,,,,,,,white,I
0.0,6.0,2.0,1.0,6.0,6.0,357.6896129998204,3.0,1.0,phase_2,stop,550.0,400.0,3.0,,,,,,,,,white,I
0.0,7.0,3.0,1.0,5.0,5.0,749.7815360002278,3.0,1.0,phase_2,go,550.0,350.0,1.0,,,,,,,,,cyan,square
0.0,6.0,2.0,1.0,6.0,0.0,0.0,3.0,1.0,phase_2,stop,550.0,350.0,4.0,,,,,,,,,white,I
0.0,5.0,1.0,1.0,6.0,6.0,437.8595789999053,3.0,1.0,phase_2,stop,550.0,400.0,3.0,,,,,,,,,gray,circle
0.0,8.0,4.0,1.0,6.0,0.0,0.0,3.0,1.0,phase_2,stop,550.0,350.0,4.0,,,,,,,,,blue,hexagon
0.0,3.0,3.0,0.0,6.0,6.0,820.2239310003279,3.0,1.0,phase_2,go,550.0,400.0,1.0,,,,,,,,,orange,diamond
0.0,6.0,2.0,1.0,5.0,5.0,421.5931379999347,3.0,1.0,phase_2,stop,550.0,400.0,3.0,,,,,,,,,white,I
0.0,1.0,1.0,0.0,5.0,5.0,784.1000660000645,3.0,1.0,phase_2,go,500.0,400.0,1.0,,,,,,,,,yellow,triangle
0.0,1.0,1.0,0.0,5.0,5.0,774.204945999827,3.0,1.0,phase_2,go,500.0,400.0,1.0,,,,,,,,,yellow,triangle
0.0,6.0,2.0,1.0,6.0,0.0,0.0,3.0,1.0,phase_2,stop,500.0,400.0,4.0,,,,,,,,,white,I
0.0,8.0,4.0,1.0,5.0,5.0,405.8431580001524,3.0,1.0,phase_2,go,500.0,450.0,1.0,,,,,,,,,blue,hexagon
0.0,3.0,3.0,0.0,6.0,6.0,307.8153200003726,3.0,1.0,phase_2,go,500.0,450.0,1.0,,,,,,,,,orange,diamond
0.0,1.0,1.0,0.0,6.0,6.0,944.684522999978,3.0,1.0,phase_2,go,500.0,450.0,1.0,,,,,,,,,yellow,triangle
0.0,5.0,1.0,1.0,5.0,0.0,0.0,3.0,1.0,phase_2,stop,500.0,450.0,4.0,,,,,,,,,gray,circle
0.0,3.0,3.0,0.0,5.0,5.0,754.3660779997481,3.0,1.0,phase_2,go,550.0,450.0,1.0,,,,,,,,,orange,diamond
0.0,7.0,3.0,1.0,5.0,5.0,723.5043929999847,3.0,1.0,phase_2,go,550.0,450.0,1.0,,,,,,,,,cyan,square
0.0,4.0,4.0,0.0,5.0,5.0,802.3963569999069,3.0,1.0,phase_2,go,550.0,450.0,1.0,,,,,,,,,green,flipped triangle
0.0,7.0,3.0,1.0,6.0,0.0,0.0,3.0,1.0,phase_2,stop,550.0,450.0,4.0,,,,,,,,,cyan,square
0.0,7.0,3.0,1.0,6.0,6.0,595.008943999801,3.0,1.0,phase_2,stop,550.0,500.0,3.0,,,,,,,,,cyan,square
0.0,1.0,1.0,0.0,5.0,5.0,359.9269400001503,3.0,1.0,phase_2,go,550.0,450.0,1.0,,,,,,,,,yellow,triangle
0.0,6.0,2.0,1.0,5.0,0.0,0.0,3.0,1.0,phase_2,stop,550.0,450.0,4.0,,,,,,,,,white,I
0.0,4.0,4.0,0.0,5.0,5.0,760.4629609995754,3.0,1.0,phase_2,go,600.0,450.0,1.0,,,,,,,,,green,flipped triangle
0.0,2.0,2.0,0.0,5.0,5.0,912.2515960002602,3.0,1.0,phase_2,go,600.0,450.0,1.0,,,,,,,,,magenta,cross
0.0,5.0,1.0,1.0,6.0,6.0,396.5063290002035,3.0,1.0,phase_2,stop,600.0,450.0,3.0,,,,,,,,,gray,circle
0.0,3.0,3.0,0.0,6.0,6.0,561.829244999899,3.0,1.0,phase_2,go,600.0,400.0,1.0,,,,,,,,,orange,diamond
0.0,7.0,3.0,1.0,5.0,5.0,539.9635009998747,3.0,1.0,phase_2,stop,600.0,400.0,3.0,,,,,,,,,cyan,square
0.0,1.0,1.0,0.0,6.0,6.0,276.1630189997959,3.0,1.0,phase_2,go,550.0,400.0,1.0,,,,,,,,,yellow,triangle
0.0,7.0,3.0,1.0,5.0,5.0,367.4207260000912,3.0,1.0,phase_2,stop,550.0,400.0,3.0,,,,,,,,,cyan,square
0.0,6.0,2.0,1.0,5.0,5.0,848.171518000072,3.0,1.0,phase_2,go,500.0,400.0,1.0,,,,,,,,,white,I
0.0,7.0,3.0,1.0,5.0,5.0,633.400714000345,4.0,1.0,phase_2,stop,500.0,400.0,3.0,,,,,,,,,cyan,square
0.0,3.0,3.0,0.0,5.0,5.0,508.69286299985106,4.0,1.0,phase_2,go,450.0,400.0,1.0,,,,,,,,,orange,diamond
0.0,6.0,2.0,1.0,6.0,6.0,527.3429280000528,4.0,1.0,phase_2,go,450.0,400.0,1.0,,,,,,,,,white,I
0.0,1.0,1.0,0.0,6.0,6.0,336.7714139999407,4.0,1.0,phase_2,go,450.0,400.0,1.0,,,,,,,,,yellow,triangle
0.0,4.0,4.0,0.0,5.0,5.0,824.3716240003778,4.0,1.0,phase_2,go,450.0,400.0,1.0,,,,,,,,,green,flipped triangle
0.0,7.0,3.0,1.0,6.0,6.0,664.037147000272,4.0,1.0,phase_2,go,450.0,400.0,1.0,,,,,,,,,cyan,square
0.0,5.0,1.0,1.0,5.0,0.0,0.0,4.0,1.0,phase_2,stop,450.0,400.0,4.0,,,,,,,,,gray,circle
0.0,6.0,2.0,1.0,6.0,6.0,338.8046620002569,4.0,1.0,phase_2,stop,500.0,400.0,3.0,,,,,,,,,white,I
0.0,2.0,2.0,0.0,6.0,6.0,574.900351999986,4.0,1.0,phase_2,go,500.0,350.0,1.0,,,,,,,,,magenta,cross
0.0,1.0,1.0,0.0,6.0,6.0,339.8374130001684,4.0,1.0,phase_2,go,500.0,350.0,1.0,,,,,,,,,yellow,triangle
0.0,7.0,3.0,1.0,6.0,6.0,347.7379490000203,4.0,1.0,phase_2,go,500.0,350.0,1.0,,,,,,,,,cyan,square
0.0,8.0,4.0,1.0,5.0,5.0,688.2323800000449,4.0,1.0,phase_2,stop,500.0,350.0,3.0,,,,,,,,,blue,hexagon
0.0,2.0,2.0,0.0,6.0,6.0,532.1894319999956,4.0,1.0,phase_2,go,450.0,350.0,1.0,,,,,,,,,magenta,cross
0.0,8.0,4.0,1.0,6.0,0.0,0.0,4.0,1.0,phase_2,stop,450.0,350.0,4.0,,,,,,,,,blue,hexagon
0.0,4.0,4.0,0.0,5.0,5.0,510.0176010000723,4.0,1.0,phase_2,go,450.0,400.0,1.0,,,,,,,,,green,flipped triangle
0.0,1.0,1.0,0.0,5.0,5.0,439.0409100001307,4.0,1.0,phase_2,go,450.0,400.0,1.0,,,,,,,,,yellow,triangle
0.0,4.0,4.0,0.0,6.0,6.0,774.8673680002867,4.0,1.0,phase_2,go,450.0,400.0,1.0,,,,,,,,,green,flipped triangle
0.0,6.0,2.0,1.0,5.0,5.0,527.0611210003153,4.0,1.0,phase_2,stop,450.0,400.0,3.0,,,,,,,,,white,I
0.0,2.0,2.0,0.0,6.0,6.0,263.2742409996353,4.0,1.0,phase_2,go,400.0,400.0,1.0,,,,,,,,,magenta,cross
0.0,3.0,3.0,0.0,6.0,6.0,327.9985069998474,4.0,1.0,phase_2,go,400.0,400.0,1.0,,,,,,,,,orange,diamond
0.0,2.0,2.0,0.0,5.0,5.0,434.3008480000208,4.0,1.0,phase_2,go,400.0,400.0,1.0,,,,,,,,,magenta,cross
0.0,2.0,2.0,0.0,6.0,6.0,340.1372220000667,4.0,1.0,phase_2,go,400.0,400.0,1.0,,,,,,,,,magenta,cross
0.0,8.0,4.0,1.0,5.0,0.0,0.0,4.0,1.0,phase_2,stop,400.0,400.0,4.0,,,,,,,,,blue,hexagon
0.0,2.0,2.0,0.0,6.0,6.0,379.918066999835,4.0,1.0,phase_2,go,450.0,400.0,1.0,,,,,,,,,magenta,cross
0.0,5.0,1.0,1.0,6.0,0.0,0.0,4.0,1.0,phase_2,stop,450.0,400.0,4.0,,,,,,,,,gray,circle
0.0,4.0,4.0,0.0,6.0,6.0,515.8405969996238,4.0,1.0,phase_2,go,450.0,450.0,1.0,,,,,,,,,green,flipped triangle
0.0,8.0,4.0,1.0,5.0,0.0,0.0,4.0,1.0,phase_2,stop,450.0,450.0,4.0,,,,,,,,,blue,hexagon
0.0,7.0,3.0,1.0,6.0,6.0,375.8217469999181,4.0,1.0,phase_2,stop,500.0,450.0,3.0,,,,,,,,,cyan,square
0.0,7.0,3.0,1.0,6.0,6.0,580.8074459996533,4.0,1.0,phase_2,stop,500.0,400.0,3.0,,,,,,,,,cyan,square
0.0,7.0,3.0,1.0,5.0,5.0,716.5058590003355,4.0,1.0,phase_2,go,500.0,350.0,1.0,,,,,,,,,cyan,square
0.0,1.0,1.0,0.0,5.0,5.0,913.4668809997492,4.0,1.0,phase_2,go,500.0,350.0,1.0,,,,,,,,,yellow,triangle
0.0,8.0,4.0,1.0,6.0,0.0,0.0,4.0,1.0,phase_2,stop,500.0,350.0,4.0,,,,,,,,,blue,hexagon
0.0,8.0,4.0,1.0,5.0,5.0,672.6581569996597,4.0,1.0,phase_2,stop,500.0,400.0,3.0,,,,,,,,,blue,hexagon
0.0,1.0,1.0,0.0,5.0,5.0,630.9596830001283,4.0,1.0,phase_2,go,450.0,400.0,1.0,,,,,,,,,yellow,triangle
0.0,2.0,2.0,0.0,6.0,6.0,910.5284920001396,4.0,1.0,phase_2,go,450.0,400.0,1.0,,,,,,,,,magenta,cross
0.0,4.0,4.0,0.0,5.0,5.0,283.8515690000349,4.0,1.0,phase_2,go,450.0,400.0,1.0,,,,,,,,,green,flipped triangle
0.0,2.0,2.0,0.0,5.0,5.0,914.6180279999498,5.0,1.0,phase_2,go,450.0,400.0,1.0,,,,,,,,,magenta,cross
0.0,4.0,4.0,0.0,5.0,5.0,380.2596699997593,5.0,1.0,phase_2,go,450.0,400.0,1.0,,,,,,,,,green,flipped triangle
0.0,2.0,2.0,0.0,6.0,6.0,597.080257000016,5.0,1.0,phase_2,go,450.0,400.0,1.0,,,,,,,,,magenta,cross
0.0,6.0,2.0,1.0,6.0,6.0,325.6199520001246,5.0,1.0,phase_2,stop,450.0,400.0,3.0,,,,,,,,,white,I
0.0,4.0,4.0,0.0,6.0,6.0,571.9246580001709,5.0,1.0,phase_2,go,450.0,350.0,1.0,,,,,,,,,green,flipped triangle
0.0,8.0,4.0,1.0,5.0,5.0,374.1568249997726,5.0,1.0,phase_2,stop,450.0,350.0,3.0,,,,,,,,,blue,hexagon
0.0,5.0,1.0,1.0,5.0,5.0,478.973551999843,5.0,1.0,phase_2,stop,400.0,350.0,3.0,,,,,,,,,gray,circle
0.0,4.0,4.0,0.0,5.0,5.0,518.8663550002275,5.0,1.0,phase_2,go,350.0,350.0,1.0,,,,,,,,,green,flipped triangle
0.0,7.0,3.0,1.0,6.0,6.0,316.9465850000961,5.0,1.0,phase_2,stop,350.0,350.0,3.0,,,,,,,,,cyan,square
0.0,1.0,1.0,0.0,6.0,6.0,593.6491309998928,5.0,1.0,phase_2,go,350.0,300.0,1.0,,,,,,,,,yellow,triangle
0.0,5.0,1.0,1.0,5.0,0.0,0.0,5.0,1.0,phase_2,stop,350.0,300.0,4.0,,,,,,,,,gray,circle
0.0,5.0,1.0,1.0,6.0,6.0,690.2650389997689,5.0,1.0,phase_2,go,400.0,300.0,1.0,,,,,,,,,gray,circle
0.0,8.0,4.0,1.0,6.0,6.0,368.3679920000031,5.0,1.0,phase_2,stop,400.0,300.0,3.0,,,,,,,,,blue,hexagon
0.0,8.0,4.0,1.0,6.0,0.0,0.0,5.0,1.0,phase_2,stop,400.0,250.0,4.0,,,,,,,,,blue,hexagon
0.0,2.0,2.0,0.0,5.0,5.0,553.812391000065,5.0,1.0,phase_2,go,400.0,300.0,1.0,,,,,,,,,magenta,cross
0.0,3.0,3.0,0.0,6.0,6.0,869.7777160000442,5.0,1.0,phase_2,go,400.0,300.0,1.0,,,,,,,,,orange,diamond
0.0,5.0,1.0,1.0,6.0,0.0,0.0,5.0,1.0,phase_2,stop,400.0,300.0,4.0,,,,,,,,,gray,circle
0.0,8.0,4.0,1.0,6.0,0.0,0.0,5.0,1.0,phase_2,stop,400.0,350.0,4.0,,,,,,,,,blue,hexagon
0.0,8.0,4.0,1.0,6.0,0.0,0.0,5.0,1.0,phase_2,stop,400.0,400.0,4.0,,,,,,,,,blue,hexagon
0.0,4.0,4.0,0.0,5.0,5.0,618.00601799996,5.0,1.0,phase_2,go,400.0,450.0,1.0,,,,,,,,,green,flipped triangle
0.0,8.0,4.0,1.0,5.0,5.0,732.1765819997381,5.0,1.0,phase_2,go,400.0,450.0,1.0,,,,,,,,,blue,hexagon
0.0,5.0,1.0,1.0,6.0,0.0,0.0,5.0,1.0,phase_2,stop,400.0,450.0,4.0,,,,,,,,,gray,circle
0.0,3.0,3.0,0.0,5.0,5.0,526.8406559998766,5.0,1.0,phase_2,go,400.0,500.0,1.0,,,,,,,,,orange,diamond
0.0,1.0,1.0,0.0,5.0,6.0,315.2689680000549,5.0,1.0,phase_2,go,400.0,500.0,2.0,,,,,,,,,yellow,triangle
0.0,2.0,2.0,0.0,6.0,6.0,483.8313179998295,5.0,1.0,phase_2,go,400.0,500.0,1.0,,,,,,,,,magenta,cross
0.0,1.0,1.0,0.0,6.0,6.0,719.3886320001184,5.0,1.0,phase_2,go,400.0,500.0,1.0,,,,,,,,,yellow,triangle
0.0,6.0,2.0,1.0,6.0,0.0,0.0,5.0,1.0,phase_2,stop,400.0,500.0,4.0,,,,,,,,,white,I
0.0,7.0,3.0,1.0,6.0,6.0,602.9992230000971,5.0,1.0,phase_2,stop,400.0,550.0,3.0,,,,,,,,,cyan,square
0.0,7.0,3.0,1.0,5.0,5.0,565.0776070001484,5.0,1.0,phase_2,go,400.0,500.0,1.0,,,,,,,,,cyan,square
0.0,1.0,1.0,0.0,6.0,6.0,979.4348740001624,5.0,1.0,phase_2,go,400.0,500.0,1.0,,,,,,,,,yellow,triangle
0.0,1.0,1.0,0.0,5.0,5.0,494.9716549999721,5.0,1.0,phase_2,go,400.0,500.0,1.0,,,,,,,,,yellow,triangle
0.0,5.0,1.0,1.0,5.0,5.0,441.2254180001582,5.0,1.0,phase_2,stop,400.0,500.0,3.0,,,,,,,,,gray,circle
0.0,2.0,2.0,0.0,6.0,6.0,282.0786059996862,5.0,1.0,phase_2,go,350.0,500.0,1.0,,,,,,,,,magenta,cross
0.0,1.0,1.0,0.0,5.0,5.0,505.51290400017024,5.0,1.0,phase_2,go,350.0,500.0,1.0,,,,,,,,,yellow,triangle
0.0,8.0,4.0,1.0,5.0,0.0,0.0,5.0,1.0,phase_2,stop,350.0,500.0,4.0,,,,,,,,,blue,hexagon
0.0,8.0,4.0,1.0,6.0,6.0,720.2383359999658,5.0,1.0,phase_2,stop,400.0,500.0,3.0,,,,,,,,,blue,hexagon
0.0,2.0,2.0,0.0,6.0,6.0,614.0740809996714,6.0,1.0,phase_2,go,400.0,450.0,1.0,,,,,,,,,magenta,cross
0.0,3.0,3.0,0.0,6.0,6.0,743.1098990000464,6.0,1.0,phase_2,go,400.0,450.0,1.0,,,,,,,,,orange,diamond
0.0,7.0,3.0,1.0,5.0,0.0,0.0,6.0,1.0,phase_2,stop,400.0,450.0,4.0,,,,,,,,,cyan,square
0.0,3.0,3.0,0.0,6.0,6.0,407.2424519999913,6.0,1.0,phase_2,go,450.0,450.0,1.0,,,,,,,,,orange,diamond
0.0,7.0,3.0,1.0,5.0,5.0,613.877173000219,6.0,1.0,phase_2,stop,450.0,450.0,3.0,,,,,,,,,cyan,square
0.0,7.0,3.0,1.0,6.0,6.0,307.6921450001464,6.0,1.0,phase_2,go,400.0,450.0,1.0,,,,,,,,,cyan,square
0.0,2.0,2.0,0.0,5.0,5.0,715.2920129997256,6.0,1.0,phase_2,go,400.0,450.0,1.0,,,,,,,,,magenta,cross
0.0,2.0,2.0,0.0,6.0,6.0,482.0231940002486,6.0,1.0,phase_2,go,400.0,450.0,1.0,,,,,,,,,magenta,cross
0.0,5.0,1.0,1.0,6.0,0.0,0.0,6.0,1.0,phase_2,stop,400.0,450.0,4.0,,,,,,,,,gray,circle
0.0,3.0,3.0,0.0,6.0,6.0,441.1349550000523,6.0,1.0,phase_2,go,400.0,500.0,1.0,,,,,,,,,orange,diamond
0.0,7.0,3.0,1.0,6.0,6.0,894.3006160002369,6.0,1.0,phase_2,go,400.0,500.0,1.0,,,,,,,,,cyan,square
0.0,5.0,1.0,1.0,6.0,0.0,0.0,6.0,1.0,phase_2,stop,400.0,500.0,4.0,,,,,,,,,gray,circle
0.0,4.0,4.0,0.0,5.0,5.0,368.7395309998464,6.0,1.0,phase_2,go,400.0,550.0,1.0,,,,,,,,,green,flipped triangle
0.0,4.0,4.0,0.0,6.0,6.0,810.3976310003418,6.0,1.0,phase_2,go,400.0,550.0,1.0,,,,,,,,,green,flipped triangle
0.0,6.0,2.0,1.0,5.0,0.0,0.0,6.0,1.0,phase_2,stop,400.0,550.0,4.0,,,,,,,,,white,I
0.0,6.0,2.0,1.0,6.0,6.0,590.7236499997452,6.0,1.0,phase_2,stop,450.0,550.0,3.0,,,,,,,,,white,I
0.0,2.0,2.0,0.0,5.0,5.0,595.5837330002396,6.0,1.0,phase_2,go,450.0,500.0,1.0,,,,,,,,,magenta,cross
0.0,7.0,3.0,1.0,6.0,6.0,735.5392939998637,6.0,1.0,phase_2,go,450.0,500.0,1.0,,,,,,,,,cyan,square
0.0,1.0,1.0,0.0,5.0,5.0,380.9357089999139,6.0,1.0,phase_2,go,450.0,500.0,1.0,,,,,,,,,yellow,triangle
0.0,4.0,4.0,0.0,5.0,5.0,303.4931329998471,6.0,1.0,phase_2,go,450.0,500.0,1.0,,,,,,,,,green,flipped triangle
0.0,8.0,4.0,1.0,6.0,6.0,586.0499810000874,6.0,1.0,phase_2,go,450.0,500.0,1.0,,,,,,,,,blue,hexagon
0.0,8.0,4.0,1.0,5.0,5.0,517.4656149997645,6.0,1.0,phase_2,stop,450.0,500.0,3.0,,,,,,,,,blue,hexagon
0.0,8.0,4.0,1.0,6.0,6.0,600.8010119999199,6.0,1.0,phase_2,stop,400.0,500.0,3.0,,,,,,,,,blue,hexagon
0.0,1.0,1.0,0.0,6.0,6.0,557.614932999968,6.0,1.0,phase_2,go,400.0,450.0,1.0,,,,,,,,,yellow,triangle
0.0,7.0,3.0,1.0,6.0,0.0,0.0,6.0,1.0,phase_2,stop,400.0,450.0,4.0,,,,,,,,,cyan,square
0.0,7.0,3.0,1.0,5.0,5.0,442.0505899997806,6.0,1.0,phase_2,stop,400.0,500.0,3.0,,,,,,,,,cyan,square
0.0,5.0,1.0,1.0,6.0,6.0,541.0075959998721,6.0,1.0,phase_2,stop,350.0,500.0,3.0,,,,,,,,,gray,circle
0.0,3.0,3.0,0.0,6.0,6.0,575.5230039999333,6.0,1.0,phase_2,go,350.0,450.0,1.0,,,,,,,,,orange,diamond
0.0,1.0,1.0,0.0,6.0,6.0,870.6860580000466,6.0,1.0,phase_2,go,350.0,450.0,1.0,,,,,,,,,yellow,triangle
0.0,6.0,2.0,1.0,6.0,6.0,799.0309830001934,6.0,1.0,phase_2,go,350.0,450.0,1.0,,,,,,,,,white,I
0.0,5.0,1.0,1.0,5.0,5.0,898.8219749999189,6.0,1.0,phase_2,go,350.0,450.0,1.0,,,,,,,,,gray,circle
0.0,1.0,1.0,0.0,5.0,5.0,714.4434249998994,6.0,1.0,phase_2,go,350.0,450.0,1.0,,,,,,,,,yellow,triangle
0.0,2.0,2.0,0.0,5.0,5.0,669.3194310000763,6.0,1.0,phase_2,go,350.0,450.0,1.0,,,,,,,,,magenta,cross
0.0,2.0,2.0,0.0,6.0,6.0,740.2106750000712,6.0,1.0,phase_2,go,350.0,450.0,1.0,,,,,,,,,magenta,cross
0.0,8.0,4.0,1.0,5.0,0.0,0.0,6.0,1.0,phase_2,stop,350.0,450.0,4.0,,,,,,,,,blue,hexagon
0.0,7.0,3.0,1.0,5.0,0.0,0.0,6.0,1.0,phase_2,stop,400.0,450.0,4.0,,,,,,,,,cyan,square
0.0,6.0,2.0,1.0,5.0,5.0,366.616549000355,7.0,1.0,phase_2,stop,450.0,450.0,3.0,,,,,,,,,white,I
0.0,3.0,3.0,0.0,6.0,6.0,736.257888000182,7.0,1.0,phase_2,go,400.0,450.0,1.0,,,,,,,,,orange,diamond
0.0,8.0,4.0,1.0,5.0,5.0,623.5221150000143,7.0,1.0,phase_2,go,400.0,450.0,1.0,,,,,,,,,blue,hexagon
0.0,4.0,4.0,0.0,5.0,5.0,461.9542370000999,7.0,1.0,phase_2,go,400.0,450.0,1.0,,,,,,,,,green,flipped triangle
0.0,1.0,1.0,0.0,5.0,5.0,378.5787699998764,7.0,1.0,phase_2,go,400.0,450.0,1.0,,,,,,,,,yellow,triangle
0.0,4.0,4.0,0.0,5.0,5.0,374.4586849998086,7.0,1.0,phase_2,go,400.0,450.0,1.0,,,,,,,,,green,flipped triangle
0.0,6.0,2.0,1.0,6.0,6.0,829.1470680001112,7.0,1.0,phase_2,go,400.0,450.0,1.0,,,,,,,,,white,I
0.0,8.0,4.0,1.0,5.0,0.0,0.0,7.0,1.0,phase_2,stop,400.0,450.0,4.0,,,,,,,,,blue,hexagon
0.0,3.0,3.0,0.0,5.0,5.0,596.8322469998384,7.0,1.0,phase_2,go,450.0,450.0,1.0,,,,,,,,,orange,diamond
0.0,4.0,4.0,0.0,6.0,6.0,547.9098119999435,7.0,1.0,phase_2,go,450.0,450.0,1.0,,,,,,,,,green,flipped triangle
0.0,6.0,2.0,1.0,6.0,0.0,0.0,7.0,1.0,phase_2,stop,450.0,450.0,4.0,,,,,,,,,white,I
0.0,4.0,4.0,0.0,5.0,5.0,627.4297059999299,7.0,1.0,phase_2,go,450.0,500.0,1.0,,,,,,,,,green,flipped triangle
0.0,7.0,3.0,1.0,6.0,0.0,0.0,7.0,1.0,phase_2,stop,450.0,500.0,4.0,,,,,,,,,cyan,square
0.0,5.0,1.0,1.0,6.0,6.0,667.7221280001504,7.0,1.0,phase_2,go,450.0,550.0,1.0,,,,,,,,,gray,circle
0.0,5.0,1.0,1.0,6.0,6.0,702.6568189999125,7.0,1.0,phase_2,stop,450.0,550.0,3.0,,,,,,,,,gray,circle
0.0,2.0,2.0,0.0,6.0,6.0,694.7894410000117,7.0,1.0,phase_2,go,450.0,500.0,1.0,,,,,,,,,magenta,cross
0.0,6.0,2.0,1.0,6.0,0.0,0.0,7.0,1.0,phase_2,stop,450.0,500.0,4.0,,,,,,,,,white,I
0.0,5.0,1.0,1.0,6.0,0.0,0.0,7.0,1.0,phase_2,stop,450.0,550.0,4.0,,,,,,,,,gray,circle
0.0,5.0,1.0,1.0,5.0,5.0,643.8095100002101,7.0,1.0,phase_2,go,450.0,600.0,1.0,,,,,,,,,gray,circle
0.0,5.0,1.0,1.0,5.0,0.0,0.0,7.0,1.0,phase_2,stop,450.0,600.0,4.0,,,,,,,,,gray,circle
0.0,2.0,2.0,0.0,6.0,6.0,705.1855939998859,7.0,1.0,phase_2,go,500.0,600.0,1.0,,,,,,,,,magenta,cross
0.0,7.0,3.0,1.0,5.0,0.0,0.0,7.0,1.0,phase_2,stop,500.0,600.0,4.0,,,,,,,,,cyan,square
0.0,8.0,4.0,1.0,5.0,5.0,686.4937979999013,7.0,1.0,phase_2,go,550.0,600.0,1.0,,,,,,,,,blue,hexagon
0.0,2.0,2.0,0.0,5.0,5.0,704.9113339999167,7.0,1.0,phase_2,go,550.0,600.0,1.0,,,,,,,,,magenta,cross
0.0,1.0,1.0,0.0,5.0,5.0,305.4293370000778,7.0,1.0,phase_2,go,550.0,600.0,1.0,,,,,,,,,yellow,triangle
0.0,2.0,2.0,0.0,5.0,5.0,277.1325700000489,7.0,1.0,phase_2,go,550.0,600.0,1.0,,,,,,,,,magenta,cross
0.0,2.0,2.0,0.0,5.0,5.0,297.4401950000356,7.0,1.0,phase_2,go,550.0,600.0,1.0,,,,,,,,,magenta,cross
0.0,3.0,3.0,0.0,5.0,5.0,624.7479439998642,7.0,1.0,phase_2,go,550.0,600.0,1.0,,,,,,,,,orange,diamond
0.0,8.0,4.0,1.0,6.0,0.0,0.0,7.0,1.0,phase_2,stop,550.0,600.0,4.0,,,,,,,,,blue,hexagon
0.0,7.0,3.0,1.0,5.0,5.0,515.6921439997859,7.0,1.0,phase_2,stop,550.0,650.0,3.0,,,,,,,,,cyan,square
0.0,3.0,3.0,0.0,5.0,5.0,705.3981130002285,7.0,1.0,phase_2,go,500.0,650.0,1.0,,,,,,,,,orange,diamond
0.0,1.0,1.0,0.0,5.0,5.0,783.1371019997277,7.0,1.0,phase_2,go,500.0,650.0,1.0,,,,,,,,,yellow,triangle
0.0,6.0,2.0,1.0,6.0,0.0,0.0,7.0,1.0,phase_2,stop,500.0,650.0,4.0,,,,,,,,,white,I
0.0,8.0,4.0,1.0,6.0,6.0,1123.7348169997858,7.0,1.0,phase_2,go,500.0,700.0,1.0,,,,,,,,,blue,hexagon
0.0,6.0,2.0,1.0,6.0,0.0,0.0,7.0,1.0,phase_2,stop,500.0,700.0,4.0,,,,,,,,,white,I
0.0,2.0,2.0,0.0,5.0,5.0,451.9558570000299,7.0,1.0,phase_2,go,500.0,750.0,1.0,,,,,,,,,magenta,cross
0.0,8.0,4.0,1.0,6.0,6.0,595.2387889997226,8.0,1.0,phase_2,stop,500.0,750.0,3.0,,,,,,,,,blue,hexagon
0.0,3.0,3.0,0.0,5.0,5.0,596.0581499998625,8.0,1.0,phase_2,go,500.0,700.0,1.0,,,,,,,,,orange,diamond
0.0,7.0,3.0,1.0,6.0,6.0,543.5847540002214,8.0,1.0,phase_2,stop,500.0,700.0,3.0,,,,,,,,,cyan,square
0.0,5.0,1.0,1.0,6.0,0.0,0.0,8.0,1.0,phase_2,stop,500.0,650.0,4.0,,,,,,,,,gray,circle
0.0,2.0,2.0,0.0,5.0,5.0,299.4565690000854,8.0,1.0,phase_2,go,500.0,700.0,1.0,,,,,,,,,magenta,cross
0.0,5.0,1.0,1.0,5.0,5.0,320.6507099998816,8.0,1.0,phase_2,stop,500.0,700.0,3.0,,,,,,,,,gray,circle
0.0,7.0,3.0,1.0,6.0,0.0,0.0,8.0,1.0,phase_2,stop,450.0,700.0,4.0,,,,,,,,,cyan,square
0.0,8.0,4.0,1.0,6.0,6.0,795.5865590001849,8.0,1.0,phase_2,go,450.0,750.0,1.0,,,,,,,,,blue,hexagon
0.0,6.0,2.0,1.0,5.0,5.0,447.8919660000429,8.0,1.0,phase_2,go,450.0,750.0,1.0,,,,,,,,,white,I
0.0,3.0,3.0,0.0,5.0,5.0,293.9667220002775,8.0,1.0,phase_2,go,450.0,750.0,1.0,,,,,,,,,orange,diamond
0.0,1.0,1.0,0.0,6.0,6.0,353.446262000034,8.0,1.0,phase_2,go,450.0,750.0,1.0,,,,,,,,,yellow,triangle
0.0,7.0,3.0,1.0,6.0,6.0,350.4919199999676,8.0,1.0,phase_2,stop,450.0,750.0,3.0,,,,,,,,,cyan,square
0.0,4.0,4.0,0.0,6.0,6.0,571.116906000043,8.0,1.0,phase_2,go,450.0,700.0,1.0,,,,,,,,,green,flipped triangle
0.0,1.0,1.0,0.0,6.0,6.0,634.6494980002717,8.0,1.0,phase_2,go,450.0,700.0,1.0,,,,,,,,,yellow,triangle
0.0,4.0,4.0,0.0,6.0,6.0,640.7147240001905,8.0,1.0,phase_2,go,450.0,700.0,1.0,,,,,,,,,green,flipped triangle
0.0,3.0,3.0,0.0,5.0,5.0,346.8289770003139,8.0,1.0,phase_2,go,450.0,700.0,1.0,,,,,,,,,orange,diamond
0.0,3.0,3.0,0.0,5.0,5.0,436.4934580003137,8.0,1.0,phase_2,go,450.0,700.0,1.0,,,,,,,,,orange,diamond
0.0,7.0,3.0,1.0,5.0,5.0,637.7628829995956,8.0,1.0,phase_2,stop,450.0,700.0,3.0,,,,,,,,,cyan,square
0.0,5.0,1.0,1.0,5.0,5.0,760.6167710000591,8.0,1.0,phase_2,go,400.0,700.0,1.0,,,,,,,,,gray,circle
0.0,3.0,3.0,0.0,6.0,6.0,793.1834779997189,8.0,1.0,phase_2,go,400.0,700.0,1.0,,,,,,,,,orange,diamond
0.0,3.0,3.0,0.0,6.0,6.0,705.2195060000486,8.0,1.0,phase_2,go,400.0,700.0,1.0,,,,,,,,,orange,diamond
0.0,1.0,1.0,0.0,5.0,5.0,772.4909540002045,8.0,1.0,phase_2,go,400.0,700.0,1.0,,,,,,,,,yellow,triangle
0.0,8.0,4.0,1.0,6.0,6.0,676.713712000037,8.0,1.0,phase_2,go,400.0,700.0,1.0,,,,,,,,,blue,hexagon
0.0,4.0,4.0,0.0,6.0,6.0,800.8027850000872,8.0,1.0,phase_2,go,400.0,700.0,1.0,,,,,,,,,green,flipped triangle
0.0,7.0,3.0,1.0,5.0,5.0,442.4778340003286,8.0,1.0,phase_2,stop,400.0,700.0,3.0,,,,,,,,,cyan,square
0.0,2.0,2.0,0.0,6.0,6.0,342.644520000249,8.0,1.0,phase_2,go,350.0,700.0,1.0,,,,,,,,,magenta,cross
0.0,2.0,2.0,0.0,5.0,5.0,449.9359299998104,8.0,1.0,phase_2,go,350.0,700.0,1.0,,,,,,,,,magenta,cross
0.0,6.0,2.0,1.0,5.0,0.0,0.0,8.0,1.0,phase_2,stop,350.0,700.0,4.0,,,,,,,,,white,I
0.0,6.0,2.0,1.0,5.0,5.0,791.8427300000985,8.0,1.0,phase_2,go,400.0,700.0,1.0,,,,,,,,,white,I
0.0,4.0,4.0,0.0,5.0,5.0,531.1551600002531,8.0,1.0,phase_2,go,400.0,700.0,1.0,,,,,,,,,green,flipped triangle
0.0,5.0,1.0,1.0,5.0,5.0,335.8164090000173,8.0,1.0,phase_2,go,400.0,700.0,1.0,,,,,,,,,gray,circle
0.0,6.0,2.0,1.0,5.0,5.0,627.3526760001005,8.0,1.0,phase_2,go,400.0,700.0,1.0,,,,,,,,,white,I
0.0,3.0,3.0,0.0,5.0,5.0,796.5765120002288,8.0,1.0,phase_2,go,400.0,700.0,1.0,,,,,,,,,orange,diamond
0.0,4.0,4.0,0.0,6.0,6.0,638.5656040001777,8.0,1.0,phase_2,go,400.0,700.0,1.0,,,,,,,,,green,flipped triangle
0.0,1.0,1.0,0.0,6.0,6.0,311.4366489999156,8.0,1.0,phase_2,go,400.0,700.0,1.0,,,,,,,,,yellow,triangle
0.0,2.0,2.0,0.0,6.0,6.0,622.800978000214,8.0,1.0,phase_2,go,400.0,700.0,1.0,,,,,,,,,magenta,cross
0.0,2.0,2.0,0.0,7.0,1.0,0.5823729998155,1.0,1.0,phase_3,,,,,88.0,2.0,88.0,264.0,44.0,220.0,176.0,132.0,magenta,cross
0.0,5.0,1.0,1.0,7.0,5.0,2103.3253309997235,1.0,2.0,phase_3,,,,,136.0,4.0,34.0,204.0,102.0,170.0,136.0,68.0,gray,circle
0.0,7.0,3.0,1.0,7.0,4.0,953.8664219999192,1.0,1.0,phase_3,,,,,170.0,5.0,102.0,204.0,136.0,170.0,34.0,68.0,cyan,square
0.0,6.0,2.0,1.0,7.0,4.0,1441.685086999314,1.0,1.0,phase_3,,,,,34.0,1.0,102.0,170.0,68.0,34.0,136.0,204.0,white,I
0.0,4.0,4.0,0.0,7.0,1.0,1513.0088310006613,1.0,1.0,phase_3,,,,,196.0,4.0,196.0,245.0,294.0,49.0,98.0,147.0,green,flipped triangle
0.0,8.0,4.0,1.0,7.0,1.0,1973.1345210002476,1.0,1.0,phase_3,,,,,324.0,6.0,324.0,216.0,54.0,162.0,270.0,108.0,blue,hexagon
0.0,1.0,1.0,0.0,7.0,6.0,938.1046420003258,1.0,1.0,phase_3,,,,,234.0,6.0,195.0,39.0,156.0,117.0,78.0,234.0,yellow,triangle
0.0,7.0,3.0,1.0,7.0,4.0,1629.8263380003846,1.0,1.0,phase_3,,,,,195.0,5.0,156.0,78.0,234.0,195.0,39.0,117.0,cyan,square
0.0,6.0,2.0,1.0,7.0,5.0,1164.792536999812,1.0,1.0,phase_3,,,,,264.0,6.0,44.0,88.0,220.0,176.0,264.0,132.0,white,I
0.0,1.0,1.0,0.0,7.0,3.0,1311.9264000006297,1.0,1.0,phase_3,,,,,98.0,2.0,147.0,294.0,98.0,196.0,245.0,49.0,yellow,triangle
0.0,7.0,3.0,1.0,7.0,6.0,773.7113189996307,1.0,1.0,phase_3,,,,,156.0,4.0,234.0,78.0,39.0,195.0,117.0,156.0,cyan,square
0.0,3.0,3.0,0.0,7.0,5.0,1972.7667789993573,1.0,1.0,phase_3,,,,,270.0,5.0,324.0,108.0,54.0,162.0,270.0,216.0,orange,diamond
0.0,1.0,1.0,0.0,7.0,2.0,2105.6991280001967,1.0,1.0,phase_3,,,,,324.0,6.0,270.0,324.0,216.0,108.0,162.0,54.0,yellow,triangle
0.0,7.0,3.0,1.0,7.0,3.0,1174.2806149995886,1.0,1.0,phase_3,,,,,196.0,4.0,98.0,49.0,196.0,294.0,245.0,147.0,cyan,square
0.0,3.0,3.0,0.0,7.0,1.0,2272.6708879999933,1.0,1.0,phase_3,,,,,170.0,5.0,170.0,136.0,34.0,68.0,102.0,204.0,orange,diamond
0.0,3.0,3.0,0.0,7.0,6.0,1124.2398200001844,1.0,1.0,phase_3,,,,,147.0,3.0,49.0,196.0,294.0,245.0,98.0,147.0,orange,diamond
0.0,8.0,4.0,1.0,7.0,4.0,2148.8703240002,1.0,1.0,phase_3,,,,,294.0,6.0,98.0,147.0,196.0,294.0,49.0,245.0,blue,hexagon
0.0,2.0,2.0,0.0,7.0,1.0,1093.731676999596,1.0,1.0,phase_3,,,,,54.0,1.0,54.0,108.0,216.0,270.0,324.0,162.0,magenta,cross
0.0,4.0,4.0,0.0,7.0,6.0,1517.7272600003562,1.0,1.0,phase_3,,,,,132.0,3.0,176.0,220.0,264.0,88.0,44.0,132.0,green,flipped triangle
0.0,4.0,4.0,0.0,7.0,4.0,2191.424040000129,1.0,1.0,phase_3,,,,,216.0,4.0,270.0,324.0,162.0,216.0,108.0,54.0,green,flipped triangle
0.0,8.0,4.0,1.0,7.0,4.0,996.00938399999,2.0,1.0,phase_3,,,,,204.0,6.0,34.0,170.0,136.0,204.0,68.0,102.0,blue,hexagon
0.0,2.0,2.0,0.0,7.0,3.0,1566.7544759999146,2.0,1.0,phase_3,,,,,44.0,1.0,88.0,176.0,44.0,132.0,220.0,264.0,magenta,cross
0.0,4.0,4.0,0.0,7.0,6.0,908.4783899998,2.0,1.0,phase_3,,,,,170.0,5.0,204.0,34.0,102.0,136.0,68.0,170.0,green,flipped triangle
0.0,8.0,4.0,1.0,7.0,3.0,1169.966899999963,2.0,1.0,phase_3,,,,,204.0,6.0,34.0,102.0,204.0,136.0,170.0,68.0,blue,hexagon
0.0,2.0,2.0,0.0,7.0,1.0,1484.15615399972,2.0,1.0,phase_3,,,,,245.0,5.0,245.0,196.0,98.0,147.0,294.0,49.0,magenta,cross
0.0,5.0,1.0,1.0,7.0,5.0,1260.2904639998087,2.0,1.0,phase_3,,,,,196.0,4.0,98.0,245.0,294.0,49.0,196.0,147.0,gray,circle
0.0,3.0,3.0,0.0,7.0,5.0,1692.2394709999935,2.0,1.0,phase_3,,,,,170.0,5.0,136.0,68.0,34.0,102.0,170.0,204.0,orange,diamond
0.0,3.0,3.0,0.0,7.0,4.0,1239.4027869995623,2.0,1.0,phase_3,,,,,196.0,4.0,294.0,49.0,98.0,196.0,147.0,245.0,orange,diamond
0.0,1.0,1.0,0.0,7.0,3.0,933.2984479997322,2.0,1.0,phase_3,,,,,216.0,4.0,270.0,324.0,216.0,108.0,54.0,162.0,yellow,triangle
0.0,6.0,2.0,1.0,7.0,3.0,1670.4441729998507,2.0,1.0,phase_3,,,,,264.0,6.0,220.0,88.0,264.0,132.0,44.0,176.0,white,I
0.0,5.0,1.0,1.0,7.0,6.0,1638.3160400000634,2.0,1.0,phase_3,,,,,132.0,3.0,44.0,264.0,88.0,220.0,176.0,132.0,gray,circle
0.0,4.0,4.0,0.0,7.0,4.0,1734.8984899999778,2.0,1.0,phase_3,,,,,270.0,5.0,324.0,216.0,108.0,270.0,162.0,54.0,green,flipped triangle
0.0,7.0,3.0,1.0,7.0,3.0,1098.754661999919,2.0,1.0,phase_3,,,,,324.0,6.0,270.0,108.0,324.0,54.0,216.0,162.0,cyan,square
0.0,7.0,3.0,1.0,7.0,4.0,1737.9128640004635,2.0,1.0,phase_3,,,,,264.0,6.0,176.0,44.0,88.0,264.0,132.0,220.0,cyan,square
0.0,1.0,1.0,0.0,7.0,1.0,1203.7268450003469,2.0,1.0,phase_3,,,,,195.0,5.0,195.0,117.0,156.0,78.0,39.0,234.0,yellow,triangle
0.0,7.0,3.0,1.0,7.0,3.0,1345.579443000133,2.0,1.0,phase_3,,,,,245.0,5.0,196.0,49.0,245.0,294.0,98.0,147.0,cyan,square
0.0,1.0,1.0,0.0,7.0,4.0,1201.5584529999614,2.0,1.0,phase_3,,,,,204.0,6.0,136.0,102.0,170.0,204.0,68.0,34.0,yellow,triangle
0.0,2.0,2.0,0.0,7.0,2.0,1030.4429990001154,2.0,1.0,phase_3,,,,,102.0,3.0,68.0,102.0,136.0,34.0,170.0,204.0,magenta,cross
0.0,5.0,1.0,1.0,7.0,4.0,1784.3552790000103,2.0,1.0,phase_3,,,,,176.0,4.0,220.0,88.0,264.0,176.0,132.0,44.0,gray,circle
0.0,6.0,2.0,1.0,7.0,4.0,2401.862305000577,2.0,1.0,phase_3,,,,,234.0,6.0,78.0,39.0,195.0,234.0,156.0,117.0,white,I
0.0,8.0,4.0,1.0,7.0,4.0,1175.0171700005012,3.0,1.0,phase_3,,,,,216.0,4.0,270.0,324.0,54.0,216.0,108.0,162.0,blue,hexagon
0.0,6.0,2.0,1.0,7.0,5.0,900.9515819998342,3.0,1.0,phase_3,,,,,156.0,4.0,39.0,78.0,117.0,234.0,156.0,195.0,white,I
0.0,6.0,2.0,1.0,7.0,2.0,1085.0995119999425,3.0,1.0,phase_3,,,,,245.0,5.0,294.0,245.0,98.0,196.0,147.0,49.0,white,I
0.0,8.0,4.0,1.0,7.0,6.0,1133.1602999998722,3.0,1.0,phase_3,,,,,264.0,6.0,132.0,88.0,176.0,220.0,44.0,264.0,blue,hexagon
0.0,1.0,1.0,0.0,7.0,2.0,1612.8157670000292,3.0,1.0,phase_3,,,,,245.0,5.0,294.0,245.0,147.0,196.0,49.0,98.0,yellow,triangle
0.0,8.0,4.0,1.0,7.0,5.0,975.5559599998378,3.0,1.0,phase_3,,,,,234.0,6.0,117.0,195.0,39.0,78.0,234.0,156.0,blue,hexagon
0.0,6.0,2.0,1.0,7.0,5.0,982.1268750001764,3.0,1.0,phase_3,,,,,196.0,4.0,147.0,49.0,98.0,294.0,196.0,245.0,white,I
0.0,1.0,1.0,0.0,7.0,1.0,1188.3403149995502,3.0,1.0,phase_3,,,,,204.0,6.0,204.0,136.0,102.0,68.0,34.0,170.0,yellow,triangle
0.0,2.0,2.0,0.0,7.0,2.0,1112.5358400004188,3.0,1.0,phase_3,,,,,204.0,6.0,68.0,204.0,102.0,34.0,170.0,136.0,magenta,cross
0.0,3.0,3.0,0.0,7.0,3.0,1235.5512290005208,3.0,1.0,phase_3,,,,,216.0,4.0,54.0,162.0,216.0,270.0,324.0,108.0,orange,diamond
0.0,8.0,4.0,1.0,7.0,2.0,1627.446236000651,3.0,1.0,phase_3,,,,,234.0,6.0,39.0,234.0,195.0,156.0,117.0,78.0,blue,hexagon
0.0,4.0,4.0,0.0,7.0,4.0,1623.2888530003038,3.0,1.0,phase_3,,,,,264.0,6.0,132.0,176.0,44.0,264.0,88.0,220.0,green,flipped triangle
0.0,4.0,4.0,0.0,7.0,1.0,1442.892375000156,3.0,1.0,phase_3,,,,,245.0,5.0,245.0,98.0,196.0,49.0,294.0,147.0,green,flipped triangle
0.0,7.0,3.0,1.0,7.0,5.0,906.9835199998124,3.0,1.0,phase_3,,,,,170.0,5.0,136.0,34.0,68.0,204.0,170.0,102.0,cyan,square
0.0,3.0,3.0,0.0,7.0,5.0,936.1132620006174,3.0,1.0,phase_3,,,,,195.0,5.0,117.0,156.0,39.0,234.0,195.0,78.0,orange,diamond
0.0,8.0,4.0,1.0,7.0,4.0,1602.1118609996847,3.0,1.0,phase_3,,,,,132.0,3.0,264.0,220.0,176.0,132.0,88.0,44.0,blue,hexagon
0.0,2.0,2.0,0.0,7.0,6.0,631.4713399997345,3.0,1.0,phase_3,,,,,39.0,1.0,234.0,195.0,78.0,156.0,117.0,39.0,magenta,cross
0.0,1.0,1.0,0.0,7.0,4.0,1390.6895340005576,3.0,1.0,phase_3,,,,,44.0,1.0,88.0,220.0,264.0,44.0,132.0,176.0,yellow,triangle
0.0,3.0,3.0,0.0,7.0,2.0,961.2013910000314,3.0,1.0,phase_3,,,,,220.0,5.0,264.0,220.0,132.0,176.0,88.0,44.0,orange,diamond
0.0,3.0,3.0,0.0,7.0,5.0,833.9214039997387,3.0,1.0,phase_3,,,,,156.0,4.0,39.0,195.0,117.0,234.0,156.0,78.0,orange,diamond
0.0,5.0,1.0,1.0,7.0,3.0,927.4938210000984,4.0,1.0,phase_3,,,,,245.0,5.0,49.0,147.0,245.0,196.0,98.0,294.0,gray,circle
0.0,8.0,4.0,1.0,7.0,4.0,1047.0802780000668,4.0,1.0,phase_3,,,,,196.0,4.0,98.0,147.0,294.0,196.0,49.0,245.0,blue,hexagon
0.0,2.0,2.0,0.0,7.0,6.0,1124.7872599997208,4.0,1.0,phase_3,,,,,270.0,5.0,216.0,324.0,54.0,108.0,162.0,270.0,magenta,cross
0.0,6.0,2.0,1.0,7.0,5.0,866.5732629997365,4.0,1.0,phase_3,,,,,170.0,5.0,136.0,34.0,102.0,68.0,170.0,204.0,white,I
0.0,4.0,4.0,0.0,7.0,6.0,1071.9269379997058,4.0,1.0,phase_3,,,,,204.0,6.0,170.0,68.0,136.0,102.0,34.0,204.0,green,flipped triangle
0.0,5.0,1.0,1.0,7.0,6.0,1725.5135450004673,4.0,1.0,phase_3,,,,,39.0,1.0,195.0,78.0,156.0,117.0,234.0,39.0,gray,circle
0.0,7.0,3.0,1.0,7.0,5.0,1172.7903339997283,4.0,1.0,phase_3,,,,,264.0,6.0,176.0,88.0,44.0,132.0,264.0,220.0,cyan,square
0.0,5.0,1.0,1.0,7.0,5.0,983.0121999993936,4.0,1.0,phase_3,,,,,324.0,6.0,270.0,108.0,216.0,54.0,324.0,162.0,gray,circle
0.0,5.0,1.0,1.0,7.0,5.0,1118.0562170002304,4.0,1.0,phase_3,,,,,162.0,3.0,270.0,324.0,54.0,108.0,162.0,216.0,gray,circle
0.0,7.0,3.0,1.0,7.0,3.0,1320.3961079998408,4.0,1.0,phase_3,,,,,270.0,5.0,162.0,324.0,270.0,108.0,216.0,54.0,cyan,square
0.0,2.0,2.0,0.0,7.0,2.0,1641.8445790004623,4.0,1.0,phase_3,,,,,49.0,1.0,294.0,49.0,98.0,245.0,196.0,147.0,magenta,cross
0.0,1.0,1.0,0.0,7.0,4.0,1195.1743429999624,4.0,1.0,phase_3,,,,,176.0,4.0,264.0,88.0,44.0,176.0,220.0,132.0,yellow,triangle
0.0,6.0,2.0,1.0,7.0,3.0,1209.4302209998204,4.0,1.0,phase_3,,,,,216.0,4.0,324.0,162.0,216.0,270.0,54.0,108.0,white,I
0.0,2.0,2.0,0.0,7.0,1.0,1107.799039999918,4.0,1.0,phase_3,,,,,78.0,2.0,78.0,195.0,234.0,39.0,117.0,156.0,magenta,cross
0.0,5.0,1.0,1.0,7.0,3.0,2036.6004339994106,4.0,1.0,phase_3,,,,,39.0,1.0,78.0,234.0,39.0,156.0,117.0,195.0,gray,circle
0.0,4.0,4.0,0.0,7.0,2.0,2016.8836490001918,4.0,1.0,phase_3,,,,,195.0,5.0,78.0,195.0,156.0,234.0,39.0,117.0,green,flipped triangle
0.0,6.0,2.0,1.0,7.0,5.0,1323.922429999584,4.0,1.0,phase_3,,,,,270.0,5.0,54.0,162.0,216.0,324.0,270.0,108.0,white,I
0.0,3.0,3.0,0.0,7.0,4.0,1333.843966999666,4.0,1.0,phase_3,,,,,220.0,5.0,88.0,264.0,44.0,220.0,132.0,176.0,orange,diamond
0.0,5.0,1.0,1.0,7.0,1.0,1195.449273000122,4.0,1.0,phase_3,,,,,68.0,2.0,68.0,204.0,170.0,136.0,102.0,34.0,gray,circle
0.0,4.0,4.0,0.0,7.0,2.0,1542.4690869995177,4.0,1.0,phase_3,,,,,39.0,1.0,78.0,39.0,117.0,195.0,156.0,234.0,green,flipped triangle
