raw_reward_magnitude,stim_reward,stepwise_reward_magnitude,paired_with_stopping,stim_location,response,reaction_time,block,num_trial_presentations,which_phase,stop_signal_trial_type,left_SSD,right_SSD,accuracy,chosen_bidding_amount,chosen_bidding_level,possible_bid_1,possible_bid_2,possible_bid_3,possible_bid_4,possible_bid_5,possible_bid_6,color_text,shape_text
195.0,3.0,3.0,0.0,1.0,1.0,275.0172359999396,1.0,1.0,phase_1,,,,,,,,,,,,,gray,hexagon
0.0,5.0,0.0,1.0,2.0,2.0,314.8447359999409,1.0,1.0,phase_1,,,,,,,,,,,,,yellow,triangle
207.0,7.0,3.0,1.0,4.0,4.0,240.0964170001316,1.0,1.0,phase_1,,,,,,,,,,,,,green,square
178.0,7.0,3.0,1.0,4.0,4.0,292.4509139998008,1.0,1.0,phase_1,,,,,,,,,,,,,green,square
0.0,4.0,0.0,0.0,3.0,3.0,262.7651619998232,1.0,1.0,phase_1,,,,,,,,,,,,,blue,circle
411.0,4.0,4.0,0.0,2.0,2.0,249.9277719998645,1.0,1.0,phase_1,,,,,,,,,,,,,blue,circle
178.0,3.0,3.0,0.0,3.0,3.0,307.431021000184,1.0,1.0,phase_1,,,,,,,,,,,,,gray,hexagon
39.0,5.0,1.0,1.0,3.0,3.0,290.0098659999912,1.0,1.0,phase_1,,,,,,,,,,,,,yellow,triangle
191.0,7.0,3.0,1.0,1.0,1.0,250.354543999947,1.0,1.0,phase_1,,,,,,,,,,,,,green,square
390.0,8.0,4.0,1.0,3.0,3.0,257.5041630000214,1.0,1.0,phase_1,,,,,,,,,,,,,magenta,cross
57.0,5.0,1.0,1.0,3.0,3.0,264.5877449999716,1.0,1.0,phase_1,,,,,,,,,,,,,yellow,triangle
183.0,3.0,3.0,0.0,2.0,2.0,278.288282999938,1.0,1.0,phase_1,,,,,,,,,,,,,gray,hexagon
0.0,3.0,0.0,0.0,1.0,1.0,274.0527179998935,1.0,1.0,phase_1,,,,,,,,,,,,,gray,hexagon
390.0,4.0,4.0,0.0,3.0,3.0,264.844334999907,1.0,1.0,phase_1,,,,,,,,,,,,,blue,circle
224.0,3.0,3.0,0.0,1.0,1.0,289.3483419998119,1.0,1.0,phase_1,,,,,,,,,,,,,gray,hexagon
409.0,4.0,4.0,0.0,3.0,3.0,305.260619000137,1.0,1.0,phase_1,,,,,,,,,,,,,blue,circle
211.0,3.0,3.0,0.0,2.0,2.0,249.8832050000601,1.0,1.0,phase_1,,,,,,,,,,,,,gray,hexagon
51.0,1.0,1.0,0.0,1.0,1.0,366.3462090000848,1.0,1.0,phase_1,,,,,,,,,,,,,orange,I
390.0,8.0,4.0,1.0,3.0,3.0,266.2542240000221,1.0,1.0,phase_1,,,,,,,,,,,,,magenta,cross
192.0,3.0,3.0,0.0,4.0,4.0,304.8406079999495,1.0,1.0,phase_1,,,,,,,,,,,,,gray,hexagon
60.0,1.0,1.0,0.0,4.0,4.0,382.132361999993,1.0,1.0,phase_1,,,,,,,,,,,,,orange,I
77.0,2.0,2.0,0.0,2.0,2.0,244.1616019998491,1.0,1.0,phase_1,,,,,,,,,,,,,white,diamond
0.0,3.0,0.0,0.0,3.0,3.0,273.8706229999934,1.0,1.0,phase_1,,,,,,,,,,,,,gray,hexagon
36.0,5.0,1.0,1.0,3.0,3.0,325.3192500001205,1.0,1.0,phase_1,,,,,,,,,,,,,yellow,triangle
0.0,2.0,0.0,0.0,4.0,4.0,328.7149349998799,1.0,1.0,phase_1,,,,,,,,,,,,,white,diamond
112.0,6.0,2.0,1.0,1.0,1.0,279.4553250000717,1.0,1.0,phase_1,,,,,,,,,,,,,cyan,flipped triangle
122.0,6.0,2.0,1.0,2.0,2.0,284.8280729999715,1.0,1.0,phase_1,,,,,,,,,,,,,cyan,flipped triangle
47.0,5.0,1.0,1.0,4.0,4.0,317.0339580001382,1.0,1.0,phase_1,,,,,,,,,,,,,yellow,triangle
48.0,1.0,1.0,0.0,2.0,2.0,264.252918000011,1.0,1.0,phase_1,,,,,,,,,,,,,orange,I
75.0,2.0,2.0,0.0,3.0,3.0,303.6399630000232,1.0,1.0,phase_1,,,,,,,,,,,,,white,diamond
115.0,2.0,2.0,0.0,2.0,2.0,287.5716779999493,1.0,1.0,phase_1,,,,,,,,,,,,,white,diamond
44.0,5.0,1.0,1.0,3.0,3.0,278.2016860001022,1.0,1.0,phase_1,,,,,,,,,,,,,yellow,triangle
0.0,1.0,0.0,0.0,4.0,4.0,297.0690390000072,1.0,1.0,phase_1,,,,,,,,,,,,,orange,I
26.0,1.0,1.0,0.0,4.0,4.0,327.4855939998815,1.0,1.0,phase_1,,,,,,,,,,,,,orange,I
105.0,2.0,2.0,0.0,2.0,2.0,263.8946299998679,1.0,1.0,phase_1,,,,,,,,,,,,,white,diamond
28.0,1.0,1.0,0.0,3.0,3.0,253.9098889999422,1.0,1.0,phase_1,,,,,,,,,,,,,orange,I
77.0,2.0,2.0,0.0,4.0,4.0,228.369640999972,1.0,1.0,phase_1,,,,,,,,,,,,,white,diamond
107.0,6.0,2.0,1.0,2.0,2.0,237.3673980000603,1.0,1.0,phase_1,,,,,,,,,,,,,cyan,flipped triangle
38.0,1.0,1.0,0.0,4.0,4.0,257.5100679998741,1.0,1.0,phase_1,,,,,,,,,,,,,orange,I
419.0,8.0,4.0,1.0,4.0,4.0,285.2206400000341,1.0,1.0,phase_1,,,,,,,,,,,,,magenta,cross
111.0,2.0,2.0,0.0,4.0,4.0,227.5296949999301,1.0,1.0,phase_1,,,,,,,,,,,,,white,diamond
204.0,3.0,3.0,0.0,1.0,1.0,353.0724180000106,1.0,1.0,phase_1,,,,,,,,,,,,,gray,hexagon
0.0,7.0,0.0,1.0,3.0,3.0,271.9361119998211,1.0,1.0,phase_1,,,,,,,,,,,,,green,square
195.0,3.0,3.0,0.0,4.0,4.0,254.09382000020742,1.0,1.0,phase_1,,,,,,,,,,,,,gray,hexagon
424.0,4.0,4.0,0.0,4.0,4.0,267.7909779999936,1.0,1.0,phase_1,,,,,,,,,,,,,blue,circle
105.0,6.0,2.0,1.0,2.0,2.0,257.3537920000035,1.0,1.0,phase_1,,,,,,,,,,,,,cyan,flipped triangle
0.0,8.0,0.0,1.0,2.0,2.0,281.6255069999442,1.0,1.0,phase_1,,,,,,,,,,,,,magenta,cross
69.0,5.0,1.0,1.0,3.0,3.0,243.5393989999283,1.0,1.0,phase_1,,,,,,,,,,,,,yellow,triangle
0.0,4.0,0.0,0.0,1.0,1.0,240.3653660001055,1.0,1.0,phase_1,,,,,,,,,,,,,blue,circle
420.0,8.0,4.0,1.0,4.0,4.0,232.7774760001375,1.0,1.0,phase_1,,,,,,,,,,,,,magenta,cross
183.0,7.0,3.0,1.0,3.0,3.0,292.018162000204,1.0,2.0,phase_1,,,,,,,,,,,,,green,square
47.0,1.0,1.0,0.0,2.0,2.0,274.8829709998972,1.0,1.0,phase_1,,,,,,,,,,,,,orange,I
209.0,3.0,3.0,0.0,4.0,4.0,229.094681000106,1.0,1.0,phase_1,,,,,,,,,,,,,gray,hexagon
103.0,2.0,2.0,0.0,1.0,1.0,302.0810579998851,1.0,1.0,phase_1,,,,,,,,,,,,,white,diamond
68.0,5.0,1.0,1.0,4.0,4.0,261.9619009999496,1.0,1.0,phase_1,,,,,,,,,,,,,yellow,triangle
395.0,8.0,4.0,1.0,1.0,1.0,259.0827809999609,1.0,1.0,phase_1,,,,,,,,,,,,,magenta,cross
76.0,2.0,2.0,0.0,3.0,3.0,270.3453320000335,1.0,1.0,phase_1,,,,,,,,,,,,,white,diamond
386.0,4.0,4.0,0.0,1.0,1.0,259.0021969999725,1.0,1.0,phase_1,,,,,,,,,,,,,blue,circle
88.0,6.0,2.0,1.0,3.0,3.0,273.4042780000436,1.0,1.0,phase_1,,,,,,,,,,,,,cyan,flipped triangle
0.0,2.0,0.0,0.0,3.0,3.0,253.73387799982078,1.0,1.0,phase_1,,,,,,,,,,,,,white,diamond
116.0,2.0,2.0,0.0,4.0,4.0,304.1444010000305,1.0,1.0,phase_1,,,,,,,,,,,,,white,diamond
74.0,5.0,1.0,1.0,1.0,1.0,268.3361649999369,1.0,1.0,phase_1,,,,,,,,,,,,,yellow,triangle
111.0,6.0,2.0,1.0,3.0,3.0,266.0191159998248,1.0,1.0,phase_1,,,,,,,,,,,,,cyan,flipped triangle
194.0,3.0,3.0,0.0,4.0,4.0,266.7587050000293,1.0,1.0,phase_1,,,,,,,,,,,,,gray,hexagon
68.0,1.0,1.0,0.0,2.0,2.0,257.5108870000804,1.0,1.0,phase_1,,,,,,,,,,,,,orange,I
409.0,4.0,4.0,0.0,2.0,2.0,309.8032340001282,1.0,1.0,phase_1,,,,,,,,,,,,,blue,circle
31.0,5.0,1.0,1.0,1.0,1.0,351.4161429998239,1.0,2.0,phase_1,,,,,,,,,,,,,yellow,triangle
400.0,8.0,4.0,1.0,2.0,2.0,296.2922950000575,1.0,1.0,phase_1,,,,,,,,,,,,,magenta,cross
36.0,1.0,1.0,0.0,2.0,2.0,273.9319920001435,1.0,1.0,phase_1,,,,,,,,,,,,,orange,I
199.0,3.0,3.0,0.0,3.0,3.0,280.9521780000068,1.0,1.0,phase_1,,,,,,,,,,,,,gray,hexagon
70.0,5.0,1.0,1.0,2.0,2.0,259.5957080000062,1.0,1.0,phase_1,,,,,,,,,,,,,yellow,triangle
211.0,7.0,3.0,1.0,2.0,2.0,245.3150240000923,1.0,1.0,phase_1,,,,,,,,,,,,,green,square
203.0,3.0,3.0,0.0,4.0,4.0,309.2573720000473,1.0,1.0,phase_1,,,,,,,,,,,,,gray,hexagon
0.0,7.0,0.0,1.0,1.0,1.0,239.4169849999343,1.0,1.0,phase_1,,,,,,,,,,,,,green,square
0.0,5.0,0.0,1.0,1.0,1.0,286.3155020002068,1.0,1.0,phase_1,,,,,,,,,,,,,yellow,triangle
107.0,2.0,2.0,0.0,2.0,2.0,219.2643270000189,1.0,1.0,phase_1,,,,,,,,,,,,,white,diamond
36.0,5.0,1.0,1.0,4.0,4.0,258.1986820000566,1.0,1.0,phase_1,,,,,,,,,,,,,yellow,triangle
0.0,8.0,0.0,1.0,2.0,2.0,200.2639870001985,1.0,1.0,phase_1,,,,,,,,,,,,,magenta,cross
0.0,4.0,0.0,0.0,4.0,4.0,235.745081999994,1.0,1.0,phase_1,,,,,,,,,,,,,blue,circle
0.0,8.0,0.0,1.0,1.0,1.0,266.2503840001591,1.0,1.0,phase_1,,,,,,,,,,,,,magenta,cross
0.0,4.0,0.0,0.0,3.0,3.0,277.4510009999176,1.0,1.0,phase_1,,,,,,,,,,,,,blue,circle
100.0,2.0,2.0,0.0,3.0,3.0,315.2377829999295,1.0,1.0,phase_1,,,,,,,,,,,,,white,diamond
0.0,1.0,0.0,0.0,3.0,3.0,292.8306200001316,1.0,1.0,phase_1,,,,,,,,,,,,,orange,I
416.0,4.0,4.0,0.0,2.0,2.0,277.7093789998162,1.0,1.0,phase_1,,,,,,,,,,,,,blue,circle
194.0,7.0,3.0,1.0,3.0,3.0,284.1019600000436,1.0,1.0,phase_1,,,,,,,,,,,,,green,square
70.0,5.0,1.0,1.0,3.0,3.0,308.379129000059,1.0,1.0,phase_1,,,,,,,,,,,,,yellow,triangle
44.0,1.0,1.0,0.0,2.0,2.0,278.3485439999822,1.0,1.0,phase_1,,,,,,,,,,,,,orange,I
28.0,5.0,1.0,1.0,1.0,1.0,283.0558030000247,1.0,1.0,phase_1,,,,,,,,,,,,,yellow,triangle
79.0,2.0,2.0,0.0,1.0,1.0,297.9785140000786,1.0,1.0,phase_1,,,,,,,,,,,,,white,diamond
406.0,8.0,4.0,1.0,1.0,1.0,277.6903080000465,1.0,1.0,phase_1,,,,,,,,,,,,,magenta,cross
378.0,8.0,4.0,1.0,1.0,1.0,238.7180529999568,1.0,1.0,phase_1,,,,,,,,,,,,,magenta,cross
222.0,3.0,3.0,0.0,3.0,3.0,330.9881129998757,1.0,1.0,phase_1,,,,,,,,,,,,,gray,hexagon
116.0,6.0,2.0,1.0,2.0,2.0,305.5414689999907,1.0,1.0,phase_1,,,,,,,,,,,,,cyan,flipped triangle
108.0,2.0,2.0,0.0,1.0,1.0,305.3257959998063,1.0,1.0,phase_1,,,,,,,,,,,,,white,diamond
0.0,1.0,0.0,0.0,4.0,4.0,308.2215049998922,1.0,1.0,phase_1,,,,,,,,,,,,,orange,I
381.0,4.0,4.0,0.0,1.0,1.0,275.6669740001598,1.0,1.0,phase_1,,,,,,,,,,,,,blue,circle
0.0,7.0,0.0,1.0,3.0,3.0,287.1266739998646,1.0,1.0,phase_1,,,,,,,,,,,,,green,square
54.0,1.0,1.0,0.0,4.0,4.0,288.9052240000183,1.0,1.0,phase_1,,,,,,,,,,,,,orange,I
198.0,3.0,3.0,0.0,1.0,1.0,273.1914269998015,1.0,1.0,phase_1,,,,,,,,,,,,,gray,hexagon
423.0,4.0,4.0,0.0,3.0,3.0,240.5131569998957,1.0,1.0,phase_1,,,,,,,,,,,,,blue,circle
0.0,5.0,0.0,1.0,2.0,2.0,303.2006710000132,2.0,1.0,phase_1,,,,,,,,,,,,,yellow,triangle
0.0,8.0,0.0,1.0,2.0,2.0,262.627435000013,2.0,1.0,phase_1,,,,,,,,,,,,,magenta,cross
177.0,7.0,3.0,1.0,4.0,4.0,282.031710999945,2.0,1.0,phase_1,,,,,,,,,,,,,green,square
386.0,8.0,4.0,1.0,4.0,4.0,287.3130850000507,2.0,1.0,phase_1,,,,,,,,,,,,,magenta,cross
47.0,1.0,1.0,0.0,2.0,2.0,250.290226000061,2.0,1.0,phase_1,,,,,,,,,,,,,orange,I
115.0,6.0,2.0,1.0,4.0,4.0,261.3028089999716,2.0,1.0,phase_1,,,,,,,,,,,,,cyan,flipped triangle
81.0,6.0,2.0,1.0,4.0,4.0,298.0682620000152,2.0,1.0,phase_1,,,,,,,,,,,,,cyan,flipped triangle
421.0,8.0,4.0,1.0,1.0,1.0,253.364910999835,2.0,1.0,phase_1,,,,,,,,,,,,,magenta,cross
34.0,1.0,1.0,0.0,3.0,3.0,278.692226999965,2.0,1.0,phase_1,,,,,,,,,,,,,orange,I
49.0,1.0,1.0,0.0,1.0,1.0,271.1645309998403,2.0,1.0,phase_1,,,,,,,,,,,,,orange,I
400.0,8.0,4.0,1.0,1.0,1.0,256.4214880001145,2.0,1.0,phase_1,,,,,,,,,,,,,magenta,cross
215.0,7.0,3.0,1.0,4.0,4.0,273.7376529998983,2.0,1.0,phase_1,,,,,,,,,,,,,green,square
38.0,5.0,1.0,1.0,2.0,2.0,276.9554389999484,2.0,1.0,phase_1,,,,,,,,,,,,,yellow,triangle
34.0,5.0,1.0,1.0,3.0,3.0,299.6799449999798,2.0,1.0,phase_1,,,,,,,,,,,,,yellow,triangle
184.0,7.0,3.0,1.0,3.0,3.0,295.3424019999602,2.0,1.0,phase_1,,,,,,,,,,,,,green,square
122.0,2.0,2.0,0.0,3.0,3.0,289.6391310000581,2.0,1.0,phase_1,,,,,,,,,,,,,white,diamond
396.0,4.0,4.0,0.0,1.0,1.0,263.805684999852,2.0,1.0,phase_1,,,,,,,,,,,,,blue,circle
70.0,1.0,1.0,0.0,4.0,4.0,330.5926900000031,2.0,1.0,phase_1,,,,,,,,,,,,,orange,I
83.0,2.0,2.0,0.0,1.0,1.0,280.3966820001733,2.0,1.0,phase_1,,,,,,,,,,,,,white,diamond
207.0,3.0,3.0,0.0,2.0,2.0,294.2293339999651,2.0,1.0,phase_1,,,,,,,,,,,,,gray,hexagon
28.0,5.0,1.0,1.0,2.0,2.0,276.5023399999791,2.0,1.0,phase_1,,,,,,,,,,,,,yellow,triangle
211.0,7.0,3.0,1.0,1.0,1.0,324.5977010001297,2.0,2.0,phase_1,,,,,,,,,,,,,green,square
79.0,6.0,2.0,1.0,3.0,3.0,314.3371930000285,2.0,1.0,phase_1,,,,,,,,,,,,,cyan,flipped triangle
389.0,4.0,4.0,0.0,2.0,2.0,252.2211359998891,2.0,1.0,phase_1,,,,,,,,,,,,,blue,circle
407.0,8.0,4.0,1.0,4.0,4.0,267.0838980000098,2.0,1.0,phase_1,,,,,,,,,,,,,magenta,cross
407.0,4.0,4.0,0.0,4.0,4.0,278.1015710002066,2.0,1.0,phase_1,,,,,,,,,,,,,blue,circle
376.0,4.0,4.0,0.0,3.0,3.0,277.0926489999965,2.0,1.0,phase_1,,,,,,,,,,,,,blue,circle
47.0,5.0,1.0,1.0,3.0,3.0,313.743605999889,2.0,1.0,phase_1,,,,,,,,,,,,,yellow,triangle
120.0,2.0,2.0,0.0,4.0,4.0,243.377005999946,2.0,1.0,phase_1,,,,,,,,,,,,,white,diamond
26.0,1.0,1.0,0.0,2.0,2.0,265.5612819999078,2.0,1.0,phase_1,,,,,,,,,,,,,orange,I
53.0,1.0,1.0,0.0,3.0,3.0,283.3403360000375,2.0,1.0,phase_1,,,,,,,,,,,,,orange,I
0.0,1.0,0.0,0.0,1.0,1.0,271.388313999978,2.0,1.0,phase_1,,,,,,,,,,,,,orange,I
381.0,8.0,4.0,1.0,3.0,3.0,295.7895859999553,2.0,1.0,phase_1,,,,,,,,,,,,,magenta,cross
206.0,3.0,3.0,0.0,2.0,2.0,271.4264260000618,2.0,1.0,phase_1,,,,,,,,,,,,,gray,hexagon
395.0,4.0,4.0,0.0,1.0,1.0,267.5129770000239,2.0,1.0,phase_1,,,,,,,,,,,,,blue,circle
77.0,6.0,2.0,1.0,2.0,2.0,265.216098999872,2.0,1.0,phase_1,,,,,,,,,,,,,cyan,flipped triangle
403.0,8.0,4.0,1.0,1.0,1.0,261.0325040000134,2.0,1.0,phase_1,,,,,,,,,,,,,magenta,cross
49.0,5.0,1.0,1.0,4.0,4.0,279.6924120000312,2.0,1.0,phase_1,,,,,,,,,,,,,yellow,triangle
0.0,8.0,0.0,1.0,1.0,1.0,281.462896999983,2.0,1.0,phase_1,,,,,,,,,,,,,magenta,cross
119.0,6.0,2.0,1.0,3.0,3.0,280.7625809998626,2.0,1.0,phase_1,,,,,,,,,,,,,cyan,flipped triangle
0.0,6.0,0.0,1.0,3.0,3.0,256.6469579999193,2.0,1.0,phase_1,,,,,,,,,,,,,cyan,flipped triangle
221.0,3.0,3.0,0.0,2.0,2.0,277.3056640000959,2.0,1.0,phase_1,,,,,,,,,,,,,gray,hexagon
387.0,8.0,4.0,1.0,3.0,3.0,308.2815259999734,2.0,1.0,phase_1,,,,,,,,,,,,,magenta,cross
199.0,7.0,3.0,1.0,2.0,2.0,264.6637059999648,2.0,1.0,phase_1,,,,,,,,,,,,,green,square
209.0,7.0,3.0,1.0,2.0,2.0,267.1989069999654,2.0,1.0,phase_1,,,,,,,,,,,,,green,square
39.0,1.0,1.0,0.0,1.0,1.0,284.9894850000964,2.0,1.0,phase_1,,,,,,,,,,,,,orange,I
60.0,5.0,1.0,1.0,1.0,1.0,260.5477680001513,2.0,1.0,phase_1,,,,,,,,,,,,,yellow,triangle
30.0,1.0,1.0,0.0,1.0,1.0,231.813387999864,2.0,1.0,phase_1,,,,,,,,,,,,,orange,I
396.0,8.0,4.0,1.0,1.0,1.0,259.0003819998401,2.0,1.0,phase_1,,,,,,,,,,,,,magenta,cross
0.0,4.0,0.0,0.0,2.0,2.0,267.88259299996747,2.0,1.0,phase_1,,,,,,,,,,,,,blue,circle
212.0,7.0,3.0,1.0,3.0,3.0,303.229778000059,2.0,1.0,phase_1,,,,,,,,,,,,,green,square
0.0,7.0,0.0,1.0,1.0,1.0,273.3137580000857,2.0,1.0,phase_1,,,,,,,,,,,,,green,square
386.0,8.0,4.0,1.0,1.0,1.0,247.1783860000869,2.0,1.0,phase_1,,,,,,,,,,,,,magenta,cross
0.0,6.0,0.0,1.0,2.0,2.0,254.93491599991103,2.0,1.0,phase_1,,,,,,,,,,,,,cyan,flipped triangle
103.0,6.0,2.0,1.0,3.0,3.0,301.3646470001276,2.0,1.0,phase_1,,,,,,,,,,,,,cyan,flipped triangle
200.0,3.0,3.0,0.0,3.0,3.0,320.9589099999448,2.0,1.0,phase_1,,,,,,,,,,,,,gray,hexagon
102.0,2.0,2.0,0.0,2.0,2.0,279.59212199994,2.0,1.0,phase_1,,,,,,,,,,,,,white,diamond
177.0,3.0,3.0,0.0,1.0,1.0,257.6544190001186,2.0,1.0,phase_1,,,,,,,,,,,,,gray,hexagon
424.0,8.0,4.0,1.0,2.0,2.0,241.3148379998801,2.0,1.0,phase_1,,,,,,,,,,,,,magenta,cross
409.0,8.0,4.0,1.0,2.0,2.0,286.8527670000276,2.0,1.0,phase_1,,,,,,,,,,,,,magenta,cross
57.0,1.0,1.0,0.0,3.0,3.0,301.7738109999754,2.0,1.0,phase_1,,,,,,,,,,,,,orange,I
200.0,7.0,3.0,1.0,2.0,2.0,245.39822999986418,2.0,1.0,phase_1,,,,,,,,,,,,,green,square
0.0,2.0,0.0,0.0,2.0,2.0,281.4217459999781,2.0,1.0,phase_1,,,,,,,,,,,,,white,diamond
79.0,6.0,2.0,1.0,1.0,1.0,289.8089289999461,2.0,1.0,phase_1,,,,,,,,,,,,,cyan,flipped triangle
118.0,2.0,2.0,0.0,2.0,2.0,217.9386530001466,2.0,1.0,phase_1,,,,,,,,,,,,,white,diamond
378.0,4.0,4.0,0.0,4.0,4.0,284.1744329998619,2.0,1.0,phase_1,,,,,,,,,,,,,blue,circle
88.0,2.0,2.0,0.0,4.0,4.0,333.8423660002263,2.0,1.0,phase_1,,,,,,,,,,,,,white,diamond
0.0,1.0,0.0,0.0,3.0,3.0,281.2337929999557,2.0,1.0,phase_1,,,,,,,,,,,,,orange,I
377.0,4.0,4.0,0.0,1.0,1.0,274.1904320000685,2.0,1.0,phase_1,,,,,,,,,,,,,blue,circle
92.0,6.0,2.0,1.0,2.0,2.0,229.4530559997838,2.0,1.0,phase_1,,,,,,,,,,,,,cyan,flipped triangle
125.0,6.0,2.0,1.0,2.0,2.0,291.8004070002098,2.0,1.0,phase_1,,,,,,,,,,,,,cyan,flipped triangle
218.0,7.0,3.0,1.0,4.0,4.0,307.6058970000304,2.0,1.0,phase_1,,,,,,,,,,,,,green,square
36.0,1.0,1.0,0.0,4.0,4.0,298.3506939999643,2.0,1.0,phase_1,,,,,,,,,,,,,orange,I
101.0,2.0,2.0,0.0,2.0,2.0,221.1810419998983,2.0,1.0,phase_1,,,,,,,,,,,,,white,diamond
0.0,5.0,0.0,1.0,1.0,1.0,223.9914889996725,2.0,1.0,phase_1,,,,,,,,,,,,,yellow,triangle
395.0,8.0,4.0,1.0,4.0,4.0,309.0218529996491,2.0,1.0,phase_1,,,,,,,,,,,,,magenta,cross
215.0,3.0,3.0,0.0,3.0,3.0,376.4613899998039,2.0,1.0,phase_1,,,,,,,,,,,,,gray,hexagon
392.0,8.0,4.0,1.0,2.0,2.0,218.40340600010668,2.0,1.0,phase_1,,,,,,,,,,,,,magenta,cross
0.0,6.0,0.0,1.0,3.0,3.0,279.3193000002247,2.0,1.0,phase_1,,,,,,,,,,,,,cyan,flipped triangle
88.0,6.0,2.0,1.0,2.0,2.0,241.2550889998783,2.0,1.0,phase_1,,,,,,,,,,,,,cyan,flipped triangle
378.0,8.0,4.0,1.0,3.0,3.0,307.8385939998043,2.0,1.0,phase_1,,,,,,,,,,,,,magenta,cross
70.0,1.0,1.0,0.0,2.0,2.0,249.1020429997661,2.0,1.0,phase_1,,,,,,,,,,,,,orange,I
389.0,8.0,4.0,1.0,3.0,3.0,287.3689480002213,2.0,1.0,phase_1,,,,,,,,,,,,,magenta,cross
0.0,4.0,0.0,0.0,3.0,3.0,314.8090489999049,2.0,1.0,phase_1,,,,,,,,,,,,,blue,circle
390.0,4.0,4.0,0.0,2.0,2.0,245.0389849996099,2.0,1.0,phase_1,,,,,,,,,,,,,blue,circle
0.0,8.0,0.0,1.0,2.0,2.0,259.7246639998047,2.0,1.0,phase_1,,,,,,,,,,,,,magenta,cross
419.0,4.0,4.0,0.0,4.0,4.0,313.7558899998112,2.0,1.0,phase_1,,,,,,,,,,,,,blue,circle
51.0,5.0,1.0,1.0,4.0,4.0,295.2950650001185,2.0,1.0,phase_1,,,,,,,,,,,,,yellow,triangle
51.0,1.0,1.0,0.0,3.0,3.0,310.9128579999378,2.0,1.0,phase_1,,,,,,,,,,,,,orange,I
109.0,6.0,2.0,1.0,4.0,4.0,267.2008140002617,2.0,1.0,phase_1,,,,,,,,,,,,,cyan,flipped triangle
53.0,5.0,1.0,1.0,2.0,2.0,215.7850290000169,2.0,1.0,phase_1,,,,,,,,,,,,,yellow,triangle
204.0,7.0,3.0,1.0,4.0,4.0,240.4010190002736,2.0,1.0,phase_1,,,,,,,,,,,,,green,square
0.0,1.0,0.0,0.0,4.0,4.0,257.5879820001319,2.0,1.0,phase_1,,,,,,,,,,,,,orange,I
51.0,5.0,1.0,1.0,3.0,3.0,274.080290999791,2.0,1.0,phase_1,,,,,,,,,,,,,yellow,triangle
222.0,7.0,3.0,1.0,3.0,3.0,239.4386989999475,2.0,1.0,phase_1,,,,,,,,,,,,,green,square
97.0,2.0,2.0,0.0,3.0,3.0,283.4842190000017,2.0,1.0,phase_1,,,,,,,,,,,,,white,diamond
187.0,7.0,3.0,1.0,1.0,1.0,249.377712000296,2.0,1.0,phase_1,,,,,,,,,,,,,green,square
393.0,8.0,4.0,1.0,3.0,3.0,277.9825640000126,2.0,1.0,phase_1,,,,,,,,,,,,,magenta,cross
97.0,6.0,2.0,1.0,4.0,4.0,257.7326900000116,2.0,1.0,phase_1,,,,,,,,,,,,,cyan,flipped triangle
0.0,2.0,0.0,0.0,1.0,1.0,226.7208200000823,2.0,1.0,phase_1,,,,,,,,,,,,,white,diamond
223.0,7.0,3.0,1.0,3.0,3.0,408.6922530000265,3.0,1.0,phase_1,,,,,,,,,,,,,green,square
69.0,5.0,1.0,1.0,1.0,1.0,252.00561700012258,3.0,1.0,phase_1,,,,,,,,,,,,,yellow,triangle
0.0,5.0,0.0,1.0,1.0,1.0,246.3839930001086,3.0,1.0,phase_1,,,,,,,,,,,,,yellow,triangle
395.0,4.0,4.0,0.0,3.0,3.0,357.1989930001109,3.0,1.0,phase_1,,,,,,,,,,,,,blue,circle
385.0,4.0,4.0,0.0,1.0,1.0,283.4364899999855,3.0,1.0,phase_1,,,,,,,,,,,,,blue,circle
0.0,3.0,0.0,0.0,2.0,2.0,306.4070519999404,3.0,1.0,phase_1,,,,,,,,,,,,,gray,hexagon
419.0,8.0,4.0,1.0,3.0,3.0,294.5687199999156,3.0,1.0,phase_1,,,,,,,,,,,,,magenta,cross
59.0,1.0,1.0,0.0,4.0,4.0,402.6275510000232,3.0,1.0,phase_1,,,,,,,,,,,,,orange,I
44.0,5.0,1.0,1.0,2.0,2.0,275.3155559998959,3.0,1.0,phase_1,,,,,,,,,,,,,yellow,triangle
204.0,3.0,3.0,0.0,3.0,3.0,311.2354179997965,3.0,1.0,phase_1,,,,,,,,,,,,,gray,hexagon
57.0,5.0,1.0,1.0,1.0,1.0,232.4601569998776,3.0,1.0,phase_1,,,,,,,,,,,,,yellow,triangle
201.0,7.0,3.0,1.0,1.0,1.0,267.3419459997603,3.0,1.0,phase_1,,,,,,,,,,,,,green,square
421.0,4.0,4.0,0.0,2.0,2.0,269.4008779999421,3.0,1.0,phase_1,,,,,,,,,,,,,blue,circle
385.0,8.0,4.0,1.0,2.0,2.0,252.55150300017698,3.0,1.0,phase_1,,,,,,,,,,,,,magenta,cross
79.0,2.0,2.0,0.0,3.0,3.0,340.5505890000313,3.0,1.0,phase_1,,,,,,,,,,,,,white,diamond
101.0,6.0,2.0,1.0,1.0,1.0,287.3465450002186,3.0,1.0,phase_1,,,,,,,,,,,,,cyan,flipped triangle
0.0,2.0,0.0,0.0,2.0,2.0,220.299363000322,3.0,1.0,phase_1,,,,,,,,,,,,,white,diamond
35.0,5.0,1.0,1.0,4.0,4.0,262.1191060002275,3.0,1.0,phase_1,,,,,,,,,,,,,yellow,triangle
120.0,6.0,2.0,1.0,1.0,1.0,230.9207009998317,3.0,1.0,phase_1,,,,,,,,,,,,,cyan,flipped triangle
203.0,7.0,3.0,1.0,3.0,3.0,309.4052520000332,3.0,1.0,phase_1,,,,,,,,,,,,,green,square
0.0,7.0,0.0,1.0,4.0,4.0,316.5184069998759,3.0,2.0,phase_1,,,,,,,,,,,,,green,square
183.0,3.0,3.0,0.0,4.0,4.0,299.0063889997145,3.0,1.0,phase_1,,,,,,,,,,,,,gray,hexagon
63.0,1.0,1.0,0.0,4.0,4.0,324.7076980001111,3.0,1.0,phase_1,,,,,,,,,,,,,orange,I
0.0,6.0,0.0,1.0,2.0,2.0,318.9862790000006,3.0,1.0,phase_1,,,,,,,,,,,,,cyan,flipped triangle
111.0,6.0,2.0,1.0,4.0,4.0,252.98627800020768,3.0,1.0,phase_1,,,,,,,,,,,,,cyan,flipped triangle
224.0,7.0,3.0,1.0,3.0,3.0,282.4221260002559,3.0,1.0,phase_1,,,,,,,,,,,,,green,square
416.0,8.0,4.0,1.0,4.0,4.0,259.6973210002034,3.0,1.0,phase_1,,,,,,,,,,,,,magenta,cross
76.0,6.0,2.0,1.0,2.0,2.0,254.4231990000298,3.0,1.0,phase_1,,,,,,,,,,,,,cyan,flipped triangle
100.0,6.0,2.0,1.0,1.0,1.0,295.35183400003,3.0,1.0,phase_1,,,,,,,,,,,,,cyan,flipped triangle
0.0,3.0,0.0,0.0,3.0,3.0,327.4484389999088,3.0,1.0,phase_1,,,,,,,,,,,,,gray,hexagon
54.0,5.0,1.0,1.0,2.0,2.0,259.5613650000814,3.0,1.0,phase_1,,,,,,,,,,,,,yellow,triangle
175.0,7.0,3.0,1.0,1.0,1.0,309.8164900002302,3.0,1.0,phase_1,,,,,,,,,,,,,green,square
93.0,6.0,2.0,1.0,1.0,1.0,344.0396579999287,3.0,1.0,phase_1,,,,,,,,,,,,,cyan,flipped triangle
123.0,6.0,2.0,1.0,4.0,4.0,294.1811209998377,3.0,1.0,phase_1,,,,,,,,,,,,,cyan,flipped triangle
115.0,6.0,2.0,1.0,3.0,3.0,291.6057170000385,3.0,1.0,phase_1,,,,,,,,,,,,,cyan,flipped triangle
0.0,5.0,0.0,1.0,1.0,1.0,290.1969499998813,3.0,1.0,phase_1,,,,,,,,,,,,,yellow,triangle
0.0,4.0,0.0,0.0,1.0,1.0,278.2278810000207,3.0,1.0,phase_1,,,,,,,,,,,,,blue,circle
88.0,2.0,2.0,0.0,1.0,1.0,288.5781089999,3.0,1.0,phase_1,,,,,,,,,,,,,white,diamond
390.0,4.0,4.0,0.0,3.0,3.0,290.9369620001598,3.0,1.0,phase_1,,,,,,,,,,,,,blue,circle
62.0,1.0,1.0,0.0,1.0,1.0,272.6024140001755,3.0,1.0,phase_1,,,,,,,,,,,,,orange,I
192.0,7.0,3.0,1.0,2.0,2.0,292.6572049996139,3.0,1.0,phase_1,,,,,,,,,,,,,green,square
85.0,6.0,2.0,1.0,1.0,1.0,226.9288459997369,3.0,1.0,phase_1,,,,,,,,,,,,,cyan,flipped triangle
0.0,6.0,0.0,1.0,4.0,4.0,309.5563080000829,3.0,1.0,phase_1,,,,,,,,,,,,,cyan,flipped triangle
0.0,2.0,0.0,0.0,3.0,3.0,261.5224830001352,3.0,1.0,phase_1,,,,,,,,,,,,,white,diamond
377.0,8.0,4.0,1.0,3.0,3.0,298.4900609999386,3.0,1.0,phase_1,,,,,,,,,,,,,magenta,cross
74.0,1.0,1.0,0.0,2.0,2.0,261.9813460000841,3.0,1.0,phase_1,,,,,,,,,,,,,orange,I
403.0,4.0,4.0,0.0,2.0,2.0,305.2244279997467,3.0,1.0,phase_1,,,,,,,,,,,,,blue,circle
28.0,1.0,1.0,0.0,1.0,1.0,280.1591420002296,3.0,1.0,phase_1,,,,,,,,,,,,,orange,I
382.0,8.0,4.0,1.0,2.0,2.0,239.5827819996157,3.0,1.0,phase_1,,,,,,,,,,,,,magenta,cross
83.0,6.0,2.0,1.0,3.0,3.0,290.3611840001758,3.0,1.0,phase_1,,,,,,,,,,,,,cyan,flipped triangle
119.0,2.0,2.0,0.0,3.0,3.0,288.2613750002747,3.0,1.0,phase_1,,,,,,,,,,,,,white,diamond
75.0,6.0,2.0,1.0,4.0,4.0,283.6815969999406,3.0,1.0,phase_1,,,,,,,,,,,,,cyan,flipped triangle
195.0,3.0,3.0,0.0,1.0,1.0,275.5112340000778,3.0,1.0,phase_1,,,,,,,,,,,,,gray,hexagon
420.0,4.0,4.0,0.0,1.0,1.0,305.9382759997788,3.0,1.0,phase_1,,,,,,,,,,,,,blue,circle
203.0,7.0,3.0,1.0,2.0,2.0,246.030797000003,3.0,1.0,phase_1,,,,,,,,,,,,,green,square
74.0,1.0,1.0,0.0,3.0,3.0,270.9773639999184,3.0,1.0,phase_1,,,,,,,,,,,,,orange,I
0.0,4.0,0.0,0.0,4.0,4.0,386.675318000016,3.0,1.0,phase_1,,,,,,,,,,,,,blue,circle
60.0,1.0,1.0,0.0,1.0,1.0,429.1778090000662,3.0,1.0,phase_1,,,,,,,,,,,,,orange,I
0.0,2.0,0.0,0.0,4.0,4.0,281.206636999741,3.0,1.0,phase_1,,,,,,,,,,,,,white,diamond
213.0,7.0,3.0,1.0,1.0,1.0,267.6595610000731,3.0,2.0,phase_1,,,,,,,,,,,,,green,square
409.0,8.0,4.0,1.0,2.0,2.0,255.0767050001923,3.0,1.0,phase_1,,,,,,,,,,,,,magenta,cross
0.0,3.0,0.0,0.0,4.0,4.0,288.4165509999548,3.0,1.0,phase_1,,,,,,,,,,,,,gray,hexagon
108.0,2.0,2.0,0.0,1.0,1.0,216.5816070000801,3.0,1.0,phase_1,,,,,,,,,,,,,white,diamond
389.0,8.0,4.0,1.0,4.0,4.0,293.1390210001154,3.0,1.0,phase_1,,,,,,,,,,,,,magenta,cross
0.0,5.0,0.0,1.0,4.0,4.0,367.5346800000625,3.0,1.0,phase_1,,,,,,,,,,,,,yellow,triangle
418.0,8.0,4.0,1.0,4.0,4.0,342.4099970002316,3.0,1.0,phase_1,,,,,,,,,,,,,magenta,cross
409.0,4.0,4.0,0.0,2.0,2.0,307.9464859997642,3.0,1.0,phase_1,,,,,,,,,,,,,blue,circle
93.0,2.0,2.0,0.0,1.0,1.0,294.930653999927,3.0,1.0,phase_1,,,,,,,,,,,,,white,diamond
184.0,3.0,3.0,0.0,2.0,2.0,323.2220949998918,3.0,1.0,phase_1,,,,,,,,,,,,,gray,hexagon
122.0,6.0,2.0,1.0,1.0,1.0,314.9119230001815,3.0,1.0,phase_1,,,,,,,,,,,,,cyan,flipped triangle
122.0,2.0,2.0,0.0,4.0,4.0,320.7882489996336,3.0,1.0,phase_1,,,,,,,,,,,,,white,diamond
53.0,1.0,1.0,0.0,3.0,3.0,309.6812019998651,3.0,1.0,phase_1,,,,,,,,,,,,,orange,I
184.0,3.0,3.0,0.0,1.0,1.0,262.1793660000548,3.0,1.0,phase_1,,,,,,,,,,,,,gray,hexagon
206.0,7.0,3.0,1.0,4.0,4.0,296.2386039998819,3.0,1.0,phase_1,,,,,,,,,,,,,green,square
112.0,2.0,2.0,0.0,3.0,3.0,362.0730370003002,3.0,1.0,phase_1,,,,,,,,,,,,,white,diamond
125.0,2.0,2.0,0.0,4.0,4.0,303.0770569998822,3.0,1.0,phase_1,,,,,,,,,,,,,white,diamond
411.0,8.0,4.0,1.0,2.0,2.0,283.4800210002868,3.0,1.0,phase_1,,,,,,,,,,,,,magenta,cross
102.0,6.0,2.0,1.0,1.0,1.0,252.3524779999206,3.0,1.0,phase_1,,,,,,,,,,,,,cyan,flipped triangle
76.0,6.0,2.0,1.0,1.0,1.0,262.9868379999607,3.0,1.0,phase_1,,,,,,,,,,,,,cyan,flipped triangle
386.0,4.0,4.0,0.0,1.0,1.0,266.7664760001571,3.0,1.0,phase_1,,,,,,,,,,,,,blue,circle
400.0,4.0,4.0,0.0,1.0,1.0,292.223586000091,3.0,1.0,phase_1,,,,,,,,,,,,,blue,circle
0.0,8.0,0.0,1.0,4.0,4.0,363.9926210003068,3.0,1.0,phase_1,,,,,,,,,,,,,magenta,cross
0.0,6.0,0.0,1.0,1.0,1.0,286.4419009997618,3.0,1.0,phase_1,,,,,,,,,,,,,cyan,flipped triangle
113.0,2.0,2.0,0.0,1.0,1.0,294.4839159999901,3.0,1.0,phase_1,,,,,,,,,,,,,white,diamond
393.0,4.0,4.0,0.0,4.0,4.0,248.2523260000562,3.0,2.0,phase_1,,,,,,,,,,,,,blue,circle
0.0,8.0,0.0,1.0,3.0,3.0,315.9498079999139,3.0,1.0,phase_1,,,,,,,,,,,,,magenta,cross
26.0,5.0,1.0,1.0,2.0,2.0,261.123038000278,3.0,1.0,phase_1,,,,,,,,,,,,,yellow,triangle
0.0,4.0,0.0,0.0,3.0,3.0,310.7206610002322,3.0,1.0,phase_1,,,,,,,,,,,,,blue,circle
74.0,5.0,1.0,1.0,4.0,4.0,309.0983099996265,3.0,1.0,phase_1,,,,,,,,,,,,,yellow,triangle
207.0,7.0,3.0,1.0,1.0,1.0,265.5254699998295,3.0,1.0,phase_1,,,,,,,,,,,,,green,square
409.0,8.0,4.0,1.0,1.0,1.0,296.9640249998519,3.0,1.0,phase_1,,,,,,,,,,,,,magenta,cross
376.0,8.0,4.0,1.0,1.0,1.0,438.5720850000325,3.0,1.0,phase_1,,,,,,,,,,,,,magenta,cross
118.0,6.0,2.0,1.0,2.0,2.0,281.3992119999966,3.0,1.0,phase_1,,,,,,,,,,,,,cyan,flipped triangle
0.0,7.0,0.0,1.0,4.0,4.0,289.3749549998574,3.0,1.0,phase_1,,,,,,,,,,,,,green,square
184.0,7.0,3.0,1.0,4.0,4.0,325.6885290002174,3.0,1.0,phase_1,,,,,,,,,,,,,green,square
115.0,2.0,2.0,0.0,4.0,4.0,238.899197000137,3.0,2.0,phase_1,,,,,,,,,,,,,white,diamond
35.0,1.0,1.0,0.0,4.0,4.0,318.2427690003351,3.0,1.0,phase_1,,,,,,,,,,,,,orange,I
401.0,8.0,4.0,1.0,2.0,2.0,264.3562739999652,3.0,1.0,phase_1,,,,,,,,,,,,,magenta,cross
195.0,7.0,3.0,1.0,1.0,1.0,252.14010799982128,3.0,1.0,phase_1,,,,,,,,,,,,,green,square
199.0,3.0,3.0,0.0,4.0,4.0,296.268849000171,3.0,1.0,phase_1,,,,,,,,,,,,,gray,hexagon
221.0,7.0,3.0,1.0,1.0,1.0,276.2665360000937,4.0,1.0,phase_1,,,,,,,,,,,,,green,square
207.0,3.0,3.0,0.0,1.0,1.0,332.9100279997874,4.0,1.0,phase_1,,,,,,,,,,,,,gray,hexagon
401.0,4.0,4.0,0.0,4.0,4.0,313.7880129997938,4.0,1.0,phase_1,,,,,,,,,,,,,blue,circle
387.0,4.0,4.0,0.0,4.0,4.0,322.6040959998499,4.0,1.0,phase_1,,,,,,,,,,,,,blue,circle
28.0,1.0,1.0,0.0,3.0,3.0,343.3390959999087,4.0,1.0,phase_1,,,,,,,,,,,,,orange,I
82.0,6.0,2.0,1.0,4.0,4.0,421.1867570002141,4.0,1.0,phase_1,,,,,,,,,,,,,cyan,flipped triangle
0.0,6.0,0.0,1.0,3.0,3.0,343.1871990001127,4.0,1.0,phase_1,,,,,,,,,,,,,cyan,flipped triangle
0.0,5.0,0.0,1.0,4.0,4.0,287.1197780000329,4.0,1.0,phase_1,,,,,,,,,,,,,yellow,triangle
211.0,3.0,3.0,0.0,3.0,3.0,299.1467749998264,4.0,1.0,phase_1,,,,,,,,,,,,,gray,hexagon
0.0,3.0,0.0,0.0,2.0,2.0,303.821249000066,4.0,1.0,phase_1,,,,,,,,,,,,,gray,hexagon
390.0,8.0,4.0,1.0,3.0,3.0,276.489717000004,4.0,1.0,phase_1,,,,,,,,,,,,,magenta,cross
28.0,5.0,1.0,1.0,4.0,4.0,304.8553879998508,4.0,1.0,phase_1,,,,,,,,,,,,,yellow,triangle
113.0,6.0,2.0,1.0,4.0,4.0,296.7886370001906,4.0,1.0,phase_1,,,,,,,,,,,,,cyan,flipped triangle
44.0,1.0,1.0,0.0,1.0,1.0,389.64948299963,4.0,1.0,phase_1,,,,,,,,,,,,,orange,I
382.0,4.0,4.0,0.0,2.0,2.0,228.3118919999651,4.0,1.0,phase_1,,,,,,,,,,,,,blue,circle
0.0,6.0,0.0,1.0,3.0,3.0,294.4721510002637,4.0,1.0,phase_1,,,,,,,,,,,,,cyan,flipped triangle
30.0,5.0,1.0,1.0,1.0,1.0,318.5481309997158,4.0,1.0,phase_1,,,,,,,,,,,,,yellow,triangle
0.0,1.0,0.0,0.0,4.0,4.0,287.7661219999936,4.0,1.0,phase_1,,,,,,,,,,,,,orange,I
207.0,7.0,3.0,1.0,4.0,4.0,300.5736699997214,4.0,1.0,phase_1,,,,,,,,,,,,,green,square
184.0,7.0,3.0,1.0,2.0,2.0,268.7228479999248,4.0,1.0,phase_1,,,,,,,,,,,,,green,square
108.0,6.0,2.0,1.0,3.0,3.0,324.5294960001956,4.0,1.0,phase_1,,,,,,,,,,,,,cyan,flipped triangle
0.0,3.0,0.0,0.0,4.0,4.0,416.5875359999518,4.0,1.0,phase_1,,,,,,,,,,,,,gray,hexagon
0.0,8.0,0.0,1.0,2.0,2.0,337.1944820000863,4.0,1.0,phase_1,,,,,,,,,,,,,magenta,cross
0.0,7.0,0.0,1.0,4.0,4.0,310.0027420000515,4.0,1.0,phase_1,,,,,,,,,,,,,green,square
76.0,2.0,2.0,0.0,2.0,2.0,224.4015569999646,4.0,1.0,phase_1,,,,,,,,,,,,,white,diamond
0.0,3.0,0.0,0.0,4.0,4.0,320.446277999963,4.0,1.0,phase_1,,,,,,,,,,,,,gray,hexagon
0.0,2.0,0.0,0.0,3.0,3.0,243.0312619999313,4.0,1.0,phase_1,,,,,,,,,,,,,white,diamond
0.0,6.0,0.0,1.0,4.0,4.0,238.5324100000616,4.0,1.0,phase_1,,,,,,,,,,,,,cyan,flipped triangle
81.0,2.0,2.0,0.0,1.0,1.0,322.5118850000399,4.0,1.0,phase_1,,,,,,,,,,,,,white,diamond
123.0,2.0,2.0,0.0,2.0,2.0,288.4387519998199,4.0,1.0,phase_1,,,,,,,,,,,,,white,diamond
99.0,6.0,2.0,1.0,4.0,4.0,301.2664089997088,4.0,1.0,phase_1,,,,,,,,,,,,,cyan,flipped triangle
0.0,7.0,0.0,1.0,3.0,3.0,323.7720840002112,4.0,1.0,phase_1,,,,,,,,,,,,,green,square
0.0,7.0,0.0,1.0,4.0,4.0,352.8784790000827,4.0,1.0,phase_1,,,,,,,,,,,,,green,square
0.0,3.0,0.0,0.0,2.0,2.0,269.5997929999976,4.0,1.0,phase_1,,,,,,,,,,,,,gray,hexagon
195.0,7.0,3.0,1.0,4.0,4.0,359.3084650001401,4.0,1.0,phase_1,,,,,,,,,,,,,green,square
0.0,2.0,0.0,0.0,3.0,3.0,310.2694560002419,4.0,1.0,phase_1,,,,,,,,,,,,,white,diamond
424.0,4.0,4.0,0.0,2.0,2.0,268.6670709999816,4.0,1.0,phase_1,,,,,,,,,,,,,blue,circle
411.0,8.0,4.0,1.0,4.0,4.0,318.3102439998038,4.0,1.0,phase_1,,,,,,,,,,,,,magenta,cross
62.0,5.0,1.0,1.0,4.0,4.0,297.4723060001452,4.0,1.0,phase_1,,,,,,,,,,,,,yellow,triangle
423.0,8.0,4.0,1.0,2.0,2.0,285.2972860000591,4.0,1.0,phase_1,,,,,,,,,,,,,magenta,cross
198.0,7.0,3.0,1.0,3.0,3.0,319.5711649996156,4.0,1.0,phase_1,,,,,,,,,,,,,green,square
201.0,3.0,3.0,0.0,1.0,1.0,302.9049130000203,4.0,1.0,phase_1,,,,,,,,,,,,,gray,hexagon
53.0,5.0,1.0,1.0,2.0,2.0,262.471221999931,4.0,1.0,phase_1,,,,,,,,,,,,,yellow,triangle
218.0,3.0,3.0,0.0,3.0,3.0,317.9231129997788,4.0,1.0,phase_1,,,,,,,,,,,,,gray,hexagon
184.0,3.0,3.0,0.0,2.0,2.0,276.687640000091,4.0,1.0,phase_1,,,,,,,,,,,,,gray,hexagon
108.0,6.0,2.0,1.0,3.0,3.0,316.5336309998565,4.0,1.0,phase_1,,,,,,,,,,,,,cyan,flipped triangle
57.0,1.0,1.0,0.0,3.0,3.0,333.8807830000405,4.0,1.0,phase_1,,,,,,,,,,,,,orange,I
0.0,1.0,0.0,0.0,3.0,3.0,468.3257980000235,4.0,1.0,phase_1,,,,,,,,,,,,,orange,I
70.0,5.0,1.0,1.0,1.0,1.0,687.9614380000021,4.0,1.0,phase_1,,,,,,,,,,,,,yellow,triangle
69.0,1.0,1.0,0.0,1.0,1.0,288.806705999832,4.0,1.0,phase_1,,,,,,,,,,,,,orange,I
204.0,7.0,3.0,1.0,2.0,2.0,248.0574810001599,4.0,1.0,phase_1,,,,,,,,,,,,,green,square
207.0,3.0,3.0,0.0,3.0,3.0,364.0628860002834,4.0,1.0,phase_1,,,,,,,,,,,,,gray,hexagon
44.0,5.0,1.0,1.0,3.0,3.0,318.8320839999505,4.0,1.0,phase_1,,,,,,,,,,,,,yellow,triangle
0.0,6.0,0.0,1.0,4.0,4.0,351.5281109998796,4.0,1.0,phase_1,,,,,,,,,,,,,cyan,flipped triangle
389.0,4.0,4.0,0.0,1.0,1.0,292.6853419999133,4.0,1.0,phase_1,,,,,,,,,,,,,blue,circle
418.0,4.0,4.0,0.0,4.0,4.0,296.7368960003114,4.0,1.0,phase_1,,,,,,,,,,,,,blue,circle
411.0,4.0,4.0,0.0,4.0,4.0,278.376255999774,4.0,1.0,phase_1,,,,,,,,,,,,,blue,circle
400.0,4.0,4.0,0.0,4.0,4.0,288.3766289996856,4.0,1.0,phase_1,,,,,,,,,,,,,blue,circle
109.0,2.0,2.0,0.0,1.0,1.0,320.5961680000655,4.0,1.0,phase_1,,,,,,,,,,,,,white,diamond
183.0,7.0,3.0,1.0,3.0,3.0,305.2804839999226,4.0,1.0,phase_1,,,,,,,,,,,,,green,square
82.0,2.0,2.0,0.0,4.0,4.0,262.4124330000086,4.0,1.0,phase_1,,,,,,,,,,,,,white,diamond
0.0,1.0,0.0,0.0,2.0,2.0,263.4588989999429,4.0,1.0,phase_1,,,,,,,,,,,,,orange,I
26.0,5.0,1.0,1.0,2.0,2.0,296.9899750000877,4.0,1.0,phase_1,,,,,,,,,,,,,yellow,triangle
424.0,8.0,4.0,1.0,4.0,4.0,275.7763050003632,4.0,1.0,phase_1,,,,,,,,,,,,,magenta,cross
0.0,5.0,0.0,1.0,1.0,1.0,259.1082570002072,4.0,1.0,phase_1,,,,,,,,,,,,,yellow,triangle
223.0,3.0,3.0,0.0,3.0,3.0,307.6465680001092,4.0,1.0,phase_1,,,,,,,,,,,,,gray,hexagon
59.0,5.0,1.0,1.0,2.0,2.0,281.7124749999493,4.0,1.0,phase_1,,,,,,,,,,,,,yellow,triangle
195.0,7.0,3.0,1.0,1.0,1.0,254.9850460000016,4.0,1.0,phase_1,,,,,,,,,,,,,green,square
0.0,8.0,0.0,1.0,1.0,1.0,271.272921000218,4.0,1.0,phase_1,,,,,,,,,,,,,magenta,cross
199.0,7.0,3.0,1.0,2.0,2.0,265.7778220000182,4.0,1.0,phase_1,,,,,,,,,,,,,green,square
60.0,5.0,1.0,1.0,1.0,1.0,241.8326720003278,4.0,1.0,phase_1,,,,,,,,,,,,,yellow,triangle
406.0,4.0,4.0,0.0,3.0,3.0,301.4682730004097,4.0,1.0,phase_1,,,,,,,,,,,,,blue,circle
111.0,2.0,2.0,0.0,2.0,2.0,250.13287000001577,4.0,1.0,phase_1,,,,,,,,,,,,,white,diamond
175.0,3.0,3.0,0.0,2.0,2.0,246.0929250000845,4.0,1.0,phase_1,,,,,,,,,,,,,gray,hexagon
213.0,3.0,3.0,0.0,4.0,4.0,256.4148500000556,4.0,1.0,phase_1,,,,,,,,,,,,,gray,hexagon
0.0,1.0,0.0,0.0,1.0,1.0,340.95491700009,4.0,1.0,phase_1,,,,,,,,,,,,,orange,I
92.0,2.0,2.0,0.0,3.0,3.0,343.4575199999017,4.0,1.0,phase_1,,,,,,,,,,,,,white,diamond
70.0,1.0,1.0,0.0,4.0,4.0,257.1703399999023,4.0,1.0,phase_1,,,,,,,,,,,,,orange,I
0.0,7.0,0.0,1.0,3.0,3.0,340.4428170001665,4.0,1.0,phase_1,,,,,,,,,,,,,green,square
99.0,2.0,2.0,0.0,4.0,4.0,370.89526899990227,4.0,1.0,phase_1,,,,,,,,,,,,,white,diamond
0.0,5.0,0.0,1.0,1.0,1.0,290.2079000000412,4.0,1.0,phase_1,,,,,,,,,,,,,yellow,triangle
69.0,1.0,1.0,0.0,3.0,3.0,255.44059399999242,4.0,1.0,phase_1,,,,,,,,,,,,,orange,I
0.0,2.0,0.0,0.0,1.0,1.0,235.9918130000551,4.0,1.0,phase_1,,,,,,,,,,,,,white,diamond
31.0,1.0,1.0,0.0,1.0,1.0,266.601988000275,4.0,1.0,phase_1,,,,,,,,,,,,,orange,I
378.0,4.0,4.0,0.0,3.0,3.0,317.7620959995693,4.0,1.0,phase_1,,,,,,,,,,,,,blue,circle
85.0,2.0,2.0,0.0,3.0,3.0,268.3386029998473,4.0,1.0,phase_1,,,,,,,,,,,,,white,diamond
44.0,1.0,1.0,0.0,2.0,2.0,260.1591409998036,4.0,1.0,phase_1,,,,,,,,,,,,,orange,I
0.0,4.0,0.0,0.0,1.0,1.0,342.582536000009,4.0,1.0,phase_1,,,,,,,,,,,,,blue,circle
187.0,3.0,3.0,0.0,2.0,2.0,260.4995330002566,4.0,1.0,phase_1,,,,,,,,,,,,,gray,hexagon
187.0,3.0,3.0,0.0,1.0,1.0,228.9421890000085,4.0,1.0,phase_1,,,,,,,,,,,,,gray,hexagon
63.0,5.0,1.0,1.0,1.0,1.0,230.644538999968,4.0,1.0,phase_1,,,,,,,,,,,,,yellow,triangle
392.0,4.0,4.0,0.0,3.0,3.0,306.4857790000133,4.0,1.0,phase_1,,,,,,,,,,,,,blue,circle
77.0,6.0,2.0,1.0,3.0,3.0,306.814427000063,4.0,1.0,phase_1,,,,,,,,,,,,,cyan,flipped triangle
187.0,7.0,3.0,1.0,2.0,2.0,238.3188320000044,4.0,1.0,phase_1,,,,,,,,,,,,,green,square
203.0,3.0,3.0,0.0,2.0,2.0,243.0995720001192,4.0,1.0,phase_1,,,,,,,,,,,,,gray,hexagon
419.0,4.0,4.0,0.0,3.0,3.0,297.4956549996932,4.0,1.0,phase_1,,,,,,,,,,,,,blue,circle
48.0,5.0,1.0,1.0,4.0,4.0,423.3915660001912,4.0,1.0,phase_1,,,,,,,,,,,,,yellow,triangle
191.0,3.0,3.0,0.0,4.0,4.0,287.4166410001635,4.0,1.0,phase_1,,,,,,,,,,,,,gray,hexagon
212.0,3.0,3.0,0.0,4.0,4.0,292.0453519996044,4.0,1.0,phase_1,,,,,,,,,,,,,gray,hexagon
0.0,3.0,0.0,0.0,1.0,1.0,236.2127209999016,4.0,1.0,phase_1,,,,,,,,,,,,,gray,hexagon
0.0,4.0,4.0,0.0,6.0,6.0,276.7178419999254,1.0,1.0,phase_2,go,250.0,250.0,1.0,,,,,,,,,blue,circle
0.0,5.0,1.0,1.0,6.0,0.0,0.0,1.0,1.0,phase_2,stop,250.0,250.0,4.0,,,,,,,,,yellow,triangle
0.0,4.0,4.0,0.0,5.0,5.0,231.6924469996593,1.0,1.0,phase_2,go,250.0,300.0,1.0,,,,,,,,,blue,circle
0.0,3.0,3.0,0.0,6.0,6.0,238.9537750000272,1.0,1.0,phase_2,go,250.0,300.0,1.0,,,,,,,,,gray,hexagon
0.0,2.0,2.0,0.0,5.0,5.0,229.1107199998805,1.0,1.0,phase_2,go,250.0,300.0,1.0,,,,,,,,,white,diamond
0.0,3.0,3.0,0.0,5.0,5.0,252.6458239999556,1.0,1.0,phase_2,go,250.0,300.0,1.0,,,,,,,,,gray,hexagon
0.0,7.0,3.0,1.0,6.0,6.0,220.6044229997132,1.0,1.0,phase_2,stop,250.0,300.0,3.0,,,,,,,,,green,square
0.0,2.0,2.0,0.0,6.0,6.0,267.4449539999841,1.0,1.0,phase_2,go,250.0,250.0,1.0,,,,,,,,,white,diamond
0.0,4.0,4.0,0.0,5.0,5.0,236.3051760003145,1.0,1.0,phase_2,go,250.0,250.0,1.0,,,,,,,,,blue,circle
0.0,8.0,4.0,1.0,5.0,5.0,289.043440000114,1.0,1.0,phase_2,stop,250.0,250.0,3.0,,,,,,,,,magenta,cross
0.0,8.0,4.0,1.0,6.0,6.0,245.3192909997597,1.0,1.0,phase_2,go,200.0,250.0,1.0,,,,,,,,,magenta,cross
0.0,6.0,2.0,1.0,5.0,5.0,282.834917999935,1.0,1.0,phase_2,stop,200.0,250.0,3.0,,,,,,,,,cyan,flipped triangle
0.0,7.0,3.0,1.0,6.0,6.0,283.9377820000663,1.0,1.0,phase_2,stop,150.0,250.0,3.0,,,,,,,,,green,square
0.0,2.0,2.0,0.0,5.0,5.0,237.9333750000114,1.0,1.0,phase_2,go,150.0,200.0,1.0,,,,,,,,,white,diamond
0.0,7.0,3.0,1.0,5.0,0.0,0.0,1.0,1.0,phase_2,stop,150.0,200.0,4.0,,,,,,,,,green,square
0.0,5.0,1.0,1.0,6.0,6.0,245.5392090000714,1.0,1.0,phase_2,stop,200.0,200.0,3.0,,,,,,,,,yellow,triangle
0.0,7.0,3.0,1.0,5.0,5.0,238.3951939996222,1.0,1.0,phase_2,stop,200.0,150.0,3.0,,,,,,,,,green,square
0.0,2.0,2.0,0.0,5.0,5.0,300.9639980000429,1.0,1.0,phase_2,go,150.0,150.0,1.0,,,,,,,,,white,diamond
0.0,1.0,1.0,0.0,5.0,5.0,814.9752499998613,1.0,1.0,phase_2,go,150.0,150.0,1.0,,,,,,,,,orange,I
0.0,3.0,3.0,0.0,6.0,6.0,402.0017160000861,1.0,1.0,phase_2,go,150.0,150.0,1.0,,,,,,,,,gray,hexagon
0.0,4.0,4.0,0.0,5.0,5.0,363.3379940001759,1.0,1.0,phase_2,go,150.0,150.0,1.0,,,,,,,,,blue,circle
0.0,5.0,1.0,1.0,6.0,6.0,238.1309490001513,1.0,1.0,phase_2,go,150.0,150.0,1.0,,,,,,,,,yellow,triangle
0.0,5.0,1.0,1.0,6.0,6.0,324.1170830001465,1.0,1.0,phase_2,go,150.0,150.0,1.0,,,,,,,,,yellow,triangle
0.0,6.0,2.0,1.0,6.0,6.0,298.5173699998995,1.0,1.0,phase_2,stop,150.0,150.0,3.0,,,,,,,,,cyan,flipped triangle
0.0,3.0,3.0,0.0,5.0,5.0,254.65427900007847,1.0,1.0,phase_2,go,150.0,100.0,1.0,,,,,,,,,gray,hexagon
0.0,5.0,1.0,1.0,5.0,0.0,0.0,1.0,1.0,phase_2,stop,150.0,100.0,4.0,,,,,,,,,yellow,triangle
0.0,5.0,1.0,1.0,5.0,0.0,0.0,1.0,1.0,phase_2,stop,200.0,100.0,4.0,,,,,,,,,yellow,triangle
0.0,1.0,1.0,0.0,6.0,6.0,335.9423670003707,1.0,1.0,phase_2,go,250.0,100.0,1.0,,,,,,,,,orange,I
0.0,1.0,1.0,0.0,5.0,5.0,290.7181800001126,1.0,1.0,phase_2,go,250.0,100.0,1.0,,,,,,,,,orange,I
0.0,1.0,1.0,0.0,5.0,5.0,354.0934410002592,1.0,1.0,phase_2,go,250.0,100.0,1.0,,,,,,,,,orange,I
0.0,3.0,3.0,0.0,6.0,6.0,318.8948649999474,1.0,1.0,phase_2,go,250.0,100.0,1.0,,,,,,,,,gray,hexagon
0.0,1.0,1.0,0.0,6.0,6.0,332.2402389999297,1.0,1.0,phase_2,go,250.0,100.0,1.0,,,,,,,,,orange,I
0.0,4.0,4.0,0.0,6.0,6.0,287.5124059996778,1.0,1.0,phase_2,go,250.0,100.0,1.0,,,,,,,,,blue,circle
0.0,4.0,4.0,0.0,6.0,6.0,282.1116959999017,1.0,1.0,phase_2,go,250.0,100.0,1.0,,,,,,,,,blue,circle
0.0,5.0,1.0,1.0,5.0,5.0,439.8138909996305,1.0,1.0,phase_2,stop,250.0,100.0,3.0,,,,,,,,,yellow,triangle
0.0,1.0,1.0,0.0,6.0,6.0,256.6594150002856,1.0,1.0,phase_2,go,200.0,100.0,1.0,,,,,,,,,orange,I
0.0,4.0,4.0,0.0,5.0,5.0,700.7642590001524,2.0,1.0,phase_2,go,200.0,100.0,1.0,,,,,,,,,blue,circle
0.0,5.0,1.0,1.0,6.0,0.0,0.0,2.0,1.0,phase_2,stop,200.0,100.0,4.0,,,,,,,,,yellow,triangle
0.0,8.0,4.0,1.0,6.0,0.0,0.0,2.0,1.0,phase_2,stop,200.0,150.0,4.0,,,,,,,,,magenta,cross
0.0,3.0,3.0,0.0,5.0,5.0,376.2371960001474,2.0,1.0,phase_2,go,200.0,200.0,1.0,,,,,,,,,gray,hexagon
0.0,4.0,4.0,0.0,5.0,5.0,364.1543369999453,2.0,1.0,phase_2,go,200.0,200.0,1.0,,,,,,,,,blue,circle
0.0,1.0,1.0,0.0,5.0,5.0,419.9645469998359,2.0,1.0,phase_2,go,200.0,200.0,1.0,,,,,,,,,orange,I
0.0,5.0,1.0,1.0,5.0,5.0,715.0137610001366,2.0,1.0,phase_2,go,200.0,200.0,1.0,,,,,,,,,yellow,triangle
0.0,1.0,1.0,0.0,6.0,6.0,263.2442970002557,2.0,1.0,phase_2,go,200.0,200.0,1.0,,,,,,,,,orange,I
0.0,5.0,1.0,1.0,5.0,0.0,0.0,2.0,1.0,phase_2,stop,200.0,200.0,4.0,,,,,,,,,yellow,triangle
0.0,4.0,4.0,0.0,5.0,5.0,408.9394610000454,2.0,1.0,phase_2,go,250.0,200.0,1.0,,,,,,,,,blue,circle
0.0,5.0,1.0,1.0,6.0,0.0,0.0,2.0,1.0,phase_2,stop,250.0,200.0,4.0,,,,,,,,,yellow,triangle
0.0,4.0,4.0,0.0,6.0,6.0,324.6978650004166,2.0,1.0,phase_2,go,250.0,250.0,1.0,,,,,,,,,blue,circle
0.0,8.0,4.0,1.0,6.0,0.0,0.0,2.0,1.0,phase_2,stop,250.0,250.0,4.0,,,,,,,,,magenta,cross
0.0,8.0,4.0,1.0,5.0,5.0,329.532491000009,2.0,1.0,phase_2,stop,250.0,300.0,3.0,,,,,,,,,magenta,cross
0.0,3.0,3.0,0.0,5.0,5.0,477.6157989999774,2.0,1.0,phase_2,go,200.0,300.0,1.0,,,,,,,,,gray,hexagon
0.0,2.0,2.0,0.0,5.0,5.0,415.6235509999533,2.0,1.0,phase_2,go,200.0,300.0,1.0,,,,,,,,,white,diamond
0.0,5.0,1.0,1.0,6.0,6.0,440.2659420002237,2.0,1.0,phase_2,go,200.0,300.0,1.0,,,,,,,,,yellow,triangle
0.0,5.0,1.0,1.0,5.0,0.0,0.0,2.0,1.0,phase_2,stop,200.0,300.0,4.0,,,,,,,,,yellow,triangle
0.0,8.0,4.0,1.0,5.0,5.0,331.776357000308,2.0,1.0,phase_2,stop,250.0,300.0,3.0,,,,,,,,,magenta,cross
0.0,2.0,2.0,0.0,6.0,6.0,337.8393839998352,2.0,1.0,phase_2,go,200.0,300.0,1.0,,,,,,,,,white,diamond
0.0,4.0,4.0,0.0,5.0,5.0,467.8797659998963,2.0,1.0,phase_2,go,200.0,300.0,1.0,,,,,,,,,blue,circle
0.0,6.0,2.0,1.0,5.0,5.0,512.5069040000199,2.0,1.0,phase_2,go,200.0,300.0,1.0,,,,,,,,,cyan,flipped triangle
0.0,4.0,4.0,0.0,6.0,6.0,456.0896899997715,2.0,1.0,phase_2,go,200.0,300.0,1.0,,,,,,,,,blue,circle
0.0,2.0,2.0,0.0,5.0,5.0,447.5666260000253,2.0,1.0,phase_2,go,200.0,300.0,1.0,,,,,,,,,white,diamond
0.0,7.0,3.0,1.0,6.0,6.0,466.8571659999543,2.0,1.0,phase_2,stop,200.0,300.0,3.0,,,,,,,,,green,square
0.0,7.0,3.0,1.0,6.0,6.0,323.1368759998076,2.0,1.0,phase_2,stop,200.0,250.0,3.0,,,,,,,,,green,square
0.0,5.0,1.0,1.0,6.0,0.0,0.0,2.0,1.0,phase_2,stop,200.0,200.0,4.0,,,,,,,,,yellow,triangle
0.0,3.0,3.0,0.0,5.0,5.0,446.2222809997911,2.0,1.0,phase_2,go,200.0,250.0,1.0,,,,,,,,,gray,hexagon
0.0,3.0,3.0,0.0,5.0,5.0,444.9979450000683,2.0,1.0,phase_2,go,200.0,250.0,1.0,,,,,,,,,gray,hexagon
0.0,3.0,3.0,0.0,6.0,6.0,565.3983430001972,2.0,1.0,phase_2,go,200.0,250.0,1.0,,,,,,,,,gray,hexagon
0.0,6.0,2.0,1.0,6.0,0.0,0.0,2.0,1.0,phase_2,stop,200.0,250.0,4.0,,,,,,,,,cyan,flipped triangle
0.0,5.0,1.0,1.0,5.0,0.0,0.0,2.0,1.0,phase_2,stop,200.0,300.0,4.0,,,,,,,,,yellow,triangle
0.0,5.0,1.0,1.0,5.0,0.0,0.0,2.0,1.0,phase_2,stop,250.0,300.0,4.0,,,,,,,,,yellow,triangle
0.0,1.0,1.0,0.0,5.0,5.0,462.5574870001401,2.0,1.0,phase_2,go,300.0,300.0,1.0,,,,,,,,,orange,I
0.0,6.0,2.0,1.0,5.0,0.0,0.0,2.0,1.0,phase_2,stop,300.0,300.0,4.0,,,,,,,,,cyan,flipped triangle
0.0,8.0,4.0,1.0,6.0,0.0,0.0,2.0,1.0,phase_2,stop,350.0,300.0,4.0,,,,,,,,,magenta,cross
0.0,6.0,2.0,1.0,5.0,5.0,815.2782649999608,3.0,1.0,phase_2,go,350.0,350.0,1.0,,,,,,,,,cyan,flipped triangle
0.0,8.0,4.0,1.0,6.0,0.0,0.0,3.0,1.0,phase_2,stop,350.0,350.0,4.0,,,,,,,,,magenta,cross
0.0,6.0,2.0,1.0,6.0,0.0,0.0,3.0,1.0,phase_2,stop,350.0,400.0,4.0,,,,,,,,,cyan,flipped triangle
0.0,8.0,4.0,1.0,6.0,6.0,496.401558999878,3.0,1.0,phase_2,stop,350.0,450.0,3.0,,,,,,,,,magenta,cross
0.0,2.0,2.0,0.0,6.0,6.0,351.6114470003231,3.0,1.0,phase_2,go,350.0,400.0,1.0,,,,,,,,,white,diamond
0.0,8.0,4.0,1.0,5.0,0.0,0.0,3.0,1.0,phase_2,stop,350.0,400.0,4.0,,,,,,,,,magenta,cross
0.0,8.0,4.0,1.0,6.0,0.0,0.0,3.0,1.0,phase_2,stop,400.0,400.0,4.0,,,,,,,,,magenta,cross
0.0,2.0,2.0,0.0,6.0,6.0,762.3827110001002,3.0,1.0,phase_2,go,400.0,450.0,1.0,,,,,,,,,white,diamond
0.0,2.0,2.0,0.0,5.0,5.0,793.3918409999023,3.0,1.0,phase_2,go,400.0,450.0,1.0,,,,,,,,,white,diamond
0.0,8.0,4.0,1.0,5.0,5.0,795.70594300003,3.0,1.0,phase_2,go,400.0,450.0,1.0,,,,,,,,,magenta,cross
0.0,1.0,1.0,0.0,5.0,5.0,598.7922480003363,3.0,1.0,phase_2,go,400.0,450.0,1.0,,,,,,,,,orange,I
0.0,6.0,2.0,1.0,6.0,0.0,0.0,3.0,1.0,phase_2,stop,400.0,450.0,4.0,,,,,,,,,cyan,flipped triangle
0.0,6.0,2.0,1.0,5.0,5.0,342.5859359999776,3.0,1.0,phase_2,stop,400.0,500.0,3.0,,,,,,,,,cyan,flipped triangle
0.0,4.0,4.0,0.0,6.0,6.0,893.7351679996937,3.0,1.0,phase_2,go,350.0,500.0,1.0,,,,,,,,,blue,circle
0.0,2.0,2.0,0.0,6.0,6.0,708.1315230002474,3.0,1.0,phase_2,go,350.0,500.0,1.0,,,,,,,,,white,diamond
0.0,7.0,3.0,1.0,5.0,5.0,588.8583329997346,3.0,1.0,phase_2,go,350.0,500.0,1.0,,,,,,,,,green,square
0.0,2.0,2.0,0.0,5.0,5.0,632.8572950001217,3.0,1.0,phase_2,go,350.0,500.0,1.0,,,,,,,,,white,diamond
0.0,8.0,4.0,1.0,6.0,6.0,820.3496840001208,3.0,1.0,phase_2,go,350.0,500.0,1.0,,,,,,,,,magenta,cross
0.0,2.0,2.0,0.0,5.0,5.0,758.2914399999936,3.0,1.0,phase_2,go,350.0,500.0,1.0,,,,,,,,,white,diamond
0.0,7.0,3.0,1.0,5.0,5.0,761.9157999997697,3.0,1.0,phase_2,go,350.0,500.0,1.0,,,,,,,,,green,square
0.0,2.0,2.0,0.0,6.0,6.0,642.7997480000158,3.0,1.0,phase_2,go,350.0,500.0,1.0,,,,,,,,,white,diamond
0.0,8.0,4.0,1.0,6.0,0.0,0.0,3.0,1.0,phase_2,stop,350.0,500.0,4.0,,,,,,,,,magenta,cross
0.0,6.0,2.0,1.0,6.0,6.0,845.5464710000342,3.0,1.0,phase_2,go,350.0,550.0,1.0,,,,,,,,,cyan,flipped triangle
0.0,7.0,3.0,1.0,5.0,0.0,0.0,3.0,1.0,phase_2,stop,350.0,550.0,4.0,,,,,,,,,green,square
0.0,1.0,1.0,0.0,6.0,6.0,821.9699139999648,3.0,1.0,phase_2,go,400.0,550.0,1.0,,,,,,,,,orange,I
0.0,5.0,1.0,1.0,5.0,0.0,0.0,3.0,1.0,phase_2,stop,400.0,550.0,4.0,,,,,,,,,yellow,triangle
0.0,7.0,3.0,1.0,5.0,5.0,780.0337009998657,3.0,1.0,phase_2,go,450.0,550.0,1.0,,,,,,,,,green,square
0.0,3.0,3.0,0.0,5.0,5.0,341.4831519999097,3.0,1.0,phase_2,go,450.0,550.0,1.0,,,,,,,,,gray,hexagon
0.0,1.0,1.0,0.0,5.0,5.0,653.620630000205,3.0,1.0,phase_2,go,450.0,550.0,1.0,,,,,,,,,orange,I
0.0,7.0,3.0,1.0,5.0,0.0,0.0,3.0,1.0,phase_2,stop,450.0,550.0,4.0,,,,,,,,,green,square
0.0,1.0,1.0,0.0,5.0,5.0,640.6083430001672,3.0,1.0,phase_2,go,500.0,550.0,1.0,,,,,,,,,orange,I
0.0,3.0,3.0,0.0,6.0,6.0,302.8307139998105,3.0,1.0,phase_2,go,500.0,550.0,1.0,,,,,,,,,gray,hexagon
0.0,7.0,3.0,1.0,6.0,0.0,0.0,3.0,1.0,phase_2,stop,500.0,550.0,4.0,,,,,,,,,green,square
0.0,6.0,2.0,1.0,5.0,0.0,0.0,3.0,1.0,phase_2,stop,500.0,600.0,4.0,,,,,,,,,cyan,flipped triangle
0.0,1.0,1.0,0.0,6.0,6.0,805.5074260000765,3.0,1.0,phase_2,go,550.0,600.0,1.0,,,,,,,,,orange,I
0.0,6.0,2.0,1.0,5.0,0.0,0.0,3.0,1.0,phase_2,stop,550.0,600.0,4.0,,,,,,,,,cyan,flipped triangle
0.0,8.0,4.0,1.0,6.0,6.0,807.1409650001442,4.0,1.0,phase_2,go,600.0,600.0,1.0,,,,,,,,,magenta,cross
0.0,1.0,1.0,0.0,5.0,5.0,643.4717439997257,4.0,1.0,phase_2,go,600.0,600.0,1.0,,,,,,,,,orange,I
0.0,5.0,1.0,1.0,5.0,5.0,594.4856569999502,4.0,1.0,phase_2,go,600.0,600.0,1.0,,,,,,,,,yellow,triangle
0.0,7.0,3.0,1.0,6.0,6.0,595.172962000106,4.0,1.0,phase_2,stop,600.0,600.0,3.0,,,,,,,,,green,square
0.0,1.0,1.0,0.0,6.0,6.0,398.574963000101,4.0,1.0,phase_2,go,600.0,550.0,1.0,,,,,,,,,orange,I
0.0,8.0,4.0,1.0,5.0,5.0,453.7445569999363,4.0,1.0,phase_2,stop,600.0,550.0,3.0,,,,,,,,,magenta,cross
0.0,6.0,2.0,1.0,6.0,0.0,0.0,4.0,1.0,phase_2,stop,550.0,550.0,4.0,,,,,,,,,cyan,flipped triangle
0.0,7.0,3.0,1.0,6.0,6.0,771.2498920000144,4.0,1.0,phase_2,stop,550.0,600.0,3.0,,,,,,,,,green,square
0.0,3.0,3.0,0.0,5.0,5.0,850.8473030001369,4.0,1.0,phase_2,go,550.0,550.0,1.0,,,,,,,,,gray,hexagon
0.0,5.0,1.0,1.0,5.0,5.0,534.2827449999277,4.0,1.0,phase_2,stop,550.0,550.0,3.0,,,,,,,,,yellow,triangle
0.0,5.0,1.0,1.0,6.0,0.0,0.0,4.0,1.0,phase_2,stop,500.0,550.0,4.0,,,,,,,,,yellow,triangle
0.0,4.0,4.0,0.0,5.0,5.0,706.4745840002615,4.0,1.0,phase_2,go,500.0,600.0,1.0,,,,,,,,,blue,circle
0.0,2.0,2.0,0.0,5.0,5.0,701.7247479998332,4.0,1.0,phase_2,go,500.0,600.0,1.0,,,,,,,,,white,diamond
0.0,6.0,2.0,1.0,5.0,5.0,301.2144300000727,4.0,1.0,phase_2,go,500.0,600.0,1.0,,,,,,,,,cyan,flipped triangle
0.0,5.0,1.0,1.0,5.0,5.0,559.6401180000612,4.0,1.0,phase_2,go,500.0,600.0,1.0,,,,,,,,,yellow,triangle
0.0,1.0,1.0,0.0,6.0,6.0,630.6172280001192,4.0,1.0,phase_2,go,500.0,600.0,1.0,,,,,,,,,orange,I
0.0,2.0,2.0,0.0,6.0,6.0,721.7476539999552,4.0,1.0,phase_2,go,500.0,600.0,1.0,,,,,,,,,white,diamond
0.0,5.0,1.0,1.0,5.0,5.0,560.0813179999022,4.0,1.0,phase_2,go,500.0,600.0,1.0,,,,,,,,,yellow,triangle
0.0,5.0,1.0,1.0,5.0,5.0,379.0817670001161,4.0,1.0,phase_2,stop,500.0,600.0,3.0,,,,,,,,,yellow,triangle
0.0,7.0,3.0,1.0,5.0,0.0,0.0,4.0,1.0,phase_2,stop,450.0,600.0,4.0,,,,,,,,,green,square
0.0,7.0,3.0,1.0,6.0,6.0,728.8804869999694,4.0,1.0,phase_2,stop,500.0,600.0,3.0,,,,,,,,,green,square
0.0,4.0,4.0,0.0,5.0,5.0,708.0459610001526,4.0,1.0,phase_2,go,500.0,550.0,1.0,,,,,,,,,blue,circle
0.0,2.0,2.0,0.0,5.0,5.0,716.3011620000361,4.0,1.0,phase_2,go,500.0,550.0,1.0,,,,,,,,,white,diamond
0.0,8.0,4.0,1.0,6.0,6.0,599.8328939999737,4.0,1.0,phase_2,stop,500.0,550.0,3.0,,,,,,,,,magenta,cross
0.0,4.0,4.0,0.0,6.0,6.0,634.054852999725,4.0,1.0,phase_2,go,500.0,500.0,1.0,,,,,,,,,blue,circle
0.0,7.0,3.0,1.0,6.0,0.0,0.0,4.0,1.0,phase_2,stop,500.0,500.0,4.0,,,,,,,,,green,square
0.0,2.0,2.0,0.0,6.0,6.0,601.0225119998722,4.0,1.0,phase_2,go,500.0,550.0,1.0,,,,,,,,,white,diamond
0.0,5.0,1.0,1.0,6.0,6.0,710.1821060000475,4.0,1.0,phase_2,go,500.0,550.0,1.0,,,,,,,,,yellow,triangle
0.0,3.0,3.0,0.0,5.0,5.0,348.208512000383,4.0,1.0,phase_2,go,500.0,550.0,1.0,,,,,,,,,gray,hexagon
0.0,6.0,2.0,1.0,5.0,0.0,0.0,4.0,1.0,phase_2,stop,500.0,550.0,4.0,,,,,,,,,cyan,flipped triangle
0.0,7.0,3.0,1.0,6.0,0.0,0.0,4.0,1.0,phase_2,stop,550.0,550.0,4.0,,,,,,,,,green,square
0.0,4.0,4.0,0.0,5.0,5.0,600.5269440001939,4.0,1.0,phase_2,go,550.0,600.0,1.0,,,,,,,,,blue,circle
0.0,4.0,4.0,0.0,6.0,6.0,731.7376279997916,4.0,1.0,phase_2,go,550.0,600.0,1.0,,,,,,,,,blue,circle
0.0,1.0,1.0,0.0,6.0,6.0,392.2646649998569,4.0,1.0,phase_2,go,550.0,600.0,1.0,,,,,,,,,orange,I
0.0,6.0,2.0,1.0,5.0,5.0,252.3756759997013,4.0,1.0,phase_2,go,550.0,600.0,1.0,,,,,,,,,cyan,flipped triangle
0.0,8.0,4.0,1.0,5.0,5.0,418.5653230001662,4.0,1.0,phase_2,stop,550.0,600.0,3.0,,,,,,,,,magenta,cross
0.0,3.0,3.0,0.0,5.0,5.0,610.960533999787,5.0,1.0,phase_2,go,500.0,600.0,1.0,,,,,,,,,gray,hexagon
0.0,2.0,2.0,0.0,5.0,5.0,495.784177999667,5.0,1.0,phase_2,go,500.0,600.0,1.0,,,,,,,,,white,diamond
0.0,7.0,3.0,1.0,6.0,6.0,635.8670700001312,5.0,1.0,phase_2,stop,500.0,600.0,3.0,,,,,,,,,green,square
0.0,1.0,1.0,0.0,5.0,5.0,701.272968000012,5.0,1.0,phase_2,go,500.0,550.0,1.0,,,,,,,,,orange,I
0.0,1.0,1.0,0.0,5.0,5.0,302.7032589998271,5.0,1.0,phase_2,go,500.0,550.0,1.0,,,,,,,,,orange,I
0.0,2.0,2.0,0.0,5.0,5.0,576.5600469999299,5.0,1.0,phase_2,go,500.0,550.0,1.0,,,,,,,,,white,diamond
0.0,7.0,3.0,1.0,5.0,0.0,0.0,5.0,1.0,phase_2,stop,500.0,550.0,4.0,,,,,,,,,green,square
0.0,4.0,4.0,0.0,6.0,6.0,632.3731309998948,5.0,1.0,phase_2,go,550.0,550.0,1.0,,,,,,,,,blue,circle
0.0,7.0,3.0,1.0,5.0,5.0,727.2938210003304,5.0,1.0,phase_2,go,550.0,550.0,1.0,,,,,,,,,green,square
0.0,7.0,3.0,1.0,6.0,0.0,0.0,5.0,1.0,phase_2,stop,550.0,550.0,4.0,,,,,,,,,green,square
0.0,3.0,3.0,0.0,6.0,6.0,684.1061909999553,5.0,1.0,phase_2,go,550.0,600.0,1.0,,,,,,,,,gray,hexagon
0.0,4.0,4.0,0.0,6.0,6.0,462.8421410002374,5.0,1.0,phase_2,go,550.0,600.0,1.0,,,,,,,,,blue,circle
0.0,8.0,4.0,1.0,5.0,5.0,276.9019259999368,5.0,1.0,phase_2,stop,550.0,600.0,3.0,,,,,,,,,magenta,cross
0.0,7.0,3.0,1.0,6.0,6.0,572.4881380001534,5.0,1.0,phase_2,stop,500.0,600.0,3.0,,,,,,,,,green,square
0.0,5.0,1.0,1.0,5.0,0.0,0.0,5.0,1.0,phase_2,stop,500.0,550.0,4.0,,,,,,,,,yellow,triangle
0.0,4.0,4.0,0.0,5.0,5.0,346.2225770003897,5.0,1.0,phase_2,go,550.0,550.0,1.0,,,,,,,,,blue,circle
0.0,3.0,3.0,0.0,5.0,5.0,270.6217649997597,5.0,1.0,phase_2,go,550.0,550.0,1.0,,,,,,,,,gray,hexagon
0.0,5.0,1.0,1.0,6.0,6.0,663.2602029999362,5.0,1.0,phase_2,stop,550.0,550.0,3.0,,,,,,,,,yellow,triangle
0.0,2.0,2.0,0.0,5.0,5.0,252.7341019999767,5.0,1.0,phase_2,go,550.0,500.0,1.0,,,,,,,,,white,diamond
0.0,7.0,3.0,1.0,5.0,5.0,349.8731920003592,5.0,1.0,phase_2,go,550.0,500.0,1.0,,,,,,,,,green,square
0.0,7.0,3.0,1.0,6.0,6.0,837.4041189999843,5.0,1.0,phase_2,go,550.0,500.0,1.0,,,,,,,,,green,square
0.0,4.0,4.0,0.0,5.0,5.0,426.8762950000564,5.0,1.0,phase_2,go,550.0,500.0,1.0,,,,,,,,,blue,circle
0.0,2.0,2.0,0.0,5.0,5.0,791.5949680000267,5.0,1.0,phase_2,go,550.0,500.0,1.0,,,,,,,,,white,diamond
0.0,5.0,1.0,1.0,6.0,0.0,0.0,5.0,1.0,phase_2,stop,550.0,500.0,4.0,,,,,,,,,yellow,triangle
0.0,2.0,2.0,0.0,6.0,6.0,588.0209060001107,5.0,1.0,phase_2,go,550.0,550.0,1.0,,,,,,,,,white,diamond
0.0,7.0,3.0,1.0,5.0,5.0,290.9139900002628,5.0,1.0,phase_2,stop,550.0,550.0,3.0,,,,,,,,,green,square
0.0,6.0,2.0,1.0,5.0,5.0,289.0741520000119,5.0,1.0,phase_2,go,500.0,550.0,1.0,,,,,,,,,cyan,flipped triangle
0.0,3.0,3.0,0.0,5.0,5.0,814.6142270002201,5.0,1.0,phase_2,go,500.0,550.0,1.0,,,,,,,,,gray,hexagon
0.0,6.0,2.0,1.0,6.0,6.0,648.669374000292,5.0,1.0,phase_2,stop,500.0,550.0,3.0,,,,,,,,,cyan,flipped triangle
0.0,5.0,1.0,1.0,6.0,0.0,0.0,5.0,1.0,phase_2,stop,500.0,500.0,4.0,,,,,,,,,yellow,triangle
0.0,6.0,2.0,1.0,6.0,6.0,752.4989919998006,5.0,1.0,phase_2,go,500.0,550.0,1.0,,,,,,,,,cyan,flipped triangle
0.0,4.0,4.0,0.0,6.0,6.0,631.2459179998768,5.0,1.0,phase_2,go,500.0,550.0,1.0,,,,,,,,,blue,circle
0.0,7.0,3.0,1.0,5.0,5.0,665.2650700002596,5.0,1.0,phase_2,stop,500.0,550.0,3.0,,,,,,,,,green,square
0.0,8.0,4.0,1.0,5.0,0.0,0.0,5.0,1.0,phase_2,stop,450.0,550.0,4.0,,,,,,,,,magenta,cross
0.0,3.0,3.0,0.0,6.0,6.0,326.2398880001456,5.0,1.0,phase_2,go,500.0,550.0,1.0,,,,,,,,,gray,hexagon
0.0,6.0,2.0,1.0,6.0,0.0,0.0,5.0,1.0,phase_2,stop,500.0,550.0,4.0,,,,,,,,,cyan,flipped triangle
0.0,1.0,1.0,0.0,6.0,6.0,465.7482499997059,6.0,1.0,phase_2,go,500.0,600.0,1.0,,,,,,,,,orange,I
0.0,3.0,3.0,0.0,6.0,6.0,708.6434779998854,6.0,1.0,phase_2,go,500.0,600.0,1.0,,,,,,,,,gray,hexagon
0.0,6.0,2.0,1.0,5.0,0.0,0.0,6.0,1.0,phase_2,stop,500.0,600.0,4.0,,,,,,,,,cyan,flipped triangle
0.0,6.0,2.0,1.0,6.0,6.0,302.977963000103,6.0,1.0,phase_2,stop,550.0,600.0,3.0,,,,,,,,,cyan,flipped triangle
0.0,2.0,2.0,0.0,6.0,6.0,510.937143999854,6.0,1.0,phase_2,go,550.0,550.0,1.0,,,,,,,,,white,diamond
0.0,8.0,4.0,1.0,6.0,0.0,0.0,6.0,1.0,phase_2,stop,550.0,550.0,4.0,,,,,,,,,magenta,cross
0.0,3.0,3.0,0.0,5.0,5.0,284.5956500000284,6.0,1.0,phase_2,go,550.0,600.0,1.0,,,,,,,,,gray,hexagon
0.0,8.0,4.0,1.0,5.0,0.0,0.0,6.0,1.0,phase_2,stop,550.0,600.0,4.0,,,,,,,,,magenta,cross
0.0,5.0,1.0,1.0,6.0,6.0,970.240886999818,6.0,1.0,phase_2,go,600.0,600.0,1.0,,,,,,,,,yellow,triangle
0.0,1.0,1.0,0.0,5.0,5.0,284.6994209999138,6.0,1.0,phase_2,go,600.0,600.0,1.0,,,,,,,,,orange,I
0.0,1.0,1.0,0.0,5.0,5.0,388.7260320002497,6.0,1.0,phase_2,go,600.0,600.0,1.0,,,,,,,,,orange,I
0.0,4.0,4.0,0.0,6.0,6.0,752.7934669997194,6.0,1.0,phase_2,go,600.0,600.0,1.0,,,,,,,,,blue,circle
0.0,5.0,1.0,1.0,5.0,5.0,391.0091319999083,6.0,1.0,phase_2,stop,600.0,600.0,3.0,,,,,,,,,yellow,triangle
0.0,7.0,3.0,1.0,6.0,6.0,333.1580359999861,6.0,1.0,phase_2,stop,550.0,600.0,3.0,,,,,,,,,green,square
0.0,4.0,4.0,0.0,5.0,5.0,700.9892649998619,6.0,1.0,phase_2,go,550.0,550.0,1.0,,,,,,,,,blue,circle
0.0,6.0,2.0,1.0,6.0,6.0,284.2804000001706,6.0,1.0,phase_2,stop,550.0,550.0,3.0,,,,,,,,,cyan,flipped triangle
0.0,5.0,1.0,1.0,6.0,0.0,0.0,6.0,1.0,phase_2,stop,550.0,500.0,4.0,,,,,,,,,yellow,triangle
0.0,3.0,3.0,0.0,5.0,5.0,567.567390000022,6.0,1.0,phase_2,go,550.0,550.0,1.0,,,,,,,,,gray,hexagon
0.0,3.0,3.0,0.0,6.0,6.0,832.0559619996857,6.0,1.0,phase_2,go,550.0,550.0,1.0,,,,,,,,,gray,hexagon
0.0,4.0,4.0,0.0,5.0,5.0,527.5690650000797,6.0,1.0,phase_2,go,550.0,550.0,1.0,,,,,,,,,blue,circle
0.0,8.0,4.0,1.0,6.0,6.0,384.3411320003724,6.0,1.0,phase_2,stop,550.0,550.0,3.0,,,,,,,,,magenta,cross
0.0,4.0,4.0,0.0,5.0,5.0,601.6987289999634,6.0,1.0,phase_2,go,550.0,500.0,1.0,,,,,,,,,blue,circle
0.0,8.0,4.0,1.0,5.0,0.0,0.0,6.0,1.0,phase_2,stop,550.0,500.0,4.0,,,,,,,,,magenta,cross
0.0,3.0,3.0,0.0,5.0,5.0,529.9556869999833,6.0,1.0,phase_2,go,600.0,500.0,1.0,,,,,,,,,gray,hexagon
0.0,1.0,1.0,0.0,6.0,6.0,684.0333039999678,6.0,1.0,phase_2,go,600.0,500.0,1.0,,,,,,,,,orange,I
0.0,8.0,4.0,1.0,6.0,0.0,0.0,6.0,1.0,phase_2,stop,600.0,500.0,4.0,,,,,,,,,magenta,cross
0.0,7.0,3.0,1.0,6.0,0.0,0.0,6.0,1.0,phase_2,stop,600.0,550.0,4.0,,,,,,,,,green,square
0.0,2.0,2.0,0.0,5.0,5.0,835.3759930000706,6.0,1.0,phase_2,go,600.0,600.0,1.0,,,,,,,,,white,diamond
0.0,8.0,4.0,1.0,5.0,5.0,774.3969950001883,6.0,1.0,phase_2,go,600.0,600.0,1.0,,,,,,,,,magenta,cross
0.0,6.0,2.0,1.0,5.0,5.0,353.498841000146,6.0,1.0,phase_2,stop,600.0,600.0,3.0,,,,,,,,,cyan,flipped triangle
0.0,6.0,2.0,1.0,5.0,5.0,582.9940910002733,6.0,1.0,phase_2,stop,550.0,600.0,3.0,,,,,,,,,cyan,flipped triangle
0.0,1.0,1.0,0.0,6.0,6.0,598.6083420002615,6.0,1.0,phase_2,go,500.0,600.0,1.0,,,,,,,,,orange,I
0.0,6.0,2.0,1.0,6.0,6.0,754.344453000158,6.0,1.0,phase_2,stop,500.0,600.0,3.0,,,,,,,,,cyan,flipped triangle
0.0,2.0,2.0,0.0,6.0,6.0,850.7476140002836,6.0,1.0,phase_2,go,500.0,550.0,1.0,,,,,,,,,white,diamond
0.0,8.0,4.0,1.0,5.0,5.0,1005.1935149999736,6.0,1.0,phase_2,go,500.0,550.0,1.0,,,,,,,,,magenta,cross
0.0,3.0,3.0,0.0,6.0,6.0,366.9401540000763,6.0,1.0,phase_2,go,500.0,550.0,1.0,,,,,,,,,gray,hexagon
0.0,4.0,4.0,0.0,5.0,5.0,451.3702340000236,7.0,1.0,phase_2,go,500.0,550.0,1.0,,,,,,,,,blue,circle
0.0,2.0,2.0,0.0,6.0,6.0,706.7489060000298,7.0,1.0,phase_2,go,500.0,550.0,1.0,,,,,,,,,white,diamond
0.0,3.0,3.0,0.0,6.0,6.0,342.9499449998729,7.0,1.0,phase_2,go,500.0,550.0,1.0,,,,,,,,,gray,hexagon
0.0,7.0,3.0,1.0,5.0,0.0,0.0,7.0,1.0,phase_2,stop,500.0,550.0,4.0,,,,,,,,,green,square
0.0,8.0,4.0,1.0,6.0,6.0,641.9320449999759,7.0,1.0,phase_2,go,550.0,550.0,1.0,,,,,,,,,magenta,cross
0.0,3.0,3.0,0.0,6.0,6.0,822.0913579998523,7.0,1.0,phase_2,go,550.0,550.0,1.0,,,,,,,,,gray,hexagon
0.0,2.0,2.0,0.0,6.0,6.0,739.8181799999293,7.0,1.0,phase_2,go,550.0,550.0,1.0,,,,,,,,,white,diamond
0.0,1.0,1.0,0.0,5.0,5.0,371.0079649999898,7.0,1.0,phase_2,go,550.0,550.0,1.0,,,,,,,,,orange,I
0.0,1.0,1.0,0.0,6.0,6.0,300.8338760000697,7.0,1.0,phase_2,go,550.0,550.0,1.0,,,,,,,,,orange,I
0.0,7.0,3.0,1.0,5.0,0.0,0.0,7.0,1.0,phase_2,stop,550.0,550.0,4.0,,,,,,,,,green,square
0.0,1.0,1.0,0.0,6.0,6.0,309.8938559996895,7.0,1.0,phase_2,go,600.0,550.0,1.0,,,,,,,,,orange,I
0.0,6.0,2.0,1.0,5.0,0.0,0.0,7.0,1.0,phase_2,stop,600.0,550.0,4.0,,,,,,,,,cyan,flipped triangle
0.0,4.0,4.0,0.0,6.0,6.0,866.736476999904,7.0,1.0,phase_2,go,650.0,550.0,1.0,,,,,,,,,blue,circle
0.0,8.0,4.0,1.0,5.0,0.0,0.0,7.0,1.0,phase_2,stop,650.0,550.0,4.0,,,,,,,,,magenta,cross
0.0,5.0,1.0,1.0,5.0,5.0,748.2471539997277,7.0,1.0,phase_2,stop,700.0,550.0,3.0,,,,,,,,,yellow,triangle
0.0,3.0,3.0,0.0,6.0,6.0,752.2635330001322,7.0,1.0,phase_2,go,650.0,550.0,1.0,,,,,,,,,gray,hexagon
0.0,3.0,3.0,0.0,6.0,6.0,1070.77319300015,7.0,1.0,phase_2,go,650.0,550.0,1.0,,,,,,,,,gray,hexagon
0.0,5.0,1.0,1.0,6.0,0.0,0.0,7.0,1.0,phase_2,stop,650.0,550.0,4.0,,,,,,,,,yellow,triangle
0.0,7.0,3.0,1.0,6.0,6.0,940.6897450003272,7.0,1.0,phase_2,go,650.0,600.0,1.0,,,,,,,,,green,square
0.0,1.0,1.0,0.0,5.0,5.0,900.0711599996976,7.0,1.0,phase_2,go,650.0,600.0,1.0,,,,,,,,,orange,I
0.0,3.0,3.0,0.0,5.0,5.0,575.5267859999549,7.0,1.0,phase_2,go,650.0,600.0,1.0,,,,,,,,,gray,hexagon
0.0,6.0,2.0,1.0,6.0,0.0,0.0,7.0,1.0,phase_2,stop,650.0,600.0,4.0,,,,,,,,,cyan,flipped triangle
0.0,1.0,1.0,0.0,5.0,5.0,530.3192749997834,7.0,1.0,phase_2,go,650.0,650.0,1.0,,,,,,,,,orange,I
0.0,2.0,2.0,0.0,5.0,5.0,372.0726990000003,7.0,1.0,phase_2,go,650.0,650.0,1.0,,,,,,,,,white,diamond
0.0,8.0,4.0,1.0,6.0,6.0,857.1953559999201,7.0,1.0,phase_2,go,650.0,650.0,1.0,,,,,,,,,magenta,cross
0.0,6.0,2.0,1.0,5.0,5.0,321.2221610001506,7.0,1.0,phase_2,go,650.0,650.0,1.0,,,,,,,,,cyan,flipped triangle
0.0,1.0,1.0,0.0,6.0,6.0,288.9873969998007,7.0,1.0,phase_2,go,650.0,650.0,1.0,,,,,,,,,orange,I
0.0,6.0,2.0,1.0,5.0,5.0,274.8193740003444,7.0,1.0,phase_2,stop,650.0,650.0,3.0,,,,,,,,,cyan,flipped triangle
0.0,8.0,4.0,1.0,5.0,5.0,355.2148539997688,7.0,1.0,phase_2,stop,600.0,650.0,3.0,,,,,,,,,magenta,cross
0.0,4.0,4.0,0.0,6.0,6.0,495.4015499997695,7.0,1.0,phase_2,go,550.0,650.0,1.0,,,,,,,,,blue,circle
0.0,3.0,3.0,0.0,5.0,5.0,495.0778479997098,7.0,1.0,phase_2,go,550.0,650.0,1.0,,,,,,,,,gray,hexagon
0.0,2.0,2.0,0.0,5.0,5.0,295.9523439999429,7.0,1.0,phase_2,go,550.0,650.0,1.0,,,,,,,,,white,diamond
0.0,4.0,4.0,0.0,6.0,6.0,290.9202970004116,7.0,1.0,phase_2,go,550.0,650.0,1.0,,,,,,,,,blue,circle
0.0,2.0,2.0,0.0,5.0,5.0,253.01524800033798,7.0,1.0,phase_2,go,550.0,650.0,1.0,,,,,,,,,white,diamond
0.0,3.0,3.0,0.0,6.0,6.0,259.7225159997833,7.0,1.0,phase_2,go,550.0,650.0,1.0,,,,,,,,,gray,hexagon
0.0,6.0,2.0,1.0,5.0,0.0,0.0,7.0,1.0,phase_2,stop,550.0,650.0,4.0,,,,,,,,,cyan,flipped triangle
0.0,1.0,1.0,0.0,5.0,5.0,392.85904999997,8.0,1.0,phase_2,go,600.0,650.0,1.0,,,,,,,,,orange,I
0.0,4.0,4.0,0.0,6.0,6.0,338.8936080000349,8.0,1.0,phase_2,go,600.0,650.0,1.0,,,,,,,,,blue,circle
0.0,3.0,3.0,0.0,6.0,6.0,367.0219019995784,8.0,1.0,phase_2,go,600.0,650.0,1.0,,,,,,,,,gray,hexagon
0.0,7.0,3.0,1.0,5.0,5.0,666.2701370000832,8.0,1.0,phase_2,go,600.0,650.0,1.0,,,,,,,,,green,square
0.0,7.0,3.0,1.0,5.0,5.0,663.1717440000102,8.0,1.0,phase_2,stop,600.0,650.0,3.0,,,,,,,,,green,square
0.0,8.0,4.0,1.0,6.0,6.0,414.6038429998953,8.0,1.0,phase_2,stop,550.0,650.0,3.0,,,,,,,,,magenta,cross
0.0,1.0,1.0,0.0,6.0,6.0,738.3390380000492,8.0,1.0,phase_2,go,550.0,600.0,1.0,,,,,,,,,orange,I
0.0,6.0,2.0,1.0,6.0,6.0,683.6447949999638,8.0,1.0,phase_2,stop,550.0,600.0,3.0,,,,,,,,,cyan,flipped triangle
0.0,5.0,1.0,1.0,5.0,5.0,519.5674720002899,8.0,1.0,phase_2,stop,550.0,550.0,3.0,,,,,,,,,yellow,triangle
0.0,2.0,2.0,0.0,6.0,6.0,669.530954000038,8.0,1.0,phase_2,go,500.0,550.0,1.0,,,,,,,,,white,diamond
0.0,5.0,1.0,1.0,6.0,0.0,0.0,8.0,1.0,phase_2,stop,500.0,550.0,4.0,,,,,,,,,yellow,triangle
0.0,2.0,2.0,0.0,6.0,6.0,601.9920409999031,8.0,1.0,phase_2,go,500.0,600.0,1.0,,,,,,,,,white,diamond
0.0,8.0,4.0,1.0,6.0,0.0,0.0,8.0,1.0,phase_2,stop,500.0,600.0,4.0,,,,,,,,,magenta,cross
0.0,4.0,4.0,0.0,6.0,6.0,830.507475000104,8.0,1.0,phase_2,go,500.0,650.0,1.0,,,,,,,,,blue,circle
0.0,4.0,4.0,0.0,6.0,6.0,898.638418000246,8.0,1.0,phase_2,go,500.0,650.0,1.0,,,,,,,,,blue,circle
0.0,3.0,3.0,0.0,5.0,5.0,946.3548000003356,8.0,1.0,phase_2,go,500.0,650.0,1.0,,,,,,,,,gray,hexagon
0.0,8.0,4.0,1.0,5.0,0.0,0.0,8.0,1.0,phase_2,stop,500.0,650.0,4.0,,,,,,,,,magenta,cross
0.0,8.0,4.0,1.0,5.0,0.0,0.0,8.0,1.0,phase_2,stop,550.0,650.0,4.0,,,,,,,,,magenta,cross
0.0,1.0,1.0,0.0,5.0,5.0,725.5668889997651,8.0,1.0,phase_2,go,600.0,650.0,1.0,,,,,,,,,orange,I
0.0,6.0,2.0,1.0,6.0,6.0,288.2364010001765,8.0,1.0,phase_2,stop,600.0,650.0,3.0,,,,,,,,,cyan,flipped triangle
0.0,7.0,3.0,1.0,5.0,5.0,793.642059999911,8.0,1.0,phase_2,go,600.0,600.0,1.0,,,,,,,,,green,square
0.0,5.0,1.0,1.0,6.0,0.0,0.0,8.0,1.0,phase_2,stop,600.0,600.0,4.0,,,,,,,,,yellow,triangle
0.0,3.0,3.0,0.0,6.0,6.0,530.8264789996429,8.0,1.0,phase_2,go,600.0,650.0,1.0,,,,,,,,,gray,hexagon
0.0,7.0,3.0,1.0,6.0,0.0,0.0,8.0,1.0,phase_2,stop,600.0,650.0,4.0,,,,,,,,,green,square
0.0,6.0,2.0,1.0,6.0,6.0,323.674579999988,8.0,1.0,phase_2,stop,600.0,700.0,3.0,,,,,,,,,cyan,flipped triangle
0.0,6.0,2.0,1.0,6.0,6.0,312.3201809999045,8.0,1.0,phase_2,go,600.0,650.0,1.0,,,,,,,,,cyan,flipped triangle
0.0,8.0,4.0,1.0,5.0,5.0,845.4683469999509,8.0,1.0,phase_2,go,600.0,650.0,1.0,,,,,,,,,magenta,cross
0.0,3.0,3.0,0.0,6.0,6.0,276.2213219998557,8.0,1.0,phase_2,go,600.0,650.0,1.0,,,,,,,,,gray,hexagon
0.0,6.0,2.0,1.0,6.0,6.0,365.18293700009957,8.0,1.0,phase_2,stop,600.0,650.0,3.0,,,,,,,,,cyan,flipped triangle
0.0,1.0,1.0,0.0,6.0,6.0,644.1918069999701,8.0,1.0,phase_2,go,600.0,600.0,1.0,,,,,,,,,orange,I
0.0,2.0,2.0,0.0,6.0,6.0,746.4168810001865,8.0,1.0,phase_2,go,600.0,600.0,1.0,,,,,,,,,white,diamond
0.0,2.0,2.0,0.0,6.0,6.0,537.8717419998793,8.0,1.0,phase_2,go,600.0,600.0,1.0,,,,,,,,,white,diamond
0.0,1.0,1.0,0.0,6.0,6.0,342.0511929998611,8.0,1.0,phase_2,go,600.0,600.0,1.0,,,,,,,,,orange,I
0.0,4.0,4.0,0.0,5.0,5.0,301.761209000233,8.0,1.0,phase_2,go,600.0,600.0,1.0,,,,,,,,,blue,circle
0.0,2.0,2.0,0.0,6.0,6.0,357.1235060003346,8.0,1.0,phase_2,go,600.0,600.0,1.0,,,,,,,,,white,diamond
0.0,4.0,4.0,0.0,5.0,5.0,578.7786690002577,8.0,1.0,phase_2,go,600.0,600.0,1.0,,,,,,,,,blue,circle
0.0,2.0,2.0,0.0,7.0,3.0,3131.9421660000444,1.0,1.0,phase_3,,,,,176.0,4.0,132.0,44.0,176.0,220.0,88.0,264.0,white,diamond
0.0,2.0,2.0,0.0,7.0,3.0,560.5582730004244,1.0,2.0,phase_3,,,,,147.0,3.0,245.0,294.0,147.0,49.0,98.0,196.0,white,diamond
0.0,7.0,3.0,1.0,7.0,5.0,2023.360627999864,1.0,1.0,phase_3,,,,,162.0,3.0,270.0,54.0,324.0,108.0,162.0,216.0,green,square
0.0,1.0,1.0,0.0,7.0,3.0,2975.496731000021,1.0,1.0,phase_3,,,,,88.0,2.0,220.0,44.0,88.0,132.0,176.0,264.0,orange,I
0.0,6.0,2.0,1.0,7.0,2.0,1514.182238000103,1.0,1.0,phase_3,,,,,216.0,4.0,270.0,216.0,324.0,54.0,108.0,162.0,cyan,flipped triangle
0.0,6.0,2.0,1.0,7.0,6.0,2229.1935069997635,1.0,1.0,phase_3,,,,,264.0,6.0,176.0,132.0,44.0,220.0,88.0,264.0,cyan,flipped triangle
0.0,7.0,3.0,1.0,7.0,4.0,1767.665074999968,1.0,1.0,phase_3,,,,,98.0,2.0,245.0,147.0,196.0,98.0,49.0,294.0,green,square
0.0,5.0,1.0,1.0,7.0,2.0,1167.208526999275,1.0,1.0,phase_3,,,,,117.0,3.0,234.0,117.0,39.0,156.0,195.0,78.0,yellow,triangle
0.0,6.0,2.0,1.0,7.0,6.0,1453.2359999993787,1.0,1.0,phase_3,,,,,117.0,3.0,195.0,234.0,39.0,78.0,156.0,117.0,cyan,flipped triangle
0.0,1.0,1.0,0.0,7.0,2.0,1542.303289999836,1.0,1.0,phase_3,,,,,204.0,6.0,170.0,204.0,34.0,102.0,136.0,68.0,orange,I
0.0,1.0,1.0,0.0,7.0,3.0,1123.6740880003708,1.0,1.0,phase_3,,,,,220.0,5.0,176.0,44.0,220.0,88.0,132.0,264.0,orange,I
0.0,8.0,4.0,1.0,7.0,1.0,1046.3220589999764,1.0,1.0,phase_3,,,,,234.0,6.0,234.0,195.0,156.0,78.0,39.0,117.0,magenta,cross
0.0,1.0,1.0,0.0,7.0,5.0,2321.5791359998548,1.0,1.0,phase_3,,,,,245.0,5.0,98.0,49.0,147.0,294.0,245.0,196.0,orange,I
0.0,3.0,3.0,0.0,7.0,3.0,1302.9283450005096,1.0,1.0,phase_3,,,,,220.0,5.0,264.0,44.0,220.0,88.0,132.0,176.0,gray,hexagon
0.0,8.0,4.0,1.0,7.0,4.0,1098.101831999884,1.0,1.0,phase_3,,,,,54.0,1.0,216.0,324.0,108.0,54.0,270.0,162.0,magenta,cross
0.0,6.0,2.0,1.0,7.0,5.0,944.6265619999394,1.0,1.0,phase_3,,,,,216.0,4.0,54.0,108.0,162.0,270.0,216.0,324.0,cyan,flipped triangle
0.0,4.0,4.0,0.0,7.0,3.0,1376.4361960002134,1.0,1.0,phase_3,,,,,162.0,3.0,270.0,324.0,162.0,216.0,54.0,108.0,blue,circle
0.0,8.0,4.0,1.0,7.0,1.0,1883.7520249999216,1.0,1.0,phase_3,,,,,156.0,4.0,156.0,39.0,234.0,195.0,78.0,117.0,magenta,cross
0.0,3.0,3.0,0.0,7.0,5.0,2140.015370000583,1.0,1.0,phase_3,,,,,117.0,3.0,78.0,156.0,234.0,195.0,117.0,39.0,gray,hexagon
0.0,1.0,1.0,0.0,7.0,4.0,1203.135255000234,1.0,1.0,phase_3,,,,,270.0,5.0,108.0,324.0,216.0,270.0,162.0,54.0,orange,I
0.0,2.0,2.0,0.0,7.0,3.0,1779.541670999606,2.0,1.0,phase_3,,,,,162.0,3.0,324.0,270.0,162.0,216.0,54.0,108.0,white,diamond
0.0,1.0,1.0,0.0,7.0,4.0,1726.589856000828,2.0,1.0,phase_3,,,,,108.0,2.0,216.0,162.0,270.0,108.0,324.0,54.0,orange,I
0.0,1.0,1.0,0.0,7.0,5.0,2306.3773059993764,2.0,1.0,phase_3,,,,,98.0,2.0,245.0,294.0,196.0,147.0,98.0,49.0,orange,I
0.0,1.0,1.0,0.0,7.0,3.0,1053.0582350002078,2.0,1.0,phase_3,,,,,195.0,5.0,78.0,234.0,195.0,39.0,117.0,156.0,orange,I
0.0,8.0,4.0,1.0,7.0,4.0,1197.8167509996638,2.0,1.0,phase_3,,,,,170.0,5.0,204.0,136.0,34.0,170.0,102.0,68.0,magenta,cross
0.0,6.0,2.0,1.0,7.0,1.0,1599.7564740000598,2.0,1.0,phase_3,,,,,147.0,3.0,147.0,245.0,98.0,294.0,196.0,49.0,cyan,flipped triangle
0.0,4.0,4.0,0.0,7.0,5.0,1855.078711000715,2.0,1.0,phase_3,,,,,176.0,4.0,44.0,88.0,220.0,264.0,176.0,132.0,blue,circle
0.0,2.0,2.0,0.0,7.0,5.0,1719.4714309998744,2.0,1.0,phase_3,,,,,44.0,1.0,88.0,220.0,176.0,264.0,44.0,132.0,white,diamond
0.0,3.0,3.0,0.0,7.0,6.0,1839.6590920001472,2.0,1.0,phase_3,,,,,136.0,4.0,170.0,102.0,34.0,204.0,68.0,136.0,gray,hexagon
0.0,4.0,4.0,0.0,7.0,2.0,1752.8281989998504,2.0,1.0,phase_3,,,,,117.0,3.0,156.0,117.0,234.0,39.0,78.0,195.0,blue,circle
0.0,3.0,3.0,0.0,7.0,4.0,721.1115740001333,2.0,1.0,phase_3,,,,,170.0,5.0,34.0,204.0,68.0,170.0,102.0,136.0,gray,hexagon
0.0,7.0,3.0,1.0,7.0,1.0,1829.3741949992184,2.0,1.0,phase_3,,,,,162.0,3.0,162.0,108.0,270.0,216.0,324.0,54.0,green,square
0.0,5.0,1.0,1.0,7.0,5.0,1089.899620000324,2.0,1.0,phase_3,,,,,270.0,5.0,54.0,162.0,216.0,108.0,270.0,324.0,yellow,triangle
0.0,4.0,4.0,0.0,7.0,4.0,1024.348965000172,2.0,1.0,phase_3,,,,,98.0,2.0,294.0,245.0,147.0,98.0,49.0,196.0,blue,circle
0.0,2.0,2.0,0.0,7.0,2.0,1733.6911129996224,2.0,1.0,phase_3,,,,,78.0,2.0,39.0,78.0,195.0,117.0,234.0,156.0,white,diamond
0.0,2.0,2.0,0.0,7.0,6.0,1698.207227000239,2.0,1.0,phase_3,,,,,170.0,5.0,68.0,204.0,34.0,102.0,136.0,170.0,white,diamond
0.0,4.0,4.0,0.0,7.0,3.0,1508.984008999505,2.0,1.0,phase_3,,,,,195.0,5.0,117.0,39.0,195.0,234.0,156.0,78.0,blue,circle
0.0,8.0,4.0,1.0,7.0,3.0,2004.0958370000226,2.0,1.0,phase_3,,,,,132.0,3.0,88.0,44.0,132.0,220.0,264.0,176.0,magenta,cross
0.0,5.0,1.0,1.0,7.0,2.0,2305.0843129994973,2.0,1.0,phase_3,,,,,49.0,1.0,147.0,49.0,98.0,294.0,245.0,196.0,yellow,triangle
0.0,3.0,3.0,0.0,7.0,4.0,1068.7471929995809,2.0,1.0,phase_3,,,,,234.0,6.0,39.0,156.0,117.0,234.0,78.0,195.0,gray,hexagon
0.0,3.0,3.0,0.0,7.0,5.0,825.121142000171,3.0,1.0,phase_3,,,,,245.0,5.0,147.0,98.0,49.0,196.0,245.0,294.0,gray,hexagon
0.0,1.0,1.0,0.0,7.0,4.0,2347.386222999376,3.0,1.0,phase_3,,,,,156.0,4.0,195.0,39.0,78.0,156.0,234.0,117.0,orange,I
0.0,7.0,3.0,1.0,7.0,2.0,1610.5122540002412,3.0,1.0,phase_3,,,,,234.0,6.0,195.0,234.0,156.0,39.0,117.0,78.0,green,square
0.0,5.0,1.0,1.0,7.0,4.0,1540.9702599999946,3.0,1.0,phase_3,,,,,136.0,4.0,204.0,102.0,34.0,136.0,68.0,170.0,yellow,triangle
0.0,2.0,2.0,0.0,7.0,5.0,1806.2862229999157,3.0,1.0,phase_3,,,,,102.0,3.0,170.0,68.0,204.0,34.0,102.0,136.0,white,diamond
0.0,2.0,2.0,0.0,7.0,5.0,1498.3434129999296,3.0,1.0,phase_3,,,,,196.0,4.0,147.0,294.0,245.0,98.0,196.0,49.0,white,diamond
0.0,4.0,4.0,0.0,7.0,2.0,1956.1402500003169,3.0,1.0,phase_3,,,,,294.0,6.0,245.0,294.0,49.0,98.0,147.0,196.0,blue,circle
0.0,1.0,1.0,0.0,7.0,3.0,2182.451171000139,3.0,1.0,phase_3,,,,,102.0,3.0,68.0,170.0,102.0,204.0,34.0,136.0,orange,I
0.0,5.0,1.0,1.0,7.0,2.0,1267.5773639994077,3.0,1.0,phase_3,,,,,88.0,2.0,132.0,88.0,264.0,44.0,176.0,220.0,yellow,triangle
0.0,7.0,3.0,1.0,7.0,6.0,2049.8830119995546,3.0,1.0,phase_3,,,,,88.0,2.0,132.0,220.0,264.0,176.0,44.0,88.0,green,square
0.0,6.0,2.0,1.0,7.0,2.0,1788.8079289996313,3.0,1.0,phase_3,,,,,117.0,3.0,78.0,117.0,195.0,156.0,234.0,39.0,cyan,flipped triangle
0.0,4.0,4.0,0.0,7.0,5.0,1638.4155229998214,3.0,1.0,phase_3,,,,,136.0,4.0,34.0,102.0,68.0,204.0,136.0,170.0,blue,circle
0.0,6.0,2.0,1.0,7.0,1.0,1694.305199000155,3.0,1.0,phase_3,,,,,147.0,3.0,147.0,294.0,196.0,245.0,98.0,49.0,cyan,flipped triangle
0.0,5.0,1.0,1.0,7.0,2.0,1555.593155000679,3.0,1.0,phase_3,,,,,132.0,3.0,88.0,132.0,264.0,220.0,44.0,176.0,yellow,triangle
0.0,3.0,3.0,0.0,7.0,3.0,2072.481161999349,3.0,1.0,phase_3,,,,,196.0,4.0,98.0,147.0,196.0,245.0,49.0,294.0,gray,hexagon
0.0,8.0,4.0,1.0,7.0,1.0,1469.451234999724,3.0,1.0,phase_3,,,,,245.0,5.0,245.0,98.0,147.0,49.0,196.0,294.0,magenta,cross
0.0,6.0,2.0,1.0,7.0,4.0,1122.173171999748,3.0,1.0,phase_3,,,,,176.0,4.0,44.0,220.0,132.0,176.0,264.0,88.0,cyan,flipped triangle
0.0,4.0,4.0,0.0,7.0,4.0,1474.8264419995394,3.0,1.0,phase_3,,,,,102.0,3.0,136.0,34.0,204.0,102.0,68.0,170.0,blue,circle
0.0,5.0,1.0,1.0,7.0,2.0,1605.043888000182,3.0,1.0,phase_3,,,,,270.0,5.0,162.0,270.0,216.0,108.0,54.0,324.0,yellow,triangle
0.0,4.0,4.0,0.0,7.0,3.0,988.6126179999336,3.0,1.0,phase_3,,,,,88.0,2.0,220.0,264.0,88.0,176.0,132.0,44.0,blue,circle
0.0,2.0,2.0,0.0,7.0,4.0,1137.416309999935,4.0,1.0,phase_3,,,,,156.0,4.0,117.0,78.0,39.0,156.0,195.0,234.0,white,diamond
0.0,3.0,3.0,0.0,7.0,2.0,1081.9240350001564,4.0,1.0,phase_3,,,,,176.0,4.0,88.0,176.0,44.0,132.0,264.0,220.0,gray,hexagon
0.0,4.0,4.0,0.0,7.0,6.0,1390.439234999576,4.0,1.0,phase_3,,,,,324.0,6.0,270.0,216.0,108.0,162.0,54.0,324.0,blue,circle
0.0,8.0,4.0,1.0,7.0,5.0,1215.05041599994,4.0,1.0,phase_3,,,,,264.0,6.0,176.0,132.0,220.0,88.0,264.0,44.0,magenta,cross
0.0,2.0,2.0,0.0,7.0,1.0,1385.8015890000388,4.0,1.0,phase_3,,,,,324.0,6.0,324.0,54.0,270.0,108.0,162.0,216.0,white,diamond
0.0,7.0,3.0,1.0,7.0,4.0,1232.7819510001063,4.0,1.0,phase_3,,,,,196.0,4.0,49.0,294.0,98.0,196.0,245.0,147.0,green,square
0.0,7.0,3.0,1.0,7.0,5.0,1079.8680859998058,4.0,1.0,phase_3,,,,,170.0,5.0,34.0,68.0,204.0,136.0,170.0,102.0,green,square
0.0,8.0,4.0,1.0,7.0,4.0,1246.4515649999155,4.0,1.0,phase_3,,,,,136.0,4.0,34.0,68.0,170.0,136.0,204.0,102.0,magenta,cross
0.0,5.0,1.0,1.0,7.0,3.0,2031.6904629999044,4.0,1.0,phase_3,,,,,49.0,1.0,147.0,196.0,49.0,98.0,294.0,245.0,yellow,triangle
0.0,7.0,3.0,1.0,7.0,2.0,1683.3911130006527,4.0,1.0,phase_3,,,,,102.0,3.0,170.0,102.0,68.0,136.0,34.0,204.0,green,square
0.0,6.0,2.0,1.0,7.0,5.0,1133.5512729992845,4.0,1.0,phase_3,,,,,170.0,5.0,102.0,204.0,68.0,34.0,170.0,136.0,cyan,flipped triangle
0.0,7.0,3.0,1.0,7.0,2.0,1506.7029640003966,4.0,1.0,phase_3,,,,,176.0,4.0,220.0,176.0,132.0,88.0,264.0,44.0,green,square
0.0,8.0,4.0,1.0,7.0,4.0,1497.4804109997422,4.0,1.0,phase_3,,,,,294.0,6.0,49.0,98.0,196.0,294.0,245.0,147.0,magenta,cross
0.0,7.0,3.0,1.0,7.0,3.0,1706.8434460006756,4.0,1.0,phase_3,,,,,156.0,4.0,234.0,39.0,156.0,195.0,78.0,117.0,green,square
0.0,5.0,1.0,1.0,7.0,2.0,1346.4186510000218,4.0,1.0,phase_3,,,,,136.0,4.0,170.0,136.0,68.0,102.0,34.0,204.0,yellow,triangle
0.0,8.0,4.0,1.0,7.0,5.0,1440.3383039998516,4.0,1.0,phase_3,,,,,216.0,4.0,324.0,54.0,108.0,270.0,216.0,162.0,magenta,cross
0.0,3.0,3.0,0.0,7.0,3.0,1771.7800259997605,4.0,1.0,phase_3,,,,,108.0,2.0,324.0,270.0,108.0,216.0,162.0,54.0,gray,hexagon
0.0,3.0,3.0,0.0,7.0,5.0,1202.292318000218,4.0,1.0,phase_3,,,,,162.0,3.0,108.0,216.0,324.0,54.0,162.0,270.0,gray,hexagon
0.0,6.0,2.0,1.0,7.0,6.0,932.1409459998904,4.0,1.0,phase_3,,,,,204.0,6.0,68.0,170.0,102.0,136.0,34.0,204.0,cyan,flipped triangle
0.0,5.0,1.0,1.0,7.0,4.0,1026.990502999979,4.0,1.0,phase_3,,,,,156.0,4.0,234.0,117.0,39.0,156.0,78.0,195.0,yellow,triangle
