raw_reward_magnitude,stim_reward,stepwise_reward_magnitude,paired_with_stopping,stim_location,response,reaction_time,block,num_trial_presentations,which_phase,stop_signal_trial_type,left_SSD,right_SSD,accuracy,chosen_bidding_amount,chosen_bidding_level,possible_bid_1,possible_bid_2,possible_bid_3,possible_bid_4,possible_bid_5,possible_bid_6,color_text,shape_text
225.0,3.0,2.0,0.0,1.0,1.0,405.4337299999133,1.0,1.0,phase_1,,,,,,,,,,,,,gray,circle
0.0,7.0,0.0,1.0,1.0,1.0,394.6262039999055,1.0,1.0,phase_1,,,,,,,,,,,,,white,triangle
200.0,3.0,2.0,0.0,4.0,4.0,362.2782269999334,1.0,1.0,phase_1,,,,,,,,,,,,,gray,circle
0.0,1.0,0.0,0.0,3.0,3.0,375.4977850001069,1.0,1.0,phase_1,,,,,,,,,,,,,orange,hexagon
203.0,7.0,2.0,1.0,4.0,4.0,369.1369759999361,1.0,1.0,phase_1,,,,,,,,,,,,,white,triangle
67.0,5.0,0.5,1.0,2.0,2.0,431.2096720000227,1.0,1.0,phase_1,,,,,,,,,,,,,cyan,I
414.0,4.0,4.0,0.0,1.0,1.0,419.135032999975,1.0,1.0,phase_1,,,,,,,,,,,,,green,square
46.0,1.0,0.5,0.0,2.0,2.0,348.9830510000047,1.0,1.0,phase_1,,,,,,,,,,,,,orange,hexagon
77.0,2.0,1.0,0.0,2.0,2.0,317.7318329999252,1.0,1.0,phase_1,,,,,,,,,,,,,yellow,cross
0.0,4.0,0.0,0.0,2.0,2.0,337.8213659998437,1.0,1.0,phase_1,,,,,,,,,,,,,green,square
0.0,2.0,0.0,0.0,2.0,2.0,313.6384270001144,1.0,1.0,phase_1,,,,,,,,,,,,,yellow,cross
387.0,4.0,4.0,0.0,3.0,3.0,389.5448099999612,1.0,1.0,phase_1,,,,,,,,,,,,,green,square
0.0,4.0,0.0,0.0,1.0,1.0,438.1661749998784,1.0,1.0,phase_1,,,,,,,,,,,,,green,square
28.0,1.0,0.5,0.0,2.0,2.0,326.7576190000909,1.0,1.0,phase_1,,,,,,,,,,,,,orange,hexagon
100.0,6.0,1.0,1.0,3.0,3.0,289.9700550001398,1.0,1.0,phase_1,,,,,,,,,,,,,magenta,flipped triangle
0.0,1.0,0.0,0.0,2.0,2.0,310.2909770000224,1.0,1.0,phase_1,,,,,,,,,,,,,orange,hexagon
0.0,1.0,0.0,0.0,2.0,2.0,298.2188429998587,1.0,1.0,phase_1,,,,,,,,,,,,,orange,hexagon
191.0,7.0,2.0,1.0,4.0,4.0,339.1631619999771,1.0,1.0,phase_1,,,,,,,,,,,,,white,triangle
45.0,5.0,0.5,1.0,3.0,3.0,329.5253720000346,1.0,1.0,phase_1,,,,,,,,,,,,,cyan,I
119.0,2.0,1.0,0.0,4.0,4.0,328.6293520000072,1.0,1.0,phase_1,,,,,,,,,,,,,yellow,cross
90.0,2.0,1.0,0.0,1.0,1.0,346.3986700000987,1.0,1.0,phase_1,,,,,,,,,,,,,yellow,cross
391.0,4.0,4.0,0.0,1.0,1.0,342.1504990001267,1.0,1.0,phase_1,,,,,,,,,,,,,green,square
0.0,4.0,0.0,0.0,1.0,1.0,335.9788569998727,1.0,1.0,phase_1,,,,,,,,,,,,,green,square
419.0,8.0,4.0,1.0,3.0,3.0,326.1193299999831,1.0,1.0,phase_1,,,,,,,,,,,,,blue,diamond
220.0,7.0,2.0,1.0,2.0,2.0,295.6145419998393,1.0,1.0,phase_1,,,,,,,,,,,,,white,triangle
416.0,8.0,4.0,1.0,1.0,1.0,394.8409309998624,1.0,1.0,phase_1,,,,,,,,,,,,,blue,diamond
425.0,8.0,4.0,1.0,2.0,2.0,331.4531850001003,1.0,1.0,phase_1,,,,,,,,,,,,,blue,diamond
200.0,7.0,2.0,1.0,1.0,1.0,328.4941510000863,1.0,1.0,phase_1,,,,,,,,,,,,,white,triangle
216.0,7.0,2.0,1.0,3.0,3.0,345.3253679999761,1.0,1.0,phase_1,,,,,,,,,,,,,white,triangle
402.0,4.0,4.0,0.0,2.0,2.0,314.4014770000467,1.0,1.0,phase_1,,,,,,,,,,,,,green,square
109.0,2.0,1.0,0.0,2.0,2.0,333.5650900000928,1.0,1.0,phase_1,,,,,,,,,,,,,yellow,cross
69.0,5.0,0.5,1.0,4.0,4.0,374.4873739999548,1.0,1.0,phase_1,,,,,,,,,,,,,cyan,I
0.0,8.0,0.0,1.0,1.0,1.0,291.45015600010987,1.0,1.0,phase_1,,,,,,,,,,,,,blue,diamond
28.0,5.0,0.5,1.0,4.0,4.0,349.7869979998995,1.0,1.0,phase_1,,,,,,,,,,,,,cyan,I
80.0,2.0,1.0,0.0,3.0,3.0,334.180816000071,1.0,1.0,phase_1,,,,,,,,,,,,,yellow,cross
65.0,1.0,0.5,0.0,3.0,3.0,342.1081280000635,1.0,1.0,phase_1,,,,,,,,,,,,,orange,hexagon
407.0,4.0,4.0,0.0,4.0,4.0,388.2554229999186,1.0,1.0,phase_1,,,,,,,,,,,,,green,square
0.0,5.0,0.0,1.0,2.0,2.0,335.8518529998946,1.0,1.0,phase_1,,,,,,,,,,,,,cyan,I
63.0,1.0,0.5,0.0,3.0,3.0,320.7793509998282,1.0,1.0,phase_1,,,,,,,,,,,,,orange,hexagon
43.0,1.0,0.5,0.0,1.0,1.0,356.3147630000003,1.0,1.0,phase_1,,,,,,,,,,,,,orange,hexagon
45.0,5.0,0.5,1.0,1.0,1.0,365.1655329999812,1.0,1.0,phase_1,,,,,,,,,,,,,cyan,I
94.0,6.0,1.0,1.0,1.0,1.0,331.1287359999824,1.0,1.0,phase_1,,,,,,,,,,,,,magenta,flipped triangle
114.0,2.0,1.0,0.0,1.0,1.0,375.0293859998237,1.0,1.0,phase_1,,,,,,,,,,,,,yellow,cross
85.0,2.0,1.0,0.0,2.0,2.0,277.9909789999237,1.0,1.0,phase_1,,,,,,,,,,,,,yellow,cross
209.0,3.0,2.0,0.0,4.0,4.0,361.1832199999298,1.0,1.0,phase_1,,,,,,,,,,,,,gray,circle
184.0,3.0,2.0,0.0,2.0,2.0,415.9529030000612,1.0,1.0,phase_1,,,,,,,,,,,,,gray,circle
376.0,4.0,4.0,0.0,3.0,3.0,335.0302850001299,1.0,1.0,phase_1,,,,,,,,,,,,,green,square
78.0,2.0,1.0,0.0,2.0,2.0,386.8865490001099,1.0,1.0,phase_1,,,,,,,,,,,,,yellow,cross
205.0,3.0,2.0,0.0,3.0,3.0,297.6715419999891,1.0,1.0,phase_1,,,,,,,,,,,,,gray,circle
67.0,5.0,0.5,1.0,1.0,1.0,331.0195410001597,1.0,1.0,phase_1,,,,,,,,,,,,,cyan,I
100.0,2.0,1.0,0.0,3.0,3.0,359.844103000114,1.0,1.0,phase_1,,,,,,,,,,,,,yellow,cross
0.0,7.0,0.0,1.0,2.0,2.0,340.6578169999648,1.0,1.0,phase_1,,,,,,,,,,,,,white,triangle
86.0,2.0,1.0,0.0,3.0,3.0,343.4991879998961,1.0,1.0,phase_1,,,,,,,,,,,,,yellow,cross
0.0,6.0,0.0,1.0,1.0,1.0,332.6157379999586,1.0,1.0,phase_1,,,,,,,,,,,,,magenta,flipped triangle
389.0,8.0,4.0,1.0,1.0,1.0,420.2830920000906,1.0,1.0,phase_1,,,,,,,,,,,,,blue,diamond
93.0,2.0,1.0,0.0,3.0,3.0,388.0792140000721,1.0,1.0,phase_1,,,,,,,,,,,,,yellow,cross
0.0,8.0,0.0,1.0,3.0,3.0,344.8697159999483,1.0,1.0,phase_1,,,,,,,,,,,,,blue,diamond
187.0,3.0,2.0,0.0,3.0,3.0,333.192912999948,1.0,1.0,phase_1,,,,,,,,,,,,,gray,circle
418.0,4.0,4.0,0.0,4.0,4.0,336.2338379999983,1.0,1.0,phase_1,,,,,,,,,,,,,green,square
108.0,2.0,1.0,0.0,3.0,3.0,348.5339039998507,1.0,1.0,phase_1,,,,,,,,,,,,,yellow,cross
35.0,1.0,0.5,0.0,1.0,1.0,338.864625000042,1.0,1.0,phase_1,,,,,,,,,,,,,orange,hexagon
376.0,4.0,4.0,0.0,2.0,2.0,319.8706320001747,1.0,1.0,phase_1,,,,,,,,,,,,,green,square
34.0,5.0,0.5,1.0,1.0,1.0,314.0823109999928,1.0,1.0,phase_1,,,,,,,,,,,,,cyan,I
93.0,6.0,1.0,1.0,4.0,4.0,323.5890809999091,1.0,1.0,phase_1,,,,,,,,,,,,,magenta,flipped triangle
198.0,3.0,2.0,0.0,2.0,2.0,313.3214100000714,1.0,1.0,phase_1,,,,,,,,,,,,,gray,circle
0.0,5.0,0.0,1.0,1.0,1.0,304.6693209998921,1.0,1.0,phase_1,,,,,,,,,,,,,cyan,I
400.0,4.0,4.0,0.0,3.0,3.0,311.2988770001266,1.0,1.0,phase_1,,,,,,,,,,,,,green,square
204.0,3.0,2.0,0.0,1.0,1.0,325.7758190000004,1.0,1.0,phase_1,,,,,,,,,,,,,gray,circle
397.0,4.0,4.0,0.0,2.0,2.0,361.6659210001671,1.0,1.0,phase_1,,,,,,,,,,,,,green,square
96.0,2.0,1.0,0.0,1.0,1.0,359.0270529998633,1.0,1.0,phase_1,,,,,,,,,,,,,yellow,cross
97.0,6.0,1.0,1.0,1.0,1.0,349.9201590000211,1.0,1.0,phase_1,,,,,,,,,,,,,magenta,flipped triangle
58.0,5.0,0.5,1.0,3.0,3.0,338.0421049998858,1.0,1.0,phase_1,,,,,,,,,,,,,cyan,I
38.0,1.0,0.5,0.0,1.0,1.0,349.884091000149,1.0,1.0,phase_1,,,,,,,,,,,,,orange,hexagon
199.0,3.0,2.0,0.0,1.0,1.0,329.2307659999096,1.0,1.0,phase_1,,,,,,,,,,,,,gray,circle
34.0,1.0,0.5,0.0,4.0,4.0,334.6659240000917,1.0,1.0,phase_1,,,,,,,,,,,,,orange,hexagon
393.0,4.0,4.0,0.0,3.0,3.0,310.0986790000206,1.0,1.0,phase_1,,,,,,,,,,,,,green,square
119.0,6.0,1.0,1.0,3.0,3.0,341.8199230000027,1.0,1.0,phase_1,,,,,,,,,,,,,magenta,flipped triangle
220.0,3.0,2.0,0.0,3.0,3.0,293.9339150000251,1.0,1.0,phase_1,,,,,,,,,,,,,gray,circle
212.0,3.0,2.0,0.0,4.0,4.0,454.4023690000358,1.0,1.0,phase_1,,,,,,,,,,,,,gray,circle
0.0,3.0,0.0,0.0,4.0,4.0,335.6670059999942,1.0,1.0,phase_1,,,,,,,,,,,,,gray,circle
72.0,1.0,0.5,0.0,1.0,1.0,411.8695160000243,1.0,1.0,phase_1,,,,,,,,,,,,,orange,hexagon
0.0,5.0,0.0,1.0,3.0,3.0,386.6122649999397,1.0,1.0,phase_1,,,,,,,,,,,,,cyan,I
47.0,1.0,0.5,0.0,4.0,4.0,464.6162749997984,1.0,1.0,phase_1,,,,,,,,,,,,,orange,hexagon
400.0,8.0,4.0,1.0,1.0,1.0,530.763319000016,1.0,1.0,phase_1,,,,,,,,,,,,,blue,diamond
26.0,5.0,0.5,1.0,1.0,1.0,392.5407599999744,1.0,1.0,phase_1,,,,,,,,,,,,,cyan,I
381.0,8.0,4.0,1.0,1.0,1.0,379.5021409998753,1.0,1.0,phase_1,,,,,,,,,,,,,blue,diamond
123.0,6.0,1.0,1.0,4.0,4.0,315.47909599999,1.0,1.0,phase_1,,,,,,,,,,,,,magenta,flipped triangle
0.0,5.0,0.0,1.0,2.0,2.0,370.2016830000048,1.0,1.0,phase_1,,,,,,,,,,,,,cyan,I
389.0,4.0,4.0,0.0,4.0,4.0,356.2304629999744,1.0,1.0,phase_1,,,,,,,,,,,,,green,square
117.0,2.0,1.0,0.0,1.0,1.0,281.8381780000436,1.0,1.0,phase_1,,,,,,,,,,,,,yellow,cross
398.0,4.0,4.0,0.0,2.0,2.0,356.8009879998044,1.0,1.0,phase_1,,,,,,,,,,,,,green,square
401.0,8.0,4.0,1.0,3.0,3.0,309.7298269999555,1.0,1.0,phase_1,,,,,,,,,,,,,blue,diamond
0.0,1.0,0.0,0.0,2.0,2.0,316.7552319998776,1.0,1.0,phase_1,,,,,,,,,,,,,orange,hexagon
397.0,8.0,4.0,1.0,2.0,2.0,308.9706959999603,1.0,1.0,phase_1,,,,,,,,,,,,,blue,diamond
390.0,4.0,4.0,0.0,1.0,1.0,346.1245139999391,1.0,2.0,phase_1,,,,,,,,,,,,,green,square
0.0,2.0,0.0,0.0,1.0,1.0,375.8140219999859,1.0,1.0,phase_1,,,,,,,,,,,,,yellow,cross
391.0,4.0,4.0,0.0,2.0,2.0,349.801490000118,1.0,1.0,phase_1,,,,,,,,,,,,,green,square
28.0,1.0,0.5,0.0,3.0,3.0,350.0845799999297,1.0,1.0,phase_1,,,,,,,,,,,,,orange,hexagon
389.0,8.0,4.0,1.0,1.0,1.0,259.6216460001415,1.0,1.0,phase_1,,,,,,,,,,,,,blue,diamond
0.0,7.0,0.0,1.0,3.0,3.0,308.0316829998537,1.0,1.0,phase_1,,,,,,,,,,,,,white,triangle
0.0,3.0,0.0,0.0,2.0,2.0,399.601561000054,2.0,1.0,phase_1,,,,,,,,,,,,,gray,circle
111.0,6.0,1.0,1.0,1.0,1.0,491.7193300000235,2.0,1.0,phase_1,,,,,,,,,,,,,magenta,flipped triangle
0.0,7.0,0.0,1.0,2.0,2.0,491.2777260001348,2.0,1.0,phase_1,,,,,,,,,,,,,white,triangle
209.0,7.0,2.0,1.0,3.0,3.0,409.4489079998311,2.0,1.0,phase_1,,,,,,,,,,,,,white,triangle
0.0,6.0,0.0,1.0,4.0,4.0,448.2939659999374,2.0,1.0,phase_1,,,,,,,,,,,,,magenta,flipped triangle
104.0,6.0,1.0,1.0,4.0,4.0,475.468261999822,2.0,1.0,phase_1,,,,,,,,,,,,,magenta,flipped triangle
387.0,4.0,4.0,0.0,4.0,4.0,374.1911029999301,2.0,1.0,phase_1,,,,,,,,,,,,,green,square
53.0,5.0,0.5,1.0,4.0,4.0,305.2187419998518,2.0,1.0,phase_1,,,,,,,,,,,,,cyan,I
28.0,5.0,0.5,1.0,3.0,3.0,337.4650220000603,2.0,1.0,phase_1,,,,,,,,,,,,,cyan,I
184.0,3.0,2.0,0.0,2.0,2.0,402.8668239998296,2.0,1.0,phase_1,,,,,,,,,,,,,gray,circle
60.0,1.0,0.5,0.0,4.0,4.0,402.1887019998758,2.0,1.0,phase_1,,,,,,,,,,,,,orange,hexagon
114.0,6.0,1.0,1.0,4.0,4.0,337.6236090000475,2.0,1.0,phase_1,,,,,,,,,,,,,magenta,flipped triangle
210.0,7.0,2.0,1.0,3.0,3.0,346.2702159999935,2.0,1.0,phase_1,,,,,,,,,,,,,white,triangle
119.0,2.0,1.0,0.0,2.0,2.0,308.0707789999906,2.0,1.0,phase_1,,,,,,,,,,,,,yellow,cross
419.0,4.0,4.0,0.0,2.0,2.0,414.1932439999891,2.0,1.0,phase_1,,,,,,,,,,,,,green,square
407.0,8.0,4.0,1.0,4.0,4.0,324.9394310000753,2.0,2.0,phase_1,,,,,,,,,,,,,blue,diamond
32.0,5.0,0.5,1.0,2.0,2.0,429.049415999998,2.0,1.0,phase_1,,,,,,,,,,,,,cyan,I
0.0,4.0,0.0,0.0,2.0,2.0,398.3616269999857,2.0,1.0,phase_1,,,,,,,,,,,,,green,square
393.0,8.0,4.0,1.0,1.0,1.0,363.5586230000172,2.0,1.0,phase_1,,,,,,,,,,,,,blue,diamond
182.0,3.0,2.0,0.0,3.0,3.0,339.273551999895,2.0,1.0,phase_1,,,,,,,,,,,,,gray,circle
26.0,1.0,0.5,0.0,4.0,4.0,319.1640210000059,2.0,1.0,phase_1,,,,,,,,,,,,,orange,hexagon
0.0,8.0,0.0,1.0,2.0,2.0,350.6384699999216,2.0,1.0,phase_1,,,,,,,,,,,,,blue,diamond
81.0,2.0,1.0,0.0,2.0,2.0,320.8322759999191,2.0,1.0,phase_1,,,,,,,,,,,,,yellow,cross
116.0,6.0,1.0,1.0,1.0,1.0,373.7722490000124,2.0,1.0,phase_1,,,,,,,,,,,,,magenta,flipped triangle
218.0,7.0,2.0,1.0,1.0,1.0,409.8304869999083,2.0,1.0,phase_1,,,,,,,,,,,,,white,triangle
56.0,5.0,0.5,1.0,4.0,4.0,440.7890899999529,2.0,1.0,phase_1,,,,,,,,,,,,,cyan,I
202.0,3.0,2.0,0.0,4.0,4.0,400.4693339998084,2.0,1.0,phase_1,,,,,,,,,,,,,gray,circle
90.0,2.0,1.0,0.0,4.0,4.0,347.0686989999194,2.0,1.0,phase_1,,,,,,,,,,,,,yellow,cross
407.0,8.0,4.0,1.0,2.0,2.0,447.6177020001159,2.0,1.0,phase_1,,,,,,,,,,,,,blue,diamond
391.0,8.0,4.0,1.0,3.0,3.0,434.0484320000541,2.0,1.0,phase_1,,,,,,,,,,,,,blue,diamond
425.0,4.0,4.0,0.0,2.0,2.0,312.6734330001,2.0,1.0,phase_1,,,,,,,,,,,,,green,square
417.0,8.0,4.0,1.0,2.0,2.0,318.0898560001424,2.0,1.0,phase_1,,,,,,,,,,,,,blue,diamond
189.0,7.0,2.0,1.0,3.0,3.0,403.7847929998861,2.0,1.0,phase_1,,,,,,,,,,,,,white,triangle
185.0,3.0,2.0,0.0,3.0,3.0,305.5897459998959,2.0,1.0,phase_1,,,,,,,,,,,,,gray,circle
0.0,7.0,0.0,1.0,1.0,1.0,329.0218699999059,2.0,1.0,phase_1,,,,,,,,,,,,,white,triangle
205.0,7.0,2.0,1.0,4.0,4.0,314.7060579999561,2.0,1.0,phase_1,,,,,,,,,,,,,white,triangle
197.0,7.0,2.0,1.0,4.0,4.0,329.6303529998567,2.0,1.0,phase_1,,,,,,,,,,,,,white,triangle
63.0,5.0,0.5,1.0,1.0,1.0,315.5849490001401,2.0,1.0,phase_1,,,,,,,,,,,,,cyan,I
109.0,6.0,1.0,1.0,2.0,2.0,370.3594610001346,2.0,1.0,phase_1,,,,,,,,,,,,,magenta,flipped triangle
402.0,8.0,4.0,1.0,4.0,4.0,378.5702459999811,2.0,1.0,phase_1,,,,,,,,,,,,,blue,diamond
209.0,7.0,2.0,1.0,2.0,2.0,341.1446089999117,2.0,1.0,phase_1,,,,,,,,,,,,,white,triangle
0.0,1.0,0.0,0.0,2.0,2.0,327.6754849998724,2.0,1.0,phase_1,,,,,,,,,,,,,orange,hexagon
180.0,7.0,2.0,1.0,4.0,4.0,380.7621389998985,2.0,2.0,phase_1,,,,,,,,,,,,,white,triangle
197.0,7.0,2.0,1.0,2.0,2.0,347.3424440001054,2.0,1.0,phase_1,,,,,,,,,,,,,white,triangle
203.0,3.0,2.0,0.0,2.0,2.0,353.1366569998226,2.0,1.0,phase_1,,,,,,,,,,,,,gray,circle
58.0,1.0,0.5,0.0,2.0,2.0,309.4556220000868,2.0,1.0,phase_1,,,,,,,,,,,,,orange,hexagon
0.0,2.0,0.0,0.0,3.0,3.0,343.1472449999546,2.0,1.0,phase_1,,,,,,,,,,,,,yellow,cross
178.0,7.0,2.0,1.0,4.0,4.0,515.4658520000339,2.0,1.0,phase_1,,,,,,,,,,,,,white,triangle
0.0,3.0,0.0,0.0,4.0,4.0,394.5227530000466,2.0,1.0,phase_1,,,,,,,,,,,,,gray,circle
384.0,8.0,4.0,1.0,4.0,4.0,357.0469460000822,2.0,1.0,phase_1,,,,,,,,,,,,,blue,diamond
111.0,6.0,1.0,1.0,1.0,1.0,321.9204090000858,2.0,1.0,phase_1,,,,,,,,,,,,,magenta,flipped triangle
53.0,1.0,0.5,0.0,4.0,4.0,348.4175660000801,2.0,1.0,phase_1,,,,,,,,,,,,,orange,hexagon
189.0,3.0,2.0,0.0,2.0,2.0,313.3616049999546,2.0,1.0,phase_1,,,,,,,,,,,,,gray,circle
388.0,8.0,4.0,1.0,2.0,2.0,330.7108149999749,2.0,1.0,phase_1,,,,,,,,,,,,,blue,diamond
214.0,7.0,2.0,1.0,1.0,1.0,334.0058119999867,2.0,1.0,phase_1,,,,,,,,,,,,,white,triangle
77.0,6.0,1.0,1.0,4.0,4.0,498.5201889999189,2.0,1.0,phase_1,,,,,,,,,,,,,magenta,flipped triangle
0.0,3.0,0.0,0.0,3.0,3.0,385.1290980001067,2.0,1.0,phase_1,,,,,,,,,,,,,gray,circle
54.0,5.0,0.5,1.0,2.0,2.0,386.5344929999992,2.0,1.0,phase_1,,,,,,,,,,,,,cyan,I
214.0,3.0,2.0,0.0,2.0,2.0,333.6110059999555,2.0,1.0,phase_1,,,,,,,,,,,,,gray,circle
401.0,4.0,4.0,0.0,4.0,4.0,333.6621299999933,2.0,1.0,phase_1,,,,,,,,,,,,,green,square
191.0,3.0,2.0,0.0,3.0,3.0,405.7955069999934,2.0,1.0,phase_1,,,,,,,,,,,,,gray,circle
109.0,2.0,1.0,0.0,2.0,2.0,472.027904000015,2.0,1.0,phase_1,,,,,,,,,,,,,yellow,cross
0.0,6.0,0.0,1.0,4.0,4.0,382.5451780001003,2.0,1.0,phase_1,,,,,,,,,,,,,magenta,flipped triangle
223.0,3.0,2.0,0.0,1.0,1.0,396.7343729998447,2.0,1.0,phase_1,,,,,,,,,,,,,gray,circle
72.0,5.0,0.5,1.0,4.0,4.0,477.9112250000707,2.0,1.0,phase_1,,,,,,,,,,,,,cyan,I
376.0,8.0,4.0,1.0,1.0,1.0,425.2482730000793,2.0,1.0,phase_1,,,,,,,,,,,,,blue,diamond
187.0,7.0,2.0,1.0,4.0,4.0,345.2253269999801,2.0,1.0,phase_1,,,,,,,,,,,,,white,triangle
0.0,3.0,0.0,0.0,3.0,3.0,383.1518930001039,2.0,1.0,phase_1,,,,,,,,,,,,,gray,circle
81.0,6.0,1.0,1.0,1.0,1.0,721.8131080001058,2.0,1.0,phase_1,,,,,,,,,,,,,magenta,flipped triangle
197.0,3.0,2.0,0.0,4.0,4.0,582.7620510001452,2.0,1.0,phase_1,,,,,,,,,,,,,gray,circle
122.0,2.0,1.0,0.0,4.0,4.0,357.4616780001634,2.0,1.0,phase_1,,,,,,,,,,,,,yellow,cross
391.0,4.0,4.0,0.0,1.0,1.0,349.0129360000082,2.0,1.0,phase_1,,,,,,,,,,,,,green,square
103.0,6.0,1.0,1.0,1.0,1.0,544.3817469999885,2.0,1.0,phase_1,,,,,,,,,,,,,magenta,flipped triangle
222.0,3.0,2.0,0.0,1.0,1.0,310.2503909999541,2.0,1.0,phase_1,,,,,,,,,,,,,gray,circle
411.0,8.0,4.0,1.0,4.0,4.0,329.3812839999646,2.0,1.0,phase_1,,,,,,,,,,,,,blue,diamond
387.0,8.0,4.0,1.0,4.0,4.0,410.6436389999999,2.0,1.0,phase_1,,,,,,,,,,,,,blue,diamond
0.0,7.0,0.0,1.0,4.0,4.0,323.5540159998891,2.0,1.0,phase_1,,,,,,,,,,,,,white,triangle
395.0,8.0,4.0,1.0,4.0,4.0,360.7382160000725,2.0,1.0,phase_1,,,,,,,,,,,,,blue,diamond
418.0,8.0,4.0,1.0,3.0,3.0,367.3333329998058,2.0,1.0,phase_1,,,,,,,,,,,,,blue,diamond
179.0,7.0,2.0,1.0,1.0,1.0,558.1309499998497,2.0,1.0,phase_1,,,,,,,,,,,,,white,triangle
184.0,7.0,2.0,1.0,4.0,4.0,393.6083959999905,2.0,1.0,phase_1,,,,,,,,,,,,,white,triangle
0.0,2.0,0.0,0.0,1.0,1.0,424.5295229998191,2.0,1.0,phase_1,,,,,,,,,,,,,yellow,cross
0.0,5.0,0.0,1.0,1.0,1.0,383.2121030000053,2.0,1.0,phase_1,,,,,,,,,,,,,cyan,I
77.0,6.0,1.0,1.0,2.0,2.0,426.4093329998104,2.0,1.0,phase_1,,,,,,,,,,,,,magenta,flipped triangle
119.0,6.0,1.0,1.0,4.0,4.0,532.5032770001599,2.0,1.0,phase_1,,,,,,,,,,,,,magenta,flipped triangle
0.0,4.0,0.0,0.0,4.0,4.0,420.8410910000566,2.0,1.0,phase_1,,,,,,,,,,,,,green,square
77.0,2.0,1.0,0.0,4.0,4.0,438.2259130002239,2.0,1.0,phase_1,,,,,,,,,,,,,yellow,cross
409.0,4.0,4.0,0.0,3.0,3.0,501.1311990001559,2.0,1.0,phase_1,,,,,,,,,,,,,green,square
42.0,5.0,0.5,1.0,1.0,1.0,521.6797390003194,2.0,1.0,phase_1,,,,,,,,,,,,,cyan,I
420.0,4.0,4.0,0.0,4.0,4.0,510.9705230001964,2.0,1.0,phase_1,,,,,,,,,,,,,green,square
424.0,4.0,4.0,0.0,1.0,1.0,339.4109930000013,2.0,1.0,phase_1,,,,,,,,,,,,,green,square
43.0,1.0,0.5,0.0,3.0,3.0,338.637239000036,2.0,1.0,phase_1,,,,,,,,,,,,,orange,hexagon
0.0,6.0,0.0,1.0,4.0,4.0,385.9015130001353,2.0,1.0,phase_1,,,,,,,,,,,,,magenta,flipped triangle
91.0,6.0,1.0,1.0,2.0,2.0,381.6703569996207,2.0,1.0,phase_1,,,,,,,,,,,,,magenta,flipped triangle
0.0,5.0,0.0,1.0,1.0,1.0,393.1110319999789,2.0,1.0,phase_1,,,,,,,,,,,,,cyan,I
30.0,5.0,0.5,1.0,3.0,3.0,303.1060459998116,2.0,2.0,phase_1,,,,,,,,,,,,,cyan,I
394.0,8.0,4.0,1.0,2.0,2.0,424.6100029999979,2.0,1.0,phase_1,,,,,,,,,,,,,blue,diamond
111.0,6.0,1.0,1.0,2.0,2.0,480.8610909999515,2.0,1.0,phase_1,,,,,,,,,,,,,magenta,flipped triangle
111.0,2.0,1.0,0.0,1.0,1.0,382.3361479999221,2.0,1.0,phase_1,,,,,,,,,,,,,yellow,cross
43.0,5.0,0.5,1.0,4.0,4.0,396.1677590000363,2.0,1.0,phase_1,,,,,,,,,,,,,cyan,I
0.0,2.0,0.0,0.0,4.0,4.0,714.7881519999828,3.0,1.0,phase_1,,,,,,,,,,,,,yellow,cross
69.0,1.0,0.5,0.0,2.0,2.0,510.5937120001727,3.0,1.0,phase_1,,,,,,,,,,,,,orange,hexagon
105.0,2.0,1.0,0.0,4.0,4.0,348.7587720001102,3.0,1.0,phase_1,,,,,,,,,,,,,yellow,cross
51.0,5.0,0.5,1.0,1.0,1.0,279.0607829997498,3.0,1.0,phase_1,,,,,,,,,,,,,cyan,I
388.0,4.0,4.0,0.0,3.0,3.0,326.8133229998966,3.0,1.0,phase_1,,,,,,,,,,,,,green,square
67.0,1.0,0.5,0.0,2.0,2.0,349.836053999752,3.0,1.0,phase_1,,,,,,,,,,,,,orange,hexagon
47.0,5.0,0.5,1.0,3.0,3.0,325.849425999877,3.0,1.0,phase_1,,,,,,,,,,,,,cyan,I
49.0,1.0,0.5,0.0,4.0,4.0,327.4506210000254,3.0,1.0,phase_1,,,,,,,,,,,,,orange,hexagon
61.0,1.0,0.5,0.0,2.0,2.0,400.1602530001946,3.0,1.0,phase_1,,,,,,,,,,,,,orange,hexagon
216.0,3.0,2.0,0.0,1.0,1.0,343.1118880002941,3.0,1.0,phase_1,,,,,,,,,,,,,gray,circle
88.0,2.0,1.0,0.0,3.0,3.0,343.1448609999279,3.0,1.0,phase_1,,,,,,,,,,,,,yellow,cross
376.0,8.0,4.0,1.0,1.0,1.0,334.802671000034,3.0,1.0,phase_1,,,,,,,,,,,,,blue,diamond
119.0,2.0,1.0,0.0,3.0,3.0,333.1705840000722,3.0,1.0,phase_1,,,,,,,,,,,,,yellow,cross
85.0,6.0,1.0,1.0,4.0,4.0,425.555716999952,3.0,1.0,phase_1,,,,,,,,,,,,,magenta,flipped triangle
424.0,8.0,4.0,1.0,4.0,4.0,515.8320810000987,3.0,1.0,phase_1,,,,,,,,,,,,,blue,diamond
123.0,2.0,1.0,0.0,1.0,1.0,310.9779490000619,3.0,1.0,phase_1,,,,,,,,,,,,,yellow,cross
109.0,6.0,1.0,1.0,4.0,4.0,534.6948870001142,3.0,1.0,phase_1,,,,,,,,,,,,,magenta,flipped triangle
0.0,1.0,0.0,0.0,2.0,2.0,338.0878230000235,3.0,1.0,phase_1,,,,,,,,,,,,,orange,hexagon
204.0,7.0,2.0,1.0,3.0,3.0,589.6618830001898,3.0,1.0,phase_1,,,,,,,,,,,,,white,triangle
0.0,7.0,0.0,1.0,3.0,3.0,318.997366000076,3.0,1.0,phase_1,,,,,,,,,,,,,white,triangle
67.0,5.0,0.5,1.0,3.0,3.0,353.0478900001981,3.0,1.0,phase_1,,,,,,,,,,,,,cyan,I
118.0,6.0,1.0,1.0,4.0,4.0,433.4629710001536,3.0,1.0,phase_1,,,,,,,,,,,,,magenta,flipped triangle
0.0,4.0,0.0,0.0,4.0,4.0,413.4027479999531,3.0,1.0,phase_1,,,,,,,,,,,,,green,square
402.0,8.0,4.0,1.0,3.0,3.0,378.6226950001037,3.0,1.0,phase_1,,,,,,,,,,,,,blue,diamond
185.0,7.0,2.0,1.0,2.0,2.0,437.2780440003225,3.0,1.0,phase_1,,,,,,,,,,,,,white,triangle
48.0,5.0,0.5,1.0,3.0,3.0,426.9055049999224,3.0,1.0,phase_1,,,,,,,,,,,,,cyan,I
90.0,6.0,1.0,1.0,4.0,4.0,353.0747760000849,3.0,1.0,phase_1,,,,,,,,,,,,,magenta,flipped triangle
42.0,1.0,0.5,0.0,3.0,3.0,545.3445429998283,3.0,1.0,phase_1,,,,,,,,,,,,,orange,hexagon
32.0,1.0,0.5,0.0,4.0,4.0,374.5436179997341,3.0,1.0,phase_1,,,,,,,,,,,,,orange,hexagon
199.0,7.0,2.0,1.0,2.0,2.0,457.0458740004142,3.0,1.0,phase_1,,,,,,,,,,,,,white,triangle
38.0,5.0,0.5,1.0,2.0,2.0,367.8445169998667,3.0,1.0,phase_1,,,,,,,,,,,,,cyan,I
382.0,8.0,4.0,1.0,1.0,1.0,299.7098030000416,3.0,1.0,phase_1,,,,,,,,,,,,,blue,diamond
185.0,3.0,2.0,0.0,3.0,3.0,489.6575620000476,3.0,1.0,phase_1,,,,,,,,,,,,,gray,circle
0.0,2.0,0.0,0.0,3.0,3.0,410.129882000092,3.0,1.0,phase_1,,,,,,,,,,,,,yellow,cross
0.0,1.0,0.0,0.0,1.0,1.0,585.116828000082,3.0,1.0,phase_1,,,,,,,,,,,,,orange,hexagon
179.0,3.0,2.0,0.0,4.0,4.0,319.3069049998485,3.0,1.0,phase_1,,,,,,,,,,,,,gray,circle
49.0,5.0,0.5,1.0,4.0,4.0,360.2986579999196,3.0,1.0,phase_1,,,,,,,,,,,,,cyan,I
0.0,7.0,0.0,1.0,2.0,2.0,244.5513039997422,3.0,2.0,phase_1,,,,,,,,,,,,,white,triangle
212.0,7.0,2.0,1.0,1.0,1.0,464.4420780000473,3.0,1.0,phase_1,,,,,,,,,,,,,white,triangle
395.0,4.0,4.0,0.0,3.0,3.0,267.6498769997124,3.0,2.0,phase_1,,,,,,,,,,,,,green,square
69.0,5.0,0.5,1.0,4.0,4.0,354.0368910003053,3.0,1.0,phase_1,,,,,,,,,,,,,cyan,I
31.0,1.0,0.5,0.0,2.0,2.0,355.7273800001894,3.0,1.0,phase_1,,,,,,,,,,,,,orange,hexagon
422.0,4.0,4.0,0.0,1.0,1.0,341.4852469995821,3.0,1.0,phase_1,,,,,,,,,,,,,green,square
78.0,6.0,1.0,1.0,2.0,2.0,332.6672419998431,3.0,1.0,phase_1,,,,,,,,,,,,,magenta,flipped triangle
96.0,6.0,1.0,1.0,3.0,3.0,328.8882920001015,3.0,1.0,phase_1,,,,,,,,,,,,,magenta,flipped triangle
0.0,8.0,0.0,1.0,1.0,1.0,350.1471700001275,3.0,1.0,phase_1,,,,,,,,,,,,,blue,diamond
394.0,4.0,4.0,0.0,2.0,2.0,509.36759900014295,3.0,1.0,phase_1,,,,,,,,,,,,,green,square
409.0,8.0,4.0,1.0,4.0,4.0,387.5690990003022,3.0,1.0,phase_1,,,,,,,,,,,,,blue,diamond
202.0,7.0,2.0,1.0,2.0,2.0,451.5456449998964,3.0,1.0,phase_1,,,,,,,,,,,,,white,triangle
58.0,5.0,0.5,1.0,2.0,2.0,458.781892999923,3.0,1.0,phase_1,,,,,,,,,,,,,cyan,I
389.0,4.0,4.0,0.0,1.0,1.0,346.6666260001148,3.0,1.0,phase_1,,,,,,,,,,,,,green,square
110.0,6.0,1.0,1.0,2.0,2.0,307.3853330001839,3.0,1.0,phase_1,,,,,,,,,,,,,magenta,flipped triangle
104.0,2.0,1.0,0.0,1.0,1.0,468.6745120002342,3.0,1.0,phase_1,,,,,,,,,,,,,yellow,cross
38.0,1.0,0.5,0.0,4.0,4.0,531.9475070000408,3.0,1.0,phase_1,,,,,,,,,,,,,orange,hexagon
197.0,3.0,2.0,0.0,4.0,4.0,397.4915100002363,3.0,1.0,phase_1,,,,,,,,,,,,,gray,circle
379.0,4.0,4.0,0.0,4.0,4.0,295.4765290000978,3.0,1.0,phase_1,,,,,,,,,,,,,green,square
218.0,3.0,2.0,0.0,3.0,3.0,458.8573119999637,3.0,1.0,phase_1,,,,,,,,,,,,,gray,circle
80.0,6.0,1.0,1.0,3.0,3.0,350.1883339999949,3.0,1.0,phase_1,,,,,,,,,,,,,magenta,flipped triangle
35.0,5.0,0.5,1.0,1.0,1.0,408.1379530002778,3.0,1.0,phase_1,,,,,,,,,,,,,cyan,I
118.0,2.0,1.0,0.0,4.0,4.0,357.4828309997429,3.0,1.0,phase_1,,,,,,,,,,,,,yellow,cross
67.0,1.0,0.5,0.0,2.0,2.0,449.6203369999421,3.0,1.0,phase_1,,,,,,,,,,,,,orange,hexagon
184.0,7.0,2.0,1.0,3.0,3.0,353.9430920000086,3.0,1.0,phase_1,,,,,,,,,,,,,white,triangle
95.0,6.0,1.0,1.0,2.0,2.0,354.1441600000325,3.0,1.0,phase_1,,,,,,,,,,,,,magenta,flipped triangle
381.0,4.0,4.0,0.0,1.0,1.0,328.3869279998725,3.0,1.0,phase_1,,,,,,,,,,,,,green,square
407.0,4.0,4.0,0.0,3.0,3.0,406.2271359998703,3.0,1.0,phase_1,,,,,,,,,,,,,green,square
0.0,3.0,0.0,0.0,3.0,3.0,416.9913400000951,3.0,1.0,phase_1,,,,,,,,,,,,,gray,circle
0.0,8.0,0.0,1.0,2.0,2.0,463.434670999959,3.0,1.0,phase_1,,,,,,,,,,,,,blue,diamond
67.0,1.0,0.5,0.0,1.0,1.0,340.2047739996305,3.0,1.0,phase_1,,,,,,,,,,,,,orange,hexagon
117.0,6.0,1.0,1.0,3.0,3.0,373.9904570002181,3.0,1.0,phase_1,,,,,,,,,,,,,magenta,flipped triangle
223.0,3.0,2.0,0.0,1.0,1.0,338.387756999964,3.0,1.0,phase_1,,,,,,,,,,,,,gray,circle
58.0,1.0,0.5,0.0,3.0,3.0,305.3301280001506,3.0,1.0,phase_1,,,,,,,,,,,,,orange,hexagon
0.0,7.0,0.0,1.0,1.0,1.0,446.6479230000004,3.0,1.0,phase_1,,,,,,,,,,,,,white,triangle
122.0,6.0,1.0,1.0,3.0,3.0,362.0677260000775,3.0,1.0,phase_1,,,,,,,,,,,,,magenta,flipped triangle
88.0,6.0,1.0,1.0,3.0,3.0,300.6897210002535,3.0,1.0,phase_1,,,,,,,,,,,,,magenta,flipped triangle
413.0,8.0,4.0,1.0,2.0,2.0,502.3285069996746,3.0,1.0,phase_1,,,,,,,,,,,,,blue,diamond
382.0,4.0,4.0,0.0,2.0,2.0,363.5032879997197,3.0,1.0,phase_1,,,,,,,,,,,,,green,square
84.0,6.0,1.0,1.0,3.0,3.0,458.987728000011,3.0,1.0,phase_1,,,,,,,,,,,,,magenta,flipped triangle
391.0,8.0,4.0,1.0,3.0,3.0,377.1883100002924,3.0,1.0,phase_1,,,,,,,,,,,,,blue,diamond
178.0,3.0,2.0,0.0,2.0,2.0,348.7510629997814,3.0,1.0,phase_1,,,,,,,,,,,,,gray,circle
0.0,3.0,0.0,0.0,3.0,3.0,318.9831659997253,3.0,1.0,phase_1,,,,,,,,,,,,,gray,circle
100.0,2.0,1.0,0.0,4.0,4.0,402.7068790001067,3.0,1.0,phase_1,,,,,,,,,,,,,yellow,cross
0.0,6.0,0.0,1.0,4.0,4.0,347.9762390002179,3.0,1.0,phase_1,,,,,,,,,,,,,magenta,flipped triangle
222.0,7.0,2.0,1.0,3.0,3.0,374.2518829999426,3.0,1.0,phase_1,,,,,,,,,,,,,white,triangle
209.0,3.0,2.0,0.0,1.0,1.0,476.9627639998361,3.0,1.0,phase_1,,,,,,,,,,,,,gray,circle
420.0,8.0,4.0,1.0,2.0,2.0,622.4682100000791,3.0,1.0,phase_1,,,,,,,,,,,,,blue,diamond
199.0,7.0,2.0,1.0,1.0,1.0,368.0551970001033,3.0,1.0,phase_1,,,,,,,,,,,,,white,triangle
0.0,1.0,0.0,0.0,4.0,4.0,637.828062999688,3.0,1.0,phase_1,,,,,,,,,,,,,orange,hexagon
43.0,5.0,0.5,1.0,3.0,3.0,357.5653759999113,3.0,1.0,phase_1,,,,,,,,,,,,,cyan,I
223.0,7.0,2.0,1.0,1.0,1.0,442.8253649998623,3.0,1.0,phase_1,,,,,,,,,,,,,white,triangle
0.0,8.0,0.0,1.0,2.0,2.0,606.0661970000183,3.0,1.0,phase_1,,,,,,,,,,,,,blue,diamond
56.0,1.0,0.5,0.0,1.0,1.0,344.9467279997407,3.0,1.0,phase_1,,,,,,,,,,,,,orange,hexagon
61.0,5.0,0.5,1.0,2.0,2.0,325.1579950001542,3.0,1.0,phase_1,,,,,,,,,,,,,cyan,I
119.0,6.0,1.0,1.0,1.0,1.0,331.9681120001405,3.0,1.0,phase_1,,,,,,,,,,,,,magenta,flipped triangle
422.0,8.0,4.0,1.0,1.0,1.0,311.5091130002838,3.0,1.0,phase_1,,,,,,,,,,,,,blue,diamond
0.0,5.0,0.0,1.0,3.0,3.0,429.2930080000587,3.0,1.0,phase_1,,,,,,,,,,,,,cyan,I
179.0,3.0,2.0,0.0,4.0,4.0,408.1355810003515,3.0,1.0,phase_1,,,,,,,,,,,,,gray,circle
413.0,4.0,4.0,0.0,4.0,4.0,409.2907859999286,3.0,1.0,phase_1,,,,,,,,,,,,,green,square
86.0,6.0,1.0,1.0,2.0,2.0,520.9475599999678,3.0,1.0,phase_1,,,,,,,,,,,,,magenta,flipped triangle
418.0,8.0,4.0,1.0,2.0,2.0,310.684589000175,3.0,1.0,phase_1,,,,,,,,,,,,,blue,diamond
179.0,7.0,2.0,1.0,3.0,3.0,382.729326000117,3.0,1.0,phase_1,,,,,,,,,,,,,white,triangle
0.0,3.0,0.0,0.0,3.0,3.0,425.2070269999422,4.0,1.0,phase_1,,,,,,,,,,,,,gray,circle
182.0,7.0,2.0,1.0,2.0,2.0,345.4782690000684,4.0,1.0,phase_1,,,,,,,,,,,,,white,triangle
0.0,2.0,0.0,0.0,4.0,4.0,320.9268130003693,4.0,1.0,phase_1,,,,,,,,,,,,,yellow,cross
88.0,6.0,1.0,1.0,2.0,2.0,498.3775489999971,4.0,1.0,phase_1,,,,,,,,,,,,,magenta,flipped triangle
95.0,2.0,1.0,0.0,3.0,3.0,386.4587200000642,4.0,1.0,phase_1,,,,,,,,,,,,,yellow,cross
0.0,4.0,0.0,0.0,2.0,2.0,285.1887859997077,4.0,1.0,phase_1,,,,,,,,,,,,,green,square
210.0,3.0,2.0,0.0,2.0,2.0,330.7595839996793,4.0,1.0,phase_1,,,,,,,,,,,,,gray,circle
39.0,5.0,0.5,1.0,2.0,2.0,366.1416950003513,4.0,1.0,phase_1,,,,,,,,,,,,,cyan,I
108.0,6.0,1.0,1.0,3.0,3.0,412.0786130001761,4.0,1.0,phase_1,,,,,,,,,,,,,magenta,flipped triangle
94.0,2.0,1.0,0.0,4.0,4.0,510.45659000010346,4.0,1.0,phase_1,,,,,,,,,,,,,yellow,cross
213.0,3.0,2.0,0.0,3.0,3.0,402.9560849999143,4.0,1.0,phase_1,,,,,,,,,,,,,gray,circle
198.0,7.0,2.0,1.0,3.0,3.0,380.2171100001033,4.0,1.0,phase_1,,,,,,,,,,,,,white,triangle
177.0,3.0,2.0,0.0,4.0,4.0,456.3755679996575,4.0,1.0,phase_1,,,,,,,,,,,,,gray,circle
116.0,2.0,1.0,0.0,1.0,1.0,532.5220269996862,4.0,1.0,phase_1,,,,,,,,,,,,,yellow,cross
216.0,7.0,2.0,1.0,2.0,2.0,357.3464600003717,4.0,1.0,phase_1,,,,,,,,,,,,,white,triangle
46.0,5.0,0.5,1.0,2.0,2.0,344.2889819998527,4.0,1.0,phase_1,,,,,,,,,,,,,cyan,I
65.0,5.0,0.5,1.0,2.0,2.0,432.5328699997044,4.0,1.0,phase_1,,,,,,,,,,,,,cyan,I
0.0,4.0,0.0,0.0,4.0,4.0,316.3837189999867,4.0,1.0,phase_1,,,,,,,,,,,,,green,square
390.0,8.0,4.0,1.0,4.0,4.0,378.5032200003115,4.0,1.0,phase_1,,,,,,,,,,,,,blue,diamond
411.0,4.0,4.0,0.0,3.0,3.0,349.9771409997265,4.0,1.0,phase_1,,,,,,,,,,,,,green,square
0.0,3.0,0.0,0.0,3.0,3.0,418.5739650001778,4.0,1.0,phase_1,,,,,,,,,,,,,gray,circle
42.0,1.0,0.5,0.0,2.0,2.0,439.2803320001803,4.0,1.0,phase_1,,,,,,,,,,,,,orange,hexagon
111.0,2.0,1.0,0.0,1.0,1.0,312.732318000144,4.0,1.0,phase_1,,,,,,,,,,,,,yellow,cross
93.0,6.0,1.0,1.0,2.0,2.0,351.32400099973887,4.0,1.0,phase_1,,,,,,,,,,,,,magenta,flipped triangle
0.0,1.0,0.0,0.0,4.0,4.0,395.5742860002829,4.0,1.0,phase_1,,,,,,,,,,,,,orange,hexagon
418.0,4.0,4.0,0.0,1.0,1.0,435.7326680001279,4.0,1.0,phase_1,,,,,,,,,,,,,green,square
0.0,6.0,0.0,1.0,1.0,1.0,372.3864329999742,4.0,1.0,phase_1,,,,,,,,,,,,,magenta,flipped triangle
0.0,2.0,0.0,0.0,3.0,3.0,328.5482900000716,4.0,1.0,phase_1,,,,,,,,,,,,,yellow,cross
84.0,2.0,1.0,0.0,2.0,2.0,321.6598099998009,4.0,1.0,phase_1,,,,,,,,,,,,,yellow,cross
0.0,6.0,0.0,1.0,3.0,3.0,342.7819849998741,4.0,1.0,phase_1,,,,,,,,,,,,,magenta,flipped triangle
111.0,2.0,1.0,0.0,2.0,2.0,321.2543999998161,4.0,1.0,phase_1,,,,,,,,,,,,,yellow,cross
223.0,7.0,2.0,1.0,3.0,3.0,340.7465010000123,4.0,1.0,phase_1,,,,,,,,,,,,,white,triangle
69.0,1.0,0.5,0.0,1.0,1.0,420.9932189996834,4.0,1.0,phase_1,,,,,,,,,,,,,orange,hexagon
391.0,8.0,4.0,1.0,4.0,4.0,396.5262939996137,4.0,1.0,phase_1,,,,,,,,,,,,,blue,diamond
0.0,4.0,0.0,0.0,4.0,4.0,596.0263960000702,4.0,1.0,phase_1,,,,,,,,,,,,,green,square
0.0,5.0,0.0,1.0,2.0,2.0,415.9989740001037,4.0,1.0,phase_1,,,,,,,,,,,,,cyan,I
0.0,6.0,0.0,1.0,1.0,1.0,321.6256350001458,4.0,1.0,phase_1,,,,,,,,,,,,,magenta,flipped triangle
60.0,5.0,0.5,1.0,3.0,3.0,328.8494739999805,4.0,1.0,phase_1,,,,,,,,,,,,,cyan,I
31.0,5.0,0.5,1.0,1.0,1.0,286.4282760001515,4.0,1.0,phase_1,,,,,,,,,,,,,cyan,I
185.0,7.0,2.0,1.0,2.0,2.0,363.5046479998891,4.0,1.0,phase_1,,,,,,,,,,,,,white,triangle
39.0,1.0,0.5,0.0,1.0,1.0,455.5550240002048,4.0,1.0,phase_1,,,,,,,,,,,,,orange,hexagon
38.0,5.0,0.5,1.0,2.0,2.0,369.3091979998826,4.0,1.0,phase_1,,,,,,,,,,,,,cyan,I
74.0,1.0,0.5,0.0,2.0,2.0,293.1139920001442,4.0,1.0,phase_1,,,,,,,,,,,,,orange,hexagon
180.0,3.0,2.0,0.0,3.0,3.0,542.2780359999706,4.0,1.0,phase_1,,,,,,,,,,,,,gray,circle
105.0,6.0,1.0,1.0,1.0,1.0,297.9360839999572,4.0,1.0,phase_1,,,,,,,,,,,,,magenta,flipped triangle
0.0,6.0,0.0,1.0,1.0,1.0,484.5200200002182,4.0,1.0,phase_1,,,,,,,,,,,,,magenta,flipped triangle
54.0,1.0,0.5,0.0,3.0,3.0,422.5795030001791,4.0,1.0,phase_1,,,,,,,,,,,,,orange,hexagon
51.0,1.0,0.5,0.0,3.0,3.0,314.8203490000014,4.0,1.0,phase_1,,,,,,,,,,,,,orange,hexagon
74.0,5.0,0.5,1.0,3.0,3.0,326.0951400002341,4.0,1.0,phase_1,,,,,,,,,,,,,cyan,I
379.0,8.0,4.0,1.0,3.0,3.0,395.3459300000759,4.0,1.0,phase_1,,,,,,,,,,,,,blue,diamond
0.0,2.0,0.0,0.0,4.0,4.0,441.2614469997606,4.0,1.0,phase_1,,,,,,,,,,,,,yellow,cross
196.0,7.0,2.0,1.0,4.0,4.0,355.8359139997264,4.0,1.0,phase_1,,,,,,,,,,,,,white,triangle
188.0,7.0,2.0,1.0,1.0,1.0,391.5850020002835,4.0,1.0,phase_1,,,,,,,,,,,,,white,triangle
53.0,1.0,0.5,0.0,3.0,3.0,352.2519490002196,4.0,1.0,phase_1,,,,,,,,,,,,,orange,hexagon
100.0,6.0,1.0,1.0,1.0,1.0,552.0965460000298,4.0,1.0,phase_1,,,,,,,,,,,,,magenta,flipped triangle
0.0,8.0,0.0,1.0,4.0,4.0,416.6405480000321,4.0,1.0,phase_1,,,,,,,,,,,,,blue,diamond
42.0,5.0,0.5,1.0,4.0,4.0,336.3981089996741,4.0,1.0,phase_1,,,,,,,,,,,,,cyan,I
110.0,2.0,1.0,0.0,3.0,3.0,313.7967449997632,4.0,1.0,phase_1,,,,,,,,,,,,,yellow,cross
0.0,4.0,0.0,0.0,1.0,1.0,397.0616079996034,4.0,1.0,phase_1,,,,,,,,,,,,,green,square
225.0,7.0,2.0,1.0,1.0,1.0,407.9692390000673,4.0,1.0,phase_1,,,,,,,,,,,,,white,triangle
400.0,8.0,4.0,1.0,3.0,3.0,300.8272970000689,4.0,1.0,phase_1,,,,,,,,,,,,,blue,diamond
414.0,8.0,4.0,1.0,3.0,3.0,331.1233069998707,4.0,1.0,phase_1,,,,,,,,,,,,,blue,diamond
30.0,1.0,0.5,0.0,4.0,4.0,406.902872000046,4.0,1.0,phase_1,,,,,,,,,,,,,orange,hexagon
0.0,8.0,0.0,1.0,4.0,4.0,323.0530600003476,4.0,1.0,phase_1,,,,,,,,,,,,,blue,diamond
57.0,1.0,0.5,0.0,4.0,4.0,357.7652689996284,4.0,1.0,phase_1,,,,,,,,,,,,,orange,hexagon
0.0,1.0,0.0,0.0,3.0,3.0,503.39874700011933,4.0,1.0,phase_1,,,,,,,,,,,,,orange,hexagon
417.0,4.0,4.0,0.0,3.0,3.0,458.1553190000704,4.0,1.0,phase_1,,,,,,,,,,,,,green,square
103.0,2.0,1.0,0.0,4.0,4.0,355.8373099999699,4.0,1.0,phase_1,,,,,,,,,,,,,yellow,cross
384.0,4.0,4.0,0.0,4.0,4.0,305.7629969998743,4.0,1.0,phase_1,,,,,,,,,,,,,green,square
400.0,4.0,4.0,0.0,1.0,1.0,368.6599490001754,4.0,1.0,phase_1,,,,,,,,,,,,,green,square
0.0,5.0,0.0,1.0,4.0,4.0,556.3015210000231,4.0,1.0,phase_1,,,,,,,,,,,,,cyan,I
0.0,2.0,0.0,0.0,4.0,4.0,476.0630030000357,4.0,1.0,phase_1,,,,,,,,,,,,,yellow,cross
0.0,8.0,0.0,1.0,2.0,2.0,344.0027900001041,4.0,1.0,phase_1,,,,,,,,,,,,,blue,diamond
200.0,3.0,2.0,0.0,2.0,2.0,310.8729840000706,4.0,1.0,phase_1,,,,,,,,,,,,,gray,circle
91.0,2.0,1.0,0.0,2.0,2.0,368.7042770002335,4.0,1.0,phase_1,,,,,,,,,,,,,yellow,cross
416.0,4.0,4.0,0.0,4.0,4.0,367.0980040001268,4.0,1.0,phase_1,,,,,,,,,,,,,green,square
216.0,3.0,2.0,0.0,2.0,2.0,379.6859930002938,4.0,1.0,phase_1,,,,,,,,,,,,,gray,circle
0.0,8.0,0.0,1.0,4.0,4.0,432.1234340000046,4.0,1.0,phase_1,,,,,,,,,,,,,blue,diamond
0.0,6.0,0.0,1.0,4.0,4.0,395.5645299997741,4.0,1.0,phase_1,,,,,,,,,,,,,magenta,flipped triangle
196.0,3.0,2.0,0.0,4.0,4.0,485.0193400002354,4.0,1.0,phase_1,,,,,,,,,,,,,gray,circle
199.0,3.0,2.0,0.0,1.0,1.0,426.8697889997384,4.0,1.0,phase_1,,,,,,,,,,,,,gray,circle
0.0,5.0,0.0,1.0,2.0,2.0,349.555311000131,4.0,1.0,phase_1,,,,,,,,,,,,,cyan,I
177.0,7.0,2.0,1.0,1.0,1.0,332.8308969998943,4.0,1.0,phase_1,,,,,,,,,,,,,white,triangle
45.0,1.0,0.5,0.0,1.0,1.0,534.4229479997011,4.0,1.0,phase_1,,,,,,,,,,,,,orange,hexagon
88.0,2.0,1.0,0.0,4.0,4.0,341.6477030000351,4.0,1.0,phase_1,,,,,,,,,,,,,yellow,cross
93.0,2.0,1.0,0.0,1.0,1.0,338.0037950000769,4.0,1.0,phase_1,,,,,,,,,,,,,yellow,cross
48.0,1.0,0.5,0.0,3.0,3.0,254.3623200003821,4.0,2.0,phase_1,,,,,,,,,,,,,orange,hexagon
97.0,2.0,1.0,0.0,3.0,3.0,318.5831249998045,4.0,1.0,phase_1,,,,,,,,,,,,,yellow,cross
45.0,1.0,0.5,0.0,1.0,1.0,317.6989609996781,4.0,1.0,phase_1,,,,,,,,,,,,,orange,hexagon
188.0,3.0,2.0,0.0,1.0,1.0,362.3414499998034,4.0,1.0,phase_1,,,,,,,,,,,,,gray,circle
213.0,7.0,2.0,1.0,4.0,4.0,396.0553429997162,4.0,1.0,phase_1,,,,,,,,,,,,,white,triangle
53.0,5.0,0.5,1.0,4.0,4.0,344.0287019998322,4.0,1.0,phase_1,,,,,,,,,,,,,cyan,I
387.0,8.0,4.0,1.0,3.0,3.0,361.0483270003897,4.0,1.0,phase_1,,,,,,,,,,,,,blue,diamond
398.0,8.0,4.0,1.0,2.0,2.0,344.9366419999933,4.0,1.0,phase_1,,,,,,,,,,,,,blue,diamond
0.0,7.0,0.0,1.0,3.0,3.0,444.2517729999053,4.0,1.0,phase_1,,,,,,,,,,,,,white,triangle
200.0,7.0,2.0,1.0,2.0,2.0,440.1370989999122,4.0,1.0,phase_1,,,,,,,,,,,,,white,triangle
90.0,6.0,1.0,1.0,3.0,3.0,368.1900759997916,4.0,1.0,phase_1,,,,,,,,,,,,,magenta,flipped triangle
57.0,5.0,0.5,1.0,1.0,1.0,350.3146640000523,4.0,1.0,phase_1,,,,,,,,,,,,,cyan,I
402.0,4.0,4.0,0.0,2.0,2.0,571.4074369998343,4.0,1.0,phase_1,,,,,,,,,,,,,green,square
0.0,3.0,0.0,0.0,2.0,2.0,436.2492420000308,4.0,1.0,phase_1,,,,,,,,,,,,,gray,circle
0.0,8.0,4.0,1.0,6.0,6.0,398.415064999881,1.0,1.0,phase_2,stop,250.0,250.0,3.0,,,,,,,,,blue,diamond
0.0,7.0,2.0,1.0,5.0,0.0,0.0,1.0,1.0,phase_2,stop,250.0,200.0,4.0,,,,,,,,,white,triangle
0.0,1.0,0.5,0.0,6.0,6.0,714.3715189999966,1.0,1.0,phase_2,go,300.0,200.0,1.0,,,,,,,,,orange,hexagon
0.0,2.0,1.0,0.0,6.0,6.0,670.0926260000415,1.0,1.0,phase_2,go,300.0,200.0,1.0,,,,,,,,,yellow,cross
0.0,5.0,0.5,1.0,6.0,6.0,448.4610869999414,1.0,1.0,phase_2,stop,300.0,200.0,3.0,,,,,,,,,cyan,I
0.0,8.0,4.0,1.0,5.0,0.0,0.0,1.0,1.0,phase_2,stop,300.0,150.0,4.0,,,,,,,,,blue,diamond
0.0,8.0,4.0,1.0,6.0,0.0,0.0,1.0,1.0,phase_2,stop,350.0,150.0,4.0,,,,,,,,,blue,diamond
0.0,4.0,4.0,0.0,5.0,5.0,635.8281439997882,1.0,1.0,phase_2,go,350.0,200.0,1.0,,,,,,,,,green,square
0.0,8.0,4.0,1.0,6.0,6.0,352.8198879998854,1.0,1.0,phase_2,stop,350.0,200.0,3.0,,,,,,,,,blue,diamond
0.0,3.0,2.0,0.0,5.0,5.0,789.0151279998463,1.0,1.0,phase_2,go,350.0,150.0,1.0,,,,,,,,,gray,circle
0.0,1.0,0.5,0.0,6.0,6.0,753.4177699999418,1.0,1.0,phase_2,go,350.0,150.0,1.0,,,,,,,,,orange,hexagon
0.0,1.0,0.5,0.0,6.0,6.0,954.1410340002584,1.0,1.0,phase_2,go,350.0,150.0,1.0,,,,,,,,,orange,hexagon
0.0,7.0,2.0,1.0,5.0,5.0,646.6553719997137,1.0,1.0,phase_2,go,350.0,150.0,1.0,,,,,,,,,white,triangle
0.0,8.0,4.0,1.0,6.0,6.0,815.8022259999598,1.0,1.0,phase_2,go,350.0,150.0,1.0,,,,,,,,,blue,diamond
0.0,6.0,1.0,1.0,5.0,0.0,0.0,1.0,1.0,phase_2,stop,350.0,150.0,4.0,,,,,,,,,magenta,flipped triangle
0.0,5.0,0.5,1.0,5.0,5.0,746.9502710000597,1.0,1.0,phase_2,go,400.0,150.0,1.0,,,,,,,,,cyan,I
0.0,4.0,4.0,0.0,5.0,5.0,757.5372710002739,1.0,1.0,phase_2,go,400.0,150.0,1.0,,,,,,,,,green,square
0.0,2.0,1.0,0.0,5.0,5.0,795.4185319999851,1.0,1.0,phase_2,go,400.0,150.0,1.0,,,,,,,,,yellow,cross
0.0,6.0,1.0,1.0,5.0,5.0,375.6012779999764,1.0,1.0,phase_2,stop,400.0,150.0,3.0,,,,,,,,,magenta,flipped triangle
0.0,1.0,0.5,0.0,5.0,5.0,764.6876660000999,1.0,1.0,phase_2,go,350.0,150.0,1.0,,,,,,,,,orange,hexagon
0.0,3.0,2.0,0.0,6.0,6.0,626.8919120002465,1.0,1.0,phase_2,go,350.0,150.0,1.0,,,,,,,,,gray,circle
0.0,7.0,2.0,1.0,5.0,5.0,698.4490300001198,1.0,1.0,phase_2,go,350.0,150.0,1.0,,,,,,,,,white,triangle
0.0,3.0,2.0,0.0,6.0,6.0,690.9383819997856,1.0,1.0,phase_2,go,350.0,150.0,1.0,,,,,,,,,gray,circle
0.0,8.0,4.0,1.0,5.0,5.0,361.875924999822,1.0,1.0,phase_2,go,350.0,150.0,1.0,,,,,,,,,blue,diamond
0.0,3.0,2.0,0.0,5.0,5.0,588.5628569999426,1.0,1.0,phase_2,go,350.0,150.0,1.0,,,,,,,,,gray,circle
0.0,2.0,1.0,0.0,6.0,6.0,941.4482890001636,1.0,1.0,phase_2,go,350.0,150.0,1.0,,,,,,,,,yellow,cross
0.0,7.0,2.0,1.0,6.0,0.0,0.0,1.0,1.0,phase_2,stop,350.0,150.0,4.0,,,,,,,,,white,triangle
0.0,6.0,1.0,1.0,5.0,5.0,542.5028800000291,1.0,1.0,phase_2,go,350.0,200.0,1.0,,,,,,,,,magenta,flipped triangle
0.0,4.0,4.0,0.0,5.0,5.0,637.607446000402,1.0,1.0,phase_2,go,350.0,200.0,1.0,,,,,,,,,green,square
0.0,6.0,1.0,1.0,5.0,0.0,0.0,1.0,1.0,phase_2,stop,350.0,200.0,4.0,,,,,,,,,magenta,flipped triangle
0.0,6.0,1.0,1.0,5.0,0.0,0.0,1.0,1.0,phase_2,stop,400.0,200.0,4.0,,,,,,,,,magenta,flipped triangle
0.0,5.0,0.5,1.0,6.0,0.0,0.0,1.0,1.0,phase_2,stop,450.0,200.0,4.0,,,,,,,,,cyan,I
0.0,5.0,0.5,1.0,5.0,5.0,925.089455000034,1.0,1.0,phase_2,go,450.0,250.0,1.0,,,,,,,,,cyan,I
0.0,3.0,2.0,0.0,5.0,5.0,743.5934569998608,1.0,1.0,phase_2,go,450.0,250.0,1.0,,,,,,,,,gray,circle
0.0,3.0,2.0,0.0,5.0,5.0,669.7768429999087,1.0,1.0,phase_2,go,450.0,250.0,1.0,,,,,,,,,gray,circle
0.0,1.0,0.5,0.0,5.0,5.0,730.3458030000911,1.0,1.0,phase_2,go,450.0,250.0,1.0,,,,,,,,,orange,hexagon
0.0,5.0,0.5,1.0,6.0,6.0,904.4662510000308,2.0,1.0,phase_2,go,450.0,250.0,1.0,,,,,,,,,cyan,I
0.0,5.0,0.5,1.0,6.0,0.0,0.0,2.0,1.0,phase_2,stop,450.0,250.0,4.0,,,,,,,,,cyan,I
0.0,3.0,2.0,0.0,6.0,6.0,388.1188240002302,2.0,1.0,phase_2,go,450.0,300.0,1.0,,,,,,,,,gray,circle
0.0,8.0,4.0,1.0,5.0,5.0,554.7781830000531,2.0,1.0,phase_2,stop,450.0,300.0,3.0,,,,,,,,,blue,diamond
0.0,5.0,0.5,1.0,5.0,0.0,0.0,2.0,1.0,phase_2,stop,400.0,300.0,4.0,,,,,,,,,cyan,I
0.0,5.0,0.5,1.0,5.0,5.0,383.2587550000426,2.0,1.0,phase_2,stop,450.0,300.0,3.0,,,,,,,,,cyan,I
0.0,4.0,4.0,0.0,6.0,6.0,600.3443049999078,2.0,1.0,phase_2,go,400.0,300.0,1.0,,,,,,,,,green,square
0.0,6.0,1.0,1.0,5.0,5.0,477.3268669996469,2.0,1.0,phase_2,stop,400.0,300.0,3.0,,,,,,,,,magenta,flipped triangle
0.0,5.0,0.5,1.0,6.0,0.0,0.0,2.0,1.0,phase_2,stop,350.0,300.0,4.0,,,,,,,,,cyan,I
0.0,4.0,4.0,0.0,5.0,5.0,712.8516729999319,2.0,1.0,phase_2,go,350.0,350.0,1.0,,,,,,,,,green,square
0.0,8.0,4.0,1.0,5.0,0.0,0.0,2.0,1.0,phase_2,stop,350.0,350.0,4.0,,,,,,,,,blue,diamond
0.0,8.0,4.0,1.0,5.0,5.0,673.7475659997472,2.0,1.0,phase_2,stop,400.0,350.0,3.0,,,,,,,,,blue,diamond
0.0,3.0,2.0,0.0,5.0,5.0,680.2712950002388,2.0,1.0,phase_2,go,350.0,350.0,1.0,,,,,,,,,gray,circle
0.0,5.0,0.5,1.0,5.0,0.0,0.0,2.0,1.0,phase_2,stop,350.0,350.0,4.0,,,,,,,,,cyan,I
0.0,7.0,2.0,1.0,5.0,0.0,0.0,2.0,1.0,phase_2,stop,400.0,350.0,4.0,,,,,,,,,white,triangle
0.0,7.0,2.0,1.0,6.0,0.0,0.0,2.0,1.0,phase_2,stop,450.0,350.0,4.0,,,,,,,,,white,triangle
0.0,4.0,4.0,0.0,6.0,6.0,634.6216510000886,2.0,1.0,phase_2,go,450.0,400.0,1.0,,,,,,,,,green,square
0.0,5.0,0.5,1.0,6.0,0.0,0.0,2.0,1.0,phase_2,stop,450.0,400.0,4.0,,,,,,,,,cyan,I
0.0,2.0,1.0,0.0,6.0,6.0,664.2440569999053,2.0,1.0,phase_2,go,450.0,450.0,1.0,,,,,,,,,yellow,cross
0.0,7.0,2.0,1.0,5.0,0.0,0.0,2.0,1.0,phase_2,stop,450.0,450.0,4.0,,,,,,,,,white,triangle
0.0,7.0,2.0,1.0,5.0,5.0,677.9278479998538,2.0,1.0,phase_2,stop,500.0,450.0,3.0,,,,,,,,,white,triangle
0.0,3.0,2.0,0.0,5.0,5.0,747.5656100000379,2.0,1.0,phase_2,go,450.0,450.0,1.0,,,,,,,,,gray,circle
0.0,3.0,2.0,0.0,5.0,5.0,880.6536739998592,2.0,1.0,phase_2,go,450.0,450.0,1.0,,,,,,,,,gray,circle
0.0,6.0,1.0,1.0,6.0,6.0,991.5845250002347,2.0,1.0,phase_2,go,450.0,450.0,1.0,,,,,,,,,magenta,flipped triangle
0.0,3.0,2.0,0.0,6.0,6.0,497.5436639997497,2.0,1.0,phase_2,go,450.0,450.0,1.0,,,,,,,,,gray,circle
0.0,1.0,0.5,0.0,5.0,5.0,362.1450959999492,2.0,1.0,phase_2,go,450.0,450.0,1.0,,,,,,,,,orange,hexagon
0.0,6.0,1.0,1.0,6.0,6.0,377.6787380002133,2.0,1.0,phase_2,stop,450.0,450.0,3.0,,,,,,,,,magenta,flipped triangle
0.0,7.0,2.0,1.0,6.0,6.0,384.4908890000624,2.0,1.0,phase_2,go,450.0,400.0,1.0,,,,,,,,,white,triangle
0.0,2.0,1.0,0.0,5.0,5.0,669.1248669999368,2.0,1.0,phase_2,go,450.0,400.0,1.0,,,,,,,,,yellow,cross
0.0,8.0,4.0,1.0,6.0,6.0,439.4975350001004,2.0,1.0,phase_2,stop,450.0,400.0,3.0,,,,,,,,,blue,diamond
0.0,6.0,1.0,1.0,5.0,5.0,589.9478300002556,2.0,1.0,phase_2,stop,450.0,350.0,3.0,,,,,,,,,magenta,flipped triangle
0.0,8.0,4.0,1.0,6.0,6.0,728.0951269999605,2.0,1.0,phase_2,go,400.0,350.0,1.0,,,,,,,,,blue,diamond
0.0,1.0,0.5,0.0,5.0,5.0,424.2088679998232,2.0,1.0,phase_2,go,400.0,350.0,1.0,,,,,,,,,orange,hexagon
0.0,7.0,2.0,1.0,5.0,0.0,0.0,2.0,1.0,phase_2,stop,400.0,350.0,4.0,,,,,,,,,white,triangle
0.0,6.0,1.0,1.0,5.0,5.0,791.1755879999873,2.0,1.0,phase_2,go,450.0,350.0,1.0,,,,,,,,,magenta,flipped triangle
0.0,4.0,4.0,0.0,6.0,6.0,363.2336499999837,2.0,1.0,phase_2,go,450.0,350.0,1.0,,,,,,,,,green,square
0.0,1.0,0.5,0.0,5.0,5.0,696.5567699999156,3.0,1.0,phase_2,go,450.0,350.0,1.0,,,,,,,,,orange,hexagon
0.0,4.0,4.0,0.0,5.0,5.0,325.6768649998776,3.0,1.0,phase_2,go,450.0,350.0,1.0,,,,,,,,,green,square
0.0,4.0,4.0,0.0,5.0,5.0,356.8809550001788,3.0,1.0,phase_2,go,450.0,350.0,1.0,,,,,,,,,green,square
0.0,8.0,4.0,1.0,5.0,5.0,355.789446000017,3.0,1.0,phase_2,stop,450.0,350.0,3.0,,,,,,,,,blue,diamond
0.0,6.0,1.0,1.0,5.0,0.0,0.0,3.0,1.0,phase_2,stop,400.0,350.0,4.0,,,,,,,,,magenta,flipped triangle
0.0,1.0,0.5,0.0,5.0,5.0,356.104440999843,3.0,1.0,phase_2,go,450.0,350.0,1.0,,,,,,,,,orange,hexagon
0.0,2.0,1.0,0.0,5.0,5.0,678.2836910001606,3.0,1.0,phase_2,go,450.0,350.0,1.0,,,,,,,,,yellow,cross
0.0,4.0,4.0,0.0,6.0,6.0,315.7493240000804,3.0,1.0,phase_2,go,450.0,350.0,1.0,,,,,,,,,green,square
0.0,3.0,2.0,0.0,6.0,6.0,470.2268440000807,3.0,1.0,phase_2,go,450.0,350.0,1.0,,,,,,,,,gray,circle
0.0,2.0,1.0,0.0,6.0,6.0,324.7840570002154,3.0,1.0,phase_2,go,450.0,350.0,1.0,,,,,,,,,yellow,cross
0.0,3.0,2.0,0.0,6.0,6.0,294.2228639999484,3.0,1.0,phase_2,go,450.0,350.0,1.0,,,,,,,,,gray,circle
0.0,7.0,2.0,1.0,6.0,6.0,383.4897239999009,3.0,1.0,phase_2,stop,450.0,350.0,3.0,,,,,,,,,white,triangle
0.0,7.0,2.0,1.0,6.0,6.0,391.1760440000762,3.0,1.0,phase_2,stop,450.0,300.0,3.0,,,,,,,,,white,triangle
0.0,1.0,0.5,0.0,6.0,6.0,653.4824260002097,3.0,1.0,phase_2,go,450.0,250.0,1.0,,,,,,,,,orange,hexagon
0.0,1.0,0.5,0.0,6.0,6.0,311.2564299999576,3.0,1.0,phase_2,go,450.0,250.0,1.0,,,,,,,,,orange,hexagon
0.0,7.0,2.0,1.0,6.0,6.0,354.9347429998306,3.0,1.0,phase_2,stop,450.0,250.0,3.0,,,,,,,,,white,triangle
0.0,5.0,0.5,1.0,6.0,0.0,0.0,3.0,1.0,phase_2,stop,450.0,200.0,4.0,,,,,,,,,cyan,I
0.0,6.0,1.0,1.0,6.0,0.0,0.0,3.0,1.0,phase_2,stop,450.0,250.0,4.0,,,,,,,,,magenta,flipped triangle
0.0,8.0,4.0,1.0,5.0,5.0,415.6267110001863,3.0,1.0,phase_2,go,450.0,300.0,1.0,,,,,,,,,blue,diamond
0.0,1.0,0.5,0.0,6.0,6.0,330.839726999784,3.0,1.0,phase_2,go,450.0,300.0,1.0,,,,,,,,,orange,hexagon
0.0,1.0,0.5,0.0,6.0,6.0,305.7023419996767,3.0,1.0,phase_2,go,450.0,300.0,1.0,,,,,,,,,orange,hexagon
0.0,3.0,2.0,0.0,5.0,5.0,392.5882429998637,3.0,1.0,phase_2,go,450.0,300.0,1.0,,,,,,,,,gray,circle
0.0,1.0,0.5,0.0,6.0,6.0,753.9682299998276,3.0,1.0,phase_2,go,450.0,300.0,1.0,,,,,,,,,orange,hexagon
0.0,5.0,0.5,1.0,6.0,6.0,407.39861200017907,3.0,1.0,phase_2,stop,450.0,300.0,3.0,,,,,,,,,cyan,I
0.0,6.0,1.0,1.0,6.0,6.0,361.6575060000286,3.0,1.0,phase_2,stop,450.0,250.0,3.0,,,,,,,,,magenta,flipped triangle
0.0,3.0,2.0,0.0,5.0,5.0,681.8767280001339,3.0,1.0,phase_2,go,450.0,200.0,1.0,,,,,,,,,gray,circle
0.0,7.0,2.0,1.0,5.0,5.0,361.7015629997695,3.0,1.0,phase_2,stop,450.0,200.0,3.0,,,,,,,,,white,triangle
0.0,1.0,0.5,0.0,6.0,6.0,332.657191999715,3.0,1.0,phase_2,go,400.0,200.0,1.0,,,,,,,,,orange,hexagon
0.0,6.0,1.0,1.0,6.0,0.0,0.0,3.0,1.0,phase_2,stop,400.0,200.0,4.0,,,,,,,,,magenta,flipped triangle
0.0,4.0,4.0,0.0,6.0,6.0,530.5796380002903,3.0,1.0,phase_2,go,400.0,250.0,1.0,,,,,,,,,green,square
0.0,8.0,4.0,1.0,6.0,6.0,518.446909999966,3.0,1.0,phase_2,go,400.0,250.0,1.0,,,,,,,,,blue,diamond
0.0,8.0,4.0,1.0,6.0,6.0,329.1637749998699,3.0,1.0,phase_2,stop,400.0,250.0,3.0,,,,,,,,,blue,diamond
0.0,5.0,0.5,1.0,5.0,5.0,446.4268699998683,3.0,1.0,phase_2,stop,400.0,200.0,3.0,,,,,,,,,cyan,I
0.0,2.0,1.0,0.0,5.0,5.0,514.6352419997129,3.0,1.0,phase_2,go,350.0,200.0,1.0,,,,,,,,,yellow,cross
0.0,3.0,2.0,0.0,5.0,5.0,388.8026790000367,3.0,1.0,phase_2,go,350.0,200.0,1.0,,,,,,,,,gray,circle
0.0,3.0,2.0,0.0,5.0,5.0,457.4484270001449,3.0,1.0,phase_2,go,350.0,200.0,1.0,,,,,,,,,gray,circle
0.0,5.0,0.5,1.0,5.0,5.0,461.0601539998242,4.0,1.0,phase_2,go,350.0,200.0,1.0,,,,,,,,,cyan,I
0.0,2.0,1.0,0.0,6.0,6.0,282.9690600001413,4.0,1.0,phase_2,go,350.0,200.0,1.0,,,,,,,,,yellow,cross
0.0,6.0,1.0,1.0,5.0,5.0,277.0465720000175,4.0,1.0,phase_2,stop,350.0,200.0,3.0,,,,,,,,,magenta,flipped triangle
0.0,7.0,2.0,1.0,5.0,5.0,458.808554999905,4.0,1.0,phase_2,stop,300.0,200.0,3.0,,,,,,,,,white,triangle
0.0,3.0,2.0,0.0,6.0,6.0,917.7577859995836,4.0,1.0,phase_2,go,250.0,200.0,1.0,,,,,,,,,gray,circle
0.0,2.0,1.0,0.0,6.0,6.0,305.0786710000466,4.0,1.0,phase_2,go,250.0,200.0,1.0,,,,,,,,,yellow,cross
0.0,1.0,0.5,0.0,5.0,5.0,543.7722140000005,4.0,1.0,phase_2,go,250.0,200.0,1.0,,,,,,,,,orange,hexagon
0.0,6.0,1.0,1.0,5.0,5.0,416.5568260000327,4.0,1.0,phase_2,stop,250.0,200.0,3.0,,,,,,,,,magenta,flipped triangle
0.0,7.0,2.0,1.0,5.0,5.0,625.1483510000071,4.0,1.0,phase_2,go,200.0,200.0,1.0,,,,,,,,,white,triangle
0.0,1.0,0.5,0.0,5.0,5.0,694.9627219996728,4.0,1.0,phase_2,go,200.0,200.0,1.0,,,,,,,,,orange,hexagon
0.0,7.0,2.0,1.0,5.0,5.0,288.6193179997462,4.0,1.0,phase_2,stop,200.0,200.0,3.0,,,,,,,,,white,triangle
0.0,6.0,1.0,1.0,5.0,0.0,0.0,4.0,1.0,phase_2,stop,150.0,200.0,4.0,,,,,,,,,magenta,flipped triangle
0.0,2.0,1.0,0.0,6.0,6.0,365.6655740001042,4.0,1.0,phase_2,go,200.0,200.0,1.0,,,,,,,,,yellow,cross
0.0,3.0,2.0,0.0,6.0,6.0,356.4483069999369,4.0,1.0,phase_2,go,200.0,200.0,1.0,,,,,,,,,gray,circle
0.0,7.0,2.0,1.0,6.0,0.0,0.0,4.0,1.0,phase_2,stop,200.0,200.0,4.0,,,,,,,,,white,triangle
0.0,7.0,2.0,1.0,5.0,0.0,0.0,4.0,1.0,phase_2,stop,200.0,250.0,4.0,,,,,,,,,white,triangle
0.0,2.0,1.0,0.0,5.0,5.0,445.9984120003355,4.0,1.0,phase_2,go,250.0,250.0,1.0,,,,,,,,,yellow,cross
0.0,1.0,0.5,0.0,5.0,5.0,416.3502349997543,4.0,1.0,phase_2,go,250.0,250.0,1.0,,,,,,,,,orange,hexagon
0.0,7.0,2.0,1.0,6.0,6.0,303.7860749996071,4.0,1.0,phase_2,go,250.0,250.0,1.0,,,,,,,,,white,triangle
0.0,5.0,0.5,1.0,6.0,6.0,391.2781490002999,4.0,1.0,phase_2,stop,250.0,250.0,3.0,,,,,,,,,cyan,I
0.0,6.0,1.0,1.0,6.0,6.0,638.3104969995657,4.0,1.0,phase_2,go,250.0,200.0,1.0,,,,,,,,,magenta,flipped triangle
0.0,7.0,2.0,1.0,6.0,6.0,361.6110870002558,4.0,1.0,phase_2,stop,250.0,200.0,3.0,,,,,,,,,white,triangle
0.0,4.0,4.0,0.0,5.0,5.0,397.1050509999259,4.0,1.0,phase_2,go,250.0,150.0,1.0,,,,,,,,,green,square
0.0,5.0,0.5,1.0,5.0,5.0,642.6826319998327,4.0,1.0,phase_2,go,250.0,150.0,1.0,,,,,,,,,cyan,I
0.0,7.0,2.0,1.0,6.0,0.0,0.0,4.0,1.0,phase_2,stop,250.0,150.0,4.0,,,,,,,,,white,triangle
0.0,8.0,4.0,1.0,6.0,0.0,0.0,4.0,1.0,phase_2,stop,250.0,200.0,4.0,,,,,,,,,blue,diamond
0.0,6.0,1.0,1.0,6.0,0.0,0.0,4.0,1.0,phase_2,stop,250.0,250.0,4.0,,,,,,,,,magenta,flipped triangle
0.0,2.0,1.0,0.0,6.0,6.0,676.0911420001321,4.0,1.0,phase_2,go,250.0,300.0,1.0,,,,,,,,,yellow,cross
0.0,5.0,0.5,1.0,5.0,5.0,311.3409450002109,4.0,1.0,phase_2,stop,250.0,300.0,3.0,,,,,,,,,cyan,I
0.0,2.0,1.0,0.0,5.0,5.0,494.7969179997926,4.0,1.0,phase_2,go,200.0,300.0,1.0,,,,,,,,,yellow,cross
0.0,2.0,1.0,0.0,5.0,5.0,607.7485619998697,4.0,1.0,phase_2,go,200.0,300.0,1.0,,,,,,,,,yellow,cross
0.0,7.0,2.0,1.0,6.0,6.0,290.2227869999478,4.0,1.0,phase_2,stop,200.0,300.0,3.0,,,,,,,,,white,triangle
0.0,3.0,2.0,0.0,5.0,5.0,429.8429119999127,4.0,1.0,phase_2,go,200.0,250.0,1.0,,,,,,,,,gray,circle
0.0,4.0,4.0,0.0,5.0,5.0,783.876921999763,4.0,1.0,phase_2,go,200.0,250.0,1.0,,,,,,,,,green,square
0.0,2.0,1.0,0.0,5.0,5.0,449.5804270000008,4.0,1.0,phase_2,go,200.0,250.0,1.0,,,,,,,,,yellow,cross
0.0,8.0,4.0,1.0,5.0,5.0,449.9802569998792,4.0,1.0,phase_2,stop,200.0,250.0,3.0,,,,,,,,,blue,diamond
0.0,2.0,1.0,0.0,5.0,5.0,762.7438129998154,5.0,1.0,phase_2,go,150.0,250.0,1.0,,,,,,,,,yellow,cross
0.0,4.0,4.0,0.0,5.0,5.0,347.5147190001735,5.0,1.0,phase_2,go,150.0,250.0,1.0,,,,,,,,,green,square
0.0,2.0,1.0,0.0,6.0,6.0,454.8703559999012,5.0,1.0,phase_2,go,150.0,250.0,1.0,,,,,,,,,yellow,cross
0.0,1.0,0.5,0.0,5.0,5.0,335.7087660001525,5.0,1.0,phase_2,go,150.0,250.0,1.0,,,,,,,,,orange,hexagon
0.0,3.0,2.0,0.0,5.0,5.0,402.2569460003069,5.0,1.0,phase_2,go,150.0,250.0,1.0,,,,,,,,,gray,circle
0.0,6.0,1.0,1.0,5.0,5.0,426.3391300000876,5.0,1.0,phase_2,stop,150.0,250.0,3.0,,,,,,,,,magenta,flipped triangle
0.0,5.0,0.5,1.0,6.0,6.0,399.9832859999515,5.0,1.0,phase_2,stop,100.0,250.0,3.0,,,,,,,,,cyan,I
0.0,3.0,2.0,0.0,6.0,6.0,631.7900280000686,5.0,1.0,phase_2,go,100.0,200.0,1.0,,,,,,,,,gray,circle
0.0,4.0,4.0,0.0,6.0,6.0,899.0880709998237,5.0,1.0,phase_2,go,100.0,200.0,1.0,,,,,,,,,green,square
0.0,2.0,1.0,0.0,5.0,5.0,595.5991820001145,5.0,1.0,phase_2,go,100.0,200.0,1.0,,,,,,,,,yellow,cross
0.0,4.0,4.0,0.0,6.0,6.0,556.1127500000111,5.0,1.0,phase_2,go,100.0,200.0,1.0,,,,,,,,,green,square
0.0,3.0,2.0,0.0,5.0,5.0,308.2985490000283,5.0,1.0,phase_2,go,100.0,200.0,1.0,,,,,,,,,gray,circle
0.0,7.0,2.0,1.0,5.0,0.0,0.0,5.0,1.0,phase_2,stop,100.0,200.0,4.0,,,,,,,,,white,triangle
0.0,8.0,4.0,1.0,5.0,5.0,410.4772800001228,5.0,1.0,phase_2,go,150.0,200.0,1.0,,,,,,,,,blue,diamond
0.0,6.0,1.0,1.0,6.0,6.0,328.3879599998727,5.0,1.0,phase_2,stop,150.0,200.0,3.0,,,,,,,,,magenta,flipped triangle
0.0,4.0,4.0,0.0,5.0,5.0,649.4586759999947,5.0,1.0,phase_2,go,150.0,150.0,1.0,,,,,,,,,green,square
0.0,5.0,0.5,1.0,5.0,0.0,0.0,5.0,1.0,phase_2,stop,150.0,150.0,4.0,,,,,,,,,cyan,I
0.0,7.0,2.0,1.0,6.0,6.0,484.9383679998027,5.0,1.0,phase_2,go,200.0,150.0,1.0,,,,,,,,,white,triangle
0.0,6.0,1.0,1.0,6.0,6.0,727.1800900002745,5.0,1.0,phase_2,go,200.0,150.0,1.0,,,,,,,,,magenta,flipped triangle
0.0,2.0,1.0,0.0,6.0,6.0,629.9837030001072,5.0,1.0,phase_2,go,200.0,150.0,1.0,,,,,,,,,yellow,cross
0.0,3.0,2.0,0.0,6.0,6.0,299.5800540002165,5.0,1.0,phase_2,go,200.0,150.0,1.0,,,,,,,,,gray,circle
0.0,3.0,2.0,0.0,5.0,5.0,289.2664680002781,5.0,1.0,phase_2,go,200.0,150.0,1.0,,,,,,,,,gray,circle
0.0,6.0,1.0,1.0,5.0,5.0,397.2416579999844,5.0,1.0,phase_2,go,200.0,150.0,1.0,,,,,,,,,magenta,flipped triangle
0.0,5.0,0.5,1.0,5.0,5.0,384.4044620000204,5.0,1.0,phase_2,go,200.0,150.0,1.0,,,,,,,,,cyan,I
0.0,1.0,0.5,0.0,5.0,5.0,534.9757569997564,5.0,1.0,phase_2,go,200.0,150.0,1.0,,,,,,,,,orange,hexagon
0.0,7.0,2.0,1.0,6.0,6.0,313.7280420000934,5.0,1.0,phase_2,stop,200.0,150.0,3.0,,,,,,,,,white,triangle
0.0,8.0,4.0,1.0,5.0,0.0,0.0,5.0,1.0,phase_2,stop,200.0,100.0,4.0,,,,,,,,,blue,diamond
0.0,8.0,4.0,1.0,6.0,0.0,0.0,5.0,1.0,phase_2,stop,250.0,100.0,4.0,,,,,,,,,blue,diamond
0.0,2.0,1.0,0.0,5.0,5.0,319.9044299999514,5.0,1.0,phase_2,go,250.0,150.0,1.0,,,,,,,,,yellow,cross
0.0,4.0,4.0,0.0,5.0,5.0,507.8018039998824,5.0,1.0,phase_2,go,250.0,150.0,1.0,,,,,,,,,green,square
0.0,2.0,1.0,0.0,5.0,5.0,586.9713470001443,5.0,1.0,phase_2,go,250.0,150.0,1.0,,,,,,,,,yellow,cross
0.0,2.0,1.0,0.0,5.0,5.0,372.128603999954,5.0,1.0,phase_2,go,250.0,150.0,1.0,,,,,,,,,yellow,cross
0.0,3.0,2.0,0.0,5.0,5.0,407.3600649999207,5.0,1.0,phase_2,go,250.0,150.0,1.0,,,,,,,,,gray,circle
0.0,1.0,0.5,0.0,5.0,5.0,347.7143169998271,5.0,1.0,phase_2,go,250.0,150.0,1.0,,,,,,,,,orange,hexagon
0.0,4.0,4.0,0.0,5.0,5.0,443.5768060002374,5.0,1.0,phase_2,go,250.0,150.0,1.0,,,,,,,,,green,square
0.0,8.0,4.0,1.0,5.0,5.0,292.8900779998002,5.0,1.0,phase_2,stop,250.0,150.0,3.0,,,,,,,,,blue,diamond
0.0,8.0,4.0,1.0,5.0,5.0,858.4261729997706,6.0,1.0,phase_2,go,200.0,150.0,1.0,,,,,,,,,blue,diamond
0.0,7.0,2.0,1.0,5.0,5.0,631.420824000088,6.0,1.0,phase_2,go,200.0,150.0,1.0,,,,,,,,,white,triangle
0.0,6.0,1.0,1.0,5.0,0.0,0.0,6.0,1.0,phase_2,stop,200.0,150.0,4.0,,,,,,,,,magenta,flipped triangle
0.0,5.0,0.5,1.0,5.0,5.0,605.3943020001498,6.0,1.0,phase_2,go,250.0,150.0,1.0,,,,,,,,,cyan,I
0.0,3.0,2.0,0.0,6.0,6.0,354.0341040002204,6.0,1.0,phase_2,go,250.0,150.0,1.0,,,,,,,,,gray,circle
0.0,5.0,0.5,1.0,6.0,6.0,303.0382340002688,6.0,1.0,phase_2,stop,250.0,150.0,3.0,,,,,,,,,cyan,I
0.0,4.0,4.0,0.0,5.0,5.0,324.7365319998607,6.0,1.0,phase_2,go,250.0,100.0,1.0,,,,,,,,,green,square
0.0,4.0,4.0,0.0,5.0,5.0,325.6721790003212,6.0,1.0,phase_2,go,250.0,100.0,1.0,,,,,,,,,green,square
0.0,5.0,0.5,1.0,6.0,0.0,0.0,6.0,1.0,phase_2,stop,250.0,100.0,4.0,,,,,,,,,cyan,I
0.0,8.0,4.0,1.0,6.0,0.0,0.0,6.0,1.0,phase_2,stop,250.0,150.0,4.0,,,,,,,,,blue,diamond
0.0,4.0,4.0,0.0,5.0,5.0,394.6494140000141,6.0,1.0,phase_2,go,250.0,200.0,1.0,,,,,,,,,green,square
0.0,6.0,1.0,1.0,5.0,5.0,417.3529750000853,6.0,1.0,phase_2,stop,250.0,200.0,3.0,,,,,,,,,magenta,flipped triangle
0.0,1.0,0.5,0.0,6.0,6.0,596.0441520001041,6.0,1.0,phase_2,go,200.0,200.0,1.0,,,,,,,,,orange,hexagon
0.0,8.0,4.0,1.0,6.0,6.0,420.4673859999275,6.0,1.0,phase_2,stop,200.0,200.0,3.0,,,,,,,,,blue,diamond
0.0,7.0,2.0,1.0,6.0,6.0,652.9799850000018,6.0,1.0,phase_2,go,200.0,150.0,1.0,,,,,,,,,white,triangle
0.0,6.0,1.0,1.0,6.0,0.0,0.0,6.0,1.0,phase_2,stop,200.0,150.0,4.0,,,,,,,,,magenta,flipped triangle
0.0,5.0,0.5,1.0,6.0,0.0,0.0,6.0,1.0,phase_2,stop,200.0,200.0,4.0,,,,,,,,,cyan,I
0.0,4.0,4.0,0.0,6.0,6.0,604.031465999924,6.0,1.0,phase_2,go,200.0,250.0,1.0,,,,,,,,,green,square
0.0,8.0,4.0,1.0,5.0,5.0,308.8257330000488,6.0,1.0,phase_2,stop,200.0,250.0,3.0,,,,,,,,,blue,diamond
0.0,2.0,1.0,0.0,6.0,6.0,879.7178199997688,6.0,1.0,phase_2,go,150.0,250.0,1.0,,,,,,,,,yellow,cross
0.0,4.0,4.0,0.0,5.0,5.0,441.1322099999779,6.0,1.0,phase_2,go,150.0,250.0,1.0,,,,,,,,,green,square
0.0,8.0,4.0,1.0,5.0,5.0,298.5031510002045,6.0,1.0,phase_2,stop,150.0,250.0,3.0,,,,,,,,,blue,diamond
0.0,7.0,2.0,1.0,6.0,0.0,0.0,6.0,1.0,phase_2,stop,100.0,250.0,4.0,,,,,,,,,white,triangle
0.0,6.0,1.0,1.0,6.0,6.0,569.7672779997447,6.0,1.0,phase_2,go,100.0,300.0,1.0,,,,,,,,,magenta,flipped triangle
0.0,6.0,1.0,1.0,6.0,6.0,285.0082569998449,6.0,1.0,phase_2,stop,100.0,300.0,3.0,,,,,,,,,magenta,flipped triangle
0.0,6.0,1.0,1.0,5.0,0.0,0.0,6.0,1.0,phase_2,stop,100.0,250.0,4.0,,,,,,,,,magenta,flipped triangle
0.0,2.0,1.0,0.0,6.0,6.0,404.2708970000603,6.0,1.0,phase_2,go,150.0,250.0,1.0,,,,,,,,,yellow,cross
0.0,4.0,4.0,0.0,6.0,6.0,679.808980999951,6.0,1.0,phase_2,go,150.0,250.0,1.0,,,,,,,,,green,square
0.0,8.0,4.0,1.0,6.0,6.0,395.5265589997907,6.0,1.0,phase_2,go,150.0,250.0,1.0,,,,,,,,,blue,diamond
0.0,7.0,2.0,1.0,5.0,0.0,0.0,6.0,1.0,phase_2,stop,150.0,250.0,4.0,,,,,,,,,white,triangle
0.0,5.0,0.5,1.0,5.0,5.0,374.3207120000988,6.0,1.0,phase_2,go,200.0,250.0,1.0,,,,,,,,,cyan,I
0.0,5.0,0.5,1.0,6.0,6.0,455.9647480000421,6.0,1.0,phase_2,stop,200.0,250.0,3.0,,,,,,,,,cyan,I
0.0,1.0,0.5,0.0,5.0,5.0,574.0938840003764,6.0,1.0,phase_2,go,200.0,200.0,1.0,,,,,,,,,orange,hexagon
0.0,8.0,4.0,1.0,5.0,5.0,357.182897000257,6.0,1.0,phase_2,stop,200.0,200.0,3.0,,,,,,,,,blue,diamond
0.0,1.0,0.5,0.0,6.0,6.0,689.1401969996878,6.0,1.0,phase_2,go,150.0,200.0,1.0,,,,,,,,,orange,hexagon
0.0,3.0,2.0,0.0,6.0,6.0,307.4460230000113,6.0,1.0,phase_2,go,150.0,200.0,1.0,,,,,,,,,gray,circle
0.0,4.0,4.0,0.0,6.0,6.0,437.4804760000188,7.0,1.0,phase_2,go,150.0,200.0,1.0,,,,,,,,,green,square
0.0,8.0,4.0,1.0,5.0,5.0,374.4397980003668,7.0,1.0,phase_2,stop,150.0,200.0,3.0,,,,,,,,,blue,diamond
0.0,8.0,4.0,1.0,6.0,6.0,368.7990930002343,7.0,1.0,phase_2,go,100.0,200.0,1.0,,,,,,,,,blue,diamond
0.0,1.0,0.5,0.0,5.0,5.0,576.4688270000988,7.0,1.0,phase_2,go,100.0,200.0,1.0,,,,,,,,,orange,hexagon
0.0,2.0,1.0,0.0,6.0,6.0,517.027305999818,7.0,1.0,phase_2,go,100.0,200.0,1.0,,,,,,,,,yellow,cross
0.0,8.0,4.0,1.0,5.0,0.0,0.0,7.0,1.0,phase_2,stop,100.0,200.0,4.0,,,,,,,,,blue,diamond
0.0,4.0,4.0,0.0,6.0,6.0,379.9745029996302,7.0,1.0,phase_2,go,150.0,200.0,1.0,,,,,,,,,green,square
0.0,8.0,4.0,1.0,6.0,0.0,0.0,7.0,1.0,phase_2,stop,150.0,200.0,4.0,,,,,,,,,blue,diamond
0.0,1.0,0.5,0.0,6.0,6.0,661.7349820003255,7.0,1.0,phase_2,go,150.0,250.0,1.0,,,,,,,,,orange,hexagon
0.0,7.0,2.0,1.0,6.0,0.0,0.0,7.0,1.0,phase_2,stop,150.0,250.0,4.0,,,,,,,,,white,triangle
0.0,1.0,0.5,0.0,6.0,6.0,615.7079910003631,7.0,1.0,phase_2,go,150.0,300.0,1.0,,,,,,,,,orange,hexagon
0.0,6.0,1.0,1.0,6.0,6.0,369.0411049997237,7.0,1.0,phase_2,stop,150.0,300.0,3.0,,,,,,,,,magenta,flipped triangle
0.0,3.0,2.0,0.0,6.0,6.0,720.1160649997291,7.0,1.0,phase_2,go,150.0,250.0,1.0,,,,,,,,,gray,circle
0.0,1.0,0.5,0.0,6.0,6.0,353.558731999783,7.0,1.0,phase_2,go,150.0,250.0,1.0,,,,,,,,,orange,hexagon
0.0,5.0,0.5,1.0,5.0,5.0,588.2040940000479,7.0,1.0,phase_2,stop,150.0,250.0,3.0,,,,,,,,,cyan,I
0.0,3.0,2.0,0.0,6.0,6.0,344.3615770001997,7.0,1.0,phase_2,go,100.0,250.0,1.0,,,,,,,,,gray,circle
0.0,6.0,1.0,1.0,6.0,0.0,0.0,7.0,1.0,phase_2,stop,100.0,250.0,4.0,,,,,,,,,magenta,flipped triangle
0.0,2.0,1.0,0.0,6.0,6.0,636.955984999986,7.0,1.0,phase_2,go,100.0,300.0,1.0,,,,,,,,,yellow,cross
0.0,8.0,4.0,1.0,5.0,0.0,0.0,7.0,1.0,phase_2,stop,100.0,300.0,4.0,,,,,,,,,blue,diamond
0.0,4.0,4.0,0.0,6.0,6.0,433.2827769999312,7.0,1.0,phase_2,go,150.0,300.0,1.0,,,,,,,,,green,square
0.0,2.0,1.0,0.0,5.0,5.0,405.0231989999702,7.0,1.0,phase_2,go,150.0,300.0,1.0,,,,,,,,,yellow,cross
0.0,2.0,1.0,0.0,5.0,5.0,299.9411169998893,7.0,1.0,phase_2,go,150.0,300.0,1.0,,,,,,,,,yellow,cross
0.0,6.0,1.0,1.0,6.0,0.0,0.0,7.0,1.0,phase_2,stop,150.0,300.0,4.0,,,,,,,,,magenta,flipped triangle
0.0,5.0,0.5,1.0,5.0,0.0,0.0,7.0,1.0,phase_2,stop,150.0,350.0,4.0,,,,,,,,,cyan,I
0.0,5.0,0.5,1.0,5.0,0.0,0.0,7.0,1.0,phase_2,stop,200.0,350.0,4.0,,,,,,,,,cyan,I
0.0,6.0,1.0,1.0,6.0,6.0,557.9821729998002,7.0,1.0,phase_2,go,250.0,350.0,1.0,,,,,,,,,magenta,flipped triangle
0.0,7.0,2.0,1.0,5.0,0.0,0.0,7.0,1.0,phase_2,stop,250.0,350.0,4.0,,,,,,,,,white,triangle
0.0,5.0,0.5,1.0,5.0,5.0,879.6738569999434,7.0,1.0,phase_2,go,300.0,350.0,1.0,,,,,,,,,cyan,I
0.0,4.0,4.0,0.0,6.0,6.0,527.2107729997515,7.0,1.0,phase_2,go,300.0,350.0,1.0,,,,,,,,,green,square
0.0,5.0,0.5,1.0,6.0,6.0,383.8737500000206,7.0,1.0,phase_2,stop,300.0,350.0,3.0,,,,,,,,,cyan,I
0.0,7.0,2.0,1.0,6.0,6.0,565.6715909999548,7.0,1.0,phase_2,go,300.0,300.0,1.0,,,,,,,,,white,triangle
0.0,3.0,2.0,0.0,6.0,6.0,397.1003619999464,7.0,1.0,phase_2,go,300.0,300.0,1.0,,,,,,,,,gray,circle
0.0,1.0,0.5,0.0,6.0,6.0,516.8498479997652,7.0,1.0,phase_2,go,300.0,300.0,1.0,,,,,,,,,orange,hexagon
0.0,1.0,0.5,0.0,6.0,6.0,524.2026740002075,7.0,1.0,phase_2,go,300.0,300.0,1.0,,,,,,,,,orange,hexagon
0.0,6.0,1.0,1.0,5.0,5.0,566.5331979998882,7.0,1.0,phase_2,go,300.0,300.0,1.0,,,,,,,,,magenta,flipped triangle
0.0,4.0,4.0,0.0,6.0,6.0,492.5122929998906,7.0,1.0,phase_2,go,300.0,300.0,1.0,,,,,,,,,green,square
0.0,7.0,2.0,1.0,6.0,6.0,407.8453429997353,8.0,1.0,phase_2,stop,300.0,300.0,3.0,,,,,,,,,white,triangle
0.0,4.0,4.0,0.0,6.0,6.0,459.6887170000627,8.0,1.0,phase_2,go,300.0,250.0,1.0,,,,,,,,,green,square
0.0,3.0,2.0,0.0,6.0,6.0,553.6169080000946,8.0,1.0,phase_2,go,300.0,250.0,1.0,,,,,,,,,gray,circle
0.0,2.0,1.0,0.0,6.0,6.0,413.6033899999347,8.0,1.0,phase_2,go,300.0,250.0,1.0,,,,,,,,,yellow,cross
0.0,1.0,0.5,0.0,5.0,5.0,373.7495670002317,8.0,1.0,phase_2,go,300.0,250.0,1.0,,,,,,,,,orange,hexagon
0.0,3.0,2.0,0.0,5.0,5.0,375.9771180002644,8.0,1.0,phase_2,go,300.0,250.0,1.0,,,,,,,,,gray,circle
0.0,5.0,0.5,1.0,5.0,5.0,371.5675600001304,8.0,1.0,phase_2,stop,300.0,250.0,3.0,,,,,,,,,cyan,I
0.0,1.0,0.5,0.0,5.0,5.0,496.7576890003329,8.0,1.0,phase_2,go,250.0,250.0,1.0,,,,,,,,,orange,hexagon
0.0,2.0,1.0,0.0,5.0,5.0,402.0191409999825,8.0,1.0,phase_2,go,250.0,250.0,1.0,,,,,,,,,yellow,cross
0.0,4.0,4.0,0.0,6.0,6.0,422.7409390000503,8.0,1.0,phase_2,go,250.0,250.0,1.0,,,,,,,,,green,square
0.0,5.0,0.5,1.0,6.0,6.0,347.0966979998593,8.0,1.0,phase_2,stop,250.0,250.0,3.0,,,,,,,,,cyan,I
0.0,7.0,2.0,1.0,5.0,5.0,512.399553999785,8.0,1.0,phase_2,stop,250.0,200.0,3.0,,,,,,,,,white,triangle
0.0,5.0,0.5,1.0,6.0,0.0,0.0,8.0,1.0,phase_2,stop,200.0,200.0,4.0,,,,,,,,,cyan,I
0.0,2.0,1.0,0.0,6.0,6.0,569.2875299996558,8.0,1.0,phase_2,go,200.0,250.0,1.0,,,,,,,,,yellow,cross
0.0,2.0,1.0,0.0,5.0,5.0,452.3075100000824,8.0,1.0,phase_2,go,200.0,250.0,1.0,,,,,,,,,yellow,cross
0.0,1.0,0.5,0.0,6.0,6.0,581.2704559998565,8.0,1.0,phase_2,go,200.0,250.0,1.0,,,,,,,,,orange,hexagon
0.0,1.0,0.5,0.0,5.0,5.0,441.4604399999007,8.0,1.0,phase_2,go,200.0,250.0,1.0,,,,,,,,,orange,hexagon
0.0,6.0,1.0,1.0,6.0,6.0,462.2835780000969,8.0,1.0,phase_2,stop,200.0,250.0,3.0,,,,,,,,,magenta,flipped triangle
0.0,8.0,4.0,1.0,6.0,6.0,400.6089449999308,8.0,1.0,phase_2,stop,200.0,200.0,3.0,,,,,,,,,blue,diamond
0.0,5.0,0.5,1.0,6.0,0.0,0.0,8.0,1.0,phase_2,stop,200.0,150.0,4.0,,,,,,,,,cyan,I
0.0,2.0,1.0,0.0,5.0,5.0,538.7007680001261,8.0,1.0,phase_2,go,200.0,200.0,1.0,,,,,,,,,yellow,cross
0.0,8.0,4.0,1.0,6.0,0.0,0.0,8.0,1.0,phase_2,stop,200.0,200.0,4.0,,,,,,,,,blue,diamond
0.0,6.0,1.0,1.0,6.0,0.0,0.0,8.0,1.0,phase_2,stop,200.0,250.0,4.0,,,,,,,,,magenta,flipped triangle
0.0,4.0,4.0,0.0,5.0,5.0,672.0602080004028,8.0,1.0,phase_2,go,200.0,300.0,1.0,,,,,,,,,green,square
0.0,2.0,1.0,0.0,6.0,6.0,767.7549400000316,8.0,1.0,phase_2,go,200.0,300.0,1.0,,,,,,,,,yellow,cross
0.0,4.0,4.0,0.0,6.0,6.0,762.2676799996952,8.0,1.0,phase_2,go,200.0,300.0,1.0,,,,,,,,,green,square
0.0,2.0,1.0,0.0,6.0,6.0,331.2806270000692,8.0,1.0,phase_2,go,200.0,300.0,1.0,,,,,,,,,yellow,cross
0.0,7.0,2.0,1.0,5.0,5.0,314.1504950003764,8.0,1.0,phase_2,stop,200.0,300.0,3.0,,,,,,,,,white,triangle
0.0,1.0,0.5,0.0,6.0,6.0,301.8198459999439,8.0,1.0,phase_2,go,150.0,300.0,1.0,,,,,,,,,orange,hexagon
0.0,4.0,4.0,0.0,6.0,6.0,543.4506910000891,8.0,1.0,phase_2,go,150.0,300.0,1.0,,,,,,,,,green,square
0.0,3.0,2.0,0.0,5.0,5.0,661.746944999777,8.0,1.0,phase_2,go,150.0,300.0,1.0,,,,,,,,,gray,circle
0.0,1.0,0.5,0.0,5.0,5.0,467.1633130001282,8.0,1.0,phase_2,go,150.0,300.0,1.0,,,,,,,,,orange,hexagon
0.0,3.0,2.0,0.0,6.0,6.0,582.9726030001439,8.0,1.0,phase_2,go,150.0,300.0,1.0,,,,,,,,,gray,circle
0.0,4.0,4.0,0.0,5.0,5.0,616.3056069999584,8.0,1.0,phase_2,go,150.0,300.0,1.0,,,,,,,,,green,square
0.0,3.0,2.0,0.0,6.0,6.0,428.5974549998173,8.0,1.0,phase_2,go,150.0,300.0,1.0,,,,,,,,,gray,circle
0.0,8.0,4.0,1.0,6.0,6.0,340.5101069997727,8.0,1.0,phase_2,stop,150.0,300.0,3.0,,,,,,,,,blue,diamond
0.0,5.0,0.5,1.0,7.0,2.0,2917.16921599982,1.0,1.0,phase_3,,,,,88.0,2.0,132.0,88.0,44.0,264.0,176.0,220.0,cyan,I
0.0,8.0,4.0,1.0,7.0,4.0,1770.757479999702,1.0,1.0,phase_3,,,,,34.0,1.0,204.0,68.0,136.0,34.0,102.0,170.0,blue,diamond
0.0,5.0,0.5,1.0,7.0,5.0,1173.886186000345,1.0,1.0,phase_3,,,,,49.0,1.0,196.0,245.0,147.0,294.0,49.0,98.0,cyan,I
0.0,1.0,0.5,0.0,7.0,1.0,1850.7795320001603,1.0,1.0,phase_3,,,,,270.0,5.0,270.0,324.0,54.0,108.0,162.0,216.0,orange,hexagon
0.0,3.0,2.0,0.0,7.0,5.0,1335.502001999885,1.0,1.0,phase_3,,,,,147.0,3.0,98.0,294.0,196.0,245.0,147.0,49.0,gray,circle
0.0,8.0,4.0,1.0,7.0,4.0,1331.4013159997558,1.0,1.0,phase_3,,,,,270.0,5.0,324.0,162.0,216.0,270.0,54.0,108.0,blue,diamond
0.0,6.0,1.0,1.0,7.0,3.0,1378.1498589996772,1.0,1.0,phase_3,,,,,132.0,3.0,88.0,176.0,132.0,220.0,44.0,264.0,magenta,flipped triangle
0.0,7.0,2.0,1.0,7.0,4.0,1658.685093000713,1.0,1.0,phase_3,,,,,132.0,3.0,264.0,44.0,176.0,132.0,88.0,220.0,white,triangle
0.0,5.0,0.5,1.0,7.0,5.0,1315.861355999914,1.0,1.0,phase_3,,,,,170.0,5.0,34.0,204.0,68.0,102.0,170.0,136.0,cyan,I
0.0,6.0,1.0,1.0,7.0,1.0,1216.0695809998288,1.0,1.0,phase_3,,,,,102.0,3.0,102.0,136.0,34.0,204.0,68.0,170.0,magenta,flipped triangle
0.0,4.0,4.0,0.0,7.0,2.0,1314.6176460004426,1.0,1.0,phase_3,,,,,108.0,2.0,54.0,108.0,324.0,270.0,216.0,162.0,green,square
0.0,2.0,1.0,0.0,7.0,6.0,906.6627510001126,1.0,1.0,phase_3,,,,,132.0,3.0,176.0,264.0,44.0,220.0,88.0,132.0,yellow,cross
0.0,2.0,1.0,0.0,7.0,1.0,1259.600345999388,1.0,1.0,phase_3,,,,,132.0,3.0,132.0,88.0,264.0,44.0,220.0,176.0,yellow,cross
0.0,7.0,2.0,1.0,7.0,5.0,1168.3825609998166,1.0,1.0,phase_3,,,,,78.0,2.0,195.0,234.0,156.0,39.0,78.0,117.0,white,triangle
0.0,6.0,1.0,1.0,7.0,3.0,1377.2715330005667,1.0,1.0,phase_3,,,,,102.0,3.0,136.0,204.0,102.0,34.0,170.0,68.0,magenta,flipped triangle
0.0,1.0,0.5,0.0,7.0,2.0,811.1949689991889,1.0,1.0,phase_3,,,,,216.0,4.0,324.0,216.0,108.0,162.0,54.0,270.0,orange,hexagon
0.0,7.0,2.0,1.0,7.0,5.0,998.2695419994344,1.0,1.0,phase_3,,,,,68.0,2.0,136.0,102.0,204.0,170.0,68.0,34.0,white,triangle
0.0,5.0,0.5,1.0,7.0,4.0,1058.9936389997092,1.0,1.0,phase_3,,,,,68.0,2.0,34.0,102.0,204.0,68.0,170.0,136.0,cyan,I
0.0,6.0,1.0,1.0,7.0,5.0,694.5740199998909,1.0,1.0,phase_3,,,,,324.0,6.0,270.0,108.0,216.0,162.0,324.0,54.0,magenta,flipped triangle
0.0,1.0,0.5,0.0,7.0,2.0,681.887863999691,1.0,1.0,phase_3,,,,,117.0,3.0,195.0,117.0,78.0,234.0,156.0,39.0,orange,hexagon
0.0,7.0,2.0,1.0,7.0,2.0,1225.1395889998091,2.0,1.0,phase_3,,,,,117.0,3.0,156.0,117.0,78.0,234.0,39.0,195.0,white,triangle
0.0,1.0,0.5,0.0,7.0,4.0,1120.8835870002076,2.0,1.0,phase_3,,,,,117.0,3.0,156.0,39.0,234.0,117.0,195.0,78.0,orange,hexagon
0.0,5.0,0.5,1.0,7.0,2.0,900.5389060002926,2.0,1.0,phase_3,,,,,324.0,6.0,108.0,324.0,54.0,162.0,216.0,270.0,cyan,I
0.0,3.0,2.0,0.0,7.0,5.0,753.2243359992208,2.0,1.0,phase_3,,,,,88.0,2.0,220.0,44.0,132.0,264.0,88.0,176.0,gray,circle
0.0,6.0,1.0,1.0,7.0,2.0,784.4697049995375,2.0,1.0,phase_3,,,,,78.0,2.0,234.0,78.0,117.0,156.0,39.0,195.0,magenta,flipped triangle
0.0,8.0,4.0,1.0,7.0,3.0,1588.3570449996114,2.0,1.0,phase_3,,,,,220.0,5.0,176.0,264.0,220.0,88.0,44.0,132.0,blue,diamond
0.0,5.0,0.5,1.0,7.0,5.0,915.2495520002047,2.0,1.0,phase_3,,,,,324.0,6.0,162.0,108.0,216.0,54.0,324.0,270.0,cyan,I
0.0,2.0,1.0,0.0,7.0,2.0,906.0552999999344,2.0,1.0,phase_3,,,,,156.0,4.0,39.0,156.0,78.0,195.0,117.0,234.0,yellow,cross
0.0,2.0,1.0,0.0,7.0,5.0,650.5728009997256,2.0,1.0,phase_3,,,,,270.0,5.0,54.0,108.0,324.0,162.0,270.0,216.0,yellow,cross
0.0,3.0,2.0,0.0,7.0,5.0,831.4961369997036,2.0,1.0,phase_3,,,,,108.0,2.0,54.0,216.0,162.0,270.0,108.0,324.0,gray,circle
0.0,7.0,2.0,1.0,7.0,2.0,658.6082189996887,2.0,1.0,phase_3,,,,,294.0,6.0,147.0,294.0,98.0,196.0,49.0,245.0,white,triangle
0.0,3.0,2.0,0.0,7.0,2.0,752.0859599999312,2.0,1.0,phase_3,,,,,195.0,5.0,117.0,195.0,39.0,78.0,156.0,234.0,gray,circle
0.0,3.0,2.0,0.0,7.0,3.0,892.8186539997114,2.0,1.0,phase_3,,,,,170.0,5.0,34.0,204.0,170.0,68.0,102.0,136.0,gray,circle
0.0,1.0,0.5,0.0,7.0,2.0,580.7462180000584,2.0,1.0,phase_3,,,,,44.0,1.0,88.0,44.0,264.0,220.0,176.0,132.0,orange,hexagon
0.0,6.0,1.0,1.0,7.0,4.0,741.4938089996213,2.0,1.0,phase_3,,,,,147.0,3.0,196.0,49.0,98.0,147.0,245.0,294.0,magenta,flipped triangle
0.0,8.0,4.0,1.0,7.0,1.0,812.4873130000196,2.0,1.0,phase_3,,,,,117.0,3.0,117.0,78.0,195.0,234.0,39.0,156.0,blue,diamond
0.0,3.0,2.0,0.0,7.0,5.0,686.958291999872,2.0,1.0,phase_3,,,,,195.0,5.0,78.0,39.0,234.0,156.0,195.0,117.0,gray,circle
0.0,5.0,0.5,1.0,7.0,2.0,622.7642189996914,2.0,1.0,phase_3,,,,,195.0,5.0,234.0,195.0,78.0,156.0,39.0,117.0,cyan,I
0.0,6.0,1.0,1.0,7.0,4.0,705.0030999998853,2.0,1.0,phase_3,,,,,220.0,5.0,132.0,88.0,44.0,220.0,264.0,176.0,magenta,flipped triangle
0.0,2.0,1.0,0.0,7.0,2.0,891.8518769996808,2.0,1.0,phase_3,,,,,54.0,1.0,108.0,54.0,216.0,270.0,324.0,162.0,yellow,cross
0.0,3.0,2.0,0.0,7.0,4.0,752.775629000098,3.0,1.0,phase_3,,,,,49.0,1.0,294.0,245.0,196.0,49.0,98.0,147.0,gray,circle
0.0,4.0,4.0,0.0,7.0,3.0,716.5942890005681,3.0,1.0,phase_3,,,,,132.0,3.0,176.0,44.0,132.0,220.0,88.0,264.0,green,square
0.0,5.0,0.5,1.0,7.0,2.0,588.4802619993934,3.0,1.0,phase_3,,,,,98.0,2.0,196.0,98.0,49.0,147.0,245.0,294.0,cyan,I
0.0,4.0,4.0,0.0,7.0,4.0,526.1293040002784,3.0,1.0,phase_3,,,,,117.0,3.0,234.0,78.0,156.0,117.0,39.0,195.0,green,square
0.0,6.0,1.0,1.0,7.0,4.0,810.5820499995389,3.0,1.0,phase_3,,,,,49.0,1.0,245.0,294.0,147.0,49.0,98.0,196.0,magenta,flipped triangle
0.0,8.0,4.0,1.0,7.0,2.0,584.5208559994717,3.0,1.0,phase_3,,,,,220.0,5.0,88.0,220.0,176.0,264.0,132.0,44.0,blue,diamond
0.0,4.0,4.0,0.0,7.0,3.0,912.7521909995266,3.0,1.0,phase_3,,,,,170.0,5.0,204.0,136.0,170.0,34.0,102.0,68.0,green,square
0.0,5.0,0.5,1.0,7.0,4.0,632.2944869998537,3.0,1.0,phase_3,,,,,220.0,5.0,88.0,264.0,132.0,220.0,176.0,44.0,cyan,I
0.0,7.0,2.0,1.0,7.0,5.0,787.6100499997847,3.0,1.0,phase_3,,,,,176.0,4.0,132.0,44.0,264.0,88.0,176.0,220.0,white,triangle
0.0,2.0,1.0,0.0,7.0,1.0,622.3947739999858,3.0,1.0,phase_3,,,,,196.0,4.0,196.0,98.0,245.0,147.0,49.0,294.0,yellow,cross
0.0,7.0,2.0,1.0,7.0,5.0,1022.7938670004733,3.0,1.0,phase_3,,,,,245.0,5.0,294.0,196.0,98.0,49.0,245.0,147.0,white,triangle
0.0,8.0,4.0,1.0,7.0,5.0,977.3445719993106,3.0,1.0,phase_3,,,,,136.0,4.0,102.0,34.0,68.0,204.0,136.0,170.0,blue,diamond
0.0,1.0,0.5,0.0,7.0,4.0,642.9817580001327,3.0,1.0,phase_3,,,,,176.0,4.0,132.0,264.0,44.0,176.0,220.0,88.0,orange,hexagon
0.0,1.0,0.5,0.0,7.0,4.0,790.3283260002354,3.0,1.0,phase_3,,,,,170.0,5.0,68.0,102.0,204.0,170.0,34.0,136.0,orange,hexagon
0.0,8.0,4.0,1.0,7.0,2.0,621.7659800004185,3.0,1.0,phase_3,,,,,147.0,3.0,196.0,147.0,245.0,294.0,49.0,98.0,blue,diamond
0.0,1.0,0.5,0.0,7.0,3.0,717.7333310000904,3.0,1.0,phase_3,,,,,147.0,3.0,49.0,294.0,147.0,196.0,98.0,245.0,orange,hexagon
0.0,3.0,2.0,0.0,7.0,3.0,512.1837249998862,3.0,1.0,phase_3,,,,,162.0,3.0,108.0,270.0,162.0,54.0,324.0,216.0,gray,circle
0.0,7.0,2.0,1.0,7.0,4.0,693.1285739992745,3.0,1.0,phase_3,,,,,170.0,5.0,68.0,204.0,34.0,170.0,102.0,136.0,white,triangle
0.0,1.0,0.5,0.0,7.0,4.0,624.4180499998038,3.0,1.0,phase_3,,,,,147.0,3.0,49.0,98.0,245.0,147.0,196.0,294.0,orange,hexagon
0.0,4.0,4.0,0.0,7.0,6.0,929.8422499996376,3.0,1.0,phase_3,,,,,196.0,4.0,294.0,147.0,98.0,49.0,245.0,196.0,green,square
0.0,2.0,1.0,0.0,7.0,5.0,1022.2124400006578,4.0,1.0,phase_3,,,,,102.0,3.0,136.0,34.0,204.0,68.0,102.0,170.0,yellow,cross
0.0,6.0,1.0,1.0,7.0,5.0,1059.1057419997014,4.0,1.0,phase_3,,,,,195.0,5.0,117.0,234.0,78.0,156.0,195.0,39.0,magenta,flipped triangle
0.0,3.0,2.0,0.0,7.0,6.0,812.0894459998453,4.0,1.0,phase_3,,,,,88.0,2.0,176.0,44.0,264.0,220.0,132.0,88.0,gray,circle
0.0,3.0,2.0,0.0,7.0,1.0,721.4050510001471,4.0,1.0,phase_3,,,,,136.0,4.0,136.0,68.0,102.0,34.0,170.0,204.0,gray,circle
0.0,8.0,4.0,1.0,7.0,4.0,1087.0305900007224,4.0,1.0,phase_3,,,,,324.0,6.0,162.0,216.0,108.0,324.0,270.0,54.0,blue,diamond
0.0,2.0,1.0,0.0,7.0,1.0,803.4599570000864,4.0,1.0,phase_3,,,,,170.0,5.0,170.0,68.0,204.0,136.0,34.0,102.0,yellow,cross
0.0,6.0,1.0,1.0,7.0,6.0,515.7088440000734,4.0,1.0,phase_3,,,,,270.0,5.0,108.0,54.0,162.0,216.0,324.0,270.0,magenta,flipped triangle
0.0,8.0,4.0,1.0,7.0,1.0,647.5305310004842,4.0,1.0,phase_3,,,,,49.0,1.0,49.0,294.0,196.0,98.0,245.0,147.0,blue,diamond
0.0,5.0,0.5,1.0,7.0,5.0,995.817705999798,4.0,1.0,phase_3,,,,,117.0,3.0,195.0,39.0,234.0,156.0,117.0,78.0,cyan,I
0.0,2.0,1.0,0.0,7.0,6.0,606.8531820001226,4.0,1.0,phase_3,,,,,195.0,5.0,156.0,234.0,117.0,78.0,39.0,195.0,yellow,cross
0.0,4.0,4.0,0.0,7.0,2.0,1074.00918500025,4.0,1.0,phase_3,,,,,264.0,6.0,44.0,264.0,132.0,220.0,176.0,88.0,green,square
0.0,4.0,4.0,0.0,7.0,5.0,789.4551509998564,4.0,1.0,phase_3,,,,,170.0,5.0,204.0,136.0,102.0,68.0,170.0,34.0,green,square
0.0,2.0,1.0,0.0,7.0,2.0,1025.7302499994694,4.0,1.0,phase_3,,,,,98.0,2.0,245.0,98.0,294.0,49.0,147.0,196.0,yellow,cross
0.0,7.0,2.0,1.0,7.0,5.0,712.2658509997564,4.0,1.0,phase_3,,,,,108.0,2.0,324.0,162.0,54.0,270.0,108.0,216.0,white,triangle
0.0,4.0,4.0,0.0,7.0,5.0,725.6330780001008,4.0,1.0,phase_3,,,,,117.0,3.0,195.0,39.0,234.0,78.0,117.0,156.0,green,square
0.0,7.0,2.0,1.0,7.0,5.0,701.3469920002535,4.0,1.0,phase_3,,,,,162.0,3.0,216.0,54.0,324.0,270.0,162.0,108.0,white,triangle
0.0,8.0,4.0,1.0,7.0,5.0,442.8784199999427,4.0,1.0,phase_3,,,,,195.0,5.0,117.0,234.0,78.0,39.0,195.0,156.0,blue,diamond
0.0,4.0,4.0,0.0,7.0,6.0,524.1808269993271,4.0,1.0,phase_3,,,,,196.0,4.0,98.0,49.0,147.0,294.0,245.0,196.0,green,square
0.0,1.0,0.5,0.0,7.0,6.0,610.710628000561,4.0,1.0,phase_3,,,,,68.0,2.0,136.0,204.0,102.0,170.0,34.0,68.0,orange,hexagon
0.0,4.0,4.0,0.0,7.0,1.0,945.9677590002684,4.0,1.0,phase_3,,,,,108.0,2.0,108.0,216.0,54.0,270.0,162.0,324.0,green,square
