raw_reward_magnitude,stim_reward,stepwise_reward_magnitude,paired_with_stopping,stim_location,response,reaction_time,block,num_trial_presentations,which_phase,stop_signal_trial_type,left_SSD,right_SSD,accuracy,chosen_bidding_amount,chosen_bidding_level,possible_bid_1,possible_bid_2,possible_bid_3,possible_bid_4,possible_bid_5,possible_bid_6,color_text,shape_text
38.0,5.0,0.5,1.0,1.0,1.0,348.4492910001791,1.0,1.0,phase_1,,,,,,,,,,,,,white,triangle
385.0,8.0,4.0,1.0,4.0,4.0,322.3334019999129,1.0,1.0,phase_1,,,,,,,,,,,,,magenta,I
418.0,4.0,4.0,0.0,4.0,4.0,409.4242510000185,1.0,1.0,phase_1,,,,,,,,,,,,,cyan,diamond
64.0,5.0,0.5,1.0,1.0,1.0,301.9372179999209,1.0,1.0,phase_1,,,,,,,,,,,,,white,triangle
95.0,6.0,1.0,1.0,3.0,3.0,314.9974480002129,1.0,1.0,phase_1,,,,,,,,,,,,,blue,square
0.0,7.0,0.0,1.0,3.0,3.0,368.7811419999889,1.0,1.0,phase_1,,,,,,,,,,,,,orange,cross
26.0,5.0,0.5,1.0,4.0,4.0,287.291051000011,1.0,1.0,phase_1,,,,,,,,,,,,,white,triangle
208.0,7.0,2.0,1.0,2.0,2.0,382.3744329999954,1.0,1.0,phase_1,,,,,,,,,,,,,orange,cross
412.0,8.0,4.0,1.0,3.0,3.0,274.8402319998604,1.0,1.0,phase_1,,,,,,,,,,,,,magenta,I
0.0,1.0,0.0,0.0,4.0,4.0,276.8076590000419,1.0,1.0,phase_1,,,,,,,,,,,,,green,hexagon
219.0,3.0,2.0,0.0,3.0,3.0,324.9906720000126,1.0,1.0,phase_1,,,,,,,,,,,,,yellow,circle
387.0,8.0,4.0,1.0,3.0,3.0,355.5281060000652,1.0,1.0,phase_1,,,,,,,,,,,,,magenta,I
125.0,2.0,1.0,0.0,2.0,2.0,322.4096449998797,1.0,1.0,phase_1,,,,,,,,,,,,,gray,flipped triangle
49.0,1.0,0.5,0.0,1.0,1.0,315.583585000013,1.0,1.0,phase_1,,,,,,,,,,,,,green,hexagon
29.0,5.0,0.5,1.0,2.0,2.0,314.507229000128,1.0,1.0,phase_1,,,,,,,,,,,,,white,triangle
394.0,4.0,4.0,0.0,4.0,4.0,289.344366000023,1.0,1.0,phase_1,,,,,,,,,,,,,cyan,diamond
0.0,5.0,0.0,1.0,2.0,2.0,255.43153099988558,1.0,1.0,phase_1,,,,,,,,,,,,,white,triangle
82.0,6.0,1.0,1.0,2.0,2.0,365.1601260000916,1.0,1.0,phase_1,,,,,,,,,,,,,blue,square
207.0,3.0,2.0,0.0,4.0,4.0,266.5445949999139,1.0,1.0,phase_1,,,,,,,,,,,,,yellow,circle
122.0,2.0,1.0,0.0,2.0,2.0,299.674282000069,1.0,1.0,phase_1,,,,,,,,,,,,,gray,flipped triangle
0.0,6.0,0.0,1.0,2.0,2.0,285.8588569999938,1.0,2.0,phase_1,,,,,,,,,,,,,blue,square
0.0,6.0,0.0,1.0,3.0,3.0,269.7832200001357,1.0,1.0,phase_1,,,,,,,,,,,,,blue,square
424.0,4.0,4.0,0.0,4.0,4.0,285.4784240000754,1.0,1.0,phase_1,,,,,,,,,,,,,cyan,diamond
60.0,5.0,0.5,1.0,2.0,2.0,283.3866080000007,1.0,1.0,phase_1,,,,,,,,,,,,,white,triangle
82.0,6.0,1.0,1.0,1.0,1.0,295.957208000118,1.0,1.0,phase_1,,,,,,,,,,,,,blue,square
409.0,4.0,4.0,0.0,3.0,3.0,333.1289860000197,1.0,1.0,phase_1,,,,,,,,,,,,,cyan,diamond
376.0,4.0,4.0,0.0,2.0,2.0,280.7697260000168,1.0,1.0,phase_1,,,,,,,,,,,,,cyan,diamond
182.0,7.0,2.0,1.0,2.0,2.0,311.981944000081,1.0,1.0,phase_1,,,,,,,,,,,,,orange,cross
69.0,5.0,0.5,1.0,1.0,1.0,314.958340999965,1.0,1.0,phase_1,,,,,,,,,,,,,white,triangle
424.0,8.0,4.0,1.0,2.0,2.0,312.5609849998909,1.0,1.0,phase_1,,,,,,,,,,,,,magenta,I
189.0,3.0,2.0,0.0,4.0,4.0,297.6434820000122,1.0,1.0,phase_1,,,,,,,,,,,,,yellow,circle
0.0,2.0,0.0,0.0,3.0,3.0,365.9852539999519,1.0,1.0,phase_1,,,,,,,,,,,,,gray,flipped triangle
58.0,5.0,0.5,1.0,3.0,3.0,617.236131000027,1.0,1.0,phase_1,,,,,,,,,,,,,white,triangle
0.0,2.0,0.0,0.0,3.0,3.0,406.4471029998913,1.0,1.0,phase_1,,,,,,,,,,,,,gray,flipped triangle
208.0,7.0,2.0,1.0,2.0,2.0,335.0933270000951,1.0,1.0,phase_1,,,,,,,,,,,,,orange,cross
385.0,4.0,4.0,0.0,2.0,2.0,309.6043830000781,1.0,1.0,phase_1,,,,,,,,,,,,,cyan,diamond
217.0,7.0,2.0,1.0,3.0,3.0,326.9899360000181,1.0,1.0,phase_1,,,,,,,,,,,,,orange,cross
109.0,2.0,1.0,0.0,1.0,1.0,335.2787260000696,1.0,1.0,phase_1,,,,,,,,,,,,,gray,flipped triangle
40.0,5.0,0.5,1.0,3.0,3.0,334.6548969998366,1.0,1.0,phase_1,,,,,,,,,,,,,white,triangle
179.0,3.0,2.0,0.0,2.0,2.0,307.0268869998926,1.0,1.0,phase_1,,,,,,,,,,,,,yellow,circle
188.0,7.0,2.0,1.0,3.0,3.0,323.9032189999307,1.0,1.0,phase_1,,,,,,,,,,,,,orange,cross
208.0,3.0,2.0,0.0,2.0,2.0,337.5006059998213,1.0,1.0,phase_1,,,,,,,,,,,,,yellow,circle
101.0,6.0,1.0,1.0,2.0,2.0,336.4888469998277,1.0,1.0,phase_1,,,,,,,,,,,,,blue,square
77.0,6.0,1.0,1.0,4.0,4.0,282.2159990000727,1.0,1.0,phase_1,,,,,,,,,,,,,blue,square
66.0,5.0,0.5,1.0,4.0,4.0,344.7632459999568,1.0,1.0,phase_1,,,,,,,,,,,,,white,triangle
412.0,8.0,4.0,1.0,4.0,4.0,316.1492330000328,1.0,1.0,phase_1,,,,,,,,,,,,,magenta,I
0.0,7.0,0.0,1.0,4.0,4.0,383.7997340001493,1.0,1.0,phase_1,,,,,,,,,,,,,orange,cross
0.0,4.0,0.0,0.0,2.0,2.0,333.6506439998175,1.0,1.0,phase_1,,,,,,,,,,,,,cyan,diamond
50.0,1.0,0.5,0.0,2.0,2.0,313.1201919998148,1.0,1.0,phase_1,,,,,,,,,,,,,green,hexagon
46.0,5.0,0.5,1.0,1.0,1.0,407.210847999977,1.0,1.0,phase_1,,,,,,,,,,,,,white,triangle
65.0,5.0,0.5,1.0,2.0,2.0,352.7909699998872,1.0,1.0,phase_1,,,,,,,,,,,,,white,triangle
38.0,5.0,0.5,1.0,1.0,1.0,325.7648189999145,1.0,1.0,phase_1,,,,,,,,,,,,,white,triangle
382.0,8.0,4.0,1.0,3.0,3.0,279.7781090000626,1.0,1.0,phase_1,,,,,,,,,,,,,magenta,I
398.0,8.0,4.0,1.0,3.0,3.0,336.2992419999955,1.0,2.0,phase_1,,,,,,,,,,,,,magenta,I
179.0,7.0,2.0,1.0,1.0,1.0,284.0961770000376,1.0,1.0,phase_1,,,,,,,,,,,,,orange,cross
392.0,4.0,4.0,0.0,1.0,1.0,414.0131540000311,1.0,1.0,phase_1,,,,,,,,,,,,,cyan,diamond
409.0,8.0,4.0,1.0,1.0,1.0,419.6074709998356,1.0,1.0,phase_1,,,,,,,,,,,,,magenta,I
402.0,4.0,4.0,0.0,3.0,3.0,388.7036809999245,1.0,1.0,phase_1,,,,,,,,,,,,,cyan,diamond
82.0,2.0,1.0,0.0,4.0,4.0,396.2348709999332,1.0,1.0,phase_1,,,,,,,,,,,,,gray,flipped triangle
194.0,7.0,2.0,1.0,4.0,4.0,348.0039769999621,1.0,1.0,phase_1,,,,,,,,,,,,,orange,cross
35.0,5.0,0.5,1.0,2.0,2.0,367.0897509998667,1.0,1.0,phase_1,,,,,,,,,,,,,white,triangle
31.0,5.0,0.5,1.0,2.0,2.0,374.9434290000408,1.0,1.0,phase_1,,,,,,,,,,,,,white,triangle
46.0,1.0,0.5,0.0,3.0,3.0,427.9349260000344,1.0,1.0,phase_1,,,,,,,,,,,,,green,hexagon
217.0,3.0,2.0,0.0,4.0,4.0,333.2169929999509,1.0,1.0,phase_1,,,,,,,,,,,,,yellow,circle
73.0,1.0,0.5,0.0,3.0,3.0,410.4407029999493,1.0,1.0,phase_1,,,,,,,,,,,,,green,hexagon
68.0,1.0,0.5,0.0,3.0,3.0,405.1099969999541,1.0,1.0,phase_1,,,,,,,,,,,,,green,hexagon
38.0,5.0,0.5,1.0,4.0,4.0,342.5451450000309,1.0,1.0,phase_1,,,,,,,,,,,,,white,triangle
57.0,1.0,0.5,0.0,4.0,4.0,393.6946199999056,1.0,1.0,phase_1,,,,,,,,,,,,,green,hexagon
212.0,7.0,2.0,1.0,4.0,4.0,362.1309750001273,1.0,1.0,phase_1,,,,,,,,,,,,,orange,cross
207.0,3.0,2.0,0.0,2.0,2.0,360.4599829998278,1.0,1.0,phase_1,,,,,,,,,,,,,yellow,circle
92.0,6.0,1.0,1.0,3.0,3.0,330.165868999984,1.0,1.0,phase_1,,,,,,,,,,,,,blue,square
58.0,1.0,0.5,0.0,2.0,2.0,410.699969999996,1.0,1.0,phase_1,,,,,,,,,,,,,green,hexagon
179.0,3.0,2.0,0.0,4.0,4.0,274.8476280000886,1.0,1.0,phase_1,,,,,,,,,,,,,yellow,circle
376.0,8.0,4.0,1.0,3.0,3.0,364.8399190001328,1.0,1.0,phase_1,,,,,,,,,,,,,magenta,I
396.0,8.0,4.0,1.0,4.0,4.0,403.1495949998316,1.0,1.0,phase_1,,,,,,,,,,,,,magenta,I
119.0,6.0,1.0,1.0,1.0,1.0,348.8119590001588,1.0,1.0,phase_1,,,,,,,,,,,,,blue,square
424.0,8.0,4.0,1.0,3.0,3.0,318.2289839999157,1.0,1.0,phase_1,,,,,,,,,,,,,magenta,I
45.0,1.0,0.5,0.0,1.0,1.0,343.7750760001563,1.0,1.0,phase_1,,,,,,,,,,,,,green,hexagon
113.0,6.0,1.0,1.0,1.0,1.0,390.7009770000513,1.0,1.0,phase_1,,,,,,,,,,,,,blue,square
72.0,5.0,0.5,1.0,4.0,4.0,357.6686450001034,1.0,1.0,phase_1,,,,,,,,,,,,,white,triangle
0.0,3.0,0.0,0.0,2.0,2.0,305.0859759998729,1.0,1.0,phase_1,,,,,,,,,,,,,yellow,circle
415.0,8.0,4.0,1.0,4.0,4.0,449.9704150000525,1.0,1.0,phase_1,,,,,,,,,,,,,magenta,I
402.0,8.0,4.0,1.0,3.0,3.0,360.4360909998831,1.0,1.0,phase_1,,,,,,,,,,,,,magenta,I
406.0,8.0,4.0,1.0,4.0,4.0,488.2219030000669,1.0,1.0,phase_1,,,,,,,,,,,,,magenta,I
60.0,1.0,0.5,0.0,3.0,3.0,552.177932000177,1.0,1.0,phase_1,,,,,,,,,,,,,green,hexagon
213.0,7.0,2.0,1.0,3.0,3.0,395.7384880000063,1.0,1.0,phase_1,,,,,,,,,,,,,orange,cross
123.0,6.0,1.0,1.0,4.0,4.0,304.9126490000162,1.0,1.0,phase_1,,,,,,,,,,,,,blue,square
191.0,7.0,2.0,1.0,4.0,4.0,390.6852349998644,1.0,1.0,phase_1,,,,,,,,,,,,,orange,cross
103.0,6.0,1.0,1.0,2.0,2.0,346.94036399992,1.0,1.0,phase_1,,,,,,,,,,,,,blue,square
89.0,6.0,1.0,1.0,4.0,4.0,506.65764599989416,1.0,1.0,phase_1,,,,,,,,,,,,,blue,square
405.0,4.0,4.0,0.0,1.0,1.0,299.0994480001063,1.0,1.0,phase_1,,,,,,,,,,,,,cyan,diamond
192.0,7.0,2.0,1.0,4.0,4.0,449.8640929998601,1.0,1.0,phase_1,,,,,,,,,,,,,orange,cross
113.0,2.0,1.0,0.0,3.0,3.0,320.3629429999637,1.0,1.0,phase_1,,,,,,,,,,,,,gray,flipped triangle
387.0,4.0,4.0,0.0,4.0,4.0,334.8947829999815,1.0,1.0,phase_1,,,,,,,,,,,,,cyan,diamond
81.0,6.0,1.0,1.0,1.0,1.0,315.9820319999653,1.0,1.0,phase_1,,,,,,,,,,,,,blue,square
27.0,5.0,0.5,1.0,3.0,3.0,284.1514270000971,1.0,1.0,phase_1,,,,,,,,,,,,,white,triangle
218.0,3.0,2.0,0.0,4.0,4.0,274.5502820000638,1.0,1.0,phase_1,,,,,,,,,,,,,yellow,circle
416.0,4.0,4.0,0.0,2.0,2.0,300.9009659999719,1.0,1.0,phase_1,,,,,,,,,,,,,cyan,diamond
383.0,4.0,4.0,0.0,1.0,1.0,322.4653909999233,1.0,1.0,phase_1,,,,,,,,,,,,,cyan,diamond
0.0,6.0,0.0,1.0,2.0,2.0,322.4863869997989,1.0,2.0,phase_1,,,,,,,,,,,,,blue,square
402.0,4.0,4.0,0.0,1.0,1.0,300.2288179998231,2.0,1.0,phase_1,,,,,,,,,,,,,cyan,diamond
0.0,2.0,0.0,0.0,2.0,2.0,320.5452699999114,2.0,1.0,phase_1,,,,,,,,,,,,,gray,flipped triangle
105.0,6.0,1.0,1.0,4.0,4.0,323.598180999852,2.0,1.0,phase_1,,,,,,,,,,,,,blue,square
0.0,3.0,0.0,0.0,2.0,2.0,290.8356999998887,2.0,1.0,phase_1,,,,,,,,,,,,,yellow,circle
0.0,6.0,0.0,1.0,2.0,2.0,431.7899810000654,2.0,1.0,phase_1,,,,,,,,,,,,,blue,square
219.0,7.0,2.0,1.0,1.0,1.0,295.1567049999539,2.0,1.0,phase_1,,,,,,,,,,,,,orange,cross
95.0,2.0,1.0,0.0,1.0,1.0,367.5992580001548,2.0,1.0,phase_1,,,,,,,,,,,,,gray,flipped triangle
35.0,1.0,0.5,0.0,1.0,1.0,305.2508839998609,2.0,1.0,phase_1,,,,,,,,,,,,,green,hexagon
0.0,1.0,0.0,0.0,1.0,1.0,320.7589700000426,2.0,1.0,phase_1,,,,,,,,,,,,,green,hexagon
100.0,2.0,1.0,0.0,4.0,4.0,307.746441000063,2.0,1.0,phase_1,,,,,,,,,,,,,gray,flipped triangle
42.0,1.0,0.5,0.0,2.0,2.0,264.2303319998973,2.0,1.0,phase_1,,,,,,,,,,,,,green,hexagon
404.0,4.0,4.0,0.0,3.0,3.0,298.3502989998214,2.0,1.0,phase_1,,,,,,,,,,,,,cyan,diamond
0.0,3.0,0.0,0.0,1.0,1.0,298.0993779999608,2.0,1.0,phase_1,,,,,,,,,,,,,yellow,circle
79.0,2.0,1.0,0.0,2.0,2.0,443.7371789999815,2.0,1.0,phase_1,,,,,,,,,,,,,gray,flipped triangle
0.0,5.0,0.0,1.0,2.0,2.0,364.1635229998883,2.0,1.0,phase_1,,,,,,,,,,,,,white,triangle
101.0,6.0,1.0,1.0,3.0,3.0,471.1880620000102,2.0,1.0,phase_1,,,,,,,,,,,,,blue,square
58.0,1.0,0.5,0.0,3.0,3.0,402.7244929998232,2.0,1.0,phase_1,,,,,,,,,,,,,green,hexagon
401.0,8.0,4.0,1.0,1.0,1.0,304.908856000111,2.0,1.0,phase_1,,,,,,,,,,,,,magenta,I
179.0,7.0,2.0,1.0,2.0,2.0,421.758576000002,2.0,1.0,phase_1,,,,,,,,,,,,,orange,cross
416.0,8.0,4.0,1.0,1.0,1.0,348.1448519999048,2.0,1.0,phase_1,,,,,,,,,,,,,magenta,I
0.0,7.0,0.0,1.0,2.0,2.0,378.9874049998616,2.0,1.0,phase_1,,,,,,,,,,,,,orange,cross
181.0,7.0,2.0,1.0,3.0,3.0,391.6064430000006,2.0,1.0,phase_1,,,,,,,,,,,,,orange,cross
95.0,6.0,1.0,1.0,1.0,1.0,362.2373520001929,2.0,1.0,phase_1,,,,,,,,,,,,,blue,square
62.0,5.0,0.5,1.0,4.0,4.0,290.8636199999819,2.0,1.0,phase_1,,,,,,,,,,,,,white,triangle
400.0,8.0,4.0,1.0,2.0,2.0,274.856876000058,2.0,1.0,phase_1,,,,,,,,,,,,,magenta,I
0.0,2.0,0.0,0.0,1.0,1.0,296.6097649998573,2.0,1.0,phase_1,,,,,,,,,,,,,gray,flipped triangle
376.0,4.0,4.0,0.0,3.0,3.0,358.1759740000052,2.0,1.0,phase_1,,,,,,,,,,,,,cyan,diamond
40.0,1.0,0.5,0.0,4.0,4.0,327.1663929999704,2.0,1.0,phase_1,,,,,,,,,,,,,green,hexagon
0.0,8.0,0.0,1.0,1.0,1.0,268.7379310000324,2.0,1.0,phase_1,,,,,,,,,,,,,magenta,I
0.0,6.0,0.0,1.0,4.0,4.0,317.3310249999304,2.0,1.0,phase_1,,,,,,,,,,,,,blue,square
0.0,1.0,0.0,0.0,4.0,4.0,359.6138689999861,2.0,1.0,phase_1,,,,,,,,,,,,,green,hexagon
415.0,4.0,4.0,0.0,1.0,1.0,267.3772440000448,2.0,1.0,phase_1,,,,,,,,,,,,,cyan,diamond
201.0,3.0,2.0,0.0,1.0,1.0,379.6259399998689,2.0,1.0,phase_1,,,,,,,,,,,,,yellow,circle
190.0,7.0,2.0,1.0,4.0,4.0,348.9421570000104,2.0,1.0,phase_1,,,,,,,,,,,,,orange,cross
0.0,4.0,0.0,0.0,2.0,2.0,370.8050160000766,2.0,1.0,phase_1,,,,,,,,,,,,,cyan,diamond
109.0,6.0,1.0,1.0,1.0,1.0,289.1016140001738,2.0,1.0,phase_1,,,,,,,,,,,,,blue,square
0.0,8.0,0.0,1.0,4.0,4.0,287.7624459999879,2.0,1.0,phase_1,,,,,,,,,,,,,magenta,I
90.0,6.0,1.0,1.0,2.0,2.0,335.0768929999503,2.0,1.0,phase_1,,,,,,,,,,,,,blue,square
107.0,6.0,1.0,1.0,3.0,3.0,323.3601489998818,2.0,1.0,phase_1,,,,,,,,,,,,,blue,square
212.0,3.0,2.0,0.0,1.0,1.0,418.4380379999766,2.0,1.0,phase_1,,,,,,,,,,,,,yellow,circle
0.0,1.0,0.0,0.0,3.0,3.0,479.0113949998158,2.0,1.0,phase_1,,,,,,,,,,,,,green,hexagon
392.0,8.0,4.0,1.0,4.0,4.0,351.7890690000058,2.0,1.0,phase_1,,,,,,,,,,,,,magenta,I
0.0,4.0,0.0,0.0,2.0,2.0,232.9090100001849,2.0,1.0,phase_1,,,,,,,,,,,,,cyan,diamond
198.0,3.0,2.0,0.0,1.0,1.0,258.7145910001709,2.0,1.0,phase_1,,,,,,,,,,,,,yellow,circle
383.0,8.0,4.0,1.0,4.0,4.0,303.8915090000955,2.0,1.0,phase_1,,,,,,,,,,,,,magenta,I
201.0,3.0,2.0,0.0,3.0,3.0,292.9320999999163,2.0,1.0,phase_1,,,,,,,,,,,,,yellow,circle
72.0,1.0,0.5,0.0,2.0,2.0,269.6114979999038,2.0,1.0,phase_1,,,,,,,,,,,,,green,hexagon
218.0,7.0,2.0,1.0,1.0,1.0,283.054631999903,2.0,1.0,phase_1,,,,,,,,,,,,,orange,cross
42.0,5.0,0.5,1.0,3.0,3.0,316.7931610000778,2.0,1.0,phase_1,,,,,,,,,,,,,white,triangle
182.0,7.0,2.0,1.0,3.0,3.0,431.4722490000804,2.0,1.0,phase_1,,,,,,,,,,,,,orange,cross
412.0,4.0,4.0,0.0,2.0,2.0,412.3871350000172,2.0,1.0,phase_1,,,,,,,,,,,,,cyan,diamond
0.0,7.0,0.0,1.0,4.0,4.0,499.5199139998476,2.0,1.0,phase_1,,,,,,,,,,,,,orange,cross
409.0,4.0,4.0,0.0,3.0,3.0,387.8729600000952,2.0,1.0,phase_1,,,,,,,,,,,,,cyan,diamond
186.0,3.0,2.0,0.0,3.0,3.0,434.9315300000853,2.0,1.0,phase_1,,,,,,,,,,,,,yellow,circle
0.0,3.0,0.0,0.0,3.0,3.0,311.5036819999659,2.0,1.0,phase_1,,,,,,,,,,,,,yellow,circle
423.0,8.0,4.0,1.0,2.0,2.0,338.5904380002102,2.0,1.0,phase_1,,,,,,,,,,,,,magenta,I
198.0,7.0,2.0,1.0,1.0,1.0,284.090026000058,2.0,1.0,phase_1,,,,,,,,,,,,,orange,cross
101.0,2.0,1.0,0.0,4.0,4.0,270.8287230000223,2.0,1.0,phase_1,,,,,,,,,,,,,gray,flipped triangle
0.0,5.0,0.0,1.0,1.0,1.0,261.5255450000404,2.0,1.0,phase_1,,,,,,,,,,,,,white,triangle
64.0,5.0,0.5,1.0,3.0,3.0,302.0258999999896,2.0,1.0,phase_1,,,,,,,,,,,,,white,triangle
176.0,7.0,2.0,1.0,3.0,3.0,420.6944640000074,2.0,1.0,phase_1,,,,,,,,,,,,,orange,cross
394.0,8.0,4.0,1.0,1.0,1.0,302.9475390001153,2.0,1.0,phase_1,,,,,,,,,,,,,magenta,I
0.0,5.0,0.0,1.0,3.0,3.0,391.4571840000462,2.0,1.0,phase_1,,,,,,,,,,,,,white,triangle
0.0,1.0,0.0,0.0,4.0,4.0,311.6628830000536,2.0,1.0,phase_1,,,,,,,,,,,,,green,hexagon
0.0,5.0,0.0,1.0,2.0,2.0,297.5768370001788,2.0,1.0,phase_1,,,,,,,,,,,,,white,triangle
411.0,8.0,4.0,1.0,2.0,2.0,330.7736930000828,2.0,1.0,phase_1,,,,,,,,,,,,,magenta,I
113.0,2.0,1.0,0.0,1.0,1.0,380.5510320000849,2.0,1.0,phase_1,,,,,,,,,,,,,gray,flipped triangle
90.0,2.0,1.0,0.0,3.0,3.0,339.0917220001483,2.0,1.0,phase_1,,,,,,,,,,,,,gray,flipped triangle
181.0,3.0,2.0,0.0,2.0,2.0,328.6309799998435,2.0,1.0,phase_1,,,,,,,,,,,,,yellow,circle
75.0,6.0,1.0,1.0,4.0,4.0,290.9216309999465,2.0,1.0,phase_1,,,,,,,,,,,,,blue,square
94.0,2.0,1.0,0.0,4.0,4.0,418.3652950000578,2.0,1.0,phase_1,,,,,,,,,,,,,gray,flipped triangle
58.0,5.0,0.5,1.0,3.0,3.0,366.2470479998774,2.0,1.0,phase_1,,,,,,,,,,,,,white,triangle
79.0,2.0,1.0,0.0,1.0,1.0,276.797883999734,2.0,1.0,phase_1,,,,,,,,,,,,,gray,flipped triangle
401.0,4.0,4.0,0.0,2.0,2.0,296.0948370000551,2.0,1.0,phase_1,,,,,,,,,,,,,cyan,diamond
68.0,1.0,0.5,0.0,3.0,3.0,284.1589939998812,2.0,1.0,phase_1,,,,,,,,,,,,,green,hexagon
408.0,4.0,4.0,0.0,4.0,4.0,282.4312270004157,2.0,1.0,phase_1,,,,,,,,,,,,,cyan,diamond
125.0,6.0,1.0,1.0,2.0,2.0,350.96706000013,2.0,1.0,phase_1,,,,,,,,,,,,,blue,square
415.0,8.0,4.0,1.0,2.0,2.0,397.7381509998849,2.0,1.0,phase_1,,,,,,,,,,,,,magenta,I
405.0,8.0,4.0,1.0,1.0,1.0,350.113302000409,2.0,1.0,phase_1,,,,,,,,,,,,,magenta,I
75.0,2.0,1.0,0.0,2.0,2.0,384.082989000035,2.0,1.0,phase_1,,,,,,,,,,,,,gray,flipped triangle
100.0,6.0,1.0,1.0,2.0,2.0,343.2980560000942,2.0,1.0,phase_1,,,,,,,,,,,,,blue,square
113.0,6.0,1.0,1.0,3.0,3.0,448.2646970000132,2.0,2.0,phase_1,,,,,,,,,,,,,blue,square
0.0,7.0,0.0,1.0,2.0,2.0,421.1578260001261,2.0,1.0,phase_1,,,,,,,,,,,,,orange,cross
0.0,4.0,0.0,0.0,3.0,3.0,353.3276569996815,2.0,1.0,phase_1,,,,,,,,,,,,,cyan,diamond
193.0,7.0,2.0,1.0,4.0,4.0,404.5878390002144,2.0,1.0,phase_1,,,,,,,,,,,,,orange,cross
29.0,1.0,0.5,0.0,1.0,1.0,306.0492579998026,2.0,1.0,phase_1,,,,,,,,,,,,,green,hexagon
49.0,5.0,0.5,1.0,3.0,3.0,352.0048270002007,2.0,1.0,phase_1,,,,,,,,,,,,,white,triangle
0.0,4.0,0.0,0.0,3.0,3.0,609.02519199999,2.0,1.0,phase_1,,,,,,,,,,,,,cyan,diamond
224.0,7.0,2.0,1.0,1.0,1.0,299.3041049999192,2.0,1.0,phase_1,,,,,,,,,,,,,orange,cross
95.0,2.0,1.0,0.0,3.0,3.0,319.2768059998343,2.0,1.0,phase_1,,,,,,,,,,,,,gray,flipped triangle
61.0,1.0,0.5,0.0,1.0,1.0,342.7114290002464,2.0,1.0,phase_1,,,,,,,,,,,,,green,hexagon
0.0,4.0,0.0,0.0,2.0,2.0,389.4886749999386,2.0,1.0,phase_1,,,,,,,,,,,,,cyan,diamond
117.0,6.0,1.0,1.0,3.0,3.0,326.3904770001318,2.0,1.0,phase_1,,,,,,,,,,,,,blue,square
176.0,3.0,2.0,0.0,2.0,2.0,394.3580399995881,2.0,1.0,phase_1,,,,,,,,,,,,,yellow,circle
93.0,2.0,1.0,0.0,3.0,3.0,581.4211270003398,2.0,1.0,phase_1,,,,,,,,,,,,,gray,flipped triangle
408.0,8.0,4.0,1.0,2.0,2.0,339.2860060002931,2.0,1.0,phase_1,,,,,,,,,,,,,magenta,I
0.0,8.0,0.0,1.0,3.0,3.0,356.6613549996873,2.0,1.0,phase_1,,,,,,,,,,,,,magenta,I
34.0,1.0,0.5,0.0,2.0,2.0,306.1140139998315,2.0,1.0,phase_1,,,,,,,,,,,,,green,hexagon
189.0,7.0,2.0,1.0,4.0,4.0,312.8324109998175,2.0,1.0,phase_1,,,,,,,,,,,,,orange,cross
64.0,1.0,0.5,0.0,3.0,3.0,356.6144829997029,2.0,1.0,phase_1,,,,,,,,,,,,,green,hexagon
224.0,3.0,2.0,0.0,2.0,2.0,348.224824999761,3.0,1.0,phase_1,,,,,,,,,,,,,yellow,circle
201.0,7.0,2.0,1.0,3.0,3.0,300.8158909997291,3.0,1.0,phase_1,,,,,,,,,,,,,orange,cross
101.0,6.0,1.0,1.0,2.0,2.0,332.481067000117,3.0,1.0,phase_1,,,,,,,,,,,,,blue,square
401.0,8.0,4.0,1.0,3.0,3.0,291.8685469999218,3.0,1.0,phase_1,,,,,,,,,,,,,magenta,I
388.0,8.0,4.0,1.0,1.0,1.0,358.4418830000686,3.0,1.0,phase_1,,,,,,,,,,,,,magenta,I
68.0,5.0,0.5,1.0,1.0,1.0,654.6106609998787,3.0,1.0,phase_1,,,,,,,,,,,,,white,triangle
0.0,2.0,0.0,0.0,3.0,3.0,365.846753000369,3.0,1.0,phase_1,,,,,,,,,,,,,gray,flipped triangle
0.0,3.0,0.0,0.0,2.0,2.0,291.2380819998361,3.0,1.0,phase_1,,,,,,,,,,,,,yellow,circle
26.0,5.0,0.5,1.0,1.0,1.0,547.0610349998424,3.0,1.0,phase_1,,,,,,,,,,,,,white,triangle
31.0,1.0,0.5,0.0,1.0,1.0,357.6567220002289,3.0,1.0,phase_1,,,,,,,,,,,,,green,hexagon
0.0,8.0,0.0,1.0,3.0,3.0,372.4366999999802,3.0,1.0,phase_1,,,,,,,,,,,,,magenta,I
38.0,1.0,0.5,0.0,4.0,4.0,260.1384820000021,3.0,1.0,phase_1,,,,,,,,,,,,,green,hexagon
209.0,3.0,2.0,0.0,3.0,3.0,350.0056269999732,3.0,1.0,phase_1,,,,,,,,,,,,,yellow,circle
192.0,3.0,2.0,0.0,4.0,4.0,316.9842000002063,3.0,1.0,phase_1,,,,,,,,,,,,,yellow,circle
0.0,3.0,0.0,0.0,1.0,1.0,290.4974099997162,3.0,1.0,phase_1,,,,,,,,,,,,,yellow,circle
113.0,6.0,1.0,1.0,2.0,2.0,263.6044989999391,3.0,1.0,phase_1,,,,,,,,,,,,,blue,square
0.0,6.0,0.0,1.0,2.0,2.0,521.0083530000702,3.0,1.0,phase_1,,,,,,,,,,,,,blue,square
0.0,4.0,0.0,0.0,3.0,3.0,324.1905650002081,3.0,1.0,phase_1,,,,,,,,,,,,,cyan,diamond
222.0,7.0,2.0,1.0,2.0,2.0,435.63458600010557,3.0,1.0,phase_1,,,,,,,,,,,,,orange,cross
0.0,7.0,0.0,1.0,2.0,2.0,431.2068560002444,3.0,1.0,phase_1,,,,,,,,,,,,,orange,cross
207.0,7.0,2.0,1.0,3.0,3.0,336.3903040003606,3.0,1.0,phase_1,,,,,,,,,,,,,orange,cross
200.0,7.0,2.0,1.0,4.0,4.0,365.7143119999091,3.0,1.0,phase_1,,,,,,,,,,,,,orange,cross
82.0,6.0,1.0,1.0,3.0,3.0,447.5152219997653,3.0,1.0,phase_1,,,,,,,,,,,,,blue,square
192.0,3.0,2.0,0.0,1.0,1.0,279.2608700001437,3.0,1.0,phase_1,,,,,,,,,,,,,yellow,circle
216.0,3.0,2.0,0.0,4.0,4.0,301.3000559999454,3.0,1.0,phase_1,,,,,,,,,,,,,yellow,circle
0.0,1.0,0.0,0.0,2.0,2.0,302.4255600003016,3.0,1.0,phase_1,,,,,,,,,,,,,green,hexagon
120.0,2.0,1.0,0.0,3.0,3.0,309.0892239997629,3.0,1.0,phase_1,,,,,,,,,,,,,gray,flipped triangle
0.0,2.0,0.0,0.0,3.0,3.0,374.9274040001182,3.0,1.0,phase_1,,,,,,,,,,,,,gray,flipped triangle
0.0,8.0,0.0,1.0,2.0,2.0,410.0087080000776,3.0,1.0,phase_1,,,,,,,,,,,,,magenta,I
0.0,7.0,0.0,1.0,3.0,3.0,400.0121809999655,3.0,1.0,phase_1,,,,,,,,,,,,,orange,cross
376.0,4.0,4.0,0.0,1.0,1.0,269.0062460001172,3.0,1.0,phase_1,,,,,,,,,,,,,cyan,diamond
26.0,1.0,0.5,0.0,1.0,1.0,373.0644789998223,3.0,1.0,phase_1,,,,,,,,,,,,,green,hexagon
82.0,2.0,1.0,0.0,4.0,4.0,266.3435119998212,3.0,1.0,phase_1,,,,,,,,,,,,,gray,flipped triangle
57.0,5.0,0.5,1.0,2.0,2.0,307.1860649997688,3.0,1.0,phase_1,,,,,,,,,,,,,white,triangle
209.0,7.0,2.0,1.0,2.0,2.0,335.7035879998875,3.0,1.0,phase_1,,,,,,,,,,,,,orange,cross
38.0,1.0,0.5,0.0,1.0,1.0,921.590769999966,3.0,1.0,phase_1,,,,,,,,,,,,,green,hexagon
45.0,5.0,0.5,1.0,4.0,4.0,360.4103139996368,3.0,1.0,phase_1,,,,,,,,,,,,,white,triangle
0.0,1.0,0.0,0.0,3.0,3.0,448.8909140000032,3.0,1.0,phase_1,,,,,,,,,,,,,green,hexagon
376.0,8.0,4.0,1.0,1.0,1.0,278.6507810001239,3.0,1.0,phase_1,,,,,,,,,,,,,magenta,I
42.0,1.0,0.5,0.0,4.0,4.0,303.3095519999733,3.0,1.0,phase_1,,,,,,,,,,,,,green,hexagon
0.0,5.0,0.0,1.0,2.0,2.0,321.7254350001894,3.0,1.0,phase_1,,,,,,,,,,,,,white,triangle
409.0,8.0,4.0,1.0,3.0,3.0,301.4601800000491,3.0,1.0,phase_1,,,,,,,,,,,,,magenta,I
92.0,2.0,1.0,0.0,2.0,2.0,428.7232329998005,3.0,1.0,phase_1,,,,,,,,,,,,,gray,flipped triangle
400.0,4.0,4.0,0.0,3.0,3.0,344.6641740001723,3.0,1.0,phase_1,,,,,,,,,,,,,cyan,diamond
423.0,4.0,4.0,0.0,3.0,3.0,394.7983699999895,3.0,1.0,phase_1,,,,,,,,,,,,,cyan,diamond
412.0,4.0,4.0,0.0,4.0,4.0,364.7582349999538,3.0,1.0,phase_1,,,,,,,,,,,,,cyan,diamond
378.0,4.0,4.0,0.0,2.0,2.0,430.5611439999666,3.0,1.0,phase_1,,,,,,,,,,,,,cyan,diamond
26.0,1.0,0.5,0.0,1.0,1.0,306.0230290002437,3.0,1.0,phase_1,,,,,,,,,,,,,green,hexagon
192.0,7.0,2.0,1.0,3.0,3.0,339.1509439998117,3.0,1.0,phase_1,,,,,,,,,,,,,orange,cross
406.0,4.0,4.0,0.0,4.0,4.0,545.1341910002157,3.0,1.0,phase_1,,,,,,,,,,,,,cyan,diamond
120.0,6.0,1.0,1.0,4.0,4.0,640.9155530000135,3.0,1.0,phase_1,,,,,,,,,,,,,blue,square
0.0,4.0,0.0,0.0,4.0,4.0,442.4627260000306,3.0,1.0,phase_1,,,,,,,,,,,,,cyan,diamond
0.0,3.0,0.0,0.0,3.0,3.0,405.3771479998431,3.0,1.0,phase_1,,,,,,,,,,,,,yellow,circle
185.0,7.0,2.0,1.0,4.0,4.0,421.6225890004352,3.0,1.0,phase_1,,,,,,,,,,,,,orange,cross
48.0,5.0,0.5,1.0,3.0,3.0,549.4304349999766,3.0,1.0,phase_1,,,,,,,,,,,,,white,triangle
408.0,4.0,4.0,0.0,2.0,2.0,311.5485739999712,3.0,1.0,phase_1,,,,,,,,,,,,,cyan,diamond
62.0,1.0,0.5,0.0,2.0,2.0,367.3061439999401,3.0,1.0,phase_1,,,,,,,,,,,,,green,hexagon
67.0,1.0,0.5,0.0,4.0,4.0,267.7165980003337,3.0,1.0,phase_1,,,,,,,,,,,,,green,hexagon
0.0,6.0,0.0,1.0,2.0,2.0,304.5581950000269,3.0,1.0,phase_1,,,,,,,,,,,,,blue,square
64.0,1.0,0.5,0.0,4.0,4.0,273.2773990001078,3.0,1.0,phase_1,,,,,,,,,,,,,green,hexagon
424.0,4.0,4.0,0.0,4.0,4.0,421.1244379998788,3.0,1.0,phase_1,,,,,,,,,,,,,cyan,diamond
118.0,6.0,1.0,1.0,3.0,3.0,327.9246980000607,3.0,1.0,phase_1,,,,,,,,,,,,,blue,square
61.0,5.0,0.5,1.0,4.0,4.0,281.2924620002377,3.0,1.0,phase_1,,,,,,,,,,,,,white,triangle
50.0,5.0,0.5,1.0,2.0,2.0,356.6441810003198,3.0,1.0,phase_1,,,,,,,,,,,,,white,triangle
34.0,5.0,0.5,1.0,2.0,2.0,362.1131400000195,3.0,1.0,phase_1,,,,,,,,,,,,,white,triangle
105.0,2.0,1.0,0.0,4.0,4.0,291.58481700005717,3.0,1.0,phase_1,,,,,,,,,,,,,gray,flipped triangle
0.0,1.0,0.0,0.0,1.0,1.0,286.0403730001053,3.0,1.0,phase_1,,,,,,,,,,,,,green,hexagon
216.0,7.0,2.0,1.0,1.0,1.0,317.8713150000476,3.0,1.0,phase_1,,,,,,,,,,,,,orange,cross
0.0,1.0,0.0,0.0,2.0,2.0,366.3905760004127,3.0,1.0,phase_1,,,,,,,,,,,,,green,hexagon
38.0,5.0,0.5,1.0,2.0,2.0,391.6068290000112,3.0,1.0,phase_1,,,,,,,,,,,,,white,triangle
49.0,1.0,0.5,0.0,4.0,4.0,306.6234949997124,3.0,1.0,phase_1,,,,,,,,,,,,,green,hexagon
77.0,2.0,1.0,0.0,4.0,4.0,363.4047720001945,3.0,1.0,phase_1,,,,,,,,,,,,,gray,flipped triangle
401.0,4.0,4.0,0.0,1.0,1.0,312.5402790001317,3.0,1.0,phase_1,,,,,,,,,,,,,cyan,diamond
0.0,3.0,0.0,0.0,4.0,4.0,289.3637000001945,3.0,1.0,phase_1,,,,,,,,,,,,,yellow,circle
224.0,7.0,2.0,1.0,2.0,2.0,285.0416860001132,3.0,1.0,phase_1,,,,,,,,,,,,,orange,cross
79.0,6.0,1.0,1.0,4.0,4.0,428.0363699999725,3.0,2.0,phase_1,,,,,,,,,,,,,blue,square
118.0,2.0,1.0,0.0,1.0,1.0,260.3450149999844,3.0,1.0,phase_1,,,,,,,,,,,,,gray,flipped triangle
95.0,6.0,1.0,1.0,2.0,2.0,278.1059359999744,3.0,1.0,phase_1,,,,,,,,,,,,,blue,square
396.0,4.0,4.0,0.0,3.0,3.0,333.5182010000608,3.0,1.0,phase_1,,,,,,,,,,,,,cyan,diamond
206.0,3.0,2.0,0.0,2.0,2.0,347.0504520000759,3.0,1.0,phase_1,,,,,,,,,,,,,yellow,circle
94.0,6.0,1.0,1.0,1.0,1.0,358.8325370001257,3.0,1.0,phase_1,,,,,,,,,,,,,blue,square
212.0,3.0,2.0,0.0,3.0,3.0,543.7679420001587,3.0,1.0,phase_1,,,,,,,,,,,,,yellow,circle
38.0,1.0,0.5,0.0,2.0,2.0,361.5709519999655,3.0,1.0,phase_1,,,,,,,,,,,,,green,hexagon
34.0,5.0,0.5,1.0,4.0,4.0,279.0374939995672,3.0,1.0,phase_1,,,,,,,,,,,,,white,triangle
73.0,5.0,0.5,1.0,4.0,4.0,318.3116350001,3.0,1.0,phase_1,,,,,,,,,,,,,white,triangle
81.0,2.0,1.0,0.0,3.0,3.0,372.669556999881,3.0,1.0,phase_1,,,,,,,,,,,,,gray,flipped triangle
38.0,1.0,0.5,0.0,2.0,2.0,334.0736949999154,3.0,1.0,phase_1,,,,,,,,,,,,,green,hexagon
376.0,8.0,4.0,1.0,4.0,4.0,250.30452600003628,3.0,1.0,phase_1,,,,,,,,,,,,,magenta,I
415.0,4.0,4.0,0.0,2.0,2.0,335.3363440000976,3.0,1.0,phase_1,,,,,,,,,,,,,cyan,diamond
69.0,1.0,0.5,0.0,4.0,4.0,332.4943659999917,3.0,1.0,phase_1,,,,,,,,,,,,,green,hexagon
48.0,1.0,0.5,0.0,2.0,2.0,269.5222279999143,3.0,1.0,phase_1,,,,,,,,,,,,,green,hexagon
0.0,8.0,0.0,1.0,1.0,1.0,311.564700999952,3.0,1.0,phase_1,,,,,,,,,,,,,magenta,I
124.0,6.0,1.0,1.0,3.0,3.0,309.6782630000234,3.0,1.0,phase_1,,,,,,,,,,,,,blue,square
187.0,3.0,2.0,0.0,1.0,1.0,431.06262099991,3.0,1.0,phase_1,,,,,,,,,,,,,yellow,circle
34.0,1.0,0.5,0.0,3.0,3.0,495.3579990001344,3.0,1.0,phase_1,,,,,,,,,,,,,green,hexagon
391.0,4.0,4.0,0.0,2.0,2.0,338.7838660000852,3.0,1.0,phase_1,,,,,,,,,,,,,cyan,diamond
41.0,1.0,0.5,0.0,3.0,3.0,308.5957479997887,3.0,1.0,phase_1,,,,,,,,,,,,,green,hexagon
182.0,3.0,2.0,0.0,2.0,2.0,352.3571320001792,3.0,1.0,phase_1,,,,,,,,,,,,,yellow,circle
49.0,5.0,0.5,1.0,1.0,1.0,301.7473740001151,3.0,1.0,phase_1,,,,,,,,,,,,,white,triangle
41.0,5.0,0.5,1.0,3.0,3.0,309.7627110000758,3.0,1.0,phase_1,,,,,,,,,,,,,white,triangle
0.0,2.0,0.0,0.0,2.0,2.0,320.0382969998827,4.0,1.0,phase_1,,,,,,,,,,,,,gray,flipped triangle
416.0,4.0,4.0,0.0,1.0,1.0,333.7856079997436,4.0,1.0,phase_1,,,,,,,,,,,,,cyan,diamond
185.0,3.0,2.0,0.0,4.0,4.0,284.8541779999323,4.0,1.0,phase_1,,,,,,,,,,,,,yellow,circle
0.0,6.0,0.0,1.0,1.0,1.0,286.0649529998227,4.0,1.0,phase_1,,,,,,,,,,,,,blue,square
222.0,3.0,2.0,0.0,3.0,3.0,244.39931699998849,4.0,1.0,phase_1,,,,,,,,,,,,,yellow,circle
0.0,8.0,0.0,1.0,3.0,3.0,361.5449899998566,4.0,1.0,phase_1,,,,,,,,,,,,,magenta,I
65.0,1.0,0.5,0.0,3.0,3.0,327.2682410001835,4.0,1.0,phase_1,,,,,,,,,,,,,green,hexagon
193.0,3.0,2.0,0.0,2.0,2.0,295.0368990000243,4.0,1.0,phase_1,,,,,,,,,,,,,yellow,circle
200.0,3.0,2.0,0.0,1.0,1.0,265.6076049997864,4.0,1.0,phase_1,,,,,,,,,,,,,yellow,circle
408.0,8.0,4.0,1.0,1.0,1.0,355.9305379999387,4.0,1.0,phase_1,,,,,,,,,,,,,magenta,I
27.0,1.0,0.5,0.0,1.0,1.0,311.7226159997699,4.0,1.0,phase_1,,,,,,,,,,,,,green,hexagon
391.0,8.0,4.0,1.0,2.0,2.0,296.031528000185,4.0,1.0,phase_1,,,,,,,,,,,,,magenta,I
121.0,2.0,1.0,0.0,1.0,1.0,446.9123769999896,4.0,1.0,phase_1,,,,,,,,,,,,,gray,flipped triangle
416.0,8.0,4.0,1.0,1.0,1.0,441.2686829996346,4.0,1.0,phase_1,,,,,,,,,,,,,magenta,I
0.0,5.0,0.0,1.0,2.0,2.0,332.4060319996533,4.0,2.0,phase_1,,,,,,,,,,,,,white,triangle
0.0,8.0,0.0,1.0,4.0,4.0,371.293286999844,4.0,1.0,phase_1,,,,,,,,,,,,,magenta,I
0.0,4.0,0.0,0.0,4.0,4.0,389.5789099997273,4.0,1.0,phase_1,,,,,,,,,,,,,cyan,diamond
411.0,4.0,4.0,0.0,2.0,2.0,350.9816979999414,4.0,1.0,phase_1,,,,,,,,,,,,,cyan,diamond
395.0,4.0,4.0,0.0,1.0,1.0,437.9862890000368,4.0,1.0,phase_1,,,,,,,,,,,,,cyan,diamond
186.0,7.0,2.0,1.0,4.0,4.0,316.2959609999234,4.0,1.0,phase_1,,,,,,,,,,,,,orange,cross
187.0,7.0,2.0,1.0,2.0,2.0,307.0031819997894,4.0,1.0,phase_1,,,,,,,,,,,,,orange,cross
79.0,2.0,1.0,0.0,4.0,4.0,811.3394060001156,4.0,1.0,phase_1,,,,,,,,,,,,,gray,flipped triangle
67.0,5.0,0.5,1.0,4.0,4.0,327.1490329998414,4.0,1.0,phase_1,,,,,,,,,,,,,white,triangle
184.0,3.0,2.0,0.0,3.0,3.0,302.3959219999597,4.0,1.0,phase_1,,,,,,,,,,,,,yellow,circle
101.0,2.0,1.0,0.0,2.0,2.0,288.7889110002106,4.0,1.0,phase_1,,,,,,,,,,,,,gray,flipped triangle
119.0,2.0,1.0,0.0,3.0,3.0,345.6201980002333,4.0,1.0,phase_1,,,,,,,,,,,,,gray,flipped triangle
95.0,2.0,1.0,0.0,4.0,4.0,305.0747920001413,4.0,1.0,phase_1,,,,,,,,,,,,,gray,flipped triangle
376.0,4.0,4.0,0.0,3.0,3.0,362.3885709998831,4.0,1.0,phase_1,,,,,,,,,,,,,cyan,diamond
0.0,5.0,0.0,1.0,4.0,4.0,342.9937659998359,4.0,1.0,phase_1,,,,,,,,,,,,,white,triangle
79.0,6.0,1.0,1.0,3.0,3.0,331.205675000092,4.0,2.0,phase_1,,,,,,,,,,,,,blue,square
213.0,3.0,2.0,0.0,3.0,3.0,370.5890220003311,4.0,1.0,phase_1,,,,,,,,,,,,,yellow,circle
191.0,3.0,2.0,0.0,2.0,2.0,405.1657610002621,4.0,1.0,phase_1,,,,,,,,,,,,,yellow,circle
201.0,7.0,2.0,1.0,1.0,1.0,273.2923060002576,4.0,1.0,phase_1,,,,,,,,,,,,,orange,cross
188.0,3.0,2.0,0.0,1.0,1.0,331.4147709997996,4.0,1.0,phase_1,,,,,,,,,,,,,yellow,circle
184.0,7.0,2.0,1.0,2.0,2.0,394.3273439999757,4.0,1.0,phase_1,,,,,,,,,,,,,orange,cross
0.0,5.0,0.0,1.0,4.0,4.0,277.6689299998907,4.0,1.0,phase_1,,,,,,,,,,,,,white,triangle
0.0,3.0,0.0,0.0,4.0,4.0,294.6541409996825,4.0,1.0,phase_1,,,,,,,,,,,,,yellow,circle
68.0,5.0,0.5,1.0,2.0,2.0,304.4029769998815,4.0,1.0,phase_1,,,,,,,,,,,,,white,triangle
391.0,8.0,4.0,1.0,1.0,1.0,323.2730090003315,4.0,1.0,phase_1,,,,,,,,,,,,,magenta,I
0.0,1.0,0.0,0.0,3.0,3.0,323.0478980003681,4.0,1.0,phase_1,,,,,,,,,,,,,green,hexagon
103.0,2.0,1.0,0.0,3.0,3.0,362.0979279999119,4.0,1.0,phase_1,,,,,,,,,,,,,gray,flipped triangle
398.0,4.0,4.0,0.0,4.0,4.0,313.7468780000745,4.0,1.0,phase_1,,,,,,,,,,,,,cyan,diamond
113.0,2.0,1.0,0.0,2.0,2.0,310.9291000000667,4.0,1.0,phase_1,,,,,,,,,,,,,gray,flipped triangle
0.0,8.0,0.0,1.0,1.0,1.0,298.13766999996,4.0,1.0,phase_1,,,,,,,,,,,,,magenta,I
391.0,4.0,4.0,0.0,4.0,4.0,318.0391200003214,4.0,1.0,phase_1,,,,,,,,,,,,,cyan,diamond
82.0,2.0,1.0,0.0,1.0,1.0,284.5915509997212,4.0,1.0,phase_1,,,,,,,,,,,,,gray,flipped triangle
41.0,1.0,0.5,0.0,4.0,4.0,325.6207379999978,4.0,1.0,phase_1,,,,,,,,,,,,,green,hexagon
0.0,7.0,0.0,1.0,2.0,2.0,312.5487450001856,4.0,1.0,phase_1,,,,,,,,,,,,,orange,cross
66.0,1.0,0.5,0.0,2.0,2.0,410.8584180003163,4.0,1.0,phase_1,,,,,,,,,,,,,green,hexagon
182.0,3.0,2.0,0.0,1.0,1.0,319.6180119998644,4.0,1.0,phase_1,,,,,,,,,,,,,yellow,circle
114.0,6.0,1.0,1.0,2.0,2.0,364.1358889999537,4.0,1.0,phase_1,,,,,,,,,,,,,blue,square
114.0,2.0,1.0,0.0,2.0,2.0,359.1003649999038,4.0,1.0,phase_1,,,,,,,,,,,,,gray,flipped triangle
212.0,7.0,2.0,1.0,3.0,3.0,524.8550910000631,4.0,1.0,phase_1,,,,,,,,,,,,,orange,cross
395.0,8.0,4.0,1.0,2.0,2.0,403.1502290004027,4.0,1.0,phase_1,,,,,,,,,,,,,magenta,I
219.0,3.0,2.0,0.0,3.0,3.0,408.690550999836,4.0,2.0,phase_1,,,,,,,,,,,,,yellow,circle
0.0,2.0,0.0,0.0,1.0,1.0,308.8548220002849,4.0,1.0,phase_1,,,,,,,,,,,,,gray,flipped triangle
42.0,5.0,0.5,1.0,1.0,1.0,361.5027189998727,4.0,1.0,phase_1,,,,,,,,,,,,,white,triangle
0.0,3.0,0.0,0.0,2.0,2.0,356.2016639998546,4.0,1.0,phase_1,,,,,,,,,,,,,yellow,circle
0.0,7.0,0.0,1.0,4.0,4.0,290.0916040002812,4.0,1.0,phase_1,,,,,,,,,,,,,orange,cross
378.0,8.0,4.0,1.0,2.0,2.0,339.6062470001197,4.0,1.0,phase_1,,,,,,,,,,,,,magenta,I
88.0,6.0,1.0,1.0,4.0,4.0,329.1129819999696,4.0,1.0,phase_1,,,,,,,,,,,,,blue,square
121.0,6.0,1.0,1.0,4.0,4.0,364.2438669999137,4.0,1.0,phase_1,,,,,,,,,,,,,blue,square
0.0,2.0,0.0,0.0,1.0,1.0,283.2059339998523,4.0,1.0,phase_1,,,,,,,,,,,,,gray,flipped triangle
117.0,2.0,1.0,0.0,1.0,1.0,330.95960799983,4.0,1.0,phase_1,,,,,,,,,,,,,gray,flipped triangle
79.0,6.0,1.0,1.0,1.0,1.0,309.150303000024,4.0,1.0,phase_1,,,,,,,,,,,,,blue,square
89.0,2.0,1.0,0.0,2.0,2.0,319.6484679997411,4.0,1.0,phase_1,,,,,,,,,,,,,gray,flipped triangle
402.0,8.0,4.0,1.0,4.0,4.0,277.5093579998611,4.0,1.0,phase_1,,,,,,,,,,,,,magenta,I
206.0,7.0,2.0,1.0,1.0,1.0,273.2277830000384,4.0,1.0,phase_1,,,,,,,,,,,,,orange,cross
101.0,6.0,1.0,1.0,1.0,1.0,410.6448769998678,4.0,1.0,phase_1,,,,,,,,,,,,,blue,square
0.0,2.0,0.0,0.0,4.0,4.0,327.5126549997367,4.0,1.0,phase_1,,,,,,,,,,,,,gray,flipped triangle
388.0,4.0,4.0,0.0,3.0,3.0,441.6407720000279,4.0,1.0,phase_1,,,,,,,,,,,,,cyan,diamond
0.0,6.0,0.0,1.0,3.0,3.0,451.980562999779,4.0,1.0,phase_1,,,,,,,,,,,,,blue,square
208.0,3.0,2.0,0.0,3.0,3.0,784.5655969999825,4.0,1.0,phase_1,,,,,,,,,,,,,yellow,circle
219.0,7.0,2.0,1.0,1.0,1.0,294.3084070002442,4.0,1.0,phase_1,,,,,,,,,,,,,orange,cross
190.0,3.0,2.0,0.0,4.0,4.0,303.8362840002264,4.0,1.0,phase_1,,,,,,,,,,,,,yellow,circle
382.0,4.0,4.0,0.0,1.0,1.0,327.0249989996046,4.0,1.0,phase_1,,,,,,,,,,,,,cyan,diamond
0.0,5.0,0.0,1.0,3.0,3.0,394.7794949999661,4.0,1.0,phase_1,,,,,,,,,,,,,white,triangle
0.0,8.0,0.0,1.0,1.0,1.0,289.0686060000007,4.0,1.0,phase_1,,,,,,,,,,,,,magenta,I
0.0,6.0,0.0,1.0,2.0,2.0,331.4672880001126,4.0,1.0,phase_1,,,,,,,,,,,,,blue,square
0.0,4.0,0.0,0.0,4.0,4.0,275.5572199998823,4.0,1.0,phase_1,,,,,,,,,,,,,cyan,diamond
122.0,6.0,1.0,1.0,4.0,4.0,332.2109150003598,4.0,1.0,phase_1,,,,,,,,,,,,,blue,square
197.0,3.0,2.0,0.0,1.0,1.0,297.6952300000448,4.0,1.0,phase_1,,,,,,,,,,,,,yellow,circle
197.0,7.0,2.0,1.0,2.0,2.0,285.9970950003117,4.0,1.0,phase_1,,,,,,,,,,,,,orange,cross
124.0,2.0,1.0,0.0,3.0,3.0,271.0097849999329,4.0,1.0,phase_1,,,,,,,,,,,,,gray,flipped triangle
107.0,2.0,1.0,0.0,1.0,1.0,267.5270750000891,4.0,1.0,phase_1,,,,,,,,,,,,,gray,flipped triangle
72.0,5.0,0.5,1.0,1.0,1.0,489.6794730002511,4.0,1.0,phase_1,,,,,,,,,,,,,white,triangle
88.0,2.0,1.0,0.0,3.0,3.0,437.264246000268,4.0,1.0,phase_1,,,,,,,,,,,,,gray,flipped triangle
0.0,7.0,0.0,1.0,1.0,1.0,292.0910499997262,4.0,1.0,phase_1,,,,,,,,,,,,,orange,cross
194.0,3.0,2.0,0.0,4.0,4.0,308.8939459998983,4.0,1.0,phase_1,,,,,,,,,,,,,yellow,circle
101.0,2.0,1.0,0.0,2.0,2.0,317.2207329998855,4.0,1.0,phase_1,,,,,,,,,,,,,gray,flipped triangle
418.0,8.0,4.0,1.0,4.0,4.0,304.5818089999557,4.0,1.0,phase_1,,,,,,,,,,,,,magenta,I
101.0,2.0,1.0,0.0,1.0,1.0,286.032435999914,4.0,1.0,phase_1,,,,,,,,,,,,,gray,flipped triangle
72.0,1.0,0.5,0.0,4.0,4.0,275.3054150002754,4.0,1.0,phase_1,,,,,,,,,,,,,green,hexagon
123.0,2.0,1.0,0.0,4.0,4.0,360.0666649999766,4.0,1.0,phase_1,,,,,,,,,,,,,gray,flipped triangle
376.0,8.0,4.0,1.0,2.0,2.0,363.0774729999757,4.0,1.0,phase_1,,,,,,,,,,,,,magenta,I
404.0,8.0,4.0,1.0,3.0,3.0,359.8539859999619,4.0,1.0,phase_1,,,,,,,,,,,,,magenta,I
93.0,6.0,1.0,1.0,1.0,1.0,317.7819239999735,4.0,1.0,phase_1,,,,,,,,,,,,,blue,square
207.0,7.0,2.0,1.0,1.0,1.0,398.9140209996549,4.0,1.0,phase_1,,,,,,,,,,,,,orange,cross
224.0,3.0,2.0,0.0,1.0,1.0,301.2796519997209,4.0,2.0,phase_1,,,,,,,,,,,,,yellow,circle
41.0,5.0,0.5,1.0,3.0,3.0,374.2302750001727,4.0,1.0,phase_1,,,,,,,,,,,,,white,triangle
0.0,3.0,2.0,0.0,6.0,6.0,482.1058339998672,1.0,1.0,phase_2,go,250.0,250.0,1.0,,,,,,,,,yellow,circle
0.0,8.0,4.0,1.0,6.0,6.0,623.5743150000417,1.0,1.0,phase_2,stop,250.0,250.0,3.0,,,,,,,,,magenta,I
0.0,4.0,4.0,0.0,6.0,6.0,857.7044029998433,1.0,1.0,phase_2,go,250.0,200.0,1.0,,,,,,,,,cyan,diamond
0.0,4.0,4.0,0.0,5.0,5.0,596.6445280000698,1.0,1.0,phase_2,go,250.0,200.0,1.0,,,,,,,,,cyan,diamond
0.0,7.0,2.0,1.0,6.0,6.0,975.1636180003516,1.0,1.0,phase_2,go,250.0,200.0,1.0,,,,,,,,,orange,cross
0.0,3.0,2.0,0.0,6.0,6.0,824.2462339999292,1.0,1.0,phase_2,go,250.0,200.0,1.0,,,,,,,,,yellow,circle
0.0,2.0,1.0,0.0,5.0,5.0,816.7385690003357,1.0,1.0,phase_2,go,250.0,200.0,1.0,,,,,,,,,gray,flipped triangle
0.0,5.0,0.5,1.0,6.0,0.0,0.0,1.0,1.0,phase_2,stop,250.0,200.0,4.0,,,,,,,,,white,triangle
0.0,1.0,0.5,0.0,5.0,5.0,811.3415809998514,1.0,1.0,phase_2,go,250.0,250.0,1.0,,,,,,,,,green,hexagon
0.0,2.0,1.0,0.0,5.0,5.0,760.5081740002788,1.0,1.0,phase_2,go,250.0,250.0,1.0,,,,,,,,,gray,flipped triangle
0.0,5.0,0.5,1.0,6.0,6.0,461.6839579998668,1.0,1.0,phase_2,stop,250.0,250.0,3.0,,,,,,,,,white,triangle
0.0,4.0,4.0,0.0,6.0,6.0,927.4521379998076,1.0,1.0,phase_2,go,250.0,200.0,1.0,,,,,,,,,cyan,diamond
0.0,3.0,2.0,0.0,5.0,5.0,818.1191079997916,1.0,1.0,phase_2,go,250.0,200.0,1.0,,,,,,,,,yellow,circle
0.0,7.0,2.0,1.0,5.0,0.0,0.0,1.0,1.0,phase_2,stop,250.0,200.0,4.0,,,,,,,,,orange,cross
0.0,2.0,1.0,0.0,6.0,6.0,1027.2595209999054,1.0,1.0,phase_2,go,300.0,200.0,1.0,,,,,,,,,gray,flipped triangle
0.0,6.0,1.0,1.0,5.0,0.0,0.0,1.0,1.0,phase_2,stop,300.0,200.0,4.0,,,,,,,,,blue,square
0.0,8.0,4.0,1.0,6.0,6.0,764.1802379998808,1.0,1.0,phase_2,go,350.0,200.0,1.0,,,,,,,,,magenta,I
0.0,3.0,2.0,0.0,6.0,6.0,759.6108309999181,1.0,1.0,phase_2,go,350.0,200.0,1.0,,,,,,,,,yellow,circle
0.0,2.0,1.0,0.0,6.0,6.0,527.1674870000425,1.0,1.0,phase_2,go,350.0,200.0,1.0,,,,,,,,,gray,flipped triangle
0.0,8.0,4.0,1.0,6.0,0.0,0.0,1.0,1.0,phase_2,stop,350.0,200.0,4.0,,,,,,,,,magenta,I
0.0,5.0,0.5,1.0,5.0,0.0,0.0,1.0,1.0,phase_2,stop,350.0,250.0,4.0,,,,,,,,,white,triangle
0.0,6.0,1.0,1.0,6.0,6.0,602.6214980001896,1.0,1.0,phase_2,go,400.0,250.0,1.0,,,,,,,,,blue,square
0.0,5.0,0.5,1.0,6.0,6.0,735.370881000108,1.0,1.0,phase_2,go,400.0,250.0,1.0,,,,,,,,,white,triangle
0.0,3.0,2.0,0.0,6.0,6.0,1015.9371189997728,1.0,1.0,phase_2,go,400.0,250.0,1.0,,,,,,,,,yellow,circle
0.0,2.0,1.0,0.0,5.0,5.0,812.3376600001393,1.0,1.0,phase_2,go,400.0,250.0,1.0,,,,,,,,,gray,flipped triangle
0.0,3.0,2.0,0.0,6.0,6.0,558.1368709999879,1.0,1.0,phase_2,go,400.0,250.0,1.0,,,,,,,,,yellow,circle
0.0,8.0,4.0,1.0,6.0,6.0,450.9747089996381,1.0,1.0,phase_2,stop,400.0,250.0,3.0,,,,,,,,,magenta,I
0.0,3.0,2.0,0.0,5.0,5.0,853.709654999875,1.0,1.0,phase_2,go,400.0,200.0,1.0,,,,,,,,,yellow,circle
0.0,5.0,0.5,1.0,6.0,0.0,0.0,1.0,1.0,phase_2,stop,400.0,200.0,4.0,,,,,,,,,white,triangle
0.0,5.0,0.5,1.0,6.0,6.0,680.0416609999047,1.0,1.0,phase_2,go,400.0,250.0,1.0,,,,,,,,,white,triangle
0.0,7.0,2.0,1.0,6.0,0.0,0.0,1.0,1.0,phase_2,stop,400.0,250.0,4.0,,,,,,,,,orange,cross
0.0,2.0,1.0,0.0,6.0,6.0,697.9867089999061,1.0,1.0,phase_2,go,400.0,300.0,1.0,,,,,,,,,gray,flipped triangle
0.0,1.0,0.5,0.0,5.0,5.0,707.8462399999808,1.0,1.0,phase_2,go,400.0,300.0,1.0,,,,,,,,,green,hexagon
0.0,6.0,1.0,1.0,5.0,5.0,571.9873190000726,1.0,1.0,phase_2,stop,400.0,300.0,3.0,,,,,,,,,blue,square
0.0,6.0,1.0,1.0,5.0,0.0,0.0,1.0,1.0,phase_2,stop,350.0,300.0,4.0,,,,,,,,,blue,square
0.0,6.0,1.0,1.0,6.0,6.0,617.39850999993,1.0,1.0,phase_2,go,400.0,300.0,1.0,,,,,,,,,blue,square
0.0,2.0,1.0,0.0,6.0,6.0,470.3886510001211,2.0,1.0,phase_2,go,400.0,300.0,1.0,,,,,,,,,gray,flipped triangle
0.0,1.0,0.5,0.0,6.0,6.0,307.3751230003836,2.0,1.0,phase_2,go,400.0,300.0,1.0,,,,,,,,,green,hexagon
0.0,6.0,1.0,1.0,6.0,6.0,457.8313540000636,2.0,1.0,phase_2,stop,400.0,300.0,3.0,,,,,,,,,blue,square
0.0,4.0,4.0,0.0,5.0,5.0,330.3063910002493,2.0,1.0,phase_2,go,400.0,250.0,1.0,,,,,,,,,cyan,diamond
0.0,1.0,0.5,0.0,6.0,6.0,461.3397559996883,2.0,1.0,phase_2,go,400.0,250.0,1.0,,,,,,,,,green,hexagon
0.0,4.0,4.0,0.0,5.0,5.0,310.0076119999357,2.0,1.0,phase_2,go,400.0,250.0,1.0,,,,,,,,,cyan,diamond
0.0,7.0,2.0,1.0,5.0,5.0,508.2708149998325,2.0,1.0,phase_2,go,400.0,250.0,1.0,,,,,,,,,orange,cross
0.0,8.0,4.0,1.0,6.0,6.0,469.2603799999233,2.0,1.0,phase_2,stop,400.0,250.0,3.0,,,,,,,,,magenta,I
0.0,4.0,4.0,0.0,5.0,5.0,643.1211869999061,2.0,1.0,phase_2,go,400.0,200.0,1.0,,,,,,,,,cyan,diamond
0.0,8.0,4.0,1.0,5.0,5.0,554.2796330000783,2.0,1.0,phase_2,stop,400.0,200.0,3.0,,,,,,,,,magenta,I
0.0,6.0,1.0,1.0,6.0,0.0,0.0,2.0,1.0,phase_2,stop,350.0,200.0,4.0,,,,,,,,,blue,square
0.0,1.0,0.5,0.0,5.0,5.0,283.8392349999594,2.0,1.0,phase_2,go,350.0,250.0,1.0,,,,,,,,,green,hexagon
0.0,5.0,0.5,1.0,6.0,0.0,0.0,2.0,1.0,phase_2,stop,350.0,250.0,4.0,,,,,,,,,white,triangle
0.0,7.0,2.0,1.0,5.0,5.0,341.0244120000243,2.0,1.0,phase_2,stop,350.0,300.0,3.0,,,,,,,,,orange,cross
0.0,2.0,1.0,0.0,6.0,6.0,616.9239460000426,2.0,1.0,phase_2,go,300.0,300.0,1.0,,,,,,,,,gray,flipped triangle
0.0,6.0,1.0,1.0,5.0,5.0,412.4354839996158,2.0,1.0,phase_2,stop,300.0,300.0,3.0,,,,,,,,,blue,square
0.0,7.0,2.0,1.0,5.0,0.0,0.0,2.0,1.0,phase_2,stop,250.0,300.0,4.0,,,,,,,,,orange,cross
0.0,6.0,1.0,1.0,5.0,0.0,0.0,2.0,1.0,phase_2,stop,300.0,300.0,4.0,,,,,,,,,blue,square
0.0,3.0,2.0,0.0,6.0,6.0,272.3222879999412,2.0,1.0,phase_2,go,350.0,300.0,1.0,,,,,,,,,yellow,circle
0.0,6.0,1.0,1.0,5.0,5.0,382.5322120001146,2.0,1.0,phase_2,stop,350.0,300.0,3.0,,,,,,,,,blue,square
0.0,3.0,2.0,0.0,5.0,5.0,659.9381720002384,2.0,1.0,phase_2,go,300.0,300.0,1.0,,,,,,,,,yellow,circle
0.0,4.0,4.0,0.0,6.0,6.0,464.4343969998772,2.0,1.0,phase_2,go,300.0,300.0,1.0,,,,,,,,,cyan,diamond
0.0,3.0,2.0,0.0,6.0,6.0,576.0162199999286,2.0,1.0,phase_2,go,300.0,300.0,1.0,,,,,,,,,yellow,circle
0.0,1.0,0.5,0.0,6.0,6.0,470.7428269998672,2.0,1.0,phase_2,go,300.0,300.0,1.0,,,,,,,,,green,hexagon
0.0,3.0,2.0,0.0,5.0,5.0,546.391131999826,2.0,1.0,phase_2,go,300.0,300.0,1.0,,,,,,,,,yellow,circle
0.0,3.0,2.0,0.0,5.0,5.0,673.9069810000728,2.0,1.0,phase_2,go,300.0,300.0,1.0,,,,,,,,,yellow,circle
0.0,5.0,0.5,1.0,5.0,5.0,306.4843659999496,2.0,1.0,phase_2,go,300.0,300.0,1.0,,,,,,,,,white,triangle
0.0,2.0,1.0,0.0,5.0,5.0,680.0779330001205,2.0,1.0,phase_2,go,300.0,300.0,1.0,,,,,,,,,gray,flipped triangle
0.0,6.0,1.0,1.0,6.0,6.0,448.6752160000833,2.0,1.0,phase_2,stop,300.0,300.0,3.0,,,,,,,,,blue,square
0.0,4.0,4.0,0.0,6.0,6.0,684.4211120001091,2.0,1.0,phase_2,go,300.0,250.0,1.0,,,,,,,,,cyan,diamond
0.0,7.0,2.0,1.0,6.0,0.0,0.0,2.0,1.0,phase_2,stop,300.0,250.0,4.0,,,,,,,,,orange,cross
0.0,2.0,1.0,0.0,6.0,6.0,443.8327119996756,2.0,1.0,phase_2,go,300.0,300.0,1.0,,,,,,,,,gray,flipped triangle
0.0,6.0,1.0,1.0,5.0,0.0,0.0,2.0,1.0,phase_2,stop,300.0,300.0,4.0,,,,,,,,,blue,square
0.0,2.0,1.0,0.0,6.0,6.0,493.1110480001734,2.0,1.0,phase_2,go,350.0,300.0,1.0,,,,,,,,,gray,flipped triangle
0.0,7.0,2.0,1.0,6.0,0.0,0.0,2.0,1.0,phase_2,stop,350.0,300.0,4.0,,,,,,,,,orange,cross
0.0,7.0,2.0,1.0,6.0,6.0,550.4529469999397,2.0,1.0,phase_2,go,350.0,350.0,1.0,,,,,,,,,orange,cross
0.0,3.0,2.0,0.0,6.0,6.0,631.1432030001924,3.0,1.0,phase_2,go,350.0,350.0,1.0,,,,,,,,,yellow,circle
0.0,3.0,2.0,0.0,5.0,5.0,529.4068859998333,3.0,1.0,phase_2,go,350.0,350.0,1.0,,,,,,,,,yellow,circle
0.0,6.0,1.0,1.0,5.0,5.0,302.0065529999556,3.0,1.0,phase_2,stop,350.0,350.0,3.0,,,,,,,,,blue,square
0.0,3.0,2.0,0.0,6.0,6.0,268.5432590001255,3.0,1.0,phase_2,go,300.0,350.0,1.0,,,,,,,,,yellow,circle
0.0,5.0,0.5,1.0,6.0,0.0,0.0,3.0,1.0,phase_2,stop,300.0,350.0,4.0,,,,,,,,,white,triangle
0.0,1.0,0.5,0.0,6.0,6.0,376.113990000249,3.0,1.0,phase_2,go,300.0,400.0,1.0,,,,,,,,,green,hexagon
0.0,2.0,1.0,0.0,5.0,5.0,802.4989340001412,3.0,1.0,phase_2,go,300.0,400.0,1.0,,,,,,,,,gray,flipped triangle
0.0,8.0,4.0,1.0,6.0,0.0,0.0,3.0,1.0,phase_2,stop,300.0,400.0,4.0,,,,,,,,,magenta,I
0.0,1.0,0.5,0.0,6.0,6.0,350.5125390001922,3.0,1.0,phase_2,go,300.0,450.0,1.0,,,,,,,,,green,hexagon
0.0,6.0,1.0,1.0,5.0,5.0,522.0790690000285,3.0,1.0,phase_2,stop,300.0,450.0,3.0,,,,,,,,,blue,square
0.0,8.0,4.0,1.0,5.0,5.0,369.5563579999543,3.0,1.0,phase_2,stop,250.0,450.0,3.0,,,,,,,,,magenta,I
0.0,2.0,1.0,0.0,6.0,6.0,397.4889270002677,3.0,1.0,phase_2,go,200.0,450.0,1.0,,,,,,,,,gray,flipped triangle
0.0,3.0,2.0,0.0,5.0,5.0,584.8191309996764,3.0,1.0,phase_2,go,200.0,450.0,1.0,,,,,,,,,yellow,circle
0.0,5.0,0.5,1.0,5.0,5.0,358.1482159997904,3.0,1.0,phase_2,stop,200.0,450.0,3.0,,,,,,,,,white,triangle
0.0,7.0,2.0,1.0,5.0,0.0,0.0,3.0,1.0,phase_2,stop,150.0,450.0,4.0,,,,,,,,,orange,cross
0.0,5.0,0.5,1.0,5.0,5.0,700.5351660000088,3.0,1.0,phase_2,go,200.0,450.0,1.0,,,,,,,,,white,triangle
0.0,1.0,0.5,0.0,6.0,6.0,499.1298239997377,3.0,1.0,phase_2,go,200.0,450.0,1.0,,,,,,,,,green,hexagon
0.0,5.0,0.5,1.0,5.0,5.0,747.2779290001199,3.0,1.0,phase_2,go,200.0,450.0,1.0,,,,,,,,,white,triangle
0.0,5.0,0.5,1.0,5.0,0.0,0.0,3.0,1.0,phase_2,stop,200.0,450.0,4.0,,,,,,,,,white,triangle
0.0,7.0,2.0,1.0,6.0,6.0,276.932712999951,3.0,1.0,phase_2,stop,250.0,450.0,3.0,,,,,,,,,orange,cross
0.0,4.0,4.0,0.0,5.0,5.0,546.2186780000593,3.0,1.0,phase_2,go,250.0,400.0,1.0,,,,,,,,,cyan,diamond
0.0,8.0,4.0,1.0,5.0,5.0,385.6299310000395,3.0,1.0,phase_2,go,250.0,400.0,1.0,,,,,,,,,magenta,I
0.0,8.0,4.0,1.0,6.0,6.0,499.9898940000093,3.0,1.0,phase_2,stop,250.0,400.0,3.0,,,,,,,,,magenta,I
0.0,6.0,1.0,1.0,6.0,0.0,0.0,3.0,1.0,phase_2,stop,250.0,350.0,4.0,,,,,,,,,blue,square
0.0,4.0,4.0,0.0,6.0,6.0,539.5232460000443,3.0,1.0,phase_2,go,250.0,400.0,1.0,,,,,,,,,cyan,diamond
0.0,2.0,1.0,0.0,6.0,6.0,545.3582550003375,3.0,1.0,phase_2,go,250.0,400.0,1.0,,,,,,,,,gray,flipped triangle
0.0,8.0,4.0,1.0,5.0,5.0,370.9880080000403,3.0,1.0,phase_2,go,250.0,400.0,1.0,,,,,,,,,magenta,I
0.0,6.0,1.0,1.0,6.0,6.0,436.9766009999694,3.0,1.0,phase_2,stop,250.0,400.0,3.0,,,,,,,,,blue,square
0.0,7.0,2.0,1.0,5.0,0.0,0.0,3.0,1.0,phase_2,stop,250.0,350.0,4.0,,,,,,,,,orange,cross
0.0,8.0,4.0,1.0,6.0,6.0,501.7595010003788,3.0,1.0,phase_2,go,300.0,350.0,1.0,,,,,,,,,magenta,I
0.0,3.0,2.0,0.0,5.0,5.0,443.9051009999275,3.0,1.0,phase_2,go,300.0,350.0,1.0,,,,,,,,,yellow,circle
0.0,1.0,0.5,0.0,6.0,6.0,416.5887630001634,3.0,1.0,phase_2,go,300.0,350.0,1.0,,,,,,,,,green,hexagon
0.0,7.0,2.0,1.0,6.0,6.0,515.196176000245,3.0,1.0,phase_2,stop,300.0,350.0,3.0,,,,,,,,,orange,cross
0.0,7.0,2.0,1.0,5.0,0.0,0.0,3.0,1.0,phase_2,stop,300.0,300.0,4.0,,,,,,,,,orange,cross
0.0,5.0,0.5,1.0,5.0,0.0,0.0,3.0,1.0,phase_2,stop,350.0,300.0,4.0,,,,,,,,,white,triangle
0.0,1.0,0.5,0.0,6.0,6.0,481.2139050000041,3.0,1.0,phase_2,go,400.0,300.0,1.0,,,,,,,,,green,hexagon
0.0,3.0,2.0,0.0,5.0,5.0,595.9262009996564,4.0,1.0,phase_2,go,400.0,300.0,1.0,,,,,,,,,yellow,circle
0.0,8.0,4.0,1.0,6.0,0.0,0.0,4.0,1.0,phase_2,stop,400.0,300.0,4.0,,,,,,,,,magenta,I
0.0,1.0,0.5,0.0,5.0,5.0,516.8321739997737,4.0,1.0,phase_2,go,400.0,350.0,1.0,,,,,,,,,green,hexagon
0.0,2.0,1.0,0.0,6.0,6.0,541.7617250000148,4.0,1.0,phase_2,go,400.0,350.0,1.0,,,,,,,,,gray,flipped triangle
0.0,2.0,1.0,0.0,5.0,5.0,422.1727760000249,4.0,1.0,phase_2,go,400.0,350.0,1.0,,,,,,,,,gray,flipped triangle
0.0,5.0,0.5,1.0,6.0,6.0,458.2448619999013,4.0,1.0,phase_2,stop,400.0,350.0,3.0,,,,,,,,,white,triangle
0.0,4.0,4.0,0.0,5.0,5.0,516.1389380000401,4.0,1.0,phase_2,go,400.0,300.0,1.0,,,,,,,,,cyan,diamond
0.0,1.0,0.5,0.0,6.0,6.0,415.3431670001737,4.0,1.0,phase_2,go,400.0,300.0,1.0,,,,,,,,,green,hexagon
0.0,4.0,4.0,0.0,6.0,6.0,571.6480789997149,4.0,1.0,phase_2,go,400.0,300.0,1.0,,,,,,,,,cyan,diamond
0.0,8.0,4.0,1.0,5.0,5.0,362.9531439996754,4.0,1.0,phase_2,stop,400.0,300.0,3.0,,,,,,,,,magenta,I
0.0,2.0,1.0,0.0,6.0,6.0,564.970515999903,4.0,1.0,phase_2,go,350.0,300.0,1.0,,,,,,,,,gray,flipped triangle
0.0,7.0,2.0,1.0,6.0,6.0,560.1341710002998,4.0,1.0,phase_2,go,350.0,300.0,1.0,,,,,,,,,orange,cross
0.0,1.0,0.5,0.0,5.0,5.0,486.5395990000252,4.0,1.0,phase_2,go,350.0,300.0,1.0,,,,,,,,,green,hexagon
0.0,6.0,1.0,1.0,6.0,0.0,0.0,4.0,1.0,phase_2,stop,350.0,300.0,4.0,,,,,,,,,blue,square
0.0,2.0,1.0,0.0,5.0,5.0,321.8477790001088,4.0,1.0,phase_2,go,350.0,350.0,1.0,,,,,,,,,gray,flipped triangle
0.0,5.0,0.5,1.0,5.0,0.0,0.0,4.0,1.0,phase_2,stop,350.0,350.0,4.0,,,,,,,,,white,triangle
0.0,8.0,4.0,1.0,6.0,6.0,427.1506320001208,4.0,1.0,phase_2,stop,400.0,350.0,3.0,,,,,,,,,magenta,I
0.0,4.0,4.0,0.0,5.0,5.0,691.253362000225,4.0,1.0,phase_2,go,400.0,300.0,1.0,,,,,,,,,cyan,diamond
0.0,1.0,0.5,0.0,5.0,5.0,659.7250660001919,4.0,1.0,phase_2,go,400.0,300.0,1.0,,,,,,,,,green,hexagon
0.0,5.0,0.5,1.0,5.0,5.0,432.8631170001245,4.0,1.0,phase_2,stop,400.0,300.0,3.0,,,,,,,,,white,triangle
0.0,5.0,0.5,1.0,6.0,0.0,0.0,4.0,1.0,phase_2,stop,350.0,300.0,4.0,,,,,,,,,white,triangle
0.0,6.0,1.0,1.0,6.0,6.0,392.3178350000853,4.0,1.0,phase_2,go,350.0,350.0,1.0,,,,,,,,,blue,square
0.0,1.0,0.5,0.0,5.0,5.0,366.630563000399,4.0,1.0,phase_2,go,350.0,350.0,1.0,,,,,,,,,green,hexagon
0.0,1.0,0.5,0.0,6.0,6.0,767.0975010000802,4.0,1.0,phase_2,go,350.0,350.0,1.0,,,,,,,,,green,hexagon
0.0,8.0,4.0,1.0,5.0,5.0,345.4781760001424,4.0,1.0,phase_2,stop,350.0,350.0,3.0,,,,,,,,,magenta,I
0.0,3.0,2.0,0.0,6.0,6.0,455.0785880001058,4.0,1.0,phase_2,go,300.0,350.0,1.0,,,,,,,,,yellow,circle
0.0,8.0,4.0,1.0,5.0,5.0,443.77615600024,4.0,1.0,phase_2,stop,300.0,350.0,3.0,,,,,,,,,magenta,I
0.0,6.0,1.0,1.0,5.0,0.0,0.0,4.0,1.0,phase_2,stop,250.0,350.0,4.0,,,,,,,,,blue,square
0.0,2.0,1.0,0.0,6.0,6.0,335.7495999998718,4.0,1.0,phase_2,go,300.0,350.0,1.0,,,,,,,,,gray,flipped triangle
0.0,1.0,0.5,0.0,5.0,5.0,510.6691519999913,4.0,1.0,phase_2,go,300.0,350.0,1.0,,,,,,,,,green,hexagon
0.0,6.0,1.0,1.0,6.0,6.0,401.4188480000484,4.0,1.0,phase_2,stop,300.0,350.0,3.0,,,,,,,,,blue,square
0.0,1.0,0.5,0.0,5.0,5.0,942.1751430004406,4.0,1.0,phase_2,go,300.0,300.0,1.0,,,,,,,,,green,hexagon
0.0,8.0,4.0,1.0,5.0,5.0,576.9941559997278,4.0,1.0,phase_2,go,300.0,300.0,1.0,,,,,,,,,magenta,I
0.0,7.0,2.0,1.0,6.0,6.0,474.4130899998708,4.0,1.0,phase_2,go,300.0,300.0,1.0,,,,,,,,,orange,cross
0.0,6.0,1.0,1.0,5.0,0.0,0.0,4.0,1.0,phase_2,stop,300.0,300.0,4.0,,,,,,,,,blue,square
0.0,1.0,0.5,0.0,5.0,5.0,333.1233500002781,4.0,1.0,phase_2,go,350.0,300.0,1.0,,,,,,,,,green,hexagon
0.0,7.0,2.0,1.0,6.0,6.0,442.4751900000956,5.0,1.0,phase_2,go,350.0,300.0,1.0,,,,,,,,,orange,cross
0.0,5.0,0.5,1.0,5.0,5.0,498.6309030000484,5.0,1.0,phase_2,stop,350.0,300.0,3.0,,,,,,,,,white,triangle
0.0,6.0,1.0,1.0,6.0,6.0,523.9612939999461,5.0,1.0,phase_2,go,300.0,300.0,1.0,,,,,,,,,blue,square
0.0,2.0,1.0,0.0,5.0,5.0,554.6878729996934,5.0,1.0,phase_2,go,300.0,300.0,1.0,,,,,,,,,gray,flipped triangle
0.0,7.0,2.0,1.0,6.0,6.0,355.7574860001296,5.0,1.0,phase_2,stop,300.0,300.0,3.0,,,,,,,,,orange,cross
0.0,4.0,4.0,0.0,6.0,6.0,364.2444609999984,5.0,1.0,phase_2,go,300.0,250.0,1.0,,,,,,,,,cyan,diamond
0.0,7.0,2.0,1.0,5.0,0.0,0.0,5.0,1.0,phase_2,stop,300.0,250.0,4.0,,,,,,,,,orange,cross
0.0,8.0,4.0,1.0,6.0,6.0,313.3407830000578,5.0,1.0,phase_2,stop,350.0,250.0,3.0,,,,,,,,,magenta,I
0.0,3.0,2.0,0.0,6.0,6.0,309.7445439998409,5.0,1.0,phase_2,go,350.0,200.0,1.0,,,,,,,,,yellow,circle
0.0,7.0,2.0,1.0,6.0,0.0,0.0,5.0,1.0,phase_2,stop,350.0,200.0,4.0,,,,,,,,,orange,cross
0.0,7.0,2.0,1.0,5.0,5.0,478.671193000082,5.0,1.0,phase_2,stop,350.0,250.0,3.0,,,,,,,,,orange,cross
0.0,4.0,4.0,0.0,6.0,6.0,314.1765130003477,5.0,1.0,phase_2,go,300.0,250.0,1.0,,,,,,,,,cyan,diamond
0.0,7.0,2.0,1.0,6.0,6.0,395.0755150003715,5.0,1.0,phase_2,go,300.0,250.0,1.0,,,,,,,,,orange,cross
0.0,4.0,4.0,0.0,6.0,6.0,393.5341820001667,5.0,1.0,phase_2,go,300.0,250.0,1.0,,,,,,,,,cyan,diamond
0.0,4.0,4.0,0.0,6.0,6.0,432.6050609997764,5.0,1.0,phase_2,go,300.0,250.0,1.0,,,,,,,,,cyan,diamond
0.0,6.0,1.0,1.0,5.0,0.0,0.0,5.0,1.0,phase_2,stop,300.0,250.0,4.0,,,,,,,,,blue,square
0.0,4.0,4.0,0.0,6.0,6.0,289.7057619998122,5.0,1.0,phase_2,go,350.0,250.0,1.0,,,,,,,,,cyan,diamond
0.0,3.0,2.0,0.0,6.0,6.0,489.1873589999704,5.0,1.0,phase_2,go,350.0,250.0,1.0,,,,,,,,,yellow,circle
0.0,3.0,2.0,0.0,5.0,5.0,549.1519860001972,5.0,1.0,phase_2,go,350.0,250.0,1.0,,,,,,,,,yellow,circle
0.0,6.0,1.0,1.0,6.0,0.0,0.0,5.0,1.0,phase_2,stop,350.0,250.0,4.0,,,,,,,,,blue,square
0.0,7.0,2.0,1.0,5.0,0.0,0.0,5.0,1.0,phase_2,stop,350.0,300.0,4.0,,,,,,,,,orange,cross
0.0,3.0,2.0,0.0,6.0,6.0,555.0611339999705,5.0,1.0,phase_2,go,400.0,300.0,1.0,,,,,,,,,yellow,circle
0.0,7.0,2.0,1.0,5.0,5.0,624.2005320000317,5.0,1.0,phase_2,go,400.0,300.0,1.0,,,,,,,,,orange,cross
0.0,3.0,2.0,0.0,6.0,6.0,417.8597780000928,5.0,1.0,phase_2,go,400.0,300.0,1.0,,,,,,,,,yellow,circle
0.0,1.0,0.5,0.0,5.0,5.0,537.246745000175,5.0,1.0,phase_2,go,400.0,300.0,1.0,,,,,,,,,green,hexagon
0.0,8.0,4.0,1.0,6.0,0.0,0.0,5.0,1.0,phase_2,stop,400.0,300.0,4.0,,,,,,,,,magenta,I
0.0,4.0,4.0,0.0,5.0,5.0,598.2943150002029,5.0,1.0,phase_2,go,400.0,350.0,1.0,,,,,,,,,cyan,diamond
0.0,8.0,4.0,1.0,5.0,5.0,473.5848180002904,5.0,1.0,phase_2,stop,400.0,350.0,3.0,,,,,,,,,magenta,I
0.0,6.0,1.0,1.0,6.0,6.0,440.9411399997225,5.0,1.0,phase_2,stop,350.0,350.0,3.0,,,,,,,,,blue,square
0.0,3.0,2.0,0.0,5.0,5.0,504.7917540000526,5.0,1.0,phase_2,go,350.0,300.0,1.0,,,,,,,,,yellow,circle
0.0,4.0,4.0,0.0,6.0,6.0,488.7990150000405,5.0,1.0,phase_2,go,350.0,300.0,1.0,,,,,,,,,cyan,diamond
0.0,4.0,4.0,0.0,5.0,5.0,593.4846440000001,5.0,1.0,phase_2,go,350.0,300.0,1.0,,,,,,,,,cyan,diamond
0.0,6.0,1.0,1.0,6.0,6.0,503.29683600011776,5.0,1.0,phase_2,stop,350.0,300.0,3.0,,,,,,,,,blue,square
0.0,2.0,1.0,0.0,6.0,6.0,626.9876050000676,5.0,1.0,phase_2,go,350.0,250.0,1.0,,,,,,,,,gray,flipped triangle
0.0,6.0,1.0,1.0,6.0,6.0,584.5984570000837,5.0,1.0,phase_2,go,350.0,250.0,1.0,,,,,,,,,blue,square
0.0,3.0,2.0,0.0,6.0,6.0,538.6446640000031,5.0,1.0,phase_2,go,350.0,250.0,1.0,,,,,,,,,yellow,circle
0.0,5.0,0.5,1.0,6.0,6.0,574.7261639999124,6.0,1.0,phase_2,stop,350.0,250.0,3.0,,,,,,,,,white,triangle
0.0,8.0,4.0,1.0,5.0,5.0,379.3575899999268,6.0,1.0,phase_2,go,350.0,200.0,1.0,,,,,,,,,magenta,I
0.0,4.0,4.0,0.0,5.0,5.0,459.7301029998561,6.0,1.0,phase_2,go,350.0,200.0,1.0,,,,,,,,,cyan,diamond
0.0,3.0,2.0,0.0,5.0,5.0,530.88978400001,6.0,1.0,phase_2,go,350.0,200.0,1.0,,,,,,,,,yellow,circle
0.0,8.0,4.0,1.0,6.0,0.0,0.0,6.0,1.0,phase_2,stop,350.0,200.0,4.0,,,,,,,,,magenta,I
0.0,4.0,4.0,0.0,5.0,5.0,250.5465750000439,6.0,1.0,phase_2,go,350.0,250.0,1.0,,,,,,,,,cyan,diamond
0.0,5.0,0.5,1.0,5.0,5.0,333.6873289999857,6.0,1.0,phase_2,stop,350.0,250.0,3.0,,,,,,,,,white,triangle
0.0,3.0,2.0,0.0,6.0,6.0,327.360310000131,6.0,1.0,phase_2,go,300.0,250.0,1.0,,,,,,,,,yellow,circle
0.0,6.0,1.0,1.0,6.0,6.0,611.8100339999728,6.0,1.0,phase_2,go,300.0,250.0,1.0,,,,,,,,,blue,square
0.0,7.0,2.0,1.0,5.0,0.0,0.0,6.0,1.0,phase_2,stop,300.0,250.0,4.0,,,,,,,,,orange,cross
0.0,2.0,1.0,0.0,5.0,5.0,587.4255369999446,6.0,1.0,phase_2,go,350.0,250.0,1.0,,,,,,,,,gray,flipped triangle
0.0,5.0,0.5,1.0,5.0,0.0,0.0,6.0,1.0,phase_2,stop,350.0,250.0,4.0,,,,,,,,,white,triangle
0.0,2.0,1.0,0.0,5.0,5.0,379.6750450001127,6.0,1.0,phase_2,go,400.0,250.0,1.0,,,,,,,,,gray,flipped triangle
0.0,5.0,0.5,1.0,5.0,5.0,627.319363999959,6.0,1.0,phase_2,go,400.0,250.0,1.0,,,,,,,,,white,triangle
0.0,1.0,0.5,0.0,6.0,6.0,342.4327679999805,6.0,1.0,phase_2,go,400.0,250.0,1.0,,,,,,,,,green,hexagon
0.0,2.0,1.0,0.0,5.0,5.0,533.5751089996847,6.0,1.0,phase_2,go,400.0,250.0,1.0,,,,,,,,,gray,flipped triangle
0.0,2.0,1.0,0.0,5.0,5.0,564.4669819998853,6.0,1.0,phase_2,go,400.0,250.0,1.0,,,,,,,,,gray,flipped triangle
0.0,6.0,1.0,1.0,6.0,6.0,308.7257769998359,6.0,1.0,phase_2,stop,400.0,250.0,3.0,,,,,,,,,blue,square
0.0,8.0,4.0,1.0,6.0,6.0,531.4495880002141,6.0,1.0,phase_2,go,400.0,200.0,1.0,,,,,,,,,magenta,I
0.0,6.0,1.0,1.0,5.0,5.0,568.9402250000057,6.0,1.0,phase_2,stop,400.0,200.0,3.0,,,,,,,,,blue,square
0.0,2.0,1.0,0.0,6.0,6.0,610.0074589999167,6.0,1.0,phase_2,go,350.0,200.0,1.0,,,,,,,,,gray,flipped triangle
0.0,7.0,2.0,1.0,5.0,5.0,481.7519690000154,6.0,1.0,phase_2,stop,350.0,200.0,3.0,,,,,,,,,orange,cross
0.0,8.0,4.0,1.0,5.0,0.0,0.0,6.0,1.0,phase_2,stop,300.0,200.0,4.0,,,,,,,,,magenta,I
0.0,4.0,4.0,0.0,5.0,5.0,412.7708769997298,6.0,1.0,phase_2,go,350.0,200.0,1.0,,,,,,,,,cyan,diamond
0.0,4.0,4.0,0.0,6.0,6.0,563.4162159999505,6.0,1.0,phase_2,go,350.0,200.0,1.0,,,,,,,,,cyan,diamond
0.0,2.0,1.0,0.0,6.0,6.0,622.3163980002937,6.0,1.0,phase_2,go,350.0,200.0,1.0,,,,,,,,,gray,flipped triangle
0.0,7.0,2.0,1.0,6.0,0.0,0.0,6.0,1.0,phase_2,stop,350.0,200.0,4.0,,,,,,,,,orange,cross
0.0,8.0,4.0,1.0,5.0,0.0,0.0,6.0,1.0,phase_2,stop,350.0,250.0,4.0,,,,,,,,,magenta,I
0.0,3.0,2.0,0.0,5.0,5.0,423.3197059998019,6.0,1.0,phase_2,go,400.0,250.0,1.0,,,,,,,,,yellow,circle
0.0,2.0,1.0,0.0,5.0,5.0,498.1200189999981,6.0,1.0,phase_2,go,400.0,250.0,1.0,,,,,,,,,gray,flipped triangle
0.0,8.0,4.0,1.0,5.0,5.0,328.2807030000185,6.0,1.0,phase_2,stop,400.0,250.0,3.0,,,,,,,,,magenta,I
0.0,1.0,0.5,0.0,5.0,5.0,572.2189379998781,6.0,1.0,phase_2,go,350.0,250.0,1.0,,,,,,,,,green,hexagon
0.0,3.0,2.0,0.0,5.0,5.0,478.916609999942,6.0,1.0,phase_2,go,350.0,250.0,1.0,,,,,,,,,yellow,circle
0.0,6.0,1.0,1.0,5.0,5.0,493.9812469997378,6.0,1.0,phase_2,go,350.0,250.0,1.0,,,,,,,,,blue,square
0.0,4.0,4.0,0.0,6.0,6.0,536.8765999996867,6.0,1.0,phase_2,go,350.0,250.0,1.0,,,,,,,,,cyan,diamond
0.0,6.0,1.0,1.0,6.0,0.0,0.0,6.0,1.0,phase_2,stop,350.0,250.0,4.0,,,,,,,,,blue,square
0.0,8.0,4.0,1.0,5.0,5.0,435.1342719996864,7.0,1.0,phase_2,go,350.0,300.0,1.0,,,,,,,,,magenta,I
0.0,7.0,2.0,1.0,6.0,0.0,0.0,7.0,1.0,phase_2,stop,350.0,300.0,4.0,,,,,,,,,orange,cross
0.0,8.0,4.0,1.0,6.0,6.0,497.9926440000781,7.0,1.0,phase_2,stop,350.0,350.0,3.0,,,,,,,,,magenta,I
0.0,3.0,2.0,0.0,5.0,5.0,585.678555999948,7.0,1.0,phase_2,go,350.0,300.0,1.0,,,,,,,,,yellow,circle
0.0,2.0,1.0,0.0,5.0,5.0,624.2944759997044,7.0,1.0,phase_2,go,350.0,300.0,1.0,,,,,,,,,gray,flipped triangle
0.0,7.0,2.0,1.0,6.0,0.0,0.0,7.0,1.0,phase_2,stop,350.0,300.0,4.0,,,,,,,,,orange,cross
0.0,4.0,4.0,0.0,5.0,5.0,362.9734790001748,7.0,1.0,phase_2,go,350.0,350.0,1.0,,,,,,,,,cyan,diamond
0.0,4.0,4.0,0.0,6.0,6.0,562.1787579998454,7.0,1.0,phase_2,go,350.0,350.0,1.0,,,,,,,,,cyan,diamond
0.0,5.0,0.5,1.0,6.0,0.0,0.0,7.0,1.0,phase_2,stop,350.0,350.0,4.0,,,,,,,,,white,triangle
0.0,6.0,1.0,1.0,5.0,5.0,314.0715590002401,7.0,1.0,phase_2,go,350.0,400.0,1.0,,,,,,,,,blue,square
0.0,5.0,0.5,1.0,5.0,0.0,0.0,7.0,1.0,phase_2,stop,350.0,400.0,4.0,,,,,,,,,white,triangle
0.0,8.0,4.0,1.0,5.0,0.0,0.0,7.0,1.0,phase_2,stop,400.0,400.0,4.0,,,,,,,,,magenta,I
0.0,4.0,4.0,0.0,6.0,6.0,564.929012000448,7.0,1.0,phase_2,go,450.0,400.0,1.0,,,,,,,,,cyan,diamond
0.0,4.0,4.0,0.0,5.0,5.0,737.316655000086,7.0,1.0,phase_2,go,450.0,400.0,1.0,,,,,,,,,cyan,diamond
0.0,5.0,0.5,1.0,5.0,0.0,0.0,7.0,1.0,phase_2,stop,450.0,400.0,4.0,,,,,,,,,white,triangle
0.0,4.0,4.0,0.0,5.0,5.0,728.9278189996367,7.0,1.0,phase_2,go,500.0,400.0,1.0,,,,,,,,,cyan,diamond
0.0,3.0,2.0,0.0,5.0,5.0,595.1467119998597,7.0,1.0,phase_2,go,500.0,400.0,1.0,,,,,,,,,yellow,circle
0.0,7.0,2.0,1.0,5.0,0.0,0.0,7.0,1.0,phase_2,stop,500.0,400.0,4.0,,,,,,,,,orange,cross
0.0,1.0,0.5,0.0,5.0,5.0,414.1645070003505,7.0,1.0,phase_2,go,550.0,400.0,1.0,,,,,,,,,green,hexagon
0.0,2.0,1.0,0.0,6.0,6.0,465.0190579995978,7.0,1.0,phase_2,go,550.0,400.0,1.0,,,,,,,,,gray,flipped triangle
0.0,6.0,1.0,1.0,5.0,0.0,0.0,7.0,1.0,phase_2,stop,550.0,400.0,4.0,,,,,,,,,blue,square
0.0,1.0,0.5,0.0,5.0,5.0,567.9731720001655,7.0,1.0,phase_2,go,600.0,400.0,1.0,,,,,,,,,green,hexagon
0.0,2.0,1.0,0.0,6.0,6.0,627.4934220000432,7.0,1.0,phase_2,go,600.0,400.0,1.0,,,,,,,,,gray,flipped triangle
0.0,4.0,4.0,0.0,5.0,5.0,782.7842019996751,7.0,1.0,phase_2,go,600.0,400.0,1.0,,,,,,,,,cyan,diamond
0.0,5.0,0.5,1.0,6.0,6.0,622.0965910001723,7.0,1.0,phase_2,go,600.0,400.0,1.0,,,,,,,,,white,triangle
0.0,1.0,0.5,0.0,6.0,6.0,466.5822090000802,7.0,1.0,phase_2,go,600.0,400.0,1.0,,,,,,,,,green,hexagon
0.0,5.0,0.5,1.0,5.0,5.0,430.3341429999818,7.0,1.0,phase_2,go,600.0,400.0,1.0,,,,,,,,,white,triangle
0.0,6.0,1.0,1.0,5.0,5.0,524.0315760001977,7.0,1.0,phase_2,go,600.0,400.0,1.0,,,,,,,,,blue,square
0.0,8.0,4.0,1.0,5.0,5.0,681.8202750000637,7.0,1.0,phase_2,stop,600.0,400.0,3.0,,,,,,,,,magenta,I
0.0,7.0,2.0,1.0,5.0,5.0,698.9974930002063,7.0,1.0,phase_2,stop,550.0,400.0,3.0,,,,,,,,,orange,cross
0.0,1.0,0.5,0.0,6.0,6.0,424.5399760002328,7.0,1.0,phase_2,go,500.0,400.0,1.0,,,,,,,,,green,hexagon
0.0,2.0,1.0,0.0,6.0,6.0,486.5372220001518,7.0,1.0,phase_2,go,500.0,400.0,1.0,,,,,,,,,gray,flipped triangle
0.0,7.0,2.0,1.0,5.0,5.0,850.5976229998851,7.0,1.0,phase_2,go,500.0,400.0,1.0,,,,,,,,,orange,cross
0.0,8.0,4.0,1.0,6.0,6.0,516.724771999634,7.0,1.0,phase_2,stop,500.0,400.0,3.0,,,,,,,,,magenta,I
0.0,1.0,0.5,0.0,6.0,6.0,596.8552379999892,7.0,1.0,phase_2,go,500.0,350.0,1.0,,,,,,,,,green,hexagon
0.0,6.0,1.0,1.0,5.0,5.0,631.4343530002589,7.0,1.0,phase_2,stop,500.0,350.0,3.0,,,,,,,,,blue,square
0.0,7.0,2.0,1.0,5.0,5.0,366.7038520002279,8.0,1.0,phase_2,stop,450.0,350.0,3.0,,,,,,,,,orange,cross
0.0,5.0,0.5,1.0,6.0,0.0,0.0,8.0,1.0,phase_2,stop,400.0,350.0,4.0,,,,,,,,,white,triangle
0.0,1.0,0.5,0.0,5.0,5.0,444.8016730002564,8.0,1.0,phase_2,go,400.0,400.0,1.0,,,,,,,,,green,hexagon
0.0,4.0,4.0,0.0,5.0,5.0,360.517573999914,8.0,1.0,phase_2,go,400.0,400.0,1.0,,,,,,,,,cyan,diamond
0.0,2.0,1.0,0.0,5.0,5.0,624.839356999928,8.0,1.0,phase_2,go,400.0,400.0,1.0,,,,,,,,,gray,flipped triangle
0.0,5.0,0.5,1.0,6.0,6.0,504.7149110000646,8.0,1.0,phase_2,stop,400.0,400.0,3.0,,,,,,,,,white,triangle
0.0,8.0,4.0,1.0,5.0,5.0,254.25861500025349,8.0,1.0,phase_2,go,400.0,350.0,1.0,,,,,,,,,magenta,I
0.0,2.0,1.0,0.0,5.0,5.0,422.3596539995924,8.0,1.0,phase_2,go,400.0,350.0,1.0,,,,,,,,,gray,flipped triangle
0.0,5.0,0.5,1.0,6.0,0.0,0.0,8.0,1.0,phase_2,stop,400.0,350.0,4.0,,,,,,,,,white,triangle
0.0,4.0,4.0,0.0,5.0,5.0,567.1047020000515,8.0,1.0,phase_2,go,400.0,400.0,1.0,,,,,,,,,cyan,diamond
0.0,4.0,4.0,0.0,6.0,6.0,507.70949600018866,8.0,1.0,phase_2,go,400.0,400.0,1.0,,,,,,,,,cyan,diamond
0.0,3.0,2.0,0.0,5.0,5.0,532.0222290001766,8.0,1.0,phase_2,go,400.0,400.0,1.0,,,,,,,,,yellow,circle
0.0,1.0,0.5,0.0,5.0,5.0,357.5502860003325,8.0,1.0,phase_2,go,400.0,400.0,1.0,,,,,,,,,green,hexagon
0.0,1.0,0.5,0.0,6.0,6.0,457.4513799998385,8.0,1.0,phase_2,go,400.0,400.0,1.0,,,,,,,,,green,hexagon
0.0,5.0,0.5,1.0,5.0,5.0,510.6376749999981,8.0,1.0,phase_2,stop,400.0,400.0,3.0,,,,,,,,,white,triangle
0.0,1.0,0.5,0.0,5.0,5.0,567.3616900003253,8.0,1.0,phase_2,go,350.0,400.0,1.0,,,,,,,,,green,hexagon
0.0,1.0,0.5,0.0,6.0,6.0,284.6811129998059,8.0,1.0,phase_2,go,350.0,400.0,1.0,,,,,,,,,green,hexagon
0.0,3.0,2.0,0.0,6.0,6.0,438.0517310000869,8.0,1.0,phase_2,go,350.0,400.0,1.0,,,,,,,,,yellow,circle
0.0,8.0,4.0,1.0,6.0,6.0,434.4155120002142,8.0,1.0,phase_2,stop,350.0,400.0,3.0,,,,,,,,,magenta,I
0.0,5.0,0.5,1.0,5.0,5.0,582.2115379996831,8.0,1.0,phase_2,go,350.0,350.0,1.0,,,,,,,,,white,triangle
0.0,1.0,0.5,0.0,6.0,6.0,622.4026869999761,8.0,1.0,phase_2,go,350.0,350.0,1.0,,,,,,,,,green,hexagon
0.0,8.0,4.0,1.0,6.0,0.0,0.0,8.0,1.0,phase_2,stop,350.0,350.0,4.0,,,,,,,,,magenta,I
0.0,3.0,2.0,0.0,5.0,5.0,533.7024010000277,8.0,1.0,phase_2,go,350.0,400.0,1.0,,,,,,,,,yellow,circle
0.0,7.0,2.0,1.0,6.0,0.0,0.0,8.0,1.0,phase_2,stop,350.0,400.0,4.0,,,,,,,,,orange,cross
0.0,3.0,2.0,0.0,6.0,6.0,656.1226699996041,8.0,1.0,phase_2,go,350.0,450.0,1.0,,,,,,,,,yellow,circle
0.0,5.0,0.5,1.0,6.0,0.0,0.0,8.0,1.0,phase_2,stop,350.0,450.0,4.0,,,,,,,,,white,triangle
0.0,7.0,2.0,1.0,6.0,6.0,625.1729579998937,8.0,1.0,phase_2,stop,350.0,500.0,3.0,,,,,,,,,orange,cross
0.0,1.0,0.5,0.0,6.0,6.0,784.0030379998097,8.0,1.0,phase_2,go,350.0,450.0,1.0,,,,,,,,,green,hexagon
0.0,7.0,2.0,1.0,5.0,0.0,0.0,8.0,1.0,phase_2,stop,350.0,450.0,4.0,,,,,,,,,orange,cross
0.0,8.0,4.0,1.0,5.0,0.0,0.0,8.0,1.0,phase_2,stop,400.0,450.0,4.0,,,,,,,,,magenta,I
0.0,1.0,0.5,0.0,5.0,5.0,443.0657500001871,8.0,1.0,phase_2,go,450.0,450.0,1.0,,,,,,,,,green,hexagon
0.0,5.0,0.5,1.0,6.0,6.0,578.5384580003665,8.0,1.0,phase_2,stop,450.0,450.0,3.0,,,,,,,,,white,triangle
0.0,5.0,0.5,1.0,6.0,0.0,0.0,8.0,1.0,phase_2,stop,450.0,400.0,4.0,,,,,,,,,white,triangle
0.0,4.0,4.0,0.0,6.0,6.0,541.2979699999596,8.0,1.0,phase_2,go,450.0,450.0,1.0,,,,,,,,,cyan,diamond
0.0,2.0,1.0,0.0,5.0,5.0,612.4880689999372,8.0,1.0,phase_2,go,450.0,450.0,1.0,,,,,,,,,gray,flipped triangle
0.0,2.0,1.0,0.0,5.0,5.0,689.8511889999099,8.0,1.0,phase_2,go,450.0,450.0,1.0,,,,,,,,,gray,flipped triangle
0.0,2.0,1.0,0.0,7.0,2.0,2279.381907999777,1.0,1.0,phase_3,,,,,49.0,1.0,98.0,49.0,196.0,294.0,147.0,245.0,gray,flipped triangle
0.0,2.0,1.0,0.0,7.0,5.0,2025.2613239999846,1.0,1.0,phase_3,,,,,102.0,3.0,136.0,170.0,34.0,68.0,102.0,204.0,gray,flipped triangle
0.0,2.0,1.0,0.0,7.0,2.0,3091.21286699974,1.0,1.0,phase_3,,,,,136.0,4.0,68.0,136.0,204.0,102.0,170.0,34.0,gray,flipped triangle
0.0,8.0,4.0,1.0,7.0,6.0,3313.251444999878,1.0,1.0,phase_3,,,,,132.0,3.0,88.0,176.0,264.0,220.0,44.0,132.0,magenta,I
0.0,4.0,4.0,0.0,7.0,2.0,2516.352072999325,1.0,1.0,phase_3,,,,,176.0,4.0,88.0,176.0,132.0,220.0,264.0,44.0,cyan,diamond
0.0,4.0,4.0,0.0,7.0,6.0,1817.2968959997888,1.0,1.0,phase_3,,,,,102.0,3.0,34.0,204.0,170.0,68.0,136.0,102.0,cyan,diamond
0.0,2.0,1.0,0.0,7.0,2.0,1946.9829409999877,1.0,1.0,phase_3,,,,,245.0,5.0,98.0,245.0,147.0,196.0,49.0,294.0,gray,flipped triangle
0.0,7.0,2.0,1.0,7.0,5.0,1601.927564000107,1.0,1.0,phase_3,,,,,162.0,3.0,324.0,270.0,54.0,216.0,162.0,108.0,orange,cross
0.0,7.0,2.0,1.0,7.0,5.0,1250.6743799995093,1.0,1.0,phase_3,,,,,170.0,5.0,68.0,204.0,102.0,34.0,170.0,136.0,orange,cross
0.0,5.0,0.5,1.0,7.0,2.0,1531.0794260003604,1.0,1.0,phase_3,,,,,132.0,3.0,88.0,132.0,264.0,176.0,220.0,44.0,white,triangle
0.0,6.0,1.0,1.0,7.0,4.0,1901.6394029995356,1.0,1.0,phase_3,,,,,108.0,2.0,216.0,162.0,324.0,108.0,270.0,54.0,blue,square
0.0,4.0,4.0,0.0,7.0,6.0,1252.7235270008532,1.0,1.0,phase_3,,,,,78.0,2.0,156.0,195.0,234.0,117.0,39.0,78.0,cyan,diamond
0.0,1.0,0.5,0.0,7.0,1.0,1612.512935000268,1.0,1.0,phase_3,,,,,234.0,6.0,234.0,117.0,195.0,39.0,78.0,156.0,green,hexagon
0.0,3.0,2.0,0.0,7.0,3.0,1354.5563480001874,1.0,1.0,phase_3,,,,,39.0,1.0,117.0,78.0,39.0,195.0,156.0,234.0,yellow,circle
0.0,2.0,1.0,0.0,7.0,4.0,1894.579028000408,1.0,1.0,phase_3,,,,,220.0,5.0,44.0,176.0,132.0,220.0,88.0,264.0,gray,flipped triangle
0.0,8.0,4.0,1.0,7.0,5.0,1406.4505440001085,1.0,1.0,phase_3,,,,,88.0,2.0,220.0,176.0,44.0,132.0,88.0,264.0,magenta,I
0.0,8.0,4.0,1.0,7.0,2.0,3053.145422999478,1.0,1.0,phase_3,,,,,294.0,6.0,245.0,294.0,196.0,98.0,147.0,49.0,magenta,I
0.0,6.0,1.0,1.0,7.0,5.0,3754.5987599996806,1.0,1.0,phase_3,,,,,49.0,1.0,245.0,98.0,196.0,294.0,49.0,147.0,blue,square
0.0,6.0,1.0,1.0,7.0,4.0,3201.287606999358,1.0,1.0,phase_3,,,,,204.0,6.0,136.0,68.0,34.0,204.0,170.0,102.0,blue,square
0.0,8.0,4.0,1.0,7.0,2.0,2789.8195280004074,1.0,1.0,phase_3,,,,,195.0,5.0,117.0,195.0,78.0,156.0,39.0,234.0,magenta,I
0.0,5.0,0.5,1.0,7.0,4.0,1574.870526999803,2.0,1.0,phase_3,,,,,34.0,1.0,102.0,204.0,170.0,34.0,136.0,68.0,white,triangle
0.0,6.0,1.0,1.0,7.0,5.0,2206.8179399993824,2.0,1.0,phase_3,,,,,294.0,6.0,147.0,49.0,245.0,196.0,294.0,98.0,blue,square
0.0,1.0,0.5,0.0,7.0,5.0,1571.189539000443,2.0,1.0,phase_3,,,,,34.0,1.0,204.0,170.0,102.0,136.0,34.0,68.0,green,hexagon
0.0,6.0,1.0,1.0,7.0,3.0,1944.2190809995736,2.0,1.0,phase_3,,,,,220.0,5.0,132.0,88.0,220.0,44.0,176.0,264.0,blue,square
0.0,5.0,0.5,1.0,7.0,3.0,1520.5573410003126,2.0,1.0,phase_3,,,,,54.0,1.0,216.0,324.0,54.0,270.0,162.0,108.0,white,triangle
0.0,3.0,2.0,0.0,7.0,6.0,1744.8830960001942,2.0,1.0,phase_3,,,,,294.0,6.0,49.0,147.0,196.0,245.0,98.0,294.0,yellow,circle
0.0,5.0,0.5,1.0,7.0,1.0,3361.57789400022,2.0,1.0,phase_3,,,,,195.0,5.0,195.0,234.0,78.0,39.0,156.0,117.0,white,triangle
0.0,1.0,0.5,0.0,7.0,4.0,1171.2255000002187,2.0,1.0,phase_3,,,,,98.0,2.0,147.0,245.0,294.0,98.0,49.0,196.0,green,hexagon
0.0,7.0,2.0,1.0,7.0,2.0,2428.3903810000998,2.0,1.0,phase_3,,,,,54.0,1.0,270.0,54.0,324.0,216.0,162.0,108.0,orange,cross
0.0,3.0,2.0,0.0,7.0,3.0,1477.4488050006769,2.0,1.0,phase_3,,,,,204.0,6.0,68.0,170.0,204.0,102.0,34.0,136.0,yellow,circle
0.0,5.0,0.5,1.0,7.0,6.0,1327.487994999501,2.0,1.0,phase_3,,,,,294.0,6.0,196.0,245.0,147.0,49.0,98.0,294.0,white,triangle
0.0,7.0,2.0,1.0,7.0,3.0,3039.313678000326,2.0,1.0,phase_3,,,,,156.0,4.0,39.0,78.0,156.0,195.0,117.0,234.0,orange,cross
0.0,5.0,0.5,1.0,7.0,3.0,3894.797006000772,2.0,1.0,phase_3,,,,,170.0,5.0,34.0,102.0,170.0,204.0,136.0,68.0,white,triangle
0.0,1.0,0.5,0.0,7.0,6.0,1140.9819229993443,2.0,1.0,phase_3,,,,,220.0,5.0,264.0,176.0,44.0,88.0,132.0,220.0,green,hexagon
0.0,3.0,2.0,0.0,7.0,4.0,3861.210605999986,2.0,1.0,phase_3,,,,,147.0,3.0,196.0,49.0,294.0,147.0,245.0,98.0,yellow,circle
0.0,8.0,4.0,1.0,7.0,1.0,2246.742078999887,2.0,1.0,phase_3,,,,,54.0,1.0,54.0,324.0,162.0,216.0,270.0,108.0,magenta,I
0.0,6.0,1.0,1.0,7.0,2.0,2742.3967029999403,2.0,1.0,phase_3,,,,,132.0,3.0,88.0,132.0,44.0,220.0,176.0,264.0,blue,square
0.0,2.0,1.0,0.0,7.0,5.0,1517.531677000079,2.0,1.0,phase_3,,,,,132.0,3.0,176.0,220.0,88.0,44.0,132.0,264.0,gray,flipped triangle
0.0,6.0,1.0,1.0,7.0,3.0,2180.5425350003134,2.0,1.0,phase_3,,,,,39.0,1.0,117.0,78.0,39.0,156.0,195.0,234.0,blue,square
0.0,5.0,0.5,1.0,7.0,6.0,1461.9615940000583,2.0,1.0,phase_3,,,,,245.0,5.0,49.0,294.0,147.0,98.0,196.0,245.0,white,triangle
0.0,7.0,2.0,1.0,7.0,1.0,1493.5178630003063,3.0,1.0,phase_3,,,,,102.0,3.0,102.0,68.0,204.0,170.0,34.0,136.0,orange,cross
0.0,3.0,2.0,0.0,7.0,2.0,2377.472268999554,3.0,1.0,phase_3,,,,,270.0,5.0,108.0,270.0,324.0,162.0,216.0,54.0,yellow,circle
0.0,3.0,2.0,0.0,7.0,5.0,876.4821490003669,3.0,1.0,phase_3,,,,,44.0,1.0,220.0,264.0,132.0,88.0,44.0,176.0,yellow,circle
0.0,4.0,4.0,0.0,7.0,4.0,1851.8340979999264,3.0,1.0,phase_3,,,,,34.0,1.0,136.0,170.0,68.0,34.0,102.0,204.0,cyan,diamond
0.0,6.0,1.0,1.0,7.0,2.0,3180.5937290000657,3.0,1.0,phase_3,,,,,162.0,3.0,54.0,162.0,108.0,270.0,324.0,216.0,blue,square
0.0,1.0,0.5,0.0,7.0,6.0,1345.8843019998312,3.0,1.0,phase_3,,,,,156.0,4.0,39.0,78.0,117.0,195.0,234.0,156.0,green,hexagon
0.0,4.0,4.0,0.0,7.0,1.0,963.0159930002264,3.0,1.0,phase_3,,,,,294.0,6.0,294.0,98.0,196.0,49.0,147.0,245.0,cyan,diamond
0.0,8.0,4.0,1.0,7.0,6.0,1444.8712250004974,3.0,1.0,phase_3,,,,,34.0,1.0,204.0,102.0,170.0,136.0,68.0,34.0,magenta,I
0.0,4.0,4.0,0.0,7.0,4.0,1607.8327760005775,3.0,1.0,phase_3,,,,,216.0,4.0,162.0,270.0,54.0,216.0,108.0,324.0,cyan,diamond
0.0,1.0,0.5,0.0,7.0,2.0,871.9104010006049,3.0,1.0,phase_3,,,,,204.0,6.0,34.0,204.0,170.0,102.0,136.0,68.0,green,hexagon
0.0,8.0,4.0,1.0,7.0,6.0,1725.6071909996535,3.0,1.0,phase_3,,,,,34.0,1.0,204.0,136.0,102.0,170.0,68.0,34.0,magenta,I
0.0,7.0,2.0,1.0,7.0,2.0,981.273962999694,3.0,1.0,phase_3,,,,,147.0,3.0,49.0,147.0,98.0,245.0,196.0,294.0,orange,cross
0.0,4.0,4.0,0.0,7.0,4.0,734.1861229997448,3.0,1.0,phase_3,,,,,270.0,5.0,324.0,216.0,162.0,270.0,54.0,108.0,cyan,diamond
0.0,1.0,0.5,0.0,7.0,1.0,1085.5752429997665,3.0,1.0,phase_3,,,,,196.0,4.0,196.0,147.0,49.0,294.0,245.0,98.0,green,hexagon
0.0,7.0,2.0,1.0,7.0,2.0,2186.321276999479,3.0,1.0,phase_3,,,,,44.0,1.0,220.0,44.0,176.0,264.0,88.0,132.0,orange,cross
0.0,3.0,2.0,0.0,7.0,6.0,1200.0297029999274,3.0,1.0,phase_3,,,,,54.0,1.0,324.0,162.0,108.0,216.0,270.0,54.0,yellow,circle
0.0,3.0,2.0,0.0,7.0,6.0,1813.169258999551,3.0,1.0,phase_3,,,,,204.0,6.0,102.0,68.0,34.0,170.0,136.0,204.0,yellow,circle
0.0,8.0,4.0,1.0,7.0,2.0,1793.5692419996483,3.0,1.0,phase_3,,,,,78.0,2.0,195.0,78.0,117.0,234.0,156.0,39.0,magenta,I
0.0,8.0,4.0,1.0,7.0,4.0,2157.037478000348,3.0,1.0,phase_3,,,,,98.0,2.0,49.0,245.0,147.0,98.0,294.0,196.0,magenta,I
0.0,4.0,4.0,0.0,7.0,6.0,1431.8120420002742,3.0,1.0,phase_3,,,,,245.0,5.0,98.0,147.0,196.0,294.0,49.0,245.0,cyan,diamond
0.0,6.0,1.0,1.0,7.0,1.0,2885.106894999808,4.0,1.0,phase_3,,,,,78.0,2.0,78.0,39.0,117.0,234.0,195.0,156.0,blue,square
0.0,4.0,4.0,0.0,7.0,3.0,2391.58859500003,4.0,1.0,phase_3,,,,,176.0,4.0,132.0,264.0,176.0,44.0,220.0,88.0,cyan,diamond
0.0,6.0,1.0,1.0,7.0,3.0,3149.1287339995324,4.0,1.0,phase_3,,,,,170.0,5.0,34.0,68.0,170.0,204.0,136.0,102.0,blue,square
0.0,5.0,0.5,1.0,7.0,4.0,2873.5528229999545,4.0,1.0,phase_3,,,,,216.0,4.0,324.0,162.0,108.0,216.0,270.0,54.0,white,triangle
0.0,8.0,4.0,1.0,7.0,6.0,1039.1203839999434,4.0,1.0,phase_3,,,,,54.0,1.0,108.0,162.0,270.0,324.0,216.0,54.0,magenta,I
0.0,4.0,4.0,0.0,7.0,2.0,1004.3027189994973,4.0,1.0,phase_3,,,,,117.0,3.0,234.0,117.0,78.0,195.0,39.0,156.0,cyan,diamond
0.0,1.0,0.5,0.0,7.0,4.0,2135.3422760003014,4.0,1.0,phase_3,,,,,216.0,4.0,108.0,162.0,324.0,216.0,270.0,54.0,green,hexagon
0.0,7.0,2.0,1.0,7.0,1.0,1159.2730820002544,4.0,1.0,phase_3,,,,,264.0,6.0,264.0,44.0,176.0,88.0,220.0,132.0,orange,cross
0.0,3.0,2.0,0.0,7.0,2.0,3951.7408980000255,4.0,1.0,phase_3,,,,,132.0,3.0,220.0,132.0,44.0,88.0,176.0,264.0,yellow,circle
0.0,7.0,2.0,1.0,7.0,5.0,903.032180000082,4.0,1.0,phase_3,,,,,195.0,5.0,78.0,234.0,39.0,117.0,195.0,156.0,orange,cross
0.0,2.0,1.0,0.0,7.0,2.0,1922.9082980000385,4.0,1.0,phase_3,,,,,39.0,1.0,156.0,39.0,117.0,195.0,78.0,234.0,gray,flipped triangle
0.0,2.0,1.0,0.0,7.0,5.0,1054.4564479996552,4.0,1.0,phase_3,,,,,270.0,5.0,324.0,108.0,216.0,54.0,270.0,162.0,gray,flipped triangle
0.0,1.0,0.5,0.0,7.0,4.0,1911.039159000211,4.0,1.0,phase_3,,,,,216.0,4.0,108.0,162.0,270.0,216.0,54.0,324.0,green,hexagon
0.0,5.0,0.5,1.0,7.0,6.0,1402.273097000034,4.0,1.0,phase_3,,,,,78.0,2.0,117.0,234.0,156.0,39.0,195.0,78.0,white,triangle
0.0,2.0,1.0,0.0,7.0,1.0,1443.157016999976,4.0,1.0,phase_3,,,,,54.0,1.0,54.0,324.0,216.0,108.0,270.0,162.0,gray,flipped triangle
0.0,5.0,0.5,1.0,7.0,4.0,2184.5186749997083,4.0,1.0,phase_3,,,,,220.0,5.0,88.0,264.0,132.0,220.0,44.0,176.0,white,triangle
0.0,1.0,0.5,0.0,7.0,2.0,1658.6034009997093,4.0,1.0,phase_3,,,,,44.0,1.0,264.0,44.0,88.0,132.0,220.0,176.0,green,hexagon
0.0,2.0,1.0,0.0,7.0,5.0,1801.543307999964,4.0,1.0,phase_3,,,,,234.0,6.0,39.0,156.0,195.0,78.0,234.0,117.0,gray,flipped triangle
0.0,3.0,2.0,0.0,7.0,4.0,2015.5287890002,4.0,1.0,phase_3,,,,,39.0,1.0,117.0,156.0,195.0,39.0,78.0,234.0,yellow,circle
0.0,7.0,2.0,1.0,7.0,5.0,1885.0276410003064,4.0,1.0,phase_3,,,,,294.0,6.0,147.0,98.0,49.0,196.0,294.0,245.0,orange,cross
