raw_reward_magnitude,stim_reward,stepwise_reward_magnitude,paired_with_stopping,stim_location,response,reaction_time,block,num_trial_presentations,which_phase,stop_signal_trial_type,left_SSD,right_SSD,accuracy,chosen_bidding_amount,chosen_bidding_level,possible_bid_1,possible_bid_2,possible_bid_3,possible_bid_4,possible_bid_5,possible_bid_6,color_text,shape_text
424.0,4.0,4.0,0.0,4.0,4.0,413.2392100000288,1.0,1.0,phase_1,,,,,,,,,,,,,white,I
0.0,2.0,0.0,0.0,3.0,3.0,345.5662430001212,1.0,1.0,phase_1,,,,,,,,,,,,,gray,diamond
69.0,1.0,1.0,0.0,3.0,3.0,349.2806819999714,1.0,1.0,phase_1,,,,,,,,,,,,,blue,circle
184.0,3.0,3.0,0.0,2.0,2.0,317.0767880001222,1.0,1.0,phase_1,,,,,,,,,,,,,orange,triangle
48.0,1.0,1.0,0.0,2.0,2.0,357.7728000000206,1.0,1.0,phase_1,,,,,,,,,,,,,blue,circle
38.0,1.0,1.0,0.0,1.0,1.0,306.6660720000982,1.0,1.0,phase_1,,,,,,,,,,,,,blue,circle
214.0,3.0,3.0,0.0,4.0,4.0,355.5469830002948,1.0,1.0,phase_1,,,,,,,,,,,,,orange,triangle
69.0,5.0,1.0,1.0,2.0,2.0,551.7481439997027,1.0,2.0,phase_1,,,,,,,,,,,,,cyan,hexagon
69.0,5.0,1.0,1.0,4.0,4.0,749.5171669997944,1.0,1.0,phase_1,,,,,,,,,,,,,cyan,hexagon
62.0,5.0,1.0,1.0,3.0,3.0,396.4004079998631,1.0,1.0,phase_1,,,,,,,,,,,,,cyan,hexagon
186.0,7.0,3.0,1.0,2.0,2.0,403.8326039999447,1.0,1.0,phase_1,,,,,,,,,,,,,magenta,flipped triangle
188.0,3.0,3.0,0.0,2.0,2.0,360.935407999932,1.0,1.0,phase_1,,,,,,,,,,,,,orange,triangle
0.0,2.0,0.0,0.0,2.0,2.0,385.7182370002192,1.0,1.0,phase_1,,,,,,,,,,,,,gray,diamond
108.0,2.0,2.0,0.0,2.0,2.0,384.4330999995691,1.0,1.0,phase_1,,,,,,,,,,,,,gray,diamond
0.0,2.0,0.0,0.0,2.0,2.0,314.6127649997652,1.0,1.0,phase_1,,,,,,,,,,,,,gray,diamond
103.0,2.0,2.0,0.0,3.0,3.0,494.6422029997848,1.0,1.0,phase_1,,,,,,,,,,,,,gray,diamond
0.0,3.0,0.0,0.0,1.0,1.0,495.432479000101,1.0,1.0,phase_1,,,,,,,,,,,,,orange,triangle
421.0,8.0,4.0,1.0,1.0,1.0,441.2730789999841,1.0,1.0,phase_1,,,,,,,,,,,,,yellow,square
39.0,5.0,1.0,1.0,2.0,2.0,311.5222900000844,1.0,1.0,phase_1,,,,,,,,,,,,,cyan,hexagon
68.0,5.0,1.0,1.0,1.0,1.0,400.3073620001487,1.0,1.0,phase_1,,,,,,,,,,,,,cyan,hexagon
415.0,4.0,4.0,0.0,2.0,2.0,361.3740779996988,1.0,1.0,phase_1,,,,,,,,,,,,,white,I
415.0,4.0,4.0,0.0,1.0,1.0,407.0657520001077,1.0,1.0,phase_1,,,,,,,,,,,,,white,I
0.0,8.0,0.0,1.0,1.0,1.0,364.2356089999339,1.0,1.0,phase_1,,,,,,,,,,,,,yellow,square
114.0,2.0,2.0,0.0,2.0,2.0,352.028288999918,1.0,1.0,phase_1,,,,,,,,,,,,,gray,diamond
380.0,4.0,4.0,0.0,3.0,3.0,364.9131219999617,1.0,1.0,phase_1,,,,,,,,,,,,,white,I
415.0,4.0,4.0,0.0,1.0,1.0,353.8405599997531,1.0,1.0,phase_1,,,,,,,,,,,,,white,I
386.0,8.0,4.0,1.0,1.0,1.0,320.5000970001492,1.0,1.0,phase_1,,,,,,,,,,,,,yellow,square
424.0,8.0,4.0,1.0,3.0,3.0,355.6506780000745,1.0,1.0,phase_1,,,,,,,,,,,,,yellow,square
35.0,5.0,1.0,1.0,1.0,1.0,330.4646320002575,1.0,1.0,phase_1,,,,,,,,,,,,,cyan,hexagon
421.0,4.0,4.0,0.0,2.0,2.0,309.2552990001422,1.0,1.0,phase_1,,,,,,,,,,,,,white,I
86.0,6.0,2.0,1.0,1.0,1.0,510.3643639999973,1.0,1.0,phase_1,,,,,,,,,,,,,green,cross
38.0,5.0,1.0,1.0,2.0,2.0,420.6870719999642,1.0,1.0,phase_1,,,,,,,,,,,,,cyan,hexagon
404.0,4.0,4.0,0.0,3.0,3.0,287.4730319999798,1.0,1.0,phase_1,,,,,,,,,,,,,white,I
188.0,7.0,3.0,1.0,2.0,2.0,302.8910360003465,1.0,1.0,phase_1,,,,,,,,,,,,,magenta,flipped triangle
0.0,8.0,0.0,1.0,3.0,3.0,397.2784739999042,1.0,1.0,phase_1,,,,,,,,,,,,,yellow,square
378.0,8.0,4.0,1.0,1.0,1.0,304.2963040002178,1.0,1.0,phase_1,,,,,,,,,,,,,yellow,square
35.0,5.0,1.0,1.0,1.0,1.0,719.9438580000788,1.0,1.0,phase_1,,,,,,,,,,,,,cyan,hexagon
387.0,8.0,4.0,1.0,1.0,1.0,520.4465859997072,1.0,1.0,phase_1,,,,,,,,,,,,,yellow,square
60.0,5.0,1.0,1.0,2.0,2.0,404.354235000028,1.0,1.0,phase_1,,,,,,,,,,,,,cyan,hexagon
195.0,7.0,3.0,1.0,2.0,2.0,397.8223710000748,1.0,1.0,phase_1,,,,,,,,,,,,,magenta,flipped triangle
183.0,7.0,3.0,1.0,3.0,3.0,294.3463959995824,1.0,1.0,phase_1,,,,,,,,,,,,,magenta,flipped triangle
197.0,3.0,3.0,0.0,2.0,2.0,285.5371829996329,1.0,1.0,phase_1,,,,,,,,,,,,,orange,triangle
375.0,8.0,4.0,1.0,1.0,1.0,347.9795360003663,1.0,1.0,phase_1,,,,,,,,,,,,,yellow,square
41.0,1.0,1.0,0.0,1.0,1.0,361.2591840001187,1.0,1.0,phase_1,,,,,,,,,,,,,blue,circle
184.0,7.0,3.0,1.0,1.0,1.0,361.7726559996299,1.0,1.0,phase_1,,,,,,,,,,,,,magenta,flipped triangle
0.0,5.0,0.0,1.0,2.0,2.0,335.2037600002404,1.0,1.0,phase_1,,,,,,,,,,,,,cyan,hexagon
101.0,6.0,2.0,1.0,4.0,4.0,347.1749700001965,1.0,2.0,phase_1,,,,,,,,,,,,,green,cross
399.0,8.0,4.0,1.0,4.0,4.0,471.2363030002962,1.0,1.0,phase_1,,,,,,,,,,,,,yellow,square
190.0,7.0,3.0,1.0,2.0,2.0,411.4447259998997,1.0,1.0,phase_1,,,,,,,,,,,,,magenta,flipped triangle
205.0,7.0,3.0,1.0,1.0,1.0,477.8645559999859,1.0,1.0,phase_1,,,,,,,,,,,,,magenta,flipped triangle
98.0,6.0,2.0,1.0,4.0,4.0,436.4088279999123,1.0,1.0,phase_1,,,,,,,,,,,,,green,cross
53.0,1.0,1.0,0.0,3.0,3.0,539.2649959999289,1.0,1.0,phase_1,,,,,,,,,,,,,blue,circle
47.0,1.0,1.0,0.0,3.0,3.0,481.5993919996799,1.0,1.0,phase_1,,,,,,,,,,,,,blue,circle
396.0,4.0,4.0,0.0,4.0,4.0,476.8246049998197,1.0,1.0,phase_1,,,,,,,,,,,,,white,I
44.0,1.0,1.0,0.0,3.0,3.0,448.7868960000014,1.0,1.0,phase_1,,,,,,,,,,,,,blue,circle
222.0,7.0,3.0,1.0,1.0,1.0,516.0081630001514,1.0,1.0,phase_1,,,,,,,,,,,,,magenta,flipped triangle
186.0,3.0,3.0,0.0,3.0,3.0,344.8115360001793,1.0,1.0,phase_1,,,,,,,,,,,,,orange,triangle
69.0,1.0,1.0,0.0,2.0,2.0,392.7007540000886,1.0,1.0,phase_1,,,,,,,,,,,,,blue,circle
197.0,7.0,3.0,1.0,4.0,4.0,271.5164960000038,1.0,1.0,phase_1,,,,,,,,,,,,,magenta,flipped triangle
0.0,4.0,0.0,0.0,4.0,4.0,398.0228929999612,1.0,1.0,phase_1,,,,,,,,,,,,,white,I
51.0,1.0,1.0,0.0,1.0,1.0,562.8915940001207,1.0,1.0,phase_1,,,,,,,,,,,,,blue,circle
60.0,1.0,1.0,0.0,4.0,4.0,516.6467619997093,1.0,1.0,phase_1,,,,,,,,,,,,,blue,circle
222.0,3.0,3.0,0.0,1.0,1.0,766.0983320001833,1.0,1.0,phase_1,,,,,,,,,,,,,orange,triangle
194.0,7.0,3.0,1.0,1.0,1.0,597.1116939999774,1.0,1.0,phase_1,,,,,,,,,,,,,magenta,flipped triangle
62.0,1.0,1.0,0.0,3.0,3.0,556.5087189997939,1.0,1.0,phase_1,,,,,,,,,,,,,blue,circle
222.0,3.0,3.0,0.0,3.0,3.0,342.9361709995646,1.0,1.0,phase_1,,,,,,,,,,,,,orange,triangle
83.0,2.0,2.0,0.0,2.0,2.0,336.7148659999657,1.0,1.0,phase_1,,,,,,,,,,,,,gray,diamond
94.0,6.0,2.0,1.0,4.0,4.0,463.428383000064,1.0,1.0,phase_1,,,,,,,,,,,,,green,cross
0.0,4.0,0.0,0.0,4.0,4.0,558.2624960002249,1.0,1.0,phase_1,,,,,,,,,,,,,white,I
222.0,7.0,3.0,1.0,3.0,3.0,364.8467429998163,1.0,1.0,phase_1,,,,,,,,,,,,,magenta,flipped triangle
206.0,3.0,3.0,0.0,1.0,1.0,393.1691960001444,1.0,1.0,phase_1,,,,,,,,,,,,,orange,triangle
412.0,4.0,4.0,0.0,4.0,4.0,410.4513070001303,1.0,1.0,phase_1,,,,,,,,,,,,,white,I
122.0,6.0,2.0,1.0,2.0,2.0,419.8706950000996,1.0,2.0,phase_1,,,,,,,,,,,,,green,cross
95.0,6.0,2.0,1.0,3.0,3.0,459.7480639999958,1.0,1.0,phase_1,,,,,,,,,,,,,green,cross
32.0,1.0,1.0,0.0,1.0,1.0,417.9329759999746,1.0,1.0,phase_1,,,,,,,,,,,,,blue,circle
106.0,6.0,2.0,1.0,1.0,1.0,484.0742589999536,1.0,1.0,phase_1,,,,,,,,,,,,,green,cross
219.0,3.0,3.0,0.0,3.0,3.0,548.1420349997279,1.0,1.0,phase_1,,,,,,,,,,,,,orange,triangle
381.0,8.0,4.0,1.0,3.0,3.0,378.217776999918,1.0,1.0,phase_1,,,,,,,,,,,,,yellow,square
390.0,8.0,4.0,1.0,4.0,4.0,499.9958799999149,1.0,1.0,phase_1,,,,,,,,,,,,,yellow,square
70.0,5.0,1.0,1.0,4.0,4.0,609.2836779998834,1.0,1.0,phase_1,,,,,,,,,,,,,cyan,hexagon
399.0,4.0,4.0,0.0,4.0,4.0,444.7077529998751,1.0,1.0,phase_1,,,,,,,,,,,,,white,I
214.0,7.0,3.0,1.0,4.0,4.0,364.014686000246,1.0,1.0,phase_1,,,,,,,,,,,,,magenta,flipped triangle
31.0,1.0,1.0,0.0,4.0,4.0,423.2990270002119,1.0,1.0,phase_1,,,,,,,,,,,,,blue,circle
208.0,7.0,3.0,1.0,2.0,2.0,642.1229569996285,1.0,1.0,phase_1,,,,,,,,,,,,,magenta,flipped triangle
0.0,6.0,0.0,1.0,1.0,1.0,532.8047289999631,1.0,1.0,phase_1,,,,,,,,,,,,,green,cross
0.0,6.0,0.0,1.0,4.0,4.0,568.5218619996704,1.0,1.0,phase_1,,,,,,,,,,,,,green,cross
53.0,5.0,1.0,1.0,1.0,1.0,420.4351889998179,1.0,1.0,phase_1,,,,,,,,,,,,,cyan,hexagon
381.0,4.0,4.0,0.0,1.0,1.0,445.9256109998932,1.0,1.0,phase_1,,,,,,,,,,,,,white,I
0.0,6.0,0.0,1.0,3.0,3.0,390.40553499989977,1.0,1.0,phase_1,,,,,,,,,,,,,green,cross
199.0,7.0,3.0,1.0,2.0,2.0,383.3370309998827,1.0,1.0,phase_1,,,,,,,,,,,,,magenta,flipped triangle
386.0,4.0,4.0,0.0,3.0,3.0,399.7314960001858,1.0,1.0,phase_1,,,,,,,,,,,,,white,I
106.0,2.0,2.0,0.0,1.0,1.0,363.6710900000253,1.0,1.0,phase_1,,,,,,,,,,,,,gray,diamond
415.0,8.0,4.0,1.0,4.0,4.0,595.4075680001552,1.0,1.0,phase_1,,,,,,,,,,,,,yellow,square
178.0,7.0,3.0,1.0,3.0,3.0,542.4312410000312,1.0,1.0,phase_1,,,,,,,,,,,,,magenta,flipped triangle
78.0,6.0,2.0,1.0,2.0,2.0,331.0680090003188,1.0,1.0,phase_1,,,,,,,,,,,,,green,cross
0.0,5.0,0.0,1.0,2.0,2.0,343.066250999982,1.0,1.0,phase_1,,,,,,,,,,,,,cyan,hexagon
103.0,6.0,2.0,1.0,1.0,1.0,422.2589949999928,1.0,1.0,phase_1,,,,,,,,,,,,,green,cross
416.0,8.0,4.0,1.0,4.0,4.0,400.2252989998851,1.0,1.0,phase_1,,,,,,,,,,,,,yellow,square
95.0,2.0,2.0,0.0,3.0,3.0,426.8877089998568,1.0,1.0,phase_1,,,,,,,,,,,,,gray,diamond
81.0,6.0,2.0,1.0,2.0,2.0,307.3361699998713,1.0,1.0,phase_1,,,,,,,,,,,,,green,cross
0.0,7.0,0.0,1.0,3.0,3.0,504.19994599997153,2.0,1.0,phase_1,,,,,,,,,,,,,magenta,flipped triangle
381.0,8.0,4.0,1.0,2.0,2.0,792.7792679997765,2.0,1.0,phase_1,,,,,,,,,,,,,yellow,square
44.0,5.0,1.0,1.0,3.0,3.0,477.1595499996692,2.0,1.0,phase_1,,,,,,,,,,,,,cyan,hexagon
34.0,5.0,1.0,1.0,2.0,2.0,345.9415979996265,2.0,1.0,phase_1,,,,,,,,,,,,,cyan,hexagon
215.0,3.0,3.0,0.0,4.0,4.0,689.1480149997733,2.0,2.0,phase_1,,,,,,,,,,,,,orange,triangle
0.0,7.0,0.0,1.0,1.0,1.0,544.0930019999541,2.0,1.0,phase_1,,,,,,,,,,,,,magenta,flipped triangle
0.0,8.0,0.0,1.0,1.0,1.0,324.1706540002269,2.0,1.0,phase_1,,,,,,,,,,,,,yellow,square
116.0,6.0,2.0,1.0,3.0,3.0,448.5769389998495,2.0,1.0,phase_1,,,,,,,,,,,,,green,cross
103.0,2.0,2.0,0.0,4.0,4.0,405.0997640001696,2.0,1.0,phase_1,,,,,,,,,,,,,gray,diamond
0.0,3.0,0.0,0.0,3.0,3.0,344.2449389999638,2.0,1.0,phase_1,,,,,,,,,,,,,orange,triangle
0.0,7.0,0.0,1.0,1.0,1.0,471.2991639999018,2.0,1.0,phase_1,,,,,,,,,,,,,magenta,flipped triangle
396.0,8.0,4.0,1.0,4.0,4.0,514.857615999972,2.0,1.0,phase_1,,,,,,,,,,,,,yellow,square
218.0,3.0,3.0,0.0,1.0,1.0,451.9518649999554,2.0,1.0,phase_1,,,,,,,,,,,,,orange,triangle
62.0,1.0,1.0,0.0,4.0,4.0,381.4630780002517,2.0,1.0,phase_1,,,,,,,,,,,,,blue,circle
47.0,5.0,1.0,1.0,3.0,3.0,454.4389490001776,2.0,1.0,phase_1,,,,,,,,,,,,,cyan,hexagon
0.0,1.0,0.0,0.0,2.0,2.0,287.6272600001357,2.0,1.0,phase_1,,,,,,,,,,,,,blue,circle
194.0,3.0,3.0,0.0,2.0,2.0,396.7161860000487,2.0,1.0,phase_1,,,,,,,,,,,,,orange,triangle
198.0,7.0,3.0,1.0,4.0,4.0,389.2753459999767,2.0,1.0,phase_1,,,,,,,,,,,,,magenta,flipped triangle
378.0,4.0,4.0,0.0,3.0,3.0,450.7516930002566,2.0,1.0,phase_1,,,,,,,,,,,,,white,I
400.0,4.0,4.0,0.0,2.0,2.0,327.5138439998954,2.0,1.0,phase_1,,,,,,,,,,,,,white,I
0.0,7.0,0.0,1.0,2.0,2.0,506.8016590003026,2.0,1.0,phase_1,,,,,,,,,,,,,magenta,flipped triangle
206.0,7.0,3.0,1.0,3.0,3.0,410.4724069998156,2.0,1.0,phase_1,,,,,,,,,,,,,magenta,flipped triangle
0.0,5.0,0.0,1.0,1.0,1.0,933.2367280003382,2.0,1.0,phase_1,,,,,,,,,,,,,cyan,hexagon
0.0,1.0,0.0,0.0,3.0,3.0,410.2808409998033,2.0,1.0,phase_1,,,,,,,,,,,,,blue,circle
0.0,4.0,0.0,0.0,1.0,1.0,480.722594999861,2.0,1.0,phase_1,,,,,,,,,,,,,white,I
396.0,8.0,4.0,1.0,3.0,3.0,408.6098759999004,2.0,1.0,phase_1,,,,,,,,,,,,,yellow,square
190.0,3.0,3.0,0.0,4.0,4.0,449.9588539997603,2.0,1.0,phase_1,,,,,,,,,,,,,orange,triangle
26.0,5.0,1.0,1.0,4.0,4.0,419.3024709998099,2.0,1.0,phase_1,,,,,,,,,,,,,cyan,hexagon
184.0,3.0,3.0,0.0,2.0,2.0,449.2864909998388,2.0,1.0,phase_1,,,,,,,,,,,,,orange,triangle
0.0,4.0,0.0,0.0,2.0,2.0,338.6280899999292,2.0,1.0,phase_1,,,,,,,,,,,,,white,I
119.0,6.0,2.0,1.0,3.0,3.0,354.538175000016,2.0,1.0,phase_1,,,,,,,,,,,,,green,cross
0.0,8.0,0.0,1.0,4.0,4.0,413.6316350000015,2.0,1.0,phase_1,,,,,,,,,,,,,yellow,square
76.0,2.0,2.0,0.0,1.0,1.0,645.3193600000304,2.0,1.0,phase_1,,,,,,,,,,,,,gray,diamond
101.0,2.0,2.0,0.0,4.0,4.0,531.9980979998036,2.0,1.0,phase_1,,,,,,,,,,,,,gray,diamond
0.0,3.0,0.0,0.0,2.0,2.0,360.4531769997265,2.0,1.0,phase_1,,,,,,,,,,,,,orange,triangle
112.0,2.0,2.0,0.0,2.0,2.0,438.5515130002204,2.0,1.0,phase_1,,,,,,,,,,,,,gray,diamond
39.0,5.0,1.0,1.0,3.0,3.0,408.4135789998981,2.0,2.0,phase_1,,,,,,,,,,,,,cyan,hexagon
411.0,4.0,4.0,0.0,4.0,4.0,483.5526870001558,2.0,1.0,phase_1,,,,,,,,,,,,,white,I
39.0,1.0,1.0,0.0,4.0,4.0,418.5495360002278,2.0,1.0,phase_1,,,,,,,,,,,,,blue,circle
417.0,4.0,4.0,0.0,3.0,3.0,413.3786880001935,2.0,1.0,phase_1,,,,,,,,,,,,,white,I
176.0,3.0,3.0,0.0,1.0,1.0,439.0574580002067,2.0,1.0,phase_1,,,,,,,,,,,,,orange,triangle
400.0,8.0,4.0,1.0,4.0,4.0,560.1335149999613,2.0,1.0,phase_1,,,,,,,,,,,,,yellow,square
62.0,5.0,1.0,1.0,3.0,3.0,410.56966799988,2.0,1.0,phase_1,,,,,,,,,,,,,cyan,hexagon
0.0,4.0,0.0,0.0,3.0,3.0,404.8267949997353,2.0,1.0,phase_1,,,,,,,,,,,,,white,I
390.0,4.0,4.0,0.0,3.0,3.0,369.0658919999805,2.0,1.0,phase_1,,,,,,,,,,,,,white,I
70.0,1.0,1.0,0.0,4.0,4.0,586.8320599997787,2.0,1.0,phase_1,,,,,,,,,,,,,blue,circle
69.0,5.0,1.0,1.0,2.0,2.0,524.6771520000948,2.0,1.0,phase_1,,,,,,,,,,,,,cyan,hexagon
0.0,3.0,0.0,0.0,2.0,2.0,478.05452600005077,2.0,1.0,phase_1,,,,,,,,,,,,,orange,triangle
0.0,2.0,0.0,0.0,3.0,3.0,544.1914060002091,2.0,1.0,phase_1,,,,,,,,,,,,,gray,diamond
0.0,8.0,0.0,1.0,3.0,3.0,375.8001209998838,2.0,1.0,phase_1,,,,,,,,,,,,,yellow,square
41.0,5.0,1.0,1.0,4.0,4.0,495.3065169997899,2.0,1.0,phase_1,,,,,,,,,,,,,cyan,hexagon
387.0,4.0,4.0,0.0,1.0,1.0,417.4029119999431,2.0,1.0,phase_1,,,,,,,,,,,,,white,I
0.0,7.0,0.0,1.0,2.0,2.0,337.1525530001236,2.0,1.0,phase_1,,,,,,,,,,,,,magenta,flipped triangle
0.0,7.0,0.0,1.0,1.0,1.0,414.2166289998386,2.0,1.0,phase_1,,,,,,,,,,,,,magenta,flipped triangle
109.0,2.0,2.0,0.0,4.0,4.0,841.3341780001247,2.0,1.0,phase_1,,,,,,,,,,,,,gray,diamond
119.0,6.0,2.0,1.0,1.0,1.0,648.4843430002911,2.0,1.0,phase_1,,,,,,,,,,,,,green,cross
225.0,3.0,3.0,0.0,3.0,3.0,475.2454469999065,2.0,1.0,phase_1,,,,,,,,,,,,,orange,triangle
116.0,2.0,2.0,0.0,3.0,3.0,400.1911329996801,2.0,1.0,phase_1,,,,,,,,,,,,,gray,diamond
69.0,1.0,1.0,0.0,3.0,3.0,448.0058580002151,2.0,1.0,phase_1,,,,,,,,,,,,,blue,circle
186.0,7.0,3.0,1.0,2.0,2.0,509.1143340000599,2.0,1.0,phase_1,,,,,,,,,,,,,magenta,flipped triangle
106.0,2.0,2.0,0.0,2.0,2.0,432.0827599999575,2.0,1.0,phase_1,,,,,,,,,,,,,gray,diamond
403.0,8.0,4.0,1.0,2.0,2.0,839.1525979996004,2.0,1.0,phase_1,,,,,,,,,,,,,yellow,square
202.0,7.0,3.0,1.0,3.0,3.0,457.834909000212,2.0,1.0,phase_1,,,,,,,,,,,,,magenta,flipped triangle
77.0,6.0,2.0,1.0,2.0,2.0,433.9842720000888,2.0,1.0,phase_1,,,,,,,,,,,,,green,cross
0.0,5.0,0.0,1.0,4.0,4.0,370.1049900000726,2.0,1.0,phase_1,,,,,,,,,,,,,cyan,hexagon
108.0,2.0,2.0,0.0,3.0,3.0,420.1674109999658,2.0,1.0,phase_1,,,,,,,,,,,,,gray,diamond
91.0,2.0,2.0,0.0,1.0,1.0,424.1135810002561,2.0,1.0,phase_1,,,,,,,,,,,,,gray,diamond
0.0,1.0,0.0,0.0,3.0,3.0,465.395929999886,2.0,1.0,phase_1,,,,,,,,,,,,,blue,circle
187.0,7.0,3.0,1.0,1.0,1.0,601.3786909998089,2.0,1.0,phase_1,,,,,,,,,,,,,magenta,flipped triangle
0.0,3.0,0.0,0.0,3.0,3.0,466.0893400000532,2.0,1.0,phase_1,,,,,,,,,,,,,orange,triangle
0.0,4.0,0.0,0.0,1.0,1.0,353.3120269999017,2.0,1.0,phase_1,,,,,,,,,,,,,white,I
62.0,5.0,1.0,1.0,4.0,4.0,480.4333219999535,2.0,1.0,phase_1,,,,,,,,,,,,,cyan,hexagon
77.0,2.0,2.0,0.0,4.0,4.0,438.4349639999527,2.0,1.0,phase_1,,,,,,,,,,,,,gray,diamond
0.0,6.0,0.0,1.0,2.0,2.0,343.1987919998391,2.0,1.0,phase_1,,,,,,,,,,,,,green,cross
215.0,7.0,3.0,1.0,4.0,4.0,369.5806810001159,2.0,1.0,phase_1,,,,,,,,,,,,,magenta,flipped triangle
223.0,7.0,3.0,1.0,4.0,4.0,415.42236100031,2.0,1.0,phase_1,,,,,,,,,,,,,magenta,flipped triangle
112.0,6.0,2.0,1.0,4.0,4.0,385.1420979999602,2.0,1.0,phase_1,,,,,,,,,,,,,green,cross
0.0,1.0,0.0,0.0,1.0,1.0,634.0359979999448,2.0,1.0,phase_1,,,,,,,,,,,,,blue,circle
219.0,7.0,3.0,1.0,2.0,2.0,447.716569000022,2.0,1.0,phase_1,,,,,,,,,,,,,magenta,flipped triangle
69.0,1.0,1.0,0.0,1.0,1.0,398.6402280002039,2.0,1.0,phase_1,,,,,,,,,,,,,blue,circle
375.0,4.0,4.0,0.0,2.0,2.0,409.2516539999451,2.0,1.0,phase_1,,,,,,,,,,,,,white,I
0.0,4.0,0.0,0.0,4.0,4.0,614.2214920000697,2.0,1.0,phase_1,,,,,,,,,,,,,white,I
89.0,2.0,2.0,0.0,3.0,3.0,576.8729209999037,2.0,1.0,phase_1,,,,,,,,,,,,,gray,diamond
390.0,8.0,4.0,1.0,3.0,3.0,320.0088290000167,2.0,2.0,phase_1,,,,,,,,,,,,,yellow,square
184.0,3.0,3.0,0.0,3.0,3.0,450.3629649998402,2.0,1.0,phase_1,,,,,,,,,,,,,orange,triangle
53.0,5.0,1.0,1.0,2.0,2.0,471.4538400003221,2.0,1.0,phase_1,,,,,,,,,,,,,cyan,hexagon
0.0,2.0,0.0,0.0,4.0,4.0,443.104790000234,2.0,1.0,phase_1,,,,,,,,,,,,,gray,diamond
86.0,2.0,2.0,0.0,2.0,2.0,321.415768999941,2.0,1.0,phase_1,,,,,,,,,,,,,gray,diamond
70.0,5.0,1.0,1.0,4.0,4.0,680.9777299999951,2.0,1.0,phase_1,,,,,,,,,,,,,cyan,hexagon
94.0,6.0,2.0,1.0,2.0,2.0,688.4317200001533,2.0,1.0,phase_1,,,,,,,,,,,,,green,cross
118.0,6.0,2.0,1.0,4.0,4.0,678.0691049998495,2.0,1.0,phase_1,,,,,,,,,,,,,green,cross
0.0,8.0,0.0,1.0,4.0,4.0,495.3344599998672,2.0,1.0,phase_1,,,,,,,,,,,,,yellow,square
396.0,4.0,4.0,0.0,4.0,4.0,524.9330860001464,2.0,1.0,phase_1,,,,,,,,,,,,,white,I
421.0,8.0,4.0,1.0,3.0,3.0,465.7015249999858,2.0,1.0,phase_1,,,,,,,,,,,,,yellow,square
381.0,4.0,4.0,0.0,2.0,2.0,328.3773040002415,2.0,1.0,phase_1,,,,,,,,,,,,,white,I
90.0,6.0,2.0,1.0,4.0,4.0,425.9270990000914,2.0,2.0,phase_1,,,,,,,,,,,,,green,cross
219.0,3.0,3.0,0.0,2.0,2.0,391.1263179998059,2.0,1.0,phase_1,,,,,,,,,,,,,orange,triangle
417.0,8.0,4.0,1.0,2.0,2.0,570.2022539999234,2.0,1.0,phase_1,,,,,,,,,,,,,yellow,square
407.0,8.0,4.0,1.0,4.0,4.0,348.5019909999209,2.0,1.0,phase_1,,,,,,,,,,,,,yellow,square
0.0,2.0,0.0,0.0,2.0,2.0,350.9852160000264,2.0,1.0,phase_1,,,,,,,,,,,,,gray,diamond
0.0,4.0,0.0,0.0,2.0,2.0,430.9142649999558,3.0,2.0,phase_1,,,,,,,,,,,,,white,I
40.0,1.0,1.0,0.0,2.0,2.0,982.5986870000634,3.0,1.0,phase_1,,,,,,,,,,,,,blue,circle
184.0,7.0,3.0,1.0,2.0,2.0,303.6585629997717,3.0,1.0,phase_1,,,,,,,,,,,,,magenta,flipped triangle
51.0,1.0,1.0,0.0,1.0,1.0,418.9451749998625,3.0,1.0,phase_1,,,,,,,,,,,,,blue,circle
187.0,3.0,3.0,0.0,4.0,4.0,389.6216660000391,3.0,1.0,phase_1,,,,,,,,,,,,,orange,triangle
0.0,3.0,0.0,0.0,3.0,3.0,424.964768999871,3.0,1.0,phase_1,,,,,,,,,,,,,orange,triangle
93.0,6.0,2.0,1.0,2.0,2.0,264.7671159998026,3.0,1.0,phase_1,,,,,,,,,,,,,green,cross
202.0,3.0,3.0,0.0,2.0,2.0,479.0207539999755,3.0,1.0,phase_1,,,,,,,,,,,,,orange,triangle
0.0,3.0,0.0,0.0,2.0,2.0,841.0160180001185,3.0,2.0,phase_1,,,,,,,,,,,,,orange,triangle
421.0,8.0,4.0,1.0,2.0,2.0,519.9893990002238,3.0,1.0,phase_1,,,,,,,,,,,,,yellow,square
0.0,5.0,0.0,1.0,2.0,2.0,336.6280769996592,3.0,1.0,phase_1,,,,,,,,,,,,,cyan,hexagon
384.0,4.0,4.0,0.0,2.0,2.0,280.7979630001682,3.0,1.0,phase_1,,,,,,,,,,,,,white,I
118.0,2.0,2.0,0.0,4.0,4.0,489.9756019999586,3.0,1.0,phase_1,,,,,,,,,,,,,gray,diamond
0.0,1.0,0.0,0.0,4.0,4.0,392.4823759998617,3.0,1.0,phase_1,,,,,,,,,,,,,blue,circle
104.0,2.0,2.0,0.0,2.0,2.0,275.6263669998589,3.0,1.0,phase_1,,,,,,,,,,,,,gray,diamond
388.0,4.0,4.0,0.0,2.0,2.0,320.686705999833,3.0,1.0,phase_1,,,,,,,,,,,,,white,I
177.0,7.0,3.0,1.0,4.0,4.0,378.0593970000154,3.0,1.0,phase_1,,,,,,,,,,,,,magenta,flipped triangle
186.0,3.0,3.0,0.0,4.0,4.0,367.675312999836,3.0,1.0,phase_1,,,,,,,,,,,,,orange,triangle
421.0,4.0,4.0,0.0,2.0,2.0,318.9638340004421,3.0,1.0,phase_1,,,,,,,,,,,,,white,I
221.0,3.0,3.0,0.0,1.0,1.0,378.8837019997118,3.0,1.0,phase_1,,,,,,,,,,,,,orange,triangle
381.0,4.0,4.0,0.0,3.0,3.0,326.9386609999856,3.0,2.0,phase_1,,,,,,,,,,,,,white,I
195.0,3.0,3.0,0.0,4.0,4.0,386.1890670000321,3.0,1.0,phase_1,,,,,,,,,,,,,orange,triangle
0.0,8.0,0.0,1.0,2.0,2.0,429.1760740002246,3.0,1.0,phase_1,,,,,,,,,,,,,yellow,square
0.0,3.0,0.0,0.0,3.0,3.0,300.9210260001964,3.0,1.0,phase_1,,,,,,,,,,,,,orange,triangle
97.0,2.0,2.0,0.0,3.0,3.0,355.7950530002927,3.0,1.0,phase_1,,,,,,,,,,,,,gray,diamond
177.0,3.0,3.0,0.0,3.0,3.0,409.7627510000166,3.0,1.0,phase_1,,,,,,,,,,,,,orange,triangle
0.0,5.0,0.0,1.0,4.0,4.0,401.2142790002144,3.0,1.0,phase_1,,,,,,,,,,,,,cyan,hexagon
79.0,2.0,2.0,0.0,3.0,3.0,355.6974389998686,3.0,1.0,phase_1,,,,,,,,,,,,,gray,diamond
40.0,5.0,1.0,1.0,1.0,1.0,608.0431200002749,3.0,1.0,phase_1,,,,,,,,,,,,,cyan,hexagon
80.0,6.0,2.0,1.0,3.0,3.0,384.9606620001395,3.0,1.0,phase_1,,,,,,,,,,,,,green,cross
177.0,7.0,3.0,1.0,1.0,1.0,535.1371930000823,3.0,1.0,phase_1,,,,,,,,,,,,,magenta,flipped triangle
0.0,3.0,0.0,0.0,2.0,2.0,386.0308280000026,3.0,1.0,phase_1,,,,,,,,,,,,,orange,triangle
103.0,6.0,2.0,1.0,1.0,1.0,399.5574079999642,3.0,1.0,phase_1,,,,,,,,,,,,,green,cross
90.0,2.0,2.0,0.0,2.0,2.0,447.9859009998108,3.0,1.0,phase_1,,,,,,,,,,,,,gray,diamond
57.0,5.0,1.0,1.0,4.0,4.0,523.4940340001231,3.0,1.0,phase_1,,,,,,,,,,,,,cyan,hexagon
48.0,5.0,1.0,1.0,3.0,3.0,293.6582419997648,3.0,1.0,phase_1,,,,,,,,,,,,,cyan,hexagon
109.0,6.0,2.0,1.0,3.0,3.0,329.6820340001432,3.0,1.0,phase_1,,,,,,,,,,,,,green,cross
80.0,2.0,2.0,0.0,4.0,4.0,356.0117850001916,3.0,1.0,phase_1,,,,,,,,,,,,,gray,diamond
26.0,1.0,1.0,0.0,1.0,1.0,418.5867080000207,3.0,1.0,phase_1,,,,,,,,,,,,,blue,circle
208.0,7.0,3.0,1.0,3.0,3.0,302.8274309999688,3.0,1.0,phase_1,,,,,,,,,,,,,magenta,flipped triangle
79.0,6.0,2.0,1.0,4.0,4.0,387.6960630000212,3.0,1.0,phase_1,,,,,,,,,,,,,green,cross
32.0,5.0,1.0,1.0,1.0,1.0,427.0486030000029,3.0,1.0,phase_1,,,,,,,,,,,,,cyan,hexagon
0.0,2.0,0.0,0.0,4.0,4.0,450.8629960000689,3.0,1.0,phase_1,,,,,,,,,,,,,gray,diamond
54.0,5.0,1.0,1.0,1.0,1.0,667.2164510000584,3.0,1.0,phase_1,,,,,,,,,,,,,cyan,hexagon
78.0,2.0,2.0,0.0,1.0,1.0,488.953360999858,3.0,1.0,phase_1,,,,,,,,,,,,,gray,diamond
0.0,6.0,0.0,1.0,1.0,1.0,394.1938440002559,3.0,1.0,phase_1,,,,,,,,,,,,,green,cross
70.0,1.0,1.0,0.0,3.0,3.0,443.4908230000474,3.0,1.0,phase_1,,,,,,,,,,,,,blue,circle
421.0,4.0,4.0,0.0,1.0,1.0,379.4732809997185,3.0,1.0,phase_1,,,,,,,,,,,,,white,I
0.0,5.0,0.0,1.0,1.0,1.0,335.0663020000866,3.0,1.0,phase_1,,,,,,,,,,,,,cyan,hexagon
176.0,7.0,3.0,1.0,4.0,4.0,428.6665739996351,3.0,1.0,phase_1,,,,,,,,,,,,,magenta,flipped triangle
99.0,2.0,2.0,0.0,2.0,2.0,312.3157420000098,3.0,1.0,phase_1,,,,,,,,,,,,,gray,diamond
57.0,1.0,1.0,0.0,2.0,2.0,342.3232439999992,3.0,1.0,phase_1,,,,,,,,,,,,,blue,circle
0.0,1.0,0.0,0.0,2.0,2.0,384.5409489999838,3.0,1.0,phase_1,,,,,,,,,,,,,blue,circle
54.0,1.0,1.0,0.0,2.0,2.0,329.343554999923,3.0,2.0,phase_1,,,,,,,,,,,,,blue,circle
208.0,3.0,3.0,0.0,4.0,4.0,404.2104240002118,3.0,1.0,phase_1,,,,,,,,,,,,,orange,triangle
217.0,3.0,3.0,0.0,1.0,1.0,331.1209780003992,3.0,1.0,phase_1,,,,,,,,,,,,,orange,triangle
0.0,6.0,0.0,1.0,1.0,1.0,421.9706839999162,3.0,1.0,phase_1,,,,,,,,,,,,,green,cross
415.0,8.0,4.0,1.0,4.0,4.0,337.9823640002541,3.0,1.0,phase_1,,,,,,,,,,,,,yellow,square
34.0,1.0,1.0,0.0,1.0,1.0,391.562514999805,3.0,1.0,phase_1,,,,,,,,,,,,,blue,circle
412.0,8.0,4.0,1.0,2.0,2.0,303.5657030000038,3.0,1.0,phase_1,,,,,,,,,,,,,yellow,square
0.0,7.0,0.0,1.0,1.0,1.0,531.2054579999312,3.0,1.0,phase_1,,,,,,,,,,,,,magenta,flipped triangle
113.0,2.0,2.0,0.0,1.0,1.0,672.9389540000739,3.0,1.0,phase_1,,,,,,,,,,,,,gray,diamond
376.0,4.0,4.0,0.0,3.0,3.0,524.7635129999253,3.0,1.0,phase_1,,,,,,,,,,,,,white,I
222.0,7.0,3.0,1.0,2.0,2.0,478.7479229999007,3.0,1.0,phase_1,,,,,,,,,,,,,magenta,flipped triangle
105.0,6.0,2.0,1.0,3.0,3.0,300.2928169998995,3.0,1.0,phase_1,,,,,,,,,,,,,green,cross
410.0,8.0,4.0,1.0,3.0,3.0,300.5861659999027,3.0,1.0,phase_1,,,,,,,,,,,,,yellow,square
91.0,6.0,2.0,1.0,4.0,4.0,377.3570610001115,3.0,1.0,phase_1,,,,,,,,,,,,,green,cross
98.0,2.0,2.0,0.0,4.0,4.0,431.039870999939,3.0,1.0,phase_1,,,,,,,,,,,,,gray,diamond
91.0,6.0,2.0,1.0,1.0,1.0,367.6419419998638,3.0,1.0,phase_1,,,,,,,,,,,,,green,cross
402.0,4.0,4.0,0.0,1.0,1.0,410.2463730000636,3.0,1.0,phase_1,,,,,,,,,,,,,white,I
0.0,1.0,0.0,0.0,3.0,3.0,376.8899010001405,3.0,1.0,phase_1,,,,,,,,,,,,,blue,circle
0.0,6.0,0.0,1.0,4.0,4.0,722.572990000117,3.0,2.0,phase_1,,,,,,,,,,,,,green,cross
222.0,3.0,3.0,0.0,3.0,3.0,479.2927079997753,3.0,1.0,phase_1,,,,,,,,,,,,,orange,triangle
377.0,4.0,4.0,0.0,1.0,1.0,575.765747999867,3.0,1.0,phase_1,,,,,,,,,,,,,white,I
106.0,6.0,2.0,1.0,3.0,3.0,453.4826259996407,3.0,1.0,phase_1,,,,,,,,,,,,,green,cross
74.0,5.0,1.0,1.0,3.0,3.0,474.3461840002965,3.0,1.0,phase_1,,,,,,,,,,,,,cyan,hexagon
116.0,2.0,2.0,0.0,4.0,4.0,574.2704439999216,3.0,1.0,phase_1,,,,,,,,,,,,,gray,diamond
114.0,6.0,2.0,1.0,2.0,2.0,319.7458959998585,3.0,1.0,phase_1,,,,,,,,,,,,,green,cross
0.0,1.0,0.0,0.0,3.0,3.0,326.2107310001738,3.0,1.0,phase_1,,,,,,,,,,,,,blue,circle
402.0,8.0,4.0,1.0,2.0,2.0,286.6370570000072,3.0,1.0,phase_1,,,,,,,,,,,,,yellow,square
33.0,5.0,1.0,1.0,2.0,2.0,298.0474860000868,3.0,1.0,phase_1,,,,,,,,,,,,,cyan,hexagon
194.0,3.0,3.0,0.0,3.0,3.0,399.2475350000859,3.0,1.0,phase_1,,,,,,,,,,,,,orange,triangle
0.0,8.0,0.0,1.0,4.0,4.0,460.0495240001692,3.0,1.0,phase_1,,,,,,,,,,,,,yellow,square
222.0,3.0,3.0,0.0,2.0,2.0,515.7362350000767,3.0,2.0,phase_1,,,,,,,,,,,,,orange,triangle
379.0,4.0,4.0,0.0,4.0,4.0,503.0852190002406,3.0,1.0,phase_1,,,,,,,,,,,,,white,I
0.0,2.0,0.0,0.0,3.0,3.0,598.6783209996247,3.0,1.0,phase_1,,,,,,,,,,,,,gray,diamond
376.0,8.0,4.0,1.0,1.0,1.0,406.2640289998853,3.0,1.0,phase_1,,,,,,,,,,,,,yellow,square
108.0,6.0,2.0,1.0,2.0,2.0,311.7149069998959,3.0,1.0,phase_1,,,,,,,,,,,,,green,cross
119.0,2.0,2.0,0.0,3.0,3.0,561.8525059999229,3.0,1.0,phase_1,,,,,,,,,,,,,gray,diamond
425.0,8.0,4.0,1.0,4.0,4.0,376.8602809996082,3.0,1.0,phase_1,,,,,,,,,,,,,yellow,square
51.0,5.0,1.0,1.0,3.0,3.0,412.1296850003091,3.0,1.0,phase_1,,,,,,,,,,,,,cyan,hexagon
416.0,4.0,4.0,0.0,1.0,1.0,395.2566610000758,3.0,1.0,phase_1,,,,,,,,,,,,,white,I
76.0,6.0,2.0,1.0,2.0,2.0,323.4654209995824,3.0,1.0,phase_1,,,,,,,,,,,,,green,cross
89.0,6.0,2.0,1.0,2.0,2.0,306.9271899998966,3.0,1.0,phase_1,,,,,,,,,,,,,green,cross
39.0,1.0,1.0,0.0,1.0,1.0,662.3119450000559,3.0,1.0,phase_1,,,,,,,,,,,,,blue,circle
53.0,1.0,1.0,0.0,4.0,4.0,699.32907600014,3.0,2.0,phase_1,,,,,,,,,,,,,blue,circle
104.0,6.0,2.0,1.0,4.0,4.0,475.1145619998169,3.0,1.0,phase_1,,,,,,,,,,,,,green,cross
178.0,3.0,3.0,0.0,3.0,3.0,420.6330360002539,3.0,1.0,phase_1,,,,,,,,,,,,,orange,triangle
29.0,5.0,1.0,1.0,4.0,4.0,364.7502009998788,3.0,1.0,phase_1,,,,,,,,,,,,,cyan,hexagon
0.0,1.0,0.0,0.0,2.0,2.0,327.1812309999404,3.0,1.0,phase_1,,,,,,,,,,,,,blue,circle
404.0,4.0,4.0,0.0,1.0,1.0,432.0266830000037,4.0,1.0,phase_1,,,,,,,,,,,,,white,I
0.0,8.0,0.0,1.0,4.0,4.0,326.0329409995393,4.0,1.0,phase_1,,,,,,,,,,,,,yellow,square
29.0,1.0,1.0,0.0,2.0,2.0,271.4651009991939,4.0,1.0,phase_1,,,,,,,,,,,,,blue,circle
424.0,4.0,4.0,0.0,4.0,4.0,289.67376400032657,4.0,1.0,phase_1,,,,,,,,,,,,,white,I
397.0,8.0,4.0,1.0,3.0,3.0,312.0263979999436,4.0,1.0,phase_1,,,,,,,,,,,,,yellow,square
410.0,4.0,4.0,0.0,2.0,2.0,257.2030860001177,4.0,1.0,phase_1,,,,,,,,,,,,,white,I
0.0,2.0,0.0,0.0,4.0,4.0,267.5473599992983,4.0,1.0,phase_1,,,,,,,,,,,,,gray,diamond
403.0,4.0,4.0,0.0,1.0,1.0,337.4498090006455,4.0,1.0,phase_1,,,,,,,,,,,,,white,I
205.0,3.0,3.0,0.0,4.0,4.0,422.2684509995815,4.0,1.0,phase_1,,,,,,,,,,,,,orange,triangle
94.0,2.0,2.0,0.0,1.0,1.0,405.7279059998109,4.0,1.0,phase_1,,,,,,,,,,,,,gray,diamond
0.0,2.0,0.0,0.0,4.0,4.0,319.4787760003237,4.0,1.0,phase_1,,,,,,,,,,,,,gray,diamond
404.0,8.0,4.0,1.0,2.0,2.0,280.9338970000681,4.0,1.0,phase_1,,,,,,,,,,,,,yellow,square
119.0,2.0,2.0,0.0,4.0,4.0,299.9150309997276,4.0,1.0,phase_1,,,,,,,,,,,,,gray,diamond
91.0,2.0,2.0,0.0,1.0,1.0,337.3072960002901,4.0,1.0,phase_1,,,,,,,,,,,,,gray,diamond
424.0,8.0,4.0,1.0,3.0,3.0,476.4010210001288,4.0,2.0,phase_1,,,,,,,,,,,,,yellow,square
0.0,3.0,0.0,0.0,1.0,1.0,354.5792909999363,4.0,1.0,phase_1,,,,,,,,,,,,,orange,triangle
218.0,7.0,3.0,1.0,1.0,1.0,351.540104000378,4.0,1.0,phase_1,,,,,,,,,,,,,magenta,flipped triangle
97.0,6.0,2.0,1.0,4.0,4.0,304.4949550003366,4.0,1.0,phase_1,,,,,,,,,,,,,green,cross
0.0,4.0,0.0,0.0,2.0,2.0,408.2451999993282,4.0,1.0,phase_1,,,,,,,,,,,,,white,I
177.0,3.0,3.0,0.0,1.0,1.0,327.4244069998531,4.0,1.0,phase_1,,,,,,,,,,,,,orange,triangle
49.0,1.0,1.0,0.0,2.0,2.0,320.4689539998071,4.0,1.0,phase_1,,,,,,,,,,,,,blue,circle
55.0,5.0,1.0,1.0,2.0,2.0,354.6914710004785,4.0,1.0,phase_1,,,,,,,,,,,,,cyan,hexagon
122.0,2.0,2.0,0.0,2.0,2.0,310.4117620005127,4.0,1.0,phase_1,,,,,,,,,,,,,gray,diamond
380.0,8.0,4.0,1.0,1.0,1.0,344.1625499999645,4.0,1.0,phase_1,,,,,,,,,,,,,yellow,square
33.0,1.0,1.0,0.0,1.0,1.0,422.9635809997489,4.0,1.0,phase_1,,,,,,,,,,,,,blue,circle
113.0,6.0,2.0,1.0,3.0,3.0,437.5705370002833,4.0,2.0,phase_1,,,,,,,,,,,,,green,cross
35.0,1.0,1.0,0.0,2.0,2.0,393.8800010000705,4.0,1.0,phase_1,,,,,,,,,,,,,blue,circle
222.0,7.0,3.0,1.0,3.0,3.0,424.2100099991148,4.0,1.0,phase_1,,,,,,,,,,,,,magenta,flipped triangle
183.0,3.0,3.0,0.0,1.0,1.0,459.2691429998012,4.0,1.0,phase_1,,,,,,,,,,,,,orange,triangle
194.0,7.0,3.0,1.0,4.0,4.0,358.6876190001931,4.0,1.0,phase_1,,,,,,,,,,,,,magenta,flipped triangle
221.0,7.0,3.0,1.0,3.0,3.0,397.8009590000511,4.0,1.0,phase_1,,,,,,,,,,,,,magenta,flipped triangle
116.0,6.0,2.0,1.0,3.0,3.0,478.8936720005949,4.0,1.0,phase_1,,,,,,,,,,,,,green,cross
35.0,1.0,1.0,0.0,4.0,4.0,462.8217210001821,4.0,1.0,phase_1,,,,,,,,,,,,,blue,circle
0.0,6.0,0.0,1.0,3.0,3.0,385.2744969999548,4.0,1.0,phase_1,,,,,,,,,,,,,green,cross
0.0,5.0,0.0,1.0,4.0,4.0,467.6581859994257,4.0,1.0,phase_1,,,,,,,,,,,,,cyan,hexagon
208.0,3.0,3.0,0.0,1.0,1.0,498.8221889998385,4.0,1.0,phase_1,,,,,,,,,,,,,orange,triangle
0.0,7.0,0.0,1.0,4.0,4.0,422.2947739999654,4.0,1.0,phase_1,,,,,,,,,,,,,magenta,flipped triangle
179.0,3.0,3.0,0.0,2.0,2.0,340.2428150002379,4.0,1.0,phase_1,,,,,,,,,,,,,orange,triangle
86.0,6.0,2.0,1.0,1.0,1.0,469.5482200004335,4.0,1.0,phase_1,,,,,,,,,,,,,green,cross
94.0,2.0,2.0,0.0,4.0,4.0,493.3007420004287,4.0,1.0,phase_1,,,,,,,,,,,,,gray,diamond
390.0,4.0,4.0,0.0,3.0,3.0,666.5968119996251,4.0,1.0,phase_1,,,,,,,,,,,,,white,I
122.0,2.0,2.0,0.0,3.0,3.0,728.8827909997053,4.0,1.0,phase_1,,,,,,,,,,,,,gray,diamond
199.0,3.0,3.0,0.0,2.0,2.0,601.65615599999,4.0,1.0,phase_1,,,,,,,,,,,,,orange,triangle
63.0,5.0,1.0,1.0,4.0,4.0,504.7478920005233,4.0,1.0,phase_1,,,,,,,,,,,,,cyan,hexagon
0.0,4.0,0.0,0.0,2.0,2.0,419.7341369999776,4.0,1.0,phase_1,,,,,,,,,,,,,white,I
183.0,3.0,3.0,0.0,1.0,1.0,429.6026470001379,4.0,1.0,phase_1,,,,,,,,,,,,,orange,triangle
0.0,6.0,0.0,1.0,1.0,1.0,457.2106169998733,4.0,1.0,phase_1,,,,,,,,,,,,,green,cross
225.0,7.0,3.0,1.0,3.0,3.0,521.1613129995385,4.0,1.0,phase_1,,,,,,,,,,,,,magenta,flipped triangle
81.0,2.0,2.0,0.0,1.0,1.0,412.5768370004152,4.0,1.0,phase_1,,,,,,,,,,,,,gray,diamond
425.0,4.0,4.0,0.0,2.0,2.0,300.7524889999331,4.0,1.0,phase_1,,,,,,,,,,,,,white,I
415.0,8.0,4.0,1.0,2.0,2.0,426.8266680001034,4.0,1.0,phase_1,,,,,,,,,,,,,yellow,square
219.0,7.0,3.0,1.0,1.0,1.0,495.1910299996598,4.0,1.0,phase_1,,,,,,,,,,,,,magenta,flipped triangle
49.0,5.0,1.0,1.0,3.0,3.0,462.4272090004524,4.0,1.0,phase_1,,,,,,,,,,,,,cyan,hexagon
31.0,5.0,1.0,1.0,4.0,4.0,359.8306819994832,4.0,1.0,phase_1,,,,,,,,,,,,,cyan,hexagon
69.0,5.0,1.0,1.0,3.0,3.0,706.2883749995308,4.0,2.0,phase_1,,,,,,,,,,,,,cyan,hexagon
381.0,8.0,4.0,1.0,3.0,3.0,361.143618000824,4.0,1.0,phase_1,,,,,,,,,,,,,yellow,square
200.0,7.0,3.0,1.0,1.0,1.0,441.3364900001397,4.0,1.0,phase_1,,,,,,,,,,,,,magenta,flipped triangle
0.0,6.0,0.0,1.0,1.0,1.0,523.8547799999651,4.0,1.0,phase_1,,,,,,,,,,,,,green,cross
105.0,2.0,2.0,0.0,1.0,1.0,398.7099430005401,4.0,1.0,phase_1,,,,,,,,,,,,,gray,diamond
411.0,8.0,4.0,1.0,2.0,2.0,467.7765360002013,4.0,1.0,phase_1,,,,,,,,,,,,,yellow,square
184.0,7.0,3.0,1.0,4.0,4.0,527.3905770000056,4.0,1.0,phase_1,,,,,,,,,,,,,magenta,flipped triangle
399.0,4.0,4.0,0.0,4.0,4.0,524.2373080000107,4.0,1.0,phase_1,,,,,,,,,,,,,white,I
63.0,1.0,1.0,0.0,3.0,3.0,368.1753339997158,4.0,1.0,phase_1,,,,,,,,,,,,,blue,circle
399.0,8.0,4.0,1.0,1.0,1.0,397.5310129999343,4.0,1.0,phase_1,,,,,,,,,,,,,yellow,square
86.0,2.0,2.0,0.0,1.0,1.0,435.5022760000793,4.0,1.0,phase_1,,,,,,,,,,,,,gray,diamond
379.0,8.0,4.0,1.0,4.0,4.0,381.5345229995728,4.0,1.0,phase_1,,,,,,,,,,,,,yellow,square
83.0,6.0,2.0,1.0,1.0,1.0,351.1685900002703,4.0,1.0,phase_1,,,,,,,,,,,,,green,cross
198.0,3.0,3.0,0.0,3.0,3.0,433.9704540007005,4.0,1.0,phase_1,,,,,,,,,,,,,orange,triangle
122.0,6.0,2.0,1.0,1.0,1.0,529.1963400004533,4.0,1.0,phase_1,,,,,,,,,,,,,green,cross
0.0,1.0,0.0,0.0,2.0,2.0,474.4090909998704,4.0,1.0,phase_1,,,,,,,,,,,,,blue,circle
68.0,5.0,1.0,1.0,1.0,1.0,513.3477380004479,4.0,1.0,phase_1,,,,,,,,,,,,,cyan,hexagon
183.0,7.0,3.0,1.0,3.0,3.0,372.46132900054357,4.0,1.0,phase_1,,,,,,,,,,,,,magenta,flipped triangle
29.0,1.0,1.0,0.0,4.0,4.0,408.1753179998486,4.0,1.0,phase_1,,,,,,,,,,,,,blue,circle
407.0,4.0,4.0,0.0,3.0,3.0,430.8454859992707,4.0,1.0,phase_1,,,,,,,,,,,,,white,I
377.0,8.0,4.0,1.0,1.0,1.0,458.5245799999029,4.0,1.0,phase_1,,,,,,,,,,,,,yellow,square
93.0,2.0,2.0,0.0,3.0,3.0,352.2822560007626,4.0,1.0,phase_1,,,,,,,,,,,,,gray,diamond
0.0,8.0,0.0,1.0,2.0,2.0,517.3821420003151,4.0,1.0,phase_1,,,,,,,,,,,,,yellow,square
0.0,7.0,0.0,1.0,2.0,2.0,418.2284790003905,4.0,1.0,phase_1,,,,,,,,,,,,,magenta,flipped triangle
99.0,6.0,2.0,1.0,3.0,3.0,543.8995820004493,4.0,1.0,phase_1,,,,,,,,,,,,,green,cross
68.0,1.0,1.0,0.0,4.0,4.0,501.7833570000221,4.0,1.0,phase_1,,,,,,,,,,,,,blue,circle
223.0,3.0,3.0,0.0,4.0,4.0,435.67044100018387,4.0,1.0,phase_1,,,,,,,,,,,,,orange,triangle
55.0,1.0,1.0,0.0,3.0,3.0,560.4476059997978,4.0,1.0,phase_1,,,,,,,,,,,,,blue,circle
0.0,7.0,0.0,1.0,4.0,4.0,551.8546319999587,4.0,1.0,phase_1,,,,,,,,,,,,,magenta,flipped triangle
200.0,3.0,3.0,0.0,4.0,4.0,389.6274810003888,4.0,1.0,phase_1,,,,,,,,,,,,,orange,triangle
0.0,5.0,0.0,1.0,2.0,2.0,339.7386890001144,4.0,1.0,phase_1,,,,,,,,,,,,,cyan,hexagon
51.0,5.0,1.0,1.0,2.0,2.0,382.8768160001345,4.0,1.0,phase_1,,,,,,,,,,,,,cyan,hexagon
62.0,1.0,1.0,0.0,2.0,2.0,430.5633559997659,4.0,1.0,phase_1,,,,,,,,,,,,,blue,circle
29.0,5.0,1.0,1.0,1.0,1.0,527.3515789995145,4.0,1.0,phase_1,,,,,,,,,,,,,cyan,hexagon
397.0,4.0,4.0,0.0,4.0,4.0,764.3980520006153,4.0,1.0,phase_1,,,,,,,,,,,,,white,I
388.0,8.0,4.0,1.0,2.0,2.0,554.8973559998558,4.0,1.0,phase_1,,,,,,,,,,,,,yellow,square
25.0,1.0,1.0,0.0,3.0,3.0,486.9836640000358,4.0,1.0,phase_1,,,,,,,,,,,,,blue,circle
384.0,8.0,4.0,1.0,1.0,1.0,337.8458990000581,4.0,1.0,phase_1,,,,,,,,,,,,,yellow,square
108.0,6.0,2.0,1.0,1.0,1.0,365.9083780003129,4.0,1.0,phase_1,,,,,,,,,,,,,green,cross
0.0,5.0,0.0,1.0,1.0,1.0,350.0091480000264,4.0,1.0,phase_1,,,,,,,,,,,,,cyan,hexagon
25.0,5.0,1.0,1.0,1.0,1.0,405.9255239999402,4.0,1.0,phase_1,,,,,,,,,,,,,cyan,hexagon
404.0,8.0,4.0,1.0,3.0,3.0,611.0779129994626,4.0,1.0,phase_1,,,,,,,,,,,,,yellow,square
217.0,7.0,3.0,1.0,1.0,1.0,426.9107879999865,4.0,1.0,phase_1,,,,,,,,,,,,,magenta,flipped triangle
74.0,1.0,1.0,0.0,2.0,2.0,368.8464959996054,4.0,1.0,phase_1,,,,,,,,,,,,,blue,circle
179.0,7.0,3.0,1.0,4.0,4.0,455.9348210004827,4.0,1.0,phase_1,,,,,,,,,,,,,magenta,flipped triangle
68.0,1.0,1.0,0.0,4.0,4.0,451.9483469994156,4.0,1.0,phase_1,,,,,,,,,,,,,blue,circle
0.0,4.0,4.0,0.0,6.0,6.0,613.4223640001437,1.0,1.0,phase_2,go,250.0,250.0,1.0,,,,,,,,,white,I
0.0,7.0,3.0,1.0,6.0,6.0,315.384912000809,1.0,1.0,phase_2,go,250.0,250.0,1.0,,,,,,,,,magenta,flipped triangle
0.0,7.0,3.0,1.0,6.0,6.0,302.0789109996258,1.0,1.0,phase_2,go,250.0,250.0,1.0,,,,,,,,,magenta,flipped triangle
0.0,2.0,2.0,0.0,6.0,6.0,260.1564879996658,1.0,1.0,phase_2,go,250.0,250.0,1.0,,,,,,,,,gray,diamond
0.0,5.0,1.0,1.0,6.0,6.0,398.2570289999785,1.0,1.0,phase_2,stop,250.0,250.0,3.0,,,,,,,,,cyan,hexagon
0.0,6.0,2.0,1.0,6.0,0.0,0.0,1.0,1.0,phase_2,stop,250.0,200.0,4.0,,,,,,,,,green,cross
0.0,7.0,3.0,1.0,5.0,5.0,289.9736539993682,1.0,1.0,phase_2,stop,250.0,250.0,3.0,,,,,,,,,magenta,flipped triangle
0.0,3.0,3.0,0.0,5.0,5.0,904.5277380000698,1.0,1.0,phase_2,go,200.0,250.0,1.0,,,,,,,,,orange,triangle
0.0,4.0,4.0,0.0,6.0,6.0,356.9169520005744,1.0,1.0,phase_2,go,200.0,250.0,1.0,,,,,,,,,white,I
0.0,8.0,4.0,1.0,5.0,0.0,0.0,1.0,1.0,phase_2,stop,200.0,250.0,4.0,,,,,,,,,yellow,square
0.0,1.0,1.0,0.0,6.0,6.0,361.9438790001368,1.0,1.0,phase_2,go,250.0,250.0,1.0,,,,,,,,,blue,circle
0.0,2.0,2.0,0.0,6.0,6.0,465.4110509991369,1.0,1.0,phase_2,go,250.0,250.0,1.0,,,,,,,,,gray,diamond
0.0,4.0,4.0,0.0,6.0,6.0,386.0734350000712,1.0,1.0,phase_2,go,250.0,250.0,1.0,,,,,,,,,white,I
0.0,2.0,2.0,0.0,6.0,6.0,428.7647359997208,1.0,1.0,phase_2,go,250.0,250.0,1.0,,,,,,,,,gray,diamond
0.0,2.0,2.0,0.0,6.0,6.0,546.6094760004125,1.0,1.0,phase_2,go,250.0,250.0,1.0,,,,,,,,,gray,diamond
0.0,6.0,2.0,1.0,5.0,5.0,527.8106060004575,1.0,1.0,phase_2,go,250.0,250.0,1.0,,,,,,,,,green,cross
0.0,7.0,3.0,1.0,5.0,0.0,0.0,1.0,1.0,phase_2,stop,250.0,250.0,4.0,,,,,,,,,magenta,flipped triangle
0.0,3.0,3.0,0.0,5.0,5.0,1422.5478289999955,1.0,1.0,phase_2,go,300.0,250.0,1.0,,,,,,,,,orange,triangle
0.0,4.0,4.0,0.0,5.0,5.0,881.805663000705,1.0,1.0,phase_2,go,300.0,250.0,1.0,,,,,,,,,white,I
0.0,8.0,4.0,1.0,5.0,5.0,630.0619439998627,1.0,1.0,phase_2,go,300.0,250.0,1.0,,,,,,,,,yellow,square
0.0,7.0,3.0,1.0,6.0,6.0,284.2812709995996,1.0,1.0,phase_2,stop,300.0,250.0,3.0,,,,,,,,,magenta,flipped triangle
0.0,5.0,1.0,1.0,6.0,6.0,1073.0303849995837,1.0,1.0,phase_2,go,300.0,200.0,1.0,,,,,,,,,cyan,hexagon
0.0,2.0,2.0,0.0,6.0,6.0,724.7935830000642,1.0,1.0,phase_2,go,300.0,200.0,1.0,,,,,,,,,gray,diamond
0.0,6.0,2.0,1.0,6.0,0.0,0.0,1.0,1.0,phase_2,stop,300.0,200.0,4.0,,,,,,,,,green,cross
0.0,2.0,2.0,0.0,6.0,6.0,557.3447799997666,1.0,1.0,phase_2,go,300.0,250.0,1.0,,,,,,,,,gray,diamond
0.0,8.0,4.0,1.0,5.0,0.0,0.0,1.0,1.0,phase_2,stop,300.0,250.0,4.0,,,,,,,,,yellow,square
0.0,7.0,3.0,1.0,5.0,0.0,0.0,1.0,1.0,phase_2,stop,350.0,250.0,4.0,,,,,,,,,magenta,flipped triangle
0.0,8.0,4.0,1.0,6.0,0.0,0.0,1.0,1.0,phase_2,stop,400.0,250.0,4.0,,,,,,,,,yellow,square
0.0,2.0,2.0,0.0,5.0,5.0,624.5195179999428,1.0,1.0,phase_2,go,400.0,300.0,1.0,,,,,,,,,gray,diamond
0.0,3.0,3.0,0.0,5.0,0.0,0.0,1.0,1.0,phase_2,go,400.0,300.0,5.0,,,,,,,,,orange,triangle
0.0,7.0,3.0,1.0,6.0,6.0,462.0283289996223,1.0,1.0,phase_2,go,400.0,300.0,1.0,,,,,,,,,magenta,flipped triangle
0.0,8.0,4.0,1.0,5.0,5.0,536.9477779995577,1.0,1.0,phase_2,stop,400.0,300.0,3.0,,,,,,,,,yellow,square
0.0,8.0,4.0,1.0,5.0,0.0,0.0,1.0,1.0,phase_2,stop,350.0,300.0,4.0,,,,,,,,,yellow,square
0.0,1.0,1.0,0.0,6.0,6.0,331.4182659996731,1.0,1.0,phase_2,go,400.0,300.0,1.0,,,,,,,,,blue,circle
0.0,7.0,3.0,1.0,5.0,0.0,0.0,1.0,1.0,phase_2,stop,400.0,300.0,4.0,,,,,,,,,magenta,flipped triangle
0.0,2.0,2.0,0.0,6.0,0.0,0.0,1.0,1.0,phase_2,go,450.0,300.0,5.0,,,,,,,,,gray,diamond
0.0,3.0,3.0,0.0,6.0,6.0,1361.5555160004078,2.0,1.0,phase_2,go,450.0,300.0,1.0,,,,,,,,,orange,triangle
0.0,8.0,4.0,1.0,6.0,6.0,341.2358119994678,2.0,1.0,phase_2,stop,450.0,300.0,3.0,,,,,,,,,yellow,square
0.0,2.0,2.0,0.0,5.0,5.0,407.639547999679,2.0,1.0,phase_2,go,450.0,250.0,1.0,,,,,,,,,gray,diamond
0.0,6.0,2.0,1.0,5.0,5.0,563.2565400001113,2.0,1.0,phase_2,stop,450.0,250.0,3.0,,,,,,,,,green,cross
0.0,3.0,3.0,0.0,6.0,6.0,893.8681559993711,2.0,1.0,phase_2,go,400.0,250.0,1.0,,,,,,,,,orange,triangle
0.0,7.0,3.0,1.0,6.0,0.0,0.0,2.0,1.0,phase_2,stop,400.0,250.0,4.0,,,,,,,,,magenta,flipped triangle
0.0,1.0,1.0,0.0,6.0,6.0,792.4399979992813,2.0,1.0,phase_2,go,400.0,300.0,1.0,,,,,,,,,blue,circle
0.0,1.0,1.0,0.0,6.0,6.0,983.937443999821,2.0,1.0,phase_2,go,400.0,300.0,1.0,,,,,,,,,blue,circle
0.0,5.0,1.0,1.0,5.0,5.0,998.182899999847,2.0,1.0,phase_2,go,400.0,300.0,1.0,,,,,,,,,cyan,hexagon
0.0,7.0,3.0,1.0,5.0,0.0,0.0,2.0,1.0,phase_2,stop,400.0,300.0,4.0,,,,,,,,,magenta,flipped triangle
0.0,7.0,3.0,1.0,5.0,0.0,0.0,2.0,1.0,phase_2,stop,450.0,300.0,4.0,,,,,,,,,magenta,flipped triangle
0.0,2.0,2.0,0.0,5.0,5.0,784.8264580006798,2.0,1.0,phase_2,go,500.0,300.0,1.0,,,,,,,,,gray,diamond
0.0,2.0,2.0,0.0,5.0,5.0,1135.8020349998696,2.0,1.0,phase_2,go,500.0,300.0,1.0,,,,,,,,,gray,diamond
0.0,5.0,1.0,1.0,5.0,0.0,0.0,2.0,1.0,phase_2,stop,500.0,300.0,4.0,,,,,,,,,cyan,hexagon
0.0,3.0,3.0,0.0,5.0,0.0,0.0,2.0,1.0,phase_2,go,550.0,300.0,5.0,,,,,,,,,orange,triangle
0.0,4.0,4.0,0.0,6.0,6.0,494.5307919997503,2.0,1.0,phase_2,go,550.0,300.0,1.0,,,,,,,,,white,I
0.0,4.0,4.0,0.0,5.0,5.0,598.5727359993689,2.0,1.0,phase_2,go,550.0,300.0,1.0,,,,,,,,,white,I
0.0,8.0,4.0,1.0,6.0,6.0,500.6945100003577,2.0,1.0,phase_2,stop,550.0,300.0,3.0,,,,,,,,,yellow,square
0.0,1.0,1.0,0.0,6.0,6.0,683.2827830003225,2.0,1.0,phase_2,go,550.0,250.0,1.0,,,,,,,,,blue,circle
0.0,5.0,1.0,1.0,5.0,0.0,0.0,2.0,1.0,phase_2,stop,550.0,250.0,4.0,,,,,,,,,cyan,hexagon
0.0,2.0,2.0,0.0,6.0,6.0,738.0159619997357,2.0,1.0,phase_2,go,600.0,250.0,1.0,,,,,,,,,gray,diamond
0.0,1.0,1.0,0.0,5.0,5.0,460.0002609995499,2.0,1.0,phase_2,go,600.0,250.0,1.0,,,,,,,,,blue,circle
0.0,3.0,3.0,0.0,5.0,5.0,538.1409729998268,2.0,1.0,phase_2,go,600.0,250.0,1.0,,,,,,,,,orange,triangle
0.0,6.0,2.0,1.0,6.0,0.0,0.0,2.0,1.0,phase_2,stop,600.0,250.0,4.0,,,,,,,,,green,cross
0.0,2.0,2.0,0.0,5.0,5.0,707.1942000002309,2.0,1.0,phase_2,go,600.0,300.0,1.0,,,,,,,,,gray,diamond
0.0,6.0,2.0,1.0,5.0,5.0,645.6779870004539,2.0,1.0,phase_2,stop,600.0,300.0,3.0,,,,,,,,,green,cross
0.0,7.0,3.0,1.0,5.0,0.0,0.0,2.0,1.0,phase_2,stop,550.0,300.0,4.0,,,,,,,,,magenta,flipped triangle
0.0,4.0,4.0,0.0,5.0,5.0,867.3593129997244,2.0,1.0,phase_2,go,600.0,300.0,1.0,,,,,,,,,white,I
0.0,1.0,1.0,0.0,5.0,5.0,827.2955349993936,2.0,1.0,phase_2,go,600.0,300.0,1.0,,,,,,,,,blue,circle
0.0,6.0,2.0,1.0,6.0,6.0,332.9404160003832,2.0,1.0,phase_2,stop,600.0,300.0,3.0,,,,,,,,,green,cross
0.0,5.0,1.0,1.0,6.0,0.0,0.0,2.0,1.0,phase_2,stop,600.0,250.0,4.0,,,,,,,,,cyan,hexagon
0.0,6.0,2.0,1.0,6.0,6.0,583.5833780001849,2.0,1.0,phase_2,go,600.0,300.0,1.0,,,,,,,,,green,cross
0.0,7.0,3.0,1.0,6.0,0.0,0.0,2.0,1.0,phase_2,stop,600.0,300.0,4.0,,,,,,,,,magenta,flipped triangle
0.0,7.0,3.0,1.0,6.0,0.0,0.0,2.0,1.0,phase_2,stop,600.0,350.0,4.0,,,,,,,,,magenta,flipped triangle
0.0,6.0,2.0,1.0,6.0,6.0,487.1241299997564,2.0,1.0,phase_2,go,600.0,400.0,1.0,,,,,,,,,green,cross
0.0,2.0,2.0,0.0,6.0,6.0,1247.025582999413,2.0,1.0,phase_2,go,600.0,400.0,1.0,,,,,,,,,gray,diamond
0.0,4.0,4.0,0.0,5.0,5.0,1253.5960850000265,3.0,1.0,phase_2,go,600.0,400.0,1.0,,,,,,,,,white,I
0.0,7.0,3.0,1.0,6.0,6.0,286.6332909998164,3.0,1.0,phase_2,stop,600.0,400.0,3.0,,,,,,,,,magenta,flipped triangle
0.0,2.0,2.0,0.0,6.0,6.0,344.7308860004341,3.0,1.0,phase_2,go,600.0,350.0,1.0,,,,,,,,,gray,diamond
0.0,6.0,2.0,1.0,5.0,5.0,427.2100620000856,3.0,1.0,phase_2,stop,600.0,350.0,3.0,,,,,,,,,green,cross
0.0,1.0,1.0,0.0,5.0,5.0,565.7800539993332,3.0,1.0,phase_2,go,550.0,350.0,1.0,,,,,,,,,blue,circle
0.0,5.0,1.0,1.0,5.0,5.0,414.5132060002652,3.0,1.0,phase_2,stop,550.0,350.0,3.0,,,,,,,,,cyan,hexagon
0.0,5.0,1.0,1.0,5.0,5.0,867.3445599997649,3.0,1.0,phase_2,go,500.0,350.0,1.0,,,,,,,,,cyan,hexagon
0.0,8.0,4.0,1.0,5.0,5.0,789.7618639999564,3.0,1.0,phase_2,go,500.0,350.0,1.0,,,,,,,,,yellow,square
0.0,5.0,1.0,1.0,5.0,5.0,692.304838000382,3.0,1.0,phase_2,go,500.0,350.0,1.0,,,,,,,,,cyan,hexagon
0.0,5.0,1.0,1.0,5.0,5.0,366.33539200011,3.0,1.0,phase_2,stop,500.0,350.0,3.0,,,,,,,,,cyan,hexagon
0.0,1.0,1.0,0.0,6.0,6.0,462.6302819997363,3.0,1.0,phase_2,go,450.0,350.0,1.0,,,,,,,,,blue,circle
0.0,5.0,1.0,1.0,6.0,6.0,665.9919599997011,3.0,1.0,phase_2,go,450.0,350.0,1.0,,,,,,,,,cyan,hexagon
0.0,1.0,1.0,0.0,5.0,5.0,1113.5100640003657,3.0,1.0,phase_2,go,450.0,350.0,1.0,,,,,,,,,blue,circle
0.0,2.0,2.0,0.0,5.0,5.0,664.7045290001188,3.0,1.0,phase_2,go,450.0,350.0,1.0,,,,,,,,,gray,diamond
0.0,2.0,2.0,0.0,5.0,5.0,524.9522990006881,3.0,1.0,phase_2,go,450.0,350.0,1.0,,,,,,,,,gray,diamond
0.0,8.0,4.0,1.0,6.0,0.0,0.0,3.0,1.0,phase_2,stop,450.0,350.0,4.0,,,,,,,,,yellow,square
0.0,6.0,2.0,1.0,6.0,0.0,0.0,3.0,1.0,phase_2,stop,450.0,400.0,4.0,,,,,,,,,green,cross
0.0,4.0,4.0,0.0,6.0,6.0,825.0372379998225,3.0,1.0,phase_2,go,450.0,450.0,1.0,,,,,,,,,white,I
0.0,4.0,4.0,0.0,6.0,6.0,526.3840160005202,3.0,1.0,phase_2,go,450.0,450.0,1.0,,,,,,,,,white,I
0.0,6.0,2.0,1.0,5.0,0.0,0.0,3.0,1.0,phase_2,stop,450.0,450.0,4.0,,,,,,,,,green,cross
0.0,2.0,2.0,0.0,5.0,5.0,312.7487159999873,3.0,1.0,phase_2,go,500.0,450.0,1.0,,,,,,,,,gray,diamond
0.0,4.0,4.0,0.0,5.0,5.0,597.8399850000642,3.0,1.0,phase_2,go,500.0,450.0,1.0,,,,,,,,,white,I
0.0,1.0,1.0,0.0,5.0,5.0,573.4484330005216,3.0,1.0,phase_2,go,500.0,450.0,1.0,,,,,,,,,blue,circle
0.0,5.0,1.0,1.0,5.0,5.0,486.3689570001952,3.0,1.0,phase_2,stop,500.0,450.0,3.0,,,,,,,,,cyan,hexagon
0.0,3.0,3.0,0.0,5.0,5.0,771.0753589999513,3.0,1.0,phase_2,go,450.0,450.0,1.0,,,,,,,,,orange,triangle
0.0,8.0,4.0,1.0,5.0,0.0,0.0,3.0,1.0,phase_2,stop,450.0,450.0,4.0,,,,,,,,,yellow,square
0.0,4.0,4.0,0.0,6.0,6.0,339.2805650000809,3.0,1.0,phase_2,go,500.0,450.0,1.0,,,,,,,,,white,I
0.0,3.0,3.0,0.0,5.0,5.0,496.1275370005751,3.0,1.0,phase_2,go,500.0,450.0,1.0,,,,,,,,,orange,triangle
0.0,1.0,1.0,0.0,5.0,5.0,315.1681600002121,3.0,1.0,phase_2,go,500.0,450.0,1.0,,,,,,,,,blue,circle
0.0,7.0,3.0,1.0,5.0,5.0,321.6913799997201,3.0,1.0,phase_2,stop,500.0,450.0,3.0,,,,,,,,,magenta,flipped triangle
0.0,1.0,1.0,0.0,6.0,6.0,587.9257560000042,3.0,1.0,phase_2,go,450.0,450.0,1.0,,,,,,,,,blue,circle
0.0,3.0,3.0,0.0,6.0,6.0,433.8525519997347,3.0,1.0,phase_2,go,450.0,450.0,1.0,,,,,,,,,orange,triangle
0.0,7.0,3.0,1.0,6.0,6.0,475.3678349998154,3.0,1.0,phase_2,go,450.0,450.0,1.0,,,,,,,,,magenta,flipped triangle
0.0,6.0,2.0,1.0,5.0,5.0,310.6143760005579,3.0,1.0,phase_2,stop,450.0,450.0,3.0,,,,,,,,,green,cross
0.0,1.0,1.0,0.0,6.0,6.0,564.5327199999883,3.0,1.0,phase_2,go,400.0,450.0,1.0,,,,,,,,,blue,circle
0.0,5.0,1.0,1.0,6.0,6.0,372.588598999755,3.0,1.0,phase_2,go,400.0,450.0,1.0,,,,,,,,,cyan,hexagon
0.0,2.0,2.0,0.0,5.0,5.0,553.039391999846,4.0,1.0,phase_2,go,400.0,450.0,1.0,,,,,,,,,gray,diamond
0.0,3.0,3.0,0.0,5.0,5.0,950.6988840003032,4.0,1.0,phase_2,go,400.0,450.0,1.0,,,,,,,,,orange,triangle
0.0,5.0,1.0,1.0,6.0,6.0,511.39687199975015,4.0,1.0,phase_2,stop,400.0,450.0,3.0,,,,,,,,,cyan,hexagon
0.0,1.0,1.0,0.0,6.0,6.0,745.2703900007691,4.0,1.0,phase_2,go,400.0,400.0,1.0,,,,,,,,,blue,circle
0.0,5.0,1.0,1.0,6.0,6.0,556.7137799998818,4.0,1.0,phase_2,stop,400.0,400.0,3.0,,,,,,,,,cyan,hexagon
0.0,7.0,3.0,1.0,5.0,0.0,0.0,4.0,1.0,phase_2,stop,400.0,350.0,4.0,,,,,,,,,magenta,flipped triangle
0.0,1.0,1.0,0.0,5.0,5.0,943.2037920005314,4.0,1.0,phase_2,go,450.0,350.0,1.0,,,,,,,,,blue,circle
0.0,8.0,4.0,1.0,5.0,0.0,0.0,4.0,1.0,phase_2,stop,450.0,350.0,4.0,,,,,,,,,yellow,square
0.0,2.0,2.0,0.0,5.0,5.0,1083.92843799993,4.0,1.0,phase_2,go,500.0,350.0,1.0,,,,,,,,,gray,diamond
0.0,4.0,4.0,0.0,5.0,5.0,693.3187780005028,4.0,1.0,phase_2,go,500.0,350.0,1.0,,,,,,,,,white,I
0.0,8.0,4.0,1.0,5.0,5.0,615.7007000001613,4.0,1.0,phase_2,stop,500.0,350.0,3.0,,,,,,,,,yellow,square
0.0,7.0,3.0,1.0,5.0,0.0,0.0,4.0,1.0,phase_2,stop,450.0,350.0,4.0,,,,,,,,,magenta,flipped triangle
0.0,6.0,2.0,1.0,5.0,0.0,0.0,4.0,1.0,phase_2,stop,500.0,350.0,4.0,,,,,,,,,green,cross
0.0,3.0,3.0,0.0,6.0,6.0,674.9248280002575,4.0,1.0,phase_2,go,550.0,350.0,1.0,,,,,,,,,orange,triangle
0.0,3.0,3.0,0.0,5.0,5.0,879.6135169995978,4.0,1.0,phase_2,go,550.0,350.0,1.0,,,,,,,,,orange,triangle
0.0,1.0,1.0,0.0,5.0,5.0,453.8501159995576,4.0,1.0,phase_2,go,550.0,350.0,1.0,,,,,,,,,blue,circle
0.0,4.0,4.0,0.0,6.0,6.0,382.9355489997397,4.0,1.0,phase_2,go,550.0,350.0,1.0,,,,,,,,,white,I
0.0,8.0,4.0,1.0,6.0,6.0,264.3841809995138,4.0,1.0,phase_2,stop,550.0,350.0,3.0,,,,,,,,,yellow,square
0.0,2.0,2.0,0.0,5.0,5.0,500.95461000000796,4.0,1.0,phase_2,go,550.0,300.0,1.0,,,,,,,,,gray,diamond
0.0,4.0,4.0,0.0,6.0,6.0,770.8939320000354,4.0,1.0,phase_2,go,550.0,300.0,1.0,,,,,,,,,white,I
0.0,7.0,3.0,1.0,6.0,0.0,0.0,4.0,1.0,phase_2,stop,550.0,300.0,4.0,,,,,,,,,magenta,flipped triangle
0.0,6.0,2.0,1.0,6.0,0.0,0.0,4.0,1.0,phase_2,stop,550.0,350.0,4.0,,,,,,,,,green,cross
0.0,2.0,2.0,0.0,5.0,5.0,605.2164140000968,4.0,1.0,phase_2,go,550.0,400.0,1.0,,,,,,,,,gray,diamond
0.0,5.0,1.0,1.0,6.0,0.0,0.0,4.0,1.0,phase_2,stop,550.0,400.0,4.0,,,,,,,,,cyan,hexagon
0.0,4.0,4.0,0.0,6.0,6.0,733.2058570000299,4.0,1.0,phase_2,go,550.0,450.0,1.0,,,,,,,,,white,I
0.0,2.0,2.0,0.0,5.0,5.0,467.6169389995266,4.0,1.0,phase_2,go,550.0,450.0,1.0,,,,,,,,,gray,diamond
0.0,8.0,4.0,1.0,6.0,6.0,435.7991360002415,4.0,1.0,phase_2,go,550.0,450.0,1.0,,,,,,,,,yellow,square
0.0,2.0,2.0,0.0,5.0,5.0,361.0385649999443,4.0,1.0,phase_2,go,550.0,450.0,1.0,,,,,,,,,gray,diamond
0.0,7.0,3.0,1.0,5.0,5.0,242.8880450006545,4.0,1.0,phase_2,go,550.0,450.0,1.0,,,,,,,,,magenta,flipped triangle
0.0,7.0,3.0,1.0,5.0,5.0,309.6936770007232,4.0,1.0,phase_2,stop,550.0,450.0,3.0,,,,,,,,,magenta,flipped triangle
0.0,7.0,3.0,1.0,5.0,5.0,768.6360369998511,4.0,1.0,phase_2,stop,500.0,450.0,3.0,,,,,,,,,magenta,flipped triangle
0.0,2.0,2.0,0.0,6.0,6.0,521.8349389997456,4.0,1.0,phase_2,go,450.0,450.0,1.0,,,,,,,,,gray,diamond
0.0,4.0,4.0,0.0,5.0,5.0,820.3678700001547,4.0,1.0,phase_2,go,450.0,450.0,1.0,,,,,,,,,white,I
0.0,8.0,4.0,1.0,6.0,6.0,373.1504630004565,4.0,1.0,phase_2,stop,450.0,450.0,3.0,,,,,,,,,yellow,square
0.0,7.0,3.0,1.0,6.0,6.0,514.3484729996999,4.0,1.0,phase_2,go,450.0,400.0,1.0,,,,,,,,,magenta,flipped triangle
0.0,4.0,4.0,0.0,6.0,6.0,437.8771029996642,4.0,1.0,phase_2,go,450.0,400.0,1.0,,,,,,,,,white,I
0.0,2.0,2.0,0.0,6.0,5.0,838.4463810007219,5.0,1.0,phase_2,go,450.0,400.0,2.0,,,,,,,,,gray,diamond
0.0,1.0,1.0,0.0,5.0,5.0,578.312924999409,5.0,1.0,phase_2,go,450.0,400.0,1.0,,,,,,,,,blue,circle
0.0,4.0,4.0,0.0,6.0,6.0,346.6731039998194,5.0,1.0,phase_2,go,450.0,400.0,1.0,,,,,,,,,white,I
0.0,4.0,4.0,0.0,5.0,5.0,293.6792049995347,5.0,1.0,phase_2,go,450.0,400.0,1.0,,,,,,,,,white,I
0.0,8.0,4.0,1.0,5.0,5.0,383.3974910003235,5.0,1.0,phase_2,stop,450.0,400.0,3.0,,,,,,,,,yellow,square
0.0,6.0,2.0,1.0,6.0,6.0,456.8509479995555,5.0,1.0,phase_2,stop,400.0,400.0,3.0,,,,,,,,,green,cross
0.0,3.0,3.0,0.0,5.0,5.0,527.0643840003686,5.0,1.0,phase_2,go,400.0,350.0,1.0,,,,,,,,,orange,triangle
0.0,1.0,1.0,0.0,6.0,6.0,652.7958300002865,5.0,1.0,phase_2,go,400.0,350.0,1.0,,,,,,,,,blue,circle
0.0,5.0,1.0,1.0,6.0,0.0,0.0,5.0,1.0,phase_2,stop,400.0,350.0,4.0,,,,,,,,,cyan,hexagon
0.0,8.0,4.0,1.0,5.0,5.0,686.1972819997391,5.0,1.0,phase_2,stop,400.0,400.0,3.0,,,,,,,,,yellow,square
0.0,8.0,4.0,1.0,6.0,6.0,514.9810279999656,5.0,1.0,phase_2,go,350.0,400.0,1.0,,,,,,,,,yellow,square
0.0,6.0,2.0,1.0,5.0,5.0,407.8394620000836,5.0,1.0,phase_2,stop,350.0,400.0,3.0,,,,,,,,,green,cross
0.0,8.0,4.0,1.0,6.0,6.0,341.5369809999902,5.0,1.0,phase_2,stop,300.0,400.0,3.0,,,,,,,,,yellow,square
0.0,3.0,3.0,0.0,6.0,6.0,545.388143999844,5.0,1.0,phase_2,go,300.0,350.0,1.0,,,,,,,,,orange,triangle
0.0,1.0,1.0,0.0,5.0,5.0,518.2193069995265,5.0,1.0,phase_2,go,300.0,350.0,1.0,,,,,,,,,blue,circle
0.0,7.0,3.0,1.0,6.0,6.0,284.4424900004014,5.0,1.0,phase_2,go,300.0,350.0,1.0,,,,,,,,,magenta,flipped triangle
0.0,5.0,1.0,1.0,6.0,6.0,533.4038209994105,5.0,1.0,phase_2,stop,300.0,350.0,3.0,,,,,,,,,cyan,hexagon
0.0,8.0,4.0,1.0,5.0,0.0,0.0,5.0,1.0,phase_2,stop,300.0,300.0,4.0,,,,,,,,,yellow,square
0.0,7.0,3.0,1.0,6.0,0.0,0.0,5.0,1.0,phase_2,stop,350.0,300.0,4.0,,,,,,,,,magenta,flipped triangle
0.0,5.0,1.0,1.0,5.0,5.0,974.5725049997418,5.0,1.0,phase_2,go,350.0,350.0,1.0,,,,,,,,,cyan,hexagon
0.0,1.0,1.0,0.0,5.0,5.0,889.1388249994634,5.0,1.0,phase_2,go,350.0,350.0,1.0,,,,,,,,,blue,circle
0.0,8.0,4.0,1.0,6.0,6.0,898.4176650001245,5.0,1.0,phase_2,go,350.0,350.0,1.0,,,,,,,,,yellow,square
0.0,1.0,1.0,0.0,6.0,6.0,997.8515509992576,5.0,1.0,phase_2,go,350.0,350.0,1.0,,,,,,,,,blue,circle
0.0,1.0,1.0,0.0,5.0,5.0,357.4061500003154,5.0,1.0,phase_2,go,350.0,350.0,1.0,,,,,,,,,blue,circle
0.0,1.0,1.0,0.0,6.0,6.0,450.8733089996894,5.0,1.0,phase_2,go,350.0,350.0,1.0,,,,,,,,,blue,circle
0.0,5.0,1.0,1.0,6.0,6.0,395.1018830002795,5.0,1.0,phase_2,stop,350.0,350.0,3.0,,,,,,,,,cyan,hexagon
0.0,6.0,2.0,1.0,6.0,6.0,617.019201000403,5.0,1.0,phase_2,go,350.0,300.0,1.0,,,,,,,,,green,cross
0.0,3.0,3.0,0.0,6.0,6.0,561.090580000382,5.0,1.0,phase_2,go,350.0,300.0,1.0,,,,,,,,,orange,triangle
0.0,5.0,1.0,1.0,6.0,0.0,0.0,5.0,1.0,phase_2,stop,350.0,300.0,4.0,,,,,,,,,cyan,hexagon
0.0,4.0,4.0,0.0,5.0,5.0,543.8014329993166,5.0,1.0,phase_2,go,350.0,350.0,1.0,,,,,,,,,white,I
0.0,5.0,1.0,1.0,5.0,0.0,0.0,5.0,1.0,phase_2,stop,350.0,350.0,4.0,,,,,,,,,cyan,hexagon
0.0,1.0,1.0,0.0,5.0,5.0,514.4132200002787,5.0,1.0,phase_2,go,400.0,350.0,1.0,,,,,,,,,blue,circle
0.0,3.0,3.0,0.0,6.0,6.0,346.508268999969,5.0,1.0,phase_2,go,400.0,350.0,1.0,,,,,,,,,orange,triangle
0.0,3.0,3.0,0.0,6.0,6.0,635.0114300003042,5.0,1.0,phase_2,go,400.0,350.0,1.0,,,,,,,,,orange,triangle
0.0,1.0,1.0,0.0,6.0,6.0,657.6655439994283,5.0,1.0,phase_2,go,400.0,350.0,1.0,,,,,,,,,blue,circle
0.0,6.0,2.0,1.0,6.0,6.0,668.400143999861,5.0,1.0,phase_2,go,400.0,350.0,1.0,,,,,,,,,green,cross
0.0,8.0,4.0,1.0,6.0,0.0,0.0,6.0,1.0,phase_2,stop,400.0,350.0,4.0,,,,,,,,,yellow,square
0.0,5.0,1.0,1.0,6.0,6.0,491.6662679997898,6.0,1.0,phase_2,stop,400.0,400.0,3.0,,,,,,,,,cyan,hexagon
0.0,7.0,3.0,1.0,6.0,6.0,680.6240149999212,6.0,1.0,phase_2,go,400.0,350.0,1.0,,,,,,,,,magenta,flipped triangle
0.0,7.0,3.0,1.0,5.0,5.0,340.9215380006571,6.0,1.0,phase_2,stop,400.0,350.0,3.0,,,,,,,,,magenta,flipped triangle
0.0,4.0,4.0,0.0,6.0,6.0,496.9816829998308,6.0,1.0,phase_2,go,350.0,350.0,1.0,,,,,,,,,white,I
0.0,2.0,2.0,0.0,5.0,5.0,678.0777099993429,6.0,1.0,phase_2,go,350.0,350.0,1.0,,,,,,,,,gray,diamond
0.0,4.0,4.0,0.0,5.0,5.0,528.906028000165,6.0,1.0,phase_2,go,350.0,350.0,1.0,,,,,,,,,white,I
0.0,1.0,1.0,0.0,6.0,6.0,492.1626380000816,6.0,1.0,phase_2,go,350.0,350.0,1.0,,,,,,,,,blue,circle
0.0,6.0,2.0,1.0,5.0,5.0,656.9233890004398,6.0,1.0,phase_2,go,350.0,350.0,1.0,,,,,,,,,green,cross
0.0,6.0,2.0,1.0,6.0,0.0,0.0,6.0,1.0,phase_2,stop,350.0,350.0,4.0,,,,,,,,,green,cross
0.0,6.0,2.0,1.0,6.0,0.0,0.0,6.0,1.0,phase_2,stop,350.0,400.0,4.0,,,,,,,,,green,cross
0.0,3.0,3.0,0.0,5.0,5.0,484.9417049999829,6.0,1.0,phase_2,go,350.0,450.0,1.0,,,,,,,,,orange,triangle
0.0,5.0,1.0,1.0,5.0,5.0,454.7721339995405,6.0,1.0,phase_2,go,350.0,450.0,1.0,,,,,,,,,cyan,hexagon
0.0,6.0,2.0,1.0,6.0,0.0,0.0,6.0,1.0,phase_2,stop,350.0,450.0,4.0,,,,,,,,,green,cross
0.0,2.0,2.0,0.0,6.0,6.0,766.5484140006811,6.0,1.0,phase_2,go,350.0,500.0,1.0,,,,,,,,,gray,diamond
0.0,8.0,4.0,1.0,5.0,0.0,0.0,6.0,1.0,phase_2,stop,350.0,500.0,4.0,,,,,,,,,yellow,square
0.0,4.0,4.0,0.0,6.0,6.0,514.701420000165,6.0,1.0,phase_2,go,400.0,500.0,1.0,,,,,,,,,white,I
0.0,4.0,4.0,0.0,5.0,5.0,852.2945529994104,6.0,1.0,phase_2,go,400.0,500.0,1.0,,,,,,,,,white,I
0.0,2.0,2.0,0.0,6.0,6.0,778.9119320004829,6.0,1.0,phase_2,go,400.0,500.0,1.0,,,,,,,,,gray,diamond
0.0,1.0,1.0,0.0,6.0,6.0,636.7909919999875,6.0,1.0,phase_2,go,400.0,500.0,1.0,,,,,,,,,blue,circle
0.0,5.0,1.0,1.0,5.0,5.0,802.4847939996107,6.0,1.0,phase_2,go,400.0,500.0,1.0,,,,,,,,,cyan,hexagon
0.0,2.0,2.0,0.0,5.0,5.0,630.3443939996214,6.0,1.0,phase_2,go,400.0,500.0,1.0,,,,,,,,,gray,diamond
0.0,4.0,4.0,0.0,6.0,6.0,545.8692620004513,6.0,1.0,phase_2,go,400.0,500.0,1.0,,,,,,,,,white,I
0.0,5.0,1.0,1.0,5.0,0.0,0.0,6.0,1.0,phase_2,stop,400.0,500.0,4.0,,,,,,,,,cyan,hexagon
0.0,1.0,1.0,0.0,5.0,5.0,452.3659310007133,6.0,1.0,phase_2,go,450.0,500.0,1.0,,,,,,,,,blue,circle
0.0,8.0,4.0,1.0,6.0,6.0,480.4834630003824,6.0,1.0,phase_2,go,450.0,500.0,1.0,,,,,,,,,yellow,square
0.0,5.0,1.0,1.0,6.0,0.0,0.0,6.0,1.0,phase_2,stop,450.0,500.0,4.0,,,,,,,,,cyan,hexagon
0.0,8.0,4.0,1.0,6.0,6.0,705.8646240002417,6.0,1.0,phase_2,stop,450.0,550.0,3.0,,,,,,,,,yellow,square
0.0,1.0,1.0,0.0,5.0,5.0,426.4333159999296,6.0,1.0,phase_2,go,450.0,500.0,1.0,,,,,,,,,blue,circle
0.0,5.0,1.0,1.0,5.0,5.0,554.8954159994537,6.0,1.0,phase_2,stop,450.0,500.0,3.0,,,,,,,,,cyan,hexagon
0.0,7.0,3.0,1.0,5.0,5.0,575.797655000315,6.0,1.0,phase_2,stop,400.0,500.0,3.0,,,,,,,,,magenta,flipped triangle
0.0,2.0,2.0,0.0,6.0,6.0,428.1715429997348,6.0,1.0,phase_2,go,350.0,500.0,1.0,,,,,,,,,gray,diamond
0.0,8.0,4.0,1.0,5.0,0.0,0.0,6.0,1.0,phase_2,stop,350.0,500.0,4.0,,,,,,,,,yellow,square
0.0,6.0,2.0,1.0,5.0,5.0,478.3769870000469,6.0,1.0,phase_2,stop,400.0,500.0,3.0,,,,,,,,,green,cross
0.0,4.0,4.0,0.0,5.0,5.0,708.3410370005367,6.0,1.0,phase_2,go,350.0,500.0,1.0,,,,,,,,,white,I
0.0,8.0,4.0,1.0,6.0,6.0,590.2747879999879,6.0,1.0,phase_2,go,350.0,500.0,1.0,,,,,,,,,yellow,square
0.0,3.0,3.0,0.0,5.0,5.0,790.9993680004845,7.0,1.0,phase_2,go,350.0,500.0,1.0,,,,,,,,,orange,triangle
0.0,5.0,1.0,1.0,6.0,0.0,0.0,7.0,1.0,phase_2,stop,350.0,500.0,4.0,,,,,,,,,cyan,hexagon
0.0,3.0,3.0,0.0,5.0,5.0,560.3390529995522,7.0,1.0,phase_2,go,350.0,550.0,1.0,,,,,,,,,orange,triangle
0.0,3.0,3.0,0.0,6.0,6.0,568.6320899994826,7.0,1.0,phase_2,go,350.0,550.0,1.0,,,,,,,,,orange,triangle
0.0,8.0,4.0,1.0,6.0,6.0,364.9266760003229,7.0,1.0,phase_2,go,350.0,550.0,1.0,,,,,,,,,yellow,square
0.0,3.0,3.0,0.0,5.0,5.0,421.0657399999036,7.0,1.0,phase_2,go,350.0,550.0,1.0,,,,,,,,,orange,triangle
0.0,1.0,1.0,0.0,6.0,6.0,466.5675679998458,7.0,1.0,phase_2,go,350.0,550.0,1.0,,,,,,,,,blue,circle
0.0,5.0,1.0,1.0,5.0,5.0,473.172152999723,7.0,1.0,phase_2,stop,350.0,550.0,3.0,,,,,,,,,cyan,hexagon
0.0,3.0,3.0,0.0,5.0,5.0,484.9617999998372,7.0,1.0,phase_2,go,300.0,550.0,1.0,,,,,,,,,orange,triangle
0.0,3.0,3.0,0.0,5.0,5.0,413.9443949998167,7.0,1.0,phase_2,go,300.0,550.0,1.0,,,,,,,,,orange,triangle
0.0,4.0,4.0,0.0,6.0,6.0,566.198964999785,7.0,1.0,phase_2,go,300.0,550.0,1.0,,,,,,,,,white,I
0.0,7.0,3.0,1.0,5.0,0.0,0.0,7.0,1.0,phase_2,stop,300.0,550.0,4.0,,,,,,,,,magenta,flipped triangle
0.0,7.0,3.0,1.0,5.0,0.0,0.0,7.0,1.0,phase_2,stop,350.0,550.0,4.0,,,,,,,,,magenta,flipped triangle
0.0,2.0,2.0,0.0,6.0,6.0,667.5280679992284,7.0,1.0,phase_2,go,400.0,550.0,1.0,,,,,,,,,gray,diamond
0.0,3.0,3.0,0.0,6.0,6.0,897.1774290002941,7.0,1.0,phase_2,go,400.0,550.0,1.0,,,,,,,,,orange,triangle
0.0,3.0,3.0,0.0,5.0,5.0,718.0227550006748,7.0,1.0,phase_2,go,400.0,550.0,1.0,,,,,,,,,orange,triangle
0.0,1.0,1.0,0.0,5.0,5.0,987.5682659994708,7.0,1.0,phase_2,go,400.0,550.0,1.0,,,,,,,,,blue,circle
0.0,8.0,4.0,1.0,6.0,6.0,604.7435399996175,7.0,1.0,phase_2,go,400.0,550.0,1.0,,,,,,,,,yellow,square
0.0,3.0,3.0,0.0,6.0,6.0,472.4944480003614,7.0,1.0,phase_2,go,400.0,550.0,1.0,,,,,,,,,orange,triangle
0.0,8.0,4.0,1.0,6.0,6.0,541.3042569998652,7.0,1.0,phase_2,stop,400.0,550.0,3.0,,,,,,,,,yellow,square
0.0,7.0,3.0,1.0,6.0,6.0,1067.5332629998593,7.0,1.0,phase_2,go,400.0,500.0,1.0,,,,,,,,,magenta,flipped triangle
0.0,8.0,4.0,1.0,5.0,0.0,0.0,7.0,1.0,phase_2,stop,400.0,500.0,4.0,,,,,,,,,yellow,square
0.0,6.0,2.0,1.0,5.0,5.0,873.3063039999251,7.0,1.0,phase_2,go,450.0,500.0,1.0,,,,,,,,,green,cross
0.0,4.0,4.0,0.0,5.0,5.0,537.845219000701,7.0,1.0,phase_2,go,450.0,500.0,1.0,,,,,,,,,white,I
0.0,8.0,4.0,1.0,5.0,5.0,528.6741669997355,7.0,1.0,phase_2,stop,450.0,500.0,3.0,,,,,,,,,yellow,square
0.0,2.0,2.0,0.0,5.0,5.0,797.4391830002787,7.0,1.0,phase_2,go,400.0,500.0,1.0,,,,,,,,,gray,diamond
0.0,6.0,2.0,1.0,6.0,6.0,579.0004049995332,7.0,1.0,phase_2,go,400.0,500.0,1.0,,,,,,,,,green,cross
0.0,2.0,2.0,0.0,5.0,5.0,743.3315260004747,7.0,1.0,phase_2,go,400.0,500.0,1.0,,,,,,,,,gray,diamond
0.0,7.0,3.0,1.0,6.0,6.0,543.9427299997988,7.0,1.0,phase_2,stop,400.0,500.0,3.0,,,,,,,,,magenta,flipped triangle
0.0,3.0,3.0,0.0,6.0,6.0,723.7117869999565,7.0,1.0,phase_2,go,400.0,450.0,1.0,,,,,,,,,orange,triangle
0.0,2.0,2.0,0.0,6.0,6.0,716.5742369998043,7.0,1.0,phase_2,go,400.0,450.0,1.0,,,,,,,,,gray,diamond
0.0,1.0,1.0,0.0,5.0,5.0,532.8762259996438,7.0,1.0,phase_2,go,400.0,450.0,1.0,,,,,,,,,blue,circle
0.0,7.0,3.0,1.0,5.0,5.0,498.7746370006789,7.0,1.0,phase_2,stop,400.0,450.0,3.0,,,,,,,,,magenta,flipped triangle
0.0,3.0,3.0,0.0,6.0,6.0,552.4158529997294,7.0,1.0,phase_2,go,350.0,450.0,1.0,,,,,,,,,orange,triangle
0.0,7.0,3.0,1.0,6.0,0.0,0.0,7.0,1.0,phase_2,stop,350.0,450.0,4.0,,,,,,,,,magenta,flipped triangle
0.0,7.0,3.0,1.0,6.0,0.0,0.0,7.0,1.0,phase_2,stop,350.0,500.0,4.0,,,,,,,,,magenta,flipped triangle
0.0,6.0,2.0,1.0,5.0,0.0,0.0,8.0,1.0,phase_2,stop,350.0,550.0,4.0,,,,,,,,,green,cross
0.0,3.0,3.0,0.0,6.0,6.0,573.9810739996756,8.0,1.0,phase_2,go,400.0,550.0,1.0,,,,,,,,,orange,triangle
0.0,5.0,1.0,1.0,5.0,5.0,329.8769970006106,8.0,1.0,phase_2,stop,400.0,550.0,3.0,,,,,,,,,cyan,hexagon
0.0,8.0,4.0,1.0,5.0,0.0,0.0,8.0,1.0,phase_2,stop,350.0,550.0,4.0,,,,,,,,,yellow,square
0.0,3.0,3.0,0.0,6.0,6.0,755.6953630000862,8.0,1.0,phase_2,go,400.0,550.0,1.0,,,,,,,,,orange,triangle
0.0,5.0,1.0,1.0,5.0,0.0,0.0,8.0,1.0,phase_2,stop,400.0,550.0,4.0,,,,,,,,,cyan,hexagon
0.0,4.0,4.0,0.0,5.0,5.0,386.7037720001463,8.0,1.0,phase_2,go,450.0,550.0,1.0,,,,,,,,,white,I
0.0,5.0,1.0,1.0,6.0,6.0,299.4194659995628,8.0,1.0,phase_2,stop,450.0,550.0,3.0,,,,,,,,,cyan,hexagon
0.0,4.0,4.0,0.0,6.0,6.0,505.7821030004561,8.0,1.0,phase_2,go,450.0,500.0,1.0,,,,,,,,,white,I
0.0,4.0,4.0,0.0,5.0,5.0,559.5205170002373,8.0,1.0,phase_2,go,450.0,500.0,1.0,,,,,,,,,white,I
0.0,6.0,2.0,1.0,5.0,5.0,350.1389989996823,8.0,1.0,phase_2,stop,450.0,500.0,3.0,,,,,,,,,green,cross
0.0,6.0,2.0,1.0,5.0,0.0,0.0,8.0,1.0,phase_2,stop,400.0,500.0,4.0,,,,,,,,,green,cross
0.0,3.0,3.0,0.0,6.0,6.0,492.300539000098,8.0,1.0,phase_2,go,450.0,500.0,1.0,,,,,,,,,orange,triangle
0.0,1.0,1.0,0.0,6.0,6.0,559.1161080001257,8.0,1.0,phase_2,go,450.0,500.0,1.0,,,,,,,,,blue,circle
0.0,3.0,3.0,0.0,6.0,6.0,401.0707080005886,8.0,1.0,phase_2,go,450.0,500.0,1.0,,,,,,,,,orange,triangle
0.0,3.0,3.0,0.0,6.0,6.0,354.6238600001743,8.0,1.0,phase_2,go,450.0,500.0,1.0,,,,,,,,,orange,triangle
0.0,4.0,4.0,0.0,5.0,5.0,602.7392519999921,8.0,1.0,phase_2,go,450.0,500.0,1.0,,,,,,,,,white,I
0.0,6.0,2.0,1.0,6.0,6.0,369.8797649994958,8.0,1.0,phase_2,stop,450.0,500.0,3.0,,,,,,,,,green,cross
0.0,4.0,4.0,0.0,6.0,6.0,161.6696609999053,8.0,1.0,phase_2,go,450.0,450.0,1.0,,,,,,,,,white,I
0.0,5.0,1.0,1.0,6.0,6.0,439.8389609996229,8.0,1.0,phase_2,stop,450.0,450.0,3.0,,,,,,,,,cyan,hexagon
0.0,4.0,4.0,0.0,5.0,5.0,667.7709889991092,8.0,1.0,phase_2,go,450.0,400.0,1.0,,,,,,,,,white,I
0.0,6.0,2.0,1.0,6.0,0.0,0.0,8.0,1.0,phase_2,stop,450.0,400.0,4.0,,,,,,,,,green,cross
0.0,3.0,3.0,0.0,5.0,5.0,660.1157980003336,8.0,1.0,phase_2,go,450.0,450.0,1.0,,,,,,,,,orange,triangle
0.0,6.0,2.0,1.0,6.0,6.0,287.6105939994886,8.0,1.0,phase_2,stop,450.0,450.0,3.0,,,,,,,,,green,cross
0.0,6.0,2.0,1.0,5.0,0.0,0.0,8.0,1.0,phase_2,stop,450.0,400.0,4.0,,,,,,,,,green,cross
0.0,1.0,1.0,0.0,5.0,5.0,572.9924460001712,8.0,1.0,phase_2,go,500.0,400.0,1.0,,,,,,,,,blue,circle
0.0,8.0,4.0,1.0,5.0,5.0,535.0122250001732,8.0,1.0,phase_2,stop,500.0,400.0,3.0,,,,,,,,,yellow,square
0.0,2.0,2.0,0.0,6.0,6.0,854.6695830000317,8.0,1.0,phase_2,go,450.0,400.0,1.0,,,,,,,,,gray,diamond
0.0,6.0,2.0,1.0,5.0,0.0,0.0,8.0,1.0,phase_2,stop,450.0,400.0,4.0,,,,,,,,,green,cross
0.0,6.0,2.0,1.0,5.0,0.0,0.0,8.0,1.0,phase_2,stop,500.0,400.0,4.0,,,,,,,,,green,cross
0.0,6.0,2.0,1.0,5.0,5.0,919.3046880000112,8.0,1.0,phase_2,go,550.0,400.0,1.0,,,,,,,,,green,cross
0.0,8.0,4.0,1.0,6.0,0.0,0.0,8.0,1.0,phase_2,stop,550.0,400.0,4.0,,,,,,,,,yellow,square
0.0,1.0,1.0,0.0,6.0,6.0,694.649500000196,8.0,1.0,phase_2,go,550.0,450.0,1.0,,,,,,,,,blue,circle
0.0,5.0,1.0,1.0,5.0,5.0,585.8445280000524,8.0,1.0,phase_2,stop,550.0,450.0,3.0,,,,,,,,,cyan,hexagon
0.0,5.0,1.0,1.0,6.0,6.0,713.0128870003318,8.0,1.0,phase_2,stop,500.0,450.0,3.0,,,,,,,,,cyan,hexagon
0.0,4.0,4.0,0.0,5.0,5.0,607.9020560000572,8.0,1.0,phase_2,go,500.0,400.0,1.0,,,,,,,,,white,I
0.0,3.0,3.0,0.0,7.0,1.0,1204.9205759994948,1.0,2.0,phase_3,,,,,132.0,3.0,132.0,176.0,44.0,88.0,264.0,220.0,orange,triangle
0.0,4.0,4.0,0.0,7.0,6.0,1489.7249999994528,1.0,1.0,phase_3,,,,,216.0,4.0,324.0,270.0,108.0,162.0,54.0,216.0,white,I
0.0,7.0,3.0,1.0,7.0,2.0,3776.531785999396,1.0,1.0,phase_3,,,,,136.0,4.0,170.0,136.0,34.0,204.0,102.0,68.0,magenta,flipped triangle
0.0,2.0,2.0,0.0,7.0,2.0,3497.963190999144,1.0,1.0,phase_3,,,,,108.0,2.0,270.0,108.0,162.0,324.0,54.0,216.0,gray,diamond
0.0,2.0,2.0,0.0,7.0,6.0,4361.174701999516,1.0,1.0,phase_3,,,,,245.0,5.0,49.0,98.0,294.0,147.0,196.0,245.0,gray,diamond
0.0,7.0,3.0,1.0,7.0,1.0,4857.871823000096,1.0,1.0,phase_3,,,,,88.0,2.0,88.0,264.0,44.0,132.0,176.0,220.0,magenta,flipped triangle
0.0,1.0,1.0,0.0,7.0,1.0,3383.075375000772,1.0,1.0,phase_3,,,,,204.0,6.0,204.0,170.0,68.0,34.0,102.0,136.0,blue,circle
0.0,8.0,4.0,1.0,7.0,2.0,3813.985234000029,1.0,1.0,phase_3,,,,,264.0,6.0,44.0,264.0,88.0,176.0,132.0,220.0,yellow,square
0.0,1.0,1.0,0.0,7.0,4.0,2245.209048999641,1.0,1.0,phase_3,,,,,196.0,4.0,49.0,147.0,294.0,196.0,98.0,245.0,blue,circle
0.0,8.0,4.0,1.0,7.0,1.0,3180.401734000043,1.0,1.0,phase_3,,,,,204.0,6.0,204.0,136.0,170.0,102.0,34.0,68.0,yellow,square
0.0,5.0,1.0,1.0,7.0,3.0,3295.902548999948,1.0,1.0,phase_3,,,,,102.0,3.0,136.0,204.0,102.0,170.0,34.0,68.0,cyan,hexagon
0.0,5.0,1.0,1.0,7.0,5.0,2890.8986899996307,1.0,1.0,phase_3,,,,,196.0,4.0,98.0,49.0,147.0,245.0,196.0,294.0,cyan,hexagon
0.0,4.0,4.0,0.0,7.0,2.0,3005.332982999789,1.0,1.0,phase_3,,,,,220.0,5.0,132.0,220.0,44.0,88.0,176.0,264.0,white,I
0.0,7.0,3.0,1.0,7.0,1.0,965.3261530002056,1.0,2.0,phase_3,,,,,170.0,5.0,170.0,204.0,102.0,34.0,68.0,136.0,magenta,flipped triangle
0.0,3.0,3.0,0.0,7.0,5.0,1258.6582359999738,1.0,1.0,phase_3,,,,,108.0,2.0,216.0,162.0,324.0,54.0,108.0,270.0,orange,triangle
0.0,7.0,3.0,1.0,7.0,2.0,1333.790356999998,1.0,1.0,phase_3,,,,,196.0,4.0,98.0,196.0,294.0,49.0,147.0,245.0,magenta,flipped triangle
0.0,5.0,1.0,1.0,7.0,6.0,3954.227141000047,1.0,1.0,phase_3,,,,,132.0,3.0,88.0,264.0,44.0,220.0,176.0,132.0,cyan,hexagon
0.0,6.0,2.0,1.0,7.0,2.0,1662.7636779994646,1.0,1.0,phase_3,,,,,216.0,4.0,108.0,216.0,270.0,54.0,162.0,324.0,green,cross
0.0,5.0,1.0,1.0,7.0,3.0,3746.302853000088,1.0,1.0,phase_3,,,,,245.0,5.0,98.0,147.0,245.0,196.0,294.0,49.0,cyan,hexagon
0.0,4.0,4.0,0.0,7.0,4.0,1823.5205510000012,1.0,1.0,phase_3,,,,,88.0,2.0,132.0,264.0,44.0,88.0,220.0,176.0,white,I
0.0,8.0,4.0,1.0,7.0,4.0,3066.760240999429,2.0,1.0,phase_3,,,,,147.0,3.0,49.0,196.0,98.0,147.0,294.0,245.0,yellow,square
0.0,5.0,1.0,1.0,7.0,6.0,1324.9397370000224,2.0,1.0,phase_3,,,,,220.0,5.0,132.0,176.0,264.0,88.0,44.0,220.0,cyan,hexagon
0.0,3.0,3.0,0.0,7.0,1.0,2994.496976999472,2.0,1.0,phase_3,,,,,108.0,2.0,108.0,324.0,270.0,54.0,162.0,216.0,orange,triangle
0.0,4.0,4.0,0.0,7.0,4.0,2447.585875999721,2.0,1.0,phase_3,,,,,117.0,3.0,78.0,234.0,39.0,117.0,156.0,195.0,white,I
0.0,1.0,1.0,0.0,7.0,6.0,2717.288050999741,2.0,1.0,phase_3,,,,,78.0,2.0,195.0,39.0,156.0,117.0,234.0,78.0,blue,circle
0.0,1.0,1.0,0.0,7.0,2.0,964.750494999862,2.0,1.0,phase_3,,,,,156.0,4.0,78.0,156.0,195.0,117.0,234.0,39.0,blue,circle
0.0,7.0,3.0,1.0,7.0,3.0,1606.692760000442,2.0,1.0,phase_3,,,,,117.0,3.0,234.0,156.0,117.0,39.0,195.0,78.0,magenta,flipped triangle
0.0,3.0,3.0,0.0,7.0,1.0,1454.3750060001912,2.0,1.0,phase_3,,,,,132.0,3.0,132.0,264.0,176.0,220.0,44.0,88.0,orange,triangle
0.0,7.0,3.0,1.0,7.0,3.0,2246.12589499975,2.0,1.0,phase_3,,,,,176.0,4.0,220.0,44.0,176.0,264.0,132.0,88.0,magenta,flipped triangle
0.0,6.0,2.0,1.0,7.0,4.0,2458.040145000268,2.0,1.0,phase_3,,,,,324.0,6.0,270.0,108.0,54.0,324.0,216.0,162.0,green,cross
0.0,2.0,2.0,0.0,7.0,1.0,3301.5271619997293,2.0,1.0,phase_3,,,,,102.0,3.0,102.0,34.0,170.0,204.0,68.0,136.0,gray,diamond
0.0,6.0,2.0,1.0,7.0,3.0,3110.3322859999025,2.0,1.0,phase_3,,,,,234.0,6.0,117.0,78.0,234.0,195.0,39.0,156.0,green,cross
0.0,8.0,4.0,1.0,7.0,3.0,2471.956581000086,2.0,1.0,phase_3,,,,,216.0,4.0,270.0,54.0,216.0,162.0,108.0,324.0,yellow,square
0.0,3.0,3.0,0.0,7.0,6.0,2514.088052000261,2.0,1.0,phase_3,,,,,147.0,3.0,49.0,245.0,98.0,294.0,196.0,147.0,orange,triangle
0.0,5.0,1.0,1.0,7.0,5.0,2391.6691929998706,2.0,1.0,phase_3,,,,,270.0,5.0,54.0,324.0,162.0,216.0,270.0,108.0,cyan,hexagon
0.0,2.0,2.0,0.0,7.0,3.0,1186.5066580003258,2.0,1.0,phase_3,,,,,220.0,5.0,132.0,44.0,220.0,176.0,88.0,264.0,gray,diamond
0.0,8.0,4.0,1.0,7.0,2.0,1149.5345370003631,2.0,1.0,phase_3,,,,,294.0,6.0,98.0,294.0,245.0,147.0,49.0,196.0,yellow,square
0.0,4.0,4.0,0.0,7.0,5.0,969.7368429997368,2.0,1.0,phase_3,,,,,294.0,6.0,49.0,98.0,245.0,196.0,294.0,147.0,white,I
0.0,8.0,4.0,1.0,7.0,1.0,759.3072020008549,2.0,1.0,phase_3,,,,,68.0,2.0,68.0,136.0,102.0,170.0,204.0,34.0,yellow,square
0.0,2.0,2.0,0.0,7.0,3.0,1557.350492000296,2.0,1.0,phase_3,,,,,162.0,3.0,54.0,324.0,162.0,216.0,270.0,108.0,gray,diamond
0.0,1.0,1.0,0.0,7.0,4.0,859.5709410001291,3.0,1.0,phase_3,,,,,108.0,2.0,270.0,324.0,54.0,108.0,162.0,216.0,blue,circle
0.0,8.0,4.0,1.0,7.0,1.0,1244.7423129997333,3.0,1.0,phase_3,,,,,132.0,3.0,132.0,44.0,264.0,88.0,176.0,220.0,yellow,square
0.0,3.0,3.0,0.0,7.0,2.0,1494.8472959995345,3.0,1.0,phase_3,,,,,204.0,6.0,136.0,204.0,170.0,68.0,102.0,34.0,orange,triangle
0.0,1.0,1.0,0.0,7.0,2.0,3455.8034020001287,3.0,1.0,phase_3,,,,,176.0,4.0,132.0,176.0,264.0,44.0,220.0,88.0,blue,circle
0.0,3.0,3.0,0.0,7.0,1.0,1245.7185089997438,3.0,1.0,phase_3,,,,,195.0,5.0,195.0,234.0,78.0,117.0,39.0,156.0,orange,triangle
0.0,1.0,1.0,0.0,7.0,6.0,1356.293318999633,3.0,1.0,phase_3,,,,,245.0,5.0,49.0,196.0,294.0,98.0,147.0,245.0,blue,circle
0.0,6.0,2.0,1.0,7.0,3.0,2571.0197030002746,3.0,1.0,phase_3,,,,,294.0,6.0,196.0,245.0,294.0,147.0,98.0,49.0,green,cross
0.0,6.0,2.0,1.0,7.0,6.0,1417.3238479997965,3.0,1.0,phase_3,,,,,117.0,3.0,195.0,234.0,39.0,156.0,78.0,117.0,green,cross
0.0,7.0,3.0,1.0,7.0,3.0,2362.866638000014,3.0,1.0,phase_3,,,,,117.0,3.0,78.0,195.0,117.0,39.0,156.0,234.0,magenta,flipped triangle
0.0,2.0,2.0,0.0,7.0,3.0,3418.4924829996817,3.0,1.0,phase_3,,,,,78.0,2.0,234.0,117.0,78.0,156.0,39.0,195.0,gray,diamond
0.0,2.0,2.0,0.0,7.0,6.0,3093.009997000081,3.0,1.0,phase_3,,,,,98.0,2.0,49.0,294.0,196.0,147.0,245.0,98.0,gray,diamond
0.0,8.0,4.0,1.0,7.0,6.0,2247.588207000262,3.0,1.0,phase_3,,,,,108.0,2.0,162.0,324.0,216.0,54.0,270.0,108.0,yellow,square
0.0,6.0,2.0,1.0,7.0,2.0,3499.709030000304,3.0,1.0,phase_3,,,,,170.0,5.0,136.0,170.0,34.0,102.0,204.0,68.0,green,cross
0.0,5.0,1.0,1.0,7.0,1.0,911.7524699995556,3.0,1.0,phase_3,,,,,170.0,5.0,170.0,102.0,34.0,204.0,136.0,68.0,cyan,hexagon
0.0,5.0,1.0,1.0,7.0,2.0,2170.177005000369,3.0,1.0,phase_3,,,,,270.0,5.0,108.0,270.0,216.0,54.0,324.0,162.0,cyan,hexagon
0.0,7.0,3.0,1.0,7.0,4.0,2168.1710180000664,3.0,1.0,phase_3,,,,,98.0,2.0,294.0,245.0,196.0,98.0,147.0,49.0,magenta,flipped triangle
0.0,2.0,2.0,0.0,7.0,3.0,1150.5619690005915,3.0,1.0,phase_3,,,,,264.0,6.0,176.0,220.0,264.0,88.0,132.0,44.0,gray,diamond
0.0,4.0,4.0,0.0,7.0,4.0,2899.1422319995763,3.0,1.0,phase_3,,,,,216.0,4.0,162.0,324.0,54.0,216.0,270.0,108.0,white,I
0.0,6.0,2.0,1.0,7.0,3.0,2393.678027000533,3.0,1.0,phase_3,,,,,196.0,4.0,294.0,98.0,196.0,245.0,147.0,49.0,green,cross
0.0,7.0,3.0,1.0,7.0,6.0,2439.6238780000203,3.0,1.0,phase_3,,,,,324.0,6.0,54.0,108.0,216.0,270.0,162.0,324.0,magenta,flipped triangle
0.0,1.0,1.0,0.0,7.0,2.0,2014.346909999404,4.0,1.0,phase_3,,,,,102.0,3.0,68.0,102.0,204.0,136.0,170.0,34.0,blue,circle
0.0,7.0,3.0,1.0,7.0,1.0,4313.849147999463,4.0,1.0,phase_3,,,,,270.0,5.0,270.0,216.0,54.0,324.0,162.0,108.0,magenta,flipped triangle
0.0,3.0,3.0,0.0,7.0,4.0,4246.623356999407,4.0,1.0,phase_3,,,,,195.0,5.0,117.0,39.0,234.0,195.0,78.0,156.0,orange,triangle
0.0,4.0,4.0,0.0,7.0,2.0,3194.0728339995985,4.0,1.0,phase_3,,,,,102.0,3.0,170.0,102.0,136.0,68.0,204.0,34.0,white,I
0.0,8.0,4.0,1.0,7.0,6.0,3526.001190999523,4.0,1.0,phase_3,,,,,156.0,4.0,117.0,195.0,234.0,78.0,39.0,156.0,yellow,square
0.0,1.0,1.0,0.0,7.0,1.0,3375.3891550004478,4.0,1.0,phase_3,,,,,88.0,2.0,88.0,44.0,176.0,264.0,220.0,132.0,blue,circle
0.0,5.0,1.0,1.0,7.0,1.0,1315.4620120003528,4.0,1.0,phase_3,,,,,234.0,6.0,234.0,39.0,195.0,78.0,117.0,156.0,cyan,hexagon
0.0,4.0,4.0,0.0,7.0,2.0,1691.288641999563,4.0,1.0,phase_3,,,,,170.0,5.0,204.0,170.0,68.0,34.0,136.0,102.0,white,I
0.0,6.0,2.0,1.0,7.0,4.0,2957.963130999815,4.0,1.0,phase_3,,,,,170.0,5.0,204.0,68.0,136.0,170.0,102.0,34.0,green,cross
0.0,4.0,4.0,0.0,7.0,5.0,1908.225997000045,4.0,1.0,phase_3,,,,,196.0,4.0,294.0,98.0,49.0,245.0,196.0,147.0,white,I
0.0,2.0,2.0,0.0,7.0,3.0,2010.4713600003379,4.0,1.0,phase_3,,,,,170.0,5.0,204.0,136.0,170.0,68.0,34.0,102.0,gray,diamond
0.0,3.0,3.0,0.0,7.0,1.0,4416.283960999863,4.0,1.0,phase_3,,,,,98.0,2.0,98.0,196.0,49.0,147.0,294.0,245.0,orange,triangle
0.0,1.0,1.0,0.0,7.0,6.0,3001.7533229993205,4.0,1.0,phase_3,,,,,108.0,2.0,270.0,324.0,216.0,54.0,162.0,108.0,blue,circle
0.0,3.0,3.0,0.0,7.0,6.0,2073.8178569999945,4.0,1.0,phase_3,,,,,204.0,6.0,34.0,102.0,68.0,170.0,136.0,204.0,orange,triangle
0.0,5.0,1.0,1.0,7.0,4.0,2990.1066989996248,4.0,1.0,phase_3,,,,,234.0,6.0,156.0,117.0,195.0,234.0,78.0,39.0,cyan,hexagon
0.0,6.0,2.0,1.0,7.0,5.0,3810.9322640002574,4.0,1.0,phase_3,,,,,264.0,6.0,88.0,220.0,132.0,44.0,264.0,176.0,green,cross
0.0,8.0,4.0,1.0,7.0,3.0,4966.2317679994885,4.0,1.0,phase_3,,,,,195.0,5.0,156.0,117.0,195.0,78.0,234.0,39.0,yellow,square
0.0,4.0,4.0,0.0,7.0,1.0,2933.921859000293,4.0,1.0,phase_3,,,,,117.0,3.0,117.0,39.0,78.0,195.0,156.0,234.0,white,I
0.0,2.0,2.0,0.0,7.0,5.0,1561.0481160001657,4.0,1.0,phase_3,,,,,117.0,3.0,156.0,234.0,195.0,39.0,117.0,78.0,gray,diamond
0.0,6.0,2.0,1.0,7.0,4.0,2756.7693460005103,4.0,1.0,phase_3,,,,,132.0,3.0,264.0,44.0,88.0,132.0,176.0,220.0,green,cross
