raw_reward_magnitude,stim_reward,stepwise_reward_magnitude,paired_with_stopping,stim_location,response,reaction_time,block,num_trial_presentations,which_phase,stop_signal_trial_type,left_SSD,right_SSD,accuracy,chosen_bidding_amount,chosen_bidding_level,possible_bid_1,possible_bid_2,possible_bid_3,possible_bid_4,possible_bid_5,possible_bid_6,color_text,shape_text
119.0,2.0,2.0,0.0,2.0,2.0,297.992293000334,1.0,1.0,phase_1,,,,,,,,,,,,,yellow,square
38.0,5.0,1.0,1.0,2.0,2.0,306.6105080001762,1.0,1.0,phase_1,,,,,,,,,,,,,cyan,cross
58.0,5.0,1.0,1.0,3.0,3.0,279.254291000143,1.0,1.0,phase_1,,,,,,,,,,,,,cyan,cross
34.0,5.0,1.0,1.0,3.0,3.0,269.9090109999815,1.0,1.0,phase_1,,,,,,,,,,,,,cyan,cross
190.0,3.0,3.0,0.0,3.0,3.0,330.1760470003501,1.0,1.0,phase_1,,,,,,,,,,,,,magenta,triangle
84.0,6.0,2.0,1.0,3.0,3.0,277.6099050001903,1.0,1.0,phase_1,,,,,,,,,,,,,green,circle
0.0,7.0,0.0,1.0,2.0,2.0,254.64053299992878,1.0,1.0,phase_1,,,,,,,,,,,,,white,flipped triangle
206.0,3.0,3.0,0.0,2.0,2.0,309.9874740000814,1.0,1.0,phase_1,,,,,,,,,,,,,magenta,triangle
385.0,8.0,4.0,1.0,4.0,4.0,327.5654929998381,1.0,1.0,phase_1,,,,,,,,,,,,,blue,I
190.0,7.0,3.0,1.0,1.0,1.0,271.0390500001267,1.0,1.0,phase_1,,,,,,,,,,,,,white,flipped triangle
115.0,2.0,2.0,0.0,3.0,3.0,237.8168190002725,1.0,1.0,phase_1,,,,,,,,,,,,,yellow,square
41.0,5.0,1.0,1.0,4.0,4.0,340.1964710001266,1.0,2.0,phase_1,,,,,,,,,,,,,cyan,cross
97.0,2.0,2.0,0.0,3.0,3.0,320.2473129999816,1.0,1.0,phase_1,,,,,,,,,,,,,yellow,square
103.0,2.0,2.0,0.0,4.0,4.0,262.0384820002073,1.0,1.0,phase_1,,,,,,,,,,,,,yellow,square
419.0,8.0,4.0,1.0,2.0,2.0,278.8017849998141,1.0,1.0,phase_1,,,,,,,,,,,,,blue,I
77.0,2.0,2.0,0.0,1.0,1.0,338.1361859997014,1.0,1.0,phase_1,,,,,,,,,,,,,yellow,square
219.0,3.0,3.0,0.0,3.0,3.0,331.4695590001975,1.0,1.0,phase_1,,,,,,,,,,,,,magenta,triangle
212.0,3.0,3.0,0.0,3.0,3.0,309.9206969995975,1.0,1.0,phase_1,,,,,,,,,,,,,magenta,triangle
0.0,2.0,0.0,0.0,1.0,1.0,285.9802519997174,1.0,1.0,phase_1,,,,,,,,,,,,,yellow,square
418.0,8.0,4.0,1.0,1.0,1.0,266.0418159998698,1.0,1.0,phase_1,,,,,,,,,,,,,blue,I
378.0,8.0,4.0,1.0,3.0,3.0,293.0766499998753,1.0,1.0,phase_1,,,,,,,,,,,,,blue,I
218.0,7.0,3.0,1.0,1.0,1.0,297.6505689998703,1.0,1.0,phase_1,,,,,,,,,,,,,white,flipped triangle
68.0,5.0,1.0,1.0,4.0,4.0,284.9333530002695,1.0,1.0,phase_1,,,,,,,,,,,,,cyan,cross
403.0,4.0,4.0,0.0,4.0,4.0,359.9643820002711,1.0,1.0,phase_1,,,,,,,,,,,,,gray,diamond
391.0,8.0,4.0,1.0,1.0,1.0,266.98021600032,1.0,1.0,phase_1,,,,,,,,,,,,,blue,I
414.0,4.0,4.0,0.0,1.0,1.0,359.8726969999006,1.0,1.0,phase_1,,,,,,,,,,,,,gray,diamond
58.0,1.0,1.0,0.0,2.0,2.0,309.1344219997154,1.0,1.0,phase_1,,,,,,,,,,,,,orange,hexagon
215.0,7.0,3.0,1.0,1.0,1.0,366.7753649997394,1.0,1.0,phase_1,,,,,,,,,,,,,white,flipped triangle
75.0,2.0,2.0,0.0,4.0,4.0,334.9478560003263,1.0,1.0,phase_1,,,,,,,,,,,,,yellow,square
392.0,8.0,4.0,1.0,3.0,3.0,314.675662999889,1.0,1.0,phase_1,,,,,,,,,,,,,blue,I
40.0,5.0,1.0,1.0,2.0,2.0,299.0407389997926,1.0,1.0,phase_1,,,,,,,,,,,,,cyan,cross
0.0,4.0,0.0,0.0,3.0,3.0,277.9743420001068,1.0,1.0,phase_1,,,,,,,,,,,,,gray,diamond
189.0,7.0,3.0,1.0,4.0,4.0,290.8914449999429,1.0,1.0,phase_1,,,,,,,,,,,,,white,flipped triangle
67.0,1.0,1.0,0.0,3.0,3.0,307.0205640001404,1.0,1.0,phase_1,,,,,,,,,,,,,orange,hexagon
407.0,8.0,4.0,1.0,3.0,3.0,318.5832350000055,1.0,1.0,phase_1,,,,,,,,,,,,,blue,I
0.0,2.0,0.0,0.0,3.0,3.0,249.1597389998787,1.0,1.0,phase_1,,,,,,,,,,,,,yellow,square
69.0,1.0,1.0,0.0,2.0,2.0,263.8595839998743,1.0,1.0,phase_1,,,,,,,,,,,,,orange,hexagon
0.0,3.0,0.0,0.0,1.0,1.0,261.4799660000244,1.0,1.0,phase_1,,,,,,,,,,,,,magenta,triangle
48.0,1.0,1.0,0.0,4.0,4.0,295.8141649996832,1.0,1.0,phase_1,,,,,,,,,,,,,orange,hexagon
377.0,4.0,4.0,0.0,4.0,4.0,394.6555510001417,1.0,1.0,phase_1,,,,,,,,,,,,,gray,diamond
0.0,3.0,0.0,0.0,3.0,3.0,305.9215079997557,1.0,1.0,phase_1,,,,,,,,,,,,,magenta,triangle
94.0,6.0,2.0,1.0,3.0,3.0,251.5383420000034,1.0,1.0,phase_1,,,,,,,,,,,,,green,circle
414.0,8.0,4.0,1.0,1.0,1.0,253.4135759997298,1.0,1.0,phase_1,,,,,,,,,,,,,blue,I
214.0,3.0,3.0,0.0,1.0,1.0,303.3043440000256,1.0,1.0,phase_1,,,,,,,,,,,,,magenta,triangle
405.0,8.0,4.0,1.0,1.0,1.0,271.6267480000169,1.0,1.0,phase_1,,,,,,,,,,,,,blue,I
218.0,7.0,3.0,1.0,3.0,3.0,296.1936470001092,1.0,1.0,phase_1,,,,,,,,,,,,,white,flipped triangle
209.0,7.0,3.0,1.0,1.0,1.0,276.3534470000195,1.0,1.0,phase_1,,,,,,,,,,,,,white,flipped triangle
89.0,6.0,2.0,1.0,1.0,1.0,252.8827910000473,1.0,1.0,phase_1,,,,,,,,,,,,,green,circle
0.0,8.0,0.0,1.0,2.0,2.0,295.6203640001149,1.0,1.0,phase_1,,,,,,,,,,,,,blue,I
89.0,2.0,2.0,0.0,1.0,1.0,262.5964529997873,1.0,1.0,phase_1,,,,,,,,,,,,,yellow,square
0.0,1.0,0.0,0.0,3.0,3.0,280.367730999842,1.0,1.0,phase_1,,,,,,,,,,,,,orange,hexagon
31.0,5.0,1.0,1.0,2.0,2.0,329.2510940000284,1.0,1.0,phase_1,,,,,,,,,,,,,cyan,cross
75.0,6.0,2.0,1.0,4.0,4.0,301.4039460003914,1.0,1.0,phase_1,,,,,,,,,,,,,green,circle
192.0,7.0,3.0,1.0,3.0,3.0,306.825822999599,1.0,1.0,phase_1,,,,,,,,,,,,,white,flipped triangle
36.0,5.0,1.0,1.0,2.0,2.0,329.1945050000322,1.0,2.0,phase_1,,,,,,,,,,,,,cyan,cross
0.0,7.0,0.0,1.0,1.0,1.0,313.9274109998951,1.0,1.0,phase_1,,,,,,,,,,,,,white,flipped triangle
398.0,4.0,4.0,0.0,2.0,2.0,310.6004679998477,1.0,1.0,phase_1,,,,,,,,,,,,,gray,diamond
0.0,1.0,0.0,0.0,1.0,1.0,285.6672939997224,1.0,1.0,phase_1,,,,,,,,,,,,,orange,hexagon
388.0,8.0,4.0,1.0,4.0,4.0,325.3932779998649,1.0,1.0,phase_1,,,,,,,,,,,,,blue,I
110.0,2.0,2.0,0.0,3.0,3.0,284.7189650001382,1.0,1.0,phase_1,,,,,,,,,,,,,yellow,square
53.0,1.0,1.0,0.0,3.0,3.0,309.4631889998709,1.0,1.0,phase_1,,,,,,,,,,,,,orange,hexagon
119.0,6.0,2.0,1.0,2.0,2.0,304.4845859999441,1.0,1.0,phase_1,,,,,,,,,,,,,green,circle
82.0,2.0,2.0,0.0,1.0,1.0,287.8399420001187,1.0,1.0,phase_1,,,,,,,,,,,,,yellow,square
84.0,6.0,2.0,1.0,3.0,3.0,336.6384670002844,1.0,1.0,phase_1,,,,,,,,,,,,,green,circle
122.0,2.0,2.0,0.0,2.0,2.0,273.5657930002162,1.0,1.0,phase_1,,,,,,,,,,,,,yellow,square
177.0,3.0,3.0,0.0,4.0,4.0,373.3164479999686,1.0,1.0,phase_1,,,,,,,,,,,,,magenta,triangle
385.0,4.0,4.0,0.0,1.0,1.0,342.2263170000406,1.0,1.0,phase_1,,,,,,,,,,,,,gray,diamond
398.0,8.0,4.0,1.0,1.0,1.0,308.4014829996704,1.0,1.0,phase_1,,,,,,,,,,,,,blue,I
424.0,4.0,4.0,0.0,2.0,2.0,272.4926900000355,1.0,1.0,phase_1,,,,,,,,,,,,,gray,diamond
401.0,4.0,4.0,0.0,3.0,3.0,281.1350970000603,1.0,1.0,phase_1,,,,,,,,,,,,,gray,diamond
212.0,7.0,3.0,1.0,2.0,2.0,275.5099930000142,1.0,1.0,phase_1,,,,,,,,,,,,,white,flipped triangle
50.0,5.0,1.0,1.0,4.0,4.0,275.4241769998771,1.0,1.0,phase_1,,,,,,,,,,,,,cyan,cross
0.0,8.0,0.0,1.0,1.0,1.0,284.7700240004087,1.0,1.0,phase_1,,,,,,,,,,,,,blue,I
48.0,5.0,1.0,1.0,4.0,4.0,382.9626149999967,1.0,2.0,phase_1,,,,,,,,,,,,,cyan,cross
205.0,3.0,3.0,0.0,4.0,4.0,319.9434749999454,1.0,1.0,phase_1,,,,,,,,,,,,,magenta,triangle
61.0,5.0,1.0,1.0,4.0,4.0,285.2227089997541,1.0,1.0,phase_1,,,,,,,,,,,,,cyan,cross
197.0,7.0,3.0,1.0,2.0,2.0,279.8190509997766,1.0,1.0,phase_1,,,,,,,,,,,,,white,flipped triangle
208.0,3.0,3.0,0.0,3.0,3.0,336.2440949999836,1.0,1.0,phase_1,,,,,,,,,,,,,magenta,triangle
418.0,4.0,4.0,0.0,1.0,1.0,325.972295000156,1.0,1.0,phase_1,,,,,,,,,,,,,gray,diamond
224.0,7.0,3.0,1.0,4.0,4.0,337.5040920000174,1.0,1.0,phase_1,,,,,,,,,,,,,white,flipped triangle
75.0,6.0,2.0,1.0,3.0,3.0,344.0790719996585,1.0,1.0,phase_1,,,,,,,,,,,,,green,circle
34.0,1.0,1.0,0.0,1.0,1.0,314.7863670001243,1.0,1.0,phase_1,,,,,,,,,,,,,orange,hexagon
403.0,8.0,4.0,1.0,2.0,2.0,294.2601679997096,1.0,1.0,phase_1,,,,,,,,,,,,,blue,I
103.0,2.0,2.0,0.0,4.0,4.0,352.2779220002121,1.0,1.0,phase_1,,,,,,,,,,,,,yellow,square
417.0,4.0,4.0,0.0,2.0,2.0,297.0209439999962,1.0,1.0,phase_1,,,,,,,,,,,,,gray,diamond
70.0,5.0,1.0,1.0,1.0,1.0,318.5130639999443,1.0,1.0,phase_1,,,,,,,,,,,,,cyan,cross
0.0,5.0,0.0,1.0,4.0,4.0,362.2072289999778,1.0,1.0,phase_1,,,,,,,,,,,,,cyan,cross
105.0,6.0,2.0,1.0,2.0,2.0,338.0715419998523,1.0,1.0,phase_1,,,,,,,,,,,,,green,circle
75.0,1.0,1.0,0.0,1.0,1.0,354.501159999927,1.0,1.0,phase_1,,,,,,,,,,,,,orange,hexagon
0.0,4.0,0.0,0.0,3.0,3.0,303.5104479999972,1.0,1.0,phase_1,,,,,,,,,,,,,gray,diamond
175.0,7.0,3.0,1.0,3.0,3.0,325.33652300026,1.0,1.0,phase_1,,,,,,,,,,,,,white,flipped triangle
62.0,1.0,1.0,0.0,4.0,4.0,311.9911479998336,1.0,1.0,phase_1,,,,,,,,,,,,,orange,hexagon
0.0,5.0,0.0,1.0,2.0,2.0,351.8601060000037,1.0,1.0,phase_1,,,,,,,,,,,,,cyan,cross
0.0,5.0,0.0,1.0,4.0,4.0,330.9409779999441,1.0,1.0,phase_1,,,,,,,,,,,,,cyan,cross
54.0,5.0,1.0,1.0,1.0,1.0,286.4474129996779,1.0,1.0,phase_1,,,,,,,,,,,,,cyan,cross
407.0,4.0,4.0,0.0,3.0,3.0,260.3076320001491,1.0,1.0,phase_1,,,,,,,,,,,,,gray,diamond
0.0,5.0,0.0,1.0,4.0,4.0,285.0197330003539,1.0,1.0,phase_1,,,,,,,,,,,,,cyan,cross
51.0,5.0,1.0,1.0,1.0,1.0,262.1852249999392,1.0,1.0,phase_1,,,,,,,,,,,,,cyan,cross
75.0,2.0,2.0,0.0,2.0,2.0,312.6592399999026,1.0,1.0,phase_1,,,,,,,,,,,,,yellow,square
41.0,1.0,1.0,0.0,4.0,4.0,298.4750499999791,1.0,1.0,phase_1,,,,,,,,,,,,,orange,hexagon
87.0,2.0,2.0,0.0,3.0,3.0,331.8379009997443,2.0,1.0,phase_1,,,,,,,,,,,,,yellow,square
0.0,6.0,0.0,1.0,3.0,3.0,265.6277240002964,2.0,1.0,phase_1,,,,,,,,,,,,,green,circle
420.0,4.0,4.0,0.0,4.0,4.0,290.6199439999,2.0,1.0,phase_1,,,,,,,,,,,,,gray,diamond
0.0,7.0,0.0,1.0,4.0,4.0,289.2302939999354,2.0,1.0,phase_1,,,,,,,,,,,,,white,flipped triangle
197.0,3.0,3.0,0.0,1.0,1.0,305.6154860000788,2.0,1.0,phase_1,,,,,,,,,,,,,magenta,triangle
123.0,6.0,2.0,1.0,3.0,3.0,333.3437100000083,2.0,1.0,phase_1,,,,,,,,,,,,,green,circle
0.0,6.0,0.0,1.0,1.0,1.0,322.5015620000704,2.0,1.0,phase_1,,,,,,,,,,,,,green,circle
0.0,3.0,0.0,0.0,2.0,2.0,323.5784350003996,2.0,1.0,phase_1,,,,,,,,,,,,,magenta,triangle
0.0,5.0,0.0,1.0,1.0,1.0,404.2744710000079,2.0,1.0,phase_1,,,,,,,,,,,,,cyan,cross
123.0,2.0,2.0,0.0,1.0,1.0,357.4833890002082,2.0,1.0,phase_1,,,,,,,,,,,,,yellow,square
0.0,7.0,0.0,1.0,3.0,3.0,460.785013000077,2.0,1.0,phase_1,,,,,,,,,,,,,white,flipped triangle
413.0,8.0,4.0,1.0,3.0,3.0,423.4950070003833,2.0,1.0,phase_1,,,,,,,,,,,,,blue,I
123.0,2.0,2.0,0.0,3.0,3.0,397.3127710000881,2.0,1.0,phase_1,,,,,,,,,,,,,yellow,square
0.0,8.0,0.0,1.0,2.0,2.0,364.6704599996155,2.0,1.0,phase_1,,,,,,,,,,,,,blue,I
412.0,8.0,4.0,1.0,4.0,4.0,334.4954150002195,2.0,1.0,phase_1,,,,,,,,,,,,,blue,I
80.0,6.0,2.0,1.0,4.0,4.0,313.3647210001982,2.0,1.0,phase_1,,,,,,,,,,,,,green,circle
71.0,5.0,1.0,1.0,1.0,1.0,314.1873869999472,2.0,1.0,phase_1,,,,,,,,,,,,,cyan,cross
391.0,4.0,4.0,0.0,1.0,1.0,300.362146000225,2.0,1.0,phase_1,,,,,,,,,,,,,gray,diamond
59.0,1.0,1.0,0.0,1.0,1.0,318.6433830001078,2.0,1.0,phase_1,,,,,,,,,,,,,orange,hexagon
104.0,6.0,2.0,1.0,1.0,1.0,316.8954319999102,2.0,1.0,phase_1,,,,,,,,,,,,,green,circle
0.0,8.0,0.0,1.0,3.0,3.0,319.973181000023,2.0,1.0,phase_1,,,,,,,,,,,,,blue,I
0.0,5.0,0.0,1.0,3.0,3.0,347.3048689997995,2.0,1.0,phase_1,,,,,,,,,,,,,cyan,cross
0.0,7.0,0.0,1.0,3.0,3.0,292.5192119996609,2.0,1.0,phase_1,,,,,,,,,,,,,white,flipped triangle
177.0,7.0,3.0,1.0,1.0,1.0,277.3598290000336,2.0,1.0,phase_1,,,,,,,,,,,,,white,flipped triangle
41.0,1.0,1.0,0.0,2.0,2.0,327.4975189997349,2.0,1.0,phase_1,,,,,,,,,,,,,orange,hexagon
65.0,1.0,1.0,0.0,4.0,4.0,384.2218709996814,2.0,1.0,phase_1,,,,,,,,,,,,,orange,hexagon
186.0,3.0,3.0,0.0,3.0,3.0,327.8696550000859,2.0,1.0,phase_1,,,,,,,,,,,,,magenta,triangle
102.0,2.0,2.0,0.0,3.0,3.0,256.7204990000391,2.0,1.0,phase_1,,,,,,,,,,,,,yellow,square
392.0,4.0,4.0,0.0,1.0,1.0,243.367082000077,2.0,1.0,phase_1,,,,,,,,,,,,,gray,diamond
0.0,1.0,0.0,0.0,2.0,2.0,300.10349999975,2.0,1.0,phase_1,,,,,,,,,,,,,orange,hexagon
0.0,3.0,0.0,0.0,2.0,2.0,311.3359400003901,2.0,1.0,phase_1,,,,,,,,,,,,,magenta,triangle
59.0,5.0,1.0,1.0,1.0,1.0,332.9358349997164,2.0,1.0,phase_1,,,,,,,,,,,,,cyan,cross
0.0,4.0,0.0,0.0,3.0,3.0,372.4194840001473,2.0,1.0,phase_1,,,,,,,,,,,,,gray,diamond
218.0,3.0,3.0,0.0,1.0,1.0,303.2203010002376,2.0,1.0,phase_1,,,,,,,,,,,,,magenta,triangle
198.0,7.0,3.0,1.0,1.0,1.0,304.0482249998604,2.0,1.0,phase_1,,,,,,,,,,,,,white,flipped triangle
61.0,5.0,1.0,1.0,2.0,2.0,378.7539999998444,2.0,1.0,phase_1,,,,,,,,,,,,,cyan,cross
99.0,2.0,2.0,0.0,1.0,1.0,307.6249979999375,2.0,1.0,phase_1,,,,,,,,,,,,,yellow,square
200.0,3.0,3.0,0.0,1.0,1.0,292.8055860002132,2.0,1.0,phase_1,,,,,,,,,,,,,magenta,triangle
25.0,5.0,1.0,1.0,1.0,1.0,311.735346000205,2.0,1.0,phase_1,,,,,,,,,,,,,cyan,cross
413.0,4.0,4.0,0.0,4.0,4.0,437.5316720002047,2.0,2.0,phase_1,,,,,,,,,,,,,gray,diamond
41.0,5.0,1.0,1.0,3.0,3.0,368.3190169999761,2.0,1.0,phase_1,,,,,,,,,,,,,cyan,cross
104.0,2.0,2.0,0.0,1.0,1.0,346.1379139998826,2.0,1.0,phase_1,,,,,,,,,,,,,yellow,square
0.0,2.0,0.0,0.0,1.0,1.0,366.4001049996841,2.0,1.0,phase_1,,,,,,,,,,,,,yellow,square
117.0,2.0,2.0,0.0,4.0,4.0,298.2360920000246,2.0,1.0,phase_1,,,,,,,,,,,,,yellow,square
0.0,4.0,0.0,0.0,1.0,1.0,293.5941269997784,2.0,1.0,phase_1,,,,,,,,,,,,,gray,diamond
382.0,8.0,4.0,1.0,2.0,2.0,383.3255180002197,2.0,1.0,phase_1,,,,,,,,,,,,,blue,I
196.0,3.0,3.0,0.0,4.0,4.0,316.7773329996635,2.0,1.0,phase_1,,,,,,,,,,,,,magenta,triangle
0.0,4.0,0.0,0.0,1.0,1.0,306.5946570000051,2.0,1.0,phase_1,,,,,,,,,,,,,gray,diamond
77.0,6.0,2.0,1.0,4.0,4.0,316.3996960001896,2.0,1.0,phase_1,,,,,,,,,,,,,green,circle
420.0,4.0,4.0,0.0,3.0,3.0,367.795419000231,2.0,1.0,phase_1,,,,,,,,,,,,,gray,diamond
70.0,1.0,1.0,0.0,1.0,1.0,321.7332200001692,2.0,1.0,phase_1,,,,,,,,,,,,,orange,hexagon
59.0,5.0,1.0,1.0,1.0,1.0,362.435319999804,2.0,1.0,phase_1,,,,,,,,,,,,,cyan,cross
420.0,8.0,4.0,1.0,1.0,1.0,380.252783999822,2.0,1.0,phase_1,,,,,,,,,,,,,blue,I
378.0,8.0,4.0,1.0,3.0,3.0,316.1098750001656,2.0,1.0,phase_1,,,,,,,,,,,,,blue,I
388.0,4.0,4.0,0.0,4.0,4.0,326.4021969998794,2.0,1.0,phase_1,,,,,,,,,,,,,gray,diamond
186.0,7.0,3.0,1.0,3.0,3.0,337.8351110000039,2.0,1.0,phase_1,,,,,,,,,,,,,white,flipped triangle
217.0,7.0,3.0,1.0,4.0,4.0,281.6424719999304,2.0,1.0,phase_1,,,,,,,,,,,,,white,flipped triangle
184.0,3.0,3.0,0.0,2.0,2.0,282.5869570001487,2.0,1.0,phase_1,,,,,,,,,,,,,magenta,triangle
0.0,1.0,0.0,0.0,1.0,1.0,319.8899479998545,2.0,1.0,phase_1,,,,,,,,,,,,,orange,hexagon
0.0,2.0,0.0,0.0,1.0,1.0,312.4295679999704,2.0,1.0,phase_1,,,,,,,,,,,,,yellow,square
0.0,4.0,0.0,0.0,3.0,3.0,304.0681649999897,2.0,1.0,phase_1,,,,,,,,,,,,,gray,diamond
0.0,8.0,0.0,1.0,3.0,3.0,304.4470269996964,2.0,1.0,phase_1,,,,,,,,,,,,,blue,I
64.0,1.0,1.0,0.0,4.0,4.0,314.3870940002671,2.0,1.0,phase_1,,,,,,,,,,,,,orange,hexagon
31.0,1.0,1.0,0.0,3.0,3.0,309.4877509997786,2.0,1.0,phase_1,,,,,,,,,,,,,orange,hexagon
198.0,3.0,3.0,0.0,2.0,2.0,274.4863010002518,2.0,1.0,phase_1,,,,,,,,,,,,,magenta,triangle
221.0,3.0,3.0,0.0,3.0,3.0,285.7932850001816,2.0,1.0,phase_1,,,,,,,,,,,,,magenta,triangle
76.0,6.0,2.0,1.0,1.0,1.0,286.6274820003127,2.0,1.0,phase_1,,,,,,,,,,,,,green,circle
75.0,5.0,1.0,1.0,4.0,4.0,296.3790969997717,2.0,1.0,phase_1,,,,,,,,,,,,,cyan,cross
123.0,2.0,2.0,0.0,3.0,3.0,281.6454680000788,2.0,1.0,phase_1,,,,,,,,,,,,,yellow,square
99.0,2.0,2.0,0.0,2.0,2.0,265.2742499999476,2.0,1.0,phase_1,,,,,,,,,,,,,yellow,square
417.0,8.0,4.0,1.0,1.0,1.0,290.2674900001329,2.0,1.0,phase_1,,,,,,,,,,,,,blue,I
377.0,8.0,4.0,1.0,4.0,4.0,299.8608190000595,2.0,1.0,phase_1,,,,,,,,,,,,,blue,I
122.0,6.0,2.0,1.0,1.0,1.0,280.3937170001518,2.0,1.0,phase_1,,,,,,,,,,,,,green,circle
0.0,6.0,0.0,1.0,1.0,1.0,299.6749180001643,2.0,1.0,phase_1,,,,,,,,,,,,,green,circle
0.0,8.0,0.0,1.0,4.0,4.0,310.1202420002664,2.0,1.0,phase_1,,,,,,,,,,,,,blue,I
40.0,1.0,1.0,0.0,1.0,1.0,267.3330050001823,2.0,1.0,phase_1,,,,,,,,,,,,,orange,hexagon
0.0,6.0,0.0,1.0,1.0,1.0,297.6532010002302,2.0,1.0,phase_1,,,,,,,,,,,,,green,circle
404.0,4.0,4.0,0.0,2.0,2.0,287.4607809999361,2.0,1.0,phase_1,,,,,,,,,,,,,gray,diamond
178.0,3.0,3.0,0.0,4.0,4.0,316.5718110003581,2.0,2.0,phase_1,,,,,,,,,,,,,magenta,triangle
85.0,6.0,2.0,1.0,1.0,1.0,345.8402220003336,2.0,2.0,phase_1,,,,,,,,,,,,,green,circle
34.0,5.0,1.0,1.0,1.0,1.0,341.2746660001176,2.0,1.0,phase_1,,,,,,,,,,,,,cyan,cross
90.0,2.0,2.0,0.0,1.0,1.0,332.7719359999719,2.0,1.0,phase_1,,,,,,,,,,,,,yellow,square
397.0,8.0,4.0,1.0,3.0,3.0,333.8229569999384,2.0,1.0,phase_1,,,,,,,,,,,,,blue,I
0.0,6.0,0.0,1.0,3.0,3.0,304.4589119999727,2.0,1.0,phase_1,,,,,,,,,,,,,green,circle
0.0,2.0,0.0,0.0,2.0,2.0,306.408164000004,2.0,1.0,phase_1,,,,,,,,,,,,,yellow,square
378.0,4.0,4.0,0.0,2.0,2.0,320.5939460003719,2.0,1.0,phase_1,,,,,,,,,,,,,gray,diamond
387.0,4.0,4.0,0.0,2.0,2.0,325.1397009998982,2.0,1.0,phase_1,,,,,,,,,,,,,gray,diamond
424.0,8.0,4.0,1.0,3.0,3.0,426.9664650000777,2.0,1.0,phase_1,,,,,,,,,,,,,blue,I
25.0,1.0,1.0,0.0,3.0,3.0,339.0230519999022,2.0,1.0,phase_1,,,,,,,,,,,,,orange,hexagon
112.0,2.0,2.0,0.0,2.0,2.0,323.9812080000774,2.0,1.0,phase_1,,,,,,,,,,,,,yellow,square
123.0,6.0,2.0,1.0,2.0,2.0,362.2303259999171,2.0,1.0,phase_1,,,,,,,,,,,,,green,circle
407.0,4.0,4.0,0.0,3.0,3.0,339.4640919996163,2.0,1.0,phase_1,,,,,,,,,,,,,gray,diamond
394.0,4.0,4.0,0.0,2.0,2.0,376.7085069998757,2.0,1.0,phase_1,,,,,,,,,,,,,gray,diamond
67.0,5.0,1.0,1.0,1.0,1.0,353.2490569996298,2.0,1.0,phase_1,,,,,,,,,,,,,cyan,cross
34.0,1.0,1.0,0.0,1.0,1.0,347.5489600000401,2.0,1.0,phase_1,,,,,,,,,,,,,orange,hexagon
112.0,6.0,2.0,1.0,2.0,2.0,349.3217430000186,2.0,1.0,phase_1,,,,,,,,,,,,,green,circle
46.0,5.0,1.0,1.0,2.0,2.0,301.4400009997189,2.0,1.0,phase_1,,,,,,,,,,,,,cyan,cross
61.0,1.0,1.0,0.0,4.0,4.0,307.2479809998185,2.0,1.0,phase_1,,,,,,,,,,,,,orange,hexagon
195.0,3.0,3.0,0.0,4.0,4.0,288.9948559995901,2.0,1.0,phase_1,,,,,,,,,,,,,magenta,triangle
46.0,1.0,1.0,0.0,2.0,2.0,311.4124609992359,2.0,1.0,phase_1,,,,,,,,,,,,,orange,hexagon
97.0,6.0,2.0,1.0,1.0,1.0,512.515935999545,3.0,1.0,phase_1,,,,,,,,,,,,,green,circle
77.0,6.0,2.0,1.0,2.0,2.0,282.7224949996889,3.0,1.0,phase_1,,,,,,,,,,,,,green,circle
378.0,8.0,4.0,1.0,1.0,1.0,306.1034590000417,3.0,1.0,phase_1,,,,,,,,,,,,,blue,I
124.0,6.0,2.0,1.0,1.0,1.0,258.554904000448,3.0,1.0,phase_1,,,,,,,,,,,,,green,circle
0.0,5.0,0.0,1.0,3.0,3.0,254.19949099978112,3.0,1.0,phase_1,,,,,,,,,,,,,cyan,cross
0.0,6.0,0.0,1.0,2.0,2.0,266.9792659999075,3.0,1.0,phase_1,,,,,,,,,,,,,green,circle
388.0,8.0,4.0,1.0,1.0,1.0,272.0278780006993,3.0,1.0,phase_1,,,,,,,,,,,,,blue,I
0.0,2.0,0.0,0.0,4.0,4.0,297.138800000539,3.0,1.0,phase_1,,,,,,,,,,,,,yellow,square
382.0,4.0,4.0,0.0,1.0,1.0,249.9983910001901,3.0,1.0,phase_1,,,,,,,,,,,,,gray,diamond
0.0,3.0,0.0,0.0,2.0,2.0,241.9041420007488,3.0,1.0,phase_1,,,,,,,,,,,,,magenta,triangle
420.0,8.0,4.0,1.0,4.0,4.0,396.5375940006197,3.0,1.0,phase_1,,,,,,,,,,,,,blue,I
29.0,1.0,1.0,0.0,2.0,2.0,278.853804999926,3.0,1.0,phase_1,,,,,,,,,,,,,orange,hexagon
102.0,6.0,2.0,1.0,1.0,1.0,283.254523999858,3.0,1.0,phase_1,,,,,,,,,,,,,green,circle
28.0,1.0,1.0,0.0,2.0,2.0,270.4693350005982,3.0,1.0,phase_1,,,,,,,,,,,,,orange,hexagon
0.0,3.0,0.0,0.0,4.0,4.0,283.3535839999967,3.0,1.0,phase_1,,,,,,,,,,,,,magenta,triangle
179.0,7.0,3.0,1.0,1.0,1.0,277.3850710000261,3.0,1.0,phase_1,,,,,,,,,,,,,white,flipped triangle
0.0,6.0,0.0,1.0,3.0,3.0,247.2745139994003,3.0,1.0,phase_1,,,,,,,,,,,,,green,circle
39.0,1.0,1.0,0.0,4.0,4.0,296.8228569998246,3.0,1.0,phase_1,,,,,,,,,,,,,orange,hexagon
192.0,3.0,3.0,0.0,2.0,2.0,289.9194889996579,3.0,1.0,phase_1,,,,,,,,,,,,,magenta,triangle
218.0,3.0,3.0,0.0,4.0,4.0,314.465647000361,3.0,1.0,phase_1,,,,,,,,,,,,,magenta,triangle
183.0,3.0,3.0,0.0,2.0,2.0,284.0168809998431,3.0,1.0,phase_1,,,,,,,,,,,,,magenta,triangle
0.0,7.0,0.0,1.0,4.0,4.0,285.439690000203,3.0,1.0,phase_1,,,,,,,,,,,,,white,flipped triangle
51.0,1.0,1.0,0.0,3.0,3.0,300.2660849997483,3.0,1.0,phase_1,,,,,,,,,,,,,orange,hexagon
178.0,3.0,3.0,0.0,3.0,3.0,297.549075000461,3.0,1.0,phase_1,,,,,,,,,,,,,magenta,triangle
218.0,7.0,3.0,1.0,3.0,3.0,304.1527870000209,3.0,1.0,phase_1,,,,,,,,,,,,,white,flipped triangle
61.0,1.0,1.0,0.0,3.0,3.0,296.5758649997951,3.0,1.0,phase_1,,,,,,,,,,,,,orange,hexagon
180.0,7.0,3.0,1.0,4.0,4.0,309.1345440006989,3.0,1.0,phase_1,,,,,,,,,,,,,white,flipped triangle
85.0,2.0,2.0,0.0,4.0,4.0,307.0186590002777,3.0,1.0,phase_1,,,,,,,,,,,,,yellow,square
0.0,5.0,0.0,1.0,2.0,2.0,281.581406999976,3.0,1.0,phase_1,,,,,,,,,,,,,cyan,cross
398.0,4.0,4.0,0.0,2.0,2.0,331.4339299995481,3.0,1.0,phase_1,,,,,,,,,,,,,gray,diamond
0.0,1.0,0.0,0.0,4.0,4.0,322.9453140002079,3.0,1.0,phase_1,,,,,,,,,,,,,orange,hexagon
378.0,4.0,4.0,0.0,4.0,4.0,273.2299959998272,3.0,1.0,phase_1,,,,,,,,,,,,,gray,diamond
0.0,4.0,0.0,0.0,3.0,3.0,356.4818080003533,3.0,1.0,phase_1,,,,,,,,,,,,,gray,diamond
0.0,6.0,0.0,1.0,4.0,4.0,449.8212250000506,3.0,1.0,phase_1,,,,,,,,,,,,,green,circle
0.0,7.0,0.0,1.0,4.0,4.0,320.0470259998837,3.0,1.0,phase_1,,,,,,,,,,,,,white,flipped triangle
407.0,8.0,4.0,1.0,2.0,2.0,287.5373739998395,3.0,1.0,phase_1,,,,,,,,,,,,,blue,I
419.0,4.0,4.0,0.0,4.0,4.0,302.4893049996535,3.0,1.0,phase_1,,,,,,,,,,,,,gray,diamond
0.0,1.0,0.0,0.0,3.0,3.0,280.0949359998412,3.0,1.0,phase_1,,,,,,,,,,,,,orange,hexagon
186.0,3.0,3.0,0.0,1.0,1.0,325.371369000095,3.0,1.0,phase_1,,,,,,,,,,,,,magenta,triangle
213.0,3.0,3.0,0.0,1.0,1.0,335.1790260003326,3.0,1.0,phase_1,,,,,,,,,,,,,magenta,triangle
195.0,7.0,3.0,1.0,3.0,3.0,306.5727670000342,3.0,1.0,phase_1,,,,,,,,,,,,,white,flipped triangle
87.0,6.0,2.0,1.0,4.0,4.0,250.4780680001204,3.0,1.0,phase_1,,,,,,,,,,,,,green,circle
110.0,6.0,2.0,1.0,2.0,2.0,322.1511189994999,3.0,1.0,phase_1,,,,,,,,,,,,,green,circle
0.0,7.0,0.0,1.0,2.0,2.0,328.3533799994984,3.0,1.0,phase_1,,,,,,,,,,,,,white,flipped triangle
116.0,2.0,2.0,0.0,2.0,2.0,309.6061220003321,3.0,1.0,phase_1,,,,,,,,,,,,,yellow,square
55.0,5.0,1.0,1.0,4.0,4.0,262.5999469992166,3.0,1.0,phase_1,,,,,,,,,,,,,cyan,cross
0.0,4.0,0.0,0.0,3.0,3.0,316.3723289999325,3.0,1.0,phase_1,,,,,,,,,,,,,gray,diamond
208.0,7.0,3.0,1.0,2.0,2.0,289.6146419998331,3.0,1.0,phase_1,,,,,,,,,,,,,white,flipped triangle
0.0,4.0,0.0,0.0,2.0,2.0,290.2934520006965,3.0,1.0,phase_1,,,,,,,,,,,,,gray,diamond
376.0,8.0,4.0,1.0,4.0,4.0,279.2163639996943,3.0,1.0,phase_1,,,,,,,,,,,,,blue,I
50.0,5.0,1.0,1.0,3.0,3.0,332.216000999324,3.0,1.0,phase_1,,,,,,,,,,,,,cyan,cross
71.0,1.0,1.0,0.0,3.0,3.0,348.2309090004492,3.0,1.0,phase_1,,,,,,,,,,,,,orange,hexagon
94.0,2.0,2.0,0.0,4.0,4.0,376.8642900004124,3.0,1.0,phase_1,,,,,,,,,,,,,yellow,square
404.0,8.0,4.0,1.0,2.0,2.0,369.7063959998559,3.0,1.0,phase_1,,,,,,,,,,,,,blue,I
180.0,3.0,3.0,0.0,4.0,4.0,324.1519969997171,3.0,1.0,phase_1,,,,,,,,,,,,,magenta,triangle
31.0,5.0,1.0,1.0,1.0,1.0,308.6979420004354,3.0,1.0,phase_1,,,,,,,,,,,,,cyan,cross
38.0,5.0,1.0,1.0,2.0,2.0,324.1338449997784,3.0,1.0,phase_1,,,,,,,,,,,,,cyan,cross
0.0,5.0,0.0,1.0,3.0,3.0,337.6411529998222,3.0,1.0,phase_1,,,,,,,,,,,,,cyan,cross
0.0,2.0,0.0,0.0,3.0,3.0,371.4545159991758,3.0,1.0,phase_1,,,,,,,,,,,,,yellow,square
209.0,3.0,3.0,0.0,2.0,2.0,416.2838369993551,3.0,1.0,phase_1,,,,,,,,,,,,,magenta,triangle
71.0,5.0,1.0,1.0,3.0,3.0,418.799728000522,3.0,1.0,phase_1,,,,,,,,,,,,,cyan,cross
405.0,4.0,4.0,0.0,2.0,2.0,407.3204240003178,3.0,1.0,phase_1,,,,,,,,,,,,,gray,diamond
0.0,8.0,0.0,1.0,3.0,3.0,346.1731329998656,3.0,1.0,phase_1,,,,,,,,,,,,,blue,I
184.0,7.0,3.0,1.0,2.0,2.0,321.5194429994881,3.0,1.0,phase_1,,,,,,,,,,,,,white,flipped triangle
119.0,6.0,2.0,1.0,4.0,4.0,332.326512999316,3.0,1.0,phase_1,,,,,,,,,,,,,green,circle
99.0,6.0,2.0,1.0,4.0,4.0,491.1490149997917,3.0,1.0,phase_1,,,,,,,,,,,,,green,circle
387.0,8.0,4.0,1.0,2.0,2.0,322.6536870006384,3.0,1.0,phase_1,,,,,,,,,,,,,blue,I
200.0,3.0,3.0,0.0,1.0,1.0,330.9280019993821,3.0,1.0,phase_1,,,,,,,,,,,,,magenta,triangle
200.0,7.0,3.0,1.0,2.0,2.0,328.2582839992756,3.0,1.0,phase_1,,,,,,,,,,,,,white,flipped triangle
71.0,1.0,1.0,0.0,1.0,1.0,282.8612109997266,3.0,1.0,phase_1,,,,,,,,,,,,,orange,hexagon
193.0,7.0,3.0,1.0,3.0,3.0,319.5435119996546,3.0,1.0,phase_1,,,,,,,,,,,,,white,flipped triangle
82.0,6.0,2.0,1.0,4.0,4.0,277.351570999599,3.0,1.0,phase_1,,,,,,,,,,,,,green,circle
0.0,7.0,0.0,1.0,2.0,2.0,271.972241000185,3.0,1.0,phase_1,,,,,,,,,,,,,white,flipped triangle
0.0,2.0,0.0,0.0,4.0,4.0,326.0796969998409,3.0,1.0,phase_1,,,,,,,,,,,,,yellow,square
385.0,4.0,4.0,0.0,3.0,3.0,244.2649280001205,3.0,1.0,phase_1,,,,,,,,,,,,,gray,diamond
119.0,2.0,2.0,0.0,1.0,1.0,315.9804950000762,3.0,1.0,phase_1,,,,,,,,,,,,,yellow,square
0.0,3.0,0.0,0.0,1.0,1.0,354.7851720004473,3.0,1.0,phase_1,,,,,,,,,,,,,magenta,triangle
178.0,7.0,3.0,1.0,1.0,1.0,328.1826200000068,3.0,1.0,phase_1,,,,,,,,,,,,,white,flipped triangle
385.0,8.0,4.0,1.0,3.0,3.0,334.9867970000559,3.0,1.0,phase_1,,,,,,,,,,,,,blue,I
0.0,8.0,0.0,1.0,2.0,2.0,350.2161799997338,3.0,1.0,phase_1,,,,,,,,,,,,,blue,I
401.0,8.0,4.0,1.0,1.0,1.0,322.4411839992172,3.0,1.0,phase_1,,,,,,,,,,,,,blue,I
0.0,4.0,0.0,0.0,2.0,2.0,342.7891729998009,3.0,1.0,phase_1,,,,,,,,,,,,,gray,diamond
68.0,1.0,1.0,0.0,1.0,1.0,287.0477559999926,3.0,1.0,phase_1,,,,,,,,,,,,,orange,hexagon
98.0,2.0,2.0,0.0,3.0,3.0,308.7324120006087,3.0,1.0,phase_1,,,,,,,,,,,,,yellow,square
117.0,6.0,2.0,1.0,3.0,3.0,337.793708999925,3.0,1.0,phase_1,,,,,,,,,,,,,green,circle
64.0,5.0,1.0,1.0,3.0,3.0,285.40901100041077,3.0,1.0,phase_1,,,,,,,,,,,,,cyan,cross
76.0,2.0,2.0,0.0,1.0,1.0,383.6023110006863,3.0,1.0,phase_1,,,,,,,,,,,,,yellow,square
0.0,1.0,0.0,0.0,4.0,4.0,323.0249669995828,3.0,1.0,phase_1,,,,,,,,,,,,,orange,hexagon
218.0,3.0,3.0,0.0,3.0,3.0,359.7126770000614,3.0,1.0,phase_1,,,,,,,,,,,,,magenta,triangle
99.0,6.0,2.0,1.0,4.0,4.0,306.4762119993247,3.0,1.0,phase_1,,,,,,,,,,,,,green,circle
418.0,4.0,4.0,0.0,1.0,1.0,302.5375019997227,3.0,1.0,phase_1,,,,,,,,,,,,,gray,diamond
29.0,5.0,1.0,1.0,3.0,3.0,313.1735139995726,3.0,1.0,phase_1,,,,,,,,,,,,,cyan,cross
219.0,7.0,3.0,1.0,4.0,4.0,273.2848089999606,3.0,1.0,phase_1,,,,,,,,,,,,,white,flipped triangle
30.0,5.0,1.0,1.0,4.0,4.0,308.3177950002209,3.0,1.0,phase_1,,,,,,,,,,,,,cyan,cross
425.0,8.0,4.0,1.0,4.0,4.0,272.2698629995648,3.0,1.0,phase_1,,,,,,,,,,,,,blue,I
221.0,7.0,3.0,1.0,2.0,2.0,349.1059939997285,3.0,1.0,phase_1,,,,,,,,,,,,,white,flipped triangle
214.0,7.0,3.0,1.0,4.0,4.0,363.2163289994423,3.0,1.0,phase_1,,,,,,,,,,,,,white,flipped triangle
200.0,7.0,3.0,1.0,2.0,2.0,344.8167990000002,3.0,1.0,phase_1,,,,,,,,,,,,,white,flipped triangle
38.0,1.0,1.0,0.0,1.0,1.0,326.1006120001184,3.0,1.0,phase_1,,,,,,,,,,,,,orange,hexagon
123.0,6.0,2.0,1.0,2.0,2.0,330.6970170006025,3.0,1.0,phase_1,,,,,,,,,,,,,green,circle
46.0,5.0,1.0,1.0,3.0,3.0,357.7844869996625,4.0,1.0,phase_1,,,,,,,,,,,,,cyan,cross
0.0,6.0,0.0,1.0,1.0,1.0,306.6493450005509,4.0,1.0,phase_1,,,,,,,,,,,,,green,circle
0.0,8.0,0.0,1.0,1.0,1.0,282.2852310000598,4.0,1.0,phase_1,,,,,,,,,,,,,blue,I
0.0,1.0,0.0,0.0,4.0,4.0,267.8852610006288,4.0,1.0,phase_1,,,,,,,,,,,,,orange,hexagon
31.0,1.0,1.0,0.0,2.0,2.0,302.9177260004871,4.0,1.0,phase_1,,,,,,,,,,,,,orange,hexagon
398.0,8.0,4.0,1.0,4.0,4.0,243.743409999297,4.0,1.0,phase_1,,,,,,,,,,,,,blue,I
80.0,6.0,2.0,1.0,2.0,2.0,272.7032510001663,4.0,1.0,phase_1,,,,,,,,,,,,,green,circle
84.0,2.0,2.0,0.0,4.0,4.0,280.8202940004776,4.0,1.0,phase_1,,,,,,,,,,,,,yellow,square
36.0,1.0,1.0,0.0,1.0,1.0,290.5175279993273,4.0,1.0,phase_1,,,,,,,,,,,,,orange,hexagon
382.0,4.0,4.0,0.0,1.0,1.0,319.5234819995676,4.0,1.0,phase_1,,,,,,,,,,,,,gray,diamond
80.0,2.0,2.0,0.0,1.0,1.0,320.0627050000548,4.0,1.0,phase_1,,,,,,,,,,,,,yellow,square
89.0,6.0,2.0,1.0,3.0,3.0,307.0223639997493,4.0,1.0,phase_1,,,,,,,,,,,,,green,circle
425.0,4.0,4.0,0.0,3.0,3.0,353.2302280000294,4.0,1.0,phase_1,,,,,,,,,,,,,gray,diamond
405.0,8.0,4.0,1.0,2.0,2.0,305.3746330006106,4.0,1.0,phase_1,,,,,,,,,,,,,blue,I
77.0,2.0,2.0,0.0,2.0,2.0,277.4031139997532,4.0,1.0,phase_1,,,,,,,,,,,,,yellow,square
110.0,6.0,2.0,1.0,2.0,2.0,353.0277229992862,4.0,1.0,phase_1,,,,,,,,,,,,,green,circle
219.0,7.0,3.0,1.0,1.0,1.0,281.0671209999782,4.0,1.0,phase_1,,,,,,,,,,,,,white,flipped triangle
201.0,7.0,3.0,1.0,3.0,3.0,345.5916150005578,4.0,1.0,phase_1,,,,,,,,,,,,,white,flipped triangle
119.0,2.0,2.0,0.0,4.0,4.0,314.7353189997375,4.0,1.0,phase_1,,,,,,,,,,,,,yellow,square
175.0,3.0,3.0,0.0,2.0,2.0,315.1103829995918,4.0,1.0,phase_1,,,,,,,,,,,,,magenta,triangle
215.0,3.0,3.0,0.0,4.0,4.0,312.2033700001339,4.0,1.0,phase_1,,,,,,,,,,,,,magenta,triangle
84.0,2.0,2.0,0.0,4.0,4.0,290.2680079996571,4.0,1.0,phase_1,,,,,,,,,,,,,yellow,square
0.0,2.0,0.0,0.0,1.0,1.0,286.7581320006138,4.0,1.0,phase_1,,,,,,,,,,,,,yellow,square
193.0,3.0,3.0,0.0,3.0,3.0,257.7670340006079,4.0,1.0,phase_1,,,,,,,,,,,,,magenta,triangle
30.0,1.0,1.0,0.0,2.0,2.0,345.0249810002788,4.0,1.0,phase_1,,,,,,,,,,,,,orange,hexagon
200.0,7.0,3.0,1.0,4.0,4.0,307.5360549992183,4.0,1.0,phase_1,,,,,,,,,,,,,white,flipped triangle
217.0,3.0,3.0,0.0,1.0,1.0,276.4197459991919,4.0,1.0,phase_1,,,,,,,,,,,,,magenta,triangle
0.0,1.0,0.0,0.0,1.0,1.0,292.6644589997522,4.0,1.0,phase_1,,,,,,,,,,,,,orange,hexagon
179.0,3.0,3.0,0.0,2.0,2.0,291.4217190000272,4.0,1.0,phase_1,,,,,,,,,,,,,magenta,triangle
28.0,5.0,1.0,1.0,2.0,2.0,328.2683249999536,4.0,1.0,phase_1,,,,,,,,,,,,,cyan,cross
105.0,2.0,2.0,0.0,2.0,2.0,359.8314810005831,4.0,1.0,phase_1,,,,,,,,,,,,,yellow,square
386.0,8.0,4.0,1.0,3.0,3.0,348.1763859999773,4.0,1.0,phase_1,,,,,,,,,,,,,blue,I
196.0,7.0,3.0,1.0,4.0,4.0,348.3190649994867,4.0,1.0,phase_1,,,,,,,,,,,,,white,flipped triangle
94.0,6.0,2.0,1.0,3.0,3.0,327.1468789998835,4.0,1.0,phase_1,,,,,,,,,,,,,green,circle
39.0,5.0,1.0,1.0,2.0,2.0,320.1143819997014,4.0,1.0,phase_1,,,,,,,,,,,,,cyan,cross
424.0,8.0,4.0,1.0,2.0,2.0,335.5096059995048,4.0,1.0,phase_1,,,,,,,,,,,,,blue,I
186.0,7.0,3.0,1.0,2.0,2.0,289.5435290001842,4.0,1.0,phase_1,,,,,,,,,,,,,white,flipped triangle
115.0,6.0,2.0,1.0,3.0,3.0,356.9445000002815,4.0,1.0,phase_1,,,,,,,,,,,,,green,circle
89.0,2.0,2.0,0.0,4.0,4.0,286.6727450000326,4.0,1.0,phase_1,,,,,,,,,,,,,yellow,square
110.0,2.0,2.0,0.0,2.0,2.0,291.4121140001953,4.0,1.0,phase_1,,,,,,,,,,,,,yellow,square
188.0,7.0,3.0,1.0,4.0,4.0,305.7811150001726,4.0,1.0,phase_1,,,,,,,,,,,,,white,flipped triangle
55.0,1.0,1.0,0.0,2.0,2.0,286.0258189994056,4.0,1.0,phase_1,,,,,,,,,,,,,orange,hexagon
54.0,1.0,1.0,0.0,3.0,3.0,309.4796049999786,4.0,1.0,phase_1,,,,,,,,,,,,,orange,hexagon
50.0,1.0,1.0,0.0,3.0,3.0,288.7944439999046,4.0,1.0,phase_1,,,,,,,,,,,,,orange,hexagon
0.0,5.0,0.0,1.0,2.0,2.0,254.7155710008155,4.0,1.0,phase_1,,,,,,,,,,,,,cyan,cross
418.0,8.0,4.0,1.0,2.0,2.0,295.3453589998389,4.0,1.0,phase_1,,,,,,,,,,,,,blue,I
424.0,4.0,4.0,0.0,3.0,3.0,313.3838419998938,4.0,1.0,phase_1,,,,,,,,,,,,,gray,diamond
59.0,1.0,1.0,0.0,4.0,4.0,333.4293280004203,4.0,1.0,phase_1,,,,,,,,,,,,,orange,hexagon
391.0,4.0,4.0,0.0,1.0,1.0,320.1027069999327,4.0,1.0,phase_1,,,,,,,,,,,,,gray,diamond
412.0,4.0,4.0,0.0,4.0,4.0,302.2648670003036,4.0,1.0,phase_1,,,,,,,,,,,,,gray,diamond
378.0,4.0,4.0,0.0,4.0,4.0,314.9415580001005,4.0,1.0,phase_1,,,,,,,,,,,,,gray,diamond
388.0,4.0,4.0,0.0,3.0,3.0,312.8248709999752,4.0,1.0,phase_1,,,,,,,,,,,,,gray,diamond
0.0,8.0,0.0,1.0,3.0,3.0,331.551768999816,4.0,1.0,phase_1,,,,,,,,,,,,,blue,I
224.0,3.0,3.0,0.0,4.0,4.0,266.5145720002329,4.0,1.0,phase_1,,,,,,,,,,,,,magenta,triangle
178.0,7.0,3.0,1.0,3.0,3.0,272.2208700006376,4.0,1.0,phase_1,,,,,,,,,,,,,white,flipped triangle
183.0,7.0,3.0,1.0,1.0,1.0,271.4101239998854,4.0,1.0,phase_1,,,,,,,,,,,,,white,flipped triangle
376.0,4.0,4.0,0.0,4.0,4.0,281.5862950001246,4.0,1.0,phase_1,,,,,,,,,,,,,gray,diamond
0.0,2.0,0.0,0.0,1.0,1.0,311.5431530004571,4.0,1.0,phase_1,,,,,,,,,,,,,yellow,square
188.0,3.0,3.0,0.0,2.0,2.0,322.8800750002847,4.0,1.0,phase_1,,,,,,,,,,,,,magenta,triangle
50.0,1.0,1.0,0.0,4.0,4.0,333.6841370000911,4.0,1.0,phase_1,,,,,,,,,,,,,orange,hexagon
35.0,1.0,1.0,0.0,3.0,3.0,309.9712330003967,4.0,1.0,phase_1,,,,,,,,,,,,,orange,hexagon
213.0,7.0,3.0,1.0,2.0,2.0,303.599777999807,4.0,1.0,phase_1,,,,,,,,,,,,,white,flipped triangle
0.0,1.0,0.0,0.0,3.0,3.0,309.5281219993921,4.0,1.0,phase_1,,,,,,,,,,,,,orange,hexagon
404.0,8.0,4.0,1.0,4.0,4.0,323.0392539999229,4.0,1.0,phase_1,,,,,,,,,,,,,blue,I
219.0,3.0,3.0,0.0,4.0,4.0,380.5063219997464,4.0,1.0,phase_1,,,,,,,,,,,,,magenta,triangle
69.0,5.0,1.0,1.0,3.0,3.0,308.7455220002084,4.0,1.0,phase_1,,,,,,,,,,,,,cyan,cross
391.0,8.0,4.0,1.0,2.0,2.0,338.344994000181,4.0,1.0,phase_1,,,,,,,,,,,,,blue,I
124.0,2.0,2.0,0.0,3.0,3.0,336.9467439997606,4.0,1.0,phase_1,,,,,,,,,,,,,yellow,square
0.0,6.0,0.0,1.0,3.0,3.0,345.3476539998519,4.0,1.0,phase_1,,,,,,,,,,,,,green,circle
62.0,5.0,1.0,1.0,4.0,4.0,300.651478999498,4.0,1.0,phase_1,,,,,,,,,,,,,cyan,cross
35.0,5.0,1.0,1.0,2.0,2.0,315.4195260003689,4.0,1.0,phase_1,,,,,,,,,,,,,cyan,cross
201.0,3.0,3.0,0.0,2.0,2.0,303.1817660003071,4.0,1.0,phase_1,,,,,,,,,,,,,magenta,triangle
394.0,8.0,4.0,1.0,3.0,3.0,324.4868249994397,4.0,1.0,phase_1,,,,,,,,,,,,,blue,I
53.0,5.0,1.0,1.0,4.0,4.0,316.6703800006871,4.0,1.0,phase_1,,,,,,,,,,,,,cyan,cross
382.0,8.0,4.0,1.0,4.0,4.0,352.0142130000749,4.0,1.0,phase_1,,,,,,,,,,,,,blue,I
103.0,6.0,2.0,1.0,2.0,2.0,343.6143319995608,4.0,1.0,phase_1,,,,,,,,,,,,,green,circle
46.0,1.0,1.0,0.0,4.0,4.0,342.2539849998429,4.0,1.0,phase_1,,,,,,,,,,,,,orange,hexagon
220.0,3.0,3.0,0.0,1.0,1.0,384.7162379997826,4.0,1.0,phase_1,,,,,,,,,,,,,magenta,triangle
189.0,3.0,3.0,0.0,1.0,1.0,612.8838740005449,4.0,1.0,phase_1,,,,,,,,,,,,,magenta,triangle
0.0,7.0,0.0,1.0,2.0,2.0,324.5575610008018,4.0,1.0,phase_1,,,,,,,,,,,,,white,flipped triangle
220.0,7.0,3.0,1.0,2.0,2.0,361.895349000406,4.0,1.0,phase_1,,,,,,,,,,,,,white,flipped triangle
205.0,7.0,3.0,1.0,4.0,4.0,321.0191520001899,4.0,1.0,phase_1,,,,,,,,,,,,,white,flipped triangle
200.0,3.0,3.0,0.0,3.0,3.0,315.1130860005651,4.0,1.0,phase_1,,,,,,,,,,,,,magenta,triangle
38.0,1.0,1.0,0.0,2.0,2.0,255.09031499950652,4.0,1.0,phase_1,,,,,,,,,,,,,orange,hexagon
90.0,6.0,2.0,1.0,1.0,1.0,256.508378000035,4.0,1.0,phase_1,,,,,,,,,,,,,green,circle
103.0,6.0,2.0,1.0,1.0,1.0,323.3038179996583,4.0,1.0,phase_1,,,,,,,,,,,,,green,circle
65.0,5.0,1.0,1.0,3.0,3.0,247.3595830006161,4.0,1.0,phase_1,,,,,,,,,,,,,cyan,cross
116.0,6.0,2.0,1.0,3.0,3.0,302.948348999962,4.0,1.0,phase_1,,,,,,,,,,,,,green,circle
94.0,2.0,2.0,0.0,3.0,3.0,288.2035949996862,4.0,1.0,phase_1,,,,,,,,,,,,,yellow,square
119.0,6.0,2.0,1.0,4.0,4.0,291.6375620006874,4.0,1.0,phase_1,,,,,,,,,,,,,green,circle
404.0,4.0,4.0,0.0,2.0,2.0,286.4578430007896,4.0,1.0,phase_1,,,,,,,,,,,,,gray,diamond
386.0,4.0,4.0,0.0,3.0,3.0,313.0966549997538,4.0,1.0,phase_1,,,,,,,,,,,,,gray,diamond
405.0,4.0,4.0,0.0,3.0,3.0,288.689254000019,4.0,1.0,phase_1,,,,,,,,,,,,,gray,diamond
0.0,3.0,0.0,0.0,1.0,1.0,354.5947479997267,4.0,1.0,phase_1,,,,,,,,,,,,,magenta,triangle
0.0,3.0,0.0,0.0,4.0,4.0,275.845315000879,4.0,1.0,phase_1,,,,,,,,,,,,,magenta,triangle
80.0,2.0,2.0,0.0,2.0,2.0,322.5123210004312,4.0,1.0,phase_1,,,,,,,,,,,,,yellow,square
98.0,6.0,2.0,1.0,4.0,4.0,317.3248289995172,4.0,1.0,phase_1,,,,,,,,,,,,,green,circle
397.0,4.0,4.0,0.0,1.0,1.0,313.7515990001702,4.0,1.0,phase_1,,,,,,,,,,,,,gray,diamond
0.0,3.0,0.0,0.0,3.0,3.0,254.9558259997866,4.0,1.0,phase_1,,,,,,,,,,,,,magenta,triangle
206.0,7.0,3.0,1.0,3.0,3.0,315.1151820002269,4.0,1.0,phase_1,,,,,,,,,,,,,white,flipped triangle
0.0,3.0,3.0,0.0,5.0,5.0,420.3695710002648,1.0,1.0,phase_2,go,250.0,250.0,1.0,,,,,,,,,magenta,triangle
0.0,4.0,4.0,0.0,5.0,5.0,506.7622719998326,1.0,1.0,phase_2,go,250.0,250.0,1.0,,,,,,,,,gray,diamond
0.0,7.0,3.0,1.0,5.0,0.0,0.0,1.0,1.0,phase_2,stop,250.0,250.0,4.0,,,,,,,,,white,flipped triangle
0.0,8.0,4.0,1.0,6.0,6.0,432.5219639995339,1.0,1.0,phase_2,go,300.0,250.0,1.0,,,,,,,,,blue,I
0.0,1.0,1.0,0.0,6.0,6.0,539.2633209994528,1.0,1.0,phase_2,go,300.0,250.0,1.0,,,,,,,,,orange,hexagon
0.0,3.0,3.0,0.0,5.0,5.0,543.8824880002358,1.0,1.0,phase_2,go,300.0,250.0,1.0,,,,,,,,,magenta,triangle
0.0,4.0,4.0,0.0,6.0,6.0,303.9891890002764,1.0,1.0,phase_2,go,300.0,250.0,1.0,,,,,,,,,gray,diamond
0.0,4.0,4.0,0.0,6.0,6.0,699.7240150003563,1.0,1.0,phase_2,go,300.0,250.0,1.0,,,,,,,,,gray,diamond
0.0,3.0,3.0,0.0,5.0,5.0,674.163812000188,1.0,1.0,phase_2,go,300.0,250.0,1.0,,,,,,,,,magenta,triangle
0.0,7.0,3.0,1.0,6.0,0.0,0.0,1.0,1.0,phase_2,stop,300.0,250.0,4.0,,,,,,,,,white,flipped triangle
0.0,2.0,2.0,0.0,5.0,5.0,324.9663880005755,1.0,1.0,phase_2,go,300.0,300.0,1.0,,,,,,,,,yellow,square
0.0,4.0,4.0,0.0,6.0,6.0,343.3213830003296,1.0,1.0,phase_2,go,300.0,300.0,1.0,,,,,,,,,gray,diamond
0.0,4.0,4.0,0.0,6.0,6.0,320.1873100006196,1.0,1.0,phase_2,go,300.0,300.0,1.0,,,,,,,,,gray,diamond
0.0,4.0,4.0,0.0,5.0,5.0,312.8965129999415,1.0,1.0,phase_2,go,300.0,300.0,1.0,,,,,,,,,gray,diamond
0.0,7.0,3.0,1.0,5.0,5.0,378.1917349997457,1.0,1.0,phase_2,stop,300.0,300.0,3.0,,,,,,,,,white,flipped triangle
0.0,8.0,4.0,1.0,6.0,0.0,0.0,1.0,1.0,phase_2,stop,250.0,300.0,4.0,,,,,,,,,blue,I
0.0,2.0,2.0,0.0,6.0,6.0,498.9333080002325,1.0,1.0,phase_2,go,250.0,350.0,1.0,,,,,,,,,yellow,square
0.0,5.0,1.0,1.0,5.0,0.0,0.0,1.0,1.0,phase_2,stop,250.0,350.0,4.0,,,,,,,,,cyan,cross
0.0,1.0,1.0,0.0,5.0,5.0,357.1612139994613,1.0,1.0,phase_2,go,300.0,350.0,1.0,,,,,,,,,orange,hexagon
0.0,3.0,3.0,0.0,6.0,6.0,486.5802379999877,1.0,1.0,phase_2,go,300.0,350.0,1.0,,,,,,,,,magenta,triangle
0.0,2.0,2.0,0.0,6.0,6.0,303.4844769999836,1.0,1.0,phase_2,go,300.0,350.0,1.0,,,,,,,,,yellow,square
0.0,4.0,4.0,0.0,5.0,5.0,732.1590259998629,1.0,1.0,phase_2,go,300.0,350.0,1.0,,,,,,,,,gray,diamond
0.0,2.0,2.0,0.0,5.0,5.0,394.9038109994944,1.0,1.0,phase_2,go,300.0,350.0,1.0,,,,,,,,,yellow,square
0.0,6.0,2.0,1.0,5.0,0.0,0.0,1.0,1.0,phase_2,stop,300.0,350.0,4.0,,,,,,,,,green,circle
0.0,5.0,1.0,1.0,6.0,6.0,312.2054579998803,1.0,1.0,phase_2,stop,350.0,350.0,3.0,,,,,,,,,cyan,cross
0.0,1.0,1.0,0.0,5.0,5.0,520.0407689999338,1.0,1.0,phase_2,go,350.0,300.0,1.0,,,,,,,,,orange,hexagon
0.0,5.0,1.0,1.0,5.0,5.0,326.3480360001267,1.0,1.0,phase_2,stop,350.0,300.0,3.0,,,,,,,,,cyan,cross
0.0,2.0,2.0,0.0,6.0,6.0,674.811046999821,1.0,1.0,phase_2,go,300.0,300.0,1.0,,,,,,,,,yellow,square
0.0,1.0,1.0,0.0,6.0,6.0,566.7660600001909,1.0,1.0,phase_2,go,300.0,300.0,1.0,,,,,,,,,orange,hexagon
0.0,1.0,1.0,0.0,6.0,6.0,441.5660679997018,1.0,1.0,phase_2,go,300.0,300.0,1.0,,,,,,,,,orange,hexagon
0.0,3.0,3.0,0.0,5.0,5.0,581.4260719998856,1.0,1.0,phase_2,go,300.0,300.0,1.0,,,,,,,,,magenta,triangle
0.0,5.0,1.0,1.0,6.0,0.0,0.0,1.0,1.0,phase_2,stop,300.0,300.0,4.0,,,,,,,,,cyan,cross
0.0,6.0,2.0,1.0,5.0,5.0,434.4178270002885,1.0,1.0,phase_2,go,300.0,350.0,1.0,,,,,,,,,green,circle
0.0,4.0,4.0,0.0,6.0,6.0,348.1884729999365,1.0,1.0,phase_2,go,300.0,350.0,1.0,,,,,,,,,gray,diamond
0.0,4.0,4.0,0.0,6.0,6.0,543.687116000001,1.0,1.0,phase_2,go,300.0,350.0,1.0,,,,,,,,,gray,diamond
0.0,1.0,1.0,0.0,6.0,6.0,699.4864789994608,1.0,1.0,phase_2,go,300.0,350.0,1.0,,,,,,,,,orange,hexagon
0.0,5.0,1.0,1.0,5.0,5.0,530.4322239999237,2.0,1.0,phase_2,stop,300.0,350.0,3.0,,,,,,,,,cyan,cross
0.0,7.0,3.0,1.0,6.0,6.0,502.3123979999582,2.0,1.0,phase_2,stop,250.0,350.0,3.0,,,,,,,,,white,flipped triangle
0.0,3.0,3.0,0.0,5.0,5.0,672.8782190002676,2.0,1.0,phase_2,go,250.0,300.0,1.0,,,,,,,,,magenta,triangle
0.0,5.0,1.0,1.0,5.0,0.0,0.0,2.0,1.0,phase_2,stop,250.0,300.0,4.0,,,,,,,,,cyan,cross
0.0,2.0,2.0,0.0,5.0,5.0,475.3062099998715,2.0,1.0,phase_2,go,300.0,300.0,1.0,,,,,,,,,yellow,square
0.0,5.0,1.0,1.0,6.0,6.0,435.4007139991154,2.0,1.0,phase_2,stop,300.0,300.0,3.0,,,,,,,,,cyan,cross
0.0,1.0,1.0,0.0,5.0,5.0,654.1595759999836,2.0,1.0,phase_2,go,300.0,250.0,1.0,,,,,,,,,orange,hexagon
0.0,6.0,2.0,1.0,5.0,0.0,0.0,2.0,1.0,phase_2,stop,300.0,250.0,4.0,,,,,,,,,green,circle
0.0,8.0,4.0,1.0,5.0,0.0,0.0,2.0,1.0,phase_2,stop,350.0,250.0,4.0,,,,,,,,,blue,I
0.0,3.0,3.0,0.0,5.0,5.0,486.6821909999999,2.0,1.0,phase_2,go,400.0,250.0,1.0,,,,,,,,,magenta,triangle
0.0,5.0,1.0,1.0,6.0,6.0,402.8990759998123,2.0,1.0,phase_2,stop,400.0,250.0,3.0,,,,,,,,,cyan,cross
0.0,1.0,1.0,0.0,5.0,5.0,568.0436250004277,2.0,1.0,phase_2,go,400.0,200.0,1.0,,,,,,,,,orange,hexagon
0.0,6.0,2.0,1.0,5.0,0.0,0.0,2.0,1.0,phase_2,stop,400.0,200.0,4.0,,,,,,,,,green,circle
0.0,1.0,1.0,0.0,5.0,5.0,634.0208260007785,2.0,1.0,phase_2,go,450.0,200.0,1.0,,,,,,,,,orange,hexagon
0.0,5.0,1.0,1.0,6.0,0.0,0.0,2.0,1.0,phase_2,stop,450.0,200.0,4.0,,,,,,,,,cyan,cross
0.0,5.0,1.0,1.0,6.0,0.0,0.0,2.0,1.0,phase_2,stop,450.0,250.0,4.0,,,,,,,,,cyan,cross
0.0,7.0,3.0,1.0,5.0,5.0,543.0800779995479,2.0,1.0,phase_2,go,450.0,300.0,1.0,,,,,,,,,white,flipped triangle
0.0,5.0,1.0,1.0,6.0,0.0,0.0,2.0,1.0,phase_2,stop,450.0,300.0,4.0,,,,,,,,,cyan,cross
0.0,6.0,2.0,1.0,5.0,5.0,519.740689000173,2.0,1.0,phase_2,stop,450.0,350.0,3.0,,,,,,,,,green,circle
0.0,2.0,2.0,0.0,5.0,5.0,614.8886800001492,2.0,1.0,phase_2,go,400.0,350.0,1.0,,,,,,,,,yellow,square
0.0,1.0,1.0,0.0,5.0,5.0,728.6387939993801,2.0,1.0,phase_2,go,400.0,350.0,1.0,,,,,,,,,orange,hexagon
0.0,4.0,4.0,0.0,6.0,6.0,552.7996649998386,2.0,1.0,phase_2,go,400.0,350.0,1.0,,,,,,,,,gray,diamond
0.0,5.0,1.0,1.0,5.0,0.0,0.0,2.0,1.0,phase_2,stop,400.0,350.0,4.0,,,,,,,,,cyan,cross
0.0,6.0,2.0,1.0,6.0,0.0,0.0,2.0,1.0,phase_2,stop,450.0,350.0,4.0,,,,,,,,,green,circle
0.0,7.0,3.0,1.0,6.0,0.0,0.0,2.0,1.0,phase_2,stop,450.0,400.0,4.0,,,,,,,,,white,flipped triangle
0.0,1.0,1.0,0.0,6.0,6.0,539.281155000026,2.0,1.0,phase_2,go,450.0,450.0,1.0,,,,,,,,,orange,hexagon
0.0,6.0,2.0,1.0,6.0,6.0,587.3534960001052,2.0,1.0,phase_2,go,450.0,450.0,1.0,,,,,,,,,green,circle
0.0,4.0,4.0,0.0,6.0,6.0,637.0792690004237,2.0,1.0,phase_2,go,450.0,450.0,1.0,,,,,,,,,gray,diamond
0.0,3.0,3.0,0.0,6.0,6.0,634.6483919996899,2.0,1.0,phase_2,go,450.0,450.0,1.0,,,,,,,,,magenta,triangle
0.0,4.0,4.0,0.0,5.0,5.0,887.1562819995233,2.0,1.0,phase_2,go,450.0,450.0,1.0,,,,,,,,,gray,diamond
0.0,5.0,1.0,1.0,6.0,6.0,662.4891770006798,2.0,1.0,phase_2,go,450.0,450.0,1.0,,,,,,,,,cyan,cross
0.0,1.0,1.0,0.0,6.0,6.0,747.8335510004399,2.0,1.0,phase_2,go,450.0,450.0,1.0,,,,,,,,,orange,hexagon
0.0,1.0,1.0,0.0,6.0,6.0,867.4550169998838,2.0,1.0,phase_2,go,450.0,450.0,1.0,,,,,,,,,orange,hexagon
0.0,4.0,4.0,0.0,5.0,5.0,615.1648279992514,2.0,1.0,phase_2,go,450.0,450.0,1.0,,,,,,,,,gray,diamond
0.0,6.0,2.0,1.0,6.0,6.0,569.9773979995371,2.0,1.0,phase_2,stop,450.0,450.0,3.0,,,,,,,,,green,circle
0.0,4.0,4.0,0.0,5.0,5.0,644.182039000043,2.0,1.0,phase_2,go,450.0,400.0,1.0,,,,,,,,,gray,diamond
0.0,7.0,3.0,1.0,6.0,0.0,0.0,3.0,1.0,phase_2,stop,450.0,400.0,4.0,,,,,,,,,white,flipped triangle
0.0,2.0,2.0,0.0,6.0,6.0,529.2942219994075,3.0,1.0,phase_2,go,450.0,450.0,1.0,,,,,,,,,yellow,square
0.0,6.0,2.0,1.0,5.0,5.0,484.6502469999905,3.0,1.0,phase_2,stop,450.0,450.0,3.0,,,,,,,,,green,circle
0.0,7.0,3.0,1.0,5.0,0.0,0.0,3.0,1.0,phase_2,stop,400.0,450.0,4.0,,,,,,,,,white,flipped triangle
0.0,1.0,1.0,0.0,6.0,6.0,626.8521560004956,3.0,1.0,phase_2,go,450.0,450.0,1.0,,,,,,,,,orange,hexagon
0.0,5.0,1.0,1.0,5.0,5.0,625.049117999879,3.0,1.0,phase_2,go,450.0,450.0,1.0,,,,,,,,,cyan,cross
0.0,8.0,4.0,1.0,5.0,5.0,377.1967749999021,3.0,1.0,phase_2,stop,450.0,450.0,3.0,,,,,,,,,blue,I
0.0,1.0,1.0,0.0,6.0,6.0,616.1238929998945,3.0,1.0,phase_2,go,400.0,450.0,1.0,,,,,,,,,orange,hexagon
0.0,8.0,4.0,1.0,6.0,0.0,0.0,3.0,1.0,phase_2,stop,400.0,450.0,4.0,,,,,,,,,blue,I
0.0,7.0,3.0,1.0,6.0,6.0,583.605771999828,3.0,1.0,phase_2,go,400.0,500.0,1.0,,,,,,,,,white,flipped triangle
0.0,8.0,4.0,1.0,5.0,5.0,523.7605929996789,3.0,1.0,phase_2,stop,400.0,500.0,3.0,,,,,,,,,blue,I
0.0,7.0,3.0,1.0,6.0,6.0,592.5938270002007,3.0,1.0,phase_2,stop,350.0,500.0,3.0,,,,,,,,,white,flipped triangle
0.0,8.0,4.0,1.0,6.0,6.0,643.9219840003716,3.0,1.0,phase_2,go,350.0,450.0,1.0,,,,,,,,,blue,I
0.0,2.0,2.0,0.0,5.0,5.0,578.3831569997346,3.0,1.0,phase_2,go,350.0,450.0,1.0,,,,,,,,,yellow,square
0.0,3.0,3.0,0.0,5.0,5.0,637.5838320000184,3.0,1.0,phase_2,go,350.0,450.0,1.0,,,,,,,,,magenta,triangle
0.0,3.0,3.0,0.0,5.0,5.0,627.2736729997632,3.0,1.0,phase_2,go,350.0,450.0,1.0,,,,,,,,,magenta,triangle
0.0,8.0,4.0,1.0,6.0,6.0,546.3464459999159,3.0,1.0,phase_2,stop,350.0,450.0,3.0,,,,,,,,,blue,I
0.0,7.0,3.0,1.0,5.0,0.0,0.0,3.0,1.0,phase_2,stop,350.0,400.0,4.0,,,,,,,,,white,flipped triangle
0.0,3.0,3.0,0.0,5.0,5.0,730.9673479994672,3.0,1.0,phase_2,go,400.0,400.0,1.0,,,,,,,,,magenta,triangle
0.0,3.0,3.0,0.0,6.0,6.0,609.0324100005091,3.0,1.0,phase_2,go,400.0,400.0,1.0,,,,,,,,,magenta,triangle
0.0,5.0,1.0,1.0,6.0,6.0,808.5795280003367,3.0,1.0,phase_2,go,400.0,400.0,1.0,,,,,,,,,cyan,cross
0.0,7.0,3.0,1.0,5.0,0.0,0.0,3.0,1.0,phase_2,stop,400.0,400.0,4.0,,,,,,,,,white,flipped triangle
0.0,2.0,2.0,0.0,5.0,5.0,573.7507069998173,3.0,1.0,phase_2,go,450.0,400.0,1.0,,,,,,,,,yellow,square
0.0,2.0,2.0,0.0,6.0,6.0,587.4554579995674,3.0,1.0,phase_2,go,450.0,400.0,1.0,,,,,,,,,yellow,square
0.0,2.0,2.0,0.0,6.0,6.0,822.7857080000831,3.0,1.0,phase_2,go,450.0,400.0,1.0,,,,,,,,,yellow,square
0.0,1.0,1.0,0.0,6.0,6.0,608.4831790003591,3.0,1.0,phase_2,go,450.0,400.0,1.0,,,,,,,,,orange,hexagon
0.0,6.0,2.0,1.0,6.0,0.0,0.0,3.0,1.0,phase_2,stop,450.0,400.0,4.0,,,,,,,,,green,circle
0.0,8.0,4.0,1.0,6.0,6.0,536.1194930001147,3.0,1.0,phase_2,stop,450.0,450.0,3.0,,,,,,,,,blue,I
0.0,8.0,4.0,1.0,6.0,6.0,720.022149000215,3.0,1.0,phase_2,go,450.0,400.0,1.0,,,,,,,,,blue,I
0.0,7.0,3.0,1.0,5.0,0.0,0.0,3.0,1.0,phase_2,stop,450.0,400.0,4.0,,,,,,,,,white,flipped triangle
0.0,2.0,2.0,0.0,6.0,6.0,665.7351079993532,3.0,1.0,phase_2,go,500.0,400.0,1.0,,,,,,,,,yellow,square
0.0,5.0,1.0,1.0,5.0,0.0,0.0,3.0,1.0,phase_2,stop,500.0,400.0,4.0,,,,,,,,,cyan,cross
0.0,3.0,3.0,0.0,6.0,6.0,579.5703220001087,3.0,1.0,phase_2,go,550.0,400.0,1.0,,,,,,,,,magenta,triangle
0.0,7.0,3.0,1.0,5.0,5.0,689.2657640000834,3.0,1.0,phase_2,stop,550.0,400.0,3.0,,,,,,,,,white,flipped triangle
0.0,7.0,3.0,1.0,6.0,0.0,0.0,3.0,1.0,phase_2,stop,500.0,400.0,4.0,,,,,,,,,white,flipped triangle
0.0,6.0,2.0,1.0,6.0,0.0,0.0,3.0,1.0,phase_2,stop,500.0,450.0,4.0,,,,,,,,,green,circle
0.0,1.0,1.0,0.0,5.0,5.0,678.9023449991873,4.0,1.0,phase_2,go,500.0,500.0,1.0,,,,,,,,,orange,hexagon
0.0,2.0,2.0,0.0,5.0,5.0,405.0004040000203,4.0,1.0,phase_2,go,500.0,500.0,1.0,,,,,,,,,yellow,square
0.0,8.0,4.0,1.0,5.0,5.0,674.9819040005605,4.0,1.0,phase_2,stop,500.0,500.0,3.0,,,,,,,,,blue,I
0.0,2.0,2.0,0.0,5.0,5.0,577.0376380005473,4.0,1.0,phase_2,go,450.0,500.0,1.0,,,,,,,,,yellow,square
0.0,6.0,2.0,1.0,5.0,5.0,627.9602020003949,4.0,1.0,phase_2,go,450.0,500.0,1.0,,,,,,,,,green,circle
0.0,6.0,2.0,1.0,6.0,6.0,679.5929640002214,4.0,1.0,phase_2,go,450.0,500.0,1.0,,,,,,,,,green,circle
0.0,3.0,3.0,0.0,5.0,5.0,603.7986940000337,4.0,1.0,phase_2,go,450.0,500.0,1.0,,,,,,,,,magenta,triangle
0.0,2.0,2.0,0.0,5.0,5.0,422.3396500001399,4.0,1.0,phase_2,go,450.0,500.0,1.0,,,,,,,,,yellow,square
0.0,4.0,4.0,0.0,5.0,5.0,652.4529930002245,4.0,1.0,phase_2,go,450.0,500.0,1.0,,,,,,,,,gray,diamond
0.0,5.0,1.0,1.0,5.0,0.0,0.0,4.0,1.0,phase_2,stop,450.0,500.0,4.0,,,,,,,,,cyan,cross
0.0,7.0,3.0,1.0,5.0,0.0,0.0,4.0,1.0,phase_2,stop,500.0,500.0,4.0,,,,,,,,,white,flipped triangle
0.0,1.0,1.0,0.0,5.0,5.0,850.2216819997557,4.0,1.0,phase_2,go,550.0,500.0,1.0,,,,,,,,,orange,hexagon
0.0,2.0,2.0,0.0,5.0,5.0,667.6487610002368,4.0,1.0,phase_2,go,550.0,500.0,1.0,,,,,,,,,yellow,square
0.0,5.0,1.0,1.0,5.0,0.0,0.0,4.0,1.0,phase_2,stop,550.0,500.0,4.0,,,,,,,,,cyan,cross
0.0,2.0,2.0,0.0,5.0,5.0,784.253255999829,4.0,1.0,phase_2,go,600.0,500.0,1.0,,,,,,,,,yellow,square
0.0,7.0,3.0,1.0,5.0,5.0,739.9269540001114,4.0,1.0,phase_2,stop,600.0,500.0,3.0,,,,,,,,,white,flipped triangle
0.0,3.0,3.0,0.0,6.0,6.0,717.4967220007602,4.0,1.0,phase_2,go,550.0,500.0,1.0,,,,,,,,,magenta,triangle
0.0,2.0,2.0,0.0,5.0,5.0,659.3042170006811,4.0,1.0,phase_2,go,550.0,500.0,1.0,,,,,,,,,yellow,square
0.0,8.0,4.0,1.0,5.0,5.0,442.3463519997312,4.0,1.0,phase_2,go,550.0,500.0,1.0,,,,,,,,,blue,I
0.0,3.0,3.0,0.0,6.0,6.0,655.0311989994952,4.0,1.0,phase_2,go,550.0,500.0,1.0,,,,,,,,,magenta,triangle
0.0,1.0,1.0,0.0,6.0,6.0,419.188242999553,4.0,1.0,phase_2,go,550.0,500.0,1.0,,,,,,,,,orange,hexagon
0.0,3.0,3.0,0.0,5.0,5.0,647.1945169996616,4.0,1.0,phase_2,go,550.0,500.0,1.0,,,,,,,,,magenta,triangle
0.0,7.0,3.0,1.0,5.0,5.0,391.3599229999818,4.0,1.0,phase_2,stop,550.0,500.0,3.0,,,,,,,,,white,flipped triangle
0.0,6.0,2.0,1.0,5.0,5.0,387.2846109998136,4.0,1.0,phase_2,go,500.0,500.0,1.0,,,,,,,,,green,circle
0.0,8.0,4.0,1.0,6.0,6.0,298.9318010004353,4.0,1.0,phase_2,stop,500.0,500.0,3.0,,,,,,,,,blue,I
0.0,5.0,1.0,1.0,5.0,5.0,571.8498900005216,4.0,1.0,phase_2,stop,500.0,450.0,3.0,,,,,,,,,cyan,cross
0.0,7.0,3.0,1.0,6.0,0.0,0.0,4.0,1.0,phase_2,stop,450.0,450.0,4.0,,,,,,,,,white,flipped triangle
0.0,3.0,3.0,0.0,6.0,6.0,384.9636850000024,4.0,1.0,phase_2,go,450.0,500.0,1.0,,,,,,,,,magenta,triangle
0.0,3.0,3.0,0.0,6.0,6.0,440.9414640003888,4.0,1.0,phase_2,go,450.0,500.0,1.0,,,,,,,,,magenta,triangle
0.0,1.0,1.0,0.0,5.0,5.0,716.2083610000991,4.0,1.0,phase_2,go,450.0,500.0,1.0,,,,,,,,,orange,hexagon
0.0,4.0,4.0,0.0,6.0,6.0,603.9743300007103,4.0,1.0,phase_2,go,450.0,500.0,1.0,,,,,,,,,gray,diamond
0.0,7.0,3.0,1.0,5.0,5.0,781.7635969995536,4.0,1.0,phase_2,go,450.0,500.0,1.0,,,,,,,,,white,flipped triangle
0.0,1.0,1.0,0.0,5.0,5.0,614.1516130001037,4.0,1.0,phase_2,go,450.0,500.0,1.0,,,,,,,,,orange,hexagon
0.0,2.0,2.0,0.0,6.0,6.0,707.7165040000182,4.0,1.0,phase_2,go,450.0,500.0,1.0,,,,,,,,,yellow,square
0.0,5.0,1.0,1.0,5.0,5.0,717.9890839997825,4.0,1.0,phase_2,go,450.0,500.0,1.0,,,,,,,,,cyan,cross
0.0,6.0,2.0,1.0,6.0,6.0,664.4583890001741,4.0,1.0,phase_2,stop,450.0,500.0,3.0,,,,,,,,,green,circle
0.0,8.0,4.0,1.0,5.0,5.0,353.7063820003823,5.0,1.0,phase_2,go,450.0,450.0,1.0,,,,,,,,,blue,I
0.0,7.0,3.0,1.0,6.0,6.0,486.7273039999418,5.0,1.0,phase_2,stop,450.0,450.0,3.0,,,,,,,,,white,flipped triangle
0.0,8.0,4.0,1.0,5.0,5.0,591.417172000547,5.0,1.0,phase_2,stop,450.0,400.0,3.0,,,,,,,,,blue,I
0.0,5.0,1.0,1.0,6.0,0.0,0.0,5.0,1.0,phase_2,stop,400.0,400.0,4.0,,,,,,,,,cyan,cross
0.0,4.0,4.0,0.0,6.0,6.0,582.4842849997367,5.0,1.0,phase_2,go,400.0,450.0,1.0,,,,,,,,,gray,diamond
0.0,8.0,4.0,1.0,6.0,0.0,0.0,5.0,1.0,phase_2,stop,400.0,450.0,4.0,,,,,,,,,blue,I
0.0,3.0,3.0,0.0,6.0,6.0,438.9836959999229,5.0,1.0,phase_2,go,400.0,500.0,1.0,,,,,,,,,magenta,triangle
0.0,8.0,4.0,1.0,5.0,5.0,677.1341859994209,5.0,1.0,phase_2,go,400.0,500.0,1.0,,,,,,,,,blue,I
0.0,6.0,2.0,1.0,6.0,6.0,620.9945889995652,5.0,1.0,phase_2,stop,400.0,500.0,3.0,,,,,,,,,green,circle
0.0,3.0,3.0,0.0,5.0,5.0,747.7338629996666,5.0,1.0,phase_2,go,400.0,450.0,1.0,,,,,,,,,magenta,triangle
0.0,6.0,2.0,1.0,6.0,6.0,537.1789539995007,5.0,1.0,phase_2,stop,400.0,450.0,3.0,,,,,,,,,green,circle
0.0,2.0,2.0,0.0,6.0,6.0,799.5225650001885,5.0,1.0,phase_2,go,400.0,400.0,1.0,,,,,,,,,yellow,square
0.0,6.0,2.0,1.0,5.0,5.0,670.1282160001938,5.0,1.0,phase_2,go,400.0,400.0,1.0,,,,,,,,,green,circle
0.0,6.0,2.0,1.0,5.0,0.0,0.0,5.0,1.0,phase_2,stop,400.0,400.0,4.0,,,,,,,,,green,circle
0.0,5.0,1.0,1.0,5.0,5.0,684.3022500006555,5.0,1.0,phase_2,go,450.0,400.0,1.0,,,,,,,,,cyan,cross
0.0,6.0,2.0,1.0,5.0,0.0,0.0,5.0,1.0,phase_2,stop,450.0,400.0,4.0,,,,,,,,,green,circle
0.0,4.0,4.0,0.0,5.0,5.0,620.10561399984,5.0,1.0,phase_2,go,500.0,400.0,1.0,,,,,,,,,gray,diamond
0.0,6.0,2.0,1.0,6.0,0.0,0.0,5.0,1.0,phase_2,stop,500.0,400.0,4.0,,,,,,,,,green,circle
0.0,7.0,3.0,1.0,6.0,6.0,669.1565439996339,5.0,1.0,phase_2,stop,500.0,450.0,3.0,,,,,,,,,white,flipped triangle
0.0,4.0,4.0,0.0,5.0,5.0,789.1252850004093,5.0,1.0,phase_2,go,500.0,400.0,1.0,,,,,,,,,gray,diamond
0.0,3.0,3.0,0.0,6.0,6.0,753.630307000094,5.0,1.0,phase_2,go,500.0,400.0,1.0,,,,,,,,,magenta,triangle
0.0,1.0,1.0,0.0,6.0,6.0,468.4659469994585,5.0,1.0,phase_2,go,500.0,400.0,1.0,,,,,,,,,orange,hexagon
0.0,6.0,2.0,1.0,6.0,6.0,462.7103000002535,5.0,1.0,phase_2,go,500.0,400.0,1.0,,,,,,,,,green,circle
0.0,3.0,3.0,0.0,6.0,6.0,605.9331380001822,5.0,1.0,phase_2,go,500.0,400.0,1.0,,,,,,,,,magenta,triangle
0.0,8.0,4.0,1.0,5.0,0.0,0.0,5.0,1.0,phase_2,stop,500.0,400.0,4.0,,,,,,,,,blue,I
0.0,1.0,1.0,0.0,5.0,5.0,732.8224069997304,5.0,1.0,phase_2,go,550.0,400.0,1.0,,,,,,,,,orange,hexagon
0.0,3.0,3.0,0.0,6.0,6.0,686.9613700000627,5.0,1.0,phase_2,go,550.0,400.0,1.0,,,,,,,,,magenta,triangle
0.0,4.0,4.0,0.0,5.0,5.0,819.7553129994049,5.0,1.0,phase_2,go,550.0,400.0,1.0,,,,,,,,,gray,diamond
0.0,2.0,2.0,0.0,5.0,5.0,534.3551460000526,5.0,1.0,phase_2,go,550.0,400.0,1.0,,,,,,,,,yellow,square
0.0,4.0,4.0,0.0,6.0,6.0,425.0038730006054,5.0,1.0,phase_2,go,550.0,400.0,1.0,,,,,,,,,gray,diamond
0.0,2.0,2.0,0.0,6.0,6.0,641.0696160000953,5.0,1.0,phase_2,go,550.0,400.0,1.0,,,,,,,,,yellow,square
0.0,4.0,4.0,0.0,5.0,5.0,486.3188990002527,5.0,1.0,phase_2,go,550.0,400.0,1.0,,,,,,,,,gray,diamond
0.0,4.0,4.0,0.0,6.0,6.0,571.1879110003792,5.0,1.0,phase_2,go,550.0,400.0,1.0,,,,,,,,,gray,diamond
0.0,6.0,2.0,1.0,6.0,6.0,520.379753999805,5.0,1.0,phase_2,stop,550.0,400.0,3.0,,,,,,,,,green,circle
0.0,4.0,4.0,0.0,5.0,5.0,927.602167999794,5.0,1.0,phase_2,go,550.0,350.0,1.0,,,,,,,,,gray,diamond
0.0,1.0,1.0,0.0,6.0,6.0,758.8162830006695,5.0,1.0,phase_2,go,550.0,350.0,1.0,,,,,,,,,orange,hexagon
0.0,3.0,3.0,0.0,6.0,6.0,448.39736100038857,6.0,1.0,phase_2,go,550.0,350.0,1.0,,,,,,,,,magenta,triangle
0.0,2.0,2.0,0.0,6.0,6.0,281.1503689999881,6.0,1.0,phase_2,go,550.0,350.0,1.0,,,,,,,,,yellow,square
0.0,4.0,4.0,0.0,5.0,5.0,528.6525259998598,6.0,1.0,phase_2,go,550.0,350.0,1.0,,,,,,,,,gray,diamond
0.0,5.0,1.0,1.0,6.0,6.0,498.3162219996302,6.0,1.0,phase_2,stop,550.0,350.0,3.0,,,,,,,,,cyan,cross
0.0,1.0,1.0,0.0,5.0,5.0,605.497634999665,6.0,1.0,phase_2,go,550.0,300.0,1.0,,,,,,,,,orange,hexagon
0.0,6.0,2.0,1.0,5.0,5.0,596.4573619994553,6.0,1.0,phase_2,stop,550.0,300.0,3.0,,,,,,,,,green,circle
0.0,1.0,1.0,0.0,5.0,5.0,643.9894119994278,6.0,1.0,phase_2,go,500.0,300.0,1.0,,,,,,,,,orange,hexagon
0.0,4.0,4.0,0.0,6.0,6.0,689.2870960000437,6.0,1.0,phase_2,go,500.0,300.0,1.0,,,,,,,,,gray,diamond
0.0,6.0,2.0,1.0,5.0,5.0,583.915487000013,6.0,1.0,phase_2,stop,500.0,300.0,3.0,,,,,,,,,green,circle
0.0,3.0,3.0,0.0,5.0,5.0,529.5458589998816,6.0,1.0,phase_2,go,450.0,300.0,1.0,,,,,,,,,magenta,triangle
0.0,6.0,2.0,1.0,6.0,0.0,0.0,6.0,1.0,phase_2,stop,450.0,300.0,4.0,,,,,,,,,green,circle
0.0,2.0,2.0,0.0,6.0,6.0,427.7129279998917,6.0,1.0,phase_2,go,450.0,350.0,1.0,,,,,,,,,yellow,square
0.0,6.0,2.0,1.0,6.0,6.0,439.3028669992418,6.0,1.0,phase_2,stop,450.0,350.0,3.0,,,,,,,,,green,circle
0.0,5.0,1.0,1.0,5.0,5.0,844.1009349999149,6.0,1.0,phase_2,go,450.0,300.0,1.0,,,,,,,,,cyan,cross
0.0,8.0,4.0,1.0,6.0,0.0,0.0,6.0,1.0,phase_2,stop,450.0,300.0,4.0,,,,,,,,,blue,I
0.0,5.0,1.0,1.0,6.0,0.0,0.0,6.0,1.0,phase_2,stop,450.0,350.0,4.0,,,,,,,,,cyan,cross
0.0,5.0,1.0,1.0,5.0,5.0,564.0973350000422,6.0,1.0,phase_2,go,450.0,400.0,1.0,,,,,,,,,cyan,cross
0.0,4.0,4.0,0.0,5.0,5.0,740.2643929999613,6.0,1.0,phase_2,go,450.0,400.0,1.0,,,,,,,,,gray,diamond
0.0,1.0,1.0,0.0,6.0,6.0,674.7635780002383,6.0,1.0,phase_2,go,450.0,400.0,1.0,,,,,,,,,orange,hexagon
0.0,7.0,3.0,1.0,6.0,0.0,0.0,6.0,1.0,phase_2,stop,450.0,400.0,4.0,,,,,,,,,white,flipped triangle
0.0,8.0,4.0,1.0,5.0,5.0,367.2269409998989,6.0,1.0,phase_2,stop,450.0,450.0,3.0,,,,,,,,,blue,I
0.0,6.0,2.0,1.0,5.0,0.0,0.0,6.0,1.0,phase_2,stop,400.0,450.0,4.0,,,,,,,,,green,circle
0.0,7.0,3.0,1.0,6.0,6.0,711.470035000275,6.0,1.0,phase_2,go,450.0,450.0,1.0,,,,,,,,,white,flipped triangle
0.0,6.0,2.0,1.0,5.0,5.0,552.8899970004204,6.0,1.0,phase_2,stop,450.0,450.0,3.0,,,,,,,,,green,circle
0.0,4.0,4.0,0.0,6.0,6.0,1065.090383000097,6.0,1.0,phase_2,go,400.0,450.0,1.0,,,,,,,,,gray,diamond
0.0,8.0,4.0,1.0,6.0,0.0,0.0,6.0,1.0,phase_2,stop,400.0,450.0,4.0,,,,,,,,,blue,I
0.0,4.0,4.0,0.0,5.0,5.0,857.822956999371,6.0,1.0,phase_2,go,400.0,500.0,1.0,,,,,,,,,gray,diamond
0.0,4.0,4.0,0.0,6.0,6.0,820.6918369996856,6.0,1.0,phase_2,go,400.0,500.0,1.0,,,,,,,,,gray,diamond
0.0,7.0,3.0,1.0,5.0,5.0,723.234379999667,6.0,1.0,phase_2,go,400.0,500.0,1.0,,,,,,,,,white,flipped triangle
0.0,5.0,1.0,1.0,6.0,0.0,0.0,6.0,1.0,phase_2,stop,400.0,500.0,4.0,,,,,,,,,cyan,cross
0.0,6.0,2.0,1.0,6.0,6.0,348.7148909998723,6.0,1.0,phase_2,go,400.0,550.0,1.0,,,,,,,,,green,circle
0.0,8.0,4.0,1.0,6.0,6.0,756.2283739998747,6.0,1.0,phase_2,go,400.0,550.0,1.0,,,,,,,,,blue,I
0.0,6.0,2.0,1.0,5.0,0.0,0.0,6.0,1.0,phase_2,stop,400.0,550.0,4.0,,,,,,,,,green,circle
0.0,3.0,3.0,0.0,5.0,5.0,698.5360979997495,6.0,1.0,phase_2,go,450.0,550.0,1.0,,,,,,,,,magenta,triangle
0.0,7.0,3.0,1.0,6.0,6.0,679.7559659999024,6.0,1.0,phase_2,stop,450.0,550.0,3.0,,,,,,,,,white,flipped triangle
0.0,3.0,3.0,0.0,6.0,6.0,800.6829830001152,6.0,1.0,phase_2,go,450.0,500.0,1.0,,,,,,,,,magenta,triangle
0.0,2.0,2.0,0.0,5.0,5.0,450.3571459999875,7.0,1.0,phase_2,go,450.0,500.0,1.0,,,,,,,,,yellow,square
0.0,3.0,3.0,0.0,6.0,6.0,472.4371840002277,7.0,1.0,phase_2,go,450.0,500.0,1.0,,,,,,,,,magenta,triangle
0.0,7.0,3.0,1.0,6.0,6.0,320.9505989998433,7.0,1.0,phase_2,stop,450.0,500.0,3.0,,,,,,,,,white,flipped triangle
0.0,8.0,4.0,1.0,6.0,0.0,0.0,7.0,1.0,phase_2,stop,450.0,450.0,4.0,,,,,,,,,blue,I
0.0,7.0,3.0,1.0,5.0,5.0,591.2966460000462,7.0,1.0,phase_2,go,450.0,500.0,1.0,,,,,,,,,white,flipped triangle
0.0,1.0,1.0,0.0,6.0,6.0,819.7666089999984,7.0,1.0,phase_2,go,450.0,500.0,1.0,,,,,,,,,orange,hexagon
0.0,4.0,4.0,0.0,6.0,6.0,665.3440999998566,7.0,1.0,phase_2,go,450.0,500.0,1.0,,,,,,,,,gray,diamond
0.0,8.0,4.0,1.0,6.0,0.0,0.0,7.0,1.0,phase_2,stop,450.0,500.0,4.0,,,,,,,,,blue,I
0.0,8.0,4.0,1.0,6.0,6.0,590.4368009996688,7.0,1.0,phase_2,stop,450.0,550.0,3.0,,,,,,,,,blue,I
0.0,5.0,1.0,1.0,6.0,6.0,606.7058729995551,7.0,1.0,phase_2,stop,450.0,500.0,3.0,,,,,,,,,cyan,cross
0.0,2.0,2.0,0.0,5.0,5.0,651.3873300000341,7.0,1.0,phase_2,go,450.0,450.0,1.0,,,,,,,,,yellow,square
0.0,8.0,4.0,1.0,5.0,5.0,731.8850459996611,7.0,1.0,phase_2,go,450.0,450.0,1.0,,,,,,,,,blue,I
0.0,7.0,3.0,1.0,6.0,6.0,606.9064599996636,7.0,1.0,phase_2,stop,450.0,450.0,3.0,,,,,,,,,white,flipped triangle
0.0,1.0,1.0,0.0,5.0,5.0,596.455438000703,7.0,1.0,phase_2,go,450.0,400.0,1.0,,,,,,,,,orange,hexagon
0.0,8.0,4.0,1.0,5.0,0.0,0.0,7.0,1.0,phase_2,stop,450.0,400.0,4.0,,,,,,,,,blue,I
0.0,2.0,2.0,0.0,6.0,6.0,618.2094539999525,7.0,1.0,phase_2,go,500.0,400.0,1.0,,,,,,,,,yellow,square
0.0,1.0,1.0,0.0,5.0,5.0,645.1240260003033,7.0,1.0,phase_2,go,500.0,400.0,1.0,,,,,,,,,orange,hexagon
0.0,3.0,3.0,0.0,5.0,5.0,415.1281029999154,7.0,1.0,phase_2,go,500.0,400.0,1.0,,,,,,,,,magenta,triangle
0.0,5.0,1.0,1.0,6.0,6.0,430.1561890006269,7.0,1.0,phase_2,stop,500.0,400.0,3.0,,,,,,,,,cyan,cross
0.0,7.0,3.0,1.0,6.0,6.0,627.7945889996772,7.0,1.0,phase_2,go,500.0,350.0,1.0,,,,,,,,,white,flipped triangle
0.0,7.0,3.0,1.0,5.0,5.0,553.449126000487,7.0,1.0,phase_2,stop,500.0,350.0,3.0,,,,,,,,,white,flipped triangle
0.0,5.0,1.0,1.0,5.0,5.0,441.3156089995027,7.0,1.0,phase_2,go,450.0,350.0,1.0,,,,,,,,,cyan,cross
0.0,2.0,2.0,0.0,6.0,6.0,788.5417799998322,7.0,1.0,phase_2,go,450.0,350.0,1.0,,,,,,,,,yellow,square
0.0,1.0,1.0,0.0,6.0,6.0,415.389583000433,7.0,1.0,phase_2,go,450.0,350.0,1.0,,,,,,,,,orange,hexagon
0.0,1.0,1.0,0.0,6.0,6.0,351.280441000199,7.0,1.0,phase_2,go,450.0,350.0,1.0,,,,,,,,,orange,hexagon
0.0,7.0,3.0,1.0,6.0,6.0,312.8080129999944,7.0,1.0,phase_2,stop,450.0,350.0,3.0,,,,,,,,,white,flipped triangle
0.0,7.0,3.0,1.0,6.0,6.0,455.8502709996901,7.0,1.0,phase_2,go,450.0,300.0,1.0,,,,,,,,,white,flipped triangle
0.0,4.0,4.0,0.0,6.0,6.0,324.71994000025,7.0,1.0,phase_2,go,450.0,300.0,1.0,,,,,,,,,gray,diamond
0.0,5.0,1.0,1.0,5.0,5.0,303.3189899997524,7.0,1.0,phase_2,stop,450.0,300.0,3.0,,,,,,,,,cyan,cross
0.0,2.0,2.0,0.0,6.0,6.0,822.7241799995682,7.0,1.0,phase_2,go,400.0,300.0,1.0,,,,,,,,,yellow,square
0.0,2.0,2.0,0.0,6.0,6.0,464.0951000001223,7.0,1.0,phase_2,go,400.0,300.0,1.0,,,,,,,,,yellow,square
0.0,8.0,4.0,1.0,6.0,6.0,405.0980120000531,7.0,1.0,phase_2,stop,400.0,300.0,3.0,,,,,,,,,blue,I
0.0,8.0,4.0,1.0,6.0,6.0,343.4914899999057,7.0,1.0,phase_2,stop,400.0,250.0,3.0,,,,,,,,,blue,I
0.0,6.0,2.0,1.0,6.0,6.0,665.7543389992497,7.0,1.0,phase_2,go,400.0,200.0,1.0,,,,,,,,,green,circle
0.0,5.0,1.0,1.0,6.0,0.0,0.0,7.0,1.0,phase_2,stop,400.0,200.0,4.0,,,,,,,,,cyan,cross
0.0,6.0,2.0,1.0,5.0,5.0,393.1463609997081,7.0,1.0,phase_2,stop,400.0,250.0,3.0,,,,,,,,,green,circle
0.0,8.0,4.0,1.0,5.0,5.0,488.8860000000932,8.0,1.0,phase_2,stop,350.0,250.0,3.0,,,,,,,,,blue,I
0.0,4.0,4.0,0.0,5.0,5.0,637.9844369994316,8.0,1.0,phase_2,go,300.0,250.0,1.0,,,,,,,,,gray,diamond
0.0,8.0,4.0,1.0,6.0,6.0,701.142107999658,8.0,1.0,phase_2,go,300.0,250.0,1.0,,,,,,,,,blue,I
0.0,2.0,2.0,0.0,5.0,5.0,348.7051960000826,8.0,1.0,phase_2,go,300.0,250.0,1.0,,,,,,,,,yellow,square
0.0,4.0,4.0,0.0,5.0,5.0,413.7566889994559,8.0,1.0,phase_2,go,300.0,250.0,1.0,,,,,,,,,gray,diamond
0.0,5.0,1.0,1.0,5.0,5.0,480.6055640001432,8.0,1.0,phase_2,stop,300.0,250.0,3.0,,,,,,,,,cyan,cross
0.0,2.0,2.0,0.0,6.0,6.0,598.4537780004757,8.0,1.0,phase_2,go,250.0,250.0,1.0,,,,,,,,,yellow,square
0.0,1.0,1.0,0.0,5.0,5.0,307.9083499997068,8.0,1.0,phase_2,go,250.0,250.0,1.0,,,,,,,,,orange,hexagon
0.0,3.0,3.0,0.0,5.0,5.0,357.6895119995242,8.0,1.0,phase_2,go,250.0,250.0,1.0,,,,,,,,,magenta,triangle
0.0,5.0,1.0,1.0,6.0,0.0,0.0,8.0,1.0,phase_2,stop,250.0,250.0,4.0,,,,,,,,,cyan,cross
0.0,8.0,4.0,1.0,5.0,5.0,393.2739250003578,8.0,1.0,phase_2,stop,250.0,300.0,3.0,,,,,,,,,blue,I
0.0,8.0,4.0,1.0,5.0,0.0,0.0,8.0,1.0,phase_2,stop,200.0,300.0,4.0,,,,,,,,,blue,I
0.0,4.0,4.0,0.0,5.0,5.0,474.6939309998197,8.0,1.0,phase_2,go,250.0,300.0,1.0,,,,,,,,,gray,diamond
0.0,1.0,1.0,0.0,5.0,5.0,564.8438279995389,8.0,1.0,phase_2,go,250.0,300.0,1.0,,,,,,,,,orange,hexagon
0.0,8.0,4.0,1.0,5.0,0.0,0.0,8.0,1.0,phase_2,stop,250.0,300.0,4.0,,,,,,,,,blue,I
0.0,2.0,2.0,0.0,6.0,6.0,303.5817479994875,8.0,1.0,phase_2,go,300.0,300.0,1.0,,,,,,,,,yellow,square
0.0,3.0,3.0,0.0,6.0,6.0,468.3042220003699,8.0,1.0,phase_2,go,300.0,300.0,1.0,,,,,,,,,magenta,triangle
0.0,8.0,4.0,1.0,5.0,0.0,0.0,8.0,1.0,phase_2,stop,300.0,300.0,4.0,,,,,,,,,blue,I
0.0,7.0,3.0,1.0,5.0,5.0,462.6826449994041,8.0,1.0,phase_2,go,350.0,300.0,1.0,,,,,,,,,white,flipped triangle
0.0,1.0,1.0,0.0,6.0,6.0,612.5062930004788,8.0,1.0,phase_2,go,350.0,300.0,1.0,,,,,,,,,orange,hexagon
0.0,7.0,3.0,1.0,5.0,0.0,0.0,8.0,1.0,phase_2,stop,350.0,300.0,4.0,,,,,,,,,white,flipped triangle
0.0,6.0,2.0,1.0,6.0,0.0,0.0,8.0,1.0,phase_2,stop,400.0,300.0,4.0,,,,,,,,,green,circle
0.0,8.0,4.0,1.0,5.0,5.0,495.3644309998708,8.0,1.0,phase_2,stop,400.0,350.0,3.0,,,,,,,,,blue,I
0.0,4.0,4.0,0.0,6.0,6.0,762.451563000468,8.0,1.0,phase_2,go,350.0,350.0,1.0,,,,,,,,,gray,diamond
0.0,2.0,2.0,0.0,5.0,5.0,714.7131980000268,8.0,1.0,phase_2,go,350.0,350.0,1.0,,,,,,,,,yellow,square
0.0,6.0,2.0,1.0,5.0,5.0,384.5633229993836,8.0,1.0,phase_2,stop,350.0,350.0,3.0,,,,,,,,,green,circle
0.0,3.0,3.0,0.0,5.0,5.0,288.865096000336,8.0,1.0,phase_2,go,300.0,350.0,1.0,,,,,,,,,magenta,triangle
0.0,1.0,1.0,0.0,5.0,5.0,576.5633640003216,8.0,1.0,phase_2,go,300.0,350.0,1.0,,,,,,,,,orange,hexagon
0.0,3.0,3.0,0.0,6.0,6.0,319.0188019998459,8.0,1.0,phase_2,go,300.0,350.0,1.0,,,,,,,,,magenta,triangle
0.0,3.0,3.0,0.0,5.0,5.0,302.622829000029,8.0,1.0,phase_2,go,300.0,350.0,1.0,,,,,,,,,magenta,triangle
0.0,6.0,2.0,1.0,6.0,0.0,0.0,8.0,1.0,phase_2,stop,300.0,350.0,4.0,,,,,,,,,green,circle
0.0,7.0,3.0,1.0,5.0,0.0,0.0,8.0,1.0,phase_2,stop,300.0,400.0,4.0,,,,,,,,,white,flipped triangle
0.0,3.0,3.0,0.0,6.0,6.0,641.4371149994622,8.0,1.0,phase_2,go,350.0,400.0,1.0,,,,,,,,,magenta,triangle
0.0,5.0,1.0,1.0,6.0,6.0,383.7734560001991,8.0,1.0,phase_2,stop,350.0,400.0,3.0,,,,,,,,,cyan,cross
0.0,2.0,2.0,0.0,5.0,5.0,452.8997299994444,8.0,1.0,phase_2,go,350.0,350.0,1.0,,,,,,,,,yellow,square
0.0,5.0,1.0,1.0,5.0,5.0,631.3561739998477,8.0,1.0,phase_2,go,350.0,350.0,1.0,,,,,,,,,cyan,cross
0.0,3.0,3.0,0.0,7.0,3.0,3286.5544380001666,1.0,1.0,phase_3,,,,,245.0,5.0,49.0,98.0,245.0,294.0,196.0,147.0,magenta,triangle
0.0,5.0,1.0,1.0,7.0,2.0,2763.7827270000344,1.0,1.0,phase_3,,,,,234.0,6.0,117.0,234.0,195.0,39.0,78.0,156.0,cyan,cross
0.0,2.0,2.0,0.0,7.0,2.0,2914.7139279994008,1.0,1.0,phase_3,,,,,196.0,4.0,245.0,196.0,147.0,49.0,98.0,294.0,yellow,square
0.0,7.0,3.0,1.0,7.0,1.0,1996.4571560003608,1.0,1.0,phase_3,,,,,34.0,1.0,34.0,170.0,136.0,68.0,102.0,204.0,white,flipped triangle
0.0,6.0,2.0,1.0,7.0,5.0,2401.1459539997304,1.0,1.0,phase_3,,,,,136.0,4.0,170.0,102.0,68.0,34.0,136.0,204.0,green,circle
0.0,8.0,4.0,1.0,7.0,1.0,2548.413487999824,1.0,1.0,phase_3,,,,,245.0,5.0,245.0,294.0,49.0,147.0,196.0,98.0,blue,I
0.0,8.0,4.0,1.0,7.0,1.0,2828.4177410005213,1.0,1.0,phase_3,,,,,170.0,5.0,170.0,34.0,204.0,102.0,136.0,68.0,blue,I
0.0,7.0,3.0,1.0,7.0,6.0,1493.4368270005507,1.0,1.0,phase_3,,,,,49.0,1.0,147.0,245.0,294.0,196.0,98.0,49.0,white,flipped triangle
0.0,7.0,3.0,1.0,7.0,5.0,1816.375270000208,1.0,1.0,phase_3,,,,,117.0,3.0,156.0,195.0,234.0,78.0,117.0,39.0,white,flipped triangle
0.0,1.0,1.0,0.0,7.0,3.0,2775.238905999686,1.0,1.0,phase_3,,,,,195.0,5.0,234.0,156.0,195.0,39.0,117.0,78.0,orange,hexagon
0.0,1.0,1.0,0.0,7.0,5.0,1451.9770670003709,1.0,1.0,phase_3,,,,,176.0,4.0,44.0,88.0,132.0,220.0,176.0,264.0,orange,hexagon
0.0,6.0,2.0,1.0,7.0,3.0,1598.5914650000268,1.0,1.0,phase_3,,,,,270.0,5.0,162.0,324.0,270.0,108.0,216.0,54.0,green,circle
0.0,1.0,1.0,0.0,7.0,5.0,1820.1324920000843,1.0,1.0,phase_3,,,,,170.0,5.0,204.0,136.0,102.0,34.0,170.0,68.0,orange,hexagon
0.0,7.0,3.0,1.0,7.0,3.0,1394.2292129995622,1.0,1.0,phase_3,,,,,44.0,1.0,176.0,132.0,44.0,220.0,88.0,264.0,white,flipped triangle
0.0,1.0,1.0,0.0,7.0,4.0,1549.2870300004142,1.0,1.0,phase_3,,,,,234.0,6.0,117.0,156.0,39.0,234.0,78.0,195.0,orange,hexagon
0.0,3.0,3.0,0.0,7.0,6.0,1404.8082140006954,1.0,1.0,phase_3,,,,,195.0,5.0,156.0,78.0,39.0,234.0,117.0,195.0,magenta,triangle
0.0,6.0,2.0,1.0,7.0,4.0,1746.2983599998552,1.0,1.0,phase_3,,,,,132.0,3.0,220.0,264.0,88.0,132.0,176.0,44.0,green,circle
0.0,4.0,4.0,0.0,7.0,5.0,1683.5986919995776,1.0,1.0,phase_3,,,,,245.0,5.0,196.0,98.0,147.0,294.0,245.0,49.0,gray,diamond
0.0,3.0,3.0,0.0,7.0,3.0,1897.15421999972,1.0,1.0,phase_3,,,,,264.0,6.0,220.0,88.0,264.0,176.0,44.0,132.0,magenta,triangle
0.0,5.0,1.0,1.0,7.0,6.0,1377.3582530002386,1.0,1.0,phase_3,,,,,117.0,3.0,195.0,156.0,39.0,78.0,234.0,117.0,cyan,cross
0.0,5.0,1.0,1.0,7.0,3.0,2278.1284270004107,2.0,1.0,phase_3,,,,,147.0,3.0,49.0,294.0,147.0,245.0,98.0,196.0,cyan,cross
0.0,4.0,4.0,0.0,7.0,5.0,1663.5868579996895,2.0,1.0,phase_3,,,,,245.0,5.0,294.0,98.0,49.0,196.0,245.0,147.0,gray,diamond
0.0,8.0,4.0,1.0,7.0,3.0,2251.095162000638,2.0,1.0,phase_3,,,,,234.0,6.0,78.0,156.0,234.0,195.0,39.0,117.0,blue,I
0.0,2.0,2.0,0.0,7.0,4.0,1537.3065149997274,2.0,1.0,phase_3,,,,,102.0,3.0,204.0,68.0,170.0,102.0,34.0,136.0,yellow,square
0.0,1.0,1.0,0.0,7.0,5.0,2233.161129000109,2.0,1.0,phase_3,,,,,220.0,5.0,132.0,44.0,176.0,264.0,220.0,88.0,orange,hexagon
0.0,2.0,2.0,0.0,7.0,3.0,2638.4415430002264,2.0,1.0,phase_3,,,,,234.0,6.0,117.0,39.0,234.0,78.0,156.0,195.0,yellow,square
0.0,8.0,4.0,1.0,7.0,6.0,2580.028152999148,2.0,1.0,phase_3,,,,,216.0,4.0,324.0,162.0,54.0,270.0,108.0,216.0,blue,I
0.0,7.0,3.0,1.0,7.0,3.0,1899.0610720002223,2.0,1.0,phase_3,,,,,88.0,2.0,132.0,176.0,88.0,220.0,264.0,44.0,white,flipped triangle
0.0,3.0,3.0,0.0,7.0,2.0,1457.8480979998858,2.0,1.0,phase_3,,,,,324.0,6.0,270.0,324.0,162.0,108.0,216.0,54.0,magenta,triangle
0.0,1.0,1.0,0.0,7.0,4.0,2678.0649709999125,2.0,1.0,phase_3,,,,,245.0,5.0,294.0,196.0,49.0,245.0,147.0,98.0,orange,hexagon
0.0,5.0,1.0,1.0,7.0,4.0,3288.2180830001744,2.0,1.0,phase_3,,,,,324.0,6.0,162.0,216.0,54.0,324.0,270.0,108.0,cyan,cross
0.0,4.0,4.0,0.0,7.0,3.0,2073.759809999501,2.0,1.0,phase_3,,,,,88.0,2.0,132.0,44.0,88.0,176.0,220.0,264.0,gray,diamond
0.0,1.0,1.0,0.0,7.0,5.0,2206.502126000487,2.0,1.0,phase_3,,,,,204.0,6.0,102.0,34.0,136.0,68.0,204.0,170.0,orange,hexagon
0.0,6.0,2.0,1.0,7.0,3.0,2332.726877000823,2.0,1.0,phase_3,,,,,147.0,3.0,196.0,294.0,147.0,98.0,245.0,49.0,green,circle
0.0,6.0,2.0,1.0,7.0,6.0,1891.1001380001835,2.0,1.0,phase_3,,,,,195.0,5.0,78.0,234.0,39.0,117.0,156.0,195.0,green,circle
0.0,2.0,2.0,0.0,7.0,3.0,2577.975826000511,2.0,1.0,phase_3,,,,,220.0,5.0,264.0,44.0,220.0,132.0,176.0,88.0,yellow,square
0.0,6.0,2.0,1.0,7.0,1.0,2366.169906000323,2.0,1.0,phase_3,,,,,264.0,6.0,264.0,132.0,88.0,176.0,220.0,44.0,green,circle
0.0,4.0,4.0,0.0,7.0,6.0,2251.4771690002817,2.0,1.0,phase_3,,,,,132.0,3.0,176.0,220.0,264.0,88.0,44.0,132.0,gray,diamond
0.0,6.0,2.0,1.0,7.0,3.0,2825.97151400023,2.0,1.0,phase_3,,,,,294.0,6.0,49.0,147.0,294.0,245.0,98.0,196.0,green,circle
0.0,8.0,4.0,1.0,7.0,3.0,1705.4484360005515,2.0,1.0,phase_3,,,,,162.0,3.0,270.0,216.0,162.0,54.0,324.0,108.0,blue,I
0.0,4.0,4.0,0.0,7.0,5.0,1768.3108309993258,3.0,1.0,phase_3,,,,,34.0,1.0,136.0,68.0,102.0,170.0,34.0,204.0,gray,diamond
0.0,3.0,3.0,0.0,7.0,4.0,2153.800693999983,3.0,1.0,phase_3,,,,,204.0,6.0,170.0,68.0,102.0,204.0,34.0,136.0,magenta,triangle
0.0,5.0,1.0,1.0,7.0,6.0,1835.8555940003496,3.0,1.0,phase_3,,,,,270.0,5.0,54.0,162.0,216.0,108.0,324.0,270.0,cyan,cross
0.0,4.0,4.0,0.0,7.0,3.0,2303.0295500002467,3.0,1.0,phase_3,,,,,68.0,2.0,102.0,136.0,68.0,204.0,170.0,34.0,gray,diamond
0.0,3.0,3.0,0.0,7.0,6.0,1274.6165340004154,3.0,1.0,phase_3,,,,,234.0,6.0,39.0,117.0,156.0,195.0,78.0,234.0,magenta,triangle
0.0,8.0,4.0,1.0,7.0,1.0,1770.5887089996395,3.0,1.0,phase_3,,,,,204.0,6.0,204.0,68.0,102.0,136.0,34.0,170.0,blue,I
0.0,7.0,3.0,1.0,7.0,5.0,3645.582168999681,3.0,1.0,phase_3,,,,,324.0,6.0,216.0,270.0,108.0,54.0,324.0,162.0,white,flipped triangle
0.0,4.0,4.0,0.0,7.0,6.0,1897.405661000448,3.0,1.0,phase_3,,,,,234.0,6.0,78.0,195.0,156.0,117.0,39.0,234.0,gray,diamond
0.0,7.0,3.0,1.0,7.0,3.0,2073.0677520004974,3.0,1.0,phase_3,,,,,102.0,3.0,170.0,204.0,102.0,68.0,34.0,136.0,white,flipped triangle
0.0,5.0,1.0,1.0,7.0,6.0,3412.8907550002623,3.0,1.0,phase_3,,,,,136.0,4.0,170.0,34.0,204.0,68.0,102.0,136.0,cyan,cross
0.0,7.0,3.0,1.0,7.0,5.0,3168.6649779994696,3.0,1.0,phase_3,,,,,162.0,3.0,216.0,54.0,108.0,270.0,162.0,324.0,white,flipped triangle
0.0,5.0,1.0,1.0,7.0,1.0,2169.736759999978,3.0,1.0,phase_3,,,,,264.0,6.0,264.0,220.0,44.0,176.0,88.0,132.0,cyan,cross
0.0,8.0,4.0,1.0,7.0,6.0,3025.733292000041,3.0,1.0,phase_3,,,,,195.0,5.0,234.0,117.0,39.0,156.0,78.0,195.0,blue,I
0.0,8.0,4.0,1.0,7.0,4.0,2779.2856799997026,3.0,1.0,phase_3,,,,,264.0,6.0,220.0,88.0,176.0,264.0,132.0,44.0,blue,I
0.0,3.0,3.0,0.0,7.0,3.0,2000.996949999717,3.0,1.0,phase_3,,,,,49.0,1.0,196.0,147.0,49.0,245.0,98.0,294.0,magenta,triangle
0.0,3.0,3.0,0.0,7.0,5.0,2792.358236999462,3.0,1.0,phase_3,,,,,264.0,6.0,132.0,220.0,176.0,88.0,264.0,44.0,magenta,triangle
0.0,1.0,1.0,0.0,7.0,2.0,4141.532786000425,3.0,1.0,phase_3,,,,,270.0,5.0,162.0,270.0,324.0,54.0,108.0,216.0,orange,hexagon
0.0,1.0,1.0,0.0,7.0,4.0,3439.638144000128,3.0,1.0,phase_3,,,,,294.0,6.0,196.0,147.0,98.0,294.0,49.0,245.0,orange,hexagon
0.0,2.0,2.0,0.0,7.0,5.0,2902.552286000173,3.0,1.0,phase_3,,,,,108.0,2.0,270.0,162.0,54.0,324.0,108.0,216.0,yellow,square
0.0,2.0,2.0,0.0,7.0,6.0,2841.353675999926,3.0,1.0,phase_3,,,,,117.0,3.0,156.0,195.0,39.0,78.0,234.0,117.0,yellow,square
0.0,7.0,3.0,1.0,7.0,5.0,891.9372989994372,4.0,1.0,phase_3,,,,,39.0,1.0,117.0,234.0,156.0,195.0,39.0,78.0,white,flipped triangle
0.0,6.0,2.0,1.0,7.0,4.0,2713.966184000128,4.0,1.0,phase_3,,,,,195.0,5.0,78.0,156.0,39.0,195.0,117.0,234.0,green,circle
0.0,3.0,3.0,0.0,7.0,5.0,1602.4405869993643,4.0,1.0,phase_3,,,,,324.0,6.0,162.0,54.0,108.0,216.0,324.0,270.0,magenta,triangle
0.0,6.0,2.0,1.0,7.0,6.0,2799.860692999573,4.0,1.0,phase_3,,,,,216.0,4.0,162.0,108.0,54.0,324.0,270.0,216.0,green,circle
0.0,2.0,2.0,0.0,7.0,4.0,3167.6770530002614,4.0,1.0,phase_3,,,,,68.0,2.0,136.0,204.0,34.0,68.0,102.0,170.0,yellow,square
0.0,4.0,4.0,0.0,7.0,3.0,3733.191602000261,4.0,1.0,phase_3,,,,,324.0,6.0,162.0,54.0,324.0,270.0,108.0,216.0,gray,diamond
0.0,8.0,4.0,1.0,7.0,5.0,3663.157127999512,4.0,1.0,phase_3,,,,,147.0,3.0,294.0,245.0,196.0,49.0,147.0,98.0,blue,I
0.0,2.0,2.0,0.0,7.0,4.0,2947.985807000805,4.0,1.0,phase_3,,,,,270.0,5.0,216.0,324.0,54.0,270.0,162.0,108.0,yellow,square
0.0,5.0,1.0,1.0,7.0,6.0,1900.5183139997823,4.0,1.0,phase_3,,,,,245.0,5.0,98.0,294.0,147.0,196.0,49.0,245.0,cyan,cross
0.0,8.0,4.0,1.0,7.0,3.0,2755.1950309998574,4.0,1.0,phase_3,,,,,264.0,6.0,220.0,44.0,264.0,132.0,88.0,176.0,blue,I
0.0,3.0,3.0,0.0,7.0,5.0,1870.0839720004296,4.0,1.0,phase_3,,,,,34.0,1.0,204.0,68.0,102.0,170.0,34.0,136.0,magenta,triangle
0.0,4.0,4.0,0.0,7.0,2.0,2331.915581999965,4.0,1.0,phase_3,,,,,78.0,2.0,117.0,78.0,195.0,156.0,39.0,234.0,gray,diamond
0.0,5.0,1.0,1.0,7.0,6.0,2138.1646729996646,4.0,1.0,phase_3,,,,,170.0,5.0,204.0,68.0,136.0,102.0,34.0,170.0,cyan,cross
0.0,4.0,4.0,0.0,7.0,3.0,2160.929112000304,4.0,1.0,phase_3,,,,,54.0,1.0,270.0,162.0,54.0,216.0,108.0,324.0,gray,diamond
0.0,2.0,2.0,0.0,7.0,3.0,3138.7685720001173,4.0,1.0,phase_3,,,,,245.0,5.0,196.0,49.0,245.0,147.0,294.0,98.0,yellow,square
0.0,7.0,3.0,1.0,7.0,2.0,2716.416866000145,4.0,1.0,phase_3,,,,,49.0,1.0,245.0,49.0,294.0,196.0,147.0,98.0,white,flipped triangle
0.0,2.0,2.0,0.0,7.0,6.0,3066.287568000007,4.0,1.0,phase_3,,,,,220.0,5.0,132.0,44.0,176.0,264.0,88.0,220.0,yellow,square
0.0,5.0,1.0,1.0,7.0,3.0,3276.2320399997407,4.0,1.0,phase_3,,,,,264.0,6.0,88.0,220.0,264.0,176.0,132.0,44.0,cyan,cross
0.0,1.0,1.0,0.0,7.0,2.0,2251.059860000169,4.0,1.0,phase_3,,,,,270.0,5.0,216.0,270.0,324.0,54.0,108.0,162.0,orange,hexagon
0.0,6.0,2.0,1.0,7.0,3.0,2962.760366999646,4.0,1.0,phase_3,,,,,34.0,1.0,68.0,170.0,34.0,102.0,204.0,136.0,green,circle
