raw_reward_magnitude,stim_reward,stepwise_reward_magnitude,paired_with_stopping,stim_location,response,reaction_time,block,num_trial_presentations,which_phase,stop_signal_trial_type,left_SSD,right_SSD,accuracy,chosen_bidding_amount,chosen_bidding_level,possible_bid_1,possible_bid_2,possible_bid_3,possible_bid_4,possible_bid_5,possible_bid_6,color_text,shape_text
381.0,4.0,4.0,0.0,1.0,1.0,342.3506219999126,1.0,1.0,phase_1,,,,,,,,,,,,,orange,hexagon
183.0,3.0,3.0,0.0,1.0,1.0,292.74890500005307,1.0,1.0,phase_1,,,,,,,,,,,,,magenta,diamond
40.0,1.0,1.0,0.0,4.0,4.0,294.0379909998682,1.0,1.0,phase_1,,,,,,,,,,,,,gray,flipped triangle
201.0,7.0,3.0,1.0,2.0,2.0,242.406302000063,1.0,1.0,phase_1,,,,,,,,,,,,,yellow,circle
0.0,8.0,0.0,1.0,3.0,3.0,272.7071189999606,1.0,1.0,phase_1,,,,,,,,,,,,,white,triangle
393.0,4.0,4.0,0.0,4.0,4.0,338.4644259999732,1.0,2.0,phase_1,,,,,,,,,,,,,orange,hexagon
117.0,6.0,2.0,1.0,3.0,3.0,455.245178000041,1.0,1.0,phase_1,,,,,,,,,,,,,cyan,I
378.0,8.0,4.0,1.0,3.0,3.0,344.2161420000502,1.0,1.0,phase_1,,,,,,,,,,,,,white,triangle
175.0,7.0,3.0,1.0,1.0,1.0,263.5834730001534,1.0,1.0,phase_1,,,,,,,,,,,,,yellow,circle
45.0,5.0,1.0,1.0,2.0,2.0,288.8275739999244,1.0,1.0,phase_1,,,,,,,,,,,,,blue,cross
0.0,1.0,0.0,0.0,3.0,3.0,254.88277800013748,1.0,1.0,phase_1,,,,,,,,,,,,,gray,flipped triangle
107.0,6.0,2.0,1.0,4.0,4.0,299.6975420001035,1.0,2.0,phase_1,,,,,,,,,,,,,cyan,I
0.0,5.0,0.0,1.0,2.0,2.0,298.6076319998574,1.0,1.0,phase_1,,,,,,,,,,,,,blue,cross
378.0,4.0,4.0,0.0,4.0,4.0,277.0211530000779,1.0,1.0,phase_1,,,,,,,,,,,,,orange,hexagon
43.0,1.0,1.0,0.0,3.0,3.0,246.3998079999783,1.0,1.0,phase_1,,,,,,,,,,,,,gray,flipped triangle
176.0,3.0,3.0,0.0,2.0,2.0,337.7262589999645,1.0,1.0,phase_1,,,,,,,,,,,,,magenta,diamond
390.0,4.0,4.0,0.0,1.0,1.0,335.7535659999939,1.0,1.0,phase_1,,,,,,,,,,,,,orange,hexagon
201.0,3.0,3.0,0.0,3.0,3.0,286.9092959999761,1.0,1.0,phase_1,,,,,,,,,,,,,magenta,diamond
34.0,1.0,1.0,0.0,1.0,1.0,272.7630070000941,1.0,1.0,phase_1,,,,,,,,,,,,,gray,flipped triangle
0.0,1.0,0.0,0.0,4.0,4.0,276.1532000001807,1.0,1.0,phase_1,,,,,,,,,,,,,gray,flipped triangle
78.0,6.0,2.0,1.0,2.0,2.0,254.0539929998431,1.0,1.0,phase_1,,,,,,,,,,,,,cyan,I
219.0,7.0,3.0,1.0,2.0,2.0,352.0752970000558,1.0,1.0,phase_1,,,,,,,,,,,,,yellow,circle
0.0,7.0,0.0,1.0,1.0,1.0,328.8436230000116,1.0,1.0,phase_1,,,,,,,,,,,,,yellow,circle
422.0,4.0,4.0,0.0,1.0,1.0,301.4271499998813,1.0,1.0,phase_1,,,,,,,,,,,,,orange,hexagon
49.0,1.0,1.0,0.0,3.0,3.0,331.7955060001623,1.0,1.0,phase_1,,,,,,,,,,,,,gray,flipped triangle
407.0,4.0,4.0,0.0,4.0,4.0,281.5015070000299,1.0,1.0,phase_1,,,,,,,,,,,,,orange,hexagon
0.0,3.0,0.0,0.0,2.0,2.0,216.4583809999385,1.0,1.0,phase_1,,,,,,,,,,,,,magenta,diamond
55.0,5.0,1.0,1.0,1.0,1.0,261.1221319998549,1.0,1.0,phase_1,,,,,,,,,,,,,blue,cross
84.0,6.0,2.0,1.0,1.0,1.0,269.9167709999983,1.0,1.0,phase_1,,,,,,,,,,,,,cyan,I
0.0,6.0,0.0,1.0,1.0,1.0,339.89383800008,1.0,1.0,phase_1,,,,,,,,,,,,,cyan,I
388.0,4.0,4.0,0.0,3.0,3.0,329.3622549999782,1.0,1.0,phase_1,,,,,,,,,,,,,orange,hexagon
34.0,1.0,1.0,0.0,1.0,1.0,235.3433900000254,1.0,1.0,phase_1,,,,,,,,,,,,,gray,flipped triangle
222.0,7.0,3.0,1.0,2.0,2.0,253.53953800004092,1.0,1.0,phase_1,,,,,,,,,,,,,yellow,circle
102.0,6.0,2.0,1.0,2.0,2.0,340.9550470000795,1.0,1.0,phase_1,,,,,,,,,,,,,cyan,I
26.0,1.0,1.0,0.0,2.0,2.0,327.3251089999576,1.0,1.0,phase_1,,,,,,,,,,,,,gray,flipped triangle
60.0,5.0,1.0,1.0,4.0,4.0,295.9812599999623,1.0,1.0,phase_1,,,,,,,,,,,,,blue,cross
219.0,3.0,3.0,0.0,3.0,3.0,327.7372419997846,1.0,1.0,phase_1,,,,,,,,,,,,,magenta,diamond
115.0,2.0,2.0,0.0,1.0,1.0,279.0826880000168,1.0,1.0,phase_1,,,,,,,,,,,,,green,square
206.0,3.0,3.0,0.0,1.0,1.0,334.5473889999084,1.0,1.0,phase_1,,,,,,,,,,,,,magenta,diamond
102.0,2.0,2.0,0.0,4.0,4.0,283.5523119999834,1.0,1.0,phase_1,,,,,,,,,,,,,green,square
113.0,6.0,2.0,1.0,3.0,3.0,389.4808499999271,1.0,1.0,phase_1,,,,,,,,,,,,,cyan,I
183.0,7.0,3.0,1.0,1.0,1.0,280.0181129998691,1.0,1.0,phase_1,,,,,,,,,,,,,yellow,circle
77.0,6.0,2.0,1.0,2.0,2.0,276.6976699999759,1.0,1.0,phase_1,,,,,,,,,,,,,cyan,I
404.0,4.0,4.0,0.0,3.0,3.0,280.0512480000634,1.0,1.0,phase_1,,,,,,,,,,,,,orange,hexagon
193.0,3.0,3.0,0.0,2.0,2.0,259.9552839999433,1.0,1.0,phase_1,,,,,,,,,,,,,magenta,diamond
98.0,2.0,2.0,0.0,4.0,4.0,297.3918740001409,1.0,1.0,phase_1,,,,,,,,,,,,,green,square
0.0,7.0,0.0,1.0,3.0,3.0,333.5404449999259,1.0,1.0,phase_1,,,,,,,,,,,,,yellow,circle
0.0,1.0,0.0,0.0,2.0,2.0,288.2405870000184,1.0,1.0,phase_1,,,,,,,,,,,,,gray,flipped triangle
100.0,6.0,2.0,1.0,2.0,2.0,324.0746209999088,1.0,1.0,phase_1,,,,,,,,,,,,,cyan,I
383.0,8.0,4.0,1.0,1.0,1.0,258.8192309999613,1.0,1.0,phase_1,,,,,,,,,,,,,white,triangle
50.0,1.0,1.0,0.0,1.0,1.0,325.2112499999384,1.0,1.0,phase_1,,,,,,,,,,,,,gray,flipped triangle
123.0,6.0,2.0,1.0,1.0,1.0,274.5134399999642,1.0,1.0,phase_1,,,,,,,,,,,,,cyan,I
411.0,4.0,4.0,0.0,4.0,4.0,299.7089909999886,1.0,1.0,phase_1,,,,,,,,,,,,,orange,hexagon
206.0,7.0,3.0,1.0,4.0,4.0,314.6179469999879,1.0,1.0,phase_1,,,,,,,,,,,,,yellow,circle
0.0,5.0,0.0,1.0,2.0,2.0,238.1538869999531,1.0,1.0,phase_1,,,,,,,,,,,,,blue,cross
405.0,8.0,4.0,1.0,1.0,1.0,248.8587529999222,1.0,2.0,phase_1,,,,,,,,,,,,,white,triangle
121.0,6.0,2.0,1.0,4.0,4.0,370.3226790000826,1.0,2.0,phase_1,,,,,,,,,,,,,cyan,I
0.0,7.0,0.0,1.0,3.0,3.0,348.9006100001006,1.0,1.0,phase_1,,,,,,,,,,,,,yellow,circle
28.0,1.0,1.0,0.0,1.0,1.0,255.4562200000418,1.0,1.0,phase_1,,,,,,,,,,,,,gray,flipped triangle
55.0,5.0,1.0,1.0,4.0,4.0,323.0479710000509,1.0,1.0,phase_1,,,,,,,,,,,,,blue,cross
216.0,3.0,3.0,0.0,1.0,1.0,269.821218000061,1.0,1.0,phase_1,,,,,,,,,,,,,magenta,diamond
45.0,5.0,1.0,1.0,3.0,3.0,325.2808370000366,1.0,1.0,phase_1,,,,,,,,,,,,,blue,cross
193.0,3.0,3.0,0.0,3.0,3.0,318.9908780000223,1.0,1.0,phase_1,,,,,,,,,,,,,magenta,diamond
422.0,8.0,4.0,1.0,4.0,4.0,314.0930140000364,1.0,1.0,phase_1,,,,,,,,,,,,,white,triangle
112.0,2.0,2.0,0.0,2.0,2.0,271.8079459998535,1.0,1.0,phase_1,,,,,,,,,,,,,green,square
0.0,1.0,0.0,0.0,1.0,1.0,288.9557159999185,1.0,1.0,phase_1,,,,,,,,,,,,,gray,flipped triangle
44.0,1.0,1.0,0.0,1.0,1.0,282.2817289998056,1.0,1.0,phase_1,,,,,,,,,,,,,gray,flipped triangle
403.0,8.0,4.0,1.0,4.0,4.0,283.5056540000096,1.0,1.0,phase_1,,,,,,,,,,,,,white,triangle
0.0,6.0,0.0,1.0,2.0,2.0,272.9480149998835,1.0,1.0,phase_1,,,,,,,,,,,,,cyan,I
194.0,3.0,3.0,0.0,4.0,4.0,306.4495159999296,1.0,1.0,phase_1,,,,,,,,,,,,,magenta,diamond
192.0,3.0,3.0,0.0,2.0,2.0,352.7173530001164,1.0,1.0,phase_1,,,,,,,,,,,,,magenta,diamond
216.0,7.0,3.0,1.0,3.0,3.0,355.4224249999151,1.0,1.0,phase_1,,,,,,,,,,,,,yellow,circle
55.0,1.0,1.0,0.0,1.0,1.0,288.5082269999657,1.0,1.0,phase_1,,,,,,,,,,,,,gray,flipped triangle
415.0,8.0,4.0,1.0,2.0,2.0,258.4512079999967,1.0,1.0,phase_1,,,,,,,,,,,,,white,triangle
47.0,1.0,1.0,0.0,3.0,3.0,329.4888479999827,1.0,1.0,phase_1,,,,,,,,,,,,,gray,flipped triangle
0.0,4.0,0.0,0.0,4.0,4.0,307.0528939999803,1.0,1.0,phase_1,,,,,,,,,,,,,orange,hexagon
402.0,4.0,4.0,0.0,2.0,2.0,278.891509999994,1.0,1.0,phase_1,,,,,,,,,,,,,orange,hexagon
0.0,4.0,0.0,0.0,1.0,1.0,282.8386629998931,1.0,1.0,phase_1,,,,,,,,,,,,,orange,hexagon
223.0,3.0,3.0,0.0,3.0,3.0,313.1334760000754,1.0,1.0,phase_1,,,,,,,,,,,,,magenta,diamond
202.0,3.0,3.0,0.0,1.0,1.0,262.6347360001091,1.0,1.0,phase_1,,,,,,,,,,,,,magenta,diamond
213.0,3.0,3.0,0.0,1.0,1.0,340.1298450000922,1.0,1.0,phase_1,,,,,,,,,,,,,magenta,diamond
0.0,6.0,0.0,1.0,3.0,3.0,359.5599109999057,1.0,1.0,phase_1,,,,,,,,,,,,,cyan,I
379.0,8.0,4.0,1.0,3.0,3.0,345.1857789998485,1.0,1.0,phase_1,,,,,,,,,,,,,white,triangle
400.0,8.0,4.0,1.0,1.0,1.0,264.1219329998421,1.0,1.0,phase_1,,,,,,,,,,,,,white,triangle
0.0,8.0,0.0,1.0,2.0,2.0,244.4109040000057,1.0,1.0,phase_1,,,,,,,,,,,,,white,triangle
60.0,1.0,1.0,0.0,4.0,4.0,326.5071549999447,1.0,1.0,phase_1,,,,,,,,,,,,,gray,flipped triangle
213.0,7.0,3.0,1.0,1.0,1.0,293.5478130000319,1.0,1.0,phase_1,,,,,,,,,,,,,yellow,circle
99.0,6.0,2.0,1.0,3.0,3.0,335.9772069998143,1.0,1.0,phase_1,,,,,,,,,,,,,cyan,I
92.0,6.0,2.0,1.0,2.0,2.0,290.6147819999205,1.0,1.0,phase_1,,,,,,,,,,,,,cyan,I
78.0,6.0,2.0,1.0,3.0,3.0,305.8346110001366,1.0,1.0,phase_1,,,,,,,,,,,,,cyan,I
0.0,4.0,0.0,0.0,3.0,3.0,328.5431470001185,1.0,1.0,phase_1,,,,,,,,,,,,,orange,hexagon
0.0,8.0,0.0,1.0,2.0,2.0,257.9751389998819,1.0,1.0,phase_1,,,,,,,,,,,,,white,triangle
192.0,7.0,3.0,1.0,4.0,4.0,280.2058419999866,1.0,1.0,phase_1,,,,,,,,,,,,,yellow,circle
80.0,2.0,2.0,0.0,4.0,4.0,351.6695739999704,1.0,1.0,phase_1,,,,,,,,,,,,,green,square
393.0,4.0,4.0,0.0,4.0,4.0,356.9418469999164,1.0,1.0,phase_1,,,,,,,,,,,,,orange,hexagon
115.0,6.0,2.0,1.0,3.0,3.0,331.6645450001942,1.0,1.0,phase_1,,,,,,,,,,,,,cyan,I
64.0,5.0,1.0,1.0,3.0,3.0,299.1285789998983,1.0,1.0,phase_1,,,,,,,,,,,,,blue,cross
393.0,8.0,4.0,1.0,2.0,2.0,293.8898849999987,1.0,1.0,phase_1,,,,,,,,,,,,,white,triangle
42.0,1.0,1.0,0.0,2.0,2.0,359.0297680000276,1.0,1.0,phase_1,,,,,,,,,,,,,gray,flipped triangle
0.0,4.0,0.0,0.0,3.0,3.0,351.6362259999823,1.0,1.0,phase_1,,,,,,,,,,,,,orange,hexagon
75.0,6.0,2.0,1.0,1.0,1.0,300.3347789999679,2.0,1.0,phase_1,,,,,,,,,,,,,cyan,I
65.0,1.0,1.0,0.0,1.0,1.0,270.8875880000505,2.0,1.0,phase_1,,,,,,,,,,,,,gray,flipped triangle
202.0,7.0,3.0,1.0,1.0,1.0,268.2440829998995,2.0,1.0,phase_1,,,,,,,,,,,,,yellow,circle
68.0,1.0,1.0,0.0,4.0,4.0,280.0835590001043,2.0,1.0,phase_1,,,,,,,,,,,,,gray,flipped triangle
195.0,3.0,3.0,0.0,2.0,2.0,281.5831970001454,2.0,1.0,phase_1,,,,,,,,,,,,,magenta,diamond
85.0,2.0,2.0,0.0,1.0,1.0,285.2030729998205,2.0,1.0,phase_1,,,,,,,,,,,,,green,square
0.0,2.0,0.0,0.0,3.0,3.0,256.8469230000119,2.0,1.0,phase_1,,,,,,,,,,,,,green,square
406.0,8.0,4.0,1.0,1.0,1.0,292.2222550000697,2.0,1.0,phase_1,,,,,,,,,,,,,white,triangle
84.0,2.0,2.0,0.0,1.0,1.0,292.594476999966,2.0,1.0,phase_1,,,,,,,,,,,,,green,square
120.0,6.0,2.0,1.0,4.0,4.0,242.6657040000464,2.0,1.0,phase_1,,,,,,,,,,,,,cyan,I
384.0,4.0,4.0,0.0,2.0,2.0,287.5777710000875,2.0,1.0,phase_1,,,,,,,,,,,,,orange,hexagon
107.0,2.0,2.0,0.0,1.0,1.0,266.3864720000219,2.0,1.0,phase_1,,,,,,,,,,,,,green,square
0.0,1.0,0.0,0.0,4.0,4.0,304.9376599999505,2.0,1.0,phase_1,,,,,,,,,,,,,gray,flipped triangle
45.0,1.0,1.0,0.0,4.0,4.0,338.0036589999236,2.0,2.0,phase_1,,,,,,,,,,,,,gray,flipped triangle
411.0,8.0,4.0,1.0,4.0,4.0,369.4531429998733,2.0,1.0,phase_1,,,,,,,,,,,,,white,triangle
40.0,5.0,1.0,1.0,3.0,3.0,342.5266089998331,2.0,1.0,phase_1,,,,,,,,,,,,,blue,cross
103.0,6.0,2.0,1.0,3.0,3.0,340.1506899999731,2.0,1.0,phase_1,,,,,,,,,,,,,cyan,I
67.0,5.0,1.0,1.0,2.0,2.0,348.0983059998834,2.0,1.0,phase_1,,,,,,,,,,,,,blue,cross
411.0,4.0,4.0,0.0,2.0,2.0,296.335013999851,2.0,1.0,phase_1,,,,,,,,,,,,,orange,hexagon
0.0,5.0,0.0,1.0,2.0,2.0,294.0926119999858,2.0,1.0,phase_1,,,,,,,,,,,,,blue,cross
72.0,5.0,1.0,1.0,3.0,3.0,291.9019680000474,2.0,1.0,phase_1,,,,,,,,,,,,,blue,cross
188.0,3.0,3.0,0.0,3.0,3.0,461.7041430001336,2.0,1.0,phase_1,,,,,,,,,,,,,magenta,diamond
413.0,4.0,4.0,0.0,2.0,2.0,319.0268460000425,2.0,1.0,phase_1,,,,,,,,,,,,,orange,hexagon
0.0,8.0,0.0,1.0,2.0,2.0,335.0644859999647,2.0,1.0,phase_1,,,,,,,,,,,,,white,triangle
413.0,8.0,4.0,1.0,3.0,3.0,264.7741359999145,2.0,1.0,phase_1,,,,,,,,,,,,,white,triangle
188.0,7.0,3.0,1.0,4.0,4.0,342.9070689999207,2.0,1.0,phase_1,,,,,,,,,,,,,yellow,circle
183.0,7.0,3.0,1.0,2.0,2.0,280.3870000000188,2.0,1.0,phase_1,,,,,,,,,,,,,yellow,circle
0.0,6.0,0.0,1.0,4.0,4.0,320.8806570000888,2.0,1.0,phase_1,,,,,,,,,,,,,cyan,I
0.0,7.0,0.0,1.0,2.0,2.0,284.0309779999188,2.0,1.0,phase_1,,,,,,,,,,,,,yellow,circle
224.0,7.0,3.0,1.0,3.0,3.0,306.1555829999633,2.0,1.0,phase_1,,,,,,,,,,,,,yellow,circle
0.0,6.0,0.0,1.0,4.0,4.0,299.20506000007657,2.0,1.0,phase_1,,,,,,,,,,,,,cyan,I
0.0,3.0,0.0,0.0,4.0,4.0,313.141466999923,2.0,1.0,phase_1,,,,,,,,,,,,,magenta,diamond
0.0,3.0,0.0,0.0,3.0,3.0,327.9136119999748,2.0,1.0,phase_1,,,,,,,,,,,,,magenta,diamond
114.0,2.0,2.0,0.0,2.0,2.0,297.6303140001164,2.0,1.0,phase_1,,,,,,,,,,,,,green,square
203.0,3.0,3.0,0.0,4.0,4.0,401.5010269999948,2.0,1.0,phase_1,,,,,,,,,,,,,magenta,diamond
203.0,7.0,3.0,1.0,1.0,1.0,353.4733999999844,2.0,1.0,phase_1,,,,,,,,,,,,,yellow,circle
0.0,1.0,0.0,0.0,4.0,4.0,355.4936559999078,2.0,1.0,phase_1,,,,,,,,,,,,,gray,flipped triangle
73.0,5.0,1.0,1.0,3.0,3.0,383.5374690002027,2.0,1.0,phase_1,,,,,,,,,,,,,blue,cross
378.0,8.0,4.0,1.0,3.0,3.0,389.9516399999356,2.0,1.0,phase_1,,,,,,,,,,,,,white,triangle
34.0,5.0,1.0,1.0,1.0,1.0,343.8562510000338,2.0,1.0,phase_1,,,,,,,,,,,,,blue,cross
223.0,7.0,3.0,1.0,3.0,3.0,280.3291399998215,2.0,1.0,phase_1,,,,,,,,,,,,,yellow,circle
0.0,4.0,0.0,0.0,3.0,3.0,326.5712180000264,2.0,1.0,phase_1,,,,,,,,,,,,,orange,hexagon
85.0,6.0,2.0,1.0,4.0,4.0,319.6495340000638,2.0,1.0,phase_1,,,,,,,,,,,,,cyan,I
64.0,1.0,1.0,0.0,3.0,3.0,338.8196739999785,2.0,1.0,phase_1,,,,,,,,,,,,,gray,flipped triangle
384.0,4.0,4.0,0.0,2.0,2.0,301.6723299999739,2.0,1.0,phase_1,,,,,,,,,,,,,orange,hexagon
390.0,4.0,4.0,0.0,3.0,3.0,276.2906230000226,2.0,1.0,phase_1,,,,,,,,,,,,,orange,hexagon
189.0,3.0,3.0,0.0,3.0,3.0,367.9943730001014,2.0,1.0,phase_1,,,,,,,,,,,,,magenta,diamond
26.0,5.0,1.0,1.0,4.0,4.0,291.8201089999002,2.0,1.0,phase_1,,,,,,,,,,,,,blue,cross
205.0,3.0,3.0,0.0,2.0,2.0,303.8121329998375,2.0,1.0,phase_1,,,,,,,,,,,,,magenta,diamond
189.0,7.0,3.0,1.0,3.0,3.0,300.8904409998649,2.0,1.0,phase_1,,,,,,,,,,,,,yellow,circle
39.0,1.0,1.0,0.0,3.0,3.0,316.1849329999313,2.0,1.0,phase_1,,,,,,,,,,,,,gray,flipped triangle
49.0,5.0,1.0,1.0,2.0,2.0,251.68845799998962,2.0,1.0,phase_1,,,,,,,,,,,,,blue,cross
0.0,2.0,0.0,0.0,3.0,3.0,299.4605729998056,2.0,1.0,phase_1,,,,,,,,,,,,,green,square
123.0,6.0,2.0,1.0,2.0,2.0,295.2416269999958,2.0,1.0,phase_1,,,,,,,,,,,,,cyan,I
53.0,5.0,1.0,1.0,4.0,4.0,279.6975490000477,2.0,1.0,phase_1,,,,,,,,,,,,,blue,cross
397.0,8.0,4.0,1.0,2.0,2.0,306.0352770000918,2.0,1.0,phase_1,,,,,,,,,,,,,white,triangle
0.0,5.0,0.0,1.0,1.0,1.0,315.2750939998441,2.0,1.0,phase_1,,,,,,,,,,,,,blue,cross
39.0,5.0,1.0,1.0,1.0,1.0,337.814187000049,2.0,1.0,phase_1,,,,,,,,,,,,,blue,cross
213.0,7.0,3.0,1.0,2.0,2.0,306.9246720001501,2.0,1.0,phase_1,,,,,,,,,,,,,yellow,circle
222.0,3.0,3.0,0.0,1.0,1.0,288.1798380001328,2.0,1.0,phase_1,,,,,,,,,,,,,magenta,diamond
43.0,5.0,1.0,1.0,4.0,4.0,287.7246129999093,2.0,1.0,phase_1,,,,,,,,,,,,,blue,cross
175.0,3.0,3.0,0.0,3.0,3.0,300.1335369999651,2.0,1.0,phase_1,,,,,,,,,,,,,magenta,diamond
208.0,7.0,3.0,1.0,3.0,3.0,302.6835640000627,2.0,2.0,phase_1,,,,,,,,,,,,,yellow,circle
0.0,5.0,0.0,1.0,1.0,1.0,298.6293129999922,2.0,1.0,phase_1,,,,,,,,,,,,,blue,cross
30.0,5.0,1.0,1.0,2.0,2.0,265.023365999923,2.0,1.0,phase_1,,,,,,,,,,,,,blue,cross
75.0,5.0,1.0,1.0,1.0,1.0,297.8269249999812,2.0,1.0,phase_1,,,,,,,,,,,,,blue,cross
75.0,1.0,1.0,0.0,4.0,4.0,298.3736749999934,2.0,1.0,phase_1,,,,,,,,,,,,,gray,flipped triangle
27.0,1.0,1.0,0.0,2.0,2.0,267.2291989999849,2.0,1.0,phase_1,,,,,,,,,,,,,gray,flipped triangle
0.0,2.0,0.0,0.0,4.0,4.0,281.4548549999927,2.0,1.0,phase_1,,,,,,,,,,,,,green,square
99.0,2.0,2.0,0.0,2.0,2.0,263.6932420000448,2.0,1.0,phase_1,,,,,,,,,,,,,green,square
65.0,5.0,1.0,1.0,2.0,2.0,293.1280059999608,2.0,1.0,phase_1,,,,,,,,,,,,,blue,cross
35.0,1.0,1.0,0.0,2.0,2.0,316.0631920000014,2.0,1.0,phase_1,,,,,,,,,,,,,gray,flipped triangle
52.0,5.0,1.0,1.0,3.0,3.0,305.3821620001145,2.0,1.0,phase_1,,,,,,,,,,,,,blue,cross
0.0,8.0,0.0,1.0,2.0,2.0,292.5964189998922,2.0,1.0,phase_1,,,,,,,,,,,,,white,triangle
0.0,3.0,0.0,0.0,4.0,4.0,289.2294849998507,2.0,1.0,phase_1,,,,,,,,,,,,,magenta,diamond
202.0,3.0,3.0,0.0,2.0,2.0,272.0501090000198,2.0,1.0,phase_1,,,,,,,,,,,,,magenta,diamond
417.0,4.0,4.0,0.0,4.0,4.0,323.8035340000351,2.0,1.0,phase_1,,,,,,,,,,,,,orange,hexagon
37.0,1.0,1.0,0.0,4.0,4.0,318.6023480000131,2.0,1.0,phase_1,,,,,,,,,,,,,gray,flipped triangle
78.0,2.0,2.0,0.0,1.0,1.0,267.3453099998824,2.0,1.0,phase_1,,,,,,,,,,,,,green,square
397.0,4.0,4.0,0.0,2.0,2.0,249.6337770000991,2.0,1.0,phase_1,,,,,,,,,,,,,orange,hexagon
0.0,1.0,0.0,0.0,1.0,1.0,334.2785290001302,2.0,1.0,phase_1,,,,,,,,,,,,,gray,flipped triangle
0.0,3.0,0.0,0.0,2.0,2.0,288.4334269999726,2.0,1.0,phase_1,,,,,,,,,,,,,magenta,diamond
94.0,2.0,2.0,0.0,2.0,2.0,247.8771640001014,2.0,1.0,phase_1,,,,,,,,,,,,,green,square
417.0,4.0,4.0,0.0,3.0,3.0,400.3499659997942,2.0,1.0,phase_1,,,,,,,,,,,,,orange,hexagon
68.0,5.0,1.0,1.0,4.0,4.0,285.0535139998555,2.0,1.0,phase_1,,,,,,,,,,,,,blue,cross
384.0,8.0,4.0,1.0,2.0,2.0,239.7594009999011,2.0,1.0,phase_1,,,,,,,,,,,,,white,triangle
0.0,8.0,0.0,1.0,1.0,1.0,281.0916210000869,2.0,1.0,phase_1,,,,,,,,,,,,,white,triangle
402.0,8.0,4.0,1.0,1.0,1.0,283.2843649998722,2.0,2.0,phase_1,,,,,,,,,,,,,white,triangle
0.0,5.0,0.0,1.0,4.0,4.0,287.0098910000251,2.0,1.0,phase_1,,,,,,,,,,,,,blue,cross
177.0,7.0,3.0,1.0,4.0,4.0,611.5918150001107,2.0,1.0,phase_1,,,,,,,,,,,,,yellow,circle
378.0,4.0,4.0,0.0,2.0,2.0,320.7856960000299,2.0,1.0,phase_1,,,,,,,,,,,,,orange,hexagon
381.0,8.0,4.0,1.0,1.0,1.0,446.1584450000373,2.0,1.0,phase_1,,,,,,,,,,,,,white,triangle
194.0,7.0,3.0,1.0,3.0,3.0,464.1620529998818,2.0,1.0,phase_1,,,,,,,,,,,,,yellow,circle
99.0,2.0,2.0,0.0,4.0,4.0,426.24353899987,2.0,1.0,phase_1,,,,,,,,,,,,,green,square
45.0,1.0,1.0,0.0,1.0,1.0,323.5626360001333,2.0,1.0,phase_1,,,,,,,,,,,,,gray,flipped triangle
44.0,5.0,1.0,1.0,3.0,3.0,354.9617149999449,2.0,1.0,phase_1,,,,,,,,,,,,,blue,cross
50.0,5.0,1.0,1.0,4.0,4.0,305.2012670000295,2.0,1.0,phase_1,,,,,,,,,,,,,blue,cross
411.0,8.0,4.0,1.0,1.0,1.0,287.9090169999472,2.0,1.0,phase_1,,,,,,,,,,,,,white,triangle
122.0,6.0,2.0,1.0,4.0,4.0,299.6552750000774,2.0,1.0,phase_1,,,,,,,,,,,,,cyan,I
114.0,6.0,2.0,1.0,3.0,3.0,299.8070339999685,2.0,1.0,phase_1,,,,,,,,,,,,,cyan,I
0.0,2.0,0.0,0.0,4.0,4.0,376.9321350000609,3.0,1.0,phase_1,,,,,,,,,,,,,green,square
35.0,5.0,1.0,1.0,3.0,3.0,306.4055390000249,3.0,1.0,phase_1,,,,,,,,,,,,,blue,cross
115.0,6.0,2.0,1.0,1.0,1.0,329.2306099999678,3.0,1.0,phase_1,,,,,,,,,,,,,cyan,I
415.0,4.0,4.0,0.0,3.0,3.0,285.1719670002239,3.0,1.0,phase_1,,,,,,,,,,,,,orange,hexagon
376.0,8.0,4.0,1.0,2.0,2.0,261.1447669999052,3.0,1.0,phase_1,,,,,,,,,,,,,white,triangle
55.0,5.0,1.0,1.0,2.0,2.0,302.0387200001551,3.0,1.0,phase_1,,,,,,,,,,,,,blue,cross
73.0,1.0,1.0,0.0,4.0,4.0,304.0986459998294,3.0,1.0,phase_1,,,,,,,,,,,,,gray,flipped triangle
0.0,8.0,0.0,1.0,3.0,3.0,311.2489949999144,3.0,1.0,phase_1,,,,,,,,,,,,,white,triangle
202.0,7.0,3.0,1.0,1.0,1.0,287.617081999997,3.0,1.0,phase_1,,,,,,,,,,,,,yellow,circle
208.0,3.0,3.0,0.0,4.0,4.0,298.8887599999543,3.0,1.0,phase_1,,,,,,,,,,,,,magenta,diamond
175.0,3.0,3.0,0.0,2.0,2.0,316.1856689998785,3.0,1.0,phase_1,,,,,,,,,,,,,magenta,diamond
205.0,7.0,3.0,1.0,4.0,4.0,302.6689610001085,3.0,1.0,phase_1,,,,,,,,,,,,,yellow,circle
387.0,4.0,4.0,0.0,4.0,4.0,315.8369379998476,3.0,1.0,phase_1,,,,,,,,,,,,,orange,hexagon
405.0,8.0,4.0,1.0,2.0,2.0,400.0302429999465,3.0,1.0,phase_1,,,,,,,,,,,,,white,triangle
103.0,6.0,2.0,1.0,4.0,4.0,309.5674740000049,3.0,1.0,phase_1,,,,,,,,,,,,,cyan,I
92.0,2.0,2.0,0.0,3.0,3.0,354.1164989999288,3.0,1.0,phase_1,,,,,,,,,,,,,green,square
77.0,2.0,2.0,0.0,3.0,3.0,340.6327699999565,3.0,1.0,phase_1,,,,,,,,,,,,,green,square
98.0,6.0,2.0,1.0,1.0,1.0,365.3757330000644,3.0,1.0,phase_1,,,,,,,,,,,,,cyan,I
80.0,2.0,2.0,0.0,2.0,2.0,277.5075580000248,3.0,1.0,phase_1,,,,,,,,,,,,,green,square
92.0,2.0,2.0,0.0,4.0,4.0,308.419221000122,3.0,1.0,phase_1,,,,,,,,,,,,,green,square
0.0,7.0,0.0,1.0,2.0,2.0,492.8029649997825,3.0,1.0,phase_1,,,,,,,,,,,,,yellow,circle
0.0,6.0,0.0,1.0,4.0,4.0,346.5496369999528,3.0,1.0,phase_1,,,,,,,,,,,,,cyan,I
0.0,3.0,0.0,0.0,3.0,3.0,370.2368520000618,3.0,1.0,phase_1,,,,,,,,,,,,,magenta,diamond
78.0,2.0,2.0,0.0,2.0,2.0,293.5011049999048,3.0,1.0,phase_1,,,,,,,,,,,,,green,square
0.0,3.0,0.0,0.0,2.0,2.0,331.468101999917,3.0,1.0,phase_1,,,,,,,,,,,,,magenta,diamond
393.0,8.0,4.0,1.0,4.0,4.0,300.789259000112,3.0,1.0,phase_1,,,,,,,,,,,,,white,triangle
176.0,3.0,3.0,0.0,4.0,4.0,368.4379509998052,3.0,1.0,phase_1,,,,,,,,,,,,,magenta,diamond
425.0,4.0,4.0,0.0,4.0,4.0,328.9770179999323,3.0,1.0,phase_1,,,,,,,,,,,,,orange,hexagon
176.0,7.0,3.0,1.0,4.0,4.0,501.71357499993974,3.0,1.0,phase_1,,,,,,,,,,,,,yellow,circle
0.0,7.0,0.0,1.0,3.0,3.0,365.3293269999267,3.0,1.0,phase_1,,,,,,,,,,,,,yellow,circle
91.0,2.0,2.0,0.0,2.0,2.0,352.2629840001627,3.0,1.0,phase_1,,,,,,,,,,,,,green,square
34.0,5.0,1.0,1.0,1.0,1.0,308.5223470000073,3.0,1.0,phase_1,,,,,,,,,,,,,blue,cross
208.0,3.0,3.0,0.0,1.0,1.0,327.6844760000585,3.0,1.0,phase_1,,,,,,,,,,,,,magenta,diamond
0.0,8.0,0.0,1.0,3.0,3.0,345.9801999999854,3.0,1.0,phase_1,,,,,,,,,,,,,white,triangle
383.0,4.0,4.0,0.0,3.0,3.0,312.1519960000114,3.0,1.0,phase_1,,,,,,,,,,,,,orange,hexagon
383.0,4.0,4.0,0.0,4.0,4.0,347.9310420000274,3.0,1.0,phase_1,,,,,,,,,,,,,orange,hexagon
55.0,1.0,1.0,0.0,2.0,2.0,320.8555419998902,3.0,1.0,phase_1,,,,,,,,,,,,,gray,flipped triangle
180.0,3.0,3.0,0.0,1.0,1.0,308.1112919999214,3.0,1.0,phase_1,,,,,,,,,,,,,magenta,diamond
0.0,8.0,0.0,1.0,4.0,4.0,311.1749390000113,3.0,1.0,phase_1,,,,,,,,,,,,,white,triangle
386.0,8.0,4.0,1.0,2.0,2.0,300.3459930000645,3.0,1.0,phase_1,,,,,,,,,,,,,white,triangle
421.0,8.0,4.0,1.0,3.0,3.0,302.9686750001019,3.0,1.0,phase_1,,,,,,,,,,,,,white,triangle
405.0,4.0,4.0,0.0,1.0,1.0,336.7146380001031,3.0,1.0,phase_1,,,,,,,,,,,,,orange,hexagon
384.0,8.0,4.0,1.0,4.0,4.0,321.1982860002536,3.0,1.0,phase_1,,,,,,,,,,,,,white,triangle
98.0,2.0,2.0,0.0,4.0,4.0,306.4099839998562,3.0,1.0,phase_1,,,,,,,,,,,,,green,square
0.0,4.0,0.0,0.0,4.0,4.0,334.4713530000263,3.0,1.0,phase_1,,,,,,,,,,,,,orange,hexagon
0.0,7.0,0.0,1.0,3.0,3.0,326.4818140000898,3.0,1.0,phase_1,,,,,,,,,,,,,yellow,circle
0.0,8.0,0.0,1.0,4.0,4.0,357.208638999964,3.0,1.0,phase_1,,,,,,,,,,,,,white,triangle
0.0,1.0,0.0,0.0,3.0,3.0,351.8656800001736,3.0,1.0,phase_1,,,,,,,,,,,,,gray,flipped triangle
420.0,4.0,4.0,0.0,1.0,1.0,303.03397799980297,3.0,1.0,phase_1,,,,,,,,,,,,,orange,hexagon
188.0,7.0,3.0,1.0,3.0,3.0,393.8947399997232,3.0,1.0,phase_1,,,,,,,,,,,,,yellow,circle
0.0,4.0,0.0,0.0,4.0,4.0,259.0740030000233,3.0,1.0,phase_1,,,,,,,,,,,,,orange,hexagon
217.0,7.0,3.0,1.0,1.0,1.0,293.964104999759,3.0,1.0,phase_1,,,,,,,,,,,,,yellow,circle
199.0,7.0,3.0,1.0,2.0,2.0,284.3424289999348,3.0,1.0,phase_1,,,,,,,,,,,,,yellow,circle
101.0,2.0,2.0,0.0,1.0,1.0,398.6475100000461,3.0,1.0,phase_1,,,,,,,,,,,,,green,square
53.0,1.0,1.0,0.0,1.0,1.0,311.50090899973287,3.0,1.0,phase_1,,,,,,,,,,,,,gray,flipped triangle
0.0,4.0,0.0,0.0,3.0,3.0,315.8145239999612,3.0,1.0,phase_1,,,,,,,,,,,,,orange,hexagon
35.0,1.0,1.0,0.0,3.0,3.0,466.1552600000505,3.0,1.0,phase_1,,,,,,,,,,,,,gray,flipped triangle
0.0,2.0,0.0,0.0,4.0,4.0,278.6904399999912,3.0,1.0,phase_1,,,,,,,,,,,,,green,square
92.0,2.0,2.0,0.0,3.0,3.0,387.4405170004138,3.0,1.0,phase_1,,,,,,,,,,,,,green,square
199.0,7.0,3.0,1.0,2.0,2.0,266.3476379998428,3.0,1.0,phase_1,,,,,,,,,,,,,yellow,circle
0.0,4.0,0.0,0.0,3.0,3.0,574.5850689995677,3.0,1.0,phase_1,,,,,,,,,,,,,orange,hexagon
0.0,5.0,0.0,1.0,4.0,4.0,303.928662999624,3.0,1.0,phase_1,,,,,,,,,,,,,blue,cross
92.0,6.0,2.0,1.0,1.0,1.0,253.19754199972522,3.0,1.0,phase_1,,,,,,,,,,,,,cyan,I
37.0,5.0,1.0,1.0,2.0,2.0,279.9666470000375,3.0,1.0,phase_1,,,,,,,,,,,,,blue,cross
89.0,2.0,2.0,0.0,3.0,3.0,309.692577000078,3.0,1.0,phase_1,,,,,,,,,,,,,green,square
0.0,2.0,0.0,0.0,1.0,1.0,384.2554300003939,3.0,1.0,phase_1,,,,,,,,,,,,,green,square
75.0,1.0,1.0,0.0,2.0,2.0,261.3561339999251,3.0,1.0,phase_1,,,,,,,,,,,,,gray,flipped triangle
0.0,3.0,0.0,0.0,3.0,3.0,308.9275209999869,3.0,1.0,phase_1,,,,,,,,,,,,,magenta,diamond
68.0,5.0,1.0,1.0,2.0,2.0,298.1744979997529,3.0,1.0,phase_1,,,,,,,,,,,,,blue,cross
99.0,6.0,2.0,1.0,1.0,1.0,317.4041119996218,3.0,1.0,phase_1,,,,,,,,,,,,,cyan,I
213.0,3.0,3.0,0.0,3.0,3.0,280.8416529996975,3.0,1.0,phase_1,,,,,,,,,,,,,magenta,diamond
420.0,8.0,4.0,1.0,4.0,4.0,297.0915529999729,3.0,1.0,phase_1,,,,,,,,,,,,,white,triangle
103.0,2.0,2.0,0.0,3.0,3.0,357.1748800000023,3.0,1.0,phase_1,,,,,,,,,,,,,green,square
120.0,2.0,2.0,0.0,2.0,2.0,260.6963759999416,3.0,1.0,phase_1,,,,,,,,,,,,,green,square
421.0,4.0,4.0,0.0,3.0,3.0,330.8888850001494,3.0,1.0,phase_1,,,,,,,,,,,,,orange,hexagon
405.0,4.0,4.0,0.0,1.0,1.0,516.2188049998804,3.0,1.0,phase_1,,,,,,,,,,,,,orange,hexagon
74.0,5.0,1.0,1.0,1.0,1.0,401.1279790001936,3.0,1.0,phase_1,,,,,,,,,,,,,blue,cross
203.0,3.0,3.0,0.0,4.0,4.0,306.3225649998458,3.0,1.0,phase_1,,,,,,,,,,,,,magenta,diamond
0.0,6.0,0.0,1.0,3.0,3.0,327.5369169996338,3.0,1.0,phase_1,,,,,,,,,,,,,cyan,I
224.0,3.0,3.0,0.0,4.0,4.0,373.7287210001341,3.0,1.0,phase_1,,,,,,,,,,,,,magenta,diamond
406.0,4.0,4.0,0.0,1.0,1.0,308.1924919997618,3.0,1.0,phase_1,,,,,,,,,,,,,orange,hexagon
405.0,4.0,4.0,0.0,3.0,3.0,361.3948849997541,3.0,1.0,phase_1,,,,,,,,,,,,,orange,hexagon
199.0,3.0,3.0,0.0,4.0,4.0,299.1292439996869,3.0,1.0,phase_1,,,,,,,,,,,,,magenta,diamond
0.0,2.0,0.0,0.0,2.0,2.0,268.4781210000437,3.0,1.0,phase_1,,,,,,,,,,,,,green,square
223.0,3.0,3.0,0.0,2.0,2.0,323.2362440003271,3.0,1.0,phase_1,,,,,,,,,,,,,magenta,diamond
30.0,1.0,1.0,0.0,2.0,2.0,375.1566249998177,3.0,1.0,phase_1,,,,,,,,,,,,,gray,flipped triangle
0.0,7.0,0.0,1.0,2.0,2.0,315.3516160000436,3.0,1.0,phase_1,,,,,,,,,,,,,yellow,circle
0.0,5.0,0.0,1.0,4.0,4.0,341.4416870000423,3.0,1.0,phase_1,,,,,,,,,,,,,blue,cross
114.0,6.0,2.0,1.0,4.0,4.0,369.3763100000069,3.0,1.0,phase_1,,,,,,,,,,,,,cyan,I
213.0,3.0,3.0,0.0,2.0,2.0,498.8888430002589,3.0,1.0,phase_1,,,,,,,,,,,,,magenta,diamond
94.0,6.0,2.0,1.0,2.0,2.0,284.613998000168,3.0,1.0,phase_1,,,,,,,,,,,,,cyan,I
0.0,6.0,0.0,1.0,4.0,4.0,307.0092269999804,3.0,1.0,phase_1,,,,,,,,,,,,,cyan,I
416.0,4.0,4.0,0.0,2.0,2.0,269.1377199998896,3.0,1.0,phase_1,,,,,,,,,,,,,orange,hexagon
111.0,2.0,2.0,0.0,3.0,3.0,269.8333480002475,3.0,1.0,phase_1,,,,,,,,,,,,,green,square
91.0,6.0,2.0,1.0,2.0,2.0,257.775385000059,3.0,1.0,phase_1,,,,,,,,,,,,,cyan,I
0.0,2.0,0.0,0.0,3.0,3.0,325.885707999987,3.0,1.0,phase_1,,,,,,,,,,,,,green,square
97.0,6.0,2.0,1.0,4.0,4.0,324.6407300002829,3.0,1.0,phase_1,,,,,,,,,,,,,cyan,I
193.0,7.0,3.0,1.0,2.0,2.0,282.6777299997047,3.0,1.0,phase_1,,,,,,,,,,,,,yellow,circle
97.0,2.0,2.0,0.0,4.0,4.0,325.2792349999254,3.0,1.0,phase_1,,,,,,,,,,,,,green,square
425.0,8.0,4.0,1.0,1.0,1.0,292.7809500001785,3.0,1.0,phase_1,,,,,,,,,,,,,white,triangle
114.0,2.0,2.0,0.0,1.0,1.0,314.7048219998396,4.0,1.0,phase_1,,,,,,,,,,,,,green,square
122.0,2.0,2.0,0.0,1.0,1.0,327.0818579999286,4.0,1.0,phase_1,,,,,,,,,,,,,green,square
217.0,3.0,3.0,0.0,3.0,3.0,296.2901740002053,4.0,1.0,phase_1,,,,,,,,,,,,,magenta,diamond
123.0,2.0,2.0,0.0,4.0,4.0,319.7681720002947,4.0,1.0,phase_1,,,,,,,,,,,,,green,square
0.0,2.0,0.0,0.0,1.0,1.0,287.8655460003756,4.0,1.0,phase_1,,,,,,,,,,,,,green,square
213.0,7.0,3.0,1.0,4.0,4.0,260.7905720001326,4.0,1.0,phase_1,,,,,,,,,,,,,yellow,circle
419.0,4.0,4.0,0.0,1.0,1.0,262.896148999971,4.0,1.0,phase_1,,,,,,,,,,,,,orange,hexagon
420.0,4.0,4.0,0.0,4.0,4.0,319.6607790000598,4.0,1.0,phase_1,,,,,,,,,,,,,orange,hexagon
188.0,3.0,3.0,0.0,4.0,4.0,299.2032199999812,4.0,1.0,phase_1,,,,,,,,,,,,,magenta,diamond
35.0,5.0,1.0,1.0,1.0,1.0,273.6497249998137,4.0,1.0,phase_1,,,,,,,,,,,,,blue,cross
387.0,8.0,4.0,1.0,4.0,4.0,272.3888020000231,4.0,1.0,phase_1,,,,,,,,,,,,,white,triangle
416.0,8.0,4.0,1.0,2.0,2.0,303.740337000363,4.0,1.0,phase_1,,,,,,,,,,,,,white,triangle
103.0,2.0,2.0,0.0,4.0,4.0,312.3939409997547,4.0,1.0,phase_1,,,,,,,,,,,,,green,square
205.0,3.0,3.0,0.0,4.0,4.0,287.8013999998075,4.0,1.0,phase_1,,,,,,,,,,,,,magenta,diamond
210.0,7.0,3.0,1.0,4.0,4.0,338.7366160000056,4.0,1.0,phase_1,,,,,,,,,,,,,yellow,circle
111.0,6.0,2.0,1.0,1.0,1.0,345.4907179998372,4.0,1.0,phase_1,,,,,,,,,,,,,cyan,I
203.0,7.0,3.0,1.0,1.0,1.0,338.425093999831,4.0,1.0,phase_1,,,,,,,,,,,,,yellow,circle
205.0,7.0,3.0,1.0,4.0,4.0,301.8132409997633,4.0,1.0,phase_1,,,,,,,,,,,,,yellow,circle
175.0,7.0,3.0,1.0,1.0,1.0,335.2550219997283,4.0,1.0,phase_1,,,,,,,,,,,,,yellow,circle
400.0,4.0,4.0,0.0,3.0,3.0,341.5001529997425,4.0,1.0,phase_1,,,,,,,,,,,,,orange,hexagon
0.0,1.0,0.0,0.0,2.0,2.0,335.9540609999385,4.0,1.0,phase_1,,,,,,,,,,,,,gray,flipped triangle
419.0,8.0,4.0,1.0,2.0,2.0,281.6446299998461,4.0,1.0,phase_1,,,,,,,,,,,,,white,triangle
39.0,1.0,1.0,0.0,1.0,1.0,351.7025359997205,4.0,1.0,phase_1,,,,,,,,,,,,,gray,flipped triangle
34.0,1.0,1.0,0.0,4.0,4.0,304.2880590001005,4.0,1.0,phase_1,,,,,,,,,,,,,gray,flipped triangle
80.0,6.0,2.0,1.0,1.0,1.0,317.8317120000429,4.0,1.0,phase_1,,,,,,,,,,,,,cyan,I
67.0,1.0,1.0,0.0,3.0,3.0,361.6177280000556,4.0,1.0,phase_1,,,,,,,,,,,,,gray,flipped triangle
417.0,8.0,4.0,1.0,1.0,1.0,352.4173539999538,4.0,1.0,phase_1,,,,,,,,,,,,,white,triangle
404.0,8.0,4.0,1.0,3.0,3.0,287.9988220001905,4.0,1.0,phase_1,,,,,,,,,,,,,white,triangle
89.0,6.0,2.0,1.0,2.0,2.0,271.7723949999708,4.0,1.0,phase_1,,,,,,,,,,,,,cyan,I
117.0,2.0,2.0,0.0,3.0,3.0,272.7085249998708,4.0,1.0,phase_1,,,,,,,,,,,,,green,square
0.0,5.0,0.0,1.0,4.0,4.0,301.3655700001436,4.0,1.0,phase_1,,,,,,,,,,,,,blue,cross
28.0,5.0,1.0,1.0,1.0,1.0,340.5544639999789,4.0,1.0,phase_1,,,,,,,,,,,,,blue,cross
379.0,4.0,4.0,0.0,1.0,1.0,330.6899740000517,4.0,1.0,phase_1,,,,,,,,,,,,,orange,hexagon
180.0,7.0,3.0,1.0,4.0,4.0,305.4174929998225,4.0,1.0,phase_1,,,,,,,,,,,,,yellow,circle
390.0,8.0,4.0,1.0,3.0,3.0,314.3263070001012,4.0,1.0,phase_1,,,,,,,,,,,,,white,triangle
0.0,6.0,0.0,1.0,2.0,2.0,269.7348339997916,4.0,1.0,phase_1,,,,,,,,,,,,,cyan,I
100.0,2.0,2.0,0.0,2.0,2.0,303.4265109999978,4.0,1.0,phase_1,,,,,,,,,,,,,green,square
403.0,4.0,4.0,0.0,2.0,2.0,342.0339760000388,4.0,1.0,phase_1,,,,,,,,,,,,,orange,hexagon
383.0,8.0,4.0,1.0,3.0,3.0,288.7490229995819,4.0,1.0,phase_1,,,,,,,,,,,,,white,triangle
177.0,3.0,3.0,0.0,3.0,3.0,326.1973940002463,4.0,1.0,phase_1,,,,,,,,,,,,,magenta,diamond
50.0,1.0,1.0,0.0,3.0,3.0,312.0258070002819,4.0,1.0,phase_1,,,,,,,,,,,,,gray,flipped triangle
0.0,4.0,0.0,0.0,3.0,3.0,317.8821299998162,4.0,1.0,phase_1,,,,,,,,,,,,,orange,hexagon
0.0,2.0,0.0,0.0,1.0,1.0,305.7208679997529,4.0,1.0,phase_1,,,,,,,,,,,,,green,square
219.0,3.0,3.0,0.0,1.0,1.0,287.1074730001055,4.0,1.0,phase_1,,,,,,,,,,,,,magenta,diamond
98.0,6.0,2.0,1.0,1.0,1.0,299.5333270000628,4.0,1.0,phase_1,,,,,,,,,,,,,cyan,I
92.0,6.0,2.0,1.0,2.0,2.0,285.2241790001244,4.0,1.0,phase_1,,,,,,,,,,,,,cyan,I
388.0,8.0,4.0,1.0,4.0,4.0,261.5676579998762,4.0,1.0,phase_1,,,,,,,,,,,,,white,triangle
68.0,1.0,1.0,0.0,2.0,2.0,263.8738810001086,4.0,1.0,phase_1,,,,,,,,,,,,,gray,flipped triangle
219.0,7.0,3.0,1.0,3.0,3.0,315.279640999961,4.0,1.0,phase_1,,,,,,,,,,,,,yellow,circle
39.0,5.0,1.0,1.0,4.0,4.0,268.8852259998384,4.0,1.0,phase_1,,,,,,,,,,,,,blue,cross
101.0,6.0,2.0,1.0,3.0,3.0,319.1858179998235,4.0,1.0,phase_1,,,,,,,,,,,,,cyan,I
47.0,5.0,1.0,1.0,1.0,1.0,278.5961139998107,4.0,1.0,phase_1,,,,,,,,,,,,,blue,cross
407.0,8.0,4.0,1.0,2.0,2.0,279.725720999977,4.0,1.0,phase_1,,,,,,,,,,,,,white,triangle
176.0,7.0,3.0,1.0,2.0,2.0,290.0336389998301,4.0,2.0,phase_1,,,,,,,,,,,,,yellow,circle
34.0,5.0,1.0,1.0,3.0,3.0,358.1802399999105,4.0,1.0,phase_1,,,,,,,,,,,,,blue,cross
0.0,5.0,0.0,1.0,2.0,2.0,297.6654659996711,4.0,1.0,phase_1,,,,,,,,,,,,,blue,cross
0.0,1.0,0.0,0.0,1.0,1.0,292.2051530003955,4.0,1.0,phase_1,,,,,,,,,,,,,gray,flipped triangle
121.0,2.0,2.0,0.0,2.0,2.0,330.5790519998481,4.0,1.0,phase_1,,,,,,,,,,,,,green,square
193.0,7.0,3.0,1.0,3.0,3.0,292.7275939996434,4.0,1.0,phase_1,,,,,,,,,,,,,yellow,circle
183.0,3.0,3.0,0.0,4.0,4.0,326.4476229996944,4.0,1.0,phase_1,,,,,,,,,,,,,magenta,diamond
405.0,8.0,4.0,1.0,4.0,4.0,305.4167959999176,4.0,1.0,phase_1,,,,,,,,,,,,,white,triangle
386.0,4.0,4.0,0.0,1.0,1.0,285.9246859998166,4.0,1.0,phase_1,,,,,,,,,,,,,orange,hexagon
84.0,2.0,2.0,0.0,1.0,1.0,288.1370439999955,4.0,1.0,phase_1,,,,,,,,,,,,,green,square
74.0,1.0,1.0,0.0,4.0,4.0,285.4177159997562,4.0,1.0,phase_1,,,,,,,,,,,,,gray,flipped triangle
42.0,5.0,1.0,1.0,1.0,1.0,323.10046699967637,4.0,1.0,phase_1,,,,,,,,,,,,,blue,cross
115.0,2.0,2.0,0.0,3.0,3.0,324.9485000001186,4.0,1.0,phase_1,,,,,,,,,,,,,green,square
75.0,5.0,1.0,1.0,4.0,4.0,297.5232419998974,4.0,1.0,phase_1,,,,,,,,,,,,,blue,cross
82.0,6.0,2.0,1.0,3.0,3.0,324.3505460000051,4.0,1.0,phase_1,,,,,,,,,,,,,cyan,I
72.0,1.0,1.0,0.0,3.0,3.0,298.0134209997231,4.0,1.0,phase_1,,,,,,,,,,,,,gray,flipped triangle
402.0,4.0,4.0,0.0,3.0,3.0,315.275826999823,4.0,2.0,phase_1,,,,,,,,,,,,,orange,hexagon
60.0,5.0,1.0,1.0,2.0,2.0,334.4945949997964,4.0,1.0,phase_1,,,,,,,,,,,,,blue,cross
64.0,1.0,1.0,0.0,2.0,2.0,368.5323699996843,4.0,1.0,phase_1,,,,,,,,,,,,,gray,flipped triangle
223.0,7.0,3.0,1.0,3.0,3.0,310.7923729999129,4.0,1.0,phase_1,,,,,,,,,,,,,yellow,circle
0.0,3.0,0.0,0.0,3.0,3.0,271.201210000072,4.0,1.0,phase_1,,,,,,,,,,,,,magenta,diamond
402.0,8.0,4.0,1.0,4.0,4.0,363.4356460001982,4.0,1.0,phase_1,,,,,,,,,,,,,white,triangle
210.0,3.0,3.0,0.0,2.0,2.0,334.6858410000095,4.0,1.0,phase_1,,,,,,,,,,,,,magenta,diamond
208.0,7.0,3.0,1.0,2.0,2.0,266.9643039998846,4.0,1.0,phase_1,,,,,,,,,,,,,yellow,circle
195.0,7.0,3.0,1.0,1.0,1.0,292.9649719999361,4.0,1.0,phase_1,,,,,,,,,,,,,yellow,circle
55.0,1.0,1.0,0.0,4.0,4.0,274.756109000009,4.0,1.0,phase_1,,,,,,,,,,,,,gray,flipped triangle
84.0,6.0,2.0,1.0,4.0,4.0,272.5650140000653,4.0,1.0,phase_1,,,,,,,,,,,,,cyan,I
112.0,6.0,2.0,1.0,3.0,3.0,287.5732030001927,4.0,1.0,phase_1,,,,,,,,,,,,,cyan,I
390.0,8.0,4.0,1.0,3.0,3.0,266.8840669998644,4.0,1.0,phase_1,,,,,,,,,,,,,white,triangle
50.0,5.0,1.0,1.0,4.0,4.0,306.2605099999018,4.0,1.0,phase_1,,,,,,,,,,,,,blue,cross
420.0,8.0,4.0,1.0,3.0,3.0,312.4662840000383,4.0,1.0,phase_1,,,,,,,,,,,,,white,triangle
0.0,3.0,0.0,0.0,2.0,2.0,313.5669160001271,4.0,1.0,phase_1,,,,,,,,,,,,,magenta,diamond
82.0,2.0,2.0,0.0,3.0,3.0,300.4896909997114,4.0,1.0,phase_1,,,,,,,,,,,,,green,square
52.0,1.0,1.0,0.0,3.0,3.0,326.8631649998497,4.0,1.0,phase_1,,,,,,,,,,,,,gray,flipped triangle
123.0,2.0,2.0,0.0,1.0,1.0,293.7865149997378,4.0,1.0,phase_1,,,,,,,,,,,,,green,square
376.0,4.0,4.0,0.0,2.0,2.0,291.535746000136,4.0,1.0,phase_1,,,,,,,,,,,,,orange,hexagon
80.0,6.0,2.0,1.0,4.0,4.0,304.3432109998321,4.0,1.0,phase_1,,,,,,,,,,,,,cyan,I
0.0,6.0,0.0,1.0,2.0,2.0,371.8444249998356,4.0,1.0,phase_1,,,,,,,,,,,,,cyan,I
64.0,5.0,1.0,1.0,3.0,3.0,294.7447899996405,4.0,1.0,phase_1,,,,,,,,,,,,,blue,cross
417.0,8.0,4.0,1.0,1.0,1.0,300.3227449999031,4.0,1.0,phase_1,,,,,,,,,,,,,white,triangle
75.0,2.0,2.0,0.0,4.0,4.0,305.6159269999625,4.0,1.0,phase_1,,,,,,,,,,,,,green,square
0.0,7.0,0.0,1.0,1.0,1.0,298.9900800002942,4.0,1.0,phase_1,,,,,,,,,,,,,yellow,circle
113.0,2.0,2.0,0.0,3.0,3.0,324.9431510002978,4.0,1.0,phase_1,,,,,,,,,,,,,green,square
199.0,3.0,3.0,0.0,1.0,1.0,279.3703450001885,4.0,1.0,phase_1,,,,,,,,,,,,,magenta,diamond
60.0,1.0,1.0,0.0,2.0,2.0,262.5686400001541,4.0,1.0,phase_1,,,,,,,,,,,,,gray,flipped triangle
27.0,5.0,1.0,1.0,2.0,2.0,314.7167340002852,4.0,1.0,phase_1,,,,,,,,,,,,,blue,cross
0.0,7.0,0.0,1.0,2.0,2.0,323.1037390000892,4.0,1.0,phase_1,,,,,,,,,,,,,yellow,circle
0.0,4.0,4.0,0.0,6.0,6.0,324.4449500002702,1.0,1.0,phase_2,go,250.0,250.0,1.0,,,,,,,,,orange,hexagon
0.0,5.0,1.0,1.0,6.0,6.0,364.9327309999535,1.0,1.0,phase_2,go,250.0,250.0,1.0,,,,,,,,,blue,cross
0.0,8.0,4.0,1.0,6.0,6.0,413.1217049998668,1.0,1.0,phase_2,stop,250.0,250.0,3.0,,,,,,,,,white,triangle
0.0,2.0,2.0,0.0,5.0,5.0,374.109159999989,1.0,1.0,phase_2,go,250.0,200.0,1.0,,,,,,,,,green,square
0.0,4.0,4.0,0.0,6.0,6.0,508.9380300000812,1.0,1.0,phase_2,go,250.0,200.0,1.0,,,,,,,,,orange,hexagon
0.0,4.0,4.0,0.0,5.0,5.0,660.6508029999532,1.0,1.0,phase_2,go,250.0,200.0,1.0,,,,,,,,,orange,hexagon
0.0,4.0,4.0,0.0,5.0,5.0,525.4152020002039,1.0,1.0,phase_2,go,250.0,200.0,1.0,,,,,,,,,orange,hexagon
0.0,8.0,4.0,1.0,6.0,0.0,0.0,1.0,1.0,phase_2,stop,250.0,200.0,4.0,,,,,,,,,white,triangle
0.0,1.0,1.0,0.0,5.0,5.0,322.1999799998229,1.0,1.0,phase_2,go,250.0,250.0,1.0,,,,,,,,,gray,flipped triangle
0.0,1.0,1.0,0.0,5.0,5.0,382.5659750000341,1.0,1.0,phase_2,go,250.0,250.0,1.0,,,,,,,,,gray,flipped triangle
0.0,8.0,4.0,1.0,5.0,5.0,342.2803720000047,1.0,1.0,phase_2,stop,250.0,250.0,3.0,,,,,,,,,white,triangle
0.0,6.0,2.0,1.0,6.0,6.0,288.2819790002031,1.0,1.0,phase_2,stop,200.0,250.0,3.0,,,,,,,,,cyan,I
0.0,3.0,3.0,0.0,5.0,5.0,387.1189890001005,1.0,1.0,phase_2,go,200.0,200.0,1.0,,,,,,,,,magenta,diamond
0.0,2.0,2.0,0.0,6.0,6.0,564.1678449997016,1.0,1.0,phase_2,go,200.0,200.0,1.0,,,,,,,,,green,square
0.0,8.0,4.0,1.0,6.0,0.0,0.0,1.0,1.0,phase_2,stop,200.0,200.0,4.0,,,,,,,,,white,triangle
0.0,1.0,1.0,0.0,5.0,5.0,411.5162920002149,1.0,1.0,phase_2,go,200.0,250.0,1.0,,,,,,,,,gray,flipped triangle
0.0,2.0,2.0,0.0,6.0,6.0,528.5402340000473,1.0,1.0,phase_2,go,200.0,250.0,1.0,,,,,,,,,green,square
0.0,2.0,2.0,0.0,5.0,5.0,674.1665609997654,1.0,1.0,phase_2,go,200.0,250.0,1.0,,,,,,,,,green,square
0.0,3.0,3.0,0.0,6.0,6.0,474.5123960001365,1.0,1.0,phase_2,go,200.0,250.0,1.0,,,,,,,,,magenta,diamond
0.0,4.0,4.0,0.0,6.0,6.0,673.196518000168,1.0,1.0,phase_2,go,200.0,250.0,1.0,,,,,,,,,orange,hexagon
0.0,4.0,4.0,0.0,6.0,6.0,487.3818179999034,1.0,1.0,phase_2,go,200.0,250.0,1.0,,,,,,,,,orange,hexagon
0.0,4.0,4.0,0.0,5.0,5.0,506.80640100017627,1.0,1.0,phase_2,go,200.0,250.0,1.0,,,,,,,,,orange,hexagon
0.0,2.0,2.0,0.0,6.0,6.0,407.8883239999413,1.0,1.0,phase_2,go,200.0,250.0,1.0,,,,,,,,,green,square
0.0,3.0,3.0,0.0,6.0,6.0,532.7854820002358,1.0,1.0,phase_2,go,200.0,250.0,1.0,,,,,,,,,magenta,diamond
0.0,6.0,2.0,1.0,6.0,0.0,0.0,1.0,1.0,phase_2,stop,200.0,250.0,4.0,,,,,,,,,cyan,I
0.0,1.0,1.0,0.0,5.0,5.0,383.4975810000287,1.0,1.0,phase_2,go,200.0,300.0,1.0,,,,,,,,,gray,flipped triangle
0.0,7.0,3.0,1.0,6.0,6.0,454.8195549996308,1.0,1.0,phase_2,stop,200.0,300.0,3.0,,,,,,,,,yellow,circle
0.0,8.0,4.0,1.0,6.0,6.0,495.825877000243,1.0,1.0,phase_2,go,200.0,250.0,1.0,,,,,,,,,white,triangle
0.0,1.0,1.0,0.0,5.0,5.0,392.3281299998962,1.0,1.0,phase_2,go,200.0,250.0,1.0,,,,,,,,,gray,flipped triangle
0.0,4.0,4.0,0.0,6.0,6.0,450.5859440000677,1.0,1.0,phase_2,go,200.0,250.0,1.0,,,,,,,,,orange,hexagon
0.0,1.0,1.0,0.0,6.0,6.0,619.2872050000915,1.0,1.0,phase_2,go,200.0,250.0,1.0,,,,,,,,,gray,flipped triangle
0.0,4.0,4.0,0.0,6.0,6.0,549.8708459999762,1.0,1.0,phase_2,go,200.0,250.0,1.0,,,,,,,,,orange,hexagon
0.0,3.0,3.0,0.0,6.0,6.0,424.303036999845,1.0,1.0,phase_2,go,200.0,250.0,1.0,,,,,,,,,magenta,diamond
0.0,4.0,4.0,0.0,6.0,6.0,679.6104570003081,1.0,1.0,phase_2,go,200.0,250.0,1.0,,,,,,,,,orange,hexagon
0.0,6.0,2.0,1.0,6.0,0.0,0.0,1.0,1.0,phase_2,stop,200.0,250.0,4.0,,,,,,,,,cyan,I
0.0,5.0,1.0,1.0,5.0,0.0,0.0,1.0,1.0,phase_2,stop,200.0,300.0,4.0,,,,,,,,,blue,cross
0.0,5.0,1.0,1.0,6.0,6.0,543.6797380002645,2.0,1.0,phase_2,stop,250.0,300.0,3.0,,,,,,,,,blue,cross
0.0,4.0,4.0,0.0,5.0,5.0,450.9173579999697,2.0,1.0,phase_2,go,250.0,250.0,1.0,,,,,,,,,orange,hexagon
0.0,3.0,3.0,0.0,5.0,5.0,312.9503459999796,2.0,1.0,phase_2,go,250.0,250.0,1.0,,,,,,,,,magenta,diamond
0.0,2.0,2.0,0.0,6.0,6.0,339.6152459999939,2.0,1.0,phase_2,go,250.0,250.0,1.0,,,,,,,,,green,square
0.0,7.0,3.0,1.0,6.0,6.0,287.7676899997823,2.0,1.0,phase_2,stop,250.0,250.0,3.0,,,,,,,,,yellow,circle
0.0,7.0,3.0,1.0,5.0,5.0,318.2004489999599,2.0,1.0,phase_2,stop,250.0,200.0,3.0,,,,,,,,,yellow,circle
0.0,3.0,3.0,0.0,6.0,6.0,493.9013650000561,2.0,1.0,phase_2,go,200.0,200.0,1.0,,,,,,,,,magenta,diamond
0.0,2.0,2.0,0.0,5.0,5.0,503.48278499996013,2.0,1.0,phase_2,go,200.0,200.0,1.0,,,,,,,,,green,square
0.0,5.0,1.0,1.0,5.0,5.0,677.605997000228,2.0,1.0,phase_2,go,200.0,200.0,1.0,,,,,,,,,blue,cross
0.0,8.0,4.0,1.0,5.0,5.0,403.904980000334,2.0,1.0,phase_2,go,200.0,200.0,1.0,,,,,,,,,white,triangle
0.0,5.0,1.0,1.0,6.0,0.0,0.0,2.0,1.0,phase_2,stop,200.0,200.0,4.0,,,,,,,,,blue,cross
0.0,1.0,1.0,0.0,6.0,6.0,415.5619670000305,2.0,1.0,phase_2,go,200.0,250.0,1.0,,,,,,,,,gray,flipped triangle
0.0,6.0,2.0,1.0,5.0,0.0,0.0,2.0,1.0,phase_2,stop,200.0,250.0,4.0,,,,,,,,,cyan,I
0.0,7.0,3.0,1.0,6.0,6.0,326.2702830002126,2.0,1.0,phase_2,stop,250.0,250.0,3.0,,,,,,,,,yellow,circle
0.0,2.0,2.0,0.0,5.0,5.0,474.8667909998403,2.0,1.0,phase_2,go,250.0,200.0,1.0,,,,,,,,,green,square
0.0,1.0,1.0,0.0,6.0,6.0,457.7601999999388,2.0,1.0,phase_2,go,250.0,200.0,1.0,,,,,,,,,gray,flipped triangle
0.0,7.0,3.0,1.0,6.0,0.0,0.0,2.0,1.0,phase_2,stop,250.0,200.0,4.0,,,,,,,,,yellow,circle
0.0,3.0,3.0,0.0,5.0,5.0,500.8467930001643,2.0,1.0,phase_2,go,250.0,250.0,1.0,,,,,,,,,magenta,diamond
0.0,7.0,3.0,1.0,6.0,0.0,0.0,2.0,1.0,phase_2,stop,250.0,250.0,4.0,,,,,,,,,yellow,circle
0.0,2.0,2.0,0.0,6.0,6.0,462.20487799973847,2.0,1.0,phase_2,go,250.0,300.0,1.0,,,,,,,,,green,square
0.0,5.0,1.0,1.0,5.0,0.0,0.0,2.0,1.0,phase_2,stop,250.0,300.0,4.0,,,,,,,,,blue,cross
0.0,2.0,2.0,0.0,5.0,5.0,437.4667440001758,2.0,1.0,phase_2,go,300.0,300.0,1.0,,,,,,,,,green,square
0.0,6.0,2.0,1.0,6.0,0.0,0.0,2.0,1.0,phase_2,stop,300.0,300.0,4.0,,,,,,,,,cyan,I
0.0,4.0,4.0,0.0,6.0,6.0,412.3010360003718,2.0,1.0,phase_2,go,300.0,350.0,1.0,,,,,,,,,orange,hexagon
0.0,5.0,1.0,1.0,6.0,6.0,438.9342680001391,2.0,1.0,phase_2,stop,300.0,350.0,3.0,,,,,,,,,blue,cross
0.0,3.0,3.0,0.0,5.0,5.0,477.4198250001973,2.0,1.0,phase_2,go,300.0,300.0,1.0,,,,,,,,,magenta,diamond
0.0,7.0,3.0,1.0,5.0,5.0,392.7845299999717,2.0,1.0,phase_2,stop,300.0,300.0,3.0,,,,,,,,,yellow,circle
0.0,7.0,3.0,1.0,5.0,0.0,0.0,2.0,1.0,phase_2,stop,250.0,300.0,4.0,,,,,,,,,yellow,circle
0.0,2.0,2.0,0.0,6.0,6.0,501.53933000001416,2.0,1.0,phase_2,go,300.0,300.0,1.0,,,,,,,,,green,square
0.0,2.0,2.0,0.0,5.0,5.0,621.0474299996349,2.0,1.0,phase_2,go,300.0,300.0,1.0,,,,,,,,,green,square
0.0,7.0,3.0,1.0,6.0,0.0,0.0,2.0,1.0,phase_2,stop,300.0,300.0,4.0,,,,,,,,,yellow,circle
0.0,6.0,2.0,1.0,6.0,0.0,0.0,2.0,1.0,phase_2,stop,300.0,350.0,4.0,,,,,,,,,cyan,I
0.0,5.0,1.0,1.0,5.0,5.0,429.4698420003442,2.0,1.0,phase_2,stop,300.0,400.0,3.0,,,,,,,,,blue,cross
0.0,4.0,4.0,0.0,6.0,6.0,484.3755199999577,2.0,1.0,phase_2,go,250.0,400.0,1.0,,,,,,,,,orange,hexagon
0.0,2.0,2.0,0.0,5.0,5.0,545.4475350002213,2.0,1.0,phase_2,go,250.0,400.0,1.0,,,,,,,,,green,square
0.0,7.0,3.0,1.0,5.0,0.0,0.0,2.0,1.0,phase_2,stop,250.0,400.0,4.0,,,,,,,,,yellow,circle
0.0,7.0,3.0,1.0,5.0,0.0,0.0,3.0,1.0,phase_2,stop,300.0,400.0,4.0,,,,,,,,,yellow,circle
0.0,1.0,1.0,0.0,6.0,6.0,553.8889289996405,3.0,1.0,phase_2,go,350.0,400.0,1.0,,,,,,,,,gray,flipped triangle
0.0,6.0,2.0,1.0,5.0,0.0,0.0,3.0,1.0,phase_2,stop,350.0,400.0,4.0,,,,,,,,,cyan,I
0.0,8.0,4.0,1.0,6.0,6.0,350.0608360000115,3.0,1.0,phase_2,stop,400.0,400.0,3.0,,,,,,,,,white,triangle
0.0,1.0,1.0,0.0,5.0,5.0,526.9461299999421,3.0,1.0,phase_2,go,400.0,350.0,1.0,,,,,,,,,gray,flipped triangle
0.0,4.0,4.0,0.0,6.0,6.0,484.6565170000758,3.0,1.0,phase_2,go,400.0,350.0,1.0,,,,,,,,,orange,hexagon
0.0,3.0,3.0,0.0,6.0,6.0,515.5713240001205,3.0,1.0,phase_2,go,400.0,350.0,1.0,,,,,,,,,magenta,diamond
0.0,7.0,3.0,1.0,5.0,5.0,486.2342780002109,3.0,1.0,phase_2,stop,400.0,350.0,3.0,,,,,,,,,yellow,circle
0.0,3.0,3.0,0.0,6.0,6.0,591.6563000000679,3.0,1.0,phase_2,go,350.0,350.0,1.0,,,,,,,,,magenta,diamond
0.0,5.0,1.0,1.0,6.0,0.0,0.0,3.0,1.0,phase_2,stop,350.0,350.0,4.0,,,,,,,,,blue,cross
0.0,4.0,4.0,0.0,5.0,5.0,474.3411170002218,3.0,1.0,phase_2,go,350.0,400.0,1.0,,,,,,,,,orange,hexagon
0.0,2.0,2.0,0.0,6.0,6.0,516.0007189997486,3.0,1.0,phase_2,go,350.0,400.0,1.0,,,,,,,,,green,square
0.0,2.0,2.0,0.0,5.0,5.0,593.8677120002467,3.0,1.0,phase_2,go,350.0,400.0,1.0,,,,,,,,,green,square
0.0,6.0,2.0,1.0,6.0,0.0,0.0,3.0,1.0,phase_2,stop,350.0,400.0,4.0,,,,,,,,,cyan,I
0.0,6.0,2.0,1.0,5.0,5.0,773.8533889996688,3.0,1.0,phase_2,go,350.0,450.0,1.0,,,,,,,,,cyan,I
0.0,5.0,1.0,1.0,6.0,0.0,0.0,3.0,1.0,phase_2,stop,350.0,450.0,4.0,,,,,,,,,blue,cross
0.0,6.0,2.0,1.0,5.0,0.0,0.0,3.0,1.0,phase_2,stop,350.0,500.0,4.0,,,,,,,,,cyan,I
0.0,5.0,1.0,1.0,5.0,5.0,484.1180450002866,3.0,1.0,phase_2,stop,400.0,500.0,3.0,,,,,,,,,blue,cross
0.0,2.0,2.0,0.0,5.0,5.0,678.6518049998449,3.0,1.0,phase_2,go,350.0,500.0,1.0,,,,,,,,,green,square
0.0,3.0,3.0,0.0,6.0,6.0,692.3387930000899,3.0,1.0,phase_2,go,350.0,500.0,1.0,,,,,,,,,magenta,diamond
0.0,1.0,1.0,0.0,6.0,6.0,696.000224999807,3.0,1.0,phase_2,go,350.0,500.0,1.0,,,,,,,,,gray,flipped triangle
0.0,6.0,2.0,1.0,6.0,0.0,0.0,3.0,1.0,phase_2,stop,350.0,500.0,4.0,,,,,,,,,cyan,I
0.0,5.0,1.0,1.0,6.0,0.0,0.0,3.0,1.0,phase_2,stop,350.0,550.0,4.0,,,,,,,,,blue,cross
0.0,3.0,3.0,0.0,6.0,6.0,704.6764080000685,3.0,1.0,phase_2,go,350.0,600.0,1.0,,,,,,,,,magenta,diamond
0.0,2.0,2.0,0.0,5.0,5.0,895.8156230000895,3.0,1.0,phase_2,go,350.0,600.0,1.0,,,,,,,,,green,square
0.0,7.0,3.0,1.0,6.0,6.0,738.529200999892,3.0,1.0,phase_2,stop,350.0,600.0,3.0,,,,,,,,,yellow,circle
0.0,3.0,3.0,0.0,5.0,5.0,891.5247220002129,3.0,1.0,phase_2,go,350.0,550.0,1.0,,,,,,,,,magenta,diamond
0.0,5.0,1.0,1.0,5.0,0.0,0.0,3.0,1.0,phase_2,stop,350.0,550.0,4.0,,,,,,,,,blue,cross
0.0,4.0,4.0,0.0,5.0,5.0,614.3496059999052,3.0,1.0,phase_2,go,400.0,550.0,1.0,,,,,,,,,orange,hexagon
0.0,8.0,4.0,1.0,5.0,5.0,703.4719659995972,3.0,1.0,phase_2,go,400.0,550.0,1.0,,,,,,,,,white,triangle
0.0,7.0,3.0,1.0,6.0,6.0,660.6491319998895,3.0,1.0,phase_2,go,400.0,550.0,1.0,,,,,,,,,yellow,circle
0.0,8.0,4.0,1.0,5.0,0.0,0.0,3.0,1.0,phase_2,stop,400.0,550.0,4.0,,,,,,,,,white,triangle
0.0,2.0,2.0,0.0,6.0,6.0,747.9350769999655,3.0,1.0,phase_2,go,450.0,550.0,1.0,,,,,,,,,green,square
0.0,6.0,2.0,1.0,5.0,0.0,0.0,3.0,1.0,phase_2,stop,450.0,550.0,4.0,,,,,,,,,cyan,I
0.0,1.0,1.0,0.0,6.0,6.0,481.9523040000604,3.0,1.0,phase_2,go,500.0,550.0,1.0,,,,,,,,,gray,flipped triangle
0.0,1.0,1.0,0.0,5.0,5.0,607.8459409995958,3.0,1.0,phase_2,go,500.0,550.0,1.0,,,,,,,,,gray,flipped triangle
0.0,8.0,4.0,1.0,5.0,5.0,534.2638560000523,4.0,1.0,phase_2,go,500.0,550.0,1.0,,,,,,,,,white,triangle
0.0,4.0,4.0,0.0,5.0,5.0,301.3869619999241,4.0,1.0,phase_2,go,500.0,550.0,1.0,,,,,,,,,orange,hexagon
0.0,8.0,4.0,1.0,5.0,5.0,248.2460320002246,4.0,1.0,phase_2,go,500.0,550.0,1.0,,,,,,,,,white,triangle
0.0,7.0,3.0,1.0,5.0,5.0,324.517182999898,4.0,1.0,phase_2,go,500.0,550.0,1.0,,,,,,,,,yellow,circle
0.0,4.0,4.0,0.0,6.0,6.0,263.3426209999925,4.0,1.0,phase_2,go,500.0,550.0,1.0,,,,,,,,,orange,hexagon
0.0,8.0,4.0,1.0,5.0,5.0,421.9356049998168,4.0,1.0,phase_2,stop,500.0,550.0,3.0,,,,,,,,,white,triangle
0.0,5.0,1.0,1.0,5.0,0.0,0.0,4.0,1.0,phase_2,stop,450.0,550.0,4.0,,,,,,,,,blue,cross
0.0,2.0,2.0,0.0,5.0,5.0,443.091810000169,4.0,1.0,phase_2,go,500.0,550.0,1.0,,,,,,,,,green,square
0.0,5.0,1.0,1.0,6.0,6.0,670.0637109997842,4.0,1.0,phase_2,stop,500.0,550.0,3.0,,,,,,,,,blue,cross
0.0,2.0,2.0,0.0,6.0,6.0,285.2224050002405,4.0,1.0,phase_2,go,500.0,500.0,1.0,,,,,,,,,green,square
0.0,1.0,1.0,0.0,5.0,5.0,261.9279489999826,4.0,1.0,phase_2,go,500.0,500.0,1.0,,,,,,,,,gray,flipped triangle
0.0,4.0,4.0,0.0,6.0,6.0,215.9344280003097,4.0,1.0,phase_2,go,500.0,500.0,1.0,,,,,,,,,orange,hexagon
0.0,6.0,2.0,1.0,6.0,6.0,245.9969440001259,4.0,1.0,phase_2,go,500.0,500.0,1.0,,,,,,,,,cyan,I
0.0,7.0,3.0,1.0,5.0,5.0,302.9068270002426,4.0,1.0,phase_2,go,500.0,500.0,1.0,,,,,,,,,yellow,circle
0.0,8.0,4.0,1.0,6.0,6.0,191.7539239998404,4.0,1.0,phase_2,go,500.0,500.0,1.0,,,,,,,,,white,triangle
0.0,5.0,1.0,1.0,5.0,5.0,263.1279490001361,4.0,1.0,phase_2,stop,500.0,500.0,3.0,,,,,,,,,blue,cross
0.0,6.0,2.0,1.0,5.0,0.0,0.0,4.0,1.0,phase_2,stop,450.0,500.0,4.0,,,,,,,,,cyan,I
0.0,5.0,1.0,1.0,6.0,6.0,575.1292360000662,4.0,1.0,phase_2,stop,500.0,500.0,3.0,,,,,,,,,blue,cross
0.0,7.0,3.0,1.0,5.0,5.0,652.3817239999516,4.0,1.0,phase_2,go,500.0,450.0,1.0,,,,,,,,,yellow,circle
0.0,6.0,2.0,1.0,6.0,0.0,0.0,4.0,1.0,phase_2,stop,500.0,450.0,4.0,,,,,,,,,cyan,I
0.0,6.0,2.0,1.0,5.0,0.0,0.0,4.0,1.0,phase_2,stop,500.0,500.0,4.0,,,,,,,,,cyan,I
0.0,3.0,3.0,0.0,5.0,5.0,727.4360100000195,4.0,1.0,phase_2,go,550.0,500.0,1.0,,,,,,,,,magenta,diamond
0.0,5.0,1.0,1.0,5.0,5.0,584.6128769999268,4.0,1.0,phase_2,stop,550.0,500.0,3.0,,,,,,,,,blue,cross
0.0,2.0,2.0,0.0,5.0,5.0,566.2497630000871,4.0,1.0,phase_2,go,500.0,500.0,1.0,,,,,,,,,green,square
0.0,5.0,1.0,1.0,5.0,0.0,0.0,4.0,1.0,phase_2,stop,500.0,500.0,4.0,,,,,,,,,blue,cross
0.0,6.0,2.0,1.0,6.0,6.0,966.226893000112,4.0,1.0,phase_2,go,550.0,500.0,1.0,,,,,,,,,cyan,I
0.0,8.0,4.0,1.0,5.0,5.0,616.875440000058,4.0,1.0,phase_2,go,550.0,500.0,1.0,,,,,,,,,white,triangle
0.0,3.0,3.0,0.0,5.0,5.0,741.018707999956,4.0,1.0,phase_2,go,550.0,500.0,1.0,,,,,,,,,magenta,diamond
0.0,1.0,1.0,0.0,6.0,6.0,702.0893929998238,4.0,1.0,phase_2,go,550.0,500.0,1.0,,,,,,,,,gray,flipped triangle
0.0,2.0,2.0,0.0,6.0,6.0,569.1057500002898,4.0,1.0,phase_2,go,550.0,500.0,1.0,,,,,,,,,green,square
0.0,7.0,3.0,1.0,5.0,5.0,589.4249339999078,4.0,1.0,phase_2,stop,550.0,500.0,3.0,,,,,,,,,yellow,circle
0.0,7.0,3.0,1.0,6.0,0.0,0.0,4.0,1.0,phase_2,stop,500.0,500.0,4.0,,,,,,,,,yellow,circle
0.0,1.0,1.0,0.0,6.0,6.0,611.8983849996766,4.0,1.0,phase_2,go,500.0,550.0,1.0,,,,,,,,,gray,flipped triangle
0.0,5.0,1.0,1.0,6.0,6.0,934.4930279999062,4.0,1.0,phase_2,go,500.0,550.0,1.0,,,,,,,,,blue,cross
0.0,8.0,4.0,1.0,5.0,5.0,572.6612499997827,4.0,1.0,phase_2,stop,500.0,550.0,3.0,,,,,,,,,white,triangle
0.0,8.0,4.0,1.0,6.0,6.0,723.9065460003076,4.0,1.0,phase_2,go,450.0,550.0,1.0,,,,,,,,,white,triangle
0.0,3.0,3.0,0.0,5.0,5.0,632.5377350003691,5.0,1.0,phase_2,go,450.0,550.0,1.0,,,,,,,,,magenta,diamond
0.0,8.0,4.0,1.0,6.0,6.0,479.7486249999565,5.0,1.0,phase_2,stop,450.0,550.0,3.0,,,,,,,,,white,triangle
0.0,4.0,4.0,0.0,6.0,6.0,730.8021980002195,5.0,1.0,phase_2,go,450.0,500.0,1.0,,,,,,,,,orange,hexagon
0.0,1.0,1.0,0.0,6.0,6.0,902.8696149998724,5.0,1.0,phase_2,go,450.0,500.0,1.0,,,,,,,,,gray,flipped triangle
0.0,2.0,2.0,0.0,6.0,6.0,663.5946119999971,5.0,1.0,phase_2,go,450.0,500.0,1.0,,,,,,,,,green,square
0.0,6.0,2.0,1.0,5.0,5.0,869.2846039998585,5.0,1.0,phase_2,go,450.0,500.0,1.0,,,,,,,,,cyan,I
0.0,7.0,3.0,1.0,6.0,6.0,490.3419999996004,5.0,1.0,phase_2,stop,450.0,500.0,3.0,,,,,,,,,yellow,circle
0.0,1.0,1.0,0.0,5.0,5.0,946.8572980003956,5.0,1.0,phase_2,go,450.0,450.0,1.0,,,,,,,,,gray,flipped triangle
0.0,1.0,1.0,0.0,6.0,6.0,653.8449750000837,5.0,1.0,phase_2,go,450.0,450.0,1.0,,,,,,,,,gray,flipped triangle
0.0,5.0,1.0,1.0,6.0,6.0,284.08920999982,5.0,1.0,phase_2,go,450.0,450.0,1.0,,,,,,,,,blue,cross
0.0,4.0,4.0,0.0,5.0,5.0,272.8364549998332,5.0,1.0,phase_2,go,450.0,450.0,1.0,,,,,,,,,orange,hexagon
0.0,7.0,3.0,1.0,6.0,6.0,272.6523930000439,5.0,1.0,phase_2,stop,450.0,450.0,3.0,,,,,,,,,yellow,circle
0.0,6.0,2.0,1.0,5.0,0.0,0.0,5.0,1.0,phase_2,stop,450.0,400.0,4.0,,,,,,,,,cyan,I
0.0,6.0,2.0,1.0,6.0,6.0,739.7067799997785,5.0,1.0,phase_2,go,500.0,400.0,1.0,,,,,,,,,cyan,I
0.0,3.0,3.0,0.0,5.0,5.0,581.0969519998253,5.0,1.0,phase_2,go,500.0,400.0,1.0,,,,,,,,,magenta,diamond
0.0,1.0,1.0,0.0,5.0,5.0,521.3664099997004,5.0,1.0,phase_2,go,500.0,400.0,1.0,,,,,,,,,gray,flipped triangle
0.0,8.0,4.0,1.0,5.0,5.0,551.2909480003145,5.0,1.0,phase_2,stop,500.0,400.0,3.0,,,,,,,,,white,triangle
0.0,3.0,3.0,0.0,5.0,5.0,585.5929909998849,5.0,1.0,phase_2,go,450.0,400.0,1.0,,,,,,,,,magenta,diamond
0.0,1.0,1.0,0.0,6.0,6.0,570.5695799997557,5.0,1.0,phase_2,go,450.0,400.0,1.0,,,,,,,,,gray,flipped triangle
0.0,3.0,3.0,0.0,6.0,6.0,612.7674059998753,5.0,1.0,phase_2,go,450.0,400.0,1.0,,,,,,,,,magenta,diamond
0.0,2.0,2.0,0.0,6.0,6.0,635.5322080003134,5.0,1.0,phase_2,go,450.0,400.0,1.0,,,,,,,,,green,square
0.0,6.0,2.0,1.0,6.0,0.0,0.0,5.0,1.0,phase_2,stop,450.0,400.0,4.0,,,,,,,,,cyan,I
0.0,1.0,1.0,0.0,5.0,5.0,562.318753999989,5.0,1.0,phase_2,go,450.0,450.0,1.0,,,,,,,,,gray,flipped triangle
0.0,3.0,3.0,0.0,5.0,5.0,561.6056640001261,5.0,1.0,phase_2,go,450.0,450.0,1.0,,,,,,,,,magenta,diamond
0.0,4.0,4.0,0.0,6.0,6.0,699.6735080001599,5.0,1.0,phase_2,go,450.0,450.0,1.0,,,,,,,,,orange,hexagon
0.0,2.0,2.0,0.0,6.0,6.0,577.9291050002939,5.0,1.0,phase_2,go,450.0,450.0,1.0,,,,,,,,,green,square
0.0,5.0,1.0,1.0,5.0,0.0,0.0,5.0,1.0,phase_2,stop,450.0,450.0,4.0,,,,,,,,,blue,cross
0.0,5.0,1.0,1.0,6.0,6.0,621.2870990002557,5.0,1.0,phase_2,stop,500.0,450.0,3.0,,,,,,,,,blue,cross
0.0,6.0,2.0,1.0,6.0,0.0,0.0,5.0,1.0,phase_2,stop,500.0,400.0,4.0,,,,,,,,,cyan,I
0.0,3.0,3.0,0.0,6.0,6.0,731.9941809996635,5.0,1.0,phase_2,go,500.0,450.0,1.0,,,,,,,,,magenta,diamond
0.0,1.0,1.0,0.0,6.0,6.0,712.8534270000273,5.0,1.0,phase_2,go,500.0,450.0,1.0,,,,,,,,,gray,flipped triangle
0.0,5.0,1.0,1.0,6.0,0.0,0.0,5.0,1.0,phase_2,stop,500.0,450.0,4.0,,,,,,,,,blue,cross
0.0,4.0,4.0,0.0,6.0,6.0,742.0018790003269,5.0,1.0,phase_2,go,500.0,500.0,1.0,,,,,,,,,orange,hexagon
0.0,5.0,1.0,1.0,6.0,0.0,0.0,5.0,1.0,phase_2,stop,500.0,500.0,4.0,,,,,,,,,blue,cross
0.0,7.0,3.0,1.0,6.0,0.0,0.0,5.0,1.0,phase_2,stop,500.0,550.0,4.0,,,,,,,,,yellow,circle
0.0,5.0,1.0,1.0,6.0,6.0,641.5141309998944,5.0,1.0,phase_2,go,500.0,600.0,1.0,,,,,,,,,blue,cross
0.0,4.0,4.0,0.0,5.0,5.0,625.9764319997885,6.0,1.0,phase_2,go,500.0,600.0,1.0,,,,,,,,,orange,hexagon
0.0,5.0,1.0,1.0,5.0,5.0,303.0982229997789,6.0,1.0,phase_2,stop,500.0,600.0,3.0,,,,,,,,,blue,cross
0.0,1.0,1.0,0.0,5.0,5.0,445.3306109999175,6.0,1.0,phase_2,go,450.0,600.0,1.0,,,,,,,,,gray,flipped triangle
0.0,5.0,1.0,1.0,6.0,6.0,249.4900770002459,6.0,1.0,phase_2,stop,450.0,600.0,3.0,,,,,,,,,blue,cross
0.0,3.0,3.0,0.0,5.0,5.0,395.918821000123,6.0,1.0,phase_2,go,450.0,550.0,1.0,,,,,,,,,magenta,diamond
0.0,2.0,2.0,0.0,5.0,5.0,490.7739400000537,6.0,1.0,phase_2,go,450.0,550.0,1.0,,,,,,,,,green,square
0.0,7.0,3.0,1.0,5.0,5.0,489.3586160001177,6.0,1.0,phase_2,stop,450.0,550.0,3.0,,,,,,,,,yellow,circle
0.0,1.0,1.0,0.0,5.0,5.0,720.9548619998714,6.0,1.0,phase_2,go,400.0,550.0,1.0,,,,,,,,,gray,flipped triangle
0.0,2.0,2.0,0.0,6.0,6.0,603.4470219997274,6.0,1.0,phase_2,go,400.0,550.0,1.0,,,,,,,,,green,square
0.0,6.0,2.0,1.0,6.0,6.0,546.0764989998097,6.0,1.0,phase_2,stop,400.0,550.0,3.0,,,,,,,,,cyan,I
0.0,6.0,2.0,1.0,5.0,0.0,0.0,6.0,1.0,phase_2,stop,400.0,500.0,4.0,,,,,,,,,cyan,I
0.0,8.0,4.0,1.0,6.0,6.0,584.5497159998558,6.0,1.0,phase_2,stop,450.0,500.0,3.0,,,,,,,,,white,triangle
0.0,3.0,3.0,0.0,6.0,6.0,624.8744040003658,6.0,1.0,phase_2,go,450.0,450.0,1.0,,,,,,,,,magenta,diamond
0.0,7.0,3.0,1.0,6.0,6.0,852.335896999648,6.0,1.0,phase_2,go,450.0,450.0,1.0,,,,,,,,,yellow,circle
0.0,6.0,2.0,1.0,5.0,5.0,895.9011479996661,6.0,1.0,phase_2,go,450.0,450.0,1.0,,,,,,,,,cyan,I
0.0,3.0,3.0,0.0,6.0,6.0,670.114021000245,6.0,1.0,phase_2,go,450.0,450.0,1.0,,,,,,,,,magenta,diamond
0.0,7.0,3.0,1.0,5.0,0.0,0.0,6.0,1.0,phase_2,stop,450.0,450.0,4.0,,,,,,,,,yellow,circle
0.0,1.0,1.0,0.0,6.0,6.0,687.96686900032,6.0,1.0,phase_2,go,500.0,450.0,1.0,,,,,,,,,gray,flipped triangle
0.0,7.0,3.0,1.0,6.0,0.0,0.0,6.0,1.0,phase_2,stop,500.0,450.0,4.0,,,,,,,,,yellow,circle
0.0,6.0,2.0,1.0,6.0,6.0,626.4990439999565,6.0,1.0,phase_2,stop,500.0,500.0,3.0,,,,,,,,,cyan,I
0.0,8.0,4.0,1.0,5.0,5.0,625.8071450001808,6.0,1.0,phase_2,stop,500.0,450.0,3.0,,,,,,,,,white,triangle
0.0,3.0,3.0,0.0,6.0,6.0,801.3221280002654,6.0,1.0,phase_2,go,450.0,450.0,1.0,,,,,,,,,magenta,diamond
0.0,1.0,1.0,0.0,6.0,6.0,886.9358500000999,6.0,1.0,phase_2,go,450.0,450.0,1.0,,,,,,,,,gray,flipped triangle
0.0,8.0,4.0,1.0,6.0,0.0,0.0,6.0,1.0,phase_2,stop,450.0,450.0,4.0,,,,,,,,,white,triangle
0.0,1.0,1.0,0.0,6.0,6.0,845.7969800001592,6.0,1.0,phase_2,go,450.0,500.0,1.0,,,,,,,,,gray,flipped triangle
0.0,4.0,4.0,0.0,5.0,5.0,669.5392130000073,6.0,1.0,phase_2,go,450.0,500.0,1.0,,,,,,,,,orange,hexagon
0.0,7.0,3.0,1.0,5.0,0.0,0.0,6.0,1.0,phase_2,stop,450.0,500.0,4.0,,,,,,,,,yellow,circle
0.0,5.0,1.0,1.0,5.0,5.0,948.1217869997636,6.0,1.0,phase_2,go,500.0,500.0,1.0,,,,,,,,,blue,cross
0.0,7.0,3.0,1.0,5.0,0.0,0.0,6.0,1.0,phase_2,stop,500.0,500.0,4.0,,,,,,,,,yellow,circle
0.0,3.0,3.0,0.0,5.0,5.0,743.4500460003619,6.0,1.0,phase_2,go,550.0,500.0,1.0,,,,,,,,,magenta,diamond
0.0,3.0,3.0,0.0,6.0,6.0,919.7343230002843,6.0,1.0,phase_2,go,550.0,500.0,1.0,,,,,,,,,magenta,diamond
0.0,1.0,1.0,0.0,5.0,5.0,779.3377050002164,6.0,1.0,phase_2,go,550.0,500.0,1.0,,,,,,,,,gray,flipped triangle
0.0,4.0,4.0,0.0,5.0,5.0,724.4455400000334,6.0,1.0,phase_2,go,550.0,500.0,1.0,,,,,,,,,orange,hexagon
0.0,3.0,3.0,0.0,5.0,5.0,694.5305300000655,6.0,1.0,phase_2,go,550.0,500.0,1.0,,,,,,,,,magenta,diamond
0.0,8.0,4.0,1.0,6.0,6.0,600.4603350002071,6.0,1.0,phase_2,stop,550.0,500.0,3.0,,,,,,,,,white,triangle
0.0,4.0,4.0,0.0,5.0,5.0,796.2734850002562,6.0,1.0,phase_2,go,550.0,450.0,1.0,,,,,,,,,orange,hexagon
0.0,6.0,2.0,1.0,5.0,5.0,299.0551939997203,7.0,1.0,phase_2,stop,550.0,450.0,3.0,,,,,,,,,cyan,I
0.0,3.0,3.0,0.0,6.0,6.0,342.2672100000454,7.0,1.0,phase_2,go,500.0,450.0,1.0,,,,,,,,,magenta,diamond
0.0,8.0,4.0,1.0,5.0,5.0,337.4752730001091,7.0,1.0,phase_2,stop,500.0,450.0,3.0,,,,,,,,,white,triangle
0.0,8.0,4.0,1.0,6.0,6.0,503.25616700001774,7.0,1.0,phase_2,stop,450.0,450.0,3.0,,,,,,,,,white,triangle
0.0,5.0,1.0,1.0,6.0,6.0,337.1168149997174,7.0,1.0,phase_2,stop,450.0,400.0,3.0,,,,,,,,,blue,cross
0.0,3.0,3.0,0.0,5.0,6.0,332.5816810001925,7.0,1.0,phase_2,go,450.0,350.0,2.0,,,,,,,,,magenta,diamond
0.0,8.0,4.0,1.0,6.0,6.0,316.8088699999316,7.0,1.0,phase_2,stop,450.0,350.0,3.0,,,,,,,,,white,triangle
0.0,5.0,1.0,1.0,5.0,5.0,569.3813900002169,7.0,1.0,phase_2,go,450.0,300.0,1.0,,,,,,,,,blue,cross
0.0,3.0,3.0,0.0,6.0,6.0,311.3296829997125,7.0,1.0,phase_2,go,450.0,300.0,1.0,,,,,,,,,magenta,diamond
0.0,3.0,3.0,0.0,6.0,6.0,264.3880890000218,7.0,1.0,phase_2,go,450.0,300.0,1.0,,,,,,,,,magenta,diamond
0.0,5.0,1.0,1.0,5.0,5.0,296.754052000324,7.0,1.0,phase_2,stop,450.0,300.0,3.0,,,,,,,,,blue,cross
0.0,6.0,2.0,1.0,6.0,0.0,0.0,7.0,1.0,phase_2,stop,400.0,300.0,4.0,,,,,,,,,cyan,I
0.0,7.0,3.0,1.0,6.0,6.0,457.4960449999707,7.0,1.0,phase_2,go,400.0,350.0,1.0,,,,,,,,,yellow,circle
0.0,5.0,1.0,1.0,5.0,0.0,0.0,7.0,1.0,phase_2,stop,400.0,350.0,4.0,,,,,,,,,blue,cross
0.0,7.0,3.0,1.0,5.0,5.0,331.5649739997752,7.0,1.0,phase_2,go,450.0,350.0,1.0,,,,,,,,,yellow,circle
0.0,4.0,4.0,0.0,5.0,5.0,510.04726200017103,7.0,1.0,phase_2,go,450.0,350.0,1.0,,,,,,,,,orange,hexagon
0.0,5.0,1.0,1.0,5.0,5.0,304.1507520001687,7.0,1.0,phase_2,go,450.0,350.0,1.0,,,,,,,,,blue,cross
0.0,8.0,4.0,1.0,6.0,6.0,229.1988990000391,7.0,1.0,phase_2,go,450.0,350.0,1.0,,,,,,,,,white,triangle
0.0,7.0,3.0,1.0,5.0,5.0,482.7929349999067,7.0,1.0,phase_2,stop,450.0,350.0,3.0,,,,,,,,,yellow,circle
0.0,2.0,2.0,0.0,5.0,5.0,383.0128150002565,7.0,1.0,phase_2,go,400.0,350.0,1.0,,,,,,,,,green,square
0.0,2.0,2.0,0.0,6.0,6.0,338.0685870001798,7.0,1.0,phase_2,go,400.0,350.0,1.0,,,,,,,,,green,square
0.0,1.0,1.0,0.0,6.0,6.0,440.8945860000131,7.0,1.0,phase_2,go,400.0,350.0,1.0,,,,,,,,,gray,flipped triangle
0.0,7.0,3.0,1.0,5.0,5.0,284.3266669997319,7.0,1.0,phase_2,go,400.0,350.0,1.0,,,,,,,,,yellow,circle
0.0,2.0,2.0,0.0,5.0,5.0,717.8177139999207,7.0,1.0,phase_2,go,400.0,350.0,1.0,,,,,,,,,green,square
0.0,6.0,2.0,1.0,5.0,0.0,0.0,7.0,1.0,phase_2,stop,400.0,350.0,4.0,,,,,,,,,cyan,I
0.0,6.0,2.0,1.0,5.0,5.0,267.2914409999976,7.0,1.0,phase_2,go,450.0,350.0,1.0,,,,,,,,,cyan,I
0.0,2.0,2.0,0.0,5.0,5.0,285.2849179998884,7.0,1.0,phase_2,go,450.0,350.0,1.0,,,,,,,,,green,square
0.0,1.0,1.0,0.0,6.0,6.0,231.4983809997102,7.0,1.0,phase_2,go,450.0,350.0,1.0,,,,,,,,,gray,flipped triangle
0.0,4.0,4.0,0.0,6.0,6.0,312.6933600001393,7.0,1.0,phase_2,go,450.0,350.0,1.0,,,,,,,,,orange,hexagon
0.0,8.0,4.0,1.0,5.0,5.0,233.7524059998941,7.0,1.0,phase_2,stop,450.0,350.0,3.0,,,,,,,,,white,triangle
0.0,8.0,4.0,1.0,5.0,0.0,0.0,7.0,1.0,phase_2,stop,400.0,350.0,4.0,,,,,,,,,white,triangle
0.0,1.0,1.0,0.0,5.0,5.0,478.3492569999907,7.0,1.0,phase_2,go,450.0,350.0,1.0,,,,,,,,,gray,flipped triangle
0.0,8.0,4.0,1.0,5.0,5.0,485.9790989999055,7.0,1.0,phase_2,stop,450.0,350.0,3.0,,,,,,,,,white,triangle
0.0,6.0,2.0,1.0,5.0,5.0,608.7839379997604,7.0,1.0,phase_2,go,400.0,350.0,1.0,,,,,,,,,cyan,I
0.0,6.0,2.0,1.0,5.0,5.0,348.4783700000662,7.0,1.0,phase_2,stop,400.0,350.0,3.0,,,,,,,,,cyan,I
0.0,6.0,2.0,1.0,6.0,6.0,637.1835879999708,7.0,1.0,phase_2,go,350.0,350.0,1.0,,,,,,,,,cyan,I
0.0,1.0,1.0,0.0,5.0,5.0,495.2900990001581,8.0,1.0,phase_2,go,350.0,350.0,1.0,,,,,,,,,gray,flipped triangle
0.0,2.0,2.0,0.0,5.0,5.0,457.4685380002847,8.0,1.0,phase_2,go,350.0,350.0,1.0,,,,,,,,,green,square
0.0,8.0,4.0,1.0,5.0,0.0,0.0,8.0,1.0,phase_2,stop,350.0,350.0,4.0,,,,,,,,,white,triangle
0.0,6.0,2.0,1.0,5.0,0.0,0.0,8.0,1.0,phase_2,stop,400.0,350.0,4.0,,,,,,,,,cyan,I
0.0,3.0,3.0,0.0,5.0,5.0,517.4320940000143,8.0,1.0,phase_2,go,450.0,350.0,1.0,,,,,,,,,magenta,diamond
0.0,6.0,2.0,1.0,6.0,0.0,0.0,8.0,1.0,phase_2,stop,450.0,350.0,4.0,,,,,,,,,cyan,I
0.0,6.0,2.0,1.0,5.0,5.0,643.4991309997713,8.0,1.0,phase_2,stop,450.0,400.0,3.0,,,,,,,,,cyan,I
0.0,5.0,1.0,1.0,6.0,6.0,687.8877359999933,8.0,1.0,phase_2,go,400.0,400.0,1.0,,,,,,,,,blue,cross
0.0,4.0,4.0,0.0,5.0,5.0,529.7690140000668,8.0,1.0,phase_2,go,400.0,400.0,1.0,,,,,,,,,orange,hexagon
0.0,8.0,4.0,1.0,5.0,0.0,0.0,8.0,1.0,phase_2,stop,400.0,400.0,4.0,,,,,,,,,white,triangle
0.0,7.0,3.0,1.0,6.0,6.0,434.0529969999807,8.0,1.0,phase_2,stop,450.0,400.0,3.0,,,,,,,,,yellow,circle
0.0,5.0,1.0,1.0,5.0,0.0,0.0,8.0,1.0,phase_2,stop,450.0,350.0,4.0,,,,,,,,,blue,cross
0.0,2.0,2.0,0.0,5.0,5.0,592.8474309998819,8.0,1.0,phase_2,go,500.0,350.0,1.0,,,,,,,,,green,square
0.0,4.0,4.0,0.0,6.0,6.0,548.8196460000836,8.0,1.0,phase_2,go,500.0,350.0,1.0,,,,,,,,,orange,hexagon
0.0,8.0,4.0,1.0,6.0,0.0,0.0,8.0,1.0,phase_2,stop,500.0,350.0,4.0,,,,,,,,,white,triangle
0.0,7.0,3.0,1.0,5.0,5.0,574.3731230004414,8.0,1.0,phase_2,stop,500.0,400.0,3.0,,,,,,,,,yellow,circle
0.0,8.0,4.0,1.0,6.0,0.0,0.0,8.0,1.0,phase_2,stop,450.0,400.0,4.0,,,,,,,,,white,triangle
0.0,4.0,4.0,0.0,6.0,6.0,521.3514080001005,8.0,1.0,phase_2,go,450.0,450.0,1.0,,,,,,,,,orange,hexagon
0.0,2.0,2.0,0.0,6.0,6.0,626.7096689998652,8.0,1.0,phase_2,go,450.0,450.0,1.0,,,,,,,,,green,square
0.0,7.0,3.0,1.0,6.0,0.0,0.0,8.0,1.0,phase_2,stop,450.0,450.0,4.0,,,,,,,,,yellow,circle
0.0,4.0,4.0,0.0,5.0,5.0,696.863781999582,8.0,1.0,phase_2,go,450.0,500.0,1.0,,,,,,,,,orange,hexagon
0.0,8.0,4.0,1.0,6.0,0.0,0.0,8.0,1.0,phase_2,stop,450.0,500.0,4.0,,,,,,,,,white,triangle
0.0,4.0,4.0,0.0,5.0,5.0,650.537876999806,8.0,1.0,phase_2,go,450.0,550.0,1.0,,,,,,,,,orange,hexagon
0.0,1.0,1.0,0.0,6.0,6.0,766.9321589996798,8.0,1.0,phase_2,go,450.0,550.0,1.0,,,,,,,,,gray,flipped triangle
0.0,4.0,4.0,0.0,5.0,5.0,702.2107849998065,8.0,1.0,phase_2,go,450.0,550.0,1.0,,,,,,,,,orange,hexagon
0.0,3.0,3.0,0.0,6.0,6.0,840.9945349999361,8.0,1.0,phase_2,go,450.0,550.0,1.0,,,,,,,,,magenta,diamond
0.0,3.0,3.0,0.0,5.0,5.0,625.1174849999188,8.0,1.0,phase_2,go,450.0,550.0,1.0,,,,,,,,,magenta,diamond
0.0,2.0,2.0,0.0,6.0,6.0,670.2247789999092,8.0,1.0,phase_2,go,450.0,550.0,1.0,,,,,,,,,green,square
0.0,3.0,3.0,0.0,5.0,5.0,585.3057620001891,8.0,1.0,phase_2,go,450.0,550.0,1.0,,,,,,,,,magenta,diamond
0.0,8.0,4.0,1.0,5.0,0.0,0.0,8.0,1.0,phase_2,stop,450.0,550.0,4.0,,,,,,,,,white,triangle
0.0,7.0,3.0,1.0,6.0,6.0,1348.2488889999331,8.0,1.0,phase_2,go,500.0,550.0,1.0,,,,,,,,,yellow,circle
0.0,1.0,1.0,0.0,5.0,5.0,562.2643889996652,8.0,1.0,phase_2,go,500.0,550.0,1.0,,,,,,,,,gray,flipped triangle
0.0,8.0,4.0,1.0,6.0,0.0,0.0,8.0,1.0,phase_2,stop,500.0,550.0,4.0,,,,,,,,,white,triangle
0.0,2.0,2.0,0.0,6.0,6.0,557.0088380000016,8.0,1.0,phase_2,go,500.0,600.0,1.0,,,,,,,,,green,square
0.0,1.0,1.0,0.0,5.0,5.0,681.4672509999582,8.0,1.0,phase_2,go,500.0,600.0,1.0,,,,,,,,,gray,flipped triangle
0.0,4.0,4.0,0.0,5.0,5.0,577.3501420003413,8.0,1.0,phase_2,go,500.0,600.0,1.0,,,,,,,,,orange,hexagon
0.0,4.0,4.0,0.0,7.0,5.0,4895.159237000371,1.0,1.0,phase_3,,,,,324.0,6.0,162.0,108.0,270.0,54.0,324.0,216.0,orange,hexagon
0.0,8.0,4.0,1.0,7.0,2.0,1244.3396139997276,1.0,2.0,phase_3,,,,,44.0,1.0,264.0,44.0,132.0,220.0,176.0,88.0,white,triangle
0.0,7.0,3.0,1.0,7.0,6.0,2416.9291509997493,1.0,1.0,phase_3,,,,,132.0,3.0,176.0,88.0,220.0,44.0,264.0,132.0,yellow,circle
0.0,5.0,1.0,1.0,7.0,6.0,1832.8375190003496,1.0,1.0,phase_3,,,,,39.0,1.0,234.0,78.0,156.0,117.0,195.0,39.0,blue,cross
0.0,6.0,2.0,1.0,7.0,2.0,2145.972275000531,1.0,1.0,phase_3,,,,,39.0,1.0,156.0,39.0,78.0,117.0,195.0,234.0,cyan,I
0.0,3.0,3.0,0.0,7.0,6.0,2997.03590199988,1.0,1.0,phase_3,,,,,245.0,5.0,98.0,147.0,294.0,49.0,196.0,245.0,magenta,diamond
0.0,6.0,2.0,1.0,7.0,4.0,1913.626868999927,1.0,1.0,phase_3,,,,,78.0,2.0,234.0,39.0,156.0,78.0,117.0,195.0,cyan,I
0.0,8.0,4.0,1.0,7.0,3.0,2174.054866000006,1.0,1.0,phase_3,,,,,234.0,6.0,117.0,195.0,234.0,78.0,156.0,39.0,white,triangle
0.0,8.0,4.0,1.0,7.0,5.0,1542.3433630003274,1.0,1.0,phase_3,,,,,204.0,6.0,34.0,170.0,136.0,68.0,204.0,102.0,white,triangle
0.0,1.0,1.0,0.0,7.0,3.0,1689.5232120004948,1.0,1.0,phase_3,,,,,44.0,1.0,132.0,88.0,44.0,264.0,220.0,176.0,gray,flipped triangle
0.0,4.0,4.0,0.0,7.0,6.0,1953.8027179996789,1.0,1.0,phase_3,,,,,234.0,6.0,195.0,156.0,117.0,39.0,78.0,234.0,orange,hexagon
0.0,7.0,3.0,1.0,7.0,3.0,2079.55143900017,1.0,1.0,phase_3,,,,,147.0,3.0,98.0,294.0,147.0,196.0,49.0,245.0,yellow,circle
0.0,6.0,2.0,1.0,7.0,2.0,2395.5144430001383,1.0,1.0,phase_3,,,,,162.0,3.0,270.0,162.0,108.0,216.0,324.0,54.0,cyan,I
0.0,1.0,1.0,0.0,7.0,2.0,1527.5713969995195,1.0,1.0,phase_3,,,,,88.0,2.0,264.0,88.0,132.0,220.0,176.0,44.0,gray,flipped triangle
0.0,4.0,4.0,0.0,7.0,1.0,1451.331049000146,1.0,1.0,phase_3,,,,,204.0,6.0,204.0,136.0,34.0,170.0,102.0,68.0,orange,hexagon
0.0,6.0,2.0,1.0,7.0,1.0,2616.338912000174,1.0,1.0,phase_3,,,,,68.0,2.0,68.0,204.0,34.0,170.0,136.0,102.0,cyan,I
0.0,1.0,1.0,0.0,7.0,1.0,2197.017746999336,1.0,1.0,phase_3,,,,,108.0,2.0,108.0,216.0,162.0,324.0,270.0,54.0,gray,flipped triangle
0.0,7.0,3.0,1.0,7.0,3.0,2875.262642999587,1.0,1.0,phase_3,,,,,162.0,3.0,324.0,216.0,162.0,108.0,270.0,54.0,yellow,circle
0.0,6.0,2.0,1.0,7.0,6.0,2432.9489210003885,1.0,1.0,phase_3,,,,,88.0,2.0,132.0,264.0,176.0,220.0,44.0,88.0,cyan,I
0.0,2.0,2.0,0.0,7.0,2.0,2372.529740000573,1.0,1.0,phase_3,,,,,136.0,4.0,204.0,136.0,68.0,34.0,170.0,102.0,green,square
0.0,6.0,2.0,1.0,7.0,3.0,1682.255191999502,2.0,1.0,phase_3,,,,,98.0,2.0,49.0,294.0,98.0,147.0,196.0,245.0,cyan,I
0.0,8.0,4.0,1.0,7.0,1.0,2791.105174999757,2.0,1.0,phase_3,,,,,324.0,6.0,324.0,162.0,108.0,216.0,54.0,270.0,white,triangle
0.0,2.0,2.0,0.0,7.0,2.0,3037.0837840000604,2.0,1.0,phase_3,,,,,147.0,3.0,196.0,147.0,294.0,49.0,98.0,245.0,green,square
0.0,8.0,4.0,1.0,7.0,6.0,2760.922209000455,2.0,1.0,phase_3,,,,,324.0,6.0,270.0,216.0,108.0,162.0,54.0,324.0,white,triangle
0.0,8.0,4.0,1.0,7.0,5.0,2028.229298000042,2.0,1.0,phase_3,,,,,294.0,6.0,147.0,98.0,49.0,245.0,294.0,196.0,white,triangle
0.0,2.0,2.0,0.0,7.0,1.0,2373.4990220000327,2.0,1.0,phase_3,,,,,98.0,2.0,98.0,245.0,49.0,147.0,196.0,294.0,green,square
0.0,5.0,1.0,1.0,7.0,4.0,1668.183279999539,2.0,1.0,phase_3,,,,,54.0,1.0,216.0,162.0,324.0,54.0,108.0,270.0,blue,cross
0.0,5.0,1.0,1.0,7.0,6.0,1510.6718969991562,2.0,1.0,phase_3,,,,,44.0,1.0,132.0,220.0,88.0,264.0,176.0,44.0,blue,cross
0.0,7.0,3.0,1.0,7.0,1.0,2184.847369000636,2.0,1.0,phase_3,,,,,147.0,3.0,147.0,294.0,49.0,196.0,245.0,98.0,yellow,circle
0.0,7.0,3.0,1.0,7.0,1.0,2268.826982999599,2.0,1.0,phase_3,,,,,170.0,5.0,170.0,102.0,204.0,68.0,34.0,136.0,yellow,circle
0.0,1.0,1.0,0.0,7.0,2.0,1800.2423340003588,2.0,1.0,phase_3,,,,,78.0,2.0,117.0,78.0,234.0,39.0,195.0,156.0,gray,flipped triangle
0.0,3.0,3.0,0.0,7.0,4.0,2449.555221999617,2.0,1.0,phase_3,,,,,162.0,3.0,54.0,324.0,270.0,162.0,108.0,216.0,magenta,diamond
0.0,8.0,4.0,1.0,7.0,4.0,1557.3230290001447,2.0,1.0,phase_3,,,,,204.0,6.0,68.0,170.0,34.0,204.0,136.0,102.0,white,triangle
0.0,7.0,3.0,1.0,7.0,2.0,2468.209391999153,2.0,1.0,phase_3,,,,,156.0,4.0,117.0,156.0,195.0,39.0,78.0,234.0,yellow,circle
0.0,1.0,1.0,0.0,7.0,1.0,1506.822245999501,2.0,1.0,phase_3,,,,,54.0,1.0,54.0,324.0,108.0,162.0,216.0,270.0,gray,flipped triangle
0.0,3.0,3.0,0.0,7.0,1.0,1751.631264000025,2.0,1.0,phase_3,,,,,136.0,4.0,136.0,102.0,204.0,34.0,68.0,170.0,magenta,diamond
0.0,5.0,1.0,1.0,7.0,2.0,1297.3502799995913,2.0,1.0,phase_3,,,,,39.0,1.0,195.0,39.0,156.0,78.0,117.0,234.0,blue,cross
0.0,2.0,2.0,0.0,7.0,1.0,2107.671613000093,2.0,1.0,phase_3,,,,,216.0,4.0,216.0,324.0,54.0,270.0,108.0,162.0,green,square
0.0,1.0,1.0,0.0,7.0,6.0,1308.4616260002804,2.0,1.0,phase_3,,,,,39.0,1.0,78.0,117.0,195.0,234.0,156.0,39.0,gray,flipped triangle
0.0,2.0,2.0,0.0,7.0,6.0,1736.775858999863,2.0,1.0,phase_3,,,,,54.0,1.0,270.0,324.0,108.0,162.0,216.0,54.0,green,square
0.0,1.0,1.0,0.0,7.0,4.0,1979.8959640002067,3.0,1.0,phase_3,,,,,34.0,1.0,136.0,170.0,102.0,34.0,204.0,68.0,gray,flipped triangle
0.0,2.0,2.0,0.0,7.0,3.0,2467.5422939999407,3.0,1.0,phase_3,,,,,117.0,3.0,195.0,156.0,117.0,78.0,39.0,234.0,green,square
0.0,2.0,2.0,0.0,7.0,4.0,2165.0893670002915,3.0,1.0,phase_3,,,,,132.0,3.0,176.0,264.0,220.0,132.0,88.0,44.0,green,square
0.0,4.0,4.0,0.0,7.0,6.0,1649.3408780006575,3.0,1.0,phase_3,,,,,294.0,6.0,49.0,196.0,245.0,147.0,98.0,294.0,orange,hexagon
0.0,6.0,2.0,1.0,7.0,5.0,1616.5162489996874,3.0,1.0,phase_3,,,,,88.0,2.0,264.0,132.0,176.0,220.0,88.0,44.0,cyan,I
0.0,8.0,4.0,1.0,7.0,4.0,2178.628687000128,3.0,1.0,phase_3,,,,,156.0,4.0,78.0,234.0,195.0,156.0,117.0,39.0,white,triangle
0.0,6.0,2.0,1.0,7.0,4.0,3112.6719509993563,3.0,1.0,phase_3,,,,,170.0,5.0,102.0,34.0,68.0,170.0,136.0,204.0,cyan,I
0.0,3.0,3.0,0.0,7.0,6.0,1732.8081140003633,3.0,1.0,phase_3,,,,,132.0,3.0,264.0,88.0,44.0,220.0,176.0,132.0,magenta,diamond
0.0,5.0,1.0,1.0,7.0,2.0,1198.3539259999816,3.0,1.0,phase_3,,,,,34.0,1.0,204.0,34.0,68.0,136.0,170.0,102.0,blue,cross
0.0,6.0,2.0,1.0,7.0,5.0,2500.278903000435,3.0,1.0,phase_3,,,,,162.0,3.0,54.0,270.0,108.0,216.0,162.0,324.0,cyan,I
0.0,4.0,4.0,0.0,7.0,2.0,1575.854321999941,3.0,1.0,phase_3,,,,,294.0,6.0,196.0,294.0,98.0,245.0,49.0,147.0,orange,hexagon
0.0,1.0,1.0,0.0,7.0,3.0,1343.393698,3.0,1.0,phase_3,,,,,68.0,2.0,102.0,170.0,68.0,204.0,34.0,136.0,gray,flipped triangle
0.0,8.0,4.0,1.0,7.0,5.0,1681.642624000233,3.0,1.0,phase_3,,,,,264.0,6.0,176.0,220.0,132.0,44.0,264.0,88.0,white,triangle
0.0,3.0,3.0,0.0,7.0,6.0,2105.3209439996863,3.0,1.0,phase_3,,,,,136.0,4.0,102.0,68.0,170.0,34.0,204.0,136.0,magenta,diamond
0.0,5.0,1.0,1.0,7.0,2.0,1298.915692999799,3.0,1.0,phase_3,,,,,54.0,1.0,324.0,54.0,216.0,270.0,108.0,162.0,blue,cross
0.0,4.0,4.0,0.0,7.0,3.0,1439.5810469995922,3.0,1.0,phase_3,,,,,204.0,6.0,34.0,136.0,204.0,170.0,102.0,68.0,orange,hexagon
0.0,7.0,3.0,1.0,7.0,5.0,2051.1266630001046,3.0,1.0,phase_3,,,,,102.0,3.0,170.0,68.0,204.0,34.0,102.0,136.0,yellow,circle
0.0,7.0,3.0,1.0,7.0,6.0,2164.5855910001046,3.0,1.0,phase_3,,,,,117.0,3.0,234.0,39.0,156.0,78.0,195.0,117.0,yellow,circle
0.0,3.0,3.0,0.0,7.0,2.0,1365.2234170003794,3.0,1.0,phase_3,,,,,196.0,4.0,294.0,196.0,98.0,147.0,49.0,245.0,magenta,diamond
0.0,3.0,3.0,0.0,7.0,4.0,1880.4124899997987,3.0,1.0,phase_3,,,,,176.0,4.0,132.0,264.0,88.0,176.0,220.0,44.0,magenta,diamond
0.0,4.0,4.0,0.0,7.0,4.0,1553.614637999999,4.0,1.0,phase_3,,,,,88.0,2.0,176.0,220.0,132.0,88.0,264.0,44.0,orange,hexagon
0.0,4.0,4.0,0.0,7.0,2.0,1448.3283790004862,4.0,1.0,phase_3,,,,,324.0,6.0,270.0,324.0,216.0,108.0,54.0,162.0,orange,hexagon
0.0,1.0,1.0,0.0,7.0,2.0,1344.0806720000182,4.0,1.0,phase_3,,,,,49.0,1.0,245.0,49.0,98.0,196.0,147.0,294.0,gray,flipped triangle
0.0,5.0,1.0,1.0,7.0,5.0,1065.290918999381,4.0,1.0,phase_3,,,,,34.0,1.0,170.0,102.0,204.0,68.0,34.0,136.0,blue,cross
0.0,7.0,3.0,1.0,7.0,1.0,2382.0523439999306,4.0,1.0,phase_3,,,,,88.0,2.0,88.0,132.0,176.0,264.0,44.0,220.0,yellow,circle
0.0,2.0,2.0,0.0,7.0,2.0,2558.715905999634,4.0,1.0,phase_3,,,,,176.0,4.0,132.0,176.0,44.0,264.0,88.0,220.0,green,square
0.0,3.0,3.0,0.0,7.0,4.0,1978.4034589993096,4.0,1.0,phase_3,,,,,156.0,4.0,78.0,39.0,195.0,156.0,234.0,117.0,magenta,diamond
0.0,1.0,1.0,0.0,7.0,2.0,1004.3633000004777,4.0,1.0,phase_3,,,,,49.0,1.0,245.0,49.0,147.0,98.0,294.0,196.0,gray,flipped triangle
0.0,5.0,1.0,1.0,7.0,5.0,1085.4915640002218,4.0,1.0,phase_3,,,,,44.0,1.0,264.0,220.0,176.0,88.0,44.0,132.0,blue,cross
0.0,5.0,1.0,1.0,7.0,2.0,1195.8737559998551,4.0,1.0,phase_3,,,,,49.0,1.0,294.0,49.0,147.0,98.0,245.0,196.0,blue,cross
0.0,8.0,4.0,1.0,7.0,3.0,2655.546392999895,4.0,1.0,phase_3,,,,,294.0,6.0,49.0,196.0,294.0,245.0,147.0,98.0,white,triangle
0.0,4.0,4.0,0.0,7.0,4.0,2392.186367999784,4.0,1.0,phase_3,,,,,234.0,6.0,117.0,39.0,156.0,234.0,195.0,78.0,orange,hexagon
0.0,7.0,3.0,1.0,7.0,1.0,1867.7669469998364,4.0,1.0,phase_3,,,,,108.0,2.0,108.0,216.0,54.0,162.0,324.0,270.0,yellow,circle
0.0,3.0,3.0,0.0,7.0,4.0,1619.171159999496,4.0,1.0,phase_3,,,,,216.0,4.0,162.0,108.0,324.0,216.0,54.0,270.0,magenta,diamond
0.0,2.0,2.0,0.0,7.0,5.0,2274.704489999749,4.0,1.0,phase_3,,,,,156.0,4.0,78.0,39.0,234.0,195.0,156.0,117.0,green,square
0.0,4.0,4.0,0.0,7.0,3.0,1689.4279650005046,4.0,1.0,phase_3,,,,,220.0,5.0,264.0,88.0,220.0,132.0,44.0,176.0,orange,hexagon
0.0,3.0,3.0,0.0,7.0,6.0,2007.833925999876,4.0,1.0,phase_3,,,,,117.0,3.0,195.0,156.0,78.0,39.0,234.0,117.0,magenta,diamond
0.0,6.0,2.0,1.0,7.0,2.0,1577.0677909995356,4.0,1.0,phase_3,,,,,98.0,2.0,294.0,98.0,196.0,245.0,147.0,49.0,cyan,I
0.0,2.0,2.0,0.0,7.0,6.0,2041.3748920000216,4.0,1.0,phase_3,,,,,170.0,5.0,102.0,68.0,34.0,204.0,136.0,170.0,green,square
0.0,5.0,1.0,1.0,7.0,1.0,2018.5945060002268,4.0,1.0,phase_3,,,,,49.0,1.0,49.0,196.0,147.0,294.0,98.0,245.0,blue,cross
