raw_reward_magnitude,stim_reward,stepwise_reward_magnitude,paired_with_stopping,quadrant,response,reaction_time,block,num_trial_presentations,which_part,stop_signal_trial_type,left_SSD,right_SSD,accuracy,chosen_bidding_amount,chosen_bidding_level,possible_bid_1,possible_bid_2,possible_bid_3,possible_bid_4,possible_bid_5,possible_bid_6,color_text,shape_text
406.0,8.0,4.0,1.0,3.0,3.0,443.3410579999872,1.0,1.0,part_1,,,,,,,,,,,,,magenta,circle
393.0,4.0,4.0,0.0,3.0,3.0,331.5616679999493,1.0,1.0,part_1,,,,,,,,,,,,,cyan,cross
61.0,1.0,1.0,0.0,1.0,1.0,297.6917740002136,1.0,1.0,part_1,,,,,,,,,,,,,green,I
0.0,1.0,0.0,0.0,2.0,2.0,276.7197319999468,1.0,1.0,part_1,,,,,,,,,,,,,green,I
116.0,2.0,2.0,0.0,3.0,3.0,367.1228279999923,1.0,1.0,part_1,,,,,,,,,,,,,gray,flipped triangle
106.0,6.0,2.0,1.0,1.0,1.0,344.0082590000202,1.0,1.0,part_1,,,,,,,,,,,,,orange,square
72.0,1.0,1.0,0.0,2.0,2.0,296.0409709999112,1.0,1.0,part_1,,,,,,,,,,,,,green,I
419.0,4.0,4.0,0.0,3.0,3.0,273.22991799997,1.0,1.0,part_1,,,,,,,,,,,,,cyan,cross
0.0,5.0,0.0,1.0,4.0,4.0,317.0242080000207,1.0,1.0,part_1,,,,,,,,,,,,,yellow,hexagon
420.0,4.0,4.0,0.0,4.0,4.0,321.871665999879,1.0,1.0,part_1,,,,,,,,,,,,,cyan,cross
116.0,6.0,2.0,1.0,4.0,4.0,429.3269120000786,1.0,1.0,part_1,,,,,,,,,,,,,orange,square
190.0,3.0,3.0,0.0,1.0,1.0,325.1910120000048,1.0,1.0,part_1,,,,,,,,,,,,,white,diamond
62.0,1.0,1.0,0.0,4.0,4.0,329.363474000047,1.0,1.0,part_1,,,,,,,,,,,,,green,I
404.0,4.0,4.0,0.0,1.0,1.0,344.8481230000197,1.0,1.0,part_1,,,,,,,,,,,,,cyan,cross
41.0,1.0,1.0,0.0,3.0,3.0,289.5694849999017,1.0,1.0,part_1,,,,,,,,,,,,,green,I
381.0,8.0,4.0,1.0,4.0,4.0,313.4662929999194,1.0,1.0,part_1,,,,,,,,,,,,,magenta,circle
0.0,6.0,0.0,1.0,1.0,1.0,290.5418319999171,1.0,1.0,part_1,,,,,,,,,,,,,orange,square
114.0,6.0,2.0,1.0,4.0,4.0,292.99189099992867,1.0,1.0,part_1,,,,,,,,,,,,,orange,square
0.0,7.0,0.0,1.0,1.0,1.0,288.678654000023,1.0,1.0,part_1,,,,,,,,,,,,,blue,triangle
0.0,8.0,0.0,1.0,4.0,4.0,273.2698419999906,1.0,1.0,part_1,,,,,,,,,,,,,magenta,circle
0.0,4.0,0.0,0.0,3.0,3.0,404.2597380000643,1.0,1.0,part_1,,,,,,,,,,,,,cyan,cross
90.0,2.0,2.0,0.0,1.0,1.0,301.4474740000423,1.0,1.0,part_1,,,,,,,,,,,,,gray,flipped triangle
99.0,2.0,2.0,0.0,4.0,4.0,365.0573109998731,1.0,1.0,part_1,,,,,,,,,,,,,gray,flipped triangle
0.0,7.0,0.0,1.0,1.0,1.0,337.7051239999673,1.0,1.0,part_1,,,,,,,,,,,,,blue,triangle
72.0,1.0,1.0,0.0,2.0,2.0,356.4146439998694,1.0,1.0,part_1,,,,,,,,,,,,,green,I
0.0,3.0,0.0,0.0,1.0,1.0,388.7158410000211,1.0,1.0,part_1,,,,,,,,,,,,,white,diamond
83.0,2.0,2.0,0.0,4.0,4.0,359.9974620001376,1.0,1.0,part_1,,,,,,,,,,,,,gray,flipped triangle
399.0,4.0,4.0,0.0,3.0,3.0,380.5226919998858,1.0,1.0,part_1,,,,,,,,,,,,,cyan,cross
45.0,5.0,1.0,1.0,2.0,2.0,317.5466800000777,1.0,1.0,part_1,,,,,,,,,,,,,yellow,hexagon
384.0,4.0,4.0,0.0,1.0,1.0,341.730828999971,1.0,1.0,part_1,,,,,,,,,,,,,cyan,cross
72.0,5.0,1.0,1.0,4.0,4.0,304.4107539999459,1.0,1.0,part_1,,,,,,,,,,,,,yellow,hexagon
380.0,4.0,4.0,0.0,2.0,2.0,340.679160000036,1.0,1.0,part_1,,,,,,,,,,,,,cyan,cross
27.0,5.0,1.0,1.0,4.0,4.0,329.7924110001986,1.0,1.0,part_1,,,,,,,,,,,,,yellow,hexagon
109.0,6.0,2.0,1.0,1.0,1.0,341.2217269999473,1.0,1.0,part_1,,,,,,,,,,,,,orange,square
46.0,1.0,1.0,0.0,2.0,2.0,376.2753360001625,1.0,1.0,part_1,,,,,,,,,,,,,green,I
123.0,6.0,2.0,1.0,2.0,2.0,329.8063820000152,1.0,1.0,part_1,,,,,,,,,,,,,orange,square
215.0,3.0,3.0,0.0,3.0,3.0,345.9740739999688,1.0,1.0,part_1,,,,,,,,,,,,,white,diamond
399.0,8.0,4.0,1.0,1.0,1.0,400.2648750001754,1.0,1.0,part_1,,,,,,,,,,,,,magenta,circle
401.0,8.0,4.0,1.0,1.0,1.0,407.5659130000986,1.0,1.0,part_1,,,,,,,,,,,,,magenta,circle
210.0,7.0,3.0,1.0,2.0,2.0,334.7472909999851,1.0,1.0,part_1,,,,,,,,,,,,,blue,triangle
56.0,1.0,1.0,0.0,1.0,1.0,367.71371299983,1.0,1.0,part_1,,,,,,,,,,,,,green,I
0.0,5.0,0.0,1.0,1.0,1.0,315.4560680000031,1.0,1.0,part_1,,,,,,,,,,,,,yellow,hexagon
97.0,2.0,2.0,0.0,1.0,1.0,383.7494379999953,1.0,1.0,part_1,,,,,,,,,,,,,gray,flipped triangle
0.0,8.0,0.0,1.0,3.0,3.0,286.6199770001003,1.0,1.0,part_1,,,,,,,,,,,,,magenta,circle
0.0,3.0,0.0,0.0,1.0,1.0,344.999621999932,1.0,1.0,part_1,,,,,,,,,,,,,white,diamond
115.0,6.0,2.0,1.0,4.0,4.0,300.971152999864,1.0,1.0,part_1,,,,,,,,,,,,,orange,square
0.0,1.0,0.0,0.0,1.0,1.0,341.9248350000998,1.0,1.0,part_1,,,,,,,,,,,,,green,I
71.0,5.0,1.0,1.0,3.0,3.0,310.7804989999749,1.0,1.0,part_1,,,,,,,,,,,,,yellow,hexagon
187.0,7.0,3.0,1.0,4.0,4.0,348.7710270001116,1.0,1.0,part_1,,,,,,,,,,,,,blue,triangle
187.0,3.0,3.0,0.0,4.0,4.0,479.0225950000604,1.0,1.0,part_1,,,,,,,,,,,,,white,diamond
66.0,1.0,1.0,0.0,1.0,1.0,357.3976039999706,1.0,1.0,part_1,,,,,,,,,,,,,green,I
207.0,3.0,3.0,0.0,2.0,2.0,372.3232929999085,1.0,1.0,part_1,,,,,,,,,,,,,white,diamond
29.0,5.0,1.0,1.0,1.0,1.0,420.2296809999097,1.0,1.0,part_1,,,,,,,,,,,,,yellow,hexagon
192.0,7.0,3.0,1.0,2.0,2.0,404.9043180000353,1.0,1.0,part_1,,,,,,,,,,,,,blue,triangle
412.0,4.0,4.0,0.0,3.0,3.0,483.2292850001067,1.0,1.0,part_1,,,,,,,,,,,,,cyan,cross
71.0,1.0,1.0,0.0,3.0,3.0,393.7535109998862,1.0,1.0,part_1,,,,,,,,,,,,,green,I
377.0,4.0,4.0,0.0,2.0,2.0,444.6043939999526,1.0,1.0,part_1,,,,,,,,,,,,,cyan,cross
0.0,5.0,0.0,1.0,2.0,2.0,348.6033320000388,1.0,1.0,part_1,,,,,,,,,,,,,yellow,hexagon
79.0,6.0,2.0,1.0,4.0,4.0,308.2928589999483,1.0,1.0,part_1,,,,,,,,,,,,,orange,square
423.0,4.0,4.0,0.0,2.0,2.0,319.7434789999533,1.0,1.0,part_1,,,,,,,,,,,,,cyan,cross
389.0,4.0,4.0,0.0,1.0,1.0,315.2537949999896,1.0,1.0,part_1,,,,,,,,,,,,,cyan,cross
219.0,7.0,3.0,1.0,2.0,2.0,398.8526930002081,1.0,1.0,part_1,,,,,,,,,,,,,blue,triangle
215.0,7.0,3.0,1.0,4.0,4.0,383.39791799990047,1.0,1.0,part_1,,,,,,,,,,,,,blue,triangle
183.0,3.0,3.0,0.0,3.0,3.0,373.9253379999354,1.0,1.0,part_1,,,,,,,,,,,,,white,diamond
0.0,6.0,0.0,1.0,2.0,2.0,325.2254629999243,1.0,1.0,part_1,,,,,,,,,,,,,orange,square
28.0,5.0,1.0,1.0,2.0,2.0,527.0355710001695,1.0,1.0,part_1,,,,,,,,,,,,,yellow,hexagon
113.0,2.0,2.0,0.0,2.0,2.0,467.4661239998841,1.0,1.0,part_1,,,,,,,,,,,,,gray,flipped triangle
189.0,3.0,3.0,0.0,2.0,2.0,396.2277240000276,1.0,1.0,part_1,,,,,,,,,,,,,white,diamond
0.0,3.0,0.0,0.0,3.0,3.0,415.0142840001081,1.0,1.0,part_1,,,,,,,,,,,,,white,diamond
221.0,7.0,3.0,1.0,1.0,1.0,382.7097930000036,1.0,1.0,part_1,,,,,,,,,,,,,blue,triangle
67.0,5.0,1.0,1.0,4.0,4.0,336.9626710000375,1.0,1.0,part_1,,,,,,,,,,,,,yellow,hexagon
204.0,7.0,3.0,1.0,1.0,1.0,576.4443589998791,1.0,1.0,part_1,,,,,,,,,,,,,blue,triangle
215.0,7.0,3.0,1.0,4.0,4.0,327.035713999976,1.0,1.0,part_1,,,,,,,,,,,,,blue,triangle
117.0,2.0,2.0,0.0,3.0,3.0,434.221750000006,1.0,1.0,part_1,,,,,,,,,,,,,gray,flipped triangle
111.0,2.0,2.0,0.0,1.0,1.0,289.2346559999623,1.0,1.0,part_1,,,,,,,,,,,,,gray,flipped triangle
92.0,2.0,2.0,0.0,1.0,1.0,403.708067000025,1.0,1.0,part_1,,,,,,,,,,,,,gray,flipped triangle
223.0,3.0,3.0,0.0,2.0,2.0,404.498938000188,1.0,1.0,part_1,,,,,,,,,,,,,white,diamond
124.0,2.0,2.0,0.0,2.0,2.0,376.7788400000427,1.0,1.0,part_1,,,,,,,,,,,,,gray,flipped triangle
379.0,4.0,4.0,0.0,4.0,4.0,330.4588240000612,1.0,1.0,part_1,,,,,,,,,,,,,cyan,cross
375.0,4.0,4.0,0.0,1.0,1.0,396.3258849998965,1.0,1.0,part_1,,,,,,,,,,,,,cyan,cross
0.0,7.0,0.0,1.0,4.0,4.0,344.2335140000523,1.0,1.0,part_1,,,,,,,,,,,,,blue,triangle
212.0,7.0,3.0,1.0,2.0,2.0,357.4051929999768,1.0,1.0,part_1,,,,,,,,,,,,,blue,triangle
401.0,4.0,4.0,0.0,2.0,2.0,410.3585450000082,1.0,1.0,part_1,,,,,,,,,,,,,cyan,cross
0.0,3.0,0.0,0.0,2.0,2.0,470.0346009999521,1.0,1.0,part_1,,,,,,,,,,,,,white,diamond
0.0,2.0,0.0,0.0,4.0,4.0,400.8740010001475,1.0,1.0,part_1,,,,,,,,,,,,,gray,flipped triangle
185.0,3.0,3.0,0.0,1.0,1.0,396.4155900000605,1.0,1.0,part_1,,,,,,,,,,,,,white,diamond
207.0,7.0,3.0,1.0,1.0,1.0,420.073106000018,1.0,1.0,part_1,,,,,,,,,,,,,blue,triangle
103.0,2.0,2.0,0.0,2.0,2.0,346.0139119999894,1.0,1.0,part_1,,,,,,,,,,,,,gray,flipped triangle
196.0,3.0,3.0,0.0,4.0,4.0,392.5665609999669,1.0,1.0,part_1,,,,,,,,,,,,,white,diamond
67.0,1.0,1.0,0.0,1.0,1.0,490.6038690000969,1.0,1.0,part_1,,,,,,,,,,,,,green,I
0.0,5.0,0.0,1.0,1.0,1.0,427.9538270000103,1.0,1.0,part_1,,,,,,,,,,,,,yellow,hexagon
0.0,4.0,0.0,0.0,3.0,3.0,429.5333340000979,1.0,1.0,part_1,,,,,,,,,,,,,cyan,cross
384.0,4.0,4.0,0.0,3.0,3.0,466.5085789999921,1.0,1.0,part_1,,,,,,,,,,,,,cyan,cross
386.0,8.0,4.0,1.0,1.0,1.0,396.1293820000264,1.0,1.0,part_1,,,,,,,,,,,,,magenta,circle
207.0,7.0,3.0,1.0,3.0,3.0,338.0578900000728,1.0,1.0,part_1,,,,,,,,,,,,,blue,triangle
384.0,8.0,4.0,1.0,3.0,3.0,369.8189369999909,1.0,1.0,part_1,,,,,,,,,,,,,magenta,circle
0.0,8.0,0.0,1.0,2.0,2.0,369.2745849998573,1.0,1.0,part_1,,,,,,,,,,,,,magenta,circle
77.0,2.0,2.0,0.0,2.0,2.0,406.5253159999429,1.0,1.0,part_1,,,,,,,,,,,,,gray,flipped triangle
190.0,7.0,3.0,1.0,1.0,1.0,455.7129439999698,1.0,1.0,part_1,,,,,,,,,,,,,blue,triangle
423.0,4.0,4.0,0.0,4.0,4.0,348.7260169999899,1.0,1.0,part_1,,,,,,,,,,,,,cyan,cross
75.0,5.0,1.0,1.0,3.0,3.0,362.6694900001439,2.0,1.0,part_1,,,,,,,,,,,,,yellow,hexagon
376.0,8.0,4.0,1.0,4.0,4.0,389.4301329999052,2.0,1.0,part_1,,,,,,,,,,,,,magenta,circle
117.0,6.0,2.0,1.0,1.0,1.0,297.7341800001341,2.0,1.0,part_1,,,,,,,,,,,,,orange,square
387.0,8.0,4.0,1.0,2.0,2.0,367.3354929999277,2.0,1.0,part_1,,,,,,,,,,,,,magenta,circle
0.0,2.0,0.0,0.0,4.0,4.0,449.7455230000469,2.0,1.0,part_1,,,,,,,,,,,,,gray,flipped triangle
406.0,4.0,4.0,0.0,4.0,4.0,357.5034190000679,2.0,1.0,part_1,,,,,,,,,,,,,cyan,cross
194.0,7.0,3.0,1.0,3.0,3.0,292.4617109999872,2.0,1.0,part_1,,,,,,,,,,,,,blue,triangle
61.0,5.0,1.0,1.0,3.0,3.0,393.4603480001897,2.0,1.0,part_1,,,,,,,,,,,,,yellow,hexagon
409.0,8.0,4.0,1.0,3.0,3.0,354.3379949999234,2.0,1.0,part_1,,,,,,,,,,,,,magenta,circle
207.0,3.0,3.0,0.0,2.0,2.0,344.7555230000034,2.0,1.0,part_1,,,,,,,,,,,,,white,diamond
395.0,8.0,4.0,1.0,2.0,2.0,343.5748689998945,2.0,1.0,part_1,,,,,,,,,,,,,magenta,circle
73.0,1.0,1.0,0.0,2.0,2.0,338.775521999878,2.0,1.0,part_1,,,,,,,,,,,,,green,I
114.0,2.0,2.0,0.0,3.0,3.0,370.0860769999963,2.0,1.0,part_1,,,,,,,,,,,,,gray,flipped triangle
59.0,1.0,1.0,0.0,4.0,4.0,403.5626309998861,2.0,1.0,part_1,,,,,,,,,,,,,green,I
0.0,6.0,0.0,1.0,1.0,1.0,539.6471649999057,2.0,1.0,part_1,,,,,,,,,,,,,orange,square
52.0,1.0,1.0,0.0,3.0,3.0,442.32788599993,2.0,1.0,part_1,,,,,,,,,,,,,green,I
59.0,5.0,1.0,1.0,1.0,1.0,317.9313450000336,2.0,1.0,part_1,,,,,,,,,,,,,yellow,hexagon
123.0,6.0,2.0,1.0,1.0,1.0,412.3514719999548,2.0,1.0,part_1,,,,,,,,,,,,,orange,square
73.0,5.0,1.0,1.0,2.0,2.0,324.4578300000285,2.0,1.0,part_1,,,,,,,,,,,,,yellow,hexagon
32.0,1.0,1.0,0.0,3.0,3.0,341.7134410001381,2.0,1.0,part_1,,,,,,,,,,,,,green,I
92.0,2.0,2.0,0.0,2.0,2.0,359.4548249998297,2.0,1.0,part_1,,,,,,,,,,,,,gray,flipped triangle
80.0,6.0,2.0,1.0,3.0,3.0,416.0150600000634,2.0,1.0,part_1,,,,,,,,,,,,,orange,square
184.0,3.0,3.0,0.0,4.0,4.0,469.4764289999966,2.0,1.0,part_1,,,,,,,,,,,,,white,diamond
425.0,8.0,4.0,1.0,4.0,4.0,364.9629550000099,2.0,1.0,part_1,,,,,,,,,,,,,magenta,circle
56.0,5.0,1.0,1.0,1.0,1.0,384.1215720001401,2.0,1.0,part_1,,,,,,,,,,,,,yellow,hexagon
387.0,4.0,4.0,0.0,4.0,4.0,544.0891700000066,2.0,1.0,part_1,,,,,,,,,,,,,cyan,cross
40.0,5.0,1.0,1.0,4.0,4.0,396.4746279998508,2.0,1.0,part_1,,,,,,,,,,,,,yellow,hexagon
420.0,4.0,4.0,0.0,4.0,4.0,438.5980709998875,2.0,1.0,part_1,,,,,,,,,,,,,cyan,cross
200.0,7.0,3.0,1.0,2.0,2.0,488.0383079998864,2.0,2.0,part_1,,,,,,,,,,,,,blue,triangle
389.0,4.0,4.0,0.0,3.0,3.0,489.0916370000013,2.0,1.0,part_1,,,,,,,,,,,,,cyan,cross
94.0,2.0,2.0,0.0,2.0,2.0,387.0701119999467,2.0,1.0,part_1,,,,,,,,,,,,,gray,flipped triangle
402.0,8.0,4.0,1.0,4.0,4.0,323.9864529996339,2.0,1.0,part_1,,,,,,,,,,,,,magenta,circle
204.0,3.0,3.0,0.0,4.0,4.0,331.823274999806,2.0,1.0,part_1,,,,,,,,,,,,,white,diamond
113.0,6.0,2.0,1.0,1.0,1.0,463.7231379997502,2.0,1.0,part_1,,,,,,,,,,,,,orange,square
205.0,3.0,3.0,0.0,4.0,4.0,384.691856000245,2.0,1.0,part_1,,,,,,,,,,,,,white,diamond
184.0,7.0,3.0,1.0,1.0,1.0,405.508300999827,2.0,1.0,part_1,,,,,,,,,,,,,blue,triangle
179.0,7.0,3.0,1.0,4.0,4.0,349.0394710001965,2.0,1.0,part_1,,,,,,,,,,,,,blue,triangle
222.0,7.0,3.0,1.0,3.0,3.0,495.7360050002535,2.0,1.0,part_1,,,,,,,,,,,,,blue,triangle
0.0,3.0,0.0,0.0,1.0,1.0,388.8586069997473,2.0,1.0,part_1,,,,,,,,,,,,,white,diamond
196.0,7.0,3.0,1.0,4.0,4.0,326.2559069999042,2.0,1.0,part_1,,,,,,,,,,,,,blue,triangle
0.0,7.0,0.0,1.0,1.0,1.0,391.7292639998777,2.0,1.0,part_1,,,,,,,,,,,,,blue,triangle
98.0,2.0,2.0,0.0,1.0,1.0,357.8197420001743,2.0,1.0,part_1,,,,,,,,,,,,,gray,flipped triangle
27.0,5.0,1.0,1.0,4.0,4.0,457.9226840000956,2.0,1.0,part_1,,,,,,,,,,,,,yellow,hexagon
38.0,1.0,1.0,0.0,4.0,4.0,457.9432229998019,2.0,1.0,part_1,,,,,,,,,,,,,green,I
0.0,7.0,0.0,1.0,3.0,3.0,365.7118329997502,2.0,1.0,part_1,,,,,,,,,,,,,blue,triangle
95.0,2.0,2.0,0.0,4.0,4.0,371.9984949998434,2.0,1.0,part_1,,,,,,,,,,,,,gray,flipped triangle
0.0,2.0,0.0,0.0,3.0,3.0,392.7882420002788,2.0,1.0,part_1,,,,,,,,,,,,,gray,flipped triangle
384.0,4.0,4.0,0.0,2.0,2.0,395.0828719998753,2.0,1.0,part_1,,,,,,,,,,,,,cyan,cross
414.0,8.0,4.0,1.0,4.0,4.0,348.6902590002501,2.0,1.0,part_1,,,,,,,,,,,,,magenta,circle
408.0,8.0,4.0,1.0,3.0,3.0,363.109902999895,2.0,1.0,part_1,,,,,,,,,,,,,magenta,circle
0.0,2.0,0.0,0.0,3.0,3.0,357.4989420003476,2.0,1.0,part_1,,,,,,,,,,,,,gray,flipped triangle
384.0,8.0,4.0,1.0,2.0,2.0,330.9110109998983,2.0,1.0,part_1,,,,,,,,,,,,,magenta,circle
423.0,8.0,4.0,1.0,2.0,2.0,332.0812169999954,2.0,1.0,part_1,,,,,,,,,,,,,magenta,circle
175.0,7.0,3.0,1.0,3.0,3.0,452.7719120001165,2.0,1.0,part_1,,,,,,,,,,,,,blue,triangle
202.0,3.0,3.0,0.0,1.0,1.0,577.7718579997781,2.0,1.0,part_1,,,,,,,,,,,,,white,diamond
55.0,5.0,1.0,1.0,2.0,2.0,288.7457730003007,2.0,1.0,part_1,,,,,,,,,,,,,yellow,hexagon
0.0,5.0,0.0,1.0,4.0,4.0,348.0079099999784,2.0,1.0,part_1,,,,,,,,,,,,,yellow,hexagon
223.0,7.0,3.0,1.0,3.0,3.0,295.16938200004,2.0,1.0,part_1,,,,,,,,,,,,,blue,triangle
62.0,5.0,1.0,1.0,2.0,2.0,421.2820100001408,2.0,1.0,part_1,,,,,,,,,,,,,yellow,hexagon
27.0,1.0,1.0,0.0,2.0,2.0,382.4681139999484,2.0,1.0,part_1,,,,,,,,,,,,,green,I
222.0,3.0,3.0,0.0,3.0,3.0,474.2989830001534,2.0,1.0,part_1,,,,,,,,,,,,,white,diamond
412.0,8.0,4.0,1.0,4.0,4.0,497.7389119999316,2.0,1.0,part_1,,,,,,,,,,,,,magenta,circle
396.0,8.0,4.0,1.0,3.0,3.0,329.369647999556,2.0,1.0,part_1,,,,,,,,,,,,,magenta,circle
111.0,6.0,2.0,1.0,2.0,2.0,592.1331389999978,2.0,1.0,part_1,,,,,,,,,,,,,orange,square
0.0,5.0,0.0,1.0,3.0,3.0,361.8467979999877,2.0,1.0,part_1,,,,,,,,,,,,,yellow,hexagon
77.0,2.0,2.0,0.0,3.0,3.0,386.5397610002219,2.0,1.0,part_1,,,,,,,,,,,,,gray,flipped triangle
192.0,3.0,3.0,0.0,2.0,2.0,562.0839349999187,2.0,1.0,part_1,,,,,,,,,,,,,white,diamond
381.0,4.0,4.0,0.0,2.0,2.0,363.0964419999145,2.0,1.0,part_1,,,,,,,,,,,,,cyan,cross
46.0,1.0,1.0,0.0,4.0,4.0,384.22351600002,2.0,1.0,part_1,,,,,,,,,,,,,green,I
40.0,5.0,1.0,1.0,1.0,1.0,399.5527019997098,2.0,1.0,part_1,,,,,,,,,,,,,yellow,hexagon
42.0,1.0,1.0,0.0,2.0,2.0,329.2171340003733,2.0,1.0,part_1,,,,,,,,,,,,,green,I
204.0,3.0,3.0,0.0,4.0,4.0,334.9676130001171,2.0,1.0,part_1,,,,,,,,,,,,,white,diamond
203.0,3.0,3.0,0.0,3.0,3.0,504.59604899970145,2.0,1.0,part_1,,,,,,,,,,,,,white,diamond
0.0,1.0,0.0,0.0,2.0,2.0,444.1865710000456,2.0,1.0,part_1,,,,,,,,,,,,,green,I
207.0,7.0,3.0,1.0,1.0,1.0,408.046522999939,2.0,1.0,part_1,,,,,,,,,,,,,blue,triangle
95.0,6.0,2.0,1.0,1.0,1.0,331.47600600023,2.0,1.0,part_1,,,,,,,,,,,,,orange,square
0.0,2.0,0.0,0.0,3.0,3.0,323.3013899998695,2.0,1.0,part_1,,,,,,,,,,,,,gray,flipped triangle
28.0,5.0,1.0,1.0,4.0,4.0,331.5944099999797,2.0,1.0,part_1,,,,,,,,,,,,,yellow,hexagon
35.0,1.0,1.0,0.0,3.0,3.0,444.0339489997313,2.0,1.0,part_1,,,,,,,,,,,,,green,I
210.0,3.0,3.0,0.0,2.0,2.0,310.0941249999778,2.0,1.0,part_1,,,,,,,,,,,,,white,diamond
38.0,5.0,1.0,1.0,2.0,2.0,329.9886609997884,2.0,1.0,part_1,,,,,,,,,,,,,yellow,hexagon
98.0,6.0,2.0,1.0,2.0,2.0,308.7884759997905,2.0,1.0,part_1,,,,,,,,,,,,,orange,square
0.0,4.0,0.0,0.0,3.0,3.0,412.0802219999859,2.0,1.0,part_1,,,,,,,,,,,,,cyan,cross
27.0,5.0,1.0,1.0,1.0,1.0,338.2029930003227,2.0,1.0,part_1,,,,,,,,,,,,,yellow,hexagon
415.0,8.0,4.0,1.0,3.0,3.0,398.2921359997817,2.0,1.0,part_1,,,,,,,,,,,,,magenta,circle
216.0,3.0,3.0,0.0,2.0,2.0,317.9673039999215,2.0,1.0,part_1,,,,,,,,,,,,,white,diamond
0.0,4.0,0.0,0.0,1.0,1.0,462.1960609997586,2.0,1.0,part_1,,,,,,,,,,,,,cyan,cross
0.0,6.0,0.0,1.0,4.0,4.0,399.2247050000514,2.0,1.0,part_1,,,,,,,,,,,,,orange,square
44.0,1.0,1.0,0.0,1.0,1.0,302.5980000002164,2.0,1.0,part_1,,,,,,,,,,,,,green,I
99.0,6.0,2.0,1.0,4.0,4.0,335.6834449996313,2.0,1.0,part_1,,,,,,,,,,,,,orange,square
115.0,2.0,2.0,0.0,4.0,4.0,379.9296610000056,2.0,1.0,part_1,,,,,,,,,,,,,gray,flipped triangle
108.0,2.0,2.0,0.0,4.0,4.0,408.5994370002481,2.0,1.0,part_1,,,,,,,,,,,,,gray,flipped triangle
73.0,1.0,1.0,0.0,2.0,2.0,355.2985769997576,2.0,1.0,part_1,,,,,,,,,,,,,green,I
0.0,6.0,0.0,1.0,1.0,1.0,309.6459420003157,2.0,1.0,part_1,,,,,,,,,,,,,orange,square
66.0,5.0,1.0,1.0,2.0,2.0,383.0350690000159,2.0,1.0,part_1,,,,,,,,,,,,,yellow,hexagon
177.0,7.0,3.0,1.0,1.0,1.0,411.7801359998339,2.0,1.0,part_1,,,,,,,,,,,,,blue,triangle
110.0,2.0,2.0,0.0,1.0,1.0,379.4604690001506,2.0,1.0,part_1,,,,,,,,,,,,,gray,flipped triangle
44.0,5.0,1.0,1.0,3.0,3.0,500.5425310000646,2.0,1.0,part_1,,,,,,,,,,,,,yellow,hexagon
202.0,7.0,3.0,1.0,2.0,2.0,378.0632160001005,2.0,1.0,part_1,,,,,,,,,,,,,blue,triangle
0.0,5.0,0.0,1.0,3.0,3.0,422.4748379997436,2.0,1.0,part_1,,,,,,,,,,,,,yellow,hexagon
32.0,5.0,1.0,1.0,2.0,2.0,405.9197799997491,3.0,1.0,part_1,,,,,,,,,,,,,yellow,hexagon
52.0,1.0,1.0,0.0,1.0,1.0,329.5780090002154,3.0,1.0,part_1,,,,,,,,,,,,,green,I
0.0,1.0,0.0,0.0,2.0,2.0,285.600992000127,3.0,1.0,part_1,,,,,,,,,,,,,green,I
0.0,2.0,0.0,0.0,3.0,3.0,294.3898870003067,3.0,1.0,part_1,,,,,,,,,,,,,gray,flipped triangle
423.0,8.0,4.0,1.0,2.0,2.0,273.6420340002041,3.0,1.0,part_1,,,,,,,,,,,,,magenta,circle
401.0,8.0,4.0,1.0,2.0,2.0,306.8923010000617,3.0,1.0,part_1,,,,,,,,,,,,,magenta,circle
46.0,5.0,1.0,1.0,4.0,4.0,341.3755290002882,3.0,1.0,part_1,,,,,,,,,,,,,yellow,hexagon
52.0,5.0,1.0,1.0,3.0,3.0,322.9145849995802,3.0,1.0,part_1,,,,,,,,,,,,,yellow,hexagon
72.0,5.0,1.0,1.0,4.0,4.0,311.6801119999763,3.0,1.0,part_1,,,,,,,,,,,,,yellow,hexagon
123.0,2.0,2.0,0.0,3.0,3.0,298.3517490001759,3.0,1.0,part_1,,,,,,,,,,,,,gray,flipped triangle
86.0,2.0,2.0,0.0,4.0,4.0,385.3866350000317,3.0,1.0,part_1,,,,,,,,,,,,,gray,flipped triangle
94.0,6.0,2.0,1.0,1.0,1.0,386.4687800000865,3.0,1.0,part_1,,,,,,,,,,,,,orange,square
90.0,6.0,2.0,1.0,4.0,4.0,327.3385770003187,3.0,1.0,part_1,,,,,,,,,,,,,orange,square
44.0,5.0,1.0,1.0,3.0,3.0,396.8865429997095,3.0,1.0,part_1,,,,,,,,,,,,,yellow,hexagon
393.0,8.0,4.0,1.0,2.0,2.0,281.9227519999003,3.0,1.0,part_1,,,,,,,,,,,,,magenta,circle
92.0,6.0,2.0,1.0,4.0,4.0,334.9578329998621,3.0,1.0,part_1,,,,,,,,,,,,,orange,square
192.0,3.0,3.0,0.0,1.0,1.0,326.5589809998346,3.0,1.0,part_1,,,,,,,,,,,,,white,diamond
0.0,1.0,0.0,0.0,4.0,4.0,357.8275780000695,3.0,1.0,part_1,,,,,,,,,,,,,green,I
108.0,6.0,2.0,1.0,3.0,3.0,394.8612630001662,3.0,1.0,part_1,,,,,,,,,,,,,orange,square
414.0,4.0,4.0,0.0,4.0,4.0,435.8543510002164,3.0,1.0,part_1,,,,,,,,,,,,,cyan,cross
0.0,5.0,0.0,1.0,2.0,2.0,483.2928340001672,3.0,1.0,part_1,,,,,,,,,,,,,yellow,hexagon
0.0,7.0,0.0,1.0,1.0,1.0,351.2934039999891,3.0,1.0,part_1,,,,,,,,,,,,,blue,triangle
44.0,1.0,1.0,0.0,4.0,4.0,478.9913750000778,3.0,1.0,part_1,,,,,,,,,,,,,green,I
0.0,2.0,0.0,0.0,2.0,2.0,444.6344179996231,3.0,1.0,part_1,,,,,,,,,,,,,gray,flipped triangle
76.0,2.0,2.0,0.0,3.0,3.0,356.0628560003351,3.0,1.0,part_1,,,,,,,,,,,,,gray,flipped triangle
380.0,8.0,4.0,1.0,1.0,1.0,421.1222429998997,3.0,1.0,part_1,,,,,,,,,,,,,magenta,circle
0.0,3.0,0.0,0.0,2.0,2.0,389.342693999879,3.0,1.0,part_1,,,,,,,,,,,,,white,diamond
95.0,2.0,2.0,0.0,2.0,2.0,399.4709160001548,3.0,1.0,part_1,,,,,,,,,,,,,gray,flipped triangle
0.0,1.0,0.0,0.0,3.0,3.0,328.0966649999755,3.0,1.0,part_1,,,,,,,,,,,,,green,I
46.0,5.0,1.0,1.0,2.0,2.0,383.9500970002518,3.0,1.0,part_1,,,,,,,,,,,,,yellow,hexagon
116.0,6.0,2.0,1.0,2.0,2.0,336.5414859999873,3.0,1.0,part_1,,,,,,,,,,,,,orange,square
57.0,5.0,1.0,1.0,1.0,1.0,312.7017850001721,3.0,1.0,part_1,,,,,,,,,,,,,yellow,hexagon
194.0,3.0,3.0,0.0,2.0,2.0,338.3601719997386,3.0,1.0,part_1,,,,,,,,,,,,,white,diamond
80.0,2.0,2.0,0.0,3.0,3.0,414.8064159999194,3.0,1.0,part_1,,,,,,,,,,,,,gray,flipped triangle
192.0,7.0,3.0,1.0,1.0,1.0,482.9501079998408,3.0,1.0,part_1,,,,,,,,,,,,,blue,triangle
0.0,3.0,0.0,0.0,4.0,4.0,386.0159179998845,3.0,1.0,part_1,,,,,,,,,,,,,white,diamond
69.0,5.0,1.0,1.0,4.0,4.0,419.6656059998531,3.0,1.0,part_1,,,,,,,,,,,,,yellow,hexagon
376.0,4.0,4.0,0.0,2.0,2.0,437.446830999761,3.0,1.0,part_1,,,,,,,,,,,,,cyan,cross
408.0,4.0,4.0,0.0,3.0,3.0,583.550065000054,3.0,1.0,part_1,,,,,,,,,,,,,cyan,cross
0.0,5.0,0.0,1.0,1.0,1.0,335.8859300001313,3.0,1.0,part_1,,,,,,,,,,,,,yellow,hexagon
215.0,3.0,3.0,0.0,4.0,4.0,308.4493879996444,3.0,1.0,part_1,,,,,,,,,,,,,white,diamond
85.0,2.0,2.0,0.0,1.0,1.0,635.9427950001191,3.0,1.0,part_1,,,,,,,,,,,,,gray,flipped triangle
420.0,8.0,4.0,1.0,4.0,4.0,580.7506210003339,3.0,1.0,part_1,,,,,,,,,,,,,magenta,circle
95.0,6.0,2.0,1.0,3.0,3.0,375.5832719998579,3.0,1.0,part_1,,,,,,,,,,,,,orange,square
30.0,5.0,1.0,1.0,4.0,4.0,506.7472799996722,3.0,1.0,part_1,,,,,,,,,,,,,yellow,hexagon
177.0,3.0,3.0,0.0,3.0,3.0,355.0825080001232,3.0,1.0,part_1,,,,,,,,,,,,,white,diamond
214.0,3.0,3.0,0.0,4.0,4.0,298.7847620001957,3.0,1.0,part_1,,,,,,,,,,,,,white,diamond
0.0,1.0,0.0,0.0,4.0,4.0,522.1859770003903,3.0,1.0,part_1,,,,,,,,,,,,,green,I
0.0,8.0,0.0,1.0,2.0,2.0,301.3096919999043,3.0,1.0,part_1,,,,,,,,,,,,,magenta,circle
0.0,6.0,0.0,1.0,1.0,1.0,432.1919459998753,3.0,1.0,part_1,,,,,,,,,,,,,orange,square
0.0,6.0,0.0,1.0,3.0,3.0,288.9837010002338,3.0,1.0,part_1,,,,,,,,,,,,,orange,square
0.0,8.0,0.0,1.0,3.0,3.0,396.0401969998202,3.0,1.0,part_1,,,,,,,,,,,,,magenta,circle
0.0,8.0,0.0,1.0,2.0,2.0,488.796672999797,3.0,1.0,part_1,,,,,,,,,,,,,magenta,circle
425.0,4.0,4.0,0.0,4.0,4.0,363.8082090001262,3.0,1.0,part_1,,,,,,,,,,,,,cyan,cross
216.0,7.0,3.0,1.0,2.0,2.0,497.2267140001349,3.0,1.0,part_1,,,,,,,,,,,,,blue,triangle
30.0,5.0,1.0,1.0,2.0,2.0,474.8073079999813,3.0,1.0,part_1,,,,,,,,,,,,,yellow,hexagon
0.0,1.0,0.0,0.0,1.0,1.0,477.4340910003047,3.0,1.0,part_1,,,,,,,,,,,,,green,I
0.0,6.0,0.0,1.0,2.0,2.0,305.2298419997896,3.0,1.0,part_1,,,,,,,,,,,,,orange,square
41.0,5.0,1.0,1.0,1.0,1.0,429.20975800007,3.0,1.0,part_1,,,,,,,,,,,,,yellow,hexagon
61.0,1.0,1.0,0.0,2.0,2.0,278.4050710001793,3.0,1.0,part_1,,,,,,,,,,,,,green,I
106.0,2.0,2.0,0.0,3.0,3.0,403.3392850001291,3.0,1.0,part_1,,,,,,,,,,,,,gray,flipped triangle
29.0,1.0,1.0,0.0,1.0,1.0,660.5266010001287,3.0,1.0,part_1,,,,,,,,,,,,,green,I
0.0,4.0,0.0,0.0,2.0,2.0,337.4400120001155,3.0,1.0,part_1,,,,,,,,,,,,,cyan,cross
42.0,5.0,1.0,1.0,1.0,1.0,322.7616330000273,3.0,1.0,part_1,,,,,,,,,,,,,yellow,hexagon
0.0,4.0,0.0,0.0,4.0,4.0,739.132570000038,3.0,1.0,part_1,,,,,,,,,,,,,cyan,cross
415.0,4.0,4.0,0.0,1.0,1.0,348.7935850002941,3.0,1.0,part_1,,,,,,,,,,,,,cyan,cross
75.0,1.0,1.0,0.0,2.0,2.0,381.6640639997786,3.0,1.0,part_1,,,,,,,,,,,,,green,I
0.0,4.0,0.0,0.0,2.0,2.0,451.2003019999611,3.0,1.0,part_1,,,,,,,,,,,,,cyan,cross
381.0,4.0,4.0,0.0,2.0,2.0,416.4459549997445,3.0,1.0,part_1,,,,,,,,,,,,,cyan,cross
185.0,7.0,3.0,1.0,3.0,3.0,409.5524900003511,3.0,1.0,part_1,,,,,,,,,,,,,blue,triangle
396.0,4.0,4.0,0.0,4.0,4.0,397.4148080001214,3.0,1.0,part_1,,,,,,,,,,,,,cyan,cross
185.0,7.0,3.0,1.0,2.0,2.0,269.2506139997022,3.0,1.0,part_1,,,,,,,,,,,,,blue,triangle
68.0,5.0,1.0,1.0,1.0,1.0,447.2920099997282,3.0,1.0,part_1,,,,,,,,,,,,,yellow,hexagon
102.0,2.0,2.0,0.0,4.0,4.0,579.2074779997165,3.0,1.0,part_1,,,,,,,,,,,,,gray,flipped triangle
177.0,7.0,3.0,1.0,4.0,4.0,422.7667140003177,3.0,1.0,part_1,,,,,,,,,,,,,blue,triangle
110.0,6.0,2.0,1.0,4.0,4.0,334.8977780001405,3.0,1.0,part_1,,,,,,,,,,,,,orange,square
0.0,3.0,0.0,0.0,3.0,3.0,544.1991020002206,3.0,1.0,part_1,,,,,,,,,,,,,white,diamond
0.0,7.0,0.0,1.0,3.0,3.0,359.0510959998028,3.0,1.0,part_1,,,,,,,,,,,,,blue,triangle
77.0,6.0,2.0,1.0,4.0,4.0,339.1634600002362,3.0,1.0,part_1,,,,,,,,,,,,,orange,square
207.0,3.0,3.0,0.0,3.0,3.0,359.409099000004,3.0,1.0,part_1,,,,,,,,,,,,,white,diamond
77.0,6.0,2.0,1.0,3.0,3.0,462.321478999911,3.0,1.0,part_1,,,,,,,,,,,,,orange,square
28.0,1.0,1.0,0.0,3.0,3.0,456.6520449998279,3.0,1.0,part_1,,,,,,,,,,,,,green,I
86.0,6.0,2.0,1.0,3.0,3.0,284.0998360002231,3.0,1.0,part_1,,,,,,,,,,,,,orange,square
423.0,8.0,4.0,1.0,3.0,3.0,270.643199999995,3.0,1.0,part_1,,,,,,,,,,,,,magenta,circle
57.0,1.0,1.0,0.0,1.0,1.0,459.7417810000479,3.0,1.0,part_1,,,,,,,,,,,,,green,I
97.0,6.0,2.0,1.0,1.0,1.0,434.17325099972,3.0,1.0,part_1,,,,,,,,,,,,,orange,square
0.0,3.0,0.0,0.0,4.0,4.0,422.1920899999531,3.0,1.0,part_1,,,,,,,,,,,,,white,diamond
211.0,7.0,3.0,1.0,3.0,3.0,347.9122159997132,3.0,1.0,part_1,,,,,,,,,,,,,blue,triangle
0.0,8.0,0.0,1.0,2.0,2.0,383.1071040003735,3.0,1.0,part_1,,,,,,,,,,,,,magenta,circle
0.0,7.0,0.0,1.0,4.0,4.0,350.170584999887,3.0,1.0,part_1,,,,,,,,,,,,,blue,triangle
92.0,6.0,2.0,1.0,3.0,3.0,309.707747000175,3.0,1.0,part_1,,,,,,,,,,,,,orange,square
0.0,3.0,0.0,0.0,3.0,3.0,359.5269849997748,3.0,1.0,part_1,,,,,,,,,,,,,white,diamond
218.0,3.0,3.0,0.0,3.0,3.0,436.85959000004,3.0,1.0,part_1,,,,,,,,,,,,,white,diamond
218.0,7.0,3.0,1.0,2.0,2.0,364.2389799997545,3.0,1.0,part_1,,,,,,,,,,,,,blue,triangle
73.0,5.0,1.0,1.0,1.0,1.0,400.7063419999213,3.0,1.0,part_1,,,,,,,,,,,,,yellow,hexagon
200.0,3.0,3.0,0.0,2.0,2.0,400.9095219998926,3.0,1.0,part_1,,,,,,,,,,,,,white,diamond
121.0,2.0,2.0,0.0,1.0,1.0,442.3196090001511,3.0,1.0,part_1,,,,,,,,,,,,,gray,flipped triangle
45.0,1.0,1.0,0.0,1.0,1.0,377.8172419997645,3.0,1.0,part_1,,,,,,,,,,,,,green,I
398.0,8.0,4.0,1.0,1.0,1.0,583.3281539999007,3.0,1.0,part_1,,,,,,,,,,,,,magenta,circle
410.0,4.0,4.0,0.0,4.0,4.0,393.1986120001056,3.0,1.0,part_1,,,,,,,,,,,,,cyan,cross
35.0,5.0,1.0,1.0,3.0,3.0,395.5531689998679,4.0,1.0,part_1,,,,,,,,,,,,,yellow,hexagon
395.0,4.0,4.0,0.0,3.0,3.0,341.7410510000991,4.0,1.0,part_1,,,,,,,,,,,,,cyan,cross
68.0,1.0,1.0,0.0,3.0,3.0,345.7303149998552,4.0,1.0,part_1,,,,,,,,,,,,,green,I
409.0,4.0,4.0,0.0,3.0,3.0,327.6908029997685,4.0,1.0,part_1,,,,,,,,,,,,,cyan,cross
30.0,1.0,1.0,0.0,4.0,4.0,296.1266160000377,4.0,1.0,part_1,,,,,,,,,,,,,green,I
75.0,5.0,1.0,1.0,3.0,3.0,311.8227249997289,4.0,1.0,part_1,,,,,,,,,,,,,yellow,hexagon
175.0,3.0,3.0,0.0,2.0,2.0,361.3942330002828,4.0,1.0,part_1,,,,,,,,,,,,,white,diamond
412.0,4.0,4.0,0.0,1.0,1.0,395.0905189999503,4.0,1.0,part_1,,,,,,,,,,,,,cyan,cross
0.0,2.0,0.0,0.0,4.0,4.0,421.04574699988,4.0,1.0,part_1,,,,,,,,,,,,,gray,flipped triangle
40.0,1.0,1.0,0.0,4.0,4.0,423.0449830001817,4.0,1.0,part_1,,,,,,,,,,,,,green,I
0.0,1.0,0.0,0.0,1.0,1.0,492.10296599994757,4.0,1.0,part_1,,,,,,,,,,,,,green,I
182.0,3.0,3.0,0.0,1.0,1.0,395.0508010002522,4.0,1.0,part_1,,,,,,,,,,,,,white,diamond
124.0,6.0,2.0,1.0,3.0,3.0,360.43126200002,4.0,1.0,part_1,,,,,,,,,,,,,orange,square
76.0,6.0,2.0,1.0,2.0,2.0,400.4736510000839,4.0,1.0,part_1,,,,,,,,,,,,,orange,square
179.0,3.0,3.0,0.0,1.0,1.0,412.6116289999118,4.0,1.0,part_1,,,,,,,,,,,,,white,diamond
27.0,1.0,1.0,0.0,4.0,4.0,384.3118660001892,4.0,1.0,part_1,,,,,,,,,,,,,green,I
185.0,3.0,3.0,0.0,1.0,1.0,350.436045999686,4.0,1.0,part_1,,,,,,,,,,,,,white,diamond
114.0,2.0,2.0,0.0,2.0,2.0,282.1881979998579,4.0,1.0,part_1,,,,,,,,,,,,,gray,flipped triangle
0.0,1.0,0.0,0.0,3.0,3.0,296.4035119998698,4.0,1.0,part_1,,,,,,,,,,,,,green,I
219.0,3.0,3.0,0.0,1.0,1.0,303.6182349997034,4.0,1.0,part_1,,,,,,,,,,,,,white,diamond
69.0,1.0,1.0,0.0,4.0,4.0,720.9620710000308,4.0,1.0,part_1,,,,,,,,,,,,,green,I
0.0,5.0,0.0,1.0,2.0,2.0,379.3733970001085,4.0,1.0,part_1,,,,,,,,,,,,,yellow,hexagon
30.0,1.0,1.0,0.0,3.0,3.0,397.2734929998296,4.0,1.0,part_1,,,,,,,,,,,,,green,I
0.0,2.0,0.0,0.0,1.0,1.0,392.0572490001177,4.0,1.0,part_1,,,,,,,,,,,,,gray,flipped triangle
81.0,6.0,2.0,1.0,3.0,3.0,416.9401120002476,4.0,1.0,part_1,,,,,,,,,,,,,orange,square
0.0,6.0,0.0,1.0,4.0,4.0,470.6509309999092,4.0,1.0,part_1,,,,,,,,,,,,,orange,square
0.0,2.0,0.0,0.0,2.0,2.0,338.0437820001134,4.0,1.0,part_1,,,,,,,,,,,,,gray,flipped triangle
0.0,4.0,0.0,0.0,3.0,3.0,422.6656220002951,4.0,1.0,part_1,,,,,,,,,,,,,cyan,cross
204.0,3.0,3.0,0.0,3.0,3.0,383.7588280002819,4.0,1.0,part_1,,,,,,,,,,,,,white,diamond
61.0,5.0,1.0,1.0,3.0,3.0,412.6993240001866,4.0,1.0,part_1,,,,,,,,,,,,,yellow,hexagon
92.0,6.0,2.0,1.0,2.0,2.0,356.56627499975,4.0,1.0,part_1,,,,,,,,,,,,,orange,square
419.0,8.0,4.0,1.0,4.0,4.0,387.77591300004127,4.0,2.0,part_1,,,,,,,,,,,,,magenta,circle
0.0,8.0,0.0,1.0,4.0,4.0,288.2469139999557,4.0,1.0,part_1,,,,,,,,,,,,,magenta,circle
77.0,2.0,2.0,0.0,1.0,1.0,374.4090310001411,4.0,2.0,part_1,,,,,,,,,,,,,gray,flipped triangle
379.0,8.0,4.0,1.0,2.0,2.0,289.1394319999563,4.0,1.0,part_1,,,,,,,,,,,,,magenta,circle
212.0,3.0,3.0,0.0,4.0,4.0,369.0339110003151,4.0,1.0,part_1,,,,,,,,,,,,,white,diamond
401.0,4.0,4.0,0.0,1.0,1.0,362.9208930001368,4.0,1.0,part_1,,,,,,,,,,,,,cyan,cross
114.0,6.0,2.0,1.0,2.0,2.0,299.9074409999593,4.0,1.0,part_1,,,,,,,,,,,,,orange,square
413.0,4.0,4.0,0.0,1.0,1.0,323.9209349999328,4.0,1.0,part_1,,,,,,,,,,,,,cyan,cross
402.0,4.0,4.0,0.0,2.0,2.0,325.5316929999026,4.0,1.0,part_1,,,,,,,,,,,,,cyan,cross
203.0,7.0,3.0,1.0,4.0,4.0,306.3945100002456,4.0,1.0,part_1,,,,,,,,,,,,,blue,triangle
92.0,2.0,2.0,0.0,3.0,3.0,413.0308129997502,4.0,1.0,part_1,,,,,,,,,,,,,gray,flipped triangle
75.0,1.0,1.0,0.0,3.0,3.0,316.711106999719,4.0,1.0,part_1,,,,,,,,,,,,,green,I
398.0,4.0,4.0,0.0,3.0,3.0,310.0495859998773,4.0,1.0,part_1,,,,,,,,,,,,,cyan,cross
214.0,7.0,3.0,1.0,3.0,3.0,288.7017689999993,4.0,1.0,part_1,,,,,,,,,,,,,blue,triangle
204.0,7.0,3.0,1.0,4.0,4.0,283.4574530002101,4.0,1.0,part_1,,,,,,,,,,,,,blue,triangle
103.0,6.0,2.0,1.0,2.0,2.0,470.5713509997622,4.0,1.0,part_1,,,,,,,,,,,,,orange,square
92.0,2.0,2.0,0.0,2.0,2.0,366.3118350000331,4.0,1.0,part_1,,,,,,,,,,,,,gray,flipped triangle
0.0,8.0,0.0,1.0,3.0,3.0,326.0293340003954,4.0,1.0,part_1,,,,,,,,,,,,,magenta,circle
389.0,8.0,4.0,1.0,1.0,1.0,366.7794449997927,4.0,1.0,part_1,,,,,,,,,,,,,magenta,circle
423.0,4.0,4.0,0.0,2.0,2.0,366.3432670000475,4.0,1.0,part_1,,,,,,,,,,,,,cyan,cross
99.0,2.0,2.0,0.0,4.0,4.0,386.238940000112,4.0,1.0,part_1,,,,,,,,,,,,,gray,flipped triangle
221.0,3.0,3.0,0.0,1.0,1.0,469.2799049998939,4.0,1.0,part_1,,,,,,,,,,,,,white,diamond
123.0,2.0,2.0,0.0,3.0,3.0,374.7647810000671,4.0,1.0,part_1,,,,,,,,,,,,,gray,flipped triangle
116.0,2.0,2.0,0.0,1.0,1.0,453.3408180000151,4.0,1.0,part_1,,,,,,,,,,,,,gray,flipped triangle
109.0,2.0,2.0,0.0,4.0,4.0,429.3782150002698,4.0,1.0,part_1,,,,,,,,,,,,,gray,flipped triangle
0.0,6.0,0.0,1.0,4.0,4.0,380.4313719997481,4.0,1.0,part_1,,,,,,,,,,,,,orange,square
381.0,8.0,4.0,1.0,1.0,1.0,341.6403390001505,4.0,1.0,part_1,,,,,,,,,,,,,magenta,circle
189.0,3.0,3.0,0.0,4.0,4.0,348.7306900001385,4.0,1.0,part_1,,,,,,,,,,,,,white,diamond
189.0,7.0,3.0,1.0,3.0,3.0,508.7215619996641,4.0,1.0,part_1,,,,,,,,,,,,,blue,triangle
211.0,3.0,3.0,0.0,3.0,3.0,339.0539580000222,4.0,1.0,part_1,,,,,,,,,,,,,white,diamond
0.0,7.0,0.0,1.0,3.0,3.0,328.7321319999137,4.0,1.0,part_1,,,,,,,,,,,,,blue,triangle
375.0,8.0,4.0,1.0,1.0,1.0,352.9177099999288,4.0,1.0,part_1,,,,,,,,,,,,,magenta,circle
0.0,8.0,0.0,1.0,4.0,4.0,392.2638419999202,4.0,1.0,part_1,,,,,,,,,,,,,magenta,circle
83.0,6.0,2.0,1.0,3.0,3.0,305.0718350000352,4.0,1.0,part_1,,,,,,,,,,,,,orange,square
92.0,6.0,2.0,1.0,3.0,3.0,315.1643699998203,4.0,1.0,part_1,,,,,,,,,,,,,orange,square
27.0,1.0,1.0,0.0,4.0,4.0,325.702432000071,4.0,1.0,part_1,,,,,,,,,,,,,green,I
377.0,8.0,4.0,1.0,4.0,4.0,326.7847760002951,4.0,1.0,part_1,,,,,,,,,,,,,magenta,circle
412.0,8.0,4.0,1.0,3.0,3.0,355.7318769999256,4.0,1.0,part_1,,,,,,,,,,,,,magenta,circle
40.0,1.0,1.0,0.0,1.0,1.0,429.4922100002623,4.0,1.0,part_1,,,,,,,,,,,,,green,I
102.0,6.0,2.0,1.0,4.0,4.0,297.8294449999339,4.0,1.0,part_1,,,,,,,,,,,,,orange,square
404.0,8.0,4.0,1.0,3.0,3.0,335.7615499999156,4.0,1.0,part_1,,,,,,,,,,,,,magenta,circle
384.0,8.0,4.0,1.0,4.0,4.0,371.4118650000273,4.0,2.0,part_1,,,,,,,,,,,,,magenta,circle
207.0,3.0,3.0,0.0,3.0,3.0,536.2397440003406,4.0,1.0,part_1,,,,,,,,,,,,,white,diamond
77.0,6.0,2.0,1.0,1.0,1.0,749.3762600001901,4.0,1.0,part_1,,,,,,,,,,,,,orange,square
81.0,2.0,2.0,0.0,2.0,2.0,720.6271680001919,4.0,1.0,part_1,,,,,,,,,,,,,gray,flipped triangle
204.0,7.0,3.0,1.0,4.0,4.0,350.3006310002092,4.0,1.0,part_1,,,,,,,,,,,,,blue,triangle
410.0,8.0,4.0,1.0,1.0,1.0,479.2858539999542,4.0,1.0,part_1,,,,,,,,,,,,,magenta,circle
28.0,1.0,1.0,0.0,2.0,2.0,388.8056820001111,4.0,1.0,part_1,,,,,,,,,,,,,green,I
207.0,7.0,3.0,1.0,2.0,2.0,348.1559520000701,4.0,1.0,part_1,,,,,,,,,,,,,blue,triangle
0.0,7.0,0.0,1.0,2.0,2.0,319.49227899986,4.0,1.0,part_1,,,,,,,,,,,,,blue,triangle
85.0,6.0,2.0,1.0,2.0,2.0,355.167161999816,4.0,1.0,part_1,,,,,,,,,,,,,orange,square
386.0,4.0,4.0,0.0,1.0,1.0,324.5272670001213,4.0,1.0,part_1,,,,,,,,,,,,,cyan,cross
0.0,4.0,0.0,0.0,1.0,1.0,414.1009919999305,4.0,1.0,part_1,,,,,,,,,,,,,cyan,cross
398.0,8.0,4.0,1.0,3.0,3.0,330.1331519996893,4.0,1.0,part_1,,,,,,,,,,,,,magenta,circle
389.0,8.0,4.0,1.0,1.0,1.0,326.2400519997754,4.0,1.0,part_1,,,,,,,,,,,,,magenta,circle
52.0,5.0,1.0,1.0,3.0,3.0,527.2021979999408,4.0,1.0,part_1,,,,,,,,,,,,,yellow,hexagon
177.0,3.0,3.0,0.0,1.0,1.0,352.761886999815,4.0,1.0,part_1,,,,,,,,,,,,,white,diamond
183.0,7.0,3.0,1.0,4.0,4.0,454.6861590001754,4.0,1.0,part_1,,,,,,,,,,,,,blue,triangle
413.0,8.0,4.0,1.0,2.0,2.0,400.6704890002766,4.0,1.0,part_1,,,,,,,,,,,,,magenta,circle
398.0,4.0,4.0,0.0,1.0,1.0,369.7829879997698,4.0,1.0,part_1,,,,,,,,,,,,,cyan,cross
55.0,1.0,1.0,0.0,3.0,3.0,349.7510170000169,4.0,1.0,part_1,,,,,,,,,,,,,green,I
99.0,6.0,2.0,1.0,2.0,2.0,349.3757410001308,4.0,1.0,part_1,,,,,,,,,,,,,orange,square
121.0,6.0,2.0,1.0,1.0,1.0,324.0117529999224,4.0,1.0,part_1,,,,,,,,,,,,,orange,square
189.0,7.0,3.0,1.0,1.0,1.0,518.1271920000654,4.0,1.0,part_1,,,,,,,,,,,,,blue,triangle
182.0,7.0,3.0,1.0,3.0,3.0,432.7371669996864,4.0,1.0,part_1,,,,,,,,,,,,,blue,triangle
205.0,7.0,3.0,1.0,1.0,1.0,328.8816859999315,4.0,1.0,part_1,,,,,,,,,,,,,blue,triangle
420.0,8.0,4.0,1.0,2.0,2.0,464.5113500000661,4.0,1.0,part_1,,,,,,,,,,,,,magenta,circle
0.0,4.0,0.0,0.0,1.0,1.0,613.3052270001826,4.0,1.0,part_1,,,,,,,,,,,,,cyan,cross
79.0,2.0,2.0,0.0,4.0,4.0,360.5571640000562,4.0,2.0,part_1,,,,,,,,,,,,,gray,flipped triangle
0.0,2.0,2.0,0.0,6.0,6.0,460.528857999634,1.0,0.0,part_2,go,250.0,250.0,1.0,,,,,,,,,gray,flipped triangle
0.0,5.0,1.0,1.0,5.0,5.0,343.9251749996401,1.0,0.0,part_2,stop,250.0,250.0,3.0,,,,,,,,,yellow,hexagon
0.0,6.0,2.0,1.0,6.0,0.0,0.0,1.0,0.0,part_2,stop,200.0,250.0,4.0,,,,,,,,,orange,square
0.0,5.0,1.0,1.0,5.0,0.0,0.0,1.0,0.0,part_2,stop,200.0,300.0,4.0,,,,,,,,,yellow,hexagon
0.0,4.0,4.0,0.0,6.0,6.0,465.4808180002874,1.0,0.0,part_2,go,250.0,300.0,1.0,,,,,,,,,cyan,cross
0.0,2.0,2.0,0.0,5.0,5.0,413.8714540004002,1.0,0.0,part_2,go,250.0,300.0,1.0,,,,,,,,,gray,flipped triangle
0.0,2.0,2.0,0.0,5.0,5.0,344.8742830005358,1.0,0.0,part_2,go,250.0,300.0,1.0,,,,,,,,,gray,flipped triangle
0.0,6.0,2.0,1.0,5.0,5.0,444.2077660005452,1.0,0.0,part_2,stop,250.0,300.0,3.0,,,,,,,,,orange,square
0.0,8.0,4.0,1.0,5.0,5.0,746.068326000568,1.0,0.0,part_2,go,200.0,300.0,1.0,,,,,,,,,magenta,circle
0.0,2.0,2.0,0.0,5.0,5.0,468.3115509997151,1.0,0.0,part_2,go,200.0,300.0,1.0,,,,,,,,,gray,flipped triangle
0.0,8.0,4.0,1.0,5.0,0.0,0.0,1.0,0.0,part_2,stop,200.0,300.0,4.0,,,,,,,,,magenta,circle
0.0,6.0,2.0,1.0,6.0,0.0,0.0,1.0,0.0,part_2,stop,250.0,300.0,4.0,,,,,,,,,orange,square
0.0,2.0,2.0,0.0,5.0,5.0,670.3451990006215,1.0,0.0,part_2,go,250.0,350.0,1.0,,,,,,,,,gray,flipped triangle
0.0,5.0,1.0,1.0,5.0,0.0,0.0,1.0,0.0,part_2,stop,250.0,350.0,4.0,,,,,,,,,yellow,hexagon
0.0,2.0,2.0,0.0,5.0,5.0,633.5013130001244,1.0,0.0,part_2,go,300.0,350.0,1.0,,,,,,,,,gray,flipped triangle
0.0,4.0,4.0,0.0,5.0,5.0,706.3283870002124,1.0,0.0,part_2,go,300.0,350.0,1.0,,,,,,,,,cyan,cross
0.0,8.0,4.0,1.0,6.0,0.0,0.0,1.0,0.0,part_2,stop,300.0,350.0,4.0,,,,,,,,,magenta,circle
0.0,8.0,4.0,1.0,5.0,5.0,722.6591580001696,1.0,0.0,part_2,go,300.0,400.0,1.0,,,,,,,,,magenta,circle
0.0,2.0,2.0,0.0,6.0,6.0,742.1151810003721,1.0,0.0,part_2,go,300.0,400.0,1.0,,,,,,,,,gray,flipped triangle
0.0,7.0,3.0,1.0,6.0,6.0,436.6779919992041,1.0,0.0,part_2,stop,300.0,400.0,3.0,,,,,,,,,blue,triangle
0.0,6.0,2.0,1.0,6.0,6.0,732.8104909993272,1.0,0.0,part_2,go,300.0,350.0,1.0,,,,,,,,,orange,square
0.0,2.0,2.0,0.0,5.0,5.0,574.9886670000706,1.0,0.0,part_2,go,300.0,350.0,1.0,,,,,,,,,gray,flipped triangle
0.0,5.0,1.0,1.0,5.0,6.0,813.8959339994472,1.0,0.0,part_2,go,300.0,350.0,2.0,,,,,,,,,yellow,hexagon
0.0,7.0,3.0,1.0,5.0,0.0,0.0,1.0,0.0,part_2,stop,300.0,350.0,4.0,,,,,,,,,blue,triangle
0.0,5.0,1.0,1.0,5.0,5.0,711.1556459994972,1.0,0.0,part_2,go,350.0,350.0,1.0,,,,,,,,,yellow,hexagon
0.0,3.0,3.0,0.0,6.0,6.0,650.5248149996987,1.0,0.0,part_2,go,350.0,350.0,1.0,,,,,,,,,white,diamond
0.0,1.0,1.0,0.0,6.0,6.0,896.441218000291,1.0,0.0,part_2,go,350.0,350.0,1.0,,,,,,,,,green,I
0.0,4.0,4.0,0.0,5.0,5.0,1071.834076000414,1.0,0.0,part_2,go,350.0,350.0,1.0,,,,,,,,,cyan,cross
0.0,7.0,3.0,1.0,5.0,0.0,0.0,1.0,0.0,part_2,stop,350.0,350.0,4.0,,,,,,,,,blue,triangle
0.0,5.0,1.0,1.0,5.0,0.0,0.0,1.0,0.0,part_2,stop,400.0,350.0,4.0,,,,,,,,,yellow,hexagon
0.0,3.0,3.0,0.0,5.0,5.0,655.7553180000468,1.0,0.0,part_2,go,450.0,350.0,1.0,,,,,,,,,white,diamond
0.0,2.0,2.0,0.0,5.0,5.0,679.6496950000801,1.0,0.0,part_2,go,450.0,350.0,1.0,,,,,,,,,gray,flipped triangle
0.0,8.0,4.0,1.0,6.0,0.0,0.0,1.0,0.0,part_2,stop,450.0,350.0,4.0,,,,,,,,,magenta,circle
0.0,5.0,1.0,1.0,5.0,0.0,0.0,1.0,0.0,part_2,stop,450.0,400.0,4.0,,,,,,,,,yellow,hexagon
0.0,8.0,4.0,1.0,5.0,0.0,0.0,1.0,0.0,part_2,stop,500.0,400.0,4.0,,,,,,,,,magenta,circle
0.0,2.0,2.0,0.0,6.0,6.0,998.486194999714,1.0,0.0,part_2,go,550.0,400.0,1.0,,,,,,,,,gray,flipped triangle
0.0,6.0,2.0,1.0,5.0,5.0,594.6746089994122,2.0,0.0,part_2,stop,550.0,400.0,3.0,,,,,,,,,orange,square
0.0,5.0,1.0,1.0,6.0,6.0,584.3721370001731,2.0,0.0,part_2,stop,500.0,400.0,3.0,,,,,,,,,yellow,hexagon
0.0,6.0,2.0,1.0,5.0,5.0,645.5535740005871,2.0,0.0,part_2,stop,500.0,350.0,3.0,,,,,,,,,orange,square
0.0,1.0,1.0,0.0,6.0,6.0,639.4407380003031,2.0,0.0,part_2,go,450.0,350.0,1.0,,,,,,,,,green,I
0.0,4.0,4.0,0.0,6.0,6.0,695.7786289995056,2.0,0.0,part_2,go,450.0,350.0,1.0,,,,,,,,,cyan,cross
0.0,5.0,1.0,1.0,6.0,0.0,0.0,2.0,0.0,part_2,stop,450.0,350.0,4.0,,,,,,,,,yellow,hexagon
0.0,3.0,3.0,0.0,5.0,5.0,501.88687999980175,2.0,0.0,part_2,go,450.0,400.0,1.0,,,,,,,,,white,diamond
0.0,3.0,3.0,0.0,5.0,5.0,601.3345900000786,2.0,0.0,part_2,go,450.0,400.0,1.0,,,,,,,,,white,diamond
0.0,6.0,2.0,1.0,6.0,0.0,0.0,2.0,0.0,part_2,stop,450.0,400.0,4.0,,,,,,,,,orange,square
0.0,1.0,1.0,0.0,6.0,6.0,793.2013150002604,2.0,0.0,part_2,go,450.0,450.0,1.0,,,,,,,,,green,I
0.0,2.0,2.0,0.0,6.0,6.0,639.2298979999396,2.0,0.0,part_2,go,450.0,450.0,1.0,,,,,,,,,gray,flipped triangle
0.0,5.0,1.0,1.0,5.0,0.0,0.0,2.0,0.0,part_2,stop,450.0,450.0,4.0,,,,,,,,,yellow,hexagon
0.0,8.0,4.0,1.0,6.0,0.0,0.0,2.0,0.0,part_2,stop,500.0,450.0,4.0,,,,,,,,,magenta,circle
0.0,3.0,3.0,0.0,5.0,5.0,963.0372589999752,2.0,0.0,part_2,go,500.0,500.0,1.0,,,,,,,,,white,diamond
0.0,5.0,1.0,1.0,6.0,0.0,0.0,2.0,0.0,part_2,stop,500.0,500.0,4.0,,,,,,,,,yellow,hexagon
0.0,6.0,2.0,1.0,5.0,0.0,0.0,2.0,0.0,part_2,stop,500.0,550.0,4.0,,,,,,,,,orange,square
0.0,2.0,2.0,0.0,6.0,6.0,437.0654820004347,2.0,0.0,part_2,go,550.0,550.0,1.0,,,,,,,,,gray,flipped triangle
0.0,1.0,1.0,0.0,6.0,6.0,610.6182100002115,2.0,0.0,part_2,go,550.0,550.0,1.0,,,,,,,,,green,I
0.0,3.0,3.0,0.0,6.0,6.0,693.8691999994262,2.0,0.0,part_2,go,550.0,550.0,1.0,,,,,,,,,white,diamond
0.0,4.0,4.0,0.0,5.0,5.0,609.7717289994762,2.0,0.0,part_2,go,550.0,550.0,1.0,,,,,,,,,cyan,cross
0.0,4.0,4.0,0.0,6.0,6.0,583.6144229997444,2.0,0.0,part_2,go,550.0,550.0,1.0,,,,,,,,,cyan,cross
0.0,4.0,4.0,0.0,6.0,6.0,607.97127800015,2.0,0.0,part_2,go,550.0,550.0,1.0,,,,,,,,,cyan,cross
0.0,5.0,1.0,1.0,6.0,0.0,0.0,2.0,0.0,part_2,stop,550.0,550.0,4.0,,,,,,,,,yellow,hexagon
0.0,3.0,3.0,0.0,5.0,5.0,552.3451249991922,2.0,0.0,part_2,go,550.0,600.0,1.0,,,,,,,,,white,diamond
0.0,7.0,3.0,1.0,6.0,6.0,671.9802229999914,2.0,0.0,part_2,go,550.0,600.0,1.0,,,,,,,,,blue,triangle
0.0,2.0,2.0,0.0,5.0,5.0,584.4078999998601,2.0,0.0,part_2,go,550.0,600.0,1.0,,,,,,,,,gray,flipped triangle
0.0,4.0,4.0,0.0,6.0,6.0,1444.7364110001215,2.0,0.0,part_2,go,550.0,600.0,1.0,,,,,,,,,cyan,cross
0.0,6.0,2.0,1.0,6.0,6.0,572.245015999215,2.0,0.0,part_2,go,550.0,600.0,1.0,,,,,,,,,orange,square
0.0,3.0,3.0,0.0,5.0,5.0,574.6079050004482,2.0,0.0,part_2,go,550.0,600.0,1.0,,,,,,,,,white,diamond
0.0,1.0,1.0,0.0,6.0,6.0,620.0878660001763,2.0,0.0,part_2,go,550.0,600.0,1.0,,,,,,,,,green,I
0.0,1.0,1.0,0.0,6.0,6.0,409.4084810003551,2.0,0.0,part_2,go,550.0,600.0,1.0,,,,,,,,,green,I
0.0,4.0,4.0,0.0,5.0,5.0,543.7318900003447,2.0,0.0,part_2,go,550.0,600.0,1.0,,,,,,,,,cyan,cross
0.0,8.0,4.0,1.0,6.0,6.0,712.8403569995498,2.0,0.0,part_2,stop,550.0,600.0,3.0,,,,,,,,,magenta,circle
0.0,3.0,3.0,0.0,5.0,5.0,665.3796609998608,2.0,0.0,part_2,go,550.0,550.0,1.0,,,,,,,,,white,diamond
0.0,3.0,3.0,0.0,5.0,5.0,441.8800090006698,2.0,0.0,part_2,go,550.0,550.0,1.0,,,,,,,,,white,diamond
0.0,7.0,3.0,1.0,5.0,5.0,610.0877700000638,2.0,0.0,part_2,stop,550.0,550.0,3.0,,,,,,,,,blue,triangle
0.0,2.0,2.0,0.0,6.0,6.0,376.3370280003073,3.0,0.0,part_2,go,500.0,550.0,1.0,,,,,,,,,gray,flipped triangle
0.0,6.0,2.0,1.0,5.0,5.0,475.4992500002117,3.0,0.0,part_2,stop,500.0,550.0,3.0,,,,,,,,,orange,square
0.0,6.0,2.0,1.0,6.0,6.0,705.9776629994303,3.0,0.0,part_2,go,450.0,550.0,1.0,,,,,,,,,orange,square
0.0,6.0,2.0,1.0,6.0,6.0,431.858259999899,3.0,0.0,part_2,stop,450.0,550.0,3.0,,,,,,,,,orange,square
0.0,5.0,1.0,1.0,6.0,6.0,758.5596460003217,3.0,0.0,part_2,go,450.0,500.0,1.0,,,,,,,,,yellow,hexagon
0.0,3.0,3.0,0.0,6.0,6.0,814.5383740002217,3.0,0.0,part_2,go,450.0,500.0,1.0,,,,,,,,,white,diamond
0.0,7.0,3.0,1.0,6.0,6.0,499.1608330001327,3.0,0.0,part_2,stop,450.0,500.0,3.0,,,,,,,,,blue,triangle
0.0,3.0,3.0,0.0,5.0,5.0,517.9091859999971,3.0,0.0,part_2,go,450.0,450.0,1.0,,,,,,,,,white,diamond
0.0,4.0,4.0,0.0,5.0,5.0,495.4023569998753,3.0,0.0,part_2,go,450.0,450.0,1.0,,,,,,,,,cyan,cross
0.0,8.0,4.0,1.0,6.0,6.0,600.1850419997936,3.0,0.0,part_2,stop,450.0,450.0,3.0,,,,,,,,,magenta,circle
0.0,7.0,3.0,1.0,6.0,0.0,0.0,3.0,0.0,part_2,stop,450.0,400.0,4.0,,,,,,,,,blue,triangle
0.0,4.0,4.0,0.0,5.0,5.0,814.0203410002869,3.0,0.0,part_2,go,450.0,450.0,1.0,,,,,,,,,cyan,cross
0.0,7.0,3.0,1.0,5.0,0.0,0.0,3.0,0.0,part_2,stop,450.0,450.0,4.0,,,,,,,,,blue,triangle
0.0,6.0,2.0,1.0,5.0,0.0,0.0,3.0,0.0,part_2,stop,500.0,450.0,4.0,,,,,,,,,orange,square
0.0,1.0,1.0,0.0,5.0,5.0,660.4767130002074,3.0,0.0,part_2,go,550.0,450.0,1.0,,,,,,,,,green,I
0.0,6.0,2.0,1.0,6.0,6.0,798.3280520002154,3.0,0.0,part_2,go,550.0,450.0,1.0,,,,,,,,,orange,square
0.0,1.0,1.0,0.0,5.0,5.0,814.4666409998536,3.0,0.0,part_2,go,550.0,450.0,1.0,,,,,,,,,green,I
0.0,7.0,3.0,1.0,6.0,0.0,0.0,3.0,0.0,part_2,stop,550.0,450.0,4.0,,,,,,,,,blue,triangle
0.0,2.0,2.0,0.0,6.0,6.0,726.3426059998892,3.0,0.0,part_2,go,550.0,500.0,1.0,,,,,,,,,gray,flipped triangle
0.0,3.0,3.0,0.0,5.0,5.0,592.4619500001427,3.0,0.0,part_2,go,550.0,500.0,1.0,,,,,,,,,white,diamond
0.0,5.0,1.0,1.0,5.0,5.0,695.5551450000712,3.0,0.0,part_2,stop,550.0,500.0,3.0,,,,,,,,,yellow,hexagon
0.0,1.0,1.0,0.0,5.0,5.0,762.8882210001393,3.0,0.0,part_2,go,500.0,500.0,1.0,,,,,,,,,green,I
0.0,8.0,4.0,1.0,6.0,6.0,601.2275410002985,3.0,0.0,part_2,stop,500.0,500.0,3.0,,,,,,,,,magenta,circle
0.0,5.0,1.0,1.0,6.0,0.0,0.0,3.0,0.0,part_2,stop,500.0,450.0,4.0,,,,,,,,,yellow,hexagon
0.0,2.0,2.0,0.0,6.0,6.0,680.0417080003172,3.0,0.0,part_2,go,500.0,500.0,1.0,,,,,,,,,gray,flipped triangle
0.0,1.0,1.0,0.0,6.0,6.0,682.4525029996948,3.0,0.0,part_2,go,500.0,500.0,1.0,,,,,,,,,green,I
0.0,2.0,2.0,0.0,5.0,5.0,716.4476040006775,3.0,0.0,part_2,go,500.0,500.0,1.0,,,,,,,,,gray,flipped triangle
0.0,5.0,1.0,1.0,6.0,6.0,325.4076829998666,3.0,0.0,part_2,stop,500.0,500.0,3.0,,,,,,,,,yellow,hexagon
0.0,1.0,1.0,0.0,5.0,5.0,798.6932779995186,3.0,0.0,part_2,go,500.0,450.0,1.0,,,,,,,,,green,I
0.0,5.0,1.0,1.0,5.0,5.0,821.6488749994824,3.0,0.0,part_2,go,500.0,450.0,1.0,,,,,,,,,yellow,hexagon
0.0,4.0,4.0,0.0,6.0,6.0,862.8049900007682,3.0,0.0,part_2,go,500.0,450.0,1.0,,,,,,,,,cyan,cross
0.0,6.0,2.0,1.0,5.0,5.0,613.2584719998704,3.0,0.0,part_2,go,500.0,450.0,1.0,,,,,,,,,orange,square
0.0,7.0,3.0,1.0,5.0,5.0,653.833133000262,3.0,0.0,part_2,stop,500.0,450.0,3.0,,,,,,,,,blue,triangle
0.0,1.0,1.0,0.0,5.0,5.0,746.1960470000122,3.0,0.0,part_2,go,450.0,450.0,1.0,,,,,,,,,green,I
0.0,4.0,4.0,0.0,6.0,6.0,711.3994940000339,3.0,0.0,part_2,go,450.0,450.0,1.0,,,,,,,,,cyan,cross
0.0,1.0,1.0,0.0,5.0,5.0,797.111029000007,3.0,0.0,part_2,go,450.0,450.0,1.0,,,,,,,,,green,I
0.0,8.0,4.0,1.0,5.0,5.0,483.9590399997178,4.0,0.0,part_2,stop,450.0,450.0,3.0,,,,,,,,,magenta,circle
0.0,8.0,4.0,1.0,5.0,0.0,0.0,4.0,0.0,part_2,stop,400.0,450.0,4.0,,,,,,,,,magenta,circle
0.0,5.0,1.0,1.0,5.0,0.0,0.0,4.0,0.0,part_2,stop,450.0,450.0,4.0,,,,,,,,,yellow,hexagon
0.0,3.0,3.0,0.0,6.0,6.0,486.2202449994584,4.0,0.0,part_2,go,500.0,450.0,1.0,,,,,,,,,white,diamond
0.0,5.0,1.0,1.0,6.0,6.0,618.5632019996774,4.0,0.0,part_2,go,500.0,450.0,1.0,,,,,,,,,yellow,hexagon
0.0,4.0,4.0,0.0,5.0,5.0,684.0886250001859,4.0,0.0,part_2,go,500.0,450.0,1.0,,,,,,,,,cyan,cross
0.0,3.0,3.0,0.0,5.0,5.0,960.9834800003229,4.0,0.0,part_2,go,500.0,450.0,1.0,,,,,,,,,white,diamond
0.0,4.0,4.0,0.0,5.0,5.0,659.5369070000743,4.0,0.0,part_2,go,500.0,450.0,1.0,,,,,,,,,cyan,cross
0.0,4.0,4.0,0.0,6.0,6.0,575.1221410000653,4.0,0.0,part_2,go,500.0,450.0,1.0,,,,,,,,,cyan,cross
0.0,7.0,3.0,1.0,6.0,0.0,0.0,4.0,0.0,part_2,stop,500.0,450.0,4.0,,,,,,,,,blue,triangle
0.0,5.0,1.0,1.0,5.0,5.0,668.1108659995516,4.0,0.0,part_2,go,500.0,500.0,1.0,,,,,,,,,yellow,hexagon
0.0,8.0,4.0,1.0,5.0,0.0,0.0,4.0,0.0,part_2,stop,500.0,500.0,4.0,,,,,,,,,magenta,circle
0.0,7.0,3.0,1.0,5.0,5.0,627.1928160003881,4.0,0.0,part_2,go,550.0,500.0,1.0,,,,,,,,,blue,triangle
0.0,6.0,2.0,1.0,5.0,5.0,763.7458320004953,4.0,0.0,part_2,stop,550.0,500.0,3.0,,,,,,,,,orange,square
0.0,1.0,1.0,0.0,6.0,6.0,852.0635009999751,4.0,0.0,part_2,go,500.0,500.0,1.0,,,,,,,,,green,I
0.0,8.0,4.0,1.0,5.0,5.0,680.0742089999403,4.0,0.0,part_2,go,500.0,500.0,1.0,,,,,,,,,magenta,circle
0.0,4.0,4.0,0.0,5.0,5.0,568.9300780004487,4.0,0.0,part_2,go,500.0,500.0,1.0,,,,,,,,,cyan,cross
0.0,1.0,1.0,0.0,5.0,5.0,642.8501689997574,4.0,0.0,part_2,go,500.0,500.0,1.0,,,,,,,,,green,I
0.0,7.0,3.0,1.0,5.0,5.0,574.7186260005037,4.0,0.0,part_2,stop,500.0,500.0,3.0,,,,,,,,,blue,triangle
0.0,7.0,3.0,1.0,6.0,0.0,0.0,4.0,0.0,part_2,stop,450.0,500.0,4.0,,,,,,,,,blue,triangle
0.0,8.0,4.0,1.0,6.0,6.0,641.1503439994704,4.0,0.0,part_2,stop,450.0,550.0,3.0,,,,,,,,,magenta,circle
0.0,3.0,3.0,0.0,6.0,6.0,603.3745790000467,4.0,0.0,part_2,go,450.0,500.0,1.0,,,,,,,,,white,diamond
0.0,3.0,3.0,0.0,5.0,5.0,832.3684430006324,4.0,0.0,part_2,go,450.0,500.0,1.0,,,,,,,,,white,diamond
0.0,2.0,2.0,0.0,6.0,6.0,596.0833480003203,4.0,0.0,part_2,go,450.0,500.0,1.0,,,,,,,,,gray,flipped triangle
0.0,6.0,2.0,1.0,5.0,5.0,560.4468269993959,4.0,0.0,part_2,go,450.0,500.0,1.0,,,,,,,,,orange,square
0.0,7.0,3.0,1.0,5.0,5.0,663.2494719997339,4.0,0.0,part_2,go,450.0,500.0,1.0,,,,,,,,,blue,triangle
0.0,7.0,3.0,1.0,6.0,6.0,680.9680959995603,4.0,0.0,part_2,go,450.0,500.0,1.0,,,,,,,,,blue,triangle
0.0,1.0,1.0,0.0,5.0,5.0,427.16321900024917,4.0,0.0,part_2,go,450.0,500.0,1.0,,,,,,,,,green,I
0.0,8.0,4.0,1.0,6.0,6.0,648.5984799992366,4.0,0.0,part_2,stop,450.0,500.0,3.0,,,,,,,,,magenta,circle
0.0,1.0,1.0,0.0,6.0,6.0,800.2330640001674,4.0,0.0,part_2,go,450.0,450.0,1.0,,,,,,,,,green,I
0.0,4.0,4.0,0.0,5.0,5.0,422.0209969998905,4.0,0.0,part_2,go,450.0,450.0,1.0,,,,,,,,,cyan,cross
0.0,7.0,3.0,1.0,5.0,5.0,485.2504459995543,4.0,0.0,part_2,stop,450.0,450.0,3.0,,,,,,,,,blue,triangle
0.0,5.0,1.0,1.0,6.0,6.0,766.4382309994835,4.0,0.0,part_2,go,400.0,450.0,1.0,,,,,,,,,yellow,hexagon
0.0,7.0,3.0,1.0,5.0,0.0,0.0,4.0,0.0,part_2,stop,400.0,450.0,4.0,,,,,,,,,blue,triangle
0.0,5.0,1.0,1.0,6.0,0.0,0.0,4.0,0.0,part_2,stop,450.0,450.0,4.0,,,,,,,,,yellow,hexagon
0.0,5.0,1.0,1.0,6.0,6.0,918.191110999942,4.0,0.0,part_2,go,450.0,500.0,1.0,,,,,,,,,yellow,hexagon
0.0,5.0,1.0,1.0,6.0,6.0,823.8375760001873,5.0,0.0,part_2,stop,450.0,500.0,3.0,,,,,,,,,yellow,hexagon
0.0,2.0,2.0,0.0,5.0,5.0,438.2867760004956,5.0,0.0,part_2,go,450.0,450.0,1.0,,,,,,,,,gray,flipped triangle
0.0,8.0,4.0,1.0,6.0,6.0,273.92103399961337,5.0,0.0,part_2,go,450.0,450.0,1.0,,,,,,,,,magenta,circle
0.0,1.0,1.0,0.0,6.0,6.0,332.8619659996548,5.0,0.0,part_2,go,450.0,450.0,1.0,,,,,,,,,green,I
0.0,1.0,1.0,0.0,6.0,6.0,475.5783880000308,5.0,0.0,part_2,go,450.0,450.0,1.0,,,,,,,,,green,I
0.0,4.0,4.0,0.0,5.0,5.0,606.2989420006488,5.0,0.0,part_2,go,450.0,450.0,1.0,,,,,,,,,cyan,cross
0.0,4.0,4.0,0.0,5.0,5.0,480.6499710002754,5.0,0.0,part_2,go,450.0,450.0,1.0,,,,,,,,,cyan,cross
0.0,3.0,3.0,0.0,6.0,6.0,520.0418290005473,5.0,0.0,part_2,go,450.0,450.0,1.0,,,,,,,,,white,diamond
0.0,6.0,2.0,1.0,6.0,6.0,621.1554090004938,5.0,0.0,part_2,stop,450.0,450.0,3.0,,,,,,,,,orange,square
0.0,8.0,4.0,1.0,5.0,5.0,321.0162149998723,5.0,0.0,part_2,stop,450.0,400.0,3.0,,,,,,,,,magenta,circle
0.0,6.0,2.0,1.0,6.0,0.0,0.0,5.0,0.0,part_2,stop,400.0,400.0,4.0,,,,,,,,,orange,square
0.0,4.0,4.0,0.0,6.0,6.0,673.4908099997483,5.0,0.0,part_2,go,400.0,450.0,1.0,,,,,,,,,cyan,cross
0.0,4.0,4.0,0.0,6.0,6.0,600.9158469996692,5.0,0.0,part_2,go,400.0,450.0,1.0,,,,,,,,,cyan,cross
0.0,4.0,4.0,0.0,6.0,6.0,627.3970239999471,5.0,0.0,part_2,go,400.0,450.0,1.0,,,,,,,,,cyan,cross
0.0,6.0,2.0,1.0,6.0,0.0,0.0,5.0,0.0,part_2,stop,400.0,450.0,4.0,,,,,,,,,orange,square
0.0,7.0,3.0,1.0,5.0,0.0,0.0,5.0,0.0,part_2,stop,400.0,500.0,4.0,,,,,,,,,blue,triangle
0.0,2.0,2.0,0.0,5.0,5.0,717.6715489995331,5.0,0.0,part_2,go,450.0,500.0,1.0,,,,,,,,,gray,flipped triangle
0.0,1.0,1.0,0.0,5.0,5.0,468.0258270000195,5.0,0.0,part_2,go,450.0,500.0,1.0,,,,,,,,,green,I
0.0,8.0,4.0,1.0,5.0,0.0,0.0,5.0,0.0,part_2,stop,450.0,500.0,4.0,,,,,,,,,magenta,circle
0.0,2.0,2.0,0.0,6.0,6.0,581.9831019998674,5.0,0.0,part_2,go,500.0,500.0,1.0,,,,,,,,,gray,flipped triangle
0.0,7.0,3.0,1.0,6.0,6.0,476.6831639999509,5.0,0.0,part_2,stop,500.0,500.0,3.0,,,,,,,,,blue,triangle
0.0,2.0,2.0,0.0,6.0,6.0,798.2273960005841,5.0,0.0,part_2,go,500.0,450.0,1.0,,,,,,,,,gray,flipped triangle
0.0,6.0,2.0,1.0,5.0,5.0,774.9411450004118,5.0,0.0,part_2,go,500.0,450.0,1.0,,,,,,,,,orange,square
0.0,7.0,3.0,1.0,6.0,0.0,0.0,5.0,0.0,part_2,stop,500.0,450.0,4.0,,,,,,,,,blue,triangle
0.0,7.0,3.0,1.0,6.0,0.0,0.0,5.0,0.0,part_2,stop,500.0,500.0,4.0,,,,,,,,,blue,triangle
0.0,3.0,3.0,0.0,6.0,6.0,943.6339960002442,5.0,0.0,part_2,go,500.0,550.0,1.0,,,,,,,,,white,diamond
0.0,4.0,4.0,0.0,5.0,5.0,467.0033319998765,5.0,0.0,part_2,go,500.0,550.0,1.0,,,,,,,,,cyan,cross
0.0,6.0,2.0,1.0,6.0,0.0,0.0,5.0,0.0,part_2,stop,500.0,550.0,4.0,,,,,,,,,orange,square
0.0,1.0,1.0,0.0,5.0,5.0,464.1875830002391,5.0,0.0,part_2,go,500.0,600.0,1.0,,,,,,,,,green,I
0.0,3.0,3.0,0.0,5.0,5.0,384.6233900003426,5.0,0.0,part_2,go,500.0,600.0,1.0,,,,,,,,,white,diamond
0.0,8.0,4.0,1.0,5.0,5.0,745.9970500003692,5.0,0.0,part_2,go,500.0,600.0,1.0,,,,,,,,,magenta,circle
0.0,5.0,1.0,1.0,5.0,0.0,0.0,5.0,0.0,part_2,stop,500.0,600.0,4.0,,,,,,,,,yellow,hexagon
0.0,7.0,3.0,1.0,5.0,0.0,0.0,5.0,0.0,part_2,stop,550.0,600.0,4.0,,,,,,,,,blue,triangle
0.0,1.0,1.0,0.0,6.0,6.0,717.8285350000806,5.0,0.0,part_2,go,600.0,600.0,1.0,,,,,,,,,green,I
0.0,8.0,4.0,1.0,5.0,5.0,638.8930449993495,5.0,0.0,part_2,stop,600.0,600.0,3.0,,,,,,,,,magenta,circle
0.0,1.0,1.0,0.0,5.0,5.0,877.2214749997147,5.0,0.0,part_2,go,550.0,600.0,1.0,,,,,,,,,green,I
0.0,5.0,1.0,1.0,6.0,6.0,313.7781960003849,6.0,0.0,part_2,stop,550.0,600.0,3.0,,,,,,,,,yellow,hexagon
0.0,3.0,3.0,0.0,6.0,6.0,709.2648150000969,6.0,0.0,part_2,go,550.0,550.0,1.0,,,,,,,,,white,diamond
0.0,4.0,4.0,0.0,6.0,6.0,434.1678860000684,6.0,0.0,part_2,go,550.0,550.0,1.0,,,,,,,,,cyan,cross
0.0,8.0,4.0,1.0,5.0,5.0,541.9997369999692,6.0,0.0,part_2,stop,550.0,550.0,3.0,,,,,,,,,magenta,circle
0.0,5.0,1.0,1.0,5.0,0.0,0.0,6.0,0.0,part_2,stop,500.0,550.0,4.0,,,,,,,,,yellow,hexagon
0.0,4.0,4.0,0.0,6.0,6.0,815.6950219999999,6.0,0.0,part_2,go,550.0,550.0,1.0,,,,,,,,,cyan,cross
0.0,3.0,3.0,0.0,6.0,6.0,667.6096949995554,6.0,0.0,part_2,go,550.0,550.0,1.0,,,,,,,,,white,diamond
0.0,7.0,3.0,1.0,6.0,6.0,698.8889900003414,6.0,0.0,part_2,go,550.0,550.0,1.0,,,,,,,,,blue,triangle
0.0,2.0,2.0,0.0,6.0,6.0,624.6016610002698,6.0,0.0,part_2,go,550.0,550.0,1.0,,,,,,,,,gray,flipped triangle
0.0,8.0,4.0,1.0,6.0,0.0,0.0,6.0,0.0,part_2,stop,550.0,550.0,4.0,,,,,,,,,magenta,circle
0.0,5.0,1.0,1.0,6.0,6.0,693.2702499998413,6.0,0.0,part_2,stop,550.0,600.0,3.0,,,,,,,,,yellow,hexagon
0.0,2.0,2.0,0.0,5.0,5.0,679.6841750001477,6.0,0.0,part_2,go,550.0,550.0,1.0,,,,,,,,,gray,flipped triangle
0.0,8.0,4.0,1.0,6.0,0.0,0.0,6.0,0.0,part_2,stop,550.0,550.0,4.0,,,,,,,,,magenta,circle
0.0,1.0,1.0,0.0,5.0,5.0,741.7662580000979,6.0,0.0,part_2,go,550.0,600.0,1.0,,,,,,,,,green,I
0.0,6.0,2.0,1.0,6.0,6.0,777.2173820003445,6.0,0.0,part_2,go,550.0,600.0,1.0,,,,,,,,,orange,square
0.0,2.0,2.0,0.0,5.0,5.0,656.1441289995855,6.0,0.0,part_2,go,550.0,600.0,1.0,,,,,,,,,gray,flipped triangle
0.0,3.0,3.0,0.0,5.0,5.0,692.7972459998273,6.0,0.0,part_2,go,550.0,600.0,1.0,,,,,,,,,white,diamond
0.0,2.0,2.0,0.0,6.0,6.0,706.9345809995866,6.0,0.0,part_2,go,550.0,600.0,1.0,,,,,,,,,gray,flipped triangle
0.0,5.0,1.0,1.0,6.0,6.0,370.2503389995399,6.0,0.0,part_2,stop,550.0,600.0,3.0,,,,,,,,,yellow,hexagon
0.0,7.0,3.0,1.0,5.0,5.0,667.1511510003256,6.0,0.0,part_2,go,550.0,550.0,1.0,,,,,,,,,blue,triangle
0.0,6.0,2.0,1.0,5.0,0.0,0.0,6.0,0.0,part_2,stop,550.0,550.0,4.0,,,,,,,,,orange,square
0.0,6.0,2.0,1.0,6.0,0.0,0.0,6.0,0.0,part_2,stop,600.0,550.0,4.0,,,,,,,,,orange,square
0.0,1.0,1.0,0.0,6.0,6.0,551.525075000427,6.0,0.0,part_2,go,600.0,600.0,1.0,,,,,,,,,green,I
0.0,6.0,2.0,1.0,6.0,6.0,652.8190740000355,6.0,0.0,part_2,stop,600.0,600.0,3.0,,,,,,,,,orange,square
0.0,4.0,4.0,0.0,6.0,6.0,990.0353980001456,6.0,0.0,part_2,go,600.0,550.0,1.0,,,,,,,,,cyan,cross
0.0,6.0,2.0,1.0,5.0,5.0,674.6133540000301,6.0,0.0,part_2,stop,600.0,550.0,3.0,,,,,,,,,orange,square
0.0,4.0,4.0,0.0,6.0,6.0,653.9795070002583,6.0,0.0,part_2,go,550.0,550.0,1.0,,,,,,,,,cyan,cross
0.0,3.0,3.0,0.0,6.0,6.0,652.528813000572,6.0,0.0,part_2,go,550.0,550.0,1.0,,,,,,,,,white,diamond
0.0,8.0,4.0,1.0,5.0,0.0,0.0,6.0,0.0,part_2,stop,550.0,550.0,4.0,,,,,,,,,magenta,circle
0.0,5.0,1.0,1.0,5.0,5.0,739.406487999986,6.0,0.0,part_2,go,600.0,550.0,1.0,,,,,,,,,yellow,hexagon
0.0,6.0,2.0,1.0,5.0,5.0,657.074036999802,6.0,0.0,part_2,stop,600.0,550.0,3.0,,,,,,,,,orange,square
0.0,6.0,2.0,1.0,6.0,0.0,0.0,6.0,0.0,part_2,stop,550.0,550.0,4.0,,,,,,,,,orange,square
0.0,8.0,4.0,1.0,5.0,5.0,655.9957660001601,6.0,0.0,part_2,go,550.0,600.0,1.0,,,,,,,,,magenta,circle
0.0,8.0,4.0,1.0,6.0,6.0,565.7666179995431,6.0,0.0,part_2,go,550.0,600.0,1.0,,,,,,,,,magenta,circle
0.0,4.0,4.0,0.0,6.0,6.0,852.8416379995178,6.0,0.0,part_2,go,550.0,600.0,1.0,,,,,,,,,cyan,cross
0.0,1.0,1.0,0.0,5.0,5.0,661.4601810006207,6.0,0.0,part_2,go,550.0,600.0,1.0,,,,,,,,,green,I
0.0,8.0,4.0,1.0,5.0,5.0,350.2547329999288,7.0,0.0,part_2,stop,550.0,600.0,3.0,,,,,,,,,magenta,circle
0.0,2.0,2.0,0.0,6.0,6.0,549.0662570000495,7.0,0.0,part_2,go,500.0,600.0,1.0,,,,,,,,,gray,flipped triangle
0.0,1.0,1.0,0.0,6.0,6.0,605.6830870002159,7.0,0.0,part_2,go,500.0,600.0,1.0,,,,,,,,,green,I
0.0,7.0,3.0,1.0,5.0,5.0,605.3724349994809,7.0,0.0,part_2,stop,500.0,600.0,3.0,,,,,,,,,blue,triangle
0.0,7.0,3.0,1.0,5.0,0.0,0.0,7.0,0.0,part_2,stop,450.0,600.0,4.0,,,,,,,,,blue,triangle
0.0,3.0,3.0,0.0,6.0,6.0,649.0280340003665,7.0,0.0,part_2,go,500.0,600.0,1.0,,,,,,,,,white,diamond
0.0,7.0,3.0,1.0,6.0,6.0,744.073011999717,7.0,0.0,part_2,stop,500.0,600.0,3.0,,,,,,,,,blue,triangle
0.0,2.0,2.0,0.0,5.0,5.0,799.328964999404,7.0,0.0,part_2,go,500.0,550.0,1.0,,,,,,,,,gray,flipped triangle
0.0,3.0,3.0,0.0,5.0,5.0,679.5304930001294,7.0,0.0,part_2,go,500.0,550.0,1.0,,,,,,,,,white,diamond
0.0,4.0,4.0,0.0,6.0,6.0,484.424663000027,7.0,0.0,part_2,go,500.0,550.0,1.0,,,,,,,,,cyan,cross
0.0,5.0,1.0,1.0,6.0,0.0,0.0,7.0,0.0,part_2,stop,500.0,550.0,4.0,,,,,,,,,yellow,hexagon
0.0,4.0,4.0,0.0,5.0,0.0,0.0,7.0,0.0,part_2,go,500.0,600.0,5.0,,,,,,,,,cyan,cross
0.0,1.0,1.0,0.0,5.0,5.0,709.0748760001588,7.0,0.0,part_2,go,500.0,600.0,1.0,,,,,,,,,green,I
0.0,2.0,2.0,0.0,5.0,5.0,624.0505380001196,7.0,0.0,part_2,go,500.0,600.0,1.0,,,,,,,,,gray,flipped triangle
0.0,6.0,2.0,1.0,5.0,0.0,0.0,7.0,0.0,part_2,stop,500.0,600.0,4.0,,,,,,,,,orange,square
0.0,7.0,3.0,1.0,6.0,6.0,739.2132400000264,7.0,0.0,part_2,go,550.0,600.0,1.0,,,,,,,,,blue,triangle
0.0,7.0,3.0,1.0,5.0,5.0,629.0751110000201,7.0,0.0,part_2,stop,550.0,600.0,3.0,,,,,,,,,blue,triangle
0.0,5.0,1.0,1.0,5.0,0.0,0.0,7.0,0.0,part_2,stop,500.0,600.0,4.0,,,,,,,,,yellow,hexagon
0.0,8.0,4.0,1.0,6.0,6.0,792.7525029999742,7.0,0.0,part_2,stop,550.0,600.0,3.0,,,,,,,,,magenta,circle
0.0,2.0,2.0,0.0,6.0,6.0,905.5575829997906,7.0,0.0,part_2,go,550.0,550.0,1.0,,,,,,,,,gray,flipped triangle
0.0,6.0,2.0,1.0,5.0,5.0,455.7807420005701,7.0,0.0,part_2,stop,550.0,550.0,3.0,,,,,,,,,orange,square
0.0,4.0,4.0,0.0,6.0,6.0,1011.89058700038,7.0,0.0,part_2,go,500.0,550.0,1.0,,,,,,,,,cyan,cross
0.0,3.0,3.0,0.0,5.0,5.0,670.1651490002405,7.0,0.0,part_2,go,500.0,550.0,1.0,,,,,,,,,white,diamond
0.0,2.0,2.0,0.0,5.0,5.0,565.0674930002424,7.0,0.0,part_2,go,500.0,550.0,1.0,,,,,,,,,gray,flipped triangle
0.0,1.0,1.0,0.0,5.0,5.0,606.374556999981,7.0,0.0,part_2,go,500.0,550.0,1.0,,,,,,,,,green,I
0.0,3.0,3.0,0.0,6.0,6.0,977.525692999734,7.0,0.0,part_2,go,500.0,550.0,1.0,,,,,,,,,white,diamond
0.0,2.0,2.0,0.0,6.0,6.0,686.1254859995825,7.0,0.0,part_2,go,500.0,550.0,1.0,,,,,,,,,gray,flipped triangle
0.0,8.0,4.0,1.0,6.0,0.0,0.0,7.0,0.0,part_2,stop,500.0,550.0,4.0,,,,,,,,,magenta,circle
0.0,3.0,3.0,0.0,6.0,6.0,980.8304270000008,7.0,0.0,part_2,go,500.0,600.0,1.0,,,,,,,,,white,diamond
0.0,8.0,4.0,1.0,6.0,0.0,0.0,7.0,0.0,part_2,stop,500.0,600.0,4.0,,,,,,,,,magenta,circle
0.0,4.0,4.0,0.0,5.0,5.0,687.0672260001811,7.0,0.0,part_2,go,500.0,650.0,1.0,,,,,,,,,cyan,cross
0.0,6.0,2.0,1.0,5.0,5.0,590.3489769998487,7.0,0.0,part_2,go,500.0,650.0,1.0,,,,,,,,,orange,square
0.0,4.0,4.0,0.0,5.0,5.0,715.4091919992425,7.0,0.0,part_2,go,500.0,650.0,1.0,,,,,,,,,cyan,cross
0.0,2.0,2.0,0.0,5.0,5.0,513.7334459996055,7.0,0.0,part_2,go,500.0,650.0,1.0,,,,,,,,,gray,flipped triangle
0.0,1.0,1.0,0.0,6.0,6.0,433.4865829996488,7.0,0.0,part_2,go,500.0,650.0,1.0,,,,,,,,,green,I
0.0,1.0,1.0,0.0,6.0,6.0,375.7156909996411,7.0,0.0,part_2,go,500.0,650.0,1.0,,,,,,,,,green,I
0.0,6.0,2.0,1.0,6.0,6.0,415.3080109999791,8.0,0.0,part_2,stop,500.0,650.0,3.0,,,,,,,,,orange,square
0.0,5.0,1.0,1.0,5.0,5.0,672.7564729999358,8.0,0.0,part_2,stop,500.0,600.0,3.0,,,,,,,,,yellow,hexagon
0.0,8.0,4.0,1.0,6.0,6.0,733.0453080003281,8.0,0.0,part_2,stop,450.0,600.0,3.0,,,,,,,,,magenta,circle
0.0,3.0,3.0,0.0,6.0,6.0,539.6456550006405,8.0,0.0,part_2,go,450.0,550.0,1.0,,,,,,,,,white,diamond
0.0,6.0,2.0,1.0,6.0,6.0,399.8144779998256,8.0,0.0,part_2,stop,450.0,550.0,3.0,,,,,,,,,orange,square
0.0,3.0,3.0,0.0,6.0,6.0,847.9793019996578,8.0,0.0,part_2,go,450.0,500.0,1.0,,,,,,,,,white,diamond
0.0,7.0,3.0,1.0,6.0,0.0,0.0,8.0,0.0,part_2,stop,450.0,500.0,4.0,,,,,,,,,blue,triangle
0.0,2.0,2.0,0.0,6.0,6.0,852.3949010004799,8.0,0.0,part_2,go,450.0,550.0,1.0,,,,,,,,,gray,flipped triangle
0.0,7.0,3.0,1.0,6.0,6.0,869.9092589995416,8.0,0.0,part_2,go,450.0,550.0,1.0,,,,,,,,,blue,triangle
0.0,3.0,3.0,0.0,6.0,6.0,734.1401839994433,8.0,0.0,part_2,go,450.0,550.0,1.0,,,,,,,,,white,diamond
0.0,3.0,3.0,0.0,5.0,5.0,757.9914319994714,8.0,0.0,part_2,go,450.0,550.0,1.0,,,,,,,,,white,diamond
0.0,8.0,4.0,1.0,6.0,0.0,0.0,8.0,0.0,part_2,stop,450.0,550.0,4.0,,,,,,,,,magenta,circle
0.0,7.0,3.0,1.0,6.0,6.0,1167.8194999994955,8.0,0.0,part_2,go,450.0,600.0,1.0,,,,,,,,,blue,triangle
0.0,1.0,1.0,0.0,6.0,6.0,993.7861900007192,8.0,0.0,part_2,go,450.0,600.0,1.0,,,,,,,,,green,I
0.0,1.0,1.0,0.0,5.0,5.0,724.5986320003794,8.0,0.0,part_2,go,450.0,600.0,1.0,,,,,,,,,green,I
0.0,5.0,1.0,1.0,6.0,0.0,0.0,8.0,0.0,part_2,stop,450.0,600.0,4.0,,,,,,,,,yellow,hexagon
0.0,7.0,3.0,1.0,5.0,0.0,0.0,8.0,0.0,part_2,stop,450.0,650.0,4.0,,,,,,,,,blue,triangle
0.0,8.0,4.0,1.0,6.0,6.0,945.9515340004144,8.0,0.0,part_2,go,500.0,650.0,1.0,,,,,,,,,magenta,circle
0.0,3.0,3.0,0.0,6.0,6.0,716.9280279995291,8.0,0.0,part_2,go,500.0,650.0,1.0,,,,,,,,,white,diamond
0.0,4.0,4.0,0.0,5.0,5.0,688.1677189994662,8.0,0.0,part_2,go,500.0,650.0,1.0,,,,,,,,,cyan,cross
0.0,5.0,1.0,1.0,5.0,5.0,636.652712999421,8.0,0.0,part_2,stop,500.0,650.0,3.0,,,,,,,,,yellow,hexagon
0.0,8.0,4.0,1.0,5.0,5.0,987.3235559998648,8.0,0.0,part_2,go,450.0,650.0,1.0,,,,,,,,,magenta,circle
0.0,8.0,4.0,1.0,5.0,0.0,0.0,8.0,0.0,part_2,stop,450.0,650.0,4.0,,,,,,,,,magenta,circle
0.0,2.0,2.0,0.0,6.0,6.0,670.1695450001353,8.0,0.0,part_2,go,500.0,650.0,1.0,,,,,,,,,gray,flipped triangle
0.0,5.0,1.0,1.0,6.0,6.0,691.8431289996079,8.0,0.0,part_2,stop,500.0,650.0,3.0,,,,,,,,,yellow,hexagon
0.0,3.0,3.0,0.0,5.0,5.0,488.0011720006223,8.0,0.0,part_2,go,500.0,600.0,1.0,,,,,,,,,white,diamond
0.0,3.0,3.0,0.0,6.0,6.0,1148.151014999712,8.0,0.0,part_2,go,500.0,600.0,1.0,,,,,,,,,white,diamond
0.0,1.0,1.0,0.0,6.0,6.0,718.2259850005721,8.0,0.0,part_2,go,500.0,600.0,1.0,,,,,,,,,green,I
0.0,7.0,3.0,1.0,6.0,6.0,634.8370619998605,8.0,0.0,part_2,stop,500.0,600.0,3.0,,,,,,,,,blue,triangle
0.0,6.0,2.0,1.0,5.0,5.0,536.3510340002904,8.0,0.0,part_2,stop,500.0,550.0,3.0,,,,,,,,,orange,square
0.0,1.0,1.0,0.0,5.0,5.0,977.8672969996478,8.0,0.0,part_2,go,450.0,550.0,1.0,,,,,,,,,green,I
0.0,4.0,4.0,0.0,5.0,5.0,508.4176390000721,8.0,0.0,part_2,go,450.0,550.0,1.0,,,,,,,,,cyan,cross
0.0,1.0,1.0,0.0,5.0,5.0,341.3707259996954,8.0,0.0,part_2,go,450.0,550.0,1.0,,,,,,,,,green,I
0.0,6.0,2.0,1.0,5.0,5.0,597.2524529997827,8.0,0.0,part_2,stop,450.0,550.0,3.0,,,,,,,,,orange,square
0.0,7.0,3.0,1.0,5.0,5.0,563.314803999674,8.0,0.0,part_2,stop,400.0,550.0,3.0,,,,,,,,,blue,triangle
0.0,2.0,2.0,0.0,5.0,5.0,903.338961999907,8.0,0.0,part_2,go,350.0,550.0,1.0,,,,,,,,,gray,flipped triangle
0.0,8.0,4.0,1.0,7.0,3.0,1285.6096360001177,1.0,1.0,part_3,go,0.0,0.0,0.0,204.0,6.0,136.0,68.0,204.0,34.0,170.0,102.0,magenta,circle
0.0,1.0,1.0,0.0,7.0,3.0,1624.1117870004018,1.0,1.0,part_3,go,0.0,0.0,0.0,294.0,6.0,245.0,98.0,294.0,147.0,196.0,49.0,green,I
0.0,4.0,4.0,0.0,7.0,3.0,1537.1767910000926,1.0,1.0,part_3,go,0.0,0.0,0.0,176.0,4.0,264.0,44.0,176.0,220.0,132.0,88.0,cyan,cross
0.0,2.0,2.0,0.0,7.0,5.0,1181.6400129991962,1.0,1.0,part_3,go,0.0,0.0,0.0,216.0,4.0,162.0,324.0,108.0,54.0,216.0,270.0,gray,flipped triangle
0.0,2.0,2.0,0.0,7.0,3.0,1067.4220540004171,1.0,1.0,part_3,go,0.0,0.0,0.0,108.0,2.0,324.0,162.0,108.0,54.0,216.0,270.0,gray,flipped triangle
0.0,1.0,1.0,0.0,7.0,4.0,2200.9003850007502,1.0,1.0,part_3,go,0.0,0.0,0.0,216.0,4.0,162.0,54.0,270.0,216.0,324.0,108.0,green,I
0.0,4.0,4.0,0.0,7.0,4.0,1469.9504469999738,1.0,1.0,part_3,go,0.0,0.0,0.0,196.0,4.0,245.0,98.0,294.0,196.0,49.0,147.0,cyan,cross
0.0,2.0,2.0,0.0,7.0,3.0,1136.0739000001558,1.0,1.0,part_3,go,0.0,0.0,0.0,170.0,5.0,204.0,102.0,170.0,68.0,34.0,136.0,gray,flipped triangle
0.0,1.0,1.0,0.0,7.0,1.0,1119.4973199999367,1.0,1.0,part_3,go,0.0,0.0,0.0,117.0,3.0,117.0,195.0,78.0,234.0,156.0,39.0,green,I
0.0,8.0,4.0,1.0,7.0,5.0,1576.8736540003374,1.0,1.0,part_3,go,0.0,0.0,0.0,162.0,3.0,216.0,54.0,270.0,108.0,162.0,324.0,magenta,circle
0.0,5.0,1.0,1.0,7.0,3.0,1934.282156000336,1.0,1.0,part_3,go,0.0,0.0,0.0,170.0,5.0,34.0,102.0,170.0,204.0,68.0,136.0,yellow,hexagon
0.0,4.0,4.0,0.0,7.0,6.0,2561.881106000328,1.0,1.0,part_3,go,0.0,0.0,0.0,234.0,6.0,195.0,39.0,156.0,78.0,117.0,234.0,cyan,cross
0.0,1.0,1.0,0.0,7.0,1.0,2466.9565590002094,1.0,1.0,part_3,go,0.0,0.0,0.0,102.0,3.0,102.0,34.0,204.0,68.0,136.0,170.0,green,I
0.0,7.0,3.0,1.0,7.0,4.0,1923.9403219999076,1.0,1.0,part_3,go,0.0,0.0,0.0,170.0,5.0,204.0,136.0,102.0,170.0,34.0,68.0,blue,triangle
0.0,4.0,4.0,0.0,7.0,3.0,1265.3583860001163,1.0,1.0,part_3,go,0.0,0.0,0.0,204.0,6.0,68.0,34.0,204.0,102.0,136.0,170.0,cyan,cross
0.0,3.0,3.0,0.0,7.0,4.0,2539.389485999891,1.0,1.0,part_3,go,0.0,0.0,0.0,54.0,1.0,216.0,108.0,270.0,54.0,324.0,162.0,white,diamond
0.0,5.0,1.0,1.0,7.0,2.0,1737.0163440000397,1.0,1.0,part_3,go,0.0,0.0,0.0,176.0,4.0,220.0,176.0,44.0,132.0,264.0,88.0,yellow,hexagon
0.0,4.0,4.0,0.0,7.0,3.0,1116.9811119998485,1.0,1.0,part_3,go,0.0,0.0,0.0,324.0,6.0,216.0,54.0,324.0,270.0,108.0,162.0,cyan,cross
0.0,1.0,1.0,0.0,7.0,3.0,1753.8122280002426,1.0,1.0,part_3,go,0.0,0.0,0.0,176.0,4.0,220.0,264.0,176.0,88.0,132.0,44.0,green,I
0.0,6.0,2.0,1.0,7.0,5.0,2582.9137660002743,1.0,1.0,part_3,go,0.0,0.0,0.0,324.0,6.0,54.0,216.0,108.0,162.0,324.0,270.0,orange,square
0.0,3.0,3.0,0.0,7.0,4.0,1202.3567010000988,2.0,1.0,part_3,go,0.0,0.0,0.0,204.0,6.0,170.0,34.0,102.0,204.0,68.0,136.0,white,diamond
0.0,3.0,3.0,0.0,7.0,2.0,1384.7059169993372,2.0,1.0,part_3,go,0.0,0.0,0.0,234.0,6.0,39.0,234.0,78.0,117.0,195.0,156.0,white,diamond
0.0,8.0,4.0,1.0,7.0,4.0,1082.454831999712,2.0,1.0,part_3,go,0.0,0.0,0.0,270.0,5.0,162.0,324.0,54.0,270.0,108.0,216.0,magenta,circle
0.0,7.0,3.0,1.0,7.0,5.0,1593.7231070001872,2.0,1.0,part_3,go,0.0,0.0,0.0,294.0,6.0,245.0,49.0,147.0,196.0,294.0,98.0,blue,triangle
0.0,6.0,2.0,1.0,7.0,3.0,1243.941423999786,2.0,1.0,part_3,go,0.0,0.0,0.0,162.0,3.0,108.0,270.0,162.0,216.0,54.0,324.0,orange,square
0.0,8.0,4.0,1.0,7.0,5.0,1728.792214999885,2.0,1.0,part_3,go,0.0,0.0,0.0,196.0,4.0,294.0,49.0,245.0,98.0,196.0,147.0,magenta,circle
0.0,3.0,3.0,0.0,7.0,2.0,1923.213209000096,2.0,1.0,part_3,go,0.0,0.0,0.0,245.0,5.0,294.0,245.0,98.0,49.0,147.0,196.0,white,diamond
0.0,6.0,2.0,1.0,7.0,6.0,2114.7617220003667,2.0,1.0,part_3,go,0.0,0.0,0.0,196.0,4.0,98.0,147.0,49.0,294.0,245.0,196.0,orange,square
0.0,3.0,3.0,0.0,7.0,1.0,1820.2623079996556,2.0,1.0,part_3,go,0.0,0.0,0.0,195.0,5.0,195.0,39.0,156.0,117.0,78.0,234.0,white,diamond
0.0,1.0,1.0,0.0,7.0,3.0,1381.7069070000798,2.0,1.0,part_3,go,0.0,0.0,0.0,147.0,3.0,196.0,49.0,147.0,245.0,294.0,98.0,green,I
0.0,1.0,1.0,0.0,7.0,3.0,2993.7453869997626,2.0,1.0,part_3,go,0.0,0.0,0.0,162.0,3.0,270.0,324.0,162.0,108.0,54.0,216.0,green,I
0.0,5.0,1.0,1.0,7.0,3.0,1585.8891419993597,2.0,1.0,part_3,go,0.0,0.0,0.0,162.0,3.0,216.0,270.0,162.0,54.0,324.0,108.0,yellow,hexagon
0.0,6.0,2.0,1.0,7.0,3.0,1969.473316999938,2.0,1.0,part_3,go,0.0,0.0,0.0,245.0,5.0,147.0,294.0,245.0,196.0,98.0,49.0,orange,square
0.0,5.0,1.0,1.0,7.0,6.0,1926.574434000031,2.0,1.0,part_3,go,0.0,0.0,0.0,234.0,6.0,195.0,78.0,156.0,117.0,39.0,234.0,yellow,hexagon
0.0,2.0,2.0,0.0,7.0,3.0,1974.3498249999905,2.0,1.0,part_3,go,0.0,0.0,0.0,220.0,5.0,88.0,132.0,220.0,264.0,44.0,176.0,gray,flipped triangle
0.0,4.0,4.0,0.0,7.0,5.0,1976.2554210001329,2.0,1.0,part_3,go,0.0,0.0,0.0,196.0,4.0,245.0,98.0,49.0,147.0,196.0,294.0,cyan,cross
0.0,2.0,2.0,0.0,7.0,4.0,1816.260300999602,2.0,1.0,part_3,go,0.0,0.0,0.0,245.0,5.0,294.0,98.0,196.0,245.0,147.0,49.0,gray,flipped triangle
0.0,3.0,3.0,0.0,7.0,2.0,1765.1644649995433,2.0,1.0,part_3,go,0.0,0.0,0.0,294.0,6.0,196.0,294.0,245.0,98.0,49.0,147.0,white,diamond
0.0,6.0,2.0,1.0,7.0,5.0,1989.6204169999692,2.0,1.0,part_3,go,0.0,0.0,0.0,132.0,3.0,176.0,88.0,44.0,220.0,132.0,264.0,orange,square
0.0,5.0,1.0,1.0,7.0,1.0,2012.9200390001643,2.0,1.0,part_3,go,0.0,0.0,0.0,196.0,4.0,196.0,147.0,294.0,98.0,49.0,245.0,yellow,hexagon
0.0,8.0,4.0,1.0,7.0,3.0,1543.8937899998564,3.0,1.0,part_3,go,0.0,0.0,0.0,132.0,3.0,264.0,176.0,132.0,44.0,88.0,220.0,magenta,circle
0.0,3.0,3.0,0.0,7.0,6.0,2125.1135100001193,3.0,1.0,part_3,go,0.0,0.0,0.0,270.0,5.0,162.0,54.0,324.0,108.0,216.0,270.0,white,diamond
0.0,1.0,1.0,0.0,7.0,4.0,2342.495181999766,3.0,1.0,part_3,go,0.0,0.0,0.0,117.0,3.0,156.0,195.0,39.0,117.0,78.0,234.0,green,I
0.0,3.0,3.0,0.0,7.0,4.0,2148.951675000717,3.0,1.0,part_3,go,0.0,0.0,0.0,136.0,4.0,68.0,204.0,102.0,136.0,34.0,170.0,white,diamond
0.0,8.0,4.0,1.0,7.0,3.0,1501.427029000297,3.0,1.0,part_3,go,0.0,0.0,0.0,195.0,5.0,78.0,234.0,195.0,39.0,156.0,117.0,magenta,circle
0.0,7.0,3.0,1.0,7.0,4.0,2653.905762999784,3.0,1.0,part_3,go,0.0,0.0,0.0,147.0,3.0,196.0,49.0,98.0,147.0,294.0,245.0,blue,triangle
0.0,5.0,1.0,1.0,7.0,2.0,1919.2875930002629,3.0,1.0,part_3,go,0.0,0.0,0.0,170.0,5.0,204.0,170.0,136.0,102.0,68.0,34.0,yellow,hexagon
0.0,6.0,2.0,1.0,7.0,1.0,1678.07638999966,3.0,1.0,part_3,go,0.0,0.0,0.0,220.0,5.0,220.0,264.0,44.0,88.0,176.0,132.0,orange,square
0.0,7.0,3.0,1.0,7.0,2.0,2014.905507999174,3.0,1.0,part_3,go,0.0,0.0,0.0,216.0,4.0,270.0,216.0,162.0,324.0,54.0,108.0,blue,triangle
0.0,2.0,2.0,0.0,7.0,2.0,2216.0378000007768,3.0,1.0,part_3,go,0.0,0.0,0.0,170.0,5.0,204.0,170.0,68.0,34.0,102.0,136.0,gray,flipped triangle
0.0,2.0,2.0,0.0,7.0,1.0,1805.324439999822,3.0,1.0,part_3,go,0.0,0.0,0.0,176.0,4.0,176.0,220.0,264.0,88.0,132.0,44.0,gray,flipped triangle
0.0,5.0,1.0,1.0,7.0,5.0,2349.377256999105,3.0,1.0,part_3,go,0.0,0.0,0.0,195.0,5.0,39.0,78.0,234.0,117.0,195.0,156.0,yellow,hexagon
0.0,7.0,3.0,1.0,7.0,4.0,1738.0625119994877,3.0,1.0,part_3,go,0.0,0.0,0.0,195.0,5.0,156.0,78.0,234.0,195.0,117.0,39.0,blue,triangle
0.0,8.0,4.0,1.0,7.0,6.0,1845.3863610002372,3.0,1.0,part_3,go,0.0,0.0,0.0,204.0,6.0,34.0,102.0,136.0,170.0,68.0,204.0,magenta,circle
0.0,2.0,2.0,0.0,7.0,2.0,1602.189391000138,3.0,1.0,part_3,go,0.0,0.0,0.0,234.0,6.0,195.0,234.0,78.0,117.0,39.0,156.0,gray,flipped triangle
0.0,6.0,2.0,1.0,7.0,5.0,2064.2179179994855,3.0,1.0,part_3,go,0.0,0.0,0.0,204.0,6.0,102.0,34.0,68.0,170.0,204.0,136.0,orange,square
0.0,5.0,1.0,1.0,7.0,6.0,2680.1022569998167,3.0,1.0,part_3,go,0.0,0.0,0.0,216.0,4.0,270.0,108.0,324.0,54.0,162.0,216.0,yellow,hexagon
0.0,1.0,1.0,0.0,7.0,5.0,2893.80653399985,3.0,1.0,part_3,go,0.0,0.0,0.0,204.0,6.0,170.0,102.0,34.0,136.0,204.0,68.0,green,I
0.0,8.0,4.0,1.0,7.0,5.0,2417.3832849992323,3.0,1.0,part_3,go,0.0,0.0,0.0,196.0,4.0,294.0,49.0,98.0,245.0,196.0,147.0,magenta,circle
0.0,4.0,4.0,0.0,7.0,5.0,1574.3327519994637,3.0,1.0,part_3,go,0.0,0.0,0.0,216.0,4.0,162.0,108.0,54.0,270.0,216.0,324.0,cyan,cross
0.0,8.0,4.0,1.0,7.0,3.0,1470.3338819999772,4.0,1.0,part_3,go,0.0,0.0,0.0,220.0,5.0,176.0,132.0,220.0,264.0,44.0,88.0,magenta,circle
0.0,5.0,1.0,1.0,7.0,5.0,1566.4477350001107,4.0,1.0,part_3,go,0.0,0.0,0.0,220.0,5.0,264.0,176.0,132.0,44.0,220.0,88.0,yellow,hexagon
0.0,4.0,4.0,0.0,7.0,3.0,2187.188191000132,4.0,1.0,part_3,go,0.0,0.0,0.0,220.0,5.0,176.0,44.0,220.0,132.0,264.0,88.0,cyan,cross
0.0,7.0,3.0,1.0,7.0,4.0,1315.654135000841,4.0,1.0,part_3,go,0.0,0.0,0.0,204.0,6.0,102.0,34.0,170.0,204.0,68.0,136.0,blue,triangle
0.0,6.0,2.0,1.0,7.0,3.0,2106.452125999567,4.0,1.0,part_3,go,0.0,0.0,0.0,234.0,6.0,117.0,39.0,234.0,195.0,78.0,156.0,orange,square
0.0,7.0,3.0,1.0,7.0,6.0,2726.95362200011,4.0,1.0,part_3,go,0.0,0.0,0.0,216.0,4.0,162.0,270.0,108.0,54.0,324.0,216.0,blue,triangle
0.0,6.0,2.0,1.0,7.0,5.0,1208.4870970002155,4.0,1.0,part_3,go,0.0,0.0,0.0,234.0,6.0,78.0,117.0,156.0,39.0,234.0,195.0,orange,square
0.0,1.0,1.0,0.0,7.0,4.0,2494.7528289994807,4.0,1.0,part_3,go,0.0,0.0,0.0,176.0,4.0,132.0,220.0,44.0,176.0,88.0,264.0,green,I
0.0,7.0,3.0,1.0,7.0,6.0,1298.7178240000503,4.0,1.0,part_3,go,0.0,0.0,0.0,195.0,5.0,234.0,156.0,39.0,78.0,117.0,195.0,blue,triangle
0.0,7.0,3.0,1.0,7.0,4.0,2456.467531999806,4.0,1.0,part_3,go,0.0,0.0,0.0,176.0,4.0,132.0,88.0,220.0,176.0,264.0,44.0,blue,triangle
0.0,7.0,3.0,1.0,7.0,5.0,1170.6758700001956,4.0,1.0,part_3,go,0.0,0.0,0.0,176.0,4.0,220.0,44.0,132.0,88.0,176.0,264.0,blue,triangle
0.0,8.0,4.0,1.0,7.0,4.0,1542.546454999865,4.0,1.0,part_3,go,0.0,0.0,0.0,195.0,5.0,156.0,117.0,39.0,195.0,234.0,78.0,magenta,circle
0.0,3.0,3.0,0.0,7.0,1.0,2741.454402000272,4.0,1.0,part_3,go,0.0,0.0,0.0,220.0,5.0,220.0,88.0,176.0,44.0,264.0,132.0,white,diamond
0.0,3.0,3.0,0.0,7.0,1.0,2357.731961999889,4.0,1.0,part_3,go,0.0,0.0,0.0,220.0,5.0,220.0,176.0,44.0,88.0,132.0,264.0,white,diamond
0.0,2.0,2.0,0.0,7.0,5.0,1464.0857700005654,4.0,1.0,part_3,go,0.0,0.0,0.0,245.0,5.0,147.0,49.0,294.0,98.0,245.0,196.0,gray,flipped triangle
0.0,5.0,1.0,1.0,7.0,3.0,1926.0574859999904,4.0,1.0,part_3,go,0.0,0.0,0.0,196.0,4.0,147.0,245.0,196.0,294.0,49.0,98.0,yellow,hexagon
0.0,2.0,2.0,0.0,7.0,1.0,1785.043525999754,4.0,1.0,part_3,go,0.0,0.0,0.0,234.0,6.0,234.0,117.0,195.0,39.0,78.0,156.0,gray,flipped triangle
0.0,4.0,4.0,0.0,7.0,6.0,1977.8249810005943,4.0,1.0,part_3,go,0.0,0.0,0.0,195.0,5.0,117.0,78.0,39.0,234.0,156.0,195.0,cyan,cross
0.0,4.0,4.0,0.0,7.0,6.0,1579.8566560006293,4.0,1.0,part_3,go,0.0,0.0,0.0,170.0,5.0,34.0,102.0,68.0,204.0,136.0,170.0,cyan,cross
0.0,6.0,2.0,1.0,7.0,4.0,1647.2914059995674,4.0,1.0,part_3,go,0.0,0.0,0.0,204.0,6.0,170.0,68.0,102.0,204.0,136.0,34.0,orange,square
