raw_reward_magnitude,stim_reward,stepwise_reward_magnitude,paired_with_stopping,stim_location,response,reaction_time,block,num_trial_presentations,which_phase,stop_signal_trial_type,left_SSD,right_SSD,accuracy,chosen_bidding_amount,chosen_bidding_level,possible_bid_1,possible_bid_2,possible_bid_3,possible_bid_4,possible_bid_5,possible_bid_6,color_text,shape_text
396.0,8.0,4.0,1.0,4.0,4.0,334.6122039999955,1.0,1.0,phase_1,,,,,,,,,,,,,magenta,square
60.0,5.0,0.5,1.0,2.0,2.0,304.750747000071,1.0,1.0,phase_1,,,,,,,,,,,,,blue,diamond
416.0,4.0,4.0,0.0,4.0,4.0,375.1798160001272,1.0,1.0,phase_1,,,,,,,,,,,,,white,hexagon
0.0,5.0,0.0,1.0,2.0,2.0,331.0911780001788,1.0,2.0,phase_1,,,,,,,,,,,,,blue,diamond
0.0,7.0,0.0,1.0,1.0,1.0,300.7654440000351,1.0,1.0,phase_1,,,,,,,,,,,,,green,flipped triangle
112.0,2.0,1.0,0.0,3.0,3.0,290.9644730000309,1.0,1.0,phase_1,,,,,,,,,,,,,gray,I
63.0,5.0,0.5,1.0,1.0,1.0,286.350726999899,1.0,1.0,phase_1,,,,,,,,,,,,,blue,diamond
35.0,1.0,0.5,0.0,1.0,1.0,275.5680049999682,1.0,1.0,phase_1,,,,,,,,,,,,,yellow,triangle
195.0,7.0,2.0,1.0,3.0,3.0,283.9810759999182,1.0,1.0,phase_1,,,,,,,,,,,,,green,flipped triangle
0.0,6.0,0.0,1.0,1.0,1.0,243.1629970001267,1.0,1.0,phase_1,,,,,,,,,,,,,cyan,cross
0.0,3.0,0.0,0.0,1.0,1.0,273.7748780000402,1.0,1.0,phase_1,,,,,,,,,,,,,orange,circle
114.0,2.0,1.0,0.0,1.0,1.0,304.198499999984,1.0,1.0,phase_1,,,,,,,,,,,,,gray,I
400.0,8.0,4.0,1.0,2.0,2.0,279.2535349999525,1.0,1.0,phase_1,,,,,,,,,,,,,magenta,square
0.0,3.0,0.0,0.0,1.0,1.0,273.8960049998695,1.0,1.0,phase_1,,,,,,,,,,,,,orange,circle
176.0,3.0,2.0,0.0,3.0,3.0,284.9378250000427,1.0,1.0,phase_1,,,,,,,,,,,,,orange,circle
0.0,3.0,0.0,0.0,1.0,1.0,272.0442620000085,1.0,1.0,phase_1,,,,,,,,,,,,,orange,circle
0.0,5.0,0.0,1.0,1.0,1.0,269.173296999952,1.0,1.0,phase_1,,,,,,,,,,,,,blue,diamond
201.0,3.0,2.0,0.0,4.0,4.0,309.2405069999131,1.0,1.0,phase_1,,,,,,,,,,,,,orange,circle
0.0,2.0,0.0,0.0,2.0,2.0,229.5751009999094,1.0,1.0,phase_1,,,,,,,,,,,,,gray,I
215.0,7.0,2.0,1.0,2.0,2.0,301.9017099998109,1.0,1.0,phase_1,,,,,,,,,,,,,green,flipped triangle
197.0,7.0,2.0,1.0,2.0,2.0,248.13058299992,1.0,1.0,phase_1,,,,,,,,,,,,,green,flipped triangle
118.0,2.0,1.0,0.0,3.0,3.0,295.697225999902,1.0,1.0,phase_1,,,,,,,,,,,,,gray,I
409.0,4.0,4.0,0.0,2.0,2.0,261.5495519999058,1.0,1.0,phase_1,,,,,,,,,,,,,white,hexagon
0.0,5.0,0.0,1.0,1.0,1.0,269.3957609999415,1.0,1.0,phase_1,,,,,,,,,,,,,blue,diamond
0.0,1.0,0.0,0.0,2.0,2.0,280.6748020000214,1.0,1.0,phase_1,,,,,,,,,,,,,yellow,triangle
83.0,6.0,1.0,1.0,3.0,3.0,249.9618500000906,1.0,1.0,phase_1,,,,,,,,,,,,,cyan,cross
0.0,7.0,0.0,1.0,2.0,2.0,245.5613770000582,1.0,1.0,phase_1,,,,,,,,,,,,,green,flipped triangle
0.0,3.0,0.0,0.0,2.0,2.0,293.7331260000064,1.0,2.0,phase_1,,,,,,,,,,,,,orange,circle
386.0,4.0,4.0,0.0,2.0,2.0,379.9359189999904,1.0,2.0,phase_1,,,,,,,,,,,,,white,hexagon
0.0,2.0,0.0,0.0,3.0,3.0,368.1073599998399,1.0,1.0,phase_1,,,,,,,,,,,,,gray,I
0.0,1.0,0.0,0.0,2.0,2.0,339.9421990000064,1.0,1.0,phase_1,,,,,,,,,,,,,yellow,triangle
206.0,3.0,2.0,0.0,2.0,2.0,367.3232399999051,1.0,1.0,phase_1,,,,,,,,,,,,,orange,circle
0.0,2.0,0.0,0.0,3.0,3.0,388.3293540000068,1.0,1.0,phase_1,,,,,,,,,,,,,gray,I
82.0,6.0,1.0,1.0,1.0,1.0,290.199881000035,1.0,1.0,phase_1,,,,,,,,,,,,,cyan,cross
56.0,5.0,0.5,1.0,2.0,2.0,309.1003489998911,1.0,1.0,phase_1,,,,,,,,,,,,,blue,diamond
425.0,4.0,4.0,0.0,2.0,2.0,322.3525880000579,1.0,1.0,phase_1,,,,,,,,,,,,,white,hexagon
0.0,4.0,0.0,0.0,2.0,2.0,317.307602000028,1.0,1.0,phase_1,,,,,,,,,,,,,white,hexagon
212.0,3.0,2.0,0.0,4.0,4.0,314.2623329999878,1.0,1.0,phase_1,,,,,,,,,,,,,orange,circle
0.0,8.0,0.0,1.0,2.0,2.0,454.4204849999005,1.0,1.0,phase_1,,,,,,,,,,,,,magenta,square
72.0,1.0,0.5,0.0,4.0,4.0,380.6444459999056,1.0,1.0,phase_1,,,,,,,,,,,,,yellow,triangle
40.0,5.0,0.5,1.0,3.0,3.0,381.8198540000139,1.0,1.0,phase_1,,,,,,,,,,,,,blue,diamond
222.0,7.0,2.0,1.0,4.0,4.0,299.9734439999884,1.0,1.0,phase_1,,,,,,,,,,,,,green,flipped triangle
0.0,6.0,0.0,1.0,4.0,4.0,329.617497000072,1.0,1.0,phase_1,,,,,,,,,,,,,cyan,cross
207.0,7.0,2.0,1.0,1.0,1.0,314.7776339999382,1.0,1.0,phase_1,,,,,,,,,,,,,green,flipped triangle
0.0,8.0,0.0,1.0,3.0,3.0,453.3720909998919,1.0,1.0,phase_1,,,,,,,,,,,,,magenta,square
403.0,8.0,4.0,1.0,4.0,4.0,463.7371960000109,1.0,1.0,phase_1,,,,,,,,,,,,,magenta,square
42.0,5.0,0.5,1.0,2.0,2.0,227.55922599981199,1.0,1.0,phase_1,,,,,,,,,,,,,blue,diamond
381.0,4.0,4.0,0.0,1.0,1.0,255.1080469997941,1.0,1.0,phase_1,,,,,,,,,,,,,white,hexagon
36.0,1.0,0.5,0.0,4.0,4.0,384.7557070000675,1.0,1.0,phase_1,,,,,,,,,,,,,yellow,triangle
206.0,7.0,2.0,1.0,2.0,2.0,295.292315000097,1.0,1.0,phase_1,,,,,,,,,,,,,green,flipped triangle
211.0,3.0,2.0,0.0,1.0,1.0,274.3948610000188,1.0,1.0,phase_1,,,,,,,,,,,,,orange,circle
32.0,5.0,0.5,1.0,1.0,1.0,301.6264389998468,1.0,1.0,phase_1,,,,,,,,,,,,,blue,diamond
71.0,1.0,0.5,0.0,3.0,3.0,323.5344550000718,1.0,1.0,phase_1,,,,,,,,,,,,,yellow,triangle
73.0,1.0,0.5,0.0,2.0,2.0,384.9529139999958,1.0,1.0,phase_1,,,,,,,,,,,,,yellow,triangle
0.0,7.0,0.0,1.0,3.0,3.0,319.8549040000671,1.0,1.0,phase_1,,,,,,,,,,,,,green,flipped triangle
40.0,5.0,0.5,1.0,2.0,2.0,353.3056799999485,1.0,1.0,phase_1,,,,,,,,,,,,,blue,diamond
180.0,3.0,2.0,0.0,3.0,3.0,328.3752479999293,1.0,1.0,phase_1,,,,,,,,,,,,,orange,circle
78.0,6.0,1.0,1.0,1.0,1.0,410.4009679999763,1.0,1.0,phase_1,,,,,,,,,,,,,cyan,cross
0.0,5.0,0.0,1.0,1.0,1.0,303.3652579999852,1.0,1.0,phase_1,,,,,,,,,,,,,blue,diamond
215.0,3.0,2.0,0.0,1.0,1.0,336.0242260000632,1.0,1.0,phase_1,,,,,,,,,,,,,orange,circle
55.0,1.0,0.5,0.0,3.0,3.0,353.9990049998778,1.0,1.0,phase_1,,,,,,,,,,,,,yellow,triangle
47.0,1.0,0.5,0.0,2.0,2.0,267.6763969998319,1.0,1.0,phase_1,,,,,,,,,,,,,yellow,triangle
211.0,7.0,2.0,1.0,4.0,4.0,335.1978900000176,1.0,1.0,phase_1,,,,,,,,,,,,,green,flipped triangle
31.0,1.0,0.5,0.0,2.0,2.0,263.8263800001823,1.0,1.0,phase_1,,,,,,,,,,,,,yellow,triangle
222.0,7.0,2.0,1.0,3.0,3.0,293.4336520002034,1.0,1.0,phase_1,,,,,,,,,,,,,green,flipped triangle
216.0,3.0,2.0,0.0,2.0,2.0,301.1422360000324,1.0,1.0,phase_1,,,,,,,,,,,,,orange,circle
203.0,3.0,2.0,0.0,1.0,1.0,358.7252100001024,1.0,1.0,phase_1,,,,,,,,,,,,,orange,circle
33.0,1.0,0.5,0.0,1.0,1.0,373.0541140000696,1.0,1.0,phase_1,,,,,,,,,,,,,yellow,triangle
36.0,5.0,0.5,1.0,4.0,4.0,362.828798999999,1.0,1.0,phase_1,,,,,,,,,,,,,blue,diamond
416.0,8.0,4.0,1.0,4.0,4.0,341.5494819998912,1.0,1.0,phase_1,,,,,,,,,,,,,magenta,square
391.0,8.0,4.0,1.0,4.0,4.0,334.7542199999225,1.0,1.0,phase_1,,,,,,,,,,,,,magenta,square
92.0,6.0,1.0,1.0,2.0,2.0,393.6484630000905,1.0,1.0,phase_1,,,,,,,,,,,,,cyan,cross
215.0,3.0,2.0,0.0,4.0,4.0,373.3614669999952,1.0,1.0,phase_1,,,,,,,,,,,,,orange,circle
189.0,7.0,2.0,1.0,2.0,2.0,267.8626019999228,1.0,1.0,phase_1,,,,,,,,,,,,,green,flipped triangle
107.0,2.0,1.0,0.0,4.0,4.0,369.7470330000669,1.0,1.0,phase_1,,,,,,,,,,,,,gray,I
414.0,4.0,4.0,0.0,3.0,3.0,339.5443209999484,1.0,1.0,phase_1,,,,,,,,,,,,,white,hexagon
66.0,5.0,0.5,1.0,2.0,2.0,348.9199849998385,1.0,1.0,phase_1,,,,,,,,,,,,,blue,diamond
88.0,6.0,1.0,1.0,1.0,1.0,265.0153029999273,1.0,1.0,phase_1,,,,,,,,,,,,,cyan,cross
191.0,7.0,2.0,1.0,1.0,1.0,378.5195499999645,1.0,1.0,phase_1,,,,,,,,,,,,,green,flipped triangle
409.0,8.0,4.0,1.0,2.0,2.0,318.0759150000085,1.0,1.0,phase_1,,,,,,,,,,,,,magenta,square
215.0,7.0,2.0,1.0,3.0,3.0,351.6850900000463,1.0,1.0,phase_1,,,,,,,,,,,,,green,flipped triangle
217.0,7.0,2.0,1.0,3.0,3.0,309.0802750000421,1.0,1.0,phase_1,,,,,,,,,,,,,green,flipped triangle
66.0,1.0,0.5,0.0,4.0,4.0,382.7527270000246,1.0,1.0,phase_1,,,,,,,,,,,,,yellow,triangle
0.0,4.0,0.0,0.0,3.0,3.0,421.0724039999149,1.0,1.0,phase_1,,,,,,,,,,,,,white,hexagon
0.0,1.0,0.0,0.0,2.0,2.0,329.6650249999402,1.0,1.0,phase_1,,,,,,,,,,,,,yellow,triangle
199.0,7.0,2.0,1.0,1.0,1.0,333.8338000000931,1.0,1.0,phase_1,,,,,,,,,,,,,green,flipped triangle
120.0,6.0,1.0,1.0,2.0,2.0,321.0242430000107,1.0,1.0,phase_1,,,,,,,,,,,,,cyan,cross
75.0,2.0,1.0,0.0,1.0,1.0,359.5026840000628,1.0,1.0,phase_1,,,,,,,,,,,,,gray,I
78.0,2.0,1.0,0.0,2.0,2.0,372.2659340000973,1.0,1.0,phase_1,,,,,,,,,,,,,gray,I
83.0,2.0,1.0,0.0,2.0,2.0,356.8012350001481,1.0,1.0,phase_1,,,,,,,,,,,,,gray,I
183.0,3.0,2.0,0.0,3.0,3.0,370.4638550000254,1.0,1.0,phase_1,,,,,,,,,,,,,orange,circle
0.0,4.0,0.0,0.0,3.0,3.0,349.5653049999419,1.0,1.0,phase_1,,,,,,,,,,,,,white,hexagon
98.0,6.0,1.0,1.0,4.0,4.0,389.6584510000593,1.0,1.0,phase_1,,,,,,,,,,,,,cyan,cross
56.0,1.0,0.5,0.0,4.0,4.0,367.1735170000829,1.0,1.0,phase_1,,,,,,,,,,,,,yellow,triangle
197.0,3.0,2.0,0.0,1.0,1.0,333.8835089998611,1.0,1.0,phase_1,,,,,,,,,,,,,orange,circle
402.0,4.0,4.0,0.0,1.0,1.0,357.0360930000333,1.0,1.0,phase_1,,,,,,,,,,,,,white,hexagon
47.0,5.0,0.5,1.0,3.0,3.0,337.537563000069,1.0,1.0,phase_1,,,,,,,,,,,,,blue,diamond
409.0,8.0,4.0,1.0,2.0,2.0,549.561385999823,1.0,1.0,phase_1,,,,,,,,,,,,,magenta,square
175.0,3.0,2.0,0.0,4.0,4.0,334.0470079999704,1.0,1.0,phase_1,,,,,,,,,,,,,orange,circle
0.0,8.0,0.0,1.0,4.0,4.0,376.6945259999374,1.0,1.0,phase_1,,,,,,,,,,,,,magenta,square
60.0,1.0,0.5,0.0,3.0,3.0,364.4039069999962,2.0,1.0,phase_1,,,,,,,,,,,,,yellow,triangle
77.0,2.0,1.0,0.0,4.0,4.0,367.3651379999683,2.0,1.0,phase_1,,,,,,,,,,,,,gray,I
42.0,1.0,0.5,0.0,1.0,1.0,310.2048709999963,2.0,1.0,phase_1,,,,,,,,,,,,,yellow,triangle
105.0,6.0,1.0,1.0,4.0,4.0,352.2984880000877,2.0,1.0,phase_1,,,,,,,,,,,,,cyan,cross
390.0,4.0,4.0,0.0,2.0,2.0,285.9940519999782,2.0,1.0,phase_1,,,,,,,,,,,,,white,hexagon
221.0,3.0,2.0,0.0,3.0,3.0,306.2101400000756,2.0,1.0,phase_1,,,,,,,,,,,,,orange,circle
211.0,3.0,2.0,0.0,4.0,4.0,313.365628999918,2.0,1.0,phase_1,,,,,,,,,,,,,orange,circle
72.0,5.0,0.5,1.0,4.0,4.0,338.5158609999052,2.0,1.0,phase_1,,,,,,,,,,,,,blue,diamond
39.0,5.0,0.5,1.0,1.0,1.0,415.9728270001324,2.0,1.0,phase_1,,,,,,,,,,,,,blue,diamond
60.0,1.0,0.5,0.0,2.0,2.0,324.4161220000023,2.0,1.0,phase_1,,,,,,,,,,,,,yellow,triangle
0.0,1.0,0.0,0.0,1.0,1.0,494.0838210000038,2.0,1.0,phase_1,,,,,,,,,,,,,yellow,triangle
121.0,6.0,1.0,1.0,4.0,4.0,410.8128319999196,2.0,1.0,phase_1,,,,,,,,,,,,,cyan,cross
0.0,2.0,0.0,0.0,4.0,4.0,339.2016249999869,2.0,1.0,phase_1,,,,,,,,,,,,,gray,I
222.0,3.0,2.0,0.0,2.0,2.0,310.6030810001812,2.0,1.0,phase_1,,,,,,,,,,,,,orange,circle
0.0,4.0,0.0,0.0,4.0,4.0,319.2056400000638,2.0,1.0,phase_1,,,,,,,,,,,,,white,hexagon
98.0,2.0,1.0,0.0,2.0,2.0,300.9380070000134,2.0,1.0,phase_1,,,,,,,,,,,,,gray,I
199.0,7.0,2.0,1.0,3.0,3.0,279.7524129998692,2.0,1.0,phase_1,,,,,,,,,,,,,green,flipped triangle
0.0,5.0,0.0,1.0,3.0,3.0,334.8903209998752,2.0,2.0,phase_1,,,,,,,,,,,,,blue,diamond
425.0,8.0,4.0,1.0,1.0,1.0,348.5000369998943,2.0,1.0,phase_1,,,,,,,,,,,,,magenta,square
26.0,5.0,0.5,1.0,3.0,3.0,340.985197000009,2.0,1.0,phase_1,,,,,,,,,,,,,blue,diamond
107.0,6.0,1.0,1.0,1.0,1.0,339.845159999868,2.0,1.0,phase_1,,,,,,,,,,,,,cyan,cross
76.0,6.0,1.0,1.0,4.0,4.0,319.88487999979037,2.0,1.0,phase_1,,,,,,,,,,,,,cyan,cross
0.0,6.0,0.0,1.0,4.0,4.0,341.8310029999247,2.0,1.0,phase_1,,,,,,,,,,,,,cyan,cross
53.0,1.0,0.5,0.0,4.0,4.0,358.8077039999007,2.0,1.0,phase_1,,,,,,,,,,,,,yellow,triangle
181.0,3.0,2.0,0.0,1.0,1.0,365.6137360001139,2.0,1.0,phase_1,,,,,,,,,,,,,orange,circle
51.0,1.0,0.5,0.0,4.0,4.0,315.2069489999576,2.0,1.0,phase_1,,,,,,,,,,,,,yellow,triangle
110.0,2.0,1.0,0.0,1.0,1.0,357.5599140001486,2.0,1.0,phase_1,,,,,,,,,,,,,gray,I
0.0,4.0,0.0,0.0,4.0,4.0,367.5857499999893,2.0,1.0,phase_1,,,,,,,,,,,,,white,hexagon
412.0,4.0,4.0,0.0,2.0,2.0,400.1344000000699,2.0,1.0,phase_1,,,,,,,,,,,,,white,hexagon
202.0,3.0,2.0,0.0,3.0,3.0,337.5069100000019,2.0,1.0,phase_1,,,,,,,,,,,,,orange,circle
412.0,4.0,4.0,0.0,1.0,1.0,304.1822909999609,2.0,1.0,phase_1,,,,,,,,,,,,,white,hexagon
97.0,2.0,1.0,0.0,4.0,4.0,554.738886999985,2.0,1.0,phase_1,,,,,,,,,,,,,gray,I
0.0,1.0,0.0,0.0,2.0,2.0,326.3242030000128,2.0,1.0,phase_1,,,,,,,,,,,,,yellow,triangle
0.0,2.0,0.0,0.0,3.0,3.0,318.4454530000948,2.0,1.0,phase_1,,,,,,,,,,,,,gray,I
183.0,7.0,2.0,1.0,1.0,1.0,367.8279540001767,2.0,1.0,phase_1,,,,,,,,,,,,,green,flipped triangle
0.0,3.0,0.0,0.0,4.0,4.0,331.1450159999367,2.0,1.0,phase_1,,,,,,,,,,,,,orange,circle
72.0,5.0,0.5,1.0,4.0,4.0,340.432809999811,2.0,1.0,phase_1,,,,,,,,,,,,,blue,diamond
46.0,5.0,0.5,1.0,3.0,3.0,310.8265199998641,2.0,1.0,phase_1,,,,,,,,,,,,,blue,diamond
70.0,1.0,0.5,0.0,1.0,1.0,388.6665239999729,2.0,1.0,phase_1,,,,,,,,,,,,,yellow,triangle
119.0,2.0,1.0,0.0,4.0,4.0,395.4648640001323,2.0,1.0,phase_1,,,,,,,,,,,,,gray,I
0.0,2.0,0.0,0.0,1.0,1.0,392.6116759998876,2.0,1.0,phase_1,,,,,,,,,,,,,gray,I
0.0,8.0,0.0,1.0,3.0,3.0,361.7223889998513,2.0,1.0,phase_1,,,,,,,,,,,,,magenta,square
79.0,2.0,1.0,0.0,3.0,3.0,346.8496940001841,2.0,1.0,phase_1,,,,,,,,,,,,,gray,I
223.0,7.0,2.0,1.0,2.0,2.0,350.0214200000755,2.0,1.0,phase_1,,,,,,,,,,,,,green,flipped triangle
83.0,2.0,1.0,0.0,3.0,3.0,453.2780819999971,2.0,1.0,phase_1,,,,,,,,,,,,,gray,I
121.0,6.0,1.0,1.0,2.0,2.0,399.7697709999102,2.0,1.0,phase_1,,,,,,,,,,,,,cyan,cross
49.0,1.0,0.5,0.0,2.0,2.0,337.2445350000816,2.0,1.0,phase_1,,,,,,,,,,,,,yellow,triangle
77.0,6.0,1.0,1.0,3.0,3.0,325.7004530000813,2.0,1.0,phase_1,,,,,,,,,,,,,cyan,cross
40.0,1.0,0.5,0.0,2.0,2.0,331.0440150000886,2.0,1.0,phase_1,,,,,,,,,,,,,yellow,triangle
0.0,7.0,0.0,1.0,4.0,4.0,307.2926570000618,2.0,1.0,phase_1,,,,,,,,,,,,,green,flipped triangle
109.0,6.0,1.0,1.0,4.0,4.0,330.024923999872,2.0,1.0,phase_1,,,,,,,,,,,,,cyan,cross
79.0,6.0,1.0,1.0,1.0,1.0,366.268294000065,2.0,1.0,phase_1,,,,,,,,,,,,,cyan,cross
39.0,1.0,0.5,0.0,1.0,1.0,510.68480000003547,2.0,1.0,phase_1,,,,,,,,,,,,,yellow,triangle
101.0,2.0,1.0,0.0,1.0,1.0,369.8757430001933,2.0,1.0,phase_1,,,,,,,,,,,,,gray,I
112.0,6.0,1.0,1.0,3.0,3.0,290.000923999969,2.0,1.0,phase_1,,,,,,,,,,,,,cyan,cross
75.0,5.0,0.5,1.0,2.0,2.0,390.795277000052,2.0,1.0,phase_1,,,,,,,,,,,,,blue,diamond
120.0,2.0,1.0,0.0,3.0,3.0,539.7549509998498,2.0,1.0,phase_1,,,,,,,,,,,,,gray,I
200.0,3.0,2.0,0.0,2.0,2.0,413.4663010001986,2.0,1.0,phase_1,,,,,,,,,,,,,orange,circle
109.0,2.0,1.0,0.0,2.0,2.0,347.7819619999991,2.0,1.0,phase_1,,,,,,,,,,,,,gray,I
125.0,2.0,1.0,0.0,4.0,4.0,442.379591999952,2.0,1.0,phase_1,,,,,,,,,,,,,gray,I
114.0,2.0,1.0,0.0,1.0,1.0,581.5520329999799,2.0,1.0,phase_1,,,,,,,,,,,,,gray,I
93.0,2.0,1.0,0.0,1.0,1.0,489.1830139999911,2.0,1.0,phase_1,,,,,,,,,,,,,gray,I
0.0,2.0,0.0,0.0,1.0,1.0,519.9728909999521,2.0,1.0,phase_1,,,,,,,,,,,,,gray,I
90.0,6.0,1.0,1.0,4.0,4.0,350.2756369998678,2.0,1.0,phase_1,,,,,,,,,,,,,cyan,cross
117.0,2.0,1.0,0.0,3.0,3.0,319.3434559998422,2.0,1.0,phase_1,,,,,,,,,,,,,gray,I
204.0,7.0,2.0,1.0,4.0,4.0,375.2758280002126,2.0,1.0,phase_1,,,,,,,,,,,,,green,flipped triangle
0.0,8.0,0.0,1.0,1.0,1.0,353.114929999947,2.0,1.0,phase_1,,,,,,,,,,,,,magenta,square
0.0,6.0,0.0,1.0,4.0,4.0,348.4576490000108,2.0,1.0,phase_1,,,,,,,,,,,,,cyan,cross
67.0,5.0,0.5,1.0,4.0,4.0,325.2224739999292,2.0,1.0,phase_1,,,,,,,,,,,,,blue,diamond
100.0,6.0,1.0,1.0,1.0,1.0,396.2210280001272,2.0,1.0,phase_1,,,,,,,,,,,,,cyan,cross
53.0,5.0,0.5,1.0,1.0,1.0,360.7884570001261,2.0,1.0,phase_1,,,,,,,,,,,,,blue,diamond
0.0,8.0,0.0,1.0,1.0,1.0,367.745030999913,2.0,1.0,phase_1,,,,,,,,,,,,,magenta,square
38.0,1.0,0.5,0.0,2.0,2.0,344.9207969999861,2.0,1.0,phase_1,,,,,,,,,,,,,yellow,triangle
0.0,2.0,0.0,0.0,2.0,2.0,331.9105519999539,2.0,1.0,phase_1,,,,,,,,,,,,,gray,I
76.0,2.0,1.0,0.0,4.0,4.0,400.8217690000037,2.0,1.0,phase_1,,,,,,,,,,,,,gray,I
125.0,6.0,1.0,1.0,3.0,3.0,297.2617279999667,2.0,1.0,phase_1,,,,,,,,,,,,,cyan,cross
101.0,6.0,1.0,1.0,1.0,1.0,275.6117199999153,2.0,1.0,phase_1,,,,,,,,,,,,,cyan,cross
40.0,1.0,0.5,0.0,2.0,2.0,299.9467909999112,2.0,1.0,phase_1,,,,,,,,,,,,,yellow,triangle
88.0,2.0,1.0,0.0,2.0,2.0,289.6894509999583,2.0,1.0,phase_1,,,,,,,,,,,,,gray,I
0.0,2.0,0.0,0.0,2.0,2.0,317.495160000135,2.0,1.0,phase_1,,,,,,,,,,,,,gray,I
182.0,7.0,2.0,1.0,3.0,3.0,306.735271999969,2.0,1.0,phase_1,,,,,,,,,,,,,green,flipped triangle
402.0,8.0,4.0,1.0,4.0,4.0,340.9368100001302,2.0,1.0,phase_1,,,,,,,,,,,,,magenta,square
0.0,4.0,0.0,0.0,1.0,1.0,405.5483120000644,2.0,1.0,phase_1,,,,,,,,,,,,,white,hexagon
0.0,7.0,0.0,1.0,3.0,3.0,326.2871119998181,2.0,1.0,phase_1,,,,,,,,,,,,,green,flipped triangle
189.0,3.0,2.0,0.0,4.0,4.0,321.1168840000482,2.0,1.0,phase_1,,,,,,,,,,,,,orange,circle
378.0,8.0,4.0,1.0,2.0,2.0,287.9444689999673,2.0,1.0,phase_1,,,,,,,,,,,,,magenta,square
384.0,4.0,4.0,0.0,4.0,4.0,329.9546390001069,2.0,1.0,phase_1,,,,,,,,,,,,,white,hexagon
402.0,4.0,4.0,0.0,4.0,4.0,323.9867459997185,2.0,1.0,phase_1,,,,,,,,,,,,,white,hexagon
397.0,8.0,4.0,1.0,2.0,2.0,305.6426059997648,2.0,1.0,phase_1,,,,,,,,,,,,,magenta,square
200.0,7.0,2.0,1.0,4.0,4.0,354.952129999674,2.0,1.0,phase_1,,,,,,,,,,,,,green,flipped triangle
0.0,7.0,0.0,1.0,1.0,1.0,394.4185800000923,2.0,2.0,phase_1,,,,,,,,,,,,,green,flipped triangle
399.0,8.0,4.0,1.0,4.0,4.0,426.8569030000435,2.0,1.0,phase_1,,,,,,,,,,,,,magenta,square
421.0,4.0,4.0,0.0,2.0,2.0,308.8510029997451,2.0,1.0,phase_1,,,,,,,,,,,,,white,hexagon
0.0,5.0,0.0,1.0,2.0,2.0,396.7369079996388,2.0,1.0,phase_1,,,,,,,,,,,,,blue,diamond
105.0,2.0,1.0,0.0,1.0,1.0,392.7267959998062,2.0,1.0,phase_1,,,,,,,,,,,,,gray,I
0.0,6.0,0.0,1.0,3.0,3.0,353.2869240002583,2.0,1.0,phase_1,,,,,,,,,,,,,cyan,cross
412.0,8.0,4.0,1.0,1.0,1.0,301.2719950002065,2.0,1.0,phase_1,,,,,,,,,,,,,magenta,square
390.0,8.0,4.0,1.0,3.0,3.0,336.3103839997166,2.0,1.0,phase_1,,,,,,,,,,,,,magenta,square
101.0,6.0,1.0,1.0,2.0,2.0,363.5877380002057,2.0,1.0,phase_1,,,,,,,,,,,,,cyan,cross
178.0,3.0,2.0,0.0,1.0,1.0,343.1278969997038,2.0,1.0,phase_1,,,,,,,,,,,,,orange,circle
72.0,1.0,0.5,0.0,3.0,3.0,397.8864440000507,3.0,1.0,phase_1,,,,,,,,,,,,,yellow,triangle
120.0,6.0,1.0,1.0,2.0,2.0,366.119257000264,3.0,1.0,phase_1,,,,,,,,,,,,,cyan,cross
28.0,5.0,0.5,1.0,2.0,2.0,354.3148029998519,3.0,1.0,phase_1,,,,,,,,,,,,,blue,diamond
54.0,5.0,0.5,1.0,1.0,1.0,285.0430240000605,3.0,1.0,phase_1,,,,,,,,,,,,,blue,diamond
73.0,5.0,0.5,1.0,4.0,4.0,334.0271430001849,3.0,1.0,phase_1,,,,,,,,,,,,,blue,diamond
31.0,1.0,0.5,0.0,2.0,2.0,272.5709860001188,3.0,1.0,phase_1,,,,,,,,,,,,,yellow,triangle
0.0,6.0,0.0,1.0,2.0,2.0,292.2216479996677,3.0,1.0,phase_1,,,,,,,,,,,,,cyan,cross
211.0,7.0,2.0,1.0,3.0,3.0,443.9510530000916,3.0,1.0,phase_1,,,,,,,,,,,,,green,flipped triangle
28.0,1.0,0.5,0.0,3.0,3.0,328.2520080001632,3.0,1.0,phase_1,,,,,,,,,,,,,yellow,triangle
402.0,8.0,4.0,1.0,4.0,4.0,318.0361529998663,3.0,1.0,phase_1,,,,,,,,,,,,,magenta,square
63.0,1.0,0.5,0.0,3.0,3.0,362.8160799999023,3.0,1.0,phase_1,,,,,,,,,,,,,yellow,triangle
49.0,5.0,0.5,1.0,4.0,4.0,320.5806369996935,3.0,1.0,phase_1,,,,,,,,,,,,,blue,diamond
98.0,6.0,1.0,1.0,4.0,4.0,312.3640719995819,3.0,1.0,phase_1,,,,,,,,,,,,,cyan,cross
216.0,7.0,2.0,1.0,4.0,4.0,477.4017679997087,3.0,1.0,phase_1,,,,,,,,,,,,,green,flipped triangle
181.0,7.0,2.0,1.0,4.0,4.0,332.8414520001388,3.0,1.0,phase_1,,,,,,,,,,,,,green,flipped triangle
403.0,4.0,4.0,0.0,3.0,3.0,296.9609570000102,3.0,1.0,phase_1,,,,,,,,,,,,,white,hexagon
408.0,8.0,4.0,1.0,1.0,1.0,330.9148509997612,3.0,1.0,phase_1,,,,,,,,,,,,,magenta,square
31.0,5.0,0.5,1.0,3.0,3.0,269.2137199996978,3.0,1.0,phase_1,,,,,,,,,,,,,blue,diamond
0.0,4.0,0.0,0.0,2.0,2.0,341.9787230000111,3.0,1.0,phase_1,,,,,,,,,,,,,white,hexagon
175.0,7.0,2.0,1.0,2.0,2.0,352.6366840001174,3.0,1.0,phase_1,,,,,,,,,,,,,green,flipped triangle
60.0,5.0,0.5,1.0,1.0,1.0,362.1148340002946,3.0,1.0,phase_1,,,,,,,,,,,,,blue,diamond
82.0,2.0,1.0,0.0,2.0,2.0,301.0732160000771,3.0,1.0,phase_1,,,,,,,,,,,,,gray,I
186.0,7.0,2.0,1.0,1.0,1.0,303.229943000133,3.0,1.0,phase_1,,,,,,,,,,,,,green,flipped triangle
421.0,8.0,4.0,1.0,1.0,1.0,377.085327000259,3.0,1.0,phase_1,,,,,,,,,,,,,magenta,square
192.0,7.0,2.0,1.0,1.0,1.0,422.0116149999739,3.0,1.0,phase_1,,,,,,,,,,,,,green,flipped triangle
0.0,6.0,0.0,1.0,4.0,4.0,400.7081820000167,3.0,1.0,phase_1,,,,,,,,,,,,,cyan,cross
201.0,7.0,2.0,1.0,1.0,1.0,320.5613840000296,3.0,1.0,phase_1,,,,,,,,,,,,,green,flipped triangle
387.0,4.0,4.0,0.0,1.0,1.0,350.2549170002567,3.0,1.0,phase_1,,,,,,,,,,,,,white,hexagon
55.0,5.0,0.5,1.0,3.0,3.0,316.7099590000362,3.0,1.0,phase_1,,,,,,,,,,,,,blue,diamond
377.0,8.0,4.0,1.0,1.0,1.0,274.4825729996591,3.0,1.0,phase_1,,,,,,,,,,,,,magenta,square
93.0,6.0,1.0,1.0,1.0,1.0,390.7019369999034,3.0,1.0,phase_1,,,,,,,,,,,,,cyan,cross
202.0,7.0,2.0,1.0,2.0,2.0,351.720011999987,3.0,1.0,phase_1,,,,,,,,,,,,,green,flipped triangle
222.0,3.0,2.0,0.0,4.0,4.0,390.558646000045,3.0,1.0,phase_1,,,,,,,,,,,,,orange,circle
76.0,2.0,1.0,0.0,4.0,4.0,404.0983579998283,3.0,1.0,phase_1,,,,,,,,,,,,,gray,I
30.0,5.0,0.5,1.0,3.0,3.0,337.3859469998024,3.0,1.0,phase_1,,,,,,,,,,,,,blue,diamond
395.0,8.0,4.0,1.0,3.0,3.0,383.716725999875,3.0,1.0,phase_1,,,,,,,,,,,,,magenta,square
98.0,6.0,1.0,1.0,3.0,3.0,331.0301780002191,3.0,1.0,phase_1,,,,,,,,,,,,,cyan,cross
63.0,1.0,0.5,0.0,3.0,3.0,276.6077700002824,3.0,1.0,phase_1,,,,,,,,,,,,,yellow,triangle
196.0,7.0,2.0,1.0,3.0,3.0,279.3049199999586,3.0,1.0,phase_1,,,,,,,,,,,,,green,flipped triangle
386.0,8.0,4.0,1.0,3.0,3.0,467.326433999915,3.0,1.0,phase_1,,,,,,,,,,,,,magenta,square
32.0,1.0,0.5,0.0,4.0,4.0,321.0790159996577,3.0,1.0,phase_1,,,,,,,,,,,,,yellow,triangle
192.0,3.0,2.0,0.0,2.0,2.0,318.5777010003221,3.0,1.0,phase_1,,,,,,,,,,,,,orange,circle
206.0,3.0,2.0,0.0,2.0,2.0,350.8772750001299,3.0,1.0,phase_1,,,,,,,,,,,,,orange,circle
407.0,8.0,4.0,1.0,3.0,3.0,327.8681950000646,3.0,1.0,phase_1,,,,,,,,,,,,,magenta,square
0.0,7.0,0.0,1.0,1.0,1.0,290.5630449999989,3.0,1.0,phase_1,,,,,,,,,,,,,green,flipped triangle
101.0,2.0,1.0,0.0,1.0,1.0,350.0011589999303,3.0,1.0,phase_1,,,,,,,,,,,,,gray,I
56.0,1.0,0.5,0.0,1.0,1.0,272.5219149997429,3.0,1.0,phase_1,,,,,,,,,,,,,yellow,triangle
204.0,3.0,2.0,0.0,3.0,3.0,294.5354840003347,3.0,1.0,phase_1,,,,,,,,,,,,,orange,circle
425.0,4.0,4.0,0.0,3.0,3.0,307.8039199999693,3.0,1.0,phase_1,,,,,,,,,,,,,white,hexagon
0.0,4.0,0.0,0.0,2.0,2.0,402.3037830002067,3.0,1.0,phase_1,,,,,,,,,,,,,white,hexagon
217.0,3.0,2.0,0.0,4.0,4.0,319.838355000229,3.0,1.0,phase_1,,,,,,,,,,,,,orange,circle
182.0,3.0,2.0,0.0,1.0,1.0,360.7253420000234,3.0,1.0,phase_1,,,,,,,,,,,,,orange,circle
0.0,6.0,0.0,1.0,2.0,2.0,311.5423150002243,3.0,1.0,phase_1,,,,,,,,,,,,,cyan,cross
404.0,8.0,4.0,1.0,3.0,3.0,332.4342780001643,3.0,1.0,phase_1,,,,,,,,,,,,,magenta,square
195.0,7.0,2.0,1.0,4.0,4.0,290.8578080000552,3.0,1.0,phase_1,,,,,,,,,,,,,green,flipped triangle
409.0,4.0,4.0,0.0,3.0,3.0,303.8971439996203,3.0,2.0,phase_1,,,,,,,,,,,,,white,hexagon
118.0,6.0,1.0,1.0,1.0,1.0,312.9549300001599,3.0,1.0,phase_1,,,,,,,,,,,,,cyan,cross
0.0,8.0,0.0,1.0,2.0,2.0,541.0140819999469,3.0,2.0,phase_1,,,,,,,,,,,,,magenta,square
223.0,3.0,2.0,0.0,3.0,3.0,350.1125099996898,3.0,1.0,phase_1,,,,,,,,,,,,,orange,circle
187.0,3.0,2.0,0.0,3.0,3.0,307.347368000137,3.0,1.0,phase_1,,,,,,,,,,,,,orange,circle
26.0,1.0,0.5,0.0,3.0,3.0,341.426513999977,3.0,1.0,phase_1,,,,,,,,,,,,,yellow,triangle
94.0,2.0,1.0,0.0,2.0,2.0,373.56323199992397,3.0,1.0,phase_1,,,,,,,,,,,,,gray,I
196.0,3.0,2.0,0.0,2.0,2.0,336.092643000029,3.0,1.0,phase_1,,,,,,,,,,,,,orange,circle
195.0,3.0,2.0,0.0,3.0,3.0,348.4038600004169,3.0,1.0,phase_1,,,,,,,,,,,,,orange,circle
396.0,4.0,4.0,0.0,3.0,3.0,363.448230999893,3.0,1.0,phase_1,,,,,,,,,,,,,white,hexagon
0.0,1.0,0.0,0.0,2.0,2.0,348.105877999842,3.0,1.0,phase_1,,,,,,,,,,,,,yellow,triangle
98.0,2.0,1.0,0.0,2.0,2.0,444.953741000063,3.0,1.0,phase_1,,,,,,,,,,,,,gray,I
425.0,8.0,4.0,1.0,2.0,2.0,359.4528789999458,3.0,1.0,phase_1,,,,,,,,,,,,,magenta,square
384.0,8.0,4.0,1.0,2.0,2.0,336.6415200002848,3.0,1.0,phase_1,,,,,,,,,,,,,magenta,square
119.0,6.0,1.0,1.0,2.0,2.0,288.3091429998785,3.0,1.0,phase_1,,,,,,,,,,,,,cyan,cross
116.0,6.0,1.0,1.0,2.0,2.0,311.7363159999513,3.0,1.0,phase_1,,,,,,,,,,,,,cyan,cross
378.0,4.0,4.0,0.0,4.0,4.0,361.2791359996663,3.0,1.0,phase_1,,,,,,,,,,,,,white,hexagon
97.0,6.0,1.0,1.0,2.0,2.0,315.1958039998135,3.0,1.0,phase_1,,,,,,,,,,,,,cyan,cross
0.0,5.0,0.0,1.0,1.0,1.0,320.873988999665,3.0,1.0,phase_1,,,,,,,,,,,,,blue,diamond
67.0,1.0,0.5,0.0,1.0,1.0,323.1245120000494,3.0,1.0,phase_1,,,,,,,,,,,,,yellow,triangle
0.0,5.0,0.0,1.0,1.0,1.0,355.129259000023,3.0,1.0,phase_1,,,,,,,,,,,,,blue,diamond
207.0,7.0,2.0,1.0,2.0,2.0,292.2457290001148,3.0,1.0,phase_1,,,,,,,,,,,,,green,flipped triangle
178.0,7.0,2.0,1.0,3.0,3.0,322.4911729998894,3.0,1.0,phase_1,,,,,,,,,,,,,green,flipped triangle
412.0,8.0,4.0,1.0,1.0,1.0,290.6732299998111,3.0,1.0,phase_1,,,,,,,,,,,,,magenta,square
47.0,1.0,0.5,0.0,3.0,3.0,357.2550159997263,3.0,1.0,phase_1,,,,,,,,,,,,,yellow,triangle
414.0,8.0,4.0,1.0,1.0,1.0,319.9879029998556,3.0,1.0,phase_1,,,,,,,,,,,,,magenta,square
121.0,2.0,1.0,0.0,3.0,3.0,506.7297690002306,3.0,1.0,phase_1,,,,,,,,,,,,,gray,I
417.0,4.0,4.0,0.0,4.0,4.0,317.6001279998672,3.0,1.0,phase_1,,,,,,,,,,,,,white,hexagon
180.0,7.0,2.0,1.0,2.0,2.0,318.7907319997975,3.0,1.0,phase_1,,,,,,,,,,,,,green,flipped triangle
186.0,3.0,2.0,0.0,2.0,2.0,366.9976169999245,3.0,1.0,phase_1,,,,,,,,,,,,,orange,circle
56.0,5.0,0.5,1.0,2.0,2.0,370.6952419997833,3.0,1.0,phase_1,,,,,,,,,,,,,blue,diamond
382.0,4.0,4.0,0.0,1.0,1.0,254.93662000008038,3.0,1.0,phase_1,,,,,,,,,,,,,white,hexagon
187.0,7.0,2.0,1.0,1.0,1.0,327.7445930002614,3.0,1.0,phase_1,,,,,,,,,,,,,green,flipped triangle
407.0,4.0,4.0,0.0,1.0,1.0,309.7142530000383,3.0,1.0,phase_1,,,,,,,,,,,,,white,hexagon
0.0,4.0,0.0,0.0,1.0,1.0,317.7284140001575,3.0,1.0,phase_1,,,,,,,,,,,,,white,hexagon
70.0,5.0,0.5,1.0,4.0,4.0,372.5101119998726,3.0,1.0,phase_1,,,,,,,,,,,,,blue,diamond
53.0,1.0,0.5,0.0,4.0,4.0,291.6697350001414,3.0,1.0,phase_1,,,,,,,,,,,,,yellow,triangle
399.0,4.0,4.0,0.0,3.0,3.0,294.2841320000298,3.0,1.0,phase_1,,,,,,,,,,,,,white,hexagon
0.0,1.0,0.0,0.0,1.0,1.0,317.8050829997119,3.0,1.0,phase_1,,,,,,,,,,,,,yellow,triangle
402.0,8.0,4.0,1.0,2.0,2.0,290.1177029998507,3.0,1.0,phase_1,,,,,,,,,,,,,magenta,square
0.0,1.0,0.0,0.0,4.0,4.0,375.4178529998171,3.0,1.0,phase_1,,,,,,,,,,,,,yellow,triangle
48.0,1.0,0.5,0.0,1.0,1.0,290.488600000117,3.0,1.0,phase_1,,,,,,,,,,,,,yellow,triangle
76.0,6.0,1.0,1.0,1.0,1.0,288.2313879999856,3.0,1.0,phase_1,,,,,,,,,,,,,cyan,cross
207.0,3.0,2.0,0.0,2.0,2.0,291.8306639999173,3.0,1.0,phase_1,,,,,,,,,,,,,orange,circle
53.0,5.0,0.5,1.0,4.0,4.0,369.6044770003936,3.0,1.0,phase_1,,,,,,,,,,,,,blue,diamond
397.0,8.0,4.0,1.0,2.0,2.0,352.2266840000156,4.0,1.0,phase_1,,,,,,,,,,,,,magenta,square
0.0,1.0,0.0,0.0,1.0,1.0,279.4296189999841,4.0,1.0,phase_1,,,,,,,,,,,,,yellow,triangle
107.0,2.0,1.0,0.0,2.0,2.0,251.8653870001799,4.0,1.0,phase_1,,,,,,,,,,,,,gray,I
405.0,8.0,4.0,1.0,3.0,3.0,312.1315049997974,4.0,1.0,phase_1,,,,,,,,,,,,,magenta,square
48.0,5.0,0.5,1.0,4.0,4.0,396.0807249995923,4.0,2.0,phase_1,,,,,,,,,,,,,blue,diamond
0.0,7.0,0.0,1.0,3.0,3.0,335.356328999751,4.0,1.0,phase_1,,,,,,,,,,,,,green,flipped triangle
376.0,8.0,4.0,1.0,4.0,4.0,375.6292729999586,4.0,1.0,phase_1,,,,,,,,,,,,,magenta,square
90.0,2.0,1.0,0.0,1.0,1.0,340.1161570000113,4.0,1.0,phase_1,,,,,,,,,,,,,gray,I
223.0,7.0,2.0,1.0,4.0,4.0,337.4018749996139,4.0,1.0,phase_1,,,,,,,,,,,,,green,flipped triangle
0.0,8.0,0.0,1.0,4.0,4.0,316.0663539997586,4.0,1.0,phase_1,,,,,,,,,,,,,magenta,square
38.0,5.0,0.5,1.0,3.0,3.0,336.940395000056,4.0,1.0,phase_1,,,,,,,,,,,,,blue,diamond
195.0,3.0,2.0,0.0,1.0,1.0,303.17857,4.0,1.0,phase_1,,,,,,,,,,,,,orange,circle
54.0,1.0,0.5,0.0,1.0,1.0,352.9042120003396,4.0,1.0,phase_1,,,,,,,,,,,,,yellow,triangle
404.0,4.0,4.0,0.0,1.0,1.0,360.4129499999544,4.0,1.0,phase_1,,,,,,,,,,,,,white,hexagon
405.0,4.0,4.0,0.0,4.0,4.0,384.3692840000585,4.0,1.0,phase_1,,,,,,,,,,,,,white,hexagon
391.0,8.0,4.0,1.0,3.0,3.0,385.264456999721,4.0,1.0,phase_1,,,,,,,,,,,,,magenta,square
88.0,6.0,1.0,1.0,4.0,4.0,379.8452830001224,4.0,1.0,phase_1,,,,,,,,,,,,,cyan,cross
412.0,4.0,4.0,0.0,2.0,2.0,322.0087469999271,4.0,1.0,phase_1,,,,,,,,,,,,,white,hexagon
0.0,8.0,0.0,1.0,4.0,4.0,366.1865549997856,4.0,1.0,phase_1,,,,,,,,,,,,,magenta,square
376.0,4.0,4.0,0.0,4.0,4.0,414.161742000033,4.0,1.0,phase_1,,,,,,,,,,,,,white,hexagon
46.0,1.0,0.5,0.0,1.0,1.0,388.7566549997245,4.0,1.0,phase_1,,,,,,,,,,,,,yellow,triangle
203.0,7.0,2.0,1.0,3.0,3.0,332.2901430001366,4.0,1.0,phase_1,,,,,,,,,,,,,green,flipped triangle
376.0,8.0,4.0,1.0,1.0,1.0,356.2018689999604,4.0,1.0,phase_1,,,,,,,,,,,,,magenta,square
416.0,4.0,4.0,0.0,1.0,1.0,386.0209199997371,4.0,1.0,phase_1,,,,,,,,,,,,,white,hexagon
116.0,2.0,1.0,0.0,4.0,4.0,584.8215659998459,4.0,1.0,phase_1,,,,,,,,,,,,,gray,I
187.0,7.0,2.0,1.0,1.0,1.0,433.4488479998981,4.0,1.0,phase_1,,,,,,,,,,,,,green,flipped triangle
71.0,5.0,0.5,1.0,3.0,3.0,336.5221409999321,4.0,1.0,phase_1,,,,,,,,,,,,,blue,diamond
0.0,5.0,0.0,1.0,2.0,2.0,394.3498950002322,4.0,1.0,phase_1,,,,,,,,,,,,,blue,diamond
199.0,3.0,2.0,0.0,4.0,4.0,339.835973999925,4.0,1.0,phase_1,,,,,,,,,,,,,orange,circle
187.0,3.0,2.0,0.0,4.0,4.0,343.4718429998611,4.0,1.0,phase_1,,,,,,,,,,,,,orange,circle
83.0,6.0,1.0,1.0,3.0,3.0,309.8074919998907,4.0,1.0,phase_1,,,,,,,,,,,,,cyan,cross
0.0,2.0,0.0,0.0,1.0,1.0,450.1556440000058,4.0,1.0,phase_1,,,,,,,,,,,,,gray,I
408.0,4.0,4.0,0.0,4.0,4.0,521.8604470001083,4.0,1.0,phase_1,,,,,,,,,,,,,white,hexagon
94.0,6.0,1.0,1.0,3.0,3.0,312.8162650000377,4.0,1.0,phase_1,,,,,,,,,,,,,cyan,cross
207.0,3.0,2.0,0.0,2.0,2.0,348.5279999999875,4.0,1.0,phase_1,,,,,,,,,,,,,orange,circle
0.0,7.0,0.0,1.0,4.0,4.0,315.7584969999334,4.0,1.0,phase_1,,,,,,,,,,,,,green,flipped triangle
39.0,1.0,0.5,0.0,2.0,2.0,323.9211980003347,4.0,1.0,phase_1,,,,,,,,,,,,,yellow,triangle
114.0,6.0,1.0,1.0,3.0,3.0,457.2116469998946,4.0,1.0,phase_1,,,,,,,,,,,,,cyan,cross
114.0,6.0,1.0,1.0,4.0,4.0,326.9591400003264,4.0,1.0,phase_1,,,,,,,,,,,,,cyan,cross
113.0,2.0,1.0,0.0,1.0,1.0,402.4254190003375,4.0,1.0,phase_1,,,,,,,,,,,,,gray,I
51.0,5.0,0.5,1.0,1.0,1.0,383.3623529999386,4.0,1.0,phase_1,,,,,,,,,,,,,blue,diamond
416.0,8.0,4.0,1.0,3.0,3.0,333.9877369999158,4.0,1.0,phase_1,,,,,,,,,,,,,magenta,square
381.0,8.0,4.0,1.0,3.0,3.0,329.6606220001195,4.0,1.0,phase_1,,,,,,,,,,,,,magenta,square
88.0,2.0,1.0,0.0,3.0,3.0,377.7017799998248,4.0,1.0,phase_1,,,,,,,,,,,,,gray,I
417.0,8.0,4.0,1.0,2.0,2.0,378.2984019999276,4.0,1.0,phase_1,,,,,,,,,,,,,magenta,square
391.0,4.0,4.0,0.0,4.0,4.0,365.3793270000278,4.0,1.0,phase_1,,,,,,,,,,,,,white,hexagon
0.0,4.0,0.0,0.0,2.0,2.0,364.6040439998614,4.0,1.0,phase_1,,,,,,,,,,,,,white,hexagon
0.0,3.0,0.0,0.0,1.0,1.0,368.5578059998988,4.0,1.0,phase_1,,,,,,,,,,,,,orange,circle
0.0,8.0,0.0,1.0,2.0,2.0,304.3569659998866,4.0,1.0,phase_1,,,,,,,,,,,,,magenta,square
35.0,5.0,0.5,1.0,2.0,2.0,286.1350230000425,4.0,1.0,phase_1,,,,,,,,,,,,,blue,diamond
33.0,5.0,0.5,1.0,3.0,3.0,341.162895999787,4.0,1.0,phase_1,,,,,,,,,,,,,blue,diamond
110.0,6.0,1.0,1.0,3.0,3.0,318.2956579998972,4.0,1.0,phase_1,,,,,,,,,,,,,cyan,cross
113.0,6.0,1.0,1.0,2.0,2.0,339.0635609998753,4.0,1.0,phase_1,,,,,,,,,,,,,cyan,cross
212.0,7.0,2.0,1.0,4.0,4.0,354.7625789997255,4.0,1.0,phase_1,,,,,,,,,,,,,green,flipped triangle
51.0,5.0,0.5,1.0,2.0,2.0,303.7782269998388,4.0,1.0,phase_1,,,,,,,,,,,,,blue,diamond
30.0,1.0,0.5,0.0,4.0,4.0,342.1126510002068,4.0,1.0,phase_1,,,,,,,,,,,,,yellow,triangle
0.0,6.0,0.0,1.0,4.0,4.0,353.5065109999777,4.0,1.0,phase_1,,,,,,,,,,,,,cyan,cross
121.0,2.0,1.0,0.0,2.0,2.0,335.4780959998606,4.0,1.0,phase_1,,,,,,,,,,,,,gray,I
39.0,5.0,0.5,1.0,1.0,1.0,297.4507569997513,4.0,1.0,phase_1,,,,,,,,,,,,,blue,diamond
0.0,6.0,0.0,1.0,4.0,4.0,347.0827619998999,4.0,1.0,phase_1,,,,,,,,,,,,,cyan,cross
176.0,7.0,2.0,1.0,2.0,2.0,293.61138400008707,4.0,1.0,phase_1,,,,,,,,,,,,,green,flipped triangle
221.0,7.0,2.0,1.0,1.0,1.0,346.2418049998632,4.0,1.0,phase_1,,,,,,,,,,,,,green,flipped triangle
47.0,5.0,0.5,1.0,1.0,1.0,367.3943989997497,4.0,1.0,phase_1,,,,,,,,,,,,,blue,diamond
75.0,1.0,0.5,0.0,4.0,4.0,361.8129510000472,4.0,1.0,phase_1,,,,,,,,,,,,,yellow,triangle
51.0,1.0,0.5,0.0,3.0,3.0,325.2318830000149,4.0,1.0,phase_1,,,,,,,,,,,,,yellow,triangle
397.0,4.0,4.0,0.0,1.0,1.0,428.79261999996737,4.0,1.0,phase_1,,,,,,,,,,,,,white,hexagon
0.0,5.0,0.0,1.0,1.0,1.0,474.3083749999641,4.0,2.0,phase_1,,,,,,,,,,,,,blue,diamond
0.0,3.0,0.0,0.0,1.0,1.0,414.8572509998303,4.0,1.0,phase_1,,,,,,,,,,,,,orange,circle
100.0,2.0,1.0,0.0,4.0,4.0,371.201395999833,4.0,1.0,phase_1,,,,,,,,,,,,,gray,I
386.0,4.0,4.0,0.0,2.0,2.0,296.1774029995467,4.0,1.0,phase_1,,,,,,,,,,,,,white,hexagon
400.0,4.0,4.0,0.0,3.0,3.0,306.3982300000134,4.0,1.0,phase_1,,,,,,,,,,,,,white,hexagon
0.0,7.0,0.0,1.0,2.0,2.0,412.9726440000922,4.0,1.0,phase_1,,,,,,,,,,,,,green,flipped triangle
31.0,5.0,0.5,1.0,1.0,1.0,324.508668999897,4.0,1.0,phase_1,,,,,,,,,,,,,blue,diamond
120.0,2.0,1.0,0.0,3.0,3.0,369.8897859999306,4.0,2.0,phase_1,,,,,,,,,,,,,gray,I
191.0,3.0,2.0,0.0,1.0,1.0,481.5185470001779,4.0,1.0,phase_1,,,,,,,,,,,,,orange,circle
0.0,3.0,0.0,0.0,4.0,4.0,387.4214610000308,4.0,1.0,phase_1,,,,,,,,,,,,,orange,circle
376.0,4.0,4.0,0.0,3.0,3.0,358.9789640000163,4.0,1.0,phase_1,,,,,,,,,,,,,white,hexagon
417.0,8.0,4.0,1.0,4.0,4.0,359.2669479999131,4.0,1.0,phase_1,,,,,,,,,,,,,magenta,square
199.0,3.0,2.0,0.0,1.0,1.0,405.1012840000112,4.0,1.0,phase_1,,,,,,,,,,,,,orange,circle
412.0,8.0,4.0,1.0,1.0,1.0,420.168501000262,4.0,1.0,phase_1,,,,,,,,,,,,,magenta,square
382.0,8.0,4.0,1.0,3.0,3.0,326.0466209999322,4.0,1.0,phase_1,,,,,,,,,,,,,magenta,square
98.0,2.0,1.0,0.0,4.0,4.0,355.4374229997847,4.0,1.0,phase_1,,,,,,,,,,,,,gray,I
377.0,4.0,4.0,0.0,3.0,3.0,329.5817980001629,4.0,1.0,phase_1,,,,,,,,,,,,,white,hexagon
107.0,6.0,1.0,1.0,2.0,2.0,338.152718999936,4.0,1.0,phase_1,,,,,,,,,,,,,cyan,cross
391.0,4.0,4.0,0.0,2.0,2.0,343.8892789999954,4.0,1.0,phase_1,,,,,,,,,,,,,white,hexagon
75.0,6.0,1.0,1.0,4.0,4.0,352.7763600000071,4.0,1.0,phase_1,,,,,,,,,,,,,cyan,cross
0.0,1.0,0.0,0.0,3.0,3.0,321.6388199998619,4.0,1.0,phase_1,,,,,,,,,,,,,yellow,triangle
417.0,4.0,4.0,0.0,2.0,2.0,323.0411919998914,4.0,1.0,phase_1,,,,,,,,,,,,,white,hexagon
117.0,6.0,1.0,1.0,3.0,3.0,347.8247200000623,4.0,1.0,phase_1,,,,,,,,,,,,,cyan,cross
0.0,3.0,0.0,0.0,3.0,3.0,325.067093999678,4.0,1.0,phase_1,,,,,,,,,,,,,orange,circle
397.0,4.0,4.0,0.0,3.0,3.0,340.2447250000477,4.0,1.0,phase_1,,,,,,,,,,,,,white,hexagon
0.0,3.0,0.0,0.0,3.0,3.0,392.8000339997197,4.0,1.0,phase_1,,,,,,,,,,,,,orange,circle
387.0,8.0,4.0,1.0,1.0,1.0,386.3470010001038,4.0,1.0,phase_1,,,,,,,,,,,,,magenta,square
386.0,8.0,4.0,1.0,4.0,4.0,345.9623789999568,4.0,1.0,phase_1,,,,,,,,,,,,,magenta,square
402.0,4.0,4.0,0.0,1.0,1.0,389.7622950003097,4.0,1.0,phase_1,,,,,,,,,,,,,white,hexagon
206.0,7.0,2.0,1.0,4.0,4.0,325.343236000208,4.0,1.0,phase_1,,,,,,,,,,,,,green,flipped triangle
63.0,5.0,0.5,1.0,4.0,4.0,411.7497340002956,4.0,1.0,phase_1,,,,,,,,,,,,,blue,diamond
92.0,2.0,1.0,0.0,3.0,3.0,352.7130399997986,4.0,1.0,phase_1,,,,,,,,,,,,,gray,I
223.0,3.0,2.0,0.0,3.0,3.0,332.913273000031,4.0,1.0,phase_1,,,,,,,,,,,,,orange,circle
395.0,4.0,4.0,0.0,4.0,4.0,324.807877999774,4.0,1.0,phase_1,,,,,,,,,,,,,white,hexagon
0.0,5.0,0.5,1.0,6.0,0.0,0.0,1.0,1.0,phase_2,stop,250.0,250.0,4.0,,,,,,,,,blue,diamond
0.0,7.0,2.0,1.0,6.0,6.0,420.1482429998577,1.0,1.0,phase_2,stop,250.0,300.0,3.0,,,,,,,,,green,flipped triangle
0.0,5.0,0.5,1.0,5.0,5.0,331.6766670000106,1.0,1.0,phase_2,go,250.0,250.0,1.0,,,,,,,,,blue,diamond
0.0,4.0,4.0,0.0,6.0,6.0,482.2281410001778,1.0,1.0,phase_2,go,250.0,250.0,1.0,,,,,,,,,white,hexagon
0.0,5.0,0.5,1.0,6.0,6.0,410.4065110000192,1.0,1.0,phase_2,go,250.0,250.0,1.0,,,,,,,,,blue,diamond
0.0,8.0,4.0,1.0,6.0,0.0,0.0,1.0,1.0,phase_2,stop,250.0,250.0,4.0,,,,,,,,,magenta,square
0.0,1.0,0.5,0.0,6.0,6.0,487.0707330001096,1.0,1.0,phase_2,go,250.0,300.0,1.0,,,,,,,,,yellow,triangle
0.0,3.0,2.0,0.0,5.0,5.0,465.3137989998868,1.0,1.0,phase_2,go,250.0,300.0,1.0,,,,,,,,,orange,circle
0.0,7.0,2.0,1.0,5.0,5.0,360.6159840001055,1.0,1.0,phase_2,go,250.0,300.0,1.0,,,,,,,,,green,flipped triangle
0.0,2.0,1.0,0.0,6.0,6.0,275.0311859999783,1.0,1.0,phase_2,go,250.0,300.0,1.0,,,,,,,,,gray,I
0.0,4.0,4.0,0.0,6.0,6.0,396.0396150000633,1.0,1.0,phase_2,go,250.0,300.0,1.0,,,,,,,,,white,hexagon
0.0,6.0,1.0,1.0,5.0,5.0,349.188771000172,1.0,1.0,phase_2,go,250.0,300.0,1.0,,,,,,,,,cyan,cross
0.0,7.0,2.0,1.0,6.0,6.0,242.6164729999982,1.0,1.0,phase_2,stop,250.0,300.0,3.0,,,,,,,,,green,flipped triangle
0.0,1.0,0.5,0.0,6.0,6.0,336.7468900000858,1.0,1.0,phase_2,go,250.0,250.0,1.0,,,,,,,,,yellow,triangle
0.0,4.0,4.0,0.0,5.0,5.0,274.7645829999783,1.0,1.0,phase_2,go,250.0,250.0,1.0,,,,,,,,,white,hexagon
0.0,3.0,2.0,0.0,5.0,5.0,485.8018350000748,1.0,1.0,phase_2,go,250.0,250.0,1.0,,,,,,,,,orange,circle
0.0,1.0,0.5,0.0,5.0,5.0,398.7070630000744,1.0,1.0,phase_2,go,250.0,250.0,1.0,,,,,,,,,yellow,triangle
0.0,3.0,2.0,0.0,5.0,5.0,321.9335060002777,1.0,1.0,phase_2,go,250.0,250.0,1.0,,,,,,,,,orange,circle
0.0,3.0,2.0,0.0,6.0,6.0,300.4252619998624,1.0,1.0,phase_2,go,250.0,250.0,1.0,,,,,,,,,orange,circle
0.0,3.0,2.0,0.0,5.0,5.0,298.60551999991,1.0,1.0,phase_2,go,250.0,250.0,1.0,,,,,,,,,orange,circle
0.0,8.0,4.0,1.0,5.0,5.0,319.7997010001927,1.0,1.0,phase_2,stop,250.0,250.0,3.0,,,,,,,,,magenta,square
0.0,8.0,4.0,1.0,6.0,6.0,364.4470049998745,1.0,1.0,phase_2,stop,200.0,250.0,3.0,,,,,,,,,magenta,square
0.0,2.0,1.0,0.0,6.0,6.0,573.7665560000096,1.0,1.0,phase_2,go,200.0,200.0,1.0,,,,,,,,,gray,I
0.0,1.0,0.5,0.0,5.0,5.0,274.8651890001383,1.0,1.0,phase_2,go,200.0,200.0,1.0,,,,,,,,,yellow,triangle
0.0,7.0,2.0,1.0,5.0,5.0,355.1203770002757,1.0,1.0,phase_2,stop,200.0,200.0,3.0,,,,,,,,,green,flipped triangle
0.0,8.0,4.0,1.0,5.0,0.0,0.0,1.0,1.0,phase_2,stop,150.0,200.0,4.0,,,,,,,,,magenta,square
0.0,2.0,1.0,0.0,6.0,6.0,526.8381280002359,1.0,1.0,phase_2,go,200.0,200.0,1.0,,,,,,,,,gray,I
0.0,1.0,0.5,0.0,6.0,6.0,548.6735639997278,1.0,1.0,phase_2,go,200.0,200.0,1.0,,,,,,,,,yellow,triangle
0.0,8.0,4.0,1.0,6.0,6.0,492.4017299999832,1.0,1.0,phase_2,go,200.0,200.0,1.0,,,,,,,,,magenta,square
0.0,7.0,2.0,1.0,5.0,5.0,450.8453379999082,1.0,1.0,phase_2,go,200.0,200.0,1.0,,,,,,,,,green,flipped triangle
0.0,2.0,1.0,0.0,6.0,6.0,471.8203249999533,1.0,1.0,phase_2,go,200.0,200.0,1.0,,,,,,,,,gray,I
0.0,8.0,4.0,1.0,5.0,5.0,383.8495929999226,1.0,1.0,phase_2,stop,200.0,200.0,3.0,,,,,,,,,magenta,square
0.0,1.0,0.5,0.0,5.0,5.0,672.5009829997362,1.0,1.0,phase_2,go,150.0,200.0,1.0,,,,,,,,,yellow,triangle
0.0,1.0,0.5,0.0,6.0,6.0,389.8002469995845,1.0,1.0,phase_2,go,150.0,200.0,1.0,,,,,,,,,yellow,triangle
0.0,1.0,0.5,0.0,6.0,6.0,392.4122009998427,1.0,1.0,phase_2,go,150.0,200.0,1.0,,,,,,,,,yellow,triangle
0.0,2.0,1.0,0.0,5.0,5.0,304.3472320000546,1.0,1.0,phase_2,go,150.0,200.0,1.0,,,,,,,,,gray,I
0.0,2.0,1.0,0.0,6.0,6.0,681.1323590000029,2.0,1.0,phase_2,go,150.0,200.0,1.0,,,,,,,,,gray,I
0.0,8.0,4.0,1.0,6.0,6.0,297.8528720000213,2.0,1.0,phase_2,stop,150.0,200.0,3.0,,,,,,,,,magenta,square
0.0,3.0,2.0,0.0,5.0,5.0,416.7634509999516,2.0,1.0,phase_2,go,150.0,150.0,1.0,,,,,,,,,orange,circle
0.0,5.0,0.5,1.0,6.0,6.0,261.771826000313,2.0,1.0,phase_2,stop,150.0,150.0,3.0,,,,,,,,,blue,diamond
0.0,7.0,2.0,1.0,5.0,5.0,297.9975819998799,2.0,1.0,phase_2,stop,150.0,100.0,3.0,,,,,,,,,green,flipped triangle
0.0,8.0,4.0,1.0,5.0,0.0,0.0,2.0,1.0,phase_2,stop,100.0,100.0,4.0,,,,,,,,,magenta,square
0.0,1.0,0.5,0.0,6.0,6.0,436.3923989999421,2.0,1.0,phase_2,go,150.0,100.0,1.0,,,,,,,,,yellow,triangle
0.0,4.0,4.0,0.0,5.0,5.0,307.7595290001227,2.0,1.0,phase_2,go,150.0,100.0,1.0,,,,,,,,,white,hexagon
0.0,3.0,2.0,0.0,6.0,6.0,349.2141179999635,2.0,1.0,phase_2,go,150.0,100.0,1.0,,,,,,,,,orange,circle
0.0,6.0,1.0,1.0,5.0,5.0,269.6339590002026,2.0,1.0,phase_2,stop,150.0,100.0,3.0,,,,,,,,,cyan,cross
0.0,4.0,4.0,0.0,6.0,6.0,478.2508449998204,2.0,1.0,phase_2,go,100.0,100.0,1.0,,,,,,,,,white,hexagon
0.0,6.0,1.0,1.0,5.0,5.0,287.4581269998089,2.0,1.0,phase_2,stop,100.0,100.0,3.0,,,,,,,,,cyan,cross
0.0,5.0,0.5,1.0,6.0,6.0,323.928087999775,2.0,1.0,phase_2,go,50.0,100.0,1.0,,,,,,,,,blue,diamond
0.0,6.0,1.0,1.0,5.0,0.0,0.0,2.0,1.0,phase_2,stop,50.0,100.0,4.0,,,,,,,,,cyan,cross
0.0,6.0,1.0,1.0,6.0,0.0,0.0,2.0,1.0,phase_2,stop,100.0,100.0,4.0,,,,,,,,,cyan,cross
0.0,3.0,2.0,0.0,6.0,6.0,390.9629109998604,2.0,1.0,phase_2,go,100.0,150.0,1.0,,,,,,,,,orange,circle
0.0,3.0,2.0,0.0,6.0,6.0,358.1046419999438,2.0,1.0,phase_2,go,100.0,150.0,1.0,,,,,,,,,orange,circle
0.0,2.0,1.0,0.0,6.0,6.0,414.9504410002009,2.0,1.0,phase_2,go,100.0,150.0,1.0,,,,,,,,,gray,I
0.0,1.0,0.5,0.0,6.0,6.0,343.3551160001116,2.0,1.0,phase_2,go,100.0,150.0,1.0,,,,,,,,,yellow,triangle
0.0,6.0,1.0,1.0,6.0,6.0,347.0496830000229,2.0,1.0,phase_2,stop,100.0,150.0,3.0,,,,,,,,,cyan,cross
0.0,7.0,2.0,1.0,6.0,0.0,0.0,2.0,1.0,phase_2,stop,100.0,100.0,4.0,,,,,,,,,green,flipped triangle
0.0,6.0,1.0,1.0,5.0,0.0,0.0,2.0,1.0,phase_2,stop,100.0,150.0,4.0,,,,,,,,,cyan,cross
0.0,2.0,1.0,0.0,5.0,5.0,587.0330180000565,2.0,1.0,phase_2,go,150.0,150.0,1.0,,,,,,,,,gray,I
0.0,4.0,4.0,0.0,6.0,6.0,326.7044500003067,2.0,1.0,phase_2,go,150.0,150.0,1.0,,,,,,,,,white,hexagon
0.0,5.0,0.5,1.0,6.0,0.0,0.0,2.0,1.0,phase_2,stop,150.0,150.0,4.0,,,,,,,,,blue,diamond
0.0,8.0,4.0,1.0,5.0,0.0,0.0,2.0,1.0,phase_2,stop,150.0,200.0,4.0,,,,,,,,,magenta,square
0.0,3.0,2.0,0.0,5.0,5.0,368.3366779996504,2.0,1.0,phase_2,go,200.0,200.0,1.0,,,,,,,,,orange,circle
0.0,3.0,2.0,0.0,5.0,5.0,389.4761609999477,2.0,1.0,phase_2,go,200.0,200.0,1.0,,,,,,,,,orange,circle
0.0,8.0,4.0,1.0,5.0,0.0,0.0,2.0,1.0,phase_2,stop,200.0,200.0,4.0,,,,,,,,,magenta,square
0.0,4.0,4.0,0.0,5.0,5.0,556.5359590000298,2.0,1.0,phase_2,go,250.0,200.0,1.0,,,,,,,,,white,hexagon
0.0,6.0,1.0,1.0,6.0,6.0,282.026106000103,2.0,1.0,phase_2,stop,250.0,200.0,3.0,,,,,,,,,cyan,cross
0.0,7.0,2.0,1.0,5.0,5.0,301.3473429996338,2.0,1.0,phase_2,go,250.0,150.0,1.0,,,,,,,,,green,flipped triangle
0.0,5.0,0.5,1.0,6.0,6.0,317.7975799999331,2.0,1.0,phase_2,stop,250.0,150.0,3.0,,,,,,,,,blue,diamond
0.0,6.0,1.0,1.0,5.0,5.0,358.9012410002397,2.0,1.0,phase_2,go,250.0,100.0,1.0,,,,,,,,,cyan,cross
0.0,4.0,4.0,0.0,5.0,5.0,345.1059620001615,2.0,1.0,phase_2,go,250.0,100.0,1.0,,,,,,,,,white,hexagon
0.0,6.0,1.0,1.0,6.0,0.0,0.0,2.0,1.0,phase_2,stop,250.0,100.0,4.0,,,,,,,,,cyan,cross
0.0,4.0,4.0,0.0,5.0,5.0,424.1968589999487,3.0,1.0,phase_2,go,250.0,150.0,1.0,,,,,,,,,white,hexagon
0.0,6.0,1.0,1.0,5.0,5.0,316.3699120000274,3.0,1.0,phase_2,go,250.0,150.0,1.0,,,,,,,,,cyan,cross
0.0,6.0,1.0,1.0,6.0,6.0,279.7503010001492,3.0,1.0,phase_2,stop,250.0,150.0,3.0,,,,,,,,,cyan,cross
0.0,7.0,2.0,1.0,6.0,6.0,307.3986099998365,3.0,1.0,phase_2,go,250.0,100.0,1.0,,,,,,,,,green,flipped triangle
0.0,3.0,2.0,0.0,5.0,5.0,254.748720000407,3.0,1.0,phase_2,go,250.0,100.0,1.0,,,,,,,,,orange,circle
0.0,8.0,4.0,1.0,6.0,6.0,251.2090410000382,3.0,1.0,phase_2,stop,250.0,100.0,3.0,,,,,,,,,magenta,square
0.0,5.0,0.5,1.0,5.0,5.0,384.1821340001843,3.0,1.0,phase_2,go,250.0,50.0,1.0,,,,,,,,,blue,diamond
0.0,1.0,0.5,0.0,5.0,5.0,453.0966970000918,3.0,1.0,phase_2,go,250.0,50.0,1.0,,,,,,,,,yellow,triangle
0.0,5.0,0.5,1.0,5.0,5.0,352.0647650002502,3.0,1.0,phase_2,stop,250.0,50.0,3.0,,,,,,,,,blue,diamond
0.0,4.0,4.0,0.0,5.0,5.0,322.3261240000283,3.0,1.0,phase_2,go,200.0,50.0,1.0,,,,,,,,,white,hexagon
0.0,2.0,1.0,0.0,5.0,5.0,414.9072909999631,3.0,1.0,phase_2,go,200.0,50.0,1.0,,,,,,,,,gray,I
0.0,5.0,0.5,1.0,5.0,5.0,284.3142930000795,3.0,1.0,phase_2,stop,200.0,50.0,3.0,,,,,,,,,blue,diamond
0.0,8.0,4.0,1.0,6.0,0.0,0.0,3.0,1.0,phase_2,stop,150.0,50.0,4.0,,,,,,,,,magenta,square
0.0,8.0,4.0,1.0,5.0,5.0,400.5177009998988,3.0,1.0,phase_2,go,150.0,100.0,1.0,,,,,,,,,magenta,square
0.0,2.0,1.0,0.0,5.0,5.0,293.7808259998746,3.0,1.0,phase_2,go,150.0,100.0,1.0,,,,,,,,,gray,I
0.0,8.0,4.0,1.0,5.0,5.0,288.021691999802,3.0,1.0,phase_2,stop,150.0,100.0,3.0,,,,,,,,,magenta,square
0.0,7.0,2.0,1.0,6.0,6.0,348.6593419997916,3.0,1.0,phase_2,go,100.0,100.0,1.0,,,,,,,,,green,flipped triangle
0.0,7.0,2.0,1.0,5.0,5.0,289.8103739998987,3.0,1.0,phase_2,stop,100.0,100.0,3.0,,,,,,,,,green,flipped triangle
0.0,1.0,0.5,0.0,6.0,6.0,427.5371809999342,3.0,1.0,phase_2,go,50.0,100.0,1.0,,,,,,,,,yellow,triangle
0.0,7.0,2.0,1.0,5.0,0.0,0.0,3.0,1.0,phase_2,stop,50.0,100.0,4.0,,,,,,,,,green,flipped triangle
0.0,4.0,4.0,0.0,6.0,6.0,300.2168820003135,3.0,1.0,phase_2,go,100.0,100.0,1.0,,,,,,,,,white,hexagon
0.0,6.0,1.0,1.0,6.0,0.0,0.0,3.0,1.0,phase_2,stop,100.0,100.0,4.0,,,,,,,,,cyan,cross
0.0,2.0,1.0,0.0,5.0,5.0,410.0126120001732,3.0,1.0,phase_2,go,100.0,150.0,1.0,,,,,,,,,gray,I
0.0,3.0,2.0,0.0,6.0,6.0,245.7602039999074,3.0,1.0,phase_2,go,100.0,150.0,1.0,,,,,,,,,orange,circle
0.0,7.0,2.0,1.0,6.0,6.0,291.8615980001959,3.0,1.0,phase_2,stop,100.0,150.0,3.0,,,,,,,,,green,flipped triangle
0.0,1.0,0.5,0.0,5.0,5.0,593.9882350003245,3.0,1.0,phase_2,go,100.0,100.0,1.0,,,,,,,,,yellow,triangle
0.0,5.0,0.5,1.0,5.0,5.0,309.9014520003038,3.0,1.0,phase_2,stop,100.0,100.0,3.0,,,,,,,,,blue,diamond
0.0,3.0,2.0,0.0,5.0,5.0,376.9663570001285,3.0,1.0,phase_2,go,50.0,100.0,1.0,,,,,,,,,orange,circle
0.0,1.0,0.5,0.0,5.0,5.0,259.8323199999868,3.0,1.0,phase_2,go,50.0,100.0,1.0,,,,,,,,,yellow,triangle
0.0,6.0,1.0,1.0,5.0,5.0,255.10221200011068,3.0,1.0,phase_2,stop,50.0,100.0,3.0,,,,,,,,,cyan,cross
0.0,5.0,0.5,1.0,5.0,5.0,372.3483769999802,3.0,1.0,phase_2,go,0.0,100.0,1.0,,,,,,,,,blue,diamond
0.0,6.0,1.0,1.0,6.0,6.0,256.5695049997885,3.0,1.0,phase_2,stop,0.0,100.0,3.0,,,,,,,,,cyan,cross
0.0,4.0,4.0,0.0,6.0,6.0,386.4247510000496,3.0,1.0,phase_2,go,0.0,50.0,1.0,,,,,,,,,white,hexagon
0.0,7.0,2.0,1.0,5.0,0.0,0.0,3.0,1.0,phase_2,stop,0.0,50.0,4.0,,,,,,,,,green,flipped triangle
0.0,7.0,2.0,1.0,6.0,0.0,0.0,3.0,1.0,phase_2,stop,50.0,50.0,4.0,,,,,,,,,green,flipped triangle
0.0,6.0,1.0,1.0,5.0,0.0,0.0,3.0,1.0,phase_2,stop,50.0,100.0,4.0,,,,,,,,,cyan,cross
0.0,4.0,4.0,0.0,5.0,5.0,644.998484000098,4.0,1.0,phase_2,go,100.0,100.0,1.0,,,,,,,,,white,hexagon
0.0,5.0,0.5,1.0,5.0,0.0,0.0,4.0,1.0,phase_2,stop,100.0,100.0,4.0,,,,,,,,,blue,diamond
0.0,5.0,0.5,1.0,5.0,0.0,0.0,4.0,1.0,phase_2,stop,150.0,100.0,4.0,,,,,,,,,blue,diamond
0.0,4.0,4.0,0.0,6.0,6.0,421.4667940000254,4.0,1.0,phase_2,go,200.0,100.0,1.0,,,,,,,,,white,hexagon
0.0,7.0,2.0,1.0,6.0,0.0,0.0,4.0,1.0,phase_2,stop,200.0,100.0,4.0,,,,,,,,,green,flipped triangle
0.0,4.0,4.0,0.0,5.0,5.0,405.2960009998969,4.0,1.0,phase_2,go,200.0,150.0,1.0,,,,,,,,,white,hexagon
0.0,4.0,4.0,0.0,5.0,5.0,407.724030999816,4.0,1.0,phase_2,go,200.0,150.0,1.0,,,,,,,,,white,hexagon
0.0,8.0,4.0,1.0,5.0,0.0,0.0,4.0,1.0,phase_2,stop,200.0,150.0,4.0,,,,,,,,,magenta,square
0.0,1.0,0.5,0.0,6.0,6.0,676.6244289997303,4.0,1.0,phase_2,go,250.0,150.0,1.0,,,,,,,,,yellow,triangle
0.0,2.0,1.0,0.0,6.0,6.0,465.9277260002454,4.0,1.0,phase_2,go,250.0,150.0,1.0,,,,,,,,,gray,I
0.0,4.0,4.0,0.0,6.0,6.0,495.4026079999494,4.0,1.0,phase_2,go,250.0,150.0,1.0,,,,,,,,,white,hexagon
0.0,3.0,2.0,0.0,5.0,5.0,421.3883510001324,4.0,1.0,phase_2,go,250.0,150.0,1.0,,,,,,,,,orange,circle
0.0,6.0,1.0,1.0,6.0,6.0,383.6661689997527,4.0,1.0,phase_2,stop,250.0,150.0,3.0,,,,,,,,,cyan,cross
0.0,2.0,1.0,0.0,6.0,6.0,592.2484490001807,4.0,1.0,phase_2,go,250.0,100.0,1.0,,,,,,,,,gray,I
0.0,1.0,0.5,0.0,5.0,5.0,577.692068000033,4.0,1.0,phase_2,go,250.0,100.0,1.0,,,,,,,,,yellow,triangle
0.0,1.0,0.5,0.0,6.0,6.0,389.3076009999276,4.0,1.0,phase_2,go,250.0,100.0,1.0,,,,,,,,,yellow,triangle
0.0,2.0,1.0,0.0,5.0,5.0,453.9618300000256,4.0,1.0,phase_2,go,250.0,100.0,1.0,,,,,,,,,gray,I
0.0,6.0,1.0,1.0,5.0,0.0,0.0,4.0,1.0,phase_2,stop,250.0,100.0,4.0,,,,,,,,,cyan,cross
0.0,7.0,2.0,1.0,5.0,0.0,0.0,4.0,1.0,phase_2,stop,300.0,100.0,4.0,,,,,,,,,green,flipped triangle
0.0,2.0,1.0,0.0,5.0,5.0,530.3991779996977,4.0,1.0,phase_2,go,350.0,100.0,1.0,,,,,,,,,gray,I
0.0,8.0,4.0,1.0,6.0,0.0,0.0,4.0,1.0,phase_2,stop,350.0,100.0,4.0,,,,,,,,,magenta,square
0.0,4.0,4.0,0.0,6.0,6.0,356.3043640001524,4.0,1.0,phase_2,go,350.0,150.0,1.0,,,,,,,,,white,hexagon
0.0,5.0,0.5,1.0,6.0,6.0,347.6210560002073,4.0,1.0,phase_2,go,350.0,150.0,1.0,,,,,,,,,blue,diamond
0.0,7.0,2.0,1.0,6.0,0.0,0.0,4.0,1.0,phase_2,stop,350.0,150.0,4.0,,,,,,,,,green,flipped triangle
0.0,4.0,4.0,0.0,6.0,6.0,485.3515429999788,4.0,1.0,phase_2,go,350.0,200.0,1.0,,,,,,,,,white,hexagon
0.0,4.0,4.0,0.0,5.0,5.0,490.5273069998657,4.0,1.0,phase_2,go,350.0,200.0,1.0,,,,,,,,,white,hexagon
0.0,8.0,4.0,1.0,6.0,6.0,400.619934000133,4.0,1.0,phase_2,go,350.0,200.0,1.0,,,,,,,,,magenta,square
0.0,5.0,0.5,1.0,5.0,5.0,487.822658999903,4.0,1.0,phase_2,go,350.0,200.0,1.0,,,,,,,,,blue,diamond
0.0,5.0,0.5,1.0,6.0,0.0,0.0,4.0,1.0,phase_2,stop,350.0,200.0,4.0,,,,,,,,,blue,diamond
0.0,1.0,0.5,0.0,5.0,5.0,499.2977179999798,4.0,1.0,phase_2,go,350.0,250.0,1.0,,,,,,,,,yellow,triangle
0.0,6.0,1.0,1.0,5.0,0.0,0.0,4.0,1.0,phase_2,stop,350.0,250.0,4.0,,,,,,,,,cyan,cross
0.0,8.0,4.0,1.0,5.0,5.0,440.1991150002686,4.0,1.0,phase_2,stop,400.0,250.0,3.0,,,,,,,,,magenta,square
0.0,3.0,2.0,0.0,6.0,6.0,468.4309140002369,4.0,1.0,phase_2,go,350.0,250.0,1.0,,,,,,,,,orange,circle
0.0,5.0,0.5,1.0,5.0,5.0,345.3229399997326,4.0,1.0,phase_2,stop,350.0,250.0,3.0,,,,,,,,,blue,diamond
0.0,6.0,1.0,1.0,5.0,0.0,0.0,4.0,1.0,phase_2,stop,300.0,250.0,4.0,,,,,,,,,cyan,cross
0.0,8.0,4.0,1.0,6.0,0.0,0.0,4.0,1.0,phase_2,stop,350.0,250.0,4.0,,,,,,,,,magenta,square
0.0,8.0,4.0,1.0,6.0,6.0,621.9545550002294,5.0,1.0,phase_2,go,350.0,300.0,1.0,,,,,,,,,magenta,square
0.0,3.0,2.0,0.0,6.0,6.0,365.431124999759,5.0,1.0,phase_2,go,350.0,300.0,1.0,,,,,,,,,orange,circle
0.0,5.0,0.5,1.0,5.0,5.0,474.8205239998242,5.0,1.0,phase_2,stop,350.0,300.0,3.0,,,,,,,,,blue,diamond
0.0,8.0,4.0,1.0,5.0,5.0,565.3864840001006,5.0,1.0,phase_2,stop,300.0,300.0,3.0,,,,,,,,,magenta,square
0.0,5.0,0.5,1.0,6.0,0.0,0.0,5.0,1.0,phase_2,stop,250.0,300.0,4.0,,,,,,,,,blue,diamond
0.0,1.0,0.5,0.0,5.0,5.0,472.1032450001985,5.0,1.0,phase_2,go,250.0,350.0,1.0,,,,,,,,,yellow,triangle
0.0,5.0,0.5,1.0,5.0,0.0,0.0,5.0,1.0,phase_2,stop,250.0,350.0,4.0,,,,,,,,,blue,diamond
0.0,6.0,1.0,1.0,5.0,0.0,0.0,5.0,1.0,phase_2,stop,300.0,350.0,4.0,,,,,,,,,cyan,cross
0.0,6.0,1.0,1.0,6.0,6.0,434.8139940002511,5.0,1.0,phase_2,go,350.0,350.0,1.0,,,,,,,,,cyan,cross
0.0,3.0,2.0,0.0,5.0,5.0,634.1027959997518,5.0,1.0,phase_2,go,350.0,350.0,1.0,,,,,,,,,orange,circle
0.0,2.0,1.0,0.0,5.0,5.0,539.2735999998877,5.0,1.0,phase_2,go,350.0,350.0,1.0,,,,,,,,,gray,I
0.0,6.0,1.0,1.0,5.0,5.0,434.583572000065,5.0,1.0,phase_2,stop,350.0,350.0,3.0,,,,,,,,,cyan,cross
0.0,7.0,2.0,1.0,5.0,0.0,0.0,5.0,1.0,phase_2,stop,300.0,350.0,4.0,,,,,,,,,green,flipped triangle
0.0,3.0,2.0,0.0,6.0,6.0,562.2334550002961,5.0,1.0,phase_2,go,350.0,350.0,1.0,,,,,,,,,orange,circle
0.0,8.0,4.0,1.0,6.0,0.0,0.0,5.0,1.0,phase_2,stop,350.0,350.0,4.0,,,,,,,,,magenta,square
0.0,7.0,2.0,1.0,6.0,6.0,353.504606000115,5.0,1.0,phase_2,stop,350.0,400.0,3.0,,,,,,,,,green,flipped triangle
0.0,4.0,4.0,0.0,6.0,6.0,511.4450249998299,5.0,1.0,phase_2,go,350.0,350.0,1.0,,,,,,,,,white,hexagon
0.0,8.0,4.0,1.0,5.0,0.0,0.0,5.0,1.0,phase_2,stop,350.0,350.0,4.0,,,,,,,,,magenta,square
0.0,4.0,4.0,0.0,5.0,5.0,602.177085999756,5.0,1.0,phase_2,go,400.0,350.0,1.0,,,,,,,,,white,hexagon
0.0,5.0,0.5,1.0,6.0,0.0,0.0,5.0,1.0,phase_2,stop,400.0,350.0,4.0,,,,,,,,,blue,diamond
0.0,6.0,1.0,1.0,6.0,6.0,331.981602000269,5.0,1.0,phase_2,go,400.0,400.0,1.0,,,,,,,,,cyan,cross
0.0,3.0,2.0,0.0,6.0,6.0,705.3338209998401,5.0,1.0,phase_2,go,400.0,400.0,1.0,,,,,,,,,orange,circle
0.0,2.0,1.0,0.0,6.0,6.0,389.521736000006,5.0,1.0,phase_2,go,400.0,400.0,1.0,,,,,,,,,gray,I
0.0,8.0,4.0,1.0,6.0,6.0,508.53500800030815,5.0,1.0,phase_2,stop,400.0,400.0,3.0,,,,,,,,,magenta,square
0.0,7.0,2.0,1.0,5.0,0.0,0.0,5.0,1.0,phase_2,stop,400.0,350.0,4.0,,,,,,,,,green,flipped triangle
0.0,5.0,0.5,1.0,6.0,0.0,0.0,5.0,1.0,phase_2,stop,450.0,350.0,4.0,,,,,,,,,blue,diamond
0.0,2.0,1.0,0.0,5.0,5.0,501.80317600006674,5.0,1.0,phase_2,go,450.0,400.0,1.0,,,,,,,,,gray,I
0.0,2.0,1.0,0.0,6.0,6.0,618.3109180001338,5.0,1.0,phase_2,go,450.0,400.0,1.0,,,,,,,,,gray,I
0.0,2.0,1.0,0.0,5.0,5.0,381.3068589997783,5.0,1.0,phase_2,go,450.0,400.0,1.0,,,,,,,,,gray,I
0.0,1.0,0.5,0.0,5.0,5.0,710.3926740001043,5.0,1.0,phase_2,go,450.0,400.0,1.0,,,,,,,,,yellow,triangle
0.0,4.0,4.0,0.0,5.0,5.0,433.5971609998523,5.0,1.0,phase_2,go,450.0,400.0,1.0,,,,,,,,,white,hexagon
0.0,6.0,1.0,1.0,6.0,6.0,475.4075450000528,5.0,1.0,phase_2,stop,450.0,400.0,3.0,,,,,,,,,cyan,cross
0.0,6.0,1.0,1.0,5.0,5.0,611.8368679999548,5.0,1.0,phase_2,go,450.0,350.0,1.0,,,,,,,,,cyan,cross
0.0,2.0,1.0,0.0,6.0,6.0,483.9417369998955,5.0,1.0,phase_2,go,450.0,350.0,1.0,,,,,,,,,gray,I
0.0,6.0,1.0,1.0,6.0,0.0,0.0,5.0,1.0,phase_2,stop,450.0,350.0,4.0,,,,,,,,,cyan,cross
0.0,4.0,4.0,0.0,5.0,5.0,717.8330720003032,5.0,1.0,phase_2,go,450.0,400.0,1.0,,,,,,,,,white,hexagon
0.0,4.0,4.0,0.0,6.0,6.0,455.0507750000179,6.0,1.0,phase_2,go,450.0,400.0,1.0,,,,,,,,,white,hexagon
0.0,4.0,4.0,0.0,5.0,5.0,548.0175839998083,6.0,1.0,phase_2,go,450.0,400.0,1.0,,,,,,,,,white,hexagon
0.0,8.0,4.0,1.0,6.0,6.0,470.6693559996893,6.0,1.0,phase_2,stop,450.0,400.0,3.0,,,,,,,,,magenta,square
0.0,5.0,0.5,1.0,6.0,0.0,0.0,6.0,1.0,phase_2,stop,450.0,350.0,4.0,,,,,,,,,blue,diamond
0.0,8.0,4.0,1.0,6.0,6.0,527.1502199998395,6.0,1.0,phase_2,go,450.0,400.0,1.0,,,,,,,,,magenta,square
0.0,6.0,1.0,1.0,6.0,0.0,0.0,6.0,1.0,phase_2,stop,450.0,400.0,4.0,,,,,,,,,cyan,cross
0.0,3.0,2.0,0.0,5.0,5.0,495.5542339998828,6.0,1.0,phase_2,go,450.0,450.0,1.0,,,,,,,,,orange,circle
0.0,2.0,1.0,0.0,6.0,6.0,546.7032130000007,6.0,1.0,phase_2,go,450.0,450.0,1.0,,,,,,,,,gray,I
0.0,4.0,4.0,0.0,5.0,5.0,409.4264180002938,6.0,1.0,phase_2,go,450.0,450.0,1.0,,,,,,,,,white,hexagon
0.0,1.0,0.5,0.0,6.0,6.0,405.7503320000251,6.0,1.0,phase_2,go,450.0,450.0,1.0,,,,,,,,,yellow,triangle
0.0,2.0,1.0,0.0,5.0,5.0,500.66526499995234,6.0,1.0,phase_2,go,450.0,450.0,1.0,,,,,,,,,gray,I
0.0,3.0,2.0,0.0,6.0,6.0,300.8444530000815,6.0,1.0,phase_2,go,450.0,450.0,1.0,,,,,,,,,orange,circle
0.0,8.0,4.0,1.0,5.0,5.0,321.9343410000874,6.0,1.0,phase_2,stop,450.0,450.0,3.0,,,,,,,,,magenta,square
0.0,7.0,2.0,1.0,5.0,5.0,717.5456640002267,6.0,1.0,phase_2,go,400.0,450.0,1.0,,,,,,,,,green,flipped triangle
0.0,7.0,2.0,1.0,6.0,6.0,482.1200779997525,6.0,1.0,phase_2,stop,400.0,450.0,3.0,,,,,,,,,green,flipped triangle
0.0,1.0,0.5,0.0,6.0,6.0,472.7500170001804,6.0,1.0,phase_2,go,400.0,400.0,1.0,,,,,,,,,yellow,triangle
0.0,2.0,1.0,0.0,5.0,5.0,462.3429319999559,6.0,1.0,phase_2,go,400.0,400.0,1.0,,,,,,,,,gray,I
0.0,6.0,1.0,1.0,5.0,5.0,481.7421850002574,6.0,1.0,phase_2,stop,400.0,400.0,3.0,,,,,,,,,cyan,cross
0.0,6.0,1.0,1.0,6.0,0.0,0.0,6.0,1.0,phase_2,stop,350.0,400.0,4.0,,,,,,,,,cyan,cross
0.0,4.0,4.0,0.0,6.0,6.0,412.8496059997815,6.0,1.0,phase_2,go,350.0,450.0,1.0,,,,,,,,,white,hexagon
0.0,1.0,0.5,0.0,5.0,5.0,649.4865370000298,6.0,1.0,phase_2,go,350.0,450.0,1.0,,,,,,,,,yellow,triangle
0.0,4.0,4.0,0.0,6.0,6.0,378.5777650000455,6.0,1.0,phase_2,go,350.0,450.0,1.0,,,,,,,,,white,hexagon
0.0,5.0,0.5,1.0,5.0,5.0,325.1325180003732,6.0,1.0,phase_2,stop,350.0,450.0,3.0,,,,,,,,,blue,diamond
0.0,7.0,2.0,1.0,5.0,0.0,0.0,6.0,1.0,phase_2,stop,300.0,450.0,4.0,,,,,,,,,green,flipped triangle
0.0,5.0,0.5,1.0,6.0,6.0,329.0535289997933,6.0,1.0,phase_2,stop,350.0,450.0,3.0,,,,,,,,,blue,diamond
0.0,2.0,1.0,0.0,6.0,6.0,528.9312149998295,6.0,1.0,phase_2,go,350.0,400.0,1.0,,,,,,,,,gray,I
0.0,7.0,2.0,1.0,6.0,6.0,469.1938469995875,6.0,1.0,phase_2,go,350.0,400.0,1.0,,,,,,,,,green,flipped triangle
0.0,7.0,2.0,1.0,5.0,0.0,0.0,6.0,1.0,phase_2,stop,350.0,400.0,4.0,,,,,,,,,green,flipped triangle
0.0,5.0,0.5,1.0,5.0,5.0,563.0820689998473,6.0,1.0,phase_2,stop,400.0,400.0,3.0,,,,,,,,,blue,diamond
0.0,6.0,1.0,1.0,5.0,0.0,0.0,6.0,1.0,phase_2,stop,350.0,400.0,4.0,,,,,,,,,cyan,cross
0.0,1.0,0.5,0.0,5.0,5.0,551.9194409998818,6.0,1.0,phase_2,go,400.0,400.0,1.0,,,,,,,,,yellow,triangle
0.0,1.0,0.5,0.0,6.0,6.0,590.1085539999258,6.0,1.0,phase_2,go,400.0,400.0,1.0,,,,,,,,,yellow,triangle
0.0,7.0,2.0,1.0,6.0,0.0,0.0,6.0,1.0,phase_2,stop,400.0,400.0,4.0,,,,,,,,,green,flipped triangle
0.0,1.0,0.5,0.0,5.0,5.0,536.977995000143,6.0,1.0,phase_2,go,400.0,450.0,1.0,,,,,,,,,yellow,triangle
0.0,4.0,4.0,0.0,6.0,6.0,637.0686670002215,6.0,1.0,phase_2,go,400.0,450.0,1.0,,,,,,,,,white,hexagon
0.0,2.0,1.0,0.0,6.0,6.0,336.3865729997997,6.0,1.0,phase_2,go,400.0,450.0,1.0,,,,,,,,,gray,I
0.0,2.0,1.0,0.0,5.0,5.0,626.9647180001812,7.0,1.0,phase_2,go,400.0,450.0,1.0,,,,,,,,,gray,I
0.0,7.0,2.0,1.0,6.0,6.0,370.9338529997694,7.0,1.0,phase_2,stop,400.0,450.0,3.0,,,,,,,,,green,flipped triangle
0.0,2.0,1.0,0.0,5.0,5.0,536.3717710001765,7.0,1.0,phase_2,go,400.0,400.0,1.0,,,,,,,,,gray,I
0.0,1.0,0.5,0.0,6.0,6.0,590.7850230000804,7.0,1.0,phase_2,go,400.0,400.0,1.0,,,,,,,,,yellow,triangle
0.0,3.0,2.0,0.0,6.0,6.0,374.782032999974,7.0,1.0,phase_2,go,400.0,400.0,1.0,,,,,,,,,orange,circle
0.0,8.0,4.0,1.0,5.0,5.0,384.0105839999523,7.0,1.0,phase_2,go,400.0,400.0,1.0,,,,,,,,,magenta,square
0.0,4.0,4.0,0.0,6.0,6.0,480.439397000282,7.0,1.0,phase_2,go,400.0,400.0,1.0,,,,,,,,,white,hexagon
0.0,6.0,1.0,1.0,6.0,6.0,497.5674110000909,7.0,1.0,phase_2,go,400.0,400.0,1.0,,,,,,,,,cyan,cross
0.0,1.0,0.5,0.0,6.0,6.0,378.9996380000957,7.0,1.0,phase_2,go,400.0,400.0,1.0,,,,,,,,,yellow,triangle
0.0,4.0,4.0,0.0,6.0,6.0,457.2640489996047,7.0,1.0,phase_2,go,400.0,400.0,1.0,,,,,,,,,white,hexagon
0.0,2.0,1.0,0.0,5.0,5.0,724.3732180004372,7.0,1.0,phase_2,go,400.0,400.0,1.0,,,,,,,,,gray,I
0.0,8.0,4.0,1.0,5.0,5.0,379.5548859998234,7.0,1.0,phase_2,stop,400.0,400.0,3.0,,,,,,,,,magenta,square
0.0,3.0,2.0,0.0,6.0,6.0,534.7693670000808,7.0,1.0,phase_2,go,350.0,400.0,1.0,,,,,,,,,orange,circle
0.0,5.0,0.5,1.0,5.0,5.0,479.9990460001027,7.0,1.0,phase_2,go,350.0,400.0,1.0,,,,,,,,,blue,diamond
0.0,3.0,2.0,0.0,6.0,6.0,488.8951610000731,7.0,1.0,phase_2,go,350.0,400.0,1.0,,,,,,,,,orange,circle
0.0,5.0,0.5,1.0,5.0,0.0,0.0,7.0,1.0,phase_2,stop,350.0,400.0,4.0,,,,,,,,,blue,diamond
0.0,1.0,0.5,0.0,5.0,5.0,674.9264830000357,7.0,1.0,phase_2,go,400.0,400.0,1.0,,,,,,,,,yellow,triangle
0.0,3.0,2.0,0.0,5.0,5.0,648.2198480002808,7.0,1.0,phase_2,go,400.0,400.0,1.0,,,,,,,,,orange,circle
0.0,3.0,2.0,0.0,6.0,6.0,630.2136780000183,7.0,1.0,phase_2,go,400.0,400.0,1.0,,,,,,,,,orange,circle
0.0,8.0,4.0,1.0,6.0,0.0,0.0,7.0,1.0,phase_2,stop,400.0,400.0,4.0,,,,,,,,,magenta,square
0.0,1.0,0.5,0.0,5.0,5.0,584.1622809998626,7.0,1.0,phase_2,go,400.0,450.0,1.0,,,,,,,,,yellow,triangle
0.0,1.0,0.5,0.0,6.0,6.0,414.9977540000691,7.0,1.0,phase_2,go,400.0,450.0,1.0,,,,,,,,,yellow,triangle
0.0,8.0,4.0,1.0,6.0,0.0,0.0,7.0,1.0,phase_2,stop,400.0,450.0,4.0,,,,,,,,,magenta,square
0.0,7.0,2.0,1.0,5.0,5.0,710.5740940000942,7.0,1.0,phase_2,go,400.0,500.0,1.0,,,,,,,,,green,flipped triangle
0.0,5.0,0.5,1.0,6.0,0.0,0.0,7.0,1.0,phase_2,stop,400.0,500.0,4.0,,,,,,,,,blue,diamond
0.0,2.0,1.0,0.0,5.0,5.0,683.7412869999753,7.0,1.0,phase_2,go,400.0,550.0,1.0,,,,,,,,,gray,I
0.0,6.0,1.0,1.0,6.0,6.0,728.9702140001282,7.0,1.0,phase_2,go,400.0,550.0,1.0,,,,,,,,,cyan,cross
0.0,7.0,2.0,1.0,6.0,6.0,598.4998489998361,7.0,1.0,phase_2,stop,400.0,550.0,3.0,,,,,,,,,green,flipped triangle
0.0,3.0,2.0,0.0,5.0,5.0,623.8683669998863,7.0,1.0,phase_2,go,400.0,500.0,1.0,,,,,,,,,orange,circle
0.0,6.0,1.0,1.0,6.0,6.0,665.2283370003715,7.0,1.0,phase_2,go,400.0,500.0,1.0,,,,,,,,,cyan,cross
0.0,1.0,0.5,0.0,6.0,6.0,576.2418630001775,7.0,1.0,phase_2,go,400.0,500.0,1.0,,,,,,,,,yellow,triangle
0.0,6.0,1.0,1.0,5.0,5.0,492.9989009997371,7.0,1.0,phase_2,stop,400.0,500.0,3.0,,,,,,,,,cyan,cross
0.0,4.0,4.0,0.0,5.0,5.0,555.3797389998181,7.0,1.0,phase_2,go,350.0,500.0,1.0,,,,,,,,,white,hexagon
0.0,5.0,0.5,1.0,6.0,6.0,589.3045340003482,7.0,1.0,phase_2,stop,350.0,500.0,3.0,,,,,,,,,blue,diamond
0.0,8.0,4.0,1.0,6.0,6.0,798.1761149999329,7.0,1.0,phase_2,go,350.0,450.0,1.0,,,,,,,,,magenta,square
0.0,1.0,0.5,0.0,5.0,5.0,642.8511389999585,7.0,1.0,phase_2,go,350.0,450.0,1.0,,,,,,,,,yellow,triangle
0.0,7.0,2.0,1.0,5.0,5.0,428.4931929996673,8.0,1.0,phase_2,stop,350.0,450.0,3.0,,,,,,,,,green,flipped triangle
0.0,5.0,0.5,1.0,6.0,0.0,0.0,8.0,1.0,phase_2,stop,300.0,450.0,4.0,,,,,,,,,blue,diamond
0.0,3.0,2.0,0.0,5.0,5.0,519.645132000278,8.0,1.0,phase_2,go,300.0,500.0,1.0,,,,,,,,,orange,circle
0.0,3.0,2.0,0.0,6.0,6.0,532.3154239999894,8.0,1.0,phase_2,go,300.0,500.0,1.0,,,,,,,,,orange,circle
0.0,4.0,4.0,0.0,5.0,5.0,330.1751240001067,8.0,1.0,phase_2,go,300.0,500.0,1.0,,,,,,,,,white,hexagon
0.0,8.0,4.0,1.0,5.0,5.0,507.6968749999651,8.0,1.0,phase_2,go,300.0,500.0,1.0,,,,,,,,,magenta,square
0.0,1.0,0.5,0.0,5.0,5.0,356.7103909999787,8.0,1.0,phase_2,go,300.0,500.0,1.0,,,,,,,,,yellow,triangle
0.0,3.0,2.0,0.0,5.0,5.0,518.9664689996789,8.0,1.0,phase_2,go,300.0,500.0,1.0,,,,,,,,,orange,circle
0.0,8.0,4.0,1.0,5.0,0.0,0.0,8.0,1.0,phase_2,stop,300.0,500.0,4.0,,,,,,,,,magenta,square
0.0,3.0,2.0,0.0,6.0,6.0,616.7753550002999,8.0,1.0,phase_2,go,350.0,500.0,1.0,,,,,,,,,orange,circle
0.0,6.0,1.0,1.0,6.0,0.0,0.0,8.0,1.0,phase_2,stop,350.0,500.0,4.0,,,,,,,,,cyan,cross
0.0,5.0,0.5,1.0,5.0,0.0,0.0,8.0,1.0,phase_2,stop,350.0,550.0,4.0,,,,,,,,,blue,diamond
0.0,8.0,4.0,1.0,5.0,0.0,0.0,8.0,1.0,phase_2,stop,400.0,550.0,4.0,,,,,,,,,magenta,square
0.0,1.0,0.5,0.0,6.0,6.0,965.1386799996544,8.0,1.0,phase_2,go,450.0,550.0,1.0,,,,,,,,,yellow,triangle
0.0,3.0,2.0,0.0,6.0,6.0,662.0775129999856,8.0,1.0,phase_2,go,450.0,550.0,1.0,,,,,,,,,orange,circle
0.0,5.0,0.5,1.0,6.0,6.0,653.0950689998463,8.0,1.0,phase_2,go,450.0,550.0,1.0,,,,,,,,,blue,diamond
0.0,7.0,2.0,1.0,5.0,0.0,0.0,8.0,1.0,phase_2,stop,450.0,550.0,4.0,,,,,,,,,green,flipped triangle
0.0,5.0,0.5,1.0,6.0,6.0,466.2983560001521,8.0,1.0,phase_2,stop,500.0,550.0,3.0,,,,,,,,,blue,diamond
0.0,3.0,2.0,0.0,5.0,5.0,622.8359069996259,8.0,1.0,phase_2,go,500.0,500.0,1.0,,,,,,,,,orange,circle
0.0,2.0,1.0,0.0,5.0,5.0,801.9774780000262,8.0,1.0,phase_2,go,500.0,500.0,1.0,,,,,,,,,gray,I
0.0,4.0,4.0,0.0,6.0,6.0,604.4886240001688,8.0,1.0,phase_2,go,500.0,500.0,1.0,,,,,,,,,white,hexagon
0.0,2.0,1.0,0.0,6.0,6.0,573.0171210002482,8.0,1.0,phase_2,go,500.0,500.0,1.0,,,,,,,,,gray,I
0.0,5.0,0.5,1.0,5.0,5.0,540.7067910000478,8.0,1.0,phase_2,stop,500.0,500.0,3.0,,,,,,,,,blue,diamond
0.0,1.0,0.5,0.0,5.0,5.0,408.7567659998967,8.0,1.0,phase_2,go,450.0,500.0,1.0,,,,,,,,,yellow,triangle
0.0,4.0,4.0,0.0,5.0,5.0,585.347413999898,8.0,1.0,phase_2,go,450.0,500.0,1.0,,,,,,,,,white,hexagon
0.0,2.0,1.0,0.0,6.0,6.0,347.7482079997571,8.0,1.0,phase_2,go,450.0,500.0,1.0,,,,,,,,,gray,I
0.0,3.0,2.0,0.0,5.0,5.0,508.34596300001067,8.0,1.0,phase_2,go,450.0,500.0,1.0,,,,,,,,,orange,circle
0.0,2.0,1.0,0.0,5.0,5.0,609.6736449999298,8.0,1.0,phase_2,go,450.0,500.0,1.0,,,,,,,,,gray,I
0.0,7.0,2.0,1.0,5.0,0.0,0.0,8.0,1.0,phase_2,stop,450.0,500.0,4.0,,,,,,,,,green,flipped triangle
0.0,7.0,2.0,1.0,6.0,0.0,0.0,8.0,1.0,phase_2,stop,500.0,500.0,4.0,,,,,,,,,green,flipped triangle
0.0,7.0,2.0,1.0,6.0,6.0,610.9610959997553,8.0,1.0,phase_2,go,500.0,550.0,1.0,,,,,,,,,green,flipped triangle
0.0,2.0,1.0,0.0,6.0,6.0,590.7974090000607,8.0,1.0,phase_2,go,500.0,550.0,1.0,,,,,,,,,gray,I
0.0,8.0,4.0,1.0,6.0,6.0,644.9403599999641,8.0,1.0,phase_2,go,500.0,550.0,1.0,,,,,,,,,magenta,square
0.0,2.0,1.0,0.0,6.0,6.0,341.6507669999191,8.0,1.0,phase_2,go,500.0,550.0,1.0,,,,,,,,,gray,I
0.0,3.0,2.0,0.0,6.0,6.0,557.8902180000114,8.0,1.0,phase_2,go,500.0,550.0,1.0,,,,,,,,,orange,circle
0.0,7.0,2.0,1.0,6.0,6.0,602.0806340002309,8.0,1.0,phase_2,stop,500.0,550.0,3.0,,,,,,,,,green,flipped triangle
0.0,4.0,4.0,0.0,7.0,4.0,153.8385339999877,1.0,1.0,phase_3,,,,,162.0,3.0,54.0,108.0,216.0,162.0,324.0,270.0,white,hexagon
0.0,7.0,2.0,1.0,7.0,3.0,1462.8208209996956,1.0,2.0,phase_3,,,,,117.0,3.0,39.0,234.0,117.0,195.0,156.0,78.0,green,flipped triangle
0.0,4.0,4.0,0.0,7.0,5.0,4631.441393999921,1.0,1.0,phase_3,,,,,195.0,5.0,156.0,39.0,234.0,117.0,195.0,78.0,white,hexagon
0.0,2.0,1.0,0.0,7.0,2.0,2658.930304000023,1.0,1.0,phase_3,,,,,162.0,3.0,216.0,162.0,324.0,54.0,270.0,108.0,gray,I
0.0,6.0,1.0,1.0,7.0,4.0,2099.2815660001725,1.0,1.0,phase_3,,,,,108.0,2.0,216.0,54.0,324.0,108.0,270.0,162.0,cyan,cross
0.0,3.0,2.0,0.0,7.0,5.0,2103.9247460003025,1.0,1.0,phase_3,,,,,162.0,3.0,270.0,108.0,54.0,324.0,162.0,216.0,orange,circle
0.0,3.0,2.0,0.0,7.0,3.0,1803.672269999879,1.0,1.0,phase_3,,,,,132.0,3.0,220.0,264.0,132.0,88.0,44.0,176.0,orange,circle
0.0,8.0,4.0,1.0,7.0,5.0,1137.7335600000151,1.0,1.0,phase_3,,,,,270.0,5.0,108.0,162.0,216.0,54.0,270.0,324.0,magenta,square
0.0,1.0,0.5,0.0,7.0,3.0,2131.270134999795,1.0,1.0,phase_3,,,,,204.0,6.0,68.0,136.0,204.0,34.0,170.0,102.0,yellow,triangle
0.0,8.0,4.0,1.0,7.0,5.0,997.0485359999656,1.0,1.0,phase_3,,,,,176.0,4.0,220.0,44.0,88.0,132.0,176.0,264.0,magenta,square
0.0,4.0,4.0,0.0,7.0,3.0,2782.956602000013,1.0,1.0,phase_3,,,,,156.0,4.0,234.0,117.0,156.0,39.0,195.0,78.0,white,hexagon
0.0,1.0,0.5,0.0,7.0,3.0,2573.323823999999,1.0,1.0,phase_3,,,,,196.0,4.0,147.0,294.0,196.0,245.0,49.0,98.0,yellow,triangle
0.0,8.0,4.0,1.0,7.0,5.0,1815.3197420006109,1.0,1.0,phase_3,,,,,162.0,3.0,216.0,324.0,270.0,54.0,162.0,108.0,magenta,square
0.0,7.0,2.0,1.0,7.0,5.0,1701.445828999567,1.0,1.0,phase_3,,,,,98.0,2.0,196.0,49.0,294.0,147.0,98.0,245.0,green,flipped triangle
0.0,6.0,1.0,1.0,7.0,3.0,1132.416163999551,1.0,1.0,phase_3,,,,,220.0,5.0,88.0,264.0,220.0,44.0,132.0,176.0,cyan,cross
0.0,5.0,0.5,1.0,7.0,2.0,2053.3236030005355,1.0,1.0,phase_3,,,,,176.0,4.0,44.0,176.0,220.0,264.0,88.0,132.0,blue,diamond
0.0,2.0,1.0,0.0,7.0,4.0,1315.4164449997552,1.0,1.0,phase_3,,,,,132.0,3.0,264.0,88.0,176.0,132.0,220.0,44.0,gray,I
0.0,1.0,0.5,0.0,7.0,4.0,1801.522477000617,1.0,1.0,phase_3,,,,,162.0,3.0,108.0,324.0,270.0,162.0,54.0,216.0,yellow,triangle
0.0,7.0,2.0,1.0,7.0,6.0,2601.7148880000605,1.0,1.0,phase_3,,,,,195.0,5.0,117.0,78.0,156.0,234.0,39.0,195.0,green,flipped triangle
0.0,1.0,0.5,0.0,7.0,3.0,1195.3394149995802,1.0,1.0,phase_3,,,,,117.0,3.0,39.0,156.0,117.0,78.0,195.0,234.0,yellow,triangle
0.0,4.0,4.0,0.0,7.0,4.0,2164.5127259998844,2.0,1.0,phase_3,,,,,196.0,4.0,49.0,294.0,147.0,196.0,245.0,98.0,white,hexagon
0.0,4.0,4.0,0.0,7.0,2.0,1119.5955510002022,2.0,1.0,phase_3,,,,,136.0,4.0,204.0,136.0,170.0,68.0,102.0,34.0,white,hexagon
0.0,1.0,0.5,0.0,7.0,4.0,932.7023380001264,2.0,1.0,phase_3,,,,,147.0,3.0,49.0,245.0,98.0,147.0,196.0,294.0,yellow,triangle
0.0,6.0,1.0,1.0,7.0,2.0,1308.501876000264,2.0,1.0,phase_3,,,,,156.0,4.0,195.0,156.0,39.0,78.0,117.0,234.0,cyan,cross
0.0,3.0,2.0,0.0,7.0,5.0,636.7422189996432,2.0,1.0,phase_3,,,,,108.0,2.0,54.0,270.0,324.0,162.0,108.0,216.0,orange,circle
0.0,6.0,1.0,1.0,7.0,6.0,1772.906846999831,2.0,1.0,phase_3,,,,,98.0,2.0,245.0,147.0,49.0,196.0,294.0,98.0,cyan,cross
0.0,7.0,2.0,1.0,7.0,3.0,1424.9537890000283,2.0,1.0,phase_3,,,,,108.0,2.0,324.0,54.0,108.0,216.0,162.0,270.0,green,flipped triangle
0.0,1.0,0.5,0.0,7.0,2.0,1317.5354249997326,2.0,1.0,phase_3,,,,,132.0,3.0,220.0,132.0,176.0,88.0,264.0,44.0,yellow,triangle
0.0,8.0,4.0,1.0,7.0,6.0,1853.5062999999357,2.0,1.0,phase_3,,,,,204.0,6.0,170.0,136.0,102.0,68.0,34.0,204.0,magenta,square
0.0,5.0,0.5,1.0,7.0,4.0,2834.72237099977,2.0,1.0,phase_3,,,,,195.0,5.0,156.0,234.0,117.0,195.0,39.0,78.0,blue,diamond
0.0,8.0,4.0,1.0,7.0,4.0,1598.679937999805,2.0,1.0,phase_3,,,,,156.0,4.0,39.0,234.0,78.0,156.0,195.0,117.0,magenta,square
0.0,3.0,2.0,0.0,7.0,5.0,1919.169279000016,2.0,1.0,phase_3,,,,,117.0,3.0,195.0,78.0,39.0,156.0,117.0,234.0,orange,circle
0.0,7.0,2.0,1.0,7.0,4.0,1857.2731029998977,2.0,1.0,phase_3,,,,,264.0,6.0,220.0,44.0,132.0,264.0,176.0,88.0,green,flipped triangle
0.0,3.0,2.0,0.0,7.0,2.0,1621.575363999909,2.0,1.0,phase_3,,,,,147.0,3.0,196.0,147.0,245.0,98.0,294.0,49.0,orange,circle
0.0,3.0,2.0,0.0,7.0,4.0,1647.0845760004522,2.0,1.0,phase_3,,,,,136.0,4.0,68.0,34.0,204.0,136.0,102.0,170.0,orange,circle
0.0,5.0,0.5,1.0,7.0,3.0,1370.4332560000694,2.0,1.0,phase_3,,,,,156.0,4.0,234.0,39.0,156.0,195.0,78.0,117.0,blue,diamond
0.0,8.0,4.0,1.0,7.0,4.0,1061.5521580002678,2.0,1.0,phase_3,,,,,170.0,5.0,204.0,102.0,136.0,170.0,68.0,34.0,magenta,square
0.0,2.0,1.0,0.0,7.0,2.0,995.5757110001286,2.0,1.0,phase_3,,,,,196.0,4.0,294.0,196.0,147.0,98.0,49.0,245.0,gray,I
0.0,6.0,1.0,1.0,7.0,4.0,2237.561547000041,2.0,1.0,phase_3,,,,,88.0,2.0,44.0,264.0,176.0,88.0,132.0,220.0,cyan,cross
0.0,8.0,4.0,1.0,7.0,2.0,2207.8660480001417,2.0,1.0,phase_3,,,,,196.0,4.0,147.0,196.0,98.0,294.0,49.0,245.0,magenta,square
0.0,2.0,1.0,0.0,7.0,6.0,1539.934393999829,3.0,1.0,phase_3,,,,,176.0,4.0,264.0,220.0,132.0,44.0,88.0,176.0,gray,I
0.0,7.0,2.0,1.0,7.0,4.0,1831.2176440003896,3.0,1.0,phase_3,,,,,102.0,3.0,68.0,170.0,34.0,102.0,136.0,204.0,green,flipped triangle
0.0,7.0,2.0,1.0,7.0,2.0,1699.5027069997375,3.0,1.0,phase_3,,,,,108.0,2.0,162.0,108.0,216.0,54.0,324.0,270.0,green,flipped triangle
0.0,6.0,1.0,1.0,7.0,2.0,1660.878134000086,3.0,1.0,phase_3,,,,,294.0,6.0,98.0,294.0,196.0,245.0,147.0,49.0,cyan,cross
0.0,3.0,2.0,0.0,7.0,1.0,2178.923412000586,3.0,1.0,phase_3,,,,,234.0,6.0,234.0,117.0,78.0,156.0,39.0,195.0,orange,circle
0.0,5.0,0.5,1.0,7.0,6.0,1578.21017400056,3.0,1.0,phase_3,,,,,147.0,3.0,196.0,294.0,245.0,49.0,98.0,147.0,blue,diamond
0.0,6.0,1.0,1.0,7.0,1.0,1171.1973370001942,3.0,1.0,phase_3,,,,,204.0,6.0,204.0,68.0,34.0,102.0,170.0,136.0,cyan,cross
0.0,3.0,2.0,0.0,7.0,1.0,2071.400695999728,3.0,1.0,phase_3,,,,,245.0,5.0,245.0,294.0,49.0,98.0,147.0,196.0,orange,circle
0.0,5.0,0.5,1.0,7.0,3.0,1346.639939999477,3.0,1.0,phase_3,,,,,270.0,5.0,54.0,216.0,270.0,108.0,324.0,162.0,blue,diamond
0.0,8.0,4.0,1.0,7.0,2.0,2946.9975980000527,3.0,1.0,phase_3,,,,,176.0,4.0,44.0,176.0,220.0,132.0,264.0,88.0,magenta,square
0.0,7.0,2.0,1.0,7.0,5.0,2643.647261000297,3.0,1.0,phase_3,,,,,204.0,6.0,68.0,102.0,170.0,136.0,204.0,34.0,green,flipped triangle
0.0,2.0,1.0,0.0,7.0,5.0,2019.156622999617,3.0,1.0,phase_3,,,,,117.0,3.0,156.0,39.0,195.0,78.0,117.0,234.0,gray,I
0.0,8.0,4.0,1.0,7.0,2.0,1476.7428060004022,3.0,1.0,phase_3,,,,,195.0,5.0,117.0,195.0,39.0,78.0,234.0,156.0,magenta,square
0.0,1.0,0.5,0.0,7.0,5.0,1752.2963119999986,3.0,1.0,phase_3,,,,,68.0,2.0,102.0,136.0,170.0,34.0,68.0,204.0,yellow,triangle
0.0,5.0,0.5,1.0,7.0,4.0,1999.9372040001615,3.0,1.0,phase_3,,,,,204.0,6.0,34.0,68.0,136.0,204.0,102.0,170.0,blue,diamond
0.0,5.0,0.5,1.0,7.0,1.0,1657.784384000479,3.0,1.0,phase_3,,,,,216.0,4.0,216.0,324.0,108.0,54.0,162.0,270.0,blue,diamond
0.0,3.0,2.0,0.0,7.0,5.0,1588.733429000058,3.0,1.0,phase_3,,,,,68.0,2.0,102.0,170.0,136.0,34.0,68.0,204.0,orange,circle
0.0,6.0,1.0,1.0,7.0,6.0,1653.8642069999696,3.0,1.0,phase_3,,,,,234.0,6.0,117.0,156.0,78.0,39.0,195.0,234.0,cyan,cross
0.0,4.0,4.0,0.0,7.0,1.0,1591.8298630003846,3.0,1.0,phase_3,,,,,204.0,6.0,204.0,34.0,136.0,102.0,170.0,68.0,white,hexagon
0.0,4.0,4.0,0.0,7.0,2.0,1704.9248599996645,3.0,1.0,phase_3,,,,,270.0,5.0,108.0,270.0,324.0,162.0,54.0,216.0,white,hexagon
0.0,4.0,4.0,0.0,7.0,5.0,1880.023724999773,4.0,1.0,phase_3,,,,,220.0,5.0,264.0,88.0,176.0,132.0,220.0,44.0,white,hexagon
0.0,4.0,4.0,0.0,7.0,5.0,1963.0825010008264,4.0,1.0,phase_3,,,,,220.0,5.0,44.0,176.0,264.0,88.0,220.0,132.0,white,hexagon
0.0,4.0,4.0,0.0,7.0,5.0,2197.7249359997586,4.0,1.0,phase_3,,,,,196.0,4.0,147.0,294.0,98.0,49.0,196.0,245.0,white,hexagon
0.0,5.0,0.5,1.0,7.0,5.0,2967.2246589998394,4.0,1.0,phase_3,,,,,132.0,3.0,88.0,176.0,264.0,220.0,132.0,44.0,blue,diamond
0.0,6.0,1.0,1.0,7.0,2.0,2125.3716060000443,4.0,1.0,phase_3,,,,,204.0,6.0,136.0,204.0,170.0,68.0,34.0,102.0,cyan,cross
0.0,3.0,2.0,0.0,7.0,5.0,2469.2606389999128,4.0,1.0,phase_3,,,,,220.0,5.0,176.0,264.0,44.0,132.0,220.0,88.0,orange,circle
0.0,2.0,1.0,0.0,7.0,1.0,1377.6143619998038,4.0,1.0,phase_3,,,,,204.0,6.0,204.0,170.0,68.0,34.0,136.0,102.0,gray,I
0.0,2.0,1.0,0.0,7.0,2.0,1233.008487999541,4.0,1.0,phase_3,,,,,196.0,4.0,98.0,196.0,49.0,245.0,147.0,294.0,gray,I
0.0,1.0,0.5,0.0,7.0,6.0,2324.5408070006306,4.0,1.0,phase_3,,,,,195.0,5.0,78.0,234.0,117.0,156.0,39.0,195.0,yellow,triangle
0.0,5.0,0.5,1.0,7.0,3.0,1479.3110330001582,4.0,1.0,phase_3,,,,,204.0,6.0,102.0,34.0,204.0,68.0,170.0,136.0,blue,diamond
0.0,2.0,1.0,0.0,7.0,2.0,1733.8111199997002,4.0,1.0,phase_3,,,,,270.0,5.0,108.0,270.0,162.0,54.0,324.0,216.0,gray,I
0.0,8.0,4.0,1.0,7.0,5.0,2084.788797999863,4.0,1.0,phase_3,,,,,196.0,4.0,49.0,294.0,147.0,245.0,196.0,98.0,magenta,square
0.0,5.0,0.5,1.0,7.0,6.0,2364.4424359999903,4.0,1.0,phase_3,,,,,196.0,4.0,98.0,245.0,147.0,49.0,294.0,196.0,blue,diamond
0.0,1.0,0.5,0.0,7.0,1.0,1906.262637000509,4.0,1.0,phase_3,,,,,220.0,5.0,220.0,176.0,44.0,88.0,264.0,132.0,yellow,triangle
0.0,7.0,2.0,1.0,7.0,5.0,2207.279668999945,4.0,1.0,phase_3,,,,,196.0,4.0,147.0,49.0,294.0,98.0,196.0,245.0,green,flipped triangle
0.0,1.0,0.5,0.0,7.0,5.0,2670.24725400006,4.0,1.0,phase_3,,,,,162.0,3.0,270.0,54.0,108.0,324.0,162.0,216.0,yellow,triangle
0.0,2.0,1.0,0.0,7.0,5.0,1405.0151390001702,4.0,1.0,phase_3,,,,,195.0,5.0,39.0,234.0,117.0,156.0,195.0,78.0,gray,I
0.0,7.0,2.0,1.0,7.0,6.0,2442.2943539993867,4.0,1.0,phase_3,,,,,220.0,5.0,88.0,44.0,264.0,176.0,132.0,220.0,green,flipped triangle
0.0,6.0,1.0,1.0,7.0,3.0,2657.0110810007463,4.0,1.0,phase_3,,,,,216.0,4.0,54.0,162.0,216.0,270.0,324.0,108.0,cyan,cross
0.0,2.0,1.0,0.0,7.0,2.0,1458.8328529998762,4.0,1.0,phase_3,,,,,204.0,6.0,68.0,204.0,34.0,170.0,102.0,136.0,gray,I
