raw_reward_magnitude,stim_reward,stepwise_reward_magnitude,paired_with_stopping,quadrant,response,reaction_time,block,num_trial_presentations,which_part,stop_signal_trial_type,left_SSD,right_SSD,accuracy,chosen_bidding_amount,chosen_bidding_level,possible_bid_1,possible_bid_2,possible_bid_3,possible_bid_4,possible_bid_5,possible_bid_6,color_text,shape_text
392.0,4.0,4.0,0.0,4.0,4.0,485.9210650001841,1.0,1.0,part_1,,,,,,,,,,,,,cyan,square
47.0,1.0,1.0,0.0,4.0,4.0,405.2714530002959,1.0,1.0,part_1,,,,,,,,,,,,,white,hexagon
209.0,7.0,3.0,1.0,3.0,3.0,361.4583509997828,1.0,1.0,part_1,,,,,,,,,,,,,yellow,I
0.0,7.0,0.0,1.0,1.0,1.0,374.0152690002105,1.0,1.0,part_1,,,,,,,,,,,,,yellow,I
178.0,3.0,3.0,0.0,1.0,1.0,372.9874979999295,1.0,1.0,part_1,,,,,,,,,,,,,magenta,cross
402.0,8.0,4.0,1.0,3.0,3.0,322.2920840003098,1.0,1.0,part_1,,,,,,,,,,,,,green,flipped triangle
88.0,2.0,2.0,0.0,2.0,2.0,306.6187449999233,1.0,1.0,part_1,,,,,,,,,,,,,orange,diamond
55.0,5.0,1.0,1.0,2.0,2.0,351.2139879999267,1.0,1.0,part_1,,,,,,,,,,,,,blue,triangle
176.0,3.0,3.0,0.0,3.0,3.0,387.3881939998682,1.0,1.0,part_1,,,,,,,,,,,,,magenta,cross
190.0,3.0,3.0,0.0,3.0,3.0,332.8196450001996,1.0,1.0,part_1,,,,,,,,,,,,,magenta,cross
209.0,7.0,3.0,1.0,1.0,1.0,313.3166550001078,1.0,1.0,part_1,,,,,,,,,,,,,yellow,I
61.0,5.0,1.0,1.0,2.0,2.0,317.306120000012,1.0,1.0,part_1,,,,,,,,,,,,,blue,triangle
53.0,5.0,1.0,1.0,4.0,4.0,311.0257999996975,1.0,1.0,part_1,,,,,,,,,,,,,blue,triangle
64.0,1.0,1.0,0.0,3.0,3.0,281.5226990001065,1.0,1.0,part_1,,,,,,,,,,,,,white,hexagon
81.0,6.0,2.0,1.0,1.0,1.0,317.313871999886,1.0,1.0,part_1,,,,,,,,,,,,,gray,circle
27.0,5.0,1.0,1.0,2.0,2.0,328.7926560001324,1.0,1.0,part_1,,,,,,,,,,,,,blue,triangle
203.0,7.0,3.0,1.0,3.0,3.0,329.6815679996143,1.0,1.0,part_1,,,,,,,,,,,,,yellow,I
0.0,7.0,0.0,1.0,2.0,2.0,291.277725999862,1.0,1.0,part_1,,,,,,,,,,,,,yellow,I
210.0,3.0,3.0,0.0,3.0,3.0,344.0912259998185,1.0,1.0,part_1,,,,,,,,,,,,,magenta,cross
210.0,7.0,3.0,1.0,2.0,2.0,316.4041939999151,1.0,1.0,part_1,,,,,,,,,,,,,yellow,I
0.0,6.0,0.0,1.0,1.0,1.0,314.9547800003347,1.0,1.0,part_1,,,,,,,,,,,,,gray,circle
406.0,4.0,4.0,0.0,2.0,2.0,303.7282410000443,1.0,1.0,part_1,,,,,,,,,,,,,cyan,square
30.0,5.0,1.0,1.0,3.0,3.0,343.1126650002625,1.0,1.0,part_1,,,,,,,,,,,,,blue,triangle
406.0,8.0,4.0,1.0,4.0,4.0,347.65483899991517,1.0,1.0,part_1,,,,,,,,,,,,,green,flipped triangle
380.0,8.0,4.0,1.0,1.0,1.0,279.4249460002902,1.0,1.0,part_1,,,,,,,,,,,,,green,flipped triangle
68.0,5.0,1.0,1.0,2.0,2.0,286.9851529999323,1.0,1.0,part_1,,,,,,,,,,,,,blue,triangle
181.0,3.0,3.0,0.0,2.0,2.0,334.2659610002556,1.0,1.0,part_1,,,,,,,,,,,,,magenta,cross
181.0,7.0,3.0,1.0,3.0,3.0,404.7844480001004,1.0,1.0,part_1,,,,,,,,,,,,,yellow,I
0.0,2.0,0.0,0.0,4.0,4.0,384.5577299998695,1.0,1.0,part_1,,,,,,,,,,,,,orange,diamond
78.0,6.0,2.0,1.0,4.0,4.0,341.6992229999778,1.0,1.0,part_1,,,,,,,,,,,,,gray,circle
421.0,8.0,4.0,1.0,2.0,2.0,336.5954050000255,1.0,1.0,part_1,,,,,,,,,,,,,green,flipped triangle
85.0,2.0,2.0,0.0,3.0,3.0,346.2893729997631,1.0,1.0,part_1,,,,,,,,,,,,,orange,diamond
0.0,3.0,0.0,0.0,4.0,4.0,334.60291900019,1.0,1.0,part_1,,,,,,,,,,,,,magenta,cross
68.0,5.0,1.0,1.0,1.0,1.0,315.933865000261,1.0,1.0,part_1,,,,,,,,,,,,,blue,triangle
0.0,2.0,0.0,0.0,2.0,2.0,327.8340500000922,1.0,1.0,part_1,,,,,,,,,,,,,orange,diamond
69.0,1.0,1.0,0.0,3.0,3.0,286.7162560000906,1.0,1.0,part_1,,,,,,,,,,,,,white,hexagon
180.0,3.0,3.0,0.0,3.0,3.0,315.7341950000045,1.0,1.0,part_1,,,,,,,,,,,,,magenta,cross
55.0,1.0,1.0,0.0,4.0,4.0,305.4057819999798,1.0,1.0,part_1,,,,,,,,,,,,,white,hexagon
102.0,2.0,2.0,0.0,1.0,1.0,359.0091139999458,1.0,1.0,part_1,,,,,,,,,,,,,orange,diamond
0.0,1.0,0.0,0.0,3.0,3.0,307.9247159998886,1.0,1.0,part_1,,,,,,,,,,,,,white,hexagon
394.0,4.0,4.0,0.0,4.0,4.0,280.5160180000712,1.0,1.0,part_1,,,,,,,,,,,,,cyan,square
422.0,8.0,4.0,1.0,3.0,3.0,288.8776199997664,1.0,1.0,part_1,,,,,,,,,,,,,green,flipped triangle
61.0,1.0,1.0,0.0,2.0,2.0,549.8357999999826,1.0,1.0,part_1,,,,,,,,,,,,,white,hexagon
0.0,1.0,0.0,0.0,4.0,4.0,306.986235000295,1.0,1.0,part_1,,,,,,,,,,,,,white,hexagon
46.0,5.0,1.0,1.0,2.0,2.0,309.0915799998583,1.0,1.0,part_1,,,,,,,,,,,,,blue,triangle
403.0,4.0,4.0,0.0,2.0,2.0,314.3596999998408,1.0,1.0,part_1,,,,,,,,,,,,,cyan,square
379.0,4.0,4.0,0.0,3.0,3.0,324.9358470002335,1.0,1.0,part_1,,,,,,,,,,,,,cyan,square
187.0,3.0,3.0,0.0,2.0,2.0,296.7917040000429,1.0,1.0,part_1,,,,,,,,,,,,,magenta,cross
0.0,3.0,0.0,0.0,2.0,2.0,318.1679360000089,1.0,1.0,part_1,,,,,,,,,,,,,magenta,cross
398.0,8.0,4.0,1.0,2.0,2.0,320.6961539999611,1.0,1.0,part_1,,,,,,,,,,,,,green,flipped triangle
0.0,3.0,0.0,0.0,3.0,3.0,351.1920309997549,1.0,1.0,part_1,,,,,,,,,,,,,magenta,cross
0.0,2.0,0.0,0.0,2.0,2.0,297.5718259999667,1.0,1.0,part_1,,,,,,,,,,,,,orange,diamond
0.0,8.0,0.0,1.0,1.0,1.0,303.2082069998978,1.0,1.0,part_1,,,,,,,,,,,,,green,flipped triangle
189.0,7.0,3.0,1.0,2.0,2.0,290.0657710001724,1.0,1.0,part_1,,,,,,,,,,,,,yellow,I
76.0,6.0,2.0,1.0,4.0,4.0,318.1207500001619,1.0,1.0,part_1,,,,,,,,,,,,,gray,circle
420.0,8.0,4.0,1.0,3.0,3.0,278.5872320000635,1.0,1.0,part_1,,,,,,,,,,,,,green,flipped triangle
117.0,6.0,2.0,1.0,4.0,4.0,368.9752469999803,1.0,1.0,part_1,,,,,,,,,,,,,gray,circle
41.0,1.0,1.0,0.0,1.0,1.0,340.604606999932,1.0,1.0,part_1,,,,,,,,,,,,,white,hexagon
187.0,7.0,3.0,1.0,4.0,4.0,317.8590390002682,1.0,1.0,part_1,,,,,,,,,,,,,yellow,I
0.0,1.0,0.0,0.0,1.0,1.0,332.222358999843,1.0,1.0,part_1,,,,,,,,,,,,,white,hexagon
211.0,3.0,3.0,0.0,3.0,3.0,304.9944059998779,1.0,1.0,part_1,,,,,,,,,,,,,magenta,cross
88.0,6.0,2.0,1.0,2.0,2.0,293.5450519998994,1.0,1.0,part_1,,,,,,,,,,,,,gray,circle
87.0,6.0,2.0,1.0,1.0,1.0,274.8468759996285,1.0,1.0,part_1,,,,,,,,,,,,,gray,circle
0.0,5.0,0.0,1.0,3.0,3.0,317.6800050000565,1.0,1.0,part_1,,,,,,,,,,,,,blue,triangle
102.0,6.0,2.0,1.0,1.0,1.0,328.1648459997086,1.0,1.0,part_1,,,,,,,,,,,,,gray,circle
0.0,4.0,0.0,0.0,2.0,2.0,279.2716819999441,1.0,1.0,part_1,,,,,,,,,,,,,cyan,square
119.0,2.0,2.0,0.0,4.0,4.0,343.9374680001492,1.0,1.0,part_1,,,,,,,,,,,,,orange,diamond
73.0,1.0,1.0,0.0,4.0,4.0,406.1794859999281,1.0,1.0,part_1,,,,,,,,,,,,,white,hexagon
377.0,8.0,4.0,1.0,3.0,3.0,324.8624630000449,1.0,1.0,part_1,,,,,,,,,,,,,green,flipped triangle
36.0,1.0,1.0,0.0,3.0,3.0,322.796962999746,1.0,1.0,part_1,,,,,,,,,,,,,white,hexagon
32.0,1.0,1.0,0.0,1.0,1.0,305.8272240000406,1.0,1.0,part_1,,,,,,,,,,,,,white,hexagon
210.0,3.0,3.0,0.0,3.0,3.0,362.6315660003456,1.0,1.0,part_1,,,,,,,,,,,,,magenta,cross
67.0,1.0,1.0,0.0,2.0,2.0,307.0434080000268,1.0,1.0,part_1,,,,,,,,,,,,,white,hexagon
395.0,8.0,4.0,1.0,4.0,4.0,321.5221980003662,1.0,1.0,part_1,,,,,,,,,,,,,green,flipped triangle
41.0,1.0,1.0,0.0,1.0,1.0,351.4272060001531,1.0,1.0,part_1,,,,,,,,,,,,,white,hexagon
123.0,2.0,2.0,0.0,2.0,2.0,367.7042919998712,1.0,1.0,part_1,,,,,,,,,,,,,orange,diamond
418.0,4.0,4.0,0.0,4.0,4.0,365.2101940001557,1.0,1.0,part_1,,,,,,,,,,,,,cyan,square
377.0,4.0,4.0,0.0,1.0,1.0,334.2849420000675,1.0,1.0,part_1,,,,,,,,,,,,,cyan,square
112.0,2.0,2.0,0.0,4.0,4.0,329.9589129997002,1.0,1.0,part_1,,,,,,,,,,,,,orange,diamond
122.0,2.0,2.0,0.0,3.0,3.0,314.5582199999808,1.0,1.0,part_1,,,,,,,,,,,,,orange,diamond
0.0,3.0,0.0,0.0,3.0,3.0,339.7823149998658,1.0,1.0,part_1,,,,,,,,,,,,,magenta,cross
0.0,5.0,0.0,1.0,1.0,1.0,311.5170010000838,1.0,1.0,part_1,,,,,,,,,,,,,blue,triangle
0.0,7.0,0.0,1.0,2.0,2.0,309.7355740001148,1.0,1.0,part_1,,,,,,,,,,,,,yellow,I
381.0,4.0,4.0,0.0,2.0,2.0,311.7807290000201,1.0,1.0,part_1,,,,,,,,,,,,,cyan,square
46.0,5.0,1.0,1.0,3.0,3.0,349.1595949999464,1.0,1.0,part_1,,,,,,,,,,,,,blue,triangle
211.0,7.0,3.0,1.0,3.0,3.0,313.4936950000337,1.0,1.0,part_1,,,,,,,,,,,,,yellow,I
0.0,2.0,0.0,0.0,4.0,4.0,463.487976000124,1.0,1.0,part_1,,,,,,,,,,,,,orange,diamond
111.0,2.0,2.0,0.0,3.0,3.0,342.3334399999476,1.0,1.0,part_1,,,,,,,,,,,,,orange,diamond
68.0,5.0,1.0,1.0,3.0,3.0,371.939981000196,1.0,1.0,part_1,,,,,,,,,,,,,blue,triangle
388.0,8.0,4.0,1.0,3.0,3.0,366.467233000094,1.0,1.0,part_1,,,,,,,,,,,,,green,flipped triangle
388.0,4.0,4.0,0.0,2.0,2.0,426.2740750000375,1.0,1.0,part_1,,,,,,,,,,,,,cyan,square
382.0,4.0,4.0,0.0,3.0,3.0,455.7090549997156,1.0,1.0,part_1,,,,,,,,,,,,,cyan,square
31.0,1.0,1.0,0.0,1.0,1.0,264.4707889999154,1.0,1.0,part_1,,,,,,,,,,,,,white,hexagon
78.0,2.0,2.0,0.0,1.0,1.0,369.0473860001475,1.0,1.0,part_1,,,,,,,,,,,,,orange,diamond
56.0,1.0,1.0,0.0,3.0,3.0,394.4886780000161,1.0,1.0,part_1,,,,,,,,,,,,,white,hexagon
186.0,7.0,3.0,1.0,1.0,1.0,472.4050790000547,1.0,1.0,part_1,,,,,,,,,,,,,yellow,I
98.0,6.0,2.0,1.0,1.0,1.0,444.783027000085,1.0,1.0,part_1,,,,,,,,,,,,,gray,circle
0.0,1.0,0.0,0.0,3.0,3.0,325.6856049997623,1.0,1.0,part_1,,,,,,,,,,,,,white,hexagon
97.0,2.0,2.0,0.0,1.0,1.0,306.5653589997055,1.0,1.0,part_1,,,,,,,,,,,,,orange,diamond
27.0,1.0,1.0,0.0,4.0,4.0,347.0732239998142,1.0,2.0,part_1,,,,,,,,,,,,,white,hexagon
62.0,1.0,1.0,0.0,4.0,4.0,402.1131220001734,2.0,1.0,part_1,,,,,,,,,,,,,white,hexagon
0.0,6.0,0.0,1.0,1.0,1.0,348.1520229997841,2.0,1.0,part_1,,,,,,,,,,,,,gray,circle
0.0,5.0,0.0,1.0,2.0,2.0,385.6039140000575,2.0,1.0,part_1,,,,,,,,,,,,,blue,triangle
94.0,2.0,2.0,0.0,1.0,1.0,353.5963629997241,2.0,1.0,part_1,,,,,,,,,,,,,orange,diamond
0.0,2.0,0.0,0.0,2.0,2.0,363.0969509999886,2.0,1.0,part_1,,,,,,,,,,,,,orange,diamond
200.0,7.0,3.0,1.0,2.0,2.0,329.8178270001699,2.0,1.0,part_1,,,,,,,,,,,,,yellow,I
123.0,2.0,2.0,0.0,2.0,2.0,328.557914999692,2.0,1.0,part_1,,,,,,,,,,,,,orange,diamond
0.0,6.0,0.0,1.0,2.0,2.0,329.2573150001772,2.0,1.0,part_1,,,,,,,,,,,,,gray,circle
183.0,7.0,3.0,1.0,2.0,2.0,341.3556069999686,2.0,1.0,part_1,,,,,,,,,,,,,yellow,I
0.0,3.0,0.0,0.0,3.0,3.0,368.17367499998,2.0,1.0,part_1,,,,,,,,,,,,,magenta,cross
392.0,8.0,4.0,1.0,4.0,4.0,336.7298649995973,2.0,1.0,part_1,,,,,,,,,,,,,green,flipped triangle
50.0,5.0,1.0,1.0,1.0,1.0,308.1254059998173,2.0,1.0,part_1,,,,,,,,,,,,,blue,triangle
78.0,6.0,2.0,1.0,4.0,4.0,399.3322690002969,2.0,1.0,part_1,,,,,,,,,,,,,gray,circle
377.0,4.0,4.0,0.0,4.0,4.0,383.016958999633,2.0,1.0,part_1,,,,,,,,,,,,,cyan,square
209.0,3.0,3.0,0.0,1.0,1.0,329.45834200018,2.0,1.0,part_1,,,,,,,,,,,,,magenta,cross
0.0,5.0,0.0,1.0,4.0,4.0,433.8037839997923,2.0,1.0,part_1,,,,,,,,,,,,,blue,triangle
0.0,8.0,0.0,1.0,3.0,3.0,319.2607629998747,2.0,1.0,part_1,,,,,,,,,,,,,green,flipped triangle
41.0,5.0,1.0,1.0,4.0,4.0,345.2166020001641,2.0,1.0,part_1,,,,,,,,,,,,,blue,triangle
406.0,4.0,4.0,0.0,3.0,3.0,334.6934880000844,2.0,1.0,part_1,,,,,,,,,,,,,cyan,square
204.0,7.0,3.0,1.0,2.0,2.0,360.7300989997384,2.0,1.0,part_1,,,,,,,,,,,,,yellow,I
71.0,5.0,1.0,1.0,3.0,3.0,327.1259000002828,2.0,1.0,part_1,,,,,,,,,,,,,blue,triangle
179.0,3.0,3.0,0.0,3.0,3.0,316.3794590000179,2.0,1.0,part_1,,,,,,,,,,,,,magenta,cross
89.0,6.0,2.0,1.0,3.0,3.0,315.60926200018,2.0,1.0,part_1,,,,,,,,,,,,,gray,circle
78.0,2.0,2.0,0.0,1.0,1.0,337.4717739998232,2.0,1.0,part_1,,,,,,,,,,,,,orange,diamond
84.0,2.0,2.0,0.0,3.0,3.0,313.1481350001195,2.0,1.0,part_1,,,,,,,,,,,,,orange,diamond
0.0,4.0,0.0,0.0,3.0,3.0,326.7481839998254,2.0,1.0,part_1,,,,,,,,,,,,,cyan,square
0.0,5.0,0.0,1.0,1.0,1.0,317.0053270000608,2.0,1.0,part_1,,,,,,,,,,,,,blue,triangle
420.0,4.0,4.0,0.0,1.0,1.0,407.6015999999072,2.0,1.0,part_1,,,,,,,,,,,,,cyan,square
183.0,3.0,3.0,0.0,2.0,2.0,305.9835119997842,2.0,2.0,part_1,,,,,,,,,,,,,magenta,cross
44.0,5.0,1.0,1.0,2.0,2.0,414.5562450003126,2.0,1.0,part_1,,,,,,,,,,,,,blue,triangle
73.0,5.0,1.0,1.0,3.0,3.0,426.8432469998515,2.0,1.0,part_1,,,,,,,,,,,,,blue,triangle
386.0,4.0,4.0,0.0,1.0,1.0,319.944458000009,2.0,1.0,part_1,,,,,,,,,,,,,cyan,square
84.0,2.0,2.0,0.0,3.0,3.0,300.8037720001084,2.0,1.0,part_1,,,,,,,,,,,,,orange,diamond
117.0,6.0,2.0,1.0,4.0,4.0,367.85481600009,2.0,1.0,part_1,,,,,,,,,,,,,gray,circle
0.0,1.0,0.0,0.0,2.0,2.0,348.0468170000677,2.0,1.0,part_1,,,,,,,,,,,,,white,hexagon
109.0,2.0,2.0,0.0,3.0,3.0,302.1253060001072,2.0,1.0,part_1,,,,,,,,,,,,,orange,diamond
111.0,6.0,2.0,1.0,2.0,2.0,354.0831939999407,2.0,1.0,part_1,,,,,,,,,,,,,gray,circle
202.0,3.0,3.0,0.0,1.0,1.0,391.0095960000035,2.0,1.0,part_1,,,,,,,,,,,,,magenta,cross
416.0,4.0,4.0,0.0,3.0,3.0,341.6472700000668,2.0,1.0,part_1,,,,,,,,,,,,,cyan,square
0.0,4.0,0.0,0.0,3.0,3.0,420.0961229998938,2.0,1.0,part_1,,,,,,,,,,,,,cyan,square
0.0,5.0,0.0,1.0,2.0,2.0,533.911044999968,2.0,1.0,part_1,,,,,,,,,,,,,blue,triangle
95.0,2.0,2.0,0.0,3.0,3.0,376.285530000132,2.0,1.0,part_1,,,,,,,,,,,,,orange,diamond
203.0,3.0,3.0,0.0,2.0,2.0,377.2625649999099,2.0,1.0,part_1,,,,,,,,,,,,,magenta,cross
70.0,1.0,1.0,0.0,2.0,2.0,378.939851999803,2.0,1.0,part_1,,,,,,,,,,,,,white,hexagon
0.0,6.0,0.0,1.0,1.0,1.0,366.1616499998672,2.0,1.0,part_1,,,,,,,,,,,,,gray,circle
204.0,3.0,3.0,0.0,3.0,3.0,347.6059170002372,2.0,1.0,part_1,,,,,,,,,,,,,magenta,cross
0.0,8.0,0.0,1.0,1.0,1.0,354.7085180002796,2.0,1.0,part_1,,,,,,,,,,,,,green,flipped triangle
181.0,7.0,3.0,1.0,3.0,3.0,426.7809840002883,2.0,1.0,part_1,,,,,,,,,,,,,yellow,I
68.0,1.0,1.0,0.0,1.0,1.0,356.6886509997857,2.0,1.0,part_1,,,,,,,,,,,,,white,hexagon
103.0,2.0,2.0,0.0,2.0,2.0,408.7568529998862,2.0,1.0,part_1,,,,,,,,,,,,,orange,diamond
223.0,3.0,3.0,0.0,1.0,1.0,373.0815310000253,2.0,1.0,part_1,,,,,,,,,,,,,magenta,cross
112.0,6.0,2.0,1.0,3.0,3.0,372.4279349999051,2.0,1.0,part_1,,,,,,,,,,,,,gray,circle
117.0,2.0,2.0,0.0,2.0,2.0,301.1221500000829,2.0,1.0,part_1,,,,,,,,,,,,,orange,diamond
108.0,2.0,2.0,0.0,2.0,2.0,366.137315999822,2.0,1.0,part_1,,,,,,,,,,,,,orange,diamond
66.0,5.0,1.0,1.0,2.0,2.0,338.3232070000304,2.0,1.0,part_1,,,,,,,,,,,,,blue,triangle
222.0,7.0,3.0,1.0,4.0,4.0,393.7137719999555,2.0,1.0,part_1,,,,,,,,,,,,,yellow,I
68.0,1.0,1.0,0.0,4.0,4.0,376.7152609998447,2.0,1.0,part_1,,,,,,,,,,,,,white,hexagon
222.0,3.0,3.0,0.0,4.0,4.0,358.8802120002583,2.0,1.0,part_1,,,,,,,,,,,,,magenta,cross
0.0,6.0,0.0,1.0,3.0,3.0,401.06578599989,2.0,1.0,part_1,,,,,,,,,,,,,gray,circle
0.0,5.0,0.0,1.0,2.0,2.0,364.4510809999701,2.0,1.0,part_1,,,,,,,,,,,,,blue,triangle
178.0,7.0,3.0,1.0,2.0,2.0,380.6603800003358,2.0,1.0,part_1,,,,,,,,,,,,,yellow,I
0.0,6.0,0.0,1.0,4.0,4.0,425.8671990000948,2.0,1.0,part_1,,,,,,,,,,,,,gray,circle
0.0,5.0,0.0,1.0,4.0,4.0,379.7870899998088,2.0,1.0,part_1,,,,,,,,,,,,,blue,triangle
182.0,3.0,3.0,0.0,4.0,4.0,318.9688299999034,2.0,1.0,part_1,,,,,,,,,,,,,magenta,cross
100.0,6.0,2.0,1.0,4.0,4.0,318.2173179998244,2.0,1.0,part_1,,,,,,,,,,,,,gray,circle
92.0,6.0,2.0,1.0,2.0,2.0,348.4404700002415,2.0,1.0,part_1,,,,,,,,,,,,,gray,circle
121.0,6.0,2.0,1.0,1.0,1.0,331.8344029999025,2.0,1.0,part_1,,,,,,,,,,,,,gray,circle
0.0,1.0,0.0,0.0,1.0,1.0,357.954558000074,2.0,1.0,part_1,,,,,,,,,,,,,white,hexagon
189.0,3.0,3.0,0.0,1.0,1.0,362.5482449997435,2.0,1.0,part_1,,,,,,,,,,,,,magenta,cross
107.0,2.0,2.0,0.0,4.0,4.0,488.2256749997395,2.0,1.0,part_1,,,,,,,,,,,,,orange,diamond
76.0,6.0,2.0,1.0,1.0,1.0,335.8968059997096,2.0,1.0,part_1,,,,,,,,,,,,,gray,circle
217.0,3.0,3.0,0.0,2.0,2.0,362.2655950002809,2.0,1.0,part_1,,,,,,,,,,,,,magenta,cross
94.0,6.0,2.0,1.0,3.0,3.0,353.675161999945,2.0,1.0,part_1,,,,,,,,,,,,,gray,circle
196.0,7.0,3.0,1.0,3.0,3.0,345.5225890002111,2.0,1.0,part_1,,,,,,,,,,,,,yellow,I
35.0,5.0,1.0,1.0,4.0,4.0,376.4058669999031,2.0,1.0,part_1,,,,,,,,,,,,,blue,triangle
0.0,2.0,0.0,0.0,1.0,1.0,328.6827319998338,2.0,1.0,part_1,,,,,,,,,,,,,orange,diamond
203.0,3.0,3.0,0.0,1.0,1.0,313.0520950003301,2.0,1.0,part_1,,,,,,,,,,,,,magenta,cross
66.0,1.0,1.0,0.0,3.0,3.0,344.0772820003985,2.0,1.0,part_1,,,,,,,,,,,,,white,hexagon
42.0,1.0,1.0,0.0,2.0,2.0,348.474313999759,2.0,1.0,part_1,,,,,,,,,,,,,white,hexagon
122.0,6.0,2.0,1.0,2.0,2.0,486.8612340001164,2.0,1.0,part_1,,,,,,,,,,,,,gray,circle
412.0,4.0,4.0,0.0,2.0,2.0,337.5294170000416,2.0,1.0,part_1,,,,,,,,,,,,,cyan,square
42.0,5.0,1.0,1.0,4.0,4.0,366.2807750001775,2.0,1.0,part_1,,,,,,,,,,,,,blue,triangle
35.0,1.0,1.0,0.0,4.0,4.0,377.6507919997129,2.0,1.0,part_1,,,,,,,,,,,,,white,hexagon
186.0,3.0,3.0,0.0,2.0,2.0,319.4890019999548,2.0,1.0,part_1,,,,,,,,,,,,,magenta,cross
192.0,3.0,3.0,0.0,4.0,4.0,510.3229249998549,2.0,1.0,part_1,,,,,,,,,,,,,magenta,cross
0.0,3.0,0.0,0.0,2.0,2.0,364.5140710000305,2.0,1.0,part_1,,,,,,,,,,,,,magenta,cross
398.0,4.0,4.0,0.0,4.0,4.0,346.2589209998441,2.0,1.0,part_1,,,,,,,,,,,,,cyan,square
0.0,8.0,0.0,1.0,1.0,1.0,344.2763390003165,2.0,1.0,part_1,,,,,,,,,,,,,green,flipped triangle
113.0,2.0,2.0,0.0,4.0,4.0,382.2967460000654,2.0,1.0,part_1,,,,,,,,,,,,,orange,diamond
0.0,1.0,0.0,0.0,3.0,3.0,410.6614349998381,2.0,1.0,part_1,,,,,,,,,,,,,white,hexagon
109.0,2.0,2.0,0.0,3.0,3.0,323.5474999996768,2.0,1.0,part_1,,,,,,,,,,,,,orange,diamond
382.0,8.0,4.0,1.0,4.0,4.0,388.5403640001641,2.0,1.0,part_1,,,,,,,,,,,,,green,flipped triangle
0.0,1.0,0.0,0.0,3.0,3.0,329.8342930002036,2.0,1.0,part_1,,,,,,,,,,,,,white,hexagon
209.0,3.0,3.0,0.0,4.0,4.0,338.9808619999712,2.0,1.0,part_1,,,,,,,,,,,,,magenta,cross
377.0,8.0,4.0,1.0,4.0,4.0,368.1375109999862,2.0,1.0,part_1,,,,,,,,,,,,,green,flipped triangle
41.0,5.0,1.0,1.0,1.0,1.0,348.1602070000917,2.0,1.0,part_1,,,,,,,,,,,,,blue,triangle
209.0,7.0,3.0,1.0,2.0,2.0,395.0225130001854,2.0,1.0,part_1,,,,,,,,,,,,,yellow,I
89.0,2.0,2.0,0.0,1.0,1.0,329.4527480002216,2.0,1.0,part_1,,,,,,,,,,,,,orange,diamond
56.0,5.0,1.0,1.0,1.0,1.0,330.7992650002234,2.0,1.0,part_1,,,,,,,,,,,,,blue,triangle
46.0,1.0,1.0,0.0,3.0,3.0,349.7569830001339,2.0,1.0,part_1,,,,,,,,,,,,,white,hexagon
404.0,4.0,4.0,0.0,1.0,1.0,426.3523199997507,3.0,1.0,part_1,,,,,,,,,,,,,cyan,square
68.0,1.0,1.0,0.0,2.0,2.0,327.945500000169,3.0,1.0,part_1,,,,,,,,,,,,,white,hexagon
61.0,1.0,1.0,0.0,3.0,3.0,310.658414000045,3.0,1.0,part_1,,,,,,,,,,,,,white,hexagon
31.0,5.0,1.0,1.0,3.0,3.0,303.0979650002336,3.0,1.0,part_1,,,,,,,,,,,,,blue,triangle
0.0,4.0,0.0,0.0,1.0,1.0,264.1519509998034,3.0,1.0,part_1,,,,,,,,,,,,,cyan,square
118.0,6.0,2.0,1.0,4.0,4.0,319.1536350000206,3.0,1.0,part_1,,,,,,,,,,,,,gray,circle
0.0,4.0,0.0,0.0,3.0,3.0,336.5027350000673,3.0,1.0,part_1,,,,,,,,,,,,,cyan,square
182.0,7.0,3.0,1.0,1.0,1.0,324.8534460003611,3.0,1.0,part_1,,,,,,,,,,,,,yellow,I
0.0,8.0,0.0,1.0,2.0,2.0,315.9345779999967,3.0,1.0,part_1,,,,,,,,,,,,,green,flipped triangle
58.0,5.0,1.0,1.0,4.0,4.0,291.91317599998,3.0,1.0,part_1,,,,,,,,,,,,,blue,triangle
0.0,6.0,0.0,1.0,3.0,3.0,325.1319810001405,3.0,1.0,part_1,,,,,,,,,,,,,gray,circle
404.0,8.0,4.0,1.0,1.0,1.0,328.5155530002157,3.0,1.0,part_1,,,,,,,,,,,,,green,flipped triangle
409.0,8.0,4.0,1.0,4.0,4.0,328.644524000083,3.0,1.0,part_1,,,,,,,,,,,,,green,flipped triangle
31.0,5.0,1.0,1.0,3.0,3.0,438.0785379998997,3.0,1.0,part_1,,,,,,,,,,,,,blue,triangle
403.0,8.0,4.0,1.0,4.0,4.0,316.6323820000798,3.0,1.0,part_1,,,,,,,,,,,,,green,flipped triangle
200.0,3.0,3.0,0.0,4.0,4.0,334.431701000085,3.0,1.0,part_1,,,,,,,,,,,,,magenta,cross
403.0,8.0,4.0,1.0,2.0,2.0,359.7593150002467,3.0,1.0,part_1,,,,,,,,,,,,,green,flipped triangle
71.0,1.0,1.0,0.0,2.0,2.0,333.8855860001786,3.0,1.0,part_1,,,,,,,,,,,,,white,hexagon
100.0,2.0,2.0,0.0,1.0,1.0,293.7092250003843,3.0,1.0,part_1,,,,,,,,,,,,,orange,diamond
107.0,6.0,2.0,1.0,3.0,3.0,345.4901180002707,3.0,1.0,part_1,,,,,,,,,,,,,gray,circle
399.0,4.0,4.0,0.0,1.0,1.0,271.1310770000636,3.0,1.0,part_1,,,,,,,,,,,,,cyan,square
416.0,8.0,4.0,1.0,2.0,2.0,353.2739299998866,3.0,1.0,part_1,,,,,,,,,,,,,green,flipped triangle
0.0,4.0,0.0,0.0,3.0,3.0,347.9087010000512,3.0,1.0,part_1,,,,,,,,,,,,,cyan,square
377.0,4.0,4.0,0.0,3.0,3.0,322.4091020001651,3.0,1.0,part_1,,,,,,,,,,,,,cyan,square
39.0,1.0,1.0,0.0,1.0,1.0,307.4114780001764,3.0,1.0,part_1,,,,,,,,,,,,,white,hexagon
84.0,6.0,2.0,1.0,1.0,1.0,279.0338790000533,3.0,1.0,part_1,,,,,,,,,,,,,gray,circle
123.0,6.0,2.0,1.0,3.0,3.0,370.4105369997705,3.0,1.0,part_1,,,,,,,,,,,,,gray,circle
403.0,4.0,4.0,0.0,2.0,2.0,401.9366709999303,3.0,1.0,part_1,,,,,,,,,,,,,cyan,square
409.0,8.0,4.0,1.0,2.0,2.0,309.8082349997639,3.0,1.0,part_1,,,,,,,,,,,,,green,flipped triangle
0.0,3.0,0.0,0.0,1.0,1.0,363.9358089999405,3.0,1.0,part_1,,,,,,,,,,,,,magenta,cross
221.0,3.0,3.0,0.0,4.0,4.0,331.2751559997196,3.0,1.0,part_1,,,,,,,,,,,,,magenta,cross
384.0,4.0,4.0,0.0,2.0,2.0,320.4109080002126,3.0,1.0,part_1,,,,,,,,,,,,,cyan,square
46.0,1.0,1.0,0.0,4.0,4.0,333.2521219999762,3.0,1.0,part_1,,,,,,,,,,,,,white,hexagon
0.0,3.0,0.0,0.0,3.0,3.0,327.5831700002527,3.0,1.0,part_1,,,,,,,,,,,,,magenta,cross
0.0,8.0,0.0,1.0,1.0,1.0,297.6471179999862,3.0,1.0,part_1,,,,,,,,,,,,,green,flipped triangle
87.0,2.0,2.0,0.0,3.0,3.0,322.3874679997607,3.0,1.0,part_1,,,,,,,,,,,,,orange,diamond
0.0,2.0,0.0,0.0,1.0,1.0,335.3197370001908,3.0,1.0,part_1,,,,,,,,,,,,,orange,diamond
84.0,6.0,2.0,1.0,2.0,2.0,331.9165110001449,3.0,1.0,part_1,,,,,,,,,,,,,gray,circle
25.0,1.0,1.0,0.0,2.0,2.0,369.2156990000512,3.0,1.0,part_1,,,,,,,,,,,,,white,hexagon
214.0,7.0,3.0,1.0,3.0,3.0,308.1582949998847,3.0,1.0,part_1,,,,,,,,,,,,,yellow,I
380.0,4.0,4.0,0.0,2.0,2.0,371.1651980001988,3.0,1.0,part_1,,,,,,,,,,,,,cyan,square
386.0,8.0,4.0,1.0,3.0,3.0,315.0161759999719,3.0,1.0,part_1,,,,,,,,,,,,,green,flipped triangle
0.0,5.0,0.0,1.0,1.0,1.0,323.9855689998876,3.0,1.0,part_1,,,,,,,,,,,,,blue,triangle
67.0,5.0,1.0,1.0,4.0,4.0,300.6346990000565,3.0,1.0,part_1,,,,,,,,,,,,,blue,triangle
0.0,7.0,0.0,1.0,2.0,2.0,350.7242330001645,3.0,1.0,part_1,,,,,,,,,,,,,yellow,I
215.0,7.0,3.0,1.0,2.0,2.0,369.6634019997873,3.0,1.0,part_1,,,,,,,,,,,,,yellow,I
0.0,6.0,0.0,1.0,1.0,1.0,462.7582849998362,3.0,1.0,part_1,,,,,,,,,,,,,gray,circle
222.0,7.0,3.0,1.0,1.0,1.0,283.2792500003052,3.0,1.0,part_1,,,,,,,,,,,,,yellow,I
215.0,7.0,3.0,1.0,1.0,1.0,280.5700190001516,3.0,1.0,part_1,,,,,,,,,,,,,yellow,I
0.0,3.0,0.0,0.0,2.0,2.0,322.322265999901,3.0,1.0,part_1,,,,,,,,,,,,,magenta,cross
414.0,8.0,4.0,1.0,2.0,2.0,330.09803799996,3.0,1.0,part_1,,,,,,,,,,,,,green,flipped triangle
88.0,6.0,2.0,1.0,4.0,4.0,345.6630660002702,3.0,1.0,part_1,,,,,,,,,,,,,gray,circle
217.0,7.0,3.0,1.0,1.0,1.0,301.3329390000763,3.0,1.0,part_1,,,,,,,,,,,,,yellow,I
196.0,3.0,3.0,0.0,3.0,3.0,321.3982639999813,3.0,1.0,part_1,,,,,,,,,,,,,magenta,cross
394.0,8.0,4.0,1.0,4.0,4.0,362.5003839997589,3.0,1.0,part_1,,,,,,,,,,,,,green,flipped triangle
0.0,7.0,0.0,1.0,3.0,3.0,315.5285950001598,3.0,1.0,part_1,,,,,,,,,,,,,yellow,I
418.0,8.0,4.0,1.0,3.0,3.0,399.8780219999389,3.0,1.0,part_1,,,,,,,,,,,,,green,flipped triangle
403.0,4.0,4.0,0.0,3.0,3.0,325.8537220003745,3.0,1.0,part_1,,,,,,,,,,,,,cyan,square
406.0,8.0,4.0,1.0,3.0,3.0,352.3695750000115,3.0,1.0,part_1,,,,,,,,,,,,,green,flipped triangle
115.0,2.0,2.0,0.0,4.0,4.0,315.55274299989827,3.0,1.0,part_1,,,,,,,,,,,,,orange,diamond
409.0,4.0,4.0,0.0,4.0,4.0,325.5012800000258,3.0,1.0,part_1,,,,,,,,,,,,,cyan,square
0.0,1.0,0.0,0.0,4.0,4.0,353.949595999893,3.0,1.0,part_1,,,,,,,,,,,,,white,hexagon
221.0,7.0,3.0,1.0,4.0,4.0,390.613169000062,3.0,1.0,part_1,,,,,,,,,,,,,yellow,I
50.0,1.0,1.0,0.0,3.0,3.0,412.7351679999265,3.0,1.0,part_1,,,,,,,,,,,,,white,hexagon
91.0,2.0,2.0,0.0,4.0,4.0,331.6081749999284,3.0,1.0,part_1,,,,,,,,,,,,,orange,diamond
399.0,8.0,4.0,1.0,1.0,1.0,313.0179009999665,3.0,1.0,part_1,,,,,,,,,,,,,green,flipped triangle
412.0,8.0,4.0,1.0,1.0,1.0,315.7493499998054,3.0,1.0,part_1,,,,,,,,,,,,,green,flipped triangle
81.0,2.0,2.0,0.0,2.0,2.0,343.0409860002328,3.0,1.0,part_1,,,,,,,,,,,,,orange,diamond
91.0,6.0,2.0,1.0,3.0,3.0,367.3276929998792,3.0,1.0,part_1,,,,,,,,,,,,,gray,circle
47.0,5.0,1.0,1.0,1.0,1.0,350.6034759998329,3.0,1.0,part_1,,,,,,,,,,,,,blue,triangle
0.0,4.0,0.0,0.0,3.0,3.0,388.601474999632,3.0,1.0,part_1,,,,,,,,,,,,,cyan,square
115.0,6.0,2.0,1.0,3.0,3.0,324.9847310003133,3.0,1.0,part_1,,,,,,,,,,,,,gray,circle
383.0,4.0,4.0,0.0,2.0,2.0,342.8837759997805,3.0,1.0,part_1,,,,,,,,,,,,,cyan,square
210.0,7.0,3.0,1.0,1.0,1.0,323.4306829999696,3.0,1.0,part_1,,,,,,,,,,,,,yellow,I
386.0,4.0,4.0,0.0,2.0,2.0,390.1482019996365,3.0,1.0,part_1,,,,,,,,,,,,,cyan,square
31.0,1.0,1.0,0.0,1.0,1.0,310.4652650004027,3.0,1.0,part_1,,,,,,,,,,,,,white,hexagon
0.0,8.0,0.0,1.0,1.0,1.0,291.6774660002375,3.0,1.0,part_1,,,,,,,,,,,,,green,flipped triangle
377.0,8.0,4.0,1.0,2.0,2.0,330.4560750002565,3.0,1.0,part_1,,,,,,,,,,,,,green,flipped triangle
69.0,5.0,1.0,1.0,2.0,2.0,331.1951959999533,3.0,1.0,part_1,,,,,,,,,,,,,blue,triangle
417.0,8.0,4.0,1.0,4.0,4.0,401.3957810002466,3.0,1.0,part_1,,,,,,,,,,,,,green,flipped triangle
209.0,3.0,3.0,0.0,2.0,2.0,341.8296999998347,3.0,1.0,part_1,,,,,,,,,,,,,magenta,cross
213.0,3.0,3.0,0.0,2.0,2.0,395.2100040000914,3.0,1.0,part_1,,,,,,,,,,,,,magenta,cross
197.0,7.0,3.0,1.0,1.0,1.0,287.9048659997352,3.0,1.0,part_1,,,,,,,,,,,,,yellow,I
56.0,5.0,1.0,1.0,4.0,4.0,341.6400740002245,3.0,1.0,part_1,,,,,,,,,,,,,blue,triangle
0.0,8.0,0.0,1.0,2.0,2.0,353.4117680001145,3.0,1.0,part_1,,,,,,,,,,,,,green,flipped triangle
25.0,5.0,1.0,1.0,4.0,4.0,367.8996929997993,3.0,1.0,part_1,,,,,,,,,,,,,blue,triangle
422.0,4.0,4.0,0.0,3.0,3.0,346.4998960002958,3.0,1.0,part_1,,,,,,,,,,,,,cyan,square
98.0,2.0,2.0,0.0,2.0,2.0,394.413219999933,3.0,1.0,part_1,,,,,,,,,,,,,orange,diamond
109.0,6.0,2.0,1.0,2.0,2.0,338.013036999655,3.0,1.0,part_1,,,,,,,,,,,,,gray,circle
0.0,2.0,0.0,0.0,4.0,4.0,341.2894850002885,3.0,1.0,part_1,,,,,,,,,,,,,orange,diamond
410.0,8.0,4.0,1.0,1.0,1.0,330.4817090001961,3.0,1.0,part_1,,,,,,,,,,,,,green,flipped triangle
210.0,7.0,3.0,1.0,4.0,4.0,348.9202409996323,3.0,1.0,part_1,,,,,,,,,,,,,yellow,I
118.0,2.0,2.0,0.0,4.0,4.0,335.1537890002873,3.0,1.0,part_1,,,,,,,,,,,,,orange,diamond
190.0,7.0,3.0,1.0,4.0,4.0,342.8072339997925,3.0,1.0,part_1,,,,,,,,,,,,,yellow,I
196.0,7.0,3.0,1.0,3.0,3.0,338.8807609999276,3.0,1.0,part_1,,,,,,,,,,,,,yellow,I
413.0,4.0,4.0,0.0,4.0,4.0,364.567180999984,3.0,1.0,part_1,,,,,,,,,,,,,cyan,square
384.0,8.0,4.0,1.0,1.0,1.0,276.4902189996974,3.0,1.0,part_1,,,,,,,,,,,,,green,flipped triangle
55.0,1.0,1.0,0.0,1.0,1.0,343.1475390002561,3.0,1.0,part_1,,,,,,,,,,,,,white,hexagon
413.0,4.0,4.0,0.0,3.0,3.0,331.5389989998039,3.0,1.0,part_1,,,,,,,,,,,,,cyan,square
58.0,1.0,1.0,0.0,1.0,1.0,300.4072470002938,3.0,1.0,part_1,,,,,,,,,,,,,white,hexagon
41.0,1.0,1.0,0.0,4.0,4.0,359.184070000083,4.0,1.0,part_1,,,,,,,,,,,,,white,hexagon
423.0,8.0,4.0,1.0,2.0,2.0,284.0192009998645,4.0,1.0,part_1,,,,,,,,,,,,,green,flipped triangle
89.0,6.0,2.0,1.0,2.0,2.0,316.7141829999309,4.0,1.0,part_1,,,,,,,,,,,,,gray,circle
192.0,7.0,3.0,1.0,4.0,4.0,311.9860130000234,4.0,1.0,part_1,,,,,,,,,,,,,yellow,I
402.0,4.0,4.0,0.0,3.0,3.0,320.2231770001162,4.0,1.0,part_1,,,,,,,,,,,,,cyan,square
395.0,4.0,4.0,0.0,1.0,1.0,267.3312690003513,4.0,1.0,part_1,,,,,,,,,,,,,cyan,square
45.0,5.0,1.0,1.0,2.0,2.0,302.3679090001678,4.0,1.0,part_1,,,,,,,,,,,,,blue,triangle
0.0,6.0,0.0,1.0,1.0,1.0,300.2768510000351,4.0,1.0,part_1,,,,,,,,,,,,,gray,circle
0.0,7.0,0.0,1.0,3.0,3.0,286.3344639999923,4.0,1.0,part_1,,,,,,,,,,,,,yellow,I
222.0,3.0,3.0,0.0,4.0,4.0,328.2101390000207,4.0,1.0,part_1,,,,,,,,,,,,,magenta,cross
192.0,3.0,3.0,0.0,4.0,4.0,371.8419560000257,4.0,1.0,part_1,,,,,,,,,,,,,magenta,cross
76.0,2.0,2.0,0.0,4.0,4.0,287.6503430002231,4.0,1.0,part_1,,,,,,,,,,,,,orange,diamond
56.0,1.0,1.0,0.0,4.0,4.0,305.8145230002083,4.0,1.0,part_1,,,,,,,,,,,,,white,hexagon
387.0,4.0,4.0,0.0,3.0,3.0,345.7520959996145,4.0,1.0,part_1,,,,,,,,,,,,,cyan,square
203.0,7.0,3.0,1.0,3.0,3.0,313.9661510003861,4.0,1.0,part_1,,,,,,,,,,,,,yellow,I
103.0,6.0,2.0,1.0,1.0,1.0,491.7814020000151,4.0,1.0,part_1,,,,,,,,,,,,,gray,circle
403.0,4.0,4.0,0.0,4.0,4.0,314.0785150003466,4.0,1.0,part_1,,,,,,,,,,,,,cyan,square
76.0,2.0,2.0,0.0,4.0,4.0,316.760475999672,4.0,1.0,part_1,,,,,,,,,,,,,orange,diamond
39.0,5.0,1.0,1.0,3.0,3.0,298.429441999815,4.0,1.0,part_1,,,,,,,,,,,,,blue,triangle
414.0,4.0,4.0,0.0,1.0,1.0,282.6961929999925,4.0,1.0,part_1,,,,,,,,,,,,,cyan,square
0.0,1.0,0.0,0.0,2.0,2.0,318.8005179999891,4.0,1.0,part_1,,,,,,,,,,,,,white,hexagon
210.0,3.0,3.0,0.0,1.0,1.0,282.267020999825,4.0,1.0,part_1,,,,,,,,,,,,,magenta,cross
109.0,6.0,2.0,1.0,3.0,3.0,338.6202629999388,4.0,1.0,part_1,,,,,,,,,,,,,gray,circle
85.0,6.0,2.0,1.0,4.0,4.0,284.2955490004897,4.0,1.0,part_1,,,,,,,,,,,,,gray,circle
386.0,8.0,4.0,1.0,2.0,2.0,309.6940249997715,4.0,1.0,part_1,,,,,,,,,,,,,green,flipped triangle
118.0,2.0,2.0,0.0,2.0,2.0,326.5781239997523,4.0,1.0,part_1,,,,,,,,,,,,,orange,diamond
192.0,7.0,3.0,1.0,4.0,4.0,343.5527020001245,4.0,1.0,part_1,,,,,,,,,,,,,yellow,I
45.0,1.0,1.0,0.0,1.0,1.0,290.2702549999958,4.0,1.0,part_1,,,,,,,,,,,,,white,hexagon
123.0,6.0,2.0,1.0,2.0,2.0,320.7693159993141,4.0,1.0,part_1,,,,,,,,,,,,,gray,circle
95.0,2.0,2.0,0.0,1.0,1.0,298.4361339995303,4.0,1.0,part_1,,,,,,,,,,,,,orange,diamond
0.0,2.0,0.0,0.0,2.0,2.0,315.0614149999455,4.0,1.0,part_1,,,,,,,,,,,,,orange,diamond
410.0,4.0,4.0,0.0,1.0,1.0,331.4690750003137,4.0,1.0,part_1,,,,,,,,,,,,,cyan,square
92.0,2.0,2.0,0.0,4.0,4.0,330.523261000053,4.0,1.0,part_1,,,,,,,,,,,,,orange,diamond
403.0,8.0,4.0,1.0,3.0,3.0,298.4150900001623,4.0,1.0,part_1,,,,,,,,,,,,,green,flipped triangle
64.0,5.0,1.0,1.0,3.0,3.0,437.8412589994696,4.0,1.0,part_1,,,,,,,,,,,,,blue,triangle
121.0,2.0,2.0,0.0,1.0,1.0,446.060395999666,4.0,1.0,part_1,,,,,,,,,,,,,orange,diamond
0.0,3.0,0.0,0.0,1.0,1.0,428.9447959999961,4.0,1.0,part_1,,,,,,,,,,,,,magenta,cross
41.0,5.0,1.0,1.0,2.0,2.0,333.8006869998935,4.0,1.0,part_1,,,,,,,,,,,,,blue,triangle
0.0,7.0,0.0,1.0,2.0,2.0,363.1932040007086,4.0,1.0,part_1,,,,,,,,,,,,,yellow,I
0.0,8.0,0.0,1.0,1.0,1.0,332.5663269997676,4.0,1.0,part_1,,,,,,,,,,,,,green,flipped triangle
39.0,5.0,1.0,1.0,1.0,1.0,304.1380309996384,4.0,1.0,part_1,,,,,,,,,,,,,blue,triangle
180.0,7.0,3.0,1.0,2.0,2.0,331.4193129999694,4.0,1.0,part_1,,,,,,,,,,,,,yellow,I
39.0,1.0,1.0,0.0,2.0,2.0,301.6123179995702,4.0,1.0,part_1,,,,,,,,,,,,,white,hexagon
176.0,7.0,3.0,1.0,4.0,4.0,388.4995730004448,4.0,1.0,part_1,,,,,,,,,,,,,yellow,I
95.0,6.0,2.0,1.0,2.0,2.0,323.6353270003747,4.0,1.0,part_1,,,,,,,,,,,,,gray,circle
186.0,3.0,3.0,0.0,2.0,2.0,313.6041429997931,4.0,1.0,part_1,,,,,,,,,,,,,magenta,cross
70.0,5.0,1.0,1.0,3.0,3.0,330.6824649998816,4.0,1.0,part_1,,,,,,,,,,,,,blue,triangle
403.0,8.0,4.0,1.0,1.0,1.0,301.0746829995696,4.0,1.0,part_1,,,,,,,,,,,,,green,flipped triangle
30.0,1.0,1.0,0.0,3.0,3.0,343.4242890007226,4.0,1.0,part_1,,,,,,,,,,,,,white,hexagon
423.0,4.0,4.0,0.0,1.0,1.0,326.2434990001566,4.0,1.0,part_1,,,,,,,,,,,,,cyan,square
197.0,3.0,3.0,0.0,4.0,4.0,322.2943310001938,4.0,1.0,part_1,,,,,,,,,,,,,magenta,cross
0.0,8.0,0.0,1.0,1.0,1.0,318.5361600008036,4.0,1.0,part_1,,,,,,,,,,,,,green,flipped triangle
202.0,7.0,3.0,1.0,2.0,2.0,387.673790000008,4.0,1.0,part_1,,,,,,,,,,,,,yellow,I
181.0,3.0,3.0,0.0,1.0,1.0,330.1455569999234,4.0,1.0,part_1,,,,,,,,,,,,,magenta,cross
61.0,5.0,1.0,1.0,4.0,4.0,340.3074199995899,4.0,1.0,part_1,,,,,,,,,,,,,blue,triangle
387.0,8.0,4.0,1.0,1.0,1.0,303.7520379994021,4.0,1.0,part_1,,,,,,,,,,,,,green,flipped triangle
97.0,6.0,2.0,1.0,1.0,1.0,382.3672540002008,4.0,1.0,part_1,,,,,,,,,,,,,gray,circle
0.0,4.0,0.0,0.0,2.0,2.0,367.1868259998518,4.0,1.0,part_1,,,,,,,,,,,,,cyan,square
118.0,6.0,2.0,1.0,4.0,4.0,328.7129520003873,4.0,1.0,part_1,,,,,,,,,,,,,gray,circle
413.0,8.0,4.0,1.0,1.0,1.0,261.0791670003891,4.0,1.0,part_1,,,,,,,,,,,,,green,flipped triangle
0.0,2.0,0.0,0.0,4.0,4.0,373.6425090000921,4.0,1.0,part_1,,,,,,,,,,,,,orange,diamond
32.0,5.0,1.0,1.0,1.0,1.0,291.3858179999806,4.0,1.0,part_1,,,,,,,,,,,,,blue,triangle
417.0,4.0,4.0,0.0,1.0,1.0,286.9249630002741,4.0,1.0,part_1,,,,,,,,,,,,,cyan,square
50.0,5.0,1.0,1.0,4.0,4.0,441.3007570001355,4.0,1.0,part_1,,,,,,,,,,,,,blue,triangle
119.0,6.0,2.0,1.0,2.0,2.0,348.3767800007626,4.0,1.0,part_1,,,,,,,,,,,,,gray,circle
213.0,7.0,3.0,1.0,1.0,1.0,257.2077230006471,4.0,1.0,part_1,,,,,,,,,,,,,yellow,I
55.0,5.0,1.0,1.0,1.0,1.0,267.1124899998176,4.0,1.0,part_1,,,,,,,,,,,,,blue,triangle
44.0,1.0,1.0,0.0,3.0,3.0,364.8988189997908,4.0,1.0,part_1,,,,,,,,,,,,,white,hexagon
113.0,6.0,2.0,1.0,3.0,3.0,310.9977029998845,4.0,1.0,part_1,,,,,,,,,,,,,gray,circle
108.0,6.0,2.0,1.0,3.0,3.0,365.397168000527,4.0,1.0,part_1,,,,,,,,,,,,,gray,circle
223.0,7.0,3.0,1.0,4.0,4.0,447.285895999812,4.0,1.0,part_1,,,,,,,,,,,,,yellow,I
186.0,7.0,3.0,1.0,1.0,1.0,317.7338989999043,4.0,1.0,part_1,,,,,,,,,,,,,yellow,I
421.0,4.0,4.0,0.0,4.0,4.0,386.4015560002372,4.0,1.0,part_1,,,,,,,,,,,,,cyan,square
0.0,6.0,0.0,1.0,2.0,2.0,319.6417769995605,4.0,1.0,part_1,,,,,,,,,,,,,gray,circle
50.0,1.0,1.0,0.0,2.0,2.0,344.0149690004546,4.0,1.0,part_1,,,,,,,,,,,,,white,hexagon
196.0,3.0,3.0,0.0,3.0,3.0,318.4007299996665,4.0,1.0,part_1,,,,,,,,,,,,,magenta,cross
117.0,2.0,2.0,0.0,1.0,1.0,300.9282189996156,4.0,1.0,part_1,,,,,,,,,,,,,orange,diamond
413.0,8.0,4.0,1.0,2.0,2.0,315.2744529998017,4.0,1.0,part_1,,,,,,,,,,,,,green,flipped triangle
381.0,8.0,4.0,1.0,1.0,1.0,264.3075330006468,4.0,1.0,part_1,,,,,,,,,,,,,green,flipped triangle
0.0,4.0,0.0,0.0,3.0,3.0,327.5685090002298,4.0,1.0,part_1,,,,,,,,,,,,,cyan,square
53.0,1.0,1.0,0.0,2.0,2.0,341.8584060000285,4.0,1.0,part_1,,,,,,,,,,,,,white,hexagon
0.0,4.0,0.0,0.0,3.0,3.0,326.1705859995345,4.0,1.0,part_1,,,,,,,,,,,,,cyan,square
0.0,7.0,0.0,1.0,2.0,2.0,324.7750609998547,4.0,1.0,part_1,,,,,,,,,,,,,yellow,I
215.0,3.0,3.0,0.0,1.0,1.0,271.1390259992186,4.0,1.0,part_1,,,,,,,,,,,,,magenta,cross
62.0,5.0,1.0,1.0,1.0,1.0,291.379830000551,4.0,1.0,part_1,,,,,,,,,,,,,blue,triangle
214.0,3.0,3.0,0.0,1.0,1.0,313.0896370003029,4.0,1.0,part_1,,,,,,,,,,,,,magenta,cross
210.0,3.0,3.0,0.0,2.0,2.0,286.7939839998144,4.0,1.0,part_1,,,,,,,,,,,,,magenta,cross
379.0,8.0,4.0,1.0,4.0,4.0,323.9441659998192,4.0,1.0,part_1,,,,,,,,,,,,,green,flipped triangle
36.0,5.0,1.0,1.0,1.0,1.0,371.5940349993616,4.0,1.0,part_1,,,,,,,,,,,,,blue,triangle
89.0,2.0,2.0,0.0,2.0,2.0,359.1642229994249,4.0,1.0,part_1,,,,,,,,,,,,,orange,diamond
0.0,7.0,0.0,1.0,3.0,3.0,305.7796799994321,4.0,1.0,part_1,,,,,,,,,,,,,yellow,I
215.0,3.0,3.0,0.0,4.0,4.0,393.4683810002752,4.0,1.0,part_1,,,,,,,,,,,,,magenta,cross
0.0,5.0,0.0,1.0,4.0,4.0,397.7827449998585,4.0,1.0,part_1,,,,,,,,,,,,,blue,triangle
88.0,2.0,2.0,0.0,3.0,3.0,416.1141610002232,4.0,1.0,part_1,,,,,,,,,,,,,orange,diamond
210.0,7.0,3.0,1.0,4.0,4.0,361.552197000492,4.0,1.0,part_1,,,,,,,,,,,,,yellow,I
179.0,7.0,3.0,1.0,3.0,3.0,310.1805529995545,4.0,1.0,part_1,,,,,,,,,,,,,yellow,I
383.0,8.0,4.0,1.0,3.0,3.0,381.2797040000077,4.0,1.0,part_1,,,,,,,,,,,,,green,flipped triangle
409.0,4.0,4.0,0.0,4.0,4.0,308.1982860003336,4.0,1.0,part_1,,,,,,,,,,,,,cyan,square
0.0,7.0,0.0,1.0,2.0,2.0,307.4677740005427,4.0,1.0,part_1,,,,,,,,,,,,,yellow,I
95.0,6.0,2.0,1.0,1.0,1.0,321.0925499997756,4.0,1.0,part_1,,,,,,,,,,,,,gray,circle
0.0,1.0,1.0,0.0,5.0,5.0,377.7830219996758,1.0,0.0,part_2,go,250.0,250.0,1.0,,,,,,,,,white,hexagon
0.0,3.0,3.0,0.0,5.0,5.0,322.0243619998655,1.0,0.0,part_2,go,250.0,250.0,1.0,,,,,,,,,magenta,cross
0.0,1.0,1.0,0.0,5.0,5.0,547.0522769992385,1.0,0.0,part_2,go,250.0,250.0,1.0,,,,,,,,,white,hexagon
0.0,3.0,3.0,0.0,5.0,5.0,328.3318169997073,1.0,0.0,part_2,go,250.0,250.0,1.0,,,,,,,,,magenta,cross
0.0,1.0,1.0,0.0,5.0,5.0,487.2126459995343,1.0,0.0,part_2,go,250.0,250.0,1.0,,,,,,,,,white,hexagon
0.0,1.0,1.0,0.0,5.0,5.0,354.1266980000728,1.0,0.0,part_2,go,250.0,250.0,1.0,,,,,,,,,white,hexagon
0.0,3.0,3.0,0.0,6.0,6.0,297.3811010006102,1.0,0.0,part_2,go,250.0,250.0,1.0,,,,,,,,,magenta,cross
0.0,8.0,4.0,1.0,6.0,6.0,397.6420529997995,1.0,0.0,part_2,stop,250.0,250.0,3.0,,,,,,,,,green,flipped triangle
0.0,1.0,1.0,0.0,6.0,6.0,324.4794870006444,1.0,0.0,part_2,go,250.0,200.0,1.0,,,,,,,,,white,hexagon
0.0,6.0,2.0,1.0,6.0,6.0,362.0230639999136,1.0,0.0,part_2,stop,250.0,200.0,3.0,,,,,,,,,gray,circle
0.0,3.0,3.0,0.0,5.0,5.0,308.3505120002883,1.0,0.0,part_2,go,250.0,150.0,1.0,,,,,,,,,magenta,cross
0.0,2.0,2.0,0.0,5.0,5.0,430.2584199995181,1.0,0.0,part_2,go,250.0,150.0,1.0,,,,,,,,,orange,diamond
0.0,5.0,1.0,1.0,5.0,0.0,0.0,1.0,0.0,part_2,stop,250.0,150.0,4.0,,,,,,,,,blue,triangle
0.0,5.0,1.0,1.0,5.0,5.0,447.7835689995117,1.0,0.0,part_2,stop,300.0,150.0,3.0,,,,,,,,,blue,triangle
0.0,4.0,4.0,0.0,6.0,6.0,500.41127399981633,1.0,0.0,part_2,go,250.0,150.0,1.0,,,,,,,,,cyan,square
0.0,6.0,2.0,1.0,5.0,5.0,368.4659569998985,1.0,0.0,part_2,stop,250.0,150.0,3.0,,,,,,,,,gray,circle
0.0,1.0,1.0,0.0,6.0,6.0,722.2088509997775,1.0,0.0,part_2,go,200.0,150.0,1.0,,,,,,,,,white,hexagon
0.0,1.0,1.0,0.0,6.0,6.0,685.0126139997883,1.0,0.0,part_2,go,200.0,150.0,1.0,,,,,,,,,white,hexagon
0.0,8.0,4.0,1.0,5.0,0.0,0.0,1.0,0.0,part_2,stop,200.0,150.0,4.0,,,,,,,,,green,flipped triangle
0.0,6.0,2.0,1.0,6.0,0.0,0.0,1.0,0.0,part_2,stop,250.0,150.0,4.0,,,,,,,,,gray,circle
0.0,4.0,4.0,0.0,5.0,5.0,572.9392029998053,1.0,0.0,part_2,go,250.0,200.0,1.0,,,,,,,,,cyan,square
0.0,5.0,1.0,1.0,6.0,0.0,0.0,1.0,0.0,part_2,stop,250.0,200.0,4.0,,,,,,,,,blue,triangle
0.0,3.0,3.0,0.0,6.0,6.0,579.0794320000714,1.0,0.0,part_2,go,250.0,250.0,1.0,,,,,,,,,magenta,cross
0.0,8.0,4.0,1.0,6.0,0.0,0.0,1.0,0.0,part_2,stop,250.0,250.0,4.0,,,,,,,,,green,flipped triangle
0.0,2.0,2.0,0.0,6.0,6.0,761.7506990000038,1.0,0.0,part_2,go,250.0,300.0,1.0,,,,,,,,,orange,diamond
0.0,1.0,1.0,0.0,6.0,6.0,518.7687919997188,1.0,0.0,part_2,go,250.0,300.0,1.0,,,,,,,,,white,hexagon
0.0,4.0,4.0,0.0,6.0,6.0,643.6380489994917,1.0,0.0,part_2,go,250.0,300.0,1.0,,,,,,,,,cyan,square
0.0,6.0,2.0,1.0,6.0,0.0,0.0,1.0,0.0,part_2,stop,250.0,300.0,4.0,,,,,,,,,gray,circle
0.0,5.0,1.0,1.0,5.0,0.0,0.0,1.0,0.0,part_2,stop,250.0,350.0,4.0,,,,,,,,,blue,triangle
0.0,4.0,4.0,0.0,5.0,5.0,618.5727729998689,1.0,0.0,part_2,go,300.0,350.0,1.0,,,,,,,,,cyan,square
0.0,6.0,2.0,1.0,5.0,0.0,0.0,1.0,0.0,part_2,stop,300.0,350.0,4.0,,,,,,,,,gray,circle
0.0,8.0,4.0,1.0,5.0,5.0,461.6415379996397,1.0,0.0,part_2,go,350.0,350.0,1.0,,,,,,,,,green,flipped triangle
0.0,1.0,1.0,0.0,5.0,5.0,450.2045050003289,1.0,0.0,part_2,go,350.0,350.0,1.0,,,,,,,,,white,hexagon
0.0,5.0,1.0,1.0,5.0,0.0,0.0,1.0,0.0,part_2,stop,350.0,350.0,4.0,,,,,,,,,blue,triangle
0.0,7.0,3.0,1.0,5.0,5.0,513.8202050002292,1.0,0.0,part_2,go,400.0,350.0,1.0,,,,,,,,,yellow,I
0.0,3.0,3.0,0.0,5.0,5.0,593.3371270002681,1.0,0.0,part_2,go,400.0,350.0,1.0,,,,,,,,,magenta,cross
0.0,3.0,3.0,0.0,6.0,6.0,427.0496469998761,2.0,0.0,part_2,go,400.0,350.0,1.0,,,,,,,,,magenta,cross
0.0,5.0,1.0,1.0,5.0,0.0,0.0,2.0,0.0,part_2,stop,400.0,350.0,4.0,,,,,,,,,blue,triangle
0.0,8.0,4.0,1.0,5.0,5.0,432.0687999997972,2.0,0.0,part_2,stop,450.0,350.0,3.0,,,,,,,,,green,flipped triangle
0.0,5.0,1.0,1.0,6.0,6.0,291.0510030005753,2.0,0.0,part_2,stop,400.0,350.0,3.0,,,,,,,,,blue,triangle
0.0,8.0,4.0,1.0,5.0,5.0,529.7904999997627,2.0,0.0,part_2,go,400.0,300.0,1.0,,,,,,,,,green,flipped triangle
0.0,7.0,3.0,1.0,5.0,5.0,652.5794600001973,2.0,0.0,part_2,go,400.0,300.0,1.0,,,,,,,,,yellow,I
0.0,8.0,4.0,1.0,6.0,0.0,0.0,2.0,0.0,part_2,stop,400.0,300.0,4.0,,,,,,,,,green,flipped triangle
0.0,3.0,3.0,0.0,6.0,6.0,535.6130790005409,2.0,0.0,part_2,go,400.0,350.0,1.0,,,,,,,,,magenta,cross
0.0,2.0,2.0,0.0,5.0,5.0,541.9752929992683,2.0,0.0,part_2,go,400.0,350.0,1.0,,,,,,,,,orange,diamond
0.0,1.0,1.0,0.0,5.0,5.0,596.7069550006272,2.0,0.0,part_2,go,400.0,350.0,1.0,,,,,,,,,white,hexagon
0.0,2.0,2.0,0.0,6.0,6.0,580.0832969998737,2.0,0.0,part_2,go,400.0,350.0,1.0,,,,,,,,,orange,diamond
0.0,2.0,2.0,0.0,6.0,6.0,605.4486039993208,2.0,0.0,part_2,go,400.0,350.0,1.0,,,,,,,,,orange,diamond
0.0,7.0,3.0,1.0,5.0,5.0,538.8987520000228,2.0,0.0,part_2,stop,400.0,350.0,3.0,,,,,,,,,yellow,I
0.0,4.0,4.0,0.0,5.0,5.0,767.8305330000512,2.0,0.0,part_2,go,350.0,350.0,1.0,,,,,,,,,cyan,square
0.0,7.0,3.0,1.0,5.0,5.0,720.4681169996547,2.0,0.0,part_2,go,350.0,350.0,1.0,,,,,,,,,yellow,I
0.0,3.0,3.0,0.0,6.0,6.0,388.921486000072,2.0,0.0,part_2,go,350.0,350.0,1.0,,,,,,,,,magenta,cross
0.0,5.0,1.0,1.0,5.0,0.0,0.0,2.0,0.0,part_2,stop,350.0,350.0,4.0,,,,,,,,,blue,triangle
0.0,8.0,4.0,1.0,6.0,0.0,0.0,2.0,0.0,part_2,stop,400.0,350.0,4.0,,,,,,,,,green,flipped triangle
0.0,7.0,3.0,1.0,6.0,0.0,0.0,2.0,0.0,part_2,stop,400.0,400.0,4.0,,,,,,,,,yellow,I
0.0,1.0,1.0,0.0,6.0,6.0,593.0012530006934,2.0,0.0,part_2,go,400.0,450.0,1.0,,,,,,,,,white,hexagon
0.0,2.0,2.0,0.0,6.0,6.0,316.9321300001684,2.0,0.0,part_2,go,400.0,450.0,1.0,,,,,,,,,orange,diamond
0.0,8.0,4.0,1.0,5.0,5.0,438.5205489998043,2.0,0.0,part_2,stop,400.0,450.0,3.0,,,,,,,,,green,flipped triangle
0.0,2.0,2.0,0.0,5.0,5.0,737.3113580006248,2.0,0.0,part_2,go,350.0,450.0,1.0,,,,,,,,,orange,diamond
0.0,8.0,4.0,1.0,5.0,0.0,0.0,2.0,0.0,part_2,stop,350.0,450.0,4.0,,,,,,,,,green,flipped triangle
0.0,8.0,4.0,1.0,5.0,0.0,0.0,2.0,0.0,part_2,stop,400.0,450.0,4.0,,,,,,,,,green,flipped triangle
0.0,8.0,4.0,1.0,6.0,6.0,706.678474999535,2.0,0.0,part_2,go,450.0,450.0,1.0,,,,,,,,,green,flipped triangle
0.0,3.0,3.0,0.0,6.0,6.0,551.0490099995877,2.0,0.0,part_2,go,450.0,450.0,1.0,,,,,,,,,magenta,cross
0.0,3.0,3.0,0.0,5.0,5.0,676.385274000495,2.0,0.0,part_2,go,450.0,450.0,1.0,,,,,,,,,magenta,cross
0.0,7.0,3.0,1.0,6.0,6.0,360.4672829997071,2.0,0.0,part_2,stop,450.0,450.0,3.0,,,,,,,,,yellow,I
0.0,7.0,3.0,1.0,6.0,0.0,0.0,2.0,0.0,part_2,stop,450.0,400.0,4.0,,,,,,,,,yellow,I
0.0,8.0,4.0,1.0,5.0,0.0,0.0,2.0,0.0,part_2,stop,450.0,450.0,4.0,,,,,,,,,green,flipped triangle
0.0,1.0,1.0,0.0,6.0,6.0,633.6247250001179,2.0,0.0,part_2,go,500.0,450.0,1.0,,,,,,,,,white,hexagon
0.0,5.0,1.0,1.0,6.0,6.0,375.2323409999007,2.0,0.0,part_2,stop,500.0,450.0,3.0,,,,,,,,,blue,triangle
0.0,4.0,4.0,0.0,6.0,6.0,793.2355630000529,2.0,0.0,part_2,go,500.0,400.0,1.0,,,,,,,,,cyan,square
0.0,2.0,2.0,0.0,6.0,6.0,885.2271779996954,2.0,0.0,part_2,go,500.0,400.0,1.0,,,,,,,,,orange,diamond
0.0,1.0,1.0,0.0,5.0,5.0,665.8346379999784,2.0,0.0,part_2,go,500.0,400.0,1.0,,,,,,,,,white,hexagon
0.0,1.0,1.0,0.0,5.0,5.0,765.3862399993159,3.0,0.0,part_2,go,500.0,400.0,1.0,,,,,,,,,white,hexagon
0.0,7.0,3.0,1.0,5.0,0.0,0.0,3.0,0.0,part_2,stop,500.0,400.0,4.0,,,,,,,,,yellow,I
0.0,4.0,4.0,0.0,5.0,5.0,700.4779369999596,3.0,0.0,part_2,go,550.0,400.0,1.0,,,,,,,,,cyan,square
0.0,6.0,2.0,1.0,6.0,6.0,558.3061560000715,3.0,0.0,part_2,stop,550.0,400.0,3.0,,,,,,,,,gray,circle
0.0,3.0,3.0,0.0,6.0,6.0,696.0437459993045,3.0,0.0,part_2,go,550.0,350.0,1.0,,,,,,,,,magenta,cross
0.0,3.0,3.0,0.0,6.0,6.0,739.144916999976,3.0,0.0,part_2,go,550.0,350.0,1.0,,,,,,,,,magenta,cross
0.0,8.0,4.0,1.0,5.0,0.0,0.0,3.0,0.0,part_2,stop,550.0,350.0,4.0,,,,,,,,,green,flipped triangle
0.0,4.0,4.0,0.0,5.0,5.0,777.3563809996631,3.0,0.0,part_2,go,600.0,350.0,1.0,,,,,,,,,cyan,square
0.0,7.0,3.0,1.0,6.0,6.0,323.9078119995611,3.0,0.0,part_2,go,600.0,350.0,1.0,,,,,,,,,yellow,I
0.0,4.0,4.0,0.0,6.0,6.0,649.0741159996105,3.0,0.0,part_2,go,600.0,350.0,1.0,,,,,,,,,cyan,square
0.0,8.0,4.0,1.0,5.0,0.0,0.0,3.0,0.0,part_2,stop,600.0,350.0,4.0,,,,,,,,,green,flipped triangle
0.0,6.0,2.0,1.0,5.0,5.0,784.4130260000384,3.0,0.0,part_2,stop,650.0,350.0,3.0,,,,,,,,,gray,circle
0.0,7.0,3.0,1.0,6.0,6.0,827.5248250001823,3.0,0.0,part_2,go,600.0,350.0,1.0,,,,,,,,,yellow,I
0.0,5.0,1.0,1.0,5.0,0.0,0.0,3.0,0.0,part_2,stop,600.0,350.0,4.0,,,,,,,,,blue,triangle
0.0,1.0,1.0,0.0,6.0,6.0,939.3912890000138,3.0,0.0,part_2,go,650.0,350.0,1.0,,,,,,,,,white,hexagon
0.0,7.0,3.0,1.0,5.0,5.0,798.5108860002583,3.0,0.0,part_2,go,650.0,350.0,1.0,,,,,,,,,yellow,I
0.0,7.0,3.0,1.0,6.0,6.0,848.4959980005442,3.0,0.0,part_2,go,650.0,350.0,1.0,,,,,,,,,yellow,I
0.0,3.0,3.0,0.0,6.0,6.0,786.3118190007299,3.0,0.0,part_2,go,650.0,350.0,1.0,,,,,,,,,magenta,cross
0.0,5.0,1.0,1.0,6.0,0.0,0.0,3.0,0.0,part_2,stop,650.0,350.0,4.0,,,,,,,,,blue,triangle
0.0,6.0,2.0,1.0,5.0,0.0,0.0,3.0,0.0,part_2,stop,650.0,400.0,4.0,,,,,,,,,gray,circle
0.0,5.0,1.0,1.0,5.0,5.0,755.2085389997956,3.0,0.0,part_2,stop,700.0,400.0,3.0,,,,,,,,,blue,triangle
0.0,1.0,1.0,0.0,6.0,6.0,751.1476139998194,3.0,0.0,part_2,go,650.0,400.0,1.0,,,,,,,,,white,hexagon
0.0,6.0,2.0,1.0,6.0,0.0,0.0,3.0,0.0,part_2,stop,650.0,400.0,4.0,,,,,,,,,gray,circle
0.0,4.0,4.0,0.0,6.0,6.0,801.8955999996251,3.0,0.0,part_2,go,650.0,450.0,1.0,,,,,,,,,cyan,square
0.0,4.0,4.0,0.0,6.0,6.0,631.7589419995784,3.0,0.0,part_2,go,650.0,450.0,1.0,,,,,,,,,cyan,square
0.0,7.0,3.0,1.0,5.0,5.0,648.9767839993874,3.0,0.0,part_2,stop,650.0,450.0,3.0,,,,,,,,,yellow,I
0.0,7.0,3.0,1.0,6.0,6.0,565.45097200069,3.0,0.0,part_2,stop,600.0,450.0,3.0,,,,,,,,,yellow,I
0.0,5.0,1.0,1.0,6.0,6.0,759.3766400004824,3.0,0.0,part_2,go,600.0,400.0,1.0,,,,,,,,,blue,triangle
0.0,2.0,2.0,0.0,5.0,5.0,808.1418389992905,3.0,0.0,part_2,go,600.0,400.0,1.0,,,,,,,,,orange,diamond
0.0,2.0,2.0,0.0,5.0,5.0,655.654126000627,3.0,0.0,part_2,go,600.0,400.0,1.0,,,,,,,,,orange,diamond
0.0,1.0,1.0,0.0,5.0,5.0,727.1886979997362,3.0,0.0,part_2,go,600.0,400.0,1.0,,,,,,,,,white,hexagon
0.0,2.0,2.0,0.0,5.0,5.0,791.6858160006086,3.0,0.0,part_2,go,600.0,400.0,1.0,,,,,,,,,orange,diamond
0.0,4.0,4.0,0.0,6.0,6.0,841.4698110000245,3.0,0.0,part_2,go,600.0,400.0,1.0,,,,,,,,,cyan,square
0.0,7.0,3.0,1.0,6.0,0.0,0.0,3.0,0.0,part_2,stop,600.0,400.0,4.0,,,,,,,,,yellow,I
0.0,4.0,4.0,0.0,5.0,5.0,767.165262999697,3.0,0.0,part_2,go,600.0,450.0,1.0,,,,,,,,,cyan,square
0.0,6.0,2.0,1.0,5.0,5.0,856.5812130000268,3.0,0.0,part_2,go,600.0,450.0,1.0,,,,,,,,,gray,circle
0.0,2.0,2.0,0.0,6.0,6.0,386.3115439999092,4.0,0.0,part_2,go,600.0,450.0,1.0,,,,,,,,,orange,diamond
0.0,8.0,4.0,1.0,6.0,6.0,360.5548430005001,4.0,0.0,part_2,stop,600.0,450.0,3.0,,,,,,,,,green,flipped triangle
0.0,5.0,1.0,1.0,6.0,0.0,0.0,4.0,0.0,part_2,stop,600.0,400.0,4.0,,,,,,,,,blue,triangle
0.0,4.0,4.0,0.0,5.0,5.0,380.5632069997955,4.0,0.0,part_2,go,600.0,450.0,1.0,,,,,,,,,cyan,square
0.0,7.0,3.0,1.0,5.0,5.0,647.5434860003588,4.0,0.0,part_2,stop,600.0,450.0,3.0,,,,,,,,,yellow,I
0.0,2.0,2.0,0.0,6.0,6.0,904.881596999985,4.0,0.0,part_2,go,550.0,450.0,1.0,,,,,,,,,orange,diamond
0.0,5.0,1.0,1.0,6.0,6.0,821.0226580004019,4.0,0.0,part_2,go,550.0,450.0,1.0,,,,,,,,,blue,triangle
0.0,4.0,4.0,0.0,5.0,5.0,782.2915059996376,4.0,0.0,part_2,go,550.0,450.0,1.0,,,,,,,,,cyan,square
0.0,2.0,2.0,0.0,5.0,5.0,622.5005650003368,4.0,0.0,part_2,go,550.0,450.0,1.0,,,,,,,,,orange,diamond
0.0,5.0,1.0,1.0,5.0,5.0,643.0878199998915,4.0,0.0,part_2,stop,550.0,450.0,3.0,,,,,,,,,blue,triangle
0.0,7.0,3.0,1.0,5.0,5.0,597.2902570001679,4.0,0.0,part_2,go,500.0,450.0,1.0,,,,,,,,,yellow,I
0.0,3.0,3.0,0.0,6.0,6.0,630.2699540001413,4.0,0.0,part_2,go,500.0,450.0,1.0,,,,,,,,,magenta,cross
0.0,3.0,3.0,0.0,6.0,6.0,680.8992300002501,4.0,0.0,part_2,go,500.0,450.0,1.0,,,,,,,,,magenta,cross
0.0,7.0,3.0,1.0,5.0,0.0,0.0,4.0,0.0,part_2,stop,500.0,450.0,4.0,,,,,,,,,yellow,I
0.0,5.0,1.0,1.0,5.0,0.0,0.0,4.0,0.0,part_2,stop,550.0,450.0,4.0,,,,,,,,,blue,triangle
0.0,4.0,4.0,0.0,5.0,5.0,690.6708759997855,4.0,0.0,part_2,go,600.0,450.0,1.0,,,,,,,,,cyan,square
0.0,3.0,3.0,0.0,6.0,6.0,712.2748680003497,4.0,0.0,part_2,go,600.0,450.0,1.0,,,,,,,,,magenta,cross
0.0,1.0,1.0,0.0,5.0,5.0,687.4578130000373,4.0,0.0,part_2,go,600.0,450.0,1.0,,,,,,,,,white,hexagon
0.0,4.0,4.0,0.0,6.0,6.0,440.6119589993977,4.0,0.0,part_2,go,600.0,450.0,1.0,,,,,,,,,cyan,square
0.0,3.0,3.0,0.0,5.0,5.0,609.0828920005151,4.0,0.0,part_2,go,600.0,450.0,1.0,,,,,,,,,magenta,cross
0.0,7.0,3.0,1.0,6.0,6.0,514.9987989998408,4.0,0.0,part_2,stop,600.0,450.0,3.0,,,,,,,,,yellow,I
0.0,3.0,3.0,0.0,6.0,6.0,696.4286709999215,4.0,0.0,part_2,go,600.0,400.0,1.0,,,,,,,,,magenta,cross
0.0,7.0,3.0,1.0,6.0,6.0,569.5369499999288,4.0,0.0,part_2,stop,600.0,400.0,3.0,,,,,,,,,yellow,I
0.0,1.0,1.0,0.0,6.0,6.0,861.2689930005217,4.0,0.0,part_2,go,600.0,350.0,1.0,,,,,,,,,white,hexagon
0.0,8.0,4.0,1.0,6.0,0.0,0.0,4.0,0.0,part_2,stop,600.0,350.0,4.0,,,,,,,,,green,flipped triangle
0.0,6.0,2.0,1.0,5.0,5.0,729.6354649997738,4.0,0.0,part_2,stop,600.0,400.0,3.0,,,,,,,,,gray,circle
0.0,8.0,4.0,1.0,6.0,6.0,799.1002850003497,4.0,0.0,part_2,go,550.0,400.0,1.0,,,,,,,,,green,flipped triangle
0.0,2.0,2.0,0.0,6.0,6.0,722.5689410006453,4.0,0.0,part_2,go,550.0,400.0,1.0,,,,,,,,,orange,diamond
0.0,7.0,3.0,1.0,6.0,0.0,0.0,4.0,0.0,part_2,stop,550.0,400.0,4.0,,,,,,,,,yellow,I
0.0,1.0,1.0,0.0,5.0,5.0,679.8474019997229,4.0,0.0,part_2,go,550.0,450.0,1.0,,,,,,,,,white,hexagon
0.0,2.0,2.0,0.0,5.0,5.0,588.9210089999324,4.0,0.0,part_2,go,550.0,450.0,1.0,,,,,,,,,orange,diamond
0.0,6.0,2.0,1.0,6.0,0.0,0.0,4.0,0.0,part_2,stop,550.0,450.0,4.0,,,,,,,,,gray,circle
0.0,6.0,2.0,1.0,6.0,6.0,751.3225900001999,4.0,0.0,part_2,go,550.0,500.0,1.0,,,,,,,,,gray,circle
0.0,5.0,1.0,1.0,5.0,0.0,0.0,4.0,0.0,part_2,stop,550.0,500.0,4.0,,,,,,,,,blue,triangle
0.0,6.0,2.0,1.0,5.0,5.0,792.258339,4.0,0.0,part_2,go,600.0,500.0,1.0,,,,,,,,,gray,circle
0.0,3.0,3.0,0.0,6.0,6.0,794.4337689996246,4.0,0.0,part_2,go,600.0,500.0,1.0,,,,,,,,,magenta,cross
0.0,2.0,2.0,0.0,6.0,6.0,366.9151799995234,5.0,0.0,part_2,go,600.0,500.0,1.0,,,,,,,,,orange,diamond
0.0,6.0,2.0,1.0,6.0,6.0,337.8331550002258,5.0,0.0,part_2,stop,600.0,500.0,3.0,,,,,,,,,gray,circle
0.0,7.0,3.0,1.0,5.0,5.0,297.9727529991578,5.0,0.0,part_2,go,600.0,450.0,1.0,,,,,,,,,yellow,I
0.0,6.0,2.0,1.0,6.0,6.0,278.0816900003628,5.0,0.0,part_2,stop,600.0,450.0,3.0,,,,,,,,,gray,circle
0.0,3.0,3.0,0.0,5.0,5.0,608.5115930000029,5.0,0.0,part_2,go,600.0,400.0,1.0,,,,,,,,,magenta,cross
0.0,3.0,3.0,0.0,5.0,5.0,428.5159259998181,5.0,0.0,part_2,go,600.0,400.0,1.0,,,,,,,,,magenta,cross
0.0,2.0,2.0,0.0,5.0,5.0,679.4947039998078,5.0,0.0,part_2,go,600.0,400.0,1.0,,,,,,,,,orange,diamond
0.0,4.0,4.0,0.0,5.0,5.0,343.627799999922,5.0,0.0,part_2,go,600.0,400.0,1.0,,,,,,,,,cyan,square
0.0,6.0,2.0,1.0,5.0,5.0,364.9675169999682,5.0,0.0,part_2,stop,600.0,400.0,3.0,,,,,,,,,gray,circle
0.0,8.0,4.0,1.0,6.0,0.0,0.0,5.0,0.0,part_2,stop,550.0,400.0,4.0,,,,,,,,,green,flipped triangle
0.0,8.0,4.0,1.0,6.0,0.0,0.0,5.0,0.0,part_2,stop,550.0,450.0,4.0,,,,,,,,,green,flipped triangle
0.0,1.0,1.0,0.0,6.0,6.0,588.68799100037,5.0,0.0,part_2,go,550.0,500.0,1.0,,,,,,,,,white,hexagon
0.0,5.0,1.0,1.0,5.0,5.0,623.7990569998146,5.0,0.0,part_2,go,550.0,500.0,1.0,,,,,,,,,blue,triangle
0.0,1.0,1.0,0.0,6.0,6.0,673.1112370007395,5.0,0.0,part_2,go,550.0,500.0,1.0,,,,,,,,,white,hexagon
0.0,5.0,1.0,1.0,6.0,0.0,0.0,5.0,0.0,part_2,stop,550.0,500.0,4.0,,,,,,,,,blue,triangle
0.0,3.0,3.0,0.0,6.0,6.0,888.7314459998379,5.0,0.0,part_2,go,550.0,550.0,1.0,,,,,,,,,magenta,cross
0.0,1.0,1.0,0.0,5.0,5.0,658.3484189995943,5.0,0.0,part_2,go,550.0,550.0,1.0,,,,,,,,,white,hexagon
0.0,3.0,3.0,0.0,5.0,5.0,701.2974700000996,5.0,0.0,part_2,go,550.0,550.0,1.0,,,,,,,,,magenta,cross
0.0,5.0,1.0,1.0,6.0,6.0,572.3789839994424,5.0,0.0,part_2,go,550.0,550.0,1.0,,,,,,,,,blue,triangle
0.0,2.0,2.0,0.0,6.0,6.0,333.1232290001935,5.0,0.0,part_2,go,550.0,550.0,1.0,,,,,,,,,orange,diamond
0.0,1.0,1.0,0.0,6.0,6.0,414.7581920005905,5.0,0.0,part_2,go,550.0,550.0,1.0,,,,,,,,,white,hexagon
0.0,6.0,2.0,1.0,5.0,5.0,603.8340439999956,5.0,0.0,part_2,go,550.0,550.0,1.0,,,,,,,,,gray,circle
0.0,7.0,3.0,1.0,6.0,6.0,499.5541300004333,5.0,0.0,part_2,stop,550.0,550.0,3.0,,,,,,,,,yellow,I
0.0,4.0,4.0,0.0,5.0,5.0,677.7086219999546,5.0,0.0,part_2,go,550.0,500.0,1.0,,,,,,,,,cyan,square
0.0,8.0,4.0,1.0,6.0,6.0,483.7893180001629,5.0,0.0,part_2,go,550.0,500.0,1.0,,,,,,,,,green,flipped triangle
0.0,7.0,3.0,1.0,5.0,5.0,381.3228400003936,5.0,0.0,part_2,stop,550.0,500.0,3.0,,,,,,,,,yellow,I
0.0,3.0,3.0,0.0,5.0,5.0,578.6340169997857,5.0,0.0,part_2,go,500.0,500.0,1.0,,,,,,,,,magenta,cross
0.0,8.0,4.0,1.0,5.0,5.0,386.6982679992361,5.0,0.0,part_2,go,500.0,500.0,1.0,,,,,,,,,green,flipped triangle
0.0,6.0,2.0,1.0,6.0,6.0,371.8687119999231,5.0,0.0,part_2,stop,500.0,500.0,3.0,,,,,,,,,gray,circle
0.0,1.0,1.0,0.0,5.0,5.0,699.7560770005293,5.0,0.0,part_2,go,500.0,450.0,1.0,,,,,,,,,white,hexagon
0.0,7.0,3.0,1.0,6.0,6.0,587.1327980003116,5.0,0.0,part_2,stop,500.0,450.0,3.0,,,,,,,,,yellow,I
0.0,4.0,4.0,0.0,5.0,5.0,615.5468059996565,5.0,0.0,part_2,go,500.0,400.0,1.0,,,,,,,,,cyan,square
0.0,4.0,4.0,0.0,5.0,5.0,629.4670429997495,5.0,0.0,part_2,go,500.0,400.0,1.0,,,,,,,,,cyan,square
0.0,2.0,2.0,0.0,6.0,6.0,670.1521540007889,5.0,0.0,part_2,go,500.0,400.0,1.0,,,,,,,,,orange,diamond
0.0,8.0,4.0,1.0,6.0,0.0,0.0,5.0,0.0,part_2,stop,500.0,400.0,4.0,,,,,,,,,green,flipped triangle
0.0,8.0,4.0,1.0,6.0,0.0,0.0,5.0,0.0,part_2,stop,500.0,450.0,4.0,,,,,,,,,green,flipped triangle
0.0,7.0,3.0,1.0,5.0,5.0,601.8813130003764,6.0,0.0,part_2,stop,500.0,500.0,3.0,,,,,,,,,yellow,I
0.0,6.0,2.0,1.0,6.0,6.0,698.7816060000114,6.0,0.0,part_2,go,450.0,500.0,1.0,,,,,,,,,gray,circle
0.0,4.0,4.0,0.0,6.0,6.0,587.9969990000973,6.0,0.0,part_2,go,450.0,500.0,1.0,,,,,,,,,cyan,square
0.0,7.0,3.0,1.0,5.0,5.0,550.9578159999364,6.0,0.0,part_2,stop,450.0,500.0,3.0,,,,,,,,,yellow,I
0.0,4.0,4.0,0.0,6.0,6.0,384.636053999202,6.0,0.0,part_2,go,400.0,500.0,1.0,,,,,,,,,cyan,square
0.0,3.0,3.0,0.0,5.0,5.0,637.9223100002491,6.0,0.0,part_2,go,400.0,500.0,1.0,,,,,,,,,magenta,cross
0.0,7.0,3.0,1.0,6.0,6.0,306.3938579998648,6.0,0.0,part_2,stop,400.0,500.0,3.0,,,,,,,,,yellow,I
0.0,4.0,4.0,0.0,6.0,6.0,695.8459040006346,6.0,0.0,part_2,go,400.0,450.0,1.0,,,,,,,,,cyan,square
0.0,2.0,2.0,0.0,5.0,5.0,627.3314849995586,6.0,0.0,part_2,go,400.0,450.0,1.0,,,,,,,,,orange,diamond
0.0,6.0,2.0,1.0,5.0,5.0,630.0415190007698,6.0,0.0,part_2,go,400.0,450.0,1.0,,,,,,,,,gray,circle
0.0,3.0,3.0,0.0,6.0,6.0,544.108987999607,6.0,0.0,part_2,go,400.0,450.0,1.0,,,,,,,,,magenta,cross
0.0,3.0,3.0,0.0,5.0,5.0,638.8069069998892,6.0,0.0,part_2,go,400.0,450.0,1.0,,,,,,,,,magenta,cross
0.0,8.0,4.0,1.0,5.0,5.0,684.8477710000225,6.0,0.0,part_2,go,400.0,450.0,1.0,,,,,,,,,green,flipped triangle
0.0,6.0,2.0,1.0,5.0,0.0,0.0,6.0,0.0,part_2,stop,400.0,450.0,4.0,,,,,,,,,gray,circle
0.0,8.0,4.0,1.0,5.0,0.0,0.0,6.0,0.0,part_2,stop,450.0,450.0,4.0,,,,,,,,,green,flipped triangle
0.0,6.0,2.0,1.0,6.0,6.0,515.2333179994457,6.0,0.0,part_2,go,500.0,450.0,1.0,,,,,,,,,gray,circle
0.0,4.0,4.0,0.0,5.0,5.0,727.505533999647,6.0,0.0,part_2,go,500.0,450.0,1.0,,,,,,,,,cyan,square
0.0,5.0,1.0,1.0,5.0,0.0,0.0,6.0,0.0,part_2,stop,500.0,450.0,4.0,,,,,,,,,blue,triangle
0.0,6.0,2.0,1.0,5.0,5.0,704.9840330000734,6.0,0.0,part_2,stop,550.0,450.0,3.0,,,,,,,,,gray,circle
0.0,7.0,3.0,1.0,6.0,6.0,584.531681000044,6.0,0.0,part_2,stop,500.0,450.0,3.0,,,,,,,,,yellow,I
0.0,2.0,2.0,0.0,6.0,6.0,694.399771999997,6.0,0.0,part_2,go,500.0,400.0,1.0,,,,,,,,,orange,diamond
0.0,4.0,4.0,0.0,6.0,6.0,777.2528949999469,6.0,0.0,part_2,go,500.0,400.0,1.0,,,,,,,,,cyan,square
0.0,4.0,4.0,0.0,5.0,5.0,656.2627889998112,6.0,0.0,part_2,go,500.0,400.0,1.0,,,,,,,,,cyan,square
0.0,8.0,4.0,1.0,6.0,0.0,0.0,6.0,0.0,part_2,stop,500.0,400.0,4.0,,,,,,,,,green,flipped triangle
0.0,2.0,2.0,0.0,5.0,5.0,806.3922820001608,6.0,0.0,part_2,go,500.0,450.0,1.0,,,,,,,,,orange,diamond
0.0,8.0,4.0,1.0,5.0,5.0,689.6865839999009,6.0,0.0,part_2,go,500.0,450.0,1.0,,,,,,,,,green,flipped triangle
0.0,8.0,4.0,1.0,5.0,0.0,0.0,6.0,0.0,part_2,stop,500.0,450.0,4.0,,,,,,,,,green,flipped triangle
0.0,2.0,2.0,0.0,5.0,5.0,646.5375560001121,6.0,0.0,part_2,go,550.0,450.0,1.0,,,,,,,,,orange,diamond
0.0,6.0,2.0,1.0,5.0,5.0,586.4233450001848,6.0,0.0,part_2,stop,550.0,450.0,3.0,,,,,,,,,gray,circle
0.0,2.0,2.0,0.0,6.0,6.0,882.6955009999438,6.0,0.0,part_2,go,500.0,450.0,1.0,,,,,,,,,orange,diamond
0.0,3.0,3.0,0.0,5.0,5.0,589.8817600000257,6.0,0.0,part_2,go,500.0,450.0,1.0,,,,,,,,,magenta,cross
0.0,7.0,3.0,1.0,6.0,6.0,558.1530649997148,6.0,0.0,part_2,stop,500.0,450.0,3.0,,,,,,,,,yellow,I
0.0,1.0,1.0,0.0,6.0,6.0,751.3409029998002,6.0,0.0,part_2,go,500.0,400.0,1.0,,,,,,,,,white,hexagon
0.0,8.0,4.0,1.0,6.0,0.0,0.0,6.0,0.0,part_2,stop,500.0,400.0,4.0,,,,,,,,,green,flipped triangle
0.0,2.0,2.0,0.0,6.0,6.0,701.0689889993955,6.0,0.0,part_2,go,500.0,450.0,1.0,,,,,,,,,orange,diamond
0.0,7.0,3.0,1.0,5.0,0.0,0.0,6.0,0.0,part_2,stop,500.0,450.0,4.0,,,,,,,,,yellow,I
0.0,2.0,2.0,0.0,5.0,5.0,343.2570939994548,7.0,0.0,part_2,go,550.0,450.0,1.0,,,,,,,,,orange,diamond
0.0,5.0,1.0,1.0,5.0,5.0,585.7388550002725,7.0,0.0,part_2,go,550.0,450.0,1.0,,,,,,,,,blue,triangle
0.0,5.0,1.0,1.0,6.0,6.0,385.1917249994585,7.0,0.0,part_2,stop,550.0,450.0,3.0,,,,,,,,,blue,triangle
0.0,8.0,4.0,1.0,5.0,5.0,620.3198500006692,7.0,0.0,part_2,stop,550.0,400.0,3.0,,,,,,,,,green,flipped triangle
0.0,3.0,3.0,0.0,5.0,5.0,801.6947730002357,7.0,0.0,part_2,go,500.0,400.0,1.0,,,,,,,,,magenta,cross
0.0,6.0,2.0,1.0,5.0,5.0,447.9946769997696,7.0,0.0,part_2,stop,500.0,400.0,3.0,,,,,,,,,gray,circle
0.0,5.0,1.0,1.0,6.0,0.0,0.0,7.0,0.0,part_2,stop,450.0,400.0,4.0,,,,,,,,,blue,triangle
0.0,2.0,2.0,0.0,5.0,5.0,832.324453000183,7.0,0.0,part_2,go,450.0,450.0,1.0,,,,,,,,,orange,diamond
0.0,6.0,2.0,1.0,6.0,6.0,354.0597149994937,7.0,0.0,part_2,go,450.0,450.0,1.0,,,,,,,,,gray,circle
0.0,5.0,1.0,1.0,6.0,6.0,526.2952789998963,7.0,0.0,part_2,stop,450.0,450.0,3.0,,,,,,,,,blue,triangle
0.0,6.0,2.0,1.0,5.0,0.0,0.0,7.0,0.0,part_2,stop,450.0,400.0,4.0,,,,,,,,,gray,circle
0.0,3.0,3.0,0.0,5.0,5.0,650.9278539997467,7.0,0.0,part_2,go,500.0,400.0,1.0,,,,,,,,,magenta,cross
0.0,7.0,3.0,1.0,5.0,5.0,587.0254490000661,7.0,0.0,part_2,stop,500.0,400.0,3.0,,,,,,,,,yellow,I
0.0,6.0,2.0,1.0,5.0,0.0,0.0,7.0,0.0,part_2,stop,450.0,400.0,4.0,,,,,,,,,gray,circle
0.0,2.0,2.0,0.0,5.0,5.0,715.9739899998385,7.0,0.0,part_2,go,500.0,400.0,1.0,,,,,,,,,orange,diamond
0.0,5.0,1.0,1.0,6.0,6.0,675.3703080003106,7.0,0.0,part_2,go,500.0,400.0,1.0,,,,,,,,,blue,triangle
0.0,7.0,3.0,1.0,6.0,0.0,0.0,7.0,0.0,part_2,stop,500.0,400.0,4.0,,,,,,,,,yellow,I
0.0,1.0,1.0,0.0,5.0,5.0,583.772752999721,7.0,0.0,part_2,go,500.0,450.0,1.0,,,,,,,,,white,hexagon
0.0,5.0,1.0,1.0,6.0,6.0,501.13915099973383,7.0,0.0,part_2,go,500.0,450.0,1.0,,,,,,,,,blue,triangle
0.0,6.0,2.0,1.0,6.0,6.0,598.0538949997936,7.0,0.0,part_2,stop,500.0,450.0,3.0,,,,,,,,,gray,circle
0.0,7.0,3.0,1.0,5.0,5.0,426.6671220002536,7.0,0.0,part_2,stop,500.0,400.0,3.0,,,,,,,,,yellow,I
0.0,3.0,3.0,0.0,5.0,5.0,646.6587949998939,7.0,0.0,part_2,go,450.0,400.0,1.0,,,,,,,,,magenta,cross
0.0,7.0,3.0,1.0,5.0,0.0,0.0,7.0,0.0,part_2,stop,450.0,400.0,4.0,,,,,,,,,yellow,I
0.0,4.0,4.0,0.0,5.0,5.0,806.9667850004407,7.0,0.0,part_2,go,500.0,400.0,1.0,,,,,,,,,cyan,square
0.0,1.0,1.0,0.0,6.0,6.0,722.71034699952,7.0,0.0,part_2,go,500.0,400.0,1.0,,,,,,,,,white,hexagon
0.0,1.0,1.0,0.0,6.0,6.0,635.590580999633,7.0,0.0,part_2,go,500.0,400.0,1.0,,,,,,,,,white,hexagon
0.0,6.0,2.0,1.0,6.0,0.0,0.0,7.0,0.0,part_2,stop,500.0,400.0,4.0,,,,,,,,,gray,circle
0.0,4.0,4.0,0.0,6.0,6.0,600.8914200001527,7.0,0.0,part_2,go,500.0,450.0,1.0,,,,,,,,,cyan,square
0.0,8.0,4.0,1.0,6.0,6.0,576.7433769997297,7.0,0.0,part_2,stop,500.0,450.0,3.0,,,,,,,,,green,flipped triangle
0.0,4.0,4.0,0.0,6.0,6.0,764.1838409999764,7.0,0.0,part_2,go,500.0,400.0,1.0,,,,,,,,,cyan,square
0.0,1.0,1.0,0.0,6.0,6.0,449.6789300001182,7.0,0.0,part_2,go,500.0,400.0,1.0,,,,,,,,,white,hexagon
0.0,8.0,4.0,1.0,6.0,0.0,0.0,7.0,0.0,part_2,stop,500.0,400.0,4.0,,,,,,,,,green,flipped triangle
0.0,2.0,2.0,0.0,6.0,6.0,554.8171840000578,7.0,0.0,part_2,go,500.0,450.0,1.0,,,,,,,,,orange,diamond
0.0,1.0,1.0,0.0,5.0,5.0,589.2516430003525,7.0,0.0,part_2,go,500.0,450.0,1.0,,,,,,,,,white,hexagon
0.0,6.0,2.0,1.0,5.0,5.0,638.5113300002558,7.0,0.0,part_2,stop,500.0,450.0,3.0,,,,,,,,,gray,circle
0.0,5.0,1.0,1.0,5.0,5.0,730.580705999273,7.0,0.0,part_2,go,450.0,450.0,1.0,,,,,,,,,blue,triangle
0.0,4.0,4.0,0.0,6.0,6.0,350.7349869996687,8.0,0.0,part_2,go,450.0,450.0,1.0,,,,,,,,,cyan,square
0.0,2.0,2.0,0.0,5.0,5.0,630.9330879994377,8.0,0.0,part_2,go,450.0,450.0,1.0,,,,,,,,,orange,diamond
0.0,5.0,1.0,1.0,5.0,5.0,333.2939269994313,8.0,0.0,part_2,stop,450.0,450.0,3.0,,,,,,,,,blue,triangle
0.0,2.0,2.0,0.0,6.0,6.0,405.9655480004949,8.0,0.0,part_2,go,400.0,450.0,1.0,,,,,,,,,orange,diamond
0.0,1.0,1.0,0.0,6.0,6.0,303.5945430001447,8.0,0.0,part_2,go,400.0,450.0,1.0,,,,,,,,,white,hexagon
0.0,1.0,1.0,0.0,5.0,5.0,582.739796000169,8.0,0.0,part_2,go,400.0,450.0,1.0,,,,,,,,,white,hexagon
0.0,4.0,4.0,0.0,6.0,6.0,466.8919679997998,8.0,0.0,part_2,go,400.0,450.0,1.0,,,,,,,,,cyan,square
0.0,1.0,1.0,0.0,5.0,5.0,508.8740710007187,8.0,0.0,part_2,go,400.0,450.0,1.0,,,,,,,,,white,hexagon
0.0,1.0,1.0,0.0,6.0,6.0,478.4166039999036,8.0,0.0,part_2,go,400.0,450.0,1.0,,,,,,,,,white,hexagon
0.0,6.0,2.0,1.0,6.0,6.0,594.7994199996174,8.0,0.0,part_2,stop,400.0,450.0,3.0,,,,,,,,,gray,circle
0.0,3.0,3.0,0.0,6.0,6.0,563.4864550002021,8.0,0.0,part_2,go,400.0,400.0,1.0,,,,,,,,,magenta,cross
0.0,5.0,1.0,1.0,5.0,0.0,0.0,8.0,0.0,part_2,stop,400.0,400.0,4.0,,,,,,,,,blue,triangle
0.0,2.0,2.0,0.0,5.0,5.0,686.9863239999177,8.0,0.0,part_2,go,450.0,400.0,1.0,,,,,,,,,orange,diamond
0.0,4.0,4.0,0.0,6.0,6.0,548.8543530000243,8.0,0.0,part_2,go,450.0,400.0,1.0,,,,,,,,,cyan,square
0.0,5.0,1.0,1.0,6.0,0.0,0.0,8.0,0.0,part_2,stop,450.0,400.0,4.0,,,,,,,,,blue,triangle
0.0,8.0,4.0,1.0,5.0,5.0,688.7705810004263,8.0,0.0,part_2,go,450.0,450.0,1.0,,,,,,,,,green,flipped triangle
0.0,4.0,4.0,0.0,5.0,5.0,520.4074809998929,8.0,0.0,part_2,go,450.0,450.0,1.0,,,,,,,,,cyan,square
0.0,1.0,1.0,0.0,5.0,5.0,548.0337619992497,8.0,0.0,part_2,go,450.0,450.0,1.0,,,,,,,,,white,hexagon
0.0,6.0,2.0,1.0,5.0,5.0,532.270172000608,8.0,0.0,part_2,stop,450.0,450.0,3.0,,,,,,,,,gray,circle
0.0,5.0,1.0,1.0,5.0,0.0,0.0,8.0,0.0,part_2,stop,400.0,450.0,4.0,,,,,,,,,blue,triangle
0.0,2.0,2.0,0.0,6.0,6.0,567.9607219999525,8.0,0.0,part_2,go,450.0,450.0,1.0,,,,,,,,,orange,diamond
0.0,6.0,2.0,1.0,6.0,6.0,546.438295000371,8.0,0.0,part_2,go,450.0,450.0,1.0,,,,,,,,,gray,circle
0.0,2.0,2.0,0.0,6.0,6.0,530.3974250000465,8.0,0.0,part_2,go,450.0,450.0,1.0,,,,,,,,,orange,diamond
0.0,7.0,3.0,1.0,6.0,6.0,570.460040999933,8.0,0.0,part_2,stop,450.0,450.0,3.0,,,,,,,,,yellow,I
0.0,5.0,1.0,1.0,6.0,0.0,0.0,8.0,0.0,part_2,stop,450.0,400.0,4.0,,,,,,,,,blue,triangle
0.0,8.0,4.0,1.0,5.0,5.0,511.1149189997377,8.0,0.0,part_2,stop,450.0,450.0,3.0,,,,,,,,,green,flipped triangle
0.0,3.0,3.0,0.0,5.0,5.0,720.2805050001189,8.0,0.0,part_2,go,400.0,450.0,1.0,,,,,,,,,magenta,cross
0.0,3.0,3.0,0.0,6.0,6.0,744.1365189997668,8.0,0.0,part_2,go,400.0,450.0,1.0,,,,,,,,,magenta,cross
0.0,5.0,1.0,1.0,6.0,0.0,0.0,8.0,0.0,part_2,stop,400.0,450.0,4.0,,,,,,,,,blue,triangle
0.0,3.0,3.0,0.0,5.0,5.0,831.347418000405,8.0,0.0,part_2,go,400.0,500.0,1.0,,,,,,,,,magenta,cross
0.0,5.0,1.0,1.0,6.0,6.0,560.2025859998321,8.0,0.0,part_2,go,400.0,500.0,1.0,,,,,,,,,blue,triangle
0.0,6.0,2.0,1.0,6.0,6.0,661.1052819998804,8.0,0.0,part_2,stop,400.0,500.0,3.0,,,,,,,,,gray,circle
0.0,2.0,2.0,0.0,5.0,5.0,815.214396000556,8.0,0.0,part_2,go,400.0,450.0,1.0,,,,,,,,,orange,diamond
0.0,4.0,4.0,0.0,5.0,5.0,601.2582060002387,8.0,0.0,part_2,go,400.0,450.0,1.0,,,,,,,,,cyan,square
0.0,4.0,4.0,0.0,6.0,6.0,646.0181649999868,8.0,0.0,part_2,go,400.0,450.0,1.0,,,,,,,,,cyan,square
0.0,8.0,4.0,1.0,6.0,0.0,0.0,8.0,0.0,part_2,stop,400.0,450.0,4.0,,,,,,,,,green,flipped triangle
0.0,8.0,4.0,1.0,7.0,4.0,2017.4991530002444,1.0,2.0,part_3,go,0.0,0.0,0.0,264.0,6.0,88.0,132.0,220.0,264.0,44.0,176.0,green,flipped triangle
0.0,8.0,4.0,1.0,7.0,5.0,2409.343292999438,1.0,1.0,part_3,go,0.0,0.0,0.0,156.0,4.0,117.0,39.0,195.0,234.0,156.0,78.0,green,flipped triangle
0.0,8.0,4.0,1.0,7.0,3.0,1608.4016300001167,1.0,1.0,part_3,go,0.0,0.0,0.0,270.0,5.0,54.0,108.0,270.0,216.0,324.0,162.0,green,flipped triangle
0.0,1.0,1.0,0.0,7.0,6.0,1265.775862000737,1.0,1.0,part_3,go,0.0,0.0,0.0,245.0,5.0,294.0,147.0,196.0,98.0,49.0,245.0,white,hexagon
0.0,6.0,2.0,1.0,7.0,3.0,2175.475473999541,1.0,1.0,part_3,go,0.0,0.0,0.0,156.0,4.0,234.0,78.0,156.0,195.0,39.0,117.0,gray,circle
0.0,3.0,3.0,0.0,7.0,2.0,1711.0485460007112,1.0,1.0,part_3,go,0.0,0.0,0.0,88.0,2.0,44.0,88.0,264.0,220.0,132.0,176.0,magenta,cross
0.0,8.0,4.0,1.0,7.0,1.0,1395.8493280006223,1.0,1.0,part_3,go,0.0,0.0,0.0,195.0,5.0,195.0,117.0,39.0,156.0,78.0,234.0,green,flipped triangle
0.0,3.0,3.0,0.0,7.0,6.0,1068.2082549992629,1.0,1.0,part_3,go,0.0,0.0,0.0,264.0,6.0,220.0,132.0,88.0,44.0,176.0,264.0,magenta,cross
0.0,3.0,3.0,0.0,7.0,4.0,768.9548090002063,1.0,1.0,part_3,go,0.0,0.0,0.0,245.0,5.0,196.0,98.0,49.0,245.0,147.0,294.0,magenta,cross
0.0,6.0,2.0,1.0,7.0,3.0,1444.8738419996516,1.0,1.0,part_3,go,0.0,0.0,0.0,220.0,5.0,44.0,88.0,220.0,132.0,176.0,264.0,gray,circle
0.0,8.0,4.0,1.0,7.0,2.0,2128.5831049999615,1.0,1.0,part_3,go,0.0,0.0,0.0,108.0,2.0,216.0,108.0,270.0,324.0,162.0,54.0,green,flipped triangle
0.0,7.0,3.0,1.0,7.0,5.0,809.2853779999132,1.0,1.0,part_3,go,0.0,0.0,0.0,245.0,5.0,98.0,294.0,196.0,147.0,245.0,49.0,yellow,I
0.0,3.0,3.0,0.0,7.0,6.0,1233.1388390002758,1.0,1.0,part_3,go,0.0,0.0,0.0,204.0,6.0,34.0,170.0,102.0,68.0,136.0,204.0,magenta,cross
0.0,4.0,4.0,0.0,7.0,2.0,1198.9958539998042,1.0,1.0,part_3,go,0.0,0.0,0.0,324.0,6.0,270.0,324.0,162.0,108.0,216.0,54.0,cyan,square
0.0,5.0,1.0,1.0,7.0,4.0,1446.0506369996438,1.0,1.0,part_3,go,0.0,0.0,0.0,132.0,3.0,88.0,44.0,176.0,132.0,220.0,264.0,blue,triangle
0.0,2.0,2.0,0.0,7.0,3.0,1700.393707999865,1.0,1.0,part_3,go,0.0,0.0,0.0,136.0,4.0,170.0,34.0,136.0,102.0,204.0,68.0,orange,diamond
0.0,1.0,1.0,0.0,7.0,4.0,962.316256000122,1.0,1.0,part_3,go,0.0,0.0,0.0,264.0,6.0,220.0,176.0,132.0,264.0,88.0,44.0,white,hexagon
0.0,8.0,4.0,1.0,7.0,2.0,1536.1723320002056,1.0,1.0,part_3,go,0.0,0.0,0.0,102.0,3.0,34.0,102.0,68.0,204.0,136.0,170.0,green,flipped triangle
0.0,4.0,4.0,0.0,7.0,4.0,1858.9353919996936,1.0,1.0,part_3,go,0.0,0.0,0.0,270.0,5.0,108.0,162.0,216.0,270.0,54.0,324.0,cyan,square
0.0,4.0,4.0,0.0,7.0,2.0,1181.900085000052,1.0,1.0,part_3,go,0.0,0.0,0.0,34.0,1.0,136.0,34.0,204.0,68.0,170.0,102.0,cyan,square
0.0,4.0,4.0,0.0,7.0,3.0,1468.2883099994797,2.0,1.0,part_3,go,0.0,0.0,0.0,147.0,3.0,196.0,98.0,147.0,245.0,49.0,294.0,cyan,square
0.0,8.0,4.0,1.0,7.0,1.0,917.9358609999326,2.0,1.0,part_3,go,0.0,0.0,0.0,170.0,5.0,170.0,204.0,34.0,102.0,68.0,136.0,green,flipped triangle
0.0,6.0,2.0,1.0,7.0,2.0,1465.821966000476,2.0,1.0,part_3,go,0.0,0.0,0.0,117.0,3.0,195.0,117.0,39.0,156.0,78.0,234.0,gray,circle
0.0,5.0,1.0,1.0,7.0,1.0,1777.8877609998744,2.0,1.0,part_3,go,0.0,0.0,0.0,294.0,6.0,294.0,196.0,147.0,49.0,245.0,98.0,blue,triangle
0.0,4.0,4.0,0.0,7.0,3.0,1272.694711999975,2.0,1.0,part_3,go,0.0,0.0,0.0,196.0,4.0,294.0,49.0,196.0,147.0,245.0,98.0,cyan,square
0.0,5.0,1.0,1.0,7.0,2.0,1508.680998000273,2.0,1.0,part_3,go,0.0,0.0,0.0,136.0,4.0,204.0,136.0,34.0,102.0,68.0,170.0,blue,triangle
0.0,2.0,2.0,0.0,7.0,4.0,1597.405888999674,2.0,1.0,part_3,go,0.0,0.0,0.0,102.0,3.0,204.0,68.0,170.0,102.0,34.0,136.0,orange,diamond
0.0,5.0,1.0,1.0,7.0,3.0,1645.5589629995302,2.0,1.0,part_3,go,0.0,0.0,0.0,196.0,4.0,98.0,294.0,196.0,147.0,245.0,49.0,blue,triangle
0.0,5.0,1.0,1.0,7.0,6.0,1043.441404999612,2.0,1.0,part_3,go,0.0,0.0,0.0,195.0,5.0,156.0,117.0,39.0,78.0,234.0,195.0,blue,triangle
0.0,5.0,1.0,1.0,7.0,5.0,1971.4477100005752,2.0,1.0,part_3,go,0.0,0.0,0.0,156.0,4.0,78.0,117.0,234.0,195.0,156.0,39.0,blue,triangle
0.0,7.0,3.0,1.0,7.0,1.0,1099.5704000006301,2.0,1.0,part_3,go,0.0,0.0,0.0,216.0,4.0,216.0,54.0,108.0,270.0,162.0,324.0,yellow,I
0.0,3.0,3.0,0.0,7.0,4.0,1367.301561000204,2.0,1.0,part_3,go,0.0,0.0,0.0,270.0,5.0,216.0,162.0,108.0,270.0,324.0,54.0,magenta,cross
0.0,7.0,3.0,1.0,7.0,5.0,1268.5827929999505,2.0,1.0,part_3,go,0.0,0.0,0.0,270.0,5.0,162.0,54.0,108.0,216.0,270.0,324.0,yellow,I
0.0,1.0,1.0,0.0,7.0,5.0,1661.025074000463,2.0,1.0,part_3,go,0.0,0.0,0.0,324.0,6.0,162.0,108.0,270.0,54.0,324.0,216.0,white,hexagon
0.0,7.0,3.0,1.0,7.0,4.0,1371.6611219997503,2.0,1.0,part_3,go,0.0,0.0,0.0,234.0,6.0,39.0,195.0,117.0,234.0,156.0,78.0,yellow,I
0.0,2.0,2.0,0.0,7.0,2.0,1039.9712869993891,2.0,1.0,part_3,go,0.0,0.0,0.0,108.0,2.0,162.0,108.0,324.0,54.0,216.0,270.0,orange,diamond
0.0,5.0,1.0,1.0,7.0,5.0,1568.6100929997338,2.0,1.0,part_3,go,0.0,0.0,0.0,216.0,4.0,108.0,54.0,270.0,324.0,216.0,162.0,blue,triangle
0.0,7.0,3.0,1.0,7.0,1.0,1567.2144350000965,2.0,1.0,part_3,go,0.0,0.0,0.0,136.0,4.0,136.0,204.0,102.0,170.0,68.0,34.0,yellow,I
0.0,5.0,1.0,1.0,7.0,3.0,1501.955525000085,2.0,1.0,part_3,go,0.0,0.0,0.0,136.0,4.0,204.0,34.0,136.0,170.0,102.0,68.0,blue,triangle
0.0,7.0,3.0,1.0,7.0,1.0,1096.3933770008223,2.0,1.0,part_3,go,0.0,0.0,0.0,234.0,6.0,234.0,117.0,156.0,39.0,78.0,195.0,yellow,I
0.0,5.0,1.0,1.0,7.0,2.0,1156.157334999989,3.0,1.0,part_3,go,0.0,0.0,0.0,220.0,5.0,264.0,220.0,132.0,88.0,44.0,176.0,blue,triangle
0.0,3.0,3.0,0.0,7.0,4.0,1371.1782579994178,3.0,1.0,part_3,go,0.0,0.0,0.0,245.0,5.0,196.0,98.0,147.0,245.0,49.0,294.0,magenta,cross
0.0,4.0,4.0,0.0,7.0,5.0,1635.180749999563,3.0,1.0,part_3,go,0.0,0.0,0.0,176.0,4.0,132.0,220.0,44.0,264.0,176.0,88.0,cyan,square
0.0,7.0,3.0,1.0,7.0,1.0,1030.159970000568,3.0,1.0,part_3,go,0.0,0.0,0.0,220.0,5.0,220.0,88.0,44.0,132.0,176.0,264.0,yellow,I
0.0,2.0,2.0,0.0,7.0,3.0,1648.8664469998184,3.0,1.0,part_3,go,0.0,0.0,0.0,156.0,4.0,39.0,195.0,156.0,117.0,234.0,78.0,orange,diamond
0.0,2.0,2.0,0.0,7.0,2.0,1263.0602700000964,3.0,1.0,part_3,go,0.0,0.0,0.0,176.0,4.0,264.0,176.0,44.0,88.0,220.0,132.0,orange,diamond
0.0,1.0,1.0,0.0,7.0,4.0,1929.2365860001155,3.0,1.0,part_3,go,0.0,0.0,0.0,176.0,4.0,132.0,264.0,44.0,176.0,220.0,88.0,white,hexagon
0.0,1.0,1.0,0.0,7.0,2.0,1682.1640230000412,3.0,1.0,part_3,go,0.0,0.0,0.0,78.0,2.0,117.0,78.0,195.0,156.0,39.0,234.0,white,hexagon
0.0,7.0,3.0,1.0,7.0,2.0,1583.2781250001062,3.0,1.0,part_3,go,0.0,0.0,0.0,204.0,6.0,34.0,204.0,136.0,170.0,68.0,102.0,yellow,I
0.0,7.0,3.0,1.0,7.0,5.0,1446.5232950005884,3.0,1.0,part_3,go,0.0,0.0,0.0,264.0,6.0,176.0,220.0,44.0,132.0,264.0,88.0,yellow,I
0.0,2.0,2.0,0.0,7.0,4.0,1263.4095929997784,3.0,1.0,part_3,go,0.0,0.0,0.0,147.0,3.0,196.0,98.0,49.0,147.0,245.0,294.0,orange,diamond
0.0,4.0,4.0,0.0,7.0,1.0,799.7103810002955,3.0,1.0,part_3,go,0.0,0.0,0.0,220.0,5.0,220.0,44.0,88.0,132.0,176.0,264.0,cyan,square
0.0,8.0,4.0,1.0,7.0,3.0,1589.9973260002298,3.0,1.0,part_3,go,0.0,0.0,0.0,44.0,1.0,88.0,132.0,44.0,176.0,264.0,220.0,green,flipped triangle
0.0,6.0,2.0,1.0,7.0,3.0,1425.1300310006627,3.0,1.0,part_3,go,0.0,0.0,0.0,108.0,2.0,216.0,54.0,108.0,270.0,162.0,324.0,gray,circle
0.0,3.0,3.0,0.0,7.0,2.0,1258.6986890000844,3.0,1.0,part_3,go,0.0,0.0,0.0,162.0,3.0,216.0,162.0,324.0,270.0,108.0,54.0,magenta,cross
0.0,1.0,1.0,0.0,7.0,2.0,1389.726024999618,3.0,1.0,part_3,go,0.0,0.0,0.0,147.0,3.0,245.0,147.0,196.0,98.0,294.0,49.0,white,hexagon
0.0,6.0,2.0,1.0,7.0,5.0,1423.0917499999125,3.0,1.0,part_3,go,0.0,0.0,0.0,136.0,4.0,204.0,102.0,170.0,68.0,136.0,34.0,gray,circle
0.0,8.0,4.0,1.0,7.0,6.0,1386.9917270003498,3.0,1.0,part_3,go,0.0,0.0,0.0,147.0,3.0,196.0,49.0,294.0,245.0,98.0,147.0,green,flipped triangle
0.0,4.0,4.0,0.0,7.0,2.0,1847.701080000661,3.0,1.0,part_3,go,0.0,0.0,0.0,195.0,5.0,39.0,195.0,234.0,156.0,78.0,117.0,cyan,square
0.0,6.0,2.0,1.0,7.0,3.0,1560.352759000125,3.0,1.0,part_3,go,0.0,0.0,0.0,102.0,3.0,34.0,68.0,102.0,170.0,136.0,204.0,gray,circle
0.0,7.0,3.0,1.0,7.0,4.0,1080.6431649998558,4.0,1.0,part_3,go,0.0,0.0,0.0,294.0,6.0,147.0,49.0,196.0,294.0,98.0,245.0,yellow,I
0.0,3.0,3.0,0.0,7.0,2.0,1296.3691620007012,4.0,1.0,part_3,go,0.0,0.0,0.0,117.0,3.0,78.0,117.0,234.0,195.0,156.0,39.0,magenta,cross
0.0,2.0,2.0,0.0,7.0,4.0,1418.326853000508,4.0,1.0,part_3,go,0.0,0.0,0.0,156.0,4.0,39.0,234.0,117.0,156.0,78.0,195.0,orange,diamond
0.0,2.0,2.0,0.0,7.0,3.0,1370.51574599991,4.0,1.0,part_3,go,0.0,0.0,0.0,147.0,3.0,49.0,196.0,147.0,245.0,294.0,98.0,orange,diamond
0.0,1.0,1.0,0.0,7.0,4.0,1215.1375929997812,4.0,1.0,part_3,go,0.0,0.0,0.0,234.0,6.0,117.0,78.0,39.0,234.0,156.0,195.0,white,hexagon
0.0,8.0,4.0,1.0,7.0,6.0,1648.3485790004124,4.0,1.0,part_3,go,0.0,0.0,0.0,294.0,6.0,147.0,49.0,245.0,196.0,98.0,294.0,green,flipped triangle
0.0,3.0,3.0,0.0,7.0,2.0,1615.4992220008353,4.0,1.0,part_3,go,0.0,0.0,0.0,170.0,5.0,34.0,170.0,68.0,102.0,136.0,204.0,magenta,cross
0.0,2.0,2.0,0.0,7.0,1.0,2035.2505210003073,4.0,1.0,part_3,go,0.0,0.0,0.0,132.0,3.0,132.0,264.0,176.0,44.0,220.0,88.0,orange,diamond
0.0,6.0,2.0,1.0,7.0,4.0,1339.3286079999598,4.0,1.0,part_3,go,0.0,0.0,0.0,108.0,2.0,216.0,270.0,54.0,108.0,162.0,324.0,gray,circle
0.0,6.0,2.0,1.0,7.0,6.0,1434.506541999326,4.0,1.0,part_3,go,0.0,0.0,0.0,98.0,2.0,49.0,196.0,147.0,294.0,245.0,98.0,gray,circle
0.0,2.0,2.0,0.0,7.0,4.0,2382.3010819996853,4.0,1.0,part_3,go,0.0,0.0,0.0,216.0,4.0,54.0,108.0,324.0,216.0,162.0,270.0,orange,diamond
0.0,4.0,4.0,0.0,7.0,5.0,1589.8797380004908,4.0,1.0,part_3,go,0.0,0.0,0.0,156.0,4.0,195.0,78.0,234.0,117.0,156.0,39.0,cyan,square
0.0,3.0,3.0,0.0,7.0,1.0,1723.8491340003748,4.0,1.0,part_3,go,0.0,0.0,0.0,234.0,6.0,234.0,117.0,78.0,195.0,156.0,39.0,magenta,cross
0.0,1.0,1.0,0.0,7.0,2.0,2282.073413000034,4.0,1.0,part_3,go,0.0,0.0,0.0,204.0,6.0,34.0,204.0,102.0,136.0,170.0,68.0,white,hexagon
0.0,6.0,2.0,1.0,7.0,5.0,2670.623934000105,4.0,1.0,part_3,go,0.0,0.0,0.0,49.0,1.0,294.0,245.0,147.0,196.0,49.0,98.0,gray,circle
0.0,6.0,2.0,1.0,7.0,5.0,2243.893542000478,4.0,1.0,part_3,go,0.0,0.0,0.0,88.0,2.0,220.0,44.0,176.0,264.0,88.0,132.0,gray,circle
0.0,4.0,4.0,0.0,7.0,3.0,2173.228616000415,4.0,1.0,part_3,go,0.0,0.0,0.0,170.0,5.0,102.0,34.0,170.0,136.0,204.0,68.0,cyan,square
0.0,5.0,1.0,1.0,7.0,4.0,2756.5912659993046,4.0,1.0,part_3,go,0.0,0.0,0.0,162.0,3.0,270.0,108.0,54.0,162.0,324.0,216.0,blue,triangle
0.0,1.0,1.0,0.0,7.0,1.0,1690.5201339995983,4.0,1.0,part_3,go,0.0,0.0,0.0,216.0,4.0,216.0,162.0,270.0,108.0,324.0,54.0,white,hexagon
0.0,1.0,1.0,0.0,7.0,5.0,1526.1140570000862,4.0,1.0,part_3,go,0.0,0.0,0.0,204.0,6.0,136.0,170.0,34.0,102.0,204.0,68.0,white,hexagon
