raw_reward_magnitude,stim_reward,stepwise_reward_magnitude,paired_with_stopping,stim_location,response,reaction_time,block,num_trial_presentations,which_phase,stop_signal_trial_type,left_SSD,right_SSD,accuracy,chosen_bidding_amount,chosen_bidding_level,possible_bid_1,possible_bid_2,possible_bid_3,possible_bid_4,possible_bid_5,possible_bid_6,color_text,shape_text
73.0,1.0,1.0,0.0,4.0,4.0,419.0987189999759,1.0,1.0,phase_1,,,,,,,,,,,,,green,cross
205.0,3.0,3.0,0.0,1.0,1.0,389.0417859997797,1.0,1.0,phase_1,,,,,,,,,,,,,gray,circle
111.0,6.0,2.0,1.0,2.0,2.0,339.1213019999668,1.0,1.0,phase_1,,,,,,,,,,,,,yellow,I
43.0,5.0,1.0,1.0,4.0,4.0,370.6573059998845,1.0,1.0,phase_1,,,,,,,,,,,,,blue,square
119.0,2.0,2.0,0.0,4.0,4.0,409.7199799998634,1.0,1.0,phase_1,,,,,,,,,,,,,cyan,flipped triangle
381.0,8.0,4.0,1.0,1.0,1.0,354.2628589998458,1.0,1.0,phase_1,,,,,,,,,,,,,orange,triangle
0.0,1.0,0.0,0.0,3.0,3.0,270.0372310000603,1.0,1.0,phase_1,,,,,,,,,,,,,green,cross
50.0,1.0,1.0,0.0,1.0,1.0,254.10008700009712,1.0,1.0,phase_1,,,,,,,,,,,,,green,cross
395.0,8.0,4.0,1.0,2.0,2.0,311.7689229998177,1.0,1.0,phase_1,,,,,,,,,,,,,orange,triangle
40.0,1.0,1.0,0.0,2.0,2.0,360.0775580002846,1.0,1.0,phase_1,,,,,,,,,,,,,green,cross
406.0,8.0,4.0,1.0,4.0,4.0,356.4130969998587,1.0,1.0,phase_1,,,,,,,,,,,,,orange,triangle
0.0,8.0,0.0,1.0,1.0,1.0,267.9820510002173,1.0,1.0,phase_1,,,,,,,,,,,,,orange,triangle
91.0,6.0,2.0,1.0,1.0,1.0,294.9163000002954,1.0,1.0,phase_1,,,,,,,,,,,,,yellow,I
208.0,3.0,3.0,0.0,1.0,1.0,303.9051989999279,1.0,1.0,phase_1,,,,,,,,,,,,,gray,circle
216.0,7.0,3.0,1.0,2.0,2.0,346.4209769999797,1.0,1.0,phase_1,,,,,,,,,,,,,white,hexagon
96.0,6.0,2.0,1.0,1.0,1.0,259.0694750001603,1.0,1.0,phase_1,,,,,,,,,,,,,yellow,I
404.0,8.0,4.0,1.0,1.0,1.0,285.7074629996532,1.0,1.0,phase_1,,,,,,,,,,,,,orange,triangle
386.0,8.0,4.0,1.0,2.0,2.0,309.8135129998809,1.0,1.0,phase_1,,,,,,,,,,,,,orange,triangle
403.0,4.0,4.0,0.0,4.0,4.0,507.9838120000204,1.0,1.0,phase_1,,,,,,,,,,,,,magenta,diamond
0.0,4.0,0.0,0.0,4.0,4.0,348.1245110001509,1.0,1.0,phase_1,,,,,,,,,,,,,magenta,diamond
25.0,5.0,1.0,1.0,3.0,3.0,287.4396000001979,1.0,1.0,phase_1,,,,,,,,,,,,,blue,square
379.0,8.0,4.0,1.0,3.0,3.0,316.8541589998312,1.0,1.0,phase_1,,,,,,,,,,,,,orange,triangle
27.0,1.0,1.0,0.0,2.0,2.0,237.3211329995683,1.0,1.0,phase_1,,,,,,,,,,,,,green,cross
0.0,5.0,0.0,1.0,3.0,3.0,325.0356779999492,1.0,1.0,phase_1,,,,,,,,,,,,,blue,square
198.0,7.0,3.0,1.0,3.0,3.0,296.9870940000874,1.0,1.0,phase_1,,,,,,,,,,,,,white,hexagon
195.0,7.0,3.0,1.0,3.0,3.0,326.0225200001514,1.0,1.0,phase_1,,,,,,,,,,,,,white,hexagon
0.0,5.0,0.0,1.0,1.0,1.0,310.0015659997552,1.0,1.0,phase_1,,,,,,,,,,,,,blue,square
90.0,2.0,2.0,0.0,2.0,2.0,332.6136390001011,1.0,1.0,phase_1,,,,,,,,,,,,,cyan,flipped triangle
0.0,7.0,0.0,1.0,2.0,2.0,328.7519970003814,1.0,1.0,phase_1,,,,,,,,,,,,,white,hexagon
207.0,7.0,3.0,1.0,4.0,4.0,315.26891600015,1.0,1.0,phase_1,,,,,,,,,,,,,white,hexagon
69.0,5.0,1.0,1.0,3.0,3.0,301.0575920002338,1.0,1.0,phase_1,,,,,,,,,,,,,blue,square
183.0,3.0,3.0,0.0,1.0,1.0,338.1755639998118,1.0,1.0,phase_1,,,,,,,,,,,,,gray,circle
212.0,3.0,3.0,0.0,1.0,1.0,327.3984360002941,1.0,1.0,phase_1,,,,,,,,,,,,,gray,circle
68.0,5.0,1.0,1.0,3.0,3.0,318.6329539998951,1.0,1.0,phase_1,,,,,,,,,,,,,blue,square
82.0,6.0,2.0,1.0,4.0,4.0,359.1232869998748,1.0,1.0,phase_1,,,,,,,,,,,,,yellow,I
405.0,8.0,4.0,1.0,2.0,2.0,606.5394239999478,1.0,1.0,phase_1,,,,,,,,,,,,,orange,triangle
401.0,8.0,4.0,1.0,1.0,1.0,280.1555270002609,1.0,1.0,phase_1,,,,,,,,,,,,,orange,triangle
66.0,1.0,1.0,0.0,3.0,3.0,246.1261060002471,1.0,1.0,phase_1,,,,,,,,,,,,,green,cross
77.0,6.0,2.0,1.0,1.0,1.0,252.14908799989638,1.0,1.0,phase_1,,,,,,,,,,,,,yellow,I
25.0,1.0,1.0,0.0,3.0,3.0,243.6466640001526,1.0,1.0,phase_1,,,,,,,,,,,,,green,cross
0.0,7.0,0.0,1.0,3.0,3.0,345.9384499997213,1.0,1.0,phase_1,,,,,,,,,,,,,white,hexagon
405.0,4.0,4.0,0.0,1.0,1.0,267.1815600001537,1.0,1.0,phase_1,,,,,,,,,,,,,magenta,diamond
35.0,5.0,1.0,1.0,2.0,2.0,309.7107550001965,1.0,1.0,phase_1,,,,,,,,,,,,,blue,square
65.0,1.0,1.0,0.0,1.0,1.0,265.4139619999114,1.0,1.0,phase_1,,,,,,,,,,,,,green,cross
399.0,8.0,4.0,1.0,4.0,4.0,336.3506000000598,1.0,1.0,phase_1,,,,,,,,,,,,,orange,triangle
100.0,2.0,2.0,0.0,1.0,1.0,346.4608340000268,1.0,2.0,phase_1,,,,,,,,,,,,,cyan,flipped triangle
0.0,2.0,0.0,0.0,4.0,4.0,355.0482929999816,1.0,1.0,phase_1,,,,,,,,,,,,,cyan,flipped triangle
79.0,6.0,2.0,1.0,4.0,4.0,383.0291399999623,1.0,1.0,phase_1,,,,,,,,,,,,,yellow,I
0.0,5.0,0.0,1.0,2.0,2.0,322.1961730000657,1.0,1.0,phase_1,,,,,,,,,,,,,blue,square
405.0,8.0,4.0,1.0,3.0,3.0,265.6047559999024,1.0,1.0,phase_1,,,,,,,,,,,,,orange,triangle
216.0,3.0,3.0,0.0,4.0,4.0,353.3004189998792,1.0,1.0,phase_1,,,,,,,,,,,,,gray,circle
61.0,5.0,1.0,1.0,1.0,1.0,275.5698699997992,1.0,1.0,phase_1,,,,,,,,,,,,,blue,square
0.0,7.0,0.0,1.0,3.0,3.0,237.8542090000337,1.0,1.0,phase_1,,,,,,,,,,,,,white,hexagon
43.0,1.0,1.0,0.0,3.0,3.0,275.2613239999846,1.0,1.0,phase_1,,,,,,,,,,,,,green,cross
389.0,4.0,4.0,0.0,3.0,3.0,311.2081929998567,1.0,1.0,phase_1,,,,,,,,,,,,,magenta,diamond
0.0,4.0,0.0,0.0,2.0,2.0,403.6942789998647,1.0,2.0,phase_1,,,,,,,,,,,,,magenta,diamond
87.0,6.0,2.0,1.0,3.0,3.0,299.0914400002111,1.0,1.0,phase_1,,,,,,,,,,,,,yellow,I
38.0,5.0,1.0,1.0,1.0,1.0,257.9947350000111,1.0,1.0,phase_1,,,,,,,,,,,,,blue,square
0.0,2.0,0.0,0.0,1.0,1.0,311.1451710001347,1.0,1.0,phase_1,,,,,,,,,,,,,cyan,flipped triangle
0.0,8.0,0.0,1.0,1.0,1.0,415.7431610001367,1.0,1.0,phase_1,,,,,,,,,,,,,orange,triangle
378.0,4.0,4.0,0.0,3.0,3.0,277.1387259999756,1.0,1.0,phase_1,,,,,,,,,,,,,magenta,diamond
114.0,2.0,2.0,0.0,3.0,3.0,308.302322000145,1.0,1.0,phase_1,,,,,,,,,,,,,cyan,flipped triangle
0.0,2.0,0.0,0.0,1.0,1.0,355.131545000404,1.0,1.0,phase_1,,,,,,,,,,,,,cyan,flipped triangle
26.0,1.0,1.0,0.0,2.0,2.0,261.6066089999549,1.0,1.0,phase_1,,,,,,,,,,,,,green,cross
64.0,1.0,1.0,0.0,1.0,1.0,349.8608940003578,1.0,1.0,phase_1,,,,,,,,,,,,,green,cross
108.0,6.0,2.0,1.0,2.0,2.0,307.9354370001965,1.0,1.0,phase_1,,,,,,,,,,,,,yellow,I
64.0,1.0,1.0,0.0,1.0,1.0,280.1188480002565,1.0,1.0,phase_1,,,,,,,,,,,,,green,cross
185.0,7.0,3.0,1.0,1.0,1.0,345.8330690000366,1.0,1.0,phase_1,,,,,,,,,,,,,white,hexagon
404.0,4.0,4.0,0.0,3.0,3.0,316.2553369998022,1.0,1.0,phase_1,,,,,,,,,,,,,magenta,diamond
92.0,6.0,2.0,1.0,3.0,3.0,328.6130460001004,1.0,1.0,phase_1,,,,,,,,,,,,,yellow,I
198.0,3.0,3.0,0.0,3.0,3.0,340.9147600000324,1.0,1.0,phase_1,,,,,,,,,,,,,gray,circle
124.0,2.0,2.0,0.0,3.0,3.0,336.6578330001175,1.0,1.0,phase_1,,,,,,,,,,,,,cyan,flipped triangle
90.0,6.0,2.0,1.0,3.0,3.0,294.0972000001238,1.0,1.0,phase_1,,,,,,,,,,,,,yellow,I
111.0,6.0,2.0,1.0,1.0,1.0,291.4417859997229,1.0,1.0,phase_1,,,,,,,,,,,,,yellow,I
0.0,3.0,0.0,0.0,4.0,4.0,734.8762999999963,1.0,1.0,phase_1,,,,,,,,,,,,,gray,circle
405.0,8.0,4.0,1.0,2.0,2.0,352.2931249999601,1.0,1.0,phase_1,,,,,,,,,,,,,orange,triangle
383.0,8.0,4.0,1.0,1.0,1.0,245.3383880001638,1.0,1.0,phase_1,,,,,,,,,,,,,orange,triangle
411.0,4.0,4.0,0.0,4.0,4.0,329.650829000002,1.0,1.0,phase_1,,,,,,,,,,,,,magenta,diamond
193.0,7.0,3.0,1.0,1.0,1.0,293.6553600002298,1.0,1.0,phase_1,,,,,,,,,,,,,white,hexagon
63.0,1.0,1.0,0.0,1.0,1.0,249.5809380002356,1.0,1.0,phase_1,,,,,,,,,,,,,green,cross
0.0,5.0,0.0,1.0,1.0,1.0,292.1237949999522,1.0,1.0,phase_1,,,,,,,,,,,,,blue,square
185.0,3.0,3.0,0.0,2.0,2.0,364.5050850000189,1.0,1.0,phase_1,,,,,,,,,,,,,gray,circle
107.0,2.0,2.0,0.0,4.0,4.0,322.8297599998768,1.0,1.0,phase_1,,,,,,,,,,,,,cyan,flipped triangle
395.0,8.0,4.0,1.0,3.0,3.0,281.7408799996883,1.0,1.0,phase_1,,,,,,,,,,,,,orange,triangle
0.0,5.0,0.0,1.0,2.0,2.0,341.1269650000577,1.0,2.0,phase_1,,,,,,,,,,,,,blue,square
220.0,7.0,3.0,1.0,2.0,2.0,300.2349609996599,1.0,1.0,phase_1,,,,,,,,,,,,,white,hexagon
389.0,8.0,4.0,1.0,2.0,2.0,305.8804589995816,1.0,1.0,phase_1,,,,,,,,,,,,,orange,triangle
116.0,2.0,2.0,0.0,2.0,2.0,302.2009759997672,1.0,1.0,phase_1,,,,,,,,,,,,,cyan,flipped triangle
389.0,8.0,4.0,1.0,3.0,3.0,348.2455729999856,1.0,1.0,phase_1,,,,,,,,,,,,,orange,triangle
75.0,2.0,2.0,0.0,1.0,1.0,295.6618349999189,1.0,1.0,phase_1,,,,,,,,,,,,,cyan,flipped triangle
406.0,4.0,4.0,0.0,2.0,2.0,297.1323379997557,1.0,1.0,phase_1,,,,,,,,,,,,,magenta,diamond
86.0,6.0,2.0,1.0,2.0,2.0,300.2234220002719,1.0,1.0,phase_1,,,,,,,,,,,,,yellow,I
79.0,2.0,2.0,0.0,2.0,2.0,313.6385970001356,1.0,1.0,phase_1,,,,,,,,,,,,,cyan,flipped triangle
220.0,7.0,3.0,1.0,2.0,2.0,324.5746900001904,1.0,1.0,phase_1,,,,,,,,,,,,,white,hexagon
225.0,7.0,3.0,1.0,3.0,3.0,285.6905740000002,1.0,1.0,phase_1,,,,,,,,,,,,,white,hexagon
35.0,1.0,1.0,0.0,1.0,1.0,276.5979969999534,1.0,1.0,phase_1,,,,,,,,,,,,,green,cross
36.0,5.0,1.0,1.0,2.0,2.0,255.1677180003935,1.0,1.0,phase_1,,,,,,,,,,,,,blue,square
45.0,5.0,1.0,1.0,1.0,1.0,336.8804329998056,1.0,1.0,phase_1,,,,,,,,,,,,,blue,square
73.0,5.0,1.0,1.0,2.0,2.0,306.4476989998184,1.0,1.0,phase_1,,,,,,,,,,,,,blue,square
178.0,3.0,3.0,0.0,4.0,4.0,421.2664860001496,1.0,1.0,phase_1,,,,,,,,,,,,,gray,circle
387.0,8.0,4.0,1.0,2.0,2.0,305.3195600000435,2.0,1.0,phase_1,,,,,,,,,,,,,orange,triangle
93.0,6.0,2.0,1.0,1.0,1.0,270.1032579998355,2.0,1.0,phase_1,,,,,,,,,,,,,yellow,I
190.0,3.0,3.0,0.0,2.0,2.0,255.4675719998158,2.0,1.0,phase_1,,,,,,,,,,,,,gray,circle
43.0,5.0,1.0,1.0,4.0,4.0,301.9664090002152,2.0,1.0,phase_1,,,,,,,,,,,,,blue,square
98.0,2.0,2.0,0.0,1.0,1.0,339.8264729999027,2.0,1.0,phase_1,,,,,,,,,,,,,cyan,flipped triangle
0.0,6.0,0.0,1.0,3.0,3.0,287.7027740000812,2.0,1.0,phase_1,,,,,,,,,,,,,yellow,I
209.0,3.0,3.0,0.0,4.0,4.0,353.4336529996835,2.0,1.0,phase_1,,,,,,,,,,,,,gray,circle
192.0,7.0,3.0,1.0,1.0,1.0,364.9888180002563,2.0,1.0,phase_1,,,,,,,,,,,,,white,hexagon
47.0,1.0,1.0,0.0,3.0,3.0,309.4011610000962,2.0,1.0,phase_1,,,,,,,,,,,,,green,cross
0.0,2.0,0.0,0.0,1.0,1.0,444.5304229998328,2.0,1.0,phase_1,,,,,,,,,,,,,cyan,flipped triangle
419.0,4.0,4.0,0.0,2.0,2.0,368.8943130000552,2.0,1.0,phase_1,,,,,,,,,,,,,magenta,diamond
49.0,5.0,1.0,1.0,2.0,2.0,451.3008330000048,2.0,1.0,phase_1,,,,,,,,,,,,,blue,square
179.0,7.0,3.0,1.0,1.0,1.0,263.997173000007,2.0,1.0,phase_1,,,,,,,,,,,,,white,hexagon
105.0,2.0,2.0,0.0,4.0,4.0,309.9721690000478,2.0,1.0,phase_1,,,,,,,,,,,,,cyan,flipped triangle
220.0,3.0,3.0,0.0,2.0,2.0,279.3672710004102,2.0,1.0,phase_1,,,,,,,,,,,,,gray,circle
411.0,4.0,4.0,0.0,1.0,1.0,273.7722299998495,2.0,1.0,phase_1,,,,,,,,,,,,,magenta,diamond
100.0,2.0,2.0,0.0,3.0,3.0,237.9334719998951,2.0,1.0,phase_1,,,,,,,,,,,,,cyan,flipped triangle
0.0,8.0,0.0,1.0,3.0,3.0,443.3387230001244,2.0,1.0,phase_1,,,,,,,,,,,,,orange,triangle
423.0,4.0,4.0,0.0,4.0,4.0,326.4385059997039,2.0,1.0,phase_1,,,,,,,,,,,,,magenta,diamond
197.0,7.0,3.0,1.0,3.0,3.0,322.5929580003139,2.0,1.0,phase_1,,,,,,,,,,,,,white,hexagon
36.0,1.0,1.0,0.0,3.0,3.0,366.6375620000508,2.0,1.0,phase_1,,,,,,,,,,,,,green,cross
0.0,1.0,0.0,0.0,2.0,2.0,295.1048009999795,2.0,1.0,phase_1,,,,,,,,,,,,,green,cross
93.0,6.0,2.0,1.0,4.0,4.0,283.6729249997916,2.0,1.0,phase_1,,,,,,,,,,,,,yellow,I
105.0,6.0,2.0,1.0,1.0,1.0,268.8451740000346,2.0,1.0,phase_1,,,,,,,,,,,,,yellow,I
65.0,5.0,1.0,1.0,4.0,4.0,330.8659399999669,2.0,1.0,phase_1,,,,,,,,,,,,,blue,square
385.0,4.0,4.0,0.0,2.0,2.0,309.700003999751,2.0,1.0,phase_1,,,,,,,,,,,,,magenta,diamond
193.0,7.0,3.0,1.0,1.0,1.0,313.9280699997471,2.0,1.0,phase_1,,,,,,,,,,,,,white,hexagon
206.0,3.0,3.0,0.0,1.0,1.0,291.6750160002266,2.0,1.0,phase_1,,,,,,,,,,,,,gray,circle
0.0,8.0,0.0,1.0,4.0,4.0,273.5093780001989,2.0,1.0,phase_1,,,,,,,,,,,,,orange,triangle
114.0,6.0,2.0,1.0,2.0,2.0,306.1472909998883,2.0,1.0,phase_1,,,,,,,,,,,,,yellow,I
101.0,6.0,2.0,1.0,3.0,3.0,266.3878500002283,2.0,1.0,phase_1,,,,,,,,,,,,,yellow,I
0.0,6.0,0.0,1.0,4.0,4.0,374.3424989997947,2.0,1.0,phase_1,,,,,,,,,,,,,yellow,I
204.0,3.0,3.0,0.0,3.0,3.0,336.4409460000388,2.0,1.0,phase_1,,,,,,,,,,,,,gray,circle
26.0,5.0,1.0,1.0,2.0,2.0,391.8968269999823,2.0,1.0,phase_1,,,,,,,,,,,,,blue,square
204.0,7.0,3.0,1.0,1.0,1.0,345.3437410003062,2.0,1.0,phase_1,,,,,,,,,,,,,white,hexagon
181.0,7.0,3.0,1.0,1.0,1.0,288.8449950000904,2.0,1.0,phase_1,,,,,,,,,,,,,white,hexagon
51.0,1.0,1.0,0.0,3.0,3.0,275.0513860000865,2.0,1.0,phase_1,,,,,,,,,,,,,green,cross
68.0,1.0,1.0,0.0,2.0,2.0,359.3285900001319,2.0,1.0,phase_1,,,,,,,,,,,,,green,cross
220.0,3.0,3.0,0.0,3.0,3.0,310.7761010001013,2.0,1.0,phase_1,,,,,,,,,,,,,gray,circle
420.0,8.0,4.0,1.0,2.0,2.0,329.5194799998171,2.0,1.0,phase_1,,,,,,,,,,,,,orange,triangle
77.0,2.0,2.0,0.0,2.0,2.0,317.4407930000598,2.0,1.0,phase_1,,,,,,,,,,,,,cyan,flipped triangle
74.0,5.0,1.0,1.0,3.0,3.0,340.8020110000507,2.0,1.0,phase_1,,,,,,,,,,,,,blue,square
51.0,5.0,1.0,1.0,1.0,1.0,284.2666379997354,2.0,1.0,phase_1,,,,,,,,,,,,,blue,square
117.0,6.0,2.0,1.0,2.0,2.0,304.5480450000468,2.0,1.0,phase_1,,,,,,,,,,,,,yellow,I
50.0,5.0,1.0,1.0,4.0,4.0,290.0074069998481,2.0,1.0,phase_1,,,,,,,,,,,,,blue,square
423.0,4.0,4.0,0.0,4.0,4.0,293.1967340000483,2.0,1.0,phase_1,,,,,,,,,,,,,magenta,diamond
82.0,2.0,2.0,0.0,2.0,2.0,387.7413049999632,2.0,1.0,phase_1,,,,,,,,,,,,,cyan,flipped triangle
0.0,3.0,0.0,0.0,3.0,3.0,306.7937149999125,2.0,1.0,phase_1,,,,,,,,,,,,,gray,circle
0.0,1.0,0.0,0.0,1.0,1.0,294.5268749999741,2.0,1.0,phase_1,,,,,,,,,,,,,green,cross
390.0,4.0,4.0,0.0,3.0,3.0,318.1600650000291,2.0,1.0,phase_1,,,,,,,,,,,,,magenta,diamond
93.0,2.0,2.0,0.0,1.0,1.0,263.0772679999609,2.0,1.0,phase_1,,,,,,,,,,,,,cyan,flipped triangle
425.0,4.0,4.0,0.0,1.0,1.0,291.1263070000132,2.0,1.0,phase_1,,,,,,,,,,,,,magenta,diamond
195.0,7.0,3.0,1.0,4.0,4.0,309.8108040003353,2.0,1.0,phase_1,,,,,,,,,,,,,white,hexagon
185.0,7.0,3.0,1.0,4.0,4.0,285.6266680000772,2.0,2.0,phase_1,,,,,,,,,,,,,white,hexagon
392.0,4.0,4.0,0.0,3.0,3.0,278.3512129999508,2.0,1.0,phase_1,,,,,,,,,,,,,magenta,diamond
203.0,3.0,3.0,0.0,4.0,4.0,260.1008589999765,2.0,1.0,phase_1,,,,,,,,,,,,,gray,circle
80.0,2.0,2.0,0.0,3.0,3.0,312.1534349998001,2.0,1.0,phase_1,,,,,,,,,,,,,cyan,flipped triangle
417.0,8.0,4.0,1.0,4.0,4.0,326.1330430000271,2.0,1.0,phase_1,,,,,,,,,,,,,orange,triangle
114.0,6.0,2.0,1.0,3.0,3.0,318.8647399997535,2.0,1.0,phase_1,,,,,,,,,,,,,yellow,I
0.0,5.0,0.0,1.0,3.0,3.0,311.462352000035,2.0,1.0,phase_1,,,,,,,,,,,,,blue,square
80.0,6.0,2.0,1.0,3.0,3.0,297.7601809998305,2.0,1.0,phase_1,,,,,,,,,,,,,yellow,I
386.0,4.0,4.0,0.0,2.0,2.0,402.3141349998695,2.0,1.0,phase_1,,,,,,,,,,,,,magenta,diamond
180.0,7.0,3.0,1.0,4.0,4.0,323.3113510000294,2.0,1.0,phase_1,,,,,,,,,,,,,white,hexagon
0.0,7.0,0.0,1.0,4.0,4.0,391.4775669995833,2.0,1.0,phase_1,,,,,,,,,,,,,white,hexagon
56.0,5.0,1.0,1.0,4.0,4.0,299.10393000000107,2.0,1.0,phase_1,,,,,,,,,,,,,blue,square
0.0,7.0,0.0,1.0,3.0,3.0,290.8523900000546,2.0,1.0,phase_1,,,,,,,,,,,,,white,hexagon
209.0,3.0,3.0,0.0,4.0,4.0,274.499977999767,2.0,1.0,phase_1,,,,,,,,,,,,,gray,circle
96.0,2.0,2.0,0.0,3.0,3.0,300.2976419998049,2.0,1.0,phase_1,,,,,,,,,,,,,cyan,flipped triangle
185.0,3.0,3.0,0.0,1.0,1.0,312.433191999844,2.0,1.0,phase_1,,,,,,,,,,,,,gray,circle
0.0,7.0,0.0,1.0,4.0,4.0,303.5799389999738,2.0,1.0,phase_1,,,,,,,,,,,,,white,hexagon
115.0,6.0,2.0,1.0,4.0,4.0,286.0617809997166,2.0,1.0,phase_1,,,,,,,,,,,,,yellow,I
389.0,4.0,4.0,0.0,3.0,3.0,315.2296200000819,2.0,1.0,phase_1,,,,,,,,,,,,,magenta,diamond
0.0,1.0,0.0,0.0,4.0,4.0,348.18547300028507,2.0,1.0,phase_1,,,,,,,,,,,,,green,cross
117.0,6.0,2.0,1.0,1.0,1.0,303.700248000041,2.0,1.0,phase_1,,,,,,,,,,,,,yellow,I
38.0,1.0,1.0,0.0,3.0,3.0,280.9784559999571,2.0,1.0,phase_1,,,,,,,,,,,,,green,cross
40.0,1.0,1.0,0.0,1.0,1.0,296.5445989998443,2.0,1.0,phase_1,,,,,,,,,,,,,green,cross
31.0,1.0,1.0,0.0,3.0,3.0,276.2418629999956,2.0,1.0,phase_1,,,,,,,,,,,,,green,cross
0.0,3.0,0.0,0.0,1.0,1.0,330.8100569997805,2.0,1.0,phase_1,,,,,,,,,,,,,gray,circle
395.0,4.0,4.0,0.0,2.0,2.0,297.5833020000209,2.0,1.0,phase_1,,,,,,,,,,,,,magenta,diamond
92.0,6.0,2.0,1.0,1.0,1.0,341.3450729999567,2.0,1.0,phase_1,,,,,,,,,,,,,yellow,I
0.0,5.0,0.0,1.0,3.0,3.0,312.113498999679,2.0,1.0,phase_1,,,,,,,,,,,,,blue,square
405.0,4.0,4.0,0.0,4.0,4.0,296.5898120000929,2.0,1.0,phase_1,,,,,,,,,,,,,magenta,diamond
116.0,6.0,2.0,1.0,4.0,4.0,282.7303299995947,2.0,1.0,phase_1,,,,,,,,,,,,,yellow,I
0.0,6.0,0.0,1.0,2.0,2.0,324.7951820003436,2.0,1.0,phase_1,,,,,,,,,,,,,yellow,I
64.0,5.0,1.0,1.0,1.0,1.0,289.222294999945,2.0,1.0,phase_1,,,,,,,,,,,,,blue,square
405.0,4.0,4.0,0.0,1.0,1.0,277.7594279996265,2.0,1.0,phase_1,,,,,,,,,,,,,magenta,diamond
223.0,3.0,3.0,0.0,4.0,4.0,286.9385330000114,2.0,1.0,phase_1,,,,,,,,,,,,,gray,circle
64.0,5.0,1.0,1.0,3.0,3.0,316.6671959997984,2.0,1.0,phase_1,,,,,,,,,,,,,blue,square
403.0,8.0,4.0,1.0,4.0,4.0,383.186114000182,2.0,1.0,phase_1,,,,,,,,,,,,,orange,triangle
221.0,7.0,3.0,1.0,2.0,2.0,331.9155199997112,2.0,1.0,phase_1,,,,,,,,,,,,,white,hexagon
190.0,3.0,3.0,0.0,2.0,2.0,335.2683160001106,2.0,1.0,phase_1,,,,,,,,,,,,,gray,circle
392.0,4.0,4.0,0.0,2.0,2.0,339.7223189999749,2.0,1.0,phase_1,,,,,,,,,,,,,magenta,diamond
223.0,7.0,3.0,1.0,1.0,1.0,359.6160419997432,2.0,1.0,phase_1,,,,,,,,,,,,,white,hexagon
81.0,6.0,2.0,1.0,3.0,3.0,322.8783710001153,2.0,1.0,phase_1,,,,,,,,,,,,,yellow,I
390.0,8.0,4.0,1.0,2.0,2.0,345.4693310000039,2.0,1.0,phase_1,,,,,,,,,,,,,orange,triangle
389.0,4.0,4.0,0.0,4.0,4.0,320.0857199999518,2.0,1.0,phase_1,,,,,,,,,,,,,magenta,diamond
55.0,5.0,1.0,1.0,1.0,1.0,339.3325450001612,2.0,1.0,phase_1,,,,,,,,,,,,,blue,square
96.0,2.0,2.0,0.0,4.0,4.0,321.7976149999231,2.0,1.0,phase_1,,,,,,,,,,,,,cyan,flipped triangle
195.0,3.0,3.0,0.0,3.0,3.0,262.0273229999839,2.0,1.0,phase_1,,,,,,,,,,,,,gray,circle
40.0,5.0,1.0,1.0,1.0,1.0,300.6843140001365,2.0,1.0,phase_1,,,,,,,,,,,,,blue,square
0.0,1.0,0.0,0.0,1.0,1.0,274.9500800000533,3.0,1.0,phase_1,,,,,,,,,,,,,green,cross
111.0,2.0,2.0,0.0,2.0,2.0,274.2021779999959,3.0,1.0,phase_1,,,,,,,,,,,,,cyan,flipped triangle
203.0,7.0,3.0,1.0,3.0,3.0,307.8765740001472,3.0,1.0,phase_1,,,,,,,,,,,,,white,hexagon
120.0,6.0,2.0,1.0,3.0,3.0,329.0471270001944,3.0,1.0,phase_1,,,,,,,,,,,,,yellow,I
107.0,6.0,2.0,1.0,2.0,2.0,304.5964170000843,3.0,1.0,phase_1,,,,,,,,,,,,,yellow,I
0.0,2.0,0.0,0.0,4.0,4.0,324.7248610000497,3.0,1.0,phase_1,,,,,,,,,,,,,cyan,flipped triangle
0.0,8.0,0.0,1.0,2.0,2.0,360.47120900002477,3.0,1.0,phase_1,,,,,,,,,,,,,orange,triangle
0.0,4.0,0.0,0.0,4.0,4.0,281.9714269999167,3.0,1.0,phase_1,,,,,,,,,,,,,magenta,diamond
206.0,7.0,3.0,1.0,4.0,4.0,329.5399699995869,3.0,1.0,phase_1,,,,,,,,,,,,,white,hexagon
0.0,1.0,0.0,0.0,3.0,3.0,293.2012629999008,3.0,1.0,phase_1,,,,,,,,,,,,,green,cross
404.0,4.0,4.0,0.0,2.0,2.0,314.8506019997512,3.0,1.0,phase_1,,,,,,,,,,,,,magenta,diamond
56.0,5.0,1.0,1.0,3.0,3.0,284.2598699999143,3.0,1.0,phase_1,,,,,,,,,,,,,blue,square
414.0,4.0,4.0,0.0,4.0,4.0,301.3765479995527,3.0,1.0,phase_1,,,,,,,,,,,,,magenta,diamond
87.0,2.0,2.0,0.0,3.0,3.0,300.2891920000365,3.0,1.0,phase_1,,,,,,,,,,,,,cyan,flipped triangle
0.0,4.0,0.0,0.0,1.0,1.0,307.3621659996206,3.0,1.0,phase_1,,,,,,,,,,,,,magenta,diamond
75.0,6.0,2.0,1.0,2.0,2.0,390.1473860000806,3.0,1.0,phase_1,,,,,,,,,,,,,yellow,I
109.0,6.0,2.0,1.0,3.0,3.0,318.6081460003152,3.0,1.0,phase_1,,,,,,,,,,,,,yellow,I
178.0,7.0,3.0,1.0,2.0,2.0,301.0803430001942,3.0,1.0,phase_1,,,,,,,,,,,,,white,hexagon
0.0,1.0,0.0,0.0,4.0,4.0,297.6289430002907,3.0,1.0,phase_1,,,,,,,,,,,,,green,cross
45.0,1.0,1.0,0.0,4.0,4.0,333.6549270002251,3.0,1.0,phase_1,,,,,,,,,,,,,green,cross
99.0,6.0,2.0,1.0,2.0,2.0,252.7370380003049,3.0,1.0,phase_1,,,,,,,,,,,,,yellow,I
180.0,7.0,3.0,1.0,4.0,4.0,290.3977719997783,3.0,1.0,phase_1,,,,,,,,,,,,,white,hexagon
191.0,7.0,3.0,1.0,3.0,3.0,305.9548979999817,3.0,1.0,phase_1,,,,,,,,,,,,,white,hexagon
212.0,7.0,3.0,1.0,4.0,4.0,310.7618199996977,3.0,1.0,phase_1,,,,,,,,,,,,,white,hexagon
414.0,8.0,4.0,1.0,3.0,3.0,303.4514400001171,3.0,1.0,phase_1,,,,,,,,,,,,,orange,triangle
409.0,4.0,4.0,0.0,4.0,4.0,292.4701619999723,3.0,1.0,phase_1,,,,,,,,,,,,,magenta,diamond
0.0,6.0,0.0,1.0,4.0,4.0,361.1292090004099,3.0,1.0,phase_1,,,,,,,,,,,,,yellow,I
96.0,6.0,2.0,1.0,2.0,2.0,296.1804490000759,3.0,1.0,phase_1,,,,,,,,,,,,,yellow,I
205.0,7.0,3.0,1.0,3.0,3.0,317.0416749999276,3.0,1.0,phase_1,,,,,,,,,,,,,white,hexagon
47.0,5.0,1.0,1.0,2.0,2.0,334.0146149998872,3.0,1.0,phase_1,,,,,,,,,,,,,blue,square
109.0,2.0,2.0,0.0,4.0,4.0,250.2733769997576,3.0,1.0,phase_1,,,,,,,,,,,,,cyan,flipped triangle
114.0,2.0,2.0,0.0,3.0,3.0,290.4705320001994,3.0,1.0,phase_1,,,,,,,,,,,,,cyan,flipped triangle
117.0,2.0,2.0,0.0,4.0,4.0,230.9114949998729,3.0,1.0,phase_1,,,,,,,,,,,,,cyan,flipped triangle
56.0,5.0,1.0,1.0,1.0,1.0,309.4934219998322,3.0,1.0,phase_1,,,,,,,,,,,,,blue,square
99.0,2.0,2.0,0.0,1.0,1.0,296.0387749999427,3.0,2.0,phase_1,,,,,,,,,,,,,cyan,flipped triangle
56.0,1.0,1.0,0.0,4.0,4.0,283.5569189996931,3.0,1.0,phase_1,,,,,,,,,,,,,green,cross
421.0,4.0,4.0,0.0,3.0,3.0,291.4813860002141,3.0,1.0,phase_1,,,,,,,,,,,,,magenta,diamond
221.0,3.0,3.0,0.0,3.0,3.0,334.2708300001504,3.0,1.0,phase_1,,,,,,,,,,,,,gray,circle
0.0,6.0,0.0,1.0,4.0,4.0,310.7801569999537,3.0,1.0,phase_1,,,,,,,,,,,,,yellow,I
208.0,7.0,3.0,1.0,2.0,2.0,310.0229890001174,3.0,1.0,phase_1,,,,,,,,,,,,,white,hexagon
0.0,7.0,0.0,1.0,3.0,3.0,486.6847620000953,3.0,1.0,phase_1,,,,,,,,,,,,,white,hexagon
383.0,4.0,4.0,0.0,2.0,2.0,312.6868980002655,3.0,1.0,phase_1,,,,,,,,,,,,,magenta,diamond
0.0,6.0,0.0,1.0,3.0,3.0,291.8846080001458,3.0,1.0,phase_1,,,,,,,,,,,,,yellow,I
29.0,1.0,1.0,0.0,1.0,1.0,318.7411089998022,3.0,1.0,phase_1,,,,,,,,,,,,,green,cross
0.0,8.0,0.0,1.0,3.0,3.0,281.2514329998521,3.0,1.0,phase_1,,,,,,,,,,,,,orange,triangle
66.0,5.0,1.0,1.0,2.0,2.0,326.4892040001541,3.0,1.0,phase_1,,,,,,,,,,,,,blue,square
114.0,2.0,2.0,0.0,2.0,2.0,317.6952650001112,3.0,1.0,phase_1,,,,,,,,,,,,,cyan,flipped triangle
423.0,8.0,4.0,1.0,3.0,3.0,275.6960230003642,3.0,1.0,phase_1,,,,,,,,,,,,,orange,triangle
0.0,8.0,0.0,1.0,1.0,1.0,279.7975650000808,3.0,1.0,phase_1,,,,,,,,,,,,,orange,triangle
47.0,1.0,1.0,0.0,2.0,2.0,295.6384459998844,3.0,1.0,phase_1,,,,,,,,,,,,,green,cross
198.0,3.0,3.0,0.0,1.0,1.0,288.1663660000413,3.0,1.0,phase_1,,,,,,,,,,,,,gray,circle
93.0,2.0,2.0,0.0,4.0,4.0,320.2928109999448,3.0,1.0,phase_1,,,,,,,,,,,,,cyan,flipped triangle
181.0,3.0,3.0,0.0,4.0,4.0,351.5682359998209,3.0,1.0,phase_1,,,,,,,,,,,,,gray,circle
209.0,7.0,3.0,1.0,3.0,3.0,475.0783129998126,3.0,1.0,phase_1,,,,,,,,,,,,,white,hexagon
190.0,7.0,3.0,1.0,4.0,4.0,567.2572839998793,3.0,1.0,phase_1,,,,,,,,,,,,,white,hexagon
404.0,4.0,4.0,0.0,1.0,1.0,318.2908329999918,3.0,1.0,phase_1,,,,,,,,,,,,,magenta,diamond
43.0,1.0,1.0,0.0,2.0,2.0,303.1358349999209,3.0,1.0,phase_1,,,,,,,,,,,,,green,cross
417.0,4.0,4.0,0.0,3.0,3.0,302.0340729999589,3.0,1.0,phase_1,,,,,,,,,,,,,magenta,diamond
100.0,6.0,2.0,1.0,3.0,3.0,340.073824999763,3.0,1.0,phase_1,,,,,,,,,,,,,yellow,I
101.0,2.0,2.0,0.0,1.0,1.0,327.33913400034,3.0,1.0,phase_1,,,,,,,,,,,,,cyan,flipped triangle
383.0,8.0,4.0,1.0,1.0,1.0,383.0227229996126,3.0,1.0,phase_1,,,,,,,,,,,,,orange,triangle
29.0,5.0,1.0,1.0,4.0,4.0,302.0372029995997,3.0,1.0,phase_1,,,,,,,,,,,,,blue,square
0.0,5.0,0.0,1.0,3.0,3.0,326.0638300002938,3.0,1.0,phase_1,,,,,,,,,,,,,blue,square
0.0,1.0,0.0,0.0,3.0,3.0,338.9429540002311,3.0,1.0,phase_1,,,,,,,,,,,,,green,cross
56.0,1.0,1.0,0.0,4.0,4.0,365.5285410000033,3.0,1.0,phase_1,,,,,,,,,,,,,green,cross
61.0,1.0,1.0,0.0,4.0,4.0,308.3106340000086,3.0,1.0,phase_1,,,,,,,,,,,,,green,cross
225.0,3.0,3.0,0.0,3.0,3.0,310.0266219998957,3.0,1.0,phase_1,,,,,,,,,,,,,gray,circle
81.0,2.0,2.0,0.0,2.0,2.0,290.1901029999862,3.0,1.0,phase_1,,,,,,,,,,,,,cyan,flipped triangle
198.0,7.0,3.0,1.0,3.0,3.0,337.3385259997121,3.0,1.0,phase_1,,,,,,,,,,,,,white,hexagon
216.0,3.0,3.0,0.0,2.0,2.0,338.4699939997517,3.0,1.0,phase_1,,,,,,,,,,,,,gray,circle
385.0,8.0,4.0,1.0,2.0,2.0,456.7818389996319,3.0,1.0,phase_1,,,,,,,,,,,,,orange,triangle
423.0,8.0,4.0,1.0,4.0,4.0,290.1918079996903,3.0,1.0,phase_1,,,,,,,,,,,,,orange,triangle
0.0,1.0,0.0,0.0,1.0,1.0,419.5983210001941,3.0,1.0,phase_1,,,,,,,,,,,,,green,cross
0.0,6.0,0.0,1.0,3.0,3.0,305.7523260004018,3.0,1.0,phase_1,,,,,,,,,,,,,yellow,I
64.0,1.0,1.0,0.0,1.0,1.0,315.2198869997846,3.0,1.0,phase_1,,,,,,,,,,,,,green,cross
0.0,3.0,0.0,0.0,4.0,4.0,335.5637700001352,3.0,1.0,phase_1,,,,,,,,,,,,,gray,circle
73.0,5.0,1.0,1.0,3.0,3.0,270.5739170000925,3.0,1.0,phase_1,,,,,,,,,,,,,blue,square
377.0,4.0,4.0,0.0,4.0,4.0,266.982052000003,3.0,1.0,phase_1,,,,,,,,,,,,,magenta,diamond
0.0,4.0,0.0,0.0,3.0,3.0,355.3776730000209,3.0,1.0,phase_1,,,,,,,,,,,,,magenta,diamond
409.0,8.0,4.0,1.0,2.0,2.0,334.5551340003112,3.0,1.0,phase_1,,,,,,,,,,,,,orange,triangle
197.0,3.0,3.0,0.0,3.0,3.0,384.6309589998782,3.0,1.0,phase_1,,,,,,,,,,,,,gray,circle
69.0,1.0,1.0,0.0,3.0,3.0,283.9585189999525,3.0,1.0,phase_1,,,,,,,,,,,,,green,cross
114.0,6.0,2.0,1.0,4.0,4.0,302.9276249999384,3.0,1.0,phase_1,,,,,,,,,,,,,yellow,I
108.0,2.0,2.0,0.0,2.0,2.0,453.4409160000905,3.0,1.0,phase_1,,,,,,,,,,,,,cyan,flipped triangle
180.0,3.0,3.0,0.0,2.0,2.0,363.0792399999336,3.0,1.0,phase_1,,,,,,,,,,,,,gray,circle
411.0,8.0,4.0,1.0,3.0,3.0,333.8081629999578,3.0,1.0,phase_1,,,,,,,,,,,,,orange,triangle
100.0,2.0,2.0,0.0,3.0,3.0,333.4672330001922,3.0,1.0,phase_1,,,,,,,,,,,,,cyan,flipped triangle
216.0,3.0,3.0,0.0,4.0,4.0,307.851127000049,3.0,1.0,phase_1,,,,,,,,,,,,,gray,circle
378.0,8.0,4.0,1.0,1.0,1.0,321.5107249998254,3.0,1.0,phase_1,,,,,,,,,,,,,orange,triangle
63.0,5.0,1.0,1.0,4.0,4.0,288.2620559998941,3.0,1.0,phase_1,,,,,,,,,,,,,blue,square
28.0,5.0,1.0,1.0,2.0,2.0,377.3988799998733,3.0,1.0,phase_1,,,,,,,,,,,,,blue,square
39.0,5.0,1.0,1.0,4.0,4.0,515.7620070003759,3.0,1.0,phase_1,,,,,,,,,,,,,blue,square
379.0,4.0,4.0,0.0,3.0,3.0,309.9259320001692,3.0,1.0,phase_1,,,,,,,,,,,,,magenta,diamond
389.0,8.0,4.0,1.0,4.0,4.0,452.9696849999709,3.0,1.0,phase_1,,,,,,,,,,,,,orange,triangle
195.0,3.0,3.0,0.0,1.0,1.0,290.9100669999134,3.0,1.0,phase_1,,,,,,,,,,,,,gray,circle
0.0,4.0,0.0,0.0,1.0,1.0,429.8314369998479,3.0,1.0,phase_1,,,,,,,,,,,,,magenta,diamond
0.0,2.0,0.0,0.0,1.0,1.0,326.7386299999089,3.0,1.0,phase_1,,,,,,,,,,,,,cyan,flipped triangle
0.0,3.0,0.0,0.0,1.0,1.0,290.5695690001266,3.0,1.0,phase_1,,,,,,,,,,,,,gray,circle
383.0,4.0,4.0,0.0,1.0,1.0,298.8366720001068,3.0,1.0,phase_1,,,,,,,,,,,,,magenta,diamond
183.0,7.0,3.0,1.0,2.0,2.0,319.0294239998366,3.0,1.0,phase_1,,,,,,,,,,,,,white,hexagon
0.0,3.0,0.0,0.0,2.0,2.0,392.8908829998363,4.0,1.0,phase_1,,,,,,,,,,,,,gray,circle
53.0,1.0,1.0,0.0,2.0,2.0,268.2409720000578,4.0,1.0,phase_1,,,,,,,,,,,,,green,cross
0.0,1.0,0.0,0.0,2.0,2.0,283.6231599999337,4.0,1.0,phase_1,,,,,,,,,,,,,green,cross
31.0,5.0,1.0,1.0,4.0,4.0,294.9543439999615,4.0,1.0,phase_1,,,,,,,,,,,,,blue,square
86.0,2.0,2.0,0.0,1.0,1.0,304.0225749996352,4.0,1.0,phase_1,,,,,,,,,,,,,cyan,flipped triangle
0.0,7.0,0.0,1.0,2.0,2.0,322.4237449999236,4.0,1.0,phase_1,,,,,,,,,,,,,white,hexagon
92.0,2.0,2.0,0.0,2.0,2.0,388.1096680001974,4.0,1.0,phase_1,,,,,,,,,,,,,cyan,flipped triangle
175.0,3.0,3.0,0.0,3.0,3.0,319.8094180002044,4.0,1.0,phase_1,,,,,,,,,,,,,gray,circle
381.0,4.0,4.0,0.0,1.0,1.0,347.634871000082,4.0,1.0,phase_1,,,,,,,,,,,,,magenta,diamond
91.0,2.0,2.0,0.0,4.0,4.0,290.6210249998366,4.0,1.0,phase_1,,,,,,,,,,,,,cyan,flipped triangle
119.0,6.0,2.0,1.0,4.0,4.0,484.398462000172,4.0,1.0,phase_1,,,,,,,,,,,,,yellow,I
420.0,4.0,4.0,0.0,4.0,4.0,297.7554379999674,4.0,1.0,phase_1,,,,,,,,,,,,,magenta,diamond
0.0,8.0,0.0,1.0,2.0,2.0,291.0962199998721,4.0,1.0,phase_1,,,,,,,,,,,,,orange,triangle
214.0,7.0,3.0,1.0,2.0,2.0,282.1978889996899,4.0,1.0,phase_1,,,,,,,,,,,,,white,hexagon
0.0,4.0,0.0,0.0,1.0,1.0,271.9201290001365,4.0,1.0,phase_1,,,,,,,,,,,,,magenta,diamond
421.0,8.0,4.0,1.0,1.0,1.0,325.0678290000905,4.0,1.0,phase_1,,,,,,,,,,,,,orange,triangle
399.0,4.0,4.0,0.0,2.0,2.0,297.6605310000195,4.0,1.0,phase_1,,,,,,,,,,,,,magenta,diamond
389.0,8.0,4.0,1.0,3.0,3.0,310.9573870001441,4.0,1.0,phase_1,,,,,,,,,,,,,orange,triangle
425.0,8.0,4.0,1.0,1.0,1.0,299.7849169996698,4.0,1.0,phase_1,,,,,,,,,,,,,orange,triangle
191.0,3.0,3.0,0.0,2.0,2.0,296.177101000012,4.0,1.0,phase_1,,,,,,,,,,,,,gray,circle
0.0,4.0,0.0,0.0,3.0,3.0,344.672619999983,4.0,1.0,phase_1,,,,,,,,,,,,,magenta,diamond
192.0,3.0,3.0,0.0,1.0,1.0,263.9387280000846,4.0,1.0,phase_1,,,,,,,,,,,,,gray,circle
175.0,7.0,3.0,1.0,2.0,2.0,255.3720050000265,4.0,1.0,phase_1,,,,,,,,,,,,,white,hexagon
179.0,3.0,3.0,0.0,3.0,3.0,353.0521210000188,4.0,1.0,phase_1,,,,,,,,,,,,,gray,circle
401.0,4.0,4.0,0.0,1.0,1.0,279.9067769997236,4.0,1.0,phase_1,,,,,,,,,,,,,magenta,diamond
392.0,8.0,4.0,1.0,4.0,4.0,313.3551020000595,4.0,1.0,phase_1,,,,,,,,,,,,,orange,triangle
387.0,4.0,4.0,0.0,1.0,1.0,259.4267200001923,4.0,1.0,phase_1,,,,,,,,,,,,,magenta,diamond
176.0,3.0,3.0,0.0,2.0,2.0,351.3321289997293,4.0,1.0,phase_1,,,,,,,,,,,,,gray,circle
377.0,8.0,4.0,1.0,1.0,1.0,240.8597480002754,4.0,1.0,phase_1,,,,,,,,,,,,,orange,triangle
58.0,5.0,1.0,1.0,3.0,3.0,303.4806719997505,4.0,1.0,phase_1,,,,,,,,,,,,,blue,square
216.0,7.0,3.0,1.0,1.0,1.0,262.7158949999284,4.0,1.0,phase_1,,,,,,,,,,,,,white,hexagon
389.0,4.0,4.0,0.0,3.0,3.0,401.7322479999166,4.0,1.0,phase_1,,,,,,,,,,,,,magenta,diamond
74.0,1.0,1.0,0.0,2.0,2.0,315.3953649998584,4.0,1.0,phase_1,,,,,,,,,,,,,green,cross
100.0,6.0,2.0,1.0,2.0,2.0,311.7400819996874,4.0,1.0,phase_1,,,,,,,,,,,,,yellow,I
0.0,7.0,0.0,1.0,1.0,1.0,299.8892870000418,4.0,1.0,phase_1,,,,,,,,,,,,,white,hexagon
395.0,4.0,4.0,0.0,1.0,1.0,269.2377619996478,4.0,1.0,phase_1,,,,,,,,,,,,,magenta,diamond
103.0,6.0,2.0,1.0,1.0,1.0,234.1796050000084,4.0,1.0,phase_1,,,,,,,,,,,,,yellow,I
0.0,2.0,0.0,0.0,1.0,1.0,265.3963369998564,4.0,1.0,phase_1,,,,,,,,,,,,,cyan,flipped triangle
0.0,3.0,0.0,0.0,2.0,2.0,269.1548819998388,4.0,1.0,phase_1,,,,,,,,,,,,,gray,circle
193.0,3.0,3.0,0.0,4.0,4.0,299.8366399997394,4.0,1.0,phase_1,,,,,,,,,,,,,gray,circle
73.0,1.0,1.0,0.0,4.0,4.0,333.343374999913,4.0,1.0,phase_1,,,,,,,,,,,,,green,cross
0.0,2.0,0.0,0.0,1.0,1.0,303.7307419999706,4.0,1.0,phase_1,,,,,,,,,,,,,cyan,flipped triangle
39.0,1.0,1.0,0.0,3.0,3.0,299.6314520000851,4.0,1.0,phase_1,,,,,,,,,,,,,green,cross
50.0,1.0,1.0,0.0,4.0,4.0,364.1484370000398,4.0,1.0,phase_1,,,,,,,,,,,,,green,cross
398.0,8.0,4.0,1.0,1.0,1.0,258.1338420000065,4.0,1.0,phase_1,,,,,,,,,,,,,orange,triangle
213.0,7.0,3.0,1.0,4.0,4.0,241.7693920001511,4.0,1.0,phase_1,,,,,,,,,,,,,white,hexagon
64.0,5.0,1.0,1.0,1.0,1.0,265.8387989999937,4.0,1.0,phase_1,,,,,,,,,,,,,blue,square
209.0,7.0,3.0,1.0,2.0,2.0,299.0623269997741,4.0,1.0,phase_1,,,,,,,,,,,,,white,hexagon
98.0,6.0,2.0,1.0,4.0,4.0,356.8827840003905,4.0,1.0,phase_1,,,,,,,,,,,,,yellow,I
27.0,5.0,1.0,1.0,2.0,2.0,298.9845020001667,4.0,1.0,phase_1,,,,,,,,,,,,,blue,square
0.0,6.0,0.0,1.0,2.0,2.0,372.5900290000936,4.0,1.0,phase_1,,,,,,,,,,,,,yellow,I
124.0,6.0,2.0,1.0,4.0,4.0,235.6744650001019,4.0,1.0,phase_1,,,,,,,,,,,,,yellow,I
214.0,3.0,3.0,0.0,2.0,2.0,262.670916999923,4.0,1.0,phase_1,,,,,,,,,,,,,gray,circle
104.0,2.0,2.0,0.0,1.0,1.0,230.5948680000256,4.0,1.0,phase_1,,,,,,,,,,,,,cyan,flipped triangle
0.0,2.0,0.0,0.0,2.0,2.0,295.1208209997276,4.0,1.0,phase_1,,,,,,,,,,,,,cyan,flipped triangle
120.0,2.0,2.0,0.0,1.0,1.0,351.4936279998437,4.0,1.0,phase_1,,,,,,,,,,,,,cyan,flipped triangle
190.0,7.0,3.0,1.0,1.0,1.0,279.6781240003838,4.0,1.0,phase_1,,,,,,,,,,,,,white,hexagon
32.0,1.0,1.0,0.0,4.0,4.0,325.7007600000179,4.0,1.0,phase_1,,,,,,,,,,,,,green,cross
28.0,1.0,1.0,0.0,4.0,4.0,282.689670000309,4.0,1.0,phase_1,,,,,,,,,,,,,green,cross
180.0,3.0,3.0,0.0,1.0,1.0,259.3485180000243,4.0,1.0,phase_1,,,,,,,,,,,,,gray,circle
0.0,5.0,0.0,1.0,4.0,4.0,272.5069810003333,4.0,1.0,phase_1,,,,,,,,,,,,,blue,square
0.0,7.0,0.0,1.0,3.0,3.0,318.3310260001235,4.0,1.0,phase_1,,,,,,,,,,,,,white,hexagon
0.0,8.0,0.0,1.0,4.0,4.0,283.3004650001385,4.0,1.0,phase_1,,,,,,,,,,,,,orange,triangle
0.0,2.0,0.0,0.0,1.0,1.0,226.5469630001462,4.0,1.0,phase_1,,,,,,,,,,,,,cyan,flipped triangle
50.0,5.0,1.0,1.0,1.0,1.0,225.0802640000984,4.0,1.0,phase_1,,,,,,,,,,,,,blue,square
0.0,5.0,0.0,1.0,1.0,1.0,229.2121430000406,4.0,1.0,phase_1,,,,,,,,,,,,,blue,square
419.0,8.0,4.0,1.0,4.0,4.0,285.2150050002819,4.0,1.0,phase_1,,,,,,,,,,,,,orange,triangle
0.0,4.0,0.0,0.0,3.0,3.0,329.6909420000702,4.0,1.0,phase_1,,,,,,,,,,,,,magenta,diamond
0.0,4.0,0.0,0.0,1.0,1.0,235.5418520000967,4.0,1.0,phase_1,,,,,,,,,,,,,magenta,diamond
398.0,4.0,4.0,0.0,2.0,2.0,306.7925929999546,4.0,1.0,phase_1,,,,,,,,,,,,,magenta,diamond
32.0,5.0,1.0,1.0,3.0,3.0,295.5655700002353,4.0,2.0,phase_1,,,,,,,,,,,,,blue,square
207.0,3.0,3.0,0.0,2.0,2.0,370.1618820000476,4.0,1.0,phase_1,,,,,,,,,,,,,gray,circle
103.0,2.0,2.0,0.0,1.0,1.0,285.1013399999829,4.0,1.0,phase_1,,,,,,,,,,,,,cyan,flipped triangle
411.0,8.0,4.0,1.0,4.0,4.0,272.0784309999544,4.0,1.0,phase_1,,,,,,,,,,,,,orange,triangle
104.0,6.0,2.0,1.0,1.0,1.0,292.9106429996864,4.0,1.0,phase_1,,,,,,,,,,,,,yellow,I
0.0,3.0,0.0,0.0,1.0,1.0,304.2356930000096,4.0,1.0,phase_1,,,,,,,,,,,,,gray,circle
213.0,3.0,3.0,0.0,4.0,4.0,355.3684189996602,4.0,1.0,phase_1,,,,,,,,,,,,,gray,circle
0.0,8.0,0.0,1.0,1.0,1.0,276.1393749997296,4.0,1.0,phase_1,,,,,,,,,,,,,orange,triangle
193.0,3.0,3.0,0.0,3.0,3.0,306.1669889998484,4.0,1.0,phase_1,,,,,,,,,,,,,gray,circle
117.0,2.0,2.0,0.0,4.0,4.0,350.553600999774,4.0,1.0,phase_1,,,,,,,,,,,,,cyan,flipped triangle
404.0,8.0,4.0,1.0,3.0,3.0,353.2148710000911,4.0,1.0,phase_1,,,,,,,,,,,,,orange,triangle
115.0,2.0,2.0,0.0,4.0,4.0,313.4000979998745,4.0,1.0,phase_1,,,,,,,,,,,,,cyan,flipped triangle
216.0,7.0,3.0,1.0,3.0,3.0,338.3597759998338,4.0,1.0,phase_1,,,,,,,,,,,,,white,hexagon
100.0,6.0,2.0,1.0,4.0,4.0,266.6365850000147,4.0,1.0,phase_1,,,,,,,,,,,,,yellow,I
0.0,6.0,0.0,1.0,3.0,3.0,309.5613919999778,4.0,1.0,phase_1,,,,,,,,,,,,,yellow,I
40.0,5.0,1.0,1.0,3.0,3.0,289.8754800003189,4.0,1.0,phase_1,,,,,,,,,,,,,blue,square
111.0,2.0,2.0,0.0,3.0,3.0,312.3109200000726,4.0,1.0,phase_1,,,,,,,,,,,,,cyan,flipped triangle
58.0,1.0,1.0,0.0,2.0,2.0,344.9003900000207,4.0,1.0,phase_1,,,,,,,,,,,,,green,cross
55.0,1.0,1.0,0.0,2.0,2.0,271.5525849998812,4.0,1.0,phase_1,,,,,,,,,,,,,green,cross
53.0,5.0,1.0,1.0,4.0,4.0,271.6099099998246,4.0,1.0,phase_1,,,,,,,,,,,,,blue,square
47.0,5.0,1.0,1.0,2.0,2.0,280.7529550000254,4.0,1.0,phase_1,,,,,,,,,,,,,blue,square
0.0,3.0,0.0,0.0,1.0,1.0,276.8859140001041,4.0,1.0,phase_1,,,,,,,,,,,,,gray,circle
176.0,7.0,3.0,1.0,4.0,4.0,268.8386929999069,4.0,1.0,phase_1,,,,,,,,,,,,,white,hexagon
404.0,8.0,4.0,1.0,4.0,4.0,298.65938600005387,4.0,1.0,phase_1,,,,,,,,,,,,,orange,triangle
49.0,1.0,1.0,0.0,4.0,4.0,349.031420999836,4.0,1.0,phase_1,,,,,,,,,,,,,green,cross
56.0,1.0,1.0,0.0,1.0,1.0,292.6659949998793,4.0,1.0,phase_1,,,,,,,,,,,,,green,cross
0.0,3.0,0.0,0.0,1.0,1.0,343.2092859998192,4.0,1.0,phase_1,,,,,,,,,,,,,gray,circle
0.0,6.0,0.0,1.0,4.0,4.0,459.9931220000144,4.0,1.0,phase_1,,,,,,,,,,,,,yellow,I
92.0,2.0,2.0,0.0,3.0,3.0,302.1093249999467,4.0,1.0,phase_1,,,,,,,,,,,,,cyan,flipped triangle
392.0,8.0,4.0,1.0,3.0,3.0,322.9477719996794,4.0,1.0,phase_1,,,,,,,,,,,,,orange,triangle
0.0,6.0,2.0,1.0,5.0,5.0,495.2217969998855,1.0,1.0,phase_2,go,250.0,250.0,1.0,,,,,,,,,yellow,I
0.0,5.0,1.0,1.0,5.0,0.0,0.0,1.0,1.0,phase_2,stop,250.0,250.0,4.0,,,,,,,,,blue,square
0.0,3.0,3.0,0.0,6.0,6.0,712.2536460001356,1.0,1.0,phase_2,go,300.0,250.0,1.0,,,,,,,,,gray,circle
0.0,5.0,1.0,1.0,5.0,0.0,0.0,1.0,1.0,phase_2,stop,300.0,250.0,4.0,,,,,,,,,blue,square
0.0,5.0,1.0,1.0,5.0,5.0,300.3767109998989,1.0,1.0,phase_2,go,350.0,250.0,1.0,,,,,,,,,blue,square
0.0,8.0,4.0,1.0,5.0,0.0,0.0,1.0,1.0,phase_2,stop,350.0,250.0,4.0,,,,,,,,,orange,triangle
0.0,3.0,3.0,0.0,6.0,6.0,599.8483489997852,1.0,1.0,phase_2,go,400.0,250.0,1.0,,,,,,,,,gray,circle
0.0,2.0,2.0,0.0,5.0,5.0,824.5950000000448,1.0,1.0,phase_2,go,400.0,250.0,1.0,,,,,,,,,cyan,flipped triangle
0.0,7.0,3.0,1.0,6.0,0.0,0.0,1.0,1.0,phase_2,stop,400.0,250.0,4.0,,,,,,,,,white,hexagon
0.0,4.0,4.0,0.0,5.0,5.0,590.9005819999038,1.0,1.0,phase_2,go,400.0,300.0,1.0,,,,,,,,,magenta,diamond
0.0,1.0,1.0,0.0,5.0,5.0,542.2903490002682,1.0,1.0,phase_2,go,400.0,300.0,1.0,,,,,,,,,green,cross
0.0,7.0,3.0,1.0,6.0,0.0,0.0,1.0,1.0,phase_2,stop,400.0,300.0,4.0,,,,,,,,,white,hexagon
0.0,4.0,4.0,0.0,6.0,6.0,688.9691749997837,1.0,1.0,phase_2,go,400.0,350.0,1.0,,,,,,,,,magenta,diamond
0.0,7.0,3.0,1.0,5.0,0.0,0.0,1.0,1.0,phase_2,stop,400.0,350.0,4.0,,,,,,,,,white,hexagon
0.0,4.0,4.0,0.0,5.0,5.0,509.05566499977795,1.0,1.0,phase_2,go,450.0,350.0,1.0,,,,,,,,,magenta,diamond
0.0,1.0,1.0,0.0,5.0,5.0,494.1878609997729,1.0,1.0,phase_2,go,450.0,350.0,1.0,,,,,,,,,green,cross
0.0,3.0,3.0,0.0,6.0,6.0,361.1828650000461,1.0,1.0,phase_2,go,450.0,350.0,1.0,,,,,,,,,gray,circle
0.0,2.0,2.0,0.0,5.0,5.0,491.4896649997899,1.0,1.0,phase_2,go,450.0,350.0,1.0,,,,,,,,,cyan,flipped triangle
0.0,6.0,2.0,1.0,6.0,6.0,338.7556819998281,1.0,1.0,phase_2,stop,450.0,350.0,3.0,,,,,,,,,yellow,I
0.0,7.0,3.0,1.0,6.0,6.0,746.7140010003277,1.0,1.0,phase_2,go,450.0,300.0,1.0,,,,,,,,,white,hexagon
0.0,4.0,4.0,0.0,6.0,6.0,453.0972790003034,1.0,1.0,phase_2,go,450.0,300.0,1.0,,,,,,,,,magenta,diamond
0.0,7.0,3.0,1.0,5.0,5.0,510.43094700025904,1.0,1.0,phase_2,go,450.0,300.0,1.0,,,,,,,,,white,hexagon
0.0,5.0,1.0,1.0,6.0,0.0,0.0,1.0,1.0,phase_2,stop,450.0,300.0,4.0,,,,,,,,,blue,square
0.0,5.0,1.0,1.0,6.0,6.0,464.8309770000196,1.0,1.0,phase_2,stop,450.0,350.0,3.0,,,,,,,,,blue,square
0.0,3.0,3.0,0.0,5.0,5.0,385.6941130002269,1.0,1.0,phase_2,go,450.0,300.0,1.0,,,,,,,,,gray,circle
0.0,8.0,4.0,1.0,5.0,5.0,573.3735000003435,1.0,1.0,phase_2,stop,450.0,300.0,3.0,,,,,,,,,orange,triangle
0.0,1.0,1.0,0.0,6.0,6.0,754.069096999956,1.0,1.0,phase_2,go,400.0,300.0,1.0,,,,,,,,,green,cross
0.0,6.0,2.0,1.0,6.0,6.0,857.7518629999759,1.0,1.0,phase_2,go,400.0,300.0,1.0,,,,,,,,,yellow,I
0.0,3.0,3.0,0.0,6.0,6.0,465.0647550001849,1.0,1.0,phase_2,go,400.0,300.0,1.0,,,,,,,,,gray,circle
0.0,2.0,2.0,0.0,6.0,6.0,639.6901990001425,1.0,1.0,phase_2,go,400.0,300.0,1.0,,,,,,,,,cyan,flipped triangle
0.0,6.0,2.0,1.0,5.0,5.0,570.7427890001782,1.0,1.0,phase_2,go,400.0,300.0,1.0,,,,,,,,,yellow,I
0.0,1.0,1.0,0.0,6.0,6.0,414.1856259998349,1.0,1.0,phase_2,go,400.0,300.0,1.0,,,,,,,,,green,cross
0.0,5.0,1.0,1.0,5.0,0.0,0.0,1.0,1.0,phase_2,stop,400.0,300.0,4.0,,,,,,,,,blue,square
0.0,2.0,2.0,0.0,6.0,6.0,827.6394229997095,1.0,1.0,phase_2,go,450.0,300.0,1.0,,,,,,,,,cyan,flipped triangle
0.0,4.0,4.0,0.0,6.0,6.0,756.1271569998098,1.0,1.0,phase_2,go,450.0,300.0,1.0,,,,,,,,,magenta,diamond
0.0,1.0,1.0,0.0,6.0,6.0,487.5276729999314,1.0,1.0,phase_2,go,450.0,300.0,1.0,,,,,,,,,green,cross
0.0,8.0,4.0,1.0,5.0,5.0,382.1146069999486,2.0,1.0,phase_2,stop,450.0,300.0,3.0,,,,,,,,,orange,triangle
0.0,2.0,2.0,0.0,6.0,6.0,604.9725670000043,2.0,1.0,phase_2,go,400.0,300.0,1.0,,,,,,,,,cyan,flipped triangle
0.0,1.0,1.0,0.0,6.0,6.0,538.6484690002362,2.0,1.0,phase_2,go,400.0,300.0,1.0,,,,,,,,,green,cross
0.0,4.0,4.0,0.0,6.0,6.0,545.4975060001743,2.0,1.0,phase_2,go,400.0,300.0,1.0,,,,,,,,,magenta,diamond
0.0,5.0,1.0,1.0,6.0,6.0,636.0679340000388,2.0,1.0,phase_2,go,400.0,300.0,1.0,,,,,,,,,blue,square
0.0,5.0,1.0,1.0,6.0,0.0,0.0,2.0,1.0,phase_2,stop,400.0,300.0,4.0,,,,,,,,,blue,square
0.0,6.0,2.0,1.0,6.0,0.0,0.0,2.0,1.0,phase_2,stop,400.0,350.0,4.0,,,,,,,,,yellow,I
0.0,4.0,4.0,0.0,5.0,5.0,504.44960699996955,2.0,1.0,phase_2,go,400.0,400.0,1.0,,,,,,,,,magenta,diamond
0.0,7.0,3.0,1.0,6.0,0.0,0.0,2.0,1.0,phase_2,stop,400.0,400.0,4.0,,,,,,,,,white,hexagon
0.0,2.0,2.0,0.0,6.0,6.0,614.8812860001271,2.0,1.0,phase_2,go,400.0,450.0,1.0,,,,,,,,,cyan,flipped triangle
0.0,4.0,4.0,0.0,5.0,5.0,605.6090319998475,2.0,1.0,phase_2,go,400.0,450.0,1.0,,,,,,,,,magenta,diamond
0.0,6.0,2.0,1.0,5.0,0.0,0.0,2.0,1.0,phase_2,stop,400.0,450.0,4.0,,,,,,,,,yellow,I
0.0,5.0,1.0,1.0,5.0,0.0,0.0,2.0,1.0,phase_2,stop,450.0,450.0,4.0,,,,,,,,,blue,square
0.0,6.0,2.0,1.0,6.0,6.0,482.418418999714,2.0,1.0,phase_2,stop,500.0,450.0,3.0,,,,,,,,,yellow,I
0.0,4.0,4.0,0.0,6.0,6.0,863.1039219999366,2.0,1.0,phase_2,go,500.0,400.0,1.0,,,,,,,,,magenta,diamond
0.0,6.0,2.0,1.0,6.0,0.0,0.0,2.0,1.0,phase_2,stop,500.0,400.0,4.0,,,,,,,,,yellow,I
0.0,5.0,1.0,1.0,5.0,0.0,0.0,2.0,1.0,phase_2,stop,500.0,450.0,4.0,,,,,,,,,blue,square
0.0,8.0,4.0,1.0,5.0,5.0,637.6692339999863,2.0,1.0,phase_2,go,550.0,450.0,1.0,,,,,,,,,orange,triangle
0.0,7.0,3.0,1.0,5.0,5.0,971.0513219997664,2.0,1.0,phase_2,go,550.0,450.0,1.0,,,,,,,,,white,hexagon
0.0,1.0,1.0,0.0,5.0,5.0,768.26210299987,2.0,1.0,phase_2,go,550.0,450.0,1.0,,,,,,,,,green,cross
0.0,1.0,1.0,0.0,5.0,5.0,724.4769200001429,2.0,1.0,phase_2,go,550.0,450.0,1.0,,,,,,,,,green,cross
0.0,6.0,2.0,1.0,6.0,0.0,0.0,2.0,1.0,phase_2,stop,550.0,450.0,4.0,,,,,,,,,yellow,I
0.0,5.0,1.0,1.0,5.0,0.0,0.0,2.0,1.0,phase_2,stop,550.0,500.0,4.0,,,,,,,,,blue,square
0.0,2.0,2.0,0.0,6.0,6.0,744.6658849999039,2.0,1.0,phase_2,go,600.0,500.0,1.0,,,,,,,,,cyan,flipped triangle
0.0,2.0,2.0,0.0,5.0,5.0,743.9812249999704,2.0,1.0,phase_2,go,600.0,500.0,1.0,,,,,,,,,cyan,flipped triangle
0.0,2.0,2.0,0.0,5.0,5.0,934.7062449996884,2.0,1.0,phase_2,go,600.0,500.0,1.0,,,,,,,,,cyan,flipped triangle
0.0,8.0,4.0,1.0,5.0,5.0,569.4711500000267,2.0,1.0,phase_2,stop,600.0,500.0,3.0,,,,,,,,,orange,triangle
0.0,1.0,1.0,0.0,5.0,5.0,766.3718799999515,2.0,1.0,phase_2,go,550.0,500.0,1.0,,,,,,,,,green,cross
0.0,5.0,1.0,1.0,5.0,5.0,1147.685735000323,2.0,1.0,phase_2,go,550.0,500.0,1.0,,,,,,,,,blue,square
0.0,4.0,4.0,0.0,5.0,5.0,745.0732590000371,2.0,1.0,phase_2,go,550.0,500.0,1.0,,,,,,,,,magenta,diamond
0.0,6.0,2.0,1.0,5.0,0.0,0.0,2.0,1.0,phase_2,stop,550.0,500.0,4.0,,,,,,,,,yellow,I
0.0,2.0,2.0,0.0,5.0,5.0,752.2428940001191,2.0,1.0,phase_2,go,600.0,500.0,1.0,,,,,,,,,cyan,flipped triangle
0.0,2.0,2.0,0.0,5.0,5.0,569.1998750003222,2.0,1.0,phase_2,go,600.0,500.0,1.0,,,,,,,,,cyan,flipped triangle
0.0,4.0,4.0,0.0,5.0,5.0,599.4797809999,2.0,1.0,phase_2,go,600.0,500.0,1.0,,,,,,,,,magenta,diamond
0.0,3.0,3.0,0.0,5.0,5.0,802.4820610003189,2.0,1.0,phase_2,go,600.0,500.0,1.0,,,,,,,,,gray,circle
0.0,3.0,3.0,0.0,5.0,5.0,803.2496330001777,2.0,1.0,phase_2,go,600.0,500.0,1.0,,,,,,,,,gray,circle
0.0,7.0,3.0,1.0,5.0,1.0,632.4128559999735,3.0,1.0,phase_2,stop,600.0,500.0,3.0,,,,,,,,,white,hexagon
0.0,8.0,4.0,1.0,6.0,2.0,495.5835499999921,3.0,1.0,phase_2,go,550.0,500.0,2.0,,,,,,,,,orange,triangle
0.0,6.0,2.0,1.0,5.0,5.0,848.9517319999322,3.0,1.0,phase_2,go,550.0,500.0,1.0,,,,,,,,,yellow,I
0.0,4.0,4.0,0.0,5.0,5.0,626.0814219999702,3.0,1.0,phase_2,go,550.0,500.0,1.0,,,,,,,,,magenta,diamond
0.0,3.0,3.0,0.0,5.0,5.0,298.9244890000009,3.0,1.0,phase_2,go,550.0,500.0,1.0,,,,,,,,,gray,circle
0.0,5.0,1.0,1.0,5.0,5.0,340.2423990000898,3.0,1.0,phase_2,stop,550.0,500.0,3.0,,,,,,,,,blue,square
0.0,4.0,4.0,0.0,6.0,6.0,534.8694300000716,3.0,1.0,phase_2,go,500.0,500.0,1.0,,,,,,,,,magenta,diamond
0.0,3.0,3.0,0.0,6.0,6.0,534.0370540002368,3.0,1.0,phase_2,go,500.0,500.0,1.0,,,,,,,,,gray,circle
0.0,8.0,4.0,1.0,6.0,6.0,541.3304899998366,3.0,1.0,phase_2,stop,500.0,500.0,3.0,,,,,,,,,orange,triangle
0.0,4.0,4.0,0.0,5.0,5.0,590.7371829998738,3.0,1.0,phase_2,go,500.0,450.0,1.0,,,,,,,,,magenta,diamond
0.0,1.0,1.0,0.0,6.0,6.0,603.9935709995916,3.0,1.0,phase_2,go,500.0,450.0,1.0,,,,,,,,,green,cross
0.0,5.0,1.0,1.0,5.0,0.0,0.0,3.0,1.0,phase_2,stop,500.0,450.0,4.0,,,,,,,,,blue,square
0.0,7.0,3.0,1.0,5.0,0.0,0.0,3.0,1.0,phase_2,stop,550.0,450.0,4.0,,,,,,,,,white,hexagon
0.0,8.0,4.0,1.0,5.0,5.0,751.9209510001019,3.0,1.0,phase_2,stop,600.0,450.0,3.0,,,,,,,,,orange,triangle
0.0,5.0,1.0,1.0,5.0,5.0,1112.7863960000468,3.0,1.0,phase_2,go,550.0,450.0,1.0,,,,,,,,,blue,square
0.0,7.0,3.0,1.0,5.0,0.0,0.0,3.0,1.0,phase_2,stop,550.0,450.0,4.0,,,,,,,,,white,hexagon
0.0,5.0,1.0,1.0,6.0,0.0,0.0,3.0,1.0,phase_2,stop,600.0,450.0,4.0,,,,,,,,,blue,square
0.0,2.0,2.0,0.0,6.0,6.0,810.8503319999727,3.0,1.0,phase_2,go,600.0,500.0,1.0,,,,,,,,,cyan,flipped triangle
0.0,5.0,1.0,1.0,6.0,0.0,0.0,3.0,1.0,phase_2,stop,600.0,500.0,4.0,,,,,,,,,blue,square
0.0,7.0,3.0,1.0,5.0,5.0,880.3850039998906,3.0,1.0,phase_2,go,600.0,550.0,1.0,,,,,,,,,white,hexagon
0.0,3.0,3.0,0.0,6.0,6.0,675.8235749998676,3.0,1.0,phase_2,go,600.0,550.0,1.0,,,,,,,,,gray,circle
0.0,2.0,2.0,0.0,5.0,5.0,771.9548209997811,3.0,1.0,phase_2,go,600.0,550.0,1.0,,,,,,,,,cyan,flipped triangle
0.0,4.0,4.0,0.0,5.0,5.0,621.4230550003776,3.0,1.0,phase_2,go,600.0,550.0,1.0,,,,,,,,,magenta,diamond
0.0,5.0,1.0,1.0,6.0,6.0,377.8207919999659,3.0,1.0,phase_2,stop,600.0,550.0,3.0,,,,,,,,,blue,square
0.0,2.0,2.0,0.0,6.0,6.0,800.8935349998865,3.0,1.0,phase_2,go,600.0,500.0,1.0,,,,,,,,,cyan,flipped triangle
0.0,1.0,1.0,0.0,5.0,5.0,769.6976789998189,3.0,1.0,phase_2,go,600.0,500.0,1.0,,,,,,,,,green,cross
0.0,6.0,2.0,1.0,6.0,6.0,279.6005809996131,3.0,1.0,phase_2,stop,600.0,500.0,3.0,,,,,,,,,yellow,I
0.0,5.0,1.0,1.0,5.0,5.0,695.342736999919,3.0,1.0,phase_2,stop,600.0,450.0,3.0,,,,,,,,,blue,square
0.0,6.0,2.0,1.0,6.0,0.0,0.0,3.0,1.0,phase_2,stop,550.0,450.0,4.0,,,,,,,,,yellow,I
0.0,8.0,4.0,1.0,5.0,5.0,766.0442900000817,3.0,1.0,phase_2,go,550.0,500.0,1.0,,,,,,,,,orange,triangle
0.0,8.0,4.0,1.0,5.0,0.0,0.0,3.0,1.0,phase_2,stop,550.0,500.0,4.0,,,,,,,,,orange,triangle
0.0,3.0,3.0,0.0,6.0,6.0,852.6634539998668,3.0,1.0,phase_2,go,600.0,500.0,1.0,,,,,,,,,gray,circle
0.0,5.0,1.0,1.0,5.0,5.0,919.5372120002504,3.0,1.0,phase_2,go,600.0,500.0,1.0,,,,,,,,,blue,square
0.0,1.0,1.0,0.0,6.0,6.0,631.4877910003815,3.0,1.0,phase_2,go,600.0,500.0,1.0,,,,,,,,,green,cross
0.0,4.0,4.0,0.0,6.0,6.0,677.5309889999335,3.0,1.0,phase_2,go,600.0,500.0,1.0,,,,,,,,,magenta,diamond
0.0,5.0,1.0,1.0,6.0,0.0,0.0,3.0,1.0,phase_2,stop,600.0,500.0,4.0,,,,,,,,,blue,square
0.0,3.0,3.0,0.0,5.0,5.0,386.3070950001201,4.0,1.0,phase_2,go,600.0,550.0,1.0,,,,,,,,,gray,circle
0.0,2.0,2.0,0.0,5.0,5.0,678.00693900017,4.0,1.0,phase_2,go,600.0,550.0,1.0,,,,,,,,,cyan,flipped triangle
0.0,2.0,2.0,0.0,6.0,6.0,293.7348720001864,4.0,1.0,phase_2,go,600.0,550.0,1.0,,,,,,,,,cyan,flipped triangle
0.0,8.0,4.0,1.0,5.0,5.0,577.3624849998669,4.0,1.0,phase_2,go,600.0,550.0,1.0,,,,,,,,,orange,triangle
0.0,4.0,4.0,0.0,6.0,6.0,714.6313739999641,4.0,1.0,phase_2,go,600.0,550.0,1.0,,,,,,,,,magenta,diamond
0.0,6.0,2.0,1.0,6.0,6.0,479.6301100000164,4.0,1.0,phase_2,go,600.0,550.0,1.0,,,,,,,,,yellow,I
0.0,3.0,3.0,0.0,5.0,5.0,581.8060199999309,4.0,1.0,phase_2,go,600.0,550.0,1.0,,,,,,,,,gray,circle
0.0,7.0,3.0,1.0,5.0,5.0,549.6829660000913,4.0,1.0,phase_2,stop,600.0,550.0,3.0,,,,,,,,,white,hexagon
0.0,1.0,1.0,0.0,6.0,6.0,514.885865999986,4.0,1.0,phase_2,go,550.0,550.0,1.0,,,,,,,,,green,cross
0.0,7.0,3.0,1.0,6.0,6.0,523.9827539999169,4.0,1.0,phase_2,stop,550.0,550.0,3.0,,,,,,,,,white,hexagon
0.0,8.0,4.0,1.0,5.0,5.0,497.6267500001086,4.0,1.0,phase_2,go,550.0,500.0,1.0,,,,,,,,,orange,triangle
0.0,2.0,2.0,0.0,6.0,6.0,600.9391689999575,4.0,1.0,phase_2,go,550.0,500.0,1.0,,,,,,,,,cyan,flipped triangle
0.0,4.0,4.0,0.0,6.0,6.0,697.0628539997961,4.0,1.0,phase_2,go,550.0,500.0,1.0,,,,,,,,,magenta,diamond
0.0,2.0,2.0,0.0,6.0,6.0,612.2633180002595,4.0,1.0,phase_2,go,550.0,500.0,1.0,,,,,,,,,cyan,flipped triangle
0.0,1.0,1.0,0.0,6.0,6.0,417.4557209998966,4.0,1.0,phase_2,go,550.0,500.0,1.0,,,,,,,,,green,cross
0.0,7.0,3.0,1.0,5.0,5.0,509.1372259998934,4.0,1.0,phase_2,stop,550.0,500.0,3.0,,,,,,,,,white,hexagon
0.0,1.0,1.0,0.0,5.0,5.0,803.3735680000973,4.0,1.0,phase_2,go,500.0,500.0,1.0,,,,,,,,,green,cross
0.0,1.0,1.0,0.0,6.0,6.0,728.9186719999634,4.0,1.0,phase_2,go,500.0,500.0,1.0,,,,,,,,,green,cross
0.0,7.0,3.0,1.0,6.0,6.0,650.3545770001438,4.0,1.0,phase_2,go,500.0,500.0,1.0,,,,,,,,,white,hexagon
0.0,5.0,1.0,1.0,6.0,6.0,587.4732530000983,4.0,1.0,phase_2,stop,500.0,500.0,3.0,,,,,,,,,blue,square
0.0,5.0,1.0,1.0,5.0,0.0,0.0,4.0,1.0,phase_2,stop,500.0,450.0,4.0,,,,,,,,,blue,square
0.0,4.0,4.0,0.0,6.0,6.0,879.8039540006357,4.0,1.0,phase_2,go,550.0,450.0,1.0,,,,,,,,,magenta,diamond
0.0,3.0,3.0,0.0,6.0,6.0,713.9436220004427,4.0,1.0,phase_2,go,550.0,450.0,1.0,,,,,,,,,gray,circle
0.0,6.0,2.0,1.0,5.0,0.0,0.0,4.0,1.0,phase_2,stop,550.0,450.0,4.0,,,,,,,,,yellow,I
0.0,2.0,2.0,0.0,5.0,5.0,834.5815919992674,4.0,1.0,phase_2,go,600.0,450.0,1.0,,,,,,,,,cyan,flipped triangle
0.0,1.0,1.0,0.0,5.0,5.0,790.8661780002149,4.0,1.0,phase_2,go,600.0,450.0,1.0,,,,,,,,,green,cross
0.0,8.0,4.0,1.0,5.0,5.0,539.7718789999999,4.0,1.0,phase_2,stop,600.0,450.0,3.0,,,,,,,,,orange,triangle
0.0,6.0,2.0,1.0,5.0,5.0,631.9157679999989,4.0,1.0,phase_2,stop,550.0,450.0,3.0,,,,,,,,,yellow,I
0.0,6.0,2.0,1.0,6.0,6.0,525.9220610005286,4.0,1.0,phase_2,stop,500.0,450.0,3.0,,,,,,,,,yellow,I
0.0,2.0,2.0,0.0,5.0,5.0,750.5588849999185,4.0,1.0,phase_2,go,500.0,400.0,1.0,,,,,,,,,cyan,flipped triangle
0.0,8.0,4.0,1.0,5.0,0.0,0.0,4.0,1.0,phase_2,stop,500.0,400.0,4.0,,,,,,,,,orange,triangle
0.0,3.0,3.0,0.0,6.0,6.0,596.2126069998703,4.0,1.0,phase_2,go,550.0,400.0,1.0,,,,,,,,,gray,circle
0.0,3.0,3.0,0.0,6.0,6.0,947.447395999916,4.0,1.0,phase_2,go,550.0,400.0,1.0,,,,,,,,,gray,circle
0.0,8.0,4.0,1.0,6.0,6.0,363.2652030000827,4.0,1.0,phase_2,stop,550.0,400.0,3.0,,,,,,,,,orange,triangle
0.0,8.0,4.0,1.0,6.0,6.0,710.2322639993872,4.0,1.0,phase_2,go,550.0,350.0,1.0,,,,,,,,,orange,triangle
0.0,4.0,4.0,0.0,5.0,5.0,608.4411120000368,4.0,1.0,phase_2,go,550.0,350.0,1.0,,,,,,,,,magenta,diamond
0.0,8.0,4.0,1.0,6.0,6.0,382.7179830004752,5.0,1.0,phase_2,stop,550.0,350.0,3.0,,,,,,,,,orange,triangle
0.0,1.0,1.0,0.0,6.0,6.0,642.3139219996301,5.0,1.0,phase_2,go,550.0,300.0,1.0,,,,,,,,,green,cross
0.0,3.0,3.0,0.0,5.0,5.0,633.1724920000852,5.0,1.0,phase_2,go,550.0,300.0,1.0,,,,,,,,,gray,circle
0.0,5.0,1.0,1.0,6.0,0.0,0.0,5.0,1.0,phase_2,stop,550.0,300.0,4.0,,,,,,,,,blue,square
0.0,3.0,3.0,0.0,6.0,6.0,601.1705710006936,5.0,1.0,phase_2,go,550.0,350.0,1.0,,,,,,,,,gray,circle
0.0,6.0,2.0,1.0,5.0,5.0,620.876132000376,5.0,1.0,phase_2,stop,550.0,350.0,3.0,,,,,,,,,yellow,I
0.0,1.0,1.0,0.0,6.0,6.0,865.9998819994144,5.0,1.0,phase_2,go,500.0,350.0,1.0,,,,,,,,,green,cross
0.0,2.0,2.0,0.0,6.0,6.0,680.6845189994419,5.0,1.0,phase_2,go,500.0,350.0,1.0,,,,,,,,,cyan,flipped triangle
0.0,2.0,2.0,0.0,5.0,5.0,895.1524579997567,5.0,1.0,phase_2,go,500.0,350.0,1.0,,,,,,,,,cyan,flipped triangle
0.0,2.0,2.0,0.0,5.0,5.0,764.8282380005185,5.0,1.0,phase_2,go,500.0,350.0,1.0,,,,,,,,,cyan,flipped triangle
0.0,3.0,3.0,0.0,5.0,5.0,518.7511980002455,5.0,1.0,phase_2,go,500.0,350.0,1.0,,,,,,,,,gray,circle
0.0,1.0,1.0,0.0,5.0,5.0,605.396115000076,5.0,1.0,phase_2,go,500.0,350.0,1.0,,,,,,,,,green,cross
0.0,8.0,4.0,1.0,6.0,0.0,0.0,5.0,1.0,phase_2,stop,500.0,350.0,4.0,,,,,,,,,orange,triangle
0.0,7.0,3.0,1.0,5.0,0.0,0.0,5.0,1.0,phase_2,stop,500.0,400.0,4.0,,,,,,,,,white,hexagon
0.0,7.0,3.0,1.0,6.0,6.0,1134.872078000626,5.0,1.0,phase_2,go,550.0,400.0,1.0,,,,,,,,,white,hexagon
0.0,8.0,4.0,1.0,6.0,0.0,0.0,5.0,1.0,phase_2,stop,550.0,400.0,4.0,,,,,,,,,orange,triangle
0.0,4.0,4.0,0.0,5.0,5.0,842.0179110007666,5.0,1.0,phase_2,go,550.0,450.0,1.0,,,,,,,,,magenta,diamond
0.0,4.0,4.0,0.0,6.0,6.0,973.6224349999248,5.0,1.0,phase_2,go,550.0,450.0,1.0,,,,,,,,,magenta,diamond
0.0,8.0,4.0,1.0,6.0,0.0,0.0,5.0,1.0,phase_2,stop,550.0,450.0,4.0,,,,,,,,,orange,triangle
0.0,6.0,2.0,1.0,6.0,6.0,584.1277089994037,5.0,1.0,phase_2,stop,550.0,500.0,3.0,,,,,,,,,yellow,I
0.0,6.0,2.0,1.0,6.0,0.0,0.0,5.0,1.0,phase_2,stop,550.0,450.0,4.0,,,,,,,,,yellow,I
0.0,4.0,4.0,0.0,6.0,6.0,778.8568750002014,5.0,1.0,phase_2,go,550.0,500.0,1.0,,,,,,,,,magenta,diamond
0.0,4.0,4.0,0.0,5.0,5.0,845.7626380004513,5.0,1.0,phase_2,go,550.0,500.0,1.0,,,,,,,,,magenta,diamond
0.0,1.0,1.0,0.0,5.0,5.0,810.8333769996534,5.0,1.0,phase_2,go,550.0,500.0,1.0,,,,,,,,,green,cross
0.0,4.0,4.0,0.0,6.0,6.0,672.0002780002687,5.0,1.0,phase_2,go,550.0,500.0,1.0,,,,,,,,,magenta,diamond
0.0,7.0,3.0,1.0,5.0,5.0,493.9388049997433,5.0,1.0,phase_2,stop,550.0,500.0,3.0,,,,,,,,,white,hexagon
0.0,1.0,1.0,0.0,6.0,6.0,709.3514910002341,5.0,1.0,phase_2,go,500.0,500.0,1.0,,,,,,,,,green,cross
0.0,4.0,4.0,0.0,5.0,5.0,521.5570659993318,5.0,1.0,phase_2,go,500.0,500.0,1.0,,,,,,,,,magenta,diamond
0.0,6.0,2.0,1.0,5.0,0.0,0.0,5.0,1.0,phase_2,stop,500.0,500.0,4.0,,,,,,,,,yellow,I
0.0,5.0,1.0,1.0,6.0,0.0,0.0,5.0,1.0,phase_2,stop,550.0,500.0,4.0,,,,,,,,,blue,square
0.0,1.0,1.0,0.0,5.0,5.0,443.2942659996115,5.0,1.0,phase_2,go,550.0,550.0,1.0,,,,,,,,,green,cross
0.0,4.0,4.0,0.0,5.0,5.0,568.6283779996302,5.0,1.0,phase_2,go,550.0,550.0,1.0,,,,,,,,,magenta,diamond
0.0,1.0,1.0,0.0,6.0,6.0,515.0008929995238,5.0,1.0,phase_2,go,550.0,550.0,1.0,,,,,,,,,green,cross
0.0,7.0,3.0,1.0,5.0,5.0,477.4272750000818,5.0,1.0,phase_2,stop,550.0,550.0,3.0,,,,,,,,,white,hexagon
0.0,6.0,2.0,1.0,6.0,6.0,625.8165520002876,5.0,1.0,phase_2,go,500.0,550.0,1.0,,,,,,,,,yellow,I
0.0,8.0,4.0,1.0,5.0,5.0,643.1956140004331,5.0,1.0,phase_2,stop,500.0,550.0,3.0,,,,,,,,,orange,triangle
0.0,3.0,3.0,0.0,6.0,6.0,544.123173999651,6.0,1.0,phase_2,go,450.0,550.0,1.0,,,,,,,,,gray,circle
0.0,2.0,2.0,0.0,5.0,5.0,216.8380009998145,6.0,1.0,phase_2,go,450.0,550.0,1.0,,,,,,,,,cyan,flipped triangle
0.0,8.0,4.0,1.0,6.0,6.0,350.3142940007819,6.0,1.0,phase_2,stop,450.0,550.0,3.0,,,,,,,,,orange,triangle
0.0,5.0,1.0,1.0,6.0,6.0,486.4697920002072,6.0,1.0,phase_2,stop,450.0,500.0,3.0,,,,,,,,,blue,square
0.0,7.0,3.0,1.0,6.0,6.0,447.645609000574,6.0,1.0,phase_2,go,450.0,450.0,1.0,,,,,,,,,white,hexagon
0.0,8.0,4.0,1.0,6.0,0.0,0.0,6.0,1.0,phase_2,stop,450.0,450.0,4.0,,,,,,,,,orange,triangle
0.0,2.0,2.0,0.0,6.0,6.0,874.6492989994294,6.0,1.0,phase_2,go,450.0,500.0,1.0,,,,,,,,,cyan,flipped triangle
0.0,7.0,3.0,1.0,5.0,0.0,0.0,6.0,1.0,phase_2,stop,450.0,500.0,4.0,,,,,,,,,white,hexagon
0.0,2.0,2.0,0.0,6.0,6.0,779.0192780003053,6.0,1.0,phase_2,go,500.0,500.0,1.0,,,,,,,,,cyan,flipped triangle
0.0,7.0,3.0,1.0,5.0,5.0,456.4145079993977,6.0,1.0,phase_2,stop,500.0,500.0,3.0,,,,,,,,,white,hexagon
0.0,5.0,1.0,1.0,5.0,0.0,0.0,6.0,1.0,phase_2,stop,450.0,500.0,4.0,,,,,,,,,blue,square
0.0,2.0,2.0,0.0,6.0,6.0,593.207056999745,6.0,1.0,phase_2,go,500.0,500.0,1.0,,,,,,,,,cyan,flipped triangle
0.0,3.0,3.0,0.0,5.0,5.0,718.4441069994136,6.0,1.0,phase_2,go,500.0,500.0,1.0,,,,,,,,,gray,circle
0.0,6.0,2.0,1.0,6.0,6.0,685.8256440000332,6.0,1.0,phase_2,stop,500.0,500.0,3.0,,,,,,,,,yellow,I
0.0,3.0,3.0,0.0,6.0,6.0,722.1835029995418,6.0,1.0,phase_2,go,500.0,450.0,1.0,,,,,,,,,gray,circle
0.0,5.0,1.0,1.0,6.0,0.0,0.0,6.0,1.0,phase_2,stop,500.0,450.0,4.0,,,,,,,,,blue,square
0.0,1.0,1.0,0.0,5.0,5.0,662.5353319996066,6.0,1.0,phase_2,go,500.0,500.0,1.0,,,,,,,,,green,cross
0.0,1.0,1.0,0.0,6.0,6.0,748.7956550003219,6.0,1.0,phase_2,go,500.0,500.0,1.0,,,,,,,,,green,cross
0.0,6.0,2.0,1.0,5.0,5.0,666.4159609999842,6.0,1.0,phase_2,go,500.0,500.0,1.0,,,,,,,,,yellow,I
0.0,6.0,2.0,1.0,5.0,0.0,0.0,6.0,1.0,phase_2,stop,500.0,500.0,4.0,,,,,,,,,yellow,I
0.0,7.0,3.0,1.0,6.0,0.0,0.0,6.0,1.0,phase_2,stop,550.0,500.0,4.0,,,,,,,,,white,hexagon
0.0,2.0,2.0,0.0,5.0,5.0,919.896979999976,6.0,1.0,phase_2,go,550.0,550.0,1.0,,,,,,,,,cyan,flipped triangle
0.0,3.0,3.0,0.0,6.0,6.0,582.9790469997533,6.0,1.0,phase_2,go,550.0,550.0,1.0,,,,,,,,,gray,circle
0.0,4.0,4.0,0.0,5.0,5.0,865.3942190003363,6.0,1.0,phase_2,go,550.0,550.0,1.0,,,,,,,,,magenta,diamond
0.0,2.0,2.0,0.0,6.0,6.0,639.5761080002558,6.0,1.0,phase_2,go,550.0,550.0,1.0,,,,,,,,,cyan,flipped triangle
0.0,4.0,4.0,0.0,5.0,5.0,510.5584129996714,6.0,1.0,phase_2,go,550.0,550.0,1.0,,,,,,,,,magenta,diamond
0.0,7.0,3.0,1.0,6.0,6.0,292.7504109993606,6.0,1.0,phase_2,stop,550.0,550.0,3.0,,,,,,,,,white,hexagon
0.0,6.0,2.0,1.0,6.0,0.0,0.0,6.0,1.0,phase_2,stop,550.0,500.0,4.0,,,,,,,,,yellow,I
0.0,6.0,2.0,1.0,5.0,5.0,420.9518990001015,6.0,1.0,phase_2,stop,550.0,550.0,3.0,,,,,,,,,yellow,I
0.0,2.0,2.0,0.0,6.0,6.0,536.8393310000101,6.0,1.0,phase_2,go,500.0,550.0,1.0,,,,,,,,,cyan,flipped triangle
0.0,4.0,4.0,0.0,6.0,6.0,709.6890250004435,6.0,1.0,phase_2,go,500.0,550.0,1.0,,,,,,,,,magenta,diamond
0.0,1.0,1.0,0.0,5.0,5.0,637.8410270008317,6.0,1.0,phase_2,go,500.0,550.0,1.0,,,,,,,,,green,cross
0.0,5.0,1.0,1.0,6.0,6.0,653.1365309992907,6.0,1.0,phase_2,go,500.0,550.0,1.0,,,,,,,,,blue,square
0.0,7.0,3.0,1.0,6.0,0.0,0.0,6.0,1.0,phase_2,stop,500.0,550.0,4.0,,,,,,,,,white,hexagon
0.0,7.0,3.0,1.0,6.0,6.0,624.9618480005665,6.0,1.0,phase_2,go,500.0,600.0,1.0,,,,,,,,,white,hexagon
0.0,3.0,3.0,0.0,5.0,5.0,324.3862159997661,6.0,1.0,phase_2,go,500.0,600.0,1.0,,,,,,,,,gray,circle
0.0,3.0,3.0,0.0,5.0,5.0,413.3924799998567,7.0,1.0,phase_2,go,500.0,600.0,1.0,,,,,,,,,gray,circle
0.0,2.0,2.0,0.0,5.0,5.0,374.0730169993185,7.0,1.0,phase_2,go,500.0,600.0,1.0,,,,,,,,,cyan,flipped triangle
0.0,1.0,1.0,0.0,6.0,6.0,710.5564580006103,7.0,1.0,phase_2,go,500.0,600.0,1.0,,,,,,,,,green,cross
0.0,6.0,2.0,1.0,5.0,5.0,602.8274939999392,7.0,1.0,phase_2,stop,500.0,600.0,3.0,,,,,,,,,yellow,I
0.0,4.0,4.0,0.0,5.0,5.0,774.6714099994279,7.0,1.0,phase_2,go,450.0,600.0,1.0,,,,,,,,,magenta,diamond
0.0,7.0,3.0,1.0,5.0,0.0,0.0,7.0,1.0,phase_2,stop,450.0,600.0,4.0,,,,,,,,,white,hexagon
0.0,1.0,1.0,0.0,5.0,5.0,796.0116280000875,7.0,1.0,phase_2,go,500.0,600.0,1.0,,,,,,,,,green,cross
0.0,1.0,1.0,0.0,5.0,5.0,714.2145319994597,7.0,1.0,phase_2,go,500.0,600.0,1.0,,,,,,,,,green,cross
0.0,2.0,2.0,0.0,5.0,5.0,680.9453810001287,7.0,1.0,phase_2,go,500.0,600.0,1.0,,,,,,,,,cyan,flipped triangle
0.0,4.0,4.0,0.0,6.0,6.0,686.3612500001182,7.0,1.0,phase_2,go,500.0,600.0,1.0,,,,,,,,,magenta,diamond
0.0,3.0,3.0,0.0,5.0,5.0,686.8686899997556,7.0,1.0,phase_2,go,500.0,600.0,1.0,,,,,,,,,gray,circle
0.0,6.0,2.0,1.0,6.0,6.0,685.5433690006976,7.0,1.0,phase_2,stop,500.0,600.0,3.0,,,,,,,,,yellow,I
0.0,8.0,4.0,1.0,6.0,0.0,0.0,7.0,1.0,phase_2,stop,500.0,550.0,4.0,,,,,,,,,orange,triangle
0.0,1.0,1.0,0.0,5.0,5.0,757.0581190002486,7.0,1.0,phase_2,go,500.0,600.0,1.0,,,,,,,,,green,cross
0.0,4.0,4.0,0.0,6.0,6.0,553.4538199999588,7.0,1.0,phase_2,go,500.0,600.0,1.0,,,,,,,,,magenta,diamond
0.0,3.0,3.0,0.0,6.0,6.0,679.8161239994442,7.0,1.0,phase_2,go,500.0,600.0,1.0,,,,,,,,,gray,circle
0.0,5.0,1.0,1.0,5.0,5.0,639.3938030005302,7.0,1.0,phase_2,go,500.0,600.0,1.0,,,,,,,,,blue,square
0.0,6.0,2.0,1.0,5.0,0.0,0.0,7.0,1.0,phase_2,stop,500.0,600.0,4.0,,,,,,,,,yellow,I
0.0,2.0,2.0,0.0,6.0,6.0,599.9966620001942,7.0,1.0,phase_2,go,550.0,600.0,1.0,,,,,,,,,cyan,flipped triangle
0.0,2.0,2.0,0.0,5.0,5.0,644.132473999889,7.0,1.0,phase_2,go,550.0,600.0,1.0,,,,,,,,,cyan,flipped triangle
0.0,1.0,1.0,0.0,5.0,5.0,881.5352129995517,7.0,1.0,phase_2,go,550.0,600.0,1.0,,,,,,,,,green,cross
0.0,8.0,4.0,1.0,5.0,0.0,0.0,7.0,1.0,phase_2,stop,550.0,600.0,4.0,,,,,,,,,orange,triangle
0.0,6.0,2.0,1.0,5.0,5.0,695.8101469999747,7.0,1.0,phase_2,stop,600.0,600.0,3.0,,,,,,,,,yellow,I
0.0,4.0,4.0,0.0,6.0,6.0,680.7804599993688,7.0,1.0,phase_2,go,550.0,600.0,1.0,,,,,,,,,magenta,diamond
0.0,6.0,2.0,1.0,6.0,6.0,698.716907000744,7.0,1.0,phase_2,go,550.0,600.0,1.0,,,,,,,,,yellow,I
0.0,1.0,1.0,0.0,6.0,6.0,687.8608890001487,7.0,1.0,phase_2,go,550.0,600.0,1.0,,,,,,,,,green,cross
0.0,5.0,1.0,1.0,6.0,0.0,0.0,7.0,1.0,phase_2,stop,550.0,600.0,4.0,,,,,,,,,blue,square
0.0,7.0,3.0,1.0,6.0,0.0,0.0,7.0,1.0,phase_2,stop,550.0,650.0,4.0,,,,,,,,,white,hexagon
0.0,8.0,4.0,1.0,6.0,6.0,786.8959439992977,7.0,1.0,phase_2,go,550.0,700.0,1.0,,,,,,,,,orange,triangle
0.0,8.0,4.0,1.0,6.0,6.0,849.6530050006186,7.0,1.0,phase_2,stop,550.0,700.0,3.0,,,,,,,,,orange,triangle
0.0,2.0,2.0,0.0,6.0,6.0,919.577499999832,7.0,1.0,phase_2,go,550.0,650.0,1.0,,,,,,,,,cyan,flipped triangle
0.0,5.0,1.0,1.0,6.0,6.0,733.4527650000382,7.0,1.0,phase_2,stop,550.0,650.0,3.0,,,,,,,,,blue,square
0.0,7.0,3.0,1.0,6.0,0.0,0.0,7.0,1.0,phase_2,stop,550.0,600.0,4.0,,,,,,,,,white,hexagon
0.0,3.0,3.0,0.0,5.0,5.0,817.8638130002582,7.0,1.0,phase_2,go,550.0,650.0,1.0,,,,,,,,,gray,circle
0.0,5.0,1.0,1.0,6.0,0.0,0.0,7.0,1.0,phase_2,stop,550.0,650.0,4.0,,,,,,,,,blue,square
0.0,1.0,1.0,0.0,6.0,6.0,868.318926000029,7.0,1.0,phase_2,go,550.0,700.0,1.0,,,,,,,,,green,cross
0.0,7.0,3.0,1.0,6.0,6.0,492.0224289999169,8.0,1.0,phase_2,stop,550.0,700.0,3.0,,,,,,,,,white,hexagon
0.0,7.0,3.0,1.0,5.0,5.0,631.054767999558,8.0,1.0,phase_2,go,550.0,650.0,1.0,,,,,,,,,white,hexagon
0.0,7.0,3.0,1.0,6.0,6.0,551.7052610002793,8.0,1.0,phase_2,stop,550.0,650.0,3.0,,,,,,,,,white,hexagon
0.0,8.0,4.0,1.0,5.0,0.0,0.0,8.0,1.0,phase_2,stop,550.0,600.0,4.0,,,,,,,,,orange,triangle
0.0,3.0,3.0,0.0,5.0,5.0,630.7829249999486,8.0,1.0,phase_2,go,600.0,600.0,1.0,,,,,,,,,gray,circle
0.0,5.0,1.0,1.0,5.0,5.0,640.3146060001745,8.0,1.0,phase_2,stop,600.0,600.0,3.0,,,,,,,,,blue,square
0.0,6.0,2.0,1.0,5.0,0.0,0.0,8.0,1.0,phase_2,stop,550.0,600.0,4.0,,,,,,,,,yellow,I
0.0,1.0,1.0,0.0,5.0,5.0,781.6053870001269,8.0,1.0,phase_2,go,600.0,600.0,1.0,,,,,,,,,green,cross
0.0,3.0,3.0,0.0,5.0,5.0,857.3757399999522,8.0,1.0,phase_2,go,600.0,600.0,1.0,,,,,,,,,gray,circle
0.0,3.0,3.0,0.0,5.0,5.0,574.7766759996011,8.0,1.0,phase_2,go,600.0,600.0,1.0,,,,,,,,,gray,circle
0.0,4.0,4.0,0.0,5.0,5.0,601.6573609995248,8.0,1.0,phase_2,go,600.0,600.0,1.0,,,,,,,,,magenta,diamond
0.0,7.0,3.0,1.0,5.0,0.0,0.0,8.0,1.0,phase_2,stop,600.0,600.0,4.0,,,,,,,,,white,hexagon
0.0,8.0,4.0,1.0,5.0,5.0,730.8599079997293,8.0,1.0,phase_2,stop,650.0,600.0,3.0,,,,,,,,,orange,triangle
0.0,5.0,1.0,1.0,5.0,5.0,1036.2656930001322,8.0,1.0,phase_2,go,600.0,600.0,1.0,,,,,,,,,blue,square
0.0,7.0,3.0,1.0,5.0,5.0,720.564433000618,8.0,1.0,phase_2,stop,600.0,600.0,3.0,,,,,,,,,white,hexagon
0.0,3.0,3.0,0.0,5.0,5.0,976.784014000259,8.0,1.0,phase_2,go,550.0,600.0,1.0,,,,,,,,,gray,circle
0.0,3.0,3.0,0.0,6.0,6.0,708.0354810004792,8.0,1.0,phase_2,go,550.0,600.0,1.0,,,,,,,,,gray,circle
0.0,7.0,3.0,1.0,6.0,6.0,705.5294729998423,8.0,1.0,phase_2,stop,550.0,600.0,3.0,,,,,,,,,white,hexagon
0.0,3.0,3.0,0.0,5.0,5.0,328.5152389998984,8.0,1.0,phase_2,go,550.0,550.0,1.0,,,,,,,,,gray,circle
0.0,8.0,4.0,1.0,5.0,5.0,922.227510999619,8.0,1.0,phase_2,go,550.0,550.0,1.0,,,,,,,,,orange,triangle
0.0,5.0,1.0,1.0,6.0,6.0,713.3828839996568,8.0,1.0,phase_2,go,550.0,550.0,1.0,,,,,,,,,blue,square
0.0,2.0,2.0,0.0,5.0,5.0,561.7556249999325,8.0,1.0,phase_2,go,550.0,550.0,1.0,,,,,,,,,cyan,flipped triangle
0.0,6.0,2.0,1.0,5.0,0.0,0.0,8.0,1.0,phase_2,stop,550.0,550.0,4.0,,,,,,,,,yellow,I
0.0,6.0,2.0,1.0,6.0,6.0,761.6276799999468,8.0,1.0,phase_2,go,600.0,550.0,1.0,,,,,,,,,yellow,I
0.0,8.0,4.0,1.0,6.0,6.0,621.8156029999591,8.0,1.0,phase_2,stop,600.0,550.0,3.0,,,,,,,,,orange,triangle
0.0,4.0,4.0,0.0,6.0,6.0,843.8930850006727,8.0,1.0,phase_2,go,600.0,500.0,1.0,,,,,,,,,magenta,diamond
0.0,6.0,2.0,1.0,5.0,0.0,0.0,8.0,1.0,phase_2,stop,600.0,500.0,4.0,,,,,,,,,yellow,I
0.0,8.0,4.0,1.0,6.0,6.0,491.8023620002714,8.0,1.0,phase_2,go,650.0,500.0,1.0,,,,,,,,,orange,triangle
0.0,8.0,4.0,1.0,6.0,0.0,0.0,8.0,1.0,phase_2,stop,650.0,500.0,4.0,,,,,,,,,orange,triangle
0.0,3.0,3.0,0.0,6.0,6.0,628.5273610001241,8.0,1.0,phase_2,go,650.0,550.0,1.0,,,,,,,,,gray,circle
0.0,8.0,4.0,1.0,6.0,0.0,0.0,8.0,1.0,phase_2,stop,650.0,550.0,4.0,,,,,,,,,orange,triangle
0.0,1.0,1.0,0.0,6.0,6.0,712.1346080002695,8.0,1.0,phase_2,go,650.0,600.0,1.0,,,,,,,,,green,cross
0.0,3.0,3.0,0.0,6.0,6.0,1046.4489070000127,8.0,1.0,phase_2,go,650.0,600.0,1.0,,,,,,,,,gray,circle
0.0,8.0,4.0,1.0,5.0,5.0,739.430337000158,8.0,1.0,phase_2,stop,650.0,600.0,3.0,,,,,,,,,orange,triangle
0.0,8.0,4.0,1.0,6.0,6.0,505.31724600023153,8.0,1.0,phase_2,stop,600.0,600.0,3.0,,,,,,,,,orange,triangle
0.0,7.0,3.0,1.0,6.0,0.0,0.0,8.0,1.0,phase_2,stop,600.0,550.0,4.0,,,,,,,,,white,hexagon
0.0,2.0,2.0,0.0,7.0,4.0,4300.116122999498,1.0,1.0,phase_3,,,,,234.0,6.0,78.0,117.0,156.0,234.0,39.0,195.0,cyan,flipped triangle
0.0,5.0,1.0,1.0,7.0,4.0,1937.2377480003704,1.0,2.0,phase_3,,,,,156.0,4.0,78.0,234.0,117.0,156.0,39.0,195.0,blue,square
0.0,7.0,3.0,1.0,7.0,1.0,2460.3004660002625,1.0,1.0,phase_3,,,,,324.0,6.0,324.0,216.0,270.0,162.0,108.0,54.0,white,hexagon
0.0,3.0,3.0,0.0,7.0,4.0,1981.4952249998896,1.0,1.0,phase_3,,,,,147.0,3.0,294.0,196.0,245.0,147.0,98.0,49.0,gray,circle
0.0,5.0,1.0,1.0,7.0,1.0,1672.05942199962,1.0,1.0,phase_3,,,,,234.0,6.0,234.0,117.0,195.0,39.0,156.0,78.0,blue,square
0.0,6.0,2.0,1.0,7.0,1.0,1905.090602999735,1.0,1.0,phase_3,,,,,195.0,5.0,195.0,78.0,39.0,234.0,117.0,156.0,yellow,I
0.0,4.0,4.0,0.0,7.0,2.0,1912.7500200002032,1.0,1.0,phase_3,,,,,216.0,4.0,270.0,216.0,162.0,108.0,54.0,324.0,magenta,diamond
0.0,5.0,1.0,1.0,7.0,2.0,2101.8443670000124,1.0,1.0,phase_3,,,,,132.0,3.0,264.0,132.0,176.0,44.0,88.0,220.0,blue,square
0.0,2.0,2.0,0.0,7.0,1.0,2052.860118999888,1.0,1.0,phase_3,,,,,204.0,6.0,204.0,34.0,68.0,170.0,102.0,136.0,cyan,flipped triangle
0.0,1.0,1.0,0.0,7.0,2.0,1415.4587769999123,1.0,1.0,phase_3,,,,,204.0,6.0,34.0,204.0,102.0,136.0,68.0,170.0,green,cross
0.0,2.0,2.0,0.0,7.0,3.0,1693.4860430001208,1.0,1.0,phase_3,,,,,234.0,6.0,195.0,78.0,234.0,156.0,117.0,39.0,cyan,flipped triangle
0.0,7.0,3.0,1.0,7.0,6.0,836.3076849991558,1.0,1.0,phase_3,,,,,136.0,4.0,102.0,170.0,68.0,34.0,204.0,136.0,white,hexagon
0.0,2.0,2.0,0.0,7.0,6.0,1433.872813000562,1.0,1.0,phase_3,,,,,132.0,3.0,264.0,176.0,88.0,44.0,220.0,132.0,cyan,flipped triangle
0.0,4.0,4.0,0.0,7.0,6.0,1593.8980490000176,1.0,1.0,phase_3,,,,,195.0,5.0,39.0,234.0,117.0,78.0,156.0,195.0,magenta,diamond
0.0,7.0,3.0,1.0,7.0,3.0,1349.000318000435,1.0,1.0,phase_3,,,,,98.0,2.0,245.0,196.0,98.0,294.0,147.0,49.0,white,hexagon
0.0,1.0,1.0,0.0,7.0,5.0,1700.1753770000505,1.0,1.0,phase_3,,,,,78.0,2.0,156.0,234.0,117.0,39.0,78.0,195.0,green,cross
0.0,8.0,4.0,1.0,7.0,2.0,2083.170414000051,1.0,1.0,phase_3,,,,,147.0,3.0,245.0,147.0,98.0,196.0,294.0,49.0,orange,triangle
0.0,3.0,3.0,0.0,7.0,5.0,1411.122430999967,1.0,1.0,phase_3,,,,,136.0,4.0,34.0,102.0,204.0,68.0,136.0,170.0,gray,circle
0.0,7.0,3.0,1.0,7.0,2.0,2125.858049999806,1.0,1.0,phase_3,,,,,132.0,3.0,88.0,132.0,220.0,44.0,176.0,264.0,white,hexagon
0.0,4.0,4.0,0.0,7.0,5.0,1569.9134829992545,1.0,1.0,phase_3,,,,,294.0,6.0,147.0,196.0,98.0,245.0,294.0,49.0,magenta,diamond
0.0,6.0,2.0,1.0,7.0,1.0,1570.028647000072,2.0,1.0,phase_3,,,,,216.0,4.0,216.0,162.0,270.0,54.0,108.0,324.0,yellow,I
0.0,7.0,3.0,1.0,7.0,2.0,1180.015321999235,2.0,1.0,phase_3,,,,,195.0,5.0,156.0,195.0,117.0,78.0,39.0,234.0,white,hexagon
0.0,5.0,1.0,1.0,7.0,6.0,687.7009119998547,2.0,1.0,phase_3,,,,,54.0,1.0,108.0,324.0,270.0,216.0,162.0,54.0,blue,square
0.0,1.0,1.0,0.0,7.0,3.0,2037.312010000278,2.0,1.0,phase_3,,,,,117.0,3.0,195.0,39.0,117.0,234.0,78.0,156.0,green,cross
0.0,8.0,4.0,1.0,7.0,2.0,1619.5461150000483,2.0,1.0,phase_3,,,,,204.0,6.0,102.0,204.0,170.0,68.0,34.0,136.0,orange,triangle
0.0,6.0,2.0,1.0,7.0,2.0,1683.0116849996557,2.0,1.0,phase_3,,,,,132.0,3.0,176.0,132.0,88.0,220.0,264.0,44.0,yellow,I
0.0,4.0,4.0,0.0,7.0,5.0,916.2795669999468,2.0,1.0,phase_3,,,,,162.0,3.0,108.0,270.0,324.0,216.0,162.0,54.0,magenta,diamond
0.0,3.0,3.0,0.0,7.0,2.0,2517.8480739996303,2.0,1.0,phase_3,,,,,196.0,4.0,294.0,196.0,245.0,49.0,147.0,98.0,gray,circle
0.0,7.0,3.0,1.0,7.0,6.0,2312.306032999913,2.0,1.0,phase_3,,,,,108.0,2.0,270.0,216.0,54.0,162.0,324.0,108.0,white,hexagon
0.0,7.0,3.0,1.0,7.0,5.0,1672.416836000593,2.0,1.0,phase_3,,,,,132.0,3.0,176.0,88.0,44.0,264.0,132.0,220.0,white,hexagon
0.0,4.0,4.0,0.0,7.0,6.0,1722.8666250002789,2.0,1.0,phase_3,,,,,147.0,3.0,196.0,98.0,245.0,294.0,49.0,147.0,magenta,diamond
0.0,1.0,1.0,0.0,7.0,6.0,1386.73204800034,2.0,1.0,phase_3,,,,,264.0,6.0,44.0,220.0,88.0,176.0,132.0,264.0,green,cross
0.0,3.0,3.0,0.0,7.0,2.0,2081.406487999629,2.0,1.0,phase_3,,,,,216.0,4.0,162.0,216.0,270.0,54.0,324.0,108.0,gray,circle
0.0,7.0,3.0,1.0,7.0,1.0,2503.632838000158,2.0,1.0,phase_3,,,,,78.0,2.0,78.0,234.0,117.0,156.0,195.0,39.0,white,hexagon
0.0,5.0,1.0,1.0,7.0,5.0,1941.211950000252,2.0,1.0,phase_3,,,,,245.0,5.0,98.0,49.0,147.0,294.0,245.0,196.0,blue,square
0.0,8.0,4.0,1.0,7.0,1.0,1485.8840790002432,2.0,1.0,phase_3,,,,,162.0,3.0,162.0,108.0,54.0,216.0,324.0,270.0,orange,triangle
0.0,3.0,3.0,0.0,7.0,5.0,1282.5097830000232,2.0,1.0,phase_3,,,,,162.0,3.0,324.0,108.0,270.0,54.0,162.0,216.0,gray,circle
0.0,6.0,2.0,1.0,7.0,2.0,2132.101837999471,2.0,1.0,phase_3,,,,,170.0,5.0,136.0,170.0,68.0,102.0,34.0,204.0,yellow,I
0.0,4.0,4.0,0.0,7.0,6.0,1759.6226919995388,2.0,1.0,phase_3,,,,,136.0,4.0,204.0,170.0,34.0,102.0,68.0,136.0,magenta,diamond
0.0,2.0,2.0,0.0,7.0,6.0,2737.209410000105,2.0,1.0,phase_3,,,,,245.0,5.0,294.0,147.0,49.0,196.0,98.0,245.0,cyan,flipped triangle
0.0,1.0,1.0,0.0,7.0,2.0,1889.0990519994373,3.0,1.0,phase_3,,,,,270.0,5.0,108.0,270.0,162.0,216.0,54.0,324.0,green,cross
0.0,3.0,3.0,0.0,7.0,1.0,2355.709733999902,3.0,1.0,phase_3,,,,,195.0,5.0,195.0,117.0,156.0,39.0,234.0,78.0,gray,circle
0.0,5.0,1.0,1.0,7.0,2.0,2002.354179000577,3.0,1.0,phase_3,,,,,132.0,3.0,264.0,132.0,220.0,44.0,88.0,176.0,blue,square
0.0,8.0,4.0,1.0,7.0,5.0,1619.3943279995435,3.0,1.0,phase_3,,,,,245.0,5.0,147.0,294.0,98.0,196.0,245.0,49.0,orange,triangle
0.0,6.0,2.0,1.0,7.0,5.0,1544.1297320003289,3.0,1.0,phase_3,,,,,98.0,2.0,196.0,245.0,147.0,294.0,98.0,49.0,yellow,I
0.0,4.0,4.0,0.0,7.0,3.0,2737.642176999543,3.0,1.0,phase_3,,,,,176.0,4.0,44.0,220.0,176.0,132.0,264.0,88.0,magenta,diamond
0.0,3.0,3.0,0.0,7.0,2.0,1542.4481959998957,3.0,1.0,phase_3,,,,,170.0,5.0,68.0,170.0,34.0,204.0,136.0,102.0,gray,circle
0.0,1.0,1.0,0.0,7.0,2.0,2223.2073089999176,3.0,1.0,phase_3,,,,,245.0,5.0,196.0,245.0,98.0,147.0,49.0,294.0,green,cross
0.0,7.0,3.0,1.0,7.0,6.0,1961.3507129997745,3.0,1.0,phase_3,,,,,196.0,4.0,245.0,294.0,147.0,49.0,98.0,196.0,white,hexagon
0.0,1.0,1.0,0.0,7.0,1.0,1607.5681020001866,3.0,1.0,phase_3,,,,,196.0,4.0,196.0,49.0,294.0,147.0,98.0,245.0,green,cross
0.0,8.0,4.0,1.0,7.0,1.0,1610.3219570004512,3.0,1.0,phase_3,,,,,132.0,3.0,132.0,264.0,88.0,220.0,44.0,176.0,orange,triangle
0.0,4.0,4.0,0.0,7.0,5.0,1280.862911999975,3.0,1.0,phase_3,,,,,264.0,6.0,176.0,132.0,220.0,88.0,264.0,44.0,magenta,diamond
0.0,2.0,2.0,0.0,7.0,6.0,1978.3004470000376,3.0,1.0,phase_3,,,,,98.0,2.0,147.0,49.0,245.0,294.0,196.0,98.0,cyan,flipped triangle
0.0,5.0,1.0,1.0,7.0,5.0,1803.3658310005196,3.0,1.0,phase_3,,,,,170.0,5.0,34.0,68.0,204.0,136.0,170.0,102.0,blue,square
0.0,6.0,2.0,1.0,7.0,5.0,2349.469589000364,3.0,1.0,phase_3,,,,,136.0,4.0,204.0,170.0,102.0,68.0,136.0,34.0,yellow,I
0.0,7.0,3.0,1.0,7.0,3.0,3927.9854440001145,3.0,1.0,phase_3,,,,,170.0,5.0,102.0,34.0,170.0,136.0,204.0,68.0,white,hexagon
0.0,2.0,2.0,0.0,7.0,1.0,2786.0547340005724,3.0,1.0,phase_3,,,,,162.0,3.0,162.0,270.0,324.0,216.0,108.0,54.0,cyan,flipped triangle
0.0,3.0,3.0,0.0,7.0,1.0,2968.6202949997096,3.0,1.0,phase_3,,,,,156.0,4.0,156.0,234.0,39.0,78.0,117.0,195.0,gray,circle
0.0,1.0,1.0,0.0,7.0,3.0,2707.1344299993143,3.0,1.0,phase_3,,,,,136.0,4.0,68.0,170.0,136.0,102.0,204.0,34.0,green,cross
0.0,8.0,4.0,1.0,7.0,5.0,2612.818876000347,3.0,1.0,phase_3,,,,,270.0,5.0,54.0,324.0,216.0,108.0,270.0,162.0,orange,triangle
0.0,2.0,2.0,0.0,7.0,5.0,1519.4231129999023,4.0,1.0,phase_3,,,,,102.0,3.0,170.0,204.0,136.0,34.0,102.0,68.0,cyan,flipped triangle
0.0,2.0,2.0,0.0,7.0,5.0,1743.7681080000402,4.0,1.0,phase_3,,,,,44.0,1.0,176.0,264.0,88.0,220.0,44.0,132.0,cyan,flipped triangle
0.0,8.0,4.0,1.0,7.0,2.0,2120.1338900000337,4.0,1.0,phase_3,,,,,156.0,4.0,234.0,156.0,39.0,78.0,117.0,195.0,orange,triangle
0.0,8.0,4.0,1.0,7.0,3.0,2251.8597849993967,4.0,1.0,phase_3,,,,,156.0,4.0,234.0,117.0,156.0,39.0,195.0,78.0,orange,triangle
0.0,3.0,3.0,0.0,7.0,3.0,3347.053393000351,4.0,1.0,phase_3,,,,,220.0,5.0,44.0,132.0,220.0,176.0,264.0,88.0,gray,circle
0.0,4.0,4.0,0.0,7.0,5.0,2468.669251999927,4.0,1.0,phase_3,,,,,156.0,4.0,117.0,39.0,195.0,78.0,156.0,234.0,magenta,diamond
0.0,6.0,2.0,1.0,7.0,2.0,3442.299158000424,4.0,1.0,phase_3,,,,,176.0,4.0,132.0,176.0,220.0,44.0,264.0,88.0,yellow,I
0.0,5.0,1.0,1.0,7.0,2.0,3962.741335999453,4.0,1.0,phase_3,,,,,270.0,5.0,162.0,270.0,324.0,108.0,216.0,54.0,blue,square
0.0,6.0,2.0,1.0,7.0,6.0,3894.778977999522,4.0,1.0,phase_3,,,,,156.0,4.0,195.0,117.0,78.0,39.0,234.0,156.0,yellow,I
0.0,3.0,3.0,0.0,7.0,2.0,3026.1600219992038,4.0,1.0,phase_3,,,,,176.0,4.0,264.0,176.0,88.0,220.0,132.0,44.0,gray,circle
0.0,1.0,1.0,0.0,7.0,3.0,2701.560637000512,4.0,1.0,phase_3,,,,,176.0,4.0,132.0,44.0,176.0,220.0,88.0,264.0,green,cross
0.0,8.0,4.0,1.0,7.0,2.0,2445.3390110002147,4.0,1.0,phase_3,,,,,170.0,5.0,204.0,170.0,136.0,102.0,68.0,34.0,orange,triangle
0.0,5.0,1.0,1.0,7.0,4.0,3417.931648999911,4.0,1.0,phase_3,,,,,136.0,4.0,204.0,102.0,68.0,136.0,34.0,170.0,blue,square
0.0,8.0,4.0,1.0,7.0,3.0,3213.9867380001306,4.0,1.0,phase_3,,,,,220.0,5.0,264.0,44.0,220.0,176.0,88.0,132.0,orange,triangle
0.0,2.0,2.0,0.0,7.0,3.0,3408.5395410002093,4.0,1.0,phase_3,,,,,270.0,5.0,324.0,216.0,270.0,54.0,162.0,108.0,cyan,flipped triangle
0.0,1.0,1.0,0.0,7.0,5.0,2654.1322050006784,4.0,1.0,phase_3,,,,,108.0,2.0,324.0,216.0,270.0,162.0,108.0,54.0,green,cross
0.0,4.0,4.0,0.0,7.0,2.0,3023.0106050003087,4.0,1.0,phase_3,,,,,204.0,6.0,136.0,204.0,34.0,102.0,68.0,170.0,magenta,diamond
0.0,6.0,2.0,1.0,7.0,4.0,2498.5309430003326,4.0,1.0,phase_3,,,,,216.0,4.0,54.0,324.0,270.0,216.0,162.0,108.0,yellow,I
0.0,5.0,1.0,1.0,7.0,6.0,2563.3254330005,4.0,1.0,phase_3,,,,,245.0,5.0,294.0,98.0,147.0,49.0,196.0,245.0,blue,square
0.0,6.0,2.0,1.0,7.0,2.0,3047.7767820002555,4.0,1.0,phase_3,,,,,245.0,5.0,49.0,245.0,294.0,196.0,98.0,147.0,yellow,I
