raw_reward_magnitude,stim_reward,stepwise_reward_magnitude,paired_with_stopping,quadrant,response,reaction_time,block,num_trial_presentations,which_part,stop_signal_trial_type,left_SSD,right_SSD,accuracy,chosen_bidding_amount,chosen_bidding_level,possible_bid_1,possible_bid_2,possible_bid_3,possible_bid_4,possible_bid_5,possible_bid_6,color_text,shape_text
423.0,8.0,4.0,1.0,1.0,1.0,356.7463960007444,1.0,1.0,part_1,,,,,,,,,,,,,green,cross
225.0,3.0,3.0,0.0,4.0,4.0,339.1501200003404,1.0,1.0,part_1,,,,,,,,,,,,,cyan,I
419.0,4.0,4.0,0.0,1.0,1.0,275.9209360010572,1.0,1.0,part_1,,,,,,,,,,,,,magenta,square
221.0,3.0,3.0,0.0,1.0,1.0,293.9801489992533,1.0,1.0,part_1,,,,,,,,,,,,,cyan,I
209.0,7.0,3.0,1.0,1.0,1.0,367.7728800012119,1.0,1.0,part_1,,,,,,,,,,,,,white,flipped triangle
110.0,6.0,2.0,1.0,1.0,1.0,319.4803839996893,1.0,1.0,part_1,,,,,,,,,,,,,orange,diamond
80.0,6.0,2.0,1.0,2.0,2.0,317.6623939998535,1.0,1.0,part_1,,,,,,,,,,,,,orange,diamond
0.0,2.0,0.0,0.0,1.0,1.0,296.3179359994683,1.0,1.0,part_1,,,,,,,,,,,,,gray,hexagon
397.0,8.0,4.0,1.0,2.0,2.0,315.600533000179,1.0,1.0,part_1,,,,,,,,,,,,,green,cross
114.0,6.0,2.0,1.0,3.0,3.0,316.6236859997298,1.0,1.0,part_1,,,,,,,,,,,,,orange,diamond
100.0,2.0,2.0,0.0,2.0,2.0,348.0087269999785,1.0,1.0,part_1,,,,,,,,,,,,,gray,hexagon
0.0,4.0,0.0,0.0,2.0,2.0,273.0203490009444,1.0,1.0,part_1,,,,,,,,,,,,,magenta,square
405.0,8.0,4.0,1.0,4.0,4.0,312.0764499999495,1.0,1.0,part_1,,,,,,,,,,,,,green,cross
0.0,4.0,0.0,0.0,1.0,1.0,323.4752640000806,1.0,1.0,part_1,,,,,,,,,,,,,magenta,square
119.0,6.0,2.0,1.0,1.0,1.0,310.8719219999329,1.0,1.0,part_1,,,,,,,,,,,,,orange,diamond
393.0,8.0,4.0,1.0,4.0,4.0,304.7083059991564,1.0,1.0,part_1,,,,,,,,,,,,,green,cross
194.0,3.0,3.0,0.0,1.0,1.0,266.4796790013497,1.0,1.0,part_1,,,,,,,,,,,,,cyan,I
208.0,7.0,3.0,1.0,2.0,2.0,323.357475001103,1.0,1.0,part_1,,,,,,,,,,,,,white,flipped triangle
377.0,8.0,4.0,1.0,2.0,2.0,358.621375000439,1.0,1.0,part_1,,,,,,,,,,,,,green,cross
0.0,3.0,0.0,0.0,2.0,2.0,306.7109149997122,1.0,1.0,part_1,,,,,,,,,,,,,cyan,I
56.0,1.0,1.0,0.0,2.0,2.0,307.8588959997432,1.0,1.0,part_1,,,,,,,,,,,,,yellow,triangle
385.0,4.0,4.0,0.0,4.0,4.0,319.1178830002172,1.0,1.0,part_1,,,,,,,,,,,,,magenta,square
208.0,3.0,3.0,0.0,3.0,3.0,288.4901689994876,1.0,1.0,part_1,,,,,,,,,,,,,cyan,I
214.0,3.0,3.0,0.0,1.0,1.0,295.0664480013074,1.0,1.0,part_1,,,,,,,,,,,,,cyan,I
419.0,8.0,4.0,1.0,2.0,2.0,288.6587450011575,1.0,1.0,part_1,,,,,,,,,,,,,green,cross
102.0,2.0,2.0,0.0,4.0,4.0,311.1841360005201,1.0,1.0,part_1,,,,,,,,,,,,,gray,hexagon
95.0,6.0,2.0,1.0,1.0,1.0,286.0263710008439,1.0,1.0,part_1,,,,,,,,,,,,,orange,diamond
0.0,3.0,0.0,0.0,2.0,2.0,272.6792929988733,1.0,1.0,part_1,,,,,,,,,,,,,cyan,I
46.0,1.0,1.0,0.0,2.0,2.0,272.9601660012122,1.0,1.0,part_1,,,,,,,,,,,,,yellow,triangle
80.0,2.0,2.0,0.0,3.0,3.0,317.063094000332,1.0,1.0,part_1,,,,,,,,,,,,,gray,hexagon
178.0,7.0,3.0,1.0,2.0,2.0,267.7840649994323,1.0,1.0,part_1,,,,,,,,,,,,,white,flipped triangle
108.0,6.0,2.0,1.0,2.0,2.0,299.8420849999093,1.0,1.0,part_1,,,,,,,,,,,,,orange,diamond
216.0,7.0,3.0,1.0,4.0,4.0,291.2658989989722,1.0,1.0,part_1,,,,,,,,,,,,,white,flipped triangle
197.0,3.0,3.0,0.0,1.0,1.0,313.5491399989405,1.0,1.0,part_1,,,,,,,,,,,,,cyan,I
70.0,5.0,1.0,1.0,3.0,3.0,285.2450500013219,1.0,1.0,part_1,,,,,,,,,,,,,blue,circle
421.0,4.0,4.0,0.0,4.0,4.0,308.3452630016836,1.0,1.0,part_1,,,,,,,,,,,,,magenta,square
203.0,7.0,3.0,1.0,2.0,2.0,262.3480399997788,1.0,1.0,part_1,,,,,,,,,,,,,white,flipped triangle
409.0,8.0,4.0,1.0,3.0,3.0,292.4944070000492,1.0,1.0,part_1,,,,,,,,,,,,,green,cross
401.0,8.0,4.0,1.0,3.0,3.0,316.0740889998124,1.0,1.0,part_1,,,,,,,,,,,,,green,cross
409.0,4.0,4.0,0.0,2.0,2.0,264.4817789987428,1.0,1.0,part_1,,,,,,,,,,,,,magenta,square
30.0,5.0,1.0,1.0,4.0,4.0,328.4675340000831,1.0,1.0,part_1,,,,,,,,,,,,,blue,circle
381.0,4.0,4.0,0.0,1.0,1.0,293.1556579987955,1.0,1.0,part_1,,,,,,,,,,,,,magenta,square
114.0,2.0,2.0,0.0,2.0,2.0,330.3984909998689,1.0,1.0,part_1,,,,,,,,,,,,,gray,hexagon
85.0,6.0,2.0,1.0,2.0,2.0,355.8388289984577,1.0,1.0,part_1,,,,,,,,,,,,,orange,diamond
194.0,7.0,3.0,1.0,2.0,2.0,287.8207480007404,1.0,1.0,part_1,,,,,,,,,,,,,white,flipped triangle
59.0,1.0,1.0,0.0,4.0,4.0,304.3596289990091,1.0,1.0,part_1,,,,,,,,,,,,,yellow,triangle
0.0,5.0,0.0,1.0,3.0,3.0,339.2920099995535,1.0,1.0,part_1,,,,,,,,,,,,,blue,circle
401.0,4.0,4.0,0.0,2.0,2.0,291.8145550011104,1.0,1.0,part_1,,,,,,,,,,,,,magenta,square
405.0,4.0,4.0,0.0,4.0,4.0,272.649006001302,1.0,1.0,part_1,,,,,,,,,,,,,magenta,square
61.0,1.0,1.0,0.0,2.0,2.0,289.0945920007652,1.0,1.0,part_1,,,,,,,,,,,,,yellow,triangle
0.0,2.0,0.0,0.0,1.0,1.0,316.6547090004314,1.0,1.0,part_1,,,,,,,,,,,,,gray,hexagon
114.0,6.0,2.0,1.0,4.0,4.0,306.1515179997514,1.0,1.0,part_1,,,,,,,,,,,,,orange,diamond
414.0,4.0,4.0,0.0,4.0,4.0,285.8714049998525,1.0,1.0,part_1,,,,,,,,,,,,,magenta,square
221.0,7.0,3.0,1.0,3.0,3.0,306.296286998986,1.0,1.0,part_1,,,,,,,,,,,,,white,flipped triangle
54.0,5.0,1.0,1.0,2.0,2.0,348.0902000010246,1.0,1.0,part_1,,,,,,,,,,,,,blue,circle
83.0,2.0,2.0,0.0,2.0,2.0,285.1982880001742,1.0,1.0,part_1,,,,,,,,,,,,,gray,hexagon
112.0,2.0,2.0,0.0,2.0,2.0,321.6699469994637,1.0,1.0,part_1,,,,,,,,,,,,,gray,hexagon
197.0,7.0,3.0,1.0,2.0,2.0,324.2702170009579,1.0,1.0,part_1,,,,,,,,,,,,,white,flipped triangle
47.0,1.0,1.0,0.0,4.0,4.0,294.2843540004105,1.0,1.0,part_1,,,,,,,,,,,,,yellow,triangle
398.0,8.0,4.0,1.0,1.0,1.0,300.7231829997181,1.0,1.0,part_1,,,,,,,,,,,,,green,cross
74.0,5.0,1.0,1.0,3.0,3.0,295.8267789999809,1.0,1.0,part_1,,,,,,,,,,,,,blue,circle
93.0,6.0,2.0,1.0,4.0,4.0,292.1402680003666,1.0,1.0,part_1,,,,,,,,,,,,,orange,diamond
61.0,5.0,1.0,1.0,1.0,1.0,263.1291170000622,1.0,1.0,part_1,,,,,,,,,,,,,blue,circle
112.0,6.0,2.0,1.0,1.0,1.0,246.5695060000143,1.0,1.0,part_1,,,,,,,,,,,,,orange,diamond
217.0,3.0,3.0,0.0,3.0,3.0,301.9866769991495,1.0,1.0,part_1,,,,,,,,,,,,,cyan,I
381.0,4.0,4.0,0.0,4.0,4.0,272.1816200009925,1.0,1.0,part_1,,,,,,,,,,,,,magenta,square
29.0,5.0,1.0,1.0,1.0,1.0,318.2950179998443,1.0,1.0,part_1,,,,,,,,,,,,,blue,circle
100.0,6.0,2.0,1.0,2.0,2.0,307.7091119994293,1.0,1.0,part_1,,,,,,,,,,,,,orange,diamond
0.0,1.0,0.0,0.0,3.0,3.0,252.34577499941219,1.0,1.0,part_1,,,,,,,,,,,,,yellow,triangle
47.0,5.0,1.0,1.0,2.0,2.0,270.1638339985948,1.0,1.0,part_1,,,,,,,,,,,,,blue,circle
111.0,6.0,2.0,1.0,3.0,3.0,277.968549000434,1.0,1.0,part_1,,,,,,,,,,,,,orange,diamond
209.0,7.0,3.0,1.0,1.0,1.0,302.4048009992839,1.0,1.0,part_1,,,,,,,,,,,,,white,flipped triangle
387.0,4.0,4.0,0.0,2.0,2.0,286.3366700003098,1.0,1.0,part_1,,,,,,,,,,,,,magenta,square
0.0,1.0,0.0,0.0,4.0,4.0,292.6917620006861,1.0,1.0,part_1,,,,,,,,,,,,,yellow,triangle
33.0,5.0,1.0,1.0,4.0,4.0,291.8276420004986,1.0,1.0,part_1,,,,,,,,,,,,,blue,circle
417.0,4.0,4.0,0.0,2.0,2.0,279.5432809998601,1.0,1.0,part_1,,,,,,,,,,,,,magenta,square
395.0,4.0,4.0,0.0,2.0,2.0,310.0584009989688,1.0,1.0,part_1,,,,,,,,,,,,,magenta,square
378.0,8.0,4.0,1.0,1.0,1.0,286.597817999791,1.0,1.0,part_1,,,,,,,,,,,,,green,cross
218.0,7.0,3.0,1.0,3.0,3.0,293.184055999518,1.0,1.0,part_1,,,,,,,,,,,,,white,flipped triangle
181.0,3.0,3.0,0.0,3.0,3.0,300.4260329998942,1.0,1.0,part_1,,,,,,,,,,,,,cyan,I
377.0,4.0,4.0,0.0,4.0,4.0,285.5474799998774,1.0,1.0,part_1,,,,,,,,,,,,,magenta,square
219.0,3.0,3.0,0.0,2.0,2.0,291.5741329998127,1.0,1.0,part_1,,,,,,,,,,,,,cyan,I
0.0,5.0,0.0,1.0,2.0,2.0,293.2328360002429,1.0,1.0,part_1,,,,,,,,,,,,,blue,circle
0.0,7.0,0.0,1.0,4.0,4.0,318.6763760004396,1.0,1.0,part_1,,,,,,,,,,,,,white,flipped triangle
35.0,5.0,1.0,1.0,2.0,2.0,282.427309999548,1.0,1.0,part_1,,,,,,,,,,,,,blue,circle
0.0,5.0,0.0,1.0,4.0,4.0,300.4474719982681,1.0,1.0,part_1,,,,,,,,,,,,,blue,circle
83.0,2.0,2.0,0.0,4.0,4.0,302.5967779994971,1.0,1.0,part_1,,,,,,,,,,,,,gray,hexagon
54.0,1.0,1.0,0.0,2.0,2.0,289.942608000274,1.0,1.0,part_1,,,,,,,,,,,,,yellow,triangle
57.0,5.0,1.0,1.0,3.0,3.0,258.3391619991744,1.0,1.0,part_1,,,,,,,,,,,,,blue,circle
205.0,3.0,3.0,0.0,2.0,2.0,237.2869120008545,1.0,1.0,part_1,,,,,,,,,,,,,cyan,I
110.0,6.0,2.0,1.0,2.0,2.0,355.0804829992557,1.0,1.0,part_1,,,,,,,,,,,,,orange,diamond
381.0,8.0,4.0,1.0,1.0,1.0,303.33742299990257,1.0,1.0,part_1,,,,,,,,,,,,,green,cross
419.0,4.0,4.0,0.0,4.0,4.0,269.8062349991232,1.0,1.0,part_1,,,,,,,,,,,,,magenta,square
0.0,4.0,0.0,0.0,2.0,2.0,291.6963679999753,1.0,1.0,part_1,,,,,,,,,,,,,magenta,square
411.0,8.0,4.0,1.0,4.0,4.0,290.0215450008545,1.0,1.0,part_1,,,,,,,,,,,,,green,cross
401.0,8.0,4.0,1.0,2.0,2.0,268.6501560001488,1.0,1.0,part_1,,,,,,,,,,,,,green,cross
110.0,2.0,2.0,0.0,4.0,4.0,247.7699360006227,1.0,1.0,part_1,,,,,,,,,,,,,gray,hexagon
185.0,3.0,3.0,0.0,2.0,2.0,394.2197220003436,1.0,1.0,part_1,,,,,,,,,,,,,cyan,I
225.0,7.0,3.0,1.0,1.0,1.0,296.8108559998654,1.0,1.0,part_1,,,,,,,,,,,,,white,flipped triangle
187.0,7.0,3.0,1.0,4.0,4.0,352.1964579995256,1.0,1.0,part_1,,,,,,,,,,,,,white,flipped triangle
0.0,7.0,0.0,1.0,3.0,3.0,289.248608998605,2.0,1.0,part_1,,,,,,,,,,,,,white,flipped triangle
48.0,1.0,1.0,0.0,4.0,4.0,300.3967519998696,2.0,1.0,part_1,,,,,,,,,,,,,yellow,triangle
381.0,8.0,4.0,1.0,3.0,3.0,306.8311139995785,2.0,1.0,part_1,,,,,,,,,,,,,green,cross
0.0,2.0,0.0,0.0,4.0,4.0,289.346685000055,2.0,1.0,part_1,,,,,,,,,,,,,gray,hexagon
0.0,3.0,0.0,0.0,4.0,4.0,309.1266810006345,2.0,1.0,part_1,,,,,,,,,,,,,cyan,I
180.0,3.0,3.0,0.0,4.0,4.0,293.4056829999463,2.0,1.0,part_1,,,,,,,,,,,,,cyan,I
383.0,4.0,4.0,0.0,3.0,3.0,438.8689519983018,2.0,1.0,part_1,,,,,,,,,,,,,magenta,square
0.0,2.0,0.0,0.0,4.0,4.0,244.1153910003777,2.0,1.0,part_1,,,,,,,,,,,,,gray,hexagon
206.0,7.0,3.0,1.0,1.0,1.0,345.8440329995937,2.0,1.0,part_1,,,,,,,,,,,,,white,flipped triangle
0.0,4.0,0.0,0.0,2.0,2.0,304.4033650003257,2.0,1.0,part_1,,,,,,,,,,,,,magenta,square
58.0,5.0,1.0,1.0,4.0,4.0,297.0539580001059,2.0,1.0,part_1,,,,,,,,,,,,,blue,circle
407.0,8.0,4.0,1.0,3.0,3.0,306.743073000689,2.0,1.0,part_1,,,,,,,,,,,,,green,cross
35.0,1.0,1.0,0.0,1.0,1.0,246.4405449991318,2.0,1.0,part_1,,,,,,,,,,,,,yellow,triangle
200.0,7.0,3.0,1.0,1.0,1.0,327.8822979991673,2.0,1.0,part_1,,,,,,,,,,,,,white,flipped triangle
51.0,1.0,1.0,0.0,1.0,1.0,265.157611000177,2.0,1.0,part_1,,,,,,,,,,,,,yellow,triangle
183.0,3.0,3.0,0.0,1.0,1.0,277.9109270013578,2.0,1.0,part_1,,,,,,,,,,,,,cyan,I
121.0,2.0,2.0,0.0,3.0,3.0,314.7796069988544,2.0,1.0,part_1,,,,,,,,,,,,,gray,hexagon
0.0,7.0,0.0,1.0,3.0,3.0,299.9156070000026,2.0,1.0,part_1,,,,,,,,,,,,,white,flipped triangle
51.0,5.0,1.0,1.0,3.0,3.0,360.934484999234,2.0,1.0,part_1,,,,,,,,,,,,,blue,circle
62.0,1.0,1.0,0.0,2.0,2.0,281.3900220007781,2.0,1.0,part_1,,,,,,,,,,,,,yellow,triangle
76.0,6.0,2.0,1.0,3.0,3.0,286.3010660003056,2.0,1.0,part_1,,,,,,,,,,,,,orange,diamond
59.0,1.0,1.0,0.0,2.0,2.0,287.4202679995505,2.0,1.0,part_1,,,,,,,,,,,,,yellow,triangle
35.0,1.0,1.0,0.0,1.0,1.0,263.4083409993764,2.0,1.0,part_1,,,,,,,,,,,,,yellow,triangle
32.0,1.0,1.0,0.0,1.0,1.0,319.379888000185,2.0,1.0,part_1,,,,,,,,,,,,,yellow,triangle
0.0,6.0,0.0,1.0,1.0,1.0,310.8962389997032,2.0,1.0,part_1,,,,,,,,,,,,,orange,diamond
197.0,3.0,3.0,0.0,1.0,1.0,306.1903140005597,2.0,1.0,part_1,,,,,,,,,,,,,cyan,I
108.0,2.0,2.0,0.0,1.0,1.0,274.5839290000731,2.0,1.0,part_1,,,,,,,,,,,,,gray,hexagon
64.0,5.0,1.0,1.0,4.0,4.0,280.5911939994985,2.0,1.0,part_1,,,,,,,,,,,,,blue,circle
119.0,6.0,2.0,1.0,4.0,4.0,311.8851999988692,2.0,1.0,part_1,,,,,,,,,,,,,orange,diamond
411.0,4.0,4.0,0.0,4.0,4.0,302.6072979992023,2.0,1.0,part_1,,,,,,,,,,,,,magenta,square
85.0,2.0,2.0,0.0,3.0,3.0,325.3578439998819,2.0,1.0,part_1,,,,,,,,,,,,,gray,hexagon
175.0,3.0,3.0,0.0,1.0,1.0,273.6502629995812,2.0,1.0,part_1,,,,,,,,,,,,,cyan,I
0.0,7.0,0.0,1.0,2.0,2.0,299.3676309997681,2.0,1.0,part_1,,,,,,,,,,,,,white,flipped triangle
52.0,5.0,1.0,1.0,2.0,2.0,318.0673059996479,2.0,1.0,part_1,,,,,,,,,,,,,blue,circle
398.0,4.0,4.0,0.0,1.0,1.0,281.5505530015798,2.0,1.0,part_1,,,,,,,,,,,,,magenta,square
178.0,7.0,3.0,1.0,4.0,4.0,304.9894409996341,2.0,1.0,part_1,,,,,,,,,,,,,white,flipped triangle
421.0,8.0,4.0,1.0,1.0,1.0,291.3209620000998,2.0,1.0,part_1,,,,,,,,,,,,,green,cross
30.0,5.0,1.0,1.0,2.0,2.0,418.4713780014135,2.0,1.0,part_1,,,,,,,,,,,,,blue,circle
0.0,3.0,0.0,0.0,4.0,4.0,362.8844580016448,2.0,2.0,part_1,,,,,,,,,,,,,cyan,I
203.0,3.0,3.0,0.0,2.0,2.0,325.3856629999063,2.0,1.0,part_1,,,,,,,,,,,,,cyan,I
181.0,7.0,3.0,1.0,2.0,2.0,344.5866410002054,2.0,1.0,part_1,,,,,,,,,,,,,white,flipped triangle
78.0,6.0,2.0,1.0,1.0,1.0,285.8796310010802,2.0,1.0,part_1,,,,,,,,,,,,,orange,diamond
0.0,6.0,0.0,1.0,1.0,1.0,369.196618999922,2.0,1.0,part_1,,,,,,,,,,,,,orange,diamond
0.0,1.0,0.0,0.0,1.0,1.0,307.5881819986534,2.0,1.0,part_1,,,,,,,,,,,,,yellow,triangle
180.0,3.0,3.0,0.0,4.0,4.0,269.228032000683,2.0,1.0,part_1,,,,,,,,,,,,,cyan,I
387.0,8.0,4.0,1.0,3.0,3.0,343.7695470001927,2.0,1.0,part_1,,,,,,,,,,,,,green,cross
417.0,8.0,4.0,1.0,2.0,2.0,442.608231000122,2.0,1.0,part_1,,,,,,,,,,,,,green,cross
188.0,3.0,3.0,0.0,2.0,2.0,380.4837879997649,2.0,1.0,part_1,,,,,,,,,,,,,cyan,I
0.0,8.0,0.0,1.0,2.0,2.0,362.0540800002345,2.0,1.0,part_1,,,,,,,,,,,,,green,cross
109.0,2.0,2.0,0.0,1.0,1.0,361.8209939995722,2.0,1.0,part_1,,,,,,,,,,,,,gray,hexagon
46.0,5.0,1.0,1.0,3.0,3.0,489.0760089983814,2.0,1.0,part_1,,,,,,,,,,,,,blue,circle
75.0,2.0,2.0,0.0,2.0,2.0,308.4861430015735,2.0,1.0,part_1,,,,,,,,,,,,,gray,hexagon
47.0,5.0,1.0,1.0,2.0,2.0,308.568111000568,2.0,1.0,part_1,,,,,,,,,,,,,blue,circle
0.0,2.0,0.0,0.0,4.0,4.0,343.0928750003659,2.0,1.0,part_1,,,,,,,,,,,,,gray,hexagon
377.0,4.0,4.0,0.0,2.0,2.0,329.2948660000547,2.0,1.0,part_1,,,,,,,,,,,,,magenta,square
0.0,5.0,0.0,1.0,2.0,2.0,304.5874390008976,2.0,1.0,part_1,,,,,,,,,,,,,blue,circle
209.0,3.0,3.0,0.0,1.0,1.0,399.0555330001371,2.0,1.0,part_1,,,,,,,,,,,,,cyan,I
83.0,2.0,2.0,0.0,4.0,4.0,359.0087420016061,2.0,1.0,part_1,,,,,,,,,,,,,gray,hexagon
212.0,3.0,3.0,0.0,3.0,3.0,346.0149459988315,2.0,1.0,part_1,,,,,,,,,,,,,cyan,I
183.0,7.0,3.0,1.0,3.0,3.0,312.0279230006417,2.0,1.0,part_1,,,,,,,,,,,,,white,flipped triangle
184.0,3.0,3.0,0.0,4.0,4.0,311.5277989982132,2.0,1.0,part_1,,,,,,,,,,,,,cyan,I
35.0,5.0,1.0,1.0,1.0,1.0,432.9315919985674,2.0,1.0,part_1,,,,,,,,,,,,,blue,circle
82.0,6.0,2.0,1.0,1.0,1.0,349.2459940007393,2.0,1.0,part_1,,,,,,,,,,,,,orange,diamond
396.0,8.0,4.0,1.0,2.0,2.0,382.4439140007598,2.0,1.0,part_1,,,,,,,,,,,,,green,cross
68.0,1.0,1.0,0.0,1.0,1.0,355.4731519998313,2.0,1.0,part_1,,,,,,,,,,,,,yellow,triangle
377.0,8.0,4.0,1.0,1.0,1.0,413.9844060009636,2.0,1.0,part_1,,,,,,,,,,,,,green,cross
65.0,5.0,1.0,1.0,3.0,3.0,322.7282829993783,2.0,1.0,part_1,,,,,,,,,,,,,blue,circle
75.0,6.0,2.0,1.0,1.0,1.0,284.3915640005434,2.0,1.0,part_1,,,,,,,,,,,,,orange,diamond
56.0,5.0,1.0,1.0,4.0,4.0,283.3740599999146,2.0,1.0,part_1,,,,,,,,,,,,,blue,circle
37.0,1.0,1.0,0.0,2.0,2.0,375.302501999613,2.0,1.0,part_1,,,,,,,,,,,,,yellow,triangle
421.0,8.0,4.0,1.0,1.0,1.0,307.9285549993074,2.0,1.0,part_1,,,,,,,,,,,,,green,cross
62.0,5.0,1.0,1.0,3.0,3.0,393.1472510012099,2.0,1.0,part_1,,,,,,,,,,,,,blue,circle
186.0,3.0,3.0,0.0,1.0,1.0,310.2886479991866,2.0,1.0,part_1,,,,,,,,,,,,,cyan,I
42.0,5.0,1.0,1.0,2.0,2.0,282.8415490002953,2.0,1.0,part_1,,,,,,,,,,,,,blue,circle
0.0,7.0,0.0,1.0,3.0,3.0,263.7143209994974,2.0,1.0,part_1,,,,,,,,,,,,,white,flipped triangle
0.0,8.0,0.0,1.0,1.0,1.0,373.1261829998402,2.0,1.0,part_1,,,,,,,,,,,,,green,cross
0.0,1.0,0.0,0.0,1.0,1.0,350.5689649991836,2.0,1.0,part_1,,,,,,,,,,,,,yellow,triangle
57.0,1.0,1.0,0.0,3.0,3.0,295.8565700009785,2.0,1.0,part_1,,,,,,,,,,,,,yellow,triangle
0.0,1.0,0.0,0.0,4.0,4.0,279.8292540010152,2.0,1.0,part_1,,,,,,,,,,,,,yellow,triangle
209.0,3.0,3.0,0.0,3.0,3.0,358.0333569989307,2.0,1.0,part_1,,,,,,,,,,,,,cyan,I
50.0,1.0,1.0,0.0,3.0,3.0,372.5760359993728,2.0,1.0,part_1,,,,,,,,,,,,,yellow,triangle
0.0,6.0,0.0,1.0,3.0,3.0,350.6209030001628,2.0,1.0,part_1,,,,,,,,,,,,,orange,diamond
0.0,4.0,0.0,0.0,1.0,1.0,391.1940389989468,2.0,1.0,part_1,,,,,,,,,,,,,magenta,square
0.0,8.0,0.0,1.0,4.0,4.0,410.5691959994146,2.0,1.0,part_1,,,,,,,,,,,,,green,cross
74.0,5.0,1.0,1.0,2.0,2.0,378.5297260001243,2.0,1.0,part_1,,,,,,,,,,,,,blue,circle
26.0,1.0,1.0,0.0,4.0,4.0,316.3073779996921,2.0,1.0,part_1,,,,,,,,,,,,,yellow,triangle
44.0,1.0,1.0,0.0,3.0,3.0,380.0628429999051,2.0,1.0,part_1,,,,,,,,,,,,,yellow,triangle
380.0,8.0,4.0,1.0,2.0,2.0,489.8121610003727,2.0,1.0,part_1,,,,,,,,,,,,,green,cross
0.0,6.0,0.0,1.0,2.0,2.0,389.8121519996493,2.0,1.0,part_1,,,,,,,,,,,,,orange,diamond
415.0,4.0,4.0,0.0,1.0,1.0,311.7271089995483,2.0,1.0,part_1,,,,,,,,,,,,,magenta,square
58.0,1.0,1.0,0.0,2.0,2.0,319.3450609996944,2.0,1.0,part_1,,,,,,,,,,,,,yellow,triangle
0.0,7.0,0.0,1.0,3.0,3.0,323.6274619994219,2.0,1.0,part_1,,,,,,,,,,,,,white,flipped triangle
80.0,2.0,2.0,0.0,3.0,3.0,431.0655150002276,2.0,1.0,part_1,,,,,,,,,,,,,gray,hexagon
191.0,3.0,3.0,0.0,2.0,2.0,341.1212589999195,2.0,1.0,part_1,,,,,,,,,,,,,cyan,I
103.0,2.0,2.0,0.0,4.0,4.0,536.4034020003601,2.0,1.0,part_1,,,,,,,,,,,,,gray,hexagon
191.0,7.0,3.0,1.0,3.0,3.0,693.9303330000257,2.0,1.0,part_1,,,,,,,,,,,,,white,flipped triangle
59.0,5.0,1.0,1.0,3.0,3.0,460.0074329991912,2.0,1.0,part_1,,,,,,,,,,,,,blue,circle
0.0,5.0,0.0,1.0,2.0,2.0,342.3476480002136,2.0,1.0,part_1,,,,,,,,,,,,,blue,circle
206.0,3.0,3.0,0.0,1.0,1.0,383.1495129998075,2.0,1.0,part_1,,,,,,,,,,,,,cyan,I
52.0,1.0,1.0,0.0,3.0,3.0,507.45820999873104,2.0,1.0,part_1,,,,,,,,,,,,,yellow,triangle
219.0,7.0,3.0,1.0,2.0,2.0,300.7679080001253,3.0,1.0,part_1,,,,,,,,,,,,,white,flipped triangle
103.0,6.0,2.0,1.0,2.0,2.0,407.725561000916,3.0,1.0,part_1,,,,,,,,,,,,,orange,diamond
33.0,1.0,1.0,0.0,3.0,3.0,326.0576690008747,3.0,1.0,part_1,,,,,,,,,,,,,yellow,triangle
405.0,8.0,4.0,1.0,1.0,1.0,306.5136630011693,3.0,1.0,part_1,,,,,,,,,,,,,green,cross
30.0,1.0,1.0,0.0,3.0,3.0,715.176227999109,3.0,1.0,part_1,,,,,,,,,,,,,yellow,triangle
0.0,6.0,0.0,1.0,1.0,1.0,491.2512289993174,3.0,1.0,part_1,,,,,,,,,,,,,orange,diamond
199.0,7.0,3.0,1.0,2.0,2.0,304.2427340005815,3.0,1.0,part_1,,,,,,,,,,,,,white,flipped triangle
45.0,1.0,1.0,0.0,3.0,3.0,412.348457999542,3.0,1.0,part_1,,,,,,,,,,,,,yellow,triangle
200.0,3.0,3.0,0.0,4.0,4.0,359.0835120012343,3.0,1.0,part_1,,,,,,,,,,,,,cyan,I
424.0,4.0,4.0,0.0,1.0,1.0,293.8627599996835,3.0,1.0,part_1,,,,,,,,,,,,,magenta,square
124.0,6.0,2.0,1.0,3.0,3.0,317.7275390007708,3.0,1.0,part_1,,,,,,,,,,,,,orange,diamond
44.0,5.0,1.0,1.0,2.0,2.0,322.0336789981957,3.0,1.0,part_1,,,,,,,,,,,,,blue,circle
0.0,3.0,0.0,0.0,1.0,1.0,306.1883819991635,3.0,1.0,part_1,,,,,,,,,,,,,cyan,I
70.0,1.0,1.0,0.0,4.0,4.0,332.3063879997789,3.0,1.0,part_1,,,,,,,,,,,,,yellow,triangle
28.0,1.0,1.0,0.0,3.0,3.0,349.6724180004094,3.0,1.0,part_1,,,,,,,,,,,,,yellow,triangle
123.0,2.0,2.0,0.0,3.0,3.0,304.239344999587,3.0,1.0,part_1,,,,,,,,,,,,,gray,hexagon
0.0,2.0,0.0,0.0,3.0,3.0,304.3245749995549,3.0,1.0,part_1,,,,,,,,,,,,,gray,hexagon
223.0,3.0,3.0,0.0,2.0,2.0,348.8957800000207,3.0,1.0,part_1,,,,,,,,,,,,,cyan,I
0.0,3.0,0.0,0.0,3.0,3.0,277.5950760005798,3.0,1.0,part_1,,,,,,,,,,,,,cyan,I
86.0,6.0,2.0,1.0,3.0,3.0,384.9305639996601,3.0,1.0,part_1,,,,,,,,,,,,,orange,diamond
0.0,4.0,0.0,0.0,2.0,2.0,491.9531129999086,3.0,1.0,part_1,,,,,,,,,,,,,magenta,square
415.0,8.0,4.0,1.0,3.0,3.0,332.3096980002447,3.0,1.0,part_1,,,,,,,,,,,,,green,cross
0.0,6.0,0.0,1.0,3.0,3.0,329.5943619996251,3.0,1.0,part_1,,,,,,,,,,,,,orange,diamond
0.0,4.0,0.0,0.0,2.0,2.0,488.1411389997083,3.0,1.0,part_1,,,,,,,,,,,,,magenta,square
199.0,3.0,3.0,0.0,4.0,4.0,291.6597559997171,3.0,1.0,part_1,,,,,,,,,,,,,cyan,I
0.0,8.0,0.0,1.0,2.0,2.0,302.0414579987118,3.0,1.0,part_1,,,,,,,,,,,,,green,cross
388.0,8.0,4.0,1.0,4.0,4.0,295.2048849983839,3.0,1.0,part_1,,,,,,,,,,,,,green,cross
0.0,8.0,0.0,1.0,2.0,2.0,321.025921999535,3.0,1.0,part_1,,,,,,,,,,,,,green,cross
121.0,6.0,2.0,1.0,4.0,4.0,263.7774369995895,3.0,1.0,part_1,,,,,,,,,,,,,orange,diamond
0.0,8.0,0.0,1.0,2.0,2.0,400.2359559999604,3.0,1.0,part_1,,,,,,,,,,,,,green,cross
0.0,2.0,0.0,0.0,3.0,3.0,459.0331640010845,3.0,1.0,part_1,,,,,,,,,,,,,gray,hexagon
83.0,6.0,2.0,1.0,4.0,4.0,410.1166170003125,3.0,1.0,part_1,,,,,,,,,,,,,orange,diamond
68.0,5.0,1.0,1.0,1.0,1.0,356.6135080000094,3.0,1.0,part_1,,,,,,,,,,,,,blue,circle
65.0,1.0,1.0,0.0,4.0,4.0,433.8232629997947,3.0,1.0,part_1,,,,,,,,,,,,,yellow,triangle
30.0,1.0,1.0,0.0,2.0,2.0,419.8985639995953,3.0,1.0,part_1,,,,,,,,,,,,,yellow,triangle
0.0,6.0,0.0,1.0,4.0,4.0,330.0767250002536,3.0,1.0,part_1,,,,,,,,,,,,,orange,diamond
109.0,6.0,2.0,1.0,2.0,2.0,379.8124120003194,3.0,1.0,part_1,,,,,,,,,,,,,orange,diamond
29.0,1.0,1.0,0.0,1.0,1.0,281.7618049994053,3.0,1.0,part_1,,,,,,,,,,,,,yellow,triangle
0.0,5.0,0.0,1.0,4.0,4.0,277.3185260011814,3.0,1.0,part_1,,,,,,,,,,,,,blue,circle
419.0,8.0,4.0,1.0,3.0,3.0,258.1549209990044,3.0,1.0,part_1,,,,,,,,,,,,,green,cross
178.0,3.0,3.0,0.0,3.0,3.0,263.1226430003153,3.0,1.0,part_1,,,,,,,,,,,,,cyan,I
175.0,7.0,3.0,1.0,3.0,3.0,307.714587999726,3.0,1.0,part_1,,,,,,,,,,,,,white,flipped triangle
119.0,2.0,2.0,0.0,1.0,1.0,278.0833140004688,3.0,1.0,part_1,,,,,,,,,,,,,gray,hexagon
115.0,6.0,2.0,1.0,4.0,4.0,285.4020790000504,3.0,1.0,part_1,,,,,,,,,,,,,orange,diamond
123.0,6.0,2.0,1.0,1.0,1.0,253.57153200093308,3.0,1.0,part_1,,,,,,,,,,,,,orange,diamond
62.0,1.0,1.0,0.0,3.0,3.0,278.7804809995577,3.0,1.0,part_1,,,,,,,,,,,,,yellow,triangle
37.0,5.0,1.0,1.0,1.0,1.0,250.6085379991418,3.0,1.0,part_1,,,,,,,,,,,,,blue,circle
405.0,4.0,4.0,0.0,4.0,4.0,282.8401220012893,3.0,1.0,part_1,,,,,,,,,,,,,magenta,square
0.0,5.0,0.0,1.0,3.0,3.0,296.9332269985898,3.0,1.0,part_1,,,,,,,,,,,,,blue,circle
223.0,7.0,3.0,1.0,4.0,4.0,284.0687110001454,3.0,1.0,part_1,,,,,,,,,,,,,white,flipped triangle
178.0,3.0,3.0,0.0,4.0,4.0,356.4228389986965,3.0,1.0,part_1,,,,,,,,,,,,,cyan,I
397.0,4.0,4.0,0.0,3.0,3.0,304.2262460003258,3.0,1.0,part_1,,,,,,,,,,,,,magenta,square
76.0,2.0,2.0,0.0,2.0,2.0,288.7331950005318,3.0,1.0,part_1,,,,,,,,,,,,,gray,hexagon
214.0,7.0,3.0,1.0,2.0,2.0,285.3864000007888,3.0,1.0,part_1,,,,,,,,,,,,,white,flipped triangle
0.0,3.0,0.0,0.0,1.0,1.0,293.4319760006474,3.0,1.0,part_1,,,,,,,,,,,,,cyan,I
410.0,8.0,4.0,1.0,4.0,4.0,300.3287770006864,3.0,1.0,part_1,,,,,,,,,,,,,green,cross
0.0,4.0,0.0,0.0,1.0,1.0,259.0650670008472,3.0,1.0,part_1,,,,,,,,,,,,,magenta,square
423.0,4.0,4.0,0.0,2.0,2.0,300.2249210003356,3.0,1.0,part_1,,,,,,,,,,,,,magenta,square
199.0,3.0,3.0,0.0,4.0,4.0,298.3767969999462,3.0,1.0,part_1,,,,,,,,,,,,,cyan,I
394.0,8.0,4.0,1.0,4.0,4.0,310.185657999682,3.0,1.0,part_1,,,,,,,,,,,,,green,cross
414.0,8.0,4.0,1.0,2.0,2.0,319.7659659999772,3.0,1.0,part_1,,,,,,,,,,,,,green,cross
200.0,3.0,3.0,0.0,3.0,3.0,300.6131080001069,3.0,1.0,part_1,,,,,,,,,,,,,cyan,I
91.0,2.0,2.0,0.0,4.0,4.0,318.8179489989124,3.0,1.0,part_1,,,,,,,,,,,,,gray,hexagon
108.0,2.0,2.0,0.0,1.0,1.0,298.4446469999966,3.0,1.0,part_1,,,,,,,,,,,,,gray,hexagon
188.0,7.0,3.0,1.0,1.0,1.0,297.1281879999878,3.0,1.0,part_1,,,,,,,,,,,,,white,flipped triangle
26.0,5.0,1.0,1.0,1.0,1.0,302.6960320003127,3.0,1.0,part_1,,,,,,,,,,,,,blue,circle
80.0,6.0,2.0,1.0,1.0,1.0,357.2664920011448,3.0,1.0,part_1,,,,,,,,,,,,,orange,diamond
124.0,2.0,2.0,0.0,4.0,4.0,232.8678740013856,3.0,1.0,part_1,,,,,,,,,,,,,gray,hexagon
0.0,1.0,0.0,0.0,4.0,4.0,281.428969999979,3.0,1.0,part_1,,,,,,,,,,,,,yellow,triangle
92.0,2.0,2.0,0.0,3.0,3.0,302.9501500004699,3.0,1.0,part_1,,,,,,,,,,,,,gray,hexagon
0.0,7.0,0.0,1.0,2.0,2.0,290.1499149993469,3.0,1.0,part_1,,,,,,,,,,,,,white,flipped triangle
59.0,5.0,1.0,1.0,4.0,4.0,299.4105669986311,3.0,1.0,part_1,,,,,,,,,,,,,blue,circle
383.0,8.0,4.0,1.0,3.0,3.0,287.7245420004328,3.0,1.0,part_1,,,,,,,,,,,,,green,cross
418.0,4.0,4.0,0.0,3.0,3.0,297.5262569998449,3.0,1.0,part_1,,,,,,,,,,,,,magenta,square
74.0,1.0,1.0,0.0,4.0,4.0,337.4313639997126,3.0,1.0,part_1,,,,,,,,,,,,,yellow,triangle
215.0,3.0,3.0,0.0,3.0,3.0,343.1014439993305,3.0,1.0,part_1,,,,,,,,,,,,,cyan,I
0.0,8.0,0.0,1.0,4.0,4.0,327.7877640011866,3.0,1.0,part_1,,,,,,,,,,,,,green,cross
83.0,6.0,2.0,1.0,2.0,2.0,339.9631280008179,3.0,1.0,part_1,,,,,,,,,,,,,orange,diamond
0.0,8.0,0.0,1.0,2.0,2.0,327.2363520009094,3.0,1.0,part_1,,,,,,,,,,,,,green,cross
218.0,3.0,3.0,0.0,3.0,3.0,239.2687810006464,3.0,1.0,part_1,,,,,,,,,,,,,cyan,I
184.0,7.0,3.0,1.0,3.0,3.0,274.8039550006069,3.0,1.0,part_1,,,,,,,,,,,,,white,flipped triangle
0.0,1.0,0.0,0.0,1.0,1.0,315.2798179999081,3.0,1.0,part_1,,,,,,,,,,,,,yellow,triangle
205.0,7.0,3.0,1.0,1.0,1.0,331.5735709984437,3.0,1.0,part_1,,,,,,,,,,,,,white,flipped triangle
45.0,5.0,1.0,1.0,2.0,2.0,320.1903169992874,3.0,1.0,part_1,,,,,,,,,,,,,blue,circle
49.0,5.0,1.0,1.0,4.0,4.0,277.8056979987013,3.0,1.0,part_1,,,,,,,,,,,,,blue,circle
0.0,2.0,0.0,0.0,3.0,3.0,314.7357779998856,3.0,1.0,part_1,,,,,,,,,,,,,gray,hexagon
197.0,7.0,3.0,1.0,4.0,4.0,278.2089640004415,3.0,1.0,part_1,,,,,,,,,,,,,white,flipped triangle
0.0,7.0,0.0,1.0,3.0,3.0,306.5836900004797,3.0,1.0,part_1,,,,,,,,,,,,,white,flipped triangle
49.0,1.0,1.0,0.0,4.0,4.0,259.1971800011379,3.0,1.0,part_1,,,,,,,,,,,,,yellow,triangle
422.0,8.0,4.0,1.0,2.0,2.0,316.3260010005615,3.0,1.0,part_1,,,,,,,,,,,,,green,cross
85.0,6.0,2.0,1.0,4.0,4.0,247.3302269991109,3.0,1.0,part_1,,,,,,,,,,,,,orange,diamond
0.0,8.0,0.0,1.0,3.0,3.0,275.2977889995236,3.0,1.0,part_1,,,,,,,,,,,,,green,cross
32.0,5.0,1.0,1.0,1.0,1.0,290.4690340001252,3.0,1.0,part_1,,,,,,,,,,,,,blue,circle
65.0,5.0,1.0,1.0,4.0,4.0,346.5648689998488,3.0,1.0,part_1,,,,,,,,,,,,,blue,circle
215.0,7.0,3.0,1.0,3.0,3.0,309.4897819992184,3.0,1.0,part_1,,,,,,,,,,,,,white,flipped triangle
393.0,4.0,4.0,0.0,1.0,1.0,320.8944859998155,3.0,1.0,part_1,,,,,,,,,,,,,magenta,square
385.0,4.0,4.0,0.0,3.0,3.0,285.7782290011528,3.0,1.0,part_1,,,,,,,,,,,,,magenta,square
407.0,4.0,4.0,0.0,4.0,4.0,282.3689890010428,3.0,1.0,part_1,,,,,,,,,,,,,magenta,square
111.0,2.0,2.0,0.0,1.0,1.0,295.2194280005642,3.0,1.0,part_1,,,,,,,,,,,,,gray,hexagon
50.0,5.0,1.0,1.0,1.0,1.0,298.1250489992817,3.0,1.0,part_1,,,,,,,,,,,,,blue,circle
64.0,1.0,1.0,0.0,3.0,3.0,308.1453739996505,4.0,1.0,part_1,,,,,,,,,,,,,yellow,triangle
0.0,2.0,0.0,0.0,3.0,3.0,304.1939959985029,4.0,1.0,part_1,,,,,,,,,,,,,gray,hexagon
47.0,1.0,1.0,0.0,4.0,4.0,279.8699550003221,4.0,1.0,part_1,,,,,,,,,,,,,yellow,triangle
28.0,5.0,1.0,1.0,4.0,4.0,265.3546269993967,4.0,1.0,part_1,,,,,,,,,,,,,blue,circle
80.0,6.0,2.0,1.0,3.0,3.0,315.7638530010445,4.0,1.0,part_1,,,,,,,,,,,,,orange,diamond
97.0,6.0,2.0,1.0,2.0,2.0,285.0282340004924,4.0,1.0,part_1,,,,,,,,,,,,,orange,diamond
86.0,2.0,2.0,0.0,2.0,2.0,302.0955510000931,4.0,1.0,part_1,,,,,,,,,,,,,gray,hexagon
395.0,8.0,4.0,1.0,3.0,3.0,324.5250089985347,4.0,1.0,part_1,,,,,,,,,,,,,green,cross
0.0,7.0,0.0,1.0,3.0,3.0,303.0228459992941,4.0,1.0,part_1,,,,,,,,,,,,,white,flipped triangle
410.0,4.0,4.0,0.0,1.0,1.0,289.112667000154,4.0,1.0,part_1,,,,,,,,,,,,,magenta,square
123.0,2.0,2.0,0.0,3.0,3.0,317.9633239997201,4.0,1.0,part_1,,,,,,,,,,,,,gray,hexagon
186.0,7.0,3.0,1.0,4.0,4.0,297.3655549994873,4.0,1.0,part_1,,,,,,,,,,,,,white,flipped triangle
80.0,2.0,2.0,0.0,1.0,1.0,300.7343899989791,4.0,1.0,part_1,,,,,,,,,,,,,gray,hexagon
422.0,4.0,4.0,0.0,3.0,3.0,319.0753609997045,4.0,1.0,part_1,,,,,,,,,,,,,magenta,square
0.0,4.0,0.0,0.0,1.0,1.0,289.5840509991103,4.0,1.0,part_1,,,,,,,,,,,,,magenta,square
0.0,5.0,0.0,1.0,4.0,4.0,293.9802869987034,4.0,1.0,part_1,,,,,,,,,,,,,blue,circle
401.0,4.0,4.0,0.0,1.0,1.0,324.6641490004549,4.0,1.0,part_1,,,,,,,,,,,,,magenta,square
95.0,2.0,2.0,0.0,1.0,1.0,322.5712190014747,4.0,1.0,part_1,,,,,,,,,,,,,gray,hexagon
108.0,6.0,2.0,1.0,4.0,4.0,265.2081679989351,4.0,1.0,part_1,,,,,,,,,,,,,orange,diamond
199.0,3.0,3.0,0.0,2.0,2.0,302.0043059987074,4.0,2.0,part_1,,,,,,,,,,,,,cyan,I
193.0,3.0,3.0,0.0,2.0,2.0,302.7364229983504,4.0,1.0,part_1,,,,,,,,,,,,,cyan,I
418.0,8.0,4.0,1.0,1.0,1.0,330.4650409991154,4.0,1.0,part_1,,,,,,,,,,,,,green,cross
180.0,7.0,3.0,1.0,4.0,4.0,297.2267320001265,4.0,1.0,part_1,,,,,,,,,,,,,white,flipped triangle
0.0,7.0,0.0,1.0,2.0,2.0,330.6307630009542,4.0,1.0,part_1,,,,,,,,,,,,,white,flipped triangle
123.0,6.0,2.0,1.0,1.0,1.0,285.7986319995689,4.0,1.0,part_1,,,,,,,,,,,,,orange,diamond
389.0,4.0,4.0,0.0,3.0,3.0,294.4454989992664,4.0,1.0,part_1,,,,,,,,,,,,,magenta,square
74.0,1.0,1.0,0.0,2.0,2.0,243.4613139994326,4.0,1.0,part_1,,,,,,,,,,,,,yellow,triangle
190.0,7.0,3.0,1.0,1.0,1.0,330.2651909998531,4.0,1.0,part_1,,,,,,,,,,,,,white,flipped triangle
402.0,4.0,4.0,0.0,3.0,3.0,279.7157740005787,4.0,1.0,part_1,,,,,,,,,,,,,magenta,square
421.0,4.0,4.0,0.0,1.0,1.0,287.8411719993892,4.0,1.0,part_1,,,,,,,,,,,,,magenta,square
199.0,7.0,3.0,1.0,2.0,2.0,289.9990149999212,4.0,1.0,part_1,,,,,,,,,,,,,white,flipped triangle
91.0,6.0,2.0,1.0,4.0,4.0,519.749690000026,4.0,1.0,part_1,,,,,,,,,,,,,orange,diamond
216.0,3.0,3.0,0.0,2.0,2.0,333.1659630002832,4.0,1.0,part_1,,,,,,,,,,,,,cyan,I
93.0,2.0,2.0,0.0,2.0,2.0,302.3959709989867,4.0,1.0,part_1,,,,,,,,,,,,,gray,hexagon
0.0,1.0,0.0,0.0,1.0,1.0,278.6770020011317,4.0,1.0,part_1,,,,,,,,,,,,,yellow,triangle
34.0,1.0,1.0,0.0,4.0,4.0,469.9279209999076,4.0,1.0,part_1,,,,,,,,,,,,,yellow,triangle
70.0,5.0,1.0,1.0,3.0,3.0,353.7995290007529,4.0,1.0,part_1,,,,,,,,,,,,,blue,circle
190.0,3.0,3.0,0.0,4.0,4.0,352.0555269988108,4.0,1.0,part_1,,,,,,,,,,,,,cyan,I
0.0,8.0,0.0,1.0,2.0,2.0,323.3414389997051,4.0,1.0,part_1,,,,,,,,,,,,,green,cross
193.0,7.0,3.0,1.0,4.0,4.0,295.1141909998114,4.0,1.0,part_1,,,,,,,,,,,,,white,flipped triangle
48.0,5.0,1.0,1.0,1.0,1.0,332.3596299997007,4.0,1.0,part_1,,,,,,,,,,,,,blue,circle
217.0,7.0,3.0,1.0,4.0,4.0,271.3000269995973,4.0,1.0,part_1,,,,,,,,,,,,,white,flipped triangle
0.0,3.0,0.0,0.0,2.0,2.0,293.0192109997733,4.0,1.0,part_1,,,,,,,,,,,,,cyan,I
424.0,8.0,4.0,1.0,4.0,4.0,283.9385209990723,4.0,1.0,part_1,,,,,,,,,,,,,green,cross
216.0,7.0,3.0,1.0,3.0,3.0,320.001112000682,4.0,1.0,part_1,,,,,,,,,,,,,white,flipped triangle
34.0,5.0,1.0,1.0,4.0,4.0,330.8468399991398,4.0,1.0,part_1,,,,,,,,,,,,,blue,circle
216.0,3.0,3.0,0.0,4.0,4.0,321.7974269991828,4.0,1.0,part_1,,,,,,,,,,,,,cyan,I
65.0,1.0,1.0,0.0,1.0,1.0,316.3132370009407,4.0,1.0,part_1,,,,,,,,,,,,,yellow,triangle
377.0,4.0,4.0,0.0,3.0,3.0,293.8496609986032,4.0,1.0,part_1,,,,,,,,,,,,,magenta,square
212.0,7.0,3.0,1.0,1.0,1.0,310.2377479990537,4.0,1.0,part_1,,,,,,,,,,,,,white,flipped triangle
98.0,6.0,2.0,1.0,3.0,3.0,330.2755749991775,4.0,1.0,part_1,,,,,,,,,,,,,orange,diamond
119.0,6.0,2.0,1.0,3.0,3.0,318.1714279999141,4.0,1.0,part_1,,,,,,,,,,,,,orange,diamond
0.0,3.0,0.0,0.0,2.0,2.0,285.5806179995852,4.0,1.0,part_1,,,,,,,,,,,,,cyan,I
0.0,6.0,0.0,1.0,4.0,4.0,342.6380049986619,4.0,1.0,part_1,,,,,,,,,,,,,orange,diamond
380.0,4.0,4.0,0.0,2.0,2.0,297.976292000385,4.0,1.0,part_1,,,,,,,,,,,,,magenta,square
120.0,6.0,2.0,1.0,4.0,4.0,269.2586709999887,4.0,1.0,part_1,,,,,,,,,,,,,orange,diamond
0.0,3.0,0.0,0.0,4.0,4.0,321.7027310001867,4.0,1.0,part_1,,,,,,,,,,,,,cyan,I
98.0,2.0,2.0,0.0,1.0,1.0,297.6792300014494,4.0,1.0,part_1,,,,,,,,,,,,,gray,hexagon
0.0,1.0,0.0,0.0,1.0,1.0,304.6228860002884,4.0,1.0,part_1,,,,,,,,,,,,,yellow,triangle
92.0,6.0,2.0,1.0,3.0,3.0,279.6140410009684,4.0,1.0,part_1,,,,,,,,,,,,,orange,diamond
0.0,1.0,0.0,0.0,1.0,1.0,253.71766799980833,4.0,1.0,part_1,,,,,,,,,,,,,yellow,triangle
389.0,8.0,4.0,1.0,4.0,4.0,281.6020659993228,4.0,1.0,part_1,,,,,,,,,,,,,green,cross
200.0,7.0,3.0,1.0,3.0,3.0,274.6356190000369,4.0,1.0,part_1,,,,,,,,,,,,,white,flipped triangle
82.0,2.0,2.0,0.0,1.0,1.0,260.0775160008197,4.0,1.0,part_1,,,,,,,,,,,,,gray,hexagon
377.0,8.0,4.0,1.0,1.0,1.0,289.4333040003403,4.0,1.0,part_1,,,,,,,,,,,,,green,cross
97.0,2.0,2.0,0.0,2.0,2.0,305.7479330000205,4.0,1.0,part_1,,,,,,,,,,,,,gray,hexagon
180.0,7.0,3.0,1.0,4.0,4.0,251.77118399915338,4.0,1.0,part_1,,,,,,,,,,,,,white,flipped triangle
78.0,2.0,2.0,0.0,3.0,3.0,326.6694079993613,4.0,1.0,part_1,,,,,,,,,,,,,gray,hexagon
0.0,6.0,0.0,1.0,3.0,3.0,366.4257930013264,4.0,1.0,part_1,,,,,,,,,,,,,orange,diamond
185.0,7.0,3.0,1.0,1.0,1.0,276.4227730003767,4.0,1.0,part_1,,,,,,,,,,,,,white,flipped triangle
378.0,4.0,4.0,0.0,1.0,1.0,288.706010000169,4.0,1.0,part_1,,,,,,,,,,,,,magenta,square
70.0,1.0,1.0,0.0,1.0,1.0,364.0831839984457,4.0,1.0,part_1,,,,,,,,,,,,,yellow,triangle
187.0,3.0,3.0,0.0,3.0,3.0,292.920388001221,4.0,1.0,part_1,,,,,,,,,,,,,cyan,I
396.0,4.0,4.0,0.0,2.0,2.0,293.3493150012509,4.0,1.0,part_1,,,,,,,,,,,,,magenta,square
375.0,4.0,4.0,0.0,3.0,3.0,294.3717979997018,4.0,1.0,part_1,,,,,,,,,,,,,magenta,square
85.0,2.0,2.0,0.0,3.0,3.0,311.7109949998848,4.0,1.0,part_1,,,,,,,,,,,,,gray,hexagon
102.0,6.0,2.0,1.0,2.0,2.0,378.7542419995588,4.0,1.0,part_1,,,,,,,,,,,,,orange,diamond
110.0,2.0,2.0,0.0,2.0,2.0,408.9050769998721,4.0,1.0,part_1,,,,,,,,,,,,,gray,hexagon
0.0,5.0,0.0,1.0,2.0,2.0,353.2371309993323,4.0,1.0,part_1,,,,,,,,,,,,,blue,circle
385.0,8.0,4.0,1.0,4.0,4.0,314.749084000141,4.0,1.0,part_1,,,,,,,,,,,,,green,cross
115.0,2.0,2.0,0.0,1.0,1.0,295.793784000125,4.0,1.0,part_1,,,,,,,,,,,,,gray,hexagon
385.0,8.0,4.0,1.0,2.0,2.0,302.6114380008948,4.0,1.0,part_1,,,,,,,,,,,,,green,cross
83.0,6.0,2.0,1.0,3.0,3.0,299.4151829989278,4.0,1.0,part_1,,,,,,,,,,,,,orange,diamond
199.0,7.0,3.0,1.0,3.0,3.0,313.1640659994446,4.0,1.0,part_1,,,,,,,,,,,,,white,flipped triangle
63.0,1.0,1.0,0.0,1.0,1.0,270.2643449993047,4.0,1.0,part_1,,,,,,,,,,,,,yellow,triangle
0.0,2.0,0.0,0.0,2.0,2.0,302.9457720003847,4.0,1.0,part_1,,,,,,,,,,,,,gray,hexagon
0.0,6.0,0.0,1.0,2.0,2.0,299.2952379991038,4.0,1.0,part_1,,,,,,,,,,,,,orange,diamond
114.0,2.0,2.0,0.0,4.0,4.0,384.1799589990842,4.0,1.0,part_1,,,,,,,,,,,,,gray,hexagon
119.0,2.0,2.0,0.0,4.0,4.0,453.0629130003945,4.0,1.0,part_1,,,,,,,,,,,,,gray,hexagon
62.0,5.0,1.0,1.0,3.0,3.0,357.5230269998428,4.0,1.0,part_1,,,,,,,,,,,,,blue,circle
388.0,4.0,4.0,0.0,3.0,3.0,340.1118170004338,4.0,1.0,part_1,,,,,,,,,,,,,magenta,square
394.0,4.0,4.0,0.0,2.0,2.0,244.8758769987762,4.0,1.0,part_1,,,,,,,,,,,,,magenta,square
120.0,2.0,2.0,0.0,4.0,4.0,269.4537949992082,4.0,1.0,part_1,,,,,,,,,,,,,gray,hexagon
0.0,5.0,0.0,1.0,3.0,3.0,314.8481819989683,4.0,1.0,part_1,,,,,,,,,,,,,blue,circle
0.0,4.0,0.0,0.0,1.0,1.0,241.3482990014017,4.0,1.0,part_1,,,,,,,,,,,,,magenta,square
63.0,5.0,1.0,1.0,1.0,1.0,296.0842049997154,4.0,1.0,part_1,,,,,,,,,,,,,blue,circle
375.0,8.0,4.0,1.0,3.0,3.0,299.3377319999126,4.0,1.0,part_1,,,,,,,,,,,,,green,cross
42.0,1.0,1.0,0.0,1.0,1.0,313.0675539996446,4.0,1.0,part_1,,,,,,,,,,,,,yellow,triangle
119.0,2.0,2.0,0.0,3.0,3.0,291.0043520005274,4.0,1.0,part_1,,,,,,,,,,,,,gray,hexagon
402.0,8.0,4.0,1.0,4.0,4.0,275.7554049985629,4.0,1.0,part_1,,,,,,,,,,,,,green,cross
0.0,7.0,3.0,1.0,6.0,0.0,0.0,1.0,0.0,part_2,stop,250.0,250.0,4.0,,,,,,,,,white,flipped triangle
0.0,2.0,2.0,0.0,5.0,5.0,772.3251170009462,1.0,0.0,part_2,go,250.0,300.0,1.0,,,,,,,,,gray,hexagon
0.0,4.0,4.0,0.0,5.0,5.0,938.2628120001756,1.0,0.0,part_2,go,250.0,300.0,1.0,,,,,,,,,magenta,square
0.0,2.0,2.0,0.0,5.0,5.0,983.5128459999396,1.0,0.0,part_2,go,250.0,300.0,1.0,,,,,,,,,gray,hexagon
0.0,2.0,2.0,0.0,6.0,6.0,1139.4299069997942,1.0,0.0,part_2,go,250.0,300.0,1.0,,,,,,,,,gray,hexagon
0.0,3.0,3.0,0.0,6.0,6.0,1089.6475210010976,1.0,0.0,part_2,go,250.0,300.0,1.0,,,,,,,,,cyan,I
0.0,5.0,1.0,1.0,5.0,0.0,0.0,1.0,0.0,part_2,stop,250.0,300.0,4.0,,,,,,,,,blue,circle
0.0,6.0,2.0,1.0,6.0,0.0,0.0,1.0,0.0,part_2,stop,300.0,300.0,4.0,,,,,,,,,orange,diamond
0.0,8.0,4.0,1.0,6.0,0.0,0.0,1.0,0.0,part_2,stop,300.0,350.0,4.0,,,,,,,,,green,cross
0.0,2.0,2.0,0.0,5.0,5.0,709.7733599985077,1.0,0.0,part_2,go,300.0,400.0,1.0,,,,,,,,,gray,hexagon
0.0,6.0,2.0,1.0,5.0,0.0,0.0,1.0,0.0,part_2,stop,300.0,400.0,4.0,,,,,,,,,orange,diamond
0.0,3.0,3.0,0.0,6.0,6.0,744.1867529996671,1.0,0.0,part_2,go,350.0,400.0,1.0,,,,,,,,,cyan,I
0.0,1.0,1.0,0.0,6.0,6.0,1007.5208859998384,1.0,0.0,part_2,go,350.0,400.0,1.0,,,,,,,,,yellow,triangle
0.0,8.0,4.0,1.0,5.0,5.0,939.114286999029,1.0,0.0,part_2,go,350.0,400.0,1.0,,,,,,,,,green,cross
0.0,7.0,3.0,1.0,6.0,0.0,0.0,1.0,0.0,part_2,stop,350.0,400.0,4.0,,,,,,,,,white,flipped triangle
0.0,5.0,1.0,1.0,6.0,0.0,0.0,1.0,0.0,part_2,stop,350.0,450.0,4.0,,,,,,,,,blue,circle
0.0,5.0,1.0,1.0,5.0,0.0,0.0,1.0,0.0,part_2,stop,350.0,500.0,4.0,,,,,,,,,blue,circle
0.0,2.0,2.0,0.0,6.0,6.0,841.4466310005082,1.0,0.0,part_2,go,400.0,500.0,1.0,,,,,,,,,gray,hexagon
0.0,3.0,3.0,0.0,6.0,6.0,933.7533629986864,1.0,0.0,part_2,go,400.0,500.0,1.0,,,,,,,,,cyan,I
0.0,2.0,2.0,0.0,5.0,5.0,739.2193569994561,1.0,0.0,part_2,go,400.0,500.0,1.0,,,,,,,,,gray,hexagon
0.0,6.0,2.0,1.0,5.0,0.0,0.0,1.0,0.0,part_2,stop,400.0,500.0,4.0,,,,,,,,,orange,diamond
0.0,7.0,3.0,1.0,6.0,6.0,687.0152459996461,1.0,0.0,part_2,go,450.0,500.0,1.0,,,,,,,,,white,flipped triangle
0.0,8.0,4.0,1.0,5.0,0.0,0.0,1.0,0.0,part_2,stop,450.0,500.0,4.0,,,,,,,,,green,cross
0.0,1.0,1.0,0.0,6.0,6.0,891.3931379993301,1.0,0.0,part_2,go,500.0,500.0,1.0,,,,,,,,,yellow,triangle
0.0,7.0,3.0,1.0,5.0,5.0,748.9323230001901,1.0,0.0,part_2,go,500.0,500.0,1.0,,,,,,,,,white,flipped triangle
0.0,5.0,1.0,1.0,5.0,5.0,763.512322000679,1.0,0.0,part_2,go,500.0,500.0,1.0,,,,,,,,,blue,circle
0.0,5.0,1.0,1.0,5.0,0.0,0.0,1.0,0.0,part_2,stop,500.0,500.0,4.0,,,,,,,,,blue,circle
0.0,8.0,4.0,1.0,6.0,6.0,936.1398059991188,1.0,0.0,part_2,go,550.0,500.0,1.0,,,,,,,,,green,cross
0.0,3.0,3.0,0.0,6.0,6.0,809.7882299989578,1.0,0.0,part_2,go,550.0,500.0,1.0,,,,,,,,,cyan,I
0.0,1.0,1.0,0.0,5.0,5.0,892.5235440001416,1.0,0.0,part_2,go,550.0,500.0,1.0,,,,,,,,,yellow,triangle
0.0,8.0,4.0,1.0,6.0,0.0,0.0,1.0,0.0,part_2,stop,550.0,500.0,4.0,,,,,,,,,green,cross
0.0,5.0,1.0,1.0,5.0,5.0,710.1644700014731,1.0,0.0,part_2,stop,550.0,550.0,3.0,,,,,,,,,blue,circle
0.0,1.0,1.0,0.0,6.0,6.0,786.7214580001018,1.0,0.0,part_2,go,500.0,550.0,1.0,,,,,,,,,yellow,triangle
0.0,7.0,3.0,1.0,6.0,0.0,0.0,1.0,0.0,part_2,stop,500.0,550.0,4.0,,,,,,,,,white,flipped triangle
0.0,1.0,1.0,0.0,6.0,6.0,903.528730999824,1.0,0.0,part_2,go,500.0,600.0,1.0,,,,,,,,,yellow,triangle
0.0,3.0,3.0,0.0,5.0,5.0,949.5434559994465,1.0,0.0,part_2,go,500.0,600.0,1.0,,,,,,,,,cyan,I
0.0,8.0,4.0,1.0,6.0,6.0,552.2278099997493,2.0,0.0,part_2,stop,500.0,600.0,3.0,,,,,,,,,green,cross
0.0,4.0,4.0,0.0,6.0,6.0,704.3978140009131,2.0,0.0,part_2,go,500.0,550.0,1.0,,,,,,,,,magenta,square
0.0,6.0,2.0,1.0,5.0,5.0,536.1757570008194,2.0,0.0,part_2,stop,500.0,550.0,3.0,,,,,,,,,orange,diamond
0.0,5.0,1.0,1.0,5.0,0.0,0.0,2.0,0.0,part_2,stop,450.0,550.0,4.0,,,,,,,,,blue,circle
0.0,3.0,3.0,0.0,6.0,6.0,698.1014779994439,2.0,0.0,part_2,go,500.0,550.0,1.0,,,,,,,,,cyan,I
0.0,7.0,3.0,1.0,6.0,6.0,589.2456929996115,2.0,0.0,part_2,stop,500.0,550.0,3.0,,,,,,,,,white,flipped triangle
0.0,5.0,1.0,1.0,5.0,0.0,0.0,2.0,0.0,part_2,stop,500.0,500.0,4.0,,,,,,,,,blue,circle
0.0,5.0,1.0,1.0,6.0,0.0,0.0,2.0,0.0,part_2,stop,550.0,500.0,4.0,,,,,,,,,blue,circle
0.0,5.0,1.0,1.0,6.0,6.0,553.0533790006302,2.0,0.0,part_2,go,550.0,550.0,1.0,,,,,,,,,blue,circle
0.0,2.0,2.0,0.0,6.0,6.0,662.3700480013213,2.0,0.0,part_2,go,550.0,550.0,1.0,,,,,,,,,gray,hexagon
0.0,8.0,4.0,1.0,6.0,0.0,0.0,2.0,0.0,part_2,stop,550.0,550.0,4.0,,,,,,,,,green,cross
0.0,5.0,1.0,1.0,6.0,6.0,878.8018579998607,2.0,0.0,part_2,go,550.0,600.0,1.0,,,,,,,,,blue,circle
0.0,3.0,3.0,0.0,6.0,6.0,631.7407910009933,2.0,0.0,part_2,go,550.0,600.0,1.0,,,,,,,,,cyan,I
0.0,5.0,1.0,1.0,6.0,6.0,789.1368640011933,2.0,0.0,part_2,go,550.0,600.0,1.0,,,,,,,,,blue,circle
0.0,2.0,2.0,0.0,6.0,6.0,801.8003630004387,2.0,0.0,part_2,go,550.0,600.0,1.0,,,,,,,,,gray,hexagon
0.0,8.0,4.0,1.0,5.0,0.0,0.0,2.0,0.0,part_2,stop,550.0,600.0,4.0,,,,,,,,,green,cross
0.0,8.0,4.0,1.0,6.0,6.0,519.5367750002333,2.0,0.0,part_2,stop,600.0,600.0,3.0,,,,,,,,,green,cross
0.0,8.0,4.0,1.0,6.0,0.0,0.0,2.0,0.0,part_2,stop,600.0,550.0,4.0,,,,,,,,,green,cross
0.0,1.0,1.0,0.0,6.0,6.0,684.5415040006628,2.0,0.0,part_2,go,600.0,600.0,1.0,,,,,,,,,yellow,triangle
0.0,6.0,2.0,1.0,5.0,0.0,0.0,2.0,0.0,part_2,stop,600.0,600.0,4.0,,,,,,,,,orange,diamond
0.0,5.0,1.0,1.0,6.0,6.0,788.8582719988335,2.0,0.0,part_2,go,650.0,600.0,1.0,,,,,,,,,blue,circle
0.0,2.0,2.0,0.0,6.0,6.0,850.0995720005449,2.0,0.0,part_2,go,650.0,600.0,1.0,,,,,,,,,gray,hexagon
0.0,1.0,1.0,0.0,6.0,6.0,687.1388930012472,2.0,0.0,part_2,go,650.0,600.0,1.0,,,,,,,,,yellow,triangle
0.0,6.0,2.0,1.0,6.0,6.0,776.210276000711,2.0,0.0,part_2,stop,650.0,600.0,3.0,,,,,,,,,orange,diamond
0.0,3.0,3.0,0.0,5.0,5.0,679.2015930004709,2.0,0.0,part_2,go,650.0,550.0,1.0,,,,,,,,,cyan,I
0.0,8.0,4.0,1.0,5.0,5.0,755.3640469996026,2.0,0.0,part_2,go,650.0,550.0,1.0,,,,,,,,,green,cross
0.0,3.0,3.0,0.0,5.0,5.0,647.9636029998801,2.0,0.0,part_2,go,650.0,550.0,1.0,,,,,,,,,cyan,I
0.0,6.0,2.0,1.0,5.0,5.0,631.1702580005658,2.0,0.0,part_2,stop,650.0,550.0,3.0,,,,,,,,,orange,diamond
0.0,4.0,4.0,0.0,6.0,6.0,646.7341560000932,2.0,0.0,part_2,go,600.0,550.0,1.0,,,,,,,,,magenta,square
0.0,2.0,2.0,0.0,5.0,5.0,918.0435830003262,2.0,0.0,part_2,go,600.0,550.0,1.0,,,,,,,,,gray,hexagon
0.0,6.0,2.0,1.0,6.0,6.0,589.1697620008927,2.0,0.0,part_2,stop,600.0,550.0,3.0,,,,,,,,,orange,diamond
0.0,7.0,3.0,1.0,6.0,0.0,0.0,2.0,0.0,part_2,stop,600.0,500.0,4.0,,,,,,,,,white,flipped triangle
0.0,6.0,2.0,1.0,6.0,6.0,654.5808200007741,2.0,0.0,part_2,stop,600.0,550.0,3.0,,,,,,,,,orange,diamond
0.0,4.0,4.0,0.0,5.0,5.0,830.2662759997474,2.0,0.0,part_2,go,600.0,500.0,1.0,,,,,,,,,magenta,square
0.0,1.0,1.0,0.0,6.0,6.0,728.5388740001508,2.0,0.0,part_2,go,600.0,500.0,1.0,,,,,,,,,yellow,triangle
0.0,5.0,1.0,1.0,6.0,0.0,0.0,2.0,0.0,part_2,stop,600.0,500.0,4.0,,,,,,,,,blue,circle
0.0,7.0,3.0,1.0,6.0,0.0,0.0,3.0,0.0,part_2,stop,600.0,550.0,4.0,,,,,,,,,white,flipped triangle
0.0,2.0,2.0,0.0,6.0,6.0,725.224628999058,3.0,0.0,part_2,go,600.0,600.0,1.0,,,,,,,,,gray,hexagon
0.0,7.0,3.0,1.0,5.0,5.0,578.6069770001632,3.0,0.0,part_2,stop,600.0,600.0,3.0,,,,,,,,,white,flipped triangle
0.0,7.0,3.0,1.0,5.0,5.0,586.0469449999073,3.0,0.0,part_2,go,550.0,600.0,1.0,,,,,,,,,white,flipped triangle
0.0,7.0,3.0,1.0,6.0,6.0,752.9354750004131,3.0,0.0,part_2,stop,550.0,600.0,3.0,,,,,,,,,white,flipped triangle
0.0,5.0,1.0,1.0,5.0,0.0,0.0,3.0,0.0,part_2,stop,550.0,550.0,4.0,,,,,,,,,blue,circle
0.0,5.0,1.0,1.0,6.0,6.0,472.0423620001384,3.0,0.0,part_2,stop,600.0,550.0,3.0,,,,,,,,,blue,circle
0.0,3.0,3.0,0.0,5.0,5.0,892.8576369999064,3.0,0.0,part_2,go,600.0,500.0,1.0,,,,,,,,,cyan,I
0.0,2.0,2.0,0.0,5.0,5.0,672.6443299994571,3.0,0.0,part_2,go,600.0,500.0,1.0,,,,,,,,,gray,hexagon
0.0,7.0,3.0,1.0,5.0,0.0,0.0,3.0,0.0,part_2,stop,600.0,500.0,4.0,,,,,,,,,white,flipped triangle
0.0,2.0,2.0,0.0,5.0,5.0,632.2786170003383,3.0,0.0,part_2,go,650.0,500.0,1.0,,,,,,,,,gray,hexagon
0.0,4.0,4.0,0.0,5.0,5.0,610.5912879993411,3.0,0.0,part_2,go,650.0,500.0,1.0,,,,,,,,,magenta,square
0.0,5.0,1.0,1.0,6.0,6.0,1152.4564229985117,3.0,0.0,part_2,stop,650.0,500.0,3.0,,,,,,,,,blue,circle
0.0,6.0,2.0,1.0,6.0,6.0,867.6771610007563,3.0,0.0,part_2,go,650.0,450.0,1.0,,,,,,,,,orange,diamond
0.0,8.0,4.0,1.0,5.0,0.0,0.0,3.0,0.0,part_2,stop,650.0,450.0,4.0,,,,,,,,,green,cross
0.0,2.0,2.0,0.0,5.0,5.0,761.7127299999993,3.0,0.0,part_2,go,700.0,450.0,1.0,,,,,,,,,gray,hexagon
0.0,7.0,3.0,1.0,6.0,0.0,0.0,3.0,0.0,part_2,stop,700.0,450.0,4.0,,,,,,,,,white,flipped triangle
0.0,4.0,4.0,0.0,6.0,6.0,505.1653640002769,3.0,0.0,part_2,go,700.0,500.0,1.0,,,,,,,,,magenta,square
0.0,3.0,3.0,0.0,5.0,5.0,798.4884479992616,3.0,0.0,part_2,go,700.0,500.0,1.0,,,,,,,,,cyan,I
0.0,4.0,4.0,0.0,5.0,5.0,972.8144380005688,3.0,0.0,part_2,go,700.0,500.0,1.0,,,,,,,,,magenta,square
0.0,2.0,2.0,0.0,6.0,6.0,801.8653520011867,3.0,0.0,part_2,go,700.0,500.0,1.0,,,,,,,,,gray,hexagon
0.0,8.0,4.0,1.0,5.0,5.0,618.1396520005364,3.0,0.0,part_2,go,700.0,500.0,1.0,,,,,,,,,green,cross
0.0,6.0,2.0,1.0,5.0,5.0,667.6518719996238,3.0,0.0,part_2,go,700.0,500.0,1.0,,,,,,,,,orange,diamond
0.0,6.0,2.0,1.0,5.0,0.0,0.0,3.0,0.0,part_2,stop,700.0,500.0,4.0,,,,,,,,,orange,diamond
0.0,4.0,4.0,0.0,6.0,6.0,746.3231629990332,3.0,0.0,part_2,go,750.0,500.0,1.0,,,,,,,,,magenta,square
0.0,1.0,1.0,0.0,5.0,5.0,821.5483309995761,3.0,0.0,part_2,go,750.0,500.0,1.0,,,,,,,,,yellow,triangle
0.0,4.0,4.0,0.0,6.0,6.0,605.0766440002917,3.0,0.0,part_2,go,750.0,500.0,1.0,,,,,,,,,magenta,square
0.0,8.0,4.0,1.0,5.0,5.0,856.4460110010259,3.0,0.0,part_2,stop,750.0,500.0,3.0,,,,,,,,,green,cross
0.0,3.0,3.0,0.0,6.0,6.0,812.4706070011598,3.0,0.0,part_2,go,700.0,500.0,1.0,,,,,,,,,cyan,I
0.0,5.0,1.0,1.0,6.0,6.0,653.8099190001958,3.0,0.0,part_2,go,700.0,500.0,1.0,,,,,,,,,blue,circle
0.0,7.0,3.0,1.0,5.0,5.0,919.5618650010148,3.0,0.0,part_2,stop,700.0,500.0,3.0,,,,,,,,,white,flipped triangle
0.0,8.0,4.0,1.0,5.0,5.0,870.86013300177,3.0,0.0,part_2,go,650.0,500.0,1.0,,,,,,,,,green,cross
0.0,2.0,2.0,0.0,6.0,6.0,846.2043550007365,3.0,0.0,part_2,go,650.0,500.0,1.0,,,,,,,,,gray,hexagon
0.0,7.0,3.0,1.0,6.0,6.0,1177.3508410005888,3.0,0.0,part_2,go,650.0,500.0,1.0,,,,,,,,,white,flipped triangle
0.0,3.0,3.0,0.0,5.0,5.0,770.1589290008997,3.0,0.0,part_2,go,650.0,500.0,1.0,,,,,,,,,cyan,I
0.0,8.0,4.0,1.0,5.0,0.0,0.0,3.0,0.0,part_2,stop,650.0,500.0,4.0,,,,,,,,,green,cross
0.0,2.0,2.0,0.0,6.0,6.0,559.7742780009867,4.0,0.0,part_2,go,700.0,500.0,1.0,,,,,,,,,gray,hexagon
0.0,2.0,2.0,0.0,5.0,5.0,762.3556920007104,4.0,0.0,part_2,go,700.0,500.0,1.0,,,,,,,,,gray,hexagon
0.0,2.0,2.0,0.0,6.0,6.0,632.7311240002018,4.0,0.0,part_2,go,700.0,500.0,1.0,,,,,,,,,gray,hexagon
0.0,7.0,3.0,1.0,6.0,0.0,0.0,4.0,0.0,part_2,stop,700.0,500.0,4.0,,,,,,,,,white,flipped triangle
0.0,8.0,4.0,1.0,6.0,0.0,0.0,4.0,0.0,part_2,stop,700.0,550.0,4.0,,,,,,,,,green,cross
0.0,3.0,3.0,0.0,5.0,5.0,670.8440959992004,4.0,0.0,part_2,go,700.0,600.0,1.0,,,,,,,,,cyan,I
0.0,7.0,3.0,1.0,6.0,6.0,533.7564919991564,4.0,0.0,part_2,go,700.0,600.0,1.0,,,,,,,,,white,flipped triangle
0.0,6.0,2.0,1.0,6.0,6.0,555.144198000562,4.0,0.0,part_2,stop,700.0,600.0,3.0,,,,,,,,,orange,diamond
0.0,3.0,3.0,0.0,5.0,5.0,393.9708340003562,4.0,0.0,part_2,go,700.0,550.0,1.0,,,,,,,,,cyan,I
0.0,7.0,3.0,1.0,5.0,5.0,523.230071999933,4.0,0.0,part_2,stop,700.0,550.0,3.0,,,,,,,,,white,flipped triangle
0.0,2.0,2.0,0.0,5.0,5.0,409.5194670007913,4.0,0.0,part_2,go,650.0,550.0,1.0,,,,,,,,,gray,hexagon
0.0,6.0,2.0,1.0,6.0,6.0,402.5241300005291,4.0,0.0,part_2,go,650.0,550.0,1.0,,,,,,,,,orange,diamond
0.0,1.0,1.0,0.0,6.0,6.0,486.3289879995136,4.0,0.0,part_2,go,650.0,550.0,1.0,,,,,,,,,yellow,triangle
0.0,5.0,1.0,1.0,5.0,5.0,884.4334080004046,4.0,0.0,part_2,stop,650.0,550.0,3.0,,,,,,,,,blue,circle
0.0,8.0,4.0,1.0,6.0,0.0,0.0,4.0,0.0,part_2,stop,600.0,550.0,4.0,,,,,,,,,green,cross
0.0,3.0,3.0,0.0,6.0,6.0,651.1433179985033,4.0,0.0,part_2,go,600.0,600.0,1.0,,,,,,,,,cyan,I
0.0,4.0,4.0,0.0,5.0,5.0,964.9625109996124,4.0,0.0,part_2,go,600.0,600.0,1.0,,,,,,,,,magenta,square
0.0,4.0,4.0,0.0,5.0,5.0,597.4656590005907,4.0,0.0,part_2,go,600.0,600.0,1.0,,,,,,,,,magenta,square
0.0,7.0,3.0,1.0,5.0,0.0,0.0,4.0,0.0,part_2,stop,600.0,600.0,4.0,,,,,,,,,white,flipped triangle
0.0,3.0,3.0,0.0,5.0,5.0,782.7770029998646,4.0,0.0,part_2,go,650.0,600.0,1.0,,,,,,,,,cyan,I
0.0,4.0,4.0,0.0,6.0,6.0,925.27704999884,4.0,0.0,part_2,go,650.0,600.0,1.0,,,,,,,,,magenta,square
0.0,4.0,4.0,0.0,5.0,5.0,584.0587490001781,4.0,0.0,part_2,go,650.0,600.0,1.0,,,,,,,,,magenta,square
0.0,1.0,1.0,0.0,6.0,6.0,1079.5691029998125,4.0,0.0,part_2,go,650.0,600.0,1.0,,,,,,,,,yellow,triangle
0.0,7.0,3.0,1.0,5.0,5.0,807.8013260001171,4.0,0.0,part_2,stop,650.0,600.0,3.0,,,,,,,,,white,flipped triangle
0.0,6.0,2.0,1.0,5.0,5.0,707.9830109996692,4.0,0.0,part_2,go,600.0,600.0,1.0,,,,,,,,,orange,diamond
0.0,8.0,4.0,1.0,6.0,6.0,680.013848001181,4.0,0.0,part_2,go,600.0,600.0,1.0,,,,,,,,,green,cross
0.0,1.0,1.0,0.0,5.0,5.0,603.0229319985665,4.0,0.0,part_2,go,600.0,600.0,1.0,,,,,,,,,yellow,triangle
0.0,8.0,4.0,1.0,5.0,5.0,661.0041530002491,4.0,0.0,part_2,go,600.0,600.0,1.0,,,,,,,,,green,cross
0.0,8.0,4.0,1.0,6.0,6.0,764.7768089991587,4.0,0.0,part_2,stop,600.0,600.0,3.0,,,,,,,,,green,cross
0.0,1.0,1.0,0.0,5.0,5.0,569.6029179998732,4.0,0.0,part_2,go,600.0,550.0,1.0,,,,,,,,,yellow,triangle
0.0,4.0,4.0,0.0,5.0,5.0,719.314645999475,4.0,0.0,part_2,go,600.0,550.0,1.0,,,,,,,,,magenta,square
0.0,8.0,4.0,1.0,6.0,0.0,0.0,4.0,0.0,part_2,stop,600.0,550.0,4.0,,,,,,,,,green,cross
0.0,5.0,1.0,1.0,5.0,5.0,576.6281269989122,4.0,0.0,part_2,go,600.0,600.0,1.0,,,,,,,,,blue,circle
0.0,2.0,2.0,0.0,5.0,5.0,631.399687999874,4.0,0.0,part_2,go,600.0,600.0,1.0,,,,,,,,,gray,hexagon
0.0,6.0,2.0,1.0,5.0,0.0,0.0,4.0,0.0,part_2,stop,600.0,600.0,4.0,,,,,,,,,orange,diamond
0.0,2.0,2.0,0.0,6.0,6.0,371.9392019993393,4.0,0.0,part_2,go,650.0,600.0,1.0,,,,,,,,,gray,hexagon
0.0,1.0,1.0,0.0,6.0,6.0,582.1793370014348,5.0,0.0,part_2,go,650.0,600.0,1.0,,,,,,,,,yellow,triangle
0.0,8.0,4.0,1.0,5.0,5.0,455.7123239992506,5.0,0.0,part_2,stop,650.0,600.0,3.0,,,,,,,,,green,cross
0.0,6.0,2.0,1.0,6.0,6.0,474.8407679999218,5.0,0.0,part_2,stop,600.0,600.0,3.0,,,,,,,,,orange,diamond
0.0,3.0,3.0,0.0,6.0,6.0,342.1463949998724,5.0,0.0,part_2,go,600.0,550.0,1.0,,,,,,,,,cyan,I
0.0,1.0,1.0,0.0,5.0,5.0,313.4559010013618,5.0,0.0,part_2,go,600.0,550.0,1.0,,,,,,,,,yellow,triangle
0.0,1.0,1.0,0.0,6.0,6.0,368.4965609991195,5.0,0.0,part_2,go,600.0,550.0,1.0,,,,,,,,,yellow,triangle
0.0,7.0,3.0,1.0,5.0,5.0,531.7237590006698,5.0,0.0,part_2,stop,600.0,550.0,3.0,,,,,,,,,white,flipped triangle
0.0,6.0,2.0,1.0,5.0,5.0,344.3079129992838,5.0,0.0,part_2,go,550.0,550.0,1.0,,,,,,,,,orange,diamond
0.0,3.0,3.0,0.0,5.0,5.0,809.3487910009571,5.0,0.0,part_2,go,550.0,550.0,1.0,,,,,,,,,cyan,I
0.0,7.0,3.0,1.0,6.0,6.0,883.2383139997546,5.0,0.0,part_2,go,550.0,550.0,1.0,,,,,,,,,white,flipped triangle
0.0,6.0,2.0,1.0,5.0,5.0,631.1794729990652,5.0,0.0,part_2,stop,550.0,550.0,3.0,,,,,,,,,orange,diamond
0.0,8.0,4.0,1.0,5.0,5.0,711.2317329992948,5.0,0.0,part_2,stop,500.0,550.0,3.0,,,,,,,,,green,cross
0.0,1.0,1.0,0.0,5.0,5.0,819.4264689991542,5.0,0.0,part_2,go,450.0,550.0,1.0,,,,,,,,,yellow,triangle
0.0,3.0,3.0,0.0,6.0,6.0,788.1387560009898,5.0,0.0,part_2,go,450.0,550.0,1.0,,,,,,,,,cyan,I
0.0,7.0,3.0,1.0,6.0,6.0,652.3975879990758,5.0,0.0,part_2,stop,450.0,550.0,3.0,,,,,,,,,white,flipped triangle
0.0,4.0,4.0,0.0,5.0,5.0,850.4290780001611,5.0,0.0,part_2,go,450.0,500.0,1.0,,,,,,,,,magenta,square
0.0,6.0,2.0,1.0,6.0,6.0,678.4801789999619,5.0,0.0,part_2,go,450.0,500.0,1.0,,,,,,,,,orange,diamond
0.0,2.0,2.0,0.0,6.0,6.0,667.878064999968,5.0,0.0,part_2,go,450.0,500.0,1.0,,,,,,,,,gray,hexagon
0.0,2.0,2.0,0.0,5.0,5.0,844.15284699935,5.0,0.0,part_2,go,450.0,500.0,1.0,,,,,,,,,gray,hexagon
0.0,6.0,2.0,1.0,6.0,6.0,591.1607920006645,5.0,0.0,part_2,stop,450.0,500.0,3.0,,,,,,,,,orange,diamond
0.0,4.0,4.0,0.0,5.0,5.0,703.0472670012387,5.0,0.0,part_2,go,450.0,450.0,1.0,,,,,,,,,magenta,square
0.0,8.0,4.0,1.0,5.0,5.0,615.9045309996145,5.0,0.0,part_2,stop,450.0,450.0,3.0,,,,,,,,,green,cross
0.0,4.0,4.0,0.0,6.0,6.0,723.4085410000262,5.0,0.0,part_2,go,400.0,450.0,1.0,,,,,,,,,magenta,square
0.0,2.0,2.0,0.0,5.0,5.0,793.1098560002283,5.0,0.0,part_2,go,400.0,450.0,1.0,,,,,,,,,gray,hexagon
0.0,1.0,1.0,0.0,6.0,6.0,645.4161780002323,5.0,0.0,part_2,go,400.0,450.0,1.0,,,,,,,,,yellow,triangle
0.0,4.0,4.0,0.0,6.0,6.0,716.161156000453,5.0,0.0,part_2,go,400.0,450.0,1.0,,,,,,,,,magenta,square
0.0,8.0,4.0,1.0,6.0,0.0,0.0,5.0,0.0,part_2,stop,400.0,450.0,4.0,,,,,,,,,green,cross
0.0,4.0,4.0,0.0,5.0,5.0,552.9365869988396,5.0,0.0,part_2,go,400.0,500.0,1.0,,,,,,,,,magenta,square
0.0,6.0,2.0,1.0,6.0,0.0,0.0,5.0,0.0,part_2,stop,400.0,500.0,4.0,,,,,,,,,orange,diamond
0.0,5.0,1.0,1.0,6.0,6.0,574.6413149990985,5.0,0.0,part_2,go,400.0,550.0,1.0,,,,,,,,,blue,circle
0.0,4.0,4.0,0.0,5.0,5.0,890.4340600001888,5.0,0.0,part_2,go,400.0,550.0,1.0,,,,,,,,,magenta,square
0.0,1.0,1.0,0.0,5.0,5.0,866.5278670014231,5.0,0.0,part_2,go,400.0,550.0,1.0,,,,,,,,,yellow,triangle
0.0,1.0,1.0,0.0,5.0,5.0,1052.298812999652,5.0,0.0,part_2,go,400.0,550.0,1.0,,,,,,,,,yellow,triangle
0.0,2.0,2.0,0.0,5.0,5.0,671.7029579995142,5.0,0.0,part_2,go,400.0,550.0,1.0,,,,,,,,,gray,hexagon
0.0,6.0,2.0,1.0,5.0,5.0,932.9271019996668,5.0,0.0,part_2,go,400.0,550.0,1.0,,,,,,,,,orange,diamond
0.0,1.0,1.0,0.0,6.0,6.0,854.5580849986436,5.0,0.0,part_2,go,400.0,550.0,1.0,,,,,,,,,yellow,triangle
0.0,5.0,1.0,1.0,6.0,0.0,0.0,6.0,0.0,part_2,stop,400.0,550.0,4.0,,,,,,,,,blue,circle
0.0,5.0,1.0,1.0,5.0,5.0,527.3831280010199,6.0,0.0,part_2,stop,400.0,600.0,3.0,,,,,,,,,blue,circle
0.0,3.0,3.0,0.0,6.0,6.0,505.1545549995353,6.0,0.0,part_2,go,350.0,600.0,1.0,,,,,,,,,cyan,I
0.0,8.0,4.0,1.0,6.0,6.0,472.5641549994179,6.0,0.0,part_2,stop,350.0,600.0,3.0,,,,,,,,,green,cross
0.0,1.0,1.0,0.0,5.0,5.0,840.1619300002494,6.0,0.0,part_2,go,350.0,550.0,1.0,,,,,,,,,yellow,triangle
0.0,2.0,2.0,0.0,6.0,6.0,798.2256459999917,6.0,0.0,part_2,go,350.0,550.0,1.0,,,,,,,,,gray,hexagon
0.0,7.0,3.0,1.0,5.0,5.0,648.1880169994838,6.0,0.0,part_2,go,350.0,550.0,1.0,,,,,,,,,white,flipped triangle
0.0,1.0,1.0,0.0,6.0,6.0,538.7706559995422,6.0,0.0,part_2,go,350.0,550.0,1.0,,,,,,,,,yellow,triangle
0.0,1.0,1.0,0.0,6.0,6.0,426.4797659998294,6.0,0.0,part_2,go,350.0,550.0,1.0,,,,,,,,,yellow,triangle
0.0,6.0,2.0,1.0,5.0,0.0,0.0,6.0,0.0,part_2,stop,350.0,550.0,4.0,,,,,,,,,orange,diamond
0.0,1.0,1.0,0.0,5.0,5.0,741.1548789987137,6.0,0.0,part_2,go,400.0,550.0,1.0,,,,,,,,,yellow,triangle
0.0,7.0,3.0,1.0,5.0,0.0,0.0,6.0,0.0,part_2,stop,400.0,550.0,4.0,,,,,,,,,white,flipped triangle
0.0,3.0,3.0,0.0,6.0,6.0,740.3518829996756,6.0,0.0,part_2,go,450.0,550.0,1.0,,,,,,,,,cyan,I
0.0,6.0,2.0,1.0,6.0,6.0,750.6478609993792,6.0,0.0,part_2,stop,450.0,550.0,3.0,,,,,,,,,orange,diamond
0.0,2.0,2.0,0.0,5.0,5.0,497.3823869986518,6.0,0.0,part_2,go,450.0,500.0,1.0,,,,,,,,,gray,hexagon
0.0,7.0,3.0,1.0,6.0,6.0,722.360720999859,6.0,0.0,part_2,stop,450.0,500.0,3.0,,,,,,,,,white,flipped triangle
0.0,7.0,3.0,1.0,5.0,5.0,420.4571589998522,6.0,0.0,part_2,stop,450.0,450.0,3.0,,,,,,,,,white,flipped triangle
0.0,3.0,3.0,0.0,5.0,5.0,571.7927040004724,6.0,0.0,part_2,go,400.0,450.0,1.0,,,,,,,,,cyan,I
0.0,3.0,3.0,0.0,6.0,6.0,564.6942319999653,6.0,0.0,part_2,go,400.0,450.0,1.0,,,,,,,,,cyan,I
0.0,1.0,1.0,0.0,5.0,5.0,529.3177109997487,6.0,0.0,part_2,go,400.0,450.0,1.0,,,,,,,,,yellow,triangle
0.0,2.0,2.0,0.0,5.0,5.0,546.4584380006272,6.0,0.0,part_2,go,400.0,450.0,1.0,,,,,,,,,gray,hexagon
0.0,7.0,3.0,1.0,5.0,5.0,362.1395840000332,6.0,0.0,part_2,stop,400.0,450.0,3.0,,,,,,,,,white,flipped triangle
0.0,3.0,3.0,0.0,5.0,5.0,603.1644559989218,6.0,0.0,part_2,go,350.0,450.0,1.0,,,,,,,,,cyan,I
0.0,4.0,4.0,0.0,6.0,6.0,720.5637370007025,6.0,0.0,part_2,go,350.0,450.0,1.0,,,,,,,,,magenta,square
0.0,2.0,2.0,0.0,6.0,6.0,552.8386419991875,6.0,0.0,part_2,go,350.0,450.0,1.0,,,,,,,,,gray,hexagon
0.0,8.0,4.0,1.0,6.0,0.0,0.0,6.0,0.0,part_2,stop,350.0,450.0,4.0,,,,,,,,,green,cross
0.0,4.0,4.0,0.0,5.0,5.0,793.2225360000302,6.0,0.0,part_2,go,350.0,500.0,1.0,,,,,,,,,magenta,square
0.0,8.0,4.0,1.0,6.0,0.0,0.0,6.0,0.0,part_2,stop,350.0,500.0,4.0,,,,,,,,,green,cross
0.0,5.0,1.0,1.0,5.0,5.0,524.3713079998997,6.0,0.0,part_2,stop,350.0,550.0,3.0,,,,,,,,,blue,circle
0.0,8.0,4.0,1.0,5.0,0.0,0.0,6.0,0.0,part_2,stop,300.0,550.0,4.0,,,,,,,,,green,cross
0.0,4.0,4.0,0.0,6.0,6.0,734.3497679994471,6.0,0.0,part_2,go,350.0,550.0,1.0,,,,,,,,,magenta,square
0.0,5.0,1.0,1.0,6.0,6.0,704.9786659990787,6.0,0.0,part_2,stop,350.0,550.0,3.0,,,,,,,,,blue,circle
0.0,4.0,4.0,0.0,5.0,5.0,826.9839810000121,6.0,0.0,part_2,go,350.0,500.0,1.0,,,,,,,,,magenta,square
0.0,6.0,2.0,1.0,6.0,0.0,0.0,6.0,0.0,part_2,stop,350.0,500.0,4.0,,,,,,,,,orange,diamond
0.0,3.0,3.0,0.0,6.0,6.0,648.1400600005145,6.0,0.0,part_2,go,350.0,550.0,1.0,,,,,,,,,cyan,I
0.0,7.0,3.0,1.0,5.0,0.0,0.0,6.0,0.0,part_2,stop,350.0,550.0,4.0,,,,,,,,,white,flipped triangle
0.0,6.0,2.0,1.0,5.0,0.0,0.0,7.0,0.0,part_2,stop,400.0,550.0,4.0,,,,,,,,,orange,diamond
0.0,2.0,2.0,0.0,6.0,6.0,524.4983100001264,7.0,0.0,part_2,go,450.0,550.0,1.0,,,,,,,,,gray,hexagon
0.0,5.0,1.0,1.0,5.0,0.0,0.0,7.0,0.0,part_2,stop,450.0,550.0,4.0,,,,,,,,,blue,circle
0.0,5.0,1.0,1.0,6.0,6.0,667.4316690005071,7.0,0.0,part_2,stop,500.0,550.0,3.0,,,,,,,,,blue,circle
0.0,4.0,4.0,0.0,6.0,6.0,673.1120149997878,7.0,0.0,part_2,go,500.0,500.0,1.0,,,,,,,,,magenta,square
0.0,1.0,1.0,0.0,5.0,5.0,769.4667380001192,7.0,0.0,part_2,go,500.0,500.0,1.0,,,,,,,,,yellow,triangle
0.0,7.0,3.0,1.0,5.0,5.0,712.5672130005114,7.0,0.0,part_2,go,500.0,500.0,1.0,,,,,,,,,white,flipped triangle
0.0,8.0,4.0,1.0,6.0,6.0,774.536025000998,7.0,0.0,part_2,stop,500.0,500.0,3.0,,,,,,,,,green,cross
0.0,5.0,1.0,1.0,6.0,0.0,0.0,7.0,0.0,part_2,stop,500.0,450.0,4.0,,,,,,,,,blue,circle
0.0,6.0,2.0,1.0,6.0,0.0,0.0,7.0,0.0,part_2,stop,500.0,500.0,4.0,,,,,,,,,orange,diamond
0.0,8.0,4.0,1.0,5.0,5.0,650.7640550007636,7.0,0.0,part_2,go,500.0,550.0,1.0,,,,,,,,,green,cross
0.0,6.0,2.0,1.0,5.0,5.0,631.6793449987017,7.0,0.0,part_2,go,500.0,550.0,1.0,,,,,,,,,orange,diamond
0.0,6.0,2.0,1.0,6.0,6.0,723.0345590014622,7.0,0.0,part_2,stop,500.0,550.0,3.0,,,,,,,,,orange,diamond
0.0,5.0,1.0,1.0,5.0,5.0,539.7276120002061,7.0,0.0,part_2,stop,500.0,500.0,3.0,,,,,,,,,blue,circle
0.0,3.0,3.0,0.0,6.0,6.0,566.8479530013428,7.0,0.0,part_2,go,450.0,500.0,1.0,,,,,,,,,cyan,I
0.0,1.0,1.0,0.0,6.0,6.0,858.495613998457,7.0,0.0,part_2,go,450.0,500.0,1.0,,,,,,,,,yellow,triangle
0.0,3.0,3.0,0.0,6.0,6.0,832.9747620009584,7.0,0.0,part_2,go,450.0,500.0,1.0,,,,,,,,,cyan,I
0.0,3.0,3.0,0.0,5.0,5.0,770.095134001167,7.0,0.0,part_2,go,450.0,500.0,1.0,,,,,,,,,cyan,I
0.0,5.0,1.0,1.0,5.0,5.0,591.4650159993471,7.0,0.0,part_2,go,450.0,500.0,1.0,,,,,,,,,blue,circle
0.0,4.0,4.0,0.0,6.0,6.0,526.0470489993168,7.0,0.0,part_2,go,450.0,500.0,1.0,,,,,,,,,magenta,square
0.0,5.0,1.0,1.0,6.0,6.0,442.8617300000042,7.0,0.0,part_2,stop,450.0,500.0,3.0,,,,,,,,,blue,circle
0.0,7.0,3.0,1.0,6.0,6.0,558.8814109996747,7.0,0.0,part_2,stop,450.0,450.0,3.0,,,,,,,,,white,flipped triangle
0.0,3.0,3.0,0.0,6.0,6.0,662.2403349992965,7.0,0.0,part_2,go,450.0,400.0,1.0,,,,,,,,,cyan,I
0.0,2.0,2.0,0.0,5.0,5.0,817.6634319988807,7.0,0.0,part_2,go,450.0,400.0,1.0,,,,,,,,,gray,hexagon
0.0,1.0,1.0,0.0,5.0,5.0,858.0810809999093,7.0,0.0,part_2,go,450.0,400.0,1.0,,,,,,,,,yellow,triangle
0.0,7.0,3.0,1.0,6.0,0.0,0.0,7.0,0.0,part_2,stop,450.0,400.0,4.0,,,,,,,,,white,flipped triangle
0.0,1.0,1.0,0.0,5.0,5.0,467.5646380001126,7.0,0.0,part_2,go,450.0,450.0,1.0,,,,,,,,,yellow,triangle
0.0,7.0,3.0,1.0,5.0,0.0,0.0,7.0,0.0,part_2,stop,450.0,450.0,4.0,,,,,,,,,white,flipped triangle
0.0,6.0,2.0,1.0,6.0,0.0,0.0,7.0,0.0,part_2,stop,500.0,450.0,4.0,,,,,,,,,orange,diamond
0.0,1.0,1.0,0.0,5.0,5.0,408.6965019996569,7.0,0.0,part_2,go,500.0,500.0,1.0,,,,,,,,,yellow,triangle
0.0,6.0,2.0,1.0,5.0,5.0,540.8034860010957,7.0,0.0,part_2,stop,500.0,500.0,3.0,,,,,,,,,orange,diamond
0.0,1.0,1.0,0.0,5.0,5.0,726.8017599999439,7.0,0.0,part_2,go,450.0,500.0,1.0,,,,,,,,,yellow,triangle
0.0,4.0,4.0,0.0,6.0,6.0,515.5048869983148,7.0,0.0,part_2,go,450.0,500.0,1.0,,,,,,,,,magenta,square
0.0,5.0,1.0,1.0,5.0,0.0,0.0,7.0,0.0,part_2,stop,450.0,500.0,4.0,,,,,,,,,blue,circle
0.0,3.0,3.0,0.0,5.0,5.0,762.2057810003753,7.0,0.0,part_2,go,500.0,500.0,1.0,,,,,,,,,cyan,I
0.0,8.0,4.0,1.0,5.0,5.0,650.8736739997403,7.0,0.0,part_2,go,500.0,500.0,1.0,,,,,,,,,green,cross
0.0,4.0,4.0,0.0,6.0,6.0,777.8600719993847,8.0,0.0,part_2,go,500.0,500.0,1.0,,,,,,,,,magenta,square
0.0,7.0,3.0,1.0,5.0,5.0,379.0953299994726,8.0,0.0,part_2,go,500.0,500.0,1.0,,,,,,,,,white,flipped triangle
0.0,4.0,4.0,0.0,5.0,5.0,662.8924079996068,8.0,0.0,part_2,go,500.0,500.0,1.0,,,,,,,,,magenta,square
0.0,6.0,2.0,1.0,5.0,5.0,536.3152239988267,8.0,0.0,part_2,stop,500.0,500.0,3.0,,,,,,,,,orange,diamond
0.0,3.0,3.0,0.0,6.0,6.0,614.9600709995866,8.0,0.0,part_2,go,450.0,500.0,1.0,,,,,,,,,cyan,I
0.0,6.0,2.0,1.0,6.0,6.0,586.3364619999629,8.0,0.0,part_2,stop,450.0,500.0,3.0,,,,,,,,,orange,diamond
0.0,7.0,3.0,1.0,6.0,0.0,0.0,8.0,0.0,part_2,stop,450.0,450.0,4.0,,,,,,,,,white,flipped triangle
0.0,2.0,2.0,0.0,6.0,6.0,541.1063449992071,8.0,0.0,part_2,go,450.0,500.0,1.0,,,,,,,,,gray,hexagon
0.0,5.0,1.0,1.0,5.0,0.0,0.0,8.0,0.0,part_2,stop,450.0,500.0,4.0,,,,,,,,,blue,circle
0.0,4.0,4.0,0.0,5.0,5.0,360.2696409998316,8.0,0.0,part_2,go,500.0,500.0,1.0,,,,,,,,,magenta,square
0.0,3.0,3.0,0.0,5.0,5.0,748.5967690008692,8.0,0.0,part_2,go,500.0,500.0,1.0,,,,,,,,,cyan,I
0.0,3.0,3.0,0.0,5.0,5.0,517.6751960007095,8.0,0.0,part_2,go,500.0,500.0,1.0,,,,,,,,,cyan,I
0.0,1.0,1.0,0.0,5.0,5.0,712.9745790007291,8.0,0.0,part_2,go,500.0,500.0,1.0,,,,,,,,,yellow,triangle
0.0,4.0,4.0,0.0,5.0,5.0,717.6803960010147,8.0,0.0,part_2,go,500.0,500.0,1.0,,,,,,,,,magenta,square
0.0,5.0,1.0,1.0,6.0,6.0,565.3678660000878,8.0,0.0,part_2,stop,500.0,500.0,3.0,,,,,,,,,blue,circle
0.0,4.0,4.0,0.0,6.0,6.0,535.2785590002895,8.0,0.0,part_2,go,500.0,450.0,1.0,,,,,,,,,magenta,square
0.0,1.0,1.0,0.0,6.0,6.0,497.9918980006914,8.0,0.0,part_2,go,500.0,450.0,1.0,,,,,,,,,yellow,triangle
0.0,5.0,1.0,1.0,5.0,5.0,675.2967970005557,8.0,0.0,part_2,stop,500.0,450.0,3.0,,,,,,,,,blue,circle
0.0,1.0,1.0,0.0,5.0,5.0,590.5390450006962,8.0,0.0,part_2,go,450.0,450.0,1.0,,,,,,,,,yellow,triangle
0.0,8.0,4.0,1.0,6.0,6.0,556.9050820013217,8.0,0.0,part_2,stop,450.0,450.0,3.0,,,,,,,,,green,cross
0.0,2.0,2.0,0.0,6.0,6.0,419.834994001576,8.0,0.0,part_2,go,450.0,400.0,1.0,,,,,,,,,gray,hexagon
0.0,4.0,4.0,0.0,6.0,6.0,927.2822000002634,8.0,0.0,part_2,go,450.0,400.0,1.0,,,,,,,,,magenta,square
0.0,3.0,3.0,0.0,5.0,5.0,726.6383300011512,8.0,0.0,part_2,go,450.0,400.0,1.0,,,,,,,,,cyan,I
0.0,6.0,2.0,1.0,5.0,5.0,779.661593000128,8.0,0.0,part_2,go,450.0,400.0,1.0,,,,,,,,,orange,diamond
0.0,2.0,2.0,0.0,5.0,5.0,554.4162819987832,8.0,0.0,part_2,go,450.0,400.0,1.0,,,,,,,,,gray,hexagon
0.0,5.0,1.0,1.0,6.0,0.0,0.0,8.0,0.0,part_2,stop,450.0,400.0,4.0,,,,,,,,,blue,circle
0.0,4.0,4.0,0.0,6.0,6.0,562.3536379989673,8.0,0.0,part_2,go,450.0,450.0,1.0,,,,,,,,,magenta,square
0.0,8.0,4.0,1.0,5.0,0.0,0.0,8.0,0.0,part_2,stop,450.0,450.0,4.0,,,,,,,,,green,cross
0.0,4.0,4.0,0.0,5.0,5.0,521.0183790004521,8.0,0.0,part_2,go,500.0,450.0,1.0,,,,,,,,,magenta,square
0.0,1.0,1.0,0.0,6.0,6.0,424.7575709996454,8.0,0.0,part_2,go,500.0,450.0,1.0,,,,,,,,,yellow,triangle
0.0,2.0,2.0,0.0,6.0,6.0,417.7039360001799,8.0,0.0,part_2,go,500.0,450.0,1.0,,,,,,,,,gray,hexagon
0.0,3.0,3.0,0.0,5.0,5.0,350.7985529995494,8.0,0.0,part_2,go,500.0,450.0,1.0,,,,,,,,,cyan,I
0.0,8.0,4.0,1.0,5.0,5.0,367.0069370000419,8.0,0.0,part_2,stop,500.0,450.0,3.0,,,,,,,,,green,cross
0.0,4.0,4.0,0.0,6.0,6.0,505.4778800003987,8.0,0.0,part_2,go,450.0,450.0,1.0,,,,,,,,,magenta,square
0.0,7.0,3.0,1.0,5.0,5.0,633.4356039988052,8.0,0.0,part_2,stop,450.0,450.0,3.0,,,,,,,,,white,flipped triangle
0.0,6.0,2.0,1.0,6.0,0.0,0.0,8.0,0.0,part_2,stop,400.0,450.0,4.0,,,,,,,,,orange,diamond
0.0,8.0,4.0,1.0,7.0,4.0,1958.870377000494,1.0,2.0,part_3,go,0.0,0.0,0.0,270.0,5.0,162.0,324.0,216.0,270.0,54.0,108.0,green,cross
0.0,3.0,3.0,0.0,7.0,1.0,3607.15660400092,1.0,2.0,part_3,go,0.0,0.0,0.0,294.0,6.0,294.0,147.0,98.0,49.0,196.0,245.0,cyan,I
0.0,4.0,4.0,0.0,7.0,2.0,3323.594032000983,1.0,1.0,part_3,go,0.0,0.0,0.0,117.0,3.0,195.0,117.0,156.0,234.0,39.0,78.0,magenta,square
0.0,1.0,1.0,0.0,7.0,6.0,2376.1377449991414,1.0,2.0,part_3,go,0.0,0.0,0.0,136.0,4.0,204.0,102.0,34.0,68.0,170.0,136.0,yellow,triangle
0.0,8.0,4.0,1.0,7.0,4.0,4131.178309000461,1.0,1.0,part_3,go,0.0,0.0,0.0,176.0,4.0,44.0,88.0,132.0,176.0,264.0,220.0,green,cross
0.0,5.0,1.0,1.0,7.0,4.0,2763.578137000877,1.0,1.0,part_3,go,0.0,0.0,0.0,204.0,6.0,34.0,136.0,68.0,204.0,102.0,170.0,blue,circle
0.0,1.0,1.0,0.0,7.0,3.0,1982.4826539988865,1.0,1.0,part_3,go,0.0,0.0,0.0,234.0,6.0,39.0,78.0,234.0,156.0,195.0,117.0,yellow,triangle
0.0,3.0,3.0,0.0,7.0,2.0,2973.8130239984457,1.0,1.0,part_3,go,0.0,0.0,0.0,156.0,4.0,234.0,156.0,39.0,78.0,195.0,117.0,cyan,I
0.0,4.0,4.0,0.0,7.0,5.0,2016.8573739993008,1.0,1.0,part_3,go,0.0,0.0,0.0,132.0,3.0,176.0,220.0,88.0,264.0,132.0,44.0,magenta,square
0.0,1.0,1.0,0.0,7.0,4.0,1444.2798489999404,1.0,1.0,part_3,go,0.0,0.0,0.0,234.0,6.0,117.0,39.0,195.0,234.0,78.0,156.0,yellow,triangle
0.0,6.0,2.0,1.0,7.0,1.0,2165.8909960005985,1.0,1.0,part_3,go,0.0,0.0,0.0,220.0,5.0,220.0,176.0,264.0,44.0,132.0,88.0,orange,diamond
0.0,4.0,4.0,0.0,7.0,6.0,1458.4830059993692,1.0,1.0,part_3,go,0.0,0.0,0.0,294.0,6.0,147.0,49.0,245.0,98.0,196.0,294.0,magenta,square
0.0,8.0,4.0,1.0,7.0,2.0,1474.9553139990894,1.0,1.0,part_3,go,0.0,0.0,0.0,270.0,5.0,54.0,270.0,216.0,108.0,324.0,162.0,green,cross
0.0,8.0,4.0,1.0,7.0,1.0,2046.1816570004885,1.0,1.0,part_3,go,0.0,0.0,0.0,98.0,2.0,98.0,245.0,49.0,196.0,294.0,147.0,green,cross
0.0,4.0,4.0,0.0,7.0,4.0,1130.146487001184,1.0,1.0,part_3,go,0.0,0.0,0.0,220.0,5.0,44.0,176.0,88.0,220.0,264.0,132.0,magenta,square
0.0,2.0,2.0,0.0,7.0,4.0,2390.307802999814,1.0,1.0,part_3,go,0.0,0.0,0.0,234.0,6.0,156.0,78.0,39.0,234.0,117.0,195.0,gray,hexagon
0.0,1.0,1.0,0.0,7.0,1.0,1265.0033779991643,1.0,1.0,part_3,go,0.0,0.0,0.0,98.0,2.0,98.0,147.0,245.0,294.0,49.0,196.0,yellow,triangle
0.0,2.0,2.0,0.0,7.0,6.0,1521.17093599918,1.0,1.0,part_3,go,0.0,0.0,0.0,98.0,2.0,147.0,245.0,49.0,294.0,196.0,98.0,gray,hexagon
0.0,6.0,2.0,1.0,7.0,2.0,1213.7927519997902,1.0,1.0,part_3,go,0.0,0.0,0.0,324.0,6.0,162.0,324.0,54.0,216.0,270.0,108.0,orange,diamond
0.0,2.0,2.0,0.0,7.0,5.0,1317.5452199993742,1.0,1.0,part_3,go,0.0,0.0,0.0,170.0,5.0,68.0,204.0,102.0,136.0,170.0,34.0,gray,hexagon
0.0,1.0,1.0,0.0,7.0,2.0,1108.337802999813,2.0,1.0,part_3,go,0.0,0.0,0.0,245.0,5.0,294.0,245.0,98.0,49.0,196.0,147.0,yellow,triangle
0.0,6.0,2.0,1.0,7.0,4.0,1597.166487999857,2.0,1.0,part_3,go,0.0,0.0,0.0,98.0,2.0,245.0,196.0,147.0,98.0,49.0,294.0,orange,diamond
0.0,4.0,4.0,0.0,7.0,1.0,1550.2617210004246,2.0,1.0,part_3,go,0.0,0.0,0.0,270.0,5.0,270.0,54.0,324.0,162.0,216.0,108.0,magenta,square
0.0,4.0,4.0,0.0,7.0,2.0,1964.171330000681,2.0,1.0,part_3,go,0.0,0.0,0.0,68.0,2.0,204.0,68.0,102.0,34.0,170.0,136.0,magenta,square
0.0,1.0,1.0,0.0,7.0,5.0,2620.9312029986904,2.0,1.0,part_3,go,0.0,0.0,0.0,324.0,6.0,162.0,270.0,108.0,54.0,324.0,216.0,yellow,triangle
0.0,2.0,2.0,0.0,7.0,3.0,2301.210273999459,2.0,1.0,part_3,go,0.0,0.0,0.0,108.0,2.0,324.0,54.0,108.0,216.0,270.0,162.0,gray,hexagon
0.0,1.0,1.0,0.0,7.0,5.0,1883.8090990011551,2.0,1.0,part_3,go,0.0,0.0,0.0,88.0,2.0,44.0,132.0,176.0,264.0,88.0,220.0,yellow,triangle
0.0,1.0,1.0,0.0,7.0,5.0,1911.5841319999165,2.0,1.0,part_3,go,0.0,0.0,0.0,88.0,2.0,44.0,220.0,132.0,176.0,88.0,264.0,yellow,triangle
0.0,8.0,4.0,1.0,7.0,5.0,1803.6822080011916,2.0,1.0,part_3,go,0.0,0.0,0.0,294.0,6.0,245.0,147.0,98.0,196.0,294.0,49.0,green,cross
0.0,7.0,3.0,1.0,7.0,4.0,1518.9775259987073,2.0,1.0,part_3,go,0.0,0.0,0.0,234.0,6.0,156.0,78.0,117.0,234.0,39.0,195.0,white,flipped triangle
0.0,7.0,3.0,1.0,7.0,5.0,1247.6073500001803,2.0,1.0,part_3,go,0.0,0.0,0.0,78.0,2.0,117.0,234.0,195.0,156.0,78.0,39.0,white,flipped triangle
0.0,3.0,3.0,0.0,7.0,6.0,1077.274932000364,2.0,1.0,part_3,go,0.0,0.0,0.0,44.0,1.0,132.0,88.0,176.0,264.0,220.0,44.0,cyan,I
0.0,7.0,3.0,1.0,7.0,3.0,1532.02598200005,2.0,1.0,part_3,go,0.0,0.0,0.0,176.0,4.0,264.0,44.0,176.0,88.0,132.0,220.0,white,flipped triangle
0.0,6.0,2.0,1.0,7.0,4.0,1118.807396000193,2.0,1.0,part_3,go,0.0,0.0,0.0,294.0,6.0,196.0,147.0,49.0,294.0,245.0,98.0,orange,diamond
0.0,6.0,2.0,1.0,7.0,1.0,1451.9543149999663,2.0,1.0,part_3,go,0.0,0.0,0.0,216.0,4.0,216.0,162.0,270.0,324.0,108.0,54.0,orange,diamond
0.0,4.0,4.0,0.0,7.0,6.0,1464.2920200003573,2.0,1.0,part_3,go,0.0,0.0,0.0,117.0,3.0,156.0,78.0,39.0,234.0,195.0,117.0,magenta,square
0.0,6.0,2.0,1.0,7.0,5.0,1675.0258270003542,2.0,1.0,part_3,go,0.0,0.0,0.0,204.0,6.0,136.0,102.0,68.0,170.0,204.0,34.0,orange,diamond
0.0,5.0,1.0,1.0,7.0,1.0,1575.317195000025,2.0,1.0,part_3,go,0.0,0.0,0.0,132.0,3.0,132.0,264.0,176.0,88.0,44.0,220.0,blue,circle
0.0,7.0,3.0,1.0,7.0,3.0,1635.7047300007252,2.0,1.0,part_3,go,0.0,0.0,0.0,49.0,1.0,245.0,294.0,49.0,196.0,98.0,147.0,white,flipped triangle
0.0,2.0,2.0,0.0,7.0,5.0,2169.759709000573,2.0,1.0,part_3,go,0.0,0.0,0.0,245.0,5.0,294.0,147.0,49.0,98.0,245.0,196.0,gray,hexagon
0.0,6.0,2.0,1.0,7.0,6.0,1809.633816999849,3.0,1.0,part_3,go,0.0,0.0,0.0,234.0,6.0,195.0,78.0,39.0,156.0,117.0,234.0,orange,diamond
0.0,5.0,1.0,1.0,7.0,1.0,1482.3537050015148,3.0,1.0,part_3,go,0.0,0.0,0.0,176.0,4.0,176.0,88.0,44.0,264.0,220.0,132.0,blue,circle
0.0,5.0,1.0,1.0,7.0,1.0,1884.98080500176,3.0,1.0,part_3,go,0.0,0.0,0.0,170.0,5.0,170.0,34.0,204.0,136.0,102.0,68.0,blue,circle
0.0,3.0,3.0,0.0,7.0,3.0,1530.856309000228,3.0,1.0,part_3,go,0.0,0.0,0.0,324.0,6.0,54.0,270.0,324.0,108.0,216.0,162.0,cyan,I
0.0,4.0,4.0,0.0,7.0,5.0,1983.656593998603,3.0,1.0,part_3,go,0.0,0.0,0.0,294.0,6.0,245.0,49.0,196.0,98.0,294.0,147.0,magenta,square
0.0,6.0,2.0,1.0,7.0,3.0,2437.1562889991765,3.0,1.0,part_3,go,0.0,0.0,0.0,204.0,6.0,170.0,68.0,204.0,136.0,102.0,34.0,orange,diamond
0.0,3.0,3.0,0.0,7.0,6.0,1157.099535999805,3.0,1.0,part_3,go,0.0,0.0,0.0,162.0,3.0,324.0,108.0,54.0,216.0,270.0,162.0,cyan,I
0.0,6.0,2.0,1.0,7.0,3.0,1513.7615790008567,3.0,1.0,part_3,go,0.0,0.0,0.0,176.0,4.0,220.0,44.0,176.0,264.0,132.0,88.0,orange,diamond
0.0,8.0,4.0,1.0,7.0,5.0,1627.858705000108,3.0,1.0,part_3,go,0.0,0.0,0.0,234.0,6.0,78.0,156.0,39.0,117.0,234.0,195.0,green,cross
0.0,7.0,3.0,1.0,7.0,1.0,1573.0053820007015,3.0,1.0,part_3,go,0.0,0.0,0.0,54.0,1.0,54.0,324.0,162.0,216.0,108.0,270.0,white,flipped triangle
0.0,7.0,3.0,1.0,7.0,5.0,1411.691561001135,3.0,1.0,part_3,go,0.0,0.0,0.0,196.0,4.0,294.0,98.0,49.0,147.0,196.0,245.0,white,flipped triangle
0.0,1.0,1.0,0.0,7.0,6.0,761.5315729999566,3.0,1.0,part_3,go,0.0,0.0,0.0,270.0,5.0,162.0,108.0,324.0,54.0,216.0,270.0,yellow,triangle
0.0,4.0,4.0,0.0,7.0,2.0,1018.742176998785,3.0,1.0,part_3,go,0.0,0.0,0.0,68.0,2.0,136.0,68.0,34.0,204.0,170.0,102.0,magenta,square
0.0,5.0,1.0,1.0,7.0,1.0,1613.361084000644,3.0,1.0,part_3,go,0.0,0.0,0.0,245.0,5.0,245.0,147.0,196.0,49.0,98.0,294.0,blue,circle
0.0,6.0,2.0,1.0,7.0,2.0,1160.0258509988637,3.0,1.0,part_3,go,0.0,0.0,0.0,195.0,5.0,234.0,195.0,78.0,39.0,156.0,117.0,orange,diamond
0.0,5.0,1.0,1.0,7.0,6.0,1834.009169999263,3.0,1.0,part_3,go,0.0,0.0,0.0,216.0,4.0,108.0,54.0,270.0,324.0,162.0,216.0,blue,circle
0.0,4.0,4.0,0.0,7.0,6.0,1687.2216780011513,3.0,1.0,part_3,go,0.0,0.0,0.0,162.0,3.0,54.0,216.0,324.0,108.0,270.0,162.0,magenta,square
0.0,2.0,2.0,0.0,7.0,1.0,1061.5319899989115,3.0,1.0,part_3,go,0.0,0.0,0.0,264.0,6.0,264.0,132.0,44.0,220.0,176.0,88.0,gray,hexagon
0.0,2.0,2.0,0.0,7.0,6.0,1250.8881669982657,3.0,1.0,part_3,go,0.0,0.0,0.0,132.0,3.0,264.0,88.0,220.0,176.0,44.0,132.0,gray,hexagon
0.0,8.0,4.0,1.0,7.0,4.0,1230.98254100114,3.0,1.0,part_3,go,0.0,0.0,0.0,176.0,4.0,88.0,132.0,44.0,176.0,264.0,220.0,green,cross
0.0,7.0,3.0,1.0,7.0,2.0,1436.6977249992487,4.0,1.0,part_3,go,0.0,0.0,0.0,108.0,2.0,54.0,108.0,270.0,216.0,324.0,162.0,white,flipped triangle
0.0,2.0,2.0,0.0,7.0,6.0,1576.9157060003636,4.0,1.0,part_3,go,0.0,0.0,0.0,234.0,6.0,78.0,156.0,195.0,117.0,39.0,234.0,gray,hexagon
0.0,8.0,4.0,1.0,7.0,1.0,1342.103101000248,4.0,1.0,part_3,go,0.0,0.0,0.0,102.0,3.0,102.0,68.0,34.0,170.0,204.0,136.0,green,cross
0.0,7.0,3.0,1.0,7.0,5.0,1845.6270420010696,4.0,1.0,part_3,go,0.0,0.0,0.0,136.0,4.0,204.0,170.0,34.0,102.0,136.0,68.0,white,flipped triangle
0.0,3.0,3.0,0.0,7.0,1.0,941.2119910011824,4.0,1.0,part_3,go,0.0,0.0,0.0,245.0,5.0,245.0,49.0,196.0,147.0,98.0,294.0,cyan,I
0.0,5.0,1.0,1.0,7.0,4.0,955.9417300006317,4.0,1.0,part_3,go,0.0,0.0,0.0,54.0,1.0,216.0,108.0,162.0,54.0,324.0,270.0,blue,circle
0.0,5.0,1.0,1.0,7.0,5.0,1025.0534070000867,4.0,1.0,part_3,go,0.0,0.0,0.0,234.0,6.0,78.0,156.0,195.0,117.0,234.0,39.0,blue,circle
0.0,1.0,1.0,0.0,7.0,3.0,1399.4460169997185,4.0,1.0,part_3,go,0.0,0.0,0.0,102.0,3.0,34.0,204.0,102.0,170.0,136.0,68.0,yellow,triangle
0.0,2.0,2.0,0.0,7.0,2.0,1036.8962949996785,4.0,1.0,part_3,go,0.0,0.0,0.0,136.0,4.0,102.0,136.0,68.0,34.0,204.0,170.0,gray,hexagon
0.0,5.0,1.0,1.0,7.0,1.0,2485.7466320008825,4.0,1.0,part_3,go,0.0,0.0,0.0,147.0,3.0,147.0,196.0,245.0,98.0,294.0,49.0,blue,circle
0.0,8.0,4.0,1.0,7.0,1.0,1650.794183000471,4.0,1.0,part_3,go,0.0,0.0,0.0,195.0,5.0,195.0,156.0,39.0,234.0,78.0,117.0,green,cross
0.0,5.0,1.0,1.0,7.0,6.0,1432.432259000052,4.0,1.0,part_3,go,0.0,0.0,0.0,39.0,1.0,78.0,234.0,156.0,117.0,195.0,39.0,blue,circle
0.0,7.0,3.0,1.0,7.0,1.0,1054.4720039997628,4.0,1.0,part_3,go,0.0,0.0,0.0,170.0,5.0,170.0,204.0,102.0,68.0,34.0,136.0,white,flipped triangle
0.0,3.0,3.0,0.0,7.0,3.0,1236.300899001435,4.0,1.0,part_3,go,0.0,0.0,0.0,234.0,6.0,156.0,195.0,234.0,117.0,78.0,39.0,cyan,I
0.0,2.0,2.0,0.0,7.0,5.0,1763.0281990004733,4.0,1.0,part_3,go,0.0,0.0,0.0,162.0,3.0,270.0,108.0,216.0,54.0,162.0,324.0,gray,hexagon
0.0,3.0,3.0,0.0,7.0,1.0,1375.2335789995414,4.0,1.0,part_3,go,0.0,0.0,0.0,204.0,6.0,204.0,68.0,136.0,34.0,170.0,102.0,cyan,I
0.0,3.0,3.0,0.0,7.0,6.0,1201.441363999038,4.0,1.0,part_3,go,0.0,0.0,0.0,176.0,4.0,44.0,88.0,264.0,132.0,220.0,176.0,cyan,I
0.0,7.0,3.0,1.0,7.0,5.0,1224.496843999077,4.0,1.0,part_3,go,0.0,0.0,0.0,264.0,6.0,132.0,88.0,176.0,220.0,264.0,44.0,white,flipped triangle
0.0,8.0,4.0,1.0,7.0,2.0,1476.606215999709,4.0,1.0,part_3,go,0.0,0.0,0.0,136.0,4.0,170.0,136.0,204.0,68.0,102.0,34.0,green,cross
0.0,3.0,3.0,0.0,7.0,6.0,1122.880270000678,4.0,1.0,part_3,go,0.0,0.0,0.0,102.0,3.0,170.0,204.0,68.0,136.0,34.0,102.0,cyan,I
