raw_reward_magnitude,stim_reward,stepwise_reward_magnitude,paired_with_stopping,quadrant,response,reaction_time,block,num_trial_presentations,which_part,stop_signal_trial_type,left_SSD,right_SSD,accuracy,chosen_bidding_amount,chosen_bidding_level,possible_bid_1,possible_bid_2,possible_bid_3,possible_bid_4,possible_bid_5,possible_bid_6,color_text,shape_text
387.0,4.0,4.0,0.0,3.0,3.0,645.6994479999594,1.0,1.0,part_1,,,,,,,,,,,,,magenta,hexagon
86.0,6.0,2.0,1.0,3.0,3.0,435.5734129999291,1.0,1.0,part_1,,,,,,,,,,,,,yellow,cross
197.0,3.0,3.0,0.0,4.0,4.0,389.5248039998478,1.0,1.0,part_1,,,,,,,,,,,,,blue,triangle
38.0,5.0,1.0,1.0,2.0,2.0,347.3117759999695,1.0,1.0,part_1,,,,,,,,,,,,,cyan,I
46.0,5.0,1.0,1.0,4.0,4.0,383.2656140000381,1.0,1.0,part_1,,,,,,,,,,,,,cyan,I
0.0,2.0,0.0,0.0,3.0,3.0,372.4790740000117,1.0,1.0,part_1,,,,,,,,,,,,,green,diamond
95.0,6.0,2.0,1.0,3.0,3.0,399.7269189999315,1.0,1.0,part_1,,,,,,,,,,,,,yellow,cross
90.0,2.0,2.0,0.0,2.0,2.0,386.6838040000857,1.0,1.0,part_1,,,,,,,,,,,,,green,diamond
49.0,1.0,1.0,0.0,2.0,2.0,415.1216349998776,1.0,1.0,part_1,,,,,,,,,,,,,orange,circle
101.0,6.0,2.0,1.0,4.0,4.0,343.5185599998931,1.0,1.0,part_1,,,,,,,,,,,,,yellow,cross
390.0,4.0,4.0,0.0,3.0,3.0,411.7550240000582,1.0,1.0,part_1,,,,,,,,,,,,,magenta,hexagon
118.0,2.0,2.0,0.0,4.0,4.0,396.3541850000638,1.0,1.0,part_1,,,,,,,,,,,,,green,diamond
0.0,7.0,0.0,1.0,3.0,3.0,346.3868819999334,1.0,1.0,part_1,,,,,,,,,,,,,white,flipped triangle
0.0,5.0,0.0,1.0,4.0,4.0,407.360540000127,1.0,1.0,part_1,,,,,,,,,,,,,cyan,I
59.0,5.0,1.0,1.0,1.0,1.0,303.51583300011947,1.0,1.0,part_1,,,,,,,,,,,,,cyan,I
59.0,1.0,1.0,0.0,3.0,3.0,284.673741000006,1.0,1.0,part_1,,,,,,,,,,,,,orange,circle
413.0,8.0,4.0,1.0,2.0,2.0,309.9079470000561,1.0,1.0,part_1,,,,,,,,,,,,,gray,square
0.0,6.0,0.0,1.0,1.0,1.0,332.5270889999956,1.0,1.0,part_1,,,,,,,,,,,,,yellow,cross
62.0,5.0,1.0,1.0,2.0,2.0,429.2073920000803,1.0,1.0,part_1,,,,,,,,,,,,,cyan,I
183.0,3.0,3.0,0.0,1.0,1.0,340.4720859998633,1.0,1.0,part_1,,,,,,,,,,,,,blue,triangle
80.0,6.0,2.0,1.0,3.0,3.0,325.9423860001789,1.0,1.0,part_1,,,,,,,,,,,,,yellow,cross
100.0,2.0,2.0,0.0,1.0,1.0,362.2961240000677,1.0,1.0,part_1,,,,,,,,,,,,,green,diamond
206.0,7.0,3.0,1.0,3.0,3.0,318.2633899998563,1.0,1.0,part_1,,,,,,,,,,,,,white,flipped triangle
194.0,7.0,3.0,1.0,3.0,3.0,403.3303290000276,1.0,1.0,part_1,,,,,,,,,,,,,white,flipped triangle
415.0,8.0,4.0,1.0,2.0,2.0,325.5434200000309,1.0,1.0,part_1,,,,,,,,,,,,,gray,square
214.0,3.0,3.0,0.0,3.0,3.0,329.0437340001517,1.0,1.0,part_1,,,,,,,,,,,,,blue,triangle
220.0,3.0,3.0,0.0,1.0,1.0,328.3373910001046,1.0,1.0,part_1,,,,,,,,,,,,,blue,triangle
75.0,1.0,1.0,0.0,1.0,1.0,343.3634020000227,1.0,1.0,part_1,,,,,,,,,,,,,orange,circle
0.0,1.0,0.0,0.0,3.0,3.0,335.8678760000657,1.0,1.0,part_1,,,,,,,,,,,,,orange,circle
0.0,5.0,0.0,1.0,1.0,1.0,342.0581800000946,1.0,1.0,part_1,,,,,,,,,,,,,cyan,I
74.0,5.0,1.0,1.0,3.0,3.0,323.6472480000429,1.0,1.0,part_1,,,,,,,,,,,,,cyan,I
27.0,1.0,1.0,0.0,1.0,1.0,326.4087009999912,1.0,1.0,part_1,,,,,,,,,,,,,orange,circle
404.0,4.0,4.0,0.0,1.0,1.0,340.8568800000466,1.0,1.0,part_1,,,,,,,,,,,,,magenta,hexagon
53.0,5.0,1.0,1.0,3.0,3.0,425.901696999972,1.0,1.0,part_1,,,,,,,,,,,,,cyan,I
182.0,3.0,3.0,0.0,4.0,4.0,340.9066379999785,1.0,1.0,part_1,,,,,,,,,,,,,blue,triangle
0.0,2.0,0.0,0.0,1.0,1.0,305.2544739998666,1.0,1.0,part_1,,,,,,,,,,,,,green,diamond
0.0,4.0,0.0,0.0,3.0,3.0,333.5513449999325,1.0,1.0,part_1,,,,,,,,,,,,,magenta,hexagon
0.0,5.0,0.0,1.0,3.0,3.0,391.8688539999948,1.0,1.0,part_1,,,,,,,,,,,,,cyan,I
393.0,8.0,4.0,1.0,3.0,3.0,392.8847250001581,1.0,1.0,part_1,,,,,,,,,,,,,gray,square
418.0,8.0,4.0,1.0,3.0,3.0,392.177398000058,1.0,1.0,part_1,,,,,,,,,,,,,gray,square
0.0,5.0,0.0,1.0,3.0,3.0,374.3276610000521,1.0,1.0,part_1,,,,,,,,,,,,,cyan,I
0.0,3.0,0.0,0.0,2.0,2.0,409.0533590001541,1.0,1.0,part_1,,,,,,,,,,,,,blue,triangle
114.0,6.0,2.0,1.0,2.0,2.0,388.6788369998157,1.0,1.0,part_1,,,,,,,,,,,,,yellow,cross
70.0,1.0,1.0,0.0,3.0,3.0,354.9267260000306,1.0,1.0,part_1,,,,,,,,,,,,,orange,circle
406.0,4.0,4.0,0.0,3.0,3.0,336.8855349999649,1.0,1.0,part_1,,,,,,,,,,,,,magenta,hexagon
41.0,5.0,1.0,1.0,3.0,3.0,340.7202539999616,1.0,1.0,part_1,,,,,,,,,,,,,cyan,I
183.0,3.0,3.0,0.0,4.0,4.0,403.4079089999522,1.0,1.0,part_1,,,,,,,,,,,,,blue,triangle
118.0,6.0,2.0,1.0,3.0,3.0,313.1268209999689,1.0,1.0,part_1,,,,,,,,,,,,,yellow,cross
412.0,8.0,4.0,1.0,4.0,4.0,379.7315739998339,1.0,1.0,part_1,,,,,,,,,,,,,gray,square
424.0,8.0,4.0,1.0,4.0,4.0,344.2497270000331,1.0,1.0,part_1,,,,,,,,,,,,,gray,square
185.0,7.0,3.0,1.0,2.0,2.0,355.1387519999025,1.0,1.0,part_1,,,,,,,,,,,,,white,flipped triangle
0.0,2.0,0.0,0.0,1.0,1.0,338.6828299999251,1.0,1.0,part_1,,,,,,,,,,,,,green,diamond
182.0,3.0,3.0,0.0,4.0,4.0,441.9288750000305,1.0,2.0,part_1,,,,,,,,,,,,,blue,triangle
26.0,1.0,1.0,0.0,2.0,2.0,348.8195959998847,1.0,1.0,part_1,,,,,,,,,,,,,orange,circle
394.0,4.0,4.0,0.0,1.0,1.0,352.7730180001072,1.0,1.0,part_1,,,,,,,,,,,,,magenta,hexagon
94.0,2.0,2.0,0.0,4.0,4.0,471.2949100000969,1.0,1.0,part_1,,,,,,,,,,,,,green,diamond
56.0,5.0,1.0,1.0,2.0,2.0,351.5560010000627,1.0,1.0,part_1,,,,,,,,,,,,,cyan,I
184.0,3.0,3.0,0.0,4.0,4.0,389.5642620000217,1.0,1.0,part_1,,,,,,,,,,,,,blue,triangle
202.0,7.0,3.0,1.0,2.0,2.0,431.5624949999801,1.0,1.0,part_1,,,,,,,,,,,,,white,flipped triangle
407.0,8.0,4.0,1.0,1.0,1.0,404.1101110001364,1.0,1.0,part_1,,,,,,,,,,,,,gray,square
79.0,6.0,2.0,1.0,3.0,3.0,326.6105400000469,1.0,1.0,part_1,,,,,,,,,,,,,yellow,cross
0.0,4.0,0.0,0.0,4.0,4.0,338.9342200000556,1.0,1.0,part_1,,,,,,,,,,,,,magenta,hexagon
390.0,8.0,4.0,1.0,3.0,3.0,382.1336860000883,1.0,1.0,part_1,,,,,,,,,,,,,gray,square
400.0,8.0,4.0,1.0,2.0,2.0,469.4532040000467,1.0,1.0,part_1,,,,,,,,,,,,,gray,square
60.0,1.0,1.0,0.0,1.0,1.0,309.0092799998274,1.0,1.0,part_1,,,,,,,,,,,,,orange,circle
177.0,3.0,3.0,0.0,1.0,1.0,331.0421940000196,1.0,1.0,part_1,,,,,,,,,,,,,blue,triangle
183.0,7.0,3.0,1.0,1.0,1.0,394.1084900000078,1.0,1.0,part_1,,,,,,,,,,,,,white,flipped triangle
114.0,2.0,2.0,0.0,4.0,4.0,404.4273919998886,1.0,1.0,part_1,,,,,,,,,,,,,green,diamond
212.0,7.0,3.0,1.0,1.0,1.0,348.995092999985,1.0,1.0,part_1,,,,,,,,,,,,,white,flipped triangle
74.0,1.0,1.0,0.0,1.0,1.0,310.6624829999873,1.0,1.0,part_1,,,,,,,,,,,,,orange,circle
0.0,7.0,0.0,1.0,1.0,1.0,301.6417660001025,1.0,1.0,part_1,,,,,,,,,,,,,white,flipped triangle
194.0,3.0,3.0,0.0,4.0,4.0,420.8930110000892,1.0,1.0,part_1,,,,,,,,,,,,,blue,triangle
214.0,7.0,3.0,1.0,4.0,4.0,431.2736469998981,1.0,1.0,part_1,,,,,,,,,,,,,white,flipped triangle
0.0,8.0,0.0,1.0,3.0,3.0,387.5362130002031,1.0,1.0,part_1,,,,,,,,,,,,,gray,square
183.0,7.0,3.0,1.0,2.0,2.0,332.5235749998683,1.0,1.0,part_1,,,,,,,,,,,,,white,flipped triangle
62.0,5.0,1.0,1.0,4.0,4.0,394.8606330000075,1.0,1.0,part_1,,,,,,,,,,,,,cyan,I
0.0,4.0,0.0,0.0,2.0,2.0,396.398556999884,1.0,1.0,part_1,,,,,,,,,,,,,magenta,hexagon
216.0,3.0,3.0,0.0,2.0,2.0,354.6839040000122,1.0,1.0,part_1,,,,,,,,,,,,,blue,triangle
423.0,8.0,4.0,1.0,2.0,2.0,343.9909310000075,1.0,1.0,part_1,,,,,,,,,,,,,gray,square
121.0,2.0,2.0,0.0,3.0,3.0,353.8527020000401,1.0,1.0,part_1,,,,,,,,,,,,,green,diamond
118.0,6.0,2.0,1.0,4.0,4.0,411.4321939998717,1.0,1.0,part_1,,,,,,,,,,,,,yellow,cross
0.0,4.0,0.0,0.0,3.0,3.0,317.3039430000699,1.0,1.0,part_1,,,,,,,,,,,,,magenta,hexagon
83.0,2.0,2.0,0.0,1.0,1.0,322.1707619998142,1.0,1.0,part_1,,,,,,,,,,,,,green,diamond
118.0,2.0,2.0,0.0,2.0,2.0,384.7364560001551,1.0,1.0,part_1,,,,,,,,,,,,,green,diamond
115.0,6.0,2.0,1.0,4.0,4.0,336.6403269999409,1.0,1.0,part_1,,,,,,,,,,,,,yellow,cross
224.0,3.0,3.0,0.0,3.0,3.0,330.4405999999744,1.0,1.0,part_1,,,,,,,,,,,,,blue,triangle
0.0,8.0,0.0,1.0,1.0,1.0,296.9933809999929,1.0,1.0,part_1,,,,,,,,,,,,,gray,square
38.0,1.0,1.0,0.0,3.0,3.0,393.1988500000898,1.0,1.0,part_1,,,,,,,,,,,,,orange,circle
56.0,5.0,1.0,1.0,2.0,2.0,300.5240900001809,1.0,1.0,part_1,,,,,,,,,,,,,cyan,I
56.0,1.0,1.0,0.0,2.0,2.0,319.1273769998588,1.0,1.0,part_1,,,,,,,,,,,,,orange,circle
101.0,2.0,2.0,0.0,2.0,2.0,311.4756330001,1.0,1.0,part_1,,,,,,,,,,,,,green,diamond
210.0,3.0,3.0,0.0,1.0,1.0,332.4944749999758,1.0,1.0,part_1,,,,,,,,,,,,,blue,triangle
378.0,8.0,4.0,1.0,1.0,1.0,337.0869039999888,1.0,1.0,part_1,,,,,,,,,,,,,gray,square
71.0,1.0,1.0,0.0,2.0,2.0,364.00558299988,1.0,1.0,part_1,,,,,,,,,,,,,orange,circle
199.0,7.0,3.0,1.0,1.0,1.0,293.9086330000009,1.0,1.0,part_1,,,,,,,,,,,,,white,flipped triangle
103.0,2.0,2.0,0.0,4.0,4.0,351.7290500001309,1.0,1.0,part_1,,,,,,,,,,,,,green,diamond
182.0,7.0,3.0,1.0,1.0,1.0,331.1604949999491,1.0,1.0,part_1,,,,,,,,,,,,,white,flipped triangle
60.0,1.0,1.0,0.0,2.0,2.0,369.6369689998846,1.0,1.0,part_1,,,,,,,,,,,,,orange,circle
413.0,8.0,4.0,1.0,4.0,4.0,419.5538750000196,1.0,1.0,part_1,,,,,,,,,,,,,gray,square
406.0,8.0,4.0,1.0,3.0,3.0,402.8710830000364,1.0,1.0,part_1,,,,,,,,,,,,,gray,square
415.0,8.0,4.0,1.0,1.0,1.0,344.2954039999222,2.0,1.0,part_1,,,,,,,,,,,,,gray,square
91.0,6.0,2.0,1.0,2.0,2.0,338.9305160001186,2.0,1.0,part_1,,,,,,,,,,,,,yellow,cross
34.0,1.0,1.0,0.0,1.0,1.0,309.2735889999858,2.0,1.0,part_1,,,,,,,,,,,,,orange,circle
0.0,5.0,0.0,1.0,1.0,1.0,292.2641440000006,2.0,1.0,part_1,,,,,,,,,,,,,cyan,I
0.0,2.0,0.0,0.0,4.0,4.0,342.3554309999872,2.0,1.0,part_1,,,,,,,,,,,,,green,diamond
56.0,5.0,1.0,1.0,3.0,3.0,334.4438369999807,2.0,1.0,part_1,,,,,,,,,,,,,cyan,I
42.0,5.0,1.0,1.0,4.0,4.0,416.128216000061,2.0,1.0,part_1,,,,,,,,,,,,,cyan,I
388.0,8.0,4.0,1.0,4.0,4.0,427.3912890000702,2.0,1.0,part_1,,,,,,,,,,,,,gray,square
175.0,3.0,3.0,0.0,3.0,3.0,429.8524420000831,2.0,1.0,part_1,,,,,,,,,,,,,blue,triangle
0.0,7.0,0.0,1.0,1.0,1.0,310.0461060000725,2.0,1.0,part_1,,,,,,,,,,,,,white,flipped triangle
388.0,4.0,4.0,0.0,3.0,3.0,385.8740510002008,2.0,1.0,part_1,,,,,,,,,,,,,magenta,hexagon
0.0,5.0,0.0,1.0,4.0,4.0,380.0479379999615,2.0,1.0,part_1,,,,,,,,,,,,,cyan,I
32.0,1.0,1.0,0.0,1.0,1.0,253.268036999998,2.0,1.0,part_1,,,,,,,,,,,,,orange,circle
0.0,7.0,0.0,1.0,1.0,1.0,283.3997489999547,2.0,1.0,part_1,,,,,,,,,,,,,white,flipped triangle
377.0,8.0,4.0,1.0,1.0,1.0,345.5537370000456,2.0,1.0,part_1,,,,,,,,,,,,,gray,square
407.0,4.0,4.0,0.0,2.0,2.0,353.568745000075,2.0,1.0,part_1,,,,,,,,,,,,,magenta,hexagon
0.0,5.0,0.0,1.0,4.0,4.0,387.7002530000482,2.0,1.0,part_1,,,,,,,,,,,,,cyan,I
0.0,3.0,0.0,0.0,3.0,3.0,350.3749949998109,2.0,1.0,part_1,,,,,,,,,,,,,blue,triangle
384.0,4.0,4.0,0.0,4.0,4.0,396.0130280001976,2.0,1.0,part_1,,,,,,,,,,,,,magenta,hexagon
199.0,3.0,3.0,0.0,2.0,2.0,441.4976370001113,2.0,1.0,part_1,,,,,,,,,,,,,blue,triangle
0.0,2.0,0.0,0.0,1.0,1.0,310.523183999976,2.0,1.0,part_1,,,,,,,,,,,,,green,diamond
97.0,2.0,2.0,0.0,1.0,1.0,379.2603130000316,2.0,1.0,part_1,,,,,,,,,,,,,green,diamond
377.0,4.0,4.0,0.0,4.0,4.0,355.3654929999084,2.0,1.0,part_1,,,,,,,,,,,,,magenta,hexagon
88.0,6.0,2.0,1.0,1.0,1.0,299.0850809999301,2.0,1.0,part_1,,,,,,,,,,,,,yellow,cross
54.0,1.0,1.0,0.0,4.0,4.0,385.4985359998863,2.0,1.0,part_1,,,,,,,,,,,,,orange,circle
112.0,2.0,2.0,0.0,1.0,1.0,294.9988070001836,2.0,1.0,part_1,,,,,,,,,,,,,green,diamond
0.0,6.0,0.0,1.0,1.0,1.0,389.8317119999319,2.0,1.0,part_1,,,,,,,,,,,,,yellow,cross
402.0,8.0,4.0,1.0,2.0,2.0,302.5881849998768,2.0,1.0,part_1,,,,,,,,,,,,,gray,square
91.0,6.0,2.0,1.0,3.0,3.0,322.6523339999403,2.0,1.0,part_1,,,,,,,,,,,,,yellow,cross
0.0,1.0,0.0,0.0,1.0,1.0,325.3777599998102,2.0,1.0,part_1,,,,,,,,,,,,,orange,circle
0.0,7.0,0.0,1.0,1.0,1.0,310.1897169999574,2.0,1.0,part_1,,,,,,,,,,,,,white,flipped triangle
202.0,3.0,3.0,0.0,2.0,2.0,403.2998440000028,2.0,1.0,part_1,,,,,,,,,,,,,blue,triangle
69.0,1.0,1.0,0.0,4.0,4.0,424.2177630001151,2.0,2.0,part_1,,,,,,,,,,,,,orange,circle
415.0,4.0,4.0,0.0,2.0,2.0,282.8558740000062,2.0,1.0,part_1,,,,,,,,,,,,,magenta,hexagon
393.0,4.0,4.0,0.0,1.0,1.0,347.212245000037,2.0,1.0,part_1,,,,,,,,,,,,,magenta,hexagon
0.0,8.0,0.0,1.0,1.0,1.0,370.4970819999289,2.0,1.0,part_1,,,,,,,,,,,,,gray,square
118.0,2.0,2.0,0.0,4.0,4.0,495.8227160000206,2.0,1.0,part_1,,,,,,,,,,,,,green,diamond
0.0,6.0,0.0,1.0,2.0,2.0,353.0427170001076,2.0,1.0,part_1,,,,,,,,,,,,,yellow,cross
208.0,7.0,3.0,1.0,4.0,4.0,481.611778000115,2.0,1.0,part_1,,,,,,,,,,,,,white,flipped triangle
87.0,2.0,2.0,0.0,1.0,1.0,310.1249179999286,2.0,1.0,part_1,,,,,,,,,,,,,green,diamond
224.0,7.0,3.0,1.0,3.0,3.0,347.374992999903,2.0,1.0,part_1,,,,,,,,,,,,,white,flipped triangle
42.0,1.0,1.0,0.0,4.0,4.0,426.7125349999787,2.0,1.0,part_1,,,,,,,,,,,,,orange,circle
404.0,8.0,4.0,1.0,2.0,2.0,306.4759549999962,2.0,1.0,part_1,,,,,,,,,,,,,gray,square
0.0,7.0,0.0,1.0,1.0,1.0,323.76106300012,2.0,1.0,part_1,,,,,,,,,,,,,white,flipped triangle
0.0,1.0,0.0,0.0,4.0,4.0,349.8507929998595,2.0,1.0,part_1,,,,,,,,,,,,,orange,circle
97.0,6.0,2.0,1.0,3.0,3.0,383.9206790000844,2.0,1.0,part_1,,,,,,,,,,,,,yellow,cross
55.0,5.0,1.0,1.0,3.0,3.0,401.1255020000135,2.0,1.0,part_1,,,,,,,,,,,,,cyan,I
79.0,2.0,2.0,0.0,2.0,2.0,320.4484899999897,2.0,1.0,part_1,,,,,,,,,,,,,green,diamond
121.0,6.0,2.0,1.0,1.0,1.0,280.9534709999752,2.0,1.0,part_1,,,,,,,,,,,,,yellow,cross
382.0,4.0,4.0,0.0,1.0,1.0,281.5503010001521,2.0,1.0,part_1,,,,,,,,,,,,,magenta,hexagon
387.0,8.0,4.0,1.0,2.0,2.0,339.1323800001373,2.0,1.0,part_1,,,,,,,,,,,,,gray,square
100.0,6.0,2.0,1.0,3.0,3.0,388.3259309995992,2.0,1.0,part_1,,,,,,,,,,,,,yellow,cross
206.0,3.0,3.0,0.0,3.0,3.0,393.0311760000222,2.0,1.0,part_1,,,,,,,,,,,,,blue,triangle
108.0,2.0,2.0,0.0,4.0,4.0,417.623898000329,2.0,1.0,part_1,,,,,,,,,,,,,green,diamond
52.0,1.0,1.0,0.0,2.0,2.0,284.8047829997995,2.0,1.0,part_1,,,,,,,,,,,,,orange,circle
212.0,3.0,3.0,0.0,4.0,4.0,359.5547790000637,2.0,1.0,part_1,,,,,,,,,,,,,blue,triangle
404.0,4.0,4.0,0.0,4.0,4.0,445.441693000248,2.0,1.0,part_1,,,,,,,,,,,,,magenta,hexagon
68.0,1.0,1.0,0.0,1.0,1.0,305.973917999836,2.0,1.0,part_1,,,,,,,,,,,,,orange,circle
25.0,5.0,1.0,1.0,4.0,4.0,467.9119860002174,2.0,1.0,part_1,,,,,,,,,,,,,cyan,I
0.0,2.0,0.0,0.0,1.0,1.0,372.309548999965,2.0,1.0,part_1,,,,,,,,,,,,,green,diamond
406.0,4.0,4.0,0.0,2.0,2.0,261.5989219998482,2.0,1.0,part_1,,,,,,,,,,,,,magenta,hexagon
390.0,8.0,4.0,1.0,3.0,3.0,340.3259450001314,2.0,1.0,part_1,,,,,,,,,,,,,gray,square
34.0,5.0,1.0,1.0,2.0,2.0,331.3175260000207,2.0,1.0,part_1,,,,,,,,,,,,,cyan,I
414.0,8.0,4.0,1.0,1.0,1.0,281.8843079999169,2.0,1.0,part_1,,,,,,,,,,,,,gray,square
26.0,5.0,1.0,1.0,2.0,2.0,288.6279210001703,2.0,1.0,part_1,,,,,,,,,,,,,cyan,I
68.0,1.0,1.0,0.0,3.0,3.0,426.8859769999835,2.0,1.0,part_1,,,,,,,,,,,,,orange,circle
112.0,6.0,2.0,1.0,4.0,4.0,416.3316650001434,2.0,1.0,part_1,,,,,,,,,,,,,yellow,cross
83.0,6.0,2.0,1.0,1.0,1.0,268.2058109999161,2.0,1.0,part_1,,,,,,,,,,,,,yellow,cross
89.0,2.0,2.0,0.0,1.0,1.0,309.7827500000676,2.0,1.0,part_1,,,,,,,,,,,,,green,diamond
68.0,5.0,1.0,1.0,1.0,1.0,304.7034790001817,2.0,1.0,part_1,,,,,,,,,,,,,cyan,I
79.0,2.0,2.0,0.0,3.0,3.0,370.7507550002447,2.0,1.0,part_1,,,,,,,,,,,,,green,diamond
187.0,7.0,3.0,1.0,3.0,3.0,358.6081670000567,2.0,1.0,part_1,,,,,,,,,,,,,white,flipped triangle
0.0,1.0,0.0,0.0,4.0,4.0,466.1321019998468,2.0,1.0,part_1,,,,,,,,,,,,,orange,circle
35.0,1.0,1.0,0.0,4.0,4.0,406.7566710000392,2.0,1.0,part_1,,,,,,,,,,,,,orange,circle
61.0,1.0,1.0,0.0,4.0,4.0,396.0141449997536,2.0,1.0,part_1,,,,,,,,,,,,,orange,circle
61.0,5.0,1.0,1.0,4.0,4.0,401.4031649999197,2.0,1.0,part_1,,,,,,,,,,,,,cyan,I
396.0,8.0,4.0,1.0,2.0,2.0,312.7383710002505,2.0,1.0,part_1,,,,,,,,,,,,,gray,square
402.0,4.0,4.0,0.0,3.0,3.0,367.0023489999039,2.0,1.0,part_1,,,,,,,,,,,,,magenta,hexagon
0.0,7.0,0.0,1.0,4.0,4.0,410.9468990000096,2.0,1.0,part_1,,,,,,,,,,,,,white,flipped triangle
37.0,1.0,1.0,0.0,4.0,4.0,460.6924639997487,2.0,1.0,part_1,,,,,,,,,,,,,orange,circle
111.0,2.0,2.0,0.0,2.0,2.0,285.3427049999482,2.0,1.0,part_1,,,,,,,,,,,,,green,diamond
120.0,2.0,2.0,0.0,2.0,2.0,356.6293919998315,2.0,1.0,part_1,,,,,,,,,,,,,green,diamond
0.0,6.0,0.0,1.0,4.0,4.0,382.0150339997781,2.0,1.0,part_1,,,,,,,,,,,,,yellow,cross
116.0,2.0,2.0,0.0,4.0,4.0,488.6161529998389,2.0,1.0,part_1,,,,,,,,,,,,,green,diamond
387.0,4.0,4.0,0.0,2.0,2.0,321.0362280001391,2.0,1.0,part_1,,,,,,,,,,,,,magenta,hexagon
56.0,1.0,1.0,0.0,3.0,3.0,383.2898059999934,2.0,1.0,part_1,,,,,,,,,,,,,orange,circle
55.0,1.0,1.0,0.0,3.0,3.0,405.8483939998041,2.0,1.0,part_1,,,,,,,,,,,,,orange,circle
185.0,3.0,3.0,0.0,4.0,4.0,384.4508570000471,2.0,1.0,part_1,,,,,,,,,,,,,blue,triangle
25.0,1.0,1.0,0.0,3.0,3.0,404.7280710001359,2.0,1.0,part_1,,,,,,,,,,,,,orange,circle
86.0,2.0,2.0,0.0,3.0,3.0,379.8352270000578,2.0,1.0,part_1,,,,,,,,,,,,,green,diamond
187.0,3.0,3.0,0.0,3.0,3.0,365.1727619999292,2.0,1.0,part_1,,,,,,,,,,,,,blue,triangle
90.0,6.0,2.0,1.0,4.0,4.0,376.5036039999359,2.0,1.0,part_1,,,,,,,,,,,,,yellow,cross
390.0,4.0,4.0,0.0,4.0,4.0,430.6180829998993,2.0,1.0,part_1,,,,,,,,,,,,,magenta,hexagon
0.0,8.0,0.0,1.0,1.0,1.0,337.3138770002697,2.0,1.0,part_1,,,,,,,,,,,,,gray,square
83.0,2.0,2.0,0.0,3.0,3.0,437.2283620000416,2.0,1.0,part_1,,,,,,,,,,,,,green,diamond
49.0,5.0,1.0,1.0,1.0,1.0,319.9147049999737,2.0,1.0,part_1,,,,,,,,,,,,,cyan,I
116.0,2.0,2.0,0.0,1.0,1.0,356.0257369999817,2.0,1.0,part_1,,,,,,,,,,,,,green,diamond
218.0,3.0,3.0,0.0,2.0,2.0,582.2072989999469,2.0,1.0,part_1,,,,,,,,,,,,,blue,triangle
116.0,6.0,2.0,1.0,4.0,4.0,343.9738339998257,2.0,1.0,part_1,,,,,,,,,,,,,yellow,cross
378.0,4.0,4.0,0.0,4.0,4.0,351.6858440002579,2.0,1.0,part_1,,,,,,,,,,,,,magenta,hexagon
206.0,3.0,3.0,0.0,1.0,1.0,352.2365680000803,3.0,1.0,part_1,,,,,,,,,,,,,blue,triangle
0.0,6.0,0.0,1.0,4.0,4.0,348.4470299999884,3.0,1.0,part_1,,,,,,,,,,,,,yellow,cross
418.0,4.0,4.0,0.0,4.0,4.0,373.8529190000008,3.0,2.0,part_1,,,,,,,,,,,,,magenta,hexagon
187.0,3.0,3.0,0.0,3.0,3.0,383.0288560002373,3.0,1.0,part_1,,,,,,,,,,,,,blue,triangle
187.0,7.0,3.0,1.0,1.0,1.0,304.1785019995586,3.0,1.0,part_1,,,,,,,,,,,,,white,flipped triangle
52.0,5.0,1.0,1.0,3.0,3.0,381.0369840002749,3.0,1.0,part_1,,,,,,,,,,,,,cyan,I
104.0,6.0,2.0,1.0,3.0,3.0,327.4418580003839,3.0,1.0,part_1,,,,,,,,,,,,,yellow,cross
206.0,7.0,3.0,1.0,2.0,2.0,288.3436789998086,3.0,1.0,part_1,,,,,,,,,,,,,white,flipped triangle
379.0,4.0,4.0,0.0,1.0,1.0,327.4098199999571,3.0,1.0,part_1,,,,,,,,,,,,,magenta,hexagon
0.0,3.0,0.0,0.0,4.0,4.0,361.335826999948,3.0,1.0,part_1,,,,,,,,,,,,,blue,triangle
34.0,5.0,1.0,1.0,1.0,1.0,334.370872999898,3.0,1.0,part_1,,,,,,,,,,,,,cyan,I
0.0,3.0,0.0,0.0,1.0,1.0,291.5403040001365,3.0,1.0,part_1,,,,,,,,,,,,,blue,triangle
175.0,7.0,3.0,1.0,1.0,1.0,331.0248239999964,3.0,1.0,part_1,,,,,,,,,,,,,white,flipped triangle
203.0,3.0,3.0,0.0,2.0,2.0,355.5826540000453,3.0,1.0,part_1,,,,,,,,,,,,,blue,triangle
397.0,8.0,4.0,1.0,1.0,1.0,324.6758689997477,3.0,1.0,part_1,,,,,,,,,,,,,gray,square
108.0,6.0,2.0,1.0,2.0,2.0,262.2527759999684,3.0,1.0,part_1,,,,,,,,,,,,,yellow,cross
0.0,4.0,0.0,0.0,1.0,1.0,278.1794099996659,3.0,1.0,part_1,,,,,,,,,,,,,magenta,hexagon
123.0,2.0,2.0,0.0,3.0,3.0,309.6801540000342,3.0,1.0,part_1,,,,,,,,,,,,,green,diamond
0.0,5.0,0.0,1.0,2.0,2.0,323.4075519999351,3.0,1.0,part_1,,,,,,,,,,,,,cyan,I
197.0,7.0,3.0,1.0,4.0,4.0,419.323747999897,3.0,1.0,part_1,,,,,,,,,,,,,white,flipped triangle
208.0,3.0,3.0,0.0,1.0,1.0,327.0641990002332,3.0,1.0,part_1,,,,,,,,,,,,,blue,triangle
413.0,4.0,4.0,0.0,2.0,2.0,272.556218000318,3.0,1.0,part_1,,,,,,,,,,,,,magenta,hexagon
37.0,5.0,1.0,1.0,4.0,4.0,466.4922140000271,3.0,1.0,part_1,,,,,,,,,,,,,cyan,I
35.0,1.0,1.0,0.0,1.0,1.0,263.3351019999281,3.0,1.0,part_1,,,,,,,,,,,,,orange,circle
177.0,3.0,3.0,0.0,3.0,3.0,350.2778649999527,3.0,1.0,part_1,,,,,,,,,,,,,blue,triangle
0.0,3.0,0.0,0.0,3.0,3.0,377.4145459997271,3.0,1.0,part_1,,,,,,,,,,,,,blue,triangle
54.0,5.0,1.0,1.0,1.0,1.0,312.4777150001137,3.0,1.0,part_1,,,,,,,,,,,,,cyan,I
80.0,2.0,2.0,0.0,2.0,2.0,254.437104000317,3.0,1.0,part_1,,,,,,,,,,,,,green,diamond
0.0,1.0,0.0,0.0,1.0,1.0,322.1902279997266,3.0,1.0,part_1,,,,,,,,,,,,,orange,circle
394.0,8.0,4.0,1.0,3.0,3.0,443.141622999974,3.0,1.0,part_1,,,,,,,,,,,,,gray,square
209.0,7.0,3.0,1.0,3.0,3.0,448.2980259999749,3.0,1.0,part_1,,,,,,,,,,,,,white,flipped triangle
0.0,4.0,0.0,0.0,4.0,4.0,450.6777269998565,3.0,1.0,part_1,,,,,,,,,,,,,magenta,hexagon
89.0,6.0,2.0,1.0,2.0,2.0,325.7580139998026,3.0,1.0,part_1,,,,,,,,,,,,,yellow,cross
387.0,8.0,4.0,1.0,4.0,4.0,392.8306500001781,3.0,1.0,part_1,,,,,,,,,,,,,gray,square
390.0,8.0,4.0,1.0,3.0,3.0,359.8389660000975,3.0,1.0,part_1,,,,,,,,,,,,,gray,square
41.0,1.0,1.0,0.0,2.0,2.0,472.8743989999202,3.0,1.0,part_1,,,,,,,,,,,,,orange,circle
0.0,7.0,0.0,1.0,2.0,2.0,375.6976139998187,3.0,1.0,part_1,,,,,,,,,,,,,white,flipped triangle
0.0,3.0,0.0,0.0,4.0,4.0,385.5604740001581,3.0,1.0,part_1,,,,,,,,,,,,,blue,triangle
409.0,4.0,4.0,0.0,1.0,1.0,308.711126000162,3.0,1.0,part_1,,,,,,,,,,,,,magenta,hexagon
70.0,5.0,1.0,1.0,2.0,2.0,365.0818400001299,3.0,1.0,part_1,,,,,,,,,,,,,cyan,I
224.0,3.0,3.0,0.0,4.0,4.0,388.8781059999928,3.0,1.0,part_1,,,,,,,,,,,,,blue,triangle
177.0,7.0,3.0,1.0,2.0,2.0,331.7971520000355,3.0,1.0,part_1,,,,,,,,,,,,,white,flipped triangle
415.0,4.0,4.0,0.0,3.0,3.0,371.9402510000691,3.0,1.0,part_1,,,,,,,,,,,,,magenta,hexagon
95.0,2.0,2.0,0.0,3.0,3.0,346.3477710001825,3.0,1.0,part_1,,,,,,,,,,,,,green,diamond
0.0,7.0,0.0,1.0,2.0,2.0,360.9437439999965,3.0,1.0,part_1,,,,,,,,,,,,,white,flipped triangle
45.0,5.0,1.0,1.0,2.0,2.0,378.8370010001927,3.0,1.0,part_1,,,,,,,,,,,,,cyan,I
0.0,3.0,0.0,0.0,4.0,4.0,410.7191260000036,3.0,1.0,part_1,,,,,,,,,,,,,blue,triangle
0.0,5.0,0.0,1.0,3.0,3.0,453.8362859998415,3.0,1.0,part_1,,,,,,,,,,,,,cyan,I
400.0,4.0,4.0,0.0,4.0,4.0,419.7486400003072,3.0,1.0,part_1,,,,,,,,,,,,,magenta,hexagon
393.0,8.0,4.0,1.0,4.0,4.0,359.20265499999,3.0,1.0,part_1,,,,,,,,,,,,,gray,square
0.0,1.0,0.0,0.0,4.0,4.0,359.7613760002787,3.0,1.0,part_1,,,,,,,,,,,,,orange,circle
41.0,5.0,1.0,1.0,1.0,1.0,302.9069599997456,3.0,1.0,part_1,,,,,,,,,,,,,cyan,I
75.0,6.0,2.0,1.0,4.0,4.0,344.465191999916,3.0,1.0,part_1,,,,,,,,,,,,,yellow,cross
177.0,7.0,3.0,1.0,3.0,3.0,343.822924000051,3.0,1.0,part_1,,,,,,,,,,,,,white,flipped triangle
415.0,4.0,4.0,0.0,1.0,1.0,302.5057840000045,3.0,1.0,part_1,,,,,,,,,,,,,magenta,hexagon
74.0,5.0,1.0,1.0,1.0,1.0,309.3852899996818,3.0,1.0,part_1,,,,,,,,,,,,,cyan,I
104.0,2.0,2.0,0.0,1.0,1.0,325.6579700000657,3.0,1.0,part_1,,,,,,,,,,,,,green,diamond
201.0,7.0,3.0,1.0,3.0,3.0,369.8349649998818,3.0,1.0,part_1,,,,,,,,,,,,,white,flipped triangle
35.0,5.0,1.0,1.0,3.0,3.0,481.5249640000729,3.0,2.0,part_1,,,,,,,,,,,,,cyan,I
94.0,6.0,2.0,1.0,1.0,1.0,354.6397739996791,3.0,1.0,part_1,,,,,,,,,,,,,yellow,cross
218.0,7.0,3.0,1.0,2.0,2.0,354.9247529999775,3.0,1.0,part_1,,,,,,,,,,,,,white,flipped triangle
404.0,8.0,4.0,1.0,4.0,4.0,348.0520180000894,3.0,1.0,part_1,,,,,,,,,,,,,gray,square
68.0,5.0,1.0,1.0,1.0,1.0,288.7745510001878,3.0,1.0,part_1,,,,,,,,,,,,,cyan,I
77.0,6.0,2.0,1.0,1.0,1.0,442.3255649999191,3.0,1.0,part_1,,,,,,,,,,,,,yellow,cross
382.0,8.0,4.0,1.0,3.0,3.0,387.378124999941,3.0,1.0,part_1,,,,,,,,,,,,,gray,square
188.0,3.0,3.0,0.0,1.0,1.0,376.8263419997311,3.0,1.0,part_1,,,,,,,,,,,,,blue,triangle
71.0,5.0,1.0,1.0,2.0,2.0,297.2462289999384,3.0,1.0,part_1,,,,,,,,,,,,,cyan,I
40.0,5.0,1.0,1.0,1.0,1.0,283.0618309999408,3.0,1.0,part_1,,,,,,,,,,,,,cyan,I
35.0,5.0,1.0,1.0,1.0,1.0,286.7302439999548,3.0,1.0,part_1,,,,,,,,,,,,,cyan,I
406.0,8.0,4.0,1.0,4.0,4.0,433.1901779996769,3.0,1.0,part_1,,,,,,,,,,,,,gray,square
399.0,4.0,4.0,0.0,2.0,2.0,336.7939660001866,3.0,1.0,part_1,,,,,,,,,,,,,magenta,hexagon
53.0,1.0,1.0,0.0,1.0,1.0,321.5394289995856,3.0,1.0,part_1,,,,,,,,,,,,,orange,circle
218.0,7.0,3.0,1.0,4.0,4.0,373.1641439999293,3.0,1.0,part_1,,,,,,,,,,,,,white,flipped triangle
188.0,7.0,3.0,1.0,4.0,4.0,436.5439099997275,3.0,1.0,part_1,,,,,,,,,,,,,white,flipped triangle
216.0,3.0,3.0,0.0,1.0,1.0,350.8919169998989,3.0,1.0,part_1,,,,,,,,,,,,,blue,triangle
423.0,4.0,4.0,0.0,2.0,2.0,405.173379000189,3.0,1.0,part_1,,,,,,,,,,,,,magenta,hexagon
399.0,8.0,4.0,1.0,2.0,2.0,336.828623999736,3.0,1.0,part_1,,,,,,,,,,,,,gray,square
194.0,7.0,3.0,1.0,1.0,1.0,356.5463929999168,3.0,1.0,part_1,,,,,,,,,,,,,white,flipped triangle
34.0,5.0,1.0,1.0,4.0,4.0,384.9448139999367,3.0,1.0,part_1,,,,,,,,,,,,,cyan,I
120.0,6.0,2.0,1.0,1.0,1.0,317.5456690000828,3.0,1.0,part_1,,,,,,,,,,,,,yellow,cross
414.0,4.0,4.0,0.0,4.0,4.0,345.9232269997301,3.0,1.0,part_1,,,,,,,,,,,,,magenta,hexagon
0.0,8.0,0.0,1.0,2.0,2.0,288.2005470000877,3.0,1.0,part_1,,,,,,,,,,,,,gray,square
0.0,5.0,0.0,1.0,2.0,2.0,543.3941750002305,3.0,1.0,part_1,,,,,,,,,,,,,cyan,I
123.0,6.0,2.0,1.0,1.0,1.0,324.3282979997275,3.0,1.0,part_1,,,,,,,,,,,,,yellow,cross
214.0,3.0,3.0,0.0,3.0,3.0,387.821270999666,3.0,1.0,part_1,,,,,,,,,,,,,blue,triangle
34.0,1.0,1.0,0.0,4.0,4.0,411.6469730001881,3.0,1.0,part_1,,,,,,,,,,,,,orange,circle
388.0,8.0,4.0,1.0,2.0,2.0,309.747876000074,3.0,1.0,part_1,,,,,,,,,,,,,gray,square
203.0,7.0,3.0,1.0,4.0,4.0,305.3020770003058,3.0,1.0,part_1,,,,,,,,,,,,,white,flipped triangle
209.0,3.0,3.0,0.0,2.0,2.0,354.680780000308,3.0,1.0,part_1,,,,,,,,,,,,,blue,triangle
0.0,8.0,0.0,1.0,3.0,3.0,368.8534240000081,3.0,1.0,part_1,,,,,,,,,,,,,gray,square
27.0,5.0,1.0,1.0,4.0,4.0,426.8864999999096,3.0,1.0,part_1,,,,,,,,,,,,,cyan,I
379.0,8.0,4.0,1.0,1.0,1.0,351.4299700000265,3.0,1.0,part_1,,,,,,,,,,,,,gray,square
0.0,4.0,0.0,0.0,3.0,3.0,391.9808480000029,3.0,1.0,part_1,,,,,,,,,,,,,magenta,hexagon
224.0,3.0,3.0,0.0,3.0,3.0,418.2411339997998,3.0,1.0,part_1,,,,,,,,,,,,,blue,triangle
413.0,4.0,4.0,0.0,4.0,4.0,397.830994999822,3.0,1.0,part_1,,,,,,,,,,,,,magenta,hexagon
194.0,3.0,3.0,0.0,2.0,2.0,337.4404959999992,3.0,1.0,part_1,,,,,,,,,,,,,blue,triangle
60.0,5.0,1.0,1.0,4.0,4.0,384.2464899998958,3.0,1.0,part_1,,,,,,,,,,,,,cyan,I
75.0,2.0,2.0,0.0,3.0,3.0,446.9652699999642,3.0,1.0,part_1,,,,,,,,,,,,,green,diamond
224.0,7.0,3.0,1.0,2.0,2.0,344.9176320000333,3.0,1.0,part_1,,,,,,,,,,,,,white,flipped triangle
0.0,7.0,0.0,1.0,2.0,2.0,310.2888560001702,3.0,1.0,part_1,,,,,,,,,,,,,white,flipped triangle
184.0,7.0,3.0,1.0,3.0,3.0,418.1348020001678,4.0,1.0,part_1,,,,,,,,,,,,,white,flipped triangle
384.0,4.0,4.0,0.0,3.0,3.0,346.640772000228,4.0,1.0,part_1,,,,,,,,,,,,,magenta,hexagon
0.0,8.0,0.0,1.0,3.0,3.0,317.6782329996968,4.0,1.0,part_1,,,,,,,,,,,,,gray,square
83.0,6.0,2.0,1.0,3.0,3.0,370.3165930000978,4.0,1.0,part_1,,,,,,,,,,,,,yellow,cross
0.0,6.0,0.0,1.0,4.0,4.0,376.1843530000988,4.0,1.0,part_1,,,,,,,,,,,,,yellow,cross
45.0,1.0,1.0,0.0,3.0,3.0,841.5345110001908,4.0,1.0,part_1,,,,,,,,,,,,,orange,circle
0.0,3.0,0.0,0.0,1.0,1.0,364.2979380001634,4.0,1.0,part_1,,,,,,,,,,,,,blue,triangle
0.0,8.0,0.0,1.0,3.0,3.0,346.0458210001889,4.0,1.0,part_1,,,,,,,,,,,,,gray,square
75.0,5.0,1.0,1.0,4.0,4.0,379.66312799972,4.0,1.0,part_1,,,,,,,,,,,,,cyan,I
123.0,6.0,2.0,1.0,4.0,4.0,392.1195719999559,4.0,1.0,part_1,,,,,,,,,,,,,yellow,cross
101.0,2.0,2.0,0.0,3.0,3.0,374.3803610000213,4.0,1.0,part_1,,,,,,,,,,,,,green,diamond
0.0,1.0,0.0,0.0,1.0,1.0,344.619676000093,4.0,1.0,part_1,,,,,,,,,,,,,orange,circle
393.0,4.0,4.0,0.0,3.0,3.0,372.4429179997059,4.0,1.0,part_1,,,,,,,,,,,,,magenta,hexagon
123.0,2.0,2.0,0.0,2.0,2.0,317.6753500001723,4.0,1.0,part_1,,,,,,,,,,,,,green,diamond
41.0,1.0,1.0,0.0,4.0,4.0,383.7216599999919,4.0,1.0,part_1,,,,,,,,,,,,,orange,circle
415.0,8.0,4.0,1.0,1.0,1.0,280.8592000001226,4.0,1.0,part_1,,,,,,,,,,,,,gray,square
56.0,1.0,1.0,0.0,4.0,4.0,355.2251950000027,4.0,1.0,part_1,,,,,,,,,,,,,orange,circle
79.0,6.0,2.0,1.0,2.0,2.0,337.3024600000462,4.0,1.0,part_1,,,,,,,,,,,,,yellow,cross
46.0,1.0,1.0,0.0,4.0,4.0,348.5254070001247,4.0,1.0,part_1,,,,,,,,,,,,,orange,circle
0.0,2.0,0.0,0.0,3.0,3.0,321.7982400001347,4.0,1.0,part_1,,,,,,,,,,,,,green,diamond
412.0,4.0,4.0,0.0,3.0,3.0,388.4037180000632,4.0,1.0,part_1,,,,,,,,,,,,,magenta,hexagon
0.0,4.0,0.0,0.0,4.0,4.0,340.3986319999603,4.0,1.0,part_1,,,,,,,,,,,,,magenta,hexagon
216.0,7.0,3.0,1.0,4.0,4.0,429.8031220000666,4.0,1.0,part_1,,,,,,,,,,,,,white,flipped triangle
384.0,8.0,4.0,1.0,4.0,4.0,390.6179579998934,4.0,1.0,part_1,,,,,,,,,,,,,gray,square
0.0,3.0,0.0,0.0,1.0,1.0,327.0991819999835,4.0,1.0,part_1,,,,,,,,,,,,,blue,triangle
201.0,3.0,3.0,0.0,1.0,1.0,375.0493930001539,4.0,1.0,part_1,,,,,,,,,,,,,blue,triangle
415.0,8.0,4.0,1.0,1.0,1.0,338.0657329998939,4.0,1.0,part_1,,,,,,,,,,,,,gray,square
409.0,8.0,4.0,1.0,3.0,3.0,385.3324319998137,4.0,1.0,part_1,,,,,,,,,,,,,gray,square
393.0,8.0,4.0,1.0,3.0,3.0,334.396186000049,4.0,1.0,part_1,,,,,,,,,,,,,gray,square
397.0,4.0,4.0,0.0,1.0,1.0,285.7658469997659,4.0,1.0,part_1,,,,,,,,,,,,,magenta,hexagon
0.0,6.0,0.0,1.0,1.0,1.0,307.5045049999971,4.0,1.0,part_1,,,,,,,,,,,,,yellow,cross
38.0,5.0,1.0,1.0,3.0,3.0,377.2289539997473,4.0,1.0,part_1,,,,,,,,,,,,,cyan,I
214.0,3.0,3.0,0.0,3.0,3.0,331.6327110001111,4.0,1.0,part_1,,,,,,,,,,,,,blue,triangle
118.0,6.0,2.0,1.0,1.0,1.0,313.1363180000335,4.0,1.0,part_1,,,,,,,,,,,,,yellow,cross
384.0,8.0,4.0,1.0,4.0,4.0,354.3715719997635,4.0,1.0,part_1,,,,,,,,,,,,,gray,square
388.0,4.0,4.0,0.0,2.0,2.0,363.219620000109,4.0,1.0,part_1,,,,,,,,,,,,,magenta,hexagon
115.0,2.0,2.0,0.0,4.0,4.0,424.2349209998792,4.0,1.0,part_1,,,,,,,,,,,,,green,diamond
83.0,2.0,2.0,0.0,3.0,3.0,339.3274009999913,4.0,1.0,part_1,,,,,,,,,,,,,green,diamond
209.0,3.0,3.0,0.0,1.0,1.0,289.6071179998216,4.0,1.0,part_1,,,,,,,,,,,,,blue,triangle
0.0,1.0,0.0,0.0,3.0,3.0,355.4104790000565,4.0,1.0,part_1,,,,,,,,,,,,,orange,circle
0.0,8.0,0.0,1.0,3.0,3.0,446.5656970000964,4.0,1.0,part_1,,,,,,,,,,,,,gray,square
87.0,6.0,2.0,1.0,2.0,2.0,312.9780449999089,4.0,1.0,part_1,,,,,,,,,,,,,yellow,cross
0.0,2.0,0.0,0.0,1.0,1.0,342.5154619999375,4.0,1.0,part_1,,,,,,,,,,,,,green,diamond
0.0,4.0,0.0,0.0,2.0,2.0,326.3976709999951,4.0,1.0,part_1,,,,,,,,,,,,,magenta,hexagon
218.0,3.0,3.0,0.0,2.0,2.0,327.8046749996974,4.0,1.0,part_1,,,,,,,,,,,,,blue,triangle
85.0,2.0,2.0,0.0,2.0,2.0,324.703459000375,4.0,1.0,part_1,,,,,,,,,,,,,green,diamond
210.0,7.0,3.0,1.0,2.0,2.0,416.3558380000722,4.0,1.0,part_1,,,,,,,,,,,,,white,flipped triangle
62.0,1.0,1.0,0.0,2.0,2.0,294.7706879999714,4.0,1.0,part_1,,,,,,,,,,,,,orange,circle
0.0,6.0,0.0,1.0,4.0,4.0,343.9796150000802,4.0,1.0,part_1,,,,,,,,,,,,,yellow,cross
77.0,2.0,2.0,0.0,1.0,1.0,301.0853659998247,4.0,1.0,part_1,,,,,,,,,,,,,green,diamond
415.0,4.0,4.0,0.0,1.0,1.0,285.8544340001572,4.0,1.0,part_1,,,,,,,,,,,,,magenta,hexagon
182.0,7.0,3.0,1.0,4.0,4.0,387.9257260000486,4.0,1.0,part_1,,,,,,,,,,,,,white,flipped triangle
91.0,2.0,2.0,0.0,4.0,4.0,417.5761970000167,4.0,1.0,part_1,,,,,,,,,,,,,green,diamond
91.0,2.0,2.0,0.0,3.0,3.0,355.5613660000745,4.0,1.0,part_1,,,,,,,,,,,,,green,diamond
40.0,1.0,1.0,0.0,2.0,2.0,284.8449830003119,4.0,1.0,part_1,,,,,,,,,,,,,orange,circle
216.0,7.0,3.0,1.0,1.0,1.0,288.7011180000627,4.0,1.0,part_1,,,,,,,,,,,,,white,flipped triangle
32.0,5.0,1.0,1.0,3.0,3.0,353.699515000244,4.0,1.0,part_1,,,,,,,,,,,,,cyan,I
0.0,2.0,0.0,0.0,4.0,4.0,338.0681489998096,4.0,1.0,part_1,,,,,,,,,,,,,green,diamond
69.0,5.0,1.0,1.0,2.0,2.0,275.3389320000678,4.0,1.0,part_1,,,,,,,,,,,,,cyan,I
390.0,4.0,4.0,0.0,2.0,2.0,327.0011270001305,4.0,1.0,part_1,,,,,,,,,,,,,magenta,hexagon
0.0,3.0,0.0,0.0,4.0,4.0,396.2035839999771,4.0,1.0,part_1,,,,,,,,,,,,,blue,triangle
224.0,7.0,3.0,1.0,1.0,1.0,307.3081329998786,4.0,1.0,part_1,,,,,,,,,,,,,white,flipped triangle
85.0,6.0,2.0,1.0,2.0,2.0,295.4873819999193,4.0,1.0,part_1,,,,,,,,,,,,,yellow,cross
424.0,4.0,4.0,0.0,4.0,4.0,373.1019510000806,4.0,1.0,part_1,,,,,,,,,,,,,magenta,hexagon
0.0,1.0,0.0,0.0,3.0,3.0,394.9086340003305,4.0,1.0,part_1,,,,,,,,,,,,,orange,circle
74.0,1.0,1.0,0.0,2.0,2.0,348.1542959998478,4.0,1.0,part_1,,,,,,,,,,,,,orange,circle
101.0,6.0,2.0,1.0,1.0,1.0,317.9112509997139,4.0,1.0,part_1,,,,,,,,,,,,,yellow,cross
214.0,7.0,3.0,1.0,4.0,4.0,348.5349950001364,4.0,1.0,part_1,,,,,,,,,,,,,white,flipped triangle
214.0,7.0,3.0,1.0,2.0,2.0,332.9614980002588,4.0,1.0,part_1,,,,,,,,,,,,,white,flipped triangle
396.0,4.0,4.0,0.0,2.0,2.0,315.0378149998687,4.0,1.0,part_1,,,,,,,,,,,,,magenta,hexagon
209.0,7.0,3.0,1.0,1.0,1.0,279.4612960001359,4.0,1.0,part_1,,,,,,,,,,,,,white,flipped triangle
0.0,4.0,0.0,0.0,3.0,3.0,405.5662829996436,4.0,1.0,part_1,,,,,,,,,,,,,magenta,hexagon
88.0,2.0,2.0,0.0,2.0,2.0,320.2009330002511,4.0,1.0,part_1,,,,,,,,,,,,,green,diamond
197.0,3.0,3.0,0.0,2.0,2.0,399.2578520001189,4.0,1.0,part_1,,,,,,,,,,,,,blue,triangle
34.0,1.0,1.0,0.0,1.0,1.0,340.4970579999826,4.0,1.0,part_1,,,,,,,,,,,,,orange,circle
111.0,6.0,2.0,1.0,4.0,4.0,359.5841960000143,4.0,1.0,part_1,,,,,,,,,,,,,yellow,cross
122.0,6.0,2.0,1.0,1.0,1.0,342.8539470000942,4.0,1.0,part_1,,,,,,,,,,,,,yellow,cross
97.0,2.0,2.0,0.0,1.0,1.0,350.5009589998735,4.0,1.0,part_1,,,,,,,,,,,,,green,diamond
97.0,6.0,2.0,1.0,2.0,2.0,284.4573479997052,4.0,1.0,part_1,,,,,,,,,,,,,yellow,cross
0.0,2.0,0.0,0.0,3.0,3.0,421.4276190000419,4.0,1.0,part_1,,,,,,,,,,,,,green,diamond
0.0,6.0,0.0,1.0,3.0,3.0,438.0840019998686,4.0,1.0,part_1,,,,,,,,,,,,,yellow,cross
62.0,1.0,1.0,0.0,3.0,3.0,340.2817679998406,4.0,1.0,part_1,,,,,,,,,,,,,orange,circle
406.0,8.0,4.0,1.0,1.0,1.0,286.9101090000185,4.0,1.0,part_1,,,,,,,,,,,,,gray,square
177.0,7.0,3.0,1.0,3.0,3.0,471.4634570000271,4.0,1.0,part_1,,,,,,,,,,,,,white,flipped triangle
197.0,7.0,3.0,1.0,3.0,3.0,425.08290700016,4.0,1.0,part_1,,,,,,,,,,,,,white,flipped triangle
0.0,8.0,0.0,1.0,3.0,3.0,326.2810400001399,4.0,1.0,part_1,,,,,,,,,,,,,gray,square
103.0,6.0,2.0,1.0,4.0,4.0,399.6897460001491,4.0,1.0,part_1,,,,,,,,,,,,,yellow,cross
200.0,7.0,3.0,1.0,2.0,2.0,345.1059129997702,4.0,1.0,part_1,,,,,,,,,,,,,white,flipped triangle
220.0,7.0,3.0,1.0,4.0,4.0,415.1860369997848,4.0,1.0,part_1,,,,,,,,,,,,,white,flipped triangle
200.0,3.0,3.0,0.0,2.0,2.0,357.2206600001664,4.0,1.0,part_1,,,,,,,,,,,,,blue,triangle
122.0,2.0,2.0,0.0,4.0,4.0,398.3845379998456,4.0,1.0,part_1,,,,,,,,,,,,,green,diamond
0.0,6.0,0.0,1.0,4.0,4.0,466.7281619999812,4.0,1.0,part_1,,,,,,,,,,,,,yellow,cross
38.0,1.0,1.0,0.0,3.0,3.0,371.4511469997887,4.0,1.0,part_1,,,,,,,,,,,,,orange,circle
393.0,4.0,4.0,0.0,3.0,3.0,364.8828329996831,4.0,1.0,part_1,,,,,,,,,,,,,magenta,hexagon
116.0,6.0,2.0,1.0,2.0,2.0,321.6324279997025,4.0,1.0,part_1,,,,,,,,,,,,,yellow,cross
406.0,4.0,4.0,0.0,1.0,1.0,311.3644649997695,4.0,1.0,part_1,,,,,,,,,,,,,magenta,hexagon
177.0,3.0,3.0,0.0,4.0,4.0,378.7992269999449,4.0,1.0,part_1,,,,,,,,,,,,,blue,triangle
60.0,5.0,1.0,1.0,3.0,3.0,429.0406069999335,4.0,1.0,part_1,,,,,,,,,,,,,cyan,I
83.0,6.0,2.0,1.0,2.0,2.0,379.3411729998297,4.0,1.0,part_1,,,,,,,,,,,,,yellow,cross
0.0,1.0,0.0,0.0,3.0,3.0,385.8028249997005,4.0,1.0,part_1,,,,,,,,,,,,,orange,circle
0.0,7.0,3.0,1.0,6.0,6.0,501.36499400014145,1.0,0.0,part_2,stop,250.0,250.0,3.0,,,,,,,,,white,flipped triangle
0.0,6.0,2.0,1.0,5.0,5.0,292.4430230000325,1.0,0.0,part_2,stop,250.0,200.0,3.0,,,,,,,,,yellow,cross
0.0,6.0,2.0,1.0,5.0,5.0,308.1194209999012,1.0,0.0,part_2,stop,200.0,200.0,3.0,,,,,,,,,yellow,cross
0.0,3.0,3.0,0.0,6.0,6.0,572.3417509998399,1.0,0.0,part_2,go,150.0,200.0,1.0,,,,,,,,,blue,triangle
0.0,8.0,4.0,1.0,5.0,0.0,0.0,1.0,0.0,part_2,stop,150.0,200.0,4.0,,,,,,,,,gray,square
0.0,8.0,4.0,1.0,6.0,6.0,342.5081999998838,1.0,0.0,part_2,go,200.0,200.0,1.0,,,,,,,,,gray,square
0.0,3.0,3.0,0.0,6.0,6.0,656.7487059996893,1.0,0.0,part_2,go,200.0,200.0,1.0,,,,,,,,,blue,triangle
0.0,5.0,1.0,1.0,5.0,0.0,0.0,1.0,0.0,part_2,stop,200.0,200.0,4.0,,,,,,,,,cyan,I
0.0,5.0,1.0,1.0,5.0,0.0,0.0,1.0,0.0,part_2,stop,250.0,200.0,4.0,,,,,,,,,cyan,I
0.0,4.0,4.0,0.0,5.0,5.0,361.9330910000826,1.0,0.0,part_2,go,300.0,200.0,1.0,,,,,,,,,magenta,hexagon
0.0,7.0,3.0,1.0,6.0,6.0,737.6532140001473,1.0,0.0,part_2,go,300.0,200.0,1.0,,,,,,,,,white,flipped triangle
0.0,2.0,2.0,0.0,6.0,6.0,603.7521550001657,1.0,0.0,part_2,go,300.0,200.0,1.0,,,,,,,,,green,diamond
0.0,7.0,3.0,1.0,6.0,6.0,379.6650429999317,1.0,0.0,part_2,stop,300.0,200.0,3.0,,,,,,,,,white,flipped triangle
0.0,3.0,3.0,0.0,6.0,6.0,706.475538000177,1.0,0.0,part_2,go,300.0,150.0,1.0,,,,,,,,,blue,triangle
0.0,1.0,1.0,0.0,5.0,5.0,787.155050000365,1.0,0.0,part_2,go,300.0,150.0,1.0,,,,,,,,,orange,circle
0.0,2.0,2.0,0.0,5.0,5.0,488.8604470002065,1.0,0.0,part_2,go,300.0,150.0,1.0,,,,,,,,,green,diamond
0.0,3.0,3.0,0.0,5.0,5.0,430.7079580003119,1.0,0.0,part_2,go,300.0,150.0,1.0,,,,,,,,,blue,triangle
0.0,5.0,1.0,1.0,6.0,0.0,0.0,1.0,0.0,part_2,stop,300.0,150.0,4.0,,,,,,,,,cyan,I
0.0,7.0,3.0,1.0,5.0,5.0,469.0683040003023,1.0,0.0,part_2,stop,300.0,200.0,3.0,,,,,,,,,white,flipped triangle
0.0,5.0,1.0,1.0,6.0,6.0,528.8145929998791,1.0,0.0,part_2,go,250.0,200.0,1.0,,,,,,,,,cyan,I
0.0,5.0,1.0,1.0,5.0,5.0,635.8028899999226,1.0,0.0,part_2,go,250.0,200.0,1.0,,,,,,,,,cyan,I
0.0,1.0,1.0,0.0,6.0,6.0,574.4594679999864,1.0,0.0,part_2,go,250.0,200.0,1.0,,,,,,,,,orange,circle
0.0,2.0,2.0,0.0,6.0,6.0,512.8311929997835,1.0,0.0,part_2,go,250.0,200.0,1.0,,,,,,,,,green,diamond
0.0,5.0,1.0,1.0,5.0,0.0,0.0,1.0,0.0,part_2,stop,250.0,200.0,4.0,,,,,,,,,cyan,I
0.0,4.0,4.0,0.0,5.0,5.0,599.6360429999186,1.0,0.0,part_2,go,300.0,200.0,1.0,,,,,,,,,magenta,hexagon
0.0,6.0,2.0,1.0,6.0,6.0,367.9221330003202,1.0,0.0,part_2,go,300.0,200.0,1.0,,,,,,,,,yellow,cross
0.0,3.0,3.0,0.0,6.0,6.0,514.6077940003124,1.0,0.0,part_2,go,300.0,200.0,1.0,,,,,,,,,blue,triangle
0.0,5.0,1.0,1.0,5.0,5.0,719.0627800000584,1.0,0.0,part_2,go,300.0,200.0,1.0,,,,,,,,,cyan,I
0.0,5.0,1.0,1.0,6.0,0.0,0.0,1.0,0.0,part_2,stop,300.0,200.0,4.0,,,,,,,,,cyan,I
0.0,6.0,2.0,1.0,6.0,0.0,0.0,1.0,0.0,part_2,stop,300.0,250.0,4.0,,,,,,,,,yellow,cross
0.0,8.0,4.0,1.0,6.0,6.0,534.7161790000428,1.0,0.0,part_2,go,300.0,300.0,1.0,,,,,,,,,gray,square
0.0,2.0,2.0,0.0,5.0,5.0,592.2738330000357,1.0,0.0,part_2,go,300.0,300.0,1.0,,,,,,,,,green,diamond
0.0,6.0,2.0,1.0,6.0,6.0,493.6221859998113,1.0,0.0,part_2,stop,300.0,300.0,3.0,,,,,,,,,yellow,cross
0.0,8.0,4.0,1.0,6.0,6.0,732.2611780000443,1.0,0.0,part_2,go,300.0,250.0,1.0,,,,,,,,,gray,square
0.0,8.0,4.0,1.0,5.0,0.0,0.0,1.0,0.0,part_2,stop,300.0,250.0,4.0,,,,,,,,,gray,square
0.0,7.0,3.0,1.0,6.0,0.0,0.0,1.0,0.0,part_2,stop,350.0,250.0,4.0,,,,,,,,,white,flipped triangle
0.0,7.0,3.0,1.0,6.0,0.0,0.0,2.0,0.0,part_2,stop,350.0,300.0,4.0,,,,,,,,,white,flipped triangle
0.0,4.0,4.0,0.0,6.0,6.0,692.77676899992,2.0,0.0,part_2,go,350.0,350.0,1.0,,,,,,,,,magenta,hexagon
0.0,2.0,2.0,0.0,5.0,5.0,424.2479829999865,2.0,0.0,part_2,go,350.0,350.0,1.0,,,,,,,,,green,diamond
0.0,8.0,4.0,1.0,5.0,5.0,502.1162410002944,2.0,0.0,part_2,stop,350.0,350.0,3.0,,,,,,,,,gray,square
0.0,6.0,2.0,1.0,5.0,5.0,585.4128280002442,2.0,0.0,part_2,go,300.0,350.0,1.0,,,,,,,,,yellow,cross
0.0,4.0,4.0,0.0,5.0,5.0,528.2351350001591,2.0,0.0,part_2,go,300.0,350.0,1.0,,,,,,,,,magenta,hexagon
0.0,6.0,2.0,1.0,5.0,0.0,0.0,2.0,0.0,part_2,stop,300.0,350.0,4.0,,,,,,,,,yellow,cross
0.0,6.0,2.0,1.0,6.0,6.0,396.2205389998416,2.0,0.0,part_2,stop,350.0,350.0,3.0,,,,,,,,,yellow,cross
0.0,4.0,4.0,0.0,6.0,6.0,541.9054700000743,2.0,0.0,part_2,go,350.0,300.0,1.0,,,,,,,,,magenta,hexagon
0.0,5.0,1.0,1.0,6.0,6.0,502.1286140004122,2.0,0.0,part_2,go,350.0,300.0,1.0,,,,,,,,,cyan,I
0.0,4.0,4.0,0.0,5.0,5.0,590.7395569997789,2.0,0.0,part_2,go,350.0,300.0,1.0,,,,,,,,,magenta,hexagon
0.0,6.0,2.0,1.0,5.0,0.0,0.0,2.0,0.0,part_2,stop,350.0,300.0,4.0,,,,,,,,,yellow,cross
0.0,2.0,2.0,0.0,6.0,6.0,750.0992469999801,2.0,0.0,part_2,go,400.0,300.0,1.0,,,,,,,,,green,diamond
0.0,1.0,1.0,0.0,6.0,6.0,571.7724969999836,2.0,0.0,part_2,go,400.0,300.0,1.0,,,,,,,,,orange,circle
0.0,6.0,2.0,1.0,5.0,5.0,531.4959000002091,2.0,0.0,part_2,go,400.0,300.0,1.0,,,,,,,,,yellow,cross
0.0,4.0,4.0,0.0,6.0,6.0,531.1899120001726,2.0,0.0,part_2,go,400.0,300.0,1.0,,,,,,,,,magenta,hexagon
0.0,8.0,4.0,1.0,5.0,0.0,0.0,2.0,0.0,part_2,stop,400.0,300.0,4.0,,,,,,,,,gray,square
0.0,8.0,4.0,1.0,6.0,0.0,0.0,2.0,0.0,part_2,stop,450.0,300.0,4.0,,,,,,,,,gray,square
0.0,8.0,4.0,1.0,6.0,0.0,0.0,2.0,0.0,part_2,stop,450.0,350.0,4.0,,,,,,,,,gray,square
0.0,4.0,4.0,0.0,6.0,6.0,617.427355000018,2.0,0.0,part_2,go,450.0,400.0,1.0,,,,,,,,,magenta,hexagon
0.0,2.0,2.0,0.0,5.0,5.0,596.2462570000753,2.0,0.0,part_2,go,450.0,400.0,1.0,,,,,,,,,green,diamond
0.0,6.0,2.0,1.0,6.0,6.0,509.9775730000147,2.0,0.0,part_2,stop,450.0,400.0,3.0,,,,,,,,,yellow,cross
0.0,2.0,2.0,0.0,6.0,6.0,642.8435129996615,2.0,0.0,part_2,go,450.0,350.0,1.0,,,,,,,,,green,diamond
0.0,4.0,4.0,0.0,5.0,5.0,710.1993519995631,2.0,0.0,part_2,go,450.0,350.0,1.0,,,,,,,,,magenta,hexagon
0.0,3.0,3.0,0.0,5.0,5.0,531.4734690000478,2.0,0.0,part_2,go,450.0,350.0,1.0,,,,,,,,,blue,triangle
0.0,7.0,3.0,1.0,6.0,6.0,482.8583540002,2.0,0.0,part_2,stop,450.0,350.0,3.0,,,,,,,,,white,flipped triangle
0.0,1.0,1.0,0.0,6.0,6.0,608.9255930000945,2.0,0.0,part_2,go,450.0,300.0,1.0,,,,,,,,,orange,circle
0.0,2.0,2.0,0.0,6.0,6.0,588.5638770000696,2.0,0.0,part_2,go,450.0,300.0,1.0,,,,,,,,,green,diamond
0.0,7.0,3.0,1.0,5.0,5.0,556.1637340001653,2.0,0.0,part_2,stop,450.0,300.0,3.0,,,,,,,,,white,flipped triangle
0.0,3.0,3.0,0.0,5.0,5.0,795.9980860000542,2.0,0.0,part_2,go,400.0,300.0,1.0,,,,,,,,,blue,triangle
0.0,8.0,4.0,1.0,5.0,5.0,878.9552449998155,2.0,0.0,part_2,go,400.0,300.0,1.0,,,,,,,,,gray,square
0.0,3.0,3.0,0.0,6.0,6.0,360.5714370000896,2.0,0.0,part_2,go,400.0,300.0,1.0,,,,,,,,,blue,triangle
0.0,6.0,2.0,1.0,5.0,5.0,499.6094260000063,2.0,0.0,part_2,stop,400.0,300.0,3.0,,,,,,,,,yellow,cross
0.0,2.0,2.0,0.0,5.0,5.0,884.8846690002574,2.0,0.0,part_2,go,350.0,300.0,1.0,,,,,,,,,green,diamond
0.0,4.0,4.0,0.0,5.0,5.0,599.2229670000597,2.0,0.0,part_2,go,350.0,300.0,1.0,,,,,,,,,magenta,hexagon
0.0,2.0,2.0,0.0,6.0,6.0,571.517429999858,2.0,0.0,part_2,go,350.0,300.0,1.0,,,,,,,,,green,diamond
0.0,2.0,2.0,0.0,5.0,5.0,1298.8710790000368,3.0,0.0,part_2,go,350.0,300.0,1.0,,,,,,,,,green,diamond
0.0,8.0,4.0,1.0,5.0,0.0,0.0,3.0,0.0,part_2,stop,350.0,300.0,4.0,,,,,,,,,gray,square
0.0,5.0,1.0,1.0,6.0,0.0,0.0,3.0,0.0,part_2,stop,400.0,300.0,4.0,,,,,,,,,cyan,I
0.0,1.0,1.0,0.0,6.0,6.0,679.5157309998103,3.0,0.0,part_2,go,400.0,350.0,1.0,,,,,,,,,orange,circle
0.0,4.0,4.0,0.0,5.0,5.0,889.3050070000754,3.0,0.0,part_2,go,400.0,350.0,1.0,,,,,,,,,magenta,hexagon
0.0,5.0,1.0,1.0,6.0,0.0,0.0,3.0,0.0,part_2,stop,400.0,350.0,4.0,,,,,,,,,cyan,I
0.0,3.0,3.0,0.0,5.0,5.0,875.0965980002547,3.0,0.0,part_2,go,400.0,400.0,1.0,,,,,,,,,blue,triangle
0.0,5.0,1.0,1.0,6.0,0.0,0.0,3.0,0.0,part_2,stop,400.0,400.0,4.0,,,,,,,,,cyan,I
0.0,6.0,2.0,1.0,6.0,6.0,996.558585999992,3.0,0.0,part_2,go,400.0,450.0,1.0,,,,,,,,,yellow,cross
0.0,1.0,1.0,0.0,6.0,6.0,846.2887299997419,3.0,0.0,part_2,go,400.0,450.0,1.0,,,,,,,,,orange,circle
0.0,8.0,4.0,1.0,6.0,0.0,0.0,3.0,0.0,part_2,stop,400.0,450.0,4.0,,,,,,,,,gray,square
0.0,8.0,4.0,1.0,5.0,0.0,0.0,3.0,0.0,part_2,stop,400.0,500.0,4.0,,,,,,,,,gray,square
0.0,4.0,4.0,0.0,5.0,5.0,970.1877409997904,3.0,0.0,part_2,go,450.0,500.0,1.0,,,,,,,,,magenta,hexagon
0.0,6.0,2.0,1.0,5.0,5.0,1089.4894150001164,3.0,0.0,part_2,go,450.0,500.0,1.0,,,,,,,,,yellow,cross
0.0,8.0,4.0,1.0,5.0,0.0,0.0,3.0,0.0,part_2,stop,450.0,500.0,4.0,,,,,,,,,gray,square
0.0,6.0,2.0,1.0,5.0,0.0,0.0,3.0,0.0,part_2,stop,500.0,500.0,4.0,,,,,,,,,yellow,cross
0.0,6.0,2.0,1.0,5.0,0.0,0.0,3.0,0.0,part_2,stop,550.0,500.0,4.0,,,,,,,,,yellow,cross
0.0,2.0,2.0,0.0,5.0,5.0,695.6575499998507,3.0,0.0,part_2,go,600.0,500.0,1.0,,,,,,,,,green,diamond
0.0,7.0,3.0,1.0,6.0,6.0,610.7658620003349,3.0,0.0,part_2,go,600.0,500.0,1.0,,,,,,,,,white,flipped triangle
0.0,6.0,2.0,1.0,6.0,0.0,0.0,3.0,0.0,part_2,stop,600.0,500.0,4.0,,,,,,,,,yellow,cross
0.0,5.0,1.0,1.0,5.0,5.0,626.9145010001012,3.0,0.0,part_2,go,600.0,550.0,1.0,,,,,,,,,cyan,I
0.0,7.0,3.0,1.0,5.0,5.0,667.5389539996104,3.0,0.0,part_2,go,600.0,550.0,1.0,,,,,,,,,white,flipped triangle
0.0,2.0,2.0,0.0,5.0,5.0,717.4603260000367,3.0,0.0,part_2,go,600.0,550.0,1.0,,,,,,,,,green,diamond
0.0,1.0,1.0,0.0,6.0,6.0,841.2986029998137,3.0,0.0,part_2,go,600.0,550.0,1.0,,,,,,,,,orange,circle
0.0,5.0,1.0,1.0,6.0,6.0,1171.144029000061,3.0,0.0,part_2,go,600.0,550.0,1.0,,,,,,,,,cyan,I
0.0,1.0,1.0,0.0,6.0,6.0,649.2463509998743,3.0,0.0,part_2,go,600.0,550.0,1.0,,,,,,,,,orange,circle
0.0,4.0,4.0,0.0,6.0,6.0,674.3614609999895,3.0,0.0,part_2,go,600.0,550.0,1.0,,,,,,,,,magenta,hexagon
0.0,8.0,4.0,1.0,6.0,0.0,0.0,3.0,0.0,part_2,stop,600.0,550.0,4.0,,,,,,,,,gray,square
0.0,3.0,3.0,0.0,5.0,5.0,785.9258389999013,3.0,0.0,part_2,go,600.0,600.0,1.0,,,,,,,,,blue,triangle
0.0,1.0,1.0,0.0,5.0,5.0,789.9224570001024,3.0,0.0,part_2,go,600.0,600.0,1.0,,,,,,,,,orange,circle
0.0,7.0,3.0,1.0,5.0,0.0,0.0,3.0,0.0,part_2,stop,600.0,600.0,4.0,,,,,,,,,white,flipped triangle
0.0,1.0,1.0,0.0,6.0,6.0,842.0162649999838,3.0,0.0,part_2,go,650.0,600.0,1.0,,,,,,,,,orange,circle
0.0,8.0,4.0,1.0,6.0,0.0,0.0,3.0,0.0,part_2,stop,650.0,600.0,4.0,,,,,,,,,gray,square
0.0,8.0,4.0,1.0,6.0,0.0,0.0,3.0,0.0,part_2,stop,650.0,650.0,4.0,,,,,,,,,gray,square
0.0,7.0,3.0,1.0,5.0,0.0,0.0,3.0,0.0,part_2,stop,650.0,700.0,4.0,,,,,,,,,white,flipped triangle
0.0,1.0,1.0,0.0,5.0,5.0,767.7317940001558,3.0,0.0,part_2,go,700.0,700.0,1.0,,,,,,,,,orange,circle
0.0,1.0,1.0,0.0,5.0,5.0,424.8636639999859,4.0,0.0,part_2,go,700.0,700.0,1.0,,,,,,,,,orange,circle
0.0,5.0,1.0,1.0,6.0,6.0,300.2492239997991,4.0,0.0,part_2,go,700.0,700.0,1.0,,,,,,,,,cyan,I
0.0,5.0,1.0,1.0,5.0,5.0,473.915630999727,4.0,0.0,part_2,stop,700.0,700.0,3.0,,,,,,,,,cyan,I
0.0,8.0,4.0,1.0,6.0,6.0,735.2114880000045,4.0,0.0,part_2,go,650.0,700.0,1.0,,,,,,,,,gray,square
0.0,8.0,4.0,1.0,6.0,6.0,730.8778780002285,4.0,0.0,part_2,stop,650.0,700.0,3.0,,,,,,,,,gray,square
0.0,5.0,1.0,1.0,5.0,5.0,789.0807730000233,4.0,0.0,part_2,stop,650.0,650.0,3.0,,,,,,,,,cyan,I
0.0,3.0,3.0,0.0,6.0,6.0,742.5751589998981,4.0,0.0,part_2,go,600.0,650.0,1.0,,,,,,,,,blue,triangle
0.0,3.0,3.0,0.0,6.0,6.0,515.2316200001223,4.0,0.0,part_2,go,600.0,650.0,1.0,,,,,,,,,blue,triangle
0.0,6.0,2.0,1.0,6.0,6.0,648.2432709999557,4.0,0.0,part_2,stop,600.0,650.0,3.0,,,,,,,,,yellow,cross
0.0,1.0,1.0,0.0,6.0,6.0,839.3857690002733,4.0,0.0,part_2,go,600.0,600.0,1.0,,,,,,,,,orange,circle
0.0,2.0,2.0,0.0,6.0,6.0,428.3105569998042,4.0,0.0,part_2,go,600.0,600.0,1.0,,,,,,,,,green,diamond
0.0,5.0,1.0,1.0,5.0,5.0,694.226585999786,4.0,0.0,part_2,stop,600.0,600.0,3.0,,,,,,,,,cyan,I
0.0,6.0,2.0,1.0,6.0,0.0,0.0,4.0,0.0,part_2,stop,550.0,600.0,4.0,,,,,,,,,yellow,cross
0.0,5.0,1.0,1.0,6.0,0.0,0.0,4.0,0.0,part_2,stop,550.0,650.0,4.0,,,,,,,,,cyan,I
0.0,3.0,3.0,0.0,5.0,5.0,367.25536799986,4.0,0.0,part_2,go,550.0,700.0,1.0,,,,,,,,,blue,triangle
0.0,6.0,2.0,1.0,6.0,6.0,500.66505599988886,4.0,0.0,part_2,stop,550.0,700.0,3.0,,,,,,,,,yellow,cross
0.0,2.0,2.0,0.0,6.0,6.0,659.4074929998897,4.0,0.0,part_2,go,550.0,650.0,1.0,,,,,,,,,green,diamond
0.0,2.0,2.0,0.0,6.0,6.0,831.6318170000159,4.0,0.0,part_2,go,550.0,650.0,1.0,,,,,,,,,green,diamond
0.0,1.0,1.0,0.0,5.0,5.0,698.6720009999772,4.0,0.0,part_2,go,550.0,650.0,1.0,,,,,,,,,orange,circle
0.0,4.0,4.0,0.0,6.0,6.0,567.6840500000253,4.0,0.0,part_2,go,550.0,650.0,1.0,,,,,,,,,magenta,hexagon
0.0,1.0,1.0,0.0,5.0,5.0,899.1999760000908,4.0,0.0,part_2,go,550.0,650.0,1.0,,,,,,,,,orange,circle
0.0,7.0,3.0,1.0,6.0,0.0,0.0,4.0,0.0,part_2,stop,550.0,650.0,4.0,,,,,,,,,white,flipped triangle
0.0,8.0,4.0,1.0,5.0,0.0,0.0,4.0,0.0,part_2,stop,550.0,700.0,4.0,,,,,,,,,gray,square
0.0,3.0,3.0,0.0,5.0,5.0,803.4117410002182,4.0,0.0,part_2,go,600.0,700.0,1.0,,,,,,,,,blue,triangle
0.0,5.0,1.0,1.0,5.0,5.0,593.9697399999204,4.0,0.0,part_2,stop,600.0,700.0,3.0,,,,,,,,,cyan,I
0.0,7.0,3.0,1.0,5.0,5.0,573.1336910002938,4.0,0.0,part_2,go,550.0,700.0,1.0,,,,,,,,,white,flipped triangle
0.0,4.0,4.0,0.0,5.0,5.0,488.7597209999512,4.0,0.0,part_2,go,550.0,700.0,1.0,,,,,,,,,magenta,hexagon
0.0,6.0,2.0,1.0,6.0,6.0,455.8982119997381,4.0,0.0,part_2,go,550.0,700.0,1.0,,,,,,,,,yellow,cross
0.0,3.0,3.0,0.0,5.0,5.0,550.987866000014,4.0,0.0,part_2,go,550.0,700.0,1.0,,,,,,,,,blue,triangle
0.0,4.0,4.0,0.0,5.0,5.0,584.1124439998566,4.0,0.0,part_2,go,550.0,700.0,1.0,,,,,,,,,magenta,hexagon
0.0,5.0,1.0,1.0,5.0,5.0,318.6711369999102,4.0,0.0,part_2,stop,550.0,700.0,3.0,,,,,,,,,cyan,I
0.0,5.0,1.0,1.0,6.0,6.0,731.2635120001687,4.0,0.0,part_2,stop,500.0,700.0,3.0,,,,,,,,,cyan,I
0.0,8.0,4.0,1.0,6.0,0.0,0.0,4.0,0.0,part_2,stop,500.0,650.0,4.0,,,,,,,,,gray,square
0.0,2.0,2.0,0.0,6.0,6.0,543.4957209999993,4.0,0.0,part_2,go,500.0,700.0,1.0,,,,,,,,,green,diamond
0.0,8.0,4.0,1.0,5.0,5.0,753.6122310002611,4.0,0.0,part_2,go,500.0,700.0,1.0,,,,,,,,,gray,square
0.0,6.0,2.0,1.0,6.0,6.0,334.7086419998959,4.0,0.0,part_2,stop,500.0,700.0,3.0,,,,,,,,,yellow,cross
0.0,3.0,3.0,0.0,6.0,6.0,432.0382880000579,5.0,0.0,part_2,go,500.0,650.0,1.0,,,,,,,,,blue,triangle
0.0,7.0,3.0,1.0,6.0,6.0,642.9159600002095,5.0,0.0,part_2,go,500.0,650.0,1.0,,,,,,,,,white,flipped triangle
0.0,2.0,2.0,0.0,5.0,5.0,608.0066750000697,5.0,0.0,part_2,go,500.0,650.0,1.0,,,,,,,,,green,diamond
0.0,6.0,2.0,1.0,5.0,0.0,0.0,5.0,0.0,part_2,stop,500.0,650.0,4.0,,,,,,,,,yellow,cross
0.0,3.0,3.0,0.0,5.0,5.0,656.0431279999648,5.0,0.0,part_2,go,550.0,650.0,1.0,,,,,,,,,blue,triangle
0.0,3.0,3.0,0.0,6.0,6.0,577.0821569999498,5.0,0.0,part_2,go,550.0,650.0,1.0,,,,,,,,,blue,triangle
0.0,6.0,2.0,1.0,6.0,6.0,565.883101000054,5.0,0.0,part_2,stop,550.0,650.0,3.0,,,,,,,,,yellow,cross
0.0,1.0,1.0,0.0,5.0,5.0,568.3131840000897,5.0,0.0,part_2,go,550.0,600.0,1.0,,,,,,,,,orange,circle
0.0,1.0,1.0,0.0,5.0,5.0,308.2303279998086,5.0,0.0,part_2,go,550.0,600.0,1.0,,,,,,,,,orange,circle
0.0,7.0,3.0,1.0,5.0,5.0,435.5151529998693,5.0,0.0,part_2,stop,550.0,600.0,3.0,,,,,,,,,white,flipped triangle
0.0,7.0,3.0,1.0,5.0,5.0,373.4695480002301,5.0,0.0,part_2,stop,500.0,600.0,3.0,,,,,,,,,white,flipped triangle
0.0,1.0,1.0,0.0,5.0,5.0,564.7476359999928,5.0,0.0,part_2,go,450.0,600.0,1.0,,,,,,,,,orange,circle
0.0,2.0,2.0,0.0,5.0,5.0,303.5066329998699,5.0,0.0,part_2,go,450.0,600.0,1.0,,,,,,,,,green,diamond
0.0,4.0,4.0,0.0,6.0,6.0,299.6546360000138,5.0,0.0,part_2,go,450.0,600.0,1.0,,,,,,,,,magenta,hexagon
0.0,3.0,3.0,0.0,6.0,6.0,476.4129959999081,5.0,0.0,part_2,go,450.0,600.0,1.0,,,,,,,,,blue,triangle
0.0,8.0,4.0,1.0,6.0,0.0,0.0,5.0,0.0,part_2,stop,450.0,600.0,4.0,,,,,,,,,gray,square
0.0,5.0,1.0,1.0,5.0,0.0,0.0,5.0,0.0,part_2,stop,450.0,650.0,4.0,,,,,,,,,cyan,I
0.0,5.0,1.0,1.0,6.0,6.0,832.1753720001652,5.0,0.0,part_2,go,500.0,650.0,1.0,,,,,,,,,cyan,I
0.0,6.0,2.0,1.0,6.0,6.0,415.6162100002802,5.0,0.0,part_2,stop,500.0,650.0,3.0,,,,,,,,,yellow,cross
0.0,8.0,4.0,1.0,6.0,6.0,634.838426999977,5.0,0.0,part_2,stop,500.0,600.0,3.0,,,,,,,,,gray,square
0.0,3.0,3.0,0.0,5.0,5.0,594.5548219997363,5.0,0.0,part_2,go,500.0,550.0,1.0,,,,,,,,,blue,triangle
0.0,1.0,1.0,0.0,5.0,5.0,449.254658999962,5.0,0.0,part_2,go,500.0,550.0,1.0,,,,,,,,,orange,circle
0.0,8.0,4.0,1.0,6.0,6.0,440.1171290001002,5.0,0.0,part_2,stop,500.0,550.0,3.0,,,,,,,,,gray,square
0.0,5.0,1.0,1.0,5.0,5.0,662.772643000153,5.0,0.0,part_2,stop,500.0,500.0,3.0,,,,,,,,,cyan,I
0.0,7.0,3.0,1.0,6.0,6.0,641.9406079999135,5.0,0.0,part_2,stop,450.0,500.0,3.0,,,,,,,,,white,flipped triangle
0.0,8.0,4.0,1.0,5.0,5.0,321.6837009999835,5.0,0.0,part_2,go,450.0,450.0,1.0,,,,,,,,,gray,square
0.0,3.0,3.0,0.0,5.0,5.0,695.8177250003246,5.0,0.0,part_2,go,450.0,450.0,1.0,,,,,,,,,blue,triangle
0.0,4.0,4.0,0.0,5.0,5.0,385.77654700020497,5.0,0.0,part_2,go,450.0,450.0,1.0,,,,,,,,,magenta,hexagon
0.0,2.0,2.0,0.0,5.0,5.0,334.5201729998734,5.0,0.0,part_2,go,450.0,450.0,1.0,,,,,,,,,green,diamond
0.0,7.0,3.0,1.0,6.0,0.0,0.0,5.0,0.0,part_2,stop,450.0,450.0,4.0,,,,,,,,,white,flipped triangle
0.0,3.0,3.0,0.0,5.0,5.0,967.9607899997792,5.0,0.0,part_2,go,450.0,500.0,1.0,,,,,,,,,blue,triangle
0.0,4.0,4.0,0.0,5.0,5.0,352.6268020000316,5.0,0.0,part_2,go,450.0,500.0,1.0,,,,,,,,,magenta,hexagon
0.0,3.0,3.0,0.0,6.0,6.0,1082.4457939997956,5.0,0.0,part_2,go,450.0,500.0,1.0,,,,,,,,,blue,triangle
0.0,5.0,1.0,1.0,6.0,0.0,0.0,5.0,0.0,part_2,stop,450.0,500.0,4.0,,,,,,,,,cyan,I
0.0,1.0,1.0,0.0,6.0,6.0,643.9353040000242,5.0,0.0,part_2,go,450.0,550.0,1.0,,,,,,,,,orange,circle
0.0,4.0,4.0,0.0,6.0,6.0,557.2372410001663,5.0,0.0,part_2,go,450.0,550.0,1.0,,,,,,,,,magenta,hexagon
0.0,3.0,3.0,0.0,6.0,6.0,906.191088000014,6.0,0.0,part_2,go,450.0,550.0,1.0,,,,,,,,,blue,triangle
0.0,7.0,3.0,1.0,5.0,5.0,303.0990490001386,6.0,0.0,part_2,stop,450.0,550.0,3.0,,,,,,,,,white,flipped triangle
0.0,4.0,4.0,0.0,6.0,6.0,471.9523500002651,6.0,0.0,part_2,go,400.0,550.0,1.0,,,,,,,,,magenta,hexagon
0.0,1.0,1.0,0.0,5.0,5.0,506.92842500029656,6.0,0.0,part_2,go,400.0,550.0,1.0,,,,,,,,,orange,circle
0.0,6.0,2.0,1.0,5.0,0.0,0.0,6.0,0.0,part_2,stop,400.0,550.0,4.0,,,,,,,,,yellow,cross
0.0,2.0,2.0,0.0,6.0,6.0,305.2240549995986,6.0,0.0,part_2,go,450.0,550.0,1.0,,,,,,,,,green,diamond
0.0,8.0,4.0,1.0,6.0,0.0,0.0,6.0,0.0,part_2,stop,450.0,550.0,4.0,,,,,,,,,gray,square
0.0,2.0,2.0,0.0,5.0,5.0,287.7071679999972,6.0,0.0,part_2,go,450.0,600.0,1.0,,,,,,,,,green,diamond
0.0,1.0,1.0,0.0,5.0,5.0,987.9094210000404,6.0,0.0,part_2,go,450.0,600.0,1.0,,,,,,,,,orange,circle
0.0,5.0,1.0,1.0,6.0,6.0,360.5913599999439,6.0,0.0,part_2,stop,450.0,600.0,3.0,,,,,,,,,cyan,I
0.0,3.0,3.0,0.0,6.0,6.0,469.0151439999681,6.0,0.0,part_2,go,450.0,550.0,1.0,,,,,,,,,blue,triangle
0.0,4.0,4.0,0.0,6.0,6.0,548.8707320000685,6.0,0.0,part_2,go,450.0,550.0,1.0,,,,,,,,,magenta,hexagon
0.0,4.0,4.0,0.0,6.0,6.0,374.5143279998046,6.0,0.0,part_2,go,450.0,550.0,1.0,,,,,,,,,magenta,hexagon
0.0,7.0,3.0,1.0,5.0,0.0,0.0,6.0,0.0,part_2,stop,450.0,550.0,4.0,,,,,,,,,white,flipped triangle
0.0,8.0,4.0,1.0,5.0,0.0,0.0,6.0,0.0,part_2,stop,500.0,550.0,4.0,,,,,,,,,gray,square
0.0,4.0,4.0,0.0,6.0,6.0,560.9956980001698,6.0,0.0,part_2,go,550.0,550.0,1.0,,,,,,,,,magenta,hexagon
0.0,6.0,2.0,1.0,5.0,5.0,458.11474500033,6.0,0.0,part_2,go,550.0,550.0,1.0,,,,,,,,,yellow,cross
0.0,3.0,3.0,0.0,5.0,5.0,416.1340660002679,6.0,0.0,part_2,go,550.0,550.0,1.0,,,,,,,,,blue,triangle
0.0,1.0,1.0,0.0,5.0,5.0,345.6815270001243,6.0,0.0,part_2,go,550.0,550.0,1.0,,,,,,,,,orange,circle
0.0,7.0,3.0,1.0,6.0,6.0,723.3691809997254,6.0,0.0,part_2,stop,550.0,550.0,3.0,,,,,,,,,white,flipped triangle
0.0,5.0,1.0,1.0,5.0,5.0,588.6948299998949,6.0,0.0,part_2,stop,550.0,500.0,3.0,,,,,,,,,cyan,I
0.0,6.0,2.0,1.0,5.0,5.0,681.5793780001513,6.0,0.0,part_2,go,500.0,500.0,1.0,,,,,,,,,yellow,cross
0.0,5.0,1.0,1.0,6.0,0.0,0.0,6.0,0.0,part_2,stop,500.0,500.0,4.0,,,,,,,,,cyan,I
0.0,1.0,1.0,0.0,6.0,6.0,489.3106540002918,6.0,0.0,part_2,go,500.0,550.0,1.0,,,,,,,,,orange,circle
0.0,2.0,2.0,0.0,6.0,6.0,613.7232969999786,6.0,0.0,part_2,go,500.0,550.0,1.0,,,,,,,,,green,diamond
0.0,2.0,2.0,0.0,6.0,6.0,465.1309650002986,6.0,0.0,part_2,go,500.0,550.0,1.0,,,,,,,,,green,diamond
0.0,3.0,3.0,0.0,6.0,6.0,396.164423999835,6.0,0.0,part_2,go,500.0,550.0,1.0,,,,,,,,,blue,triangle
0.0,6.0,2.0,1.0,5.0,5.0,460.7849670001087,6.0,0.0,part_2,stop,500.0,550.0,3.0,,,,,,,,,yellow,cross
0.0,3.0,3.0,0.0,5.0,5.0,705.222269999922,6.0,0.0,part_2,go,450.0,550.0,1.0,,,,,,,,,blue,triangle
0.0,2.0,2.0,0.0,5.0,5.0,486.3566700000774,6.0,0.0,part_2,go,450.0,550.0,1.0,,,,,,,,,green,diamond
0.0,4.0,4.0,0.0,5.0,5.0,362.5654890001897,6.0,0.0,part_2,go,450.0,550.0,1.0,,,,,,,,,magenta,hexagon
0.0,4.0,4.0,0.0,6.0,6.0,923.8881020000916,6.0,0.0,part_2,go,450.0,550.0,1.0,,,,,,,,,magenta,hexagon
0.0,2.0,2.0,0.0,5.0,5.0,646.9232409999677,6.0,0.0,part_2,go,450.0,550.0,1.0,,,,,,,,,green,diamond
0.0,1.0,1.0,0.0,5.0,5.0,348.4276919998592,6.0,0.0,part_2,go,450.0,550.0,1.0,,,,,,,,,orange,circle
0.0,7.0,3.0,1.0,6.0,6.0,753.2504460000382,6.0,0.0,part_2,go,450.0,550.0,1.0,,,,,,,,,white,flipped triangle
0.0,1.0,1.0,0.0,5.0,5.0,366.3370650001525,6.0,0.0,part_2,go,450.0,550.0,1.0,,,,,,,,,orange,circle
0.0,4.0,4.0,0.0,5.0,5.0,639.5444959998713,7.0,0.0,part_2,go,450.0,550.0,1.0,,,,,,,,,magenta,hexagon
0.0,5.0,1.0,1.0,5.0,5.0,409.9248210000041,7.0,0.0,part_2,stop,450.0,550.0,3.0,,,,,,,,,cyan,I
0.0,3.0,3.0,0.0,6.0,6.0,259.3406510000022,7.0,0.0,part_2,go,400.0,550.0,1.0,,,,,,,,,blue,triangle
0.0,6.0,2.0,1.0,5.0,5.0,298.3266999999614,7.0,0.0,part_2,stop,400.0,550.0,3.0,,,,,,,,,yellow,cross
0.0,7.0,3.0,1.0,5.0,5.0,624.2671149998387,7.0,0.0,part_2,go,350.0,550.0,1.0,,,,,,,,,white,flipped triangle
0.0,5.0,1.0,1.0,6.0,6.0,317.6267249996272,7.0,0.0,part_2,stop,350.0,550.0,3.0,,,,,,,,,cyan,I
0.0,5.0,1.0,1.0,5.0,5.0,458.6324849997254,7.0,0.0,part_2,go,350.0,500.0,1.0,,,,,,,,,cyan,I
0.0,7.0,3.0,1.0,5.0,5.0,388.5581760000605,7.0,0.0,part_2,stop,350.0,500.0,3.0,,,,,,,,,white,flipped triangle
0.0,1.0,1.0,0.0,6.0,6.0,293.4688750001442,7.0,0.0,part_2,go,300.0,500.0,1.0,,,,,,,,,orange,circle
0.0,2.0,2.0,0.0,5.0,5.0,524.1447260000314,7.0,0.0,part_2,go,300.0,500.0,1.0,,,,,,,,,green,diamond
0.0,7.0,3.0,1.0,5.0,0.0,0.0,7.0,0.0,part_2,stop,300.0,500.0,4.0,,,,,,,,,white,flipped triangle
0.0,2.0,2.0,0.0,6.0,6.0,330.1531709998926,7.0,0.0,part_2,go,350.0,500.0,1.0,,,,,,,,,green,diamond
0.0,2.0,2.0,0.0,6.0,6.0,337.1152279996749,7.0,0.0,part_2,go,350.0,500.0,1.0,,,,,,,,,green,diamond
0.0,6.0,2.0,1.0,6.0,6.0,369.4585600001119,7.0,0.0,part_2,stop,350.0,500.0,3.0,,,,,,,,,yellow,cross
0.0,3.0,3.0,0.0,5.0,5.0,270.0994120000359,7.0,0.0,part_2,go,350.0,450.0,1.0,,,,,,,,,blue,triangle
0.0,5.0,1.0,1.0,5.0,5.0,407.1439720000853,7.0,0.0,part_2,stop,350.0,450.0,3.0,,,,,,,,,cyan,I
0.0,7.0,3.0,1.0,5.0,5.0,591.117863999898,7.0,0.0,part_2,go,300.0,450.0,1.0,,,,,,,,,white,flipped triangle
0.0,7.0,3.0,1.0,6.0,6.0,257.9868460002217,7.0,0.0,part_2,stop,300.0,450.0,3.0,,,,,,,,,white,flipped triangle
0.0,2.0,2.0,0.0,5.0,5.0,517.6639859996612,7.0,0.0,part_2,go,300.0,400.0,1.0,,,,,,,,,green,diamond
0.0,3.0,3.0,0.0,6.0,6.0,346.8938819996765,7.0,0.0,part_2,go,300.0,400.0,1.0,,,,,,,,,blue,triangle
0.0,8.0,4.0,1.0,6.0,6.0,385.1618310000049,7.0,0.0,part_2,stop,300.0,400.0,3.0,,,,,,,,,gray,square
0.0,8.0,4.0,1.0,6.0,0.0,0.0,7.0,0.0,part_2,stop,300.0,350.0,4.0,,,,,,,,,gray,square
0.0,1.0,1.0,0.0,6.0,6.0,566.3350529998752,7.0,0.0,part_2,go,300.0,400.0,1.0,,,,,,,,,orange,circle
0.0,7.0,3.0,1.0,6.0,6.0,583.4704130002137,7.0,0.0,part_2,stop,300.0,400.0,3.0,,,,,,,,,white,flipped triangle
0.0,7.0,3.0,1.0,6.0,6.0,422.2204509997027,7.0,0.0,part_2,stop,300.0,350.0,3.0,,,,,,,,,white,flipped triangle
0.0,1.0,1.0,0.0,6.0,6.0,610.5712370003857,7.0,0.0,part_2,go,300.0,300.0,1.0,,,,,,,,,orange,circle
0.0,5.0,1.0,1.0,6.0,6.0,415.0518460000967,7.0,0.0,part_2,stop,300.0,300.0,3.0,,,,,,,,,cyan,I
0.0,8.0,4.0,1.0,5.0,5.0,267.7518129999043,7.0,0.0,part_2,stop,300.0,250.0,3.0,,,,,,,,,gray,square
0.0,3.0,3.0,0.0,5.0,5.0,503.4795120000126,7.0,0.0,part_2,go,250.0,250.0,1.0,,,,,,,,,blue,triangle
0.0,5.0,1.0,1.0,6.0,0.0,0.0,7.0,0.0,part_2,stop,250.0,250.0,4.0,,,,,,,,,cyan,I
0.0,2.0,2.0,0.0,6.0,6.0,567.6979479999318,7.0,0.0,part_2,go,250.0,300.0,1.0,,,,,,,,,green,diamond
0.0,3.0,3.0,0.0,5.0,5.0,533.8057359999766,7.0,0.0,part_2,go,250.0,300.0,1.0,,,,,,,,,blue,triangle
0.0,2.0,2.0,0.0,6.0,6.0,270.8833530000447,7.0,0.0,part_2,go,250.0,300.0,1.0,,,,,,,,,green,diamond
0.0,7.0,3.0,1.0,5.0,0.0,0.0,7.0,0.0,part_2,stop,250.0,300.0,4.0,,,,,,,,,white,flipped triangle
0.0,1.0,1.0,0.0,6.0,6.0,383.4878960001333,7.0,0.0,part_2,go,300.0,300.0,1.0,,,,,,,,,orange,circle
0.0,1.0,1.0,0.0,6.0,6.0,460.6151820003106,7.0,0.0,part_2,go,300.0,300.0,1.0,,,,,,,,,orange,circle
0.0,7.0,3.0,1.0,6.0,6.0,331.4071609997882,8.0,0.0,part_2,stop,300.0,300.0,3.0,,,,,,,,,white,flipped triangle
0.0,6.0,2.0,1.0,6.0,6.0,359.3231059999198,8.0,0.0,part_2,stop,300.0,250.0,3.0,,,,,,,,,yellow,cross
0.0,2.0,2.0,0.0,6.0,6.0,448.7459819997639,8.0,0.0,part_2,go,300.0,200.0,1.0,,,,,,,,,green,diamond
0.0,3.0,3.0,0.0,6.0,6.0,371.7139919999681,8.0,0.0,part_2,go,300.0,200.0,1.0,,,,,,,,,blue,triangle
0.0,4.0,4.0,0.0,6.0,6.0,433.653822999986,8.0,0.0,part_2,go,300.0,200.0,1.0,,,,,,,,,magenta,hexagon
0.0,6.0,2.0,1.0,5.0,5.0,343.5320900002807,8.0,0.0,part_2,go,300.0,200.0,1.0,,,,,,,,,yellow,cross
0.0,4.0,4.0,0.0,5.0,5.0,607.5520650001636,8.0,0.0,part_2,go,300.0,200.0,1.0,,,,,,,,,magenta,hexagon
0.0,8.0,4.0,1.0,5.0,5.0,339.3707599998379,8.0,0.0,part_2,go,300.0,200.0,1.0,,,,,,,,,gray,square
0.0,7.0,3.0,1.0,5.0,5.0,750.4408900003909,8.0,0.0,part_2,go,300.0,200.0,1.0,,,,,,,,,white,flipped triangle
0.0,1.0,1.0,0.0,5.0,5.0,398.0488040001546,8.0,0.0,part_2,go,300.0,200.0,1.0,,,,,,,,,orange,circle
0.0,4.0,4.0,0.0,5.0,5.0,359.2768339999566,8.0,0.0,part_2,go,300.0,200.0,1.0,,,,,,,,,magenta,hexagon
0.0,6.0,2.0,1.0,6.0,6.0,339.7607590000007,8.0,0.0,part_2,stop,300.0,200.0,3.0,,,,,,,,,yellow,cross
0.0,4.0,4.0,0.0,5.0,5.0,548.4829900001387,8.0,0.0,part_2,go,300.0,150.0,1.0,,,,,,,,,magenta,hexagon
0.0,5.0,1.0,1.0,5.0,5.0,393.590013999983,8.0,0.0,part_2,stop,300.0,150.0,3.0,,,,,,,,,cyan,I
0.0,6.0,2.0,1.0,5.0,0.0,0.0,8.0,0.0,part_2,stop,250.0,150.0,4.0,,,,,,,,,yellow,cross
0.0,8.0,4.0,1.0,5.0,0.0,0.0,8.0,0.0,part_2,stop,300.0,150.0,4.0,,,,,,,,,gray,square
0.0,2.0,2.0,0.0,5.0,5.0,571.1941069998829,8.0,0.0,part_2,go,350.0,150.0,1.0,,,,,,,,,green,diamond
0.0,1.0,1.0,0.0,6.0,6.0,273.0388699997093,8.0,0.0,part_2,go,350.0,150.0,1.0,,,,,,,,,orange,circle
0.0,8.0,4.0,1.0,5.0,0.0,0.0,8.0,0.0,part_2,stop,350.0,150.0,4.0,,,,,,,,,gray,square
0.0,4.0,4.0,0.0,6.0,6.0,301.4844620001895,8.0,0.0,part_2,go,400.0,150.0,1.0,,,,,,,,,magenta,hexagon
0.0,4.0,4.0,0.0,5.0,5.0,480.5196980000801,8.0,0.0,part_2,go,400.0,150.0,1.0,,,,,,,,,magenta,hexagon
0.0,3.0,3.0,0.0,6.0,6.0,569.9964589998672,8.0,0.0,part_2,go,400.0,150.0,1.0,,,,,,,,,blue,triangle
0.0,7.0,3.0,1.0,5.0,5.0,517.8505919998315,8.0,0.0,part_2,stop,400.0,150.0,3.0,,,,,,,,,white,flipped triangle
0.0,2.0,2.0,0.0,5.0,5.0,516.686321999714,8.0,0.0,part_2,go,350.0,150.0,1.0,,,,,,,,,green,diamond
0.0,7.0,3.0,1.0,6.0,0.0,0.0,8.0,0.0,part_2,stop,350.0,150.0,4.0,,,,,,,,,white,flipped triangle
0.0,7.0,3.0,1.0,5.0,5.0,398.4390620003069,8.0,0.0,part_2,stop,350.0,200.0,3.0,,,,,,,,,white,flipped triangle
0.0,1.0,1.0,0.0,6.0,6.0,538.6507049997817,8.0,0.0,part_2,go,300.0,200.0,1.0,,,,,,,,,orange,circle
0.0,8.0,4.0,1.0,5.0,0.0,0.0,8.0,0.0,part_2,stop,300.0,200.0,4.0,,,,,,,,,gray,square
0.0,3.0,3.0,0.0,5.0,5.0,559.3802769999456,8.0,0.0,part_2,go,350.0,200.0,1.0,,,,,,,,,blue,triangle
0.0,1.0,1.0,0.0,5.0,5.0,351.8482989998119,8.0,0.0,part_2,go,350.0,200.0,1.0,,,,,,,,,orange,circle
0.0,4.0,4.0,0.0,6.0,6.0,697.7401279996229,8.0,0.0,part_2,go,350.0,200.0,1.0,,,,,,,,,magenta,hexagon
0.0,4.0,4.0,0.0,6.0,6.0,461.7324840000947,8.0,0.0,part_2,go,350.0,200.0,1.0,,,,,,,,,magenta,hexagon
0.0,6.0,2.0,1.0,6.0,6.0,372.9114719999415,8.0,0.0,part_2,stop,350.0,200.0,3.0,,,,,,,,,yellow,cross
0.0,4.0,4.0,0.0,6.0,6.0,446.4638009999362,8.0,0.0,part_2,go,350.0,150.0,1.0,,,,,,,,,magenta,hexagon
0.0,8.0,4.0,1.0,5.0,5.0,616.5758590000223,8.0,0.0,part_2,go,350.0,150.0,1.0,,,,,,,,,gray,square
0.0,1.0,1.0,0.0,5.0,5.0,319.93192400022957,8.0,0.0,part_2,go,350.0,150.0,1.0,,,,,,,,,orange,circle
0.0,3.0,3.0,0.0,7.0,3.0,1865.2851769993504,1.0,1.0,part_3,go,0.0,0.0,0.0,132.0,3.0,176.0,88.0,132.0,264.0,220.0,44.0,blue,triangle
0.0,7.0,3.0,1.0,7.0,2.0,1316.1941670005035,1.0,1.0,part_3,go,0.0,0.0,0.0,176.0,4.0,88.0,176.0,132.0,44.0,264.0,220.0,white,flipped triangle
0.0,3.0,3.0,0.0,7.0,6.0,1213.7013040000966,1.0,1.0,part_3,go,0.0,0.0,0.0,204.0,6.0,136.0,68.0,170.0,34.0,102.0,204.0,blue,triangle
0.0,1.0,1.0,0.0,7.0,4.0,763.0212410003878,1.0,1.0,part_3,go,0.0,0.0,0.0,54.0,1.0,162.0,324.0,270.0,54.0,108.0,216.0,orange,circle
0.0,7.0,3.0,1.0,7.0,1.0,1261.6240420002214,1.0,1.0,part_3,go,0.0,0.0,0.0,132.0,3.0,132.0,220.0,176.0,44.0,264.0,88.0,white,flipped triangle
0.0,5.0,1.0,1.0,7.0,4.0,1169.9134430000413,1.0,1.0,part_3,go,0.0,0.0,0.0,270.0,5.0,108.0,54.0,324.0,270.0,162.0,216.0,cyan,I
0.0,5.0,1.0,1.0,7.0,1.0,1367.2299760000897,1.0,1.0,part_3,go,0.0,0.0,0.0,156.0,4.0,156.0,39.0,195.0,117.0,234.0,78.0,cyan,I
0.0,5.0,1.0,1.0,7.0,6.0,1150.32310999959,1.0,1.0,part_3,go,0.0,0.0,0.0,162.0,3.0,324.0,216.0,108.0,54.0,270.0,162.0,cyan,I
0.0,5.0,1.0,1.0,7.0,3.0,1482.064344999344,1.0,1.0,part_3,go,0.0,0.0,0.0,245.0,5.0,294.0,49.0,245.0,196.0,147.0,98.0,cyan,I
0.0,4.0,4.0,0.0,7.0,6.0,1722.3750330003895,1.0,1.0,part_3,go,0.0,0.0,0.0,147.0,3.0,49.0,196.0,245.0,98.0,294.0,147.0,magenta,hexagon
0.0,4.0,4.0,0.0,7.0,1.0,968.5814100002972,1.0,1.0,part_3,go,0.0,0.0,0.0,204.0,6.0,204.0,34.0,170.0,136.0,102.0,68.0,magenta,hexagon
0.0,5.0,1.0,1.0,7.0,4.0,639.2047139997885,1.0,1.0,part_3,go,0.0,0.0,0.0,195.0,5.0,78.0,234.0,156.0,195.0,117.0,39.0,cyan,I
0.0,6.0,2.0,1.0,7.0,3.0,1527.7747440004532,1.0,1.0,part_3,go,0.0,0.0,0.0,147.0,3.0,98.0,294.0,147.0,245.0,49.0,196.0,yellow,cross
0.0,4.0,4.0,0.0,7.0,5.0,959.552752999116,1.0,1.0,part_3,go,0.0,0.0,0.0,117.0,3.0,156.0,78.0,195.0,234.0,117.0,39.0,magenta,hexagon
0.0,2.0,2.0,0.0,7.0,3.0,1647.8020229997128,1.0,1.0,part_3,go,0.0,0.0,0.0,220.0,5.0,264.0,44.0,220.0,132.0,176.0,88.0,green,diamond
0.0,8.0,4.0,1.0,7.0,5.0,1267.4846830004751,1.0,1.0,part_3,go,0.0,0.0,0.0,170.0,5.0,102.0,204.0,34.0,136.0,170.0,68.0,gray,square
0.0,8.0,4.0,1.0,7.0,4.0,1157.6288149999527,1.0,1.0,part_3,go,0.0,0.0,0.0,195.0,5.0,156.0,39.0,117.0,195.0,78.0,234.0,gray,square
0.0,4.0,4.0,0.0,7.0,4.0,1558.188844000142,1.0,1.0,part_3,go,0.0,0.0,0.0,156.0,4.0,234.0,78.0,195.0,156.0,39.0,117.0,magenta,hexagon
0.0,3.0,3.0,0.0,7.0,2.0,2309.2403919999924,1.0,1.0,part_3,go,0.0,0.0,0.0,78.0,2.0,117.0,78.0,234.0,156.0,39.0,195.0,blue,triangle
0.0,1.0,1.0,0.0,7.0,5.0,2243.783474999873,1.0,1.0,part_3,go,0.0,0.0,0.0,245.0,5.0,196.0,49.0,98.0,294.0,245.0,147.0,orange,circle
0.0,7.0,3.0,1.0,7.0,2.0,976.3266330000988,2.0,1.0,part_3,go,0.0,0.0,0.0,147.0,3.0,294.0,147.0,98.0,49.0,245.0,196.0,white,flipped triangle
0.0,7.0,3.0,1.0,7.0,6.0,1104.322363999927,2.0,1.0,part_3,go,0.0,0.0,0.0,117.0,3.0,195.0,156.0,78.0,39.0,234.0,117.0,white,flipped triangle
0.0,8.0,4.0,1.0,7.0,2.0,2201.761655000155,2.0,1.0,part_3,go,0.0,0.0,0.0,54.0,1.0,162.0,54.0,108.0,270.0,324.0,216.0,gray,square
0.0,2.0,2.0,0.0,7.0,2.0,1738.8643550002598,2.0,1.0,part_3,go,0.0,0.0,0.0,195.0,5.0,156.0,195.0,234.0,78.0,39.0,117.0,green,diamond
0.0,5.0,1.0,1.0,7.0,4.0,1134.638377000556,2.0,1.0,part_3,go,0.0,0.0,0.0,170.0,5.0,102.0,204.0,136.0,170.0,68.0,34.0,cyan,I
0.0,7.0,3.0,1.0,7.0,2.0,996.7340940002032,2.0,1.0,part_3,go,0.0,0.0,0.0,216.0,4.0,54.0,216.0,324.0,270.0,108.0,162.0,white,flipped triangle
0.0,2.0,2.0,0.0,7.0,5.0,1471.2548759998754,2.0,1.0,part_3,go,0.0,0.0,0.0,102.0,3.0,68.0,136.0,204.0,170.0,102.0,34.0,green,diamond
0.0,2.0,2.0,0.0,7.0,2.0,995.9737199997109,2.0,1.0,part_3,go,0.0,0.0,0.0,162.0,3.0,108.0,162.0,216.0,324.0,270.0,54.0,green,diamond
0.0,8.0,4.0,1.0,7.0,6.0,1245.2625539999644,2.0,1.0,part_3,go,0.0,0.0,0.0,216.0,4.0,162.0,270.0,54.0,108.0,324.0,216.0,gray,square
0.0,3.0,3.0,0.0,7.0,4.0,1908.477340999525,2.0,1.0,part_3,go,0.0,0.0,0.0,68.0,2.0,34.0,170.0,102.0,68.0,136.0,204.0,blue,triangle
0.0,5.0,1.0,1.0,7.0,6.0,2065.332484999999,2.0,1.0,part_3,go,0.0,0.0,0.0,176.0,4.0,264.0,44.0,88.0,132.0,220.0,176.0,cyan,I
0.0,1.0,1.0,0.0,7.0,2.0,1240.870333000203,2.0,1.0,part_3,go,0.0,0.0,0.0,136.0,4.0,170.0,136.0,68.0,204.0,102.0,34.0,orange,circle
0.0,1.0,1.0,0.0,7.0,5.0,1586.4371190000384,2.0,1.0,part_3,go,0.0,0.0,0.0,108.0,2.0,162.0,54.0,270.0,324.0,108.0,216.0,orange,circle
0.0,2.0,2.0,0.0,7.0,3.0,1102.7831289993628,2.0,1.0,part_3,go,0.0,0.0,0.0,98.0,2.0,196.0,49.0,98.0,294.0,245.0,147.0,green,diamond
0.0,4.0,4.0,0.0,7.0,3.0,1713.8840210000126,2.0,1.0,part_3,go,0.0,0.0,0.0,88.0,2.0,220.0,264.0,88.0,44.0,176.0,132.0,magenta,hexagon
0.0,2.0,2.0,0.0,7.0,1.0,2480.162026000471,2.0,1.0,part_3,go,0.0,0.0,0.0,170.0,5.0,170.0,136.0,68.0,102.0,34.0,204.0,green,diamond
0.0,1.0,1.0,0.0,7.0,4.0,2103.8725440002963,2.0,1.0,part_3,go,0.0,0.0,0.0,195.0,5.0,39.0,117.0,156.0,195.0,78.0,234.0,orange,circle
0.0,5.0,1.0,1.0,7.0,5.0,1094.2560530002083,2.0,1.0,part_3,go,0.0,0.0,0.0,98.0,2.0,245.0,49.0,196.0,294.0,98.0,147.0,cyan,I
0.0,4.0,4.0,0.0,7.0,1.0,1127.5764669999262,2.0,1.0,part_3,go,0.0,0.0,0.0,108.0,2.0,108.0,270.0,216.0,54.0,162.0,324.0,magenta,hexagon
0.0,1.0,1.0,0.0,7.0,5.0,896.4410600001429,2.0,1.0,part_3,go,0.0,0.0,0.0,196.0,4.0,147.0,294.0,245.0,49.0,196.0,98.0,orange,circle
0.0,6.0,2.0,1.0,7.0,3.0,1236.2578199999916,3.0,1.0,part_3,go,0.0,0.0,0.0,176.0,4.0,264.0,220.0,176.0,88.0,44.0,132.0,yellow,cross
0.0,7.0,3.0,1.0,7.0,5.0,1276.582120000057,3.0,1.0,part_3,go,0.0,0.0,0.0,68.0,2.0,170.0,136.0,34.0,204.0,68.0,102.0,white,flipped triangle
0.0,6.0,2.0,1.0,7.0,6.0,1643.3883149993562,3.0,1.0,part_3,go,0.0,0.0,0.0,196.0,4.0,49.0,147.0,245.0,98.0,294.0,196.0,yellow,cross
0.0,2.0,2.0,0.0,7.0,4.0,2046.038578999287,3.0,1.0,part_3,go,0.0,0.0,0.0,117.0,3.0,39.0,78.0,195.0,117.0,234.0,156.0,green,diamond
0.0,7.0,3.0,1.0,7.0,4.0,1518.316822000088,3.0,1.0,part_3,go,0.0,0.0,0.0,117.0,3.0,195.0,234.0,39.0,117.0,78.0,156.0,white,flipped triangle
0.0,8.0,4.0,1.0,7.0,2.0,1898.5182429996712,3.0,1.0,part_3,go,0.0,0.0,0.0,264.0,6.0,132.0,264.0,220.0,44.0,88.0,176.0,gray,square
0.0,7.0,3.0,1.0,7.0,6.0,1052.8188110001793,3.0,1.0,part_3,go,0.0,0.0,0.0,196.0,4.0,147.0,98.0,49.0,294.0,245.0,196.0,white,flipped triangle
0.0,8.0,4.0,1.0,7.0,2.0,1762.3613129999285,3.0,1.0,part_3,go,0.0,0.0,0.0,136.0,4.0,34.0,136.0,102.0,68.0,204.0,170.0,gray,square
0.0,3.0,3.0,0.0,7.0,6.0,2736.9072619994768,3.0,1.0,part_3,go,0.0,0.0,0.0,108.0,2.0,324.0,162.0,270.0,54.0,216.0,108.0,blue,triangle
0.0,3.0,3.0,0.0,7.0,4.0,2201.6052650005804,3.0,1.0,part_3,go,0.0,0.0,0.0,176.0,4.0,88.0,132.0,264.0,176.0,44.0,220.0,blue,triangle
0.0,1.0,1.0,0.0,7.0,4.0,1568.8199290007103,3.0,1.0,part_3,go,0.0,0.0,0.0,156.0,4.0,117.0,195.0,39.0,156.0,234.0,78.0,orange,circle
0.0,3.0,3.0,0.0,7.0,5.0,3917.617056999916,3.0,1.0,part_3,go,0.0,0.0,0.0,162.0,3.0,270.0,324.0,108.0,54.0,162.0,216.0,blue,triangle
0.0,8.0,4.0,1.0,7.0,6.0,2279.7192709995215,3.0,1.0,part_3,go,0.0,0.0,0.0,196.0,4.0,245.0,98.0,49.0,147.0,294.0,196.0,gray,square
0.0,4.0,4.0,0.0,7.0,3.0,1897.3752620004232,3.0,1.0,part_3,go,0.0,0.0,0.0,108.0,2.0,162.0,216.0,108.0,270.0,54.0,324.0,magenta,hexagon
0.0,6.0,2.0,1.0,7.0,5.0,1361.4430930001618,3.0,1.0,part_3,go,0.0,0.0,0.0,108.0,2.0,54.0,324.0,162.0,270.0,108.0,216.0,yellow,cross
0.0,8.0,4.0,1.0,7.0,5.0,2241.9065240001146,3.0,1.0,part_3,go,0.0,0.0,0.0,147.0,3.0,245.0,49.0,294.0,98.0,147.0,196.0,gray,square
0.0,2.0,2.0,0.0,7.0,2.0,1440.0277009999627,3.0,1.0,part_3,go,0.0,0.0,0.0,147.0,3.0,294.0,147.0,245.0,196.0,49.0,98.0,green,diamond
0.0,7.0,3.0,1.0,7.0,4.0,1881.8095579999865,3.0,1.0,part_3,go,0.0,0.0,0.0,170.0,5.0,136.0,68.0,204.0,170.0,102.0,34.0,white,flipped triangle
0.0,7.0,3.0,1.0,7.0,1.0,2044.036008999683,3.0,1.0,part_3,go,0.0,0.0,0.0,108.0,2.0,108.0,324.0,54.0,270.0,162.0,216.0,white,flipped triangle
0.0,4.0,4.0,0.0,7.0,4.0,1838.559013000122,3.0,1.0,part_3,go,0.0,0.0,0.0,196.0,4.0,147.0,98.0,294.0,196.0,245.0,49.0,magenta,hexagon
0.0,5.0,1.0,1.0,7.0,5.0,1832.5329169992983,4.0,1.0,part_3,go,0.0,0.0,0.0,136.0,4.0,170.0,204.0,102.0,68.0,136.0,34.0,cyan,I
0.0,2.0,2.0,0.0,7.0,2.0,1224.729904999549,4.0,1.0,part_3,go,0.0,0.0,0.0,162.0,3.0,216.0,162.0,54.0,108.0,324.0,270.0,green,diamond
0.0,3.0,3.0,0.0,7.0,2.0,2738.1976659999054,4.0,1.0,part_3,go,0.0,0.0,0.0,147.0,3.0,49.0,147.0,245.0,196.0,98.0,294.0,blue,triangle
0.0,1.0,1.0,0.0,7.0,2.0,1544.3786269997872,4.0,1.0,part_3,go,0.0,0.0,0.0,176.0,4.0,220.0,176.0,264.0,44.0,132.0,88.0,orange,circle
0.0,1.0,1.0,0.0,7.0,5.0,1381.5837749998536,4.0,1.0,part_3,go,0.0,0.0,0.0,132.0,3.0,44.0,176.0,88.0,220.0,132.0,264.0,orange,circle
0.0,8.0,4.0,1.0,7.0,2.0,1249.2509969997627,4.0,1.0,part_3,go,0.0,0.0,0.0,176.0,4.0,264.0,176.0,220.0,88.0,44.0,132.0,gray,square
0.0,1.0,1.0,0.0,7.0,5.0,910.7709590007288,4.0,1.0,part_3,go,0.0,0.0,0.0,170.0,5.0,34.0,102.0,68.0,204.0,170.0,136.0,orange,circle
0.0,8.0,4.0,1.0,7.0,2.0,1421.4511870004571,4.0,1.0,part_3,go,0.0,0.0,0.0,156.0,4.0,195.0,156.0,234.0,117.0,39.0,78.0,gray,square
0.0,6.0,2.0,1.0,7.0,4.0,1146.5037029993257,4.0,1.0,part_3,go,0.0,0.0,0.0,156.0,4.0,117.0,195.0,78.0,156.0,234.0,39.0,yellow,cross
0.0,3.0,3.0,0.0,7.0,1.0,2624.4041829995695,4.0,1.0,part_3,go,0.0,0.0,0.0,147.0,3.0,147.0,196.0,49.0,245.0,98.0,294.0,blue,triangle
0.0,6.0,2.0,1.0,7.0,4.0,2346.4679589997104,4.0,1.0,part_3,go,0.0,0.0,0.0,102.0,3.0,34.0,136.0,68.0,102.0,204.0,170.0,yellow,cross
0.0,5.0,1.0,1.0,7.0,2.0,2464.2761580007573,4.0,1.0,part_3,go,0.0,0.0,0.0,88.0,2.0,220.0,88.0,132.0,264.0,176.0,44.0,cyan,I
0.0,6.0,2.0,1.0,7.0,1.0,2596.9149459997425,4.0,1.0,part_3,go,0.0,0.0,0.0,117.0,3.0,117.0,156.0,78.0,234.0,195.0,39.0,yellow,cross
0.0,2.0,2.0,0.0,7.0,6.0,2612.7071450000585,4.0,1.0,part_3,go,0.0,0.0,0.0,176.0,4.0,44.0,264.0,88.0,132.0,220.0,176.0,green,diamond
0.0,4.0,4.0,0.0,7.0,6.0,1853.0253819999416,4.0,1.0,part_3,go,0.0,0.0,0.0,88.0,2.0,132.0,176.0,44.0,264.0,220.0,88.0,magenta,hexagon
0.0,6.0,2.0,1.0,7.0,4.0,1822.20432000031,4.0,1.0,part_3,go,0.0,0.0,0.0,132.0,3.0,88.0,264.0,44.0,132.0,220.0,176.0,yellow,cross
0.0,6.0,2.0,1.0,7.0,2.0,3186.6723579996687,4.0,1.0,part_3,go,0.0,0.0,0.0,162.0,3.0,216.0,162.0,108.0,324.0,54.0,270.0,yellow,cross
0.0,4.0,4.0,0.0,7.0,6.0,2077.5043319999895,4.0,1.0,part_3,go,0.0,0.0,0.0,68.0,2.0,34.0,204.0,102.0,136.0,170.0,68.0,magenta,hexagon
0.0,6.0,2.0,1.0,7.0,2.0,1962.278146999779,4.0,1.0,part_3,go,0.0,0.0,0.0,102.0,3.0,68.0,102.0,204.0,170.0,34.0,136.0,yellow,cross
0.0,3.0,3.0,0.0,7.0,1.0,1205.34531300018,4.0,1.0,part_3,go,0.0,0.0,0.0,117.0,3.0,117.0,78.0,234.0,195.0,39.0,156.0,blue,triangle
