raw_reward_magnitude,stim_reward,stepwise_reward_magnitude,paired_with_stopping,quadrant,response,reaction_time,block,num_trial_presentations,which_part,stop_signal_trial_type,left_SSD,right_SSD,accuracy,chosen_bidding_amount,chosen_bidding_level,possible_bid_1,possible_bid_2,possible_bid_3,possible_bid_4,possible_bid_5,possible_bid_6,color_text,shape_text
26.0,1.0,1.0,0.0,4.0,4.0,624.3368509999527,1.0,1.0,part_1,,,,,,,,,,,,,green,square
0.0,7.0,0.0,1.0,4.0,4.0,487.8037010003027,1.0,1.0,part_1,,,,,,,,,,,,,blue,hexagon
0.0,4.0,0.0,0.0,4.0,4.0,407.4733680004101,1.0,1.0,part_1,,,,,,,,,,,,,magenta,triangle
0.0,5.0,0.0,1.0,4.0,4.0,409.4617810001182,1.0,1.0,part_1,,,,,,,,,,,,,white,cross
120.0,2.0,2.0,0.0,2.0,2.0,463.6173990002135,1.0,1.0,part_1,,,,,,,,,,,,,gray,I
99.0,6.0,2.0,1.0,2.0,2.0,377.4922069997046,1.0,1.0,part_1,,,,,,,,,,,,,orange,diamond
29.0,5.0,1.0,1.0,3.0,3.0,338.1983639997088,1.0,1.0,part_1,,,,,,,,,,,,,white,cross
0.0,6.0,0.0,1.0,1.0,1.0,506.69318699965515,1.0,1.0,part_1,,,,,,,,,,,,,orange,diamond
0.0,8.0,0.0,1.0,3.0,3.0,362.0688650003103,1.0,1.0,part_1,,,,,,,,,,,,,cyan,flipped triangle
398.0,8.0,4.0,1.0,4.0,4.0,391.0914089997277,1.0,1.0,part_1,,,,,,,,,,,,,cyan,flipped triangle
398.0,8.0,4.0,1.0,1.0,1.0,416.3251080003647,1.0,1.0,part_1,,,,,,,,,,,,,cyan,flipped triangle
0.0,8.0,0.0,1.0,4.0,4.0,410.7763980000527,1.0,1.0,part_1,,,,,,,,,,,,,cyan,flipped triangle
409.0,4.0,4.0,0.0,4.0,4.0,345.993405000172,1.0,1.0,part_1,,,,,,,,,,,,,magenta,triangle
201.0,3.0,3.0,0.0,3.0,3.0,397.9830460002631,1.0,1.0,part_1,,,,,,,,,,,,,yellow,circle
414.0,8.0,4.0,1.0,4.0,4.0,473.3790840000438,1.0,1.0,part_1,,,,,,,,,,,,,cyan,flipped triangle
91.0,6.0,2.0,1.0,3.0,3.0,398.6031099998399,1.0,1.0,part_1,,,,,,,,,,,,,orange,diamond
72.0,5.0,1.0,1.0,1.0,1.0,741.0800650000056,1.0,1.0,part_1,,,,,,,,,,,,,white,cross
0.0,2.0,0.0,0.0,4.0,4.0,389.4193959999938,1.0,1.0,part_1,,,,,,,,,,,,,gray,I
376.0,4.0,4.0,0.0,4.0,4.0,370.3198399998655,1.0,1.0,part_1,,,,,,,,,,,,,magenta,triangle
0.0,5.0,0.0,1.0,3.0,3.0,337.5828049997835,1.0,1.0,part_1,,,,,,,,,,,,,white,cross
106.0,6.0,2.0,1.0,4.0,4.0,373.0119599999852,1.0,1.0,part_1,,,,,,,,,,,,,orange,diamond
389.0,8.0,4.0,1.0,2.0,2.0,352.8556149999531,1.0,1.0,part_1,,,,,,,,,,,,,cyan,flipped triangle
202.0,7.0,3.0,1.0,4.0,4.0,294.0724330001103,1.0,1.0,part_1,,,,,,,,,,,,,blue,hexagon
390.0,8.0,4.0,1.0,3.0,3.0,332.6866470001732,1.0,1.0,part_1,,,,,,,,,,,,,cyan,flipped triangle
192.0,7.0,3.0,1.0,1.0,1.0,445.9511059999386,1.0,1.0,part_1,,,,,,,,,,,,,blue,hexagon
0.0,8.0,0.0,1.0,3.0,3.0,305.2671700002065,1.0,1.0,part_1,,,,,,,,,,,,,cyan,flipped triangle
398.0,4.0,4.0,0.0,3.0,3.0,318.5542350001924,1.0,1.0,part_1,,,,,,,,,,,,,magenta,triangle
116.0,2.0,2.0,0.0,2.0,2.0,391.9194790000802,1.0,1.0,part_1,,,,,,,,,,,,,gray,I
186.0,3.0,3.0,0.0,4.0,4.0,400.6225849998373,1.0,1.0,part_1,,,,,,,,,,,,,yellow,circle
184.0,7.0,3.0,1.0,2.0,2.0,301.6158719997293,1.0,1.0,part_1,,,,,,,,,,,,,blue,hexagon
0.0,2.0,0.0,0.0,1.0,1.0,350.7238219999635,1.0,1.0,part_1,,,,,,,,,,,,,gray,I
46.0,1.0,1.0,0.0,2.0,2.0,316.3687400001436,1.0,1.0,part_1,,,,,,,,,,,,,green,square
423.0,4.0,4.0,0.0,2.0,2.0,316.034485000273,1.0,1.0,part_1,,,,,,,,,,,,,magenta,triangle
0.0,3.0,0.0,0.0,4.0,4.0,280.165573999966,1.0,1.0,part_1,,,,,,,,,,,,,yellow,circle
419.0,4.0,4.0,0.0,2.0,2.0,257.4465170000621,1.0,1.0,part_1,,,,,,,,,,,,,magenta,triangle
29.0,1.0,1.0,0.0,4.0,4.0,298.3135909998964,1.0,1.0,part_1,,,,,,,,,,,,,green,square
72.0,5.0,1.0,1.0,2.0,2.0,278.1660870000451,1.0,1.0,part_1,,,,,,,,,,,,,white,cross
196.0,7.0,3.0,1.0,1.0,1.0,403.663214000062,1.0,1.0,part_1,,,,,,,,,,,,,blue,hexagon
109.0,6.0,2.0,1.0,1.0,1.0,363.5033900000053,1.0,1.0,part_1,,,,,,,,,,,,,orange,diamond
193.0,7.0,3.0,1.0,1.0,1.0,333.1224329999713,1.0,1.0,part_1,,,,,,,,,,,,,blue,hexagon
109.0,2.0,2.0,0.0,1.0,1.0,316.7049849998875,1.0,1.0,part_1,,,,,,,,,,,,,gray,I
0.0,2.0,0.0,0.0,3.0,3.0,401.5777120002894,1.0,1.0,part_1,,,,,,,,,,,,,gray,I
203.0,3.0,3.0,0.0,3.0,3.0,325.7340079999267,1.0,1.0,part_1,,,,,,,,,,,,,yellow,circle
0.0,2.0,0.0,0.0,1.0,1.0,294.3947839999055,1.0,1.0,part_1,,,,,,,,,,,,,gray,I
0.0,7.0,0.0,1.0,4.0,4.0,319.6341180000672,1.0,1.0,part_1,,,,,,,,,,,,,blue,hexagon
102.0,2.0,2.0,0.0,4.0,4.0,379.0517490001548,1.0,1.0,part_1,,,,,,,,,,,,,gray,I
0.0,7.0,0.0,1.0,3.0,3.0,300.12464299989,1.0,1.0,part_1,,,,,,,,,,,,,blue,hexagon
0.0,3.0,0.0,0.0,4.0,4.0,302.4058109999714,1.0,1.0,part_1,,,,,,,,,,,,,yellow,circle
61.0,1.0,1.0,0.0,3.0,3.0,301.1882569999216,1.0,1.0,part_1,,,,,,,,,,,,,green,square
386.0,4.0,4.0,0.0,3.0,3.0,315.1343990002715,1.0,1.0,part_1,,,,,,,,,,,,,magenta,triangle
179.0,3.0,3.0,0.0,4.0,4.0,271.562578999692,1.0,1.0,part_1,,,,,,,,,,,,,yellow,circle
56.0,5.0,1.0,1.0,1.0,1.0,367.5721510003313,1.0,1.0,part_1,,,,,,,,,,,,,white,cross
106.0,6.0,2.0,1.0,1.0,1.0,379.4806060000155,1.0,1.0,part_1,,,,,,,,,,,,,orange,diamond
405.0,4.0,4.0,0.0,4.0,4.0,328.8815020000584,1.0,1.0,part_1,,,,,,,,,,,,,magenta,triangle
415.0,8.0,4.0,1.0,2.0,2.0,329.604467000081,1.0,1.0,part_1,,,,,,,,,,,,,cyan,flipped triangle
197.0,3.0,3.0,0.0,4.0,4.0,306.9428590001735,1.0,1.0,part_1,,,,,,,,,,,,,yellow,circle
54.0,5.0,1.0,1.0,4.0,4.0,409.1380250001748,1.0,2.0,part_1,,,,,,,,,,,,,white,cross
403.0,4.0,4.0,0.0,2.0,2.0,338.9947030000257,1.0,1.0,part_1,,,,,,,,,,,,,magenta,triangle
410.0,4.0,4.0,0.0,3.0,3.0,298.2385400000567,1.0,1.0,part_1,,,,,,,,,,,,,magenta,triangle
87.0,6.0,2.0,1.0,3.0,3.0,336.4535320001778,1.0,1.0,part_1,,,,,,,,,,,,,orange,diamond
422.0,8.0,4.0,1.0,3.0,3.0,321.9836499997655,1.0,1.0,part_1,,,,,,,,,,,,,cyan,flipped triangle
61.0,5.0,1.0,1.0,3.0,3.0,359.7921619998487,1.0,1.0,part_1,,,,,,,,,,,,,white,cross
52.0,5.0,1.0,1.0,1.0,1.0,466.9687649998195,1.0,1.0,part_1,,,,,,,,,,,,,white,cross
84.0,6.0,2.0,1.0,2.0,2.0,370.6523450000532,1.0,1.0,part_1,,,,,,,,,,,,,orange,diamond
399.0,4.0,4.0,0.0,1.0,1.0,483.3772389997648,1.0,1.0,part_1,,,,,,,,,,,,,magenta,triangle
410.0,8.0,4.0,1.0,1.0,1.0,368.836979000207,1.0,1.0,part_1,,,,,,,,,,,,,cyan,flipped triangle
101.0,6.0,2.0,1.0,2.0,2.0,274.4538160000047,1.0,1.0,part_1,,,,,,,,,,,,,orange,diamond
220.0,7.0,3.0,1.0,4.0,4.0,384.6694700000626,1.0,1.0,part_1,,,,,,,,,,,,,blue,hexagon
183.0,3.0,3.0,0.0,2.0,2.0,365.7087339997815,1.0,1.0,part_1,,,,,,,,,,,,,yellow,circle
30.0,5.0,1.0,1.0,4.0,4.0,314.5798949999516,1.0,1.0,part_1,,,,,,,,,,,,,white,cross
213.0,3.0,3.0,0.0,1.0,1.0,414.6053529998426,1.0,1.0,part_1,,,,,,,,,,,,,yellow,circle
0.0,7.0,0.0,1.0,4.0,4.0,412.8117839995866,1.0,1.0,part_1,,,,,,,,,,,,,blue,hexagon
32.0,5.0,1.0,1.0,3.0,3.0,353.5040849997131,1.0,1.0,part_1,,,,,,,,,,,,,white,cross
212.0,3.0,3.0,0.0,4.0,4.0,394.5523630000025,1.0,1.0,part_1,,,,,,,,,,,,,yellow,circle
386.0,8.0,4.0,1.0,2.0,2.0,379.0416389997517,1.0,1.0,part_1,,,,,,,,,,,,,cyan,flipped triangle
54.0,1.0,1.0,0.0,3.0,3.0,295.9688050000295,1.0,1.0,part_1,,,,,,,,,,,,,green,square
33.0,5.0,1.0,1.0,3.0,3.0,360.5017350000707,1.0,1.0,part_1,,,,,,,,,,,,,white,cross
92.0,6.0,2.0,1.0,4.0,4.0,378.7512929998229,1.0,1.0,part_1,,,,,,,,,,,,,orange,diamond
0.0,4.0,0.0,0.0,2.0,2.0,389.8150899999564,1.0,1.0,part_1,,,,,,,,,,,,,magenta,triangle
0.0,4.0,0.0,0.0,2.0,2.0,346.9223409997539,1.0,1.0,part_1,,,,,,,,,,,,,magenta,triangle
112.0,6.0,2.0,1.0,4.0,4.0,355.9379530001934,1.0,1.0,part_1,,,,,,,,,,,,,orange,diamond
87.0,2.0,2.0,0.0,4.0,4.0,369.8617019999801,1.0,1.0,part_1,,,,,,,,,,,,,gray,I
101.0,2.0,2.0,0.0,2.0,2.0,371.6591200000039,1.0,1.0,part_1,,,,,,,,,,,,,gray,I
0.0,6.0,0.0,1.0,3.0,3.0,345.0631119999343,1.0,1.0,part_1,,,,,,,,,,,,,orange,diamond
86.0,6.0,2.0,1.0,2.0,2.0,350.3164520002428,1.0,1.0,part_1,,,,,,,,,,,,,orange,diamond
0.0,5.0,0.0,1.0,3.0,3.0,350.5042489996413,1.0,1.0,part_1,,,,,,,,,,,,,white,cross
0.0,3.0,0.0,0.0,1.0,1.0,396.0958809998374,1.0,1.0,part_1,,,,,,,,,,,,,yellow,circle
404.0,4.0,4.0,0.0,3.0,3.0,329.4150140000056,1.0,1.0,part_1,,,,,,,,,,,,,magenta,triangle
79.0,2.0,2.0,0.0,1.0,1.0,342.9958130000159,1.0,1.0,part_1,,,,,,,,,,,,,gray,I
105.0,6.0,2.0,1.0,3.0,3.0,354.1146840002511,1.0,1.0,part_1,,,,,,,,,,,,,orange,diamond
94.0,2.0,2.0,0.0,4.0,4.0,365.0940040001842,1.0,1.0,part_1,,,,,,,,,,,,,gray,I
210.0,3.0,3.0,0.0,4.0,4.0,364.3780170000354,1.0,1.0,part_1,,,,,,,,,,,,,yellow,circle
191.0,3.0,3.0,0.0,3.0,3.0,296.7305570000462,1.0,1.0,part_1,,,,,,,,,,,,,yellow,circle
402.0,8.0,4.0,1.0,3.0,3.0,411.485545999767,1.0,1.0,part_1,,,,,,,,,,,,,cyan,flipped triangle
61.0,5.0,1.0,1.0,3.0,3.0,355.9948469996925,1.0,1.0,part_1,,,,,,,,,,,,,white,cross
119.0,6.0,2.0,1.0,2.0,2.0,384.0953459998673,1.0,1.0,part_1,,,,,,,,,,,,,orange,diamond
210.0,7.0,3.0,1.0,3.0,3.0,374.5878029999403,1.0,1.0,part_1,,,,,,,,,,,,,blue,hexagon
61.0,1.0,1.0,0.0,2.0,2.0,407.3364589999073,1.0,1.0,part_1,,,,,,,,,,,,,green,square
122.0,6.0,2.0,1.0,3.0,3.0,379.1755679999369,1.0,1.0,part_1,,,,,,,,,,,,,orange,diamond
41.0,5.0,1.0,1.0,3.0,3.0,342.6736050000727,1.0,1.0,part_1,,,,,,,,,,,,,white,cross
409.0,4.0,4.0,0.0,1.0,1.0,458.2627569998294,2.0,1.0,part_1,,,,,,,,,,,,,magenta,triangle
405.0,8.0,4.0,1.0,2.0,2.0,326.2248949999957,2.0,1.0,part_1,,,,,,,,,,,,,cyan,flipped triangle
0.0,3.0,0.0,0.0,2.0,2.0,349.4467780001287,2.0,1.0,part_1,,,,,,,,,,,,,yellow,circle
189.0,7.0,3.0,1.0,3.0,3.0,331.7158969998672,2.0,1.0,part_1,,,,,,,,,,,,,blue,hexagon
0.0,4.0,0.0,0.0,4.0,4.0,501.1344829999871,2.0,1.0,part_1,,,,,,,,,,,,,magenta,triangle
32.0,1.0,1.0,0.0,4.0,4.0,342.5328570001511,2.0,1.0,part_1,,,,,,,,,,,,,green,square
40.0,5.0,1.0,1.0,1.0,1.0,357.9550100002961,2.0,1.0,part_1,,,,,,,,,,,,,white,cross
29.0,1.0,1.0,0.0,2.0,2.0,322.8004340003281,2.0,1.0,part_1,,,,,,,,,,,,,green,square
112.0,6.0,2.0,1.0,4.0,4.0,359.8874979998072,2.0,1.0,part_1,,,,,,,,,,,,,orange,diamond
399.0,4.0,4.0,0.0,1.0,1.0,361.5247709999494,2.0,1.0,part_1,,,,,,,,,,,,,magenta,triangle
0.0,8.0,0.0,1.0,3.0,3.0,383.7075129999903,2.0,2.0,part_1,,,,,,,,,,,,,cyan,flipped triangle
41.0,1.0,1.0,0.0,3.0,3.0,306.1084749997462,2.0,1.0,part_1,,,,,,,,,,,,,green,square
406.0,4.0,4.0,0.0,2.0,2.0,330.9217610003543,2.0,1.0,part_1,,,,,,,,,,,,,magenta,triangle
221.0,7.0,3.0,1.0,1.0,1.0,344.0702159996363,2.0,1.0,part_1,,,,,,,,,,,,,blue,hexagon
30.0,1.0,1.0,0.0,4.0,4.0,460.3585469999416,2.0,1.0,part_1,,,,,,,,,,,,,green,square
80.0,2.0,2.0,0.0,3.0,3.0,355.2225309999812,2.0,1.0,part_1,,,,,,,,,,,,,gray,I
39.0,5.0,1.0,1.0,2.0,2.0,316.3999779999358,2.0,1.0,part_1,,,,,,,,,,,,,white,cross
74.0,5.0,1.0,1.0,2.0,2.0,326.1084159998972,2.0,1.0,part_1,,,,,,,,,,,,,white,cross
0.0,1.0,0.0,0.0,1.0,1.0,391.1309940003775,2.0,1.0,part_1,,,,,,,,,,,,,green,square
116.0,6.0,2.0,1.0,1.0,1.0,360.4097239999646,2.0,1.0,part_1,,,,,,,,,,,,,orange,diamond
175.0,7.0,3.0,1.0,3.0,3.0,273.8327740003115,2.0,1.0,part_1,,,,,,,,,,,,,blue,hexagon
122.0,2.0,2.0,0.0,2.0,2.0,326.2486389999139,2.0,1.0,part_1,,,,,,,,,,,,,gray,I
99.0,2.0,2.0,0.0,1.0,1.0,373.708367999825,2.0,1.0,part_1,,,,,,,,,,,,,gray,I
95.0,6.0,2.0,1.0,3.0,3.0,297.2891489998801,2.0,1.0,part_1,,,,,,,,,,,,,orange,diamond
404.0,8.0,4.0,1.0,4.0,4.0,390.0517680003759,2.0,1.0,part_1,,,,,,,,,,,,,cyan,flipped triangle
76.0,6.0,2.0,1.0,4.0,4.0,344.8912499998187,2.0,1.0,part_1,,,,,,,,,,,,,orange,diamond
389.0,4.0,4.0,0.0,1.0,1.0,369.5594249998066,2.0,1.0,part_1,,,,,,,,,,,,,magenta,triangle
197.0,7.0,3.0,1.0,4.0,4.0,407.3823779999657,2.0,1.0,part_1,,,,,,,,,,,,,blue,hexagon
0.0,1.0,0.0,0.0,3.0,3.0,366.9041080001989,2.0,1.0,part_1,,,,,,,,,,,,,green,square
178.0,7.0,3.0,1.0,4.0,4.0,359.3151280001621,2.0,1.0,part_1,,,,,,,,,,,,,blue,hexagon
0.0,4.0,0.0,0.0,1.0,1.0,344.7275570001693,2.0,1.0,part_1,,,,,,,,,,,,,magenta,triangle
37.0,5.0,1.0,1.0,1.0,1.0,369.4408169999406,2.0,1.0,part_1,,,,,,,,,,,,,white,cross
83.0,2.0,2.0,0.0,1.0,1.0,362.5765209999372,2.0,1.0,part_1,,,,,,,,,,,,,gray,I
44.0,5.0,1.0,1.0,3.0,3.0,284.6183649999148,2.0,1.0,part_1,,,,,,,,,,,,,white,cross
193.0,3.0,3.0,0.0,3.0,3.0,295.1116550002552,2.0,1.0,part_1,,,,,,,,,,,,,yellow,circle
216.0,7.0,3.0,1.0,2.0,2.0,318.6433770001713,2.0,1.0,part_1,,,,,,,,,,,,,blue,hexagon
91.0,2.0,2.0,0.0,1.0,1.0,375.1101039997593,2.0,1.0,part_1,,,,,,,,,,,,,gray,I
76.0,2.0,2.0,0.0,4.0,4.0,323.2877479999843,2.0,1.0,part_1,,,,,,,,,,,,,gray,I
178.0,3.0,3.0,0.0,1.0,1.0,373.3965090000311,2.0,1.0,part_1,,,,,,,,,,,,,yellow,circle
0.0,7.0,0.0,1.0,2.0,2.0,304.9903450000784,2.0,1.0,part_1,,,,,,,,,,,,,blue,hexagon
417.0,8.0,4.0,1.0,3.0,3.0,333.0485939995924,2.0,1.0,part_1,,,,,,,,,,,,,cyan,flipped triangle
0.0,6.0,0.0,1.0,3.0,3.0,335.2178790000835,2.0,1.0,part_1,,,,,,,,,,,,,orange,diamond
399.0,8.0,4.0,1.0,1.0,1.0,436.8721170003482,2.0,1.0,part_1,,,,,,,,,,,,,cyan,flipped triangle
184.0,7.0,3.0,1.0,1.0,1.0,421.8093140002565,2.0,1.0,part_1,,,,,,,,,,,,,blue,hexagon
223.0,3.0,3.0,0.0,3.0,3.0,303.1324339999628,2.0,1.0,part_1,,,,,,,,,,,,,yellow,circle
200.0,7.0,3.0,1.0,4.0,4.0,386.8816660001357,2.0,1.0,part_1,,,,,,,,,,,,,blue,hexagon
125.0,2.0,2.0,0.0,3.0,3.0,310.9593350000068,2.0,1.0,part_1,,,,,,,,,,,,,gray,I
33.0,1.0,1.0,0.0,3.0,3.0,314.2100869999922,2.0,1.0,part_1,,,,,,,,,,,,,green,square
208.0,3.0,3.0,0.0,2.0,2.0,418.8969719998567,2.0,1.0,part_1,,,,,,,,,,,,,yellow,circle
125.0,2.0,2.0,0.0,2.0,2.0,382.795630000146,2.0,1.0,part_1,,,,,,,,,,,,,gray,I
112.0,2.0,2.0,0.0,4.0,4.0,382.3599410002316,2.0,1.0,part_1,,,,,,,,,,,,,gray,I
49.0,5.0,1.0,1.0,4.0,4.0,386.2505469996904,2.0,1.0,part_1,,,,,,,,,,,,,white,cross
39.0,1.0,1.0,0.0,4.0,4.0,427.5157849997413,2.0,1.0,part_1,,,,,,,,,,,,,green,square
0.0,5.0,0.0,1.0,4.0,4.0,386.3541080004324,2.0,1.0,part_1,,,,,,,,,,,,,white,cross
188.0,7.0,3.0,1.0,2.0,2.0,510.80443499995454,2.0,1.0,part_1,,,,,,,,,,,,,blue,hexagon
404.0,4.0,4.0,0.0,2.0,2.0,327.5708510000186,2.0,1.0,part_1,,,,,,,,,,,,,magenta,triangle
0.0,5.0,0.0,1.0,1.0,1.0,409.5306519998303,2.0,1.0,part_1,,,,,,,,,,,,,white,cross
106.0,2.0,2.0,0.0,4.0,4.0,388.5757540001577,2.0,1.0,part_1,,,,,,,,,,,,,gray,I
76.0,2.0,2.0,0.0,4.0,4.0,375.0980919999165,2.0,1.0,part_1,,,,,,,,,,,,,gray,I
84.0,2.0,2.0,0.0,3.0,3.0,356.9796960000531,2.0,1.0,part_1,,,,,,,,,,,,,gray,I
183.0,7.0,3.0,1.0,2.0,2.0,349.1174870000577,2.0,1.0,part_1,,,,,,,,,,,,,blue,hexagon
0.0,6.0,0.0,1.0,1.0,1.0,415.4600199999549,2.0,1.0,part_1,,,,,,,,,,,,,orange,diamond
0.0,4.0,0.0,0.0,1.0,1.0,371.1532429997533,2.0,1.0,part_1,,,,,,,,,,,,,magenta,triangle
400.0,4.0,4.0,0.0,4.0,4.0,381.0566449997168,2.0,1.0,part_1,,,,,,,,,,,,,magenta,triangle
206.0,7.0,3.0,1.0,4.0,4.0,436.1450359997434,2.0,1.0,part_1,,,,,,,,,,,,,blue,hexagon
0.0,6.0,0.0,1.0,1.0,1.0,382.9614350001975,2.0,1.0,part_1,,,,,,,,,,,,,orange,diamond
0.0,1.0,0.0,0.0,3.0,3.0,352.8914560001794,2.0,1.0,part_1,,,,,,,,,,,,,green,square
398.0,4.0,4.0,0.0,2.0,2.0,345.9001300002455,2.0,1.0,part_1,,,,,,,,,,,,,magenta,triangle
73.0,1.0,1.0,0.0,3.0,3.0,341.8102870000439,2.0,1.0,part_1,,,,,,,,,,,,,green,square
202.0,3.0,3.0,0.0,2.0,2.0,389.9731280002925,2.0,1.0,part_1,,,,,,,,,,,,,yellow,circle
0.0,7.0,0.0,1.0,3.0,3.0,322.3474979999992,2.0,1.0,part_1,,,,,,,,,,,,,blue,hexagon
67.0,5.0,1.0,1.0,1.0,1.0,435.3584389996285,2.0,1.0,part_1,,,,,,,,,,,,,white,cross
106.0,2.0,2.0,0.0,1.0,1.0,390.2060810000876,2.0,1.0,part_1,,,,,,,,,,,,,gray,I
0.0,3.0,0.0,0.0,4.0,4.0,345.0742640002318,2.0,1.0,part_1,,,,,,,,,,,,,yellow,circle
184.0,3.0,3.0,0.0,4.0,4.0,363.7469350001083,2.0,1.0,part_1,,,,,,,,,,,,,yellow,circle
83.0,6.0,2.0,1.0,4.0,4.0,369.2633919999935,2.0,1.0,part_1,,,,,,,,,,,,,orange,diamond
419.0,8.0,4.0,1.0,1.0,1.0,353.5965179999039,2.0,1.0,part_1,,,,,,,,,,,,,cyan,flipped triangle
378.0,8.0,4.0,1.0,1.0,1.0,362.3837979998825,2.0,1.0,part_1,,,,,,,,,,,,,cyan,flipped triangle
390.0,8.0,4.0,1.0,1.0,1.0,302.3552150002615,2.0,1.0,part_1,,,,,,,,,,,,,cyan,flipped triangle
175.0,3.0,3.0,0.0,3.0,3.0,255.5315269996754,2.0,1.0,part_1,,,,,,,,,,,,,yellow,circle
53.0,1.0,1.0,0.0,4.0,4.0,292.4915800003873,2.0,1.0,part_1,,,,,,,,,,,,,green,square
220.0,3.0,3.0,0.0,3.0,3.0,311.9982729999719,2.0,1.0,part_1,,,,,,,,,,,,,yellow,circle
214.0,7.0,3.0,1.0,3.0,3.0,293.355105000046,2.0,1.0,part_1,,,,,,,,,,,,,blue,hexagon
204.0,7.0,3.0,1.0,4.0,4.0,369.0546360003282,2.0,1.0,part_1,,,,,,,,,,,,,blue,hexagon
198.0,3.0,3.0,0.0,2.0,2.0,348.8077929996507,2.0,1.0,part_1,,,,,,,,,,,,,yellow,circle
391.0,4.0,4.0,0.0,2.0,2.0,360.3552490003494,2.0,1.0,part_1,,,,,,,,,,,,,magenta,triangle
393.0,4.0,4.0,0.0,4.0,4.0,400.4085749998012,2.0,1.0,part_1,,,,,,,,,,,,,magenta,triangle
391.0,8.0,4.0,1.0,1.0,1.0,411.2647010001637,2.0,1.0,part_1,,,,,,,,,,,,,cyan,flipped triangle
105.0,2.0,2.0,0.0,4.0,4.0,427.1994300002006,2.0,2.0,part_1,,,,,,,,,,,,,gray,I
375.0,8.0,4.0,1.0,2.0,2.0,388.0018230001951,2.0,1.0,part_1,,,,,,,,,,,,,cyan,flipped triangle
0.0,3.0,0.0,0.0,2.0,2.0,377.8651499997068,2.0,1.0,part_1,,,,,,,,,,,,,yellow,circle
116.0,6.0,2.0,1.0,4.0,4.0,398.14715600005,2.0,1.0,part_1,,,,,,,,,,,,,orange,diamond
402.0,4.0,4.0,0.0,4.0,4.0,536.2597570001526,2.0,1.0,part_1,,,,,,,,,,,,,magenta,triangle
0.0,1.0,0.0,0.0,2.0,2.0,437.2836170000482,2.0,1.0,part_1,,,,,,,,,,,,,green,square
64.0,5.0,1.0,1.0,4.0,4.0,355.2244419997805,2.0,1.0,part_1,,,,,,,,,,,,,white,cross
0.0,1.0,0.0,0.0,3.0,3.0,313.5682350002753,2.0,1.0,part_1,,,,,,,,,,,,,green,square
49.0,1.0,1.0,0.0,3.0,3.0,391.201121999984,2.0,1.0,part_1,,,,,,,,,,,,,green,square
44.0,1.0,1.0,0.0,1.0,1.0,486.3206129998616,2.0,1.0,part_1,,,,,,,,,,,,,green,square
0.0,2.0,0.0,0.0,4.0,4.0,357.6890430003914,2.0,1.0,part_1,,,,,,,,,,,,,gray,I
376.0,8.0,4.0,1.0,2.0,2.0,574.3152430000009,2.0,1.0,part_1,,,,,,,,,,,,,cyan,flipped triangle
69.0,5.0,1.0,1.0,2.0,2.0,506.0880740002176,3.0,1.0,part_1,,,,,,,,,,,,,white,cross
115.0,2.0,2.0,0.0,2.0,2.0,354.073519999929,3.0,1.0,part_1,,,,,,,,,,,,,gray,I
0.0,2.0,0.0,0.0,4.0,4.0,386.6238119999252,3.0,1.0,part_1,,,,,,,,,,,,,gray,I
0.0,8.0,0.0,1.0,2.0,2.0,363.418245000048,3.0,1.0,part_1,,,,,,,,,,,,,cyan,flipped triangle
416.0,4.0,4.0,0.0,4.0,4.0,437.7441189999445,3.0,1.0,part_1,,,,,,,,,,,,,magenta,triangle
69.0,5.0,1.0,1.0,4.0,4.0,457.8861940003662,3.0,1.0,part_1,,,,,,,,,,,,,white,cross
29.0,5.0,1.0,1.0,2.0,2.0,436.5602449997823,3.0,1.0,part_1,,,,,,,,,,,,,white,cross
44.0,5.0,1.0,1.0,1.0,1.0,386.0505470001953,3.0,1.0,part_1,,,,,,,,,,,,,white,cross
193.0,3.0,3.0,0.0,1.0,1.0,381.2625590003335,3.0,1.0,part_1,,,,,,,,,,,,,yellow,circle
111.0,2.0,2.0,0.0,1.0,1.0,397.6619539998864,3.0,1.0,part_1,,,,,,,,,,,,,gray,I
83.0,2.0,2.0,0.0,4.0,4.0,362.438242999815,3.0,1.0,part_1,,,,,,,,,,,,,gray,I
205.0,7.0,3.0,1.0,2.0,2.0,376.583754999956,3.0,1.0,part_1,,,,,,,,,,,,,blue,hexagon
112.0,2.0,2.0,0.0,2.0,2.0,385.7279059998291,3.0,1.0,part_1,,,,,,,,,,,,,gray,I
393.0,8.0,4.0,1.0,3.0,3.0,320.0031629999103,3.0,1.0,part_1,,,,,,,,,,,,,cyan,flipped triangle
0.0,8.0,0.0,1.0,4.0,4.0,354.1798849996667,3.0,1.0,part_1,,,,,,,,,,,,,cyan,flipped triangle
201.0,7.0,3.0,1.0,2.0,2.0,332.2313300000132,3.0,1.0,part_1,,,,,,,,,,,,,blue,hexagon
42.0,1.0,1.0,0.0,1.0,1.0,393.6629840000023,3.0,1.0,part_1,,,,,,,,,,,,,green,square
410.0,4.0,4.0,0.0,3.0,3.0,357.1275629997217,3.0,1.0,part_1,,,,,,,,,,,,,magenta,triangle
379.0,8.0,4.0,1.0,4.0,4.0,322.2508010003366,3.0,1.0,part_1,,,,,,,,,,,,,cyan,flipped triangle
56.0,1.0,1.0,0.0,1.0,1.0,417.1646029999465,3.0,1.0,part_1,,,,,,,,,,,,,green,square
213.0,7.0,3.0,1.0,3.0,3.0,280.8949360000952,3.0,1.0,part_1,,,,,,,,,,,,,blue,hexagon
221.0,3.0,3.0,0.0,4.0,4.0,328.86137100013,3.0,1.0,part_1,,,,,,,,,,,,,yellow,circle
71.0,5.0,1.0,1.0,2.0,2.0,433.68638200036,3.0,1.0,part_1,,,,,,,,,,,,,white,cross
183.0,3.0,3.0,0.0,1.0,1.0,353.5062579999248,3.0,1.0,part_1,,,,,,,,,,,,,yellow,circle
0.0,7.0,0.0,1.0,3.0,3.0,357.4009750000186,3.0,1.0,part_1,,,,,,,,,,,,,blue,hexagon
192.0,3.0,3.0,0.0,1.0,1.0,377.0974819999537,3.0,1.0,part_1,,,,,,,,,,,,,yellow,circle
210.0,7.0,3.0,1.0,1.0,1.0,395.801195000331,3.0,1.0,part_1,,,,,,,,,,,,,blue,hexagon
36.0,5.0,1.0,1.0,3.0,3.0,326.5146049998293,3.0,1.0,part_1,,,,,,,,,,,,,white,cross
409.0,8.0,4.0,1.0,2.0,2.0,437.5330990001203,3.0,1.0,part_1,,,,,,,,,,,,,cyan,flipped triangle
0.0,1.0,0.0,0.0,2.0,2.0,381.5050869998231,3.0,1.0,part_1,,,,,,,,,,,,,green,square
92.0,2.0,2.0,0.0,3.0,3.0,405.0034490001053,3.0,1.0,part_1,,,,,,,,,,,,,gray,I
120.0,6.0,2.0,1.0,4.0,4.0,386.436952999702,3.0,1.0,part_1,,,,,,,,,,,,,orange,diamond
390.0,4.0,4.0,0.0,3.0,3.0,326.3560320001488,3.0,1.0,part_1,,,,,,,,,,,,,magenta,triangle
46.0,5.0,1.0,1.0,1.0,1.0,361.6168549997383,3.0,1.0,part_1,,,,,,,,,,,,,white,cross
404.0,8.0,4.0,1.0,4.0,4.0,411.4765469998929,3.0,1.0,part_1,,,,,,,,,,,,,cyan,flipped triangle
0.0,6.0,0.0,1.0,3.0,3.0,364.507641000273,3.0,1.0,part_1,,,,,,,,,,,,,orange,diamond
191.0,7.0,3.0,1.0,1.0,1.0,347.110122000231,3.0,1.0,part_1,,,,,,,,,,,,,blue,hexagon
414.0,4.0,4.0,0.0,4.0,4.0,409.7976419998304,3.0,1.0,part_1,,,,,,,,,,,,,magenta,triangle
0.0,5.0,0.0,1.0,2.0,2.0,371.396587000163,3.0,1.0,part_1,,,,,,,,,,,,,white,cross
72.0,1.0,1.0,0.0,3.0,3.0,312.2189310001886,3.0,1.0,part_1,,,,,,,,,,,,,green,square
26.0,5.0,1.0,1.0,2.0,2.0,381.3416970001526,3.0,1.0,part_1,,,,,,,,,,,,,white,cross
44.0,1.0,1.0,0.0,2.0,2.0,351.0452509999595,3.0,1.0,part_1,,,,,,,,,,,,,green,square
64.0,1.0,1.0,0.0,4.0,4.0,325.7448350000231,3.0,1.0,part_1,,,,,,,,,,,,,green,square
222.0,3.0,3.0,0.0,2.0,2.0,391.2222180001663,3.0,1.0,part_1,,,,,,,,,,,,,yellow,circle
29.0,5.0,1.0,1.0,1.0,1.0,392.9650219997711,3.0,1.0,part_1,,,,,,,,,,,,,white,cross
83.0,2.0,2.0,0.0,2.0,2.0,352.9709120002735,3.0,1.0,part_1,,,,,,,,,,,,,gray,I
79.0,6.0,2.0,1.0,1.0,1.0,382.1191740003087,3.0,1.0,part_1,,,,,,,,,,,,,orange,diamond
0.0,4.0,0.0,0.0,4.0,4.0,359.491005000109,3.0,1.0,part_1,,,,,,,,,,,,,magenta,triangle
0.0,1.0,0.0,0.0,1.0,1.0,331.2588680000772,3.0,1.0,part_1,,,,,,,,,,,,,green,square
406.0,4.0,4.0,0.0,3.0,3.0,337.710786000116,3.0,1.0,part_1,,,,,,,,,,,,,magenta,triangle
183.0,7.0,3.0,1.0,2.0,2.0,352.0020380001369,3.0,1.0,part_1,,,,,,,,,,,,,blue,hexagon
188.0,7.0,3.0,1.0,3.0,3.0,468.3628549996683,3.0,1.0,part_1,,,,,,,,,,,,,blue,hexagon
406.0,8.0,4.0,1.0,1.0,1.0,366.1437370001295,3.0,1.0,part_1,,,,,,,,,,,,,cyan,flipped triangle
417.0,4.0,4.0,0.0,4.0,4.0,412.0938099999875,3.0,1.0,part_1,,,,,,,,,,,,,magenta,triangle
58.0,5.0,1.0,1.0,4.0,4.0,416.1777260001145,3.0,1.0,part_1,,,,,,,,,,,,,white,cross
0.0,8.0,0.0,1.0,1.0,1.0,428.4515529998316,3.0,1.0,part_1,,,,,,,,,,,,,cyan,flipped triangle
83.0,6.0,2.0,1.0,3.0,3.0,391.4724670003124,3.0,1.0,part_1,,,,,,,,,,,,,orange,diamond
222.0,7.0,3.0,1.0,3.0,3.0,387.2171080001862,3.0,1.0,part_1,,,,,,,,,,,,,blue,hexagon
184.0,3.0,3.0,0.0,1.0,1.0,394.2108100000041,3.0,1.0,part_1,,,,,,,,,,,,,yellow,circle
49.0,5.0,1.0,1.0,2.0,2.0,433.4099110001261,3.0,1.0,part_1,,,,,,,,,,,,,white,cross
95.0,6.0,2.0,1.0,2.0,2.0,366.0373610000533,3.0,1.0,part_1,,,,,,,,,,,,,orange,diamond
124.0,2.0,2.0,0.0,3.0,3.0,347.9144030002317,3.0,1.0,part_1,,,,,,,,,,,,,gray,I
416.0,8.0,4.0,1.0,4.0,4.0,510.3455940002277,3.0,1.0,part_1,,,,,,,,,,,,,cyan,flipped triangle
29.0,1.0,1.0,0.0,1.0,1.0,361.9846159999724,3.0,1.0,part_1,,,,,,,,,,,,,green,square
397.0,8.0,4.0,1.0,3.0,3.0,356.9975390000763,3.0,1.0,part_1,,,,,,,,,,,,,cyan,flipped triangle
69.0,1.0,1.0,0.0,2.0,2.0,395.452853000279,3.0,1.0,part_1,,,,,,,,,,,,,green,square
58.0,1.0,1.0,0.0,3.0,3.0,335.3202610001062,3.0,1.0,part_1,,,,,,,,,,,,,green,square
0.0,2.0,0.0,0.0,3.0,3.0,346.9447929996931,3.0,1.0,part_1,,,,,,,,,,,,,gray,I
0.0,3.0,0.0,0.0,2.0,2.0,341.794044999915,3.0,1.0,part_1,,,,,,,,,,,,,yellow,circle
34.0,5.0,1.0,1.0,1.0,1.0,376.6954409998106,3.0,1.0,part_1,,,,,,,,,,,,,white,cross
83.0,2.0,2.0,0.0,4.0,4.0,398.4812409998994,3.0,1.0,part_1,,,,,,,,,,,,,gray,I
71.0,1.0,1.0,0.0,4.0,4.0,386.0015230002318,3.0,1.0,part_1,,,,,,,,,,,,,green,square
382.0,4.0,4.0,0.0,1.0,1.0,385.4008509997584,3.0,1.0,part_1,,,,,,,,,,,,,magenta,triangle
216.0,3.0,3.0,0.0,3.0,3.0,336.6916769996351,3.0,1.0,part_1,,,,,,,,,,,,,yellow,circle
403.0,8.0,4.0,1.0,4.0,4.0,354.630889999953,3.0,1.0,part_1,,,,,,,,,,,,,cyan,flipped triangle
191.0,7.0,3.0,1.0,2.0,2.0,414.6212130003732,3.0,1.0,part_1,,,,,,,,,,,,,blue,hexagon
192.0,3.0,3.0,0.0,2.0,2.0,345.6766369999968,3.0,1.0,part_1,,,,,,,,,,,,,yellow,circle
0.0,3.0,0.0,0.0,4.0,4.0,348.4777150001719,3.0,1.0,part_1,,,,,,,,,,,,,yellow,circle
0.0,8.0,0.0,1.0,1.0,1.0,347.4440059999324,3.0,1.0,part_1,,,,,,,,,,,,,cyan,flipped triangle
0.0,8.0,0.0,1.0,4.0,4.0,325.1033900000948,3.0,1.0,part_1,,,,,,,,,,,,,cyan,flipped triangle
91.0,6.0,2.0,1.0,2.0,2.0,351.3441260001855,3.0,1.0,part_1,,,,,,,,,,,,,orange,diamond
205.0,3.0,3.0,0.0,2.0,2.0,358.2595540001421,3.0,1.0,part_1,,,,,,,,,,,,,yellow,circle
91.0,2.0,2.0,0.0,2.0,2.0,355.5158549997941,3.0,1.0,part_1,,,,,,,,,,,,,gray,I
88.0,2.0,2.0,0.0,2.0,2.0,456.8147090003549,3.0,1.0,part_1,,,,,,,,,,,,,gray,I
0.0,7.0,0.0,1.0,4.0,4.0,520.9448450000309,3.0,1.0,part_1,,,,,,,,,,,,,blue,hexagon
204.0,3.0,3.0,0.0,4.0,4.0,349.6855549997235,3.0,1.0,part_1,,,,,,,,,,,,,yellow,circle
385.0,4.0,4.0,0.0,1.0,1.0,341.8183500002669,3.0,1.0,part_1,,,,,,,,,,,,,magenta,triangle
37.0,1.0,1.0,0.0,1.0,1.0,307.9416789996685,3.0,1.0,part_1,,,,,,,,,,,,,green,square
45.0,5.0,1.0,1.0,3.0,3.0,306.9851939999353,3.0,1.0,part_1,,,,,,,,,,,,,white,cross
125.0,6.0,2.0,1.0,1.0,1.0,356.7422189998979,3.0,1.0,part_1,,,,,,,,,,,,,orange,diamond
80.0,6.0,2.0,1.0,1.0,1.0,328.5299429999213,3.0,1.0,part_1,,,,,,,,,,,,,orange,diamond
196.0,3.0,3.0,0.0,1.0,1.0,328.6109269997723,3.0,1.0,part_1,,,,,,,,,,,,,yellow,circle
45.0,1.0,1.0,0.0,1.0,1.0,324.4907909997891,3.0,1.0,part_1,,,,,,,,,,,,,green,square
399.0,8.0,4.0,1.0,4.0,4.0,385.7935740002176,3.0,1.0,part_1,,,,,,,,,,,,,cyan,flipped triangle
423.0,8.0,4.0,1.0,3.0,3.0,314.2005539998536,3.0,1.0,part_1,,,,,,,,,,,,,cyan,flipped triangle
375.0,4.0,4.0,0.0,3.0,3.0,292.3992830001225,3.0,1.0,part_1,,,,,,,,,,,,,magenta,triangle
0.0,1.0,0.0,0.0,3.0,3.0,355.9601820002172,3.0,1.0,part_1,,,,,,,,,,,,,green,square
378.0,4.0,4.0,0.0,1.0,1.0,404.2344109998339,3.0,1.0,part_1,,,,,,,,,,,,,magenta,triangle
208.0,7.0,3.0,1.0,4.0,4.0,379.2660869999054,3.0,1.0,part_1,,,,,,,,,,,,,blue,hexagon
215.0,7.0,3.0,1.0,4.0,4.0,321.5044059998035,3.0,1.0,part_1,,,,,,,,,,,,,blue,hexagon
387.0,4.0,4.0,0.0,2.0,2.0,657.0628019999276,4.0,1.0,part_1,,,,,,,,,,,,,magenta,triangle
0.0,6.0,0.0,1.0,1.0,1.0,618.7852389998625,4.0,1.0,part_1,,,,,,,,,,,,,orange,diamond
88.0,6.0,2.0,1.0,1.0,1.0,428.6627229998885,4.0,1.0,part_1,,,,,,,,,,,,,orange,diamond
121.0,2.0,2.0,0.0,3.0,3.0,341.205586000342,4.0,1.0,part_1,,,,,,,,,,,,,gray,I
223.0,7.0,3.0,1.0,4.0,4.0,386.4301769999656,4.0,1.0,part_1,,,,,,,,,,,,,blue,hexagon
0.0,6.0,0.0,1.0,2.0,2.0,391.211167000165,4.0,1.0,part_1,,,,,,,,,,,,,orange,diamond
0.0,7.0,0.0,1.0,1.0,1.0,443.4763809999822,4.0,1.0,part_1,,,,,,,,,,,,,blue,hexagon
200.0,3.0,3.0,0.0,3.0,3.0,417.1023710000554,4.0,1.0,part_1,,,,,,,,,,,,,yellow,circle
188.0,3.0,3.0,0.0,4.0,4.0,385.8065740000711,4.0,1.0,part_1,,,,,,,,,,,,,yellow,circle
221.0,3.0,3.0,0.0,2.0,2.0,389.934390000235,4.0,1.0,part_1,,,,,,,,,,,,,yellow,circle
0.0,1.0,0.0,0.0,2.0,2.0,363.4341679999124,4.0,1.0,part_1,,,,,,,,,,,,,green,square
400.0,8.0,4.0,1.0,4.0,4.0,384.0736930001185,4.0,1.0,part_1,,,,,,,,,,,,,cyan,flipped triangle
65.0,5.0,1.0,1.0,3.0,3.0,379.7597940001651,4.0,1.0,part_1,,,,,,,,,,,,,white,cross
179.0,7.0,3.0,1.0,1.0,1.0,416.6564659999494,4.0,1.0,part_1,,,,,,,,,,,,,blue,hexagon
406.0,8.0,4.0,1.0,2.0,2.0,363.7683459996879,4.0,1.0,part_1,,,,,,,,,,,,,cyan,flipped triangle
206.0,3.0,3.0,0.0,2.0,2.0,329.3968369998765,4.0,1.0,part_1,,,,,,,,,,,,,yellow,circle
119.0,2.0,2.0,0.0,1.0,1.0,363.39174800014,4.0,1.0,part_1,,,,,,,,,,,,,gray,I
0.0,3.0,0.0,0.0,4.0,4.0,397.594578999815,4.0,1.0,part_1,,,,,,,,,,,,,yellow,circle
399.0,8.0,4.0,1.0,1.0,1.0,346.9697839996115,4.0,1.0,part_1,,,,,,,,,,,,,cyan,flipped triangle
102.0,6.0,2.0,1.0,1.0,1.0,338.3802490002381,4.0,1.0,part_1,,,,,,,,,,,,,orange,diamond
210.0,3.0,3.0,0.0,3.0,3.0,345.7701009997436,4.0,1.0,part_1,,,,,,,,,,,,,yellow,circle
387.0,8.0,4.0,1.0,1.0,1.0,340.7223310000518,4.0,1.0,part_1,,,,,,,,,,,,,cyan,flipped triangle
82.0,2.0,2.0,0.0,3.0,3.0,342.4066520001361,4.0,1.0,part_1,,,,,,,,,,,,,gray,I
112.0,2.0,2.0,0.0,1.0,1.0,362.253844999941,4.0,1.0,part_1,,,,,,,,,,,,,gray,I
215.0,3.0,3.0,0.0,1.0,1.0,362.0981809999648,4.0,1.0,part_1,,,,,,,,,,,,,yellow,circle
86.0,2.0,2.0,0.0,3.0,3.0,323.5754100001031,4.0,1.0,part_1,,,,,,,,,,,,,gray,I
83.0,6.0,2.0,1.0,2.0,2.0,338.0378380002184,4.0,1.0,part_1,,,,,,,,,,,,,orange,diamond
0.0,6.0,0.0,1.0,4.0,4.0,347.4355649996141,4.0,1.0,part_1,,,,,,,,,,,,,orange,diamond
186.0,7.0,3.0,1.0,3.0,3.0,361.1925709997194,4.0,1.0,part_1,,,,,,,,,,,,,blue,hexagon
95.0,2.0,2.0,0.0,3.0,3.0,370.8844470002077,4.0,1.0,part_1,,,,,,,,,,,,,gray,I
203.0,7.0,3.0,1.0,2.0,2.0,361.0430700000506,4.0,1.0,part_1,,,,,,,,,,,,,blue,hexagon
379.0,4.0,4.0,0.0,2.0,2.0,340.2828060002321,4.0,1.0,part_1,,,,,,,,,,,,,magenta,triangle
397.0,4.0,4.0,0.0,1.0,1.0,369.6088219999183,4.0,1.0,part_1,,,,,,,,,,,,,magenta,triangle
116.0,2.0,2.0,0.0,1.0,1.0,355.5443229997763,4.0,1.0,part_1,,,,,,,,,,,,,gray,I
198.0,7.0,3.0,1.0,2.0,2.0,402.6579660003335,4.0,1.0,part_1,,,,,,,,,,,,,blue,hexagon
72.0,1.0,1.0,0.0,2.0,2.0,373.2755030000589,4.0,1.0,part_1,,,,,,,,,,,,,green,square
0.0,8.0,0.0,1.0,4.0,4.0,354.8423819997879,4.0,1.0,part_1,,,,,,,,,,,,,cyan,flipped triangle
409.0,8.0,4.0,1.0,2.0,2.0,366.8133050000506,4.0,1.0,part_1,,,,,,,,,,,,,cyan,flipped triangle
112.0,6.0,2.0,1.0,3.0,3.0,292.7629870000601,4.0,1.0,part_1,,,,,,,,,,,,,orange,diamond
390.0,4.0,4.0,0.0,1.0,1.0,328.4607390000928,4.0,1.0,part_1,,,,,,,,,,,,,magenta,triangle
0.0,3.0,0.0,0.0,4.0,4.0,385.1390939998964,4.0,1.0,part_1,,,,,,,,,,,,,yellow,circle
65.0,1.0,1.0,0.0,1.0,1.0,327.7009660000658,4.0,1.0,part_1,,,,,,,,,,,,,green,square
422.0,8.0,4.0,1.0,3.0,3.0,313.5917519998656,4.0,1.0,part_1,,,,,,,,,,,,,cyan,flipped triangle
83.0,6.0,2.0,1.0,3.0,3.0,386.176494999745,4.0,1.0,part_1,,,,,,,,,,,,,orange,diamond
422.0,4.0,4.0,0.0,1.0,1.0,328.5496429998602,4.0,1.0,part_1,,,,,,,,,,,,,magenta,triangle
67.0,1.0,1.0,0.0,2.0,2.0,321.4232739996987,4.0,1.0,part_1,,,,,,,,,,,,,green,square
52.0,1.0,1.0,0.0,4.0,4.0,343.884607000291,4.0,1.0,part_1,,,,,,,,,,,,,green,square
55.0,5.0,1.0,1.0,4.0,4.0,362.0981469998696,4.0,1.0,part_1,,,,,,,,,,,,,white,cross
0.0,5.0,0.0,1.0,1.0,1.0,485.0208520001615,4.0,1.0,part_1,,,,,,,,,,,,,white,cross
49.0,1.0,1.0,0.0,4.0,4.0,475.3994610000518,4.0,1.0,part_1,,,,,,,,,,,,,green,square
46.0,5.0,1.0,1.0,4.0,4.0,341.0517590000381,4.0,1.0,part_1,,,,,,,,,,,,,white,cross
94.0,6.0,2.0,1.0,4.0,4.0,356.0245049998229,4.0,1.0,part_1,,,,,,,,,,,,,orange,diamond
409.0,4.0,4.0,0.0,4.0,4.0,397.1872150000308,4.0,1.0,part_1,,,,,,,,,,,,,magenta,triangle
0.0,4.0,0.0,0.0,4.0,4.0,336.1415439999291,4.0,1.0,part_1,,,,,,,,,,,,,magenta,triangle
125.0,6.0,2.0,1.0,2.0,2.0,369.0995200004181,4.0,1.0,part_1,,,,,,,,,,,,,orange,diamond
40.0,1.0,1.0,0.0,1.0,1.0,423.1680529996993,4.0,1.0,part_1,,,,,,,,,,,,,green,square
76.0,6.0,2.0,1.0,3.0,3.0,318.5935689998587,4.0,1.0,part_1,,,,,,,,,,,,,orange,diamond
46.0,1.0,1.0,0.0,1.0,1.0,338.4941910003363,4.0,1.0,part_1,,,,,,,,,,,,,green,square
192.0,7.0,3.0,1.0,3.0,3.0,371.5518909998536,4.0,2.0,part_1,,,,,,,,,,,,,blue,hexagon
111.0,6.0,2.0,1.0,4.0,4.0,336.815672999819,4.0,1.0,part_1,,,,,,,,,,,,,orange,diamond
0.0,2.0,0.0,0.0,3.0,3.0,330.9630540002217,4.0,1.0,part_1,,,,,,,,,,,,,gray,I
121.0,6.0,2.0,1.0,1.0,1.0,442.4615089997132,4.0,1.0,part_1,,,,,,,,,,,,,orange,diamond
399.0,4.0,4.0,0.0,2.0,2.0,360.7257789999494,4.0,1.0,part_1,,,,,,,,,,,,,magenta,triangle
124.0,6.0,2.0,1.0,2.0,2.0,357.1744410000974,4.0,1.0,part_1,,,,,,,,,,,,,orange,diamond
82.0,6.0,2.0,1.0,3.0,3.0,315.1308270003028,4.0,1.0,part_1,,,,,,,,,,,,,orange,diamond
0.0,5.0,0.0,1.0,4.0,4.0,332.2198550004032,4.0,1.0,part_1,,,,,,,,,,,,,white,cross
212.0,7.0,3.0,1.0,1.0,1.0,348.2465369997953,4.0,1.0,part_1,,,,,,,,,,,,,blue,hexagon
36.0,1.0,1.0,0.0,1.0,1.0,420.3159260000575,4.0,1.0,part_1,,,,,,,,,,,,,green,square
415.0,4.0,4.0,0.0,3.0,3.0,347.9904689997966,4.0,1.0,part_1,,,,,,,,,,,,,magenta,triangle
0.0,6.0,0.0,1.0,1.0,1.0,331.6664619997027,4.0,1.0,part_1,,,,,,,,,,,,,orange,diamond
0.0,5.0,0.0,1.0,4.0,4.0,336.1203109998314,4.0,1.0,part_1,,,,,,,,,,,,,white,cross
0.0,2.0,0.0,0.0,4.0,4.0,283.6512710000534,4.0,1.0,part_1,,,,,,,,,,,,,gray,I
42.0,5.0,1.0,1.0,2.0,2.0,313.258653000048,4.0,1.0,part_1,,,,,,,,,,,,,white,cross
53.0,5.0,1.0,1.0,4.0,4.0,346.2891999997737,4.0,1.0,part_1,,,,,,,,,,,,,white,cross
0.0,1.0,0.0,0.0,3.0,3.0,392.1073699998487,4.0,1.0,part_1,,,,,,,,,,,,,green,square
95.0,2.0,2.0,0.0,3.0,3.0,351.4880379998431,4.0,1.0,part_1,,,,,,,,,,,,,gray,I
73.0,5.0,1.0,1.0,4.0,4.0,359.4015610001406,4.0,1.0,part_1,,,,,,,,,,,,,white,cross
422.0,4.0,4.0,0.0,3.0,3.0,323.7718010000208,4.0,1.0,part_1,,,,,,,,,,,,,magenta,triangle
410.0,8.0,4.0,1.0,3.0,3.0,362.8983639996477,4.0,1.0,part_1,,,,,,,,,,,,,cyan,flipped triangle
385.0,8.0,4.0,1.0,4.0,4.0,391.8701739999051,4.0,1.0,part_1,,,,,,,,,,,,,cyan,flipped triangle
409.0,8.0,4.0,1.0,2.0,2.0,383.4326320002219,4.0,1.0,part_1,,,,,,,,,,,,,cyan,flipped triangle
0.0,4.0,0.0,0.0,4.0,4.0,449.8342759998195,4.0,1.0,part_1,,,,,,,,,,,,,magenta,triangle
0.0,5.0,0.0,1.0,1.0,1.0,385.7482869998421,4.0,1.0,part_1,,,,,,,,,,,,,white,cross
55.0,1.0,1.0,0.0,2.0,2.0,348.9334129999406,4.0,1.0,part_1,,,,,,,,,,,,,green,square
0.0,4.0,0.0,0.0,4.0,4.0,346.8954050003958,4.0,1.0,part_1,,,,,,,,,,,,,magenta,triangle
193.0,7.0,3.0,1.0,3.0,3.0,309.762437000245,4.0,1.0,part_1,,,,,,,,,,,,,blue,hexagon
382.0,8.0,4.0,1.0,3.0,3.0,396.0447449999265,4.0,1.0,part_1,,,,,,,,,,,,,cyan,flipped triangle
74.0,1.0,1.0,0.0,2.0,2.0,353.6980210001275,4.0,1.0,part_1,,,,,,,,,,,,,green,square
115.0,6.0,2.0,1.0,1.0,1.0,444.91447900009,4.0,1.0,part_1,,,,,,,,,,,,,orange,diamond
0.0,7.0,0.0,1.0,1.0,1.0,402.176622999832,4.0,1.0,part_1,,,,,,,,,,,,,blue,hexagon
191.0,3.0,3.0,0.0,1.0,1.0,433.1091310000374,4.0,1.0,part_1,,,,,,,,,,,,,yellow,circle
189.0,3.0,3.0,0.0,4.0,4.0,350.4959520000739,4.0,1.0,part_1,,,,,,,,,,,,,yellow,circle
188.0,3.0,3.0,0.0,2.0,2.0,442.8978979999556,4.0,1.0,part_1,,,,,,,,,,,,,yellow,circle
69.0,1.0,1.0,0.0,2.0,2.0,320.2934649998497,4.0,1.0,part_1,,,,,,,,,,,,,green,square
39.0,5.0,1.0,1.0,2.0,2.0,371.8927429999894,4.0,1.0,part_1,,,,,,,,,,,,,white,cross
34.0,1.0,1.0,0.0,3.0,3.0,326.8504019997635,4.0,1.0,part_1,,,,,,,,,,,,,green,square
214.0,3.0,3.0,0.0,1.0,1.0,316.3074509998296,4.0,1.0,part_1,,,,,,,,,,,,,yellow,circle
39.0,1.0,1.0,0.0,3.0,3.0,295.3540450002947,4.0,1.0,part_1,,,,,,,,,,,,,green,square
221.0,7.0,3.0,1.0,1.0,1.0,400.6801580003412,4.0,1.0,part_1,,,,,,,,,,,,,blue,hexagon
0.0,2.0,0.0,0.0,2.0,2.0,428.8737789997867,4.0,1.0,part_1,,,,,,,,,,,,,gray,I
0.0,5.0,1.0,1.0,6.0,6.0,441.7956960000992,1.0,0.0,part_2,stop,250.0,250.0,3.0,,,,,,,,,white,cross
0.0,6.0,2.0,1.0,6.0,6.0,448.6931930000537,1.0,0.0,part_2,go,250.0,200.0,1.0,,,,,,,,,orange,diamond
0.0,4.0,4.0,0.0,6.0,6.0,390.9414979998473,1.0,0.0,part_2,go,250.0,200.0,1.0,,,,,,,,,magenta,triangle
0.0,1.0,1.0,0.0,5.0,5.0,359.5123250001961,1.0,0.0,part_2,go,250.0,200.0,1.0,,,,,,,,,green,square
0.0,7.0,3.0,1.0,5.0,5.0,396.1791140000059,1.0,0.0,part_2,go,250.0,200.0,1.0,,,,,,,,,blue,hexagon
0.0,5.0,1.0,1.0,6.0,6.0,267.0286890001989,1.0,0.0,part_2,stop,250.0,200.0,3.0,,,,,,,,,white,cross
0.0,4.0,4.0,0.0,6.0,6.0,398.0075109998324,1.0,0.0,part_2,go,250.0,150.0,1.0,,,,,,,,,magenta,triangle
0.0,1.0,1.0,0.0,5.0,5.0,324.128976999873,1.0,0.0,part_2,go,250.0,150.0,1.0,,,,,,,,,green,square
0.0,2.0,2.0,0.0,6.0,6.0,417.4804030003542,1.0,0.0,part_2,go,250.0,150.0,1.0,,,,,,,,,gray,I
0.0,6.0,2.0,1.0,5.0,5.0,326.7688959999759,1.0,0.0,part_2,go,250.0,150.0,1.0,,,,,,,,,orange,diamond
0.0,4.0,4.0,0.0,6.0,6.0,336.4072210001723,1.0,0.0,part_2,go,250.0,150.0,1.0,,,,,,,,,magenta,triangle
0.0,1.0,1.0,0.0,5.0,5.0,294.1723300000376,1.0,0.0,part_2,go,250.0,150.0,1.0,,,,,,,,,green,square
0.0,8.0,4.0,1.0,5.0,5.0,303.4294379999664,1.0,0.0,part_2,stop,250.0,150.0,3.0,,,,,,,,,cyan,flipped triangle
0.0,4.0,4.0,0.0,5.0,5.0,403.3246160001908,1.0,0.0,part_2,go,200.0,150.0,1.0,,,,,,,,,magenta,triangle
0.0,6.0,2.0,1.0,5.0,5.0,350.5108419999487,1.0,0.0,part_2,go,200.0,150.0,1.0,,,,,,,,,orange,diamond
0.0,7.0,3.0,1.0,5.0,5.0,337.6876860002085,1.0,0.0,part_2,go,200.0,150.0,1.0,,,,,,,,,blue,hexagon
0.0,6.0,2.0,1.0,5.0,5.0,485.2658230001907,1.0,0.0,part_2,go,200.0,150.0,1.0,,,,,,,,,orange,diamond
0.0,7.0,3.0,1.0,6.0,0.0,0.0,1.0,0.0,part_2,stop,200.0,150.0,4.0,,,,,,,,,blue,hexagon
0.0,3.0,3.0,0.0,6.0,6.0,462.9665770003157,1.0,0.0,part_2,go,200.0,200.0,1.0,,,,,,,,,yellow,circle
0.0,8.0,4.0,1.0,6.0,6.0,380.3717480000159,1.0,0.0,part_2,stop,200.0,200.0,3.0,,,,,,,,,cyan,flipped triangle
0.0,1.0,1.0,0.0,5.0,5.0,362.7067029997306,1.0,0.0,part_2,go,200.0,150.0,1.0,,,,,,,,,green,square
0.0,8.0,4.0,1.0,5.0,0.0,0.0,1.0,0.0,part_2,stop,200.0,150.0,4.0,,,,,,,,,cyan,flipped triangle
0.0,6.0,2.0,1.0,5.0,5.0,460.1323440001579,1.0,0.0,part_2,go,250.0,150.0,1.0,,,,,,,,,orange,diamond
0.0,3.0,3.0,0.0,5.0,5.0,399.8090150003008,1.0,0.0,part_2,go,250.0,150.0,1.0,,,,,,,,,yellow,circle
0.0,7.0,3.0,1.0,6.0,6.0,293.6527440001555,1.0,0.0,part_2,go,250.0,150.0,1.0,,,,,,,,,blue,hexagon
0.0,5.0,1.0,1.0,5.0,5.0,281.6056970000318,1.0,0.0,part_2,stop,250.0,150.0,3.0,,,,,,,,,white,cross
0.0,1.0,1.0,0.0,6.0,6.0,415.0121380002929,1.0,0.0,part_2,go,200.0,150.0,1.0,,,,,,,,,green,square
0.0,3.0,3.0,0.0,5.0,5.0,350.9797439996873,1.0,0.0,part_2,go,200.0,150.0,1.0,,,,,,,,,yellow,circle
0.0,4.0,4.0,0.0,6.0,6.0,254.5734600003015,1.0,0.0,part_2,go,200.0,150.0,1.0,,,,,,,,,magenta,triangle
0.0,5.0,1.0,1.0,5.0,5.0,304.6996339999168,1.0,0.0,part_2,stop,200.0,150.0,3.0,,,,,,,,,white,cross
0.0,8.0,4.0,1.0,5.0,0.0,0.0,1.0,0.0,part_2,stop,150.0,150.0,4.0,,,,,,,,,cyan,flipped triangle
0.0,7.0,3.0,1.0,5.0,5.0,664.9890150001738,1.0,0.0,part_2,go,200.0,150.0,1.0,,,,,,,,,blue,hexagon
0.0,8.0,4.0,1.0,5.0,0.0,0.0,1.0,0.0,part_2,stop,200.0,150.0,4.0,,,,,,,,,cyan,flipped triangle
0.0,1.0,1.0,0.0,5.0,5.0,504.7662209999544,1.0,0.0,part_2,go,250.0,150.0,1.0,,,,,,,,,green,square
0.0,4.0,4.0,0.0,5.0,5.0,375.3291760003776,1.0,0.0,part_2,go,250.0,150.0,1.0,,,,,,,,,magenta,triangle
0.0,4.0,4.0,0.0,6.0,6.0,457.1491410001727,1.0,0.0,part_2,go,250.0,150.0,1.0,,,,,,,,,magenta,triangle
0.0,6.0,2.0,1.0,6.0,0.0,0.0,2.0,0.0,part_2,stop,250.0,150.0,4.0,,,,,,,,,orange,diamond
0.0,5.0,1.0,1.0,6.0,0.0,0.0,2.0,0.0,part_2,stop,250.0,200.0,4.0,,,,,,,,,white,cross
0.0,4.0,4.0,0.0,5.0,5.0,436.0325570000896,2.0,0.0,part_2,go,250.0,250.0,1.0,,,,,,,,,magenta,triangle
0.0,6.0,2.0,1.0,6.0,6.0,403.2954029999018,2.0,0.0,part_2,stop,250.0,250.0,3.0,,,,,,,,,orange,diamond
0.0,1.0,1.0,0.0,6.0,6.0,427.1194539996941,2.0,0.0,part_2,go,250.0,200.0,1.0,,,,,,,,,green,square
0.0,4.0,4.0,0.0,5.0,5.0,428.1821399999899,2.0,0.0,part_2,go,250.0,200.0,1.0,,,,,,,,,magenta,triangle
0.0,2.0,2.0,0.0,5.0,5.0,541.6065760000492,2.0,0.0,part_2,go,250.0,200.0,1.0,,,,,,,,,gray,I
0.0,6.0,2.0,1.0,5.0,5.0,369.4862910001575,2.0,0.0,part_2,stop,250.0,200.0,3.0,,,,,,,,,orange,diamond
0.0,1.0,1.0,0.0,6.0,6.0,618.9582370002427,2.0,0.0,part_2,go,200.0,200.0,1.0,,,,,,,,,green,square
0.0,5.0,1.0,1.0,5.0,0.0,0.0,2.0,0.0,part_2,stop,200.0,200.0,4.0,,,,,,,,,white,cross
0.0,8.0,4.0,1.0,5.0,0.0,0.0,2.0,0.0,part_2,stop,250.0,200.0,4.0,,,,,,,,,cyan,flipped triangle
0.0,8.0,4.0,1.0,6.0,0.0,0.0,2.0,0.0,part_2,stop,300.0,200.0,4.0,,,,,,,,,cyan,flipped triangle
0.0,4.0,4.0,0.0,5.0,5.0,486.9513749999896,2.0,0.0,part_2,go,300.0,250.0,1.0,,,,,,,,,magenta,triangle
0.0,1.0,1.0,0.0,6.0,6.0,508.2778800001506,2.0,0.0,part_2,go,300.0,250.0,1.0,,,,,,,,,green,square
0.0,3.0,3.0,0.0,6.0,6.0,501.03795099994386,2.0,0.0,part_2,go,300.0,250.0,1.0,,,,,,,,,yellow,circle
0.0,1.0,1.0,0.0,6.0,6.0,356.9675759999882,2.0,0.0,part_2,go,300.0,250.0,1.0,,,,,,,,,green,square
0.0,7.0,3.0,1.0,6.0,6.0,295.2355120000902,2.0,0.0,part_2,stop,300.0,250.0,3.0,,,,,,,,,blue,hexagon
0.0,2.0,2.0,0.0,5.0,5.0,464.8568150000756,2.0,0.0,part_2,go,300.0,200.0,1.0,,,,,,,,,gray,I
0.0,7.0,3.0,1.0,6.0,6.0,524.9798610002472,2.0,0.0,part_2,go,300.0,200.0,1.0,,,,,,,,,blue,hexagon
0.0,2.0,2.0,0.0,6.0,6.0,395.8799889996953,2.0,0.0,part_2,go,300.0,200.0,1.0,,,,,,,,,gray,I
0.0,7.0,3.0,1.0,5.0,0.0,0.0,2.0,0.0,part_2,stop,300.0,200.0,4.0,,,,,,,,,blue,hexagon
0.0,6.0,2.0,1.0,5.0,5.0,391.9634899998527,2.0,0.0,part_2,stop,350.0,200.0,3.0,,,,,,,,,orange,diamond
0.0,7.0,3.0,1.0,5.0,5.0,590.2529449999747,2.0,0.0,part_2,go,300.0,200.0,1.0,,,,,,,,,blue,hexagon
0.0,3.0,3.0,0.0,6.0,6.0,549.8694060001981,2.0,0.0,part_2,go,300.0,200.0,1.0,,,,,,,,,yellow,circle
0.0,6.0,2.0,1.0,6.0,0.0,0.0,2.0,0.0,part_2,stop,300.0,200.0,4.0,,,,,,,,,orange,diamond
0.0,4.0,4.0,0.0,5.0,5.0,567.6253139999972,2.0,0.0,part_2,go,300.0,250.0,1.0,,,,,,,,,magenta,triangle
0.0,7.0,3.0,1.0,5.0,5.0,358.5172499997497,2.0,0.0,part_2,stop,300.0,250.0,3.0,,,,,,,,,blue,hexagon
0.0,2.0,2.0,0.0,6.0,6.0,498.4030470000107,2.0,0.0,part_2,go,250.0,250.0,1.0,,,,,,,,,gray,I
0.0,1.0,1.0,0.0,5.0,5.0,590.6291179999243,2.0,0.0,part_2,go,250.0,250.0,1.0,,,,,,,,,green,square
0.0,4.0,4.0,0.0,5.0,5.0,495.8801789998688,2.0,0.0,part_2,go,250.0,250.0,1.0,,,,,,,,,magenta,triangle
0.0,1.0,1.0,0.0,5.0,5.0,485.6860479999341,2.0,0.0,part_2,go,250.0,250.0,1.0,,,,,,,,,green,square
0.0,8.0,4.0,1.0,6.0,0.0,0.0,2.0,0.0,part_2,stop,250.0,250.0,4.0,,,,,,,,,cyan,flipped triangle
0.0,1.0,1.0,0.0,5.0,5.0,497.9632119998314,2.0,0.0,part_2,go,250.0,300.0,1.0,,,,,,,,,green,square
0.0,8.0,4.0,1.0,5.0,0.0,0.0,2.0,0.0,part_2,stop,250.0,300.0,4.0,,,,,,,,,cyan,flipped triangle
0.0,8.0,4.0,1.0,6.0,6.0,650.6423280006857,2.0,0.0,part_2,go,300.0,300.0,1.0,,,,,,,,,cyan,flipped triangle
0.0,6.0,2.0,1.0,6.0,6.0,600.240501999906,2.0,0.0,part_2,go,300.0,300.0,1.0,,,,,,,,,orange,diamond
0.0,8.0,4.0,1.0,6.0,0.0,0.0,3.0,0.0,part_2,stop,300.0,300.0,4.0,,,,,,,,,cyan,flipped triangle
0.0,2.0,2.0,0.0,5.0,5.0,695.9694869992745,3.0,0.0,part_2,go,300.0,350.0,1.0,,,,,,,,,gray,I
0.0,6.0,2.0,1.0,6.0,0.0,0.0,3.0,0.0,part_2,stop,300.0,350.0,4.0,,,,,,,,,orange,diamond
0.0,4.0,4.0,0.0,5.0,5.0,503.5578879997047,3.0,0.0,part_2,go,300.0,400.0,1.0,,,,,,,,,magenta,triangle
0.0,2.0,2.0,0.0,5.0,5.0,447.2927960005108,3.0,0.0,part_2,go,300.0,400.0,1.0,,,,,,,,,gray,I
0.0,3.0,3.0,0.0,6.0,6.0,559.8501370004669,3.0,0.0,part_2,go,300.0,400.0,1.0,,,,,,,,,yellow,circle
0.0,8.0,4.0,1.0,6.0,6.0,486.1979260003863,3.0,0.0,part_2,stop,300.0,400.0,3.0,,,,,,,,,cyan,flipped triangle
0.0,7.0,3.0,1.0,5.0,0.0,0.0,3.0,0.0,part_2,stop,300.0,350.0,4.0,,,,,,,,,blue,hexagon
0.0,1.0,1.0,0.0,6.0,6.0,593.4085330000016,3.0,0.0,part_2,go,350.0,350.0,1.0,,,,,,,,,green,square
0.0,4.0,4.0,0.0,6.0,6.0,439.078172000336,3.0,0.0,part_2,go,350.0,350.0,1.0,,,,,,,,,magenta,triangle
0.0,8.0,4.0,1.0,5.0,5.0,569.7197749996121,3.0,0.0,part_2,go,350.0,350.0,1.0,,,,,,,,,cyan,flipped triangle
0.0,5.0,1.0,1.0,6.0,0.0,0.0,3.0,0.0,part_2,stop,350.0,350.0,4.0,,,,,,,,,white,cross
0.0,1.0,1.0,0.0,5.0,5.0,556.4649570005713,3.0,0.0,part_2,go,350.0,400.0,1.0,,,,,,,,,green,square
0.0,5.0,1.0,1.0,6.0,0.0,0.0,3.0,0.0,part_2,stop,350.0,400.0,4.0,,,,,,,,,white,cross
0.0,7.0,3.0,1.0,5.0,0.0,0.0,3.0,0.0,part_2,stop,350.0,450.0,4.0,,,,,,,,,blue,hexagon
0.0,4.0,4.0,0.0,6.0,6.0,453.4451680001439,3.0,0.0,part_2,go,400.0,450.0,1.0,,,,,,,,,magenta,triangle
0.0,3.0,3.0,0.0,5.0,5.0,560.4373939995639,3.0,0.0,part_2,go,400.0,450.0,1.0,,,,,,,,,yellow,circle
0.0,1.0,1.0,0.0,6.0,6.0,531.5743810006097,3.0,0.0,part_2,go,400.0,450.0,1.0,,,,,,,,,green,square
0.0,7.0,3.0,1.0,5.0,5.0,513.4869919993434,3.0,0.0,part_2,stop,400.0,450.0,3.0,,,,,,,,,blue,hexagon
0.0,2.0,2.0,0.0,6.0,6.0,515.8446960003857,3.0,0.0,part_2,go,350.0,450.0,1.0,,,,,,,,,gray,I
0.0,5.0,1.0,1.0,6.0,6.0,491.3108410000859,3.0,0.0,part_2,stop,350.0,450.0,3.0,,,,,,,,,white,cross
0.0,8.0,4.0,1.0,5.0,0.0,0.0,3.0,0.0,part_2,stop,350.0,400.0,4.0,,,,,,,,,cyan,flipped triangle
0.0,4.0,4.0,0.0,6.0,6.0,562.1464559999367,3.0,0.0,part_2,go,400.0,400.0,1.0,,,,,,,,,magenta,triangle
0.0,8.0,4.0,1.0,6.0,0.0,0.0,3.0,0.0,part_2,stop,400.0,400.0,4.0,,,,,,,,,cyan,flipped triangle
0.0,8.0,4.0,1.0,5.0,5.0,783.8139690002208,3.0,0.0,part_2,go,400.0,450.0,1.0,,,,,,,,,cyan,flipped triangle
0.0,6.0,2.0,1.0,5.0,0.0,0.0,3.0,0.0,part_2,stop,400.0,450.0,4.0,,,,,,,,,orange,diamond
0.0,5.0,1.0,1.0,5.0,5.0,759.2294949999996,3.0,0.0,part_2,go,450.0,450.0,1.0,,,,,,,,,white,cross
0.0,4.0,4.0,0.0,6.0,6.0,710.2377119999801,3.0,0.0,part_2,go,450.0,450.0,1.0,,,,,,,,,magenta,triangle
0.0,7.0,3.0,1.0,6.0,6.0,498.7811050004893,3.0,0.0,part_2,go,450.0,450.0,1.0,,,,,,,,,blue,hexagon
0.0,2.0,2.0,0.0,5.0,5.0,481.5032480000809,3.0,0.0,part_2,go,450.0,450.0,1.0,,,,,,,,,gray,I
0.0,5.0,1.0,1.0,5.0,5.0,585.0340880006115,3.0,0.0,part_2,stop,450.0,450.0,3.0,,,,,,,,,white,cross
0.0,6.0,2.0,1.0,6.0,0.0,0.0,3.0,0.0,part_2,stop,400.0,450.0,4.0,,,,,,,,,orange,diamond
0.0,3.0,3.0,0.0,6.0,6.0,751.4480580002783,3.0,0.0,part_2,go,400.0,500.0,1.0,,,,,,,,,yellow,circle
0.0,3.0,3.0,0.0,5.0,5.0,884.1744530000142,3.0,0.0,part_2,go,400.0,500.0,1.0,,,,,,,,,yellow,circle
0.0,3.0,3.0,0.0,5.0,5.0,802.4923419998231,3.0,0.0,part_2,go,400.0,500.0,1.0,,,,,,,,,yellow,circle
0.0,7.0,3.0,1.0,6.0,6.0,604.8491080000531,3.0,0.0,part_2,stop,400.0,500.0,3.0,,,,,,,,,blue,hexagon
0.0,8.0,4.0,1.0,5.0,0.0,0.0,4.0,0.0,part_2,stop,400.0,450.0,4.0,,,,,,,,,cyan,flipped triangle
0.0,1.0,1.0,0.0,5.0,5.0,564.1407400007665,4.0,0.0,part_2,go,450.0,450.0,1.0,,,,,,,,,green,square
0.0,8.0,4.0,1.0,5.0,5.0,783.7099649996162,4.0,0.0,part_2,go,450.0,450.0,1.0,,,,,,,,,cyan,flipped triangle
0.0,7.0,3.0,1.0,5.0,0.0,0.0,4.0,0.0,part_2,stop,450.0,450.0,4.0,,,,,,,,,blue,hexagon
0.0,6.0,2.0,1.0,5.0,0.0,0.0,4.0,0.0,part_2,stop,500.0,450.0,4.0,,,,,,,,,orange,diamond
0.0,7.0,3.0,1.0,6.0,6.0,563.3914899999581,4.0,0.0,part_2,go,550.0,450.0,1.0,,,,,,,,,blue,hexagon
0.0,6.0,2.0,1.0,6.0,0.0,0.0,4.0,0.0,part_2,stop,550.0,450.0,4.0,,,,,,,,,orange,diamond
0.0,1.0,1.0,0.0,6.0,6.0,753.5072229993602,4.0,0.0,part_2,go,550.0,500.0,1.0,,,,,,,,,green,square
0.0,4.0,4.0,0.0,6.0,6.0,664.4100480007182,4.0,0.0,part_2,go,550.0,500.0,1.0,,,,,,,,,magenta,triangle
0.0,6.0,2.0,1.0,5.0,0.0,0.0,4.0,0.0,part_2,stop,550.0,500.0,4.0,,,,,,,,,orange,diamond
0.0,3.0,3.0,0.0,6.0,6.0,674.6952559997226,4.0,0.0,part_2,go,600.0,500.0,1.0,,,,,,,,,yellow,circle
0.0,1.0,1.0,0.0,6.0,6.0,652.3177600001873,4.0,0.0,part_2,go,600.0,500.0,1.0,,,,,,,,,green,square
0.0,4.0,4.0,0.0,6.0,6.0,738.3063209999818,4.0,0.0,part_2,go,600.0,500.0,1.0,,,,,,,,,magenta,triangle
0.0,2.0,2.0,0.0,5.0,5.0,693.5090580000178,4.0,0.0,part_2,go,600.0,500.0,1.0,,,,,,,,,gray,I
0.0,7.0,3.0,1.0,5.0,5.0,709.0550579996489,4.0,0.0,part_2,stop,600.0,500.0,3.0,,,,,,,,,blue,hexagon
0.0,3.0,3.0,0.0,5.0,5.0,776.322792999963,4.0,0.0,part_2,go,550.0,500.0,1.0,,,,,,,,,yellow,circle
0.0,6.0,2.0,1.0,6.0,0.0,0.0,4.0,0.0,part_2,stop,550.0,500.0,4.0,,,,,,,,,orange,diamond
0.0,2.0,2.0,0.0,6.0,6.0,578.7618660006046,4.0,0.0,part_2,go,550.0,550.0,1.0,,,,,,,,,gray,I
0.0,2.0,2.0,0.0,6.0,6.0,915.2393989998018,4.0,0.0,part_2,go,550.0,550.0,1.0,,,,,,,,,gray,I
0.0,3.0,3.0,0.0,6.0,6.0,453.8981750001767,4.0,0.0,part_2,go,550.0,550.0,1.0,,,,,,,,,yellow,circle
0.0,2.0,2.0,0.0,6.0,6.0,877.1585889999187,4.0,0.0,part_2,go,550.0,550.0,1.0,,,,,,,,,gray,I
0.0,6.0,2.0,1.0,5.0,0.0,0.0,4.0,0.0,part_2,stop,550.0,550.0,4.0,,,,,,,,,orange,diamond
0.0,3.0,3.0,0.0,6.0,6.0,822.1755989998201,4.0,0.0,part_2,go,600.0,550.0,1.0,,,,,,,,,yellow,circle
0.0,5.0,1.0,1.0,6.0,0.0,0.0,4.0,0.0,part_2,stop,600.0,550.0,4.0,,,,,,,,,white,cross
0.0,2.0,2.0,0.0,6.0,0.0,0.0,4.0,0.0,part_2,go,600.0,600.0,5.0,,,,,,,,,gray,I
0.0,3.0,3.0,0.0,6.0,6.0,729.1772600001423,4.0,0.0,part_2,go,600.0,600.0,1.0,,,,,,,,,yellow,circle
0.0,5.0,1.0,1.0,6.0,6.0,657.0485880001797,4.0,0.0,part_2,stop,600.0,600.0,3.0,,,,,,,,,white,cross
0.0,2.0,2.0,0.0,5.0,5.0,504.36723200073175,4.0,0.0,part_2,go,600.0,550.0,1.0,,,,,,,,,gray,I
0.0,8.0,4.0,1.0,6.0,6.0,666.9924020006874,4.0,0.0,part_2,stop,600.0,550.0,3.0,,,,,,,,,cyan,flipped triangle
0.0,1.0,1.0,0.0,6.0,6.0,629.6305989999382,4.0,0.0,part_2,go,600.0,500.0,1.0,,,,,,,,,green,square
0.0,6.0,2.0,1.0,6.0,6.0,926.9347350000317,4.0,0.0,part_2,go,600.0,500.0,1.0,,,,,,,,,orange,diamond
0.0,1.0,1.0,0.0,6.0,6.0,476.181058000293,4.0,0.0,part_2,go,600.0,500.0,1.0,,,,,,,,,green,square
0.0,5.0,1.0,1.0,5.0,5.0,767.7620260001277,4.0,0.0,part_2,go,600.0,500.0,1.0,,,,,,,,,white,cross
0.0,5.0,1.0,1.0,5.0,0.0,0.0,4.0,0.0,part_2,stop,600.0,500.0,4.0,,,,,,,,,white,cross
0.0,8.0,4.0,1.0,6.0,0.0,0.0,4.0,0.0,part_2,stop,650.0,500.0,4.0,,,,,,,,,cyan,flipped triangle
0.0,5.0,1.0,1.0,5.0,5.0,688.9629889992648,4.0,0.0,part_2,stop,650.0,550.0,3.0,,,,,,,,,white,cross
0.0,8.0,4.0,1.0,5.0,5.0,1130.4040799996071,5.0,0.0,part_2,go,600.0,550.0,1.0,,,,,,,,,cyan,flipped triangle
0.0,8.0,4.0,1.0,6.0,0.0,0.0,5.0,0.0,part_2,stop,600.0,550.0,4.0,,,,,,,,,cyan,flipped triangle
0.0,2.0,2.0,0.0,6.0,6.0,661.5531980005471,5.0,0.0,part_2,go,600.0,600.0,1.0,,,,,,,,,gray,I
0.0,8.0,4.0,1.0,6.0,6.0,709.8272379998889,5.0,0.0,part_2,go,600.0,600.0,1.0,,,,,,,,,cyan,flipped triangle
0.0,3.0,3.0,0.0,5.0,5.0,494.7347689994785,5.0,0.0,part_2,go,600.0,600.0,1.0,,,,,,,,,yellow,circle
0.0,7.0,3.0,1.0,6.0,0.0,0.0,5.0,0.0,part_2,stop,600.0,600.0,4.0,,,,,,,,,blue,hexagon
0.0,8.0,4.0,1.0,6.0,0.0,0.0,5.0,0.0,part_2,stop,600.0,650.0,4.0,,,,,,,,,cyan,flipped triangle
0.0,7.0,3.0,1.0,6.0,0.0,0.0,5.0,0.0,part_2,stop,600.0,700.0,4.0,,,,,,,,,blue,hexagon
0.0,2.0,2.0,0.0,5.0,5.0,625.6329050002023,5.0,0.0,part_2,go,600.0,750.0,1.0,,,,,,,,,gray,I
0.0,7.0,3.0,1.0,6.0,6.0,865.4365449992838,5.0,0.0,part_2,stop,600.0,750.0,3.0,,,,,,,,,blue,hexagon
0.0,2.0,2.0,0.0,6.0,6.0,762.6880180005173,5.0,0.0,part_2,go,600.0,700.0,1.0,,,,,,,,,gray,I
0.0,5.0,1.0,1.0,5.0,0.0,0.0,5.0,0.0,part_2,stop,600.0,700.0,4.0,,,,,,,,,white,cross
0.0,2.0,2.0,0.0,5.0,5.0,883.8203180002893,5.0,0.0,part_2,go,650.0,700.0,1.0,,,,,,,,,gray,I
0.0,3.0,3.0,0.0,5.0,5.0,830.0815820002754,5.0,0.0,part_2,go,650.0,700.0,1.0,,,,,,,,,yellow,circle
0.0,7.0,3.0,1.0,6.0,0.0,0.0,5.0,0.0,part_2,stop,650.0,700.0,4.0,,,,,,,,,blue,hexagon
0.0,6.0,2.0,1.0,5.0,0.0,0.0,5.0,0.0,part_2,stop,650.0,750.0,4.0,,,,,,,,,orange,diamond
0.0,4.0,4.0,0.0,5.0,5.0,932.7008300006128,5.0,0.0,part_2,go,700.0,750.0,1.0,,,,,,,,,magenta,triangle
0.0,8.0,4.0,1.0,6.0,6.0,845.5896599998596,5.0,0.0,part_2,stop,700.0,750.0,3.0,,,,,,,,,cyan,flipped triangle
0.0,7.0,3.0,1.0,6.0,0.0,0.0,5.0,0.0,part_2,stop,700.0,700.0,4.0,,,,,,,,,blue,hexagon
0.0,5.0,1.0,1.0,6.0,0.0,0.0,5.0,0.0,part_2,stop,700.0,750.0,4.0,,,,,,,,,white,cross
0.0,5.0,1.0,1.0,6.0,6.0,750.5981300000713,5.0,0.0,part_2,go,700.0,800.0,1.0,,,,,,,,,white,cross
0.0,3.0,3.0,0.0,5.0,5.0,755.3961019993949,5.0,0.0,part_2,go,700.0,800.0,1.0,,,,,,,,,yellow,circle
0.0,2.0,2.0,0.0,5.0,5.0,628.875741000229,5.0,0.0,part_2,go,700.0,800.0,1.0,,,,,,,,,gray,I
0.0,4.0,4.0,0.0,5.0,5.0,536.4500160003445,5.0,0.0,part_2,go,700.0,800.0,1.0,,,,,,,,,magenta,triangle
0.0,1.0,1.0,0.0,5.0,5.0,772.0040329995754,5.0,0.0,part_2,go,700.0,800.0,1.0,,,,,,,,,green,square
0.0,8.0,4.0,1.0,6.0,6.0,1012.9556870006129,5.0,0.0,part_2,go,700.0,800.0,1.0,,,,,,,,,cyan,flipped triangle
0.0,5.0,1.0,1.0,5.0,0.0,0.0,5.0,0.0,part_2,stop,700.0,800.0,4.0,,,,,,,,,white,cross
0.0,2.0,2.0,0.0,6.0,6.0,660.0497910003469,5.0,0.0,part_2,go,750.0,800.0,1.0,,,,,,,,,gray,I
0.0,5.0,1.0,1.0,5.0,0.0,0.0,5.0,0.0,part_2,stop,750.0,800.0,4.0,,,,,,,,,white,cross
0.0,5.0,1.0,1.0,6.0,6.0,887.6181610003187,5.0,0.0,part_2,stop,800.0,800.0,3.0,,,,,,,,,white,cross
0.0,7.0,3.0,1.0,6.0,0.0,0.0,5.0,0.0,part_2,stop,800.0,750.0,4.0,,,,,,,,,blue,hexagon
0.0,1.0,1.0,0.0,6.0,6.0,989.6409209995908,5.0,0.0,part_2,go,800.0,800.0,1.0,,,,,,,,,green,square
0.0,5.0,1.0,1.0,5.0,5.0,567.1893089993318,5.0,0.0,part_2,go,800.0,800.0,1.0,,,,,,,,,white,cross
0.0,5.0,1.0,1.0,5.0,5.0,1015.4508929999793,5.0,0.0,part_2,go,800.0,800.0,1.0,,,,,,,,,white,cross
0.0,3.0,3.0,0.0,6.0,6.0,673.3467829999427,5.0,0.0,part_2,go,800.0,800.0,1.0,,,,,,,,,yellow,circle
0.0,1.0,1.0,0.0,5.0,5.0,984.3815410004026,5.0,0.0,part_2,go,800.0,800.0,1.0,,,,,,,,,green,square
0.0,3.0,3.0,0.0,6.0,6.0,783.8312959993345,6.0,0.0,part_2,go,800.0,800.0,1.0,,,,,,,,,yellow,circle
0.0,7.0,3.0,1.0,5.0,5.0,731.2116610000885,6.0,0.0,part_2,stop,800.0,800.0,3.0,,,,,,,,,blue,hexagon
0.0,5.0,1.0,1.0,6.0,6.0,677.3981070000445,6.0,0.0,part_2,stop,750.0,800.0,3.0,,,,,,,,,white,cross
0.0,3.0,3.0,0.0,6.0,6.0,496.2675960005072,6.0,0.0,part_2,go,750.0,750.0,1.0,,,,,,,,,yellow,circle
0.0,6.0,2.0,1.0,6.0,6.0,783.8986289998502,6.0,0.0,part_2,stop,750.0,750.0,3.0,,,,,,,,,orange,diamond
0.0,1.0,1.0,0.0,6.0,6.0,771.3508690003437,6.0,0.0,part_2,go,750.0,700.0,1.0,,,,,,,,,green,square
0.0,8.0,4.0,1.0,5.0,5.0,715.0979090001783,6.0,0.0,part_2,stop,750.0,700.0,3.0,,,,,,,,,cyan,flipped triangle
0.0,8.0,4.0,1.0,6.0,6.0,1041.6510790000757,6.0,0.0,part_2,go,700.0,700.0,1.0,,,,,,,,,cyan,flipped triangle
0.0,7.0,3.0,1.0,5.0,5.0,505.1653569998962,6.0,0.0,part_2,stop,700.0,700.0,3.0,,,,,,,,,blue,hexagon
0.0,4.0,4.0,0.0,6.0,6.0,640.1644360003047,6.0,0.0,part_2,go,650.0,700.0,1.0,,,,,,,,,magenta,triangle
0.0,6.0,2.0,1.0,6.0,6.0,611.8810000007215,6.0,0.0,part_2,stop,650.0,700.0,3.0,,,,,,,,,orange,diamond
0.0,4.0,4.0,0.0,5.0,5.0,669.677693000267,6.0,0.0,part_2,go,650.0,650.0,1.0,,,,,,,,,magenta,triangle
0.0,2.0,2.0,0.0,5.0,5.0,760.1870990001771,6.0,0.0,part_2,go,650.0,650.0,1.0,,,,,,,,,gray,I
0.0,4.0,4.0,0.0,5.0,5.0,607.8148369997507,6.0,0.0,part_2,go,650.0,650.0,1.0,,,,,,,,,magenta,triangle
0.0,2.0,2.0,0.0,6.0,6.0,423.10343600001937,6.0,0.0,part_2,go,650.0,650.0,1.0,,,,,,,,,gray,I
0.0,7.0,3.0,1.0,6.0,6.0,640.1883339995038,6.0,0.0,part_2,stop,650.0,650.0,3.0,,,,,,,,,blue,hexagon
0.0,5.0,1.0,1.0,6.0,6.0,653.3387499994205,6.0,0.0,part_2,stop,650.0,600.0,3.0,,,,,,,,,white,cross
0.0,6.0,2.0,1.0,5.0,5.0,738.9260099998864,6.0,0.0,part_2,stop,650.0,550.0,3.0,,,,,,,,,orange,diamond
0.0,3.0,3.0,0.0,6.0,6.0,576.5500320003412,6.0,0.0,part_2,go,600.0,550.0,1.0,,,,,,,,,yellow,circle
0.0,4.0,4.0,0.0,6.0,6.0,938.217593000445,6.0,0.0,part_2,go,600.0,550.0,1.0,,,,,,,,,magenta,triangle
0.0,8.0,4.0,1.0,6.0,0.0,0.0,6.0,0.0,part_2,stop,600.0,550.0,4.0,,,,,,,,,cyan,flipped triangle
0.0,4.0,4.0,0.0,6.0,6.0,874.4908149992625,6.0,0.0,part_2,go,600.0,600.0,1.0,,,,,,,,,magenta,triangle
0.0,3.0,3.0,0.0,5.0,5.0,373.4108590006144,6.0,0.0,part_2,go,600.0,600.0,1.0,,,,,,,,,yellow,circle
0.0,4.0,4.0,0.0,5.0,5.0,492.5653790005526,6.0,0.0,part_2,go,600.0,600.0,1.0,,,,,,,,,magenta,triangle
0.0,1.0,1.0,0.0,5.0,5.0,466.2701050001487,6.0,0.0,part_2,go,600.0,600.0,1.0,,,,,,,,,green,square
0.0,2.0,2.0,0.0,5.0,5.0,579.5421140001054,6.0,0.0,part_2,go,600.0,600.0,1.0,,,,,,,,,gray,I
0.0,7.0,3.0,1.0,6.0,0.0,0.0,6.0,0.0,part_2,stop,600.0,600.0,4.0,,,,,,,,,blue,hexagon
0.0,5.0,1.0,1.0,6.0,0.0,0.0,6.0,0.0,part_2,stop,600.0,650.0,4.0,,,,,,,,,white,cross
0.0,3.0,3.0,0.0,6.0,6.0,612.4910789994829,6.0,0.0,part_2,go,600.0,700.0,1.0,,,,,,,,,yellow,circle
0.0,6.0,2.0,1.0,6.0,6.0,749.1171780002333,6.0,0.0,part_2,stop,600.0,700.0,3.0,,,,,,,,,orange,diamond
0.0,8.0,4.0,1.0,5.0,5.0,689.1151259997059,6.0,0.0,part_2,stop,600.0,650.0,3.0,,,,,,,,,cyan,flipped triangle
0.0,4.0,4.0,0.0,5.0,5.0,532.9800370000157,6.0,0.0,part_2,go,550.0,650.0,1.0,,,,,,,,,magenta,triangle
0.0,4.0,4.0,0.0,6.0,6.0,661.6670140001588,6.0,0.0,part_2,go,550.0,650.0,1.0,,,,,,,,,magenta,triangle
0.0,1.0,1.0,0.0,6.0,6.0,779.011169000114,6.0,0.0,part_2,go,550.0,650.0,1.0,,,,,,,,,green,square
0.0,1.0,1.0,0.0,6.0,6.0,352.9885250000006,6.0,0.0,part_2,go,550.0,650.0,1.0,,,,,,,,,green,square
0.0,3.0,3.0,0.0,5.0,5.0,384.3285570001171,6.0,0.0,part_2,go,550.0,650.0,1.0,,,,,,,,,yellow,circle
0.0,3.0,3.0,0.0,5.0,5.0,476.8011830001342,7.0,0.0,part_2,go,550.0,650.0,1.0,,,,,,,,,yellow,circle
0.0,7.0,3.0,1.0,5.0,0.0,0.0,7.0,0.0,part_2,stop,550.0,650.0,4.0,,,,,,,,,blue,hexagon
0.0,7.0,3.0,1.0,5.0,0.0,0.0,7.0,0.0,part_2,stop,600.0,650.0,4.0,,,,,,,,,blue,hexagon
0.0,5.0,1.0,1.0,5.0,5.0,802.078786000493,7.0,0.0,part_2,go,650.0,650.0,1.0,,,,,,,,,white,cross
0.0,7.0,3.0,1.0,5.0,0.0,0.0,7.0,0.0,part_2,stop,650.0,650.0,4.0,,,,,,,,,blue,hexagon
0.0,2.0,2.0,0.0,5.0,5.0,469.4865530000243,7.0,0.0,part_2,go,700.0,650.0,1.0,,,,,,,,,gray,I
0.0,5.0,1.0,1.0,5.0,5.0,400.92536000065587,7.0,0.0,part_2,stop,700.0,650.0,3.0,,,,,,,,,white,cross
0.0,8.0,4.0,1.0,5.0,5.0,336.7228809993321,7.0,0.0,part_2,stop,650.0,650.0,3.0,,,,,,,,,cyan,flipped triangle
0.0,6.0,2.0,1.0,5.0,0.0,0.0,7.0,0.0,part_2,stop,600.0,650.0,4.0,,,,,,,,,orange,diamond
0.0,1.0,1.0,0.0,5.0,5.0,1021.0541409996949,7.0,0.0,part_2,go,650.0,650.0,1.0,,,,,,,,,green,square
0.0,4.0,4.0,0.0,5.0,5.0,566.7678669997258,7.0,0.0,part_2,go,650.0,650.0,1.0,,,,,,,,,magenta,triangle
0.0,1.0,1.0,0.0,6.0,6.0,428.8748980006858,7.0,0.0,part_2,go,650.0,650.0,1.0,,,,,,,,,green,square
0.0,2.0,2.0,0.0,6.0,6.0,415.2961049994701,7.0,0.0,part_2,go,650.0,650.0,1.0,,,,,,,,,gray,I
0.0,6.0,2.0,1.0,5.0,5.0,439.3418010004097,7.0,0.0,part_2,stop,650.0,650.0,3.0,,,,,,,,,orange,diamond
0.0,7.0,3.0,1.0,6.0,6.0,405.8364520005852,7.0,0.0,part_2,stop,600.0,650.0,3.0,,,,,,,,,blue,hexagon
0.0,6.0,2.0,1.0,5.0,0.0,0.0,7.0,0.0,part_2,stop,600.0,600.0,4.0,,,,,,,,,orange,diamond
0.0,1.0,1.0,0.0,6.0,6.0,819.1966519998459,7.0,0.0,part_2,go,650.0,600.0,1.0,,,,,,,,,green,square
0.0,1.0,1.0,0.0,6.0,6.0,522.8638489998048,7.0,0.0,part_2,go,650.0,600.0,1.0,,,,,,,,,green,square
0.0,3.0,3.0,0.0,5.0,5.0,366.7191039994577,7.0,0.0,part_2,go,650.0,600.0,1.0,,,,,,,,,yellow,circle
0.0,2.0,2.0,0.0,5.0,5.0,475.3123439995761,7.0,0.0,part_2,go,650.0,600.0,1.0,,,,,,,,,gray,I
0.0,2.0,2.0,0.0,5.0,5.0,402.315592999912,7.0,0.0,part_2,go,650.0,600.0,1.0,,,,,,,,,gray,I
0.0,3.0,3.0,0.0,5.0,5.0,453.2731879999119,7.0,0.0,part_2,go,650.0,600.0,1.0,,,,,,,,,yellow,circle
0.0,5.0,1.0,1.0,5.0,5.0,712.591856000472,7.0,0.0,part_2,go,650.0,600.0,1.0,,,,,,,,,white,cross
0.0,5.0,1.0,1.0,6.0,6.0,431.1427789998561,7.0,0.0,part_2,stop,650.0,600.0,3.0,,,,,,,,,white,cross
0.0,3.0,3.0,0.0,5.0,5.0,546.68755900002,7.0,0.0,part_2,go,650.0,550.0,1.0,,,,,,,,,yellow,circle
0.0,8.0,4.0,1.0,6.0,0.0,0.0,7.0,0.0,part_2,stop,650.0,550.0,4.0,,,,,,,,,cyan,flipped triangle
0.0,1.0,1.0,0.0,5.0,5.0,506.65189000028477,7.0,0.0,part_2,go,650.0,600.0,1.0,,,,,,,,,green,square
0.0,8.0,4.0,1.0,5.0,0.0,0.0,7.0,0.0,part_2,stop,650.0,600.0,4.0,,,,,,,,,cyan,flipped triangle
0.0,2.0,2.0,0.0,6.0,6.0,439.227091000248,7.0,0.0,part_2,go,700.0,600.0,1.0,,,,,,,,,gray,I
0.0,7.0,3.0,1.0,5.0,5.0,241.0206699996706,7.0,0.0,part_2,stop,700.0,600.0,3.0,,,,,,,,,blue,hexagon
0.0,6.0,2.0,1.0,5.0,0.0,0.0,7.0,0.0,part_2,stop,650.0,600.0,4.0,,,,,,,,,orange,diamond
0.0,4.0,4.0,0.0,5.0,5.0,914.790138999706,7.0,0.0,part_2,go,700.0,600.0,1.0,,,,,,,,,magenta,triangle
0.0,7.0,3.0,1.0,5.0,0.0,0.0,7.0,0.0,part_2,stop,700.0,600.0,4.0,,,,,,,,,blue,hexagon
0.0,5.0,1.0,1.0,5.0,5.0,917.2767820000444,7.0,0.0,part_2,go,750.0,600.0,1.0,,,,,,,,,white,cross
0.0,4.0,4.0,0.0,6.0,6.0,706.0604490006881,7.0,0.0,part_2,go,750.0,600.0,1.0,,,,,,,,,magenta,triangle
0.0,3.0,3.0,0.0,6.0,6.0,536.7600250001487,7.0,0.0,part_2,go,750.0,600.0,1.0,,,,,,,,,yellow,circle
0.0,6.0,2.0,1.0,6.0,6.0,654.2915650006762,8.0,0.0,part_2,stop,750.0,600.0,3.0,,,,,,,,,orange,diamond
0.0,1.0,1.0,0.0,5.0,5.0,396.153036999749,8.0,0.0,part_2,go,750.0,550.0,1.0,,,,,,,,,green,square
0.0,1.0,1.0,0.0,5.0,5.0,401.2152830000559,8.0,0.0,part_2,go,750.0,550.0,1.0,,,,,,,,,green,square
0.0,5.0,1.0,1.0,6.0,6.0,400.0874310004292,8.0,0.0,part_2,stop,750.0,550.0,3.0,,,,,,,,,white,cross
0.0,3.0,3.0,0.0,6.0,6.0,411.3062550004542,8.0,0.0,part_2,go,750.0,500.0,1.0,,,,,,,,,yellow,circle
0.0,3.0,3.0,0.0,6.0,6.0,331.2926799999331,8.0,0.0,part_2,go,750.0,500.0,1.0,,,,,,,,,yellow,circle
0.0,5.0,1.0,1.0,6.0,6.0,516.1110970002483,8.0,0.0,part_2,go,750.0,500.0,1.0,,,,,,,,,white,cross
0.0,6.0,2.0,1.0,6.0,6.0,401.5645740000764,8.0,0.0,part_2,go,750.0,500.0,1.0,,,,,,,,,orange,diamond
0.0,4.0,4.0,0.0,6.0,6.0,388.0528380004762,8.0,0.0,part_2,go,750.0,500.0,1.0,,,,,,,,,magenta,triangle
0.0,7.0,3.0,1.0,6.0,0.0,0.0,8.0,0.0,part_2,stop,750.0,500.0,4.0,,,,,,,,,blue,hexagon
0.0,6.0,2.0,1.0,6.0,0.0,0.0,8.0,0.0,part_2,stop,750.0,550.0,4.0,,,,,,,,,orange,diamond
0.0,5.0,1.0,1.0,6.0,6.0,463.4592840002369,8.0,0.0,part_2,stop,750.0,600.0,3.0,,,,,,,,,white,cross
0.0,3.0,3.0,0.0,6.0,6.0,526.5609659991242,8.0,0.0,part_2,go,750.0,550.0,1.0,,,,,,,,,yellow,circle
0.0,2.0,2.0,0.0,6.0,6.0,493.8786029997573,8.0,0.0,part_2,go,750.0,550.0,1.0,,,,,,,,,gray,I
0.0,3.0,3.0,0.0,5.0,5.0,500.7593469999847,8.0,0.0,part_2,go,750.0,550.0,1.0,,,,,,,,,yellow,circle
0.0,4.0,4.0,0.0,5.0,5.0,656.1789790002877,8.0,0.0,part_2,go,750.0,550.0,1.0,,,,,,,,,magenta,triangle
0.0,2.0,2.0,0.0,6.0,6.0,398.1345740003235,8.0,0.0,part_2,go,750.0,550.0,1.0,,,,,,,,,gray,I
0.0,4.0,4.0,0.0,5.0,5.0,348.8874539998505,8.0,0.0,part_2,go,750.0,550.0,1.0,,,,,,,,,magenta,triangle
0.0,4.0,4.0,0.0,6.0,6.0,424.2407450001337,8.0,0.0,part_2,go,750.0,550.0,1.0,,,,,,,,,magenta,triangle
0.0,2.0,2.0,0.0,5.0,5.0,456.9446840005184,8.0,0.0,part_2,go,750.0,550.0,1.0,,,,,,,,,gray,I
0.0,8.0,4.0,1.0,5.0,5.0,298.6707039999601,8.0,0.0,part_2,stop,750.0,550.0,3.0,,,,,,,,,cyan,flipped triangle
0.0,2.0,2.0,0.0,6.0,6.0,445.1026490005461,8.0,0.0,part_2,go,700.0,550.0,1.0,,,,,,,,,gray,I
0.0,8.0,4.0,1.0,6.0,6.0,1152.1459509995111,8.0,0.0,part_2,go,700.0,550.0,1.0,,,,,,,,,cyan,flipped triangle
0.0,3.0,3.0,0.0,5.0,5.0,354.5194929993158,8.0,0.0,part_2,go,700.0,550.0,1.0,,,,,,,,,yellow,circle
0.0,6.0,2.0,1.0,6.0,6.0,275.7422980002957,8.0,0.0,part_2,stop,700.0,550.0,3.0,,,,,,,,,orange,diamond
0.0,5.0,1.0,1.0,5.0,5.0,732.2296980000829,8.0,0.0,part_2,stop,700.0,500.0,3.0,,,,,,,,,white,cross
0.0,1.0,1.0,0.0,5.0,5.0,407.1718369996233,8.0,0.0,part_2,go,650.0,500.0,1.0,,,,,,,,,green,square
0.0,7.0,3.0,1.0,6.0,6.0,395.3943249998701,8.0,0.0,part_2,go,650.0,500.0,1.0,,,,,,,,,blue,hexagon
0.0,2.0,2.0,0.0,6.0,6.0,428.1256869999197,8.0,0.0,part_2,go,650.0,500.0,1.0,,,,,,,,,gray,I
0.0,2.0,2.0,0.0,5.0,5.0,420.0981949998095,8.0,0.0,part_2,go,650.0,500.0,1.0,,,,,,,,,gray,I
0.0,6.0,2.0,1.0,6.0,6.0,391.4331650003078,8.0,0.0,part_2,go,650.0,500.0,1.0,,,,,,,,,orange,diamond
0.0,6.0,2.0,1.0,5.0,5.0,437.9142669995417,8.0,0.0,part_2,stop,650.0,500.0,3.0,,,,,,,,,orange,diamond
0.0,2.0,2.0,0.0,5.0,5.0,391.6246819999287,8.0,0.0,part_2,go,600.0,500.0,1.0,,,,,,,,,gray,I
0.0,8.0,4.0,1.0,5.0,5.0,750.549795000552,8.0,0.0,part_2,stop,600.0,500.0,3.0,,,,,,,,,cyan,flipped triangle
0.0,3.0,3.0,0.0,5.0,5.0,551.3245759993879,8.0,0.0,part_2,go,550.0,500.0,1.0,,,,,,,,,yellow,circle
0.0,6.0,2.0,1.0,5.0,0.0,0.0,8.0,0.0,part_2,stop,550.0,500.0,4.0,,,,,,,,,orange,diamond
0.0,2.0,2.0,0.0,7.0,3.0,911.484610000116,1.0,2.0,part_3,go,0.0,0.0,0.0,34.0,1.0,170.0,68.0,34.0,102.0,204.0,136.0,gray,I
0.0,6.0,2.0,1.0,7.0,6.0,4119.143030000487,1.0,1.0,part_3,go,0.0,0.0,0.0,117.0,3.0,39.0,156.0,234.0,195.0,78.0,117.0,orange,diamond
0.0,4.0,4.0,0.0,7.0,1.0,2435.112445999948,1.0,1.0,part_3,go,0.0,0.0,0.0,264.0,6.0,264.0,176.0,44.0,220.0,88.0,132.0,magenta,triangle
0.0,2.0,2.0,0.0,7.0,3.0,1708.6798520003867,1.0,1.0,part_3,go,0.0,0.0,0.0,44.0,1.0,220.0,132.0,44.0,88.0,176.0,264.0,gray,I
0.0,7.0,3.0,1.0,7.0,3.0,1551.921573999607,1.0,1.0,part_3,go,0.0,0.0,0.0,220.0,5.0,88.0,176.0,220.0,264.0,44.0,132.0,blue,hexagon
0.0,1.0,1.0,0.0,7.0,4.0,2108.9905360004195,1.0,1.0,part_3,go,0.0,0.0,0.0,98.0,2.0,196.0,147.0,245.0,98.0,49.0,294.0,green,square
0.0,2.0,2.0,0.0,7.0,1.0,1323.430238000583,1.0,1.0,part_3,go,0.0,0.0,0.0,39.0,1.0,39.0,195.0,234.0,117.0,78.0,156.0,gray,I
0.0,4.0,4.0,0.0,7.0,3.0,1167.6356250000026,1.0,1.0,part_3,go,0.0,0.0,0.0,270.0,5.0,54.0,108.0,270.0,216.0,162.0,324.0,magenta,triangle
0.0,5.0,1.0,1.0,7.0,1.0,1934.2442720007969,1.0,1.0,part_3,go,0.0,0.0,0.0,220.0,5.0,220.0,44.0,264.0,88.0,176.0,132.0,white,cross
0.0,1.0,1.0,0.0,7.0,3.0,1317.73772500037,1.0,1.0,part_3,go,0.0,0.0,0.0,68.0,2.0,102.0,204.0,68.0,136.0,170.0,34.0,green,square
0.0,6.0,2.0,1.0,7.0,4.0,1963.516788000561,1.0,1.0,part_3,go,0.0,0.0,0.0,324.0,6.0,270.0,108.0,54.0,324.0,162.0,216.0,orange,diamond
0.0,7.0,3.0,1.0,7.0,3.0,1489.198309999665,1.0,1.0,part_3,go,0.0,0.0,0.0,162.0,3.0,108.0,54.0,162.0,270.0,324.0,216.0,blue,hexagon
0.0,8.0,4.0,1.0,7.0,6.0,1630.837249999786,1.0,1.0,part_3,go,0.0,0.0,0.0,324.0,6.0,216.0,108.0,162.0,270.0,54.0,324.0,cyan,flipped triangle
0.0,2.0,2.0,0.0,7.0,3.0,1506.4165139992838,1.0,1.0,part_3,go,0.0,0.0,0.0,270.0,5.0,108.0,216.0,270.0,162.0,54.0,324.0,gray,I
0.0,1.0,1.0,0.0,7.0,2.0,1734.373186999619,1.0,1.0,part_3,go,0.0,0.0,0.0,220.0,5.0,176.0,220.0,132.0,44.0,88.0,264.0,green,square
0.0,8.0,4.0,1.0,7.0,1.0,1820.586426999398,1.0,1.0,part_3,go,0.0,0.0,0.0,78.0,2.0,78.0,195.0,156.0,39.0,234.0,117.0,cyan,flipped triangle
0.0,4.0,4.0,0.0,7.0,3.0,1135.4493260005256,1.0,1.0,part_3,go,0.0,0.0,0.0,108.0,2.0,324.0,216.0,108.0,54.0,270.0,162.0,magenta,triangle
0.0,5.0,1.0,1.0,7.0,1.0,1489.0101159999176,1.0,1.0,part_3,go,0.0,0.0,0.0,34.0,1.0,34.0,136.0,102.0,170.0,204.0,68.0,white,cross
0.0,4.0,4.0,0.0,7.0,4.0,1466.2605350004014,1.0,1.0,part_3,go,0.0,0.0,0.0,98.0,2.0,294.0,245.0,49.0,98.0,147.0,196.0,magenta,triangle
0.0,4.0,4.0,0.0,7.0,3.0,1008.3327950005696,1.0,1.0,part_3,go,0.0,0.0,0.0,156.0,4.0,117.0,195.0,156.0,78.0,39.0,234.0,magenta,triangle
0.0,2.0,2.0,0.0,7.0,5.0,1736.5442280006391,2.0,1.0,part_3,go,0.0,0.0,0.0,147.0,3.0,294.0,49.0,245.0,98.0,147.0,196.0,gray,I
0.0,3.0,3.0,0.0,7.0,3.0,1781.0830979997263,2.0,1.0,part_3,go,0.0,0.0,0.0,39.0,1.0,156.0,117.0,39.0,195.0,234.0,78.0,yellow,circle
0.0,4.0,4.0,0.0,7.0,4.0,1781.3186809999024,2.0,1.0,part_3,go,0.0,0.0,0.0,136.0,4.0,102.0,170.0,68.0,136.0,204.0,34.0,magenta,triangle
0.0,7.0,3.0,1.0,7.0,3.0,1350.3214299998945,2.0,1.0,part_3,go,0.0,0.0,0.0,204.0,6.0,102.0,136.0,204.0,34.0,68.0,170.0,blue,hexagon
0.0,8.0,4.0,1.0,7.0,4.0,93.8796649998039,2.0,1.0,part_3,go,0.0,0.0,0.0,147.0,3.0,98.0,294.0,196.0,147.0,49.0,245.0,cyan,flipped triangle
0.0,5.0,1.0,1.0,7.0,2.0,1404.473034000148,2.0,1.0,part_3,go,0.0,0.0,0.0,54.0,1.0,108.0,54.0,216.0,324.0,270.0,162.0,white,cross
0.0,7.0,3.0,1.0,7.0,4.0,1089.2890349996378,2.0,1.0,part_3,go,0.0,0.0,0.0,234.0,6.0,39.0,117.0,78.0,234.0,156.0,195.0,blue,hexagon
0.0,1.0,1.0,0.0,7.0,1.0,1373.9680960006808,2.0,1.0,part_3,go,0.0,0.0,0.0,44.0,1.0,44.0,132.0,88.0,220.0,264.0,176.0,green,square
0.0,2.0,2.0,0.0,7.0,4.0,1058.7011030002031,2.0,1.0,part_3,go,0.0,0.0,0.0,39.0,1.0,195.0,234.0,156.0,39.0,117.0,78.0,gray,I
0.0,5.0,1.0,1.0,7.0,3.0,1729.1767100005018,2.0,1.0,part_3,go,0.0,0.0,0.0,245.0,5.0,98.0,294.0,245.0,196.0,49.0,147.0,white,cross
0.0,5.0,1.0,1.0,7.0,2.0,1499.368697999671,2.0,1.0,part_3,go,0.0,0.0,0.0,196.0,4.0,98.0,196.0,147.0,294.0,49.0,245.0,white,cross
0.0,3.0,3.0,0.0,7.0,6.0,792.608358000507,2.0,1.0,part_3,go,0.0,0.0,0.0,88.0,2.0,44.0,220.0,176.0,264.0,132.0,88.0,yellow,circle
0.0,6.0,2.0,1.0,7.0,6.0,1563.501570999506,2.0,1.0,part_3,go,0.0,0.0,0.0,234.0,6.0,195.0,78.0,117.0,39.0,156.0,234.0,orange,diamond
0.0,5.0,1.0,1.0,7.0,3.0,1070.6999519998135,2.0,1.0,part_3,go,0.0,0.0,0.0,108.0,2.0,54.0,216.0,108.0,162.0,270.0,324.0,white,cross
0.0,8.0,4.0,1.0,7.0,2.0,1728.443074000097,2.0,1.0,part_3,go,0.0,0.0,0.0,204.0,6.0,136.0,204.0,34.0,170.0,68.0,102.0,cyan,flipped triangle
0.0,1.0,1.0,0.0,7.0,1.0,1306.5467490005176,2.0,1.0,part_3,go,0.0,0.0,0.0,34.0,1.0,34.0,102.0,68.0,170.0,136.0,204.0,green,square
0.0,6.0,2.0,1.0,7.0,4.0,804.2070120000062,2.0,1.0,part_3,go,0.0,0.0,0.0,68.0,2.0,136.0,170.0,34.0,68.0,102.0,204.0,orange,diamond
0.0,5.0,1.0,1.0,7.0,4.0,1074.2172500004017,2.0,1.0,part_3,go,0.0,0.0,0.0,117.0,3.0,78.0,156.0,195.0,117.0,39.0,234.0,white,cross
0.0,3.0,3.0,0.0,7.0,4.0,968.6722149999696,2.0,1.0,part_3,go,0.0,0.0,0.0,162.0,3.0,216.0,108.0,324.0,162.0,270.0,54.0,yellow,circle
0.0,1.0,1.0,0.0,7.0,2.0,1865.6092789997272,2.0,1.0,part_3,go,0.0,0.0,0.0,78.0,2.0,117.0,78.0,39.0,195.0,234.0,156.0,green,square
0.0,3.0,3.0,0.0,7.0,6.0,1191.5769170000203,3.0,1.0,part_3,go,0.0,0.0,0.0,78.0,2.0,117.0,195.0,39.0,234.0,156.0,78.0,yellow,circle
0.0,4.0,4.0,0.0,7.0,4.0,1236.1973739998575,3.0,1.0,part_3,go,0.0,0.0,0.0,170.0,5.0,68.0,204.0,102.0,170.0,34.0,136.0,magenta,triangle
0.0,5.0,1.0,1.0,7.0,5.0,1575.768102999973,3.0,1.0,part_3,go,0.0,0.0,0.0,176.0,4.0,220.0,44.0,88.0,264.0,176.0,132.0,white,cross
0.0,2.0,2.0,0.0,7.0,2.0,1115.7136800002263,3.0,1.0,part_3,go,0.0,0.0,0.0,68.0,2.0,204.0,68.0,170.0,102.0,34.0,136.0,gray,I
0.0,7.0,3.0,1.0,7.0,2.0,1869.99229400044,3.0,1.0,part_3,go,0.0,0.0,0.0,324.0,6.0,162.0,324.0,270.0,216.0,108.0,54.0,blue,hexagon
0.0,3.0,3.0,0.0,7.0,2.0,138.5940589998426,3.0,1.0,part_3,go,0.0,0.0,0.0,136.0,4.0,68.0,136.0,204.0,170.0,102.0,34.0,yellow,circle
0.0,7.0,3.0,1.0,7.0,3.0,1156.0606379998717,3.0,1.0,part_3,go,0.0,0.0,0.0,204.0,6.0,170.0,102.0,204.0,34.0,136.0,68.0,blue,hexagon
0.0,4.0,4.0,0.0,7.0,1.0,1169.2099299998515,3.0,1.0,part_3,go,0.0,0.0,0.0,44.0,1.0,44.0,88.0,220.0,132.0,176.0,264.0,magenta,triangle
0.0,5.0,1.0,1.0,7.0,3.0,1072.0775039999353,3.0,1.0,part_3,go,0.0,0.0,0.0,78.0,2.0,234.0,195.0,78.0,156.0,117.0,39.0,white,cross
0.0,8.0,4.0,1.0,7.0,1.0,1589.306650999788,3.0,1.0,part_3,go,0.0,0.0,0.0,234.0,6.0,234.0,156.0,39.0,78.0,195.0,117.0,cyan,flipped triangle
0.0,2.0,2.0,0.0,7.0,5.0,1136.5716800000882,3.0,1.0,part_3,go,0.0,0.0,0.0,49.0,1.0,245.0,98.0,294.0,196.0,49.0,147.0,gray,I
0.0,7.0,3.0,1.0,7.0,3.0,1156.7214759998024,3.0,1.0,part_3,go,0.0,0.0,0.0,264.0,6.0,176.0,88.0,264.0,132.0,44.0,220.0,blue,hexagon
0.0,7.0,3.0,1.0,7.0,3.0,673.4671150006761,3.0,1.0,part_3,go,0.0,0.0,0.0,294.0,6.0,49.0,196.0,294.0,245.0,98.0,147.0,blue,hexagon
0.0,8.0,4.0,1.0,7.0,6.0,1690.115877999233,3.0,1.0,part_3,go,0.0,0.0,0.0,264.0,6.0,132.0,88.0,220.0,44.0,176.0,264.0,cyan,flipped triangle
0.0,3.0,3.0,0.0,7.0,3.0,1625.2944979996755,3.0,1.0,part_3,go,0.0,0.0,0.0,324.0,6.0,108.0,162.0,324.0,54.0,216.0,270.0,yellow,circle
0.0,2.0,2.0,0.0,7.0,1.0,1228.769985999861,3.0,1.0,part_3,go,0.0,0.0,0.0,44.0,1.0,44.0,176.0,88.0,264.0,220.0,132.0,gray,I
0.0,6.0,2.0,1.0,7.0,4.0,1215.6520859998636,3.0,1.0,part_3,go,0.0,0.0,0.0,136.0,4.0,204.0,102.0,170.0,136.0,68.0,34.0,orange,diamond
0.0,6.0,2.0,1.0,7.0,3.0,1086.709330999838,3.0,1.0,part_3,go,0.0,0.0,0.0,324.0,6.0,162.0,216.0,324.0,108.0,270.0,54.0,orange,diamond
0.0,7.0,3.0,1.0,7.0,1.0,1588.2593119995363,3.0,1.0,part_3,go,0.0,0.0,0.0,245.0,5.0,245.0,98.0,49.0,147.0,294.0,196.0,blue,hexagon
0.0,8.0,4.0,1.0,7.0,1.0,1202.800066999771,3.0,1.0,part_3,go,0.0,0.0,0.0,264.0,6.0,264.0,88.0,44.0,132.0,176.0,220.0,cyan,flipped triangle
0.0,6.0,2.0,1.0,7.0,3.0,965.8450959996115,4.0,1.0,part_3,go,0.0,0.0,0.0,245.0,5.0,147.0,98.0,245.0,49.0,196.0,294.0,orange,diamond
0.0,8.0,4.0,1.0,7.0,2.0,1465.9215330002553,4.0,1.0,part_3,go,0.0,0.0,0.0,270.0,5.0,108.0,270.0,324.0,162.0,216.0,54.0,cyan,flipped triangle
0.0,5.0,1.0,1.0,7.0,4.0,1492.802261000179,4.0,1.0,part_3,go,0.0,0.0,0.0,102.0,3.0,68.0,136.0,204.0,102.0,170.0,34.0,white,cross
0.0,8.0,4.0,1.0,7.0,4.0,1584.9363060006,4.0,1.0,part_3,go,0.0,0.0,0.0,136.0,4.0,170.0,34.0,102.0,136.0,68.0,204.0,cyan,flipped triangle
0.0,3.0,3.0,0.0,7.0,5.0,1411.1181159996704,4.0,1.0,part_3,go,0.0,0.0,0.0,44.0,1.0,88.0,220.0,176.0,264.0,44.0,132.0,yellow,circle
0.0,3.0,3.0,0.0,7.0,4.0,1156.2306219993843,4.0,1.0,part_3,go,0.0,0.0,0.0,49.0,1.0,245.0,196.0,98.0,49.0,147.0,294.0,yellow,circle
0.0,1.0,1.0,0.0,7.0,1.0,1013.2339789997786,4.0,1.0,part_3,go,0.0,0.0,0.0,216.0,4.0,216.0,324.0,270.0,54.0,162.0,108.0,green,square
0.0,1.0,1.0,0.0,7.0,3.0,1095.47990900046,4.0,1.0,part_3,go,0.0,0.0,0.0,49.0,1.0,147.0,294.0,49.0,196.0,245.0,98.0,green,square
0.0,1.0,1.0,0.0,7.0,3.0,1049.649975999273,4.0,1.0,part_3,go,0.0,0.0,0.0,216.0,4.0,324.0,108.0,216.0,162.0,54.0,270.0,green,square
0.0,4.0,4.0,0.0,7.0,4.0,1171.1432539996167,4.0,1.0,part_3,go,0.0,0.0,0.0,195.0,5.0,39.0,117.0,234.0,195.0,78.0,156.0,magenta,triangle
0.0,6.0,2.0,1.0,7.0,5.0,1014.2102010004237,4.0,1.0,part_3,go,0.0,0.0,0.0,132.0,3.0,88.0,264.0,220.0,176.0,132.0,44.0,orange,diamond
0.0,8.0,4.0,1.0,7.0,1.0,1260.339452000153,4.0,1.0,part_3,go,0.0,0.0,0.0,294.0,6.0,294.0,98.0,147.0,245.0,196.0,49.0,cyan,flipped triangle
0.0,4.0,4.0,0.0,7.0,2.0,1168.1421610001053,4.0,1.0,part_3,go,0.0,0.0,0.0,98.0,2.0,245.0,98.0,294.0,147.0,49.0,196.0,magenta,triangle
0.0,2.0,2.0,0.0,7.0,1.0,899.2293279998194,4.0,1.0,part_3,go,0.0,0.0,0.0,54.0,1.0,54.0,324.0,216.0,108.0,162.0,270.0,gray,I
0.0,3.0,3.0,0.0,7.0,1.0,900.9882660002404,4.0,1.0,part_3,go,0.0,0.0,0.0,98.0,2.0,98.0,49.0,245.0,147.0,196.0,294.0,yellow,circle
0.0,6.0,2.0,1.0,7.0,4.0,454.7857489997113,4.0,1.0,part_3,go,0.0,0.0,0.0,147.0,3.0,98.0,245.0,49.0,147.0,294.0,196.0,orange,diamond
0.0,6.0,2.0,1.0,7.0,3.0,1003.9804389998608,4.0,1.0,part_3,go,0.0,0.0,0.0,44.0,1.0,88.0,264.0,44.0,132.0,176.0,220.0,orange,diamond
0.0,7.0,3.0,1.0,7.0,2.0,1232.1216459995412,4.0,1.0,part_3,go,0.0,0.0,0.0,78.0,2.0,117.0,78.0,234.0,195.0,156.0,39.0,blue,hexagon
0.0,1.0,1.0,0.0,7.0,1.0,1643.582236999464,4.0,1.0,part_3,go,0.0,0.0,0.0,234.0,6.0,234.0,117.0,195.0,39.0,156.0,78.0,green,square
0.0,3.0,3.0,0.0,7.0,3.0,936.304652999752,4.0,1.0,part_3,go,0.0,0.0,0.0,102.0,3.0,136.0,204.0,102.0,170.0,68.0,34.0,yellow,circle
