raw_reward_magnitude,stim_reward,stepwise_reward_magnitude,paired_with_stopping,stim_location,response,reaction_time,block,num_trial_presentations,which_phase,stop_signal_trial_type,left_SSD,right_SSD,accuracy,chosen_bidding_amount,chosen_bidding_level,possible_bid_1,possible_bid_2,possible_bid_3,possible_bid_4,possible_bid_5,possible_bid_6,color_text,shape_text
73.0,5.0,1.0,1.0,1.0,1.0,346.4276229997267,1.0,1.0,phase_1,,,,,,,,,,,,,blue,circle
0.0,4.0,0.0,0.0,3.0,3.0,357.8923080003733,1.0,2.0,phase_1,,,,,,,,,,,,,magenta,square
39.0,1.0,1.0,0.0,3.0,3.0,326.7378030004693,1.0,1.0,phase_1,,,,,,,,,,,,,cyan,cross
394.0,4.0,4.0,0.0,1.0,1.0,355.4178809999939,1.0,1.0,phase_1,,,,,,,,,,,,,magenta,square
380.0,8.0,4.0,1.0,3.0,3.0,379.5755130004181,1.0,1.0,phase_1,,,,,,,,,,,,,green,I
176.0,7.0,3.0,1.0,4.0,4.0,263.4522210000796,1.0,1.0,phase_1,,,,,,,,,,,,,white,triangle
52.0,5.0,1.0,1.0,4.0,4.0,387.6980619997994,1.0,1.0,phase_1,,,,,,,,,,,,,blue,circle
113.0,2.0,2.0,0.0,3.0,3.0,277.5776170001336,1.0,1.0,phase_1,,,,,,,,,,,,,orange,diamond
0.0,4.0,0.0,0.0,2.0,2.0,346.1518770000111,1.0,1.0,phase_1,,,,,,,,,,,,,magenta,square
0.0,6.0,0.0,1.0,2.0,2.0,459.701839000445,1.0,1.0,phase_1,,,,,,,,,,,,,gray,flipped triangle
0.0,8.0,0.0,1.0,3.0,3.0,347.0135879997542,1.0,1.0,phase_1,,,,,,,,,,,,,green,I
71.0,5.0,1.0,1.0,2.0,2.0,337.1512250005253,1.0,1.0,phase_1,,,,,,,,,,,,,blue,circle
214.0,7.0,3.0,1.0,3.0,3.0,406.4828599994143,1.0,1.0,phase_1,,,,,,,,,,,,,white,triangle
0.0,6.0,0.0,1.0,1.0,1.0,347.2982310004227,1.0,1.0,phase_1,,,,,,,,,,,,,gray,flipped triangle
224.0,3.0,3.0,0.0,2.0,2.0,338.9502659993013,1.0,1.0,phase_1,,,,,,,,,,,,,yellow,hexagon
211.0,7.0,3.0,1.0,4.0,4.0,266.7428449994986,1.0,1.0,phase_1,,,,,,,,,,,,,white,triangle
0.0,2.0,0.0,0.0,1.0,1.0,413.3399149995966,1.0,1.0,phase_1,,,,,,,,,,,,,orange,diamond
209.0,3.0,3.0,0.0,3.0,3.0,302.5176020000799,1.0,1.0,phase_1,,,,,,,,,,,,,yellow,hexagon
112.0,2.0,2.0,0.0,3.0,3.0,358.2280319997153,1.0,1.0,phase_1,,,,,,,,,,,,,orange,diamond
116.0,2.0,2.0,0.0,2.0,2.0,307.3006389995498,1.0,1.0,phase_1,,,,,,,,,,,,,orange,diamond
80.0,6.0,2.0,1.0,1.0,1.0,282.8512100004445,1.0,1.0,phase_1,,,,,,,,,,,,,gray,flipped triangle
197.0,3.0,3.0,0.0,4.0,4.0,269.3105759999525,1.0,1.0,phase_1,,,,,,,,,,,,,yellow,hexagon
124.0,6.0,2.0,1.0,2.0,2.0,407.7353630000289,1.0,1.0,phase_1,,,,,,,,,,,,,gray,flipped triangle
73.0,1.0,1.0,0.0,4.0,4.0,265.4619530003401,1.0,1.0,phase_1,,,,,,,,,,,,,cyan,cross
180.0,3.0,3.0,0.0,3.0,3.0,251.7946999996638,1.0,1.0,phase_1,,,,,,,,,,,,,yellow,hexagon
53.0,1.0,1.0,0.0,1.0,1.0,298.3666039999662,1.0,1.0,phase_1,,,,,,,,,,,,,cyan,cross
401.0,4.0,4.0,0.0,2.0,2.0,372.152821999407,1.0,1.0,phase_1,,,,,,,,,,,,,magenta,square
422.0,8.0,4.0,1.0,3.0,3.0,267.0758559997921,1.0,1.0,phase_1,,,,,,,,,,,,,green,I
224.0,3.0,3.0,0.0,2.0,2.0,376.9223990002501,1.0,1.0,phase_1,,,,,,,,,,,,,yellow,hexagon
224.0,7.0,3.0,1.0,4.0,4.0,273.3524209997995,1.0,1.0,phase_1,,,,,,,,,,,,,white,triangle
41.0,5.0,1.0,1.0,1.0,1.0,341.146920999563,1.0,1.0,phase_1,,,,,,,,,,,,,blue,circle
112.0,2.0,2.0,0.0,1.0,1.0,303.7563790003332,1.0,1.0,phase_1,,,,,,,,,,,,,orange,diamond
425.0,4.0,4.0,0.0,1.0,1.0,333.3438990002833,1.0,1.0,phase_1,,,,,,,,,,,,,magenta,square
91.0,2.0,2.0,0.0,3.0,3.0,339.776566999717,1.0,1.0,phase_1,,,,,,,,,,,,,orange,diamond
191.0,7.0,3.0,1.0,3.0,3.0,379.6555550006815,1.0,1.0,phase_1,,,,,,,,,,,,,white,triangle
40.0,1.0,1.0,0.0,3.0,3.0,316.4399659999617,1.0,1.0,phase_1,,,,,,,,,,,,,cyan,cross
197.0,7.0,3.0,1.0,3.0,3.0,436.3639069997589,1.0,1.0,phase_1,,,,,,,,,,,,,white,triangle
214.0,7.0,3.0,1.0,2.0,2.0,322.1385519991599,1.0,1.0,phase_1,,,,,,,,,,,,,white,triangle
124.0,6.0,2.0,1.0,1.0,1.0,343.6502320000727,1.0,1.0,phase_1,,,,,,,,,,,,,gray,flipped triangle
0.0,4.0,0.0,0.0,1.0,1.0,304.9359309998181,1.0,1.0,phase_1,,,,,,,,,,,,,magenta,square
71.0,1.0,1.0,0.0,2.0,2.0,383.4164119998604,1.0,1.0,phase_1,,,,,,,,,,,,,cyan,cross
58.0,5.0,1.0,1.0,3.0,3.0,298.4217349994651,1.0,1.0,phase_1,,,,,,,,,,,,,blue,circle
401.0,8.0,4.0,1.0,2.0,2.0,295.5010169998786,1.0,1.0,phase_1,,,,,,,,,,,,,green,I
193.0,3.0,3.0,0.0,2.0,2.0,322.6051080000616,1.0,1.0,phase_1,,,,,,,,,,,,,yellow,hexagon
90.0,6.0,2.0,1.0,1.0,1.0,336.2465579994023,1.0,1.0,phase_1,,,,,,,,,,,,,gray,flipped triangle
0.0,8.0,0.0,1.0,4.0,4.0,271.8883200004711,1.0,1.0,phase_1,,,,,,,,,,,,,green,I
71.0,1.0,1.0,0.0,2.0,2.0,302.75671399977,1.0,1.0,phase_1,,,,,,,,,,,,,cyan,cross
406.0,4.0,4.0,0.0,3.0,3.0,336.2079389999053,1.0,1.0,phase_1,,,,,,,,,,,,,magenta,square
411.0,4.0,4.0,0.0,4.0,4.0,381.2363269998968,1.0,1.0,phase_1,,,,,,,,,,,,,magenta,square
0.0,3.0,0.0,0.0,1.0,1.0,347.6359969999976,1.0,1.0,phase_1,,,,,,,,,,,,,yellow,hexagon
34.0,1.0,1.0,0.0,2.0,2.0,301.7439459999878,1.0,1.0,phase_1,,,,,,,,,,,,,cyan,cross
80.0,2.0,2.0,0.0,2.0,2.0,361.343474000023,1.0,1.0,phase_1,,,,,,,,,,,,,orange,diamond
57.0,1.0,1.0,0.0,1.0,1.0,325.0999849997242,1.0,1.0,phase_1,,,,,,,,,,,,,cyan,cross
89.0,6.0,2.0,1.0,3.0,3.0,262.4348500003179,1.0,1.0,phase_1,,,,,,,,,,,,,gray,flipped triangle
119.0,2.0,2.0,0.0,1.0,1.0,355.5684849998215,1.0,1.0,phase_1,,,,,,,,,,,,,orange,diamond
124.0,6.0,2.0,1.0,4.0,4.0,325.7597980000355,1.0,1.0,phase_1,,,,,,,,,,,,,gray,flipped triangle
31.0,5.0,1.0,1.0,3.0,3.0,272.3791999997047,1.0,1.0,phase_1,,,,,,,,,,,,,blue,circle
423.0,8.0,4.0,1.0,2.0,2.0,314.3719939998846,1.0,1.0,phase_1,,,,,,,,,,,,,green,I
35.0,5.0,1.0,1.0,4.0,4.0,297.4516710000898,1.0,1.0,phase_1,,,,,,,,,,,,,blue,circle
406.0,8.0,4.0,1.0,1.0,1.0,324.5788790000006,1.0,1.0,phase_1,,,,,,,,,,,,,green,I
0.0,6.0,0.0,1.0,3.0,3.0,286.0543979995782,1.0,1.0,phase_1,,,,,,,,,,,,,gray,flipped triangle
415.0,8.0,4.0,1.0,3.0,3.0,431.2141210002664,1.0,1.0,phase_1,,,,,,,,,,,,,green,I
42.0,5.0,1.0,1.0,2.0,2.0,308.4344409999175,1.0,1.0,phase_1,,,,,,,,,,,,,blue,circle
98.0,6.0,2.0,1.0,1.0,1.0,326.3710060000448,1.0,1.0,phase_1,,,,,,,,,,,,,gray,flipped triangle
0.0,2.0,0.0,0.0,3.0,3.0,258.8465600001655,1.0,1.0,phase_1,,,,,,,,,,,,,orange,diamond
212.0,3.0,3.0,0.0,1.0,1.0,320.520272000067,1.0,1.0,phase_1,,,,,,,,,,,,,yellow,hexagon
78.0,2.0,2.0,0.0,3.0,3.0,388.7842479998653,1.0,1.0,phase_1,,,,,,,,,,,,,orange,diamond
111.0,2.0,2.0,0.0,4.0,4.0,293.4939419992588,1.0,1.0,phase_1,,,,,,,,,,,,,orange,diamond
0.0,2.0,0.0,0.0,3.0,3.0,260.6288329998278,1.0,1.0,phase_1,,,,,,,,,,,,,orange,diamond
183.0,3.0,3.0,0.0,2.0,2.0,457.22312899943057,1.0,1.0,phase_1,,,,,,,,,,,,,yellow,hexagon
224.0,7.0,3.0,1.0,2.0,2.0,336.70900099969,1.0,1.0,phase_1,,,,,,,,,,,,,white,triangle
378.0,4.0,4.0,0.0,1.0,1.0,415.4577760000393,1.0,1.0,phase_1,,,,,,,,,,,,,magenta,square
103.0,2.0,2.0,0.0,1.0,1.0,377.5780699997995,1.0,1.0,phase_1,,,,,,,,,,,,,orange,diamond
406.0,8.0,4.0,1.0,1.0,1.0,334.1528840001047,1.0,1.0,phase_1,,,,,,,,,,,,,green,I
202.0,7.0,3.0,1.0,3.0,3.0,335.0810140000249,1.0,1.0,phase_1,,,,,,,,,,,,,white,triangle
211.0,3.0,3.0,0.0,3.0,3.0,337.4363040002208,1.0,1.0,phase_1,,,,,,,,,,,,,yellow,hexagon
389.0,8.0,4.0,1.0,4.0,4.0,289.2654719998973,1.0,1.0,phase_1,,,,,,,,,,,,,green,I
0.0,7.0,0.0,1.0,1.0,1.0,339.3925150003269,1.0,1.0,phase_1,,,,,,,,,,,,,white,triangle
0.0,8.0,0.0,1.0,3.0,3.0,277.491638000356,1.0,1.0,phase_1,,,,,,,,,,,,,green,I
44.0,5.0,1.0,1.0,1.0,1.0,285.6249430005846,1.0,1.0,phase_1,,,,,,,,,,,,,blue,circle
120.0,2.0,2.0,0.0,1.0,1.0,293.6158210004578,1.0,1.0,phase_1,,,,,,,,,,,,,orange,diamond
52.0,1.0,1.0,0.0,2.0,2.0,441.8964659998892,1.0,1.0,phase_1,,,,,,,,,,,,,cyan,cross
423.0,4.0,4.0,0.0,1.0,1.0,374.7844560002704,1.0,1.0,phase_1,,,,,,,,,,,,,magenta,square
0.0,5.0,0.0,1.0,3.0,3.0,301.9830729999739,1.0,1.0,phase_1,,,,,,,,,,,,,blue,circle
0.0,3.0,0.0,0.0,4.0,4.0,380.8370110000396,1.0,1.0,phase_1,,,,,,,,,,,,,yellow,hexagon
422.0,8.0,4.0,1.0,1.0,1.0,298.5703929998635,1.0,1.0,phase_1,,,,,,,,,,,,,green,I
69.0,5.0,1.0,1.0,4.0,4.0,449.4672709997758,1.0,1.0,phase_1,,,,,,,,,,,,,blue,circle
415.0,8.0,4.0,1.0,1.0,1.0,349.3084000001545,1.0,1.0,phase_1,,,,,,,,,,,,,green,I
105.0,6.0,2.0,1.0,3.0,3.0,392.817310999817,1.0,1.0,phase_1,,,,,,,,,,,,,gray,flipped triangle
0.0,7.0,0.0,1.0,1.0,1.0,362.9075210001247,1.0,1.0,phase_1,,,,,,,,,,,,,white,triangle
0.0,6.0,0.0,1.0,1.0,1.0,387.252274000275,1.0,1.0,phase_1,,,,,,,,,,,,,gray,flipped triangle
0.0,7.0,0.0,1.0,3.0,3.0,381.3465080002061,1.0,1.0,phase_1,,,,,,,,,,,,,white,triangle
394.0,4.0,4.0,0.0,1.0,1.0,353.708448999896,1.0,1.0,phase_1,,,,,,,,,,,,,magenta,square
0.0,8.0,0.0,1.0,3.0,3.0,320.1044490006097,1.0,1.0,phase_1,,,,,,,,,,,,,green,I
42.0,1.0,1.0,0.0,3.0,3.0,293.3914529994581,1.0,1.0,phase_1,,,,,,,,,,,,,cyan,cross
406.0,4.0,4.0,0.0,3.0,3.0,343.7711099995795,1.0,1.0,phase_1,,,,,,,,,,,,,magenta,square
186.0,3.0,3.0,0.0,4.0,4.0,296.8302279996351,1.0,1.0,phase_1,,,,,,,,,,,,,yellow,hexagon
404.0,8.0,4.0,1.0,4.0,4.0,307.285347999823,1.0,1.0,phase_1,,,,,,,,,,,,,green,I
0.0,4.0,0.0,0.0,2.0,2.0,338.2951170005981,1.0,1.0,phase_1,,,,,,,,,,,,,magenta,square
379.0,4.0,4.0,0.0,4.0,4.0,340.9196639995571,1.0,1.0,phase_1,,,,,,,,,,,,,magenta,square
0.0,1.0,0.0,0.0,3.0,3.0,388.7153749992649,2.0,1.0,phase_1,,,,,,,,,,,,,cyan,cross
180.0,7.0,3.0,1.0,3.0,3.0,355.711811999754,2.0,1.0,phase_1,,,,,,,,,,,,,white,triangle
222.0,3.0,3.0,0.0,2.0,2.0,360.0151159998859,2.0,1.0,phase_1,,,,,,,,,,,,,yellow,hexagon
203.0,7.0,3.0,1.0,2.0,2.0,319.5519430000786,2.0,1.0,phase_1,,,,,,,,,,,,,white,triangle
0.0,5.0,0.0,1.0,1.0,1.0,488.8839779996488,2.0,1.0,phase_1,,,,,,,,,,,,,blue,circle
98.0,2.0,2.0,0.0,3.0,3.0,299.5438669995565,2.0,1.0,phase_1,,,,,,,,,,,,,orange,diamond
191.0,3.0,3.0,0.0,3.0,3.0,361.8273939991923,2.0,1.0,phase_1,,,,,,,,,,,,,yellow,hexagon
31.0,1.0,1.0,0.0,3.0,3.0,426.6016899991882,2.0,1.0,phase_1,,,,,,,,,,,,,cyan,cross
0.0,1.0,0.0,0.0,1.0,1.0,313.5913410005742,2.0,1.0,phase_1,,,,,,,,,,,,,cyan,cross
212.0,3.0,3.0,0.0,4.0,4.0,393.6660120007218,2.0,1.0,phase_1,,,,,,,,,,,,,yellow,hexagon
186.0,7.0,3.0,1.0,3.0,3.0,383.1675199999154,2.0,1.0,phase_1,,,,,,,,,,,,,white,triangle
217.0,7.0,3.0,1.0,2.0,2.0,477.9075039996314,2.0,1.0,phase_1,,,,,,,,,,,,,white,triangle
203.0,3.0,3.0,0.0,1.0,1.0,357.6128969998535,2.0,1.0,phase_1,,,,,,,,,,,,,yellow,hexagon
108.0,2.0,2.0,0.0,1.0,1.0,400.1327739997578,2.0,1.0,phase_1,,,,,,,,,,,,,orange,diamond
422.0,4.0,4.0,0.0,4.0,4.0,469.6861740003442,2.0,1.0,phase_1,,,,,,,,,,,,,magenta,square
0.0,3.0,0.0,0.0,1.0,1.0,371.0569879995091,2.0,1.0,phase_1,,,,,,,,,,,,,yellow,hexagon
196.0,7.0,3.0,1.0,1.0,1.0,321.4624270003696,2.0,1.0,phase_1,,,,,,,,,,,,,white,triangle
416.0,8.0,4.0,1.0,1.0,1.0,400.8551799997804,2.0,1.0,phase_1,,,,,,,,,,,,,green,I
37.0,5.0,1.0,1.0,3.0,3.0,387.8049450004255,2.0,1.0,phase_1,,,,,,,,,,,,,blue,circle
0.0,3.0,0.0,0.0,4.0,4.0,337.1524410003985,2.0,1.0,phase_1,,,,,,,,,,,,,yellow,hexagon
183.0,7.0,3.0,1.0,2.0,2.0,346.2586650002777,2.0,1.0,phase_1,,,,,,,,,,,,,white,triangle
386.0,8.0,4.0,1.0,3.0,3.0,317.0457860005626,2.0,1.0,phase_1,,,,,,,,,,,,,green,I
191.0,3.0,3.0,0.0,3.0,3.0,416.7527310000878,2.0,1.0,phase_1,,,,,,,,,,,,,yellow,hexagon
376.0,8.0,4.0,1.0,4.0,4.0,374.2148730007102,2.0,1.0,phase_1,,,,,,,,,,,,,green,I
119.0,6.0,2.0,1.0,1.0,1.0,533.7116059999971,2.0,1.0,phase_1,,,,,,,,,,,,,gray,flipped triangle
0.0,1.0,0.0,0.0,1.0,1.0,420.2568129994688,2.0,1.0,phase_1,,,,,,,,,,,,,cyan,cross
0.0,7.0,0.0,1.0,2.0,2.0,428.7521680007558,2.0,1.0,phase_1,,,,,,,,,,,,,white,triangle
183.0,7.0,3.0,1.0,1.0,1.0,329.2580249999446,2.0,1.0,phase_1,,,,,,,,,,,,,white,triangle
58.0,1.0,1.0,0.0,1.0,1.0,414.3611580002471,2.0,1.0,phase_1,,,,,,,,,,,,,cyan,cross
72.0,5.0,1.0,1.0,1.0,1.0,295.0284090002242,2.0,1.0,phase_1,,,,,,,,,,,,,blue,circle
0.0,8.0,0.0,1.0,3.0,3.0,429.9784799995905,2.0,1.0,phase_1,,,,,,,,,,,,,green,I
77.0,2.0,2.0,0.0,2.0,2.0,415.5156090000673,2.0,1.0,phase_1,,,,,,,,,,,,,orange,diamond
212.0,3.0,3.0,0.0,4.0,4.0,408.3893050001279,2.0,1.0,phase_1,,,,,,,,,,,,,yellow,hexagon
99.0,6.0,2.0,1.0,4.0,4.0,428.6758819998795,2.0,1.0,phase_1,,,,,,,,,,,,,gray,flipped triangle
69.0,1.0,1.0,0.0,4.0,4.0,384.8975420005445,2.0,1.0,phase_1,,,,,,,,,,,,,cyan,cross
80.0,2.0,2.0,0.0,2.0,2.0,321.0076850000405,2.0,1.0,phase_1,,,,,,,,,,,,,orange,diamond
103.0,6.0,2.0,1.0,1.0,1.0,282.5808560000951,2.0,1.0,phase_1,,,,,,,,,,,,,gray,flipped triangle
73.0,5.0,1.0,1.0,3.0,3.0,322.8802599996925,2.0,1.0,phase_1,,,,,,,,,,,,,blue,circle
415.0,4.0,4.0,0.0,3.0,3.0,340.2363810000679,2.0,1.0,phase_1,,,,,,,,,,,,,magenta,square
0.0,2.0,0.0,0.0,4.0,4.0,391.8104840004162,2.0,1.0,phase_1,,,,,,,,,,,,,orange,diamond
0.0,3.0,0.0,0.0,4.0,4.0,343.4269819999827,2.0,1.0,phase_1,,,,,,,,,,,,,yellow,hexagon
32.0,1.0,1.0,0.0,2.0,2.0,399.31352000076,2.0,1.0,phase_1,,,,,,,,,,,,,cyan,cross
411.0,8.0,4.0,1.0,4.0,4.0,468.5732309999366,2.0,1.0,phase_1,,,,,,,,,,,,,green,I
39.0,5.0,1.0,1.0,2.0,2.0,307.8212830005213,2.0,1.0,phase_1,,,,,,,,,,,,,blue,circle
212.0,7.0,3.0,1.0,2.0,2.0,359.8270950005826,2.0,1.0,phase_1,,,,,,,,,,,,,white,triangle
205.0,7.0,3.0,1.0,1.0,1.0,342.5885920005385,2.0,1.0,phase_1,,,,,,,,,,,,,white,triangle
72.0,1.0,1.0,0.0,2.0,2.0,348.0510190001951,2.0,1.0,phase_1,,,,,,,,,,,,,cyan,cross
0.0,6.0,0.0,1.0,1.0,1.0,381.5634330003377,2.0,1.0,phase_1,,,,,,,,,,,,,gray,flipped triangle
404.0,4.0,4.0,0.0,4.0,4.0,374.808225000379,2.0,1.0,phase_1,,,,,,,,,,,,,magenta,square
41.0,1.0,1.0,0.0,2.0,2.0,316.1124270000073,2.0,1.0,phase_1,,,,,,,,,,,,,cyan,cross
386.0,4.0,4.0,0.0,4.0,4.0,349.8716829999466,2.0,1.0,phase_1,,,,,,,,,,,,,magenta,square
0.0,5.0,0.0,1.0,4.0,4.0,507.03735199931543,2.0,1.0,phase_1,,,,,,,,,,,,,blue,circle
73.0,1.0,1.0,0.0,3.0,3.0,408.47445899999,2.0,1.0,phase_1,,,,,,,,,,,,,cyan,cross
198.0,3.0,3.0,0.0,1.0,1.0,326.5678349998779,2.0,1.0,phase_1,,,,,,,,,,,,,yellow,hexagon
35.0,1.0,1.0,0.0,2.0,2.0,408.9402930003416,2.0,1.0,phase_1,,,,,,,,,,,,,cyan,cross
193.0,7.0,3.0,1.0,4.0,4.0,443.8515929996356,2.0,1.0,phase_1,,,,,,,,,,,,,white,triangle
37.0,1.0,1.0,0.0,4.0,4.0,454.4744519998858,2.0,1.0,phase_1,,,,,,,,,,,,,cyan,cross
0.0,7.0,0.0,1.0,2.0,2.0,446.7844059990966,2.0,1.0,phase_1,,,,,,,,,,,,,white,triangle
394.0,4.0,4.0,0.0,1.0,1.0,346.396765999998,2.0,1.0,phase_1,,,,,,,,,,,,,magenta,square
0.0,4.0,0.0,0.0,2.0,2.0,347.2568369998043,2.0,1.0,phase_1,,,,,,,,,,,,,magenta,square
0.0,5.0,0.0,1.0,4.0,4.0,316.7193130002488,2.0,1.0,phase_1,,,,,,,,,,,,,blue,circle
392.0,4.0,4.0,0.0,1.0,1.0,403.9480089995777,2.0,1.0,phase_1,,,,,,,,,,,,,magenta,square
0.0,5.0,0.0,1.0,4.0,4.0,284.57837499991,2.0,2.0,phase_1,,,,,,,,,,,,,blue,circle
109.0,6.0,2.0,1.0,2.0,2.0,315.4801359996781,2.0,1.0,phase_1,,,,,,,,,,,,,gray,flipped triangle
205.0,3.0,3.0,0.0,2.0,2.0,349.7960569993665,2.0,1.0,phase_1,,,,,,,,,,,,,yellow,hexagon
94.0,2.0,2.0,0.0,1.0,1.0,403.3935609995751,2.0,1.0,phase_1,,,,,,,,,,,,,orange,diamond
32.0,5.0,1.0,1.0,3.0,3.0,322.5288989997352,2.0,1.0,phase_1,,,,,,,,,,,,,blue,circle
0.0,5.0,0.0,1.0,1.0,1.0,328.8778850001108,2.0,1.0,phase_1,,,,,,,,,,,,,blue,circle
45.0,5.0,1.0,1.0,1.0,1.0,383.1301540003551,2.0,1.0,phase_1,,,,,,,,,,,,,blue,circle
85.0,2.0,2.0,0.0,4.0,4.0,454.9793320002209,2.0,1.0,phase_1,,,,,,,,,,,,,orange,diamond
409.0,8.0,4.0,1.0,3.0,3.0,392.0057240002279,2.0,1.0,phase_1,,,,,,,,,,,,,green,I
400.0,8.0,4.0,1.0,1.0,1.0,307.3315740002726,2.0,1.0,phase_1,,,,,,,,,,,,,green,I
194.0,7.0,3.0,1.0,1.0,1.0,484.7675640003217,2.0,1.0,phase_1,,,,,,,,,,,,,white,triangle
112.0,6.0,2.0,1.0,4.0,4.0,426.5160240001933,2.0,1.0,phase_1,,,,,,,,,,,,,gray,flipped triangle
185.0,3.0,3.0,0.0,1.0,1.0,347.438007999699,2.0,1.0,phase_1,,,,,,,,,,,,,yellow,hexagon
124.0,2.0,2.0,0.0,2.0,2.0,338.8651490004122,2.0,1.0,phase_1,,,,,,,,,,,,,orange,diamond
69.0,5.0,1.0,1.0,4.0,4.0,356.3728110002557,2.0,1.0,phase_1,,,,,,,,,,,,,blue,circle
57.0,5.0,1.0,1.0,3.0,3.0,307.8378319996773,2.0,1.0,phase_1,,,,,,,,,,,,,blue,circle
0.0,7.0,0.0,1.0,2.0,2.0,400.7296260006114,2.0,1.0,phase_1,,,,,,,,,,,,,white,triangle
0.0,2.0,0.0,0.0,2.0,2.0,375.731017000362,2.0,1.0,phase_1,,,,,,,,,,,,,orange,diamond
209.0,7.0,3.0,1.0,2.0,2.0,362.3527449999528,2.0,1.0,phase_1,,,,,,,,,,,,,white,triangle
0.0,3.0,0.0,0.0,1.0,1.0,438.7389089997668,2.0,1.0,phase_1,,,,,,,,,,,,,yellow,hexagon
112.0,6.0,2.0,1.0,4.0,4.0,518.5690960006468,2.0,1.0,phase_1,,,,,,,,,,,,,gray,flipped triangle
100.0,6.0,2.0,1.0,1.0,1.0,366.6236539993406,2.0,1.0,phase_1,,,,,,,,,,,,,gray,flipped triangle
0.0,1.0,0.0,0.0,2.0,2.0,251.10128699998307,2.0,1.0,phase_1,,,,,,,,,,,,,cyan,cross
79.0,6.0,2.0,1.0,2.0,2.0,276.5578379994622,2.0,1.0,phase_1,,,,,,,,,,,,,gray,flipped triangle
53.0,5.0,1.0,1.0,4.0,4.0,369.3888369998603,2.0,1.0,phase_1,,,,,,,,,,,,,blue,circle
209.0,7.0,3.0,1.0,4.0,4.0,322.9693390003376,2.0,1.0,phase_1,,,,,,,,,,,,,white,triangle
100.0,6.0,2.0,1.0,2.0,2.0,363.5934969997834,2.0,1.0,phase_1,,,,,,,,,,,,,gray,flipped triangle
0.0,7.0,0.0,1.0,2.0,2.0,314.454413999556,2.0,1.0,phase_1,,,,,,,,,,,,,white,triangle
0.0,6.0,0.0,1.0,4.0,4.0,372.0238880005126,2.0,1.0,phase_1,,,,,,,,,,,,,gray,flipped triangle
0.0,1.0,0.0,0.0,3.0,3.0,507.23046100029023,2.0,1.0,phase_1,,,,,,,,,,,,,cyan,cross
26.0,1.0,1.0,0.0,3.0,3.0,276.7461980001826,2.0,1.0,phase_1,,,,,,,,,,,,,cyan,cross
0.0,6.0,0.0,1.0,3.0,3.0,376.6300879997288,2.0,1.0,phase_1,,,,,,,,,,,,,gray,flipped triangle
87.0,2.0,2.0,0.0,4.0,4.0,433.061951000127,2.0,1.0,phase_1,,,,,,,,,,,,,orange,diamond
124.0,2.0,2.0,0.0,4.0,4.0,434.2950350001047,2.0,1.0,phase_1,,,,,,,,,,,,,orange,diamond
421.0,8.0,4.0,1.0,3.0,3.0,300.7419659998049,2.0,1.0,phase_1,,,,,,,,,,,,,green,I
120.0,6.0,2.0,1.0,2.0,2.0,263.6899890003406,2.0,1.0,phase_1,,,,,,,,,,,,,gray,flipped triangle
387.0,8.0,4.0,1.0,4.0,4.0,482.786209000551,2.0,1.0,phase_1,,,,,,,,,,,,,green,I
0.0,8.0,0.0,1.0,3.0,3.0,421.7849979995662,2.0,1.0,phase_1,,,,,,,,,,,,,green,I
191.0,7.0,3.0,1.0,4.0,4.0,343.3135369996307,3.0,1.0,phase_1,,,,,,,,,,,,,white,triangle
0.0,7.0,0.0,1.0,1.0,1.0,366.2762670001029,3.0,2.0,phase_1,,,,,,,,,,,,,white,triangle
198.0,7.0,3.0,1.0,3.0,3.0,319.1505540007711,3.0,1.0,phase_1,,,,,,,,,,,,,white,triangle
0.0,8.0,0.0,1.0,1.0,1.0,318.6642440005016,3.0,1.0,phase_1,,,,,,,,,,,,,green,I
80.0,2.0,2.0,0.0,4.0,4.0,358.6649449998731,3.0,1.0,phase_1,,,,,,,,,,,,,orange,diamond
60.0,1.0,1.0,0.0,1.0,1.0,289.6490539997103,3.0,1.0,phase_1,,,,,,,,,,,,,cyan,cross
75.0,5.0,1.0,1.0,4.0,4.0,365.7977880002363,3.0,1.0,phase_1,,,,,,,,,,,,,blue,circle
412.0,8.0,4.0,1.0,2.0,2.0,402.5389049993464,3.0,1.0,phase_1,,,,,,,,,,,,,green,I
394.0,8.0,4.0,1.0,2.0,2.0,477.6097929998286,3.0,1.0,phase_1,,,,,,,,,,,,,green,I
209.0,3.0,3.0,0.0,4.0,4.0,405.9983560000546,3.0,1.0,phase_1,,,,,,,,,,,,,yellow,hexagon
109.0,2.0,2.0,0.0,3.0,3.0,295.3378590000284,3.0,1.0,phase_1,,,,,,,,,,,,,orange,diamond
26.0,5.0,1.0,1.0,2.0,2.0,392.9485470007421,3.0,1.0,phase_1,,,,,,,,,,,,,blue,circle
0.0,1.0,0.0,0.0,1.0,1.0,359.2582760002187,3.0,1.0,phase_1,,,,,,,,,,,,,cyan,cross
386.0,8.0,4.0,1.0,4.0,4.0,381.8912599999748,3.0,1.0,phase_1,,,,,,,,,,,,,green,I
422.0,4.0,4.0,0.0,2.0,2.0,273.4067860001232,3.0,1.0,phase_1,,,,,,,,,,,,,magenta,square
0.0,2.0,0.0,0.0,2.0,2.0,370.5648140003177,3.0,1.0,phase_1,,,,,,,,,,,,,orange,diamond
406.0,4.0,4.0,0.0,1.0,1.0,295.848861000195,3.0,1.0,phase_1,,,,,,,,,,,,,magenta,square
111.0,6.0,2.0,1.0,2.0,2.0,382.434999999532,3.0,1.0,phase_1,,,,,,,,,,,,,gray,flipped triangle
185.0,3.0,3.0,0.0,2.0,2.0,333.6862180003663,3.0,1.0,phase_1,,,,,,,,,,,,,yellow,hexagon
119.0,6.0,2.0,1.0,3.0,3.0,415.216729000349,3.0,1.0,phase_1,,,,,,,,,,,,,gray,flipped triangle
0.0,2.0,0.0,0.0,3.0,3.0,462.822399000288,3.0,1.0,phase_1,,,,,,,,,,,,,orange,diamond
178.0,7.0,3.0,1.0,4.0,4.0,443.8538989998051,3.0,1.0,phase_1,,,,,,,,,,,,,white,triangle
0.0,5.0,0.0,1.0,3.0,3.0,412.4689589998525,3.0,1.0,phase_1,,,,,,,,,,,,,blue,circle
221.0,3.0,3.0,0.0,2.0,2.0,272.7574020000247,3.0,1.0,phase_1,,,,,,,,,,,,,yellow,hexagon
99.0,2.0,2.0,0.0,1.0,1.0,490.2864590003446,3.0,1.0,phase_1,,,,,,,,,,,,,orange,diamond
183.0,3.0,3.0,0.0,3.0,3.0,281.4340140002969,3.0,1.0,phase_1,,,,,,,,,,,,,yellow,hexagon
34.0,1.0,1.0,0.0,1.0,1.0,316.7194110001219,3.0,1.0,phase_1,,,,,,,,,,,,,cyan,cross
113.0,6.0,2.0,1.0,3.0,3.0,348.8269699992088,3.0,1.0,phase_1,,,,,,,,,,,,,gray,flipped triangle
412.0,4.0,4.0,0.0,4.0,4.0,288.8784829992801,3.0,1.0,phase_1,,,,,,,,,,,,,magenta,square
0.0,1.0,0.0,0.0,4.0,4.0,337.5196679999135,3.0,1.0,phase_1,,,,,,,,,,,,,cyan,cross
178.0,3.0,3.0,0.0,1.0,1.0,417.5386549995892,3.0,1.0,phase_1,,,,,,,,,,,,,yellow,hexagon
399.0,8.0,4.0,1.0,3.0,3.0,468.2445569997071,3.0,1.0,phase_1,,,,,,,,,,,,,green,I
96.0,6.0,2.0,1.0,3.0,3.0,425.0098740003523,3.0,1.0,phase_1,,,,,,,,,,,,,gray,flipped triangle
0.0,8.0,0.0,1.0,3.0,3.0,419.5574700006546,3.0,1.0,phase_1,,,,,,,,,,,,,green,I
0.0,1.0,0.0,0.0,2.0,2.0,457.6766949994635,3.0,1.0,phase_1,,,,,,,,,,,,,cyan,cross
418.0,8.0,4.0,1.0,2.0,2.0,292.732256999443,3.0,1.0,phase_1,,,,,,,,,,,,,green,I
382.0,4.0,4.0,0.0,4.0,4.0,418.8917649998984,3.0,1.0,phase_1,,,,,,,,,,,,,magenta,square
105.0,2.0,2.0,0.0,4.0,4.0,380.124474000695,3.0,1.0,phase_1,,,,,,,,,,,,,orange,diamond
214.0,3.0,3.0,0.0,1.0,1.0,379.5932080001876,3.0,1.0,phase_1,,,,,,,,,,,,,yellow,hexagon
79.0,2.0,2.0,0.0,2.0,2.0,281.4956059992255,3.0,1.0,phase_1,,,,,,,,,,,,,orange,diamond
418.0,4.0,4.0,0.0,2.0,2.0,327.908889000355,3.0,1.0,phase_1,,,,,,,,,,,,,magenta,square
0.0,1.0,0.0,0.0,4.0,4.0,391.0398979996898,3.0,1.0,phase_1,,,,,,,,,,,,,cyan,cross
58.0,1.0,1.0,0.0,4.0,4.0,381.8032879999009,3.0,1.0,phase_1,,,,,,,,,,,,,cyan,cross
105.0,2.0,2.0,0.0,1.0,1.0,372.7098760000444,3.0,1.0,phase_1,,,,,,,,,,,,,orange,diamond
105.0,2.0,2.0,0.0,3.0,3.0,479.0105400006723,3.0,1.0,phase_1,,,,,,,,,,,,,orange,diamond
0.0,4.0,0.0,0.0,4.0,4.0,458.0593439995937,3.0,1.0,phase_1,,,,,,,,,,,,,magenta,square
88.0,6.0,2.0,1.0,1.0,1.0,636.0442029999831,3.0,1.0,phase_1,,,,,,,,,,,,,gray,flipped triangle
386.0,4.0,4.0,0.0,2.0,2.0,456.5952330003711,3.0,1.0,phase_1,,,,,,,,,,,,,magenta,square
398.0,4.0,4.0,0.0,4.0,4.0,370.5003790000774,3.0,1.0,phase_1,,,,,,,,,,,,,magenta,square
182.0,3.0,3.0,0.0,4.0,4.0,333.1989090002025,3.0,1.0,phase_1,,,,,,,,,,,,,yellow,hexagon
0.0,3.0,0.0,0.0,4.0,4.0,368.022168000607,3.0,1.0,phase_1,,,,,,,,,,,,,yellow,hexagon
85.0,6.0,2.0,1.0,4.0,4.0,349.0588229997229,3.0,2.0,phase_1,,,,,,,,,,,,,gray,flipped triangle
66.0,1.0,1.0,0.0,1.0,1.0,344.4119769992539,3.0,1.0,phase_1,,,,,,,,,,,,,cyan,cross
212.0,7.0,3.0,1.0,1.0,1.0,339.374210000642,3.0,1.0,phase_1,,,,,,,,,,,,,white,triangle
189.0,3.0,3.0,0.0,4.0,4.0,404.739698999947,3.0,1.0,phase_1,,,,,,,,,,,,,yellow,hexagon
394.0,8.0,4.0,1.0,1.0,1.0,360.8314900002369,3.0,1.0,phase_1,,,,,,,,,,,,,green,I
107.0,2.0,2.0,0.0,3.0,3.0,347.4424360001649,3.0,1.0,phase_1,,,,,,,,,,,,,orange,diamond
45.0,1.0,1.0,0.0,4.0,4.0,375.5511580002348,3.0,1.0,phase_1,,,,,,,,,,,,,cyan,cross
416.0,4.0,4.0,0.0,3.0,3.0,392.9341150005712,3.0,1.0,phase_1,,,,,,,,,,,,,magenta,square
100.0,2.0,2.0,0.0,4.0,4.0,317.7982739998697,3.0,1.0,phase_1,,,,,,,,,,,,,orange,diamond
0.0,1.0,0.0,0.0,2.0,2.0,359.2929950000325,3.0,1.0,phase_1,,,,,,,,,,,,,cyan,cross
26.0,1.0,1.0,0.0,4.0,4.0,415.1929649997328,3.0,1.0,phase_1,,,,,,,,,,,,,cyan,cross
183.0,3.0,3.0,0.0,2.0,2.0,370.7577089999176,3.0,1.0,phase_1,,,,,,,,,,,,,yellow,hexagon
0.0,5.0,0.0,1.0,1.0,1.0,283.552851999957,3.0,1.0,phase_1,,,,,,,,,,,,,blue,circle
185.0,7.0,3.0,1.0,1.0,1.0,563.1396989992936,3.0,1.0,phase_1,,,,,,,,,,,,,white,triangle
391.0,4.0,4.0,0.0,2.0,2.0,296.6228870000122,3.0,1.0,phase_1,,,,,,,,,,,,,magenta,square
376.0,4.0,4.0,0.0,3.0,3.0,390.2496390001033,3.0,1.0,phase_1,,,,,,,,,,,,,magenta,square
203.0,3.0,3.0,0.0,3.0,3.0,413.1356629995935,3.0,1.0,phase_1,,,,,,,,,,,,,yellow,hexagon
222.0,7.0,3.0,1.0,4.0,4.0,413.5890540001128,3.0,1.0,phase_1,,,,,,,,,,,,,white,triangle
0.0,3.0,0.0,0.0,3.0,3.0,382.8023860005487,3.0,1.0,phase_1,,,,,,,,,,,,,yellow,hexagon
91.0,6.0,2.0,1.0,4.0,4.0,352.5203039998814,3.0,1.0,phase_1,,,,,,,,,,,,,gray,flipped triangle
78.0,6.0,2.0,1.0,3.0,3.0,346.6220069994961,3.0,1.0,phase_1,,,,,,,,,,,,,gray,flipped triangle
212.0,7.0,3.0,1.0,2.0,2.0,235.0186949997805,3.0,2.0,phase_1,,,,,,,,,,,,,white,triangle
80.0,6.0,2.0,1.0,4.0,4.0,379.3533319994822,3.0,1.0,phase_1,,,,,,,,,,,,,gray,flipped triangle
38.0,1.0,1.0,0.0,4.0,4.0,482.9641329997685,3.0,1.0,phase_1,,,,,,,,,,,,,cyan,cross
415.0,4.0,4.0,0.0,2.0,2.0,390.7128700002431,3.0,1.0,phase_1,,,,,,,,,,,,,magenta,square
189.0,3.0,3.0,0.0,1.0,1.0,300.5713040001865,3.0,1.0,phase_1,,,,,,,,,,,,,yellow,hexagon
194.0,3.0,3.0,0.0,1.0,1.0,400.7166280007368,3.0,1.0,phase_1,,,,,,,,,,,,,yellow,hexagon
400.0,4.0,4.0,0.0,2.0,2.0,727.2489930001029,3.0,1.0,phase_1,,,,,,,,,,,,,magenta,square
119.0,2.0,2.0,0.0,3.0,3.0,379.7121280003921,3.0,1.0,phase_1,,,,,,,,,,,,,orange,diamond
421.0,4.0,4.0,0.0,1.0,1.0,328.453000999616,3.0,1.0,phase_1,,,,,,,,,,,,,magenta,square
42.0,5.0,1.0,1.0,4.0,4.0,383.5117109993007,3.0,1.0,phase_1,,,,,,,,,,,,,blue,circle
217.0,3.0,3.0,0.0,1.0,1.0,355.1416980008071,3.0,1.0,phase_1,,,,,,,,,,,,,yellow,hexagon
219.0,7.0,3.0,1.0,1.0,1.0,345.9402459993725,3.0,1.0,phase_1,,,,,,,,,,,,,white,triangle
124.0,2.0,2.0,0.0,2.0,2.0,229.6562540004743,3.0,1.0,phase_1,,,,,,,,,,,,,orange,diamond
379.0,8.0,4.0,1.0,2.0,2.0,379.6318859995153,3.0,1.0,phase_1,,,,,,,,,,,,,green,I
386.0,8.0,4.0,1.0,2.0,2.0,364.3208090006737,3.0,1.0,phase_1,,,,,,,,,,,,,green,I
189.0,7.0,3.0,1.0,1.0,1.0,309.7431369997139,3.0,1.0,phase_1,,,,,,,,,,,,,white,triangle
219.0,3.0,3.0,0.0,1.0,1.0,443.0868990002636,3.0,1.0,phase_1,,,,,,,,,,,,,yellow,hexagon
387.0,4.0,4.0,0.0,1.0,1.0,543.2442979999905,3.0,1.0,phase_1,,,,,,,,,,,,,magenta,square
51.0,5.0,1.0,1.0,3.0,3.0,292.5630520003324,3.0,1.0,phase_1,,,,,,,,,,,,,blue,circle
36.0,1.0,1.0,0.0,3.0,3.0,343.9290209998944,3.0,1.0,phase_1,,,,,,,,,,,,,cyan,cross
183.0,7.0,3.0,1.0,1.0,1.0,658.8825580001867,3.0,1.0,phase_1,,,,,,,,,,,,,white,triangle
96.0,2.0,2.0,0.0,4.0,4.0,380.1303689997439,3.0,1.0,phase_1,,,,,,,,,,,,,orange,diamond
0.0,3.0,0.0,0.0,4.0,4.0,334.7235230003207,3.0,2.0,phase_1,,,,,,,,,,,,,yellow,hexagon
0.0,2.0,0.0,0.0,2.0,2.0,271.4691709998078,3.0,1.0,phase_1,,,,,,,,,,,,,orange,diamond
38.0,5.0,1.0,1.0,1.0,1.0,448.0143159998988,3.0,1.0,phase_1,,,,,,,,,,,,,blue,circle
86.0,6.0,2.0,1.0,3.0,3.0,307.1755230002964,3.0,1.0,phase_1,,,,,,,,,,,,,gray,flipped triangle
78.0,2.0,2.0,0.0,3.0,3.0,380.6834170000002,3.0,1.0,phase_1,,,,,,,,,,,,,orange,diamond
40.0,5.0,1.0,1.0,1.0,1.0,337.4860120002267,3.0,1.0,phase_1,,,,,,,,,,,,,blue,circle
176.0,3.0,3.0,0.0,3.0,3.0,412.8742880002392,4.0,1.0,phase_1,,,,,,,,,,,,,yellow,hexagon
380.0,4.0,4.0,0.0,2.0,2.0,265.4654689995368,4.0,1.0,phase_1,,,,,,,,,,,,,magenta,square
0.0,8.0,0.0,1.0,2.0,2.0,362.7155839994884,4.0,1.0,phase_1,,,,,,,,,,,,,green,I
69.0,1.0,1.0,0.0,1.0,1.0,281.8855069999699,4.0,1.0,phase_1,,,,,,,,,,,,,cyan,cross
66.0,5.0,1.0,1.0,3.0,3.0,320.8483399994293,4.0,1.0,phase_1,,,,,,,,,,,,,blue,circle
218.0,7.0,3.0,1.0,3.0,3.0,459.8631089993432,4.0,1.0,phase_1,,,,,,,,,,,,,white,triangle
100.0,2.0,2.0,0.0,2.0,2.0,380.0734660007947,4.0,1.0,phase_1,,,,,,,,,,,,,orange,diamond
66.0,1.0,1.0,0.0,3.0,3.0,460.2600279995386,4.0,1.0,phase_1,,,,,,,,,,,,,cyan,cross
67.0,5.0,1.0,1.0,4.0,4.0,401.9450499999948,4.0,1.0,phase_1,,,,,,,,,,,,,blue,circle
89.0,2.0,2.0,0.0,4.0,4.0,319.9947829998564,4.0,1.0,phase_1,,,,,,,,,,,,,orange,diamond
0.0,4.0,0.0,0.0,3.0,3.0,425.5897969997022,4.0,1.0,phase_1,,,,,,,,,,,,,magenta,square
398.0,8.0,4.0,1.0,2.0,2.0,264.3975850005517,4.0,1.0,phase_1,,,,,,,,,,,,,green,I
0.0,5.0,0.0,1.0,1.0,1.0,674.1633370002091,4.0,1.0,phase_1,,,,,,,,,,,,,blue,circle
0.0,3.0,0.0,0.0,1.0,1.0,489.2160649997095,4.0,1.0,phase_1,,,,,,,,,,,,,yellow,hexagon
90.0,2.0,2.0,0.0,2.0,2.0,291.947030999836,4.0,1.0,phase_1,,,,,,,,,,,,,orange,diamond
399.0,4.0,4.0,0.0,2.0,2.0,386.9474329994773,4.0,1.0,phase_1,,,,,,,,,,,,,magenta,square
64.0,1.0,1.0,0.0,2.0,2.0,362.8263560003688,4.0,1.0,phase_1,,,,,,,,,,,,,cyan,cross
40.0,1.0,1.0,0.0,3.0,3.0,413.3794609997494,4.0,1.0,phase_1,,,,,,,,,,,,,cyan,cross
400.0,4.0,4.0,0.0,4.0,4.0,358.4922829995776,4.0,1.0,phase_1,,,,,,,,,,,,,magenta,square
406.0,8.0,4.0,1.0,2.0,2.0,230.4709660002117,4.0,2.0,phase_1,,,,,,,,,,,,,green,I
214.0,3.0,3.0,0.0,4.0,4.0,492.3723840001912,4.0,1.0,phase_1,,,,,,,,,,,,,yellow,hexagon
408.0,4.0,4.0,0.0,2.0,2.0,357.0435000001453,4.0,1.0,phase_1,,,,,,,,,,,,,magenta,square
105.0,6.0,2.0,1.0,3.0,3.0,443.7997290006024,4.0,1.0,phase_1,,,,,,,,,,,,,gray,flipped triangle
29.0,1.0,1.0,0.0,1.0,1.0,502.8213629993843,4.0,1.0,phase_1,,,,,,,,,,,,,cyan,cross
34.0,5.0,1.0,1.0,3.0,3.0,221.0405000005266,4.0,2.0,phase_1,,,,,,,,,,,,,blue,circle
189.0,7.0,3.0,1.0,4.0,4.0,436.7152119993989,4.0,1.0,phase_1,,,,,,,,,,,,,white,triangle
378.0,8.0,4.0,1.0,3.0,3.0,395.4281740006991,4.0,1.0,phase_1,,,,,,,,,,,,,green,I
116.0,6.0,2.0,1.0,3.0,3.0,421.3603560001502,4.0,1.0,phase_1,,,,,,,,,,,,,gray,flipped triangle
0.0,7.0,0.0,1.0,4.0,4.0,416.3623479998932,4.0,3.0,phase_1,,,,,,,,,,,,,white,triangle
64.0,1.0,1.0,0.0,4.0,4.0,363.3339309999428,4.0,1.0,phase_1,,,,,,,,,,,,,cyan,cross
0.0,4.0,0.0,0.0,1.0,1.0,463.7187890002678,4.0,1.0,phase_1,,,,,,,,,,,,,magenta,square
88.0,2.0,2.0,0.0,1.0,1.0,426.3700239998798,4.0,1.0,phase_1,,,,,,,,,,,,,orange,diamond
203.0,7.0,3.0,1.0,2.0,2.0,387.8238110000893,4.0,1.0,phase_1,,,,,,,,,,,,,white,triangle
392.0,8.0,4.0,1.0,4.0,4.0,425.1787330003935,4.0,1.0,phase_1,,,,,,,,,,,,,green,I
405.0,4.0,4.0,0.0,3.0,3.0,460.7705340004031,4.0,1.0,phase_1,,,,,,,,,,,,,magenta,square
87.0,6.0,2.0,1.0,4.0,4.0,462.3527840003589,4.0,1.0,phase_1,,,,,,,,,,,,,gray,flipped triangle
0.0,4.0,0.0,0.0,2.0,2.0,379.4129500001872,4.0,1.0,phase_1,,,,,,,,,,,,,magenta,square
218.0,3.0,3.0,0.0,4.0,4.0,385.1294969999799,4.0,1.0,phase_1,,,,,,,,,,,,,yellow,hexagon
75.0,1.0,1.0,0.0,3.0,3.0,414.3833730004189,4.0,1.0,phase_1,,,,,,,,,,,,,cyan,cross
0.0,7.0,0.0,1.0,2.0,2.0,324.756582000191,4.0,1.0,phase_1,,,,,,,,,,,,,white,triangle
26.0,5.0,1.0,1.0,2.0,2.0,383.7431950005339,4.0,1.0,phase_1,,,,,,,,,,,,,blue,circle
51.0,1.0,1.0,0.0,1.0,1.0,425.4074939999555,4.0,1.0,phase_1,,,,,,,,,,,,,cyan,cross
394.0,8.0,4.0,1.0,1.0,1.0,637.7911649997259,4.0,1.0,phase_1,,,,,,,,,,,,,green,I
86.0,2.0,2.0,0.0,1.0,1.0,328.6224420007784,4.0,1.0,phase_1,,,,,,,,,,,,,orange,diamond
380.0,8.0,4.0,1.0,1.0,1.0,327.4146120002115,4.0,1.0,phase_1,,,,,,,,,,,,,green,I
380.0,4.0,4.0,0.0,4.0,4.0,362.2242390001702,4.0,1.0,phase_1,,,,,,,,,,,,,magenta,square
40.0,5.0,1.0,1.0,2.0,2.0,404.5373489998383,4.0,1.0,phase_1,,,,,,,,,,,,,blue,circle
0.0,2.0,0.0,0.0,2.0,2.0,393.5822080002253,4.0,1.0,phase_1,,,,,,,,,,,,,orange,diamond
408.0,8.0,4.0,1.0,2.0,2.0,634.7886129997278,4.0,1.0,phase_1,,,,,,,,,,,,,green,I
183.0,3.0,3.0,0.0,4.0,4.0,451.347842999894,4.0,1.0,phase_1,,,,,,,,,,,,,yellow,hexagon
26.0,1.0,1.0,0.0,4.0,4.0,401.448875000824,4.0,1.0,phase_1,,,,,,,,,,,,,cyan,cross
122.0,6.0,2.0,1.0,2.0,2.0,470.4482300003292,4.0,1.0,phase_1,,,,,,,,,,,,,gray,flipped triangle
0.0,2.0,0.0,0.0,3.0,3.0,564.5946930007995,4.0,1.0,phase_1,,,,,,,,,,,,,orange,diamond
64.0,5.0,1.0,1.0,1.0,1.0,470.7192430005307,4.0,1.0,phase_1,,,,,,,,,,,,,blue,circle
77.0,6.0,2.0,1.0,1.0,1.0,472.7828029999728,4.0,1.0,phase_1,,,,,,,,,,,,,gray,flipped triangle
66.0,5.0,1.0,1.0,2.0,2.0,723.5428759995557,4.0,1.0,phase_1,,,,,,,,,,,,,blue,circle
183.0,7.0,3.0,1.0,1.0,1.0,432.2783249999702,4.0,1.0,phase_1,,,,,,,,,,,,,white,triangle
0.0,4.0,0.0,0.0,1.0,1.0,351.5554919995338,4.0,1.0,phase_1,,,,,,,,,,,,,magenta,square
58.0,5.0,1.0,1.0,4.0,4.0,407.5434000005771,4.0,1.0,phase_1,,,,,,,,,,,,,blue,circle
405.0,8.0,4.0,1.0,4.0,4.0,206.2701029999516,4.0,2.0,phase_1,,,,,,,,,,,,,green,I
190.0,3.0,3.0,0.0,3.0,3.0,378.7395939998532,4.0,1.0,phase_1,,,,,,,,,,,,,yellow,hexagon
386.0,8.0,4.0,1.0,4.0,4.0,522.2116660006577,4.0,1.0,phase_1,,,,,,,,,,,,,green,I
36.0,5.0,1.0,1.0,2.0,2.0,298.1662760003019,4.0,2.0,phase_1,,,,,,,,,,,,,blue,circle
382.0,8.0,4.0,1.0,3.0,3.0,351.386769999408,4.0,1.0,phase_1,,,,,,,,,,,,,green,I
425.0,8.0,4.0,1.0,1.0,1.0,316.8450910006868,4.0,1.0,phase_1,,,,,,,,,,,,,green,I
67.0,1.0,1.0,0.0,1.0,1.0,353.5230440002124,4.0,1.0,phase_1,,,,,,,,,,,,,cyan,cross
42.0,1.0,1.0,0.0,2.0,2.0,284.3205409999427,4.0,1.0,phase_1,,,,,,,,,,,,,cyan,cross
29.0,5.0,1.0,1.0,2.0,2.0,388.5633380004947,4.0,1.0,phase_1,,,,,,,,,,,,,blue,circle
386.0,4.0,4.0,0.0,3.0,3.0,318.9370860000053,4.0,1.0,phase_1,,,,,,,,,,,,,magenta,square
0.0,5.0,0.0,1.0,1.0,1.0,553.325266999309,4.0,1.0,phase_1,,,,,,,,,,,,,blue,circle
386.0,4.0,4.0,0.0,3.0,3.0,351.4676830000098,4.0,1.0,phase_1,,,,,,,,,,,,,magenta,square
122.0,2.0,2.0,0.0,4.0,4.0,672.0059879999098,4.0,1.0,phase_1,,,,,,,,,,,,,orange,diamond
80.0,6.0,2.0,1.0,1.0,1.0,359.2984919996524,4.0,1.0,phase_1,,,,,,,,,,,,,gray,flipped triangle
182.0,7.0,3.0,1.0,3.0,3.0,404.7368300007292,4.0,2.0,phase_1,,,,,,,,,,,,,white,triangle
0.0,6.0,0.0,1.0,2.0,2.0,354.9136050005472,4.0,1.0,phase_1,,,,,,,,,,,,,gray,flipped triangle
400.0,8.0,4.0,1.0,3.0,3.0,357.8859549998014,4.0,1.0,phase_1,,,,,,,,,,,,,green,I
94.0,6.0,2.0,1.0,2.0,2.0,395.1987840000583,4.0,1.0,phase_1,,,,,,,,,,,,,gray,flipped triangle
0.0,6.0,0.0,1.0,1.0,1.0,937.7078359993902,4.0,1.0,phase_1,,,,,,,,,,,,,gray,flipped triangle
221.0,7.0,3.0,1.0,4.0,4.0,464.8881289995188,4.0,1.0,phase_1,,,,,,,,,,,,,white,triangle
202.0,3.0,3.0,0.0,2.0,2.0,425.3187750000506,4.0,1.0,phase_1,,,,,,,,,,,,,yellow,hexagon
409.0,4.0,4.0,0.0,3.0,3.0,551.5898069998002,4.0,1.0,phase_1,,,,,,,,,,,,,magenta,square
185.0,7.0,3.0,1.0,2.0,2.0,836.8865900001765,4.0,1.0,phase_1,,,,,,,,,,,,,white,triangle
108.0,6.0,2.0,1.0,2.0,2.0,720.4986430006102,4.0,1.0,phase_1,,,,,,,,,,,,,gray,flipped triangle
34.0,5.0,1.0,1.0,1.0,1.0,446.6208490002827,4.0,1.0,phase_1,,,,,,,,,,,,,blue,circle
389.0,4.0,4.0,0.0,3.0,3.0,445.9803810004814,4.0,1.0,phase_1,,,,,,,,,,,,,magenta,square
0.0,8.0,0.0,1.0,1.0,1.0,679.207803999816,4.0,1.0,phase_1,,,,,,,,,,,,,green,I
196.0,3.0,3.0,0.0,3.0,3.0,993.6549200001537,4.0,1.0,phase_1,,,,,,,,,,,,,yellow,hexagon
78.0,6.0,2.0,1.0,4.0,4.0,453.4621140001036,4.0,1.0,phase_1,,,,,,,,,,,,,gray,flipped triangle
80.0,2.0,2.0,0.0,2.0,2.0,346.9779759998346,4.0,1.0,phase_1,,,,,,,,,,,,,orange,diamond
391.0,8.0,4.0,1.0,4.0,4.0,913.6640169999736,4.0,1.0,phase_1,,,,,,,,,,,,,green,I
105.0,6.0,2.0,1.0,2.0,2.0,601.0318949993234,4.0,1.0,phase_1,,,,,,,,,,,,,gray,flipped triangle
71.0,5.0,1.0,1.0,2.0,2.0,539.5307520002461,4.0,1.0,phase_1,,,,,,,,,,,,,blue,circle
0.0,6.0,0.0,1.0,4.0,4.0,559.8296950001895,4.0,1.0,phase_1,,,,,,,,,,,,,gray,flipped triangle
64.0,5.0,1.0,1.0,4.0,4.0,384.6993749993999,4.0,1.0,phase_1,,,,,,,,,,,,,blue,circle
107.0,6.0,2.0,1.0,3.0,3.0,233.9948830003777,4.0,2.0,phase_1,,,,,,,,,,,,,gray,flipped triangle
26.0,5.0,1.0,1.0,1.0,1.0,360.891253999398,4.0,1.0,phase_1,,,,,,,,,,,,,blue,circle
190.0,7.0,3.0,1.0,3.0,3.0,317.5134329994762,4.0,1.0,phase_1,,,,,,,,,,,,,white,triangle
80.0,6.0,2.0,1.0,4.0,4.0,203.7589389992717,4.0,2.0,phase_1,,,,,,,,,,,,,gray,flipped triangle
44.0,1.0,1.0,0.0,4.0,4.0,595.9517709998181,4.0,1.0,phase_1,,,,,,,,,,,,,cyan,cross
60.0,5.0,1.0,1.0,3.0,3.0,321.8442099996537,4.0,1.0,phase_1,,,,,,,,,,,,,blue,circle
0.0,2.0,2.0,0.0,6.0,6.0,394.0730320000511,1.0,1.0,phase_2,go,250.0,250.0,1.0,,,,,,,,,orange,diamond
0.0,6.0,2.0,1.0,6.0,6.0,399.3865809998169,1.0,1.0,phase_2,stop,250.0,250.0,3.0,,,,,,,,,gray,flipped triangle
0.0,2.0,2.0,0.0,5.0,5.0,359.4221230005132,1.0,1.0,phase_2,go,250.0,200.0,1.0,,,,,,,,,orange,diamond
0.0,3.0,3.0,0.0,5.0,5.0,365.1394260004963,1.0,1.0,phase_2,go,250.0,200.0,1.0,,,,,,,,,yellow,hexagon
0.0,3.0,3.0,0.0,6.0,6.0,528.669300000729,1.0,1.0,phase_2,go,250.0,200.0,1.0,,,,,,,,,yellow,hexagon
0.0,5.0,1.0,1.0,6.0,6.0,458.8754540000082,1.0,1.0,phase_2,go,250.0,200.0,1.0,,,,,,,,,blue,circle
0.0,3.0,3.0,0.0,5.0,5.0,510.8901799994783,1.0,1.0,phase_2,go,250.0,200.0,1.0,,,,,,,,,yellow,hexagon
0.0,3.0,3.0,0.0,5.0,5.0,493.1319749994145,1.0,1.0,phase_2,go,250.0,200.0,1.0,,,,,,,,,yellow,hexagon
0.0,6.0,2.0,1.0,6.0,0.0,0.0,1.0,1.0,phase_2,stop,250.0,200.0,4.0,,,,,,,,,gray,flipped triangle
0.0,7.0,3.0,1.0,5.0,5.0,379.3581629997788,1.0,1.0,phase_2,go,250.0,250.0,1.0,,,,,,,,,white,triangle
0.0,2.0,2.0,0.0,6.0,6.0,512.4834050002391,1.0,1.0,phase_2,go,250.0,250.0,1.0,,,,,,,,,orange,diamond
0.0,5.0,1.0,1.0,6.0,0.0,0.0,1.0,1.0,phase_2,stop,250.0,250.0,4.0,,,,,,,,,blue,circle
0.0,5.0,1.0,1.0,6.0,0.0,0.0,1.0,1.0,phase_2,stop,250.0,300.0,4.0,,,,,,,,,blue,circle
0.0,4.0,4.0,0.0,6.0,6.0,532.5486109995836,1.0,1.0,phase_2,go,250.0,350.0,1.0,,,,,,,,,magenta,square
0.0,4.0,4.0,0.0,6.0,6.0,382.3257780004496,1.0,1.0,phase_2,go,250.0,350.0,1.0,,,,,,,,,magenta,square
0.0,5.0,1.0,1.0,5.0,0.0,0.0,1.0,1.0,phase_2,stop,250.0,350.0,4.0,,,,,,,,,blue,circle
0.0,2.0,2.0,0.0,5.0,5.0,502.2521990003952,1.0,1.0,phase_2,go,300.0,350.0,1.0,,,,,,,,,orange,diamond
0.0,3.0,3.0,0.0,6.0,6.0,458.0529479999313,1.0,1.0,phase_2,go,300.0,350.0,1.0,,,,,,,,,yellow,hexagon
0.0,1.0,1.0,0.0,5.0,5.0,550.4594490003001,1.0,1.0,phase_2,go,300.0,350.0,1.0,,,,,,,,,cyan,cross
0.0,2.0,2.0,0.0,6.0,6.0,568.4725649998654,1.0,1.0,phase_2,go,300.0,350.0,1.0,,,,,,,,,orange,diamond
0.0,5.0,1.0,1.0,5.0,0.0,0.0,1.0,1.0,phase_2,stop,300.0,350.0,4.0,,,,,,,,,blue,circle
0.0,3.0,3.0,0.0,6.0,6.0,478.1482220005273,1.0,1.0,phase_2,go,350.0,350.0,1.0,,,,,,,,,yellow,hexagon
0.0,1.0,1.0,0.0,6.0,6.0,651.3583060004748,1.0,1.0,phase_2,go,350.0,350.0,1.0,,,,,,,,,cyan,cross
0.0,3.0,3.0,0.0,6.0,6.0,440.6243190005625,1.0,1.0,phase_2,go,350.0,350.0,1.0,,,,,,,,,yellow,hexagon
0.0,2.0,2.0,0.0,6.0,6.0,455.9967939994749,1.0,1.0,phase_2,go,350.0,350.0,1.0,,,,,,,,,orange,diamond
0.0,4.0,4.0,0.0,5.0,5.0,544.3293619991891,1.0,1.0,phase_2,go,350.0,350.0,1.0,,,,,,,,,magenta,square
0.0,8.0,4.0,1.0,5.0,0.0,0.0,1.0,1.0,phase_2,stop,350.0,350.0,4.0,,,,,,,,,green,I
0.0,4.0,4.0,0.0,6.0,6.0,579.9417019998145,1.0,1.0,phase_2,go,400.0,350.0,1.0,,,,,,,,,magenta,square
0.0,5.0,1.0,1.0,6.0,0.0,0.0,1.0,1.0,phase_2,stop,400.0,350.0,4.0,,,,,,,,,blue,circle
0.0,8.0,4.0,1.0,5.0,0.0,0.0,1.0,1.0,phase_2,stop,400.0,400.0,4.0,,,,,,,,,green,I
0.0,4.0,4.0,0.0,5.0,5.0,488.2685170005061,1.0,1.0,phase_2,go,450.0,400.0,1.0,,,,,,,,,magenta,square
0.0,2.0,2.0,0.0,6.0,6.0,462.0596479999221,1.0,1.0,phase_2,go,450.0,400.0,1.0,,,,,,,,,orange,diamond
0.0,3.0,3.0,0.0,5.0,5.0,535.6180329999916,1.0,1.0,phase_2,go,450.0,400.0,1.0,,,,,,,,,yellow,hexagon
0.0,4.0,4.0,0.0,5.0,5.0,423.859954999898,1.0,1.0,phase_2,go,450.0,400.0,1.0,,,,,,,,,magenta,square
0.0,1.0,1.0,0.0,6.0,6.0,493.071351999788,1.0,1.0,phase_2,go,450.0,400.0,1.0,,,,,,,,,cyan,cross
0.0,2.0,2.0,0.0,6.0,6.0,374.5836730004157,1.0,1.0,phase_2,go,450.0,400.0,1.0,,,,,,,,,orange,diamond
0.0,8.0,4.0,1.0,5.0,5.0,876.637096000195,2.0,1.0,phase_2,go,450.0,400.0,1.0,,,,,,,,,green,I
0.0,6.0,2.0,1.0,5.0,5.0,552.088098999775,2.0,1.0,phase_2,go,450.0,400.0,1.0,,,,,,,,,gray,flipped triangle
0.0,4.0,4.0,0.0,5.0,5.0,596.8401720001566,2.0,1.0,phase_2,go,450.0,400.0,1.0,,,,,,,,,magenta,square
0.0,8.0,4.0,1.0,5.0,5.0,645.6573710001976,2.0,1.0,phase_2,stop,450.0,400.0,3.0,,,,,,,,,green,I
0.0,4.0,4.0,0.0,6.0,6.0,450.8785139996689,2.0,1.0,phase_2,go,400.0,400.0,1.0,,,,,,,,,magenta,square
0.0,4.0,4.0,0.0,6.0,6.0,600.7180509996033,2.0,1.0,phase_2,go,400.0,400.0,1.0,,,,,,,,,magenta,square
0.0,6.0,2.0,1.0,5.0,5.0,514.5247000000381,2.0,1.0,phase_2,stop,400.0,400.0,3.0,,,,,,,,,gray,flipped triangle
0.0,4.0,4.0,0.0,5.0,5.0,723.0942770002002,2.0,1.0,phase_2,go,350.0,400.0,1.0,,,,,,,,,magenta,square
0.0,5.0,1.0,1.0,6.0,6.0,716.169637999883,2.0,1.0,phase_2,go,350.0,400.0,1.0,,,,,,,,,blue,circle
0.0,8.0,4.0,1.0,5.0,0.0,0.0,2.0,1.0,phase_2,stop,350.0,400.0,4.0,,,,,,,,,green,I
0.0,1.0,1.0,0.0,6.0,6.0,424.6730550003121,2.0,1.0,phase_2,go,400.0,400.0,1.0,,,,,,,,,cyan,cross
0.0,2.0,2.0,0.0,5.0,5.0,640.3035200000886,2.0,1.0,phase_2,go,400.0,400.0,1.0,,,,,,,,,orange,diamond
0.0,6.0,2.0,1.0,5.0,5.0,891.851623000548,2.0,1.0,phase_2,go,400.0,400.0,1.0,,,,,,,,,gray,flipped triangle
0.0,7.0,3.0,1.0,5.0,5.0,543.2107299993731,2.0,1.0,phase_2,go,400.0,400.0,1.0,,,,,,,,,white,triangle
0.0,5.0,1.0,1.0,6.0,0.0,0.0,2.0,1.0,phase_2,stop,400.0,400.0,4.0,,,,,,,,,blue,circle
0.0,4.0,4.0,0.0,5.0,5.0,448.976937000225,2.0,1.0,phase_2,go,400.0,450.0,1.0,,,,,,,,,magenta,square
0.0,8.0,4.0,1.0,6.0,0.0,0.0,2.0,1.0,phase_2,stop,400.0,450.0,4.0,,,,,,,,,green,I
0.0,7.0,3.0,1.0,6.0,0.0,0.0,2.0,1.0,phase_2,stop,400.0,500.0,4.0,,,,,,,,,white,triangle
0.0,8.0,4.0,1.0,5.0,0.0,0.0,2.0,1.0,phase_2,stop,400.0,550.0,4.0,,,,,,,,,green,I
0.0,3.0,3.0,0.0,5.0,5.0,686.2486750005701,2.0,1.0,phase_2,go,450.0,550.0,1.0,,,,,,,,,yellow,hexagon
0.0,2.0,2.0,0.0,5.0,5.0,685.3492210002514,2.0,1.0,phase_2,go,450.0,550.0,1.0,,,,,,,,,orange,diamond
0.0,2.0,2.0,0.0,6.0,6.0,606.7477639999197,2.0,1.0,phase_2,go,450.0,550.0,1.0,,,,,,,,,orange,diamond
0.0,8.0,4.0,1.0,5.0,0.0,0.0,2.0,1.0,phase_2,stop,450.0,550.0,4.0,,,,,,,,,green,I
0.0,8.0,4.0,1.0,6.0,6.0,846.6246030002367,2.0,1.0,phase_2,go,500.0,550.0,1.0,,,,,,,,,green,I
0.0,7.0,3.0,1.0,5.0,0.0,0.0,2.0,1.0,phase_2,stop,500.0,550.0,4.0,,,,,,,,,white,triangle
0.0,1.0,1.0,0.0,5.0,5.0,526.7125740001575,2.0,1.0,phase_2,go,550.0,550.0,1.0,,,,,,,,,cyan,cross
0.0,2.0,2.0,0.0,5.0,5.0,665.0087599991821,2.0,1.0,phase_2,go,550.0,550.0,1.0,,,,,,,,,orange,diamond
0.0,8.0,4.0,1.0,5.0,5.0,674.8716330002935,2.0,1.0,phase_2,stop,550.0,550.0,3.0,,,,,,,,,green,I
0.0,2.0,2.0,0.0,5.0,5.0,760.3977239996311,2.0,1.0,phase_2,go,500.0,550.0,1.0,,,,,,,,,orange,diamond
0.0,3.0,3.0,0.0,6.0,6.0,629.8247620006805,2.0,1.0,phase_2,go,500.0,550.0,1.0,,,,,,,,,yellow,hexagon
0.0,6.0,2.0,1.0,6.0,0.0,0.0,2.0,1.0,phase_2,stop,500.0,550.0,4.0,,,,,,,,,gray,flipped triangle
0.0,8.0,4.0,1.0,5.0,0.0,0.0,2.0,1.0,phase_2,stop,500.0,600.0,4.0,,,,,,,,,green,I
0.0,4.0,4.0,0.0,5.0,5.0,814.5815860007133,2.0,1.0,phase_2,go,550.0,600.0,1.0,,,,,,,,,magenta,square
0.0,1.0,1.0,0.0,5.0,5.0,598.8257039998643,2.0,1.0,phase_2,go,550.0,600.0,1.0,,,,,,,,,cyan,cross
0.0,6.0,2.0,1.0,5.0,0.0,0.0,2.0,1.0,phase_2,stop,550.0,600.0,4.0,,,,,,,,,gray,flipped triangle
0.0,2.0,2.0,0.0,6.0,6.0,359.4449920001352,2.0,1.0,phase_2,go,600.0,600.0,1.0,,,,,,,,,orange,diamond
0.0,7.0,3.0,1.0,6.0,6.0,723.9782699998614,3.0,1.0,phase_2,stop,600.0,600.0,3.0,,,,,,,,,white,triangle
0.0,2.0,2.0,0.0,5.0,5.0,623.7787219997699,3.0,1.0,phase_2,go,600.0,550.0,1.0,,,,,,,,,orange,diamond
0.0,5.0,1.0,1.0,5.0,0.0,0.0,3.0,1.0,phase_2,stop,600.0,550.0,4.0,,,,,,,,,blue,circle
0.0,8.0,4.0,1.0,6.0,0.0,0.0,3.0,1.0,phase_2,stop,650.0,550.0,4.0,,,,,,,,,green,I
0.0,5.0,1.0,1.0,6.0,6.0,948.1386080005904,3.0,1.0,phase_2,go,650.0,600.0,1.0,,,,,,,,,blue,circle
0.0,3.0,3.0,0.0,5.0,5.0,1100.6268869996347,3.0,1.0,phase_2,go,650.0,600.0,1.0,,,,,,,,,yellow,hexagon
0.0,3.0,3.0,0.0,6.0,6.0,858.752056999947,3.0,1.0,phase_2,go,650.0,600.0,1.0,,,,,,,,,yellow,hexagon
0.0,7.0,3.0,1.0,6.0,0.0,0.0,3.0,1.0,phase_2,stop,650.0,600.0,4.0,,,,,,,,,white,triangle
0.0,7.0,3.0,1.0,6.0,0.0,0.0,3.0,1.0,phase_2,stop,650.0,650.0,4.0,,,,,,,,,white,triangle
0.0,3.0,3.0,0.0,5.0,5.0,476.7414210000424,3.0,1.0,phase_2,go,650.0,700.0,1.0,,,,,,,,,yellow,hexagon
0.0,5.0,1.0,1.0,5.0,5.0,968.3865209999568,3.0,1.0,phase_2,go,650.0,700.0,1.0,,,,,,,,,blue,circle
0.0,3.0,3.0,0.0,6.0,6.0,664.5735090005473,3.0,1.0,phase_2,go,650.0,700.0,1.0,,,,,,,,,yellow,hexagon
0.0,7.0,3.0,1.0,5.0,5.0,858.1953220000287,3.0,1.0,phase_2,go,650.0,700.0,1.0,,,,,,,,,white,triangle
0.0,5.0,1.0,1.0,5.0,0.0,0.0,3.0,1.0,phase_2,stop,650.0,700.0,4.0,,,,,,,,,blue,circle
0.0,4.0,4.0,0.0,5.0,5.0,808.2995810000284,3.0,1.0,phase_2,go,700.0,700.0,1.0,,,,,,,,,magenta,square
0.0,8.0,4.0,1.0,5.0,0.0,0.0,3.0,1.0,phase_2,stop,700.0,700.0,4.0,,,,,,,,,green,I
0.0,6.0,2.0,1.0,5.0,0.0,0.0,3.0,1.0,phase_2,stop,750.0,700.0,4.0,,,,,,,,,gray,flipped triangle
0.0,7.0,3.0,1.0,5.0,5.0,834.5340030000443,3.0,1.0,phase_2,stop,800.0,700.0,3.0,,,,,,,,,white,triangle
0.0,4.0,4.0,0.0,6.0,6.0,836.4645170004223,3.0,1.0,phase_2,go,750.0,700.0,1.0,,,,,,,,,magenta,square
0.0,8.0,4.0,1.0,6.0,6.0,1111.9990549996146,3.0,1.0,phase_2,go,750.0,700.0,1.0,,,,,,,,,green,I
0.0,7.0,3.0,1.0,6.0,6.0,1151.928995000162,3.0,1.0,phase_2,go,750.0,700.0,1.0,,,,,,,,,white,triangle
0.0,3.0,3.0,0.0,6.0,6.0,686.5512020003735,3.0,1.0,phase_2,go,750.0,700.0,1.0,,,,,,,,,yellow,hexagon
0.0,7.0,3.0,1.0,6.0,0.0,0.0,3.0,1.0,phase_2,stop,750.0,700.0,4.0,,,,,,,,,white,triangle
0.0,6.0,2.0,1.0,6.0,6.0,732.5135600003705,3.0,1.0,phase_2,go,750.0,750.0,1.0,,,,,,,,,gray,flipped triangle
0.0,2.0,2.0,0.0,5.0,5.0,661.8864680003753,3.0,1.0,phase_2,go,750.0,750.0,1.0,,,,,,,,,orange,diamond
0.0,7.0,3.0,1.0,5.0,5.0,878.4553549994598,3.0,1.0,phase_2,stop,750.0,750.0,3.0,,,,,,,,,white,triangle
0.0,5.0,1.0,1.0,6.0,0.0,0.0,3.0,1.0,phase_2,stop,700.0,750.0,4.0,,,,,,,,,blue,circle
0.0,3.0,3.0,0.0,6.0,6.0,554.5351500004472,3.0,1.0,phase_2,go,700.0,800.0,1.0,,,,,,,,,yellow,hexagon
0.0,7.0,3.0,1.0,6.0,0.0,0.0,3.0,1.0,phase_2,stop,700.0,800.0,4.0,,,,,,,,,white,triangle
0.0,4.0,4.0,0.0,6.0,6.0,576.8451719995937,3.0,1.0,phase_2,go,700.0,850.0,1.0,,,,,,,,,magenta,square
0.0,5.0,1.0,1.0,6.0,6.0,1171.8075870003304,3.0,1.0,phase_2,go,700.0,850.0,1.0,,,,,,,,,blue,circle
0.0,2.0,2.0,0.0,6.0,6.0,647.9423870005121,3.0,1.0,phase_2,go,700.0,850.0,1.0,,,,,,,,,orange,diamond
0.0,1.0,1.0,0.0,5.0,5.0,844.8462010001094,3.0,1.0,phase_2,go,700.0,850.0,1.0,,,,,,,,,cyan,cross
0.0,1.0,1.0,0.0,6.0,6.0,721.122529999775,3.0,1.0,phase_2,go,700.0,850.0,1.0,,,,,,,,,cyan,cross
0.0,1.0,1.0,0.0,5.0,5.0,832.8972769995744,3.0,1.0,phase_2,go,700.0,850.0,1.0,,,,,,,,,cyan,cross
0.0,6.0,2.0,1.0,6.0,0.0,0.0,3.0,1.0,phase_2,stop,700.0,850.0,4.0,,,,,,,,,gray,flipped triangle
0.0,6.0,2.0,1.0,5.0,5.0,824.6450340002411,4.0,1.0,phase_2,stop,700.0,900.0,3.0,,,,,,,,,gray,flipped triangle
0.0,2.0,2.0,0.0,5.0,5.0,714.1994369994791,4.0,1.0,phase_2,go,650.0,900.0,1.0,,,,,,,,,orange,diamond
0.0,7.0,3.0,1.0,5.0,5.0,801.6719849993024,4.0,1.0,phase_2,go,650.0,900.0,1.0,,,,,,,,,white,triangle
0.0,2.0,2.0,0.0,5.0,5.0,428.9915050003401,4.0,1.0,phase_2,go,650.0,900.0,1.0,,,,,,,,,orange,diamond
0.0,2.0,2.0,0.0,5.0,5.0,397.6631799996539,4.0,1.0,phase_2,go,650.0,900.0,1.0,,,,,,,,,orange,diamond
0.0,5.0,1.0,1.0,5.0,5.0,853.4816250003132,4.0,1.0,phase_2,go,650.0,900.0,1.0,,,,,,,,,blue,circle
0.0,1.0,1.0,0.0,5.0,5.0,508.66169100027037,4.0,1.0,phase_2,go,650.0,900.0,1.0,,,,,,,,,cyan,cross
0.0,2.0,2.0,0.0,6.0,6.0,680.5576690003363,4.0,1.0,phase_2,go,650.0,900.0,1.0,,,,,,,,,orange,diamond
0.0,6.0,2.0,1.0,6.0,6.0,979.223242000444,4.0,1.0,phase_2,stop,650.0,900.0,3.0,,,,,,,,,gray,flipped triangle
0.0,3.0,3.0,0.0,6.0,6.0,514.1961839999567,4.0,1.0,phase_2,go,650.0,850.0,1.0,,,,,,,,,yellow,hexagon
0.0,7.0,3.0,1.0,6.0,6.0,967.8368320001028,4.0,1.0,phase_2,stop,650.0,850.0,3.0,,,,,,,,,white,triangle
0.0,5.0,1.0,1.0,6.0,0.0,0.0,4.0,1.0,phase_2,stop,650.0,800.0,4.0,,,,,,,,,blue,circle
0.0,2.0,2.0,0.0,5.0,5.0,565.7189130006373,4.0,1.0,phase_2,go,650.0,850.0,1.0,,,,,,,,,orange,diamond
0.0,7.0,3.0,1.0,6.0,0.0,0.0,4.0,1.0,phase_2,stop,650.0,850.0,4.0,,,,,,,,,white,triangle
0.0,3.0,3.0,0.0,5.0,5.0,479.5059540001603,4.0,1.0,phase_2,go,650.0,900.0,1.0,,,,,,,,,yellow,hexagon
0.0,7.0,3.0,1.0,6.0,0.0,0.0,4.0,1.0,phase_2,stop,650.0,900.0,4.0,,,,,,,,,white,triangle
0.0,3.0,3.0,0.0,5.0,5.0,559.2048480002632,4.0,1.0,phase_2,go,650.0,950.0,1.0,,,,,,,,,yellow,hexagon
0.0,8.0,4.0,1.0,5.0,0.0,0.0,4.0,1.0,phase_2,stop,650.0,950.0,4.0,,,,,,,,,green,I
0.0,8.0,4.0,1.0,5.0,5.0,1101.857129999189,4.0,1.0,phase_2,go,700.0,950.0,1.0,,,,,,,,,green,I
0.0,7.0,3.0,1.0,5.0,0.0,0.0,4.0,1.0,phase_2,stop,700.0,950.0,4.0,,,,,,,,,white,triangle
0.0,4.0,4.0,0.0,5.0,5.0,398.1274879997727,4.0,1.0,phase_2,go,750.0,950.0,1.0,,,,,,,,,magenta,square
0.0,1.0,1.0,0.0,5.0,5.0,604.48372799965,4.0,1.0,phase_2,go,750.0,950.0,1.0,,,,,,,,,cyan,cross
0.0,7.0,3.0,1.0,5.0,0.0,0.0,4.0,1.0,phase_2,stop,750.0,950.0,4.0,,,,,,,,,white,triangle
0.0,2.0,2.0,0.0,6.0,6.0,502.10177900044073,4.0,1.0,phase_2,go,800.0,950.0,1.0,,,,,,,,,orange,diamond
0.0,6.0,2.0,1.0,6.0,0.0,0.0,4.0,1.0,phase_2,stop,800.0,950.0,4.0,,,,,,,,,gray,flipped triangle
0.0,5.0,1.0,1.0,5.0,0.0,0.0,4.0,1.0,phase_2,stop,800.0,1000.0,4.0,,,,,,,,,blue,circle
0.0,6.0,2.0,1.0,6.0,0.0,0.0,4.0,1.0,phase_2,stop,850.0,1000.0,4.0,,,,,,,,,gray,flipped triangle
0.0,1.0,1.0,0.0,5.0,5.0,725.1073289999113,4.0,1.0,phase_2,go,850.0,1050.0,1.0,,,,,,,,,cyan,cross
0.0,1.0,1.0,0.0,6.0,6.0,543.0584529995031,4.0,1.0,phase_2,go,850.0,1050.0,1.0,,,,,,,,,cyan,cross
0.0,8.0,4.0,1.0,5.0,0.0,0.0,4.0,1.0,phase_2,stop,850.0,1050.0,4.0,,,,,,,,,green,I
0.0,1.0,1.0,0.0,6.0,6.0,687.3654330001955,4.0,1.0,phase_2,go,900.0,1050.0,1.0,,,,,,,,,cyan,cross
0.0,3.0,3.0,0.0,6.0,6.0,489.1626089993224,4.0,1.0,phase_2,go,900.0,1050.0,1.0,,,,,,,,,yellow,hexagon
0.0,8.0,4.0,1.0,5.0,5.0,1376.5524279997408,4.0,1.0,phase_2,go,900.0,1050.0,1.0,,,,,,,,,green,I
0.0,8.0,4.0,1.0,5.0,5.0,1148.5552889998871,4.0,1.0,phase_2,go,900.0,1050.0,1.0,,,,,,,,,green,I
0.0,7.0,3.0,1.0,5.0,0.0,0.0,4.0,1.0,phase_2,stop,900.0,1050.0,4.0,,,,,,,,,white,triangle
0.0,1.0,1.0,0.0,6.0,6.0,527.7917719995457,4.0,1.0,phase_2,go,950.0,1050.0,1.0,,,,,,,,,cyan,cross
0.0,8.0,4.0,1.0,6.0,6.0,640.611558999808,5.0,1.0,phase_2,stop,950.0,1050.0,3.0,,,,,,,,,green,I
0.0,5.0,1.0,1.0,6.0,6.0,1041.435369000283,5.0,1.0,phase_2,stop,950.0,1000.0,3.0,,,,,,,,,blue,circle
0.0,5.0,1.0,1.0,5.0,5.0,782.7645589995882,5.0,1.0,phase_2,stop,950.0,950.0,3.0,,,,,,,,,blue,circle
0.0,2.0,2.0,0.0,5.0,5.0,392.1501099994202,5.0,1.0,phase_2,go,900.0,950.0,1.0,,,,,,,,,orange,diamond
0.0,5.0,1.0,1.0,6.0,6.0,1065.3027689995724,5.0,1.0,phase_2,stop,900.0,950.0,3.0,,,,,,,,,blue,circle
0.0,8.0,4.0,1.0,6.0,0.0,0.0,5.0,1.0,phase_2,stop,900.0,900.0,4.0,,,,,,,,,green,I
0.0,3.0,3.0,0.0,6.0,6.0,484.8733270000593,5.0,1.0,phase_2,go,900.0,950.0,1.0,,,,,,,,,yellow,hexagon
0.0,1.0,1.0,0.0,5.0,5.0,516.7108329997063,5.0,1.0,phase_2,go,900.0,950.0,1.0,,,,,,,,,cyan,cross
0.0,8.0,4.0,1.0,6.0,6.0,540.7202509995841,5.0,1.0,phase_2,stop,900.0,950.0,3.0,,,,,,,,,green,I
0.0,6.0,2.0,1.0,5.0,5.0,331.8285349996586,5.0,1.0,phase_2,stop,900.0,900.0,3.0,,,,,,,,,gray,flipped triangle
0.0,1.0,1.0,0.0,6.0,6.0,427.8890539999338,5.0,1.0,phase_2,go,850.0,900.0,1.0,,,,,,,,,cyan,cross
0.0,4.0,4.0,0.0,5.0,5.0,483.5938639998858,5.0,1.0,phase_2,go,850.0,900.0,1.0,,,,,,,,,magenta,square
0.0,4.0,4.0,0.0,6.0,6.0,403.7923550004052,5.0,1.0,phase_2,go,850.0,900.0,1.0,,,,,,,,,magenta,square
0.0,5.0,1.0,1.0,5.0,5.0,370.0406420002764,5.0,1.0,phase_2,stop,850.0,900.0,3.0,,,,,,,,,blue,circle
0.0,3.0,3.0,0.0,5.0,5.0,486.3193499995759,5.0,1.0,phase_2,go,800.0,900.0,1.0,,,,,,,,,yellow,hexagon
0.0,2.0,2.0,0.0,6.0,6.0,508.00760300080583,5.0,1.0,phase_2,go,800.0,900.0,1.0,,,,,,,,,orange,diamond
0.0,5.0,1.0,1.0,5.0,5.0,603.0261570003859,5.0,1.0,phase_2,stop,800.0,900.0,3.0,,,,,,,,,blue,circle
0.0,3.0,3.0,0.0,6.0,6.0,468.8675670004159,5.0,1.0,phase_2,go,750.0,900.0,1.0,,,,,,,,,yellow,hexagon
0.0,6.0,2.0,1.0,6.0,6.0,1414.9554920004448,5.0,1.0,phase_2,go,750.0,900.0,1.0,,,,,,,,,gray,flipped triangle
0.0,7.0,3.0,1.0,6.0,6.0,923.800024999764,5.0,1.0,phase_2,go,750.0,900.0,1.0,,,,,,,,,white,triangle
0.0,6.0,2.0,1.0,5.0,0.0,0.0,5.0,1.0,phase_2,stop,750.0,900.0,4.0,,,,,,,,,gray,flipped triangle
0.0,2.0,2.0,0.0,6.0,6.0,448.0922810007541,5.0,1.0,phase_2,go,800.0,900.0,1.0,,,,,,,,,orange,diamond
0.0,6.0,2.0,1.0,5.0,5.0,884.687046000181,5.0,1.0,phase_2,stop,800.0,900.0,3.0,,,,,,,,,gray,flipped triangle
0.0,7.0,3.0,1.0,6.0,6.0,720.4474750005829,5.0,1.0,phase_2,go,750.0,900.0,1.0,,,,,,,,,white,triangle
0.0,1.0,1.0,0.0,5.0,5.0,496.9964439997056,5.0,1.0,phase_2,go,750.0,900.0,1.0,,,,,,,,,cyan,cross
0.0,4.0,4.0,0.0,5.0,5.0,379.04206300027,5.0,1.0,phase_2,go,750.0,900.0,1.0,,,,,,,,,magenta,square
0.0,6.0,2.0,1.0,5.0,5.0,717.6136449998012,5.0,1.0,phase_2,go,750.0,900.0,1.0,,,,,,,,,gray,flipped triangle
0.0,7.0,3.0,1.0,5.0,5.0,1140.036728999803,5.0,1.0,phase_2,go,750.0,900.0,1.0,,,,,,,,,white,triangle
0.0,5.0,1.0,1.0,6.0,6.0,771.7868869995073,5.0,1.0,phase_2,stop,750.0,900.0,3.0,,,,,,,,,blue,circle
0.0,7.0,3.0,1.0,5.0,0.0,0.0,5.0,1.0,phase_2,stop,750.0,850.0,4.0,,,,,,,,,white,triangle
0.0,3.0,3.0,0.0,5.0,5.0,509.6578100001352,5.0,1.0,phase_2,go,800.0,850.0,1.0,,,,,,,,,yellow,hexagon
0.0,3.0,3.0,0.0,5.0,5.0,366.290625000147,5.0,1.0,phase_2,go,800.0,850.0,1.0,,,,,,,,,yellow,hexagon
0.0,1.0,1.0,0.0,6.0,6.0,516.9108000000051,5.0,1.0,phase_2,go,800.0,850.0,1.0,,,,,,,,,cyan,cross
0.0,7.0,3.0,1.0,6.0,6.0,938.9822809998803,5.0,1.0,phase_2,stop,800.0,850.0,3.0,,,,,,,,,white,triangle
0.0,4.0,4.0,0.0,6.0,6.0,449.9887779993514,5.0,1.0,phase_2,go,800.0,800.0,1.0,,,,,,,,,magenta,square
0.0,7.0,3.0,1.0,6.0,0.0,0.0,5.0,1.0,phase_2,stop,800.0,800.0,4.0,,,,,,,,,white,triangle
0.0,2.0,2.0,0.0,5.0,5.0,439.9149710006895,6.0,1.0,phase_2,go,800.0,850.0,1.0,,,,,,,,,orange,diamond
0.0,7.0,3.0,1.0,5.0,5.0,670.2568059999976,6.0,1.0,phase_2,stop,800.0,850.0,3.0,,,,,,,,,white,triangle
0.0,2.0,2.0,0.0,6.0,6.0,436.2262539998482,6.0,1.0,phase_2,go,750.0,850.0,1.0,,,,,,,,,orange,diamond
0.0,8.0,4.0,1.0,5.0,0.0,0.0,6.0,1.0,phase_2,stop,750.0,850.0,4.0,,,,,,,,,green,I
0.0,7.0,3.0,1.0,5.0,5.0,353.0463529996268,6.0,1.0,phase_2,stop,800.0,850.0,3.0,,,,,,,,,white,triangle
0.0,6.0,2.0,1.0,5.0,0.0,0.0,6.0,1.0,phase_2,stop,750.0,850.0,4.0,,,,,,,,,gray,flipped triangle
0.0,5.0,1.0,1.0,5.0,5.0,468.0048959999112,6.0,1.0,phase_2,go,800.0,850.0,1.0,,,,,,,,,blue,circle
0.0,8.0,4.0,1.0,6.0,6.0,626.2203420001242,6.0,1.0,phase_2,stop,800.0,850.0,3.0,,,,,,,,,green,I
0.0,2.0,2.0,0.0,5.0,5.0,431.4533799997662,6.0,1.0,phase_2,go,800.0,800.0,1.0,,,,,,,,,orange,diamond
0.0,6.0,2.0,1.0,5.0,0.0,0.0,6.0,1.0,phase_2,stop,800.0,800.0,4.0,,,,,,,,,gray,flipped triangle
0.0,1.0,1.0,0.0,6.0,6.0,496.3813330004996,6.0,1.0,phase_2,go,850.0,800.0,1.0,,,,,,,,,cyan,cross
0.0,8.0,4.0,1.0,6.0,0.0,0.0,6.0,1.0,phase_2,stop,850.0,800.0,4.0,,,,,,,,,green,I
0.0,4.0,4.0,0.0,5.0,5.0,491.4418210000804,6.0,1.0,phase_2,go,850.0,850.0,1.0,,,,,,,,,magenta,square
0.0,6.0,2.0,1.0,6.0,6.0,595.2096850005546,6.0,1.0,phase_2,stop,850.0,850.0,3.0,,,,,,,,,gray,flipped triangle
0.0,6.0,2.0,1.0,6.0,0.0,0.0,6.0,1.0,phase_2,stop,850.0,800.0,4.0,,,,,,,,,gray,flipped triangle
0.0,3.0,3.0,0.0,5.0,5.0,422.4814640001568,6.0,1.0,phase_2,go,850.0,850.0,1.0,,,,,,,,,yellow,hexagon
0.0,1.0,1.0,0.0,5.0,5.0,400.2395540001089,6.0,1.0,phase_2,go,850.0,850.0,1.0,,,,,,,,,cyan,cross
0.0,7.0,3.0,1.0,5.0,5.0,341.2532779993853,6.0,1.0,phase_2,stop,850.0,850.0,3.0,,,,,,,,,white,triangle
0.0,7.0,3.0,1.0,5.0,5.0,1024.2616389996329,6.0,1.0,phase_2,go,800.0,850.0,1.0,,,,,,,,,white,triangle
0.0,1.0,1.0,0.0,5.0,5.0,443.8510980007777,6.0,1.0,phase_2,go,800.0,850.0,1.0,,,,,,,,,cyan,cross
0.0,5.0,1.0,1.0,5.0,5.0,788.0454000005557,6.0,1.0,phase_2,stop,800.0,850.0,3.0,,,,,,,,,blue,circle
0.0,6.0,2.0,1.0,5.0,5.0,865.2863280003658,6.0,1.0,phase_2,stop,750.0,850.0,3.0,,,,,,,,,gray,flipped triangle
0.0,1.0,1.0,0.0,5.0,5.0,523.2965479999621,6.0,1.0,phase_2,go,700.0,850.0,1.0,,,,,,,,,cyan,cross
0.0,1.0,1.0,0.0,6.0,6.0,433.2421280005292,6.0,1.0,phase_2,go,700.0,850.0,1.0,,,,,,,,,cyan,cross
0.0,4.0,4.0,0.0,6.0,6.0,443.4125049992872,6.0,1.0,phase_2,go,700.0,850.0,1.0,,,,,,,,,magenta,square
0.0,8.0,4.0,1.0,5.0,0.0,0.0,6.0,1.0,phase_2,stop,700.0,850.0,4.0,,,,,,,,,green,I
0.0,5.0,1.0,1.0,6.0,0.0,0.0,6.0,1.0,phase_2,stop,750.0,850.0,4.0,,,,,,,,,blue,circle
0.0,6.0,2.0,1.0,6.0,0.0,0.0,6.0,1.0,phase_2,stop,750.0,900.0,4.0,,,,,,,,,gray,flipped triangle
0.0,4.0,4.0,0.0,5.0,5.0,433.0659140005082,6.0,1.0,phase_2,go,750.0,950.0,1.0,,,,,,,,,magenta,square
0.0,6.0,2.0,1.0,6.0,6.0,755.1006779995078,6.0,1.0,phase_2,go,750.0,950.0,1.0,,,,,,,,,gray,flipped triangle
0.0,2.0,2.0,0.0,6.0,6.0,414.4385279996641,6.0,1.0,phase_2,go,750.0,950.0,1.0,,,,,,,,,orange,diamond
0.0,3.0,3.0,0.0,5.0,5.0,445.5170989995167,6.0,1.0,phase_2,go,750.0,950.0,1.0,,,,,,,,,yellow,hexagon
0.0,4.0,4.0,0.0,6.0,6.0,448.6922550004237,6.0,1.0,phase_2,go,750.0,950.0,1.0,,,,,,,,,magenta,square
0.0,7.0,3.0,1.0,6.0,6.0,393.1842230003894,6.0,1.0,phase_2,stop,750.0,950.0,3.0,,,,,,,,,white,triangle
0.0,6.0,2.0,1.0,6.0,6.0,567.6004770002692,6.0,1.0,phase_2,stop,750.0,900.0,3.0,,,,,,,,,gray,flipped triangle
0.0,5.0,1.0,1.0,5.0,5.0,426.4122949998636,6.0,1.0,phase_2,go,750.0,850.0,1.0,,,,,,,,,blue,circle
0.0,4.0,4.0,0.0,6.0,6.0,439.7960750002312,7.0,1.0,phase_2,go,750.0,850.0,1.0,,,,,,,,,magenta,square
0.0,4.0,4.0,0.0,5.0,5.0,411.2820349992034,7.0,1.0,phase_2,go,750.0,850.0,1.0,,,,,,,,,magenta,square
0.0,6.0,2.0,1.0,5.0,5.0,890.8420699999624,7.0,1.0,phase_2,go,750.0,850.0,1.0,,,,,,,,,gray,flipped triangle
0.0,4.0,4.0,0.0,6.0,6.0,344.3291090006823,7.0,1.0,phase_2,go,750.0,850.0,1.0,,,,,,,,,magenta,square
0.0,2.0,2.0,0.0,5.0,5.0,406.4428319998114,7.0,1.0,phase_2,go,750.0,850.0,1.0,,,,,,,,,orange,diamond
0.0,3.0,3.0,0.0,5.0,5.0,428.2970139993267,7.0,1.0,phase_2,go,750.0,850.0,1.0,,,,,,,,,yellow,hexagon
0.0,8.0,4.0,1.0,6.0,6.0,383.3026410002276,7.0,1.0,phase_2,stop,750.0,850.0,3.0,,,,,,,,,green,I
0.0,4.0,4.0,0.0,6.0,6.0,370.1672859997416,7.0,1.0,phase_2,go,750.0,800.0,1.0,,,,,,,,,magenta,square
0.0,5.0,1.0,1.0,6.0,6.0,395.1097160006611,7.0,1.0,phase_2,stop,750.0,800.0,3.0,,,,,,,,,blue,circle
0.0,6.0,2.0,1.0,5.0,5.0,847.6665910002339,7.0,1.0,phase_2,go,750.0,750.0,1.0,,,,,,,,,gray,flipped triangle
0.0,8.0,4.0,1.0,6.0,6.0,1071.492955999929,7.0,1.0,phase_2,go,750.0,750.0,1.0,,,,,,,,,green,I
0.0,4.0,4.0,0.0,5.0,5.0,374.6976829997948,7.0,1.0,phase_2,go,750.0,750.0,1.0,,,,,,,,,magenta,square
0.0,5.0,1.0,1.0,5.0,5.0,608.2422200006476,7.0,1.0,phase_2,go,750.0,750.0,1.0,,,,,,,,,blue,circle
0.0,2.0,2.0,0.0,6.0,6.0,435.9945979995245,7.0,1.0,phase_2,go,750.0,750.0,1.0,,,,,,,,,orange,diamond
0.0,7.0,3.0,1.0,6.0,6.0,540.7354099997974,7.0,1.0,phase_2,stop,750.0,750.0,3.0,,,,,,,,,white,triangle
0.0,5.0,1.0,1.0,5.0,5.0,642.1047879994148,7.0,1.0,phase_2,stop,750.0,700.0,3.0,,,,,,,,,blue,circle
0.0,4.0,4.0,0.0,6.0,6.0,409.1460230001758,7.0,1.0,phase_2,go,700.0,700.0,1.0,,,,,,,,,magenta,square
0.0,1.0,1.0,0.0,6.0,6.0,490.6900239993774,7.0,1.0,phase_2,go,700.0,700.0,1.0,,,,,,,,,cyan,cross
0.0,6.0,2.0,1.0,5.0,5.0,659.6239679993232,7.0,1.0,phase_2,stop,700.0,700.0,3.0,,,,,,,,,gray,flipped triangle
0.0,1.0,1.0,0.0,6.0,6.0,438.4049889995367,7.0,1.0,phase_2,go,650.0,700.0,1.0,,,,,,,,,cyan,cross
0.0,6.0,2.0,1.0,6.0,6.0,834.7445449999213,7.0,1.0,phase_2,stop,650.0,700.0,3.0,,,,,,,,,gray,flipped triangle
0.0,3.0,3.0,0.0,5.0,5.0,456.0747980003725,7.0,1.0,phase_2,go,650.0,650.0,1.0,,,,,,,,,yellow,hexagon
0.0,8.0,4.0,1.0,6.0,0.0,0.0,7.0,1.0,phase_2,stop,650.0,650.0,4.0,,,,,,,,,green,I
0.0,3.0,3.0,0.0,6.0,6.0,593.9486000006582,7.0,1.0,phase_2,go,650.0,700.0,1.0,,,,,,,,,yellow,hexagon
0.0,1.0,1.0,0.0,5.0,5.0,403.3557390002897,7.0,1.0,phase_2,go,650.0,700.0,1.0,,,,,,,,,cyan,cross
0.0,3.0,3.0,0.0,5.0,5.0,478.4639100007553,7.0,1.0,phase_2,go,650.0,700.0,1.0,,,,,,,,,yellow,hexagon
0.0,3.0,3.0,0.0,6.0,6.0,319.7679149998294,7.0,1.0,phase_2,go,650.0,700.0,1.0,,,,,,,,,yellow,hexagon
0.0,8.0,4.0,1.0,6.0,6.0,1135.4496980002295,7.0,1.0,phase_2,go,650.0,700.0,1.0,,,,,,,,,green,I
0.0,6.0,2.0,1.0,5.0,5.0,407.2084939998603,7.0,1.0,phase_2,stop,650.0,700.0,3.0,,,,,,,,,gray,flipped triangle
0.0,1.0,1.0,0.0,5.0,5.0,422.2836389999429,7.0,1.0,phase_2,go,600.0,700.0,1.0,,,,,,,,,cyan,cross
0.0,8.0,4.0,1.0,6.0,0.0,0.0,7.0,1.0,phase_2,stop,600.0,700.0,4.0,,,,,,,,,green,I
0.0,1.0,1.0,0.0,6.0,6.0,471.5490179996777,7.0,1.0,phase_2,go,600.0,750.0,1.0,,,,,,,,,cyan,cross
0.0,5.0,1.0,1.0,6.0,6.0,739.2211319993294,7.0,1.0,phase_2,stop,600.0,750.0,3.0,,,,,,,,,blue,circle
0.0,6.0,2.0,1.0,6.0,0.0,0.0,7.0,1.0,phase_2,stop,600.0,700.0,4.0,,,,,,,,,gray,flipped triangle
0.0,2.0,2.0,0.0,6.0,6.0,488.3006119998754,7.0,1.0,phase_2,go,600.0,750.0,1.0,,,,,,,,,orange,diamond
0.0,7.0,3.0,1.0,5.0,5.0,378.9385039999615,7.0,1.0,phase_2,stop,600.0,750.0,3.0,,,,,,,,,white,triangle
0.0,3.0,3.0,0.0,5.0,5.0,388.5479030004717,8.0,1.0,phase_2,go,550.0,750.0,1.0,,,,,,,,,yellow,hexagon
0.0,8.0,4.0,1.0,6.0,0.0,0.0,8.0,1.0,phase_2,stop,550.0,750.0,4.0,,,,,,,,,green,I
0.0,5.0,1.0,1.0,6.0,0.0,0.0,8.0,1.0,phase_2,stop,550.0,800.0,4.0,,,,,,,,,blue,circle
0.0,7.0,3.0,1.0,6.0,6.0,1034.0114660002655,8.0,1.0,phase_2,stop,550.0,850.0,3.0,,,,,,,,,white,triangle
0.0,6.0,2.0,1.0,6.0,6.0,1131.7673840003408,8.0,1.0,phase_2,go,550.0,800.0,1.0,,,,,,,,,gray,flipped triangle
0.0,8.0,4.0,1.0,6.0,0.0,0.0,8.0,1.0,phase_2,stop,550.0,800.0,4.0,,,,,,,,,green,I
0.0,4.0,4.0,0.0,6.0,6.0,402.4688680001418,8.0,1.0,phase_2,go,550.0,850.0,1.0,,,,,,,,,magenta,square
0.0,6.0,2.0,1.0,5.0,0.0,0.0,8.0,1.0,phase_2,stop,550.0,850.0,4.0,,,,,,,,,gray,flipped triangle
0.0,1.0,1.0,0.0,5.0,5.0,334.7006379999584,8.0,1.0,phase_2,go,600.0,850.0,1.0,,,,,,,,,cyan,cross
0.0,4.0,4.0,0.0,5.0,5.0,395.6422600003861,8.0,1.0,phase_2,go,600.0,850.0,1.0,,,,,,,,,magenta,square
0.0,4.0,4.0,0.0,6.0,6.0,411.4928620001592,8.0,1.0,phase_2,go,600.0,850.0,1.0,,,,,,,,,magenta,square
0.0,2.0,2.0,0.0,5.0,5.0,368.5309250004138,8.0,1.0,phase_2,go,600.0,850.0,1.0,,,,,,,,,orange,diamond
0.0,3.0,3.0,0.0,6.0,6.0,409.3162979997942,8.0,1.0,phase_2,go,600.0,850.0,1.0,,,,,,,,,yellow,hexagon
0.0,5.0,1.0,1.0,6.0,6.0,351.9553799997084,8.0,1.0,phase_2,stop,600.0,850.0,3.0,,,,,,,,,blue,circle
0.0,1.0,1.0,0.0,6.0,6.0,466.57823500027,8.0,1.0,phase_2,go,600.0,800.0,1.0,,,,,,,,,cyan,cross
0.0,4.0,4.0,0.0,5.0,5.0,424.4040089997725,8.0,1.0,phase_2,go,600.0,800.0,1.0,,,,,,,,,magenta,square
0.0,8.0,4.0,1.0,6.0,0.0,0.0,8.0,1.0,phase_2,stop,600.0,800.0,4.0,,,,,,,,,green,I
0.0,8.0,4.0,1.0,5.0,5.0,944.178011999611,8.0,1.0,phase_2,go,600.0,850.0,1.0,,,,,,,,,green,I
0.0,7.0,3.0,1.0,5.0,0.0,0.0,8.0,1.0,phase_2,stop,600.0,850.0,4.0,,,,,,,,,white,triangle
0.0,7.0,3.0,1.0,6.0,6.0,760.256722000122,8.0,1.0,phase_2,stop,650.0,850.0,3.0,,,,,,,,,white,triangle
0.0,1.0,1.0,0.0,5.0,5.0,420.018906000223,8.0,1.0,phase_2,go,650.0,800.0,1.0,,,,,,,,,cyan,cross
0.0,3.0,3.0,0.0,6.0,6.0,477.8004899999359,8.0,1.0,phase_2,go,650.0,800.0,1.0,,,,,,,,,yellow,hexagon
0.0,5.0,1.0,1.0,5.0,0.0,0.0,8.0,1.0,phase_2,stop,650.0,800.0,4.0,,,,,,,,,blue,circle
0.0,3.0,3.0,0.0,6.0,6.0,472.2396349998234,8.0,1.0,phase_2,go,700.0,800.0,1.0,,,,,,,,,yellow,hexagon
0.0,1.0,1.0,0.0,6.0,6.0,314.732847000414,8.0,1.0,phase_2,go,700.0,800.0,1.0,,,,,,,,,cyan,cross
0.0,2.0,2.0,0.0,5.0,5.0,391.9907979998243,8.0,1.0,phase_2,go,700.0,800.0,1.0,,,,,,,,,orange,diamond
0.0,5.0,1.0,1.0,5.0,0.0,0.0,8.0,1.0,phase_2,stop,700.0,800.0,4.0,,,,,,,,,blue,circle
0.0,8.0,4.0,1.0,6.0,0.0,0.0,8.0,1.0,phase_2,stop,750.0,800.0,4.0,,,,,,,,,green,I
0.0,6.0,2.0,1.0,6.0,0.0,0.0,8.0,1.0,phase_2,stop,750.0,850.0,4.0,,,,,,,,,gray,flipped triangle
0.0,1.0,1.0,0.0,6.0,6.0,424.9642470003891,8.0,1.0,phase_2,go,750.0,900.0,1.0,,,,,,,,,cyan,cross
0.0,2.0,2.0,0.0,6.0,6.0,353.7043010001071,8.0,1.0,phase_2,go,750.0,900.0,1.0,,,,,,,,,orange,diamond
0.0,1.0,1.0,0.0,6.0,6.0,380.8068320004167,8.0,1.0,phase_2,go,750.0,900.0,1.0,,,,,,,,,cyan,cross
0.0,1.0,1.0,0.0,5.0,5.0,458.1127290002769,8.0,1.0,phase_2,go,750.0,900.0,1.0,,,,,,,,,cyan,cross
0.0,4.0,4.0,0.0,6.0,6.0,376.6851310001584,8.0,1.0,phase_2,go,750.0,900.0,1.0,,,,,,,,,magenta,square
0.0,4.0,4.0,0.0,5.0,5.0,384.6532979996482,8.0,1.0,phase_2,go,750.0,900.0,1.0,,,,,,,,,magenta,square
0.0,5.0,1.0,1.0,5.0,0.0,0.0,8.0,1.0,phase_2,stop,750.0,900.0,4.0,,,,,,,,,blue,circle
0.0,7.0,3.0,1.0,7.0,6.0,2855.0217149986565,1.0,1.0,phase_3,,,,,156.0,4.0,234.0,39.0,195.0,117.0,78.0,156.0,white,triangle
0.0,2.0,2.0,0.0,7.0,1.0,1890.052298998853,1.0,1.0,phase_3,,,,,39.0,1.0,39.0,234.0,156.0,117.0,195.0,78.0,orange,diamond
0.0,3.0,3.0,0.0,7.0,4.0,1623.979584999688,1.0,1.0,phase_3,,,,,220.0,5.0,44.0,88.0,132.0,220.0,176.0,264.0,yellow,hexagon
0.0,6.0,2.0,1.0,7.0,4.0,1654.301182999916,1.0,1.0,phase_3,,,,,54.0,1.0,216.0,162.0,270.0,54.0,108.0,324.0,gray,flipped triangle
0.0,2.0,2.0,0.0,7.0,4.0,1386.2568049989932,1.0,1.0,phase_3,,,,,234.0,6.0,156.0,39.0,195.0,234.0,78.0,117.0,orange,diamond
0.0,6.0,2.0,1.0,7.0,2.0,1590.6443949988898,1.0,1.0,phase_3,,,,,195.0,5.0,78.0,195.0,234.0,39.0,156.0,117.0,gray,flipped triangle
0.0,1.0,1.0,0.0,7.0,4.0,1532.8461070002961,1.0,1.0,phase_3,,,,,132.0,3.0,88.0,220.0,264.0,132.0,176.0,44.0,cyan,cross
0.0,6.0,2.0,1.0,7.0,2.0,1326.9217060005758,1.0,1.0,phase_3,,,,,54.0,1.0,324.0,54.0,108.0,216.0,162.0,270.0,gray,flipped triangle
0.0,6.0,2.0,1.0,7.0,2.0,945.764076001069,1.0,1.0,phase_3,,,,,49.0,1.0,147.0,49.0,98.0,294.0,196.0,245.0,gray,flipped triangle
0.0,3.0,3.0,0.0,7.0,4.0,1428.4389799995552,1.0,1.0,phase_3,,,,,204.0,6.0,136.0,34.0,170.0,204.0,102.0,68.0,yellow,hexagon
0.0,1.0,1.0,0.0,7.0,5.0,2219.2717279995118,1.0,1.0,phase_3,,,,,204.0,6.0,170.0,136.0,102.0,68.0,204.0,34.0,cyan,cross
0.0,1.0,1.0,0.0,7.0,3.0,1846.926046999215,1.0,1.0,phase_3,,,,,117.0,3.0,195.0,39.0,117.0,234.0,156.0,78.0,cyan,cross
0.0,6.0,2.0,1.0,7.0,1.0,1243.9382939992356,1.0,1.0,phase_3,,,,,39.0,1.0,39.0,156.0,117.0,78.0,234.0,195.0,gray,flipped triangle
0.0,4.0,4.0,0.0,7.0,6.0,1656.7162680003094,1.0,1.0,phase_3,,,,,220.0,5.0,176.0,44.0,264.0,88.0,132.0,220.0,magenta,square
0.0,5.0,1.0,1.0,7.0,2.0,1737.7108430009685,1.0,1.0,phase_3,,,,,196.0,4.0,294.0,196.0,49.0,245.0,147.0,98.0,blue,circle
0.0,6.0,2.0,1.0,7.0,3.0,1065.2630790009423,1.0,1.0,phase_3,,,,,68.0,2.0,136.0,204.0,68.0,170.0,34.0,102.0,gray,flipped triangle
0.0,2.0,2.0,0.0,7.0,2.0,1596.0846289999608,1.0,1.0,phase_3,,,,,196.0,4.0,147.0,196.0,49.0,245.0,98.0,294.0,orange,diamond
0.0,5.0,1.0,1.0,7.0,2.0,2335.0349140000617,1.0,1.0,phase_3,,,,,147.0,3.0,196.0,147.0,245.0,294.0,49.0,98.0,blue,circle
0.0,4.0,4.0,0.0,7.0,1.0,1801.6528749994905,1.0,1.0,phase_3,,,,,234.0,6.0,234.0,156.0,78.0,117.0,39.0,195.0,magenta,square
0.0,2.0,2.0,0.0,7.0,3.0,1507.1958560001804,1.0,1.0,phase_3,,,,,176.0,4.0,44.0,132.0,176.0,264.0,220.0,88.0,orange,diamond
0.0,5.0,1.0,1.0,7.0,3.0,1168.0625820008572,2.0,1.0,phase_3,,,,,220.0,5.0,88.0,264.0,220.0,176.0,44.0,132.0,blue,circle
0.0,5.0,1.0,1.0,7.0,6.0,929.3187669991312,2.0,1.0,phase_3,,,,,117.0,3.0,78.0,195.0,156.0,39.0,234.0,117.0,blue,circle
0.0,4.0,4.0,0.0,7.0,2.0,1130.3809889996046,2.0,1.0,phase_3,,,,,324.0,6.0,270.0,324.0,54.0,216.0,108.0,162.0,magenta,square
0.0,8.0,4.0,1.0,7.0,3.0,2578.6153210010525,2.0,1.0,phase_3,,,,,147.0,3.0,196.0,98.0,147.0,245.0,294.0,49.0,green,I
0.0,3.0,3.0,0.0,7.0,4.0,2889.004761000251,2.0,1.0,phase_3,,,,,196.0,4.0,49.0,147.0,245.0,196.0,294.0,98.0,yellow,hexagon
0.0,4.0,4.0,0.0,7.0,3.0,1504.5407329998852,2.0,1.0,phase_3,,,,,270.0,5.0,108.0,324.0,270.0,216.0,162.0,54.0,magenta,square
0.0,6.0,2.0,1.0,7.0,4.0,2272.523646000991,2.0,1.0,phase_3,,,,,88.0,2.0,132.0,44.0,264.0,88.0,176.0,220.0,gray,flipped triangle
0.0,4.0,4.0,0.0,7.0,5.0,2580.281569998988,2.0,1.0,phase_3,,,,,136.0,4.0,34.0,102.0,68.0,170.0,136.0,204.0,magenta,square
0.0,2.0,2.0,0.0,7.0,1.0,3056.112836000466,2.0,1.0,phase_3,,,,,170.0,5.0,170.0,68.0,34.0,136.0,204.0,102.0,orange,diamond
0.0,7.0,3.0,1.0,7.0,5.0,1223.7144600003376,2.0,1.0,phase_3,,,,,39.0,1.0,156.0,117.0,195.0,234.0,39.0,78.0,white,triangle
0.0,7.0,3.0,1.0,7.0,1.0,2465.9383769994747,2.0,1.0,phase_3,,,,,108.0,2.0,108.0,54.0,216.0,162.0,270.0,324.0,white,triangle
0.0,8.0,4.0,1.0,7.0,1.0,2044.738892000169,2.0,1.0,phase_3,,,,,102.0,3.0,102.0,136.0,34.0,170.0,68.0,204.0,green,I
0.0,7.0,3.0,1.0,7.0,1.0,2604.091872000936,2.0,1.0,phase_3,,,,,88.0,2.0,88.0,132.0,220.0,176.0,44.0,264.0,white,triangle
0.0,5.0,1.0,1.0,7.0,6.0,1939.8114169998732,2.0,1.0,phase_3,,,,,162.0,3.0,216.0,108.0,270.0,54.0,324.0,162.0,blue,circle
0.0,4.0,4.0,0.0,7.0,1.0,1222.628256000462,2.0,1.0,phase_3,,,,,294.0,6.0,294.0,196.0,49.0,147.0,98.0,245.0,magenta,square
0.0,8.0,4.0,1.0,7.0,3.0,2620.3472319994034,2.0,1.0,phase_3,,,,,108.0,2.0,324.0,54.0,108.0,162.0,216.0,270.0,green,I
0.0,8.0,4.0,1.0,7.0,3.0,1029.3667289988662,2.0,1.0,phase_3,,,,,102.0,3.0,136.0,204.0,102.0,68.0,34.0,170.0,green,I
0.0,7.0,3.0,1.0,7.0,6.0,3396.498582998902,2.0,1.0,phase_3,,,,,98.0,2.0,294.0,49.0,245.0,196.0,147.0,98.0,white,triangle
0.0,7.0,3.0,1.0,7.0,4.0,1749.1728049990345,2.0,1.0,phase_3,,,,,98.0,2.0,147.0,245.0,49.0,98.0,294.0,196.0,white,triangle
0.0,5.0,1.0,1.0,7.0,3.0,1214.614876998894,2.0,1.0,phase_3,,,,,102.0,3.0,136.0,170.0,102.0,68.0,34.0,204.0,blue,circle
0.0,3.0,3.0,0.0,7.0,4.0,1772.8453500003525,3.0,1.0,phase_3,,,,,270.0,5.0,162.0,324.0,54.0,270.0,108.0,216.0,yellow,hexagon
0.0,8.0,4.0,1.0,7.0,4.0,2466.2008129998867,3.0,1.0,phase_3,,,,,98.0,2.0,294.0,196.0,245.0,98.0,49.0,147.0,green,I
0.0,6.0,2.0,1.0,7.0,3.0,1964.9861800007784,3.0,1.0,phase_3,,,,,49.0,1.0,245.0,147.0,49.0,196.0,294.0,98.0,gray,flipped triangle
0.0,1.0,1.0,0.0,7.0,2.0,1515.3124459993703,3.0,1.0,phase_3,,,,,324.0,6.0,270.0,324.0,162.0,54.0,108.0,216.0,cyan,cross
0.0,1.0,1.0,0.0,7.0,6.0,2620.371041999533,3.0,1.0,phase_3,,,,,196.0,4.0,49.0,98.0,245.0,294.0,147.0,196.0,cyan,cross
0.0,3.0,3.0,0.0,7.0,2.0,2852.40910200082,3.0,1.0,phase_3,,,,,170.0,5.0,34.0,170.0,204.0,136.0,68.0,102.0,yellow,hexagon
0.0,2.0,2.0,0.0,7.0,5.0,1742.027116000827,3.0,1.0,phase_3,,,,,170.0,5.0,68.0,102.0,136.0,34.0,170.0,204.0,orange,diamond
0.0,7.0,3.0,1.0,7.0,3.0,2520.7379500006937,3.0,1.0,phase_3,,,,,88.0,2.0,264.0,220.0,88.0,132.0,44.0,176.0,white,triangle
0.0,5.0,1.0,1.0,7.0,4.0,2452.453862000766,3.0,1.0,phase_3,,,,,102.0,3.0,204.0,170.0,68.0,102.0,34.0,136.0,blue,circle
0.0,7.0,3.0,1.0,7.0,2.0,1890.332444998421,3.0,1.0,phase_3,,,,,102.0,3.0,68.0,102.0,34.0,136.0,170.0,204.0,white,triangle
0.0,3.0,3.0,0.0,7.0,2.0,881.013124000674,3.0,1.0,phase_3,,,,,264.0,6.0,88.0,264.0,132.0,220.0,44.0,176.0,yellow,hexagon
0.0,1.0,1.0,0.0,7.0,6.0,1977.2982729991784,3.0,1.0,phase_3,,,,,220.0,5.0,176.0,264.0,132.0,88.0,44.0,220.0,cyan,cross
0.0,3.0,3.0,0.0,7.0,4.0,1378.285582000899,3.0,1.0,phase_3,,,,,245.0,5.0,49.0,147.0,196.0,245.0,294.0,98.0,yellow,hexagon
0.0,1.0,1.0,0.0,7.0,4.0,2847.006102998421,3.0,1.0,phase_3,,,,,162.0,3.0,324.0,108.0,270.0,162.0,216.0,54.0,cyan,cross
0.0,4.0,4.0,0.0,7.0,2.0,1411.464173999775,3.0,1.0,phase_3,,,,,245.0,5.0,196.0,245.0,98.0,294.0,49.0,147.0,magenta,square
0.0,8.0,4.0,1.0,7.0,6.0,1313.145412999802,3.0,1.0,phase_3,,,,,88.0,2.0,44.0,176.0,220.0,264.0,132.0,88.0,green,I
0.0,7.0,3.0,1.0,7.0,4.0,1788.514899000802,3.0,1.0,phase_3,,,,,108.0,2.0,324.0,54.0,216.0,108.0,270.0,162.0,white,triangle
0.0,8.0,4.0,1.0,7.0,6.0,2104.0294019985595,3.0,1.0,phase_3,,,,,78.0,2.0,234.0,117.0,156.0,195.0,39.0,78.0,green,I
0.0,8.0,4.0,1.0,7.0,5.0,2564.0830370011827,3.0,1.0,phase_3,,,,,117.0,3.0,39.0,78.0,234.0,156.0,117.0,195.0,green,I
0.0,2.0,2.0,0.0,7.0,5.0,2317.0366390004347,3.0,1.0,phase_3,,,,,196.0,4.0,294.0,147.0,49.0,245.0,196.0,98.0,orange,diamond
0.0,1.0,1.0,0.0,7.0,4.0,2343.6474179998186,4.0,1.0,phase_3,,,,,196.0,4.0,49.0,98.0,294.0,196.0,147.0,245.0,cyan,cross
0.0,2.0,2.0,0.0,7.0,4.0,2031.8459099999018,4.0,1.0,phase_3,,,,,216.0,4.0,108.0,324.0,162.0,216.0,54.0,270.0,orange,diamond
0.0,3.0,3.0,0.0,7.0,5.0,2352.807307001058,4.0,1.0,phase_3,,,,,270.0,5.0,162.0,54.0,108.0,324.0,270.0,216.0,yellow,hexagon
0.0,1.0,1.0,0.0,7.0,2.0,3032.4402340011147,4.0,1.0,phase_3,,,,,195.0,5.0,39.0,195.0,156.0,78.0,117.0,234.0,cyan,cross
0.0,7.0,3.0,1.0,7.0,3.0,3194.5071289992484,4.0,1.0,phase_3,,,,,102.0,3.0,136.0,170.0,102.0,204.0,68.0,34.0,white,triangle
0.0,1.0,1.0,0.0,7.0,5.0,2428.954499999236,4.0,1.0,phase_3,,,,,136.0,4.0,102.0,68.0,204.0,170.0,136.0,34.0,cyan,cross
0.0,8.0,4.0,1.0,7.0,5.0,2160.3195709994907,4.0,1.0,phase_3,,,,,88.0,2.0,44.0,132.0,264.0,176.0,88.0,220.0,green,I
0.0,4.0,4.0,0.0,7.0,2.0,1833.9097989992297,4.0,1.0,phase_3,,,,,204.0,6.0,34.0,204.0,170.0,136.0,102.0,68.0,magenta,square
0.0,3.0,3.0,0.0,7.0,6.0,2641.0990140011563,4.0,1.0,phase_3,,,,,234.0,6.0,195.0,117.0,39.0,78.0,156.0,234.0,yellow,hexagon
0.0,4.0,4.0,0.0,7.0,6.0,2472.279057001288,4.0,1.0,phase_3,,,,,220.0,5.0,264.0,44.0,132.0,88.0,176.0,220.0,magenta,square
0.0,6.0,2.0,1.0,7.0,5.0,1627.164730000004,4.0,1.0,phase_3,,,,,34.0,1.0,170.0,204.0,68.0,136.0,34.0,102.0,gray,flipped triangle
0.0,6.0,2.0,1.0,7.0,5.0,3069.613878000382,4.0,1.0,phase_3,,,,,88.0,2.0,132.0,220.0,176.0,44.0,88.0,264.0,gray,flipped triangle
0.0,5.0,1.0,1.0,7.0,2.0,3323.394320001171,4.0,1.0,phase_3,,,,,162.0,3.0,216.0,162.0,54.0,270.0,108.0,324.0,blue,circle
0.0,5.0,1.0,1.0,7.0,6.0,2112.8483779993985,4.0,1.0,phase_3,,,,,156.0,4.0,117.0,234.0,39.0,78.0,195.0,156.0,blue,circle
0.0,2.0,2.0,0.0,7.0,3.0,3123.999482000727,4.0,1.0,phase_3,,,,,216.0,4.0,270.0,108.0,216.0,54.0,324.0,162.0,orange,diamond
0.0,4.0,4.0,0.0,7.0,5.0,1999.433766000948,4.0,1.0,phase_3,,,,,234.0,6.0,156.0,117.0,195.0,78.0,234.0,39.0,magenta,square
0.0,5.0,1.0,1.0,7.0,5.0,1955.987699000616,4.0,1.0,phase_3,,,,,132.0,3.0,88.0,220.0,264.0,44.0,132.0,176.0,blue,circle
0.0,2.0,2.0,0.0,7.0,6.0,1777.3672550010815,4.0,1.0,phase_3,,,,,220.0,5.0,44.0,176.0,132.0,88.0,264.0,220.0,orange,diamond
0.0,8.0,4.0,1.0,7.0,5.0,1441.9361320015014,4.0,1.0,phase_3,,,,,108.0,2.0,216.0,162.0,54.0,270.0,108.0,324.0,green,I
0.0,3.0,3.0,0.0,7.0,5.0,2270.9955950012954,4.0,1.0,phase_3,,,,,117.0,3.0,234.0,39.0,195.0,78.0,117.0,156.0,yellow,hexagon
