raw_reward_magnitude,stim_reward,stepwise_reward_magnitude,paired_with_stopping,quadrant,response,reaction_time,block,num_trial_presentations,which_part,stop_signal_trial_type,left_SSD,right_SSD,accuracy,chosen_bidding_amount,chosen_bidding_level,possible_bid_1,possible_bid_2,possible_bid_3,possible_bid_4,possible_bid_5,possible_bid_6,color_text,shape_text
26.0,5.0,1.0,1.0,4.0,4.0,429.1234940001232,1.0,1.0,part_1,,,,,,,,,,,,,white,I
117.0,2.0,2.0,0.0,3.0,3.0,379.2528349999884,1.0,1.0,part_1,,,,,,,,,,,,,orange,diamond
44.0,5.0,1.0,1.0,1.0,1.0,272.8998750003484,1.0,1.0,part_1,,,,,,,,,,,,,white,I
376.0,4.0,4.0,0.0,1.0,1.0,294.9039380000613,1.0,1.0,part_1,,,,,,,,,,,,,green,triangle
41.0,5.0,1.0,1.0,1.0,1.0,269.2672570001377,1.0,1.0,part_1,,,,,,,,,,,,,white,I
88.0,2.0,2.0,0.0,2.0,2.0,286.4954429996942,1.0,1.0,part_1,,,,,,,,,,,,,orange,diamond
0.0,3.0,0.0,0.0,2.0,2.0,295.8859809996284,1.0,1.0,part_1,,,,,,,,,,,,,blue,square
29.0,1.0,1.0,0.0,2.0,2.0,283.1169010000849,1.0,1.0,part_1,,,,,,,,,,,,,cyan,cross
410.0,8.0,4.0,1.0,1.0,1.0,276.4692280002236,1.0,1.0,part_1,,,,,,,,,,,,,gray,circle
99.0,6.0,2.0,1.0,4.0,4.0,303.8484369999423,1.0,1.0,part_1,,,,,,,,,,,,,yellow,flipped triangle
72.0,1.0,1.0,0.0,3.0,3.0,327.9289469996911,1.0,1.0,part_1,,,,,,,,,,,,,cyan,cross
66.0,1.0,1.0,0.0,4.0,4.0,295.0674499998058,1.0,1.0,part_1,,,,,,,,,,,,,cyan,cross
120.0,2.0,2.0,0.0,1.0,1.0,263.3107760002531,1.0,1.0,part_1,,,,,,,,,,,,,orange,diamond
104.0,6.0,2.0,1.0,1.0,1.0,252.3448929996448,1.0,1.0,part_1,,,,,,,,,,,,,yellow,flipped triangle
194.0,3.0,3.0,0.0,2.0,2.0,306.5981009999632,1.0,1.0,part_1,,,,,,,,,,,,,blue,square
87.0,6.0,2.0,1.0,4.0,4.0,280.4743040001085,1.0,1.0,part_1,,,,,,,,,,,,,yellow,flipped triangle
0.0,8.0,0.0,1.0,2.0,2.0,302.811479000411,1.0,1.0,part_1,,,,,,,,,,,,,gray,circle
0.0,4.0,0.0,0.0,4.0,4.0,288.178415999937,1.0,1.0,part_1,,,,,,,,,,,,,green,triangle
94.0,6.0,2.0,1.0,3.0,3.0,299.6252679999998,1.0,1.0,part_1,,,,,,,,,,,,,yellow,flipped triangle
0.0,6.0,0.0,1.0,1.0,1.0,266.4381110002978,1.0,1.0,part_1,,,,,,,,,,,,,yellow,flipped triangle
121.0,2.0,2.0,0.0,3.0,3.0,302.4508909998076,1.0,1.0,part_1,,,,,,,,,,,,,orange,diamond
106.0,2.0,2.0,0.0,1.0,1.0,285.9262080000917,1.0,1.0,part_1,,,,,,,,,,,,,orange,diamond
0.0,5.0,0.0,1.0,1.0,1.0,274.9935310002911,1.0,1.0,part_1,,,,,,,,,,,,,white,I
94.0,2.0,2.0,0.0,1.0,1.0,276.0394970000561,1.0,1.0,part_1,,,,,,,,,,,,,orange,diamond
192.0,7.0,3.0,1.0,4.0,4.0,280.487475999962,1.0,1.0,part_1,,,,,,,,,,,,,magenta,hexagon
376.0,8.0,4.0,1.0,1.0,1.0,262.8571489999558,1.0,1.0,part_1,,,,,,,,,,,,,gray,circle
414.0,8.0,4.0,1.0,2.0,2.0,302.0963710000615,1.0,1.0,part_1,,,,,,,,,,,,,gray,circle
28.0,1.0,1.0,0.0,4.0,4.0,308.0463539999982,1.0,1.0,part_1,,,,,,,,,,,,,cyan,cross
206.0,7.0,3.0,1.0,4.0,4.0,323.5168559999692,1.0,1.0,part_1,,,,,,,,,,,,,magenta,hexagon
31.0,1.0,1.0,0.0,1.0,1.0,264.4413770003666,1.0,1.0,part_1,,,,,,,,,,,,,cyan,cross
75.0,2.0,2.0,0.0,4.0,4.0,275.8278899996185,1.0,1.0,part_1,,,,,,,,,,,,,orange,diamond
42.0,1.0,1.0,0.0,1.0,1.0,285.9642989997155,1.0,1.0,part_1,,,,,,,,,,,,,cyan,cross
393.0,4.0,4.0,0.0,3.0,3.0,288.3809740001197,1.0,1.0,part_1,,,,,,,,,,,,,green,triangle
424.0,8.0,4.0,1.0,2.0,2.0,290.5612300000939,1.0,1.0,part_1,,,,,,,,,,,,,gray,circle
384.0,4.0,4.0,0.0,2.0,2.0,299.5758110000679,1.0,1.0,part_1,,,,,,,,,,,,,green,triangle
424.0,4.0,4.0,0.0,3.0,3.0,356.7187019998528,1.0,1.0,part_1,,,,,,,,,,,,,green,triangle
388.0,8.0,4.0,1.0,2.0,2.0,281.2725339999815,1.0,1.0,part_1,,,,,,,,,,,,,gray,circle
199.0,7.0,3.0,1.0,1.0,1.0,249.0233449998413,1.0,1.0,part_1,,,,,,,,,,,,,magenta,hexagon
119.0,6.0,2.0,1.0,2.0,2.0,211.0392210001919,1.0,1.0,part_1,,,,,,,,,,,,,yellow,flipped triangle
113.0,6.0,2.0,1.0,3.0,3.0,247.6002190001054,1.0,1.0,part_1,,,,,,,,,,,,,yellow,flipped triangle
192.0,7.0,3.0,1.0,2.0,2.0,279.7980519999328,1.0,1.0,part_1,,,,,,,,,,,,,magenta,hexagon
72.0,5.0,1.0,1.0,3.0,3.0,293.2943760001762,1.0,1.0,part_1,,,,,,,,,,,,,white,I
199.0,3.0,3.0,0.0,2.0,2.0,271.6967729998032,1.0,1.0,part_1,,,,,,,,,,,,,blue,square
216.0,3.0,3.0,0.0,1.0,1.0,235.7495629998993,1.0,1.0,part_1,,,,,,,,,,,,,blue,square
59.0,1.0,1.0,0.0,2.0,2.0,295.1153149997481,1.0,1.0,part_1,,,,,,,,,,,,,cyan,cross
75.0,1.0,1.0,0.0,4.0,4.0,272.0948400001362,1.0,1.0,part_1,,,,,,,,,,,,,cyan,cross
194.0,7.0,3.0,1.0,2.0,2.0,234.9636199996894,1.0,1.0,part_1,,,,,,,,,,,,,magenta,hexagon
0.0,5.0,0.0,1.0,4.0,4.0,331.8224999998165,1.0,1.0,part_1,,,,,,,,,,,,,white,I
396.0,8.0,4.0,1.0,3.0,3.0,272.6706939997712,1.0,1.0,part_1,,,,,,,,,,,,,gray,circle
180.0,3.0,3.0,0.0,1.0,1.0,248.2130489997871,1.0,1.0,part_1,,,,,,,,,,,,,blue,square
206.0,3.0,3.0,0.0,4.0,4.0,273.5345229998529,1.0,1.0,part_1,,,,,,,,,,,,,blue,square
96.0,2.0,2.0,0.0,3.0,3.0,283.9874840001357,1.0,1.0,part_1,,,,,,,,,,,,,orange,diamond
0.0,1.0,0.0,0.0,3.0,3.0,374.8711989996991,1.0,1.0,part_1,,,,,,,,,,,,,cyan,cross
217.0,3.0,3.0,0.0,4.0,4.0,308.1912070001635,1.0,1.0,part_1,,,,,,,,,,,,,blue,square
62.0,5.0,1.0,1.0,1.0,1.0,334.037759000239,1.0,1.0,part_1,,,,,,,,,,,,,white,I
400.0,8.0,4.0,1.0,4.0,4.0,305.3523079997831,1.0,1.0,part_1,,,,,,,,,,,,,gray,circle
0.0,2.0,0.0,0.0,2.0,2.0,274.8358389999339,1.0,1.0,part_1,,,,,,,,,,,,,orange,diamond
32.0,1.0,1.0,0.0,2.0,2.0,255.60568300033992,1.0,1.0,part_1,,,,,,,,,,,,,cyan,cross
384.0,8.0,4.0,1.0,1.0,1.0,256.7032779998044,1.0,1.0,part_1,,,,,,,,,,,,,gray,circle
410.0,4.0,4.0,0.0,3.0,3.0,305.4166440001609,1.0,1.0,part_1,,,,,,,,,,,,,green,triangle
0.0,4.0,0.0,0.0,3.0,3.0,489.9910179997278,1.0,1.0,part_1,,,,,,,,,,,,,green,triangle
397.0,4.0,4.0,0.0,3.0,3.0,298.3129320000444,1.0,1.0,part_1,,,,,,,,,,,,,green,triangle
0.0,1.0,0.0,0.0,2.0,2.0,274.0834189999077,1.0,1.0,part_1,,,,,,,,,,,,,cyan,cross
419.0,8.0,4.0,1.0,4.0,4.0,323.2548860000861,1.0,1.0,part_1,,,,,,,,,,,,,gray,circle
414.0,8.0,4.0,1.0,3.0,3.0,320.3491250001207,1.0,1.0,part_1,,,,,,,,,,,,,gray,circle
102.0,2.0,2.0,0.0,4.0,4.0,281.7175900004258,1.0,1.0,part_1,,,,,,,,,,,,,orange,diamond
414.0,4.0,4.0,0.0,1.0,1.0,248.4081360003074,1.0,1.0,part_1,,,,,,,,,,,,,green,triangle
50.0,1.0,1.0,0.0,2.0,2.0,294.0729689998989,1.0,1.0,part_1,,,,,,,,,,,,,cyan,cross
192.0,3.0,3.0,0.0,3.0,3.0,275.9966319999876,1.0,1.0,part_1,,,,,,,,,,,,,blue,square
398.0,8.0,4.0,1.0,2.0,2.0,233.5359590001644,1.0,1.0,part_1,,,,,,,,,,,,,gray,circle
77.0,2.0,2.0,0.0,4.0,4.0,325.772071999836,1.0,1.0,part_1,,,,,,,,,,,,,orange,diamond
113.0,2.0,2.0,0.0,2.0,2.0,283.2409229999939,1.0,1.0,part_1,,,,,,,,,,,,,orange,diamond
179.0,3.0,3.0,0.0,3.0,3.0,307.9719709999153,1.0,1.0,part_1,,,,,,,,,,,,,blue,square
389.0,4.0,4.0,0.0,3.0,3.0,374.5047659999727,1.0,1.0,part_1,,,,,,,,,,,,,green,triangle
0.0,2.0,0.0,0.0,1.0,1.0,301.9205959999453,1.0,1.0,part_1,,,,,,,,,,,,,orange,diamond
410.0,8.0,4.0,1.0,3.0,3.0,302.8463919999922,1.0,1.0,part_1,,,,,,,,,,,,,gray,circle
217.0,7.0,3.0,1.0,2.0,2.0,325.4608830002325,1.0,1.0,part_1,,,,,,,,,,,,,magenta,hexagon
42.0,5.0,1.0,1.0,2.0,2.0,289.5060870000634,1.0,1.0,part_1,,,,,,,,,,,,,white,I
48.0,5.0,1.0,1.0,3.0,3.0,330.9952969998448,1.0,1.0,part_1,,,,,,,,,,,,,white,I
0.0,5.0,0.0,1.0,2.0,2.0,245.3451279998262,1.0,1.0,part_1,,,,,,,,,,,,,white,I
0.0,6.0,0.0,1.0,4.0,4.0,333.886134000295,1.0,2.0,part_1,,,,,,,,,,,,,yellow,flipped triangle
0.0,7.0,0.0,1.0,4.0,4.0,276.7093279999244,1.0,1.0,part_1,,,,,,,,,,,,,magenta,hexagon
0.0,6.0,0.0,1.0,1.0,1.0,278.52887500012,1.0,1.0,part_1,,,,,,,,,,,,,yellow,flipped triangle
391.0,4.0,4.0,0.0,1.0,1.0,290.6372679999549,1.0,1.0,part_1,,,,,,,,,,,,,green,triangle
81.0,2.0,2.0,0.0,1.0,1.0,278.0484229997455,1.0,1.0,part_1,,,,,,,,,,,,,orange,diamond
117.0,6.0,2.0,1.0,2.0,2.0,274.3195820003166,1.0,1.0,part_1,,,,,,,,,,,,,yellow,flipped triangle
60.0,5.0,1.0,1.0,2.0,2.0,297.1482550001383,1.0,1.0,part_1,,,,,,,,,,,,,white,I
391.0,8.0,4.0,1.0,4.0,4.0,307.2444299996277,1.0,1.0,part_1,,,,,,,,,,,,,gray,circle
0.0,6.0,0.0,1.0,4.0,4.0,341.8576190001658,1.0,1.0,part_1,,,,,,,,,,,,,yellow,flipped triangle
202.0,3.0,3.0,0.0,3.0,3.0,316.94883599993767,1.0,2.0,part_1,,,,,,,,,,,,,blue,square
400.0,4.0,4.0,0.0,3.0,3.0,314.9856509999154,1.0,1.0,part_1,,,,,,,,,,,,,green,triangle
194.0,3.0,3.0,0.0,1.0,1.0,287.2173920000023,1.0,1.0,part_1,,,,,,,,,,,,,blue,square
410.0,4.0,4.0,0.0,4.0,4.0,323.2711589998871,1.0,1.0,part_1,,,,,,,,,,,,,green,triangle
385.0,8.0,4.0,1.0,1.0,1.0,275.0689710001097,1.0,1.0,part_1,,,,,,,,,,,,,gray,circle
87.0,2.0,2.0,0.0,2.0,2.0,298.0316079997465,1.0,1.0,part_1,,,,,,,,,,,,,orange,diamond
0.0,2.0,0.0,0.0,3.0,3.0,325.6007899999531,1.0,1.0,part_1,,,,,,,,,,,,,orange,diamond
106.0,6.0,2.0,1.0,2.0,2.0,316.3149269998939,1.0,1.0,part_1,,,,,,,,,,,,,yellow,flipped triangle
38.0,1.0,1.0,0.0,3.0,3.0,542.0908390001387,1.0,1.0,part_1,,,,,,,,,,,,,cyan,cross
75.0,6.0,2.0,1.0,3.0,3.0,338.2511470003919,1.0,1.0,part_1,,,,,,,,,,,,,yellow,flipped triangle
176.0,7.0,3.0,1.0,4.0,4.0,308.7404709999646,1.0,1.0,part_1,,,,,,,,,,,,,magenta,hexagon
91.0,6.0,2.0,1.0,2.0,2.0,321.3927599999806,2.0,1.0,part_1,,,,,,,,,,,,,yellow,flipped triangle
181.0,7.0,3.0,1.0,2.0,2.0,291.360259999692,2.0,1.0,part_1,,,,,,,,,,,,,magenta,hexagon
108.0,2.0,2.0,0.0,4.0,4.0,286.0264830001142,2.0,1.0,part_1,,,,,,,,,,,,,orange,diamond
194.0,7.0,3.0,1.0,4.0,4.0,308.3807259999958,2.0,1.0,part_1,,,,,,,,,,,,,magenta,hexagon
0.0,3.0,0.0,0.0,3.0,3.0,341.5380390001701,2.0,1.0,part_1,,,,,,,,,,,,,blue,square
184.0,7.0,3.0,1.0,4.0,4.0,314.5138760000918,2.0,1.0,part_1,,,,,,,,,,,,,magenta,hexagon
208.0,7.0,3.0,1.0,1.0,1.0,297.7174900001955,2.0,1.0,part_1,,,,,,,,,,,,,magenta,hexagon
425.0,4.0,4.0,0.0,4.0,4.0,292.2857290000138,2.0,1.0,part_1,,,,,,,,,,,,,green,triangle
214.0,7.0,3.0,1.0,3.0,3.0,480.2019560002009,2.0,1.0,part_1,,,,,,,,,,,,,magenta,hexagon
86.0,2.0,2.0,0.0,4.0,4.0,312.1537120000539,2.0,1.0,part_1,,,,,,,,,,,,,orange,diamond
46.0,1.0,1.0,0.0,1.0,1.0,283.7227130003157,2.0,1.0,part_1,,,,,,,,,,,,,cyan,cross
380.0,8.0,4.0,1.0,3.0,3.0,286.1903269999857,2.0,1.0,part_1,,,,,,,,,,,,,gray,circle
107.0,2.0,2.0,0.0,3.0,3.0,347.1678129999418,2.0,1.0,part_1,,,,,,,,,,,,,orange,diamond
379.0,8.0,4.0,1.0,1.0,1.0,326.5767009997944,2.0,1.0,part_1,,,,,,,,,,,,,gray,circle
121.0,6.0,2.0,1.0,4.0,4.0,307.3490889996719,2.0,1.0,part_1,,,,,,,,,,,,,yellow,flipped triangle
195.0,7.0,3.0,1.0,1.0,1.0,271.3737539997964,2.0,1.0,part_1,,,,,,,,,,,,,magenta,hexagon
0.0,8.0,0.0,1.0,2.0,2.0,340.2688119999766,2.0,1.0,part_1,,,,,,,,,,,,,gray,circle
0.0,4.0,0.0,0.0,2.0,2.0,349.7501560000273,2.0,1.0,part_1,,,,,,,,,,,,,green,triangle
56.0,5.0,1.0,1.0,1.0,1.0,305.1556049999817,2.0,1.0,part_1,,,,,,,,,,,,,white,I
0.0,7.0,0.0,1.0,2.0,2.0,331.0350169999765,2.0,1.0,part_1,,,,,,,,,,,,,magenta,hexagon
418.0,8.0,4.0,1.0,2.0,2.0,379.7563950001859,2.0,1.0,part_1,,,,,,,,,,,,,gray,circle
98.0,2.0,2.0,0.0,4.0,4.0,411.2932810003258,2.0,1.0,part_1,,,,,,,,,,,,,orange,diamond
113.0,2.0,2.0,0.0,1.0,1.0,266.3301239999782,2.0,1.0,part_1,,,,,,,,,,,,,orange,diamond
0.0,8.0,0.0,1.0,3.0,3.0,472.9908000003888,2.0,1.0,part_1,,,,,,,,,,,,,gray,circle
0.0,8.0,0.0,1.0,4.0,4.0,286.0834829998566,2.0,1.0,part_1,,,,,,,,,,,,,gray,circle
406.0,8.0,4.0,1.0,2.0,2.0,302.188111000305,2.0,1.0,part_1,,,,,,,,,,,,,gray,circle
410.0,8.0,4.0,1.0,1.0,1.0,299.6161070000198,2.0,1.0,part_1,,,,,,,,,,,,,gray,circle
387.0,4.0,4.0,0.0,2.0,2.0,331.014752000101,2.0,1.0,part_1,,,,,,,,,,,,,green,triangle
26.0,1.0,1.0,0.0,1.0,1.0,286.4923299998736,2.0,1.0,part_1,,,,,,,,,,,,,cyan,cross
192.0,3.0,3.0,0.0,4.0,4.0,335.7956730001206,2.0,1.0,part_1,,,,,,,,,,,,,blue,square
39.0,5.0,1.0,1.0,2.0,2.0,297.7950659997077,2.0,1.0,part_1,,,,,,,,,,,,,white,I
60.0,5.0,1.0,1.0,3.0,3.0,346.5805579999141,2.0,1.0,part_1,,,,,,,,,,,,,white,I
406.0,8.0,4.0,1.0,2.0,2.0,296.5203240000846,2.0,1.0,part_1,,,,,,,,,,,,,gray,circle
0.0,6.0,0.0,1.0,2.0,2.0,318.4737850001511,2.0,1.0,part_1,,,,,,,,,,,,,yellow,flipped triangle
179.0,7.0,3.0,1.0,1.0,1.0,314.0566160000162,2.0,1.0,part_1,,,,,,,,,,,,,magenta,hexagon
211.0,3.0,3.0,0.0,4.0,4.0,281.5835019996484,2.0,1.0,part_1,,,,,,,,,,,,,blue,square
123.0,6.0,2.0,1.0,2.0,2.0,270.6281729997499,2.0,1.0,part_1,,,,,,,,,,,,,yellow,flipped triangle
406.0,4.0,4.0,0.0,1.0,1.0,230.3154759997596,2.0,1.0,part_1,,,,,,,,,,,,,green,triangle
379.0,4.0,4.0,0.0,2.0,2.0,281.2286620001032,2.0,1.0,part_1,,,,,,,,,,,,,green,triangle
193.0,3.0,3.0,0.0,4.0,4.0,303.1933480001498,2.0,1.0,part_1,,,,,,,,,,,,,blue,square
29.0,5.0,1.0,1.0,2.0,2.0,278.2691539996449,2.0,1.0,part_1,,,,,,,,,,,,,white,I
380.0,8.0,4.0,1.0,3.0,3.0,284.9958290003087,2.0,1.0,part_1,,,,,,,,,,,,,gray,circle
417.0,8.0,4.0,1.0,2.0,2.0,244.4518629999947,2.0,1.0,part_1,,,,,,,,,,,,,gray,circle
77.0,6.0,2.0,1.0,1.0,1.0,242.8669930000069,2.0,1.0,part_1,,,,,,,,,,,,,yellow,flipped triangle
77.0,2.0,2.0,0.0,4.0,4.0,248.4310939998977,2.0,1.0,part_1,,,,,,,,,,,,,orange,diamond
58.0,1.0,1.0,0.0,1.0,1.0,282.6282379996883,2.0,1.0,part_1,,,,,,,,,,,,,cyan,cross
193.0,7.0,3.0,1.0,1.0,1.0,281.0769469997467,2.0,1.0,part_1,,,,,,,,,,,,,magenta,hexagon
49.0,1.0,1.0,0.0,2.0,2.0,283.4921360004045,2.0,1.0,part_1,,,,,,,,,,,,,cyan,cross
0.0,5.0,0.0,1.0,2.0,2.0,282.7067540001735,2.0,1.0,part_1,,,,,,,,,,,,,white,I
189.0,3.0,3.0,0.0,2.0,2.0,292.9933819996222,2.0,1.0,part_1,,,,,,,,,,,,,blue,square
0.0,2.0,0.0,0.0,1.0,1.0,297.9894009999952,2.0,1.0,part_1,,,,,,,,,,,,,orange,diamond
417.0,4.0,4.0,0.0,3.0,3.0,307.8735419999248,2.0,1.0,part_1,,,,,,,,,,,,,green,triangle
391.0,4.0,4.0,0.0,1.0,1.0,259.9159549999967,2.0,2.0,part_1,,,,,,,,,,,,,green,triangle
102.0,6.0,2.0,1.0,3.0,3.0,429.8983879998559,2.0,1.0,part_1,,,,,,,,,,,,,yellow,flipped triangle
99.0,2.0,2.0,0.0,3.0,3.0,341.4217069998813,2.0,1.0,part_1,,,,,,,,,,,,,orange,diamond
116.0,6.0,2.0,1.0,4.0,4.0,343.8527060002343,2.0,1.0,part_1,,,,,,,,,,,,,yellow,flipped triangle
0.0,4.0,0.0,0.0,1.0,1.0,305.35959000008,2.0,1.0,part_1,,,,,,,,,,,,,green,triangle
70.0,5.0,1.0,1.0,1.0,1.0,297.2668689999409,2.0,1.0,part_1,,,,,,,,,,,,,white,I
123.0,2.0,2.0,0.0,3.0,3.0,429.6362820000468,2.0,1.0,part_1,,,,,,,,,,,,,orange,diamond
0.0,7.0,0.0,1.0,4.0,4.0,324.0757499997926,2.0,1.0,part_1,,,,,,,,,,,,,magenta,hexagon
388.0,4.0,4.0,0.0,1.0,1.0,275.012283000251,2.0,1.0,part_1,,,,,,,,,,,,,green,triangle
77.0,6.0,2.0,1.0,4.0,4.0,301.0022720000052,2.0,1.0,part_1,,,,,,,,,,,,,yellow,flipped triangle
202.0,7.0,3.0,1.0,1.0,1.0,314.5946090003235,2.0,1.0,part_1,,,,,,,,,,,,,magenta,hexagon
414.0,4.0,4.0,0.0,1.0,1.0,314.1565959999752,2.0,1.0,part_1,,,,,,,,,,,,,green,triangle
392.0,8.0,4.0,1.0,3.0,3.0,424.870404000103,2.0,1.0,part_1,,,,,,,,,,,,,gray,circle
202.0,7.0,3.0,1.0,1.0,1.0,283.8480169998547,2.0,1.0,part_1,,,,,,,,,,,,,magenta,hexagon
0.0,2.0,0.0,0.0,1.0,1.0,275.312754999959,2.0,1.0,part_1,,,,,,,,,,,,,orange,diamond
72.0,5.0,1.0,1.0,2.0,2.0,318.3252030003132,2.0,1.0,part_1,,,,,,,,,,,,,white,I
0.0,1.0,0.0,0.0,2.0,2.0,329.6626850001303,2.0,1.0,part_1,,,,,,,,,,,,,cyan,cross
66.0,5.0,1.0,1.0,4.0,4.0,318.9127190003091,2.0,2.0,part_1,,,,,,,,,,,,,white,I
185.0,7.0,3.0,1.0,2.0,2.0,348.17632100021,2.0,1.0,part_1,,,,,,,,,,,,,magenta,hexagon
206.0,7.0,3.0,1.0,3.0,3.0,403.27009599968727,2.0,1.0,part_1,,,,,,,,,,,,,magenta,hexagon
396.0,4.0,4.0,0.0,2.0,2.0,305.6104600000253,2.0,1.0,part_1,,,,,,,,,,,,,green,triangle
57.0,1.0,1.0,0.0,3.0,3.0,405.1996130001498,2.0,1.0,part_1,,,,,,,,,,,,,cyan,cross
391.0,8.0,4.0,1.0,4.0,4.0,331.199215000197,2.0,1.0,part_1,,,,,,,,,,,,,gray,circle
200.0,7.0,3.0,1.0,3.0,3.0,470.2108120000048,2.0,1.0,part_1,,,,,,,,,,,,,magenta,hexagon
0.0,1.0,0.0,0.0,4.0,4.0,358.0861729997195,2.0,1.0,part_1,,,,,,,,,,,,,cyan,cross
418.0,4.0,4.0,0.0,2.0,2.0,307.9478670001663,2.0,1.0,part_1,,,,,,,,,,,,,green,triangle
87.0,2.0,2.0,0.0,1.0,1.0,290.0903009999638,2.0,1.0,part_1,,,,,,,,,,,,,orange,diamond
91.0,6.0,2.0,1.0,1.0,1.0,318.0474130003858,2.0,1.0,part_1,,,,,,,,,,,,,yellow,flipped triangle
119.0,6.0,2.0,1.0,2.0,2.0,306.6086210001231,2.0,1.0,part_1,,,,,,,,,,,,,yellow,flipped triangle
38.0,5.0,1.0,1.0,3.0,3.0,383.6771520000184,2.0,1.0,part_1,,,,,,,,,,,,,white,I
397.0,8.0,4.0,1.0,3.0,3.0,368.3813469997403,2.0,1.0,part_1,,,,,,,,,,,,,gray,circle
121.0,2.0,2.0,0.0,2.0,2.0,342.4872109999342,2.0,1.0,part_1,,,,,,,,,,,,,orange,diamond
106.0,6.0,2.0,1.0,4.0,4.0,366.5500419997443,2.0,1.0,part_1,,,,,,,,,,,,,yellow,flipped triangle
0.0,1.0,0.0,0.0,3.0,3.0,384.469394000007,2.0,1.0,part_1,,,,,,,,,,,,,cyan,cross
218.0,3.0,3.0,0.0,1.0,1.0,391.4357980002023,2.0,1.0,part_1,,,,,,,,,,,,,blue,square
218.0,3.0,3.0,0.0,2.0,2.0,304.9916599998141,2.0,1.0,part_1,,,,,,,,,,,,,blue,square
178.0,7.0,3.0,1.0,3.0,3.0,346.5377930001523,2.0,1.0,part_1,,,,,,,,,,,,,magenta,hexagon
185.0,3.0,3.0,0.0,2.0,2.0,327.3914149999655,2.0,2.0,part_1,,,,,,,,,,,,,blue,square
0.0,3.0,0.0,0.0,4.0,4.0,320.3411200001937,2.0,1.0,part_1,,,,,,,,,,,,,blue,square
195.0,3.0,3.0,0.0,3.0,3.0,353.894690999823,2.0,1.0,part_1,,,,,,,,,,,,,blue,square
0.0,8.0,0.0,1.0,3.0,3.0,433.8745449999805,2.0,1.0,part_1,,,,,,,,,,,,,gray,circle
402.0,4.0,4.0,0.0,1.0,1.0,335.6527010000718,2.0,1.0,part_1,,,,,,,,,,,,,green,triangle
0.0,3.0,0.0,0.0,2.0,2.0,315.0920389998646,2.0,1.0,part_1,,,,,,,,,,,,,blue,square
112.0,2.0,2.0,0.0,1.0,1.0,307.6415810000981,2.0,1.0,part_1,,,,,,,,,,,,,orange,diamond
401.0,4.0,4.0,0.0,2.0,2.0,312.5410299999203,2.0,1.0,part_1,,,,,,,,,,,,,green,triangle
222.0,3.0,3.0,0.0,4.0,4.0,299.4701299999178,2.0,1.0,part_1,,,,,,,,,,,,,blue,square
31.0,5.0,1.0,1.0,3.0,3.0,667.0748319997983,2.0,1.0,part_1,,,,,,,,,,,,,white,I
78.0,6.0,2.0,1.0,1.0,1.0,347.5110789995597,2.0,1.0,part_1,,,,,,,,,,,,,yellow,flipped triangle
39.0,1.0,1.0,0.0,2.0,2.0,305.9079519998704,3.0,1.0,part_1,,,,,,,,,,,,,cyan,cross
33.0,5.0,1.0,1.0,4.0,4.0,370.9282889999485,3.0,2.0,part_1,,,,,,,,,,,,,white,I
0.0,3.0,0.0,0.0,3.0,3.0,300.4765369996676,3.0,1.0,part_1,,,,,,,,,,,,,blue,square
0.0,3.0,0.0,0.0,4.0,4.0,265.5713819999619,3.0,1.0,part_1,,,,,,,,,,,,,blue,square
424.0,8.0,4.0,1.0,2.0,2.0,295.9824590002426,3.0,1.0,part_1,,,,,,,,,,,,,gray,circle
406.0,4.0,4.0,0.0,2.0,2.0,291.5795709996018,3.0,1.0,part_1,,,,,,,,,,,,,green,triangle
178.0,3.0,3.0,0.0,4.0,4.0,293.5331220000989,3.0,1.0,part_1,,,,,,,,,,,,,blue,square
0.0,7.0,0.0,1.0,4.0,4.0,297.6363249999849,3.0,1.0,part_1,,,,,,,,,,,,,magenta,hexagon
189.0,7.0,3.0,1.0,4.0,4.0,308.6464769999111,3.0,1.0,part_1,,,,,,,,,,,,,magenta,hexagon
401.0,8.0,4.0,1.0,3.0,3.0,347.7289140000721,3.0,2.0,part_1,,,,,,,,,,,,,gray,circle
95.0,6.0,2.0,1.0,2.0,2.0,278.1469599999582,3.0,1.0,part_1,,,,,,,,,,,,,yellow,flipped triangle
220.0,7.0,3.0,1.0,1.0,1.0,283.488251000108,3.0,1.0,part_1,,,,,,,,,,,,,magenta,hexagon
0.0,2.0,0.0,0.0,2.0,2.0,341.4273789999242,3.0,1.0,part_1,,,,,,,,,,,,,orange,diamond
48.0,1.0,1.0,0.0,1.0,1.0,351.0116800002834,3.0,1.0,part_1,,,,,,,,,,,,,cyan,cross
0.0,3.0,0.0,0.0,4.0,4.0,320.5353160001323,3.0,1.0,part_1,,,,,,,,,,,,,blue,square
0.0,5.0,0.0,1.0,1.0,1.0,369.1904869997415,3.0,1.0,part_1,,,,,,,,,,,,,white,I
33.0,5.0,1.0,1.0,2.0,2.0,288.3340519997546,3.0,1.0,part_1,,,,,,,,,,,,,white,I
376.0,8.0,4.0,1.0,3.0,3.0,309.142490999875,3.0,1.0,part_1,,,,,,,,,,,,,gray,circle
207.0,7.0,3.0,1.0,1.0,1.0,289.4049729998187,3.0,1.0,part_1,,,,,,,,,,,,,magenta,hexagon
49.0,5.0,1.0,1.0,4.0,4.0,316.5174270002353,3.0,1.0,part_1,,,,,,,,,,,,,white,I
46.0,5.0,1.0,1.0,4.0,4.0,296.6904230002001,3.0,1.0,part_1,,,,,,,,,,,,,white,I
120.0,2.0,2.0,0.0,3.0,3.0,349.3031410002913,3.0,2.0,part_1,,,,,,,,,,,,,orange,diamond
199.0,7.0,3.0,1.0,3.0,3.0,368.8897880001605,3.0,1.0,part_1,,,,,,,,,,,,,magenta,hexagon
425.0,8.0,4.0,1.0,4.0,4.0,345.55741999975,3.0,1.0,part_1,,,,,,,,,,,,,gray,circle
100.0,2.0,2.0,0.0,4.0,4.0,301.42399399983327,3.0,1.0,part_1,,,,,,,,,,,,,orange,diamond
424.0,4.0,4.0,0.0,4.0,4.0,317.3705609997341,3.0,1.0,part_1,,,,,,,,,,,,,green,triangle
398.0,4.0,4.0,0.0,1.0,1.0,349.9601029998302,3.0,1.0,part_1,,,,,,,,,,,,,green,triangle
121.0,6.0,2.0,1.0,4.0,4.0,328.4298929997931,3.0,1.0,part_1,,,,,,,,,,,,,yellow,flipped triangle
0.0,7.0,0.0,1.0,1.0,1.0,346.8588270002328,3.0,1.0,part_1,,,,,,,,,,,,,magenta,hexagon
0.0,7.0,0.0,1.0,1.0,1.0,326.65946599991,3.0,1.0,part_1,,,,,,,,,,,,,magenta,hexagon
0.0,7.0,0.0,1.0,1.0,1.0,325.8797240000604,3.0,1.0,part_1,,,,,,,,,,,,,magenta,hexagon
0.0,4.0,0.0,0.0,1.0,1.0,296.9402019998597,3.0,1.0,part_1,,,,,,,,,,,,,green,triangle
218.0,7.0,3.0,1.0,2.0,2.0,372.8745170001275,3.0,1.0,part_1,,,,,,,,,,,,,magenta,hexagon
0.0,5.0,0.0,1.0,3.0,3.0,449.5748559997992,3.0,1.0,part_1,,,,,,,,,,,,,white,I
32.0,5.0,1.0,1.0,4.0,4.0,290.872661999856,3.0,1.0,part_1,,,,,,,,,,,,,white,I
417.0,4.0,4.0,0.0,3.0,3.0,390.6447520002984,3.0,1.0,part_1,,,,,,,,,,,,,green,triangle
103.0,6.0,2.0,1.0,3.0,3.0,356.3788999999815,3.0,1.0,part_1,,,,,,,,,,,,,yellow,flipped triangle
0.0,1.0,0.0,0.0,2.0,2.0,364.1641530002744,3.0,1.0,part_1,,,,,,,,,,,,,cyan,cross
208.0,3.0,3.0,0.0,2.0,2.0,321.7578130002039,3.0,1.0,part_1,,,,,,,,,,,,,blue,square
120.0,6.0,2.0,1.0,1.0,1.0,256.2956619999568,3.0,1.0,part_1,,,,,,,,,,,,,yellow,flipped triangle
57.0,5.0,1.0,1.0,1.0,1.0,304.7387499996148,3.0,1.0,part_1,,,,,,,,,,,,,white,I
91.0,2.0,2.0,0.0,2.0,2.0,328.8962019996688,3.0,1.0,part_1,,,,,,,,,,,,,orange,diamond
72.0,1.0,1.0,0.0,2.0,2.0,270.9780140003204,3.0,1.0,part_1,,,,,,,,,,,,,cyan,cross
0.0,3.0,0.0,0.0,1.0,1.0,260.8977029999551,3.0,1.0,part_1,,,,,,,,,,,,,blue,square
383.0,8.0,4.0,1.0,1.0,1.0,288.8368079998145,3.0,1.0,part_1,,,,,,,,,,,,,gray,circle
55.0,1.0,1.0,0.0,3.0,3.0,354.1451820001384,3.0,1.0,part_1,,,,,,,,,,,,,cyan,cross
0.0,2.0,0.0,0.0,3.0,3.0,367.4740030000976,3.0,1.0,part_1,,,,,,,,,,,,,orange,diamond
224.0,7.0,3.0,1.0,2.0,2.0,348.8509550002163,3.0,1.0,part_1,,,,,,,,,,,,,magenta,hexagon
214.0,3.0,3.0,0.0,3.0,3.0,378.0001430000084,3.0,1.0,part_1,,,,,,,,,,,,,blue,square
179.0,7.0,3.0,1.0,4.0,4.0,288.3107419997941,3.0,1.0,part_1,,,,,,,,,,,,,magenta,hexagon
54.0,1.0,1.0,0.0,4.0,4.0,348.2387290000588,3.0,1.0,part_1,,,,,,,,,,,,,cyan,cross
186.0,7.0,3.0,1.0,2.0,2.0,349.6888599997874,3.0,1.0,part_1,,,,,,,,,,,,,magenta,hexagon
208.0,7.0,3.0,1.0,2.0,2.0,423.6848590003319,3.0,1.0,part_1,,,,,,,,,,,,,magenta,hexagon
103.0,2.0,2.0,0.0,2.0,2.0,404.3988869998429,3.0,1.0,part_1,,,,,,,,,,,,,orange,diamond
86.0,6.0,2.0,1.0,4.0,4.0,332.0381870003075,3.0,1.0,part_1,,,,,,,,,,,,,yellow,flipped triangle
0.0,2.0,0.0,0.0,3.0,3.0,397.1670249998169,3.0,1.0,part_1,,,,,,,,,,,,,orange,diamond
42.0,1.0,1.0,0.0,1.0,1.0,291.0265139998955,3.0,1.0,part_1,,,,,,,,,,,,,cyan,cross
401.0,8.0,4.0,1.0,1.0,1.0,330.7499849997839,3.0,1.0,part_1,,,,,,,,,,,,,gray,circle
385.0,4.0,4.0,0.0,3.0,3.0,316.8844650003848,3.0,1.0,part_1,,,,,,,,,,,,,green,triangle
0.0,7.0,0.0,1.0,3.0,3.0,311.970115999884,3.0,1.0,part_1,,,,,,,,,,,,,magenta,hexagon
70.0,5.0,1.0,1.0,2.0,2.0,309.7812930000145,3.0,1.0,part_1,,,,,,,,,,,,,white,I
0.0,8.0,0.0,1.0,3.0,3.0,371.0890960001052,3.0,1.0,part_1,,,,,,,,,,,,,gray,circle
0.0,8.0,0.0,1.0,1.0,1.0,284.4756249996862,3.0,1.0,part_1,,,,,,,,,,,,,gray,circle
62.0,5.0,1.0,1.0,1.0,1.0,328.5421640002823,3.0,1.0,part_1,,,,,,,,,,,,,white,I
59.0,5.0,1.0,1.0,3.0,3.0,381.3799380000091,3.0,1.0,part_1,,,,,,,,,,,,,white,I
70.0,1.0,1.0,0.0,2.0,2.0,312.0959399998355,3.0,1.0,part_1,,,,,,,,,,,,,cyan,cross
399.0,8.0,4.0,1.0,1.0,1.0,332.2956900001372,3.0,1.0,part_1,,,,,,,,,,,,,gray,circle
39.0,5.0,1.0,1.0,2.0,2.0,288.1452849997004,3.0,1.0,part_1,,,,,,,,,,,,,white,I
88.0,6.0,2.0,1.0,3.0,3.0,320.8963100000801,3.0,1.0,part_1,,,,,,,,,,,,,yellow,flipped triangle
42.0,5.0,1.0,1.0,3.0,3.0,361.2322339999991,3.0,1.0,part_1,,,,,,,,,,,,,white,I
199.0,3.0,3.0,0.0,2.0,2.0,264.0891460000603,3.0,1.0,part_1,,,,,,,,,,,,,blue,square
91.0,2.0,2.0,0.0,3.0,3.0,333.6780210001961,3.0,1.0,part_1,,,,,,,,,,,,,orange,diamond
65.0,1.0,1.0,0.0,1.0,1.0,299.8986890002015,3.0,1.0,part_1,,,,,,,,,,,,,cyan,cross
389.0,8.0,4.0,1.0,4.0,4.0,334.0775649999159,3.0,1.0,part_1,,,,,,,,,,,,,gray,circle
95.0,2.0,2.0,0.0,3.0,3.0,330.7860439999786,3.0,1.0,part_1,,,,,,,,,,,,,orange,diamond
70.0,1.0,1.0,0.0,3.0,3.0,299.0292179997595,3.0,1.0,part_1,,,,,,,,,,,,,cyan,cross
218.0,3.0,3.0,0.0,1.0,1.0,265.898868000022,3.0,1.0,part_1,,,,,,,,,,,,,blue,square
406.0,4.0,4.0,0.0,4.0,4.0,392.1754519997193,3.0,1.0,part_1,,,,,,,,,,,,,green,triangle
39.0,1.0,1.0,0.0,4.0,4.0,300.3643199999715,3.0,1.0,part_1,,,,,,,,,,,,,cyan,cross
410.0,4.0,4.0,0.0,4.0,4.0,324.2576459997508,3.0,1.0,part_1,,,,,,,,,,,,,green,triangle
387.0,8.0,4.0,1.0,1.0,1.0,377.7912169998672,3.0,1.0,part_1,,,,,,,,,,,,,gray,circle
81.0,6.0,2.0,1.0,4.0,4.0,332.5457229998392,3.0,1.0,part_1,,,,,,,,,,,,,yellow,flipped triangle
184.0,3.0,3.0,0.0,4.0,4.0,318.5150069998599,3.0,1.0,part_1,,,,,,,,,,,,,blue,square
120.0,6.0,2.0,1.0,2.0,2.0,332.8876350001337,3.0,1.0,part_1,,,,,,,,,,,,,yellow,flipped triangle
77.0,2.0,2.0,0.0,4.0,4.0,297.4006819999886,3.0,1.0,part_1,,,,,,,,,,,,,orange,diamond
224.0,7.0,3.0,1.0,4.0,4.0,439.2665780001152,3.0,1.0,part_1,,,,,,,,,,,,,magenta,hexagon
376.0,4.0,4.0,0.0,4.0,4.0,321.8941549998817,3.0,1.0,part_1,,,,,,,,,,,,,green,triangle
202.0,3.0,3.0,0.0,1.0,1.0,294.8643059999085,3.0,1.0,part_1,,,,,,,,,,,,,blue,square
100.0,6.0,2.0,1.0,4.0,4.0,362.7646340000865,3.0,1.0,part_1,,,,,,,,,,,,,yellow,flipped triangle
0.0,3.0,0.0,0.0,4.0,4.0,307.4790929999835,3.0,1.0,part_1,,,,,,,,,,,,,blue,square
0.0,5.0,0.0,1.0,4.0,4.0,279.8097939999024,3.0,1.0,part_1,,,,,,,,,,,,,white,I
47.0,5.0,1.0,1.0,2.0,2.0,301.1194460000297,3.0,1.0,part_1,,,,,,,,,,,,,white,I
108.0,6.0,2.0,1.0,1.0,1.0,298.6616160001176,3.0,1.0,part_1,,,,,,,,,,,,,yellow,flipped triangle
0.0,4.0,0.0,0.0,3.0,3.0,375.9400619996995,3.0,1.0,part_1,,,,,,,,,,,,,green,triangle
75.0,5.0,1.0,1.0,4.0,4.0,328.964124000322,3.0,1.0,part_1,,,,,,,,,,,,,white,I
44.0,1.0,1.0,0.0,4.0,4.0,311.5051669997228,3.0,1.0,part_1,,,,,,,,,,,,,cyan,cross
176.0,3.0,3.0,0.0,1.0,1.0,299.7177249999367,3.0,1.0,part_1,,,,,,,,,,,,,blue,square
416.0,4.0,4.0,0.0,4.0,4.0,367.0249690003402,3.0,1.0,part_1,,,,,,,,,,,,,green,triangle
224.0,3.0,3.0,0.0,3.0,3.0,370.762396000373,3.0,1.0,part_1,,,,,,,,,,,,,blue,square
0.0,8.0,0.0,1.0,1.0,1.0,279.4696440000734,3.0,1.0,part_1,,,,,,,,,,,,,gray,circle
62.0,1.0,1.0,0.0,3.0,3.0,465.3225940000993,4.0,1.0,part_1,,,,,,,,,,,,,cyan,cross
116.0,2.0,2.0,0.0,3.0,3.0,319.2858130000786,4.0,1.0,part_1,,,,,,,,,,,,,orange,diamond
216.0,7.0,3.0,1.0,2.0,2.0,310.4264710000279,4.0,1.0,part_1,,,,,,,,,,,,,magenta,hexagon
0.0,6.0,0.0,1.0,2.0,2.0,291.2840519998099,4.0,1.0,part_1,,,,,,,,,,,,,yellow,flipped triangle
0.0,7.0,0.0,1.0,1.0,1.0,252.3329059999923,4.0,1.0,part_1,,,,,,,,,,,,,magenta,hexagon
380.0,4.0,4.0,0.0,3.0,3.0,304.4318540000859,4.0,2.0,part_1,,,,,,,,,,,,,green,triangle
402.0,8.0,4.0,1.0,4.0,4.0,308.1564780000008,4.0,1.0,part_1,,,,,,,,,,,,,gray,circle
85.0,2.0,2.0,0.0,2.0,2.0,345.2251660000911,4.0,1.0,part_1,,,,,,,,,,,,,orange,diamond
0.0,6.0,0.0,1.0,1.0,1.0,302.3679539996919,4.0,1.0,part_1,,,,,,,,,,,,,yellow,flipped triangle
105.0,2.0,2.0,0.0,2.0,2.0,329.9124169998322,4.0,1.0,part_1,,,,,,,,,,,,,orange,diamond
87.0,6.0,2.0,1.0,2.0,2.0,334.0582280002309,4.0,1.0,part_1,,,,,,,,,,,,,yellow,flipped triangle
179.0,3.0,3.0,0.0,1.0,1.0,239.5374269999592,4.0,1.0,part_1,,,,,,,,,,,,,blue,square
54.0,5.0,1.0,1.0,4.0,4.0,343.4942210001281,4.0,1.0,part_1,,,,,,,,,,,,,white,I
380.0,4.0,4.0,0.0,2.0,2.0,272.6487760000964,4.0,1.0,part_1,,,,,,,,,,,,,green,triangle
33.0,1.0,1.0,0.0,3.0,3.0,326.9357269996362,4.0,1.0,part_1,,,,,,,,,,,,,cyan,cross
177.0,7.0,3.0,1.0,4.0,4.0,320.9385120003389,4.0,1.0,part_1,,,,,,,,,,,,,magenta,hexagon
50.0,5.0,1.0,1.0,2.0,2.0,292.2185759998683,4.0,1.0,part_1,,,,,,,,,,,,,white,I
91.0,6.0,2.0,1.0,2.0,2.0,318.3971519997612,4.0,1.0,part_1,,,,,,,,,,,,,yellow,flipped triangle
112.0,6.0,2.0,1.0,3.0,3.0,350.3747129998373,4.0,1.0,part_1,,,,,,,,,,,,,yellow,flipped triangle
0.0,6.0,0.0,1.0,2.0,2.0,293.9403649997985,4.0,1.0,part_1,,,,,,,,,,,,,yellow,flipped triangle
0.0,4.0,0.0,0.0,4.0,4.0,489.1511499999978,4.0,1.0,part_1,,,,,,,,,,,,,green,triangle
0.0,1.0,0.0,0.0,4.0,4.0,307.1588030002203,4.0,1.0,part_1,,,,,,,,,,,,,cyan,cross
62.0,1.0,1.0,0.0,1.0,1.0,331.171200999961,4.0,1.0,part_1,,,,,,,,,,,,,cyan,cross
60.0,1.0,1.0,0.0,4.0,4.0,314.1653889997542,4.0,1.0,part_1,,,,,,,,,,,,,cyan,cross
219.0,3.0,3.0,0.0,3.0,3.0,333.4174209999219,4.0,1.0,part_1,,,,,,,,,,,,,blue,square
113.0,6.0,2.0,1.0,1.0,1.0,265.5109020001873,4.0,1.0,part_1,,,,,,,,,,,,,yellow,flipped triangle
41.0,1.0,1.0,0.0,4.0,4.0,412.6874900002804,4.0,1.0,part_1,,,,,,,,,,,,,cyan,cross
416.0,8.0,4.0,1.0,4.0,4.0,267.3503360001632,4.0,1.0,part_1,,,,,,,,,,,,,gray,circle
0.0,4.0,0.0,0.0,2.0,2.0,274.4674780001332,4.0,1.0,part_1,,,,,,,,,,,,,green,triangle
0.0,5.0,0.0,1.0,3.0,3.0,312.607945000309,4.0,1.0,part_1,,,,,,,,,,,,,white,I
71.0,5.0,1.0,1.0,3.0,3.0,309.3637770002715,4.0,1.0,part_1,,,,,,,,,,,,,white,I
0.0,4.0,0.0,0.0,3.0,3.0,316.4146049998635,4.0,1.0,part_1,,,,,,,,,,,,,green,triangle
0.0,7.0,0.0,1.0,1.0,1.0,272.6793790002375,4.0,1.0,part_1,,,,,,,,,,,,,magenta,hexagon
206.0,3.0,3.0,0.0,4.0,4.0,307.1284459997514,4.0,1.0,part_1,,,,,,,,,,,,,blue,square
91.0,2.0,2.0,0.0,2.0,2.0,280.4694940000445,4.0,1.0,part_1,,,,,,,,,,,,,orange,diamond
207.0,3.0,3.0,0.0,2.0,2.0,354.366050000408,4.0,1.0,part_1,,,,,,,,,,,,,blue,square
65.0,5.0,1.0,1.0,1.0,1.0,415.4209819998868,4.0,1.0,part_1,,,,,,,,,,,,,white,I
119.0,2.0,2.0,0.0,1.0,1.0,284.5751019999625,4.0,1.0,part_1,,,,,,,,,,,,,orange,diamond
400.0,4.0,4.0,0.0,2.0,2.0,361.2663629996859,4.0,1.0,part_1,,,,,,,,,,,,,green,triangle
0.0,6.0,0.0,1.0,2.0,2.0,430.6531860001996,4.0,1.0,part_1,,,,,,,,,,,,,yellow,flipped triangle
218.0,7.0,3.0,1.0,3.0,3.0,352.1196770002461,4.0,1.0,part_1,,,,,,,,,,,,,magenta,hexagon
28.0,5.0,1.0,1.0,1.0,1.0,336.5421839998816,4.0,1.0,part_1,,,,,,,,,,,,,white,I
0.0,2.0,0.0,0.0,3.0,3.0,397.5061600003755,4.0,1.0,part_1,,,,,,,,,,,,,orange,diamond
104.0,2.0,2.0,0.0,1.0,1.0,344.4444490000933,4.0,1.0,part_1,,,,,,,,,,,,,orange,diamond
179.0,3.0,3.0,0.0,3.0,3.0,357.0512940000299,4.0,1.0,part_1,,,,,,,,,,,,,blue,square
186.0,3.0,3.0,0.0,4.0,4.0,291.9608600000174,4.0,1.0,part_1,,,,,,,,,,,,,blue,square
383.0,4.0,4.0,0.0,4.0,4.0,337.7216920002865,4.0,1.0,part_1,,,,,,,,,,,,,green,triangle
181.0,3.0,3.0,0.0,1.0,1.0,366.8090559999655,4.0,1.0,part_1,,,,,,,,,,,,,blue,square
73.0,5.0,1.0,1.0,4.0,4.0,343.9369819998319,4.0,2.0,part_1,,,,,,,,,,,,,white,I
33.0,1.0,1.0,0.0,3.0,3.0,505.3292570000849,4.0,1.0,part_1,,,,,,,,,,,,,cyan,cross
0.0,5.0,0.0,1.0,2.0,2.0,334.2252319998806,4.0,1.0,part_1,,,,,,,,,,,,,white,I
400.0,8.0,4.0,1.0,4.0,4.0,413.856042000134,4.0,1.0,part_1,,,,,,,,,,,,,gray,circle
0.0,3.0,0.0,0.0,4.0,4.0,325.7306139998945,4.0,1.0,part_1,,,,,,,,,,,,,blue,square
419.0,4.0,4.0,0.0,4.0,4.0,303.6656360000052,4.0,1.0,part_1,,,,,,,,,,,,,green,triangle
222.0,7.0,3.0,1.0,3.0,3.0,320.2450389999285,4.0,2.0,part_1,,,,,,,,,,,,,magenta,hexagon
77.0,6.0,2.0,1.0,1.0,1.0,275.392145999831,4.0,1.0,part_1,,,,,,,,,,,,,yellow,flipped triangle
106.0,2.0,2.0,0.0,2.0,2.0,302.2944319995986,4.0,1.0,part_1,,,,,,,,,,,,,orange,diamond
0.0,5.0,0.0,1.0,2.0,2.0,305.6767620000755,4.0,1.0,part_1,,,,,,,,,,,,,white,I
392.0,4.0,4.0,0.0,1.0,1.0,293.8174609998896,4.0,1.0,part_1,,,,,,,,,,,,,green,triangle
393.0,8.0,4.0,1.0,3.0,3.0,329.896693000137,4.0,1.0,part_1,,,,,,,,,,,,,gray,circle
71.0,1.0,1.0,0.0,4.0,4.0,274.6627870001248,4.0,1.0,part_1,,,,,,,,,,,,,cyan,cross
0.0,1.0,0.0,0.0,3.0,3.0,310.1656219996584,4.0,1.0,part_1,,,,,,,,,,,,,cyan,cross
26.0,5.0,1.0,1.0,4.0,4.0,296.6929409999466,4.0,2.0,part_1,,,,,,,,,,,,,white,I
219.0,7.0,3.0,1.0,1.0,1.0,309.335972000099,4.0,1.0,part_1,,,,,,,,,,,,,magenta,hexagon
406.0,8.0,4.0,1.0,2.0,2.0,334.0895599999385,4.0,1.0,part_1,,,,,,,,,,,,,gray,circle
218.0,7.0,3.0,1.0,4.0,4.0,289.2117639999014,4.0,1.0,part_1,,,,,,,,,,,,,magenta,hexagon
58.0,5.0,1.0,1.0,1.0,1.0,330.1133619997927,4.0,1.0,part_1,,,,,,,,,,,,,white,I
180.0,7.0,3.0,1.0,3.0,3.0,350.711236999814,4.0,1.0,part_1,,,,,,,,,,,,,magenta,hexagon
0.0,1.0,0.0,0.0,1.0,1.0,407.627568999942,4.0,1.0,part_1,,,,,,,,,,,,,cyan,cross
401.0,4.0,4.0,0.0,2.0,2.0,305.432041000131,4.0,1.0,part_1,,,,,,,,,,,,,green,triangle
26.0,1.0,1.0,0.0,1.0,1.0,333.5759659998984,4.0,1.0,part_1,,,,,,,,,,,,,cyan,cross
119.0,2.0,2.0,0.0,4.0,4.0,320.7619959998737,4.0,1.0,part_1,,,,,,,,,,,,,orange,diamond
200.0,3.0,3.0,0.0,3.0,3.0,447.6665639999737,4.0,2.0,part_1,,,,,,,,,,,,,blue,square
56.0,1.0,1.0,0.0,4.0,4.0,318.677998000112,4.0,1.0,part_1,,,,,,,,,,,,,cyan,cross
96.0,6.0,2.0,1.0,3.0,3.0,331.5053669998633,4.0,1.0,part_1,,,,,,,,,,,,,yellow,flipped triangle
0.0,1.0,0.0,0.0,3.0,3.0,343.6874139997599,4.0,1.0,part_1,,,,,,,,,,,,,cyan,cross
47.0,1.0,1.0,0.0,2.0,2.0,312.2349059999578,4.0,1.0,part_1,,,,,,,,,,,,,cyan,cross
211.0,7.0,3.0,1.0,3.0,3.0,321.7604080000456,4.0,1.0,part_1,,,,,,,,,,,,,magenta,hexagon
179.0,7.0,3.0,1.0,3.0,3.0,355.3013539999483,4.0,1.0,part_1,,,,,,,,,,,,,magenta,hexagon
0.0,2.0,0.0,0.0,4.0,4.0,363.7718240001959,4.0,1.0,part_1,,,,,,,,,,,,,orange,diamond
0.0,4.0,0.0,0.0,4.0,4.0,288.4174400001029,4.0,1.0,part_1,,,,,,,,,,,,,green,triangle
33.0,1.0,1.0,0.0,3.0,3.0,388.9805570001954,4.0,1.0,part_1,,,,,,,,,,,,,cyan,cross
220.0,3.0,3.0,0.0,2.0,2.0,320.0863100000788,4.0,1.0,part_1,,,,,,,,,,,,,blue,square
399.0,4.0,4.0,0.0,4.0,4.0,371.9743179999568,4.0,1.0,part_1,,,,,,,,,,,,,green,triangle
0.0,8.0,0.0,1.0,2.0,2.0,355.626519999987,4.0,1.0,part_1,,,,,,,,,,,,,gray,circle
33.0,5.0,1.0,1.0,3.0,3.0,496.7067689999567,4.0,1.0,part_1,,,,,,,,,,,,,white,I
105.0,6.0,2.0,1.0,1.0,1.0,321.3324389998888,4.0,1.0,part_1,,,,,,,,,,,,,yellow,flipped triangle
0.0,6.0,0.0,1.0,3.0,3.0,322.3700730000018,4.0,1.0,part_1,,,,,,,,,,,,,yellow,flipped triangle
55.0,5.0,1.0,1.0,3.0,3.0,394.8344000000361,4.0,1.0,part_1,,,,,,,,,,,,,white,I
107.0,6.0,2.0,1.0,3.0,3.0,328.5602569999355,4.0,1.0,part_1,,,,,,,,,,,,,yellow,flipped triangle
417.0,8.0,4.0,1.0,4.0,4.0,317.6666990002559,4.0,1.0,part_1,,,,,,,,,,,,,gray,circle
224.0,3.0,3.0,0.0,1.0,1.0,309.3481370001427,4.0,1.0,part_1,,,,,,,,,,,,,blue,square
78.0,2.0,2.0,0.0,1.0,1.0,347.8388650000852,4.0,1.0,part_1,,,,,,,,,,,,,orange,diamond
98.0,6.0,2.0,1.0,3.0,3.0,366.124893000233,4.0,1.0,part_1,,,,,,,,,,,,,yellow,flipped triangle
0.0,8.0,0.0,1.0,3.0,3.0,360.7719640003779,4.0,1.0,part_1,,,,,,,,,,,,,gray,circle
60.0,1.0,1.0,0.0,2.0,2.0,370.2532570000585,4.0,1.0,part_1,,,,,,,,,,,,,cyan,cross
85.0,6.0,2.0,1.0,1.0,1.0,328.6331029999019,4.0,1.0,part_1,,,,,,,,,,,,,yellow,flipped triangle
208.0,3.0,3.0,0.0,3.0,3.0,373.7335549999443,4.0,1.0,part_1,,,,,,,,,,,,,blue,square
73.0,1.0,1.0,0.0,3.0,3.0,606.52432400002,4.0,1.0,part_1,,,,,,,,,,,,,cyan,cross
177.0,3.0,3.0,0.0,2.0,2.0,345.4203750002307,4.0,1.0,part_1,,,,,,,,,,,,,blue,square
0.0,2.0,2.0,0.0,6.0,6.0,445.9553730002881,1.0,0.0,part_2,go,250.0,250.0,1.0,,,,,,,,,orange,diamond
0.0,7.0,3.0,1.0,6.0,0.0,0.0,1.0,0.0,part_2,stop,250.0,250.0,4.0,,,,,,,,,magenta,hexagon
0.0,2.0,2.0,0.0,6.0,6.0,235.8482780000486,1.0,0.0,part_2,go,250.0,300.0,1.0,,,,,,,,,orange,diamond
0.0,7.0,3.0,1.0,5.0,5.0,281.8485560001136,1.0,0.0,part_2,stop,250.0,300.0,3.0,,,,,,,,,magenta,hexagon
0.0,7.0,3.0,1.0,6.0,6.0,252.7924709997933,1.0,0.0,part_2,go,200.0,300.0,1.0,,,,,,,,,magenta,hexagon
0.0,5.0,1.0,1.0,5.0,5.0,282.1367809997355,1.0,0.0,part_2,stop,200.0,300.0,3.0,,,,,,,,,white,I
0.0,5.0,1.0,1.0,5.0,5.0,332.2275440000339,1.0,0.0,part_2,stop,150.0,300.0,3.0,,,,,,,,,white,I
0.0,7.0,3.0,1.0,6.0,6.0,278.6907199997586,1.0,0.0,part_2,stop,100.0,300.0,3.0,,,,,,,,,magenta,hexagon
0.0,8.0,4.0,1.0,6.0,6.0,337.8860550001263,1.0,0.0,part_2,go,100.0,250.0,1.0,,,,,,,,,gray,circle
0.0,1.0,1.0,0.0,5.0,5.0,397.2315099999832,1.0,0.0,part_2,go,100.0,250.0,1.0,,,,,,,,,cyan,cross
0.0,5.0,1.0,1.0,6.0,6.0,397.0620349996352,1.0,0.0,part_2,stop,100.0,250.0,3.0,,,,,,,,,white,I
0.0,6.0,2.0,1.0,6.0,6.0,289.0336549999119,1.0,0.0,part_2,go,100.0,200.0,1.0,,,,,,,,,yellow,flipped triangle
0.0,2.0,2.0,0.0,5.0,5.0,446.4811869997902,1.0,0.0,part_2,go,100.0,200.0,1.0,,,,,,,,,orange,diamond
0.0,3.0,3.0,0.0,6.0,6.0,347.136976999991,1.0,0.0,part_2,go,100.0,200.0,1.0,,,,,,,,,blue,square
0.0,5.0,1.0,1.0,6.0,6.0,309.2738750001444,1.0,0.0,part_2,stop,100.0,200.0,3.0,,,,,,,,,white,I
0.0,7.0,3.0,1.0,6.0,6.0,559.0573879999283,1.0,0.0,part_2,go,100.0,150.0,1.0,,,,,,,,,magenta,hexagon
0.0,6.0,2.0,1.0,6.0,6.0,350.7622209999681,1.0,0.0,part_2,stop,100.0,150.0,3.0,,,,,,,,,yellow,flipped triangle
0.0,8.0,4.0,1.0,6.0,6.0,481.395232000068,1.0,0.0,part_2,go,100.0,100.0,1.0,,,,,,,,,gray,circle
0.0,7.0,3.0,1.0,5.0,5.0,426.2383360000967,1.0,0.0,part_2,go,100.0,100.0,1.0,,,,,,,,,magenta,hexagon
0.0,4.0,4.0,0.0,5.0,5.0,343.6125479997827,1.0,0.0,part_2,go,100.0,100.0,1.0,,,,,,,,,green,triangle
0.0,5.0,1.0,1.0,5.0,5.0,317.2184140003082,1.0,0.0,part_2,stop,100.0,100.0,3.0,,,,,,,,,white,I
0.0,8.0,4.0,1.0,6.0,0.0,0.0,1.0,0.0,part_2,stop,50.0,100.0,4.0,,,,,,,,,gray,circle
0.0,4.0,4.0,0.0,6.0,6.0,358.1149320002623,1.0,0.0,part_2,go,50.0,150.0,1.0,,,,,,,,,green,triangle
0.0,4.0,4.0,0.0,5.0,5.0,350.5454599999211,1.0,0.0,part_2,go,50.0,150.0,1.0,,,,,,,,,green,triangle
0.0,4.0,4.0,0.0,5.0,5.0,429.2455820000214,1.0,0.0,part_2,go,50.0,150.0,1.0,,,,,,,,,green,triangle
0.0,5.0,1.0,1.0,6.0,6.0,392.5563069997224,1.0,0.0,part_2,go,50.0,150.0,1.0,,,,,,,,,white,I
0.0,3.0,3.0,0.0,6.0,6.0,355.7514029998856,1.0,0.0,part_2,go,50.0,150.0,1.0,,,,,,,,,blue,square
0.0,6.0,2.0,1.0,5.0,5.0,276.6168590001143,1.0,0.0,part_2,stop,50.0,150.0,3.0,,,,,,,,,yellow,flipped triangle
0.0,2.0,2.0,0.0,6.0,6.0,531.5802360000816,1.0,0.0,part_2,go,0.0,150.0,1.0,,,,,,,,,orange,diamond
0.0,5.0,1.0,1.0,6.0,0.0,0.0,1.0,0.0,part_2,stop,0.0,150.0,4.0,,,,,,,,,white,I
0.0,2.0,2.0,0.0,5.0,5.0,521.8884679998155,1.0,0.0,part_2,go,0.0,200.0,1.0,,,,,,,,,orange,diamond
0.0,5.0,1.0,1.0,5.0,0.0,0.0,1.0,0.0,part_2,stop,0.0,200.0,4.0,,,,,,,,,white,I
0.0,4.0,4.0,0.0,6.0,6.0,270.9734660002141,1.0,0.0,part_2,go,50.0,200.0,1.0,,,,,,,,,green,triangle
0.0,8.0,4.0,1.0,6.0,6.0,324.7272560001875,1.0,0.0,part_2,stop,50.0,200.0,3.0,,,,,,,,,gray,circle
0.0,3.0,3.0,0.0,5.0,5.0,329.2017829999167,1.0,0.0,part_2,go,50.0,150.0,1.0,,,,,,,,,blue,square
0.0,6.0,2.0,1.0,5.0,0.0,0.0,1.0,0.0,part_2,stop,50.0,150.0,4.0,,,,,,,,,yellow,flipped triangle
0.0,7.0,3.0,1.0,5.0,0.0,0.0,2.0,0.0,part_2,stop,100.0,150.0,4.0,,,,,,,,,magenta,hexagon
0.0,4.0,4.0,0.0,6.0,6.0,729.9401989998842,2.0,0.0,part_2,go,150.0,150.0,1.0,,,,,,,,,green,triangle
0.0,8.0,4.0,1.0,5.0,5.0,402.7560129998164,2.0,0.0,part_2,stop,150.0,150.0,3.0,,,,,,,,,gray,circle
0.0,3.0,3.0,0.0,6.0,6.0,462.9426390001754,2.0,0.0,part_2,go,100.0,150.0,1.0,,,,,,,,,blue,square
0.0,8.0,4.0,1.0,5.0,5.0,405.8415959998456,2.0,0.0,part_2,go,100.0,150.0,1.0,,,,,,,,,gray,circle
0.0,4.0,4.0,0.0,5.0,5.0,345.7510389998788,2.0,0.0,part_2,go,100.0,150.0,1.0,,,,,,,,,green,triangle
0.0,1.0,1.0,0.0,5.0,5.0,520.5814190003366,2.0,0.0,part_2,go,100.0,150.0,1.0,,,,,,,,,cyan,cross
0.0,3.0,3.0,0.0,5.0,5.0,443.2064210000135,2.0,0.0,part_2,go,100.0,150.0,1.0,,,,,,,,,blue,square
0.0,2.0,2.0,0.0,6.0,6.0,352.4018650000471,2.0,0.0,part_2,go,100.0,150.0,1.0,,,,,,,,,orange,diamond
0.0,7.0,3.0,1.0,5.0,0.0,0.0,2.0,0.0,part_2,stop,100.0,150.0,4.0,,,,,,,,,magenta,hexagon
0.0,6.0,2.0,1.0,5.0,5.0,460.3256649998002,2.0,0.0,part_2,stop,150.0,150.0,3.0,,,,,,,,,yellow,flipped triangle
0.0,3.0,3.0,0.0,5.0,5.0,526.604190999933,2.0,0.0,part_2,go,100.0,150.0,1.0,,,,,,,,,blue,square
0.0,2.0,2.0,0.0,5.0,5.0,326.8775090000417,2.0,0.0,part_2,go,100.0,150.0,1.0,,,,,,,,,orange,diamond
0.0,1.0,1.0,0.0,6.0,6.0,347.7201069999864,2.0,0.0,part_2,go,100.0,150.0,1.0,,,,,,,,,cyan,cross
0.0,2.0,2.0,0.0,6.0,6.0,362.4931499998638,2.0,0.0,part_2,go,100.0,150.0,1.0,,,,,,,,,orange,diamond
0.0,6.0,2.0,1.0,5.0,5.0,379.2212379999,2.0,0.0,part_2,go,100.0,150.0,1.0,,,,,,,,,yellow,flipped triangle
0.0,7.0,3.0,1.0,5.0,0.0,0.0,2.0,0.0,part_2,stop,100.0,150.0,4.0,,,,,,,,,magenta,hexagon
0.0,2.0,2.0,0.0,6.0,6.0,413.1271399996876,2.0,0.0,part_2,go,150.0,150.0,1.0,,,,,,,,,orange,diamond
0.0,2.0,2.0,0.0,6.0,6.0,284.6606520001842,2.0,0.0,part_2,go,150.0,150.0,1.0,,,,,,,,,orange,diamond
0.0,8.0,4.0,1.0,6.0,6.0,322.2963819998767,2.0,0.0,part_2,stop,150.0,150.0,3.0,,,,,,,,,gray,circle
0.0,6.0,2.0,1.0,5.0,0.0,0.0,2.0,0.0,part_2,stop,150.0,100.0,4.0,,,,,,,,,yellow,flipped triangle
0.0,3.0,3.0,0.0,5.0,5.0,427.584521999961,2.0,0.0,part_2,go,200.0,100.0,1.0,,,,,,,,,blue,square
0.0,3.0,3.0,0.0,5.0,5.0,363.8348029999179,2.0,0.0,part_2,go,200.0,100.0,1.0,,,,,,,,,blue,square
0.0,2.0,2.0,0.0,6.0,6.0,385.1385140001184,2.0,0.0,part_2,go,200.0,100.0,1.0,,,,,,,,,orange,diamond
0.0,2.0,2.0,0.0,6.0,6.0,376.6216019998865,2.0,0.0,part_2,go,200.0,100.0,1.0,,,,,,,,,orange,diamond
0.0,7.0,3.0,1.0,6.0,6.0,331.0259310001129,2.0,0.0,part_2,stop,200.0,100.0,3.0,,,,,,,,,magenta,hexagon
0.0,7.0,3.0,1.0,5.0,0.0,0.0,2.0,0.0,part_2,stop,200.0,50.0,4.0,,,,,,,,,magenta,hexagon
0.0,7.0,3.0,1.0,6.0,0.0,0.0,2.0,0.0,part_2,stop,250.0,50.0,4.0,,,,,,,,,magenta,hexagon
0.0,1.0,1.0,0.0,5.0,5.0,298.0761049998364,2.0,0.0,part_2,go,250.0,100.0,1.0,,,,,,,,,cyan,cross
0.0,5.0,1.0,1.0,5.0,5.0,379.4805749998886,2.0,0.0,part_2,stop,250.0,100.0,3.0,,,,,,,,,white,I
0.0,8.0,4.0,1.0,5.0,0.0,0.0,2.0,0.0,part_2,stop,200.0,100.0,4.0,,,,,,,,,gray,circle
0.0,7.0,3.0,1.0,6.0,6.0,307.0319630000995,2.0,0.0,part_2,stop,250.0,100.0,3.0,,,,,,,,,magenta,hexagon
0.0,6.0,2.0,1.0,6.0,6.0,749.6030500001325,2.0,0.0,part_2,go,250.0,50.0,1.0,,,,,,,,,yellow,flipped triangle
0.0,4.0,4.0,0.0,5.0,5.0,340.8857889999126,2.0,0.0,part_2,go,250.0,50.0,1.0,,,,,,,,,green,triangle
0.0,8.0,4.0,1.0,6.0,0.0,0.0,2.0,0.0,part_2,stop,250.0,50.0,4.0,,,,,,,,,gray,circle
0.0,2.0,2.0,0.0,5.0,5.0,395.2710969997497,2.0,0.0,part_2,go,250.0,100.0,1.0,,,,,,,,,orange,diamond
0.0,4.0,4.0,0.0,5.0,5.0,560.221072999866,3.0,0.0,part_2,go,250.0,100.0,1.0,,,,,,,,,green,triangle
0.0,8.0,4.0,1.0,5.0,5.0,341.4419620003173,3.0,0.0,part_2,stop,250.0,100.0,3.0,,,,,,,,,gray,circle
0.0,1.0,1.0,0.0,5.0,5.0,503.20311099994797,3.0,0.0,part_2,go,200.0,100.0,1.0,,,,,,,,,cyan,cross
0.0,3.0,3.0,0.0,5.0,5.0,369.2451030001393,3.0,0.0,part_2,go,200.0,100.0,1.0,,,,,,,,,blue,square
0.0,1.0,1.0,0.0,5.0,5.0,328.7750879999294,3.0,0.0,part_2,go,200.0,100.0,1.0,,,,,,,,,cyan,cross
0.0,7.0,3.0,1.0,6.0,0.0,0.0,3.0,0.0,part_2,stop,200.0,100.0,4.0,,,,,,,,,magenta,hexagon
0.0,4.0,4.0,0.0,6.0,6.0,726.9161320000421,3.0,0.0,part_2,go,200.0,150.0,1.0,,,,,,,,,green,triangle
0.0,5.0,1.0,1.0,5.0,5.0,471.863231000043,3.0,0.0,part_2,go,200.0,150.0,1.0,,,,,,,,,white,I
0.0,7.0,3.0,1.0,5.0,5.0,446.594924999772,3.0,0.0,part_2,stop,200.0,150.0,3.0,,,,,,,,,magenta,hexagon
0.0,8.0,4.0,1.0,5.0,0.0,0.0,3.0,0.0,part_2,stop,150.0,150.0,4.0,,,,,,,,,gray,circle
0.0,7.0,3.0,1.0,6.0,0.0,0.0,3.0,0.0,part_2,stop,200.0,150.0,4.0,,,,,,,,,magenta,hexagon
0.0,7.0,3.0,1.0,5.0,5.0,543.3733509999001,3.0,0.0,part_2,go,200.0,200.0,1.0,,,,,,,,,magenta,hexagon
0.0,5.0,1.0,1.0,6.0,6.0,367.3899870000241,3.0,0.0,part_2,stop,200.0,200.0,3.0,,,,,,,,,white,I
0.0,1.0,1.0,0.0,6.0,6.0,436.751791000006,3.0,0.0,part_2,go,200.0,150.0,1.0,,,,,,,,,cyan,cross
0.0,2.0,2.0,0.0,6.0,6.0,314.9321350001628,3.0,0.0,part_2,go,200.0,150.0,1.0,,,,,,,,,orange,diamond
0.0,8.0,4.0,1.0,5.0,5.0,368.0657129998508,3.0,0.0,part_2,stop,200.0,150.0,3.0,,,,,,,,,gray,circle
0.0,2.0,2.0,0.0,5.0,5.0,476.9950360000621,3.0,0.0,part_2,go,150.0,150.0,1.0,,,,,,,,,orange,diamond
0.0,3.0,3.0,0.0,5.0,5.0,395.3891649998695,3.0,0.0,part_2,go,150.0,150.0,1.0,,,,,,,,,blue,square
0.0,4.0,4.0,0.0,5.0,5.0,297.9359430000841,3.0,0.0,part_2,go,150.0,150.0,1.0,,,,,,,,,green,triangle
0.0,6.0,2.0,1.0,5.0,5.0,327.10199200028,3.0,0.0,part_2,stop,150.0,150.0,3.0,,,,,,,,,yellow,flipped triangle
0.0,4.0,4.0,0.0,6.0,6.0,433.7311069998577,3.0,0.0,part_2,go,100.0,150.0,1.0,,,,,,,,,green,triangle
0.0,7.0,3.0,1.0,6.0,6.0,326.6075209999144,3.0,0.0,part_2,go,100.0,150.0,1.0,,,,,,,,,magenta,hexagon
0.0,3.0,3.0,0.0,6.0,6.0,307.9889099999491,3.0,0.0,part_2,go,100.0,150.0,1.0,,,,,,,,,blue,square
0.0,6.0,2.0,1.0,6.0,0.0,0.0,3.0,0.0,part_2,stop,100.0,150.0,4.0,,,,,,,,,yellow,flipped triangle
0.0,8.0,4.0,1.0,6.0,6.0,342.8679109997574,3.0,0.0,part_2,stop,100.0,200.0,3.0,,,,,,,,,gray,circle
0.0,1.0,1.0,0.0,5.0,5.0,290.7604699998956,3.0,0.0,part_2,go,100.0,150.0,1.0,,,,,,,,,cyan,cross
0.0,6.0,2.0,1.0,6.0,6.0,299.5308109998404,3.0,0.0,part_2,go,100.0,150.0,1.0,,,,,,,,,yellow,flipped triangle
0.0,7.0,3.0,1.0,5.0,0.0,0.0,3.0,0.0,part_2,stop,100.0,150.0,4.0,,,,,,,,,magenta,hexagon
0.0,7.0,3.0,1.0,5.0,5.0,335.2788040001542,3.0,0.0,part_2,stop,150.0,150.0,3.0,,,,,,,,,magenta,hexagon
0.0,8.0,4.0,1.0,6.0,6.0,249.0933049998602,3.0,0.0,part_2,go,100.0,150.0,1.0,,,,,,,,,gray,circle
0.0,2.0,2.0,0.0,5.0,5.0,321.8937449996701,3.0,0.0,part_2,go,100.0,150.0,1.0,,,,,,,,,orange,diamond
0.0,5.0,1.0,1.0,5.0,5.0,322.1614639996915,3.0,0.0,part_2,stop,100.0,150.0,3.0,,,,,,,,,white,I
0.0,1.0,1.0,0.0,5.0,5.0,362.1321699997679,3.0,0.0,part_2,go,50.0,150.0,1.0,,,,,,,,,cyan,cross
0.0,4.0,4.0,0.0,6.0,6.0,388.2467420003195,3.0,0.0,part_2,go,50.0,150.0,1.0,,,,,,,,,green,triangle
0.0,3.0,3.0,0.0,5.0,5.0,317.2240949998013,3.0,0.0,part_2,go,50.0,150.0,1.0,,,,,,,,,blue,square
0.0,7.0,3.0,1.0,6.0,6.0,388.1265370000619,3.0,0.0,part_2,go,50.0,150.0,1.0,,,,,,,,,magenta,hexagon
0.0,2.0,2.0,0.0,5.0,5.0,474.1621029997986,4.0,0.0,part_2,go,50.0,150.0,1.0,,,,,,,,,orange,diamond
0.0,7.0,3.0,1.0,5.0,0.0,0.0,4.0,0.0,part_2,stop,50.0,150.0,4.0,,,,,,,,,magenta,hexagon
0.0,7.0,3.0,1.0,5.0,0.0,0.0,4.0,0.0,part_2,stop,100.0,150.0,4.0,,,,,,,,,magenta,hexagon
0.0,2.0,2.0,0.0,5.0,5.0,361.8665379999584,4.0,0.0,part_2,go,150.0,150.0,1.0,,,,,,,,,orange,diamond
0.0,7.0,3.0,1.0,6.0,6.0,355.4336259999218,4.0,0.0,part_2,go,150.0,150.0,1.0,,,,,,,,,magenta,hexagon
0.0,6.0,2.0,1.0,6.0,6.0,407.03832799999867,4.0,0.0,part_2,go,150.0,150.0,1.0,,,,,,,,,yellow,flipped triangle
0.0,1.0,1.0,0.0,6.0,6.0,321.0313940003289,4.0,0.0,part_2,go,150.0,150.0,1.0,,,,,,,,,cyan,cross
0.0,1.0,1.0,0.0,6.0,6.0,331.3460560002568,4.0,0.0,part_2,go,150.0,150.0,1.0,,,,,,,,,cyan,cross
0.0,1.0,1.0,0.0,6.0,6.0,334.2740699999922,4.0,0.0,part_2,go,150.0,150.0,1.0,,,,,,,,,cyan,cross
0.0,2.0,2.0,0.0,5.0,5.0,493.9621769999576,4.0,0.0,part_2,go,150.0,150.0,1.0,,,,,,,,,orange,diamond
0.0,6.0,2.0,1.0,6.0,0.0,0.0,4.0,0.0,part_2,stop,150.0,150.0,4.0,,,,,,,,,yellow,flipped triangle
0.0,7.0,3.0,1.0,5.0,5.0,333.6715300001742,4.0,0.0,part_2,stop,150.0,200.0,3.0,,,,,,,,,magenta,hexagon
0.0,8.0,4.0,1.0,6.0,6.0,288.2006429999819,4.0,0.0,part_2,go,100.0,200.0,1.0,,,,,,,,,gray,circle
0.0,5.0,1.0,1.0,5.0,0.0,0.0,4.0,0.0,part_2,stop,100.0,200.0,4.0,,,,,,,,,white,I
0.0,8.0,4.0,1.0,6.0,6.0,476.8831609999324,4.0,0.0,part_2,go,150.0,200.0,1.0,,,,,,,,,gray,circle
0.0,4.0,4.0,0.0,5.0,5.0,309.8745030001737,4.0,0.0,part_2,go,150.0,200.0,1.0,,,,,,,,,green,triangle
0.0,2.0,2.0,0.0,6.0,6.0,299.8768950001249,4.0,0.0,part_2,go,150.0,200.0,1.0,,,,,,,,,orange,diamond
0.0,4.0,4.0,0.0,5.0,5.0,245.0402280001071,4.0,0.0,part_2,go,150.0,200.0,1.0,,,,,,,,,green,triangle
0.0,3.0,3.0,0.0,5.0,5.0,296.0995199996432,4.0,0.0,part_2,go,150.0,200.0,1.0,,,,,,,,,blue,square
0.0,5.0,1.0,1.0,6.0,6.0,310.3122070001518,4.0,0.0,part_2,stop,150.0,200.0,3.0,,,,,,,,,white,I
0.0,8.0,4.0,1.0,6.0,6.0,312.0909260001099,4.0,0.0,part_2,go,150.0,150.0,1.0,,,,,,,,,gray,circle
0.0,5.0,1.0,1.0,6.0,6.0,348.3725569999478,4.0,0.0,part_2,go,150.0,150.0,1.0,,,,,,,,,white,I
0.0,2.0,2.0,0.0,5.0,5.0,319.2877810001846,4.0,0.0,part_2,go,150.0,150.0,1.0,,,,,,,,,orange,diamond
0.0,5.0,1.0,1.0,5.0,5.0,326.6649340002914,4.0,0.0,part_2,stop,150.0,150.0,3.0,,,,,,,,,white,I
0.0,2.0,2.0,0.0,5.0,5.0,338.6679129998811,4.0,0.0,part_2,go,100.0,150.0,1.0,,,,,,,,,orange,diamond
0.0,5.0,1.0,1.0,5.0,0.0,0.0,4.0,0.0,part_2,stop,100.0,150.0,4.0,,,,,,,,,white,I
0.0,7.0,3.0,1.0,5.0,0.0,0.0,4.0,0.0,part_2,stop,150.0,150.0,4.0,,,,,,,,,magenta,hexagon
0.0,1.0,1.0,0.0,5.0,5.0,526.8694259998483,4.0,0.0,part_2,go,200.0,150.0,1.0,,,,,,,,,cyan,cross
0.0,5.0,1.0,1.0,6.0,6.0,283.3834899997782,4.0,0.0,part_2,stop,200.0,150.0,3.0,,,,,,,,,white,I
0.0,2.0,2.0,0.0,6.0,6.0,310.8134750000317,4.0,0.0,part_2,go,200.0,100.0,1.0,,,,,,,,,orange,diamond
0.0,5.0,1.0,1.0,6.0,6.0,478.4099179996701,4.0,0.0,part_2,go,200.0,100.0,1.0,,,,,,,,,white,I
0.0,2.0,2.0,0.0,5.0,5.0,354.5360980001533,4.0,0.0,part_2,go,200.0,100.0,1.0,,,,,,,,,orange,diamond
0.0,4.0,4.0,0.0,6.0,6.0,388.496595000106,4.0,0.0,part_2,go,200.0,100.0,1.0,,,,,,,,,green,triangle
0.0,5.0,1.0,1.0,6.0,0.0,0.0,4.0,0.0,part_2,stop,200.0,100.0,4.0,,,,,,,,,white,I
0.0,2.0,2.0,0.0,6.0,6.0,327.4492460000147,4.0,0.0,part_2,go,200.0,150.0,1.0,,,,,,,,,orange,diamond
0.0,6.0,2.0,1.0,6.0,6.0,543.2957680000072,4.0,0.0,part_2,go,200.0,150.0,1.0,,,,,,,,,yellow,flipped triangle
0.0,5.0,1.0,1.0,5.0,0.0,0.0,5.0,0.0,part_2,stop,200.0,150.0,4.0,,,,,,,,,white,I
0.0,8.0,4.0,1.0,5.0,5.0,434.0831890003755,5.0,0.0,part_2,stop,250.0,150.0,3.0,,,,,,,,,gray,circle
0.0,1.0,1.0,0.0,6.0,6.0,360.805094999705,5.0,0.0,part_2,go,200.0,150.0,1.0,,,,,,,,,cyan,cross
0.0,3.0,3.0,0.0,6.0,6.0,435.3831819998959,5.0,0.0,part_2,go,200.0,150.0,1.0,,,,,,,,,blue,square
0.0,6.0,2.0,1.0,6.0,0.0,0.0,5.0,0.0,part_2,stop,200.0,150.0,4.0,,,,,,,,,yellow,flipped triangle
0.0,8.0,4.0,1.0,5.0,0.0,0.0,5.0,0.0,part_2,stop,200.0,200.0,4.0,,,,,,,,,gray,circle
0.0,6.0,2.0,1.0,5.0,0.0,0.0,5.0,0.0,part_2,stop,250.0,200.0,4.0,,,,,,,,,yellow,flipped triangle
0.0,3.0,3.0,0.0,6.0,6.0,319.9840529996436,5.0,0.0,part_2,go,300.0,200.0,1.0,,,,,,,,,blue,square
0.0,2.0,2.0,0.0,5.0,5.0,536.2834829993517,5.0,0.0,part_2,go,300.0,200.0,1.0,,,,,,,,,orange,diamond
0.0,6.0,2.0,1.0,5.0,5.0,444.2082759996992,5.0,0.0,part_2,stop,300.0,200.0,3.0,,,,,,,,,yellow,flipped triangle
0.0,5.0,1.0,1.0,6.0,0.0,0.0,5.0,0.0,part_2,stop,250.0,200.0,4.0,,,,,,,,,white,I
0.0,2.0,2.0,0.0,6.0,6.0,478.8409480006521,5.0,0.0,part_2,go,250.0,250.0,1.0,,,,,,,,,orange,diamond
0.0,3.0,3.0,0.0,6.0,6.0,401.4609139994718,5.0,0.0,part_2,go,250.0,250.0,1.0,,,,,,,,,blue,square
0.0,4.0,4.0,0.0,5.0,5.0,505.46103499982564,5.0,0.0,part_2,go,250.0,250.0,1.0,,,,,,,,,green,triangle
0.0,4.0,4.0,0.0,6.0,6.0,467.2720710004796,5.0,0.0,part_2,go,250.0,250.0,1.0,,,,,,,,,green,triangle
0.0,4.0,4.0,0.0,5.0,5.0,405.4406200002631,5.0,0.0,part_2,go,250.0,250.0,1.0,,,,,,,,,green,triangle
0.0,6.0,2.0,1.0,5.0,5.0,507.9755030001252,5.0,0.0,part_2,go,250.0,250.0,1.0,,,,,,,,,yellow,flipped triangle
0.0,5.0,1.0,1.0,6.0,6.0,560.435704000156,5.0,0.0,part_2,go,250.0,250.0,1.0,,,,,,,,,white,I
0.0,6.0,2.0,1.0,6.0,6.0,440.9913399995275,5.0,0.0,part_2,stop,250.0,250.0,3.0,,,,,,,,,yellow,flipped triangle
0.0,6.0,2.0,1.0,6.0,0.0,0.0,5.0,0.0,part_2,stop,250.0,200.0,4.0,,,,,,,,,yellow,flipped triangle
0.0,7.0,3.0,1.0,5.0,5.0,481.08460900039057,5.0,0.0,part_2,go,250.0,250.0,1.0,,,,,,,,,magenta,hexagon
0.0,3.0,3.0,0.0,6.0,6.0,452.9581710003185,5.0,0.0,part_2,go,250.0,250.0,1.0,,,,,,,,,blue,square
0.0,8.0,4.0,1.0,5.0,5.0,439.4674189998113,5.0,0.0,part_2,stop,250.0,250.0,3.0,,,,,,,,,gray,circle
0.0,3.0,3.0,0.0,6.0,6.0,604.8569559998214,5.0,0.0,part_2,go,200.0,250.0,1.0,,,,,,,,,blue,square
0.0,7.0,3.0,1.0,5.0,5.0,309.8087320004197,5.0,0.0,part_2,stop,200.0,250.0,3.0,,,,,,,,,magenta,hexagon
0.0,3.0,3.0,0.0,6.0,6.0,429.5217870003398,5.0,0.0,part_2,go,150.0,250.0,1.0,,,,,,,,,blue,square
0.0,6.0,2.0,1.0,5.0,0.0,0.0,5.0,0.0,part_2,stop,150.0,250.0,4.0,,,,,,,,,yellow,flipped triangle
0.0,3.0,3.0,0.0,6.0,6.0,526.8901579993326,5.0,0.0,part_2,go,200.0,250.0,1.0,,,,,,,,,blue,square
0.0,3.0,3.0,0.0,5.0,5.0,550.813769999877,5.0,0.0,part_2,go,200.0,250.0,1.0,,,,,,,,,blue,square
0.0,6.0,2.0,1.0,5.0,0.0,0.0,5.0,0.0,part_2,stop,200.0,250.0,4.0,,,,,,,,,yellow,flipped triangle
0.0,6.0,2.0,1.0,5.0,0.0,0.0,5.0,0.0,part_2,stop,250.0,250.0,4.0,,,,,,,,,yellow,flipped triangle
0.0,6.0,2.0,1.0,5.0,0.0,0.0,5.0,0.0,part_2,stop,300.0,250.0,4.0,,,,,,,,,yellow,flipped triangle
0.0,3.0,3.0,0.0,5.0,5.0,516.3702669997292,5.0,0.0,part_2,go,350.0,250.0,1.0,,,,,,,,,blue,square
0.0,5.0,1.0,1.0,5.0,5.0,566.0074839997833,5.0,0.0,part_2,go,350.0,250.0,1.0,,,,,,,,,white,I
0.0,2.0,2.0,0.0,5.0,5.0,404.8393510001915,5.0,0.0,part_2,go,350.0,250.0,1.0,,,,,,,,,orange,diamond
0.0,7.0,3.0,1.0,5.0,5.0,532.166134000363,5.0,0.0,part_2,stop,350.0,250.0,3.0,,,,,,,,,magenta,hexagon
0.0,2.0,2.0,0.0,5.0,5.0,660.8166969999729,6.0,0.0,part_2,go,300.0,250.0,1.0,,,,,,,,,orange,diamond
0.0,4.0,4.0,0.0,6.0,6.0,382.199077000223,6.0,0.0,part_2,go,300.0,250.0,1.0,,,,,,,,,green,triangle
0.0,4.0,4.0,0.0,5.0,5.0,385.1902100004736,6.0,0.0,part_2,go,300.0,250.0,1.0,,,,,,,,,green,triangle
0.0,1.0,1.0,0.0,5.0,5.0,368.0756399999154,6.0,0.0,part_2,go,300.0,250.0,1.0,,,,,,,,,cyan,cross
0.0,1.0,1.0,0.0,6.0,6.0,445.0980760002494,6.0,0.0,part_2,go,300.0,250.0,1.0,,,,,,,,,cyan,cross
0.0,6.0,2.0,1.0,6.0,0.0,0.0,6.0,0.0,part_2,stop,300.0,250.0,4.0,,,,,,,,,yellow,flipped triangle
0.0,1.0,1.0,0.0,5.0,5.0,581.5669739995428,6.0,0.0,part_2,go,300.0,300.0,1.0,,,,,,,,,cyan,cross
0.0,1.0,1.0,0.0,6.0,6.0,463.5917700006757,6.0,0.0,part_2,go,300.0,300.0,1.0,,,,,,,,,cyan,cross
0.0,3.0,3.0,0.0,6.0,6.0,329.4861220001621,6.0,0.0,part_2,go,300.0,300.0,1.0,,,,,,,,,blue,square
0.0,1.0,1.0,0.0,5.0,5.0,407.0901779996347,6.0,0.0,part_2,go,300.0,300.0,1.0,,,,,,,,,cyan,cross
0.0,1.0,1.0,0.0,6.0,6.0,387.9471390000617,6.0,0.0,part_2,go,300.0,300.0,1.0,,,,,,,,,cyan,cross
0.0,7.0,3.0,1.0,5.0,5.0,465.6561210003929,6.0,0.0,part_2,stop,300.0,300.0,3.0,,,,,,,,,magenta,hexagon
0.0,8.0,4.0,1.0,5.0,0.0,0.0,6.0,0.0,part_2,stop,250.0,300.0,4.0,,,,,,,,,gray,circle
0.0,4.0,4.0,0.0,5.0,5.0,552.4260450001748,6.0,0.0,part_2,go,300.0,300.0,1.0,,,,,,,,,green,triangle
0.0,5.0,1.0,1.0,6.0,0.0,0.0,6.0,0.0,part_2,stop,300.0,300.0,4.0,,,,,,,,,white,I
0.0,8.0,4.0,1.0,6.0,0.0,0.0,6.0,0.0,part_2,stop,300.0,350.0,4.0,,,,,,,,,gray,circle
0.0,4.0,4.0,0.0,6.0,6.0,417.2741699994731,6.0,0.0,part_2,go,300.0,400.0,1.0,,,,,,,,,green,triangle
0.0,1.0,1.0,0.0,5.0,5.0,555.4865949998202,6.0,0.0,part_2,go,300.0,400.0,1.0,,,,,,,,,cyan,cross
0.0,5.0,1.0,1.0,5.0,0.0,0.0,6.0,0.0,part_2,stop,300.0,400.0,4.0,,,,,,,,,white,I
0.0,3.0,3.0,0.0,6.0,6.0,467.1128879999742,6.0,0.0,part_2,go,350.0,400.0,1.0,,,,,,,,,blue,square
0.0,8.0,4.0,1.0,5.0,5.0,413.0764339997768,6.0,0.0,part_2,go,350.0,400.0,1.0,,,,,,,,,gray,circle
0.0,7.0,3.0,1.0,6.0,6.0,352.5110310001764,6.0,0.0,part_2,stop,350.0,400.0,3.0,,,,,,,,,magenta,hexagon
0.0,4.0,4.0,0.0,5.0,5.0,382.2345929993389,6.0,0.0,part_2,go,350.0,350.0,1.0,,,,,,,,,green,triangle
0.0,7.0,3.0,1.0,6.0,6.0,482.1208450002814,6.0,0.0,part_2,go,350.0,350.0,1.0,,,,,,,,,magenta,hexagon
0.0,3.0,3.0,0.0,6.0,6.0,397.5009509995288,6.0,0.0,part_2,go,350.0,350.0,1.0,,,,,,,,,blue,square
0.0,1.0,1.0,0.0,6.0,6.0,524.9049949998152,6.0,0.0,part_2,go,350.0,350.0,1.0,,,,,,,,,cyan,cross
0.0,6.0,2.0,1.0,5.0,5.0,576.6498439998031,6.0,0.0,part_2,stop,350.0,350.0,3.0,,,,,,,,,yellow,flipped triangle
0.0,1.0,1.0,0.0,5.0,5.0,576.8463060003342,6.0,0.0,part_2,go,300.0,350.0,1.0,,,,,,,,,cyan,cross
0.0,3.0,3.0,0.0,6.0,6.0,574.9138150004001,6.0,0.0,part_2,go,300.0,350.0,1.0,,,,,,,,,blue,square
0.0,5.0,1.0,1.0,6.0,0.0,0.0,6.0,0.0,part_2,stop,300.0,350.0,4.0,,,,,,,,,white,I
0.0,1.0,1.0,0.0,5.0,5.0,547.643082999457,6.0,0.0,part_2,go,300.0,400.0,1.0,,,,,,,,,cyan,cross
0.0,6.0,2.0,1.0,6.0,6.0,445.9815720001643,6.0,0.0,part_2,go,300.0,400.0,1.0,,,,,,,,,yellow,flipped triangle
0.0,3.0,3.0,0.0,5.0,5.0,496.4771180002572,6.0,0.0,part_2,go,300.0,400.0,1.0,,,,,,,,,blue,square
0.0,8.0,4.0,1.0,6.0,6.0,505.48909600001934,6.0,0.0,part_2,stop,300.0,400.0,3.0,,,,,,,,,gray,circle
0.0,2.0,2.0,0.0,5.0,5.0,579.0211749999798,6.0,0.0,part_2,go,300.0,350.0,1.0,,,,,,,,,orange,diamond
0.0,4.0,4.0,0.0,5.0,5.0,391.3272589998087,6.0,0.0,part_2,go,300.0,350.0,1.0,,,,,,,,,green,triangle
0.0,8.0,4.0,1.0,5.0,5.0,602.4698960000023,7.0,0.0,part_2,stop,300.0,350.0,3.0,,,,,,,,,gray,circle
0.0,3.0,3.0,0.0,5.0,5.0,587.9896090000329,7.0,0.0,part_2,go,250.0,350.0,1.0,,,,,,,,,blue,square
0.0,5.0,1.0,1.0,5.0,5.0,340.484307999759,7.0,0.0,part_2,stop,250.0,350.0,3.0,,,,,,,,,white,I
0.0,7.0,3.0,1.0,6.0,6.0,505.4632840001432,7.0,0.0,part_2,stop,200.0,350.0,3.0,,,,,,,,,magenta,hexagon
0.0,7.0,3.0,1.0,6.0,0.0,0.0,7.0,0.0,part_2,stop,200.0,300.0,4.0,,,,,,,,,magenta,hexagon
0.0,3.0,3.0,0.0,5.0,5.0,789.0945700000884,7.0,0.0,part_2,go,200.0,350.0,1.0,,,,,,,,,blue,square
0.0,4.0,4.0,0.0,6.0,6.0,489.905577999707,7.0,0.0,part_2,go,200.0,350.0,1.0,,,,,,,,,green,triangle
0.0,3.0,3.0,0.0,6.0,6.0,516.5614560000904,7.0,0.0,part_2,go,200.0,350.0,1.0,,,,,,,,,blue,square
0.0,1.0,1.0,0.0,6.0,6.0,457.1131339998828,7.0,0.0,part_2,go,200.0,350.0,1.0,,,,,,,,,cyan,cross
0.0,1.0,1.0,0.0,6.0,6.0,610.1907900001606,7.0,0.0,part_2,go,200.0,350.0,1.0,,,,,,,,,cyan,cross
0.0,5.0,1.0,1.0,6.0,0.0,0.0,7.0,0.0,part_2,stop,200.0,350.0,4.0,,,,,,,,,white,I
0.0,2.0,2.0,0.0,6.0,6.0,667.4503589993037,7.0,0.0,part_2,go,200.0,400.0,1.0,,,,,,,,,orange,diamond
0.0,1.0,1.0,0.0,5.0,5.0,477.8396189994964,7.0,0.0,part_2,go,200.0,400.0,1.0,,,,,,,,,cyan,cross
0.0,3.0,3.0,0.0,5.0,5.0,489.7158300000228,7.0,0.0,part_2,go,200.0,400.0,1.0,,,,,,,,,blue,square
0.0,8.0,4.0,1.0,5.0,0.0,0.0,7.0,0.0,part_2,stop,200.0,400.0,4.0,,,,,,,,,gray,circle
0.0,5.0,1.0,1.0,6.0,6.0,602.702013000453,7.0,0.0,part_2,go,250.0,400.0,1.0,,,,,,,,,white,I
0.0,7.0,3.0,1.0,6.0,0.0,0.0,7.0,0.0,part_2,stop,250.0,400.0,4.0,,,,,,,,,magenta,hexagon
0.0,6.0,2.0,1.0,6.0,6.0,558.0922409999403,7.0,0.0,part_2,stop,250.0,450.0,3.0,,,,,,,,,yellow,flipped triangle
0.0,8.0,4.0,1.0,5.0,0.0,0.0,7.0,0.0,part_2,stop,250.0,400.0,4.0,,,,,,,,,gray,circle
0.0,3.0,3.0,0.0,5.0,5.0,503.90964999951393,7.0,0.0,part_2,go,300.0,400.0,1.0,,,,,,,,,blue,square
0.0,2.0,2.0,0.0,6.0,6.0,519.4324470003266,7.0,0.0,part_2,go,300.0,400.0,1.0,,,,,,,,,orange,diamond
0.0,6.0,2.0,1.0,6.0,6.0,529.185057000177,7.0,0.0,part_2,stop,300.0,400.0,3.0,,,,,,,,,yellow,flipped triangle
0.0,6.0,2.0,1.0,6.0,6.0,466.9250219994865,7.0,0.0,part_2,stop,300.0,350.0,3.0,,,,,,,,,yellow,flipped triangle
0.0,5.0,1.0,1.0,5.0,5.0,497.4255789993549,7.0,0.0,part_2,go,300.0,300.0,1.0,,,,,,,,,white,I
0.0,4.0,4.0,0.0,6.0,6.0,514.9679969999852,7.0,0.0,part_2,go,300.0,300.0,1.0,,,,,,,,,green,triangle
0.0,4.0,4.0,0.0,6.0,6.0,502.7466319997984,7.0,0.0,part_2,go,300.0,300.0,1.0,,,,,,,,,green,triangle
0.0,4.0,4.0,0.0,5.0,5.0,662.713514000643,7.0,0.0,part_2,go,300.0,300.0,1.0,,,,,,,,,green,triangle
0.0,8.0,4.0,1.0,6.0,0.0,0.0,7.0,0.0,part_2,stop,300.0,300.0,4.0,,,,,,,,,gray,circle
0.0,4.0,4.0,0.0,6.0,6.0,720.8262720005223,7.0,0.0,part_2,go,300.0,350.0,1.0,,,,,,,,,green,triangle
0.0,5.0,1.0,1.0,5.0,0.0,0.0,7.0,0.0,part_2,stop,300.0,350.0,4.0,,,,,,,,,white,I
0.0,4.0,4.0,0.0,6.0,6.0,633.2734709994838,7.0,0.0,part_2,go,350.0,350.0,1.0,,,,,,,,,green,triangle
0.0,1.0,1.0,0.0,5.0,5.0,491.3621759997113,7.0,0.0,part_2,go,350.0,350.0,1.0,,,,,,,,,cyan,cross
0.0,3.0,3.0,0.0,6.0,6.0,435.2221250001093,7.0,0.0,part_2,go,350.0,350.0,1.0,,,,,,,,,blue,square
0.0,4.0,4.0,0.0,5.0,5.0,451.6931999996814,7.0,0.0,part_2,go,350.0,350.0,1.0,,,,,,,,,green,triangle
0.0,1.0,1.0,0.0,6.0,6.0,388.4202379995258,7.0,0.0,part_2,go,350.0,350.0,1.0,,,,,,,,,cyan,cross
0.0,1.0,1.0,0.0,6.0,6.0,421.0470879997956,7.0,0.0,part_2,go,350.0,350.0,1.0,,,,,,,,,cyan,cross
0.0,4.0,4.0,0.0,5.0,5.0,717.1607990003395,8.0,0.0,part_2,go,350.0,350.0,1.0,,,,,,,,,green,triangle
0.0,8.0,4.0,1.0,6.0,0.0,0.0,8.0,0.0,part_2,stop,350.0,350.0,4.0,,,,,,,,,gray,circle
0.0,1.0,1.0,0.0,6.0,6.0,612.090438999985,8.0,0.0,part_2,go,350.0,400.0,1.0,,,,,,,,,cyan,cross
0.0,6.0,2.0,1.0,5.0,5.0,447.4071969998476,8.0,0.0,part_2,stop,350.0,400.0,3.0,,,,,,,,,yellow,flipped triangle
0.0,1.0,1.0,0.0,5.0,5.0,428.0868870000631,8.0,0.0,part_2,go,300.0,400.0,1.0,,,,,,,,,cyan,cross
0.0,6.0,2.0,1.0,6.0,6.0,402.201634999983,8.0,0.0,part_2,go,300.0,400.0,1.0,,,,,,,,,yellow,flipped triangle
0.0,1.0,1.0,0.0,5.0,5.0,465.4456979997121,8.0,0.0,part_2,go,300.0,400.0,1.0,,,,,,,,,cyan,cross
0.0,1.0,1.0,0.0,6.0,6.0,338.21104300022847,8.0,0.0,part_2,go,300.0,400.0,1.0,,,,,,,,,cyan,cross
0.0,8.0,4.0,1.0,6.0,0.0,0.0,8.0,0.0,part_2,stop,300.0,400.0,4.0,,,,,,,,,gray,circle
0.0,1.0,1.0,0.0,6.0,6.0,449.2659829993499,8.0,0.0,part_2,go,300.0,450.0,1.0,,,,,,,,,cyan,cross
0.0,2.0,2.0,0.0,5.0,5.0,392.8697449991887,8.0,0.0,part_2,go,300.0,450.0,1.0,,,,,,,,,orange,diamond
0.0,8.0,4.0,1.0,6.0,0.0,0.0,8.0,0.0,part_2,stop,300.0,450.0,4.0,,,,,,,,,gray,circle
0.0,8.0,4.0,1.0,5.0,0.0,0.0,8.0,0.0,part_2,stop,300.0,500.0,4.0,,,,,,,,,gray,circle
0.0,2.0,2.0,0.0,6.0,6.0,438.8734290005232,8.0,0.0,part_2,go,350.0,500.0,1.0,,,,,,,,,orange,diamond
0.0,3.0,3.0,0.0,5.0,5.0,454.2947180007104,8.0,0.0,part_2,go,350.0,500.0,1.0,,,,,,,,,blue,square
0.0,6.0,2.0,1.0,5.0,5.0,399.402807000115,8.0,0.0,part_2,stop,350.0,500.0,3.0,,,,,,,,,yellow,flipped triangle
0.0,5.0,1.0,1.0,5.0,5.0,808.1535419996726,8.0,0.0,part_2,go,300.0,500.0,1.0,,,,,,,,,white,I
0.0,4.0,4.0,0.0,6.0,6.0,330.9756720000223,8.0,0.0,part_2,go,300.0,500.0,1.0,,,,,,,,,green,triangle
0.0,6.0,2.0,1.0,6.0,0.0,0.0,8.0,0.0,part_2,stop,300.0,500.0,4.0,,,,,,,,,yellow,flipped triangle
0.0,6.0,2.0,1.0,5.0,0.0,0.0,8.0,0.0,part_2,stop,300.0,550.0,4.0,,,,,,,,,yellow,flipped triangle
0.0,1.0,1.0,0.0,6.0,6.0,478.6737900003572,8.0,0.0,part_2,go,350.0,550.0,1.0,,,,,,,,,cyan,cross
0.0,3.0,3.0,0.0,6.0,6.0,419.3919589997676,8.0,0.0,part_2,go,350.0,550.0,1.0,,,,,,,,,blue,square
0.0,6.0,2.0,1.0,5.0,5.0,336.2298559995906,8.0,0.0,part_2,stop,350.0,550.0,3.0,,,,,,,,,yellow,flipped triangle
0.0,3.0,3.0,0.0,5.0,5.0,507.7244320000318,8.0,0.0,part_2,go,300.0,550.0,1.0,,,,,,,,,blue,square
0.0,2.0,2.0,0.0,5.0,5.0,418.8347849994898,8.0,0.0,part_2,go,300.0,550.0,1.0,,,,,,,,,orange,diamond
0.0,8.0,4.0,1.0,6.0,6.0,370.0465479996637,8.0,0.0,part_2,go,300.0,550.0,1.0,,,,,,,,,gray,circle
0.0,5.0,1.0,1.0,6.0,6.0,590.323843999613,8.0,0.0,part_2,stop,300.0,550.0,3.0,,,,,,,,,white,I
0.0,5.0,1.0,1.0,6.0,6.0,486.0841360004997,8.0,0.0,part_2,stop,300.0,500.0,3.0,,,,,,,,,white,I
0.0,4.0,4.0,0.0,6.0,6.0,610.40184400008,8.0,0.0,part_2,go,300.0,450.0,1.0,,,,,,,,,green,triangle
0.0,8.0,4.0,1.0,5.0,0.0,0.0,8.0,0.0,part_2,stop,300.0,450.0,4.0,,,,,,,,,gray,circle
0.0,8.0,4.0,1.0,5.0,0.0,0.0,8.0,0.0,part_2,stop,350.0,450.0,4.0,,,,,,,,,gray,circle
0.0,4.0,4.0,0.0,6.0,6.0,651.8654689998584,8.0,0.0,part_2,go,400.0,450.0,1.0,,,,,,,,,green,triangle
0.0,8.0,4.0,1.0,5.0,0.0,0.0,8.0,0.0,part_2,stop,400.0,450.0,4.0,,,,,,,,,gray,circle
0.0,5.0,1.0,1.0,5.0,5.0,565.3035210007147,8.0,0.0,part_2,stop,450.0,450.0,3.0,,,,,,,,,white,I
0.0,7.0,3.0,1.0,6.0,6.0,487.6613520000319,8.0,0.0,part_2,stop,400.0,450.0,3.0,,,,,,,,,magenta,hexagon
0.0,2.0,2.0,0.0,6.0,6.0,497.4638869998671,8.0,0.0,part_2,go,400.0,400.0,1.0,,,,,,,,,orange,diamond
0.0,7.0,3.0,1.0,7.0,4.0,2392.9191350007386,1.0,1.0,part_3,go,0.0,0.0,0.0,147.0,3.0,245.0,98.0,294.0,147.0,196.0,49.0,magenta,hexagon
0.0,8.0,4.0,1.0,7.0,6.0,4530.929507999645,1.0,1.0,part_3,go,0.0,0.0,0.0,108.0,2.0,270.0,162.0,324.0,216.0,54.0,108.0,gray,circle
0.0,4.0,4.0,0.0,7.0,3.0,3926.468648999617,1.0,1.0,part_3,go,0.0,0.0,0.0,176.0,4.0,264.0,88.0,176.0,44.0,132.0,220.0,green,triangle
0.0,5.0,1.0,1.0,7.0,6.0,4903.832085000431,1.0,1.0,part_3,go,0.0,0.0,0.0,216.0,4.0,108.0,162.0,54.0,270.0,324.0,216.0,white,I
0.0,3.0,3.0,0.0,7.0,5.0,4238.635679999788,1.0,1.0,part_3,go,0.0,0.0,0.0,196.0,4.0,147.0,245.0,98.0,49.0,196.0,294.0,blue,square
0.0,5.0,1.0,1.0,7.0,4.0,2093.6897599995064,1.0,1.0,part_3,go,0.0,0.0,0.0,108.0,2.0,324.0,54.0,216.0,108.0,162.0,270.0,white,I
0.0,7.0,3.0,1.0,7.0,6.0,3211.0071320003044,1.0,2.0,part_3,go,0.0,0.0,0.0,156.0,4.0,195.0,78.0,117.0,234.0,39.0,156.0,magenta,hexagon
0.0,8.0,4.0,1.0,7.0,6.0,2589.3827440004316,1.0,1.0,part_3,go,0.0,0.0,0.0,102.0,3.0,34.0,170.0,68.0,136.0,204.0,102.0,gray,circle
0.0,2.0,2.0,0.0,7.0,2.0,3561.3074339999,1.0,1.0,part_3,go,0.0,0.0,0.0,196.0,4.0,294.0,196.0,147.0,98.0,49.0,245.0,orange,diamond
0.0,7.0,3.0,1.0,7.0,2.0,3436.821133000194,1.0,1.0,part_3,go,0.0,0.0,0.0,136.0,4.0,102.0,136.0,34.0,68.0,204.0,170.0,magenta,hexagon
0.0,7.0,3.0,1.0,7.0,2.0,3412.324599000385,1.0,1.0,part_3,go,0.0,0.0,0.0,216.0,4.0,54.0,216.0,162.0,108.0,324.0,270.0,magenta,hexagon
0.0,7.0,3.0,1.0,7.0,5.0,2583.841415000279,1.0,1.0,part_3,go,0.0,0.0,0.0,245.0,5.0,98.0,49.0,294.0,196.0,245.0,147.0,magenta,hexagon
0.0,1.0,1.0,0.0,7.0,6.0,3616.7732330004583,1.0,1.0,part_3,go,0.0,0.0,0.0,170.0,5.0,68.0,102.0,136.0,204.0,34.0,170.0,cyan,cross
0.0,7.0,3.0,1.0,7.0,1.0,2561.898893000034,1.0,1.0,part_3,go,0.0,0.0,0.0,156.0,4.0,156.0,195.0,234.0,78.0,39.0,117.0,magenta,hexagon
0.0,4.0,4.0,0.0,7.0,1.0,2399.9272490000294,1.0,1.0,part_3,go,0.0,0.0,0.0,170.0,5.0,170.0,68.0,102.0,34.0,136.0,204.0,green,triangle
0.0,7.0,3.0,1.0,7.0,5.0,3320.489736000127,1.0,1.0,part_3,go,0.0,0.0,0.0,204.0,6.0,102.0,68.0,136.0,170.0,204.0,34.0,magenta,hexagon
0.0,6.0,2.0,1.0,7.0,4.0,3620.485292999547,1.0,1.0,part_3,go,0.0,0.0,0.0,270.0,5.0,216.0,54.0,324.0,270.0,108.0,162.0,yellow,flipped triangle
0.0,7.0,3.0,1.0,7.0,2.0,3238.532733000284,1.0,1.0,part_3,go,0.0,0.0,0.0,176.0,4.0,44.0,176.0,132.0,264.0,220.0,88.0,magenta,hexagon
0.0,6.0,2.0,1.0,7.0,6.0,2589.800737000587,1.0,1.0,part_3,go,0.0,0.0,0.0,156.0,4.0,78.0,234.0,117.0,39.0,195.0,156.0,yellow,flipped triangle
0.0,5.0,1.0,1.0,7.0,5.0,2327.5397670004168,1.0,1.0,part_3,go,0.0,0.0,0.0,264.0,6.0,44.0,176.0,220.0,132.0,264.0,88.0,white,I
0.0,8.0,4.0,1.0,7.0,1.0,1995.4293390001112,2.0,1.0,part_3,go,0.0,0.0,0.0,196.0,4.0,196.0,98.0,49.0,147.0,245.0,294.0,gray,circle
0.0,6.0,2.0,1.0,7.0,4.0,2453.292085000612,2.0,1.0,part_3,go,0.0,0.0,0.0,264.0,6.0,220.0,88.0,176.0,264.0,132.0,44.0,yellow,flipped triangle
0.0,3.0,3.0,0.0,7.0,3.0,1882.4285979999331,2.0,1.0,part_3,go,0.0,0.0,0.0,170.0,5.0,136.0,34.0,170.0,204.0,102.0,68.0,blue,square
0.0,5.0,1.0,1.0,7.0,5.0,2803.3643910002866,2.0,1.0,part_3,go,0.0,0.0,0.0,196.0,4.0,147.0,245.0,49.0,98.0,196.0,294.0,white,I
0.0,4.0,4.0,0.0,7.0,3.0,2695.784399000331,2.0,1.0,part_3,go,0.0,0.0,0.0,195.0,5.0,234.0,117.0,195.0,39.0,156.0,78.0,green,triangle
0.0,1.0,1.0,0.0,7.0,4.0,2100.6223149997822,2.0,1.0,part_3,go,0.0,0.0,0.0,162.0,3.0,324.0,216.0,54.0,162.0,270.0,108.0,cyan,cross
0.0,6.0,2.0,1.0,7.0,1.0,3220.6030620000092,2.0,1.0,part_3,go,0.0,0.0,0.0,117.0,3.0,117.0,234.0,78.0,195.0,39.0,156.0,yellow,flipped triangle
0.0,2.0,2.0,0.0,7.0,5.0,2232.5463930001206,2.0,1.0,part_3,go,0.0,0.0,0.0,156.0,4.0,39.0,117.0,234.0,195.0,156.0,78.0,orange,diamond
0.0,1.0,1.0,0.0,7.0,1.0,4023.9901600007215,2.0,1.0,part_3,go,0.0,0.0,0.0,176.0,4.0,176.0,220.0,132.0,88.0,44.0,264.0,cyan,cross
0.0,1.0,1.0,0.0,7.0,5.0,3728.7850799993976,2.0,1.0,part_3,go,0.0,0.0,0.0,234.0,6.0,39.0,195.0,117.0,78.0,234.0,156.0,cyan,cross
0.0,4.0,4.0,0.0,7.0,3.0,2647.102754000116,2.0,1.0,part_3,go,0.0,0.0,0.0,117.0,3.0,234.0,195.0,117.0,78.0,156.0,39.0,green,triangle
0.0,4.0,4.0,0.0,7.0,5.0,2742.1732530001464,2.0,1.0,part_3,go,0.0,0.0,0.0,270.0,5.0,216.0,54.0,108.0,324.0,270.0,162.0,green,triangle
0.0,7.0,3.0,1.0,7.0,3.0,1659.3232649993297,2.0,1.0,part_3,go,0.0,0.0,0.0,324.0,6.0,270.0,162.0,324.0,54.0,108.0,216.0,magenta,hexagon
0.0,6.0,2.0,1.0,7.0,1.0,2198.682254999767,2.0,1.0,part_3,go,0.0,0.0,0.0,196.0,4.0,196.0,98.0,147.0,245.0,294.0,49.0,yellow,flipped triangle
0.0,4.0,4.0,0.0,7.0,1.0,2581.405474999883,2.0,1.0,part_3,go,0.0,0.0,0.0,216.0,4.0,216.0,54.0,270.0,162.0,324.0,108.0,green,triangle
0.0,8.0,4.0,1.0,7.0,2.0,3195.837644000676,2.0,1.0,part_3,go,0.0,0.0,0.0,88.0,2.0,176.0,88.0,264.0,44.0,132.0,220.0,gray,circle
0.0,2.0,2.0,0.0,7.0,5.0,2502.875803000279,2.0,1.0,part_3,go,0.0,0.0,0.0,156.0,4.0,234.0,78.0,195.0,39.0,156.0,117.0,orange,diamond
0.0,8.0,4.0,1.0,7.0,1.0,2156.336003999968,2.0,1.0,part_3,go,0.0,0.0,0.0,204.0,6.0,204.0,68.0,136.0,170.0,34.0,102.0,gray,circle
0.0,2.0,2.0,0.0,7.0,3.0,3535.6611059996794,2.0,1.0,part_3,go,0.0,0.0,0.0,136.0,4.0,102.0,68.0,136.0,34.0,170.0,204.0,orange,diamond
0.0,6.0,2.0,1.0,7.0,2.0,3219.0092649998405,2.0,1.0,part_3,go,0.0,0.0,0.0,270.0,5.0,216.0,270.0,162.0,324.0,108.0,54.0,yellow,flipped triangle
0.0,1.0,1.0,0.0,7.0,5.0,2271.3856249993114,3.0,1.0,part_3,go,0.0,0.0,0.0,195.0,5.0,117.0,156.0,234.0,78.0,195.0,39.0,cyan,cross
0.0,1.0,1.0,0.0,7.0,1.0,2090.956493999329,3.0,1.0,part_3,go,0.0,0.0,0.0,264.0,6.0,264.0,44.0,176.0,132.0,88.0,220.0,cyan,cross
0.0,8.0,4.0,1.0,7.0,4.0,2949.269392000133,3.0,1.0,part_3,go,0.0,0.0,0.0,117.0,3.0,39.0,156.0,78.0,117.0,195.0,234.0,gray,circle
0.0,4.0,4.0,0.0,7.0,2.0,1934.8028940003132,3.0,1.0,part_3,go,0.0,0.0,0.0,170.0,5.0,34.0,170.0,102.0,68.0,136.0,204.0,green,triangle
0.0,3.0,3.0,0.0,7.0,4.0,3264.9622629996884,3.0,1.0,part_3,go,0.0,0.0,0.0,156.0,4.0,39.0,234.0,195.0,156.0,117.0,78.0,blue,square
0.0,4.0,4.0,0.0,7.0,2.0,2871.412894000059,3.0,1.0,part_3,go,0.0,0.0,0.0,196.0,4.0,245.0,196.0,49.0,147.0,98.0,294.0,green,triangle
0.0,1.0,1.0,0.0,7.0,3.0,1760.3187559998332,3.0,1.0,part_3,go,0.0,0.0,0.0,245.0,5.0,98.0,196.0,245.0,49.0,147.0,294.0,cyan,cross
0.0,8.0,4.0,1.0,7.0,4.0,2745.895414000188,3.0,1.0,part_3,go,0.0,0.0,0.0,196.0,4.0,49.0,147.0,98.0,196.0,294.0,245.0,gray,circle
0.0,3.0,3.0,0.0,7.0,6.0,2911.000189999868,3.0,1.0,part_3,go,0.0,0.0,0.0,216.0,4.0,162.0,324.0,108.0,270.0,54.0,216.0,blue,square
0.0,2.0,2.0,0.0,7.0,6.0,2571.9326640000872,3.0,1.0,part_3,go,0.0,0.0,0.0,136.0,4.0,34.0,204.0,170.0,102.0,68.0,136.0,orange,diamond
0.0,3.0,3.0,0.0,7.0,1.0,2482.25780499979,3.0,1.0,part_3,go,0.0,0.0,0.0,294.0,6.0,294.0,98.0,245.0,49.0,196.0,147.0,blue,square
0.0,8.0,4.0,1.0,7.0,3.0,2681.45344200002,3.0,1.0,part_3,go,0.0,0.0,0.0,132.0,3.0,220.0,88.0,132.0,264.0,176.0,44.0,gray,circle
0.0,5.0,1.0,1.0,7.0,5.0,2249.6855200006394,3.0,1.0,part_3,go,0.0,0.0,0.0,170.0,5.0,34.0,68.0,136.0,204.0,170.0,102.0,white,I
0.0,3.0,3.0,0.0,7.0,3.0,2721.1205319999863,3.0,1.0,part_3,go,0.0,0.0,0.0,264.0,6.0,220.0,44.0,264.0,88.0,132.0,176.0,blue,square
0.0,5.0,1.0,1.0,7.0,3.0,2414.1157180001755,3.0,1.0,part_3,go,0.0,0.0,0.0,195.0,5.0,78.0,39.0,195.0,156.0,234.0,117.0,white,I
0.0,6.0,2.0,1.0,7.0,4.0,2453.1505100003415,3.0,1.0,part_3,go,0.0,0.0,0.0,170.0,5.0,34.0,102.0,68.0,170.0,204.0,136.0,yellow,flipped triangle
0.0,6.0,2.0,1.0,7.0,6.0,1720.3366660005486,3.0,1.0,part_3,go,0.0,0.0,0.0,170.0,5.0,34.0,136.0,68.0,102.0,204.0,170.0,yellow,flipped triangle
0.0,3.0,3.0,0.0,7.0,3.0,2966.0924180006987,3.0,1.0,part_3,go,0.0,0.0,0.0,204.0,6.0,68.0,136.0,204.0,34.0,170.0,102.0,blue,square
0.0,5.0,1.0,1.0,7.0,3.0,2774.2749389999517,3.0,1.0,part_3,go,0.0,0.0,0.0,170.0,5.0,204.0,34.0,170.0,68.0,136.0,102.0,white,I
0.0,2.0,2.0,0.0,7.0,5.0,1833.7950750001255,3.0,1.0,part_3,go,0.0,0.0,0.0,245.0,5.0,294.0,49.0,98.0,147.0,245.0,196.0,orange,diamond
0.0,5.0,1.0,1.0,7.0,6.0,3583.1805849993543,4.0,1.0,part_3,go,0.0,0.0,0.0,156.0,4.0,78.0,195.0,117.0,234.0,39.0,156.0,white,I
0.0,5.0,1.0,1.0,7.0,1.0,2888.560442999733,4.0,1.0,part_3,go,0.0,0.0,0.0,264.0,6.0,264.0,132.0,176.0,220.0,44.0,88.0,white,I
0.0,1.0,1.0,0.0,7.0,4.0,1510.5587299995022,4.0,1.0,part_3,go,0.0,0.0,0.0,204.0,6.0,102.0,170.0,68.0,204.0,136.0,34.0,cyan,cross
0.0,1.0,1.0,0.0,7.0,3.0,2168.7229709996245,4.0,1.0,part_3,go,0.0,0.0,0.0,294.0,6.0,245.0,98.0,294.0,49.0,196.0,147.0,cyan,cross
0.0,4.0,4.0,0.0,7.0,4.0,1155.7626829999208,4.0,1.0,part_3,go,0.0,0.0,0.0,147.0,3.0,196.0,49.0,245.0,147.0,98.0,294.0,green,triangle
0.0,5.0,1.0,1.0,7.0,4.0,1620.7558360001713,4.0,1.0,part_3,go,0.0,0.0,0.0,147.0,3.0,98.0,294.0,49.0,147.0,196.0,245.0,white,I
0.0,3.0,3.0,0.0,7.0,2.0,2841.1440489999222,4.0,1.0,part_3,go,0.0,0.0,0.0,264.0,6.0,44.0,264.0,176.0,88.0,132.0,220.0,blue,square
0.0,3.0,3.0,0.0,7.0,2.0,3126.946398000655,4.0,1.0,part_3,go,0.0,0.0,0.0,216.0,4.0,270.0,216.0,54.0,162.0,324.0,108.0,blue,square
0.0,8.0,4.0,1.0,7.0,3.0,2874.3212929994115,4.0,1.0,part_3,go,0.0,0.0,0.0,108.0,2.0,270.0,216.0,108.0,162.0,324.0,54.0,gray,circle
0.0,6.0,2.0,1.0,7.0,5.0,2214.669732999937,4.0,1.0,part_3,go,0.0,0.0,0.0,220.0,5.0,88.0,132.0,264.0,44.0,220.0,176.0,yellow,flipped triangle
0.0,1.0,1.0,0.0,7.0,6.0,2509.902443000101,4.0,1.0,part_3,go,0.0,0.0,0.0,324.0,6.0,162.0,54.0,108.0,216.0,270.0,324.0,cyan,cross
0.0,7.0,3.0,1.0,7.0,3.0,2712.293067000246,4.0,1.0,part_3,go,0.0,0.0,0.0,220.0,5.0,264.0,88.0,220.0,132.0,44.0,176.0,magenta,hexagon
0.0,2.0,2.0,0.0,7.0,5.0,1282.343640000363,4.0,1.0,part_3,go,0.0,0.0,0.0,176.0,4.0,44.0,264.0,132.0,88.0,176.0,220.0,orange,diamond
0.0,2.0,2.0,0.0,7.0,3.0,2828.311868000128,4.0,1.0,part_3,go,0.0,0.0,0.0,270.0,5.0,54.0,216.0,270.0,162.0,324.0,108.0,orange,diamond
0.0,8.0,4.0,1.0,7.0,6.0,3143.311316999643,4.0,1.0,part_3,go,0.0,0.0,0.0,156.0,4.0,117.0,78.0,234.0,39.0,195.0,156.0,gray,circle
0.0,2.0,2.0,0.0,7.0,6.0,2727.6016590003564,4.0,1.0,part_3,go,0.0,0.0,0.0,216.0,4.0,54.0,108.0,162.0,270.0,324.0,216.0,orange,diamond
0.0,2.0,2.0,0.0,7.0,3.0,2832.397563000086,4.0,1.0,part_3,go,0.0,0.0,0.0,220.0,5.0,88.0,44.0,220.0,176.0,132.0,264.0,orange,diamond
0.0,6.0,2.0,1.0,7.0,3.0,2951.137325999298,4.0,1.0,part_3,go,0.0,0.0,0.0,147.0,3.0,98.0,294.0,147.0,196.0,49.0,245.0,yellow,flipped triangle
0.0,4.0,4.0,0.0,7.0,6.0,1608.136505999937,4.0,1.0,part_3,go,0.0,0.0,0.0,220.0,5.0,88.0,132.0,264.0,176.0,44.0,220.0,green,triangle
0.0,3.0,3.0,0.0,7.0,3.0,2746.4571270002125,4.0,1.0,part_3,go,0.0,0.0,0.0,195.0,5.0,78.0,156.0,195.0,117.0,234.0,39.0,blue,square
