raw_reward_magnitude,stim_reward,stepwise_reward_magnitude,paired_with_stopping,stim_location,response,reaction_time,block,num_trial_presentations,which_phase,stop_signal_trial_type,left_SSD,right_SSD,accuracy,chosen_bidding_amount,chosen_bidding_level,possible_bid_1,possible_bid_2,possible_bid_3,possible_bid_4,possible_bid_5,possible_bid_6,color_text,shape_text
50.0,1.0,1.0,0.0,2.0,2.0,429.311620000135,1.0,1.0,phase_1,,,,,,,,,,,,,cyan,cross
71.0,5.0,1.0,1.0,1.0,1.0,360.386816999835,1.0,1.0,phase_1,,,,,,,,,,,,,white,square
110.0,2.0,2.0,0.0,3.0,3.0,407.5701050001044,1.0,1.0,phase_1,,,,,,,,,,,,,orange,hexagon
178.0,7.0,3.0,1.0,2.0,2.0,357.7926009998009,1.0,1.0,phase_1,,,,,,,,,,,,,green,circle
0.0,1.0,0.0,0.0,1.0,1.0,344.0841849997014,1.0,1.0,phase_1,,,,,,,,,,,,,cyan,cross
0.0,4.0,0.0,0.0,2.0,2.0,408.6406269998406,1.0,1.0,phase_1,,,,,,,,,,,,,gray,flipped triangle
0.0,2.0,0.0,0.0,3.0,3.0,340.1696890000494,1.0,1.0,phase_1,,,,,,,,,,,,,orange,hexagon
100.0,6.0,2.0,1.0,3.0,3.0,246.1775690003378,1.0,1.0,phase_1,,,,,,,,,,,,,blue,triangle
212.0,7.0,3.0,1.0,2.0,2.0,278.1801109999833,1.0,1.0,phase_1,,,,,,,,,,,,,green,circle
85.0,6.0,2.0,1.0,2.0,2.0,296.7028449997997,1.0,1.0,phase_1,,,,,,,,,,,,,blue,triangle
379.0,4.0,4.0,0.0,2.0,2.0,308.6071450002237,1.0,1.0,phase_1,,,,,,,,,,,,,gray,flipped triangle
25.0,1.0,1.0,0.0,1.0,1.0,274.0220179998687,1.0,1.0,phase_1,,,,,,,,,,,,,cyan,cross
30.0,1.0,1.0,0.0,3.0,3.0,236.6341029996874,1.0,1.0,phase_1,,,,,,,,,,,,,cyan,cross
215.0,3.0,3.0,0.0,1.0,1.0,266.2258850000398,1.0,1.0,phase_1,,,,,,,,,,,,,yellow,diamond
62.0,5.0,1.0,1.0,1.0,1.0,307.9587610000089,1.0,1.0,phase_1,,,,,,,,,,,,,white,square
181.0,3.0,3.0,0.0,1.0,1.0,258.8767580000422,1.0,1.0,phase_1,,,,,,,,,,,,,yellow,diamond
119.0,2.0,2.0,0.0,4.0,4.0,339.8504430001594,1.0,2.0,phase_1,,,,,,,,,,,,,orange,hexagon
0.0,3.0,0.0,0.0,3.0,3.0,294.4225930000357,1.0,1.0,phase_1,,,,,,,,,,,,,yellow,diamond
202.0,7.0,3.0,1.0,4.0,4.0,324.4621700000607,1.0,1.0,phase_1,,,,,,,,,,,,,green,circle
107.0,6.0,2.0,1.0,1.0,1.0,330.7742189999771,1.0,1.0,phase_1,,,,,,,,,,,,,blue,triangle
105.0,2.0,2.0,0.0,2.0,2.0,300.9149289996458,1.0,1.0,phase_1,,,,,,,,,,,,,orange,hexagon
89.0,6.0,2.0,1.0,3.0,3.0,270.2576149999913,1.0,1.0,phase_1,,,,,,,,,,,,,blue,triangle
0.0,3.0,0.0,0.0,4.0,4.0,280.0410059999194,1.0,1.0,phase_1,,,,,,,,,,,,,yellow,diamond
202.0,3.0,3.0,0.0,2.0,2.0,306.5216330001021,1.0,1.0,phase_1,,,,,,,,,,,,,yellow,diamond
197.0,7.0,3.0,1.0,3.0,3.0,317.0854669997425,1.0,1.0,phase_1,,,,,,,,,,,,,green,circle
0.0,1.0,0.0,0.0,1.0,1.0,311.4206820000618,1.0,1.0,phase_1,,,,,,,,,,,,,cyan,cross
409.0,4.0,4.0,0.0,2.0,2.0,311.248679000073,1.0,1.0,phase_1,,,,,,,,,,,,,gray,flipped triangle
0.0,8.0,0.0,1.0,4.0,4.0,316.1693869997179,1.0,1.0,phase_1,,,,,,,,,,,,,magenta,I
224.0,3.0,3.0,0.0,4.0,4.0,368.6017499999252,1.0,1.0,phase_1,,,,,,,,,,,,,yellow,diamond
75.0,2.0,2.0,0.0,2.0,2.0,296.0379609999108,1.0,1.0,phase_1,,,,,,,,,,,,,orange,hexagon
377.0,4.0,4.0,0.0,4.0,4.0,323.323314999925,1.0,1.0,phase_1,,,,,,,,,,,,,gray,flipped triangle
390.0,4.0,4.0,0.0,2.0,2.0,297.4757300003148,1.0,1.0,phase_1,,,,,,,,,,,,,gray,flipped triangle
212.0,3.0,3.0,0.0,1.0,1.0,279.0901369999119,1.0,1.0,phase_1,,,,,,,,,,,,,yellow,diamond
50.0,1.0,1.0,0.0,3.0,3.0,283.691564000037,1.0,1.0,phase_1,,,,,,,,,,,,,cyan,cross
411.0,4.0,4.0,0.0,3.0,3.0,369.8034669996559,1.0,2.0,phase_1,,,,,,,,,,,,,gray,flipped triangle
89.0,2.0,2.0,0.0,1.0,1.0,305.7659490000333,1.0,1.0,phase_1,,,,,,,,,,,,,orange,hexagon
85.0,2.0,2.0,0.0,3.0,3.0,261.3538929999777,1.0,1.0,phase_1,,,,,,,,,,,,,orange,hexagon
405.0,4.0,4.0,0.0,4.0,4.0,359.1742250000607,1.0,1.0,phase_1,,,,,,,,,,,,,gray,flipped triangle
109.0,6.0,2.0,1.0,4.0,4.0,315.0884769997901,1.0,1.0,phase_1,,,,,,,,,,,,,blue,triangle
417.0,4.0,4.0,0.0,3.0,3.0,281.3100689995735,1.0,1.0,phase_1,,,,,,,,,,,,,gray,flipped triangle
394.0,4.0,4.0,0.0,3.0,3.0,332.4149690001832,1.0,1.0,phase_1,,,,,,,,,,,,,gray,flipped triangle
202.0,3.0,3.0,0.0,1.0,1.0,336.5223390001119,1.0,1.0,phase_1,,,,,,,,,,,,,yellow,diamond
381.0,8.0,4.0,1.0,2.0,2.0,277.1647519998623,1.0,1.0,phase_1,,,,,,,,,,,,,magenta,I
378.0,4.0,4.0,0.0,1.0,1.0,323.2466890003707,1.0,1.0,phase_1,,,,,,,,,,,,,gray,flipped triangle
408.0,4.0,4.0,0.0,1.0,1.0,353.0927509996218,1.0,1.0,phase_1,,,,,,,,,,,,,gray,flipped triangle
47.0,5.0,1.0,1.0,2.0,2.0,301.9872240001859,1.0,1.0,phase_1,,,,,,,,,,,,,white,square
0.0,8.0,0.0,1.0,2.0,2.0,314.7350889998961,1.0,1.0,phase_1,,,,,,,,,,,,,magenta,I
89.0,2.0,2.0,0.0,4.0,4.0,280.9886919999371,1.0,1.0,phase_1,,,,,,,,,,,,,orange,hexagon
404.0,4.0,4.0,0.0,4.0,4.0,348.2752969998728,1.0,1.0,phase_1,,,,,,,,,,,,,gray,flipped triangle
36.0,5.0,1.0,1.0,1.0,1.0,343.8517310000861,1.0,1.0,phase_1,,,,,,,,,,,,,white,square
42.0,1.0,1.0,0.0,1.0,1.0,370.8765730002596,1.0,1.0,phase_1,,,,,,,,,,,,,cyan,cross
43.0,1.0,1.0,0.0,3.0,3.0,401.7581099997187,1.0,1.0,phase_1,,,,,,,,,,,,,cyan,cross
115.0,6.0,2.0,1.0,4.0,4.0,398.7427209999623,1.0,1.0,phase_1,,,,,,,,,,,,,blue,triangle
89.0,6.0,2.0,1.0,3.0,3.0,336.5619900000638,1.0,1.0,phase_1,,,,,,,,,,,,,blue,triangle
74.0,5.0,1.0,1.0,4.0,4.0,356.870919999892,1.0,1.0,phase_1,,,,,,,,,,,,,white,square
64.0,1.0,1.0,0.0,1.0,1.0,318.880548999914,1.0,1.0,phase_1,,,,,,,,,,,,,cyan,cross
106.0,6.0,2.0,1.0,1.0,1.0,307.164794000073,1.0,1.0,phase_1,,,,,,,,,,,,,blue,triangle
408.0,8.0,4.0,1.0,1.0,1.0,321.3658049999139,1.0,1.0,phase_1,,,,,,,,,,,,,magenta,I
0.0,6.0,0.0,1.0,2.0,2.0,292.8876529999797,1.0,1.0,phase_1,,,,,,,,,,,,,blue,triangle
44.0,5.0,1.0,1.0,1.0,1.0,363.8015789997553,1.0,1.0,phase_1,,,,,,,,,,,,,white,square
75.0,6.0,2.0,1.0,3.0,3.0,506.94126200005485,1.0,1.0,phase_1,,,,,,,,,,,,,blue,triangle
42.0,5.0,1.0,1.0,3.0,3.0,344.2970700002661,1.0,1.0,phase_1,,,,,,,,,,,,,white,square
0.0,6.0,0.0,1.0,3.0,3.0,341.0049750000326,1.0,1.0,phase_1,,,,,,,,,,,,,blue,triangle
73.0,1.0,1.0,0.0,1.0,1.0,336.4047439999922,1.0,1.0,phase_1,,,,,,,,,,,,,cyan,cross
60.0,5.0,1.0,1.0,2.0,2.0,355.4537109998819,1.0,1.0,phase_1,,,,,,,,,,,,,white,square
39.0,1.0,1.0,0.0,2.0,2.0,304.5927580001262,1.0,1.0,phase_1,,,,,,,,,,,,,cyan,cross
0.0,8.0,0.0,1.0,2.0,2.0,288.278253000044,1.0,1.0,phase_1,,,,,,,,,,,,,magenta,I
0.0,1.0,0.0,0.0,4.0,4.0,347.8808360000585,1.0,1.0,phase_1,,,,,,,,,,,,,cyan,cross
0.0,3.0,0.0,0.0,1.0,1.0,352.1826559999681,1.0,2.0,phase_1,,,,,,,,,,,,,yellow,diamond
423.0,8.0,4.0,1.0,1.0,1.0,330.1971219998449,1.0,1.0,phase_1,,,,,,,,,,,,,magenta,I
421.0,4.0,4.0,0.0,3.0,3.0,483.4793899999567,1.0,1.0,phase_1,,,,,,,,,,,,,gray,flipped triangle
203.0,7.0,3.0,1.0,1.0,1.0,351.9330780000018,1.0,1.0,phase_1,,,,,,,,,,,,,green,circle
189.0,7.0,3.0,1.0,3.0,3.0,327.8806630000872,1.0,1.0,phase_1,,,,,,,,,,,,,green,circle
0.0,3.0,0.0,0.0,2.0,2.0,360.0213719996645,1.0,1.0,phase_1,,,,,,,,,,,,,yellow,diamond
0.0,6.0,0.0,1.0,3.0,3.0,427.0844389998274,1.0,1.0,phase_1,,,,,,,,,,,,,blue,triangle
0.0,3.0,0.0,0.0,4.0,4.0,424.1537299999436,1.0,1.0,phase_1,,,,,,,,,,,,,yellow,diamond
90.0,2.0,2.0,0.0,2.0,2.0,301.9391340003494,1.0,1.0,phase_1,,,,,,,,,,,,,orange,hexagon
105.0,6.0,2.0,1.0,4.0,4.0,340.5210890000489,1.0,1.0,phase_1,,,,,,,,,,,,,blue,triangle
119.0,6.0,2.0,1.0,1.0,1.0,323.0112729997927,1.0,1.0,phase_1,,,,,,,,,,,,,blue,triangle
89.0,2.0,2.0,0.0,2.0,2.0,314.1008480001801,1.0,1.0,phase_1,,,,,,,,,,,,,orange,hexagon
393.0,8.0,4.0,1.0,2.0,2.0,379.3092710002383,1.0,1.0,phase_1,,,,,,,,,,,,,magenta,I
114.0,2.0,2.0,0.0,2.0,2.0,374.028072999863,1.0,1.0,phase_1,,,,,,,,,,,,,orange,hexagon
415.0,4.0,4.0,0.0,1.0,1.0,353.0522260002726,1.0,1.0,phase_1,,,,,,,,,,,,,gray,flipped triangle
0.0,7.0,0.0,1.0,4.0,4.0,334.2101329999423,1.0,1.0,phase_1,,,,,,,,,,,,,green,circle
387.0,8.0,4.0,1.0,1.0,1.0,369.3530129999089,1.0,1.0,phase_1,,,,,,,,,,,,,magenta,I
0.0,3.0,0.0,0.0,2.0,2.0,315.1925510001092,1.0,1.0,phase_1,,,,,,,,,,,,,yellow,diamond
398.0,4.0,4.0,0.0,4.0,4.0,343.1789769997522,1.0,1.0,phase_1,,,,,,,,,,,,,gray,flipped triangle
377.0,4.0,4.0,0.0,4.0,4.0,464.1272229996502,1.0,1.0,phase_1,,,,,,,,,,,,,gray,flipped triangle
421.0,8.0,4.0,1.0,4.0,4.0,328.5096969998449,1.0,1.0,phase_1,,,,,,,,,,,,,magenta,I
55.0,1.0,1.0,0.0,4.0,4.0,371.5722459996868,1.0,1.0,phase_1,,,,,,,,,,,,,cyan,cross
87.0,6.0,2.0,1.0,2.0,2.0,360.8343109999623,1.0,1.0,phase_1,,,,,,,,,,,,,blue,triangle
220.0,7.0,3.0,1.0,4.0,4.0,376.2234060000082,1.0,1.0,phase_1,,,,,,,,,,,,,green,circle
224.0,7.0,3.0,1.0,2.0,2.0,303.0792310000834,1.0,1.0,phase_1,,,,,,,,,,,,,green,circle
189.0,3.0,3.0,0.0,3.0,3.0,561.4284170001156,1.0,1.0,phase_1,,,,,,,,,,,,,yellow,diamond
411.0,8.0,4.0,1.0,1.0,1.0,387.5934520001465,1.0,1.0,phase_1,,,,,,,,,,,,,magenta,I
59.0,5.0,1.0,1.0,4.0,4.0,374.2873900000631,1.0,1.0,phase_1,,,,,,,,,,,,,white,square
108.0,2.0,2.0,0.0,4.0,4.0,355.1834830000189,1.0,1.0,phase_1,,,,,,,,,,,,,orange,hexagon
89.0,6.0,2.0,1.0,4.0,4.0,344.9603839999327,1.0,1.0,phase_1,,,,,,,,,,,,,blue,triangle
395.0,8.0,4.0,1.0,2.0,2.0,287.7715839999837,1.0,1.0,phase_1,,,,,,,,,,,,,magenta,I
393.0,4.0,4.0,0.0,1.0,1.0,520.7264590003433,1.0,1.0,phase_1,,,,,,,,,,,,,gray,flipped triangle
188.0,7.0,3.0,1.0,2.0,2.0,367.9291900002681,2.0,1.0,phase_1,,,,,,,,,,,,,green,circle
106.0,2.0,2.0,0.0,3.0,3.0,526.973370000178,2.0,1.0,phase_1,,,,,,,,,,,,,orange,hexagon
114.0,6.0,2.0,1.0,2.0,2.0,323.0422759997964,2.0,1.0,phase_1,,,,,,,,,,,,,blue,triangle
0.0,5.0,0.0,1.0,3.0,3.0,368.3774990004167,2.0,1.0,phase_1,,,,,,,,,,,,,white,square
108.0,6.0,2.0,1.0,1.0,1.0,327.0203360002597,2.0,1.0,phase_1,,,,,,,,,,,,,blue,triangle
122.0,2.0,2.0,0.0,1.0,1.0,386.5260289999241,2.0,1.0,phase_1,,,,,,,,,,,,,orange,hexagon
77.0,2.0,2.0,0.0,1.0,1.0,335.6242180002482,2.0,1.0,phase_1,,,,,,,,,,,,,orange,hexagon
25.0,5.0,1.0,1.0,2.0,2.0,399.5591719999538,2.0,1.0,phase_1,,,,,,,,,,,,,white,square
197.0,3.0,3.0,0.0,2.0,2.0,333.6218750000626,2.0,1.0,phase_1,,,,,,,,,,,,,yellow,diamond
0.0,1.0,0.0,0.0,1.0,1.0,285.4091919998609,2.0,1.0,phase_1,,,,,,,,,,,,,cyan,cross
398.0,8.0,4.0,1.0,4.0,4.0,296.7086569997264,2.0,1.0,phase_1,,,,,,,,,,,,,magenta,I
411.0,4.0,4.0,0.0,2.0,2.0,294.5287459997416,2.0,1.0,phase_1,,,,,,,,,,,,,gray,flipped triangle
30.0,1.0,1.0,0.0,3.0,3.0,365.8905729998878,2.0,1.0,phase_1,,,,,,,,,,,,,cyan,cross
45.0,1.0,1.0,0.0,2.0,2.0,310.8263169997372,2.0,1.0,phase_1,,,,,,,,,,,,,cyan,cross
0.0,5.0,0.0,1.0,4.0,4.0,300.0693720000527,2.0,2.0,phase_1,,,,,,,,,,,,,white,square
376.0,4.0,4.0,0.0,4.0,4.0,315.758188000018,2.0,1.0,phase_1,,,,,,,,,,,,,gray,flipped triangle
192.0,3.0,3.0,0.0,4.0,4.0,302.2287449998657,2.0,1.0,phase_1,,,,,,,,,,,,,yellow,diamond
92.0,6.0,2.0,1.0,3.0,3.0,309.3205700001817,2.0,1.0,phase_1,,,,,,,,,,,,,blue,triangle
59.0,1.0,1.0,0.0,4.0,4.0,294.6556080000846,2.0,1.0,phase_1,,,,,,,,,,,,,cyan,cross
386.0,8.0,4.0,1.0,4.0,4.0,325.4478489998291,2.0,1.0,phase_1,,,,,,,,,,,,,magenta,I
413.0,8.0,4.0,1.0,3.0,3.0,341.1738689997037,2.0,1.0,phase_1,,,,,,,,,,,,,magenta,I
415.0,8.0,4.0,1.0,4.0,4.0,410.790587000065,2.0,1.0,phase_1,,,,,,,,,,,,,magenta,I
118.0,2.0,2.0,0.0,1.0,1.0,325.3359240002282,2.0,1.0,phase_1,,,,,,,,,,,,,orange,hexagon
45.0,5.0,1.0,1.0,4.0,4.0,343.1067520000397,2.0,1.0,phase_1,,,,,,,,,,,,,white,square
0.0,6.0,0.0,1.0,4.0,4.0,367.7848209999865,2.0,1.0,phase_1,,,,,,,,,,,,,blue,triangle
67.0,5.0,1.0,1.0,3.0,3.0,323.5025039998618,2.0,1.0,phase_1,,,,,,,,,,,,,white,square
50.0,5.0,1.0,1.0,4.0,4.0,308.7276050000582,2.0,1.0,phase_1,,,,,,,,,,,,,white,square
421.0,8.0,4.0,1.0,1.0,1.0,358.5368720000588,2.0,1.0,phase_1,,,,,,,,,,,,,magenta,I
392.0,4.0,4.0,0.0,3.0,3.0,450.1963530001376,2.0,1.0,phase_1,,,,,,,,,,,,,gray,flipped triangle
215.0,3.0,3.0,0.0,4.0,4.0,284.4788410002365,2.0,1.0,phase_1,,,,,,,,,,,,,yellow,diamond
46.0,1.0,1.0,0.0,2.0,2.0,356.729261000055,2.0,1.0,phase_1,,,,,,,,,,,,,cyan,cross
0.0,5.0,0.0,1.0,2.0,2.0,348.4422300002734,2.0,1.0,phase_1,,,,,,,,,,,,,white,square
106.0,2.0,2.0,0.0,4.0,4.0,300.6627680001656,2.0,1.0,phase_1,,,,,,,,,,,,,orange,hexagon
0.0,3.0,0.0,0.0,3.0,3.0,288.6500449999403,2.0,1.0,phase_1,,,,,,,,,,,,,yellow,diamond
46.0,5.0,1.0,1.0,4.0,4.0,258.9579309997134,2.0,1.0,phase_1,,,,,,,,,,,,,white,square
0.0,4.0,0.0,0.0,4.0,4.0,335.6129470002997,2.0,1.0,phase_1,,,,,,,,,,,,,gray,flipped triangle
34.0,1.0,1.0,0.0,2.0,2.0,355.6154480002078,2.0,1.0,phase_1,,,,,,,,,,,,,cyan,cross
215.0,7.0,3.0,1.0,3.0,3.0,424.6891679999862,2.0,1.0,phase_1,,,,,,,,,,,,,green,circle
39.0,1.0,1.0,0.0,4.0,4.0,332.0228789998509,2.0,1.0,phase_1,,,,,,,,,,,,,cyan,cross
0.0,6.0,0.0,1.0,3.0,3.0,311.3353590001679,2.0,1.0,phase_1,,,,,,,,,,,,,blue,triangle
122.0,6.0,2.0,1.0,3.0,3.0,322.9951260000234,2.0,1.0,phase_1,,,,,,,,,,,,,blue,triangle
0.0,6.0,0.0,1.0,3.0,3.0,375.5284869998831,2.0,1.0,phase_1,,,,,,,,,,,,,blue,triangle
96.0,6.0,2.0,1.0,1.0,1.0,333.1978979999803,2.0,1.0,phase_1,,,,,,,,,,,,,blue,triangle
0.0,6.0,0.0,1.0,3.0,3.0,345.1068099998338,2.0,1.0,phase_1,,,,,,,,,,,,,blue,triangle
411.0,8.0,4.0,1.0,3.0,3.0,460.0096280000798,2.0,1.0,phase_1,,,,,,,,,,,,,magenta,I
178.0,3.0,3.0,0.0,3.0,3.0,392.9431130000012,2.0,1.0,phase_1,,,,,,,,,,,,,yellow,diamond
0.0,5.0,0.0,1.0,3.0,3.0,376.4863219998915,2.0,1.0,phase_1,,,,,,,,,,,,,white,square
87.0,2.0,2.0,0.0,1.0,1.0,344.4707950002339,2.0,1.0,phase_1,,,,,,,,,,,,,orange,hexagon
43.0,5.0,1.0,1.0,2.0,2.0,391.719393999665,2.0,1.0,phase_1,,,,,,,,,,,,,white,square
0.0,4.0,0.0,0.0,1.0,1.0,346.5679890000501,2.0,1.0,phase_1,,,,,,,,,,,,,gray,flipped triangle
94.0,2.0,2.0,0.0,2.0,2.0,460.9509150000122,2.0,1.0,phase_1,,,,,,,,,,,,,orange,hexagon
0.0,7.0,0.0,1.0,1.0,1.0,335.588407999694,2.0,1.0,phase_1,,,,,,,,,,,,,green,circle
30.0,5.0,1.0,1.0,4.0,4.0,280.7643470000585,2.0,1.0,phase_1,,,,,,,,,,,,,white,square
404.0,8.0,4.0,1.0,3.0,3.0,402.3057270001118,2.0,1.0,phase_1,,,,,,,,,,,,,magenta,I
124.0,2.0,2.0,0.0,3.0,3.0,420.3367150003032,2.0,1.0,phase_1,,,,,,,,,,,,,orange,hexagon
44.0,1.0,1.0,0.0,2.0,2.0,350.4308999999921,2.0,1.0,phase_1,,,,,,,,,,,,,cyan,cross
181.0,7.0,3.0,1.0,3.0,3.0,368.2610260002548,2.0,1.0,phase_1,,,,,,,,,,,,,green,circle
44.0,5.0,1.0,1.0,1.0,1.0,282.6640530001896,2.0,1.0,phase_1,,,,,,,,,,,,,white,square
0.0,2.0,0.0,0.0,4.0,4.0,291.4503160000095,2.0,1.0,phase_1,,,,,,,,,,,,,orange,hexagon
0.0,2.0,0.0,0.0,1.0,1.0,284.8823999997876,2.0,1.0,phase_1,,,,,,,,,,,,,orange,hexagon
0.0,8.0,0.0,1.0,1.0,1.0,390.5110689997855,2.0,1.0,phase_1,,,,,,,,,,,,,magenta,I
223.0,7.0,3.0,1.0,4.0,4.0,331.6395070000908,2.0,1.0,phase_1,,,,,,,,,,,,,green,circle
0.0,5.0,0.0,1.0,1.0,1.0,310.436928999934,2.0,1.0,phase_1,,,,,,,,,,,,,white,square
0.0,1.0,0.0,0.0,2.0,2.0,330.265466000128,2.0,1.0,phase_1,,,,,,,,,,,,,cyan,cross
82.0,6.0,2.0,1.0,2.0,2.0,315.2744260000872,2.0,1.0,phase_1,,,,,,,,,,,,,blue,triangle
122.0,6.0,2.0,1.0,1.0,1.0,285.6457119996776,2.0,1.0,phase_1,,,,,,,,,,,,,blue,triangle
44.0,1.0,1.0,0.0,2.0,2.0,354.8609879999276,2.0,1.0,phase_1,,,,,,,,,,,,,cyan,cross
95.0,6.0,2.0,1.0,4.0,4.0,289.0681420003602,2.0,1.0,phase_1,,,,,,,,,,,,,blue,triangle
216.0,3.0,3.0,0.0,3.0,3.0,333.1960030000118,2.0,1.0,phase_1,,,,,,,,,,,,,yellow,diamond
222.0,7.0,3.0,1.0,4.0,4.0,344.6814529997937,2.0,1.0,phase_1,,,,,,,,,,,,,green,circle
214.0,7.0,3.0,1.0,3.0,3.0,351.3130999999703,2.0,1.0,phase_1,,,,,,,,,,,,,green,circle
377.0,4.0,4.0,0.0,4.0,4.0,348.0654149998372,2.0,1.0,phase_1,,,,,,,,,,,,,gray,flipped triangle
100.0,2.0,2.0,0.0,1.0,1.0,341.4626200001294,2.0,1.0,phase_1,,,,,,,,,,,,,orange,hexagon
111.0,2.0,2.0,0.0,2.0,2.0,348.969465000664,2.0,1.0,phase_1,,,,,,,,,,,,,orange,hexagon
0.0,7.0,0.0,1.0,3.0,3.0,364.8656610002945,2.0,1.0,phase_1,,,,,,,,,,,,,green,circle
0.0,4.0,0.0,0.0,3.0,3.0,353.125574999467,2.0,1.0,phase_1,,,,,,,,,,,,,gray,flipped triangle
417.0,8.0,4.0,1.0,2.0,2.0,378.9901590007503,2.0,1.0,phase_1,,,,,,,,,,,,,magenta,I
80.0,6.0,2.0,1.0,2.0,2.0,302.278527999988,2.0,1.0,phase_1,,,,,,,,,,,,,blue,triangle
205.0,7.0,3.0,1.0,4.0,4.0,355.3669049997552,2.0,1.0,phase_1,,,,,,,,,,,,,green,circle
176.0,7.0,3.0,1.0,2.0,2.0,328.8210640002944,2.0,1.0,phase_1,,,,,,,,,,,,,green,circle
0.0,7.0,0.0,1.0,3.0,3.0,410.5636069998581,2.0,1.0,phase_1,,,,,,,,,,,,,green,circle
106.0,6.0,2.0,1.0,3.0,3.0,437.5050139997256,2.0,1.0,phase_1,,,,,,,,,,,,,blue,triangle
0.0,1.0,0.0,0.0,1.0,1.0,354.9366179995559,2.0,1.0,phase_1,,,,,,,,,,,,,cyan,cross
177.0,3.0,3.0,0.0,3.0,3.0,367.3343569998906,2.0,1.0,phase_1,,,,,,,,,,,,,yellow,diamond
101.0,6.0,2.0,1.0,4.0,4.0,317.6260079999338,2.0,1.0,phase_1,,,,,,,,,,,,,blue,triangle
216.0,7.0,3.0,1.0,2.0,2.0,339.6188970000366,2.0,1.0,phase_1,,,,,,,,,,,,,green,circle
379.0,8.0,4.0,1.0,2.0,2.0,355.4771570006778,2.0,1.0,phase_1,,,,,,,,,,,,,magenta,I
75.0,1.0,1.0,0.0,1.0,1.0,320.8408489999783,2.0,1.0,phase_1,,,,,,,,,,,,,cyan,cross
0.0,5.0,0.0,1.0,4.0,4.0,316.1113000005571,2.0,1.0,phase_1,,,,,,,,,,,,,white,square
0.0,8.0,0.0,1.0,2.0,2.0,290.0365199993757,2.0,1.0,phase_1,,,,,,,,,,,,,magenta,I
400.0,4.0,4.0,0.0,3.0,3.0,420.8994189993973,2.0,1.0,phase_1,,,,,,,,,,,,,gray,flipped triangle
0.0,2.0,0.0,0.0,4.0,4.0,341.249050999977,2.0,1.0,phase_1,,,,,,,,,,,,,orange,hexagon
39.0,5.0,1.0,1.0,1.0,1.0,369.0073750003648,2.0,1.0,phase_1,,,,,,,,,,,,,white,square
203.0,3.0,3.0,0.0,2.0,2.0,299.4034180001108,2.0,1.0,phase_1,,,,,,,,,,,,,yellow,diamond
215.0,7.0,3.0,1.0,1.0,1.0,348.3542220001254,2.0,1.0,phase_1,,,,,,,,,,,,,green,circle
62.0,1.0,1.0,0.0,2.0,2.0,331.5717179993953,2.0,1.0,phase_1,,,,,,,,,,,,,cyan,cross
220.0,3.0,3.0,0.0,3.0,3.0,380.8225030006724,2.0,1.0,phase_1,,,,,,,,,,,,,yellow,diamond
0.0,6.0,0.0,1.0,4.0,4.0,339.0579840006467,2.0,1.0,phase_1,,,,,,,,,,,,,blue,triangle
48.0,1.0,1.0,0.0,3.0,3.0,875.054043000091,2.0,1.0,phase_1,,,,,,,,,,,,,cyan,cross
0.0,8.0,0.0,1.0,4.0,4.0,395.2086649997,2.0,1.0,phase_1,,,,,,,,,,,,,magenta,I
384.0,8.0,4.0,1.0,2.0,2.0,434.8168750002514,3.0,1.0,phase_1,,,,,,,,,,,,,magenta,I
121.0,6.0,2.0,1.0,4.0,4.0,328.0551449997801,3.0,1.0,phase_1,,,,,,,,,,,,,blue,triangle
411.0,8.0,4.0,1.0,2.0,2.0,303.2435770001029,3.0,1.0,phase_1,,,,,,,,,,,,,magenta,I
211.0,7.0,3.0,1.0,2.0,2.0,366.4464280000175,3.0,1.0,phase_1,,,,,,,,,,,,,green,circle
185.0,3.0,3.0,0.0,3.0,3.0,550.0587219994486,3.0,1.0,phase_1,,,,,,,,,,,,,yellow,diamond
59.0,1.0,1.0,0.0,4.0,4.0,371.219511000163,3.0,1.0,phase_1,,,,,,,,,,,,,cyan,cross
27.0,1.0,1.0,0.0,1.0,1.0,325.0173020005604,3.0,1.0,phase_1,,,,,,,,,,,,,cyan,cross
29.0,1.0,1.0,0.0,2.0,2.0,332.3459160001221,3.0,1.0,phase_1,,,,,,,,,,,,,cyan,cross
29.0,1.0,1.0,0.0,3.0,3.0,345.9868679992723,3.0,1.0,phase_1,,,,,,,,,,,,,cyan,cross
54.0,1.0,1.0,0.0,4.0,4.0,292.4961660000917,3.0,1.0,phase_1,,,,,,,,,,,,,cyan,cross
197.0,3.0,3.0,0.0,4.0,4.0,356.0431899995819,3.0,1.0,phase_1,,,,,,,,,,,,,yellow,diamond
407.0,4.0,4.0,0.0,3.0,3.0,380.7869780002875,3.0,1.0,phase_1,,,,,,,,,,,,,gray,flipped triangle
200.0,3.0,3.0,0.0,4.0,4.0,293.1493779997254,3.0,1.0,phase_1,,,,,,,,,,,,,yellow,diamond
0.0,1.0,0.0,0.0,3.0,3.0,337.2470549993522,3.0,1.0,phase_1,,,,,,,,,,,,,cyan,cross
0.0,1.0,0.0,0.0,4.0,4.0,298.8124840003365,3.0,1.0,phase_1,,,,,,,,,,,,,cyan,cross
0.0,5.0,0.0,1.0,3.0,3.0,300.2897269998357,3.0,1.0,phase_1,,,,,,,,,,,,,white,square
67.0,1.0,1.0,0.0,3.0,3.0,333.9801789998091,3.0,1.0,phase_1,,,,,,,,,,,,,cyan,cross
121.0,2.0,2.0,0.0,2.0,2.0,319.2734349995589,3.0,1.0,phase_1,,,,,,,,,,,,,orange,hexagon
211.0,3.0,3.0,0.0,2.0,2.0,343.2644549993711,3.0,1.0,phase_1,,,,,,,,,,,,,yellow,diamond
377.0,8.0,4.0,1.0,3.0,3.0,319.7666599999138,3.0,1.0,phase_1,,,,,,,,,,,,,magenta,I
0.0,5.0,0.0,1.0,4.0,4.0,324.4017189999795,3.0,1.0,phase_1,,,,,,,,,,,,,white,square
0.0,4.0,0.0,0.0,4.0,4.0,351.834535999842,3.0,1.0,phase_1,,,,,,,,,,,,,gray,flipped triangle
39.0,5.0,1.0,1.0,1.0,1.0,345.8789699998306,3.0,1.0,phase_1,,,,,,,,,,,,,white,square
403.0,8.0,4.0,1.0,4.0,4.0,308.9639029994941,3.0,1.0,phase_1,,,,,,,,,,,,,magenta,I
96.0,2.0,2.0,0.0,3.0,3.0,432.9344300003868,3.0,1.0,phase_1,,,,,,,,,,,,,orange,hexagon
222.0,7.0,3.0,1.0,2.0,2.0,336.0004959995422,3.0,1.0,phase_1,,,,,,,,,,,,,green,circle
394.0,8.0,4.0,1.0,1.0,1.0,418.8104200002271,3.0,1.0,phase_1,,,,,,,,,,,,,magenta,I
0.0,5.0,0.0,1.0,1.0,1.0,367.2699049993753,3.0,1.0,phase_1,,,,,,,,,,,,,white,square
0.0,2.0,0.0,0.0,1.0,1.0,349.1576890000942,3.0,1.0,phase_1,,,,,,,,,,,,,orange,hexagon
188.0,3.0,3.0,0.0,3.0,3.0,336.5437530001145,3.0,1.0,phase_1,,,,,,,,,,,,,yellow,diamond
397.0,8.0,4.0,1.0,2.0,2.0,323.9675249997162,3.0,1.0,phase_1,,,,,,,,,,,,,magenta,I
399.0,4.0,4.0,0.0,3.0,3.0,426.1185840005055,3.0,1.0,phase_1,,,,,,,,,,,,,gray,flipped triangle
56.0,5.0,1.0,1.0,1.0,1.0,301.6085359995486,3.0,1.0,phase_1,,,,,,,,,,,,,white,square
424.0,4.0,4.0,0.0,4.0,4.0,503.0570869994335,3.0,1.0,phase_1,,,,,,,,,,,,,gray,flipped triangle
67.0,5.0,1.0,1.0,4.0,4.0,358.7341259999448,3.0,1.0,phase_1,,,,,,,,,,,,,white,square
77.0,2.0,2.0,0.0,4.0,4.0,387.6883120001366,3.0,1.0,phase_1,,,,,,,,,,,,,orange,hexagon
56.0,1.0,1.0,0.0,3.0,3.0,337.0773159995224,3.0,1.0,phase_1,,,,,,,,,,,,,cyan,cross
377.0,8.0,4.0,1.0,1.0,1.0,368.5570730003746,3.0,1.0,phase_1,,,,,,,,,,,,,magenta,I
110.0,6.0,2.0,1.0,2.0,2.0,333.4640730008686,3.0,1.0,phase_1,,,,,,,,,,,,,blue,triangle
75.0,5.0,1.0,1.0,2.0,2.0,388.9936240002498,3.0,1.0,phase_1,,,,,,,,,,,,,white,square
83.0,2.0,2.0,0.0,3.0,3.0,401.3527489996704,3.0,1.0,phase_1,,,,,,,,,,,,,orange,hexagon
0.0,3.0,0.0,0.0,3.0,3.0,292.860171999564,3.0,1.0,phase_1,,,,,,,,,,,,,yellow,diamond
73.0,5.0,1.0,1.0,3.0,3.0,304.5757779991618,3.0,1.0,phase_1,,,,,,,,,,,,,white,square
209.0,7.0,3.0,1.0,2.0,2.0,345.8993890008059,3.0,1.0,phase_1,,,,,,,,,,,,,green,circle
27.0,5.0,1.0,1.0,4.0,4.0,283.740957000191,3.0,1.0,phase_1,,,,,,,,,,,,,white,square
210.0,7.0,3.0,1.0,1.0,1.0,274.9109389997102,3.0,1.0,phase_1,,,,,,,,,,,,,green,circle
122.0,2.0,2.0,0.0,3.0,3.0,318.4172259998377,3.0,1.0,phase_1,,,,,,,,,,,,,orange,hexagon
182.0,7.0,3.0,1.0,4.0,4.0,288.6942750001253,3.0,1.0,phase_1,,,,,,,,,,,,,green,circle
34.0,5.0,1.0,1.0,3.0,3.0,295.4428160001043,3.0,1.0,phase_1,,,,,,,,,,,,,white,square
50.0,1.0,1.0,0.0,3.0,3.0,444.4580389999828,3.0,1.0,phase_1,,,,,,,,,,,,,cyan,cross
0.0,8.0,0.0,1.0,4.0,4.0,547.1623469993574,3.0,1.0,phase_1,,,,,,,,,,,,,magenta,I
109.0,2.0,2.0,0.0,3.0,3.0,381.2618989995826,3.0,1.0,phase_1,,,,,,,,,,,,,orange,hexagon
0.0,8.0,0.0,1.0,1.0,1.0,266.1872620001304,3.0,1.0,phase_1,,,,,,,,,,,,,magenta,I
0.0,6.0,0.0,1.0,2.0,2.0,283.5212019999744,3.0,1.0,phase_1,,,,,,,,,,,,,blue,triangle
192.0,3.0,3.0,0.0,3.0,3.0,300.3010339998582,3.0,1.0,phase_1,,,,,,,,,,,,,yellow,diamond
400.0,8.0,4.0,1.0,1.0,1.0,313.4621320004953,3.0,1.0,phase_1,,,,,,,,,,,,,magenta,I
59.0,5.0,1.0,1.0,4.0,4.0,315.3649120004047,3.0,1.0,phase_1,,,,,,,,,,,,,white,square
399.0,8.0,4.0,1.0,3.0,3.0,330.3657730002669,3.0,1.0,phase_1,,,,,,,,,,,,,magenta,I
413.0,4.0,4.0,0.0,2.0,2.0,327.2647730000244,3.0,1.0,phase_1,,,,,,,,,,,,,gray,flipped triangle
0.0,1.0,0.0,0.0,2.0,2.0,326.7714659996272,3.0,1.0,phase_1,,,,,,,,,,,,,cyan,cross
376.0,8.0,4.0,1.0,4.0,4.0,330.2723319993674,3.0,1.0,phase_1,,,,,,,,,,,,,magenta,I
214.0,3.0,3.0,0.0,1.0,1.0,312.8107699994871,3.0,1.0,phase_1,,,,,,,,,,,,,yellow,diamond
111.0,6.0,2.0,1.0,3.0,3.0,363.267485000506,3.0,1.0,phase_1,,,,,,,,,,,,,blue,triangle
115.0,2.0,2.0,0.0,4.0,4.0,295.9329889999935,3.0,1.0,phase_1,,,,,,,,,,,,,orange,hexagon
90.0,6.0,2.0,1.0,1.0,1.0,328.5126250002577,3.0,1.0,phase_1,,,,,,,,,,,,,blue,triangle
381.0,4.0,4.0,0.0,1.0,1.0,298.2748630001879,3.0,1.0,phase_1,,,,,,,,,,,,,gray,flipped triangle
178.0,3.0,3.0,0.0,2.0,2.0,260.9265859991865,3.0,1.0,phase_1,,,,,,,,,,,,,yellow,diamond
397.0,4.0,4.0,0.0,4.0,4.0,317.0338949994402,3.0,1.0,phase_1,,,,,,,,,,,,,gray,flipped triangle
411.0,4.0,4.0,0.0,1.0,1.0,283.9547410003433,3.0,1.0,phase_1,,,,,,,,,,,,,gray,flipped triangle
424.0,8.0,4.0,1.0,1.0,1.0,289.3565160002254,3.0,1.0,phase_1,,,,,,,,,,,,,magenta,I
71.0,1.0,1.0,0.0,3.0,3.0,452.49825599967147,3.0,1.0,phase_1,,,,,,,,,,,,,cyan,cross
200.0,7.0,3.0,1.0,1.0,1.0,323.4197370002221,3.0,1.0,phase_1,,,,,,,,,,,,,green,circle
101.0,2.0,2.0,0.0,1.0,1.0,355.0684319998254,3.0,1.0,phase_1,,,,,,,,,,,,,orange,hexagon
0.0,4.0,0.0,0.0,2.0,2.0,330.4663950002577,3.0,1.0,phase_1,,,,,,,,,,,,,gray,flipped triangle
122.0,2.0,2.0,0.0,4.0,4.0,308.423240000593,3.0,1.0,phase_1,,,,,,,,,,,,,orange,hexagon
192.0,3.0,3.0,0.0,1.0,1.0,261.3435840003149,3.0,1.0,phase_1,,,,,,,,,,,,,yellow,diamond
0.0,3.0,0.0,0.0,1.0,1.0,492.5450079999791,3.0,1.0,phase_1,,,,,,,,,,,,,yellow,diamond
71.0,5.0,1.0,1.0,3.0,3.0,322.1649570004956,3.0,1.0,phase_1,,,,,,,,,,,,,white,square
225.0,7.0,3.0,1.0,3.0,3.0,341.9993340003202,3.0,1.0,phase_1,,,,,,,,,,,,,green,circle
29.0,5.0,1.0,1.0,3.0,3.0,354.1099419999227,3.0,1.0,phase_1,,,,,,,,,,,,,white,square
0.0,2.0,0.0,0.0,2.0,2.0,345.4690580001625,3.0,1.0,phase_1,,,,,,,,,,,,,orange,hexagon
411.0,8.0,4.0,1.0,4.0,4.0,380.7294709995403,3.0,1.0,phase_1,,,,,,,,,,,,,magenta,I
0.0,4.0,0.0,0.0,2.0,2.0,327.4801280003885,3.0,1.0,phase_1,,,,,,,,,,,,,gray,flipped triangle
409.0,8.0,4.0,1.0,3.0,3.0,327.9426799999783,3.0,1.0,phase_1,,,,,,,,,,,,,magenta,I
222.0,3.0,3.0,0.0,3.0,3.0,943.431308000072,3.0,1.0,phase_1,,,,,,,,,,,,,yellow,diamond
48.0,5.0,1.0,1.0,1.0,1.0,381.361327000377,3.0,1.0,phase_1,,,,,,,,,,,,,white,square
77.0,6.0,2.0,1.0,1.0,1.0,385.3375339995182,3.0,1.0,phase_1,,,,,,,,,,,,,blue,triangle
222.0,3.0,3.0,0.0,2.0,2.0,650.4356320001534,3.0,1.0,phase_1,,,,,,,,,,,,,yellow,diamond
395.0,4.0,4.0,0.0,1.0,1.0,416.7801439998584,3.0,1.0,phase_1,,,,,,,,,,,,,gray,flipped triangle
421.0,4.0,4.0,0.0,2.0,2.0,270.7081880007536,3.0,1.0,phase_1,,,,,,,,,,,,,gray,flipped triangle
177.0,7.0,3.0,1.0,1.0,1.0,338.2555770003819,3.0,1.0,phase_1,,,,,,,,,,,,,green,circle
0.0,8.0,0.0,1.0,1.0,1.0,354.7525139993013,3.0,1.0,phase_1,,,,,,,,,,,,,magenta,I
415.0,4.0,4.0,0.0,2.0,2.0,312.3266399998101,3.0,1.0,phase_1,,,,,,,,,,,,,gray,flipped triangle
55.0,5.0,1.0,1.0,3.0,3.0,408.5185919993819,3.0,1.0,phase_1,,,,,,,,,,,,,white,square
82.0,2.0,2.0,0.0,1.0,1.0,301.3123700002325,3.0,1.0,phase_1,,,,,,,,,,,,,orange,hexagon
122.0,6.0,2.0,1.0,4.0,4.0,455.9688190001907,3.0,1.0,phase_1,,,,,,,,,,,,,blue,triangle
378.0,8.0,4.0,1.0,2.0,2.0,341.439583000465,3.0,1.0,phase_1,,,,,,,,,,,,,magenta,I
386.0,4.0,4.0,0.0,1.0,1.0,258.5951420005585,3.0,1.0,phase_1,,,,,,,,,,,,,gray,flipped triangle
187.0,7.0,3.0,1.0,1.0,1.0,342.8867230004471,3.0,1.0,phase_1,,,,,,,,,,,,,green,circle
29.0,5.0,1.0,1.0,2.0,2.0,302.5946389998353,3.0,1.0,phase_1,,,,,,,,,,,,,white,square
194.0,3.0,3.0,0.0,3.0,3.0,442.2860530003163,4.0,1.0,phase_1,,,,,,,,,,,,,yellow,diamond
107.0,2.0,2.0,0.0,1.0,1.0,306.4487760002521,4.0,1.0,phase_1,,,,,,,,,,,,,orange,hexagon
392.0,8.0,4.0,1.0,4.0,4.0,350.6239070002266,4.0,2.0,phase_1,,,,,,,,,,,,,magenta,I
0.0,7.0,0.0,1.0,3.0,3.0,378.7698510004702,4.0,1.0,phase_1,,,,,,,,,,,,,green,circle
205.0,3.0,3.0,0.0,2.0,2.0,278.1589030000759,4.0,1.0,phase_1,,,,,,,,,,,,,yellow,diamond
122.0,6.0,2.0,1.0,2.0,2.0,312.0765579997169,4.0,1.0,phase_1,,,,,,,,,,,,,blue,triangle
215.0,3.0,3.0,0.0,2.0,2.0,289.8808489999283,4.0,1.0,phase_1,,,,,,,,,,,,,yellow,diamond
192.0,7.0,3.0,1.0,4.0,4.0,286.5329389996986,4.0,1.0,phase_1,,,,,,,,,,,,,green,circle
416.0,8.0,4.0,1.0,3.0,3.0,476.5890259996013,4.0,1.0,phase_1,,,,,,,,,,,,,magenta,I
124.0,6.0,2.0,1.0,3.0,3.0,454.3058139997811,4.0,1.0,phase_1,,,,,,,,,,,,,blue,triangle
192.0,7.0,3.0,1.0,3.0,3.0,460.1176220003253,4.0,1.0,phase_1,,,,,,,,,,,,,green,circle
0.0,8.0,0.0,1.0,3.0,3.0,358.3795579997968,4.0,1.0,phase_1,,,,,,,,,,,,,magenta,I
189.0,3.0,3.0,0.0,4.0,4.0,361.4282819999062,4.0,1.0,phase_1,,,,,,,,,,,,,yellow,diamond
95.0,2.0,2.0,0.0,3.0,3.0,390.2283650004392,4.0,1.0,phase_1,,,,,,,,,,,,,orange,hexagon
202.0,7.0,3.0,1.0,1.0,1.0,396.0133040000073,4.0,1.0,phase_1,,,,,,,,,,,,,green,circle
89.0,6.0,2.0,1.0,3.0,3.0,300.3594239999074,4.0,1.0,phase_1,,,,,,,,,,,,,blue,triangle
187.0,7.0,3.0,1.0,1.0,1.0,310.3121129997817,4.0,1.0,phase_1,,,,,,,,,,,,,green,circle
0.0,5.0,0.0,1.0,2.0,2.0,368.7409279991698,4.0,1.0,phase_1,,,,,,,,,,,,,white,square
194.0,7.0,3.0,1.0,3.0,3.0,426.7024729997501,4.0,1.0,phase_1,,,,,,,,,,,,,green,circle
47.0,1.0,1.0,0.0,4.0,4.0,413.9925679992302,4.0,1.0,phase_1,,,,,,,,,,,,,cyan,cross
89.0,2.0,2.0,0.0,4.0,4.0,465.0594310005544,4.0,1.0,phase_1,,,,,,,,,,,,,orange,hexagon
77.0,2.0,2.0,0.0,4.0,4.0,482.4464220000664,4.0,1.0,phase_1,,,,,,,,,,,,,orange,hexagon
197.0,7.0,3.0,1.0,4.0,4.0,414.2823060001319,4.0,1.0,phase_1,,,,,,,,,,,,,green,circle
0.0,2.0,0.0,0.0,3.0,3.0,440.0377950005349,4.0,1.0,phase_1,,,,,,,,,,,,,orange,hexagon
96.0,6.0,2.0,1.0,1.0,1.0,396.2644709999949,4.0,1.0,phase_1,,,,,,,,,,,,,blue,triangle
64.0,5.0,1.0,1.0,1.0,1.0,357.4573710002369,4.0,1.0,phase_1,,,,,,,,,,,,,white,square
45.0,5.0,1.0,1.0,3.0,3.0,407.8826740005752,4.0,1.0,phase_1,,,,,,,,,,,,,white,square
58.0,1.0,1.0,0.0,4.0,4.0,419.9670970001534,4.0,1.0,phase_1,,,,,,,,,,,,,cyan,cross
0.0,4.0,0.0,0.0,3.0,3.0,455.0974320000023,4.0,1.0,phase_1,,,,,,,,,,,,,gray,flipped triangle
67.0,1.0,1.0,0.0,4.0,4.0,410.1367619996381,4.0,1.0,phase_1,,,,,,,,,,,,,cyan,cross
50.0,5.0,1.0,1.0,3.0,3.0,404.1456790000666,4.0,1.0,phase_1,,,,,,,,,,,,,white,square
399.0,8.0,4.0,1.0,1.0,1.0,355.7436129995039,4.0,1.0,phase_1,,,,,,,,,,,,,magenta,I
59.0,5.0,1.0,1.0,2.0,2.0,386.862638999446,4.0,1.0,phase_1,,,,,,,,,,,,,white,square
399.0,4.0,4.0,0.0,2.0,2.0,444.6557040000698,4.0,1.0,phase_1,,,,,,,,,,,,,gray,flipped triangle
0.0,7.0,0.0,1.0,2.0,2.0,289.816360000259,4.0,1.0,phase_1,,,,,,,,,,,,,green,circle
50.0,5.0,1.0,1.0,2.0,2.0,319.8773159992925,4.0,1.0,phase_1,,,,,,,,,,,,,white,square
122.0,2.0,2.0,0.0,3.0,3.0,445.829397000125,4.0,1.0,phase_1,,,,,,,,,,,,,orange,hexagon
176.0,3.0,3.0,0.0,1.0,1.0,372.1424309997019,4.0,1.0,phase_1,,,,,,,,,,,,,yellow,diamond
403.0,4.0,4.0,0.0,1.0,1.0,311.1234709995187,4.0,1.0,phase_1,,,,,,,,,,,,,gray,flipped triangle
92.0,2.0,2.0,0.0,2.0,2.0,306.2931090007623,4.0,1.0,phase_1,,,,,,,,,,,,,orange,hexagon
411.0,4.0,4.0,0.0,4.0,4.0,358.2913019999978,4.0,1.0,phase_1,,,,,,,,,,,,,gray,flipped triangle
416.0,4.0,4.0,0.0,3.0,3.0,421.0886949995256,4.0,1.0,phase_1,,,,,,,,,,,,,gray,flipped triangle
0.0,4.0,0.0,0.0,1.0,1.0,390.5004759999428,4.0,1.0,phase_1,,,,,,,,,,,,,gray,flipped triangle
94.0,6.0,2.0,1.0,2.0,2.0,348.3732109998527,4.0,1.0,phase_1,,,,,,,,,,,,,blue,triangle
189.0,7.0,3.0,1.0,2.0,2.0,315.9454520000508,4.0,1.0,phase_1,,,,,,,,,,,,,green,circle
0.0,2.0,0.0,0.0,1.0,1.0,347.7636380002877,4.0,1.0,phase_1,,,,,,,,,,,,,orange,hexagon
77.0,6.0,2.0,1.0,1.0,1.0,385.9200789993338,4.0,1.0,phase_1,,,,,,,,,,,,,blue,triangle
115.0,2.0,2.0,0.0,1.0,1.0,351.0237450000204,4.0,1.0,phase_1,,,,,,,,,,,,,orange,hexagon
59.0,1.0,1.0,0.0,1.0,1.0,312.4252679999699,4.0,1.0,phase_1,,,,,,,,,,,,,cyan,cross
415.0,8.0,4.0,1.0,4.0,4.0,437.1424150003804,4.0,1.0,phase_1,,,,,,,,,,,,,magenta,I
0.0,3.0,0.0,0.0,2.0,2.0,361.310238000442,4.0,1.0,phase_1,,,,,,,,,,,,,yellow,diamond
0.0,7.0,0.0,1.0,1.0,1.0,352.7431789998445,4.0,1.0,phase_1,,,,,,,,,,,,,green,circle
423.0,4.0,4.0,0.0,3.0,3.0,546.3547379995362,4.0,1.0,phase_1,,,,,,,,,,,,,gray,flipped triangle
403.0,8.0,4.0,1.0,3.0,3.0,449.4858050002221,4.0,1.0,phase_1,,,,,,,,,,,,,magenta,I
390.0,8.0,4.0,1.0,3.0,3.0,418.5140610006783,4.0,1.0,phase_1,,,,,,,,,,,,,magenta,I
83.0,6.0,2.0,1.0,2.0,2.0,347.119916000338,4.0,1.0,phase_1,,,,,,,,,,,,,blue,triangle
185.0,7.0,3.0,1.0,3.0,3.0,404.1426230005527,4.0,1.0,phase_1,,,,,,,,,,,,,green,circle
183.0,3.0,3.0,0.0,1.0,1.0,401.1976020001384,4.0,1.0,phase_1,,,,,,,,,,,,,yellow,diamond
0.0,7.0,0.0,1.0,2.0,2.0,305.7425560000411,4.0,1.0,phase_1,,,,,,,,,,,,,green,circle
71.0,1.0,1.0,0.0,1.0,1.0,324.9229109997031,4.0,1.0,phase_1,,,,,,,,,,,,,cyan,cross
0.0,7.0,0.0,1.0,4.0,4.0,313.6870539992742,4.0,1.0,phase_1,,,,,,,,,,,,,green,circle
223.0,3.0,3.0,0.0,2.0,2.0,325.7668960004594,4.0,1.0,phase_1,,,,,,,,,,,,,yellow,diamond
58.0,5.0,1.0,1.0,2.0,2.0,314.5607750002455,4.0,1.0,phase_1,,,,,,,,,,,,,white,square
403.0,4.0,4.0,0.0,2.0,2.0,348.2225460002155,4.0,1.0,phase_1,,,,,,,,,,,,,gray,flipped triangle
178.0,7.0,3.0,1.0,4.0,4.0,428.6152809991108,4.0,1.0,phase_1,,,,,,,,,,,,,green,circle
74.0,1.0,1.0,0.0,1.0,1.0,368.2437080005911,4.0,1.0,phase_1,,,,,,,,,,,,,cyan,cross
192.0,3.0,3.0,0.0,4.0,4.0,401.0861490005482,4.0,1.0,phase_1,,,,,,,,,,,,,yellow,diamond
387.0,4.0,4.0,0.0,1.0,1.0,326.6333000001395,4.0,1.0,phase_1,,,,,,,,,,,,,gray,flipped triangle
0.0,2.0,0.0,0.0,1.0,1.0,345.3341360000195,4.0,1.0,phase_1,,,,,,,,,,,,,orange,hexagon
377.0,8.0,4.0,1.0,3.0,3.0,854.0989590001118,4.0,1.0,phase_1,,,,,,,,,,,,,magenta,I
225.0,3.0,3.0,0.0,1.0,1.0,415.4905300001701,4.0,1.0,phase_1,,,,,,,,,,,,,yellow,diamond
210.0,3.0,3.0,0.0,4.0,4.0,370.6240589999652,4.0,1.0,phase_1,,,,,,,,,,,,,yellow,diamond
192.0,7.0,3.0,1.0,3.0,3.0,395.4459930000666,4.0,1.0,phase_1,,,,,,,,,,,,,green,circle
384.0,4.0,4.0,0.0,2.0,2.0,345.5652650000047,4.0,1.0,phase_1,,,,,,,,,,,,,gray,flipped triangle
0.0,2.0,0.0,0.0,2.0,2.0,288.3688740002981,4.0,1.0,phase_1,,,,,,,,,,,,,orange,hexagon
118.0,6.0,2.0,1.0,4.0,4.0,337.8134989998216,4.0,1.0,phase_1,,,,,,,,,,,,,blue,triangle
30.0,5.0,1.0,1.0,4.0,4.0,336.3603019997754,4.0,1.0,phase_1,,,,,,,,,,,,,white,square
96.0,2.0,2.0,0.0,2.0,2.0,326.3600509999378,4.0,1.0,phase_1,,,,,,,,,,,,,orange,hexagon
182.0,3.0,3.0,0.0,4.0,4.0,368.2469659997878,4.0,1.0,phase_1,,,,,,,,,,,,,yellow,diamond
192.0,7.0,3.0,1.0,4.0,4.0,339.6284849995936,4.0,1.0,phase_1,,,,,,,,,,,,,green,circle
187.0,3.0,3.0,0.0,4.0,4.0,300.1272390001759,4.0,1.0,phase_1,,,,,,,,,,,,,yellow,diamond
115.0,6.0,2.0,1.0,4.0,4.0,477.4755409998761,4.0,1.0,phase_1,,,,,,,,,,,,,blue,triangle
80.0,2.0,2.0,0.0,4.0,4.0,349.2504800005918,4.0,1.0,phase_1,,,,,,,,,,,,,orange,hexagon
36.0,1.0,1.0,0.0,1.0,1.0,345.8102120002877,4.0,1.0,phase_1,,,,,,,,,,,,,cyan,cross
407.0,8.0,4.0,1.0,4.0,4.0,450.6962320001548,4.0,1.0,phase_1,,,,,,,,,,,,,magenta,I
25.0,1.0,1.0,0.0,4.0,4.0,349.7745490003581,4.0,1.0,phase_1,,,,,,,,,,,,,cyan,cross
405.0,8.0,4.0,1.0,2.0,2.0,364.3826470006388,4.0,1.0,phase_1,,,,,,,,,,,,,magenta,I
45.0,1.0,1.0,0.0,4.0,4.0,375.6820170001447,4.0,1.0,phase_1,,,,,,,,,,,,,cyan,cross
0.0,7.0,0.0,1.0,3.0,3.0,502.2549989998879,4.0,1.0,phase_1,,,,,,,,,,,,,green,circle
54.0,5.0,1.0,1.0,2.0,2.0,400.0058220008213,4.0,1.0,phase_1,,,,,,,,,,,,,white,square
77.0,6.0,2.0,1.0,2.0,2.0,313.0746930000896,4.0,1.0,phase_1,,,,,,,,,,,,,blue,triangle
209.0,3.0,3.0,0.0,1.0,1.0,483.3598759996675,4.0,1.0,phase_1,,,,,,,,,,,,,yellow,diamond
25.0,5.0,1.0,1.0,3.0,3.0,774.4254030003503,4.0,1.0,phase_1,,,,,,,,,,,,,white,square
183.0,7.0,3.0,1.0,1.0,1.0,376.6338870000254,4.0,1.0,phase_1,,,,,,,,,,,,,green,circle
215.0,7.0,3.0,1.0,1.0,1.0,368.8210740001523,4.0,1.0,phase_1,,,,,,,,,,,,,green,circle
0.0,1.0,0.0,0.0,1.0,1.0,351.4067899996007,4.0,1.0,phase_1,,,,,,,,,,,,,cyan,cross
60.0,1.0,1.0,0.0,2.0,2.0,356.8817679997664,4.0,1.0,phase_1,,,,,,,,,,,,,cyan,cross
0.0,4.0,0.0,0.0,3.0,3.0,356.5292619996398,4.0,1.0,phase_1,,,,,,,,,,,,,gray,flipped triangle
0.0,6.0,0.0,1.0,1.0,1.0,366.691893999814,4.0,1.0,phase_1,,,,,,,,,,,,,blue,triangle
187.0,3.0,3.0,0.0,2.0,2.0,316.1039289998371,4.0,1.0,phase_1,,,,,,,,,,,,,yellow,diamond
0.0,5.0,1.0,1.0,5.0,0.0,0.0,1.0,1.0,phase_2,stop,250.0,250.0,4.0,,,,,,,,,white,square
0.0,8.0,4.0,1.0,5.0,0.0,0.0,1.0,1.0,phase_2,stop,300.0,250.0,4.0,,,,,,,,,magenta,I
0.0,7.0,3.0,1.0,5.0,5.0,514.736117999746,1.0,1.0,phase_2,stop,350.0,250.0,3.0,,,,,,,,,green,circle
0.0,4.0,4.0,0.0,5.0,5.0,650.9742250000272,1.0,1.0,phase_2,go,300.0,250.0,1.0,,,,,,,,,gray,flipped triangle
0.0,4.0,4.0,0.0,5.0,5.0,658.1185309996727,1.0,1.0,phase_2,go,300.0,250.0,1.0,,,,,,,,,gray,flipped triangle
0.0,7.0,3.0,1.0,5.0,0.0,0.0,1.0,1.0,phase_2,stop,300.0,250.0,4.0,,,,,,,,,green,circle
0.0,6.0,2.0,1.0,6.0,0.0,0.0,1.0,1.0,phase_2,stop,350.0,250.0,4.0,,,,,,,,,blue,triangle
0.0,5.0,1.0,1.0,6.0,0.0,0.0,1.0,1.0,phase_2,stop,350.0,300.0,4.0,,,,,,,,,white,square
0.0,4.0,4.0,0.0,5.0,5.0,498.4129189997475,1.0,1.0,phase_2,go,350.0,350.0,1.0,,,,,,,,,gray,flipped triangle
0.0,2.0,2.0,0.0,6.0,6.0,515.0245459999496,1.0,1.0,phase_2,go,350.0,350.0,1.0,,,,,,,,,orange,hexagon
0.0,1.0,1.0,0.0,6.0,6.0,449.3864539999777,1.0,1.0,phase_2,go,350.0,350.0,1.0,,,,,,,,,cyan,cross
0.0,2.0,2.0,0.0,6.0,6.0,683.9178159998482,1.0,1.0,phase_2,go,350.0,350.0,1.0,,,,,,,,,orange,hexagon
0.0,3.0,3.0,0.0,5.0,5.0,652.5249180003811,1.0,1.0,phase_2,go,350.0,350.0,1.0,,,,,,,,,yellow,diamond
0.0,5.0,1.0,1.0,6.0,0.0,0.0,1.0,1.0,phase_2,stop,350.0,350.0,4.0,,,,,,,,,white,square
0.0,4.0,4.0,0.0,6.0,6.0,760.9277739993558,1.0,1.0,phase_2,go,350.0,400.0,1.0,,,,,,,,,gray,flipped triangle
0.0,7.0,3.0,1.0,6.0,0.0,0.0,1.0,1.0,phase_2,stop,350.0,400.0,4.0,,,,,,,,,green,circle
0.0,8.0,4.0,1.0,5.0,0.0,0.0,1.0,1.0,phase_2,stop,350.0,450.0,4.0,,,,,,,,,magenta,I
0.0,6.0,2.0,1.0,5.0,0.0,0.0,1.0,1.0,phase_2,stop,400.0,450.0,4.0,,,,,,,,,blue,triangle
0.0,6.0,2.0,1.0,6.0,6.0,784.3899709996549,1.0,1.0,phase_2,go,450.0,450.0,1.0,,,,,,,,,blue,triangle
0.0,5.0,1.0,1.0,6.0,6.0,806.3474890004727,1.0,1.0,phase_2,go,450.0,450.0,1.0,,,,,,,,,white,square
0.0,6.0,2.0,1.0,5.0,0.0,0.0,1.0,1.0,phase_2,stop,450.0,450.0,4.0,,,,,,,,,blue,triangle
0.0,6.0,2.0,1.0,6.0,6.0,667.9840619999595,1.0,1.0,phase_2,go,500.0,450.0,1.0,,,,,,,,,blue,triangle
0.0,7.0,3.0,1.0,6.0,0.0,0.0,1.0,1.0,phase_2,stop,500.0,450.0,4.0,,,,,,,,,green,circle
0.0,6.0,2.0,1.0,6.0,0.0,0.0,1.0,1.0,phase_2,stop,500.0,500.0,4.0,,,,,,,,,blue,triangle
0.0,4.0,4.0,0.0,6.0,6.0,820.4945460001909,1.0,1.0,phase_2,go,500.0,550.0,1.0,,,,,,,,,gray,flipped triangle
0.0,5.0,1.0,1.0,5.0,0.0,0.0,1.0,1.0,phase_2,stop,500.0,550.0,4.0,,,,,,,,,white,square
0.0,5.0,1.0,1.0,6.0,6.0,783.5605589998522,1.0,1.0,phase_2,go,550.0,550.0,1.0,,,,,,,,,white,square
0.0,5.0,1.0,1.0,5.0,0.0,0.0,1.0,1.0,phase_2,stop,550.0,550.0,4.0,,,,,,,,,white,square
0.0,3.0,3.0,0.0,5.0,5.0,936.2154340005872,1.0,1.0,phase_2,go,600.0,550.0,1.0,,,,,,,,,yellow,diamond
0.0,3.0,3.0,0.0,5.0,5.0,965.505629999825,1.0,1.0,phase_2,go,600.0,550.0,1.0,,,,,,,,,yellow,diamond
0.0,5.0,1.0,1.0,6.0,0.0,0.0,1.0,1.0,phase_2,stop,600.0,550.0,4.0,,,,,,,,,white,square
0.0,1.0,1.0,0.0,5.0,5.0,899.5936359997359,1.0,1.0,phase_2,go,600.0,600.0,1.0,,,,,,,,,cyan,cross
0.0,1.0,1.0,0.0,5.0,5.0,984.9102140005924,1.0,1.0,phase_2,go,600.0,600.0,1.0,,,,,,,,,cyan,cross
0.0,3.0,3.0,0.0,5.0,5.0,948.7618390003264,1.0,1.0,phase_2,go,600.0,600.0,1.0,,,,,,,,,yellow,diamond
0.0,5.0,1.0,1.0,6.0,0.0,0.0,1.0,1.0,phase_2,stop,600.0,600.0,4.0,,,,,,,,,white,square
0.0,2.0,2.0,0.0,5.0,5.0,934.8687720003,1.0,1.0,phase_2,go,600.0,650.0,1.0,,,,,,,,,orange,hexagon
0.0,4.0,4.0,0.0,5.0,5.0,612.4196460004896,2.0,1.0,phase_2,go,600.0,650.0,1.0,,,,,,,,,gray,flipped triangle
0.0,1.0,1.0,0.0,5.0,5.0,374.6067969996147,2.0,1.0,phase_2,go,600.0,650.0,1.0,,,,,,,,,cyan,cross
0.0,4.0,4.0,0.0,6.0,6.0,303.9567859996168,2.0,1.0,phase_2,go,600.0,650.0,1.0,,,,,,,,,gray,flipped triangle
0.0,6.0,2.0,1.0,6.0,6.0,453.0292199997348,2.0,1.0,phase_2,stop,600.0,650.0,3.0,,,,,,,,,blue,triangle
0.0,5.0,1.0,1.0,5.0,5.0,651.0902660002102,2.0,1.0,phase_2,stop,600.0,600.0,3.0,,,,,,,,,white,square
0.0,3.0,3.0,0.0,5.0,5.0,927.3176130000138,2.0,1.0,phase_2,go,550.0,600.0,1.0,,,,,,,,,yellow,diamond
0.0,8.0,4.0,1.0,6.0,6.0,703.1430839997483,2.0,1.0,phase_2,stop,550.0,600.0,3.0,,,,,,,,,magenta,I
0.0,6.0,2.0,1.0,6.0,6.0,901.7559129997608,2.0,1.0,phase_2,go,550.0,550.0,1.0,,,,,,,,,blue,triangle
0.0,7.0,3.0,1.0,5.0,5.0,889.0971539995007,2.0,1.0,phase_2,go,550.0,550.0,1.0,,,,,,,,,green,circle
0.0,8.0,4.0,1.0,6.0,6.0,495.7065440003134,2.0,1.0,phase_2,go,550.0,550.0,1.0,,,,,,,,,magenta,I
0.0,7.0,3.0,1.0,6.0,0.0,0.0,2.0,1.0,phase_2,stop,550.0,550.0,4.0,,,,,,,,,green,circle
0.0,2.0,2.0,0.0,5.0,5.0,751.7497280005045,2.0,1.0,phase_2,go,550.0,600.0,1.0,,,,,,,,,orange,hexagon
0.0,1.0,1.0,0.0,6.0,6.0,784.2410690000179,2.0,1.0,phase_2,go,550.0,600.0,1.0,,,,,,,,,cyan,cross
0.0,5.0,1.0,1.0,6.0,0.0,0.0,2.0,1.0,phase_2,stop,550.0,600.0,4.0,,,,,,,,,white,square
0.0,3.0,3.0,0.0,5.0,5.0,848.9369870003429,2.0,1.0,phase_2,go,550.0,650.0,1.0,,,,,,,,,yellow,diamond
0.0,7.0,3.0,1.0,6.0,6.0,414.9508020000212,2.0,1.0,phase_2,stop,550.0,650.0,3.0,,,,,,,,,green,circle
0.0,6.0,2.0,1.0,5.0,5.0,338.6794090001785,2.0,1.0,phase_2,stop,550.0,600.0,3.0,,,,,,,,,blue,triangle
0.0,1.0,1.0,0.0,5.0,5.0,977.2106970003732,2.0,1.0,phase_2,go,500.0,600.0,1.0,,,,,,,,,cyan,cross
0.0,2.0,2.0,0.0,5.0,5.0,767.6059539999187,2.0,1.0,phase_2,go,500.0,600.0,1.0,,,,,,,,,orange,hexagon
0.0,4.0,4.0,0.0,6.0,6.0,708.1052579997049,2.0,1.0,phase_2,go,500.0,600.0,1.0,,,,,,,,,gray,flipped triangle
0.0,5.0,1.0,1.0,6.0,6.0,640.4608900002131,2.0,1.0,phase_2,stop,500.0,600.0,3.0,,,,,,,,,white,square
0.0,3.0,3.0,0.0,5.0,5.0,640.8672910001769,2.0,1.0,phase_2,go,500.0,550.0,1.0,,,,,,,,,yellow,diamond
0.0,7.0,3.0,1.0,5.0,5.0,736.309770999469,2.0,1.0,phase_2,go,500.0,550.0,1.0,,,,,,,,,green,circle
0.0,3.0,3.0,0.0,6.0,6.0,693.8871410002321,2.0,1.0,phase_2,go,500.0,550.0,1.0,,,,,,,,,yellow,diamond
0.0,3.0,3.0,0.0,5.0,5.0,700.9631730006731,2.0,1.0,phase_2,go,500.0,550.0,1.0,,,,,,,,,yellow,diamond
0.0,2.0,2.0,0.0,6.0,6.0,598.5511039998528,2.0,1.0,phase_2,go,500.0,550.0,1.0,,,,,,,,,orange,hexagon
0.0,5.0,1.0,1.0,5.0,5.0,736.5777310005797,2.0,1.0,phase_2,go,500.0,550.0,1.0,,,,,,,,,white,square
0.0,1.0,1.0,0.0,6.0,6.0,346.8537779999678,2.0,1.0,phase_2,go,500.0,550.0,1.0,,,,,,,,,cyan,cross
0.0,8.0,4.0,1.0,5.0,5.0,354.7576310002114,2.0,1.0,phase_2,go,500.0,550.0,1.0,,,,,,,,,magenta,I
0.0,8.0,4.0,1.0,6.0,6.0,375.1671010004429,2.0,1.0,phase_2,stop,500.0,550.0,3.0,,,,,,,,,magenta,I
0.0,1.0,1.0,0.0,6.0,6.0,502.8058289999535,2.0,1.0,phase_2,go,500.0,500.0,1.0,,,,,,,,,cyan,cross
0.0,3.0,3.0,0.0,5.0,5.0,587.8363840001839,2.0,1.0,phase_2,go,500.0,500.0,1.0,,,,,,,,,yellow,diamond
0.0,7.0,3.0,1.0,6.0,6.0,627.7593629993135,2.0,1.0,phase_2,stop,500.0,500.0,3.0,,,,,,,,,green,circle
0.0,2.0,2.0,0.0,5.0,5.0,669.4536290005999,2.0,1.0,phase_2,go,500.0,450.0,1.0,,,,,,,,,orange,hexagon
0.0,2.0,2.0,0.0,5.0,5.0,657.7644670005611,2.0,1.0,phase_2,go,500.0,450.0,1.0,,,,,,,,,orange,hexagon
0.0,6.0,2.0,1.0,5.0,5.0,563.7598639996213,2.0,1.0,phase_2,stop,500.0,450.0,3.0,,,,,,,,,blue,triangle
0.0,1.0,1.0,0.0,5.0,5.0,608.5557759997755,3.0,1.0,phase_2,go,450.0,450.0,1.0,,,,,,,,,cyan,cross
0.0,5.0,1.0,1.0,6.0,6.0,420.2301010000155,3.0,1.0,phase_2,go,450.0,450.0,1.0,,,,,,,,,white,square
0.0,8.0,4.0,1.0,5.0,5.0,489.7242030001507,3.0,1.0,phase_2,stop,450.0,450.0,3.0,,,,,,,,,magenta,I
0.0,7.0,3.0,1.0,5.0,0.0,0.0,3.0,1.0,phase_2,stop,400.0,450.0,4.0,,,,,,,,,green,circle
0.0,1.0,1.0,0.0,5.0,5.0,386.7746999994779,3.0,1.0,phase_2,go,450.0,450.0,1.0,,,,,,,,,cyan,cross
0.0,6.0,2.0,1.0,6.0,6.0,378.2257940001727,3.0,1.0,phase_2,stop,450.0,450.0,3.0,,,,,,,,,blue,triangle
0.0,4.0,4.0,0.0,5.0,5.0,354.6314260001963,3.0,1.0,phase_2,go,450.0,400.0,1.0,,,,,,,,,gray,flipped triangle
0.0,6.0,2.0,1.0,5.0,5.0,324.024516999998,3.0,1.0,phase_2,stop,450.0,400.0,3.0,,,,,,,,,blue,triangle
0.0,5.0,1.0,1.0,6.0,6.0,729.4769410000299,3.0,1.0,phase_2,go,400.0,400.0,1.0,,,,,,,,,white,square
0.0,8.0,4.0,1.0,5.0,5.0,281.1352749995421,3.0,1.0,phase_2,stop,400.0,400.0,3.0,,,,,,,,,magenta,I
0.0,7.0,3.0,1.0,5.0,0.0,0.0,3.0,1.0,phase_2,stop,350.0,400.0,4.0,,,,,,,,,green,circle
0.0,8.0,4.0,1.0,6.0,6.0,608.9783460001854,3.0,1.0,phase_2,go,400.0,400.0,1.0,,,,,,,,,magenta,I
0.0,3.0,3.0,0.0,5.0,5.0,494.7598329999891,3.0,1.0,phase_2,go,400.0,400.0,1.0,,,,,,,,,yellow,diamond
0.0,2.0,2.0,0.0,6.0,6.0,299.1876730002332,3.0,1.0,phase_2,go,400.0,400.0,1.0,,,,,,,,,orange,hexagon
0.0,5.0,1.0,1.0,6.0,6.0,525.5241649992968,3.0,1.0,phase_2,stop,400.0,400.0,3.0,,,,,,,,,white,square
0.0,2.0,2.0,0.0,6.0,6.0,412.9592230001435,3.0,1.0,phase_2,go,400.0,350.0,1.0,,,,,,,,,orange,hexagon
0.0,4.0,4.0,0.0,5.0,5.0,696.7620920004265,3.0,1.0,phase_2,go,400.0,350.0,1.0,,,,,,,,,gray,flipped triangle
0.0,8.0,4.0,1.0,5.0,5.0,514.9513280002793,3.0,1.0,phase_2,go,400.0,350.0,1.0,,,,,,,,,magenta,I
0.0,2.0,2.0,0.0,6.0,6.0,493.1574000002001,3.0,1.0,phase_2,go,400.0,350.0,1.0,,,,,,,,,orange,hexagon
0.0,6.0,2.0,1.0,5.0,5.0,322.7296569993996,3.0,1.0,phase_2,stop,400.0,350.0,3.0,,,,,,,,,blue,triangle
0.0,5.0,1.0,1.0,6.0,6.0,389.3259849992319,3.0,1.0,phase_2,stop,350.0,350.0,3.0,,,,,,,,,white,square
0.0,3.0,3.0,0.0,6.0,6.0,633.5784009997951,3.0,1.0,phase_2,go,350.0,300.0,1.0,,,,,,,,,yellow,diamond
0.0,6.0,2.0,1.0,5.0,5.0,669.8365909996937,3.0,1.0,phase_2,go,350.0,300.0,1.0,,,,,,,,,blue,triangle
0.0,4.0,4.0,0.0,6.0,6.0,504.16409600074985,3.0,1.0,phase_2,go,350.0,300.0,1.0,,,,,,,,,gray,flipped triangle
0.0,6.0,2.0,1.0,6.0,0.0,0.0,3.0,1.0,phase_2,stop,350.0,300.0,4.0,,,,,,,,,blue,triangle
0.0,5.0,1.0,1.0,5.0,5.0,483.2642840001426,3.0,1.0,phase_2,stop,350.0,350.0,3.0,,,,,,,,,white,square
0.0,2.0,2.0,0.0,6.0,6.0,565.5511990007653,3.0,1.0,phase_2,go,300.0,350.0,1.0,,,,,,,,,orange,hexagon
0.0,2.0,2.0,0.0,6.0,6.0,754.9135569997816,3.0,1.0,phase_2,go,300.0,350.0,1.0,,,,,,,,,orange,hexagon
0.0,6.0,2.0,1.0,5.0,5.0,623.7287260000812,3.0,1.0,phase_2,go,300.0,350.0,1.0,,,,,,,,,blue,triangle
0.0,8.0,4.0,1.0,6.0,6.0,391.5383999992627,3.0,1.0,phase_2,stop,300.0,350.0,3.0,,,,,,,,,magenta,I
0.0,8.0,4.0,1.0,5.0,0.0,0.0,3.0,1.0,phase_2,stop,300.0,300.0,4.0,,,,,,,,,magenta,I
0.0,1.0,1.0,0.0,6.0,6.0,572.4031479994665,3.0,1.0,phase_2,go,350.0,300.0,1.0,,,,,,,,,cyan,cross
0.0,4.0,4.0,0.0,5.0,5.0,519.0606100004516,3.0,1.0,phase_2,go,350.0,300.0,1.0,,,,,,,,,gray,flipped triangle
0.0,4.0,4.0,0.0,6.0,6.0,480.8411650001289,3.0,1.0,phase_2,go,350.0,300.0,1.0,,,,,,,,,gray,flipped triangle
0.0,8.0,4.0,1.0,5.0,0.0,0.0,3.0,1.0,phase_2,stop,350.0,300.0,4.0,,,,,,,,,magenta,I
0.0,5.0,1.0,1.0,5.0,0.0,0.0,3.0,1.0,phase_2,stop,400.0,300.0,4.0,,,,,,,,,white,square
0.0,5.0,1.0,1.0,5.0,5.0,565.089953000097,4.0,1.0,phase_2,go,450.0,300.0,1.0,,,,,,,,,white,square
0.0,7.0,3.0,1.0,6.0,0.0,0.0,4.0,1.0,phase_2,stop,450.0,300.0,4.0,,,,,,,,,green,circle
0.0,6.0,2.0,1.0,6.0,0.0,0.0,4.0,1.0,phase_2,stop,450.0,350.0,4.0,,,,,,,,,blue,triangle
0.0,3.0,3.0,0.0,6.0,6.0,610.2349970005889,4.0,1.0,phase_2,go,450.0,400.0,1.0,,,,,,,,,yellow,diamond
0.0,8.0,4.0,1.0,6.0,0.0,0.0,4.0,1.0,phase_2,stop,450.0,400.0,4.0,,,,,,,,,magenta,I
0.0,8.0,4.0,1.0,6.0,0.0,0.0,4.0,1.0,phase_2,stop,450.0,450.0,4.0,,,,,,,,,magenta,I
0.0,6.0,2.0,1.0,5.0,0.0,0.0,4.0,1.0,phase_2,stop,450.0,500.0,4.0,,,,,,,,,blue,triangle
0.0,4.0,4.0,0.0,6.0,6.0,724.9167130003116,4.0,1.0,phase_2,go,500.0,500.0,1.0,,,,,,,,,gray,flipped triangle
0.0,4.0,4.0,0.0,5.0,5.0,476.6232460005994,4.0,1.0,phase_2,go,500.0,500.0,1.0,,,,,,,,,gray,flipped triangle
0.0,3.0,3.0,0.0,6.0,6.0,476.0627590003423,4.0,1.0,phase_2,go,500.0,500.0,1.0,,,,,,,,,yellow,diamond
0.0,4.0,4.0,0.0,6.0,6.0,475.7136470007026,4.0,1.0,phase_2,go,500.0,500.0,1.0,,,,,,,,,gray,flipped triangle
0.0,7.0,3.0,1.0,6.0,0.0,0.0,4.0,1.0,phase_2,stop,500.0,500.0,4.0,,,,,,,,,green,circle
0.0,4.0,4.0,0.0,5.0,5.0,688.8493400001607,4.0,1.0,phase_2,go,500.0,550.0,1.0,,,,,,,,,gray,flipped triangle
0.0,7.0,3.0,1.0,6.0,0.0,0.0,4.0,1.0,phase_2,stop,500.0,550.0,4.0,,,,,,,,,green,circle
0.0,8.0,4.0,1.0,6.0,0.0,0.0,4.0,1.0,phase_2,stop,500.0,600.0,4.0,,,,,,,,,magenta,I
0.0,1.0,1.0,0.0,6.0,6.0,642.2886780001136,4.0,1.0,phase_2,go,500.0,650.0,1.0,,,,,,,,,cyan,cross
0.0,3.0,3.0,0.0,6.0,6.0,838.312321999183,4.0,1.0,phase_2,go,500.0,650.0,1.0,,,,,,,,,yellow,diamond
0.0,6.0,2.0,1.0,5.0,0.0,0.0,4.0,1.0,phase_2,stop,500.0,650.0,4.0,,,,,,,,,blue,triangle
0.0,3.0,3.0,0.0,6.0,6.0,768.8349110003401,4.0,1.0,phase_2,go,550.0,650.0,1.0,,,,,,,,,yellow,diamond
0.0,8.0,4.0,1.0,5.0,5.0,707.2144559997469,4.0,1.0,phase_2,stop,550.0,650.0,3.0,,,,,,,,,magenta,I
0.0,1.0,1.0,0.0,5.0,5.0,815.8246619996135,4.0,1.0,phase_2,go,500.0,650.0,1.0,,,,,,,,,cyan,cross
0.0,7.0,3.0,1.0,6.0,6.0,623.0586270003187,4.0,1.0,phase_2,stop,500.0,650.0,3.0,,,,,,,,,green,circle
0.0,2.0,2.0,0.0,6.0,6.0,544.0987070005576,4.0,1.0,phase_2,go,500.0,600.0,1.0,,,,,,,,,orange,hexagon
0.0,4.0,4.0,0.0,5.0,5.0,450.8693650004716,4.0,1.0,phase_2,go,500.0,600.0,1.0,,,,,,,,,gray,flipped triangle
0.0,1.0,1.0,0.0,6.0,6.0,338.9441639992583,4.0,1.0,phase_2,go,500.0,600.0,1.0,,,,,,,,,cyan,cross
0.0,3.0,3.0,0.0,5.0,5.0,411.2140810002529,4.0,1.0,phase_2,go,500.0,600.0,1.0,,,,,,,,,yellow,diamond
0.0,4.0,4.0,0.0,6.0,6.0,525.8804759996565,4.0,1.0,phase_2,go,500.0,600.0,1.0,,,,,,,,,gray,flipped triangle
0.0,1.0,1.0,0.0,6.0,6.0,380.1580090002971,4.0,1.0,phase_2,go,500.0,600.0,1.0,,,,,,,,,cyan,cross
0.0,1.0,1.0,0.0,6.0,6.0,326.9167500002368,4.0,1.0,phase_2,go,500.0,600.0,1.0,,,,,,,,,cyan,cross
0.0,4.0,4.0,0.0,6.0,6.0,677.0848940004726,4.0,1.0,phase_2,go,500.0,600.0,1.0,,,,,,,,,gray,flipped triangle
0.0,8.0,4.0,1.0,5.0,5.0,631.9179360007183,4.0,1.0,phase_2,stop,500.0,600.0,3.0,,,,,,,,,magenta,I
0.0,2.0,2.0,0.0,6.0,6.0,559.3247040005735,4.0,1.0,phase_2,go,450.0,600.0,1.0,,,,,,,,,orange,hexagon
0.0,6.0,2.0,1.0,5.0,5.0,579.5660910007427,4.0,1.0,phase_2,go,450.0,600.0,1.0,,,,,,,,,blue,triangle
0.0,4.0,4.0,0.0,5.0,5.0,545.5078180002602,4.0,1.0,phase_2,go,450.0,600.0,1.0,,,,,,,,,gray,flipped triangle
0.0,5.0,1.0,1.0,5.0,0.0,0.0,4.0,1.0,phase_2,stop,450.0,600.0,4.0,,,,,,,,,white,square
0.0,3.0,3.0,0.0,6.0,6.0,516.691757999979,4.0,1.0,phase_2,go,500.0,600.0,1.0,,,,,,,,,yellow,diamond
0.0,7.0,3.0,1.0,5.0,0.0,0.0,5.0,1.0,phase_2,stop,500.0,600.0,4.0,,,,,,,,,green,circle
0.0,2.0,2.0,0.0,6.0,6.0,871.8076920004023,5.0,1.0,phase_2,go,550.0,600.0,1.0,,,,,,,,,orange,hexagon
0.0,8.0,4.0,1.0,5.0,0.0,0.0,5.0,1.0,phase_2,stop,550.0,600.0,4.0,,,,,,,,,magenta,I
0.0,2.0,2.0,0.0,5.0,5.0,948.7952499994208,5.0,1.0,phase_2,go,600.0,600.0,1.0,,,,,,,,,orange,hexagon
0.0,2.0,2.0,0.0,5.0,5.0,384.1481070003283,5.0,1.0,phase_2,go,600.0,600.0,1.0,,,,,,,,,orange,hexagon
0.0,6.0,2.0,1.0,6.0,6.0,570.9340469993549,5.0,1.0,phase_2,stop,600.0,600.0,3.0,,,,,,,,,blue,triangle
0.0,3.0,3.0,0.0,6.0,6.0,920.2651569994488,5.0,1.0,phase_2,go,600.0,550.0,1.0,,,,,,,,,yellow,diamond
0.0,5.0,1.0,1.0,6.0,6.0,479.2554770001516,5.0,1.0,phase_2,stop,600.0,550.0,3.0,,,,,,,,,white,square
0.0,4.0,4.0,0.0,5.0,5.0,788.8197089996538,5.0,1.0,phase_2,go,600.0,500.0,1.0,,,,,,,,,gray,flipped triangle
0.0,8.0,4.0,1.0,6.0,6.0,507.1829680000519,5.0,1.0,phase_2,go,600.0,500.0,1.0,,,,,,,,,magenta,I
0.0,7.0,3.0,1.0,5.0,5.0,435.0017240003581,5.0,1.0,phase_2,stop,600.0,500.0,3.0,,,,,,,,,green,circle
0.0,7.0,3.0,1.0,6.0,0.0,0.0,5.0,1.0,phase_2,stop,550.0,500.0,4.0,,,,,,,,,green,circle
0.0,7.0,3.0,1.0,6.0,6.0,616.0569129997384,5.0,1.0,phase_2,go,550.0,550.0,1.0,,,,,,,,,green,circle
0.0,6.0,2.0,1.0,5.0,5.0,731.0545709997314,5.0,1.0,phase_2,go,550.0,550.0,1.0,,,,,,,,,blue,triangle
0.0,8.0,4.0,1.0,5.0,0.0,0.0,5.0,1.0,phase_2,stop,550.0,550.0,4.0,,,,,,,,,magenta,I
0.0,1.0,1.0,0.0,6.0,6.0,790.786341999592,5.0,1.0,phase_2,go,600.0,550.0,1.0,,,,,,,,,cyan,cross
0.0,6.0,2.0,1.0,5.0,5.0,730.3410260001328,5.0,1.0,phase_2,stop,600.0,550.0,3.0,,,,,,,,,blue,triangle
0.0,8.0,4.0,1.0,6.0,0.0,0.0,5.0,1.0,phase_2,stop,550.0,550.0,4.0,,,,,,,,,magenta,I
0.0,5.0,1.0,1.0,5.0,0.0,0.0,5.0,1.0,phase_2,stop,550.0,600.0,4.0,,,,,,,,,white,square
0.0,3.0,3.0,0.0,5.0,5.0,818.2224970005336,5.0,1.0,phase_2,go,600.0,600.0,1.0,,,,,,,,,yellow,diamond
0.0,4.0,4.0,0.0,6.0,6.0,736.2842570000794,5.0,1.0,phase_2,go,600.0,600.0,1.0,,,,,,,,,gray,flipped triangle
0.0,8.0,4.0,1.0,6.0,0.0,0.0,5.0,1.0,phase_2,stop,600.0,600.0,4.0,,,,,,,,,magenta,I
0.0,2.0,2.0,0.0,5.0,5.0,862.1815569995306,5.0,1.0,phase_2,go,600.0,650.0,1.0,,,,,,,,,orange,hexagon
0.0,3.0,3.0,0.0,5.0,5.0,708.7074840001151,5.0,1.0,phase_2,go,600.0,650.0,1.0,,,,,,,,,yellow,diamond
0.0,4.0,4.0,0.0,6.0,6.0,730.3897170004348,5.0,1.0,phase_2,go,600.0,650.0,1.0,,,,,,,,,gray,flipped triangle
0.0,7.0,3.0,1.0,5.0,0.0,0.0,5.0,1.0,phase_2,stop,600.0,650.0,4.0,,,,,,,,,green,circle
0.0,7.0,3.0,1.0,5.0,5.0,738.4332050005469,5.0,1.0,phase_2,stop,650.0,650.0,3.0,,,,,,,,,green,circle
0.0,8.0,4.0,1.0,6.0,6.0,777.6987249999365,5.0,1.0,phase_2,stop,600.0,650.0,3.0,,,,,,,,,magenta,I
0.0,2.0,2.0,0.0,5.0,5.0,850.1195469998493,5.0,1.0,phase_2,go,600.0,600.0,1.0,,,,,,,,,orange,hexagon
0.0,8.0,4.0,1.0,5.0,0.0,0.0,5.0,1.0,phase_2,stop,600.0,600.0,4.0,,,,,,,,,magenta,I
0.0,6.0,2.0,1.0,6.0,6.0,948.808373999782,5.0,1.0,phase_2,go,650.0,600.0,1.0,,,,,,,,,blue,triangle
0.0,7.0,3.0,1.0,6.0,6.0,877.4543610006731,5.0,1.0,phase_2,go,650.0,600.0,1.0,,,,,,,,,green,circle
0.0,8.0,4.0,1.0,6.0,0.0,0.0,5.0,1.0,phase_2,stop,650.0,600.0,4.0,,,,,,,,,magenta,I
0.0,3.0,3.0,0.0,6.0,6.0,976.2129979999372,5.0,1.0,phase_2,go,650.0,650.0,1.0,,,,,,,,,yellow,diamond
0.0,5.0,1.0,1.0,6.0,6.0,799.3934340001942,5.0,1.0,phase_2,stop,650.0,650.0,3.0,,,,,,,,,white,square
0.0,6.0,2.0,1.0,6.0,0.0,0.0,5.0,1.0,phase_2,stop,650.0,600.0,4.0,,,,,,,,,blue,triangle
0.0,1.0,1.0,0.0,5.0,5.0,848.4398609998607,6.0,1.0,phase_2,go,650.0,650.0,1.0,,,,,,,,,cyan,cross
0.0,6.0,2.0,1.0,5.0,5.0,767.8914520001854,6.0,1.0,phase_2,stop,650.0,650.0,3.0,,,,,,,,,blue,triangle
0.0,2.0,2.0,0.0,6.0,6.0,1446.4669469998626,6.0,1.0,phase_2,go,600.0,650.0,1.0,,,,,,,,,orange,hexagon
0.0,2.0,2.0,0.0,6.0,6.0,912.5598020000324,6.0,1.0,phase_2,go,600.0,650.0,1.0,,,,,,,,,orange,hexagon
0.0,1.0,1.0,0.0,6.0,6.0,803.3252020004511,6.0,1.0,phase_2,go,600.0,650.0,1.0,,,,,,,,,cyan,cross
0.0,4.0,4.0,0.0,5.0,5.0,745.9904779998396,6.0,1.0,phase_2,go,600.0,650.0,1.0,,,,,,,,,gray,flipped triangle
0.0,2.0,2.0,0.0,5.0,5.0,769.6171000006871,6.0,1.0,phase_2,go,600.0,650.0,1.0,,,,,,,,,orange,hexagon
0.0,5.0,1.0,1.0,6.0,6.0,801.9586139998864,6.0,1.0,phase_2,stop,600.0,650.0,3.0,,,,,,,,,white,square
0.0,7.0,3.0,1.0,5.0,5.0,932.3845219996656,6.0,1.0,phase_2,go,600.0,600.0,1.0,,,,,,,,,green,circle
0.0,4.0,4.0,0.0,6.0,6.0,575.7262630004334,6.0,1.0,phase_2,go,600.0,600.0,1.0,,,,,,,,,gray,flipped triangle
0.0,1.0,1.0,0.0,6.0,6.0,388.9450130000114,6.0,1.0,phase_2,go,600.0,600.0,1.0,,,,,,,,,cyan,cross
0.0,5.0,1.0,1.0,5.0,5.0,508.9490869995643,6.0,1.0,phase_2,stop,600.0,600.0,3.0,,,,,,,,,white,square
0.0,5.0,1.0,1.0,5.0,5.0,834.7842229995877,6.0,1.0,phase_2,go,550.0,600.0,1.0,,,,,,,,,white,square
0.0,7.0,3.0,1.0,6.0,6.0,654.811360000167,6.0,1.0,phase_2,stop,550.0,600.0,3.0,,,,,,,,,green,circle
0.0,8.0,4.0,1.0,5.0,5.0,861.9251220006845,6.0,1.0,phase_2,go,550.0,550.0,1.0,,,,,,,,,magenta,I
0.0,2.0,2.0,0.0,5.0,5.0,548.9030079997974,6.0,1.0,phase_2,go,550.0,550.0,1.0,,,,,,,,,orange,hexagon
0.0,2.0,2.0,0.0,6.0,6.0,457.9340029995364,6.0,1.0,phase_2,go,550.0,550.0,1.0,,,,,,,,,orange,hexagon
0.0,2.0,2.0,0.0,5.0,5.0,655.8967789997041,6.0,1.0,phase_2,go,550.0,550.0,1.0,,,,,,,,,orange,hexagon
0.0,3.0,3.0,0.0,6.0,6.0,443.9475680001123,6.0,1.0,phase_2,go,550.0,550.0,1.0,,,,,,,,,yellow,diamond
0.0,1.0,1.0,0.0,5.0,5.0,643.4383020005043,6.0,1.0,phase_2,go,550.0,550.0,1.0,,,,,,,,,cyan,cross
0.0,7.0,3.0,1.0,5.0,0.0,0.0,6.0,1.0,phase_2,stop,550.0,550.0,4.0,,,,,,,,,green,circle
0.0,6.0,2.0,1.0,5.0,5.0,736.6282909997608,6.0,1.0,phase_2,stop,600.0,550.0,3.0,,,,,,,,,blue,triangle
0.0,8.0,4.0,1.0,5.0,0.0,0.0,6.0,1.0,phase_2,stop,550.0,550.0,4.0,,,,,,,,,magenta,I
0.0,4.0,4.0,0.0,6.0,6.0,427.259936000155,6.0,1.0,phase_2,go,600.0,550.0,1.0,,,,,,,,,gray,flipped triangle
0.0,3.0,3.0,0.0,6.0,6.0,572.4974690001545,6.0,1.0,phase_2,go,600.0,550.0,1.0,,,,,,,,,yellow,diamond
0.0,2.0,2.0,0.0,5.0,5.0,574.9482269993678,6.0,1.0,phase_2,go,600.0,550.0,1.0,,,,,,,,,orange,hexagon
0.0,6.0,2.0,1.0,5.0,5.0,569.5941130006759,6.0,1.0,phase_2,stop,600.0,550.0,3.0,,,,,,,,,blue,triangle
0.0,1.0,1.0,0.0,6.0,6.0,411.791890999666,6.0,1.0,phase_2,go,550.0,550.0,1.0,,,,,,,,,cyan,cross
0.0,7.0,3.0,1.0,6.0,6.0,329.0715740004089,6.0,1.0,phase_2,go,550.0,550.0,1.0,,,,,,,,,green,circle
0.0,6.0,2.0,1.0,6.0,0.0,0.0,6.0,1.0,phase_2,stop,550.0,550.0,4.0,,,,,,,,,blue,triangle
0.0,2.0,2.0,0.0,5.0,5.0,729.5976969999174,6.0,1.0,phase_2,go,550.0,600.0,1.0,,,,,,,,,orange,hexagon
0.0,7.0,3.0,1.0,5.0,5.0,584.9969540004167,6.0,1.0,phase_2,stop,550.0,600.0,3.0,,,,,,,,,green,circle
0.0,7.0,3.0,1.0,6.0,6.0,762.9665380000006,6.0,1.0,phase_2,stop,500.0,600.0,3.0,,,,,,,,,green,circle
0.0,1.0,1.0,0.0,6.0,6.0,615.4329370001506,6.0,1.0,phase_2,go,500.0,550.0,1.0,,,,,,,,,cyan,cross
0.0,1.0,1.0,0.0,5.0,5.0,643.6829570002374,6.0,1.0,phase_2,go,500.0,550.0,1.0,,,,,,,,,cyan,cross
0.0,7.0,3.0,1.0,6.0,6.0,434.2115259996717,6.0,1.0,phase_2,stop,500.0,550.0,3.0,,,,,,,,,green,circle
0.0,6.0,2.0,1.0,5.0,5.0,541.0073009998086,7.0,1.0,phase_2,stop,500.0,500.0,3.0,,,,,,,,,blue,triangle
0.0,1.0,1.0,0.0,5.0,5.0,689.657353000257,7.0,1.0,phase_2,go,450.0,500.0,1.0,,,,,,,,,cyan,cross
0.0,1.0,1.0,0.0,5.0,5.0,860.4670240001724,7.0,1.0,phase_2,go,450.0,500.0,1.0,,,,,,,,,cyan,cross
0.0,5.0,1.0,1.0,6.0,6.0,334.0398149994144,7.0,1.0,phase_2,stop,450.0,500.0,3.0,,,,,,,,,white,square
0.0,3.0,3.0,0.0,5.0,5.0,662.6384720002534,7.0,1.0,phase_2,go,450.0,450.0,1.0,,,,,,,,,yellow,diamond
0.0,4.0,4.0,0.0,6.0,6.0,326.7635920001339,7.0,1.0,phase_2,go,450.0,450.0,1.0,,,,,,,,,gray,flipped triangle
0.0,7.0,3.0,1.0,5.0,0.0,0.0,7.0,1.0,phase_2,stop,450.0,450.0,4.0,,,,,,,,,green,circle
0.0,8.0,4.0,1.0,5.0,0.0,0.0,7.0,1.0,phase_2,stop,500.0,450.0,4.0,,,,,,,,,magenta,I
0.0,2.0,2.0,0.0,6.0,6.0,761.1673050005265,7.0,1.0,phase_2,go,550.0,450.0,1.0,,,,,,,,,orange,hexagon
0.0,8.0,4.0,1.0,5.0,5.0,674.512830999447,7.0,1.0,phase_2,go,550.0,450.0,1.0,,,,,,,,,magenta,I
0.0,1.0,1.0,0.0,5.0,5.0,615.2408200005084,7.0,1.0,phase_2,go,550.0,450.0,1.0,,,,,,,,,cyan,cross
0.0,2.0,2.0,0.0,5.0,5.0,376.6832449991852,7.0,1.0,phase_2,go,550.0,450.0,1.0,,,,,,,,,orange,hexagon
0.0,4.0,4.0,0.0,6.0,6.0,276.9981350002126,7.0,1.0,phase_2,go,550.0,450.0,1.0,,,,,,,,,gray,flipped triangle
0.0,5.0,1.0,1.0,5.0,5.0,313.9587129999199,7.0,1.0,phase_2,go,550.0,450.0,1.0,,,,,,,,,white,square
0.0,2.0,2.0,0.0,6.0,6.0,689.27647000055,7.0,1.0,phase_2,go,550.0,450.0,1.0,,,,,,,,,orange,hexagon
0.0,5.0,1.0,1.0,5.0,5.0,372.6719279993631,7.0,1.0,phase_2,stop,550.0,450.0,3.0,,,,,,,,,white,square
0.0,6.0,2.0,1.0,5.0,0.0,0.0,7.0,1.0,phase_2,stop,500.0,450.0,4.0,,,,,,,,,blue,triangle
0.0,4.0,4.0,0.0,6.0,6.0,315.5430079996222,7.0,1.0,phase_2,go,550.0,450.0,1.0,,,,,,,,,gray,flipped triangle
0.0,8.0,4.0,1.0,5.0,5.0,621.6554789998554,7.0,1.0,phase_2,stop,550.0,450.0,3.0,,,,,,,,,magenta,I
0.0,8.0,4.0,1.0,6.0,0.0,0.0,7.0,1.0,phase_2,stop,500.0,450.0,4.0,,,,,,,,,magenta,I
0.0,1.0,1.0,0.0,5.0,5.0,535.6705129997863,7.0,1.0,phase_2,go,500.0,500.0,1.0,,,,,,,,,cyan,cross
0.0,1.0,1.0,0.0,5.0,5.0,396.7854750007973,7.0,1.0,phase_2,go,500.0,500.0,1.0,,,,,,,,,cyan,cross
0.0,6.0,2.0,1.0,6.0,6.0,642.7084269998886,7.0,1.0,phase_2,stop,500.0,500.0,3.0,,,,,,,,,blue,triangle
0.0,4.0,4.0,0.0,6.0,6.0,593.0411720000848,7.0,1.0,phase_2,go,500.0,450.0,1.0,,,,,,,,,gray,flipped triangle
0.0,3.0,3.0,0.0,6.0,6.0,752.2676290000163,7.0,1.0,phase_2,go,500.0,450.0,1.0,,,,,,,,,yellow,diamond
0.0,2.0,2.0,0.0,5.0,5.0,688.6174179999216,7.0,1.0,phase_2,go,500.0,450.0,1.0,,,,,,,,,orange,hexagon
0.0,3.0,3.0,0.0,6.0,6.0,676.188734999414,7.0,1.0,phase_2,go,500.0,450.0,1.0,,,,,,,,,yellow,diamond
0.0,3.0,3.0,0.0,5.0,5.0,455.5282919991441,7.0,1.0,phase_2,go,500.0,450.0,1.0,,,,,,,,,yellow,diamond
0.0,7.0,3.0,1.0,5.0,0.0,0.0,7.0,1.0,phase_2,stop,500.0,450.0,4.0,,,,,,,,,green,circle
0.0,1.0,1.0,0.0,5.0,5.0,587.2702200003914,7.0,1.0,phase_2,go,550.0,450.0,1.0,,,,,,,,,cyan,cross
0.0,2.0,2.0,0.0,6.0,6.0,640.2209520001634,7.0,1.0,phase_2,go,550.0,450.0,1.0,,,,,,,,,orange,hexagon
0.0,3.0,3.0,0.0,5.0,5.0,653.9382040000419,7.0,1.0,phase_2,go,550.0,450.0,1.0,,,,,,,,,yellow,diamond
0.0,1.0,1.0,0.0,6.0,6.0,440.5804960006207,7.0,1.0,phase_2,go,550.0,450.0,1.0,,,,,,,,,cyan,cross
0.0,6.0,2.0,1.0,6.0,6.0,572.0045810003285,7.0,1.0,phase_2,stop,550.0,450.0,3.0,,,,,,,,,blue,triangle
0.0,7.0,3.0,1.0,6.0,0.0,0.0,7.0,1.0,phase_2,stop,550.0,400.0,4.0,,,,,,,,,green,circle
0.0,7.0,3.0,1.0,5.0,5.0,812.8716599994732,7.0,1.0,phase_2,go,550.0,450.0,1.0,,,,,,,,,green,circle
0.0,2.0,2.0,0.0,5.0,5.0,353.4075199995641,8.0,1.0,phase_2,go,550.0,450.0,1.0,,,,,,,,,orange,hexagon
0.0,2.0,2.0,0.0,6.0,6.0,513.0888250005228,8.0,1.0,phase_2,go,550.0,450.0,1.0,,,,,,,,,orange,hexagon
0.0,1.0,1.0,0.0,6.0,6.0,527.7267669998764,8.0,1.0,phase_2,go,550.0,450.0,1.0,,,,,,,,,cyan,cross
0.0,5.0,1.0,1.0,6.0,0.0,0.0,8.0,1.0,phase_2,stop,550.0,450.0,4.0,,,,,,,,,white,square
0.0,4.0,4.0,0.0,5.0,5.0,844.6030629993402,8.0,1.0,phase_2,go,550.0,500.0,1.0,,,,,,,,,gray,flipped triangle
0.0,2.0,2.0,0.0,5.0,5.0,426.2013009993097,8.0,1.0,phase_2,go,550.0,500.0,1.0,,,,,,,,,orange,hexagon
0.0,7.0,3.0,1.0,5.0,5.0,309.3903689996296,8.0,1.0,phase_2,go,550.0,500.0,1.0,,,,,,,,,green,circle
0.0,8.0,4.0,1.0,6.0,6.0,646.1839550001969,8.0,1.0,phase_2,go,550.0,500.0,1.0,,,,,,,,,magenta,I
0.0,3.0,3.0,0.0,6.0,6.0,624.2252749998443,8.0,1.0,phase_2,go,550.0,500.0,1.0,,,,,,,,,yellow,diamond
0.0,4.0,4.0,0.0,5.0,5.0,403.1599210002241,8.0,1.0,phase_2,go,550.0,500.0,1.0,,,,,,,,,gray,flipped triangle
0.0,7.0,3.0,1.0,5.0,5.0,729.3826750001244,8.0,1.0,phase_2,stop,550.0,500.0,3.0,,,,,,,,,green,circle
0.0,1.0,1.0,0.0,5.0,5.0,521.1018840000179,8.0,1.0,phase_2,go,500.0,500.0,1.0,,,,,,,,,cyan,cross
0.0,4.0,4.0,0.0,5.0,5.0,419.8343480002222,8.0,1.0,phase_2,go,500.0,500.0,1.0,,,,,,,,,gray,flipped triangle
0.0,5.0,1.0,1.0,5.0,5.0,886.9370860002164,8.0,1.0,phase_2,go,500.0,500.0,1.0,,,,,,,,,white,square
0.0,5.0,1.0,1.0,5.0,0.0,0.0,8.0,1.0,phase_2,stop,500.0,500.0,4.0,,,,,,,,,white,square
0.0,5.0,1.0,1.0,5.0,5.0,685.9221340000659,8.0,1.0,phase_2,stop,550.0,500.0,3.0,,,,,,,,,white,square
0.0,1.0,1.0,0.0,5.0,5.0,511.91202199970576,8.0,1.0,phase_2,go,500.0,500.0,1.0,,,,,,,,,cyan,cross
0.0,1.0,1.0,0.0,6.0,6.0,397.4494639996919,8.0,1.0,phase_2,go,500.0,500.0,1.0,,,,,,,,,cyan,cross
0.0,3.0,3.0,0.0,6.0,6.0,357.9959290000261,8.0,1.0,phase_2,go,500.0,500.0,1.0,,,,,,,,,yellow,diamond
0.0,6.0,2.0,1.0,6.0,0.0,0.0,8.0,1.0,phase_2,stop,500.0,500.0,4.0,,,,,,,,,blue,triangle
0.0,3.0,3.0,0.0,6.0,6.0,744.3760969999857,8.0,1.0,phase_2,go,500.0,550.0,1.0,,,,,,,,,yellow,diamond
0.0,5.0,1.0,1.0,6.0,6.0,643.4636240001055,8.0,1.0,phase_2,stop,500.0,550.0,3.0,,,,,,,,,white,square
0.0,3.0,3.0,0.0,5.0,5.0,658.1571970000368,8.0,1.0,phase_2,go,500.0,500.0,1.0,,,,,,,,,yellow,diamond
0.0,8.0,4.0,1.0,6.0,6.0,692.3610399999234,8.0,1.0,phase_2,go,500.0,500.0,1.0,,,,,,,,,magenta,I
0.0,5.0,1.0,1.0,5.0,0.0,0.0,8.0,1.0,phase_2,stop,500.0,500.0,4.0,,,,,,,,,white,square
0.0,8.0,4.0,1.0,6.0,0.0,0.0,8.0,1.0,phase_2,stop,550.0,500.0,4.0,,,,,,,,,magenta,I
0.0,7.0,3.0,1.0,6.0,6.0,789.8240770000484,8.0,1.0,phase_2,go,550.0,550.0,1.0,,,,,,,,,green,circle
0.0,4.0,4.0,0.0,5.0,5.0,365.0795479998123,8.0,1.0,phase_2,go,550.0,550.0,1.0,,,,,,,,,gray,flipped triangle
0.0,6.0,2.0,1.0,6.0,6.0,810.2757659999043,8.0,1.0,phase_2,go,550.0,550.0,1.0,,,,,,,,,blue,triangle
0.0,4.0,4.0,0.0,5.0,5.0,414.1374700002416,8.0,1.0,phase_2,go,550.0,550.0,1.0,,,,,,,,,gray,flipped triangle
0.0,3.0,3.0,0.0,6.0,6.0,315.5032059994482,8.0,1.0,phase_2,go,550.0,550.0,1.0,,,,,,,,,yellow,diamond
0.0,3.0,3.0,0.0,5.0,5.0,343.575625000085,8.0,1.0,phase_2,go,550.0,550.0,1.0,,,,,,,,,yellow,diamond
0.0,6.0,2.0,1.0,6.0,6.0,255.21277000007098,8.0,1.0,phase_2,stop,550.0,550.0,3.0,,,,,,,,,blue,triangle
0.0,3.0,3.0,0.0,6.0,6.0,472.6533469993228,8.0,1.0,phase_2,go,550.0,500.0,1.0,,,,,,,,,yellow,diamond
0.0,1.0,1.0,0.0,6.0,6.0,348.7441919996854,8.0,1.0,phase_2,go,550.0,500.0,1.0,,,,,,,,,cyan,cross
0.0,8.0,4.0,1.0,6.0,6.0,393.76657899993,8.0,1.0,phase_2,stop,550.0,500.0,3.0,,,,,,,,,magenta,I
0.0,1.0,1.0,0.0,7.0,2.0,3051.7416570000933,1.0,1.0,phase_3,,,,,220.0,5.0,176.0,220.0,44.0,88.0,132.0,264.0,cyan,cross
0.0,5.0,1.0,1.0,7.0,5.0,2809.8942030001126,1.0,1.0,phase_3,,,,,234.0,6.0,78.0,156.0,39.0,117.0,234.0,195.0,white,square
0.0,5.0,1.0,1.0,7.0,6.0,1279.830284000127,1.0,1.0,phase_3,,,,,68.0,2.0,136.0,102.0,204.0,34.0,170.0,68.0,white,square
0.0,4.0,4.0,0.0,7.0,2.0,1732.791250000446,1.0,1.0,phase_3,,,,,245.0,5.0,98.0,245.0,49.0,147.0,196.0,294.0,gray,flipped triangle
0.0,8.0,4.0,1.0,7.0,1.0,1567.9001139997126,1.0,1.0,phase_3,,,,,136.0,4.0,136.0,34.0,68.0,102.0,170.0,204.0,magenta,I
0.0,2.0,2.0,0.0,7.0,2.0,1086.9133340002008,1.0,1.0,phase_3,,,,,49.0,1.0,98.0,49.0,147.0,245.0,294.0,196.0,orange,hexagon
0.0,8.0,4.0,1.0,7.0,1.0,1147.918333999769,1.0,1.0,phase_3,,,,,98.0,2.0,98.0,245.0,49.0,147.0,196.0,294.0,magenta,I
0.0,4.0,4.0,0.0,7.0,4.0,2147.1031279997987,1.0,1.0,phase_3,,,,,234.0,6.0,195.0,156.0,39.0,234.0,117.0,78.0,gray,flipped triangle
0.0,1.0,1.0,0.0,7.0,4.0,2675.8236289997512,1.0,1.0,phase_3,,,,,216.0,4.0,270.0,108.0,54.0,216.0,162.0,324.0,cyan,cross
0.0,1.0,1.0,0.0,7.0,2.0,1036.3842010001465,1.0,1.0,phase_3,,,,,270.0,5.0,324.0,270.0,108.0,216.0,54.0,162.0,cyan,cross
0.0,6.0,2.0,1.0,7.0,5.0,1475.272761999804,1.0,1.0,phase_3,,,,,234.0,6.0,156.0,78.0,39.0,117.0,234.0,195.0,blue,triangle
0.0,6.0,2.0,1.0,7.0,3.0,1632.400900999528,1.0,1.0,phase_3,,,,,220.0,5.0,88.0,44.0,220.0,264.0,176.0,132.0,blue,triangle
0.0,2.0,2.0,0.0,7.0,5.0,1355.2904930002114,1.0,1.0,phase_3,,,,,234.0,6.0,117.0,156.0,39.0,78.0,234.0,195.0,orange,hexagon
0.0,6.0,2.0,1.0,7.0,2.0,1253.883477999807,1.0,1.0,phase_3,,,,,162.0,3.0,108.0,162.0,216.0,270.0,54.0,324.0,blue,triangle
0.0,4.0,4.0,0.0,7.0,4.0,895.0596109998514,1.0,1.0,phase_3,,,,,264.0,6.0,176.0,88.0,44.0,264.0,220.0,132.0,gray,flipped triangle
0.0,8.0,4.0,1.0,7.0,1.0,1092.0057260000249,1.0,1.0,phase_3,,,,,234.0,6.0,234.0,78.0,39.0,117.0,156.0,195.0,magenta,I
0.0,8.0,4.0,1.0,7.0,2.0,853.4231300000101,1.0,1.0,phase_3,,,,,270.0,5.0,324.0,270.0,216.0,108.0,54.0,162.0,magenta,I
0.0,8.0,4.0,1.0,7.0,2.0,914.848579000136,1.0,1.0,phase_3,,,,,220.0,5.0,132.0,220.0,264.0,44.0,88.0,176.0,magenta,I
0.0,1.0,1.0,0.0,7.0,1.0,863.1461250006396,1.0,1.0,phase_3,,,,,220.0,5.0,220.0,132.0,264.0,88.0,176.0,44.0,cyan,cross
0.0,2.0,2.0,0.0,7.0,3.0,1132.1585759997106,1.0,1.0,phase_3,,,,,204.0,6.0,34.0,102.0,204.0,170.0,68.0,136.0,orange,hexagon
0.0,2.0,2.0,0.0,7.0,2.0,907.2931040000184,2.0,1.0,phase_3,,,,,156.0,4.0,78.0,156.0,39.0,117.0,234.0,195.0,orange,hexagon
0.0,5.0,1.0,1.0,7.0,5.0,653.5235960000136,2.0,1.0,phase_3,,,,,245.0,5.0,98.0,49.0,196.0,294.0,245.0,147.0,white,square
0.0,4.0,4.0,0.0,7.0,1.0,809.3412119997083,2.0,1.0,phase_3,,,,,34.0,1.0,34.0,204.0,170.0,68.0,136.0,102.0,gray,flipped triangle
0.0,2.0,2.0,0.0,7.0,4.0,490.2335829992807,2.0,1.0,phase_3,,,,,245.0,5.0,49.0,196.0,147.0,245.0,294.0,98.0,orange,hexagon
0.0,5.0,1.0,1.0,7.0,5.0,530.2484929998172,2.0,1.0,phase_3,,,,,324.0,6.0,54.0,216.0,162.0,108.0,324.0,270.0,white,square
0.0,3.0,3.0,0.0,7.0,2.0,687.7125400005752,2.0,1.0,phase_3,,,,,204.0,6.0,34.0,204.0,136.0,170.0,68.0,102.0,yellow,diamond
0.0,6.0,2.0,1.0,7.0,4.0,599.4938560006631,2.0,1.0,phase_3,,,,,264.0,6.0,88.0,220.0,176.0,264.0,44.0,132.0,blue,triangle
0.0,7.0,3.0,1.0,7.0,1.0,693.7132060002114,2.0,1.0,phase_3,,,,,176.0,4.0,176.0,132.0,88.0,44.0,220.0,264.0,green,circle
0.0,3.0,3.0,0.0,7.0,2.0,611.8231800001013,2.0,1.0,phase_3,,,,,117.0,3.0,78.0,117.0,234.0,156.0,39.0,195.0,yellow,diamond
0.0,8.0,4.0,1.0,7.0,4.0,834.6304639999289,2.0,1.0,phase_3,,,,,44.0,1.0,264.0,176.0,220.0,44.0,132.0,88.0,magenta,I
0.0,7.0,3.0,1.0,7.0,4.0,1088.8889620000557,2.0,1.0,phase_3,,,,,162.0,3.0,216.0,108.0,54.0,162.0,270.0,324.0,green,circle
0.0,3.0,3.0,0.0,7.0,2.0,863.6778580003011,2.0,1.0,phase_3,,,,,54.0,1.0,270.0,54.0,324.0,216.0,162.0,108.0,yellow,diamond
0.0,1.0,1.0,0.0,7.0,5.0,742.2542230006002,2.0,1.0,phase_3,,,,,170.0,5.0,102.0,34.0,204.0,68.0,170.0,136.0,cyan,cross
0.0,3.0,3.0,0.0,7.0,5.0,871.9574050001029,2.0,1.0,phase_3,,,,,98.0,2.0,147.0,196.0,245.0,49.0,98.0,294.0,yellow,diamond
0.0,4.0,4.0,0.0,7.0,5.0,1101.3067740004772,2.0,1.0,phase_3,,,,,54.0,1.0,270.0,108.0,324.0,216.0,54.0,162.0,gray,flipped triangle
0.0,4.0,4.0,0.0,7.0,5.0,835.8606990004773,2.0,1.0,phase_3,,,,,78.0,2.0,156.0,39.0,117.0,234.0,78.0,195.0,gray,flipped triangle
0.0,1.0,1.0,0.0,7.0,2.0,676.9060270007685,2.0,1.0,phase_3,,,,,98.0,2.0,49.0,98.0,245.0,196.0,147.0,294.0,cyan,cross
0.0,7.0,3.0,1.0,7.0,1.0,825.7744689999527,2.0,1.0,phase_3,,,,,176.0,4.0,176.0,132.0,220.0,44.0,88.0,264.0,green,circle
0.0,7.0,3.0,1.0,7.0,6.0,450.0439559997176,2.0,1.0,phase_3,,,,,156.0,4.0,117.0,234.0,78.0,195.0,39.0,156.0,green,circle
0.0,1.0,1.0,0.0,7.0,5.0,493.7605670002085,2.0,1.0,phase_3,,,,,196.0,4.0,294.0,245.0,98.0,147.0,196.0,49.0,cyan,cross
0.0,7.0,3.0,1.0,7.0,6.0,1083.6105969992786,3.0,1.0,phase_3,,,,,234.0,6.0,195.0,156.0,117.0,78.0,39.0,234.0,green,circle
0.0,1.0,1.0,0.0,7.0,3.0,1106.5549850000025,3.0,1.0,phase_3,,,,,170.0,5.0,34.0,204.0,170.0,68.0,102.0,136.0,cyan,cross
0.0,7.0,3.0,1.0,7.0,2.0,798.8669839996874,3.0,1.0,phase_3,,,,,102.0,3.0,204.0,102.0,170.0,136.0,68.0,34.0,green,circle
0.0,5.0,1.0,1.0,7.0,2.0,946.5051799998035,3.0,1.0,phase_3,,,,,245.0,5.0,196.0,245.0,49.0,294.0,98.0,147.0,white,square
0.0,6.0,2.0,1.0,7.0,5.0,536.1461140000756,3.0,1.0,phase_3,,,,,245.0,5.0,98.0,294.0,49.0,196.0,245.0,147.0,blue,triangle
0.0,3.0,3.0,0.0,7.0,1.0,664.7204339997188,3.0,1.0,phase_3,,,,,88.0,2.0,88.0,132.0,44.0,176.0,264.0,220.0,yellow,diamond
0.0,4.0,4.0,0.0,7.0,5.0,577.3748809997414,3.0,1.0,phase_3,,,,,176.0,4.0,88.0,220.0,132.0,264.0,176.0,44.0,gray,flipped triangle
0.0,1.0,1.0,0.0,7.0,3.0,526.3012119994528,3.0,1.0,phase_3,,,,,195.0,5.0,117.0,234.0,195.0,39.0,156.0,78.0,cyan,cross
0.0,3.0,3.0,0.0,7.0,5.0,796.0495719999017,3.0,1.0,phase_3,,,,,49.0,1.0,147.0,98.0,245.0,294.0,49.0,196.0,yellow,diamond
0.0,6.0,2.0,1.0,7.0,2.0,1112.7500279999367,3.0,1.0,phase_3,,,,,234.0,6.0,195.0,234.0,156.0,117.0,78.0,39.0,blue,triangle
0.0,3.0,3.0,0.0,7.0,4.0,693.8815459998295,3.0,1.0,phase_3,,,,,204.0,6.0,68.0,34.0,102.0,204.0,170.0,136.0,yellow,diamond
0.0,4.0,4.0,0.0,7.0,3.0,694.9240710000595,3.0,1.0,phase_3,,,,,324.0,6.0,270.0,54.0,324.0,108.0,216.0,162.0,gray,flipped triangle
0.0,3.0,3.0,0.0,7.0,6.0,756.9047630004206,3.0,1.0,phase_3,,,,,44.0,1.0,176.0,264.0,132.0,88.0,220.0,44.0,yellow,diamond
0.0,5.0,1.0,1.0,7.0,2.0,829.9941909999689,3.0,1.0,phase_3,,,,,264.0,6.0,88.0,264.0,44.0,132.0,220.0,176.0,white,square
0.0,5.0,1.0,1.0,7.0,4.0,695.9799010001007,3.0,1.0,phase_3,,,,,220.0,5.0,44.0,176.0,88.0,220.0,264.0,132.0,white,square
0.0,4.0,4.0,0.0,7.0,1.0,658.2250759993258,3.0,1.0,phase_3,,,,,98.0,2.0,98.0,196.0,245.0,147.0,49.0,294.0,gray,flipped triangle
0.0,6.0,2.0,1.0,7.0,5.0,859.4505410001148,3.0,1.0,phase_3,,,,,170.0,5.0,102.0,68.0,136.0,204.0,170.0,34.0,blue,triangle
0.0,4.0,4.0,0.0,7.0,2.0,377.281862000018,3.0,1.0,phase_3,,,,,68.0,2.0,34.0,68.0,204.0,136.0,102.0,170.0,gray,flipped triangle
0.0,8.0,4.0,1.0,7.0,4.0,920.938291999846,3.0,1.0,phase_3,,,,,54.0,1.0,216.0,324.0,270.0,54.0,162.0,108.0,magenta,I
0.0,7.0,3.0,1.0,7.0,2.0,1177.3152929999924,3.0,1.0,phase_3,,,,,98.0,2.0,294.0,98.0,49.0,147.0,196.0,245.0,green,circle
0.0,3.0,3.0,0.0,7.0,2.0,649.0406169996277,4.0,1.0,phase_3,,,,,216.0,4.0,270.0,216.0,162.0,108.0,324.0,54.0,yellow,diamond
0.0,5.0,1.0,1.0,7.0,1.0,611.4982469998722,4.0,1.0,phase_3,,,,,117.0,3.0,117.0,195.0,156.0,39.0,78.0,234.0,white,square
0.0,6.0,2.0,1.0,7.0,5.0,603.7956599993777,4.0,1.0,phase_3,,,,,196.0,4.0,49.0,98.0,147.0,294.0,196.0,245.0,blue,triangle
0.0,8.0,4.0,1.0,7.0,4.0,371.3813399999708,4.0,1.0,phase_3,,,,,39.0,1.0,156.0,195.0,78.0,39.0,117.0,234.0,magenta,I
0.0,2.0,2.0,0.0,7.0,3.0,507.22959700033243,4.0,1.0,phase_3,,,,,162.0,3.0,324.0,54.0,162.0,270.0,216.0,108.0,orange,hexagon
0.0,5.0,1.0,1.0,7.0,3.0,510.03198499984137,4.0,1.0,phase_3,,,,,170.0,5.0,136.0,204.0,170.0,68.0,102.0,34.0,white,square
0.0,2.0,2.0,0.0,7.0,1.0,692.6662559999386,4.0,1.0,phase_3,,,,,34.0,1.0,34.0,136.0,204.0,68.0,170.0,102.0,orange,hexagon
0.0,8.0,4.0,1.0,7.0,3.0,653.4916710006655,4.0,1.0,phase_3,,,,,294.0,6.0,49.0,147.0,294.0,98.0,245.0,196.0,magenta,I
0.0,7.0,3.0,1.0,7.0,4.0,711.7200889997548,4.0,1.0,phase_3,,,,,170.0,5.0,102.0,34.0,204.0,170.0,136.0,68.0,green,circle
0.0,2.0,2.0,0.0,7.0,3.0,663.3422320001046,4.0,1.0,phase_3,,,,,176.0,4.0,220.0,88.0,176.0,132.0,44.0,264.0,orange,hexagon
0.0,2.0,2.0,0.0,7.0,6.0,1130.4596320005658,4.0,1.0,phase_3,,,,,108.0,2.0,270.0,324.0,54.0,216.0,162.0,108.0,orange,hexagon
0.0,2.0,2.0,0.0,7.0,1.0,875.1703540001472,4.0,1.0,phase_3,,,,,264.0,6.0,264.0,88.0,132.0,220.0,44.0,176.0,orange,hexagon
0.0,6.0,2.0,1.0,7.0,6.0,813.0457240004034,4.0,1.0,phase_3,,,,,102.0,3.0,68.0,34.0,170.0,204.0,136.0,102.0,blue,triangle
0.0,7.0,3.0,1.0,7.0,3.0,688.3488380008203,4.0,1.0,phase_3,,,,,98.0,2.0,49.0,245.0,98.0,294.0,196.0,147.0,green,circle
0.0,1.0,1.0,0.0,7.0,5.0,1231.1039289998007,4.0,1.0,phase_3,,,,,39.0,1.0,234.0,156.0,117.0,195.0,39.0,78.0,cyan,cross
0.0,6.0,2.0,1.0,7.0,2.0,693.8761070005057,4.0,1.0,phase_3,,,,,216.0,4.0,162.0,216.0,54.0,108.0,270.0,324.0,blue,triangle
0.0,7.0,3.0,1.0,7.0,5.0,671.0091420000026,4.0,1.0,phase_3,,,,,108.0,2.0,324.0,54.0,162.0,270.0,108.0,216.0,green,circle
0.0,8.0,4.0,1.0,7.0,4.0,991.8973390003883,4.0,1.0,phase_3,,,,,170.0,5.0,34.0,68.0,136.0,170.0,102.0,204.0,magenta,I
0.0,3.0,3.0,0.0,7.0,3.0,935.4304139997112,4.0,1.0,phase_3,,,,,195.0,5.0,39.0,117.0,195.0,78.0,156.0,234.0,yellow,diamond
0.0,5.0,1.0,1.0,7.0,4.0,984.15533699972,4.0,1.0,phase_3,,,,,324.0,6.0,54.0,108.0,270.0,324.0,162.0,216.0,white,square
