raw_reward_magnitude,stim_reward,stepwise_reward_magnitude,paired_with_stopping,quadrant,response,reaction_time,block,num_trial_presentations,which_part,stop_signal_trial_type,left_SSD,right_SSD,accuracy,chosen_bidding_amount,chosen_bidding_level,possible_bid_1,possible_bid_2,possible_bid_3,possible_bid_4,possible_bid_5,possible_bid_6,color_text,shape_text
389.0,4.0,4.0,0.0,3.0,3.0,454.8499800002901,1.0,1.0,part_1,,,,,,,,,,,,,orange,square
178.0,3.0,3.0,0.0,2.0,2.0,325.7662940000045,1.0,1.0,part_1,,,,,,,,,,,,,yellow,triangle
181.0,3.0,3.0,0.0,3.0,3.0,348.3885410000766,1.0,1.0,part_1,,,,,,,,,,,,,yellow,triangle
0.0,4.0,0.0,0.0,1.0,1.0,506.85850400031995,1.0,1.0,part_1,,,,,,,,,,,,,orange,square
205.0,7.0,3.0,1.0,2.0,2.0,319.153396999809,1.0,1.0,part_1,,,,,,,,,,,,,magenta,hexagon
91.0,6.0,2.0,1.0,1.0,1.0,777.2962910003116,1.0,1.0,part_1,,,,,,,,,,,,,white,I
208.0,7.0,3.0,1.0,4.0,4.0,448.3393059999798,1.0,1.0,part_1,,,,,,,,,,,,,magenta,hexagon
205.0,3.0,3.0,0.0,1.0,1.0,311.1424710000392,1.0,1.0,part_1,,,,,,,,,,,,,yellow,triangle
198.0,7.0,3.0,1.0,2.0,2.0,342.481683999722,1.0,1.0,part_1,,,,,,,,,,,,,magenta,hexagon
91.0,2.0,2.0,0.0,4.0,4.0,325.7438850000653,1.0,1.0,part_1,,,,,,,,,,,,,blue,diamond
0.0,5.0,0.0,1.0,3.0,3.0,335.042379999777,1.0,1.0,part_1,,,,,,,,,,,,,gray,cross
43.0,5.0,1.0,1.0,4.0,4.0,327.5860829999146,1.0,1.0,part_1,,,,,,,,,,,,,gray,cross
212.0,7.0,3.0,1.0,1.0,1.0,298.3686590000616,1.0,1.0,part_1,,,,,,,,,,,,,magenta,hexagon
68.0,5.0,1.0,1.0,1.0,1.0,347.5144779999937,1.0,1.0,part_1,,,,,,,,,,,,,gray,cross
67.0,1.0,1.0,0.0,4.0,4.0,322.0359429997188,1.0,1.0,part_1,,,,,,,,,,,,,green,circle
176.0,7.0,3.0,1.0,4.0,4.0,345.0659609998183,1.0,1.0,part_1,,,,,,,,,,,,,magenta,hexagon
30.0,1.0,1.0,0.0,4.0,4.0,369.4889359999251,1.0,1.0,part_1,,,,,,,,,,,,,green,circle
0.0,6.0,0.0,1.0,4.0,4.0,274.3851989998802,1.0,1.0,part_1,,,,,,,,,,,,,white,I
43.0,1.0,1.0,0.0,3.0,3.0,360.19360399996,1.0,2.0,part_1,,,,,,,,,,,,,green,circle
97.0,6.0,2.0,1.0,1.0,1.0,381.3649829999121,1.0,1.0,part_1,,,,,,,,,,,,,white,I
27.0,5.0,1.0,1.0,1.0,1.0,331.3121739997768,1.0,1.0,part_1,,,,,,,,,,,,,gray,cross
0.0,1.0,0.0,0.0,2.0,2.0,519.7754629998599,1.0,1.0,part_1,,,,,,,,,,,,,green,circle
0.0,3.0,0.0,0.0,3.0,3.0,384.5737359997656,1.0,1.0,part_1,,,,,,,,,,,,,yellow,triangle
399.0,4.0,4.0,0.0,4.0,4.0,398.3734990001721,1.0,1.0,part_1,,,,,,,,,,,,,orange,square
92.0,6.0,2.0,1.0,2.0,2.0,317.0242129999678,1.0,1.0,part_1,,,,,,,,,,,,,white,I
61.0,1.0,1.0,0.0,3.0,3.0,341.4084699998057,1.0,1.0,part_1,,,,,,,,,,,,,green,circle
0.0,3.0,0.0,0.0,2.0,2.0,375.2118859997608,1.0,1.0,part_1,,,,,,,,,,,,,yellow,triangle
402.0,4.0,4.0,0.0,1.0,1.0,364.8536399996374,1.0,1.0,part_1,,,,,,,,,,,,,orange,square
97.0,2.0,2.0,0.0,2.0,2.0,346.73200499992157,1.0,1.0,part_1,,,,,,,,,,,,,blue,diamond
181.0,7.0,3.0,1.0,4.0,4.0,354.5235269998557,1.0,1.0,part_1,,,,,,,,,,,,,magenta,hexagon
92.0,2.0,2.0,0.0,4.0,4.0,318.1761509999887,1.0,1.0,part_1,,,,,,,,,,,,,blue,diamond
377.0,8.0,4.0,1.0,2.0,2.0,351.6603410002972,1.0,1.0,part_1,,,,,,,,,,,,,cyan,flipped triangle
0.0,7.0,0.0,1.0,1.0,1.0,322.4361320003481,1.0,1.0,part_1,,,,,,,,,,,,,magenta,hexagon
197.0,7.0,3.0,1.0,2.0,2.0,325.821157000064,1.0,1.0,part_1,,,,,,,,,,,,,magenta,hexagon
421.0,8.0,4.0,1.0,3.0,3.0,396.0182699997858,1.0,1.0,part_1,,,,,,,,,,,,,cyan,flipped triangle
0.0,8.0,0.0,1.0,1.0,1.0,295.5995780002922,1.0,1.0,part_1,,,,,,,,,,,,,cyan,flipped triangle
95.0,2.0,2.0,0.0,2.0,2.0,327.11781099988,1.0,1.0,part_1,,,,,,,,,,,,,blue,diamond
0.0,5.0,0.0,1.0,2.0,2.0,356.7777019998175,1.0,1.0,part_1,,,,,,,,,,,,,gray,cross
400.0,8.0,4.0,1.0,4.0,4.0,335.4517780003334,1.0,1.0,part_1,,,,,,,,,,,,,cyan,flipped triangle
72.0,5.0,1.0,1.0,2.0,2.0,268.2929370002966,1.0,1.0,part_1,,,,,,,,,,,,,gray,cross
208.0,3.0,3.0,0.0,4.0,4.0,357.6663710000503,1.0,1.0,part_1,,,,,,,,,,,,,yellow,triangle
223.0,3.0,3.0,0.0,3.0,3.0,464.388210999914,1.0,1.0,part_1,,,,,,,,,,,,,yellow,triangle
182.0,7.0,3.0,1.0,1.0,1.0,397.5368010001148,1.0,2.0,part_1,,,,,,,,,,,,,magenta,hexagon
390.0,8.0,4.0,1.0,2.0,2.0,337.6659109999309,1.0,1.0,part_1,,,,,,,,,,,,,cyan,flipped triangle
79.0,6.0,2.0,1.0,4.0,4.0,369.2522579999604,1.0,1.0,part_1,,,,,,,,,,,,,white,I
0.0,7.0,0.0,1.0,4.0,4.0,442.8829640000913,1.0,1.0,part_1,,,,,,,,,,,,,magenta,hexagon
414.0,4.0,4.0,0.0,3.0,3.0,423.9361850000023,1.0,1.0,part_1,,,,,,,,,,,,,orange,square
401.0,8.0,4.0,1.0,2.0,2.0,511.9585500001449,1.0,1.0,part_1,,,,,,,,,,,,,cyan,flipped triangle
82.0,2.0,2.0,0.0,1.0,1.0,438.3588959999542,1.0,1.0,part_1,,,,,,,,,,,,,blue,diamond
225.0,3.0,3.0,0.0,3.0,3.0,343.184378999922,1.0,1.0,part_1,,,,,,,,,,,,,yellow,triangle
421.0,8.0,4.0,1.0,1.0,1.0,475.8152429999427,1.0,1.0,part_1,,,,,,,,,,,,,cyan,flipped triangle
177.0,3.0,3.0,0.0,2.0,2.0,366.6062229999625,1.0,1.0,part_1,,,,,,,,,,,,,yellow,triangle
397.0,4.0,4.0,0.0,1.0,1.0,418.7531289999242,1.0,1.0,part_1,,,,,,,,,,,,,orange,square
49.0,1.0,1.0,0.0,1.0,1.0,385.3032140000323,1.0,1.0,part_1,,,,,,,,,,,,,green,circle
0.0,6.0,0.0,1.0,3.0,3.0,488.2985700000972,1.0,1.0,part_1,,,,,,,,,,,,,white,I
0.0,7.0,0.0,1.0,4.0,4.0,418.2871060002071,1.0,1.0,part_1,,,,,,,,,,,,,magenta,hexagon
382.0,4.0,4.0,0.0,3.0,3.0,433.2421429999158,1.0,1.0,part_1,,,,,,,,,,,,,orange,square
385.0,8.0,4.0,1.0,4.0,4.0,409.8968759999479,1.0,1.0,part_1,,,,,,,,,,,,,cyan,flipped triangle
55.0,5.0,1.0,1.0,2.0,2.0,396.0122399998909,1.0,1.0,part_1,,,,,,,,,,,,,gray,cross
46.0,5.0,1.0,1.0,3.0,3.0,360.7333059999291,1.0,1.0,part_1,,,,,,,,,,,,,gray,cross
0.0,3.0,0.0,0.0,1.0,1.0,385.5092190001414,1.0,1.0,part_1,,,,,,,,,,,,,yellow,triangle
197.0,3.0,3.0,0.0,2.0,2.0,332.0513490002668,1.0,1.0,part_1,,,,,,,,,,,,,yellow,triangle
79.0,6.0,2.0,1.0,1.0,1.0,325.516762999996,1.0,1.0,part_1,,,,,,,,,,,,,white,I
62.0,5.0,1.0,1.0,1.0,1.0,365.6012569999802,1.0,1.0,part_1,,,,,,,,,,,,,gray,cross
206.0,3.0,3.0,0.0,1.0,1.0,361.6632980001668,1.0,1.0,part_1,,,,,,,,,,,,,yellow,triangle
381.0,4.0,4.0,0.0,3.0,3.0,374.4501869996384,1.0,1.0,part_1,,,,,,,,,,,,,orange,square
218.0,3.0,3.0,0.0,3.0,3.0,378.0125569996926,1.0,1.0,part_1,,,,,,,,,,,,,yellow,triangle
188.0,7.0,3.0,1.0,4.0,4.0,414.4432999996752,1.0,1.0,part_1,,,,,,,,,,,,,magenta,hexagon
108.0,6.0,2.0,1.0,2.0,2.0,378.9725800002088,1.0,1.0,part_1,,,,,,,,,,,,,white,I
213.0,3.0,3.0,0.0,1.0,1.0,357.4015059998601,1.0,1.0,part_1,,,,,,,,,,,,,yellow,triangle
0.0,1.0,0.0,0.0,1.0,1.0,357.1237599999222,1.0,1.0,part_1,,,,,,,,,,,,,green,circle
90.0,6.0,2.0,1.0,1.0,1.0,331.5289649999613,1.0,1.0,part_1,,,,,,,,,,,,,white,I
79.0,2.0,2.0,0.0,1.0,1.0,359.68708900009,1.0,1.0,part_1,,,,,,,,,,,,,blue,diamond
36.0,5.0,1.0,1.0,3.0,3.0,383.8390999999319,1.0,1.0,part_1,,,,,,,,,,,,,gray,cross
397.0,8.0,4.0,1.0,1.0,1.0,338.5773969998809,1.0,1.0,part_1,,,,,,,,,,,,,cyan,flipped triangle
416.0,8.0,4.0,1.0,3.0,3.0,351.7738410000675,1.0,1.0,part_1,,,,,,,,,,,,,cyan,flipped triangle
224.0,7.0,3.0,1.0,3.0,3.0,359.6000709999316,1.0,1.0,part_1,,,,,,,,,,,,,magenta,hexagon
389.0,8.0,4.0,1.0,3.0,3.0,338.2431669997459,1.0,1.0,part_1,,,,,,,,,,,,,cyan,flipped triangle
199.0,3.0,3.0,0.0,3.0,3.0,353.9397999998073,1.0,1.0,part_1,,,,,,,,,,,,,yellow,triangle
424.0,4.0,4.0,0.0,2.0,2.0,358.0569010000545,1.0,1.0,part_1,,,,,,,,,,,,,orange,square
90.0,2.0,2.0,0.0,2.0,2.0,360.3792849999081,1.0,1.0,part_1,,,,,,,,,,,,,blue,diamond
124.0,2.0,2.0,0.0,3.0,3.0,359.7671749998881,1.0,1.0,part_1,,,,,,,,,,,,,blue,diamond
30.0,5.0,1.0,1.0,4.0,4.0,398.7301689999185,1.0,1.0,part_1,,,,,,,,,,,,,gray,cross
178.0,7.0,3.0,1.0,2.0,2.0,325.270595999882,1.0,1.0,part_1,,,,,,,,,,,,,magenta,hexagon
384.0,4.0,4.0,0.0,4.0,4.0,406.2780250001196,1.0,1.0,part_1,,,,,,,,,,,,,orange,square
91.0,2.0,2.0,0.0,1.0,1.0,472.2876209998503,1.0,1.0,part_1,,,,,,,,,,,,,blue,diamond
0.0,6.0,0.0,1.0,1.0,1.0,368.9744180001071,1.0,1.0,part_1,,,,,,,,,,,,,white,I
49.0,5.0,1.0,1.0,3.0,3.0,367.6950449998912,1.0,1.0,part_1,,,,,,,,,,,,,gray,cross
120.0,2.0,2.0,0.0,3.0,3.0,341.3919429999623,1.0,1.0,part_1,,,,,,,,,,,,,blue,diamond
106.0,6.0,2.0,1.0,3.0,3.0,335.8783980002044,1.0,1.0,part_1,,,,,,,,,,,,,white,I
0.0,4.0,0.0,0.0,2.0,2.0,438.944327000172,1.0,1.0,part_1,,,,,,,,,,,,,orange,square
116.0,6.0,2.0,1.0,4.0,4.0,392.5246110002263,1.0,1.0,part_1,,,,,,,,,,,,,white,I
375.0,4.0,4.0,0.0,2.0,2.0,324.7034450000683,1.0,1.0,part_1,,,,,,,,,,,,,orange,square
0.0,3.0,0.0,0.0,2.0,2.0,345.7876179995764,1.0,1.0,part_1,,,,,,,,,,,,,yellow,triangle
0.0,2.0,0.0,0.0,4.0,4.0,351.1022219995539,1.0,1.0,part_1,,,,,,,,,,,,,blue,diamond
0.0,2.0,0.0,0.0,2.0,2.0,305.4687630001353,1.0,1.0,part_1,,,,,,,,,,,,,blue,diamond
115.0,6.0,2.0,1.0,2.0,2.0,339.7654139998849,1.0,1.0,part_1,,,,,,,,,,,,,white,I
0.0,4.0,0.0,0.0,2.0,2.0,295.6463519999488,1.0,1.0,part_1,,,,,,,,,,,,,orange,square
418.0,4.0,4.0,0.0,1.0,1.0,340.1421749999826,1.0,1.0,part_1,,,,,,,,,,,,,orange,square
0.0,4.0,0.0,0.0,4.0,4.0,372.2162849999222,1.0,1.0,part_1,,,,,,,,,,,,,orange,square
180.0,3.0,3.0,0.0,2.0,2.0,344.8844249996909,2.0,1.0,part_1,,,,,,,,,,,,,yellow,triangle
48.0,1.0,1.0,0.0,4.0,4.0,329.0785640001559,2.0,1.0,part_1,,,,,,,,,,,,,green,circle
416.0,4.0,4.0,0.0,1.0,1.0,337.4490209998839,2.0,1.0,part_1,,,,,,,,,,,,,orange,square
403.0,4.0,4.0,0.0,1.0,1.0,321.9346559999394,2.0,1.0,part_1,,,,,,,,,,,,,orange,square
387.0,4.0,4.0,0.0,2.0,2.0,338.5769780002192,2.0,1.0,part_1,,,,,,,,,,,,,orange,square
419.0,8.0,4.0,1.0,4.0,4.0,338.5164050000639,2.0,1.0,part_1,,,,,,,,,,,,,cyan,flipped triangle
0.0,3.0,0.0,0.0,1.0,1.0,376.9450820000202,2.0,1.0,part_1,,,,,,,,,,,,,yellow,triangle
403.0,8.0,4.0,1.0,2.0,2.0,314.8145870000007,2.0,1.0,part_1,,,,,,,,,,,,,cyan,flipped triangle
26.0,5.0,1.0,1.0,2.0,2.0,476.1318890000439,2.0,1.0,part_1,,,,,,,,,,,,,gray,cross
83.0,6.0,2.0,1.0,4.0,4.0,328.63140300014487,2.0,1.0,part_1,,,,,,,,,,,,,white,I
377.0,4.0,4.0,0.0,1.0,1.0,370.7773979999729,2.0,1.0,part_1,,,,,,,,,,,,,orange,square
32.0,5.0,1.0,1.0,2.0,2.0,320.8028760000161,2.0,1.0,part_1,,,,,,,,,,,,,gray,cross
0.0,5.0,0.0,1.0,3.0,3.0,339.0720039997177,2.0,1.0,part_1,,,,,,,,,,,,,gray,cross
52.0,1.0,1.0,0.0,3.0,3.0,349.4199000001572,2.0,1.0,part_1,,,,,,,,,,,,,green,circle
110.0,6.0,2.0,1.0,4.0,4.0,406.7939500000648,2.0,1.0,part_1,,,,,,,,,,,,,white,I
85.0,6.0,2.0,1.0,1.0,1.0,300.7536410000284,2.0,1.0,part_1,,,,,,,,,,,,,white,I
396.0,4.0,4.0,0.0,2.0,2.0,324.4998099999066,2.0,1.0,part_1,,,,,,,,,,,,,orange,square
0.0,4.0,0.0,0.0,4.0,4.0,322.3503400004119,2.0,1.0,part_1,,,,,,,,,,,,,orange,square
0.0,2.0,0.0,0.0,2.0,2.0,319.826330000069,2.0,1.0,part_1,,,,,,,,,,,,,blue,diamond
0.0,2.0,0.0,0.0,4.0,4.0,438.0832919996464,2.0,2.0,part_1,,,,,,,,,,,,,blue,diamond
122.0,6.0,2.0,1.0,2.0,2.0,323.2454009998946,2.0,1.0,part_1,,,,,,,,,,,,,white,I
32.0,1.0,1.0,0.0,1.0,1.0,445.8002149999629,2.0,1.0,part_1,,,,,,,,,,,,,green,circle
0.0,6.0,0.0,1.0,2.0,2.0,378.942964000089,2.0,1.0,part_1,,,,,,,,,,,,,white,I
79.0,2.0,2.0,0.0,4.0,4.0,344.7184219999144,2.0,1.0,part_1,,,,,,,,,,,,,blue,diamond
0.0,8.0,0.0,1.0,2.0,2.0,328.9695090002169,2.0,1.0,part_1,,,,,,,,,,,,,cyan,flipped triangle
27.0,1.0,1.0,0.0,2.0,2.0,340.2376789999835,2.0,1.0,part_1,,,,,,,,,,,,,green,circle
201.0,7.0,3.0,1.0,3.0,3.0,352.3723530001916,2.0,1.0,part_1,,,,,,,,,,,,,magenta,hexagon
179.0,7.0,3.0,1.0,2.0,2.0,293.5637139999016,2.0,1.0,part_1,,,,,,,,,,,,,magenta,hexagon
0.0,8.0,0.0,1.0,4.0,4.0,344.7798279999006,2.0,1.0,part_1,,,,,,,,,,,,,cyan,flipped triangle
188.0,3.0,3.0,0.0,4.0,4.0,345.9146239997608,2.0,1.0,part_1,,,,,,,,,,,,,yellow,triangle
43.0,1.0,1.0,0.0,3.0,3.0,319.1460899997764,2.0,2.0,part_1,,,,,,,,,,,,,green,circle
421.0,4.0,4.0,0.0,4.0,4.0,351.6023010001845,2.0,1.0,part_1,,,,,,,,,,,,,orange,square
106.0,2.0,2.0,0.0,2.0,2.0,328.3721359998708,2.0,1.0,part_1,,,,,,,,,,,,,blue,diamond
206.0,7.0,3.0,1.0,3.0,3.0,300.4547340001409,2.0,1.0,part_1,,,,,,,,,,,,,magenta,hexagon
0.0,4.0,0.0,0.0,1.0,1.0,347.5183119999201,2.0,1.0,part_1,,,,,,,,,,,,,orange,square
217.0,7.0,3.0,1.0,1.0,1.0,375.4266040000402,2.0,1.0,part_1,,,,,,,,,,,,,magenta,hexagon
224.0,3.0,3.0,0.0,1.0,1.0,310.4109299997617,2.0,1.0,part_1,,,,,,,,,,,,,yellow,triangle
61.0,5.0,1.0,1.0,4.0,4.0,413.8511169999219,2.0,1.0,part_1,,,,,,,,,,,,,gray,cross
407.0,8.0,4.0,1.0,4.0,4.0,535.9198289997948,2.0,1.0,part_1,,,,,,,,,,,,,cyan,flipped triangle
91.0,6.0,2.0,1.0,1.0,1.0,428.9388800002598,2.0,1.0,part_1,,,,,,,,,,,,,white,I
111.0,6.0,2.0,1.0,2.0,2.0,428.1069490002664,2.0,1.0,part_1,,,,,,,,,,,,,white,I
198.0,3.0,3.0,0.0,1.0,1.0,412.7047560000392,2.0,1.0,part_1,,,,,,,,,,,,,yellow,triangle
224.0,3.0,3.0,0.0,1.0,1.0,332.2377149997919,2.0,1.0,part_1,,,,,,,,,,,,,yellow,triangle
100.0,2.0,2.0,0.0,1.0,1.0,326.2066730003425,2.0,1.0,part_1,,,,,,,,,,,,,blue,diamond
0.0,6.0,0.0,1.0,2.0,2.0,352.7395270002671,2.0,1.0,part_1,,,,,,,,,,,,,white,I
399.0,8.0,4.0,1.0,1.0,1.0,392.4467029996776,2.0,1.0,part_1,,,,,,,,,,,,,cyan,flipped triangle
222.0,3.0,3.0,0.0,2.0,2.0,385.2571040001749,2.0,1.0,part_1,,,,,,,,,,,,,yellow,triangle
389.0,4.0,4.0,0.0,3.0,3.0,400.8686769998348,2.0,1.0,part_1,,,,,,,,,,,,,orange,square
0.0,1.0,0.0,0.0,4.0,4.0,380.9448219999467,2.0,1.0,part_1,,,,,,,,,,,,,green,circle
67.0,5.0,1.0,1.0,2.0,2.0,347.9337080002551,2.0,1.0,part_1,,,,,,,,,,,,,gray,cross
112.0,2.0,2.0,0.0,4.0,4.0,362.4291209998773,2.0,1.0,part_1,,,,,,,,,,,,,blue,diamond
102.0,2.0,2.0,0.0,2.0,2.0,431.1596089996783,2.0,1.0,part_1,,,,,,,,,,,,,blue,diamond
40.0,5.0,1.0,1.0,3.0,3.0,390.3973820001738,2.0,1.0,part_1,,,,,,,,,,,,,gray,cross
113.0,6.0,2.0,1.0,3.0,3.0,372.6362059996972,2.0,1.0,part_1,,,,,,,,,,,,,white,I
186.0,3.0,3.0,0.0,1.0,1.0,473.0287419997694,2.0,1.0,part_1,,,,,,,,,,,,,yellow,triangle
64.0,1.0,1.0,0.0,2.0,2.0,334.0031789998647,2.0,1.0,part_1,,,,,,,,,,,,,green,circle
40.0,1.0,1.0,0.0,4.0,4.0,365.0506660001156,2.0,1.0,part_1,,,,,,,,,,,,,green,circle
396.0,8.0,4.0,1.0,3.0,3.0,373.130478999883,2.0,1.0,part_1,,,,,,,,,,,,,cyan,flipped triangle
0.0,1.0,0.0,0.0,3.0,3.0,340.6572540002344,2.0,1.0,part_1,,,,,,,,,,,,,green,circle
28.0,5.0,1.0,1.0,2.0,2.0,336.2220230001185,2.0,1.0,part_1,,,,,,,,,,,,,gray,cross
420.0,8.0,4.0,1.0,4.0,4.0,346.1586190001071,2.0,1.0,part_1,,,,,,,,,,,,,cyan,flipped triangle
402.0,8.0,4.0,1.0,2.0,2.0,312.4554630003331,2.0,1.0,part_1,,,,,,,,,,,,,cyan,flipped triangle
91.0,2.0,2.0,0.0,4.0,4.0,349.6615849999216,2.0,1.0,part_1,,,,,,,,,,,,,blue,diamond
206.0,7.0,3.0,1.0,3.0,3.0,350.8619180001915,2.0,1.0,part_1,,,,,,,,,,,,,magenta,hexagon
0.0,1.0,0.0,0.0,2.0,2.0,313.8389790001383,2.0,1.0,part_1,,,,,,,,,,,,,green,circle
419.0,4.0,4.0,0.0,2.0,2.0,346.4782339997327,2.0,1.0,part_1,,,,,,,,,,,,,orange,square
80.0,6.0,2.0,1.0,3.0,3.0,303.6741400001119,2.0,1.0,part_1,,,,,,,,,,,,,white,I
0.0,7.0,0.0,1.0,2.0,2.0,288.7351869999293,2.0,1.0,part_1,,,,,,,,,,,,,magenta,hexagon
223.0,7.0,3.0,1.0,4.0,4.0,384.3343869998534,2.0,1.0,part_1,,,,,,,,,,,,,magenta,hexagon
379.0,4.0,4.0,0.0,3.0,3.0,357.6187879998542,2.0,1.0,part_1,,,,,,,,,,,,,orange,square
0.0,5.0,0.0,1.0,3.0,3.0,360.1127299998552,2.0,1.0,part_1,,,,,,,,,,,,,gray,cross
102.0,6.0,2.0,1.0,3.0,3.0,362.7153079996787,2.0,1.0,part_1,,,,,,,,,,,,,white,I
393.0,4.0,4.0,0.0,3.0,3.0,348.6967300000287,2.0,1.0,part_1,,,,,,,,,,,,,orange,square
0.0,7.0,0.0,1.0,3.0,3.0,305.8649120002883,2.0,1.0,part_1,,,,,,,,,,,,,magenta,hexagon
401.0,4.0,4.0,0.0,4.0,4.0,363.187984000433,2.0,1.0,part_1,,,,,,,,,,,,,orange,square
100.0,2.0,2.0,0.0,3.0,3.0,336.4654649999465,2.0,1.0,part_1,,,,,,,,,,,,,blue,diamond
79.0,6.0,2.0,1.0,3.0,3.0,300.7794919999469,2.0,1.0,part_1,,,,,,,,,,,,,white,I
0.0,3.0,0.0,0.0,1.0,1.0,407.9068689998166,2.0,1.0,part_1,,,,,,,,,,,,,yellow,triangle
75.0,5.0,1.0,1.0,3.0,3.0,298.5305579995838,2.0,1.0,part_1,,,,,,,,,,,,,gray,cross
36.0,1.0,1.0,0.0,3.0,3.0,319.4135809999352,2.0,1.0,part_1,,,,,,,,,,,,,green,circle
101.0,2.0,2.0,0.0,2.0,2.0,470.1274069998362,2.0,1.0,part_1,,,,,,,,,,,,,blue,diamond
39.0,5.0,1.0,1.0,1.0,1.0,423.2381870001518,2.0,1.0,part_1,,,,,,,,,,,,,gray,cross
35.0,1.0,1.0,0.0,4.0,4.0,329.9946500001169,2.0,1.0,part_1,,,,,,,,,,,,,green,circle
419.0,4.0,4.0,0.0,4.0,4.0,325.8931870000197,2.0,1.0,part_1,,,,,,,,,,,,,orange,square
90.0,2.0,2.0,0.0,4.0,4.0,317.0737909999843,2.0,1.0,part_1,,,,,,,,,,,,,blue,diamond
0.0,8.0,0.0,1.0,1.0,1.0,346.6190419999293,2.0,1.0,part_1,,,,,,,,,,,,,cyan,flipped triangle
86.0,6.0,2.0,1.0,4.0,4.0,493.3163699997749,2.0,1.0,part_1,,,,,,,,,,,,,white,I
407.0,4.0,4.0,0.0,1.0,1.0,373.4258570002566,2.0,1.0,part_1,,,,,,,,,,,,,orange,square
397.0,4.0,4.0,0.0,3.0,3.0,339.8041200002808,2.0,1.0,part_1,,,,,,,,,,,,,orange,square
122.0,2.0,2.0,0.0,2.0,2.0,312.4441330000991,2.0,1.0,part_1,,,,,,,,,,,,,blue,diamond
64.0,5.0,1.0,1.0,2.0,2.0,329.1515780001646,2.0,1.0,part_1,,,,,,,,,,,,,gray,cross
0.0,1.0,0.0,0.0,2.0,2.0,320.8392930000627,2.0,1.0,part_1,,,,,,,,,,,,,green,circle
180.0,7.0,3.0,1.0,3.0,3.0,357.0880970000871,2.0,1.0,part_1,,,,,,,,,,,,,magenta,hexagon
198.0,7.0,3.0,1.0,2.0,2.0,326.2582199999997,2.0,1.0,part_1,,,,,,,,,,,,,magenta,hexagon
62.0,1.0,1.0,0.0,1.0,1.0,339.1455599999062,2.0,1.0,part_1,,,,,,,,,,,,,green,circle
402.0,8.0,4.0,1.0,3.0,3.0,329.0879520000089,2.0,1.0,part_1,,,,,,,,,,,,,cyan,flipped triangle
0.0,2.0,0.0,0.0,2.0,2.0,306.1268389997167,2.0,1.0,part_1,,,,,,,,,,,,,blue,diamond
177.0,7.0,3.0,1.0,4.0,4.0,320.20698199994507,2.0,1.0,part_1,,,,,,,,,,,,,magenta,hexagon
0.0,7.0,0.0,1.0,4.0,4.0,312.4889769997026,2.0,1.0,part_1,,,,,,,,,,,,,magenta,hexagon
0.0,8.0,0.0,1.0,4.0,4.0,315.4587459998765,2.0,1.0,part_1,,,,,,,,,,,,,cyan,flipped triangle
91.0,2.0,2.0,0.0,1.0,1.0,354.1299629996501,3.0,1.0,part_1,,,,,,,,,,,,,blue,diamond
61.0,1.0,1.0,0.0,1.0,1.0,333.9169369996853,3.0,1.0,part_1,,,,,,,,,,,,,green,circle
0.0,2.0,0.0,0.0,1.0,1.0,302.9632100001436,3.0,1.0,part_1,,,,,,,,,,,,,blue,diamond
0.0,8.0,0.0,1.0,1.0,1.0,278.6344539999845,3.0,1.0,part_1,,,,,,,,,,,,,cyan,flipped triangle
0.0,7.0,0.0,1.0,2.0,2.0,294.7419689999151,3.0,1.0,part_1,,,,,,,,,,,,,magenta,hexagon
384.0,8.0,4.0,1.0,4.0,4.0,310.8899019998716,3.0,1.0,part_1,,,,,,,,,,,,,cyan,flipped triangle
52.0,5.0,1.0,1.0,1.0,1.0,327.0121300001847,3.0,1.0,part_1,,,,,,,,,,,,,gray,cross
422.0,4.0,4.0,0.0,2.0,2.0,296.133343999827,3.0,1.0,part_1,,,,,,,,,,,,,orange,square
0.0,4.0,0.0,0.0,1.0,1.0,328.7263499996697,3.0,1.0,part_1,,,,,,,,,,,,,orange,square
193.0,7.0,3.0,1.0,3.0,3.0,396.1369520002336,3.0,1.0,part_1,,,,,,,,,,,,,magenta,hexagon
58.0,1.0,1.0,0.0,2.0,2.0,339.3612810000377,3.0,1.0,part_1,,,,,,,,,,,,,green,circle
43.0,5.0,1.0,1.0,3.0,3.0,334.3370520001372,3.0,1.0,part_1,,,,,,,,,,,,,gray,cross
70.0,1.0,1.0,0.0,1.0,1.0,312.5365870000678,3.0,1.0,part_1,,,,,,,,,,,,,green,circle
217.0,3.0,3.0,0.0,3.0,3.0,295.9200149998651,3.0,1.0,part_1,,,,,,,,,,,,,yellow,triangle
225.0,7.0,3.0,1.0,1.0,1.0,363.6024749998796,3.0,1.0,part_1,,,,,,,,,,,,,magenta,hexagon
387.0,8.0,4.0,1.0,3.0,3.0,303.5123969998494,3.0,1.0,part_1,,,,,,,,,,,,,cyan,flipped triangle
0.0,6.0,0.0,1.0,1.0,1.0,297.8573479999795,3.0,1.0,part_1,,,,,,,,,,,,,white,I
0.0,4.0,0.0,0.0,4.0,4.0,513.6617480002315,3.0,1.0,part_1,,,,,,,,,,,,,orange,square
97.0,2.0,2.0,0.0,1.0,1.0,327.16338299997,3.0,1.0,part_1,,,,,,,,,,,,,blue,diamond
73.0,1.0,1.0,0.0,2.0,2.0,349.8281170000155,3.0,1.0,part_1,,,,,,,,,,,,,green,circle
0.0,7.0,0.0,1.0,2.0,2.0,335.0886540001738,3.0,1.0,part_1,,,,,,,,,,,,,magenta,hexagon
188.0,3.0,3.0,0.0,2.0,2.0,319.2971369999213,3.0,1.0,part_1,,,,,,,,,,,,,yellow,triangle
101.0,6.0,2.0,1.0,4.0,4.0,443.0847779999567,3.0,1.0,part_1,,,,,,,,,,,,,white,I
201.0,3.0,3.0,0.0,4.0,4.0,346.909081999911,3.0,1.0,part_1,,,,,,,,,,,,,yellow,triangle
101.0,2.0,2.0,0.0,4.0,4.0,434.0118569998594,3.0,1.0,part_1,,,,,,,,,,,,,blue,diamond
0.0,8.0,0.0,1.0,4.0,4.0,415.1977129999977,3.0,1.0,part_1,,,,,,,,,,,,,cyan,flipped triangle
120.0,6.0,2.0,1.0,2.0,2.0,365.6490309999753,3.0,1.0,part_1,,,,,,,,,,,,,white,I
185.0,7.0,3.0,1.0,3.0,3.0,330.8775239997885,3.0,1.0,part_1,,,,,,,,,,,,,magenta,hexagon
0.0,2.0,0.0,0.0,4.0,4.0,336.6748650000772,3.0,1.0,part_1,,,,,,,,,,,,,blue,diamond
206.0,3.0,3.0,0.0,3.0,3.0,344.8045449999881,3.0,1.0,part_1,,,,,,,,,,,,,yellow,triangle
189.0,7.0,3.0,1.0,1.0,1.0,325.9617920002711,3.0,1.0,part_1,,,,,,,,,,,,,magenta,hexagon
420.0,4.0,4.0,0.0,1.0,1.0,336.4505540002938,3.0,1.0,part_1,,,,,,,,,,,,,orange,square
400.0,4.0,4.0,0.0,1.0,1.0,315.8430600001338,3.0,1.0,part_1,,,,,,,,,,,,,orange,square
28.0,5.0,1.0,1.0,2.0,2.0,377.6053910000883,3.0,1.0,part_1,,,,,,,,,,,,,gray,cross
408.0,4.0,4.0,0.0,4.0,4.0,305.6367290000708,3.0,1.0,part_1,,,,,,,,,,,,,orange,square
0.0,3.0,0.0,0.0,2.0,2.0,314.1808919999675,3.0,1.0,part_1,,,,,,,,,,,,,yellow,triangle
380.0,8.0,4.0,1.0,2.0,2.0,305.0307899998188,3.0,1.0,part_1,,,,,,,,,,,,,cyan,flipped triangle
380.0,4.0,4.0,0.0,4.0,4.0,327.7711330001693,3.0,1.0,part_1,,,,,,,,,,,,,orange,square
67.0,5.0,1.0,1.0,4.0,4.0,355.5023130002155,3.0,1.0,part_1,,,,,,,,,,,,,gray,cross
113.0,2.0,2.0,0.0,2.0,2.0,297.5355870003113,3.0,1.0,part_1,,,,,,,,,,,,,blue,diamond
100.0,6.0,2.0,1.0,3.0,3.0,334.7549319996687,3.0,1.0,part_1,,,,,,,,,,,,,white,I
35.0,5.0,1.0,1.0,1.0,1.0,342.3866549997001,3.0,1.0,part_1,,,,,,,,,,,,,gray,cross
28.0,1.0,1.0,0.0,2.0,2.0,478.3043329998691,3.0,1.0,part_1,,,,,,,,,,,,,green,circle
0.0,1.0,0.0,0.0,2.0,2.0,298.193043000083,3.0,1.0,part_1,,,,,,,,,,,,,green,circle
402.0,4.0,4.0,0.0,3.0,3.0,303.2124619999194,3.0,1.0,part_1,,,,,,,,,,,,,orange,square
38.0,1.0,1.0,0.0,4.0,4.0,291.3306909999846,3.0,1.0,part_1,,,,,,,,,,,,,green,circle
186.0,7.0,3.0,1.0,2.0,2.0,328.5589179999988,3.0,1.0,part_1,,,,,,,,,,,,,magenta,hexagon
49.0,5.0,1.0,1.0,2.0,2.0,328.4358820001216,3.0,1.0,part_1,,,,,,,,,,,,,gray,cross
57.0,1.0,1.0,0.0,4.0,4.0,349.6656239999538,3.0,1.0,part_1,,,,,,,,,,,,,green,circle
0.0,5.0,0.0,1.0,3.0,3.0,305.9908129998803,3.0,1.0,part_1,,,,,,,,,,,,,gray,cross
0.0,3.0,0.0,0.0,2.0,2.0,276.4002169997184,3.0,1.0,part_1,,,,,,,,,,,,,yellow,triangle
70.0,5.0,1.0,1.0,2.0,2.0,296.0453330001655,3.0,1.0,part_1,,,,,,,,,,,,,gray,cross
109.0,2.0,2.0,0.0,4.0,4.0,371.7220329999691,3.0,1.0,part_1,,,,,,,,,,,,,blue,diamond
107.0,2.0,2.0,0.0,3.0,3.0,346.8413269997654,3.0,1.0,part_1,,,,,,,,,,,,,blue,diamond
217.0,7.0,3.0,1.0,4.0,4.0,344.8104409999359,3.0,1.0,part_1,,,,,,,,,,,,,magenta,hexagon
75.0,1.0,1.0,0.0,3.0,3.0,321.7921979999119,3.0,1.0,part_1,,,,,,,,,,,,,green,circle
0.0,6.0,0.0,1.0,2.0,2.0,331.0902159996658,3.0,1.0,part_1,,,,,,,,,,,,,white,I
67.0,1.0,1.0,0.0,3.0,3.0,328.7941349999528,3.0,1.0,part_1,,,,,,,,,,,,,green,circle
389.0,8.0,4.0,1.0,1.0,1.0,398.1141850003951,3.0,1.0,part_1,,,,,,,,,,,,,cyan,flipped triangle
80.0,2.0,2.0,0.0,3.0,3.0,332.7209109997966,3.0,1.0,part_1,,,,,,,,,,,,,blue,diamond
379.0,8.0,4.0,1.0,2.0,2.0,336.7907760002708,3.0,1.0,part_1,,,,,,,,,,,,,cyan,flipped triangle
408.0,8.0,4.0,1.0,3.0,3.0,308.0806160000975,3.0,1.0,part_1,,,,,,,,,,,,,cyan,flipped triangle
112.0,6.0,2.0,1.0,1.0,1.0,301.5237479999086,3.0,1.0,part_1,,,,,,,,,,,,,white,I
211.0,7.0,3.0,1.0,1.0,1.0,283.3357019999312,3.0,1.0,part_1,,,,,,,,,,,,,magenta,hexagon
38.0,5.0,1.0,1.0,1.0,1.0,342.39954599979677,3.0,1.0,part_1,,,,,,,,,,,,,gray,cross
0.0,6.0,0.0,1.0,1.0,1.0,332.9527480000251,3.0,1.0,part_1,,,,,,,,,,,,,white,I
220.0,7.0,3.0,1.0,2.0,2.0,316.5552010000283,3.0,1.0,part_1,,,,,,,,,,,,,magenta,hexagon
414.0,8.0,4.0,1.0,1.0,1.0,365.1776249998875,3.0,1.0,part_1,,,,,,,,,,,,,cyan,flipped triangle
389.0,4.0,4.0,0.0,2.0,2.0,317.3362819998147,3.0,1.0,part_1,,,,,,,,,,,,,orange,square
124.0,6.0,2.0,1.0,3.0,3.0,567.7363830000104,3.0,1.0,part_1,,,,,,,,,,,,,white,I
188.0,7.0,3.0,1.0,4.0,4.0,327.1556400000008,3.0,1.0,part_1,,,,,,,,,,,,,magenta,hexagon
0.0,6.0,0.0,1.0,1.0,1.0,323.0821379997906,3.0,1.0,part_1,,,,,,,,,,,,,white,I
422.0,8.0,4.0,1.0,3.0,3.0,313.1413179999072,3.0,1.0,part_1,,,,,,,,,,,,,cyan,flipped triangle
68.0,1.0,1.0,0.0,1.0,1.0,311.7760309996811,3.0,1.0,part_1,,,,,,,,,,,,,green,circle
399.0,8.0,4.0,1.0,1.0,1.0,338.6578990002817,3.0,1.0,part_1,,,,,,,,,,,,,cyan,flipped triangle
387.0,4.0,4.0,0.0,2.0,2.0,362.1076800000082,3.0,1.0,part_1,,,,,,,,,,,,,orange,square
387.0,8.0,4.0,1.0,2.0,2.0,492.3295620001227,3.0,1.0,part_1,,,,,,,,,,,,,cyan,flipped triangle
75.0,1.0,1.0,0.0,3.0,3.0,312.4152539999159,3.0,1.0,part_1,,,,,,,,,,,,,green,circle
30.0,1.0,1.0,0.0,1.0,1.0,342.1799220000139,3.0,1.0,part_1,,,,,,,,,,,,,green,circle
0.0,5.0,0.0,1.0,4.0,4.0,435.3768569999374,3.0,1.0,part_1,,,,,,,,,,,,,gray,cross
414.0,8.0,4.0,1.0,1.0,1.0,380.9722270002567,3.0,1.0,part_1,,,,,,,,,,,,,cyan,flipped triangle
57.0,5.0,1.0,1.0,3.0,3.0,336.1357290000342,3.0,1.0,part_1,,,,,,,,,,,,,gray,cross
198.0,3.0,3.0,0.0,4.0,4.0,281.2550730000112,3.0,1.0,part_1,,,,,,,,,,,,,yellow,triangle
60.0,1.0,1.0,0.0,2.0,2.0,374.268246000156,3.0,1.0,part_1,,,,,,,,,,,,,green,circle
0.0,5.0,0.0,1.0,4.0,4.0,316.078976999961,3.0,1.0,part_1,,,,,,,,,,,,,gray,cross
0.0,2.0,0.0,0.0,4.0,4.0,368.3072029998584,3.0,1.0,part_1,,,,,,,,,,,,,blue,diamond
97.0,6.0,2.0,1.0,3.0,3.0,260.8536790003199,3.0,1.0,part_1,,,,,,,,,,,,,white,I
95.0,6.0,2.0,1.0,4.0,4.0,328.01396400009247,3.0,1.0,part_1,,,,,,,,,,,,,white,I
39.0,1.0,1.0,0.0,2.0,2.0,351.4913300000444,3.0,1.0,part_1,,,,,,,,,,,,,green,circle
191.0,7.0,3.0,1.0,3.0,3.0,298.8346860001911,3.0,1.0,part_1,,,,,,,,,,,,,magenta,hexagon
109.0,6.0,2.0,1.0,1.0,1.0,382.8990310003064,3.0,2.0,part_1,,,,,,,,,,,,,white,I
86.0,2.0,2.0,0.0,3.0,3.0,388.0524530000002,3.0,1.0,part_1,,,,,,,,,,,,,blue,diamond
0.0,1.0,0.0,0.0,2.0,2.0,283.5436949999348,3.0,1.0,part_1,,,,,,,,,,,,,green,circle
184.0,3.0,3.0,0.0,4.0,4.0,341.1145669997495,3.0,1.0,part_1,,,,,,,,,,,,,yellow,triangle
182.0,3.0,3.0,0.0,4.0,4.0,349.8884589998852,3.0,1.0,part_1,,,,,,,,,,,,,yellow,triangle
412.0,4.0,4.0,0.0,4.0,4.0,464.8679699998865,3.0,1.0,part_1,,,,,,,,,,,,,orange,square
58.0,5.0,1.0,1.0,4.0,4.0,337.4220669998067,3.0,1.0,part_1,,,,,,,,,,,,,gray,cross
59.0,5.0,1.0,1.0,3.0,3.0,394.4895559998258,3.0,1.0,part_1,,,,,,,,,,,,,gray,cross
46.0,1.0,1.0,0.0,4.0,4.0,361.8268100003661,3.0,1.0,part_1,,,,,,,,,,,,,green,circle
393.0,8.0,4.0,1.0,2.0,2.0,356.763893000334,3.0,1.0,part_1,,,,,,,,,,,,,cyan,flipped triangle
124.0,6.0,2.0,1.0,4.0,4.0,368.7103000002025,4.0,1.0,part_1,,,,,,,,,,,,,white,I
375.0,8.0,4.0,1.0,1.0,1.0,345.452516000023,4.0,1.0,part_1,,,,,,,,,,,,,cyan,flipped triangle
33.0,5.0,1.0,1.0,4.0,4.0,358.3530070000051,4.0,1.0,part_1,,,,,,,,,,,,,gray,cross
218.0,7.0,3.0,1.0,3.0,3.0,347.0395180002015,4.0,1.0,part_1,,,,,,,,,,,,,magenta,hexagon
0.0,6.0,0.0,1.0,2.0,2.0,317.1522309999091,4.0,1.0,part_1,,,,,,,,,,,,,white,I
32.0,5.0,1.0,1.0,4.0,4.0,359.7121839998181,4.0,1.0,part_1,,,,,,,,,,,,,gray,cross
176.0,3.0,3.0,0.0,2.0,2.0,275.6861210000352,4.0,1.0,part_1,,,,,,,,,,,,,yellow,triangle
49.0,1.0,1.0,0.0,1.0,1.0,315.2997699999105,4.0,1.0,part_1,,,,,,,,,,,,,green,circle
381.0,8.0,4.0,1.0,4.0,4.0,374.7013480001442,4.0,1.0,part_1,,,,,,,,,,,,,cyan,flipped triangle
115.0,2.0,2.0,0.0,1.0,1.0,295.5094339999959,4.0,1.0,part_1,,,,,,,,,,,,,blue,diamond
222.0,7.0,3.0,1.0,4.0,4.0,378.9878040001895,4.0,1.0,part_1,,,,,,,,,,,,,magenta,hexagon
208.0,7.0,3.0,1.0,1.0,1.0,326.692014999935,4.0,1.0,part_1,,,,,,,,,,,,,magenta,hexagon
184.0,7.0,3.0,1.0,1.0,1.0,321.738693000043,4.0,1.0,part_1,,,,,,,,,,,,,magenta,hexagon
198.0,7.0,3.0,1.0,2.0,2.0,387.4585389999083,4.0,1.0,part_1,,,,,,,,,,,,,magenta,hexagon
188.0,7.0,3.0,1.0,3.0,3.0,367.1189739998226,4.0,2.0,part_1,,,,,,,,,,,,,magenta,hexagon
109.0,2.0,2.0,0.0,2.0,2.0,353.1216000001222,4.0,1.0,part_1,,,,,,,,,,,,,blue,diamond
421.0,4.0,4.0,0.0,1.0,1.0,331.6702160000204,4.0,1.0,part_1,,,,,,,,,,,,,orange,square
72.0,1.0,1.0,0.0,4.0,4.0,340.4425369999444,4.0,1.0,part_1,,,,,,,,,,,,,green,circle
0.0,8.0,0.0,1.0,2.0,2.0,326.3603119999061,4.0,1.0,part_1,,,,,,,,,,,,,cyan,flipped triangle
95.0,2.0,2.0,0.0,1.0,1.0,331.9595779998963,4.0,1.0,part_1,,,,,,,,,,,,,blue,diamond
419.0,8.0,4.0,1.0,4.0,4.0,619.5056770002338,4.0,1.0,part_1,,,,,,,,,,,,,cyan,flipped triangle
124.0,2.0,2.0,0.0,3.0,3.0,335.0666649998857,4.0,1.0,part_1,,,,,,,,,,,,,blue,diamond
220.0,3.0,3.0,0.0,3.0,3.0,341.3359020000825,4.0,1.0,part_1,,,,,,,,,,,,,yellow,triangle
115.0,2.0,2.0,0.0,3.0,3.0,547.5309189996551,4.0,1.0,part_1,,,,,,,,,,,,,blue,diamond
79.0,2.0,2.0,0.0,4.0,4.0,452.6987129997906,4.0,1.0,part_1,,,,,,,,,,,,,blue,diamond
55.0,1.0,1.0,0.0,1.0,1.0,469.4388140001138,4.0,1.0,part_1,,,,,,,,,,,,,green,circle
33.0,1.0,1.0,0.0,2.0,2.0,347.5909890003095,4.0,1.0,part_1,,,,,,,,,,,,,green,circle
212.0,3.0,3.0,0.0,2.0,2.0,337.1799639999153,4.0,1.0,part_1,,,,,,,,,,,,,yellow,triangle
0.0,3.0,0.0,0.0,4.0,4.0,336.17775599987,4.0,1.0,part_1,,,,,,,,,,,,,yellow,triangle
0.0,8.0,0.0,1.0,1.0,1.0,394.93960999971017,4.0,1.0,part_1,,,,,,,,,,,,,cyan,flipped triangle
91.0,6.0,2.0,1.0,4.0,4.0,380.41103800014747,4.0,1.0,part_1,,,,,,,,,,,,,white,I
28.0,1.0,1.0,0.0,4.0,4.0,333.6337309997361,4.0,1.0,part_1,,,,,,,,,,,,,green,circle
107.0,6.0,2.0,1.0,2.0,2.0,353.8658369998302,4.0,1.0,part_1,,,,,,,,,,,,,white,I
116.0,2.0,2.0,0.0,1.0,1.0,315.8945760001188,4.0,1.0,part_1,,,,,,,,,,,,,blue,diamond
111.0,2.0,2.0,0.0,4.0,4.0,304.4938810003259,4.0,1.0,part_1,,,,,,,,,,,,,blue,diamond
0.0,2.0,0.0,0.0,4.0,4.0,358.8007380003546,4.0,1.0,part_1,,,,,,,,,,,,,blue,diamond
85.0,2.0,2.0,0.0,3.0,3.0,404.263832000197,4.0,1.0,part_1,,,,,,,,,,,,,blue,diamond
32.0,1.0,1.0,0.0,3.0,3.0,327.1821519997502,4.0,1.0,part_1,,,,,,,,,,,,,green,circle
224.0,7.0,3.0,1.0,2.0,2.0,296.4273759998832,4.0,1.0,part_1,,,,,,,,,,,,,magenta,hexagon
191.0,3.0,3.0,0.0,4.0,4.0,327.915239000049,4.0,1.0,part_1,,,,,,,,,,,,,yellow,triangle
26.0,1.0,1.0,0.0,3.0,3.0,366.9459640000241,4.0,1.0,part_1,,,,,,,,,,,,,green,circle
59.0,1.0,1.0,0.0,1.0,1.0,271.3384789999509,4.0,1.0,part_1,,,,,,,,,,,,,green,circle
385.0,4.0,4.0,0.0,2.0,2.0,292.9365569998481,4.0,1.0,part_1,,,,,,,,,,,,,orange,square
101.0,6.0,2.0,1.0,2.0,2.0,372.2504120000849,4.0,1.0,part_1,,,,,,,,,,,,,white,I
48.0,5.0,1.0,1.0,3.0,3.0,597.2822789999555,4.0,1.0,part_1,,,,,,,,,,,,,gray,cross
389.0,8.0,4.0,1.0,3.0,3.0,306.8240590000641,4.0,1.0,part_1,,,,,,,,,,,,,cyan,flipped triangle
424.0,8.0,4.0,1.0,1.0,1.0,332.8491319998647,4.0,1.0,part_1,,,,,,,,,,,,,cyan,flipped triangle
0.0,5.0,0.0,1.0,3.0,3.0,307.8927019996627,4.0,1.0,part_1,,,,,,,,,,,,,gray,cross
57.0,5.0,1.0,1.0,3.0,3.0,389.0799430000697,4.0,1.0,part_1,,,,,,,,,,,,,gray,cross
382.0,8.0,4.0,1.0,4.0,4.0,432.6554350000151,4.0,1.0,part_1,,,,,,,,,,,,,cyan,flipped triangle
108.0,2.0,2.0,0.0,3.0,3.0,329.4846220001091,4.0,1.0,part_1,,,,,,,,,,,,,blue,diamond
90.0,6.0,2.0,1.0,4.0,4.0,341.4999400001761,4.0,1.0,part_1,,,,,,,,,,,,,white,I
198.0,3.0,3.0,0.0,2.0,2.0,330.0310449999415,4.0,1.0,part_1,,,,,,,,,,,,,yellow,triangle
109.0,6.0,2.0,1.0,2.0,2.0,382.7282199999899,4.0,1.0,part_1,,,,,,,,,,,,,white,I
414.0,8.0,4.0,1.0,2.0,2.0,395.8162730000367,4.0,1.0,part_1,,,,,,,,,,,,,cyan,flipped triangle
64.0,5.0,1.0,1.0,4.0,4.0,341.7579370002386,4.0,1.0,part_1,,,,,,,,,,,,,gray,cross
61.0,5.0,1.0,1.0,1.0,1.0,378.1258049998541,4.0,1.0,part_1,,,,,,,,,,,,,gray,cross
390.0,4.0,4.0,0.0,3.0,3.0,304.053420999935,4.0,1.0,part_1,,,,,,,,,,,,,orange,square
191.0,7.0,3.0,1.0,1.0,1.0,362.9132459996071,4.0,1.0,part_1,,,,,,,,,,,,,magenta,hexagon
0.0,4.0,0.0,0.0,4.0,4.0,339.8199009998279,4.0,1.0,part_1,,,,,,,,,,,,,orange,square
110.0,2.0,2.0,0.0,2.0,2.0,276.0071399998196,4.0,1.0,part_1,,,,,,,,,,,,,blue,diamond
64.0,1.0,1.0,0.0,2.0,2.0,376.5162340000643,4.0,1.0,part_1,,,,,,,,,,,,,green,circle
0.0,2.0,0.0,0.0,1.0,1.0,312.0795780000662,4.0,1.0,part_1,,,,,,,,,,,,,blue,diamond
213.0,7.0,3.0,1.0,4.0,4.0,386.2945720002244,4.0,1.0,part_1,,,,,,,,,,,,,magenta,hexagon
57.0,1.0,1.0,0.0,2.0,2.0,313.131739000255,4.0,1.0,part_1,,,,,,,,,,,,,green,circle
399.0,4.0,4.0,0.0,4.0,4.0,303.0732739998711,4.0,1.0,part_1,,,,,,,,,,,,,orange,square
0.0,5.0,0.0,1.0,1.0,1.0,633.217496999805,4.0,1.0,part_1,,,,,,,,,,,,,gray,cross
0.0,7.0,0.0,1.0,4.0,4.0,352.9497039999114,4.0,1.0,part_1,,,,,,,,,,,,,magenta,hexagon
30.0,5.0,1.0,1.0,4.0,4.0,396.9941600003039,4.0,2.0,part_1,,,,,,,,,,,,,gray,cross
83.0,2.0,2.0,0.0,1.0,1.0,409.7719640003561,4.0,1.0,part_1,,,,,,,,,,,,,blue,diamond
193.0,3.0,3.0,0.0,1.0,1.0,326.2891340000351,4.0,1.0,part_1,,,,,,,,,,,,,yellow,triangle
0.0,4.0,0.0,0.0,2.0,2.0,348.9825639999253,4.0,1.0,part_1,,,,,,,,,,,,,orange,square
188.0,3.0,3.0,0.0,1.0,1.0,336.7613430000347,4.0,1.0,part_1,,,,,,,,,,,,,yellow,triangle
208.0,3.0,3.0,0.0,4.0,4.0,367.6514630001293,4.0,1.0,part_1,,,,,,,,,,,,,yellow,triangle
189.0,3.0,3.0,0.0,4.0,4.0,325.4373299996587,4.0,1.0,part_1,,,,,,,,,,,,,yellow,triangle
0.0,5.0,0.0,1.0,2.0,2.0,297.0745759998863,4.0,1.0,part_1,,,,,,,,,,,,,gray,cross
191.0,3.0,3.0,0.0,1.0,1.0,269.3389699998079,4.0,1.0,part_1,,,,,,,,,,,,,yellow,triangle
418.0,8.0,4.0,1.0,1.0,1.0,452.9770180001833,4.0,1.0,part_1,,,,,,,,,,,,,cyan,flipped triangle
0.0,7.0,0.0,1.0,4.0,4.0,357.245604000127,4.0,1.0,part_1,,,,,,,,,,,,,magenta,hexagon
185.0,3.0,3.0,0.0,2.0,2.0,372.3655959997813,4.0,1.0,part_1,,,,,,,,,,,,,yellow,triangle
211.0,3.0,3.0,0.0,4.0,4.0,321.4781770002446,4.0,1.0,part_1,,,,,,,,,,,,,yellow,triangle
179.0,3.0,3.0,0.0,3.0,3.0,331.8120710000585,4.0,1.0,part_1,,,,,,,,,,,,,yellow,triangle
0.0,3.0,0.0,0.0,4.0,4.0,310.1228109999283,4.0,1.0,part_1,,,,,,,,,,,,,yellow,triangle
100.0,6.0,2.0,1.0,2.0,2.0,310.6852490000165,4.0,1.0,part_1,,,,,,,,,,,,,white,I
199.0,7.0,3.0,1.0,1.0,1.0,341.9389340001544,4.0,1.0,part_1,,,,,,,,,,,,,magenta,hexagon
73.0,5.0,1.0,1.0,4.0,4.0,646.1940320000394,4.0,1.0,part_1,,,,,,,,,,,,,gray,cross
0.0,8.0,0.0,1.0,2.0,2.0,404.9687640003867,4.0,1.0,part_1,,,,,,,,,,,,,cyan,flipped triangle
0.0,1.0,0.0,0.0,3.0,3.0,644.7875289995864,4.0,1.0,part_1,,,,,,,,,,,,,green,circle
217.0,3.0,3.0,0.0,3.0,3.0,338.8679540003068,4.0,1.0,part_1,,,,,,,,,,,,,yellow,triangle
75.0,5.0,1.0,1.0,1.0,1.0,416.9039199996405,4.0,1.0,part_1,,,,,,,,,,,,,gray,cross
95.0,6.0,2.0,1.0,1.0,1.0,529.41299899976,4.0,1.0,part_1,,,,,,,,,,,,,white,I
0.0,1.0,0.0,0.0,2.0,2.0,398.183813000287,4.0,1.0,part_1,,,,,,,,,,,,,green,circle
91.0,6.0,2.0,1.0,3.0,3.0,342.9326840000612,4.0,1.0,part_1,,,,,,,,,,,,,white,I
412.0,8.0,4.0,1.0,3.0,3.0,305.9226519999356,4.0,1.0,part_1,,,,,,,,,,,,,cyan,flipped triangle
82.0,6.0,2.0,1.0,1.0,1.0,326.9995959999505,4.0,1.0,part_1,,,,,,,,,,,,,white,I
414.0,4.0,4.0,0.0,2.0,2.0,324.4170680000025,4.0,1.0,part_1,,,,,,,,,,,,,orange,square
414.0,4.0,4.0,0.0,4.0,4.0,306.1865949998719,4.0,1.0,part_1,,,,,,,,,,,,,orange,square
60.0,5.0,1.0,1.0,1.0,1.0,404.8864530000173,4.0,1.0,part_1,,,,,,,,,,,,,gray,cross
115.0,6.0,2.0,1.0,3.0,3.0,328.0449379999481,4.0,1.0,part_1,,,,,,,,,,,,,white,I
397.0,8.0,4.0,1.0,4.0,4.0,723.0121670004337,4.0,1.0,part_1,,,,,,,,,,,,,cyan,flipped triangle
0.0,2.0,2.0,0.0,6.0,6.0,573.0425669999022,1.0,0.0,part_2,go,250.0,250.0,1.0,,,,,,,,,blue,diamond
0.0,8.0,4.0,1.0,5.0,0.0,0.0,1.0,0.0,part_2,stop,250.0,250.0,4.0,,,,,,,,,cyan,flipped triangle
0.0,2.0,2.0,0.0,6.0,6.0,286.5470719998484,1.0,0.0,part_2,go,300.0,250.0,1.0,,,,,,,,,blue,diamond
0.0,1.0,1.0,0.0,5.0,5.0,687.4462050000147,1.0,0.0,part_2,go,300.0,250.0,1.0,,,,,,,,,green,circle
0.0,6.0,2.0,1.0,6.0,6.0,521.5353640001013,1.0,0.0,part_2,go,300.0,250.0,1.0,,,,,,,,,white,I
0.0,2.0,2.0,0.0,5.0,5.0,678.4078089999639,1.0,0.0,part_2,go,300.0,250.0,1.0,,,,,,,,,blue,diamond
0.0,8.0,4.0,1.0,6.0,6.0,319.3724789998668,1.0,0.0,part_2,go,300.0,250.0,1.0,,,,,,,,,cyan,flipped triangle
0.0,3.0,3.0,0.0,5.0,5.0,460.6915389999813,1.0,0.0,part_2,go,300.0,250.0,1.0,,,,,,,,,yellow,triangle
0.0,1.0,1.0,0.0,6.0,6.0,428.4762699999191,1.0,0.0,part_2,go,300.0,250.0,1.0,,,,,,,,,green,circle
0.0,3.0,3.0,0.0,5.0,5.0,348.8247989998854,1.0,0.0,part_2,go,300.0,250.0,1.0,,,,,,,,,yellow,triangle
0.0,6.0,2.0,1.0,6.0,6.0,290.8477050000329,1.0,0.0,part_2,go,300.0,250.0,1.0,,,,,,,,,white,I
0.0,8.0,4.0,1.0,6.0,6.0,356.9355300001007,1.0,0.0,part_2,stop,300.0,250.0,3.0,,,,,,,,,cyan,flipped triangle
0.0,4.0,4.0,0.0,5.0,5.0,395.868629999768,1.0,0.0,part_2,go,300.0,200.0,1.0,,,,,,,,,orange,square
0.0,7.0,3.0,1.0,6.0,0.0,0.0,1.0,0.0,part_2,stop,300.0,200.0,4.0,,,,,,,,,magenta,hexagon
0.0,2.0,2.0,0.0,5.0,5.0,625.4449129996829,1.0,0.0,part_2,go,300.0,250.0,1.0,,,,,,,,,blue,diamond
0.0,4.0,4.0,0.0,5.0,5.0,467.710155000077,1.0,0.0,part_2,go,300.0,250.0,1.0,,,,,,,,,orange,square
0.0,8.0,4.0,1.0,5.0,0.0,0.0,1.0,0.0,part_2,stop,300.0,250.0,4.0,,,,,,,,,cyan,flipped triangle
0.0,1.0,1.0,0.0,6.0,6.0,433.1685950000974,1.0,0.0,part_2,go,350.0,250.0,1.0,,,,,,,,,green,circle
0.0,4.0,4.0,0.0,5.0,5.0,527.0653850002418,1.0,0.0,part_2,go,350.0,250.0,1.0,,,,,,,,,orange,square
0.0,3.0,3.0,0.0,5.0,5.0,561.3189040000179,1.0,0.0,part_2,go,350.0,250.0,1.0,,,,,,,,,yellow,triangle
0.0,5.0,1.0,1.0,5.0,0.0,0.0,1.0,0.0,part_2,stop,350.0,250.0,4.0,,,,,,,,,gray,cross
0.0,3.0,3.0,0.0,6.0,6.0,345.3618800003823,1.0,0.0,part_2,go,400.0,250.0,1.0,,,,,,,,,yellow,triangle
0.0,3.0,3.0,0.0,6.0,6.0,293.7309029998687,1.0,0.0,part_2,go,400.0,250.0,1.0,,,,,,,,,yellow,triangle
0.0,7.0,3.0,1.0,5.0,0.0,0.0,1.0,0.0,part_2,stop,400.0,250.0,4.0,,,,,,,,,magenta,hexagon
0.0,2.0,2.0,0.0,6.0,6.0,466.8220499997915,1.0,0.0,part_2,go,450.0,250.0,1.0,,,,,,,,,blue,diamond
0.0,4.0,4.0,0.0,5.0,5.0,847.9457200000979,1.0,0.0,part_2,go,450.0,250.0,1.0,,,,,,,,,orange,square
0.0,4.0,4.0,0.0,6.0,6.0,299.9982480000653,1.0,0.0,part_2,go,450.0,250.0,1.0,,,,,,,,,orange,square
0.0,3.0,3.0,0.0,5.0,5.0,479.1834439997728,1.0,0.0,part_2,go,450.0,250.0,1.0,,,,,,,,,yellow,triangle
0.0,7.0,3.0,1.0,6.0,0.0,0.0,1.0,0.0,part_2,stop,450.0,250.0,4.0,,,,,,,,,magenta,hexagon
0.0,6.0,2.0,1.0,5.0,5.0,334.0858990000015,1.0,0.0,part_2,stop,450.0,300.0,3.0,,,,,,,,,white,I
0.0,3.0,3.0,0.0,5.0,5.0,597.0910190003451,1.0,0.0,part_2,go,400.0,300.0,1.0,,,,,,,,,yellow,triangle
0.0,2.0,2.0,0.0,6.0,6.0,471.4721999998801,1.0,0.0,part_2,go,400.0,300.0,1.0,,,,,,,,,blue,diamond
0.0,1.0,1.0,0.0,5.0,5.0,562.189214999762,1.0,0.0,part_2,go,400.0,300.0,1.0,,,,,,,,,green,circle
0.0,3.0,3.0,0.0,5.0,5.0,685.8970660000523,1.0,0.0,part_2,go,400.0,300.0,1.0,,,,,,,,,yellow,triangle
0.0,3.0,3.0,0.0,6.0,6.0,600.1011809999,1.0,0.0,part_2,go,400.0,300.0,1.0,,,,,,,,,yellow,triangle
0.0,2.0,2.0,0.0,5.0,5.0,972.123080000074,1.0,0.0,part_2,go,400.0,300.0,1.0,,,,,,,,,blue,diamond
0.0,6.0,2.0,1.0,5.0,5.0,1469.9527679999846,2.0,0.0,part_2,go,400.0,300.0,1.0,,,,,,,,,white,I
0.0,2.0,2.0,0.0,5.0,5.0,553.16544399966,2.0,0.0,part_2,go,400.0,300.0,1.0,,,,,,,,,blue,diamond
0.0,5.0,1.0,1.0,5.0,5.0,502.98580200023935,2.0,0.0,part_2,stop,400.0,300.0,3.0,,,,,,,,,gray,cross
0.0,3.0,3.0,0.0,5.0,5.0,581.8023259998881,2.0,0.0,part_2,go,350.0,300.0,1.0,,,,,,,,,yellow,triangle
0.0,2.0,2.0,0.0,5.0,5.0,657.5557239998489,2.0,0.0,part_2,go,350.0,300.0,1.0,,,,,,,,,blue,diamond
0.0,1.0,1.0,0.0,6.0,6.0,709.7310979997928,2.0,0.0,part_2,go,350.0,300.0,1.0,,,,,,,,,green,circle
0.0,4.0,4.0,0.0,5.0,5.0,531.3977260002503,2.0,0.0,part_2,go,350.0,300.0,1.0,,,,,,,,,orange,square
0.0,3.0,3.0,0.0,5.0,5.0,598.700891000135,2.0,0.0,part_2,go,350.0,300.0,1.0,,,,,,,,,yellow,triangle
0.0,1.0,1.0,0.0,5.0,5.0,398.107643000003,2.0,0.0,part_2,go,350.0,300.0,1.0,,,,,,,,,green,circle
0.0,7.0,3.0,1.0,5.0,0.0,0.0,2.0,0.0,part_2,stop,350.0,300.0,4.0,,,,,,,,,magenta,hexagon
0.0,5.0,1.0,1.0,5.0,5.0,512.2201979997953,2.0,0.0,part_2,stop,400.0,300.0,3.0,,,,,,,,,gray,cross
0.0,8.0,4.0,1.0,5.0,5.0,478.9241620001121,2.0,0.0,part_2,stop,350.0,300.0,3.0,,,,,,,,,cyan,flipped triangle
0.0,4.0,4.0,0.0,6.0,6.0,485.9691069996188,2.0,0.0,part_2,go,300.0,300.0,1.0,,,,,,,,,orange,square
0.0,7.0,3.0,1.0,6.0,0.0,0.0,2.0,0.0,part_2,stop,300.0,300.0,4.0,,,,,,,,,magenta,hexagon
0.0,1.0,1.0,0.0,6.0,6.0,541.4772169997377,2.0,0.0,part_2,go,300.0,350.0,1.0,,,,,,,,,green,circle
0.0,2.0,2.0,0.0,5.0,5.0,721.5583860001971,2.0,0.0,part_2,go,300.0,350.0,1.0,,,,,,,,,blue,diamond
0.0,3.0,3.0,0.0,6.0,6.0,707.4438779995944,2.0,0.0,part_2,go,300.0,350.0,1.0,,,,,,,,,yellow,triangle
0.0,8.0,4.0,1.0,5.0,0.0,0.0,2.0,0.0,part_2,stop,300.0,350.0,4.0,,,,,,,,,cyan,flipped triangle
0.0,8.0,4.0,1.0,5.0,0.0,0.0,2.0,0.0,part_2,stop,350.0,350.0,4.0,,,,,,,,,cyan,flipped triangle
0.0,3.0,3.0,0.0,6.0,6.0,756.4358280001215,2.0,0.0,part_2,go,400.0,350.0,1.0,,,,,,,,,yellow,triangle
0.0,8.0,4.0,1.0,5.0,0.0,0.0,2.0,0.0,part_2,stop,400.0,350.0,4.0,,,,,,,,,cyan,flipped triangle
0.0,2.0,2.0,0.0,6.0,6.0,603.5185929999898,2.0,0.0,part_2,go,450.0,350.0,1.0,,,,,,,,,blue,diamond
0.0,1.0,1.0,0.0,6.0,6.0,578.5009559999708,2.0,0.0,part_2,go,450.0,350.0,1.0,,,,,,,,,green,circle
0.0,6.0,2.0,1.0,5.0,5.0,604.8929210001006,2.0,0.0,part_2,stop,450.0,350.0,3.0,,,,,,,,,white,I
0.0,4.0,4.0,0.0,6.0,6.0,622.0539900000404,2.0,0.0,part_2,go,400.0,350.0,1.0,,,,,,,,,orange,square
0.0,1.0,1.0,0.0,5.0,5.0,762.3374350000631,2.0,0.0,part_2,go,400.0,350.0,1.0,,,,,,,,,green,circle
0.0,8.0,4.0,1.0,6.0,0.0,0.0,2.0,0.0,part_2,stop,400.0,350.0,4.0,,,,,,,,,cyan,flipped triangle
0.0,8.0,4.0,1.0,6.0,6.0,626.8663490000108,2.0,0.0,part_2,go,400.0,400.0,1.0,,,,,,,,,cyan,flipped triangle
0.0,7.0,3.0,1.0,5.0,5.0,719.7943810001561,2.0,0.0,part_2,go,400.0,400.0,1.0,,,,,,,,,magenta,hexagon
0.0,5.0,1.0,1.0,6.0,0.0,0.0,2.0,0.0,part_2,stop,400.0,400.0,4.0,,,,,,,,,gray,cross
0.0,8.0,4.0,1.0,5.0,5.0,554.6759720000409,2.0,0.0,part_2,stop,400.0,450.0,3.0,,,,,,,,,cyan,flipped triangle
0.0,1.0,1.0,0.0,6.0,6.0,803.7784240000292,2.0,0.0,part_2,go,350.0,450.0,1.0,,,,,,,,,green,circle
0.0,1.0,1.0,0.0,5.0,5.0,786.1570919999394,2.0,0.0,part_2,go,350.0,450.0,1.0,,,,,,,,,green,circle
0.0,6.0,2.0,1.0,5.0,0.0,0.0,2.0,0.0,part_2,stop,350.0,450.0,4.0,,,,,,,,,white,I
0.0,2.0,2.0,0.0,5.0,5.0,670.6015309996474,2.0,0.0,part_2,go,400.0,450.0,1.0,,,,,,,,,blue,diamond
0.0,6.0,2.0,1.0,6.0,6.0,489.1313380003339,2.0,0.0,part_2,stop,400.0,450.0,3.0,,,,,,,,,white,I
0.0,4.0,4.0,0.0,6.0,6.0,477.3932549996971,3.0,0.0,part_2,go,400.0,400.0,1.0,,,,,,,,,orange,square
0.0,8.0,4.0,1.0,6.0,6.0,286.0904919998575,3.0,0.0,part_2,go,400.0,400.0,1.0,,,,,,,,,cyan,flipped triangle
0.0,5.0,1.0,1.0,6.0,6.0,318.7430099997073,3.0,0.0,part_2,go,400.0,400.0,1.0,,,,,,,,,gray,cross
0.0,2.0,2.0,0.0,6.0,6.0,493.4577849999186,3.0,0.0,part_2,go,400.0,400.0,1.0,,,,,,,,,blue,diamond
0.0,7.0,3.0,1.0,5.0,5.0,488.7935830001879,3.0,0.0,part_2,stop,400.0,400.0,3.0,,,,,,,,,magenta,hexagon
0.0,8.0,4.0,1.0,5.0,5.0,309.1504459998759,3.0,0.0,part_2,go,350.0,400.0,1.0,,,,,,,,,cyan,flipped triangle
0.0,8.0,4.0,1.0,6.0,6.0,386.2956369998755,3.0,0.0,part_2,go,350.0,400.0,1.0,,,,,,,,,cyan,flipped triangle
0.0,7.0,3.0,1.0,5.0,5.0,709.1774959999384,3.0,0.0,part_2,stop,350.0,400.0,3.0,,,,,,,,,magenta,hexagon
0.0,4.0,4.0,0.0,6.0,6.0,372.910782999952,3.0,0.0,part_2,go,300.0,400.0,1.0,,,,,,,,,orange,square
0.0,5.0,1.0,1.0,5.0,0.0,0.0,3.0,0.0,part_2,stop,300.0,400.0,4.0,,,,,,,,,gray,cross
0.0,2.0,2.0,0.0,5.0,5.0,605.0654600003327,3.0,0.0,part_2,go,350.0,400.0,1.0,,,,,,,,,blue,diamond
0.0,5.0,1.0,1.0,6.0,6.0,464.674672000001,3.0,0.0,part_2,go,350.0,400.0,1.0,,,,,,,,,gray,cross
0.0,2.0,2.0,0.0,5.0,5.0,562.6784460000636,3.0,0.0,part_2,go,350.0,400.0,1.0,,,,,,,,,blue,diamond
0.0,7.0,3.0,1.0,5.0,0.0,0.0,3.0,0.0,part_2,stop,350.0,400.0,4.0,,,,,,,,,magenta,hexagon
0.0,3.0,3.0,0.0,5.0,5.0,537.6735649997499,3.0,0.0,part_2,go,400.0,400.0,1.0,,,,,,,,,yellow,triangle
0.0,6.0,2.0,1.0,5.0,5.0,523.3336700002837,3.0,0.0,part_2,stop,400.0,400.0,3.0,,,,,,,,,white,I
0.0,7.0,3.0,1.0,6.0,6.0,308.2277630001044,3.0,0.0,part_2,stop,350.0,400.0,3.0,,,,,,,,,magenta,hexagon
0.0,8.0,4.0,1.0,6.0,6.0,468.613914999878,3.0,0.0,part_2,go,350.0,350.0,1.0,,,,,,,,,cyan,flipped triangle
0.0,6.0,2.0,1.0,5.0,0.0,0.0,3.0,0.0,part_2,stop,350.0,350.0,4.0,,,,,,,,,white,I
0.0,5.0,1.0,1.0,6.0,0.0,0.0,3.0,0.0,part_2,stop,400.0,350.0,4.0,,,,,,,,,gray,cross
0.0,2.0,2.0,0.0,5.0,5.0,678.3266050001657,3.0,0.0,part_2,go,400.0,400.0,1.0,,,,,,,,,blue,diamond
0.0,8.0,4.0,1.0,6.0,6.0,357.0068220001303,3.0,0.0,part_2,stop,400.0,400.0,3.0,,,,,,,,,cyan,flipped triangle
0.0,8.0,4.0,1.0,6.0,0.0,0.0,3.0,0.0,part_2,stop,400.0,350.0,4.0,,,,,,,,,cyan,flipped triangle
0.0,3.0,3.0,0.0,5.0,5.0,442.9494370001521,3.0,0.0,part_2,go,400.0,400.0,1.0,,,,,,,,,yellow,triangle
0.0,2.0,2.0,0.0,6.0,6.0,662.8017420002834,3.0,0.0,part_2,go,400.0,400.0,1.0,,,,,,,,,blue,diamond
0.0,4.0,4.0,0.0,5.0,5.0,480.0414829996953,3.0,0.0,part_2,go,400.0,400.0,1.0,,,,,,,,,orange,square
0.0,8.0,4.0,1.0,5.0,5.0,482.083650000277,3.0,0.0,part_2,stop,400.0,400.0,3.0,,,,,,,,,cyan,flipped triangle
0.0,4.0,4.0,0.0,6.0,6.0,513.9524630003507,3.0,0.0,part_2,go,350.0,400.0,1.0,,,,,,,,,orange,square
0.0,1.0,1.0,0.0,5.0,5.0,649.9049990002277,3.0,0.0,part_2,go,350.0,400.0,1.0,,,,,,,,,green,circle
0.0,1.0,1.0,0.0,6.0,6.0,285.2397560000099,3.0,0.0,part_2,go,350.0,400.0,1.0,,,,,,,,,green,circle
0.0,1.0,1.0,0.0,6.0,6.0,552.7753479996136,3.0,0.0,part_2,go,350.0,400.0,1.0,,,,,,,,,green,circle
0.0,8.0,4.0,1.0,6.0,6.0,541.7963700001565,3.0,0.0,part_2,stop,350.0,400.0,3.0,,,,,,,,,cyan,flipped triangle
0.0,1.0,1.0,0.0,6.0,6.0,580.5685010000161,3.0,0.0,part_2,go,350.0,350.0,1.0,,,,,,,,,green,circle
0.0,3.0,3.0,0.0,5.0,5.0,788.2274210001015,3.0,0.0,part_2,go,350.0,350.0,1.0,,,,,,,,,yellow,triangle
0.0,6.0,2.0,1.0,6.0,0.0,0.0,3.0,0.0,part_2,stop,350.0,350.0,4.0,,,,,,,,,white,I
0.0,6.0,2.0,1.0,5.0,0.0,0.0,3.0,0.0,part_2,stop,350.0,400.0,4.0,,,,,,,,,white,I
0.0,4.0,4.0,0.0,6.0,6.0,615.1297770002202,4.0,0.0,part_2,go,400.0,400.0,1.0,,,,,,,,,orange,square
0.0,1.0,1.0,0.0,6.0,6.0,493.2468769998195,4.0,0.0,part_2,go,400.0,400.0,1.0,,,,,,,,,green,circle
0.0,3.0,3.0,0.0,5.0,5.0,439.3335400000069,4.0,0.0,part_2,go,400.0,400.0,1.0,,,,,,,,,yellow,triangle
0.0,1.0,1.0,0.0,5.0,5.0,343.2817759999125,4.0,0.0,part_2,go,400.0,400.0,1.0,,,,,,,,,green,circle
0.0,4.0,4.0,0.0,6.0,6.0,400.75215700017,4.0,0.0,part_2,go,400.0,400.0,1.0,,,,,,,,,orange,square
0.0,7.0,3.0,1.0,6.0,6.0,347.1653240003434,4.0,0.0,part_2,stop,400.0,400.0,3.0,,,,,,,,,magenta,hexagon
0.0,8.0,4.0,1.0,5.0,5.0,348.4724959998857,4.0,0.0,part_2,stop,400.0,350.0,3.0,,,,,,,,,cyan,flipped triangle
0.0,1.0,1.0,0.0,5.0,5.0,498.5959259997798,4.0,0.0,part_2,go,350.0,350.0,1.0,,,,,,,,,green,circle
0.0,4.0,4.0,0.0,6.0,6.0,455.1756590003606,4.0,0.0,part_2,go,350.0,350.0,1.0,,,,,,,,,orange,square
0.0,3.0,3.0,0.0,6.0,6.0,319.484814000134,4.0,0.0,part_2,go,350.0,350.0,1.0,,,,,,,,,yellow,triangle
0.0,5.0,1.0,1.0,5.0,0.0,0.0,4.0,0.0,part_2,stop,350.0,350.0,4.0,,,,,,,,,gray,cross
0.0,5.0,1.0,1.0,5.0,0.0,0.0,4.0,0.0,part_2,stop,400.0,350.0,4.0,,,,,,,,,gray,cross
0.0,8.0,4.0,1.0,5.0,5.0,571.6810270000678,4.0,0.0,part_2,go,450.0,350.0,1.0,,,,,,,,,cyan,flipped triangle
0.0,5.0,1.0,1.0,6.0,0.0,0.0,4.0,0.0,part_2,stop,450.0,350.0,4.0,,,,,,,,,gray,cross
0.0,2.0,2.0,0.0,6.0,6.0,505.47604299981685,4.0,0.0,part_2,go,450.0,400.0,1.0,,,,,,,,,blue,diamond
0.0,4.0,4.0,0.0,5.0,5.0,652.0722499999465,4.0,0.0,part_2,go,450.0,400.0,1.0,,,,,,,,,orange,square
0.0,1.0,1.0,0.0,6.0,6.0,495.7639639997069,4.0,0.0,part_2,go,450.0,400.0,1.0,,,,,,,,,green,circle
0.0,1.0,1.0,0.0,5.0,5.0,360.8776680002847,4.0,0.0,part_2,go,450.0,400.0,1.0,,,,,,,,,green,circle
0.0,7.0,3.0,1.0,6.0,6.0,437.3415989998648,4.0,0.0,part_2,stop,450.0,400.0,3.0,,,,,,,,,magenta,hexagon
0.0,7.0,3.0,1.0,5.0,5.0,557.4782759999835,4.0,0.0,part_2,stop,450.0,350.0,3.0,,,,,,,,,magenta,hexagon
0.0,6.0,2.0,1.0,6.0,6.0,436.9394380000813,4.0,0.0,part_2,stop,400.0,350.0,3.0,,,,,,,,,white,I
0.0,3.0,3.0,0.0,5.0,5.0,624.9433060002048,4.0,0.0,part_2,go,400.0,300.0,1.0,,,,,,,,,yellow,triangle
0.0,5.0,1.0,1.0,5.0,0.0,0.0,4.0,0.0,part_2,stop,400.0,300.0,4.0,,,,,,,,,gray,cross
0.0,4.0,4.0,0.0,5.0,5.0,548.0415290003293,4.0,0.0,part_2,go,450.0,300.0,1.0,,,,,,,,,orange,square
0.0,7.0,3.0,1.0,5.0,0.0,0.0,4.0,0.0,part_2,stop,450.0,300.0,4.0,,,,,,,,,magenta,hexagon
0.0,3.0,3.0,0.0,6.0,6.0,526.2218109996866,4.0,0.0,part_2,go,500.0,300.0,1.0,,,,,,,,,yellow,triangle
0.0,7.0,3.0,1.0,5.0,0.0,0.0,4.0,0.0,part_2,stop,500.0,300.0,4.0,,,,,,,,,magenta,hexagon
0.0,1.0,1.0,0.0,5.0,5.0,549.556776999907,4.0,0.0,part_2,go,550.0,300.0,1.0,,,,,,,,,green,circle
0.0,5.0,1.0,1.0,6.0,0.0,0.0,4.0,0.0,part_2,stop,550.0,300.0,4.0,,,,,,,,,gray,cross
0.0,5.0,1.0,1.0,5.0,5.0,479.0712120002354,4.0,0.0,part_2,stop,550.0,350.0,3.0,,,,,,,,,gray,cross
0.0,2.0,2.0,0.0,6.0,6.0,637.8203819999726,4.0,0.0,part_2,go,500.0,350.0,1.0,,,,,,,,,blue,diamond
0.0,3.0,3.0,0.0,6.0,6.0,680.1737910000156,4.0,0.0,part_2,go,500.0,350.0,1.0,,,,,,,,,yellow,triangle
0.0,4.0,4.0,0.0,6.0,6.0,505.6225399998766,4.0,0.0,part_2,go,500.0,350.0,1.0,,,,,,,,,orange,square
0.0,5.0,1.0,1.0,5.0,5.0,806.1675049998485,4.0,0.0,part_2,go,500.0,350.0,1.0,,,,,,,,,gray,cross
0.0,3.0,3.0,0.0,5.0,5.0,357.204726999953,4.0,0.0,part_2,go,500.0,350.0,1.0,,,,,,,,,yellow,triangle
0.0,4.0,4.0,0.0,6.0,6.0,416.5371349999986,4.0,0.0,part_2,go,500.0,350.0,1.0,,,,,,,,,orange,square
0.0,8.0,4.0,1.0,6.0,0.0,0.0,5.0,0.0,part_2,stop,500.0,350.0,4.0,,,,,,,,,cyan,flipped triangle
0.0,5.0,1.0,1.0,6.0,6.0,484.1828110002097,5.0,0.0,part_2,stop,500.0,400.0,3.0,,,,,,,,,gray,cross
0.0,6.0,2.0,1.0,6.0,6.0,466.725525000129,5.0,0.0,part_2,stop,500.0,350.0,3.0,,,,,,,,,white,I
0.0,3.0,3.0,0.0,5.0,5.0,395.4508330002682,5.0,0.0,part_2,go,500.0,300.0,1.0,,,,,,,,,yellow,triangle
0.0,1.0,1.0,0.0,6.0,6.0,390.4124589998901,5.0,0.0,part_2,go,500.0,300.0,1.0,,,,,,,,,green,circle
0.0,1.0,1.0,0.0,5.0,5.0,477.0836679999775,5.0,0.0,part_2,go,500.0,300.0,1.0,,,,,,,,,green,circle
0.0,6.0,2.0,1.0,5.0,5.0,542.4741689998882,5.0,0.0,part_2,stop,500.0,300.0,3.0,,,,,,,,,white,I
0.0,2.0,2.0,0.0,6.0,6.0,475.4263380000338,5.0,0.0,part_2,go,450.0,300.0,1.0,,,,,,,,,blue,diamond
0.0,5.0,1.0,1.0,5.0,0.0,0.0,5.0,0.0,part_2,stop,450.0,300.0,4.0,,,,,,,,,gray,cross
0.0,7.0,3.0,1.0,6.0,6.0,381.3496889997623,5.0,0.0,part_2,stop,500.0,300.0,3.0,,,,,,,,,magenta,hexagon
0.0,5.0,1.0,1.0,5.0,0.0,0.0,5.0,0.0,part_2,stop,500.0,250.0,4.0,,,,,,,,,gray,cross
0.0,1.0,1.0,0.0,6.0,6.0,739.3592949997583,5.0,0.0,part_2,go,550.0,250.0,1.0,,,,,,,,,green,circle
0.0,8.0,4.0,1.0,5.0,0.0,0.0,5.0,0.0,part_2,stop,550.0,250.0,4.0,,,,,,,,,cyan,flipped triangle
0.0,1.0,1.0,0.0,5.0,5.0,713.3691840003848,5.0,0.0,part_2,go,600.0,250.0,1.0,,,,,,,,,green,circle
0.0,7.0,3.0,1.0,6.0,6.0,582.8303409998625,5.0,0.0,part_2,go,600.0,250.0,1.0,,,,,,,,,magenta,hexagon
0.0,8.0,4.0,1.0,6.0,0.0,0.0,5.0,0.0,part_2,stop,600.0,250.0,4.0,,,,,,,,,cyan,flipped triangle
0.0,6.0,2.0,1.0,6.0,0.0,0.0,5.0,0.0,part_2,stop,600.0,300.0,4.0,,,,,,,,,white,I
0.0,7.0,3.0,1.0,6.0,0.0,0.0,5.0,0.0,part_2,stop,600.0,350.0,4.0,,,,,,,,,magenta,hexagon
0.0,4.0,4.0,0.0,6.0,6.0,336.1867459998393,5.0,0.0,part_2,go,600.0,400.0,1.0,,,,,,,,,orange,square
0.0,4.0,4.0,0.0,5.0,5.0,563.6494660002427,5.0,0.0,part_2,go,600.0,400.0,1.0,,,,,,,,,orange,square
0.0,5.0,1.0,1.0,6.0,6.0,295.1926529999582,5.0,0.0,part_2,stop,600.0,400.0,3.0,,,,,,,,,gray,cross
0.0,5.0,1.0,1.0,6.0,6.0,596.3856620001025,5.0,0.0,part_2,go,600.0,350.0,1.0,,,,,,,,,gray,cross
0.0,8.0,4.0,1.0,6.0,0.0,0.0,5.0,0.0,part_2,stop,600.0,350.0,4.0,,,,,,,,,cyan,flipped triangle
0.0,2.0,2.0,0.0,6.0,6.0,586.6070840002067,5.0,0.0,part_2,go,600.0,400.0,1.0,,,,,,,,,blue,diamond
0.0,7.0,3.0,1.0,5.0,5.0,552.8413450001608,5.0,0.0,part_2,stop,600.0,400.0,3.0,,,,,,,,,magenta,hexagon
0.0,4.0,4.0,0.0,5.0,5.0,517.7928959992641,5.0,0.0,part_2,go,550.0,400.0,1.0,,,,,,,,,orange,square
0.0,6.0,2.0,1.0,5.0,5.0,530.389457999263,5.0,0.0,part_2,stop,550.0,400.0,3.0,,,,,,,,,white,I
0.0,8.0,4.0,1.0,5.0,5.0,621.960090000357,5.0,0.0,part_2,stop,500.0,400.0,3.0,,,,,,,,,cyan,flipped triangle
0.0,2.0,2.0,0.0,5.0,5.0,821.1293229996954,5.0,0.0,part_2,go,450.0,400.0,1.0,,,,,,,,,blue,diamond
0.0,6.0,2.0,1.0,5.0,0.0,0.0,5.0,0.0,part_2,stop,450.0,400.0,4.0,,,,,,,,,white,I
0.0,6.0,2.0,1.0,6.0,0.0,0.0,5.0,0.0,part_2,stop,500.0,400.0,4.0,,,,,,,,,white,I
0.0,7.0,3.0,1.0,6.0,6.0,483.0865519998042,5.0,0.0,part_2,go,500.0,450.0,1.0,,,,,,,,,magenta,hexagon
0.0,4.0,4.0,0.0,6.0,6.0,641.0316749997946,5.0,0.0,part_2,go,500.0,450.0,1.0,,,,,,,,,orange,square
0.0,3.0,3.0,0.0,6.0,6.0,353.2733539996116,5.0,0.0,part_2,go,500.0,450.0,1.0,,,,,,,,,yellow,triangle
0.0,4.0,4.0,0.0,5.0,5.0,749.6285229999557,5.0,0.0,part_2,go,500.0,450.0,1.0,,,,,,,,,orange,square
0.0,3.0,3.0,0.0,6.0,6.0,321.5327899997646,5.0,0.0,part_2,go,500.0,450.0,1.0,,,,,,,,,yellow,triangle
0.0,7.0,3.0,1.0,6.0,6.0,571.692444999826,6.0,0.0,part_2,stop,500.0,450.0,3.0,,,,,,,,,magenta,hexagon
0.0,5.0,1.0,1.0,5.0,5.0,550.070613000571,6.0,0.0,part_2,go,500.0,400.0,1.0,,,,,,,,,gray,cross
0.0,3.0,3.0,0.0,6.0,6.0,295.4187479999746,6.0,0.0,part_2,go,500.0,400.0,1.0,,,,,,,,,yellow,triangle
0.0,1.0,1.0,0.0,5.0,5.0,464.6274349997839,6.0,0.0,part_2,go,500.0,400.0,1.0,,,,,,,,,green,circle
0.0,7.0,3.0,1.0,6.0,6.0,389.6661119997588,6.0,0.0,part_2,stop,500.0,400.0,3.0,,,,,,,,,magenta,hexagon
0.0,3.0,3.0,0.0,6.0,6.0,572.0593650003138,6.0,0.0,part_2,go,500.0,350.0,1.0,,,,,,,,,yellow,triangle
0.0,6.0,2.0,1.0,6.0,6.0,662.6370820004013,6.0,0.0,part_2,go,500.0,350.0,1.0,,,,,,,,,white,I
0.0,1.0,1.0,0.0,6.0,6.0,639.6026269994763,6.0,0.0,part_2,go,500.0,350.0,1.0,,,,,,,,,green,circle
0.0,1.0,1.0,0.0,5.0,5.0,393.3469769999647,6.0,0.0,part_2,go,500.0,350.0,1.0,,,,,,,,,green,circle
0.0,6.0,2.0,1.0,6.0,0.0,0.0,6.0,0.0,part_2,stop,500.0,350.0,4.0,,,,,,,,,white,I
0.0,5.0,1.0,1.0,6.0,6.0,524.3422929997905,6.0,0.0,part_2,stop,500.0,400.0,3.0,,,,,,,,,gray,cross
0.0,2.0,2.0,0.0,6.0,6.0,602.1846249996088,6.0,0.0,part_2,go,500.0,350.0,1.0,,,,,,,,,blue,diamond
0.0,5.0,1.0,1.0,6.0,6.0,514.9294560005728,6.0,0.0,part_2,go,500.0,350.0,1.0,,,,,,,,,gray,cross
0.0,4.0,4.0,0.0,6.0,6.0,353.7938210001812,6.0,0.0,part_2,go,500.0,350.0,1.0,,,,,,,,,orange,square
0.0,5.0,1.0,1.0,5.0,5.0,576.2059960006809,6.0,0.0,part_2,stop,500.0,350.0,3.0,,,,,,,,,gray,cross
0.0,3.0,3.0,0.0,6.0,6.0,331.5834209997774,6.0,0.0,part_2,go,450.0,350.0,1.0,,,,,,,,,yellow,triangle
0.0,8.0,4.0,1.0,6.0,6.0,438.5179809996771,6.0,0.0,part_2,stop,450.0,350.0,3.0,,,,,,,,,cyan,flipped triangle
0.0,2.0,2.0,0.0,5.0,5.0,562.9612789998646,6.0,0.0,part_2,go,450.0,300.0,1.0,,,,,,,,,blue,diamond
0.0,1.0,1.0,0.0,5.0,5.0,420.068977999108,6.0,0.0,part_2,go,450.0,300.0,1.0,,,,,,,,,green,circle
0.0,3.0,3.0,0.0,6.0,6.0,465.1753650005048,6.0,0.0,part_2,go,450.0,300.0,1.0,,,,,,,,,yellow,triangle
0.0,3.0,3.0,0.0,6.0,6.0,297.9532970002765,6.0,0.0,part_2,go,450.0,300.0,1.0,,,,,,,,,yellow,triangle
0.0,7.0,3.0,1.0,6.0,0.0,0.0,6.0,0.0,part_2,stop,450.0,300.0,4.0,,,,,,,,,magenta,hexagon
0.0,4.0,4.0,0.0,6.0,6.0,507.23608400039666,6.0,0.0,part_2,go,450.0,350.0,1.0,,,,,,,,,orange,square
0.0,1.0,1.0,0.0,6.0,6.0,505.61924900011945,6.0,0.0,part_2,go,450.0,350.0,1.0,,,,,,,,,green,circle
0.0,8.0,4.0,1.0,5.0,5.0,671.8745520001903,6.0,0.0,part_2,go,450.0,350.0,1.0,,,,,,,,,cyan,flipped triangle
0.0,6.0,2.0,1.0,5.0,5.0,651.9824580000204,6.0,0.0,part_2,go,450.0,350.0,1.0,,,,,,,,,white,I
0.0,6.0,2.0,1.0,5.0,5.0,539.1737189993364,6.0,0.0,part_2,stop,450.0,350.0,3.0,,,,,,,,,white,I
0.0,2.0,2.0,0.0,5.0,5.0,528.4447120002369,6.0,0.0,part_2,go,400.0,350.0,1.0,,,,,,,,,blue,diamond
0.0,7.0,3.0,1.0,6.0,6.0,533.9566490001744,6.0,0.0,part_2,go,400.0,350.0,1.0,,,,,,,,,magenta,hexagon
0.0,1.0,1.0,0.0,6.0,6.0,552.3163289999502,6.0,0.0,part_2,go,400.0,350.0,1.0,,,,,,,,,green,circle
0.0,5.0,1.0,1.0,5.0,0.0,0.0,6.0,0.0,part_2,stop,400.0,350.0,4.0,,,,,,,,,gray,cross
0.0,3.0,3.0,0.0,6.0,6.0,326.9290409998575,6.0,0.0,part_2,go,450.0,350.0,1.0,,,,,,,,,yellow,triangle
0.0,4.0,4.0,0.0,5.0,5.0,528.8234429999648,6.0,0.0,part_2,go,450.0,350.0,1.0,,,,,,,,,orange,square
0.0,7.0,3.0,1.0,5.0,0.0,0.0,6.0,0.0,part_2,stop,450.0,350.0,4.0,,,,,,,,,magenta,hexagon
0.0,5.0,1.0,1.0,6.0,0.0,0.0,6.0,0.0,part_2,stop,500.0,350.0,4.0,,,,,,,,,gray,cross
0.0,2.0,2.0,0.0,6.0,6.0,612.7809660001731,6.0,0.0,part_2,go,500.0,400.0,1.0,,,,,,,,,blue,diamond
0.0,2.0,2.0,0.0,6.0,6.0,600.7192409997515,7.0,0.0,part_2,go,500.0,400.0,1.0,,,,,,,,,blue,diamond
0.0,5.0,1.0,1.0,6.0,0.0,0.0,7.0,0.0,part_2,stop,500.0,400.0,4.0,,,,,,,,,gray,cross
0.0,5.0,1.0,1.0,5.0,5.0,452.5452409998252,7.0,0.0,part_2,stop,500.0,450.0,3.0,,,,,,,,,gray,cross
0.0,6.0,2.0,1.0,6.0,0.0,0.0,7.0,0.0,part_2,stop,450.0,450.0,4.0,,,,,,,,,white,I
0.0,2.0,2.0,0.0,6.0,6.0,739.732512000046,7.0,0.0,part_2,go,450.0,500.0,1.0,,,,,,,,,blue,diamond
0.0,4.0,4.0,0.0,5.0,5.0,798.5711259998425,7.0,0.0,part_2,go,450.0,500.0,1.0,,,,,,,,,orange,square
0.0,6.0,2.0,1.0,5.0,0.0,0.0,7.0,0.0,part_2,stop,450.0,500.0,4.0,,,,,,,,,white,I
0.0,2.0,2.0,0.0,5.0,5.0,719.7588200006066,7.0,0.0,part_2,go,500.0,500.0,1.0,,,,,,,,,blue,diamond
0.0,5.0,1.0,1.0,5.0,0.0,0.0,7.0,0.0,part_2,stop,500.0,500.0,4.0,,,,,,,,,gray,cross
0.0,7.0,3.0,1.0,6.0,6.0,549.1167600002882,7.0,0.0,part_2,stop,550.0,500.0,3.0,,,,,,,,,magenta,hexagon
0.0,3.0,3.0,0.0,6.0,6.0,486.3272510001479,7.0,0.0,part_2,go,550.0,450.0,1.0,,,,,,,,,yellow,triangle
0.0,6.0,2.0,1.0,6.0,0.0,0.0,7.0,0.0,part_2,stop,550.0,450.0,4.0,,,,,,,,,white,I
0.0,6.0,2.0,1.0,5.0,5.0,644.0193250000448,7.0,0.0,part_2,go,550.0,500.0,1.0,,,,,,,,,white,I
0.0,2.0,2.0,0.0,6.0,6.0,783.4156219996657,7.0,0.0,part_2,go,550.0,500.0,1.0,,,,,,,,,blue,diamond
0.0,4.0,4.0,0.0,5.0,5.0,813.8786660001642,7.0,0.0,part_2,go,550.0,500.0,1.0,,,,,,,,,orange,square
0.0,4.0,4.0,0.0,5.0,5.0,410.1766149997274,7.0,0.0,part_2,go,550.0,500.0,1.0,,,,,,,,,orange,square
0.0,7.0,3.0,1.0,6.0,6.0,810.0195650004025,7.0,0.0,part_2,go,550.0,500.0,1.0,,,,,,,,,magenta,hexagon
0.0,7.0,3.0,1.0,5.0,5.0,496.3296610003453,7.0,0.0,part_2,go,550.0,500.0,1.0,,,,,,,,,magenta,hexagon
0.0,5.0,1.0,1.0,6.0,6.0,371.9137770003726,7.0,0.0,part_2,go,550.0,500.0,1.0,,,,,,,,,gray,cross
0.0,8.0,4.0,1.0,6.0,6.0,339.41823300028767,7.0,0.0,part_2,go,550.0,500.0,1.0,,,,,,,,,cyan,flipped triangle
0.0,5.0,1.0,1.0,6.0,6.0,626.7735179999363,7.0,0.0,part_2,stop,550.0,500.0,3.0,,,,,,,,,gray,cross
0.0,7.0,3.0,1.0,5.0,5.0,580.0400460002493,7.0,0.0,part_2,go,550.0,450.0,1.0,,,,,,,,,magenta,hexagon
0.0,3.0,3.0,0.0,5.0,5.0,634.7595070001262,7.0,0.0,part_2,go,550.0,450.0,1.0,,,,,,,,,yellow,triangle
0.0,6.0,2.0,1.0,5.0,5.0,622.1822210000028,7.0,0.0,part_2,stop,550.0,450.0,3.0,,,,,,,,,white,I
0.0,4.0,4.0,0.0,6.0,6.0,707.5143339998249,7.0,0.0,part_2,go,500.0,450.0,1.0,,,,,,,,,orange,square
0.0,8.0,4.0,1.0,5.0,0.0,0.0,7.0,0.0,part_2,stop,500.0,450.0,4.0,,,,,,,,,cyan,flipped triangle
0.0,5.0,1.0,1.0,6.0,6.0,629.7690900000816,7.0,0.0,part_2,go,550.0,450.0,1.0,,,,,,,,,gray,cross
0.0,7.0,3.0,1.0,5.0,5.0,951.9367980001334,7.0,0.0,part_2,go,550.0,450.0,1.0,,,,,,,,,magenta,hexagon
0.0,5.0,1.0,1.0,6.0,6.0,591.0620900003778,7.0,0.0,part_2,stop,550.0,450.0,3.0,,,,,,,,,gray,cross
0.0,6.0,2.0,1.0,6.0,0.0,0.0,7.0,0.0,part_2,stop,550.0,400.0,4.0,,,,,,,,,white,I
0.0,4.0,4.0,0.0,6.0,6.0,554.2671560006056,7.0,0.0,part_2,go,550.0,450.0,1.0,,,,,,,,,orange,square
0.0,4.0,4.0,0.0,5.0,5.0,819.0209000003961,7.0,0.0,part_2,go,550.0,450.0,1.0,,,,,,,,,orange,square
0.0,6.0,2.0,1.0,6.0,0.0,0.0,7.0,0.0,part_2,stop,550.0,450.0,4.0,,,,,,,,,white,I
0.0,6.0,2.0,1.0,6.0,0.0,0.0,7.0,0.0,part_2,stop,550.0,500.0,4.0,,,,,,,,,white,I
0.0,7.0,3.0,1.0,5.0,5.0,703.1754829995407,7.0,0.0,part_2,stop,550.0,550.0,3.0,,,,,,,,,magenta,hexagon
0.0,1.0,1.0,0.0,5.0,5.0,487.5298189999739,7.0,0.0,part_2,go,500.0,550.0,1.0,,,,,,,,,green,circle
0.0,5.0,1.0,1.0,6.0,6.0,545.3640389996508,8.0,0.0,part_2,stop,500.0,550.0,3.0,,,,,,,,,gray,cross
0.0,8.0,4.0,1.0,5.0,5.0,550.9052470006282,8.0,0.0,part_2,stop,500.0,500.0,3.0,,,,,,,,,cyan,flipped triangle
0.0,8.0,4.0,1.0,6.0,6.0,536.4092359995993,8.0,0.0,part_2,stop,450.0,500.0,3.0,,,,,,,,,cyan,flipped triangle
0.0,2.0,2.0,0.0,5.0,5.0,505.91048000023875,8.0,0.0,part_2,go,450.0,450.0,1.0,,,,,,,,,blue,diamond
0.0,6.0,2.0,1.0,5.0,5.0,527.5850079997326,8.0,0.0,part_2,stop,450.0,450.0,3.0,,,,,,,,,white,I
0.0,1.0,1.0,0.0,5.0,5.0,541.0223970002335,8.0,0.0,part_2,go,400.0,450.0,1.0,,,,,,,,,green,circle
0.0,6.0,2.0,1.0,6.0,6.0,610.3049950006607,8.0,0.0,part_2,go,400.0,450.0,1.0,,,,,,,,,white,I
0.0,7.0,3.0,1.0,6.0,0.0,0.0,8.0,0.0,part_2,stop,400.0,450.0,4.0,,,,,,,,,magenta,hexagon
0.0,8.0,4.0,1.0,6.0,6.0,760.1374059995578,8.0,0.0,part_2,stop,400.0,500.0,3.0,,,,,,,,,cyan,flipped triangle
0.0,6.0,2.0,1.0,5.0,5.0,563.6766919997171,8.0,0.0,part_2,go,400.0,450.0,1.0,,,,,,,,,white,I
0.0,4.0,4.0,0.0,6.0,6.0,862.8152689998387,8.0,0.0,part_2,go,400.0,450.0,1.0,,,,,,,,,orange,square
0.0,3.0,3.0,0.0,6.0,6.0,552.144049999697,8.0,0.0,part_2,go,400.0,450.0,1.0,,,,,,,,,yellow,triangle
0.0,5.0,1.0,1.0,5.0,5.0,442.0996379994903,8.0,0.0,part_2,go,400.0,450.0,1.0,,,,,,,,,gray,cross
0.0,8.0,4.0,1.0,5.0,0.0,0.0,8.0,0.0,part_2,stop,400.0,450.0,4.0,,,,,,,,,cyan,flipped triangle
0.0,3.0,3.0,0.0,5.0,5.0,597.9787599999327,8.0,0.0,part_2,go,450.0,450.0,1.0,,,,,,,,,yellow,triangle
0.0,2.0,2.0,0.0,5.0,5.0,843.0305649999355,8.0,0.0,part_2,go,450.0,450.0,1.0,,,,,,,,,blue,diamond
0.0,5.0,1.0,1.0,5.0,0.0,0.0,8.0,0.0,part_2,stop,450.0,450.0,4.0,,,,,,,,,gray,cross
0.0,7.0,3.0,1.0,5.0,0.0,0.0,8.0,0.0,part_2,stop,500.0,450.0,4.0,,,,,,,,,magenta,hexagon
0.0,2.0,2.0,0.0,6.0,6.0,698.6910899995564,8.0,0.0,part_2,go,550.0,450.0,1.0,,,,,,,,,blue,diamond
0.0,1.0,1.0,0.0,6.0,6.0,667.8356029997303,8.0,0.0,part_2,go,550.0,450.0,1.0,,,,,,,,,green,circle
0.0,7.0,3.0,1.0,6.0,0.0,0.0,8.0,0.0,part_2,stop,550.0,450.0,4.0,,,,,,,,,magenta,hexagon
0.0,1.0,1.0,0.0,6.0,6.0,667.4717710002369,8.0,0.0,part_2,go,550.0,500.0,1.0,,,,,,,,,green,circle
0.0,6.0,2.0,1.0,6.0,0.0,0.0,8.0,0.0,part_2,stop,550.0,500.0,4.0,,,,,,,,,white,I
0.0,1.0,1.0,0.0,5.0,5.0,595.2618300007089,8.0,0.0,part_2,go,550.0,550.0,1.0,,,,,,,,,green,circle
0.0,7.0,3.0,1.0,5.0,5.0,872.514878000402,8.0,0.0,part_2,go,550.0,550.0,1.0,,,,,,,,,magenta,hexagon
0.0,8.0,4.0,1.0,5.0,0.0,0.0,8.0,0.0,part_2,stop,550.0,550.0,4.0,,,,,,,,,cyan,flipped triangle
0.0,4.0,4.0,0.0,5.0,5.0,582.1142200002214,8.0,0.0,part_2,go,600.0,550.0,1.0,,,,,,,,,orange,square
0.0,3.0,3.0,0.0,5.0,5.0,599.2887729998984,8.0,0.0,part_2,go,600.0,550.0,1.0,,,,,,,,,yellow,triangle
0.0,4.0,4.0,0.0,5.0,5.0,727.5038100005986,8.0,0.0,part_2,go,600.0,550.0,1.0,,,,,,,,,orange,square
0.0,2.0,2.0,0.0,5.0,5.0,689.0147770000112,8.0,0.0,part_2,go,600.0,550.0,1.0,,,,,,,,,blue,diamond
0.0,7.0,3.0,1.0,5.0,5.0,343.7171420000595,8.0,0.0,part_2,stop,600.0,550.0,3.0,,,,,,,,,magenta,hexagon
0.0,2.0,2.0,0.0,5.0,5.0,665.0921179998477,8.0,0.0,part_2,go,550.0,550.0,1.0,,,,,,,,,blue,diamond
0.0,8.0,4.0,1.0,6.0,6.0,642.8466580000531,8.0,0.0,part_2,stop,550.0,550.0,3.0,,,,,,,,,cyan,flipped triangle
0.0,6.0,2.0,1.0,5.0,5.0,610.3635230001601,8.0,0.0,part_2,stop,550.0,500.0,3.0,,,,,,,,,white,I
0.0,2.0,2.0,0.0,6.0,6.0,678.3586150004339,8.0,0.0,part_2,go,500.0,500.0,1.0,,,,,,,,,blue,diamond
0.0,6.0,2.0,1.0,6.0,6.0,531.6292509996856,8.0,0.0,part_2,go,500.0,500.0,1.0,,,,,,,,,white,I
0.0,6.0,2.0,1.0,7.0,3.0,2357.4072800001886,1.0,1.0,part_3,go,0.0,0.0,0.0,68.0,2.0,204.0,136.0,68.0,102.0,170.0,34.0,white,I
0.0,1.0,1.0,0.0,7.0,5.0,2073.947906000285,1.0,1.0,part_3,go,0.0,0.0,0.0,264.0,6.0,44.0,220.0,88.0,132.0,264.0,176.0,green,circle
0.0,5.0,1.0,1.0,7.0,6.0,2282.390006999776,1.0,1.0,part_3,go,0.0,0.0,0.0,108.0,2.0,216.0,162.0,324.0,270.0,54.0,108.0,gray,cross
0.0,3.0,3.0,0.0,7.0,2.0,2320.467307999934,1.0,1.0,part_3,go,0.0,0.0,0.0,204.0,6.0,34.0,204.0,68.0,102.0,170.0,136.0,yellow,triangle
0.0,3.0,3.0,0.0,7.0,6.0,2202.511453000625,1.0,1.0,part_3,go,0.0,0.0,0.0,270.0,5.0,216.0,324.0,162.0,108.0,54.0,270.0,yellow,triangle
0.0,4.0,4.0,0.0,7.0,3.0,2010.718774000452,1.0,1.0,part_3,go,0.0,0.0,0.0,156.0,4.0,195.0,117.0,156.0,234.0,78.0,39.0,orange,square
0.0,2.0,2.0,0.0,7.0,4.0,2425.7601819999763,1.0,1.0,part_3,go,0.0,0.0,0.0,132.0,3.0,220.0,264.0,88.0,132.0,44.0,176.0,blue,diamond
0.0,3.0,3.0,0.0,7.0,2.0,2224.459236000257,1.0,1.0,part_3,go,0.0,0.0,0.0,245.0,5.0,147.0,245.0,49.0,294.0,196.0,98.0,yellow,triangle
0.0,6.0,2.0,1.0,7.0,1.0,1662.5088169994342,1.0,1.0,part_3,go,0.0,0.0,0.0,132.0,3.0,132.0,220.0,264.0,88.0,176.0,44.0,white,I
0.0,4.0,4.0,0.0,7.0,6.0,1085.805601999709,1.0,1.0,part_3,go,0.0,0.0,0.0,176.0,4.0,132.0,44.0,264.0,88.0,220.0,176.0,orange,square
0.0,5.0,1.0,1.0,7.0,3.0,1371.381050999844,1.0,1.0,part_3,go,0.0,0.0,0.0,68.0,2.0,102.0,170.0,68.0,34.0,136.0,204.0,gray,cross
0.0,6.0,2.0,1.0,7.0,2.0,1280.6834040002286,1.0,1.0,part_3,go,0.0,0.0,0.0,88.0,2.0,44.0,88.0,220.0,176.0,264.0,132.0,white,I
0.0,5.0,1.0,1.0,7.0,4.0,1636.070457999267,1.0,1.0,part_3,go,0.0,0.0,0.0,39.0,1.0,156.0,78.0,234.0,39.0,117.0,195.0,gray,cross
0.0,2.0,2.0,0.0,7.0,2.0,1902.5447450003412,1.0,1.0,part_3,go,0.0,0.0,0.0,136.0,4.0,68.0,136.0,34.0,170.0,204.0,102.0,blue,diamond
0.0,5.0,1.0,1.0,7.0,2.0,1661.2575740000466,1.0,1.0,part_3,go,0.0,0.0,0.0,68.0,2.0,204.0,68.0,34.0,102.0,170.0,136.0,gray,cross
0.0,2.0,2.0,0.0,7.0,5.0,1071.3326960003542,1.0,1.0,part_3,go,0.0,0.0,0.0,216.0,4.0,270.0,108.0,54.0,162.0,216.0,324.0,blue,diamond
0.0,7.0,3.0,1.0,7.0,2.0,1310.9350459999405,1.0,1.0,part_3,go,0.0,0.0,0.0,264.0,6.0,88.0,264.0,44.0,220.0,132.0,176.0,magenta,hexagon
0.0,3.0,3.0,0.0,7.0,4.0,1426.4754300002096,1.0,1.0,part_3,go,0.0,0.0,0.0,195.0,5.0,117.0,39.0,234.0,195.0,78.0,156.0,yellow,triangle
0.0,8.0,4.0,1.0,7.0,6.0,1609.1344550004578,1.0,1.0,part_3,go,0.0,0.0,0.0,324.0,6.0,162.0,270.0,216.0,108.0,54.0,324.0,cyan,flipped triangle
0.0,6.0,2.0,1.0,7.0,2.0,2018.884770999648,1.0,1.0,part_3,go,0.0,0.0,0.0,102.0,3.0,170.0,102.0,136.0,204.0,34.0,68.0,white,I
0.0,4.0,4.0,0.0,7.0,5.0,1670.5941330001224,2.0,1.0,part_3,go,0.0,0.0,0.0,196.0,4.0,98.0,245.0,294.0,49.0,196.0,147.0,orange,square
0.0,7.0,3.0,1.0,7.0,1.0,1182.2120019996871,2.0,1.0,part_3,go,0.0,0.0,0.0,324.0,6.0,324.0,108.0,54.0,162.0,216.0,270.0,magenta,hexagon
0.0,7.0,3.0,1.0,7.0,2.0,1784.4873330004702,2.0,1.0,part_3,go,0.0,0.0,0.0,294.0,6.0,196.0,294.0,49.0,98.0,147.0,245.0,magenta,hexagon
0.0,8.0,4.0,1.0,7.0,1.0,2035.5478530000255,2.0,1.0,part_3,go,0.0,0.0,0.0,245.0,5.0,245.0,49.0,98.0,147.0,294.0,196.0,cyan,flipped triangle
0.0,7.0,3.0,1.0,7.0,1.0,1470.3774459994747,2.0,1.0,part_3,go,0.0,0.0,0.0,234.0,6.0,234.0,156.0,117.0,195.0,39.0,78.0,magenta,hexagon
0.0,1.0,1.0,0.0,7.0,2.0,2013.7821489997805,2.0,1.0,part_3,go,0.0,0.0,0.0,102.0,3.0,170.0,102.0,34.0,136.0,204.0,68.0,green,circle
0.0,2.0,2.0,0.0,7.0,4.0,2449.6814479998648,2.0,1.0,part_3,go,0.0,0.0,0.0,147.0,3.0,245.0,294.0,196.0,147.0,98.0,49.0,blue,diamond
0.0,5.0,1.0,1.0,7.0,1.0,1527.4794520000796,2.0,1.0,part_3,go,0.0,0.0,0.0,98.0,2.0,98.0,245.0,49.0,196.0,147.0,294.0,gray,cross
0.0,4.0,4.0,0.0,7.0,2.0,1147.5260900006106,2.0,1.0,part_3,go,0.0,0.0,0.0,117.0,3.0,78.0,117.0,156.0,39.0,234.0,195.0,orange,square
0.0,7.0,3.0,1.0,7.0,2.0,1733.2233739998628,2.0,1.0,part_3,go,0.0,0.0,0.0,34.0,1.0,102.0,34.0,204.0,136.0,68.0,170.0,magenta,hexagon
0.0,5.0,1.0,1.0,7.0,5.0,1956.4875779997235,2.0,1.0,part_3,go,0.0,0.0,0.0,44.0,1.0,220.0,88.0,132.0,176.0,44.0,264.0,gray,cross
0.0,1.0,1.0,0.0,7.0,1.0,1521.6588040002534,2.0,1.0,part_3,go,0.0,0.0,0.0,132.0,3.0,132.0,220.0,88.0,264.0,176.0,44.0,green,circle
0.0,1.0,1.0,0.0,7.0,2.0,1971.9610840002133,2.0,1.0,part_3,go,0.0,0.0,0.0,162.0,3.0,54.0,162.0,324.0,270.0,108.0,216.0,green,circle
0.0,5.0,1.0,1.0,7.0,2.0,1327.924150000399,2.0,1.0,part_3,go,0.0,0.0,0.0,39.0,1.0,78.0,39.0,117.0,234.0,156.0,195.0,gray,cross
0.0,1.0,1.0,0.0,7.0,5.0,1730.7506359993567,2.0,1.0,part_3,go,0.0,0.0,0.0,117.0,3.0,234.0,39.0,195.0,156.0,117.0,78.0,green,circle
0.0,7.0,3.0,1.0,7.0,2.0,2125.89552999998,2.0,1.0,part_3,go,0.0,0.0,0.0,294.0,6.0,98.0,294.0,49.0,245.0,147.0,196.0,magenta,hexagon
0.0,3.0,3.0,0.0,7.0,3.0,1852.2100599993792,2.0,1.0,part_3,go,0.0,0.0,0.0,136.0,4.0,102.0,204.0,136.0,68.0,170.0,34.0,yellow,triangle
0.0,7.0,3.0,1.0,7.0,5.0,2359.177540000019,2.0,1.0,part_3,go,0.0,0.0,0.0,270.0,5.0,108.0,216.0,54.0,162.0,270.0,324.0,magenta,hexagon
0.0,8.0,4.0,1.0,7.0,5.0,1627.8525349998745,2.0,1.0,part_3,go,0.0,0.0,0.0,270.0,5.0,162.0,108.0,216.0,324.0,270.0,54.0,cyan,flipped triangle
0.0,5.0,1.0,1.0,7.0,5.0,1222.0536189997802,2.0,1.0,part_3,go,0.0,0.0,0.0,44.0,1.0,132.0,88.0,220.0,176.0,44.0,264.0,gray,cross
0.0,2.0,2.0,0.0,7.0,2.0,1572.118294000575,3.0,1.0,part_3,go,0.0,0.0,0.0,195.0,5.0,39.0,195.0,234.0,156.0,117.0,78.0,blue,diamond
0.0,8.0,4.0,1.0,7.0,4.0,2295.0574309998046,3.0,1.0,part_3,go,0.0,0.0,0.0,204.0,6.0,136.0,170.0,102.0,204.0,34.0,68.0,cyan,flipped triangle
0.0,3.0,3.0,0.0,7.0,1.0,2138.366584000323,3.0,1.0,part_3,go,0.0,0.0,0.0,195.0,5.0,195.0,78.0,234.0,117.0,39.0,156.0,yellow,triangle
0.0,1.0,1.0,0.0,7.0,1.0,1691.645021000113,3.0,1.0,part_3,go,0.0,0.0,0.0,147.0,3.0,147.0,196.0,245.0,98.0,49.0,294.0,green,circle
0.0,7.0,3.0,1.0,7.0,5.0,2160.899344000427,3.0,1.0,part_3,go,0.0,0.0,0.0,234.0,6.0,195.0,117.0,78.0,39.0,234.0,156.0,magenta,hexagon
0.0,8.0,4.0,1.0,7.0,2.0,1541.4421420000508,3.0,1.0,part_3,go,0.0,0.0,0.0,147.0,3.0,294.0,147.0,49.0,245.0,98.0,196.0,cyan,flipped triangle
0.0,2.0,2.0,0.0,7.0,5.0,1943.579161999878,3.0,1.0,part_3,go,0.0,0.0,0.0,156.0,4.0,78.0,117.0,234.0,39.0,156.0,195.0,blue,diamond
0.0,1.0,1.0,0.0,7.0,3.0,1767.740928999956,3.0,1.0,part_3,go,0.0,0.0,0.0,117.0,3.0,78.0,234.0,117.0,39.0,156.0,195.0,green,circle
0.0,6.0,2.0,1.0,7.0,4.0,1940.5875370002832,3.0,1.0,part_3,go,0.0,0.0,0.0,117.0,3.0,234.0,78.0,195.0,117.0,156.0,39.0,white,I
0.0,4.0,4.0,0.0,7.0,4.0,2083.7473970004794,3.0,1.0,part_3,go,0.0,0.0,0.0,162.0,3.0,216.0,270.0,108.0,162.0,324.0,54.0,orange,square
0.0,3.0,3.0,0.0,7.0,6.0,1953.3344700003,3.0,1.0,part_3,go,0.0,0.0,0.0,176.0,4.0,44.0,264.0,220.0,132.0,88.0,176.0,yellow,triangle
0.0,8.0,4.0,1.0,7.0,4.0,1893.3101499997065,3.0,1.0,part_3,go,0.0,0.0,0.0,234.0,6.0,195.0,39.0,78.0,234.0,117.0,156.0,cyan,flipped triangle
0.0,2.0,2.0,0.0,7.0,3.0,1980.286877999788,3.0,1.0,part_3,go,0.0,0.0,0.0,176.0,4.0,264.0,44.0,176.0,88.0,220.0,132.0,blue,diamond
0.0,6.0,2.0,1.0,7.0,3.0,1913.965728999756,3.0,1.0,part_3,go,0.0,0.0,0.0,78.0,2.0,234.0,156.0,78.0,195.0,39.0,117.0,white,I
0.0,4.0,4.0,0.0,7.0,3.0,1419.4891990000542,3.0,1.0,part_3,go,0.0,0.0,0.0,147.0,3.0,98.0,196.0,147.0,294.0,245.0,49.0,orange,square
0.0,3.0,3.0,0.0,7.0,2.0,1006.3386929996341,3.0,1.0,part_3,go,0.0,0.0,0.0,264.0,6.0,132.0,264.0,176.0,220.0,88.0,44.0,yellow,triangle
0.0,8.0,4.0,1.0,7.0,2.0,1813.7010060008831,3.0,1.0,part_3,go,0.0,0.0,0.0,264.0,6.0,44.0,264.0,220.0,88.0,132.0,176.0,cyan,flipped triangle
0.0,4.0,4.0,0.0,7.0,3.0,1715.7181950005906,3.0,1.0,part_3,go,0.0,0.0,0.0,136.0,4.0,102.0,34.0,136.0,170.0,68.0,204.0,orange,square
0.0,6.0,2.0,1.0,7.0,2.0,800.7181330003732,3.0,1.0,part_3,go,0.0,0.0,0.0,108.0,2.0,324.0,108.0,270.0,54.0,162.0,216.0,white,I
0.0,3.0,3.0,0.0,7.0,3.0,1678.4323309993852,3.0,1.0,part_3,go,0.0,0.0,0.0,162.0,3.0,324.0,270.0,162.0,54.0,108.0,216.0,yellow,triangle
0.0,8.0,4.0,1.0,7.0,5.0,1628.2609869995213,4.0,1.0,part_3,go,0.0,0.0,0.0,234.0,6.0,39.0,195.0,78.0,156.0,234.0,117.0,cyan,flipped triangle
0.0,1.0,1.0,0.0,7.0,5.0,1188.8243970006442,4.0,1.0,part_3,go,0.0,0.0,0.0,147.0,3.0,49.0,294.0,245.0,98.0,147.0,196.0,green,circle
0.0,4.0,4.0,0.0,7.0,2.0,1828.0025340000063,4.0,1.0,part_3,go,0.0,0.0,0.0,162.0,3.0,108.0,162.0,270.0,54.0,324.0,216.0,orange,square
0.0,1.0,1.0,0.0,7.0,3.0,1937.0399830004317,4.0,1.0,part_3,go,0.0,0.0,0.0,108.0,2.0,270.0,324.0,108.0,54.0,216.0,162.0,green,circle
0.0,7.0,3.0,1.0,7.0,2.0,1381.5118539996547,4.0,1.0,part_3,go,0.0,0.0,0.0,264.0,6.0,176.0,264.0,88.0,220.0,44.0,132.0,magenta,hexagon
0.0,7.0,3.0,1.0,7.0,3.0,1856.167674000062,4.0,1.0,part_3,go,0.0,0.0,0.0,204.0,6.0,136.0,34.0,204.0,170.0,102.0,68.0,magenta,hexagon
0.0,8.0,4.0,1.0,7.0,5.0,1180.9733379996032,4.0,1.0,part_3,go,0.0,0.0,0.0,204.0,6.0,102.0,68.0,34.0,136.0,204.0,170.0,cyan,flipped triangle
0.0,4.0,4.0,0.0,7.0,1.0,1516.0675010001796,4.0,1.0,part_3,go,0.0,0.0,0.0,176.0,4.0,176.0,264.0,220.0,44.0,132.0,88.0,orange,square
0.0,2.0,2.0,0.0,7.0,2.0,1243.2637430001705,4.0,1.0,part_3,go,0.0,0.0,0.0,270.0,5.0,216.0,270.0,324.0,108.0,162.0,54.0,blue,diamond
0.0,6.0,2.0,1.0,7.0,5.0,1573.495410999385,4.0,1.0,part_3,go,0.0,0.0,0.0,108.0,2.0,270.0,216.0,54.0,162.0,108.0,324.0,white,I
0.0,2.0,2.0,0.0,7.0,3.0,2531.382322999889,4.0,1.0,part_3,go,0.0,0.0,0.0,147.0,3.0,294.0,49.0,147.0,196.0,98.0,245.0,blue,diamond
0.0,2.0,2.0,0.0,7.0,1.0,1145.1276320003672,4.0,1.0,part_3,go,0.0,0.0,0.0,136.0,4.0,136.0,68.0,34.0,170.0,204.0,102.0,blue,diamond
0.0,6.0,2.0,1.0,7.0,3.0,1532.7905630001624,4.0,1.0,part_3,go,0.0,0.0,0.0,98.0,2.0,245.0,49.0,98.0,147.0,294.0,196.0,white,I
0.0,6.0,2.0,1.0,7.0,1.0,1504.2569439992803,4.0,1.0,part_3,go,0.0,0.0,0.0,49.0,1.0,49.0,196.0,245.0,147.0,98.0,294.0,white,I
0.0,4.0,4.0,0.0,7.0,2.0,972.3965899993344,4.0,1.0,part_3,go,0.0,0.0,0.0,136.0,4.0,102.0,136.0,204.0,34.0,68.0,170.0,orange,square
0.0,5.0,1.0,1.0,7.0,1.0,822.3205550002604,4.0,1.0,part_3,go,0.0,0.0,0.0,49.0,1.0,49.0,294.0,245.0,147.0,98.0,196.0,gray,cross
0.0,8.0,4.0,1.0,7.0,2.0,1164.0540329999567,4.0,1.0,part_3,go,0.0,0.0,0.0,264.0,6.0,88.0,264.0,132.0,176.0,44.0,220.0,cyan,flipped triangle
0.0,3.0,3.0,0.0,7.0,3.0,1667.3404219991426,4.0,1.0,part_3,go,0.0,0.0,0.0,147.0,3.0,294.0,196.0,147.0,98.0,245.0,49.0,yellow,triangle
0.0,1.0,1.0,0.0,7.0,3.0,2358.809547999954,4.0,1.0,part_3,go,0.0,0.0,0.0,102.0,3.0,34.0,204.0,102.0,170.0,136.0,68.0,green,circle
0.0,5.0,1.0,1.0,7.0,2.0,1127.2395430005415,4.0,1.0,part_3,go,0.0,0.0,0.0,270.0,5.0,216.0,270.0,108.0,324.0,162.0,54.0,gray,cross
