raw_reward_magnitude,stim_reward,stepwise_reward_magnitude,paired_with_stopping,stim_location,response,reaction_time,block,num_trial_presentations,which_phase,stop_signal_trial_type,left_SSD,right_SSD,accuracy,chosen_bidding_amount,chosen_bidding_level,possible_bid_1,possible_bid_2,possible_bid_3,possible_bid_4,possible_bid_5,possible_bid_6,color_text,shape_text
0.0,2.0,0.0,0.0,1.0,1.0,362.9829950000385,1.0,1.0,phase_1,,,,,,,,,,,,,magenta,cross
421.0,8.0,4.0,1.0,2.0,2.0,390.5766820000735,1.0,1.0,phase_1,,,,,,,,,,,,,blue,diamond
218.0,7.0,3.0,1.0,1.0,1.0,364.0562239997962,1.0,1.0,phase_1,,,,,,,,,,,,,green,triangle
187.0,7.0,3.0,1.0,2.0,2.0,353.1883779999134,1.0,1.0,phase_1,,,,,,,,,,,,,green,triangle
223.0,3.0,3.0,0.0,1.0,1.0,366.3848829999097,1.0,1.0,phase_1,,,,,,,,,,,,,gray,I
109.0,2.0,2.0,0.0,3.0,3.0,372.8094560001409,1.0,1.0,phase_1,,,,,,,,,,,,,magenta,cross
89.0,2.0,2.0,0.0,1.0,1.0,262.8091629999289,1.0,1.0,phase_1,,,,,,,,,,,,,magenta,cross
399.0,8.0,4.0,1.0,1.0,1.0,376.7109080001773,1.0,1.0,phase_1,,,,,,,,,,,,,blue,diamond
27.0,5.0,1.0,1.0,3.0,3.0,336.265861999891,1.0,1.0,phase_1,,,,,,,,,,,,,cyan,hexagon
79.0,2.0,2.0,0.0,3.0,3.0,399.4620480000321,1.0,1.0,phase_1,,,,,,,,,,,,,magenta,cross
90.0,2.0,2.0,0.0,4.0,4.0,275.6192740000642,1.0,1.0,phase_1,,,,,,,,,,,,,magenta,cross
385.0,8.0,4.0,1.0,3.0,3.0,413.7439510000149,1.0,1.0,phase_1,,,,,,,,,,,,,blue,diamond
57.0,1.0,1.0,0.0,1.0,1.0,280.6572389999928,1.0,1.0,phase_1,,,,,,,,,,,,,orange,square
0.0,1.0,0.0,0.0,4.0,4.0,306.5897510000468,1.0,1.0,phase_1,,,,,,,,,,,,,orange,square
61.0,5.0,1.0,1.0,4.0,4.0,333.8949120000052,1.0,1.0,phase_1,,,,,,,,,,,,,cyan,hexagon
94.0,6.0,2.0,1.0,1.0,1.0,290.0788809999994,1.0,1.0,phase_1,,,,,,,,,,,,,white,flipped triangle
81.0,2.0,2.0,0.0,4.0,4.0,285.9734730000127,1.0,1.0,phase_1,,,,,,,,,,,,,magenta,cross
184.0,3.0,3.0,0.0,3.0,3.0,367.5760799999352,1.0,1.0,phase_1,,,,,,,,,,,,,gray,I
195.0,7.0,3.0,1.0,3.0,3.0,300.8724170001642,1.0,1.0,phase_1,,,,,,,,,,,,,green,triangle
197.0,3.0,3.0,0.0,2.0,2.0,345.8905290001439,1.0,2.0,phase_1,,,,,,,,,,,,,gray,I
74.0,1.0,1.0,0.0,4.0,4.0,358.5033550000389,1.0,1.0,phase_1,,,,,,,,,,,,,orange,square
402.0,8.0,4.0,1.0,1.0,1.0,315.0777299999845,1.0,1.0,phase_1,,,,,,,,,,,,,blue,diamond
81.0,6.0,2.0,1.0,1.0,1.0,466.4868820000265,1.0,1.0,phase_1,,,,,,,,,,,,,white,flipped triangle
0.0,4.0,0.0,0.0,4.0,4.0,362.2733290001179,1.0,1.0,phase_1,,,,,,,,,,,,,yellow,circle
201.0,3.0,3.0,0.0,4.0,4.0,384.882546000199,1.0,1.0,phase_1,,,,,,,,,,,,,gray,I
390.0,8.0,4.0,1.0,2.0,2.0,299.6867650001604,1.0,1.0,phase_1,,,,,,,,,,,,,blue,diamond
0.0,5.0,0.0,1.0,1.0,1.0,343.1387699999959,1.0,1.0,phase_1,,,,,,,,,,,,,cyan,hexagon
108.0,2.0,2.0,0.0,1.0,1.0,387.1308370000861,1.0,1.0,phase_1,,,,,,,,,,,,,magenta,cross
391.0,4.0,4.0,0.0,4.0,4.0,369.6137470001304,1.0,1.0,phase_1,,,,,,,,,,,,,yellow,circle
0.0,6.0,0.0,1.0,3.0,3.0,375.7467880000149,1.0,1.0,phase_1,,,,,,,,,,,,,white,flipped triangle
83.0,6.0,2.0,1.0,1.0,1.0,316.4221710001129,1.0,1.0,phase_1,,,,,,,,,,,,,white,flipped triangle
182.0,3.0,3.0,0.0,1.0,1.0,320.6372780000492,1.0,1.0,phase_1,,,,,,,,,,,,,gray,I
90.0,6.0,2.0,1.0,3.0,3.0,347.9474390001087,1.0,1.0,phase_1,,,,,,,,,,,,,white,flipped triangle
0.0,1.0,0.0,0.0,1.0,1.0,317.1137029999045,1.0,1.0,phase_1,,,,,,,,,,,,,orange,square
376.0,4.0,4.0,0.0,2.0,2.0,348.3428489998914,1.0,1.0,phase_1,,,,,,,,,,,,,yellow,circle
0.0,2.0,0.0,0.0,4.0,4.0,326.5059340001244,1.0,1.0,phase_1,,,,,,,,,,,,,magenta,cross
61.0,1.0,1.0,0.0,2.0,2.0,295.1923820000957,1.0,1.0,phase_1,,,,,,,,,,,,,orange,square
203.0,3.0,3.0,0.0,2.0,2.0,348.246877000065,1.0,1.0,phase_1,,,,,,,,,,,,,gray,I
0.0,5.0,0.0,1.0,4.0,4.0,329.150208999863,1.0,1.0,phase_1,,,,,,,,,,,,,cyan,hexagon
210.0,3.0,3.0,0.0,1.0,1.0,347.4852589999955,1.0,1.0,phase_1,,,,,,,,,,,,,gray,I
189.0,7.0,3.0,1.0,2.0,2.0,292.9573169999457,1.0,1.0,phase_1,,,,,,,,,,,,,green,triangle
385.0,4.0,4.0,0.0,3.0,3.0,356.0980400000062,1.0,1.0,phase_1,,,,,,,,,,,,,yellow,circle
118.0,6.0,2.0,1.0,1.0,1.0,292.0505650001814,1.0,1.0,phase_1,,,,,,,,,,,,,white,flipped triangle
377.0,8.0,4.0,1.0,4.0,4.0,326.0873229999106,1.0,1.0,phase_1,,,,,,,,,,,,,blue,diamond
43.0,5.0,1.0,1.0,2.0,2.0,324.8182659999656,1.0,1.0,phase_1,,,,,,,,,,,,,cyan,hexagon
208.0,3.0,3.0,0.0,4.0,4.0,339.4498919999478,1.0,1.0,phase_1,,,,,,,,,,,,,gray,I
74.0,5.0,1.0,1.0,3.0,3.0,325.5987649999952,1.0,1.0,phase_1,,,,,,,,,,,,,cyan,hexagon
0.0,4.0,0.0,0.0,2.0,2.0,312.9163130001871,1.0,1.0,phase_1,,,,,,,,,,,,,yellow,circle
76.0,2.0,2.0,0.0,2.0,2.0,358.0169280000973,1.0,1.0,phase_1,,,,,,,,,,,,,magenta,cross
94.0,2.0,2.0,0.0,4.0,4.0,306.2679669999397,1.0,1.0,phase_1,,,,,,,,,,,,,magenta,cross
0.0,6.0,0.0,1.0,4.0,4.0,435.3086540002095,1.0,1.0,phase_1,,,,,,,,,,,,,white,flipped triangle
0.0,3.0,0.0,0.0,3.0,3.0,583.6090420000346,1.0,1.0,phase_1,,,,,,,,,,,,,gray,I
396.0,4.0,4.0,0.0,4.0,4.0,377.596116000177,1.0,1.0,phase_1,,,,,,,,,,,,,yellow,circle
35.0,1.0,1.0,0.0,3.0,3.0,348.765362999984,1.0,1.0,phase_1,,,,,,,,,,,,,orange,square
211.0,3.0,3.0,0.0,2.0,2.0,295.1015119999738,1.0,1.0,phase_1,,,,,,,,,,,,,gray,I
413.0,4.0,4.0,0.0,2.0,2.0,359.6574440000495,1.0,1.0,phase_1,,,,,,,,,,,,,yellow,circle
86.0,6.0,2.0,1.0,3.0,3.0,348.9387560000523,1.0,1.0,phase_1,,,,,,,,,,,,,white,flipped triangle
407.0,4.0,4.0,0.0,4.0,4.0,360.754758999974,1.0,1.0,phase_1,,,,,,,,,,,,,yellow,circle
100.0,6.0,2.0,1.0,4.0,4.0,366.8591670000296,1.0,1.0,phase_1,,,,,,,,,,,,,white,flipped triangle
0.0,2.0,0.0,0.0,1.0,1.0,436.1857860001237,1.0,1.0,phase_1,,,,,,,,,,,,,magenta,cross
108.0,6.0,2.0,1.0,2.0,2.0,349.2284769999969,1.0,1.0,phase_1,,,,,,,,,,,,,white,flipped triangle
109.0,6.0,2.0,1.0,1.0,1.0,458.8759519999712,1.0,1.0,phase_1,,,,,,,,,,,,,white,flipped triangle
396.0,8.0,4.0,1.0,4.0,4.0,329.4230000001334,1.0,1.0,phase_1,,,,,,,,,,,,,blue,diamond
58.0,5.0,1.0,1.0,4.0,4.0,430.1855510000223,1.0,1.0,phase_1,,,,,,,,,,,,,cyan,hexagon
37.0,5.0,1.0,1.0,1.0,1.0,469.8712790000172,1.0,1.0,phase_1,,,,,,,,,,,,,cyan,hexagon
112.0,6.0,2.0,1.0,4.0,4.0,288.0161990001397,1.0,1.0,phase_1,,,,,,,,,,,,,white,flipped triangle
0.0,7.0,0.0,1.0,3.0,3.0,359.9846699999034,1.0,1.0,phase_1,,,,,,,,,,,,,green,triangle
55.0,5.0,1.0,1.0,3.0,3.0,481.5750769998885,1.0,1.0,phase_1,,,,,,,,,,,,,cyan,hexagon
32.0,1.0,1.0,0.0,4.0,4.0,326.3291299999764,1.0,1.0,phase_1,,,,,,,,,,,,,orange,square
49.0,1.0,1.0,0.0,4.0,4.0,353.2825740001044,1.0,1.0,phase_1,,,,,,,,,,,,,orange,square
176.0,7.0,3.0,1.0,3.0,3.0,359.5188880001387,1.0,1.0,phase_1,,,,,,,,,,,,,green,triangle
386.0,8.0,4.0,1.0,2.0,2.0,359.4846270000289,1.0,1.0,phase_1,,,,,,,,,,,,,blue,diamond
413.0,4.0,4.0,0.0,1.0,1.0,418.6671659999774,1.0,1.0,phase_1,,,,,,,,,,,,,yellow,circle
196.0,7.0,3.0,1.0,3.0,3.0,344.290828999874,1.0,1.0,phase_1,,,,,,,,,,,,,green,triangle
41.0,5.0,1.0,1.0,3.0,3.0,390.1306300001579,1.0,1.0,phase_1,,,,,,,,,,,,,cyan,hexagon
121.0,6.0,2.0,1.0,4.0,4.0,322.6517489999878,1.0,1.0,phase_1,,,,,,,,,,,,,white,flipped triangle
420.0,8.0,4.0,1.0,4.0,4.0,360.1371879999533,1.0,1.0,phase_1,,,,,,,,,,,,,blue,diamond
89.0,6.0,2.0,1.0,4.0,4.0,329.6757220000472,1.0,1.0,phase_1,,,,,,,,,,,,,white,flipped triangle
111.0,6.0,2.0,1.0,2.0,2.0,383.2527780000418,1.0,1.0,phase_1,,,,,,,,,,,,,white,flipped triangle
0.0,4.0,0.0,0.0,2.0,2.0,382.9679410000608,1.0,1.0,phase_1,,,,,,,,,,,,,yellow,circle
111.0,2.0,2.0,0.0,2.0,2.0,331.7059640000934,1.0,1.0,phase_1,,,,,,,,,,,,,magenta,cross
393.0,4.0,4.0,0.0,1.0,1.0,393.845168000098,1.0,1.0,phase_1,,,,,,,,,,,,,yellow,circle
0.0,6.0,0.0,1.0,1.0,1.0,383.3225240000502,1.0,1.0,phase_1,,,,,,,,,,,,,white,flipped triangle
61.0,5.0,1.0,1.0,1.0,1.0,367.4944199999572,1.0,1.0,phase_1,,,,,,,,,,,,,cyan,hexagon
0.0,1.0,0.0,0.0,4.0,4.0,364.5713119999527,1.0,1.0,phase_1,,,,,,,,,,,,,orange,square
77.0,6.0,2.0,1.0,4.0,4.0,377.2291930001756,1.0,1.0,phase_1,,,,,,,,,,,,,white,flipped triangle
0.0,4.0,0.0,0.0,1.0,1.0,471.315316999835,1.0,1.0,phase_1,,,,,,,,,,,,,yellow,circle
0.0,7.0,0.0,1.0,1.0,1.0,455.5426709998755,1.0,1.0,phase_1,,,,,,,,,,,,,green,triangle
193.0,7.0,3.0,1.0,4.0,4.0,378.9772210000137,1.0,1.0,phase_1,,,,,,,,,,,,,green,triangle
410.0,4.0,4.0,0.0,2.0,2.0,347.0021620000807,1.0,1.0,phase_1,,,,,,,,,,,,,yellow,circle
0.0,3.0,0.0,0.0,2.0,2.0,363.1384459999935,1.0,1.0,phase_1,,,,,,,,,,,,,gray,I
0.0,5.0,0.0,1.0,4.0,4.0,400.3211779997855,1.0,1.0,phase_1,,,,,,,,,,,,,cyan,hexagon
43.0,5.0,1.0,1.0,3.0,3.0,388.4139240001332,1.0,1.0,phase_1,,,,,,,,,,,,,cyan,hexagon
0.0,7.0,0.0,1.0,4.0,4.0,352.7436139997917,1.0,1.0,phase_1,,,,,,,,,,,,,green,triangle
73.0,1.0,1.0,0.0,2.0,2.0,366.5386899999703,1.0,1.0,phase_1,,,,,,,,,,,,,orange,square
407.0,4.0,4.0,0.0,1.0,1.0,437.3927990000084,1.0,1.0,phase_1,,,,,,,,,,,,,yellow,circle
378.0,8.0,4.0,1.0,1.0,1.0,451.965237999957,1.0,1.0,phase_1,,,,,,,,,,,,,blue,diamond
96.0,2.0,2.0,0.0,1.0,1.0,315.8170419999351,1.0,1.0,phase_1,,,,,,,,,,,,,magenta,cross
0.0,3.0,0.0,0.0,1.0,1.0,326.848001000144,1.0,1.0,phase_1,,,,,,,,,,,,,gray,I
390.0,8.0,4.0,1.0,1.0,1.0,374.8927759997968,1.0,1.0,phase_1,,,,,,,,,,,,,blue,diamond
37.0,5.0,1.0,1.0,3.0,3.0,386.8300149999868,2.0,1.0,phase_1,,,,,,,,,,,,,cyan,hexagon
378.0,4.0,4.0,0.0,1.0,1.0,342.1256859999175,2.0,1.0,phase_1,,,,,,,,,,,,,yellow,circle
190.0,7.0,3.0,1.0,3.0,3.0,324.0070250001281,2.0,1.0,phase_1,,,,,,,,,,,,,green,triangle
378.0,8.0,4.0,1.0,2.0,2.0,309.4854450000639,2.0,1.0,phase_1,,,,,,,,,,,,,blue,diamond
408.0,4.0,4.0,0.0,1.0,1.0,365.9565550001389,2.0,1.0,phase_1,,,,,,,,,,,,,yellow,circle
203.0,7.0,3.0,1.0,1.0,1.0,323.0690729999423,2.0,1.0,phase_1,,,,,,,,,,,,,green,triangle
43.0,1.0,1.0,0.0,4.0,4.0,325.9441550001156,2.0,1.0,phase_1,,,,,,,,,,,,,orange,square
220.0,7.0,3.0,1.0,3.0,3.0,352.130827999872,2.0,1.0,phase_1,,,,,,,,,,,,,green,triangle
101.0,2.0,2.0,0.0,3.0,3.0,498.3164110001326,2.0,1.0,phase_1,,,,,,,,,,,,,magenta,cross
66.0,1.0,1.0,0.0,3.0,3.0,367.3416289998386,2.0,1.0,phase_1,,,,,,,,,,,,,orange,square
46.0,5.0,1.0,1.0,1.0,1.0,392.497738999964,2.0,1.0,phase_1,,,,,,,,,,,,,cyan,hexagon
118.0,2.0,2.0,0.0,2.0,2.0,400.3945760000533,2.0,1.0,phase_1,,,,,,,,,,,,,magenta,cross
112.0,2.0,2.0,0.0,3.0,3.0,346.7664209999839,2.0,1.0,phase_1,,,,,,,,,,,,,magenta,cross
0.0,1.0,0.0,0.0,2.0,2.0,309.1530459998921,2.0,1.0,phase_1,,,,,,,,,,,,,orange,square
0.0,8.0,0.0,1.0,2.0,2.0,341.2616109999362,2.0,1.0,phase_1,,,,,,,,,,,,,blue,diamond
223.0,7.0,3.0,1.0,1.0,1.0,402.3018170000796,2.0,1.0,phase_1,,,,,,,,,,,,,green,triangle
0.0,1.0,0.0,0.0,3.0,3.0,479.6700779997991,2.0,1.0,phase_1,,,,,,,,,,,,,orange,square
402.0,4.0,4.0,0.0,3.0,3.0,494.1095740000492,2.0,1.0,phase_1,,,,,,,,,,,,,yellow,circle
184.0,7.0,3.0,1.0,4.0,4.0,367.3257640000429,2.0,1.0,phase_1,,,,,,,,,,,,,green,triangle
68.0,5.0,1.0,1.0,4.0,4.0,374.7981740000341,2.0,1.0,phase_1,,,,,,,,,,,,,cyan,hexagon
0.0,8.0,0.0,1.0,4.0,4.0,313.2585840000956,2.0,1.0,phase_1,,,,,,,,,,,,,blue,diamond
103.0,6.0,2.0,1.0,2.0,2.0,400.6583709999631,2.0,1.0,phase_1,,,,,,,,,,,,,white,flipped triangle
0.0,5.0,0.0,1.0,4.0,4.0,331.5616190000128,2.0,1.0,phase_1,,,,,,,,,,,,,cyan,hexagon
176.0,7.0,3.0,1.0,4.0,4.0,321.668321000061,2.0,1.0,phase_1,,,,,,,,,,,,,green,triangle
383.0,4.0,4.0,0.0,4.0,4.0,319.2642299998169,2.0,1.0,phase_1,,,,,,,,,,,,,yellow,circle
87.0,2.0,2.0,0.0,2.0,2.0,362.466687000051,2.0,1.0,phase_1,,,,,,,,,,,,,magenta,cross
53.0,1.0,1.0,0.0,3.0,3.0,357.5563219999367,2.0,1.0,phase_1,,,,,,,,,,,,,orange,square
115.0,2.0,2.0,0.0,3.0,3.0,298.5316080000757,2.0,1.0,phase_1,,,,,,,,,,,,,magenta,cross
0.0,4.0,0.0,0.0,1.0,1.0,368.4782620000533,2.0,1.0,phase_1,,,,,,,,,,,,,yellow,circle
0.0,2.0,0.0,0.0,2.0,2.0,374.2805720000888,2.0,1.0,phase_1,,,,,,,,,,,,,magenta,cross
187.0,3.0,3.0,0.0,4.0,4.0,340.4896920001192,2.0,1.0,phase_1,,,,,,,,,,,,,gray,I
123.0,2.0,2.0,0.0,3.0,3.0,373.016104999806,2.0,1.0,phase_1,,,,,,,,,,,,,magenta,cross
57.0,5.0,1.0,1.0,2.0,2.0,301.4616020000176,2.0,1.0,phase_1,,,,,,,,,,,,,cyan,hexagon
82.0,6.0,2.0,1.0,3.0,3.0,360.5681580002056,2.0,1.0,phase_1,,,,,,,,,,,,,white,flipped triangle
71.0,1.0,1.0,0.0,1.0,1.0,380.0749040001392,2.0,1.0,phase_1,,,,,,,,,,,,,orange,square
48.0,1.0,1.0,0.0,1.0,1.0,414.6751779999249,2.0,1.0,phase_1,,,,,,,,,,,,,orange,square
0.0,1.0,0.0,0.0,4.0,4.0,348.3823840001605,2.0,1.0,phase_1,,,,,,,,,,,,,orange,square
423.0,4.0,4.0,0.0,3.0,3.0,342.5545310001325,2.0,1.0,phase_1,,,,,,,,,,,,,yellow,circle
377.0,4.0,4.0,0.0,2.0,2.0,303.4315529998821,2.0,1.0,phase_1,,,,,,,,,,,,,yellow,circle
390.0,4.0,4.0,0.0,3.0,3.0,312.9515679997894,2.0,1.0,phase_1,,,,,,,,,,,,,yellow,circle
197.0,7.0,3.0,1.0,1.0,1.0,433.3169250003266,2.0,1.0,phase_1,,,,,,,,,,,,,green,triangle
217.0,7.0,3.0,1.0,1.0,1.0,384.1112850000172,2.0,1.0,phase_1,,,,,,,,,,,,,green,triangle
0.0,6.0,0.0,1.0,2.0,2.0,305.5757410002115,2.0,1.0,phase_1,,,,,,,,,,,,,white,flipped triangle
0.0,8.0,0.0,1.0,2.0,2.0,365.7236419999208,2.0,1.0,phase_1,,,,,,,,,,,,,blue,diamond
202.0,3.0,3.0,0.0,3.0,3.0,390.0326210000457,2.0,1.0,phase_1,,,,,,,,,,,,,gray,I
48.0,5.0,1.0,1.0,4.0,4.0,380.7537769998816,2.0,1.0,phase_1,,,,,,,,,,,,,cyan,hexagon
197.0,3.0,3.0,0.0,2.0,2.0,348.2193360000565,2.0,1.0,phase_1,,,,,,,,,,,,,gray,I
175.0,7.0,3.0,1.0,4.0,4.0,309.7837559998879,2.0,1.0,phase_1,,,,,,,,,,,,,green,triangle
112.0,2.0,2.0,0.0,1.0,1.0,386.2653739997768,2.0,1.0,phase_1,,,,,,,,,,,,,magenta,cross
410.0,8.0,4.0,1.0,3.0,3.0,334.240287999819,2.0,1.0,phase_1,,,,,,,,,,,,,blue,diamond
27.0,5.0,1.0,1.0,2.0,2.0,271.0048840003765,2.0,1.0,phase_1,,,,,,,,,,,,,cyan,hexagon
203.0,3.0,3.0,0.0,3.0,3.0,361.809653000364,2.0,1.0,phase_1,,,,,,,,,,,,,gray,I
203.0,3.0,3.0,0.0,3.0,3.0,406.2277339999127,2.0,1.0,phase_1,,,,,,,,,,,,,gray,I
53.0,5.0,1.0,1.0,2.0,2.0,279.4067919999179,2.0,1.0,phase_1,,,,,,,,,,,,,cyan,hexagon
402.0,8.0,4.0,1.0,1.0,1.0,446.2832100002742,2.0,1.0,phase_1,,,,,,,,,,,,,blue,diamond
387.0,4.0,4.0,0.0,4.0,4.0,350.0247889996899,2.0,1.0,phase_1,,,,,,,,,,,,,yellow,circle
202.0,7.0,3.0,1.0,1.0,1.0,410.961516000043,2.0,1.0,phase_1,,,,,,,,,,,,,green,triangle
81.0,6.0,2.0,1.0,4.0,4.0,358.9492959999916,2.0,1.0,phase_1,,,,,,,,,,,,,white,flipped triangle
0.0,6.0,0.0,1.0,1.0,1.0,381.4740409998194,2.0,1.0,phase_1,,,,,,,,,,,,,white,flipped triangle
86.0,6.0,2.0,1.0,2.0,2.0,496.9656170001144,2.0,1.0,phase_1,,,,,,,,,,,,,white,flipped triangle
177.0,3.0,3.0,0.0,1.0,1.0,315.6417860000147,2.0,1.0,phase_1,,,,,,,,,,,,,gray,I
423.0,4.0,4.0,0.0,2.0,2.0,276.0841489998711,2.0,1.0,phase_1,,,,,,,,,,,,,yellow,circle
66.0,1.0,1.0,0.0,2.0,2.0,336.0471949999919,2.0,1.0,phase_1,,,,,,,,,,,,,orange,square
186.0,3.0,3.0,0.0,2.0,2.0,302.9596050000691,2.0,1.0,phase_1,,,,,,,,,,,,,gray,I
89.0,2.0,2.0,0.0,4.0,4.0,365.4162600000745,2.0,1.0,phase_1,,,,,,,,,,,,,magenta,cross
28.0,1.0,1.0,0.0,3.0,3.0,367.570125000384,2.0,1.0,phase_1,,,,,,,,,,,,,orange,square
120.0,6.0,2.0,1.0,2.0,2.0,280.7653539998682,2.0,1.0,phase_1,,,,,,,,,,,,,white,flipped triangle
74.0,1.0,1.0,0.0,1.0,1.0,285.1805410000452,2.0,1.0,phase_1,,,,,,,,,,,,,orange,square
55.0,1.0,1.0,0.0,4.0,4.0,342.7091439998548,2.0,1.0,phase_1,,,,,,,,,,,,,orange,square
119.0,2.0,2.0,0.0,2.0,2.0,284.7535129999414,2.0,1.0,phase_1,,,,,,,,,,,,,magenta,cross
413.0,8.0,4.0,1.0,4.0,4.0,422.9693349998342,2.0,1.0,phase_1,,,,,,,,,,,,,blue,diamond
103.0,6.0,2.0,1.0,1.0,1.0,424.4323090001671,2.0,1.0,phase_1,,,,,,,,,,,,,white,flipped triangle
121.0,2.0,2.0,0.0,4.0,4.0,358.1322439999894,2.0,1.0,phase_1,,,,,,,,,,,,,magenta,cross
413.0,8.0,4.0,1.0,4.0,4.0,377.9698199996346,2.0,1.0,phase_1,,,,,,,,,,,,,blue,diamond
396.0,8.0,4.0,1.0,2.0,2.0,253.0730270000276,2.0,1.0,phase_1,,,,,,,,,,,,,blue,diamond
96.0,6.0,2.0,1.0,3.0,3.0,576.9316490000165,2.0,1.0,phase_1,,,,,,,,,,,,,white,flipped triangle
0.0,3.0,0.0,0.0,4.0,4.0,390.6879169999229,2.0,1.0,phase_1,,,,,,,,,,,,,gray,I
182.0,7.0,3.0,1.0,2.0,2.0,243.0978530001084,2.0,1.0,phase_1,,,,,,,,,,,,,green,triangle
384.0,4.0,4.0,0.0,3.0,3.0,442.6413380001577,2.0,1.0,phase_1,,,,,,,,,,,,,yellow,circle
381.0,4.0,4.0,0.0,4.0,4.0,375.0251070000558,2.0,1.0,phase_1,,,,,,,,,,,,,yellow,circle
215.0,3.0,3.0,0.0,4.0,4.0,399.3607570000677,2.0,1.0,phase_1,,,,,,,,,,,,,gray,I
387.0,8.0,4.0,1.0,4.0,4.0,291.290888000276,2.0,1.0,phase_1,,,,,,,,,,,,,blue,diamond
51.0,1.0,1.0,0.0,2.0,2.0,271.7695669998647,2.0,1.0,phase_1,,,,,,,,,,,,,orange,square
0.0,2.0,0.0,0.0,4.0,4.0,328.9608400000361,2.0,1.0,phase_1,,,,,,,,,,,,,magenta,cross
115.0,6.0,2.0,1.0,3.0,3.0,368.2498160001159,2.0,1.0,phase_1,,,,,,,,,,,,,white,flipped triangle
86.0,2.0,2.0,0.0,1.0,1.0,419.0019580000808,2.0,1.0,phase_1,,,,,,,,,,,,,magenta,cross
209.0,7.0,3.0,1.0,2.0,2.0,255.02839699993268,2.0,1.0,phase_1,,,,,,,,,,,,,green,triangle
189.0,3.0,3.0,0.0,1.0,1.0,424.5623260003413,2.0,1.0,phase_1,,,,,,,,,,,,,gray,I
93.0,6.0,2.0,1.0,2.0,2.0,295.5126459996791,2.0,1.0,phase_1,,,,,,,,,,,,,white,flipped triangle
49.0,1.0,1.0,0.0,4.0,4.0,378.18936199983,2.0,1.0,phase_1,,,,,,,,,,,,,orange,square
0.0,1.0,0.0,0.0,3.0,3.0,405.2135309998448,2.0,1.0,phase_1,,,,,,,,,,,,,orange,square
204.0,7.0,3.0,1.0,3.0,3.0,501.6046840000854,2.0,1.0,phase_1,,,,,,,,,,,,,green,triangle
43.0,1.0,1.0,0.0,2.0,2.0,279.3903350002438,2.0,1.0,phase_1,,,,,,,,,,,,,orange,square
69.0,5.0,1.0,1.0,3.0,3.0,315.8683560000099,2.0,1.0,phase_1,,,,,,,,,,,,,cyan,hexagon
97.0,2.0,2.0,0.0,1.0,1.0,365.0522129996716,2.0,1.0,phase_1,,,,,,,,,,,,,magenta,cross
63.0,1.0,1.0,0.0,2.0,2.0,386.648993000108,2.0,1.0,phase_1,,,,,,,,,,,,,orange,square
40.0,1.0,1.0,0.0,2.0,2.0,300.0954440003625,2.0,1.0,phase_1,,,,,,,,,,,,,orange,square
38.0,5.0,1.0,1.0,2.0,2.0,305.4552899998271,2.0,1.0,phase_1,,,,,,,,,,,,,cyan,hexagon
223.0,3.0,3.0,0.0,1.0,1.0,430.1263170000311,2.0,1.0,phase_1,,,,,,,,,,,,,gray,I
208.0,7.0,3.0,1.0,2.0,2.0,292.8803569998308,2.0,1.0,phase_1,,,,,,,,,,,,,green,triangle
0.0,5.0,0.0,1.0,3.0,3.0,436.1564969999563,3.0,1.0,phase_1,,,,,,,,,,,,,cyan,hexagon
381.0,8.0,4.0,1.0,3.0,3.0,322.7598250000483,3.0,1.0,phase_1,,,,,,,,,,,,,blue,diamond
387.0,4.0,4.0,0.0,2.0,2.0,376.1512780001794,3.0,1.0,phase_1,,,,,,,,,,,,,yellow,circle
383.0,8.0,4.0,1.0,3.0,3.0,321.3544729997011,3.0,1.0,phase_1,,,,,,,,,,,,,blue,diamond
0.0,2.0,0.0,0.0,4.0,4.0,353.9423160000297,3.0,1.0,phase_1,,,,,,,,,,,,,magenta,cross
32.0,5.0,1.0,1.0,4.0,4.0,397.955818000355,3.0,1.0,phase_1,,,,,,,,,,,,,cyan,hexagon
58.0,1.0,1.0,0.0,1.0,1.0,365.517909999653,3.0,2.0,phase_1,,,,,,,,,,,,,orange,square
423.0,8.0,4.0,1.0,1.0,1.0,366.9770559999961,3.0,1.0,phase_1,,,,,,,,,,,,,blue,diamond
210.0,7.0,3.0,1.0,1.0,1.0,346.5569690001757,3.0,1.0,phase_1,,,,,,,,,,,,,green,triangle
82.0,2.0,2.0,0.0,2.0,2.0,366.7087039998478,3.0,1.0,phase_1,,,,,,,,,,,,,magenta,cross
0.0,5.0,0.0,1.0,2.0,2.0,388.7198269999317,3.0,1.0,phase_1,,,,,,,,,,,,,cyan,hexagon
414.0,4.0,4.0,0.0,3.0,3.0,396.1191879998296,3.0,1.0,phase_1,,,,,,,,,,,,,yellow,circle
393.0,8.0,4.0,1.0,3.0,3.0,386.2155430001621,3.0,1.0,phase_1,,,,,,,,,,,,,blue,diamond
189.0,3.0,3.0,0.0,4.0,4.0,360.5607160002364,3.0,1.0,phase_1,,,,,,,,,,,,,gray,I
86.0,2.0,2.0,0.0,4.0,4.0,343.1810030001543,3.0,1.0,phase_1,,,,,,,,,,,,,magenta,cross
89.0,6.0,2.0,1.0,1.0,1.0,445.4539990001649,3.0,1.0,phase_1,,,,,,,,,,,,,white,flipped triangle
68.0,5.0,1.0,1.0,1.0,1.0,403.1448060000002,3.0,1.0,phase_1,,,,,,,,,,,,,cyan,hexagon
26.0,5.0,1.0,1.0,4.0,4.0,364.487790000112,3.0,1.0,phase_1,,,,,,,,,,,,,cyan,hexagon
186.0,7.0,3.0,1.0,4.0,4.0,442.2709020000184,3.0,1.0,phase_1,,,,,,,,,,,,,green,triangle
0.0,4.0,0.0,0.0,4.0,4.0,388.0844390000675,3.0,1.0,phase_1,,,,,,,,,,,,,yellow,circle
97.0,6.0,2.0,1.0,1.0,1.0,313.8806760002808,3.0,1.0,phase_1,,,,,,,,,,,,,white,flipped triangle
0.0,7.0,0.0,1.0,2.0,2.0,414.8841259998335,3.0,1.0,phase_1,,,,,,,,,,,,,green,triangle
0.0,6.0,0.0,1.0,1.0,1.0,463.4127710000939,3.0,1.0,phase_1,,,,,,,,,,,,,white,flipped triangle
384.0,8.0,4.0,1.0,1.0,1.0,386.155640999732,3.0,1.0,phase_1,,,,,,,,,,,,,blue,diamond
27.0,1.0,1.0,0.0,3.0,3.0,445.7090519999838,3.0,1.0,phase_1,,,,,,,,,,,,,orange,square
417.0,4.0,4.0,0.0,3.0,3.0,401.9218929997805,3.0,1.0,phase_1,,,,,,,,,,,,,yellow,circle
0.0,7.0,0.0,1.0,1.0,1.0,352.1832000001268,3.0,1.0,phase_1,,,,,,,,,,,,,green,triangle
391.0,8.0,4.0,1.0,4.0,4.0,409.920177999993,3.0,1.0,phase_1,,,,,,,,,,,,,blue,diamond
0.0,5.0,0.0,1.0,1.0,1.0,372.0053799997913,3.0,1.0,phase_1,,,,,,,,,,,,,cyan,hexagon
102.0,2.0,2.0,0.0,2.0,2.0,398.2485480000832,3.0,1.0,phase_1,,,,,,,,,,,,,magenta,cross
220.0,3.0,3.0,0.0,2.0,2.0,450.4002250000667,3.0,1.0,phase_1,,,,,,,,,,,,,gray,I
201.0,7.0,3.0,1.0,4.0,4.0,404.2313859999922,3.0,1.0,phase_1,,,,,,,,,,,,,green,triangle
66.0,5.0,1.0,1.0,2.0,2.0,286.8536130004031,3.0,1.0,phase_1,,,,,,,,,,,,,cyan,hexagon
177.0,7.0,3.0,1.0,1.0,1.0,373.4722879999026,3.0,1.0,phase_1,,,,,,,,,,,,,green,triangle
0.0,4.0,0.0,0.0,1.0,1.0,304.1179349997946,3.0,1.0,phase_1,,,,,,,,,,,,,yellow,circle
398.0,8.0,4.0,1.0,3.0,3.0,353.5525629999938,3.0,1.0,phase_1,,,,,,,,,,,,,blue,diamond
55.0,5.0,1.0,1.0,3.0,3.0,406.3444329999583,3.0,1.0,phase_1,,,,,,,,,,,,,cyan,hexagon
221.0,7.0,3.0,1.0,3.0,3.0,328.8777419998041,3.0,1.0,phase_1,,,,,,,,,,,,,green,triangle
37.0,1.0,1.0,0.0,4.0,4.0,360.3459320002002,3.0,1.0,phase_1,,,,,,,,,,,,,orange,square
116.0,6.0,2.0,1.0,2.0,2.0,299.2398770002182,3.0,1.0,phase_1,,,,,,,,,,,,,white,flipped triangle
87.0,6.0,2.0,1.0,3.0,3.0,530.5968289999328,3.0,1.0,phase_1,,,,,,,,,,,,,white,flipped triangle
390.0,4.0,4.0,0.0,2.0,2.0,317.5158779999947,3.0,1.0,phase_1,,,,,,,,,,,,,yellow,circle
207.0,3.0,3.0,0.0,3.0,3.0,403.0340880003678,3.0,1.0,phase_1,,,,,,,,,,,,,gray,I
102.0,6.0,2.0,1.0,2.0,2.0,287.6323039999988,3.0,1.0,phase_1,,,,,,,,,,,,,white,flipped triangle
0.0,6.0,0.0,1.0,3.0,3.0,323.2607029999599,3.0,1.0,phase_1,,,,,,,,,,,,,white,flipped triangle
0.0,7.0,0.0,1.0,1.0,1.0,347.714587000155,3.0,1.0,phase_1,,,,,,,,,,,,,green,triangle
0.0,5.0,0.0,1.0,1.0,1.0,286.001318000217,3.0,1.0,phase_1,,,,,,,,,,,,,cyan,hexagon
209.0,3.0,3.0,0.0,4.0,4.0,425.9118790000684,3.0,1.0,phase_1,,,,,,,,,,,,,gray,I
36.0,5.0,1.0,1.0,1.0,1.0,379.057806000219,3.0,1.0,phase_1,,,,,,,,,,,,,cyan,hexagon
176.0,3.0,3.0,0.0,1.0,1.0,362.6993059997403,3.0,1.0,phase_1,,,,,,,,,,,,,gray,I
195.0,3.0,3.0,0.0,3.0,3.0,417.0975670003827,3.0,1.0,phase_1,,,,,,,,,,,,,gray,I
0.0,2.0,0.0,0.0,3.0,3.0,429.6328479999829,3.0,1.0,phase_1,,,,,,,,,,,,,magenta,cross
0.0,1.0,0.0,0.0,2.0,2.0,435.891193000316,3.0,1.0,phase_1,,,,,,,,,,,,,orange,square
79.0,6.0,2.0,1.0,2.0,2.0,347.7577779999592,3.0,1.0,phase_1,,,,,,,,,,,,,white,flipped triangle
0.0,6.0,0.0,1.0,4.0,4.0,351.4620050000303,3.0,1.0,phase_1,,,,,,,,,,,,,white,flipped triangle
106.0,2.0,2.0,0.0,4.0,4.0,426.455457999964,3.0,1.0,phase_1,,,,,,,,,,,,,magenta,cross
204.0,3.0,3.0,0.0,2.0,2.0,331.9749269999192,3.0,1.0,phase_1,,,,,,,,,,,,,gray,I
123.0,2.0,2.0,0.0,4.0,4.0,393.7024279998695,3.0,1.0,phase_1,,,,,,,,,,,,,magenta,cross
66.0,5.0,1.0,1.0,2.0,2.0,317.9790479998701,3.0,1.0,phase_1,,,,,,,,,,,,,cyan,hexagon
103.0,2.0,2.0,0.0,3.0,3.0,447.814276000372,3.0,1.0,phase_1,,,,,,,,,,,,,magenta,cross
45.0,1.0,1.0,0.0,2.0,2.0,308.1249569995634,3.0,1.0,phase_1,,,,,,,,,,,,,orange,square
408.0,4.0,4.0,0.0,1.0,1.0,471.7704619997676,3.0,1.0,phase_1,,,,,,,,,,,,,yellow,circle
0.0,8.0,0.0,1.0,1.0,1.0,446.0901949996696,3.0,1.0,phase_1,,,,,,,,,,,,,blue,diamond
408.0,8.0,4.0,1.0,1.0,1.0,286.2267280002015,3.0,1.0,phase_1,,,,,,,,,,,,,blue,diamond
0.0,5.0,0.0,1.0,4.0,4.0,373.2495280000876,3.0,1.0,phase_1,,,,,,,,,,,,,cyan,hexagon
103.0,2.0,2.0,0.0,1.0,1.0,368.7749470000199,3.0,1.0,phase_1,,,,,,,,,,,,,magenta,cross
61.0,1.0,1.0,0.0,1.0,1.0,392.2448959997382,3.0,1.0,phase_1,,,,,,,,,,,,,orange,square
40.0,5.0,1.0,1.0,4.0,4.0,408.297174999916,3.0,1.0,phase_1,,,,,,,,,,,,,cyan,hexagon
398.0,4.0,4.0,0.0,3.0,3.0,456.6266629999518,3.0,1.0,phase_1,,,,,,,,,,,,,yellow,circle
118.0,6.0,2.0,1.0,3.0,3.0,334.5384780000131,3.0,1.0,phase_1,,,,,,,,,,,,,white,flipped triangle
205.0,7.0,3.0,1.0,2.0,2.0,302.7073569996901,3.0,1.0,phase_1,,,,,,,,,,,,,green,triangle
0.0,8.0,0.0,1.0,3.0,3.0,346.637204000217,3.0,1.0,phase_1,,,,,,,,,,,,,blue,diamond
43.0,1.0,1.0,0.0,1.0,1.0,448.427145000096,3.0,1.0,phase_1,,,,,,,,,,,,,orange,square
76.0,6.0,2.0,1.0,4.0,4.0,336.3947839998218,3.0,1.0,phase_1,,,,,,,,,,,,,white,flipped triangle
387.0,8.0,4.0,1.0,2.0,2.0,397.8136249997988,3.0,1.0,phase_1,,,,,,,,,,,,,blue,diamond
395.0,4.0,4.0,0.0,4.0,4.0,341.1864849999801,3.0,1.0,phase_1,,,,,,,,,,,,,yellow,circle
84.0,2.0,2.0,0.0,1.0,1.0,369.2745250000371,3.0,1.0,phase_1,,,,,,,,,,,,,magenta,cross
56.0,5.0,1.0,1.0,3.0,3.0,392.8657469996324,3.0,1.0,phase_1,,,,,,,,,,,,,cyan,hexagon
120.0,6.0,2.0,1.0,3.0,3.0,421.4220769999883,3.0,1.0,phase_1,,,,,,,,,,,,,white,flipped triangle
0.0,2.0,0.0,0.0,4.0,4.0,582.5782609999806,3.0,1.0,phase_1,,,,,,,,,,,,,magenta,cross
0.0,7.0,0.0,1.0,4.0,4.0,361.4141439998093,3.0,1.0,phase_1,,,,,,,,,,,,,green,triangle
217.0,3.0,3.0,0.0,2.0,2.0,400.5487710001034,3.0,1.0,phase_1,,,,,,,,,,,,,gray,I
38.0,1.0,1.0,0.0,3.0,3.0,358.1035260003773,3.0,1.0,phase_1,,,,,,,,,,,,,orange,square
414.0,8.0,4.0,1.0,3.0,3.0,332.9892990000189,3.0,1.0,phase_1,,,,,,,,,,,,,blue,diamond
0.0,2.0,0.0,0.0,1.0,1.0,483.4158240000761,3.0,1.0,phase_1,,,,,,,,,,,,,magenta,cross
423.0,8.0,4.0,1.0,4.0,4.0,347.5961079998342,3.0,1.0,phase_1,,,,,,,,,,,,,blue,diamond
49.0,5.0,1.0,1.0,1.0,1.0,451.5384129999802,3.0,1.0,phase_1,,,,,,,,,,,,,cyan,hexagon
0.0,3.0,0.0,0.0,3.0,3.0,360.0733739999668,3.0,1.0,phase_1,,,,,,,,,,,,,gray,I
0.0,4.0,0.0,0.0,3.0,3.0,364.2495519998192,3.0,1.0,phase_1,,,,,,,,,,,,,yellow,circle
0.0,3.0,0.0,0.0,4.0,4.0,386.7956210001466,3.0,1.0,phase_1,,,,,,,,,,,,,gray,I
68.0,1.0,1.0,0.0,2.0,2.0,325.4465370000616,3.0,1.0,phase_1,,,,,,,,,,,,,orange,square
108.0,6.0,2.0,1.0,4.0,4.0,376.8364689999544,3.0,1.0,phase_1,,,,,,,,,,,,,white,flipped triangle
205.0,3.0,3.0,0.0,4.0,4.0,322.5687210001524,3.0,1.0,phase_1,,,,,,,,,,,,,gray,I
116.0,2.0,2.0,0.0,4.0,4.0,358.4934519999478,3.0,1.0,phase_1,,,,,,,,,,,,,magenta,cross
175.0,3.0,3.0,0.0,2.0,2.0,349.0597719996913,3.0,1.0,phase_1,,,,,,,,,,,,,gray,I
84.0,6.0,2.0,1.0,2.0,2.0,378.5241059999862,3.0,1.0,phase_1,,,,,,,,,,,,,white,flipped triangle
396.0,4.0,4.0,0.0,4.0,4.0,336.3816169999154,3.0,1.0,phase_1,,,,,,,,,,,,,yellow,circle
407.0,8.0,4.0,1.0,1.0,1.0,395.8121400000891,3.0,1.0,phase_1,,,,,,,,,,,,,blue,diamond
28.0,5.0,1.0,1.0,4.0,4.0,414.4876149998708,3.0,1.0,phase_1,,,,,,,,,,,,,cyan,hexagon
0.0,3.0,0.0,0.0,3.0,3.0,403.7661059996935,3.0,1.0,phase_1,,,,,,,,,,,,,gray,I
27.0,1.0,1.0,0.0,1.0,1.0,354.0081540004394,4.0,1.0,phase_1,,,,,,,,,,,,,orange,square
0.0,2.0,0.0,0.0,1.0,1.0,308.029667000028,4.0,1.0,phase_1,,,,,,,,,,,,,magenta,cross
41.0,1.0,1.0,0.0,3.0,3.0,305.8157590003247,4.0,1.0,phase_1,,,,,,,,,,,,,orange,square
119.0,6.0,2.0,1.0,4.0,4.0,297.7071850000357,4.0,1.0,phase_1,,,,,,,,,,,,,white,flipped triangle
421.0,4.0,4.0,0.0,3.0,3.0,384.4376239999292,4.0,1.0,phase_1,,,,,,,,,,,,,yellow,circle
106.0,6.0,2.0,1.0,1.0,1.0,400.2964599999359,4.0,1.0,phase_1,,,,,,,,,,,,,white,flipped triangle
100.0,2.0,2.0,0.0,2.0,2.0,366.368398999839,4.0,1.0,phase_1,,,,,,,,,,,,,magenta,cross
93.0,2.0,2.0,0.0,3.0,3.0,345.2903990000777,4.0,1.0,phase_1,,,,,,,,,,,,,magenta,cross
223.0,7.0,3.0,1.0,2.0,2.0,287.2110270000121,4.0,1.0,phase_1,,,,,,,,,,,,,green,triangle
36.0,1.0,1.0,0.0,1.0,1.0,346.3309600001594,4.0,1.0,phase_1,,,,,,,,,,,,,orange,square
0.0,5.0,0.0,1.0,2.0,2.0,265.2584399997977,4.0,1.0,phase_1,,,,,,,,,,,,,cyan,hexagon
0.0,3.0,0.0,0.0,4.0,4.0,326.8267380003635,4.0,1.0,phase_1,,,,,,,,,,,,,gray,I
0.0,6.0,0.0,1.0,2.0,2.0,260.0827840001329,4.0,1.0,phase_1,,,,,,,,,,,,,white,flipped triangle
26.0,1.0,1.0,0.0,1.0,1.0,379.3842730001415,4.0,1.0,phase_1,,,,,,,,,,,,,orange,square
123.0,6.0,2.0,1.0,4.0,4.0,345.3013889998146,4.0,1.0,phase_1,,,,,,,,,,,,,white,flipped triangle
55.0,1.0,1.0,0.0,3.0,3.0,385.1727390001542,4.0,1.0,phase_1,,,,,,,,,,,,,orange,square
396.0,4.0,4.0,0.0,4.0,4.0,360.5317579999791,4.0,1.0,phase_1,,,,,,,,,,,,,yellow,circle
197.0,7.0,3.0,1.0,3.0,3.0,366.4140490000136,4.0,1.0,phase_1,,,,,,,,,,,,,green,triangle
73.0,5.0,1.0,1.0,2.0,2.0,308.746309000071,4.0,1.0,phase_1,,,,,,,,,,,,,cyan,hexagon
112.0,6.0,2.0,1.0,3.0,3.0,311.0324890003539,4.0,1.0,phase_1,,,,,,,,,,,,,white,flipped triangle
0.0,7.0,0.0,1.0,1.0,1.0,420.1161320002029,4.0,1.0,phase_1,,,,,,,,,,,,,green,triangle
189.0,7.0,3.0,1.0,4.0,4.0,281.5469749998556,4.0,1.0,phase_1,,,,,,,,,,,,,green,triangle
423.0,4.0,4.0,0.0,1.0,1.0,279.4258419999096,4.0,1.0,phase_1,,,,,,,,,,,,,yellow,circle
203.0,7.0,3.0,1.0,4.0,4.0,300.6785980001041,4.0,1.0,phase_1,,,,,,,,,,,,,green,triangle
69.0,1.0,1.0,0.0,2.0,2.0,305.1229060001788,4.0,1.0,phase_1,,,,,,,,,,,,,orange,square
49.0,5.0,1.0,1.0,1.0,1.0,429.8452460002409,4.0,1.0,phase_1,,,,,,,,,,,,,cyan,hexagon
43.0,5.0,1.0,1.0,4.0,4.0,369.5609530000183,4.0,1.0,phase_1,,,,,,,,,,,,,cyan,hexagon
415.0,4.0,4.0,0.0,2.0,2.0,294.7617190002347,4.0,1.0,phase_1,,,,,,,,,,,,,yellow,circle
123.0,6.0,2.0,1.0,3.0,3.0,328.298315000211,4.0,1.0,phase_1,,,,,,,,,,,,,white,flipped triangle
209.0,7.0,3.0,1.0,2.0,2.0,366.3040139999793,4.0,1.0,phase_1,,,,,,,,,,,,,green,triangle
108.0,2.0,2.0,0.0,1.0,1.0,425.8500569999341,4.0,1.0,phase_1,,,,,,,,,,,,,magenta,cross
387.0,8.0,4.0,1.0,3.0,3.0,362.5731959996301,4.0,1.0,phase_1,,,,,,,,,,,,,blue,diamond
51.0,5.0,1.0,1.0,2.0,2.0,309.570008999799,4.0,1.0,phase_1,,,,,,,,,,,,,cyan,hexagon
183.0,7.0,3.0,1.0,1.0,1.0,291.0114740002427,4.0,1.0,phase_1,,,,,,,,,,,,,green,triangle
120.0,2.0,2.0,0.0,3.0,3.0,338.1084790003115,4.0,1.0,phase_1,,,,,,,,,,,,,magenta,cross
221.0,3.0,3.0,0.0,4.0,4.0,324.0200319996802,4.0,1.0,phase_1,,,,,,,,,,,,,gray,I
0.0,8.0,0.0,1.0,1.0,1.0,351.2179819999801,4.0,1.0,phase_1,,,,,,,,,,,,,blue,diamond
0.0,8.0,0.0,1.0,4.0,4.0,386.6879869997319,4.0,1.0,phase_1,,,,,,,,,,,,,blue,diamond
0.0,3.0,0.0,0.0,1.0,1.0,355.1561730000685,4.0,1.0,phase_1,,,,,,,,,,,,,gray,I
196.0,3.0,3.0,0.0,1.0,1.0,408.0019580001135,4.0,2.0,phase_1,,,,,,,,,,,,,gray,I
0.0,4.0,0.0,0.0,1.0,1.0,450.0337129998115,4.0,1.0,phase_1,,,,,,,,,,,,,yellow,circle
0.0,1.0,0.0,0.0,1.0,1.0,401.9746459998714,4.0,1.0,phase_1,,,,,,,,,,,,,orange,square
0.0,8.0,0.0,1.0,1.0,1.0,374.3301589997827,4.0,1.0,phase_1,,,,,,,,,,,,,blue,diamond
68.0,1.0,1.0,0.0,4.0,4.0,341.242548000082,4.0,1.0,phase_1,,,,,,,,,,,,,orange,square
46.0,1.0,1.0,0.0,4.0,4.0,348.7063940001462,4.0,1.0,phase_1,,,,,,,,,,,,,orange,square
209.0,3.0,3.0,0.0,3.0,3.0,451.3245230000393,4.0,1.0,phase_1,,,,,,,,,,,,,gray,I
408.0,8.0,4.0,1.0,2.0,2.0,400.0499339999805,4.0,1.0,phase_1,,,,,,,,,,,,,blue,diamond
0.0,8.0,0.0,1.0,1.0,1.0,312.1311500003685,4.0,1.0,phase_1,,,,,,,,,,,,,blue,diamond
378.0,4.0,4.0,0.0,1.0,1.0,493.6445729999832,4.0,1.0,phase_1,,,,,,,,,,,,,yellow,circle
386.0,4.0,4.0,0.0,1.0,1.0,363.3265130001746,4.0,1.0,phase_1,,,,,,,,,,,,,yellow,circle
208.0,7.0,3.0,1.0,4.0,4.0,445.4634639996584,4.0,1.0,phase_1,,,,,,,,,,,,,green,triangle
118.0,2.0,2.0,0.0,2.0,2.0,481.1696819997451,4.0,1.0,phase_1,,,,,,,,,,,,,magenta,cross
423.0,8.0,4.0,1.0,4.0,4.0,366.3770640000621,4.0,1.0,phase_1,,,,,,,,,,,,,blue,diamond
83.0,2.0,2.0,0.0,4.0,4.0,377.8177730000607,4.0,1.0,phase_1,,,,,,,,,,,,,magenta,cross
0.0,3.0,0.0,0.0,3.0,3.0,407.0114950000061,4.0,1.0,phase_1,,,,,,,,,,,,,gray,I
28.0,5.0,1.0,1.0,4.0,4.0,391.8642809999255,4.0,1.0,phase_1,,,,,,,,,,,,,cyan,hexagon
207.0,7.0,3.0,1.0,1.0,1.0,412.3868470001071,4.0,1.0,phase_1,,,,,,,,,,,,,green,triangle
71.0,5.0,1.0,1.0,1.0,1.0,457.4242250000679,4.0,1.0,phase_1,,,,,,,,,,,,,cyan,hexagon
420.0,4.0,4.0,0.0,3.0,3.0,333.8158139999905,4.0,1.0,phase_1,,,,,,,,,,,,,yellow,circle
215.0,7.0,3.0,1.0,3.0,3.0,419.5120839999617,4.0,1.0,phase_1,,,,,,,,,,,,,green,triangle
190.0,3.0,3.0,0.0,1.0,1.0,437.2734419998778,4.0,1.0,phase_1,,,,,,,,,,,,,gray,I
0.0,8.0,0.0,1.0,4.0,4.0,366.4595939999344,4.0,1.0,phase_1,,,,,,,,,,,,,blue,diamond
218.0,3.0,3.0,0.0,3.0,3.0,473.7961599998925,4.0,1.0,phase_1,,,,,,,,,,,,,gray,I
396.0,8.0,4.0,1.0,2.0,2.0,483.0856140001742,4.0,1.0,phase_1,,,,,,,,,,,,,blue,diamond
417.0,8.0,4.0,1.0,3.0,3.0,426.9363159996828,4.0,1.0,phase_1,,,,,,,,,,,,,blue,diamond
0.0,7.0,0.0,1.0,2.0,2.0,494.2649750000782,4.0,1.0,phase_1,,,,,,,,,,,,,green,triangle
56.0,1.0,1.0,0.0,3.0,3.0,655.0458130000152,4.0,1.0,phase_1,,,,,,,,,,,,,orange,square
0.0,4.0,0.0,0.0,3.0,3.0,402.5403010000445,4.0,1.0,phase_1,,,,,,,,,,,,,yellow,circle
74.0,5.0,1.0,1.0,1.0,1.0,528.0472270001155,4.0,1.0,phase_1,,,,,,,,,,,,,cyan,hexagon
211.0,7.0,3.0,1.0,2.0,2.0,434.8431760004132,4.0,1.0,phase_1,,,,,,,,,,,,,green,triangle
376.0,8.0,4.0,1.0,3.0,3.0,433.1655180003508,4.0,1.0,phase_1,,,,,,,,,,,,,blue,diamond
183.0,3.0,3.0,0.0,1.0,1.0,417.2683679998954,4.0,1.0,phase_1,,,,,,,,,,,,,gray,I
399.0,4.0,4.0,0.0,2.0,2.0,373.9758830001847,4.0,1.0,phase_1,,,,,,,,,,,,,yellow,circle
0.0,6.0,0.0,1.0,1.0,1.0,418.9650520002033,4.0,1.0,phase_1,,,,,,,,,,,,,white,flipped triangle
415.0,8.0,4.0,1.0,2.0,2.0,409.8701309999342,4.0,1.0,phase_1,,,,,,,,,,,,,blue,diamond
37.0,1.0,1.0,0.0,3.0,3.0,421.3946129998476,4.0,1.0,phase_1,,,,,,,,,,,,,orange,square
35.0,5.0,1.0,1.0,3.0,3.0,486.1665419998644,4.0,1.0,phase_1,,,,,,,,,,,,,cyan,hexagon
225.0,7.0,3.0,1.0,4.0,4.0,452.0265500000278,4.0,1.0,phase_1,,,,,,,,,,,,,green,triangle
387.0,4.0,4.0,0.0,2.0,2.0,472.3662430001241,4.0,1.0,phase_1,,,,,,,,,,,,,yellow,circle
0.0,7.0,0.0,1.0,3.0,3.0,431.8999969996184,4.0,1.0,phase_1,,,,,,,,,,,,,green,triangle
193.0,3.0,3.0,0.0,2.0,2.0,388.8178050001443,4.0,1.0,phase_1,,,,,,,,,,,,,gray,I
63.0,5.0,1.0,1.0,2.0,2.0,356.8218579998756,4.0,1.0,phase_1,,,,,,,,,,,,,cyan,hexagon
176.0,3.0,3.0,0.0,4.0,4.0,350.7185079997725,4.0,1.0,phase_1,,,,,,,,,,,,,gray,I
407.0,8.0,4.0,1.0,1.0,1.0,396.6714429998319,4.0,1.0,phase_1,,,,,,,,,,,,,blue,diamond
77.0,2.0,2.0,0.0,1.0,1.0,479.2925929996272,4.0,1.0,phase_1,,,,,,,,,,,,,magenta,cross
424.0,8.0,4.0,1.0,4.0,4.0,589.8274979999769,4.0,1.0,phase_1,,,,,,,,,,,,,blue,diamond
183.0,7.0,3.0,1.0,2.0,2.0,347.1205710002323,4.0,1.0,phase_1,,,,,,,,,,,,,green,triangle
0.0,1.0,0.0,0.0,4.0,4.0,415.187412999785,4.0,1.0,phase_1,,,,,,,,,,,,,orange,square
101.0,6.0,2.0,1.0,1.0,1.0,367.6968099998703,4.0,1.0,phase_1,,,,,,,,,,,,,white,flipped triangle
225.0,3.0,3.0,0.0,3.0,3.0,399.2770570002903,4.0,1.0,phase_1,,,,,,,,,,,,,gray,I
183.0,3.0,3.0,0.0,4.0,4.0,372.3158310003782,4.0,1.0,phase_1,,,,,,,,,,,,,gray,I
203.0,7.0,3.0,1.0,3.0,3.0,425.8052899999711,4.0,1.0,phase_1,,,,,,,,,,,,,green,triangle
120.0,2.0,2.0,0.0,2.0,2.0,530.683296999996,4.0,1.0,phase_1,,,,,,,,,,,,,magenta,cross
208.0,3.0,3.0,0.0,3.0,3.0,345.652868000343,4.0,1.0,phase_1,,,,,,,,,,,,,gray,I
28.0,1.0,1.0,0.0,4.0,4.0,349.9763679997159,4.0,1.0,phase_1,,,,,,,,,,,,,orange,square
402.0,4.0,4.0,0.0,4.0,4.0,351.6387939998822,4.0,1.0,phase_1,,,,,,,,,,,,,yellow,circle
395.0,8.0,4.0,1.0,2.0,2.0,304.9185320001015,4.0,1.0,phase_1,,,,,,,,,,,,,blue,diamond
45.0,5.0,1.0,1.0,1.0,1.0,393.8043539997125,4.0,1.0,phase_1,,,,,,,,,,,,,cyan,hexagon
81.0,2.0,2.0,0.0,3.0,3.0,341.4490979998845,4.0,1.0,phase_1,,,,,,,,,,,,,magenta,cross
424.0,4.0,4.0,0.0,1.0,1.0,409.1408740000588,4.0,1.0,phase_1,,,,,,,,,,,,,yellow,circle
0.0,8.0,4.0,1.0,6.0,6.0,448.1671779999487,1.0,1.0,phase_2,go,250.0,250.0,1.0,,,,,,,,,blue,diamond
0.0,7.0,3.0,1.0,5.0,0.0,0.0,1.0,1.0,phase_2,stop,250.0,250.0,4.0,,,,,,,,,green,triangle
0.0,7.0,3.0,1.0,6.0,6.0,557.4101979996158,1.0,1.0,phase_2,go,300.0,250.0,1.0,,,,,,,,,green,triangle
0.0,8.0,4.0,1.0,6.0,0.0,0.0,1.0,1.0,phase_2,stop,300.0,250.0,4.0,,,,,,,,,blue,diamond
0.0,1.0,1.0,0.0,6.0,6.0,703.4293819997401,1.0,1.0,phase_2,go,300.0,300.0,1.0,,,,,,,,,orange,square
0.0,8.0,4.0,1.0,6.0,0.0,0.0,1.0,1.0,phase_2,stop,300.0,300.0,4.0,,,,,,,,,blue,diamond
0.0,4.0,4.0,0.0,5.0,5.0,781.2280900002406,1.0,1.0,phase_2,go,300.0,350.0,1.0,,,,,,,,,yellow,circle
0.0,1.0,1.0,0.0,5.0,5.0,1130.8258320000275,1.0,1.0,phase_2,go,300.0,350.0,1.0,,,,,,,,,orange,square
0.0,5.0,1.0,1.0,5.0,5.0,1185.5607050001709,1.0,1.0,phase_2,go,300.0,350.0,1.0,,,,,,,,,cyan,hexagon
0.0,4.0,4.0,0.0,6.0,6.0,1073.731740000312,1.0,1.0,phase_2,go,300.0,350.0,1.0,,,,,,,,,yellow,circle
0.0,6.0,2.0,1.0,6.0,0.0,0.0,1.0,1.0,phase_2,stop,300.0,350.0,4.0,,,,,,,,,white,flipped triangle
0.0,4.0,4.0,0.0,5.0,5.0,782.7932059999512,1.0,1.0,phase_2,go,300.0,400.0,1.0,,,,,,,,,yellow,circle
0.0,6.0,2.0,1.0,5.0,0.0,0.0,1.0,1.0,phase_2,stop,300.0,400.0,4.0,,,,,,,,,white,flipped triangle
0.0,1.0,1.0,0.0,6.0,6.0,489.3661689998225,1.0,1.0,phase_2,go,350.0,400.0,1.0,,,,,,,,,orange,square
0.0,4.0,4.0,0.0,5.0,5.0,919.0715480003746,1.0,1.0,phase_2,go,350.0,400.0,1.0,,,,,,,,,yellow,circle
0.0,8.0,4.0,1.0,6.0,0.0,0.0,1.0,1.0,phase_2,stop,350.0,400.0,4.0,,,,,,,,,blue,diamond
0.0,5.0,1.0,1.0,6.0,6.0,575.4741229998217,1.0,1.0,phase_2,stop,350.0,450.0,3.0,,,,,,,,,cyan,hexagon
0.0,2.0,2.0,0.0,6.0,6.0,921.2365560001672,1.0,1.0,phase_2,go,350.0,400.0,1.0,,,,,,,,,magenta,cross
0.0,6.0,2.0,1.0,6.0,0.0,0.0,1.0,1.0,phase_2,stop,350.0,400.0,4.0,,,,,,,,,white,flipped triangle
0.0,5.0,1.0,1.0,5.0,0.0,0.0,1.0,1.0,phase_2,stop,350.0,450.0,4.0,,,,,,,,,cyan,hexagon
0.0,2.0,2.0,0.0,5.0,5.0,843.2018600001356,1.0,1.0,phase_2,go,400.0,450.0,1.0,,,,,,,,,magenta,cross
0.0,7.0,3.0,1.0,5.0,0.0,0.0,1.0,1.0,phase_2,stop,400.0,450.0,4.0,,,,,,,,,green,triangle
0.0,5.0,1.0,1.0,6.0,0.0,0.0,1.0,1.0,phase_2,stop,450.0,450.0,4.0,,,,,,,,,cyan,hexagon
0.0,1.0,1.0,0.0,6.0,6.0,872.0980049997706,1.0,1.0,phase_2,go,450.0,500.0,1.0,,,,,,,,,orange,square
0.0,7.0,3.0,1.0,5.0,0.0,0.0,1.0,1.0,phase_2,stop,450.0,500.0,4.0,,,,,,,,,green,triangle
0.0,1.0,1.0,0.0,6.0,6.0,923.3211420000772,1.0,1.0,phase_2,go,500.0,500.0,1.0,,,,,,,,,orange,square
0.0,4.0,4.0,0.0,5.0,5.0,786.1695470000996,1.0,1.0,phase_2,go,500.0,500.0,1.0,,,,,,,,,yellow,circle
0.0,3.0,3.0,0.0,6.0,6.0,1011.9686090001778,1.0,1.0,phase_2,go,500.0,500.0,1.0,,,,,,,,,gray,I
0.0,1.0,1.0,0.0,5.0,5.0,789.0104559996871,1.0,1.0,phase_2,go,500.0,500.0,1.0,,,,,,,,,orange,square
0.0,3.0,3.0,0.0,6.0,6.0,910.3556400000344,1.0,1.0,phase_2,go,500.0,500.0,1.0,,,,,,,,,gray,I
0.0,6.0,2.0,1.0,5.0,5.0,1218.6369990004096,1.0,1.0,phase_2,go,500.0,500.0,1.0,,,,,,,,,white,flipped triangle
0.0,6.0,2.0,1.0,6.0,0.0,0.0,1.0,1.0,phase_2,stop,500.0,500.0,4.0,,,,,,,,,white,flipped triangle
0.0,6.0,2.0,1.0,5.0,0.0,0.0,1.0,1.0,phase_2,stop,500.0,550.0,4.0,,,,,,,,,white,flipped triangle
0.0,7.0,3.0,1.0,6.0,0.0,0.0,1.0,1.0,phase_2,stop,550.0,550.0,4.0,,,,,,,,,green,triangle
0.0,1.0,1.0,0.0,5.0,5.0,960.021622000113,1.0,1.0,phase_2,go,550.0,600.0,1.0,,,,,,,,,orange,square
0.0,2.0,2.0,0.0,6.0,6.0,1083.7128080002003,1.0,1.0,phase_2,go,550.0,600.0,1.0,,,,,,,,,magenta,cross
0.0,2.0,2.0,0.0,5.0,5.0,1035.7637590000195,2.0,1.0,phase_2,go,550.0,600.0,1.0,,,,,,,,,magenta,cross
0.0,2.0,2.0,0.0,5.0,5.0,398.7557170003128,2.0,1.0,phase_2,go,550.0,600.0,1.0,,,,,,,,,magenta,cross
0.0,6.0,2.0,1.0,6.0,6.0,433.5908349999045,2.0,1.0,phase_2,go,550.0,600.0,1.0,,,,,,,,,white,flipped triangle
0.0,7.0,3.0,1.0,5.0,5.0,464.4016669999473,2.0,1.0,phase_2,stop,550.0,600.0,3.0,,,,,,,,,green,triangle
0.0,8.0,4.0,1.0,6.0,0.0,0.0,2.0,1.0,phase_2,stop,500.0,600.0,4.0,,,,,,,,,blue,diamond
0.0,3.0,3.0,0.0,5.0,5.0,809.0352070003064,2.0,1.0,phase_2,go,500.0,650.0,1.0,,,,,,,,,gray,I
0.0,5.0,1.0,1.0,5.0,5.0,598.3111759996973,2.0,1.0,phase_2,stop,500.0,650.0,3.0,,,,,,,,,cyan,hexagon
0.0,8.0,4.0,1.0,5.0,5.0,816.4368040002046,2.0,1.0,phase_2,go,450.0,650.0,1.0,,,,,,,,,blue,diamond
0.0,5.0,1.0,1.0,5.0,5.0,900.2084280000417,2.0,1.0,phase_2,go,450.0,650.0,1.0,,,,,,,,,cyan,hexagon
0.0,6.0,2.0,1.0,6.0,6.0,776.5316360000725,2.0,1.0,phase_2,stop,450.0,650.0,3.0,,,,,,,,,white,flipped triangle
0.0,5.0,1.0,1.0,6.0,6.0,748.2230830000844,2.0,1.0,phase_2,stop,450.0,600.0,3.0,,,,,,,,,cyan,hexagon
0.0,1.0,1.0,0.0,6.0,6.0,963.2829249999304,2.0,1.0,phase_2,go,450.0,550.0,1.0,,,,,,,,,orange,square
0.0,6.0,2.0,1.0,5.0,0.0,0.0,2.0,1.0,phase_2,stop,450.0,550.0,4.0,,,,,,,,,white,flipped triangle
0.0,7.0,3.0,1.0,6.0,6.0,1040.8633400002143,2.0,1.0,phase_2,go,500.0,550.0,1.0,,,,,,,,,green,triangle
0.0,4.0,4.0,0.0,5.0,5.0,801.1639159999504,2.0,1.0,phase_2,go,500.0,550.0,1.0,,,,,,,,,yellow,circle
0.0,1.0,1.0,0.0,5.0,5.0,796.6851219998716,2.0,1.0,phase_2,go,500.0,550.0,1.0,,,,,,,,,orange,square
0.0,5.0,1.0,1.0,5.0,0.0,0.0,2.0,1.0,phase_2,stop,500.0,550.0,4.0,,,,,,,,,cyan,hexagon
0.0,1.0,1.0,0.0,5.0,5.0,893.7921040001129,2.0,1.0,phase_2,go,550.0,550.0,1.0,,,,,,,,,orange,square
0.0,4.0,4.0,0.0,5.0,5.0,891.7392119997203,2.0,1.0,phase_2,go,550.0,550.0,1.0,,,,,,,,,yellow,circle
0.0,4.0,4.0,0.0,6.0,6.0,1066.949424000086,2.0,1.0,phase_2,go,550.0,550.0,1.0,,,,,,,,,yellow,circle
0.0,1.0,1.0,0.0,5.0,5.0,972.5960000000669,2.0,1.0,phase_2,go,550.0,550.0,1.0,,,,,,,,,orange,square
0.0,2.0,2.0,0.0,5.0,5.0,888.8370679997024,2.0,1.0,phase_2,go,550.0,550.0,1.0,,,,,,,,,magenta,cross
0.0,3.0,3.0,0.0,5.0,5.0,971.7911289999392,2.0,1.0,phase_2,go,550.0,550.0,1.0,,,,,,,,,gray,I
0.0,1.0,1.0,0.0,5.0,5.0,865.7099120000566,2.0,1.0,phase_2,go,550.0,550.0,1.0,,,,,,,,,orange,square
0.0,2.0,2.0,0.0,6.0,6.0,1074.6498250000514,2.0,1.0,phase_2,go,550.0,550.0,1.0,,,,,,,,,magenta,cross
0.0,7.0,3.0,1.0,6.0,0.0,0.0,2.0,1.0,phase_2,stop,550.0,550.0,4.0,,,,,,,,,green,triangle
0.0,6.0,2.0,1.0,6.0,6.0,1008.3035560001008,2.0,1.0,phase_2,go,550.0,600.0,1.0,,,,,,,,,white,flipped triangle
0.0,3.0,3.0,0.0,6.0,6.0,837.4340450000091,2.0,1.0,phase_2,go,550.0,600.0,1.0,,,,,,,,,gray,I
0.0,4.0,4.0,0.0,6.0,6.0,902.5712659999954,2.0,1.0,phase_2,go,550.0,600.0,1.0,,,,,,,,,yellow,circle
0.0,5.0,1.0,1.0,6.0,0.0,0.0,2.0,1.0,phase_2,stop,550.0,600.0,4.0,,,,,,,,,cyan,hexagon
0.0,5.0,1.0,1.0,5.0,5.0,373.2812610001019,2.0,1.0,phase_2,stop,550.0,650.0,3.0,,,,,,,,,cyan,hexagon
0.0,3.0,3.0,0.0,5.0,5.0,900.9664600002908,2.0,1.0,phase_2,go,500.0,650.0,1.0,,,,,,,,,gray,I
0.0,2.0,2.0,0.0,6.0,6.0,1096.611376000055,2.0,1.0,phase_2,go,500.0,650.0,1.0,,,,,,,,,magenta,cross
0.0,2.0,2.0,0.0,6.0,6.0,1064.4989279999209,2.0,1.0,phase_2,go,500.0,650.0,1.0,,,,,,,,,magenta,cross
0.0,1.0,1.0,0.0,5.0,5.0,980.3370689996882,2.0,1.0,phase_2,go,500.0,650.0,1.0,,,,,,,,,orange,square
0.0,7.0,3.0,1.0,5.0,0.0,0.0,2.0,1.0,phase_2,stop,500.0,650.0,4.0,,,,,,,,,green,triangle
0.0,6.0,2.0,1.0,5.0,5.0,843.9091989998815,3.0,1.0,phase_2,stop,550.0,650.0,3.0,,,,,,,,,white,flipped triangle
0.0,6.0,2.0,1.0,6.0,6.0,620.3802979998727,3.0,1.0,phase_2,stop,500.0,650.0,3.0,,,,,,,,,white,flipped triangle
0.0,3.0,3.0,0.0,5.0,5.0,536.2847339997643,3.0,1.0,phase_2,go,500.0,600.0,1.0,,,,,,,,,gray,I
0.0,2.0,2.0,0.0,5.0,5.0,343.605354000374,3.0,1.0,phase_2,go,500.0,600.0,1.0,,,,,,,,,magenta,cross
0.0,1.0,1.0,0.0,6.0,6.0,326.8651700000191,3.0,1.0,phase_2,go,500.0,600.0,1.0,,,,,,,,,orange,square
0.0,4.0,4.0,0.0,5.0,5.0,693.4744740001406,3.0,1.0,phase_2,go,500.0,600.0,1.0,,,,,,,,,yellow,circle
0.0,7.0,3.0,1.0,6.0,6.0,272.4908720001622,3.0,1.0,phase_2,go,500.0,600.0,1.0,,,,,,,,,green,triangle
0.0,4.0,4.0,0.0,6.0,6.0,311.411777000103,3.0,1.0,phase_2,go,500.0,600.0,1.0,,,,,,,,,yellow,circle
0.0,1.0,1.0,0.0,6.0,6.0,357.9082049996032,3.0,1.0,phase_2,go,500.0,600.0,1.0,,,,,,,,,orange,square
0.0,4.0,4.0,0.0,6.0,6.0,315.166624000085,3.0,1.0,phase_2,go,500.0,600.0,1.0,,,,,,,,,yellow,circle
0.0,5.0,1.0,1.0,6.0,6.0,343.2644910003546,3.0,1.0,phase_2,stop,500.0,600.0,3.0,,,,,,,,,cyan,hexagon
0.0,3.0,3.0,0.0,6.0,6.0,723.9532580001651,3.0,1.0,phase_2,go,500.0,550.0,1.0,,,,,,,,,gray,I
0.0,4.0,4.0,0.0,6.0,6.0,673.1861859998389,3.0,1.0,phase_2,go,500.0,550.0,1.0,,,,,,,,,yellow,circle
0.0,6.0,2.0,1.0,5.0,0.0,0.0,3.0,1.0,phase_2,stop,500.0,550.0,4.0,,,,,,,,,white,flipped triangle
0.0,5.0,1.0,1.0,5.0,5.0,695.8719340000243,3.0,1.0,phase_2,go,550.0,550.0,1.0,,,,,,,,,cyan,hexagon
0.0,3.0,3.0,0.0,5.0,5.0,403.5070150002866,3.0,1.0,phase_2,go,550.0,550.0,1.0,,,,,,,,,gray,I
0.0,3.0,3.0,0.0,6.0,6.0,423.1997639999463,3.0,1.0,phase_2,go,550.0,550.0,1.0,,,,,,,,,gray,I
0.0,3.0,3.0,0.0,5.0,5.0,738.0751989999226,3.0,1.0,phase_2,go,550.0,550.0,1.0,,,,,,,,,gray,I
0.0,5.0,1.0,1.0,6.0,0.0,0.0,3.0,1.0,phase_2,stop,550.0,550.0,4.0,,,,,,,,,cyan,hexagon
0.0,6.0,2.0,1.0,5.0,5.0,526.196968000022,3.0,1.0,phase_2,stop,550.0,600.0,3.0,,,,,,,,,white,flipped triangle
0.0,2.0,2.0,0.0,6.0,6.0,336.140737000278,3.0,1.0,phase_2,go,500.0,600.0,1.0,,,,,,,,,magenta,cross
0.0,5.0,1.0,1.0,6.0,6.0,400.4016889998638,3.0,1.0,phase_2,stop,500.0,600.0,3.0,,,,,,,,,cyan,hexagon
0.0,4.0,4.0,0.0,5.0,5.0,557.8418640002383,3.0,1.0,phase_2,go,500.0,550.0,1.0,,,,,,,,,yellow,circle
0.0,4.0,4.0,0.0,5.0,5.0,513.7401649999447,3.0,1.0,phase_2,go,500.0,550.0,1.0,,,,,,,,,yellow,circle
0.0,6.0,2.0,1.0,6.0,6.0,467.831345000377,3.0,1.0,phase_2,go,500.0,550.0,1.0,,,,,,,,,white,flipped triangle
0.0,2.0,2.0,0.0,5.0,5.0,736.2738120000358,3.0,1.0,phase_2,go,500.0,550.0,1.0,,,,,,,,,magenta,cross
0.0,5.0,1.0,1.0,6.0,6.0,274.3810419997317,3.0,1.0,phase_2,stop,500.0,550.0,3.0,,,,,,,,,cyan,hexagon
0.0,3.0,3.0,0.0,6.0,6.0,498.4961179998208,3.0,1.0,phase_2,go,500.0,500.0,1.0,,,,,,,,,gray,I
0.0,7.0,3.0,1.0,5.0,5.0,646.1426730002131,3.0,1.0,phase_2,stop,500.0,500.0,3.0,,,,,,,,,green,triangle
0.0,4.0,4.0,0.0,6.0,6.0,451.0619699999552,3.0,1.0,phase_2,go,450.0,500.0,1.0,,,,,,,,,yellow,circle
0.0,8.0,4.0,1.0,5.0,0.0,0.0,3.0,1.0,phase_2,stop,450.0,500.0,4.0,,,,,,,,,blue,diamond
0.0,6.0,2.0,1.0,5.0,5.0,410.7569759999023,3.0,1.0,phase_2,go,500.0,500.0,1.0,,,,,,,,,white,flipped triangle
0.0,3.0,3.0,0.0,6.0,6.0,781.4195169999039,3.0,1.0,phase_2,go,500.0,500.0,1.0,,,,,,,,,gray,I
0.0,1.0,1.0,0.0,6.0,6.0,721.8865690001621,3.0,1.0,phase_2,go,500.0,500.0,1.0,,,,,,,,,orange,square
0.0,1.0,1.0,0.0,6.0,6.0,757.1411359999729,3.0,1.0,phase_2,go,500.0,500.0,1.0,,,,,,,,,orange,square
0.0,7.0,3.0,1.0,6.0,6.0,547.5931559999481,3.0,1.0,phase_2,stop,500.0,500.0,3.0,,,,,,,,,green,triangle
0.0,2.0,2.0,0.0,5.0,5.0,996.5905569997632,4.0,1.0,phase_2,go,500.0,450.0,1.0,,,,,,,,,magenta,cross
0.0,5.0,1.0,1.0,5.0,5.0,371.613220999734,4.0,1.0,phase_2,stop,500.0,450.0,3.0,,,,,,,,,cyan,hexagon
0.0,8.0,4.0,1.0,6.0,6.0,255.03824499992328,4.0,1.0,phase_2,stop,450.0,450.0,3.0,,,,,,,,,blue,diamond
0.0,7.0,3.0,1.0,6.0,6.0,462.8232820000448,4.0,1.0,phase_2,stop,450.0,400.0,3.0,,,,,,,,,green,triangle
0.0,3.0,3.0,0.0,5.0,5.0,263.1693710000036,4.0,1.0,phase_2,go,450.0,350.0,1.0,,,,,,,,,gray,I
0.0,6.0,2.0,1.0,5.0,5.0,372.801261999939,4.0,1.0,phase_2,stop,450.0,350.0,3.0,,,,,,,,,white,flipped triangle
0.0,8.0,4.0,1.0,6.0,6.0,268.7418660002549,4.0,1.0,phase_2,stop,400.0,350.0,3.0,,,,,,,,,blue,diamond
0.0,2.0,2.0,0.0,6.0,6.0,681.3147770003525,4.0,1.0,phase_2,go,400.0,300.0,1.0,,,,,,,,,magenta,cross
0.0,3.0,3.0,0.0,6.0,6.0,551.1041919999116,4.0,1.0,phase_2,go,400.0,300.0,1.0,,,,,,,,,gray,I
0.0,5.0,1.0,1.0,6.0,6.0,426.8671680001716,4.0,1.0,phase_2,go,400.0,300.0,1.0,,,,,,,,,cyan,hexagon
0.0,4.0,4.0,0.0,6.0,6.0,609.0276959998846,4.0,1.0,phase_2,go,400.0,300.0,1.0,,,,,,,,,yellow,circle
0.0,4.0,4.0,0.0,6.0,6.0,589.0106689998902,4.0,1.0,phase_2,go,400.0,300.0,1.0,,,,,,,,,yellow,circle
0.0,1.0,1.0,0.0,5.0,5.0,659.8886309998306,4.0,1.0,phase_2,go,400.0,300.0,1.0,,,,,,,,,orange,square
0.0,5.0,1.0,1.0,5.0,5.0,584.6294540001509,4.0,1.0,phase_2,go,400.0,300.0,1.0,,,,,,,,,cyan,hexagon
0.0,2.0,2.0,0.0,5.0,5.0,363.3489339999869,4.0,1.0,phase_2,go,400.0,300.0,1.0,,,,,,,,,magenta,cross
0.0,2.0,2.0,0.0,5.0,5.0,307.0254700000987,4.0,1.0,phase_2,go,400.0,300.0,1.0,,,,,,,,,magenta,cross
0.0,7.0,3.0,1.0,6.0,6.0,283.0441470000551,4.0,1.0,phase_2,stop,400.0,300.0,3.0,,,,,,,,,green,triangle
0.0,5.0,1.0,1.0,5.0,5.0,222.2030450002421,4.0,1.0,phase_2,stop,400.0,250.0,3.0,,,,,,,,,cyan,hexagon
0.0,6.0,2.0,1.0,5.0,5.0,391.1359580001772,4.0,1.0,phase_2,stop,350.0,250.0,3.0,,,,,,,,,white,flipped triangle
0.0,6.0,2.0,1.0,5.0,5.0,706.403737999608,4.0,1.0,phase_2,go,300.0,250.0,1.0,,,,,,,,,white,flipped triangle
0.0,8.0,4.0,1.0,5.0,5.0,655.0201599998218,4.0,1.0,phase_2,go,300.0,250.0,1.0,,,,,,,,,blue,diamond
0.0,2.0,2.0,0.0,6.0,6.0,322.0421710002483,4.0,1.0,phase_2,go,300.0,250.0,1.0,,,,,,,,,magenta,cross
0.0,7.0,3.0,1.0,5.0,5.0,334.0370960004293,4.0,1.0,phase_2,stop,300.0,250.0,3.0,,,,,,,,,green,triangle
0.0,2.0,2.0,0.0,6.0,6.0,252.6297579997845,4.0,1.0,phase_2,go,250.0,250.0,1.0,,,,,,,,,magenta,cross
0.0,8.0,4.0,1.0,6.0,0.0,0.0,4.0,1.0,phase_2,stop,250.0,250.0,4.0,,,,,,,,,blue,diamond
0.0,1.0,1.0,0.0,5.0,5.0,825.3485370000817,4.0,1.0,phase_2,go,250.0,300.0,1.0,,,,,,,,,orange,square
0.0,6.0,2.0,1.0,6.0,0.0,0.0,4.0,1.0,phase_2,stop,250.0,300.0,4.0,,,,,,,,,white,flipped triangle
0.0,8.0,4.0,1.0,6.0,6.0,664.8075399998561,4.0,1.0,phase_2,go,250.0,350.0,1.0,,,,,,,,,blue,diamond
0.0,7.0,3.0,1.0,6.0,0.0,0.0,4.0,1.0,phase_2,stop,250.0,350.0,4.0,,,,,,,,,green,triangle
0.0,8.0,4.0,1.0,5.0,0.0,0.0,4.0,1.0,phase_2,stop,250.0,400.0,4.0,,,,,,,,,blue,diamond
0.0,7.0,3.0,1.0,6.0,6.0,686.564621999878,4.0,1.0,phase_2,go,300.0,400.0,1.0,,,,,,,,,green,triangle
0.0,6.0,2.0,1.0,5.0,5.0,448.80209799976,4.0,1.0,phase_2,go,300.0,400.0,1.0,,,,,,,,,white,flipped triangle
0.0,8.0,4.0,1.0,5.0,5.0,539.0576589998091,4.0,1.0,phase_2,go,300.0,400.0,1.0,,,,,,,,,blue,diamond
0.0,8.0,4.0,1.0,6.0,6.0,460.2800899997419,4.0,1.0,phase_2,stop,300.0,400.0,3.0,,,,,,,,,blue,diamond
0.0,2.0,2.0,0.0,6.0,6.0,386.3448999995853,4.0,1.0,phase_2,go,300.0,350.0,1.0,,,,,,,,,magenta,cross
0.0,1.0,1.0,0.0,5.0,5.0,396.0063620002074,4.0,1.0,phase_2,go,300.0,350.0,1.0,,,,,,,,,orange,square
0.0,7.0,3.0,1.0,5.0,5.0,1243.4455020002133,5.0,1.0,phase_2,stop,300.0,350.0,3.0,,,,,,,,,green,triangle
0.0,7.0,3.0,1.0,5.0,5.0,326.629844999843,5.0,1.0,phase_2,stop,250.0,350.0,3.0,,,,,,,,,green,triangle
0.0,3.0,3.0,0.0,5.0,5.0,427.4679850000211,5.0,1.0,phase_2,go,200.0,350.0,1.0,,,,,,,,,gray,I
0.0,5.0,1.0,1.0,6.0,0.0,0.0,5.0,1.0,phase_2,stop,200.0,350.0,4.0,,,,,,,,,cyan,hexagon
0.0,5.0,1.0,1.0,5.0,5.0,362.672472000213,5.0,1.0,phase_2,stop,200.0,400.0,3.0,,,,,,,,,cyan,hexagon
0.0,2.0,2.0,0.0,5.0,5.0,510.3925810003602,5.0,1.0,phase_2,go,150.0,400.0,1.0,,,,,,,,,magenta,cross
0.0,6.0,2.0,1.0,6.0,6.0,286.6141119998246,5.0,1.0,phase_2,stop,150.0,400.0,3.0,,,,,,,,,white,flipped triangle
0.0,7.0,3.0,1.0,6.0,6.0,537.4513009996917,5.0,1.0,phase_2,go,150.0,350.0,1.0,,,,,,,,,green,triangle
0.0,3.0,3.0,0.0,5.0,5.0,539.6324610001102,5.0,1.0,phase_2,go,150.0,350.0,1.0,,,,,,,,,gray,I
0.0,6.0,2.0,1.0,6.0,6.0,274.4002879999243,5.0,1.0,phase_2,go,150.0,350.0,1.0,,,,,,,,,white,flipped triangle
0.0,4.0,4.0,0.0,5.0,5.0,381.7261960002724,5.0,1.0,phase_2,go,150.0,350.0,1.0,,,,,,,,,yellow,circle
0.0,3.0,3.0,0.0,6.0,6.0,285.5363949997809,5.0,1.0,phase_2,go,150.0,350.0,1.0,,,,,,,,,gray,I
0.0,5.0,1.0,1.0,5.0,5.0,293.8145569996777,5.0,1.0,phase_2,go,150.0,350.0,1.0,,,,,,,,,cyan,hexagon
0.0,7.0,3.0,1.0,6.0,6.0,305.4272710000987,5.0,1.0,phase_2,go,150.0,350.0,1.0,,,,,,,,,green,triangle
0.0,8.0,4.0,1.0,5.0,5.0,319.3078579997745,5.0,1.0,phase_2,go,150.0,350.0,1.0,,,,,,,,,blue,diamond
0.0,6.0,2.0,1.0,5.0,0.0,0.0,5.0,1.0,phase_2,stop,150.0,350.0,4.0,,,,,,,,,white,flipped triangle
0.0,8.0,4.0,1.0,5.0,0.0,0.0,5.0,1.0,phase_2,stop,200.0,350.0,4.0,,,,,,,,,blue,diamond
0.0,1.0,1.0,0.0,5.0,5.0,533.8865070002612,5.0,1.0,phase_2,go,250.0,350.0,1.0,,,,,,,,,orange,square
0.0,8.0,4.0,1.0,6.0,6.0,268.5791320000135,5.0,1.0,phase_2,stop,250.0,350.0,3.0,,,,,,,,,blue,diamond
0.0,6.0,2.0,1.0,5.0,0.0,0.0,5.0,1.0,phase_2,stop,250.0,300.0,4.0,,,,,,,,,white,flipped triangle
0.0,4.0,4.0,0.0,6.0,6.0,357.1898620002685,5.0,1.0,phase_2,go,300.0,300.0,1.0,,,,,,,,,yellow,circle
0.0,8.0,4.0,1.0,5.0,0.0,0.0,5.0,1.0,phase_2,stop,300.0,300.0,4.0,,,,,,,,,blue,diamond
0.0,7.0,3.0,1.0,6.0,6.0,522.6035730001968,5.0,1.0,phase_2,go,350.0,300.0,1.0,,,,,,,,,green,triangle
0.0,6.0,2.0,1.0,6.0,6.0,341.5722549998463,5.0,1.0,phase_2,go,350.0,300.0,1.0,,,,,,,,,white,flipped triangle
0.0,3.0,3.0,0.0,5.0,5.0,352.5212680001459,5.0,1.0,phase_2,go,350.0,300.0,1.0,,,,,,,,,gray,I
0.0,3.0,3.0,0.0,6.0,6.0,282.6130409998768,5.0,1.0,phase_2,go,350.0,300.0,1.0,,,,,,,,,gray,I
0.0,8.0,4.0,1.0,5.0,0.0,0.0,5.0,1.0,phase_2,stop,350.0,300.0,4.0,,,,,,,,,blue,diamond
0.0,6.0,2.0,1.0,5.0,0.0,0.0,5.0,1.0,phase_2,stop,400.0,300.0,4.0,,,,,,,,,white,flipped triangle
0.0,5.0,1.0,1.0,5.0,0.0,0.0,5.0,1.0,phase_2,stop,450.0,300.0,4.0,,,,,,,,,cyan,hexagon
0.0,4.0,4.0,0.0,5.0,5.0,644.1112699999394,5.0,1.0,phase_2,go,500.0,300.0,1.0,,,,,,,,,yellow,circle
0.0,4.0,4.0,0.0,5.0,5.0,330.4978440000923,5.0,1.0,phase_2,go,500.0,300.0,1.0,,,,,,,,,yellow,circle
0.0,1.0,1.0,0.0,5.0,5.0,303.4476749999157,5.0,1.0,phase_2,go,500.0,300.0,1.0,,,,,,,,,orange,square
0.0,1.0,1.0,0.0,6.0,6.0,422.7220429997942,5.0,1.0,phase_2,go,500.0,300.0,1.0,,,,,,,,,orange,square
0.0,3.0,3.0,0.0,5.0,5.0,329.0824609998708,5.0,1.0,phase_2,go,500.0,300.0,1.0,,,,,,,,,gray,I
0.0,2.0,2.0,0.0,6.0,6.0,331.3152830000945,5.0,1.0,phase_2,go,500.0,300.0,1.0,,,,,,,,,magenta,cross
0.0,1.0,1.0,0.0,5.0,5.0,638.0897579997509,5.0,1.0,phase_2,go,500.0,300.0,1.0,,,,,,,,,orange,square
0.0,7.0,3.0,1.0,5.0,0.0,0.0,6.0,1.0,phase_2,stop,500.0,300.0,4.0,,,,,,,,,green,triangle
0.0,8.0,4.0,1.0,5.0,5.0,582.1741679997103,6.0,1.0,phase_2,stop,550.0,300.0,3.0,,,,,,,,,blue,diamond
0.0,1.0,1.0,0.0,5.0,5.0,601.4273450000474,6.0,1.0,phase_2,go,500.0,300.0,1.0,,,,,,,,,orange,square
0.0,2.0,2.0,0.0,6.0,6.0,371.2424319996898,6.0,1.0,phase_2,go,500.0,300.0,1.0,,,,,,,,,magenta,cross
0.0,5.0,1.0,1.0,6.0,0.0,0.0,6.0,1.0,phase_2,stop,500.0,300.0,4.0,,,,,,,,,cyan,hexagon
0.0,3.0,3.0,0.0,6.0,6.0,581.6053690000444,6.0,1.0,phase_2,go,500.0,350.0,1.0,,,,,,,,,gray,I
0.0,8.0,4.0,1.0,5.0,5.0,580.7712959999662,6.0,1.0,phase_2,stop,500.0,350.0,3.0,,,,,,,,,blue,diamond
0.0,8.0,4.0,1.0,5.0,0.0,0.0,6.0,1.0,phase_2,stop,450.0,350.0,4.0,,,,,,,,,blue,diamond
0.0,2.0,2.0,0.0,5.0,5.0,581.7974880001202,6.0,1.0,phase_2,go,500.0,350.0,1.0,,,,,,,,,magenta,cross
0.0,1.0,1.0,0.0,5.0,5.0,689.3787189997056,6.0,1.0,phase_2,go,500.0,350.0,1.0,,,,,,,,,orange,square
0.0,1.0,1.0,0.0,6.0,6.0,649.9558810000963,6.0,1.0,phase_2,go,500.0,350.0,1.0,,,,,,,,,orange,square
0.0,2.0,2.0,0.0,5.0,5.0,674.4568489998528,6.0,1.0,phase_2,go,500.0,350.0,1.0,,,,,,,,,magenta,cross
0.0,3.0,3.0,0.0,5.0,5.0,803.0777339999986,6.0,1.0,phase_2,go,500.0,350.0,1.0,,,,,,,,,gray,I
0.0,3.0,3.0,0.0,6.0,6.0,690.5468179998024,6.0,1.0,phase_2,go,500.0,350.0,1.0,,,,,,,,,gray,I
0.0,5.0,1.0,1.0,5.0,5.0,548.2824400000936,6.0,1.0,phase_2,go,500.0,350.0,1.0,,,,,,,,,cyan,hexagon
0.0,7.0,3.0,1.0,5.0,5.0,650.3271720002886,6.0,1.0,phase_2,stop,500.0,350.0,3.0,,,,,,,,,green,triangle
0.0,5.0,1.0,1.0,6.0,0.0,0.0,6.0,1.0,phase_2,stop,450.0,350.0,4.0,,,,,,,,,cyan,hexagon
0.0,8.0,4.0,1.0,6.0,0.0,0.0,6.0,1.0,phase_2,stop,450.0,400.0,4.0,,,,,,,,,blue,diamond
0.0,8.0,4.0,1.0,6.0,6.0,1279.1701360001753,6.0,1.0,phase_2,go,450.0,450.0,1.0,,,,,,,,,blue,diamond
0.0,7.0,3.0,1.0,5.0,5.0,400.2908150000621,6.0,1.0,phase_2,stop,450.0,450.0,3.0,,,,,,,,,green,triangle
0.0,4.0,4.0,0.0,6.0,6.0,598.0456289998983,6.0,1.0,phase_2,go,400.0,450.0,1.0,,,,,,,,,yellow,circle
0.0,7.0,3.0,1.0,6.0,0.0,0.0,6.0,1.0,phase_2,stop,400.0,450.0,4.0,,,,,,,,,green,triangle
0.0,3.0,3.0,0.0,5.0,5.0,424.7415390000242,6.0,1.0,phase_2,go,400.0,500.0,1.0,,,,,,,,,gray,I
0.0,5.0,1.0,1.0,5.0,5.0,664.0698229998634,6.0,1.0,phase_2,go,400.0,500.0,1.0,,,,,,,,,cyan,hexagon
0.0,1.0,1.0,0.0,5.0,5.0,665.3213630002028,6.0,1.0,phase_2,go,400.0,500.0,1.0,,,,,,,,,orange,square
0.0,4.0,4.0,0.0,5.0,5.0,630.1533099999688,6.0,1.0,phase_2,go,400.0,500.0,1.0,,,,,,,,,yellow,circle
0.0,1.0,1.0,0.0,6.0,6.0,603.5355619997063,6.0,1.0,phase_2,go,400.0,500.0,1.0,,,,,,,,,orange,square
0.0,6.0,2.0,1.0,5.0,5.0,437.2155010000824,6.0,1.0,phase_2,stop,400.0,500.0,3.0,,,,,,,,,white,flipped triangle
0.0,6.0,2.0,1.0,6.0,6.0,278.7617480003064,6.0,1.0,phase_2,stop,350.0,500.0,3.0,,,,,,,,,white,flipped triangle
0.0,3.0,3.0,0.0,5.0,5.0,590.84625100013,6.0,1.0,phase_2,go,350.0,450.0,1.0,,,,,,,,,gray,I
0.0,7.0,3.0,1.0,5.0,5.0,462.9245910000463,6.0,1.0,phase_2,stop,350.0,450.0,3.0,,,,,,,,,green,triangle
0.0,3.0,3.0,0.0,5.0,5.0,857.8600069999993,6.0,1.0,phase_2,go,300.0,450.0,1.0,,,,,,,,,gray,I
0.0,5.0,1.0,1.0,5.0,5.0,414.5980150001378,6.0,1.0,phase_2,stop,300.0,450.0,3.0,,,,,,,,,cyan,hexagon
0.0,1.0,1.0,0.0,6.0,6.0,547.8708079999706,6.0,1.0,phase_2,go,250.0,450.0,1.0,,,,,,,,,orange,square
0.0,1.0,1.0,0.0,5.0,5.0,660.4906900001879,6.0,1.0,phase_2,go,250.0,450.0,1.0,,,,,,,,,orange,square
0.0,2.0,2.0,0.0,6.0,6.0,1088.526772000023,6.0,1.0,phase_2,go,250.0,450.0,1.0,,,,,,,,,magenta,cross
0.0,3.0,3.0,0.0,5.0,5.0,960.4251040000236,7.0,1.0,phase_2,go,250.0,450.0,1.0,,,,,,,,,gray,I
0.0,3.0,3.0,0.0,6.0,6.0,586.2728679999236,7.0,1.0,phase_2,go,250.0,450.0,1.0,,,,,,,,,gray,I
0.0,5.0,1.0,1.0,6.0,0.0,0.0,7.0,1.0,phase_2,stop,250.0,450.0,4.0,,,,,,,,,cyan,hexagon
0.0,2.0,2.0,0.0,5.0,5.0,337.8632690000813,7.0,1.0,phase_2,go,250.0,500.0,1.0,,,,,,,,,magenta,cross
0.0,6.0,2.0,1.0,6.0,6.0,650.2431779999824,7.0,1.0,phase_2,stop,250.0,500.0,3.0,,,,,,,,,white,flipped triangle
0.0,4.0,4.0,0.0,6.0,6.0,668.826609000007,7.0,1.0,phase_2,go,250.0,450.0,1.0,,,,,,,,,yellow,circle
0.0,1.0,1.0,0.0,6.0,6.0,400.0444069997684,7.0,1.0,phase_2,go,250.0,450.0,1.0,,,,,,,,,orange,square
0.0,8.0,4.0,1.0,5.0,0.0,0.0,7.0,1.0,phase_2,stop,250.0,450.0,4.0,,,,,,,,,blue,diamond
0.0,2.0,2.0,0.0,6.0,6.0,579.7440499995901,7.0,1.0,phase_2,go,300.0,450.0,1.0,,,,,,,,,magenta,cross
0.0,7.0,3.0,1.0,6.0,6.0,592.5242039998011,7.0,1.0,phase_2,stop,300.0,450.0,3.0,,,,,,,,,green,triangle
0.0,8.0,4.0,1.0,6.0,6.0,636.9500419996257,7.0,1.0,phase_2,go,300.0,400.0,1.0,,,,,,,,,blue,diamond
0.0,2.0,2.0,0.0,5.0,5.0,727.2809989999587,7.0,1.0,phase_2,go,300.0,400.0,1.0,,,,,,,,,magenta,cross
0.0,5.0,1.0,1.0,6.0,6.0,524.9125479999748,7.0,1.0,phase_2,stop,300.0,400.0,3.0,,,,,,,,,cyan,hexagon
0.0,2.0,2.0,0.0,5.0,5.0,626.5110740000637,7.0,1.0,phase_2,go,300.0,350.0,1.0,,,,,,,,,magenta,cross
0.0,1.0,1.0,0.0,6.0,6.0,833.1587090001449,7.0,1.0,phase_2,go,300.0,350.0,1.0,,,,,,,,,orange,square
0.0,7.0,3.0,1.0,5.0,5.0,843.9647280001736,7.0,1.0,phase_2,go,300.0,350.0,1.0,,,,,,,,,green,triangle
0.0,5.0,1.0,1.0,6.0,6.0,474.1300000000592,7.0,1.0,phase_2,stop,300.0,350.0,3.0,,,,,,,,,cyan,hexagon
0.0,3.0,3.0,0.0,6.0,6.0,428.8896660000318,7.0,1.0,phase_2,go,300.0,300.0,1.0,,,,,,,,,gray,I
0.0,2.0,2.0,0.0,5.0,5.0,576.8973459998961,7.0,1.0,phase_2,go,300.0,300.0,1.0,,,,,,,,,magenta,cross
0.0,2.0,2.0,0.0,6.0,6.0,455.3971569998793,7.0,1.0,phase_2,go,300.0,300.0,1.0,,,,,,,,,magenta,cross
0.0,3.0,3.0,0.0,6.0,6.0,447.127360000195,7.0,1.0,phase_2,go,300.0,300.0,1.0,,,,,,,,,gray,I
0.0,8.0,4.0,1.0,6.0,6.0,375.0294840001515,7.0,1.0,phase_2,stop,300.0,300.0,3.0,,,,,,,,,blue,diamond
0.0,6.0,2.0,1.0,6.0,0.0,0.0,7.0,1.0,phase_2,stop,300.0,250.0,4.0,,,,,,,,,white,flipped triangle
0.0,4.0,4.0,0.0,5.0,5.0,380.7070399998338,7.0,1.0,phase_2,go,300.0,300.0,1.0,,,,,,,,,yellow,circle
0.0,4.0,4.0,0.0,6.0,6.0,427.9547480000474,7.0,1.0,phase_2,go,300.0,300.0,1.0,,,,,,,,,yellow,circle
0.0,3.0,3.0,0.0,5.0,5.0,317.1293739997054,7.0,1.0,phase_2,go,300.0,300.0,1.0,,,,,,,,,gray,I
0.0,6.0,2.0,1.0,6.0,6.0,346.5471089998573,7.0,1.0,phase_2,stop,300.0,300.0,3.0,,,,,,,,,white,flipped triangle
0.0,7.0,3.0,1.0,5.0,5.0,360.068640999998,7.0,1.0,phase_2,stop,300.0,250.0,3.0,,,,,,,,,green,triangle
0.0,1.0,1.0,0.0,6.0,6.0,338.9071320002585,7.0,1.0,phase_2,go,250.0,250.0,1.0,,,,,,,,,orange,square
0.0,8.0,4.0,1.0,6.0,6.0,334.0940759999284,7.0,1.0,phase_2,go,250.0,250.0,1.0,,,,,,,,,blue,diamond
0.0,6.0,2.0,1.0,6.0,6.0,301.3849489998392,7.0,1.0,phase_2,stop,250.0,250.0,3.0,,,,,,,,,white,flipped triangle
0.0,7.0,3.0,1.0,6.0,6.0,342.0578509999359,7.0,1.0,phase_2,go,250.0,200.0,1.0,,,,,,,,,green,triangle
0.0,8.0,4.0,1.0,5.0,0.0,0.0,7.0,1.0,phase_2,stop,250.0,200.0,4.0,,,,,,,,,blue,diamond
0.0,1.0,1.0,0.0,6.0,6.0,322.2357139998166,7.0,1.0,phase_2,go,300.0,200.0,1.0,,,,,,,,,orange,square
0.0,3.0,3.0,0.0,6.0,6.0,542.6700799998798,7.0,1.0,phase_2,go,300.0,200.0,1.0,,,,,,,,,gray,I
0.0,7.0,3.0,1.0,5.0,5.0,336.9070819999251,7.0,1.0,phase_2,stop,300.0,200.0,3.0,,,,,,,,,green,triangle
0.0,4.0,4.0,0.0,5.0,5.0,686.4550199998121,8.0,1.0,phase_2,go,250.0,200.0,1.0,,,,,,,,,yellow,circle
0.0,8.0,4.0,1.0,6.0,0.0,0.0,8.0,1.0,phase_2,stop,250.0,200.0,4.0,,,,,,,,,blue,diamond
0.0,4.0,4.0,0.0,5.0,5.0,422.6987700003519,8.0,1.0,phase_2,go,250.0,250.0,1.0,,,,,,,,,yellow,circle
0.0,8.0,4.0,1.0,5.0,0.0,0.0,8.0,1.0,phase_2,stop,250.0,250.0,4.0,,,,,,,,,blue,diamond
0.0,4.0,4.0,0.0,5.0,5.0,583.1393220005339,8.0,1.0,phase_2,go,300.0,250.0,1.0,,,,,,,,,yellow,circle
0.0,8.0,4.0,1.0,5.0,0.0,0.0,8.0,1.0,phase_2,stop,300.0,250.0,4.0,,,,,,,,,blue,diamond
0.0,6.0,2.0,1.0,5.0,5.0,389.5188540000163,8.0,1.0,phase_2,stop,350.0,250.0,3.0,,,,,,,,,white,flipped triangle
0.0,5.0,1.0,1.0,6.0,6.0,291.0911549997763,8.0,1.0,phase_2,stop,300.0,250.0,3.0,,,,,,,,,cyan,hexagon
0.0,1.0,1.0,0.0,6.0,6.0,585.0905159995818,8.0,1.0,phase_2,go,300.0,200.0,1.0,,,,,,,,,orange,square
0.0,5.0,1.0,1.0,6.0,6.0,691.233101000762,8.0,1.0,phase_2,go,300.0,200.0,1.0,,,,,,,,,cyan,hexagon
0.0,3.0,3.0,0.0,6.0,6.0,531.6615920000913,8.0,1.0,phase_2,go,300.0,200.0,1.0,,,,,,,,,gray,I
0.0,6.0,2.0,1.0,5.0,0.0,0.0,8.0,1.0,phase_2,stop,300.0,200.0,4.0,,,,,,,,,white,flipped triangle
0.0,2.0,2.0,0.0,6.0,6.0,339.2677669999102,8.0,1.0,phase_2,go,350.0,200.0,1.0,,,,,,,,,magenta,cross
0.0,4.0,4.0,0.0,6.0,6.0,717.6261459999296,8.0,1.0,phase_2,go,350.0,200.0,1.0,,,,,,,,,yellow,circle
0.0,5.0,1.0,1.0,5.0,0.0,0.0,8.0,1.0,phase_2,stop,350.0,200.0,4.0,,,,,,,,,cyan,hexagon
0.0,2.0,2.0,0.0,5.0,5.0,654.2847470000197,8.0,1.0,phase_2,go,400.0,200.0,1.0,,,,,,,,,magenta,cross
0.0,4.0,4.0,0.0,5.0,5.0,607.2552710002128,8.0,1.0,phase_2,go,400.0,200.0,1.0,,,,,,,,,yellow,circle
0.0,7.0,3.0,1.0,5.0,0.0,0.0,8.0,1.0,phase_2,stop,400.0,200.0,4.0,,,,,,,,,green,triangle
0.0,2.0,2.0,0.0,6.0,6.0,385.5017730002146,8.0,1.0,phase_2,go,450.0,200.0,1.0,,,,,,,,,magenta,cross
0.0,7.0,3.0,1.0,5.0,0.0,0.0,8.0,1.0,phase_2,stop,450.0,200.0,4.0,,,,,,,,,green,triangle
0.0,2.0,2.0,0.0,5.0,5.0,700.6563969998751,8.0,1.0,phase_2,go,500.0,200.0,1.0,,,,,,,,,magenta,cross
0.0,3.0,3.0,0.0,6.0,6.0,541.4171639995402,8.0,1.0,phase_2,go,500.0,200.0,1.0,,,,,,,,,gray,I
0.0,4.0,4.0,0.0,6.0,6.0,658.0715840000266,8.0,1.0,phase_2,go,500.0,200.0,1.0,,,,,,,,,yellow,circle
0.0,4.0,4.0,0.0,6.0,6.0,560.7645000000048,8.0,1.0,phase_2,go,500.0,200.0,1.0,,,,,,,,,yellow,circle
0.0,5.0,1.0,1.0,6.0,0.0,0.0,8.0,1.0,phase_2,stop,500.0,200.0,4.0,,,,,,,,,cyan,hexagon
0.0,8.0,4.0,1.0,6.0,6.0,414.6662940001988,8.0,1.0,phase_2,stop,500.0,250.0,3.0,,,,,,,,,blue,diamond
0.0,2.0,2.0,0.0,6.0,6.0,574.1269910004121,8.0,1.0,phase_2,go,500.0,200.0,1.0,,,,,,,,,magenta,cross
0.0,3.0,3.0,0.0,5.0,5.0,583.4715929995582,8.0,1.0,phase_2,go,500.0,200.0,1.0,,,,,,,,,gray,I
0.0,7.0,3.0,1.0,6.0,0.0,0.0,8.0,1.0,phase_2,stop,500.0,200.0,4.0,,,,,,,,,green,triangle
0.0,8.0,4.0,1.0,5.0,5.0,477.3162190003859,8.0,1.0,phase_2,stop,500.0,250.0,3.0,,,,,,,,,blue,diamond
0.0,4.0,4.0,0.0,6.0,6.0,507.8506820000257,8.0,1.0,phase_2,go,450.0,250.0,1.0,,,,,,,,,yellow,circle
0.0,8.0,4.0,1.0,5.0,5.0,331.1609550000867,8.0,1.0,phase_2,stop,450.0,250.0,3.0,,,,,,,,,blue,diamond
0.0,4.0,4.0,0.0,6.0,6.0,373.112391000177,8.0,1.0,phase_2,go,400.0,250.0,1.0,,,,,,,,,yellow,circle
0.0,7.0,3.0,1.0,6.0,0.0,0.0,8.0,1.0,phase_2,stop,400.0,250.0,4.0,,,,,,,,,green,triangle
0.0,5.0,1.0,1.0,5.0,0.0,0.0,8.0,1.0,phase_2,stop,400.0,300.0,4.0,,,,,,,,,cyan,hexagon
0.0,6.0,2.0,1.0,6.0,0.0,0.0,8.0,1.0,phase_2,stop,450.0,300.0,4.0,,,,,,,,,white,flipped triangle
0.0,6.0,2.0,1.0,7.0,4.0,1819.779383000423,1.0,2.0,phase_3,,,,,220.0,5.0,264.0,88.0,132.0,220.0,44.0,176.0,white,flipped triangle
0.0,8.0,4.0,1.0,7.0,1.0,2710.3465669997604,1.0,1.0,phase_3,,,,,176.0,4.0,176.0,264.0,132.0,88.0,44.0,220.0,blue,diamond
0.0,3.0,3.0,0.0,7.0,3.0,2237.2673469999427,1.0,1.0,phase_3,,,,,88.0,2.0,176.0,220.0,88.0,264.0,132.0,44.0,gray,I
0.0,7.0,3.0,1.0,7.0,5.0,1917.320999000367,1.0,1.0,phase_3,,,,,196.0,4.0,98.0,294.0,147.0,49.0,196.0,245.0,green,triangle
0.0,5.0,1.0,1.0,7.0,1.0,2920.567393000056,1.0,1.0,phase_3,,,,,156.0,4.0,156.0,234.0,117.0,195.0,39.0,78.0,cyan,hexagon
0.0,4.0,4.0,0.0,7.0,2.0,2009.9621660001503,1.0,1.0,phase_3,,,,,245.0,5.0,294.0,245.0,98.0,147.0,196.0,49.0,yellow,circle
0.0,1.0,1.0,0.0,7.0,6.0,1813.5061940001835,1.0,1.0,phase_3,,,,,98.0,2.0,294.0,245.0,147.0,49.0,196.0,98.0,orange,square
0.0,3.0,3.0,0.0,7.0,2.0,2248.4361199994964,1.0,1.0,phase_3,,,,,170.0,5.0,34.0,170.0,136.0,102.0,204.0,68.0,gray,I
0.0,2.0,2.0,0.0,7.0,5.0,1471.3427500000762,1.0,1.0,phase_3,,,,,234.0,6.0,156.0,39.0,195.0,78.0,234.0,117.0,magenta,cross
0.0,6.0,2.0,1.0,7.0,1.0,2379.726455000309,1.0,1.0,phase_3,,,,,162.0,3.0,162.0,108.0,216.0,270.0,54.0,324.0,white,flipped triangle
0.0,5.0,1.0,1.0,7.0,4.0,1643.4363130001657,1.0,1.0,phase_3,,,,,68.0,2.0,136.0,102.0,170.0,68.0,34.0,204.0,cyan,hexagon
0.0,5.0,1.0,1.0,7.0,5.0,1539.4257770003603,1.0,1.0,phase_3,,,,,88.0,2.0,176.0,264.0,44.0,132.0,88.0,220.0,cyan,hexagon
0.0,7.0,3.0,1.0,7.0,3.0,1129.595170000357,1.0,1.0,phase_3,,,,,220.0,5.0,44.0,132.0,220.0,88.0,264.0,176.0,green,triangle
0.0,2.0,2.0,0.0,7.0,2.0,1716.3961500000369,1.0,1.0,phase_3,,,,,216.0,4.0,324.0,216.0,270.0,162.0,54.0,108.0,magenta,cross
0.0,7.0,3.0,1.0,7.0,5.0,2346.403406999343,1.0,1.0,phase_3,,,,,162.0,3.0,108.0,216.0,54.0,270.0,162.0,324.0,green,triangle
0.0,1.0,1.0,0.0,7.0,3.0,1148.3891139996558,1.0,1.0,phase_3,,,,,39.0,1.0,78.0,117.0,39.0,195.0,156.0,234.0,orange,square
0.0,2.0,2.0,0.0,7.0,5.0,1643.1611600000906,1.0,1.0,phase_3,,,,,270.0,5.0,324.0,162.0,216.0,108.0,270.0,54.0,magenta,cross
0.0,4.0,4.0,0.0,7.0,3.0,1714.3600490007884,1.0,1.0,phase_3,,,,,156.0,4.0,78.0,234.0,156.0,39.0,117.0,195.0,yellow,circle
0.0,3.0,3.0,0.0,7.0,6.0,1416.394749000574,1.0,1.0,phase_3,,,,,68.0,2.0,102.0,170.0,136.0,34.0,204.0,68.0,gray,I
0.0,7.0,3.0,1.0,7.0,3.0,1413.4011229998578,1.0,1.0,phase_3,,,,,170.0,5.0,34.0,102.0,170.0,204.0,136.0,68.0,green,triangle
0.0,1.0,1.0,0.0,7.0,4.0,931.771307999952,2.0,1.0,phase_3,,,,,220.0,5.0,44.0,88.0,176.0,220.0,132.0,264.0,orange,square
0.0,1.0,1.0,0.0,7.0,2.0,845.578172000387,2.0,1.0,phase_3,,,,,216.0,4.0,162.0,216.0,324.0,54.0,108.0,270.0,orange,square
0.0,5.0,1.0,1.0,7.0,5.0,815.1358459999756,2.0,1.0,phase_3,,,,,196.0,4.0,294.0,49.0,245.0,147.0,196.0,98.0,cyan,hexagon
0.0,7.0,3.0,1.0,7.0,5.0,1453.7203770005362,2.0,1.0,phase_3,,,,,162.0,3.0,54.0,324.0,270.0,216.0,162.0,108.0,green,triangle
0.0,2.0,2.0,0.0,7.0,3.0,951.4847459995508,2.0,1.0,phase_3,,,,,204.0,6.0,170.0,34.0,204.0,68.0,102.0,136.0,magenta,cross
0.0,8.0,4.0,1.0,7.0,6.0,1672.70511300012,2.0,1.0,phase_3,,,,,147.0,3.0,98.0,196.0,294.0,245.0,49.0,147.0,blue,diamond
0.0,1.0,1.0,0.0,7.0,5.0,2319.6909859998414,2.0,1.0,phase_3,,,,,216.0,4.0,324.0,108.0,54.0,270.0,216.0,162.0,orange,square
0.0,4.0,4.0,0.0,7.0,2.0,1572.0683819999977,2.0,1.0,phase_3,,,,,54.0,1.0,270.0,54.0,324.0,108.0,162.0,216.0,yellow,circle
0.0,6.0,2.0,1.0,7.0,4.0,2483.2005749995005,2.0,1.0,phase_3,,,,,170.0,5.0,34.0,204.0,68.0,170.0,136.0,102.0,white,flipped triangle
0.0,4.0,4.0,0.0,7.0,5.0,769.9471639998592,2.0,1.0,phase_3,,,,,98.0,2.0,49.0,147.0,294.0,196.0,98.0,245.0,yellow,circle
0.0,3.0,3.0,0.0,7.0,3.0,1000.7309579996218,2.0,1.0,phase_3,,,,,54.0,1.0,324.0,108.0,54.0,270.0,162.0,216.0,gray,I
0.0,4.0,4.0,0.0,7.0,2.0,2037.7450119995046,2.0,1.0,phase_3,,,,,88.0,2.0,220.0,88.0,176.0,132.0,264.0,44.0,yellow,circle
0.0,7.0,3.0,1.0,7.0,4.0,1337.3218050001014,2.0,1.0,phase_3,,,,,98.0,2.0,196.0,245.0,294.0,98.0,49.0,147.0,green,triangle
0.0,8.0,4.0,1.0,7.0,5.0,914.1098569998576,2.0,1.0,phase_3,,,,,162.0,3.0,108.0,216.0,270.0,54.0,162.0,324.0,blue,diamond
0.0,8.0,4.0,1.0,7.0,6.0,1448.717338000279,2.0,1.0,phase_3,,,,,156.0,4.0,39.0,117.0,195.0,234.0,78.0,156.0,blue,diamond
0.0,5.0,1.0,1.0,7.0,2.0,1027.5859070006843,2.0,1.0,phase_3,,,,,162.0,3.0,270.0,162.0,324.0,216.0,108.0,54.0,cyan,hexagon
0.0,2.0,2.0,0.0,7.0,2.0,2321.3380440001856,2.0,1.0,phase_3,,,,,68.0,2.0,102.0,68.0,170.0,136.0,204.0,34.0,magenta,cross
0.0,1.0,1.0,0.0,7.0,4.0,1556.614135999553,2.0,1.0,phase_3,,,,,39.0,1.0,156.0,234.0,78.0,39.0,195.0,117.0,orange,square
0.0,5.0,1.0,1.0,7.0,2.0,1199.8196770000504,2.0,1.0,phase_3,,,,,136.0,4.0,204.0,136.0,68.0,102.0,34.0,170.0,cyan,hexagon
0.0,6.0,2.0,1.0,7.0,5.0,2991.9028019994585,2.0,1.0,phase_3,,,,,195.0,5.0,156.0,117.0,78.0,39.0,195.0,234.0,white,flipped triangle
0.0,1.0,1.0,0.0,7.0,1.0,1404.1467769993687,3.0,1.0,phase_3,,,,,44.0,1.0,44.0,88.0,176.0,264.0,220.0,132.0,orange,square
0.0,6.0,2.0,1.0,7.0,4.0,1102.994683000361,3.0,1.0,phase_3,,,,,108.0,2.0,270.0,54.0,216.0,108.0,162.0,324.0,white,flipped triangle
0.0,3.0,3.0,0.0,7.0,2.0,1713.7015970001812,3.0,1.0,phase_3,,,,,78.0,2.0,195.0,78.0,234.0,39.0,156.0,117.0,gray,I
0.0,5.0,1.0,1.0,7.0,3.0,1247.8190629999515,3.0,1.0,phase_3,,,,,176.0,4.0,220.0,264.0,176.0,132.0,88.0,44.0,cyan,hexagon
0.0,8.0,4.0,1.0,7.0,5.0,2302.9067009993014,3.0,1.0,phase_3,,,,,54.0,1.0,270.0,324.0,108.0,216.0,54.0,162.0,blue,diamond
0.0,8.0,4.0,1.0,7.0,3.0,1671.030829999836,3.0,1.0,phase_3,,,,,49.0,1.0,98.0,196.0,49.0,147.0,294.0,245.0,blue,diamond
0.0,5.0,1.0,1.0,7.0,6.0,1926.739335000093,3.0,1.0,phase_3,,,,,196.0,4.0,49.0,147.0,294.0,98.0,245.0,196.0,cyan,hexagon
0.0,2.0,2.0,0.0,7.0,4.0,1232.4372760003826,3.0,1.0,phase_3,,,,,147.0,3.0,98.0,294.0,49.0,147.0,245.0,196.0,magenta,cross
0.0,6.0,2.0,1.0,7.0,5.0,1553.838316999645,3.0,1.0,phase_3,,,,,117.0,3.0,195.0,39.0,78.0,156.0,117.0,234.0,white,flipped triangle
0.0,1.0,1.0,0.0,7.0,5.0,886.1979060002341,3.0,1.0,phase_3,,,,,34.0,1.0,68.0,170.0,136.0,102.0,34.0,204.0,orange,square
0.0,2.0,2.0,0.0,7.0,4.0,698.5200819999591,3.0,1.0,phase_3,,,,,234.0,6.0,156.0,195.0,78.0,234.0,117.0,39.0,magenta,cross
0.0,3.0,3.0,0.0,7.0,3.0,1565.8037340008375,3.0,1.0,phase_3,,,,,54.0,1.0,162.0,216.0,54.0,324.0,270.0,108.0,gray,I
0.0,2.0,2.0,0.0,7.0,2.0,924.391169000046,3.0,1.0,phase_3,,,,,98.0,2.0,245.0,98.0,294.0,147.0,196.0,49.0,magenta,cross
0.0,3.0,3.0,0.0,7.0,5.0,1006.8515439998009,3.0,1.0,phase_3,,,,,98.0,2.0,245.0,196.0,147.0,294.0,98.0,49.0,gray,I
0.0,8.0,4.0,1.0,7.0,4.0,1046.2540309999897,3.0,1.0,phase_3,,,,,68.0,2.0,170.0,102.0,34.0,68.0,136.0,204.0,blue,diamond
0.0,5.0,1.0,1.0,7.0,5.0,1022.0984460002,3.0,1.0,phase_3,,,,,216.0,4.0,270.0,324.0,54.0,108.0,216.0,162.0,cyan,hexagon
0.0,2.0,2.0,0.0,7.0,1.0,1548.7250659998608,3.0,1.0,phase_3,,,,,88.0,2.0,88.0,132.0,176.0,44.0,264.0,220.0,magenta,cross
0.0,4.0,4.0,0.0,7.0,5.0,963.0855310006154,3.0,1.0,phase_3,,,,,34.0,1.0,204.0,102.0,68.0,136.0,34.0,170.0,yellow,circle
0.0,3.0,3.0,0.0,7.0,3.0,1241.3944230002016,3.0,1.0,phase_3,,,,,78.0,2.0,39.0,156.0,78.0,234.0,195.0,117.0,gray,I
0.0,7.0,3.0,1.0,7.0,3.0,2926.026990000537,3.0,1.0,phase_3,,,,,34.0,1.0,68.0,170.0,34.0,204.0,102.0,136.0,green,triangle
0.0,4.0,4.0,0.0,7.0,2.0,1348.7458119998337,4.0,1.0,phase_3,,,,,39.0,1.0,78.0,39.0,234.0,156.0,195.0,117.0,yellow,circle
0.0,7.0,3.0,1.0,7.0,4.0,1868.5671460007145,4.0,1.0,phase_3,,,,,117.0,3.0,195.0,156.0,234.0,117.0,78.0,39.0,green,triangle
0.0,4.0,4.0,0.0,7.0,1.0,1610.8236879999822,4.0,1.0,phase_3,,,,,44.0,1.0,44.0,88.0,264.0,132.0,176.0,220.0,yellow,circle
0.0,8.0,4.0,1.0,7.0,5.0,1586.1826950003888,4.0,1.0,phase_3,,,,,132.0,3.0,264.0,88.0,220.0,44.0,132.0,176.0,blue,diamond
0.0,6.0,2.0,1.0,7.0,2.0,983.8640059997488,4.0,1.0,phase_3,,,,,176.0,4.0,44.0,176.0,88.0,132.0,220.0,264.0,white,flipped triangle
0.0,7.0,3.0,1.0,7.0,5.0,1125.5368839993023,4.0,1.0,phase_3,,,,,176.0,4.0,44.0,220.0,264.0,132.0,176.0,88.0,green,triangle
0.0,4.0,4.0,0.0,7.0,3.0,870.2268750002986,4.0,1.0,phase_3,,,,,34.0,1.0,204.0,68.0,34.0,136.0,102.0,170.0,yellow,circle
0.0,5.0,1.0,1.0,7.0,5.0,639.4928390000132,4.0,1.0,phase_3,,,,,117.0,3.0,195.0,78.0,156.0,234.0,117.0,39.0,cyan,hexagon
0.0,1.0,1.0,0.0,7.0,1.0,1222.8148399999554,4.0,1.0,phase_3,,,,,49.0,1.0,49.0,196.0,98.0,294.0,147.0,245.0,orange,square
0.0,4.0,4.0,0.0,7.0,1.0,0.2108549997501,4.0,1.0,phase_3,,,,,54.0,1.0,54.0,162.0,270.0,216.0,108.0,324.0,yellow,circle
0.0,6.0,2.0,1.0,7.0,5.0,1134.4555710002169,4.0,1.0,phase_3,,,,,147.0,3.0,245.0,49.0,98.0,196.0,147.0,294.0,white,flipped triangle
0.0,1.0,1.0,0.0,7.0,4.0,963.0919860001086,4.0,1.0,phase_3,,,,,68.0,2.0,102.0,34.0,204.0,68.0,170.0,136.0,orange,square
0.0,8.0,4.0,1.0,7.0,6.0,988.8205220004238,4.0,1.0,phase_3,,,,,39.0,1.0,117.0,195.0,156.0,78.0,234.0,39.0,blue,diamond
0.0,6.0,2.0,1.0,7.0,3.0,1780.0352929998553,4.0,1.0,phase_3,,,,,98.0,2.0,294.0,49.0,98.0,245.0,147.0,196.0,white,flipped triangle
0.0,6.0,2.0,1.0,7.0,1.0,2249.513067999942,4.0,1.0,phase_3,,,,,102.0,3.0,102.0,136.0,204.0,68.0,170.0,34.0,white,flipped triangle
0.0,3.0,3.0,0.0,7.0,2.0,1786.104933000388,4.0,1.0,phase_3,,,,,98.0,2.0,49.0,98.0,245.0,147.0,294.0,196.0,gray,I
0.0,2.0,2.0,0.0,7.0,3.0,1155.4126740002175,4.0,1.0,phase_3,,,,,88.0,2.0,132.0,44.0,88.0,176.0,264.0,220.0,magenta,cross
0.0,8.0,4.0,1.0,7.0,5.0,1161.8415589991855,4.0,1.0,phase_3,,,,,170.0,5.0,34.0,204.0,68.0,136.0,170.0,102.0,blue,diamond
0.0,7.0,3.0,1.0,7.0,3.0,1122.814383000332,4.0,1.0,phase_3,,,,,78.0,2.0,117.0,234.0,78.0,195.0,39.0,156.0,green,triangle
0.0,3.0,3.0,0.0,7.0,4.0,1277.7001780004866,4.0,1.0,phase_3,,,,,88.0,2.0,220.0,264.0,132.0,88.0,44.0,176.0,gray,I
