raw_reward_magnitude,stim_reward,stepwise_reward_magnitude,paired_with_stopping,stim_location,response,reaction_time,block,num_trial_presentations,which_phase,stop_signal_trial_type,left_SSD,right_SSD,accuracy,chosen_bidding_amount,chosen_bidding_level,possible_bid_1,possible_bid_2,possible_bid_3,possible_bid_4,possible_bid_5,possible_bid_6,color_text,shape_text
37.0,5.0,1.0,1.0,3.0,3.0,480.216795999695,1.0,1.0,phase_1,,,,,,,,,,,,,magenta,I
0.0,6.0,0.0,1.0,1.0,1.0,424.7895849998713,1.0,1.0,phase_1,,,,,,,,,,,,,cyan,diamond
0.0,1.0,0.0,0.0,4.0,4.0,398.3644689997163,1.0,1.0,phase_1,,,,,,,,,,,,,green,flipped triangle
389.0,4.0,4.0,0.0,1.0,1.0,374.9135530001695,1.0,1.0,phase_1,,,,,,,,,,,,,yellow,triangle
0.0,8.0,0.0,1.0,4.0,4.0,374.4528480001463,1.0,1.0,phase_1,,,,,,,,,,,,,white,hexagon
0.0,1.0,0.0,0.0,1.0,1.0,414.3807890000062,1.0,1.0,phase_1,,,,,,,,,,,,,green,flipped triangle
404.0,8.0,4.0,1.0,4.0,4.0,389.1509760001099,1.0,1.0,phase_1,,,,,,,,,,,,,white,hexagon
188.0,7.0,3.0,1.0,4.0,4.0,387.6242370001819,1.0,1.0,phase_1,,,,,,,,,,,,,gray,cross
41.0,5.0,1.0,1.0,4.0,4.0,357.8481219997229,1.0,1.0,phase_1,,,,,,,,,,,,,magenta,I
0.0,7.0,0.0,1.0,3.0,3.0,401.5946199997415,1.0,1.0,phase_1,,,,,,,,,,,,,gray,cross
0.0,1.0,0.0,0.0,4.0,4.0,312.517912000203,1.0,1.0,phase_1,,,,,,,,,,,,,green,flipped triangle
398.0,4.0,4.0,0.0,3.0,3.0,335.2925599997434,1.0,1.0,phase_1,,,,,,,,,,,,,yellow,triangle
382.0,8.0,4.0,1.0,1.0,1.0,298.1369239996638,1.0,1.0,phase_1,,,,,,,,,,,,,white,hexagon
37.0,1.0,1.0,0.0,1.0,1.0,355.2420159999201,1.0,1.0,phase_1,,,,,,,,,,,,,green,flipped triangle
179.0,3.0,3.0,0.0,4.0,4.0,337.1228959999826,1.0,1.0,phase_1,,,,,,,,,,,,,blue,square
183.0,7.0,3.0,1.0,4.0,4.0,445.1066689998697,1.0,1.0,phase_1,,,,,,,,,,,,,gray,cross
28.0,5.0,1.0,1.0,3.0,3.0,323.5871020001468,1.0,1.0,phase_1,,,,,,,,,,,,,magenta,I
417.0,4.0,4.0,0.0,2.0,2.0,394.7226380000757,1.0,1.0,phase_1,,,,,,,,,,,,,yellow,triangle
27.0,1.0,1.0,0.0,2.0,2.0,327.0139730002483,1.0,1.0,phase_1,,,,,,,,,,,,,green,flipped triangle
422.0,8.0,4.0,1.0,3.0,3.0,345.6917130001784,1.0,1.0,phase_1,,,,,,,,,,,,,white,hexagon
69.0,1.0,1.0,0.0,2.0,2.0,413.2552819996817,1.0,1.0,phase_1,,,,,,,,,,,,,green,flipped triangle
0.0,7.0,0.0,1.0,4.0,4.0,369.3902699997125,1.0,1.0,phase_1,,,,,,,,,,,,,gray,cross
389.0,8.0,4.0,1.0,3.0,3.0,344.5087659997625,1.0,1.0,phase_1,,,,,,,,,,,,,white,hexagon
92.0,6.0,2.0,1.0,1.0,1.0,299.6961040003043,1.0,1.0,phase_1,,,,,,,,,,,,,cyan,diamond
0.0,4.0,0.0,0.0,2.0,2.0,381.6094310000153,1.0,1.0,phase_1,,,,,,,,,,,,,yellow,triangle
0.0,1.0,0.0,0.0,4.0,4.0,300.4461549999178,1.0,1.0,phase_1,,,,,,,,,,,,,green,flipped triangle
206.0,7.0,3.0,1.0,3.0,3.0,561.4305210001476,1.0,1.0,phase_1,,,,,,,,,,,,,gray,cross
106.0,2.0,2.0,0.0,3.0,3.0,352.0823079998081,1.0,1.0,phase_1,,,,,,,,,,,,,orange,circle
386.0,4.0,4.0,0.0,1.0,1.0,360.2626080000846,1.0,1.0,phase_1,,,,,,,,,,,,,yellow,triangle
189.0,3.0,3.0,0.0,3.0,3.0,322.5237390001894,1.0,1.0,phase_1,,,,,,,,,,,,,blue,square
91.0,6.0,2.0,1.0,1.0,1.0,305.1908319998802,1.0,1.0,phase_1,,,,,,,,,,,,,cyan,diamond
112.0,6.0,2.0,1.0,2.0,2.0,456.3222220003808,1.0,1.0,phase_1,,,,,,,,,,,,,cyan,diamond
111.0,2.0,2.0,0.0,1.0,1.0,369.9260389998926,1.0,1.0,phase_1,,,,,,,,,,,,,orange,circle
401.0,4.0,4.0,0.0,1.0,1.0,324.6169819999522,1.0,1.0,phase_1,,,,,,,,,,,,,yellow,triangle
0.0,1.0,0.0,0.0,2.0,2.0,366.9374280002557,1.0,1.0,phase_1,,,,,,,,,,,,,green,flipped triangle
0.0,2.0,0.0,0.0,3.0,3.0,367.9792739999357,1.0,1.0,phase_1,,,,,,,,,,,,,orange,circle
217.0,7.0,3.0,1.0,2.0,2.0,369.9752919997081,1.0,1.0,phase_1,,,,,,,,,,,,,gray,cross
0.0,4.0,0.0,0.0,4.0,4.0,349.7138800003085,1.0,1.0,phase_1,,,,,,,,,,,,,yellow,triangle
25.0,1.0,1.0,0.0,4.0,4.0,400.6457860000409,1.0,1.0,phase_1,,,,,,,,,,,,,green,flipped triangle
0.0,1.0,0.0,0.0,1.0,1.0,391.2809369999195,1.0,1.0,phase_1,,,,,,,,,,,,,green,flipped triangle
50.0,1.0,1.0,0.0,3.0,3.0,316.5620949998811,1.0,1.0,phase_1,,,,,,,,,,,,,green,flipped triangle
218.0,7.0,3.0,1.0,4.0,4.0,319.0392440001233,1.0,1.0,phase_1,,,,,,,,,,,,,gray,cross
103.0,2.0,2.0,0.0,1.0,1.0,461.971512999753,1.0,1.0,phase_1,,,,,,,,,,,,,orange,circle
112.0,2.0,2.0,0.0,4.0,4.0,338.2462300000952,1.0,1.0,phase_1,,,,,,,,,,,,,orange,circle
46.0,5.0,1.0,1.0,2.0,2.0,422.1838710000156,1.0,1.0,phase_1,,,,,,,,,,,,,magenta,I
212.0,3.0,3.0,0.0,2.0,2.0,347.7198789996691,1.0,1.0,phase_1,,,,,,,,,,,,,blue,square
0.0,3.0,0.0,0.0,4.0,4.0,337.699977000284,1.0,1.0,phase_1,,,,,,,,,,,,,blue,square
34.0,1.0,1.0,0.0,1.0,1.0,388.4823329999562,1.0,1.0,phase_1,,,,,,,,,,,,,green,flipped triangle
381.0,4.0,4.0,0.0,4.0,4.0,356.3452520002101,1.0,1.0,phase_1,,,,,,,,,,,,,yellow,triangle
0.0,5.0,0.0,1.0,4.0,4.0,349.6478969996133,1.0,1.0,phase_1,,,,,,,,,,,,,magenta,I
378.0,4.0,4.0,0.0,1.0,1.0,423.066134000237,1.0,1.0,phase_1,,,,,,,,,,,,,yellow,triangle
195.0,7.0,3.0,1.0,2.0,2.0,373.2627079998565,1.0,1.0,phase_1,,,,,,,,,,,,,gray,cross
80.0,2.0,2.0,0.0,4.0,4.0,365.0492470001154,1.0,1.0,phase_1,,,,,,,,,,,,,orange,circle
34.0,5.0,1.0,1.0,1.0,1.0,369.7132920001422,1.0,1.0,phase_1,,,,,,,,,,,,,magenta,I
0.0,3.0,0.0,0.0,2.0,2.0,383.1922170002144,1.0,1.0,phase_1,,,,,,,,,,,,,blue,square
385.0,4.0,4.0,0.0,1.0,1.0,346.0765109998647,1.0,1.0,phase_1,,,,,,,,,,,,,yellow,triangle
0.0,7.0,0.0,1.0,2.0,2.0,366.9241019997571,1.0,1.0,phase_1,,,,,,,,,,,,,gray,cross
41.0,1.0,1.0,0.0,2.0,2.0,348.9407110000684,1.0,1.0,phase_1,,,,,,,,,,,,,green,flipped triangle
118.0,2.0,2.0,0.0,3.0,3.0,357.1111020000899,1.0,1.0,phase_1,,,,,,,,,,,,,orange,circle
0.0,8.0,0.0,1.0,4.0,4.0,453.2041180000306,1.0,1.0,phase_1,,,,,,,,,,,,,white,hexagon
397.0,8.0,4.0,1.0,2.0,2.0,338.9218580000488,1.0,1.0,phase_1,,,,,,,,,,,,,white,hexagon
385.0,8.0,4.0,1.0,4.0,4.0,274.4128569997883,1.0,1.0,phase_1,,,,,,,,,,,,,white,hexagon
199.0,7.0,3.0,1.0,1.0,1.0,315.0841469996521,1.0,1.0,phase_1,,,,,,,,,,,,,gray,cross
97.0,2.0,2.0,0.0,4.0,4.0,267.6651769997988,1.0,1.0,phase_1,,,,,,,,,,,,,orange,circle
52.0,5.0,1.0,1.0,3.0,3.0,365.0494449998405,1.0,1.0,phase_1,,,,,,,,,,,,,magenta,I
63.0,5.0,1.0,1.0,1.0,1.0,385.233868999876,1.0,1.0,phase_1,,,,,,,,,,,,,magenta,I
26.0,5.0,1.0,1.0,4.0,4.0,314.1620080000393,1.0,1.0,phase_1,,,,,,,,,,,,,magenta,I
423.0,4.0,4.0,0.0,4.0,4.0,386.1754750000727,1.0,1.0,phase_1,,,,,,,,,,,,,yellow,triangle
116.0,2.0,2.0,0.0,1.0,1.0,340.6789609998668,1.0,1.0,phase_1,,,,,,,,,,,,,orange,circle
0.0,5.0,0.0,1.0,1.0,1.0,377.4426200002381,1.0,1.0,phase_1,,,,,,,,,,,,,magenta,I
100.0,6.0,2.0,1.0,4.0,4.0,345.646201999898,1.0,1.0,phase_1,,,,,,,,,,,,,cyan,diamond
60.0,5.0,1.0,1.0,2.0,2.0,459.9722670000119,1.0,1.0,phase_1,,,,,,,,,,,,,magenta,I
0.0,7.0,0.0,1.0,3.0,3.0,400.2434049998555,1.0,1.0,phase_1,,,,,,,,,,,,,gray,cross
222.0,7.0,3.0,1.0,3.0,3.0,344.5321569997759,1.0,1.0,phase_1,,,,,,,,,,,,,gray,cross
0.0,1.0,0.0,0.0,3.0,3.0,328.6594349997358,1.0,1.0,phase_1,,,,,,,,,,,,,green,flipped triangle
395.0,8.0,4.0,1.0,2.0,2.0,420.7470470000771,1.0,1.0,phase_1,,,,,,,,,,,,,white,hexagon
0.0,4.0,0.0,0.0,4.0,4.0,276.570074999654,1.0,1.0,phase_1,,,,,,,,,,,,,yellow,triangle
0.0,8.0,0.0,1.0,4.0,4.0,329.0215729998635,1.0,1.0,phase_1,,,,,,,,,,,,,white,hexagon
200.0,3.0,3.0,0.0,2.0,2.0,386.644902000171,1.0,1.0,phase_1,,,,,,,,,,,,,blue,square
0.0,4.0,0.0,0.0,1.0,1.0,445.716509000249,1.0,1.0,phase_1,,,,,,,,,,,,,yellow,triangle
69.0,5.0,1.0,1.0,3.0,3.0,417.0417059999636,1.0,1.0,phase_1,,,,,,,,,,,,,magenta,I
50.0,1.0,1.0,0.0,4.0,4.0,303.6053789996913,1.0,1.0,phase_1,,,,,,,,,,,,,green,flipped triangle
69.0,1.0,1.0,0.0,1.0,1.0,316.5604490000078,1.0,1.0,phase_1,,,,,,,,,,,,,green,flipped triangle
212.0,3.0,3.0,0.0,2.0,2.0,350.1766899998983,1.0,1.0,phase_1,,,,,,,,,,,,,blue,square
0.0,6.0,0.0,1.0,2.0,2.0,399.0445330000511,1.0,1.0,phase_1,,,,,,,,,,,,,cyan,diamond
390.0,8.0,4.0,1.0,3.0,3.0,407.2200570003588,1.0,2.0,phase_1,,,,,,,,,,,,,white,hexagon
217.0,3.0,3.0,0.0,3.0,3.0,454.9039779999475,1.0,1.0,phase_1,,,,,,,,,,,,,blue,square
385.0,8.0,4.0,1.0,1.0,1.0,409.0544410000802,1.0,1.0,phase_1,,,,,,,,,,,,,white,hexagon
79.0,2.0,2.0,0.0,3.0,3.0,466.843825000069,1.0,1.0,phase_1,,,,,,,,,,,,,orange,circle
410.0,8.0,4.0,1.0,4.0,4.0,438.1780550002077,1.0,1.0,phase_1,,,,,,,,,,,,,white,hexagon
34.0,5.0,1.0,1.0,3.0,3.0,397.2563280003669,1.0,1.0,phase_1,,,,,,,,,,,,,magenta,I
0.0,1.0,0.0,0.0,1.0,1.0,359.5317460003571,1.0,1.0,phase_1,,,,,,,,,,,,,green,flipped triangle
0.0,5.0,0.0,1.0,4.0,4.0,383.3072570000695,1.0,1.0,phase_1,,,,,,,,,,,,,magenta,I
0.0,7.0,0.0,1.0,3.0,3.0,374.5519880003485,1.0,1.0,phase_1,,,,,,,,,,,,,gray,cross
409.0,4.0,4.0,0.0,2.0,2.0,411.2468590001299,1.0,1.0,phase_1,,,,,,,,,,,,,yellow,triangle
57.0,1.0,1.0,0.0,1.0,1.0,430.7451760000731,1.0,1.0,phase_1,,,,,,,,,,,,,green,flipped triangle
0.0,2.0,0.0,0.0,3.0,3.0,319.4320860002335,1.0,1.0,phase_1,,,,,,,,,,,,,orange,circle
70.0,5.0,1.0,1.0,3.0,3.0,410.4125529997873,1.0,1.0,phase_1,,,,,,,,,,,,,magenta,I
62.0,5.0,1.0,1.0,2.0,2.0,577.4537270003748,1.0,1.0,phase_1,,,,,,,,,,,,,magenta,I
421.0,4.0,4.0,0.0,2.0,2.0,400.5623570001262,1.0,1.0,phase_1,,,,,,,,,,,,,yellow,triangle
0.0,6.0,0.0,1.0,1.0,1.0,376.9746080001823,2.0,1.0,phase_1,,,,,,,,,,,,,cyan,diamond
120.0,2.0,2.0,0.0,3.0,3.0,415.146654000182,2.0,1.0,phase_1,,,,,,,,,,,,,orange,circle
411.0,4.0,4.0,0.0,3.0,3.0,348.9356789996236,2.0,1.0,phase_1,,,,,,,,,,,,,yellow,triangle
98.0,2.0,2.0,0.0,4.0,4.0,370.1912260003155,2.0,1.0,phase_1,,,,,,,,,,,,,orange,circle
91.0,2.0,2.0,0.0,2.0,2.0,375.8904069995878,2.0,1.0,phase_1,,,,,,,,,,,,,orange,circle
383.0,8.0,4.0,1.0,3.0,3.0,333.4911289998672,2.0,1.0,phase_1,,,,,,,,,,,,,white,hexagon
176.0,3.0,3.0,0.0,3.0,3.0,344.0559030000258,2.0,1.0,phase_1,,,,,,,,,,,,,blue,square
183.0,3.0,3.0,0.0,3.0,3.0,406.6295190000346,2.0,1.0,phase_1,,,,,,,,,,,,,blue,square
202.0,7.0,3.0,1.0,4.0,4.0,446.220429999812,2.0,1.0,phase_1,,,,,,,,,,,,,gray,cross
0.0,3.0,0.0,0.0,2.0,2.0,413.9533140000822,2.0,1.0,phase_1,,,,,,,,,,,,,blue,square
70.0,1.0,1.0,0.0,1.0,1.0,359.753166000246,2.0,1.0,phase_1,,,,,,,,,,,,,green,flipped triangle
46.0,1.0,1.0,0.0,1.0,1.0,351.4805730001171,2.0,1.0,phase_1,,,,,,,,,,,,,green,flipped triangle
57.0,5.0,1.0,1.0,1.0,1.0,359.0757980000489,2.0,1.0,phase_1,,,,,,,,,,,,,magenta,I
26.0,1.0,1.0,0.0,4.0,4.0,401.5413970000736,2.0,1.0,phase_1,,,,,,,,,,,,,green,flipped triangle
395.0,4.0,4.0,0.0,1.0,1.0,384.7233209999103,2.0,1.0,phase_1,,,,,,,,,,,,,yellow,triangle
57.0,5.0,1.0,1.0,3.0,3.0,376.8772700000227,2.0,1.0,phase_1,,,,,,,,,,,,,magenta,I
34.0,1.0,1.0,0.0,1.0,1.0,375.7270999999491,2.0,1.0,phase_1,,,,,,,,,,,,,green,flipped triangle
197.0,3.0,3.0,0.0,3.0,3.0,319.8973059998025,2.0,1.0,phase_1,,,,,,,,,,,,,blue,square
421.0,8.0,4.0,1.0,4.0,4.0,443.7316039998222,2.0,1.0,phase_1,,,,,,,,,,,,,white,hexagon
62.0,1.0,1.0,0.0,4.0,4.0,440.7352100001844,2.0,1.0,phase_1,,,,,,,,,,,,,green,flipped triangle
61.0,5.0,1.0,1.0,1.0,1.0,352.2667890001685,2.0,1.0,phase_1,,,,,,,,,,,,,magenta,I
199.0,3.0,3.0,0.0,4.0,4.0,426.0768159997496,2.0,1.0,phase_1,,,,,,,,,,,,,blue,square
411.0,8.0,4.0,1.0,1.0,1.0,380.3337119998105,2.0,1.0,phase_1,,,,,,,,,,,,,white,hexagon
50.0,5.0,1.0,1.0,2.0,2.0,358.511358999749,2.0,1.0,phase_1,,,,,,,,,,,,,magenta,I
112.0,2.0,2.0,0.0,4.0,4.0,352.5429220003389,2.0,1.0,phase_1,,,,,,,,,,,,,orange,circle
85.0,2.0,2.0,0.0,2.0,2.0,368.5419470002671,2.0,1.0,phase_1,,,,,,,,,,,,,orange,circle
97.0,6.0,2.0,1.0,2.0,2.0,406.3830490003965,2.0,1.0,phase_1,,,,,,,,,,,,,cyan,diamond
52.0,1.0,1.0,0.0,3.0,3.0,339.4332099996973,2.0,1.0,phase_1,,,,,,,,,,,,,green,flipped triangle
0.0,4.0,0.0,0.0,1.0,1.0,342.6315940000677,2.0,1.0,phase_1,,,,,,,,,,,,,yellow,triangle
214.0,3.0,3.0,0.0,1.0,1.0,363.8092460000734,2.0,1.0,phase_1,,,,,,,,,,,,,blue,square
415.0,4.0,4.0,0.0,3.0,3.0,343.6130160002903,2.0,1.0,phase_1,,,,,,,,,,,,,yellow,triangle
0.0,1.0,0.0,0.0,2.0,2.0,350.4646609999327,2.0,1.0,phase_1,,,,,,,,,,,,,green,flipped triangle
35.0,1.0,1.0,0.0,3.0,3.0,373.8995140001862,2.0,1.0,phase_1,,,,,,,,,,,,,green,flipped triangle
212.0,7.0,3.0,1.0,2.0,2.0,396.3934370003699,2.0,1.0,phase_1,,,,,,,,,,,,,gray,cross
70.0,5.0,1.0,1.0,3.0,3.0,396.1595119999401,2.0,1.0,phase_1,,,,,,,,,,,,,magenta,I
0.0,5.0,0.0,1.0,3.0,3.0,364.3609410000863,2.0,1.0,phase_1,,,,,,,,,,,,,magenta,I
410.0,4.0,4.0,0.0,2.0,2.0,363.4561550002217,2.0,1.0,phase_1,,,,,,,,,,,,,yellow,triangle
91.0,6.0,2.0,1.0,3.0,3.0,353.6641499999859,2.0,1.0,phase_1,,,,,,,,,,,,,cyan,diamond
26.0,5.0,1.0,1.0,1.0,1.0,322.2821150002346,2.0,1.0,phase_1,,,,,,,,,,,,,magenta,I
99.0,2.0,2.0,0.0,2.0,2.0,497.0679170000949,2.0,1.0,phase_1,,,,,,,,,,,,,orange,circle
0.0,3.0,0.0,0.0,3.0,3.0,334.0300119998574,2.0,1.0,phase_1,,,,,,,,,,,,,blue,square
0.0,6.0,0.0,1.0,3.0,3.0,366.9166119998408,2.0,1.0,phase_1,,,,,,,,,,,,,cyan,diamond
407.0,4.0,4.0,0.0,4.0,4.0,378.0423749999499,2.0,1.0,phase_1,,,,,,,,,,,,,yellow,triangle
117.0,6.0,2.0,1.0,2.0,2.0,346.2656460001199,2.0,1.0,phase_1,,,,,,,,,,,,,cyan,diamond
181.0,3.0,3.0,0.0,1.0,1.0,354.3698239996047,2.0,1.0,phase_1,,,,,,,,,,,,,blue,square
106.0,6.0,2.0,1.0,1.0,1.0,340.6450649999897,2.0,1.0,phase_1,,,,,,,,,,,,,cyan,diamond
392.0,4.0,4.0,0.0,1.0,1.0,376.7593669999769,2.0,1.0,phase_1,,,,,,,,,,,,,yellow,triangle
0.0,5.0,0.0,1.0,3.0,3.0,327.4467330002153,2.0,1.0,phase_1,,,,,,,,,,,,,magenta,I
400.0,4.0,4.0,0.0,2.0,2.0,400.2333339999495,2.0,1.0,phase_1,,,,,,,,,,,,,yellow,triangle
395.0,8.0,4.0,1.0,3.0,3.0,450.1592739998159,2.0,1.0,phase_1,,,,,,,,,,,,,white,hexagon
204.0,3.0,3.0,0.0,3.0,3.0,382.6362779996088,2.0,1.0,phase_1,,,,,,,,,,,,,blue,square
98.0,6.0,2.0,1.0,4.0,4.0,400.1975870000933,2.0,1.0,phase_1,,,,,,,,,,,,,cyan,diamond
414.0,8.0,4.0,1.0,1.0,1.0,362.7115069998581,2.0,1.0,phase_1,,,,,,,,,,,,,white,hexagon
409.0,4.0,4.0,0.0,3.0,3.0,396.9771480001327,2.0,1.0,phase_1,,,,,,,,,,,,,yellow,triangle
86.0,2.0,2.0,0.0,4.0,4.0,390.8961669999371,2.0,1.0,phase_1,,,,,,,,,,,,,orange,circle
393.0,8.0,4.0,1.0,4.0,4.0,484.4940500001939,2.0,1.0,phase_1,,,,,,,,,,,,,white,hexagon
28.0,1.0,1.0,0.0,4.0,4.0,384.8612470001171,2.0,1.0,phase_1,,,,,,,,,,,,,green,flipped triangle
205.0,3.0,3.0,0.0,4.0,4.0,332.4961439998333,2.0,1.0,phase_1,,,,,,,,,,,,,blue,square
402.0,8.0,4.0,1.0,3.0,3.0,344.0726900003028,2.0,1.0,phase_1,,,,,,,,,,,,,white,hexagon
0.0,5.0,0.0,1.0,2.0,2.0,407.6463239998702,2.0,1.0,phase_1,,,,,,,,,,,,,magenta,I
0.0,8.0,0.0,1.0,4.0,4.0,436.6853999999875,2.0,1.0,phase_1,,,,,,,,,,,,,white,hexagon
423.0,8.0,4.0,1.0,2.0,2.0,524.7879970002032,2.0,1.0,phase_1,,,,,,,,,,,,,white,hexagon
31.0,1.0,1.0,0.0,2.0,2.0,351.4341540003443,2.0,1.0,phase_1,,,,,,,,,,,,,green,flipped triangle
0.0,4.0,0.0,0.0,3.0,3.0,315.1487899999665,2.0,1.0,phase_1,,,,,,,,,,,,,yellow,triangle
116.0,2.0,2.0,0.0,4.0,4.0,431.78355300005927,2.0,1.0,phase_1,,,,,,,,,,,,,orange,circle
214.0,3.0,3.0,0.0,4.0,4.0,326.1414909998166,2.0,1.0,phase_1,,,,,,,,,,,,,blue,square
108.0,2.0,2.0,0.0,2.0,2.0,394.0254590002041,2.0,1.0,phase_1,,,,,,,,,,,,,orange,circle
404.0,4.0,4.0,0.0,3.0,3.0,371.6712279997409,2.0,1.0,phase_1,,,,,,,,,,,,,yellow,triangle
0.0,4.0,0.0,0.0,4.0,4.0,369.6326829999634,2.0,1.0,phase_1,,,,,,,,,,,,,yellow,triangle
0.0,4.0,0.0,0.0,3.0,3.0,353.9709800002129,2.0,1.0,phase_1,,,,,,,,,,,,,yellow,triangle
396.0,4.0,4.0,0.0,4.0,4.0,314.0571730000374,2.0,1.0,phase_1,,,,,,,,,,,,,yellow,triangle
216.0,3.0,3.0,0.0,4.0,4.0,345.6135159999576,2.0,1.0,phase_1,,,,,,,,,,,,,blue,square
218.0,3.0,3.0,0.0,1.0,1.0,351.8899260002399,2.0,1.0,phase_1,,,,,,,,,,,,,blue,square
392.0,4.0,4.0,0.0,2.0,2.0,380.4553919999307,2.0,1.0,phase_1,,,,,,,,,,,,,yellow,triangle
196.0,3.0,3.0,0.0,2.0,2.0,367.630674999873,2.0,1.0,phase_1,,,,,,,,,,,,,blue,square
216.0,3.0,3.0,0.0,1.0,1.0,380.0332609998804,2.0,1.0,phase_1,,,,,,,,,,,,,blue,square
117.0,2.0,2.0,0.0,2.0,2.0,355.1812559999234,2.0,1.0,phase_1,,,,,,,,,,,,,orange,circle
418.0,8.0,4.0,1.0,1.0,1.0,360.4232329998922,2.0,1.0,phase_1,,,,,,,,,,,,,white,hexagon
64.0,5.0,1.0,1.0,3.0,3.0,336.0730869999315,2.0,1.0,phase_1,,,,,,,,,,,,,magenta,I
197.0,7.0,3.0,1.0,2.0,2.0,396.5203940001629,2.0,1.0,phase_1,,,,,,,,,,,,,gray,cross
212.0,7.0,3.0,1.0,1.0,1.0,414.3780310000693,2.0,1.0,phase_1,,,,,,,,,,,,,gray,cross
26.0,1.0,1.0,0.0,2.0,2.0,383.1244760003756,2.0,1.0,phase_1,,,,,,,,,,,,,green,flipped triangle
0.0,6.0,0.0,1.0,3.0,3.0,347.2091009998621,2.0,1.0,phase_1,,,,,,,,,,,,,cyan,diamond
41.0,5.0,1.0,1.0,2.0,2.0,362.9236550000314,2.0,1.0,phase_1,,,,,,,,,,,,,magenta,I
392.0,8.0,4.0,1.0,2.0,2.0,351.6064310001638,2.0,1.0,phase_1,,,,,,,,,,,,,white,hexagon
41.0,1.0,1.0,0.0,2.0,2.0,415.3749449997121,2.0,1.0,phase_1,,,,,,,,,,,,,green,flipped triangle
205.0,7.0,3.0,1.0,1.0,1.0,312.370570999974,2.0,1.0,phase_1,,,,,,,,,,,,,gray,cross
220.0,3.0,3.0,0.0,4.0,4.0,362.7156469997317,2.0,1.0,phase_1,,,,,,,,,,,,,blue,square
188.0,7.0,3.0,1.0,4.0,4.0,394.3156650002493,2.0,1.0,phase_1,,,,,,,,,,,,,gray,cross
197.0,7.0,3.0,1.0,1.0,1.0,367.7708330001223,2.0,1.0,phase_1,,,,,,,,,,,,,gray,cross
0.0,2.0,0.0,0.0,1.0,1.0,378.9103419999264,2.0,1.0,phase_1,,,,,,,,,,,,,orange,circle
69.0,5.0,1.0,1.0,2.0,2.0,446.2533949999852,2.0,1.0,phase_1,,,,,,,,,,,,,magenta,I
105.0,2.0,2.0,0.0,3.0,3.0,422.3304140000437,2.0,1.0,phase_1,,,,,,,,,,,,,orange,circle
104.0,2.0,2.0,0.0,3.0,3.0,403.4170410000115,2.0,1.0,phase_1,,,,,,,,,,,,,orange,circle
204.0,7.0,3.0,1.0,1.0,1.0,398.108215999855,2.0,1.0,phase_1,,,,,,,,,,,,,gray,cross
0.0,2.0,0.0,0.0,2.0,2.0,391.9098020001001,2.0,1.0,phase_1,,,,,,,,,,,,,orange,circle
185.0,3.0,3.0,0.0,2.0,2.0,528.3271610001066,2.0,1.0,phase_1,,,,,,,,,,,,,blue,square
422.0,8.0,4.0,1.0,3.0,3.0,456.7433219999657,2.0,1.0,phase_1,,,,,,,,,,,,,white,hexagon
199.0,7.0,3.0,1.0,4.0,4.0,473.8864509999985,2.0,1.0,phase_1,,,,,,,,,,,,,gray,cross
0.0,3.0,0.0,0.0,4.0,4.0,382.0982540000841,2.0,1.0,phase_1,,,,,,,,,,,,,blue,square
120.0,2.0,2.0,0.0,3.0,3.0,426.364822999858,3.0,1.0,phase_1,,,,,,,,,,,,,orange,circle
87.0,2.0,2.0,0.0,2.0,2.0,330.8311670002695,3.0,1.0,phase_1,,,,,,,,,,,,,orange,circle
88.0,6.0,2.0,1.0,1.0,1.0,351.7844550001427,3.0,1.0,phase_1,,,,,,,,,,,,,cyan,diamond
70.0,1.0,1.0,0.0,3.0,3.0,300.8770839996941,3.0,1.0,phase_1,,,,,,,,,,,,,green,flipped triangle
384.0,8.0,4.0,1.0,4.0,4.0,319.3944369995734,3.0,1.0,phase_1,,,,,,,,,,,,,white,hexagon
415.0,8.0,4.0,1.0,1.0,1.0,308.8802960000976,3.0,1.0,phase_1,,,,,,,,,,,,,white,hexagon
390.0,8.0,4.0,1.0,3.0,3.0,262.8240959998038,3.0,1.0,phase_1,,,,,,,,,,,,,white,hexagon
402.0,4.0,4.0,0.0,3.0,3.0,346.3995500001147,3.0,1.0,phase_1,,,,,,,,,,,,,yellow,triangle
199.0,3.0,3.0,0.0,2.0,2.0,362.9272709999895,3.0,1.0,phase_1,,,,,,,,,,,,,blue,square
401.0,8.0,4.0,1.0,3.0,3.0,360.2337259999331,3.0,1.0,phase_1,,,,,,,,,,,,,white,hexagon
28.0,1.0,1.0,0.0,4.0,4.0,283.2494790000055,3.0,1.0,phase_1,,,,,,,,,,,,,green,flipped triangle
177.0,7.0,3.0,1.0,2.0,2.0,337.4052059998575,3.0,1.0,phase_1,,,,,,,,,,,,,gray,cross
383.0,4.0,4.0,0.0,3.0,3.0,330.3269120001459,3.0,1.0,phase_1,,,,,,,,,,,,,yellow,triangle
82.0,6.0,2.0,1.0,3.0,3.0,400.5144370003108,3.0,1.0,phase_1,,,,,,,,,,,,,cyan,diamond
112.0,2.0,2.0,0.0,2.0,2.0,350.0655439997899,3.0,1.0,phase_1,,,,,,,,,,,,,orange,circle
207.0,3.0,3.0,0.0,1.0,1.0,376.1396400000194,3.0,1.0,phase_1,,,,,,,,,,,,,blue,square
116.0,6.0,2.0,1.0,3.0,3.0,300.6362890000673,3.0,1.0,phase_1,,,,,,,,,,,,,cyan,diamond
381.0,8.0,4.0,1.0,4.0,4.0,357.6626920003036,3.0,1.0,phase_1,,,,,,,,,,,,,white,hexagon
185.0,7.0,3.0,1.0,4.0,4.0,369.805775000259,3.0,1.0,phase_1,,,,,,,,,,,,,gray,cross
218.0,3.0,3.0,0.0,3.0,3.0,327.6138349997382,3.0,1.0,phase_1,,,,,,,,,,,,,blue,square
0.0,6.0,0.0,1.0,1.0,1.0,407.1286840003267,3.0,1.0,phase_1,,,,,,,,,,,,,cyan,diamond
0.0,8.0,0.0,1.0,3.0,3.0,322.756594999646,3.0,1.0,phase_1,,,,,,,,,,,,,white,hexagon
73.0,5.0,1.0,1.0,4.0,4.0,372.284626000237,3.0,1.0,phase_1,,,,,,,,,,,,,magenta,I
176.0,7.0,3.0,1.0,3.0,3.0,335.0072379998892,3.0,1.0,phase_1,,,,,,,,,,,,,gray,cross
382.0,4.0,4.0,0.0,4.0,4.0,340.9101810002539,3.0,1.0,phase_1,,,,,,,,,,,,,yellow,triangle
90.0,6.0,2.0,1.0,4.0,4.0,357.2836520002056,3.0,1.0,phase_1,,,,,,,,,,,,,cyan,diamond
411.0,4.0,4.0,0.0,3.0,3.0,289.577042000019,3.0,1.0,phase_1,,,,,,,,,,,,,yellow,triangle
202.0,3.0,3.0,0.0,3.0,3.0,360.4609970002457,3.0,1.0,phase_1,,,,,,,,,,,,,blue,square
0.0,1.0,0.0,0.0,1.0,1.0,322.4736299998767,3.0,1.0,phase_1,,,,,,,,,,,,,green,flipped triangle
46.0,1.0,1.0,0.0,1.0,1.0,326.1781419996623,3.0,1.0,phase_1,,,,,,,,,,,,,green,flipped triangle
0.0,2.0,0.0,0.0,2.0,2.0,391.2943860000268,3.0,1.0,phase_1,,,,,,,,,,,,,orange,circle
48.0,5.0,1.0,1.0,3.0,3.0,287.9032050000205,3.0,1.0,phase_1,,,,,,,,,,,,,magenta,I
216.0,7.0,3.0,1.0,1.0,1.0,319.4947669999237,3.0,1.0,phase_1,,,,,,,,,,,,,gray,cross
218.0,7.0,3.0,1.0,1.0,1.0,318.404718000238,3.0,1.0,phase_1,,,,,,,,,,,,,gray,cross
406.0,4.0,4.0,0.0,1.0,1.0,323.9486610000313,3.0,1.0,phase_1,,,,,,,,,,,,,yellow,triangle
417.0,8.0,4.0,1.0,2.0,2.0,372.1905960001095,3.0,1.0,phase_1,,,,,,,,,,,,,white,hexagon
0.0,6.0,0.0,1.0,2.0,2.0,343.0669760000455,3.0,1.0,phase_1,,,,,,,,,,,,,cyan,diamond
103.0,6.0,2.0,1.0,1.0,1.0,309.3724149998706,3.0,1.0,phase_1,,,,,,,,,,,,,cyan,diamond
120.0,6.0,2.0,1.0,4.0,4.0,360.2770630000123,3.0,1.0,phase_1,,,,,,,,,,,,,cyan,diamond
91.0,2.0,2.0,0.0,2.0,2.0,318.1714499996815,3.0,1.0,phase_1,,,,,,,,,,,,,orange,circle
422.0,4.0,4.0,0.0,4.0,4.0,362.6605009999366,3.0,1.0,phase_1,,,,,,,,,,,,,yellow,triangle
108.0,6.0,2.0,1.0,1.0,1.0,321.6523099999904,3.0,1.0,phase_1,,,,,,,,,,,,,cyan,diamond
216.0,7.0,3.0,1.0,3.0,3.0,308.9017339998463,3.0,1.0,phase_1,,,,,,,,,,,,,gray,cross
181.0,7.0,3.0,1.0,4.0,4.0,322.389418000057,3.0,1.0,phase_1,,,,,,,,,,,,,gray,cross
220.0,7.0,3.0,1.0,3.0,3.0,308.7997680004264,3.0,1.0,phase_1,,,,,,,,,,,,,gray,cross
179.0,3.0,3.0,0.0,1.0,1.0,319.811006999771,3.0,1.0,phase_1,,,,,,,,,,,,,blue,square
92.0,6.0,2.0,1.0,3.0,3.0,300.0460309999653,3.0,1.0,phase_1,,,,,,,,,,,,,cyan,diamond
0.0,5.0,0.0,1.0,4.0,4.0,302.1718969998801,3.0,1.0,phase_1,,,,,,,,,,,,,magenta,I
214.0,7.0,3.0,1.0,3.0,3.0,502.7781590001723,3.0,1.0,phase_1,,,,,,,,,,,,,gray,cross
398.0,8.0,4.0,1.0,2.0,2.0,376.5327979999711,3.0,1.0,phase_1,,,,,,,,,,,,,white,hexagon
63.0,1.0,1.0,0.0,4.0,4.0,330.00224499983227,3.0,1.0,phase_1,,,,,,,,,,,,,green,flipped triangle
384.0,4.0,4.0,0.0,1.0,1.0,315.9326889999647,3.0,1.0,phase_1,,,,,,,,,,,,,yellow,triangle
390.0,4.0,4.0,0.0,2.0,2.0,401.1181860000761,3.0,1.0,phase_1,,,,,,,,,,,,,yellow,triangle
392.0,8.0,4.0,1.0,3.0,3.0,285.4210730001796,3.0,1.0,phase_1,,,,,,,,,,,,,white,hexagon
222.0,3.0,3.0,0.0,2.0,2.0,410.3418159998,3.0,1.0,phase_1,,,,,,,,,,,,,blue,square
206.0,3.0,3.0,0.0,2.0,2.0,333.4564239999054,3.0,1.0,phase_1,,,,,,,,,,,,,blue,square
98.0,2.0,2.0,0.0,4.0,4.0,367.4511849999362,3.0,1.0,phase_1,,,,,,,,,,,,,orange,circle
98.0,6.0,2.0,1.0,4.0,4.0,336.493406000045,3.0,1.0,phase_1,,,,,,,,,,,,,cyan,diamond
0.0,7.0,0.0,1.0,1.0,1.0,316.3664089997837,3.0,1.0,phase_1,,,,,,,,,,,,,gray,cross
69.0,1.0,1.0,0.0,4.0,4.0,315.5722870001227,3.0,1.0,phase_1,,,,,,,,,,,,,green,flipped triangle
385.0,4.0,4.0,0.0,4.0,4.0,326.7280049999499,3.0,1.0,phase_1,,,,,,,,,,,,,yellow,triangle
67.0,5.0,1.0,1.0,4.0,4.0,424.9081909997585,3.0,1.0,phase_1,,,,,,,,,,,,,magenta,I
0.0,3.0,0.0,0.0,4.0,4.0,364.5108820001042,3.0,1.0,phase_1,,,,,,,,,,,,,blue,square
111.0,6.0,2.0,1.0,2.0,2.0,365.6073480001396,3.0,1.0,phase_1,,,,,,,,,,,,,cyan,diamond
0.0,2.0,0.0,0.0,2.0,2.0,368.2904370002688,3.0,1.0,phase_1,,,,,,,,,,,,,orange,circle
414.0,4.0,4.0,0.0,3.0,3.0,326.0859430001801,3.0,1.0,phase_1,,,,,,,,,,,,,yellow,triangle
118.0,6.0,2.0,1.0,3.0,3.0,346.0677860002761,3.0,1.0,phase_1,,,,,,,,,,,,,cyan,diamond
70.0,1.0,1.0,0.0,2.0,2.0,318.9455550000275,3.0,1.0,phase_1,,,,,,,,,,,,,green,flipped triangle
181.0,7.0,3.0,1.0,2.0,2.0,336.7302669998935,3.0,1.0,phase_1,,,,,,,,,,,,,gray,cross
191.0,7.0,3.0,1.0,4.0,4.0,296.6934559999572,3.0,1.0,phase_1,,,,,,,,,,,,,gray,cross
200.0,7.0,3.0,1.0,2.0,2.0,394.9968110000554,3.0,1.0,phase_1,,,,,,,,,,,,,gray,cross
81.0,2.0,2.0,0.0,3.0,3.0,393.5198229996786,3.0,1.0,phase_1,,,,,,,,,,,,,orange,circle
71.0,1.0,1.0,0.0,2.0,2.0,614.4519679996847,3.0,1.0,phase_1,,,,,,,,,,,,,green,flipped triangle
396.0,8.0,4.0,1.0,1.0,1.0,439.7706189997734,3.0,1.0,phase_1,,,,,,,,,,,,,white,hexagon
67.0,1.0,1.0,0.0,3.0,3.0,350.4978209998626,3.0,1.0,phase_1,,,,,,,,,,,,,green,flipped triangle
0.0,5.0,0.0,1.0,4.0,4.0,488.8388389999818,3.0,1.0,phase_1,,,,,,,,,,,,,magenta,I
192.0,7.0,3.0,1.0,2.0,2.0,362.7440410000417,3.0,1.0,phase_1,,,,,,,,,,,,,gray,cross
59.0,1.0,1.0,0.0,3.0,3.0,386.9464819999848,3.0,1.0,phase_1,,,,,,,,,,,,,green,flipped triangle
0.0,8.0,0.0,1.0,1.0,1.0,358.5370720002174,3.0,1.0,phase_1,,,,,,,,,,,,,white,hexagon
0.0,3.0,0.0,0.0,4.0,4.0,360.8992340000441,3.0,1.0,phase_1,,,,,,,,,,,,,blue,square
116.0,6.0,2.0,1.0,2.0,2.0,368.8399850002497,3.0,1.0,phase_1,,,,,,,,,,,,,cyan,diamond
31.0,5.0,1.0,1.0,1.0,1.0,377.9781050002384,3.0,1.0,phase_1,,,,,,,,,,,,,magenta,I
386.0,8.0,4.0,1.0,4.0,4.0,359.1917830003694,3.0,1.0,phase_1,,,,,,,,,,,,,white,hexagon
188.0,3.0,3.0,0.0,4.0,4.0,403.7255580001329,3.0,1.0,phase_1,,,,,,,,,,,,,blue,square
400.0,8.0,4.0,1.0,2.0,2.0,343.3318580000559,3.0,1.0,phase_1,,,,,,,,,,,,,white,hexagon
0.0,8.0,0.0,1.0,2.0,2.0,386.3415089999762,3.0,1.0,phase_1,,,,,,,,,,,,,white,hexagon
214.0,7.0,3.0,1.0,3.0,3.0,360.2459960002306,3.0,1.0,phase_1,,,,,,,,,,,,,gray,cross
191.0,3.0,3.0,0.0,2.0,2.0,325.7341649996306,3.0,1.0,phase_1,,,,,,,,,,,,,blue,square
0.0,4.0,0.0,0.0,1.0,1.0,366.2996170000951,3.0,1.0,phase_1,,,,,,,,,,,,,yellow,triangle
100.0,2.0,2.0,0.0,1.0,1.0,364.1903650000131,3.0,1.0,phase_1,,,,,,,,,,,,,orange,circle
197.0,3.0,3.0,0.0,4.0,4.0,351.636046999829,3.0,1.0,phase_1,,,,,,,,,,,,,blue,square
81.0,6.0,2.0,1.0,4.0,4.0,362.6487550000092,3.0,1.0,phase_1,,,,,,,,,,,,,cyan,diamond
82.0,2.0,2.0,0.0,2.0,2.0,399.602472999959,3.0,1.0,phase_1,,,,,,,,,,,,,orange,circle
109.0,2.0,2.0,0.0,1.0,1.0,515.3041960002156,3.0,1.0,phase_1,,,,,,,,,,,,,orange,circle
0.0,5.0,0.0,1.0,2.0,2.0,382.7859819998593,3.0,1.0,phase_1,,,,,,,,,,,,,magenta,I
85.0,6.0,2.0,1.0,2.0,2.0,366.6631189998952,3.0,1.0,phase_1,,,,,,,,,,,,,cyan,diamond
61.0,1.0,1.0,0.0,3.0,3.0,383.5954780001884,3.0,1.0,phase_1,,,,,,,,,,,,,green,flipped triangle
381.0,4.0,4.0,0.0,2.0,2.0,343.1341339996834,3.0,1.0,phase_1,,,,,,,,,,,,,yellow,triangle
0.0,8.0,0.0,1.0,4.0,4.0,408.3925170002658,3.0,2.0,phase_1,,,,,,,,,,,,,white,hexagon
0.0,2.0,0.0,0.0,3.0,3.0,362.3082219996831,3.0,1.0,phase_1,,,,,,,,,,,,,orange,circle
407.0,8.0,4.0,1.0,2.0,2.0,401.34636699986,4.0,1.0,phase_1,,,,,,,,,,,,,white,hexagon
57.0,1.0,1.0,0.0,4.0,4.0,427.8364940000756,4.0,1.0,phase_1,,,,,,,,,,,,,green,flipped triangle
192.0,3.0,3.0,0.0,1.0,1.0,519.9999420001404,4.0,1.0,phase_1,,,,,,,,,,,,,blue,square
196.0,7.0,3.0,1.0,1.0,1.0,374.7105349998492,4.0,1.0,phase_1,,,,,,,,,,,,,gray,cross
103.0,6.0,2.0,1.0,4.0,4.0,334.3773740002689,4.0,1.0,phase_1,,,,,,,,,,,,,cyan,diamond
0.0,7.0,0.0,1.0,2.0,2.0,374.9387010002465,4.0,1.0,phase_1,,,,,,,,,,,,,gray,cross
123.0,2.0,2.0,0.0,3.0,3.0,321.6797119998773,4.0,1.0,phase_1,,,,,,,,,,,,,orange,circle
109.0,6.0,2.0,1.0,4.0,4.0,417.5330499997471,4.0,1.0,phase_1,,,,,,,,,,,,,cyan,diamond
189.0,7.0,3.0,1.0,3.0,3.0,426.792383999782,4.0,1.0,phase_1,,,,,,,,,,,,,gray,cross
92.0,2.0,2.0,0.0,1.0,1.0,349.1000710000662,4.0,1.0,phase_1,,,,,,,,,,,,,orange,circle
58.0,1.0,1.0,0.0,3.0,3.0,298.4720880003806,4.0,1.0,phase_1,,,,,,,,,,,,,green,flipped triangle
92.0,2.0,2.0,0.0,4.0,4.0,347.0942870003455,4.0,1.0,phase_1,,,,,,,,,,,,,orange,circle
59.0,5.0,1.0,1.0,2.0,2.0,400.5145080000147,4.0,1.0,phase_1,,,,,,,,,,,,,magenta,I
88.0,2.0,2.0,0.0,3.0,3.0,321.2502020001011,4.0,1.0,phase_1,,,,,,,,,,,,,orange,circle
41.0,1.0,1.0,0.0,3.0,3.0,377.2427269996115,4.0,1.0,phase_1,,,,,,,,,,,,,green,flipped triangle
0.0,3.0,0.0,0.0,3.0,3.0,346.1336189998292,4.0,1.0,phase_1,,,,,,,,,,,,,blue,square
80.0,6.0,2.0,1.0,2.0,2.0,375.3465849999884,4.0,1.0,phase_1,,,,,,,,,,,,,cyan,diamond
196.0,3.0,3.0,0.0,2.0,2.0,398.3738780002568,4.0,1.0,phase_1,,,,,,,,,,,,,blue,square
179.0,7.0,3.0,1.0,3.0,3.0,512.7990990004037,4.0,1.0,phase_1,,,,,,,,,,,,,gray,cross
381.0,8.0,4.0,1.0,4.0,4.0,362.6255040003343,4.0,1.0,phase_1,,,,,,,,,,,,,white,hexagon
103.0,2.0,2.0,0.0,1.0,1.0,404.9925539998185,4.0,1.0,phase_1,,,,,,,,,,,,,orange,circle
0.0,3.0,0.0,0.0,1.0,1.0,374.9775159999444,4.0,1.0,phase_1,,,,,,,,,,,,,blue,square
27.0,5.0,1.0,1.0,2.0,2.0,418.4094980000736,4.0,1.0,phase_1,,,,,,,,,,,,,magenta,I
418.0,4.0,4.0,0.0,4.0,4.0,319.3482650003716,4.0,1.0,phase_1,,,,,,,,,,,,,yellow,triangle
41.0,5.0,1.0,1.0,4.0,4.0,393.0054470001778,4.0,1.0,phase_1,,,,,,,,,,,,,magenta,I
50.0,5.0,1.0,1.0,4.0,4.0,412.6178129999971,4.0,1.0,phase_1,,,,,,,,,,,,,magenta,I
70.0,5.0,1.0,1.0,1.0,1.0,390.1736859997982,4.0,1.0,phase_1,,,,,,,,,,,,,magenta,I
35.0,5.0,1.0,1.0,1.0,1.0,419.4319309999628,4.0,1.0,phase_1,,,,,,,,,,,,,magenta,I
0.0,4.0,0.0,0.0,2.0,2.0,341.0159569998541,4.0,1.0,phase_1,,,,,,,,,,,,,yellow,triangle
222.0,7.0,3.0,1.0,3.0,3.0,529.7415550003279,4.0,1.0,phase_1,,,,,,,,,,,,,gray,cross
397.0,4.0,4.0,0.0,4.0,4.0,510.7759789998454,4.0,1.0,phase_1,,,,,,,,,,,,,yellow,triangle
192.0,3.0,3.0,0.0,3.0,3.0,429.439710999759,4.0,1.0,phase_1,,,,,,,,,,,,,blue,square
393.0,4.0,4.0,0.0,2.0,2.0,339.6623809999255,4.0,1.0,phase_1,,,,,,,,,,,,,yellow,triangle
100.0,6.0,2.0,1.0,4.0,4.0,348.9712949999557,4.0,1.0,phase_1,,,,,,,,,,,,,cyan,diamond
71.0,5.0,1.0,1.0,4.0,4.0,362.1773810000377,4.0,1.0,phase_1,,,,,,,,,,,,,magenta,I
411.0,8.0,4.0,1.0,1.0,1.0,357.2141240001656,4.0,1.0,phase_1,,,,,,,,,,,,,white,hexagon
177.0,3.0,3.0,0.0,4.0,4.0,388.2478739997168,4.0,1.0,phase_1,,,,,,,,,,,,,blue,square
90.0,2.0,2.0,0.0,1.0,1.0,415.7019419999415,4.0,1.0,phase_1,,,,,,,,,,,,,orange,circle
58.0,5.0,1.0,1.0,4.0,4.0,397.8811560000395,4.0,1.0,phase_1,,,,,,,,,,,,,magenta,I
0.0,2.0,0.0,0.0,3.0,3.0,391.4384659997267,4.0,1.0,phase_1,,,,,,,,,,,,,orange,circle
112.0,6.0,2.0,1.0,2.0,2.0,372.32975799997797,4.0,1.0,phase_1,,,,,,,,,,,,,cyan,diamond
181.0,3.0,3.0,0.0,4.0,4.0,314.4222529999751,4.0,1.0,phase_1,,,,,,,,,,,,,blue,square
207.0,7.0,3.0,1.0,1.0,1.0,344.4065570001839,4.0,1.0,phase_1,,,,,,,,,,,,,gray,cross
0.0,2.0,0.0,0.0,3.0,3.0,322.7711049999016,4.0,1.0,phase_1,,,,,,,,,,,,,orange,circle
79.0,6.0,2.0,1.0,3.0,3.0,351.9299459999274,4.0,1.0,phase_1,,,,,,,,,,,,,cyan,diamond
85.0,6.0,2.0,1.0,3.0,3.0,301.3558800003011,4.0,1.0,phase_1,,,,,,,,,,,,,cyan,diamond
57.0,1.0,1.0,0.0,3.0,3.0,403.775332999885,4.0,1.0,phase_1,,,,,,,,,,,,,green,flipped triangle
0.0,5.0,0.0,1.0,1.0,1.0,319.9874110000564,4.0,1.0,phase_1,,,,,,,,,,,,,magenta,I
390.0,4.0,4.0,0.0,1.0,1.0,340.8148259995869,4.0,1.0,phase_1,,,,,,,,,,,,,yellow,triangle
64.0,1.0,1.0,0.0,1.0,1.0,369.2024160000073,4.0,1.0,phase_1,,,,,,,,,,,,,green,flipped triangle
43.0,5.0,1.0,1.0,2.0,2.0,334.3605459999708,4.0,1.0,phase_1,,,,,,,,,,,,,magenta,I
112.0,6.0,2.0,1.0,3.0,3.0,339.5652959998188,4.0,1.0,phase_1,,,,,,,,,,,,,cyan,diamond
218.0,3.0,3.0,0.0,1.0,1.0,448.8697749998209,4.0,1.0,phase_1,,,,,,,,,,,,,blue,square
392.0,8.0,4.0,1.0,4.0,4.0,330.3243459999976,4.0,1.0,phase_1,,,,,,,,,,,,,white,hexagon
409.0,8.0,4.0,1.0,1.0,1.0,514.7255310002947,4.0,1.0,phase_1,,,,,,,,,,,,,white,hexagon
378.0,8.0,4.0,1.0,2.0,2.0,374.4913069999711,4.0,1.0,phase_1,,,,,,,,,,,,,white,hexagon
104.0,6.0,2.0,1.0,3.0,3.0,329.8340950000238,4.0,1.0,phase_1,,,,,,,,,,,,,cyan,diamond
100.0,2.0,2.0,0.0,2.0,2.0,357.1273479997217,4.0,1.0,phase_1,,,,,,,,,,,,,orange,circle
43.0,1.0,1.0,0.0,4.0,4.0,292.4733539998669,4.0,1.0,phase_1,,,,,,,,,,,,,green,flipped triangle
192.0,7.0,3.0,1.0,1.0,1.0,331.5134880003825,4.0,1.0,phase_1,,,,,,,,,,,,,gray,cross
28.0,5.0,1.0,1.0,4.0,4.0,342.2195180000926,4.0,1.0,phase_1,,,,,,,,,,,,,magenta,I
105.0,6.0,2.0,1.0,4.0,4.0,419.8412589998952,4.0,1.0,phase_1,,,,,,,,,,,,,cyan,diamond
218.0,7.0,3.0,1.0,2.0,2.0,399.5460450000792,4.0,1.0,phase_1,,,,,,,,,,,,,gray,cross
0.0,6.0,0.0,1.0,3.0,3.0,367.4344789997121,4.0,1.0,phase_1,,,,,,,,,,,,,cyan,diamond
87.0,6.0,2.0,1.0,2.0,2.0,397.5343769998289,4.0,1.0,phase_1,,,,,,,,,,,,,cyan,diamond
69.0,5.0,1.0,1.0,1.0,1.0,504.75711599983697,4.0,2.0,phase_1,,,,,,,,,,,,,magenta,I
0.0,8.0,0.0,1.0,4.0,4.0,373.6538140001357,4.0,1.0,phase_1,,,,,,,,,,,,,white,hexagon
73.0,1.0,1.0,0.0,2.0,2.0,385.7995489997847,4.0,1.0,phase_1,,,,,,,,,,,,,green,flipped triangle
0.0,7.0,0.0,1.0,4.0,4.0,487.1122939998713,4.0,1.0,phase_1,,,,,,,,,,,,,gray,cross
81.0,2.0,2.0,0.0,4.0,4.0,444.7426310002811,4.0,1.0,phase_1,,,,,,,,,,,,,orange,circle
120.0,6.0,2.0,1.0,3.0,3.0,317.5971939999726,4.0,1.0,phase_1,,,,,,,,,,,,,cyan,diamond
60.0,1.0,1.0,0.0,2.0,2.0,361.3398289999168,4.0,1.0,phase_1,,,,,,,,,,,,,green,flipped triangle
422.0,4.0,4.0,0.0,3.0,3.0,344.9727839997649,4.0,1.0,phase_1,,,,,,,,,,,,,yellow,triangle
395.0,4.0,4.0,0.0,2.0,2.0,426.028333999966,4.0,1.0,phase_1,,,,,,,,,,,,,yellow,triangle
188.0,3.0,3.0,0.0,1.0,1.0,503.87727699990137,4.0,1.0,phase_1,,,,,,,,,,,,,blue,square
0.0,7.0,0.0,1.0,2.0,2.0,440.1288620001651,4.0,1.0,phase_1,,,,,,,,,,,,,gray,cross
179.0,7.0,3.0,1.0,4.0,4.0,307.144992999838,4.0,1.0,phase_1,,,,,,,,,,,,,gray,cross
85.0,2.0,2.0,0.0,1.0,1.0,380.8970940003746,4.0,1.0,phase_1,,,,,,,,,,,,,orange,circle
123.0,6.0,2.0,1.0,2.0,2.0,410.6451440002274,4.0,1.0,phase_1,,,,,,,,,,,,,cyan,diamond
406.0,8.0,4.0,1.0,1.0,1.0,394.3385389998184,4.0,1.0,phase_1,,,,,,,,,,,,,white,hexagon
25.0,5.0,1.0,1.0,2.0,2.0,410.2400609999677,4.0,1.0,phase_1,,,,,,,,,,,,,magenta,I
409.0,8.0,4.0,1.0,2.0,2.0,383.8702050002212,4.0,1.0,phase_1,,,,,,,,,,,,,white,hexagon
57.0,5.0,1.0,1.0,4.0,4.0,390.330179999637,4.0,1.0,phase_1,,,,,,,,,,,,,magenta,I
0.0,2.0,0.0,0.0,3.0,3.0,632.07804700005,4.0,1.0,phase_1,,,,,,,,,,,,,orange,circle
0.0,8.0,0.0,1.0,3.0,3.0,438.6524279998411,4.0,1.0,phase_1,,,,,,,,,,,,,white,hexagon
392.0,4.0,4.0,0.0,4.0,4.0,395.6502490000275,4.0,1.0,phase_1,,,,,,,,,,,,,yellow,triangle
0.0,6.0,0.0,1.0,4.0,4.0,479.6600039999248,4.0,1.0,phase_1,,,,,,,,,,,,,cyan,diamond
195.0,3.0,3.0,0.0,3.0,3.0,431.7122149996066,4.0,1.0,phase_1,,,,,,,,,,,,,blue,square
81.0,6.0,2.0,1.0,1.0,1.0,412.9975730002115,4.0,1.0,phase_1,,,,,,,,,,,,,cyan,diamond
0.0,3.0,0.0,0.0,1.0,1.0,503.5093690003123,4.0,1.0,phase_1,,,,,,,,,,,,,blue,square
113.0,2.0,2.0,0.0,1.0,1.0,377.4808230000417,4.0,1.0,phase_1,,,,,,,,,,,,,orange,circle
48.0,1.0,1.0,0.0,1.0,1.0,497.8450039998279,4.0,1.0,phase_1,,,,,,,,,,,,,green,flipped triangle
196.0,7.0,3.0,1.0,2.0,2.0,448.2308689998717,4.0,1.0,phase_1,,,,,,,,,,,,,gray,cross
113.0,6.0,2.0,1.0,1.0,1.0,442.6678590002666,4.0,1.0,phase_1,,,,,,,,,,,,,cyan,diamond
222.0,3.0,3.0,0.0,1.0,1.0,377.1099099999446,4.0,1.0,phase_1,,,,,,,,,,,,,blue,square
46.0,5.0,1.0,1.0,1.0,1.0,395.8654899997782,4.0,1.0,phase_1,,,,,,,,,,,,,magenta,I
0.0,6.0,0.0,1.0,2.0,2.0,344.3506799999341,4.0,1.0,phase_1,,,,,,,,,,,,,cyan,diamond
0.0,7.0,0.0,1.0,2.0,2.0,365.4886270001043,4.0,1.0,phase_1,,,,,,,,,,,,,gray,cross
99.0,6.0,2.0,1.0,1.0,1.0,327.4242809998213,4.0,1.0,phase_1,,,,,,,,,,,,,cyan,diamond
86.0,6.0,2.0,1.0,1.0,1.0,359.332846000143,4.0,1.0,phase_1,,,,,,,,,,,,,cyan,diamond
0.0,3.0,3.0,0.0,5.0,5.0,463.274392999665,1.0,1.0,phase_2,go,250.0,250.0,1.0,,,,,,,,,blue,square
0.0,8.0,4.0,1.0,5.0,0.0,0.0,1.0,1.0,phase_2,stop,250.0,250.0,4.0,,,,,,,,,white,hexagon
0.0,3.0,3.0,0.0,5.0,5.0,531.5928949999034,1.0,1.0,phase_2,go,300.0,250.0,1.0,,,,,,,,,blue,square
0.0,5.0,1.0,1.0,6.0,0.0,0.0,1.0,1.0,phase_2,stop,300.0,250.0,4.0,,,,,,,,,magenta,I
0.0,6.0,2.0,1.0,6.0,6.0,416.574397000204,1.0,1.0,phase_2,stop,300.0,300.0,3.0,,,,,,,,,cyan,diamond
0.0,4.0,4.0,0.0,6.0,6.0,617.347066000093,1.0,1.0,phase_2,go,300.0,250.0,1.0,,,,,,,,,yellow,triangle
0.0,6.0,2.0,1.0,5.0,0.0,0.0,1.0,1.0,phase_2,stop,300.0,250.0,4.0,,,,,,,,,cyan,diamond
0.0,7.0,3.0,1.0,6.0,6.0,660.8073259999401,1.0,1.0,phase_2,go,350.0,250.0,1.0,,,,,,,,,gray,cross
0.0,8.0,4.0,1.0,5.0,0.0,0.0,1.0,1.0,phase_2,stop,350.0,250.0,4.0,,,,,,,,,white,hexagon
0.0,7.0,3.0,1.0,5.0,5.0,678.7656260003132,1.0,1.0,phase_2,go,400.0,250.0,1.0,,,,,,,,,gray,cross
0.0,6.0,2.0,1.0,5.0,5.0,513.5244289999719,1.0,1.0,phase_2,go,400.0,250.0,1.0,,,,,,,,,cyan,diamond
0.0,7.0,3.0,1.0,5.0,0.0,0.0,1.0,1.0,phase_2,stop,400.0,250.0,4.0,,,,,,,,,gray,cross
0.0,4.0,4.0,0.0,6.0,6.0,591.0430920002909,1.0,1.0,phase_2,go,450.0,250.0,1.0,,,,,,,,,yellow,triangle
0.0,1.0,1.0,0.0,6.0,6.0,542.291990999729,1.0,1.0,phase_2,go,450.0,250.0,1.0,,,,,,,,,green,flipped triangle
0.0,3.0,3.0,0.0,5.0,5.0,710.1528949997373,1.0,1.0,phase_2,go,450.0,250.0,1.0,,,,,,,,,blue,square
0.0,6.0,2.0,1.0,6.0,0.0,0.0,1.0,1.0,phase_2,stop,450.0,250.0,4.0,,,,,,,,,cyan,diamond
0.0,8.0,4.0,1.0,6.0,0.0,0.0,1.0,1.0,phase_2,stop,450.0,300.0,4.0,,,,,,,,,white,hexagon
0.0,6.0,2.0,1.0,6.0,6.0,494.3103870000414,1.0,1.0,phase_2,stop,450.0,350.0,3.0,,,,,,,,,cyan,diamond
0.0,4.0,4.0,0.0,6.0,6.0,737.6363179996588,1.0,1.0,phase_2,go,450.0,300.0,1.0,,,,,,,,,yellow,triangle
0.0,2.0,2.0,0.0,5.0,5.0,606.9065659999069,1.0,1.0,phase_2,go,450.0,300.0,1.0,,,,,,,,,orange,circle
0.0,4.0,4.0,0.0,6.0,6.0,640.9558870000183,1.0,1.0,phase_2,go,450.0,300.0,1.0,,,,,,,,,yellow,triangle
0.0,2.0,2.0,0.0,6.0,6.0,763.725123000313,1.0,1.0,phase_2,go,450.0,300.0,1.0,,,,,,,,,orange,circle
0.0,3.0,3.0,0.0,5.0,5.0,713.7586120002197,1.0,1.0,phase_2,go,450.0,300.0,1.0,,,,,,,,,blue,square
0.0,2.0,2.0,0.0,6.0,6.0,793.4009619998506,1.0,1.0,phase_2,go,450.0,300.0,1.0,,,,,,,,,orange,circle
0.0,2.0,2.0,0.0,5.0,5.0,705.2850019999823,1.0,1.0,phase_2,go,450.0,300.0,1.0,,,,,,,,,orange,circle
0.0,8.0,4.0,1.0,5.0,0.0,0.0,1.0,1.0,phase_2,stop,450.0,300.0,4.0,,,,,,,,,white,hexagon
0.0,6.0,2.0,1.0,6.0,0.0,0.0,1.0,1.0,phase_2,stop,500.0,300.0,4.0,,,,,,,,,cyan,diamond
0.0,7.0,3.0,1.0,5.0,5.0,644.3419140000515,1.0,1.0,phase_2,go,500.0,350.0,1.0,,,,,,,,,gray,cross
0.0,1.0,1.0,0.0,5.0,5.0,556.3445259999753,1.0,1.0,phase_2,go,500.0,350.0,1.0,,,,,,,,,green,flipped triangle
0.0,3.0,3.0,0.0,5.0,5.0,694.0735749999476,1.0,1.0,phase_2,go,500.0,350.0,1.0,,,,,,,,,blue,square
0.0,3.0,3.0,0.0,6.0,6.0,847.2903410001891,1.0,1.0,phase_2,go,500.0,350.0,1.0,,,,,,,,,blue,square
0.0,5.0,1.0,1.0,6.0,0.0,0.0,1.0,1.0,phase_2,stop,500.0,350.0,4.0,,,,,,,,,magenta,I
0.0,1.0,1.0,0.0,5.0,5.0,614.049936000356,1.0,1.0,phase_2,go,500.0,400.0,1.0,,,,,,,,,green,flipped triangle
0.0,8.0,4.0,1.0,5.0,5.0,758.0769649998729,1.0,1.0,phase_2,go,500.0,400.0,1.0,,,,,,,,,white,hexagon
0.0,5.0,1.0,1.0,5.0,5.0,664.3396399999801,1.0,1.0,phase_2,stop,500.0,400.0,3.0,,,,,,,,,magenta,I
0.0,7.0,3.0,1.0,5.0,0.0,0.0,1.0,1.0,phase_2,stop,450.0,400.0,4.0,,,,,,,,,gray,cross
0.0,5.0,1.0,1.0,6.0,6.0,550.2603120003187,2.0,1.0,phase_2,stop,500.0,400.0,3.0,,,,,,,,,magenta,I
0.0,4.0,4.0,0.0,6.0,6.0,457.7127309999014,2.0,1.0,phase_2,go,500.0,350.0,1.0,,,,,,,,,yellow,triangle
0.0,4.0,4.0,0.0,5.0,5.0,309.7023999998782,2.0,1.0,phase_2,go,500.0,350.0,1.0,,,,,,,,,yellow,triangle
0.0,4.0,4.0,0.0,6.0,6.0,544.3537860001015,2.0,1.0,phase_2,go,500.0,350.0,1.0,,,,,,,,,yellow,triangle
0.0,1.0,1.0,0.0,5.0,5.0,401.4740190000339,2.0,1.0,phase_2,go,500.0,350.0,1.0,,,,,,,,,green,flipped triangle
0.0,7.0,3.0,1.0,5.0,5.0,560.1858680001897,2.0,1.0,phase_2,go,500.0,350.0,1.0,,,,,,,,,gray,cross
0.0,6.0,2.0,1.0,5.0,5.0,303.6845830001766,2.0,1.0,phase_2,stop,500.0,350.0,3.0,,,,,,,,,cyan,diamond
0.0,7.0,3.0,1.0,6.0,6.0,300.1476589997764,2.0,1.0,phase_2,stop,450.0,350.0,3.0,,,,,,,,,gray,cross
0.0,7.0,3.0,1.0,6.0,0.0,0.0,2.0,1.0,phase_2,stop,450.0,300.0,4.0,,,,,,,,,gray,cross
0.0,1.0,1.0,0.0,6.0,6.0,590.7931339997958,2.0,1.0,phase_2,go,450.0,350.0,1.0,,,,,,,,,green,flipped triangle
0.0,3.0,3.0,0.0,5.0,5.0,496.3586629996825,2.0,1.0,phase_2,go,450.0,350.0,1.0,,,,,,,,,blue,square
0.0,2.0,2.0,0.0,6.0,6.0,418.3407980003721,2.0,1.0,phase_2,go,450.0,350.0,1.0,,,,,,,,,orange,circle
0.0,7.0,3.0,1.0,5.0,5.0,590.5232029999752,2.0,1.0,phase_2,stop,450.0,350.0,3.0,,,,,,,,,gray,cross
0.0,8.0,4.0,1.0,6.0,6.0,395.4263499999797,2.0,1.0,phase_2,go,400.0,350.0,1.0,,,,,,,,,white,hexagon
0.0,2.0,2.0,0.0,5.0,5.0,464.6366719998696,2.0,1.0,phase_2,go,400.0,350.0,1.0,,,,,,,,,orange,circle
0.0,5.0,1.0,1.0,5.0,0.0,0.0,2.0,1.0,phase_2,stop,400.0,350.0,4.0,,,,,,,,,magenta,I
0.0,4.0,4.0,0.0,5.0,5.0,443.7500099998033,2.0,1.0,phase_2,go,450.0,350.0,1.0,,,,,,,,,yellow,triangle
0.0,2.0,2.0,0.0,6.0,6.0,254.39983400019628,2.0,1.0,phase_2,go,450.0,350.0,1.0,,,,,,,,,orange,circle
0.0,7.0,3.0,1.0,6.0,6.0,854.35293799992,2.0,1.0,phase_2,go,450.0,350.0,1.0,,,,,,,,,gray,cross
0.0,3.0,3.0,0.0,6.0,6.0,717.1288320000713,2.0,1.0,phase_2,go,450.0,350.0,1.0,,,,,,,,,blue,square
0.0,3.0,3.0,0.0,5.0,5.0,699.1535449997173,2.0,1.0,phase_2,go,450.0,350.0,1.0,,,,,,,,,blue,square
0.0,4.0,4.0,0.0,6.0,6.0,397.8223439999055,2.0,1.0,phase_2,go,450.0,350.0,1.0,,,,,,,,,yellow,triangle
0.0,1.0,1.0,0.0,5.0,5.0,303.153815999849,2.0,1.0,phase_2,go,450.0,350.0,1.0,,,,,,,,,green,flipped triangle
0.0,6.0,2.0,1.0,6.0,6.0,325.8188950003386,2.0,1.0,phase_2,go,450.0,350.0,1.0,,,,,,,,,cyan,diamond
0.0,8.0,4.0,1.0,6.0,6.0,699.7565880001275,2.0,1.0,phase_2,go,450.0,350.0,1.0,,,,,,,,,white,hexagon
0.0,7.0,3.0,1.0,6.0,0.0,0.0,2.0,1.0,phase_2,stop,450.0,350.0,4.0,,,,,,,,,gray,cross
0.0,1.0,1.0,0.0,6.0,6.0,445.85832499979,2.0,1.0,phase_2,go,450.0,400.0,1.0,,,,,,,,,green,flipped triangle
0.0,6.0,2.0,1.0,6.0,6.0,341.4287669997975,2.0,1.0,phase_2,stop,450.0,400.0,3.0,,,,,,,,,cyan,diamond
0.0,8.0,4.0,1.0,6.0,6.0,418.386362000092,2.0,1.0,phase_2,go,450.0,350.0,1.0,,,,,,,,,white,hexagon
0.0,1.0,1.0,0.0,6.0,6.0,705.044137999721,2.0,1.0,phase_2,go,450.0,350.0,1.0,,,,,,,,,green,flipped triangle
0.0,7.0,3.0,1.0,6.0,0.0,0.0,2.0,1.0,phase_2,stop,450.0,350.0,4.0,,,,,,,,,gray,cross
0.0,2.0,2.0,0.0,5.0,5.0,451.603662999787,2.0,1.0,phase_2,go,450.0,400.0,1.0,,,,,,,,,orange,circle
0.0,4.0,4.0,0.0,5.0,5.0,449.3858300002102,2.0,1.0,phase_2,go,450.0,400.0,1.0,,,,,,,,,yellow,triangle
0.0,5.0,1.0,1.0,6.0,6.0,788.5498089999601,2.0,1.0,phase_2,go,450.0,400.0,1.0,,,,,,,,,magenta,I
0.0,2.0,2.0,0.0,5.0,5.0,690.8587859998079,2.0,1.0,phase_2,go,450.0,400.0,1.0,,,,,,,,,orange,circle
0.0,3.0,3.0,0.0,5.0,5.0,695.5689979999988,2.0,1.0,phase_2,go,450.0,400.0,1.0,,,,,,,,,blue,square
0.0,5.0,1.0,1.0,6.0,6.0,796.3150780001342,3.0,1.0,phase_2,stop,450.0,400.0,3.0,,,,,,,,,magenta,I
0.0,1.0,1.0,0.0,6.0,6.0,639.5479949997025,3.0,1.0,phase_2,go,450.0,350.0,1.0,,,,,,,,,green,flipped triangle
0.0,1.0,1.0,0.0,5.0,5.0,390.3955569999198,3.0,1.0,phase_2,go,450.0,350.0,1.0,,,,,,,,,green,flipped triangle
0.0,4.0,4.0,0.0,5.0,5.0,334.8227340002268,3.0,1.0,phase_2,go,450.0,350.0,1.0,,,,,,,,,yellow,triangle
0.0,6.0,2.0,1.0,5.0,5.0,549.7592570000052,3.0,1.0,phase_2,stop,450.0,350.0,3.0,,,,,,,,,cyan,diamond
0.0,1.0,1.0,0.0,5.0,5.0,405.7565570001316,3.0,1.0,phase_2,go,400.0,350.0,1.0,,,,,,,,,green,flipped triangle
0.0,6.0,2.0,1.0,5.0,5.0,345.0320769998143,3.0,1.0,phase_2,stop,400.0,350.0,3.0,,,,,,,,,cyan,diamond
0.0,8.0,4.0,1.0,6.0,0.0,0.0,3.0,1.0,phase_2,stop,350.0,350.0,4.0,,,,,,,,,white,hexagon
0.0,5.0,1.0,1.0,5.0,0.0,0.0,3.0,1.0,phase_2,stop,350.0,400.0,4.0,,,,,,,,,magenta,I
0.0,3.0,3.0,0.0,5.0,5.0,509.9384810000629,3.0,1.0,phase_2,go,400.0,400.0,1.0,,,,,,,,,blue,square
0.0,2.0,2.0,0.0,5.0,5.0,582.8949619999548,3.0,1.0,phase_2,go,400.0,400.0,1.0,,,,,,,,,orange,circle
0.0,3.0,3.0,0.0,5.0,5.0,503.33492199979446,3.0,1.0,phase_2,go,400.0,400.0,1.0,,,,,,,,,blue,square
0.0,4.0,4.0,0.0,5.0,5.0,530.6920610000816,3.0,1.0,phase_2,go,400.0,400.0,1.0,,,,,,,,,yellow,triangle
0.0,5.0,1.0,1.0,6.0,0.0,0.0,3.0,1.0,phase_2,stop,400.0,400.0,4.0,,,,,,,,,magenta,I
0.0,5.0,1.0,1.0,6.0,6.0,566.1184219998177,3.0,1.0,phase_2,stop,400.0,450.0,3.0,,,,,,,,,magenta,I
0.0,3.0,3.0,0.0,6.0,6.0,614.0586749997965,3.0,1.0,phase_2,go,400.0,400.0,1.0,,,,,,,,,blue,square
0.0,1.0,1.0,0.0,6.0,6.0,385.8165960000406,3.0,1.0,phase_2,go,400.0,400.0,1.0,,,,,,,,,green,flipped triangle
0.0,6.0,2.0,1.0,6.0,0.0,0.0,3.0,1.0,phase_2,stop,400.0,400.0,4.0,,,,,,,,,cyan,diamond
0.0,3.0,3.0,0.0,5.0,5.0,324.1741589999947,3.0,1.0,phase_2,go,400.0,450.0,1.0,,,,,,,,,blue,square
0.0,3.0,3.0,0.0,5.0,5.0,313.2648089999748,3.0,1.0,phase_2,go,400.0,450.0,1.0,,,,,,,,,blue,square
0.0,4.0,4.0,0.0,5.0,5.0,734.1107379997993,3.0,1.0,phase_2,go,400.0,450.0,1.0,,,,,,,,,yellow,triangle
0.0,4.0,4.0,0.0,5.0,5.0,924.5599340001718,3.0,1.0,phase_2,go,400.0,450.0,1.0,,,,,,,,,yellow,triangle
0.0,6.0,2.0,1.0,6.0,6.0,554.1284309997536,3.0,1.0,phase_2,stop,400.0,450.0,3.0,,,,,,,,,cyan,diamond
0.0,7.0,3.0,1.0,6.0,0.0,0.0,3.0,1.0,phase_2,stop,400.0,400.0,4.0,,,,,,,,,gray,cross
0.0,5.0,1.0,1.0,5.0,5.0,534.0041829999791,3.0,1.0,phase_2,go,400.0,450.0,1.0,,,,,,,,,magenta,I
0.0,8.0,4.0,1.0,6.0,0.0,0.0,3.0,1.0,phase_2,stop,400.0,450.0,4.0,,,,,,,,,white,hexagon
0.0,2.0,2.0,0.0,5.0,5.0,450.1883499997348,3.0,1.0,phase_2,go,400.0,500.0,1.0,,,,,,,,,orange,circle
0.0,7.0,3.0,1.0,5.0,5.0,471.1250749996907,3.0,1.0,phase_2,stop,400.0,500.0,3.0,,,,,,,,,gray,cross
0.0,2.0,2.0,0.0,6.0,6.0,752.833222999925,3.0,1.0,phase_2,go,350.0,500.0,1.0,,,,,,,,,orange,circle
0.0,3.0,3.0,0.0,5.0,5.0,682.0717320001677,3.0,1.0,phase_2,go,350.0,500.0,1.0,,,,,,,,,blue,square
0.0,3.0,3.0,0.0,6.0,6.0,762.3245150002731,3.0,1.0,phase_2,go,350.0,500.0,1.0,,,,,,,,,blue,square
0.0,4.0,4.0,0.0,5.0,5.0,404.0088810002089,3.0,1.0,phase_2,go,350.0,500.0,1.0,,,,,,,,,yellow,triangle
0.0,7.0,3.0,1.0,5.0,0.0,0.0,3.0,1.0,phase_2,stop,350.0,500.0,4.0,,,,,,,,,gray,cross
0.0,3.0,3.0,0.0,6.0,6.0,496.1412450002171,3.0,1.0,phase_2,go,400.0,500.0,1.0,,,,,,,,,blue,square
0.0,3.0,3.0,0.0,6.0,6.0,696.1836149998817,3.0,1.0,phase_2,go,400.0,500.0,1.0,,,,,,,,,blue,square
0.0,6.0,2.0,1.0,6.0,6.0,738.6262859999988,3.0,1.0,phase_2,go,400.0,500.0,1.0,,,,,,,,,cyan,diamond
0.0,1.0,1.0,0.0,5.0,5.0,695.6288920000588,4.0,1.0,phase_2,go,400.0,500.0,1.0,,,,,,,,,green,flipped triangle
0.0,7.0,3.0,1.0,5.0,0.0,0.0,4.0,1.0,phase_2,stop,400.0,500.0,4.0,,,,,,,,,gray,cross
0.0,6.0,2.0,1.0,6.0,6.0,450.94305100019477,4.0,1.0,phase_2,stop,450.0,500.0,3.0,,,,,,,,,cyan,diamond
0.0,4.0,4.0,0.0,5.0,5.0,672.4817610001992,4.0,1.0,phase_2,go,450.0,450.0,1.0,,,,,,,,,yellow,triangle
0.0,3.0,3.0,0.0,6.0,6.0,655.7790159999968,4.0,1.0,phase_2,go,450.0,450.0,1.0,,,,,,,,,blue,square
0.0,5.0,1.0,1.0,5.0,0.0,0.0,4.0,1.0,phase_2,stop,450.0,450.0,4.0,,,,,,,,,magenta,I
0.0,8.0,4.0,1.0,6.0,6.0,577.1403429998827,4.0,1.0,phase_2,stop,500.0,450.0,3.0,,,,,,,,,white,hexagon
0.0,2.0,2.0,0.0,6.0,6.0,574.1311259998838,4.0,1.0,phase_2,go,500.0,400.0,1.0,,,,,,,,,orange,circle
0.0,1.0,1.0,0.0,5.0,5.0,664.895451999655,4.0,1.0,phase_2,go,500.0,400.0,1.0,,,,,,,,,green,flipped triangle
0.0,6.0,2.0,1.0,5.0,5.0,632.5082409998686,4.0,1.0,phase_2,go,500.0,400.0,1.0,,,,,,,,,cyan,diamond
0.0,3.0,3.0,0.0,6.0,6.0,750.7368830001724,4.0,1.0,phase_2,go,500.0,400.0,1.0,,,,,,,,,blue,square
0.0,2.0,2.0,0.0,6.0,6.0,607.9724579999493,4.0,1.0,phase_2,go,500.0,400.0,1.0,,,,,,,,,orange,circle
0.0,5.0,1.0,1.0,6.0,6.0,806.1020029999781,4.0,1.0,phase_2,go,500.0,400.0,1.0,,,,,,,,,magenta,I
0.0,4.0,4.0,0.0,5.0,5.0,626.8016529998022,4.0,1.0,phase_2,go,500.0,400.0,1.0,,,,,,,,,yellow,triangle
0.0,7.0,3.0,1.0,6.0,0.0,0.0,4.0,1.0,phase_2,stop,500.0,400.0,4.0,,,,,,,,,gray,cross
0.0,6.0,2.0,1.0,5.0,5.0,404.7959559998162,4.0,1.0,phase_2,stop,500.0,450.0,3.0,,,,,,,,,cyan,diamond
0.0,4.0,4.0,0.0,5.0,5.0,706.600614999843,4.0,1.0,phase_2,go,450.0,450.0,1.0,,,,,,,,,yellow,triangle
0.0,1.0,1.0,0.0,5.0,5.0,668.184996999571,4.0,1.0,phase_2,go,450.0,450.0,1.0,,,,,,,,,green,flipped triangle
0.0,1.0,1.0,0.0,6.0,6.0,721.7150770002263,4.0,1.0,phase_2,go,450.0,450.0,1.0,,,,,,,,,green,flipped triangle
0.0,7.0,3.0,1.0,5.0,0.0,0.0,4.0,1.0,phase_2,stop,450.0,450.0,4.0,,,,,,,,,gray,cross
0.0,3.0,3.0,0.0,6.0,6.0,760.1976109999669,4.0,1.0,phase_2,go,500.0,450.0,1.0,,,,,,,,,blue,square
0.0,3.0,3.0,0.0,5.0,5.0,650.7867880000049,4.0,1.0,phase_2,go,500.0,450.0,1.0,,,,,,,,,blue,square
0.0,6.0,2.0,1.0,5.0,5.0,632.2781769999892,4.0,1.0,phase_2,stop,500.0,450.0,3.0,,,,,,,,,cyan,diamond
0.0,3.0,3.0,0.0,5.0,5.0,763.3874969997123,4.0,1.0,phase_2,go,450.0,450.0,1.0,,,,,,,,,blue,square
0.0,7.0,3.0,1.0,5.0,5.0,766.5947649998088,4.0,1.0,phase_2,go,450.0,450.0,1.0,,,,,,,,,gray,cross
0.0,8.0,4.0,1.0,6.0,0.0,0.0,4.0,1.0,phase_2,stop,450.0,450.0,4.0,,,,,,,,,white,hexagon
0.0,7.0,3.0,1.0,6.0,0.0,0.0,4.0,1.0,phase_2,stop,450.0,500.0,4.0,,,,,,,,,gray,cross
0.0,7.0,3.0,1.0,5.0,5.0,624.1920079996817,4.0,1.0,phase_2,stop,450.0,550.0,3.0,,,,,,,,,gray,cross
0.0,6.0,2.0,1.0,6.0,6.0,856.4864249997299,4.0,1.0,phase_2,go,400.0,550.0,1.0,,,,,,,,,cyan,diamond
0.0,7.0,3.0,1.0,6.0,0.0,0.0,4.0,1.0,phase_2,stop,400.0,550.0,4.0,,,,,,,,,gray,cross
0.0,5.0,1.0,1.0,5.0,0.0,0.0,4.0,1.0,phase_2,stop,400.0,600.0,4.0,,,,,,,,,magenta,I
0.0,2.0,2.0,0.0,5.0,5.0,645.9388230000513,4.0,1.0,phase_2,go,450.0,600.0,1.0,,,,,,,,,orange,circle
0.0,7.0,3.0,1.0,6.0,6.0,680.4378500000894,4.0,1.0,phase_2,stop,450.0,600.0,3.0,,,,,,,,,gray,cross
0.0,6.0,2.0,1.0,6.0,0.0,0.0,4.0,1.0,phase_2,stop,450.0,550.0,4.0,,,,,,,,,cyan,diamond
0.0,5.0,1.0,1.0,6.0,6.0,631.0099170000285,4.0,1.0,phase_2,go,450.0,600.0,1.0,,,,,,,,,magenta,I
0.0,5.0,1.0,1.0,5.0,0.0,0.0,4.0,1.0,phase_2,stop,450.0,600.0,4.0,,,,,,,,,magenta,I
0.0,3.0,3.0,0.0,6.0,6.0,692.7779589996135,5.0,1.0,phase_2,go,500.0,600.0,1.0,,,,,,,,,blue,square
0.0,6.0,2.0,1.0,6.0,6.0,494.6277019998888,5.0,1.0,phase_2,stop,500.0,600.0,3.0,,,,,,,,,cyan,diamond
0.0,4.0,4.0,0.0,5.0,5.0,512.5209600000744,5.0,1.0,phase_2,go,500.0,550.0,1.0,,,,,,,,,yellow,triangle
0.0,7.0,3.0,1.0,5.0,5.0,540.0207590000718,5.0,1.0,phase_2,stop,500.0,550.0,3.0,,,,,,,,,gray,cross
0.0,2.0,2.0,0.0,6.0,6.0,760.2248190000864,5.0,1.0,phase_2,go,450.0,550.0,1.0,,,,,,,,,orange,circle
0.0,1.0,1.0,0.0,5.0,5.0,501.10203700023703,5.0,1.0,phase_2,go,450.0,550.0,1.0,,,,,,,,,green,flipped triangle
0.0,6.0,2.0,1.0,5.0,5.0,559.9862099998063,5.0,1.0,phase_2,go,450.0,550.0,1.0,,,,,,,,,cyan,diamond
0.0,8.0,4.0,1.0,5.0,5.0,655.8525979999104,5.0,1.0,phase_2,stop,450.0,550.0,3.0,,,,,,,,,white,hexagon
0.0,6.0,2.0,1.0,6.0,0.0,0.0,5.0,1.0,phase_2,stop,400.0,550.0,4.0,,,,,,,,,cyan,diamond
0.0,8.0,4.0,1.0,5.0,5.0,721.6207090000353,5.0,1.0,phase_2,go,400.0,600.0,1.0,,,,,,,,,white,hexagon
0.0,2.0,2.0,0.0,5.0,5.0,564.2673020001894,5.0,1.0,phase_2,go,400.0,600.0,1.0,,,,,,,,,orange,circle
0.0,7.0,3.0,1.0,6.0,6.0,385.3335450003214,5.0,1.0,phase_2,stop,400.0,600.0,3.0,,,,,,,,,gray,cross
0.0,5.0,1.0,1.0,6.0,6.0,748.0530709999584,5.0,1.0,phase_2,stop,400.0,550.0,3.0,,,,,,,,,magenta,I
0.0,4.0,4.0,0.0,6.0,6.0,801.1955930001022,5.0,1.0,phase_2,go,400.0,500.0,1.0,,,,,,,,,yellow,triangle
0.0,1.0,1.0,0.0,5.0,5.0,721.4652899997418,5.0,1.0,phase_2,go,400.0,500.0,1.0,,,,,,,,,green,flipped triangle
0.0,4.0,4.0,0.0,5.0,5.0,755.585446999703,5.0,1.0,phase_2,go,400.0,500.0,1.0,,,,,,,,,yellow,triangle
0.0,6.0,2.0,1.0,5.0,0.0,0.0,5.0,1.0,phase_2,stop,400.0,500.0,4.0,,,,,,,,,cyan,diamond
0.0,5.0,1.0,1.0,6.0,6.0,456.4993599997251,5.0,1.0,phase_2,stop,450.0,500.0,3.0,,,,,,,,,magenta,I
0.0,4.0,4.0,0.0,5.0,5.0,696.3513949999651,5.0,1.0,phase_2,go,450.0,450.0,1.0,,,,,,,,,yellow,triangle
0.0,8.0,4.0,1.0,6.0,0.0,0.0,5.0,1.0,phase_2,stop,450.0,450.0,4.0,,,,,,,,,white,hexagon
0.0,4.0,4.0,0.0,5.0,5.0,859.4982230001733,5.0,1.0,phase_2,go,450.0,500.0,1.0,,,,,,,,,yellow,triangle
0.0,2.0,2.0,0.0,6.0,6.0,281.9157459998678,5.0,1.0,phase_2,go,450.0,500.0,1.0,,,,,,,,,orange,circle
0.0,2.0,2.0,0.0,6.0,6.0,381.8537439997271,5.0,1.0,phase_2,go,450.0,500.0,1.0,,,,,,,,,orange,circle
0.0,4.0,4.0,0.0,6.0,6.0,683.7852600001497,5.0,1.0,phase_2,go,450.0,500.0,1.0,,,,,,,,,yellow,triangle
0.0,8.0,4.0,1.0,6.0,0.0,0.0,5.0,1.0,phase_2,stop,450.0,500.0,4.0,,,,,,,,,white,hexagon
0.0,5.0,1.0,1.0,5.0,5.0,607.1927899997718,5.0,1.0,phase_2,stop,450.0,550.0,3.0,,,,,,,,,magenta,I
0.0,1.0,1.0,0.0,6.0,6.0,445.8332359999986,5.0,1.0,phase_2,go,400.0,550.0,1.0,,,,,,,,,green,flipped triangle
0.0,8.0,4.0,1.0,5.0,0.0,0.0,5.0,1.0,phase_2,stop,400.0,550.0,4.0,,,,,,,,,white,hexagon
0.0,4.0,4.0,0.0,5.0,5.0,827.6421489999848,5.0,1.0,phase_2,go,450.0,550.0,1.0,,,,,,,,,yellow,triangle
0.0,2.0,2.0,0.0,6.0,6.0,539.3887760001235,5.0,1.0,phase_2,go,450.0,550.0,1.0,,,,,,,,,orange,circle
0.0,5.0,1.0,1.0,6.0,6.0,384.2012919999433,5.0,1.0,phase_2,stop,450.0,550.0,3.0,,,,,,,,,magenta,I
0.0,1.0,1.0,0.0,5.0,5.0,294.8903790002077,5.0,1.0,phase_2,go,450.0,500.0,1.0,,,,,,,,,green,flipped triangle
0.0,8.0,4.0,1.0,5.0,5.0,570.0833729997612,5.0,1.0,phase_2,stop,450.0,500.0,3.0,,,,,,,,,white,hexagon
0.0,8.0,4.0,1.0,5.0,5.0,793.3935259998179,5.0,1.0,phase_2,go,400.0,500.0,1.0,,,,,,,,,white,hexagon
0.0,5.0,1.0,1.0,6.0,6.0,412.4632399998518,5.0,1.0,phase_2,stop,400.0,500.0,3.0,,,,,,,,,magenta,I
0.0,8.0,4.0,1.0,6.0,6.0,386.5974939999432,5.0,1.0,phase_2,stop,400.0,450.0,3.0,,,,,,,,,white,hexagon
0.0,2.0,2.0,0.0,5.0,5.0,495.2488819999416,6.0,1.0,phase_2,go,400.0,400.0,1.0,,,,,,,,,orange,circle
0.0,2.0,2.0,0.0,5.0,5.0,230.8306969998739,6.0,1.0,phase_2,go,400.0,400.0,1.0,,,,,,,,,orange,circle
0.0,2.0,2.0,0.0,5.0,5.0,257.3938779996751,6.0,1.0,phase_2,go,400.0,400.0,1.0,,,,,,,,,orange,circle
0.0,1.0,1.0,0.0,6.0,6.0,396.6444560001037,6.0,1.0,phase_2,go,400.0,400.0,1.0,,,,,,,,,green,flipped triangle
0.0,4.0,4.0,0.0,6.0,6.0,816.7911059999824,6.0,1.0,phase_2,go,400.0,400.0,1.0,,,,,,,,,yellow,triangle
0.0,3.0,3.0,0.0,6.0,6.0,670.1070529998105,6.0,1.0,phase_2,go,400.0,400.0,1.0,,,,,,,,,blue,square
0.0,4.0,4.0,0.0,6.0,6.0,586.5740230001393,6.0,1.0,phase_2,go,400.0,400.0,1.0,,,,,,,,,yellow,triangle
0.0,8.0,4.0,1.0,5.0,5.0,338.8142089997927,6.0,1.0,phase_2,stop,400.0,400.0,3.0,,,,,,,,,white,hexagon
0.0,7.0,3.0,1.0,5.0,5.0,441.7742169998746,6.0,1.0,phase_2,stop,350.0,400.0,3.0,,,,,,,,,gray,cross
0.0,1.0,1.0,0.0,5.0,5.0,653.8517980006873,6.0,1.0,phase_2,go,300.0,400.0,1.0,,,,,,,,,green,flipped triangle
0.0,4.0,4.0,0.0,6.0,6.0,630.7035420004468,6.0,1.0,phase_2,go,300.0,400.0,1.0,,,,,,,,,yellow,triangle
0.0,7.0,3.0,1.0,6.0,0.0,0.0,6.0,1.0,phase_2,stop,300.0,400.0,4.0,,,,,,,,,gray,cross
0.0,8.0,4.0,1.0,5.0,0.0,0.0,6.0,1.0,phase_2,stop,300.0,450.0,4.0,,,,,,,,,white,hexagon
0.0,1.0,1.0,0.0,6.0,6.0,454.5053900001221,6.0,1.0,phase_2,go,350.0,450.0,1.0,,,,,,,,,green,flipped triangle
0.0,1.0,1.0,0.0,6.0,6.0,460.803167999984,6.0,1.0,phase_2,go,350.0,450.0,1.0,,,,,,,,,green,flipped triangle
0.0,6.0,2.0,1.0,6.0,6.0,414.2649040004471,6.0,1.0,phase_2,stop,350.0,450.0,3.0,,,,,,,,,cyan,diamond
0.0,8.0,4.0,1.0,6.0,6.0,432.4552299995048,6.0,1.0,phase_2,stop,350.0,400.0,3.0,,,,,,,,,white,hexagon
0.0,7.0,3.0,1.0,6.0,0.0,0.0,6.0,1.0,phase_2,stop,350.0,350.0,4.0,,,,,,,,,gray,cross
0.0,1.0,1.0,0.0,6.0,6.0,662.7699489999941,6.0,1.0,phase_2,go,350.0,400.0,1.0,,,,,,,,,green,flipped triangle
0.0,3.0,3.0,0.0,6.0,6.0,395.7630599998083,6.0,1.0,phase_2,go,350.0,400.0,1.0,,,,,,,,,blue,square
0.0,8.0,4.0,1.0,6.0,6.0,672.3707930004821,6.0,1.0,phase_2,go,350.0,400.0,1.0,,,,,,,,,white,hexagon
0.0,1.0,1.0,0.0,5.0,5.0,671.5681709993078,6.0,1.0,phase_2,go,350.0,400.0,1.0,,,,,,,,,green,flipped triangle
0.0,5.0,1.0,1.0,5.0,0.0,0.0,6.0,1.0,phase_2,stop,350.0,400.0,4.0,,,,,,,,,magenta,I
0.0,5.0,1.0,1.0,5.0,5.0,553.590656999404,6.0,1.0,phase_2,go,400.0,400.0,1.0,,,,,,,,,magenta,I
0.0,3.0,3.0,0.0,5.0,5.0,678.8719530004528,6.0,1.0,phase_2,go,400.0,400.0,1.0,,,,,,,,,blue,square
0.0,2.0,2.0,0.0,6.0,6.0,715.2447899998151,6.0,1.0,phase_2,go,400.0,400.0,1.0,,,,,,,,,orange,circle
0.0,2.0,2.0,0.0,6.0,6.0,337.95280600043037,6.0,1.0,phase_2,go,400.0,400.0,1.0,,,,,,,,,orange,circle
0.0,1.0,1.0,0.0,6.0,6.0,271.7185159999644,6.0,1.0,phase_2,go,400.0,400.0,1.0,,,,,,,,,green,flipped triangle
0.0,7.0,3.0,1.0,5.0,5.0,493.27475499922,6.0,1.0,phase_2,stop,400.0,400.0,3.0,,,,,,,,,gray,cross
0.0,7.0,3.0,1.0,6.0,6.0,566.4709570000923,6.0,1.0,phase_2,go,350.0,400.0,1.0,,,,,,,,,gray,cross
0.0,7.0,3.0,1.0,5.0,5.0,512.9728749998321,6.0,1.0,phase_2,go,350.0,400.0,1.0,,,,,,,,,gray,cross
0.0,8.0,4.0,1.0,5.0,0.0,0.0,6.0,1.0,phase_2,stop,350.0,400.0,4.0,,,,,,,,,white,hexagon
0.0,7.0,3.0,1.0,5.0,5.0,466.081049999957,6.0,1.0,phase_2,stop,400.0,400.0,3.0,,,,,,,,,gray,cross
0.0,6.0,2.0,1.0,6.0,6.0,523.9299389995722,6.0,1.0,phase_2,stop,350.0,400.0,3.0,,,,,,,,,cyan,diamond
0.0,5.0,1.0,1.0,5.0,5.0,749.4373640001868,6.0,1.0,phase_2,go,350.0,350.0,1.0,,,,,,,,,magenta,I
0.0,8.0,4.0,1.0,5.0,0.0,0.0,6.0,1.0,phase_2,stop,350.0,350.0,4.0,,,,,,,,,white,hexagon
0.0,3.0,3.0,0.0,6.0,6.0,1300.50421299984,7.0,1.0,phase_2,go,400.0,350.0,1.0,,,,,,,,,blue,square
0.0,6.0,2.0,1.0,5.0,0.0,0.0,7.0,1.0,phase_2,stop,400.0,350.0,4.0,,,,,,,,,cyan,diamond
0.0,5.0,1.0,1.0,5.0,0.0,0.0,7.0,1.0,phase_2,stop,450.0,350.0,4.0,,,,,,,,,magenta,I
0.0,6.0,2.0,1.0,6.0,6.0,442.4573999995118,7.0,1.0,phase_2,go,500.0,350.0,1.0,,,,,,,,,cyan,diamond
0.0,5.0,1.0,1.0,6.0,0.0,0.0,7.0,1.0,phase_2,stop,500.0,350.0,4.0,,,,,,,,,magenta,I
0.0,1.0,1.0,0.0,6.0,6.0,524.4146360000741,7.0,1.0,phase_2,go,500.0,400.0,1.0,,,,,,,,,green,flipped triangle
0.0,2.0,2.0,0.0,5.0,5.0,335.6516580006428,7.0,1.0,phase_2,go,500.0,400.0,1.0,,,,,,,,,orange,circle
0.0,8.0,4.0,1.0,5.0,5.0,615.5065769999055,7.0,1.0,phase_2,stop,500.0,400.0,3.0,,,,,,,,,white,hexagon
0.0,2.0,2.0,0.0,5.0,5.0,619.8877790002371,7.0,1.0,phase_2,go,450.0,400.0,1.0,,,,,,,,,orange,circle
0.0,8.0,4.0,1.0,5.0,5.0,320.8587599992825,7.0,1.0,phase_2,stop,450.0,400.0,3.0,,,,,,,,,white,hexagon
0.0,2.0,2.0,0.0,5.0,5.0,447.9663520005488,7.0,1.0,phase_2,go,400.0,400.0,1.0,,,,,,,,,orange,circle
0.0,6.0,2.0,1.0,5.0,5.0,407.5670459997127,7.0,1.0,phase_2,go,400.0,400.0,1.0,,,,,,,,,cyan,diamond
0.0,2.0,2.0,0.0,6.0,6.0,711.6609220001919,7.0,1.0,phase_2,go,400.0,400.0,1.0,,,,,,,,,orange,circle
0.0,5.0,1.0,1.0,5.0,0.0,0.0,7.0,1.0,phase_2,stop,400.0,400.0,4.0,,,,,,,,,magenta,I
0.0,2.0,2.0,0.0,5.0,5.0,542.5300299993978,7.0,1.0,phase_2,go,450.0,400.0,1.0,,,,,,,,,orange,circle
0.0,1.0,1.0,0.0,6.0,6.0,612.0528139999806,7.0,1.0,phase_2,go,450.0,400.0,1.0,,,,,,,,,green,flipped triangle
0.0,6.0,2.0,1.0,5.0,5.0,529.6415559996603,7.0,1.0,phase_2,stop,450.0,400.0,3.0,,,,,,,,,cyan,diamond
0.0,5.0,1.0,1.0,5.0,0.0,0.0,7.0,1.0,phase_2,stop,400.0,400.0,4.0,,,,,,,,,magenta,I
0.0,3.0,3.0,0.0,6.0,6.0,701.9556690001991,7.0,1.0,phase_2,go,450.0,400.0,1.0,,,,,,,,,blue,square
0.0,2.0,2.0,0.0,5.0,5.0,777.8111360003095,7.0,1.0,phase_2,go,450.0,400.0,1.0,,,,,,,,,orange,circle
0.0,5.0,1.0,1.0,5.0,5.0,728.7005950001912,7.0,1.0,phase_2,go,450.0,400.0,1.0,,,,,,,,,magenta,I
0.0,1.0,1.0,0.0,5.0,5.0,755.6443479998052,7.0,1.0,phase_2,go,450.0,400.0,1.0,,,,,,,,,green,flipped triangle
0.0,6.0,2.0,1.0,5.0,0.0,0.0,7.0,1.0,phase_2,stop,450.0,400.0,4.0,,,,,,,,,cyan,diamond
0.0,5.0,1.0,1.0,6.0,6.0,616.9363699991663,7.0,1.0,phase_2,go,500.0,400.0,1.0,,,,,,,,,magenta,I
0.0,8.0,4.0,1.0,6.0,0.0,0.0,7.0,1.0,phase_2,stop,500.0,400.0,4.0,,,,,,,,,white,hexagon
0.0,1.0,1.0,0.0,6.0,6.0,617.9297930002576,7.0,1.0,phase_2,go,500.0,450.0,1.0,,,,,,,,,green,flipped triangle
0.0,3.0,3.0,0.0,6.0,6.0,672.6434540005357,7.0,1.0,phase_2,go,500.0,450.0,1.0,,,,,,,,,blue,square
0.0,5.0,1.0,1.0,5.0,5.0,670.3765179991024,7.0,1.0,phase_2,go,500.0,450.0,1.0,,,,,,,,,magenta,I
0.0,2.0,2.0,0.0,6.0,6.0,598.557837000044,7.0,1.0,phase_2,go,500.0,450.0,1.0,,,,,,,,,orange,circle
0.0,8.0,4.0,1.0,5.0,5.0,633.6388170002465,7.0,1.0,phase_2,stop,500.0,450.0,3.0,,,,,,,,,white,hexagon
0.0,6.0,2.0,1.0,5.0,5.0,620.7370130005074,7.0,1.0,phase_2,go,450.0,450.0,1.0,,,,,,,,,cyan,diamond
0.0,8.0,4.0,1.0,6.0,0.0,0.0,7.0,1.0,phase_2,stop,450.0,450.0,4.0,,,,,,,,,white,hexagon
0.0,5.0,1.0,1.0,5.0,0.0,0.0,7.0,1.0,phase_2,stop,450.0,500.0,4.0,,,,,,,,,magenta,I
0.0,1.0,1.0,0.0,5.0,5.0,581.9023450003442,7.0,1.0,phase_2,go,500.0,500.0,1.0,,,,,,,,,green,flipped triangle
0.0,7.0,3.0,1.0,6.0,6.0,627.6213620003546,7.0,1.0,phase_2,stop,500.0,500.0,3.0,,,,,,,,,gray,cross
0.0,1.0,1.0,0.0,6.0,6.0,666.2069719995998,7.0,1.0,phase_2,go,500.0,450.0,1.0,,,,,,,,,green,flipped triangle
0.0,8.0,4.0,1.0,6.0,6.0,422.316750000391,8.0,1.0,phase_2,stop,500.0,450.0,3.0,,,,,,,,,white,hexagon
0.0,8.0,4.0,1.0,6.0,0.0,0.0,8.0,1.0,phase_2,stop,500.0,400.0,4.0,,,,,,,,,white,hexagon
0.0,2.0,2.0,0.0,5.0,5.0,759.5470490005027,8.0,1.0,phase_2,go,500.0,450.0,1.0,,,,,,,,,orange,circle
0.0,4.0,4.0,0.0,5.0,5.0,697.072887000104,8.0,1.0,phase_2,go,500.0,450.0,1.0,,,,,,,,,yellow,triangle
0.0,6.0,2.0,1.0,5.0,0.0,0.0,8.0,1.0,phase_2,stop,500.0,450.0,4.0,,,,,,,,,cyan,diamond
0.0,8.0,4.0,1.0,6.0,6.0,759.4630840003447,8.0,1.0,phase_2,go,550.0,450.0,1.0,,,,,,,,,white,hexagon
0.0,6.0,2.0,1.0,5.0,0.0,0.0,8.0,1.0,phase_2,stop,550.0,450.0,4.0,,,,,,,,,cyan,diamond
0.0,8.0,4.0,1.0,5.0,5.0,639.6495130002222,8.0,1.0,phase_2,go,600.0,450.0,1.0,,,,,,,,,white,hexagon
0.0,4.0,4.0,0.0,6.0,6.0,800.8373230004509,8.0,1.0,phase_2,go,600.0,450.0,1.0,,,,,,,,,yellow,triangle
0.0,1.0,1.0,0.0,5.0,5.0,751.7415190004613,8.0,1.0,phase_2,go,600.0,450.0,1.0,,,,,,,,,green,flipped triangle
0.0,6.0,2.0,1.0,5.0,0.0,0.0,8.0,1.0,phase_2,stop,600.0,450.0,4.0,,,,,,,,,cyan,diamond
0.0,5.0,1.0,1.0,6.0,6.0,362.8877290002492,8.0,1.0,phase_2,stop,650.0,450.0,3.0,,,,,,,,,magenta,I
0.0,2.0,2.0,0.0,6.0,6.0,888.1029650001437,8.0,1.0,phase_2,go,650.0,400.0,1.0,,,,,,,,,orange,circle
0.0,2.0,2.0,0.0,6.0,6.0,954.536631999872,8.0,1.0,phase_2,go,650.0,400.0,1.0,,,,,,,,,orange,circle
0.0,3.0,3.0,0.0,5.0,5.0,700.333234000027,8.0,1.0,phase_2,go,650.0,400.0,1.0,,,,,,,,,blue,square
0.0,4.0,4.0,0.0,6.0,6.0,633.625504999145,8.0,1.0,phase_2,go,650.0,400.0,1.0,,,,,,,,,yellow,triangle
0.0,7.0,3.0,1.0,6.0,6.0,326.2308829998801,8.0,1.0,phase_2,stop,650.0,400.0,3.0,,,,,,,,,gray,cross
0.0,5.0,1.0,1.0,6.0,0.0,0.0,8.0,1.0,phase_2,stop,650.0,350.0,4.0,,,,,,,,,magenta,I
0.0,7.0,3.0,1.0,5.0,5.0,681.78214999989,8.0,1.0,phase_2,go,650.0,400.0,1.0,,,,,,,,,gray,cross
0.0,3.0,3.0,0.0,6.0,6.0,300.3623100003096,8.0,1.0,phase_2,go,650.0,400.0,1.0,,,,,,,,,blue,square
0.0,5.0,1.0,1.0,6.0,0.0,0.0,8.0,1.0,phase_2,stop,650.0,400.0,4.0,,,,,,,,,magenta,I
0.0,2.0,2.0,0.0,6.0,6.0,634.4822729997759,8.0,1.0,phase_2,go,650.0,450.0,1.0,,,,,,,,,orange,circle
0.0,3.0,3.0,0.0,6.0,6.0,698.8757680001072,8.0,1.0,phase_2,go,650.0,450.0,1.0,,,,,,,,,blue,square
0.0,1.0,1.0,0.0,6.0,6.0,725.9720669999297,8.0,1.0,phase_2,go,650.0,450.0,1.0,,,,,,,,,green,flipped triangle
0.0,4.0,4.0,0.0,5.0,5.0,609.875187000398,8.0,1.0,phase_2,go,650.0,450.0,1.0,,,,,,,,,yellow,triangle
0.0,4.0,4.0,0.0,6.0,6.0,699.7940869996455,8.0,1.0,phase_2,go,650.0,450.0,1.0,,,,,,,,,yellow,triangle
0.0,3.0,3.0,0.0,5.0,5.0,702.038655999786,8.0,1.0,phase_2,go,650.0,450.0,1.0,,,,,,,,,blue,square
0.0,7.0,3.0,1.0,6.0,0.0,0.0,8.0,1.0,phase_2,stop,650.0,450.0,4.0,,,,,,,,,gray,cross
0.0,3.0,3.0,0.0,6.0,6.0,727.8796040000088,8.0,1.0,phase_2,go,650.0,500.0,1.0,,,,,,,,,blue,square
0.0,4.0,4.0,0.0,6.0,6.0,500.96813999971346,8.0,1.0,phase_2,go,650.0,500.0,1.0,,,,,,,,,yellow,triangle
0.0,8.0,4.0,1.0,5.0,5.0,752.6744489996418,8.0,1.0,phase_2,stop,650.0,500.0,3.0,,,,,,,,,white,hexagon
0.0,5.0,1.0,1.0,5.0,0.0,0.0,8.0,1.0,phase_2,stop,600.0,500.0,4.0,,,,,,,,,magenta,I
0.0,4.0,4.0,0.0,6.0,6.0,789.9256699993202,8.0,1.0,phase_2,go,650.0,500.0,1.0,,,,,,,,,yellow,triangle
0.0,1.0,1.0,0.0,5.0,5.0,729.5210800002678,8.0,1.0,phase_2,go,650.0,500.0,1.0,,,,,,,,,green,flipped triangle
0.0,6.0,2.0,1.0,6.0,0.0,0.0,8.0,1.0,phase_2,stop,650.0,500.0,4.0,,,,,,,,,cyan,diamond
0.0,4.0,4.0,0.0,6.0,6.0,498.4487330002594,8.0,1.0,phase_2,go,650.0,550.0,1.0,,,,,,,,,yellow,triangle
0.0,5.0,1.0,1.0,7.0,2.0,4957.036748999599,1.0,1.0,phase_3,,,,,196.0,4.0,147.0,196.0,98.0,294.0,245.0,49.0,magenta,I
0.0,4.0,4.0,0.0,7.0,1.0,1433.475938999436,1.0,2.0,phase_3,,,,,264.0,6.0,264.0,132.0,176.0,44.0,88.0,220.0,yellow,triangle
0.0,3.0,3.0,0.0,7.0,1.0,2975.4249679999702,1.0,1.0,phase_3,,,,,170.0,5.0,170.0,68.0,136.0,102.0,204.0,34.0,blue,square
0.0,4.0,4.0,0.0,7.0,2.0,2954.4878420001623,1.0,1.0,phase_3,,,,,270.0,5.0,162.0,270.0,54.0,216.0,324.0,108.0,yellow,triangle
0.0,6.0,2.0,1.0,7.0,6.0,2398.3789880003314,1.0,1.0,phase_3,,,,,147.0,3.0,196.0,294.0,49.0,98.0,245.0,147.0,cyan,diamond
0.0,6.0,2.0,1.0,7.0,2.0,2058.0123700001423,1.0,1.0,phase_3,,,,,170.0,5.0,136.0,170.0,34.0,204.0,68.0,102.0,cyan,diamond
0.0,5.0,1.0,1.0,7.0,2.0,2904.464484000528,1.0,1.0,phase_3,,,,,162.0,3.0,108.0,162.0,270.0,54.0,324.0,216.0,magenta,I
0.0,6.0,2.0,1.0,7.0,6.0,1841.639145000045,1.0,1.0,phase_3,,,,,176.0,4.0,220.0,88.0,44.0,264.0,132.0,176.0,cyan,diamond
0.0,2.0,2.0,0.0,7.0,4.0,1392.5794119995771,1.0,1.0,phase_3,,,,,170.0,5.0,204.0,34.0,102.0,170.0,136.0,68.0,orange,circle
0.0,8.0,4.0,1.0,7.0,4.0,1874.157520999688,1.0,1.0,phase_3,,,,,324.0,6.0,54.0,162.0,108.0,324.0,216.0,270.0,white,hexagon
0.0,6.0,2.0,1.0,7.0,4.0,2139.034375999472,1.0,1.0,phase_3,,,,,195.0,5.0,117.0,156.0,234.0,195.0,78.0,39.0,cyan,diamond
0.0,1.0,1.0,0.0,7.0,1.0,2664.8419779994583,1.0,1.0,phase_3,,,,,136.0,4.0,136.0,68.0,204.0,102.0,34.0,170.0,green,flipped triangle
0.0,1.0,1.0,0.0,7.0,5.0,2831.8596389999584,1.0,1.0,phase_3,,,,,216.0,4.0,270.0,324.0,54.0,108.0,216.0,162.0,green,flipped triangle
0.0,5.0,1.0,1.0,7.0,2.0,2145.6568539997534,1.0,1.0,phase_3,,,,,147.0,3.0,196.0,147.0,294.0,98.0,245.0,49.0,magenta,I
0.0,3.0,3.0,0.0,7.0,4.0,1536.7430139995122,1.0,1.0,phase_3,,,,,108.0,2.0,216.0,270.0,324.0,108.0,162.0,54.0,blue,square
0.0,8.0,4.0,1.0,7.0,1.0,2523.377677000098,1.0,1.0,phase_3,,,,,294.0,6.0,294.0,147.0,98.0,49.0,196.0,245.0,white,hexagon
0.0,3.0,3.0,0.0,7.0,3.0,2305.751094000698,1.0,1.0,phase_3,,,,,117.0,3.0,156.0,78.0,117.0,39.0,234.0,195.0,blue,square
0.0,3.0,3.0,0.0,7.0,5.0,2424.877276999723,1.0,1.0,phase_3,,,,,117.0,3.0,195.0,156.0,234.0,78.0,117.0,39.0,blue,square
0.0,2.0,2.0,0.0,7.0,3.0,2184.406895999928,1.0,1.0,phase_3,,,,,108.0,2.0,324.0,216.0,108.0,54.0,162.0,270.0,orange,circle
0.0,5.0,1.0,1.0,7.0,3.0,1531.0851379999804,1.0,1.0,phase_3,,,,,88.0,2.0,220.0,264.0,88.0,176.0,132.0,44.0,magenta,I
0.0,1.0,1.0,0.0,7.0,2.0,1791.8956860003163,2.0,1.0,phase_3,,,,,156.0,4.0,78.0,156.0,39.0,117.0,234.0,195.0,green,flipped triangle
0.0,5.0,1.0,1.0,7.0,6.0,2541.844563000268,2.0,1.0,phase_3,,,,,108.0,2.0,216.0,324.0,54.0,162.0,270.0,108.0,magenta,I
0.0,1.0,1.0,0.0,7.0,4.0,2939.4158249997417,2.0,1.0,phase_3,,,,,88.0,2.0,264.0,220.0,176.0,88.0,132.0,44.0,green,flipped triangle
0.0,4.0,4.0,0.0,7.0,5.0,1284.0432950006289,2.0,1.0,phase_3,,,,,136.0,4.0,170.0,102.0,68.0,34.0,136.0,204.0,yellow,triangle
0.0,2.0,2.0,0.0,7.0,2.0,2248.745081999914,2.0,1.0,phase_3,,,,,162.0,3.0,270.0,162.0,54.0,108.0,216.0,324.0,orange,circle
0.0,4.0,4.0,0.0,7.0,4.0,2006.198471000061,2.0,1.0,phase_3,,,,,220.0,5.0,44.0,132.0,264.0,220.0,88.0,176.0,yellow,triangle
0.0,2.0,2.0,0.0,7.0,6.0,3557.7038869996613,2.0,1.0,phase_3,,,,,196.0,4.0,294.0,147.0,245.0,49.0,98.0,196.0,orange,circle
0.0,6.0,2.0,1.0,7.0,4.0,1618.0570670003362,2.0,1.0,phase_3,,,,,108.0,2.0,270.0,216.0,54.0,108.0,162.0,324.0,cyan,diamond
0.0,2.0,2.0,0.0,7.0,5.0,2454.4213869994564,2.0,1.0,phase_3,,,,,176.0,4.0,132.0,264.0,220.0,88.0,176.0,44.0,orange,circle
0.0,7.0,3.0,1.0,7.0,4.0,1542.3755929996332,2.0,1.0,phase_3,,,,,132.0,3.0,220.0,176.0,88.0,132.0,264.0,44.0,gray,cross
0.0,4.0,4.0,0.0,7.0,3.0,2406.756753999616,2.0,1.0,phase_3,,,,,216.0,4.0,324.0,108.0,216.0,270.0,54.0,162.0,yellow,triangle
0.0,5.0,1.0,1.0,7.0,3.0,2204.22586299992,2.0,1.0,phase_3,,,,,136.0,4.0,68.0,204.0,136.0,170.0,34.0,102.0,magenta,I
0.0,1.0,1.0,0.0,7.0,6.0,2064.41200900008,2.0,1.0,phase_3,,,,,196.0,4.0,49.0,245.0,98.0,147.0,294.0,196.0,green,flipped triangle
0.0,6.0,2.0,1.0,7.0,4.0,1830.233837000378,2.0,1.0,phase_3,,,,,170.0,5.0,204.0,68.0,136.0,170.0,34.0,102.0,cyan,diamond
0.0,3.0,3.0,0.0,7.0,5.0,2156.351380999695,2.0,1.0,phase_3,,,,,245.0,5.0,196.0,147.0,98.0,294.0,245.0,49.0,blue,square
0.0,4.0,4.0,0.0,7.0,1.0,2834.8363459999746,2.0,1.0,phase_3,,,,,234.0,6.0,234.0,117.0,78.0,195.0,156.0,39.0,yellow,triangle
0.0,4.0,4.0,0.0,7.0,5.0,1534.5629319999716,2.0,1.0,phase_3,,,,,245.0,5.0,196.0,147.0,49.0,294.0,245.0,98.0,yellow,triangle
0.0,3.0,3.0,0.0,7.0,4.0,2360.3625079995254,2.0,1.0,phase_3,,,,,170.0,5.0,136.0,34.0,204.0,170.0,102.0,68.0,blue,square
0.0,6.0,2.0,1.0,7.0,3.0,1957.0388120000644,2.0,1.0,phase_3,,,,,162.0,3.0,216.0,108.0,162.0,270.0,54.0,324.0,cyan,diamond
0.0,7.0,3.0,1.0,7.0,1.0,1925.877627999398,2.0,1.0,phase_3,,,,,39.0,1.0,39.0,156.0,117.0,195.0,78.0,234.0,gray,cross
0.0,1.0,1.0,0.0,7.0,2.0,2943.227647999265,3.0,1.0,phase_3,,,,,195.0,5.0,39.0,195.0,156.0,117.0,78.0,234.0,green,flipped triangle
0.0,8.0,4.0,1.0,7.0,2.0,1844.8278480000224,3.0,1.0,phase_3,,,,,204.0,6.0,136.0,204.0,102.0,68.0,34.0,170.0,white,hexagon
0.0,3.0,3.0,0.0,7.0,1.0,2683.4090470001684,3.0,1.0,phase_3,,,,,216.0,4.0,216.0,162.0,270.0,54.0,324.0,108.0,blue,square
0.0,2.0,2.0,0.0,7.0,1.0,2406.3615109998864,3.0,1.0,phase_3,,,,,195.0,5.0,195.0,39.0,156.0,117.0,234.0,78.0,orange,circle
0.0,7.0,3.0,1.0,7.0,6.0,1682.0840199998202,3.0,1.0,phase_3,,,,,49.0,1.0,294.0,98.0,147.0,245.0,196.0,49.0,gray,cross
0.0,7.0,3.0,1.0,7.0,2.0,1837.572338999962,3.0,1.0,phase_3,,,,,68.0,2.0,102.0,68.0,204.0,136.0,34.0,170.0,gray,cross
0.0,8.0,4.0,1.0,7.0,2.0,2051.3853540005584,3.0,1.0,phase_3,,,,,264.0,6.0,220.0,264.0,88.0,44.0,132.0,176.0,white,hexagon
0.0,5.0,1.0,1.0,7.0,2.0,1299.7843680004737,3.0,1.0,phase_3,,,,,78.0,2.0,117.0,78.0,39.0,234.0,156.0,195.0,magenta,I
0.0,7.0,3.0,1.0,7.0,6.0,3392.41418399979,3.0,1.0,phase_3,,,,,162.0,3.0,108.0,324.0,54.0,270.0,216.0,162.0,gray,cross
0.0,1.0,1.0,0.0,7.0,2.0,2047.4121609995564,3.0,1.0,phase_3,,,,,270.0,5.0,216.0,270.0,162.0,324.0,108.0,54.0,green,flipped triangle
0.0,3.0,3.0,0.0,7.0,3.0,1778.4364839999398,3.0,1.0,phase_3,,,,,132.0,3.0,264.0,44.0,132.0,176.0,88.0,220.0,blue,square
0.0,8.0,4.0,1.0,7.0,6.0,2062.5715830001354,3.0,1.0,phase_3,,,,,264.0,6.0,44.0,132.0,176.0,220.0,88.0,264.0,white,hexagon
0.0,7.0,3.0,1.0,7.0,5.0,1556.588260000353,3.0,1.0,phase_3,,,,,49.0,1.0,196.0,294.0,98.0,245.0,49.0,147.0,gray,cross
0.0,6.0,2.0,1.0,7.0,1.0,1976.7552170005729,3.0,1.0,phase_3,,,,,156.0,4.0,156.0,195.0,39.0,117.0,234.0,78.0,cyan,diamond
0.0,1.0,1.0,0.0,7.0,2.0,2883.32968099985,3.0,1.0,phase_3,,,,,245.0,5.0,147.0,245.0,49.0,98.0,294.0,196.0,green,flipped triangle
0.0,8.0,4.0,1.0,7.0,2.0,2486.0824900006264,3.0,1.0,phase_3,,,,,270.0,5.0,324.0,270.0,216.0,108.0,162.0,54.0,white,hexagon
0.0,2.0,2.0,0.0,7.0,4.0,1428.502794000451,3.0,1.0,phase_3,,,,,117.0,3.0,156.0,78.0,39.0,117.0,195.0,234.0,orange,circle
0.0,4.0,4.0,0.0,7.0,1.0,2196.6863919997195,3.0,1.0,phase_3,,,,,195.0,5.0,195.0,117.0,78.0,39.0,234.0,156.0,yellow,triangle
0.0,8.0,4.0,1.0,7.0,4.0,1545.957672999975,3.0,1.0,phase_3,,,,,294.0,6.0,245.0,49.0,147.0,294.0,98.0,196.0,white,hexagon
0.0,7.0,3.0,1.0,7.0,1.0,2136.457741999948,3.0,1.0,phase_3,,,,,108.0,2.0,108.0,54.0,270.0,216.0,324.0,162.0,gray,cross
0.0,4.0,4.0,0.0,7.0,4.0,1324.514232999718,4.0,1.0,phase_3,,,,,147.0,3.0,196.0,49.0,245.0,147.0,294.0,98.0,yellow,triangle
0.0,7.0,3.0,1.0,7.0,5.0,1481.803220999609,4.0,1.0,phase_3,,,,,117.0,3.0,156.0,78.0,234.0,39.0,117.0,195.0,gray,cross
0.0,8.0,4.0,1.0,7.0,5.0,1572.352477000095,4.0,1.0,phase_3,,,,,234.0,6.0,117.0,39.0,156.0,78.0,234.0,195.0,white,hexagon
0.0,3.0,3.0,0.0,7.0,3.0,1649.7420359992248,4.0,1.0,phase_3,,,,,147.0,3.0,196.0,294.0,147.0,245.0,49.0,98.0,blue,square
0.0,2.0,2.0,0.0,7.0,3.0,3935.081207999247,4.0,1.0,phase_3,,,,,147.0,3.0,98.0,294.0,147.0,196.0,245.0,49.0,orange,circle
0.0,6.0,2.0,1.0,7.0,2.0,3053.398773000481,4.0,1.0,phase_3,,,,,176.0,4.0,44.0,176.0,264.0,220.0,88.0,132.0,cyan,diamond
0.0,5.0,1.0,1.0,7.0,3.0,2637.548173000141,4.0,1.0,phase_3,,,,,88.0,2.0,220.0,132.0,88.0,264.0,44.0,176.0,magenta,I
0.0,1.0,1.0,0.0,7.0,4.0,2217.5439180000467,4.0,1.0,phase_3,,,,,204.0,6.0,68.0,34.0,102.0,204.0,136.0,170.0,green,flipped triangle
0.0,2.0,2.0,0.0,7.0,5.0,2670.2655300005063,4.0,1.0,phase_3,,,,,132.0,3.0,220.0,264.0,88.0,176.0,132.0,44.0,orange,circle
0.0,6.0,2.0,1.0,7.0,5.0,2664.8663719997785,4.0,1.0,phase_3,,,,,196.0,4.0,98.0,147.0,245.0,49.0,196.0,294.0,cyan,diamond
0.0,8.0,4.0,1.0,7.0,4.0,2848.3700099995986,4.0,1.0,phase_3,,,,,234.0,6.0,78.0,156.0,195.0,234.0,39.0,117.0,white,hexagon
0.0,2.0,2.0,0.0,7.0,5.0,2426.69622899939,4.0,1.0,phase_3,,,,,136.0,4.0,102.0,68.0,170.0,204.0,136.0,34.0,orange,circle
0.0,1.0,1.0,0.0,7.0,1.0,2454.2860359997576,4.0,1.0,phase_3,,,,,176.0,4.0,176.0,132.0,88.0,220.0,44.0,264.0,green,flipped triangle
0.0,5.0,1.0,1.0,7.0,1.0,3025.593125999876,4.0,1.0,phase_3,,,,,117.0,3.0,117.0,78.0,195.0,39.0,234.0,156.0,magenta,I
0.0,7.0,3.0,1.0,7.0,4.0,1477.421059000335,4.0,1.0,phase_3,,,,,68.0,2.0,204.0,102.0,34.0,68.0,170.0,136.0,gray,cross
0.0,4.0,4.0,0.0,7.0,5.0,1946.7912309992244,4.0,1.0,phase_3,,,,,204.0,6.0,102.0,170.0,34.0,136.0,204.0,68.0,yellow,triangle
0.0,7.0,3.0,1.0,7.0,2.0,2093.876697999804,4.0,1.0,phase_3,,,,,88.0,2.0,132.0,88.0,44.0,264.0,220.0,176.0,gray,cross
0.0,8.0,4.0,1.0,7.0,1.0,2239.282116999675,4.0,1.0,phase_3,,,,,204.0,6.0,204.0,68.0,34.0,170.0,136.0,102.0,white,hexagon
0.0,5.0,1.0,1.0,7.0,5.0,2199.2369330000656,4.0,1.0,phase_3,,,,,102.0,3.0,68.0,170.0,34.0,204.0,102.0,136.0,magenta,I
0.0,3.0,3.0,0.0,7.0,1.0,3280.939416000365,4.0,1.0,phase_3,,,,,88.0,2.0,88.0,44.0,176.0,220.0,132.0,264.0,blue,square
