raw_reward_magnitude,stim_reward,stepwise_reward_magnitude,paired_with_stopping,quadrant,response,reaction_time,block,num_trial_presentations,which_part,stop_signal_trial_type,left_SSD,right_SSD,accuracy,chosen_bidding_amount,chosen_bidding_level,possible_bid_1,possible_bid_2,possible_bid_3,possible_bid_4,possible_bid_5,possible_bid_6,color_text,shape_text
421.0,4.0,4.0,0.0,4.0,4.0,438.0872649999219,1.0,1.0,part_1,,,,,,,,,,,,,cyan,hexagon
408.0,4.0,4.0,0.0,4.0,4.0,384.1219020000608,1.0,1.0,part_1,,,,,,,,,,,,,cyan,hexagon
187.0,7.0,3.0,1.0,1.0,1.0,375.0225680000767,1.0,1.0,part_1,,,,,,,,,,,,,yellow,flipped triangle
112.0,2.0,2.0,0.0,2.0,2.0,365.8795060000557,1.0,1.0,part_1,,,,,,,,,,,,,white,cross
85.0,2.0,2.0,0.0,2.0,2.0,370.9024100003262,1.0,1.0,part_1,,,,,,,,,,,,,white,cross
225.0,3.0,3.0,0.0,4.0,4.0,367.2230090000994,1.0,1.0,part_1,,,,,,,,,,,,,orange,I
0.0,5.0,0.0,1.0,1.0,1.0,344.285359999958,1.0,1.0,part_1,,,,,,,,,,,,,gray,diamond
382.0,8.0,4.0,1.0,3.0,3.0,305.841583000074,1.0,1.0,part_1,,,,,,,,,,,,,magenta,square
123.0,6.0,2.0,1.0,3.0,3.0,452.681357000074,1.0,1.0,part_1,,,,,,,,,,,,,blue,triangle
48.0,5.0,1.0,1.0,4.0,4.0,465.4364040002292,1.0,1.0,part_1,,,,,,,,,,,,,gray,diamond
194.0,7.0,3.0,1.0,4.0,4.0,328.0540739997377,1.0,1.0,part_1,,,,,,,,,,,,,yellow,flipped triangle
51.0,5.0,1.0,1.0,1.0,1.0,340.6870469998466,1.0,1.0,part_1,,,,,,,,,,,,,gray,diamond
192.0,3.0,3.0,0.0,1.0,1.0,330.2411499998925,1.0,1.0,part_1,,,,,,,,,,,,,orange,I
82.0,6.0,2.0,1.0,2.0,2.0,341.9778020002013,1.0,1.0,part_1,,,,,,,,,,,,,blue,triangle
25.0,5.0,1.0,1.0,3.0,3.0,331.8425190000198,1.0,1.0,part_1,,,,,,,,,,,,,gray,diamond
82.0,2.0,2.0,0.0,4.0,4.0,308.3422109998537,1.0,1.0,part_1,,,,,,,,,,,,,white,cross
96.0,6.0,2.0,1.0,2.0,2.0,378.7633940000887,1.0,2.0,part_1,,,,,,,,,,,,,blue,triangle
376.0,8.0,4.0,1.0,2.0,2.0,462.5332650002747,1.0,1.0,part_1,,,,,,,,,,,,,magenta,square
26.0,1.0,1.0,0.0,3.0,3.0,465.7439150000755,1.0,1.0,part_1,,,,,,,,,,,,,green,circle
39.0,5.0,1.0,1.0,2.0,2.0,310.5270880000716,1.0,1.0,part_1,,,,,,,,,,,,,gray,diamond
384.0,8.0,4.0,1.0,4.0,4.0,275.1424180000867,1.0,1.0,part_1,,,,,,,,,,,,,magenta,square
0.0,7.0,0.0,1.0,4.0,4.0,334.0016960000866,1.0,1.0,part_1,,,,,,,,,,,,,yellow,flipped triangle
0.0,6.0,0.0,1.0,3.0,3.0,419.0450579999378,1.0,1.0,part_1,,,,,,,,,,,,,blue,triangle
402.0,8.0,4.0,1.0,4.0,4.0,373.0289400000401,1.0,1.0,part_1,,,,,,,,,,,,,magenta,square
29.0,5.0,1.0,1.0,3.0,3.0,384.1450619997886,1.0,1.0,part_1,,,,,,,,,,,,,gray,diamond
212.0,7.0,3.0,1.0,3.0,3.0,363.8216859999374,1.0,1.0,part_1,,,,,,,,,,,,,yellow,flipped triangle
29.0,5.0,1.0,1.0,1.0,1.0,323.2155149999016,1.0,1.0,part_1,,,,,,,,,,,,,gray,diamond
73.0,1.0,1.0,0.0,4.0,4.0,328.3923590001905,1.0,1.0,part_1,,,,,,,,,,,,,green,circle
201.0,7.0,3.0,1.0,3.0,3.0,341.3925889999518,1.0,1.0,part_1,,,,,,,,,,,,,yellow,flipped triangle
107.0,2.0,2.0,0.0,1.0,1.0,304.9541079999471,1.0,1.0,part_1,,,,,,,,,,,,,white,cross
0.0,1.0,0.0,0.0,1.0,1.0,333.8943509997989,1.0,1.0,part_1,,,,,,,,,,,,,green,circle
197.0,3.0,3.0,0.0,4.0,4.0,333.4723960001611,1.0,1.0,part_1,,,,,,,,,,,,,orange,I
0.0,4.0,0.0,0.0,4.0,4.0,291.5762369998447,1.0,1.0,part_1,,,,,,,,,,,,,cyan,hexagon
0.0,3.0,0.0,0.0,2.0,2.0,291.6478060001282,1.0,1.0,part_1,,,,,,,,,,,,,orange,I
402.0,4.0,4.0,0.0,2.0,2.0,294.6111639998889,1.0,1.0,part_1,,,,,,,,,,,,,cyan,hexagon
112.0,6.0,2.0,1.0,3.0,3.0,409.1650149998713,1.0,2.0,part_1,,,,,,,,,,,,,blue,triangle
407.0,4.0,4.0,0.0,2.0,2.0,322.1985710001718,1.0,1.0,part_1,,,,,,,,,,,,,cyan,hexagon
398.0,4.0,4.0,0.0,1.0,1.0,311.6064030000416,1.0,1.0,part_1,,,,,,,,,,,,,cyan,hexagon
70.0,1.0,1.0,0.0,1.0,1.0,346.1536740001065,1.0,1.0,part_1,,,,,,,,,,,,,green,circle
90.0,6.0,2.0,1.0,4.0,4.0,392.7906019998772,1.0,1.0,part_1,,,,,,,,,,,,,blue,triangle
32.0,1.0,1.0,0.0,3.0,3.0,366.5031300001828,1.0,1.0,part_1,,,,,,,,,,,,,green,circle
75.0,1.0,1.0,0.0,4.0,4.0,318.4769130002678,1.0,1.0,part_1,,,,,,,,,,,,,green,circle
76.0,2.0,2.0,0.0,3.0,3.0,400.3481159998046,1.0,1.0,part_1,,,,,,,,,,,,,white,cross
93.0,6.0,2.0,1.0,4.0,4.0,346.7880640000658,1.0,1.0,part_1,,,,,,,,,,,,,blue,triangle
0.0,7.0,0.0,1.0,3.0,3.0,343.8989669998591,1.0,1.0,part_1,,,,,,,,,,,,,yellow,flipped triangle
0.0,2.0,0.0,0.0,3.0,3.0,351.246145999994,1.0,1.0,part_1,,,,,,,,,,,,,white,cross
0.0,3.0,0.0,0.0,4.0,4.0,317.0968750000611,1.0,1.0,part_1,,,,,,,,,,,,,orange,I
30.0,1.0,1.0,0.0,1.0,1.0,342.8523009997661,1.0,1.0,part_1,,,,,,,,,,,,,green,circle
0.0,5.0,0.0,1.0,2.0,2.0,297.3562629999833,1.0,1.0,part_1,,,,,,,,,,,,,gray,diamond
215.0,7.0,3.0,1.0,3.0,3.0,339.507193999907,1.0,1.0,part_1,,,,,,,,,,,,,yellow,flipped triangle
0.0,7.0,0.0,1.0,4.0,4.0,439.2413850000594,1.0,1.0,part_1,,,,,,,,,,,,,yellow,flipped triangle
187.0,3.0,3.0,0.0,2.0,2.0,287.546427000052,1.0,1.0,part_1,,,,,,,,,,,,,orange,I
202.0,3.0,3.0,0.0,3.0,3.0,326.8909149996943,1.0,1.0,part_1,,,,,,,,,,,,,orange,I
0.0,1.0,0.0,0.0,2.0,2.0,336.5458319999561,1.0,1.0,part_1,,,,,,,,,,,,,green,circle
111.0,6.0,2.0,1.0,2.0,2.0,333.2498670001769,1.0,1.0,part_1,,,,,,,,,,,,,blue,triangle
424.0,4.0,4.0,0.0,1.0,1.0,366.4431489996786,1.0,1.0,part_1,,,,,,,,,,,,,cyan,hexagon
93.0,2.0,2.0,0.0,4.0,4.0,379.501762000018,1.0,1.0,part_1,,,,,,,,,,,,,white,cross
101.0,2.0,2.0,0.0,3.0,3.0,372.5120129997776,1.0,1.0,part_1,,,,,,,,,,,,,white,cross
112.0,2.0,2.0,0.0,1.0,1.0,348.9182769999388,1.0,1.0,part_1,,,,,,,,,,,,,white,cross
176.0,3.0,3.0,0.0,3.0,3.0,327.5613099999646,1.0,1.0,part_1,,,,,,,,,,,,,orange,I
64.0,1.0,1.0,0.0,3.0,3.0,375.5032379999647,1.0,1.0,part_1,,,,,,,,,,,,,green,circle
50.0,1.0,1.0,0.0,4.0,4.0,317.1344310003405,1.0,1.0,part_1,,,,,,,,,,,,,green,circle
210.0,7.0,3.0,1.0,2.0,2.0,302.0827229997849,1.0,1.0,part_1,,,,,,,,,,,,,yellow,flipped triangle
0.0,7.0,0.0,1.0,1.0,1.0,331.8949979998251,1.0,1.0,part_1,,,,,,,,,,,,,yellow,flipped triangle
422.0,8.0,4.0,1.0,3.0,3.0,325.4615629998625,1.0,1.0,part_1,,,,,,,,,,,,,magenta,square
421.0,8.0,4.0,1.0,1.0,1.0,322.5621030001093,1.0,1.0,part_1,,,,,,,,,,,,,magenta,square
112.0,6.0,2.0,1.0,4.0,4.0,348.5043590003442,1.0,1.0,part_1,,,,,,,,,,,,,blue,triangle
0.0,1.0,0.0,0.0,1.0,1.0,362.7639889996317,1.0,1.0,part_1,,,,,,,,,,,,,green,circle
196.0,7.0,3.0,1.0,2.0,2.0,277.0414060000803,1.0,1.0,part_1,,,,,,,,,,,,,yellow,flipped triangle
114.0,2.0,2.0,0.0,4.0,4.0,401.0811680000188,1.0,1.0,part_1,,,,,,,,,,,,,white,cross
83.0,2.0,2.0,0.0,2.0,2.0,385.4360979999001,1.0,1.0,part_1,,,,,,,,,,,,,white,cross
188.0,3.0,3.0,0.0,1.0,1.0,308.0186590000267,1.0,1.0,part_1,,,,,,,,,,,,,orange,I
70.0,5.0,1.0,1.0,4.0,4.0,566.4771679998921,1.0,1.0,part_1,,,,,,,,,,,,,gray,diamond
0.0,4.0,0.0,0.0,4.0,4.0,316.2718859998676,1.0,1.0,part_1,,,,,,,,,,,,,cyan,hexagon
0.0,2.0,0.0,0.0,1.0,1.0,288.2307869999749,1.0,1.0,part_1,,,,,,,,,,,,,white,cross
0.0,2.0,0.0,0.0,3.0,3.0,249.8608369996873,1.0,1.0,part_1,,,,,,,,,,,,,white,cross
114.0,6.0,2.0,1.0,2.0,2.0,279.0645180002684,1.0,1.0,part_1,,,,,,,,,,,,,blue,triangle
215.0,7.0,3.0,1.0,3.0,3.0,307.8706760002205,1.0,1.0,part_1,,,,,,,,,,,,,yellow,flipped triangle
56.0,1.0,1.0,0.0,3.0,3.0,317.1199299999898,1.0,1.0,part_1,,,,,,,,,,,,,green,circle
0.0,4.0,0.0,0.0,3.0,3.0,879.0828300002431,1.0,1.0,part_1,,,,,,,,,,,,,cyan,hexagon
216.0,3.0,3.0,0.0,2.0,2.0,405.1007660000323,1.0,1.0,part_1,,,,,,,,,,,,,orange,I
0.0,6.0,0.0,1.0,1.0,1.0,274.3822769998587,1.0,1.0,part_1,,,,,,,,,,,,,blue,triangle
220.0,3.0,3.0,0.0,4.0,4.0,310.0955920003798,1.0,1.0,part_1,,,,,,,,,,,,,orange,I
56.0,5.0,1.0,1.0,4.0,4.0,446.3329019999946,1.0,1.0,part_1,,,,,,,,,,,,,gray,diamond
102.0,6.0,2.0,1.0,2.0,2.0,308.3788069998263,1.0,1.0,part_1,,,,,,,,,,,,,blue,triangle
44.0,5.0,1.0,1.0,3.0,3.0,343.3107740002015,1.0,1.0,part_1,,,,,,,,,,,,,gray,diamond
0.0,8.0,0.0,1.0,2.0,2.0,275.1709859999209,1.0,1.0,part_1,,,,,,,,,,,,,magenta,square
85.0,6.0,2.0,1.0,1.0,1.0,293.9760549998027,1.0,1.0,part_1,,,,,,,,,,,,,blue,triangle
55.0,5.0,1.0,1.0,3.0,3.0,333.5334210000837,1.0,1.0,part_1,,,,,,,,,,,,,gray,diamond
0.0,4.0,0.0,0.0,2.0,2.0,296.91298500029,1.0,1.0,part_1,,,,,,,,,,,,,cyan,hexagon
215.0,3.0,3.0,0.0,2.0,2.0,288.5025519999544,1.0,1.0,part_1,,,,,,,,,,,,,orange,I
195.0,3.0,3.0,0.0,2.0,2.0,297.2765300000901,1.0,1.0,part_1,,,,,,,,,,,,,orange,I
51.0,1.0,1.0,0.0,4.0,4.0,339.3167119997997,1.0,1.0,part_1,,,,,,,,,,,,,green,circle
0.0,4.0,0.0,0.0,2.0,2.0,298.5731930002657,1.0,1.0,part_1,,,,,,,,,,,,,cyan,hexagon
422.0,4.0,4.0,0.0,1.0,1.0,314.4538880001164,1.0,1.0,part_1,,,,,,,,,,,,,cyan,hexagon
0.0,5.0,0.0,1.0,1.0,1.0,310.4689030001282,1.0,1.0,part_1,,,,,,,,,,,,,gray,diamond
388.0,8.0,4.0,1.0,4.0,4.0,317.6858739998351,1.0,1.0,part_1,,,,,,,,,,,,,magenta,square
44.0,1.0,1.0,0.0,1.0,1.0,402.3887110001851,1.0,1.0,part_1,,,,,,,,,,,,,green,circle
75.0,5.0,1.0,1.0,2.0,2.0,313.7004559998786,1.0,1.0,part_1,,,,,,,,,,,,,gray,diamond
398.0,4.0,4.0,0.0,1.0,1.0,287.0141259995762,1.0,1.0,part_1,,,,,,,,,,,,,cyan,hexagon
0.0,1.0,0.0,0.0,3.0,3.0,319.2421180001474,2.0,1.0,part_1,,,,,,,,,,,,,green,circle
122.0,6.0,2.0,1.0,2.0,2.0,290.7304599998497,2.0,1.0,part_1,,,,,,,,,,,,,blue,triangle
396.0,8.0,4.0,1.0,2.0,2.0,434.3378150001626,2.0,1.0,part_1,,,,,,,,,,,,,magenta,square
215.0,3.0,3.0,0.0,1.0,1.0,335.2371519999906,2.0,1.0,part_1,,,,,,,,,,,,,orange,I
25.0,1.0,1.0,0.0,1.0,1.0,325.2118059999702,2.0,1.0,part_1,,,,,,,,,,,,,green,circle
107.0,6.0,2.0,1.0,4.0,4.0,304.452683999898,2.0,1.0,part_1,,,,,,,,,,,,,blue,triangle
111.0,2.0,2.0,0.0,3.0,3.0,309.8953620001339,2.0,1.0,part_1,,,,,,,,,,,,,white,cross
56.0,1.0,1.0,0.0,3.0,3.0,309.6577249998518,2.0,1.0,part_1,,,,,,,,,,,,,green,circle
101.0,6.0,2.0,1.0,3.0,3.0,299.644138000076,2.0,1.0,part_1,,,,,,,,,,,,,blue,triangle
0.0,8.0,0.0,1.0,3.0,3.0,459.24164500002,2.0,1.0,part_1,,,,,,,,,,,,,magenta,square
376.0,4.0,4.0,0.0,4.0,4.0,392.733182000029,2.0,1.0,part_1,,,,,,,,,,,,,cyan,hexagon
423.0,8.0,4.0,1.0,4.0,4.0,350.1764409998031,2.0,1.0,part_1,,,,,,,,,,,,,magenta,square
56.0,1.0,1.0,0.0,1.0,1.0,368.5994699999355,2.0,1.0,part_1,,,,,,,,,,,,,green,circle
122.0,2.0,2.0,0.0,2.0,2.0,329.414879000069,2.0,1.0,part_1,,,,,,,,,,,,,white,cross
123.0,2.0,2.0,0.0,4.0,4.0,353.1110020003325,2.0,1.0,part_1,,,,,,,,,,,,,white,cross
0.0,7.0,0.0,1.0,2.0,2.0,299.5591809999496,2.0,1.0,part_1,,,,,,,,,,,,,yellow,flipped triangle
180.0,7.0,3.0,1.0,2.0,2.0,318.2475869998598,2.0,1.0,part_1,,,,,,,,,,,,,yellow,flipped triangle
0.0,8.0,0.0,1.0,3.0,3.0,318.7283850002131,2.0,1.0,part_1,,,,,,,,,,,,,magenta,square
26.0,1.0,1.0,0.0,2.0,2.0,305.7058580002376,2.0,1.0,part_1,,,,,,,,,,,,,green,circle
178.0,7.0,3.0,1.0,3.0,3.0,420.7096210002419,2.0,1.0,part_1,,,,,,,,,,,,,yellow,flipped triangle
99.0,2.0,2.0,0.0,3.0,3.0,467.7511100003357,2.0,1.0,part_1,,,,,,,,,,,,,white,cross
30.0,1.0,1.0,0.0,3.0,3.0,310.3688969999894,2.0,1.0,part_1,,,,,,,,,,,,,green,circle
192.0,7.0,3.0,1.0,2.0,2.0,342.4539180000465,2.0,1.0,part_1,,,,,,,,,,,,,yellow,flipped triangle
0.0,3.0,0.0,0.0,2.0,2.0,281.0538710000401,2.0,1.0,part_1,,,,,,,,,,,,,orange,I
393.0,4.0,4.0,0.0,2.0,2.0,311.5274880001379,2.0,1.0,part_1,,,,,,,,,,,,,cyan,hexagon
196.0,3.0,3.0,0.0,3.0,3.0,377.5025909999385,2.0,1.0,part_1,,,,,,,,,,,,,orange,I
200.0,7.0,3.0,1.0,3.0,3.0,352.1158389999073,2.0,1.0,part_1,,,,,,,,,,,,,yellow,flipped triangle
382.0,4.0,4.0,0.0,4.0,4.0,430.1037860000178,2.0,1.0,part_1,,,,,,,,,,,,,cyan,hexagon
39.0,1.0,1.0,0.0,1.0,1.0,245.267227000113,2.0,1.0,part_1,,,,,,,,,,,,,green,circle
398.0,8.0,4.0,1.0,2.0,2.0,269.739933999972,2.0,1.0,part_1,,,,,,,,,,,,,magenta,square
63.0,1.0,1.0,0.0,2.0,2.0,315.0500430001557,2.0,1.0,part_1,,,,,,,,,,,,,green,circle
78.0,2.0,2.0,0.0,4.0,4.0,334.1908639999928,2.0,1.0,part_1,,,,,,,,,,,,,white,cross
0.0,5.0,0.0,1.0,2.0,2.0,270.9170120001545,2.0,1.0,part_1,,,,,,,,,,,,,gray,diamond
225.0,7.0,3.0,1.0,4.0,4.0,386.1113180000757,2.0,1.0,part_1,,,,,,,,,,,,,yellow,flipped triangle
71.0,1.0,1.0,0.0,3.0,3.0,322.0464649998575,2.0,1.0,part_1,,,,,,,,,,,,,green,circle
0.0,8.0,0.0,1.0,3.0,3.0,320.8183070000814,2.0,1.0,part_1,,,,,,,,,,,,,magenta,square
180.0,7.0,3.0,1.0,2.0,2.0,445.886996000354,2.0,1.0,part_1,,,,,,,,,,,,,yellow,flipped triangle
376.0,4.0,4.0,0.0,3.0,3.0,312.9446200000529,2.0,1.0,part_1,,,,,,,,,,,,,cyan,hexagon
386.0,4.0,4.0,0.0,3.0,3.0,362.7159749999009,2.0,1.0,part_1,,,,,,,,,,,,,cyan,hexagon
55.0,1.0,1.0,0.0,2.0,2.0,292.7170180000757,2.0,1.0,part_1,,,,,,,,,,,,,green,circle
382.0,4.0,4.0,0.0,2.0,2.0,262.0023039999068,2.0,1.0,part_1,,,,,,,,,,,,,cyan,hexagon
185.0,3.0,3.0,0.0,2.0,2.0,316.6142230002151,2.0,1.0,part_1,,,,,,,,,,,,,orange,I
82.0,6.0,2.0,1.0,3.0,3.0,404.7299209996708,2.0,1.0,part_1,,,,,,,,,,,,,blue,triangle
99.0,6.0,2.0,1.0,4.0,4.0,376.2703790002888,2.0,1.0,part_1,,,,,,,,,,,,,blue,triangle
382.0,8.0,4.0,1.0,4.0,4.0,368.2155040000907,2.0,1.0,part_1,,,,,,,,,,,,,magenta,square
88.0,6.0,2.0,1.0,4.0,4.0,322.973398999693,2.0,1.0,part_1,,,,,,,,,,,,,blue,triangle
206.0,3.0,3.0,0.0,4.0,4.0,349.346998999863,2.0,1.0,part_1,,,,,,,,,,,,,orange,I
210.0,3.0,3.0,0.0,4.0,4.0,403.9276779999454,2.0,1.0,part_1,,,,,,,,,,,,,orange,I
210.0,7.0,3.0,1.0,1.0,1.0,366.8839140000273,2.0,1.0,part_1,,,,,,,,,,,,,yellow,flipped triangle
407.0,8.0,4.0,1.0,4.0,4.0,463.7648309999349,2.0,1.0,part_1,,,,,,,,,,,,,magenta,square
185.0,7.0,3.0,1.0,1.0,1.0,405.8504840004389,2.0,1.0,part_1,,,,,,,,,,,,,yellow,flipped triangle
110.0,6.0,2.0,1.0,3.0,3.0,349.5922360002623,2.0,1.0,part_1,,,,,,,,,,,,,blue,triangle
83.0,6.0,2.0,1.0,3.0,3.0,343.5374089999641,2.0,1.0,part_1,,,,,,,,,,,,,blue,triangle
63.0,1.0,1.0,0.0,3.0,3.0,314.4549749999896,2.0,1.0,part_1,,,,,,,,,,,,,green,circle
103.0,6.0,2.0,1.0,3.0,3.0,321.993035000105,2.0,1.0,part_1,,,,,,,,,,,,,blue,triangle
0.0,6.0,0.0,1.0,1.0,1.0,350.6546059998072,2.0,1.0,part_1,,,,,,,,,,,,,blue,triangle
417.0,8.0,4.0,1.0,4.0,4.0,301.1023610001757,2.0,1.0,part_1,,,,,,,,,,,,,magenta,square
44.0,1.0,1.0,0.0,1.0,1.0,384.1526210003394,2.0,1.0,part_1,,,,,,,,,,,,,green,circle
410.0,4.0,4.0,0.0,1.0,1.0,331.7228389996671,2.0,1.0,part_1,,,,,,,,,,,,,cyan,hexagon
402.0,8.0,4.0,1.0,1.0,1.0,553.3926260000044,2.0,1.0,part_1,,,,,,,,,,,,,magenta,square
90.0,2.0,2.0,0.0,3.0,3.0,432.1211070000572,2.0,1.0,part_1,,,,,,,,,,,,,white,cross
216.0,3.0,3.0,0.0,3.0,3.0,379.7445820000575,2.0,2.0,part_1,,,,,,,,,,,,,orange,I
0.0,4.0,0.0,0.0,4.0,4.0,368.8497499997538,2.0,1.0,part_1,,,,,,,,,,,,,cyan,hexagon
196.0,3.0,3.0,0.0,2.0,2.0,354.5969259998855,2.0,1.0,part_1,,,,,,,,,,,,,orange,I
377.0,8.0,4.0,1.0,3.0,3.0,412.6032209996992,2.0,1.0,part_1,,,,,,,,,,,,,magenta,square
386.0,8.0,4.0,1.0,2.0,2.0,425.0675319999573,2.0,1.0,part_1,,,,,,,,,,,,,magenta,square
51.0,5.0,1.0,1.0,3.0,3.0,332.0006260000809,2.0,1.0,part_1,,,,,,,,,,,,,gray,diamond
0.0,2.0,0.0,0.0,1.0,1.0,416.310815000088,2.0,1.0,part_1,,,,,,,,,,,,,white,cross
51.0,1.0,1.0,0.0,2.0,2.0,322.9821539998738,2.0,1.0,part_1,,,,,,,,,,,,,green,circle
29.0,1.0,1.0,0.0,4.0,4.0,467.765646999851,2.0,1.0,part_1,,,,,,,,,,,,,green,circle
200.0,7.0,3.0,1.0,3.0,3.0,383.6309650000657,2.0,1.0,part_1,,,,,,,,,,,,,yellow,flipped triangle
417.0,4.0,4.0,0.0,2.0,2.0,327.6586480001242,2.0,1.0,part_1,,,,,,,,,,,,,cyan,hexagon
400.0,8.0,4.0,1.0,2.0,2.0,287.019846000021,2.0,1.0,part_1,,,,,,,,,,,,,magenta,square
0.0,1.0,0.0,0.0,4.0,4.0,324.8680349997812,2.0,1.0,part_1,,,,,,,,,,,,,green,circle
0.0,3.0,0.0,0.0,2.0,2.0,291.1656470000707,2.0,1.0,part_1,,,,,,,,,,,,,orange,I
394.0,4.0,4.0,0.0,3.0,3.0,571.5254480001022,2.0,1.0,part_1,,,,,,,,,,,,,cyan,hexagon
410.0,4.0,4.0,0.0,3.0,3.0,613.2540140001765,2.0,1.0,part_1,,,,,,,,,,,,,cyan,hexagon
0.0,3.0,0.0,0.0,3.0,3.0,282.7463670000725,2.0,1.0,part_1,,,,,,,,,,,,,orange,I
101.0,6.0,2.0,1.0,1.0,1.0,379.122174999793,2.0,1.0,part_1,,,,,,,,,,,,,blue,triangle
206.0,3.0,3.0,0.0,3.0,3.0,382.8443140000672,2.0,1.0,part_1,,,,,,,,,,,,,orange,I
65.0,1.0,1.0,0.0,4.0,4.0,354.8893020001742,2.0,1.0,part_1,,,,,,,,,,,,,green,circle
206.0,7.0,3.0,1.0,3.0,3.0,309.0106919999016,2.0,1.0,part_1,,,,,,,,,,,,,yellow,flipped triangle
175.0,7.0,3.0,1.0,2.0,2.0,357.0671000002221,2.0,1.0,part_1,,,,,,,,,,,,,yellow,flipped triangle
191.0,7.0,3.0,1.0,4.0,4.0,406.0925900002985,2.0,1.0,part_1,,,,,,,,,,,,,yellow,flipped triangle
102.0,2.0,2.0,0.0,2.0,2.0,331.3058929998078,2.0,1.0,part_1,,,,,,,,,,,,,white,cross
0.0,1.0,0.0,0.0,2.0,2.0,331.538638999973,2.0,1.0,part_1,,,,,,,,,,,,,green,circle
108.0,2.0,2.0,0.0,2.0,2.0,353.2848869999725,2.0,1.0,part_1,,,,,,,,,,,,,white,cross
405.0,8.0,4.0,1.0,1.0,1.0,343.7580659997366,2.0,1.0,part_1,,,,,,,,,,,,,magenta,square
0.0,5.0,0.0,1.0,2.0,2.0,284.2633339996609,2.0,1.0,part_1,,,,,,,,,,,,,gray,diamond
0.0,2.0,0.0,0.0,2.0,2.0,305.6327350000174,2.0,1.0,part_1,,,,,,,,,,,,,white,cross
110.0,2.0,2.0,0.0,2.0,2.0,341.9782849996409,2.0,1.0,part_1,,,,,,,,,,,,,white,cross
391.0,8.0,4.0,1.0,2.0,2.0,311.2407159997019,2.0,1.0,part_1,,,,,,,,,,,,,magenta,square
122.0,6.0,2.0,1.0,4.0,4.0,338.0808279998746,2.0,2.0,part_1,,,,,,,,,,,,,blue,triangle
50.0,1.0,1.0,0.0,4.0,4.0,341.4992049997636,2.0,1.0,part_1,,,,,,,,,,,,,green,circle
0.0,5.0,0.0,1.0,3.0,3.0,389.8064830000294,2.0,1.0,part_1,,,,,,,,,,,,,gray,diamond
176.0,7.0,3.0,1.0,4.0,4.0,325.1189330003399,2.0,1.0,part_1,,,,,,,,,,,,,yellow,flipped triangle
401.0,8.0,4.0,1.0,3.0,3.0,304.5557840000583,2.0,1.0,part_1,,,,,,,,,,,,,magenta,square
32.0,5.0,1.0,1.0,3.0,3.0,336.4136260001942,2.0,1.0,part_1,,,,,,,,,,,,,gray,diamond
402.0,4.0,4.0,0.0,1.0,1.0,333.6959050002406,2.0,1.0,part_1,,,,,,,,,,,,,cyan,hexagon
56.0,5.0,1.0,1.0,2.0,2.0,306.7491350002456,2.0,1.0,part_1,,,,,,,,,,,,,gray,diamond
88.0,6.0,2.0,1.0,2.0,2.0,285.6588839999858,3.0,1.0,part_1,,,,,,,,,,,,,blue,triangle
54.0,1.0,1.0,0.0,4.0,4.0,332.9676420003125,3.0,1.0,part_1,,,,,,,,,,,,,green,circle
196.0,7.0,3.0,1.0,3.0,3.0,275.5142609998984,3.0,1.0,part_1,,,,,,,,,,,,,yellow,flipped triangle
414.0,4.0,4.0,0.0,4.0,4.0,329.3973410000035,3.0,1.0,part_1,,,,,,,,,,,,,cyan,hexagon
42.0,5.0,1.0,1.0,2.0,2.0,269.9278710001636,3.0,1.0,part_1,,,,,,,,,,,,,gray,diamond
0.0,8.0,0.0,1.0,4.0,4.0,310.3208659999836,3.0,1.0,part_1,,,,,,,,,,,,,magenta,square
216.0,7.0,3.0,1.0,1.0,1.0,362.29370700039,3.0,1.0,part_1,,,,,,,,,,,,,yellow,flipped triangle
396.0,8.0,4.0,1.0,3.0,3.0,343.5434069997427,3.0,2.0,part_1,,,,,,,,,,,,,magenta,square
208.0,7.0,3.0,1.0,4.0,4.0,542.0205939999505,3.0,1.0,part_1,,,,,,,,,,,,,yellow,flipped triangle
194.0,7.0,3.0,1.0,4.0,4.0,466.630005999832,3.0,1.0,part_1,,,,,,,,,,,,,yellow,flipped triangle
377.0,8.0,4.0,1.0,3.0,3.0,406.3040499995622,3.0,1.0,part_1,,,,,,,,,,,,,magenta,square
0.0,1.0,0.0,0.0,1.0,1.0,300.7714459999988,3.0,1.0,part_1,,,,,,,,,,,,,green,circle
84.0,2.0,2.0,0.0,1.0,1.0,504.65693099977216,3.0,1.0,part_1,,,,,,,,,,,,,white,cross
396.0,4.0,4.0,0.0,2.0,2.0,247.3033910000595,3.0,1.0,part_1,,,,,,,,,,,,,cyan,hexagon
101.0,6.0,2.0,1.0,1.0,1.0,391.6136179996101,3.0,1.0,part_1,,,,,,,,,,,,,blue,triangle
408.0,8.0,4.0,1.0,2.0,2.0,263.3013189997655,3.0,1.0,part_1,,,,,,,,,,,,,magenta,square
396.0,8.0,4.0,1.0,4.0,4.0,396.6785910001817,3.0,1.0,part_1,,,,,,,,,,,,,magenta,square
88.0,2.0,2.0,0.0,1.0,1.0,400.9360159998323,3.0,1.0,part_1,,,,,,,,,,,,,white,cross
418.0,8.0,4.0,1.0,1.0,1.0,318.511411000145,3.0,1.0,part_1,,,,,,,,,,,,,magenta,square
105.0,6.0,2.0,1.0,2.0,2.0,256.4760459999888,3.0,1.0,part_1,,,,,,,,,,,,,blue,triangle
0.0,1.0,0.0,0.0,3.0,3.0,388.3323420000124,3.0,1.0,part_1,,,,,,,,,,,,,green,circle
410.0,8.0,4.0,1.0,3.0,3.0,350.3335599998536,3.0,1.0,part_1,,,,,,,,,,,,,magenta,square
417.0,4.0,4.0,0.0,4.0,4.0,304.4965230001253,3.0,1.0,part_1,,,,,,,,,,,,,cyan,hexagon
118.0,2.0,2.0,0.0,2.0,2.0,246.6498789999605,3.0,1.0,part_1,,,,,,,,,,,,,white,cross
388.0,4.0,4.0,0.0,3.0,3.0,389.4632400001683,3.0,1.0,part_1,,,,,,,,,,,,,cyan,hexagon
99.0,2.0,2.0,0.0,4.0,4.0,284.3933429999197,3.0,1.0,part_1,,,,,,,,,,,,,white,cross
0.0,2.0,0.0,0.0,1.0,1.0,249.7659019995808,3.0,1.0,part_1,,,,,,,,,,,,,white,cross
0.0,7.0,0.0,1.0,3.0,3.0,290.3717819999656,3.0,2.0,part_1,,,,,,,,,,,,,yellow,flipped triangle
222.0,7.0,3.0,1.0,1.0,1.0,310.4714439996314,3.0,1.0,part_1,,,,,,,,,,,,,yellow,flipped triangle
70.0,5.0,1.0,1.0,3.0,3.0,319.9619609999899,3.0,1.0,part_1,,,,,,,,,,,,,gray,diamond
42.0,1.0,1.0,0.0,2.0,2.0,289.7931380002774,3.0,1.0,part_1,,,,,,,,,,,,,green,circle
0.0,7.0,0.0,1.0,2.0,2.0,399.9257820000821,3.0,1.0,part_1,,,,,,,,,,,,,yellow,flipped triangle
118.0,6.0,2.0,1.0,1.0,1.0,344.5336730001145,3.0,1.0,part_1,,,,,,,,,,,,,blue,triangle
66.0,5.0,1.0,1.0,1.0,1.0,325.8484329999191,3.0,1.0,part_1,,,,,,,,,,,,,gray,diamond
29.0,5.0,1.0,1.0,4.0,4.0,323.8373399999545,3.0,1.0,part_1,,,,,,,,,,,,,gray,diamond
105.0,2.0,2.0,0.0,3.0,3.0,427.0015429997329,3.0,1.0,part_1,,,,,,,,,,,,,white,cross
95.0,2.0,2.0,0.0,2.0,2.0,264.7318129997984,3.0,1.0,part_1,,,,,,,,,,,,,white,cross
57.0,1.0,1.0,0.0,2.0,2.0,284.2662480002218,3.0,1.0,part_1,,,,,,,,,,,,,green,circle
0.0,4.0,0.0,0.0,4.0,4.0,323.125785999764,3.0,1.0,part_1,,,,,,,,,,,,,cyan,hexagon
424.0,8.0,4.0,1.0,4.0,4.0,286.8665169999076,3.0,1.0,part_1,,,,,,,,,,,,,magenta,square
201.0,7.0,3.0,1.0,4.0,4.0,297.4631389997739,3.0,1.0,part_1,,,,,,,,,,,,,yellow,flipped triangle
95.0,6.0,2.0,1.0,3.0,3.0,389.064031000089,3.0,1.0,part_1,,,,,,,,,,,,,blue,triangle
76.0,6.0,2.0,1.0,2.0,2.0,289.0489000001253,3.0,1.0,part_1,,,,,,,,,,,,,blue,triangle
122.0,2.0,2.0,0.0,1.0,1.0,392.6301649999004,3.0,1.0,part_1,,,,,,,,,,,,,white,cross
63.0,5.0,1.0,1.0,4.0,4.0,326.0181290002037,3.0,1.0,part_1,,,,,,,,,,,,,gray,diamond
47.0,5.0,1.0,1.0,4.0,4.0,305.9221120001894,3.0,2.0,part_1,,,,,,,,,,,,,gray,diamond
90.0,2.0,2.0,0.0,1.0,1.0,324.2440570002145,3.0,1.0,part_1,,,,,,,,,,,,,white,cross
96.0,2.0,2.0,0.0,1.0,1.0,312.6311740002165,3.0,1.0,part_1,,,,,,,,,,,,,white,cross
117.0,2.0,2.0,0.0,3.0,3.0,313.0729209997298,3.0,1.0,part_1,,,,,,,,,,,,,white,cross
180.0,7.0,3.0,1.0,2.0,2.0,273.6341629997696,3.0,1.0,part_1,,,,,,,,,,,,,yellow,flipped triangle
410.0,4.0,4.0,0.0,1.0,1.0,408.460001000094,3.0,1.0,part_1,,,,,,,,,,,,,cyan,hexagon
212.0,3.0,3.0,0.0,2.0,2.0,323.6027419998208,3.0,1.0,part_1,,,,,,,,,,,,,orange,I
208.0,3.0,3.0,0.0,2.0,2.0,451.0309349998351,3.0,1.0,part_1,,,,,,,,,,,,,orange,I
103.0,2.0,2.0,0.0,3.0,3.0,382.2928280001179,3.0,1.0,part_1,,,,,,,,,,,,,white,cross
391.0,4.0,4.0,0.0,3.0,3.0,328.62232299976307,3.0,1.0,part_1,,,,,,,,,,,,,cyan,hexagon
410.0,8.0,4.0,1.0,2.0,2.0,299.5346150000841,3.0,1.0,part_1,,,,,,,,,,,,,magenta,square
0.0,5.0,0.0,1.0,3.0,3.0,342.0880040002885,3.0,1.0,part_1,,,,,,,,,,,,,gray,diamond
71.0,1.0,1.0,0.0,3.0,3.0,387.6391630001308,3.0,1.0,part_1,,,,,,,,,,,,,green,circle
117.0,6.0,2.0,1.0,4.0,4.0,331.2260829998195,3.0,1.0,part_1,,,,,,,,,,,,,blue,triangle
66.0,1.0,1.0,0.0,4.0,4.0,343.2544839997717,3.0,1.0,part_1,,,,,,,,,,,,,green,circle
377.0,4.0,4.0,0.0,3.0,3.0,286.7699839998749,3.0,1.0,part_1,,,,,,,,,,,,,cyan,hexagon
376.0,8.0,4.0,1.0,2.0,2.0,320.0152629997319,3.0,1.0,part_1,,,,,,,,,,,,,magenta,square
82.0,2.0,2.0,0.0,4.0,4.0,501.72362200009957,3.0,1.0,part_1,,,,,,,,,,,,,white,cross
222.0,3.0,3.0,0.0,1.0,1.0,575.2334889998565,3.0,1.0,part_1,,,,,,,,,,,,,orange,I
0.0,2.0,0.0,0.0,3.0,3.0,391.25812400016,3.0,1.0,part_1,,,,,,,,,,,,,white,cross
80.0,6.0,2.0,1.0,1.0,1.0,407.9538559999491,3.0,1.0,part_1,,,,,,,,,,,,,blue,triangle
396.0,4.0,4.0,0.0,1.0,1.0,305.6598459997985,3.0,1.0,part_1,,,,,,,,,,,,,cyan,hexagon
0.0,5.0,0.0,1.0,4.0,4.0,309.2354420000447,3.0,1.0,part_1,,,,,,,,,,,,,gray,diamond
207.0,3.0,3.0,0.0,3.0,3.0,391.9124079998255,3.0,1.0,part_1,,,,,,,,,,,,,orange,I
0.0,6.0,0.0,1.0,3.0,3.0,404.9771699997109,3.0,1.0,part_1,,,,,,,,,,,,,blue,triangle
0.0,7.0,0.0,1.0,4.0,4.0,414.2848100000265,3.0,1.0,part_1,,,,,,,,,,,,,yellow,flipped triangle
210.0,3.0,3.0,0.0,1.0,1.0,395.6123140001182,3.0,1.0,part_1,,,,,,,,,,,,,orange,I
175.0,3.0,3.0,0.0,2.0,2.0,392.9676849998031,3.0,1.0,part_1,,,,,,,,,,,,,orange,I
73.0,5.0,1.0,1.0,1.0,1.0,329.7034450001774,3.0,1.0,part_1,,,,,,,,,,,,,gray,diamond
194.0,3.0,3.0,0.0,4.0,4.0,431.038203999833,3.0,1.0,part_1,,,,,,,,,,,,,orange,I
0.0,3.0,0.0,0.0,3.0,3.0,339.4912409999051,3.0,2.0,part_1,,,,,,,,,,,,,orange,I
114.0,6.0,2.0,1.0,2.0,2.0,405.5836560000898,3.0,1.0,part_1,,,,,,,,,,,,,blue,triangle
200.0,3.0,3.0,0.0,1.0,1.0,334.5579179999731,3.0,1.0,part_1,,,,,,,,,,,,,orange,I
423.0,4.0,4.0,0.0,1.0,1.0,360.3999590000057,3.0,1.0,part_1,,,,,,,,,,,,,cyan,hexagon
50.0,5.0,1.0,1.0,2.0,2.0,339.1218230003687,3.0,1.0,part_1,,,,,,,,,,,,,gray,diamond
180.0,3.0,3.0,0.0,4.0,4.0,349.0514999998595,3.0,1.0,part_1,,,,,,,,,,,,,orange,I
398.0,8.0,4.0,1.0,3.0,3.0,347.0892300001651,3.0,1.0,part_1,,,,,,,,,,,,,magenta,square
39.0,1.0,1.0,0.0,1.0,1.0,525.7744299997285,3.0,1.0,part_1,,,,,,,,,,,,,green,circle
80.0,2.0,2.0,0.0,4.0,4.0,338.1148080002276,3.0,1.0,part_1,,,,,,,,,,,,,white,cross
0.0,4.0,0.0,0.0,4.0,4.0,407.7230410002812,3.0,1.0,part_1,,,,,,,,,,,,,cyan,hexagon
0.0,6.0,0.0,1.0,4.0,4.0,417.9963430001407,3.0,1.0,part_1,,,,,,,,,,,,,blue,triangle
388.0,4.0,4.0,0.0,2.0,2.0,298.4520850000081,3.0,1.0,part_1,,,,,,,,,,,,,cyan,hexagon
92.0,2.0,2.0,0.0,1.0,1.0,399.2778150000049,3.0,1.0,part_1,,,,,,,,,,,,,white,cross
0.0,8.0,0.0,1.0,2.0,2.0,317.8709500002696,3.0,1.0,part_1,,,,,,,,,,,,,magenta,square
180.0,3.0,3.0,0.0,1.0,1.0,373.1143529998917,3.0,1.0,part_1,,,,,,,,,,,,,orange,I
84.0,6.0,2.0,1.0,4.0,4.0,350.0417899999775,3.0,1.0,part_1,,,,,,,,,,,,,blue,triangle
192.0,3.0,3.0,0.0,1.0,1.0,366.6235519999645,3.0,1.0,part_1,,,,,,,,,,,,,orange,I
417.0,8.0,4.0,1.0,2.0,2.0,268.133053999918,3.0,1.0,part_1,,,,,,,,,,,,,magenta,square
116.0,6.0,2.0,1.0,1.0,1.0,356.9309619997511,3.0,1.0,part_1,,,,,,,,,,,,,blue,triangle
390.0,4.0,4.0,0.0,3.0,3.0,358.2039670000085,3.0,1.0,part_1,,,,,,,,,,,,,cyan,hexagon
194.0,3.0,3.0,0.0,4.0,4.0,331.0079030002271,3.0,1.0,part_1,,,,,,,,,,,,,orange,I
0.0,7.0,0.0,1.0,3.0,3.0,341.9401240003026,3.0,1.0,part_1,,,,,,,,,,,,,yellow,flipped triangle
88.0,2.0,2.0,0.0,2.0,2.0,260.9103020004113,3.0,1.0,part_1,,,,,,,,,,,,,white,cross
64.0,5.0,1.0,1.0,2.0,2.0,496.7347179999706,3.0,1.0,part_1,,,,,,,,,,,,,gray,diamond
0.0,8.0,0.0,1.0,1.0,1.0,347.5546629997552,3.0,1.0,part_1,,,,,,,,,,,,,magenta,square
101.0,2.0,2.0,0.0,4.0,4.0,362.9430390001289,4.0,1.0,part_1,,,,,,,,,,,,,white,cross
96.0,2.0,2.0,0.0,3.0,3.0,393.8565789999302,4.0,1.0,part_1,,,,,,,,,,,,,white,cross
0.0,4.0,0.0,0.0,2.0,2.0,295.727190999969,4.0,1.0,part_1,,,,,,,,,,,,,cyan,hexagon
0.0,2.0,0.0,0.0,3.0,3.0,393.752685000436,4.0,1.0,part_1,,,,,,,,,,,,,white,cross
221.0,7.0,3.0,1.0,1.0,1.0,366.3888870000846,4.0,1.0,part_1,,,,,,,,,,,,,yellow,flipped triangle
401.0,4.0,4.0,0.0,4.0,4.0,378.1967009999789,4.0,1.0,part_1,,,,,,,,,,,,,cyan,hexagon
221.0,3.0,3.0,0.0,3.0,3.0,298.9315979998537,4.0,1.0,part_1,,,,,,,,,,,,,orange,I
50.0,5.0,1.0,1.0,2.0,2.0,328.2231759999376,4.0,1.0,part_1,,,,,,,,,,,,,gray,diamond
0.0,6.0,0.0,1.0,2.0,2.0,321.1505620001844,4.0,1.0,part_1,,,,,,,,,,,,,blue,triangle
67.0,1.0,1.0,0.0,1.0,1.0,331.742327000029,4.0,1.0,part_1,,,,,,,,,,,,,green,circle
418.0,4.0,4.0,0.0,2.0,2.0,348.6926299997321,4.0,1.0,part_1,,,,,,,,,,,,,cyan,hexagon
63.0,5.0,1.0,1.0,1.0,1.0,355.0627119998353,4.0,1.0,part_1,,,,,,,,,,,,,gray,diamond
394.0,4.0,4.0,0.0,1.0,1.0,322.4422539997249,4.0,1.0,part_1,,,,,,,,,,,,,cyan,hexagon
420.0,8.0,4.0,1.0,1.0,1.0,397.8676909996466,4.0,1.0,part_1,,,,,,,,,,,,,magenta,square
409.0,8.0,4.0,1.0,3.0,3.0,571.2190389999705,4.0,2.0,part_1,,,,,,,,,,,,,magenta,square
0.0,6.0,0.0,1.0,3.0,3.0,367.588939000143,4.0,1.0,part_1,,,,,,,,,,,,,blue,triangle
191.0,3.0,3.0,0.0,2.0,2.0,333.3007850001195,4.0,1.0,part_1,,,,,,,,,,,,,orange,I
0.0,3.0,0.0,0.0,4.0,4.0,353.0003249998117,4.0,1.0,part_1,,,,,,,,,,,,,orange,I
197.0,7.0,3.0,1.0,4.0,4.0,351.2434720000783,4.0,1.0,part_1,,,,,,,,,,,,,yellow,flipped triangle
65.0,5.0,1.0,1.0,3.0,3.0,344.9032759999682,4.0,2.0,part_1,,,,,,,,,,,,,gray,diamond
0.0,3.0,0.0,0.0,1.0,1.0,398.7661959999968,4.0,1.0,part_1,,,,,,,,,,,,,orange,I
206.0,3.0,3.0,0.0,4.0,4.0,350.82148099991167,4.0,1.0,part_1,,,,,,,,,,,,,orange,I
0.0,6.0,0.0,1.0,1.0,1.0,664.8422310004207,4.0,1.0,part_1,,,,,,,,,,,,,blue,triangle
86.0,6.0,2.0,1.0,1.0,1.0,407.2637989997929,4.0,1.0,part_1,,,,,,,,,,,,,blue,triangle
207.0,7.0,3.0,1.0,1.0,1.0,381.8390520000321,4.0,1.0,part_1,,,,,,,,,,,,,yellow,flipped triangle
101.0,2.0,2.0,0.0,3.0,3.0,398.3887089998461,4.0,1.0,part_1,,,,,,,,,,,,,white,cross
200.0,7.0,3.0,1.0,3.0,3.0,348.3022289997279,4.0,1.0,part_1,,,,,,,,,,,,,yellow,flipped triangle
390.0,8.0,4.0,1.0,1.0,1.0,434.0769789996557,4.0,1.0,part_1,,,,,,,,,,,,,magenta,square
180.0,3.0,3.0,0.0,3.0,3.0,410.2293559999452,4.0,1.0,part_1,,,,,,,,,,,,,orange,I
0.0,8.0,0.0,1.0,2.0,2.0,432.5107629997546,4.0,1.0,part_1,,,,,,,,,,,,,magenta,square
0.0,8.0,0.0,1.0,3.0,3.0,425.1390889999129,4.0,1.0,part_1,,,,,,,,,,,,,magenta,square
26.0,5.0,1.0,1.0,3.0,3.0,551.2951769997017,4.0,1.0,part_1,,,,,,,,,,,,,gray,diamond
48.0,1.0,1.0,0.0,3.0,3.0,444.9973929999942,4.0,1.0,part_1,,,,,,,,,,,,,green,circle
114.0,2.0,2.0,0.0,1.0,1.0,481.7225400001916,4.0,1.0,part_1,,,,,,,,,,,,,white,cross
206.0,7.0,3.0,1.0,2.0,2.0,393.3612079999875,4.0,1.0,part_1,,,,,,,,,,,,,yellow,flipped triangle
220.0,7.0,3.0,1.0,4.0,4.0,958.7095030001364,4.0,1.0,part_1,,,,,,,,,,,,,yellow,flipped triangle
200.0,3.0,3.0,0.0,1.0,1.0,471.2298489998829,4.0,1.0,part_1,,,,,,,,,,,,,orange,I
70.0,1.0,1.0,0.0,2.0,2.0,352.133589999994,4.0,1.0,part_1,,,,,,,,,,,,,green,circle
0.0,1.0,0.0,0.0,1.0,1.0,383.2332049996694,4.0,1.0,part_1,,,,,,,,,,,,,green,circle
0.0,2.0,0.0,0.0,1.0,1.0,409.2439649998596,4.0,1.0,part_1,,,,,,,,,,,,,white,cross
60.0,1.0,1.0,0.0,2.0,2.0,417.5113070000407,4.0,1.0,part_1,,,,,,,,,,,,,green,circle
54.0,5.0,1.0,1.0,4.0,4.0,498.6557110000831,4.0,1.0,part_1,,,,,,,,,,,,,gray,diamond
400.0,4.0,4.0,0.0,2.0,2.0,348.517726999944,4.0,1.0,part_1,,,,,,,,,,,,,cyan,hexagon
0.0,6.0,0.0,1.0,2.0,2.0,320.0746309998976,4.0,1.0,part_1,,,,,,,,,,,,,blue,triangle
32.0,5.0,1.0,1.0,4.0,4.0,384.0627919998951,4.0,1.0,part_1,,,,,,,,,,,,,gray,diamond
60.0,5.0,1.0,1.0,1.0,1.0,352.8042389998518,4.0,1.0,part_1,,,,,,,,,,,,,gray,diamond
388.0,8.0,4.0,1.0,1.0,1.0,331.8630969997684,4.0,1.0,part_1,,,,,,,,,,,,,magenta,square
96.0,6.0,2.0,1.0,4.0,4.0,381.9091360001039,4.0,1.0,part_1,,,,,,,,,,,,,blue,triangle
108.0,6.0,2.0,1.0,1.0,1.0,396.0959699998057,4.0,1.0,part_1,,,,,,,,,,,,,blue,triangle
0.0,6.0,0.0,1.0,2.0,2.0,335.1127340001767,4.0,1.0,part_1,,,,,,,,,,,,,blue,triangle
0.0,4.0,0.0,0.0,2.0,2.0,408.1709349998164,4.0,1.0,part_1,,,,,,,,,,,,,cyan,hexagon
99.0,6.0,2.0,1.0,3.0,3.0,392.5702829997135,4.0,1.0,part_1,,,,,,,,,,,,,blue,triangle
410.0,8.0,4.0,1.0,1.0,1.0,428.2578530001046,4.0,1.0,part_1,,,,,,,,,,,,,magenta,square
44.0,5.0,1.0,1.0,2.0,2.0,383.4707179998986,4.0,1.0,part_1,,,,,,,,,,,,,gray,diamond
32.0,1.0,1.0,0.0,4.0,4.0,360.3016009997191,4.0,1.0,part_1,,,,,,,,,,,,,green,circle
30.0,5.0,1.0,1.0,1.0,1.0,346.5117360001386,4.0,1.0,part_1,,,,,,,,,,,,,gray,diamond
405.0,4.0,4.0,0.0,4.0,4.0,412.756721000278,4.0,1.0,part_1,,,,,,,,,,,,,cyan,hexagon
188.0,7.0,3.0,1.0,2.0,2.0,363.7933150002936,4.0,1.0,part_1,,,,,,,,,,,,,yellow,flipped triangle
0.0,2.0,0.0,0.0,4.0,4.0,363.0931130001045,4.0,1.0,part_1,,,,,,,,,,,,,white,cross
202.0,7.0,3.0,1.0,1.0,1.0,393.9807100000507,4.0,1.0,part_1,,,,,,,,,,,,,yellow,flipped triangle
86.0,2.0,2.0,0.0,1.0,1.0,401.0637699998369,4.0,1.0,part_1,,,,,,,,,,,,,white,cross
201.0,3.0,3.0,0.0,3.0,3.0,352.6623889997609,4.0,1.0,part_1,,,,,,,,,,,,,orange,I
0.0,3.0,0.0,0.0,3.0,3.0,350.5474319999848,4.0,1.0,part_1,,,,,,,,,,,,,orange,I
90.0,6.0,2.0,1.0,1.0,1.0,331.8032060001314,4.0,1.0,part_1,,,,,,,,,,,,,blue,triangle
71.0,5.0,1.0,1.0,3.0,3.0,366.6886999999406,4.0,1.0,part_1,,,,,,,,,,,,,gray,diamond
0.0,5.0,0.0,1.0,4.0,4.0,495.4859549998218,4.0,1.0,part_1,,,,,,,,,,,,,gray,diamond
409.0,4.0,4.0,0.0,3.0,3.0,390.1309590000892,4.0,1.0,part_1,,,,,,,,,,,,,cyan,hexagon
67.0,5.0,1.0,1.0,1.0,1.0,343.8176229997225,4.0,1.0,part_1,,,,,,,,,,,,,gray,diamond
116.0,2.0,2.0,0.0,4.0,4.0,537.6278139997339,4.0,1.0,part_1,,,,,,,,,,,,,white,cross
394.0,8.0,4.0,1.0,3.0,3.0,348.4173040001224,4.0,1.0,part_1,,,,,,,,,,,,,magenta,square
201.0,3.0,3.0,0.0,3.0,3.0,354.3035880002207,4.0,1.0,part_1,,,,,,,,,,,,,orange,I
414.0,8.0,4.0,1.0,1.0,1.0,323.8201859999208,4.0,1.0,part_1,,,,,,,,,,,,,magenta,square
78.0,6.0,2.0,1.0,1.0,1.0,336.307976000171,4.0,1.0,part_1,,,,,,,,,,,,,blue,triangle
377.0,4.0,4.0,0.0,4.0,4.0,316.9116710000708,4.0,1.0,part_1,,,,,,,,,,,,,cyan,hexagon
0.0,3.0,0.0,0.0,2.0,2.0,303.2385839997005,4.0,1.0,part_1,,,,,,,,,,,,,orange,I
206.0,7.0,3.0,1.0,1.0,1.0,376.0042509998129,4.0,1.0,part_1,,,,,,,,,,,,,yellow,flipped triangle
47.0,1.0,1.0,0.0,2.0,2.0,334.1584270001476,4.0,1.0,part_1,,,,,,,,,,,,,green,circle
192.0,7.0,3.0,1.0,2.0,2.0,353.2312899997123,4.0,1.0,part_1,,,,,,,,,,,,,yellow,flipped triangle
393.0,8.0,4.0,1.0,1.0,1.0,474.3944159999955,4.0,2.0,part_1,,,,,,,,,,,,,magenta,square
216.0,7.0,3.0,1.0,4.0,4.0,344.0027000001464,4.0,1.0,part_1,,,,,,,,,,,,,yellow,flipped triangle
57.0,5.0,1.0,1.0,4.0,4.0,454.7165490002953,4.0,1.0,part_1,,,,,,,,,,,,,gray,diamond
29.0,1.0,1.0,0.0,2.0,2.0,358.6204729999735,4.0,1.0,part_1,,,,,,,,,,,,,green,circle
0.0,8.0,0.0,1.0,4.0,4.0,472.5137870000253,4.0,1.0,part_1,,,,,,,,,,,,,magenta,square
29.0,1.0,1.0,0.0,1.0,1.0,470.9209620000365,4.0,1.0,part_1,,,,,,,,,,,,,green,circle
0.0,1.0,0.0,0.0,1.0,1.0,354.3779530000392,4.0,1.0,part_1,,,,,,,,,,,,,green,circle
396.0,4.0,4.0,0.0,2.0,2.0,390.4267349998918,4.0,1.0,part_1,,,,,,,,,,,,,cyan,hexagon
92.0,6.0,2.0,1.0,3.0,3.0,362.6359750001029,4.0,1.0,part_1,,,,,,,,,,,,,blue,triangle
200.0,3.0,3.0,0.0,4.0,4.0,365.0997620002272,4.0,1.0,part_1,,,,,,,,,,,,,orange,I
178.0,3.0,3.0,0.0,1.0,1.0,386.6042039999229,4.0,1.0,part_1,,,,,,,,,,,,,orange,I
0.0,5.0,0.0,1.0,1.0,1.0,317.5364170001558,4.0,1.0,part_1,,,,,,,,,,,,,gray,diamond
56.0,5.0,1.0,1.0,1.0,1.0,374.9588470000162,4.0,1.0,part_1,,,,,,,,,,,,,gray,diamond
26.0,5.0,1.0,1.0,2.0,2.0,386.6304419998414,4.0,1.0,part_1,,,,,,,,,,,,,gray,diamond
71.0,5.0,1.0,1.0,1.0,1.0,372.4861470000178,4.0,1.0,part_1,,,,,,,,,,,,,gray,diamond
0.0,7.0,0.0,1.0,4.0,4.0,342.728635000185,4.0,1.0,part_1,,,,,,,,,,,,,yellow,flipped triangle
195.0,7.0,3.0,1.0,1.0,1.0,345.1912329996958,4.0,2.0,part_1,,,,,,,,,,,,,yellow,flipped triangle
384.0,4.0,4.0,0.0,4.0,4.0,379.3286169998282,4.0,1.0,part_1,,,,,,,,,,,,,cyan,hexagon
394.0,8.0,4.0,1.0,4.0,4.0,376.6083569998955,4.0,1.0,part_1,,,,,,,,,,,,,magenta,square
420.0,4.0,4.0,0.0,3.0,3.0,395.5851660002736,4.0,1.0,part_1,,,,,,,,,,,,,cyan,hexagon
30.0,5.0,1.0,1.0,4.0,4.0,412.9956699998729,4.0,1.0,part_1,,,,,,,,,,,,,gray,diamond
39.0,5.0,1.0,1.0,2.0,2.0,371.8773109999347,4.0,1.0,part_1,,,,,,,,,,,,,gray,diamond
0.0,1.0,1.0,0.0,6.0,6.0,397.9965459998311,1.0,0.0,part_2,go,250.0,250.0,1.0,,,,,,,,,green,circle
0.0,4.0,4.0,0.0,6.0,6.0,471.1318039999241,1.0,0.0,part_2,go,250.0,250.0,1.0,,,,,,,,,cyan,hexagon
0.0,3.0,3.0,0.0,5.0,5.0,308.8104889998249,1.0,0.0,part_2,go,250.0,250.0,1.0,,,,,,,,,orange,I
0.0,1.0,1.0,0.0,5.0,5.0,315.8984530000452,1.0,0.0,part_2,go,250.0,250.0,1.0,,,,,,,,,green,circle
0.0,8.0,4.0,1.0,6.0,0.0,0.0,1.0,0.0,part_2,stop,250.0,250.0,4.0,,,,,,,,,magenta,square
0.0,1.0,1.0,0.0,5.0,5.0,504.550221000045,1.0,0.0,part_2,go,250.0,300.0,1.0,,,,,,,,,green,circle
0.0,5.0,1.0,1.0,6.0,6.0,519.5674510000572,1.0,0.0,part_2,go,250.0,300.0,1.0,,,,,,,,,gray,diamond
0.0,4.0,4.0,0.0,6.0,6.0,524.9719099997492,1.0,0.0,part_2,go,250.0,300.0,1.0,,,,,,,,,cyan,hexagon
0.0,6.0,2.0,1.0,5.0,0.0,0.0,1.0,0.0,part_2,stop,250.0,300.0,4.0,,,,,,,,,blue,triangle
0.0,8.0,4.0,1.0,5.0,0.0,0.0,1.0,0.0,part_2,stop,300.0,300.0,4.0,,,,,,,,,magenta,square
0.0,7.0,3.0,1.0,6.0,0.0,0.0,1.0,0.0,part_2,stop,350.0,300.0,4.0,,,,,,,,,yellow,flipped triangle
0.0,1.0,1.0,0.0,6.0,6.0,487.3410959999091,1.0,0.0,part_2,go,350.0,350.0,1.0,,,,,,,,,green,circle
0.0,8.0,4.0,1.0,5.0,0.0,0.0,1.0,0.0,part_2,stop,350.0,350.0,4.0,,,,,,,,,magenta,square
0.0,4.0,4.0,0.0,6.0,6.0,638.5594920002404,1.0,0.0,part_2,go,400.0,350.0,1.0,,,,,,,,,cyan,hexagon
0.0,7.0,3.0,1.0,5.0,0.0,0.0,1.0,0.0,part_2,stop,400.0,350.0,4.0,,,,,,,,,yellow,flipped triangle
0.0,3.0,3.0,0.0,5.0,5.0,682.3939749997407,1.0,0.0,part_2,go,450.0,350.0,1.0,,,,,,,,,orange,I
0.0,7.0,3.0,1.0,5.0,0.0,0.0,1.0,0.0,part_2,stop,450.0,350.0,4.0,,,,,,,,,yellow,flipped triangle
0.0,4.0,4.0,0.0,5.0,5.0,1015.1112109997484,1.0,0.0,part_2,go,500.0,350.0,1.0,,,,,,,,,cyan,hexagon
0.0,3.0,3.0,0.0,6.0,6.0,666.6397849999157,1.0,0.0,part_2,go,500.0,350.0,1.0,,,,,,,,,orange,I
0.0,3.0,3.0,0.0,5.0,5.0,700.9921060002853,1.0,0.0,part_2,go,500.0,350.0,1.0,,,,,,,,,orange,I
0.0,4.0,4.0,0.0,5.0,5.0,553.654503999951,1.0,0.0,part_2,go,500.0,350.0,1.0,,,,,,,,,cyan,hexagon
0.0,8.0,4.0,1.0,5.0,5.0,484.3088200000238,1.0,0.0,part_2,stop,500.0,350.0,3.0,,,,,,,,,magenta,square
0.0,4.0,4.0,0.0,5.0,5.0,664.740103999975,1.0,0.0,part_2,go,450.0,350.0,1.0,,,,,,,,,cyan,hexagon
0.0,4.0,4.0,0.0,6.0,6.0,610.5268989999786,1.0,0.0,part_2,go,450.0,350.0,1.0,,,,,,,,,cyan,hexagon
0.0,5.0,1.0,1.0,6.0,0.0,0.0,1.0,0.0,part_2,stop,450.0,350.0,4.0,,,,,,,,,gray,diamond
0.0,3.0,3.0,0.0,6.0,6.0,768.0316119999588,1.0,0.0,part_2,go,450.0,400.0,1.0,,,,,,,,,orange,I
0.0,7.0,3.0,1.0,6.0,0.0,0.0,1.0,0.0,part_2,stop,450.0,400.0,4.0,,,,,,,,,yellow,flipped triangle
0.0,5.0,1.0,1.0,6.0,0.0,0.0,1.0,0.0,part_2,stop,450.0,450.0,4.0,,,,,,,,,gray,diamond
0.0,6.0,2.0,1.0,6.0,6.0,590.0123650003479,1.0,0.0,part_2,go,450.0,500.0,1.0,,,,,,,,,blue,triangle
0.0,6.0,2.0,1.0,5.0,0.0,0.0,1.0,0.0,part_2,stop,450.0,500.0,4.0,,,,,,,,,blue,triangle
0.0,5.0,1.0,1.0,6.0,0.0,0.0,1.0,0.0,part_2,stop,500.0,500.0,4.0,,,,,,,,,gray,diamond
0.0,3.0,3.0,0.0,5.0,5.0,776.4042140001948,1.0,0.0,part_2,go,500.0,550.0,1.0,,,,,,,,,orange,I
0.0,8.0,4.0,1.0,6.0,6.0,874.4562439997026,1.0,0.0,part_2,go,500.0,550.0,1.0,,,,,,,,,magenta,square
0.0,4.0,4.0,0.0,5.0,5.0,540.4393190001429,1.0,0.0,part_2,go,500.0,550.0,1.0,,,,,,,,,cyan,hexagon
0.0,7.0,3.0,1.0,5.0,5.0,627.7220060001127,1.0,0.0,part_2,stop,500.0,550.0,3.0,,,,,,,,,yellow,flipped triangle
0.0,4.0,4.0,0.0,5.0,5.0,880.0621919999685,1.0,0.0,part_2,go,450.0,550.0,1.0,,,,,,,,,cyan,hexagon
0.0,2.0,2.0,0.0,6.0,0.0,0.0,2.0,0.0,part_2,go,450.0,550.0,5.0,,,,,,,,,white,cross
0.0,6.0,2.0,1.0,5.0,0.0,0.0,2.0,0.0,part_2,stop,450.0,550.0,4.0,,,,,,,,,blue,triangle
0.0,6.0,2.0,1.0,6.0,6.0,250.1894940000966,2.0,0.0,part_2,stop,500.0,550.0,3.0,,,,,,,,,blue,triangle
0.0,6.0,2.0,1.0,6.0,0.0,0.0,2.0,0.0,part_2,stop,500.0,500.0,4.0,,,,,,,,,blue,triangle
0.0,4.0,4.0,0.0,5.0,5.0,356.3358579999658,2.0,0.0,part_2,go,500.0,550.0,1.0,,,,,,,,,cyan,hexagon
0.0,1.0,1.0,0.0,6.0,6.0,936.109846999898,2.0,0.0,part_2,go,500.0,550.0,1.0,,,,,,,,,green,circle
0.0,1.0,1.0,0.0,6.0,6.0,533.2282329995905,2.0,0.0,part_2,go,500.0,550.0,1.0,,,,,,,,,green,circle
0.0,7.0,3.0,1.0,6.0,6.0,588.7629559997549,2.0,0.0,part_2,stop,500.0,550.0,3.0,,,,,,,,,yellow,flipped triangle
0.0,3.0,3.0,0.0,5.0,5.0,729.2365360003714,2.0,0.0,part_2,go,500.0,500.0,1.0,,,,,,,,,orange,I
0.0,8.0,4.0,1.0,5.0,0.0,0.0,2.0,0.0,part_2,stop,500.0,500.0,4.0,,,,,,,,,magenta,square
0.0,1.0,1.0,0.0,5.0,5.0,1492.2460550001233,2.0,0.0,part_2,go,550.0,500.0,1.0,,,,,,,,,green,circle
0.0,2.0,2.0,0.0,5.0,5.0,818.4371769998506,2.0,0.0,part_2,go,550.0,500.0,1.0,,,,,,,,,white,cross
0.0,8.0,4.0,1.0,5.0,0.0,0.0,2.0,0.0,part_2,stop,550.0,500.0,4.0,,,,,,,,,magenta,square
0.0,6.0,2.0,1.0,5.0,5.0,804.8225420002382,2.0,0.0,part_2,go,600.0,500.0,1.0,,,,,,,,,blue,triangle
0.0,5.0,1.0,1.0,5.0,5.0,999.0728579996356,2.0,0.0,part_2,go,600.0,500.0,1.0,,,,,,,,,gray,diamond
0.0,7.0,3.0,1.0,5.0,0.0,0.0,2.0,0.0,part_2,stop,600.0,500.0,4.0,,,,,,,,,yellow,flipped triangle
0.0,6.0,2.0,1.0,5.0,0.0,0.0,2.0,0.0,part_2,stop,650.0,500.0,4.0,,,,,,,,,blue,triangle
0.0,2.0,2.0,0.0,5.0,5.0,761.0832459999983,2.0,0.0,part_2,go,700.0,500.0,1.0,,,,,,,,,white,cross
0.0,4.0,4.0,0.0,6.0,6.0,913.0793480003376,2.0,0.0,part_2,go,700.0,500.0,1.0,,,,,,,,,cyan,hexagon
0.0,2.0,2.0,0.0,5.0,5.0,912.1187519999694,2.0,0.0,part_2,go,700.0,500.0,1.0,,,,,,,,,white,cross
0.0,6.0,2.0,1.0,6.0,6.0,575.9644530003243,2.0,0.0,part_2,stop,700.0,500.0,3.0,,,,,,,,,blue,triangle
0.0,2.0,2.0,0.0,5.0,5.0,840.2298630003315,2.0,0.0,part_2,go,700.0,450.0,1.0,,,,,,,,,white,cross
0.0,3.0,3.0,0.0,5.0,5.0,649.6521200001553,2.0,0.0,part_2,go,700.0,450.0,1.0,,,,,,,,,orange,I
0.0,3.0,3.0,0.0,6.0,6.0,585.3144530001373,2.0,0.0,part_2,go,700.0,450.0,1.0,,,,,,,,,orange,I
0.0,1.0,1.0,0.0,6.0,6.0,737.5338589999956,2.0,0.0,part_2,go,700.0,450.0,1.0,,,,,,,,,green,circle
0.0,8.0,4.0,1.0,5.0,5.0,529.3198519998441,2.0,0.0,part_2,go,700.0,450.0,1.0,,,,,,,,,magenta,square
0.0,8.0,4.0,1.0,5.0,5.0,510.65477300016937,2.0,0.0,part_2,go,700.0,450.0,1.0,,,,,,,,,magenta,square
0.0,7.0,3.0,1.0,6.0,0.0,0.0,2.0,0.0,part_2,stop,700.0,450.0,4.0,,,,,,,,,yellow,flipped triangle
0.0,2.0,2.0,0.0,6.0,6.0,760.6679210002767,2.0,0.0,part_2,go,700.0,500.0,1.0,,,,,,,,,white,cross
0.0,5.0,1.0,1.0,5.0,5.0,532.6461260001452,2.0,0.0,part_2,stop,700.0,500.0,3.0,,,,,,,,,gray,diamond
0.0,6.0,2.0,1.0,6.0,6.0,818.7110959997881,2.0,0.0,part_2,go,650.0,500.0,1.0,,,,,,,,,blue,triangle
0.0,8.0,4.0,1.0,6.0,0.0,0.0,2.0,0.0,part_2,stop,650.0,500.0,4.0,,,,,,,,,magenta,square
0.0,6.0,2.0,1.0,5.0,0.0,0.0,2.0,0.0,part_2,stop,650.0,550.0,4.0,,,,,,,,,blue,triangle
0.0,3.0,3.0,0.0,5.0,5.0,607.7208770002471,2.0,0.0,part_2,go,700.0,550.0,1.0,,,,,,,,,orange,I
0.0,2.0,2.0,0.0,6.0,6.0,502.64694999987114,2.0,0.0,part_2,go,700.0,550.0,1.0,,,,,,,,,white,cross
0.0,6.0,2.0,1.0,6.0,6.0,630.9294519996911,2.0,0.0,part_2,stop,700.0,550.0,3.0,,,,,,,,,blue,triangle
0.0,8.0,4.0,1.0,5.0,5.0,446.709333000399,3.0,0.0,part_2,stop,700.0,500.0,3.0,,,,,,,,,magenta,square
0.0,2.0,2.0,0.0,5.0,5.0,388.8412460000836,3.0,0.0,part_2,go,650.0,500.0,1.0,,,,,,,,,white,cross
0.0,6.0,2.0,1.0,5.0,5.0,484.9333990005107,3.0,0.0,part_2,stop,650.0,500.0,3.0,,,,,,,,,blue,triangle
0.0,6.0,2.0,1.0,5.0,5.0,398.0522419997214,3.0,0.0,part_2,stop,600.0,500.0,3.0,,,,,,,,,blue,triangle
0.0,8.0,4.0,1.0,6.0,6.0,397.2037369994723,3.0,0.0,part_2,stop,550.0,500.0,3.0,,,,,,,,,magenta,square
0.0,3.0,3.0,0.0,6.0,6.0,610.6985690003057,3.0,0.0,part_2,go,550.0,450.0,1.0,,,,,,,,,orange,I
0.0,1.0,1.0,0.0,6.0,6.0,555.1809580001645,3.0,0.0,part_2,go,550.0,450.0,1.0,,,,,,,,,green,circle
0.0,7.0,3.0,1.0,5.0,5.0,618.4432509999169,3.0,0.0,part_2,stop,550.0,450.0,3.0,,,,,,,,,yellow,flipped triangle
0.0,7.0,3.0,1.0,6.0,0.0,0.0,3.0,0.0,part_2,stop,500.0,450.0,4.0,,,,,,,,,yellow,flipped triangle
0.0,2.0,2.0,0.0,6.0,6.0,403.6843809999482,3.0,0.0,part_2,go,500.0,500.0,1.0,,,,,,,,,white,cross
0.0,2.0,2.0,0.0,5.0,5.0,679.1674349997265,3.0,0.0,part_2,go,500.0,500.0,1.0,,,,,,,,,white,cross
0.0,7.0,3.0,1.0,5.0,5.0,738.3708190000107,3.0,0.0,part_2,go,500.0,500.0,1.0,,,,,,,,,yellow,flipped triangle
0.0,8.0,4.0,1.0,5.0,0.0,0.0,3.0,0.0,part_2,stop,500.0,500.0,4.0,,,,,,,,,magenta,square
0.0,6.0,2.0,1.0,6.0,0.0,0.0,3.0,0.0,part_2,stop,550.0,500.0,4.0,,,,,,,,,blue,triangle
0.0,5.0,1.0,1.0,5.0,5.0,723.7763170005564,3.0,0.0,part_2,stop,550.0,550.0,3.0,,,,,,,,,gray,diamond
0.0,3.0,3.0,0.0,5.0,5.0,616.315319000023,3.0,0.0,part_2,go,500.0,550.0,1.0,,,,,,,,,orange,I
0.0,4.0,4.0,0.0,6.0,6.0,766.4896999995108,3.0,0.0,part_2,go,500.0,550.0,1.0,,,,,,,,,cyan,hexagon
0.0,3.0,3.0,0.0,6.0,6.0,781.6578440006197,3.0,0.0,part_2,go,500.0,550.0,1.0,,,,,,,,,orange,I
0.0,4.0,4.0,0.0,5.0,5.0,848.2746769996083,3.0,0.0,part_2,go,500.0,550.0,1.0,,,,,,,,,cyan,hexagon
0.0,4.0,4.0,0.0,5.0,5.0,962.9027809996842,3.0,0.0,part_2,go,500.0,550.0,1.0,,,,,,,,,cyan,hexagon
0.0,3.0,3.0,0.0,5.0,5.0,939.3568270006654,3.0,0.0,part_2,go,500.0,550.0,1.0,,,,,,,,,orange,I
0.0,5.0,1.0,1.0,6.0,0.0,0.0,3.0,0.0,part_2,stop,500.0,550.0,4.0,,,,,,,,,gray,diamond
0.0,1.0,1.0,0.0,6.0,6.0,863.5856020000574,3.0,0.0,part_2,go,500.0,600.0,1.0,,,,,,,,,green,circle
0.0,7.0,3.0,1.0,5.0,0.0,0.0,3.0,0.0,part_2,stop,500.0,600.0,4.0,,,,,,,,,yellow,flipped triangle
0.0,5.0,1.0,1.0,5.0,0.0,0.0,3.0,0.0,part_2,stop,550.0,600.0,4.0,,,,,,,,,gray,diamond
0.0,2.0,2.0,0.0,6.0,6.0,569.0532439994058,3.0,0.0,part_2,go,600.0,600.0,1.0,,,,,,,,,white,cross
0.0,1.0,1.0,0.0,5.0,5.0,855.7718299998669,3.0,0.0,part_2,go,600.0,600.0,1.0,,,,,,,,,green,circle
0.0,2.0,2.0,0.0,6.0,6.0,1006.1058789997332,3.0,0.0,part_2,go,600.0,600.0,1.0,,,,,,,,,white,cross
0.0,2.0,2.0,0.0,5.0,5.0,682.1992329996647,3.0,0.0,part_2,go,600.0,600.0,1.0,,,,,,,,,white,cross
0.0,7.0,3.0,1.0,6.0,6.0,631.3746689993422,3.0,0.0,part_2,stop,600.0,600.0,3.0,,,,,,,,,yellow,flipped triangle
0.0,6.0,2.0,1.0,6.0,0.0,0.0,3.0,0.0,part_2,stop,600.0,550.0,4.0,,,,,,,,,blue,triangle
0.0,3.0,3.0,0.0,6.0,6.0,755.5959760002224,3.0,0.0,part_2,go,600.0,600.0,1.0,,,,,,,,,orange,I
0.0,8.0,4.0,1.0,6.0,6.0,715.6581600002028,3.0,0.0,part_2,stop,600.0,600.0,3.0,,,,,,,,,magenta,square
0.0,4.0,4.0,0.0,5.0,5.0,1030.999694999991,3.0,0.0,part_2,go,600.0,550.0,1.0,,,,,,,,,cyan,hexagon
0.0,4.0,4.0,0.0,6.0,6.0,884.4256949996634,3.0,0.0,part_2,go,600.0,550.0,1.0,,,,,,,,,cyan,hexagon
0.0,6.0,2.0,1.0,6.0,0.0,0.0,3.0,0.0,part_2,stop,600.0,550.0,4.0,,,,,,,,,blue,triangle
0.0,7.0,3.0,1.0,5.0,5.0,380.377296000006,4.0,0.0,part_2,stop,600.0,600.0,3.0,,,,,,,,,yellow,flipped triangle
0.0,7.0,3.0,1.0,5.0,5.0,444.0317489998051,4.0,0.0,part_2,go,550.0,600.0,1.0,,,,,,,,,yellow,flipped triangle
0.0,6.0,2.0,1.0,5.0,5.0,361.9527050004762,4.0,0.0,part_2,stop,550.0,600.0,3.0,,,,,,,,,blue,triangle
0.0,3.0,3.0,0.0,5.0,5.0,420.2861320000011,4.0,0.0,part_2,go,500.0,600.0,1.0,,,,,,,,,orange,I
0.0,2.0,2.0,0.0,6.0,6.0,677.5374910002938,4.0,0.0,part_2,go,500.0,600.0,1.0,,,,,,,,,white,cross
0.0,8.0,4.0,1.0,6.0,6.0,608.1004349998693,4.0,0.0,part_2,go,500.0,600.0,1.0,,,,,,,,,magenta,square
0.0,2.0,2.0,0.0,6.0,6.0,727.7412359999289,4.0,0.0,part_2,go,500.0,600.0,1.0,,,,,,,,,white,cross
0.0,3.0,3.0,0.0,5.0,5.0,367.1852580000632,4.0,0.0,part_2,go,500.0,600.0,1.0,,,,,,,,,orange,I
0.0,1.0,1.0,0.0,5.0,5.0,491.6752280005312,4.0,0.0,part_2,go,500.0,600.0,1.0,,,,,,,,,green,circle
0.0,7.0,3.0,1.0,6.0,6.0,386.4688229996318,4.0,0.0,part_2,stop,500.0,600.0,3.0,,,,,,,,,yellow,flipped triangle
0.0,2.0,2.0,0.0,5.0,5.0,454.1486640000585,4.0,0.0,part_2,go,500.0,550.0,1.0,,,,,,,,,white,cross
0.0,6.0,2.0,1.0,6.0,6.0,445.8197579997431,4.0,0.0,part_2,stop,500.0,550.0,3.0,,,,,,,,,blue,triangle
0.0,2.0,2.0,0.0,6.0,6.0,456.456134000291,4.0,0.0,part_2,go,500.0,500.0,1.0,,,,,,,,,white,cross
0.0,7.0,3.0,1.0,5.0,5.0,556.5727359999073,4.0,0.0,part_2,stop,500.0,500.0,3.0,,,,,,,,,yellow,flipped triangle
0.0,8.0,4.0,1.0,6.0,6.0,533.5033709998243,4.0,0.0,part_2,stop,450.0,500.0,3.0,,,,,,,,,magenta,square
0.0,3.0,3.0,0.0,6.0,6.0,597.13290199943,4.0,0.0,part_2,go,450.0,450.0,1.0,,,,,,,,,orange,I
0.0,8.0,4.0,1.0,6.0,6.0,870.1187360002223,4.0,0.0,part_2,stop,450.0,450.0,3.0,,,,,,,,,magenta,square
0.0,1.0,1.0,0.0,5.0,5.0,584.2781060000561,4.0,0.0,part_2,go,450.0,400.0,1.0,,,,,,,,,green,circle
0.0,5.0,1.0,1.0,5.0,5.0,440.1156979993175,4.0,0.0,part_2,stop,450.0,400.0,3.0,,,,,,,,,gray,diamond
0.0,4.0,4.0,0.0,5.0,5.0,432.6604079997196,4.0,0.0,part_2,go,400.0,400.0,1.0,,,,,,,,,cyan,hexagon
0.0,1.0,1.0,0.0,6.0,6.0,614.8633470002096,4.0,0.0,part_2,go,400.0,400.0,1.0,,,,,,,,,green,circle
0.0,1.0,1.0,0.0,6.0,6.0,392.8860579999309,4.0,0.0,part_2,go,400.0,400.0,1.0,,,,,,,,,green,circle
0.0,2.0,2.0,0.0,5.0,5.0,443.4876979994442,4.0,0.0,part_2,go,400.0,400.0,1.0,,,,,,,,,white,cross
0.0,8.0,4.0,1.0,6.0,0.0,0.0,4.0,0.0,part_2,stop,400.0,400.0,4.0,,,,,,,,,magenta,square
0.0,8.0,4.0,1.0,6.0,6.0,420.1342700007444,4.0,0.0,part_2,go,400.0,450.0,1.0,,,,,,,,,magenta,square
0.0,7.0,3.0,1.0,6.0,6.0,711.3430810004502,4.0,0.0,part_2,go,400.0,450.0,1.0,,,,,,,,,yellow,flipped triangle
0.0,8.0,4.0,1.0,6.0,0.0,0.0,4.0,0.0,part_2,stop,400.0,450.0,4.0,,,,,,,,,magenta,square
0.0,2.0,2.0,0.0,5.0,5.0,411.4363920007235,4.0,0.0,part_2,go,400.0,500.0,1.0,,,,,,,,,white,cross
0.0,4.0,4.0,0.0,6.0,6.0,526.9379470000786,4.0,0.0,part_2,go,400.0,500.0,1.0,,,,,,,,,cyan,hexagon
0.0,4.0,4.0,0.0,6.0,6.0,320.4886949997672,4.0,0.0,part_2,go,400.0,500.0,1.0,,,,,,,,,cyan,hexagon
0.0,6.0,2.0,1.0,5.0,5.0,390.604675000759,4.0,0.0,part_2,go,400.0,500.0,1.0,,,,,,,,,blue,triangle
0.0,1.0,1.0,0.0,6.0,6.0,430.8032280005136,4.0,0.0,part_2,go,400.0,500.0,1.0,,,,,,,,,green,circle
0.0,5.0,1.0,1.0,5.0,5.0,522.7645719996872,4.0,0.0,part_2,go,400.0,500.0,1.0,,,,,,,,,gray,diamond
0.0,7.0,3.0,1.0,6.0,6.0,486.8650460002754,4.0,0.0,part_2,go,400.0,500.0,1.0,,,,,,,,,yellow,flipped triangle
0.0,6.0,2.0,1.0,6.0,6.0,446.3760830003593,4.0,0.0,part_2,stop,400.0,500.0,3.0,,,,,,,,,blue,triangle
0.0,4.0,4.0,0.0,6.0,6.0,626.893184000437,4.0,0.0,part_2,go,400.0,450.0,1.0,,,,,,,,,cyan,hexagon
0.0,7.0,3.0,1.0,6.0,6.0,350.0982639998256,5.0,0.0,part_2,go,400.0,450.0,1.0,,,,,,,,,yellow,flipped triangle
0.0,8.0,4.0,1.0,5.0,5.0,329.1145250004774,5.0,0.0,part_2,stop,400.0,450.0,3.0,,,,,,,,,magenta,square
0.0,3.0,3.0,0.0,6.0,6.0,573.9123020002808,5.0,0.0,part_2,go,350.0,450.0,1.0,,,,,,,,,orange,I
0.0,7.0,3.0,1.0,5.0,5.0,284.6305419998316,5.0,0.0,part_2,stop,350.0,450.0,3.0,,,,,,,,,yellow,flipped triangle
0.0,6.0,2.0,1.0,5.0,5.0,335.7275070002288,5.0,0.0,part_2,stop,300.0,450.0,3.0,,,,,,,,,blue,triangle
0.0,8.0,4.0,1.0,6.0,6.0,405.1544880003348,5.0,0.0,part_2,stop,250.0,450.0,3.0,,,,,,,,,magenta,square
0.0,6.0,2.0,1.0,5.0,5.0,705.4136779997862,5.0,0.0,part_2,go,250.0,400.0,1.0,,,,,,,,,blue,triangle
0.0,8.0,4.0,1.0,5.0,5.0,380.7888419996743,5.0,0.0,part_2,stop,250.0,400.0,3.0,,,,,,,,,magenta,square
0.0,4.0,4.0,0.0,6.0,6.0,446.3960620005309,5.0,0.0,part_2,go,200.0,400.0,1.0,,,,,,,,,cyan,hexagon
0.0,4.0,4.0,0.0,5.0,5.0,443.4756099999504,5.0,0.0,part_2,go,200.0,400.0,1.0,,,,,,,,,cyan,hexagon
0.0,2.0,2.0,0.0,6.0,6.0,308.2110390005255,5.0,0.0,part_2,go,200.0,400.0,1.0,,,,,,,,,white,cross
0.0,7.0,3.0,1.0,6.0,6.0,369.9233059996913,5.0,0.0,part_2,stop,200.0,400.0,3.0,,,,,,,,,yellow,flipped triangle
0.0,1.0,1.0,0.0,6.0,6.0,608.0725240008178,5.0,0.0,part_2,go,200.0,350.0,1.0,,,,,,,,,green,circle
0.0,5.0,1.0,1.0,5.0,0.0,0.0,5.0,0.0,part_2,stop,200.0,350.0,4.0,,,,,,,,,gray,diamond
0.0,2.0,2.0,0.0,5.0,5.0,461.341874000027,5.0,0.0,part_2,go,250.0,350.0,1.0,,,,,,,,,white,cross
0.0,2.0,2.0,0.0,6.0,6.0,519.80637700035,5.0,0.0,part_2,go,250.0,350.0,1.0,,,,,,,,,white,cross
0.0,2.0,2.0,0.0,5.0,5.0,386.1492850001013,5.0,0.0,part_2,go,250.0,350.0,1.0,,,,,,,,,white,cross
0.0,1.0,1.0,0.0,5.0,5.0,295.9331270003531,5.0,0.0,part_2,go,250.0,350.0,1.0,,,,,,,,,green,circle
0.0,4.0,4.0,0.0,5.0,5.0,352.4495370002114,5.0,0.0,part_2,go,250.0,350.0,1.0,,,,,,,,,cyan,hexagon
0.0,2.0,2.0,0.0,6.0,6.0,407.97391399974,5.0,0.0,part_2,go,250.0,350.0,1.0,,,,,,,,,white,cross
0.0,7.0,3.0,1.0,6.0,6.0,385.8820980003656,5.0,0.0,part_2,stop,250.0,350.0,3.0,,,,,,,,,yellow,flipped triangle
0.0,6.0,2.0,1.0,6.0,6.0,498.0050870008199,5.0,0.0,part_2,go,250.0,300.0,1.0,,,,,,,,,blue,triangle
0.0,5.0,1.0,1.0,5.0,5.0,412.9762470001878,5.0,0.0,part_2,go,250.0,300.0,1.0,,,,,,,,,gray,diamond
0.0,2.0,2.0,0.0,5.0,5.0,388.4509059998891,5.0,0.0,part_2,go,250.0,300.0,1.0,,,,,,,,,white,cross
0.0,7.0,3.0,1.0,5.0,0.0,0.0,5.0,0.0,part_2,stop,250.0,300.0,4.0,,,,,,,,,yellow,flipped triangle
0.0,5.0,1.0,1.0,6.0,6.0,346.6843760006668,5.0,0.0,part_2,stop,300.0,300.0,3.0,,,,,,,,,gray,diamond
0.0,5.0,1.0,1.0,6.0,0.0,0.0,5.0,0.0,part_2,stop,300.0,250.0,4.0,,,,,,,,,gray,diamond
0.0,8.0,4.0,1.0,6.0,6.0,643.8076189997446,5.0,0.0,part_2,go,300.0,300.0,1.0,,,,,,,,,magenta,square
0.0,5.0,1.0,1.0,6.0,6.0,453.0038749999221,5.0,0.0,part_2,stop,300.0,300.0,3.0,,,,,,,,,gray,diamond
0.0,7.0,3.0,1.0,6.0,6.0,550.6522440000481,5.0,0.0,part_2,go,300.0,250.0,1.0,,,,,,,,,yellow,flipped triangle
0.0,4.0,4.0,0.0,5.0,5.0,484.3655859995124,5.0,0.0,part_2,go,300.0,250.0,1.0,,,,,,,,,cyan,hexagon
0.0,3.0,3.0,0.0,6.0,6.0,652.9016280001088,5.0,0.0,part_2,go,300.0,250.0,1.0,,,,,,,,,orange,I
0.0,1.0,1.0,0.0,6.0,6.0,448.3178270002099,5.0,0.0,part_2,go,300.0,250.0,1.0,,,,,,,,,green,circle
0.0,5.0,1.0,1.0,5.0,5.0,469.0646779999952,5.0,0.0,part_2,stop,300.0,250.0,3.0,,,,,,,,,gray,diamond
0.0,5.0,1.0,1.0,5.0,5.0,660.4886599998281,5.0,0.0,part_2,go,250.0,250.0,1.0,,,,,,,,,gray,diamond
0.0,3.0,3.0,0.0,6.0,6.0,602.1561669995208,5.0,0.0,part_2,go,250.0,250.0,1.0,,,,,,,,,orange,I
0.0,5.0,1.0,1.0,5.0,0.0,0.0,6.0,0.0,part_2,stop,250.0,250.0,4.0,,,,,,,,,gray,diamond
0.0,5.0,1.0,1.0,6.0,6.0,684.7425469995869,6.0,0.0,part_2,go,300.0,250.0,1.0,,,,,,,,,gray,diamond
0.0,4.0,4.0,0.0,6.0,6.0,599.6760010002617,6.0,0.0,part_2,go,300.0,250.0,1.0,,,,,,,,,cyan,hexagon
0.0,7.0,3.0,1.0,6.0,0.0,0.0,6.0,0.0,part_2,stop,300.0,250.0,4.0,,,,,,,,,yellow,flipped triangle
0.0,1.0,1.0,0.0,6.0,6.0,792.0243449998452,6.0,0.0,part_2,go,300.0,300.0,1.0,,,,,,,,,green,circle
0.0,8.0,4.0,1.0,6.0,0.0,0.0,6.0,0.0,part_2,stop,300.0,300.0,4.0,,,,,,,,,magenta,square
0.0,2.0,2.0,0.0,6.0,6.0,614.0588819998811,6.0,0.0,part_2,go,300.0,350.0,1.0,,,,,,,,,white,cross
0.0,1.0,1.0,0.0,6.0,6.0,559.6648370001276,6.0,0.0,part_2,go,300.0,350.0,1.0,,,,,,,,,green,circle
0.0,8.0,4.0,1.0,5.0,0.0,0.0,6.0,0.0,part_2,stop,300.0,350.0,4.0,,,,,,,,,magenta,square
0.0,7.0,3.0,1.0,5.0,5.0,707.4604660001569,6.0,0.0,part_2,go,350.0,350.0,1.0,,,,,,,,,yellow,flipped triangle
0.0,1.0,1.0,0.0,6.0,6.0,646.6496530001677,6.0,0.0,part_2,go,350.0,350.0,1.0,,,,,,,,,green,circle
0.0,3.0,3.0,0.0,5.0,5.0,546.0780759995032,6.0,0.0,part_2,go,350.0,350.0,1.0,,,,,,,,,orange,I
0.0,4.0,4.0,0.0,5.0,5.0,375.1301980000789,6.0,0.0,part_2,go,350.0,350.0,1.0,,,,,,,,,cyan,hexagon
0.0,7.0,3.0,1.0,5.0,5.0,453.6067059998458,6.0,0.0,part_2,stop,350.0,350.0,3.0,,,,,,,,,yellow,flipped triangle
0.0,3.0,3.0,0.0,5.0,5.0,500.78578400007245,6.0,0.0,part_2,go,300.0,350.0,1.0,,,,,,,,,orange,I
0.0,7.0,3.0,1.0,5.0,0.0,0.0,6.0,0.0,part_2,stop,300.0,350.0,4.0,,,,,,,,,yellow,flipped triangle
0.0,2.0,2.0,0.0,6.0,6.0,562.8687039998113,6.0,0.0,part_2,go,350.0,350.0,1.0,,,,,,,,,white,cross
0.0,3.0,3.0,0.0,5.0,5.0,588.7925079996421,6.0,0.0,part_2,go,350.0,350.0,1.0,,,,,,,,,orange,I
0.0,4.0,4.0,0.0,5.0,5.0,378.3664359998511,6.0,0.0,part_2,go,350.0,350.0,1.0,,,,,,,,,cyan,hexagon
0.0,6.0,2.0,1.0,6.0,6.0,487.4237169997286,6.0,0.0,part_2,stop,350.0,350.0,3.0,,,,,,,,,blue,triangle
0.0,3.0,3.0,0.0,6.0,6.0,533.6952620000375,6.0,0.0,part_2,go,350.0,300.0,1.0,,,,,,,,,orange,I
0.0,6.0,2.0,1.0,6.0,0.0,0.0,6.0,0.0,part_2,stop,350.0,300.0,4.0,,,,,,,,,blue,triangle
0.0,5.0,1.0,1.0,6.0,0.0,0.0,6.0,0.0,part_2,stop,350.0,350.0,4.0,,,,,,,,,gray,diamond
0.0,3.0,3.0,0.0,5.0,5.0,483.9346629996726,6.0,0.0,part_2,go,350.0,400.0,1.0,,,,,,,,,orange,I
0.0,7.0,3.0,1.0,5.0,0.0,0.0,6.0,0.0,part_2,stop,350.0,400.0,4.0,,,,,,,,,yellow,flipped triangle
0.0,4.0,4.0,0.0,6.0,6.0,452.4555320003856,6.0,0.0,part_2,go,400.0,400.0,1.0,,,,,,,,,cyan,hexagon
0.0,8.0,4.0,1.0,5.0,0.0,0.0,6.0,0.0,part_2,stop,400.0,400.0,4.0,,,,,,,,,magenta,square
0.0,7.0,3.0,1.0,5.0,5.0,655.6021690003035,6.0,0.0,part_2,go,450.0,400.0,1.0,,,,,,,,,yellow,flipped triangle
0.0,5.0,1.0,1.0,6.0,0.0,0.0,6.0,0.0,part_2,stop,450.0,400.0,4.0,,,,,,,,,gray,diamond
0.0,5.0,1.0,1.0,6.0,0.0,0.0,6.0,0.0,part_2,stop,450.0,450.0,4.0,,,,,,,,,gray,diamond
0.0,1.0,1.0,0.0,5.0,5.0,511.25195199983864,6.0,0.0,part_2,go,450.0,500.0,1.0,,,,,,,,,green,circle
0.0,5.0,1.0,1.0,5.0,5.0,593.9356980006778,6.0,0.0,part_2,stop,450.0,500.0,3.0,,,,,,,,,gray,diamond
0.0,7.0,3.0,1.0,6.0,0.0,0.0,6.0,0.0,part_2,stop,400.0,500.0,4.0,,,,,,,,,yellow,flipped triangle
0.0,3.0,3.0,0.0,6.0,6.0,727.6422439999806,6.0,0.0,part_2,go,400.0,550.0,1.0,,,,,,,,,orange,I
0.0,1.0,1.0,0.0,6.0,6.0,746.8814260000727,6.0,0.0,part_2,go,400.0,550.0,1.0,,,,,,,,,green,circle
0.0,1.0,1.0,0.0,5.0,5.0,684.8432890001277,6.0,0.0,part_2,go,400.0,550.0,1.0,,,,,,,,,green,circle
0.0,3.0,3.0,0.0,6.0,6.0,675.5001260007703,7.0,0.0,part_2,go,400.0,550.0,1.0,,,,,,,,,orange,I
0.0,5.0,1.0,1.0,5.0,5.0,487.4530010001763,7.0,0.0,part_2,stop,400.0,550.0,3.0,,,,,,,,,gray,diamond
0.0,5.0,1.0,1.0,6.0,6.0,595.5182100005914,7.0,0.0,part_2,stop,350.0,550.0,3.0,,,,,,,,,gray,diamond
0.0,2.0,2.0,0.0,5.0,5.0,584.1668459997891,7.0,0.0,part_2,go,350.0,500.0,1.0,,,,,,,,,white,cross
0.0,6.0,2.0,1.0,6.0,6.0,565.2168710003025,7.0,0.0,part_2,go,350.0,500.0,1.0,,,,,,,,,blue,triangle
0.0,3.0,3.0,0.0,6.0,6.0,660.6043660003706,7.0,0.0,part_2,go,350.0,500.0,1.0,,,,,,,,,orange,I
0.0,5.0,1.0,1.0,6.0,6.0,496.5233989996704,7.0,0.0,part_2,go,350.0,500.0,1.0,,,,,,,,,gray,diamond
0.0,2.0,2.0,0.0,6.0,6.0,508.5730010005136,7.0,0.0,part_2,go,350.0,500.0,1.0,,,,,,,,,white,cross
0.0,8.0,4.0,1.0,5.0,5.0,541.9815790000939,7.0,0.0,part_2,go,350.0,500.0,1.0,,,,,,,,,magenta,square
0.0,1.0,1.0,0.0,5.0,5.0,303.2962119996227,7.0,0.0,part_2,go,350.0,500.0,1.0,,,,,,,,,green,circle
0.0,5.0,1.0,1.0,5.0,5.0,443.9488890002394,7.0,0.0,part_2,stop,350.0,500.0,3.0,,,,,,,,,gray,diamond
0.0,3.0,3.0,0.0,6.0,6.0,562.9184509998595,7.0,0.0,part_2,go,300.0,500.0,1.0,,,,,,,,,orange,I
0.0,3.0,3.0,0.0,6.0,6.0,367.4099160007245,7.0,0.0,part_2,go,300.0,500.0,1.0,,,,,,,,,orange,I
0.0,7.0,3.0,1.0,5.0,5.0,404.7049219998371,7.0,0.0,part_2,go,300.0,500.0,1.0,,,,,,,,,yellow,flipped triangle
0.0,6.0,2.0,1.0,5.0,5.0,346.4978570000312,7.0,0.0,part_2,stop,300.0,500.0,3.0,,,,,,,,,blue,triangle
0.0,8.0,4.0,1.0,6.0,6.0,470.396604000598,7.0,0.0,part_2,stop,250.0,500.0,3.0,,,,,,,,,magenta,square
0.0,1.0,1.0,0.0,5.0,5.0,532.0807849993798,7.0,0.0,part_2,go,250.0,450.0,1.0,,,,,,,,,green,circle
0.0,6.0,2.0,1.0,6.0,6.0,572.1542159999444,7.0,0.0,part_2,stop,250.0,450.0,3.0,,,,,,,,,blue,triangle
0.0,5.0,1.0,1.0,6.0,0.0,0.0,7.0,0.0,part_2,stop,250.0,400.0,4.0,,,,,,,,,gray,diamond
0.0,5.0,1.0,1.0,6.0,0.0,0.0,7.0,0.0,part_2,stop,250.0,450.0,4.0,,,,,,,,,gray,diamond
0.0,1.0,1.0,0.0,5.0,5.0,598.5328979995757,7.0,0.0,part_2,go,250.0,500.0,1.0,,,,,,,,,green,circle
0.0,6.0,2.0,1.0,6.0,0.0,0.0,7.0,0.0,part_2,stop,250.0,500.0,4.0,,,,,,,,,blue,triangle
0.0,2.0,2.0,0.0,5.0,5.0,739.4578900002671,7.0,0.0,part_2,go,250.0,550.0,1.0,,,,,,,,,white,cross
0.0,5.0,1.0,1.0,6.0,6.0,1060.6531029998223,7.0,0.0,part_2,go,250.0,550.0,1.0,,,,,,,,,gray,diamond
0.0,5.0,1.0,1.0,5.0,5.0,539.81101699992,7.0,0.0,part_2,go,250.0,550.0,1.0,,,,,,,,,gray,diamond
0.0,2.0,2.0,0.0,6.0,6.0,710.0255489995106,7.0,0.0,part_2,go,250.0,550.0,1.0,,,,,,,,,white,cross
0.0,6.0,2.0,1.0,5.0,5.0,830.0012849995255,7.0,0.0,part_2,go,250.0,550.0,1.0,,,,,,,,,blue,triangle
0.0,6.0,2.0,1.0,5.0,0.0,0.0,7.0,0.0,part_2,stop,250.0,550.0,4.0,,,,,,,,,blue,triangle
0.0,4.0,4.0,0.0,6.0,6.0,617.7415999991354,7.0,0.0,part_2,go,300.0,550.0,1.0,,,,,,,,,cyan,hexagon
0.0,4.0,4.0,0.0,5.0,5.0,633.0457969997951,7.0,0.0,part_2,go,300.0,550.0,1.0,,,,,,,,,cyan,hexagon
0.0,7.0,3.0,1.0,6.0,0.0,0.0,7.0,0.0,part_2,stop,300.0,550.0,4.0,,,,,,,,,yellow,flipped triangle
0.0,1.0,1.0,0.0,5.0,5.0,587.0880949996717,7.0,0.0,part_2,go,300.0,600.0,1.0,,,,,,,,,green,circle
0.0,6.0,2.0,1.0,5.0,0.0,0.0,7.0,0.0,part_2,stop,300.0,600.0,4.0,,,,,,,,,blue,triangle
0.0,1.0,1.0,0.0,5.0,5.0,516.8518420005057,7.0,0.0,part_2,go,350.0,600.0,1.0,,,,,,,,,green,circle
0.0,2.0,2.0,0.0,5.0,5.0,777.9671030002646,7.0,0.0,part_2,go,350.0,600.0,1.0,,,,,,,,,white,cross
0.0,8.0,4.0,1.0,6.0,6.0,666.5590009997686,7.0,0.0,part_2,stop,350.0,600.0,3.0,,,,,,,,,magenta,square
0.0,8.0,4.0,1.0,5.0,5.0,771.8661990002147,8.0,0.0,part_2,go,350.0,550.0,1.0,,,,,,,,,magenta,square
0.0,8.0,4.0,1.0,5.0,0.0,0.0,8.0,0.0,part_2,stop,350.0,550.0,4.0,,,,,,,,,magenta,square
0.0,3.0,3.0,0.0,6.0,6.0,542.6781290007057,8.0,0.0,part_2,go,400.0,550.0,1.0,,,,,,,,,orange,I
0.0,4.0,4.0,0.0,5.0,5.0,765.8215150004253,8.0,0.0,part_2,go,400.0,550.0,1.0,,,,,,,,,cyan,hexagon
0.0,1.0,1.0,0.0,5.0,5.0,611.0127359997932,8.0,0.0,part_2,go,400.0,550.0,1.0,,,,,,,,,green,circle
0.0,2.0,2.0,0.0,6.0,6.0,580.7525489999534,8.0,0.0,part_2,go,400.0,550.0,1.0,,,,,,,,,white,cross
0.0,8.0,4.0,1.0,5.0,5.0,701.3700100005735,8.0,0.0,part_2,go,400.0,550.0,1.0,,,,,,,,,magenta,square
0.0,4.0,4.0,0.0,6.0,6.0,505.01479800004745,8.0,0.0,part_2,go,400.0,550.0,1.0,,,,,,,,,cyan,hexagon
0.0,8.0,4.0,1.0,6.0,0.0,0.0,8.0,0.0,part_2,stop,400.0,550.0,4.0,,,,,,,,,magenta,square
0.0,5.0,1.0,1.0,5.0,0.0,0.0,8.0,0.0,part_2,stop,400.0,600.0,4.0,,,,,,,,,gray,diamond
0.0,5.0,1.0,1.0,5.0,0.0,0.0,8.0,0.0,part_2,stop,450.0,600.0,4.0,,,,,,,,,gray,diamond
0.0,2.0,2.0,0.0,6.0,6.0,758.4665469994434,8.0,0.0,part_2,go,500.0,600.0,1.0,,,,,,,,,white,cross
0.0,8.0,4.0,1.0,6.0,0.0,0.0,8.0,0.0,part_2,stop,500.0,600.0,4.0,,,,,,,,,magenta,square
0.0,7.0,3.0,1.0,6.0,0.0,0.0,8.0,0.0,part_2,stop,500.0,650.0,4.0,,,,,,,,,yellow,flipped triangle
0.0,4.0,4.0,0.0,5.0,5.0,556.9493849998253,8.0,0.0,part_2,go,500.0,700.0,1.0,,,,,,,,,cyan,hexagon
0.0,1.0,1.0,0.0,5.0,5.0,594.5809179993375,8.0,0.0,part_2,go,500.0,700.0,1.0,,,,,,,,,green,circle
0.0,3.0,3.0,0.0,6.0,6.0,630.3694590005762,8.0,0.0,part_2,go,500.0,700.0,1.0,,,,,,,,,orange,I
0.0,2.0,2.0,0.0,5.0,5.0,407.0941429999948,8.0,0.0,part_2,go,500.0,700.0,1.0,,,,,,,,,white,cross
0.0,6.0,2.0,1.0,6.0,6.0,816.0107249996145,8.0,0.0,part_2,stop,500.0,700.0,3.0,,,,,,,,,blue,triangle
0.0,7.0,3.0,1.0,6.0,0.0,0.0,8.0,0.0,part_2,stop,500.0,650.0,4.0,,,,,,,,,yellow,flipped triangle
0.0,4.0,4.0,0.0,6.0,6.0,734.7471189996213,8.0,0.0,part_2,go,500.0,700.0,1.0,,,,,,,,,cyan,hexagon
0.0,4.0,4.0,0.0,6.0,6.0,565.7313090005118,8.0,0.0,part_2,go,500.0,700.0,1.0,,,,,,,,,cyan,hexagon
0.0,2.0,2.0,0.0,5.0,5.0,545.4591299994718,8.0,0.0,part_2,go,500.0,700.0,1.0,,,,,,,,,white,cross
0.0,3.0,3.0,0.0,5.0,5.0,704.605597000409,8.0,0.0,part_2,go,500.0,700.0,1.0,,,,,,,,,orange,I
0.0,1.0,1.0,0.0,5.0,5.0,689.7478460005004,8.0,0.0,part_2,go,500.0,700.0,1.0,,,,,,,,,green,circle
0.0,8.0,4.0,1.0,5.0,0.0,0.0,8.0,0.0,part_2,stop,500.0,700.0,4.0,,,,,,,,,magenta,square
0.0,5.0,1.0,1.0,5.0,0.0,0.0,8.0,0.0,part_2,stop,550.0,700.0,4.0,,,,,,,,,gray,diamond
0.0,1.0,1.0,0.0,6.0,6.0,627.0095529998798,8.0,0.0,part_2,go,600.0,700.0,1.0,,,,,,,,,green,circle
0.0,6.0,2.0,1.0,5.0,0.0,0.0,8.0,0.0,part_2,stop,600.0,700.0,4.0,,,,,,,,,blue,triangle
0.0,3.0,3.0,0.0,5.0,5.0,629.4861179994768,8.0,0.0,part_2,go,650.0,700.0,1.0,,,,,,,,,orange,I
0.0,1.0,1.0,0.0,5.0,5.0,699.594851999791,8.0,0.0,part_2,go,650.0,700.0,1.0,,,,,,,,,green,circle
0.0,6.0,2.0,1.0,5.0,5.0,1100.5552500000704,8.0,0.0,part_2,go,650.0,700.0,1.0,,,,,,,,,blue,triangle
0.0,5.0,1.0,1.0,6.0,0.0,0.0,8.0,0.0,part_2,stop,650.0,700.0,4.0,,,,,,,,,gray,diamond
0.0,4.0,4.0,0.0,6.0,6.0,766.1599869998099,8.0,0.0,part_2,go,650.0,750.0,1.0,,,,,,,,,cyan,hexagon
0.0,1.0,1.0,0.0,6.0,6.0,547.1881200001008,8.0,0.0,part_2,go,650.0,750.0,1.0,,,,,,,,,green,circle
0.0,3.0,3.0,0.0,5.0,5.0,838.5375039997598,8.0,0.0,part_2,go,650.0,750.0,1.0,,,,,,,,,orange,I
0.0,6.0,2.0,1.0,7.0,2.0,3491.6296589999547,1.0,1.0,part_3,go,0.0,0.0,0.0,117.0,3.0,156.0,117.0,234.0,39.0,78.0,195.0,blue,triangle
0.0,2.0,2.0,0.0,7.0,4.0,1609.1099300001588,1.0,1.0,part_3,go,0.0,0.0,0.0,204.0,6.0,170.0,34.0,136.0,204.0,68.0,102.0,white,cross
0.0,5.0,1.0,1.0,7.0,5.0,1474.6941990006237,1.0,1.0,part_3,go,0.0,0.0,0.0,162.0,3.0,108.0,270.0,216.0,324.0,162.0,54.0,gray,diamond
0.0,5.0,1.0,1.0,7.0,2.0,3682.159326999681,1.0,1.0,part_3,go,0.0,0.0,0.0,68.0,2.0,170.0,68.0,204.0,34.0,102.0,136.0,gray,diamond
0.0,3.0,3.0,0.0,7.0,3.0,2326.033285000449,1.0,1.0,part_3,go,0.0,0.0,0.0,234.0,6.0,156.0,78.0,234.0,39.0,117.0,195.0,orange,I
0.0,3.0,3.0,0.0,7.0,2.0,2231.9846870004767,1.0,1.0,part_3,go,0.0,0.0,0.0,216.0,4.0,108.0,216.0,324.0,162.0,54.0,270.0,orange,I
0.0,8.0,4.0,1.0,7.0,1.0,2545.055274999868,1.0,1.0,part_3,go,0.0,0.0,0.0,196.0,4.0,196.0,49.0,147.0,245.0,98.0,294.0,magenta,square
0.0,6.0,2.0,1.0,7.0,2.0,4079.39859399994,1.0,1.0,part_3,go,0.0,0.0,0.0,68.0,2.0,34.0,68.0,170.0,136.0,204.0,102.0,blue,triangle
0.0,8.0,4.0,1.0,7.0,5.0,3413.6471510000774,1.0,1.0,part_3,go,0.0,0.0,0.0,216.0,4.0,108.0,270.0,324.0,54.0,216.0,162.0,magenta,square
0.0,8.0,4.0,1.0,7.0,1.0,2801.989453000715,1.0,1.0,part_3,go,0.0,0.0,0.0,234.0,6.0,234.0,156.0,195.0,78.0,39.0,117.0,magenta,square
0.0,5.0,1.0,1.0,7.0,1.0,4317.254157000207,1.0,1.0,part_3,go,0.0,0.0,0.0,196.0,4.0,196.0,245.0,294.0,98.0,49.0,147.0,gray,diamond
0.0,6.0,2.0,1.0,7.0,1.0,4254.593279999426,1.0,1.0,part_3,go,0.0,0.0,0.0,294.0,6.0,294.0,196.0,98.0,147.0,49.0,245.0,blue,triangle
0.0,1.0,1.0,0.0,7.0,5.0,2729.141912000159,1.0,1.0,part_3,go,0.0,0.0,0.0,39.0,1.0,117.0,195.0,234.0,156.0,39.0,78.0,green,circle
0.0,4.0,4.0,0.0,7.0,4.0,1313.6358120000295,1.0,1.0,part_3,go,0.0,0.0,0.0,324.0,6.0,54.0,216.0,162.0,324.0,270.0,108.0,cyan,hexagon
0.0,4.0,4.0,0.0,7.0,5.0,3325.1516070004072,1.0,1.0,part_3,go,0.0,0.0,0.0,78.0,2.0,117.0,195.0,234.0,156.0,78.0,39.0,cyan,hexagon
0.0,5.0,1.0,1.0,7.0,2.0,2391.414843000348,1.0,1.0,part_3,go,0.0,0.0,0.0,170.0,5.0,204.0,170.0,136.0,68.0,102.0,34.0,gray,diamond
0.0,1.0,1.0,0.0,7.0,1.0,4555.3851140002735,1.0,1.0,part_3,go,0.0,0.0,0.0,294.0,6.0,294.0,245.0,196.0,98.0,49.0,147.0,green,circle
0.0,5.0,1.0,1.0,7.0,6.0,4490.998526000112,1.0,1.0,part_3,go,0.0,0.0,0.0,176.0,4.0,264.0,220.0,44.0,132.0,88.0,176.0,gray,diamond
0.0,1.0,1.0,0.0,7.0,5.0,1351.2349820002785,1.0,1.0,part_3,go,0.0,0.0,0.0,294.0,6.0,196.0,147.0,98.0,49.0,294.0,245.0,green,circle
0.0,6.0,2.0,1.0,7.0,3.0,2009.2027560003771,1.0,2.0,part_3,go,0.0,0.0,0.0,324.0,6.0,108.0,270.0,324.0,162.0,54.0,216.0,blue,triangle
0.0,3.0,3.0,0.0,7.0,3.0,1501.2094240000806,2.0,1.0,part_3,go,0.0,0.0,0.0,98.0,2.0,49.0,147.0,98.0,196.0,294.0,245.0,orange,I
0.0,4.0,4.0,0.0,7.0,2.0,3296.852706000209,2.0,1.0,part_3,go,0.0,0.0,0.0,88.0,2.0,176.0,88.0,132.0,220.0,264.0,44.0,cyan,hexagon
0.0,5.0,1.0,1.0,7.0,4.0,1630.1204910005254,2.0,1.0,part_3,go,0.0,0.0,0.0,264.0,6.0,44.0,176.0,220.0,264.0,88.0,132.0,gray,diamond
0.0,7.0,3.0,1.0,7.0,3.0,1163.837740999952,2.0,1.0,part_3,go,0.0,0.0,0.0,162.0,3.0,108.0,54.0,162.0,270.0,324.0,216.0,yellow,flipped triangle
0.0,3.0,3.0,0.0,7.0,6.0,3066.158744999484,2.0,1.0,part_3,go,0.0,0.0,0.0,44.0,1.0,176.0,220.0,88.0,264.0,132.0,44.0,orange,I
0.0,4.0,4.0,0.0,7.0,1.0,1289.0491340003791,2.0,1.0,part_3,go,0.0,0.0,0.0,88.0,2.0,88.0,132.0,220.0,176.0,44.0,264.0,cyan,hexagon
0.0,3.0,3.0,0.0,7.0,1.0,2446.676080000543,2.0,1.0,part_3,go,0.0,0.0,0.0,68.0,2.0,68.0,34.0,170.0,136.0,204.0,102.0,orange,I
0.0,8.0,4.0,1.0,7.0,2.0,2440.9979090005436,2.0,1.0,part_3,go,0.0,0.0,0.0,170.0,5.0,34.0,170.0,136.0,102.0,68.0,204.0,magenta,square
0.0,4.0,4.0,0.0,7.0,1.0,2299.1579429999547,2.0,1.0,part_3,go,0.0,0.0,0.0,78.0,2.0,78.0,117.0,156.0,39.0,234.0,195.0,cyan,hexagon
0.0,8.0,4.0,1.0,7.0,3.0,1925.184486000035,2.0,1.0,part_3,go,0.0,0.0,0.0,234.0,6.0,39.0,78.0,234.0,156.0,195.0,117.0,magenta,square
0.0,8.0,4.0,1.0,7.0,4.0,2077.960922000784,2.0,1.0,part_3,go,0.0,0.0,0.0,324.0,6.0,270.0,216.0,162.0,324.0,54.0,108.0,magenta,square
0.0,8.0,4.0,1.0,7.0,2.0,2778.4821080003894,2.0,1.0,part_3,go,0.0,0.0,0.0,196.0,4.0,147.0,196.0,98.0,294.0,49.0,245.0,magenta,square
0.0,3.0,3.0,0.0,7.0,1.0,1696.2257599998338,2.0,1.0,part_3,go,0.0,0.0,0.0,68.0,2.0,68.0,170.0,102.0,34.0,136.0,204.0,orange,I
0.0,2.0,2.0,0.0,7.0,6.0,1809.4378450005024,2.0,1.0,part_3,go,0.0,0.0,0.0,245.0,5.0,147.0,98.0,49.0,196.0,294.0,245.0,white,cross
0.0,2.0,2.0,0.0,7.0,6.0,2125.8199550002246,2.0,1.0,part_3,go,0.0,0.0,0.0,270.0,5.0,216.0,54.0,324.0,108.0,162.0,270.0,white,cross
0.0,1.0,1.0,0.0,7.0,5.0,3429.9195889998373,2.0,1.0,part_3,go,0.0,0.0,0.0,324.0,6.0,270.0,162.0,108.0,54.0,324.0,216.0,green,circle
0.0,1.0,1.0,0.0,7.0,3.0,1874.4737930001063,2.0,1.0,part_3,go,0.0,0.0,0.0,88.0,2.0,132.0,44.0,88.0,220.0,176.0,264.0,green,circle
0.0,6.0,2.0,1.0,7.0,3.0,1954.2156519992204,2.0,1.0,part_3,go,0.0,0.0,0.0,195.0,5.0,234.0,39.0,195.0,156.0,78.0,117.0,blue,triangle
0.0,2.0,2.0,0.0,7.0,5.0,2559.1725379999843,2.0,1.0,part_3,go,0.0,0.0,0.0,264.0,6.0,132.0,88.0,44.0,220.0,264.0,176.0,white,cross
0.0,5.0,1.0,1.0,7.0,6.0,3946.366158999808,2.0,1.0,part_3,go,0.0,0.0,0.0,78.0,2.0,156.0,234.0,117.0,39.0,195.0,78.0,gray,diamond
0.0,3.0,3.0,0.0,7.0,6.0,1494.4697119999546,3.0,1.0,part_3,go,0.0,0.0,0.0,270.0,5.0,324.0,162.0,216.0,108.0,54.0,270.0,orange,I
0.0,7.0,3.0,1.0,7.0,1.0,2122.6643050003986,3.0,1.0,part_3,go,0.0,0.0,0.0,117.0,3.0,117.0,234.0,195.0,78.0,156.0,39.0,yellow,flipped triangle
0.0,2.0,2.0,0.0,7.0,5.0,2011.7286570002761,3.0,1.0,part_3,go,0.0,0.0,0.0,170.0,5.0,34.0,102.0,204.0,68.0,170.0,136.0,white,cross
0.0,6.0,2.0,1.0,7.0,1.0,2256.188600999849,3.0,1.0,part_3,go,0.0,0.0,0.0,44.0,1.0,44.0,220.0,176.0,264.0,132.0,88.0,blue,triangle
0.0,1.0,1.0,0.0,7.0,3.0,3236.9796640005006,3.0,1.0,part_3,go,0.0,0.0,0.0,234.0,6.0,156.0,78.0,234.0,39.0,117.0,195.0,green,circle
0.0,1.0,1.0,0.0,7.0,2.0,1986.460733000058,3.0,1.0,part_3,go,0.0,0.0,0.0,220.0,5.0,176.0,220.0,44.0,264.0,88.0,132.0,green,circle
0.0,6.0,2.0,1.0,7.0,1.0,1554.3771729999207,3.0,1.0,part_3,go,0.0,0.0,0.0,34.0,1.0,34.0,68.0,136.0,204.0,102.0,170.0,blue,triangle
0.0,6.0,2.0,1.0,7.0,3.0,2628.137016000437,3.0,1.0,part_3,go,0.0,0.0,0.0,49.0,1.0,98.0,245.0,49.0,294.0,147.0,196.0,blue,triangle
0.0,3.0,3.0,0.0,7.0,4.0,3033.5360429999128,3.0,1.0,part_3,go,0.0,0.0,0.0,176.0,4.0,220.0,88.0,132.0,176.0,264.0,44.0,orange,I
0.0,3.0,3.0,0.0,7.0,5.0,2091.2951989994326,3.0,1.0,part_3,go,0.0,0.0,0.0,196.0,4.0,98.0,147.0,245.0,49.0,196.0,294.0,orange,I
0.0,6.0,2.0,1.0,7.0,2.0,2565.6874930000413,3.0,1.0,part_3,go,0.0,0.0,0.0,88.0,2.0,176.0,88.0,132.0,220.0,44.0,264.0,blue,triangle
0.0,7.0,3.0,1.0,7.0,6.0,1879.2384950002088,3.0,1.0,part_3,go,0.0,0.0,0.0,88.0,2.0,132.0,220.0,264.0,44.0,176.0,88.0,yellow,flipped triangle
0.0,3.0,3.0,0.0,7.0,3.0,2443.1760910001685,3.0,1.0,part_3,go,0.0,0.0,0.0,156.0,4.0,78.0,117.0,156.0,234.0,39.0,195.0,orange,I
0.0,2.0,2.0,0.0,7.0,4.0,1220.8324659995924,3.0,1.0,part_3,go,0.0,0.0,0.0,54.0,1.0,162.0,324.0,270.0,54.0,216.0,108.0,white,cross
0.0,7.0,3.0,1.0,7.0,1.0,2386.1096150003505,3.0,1.0,part_3,go,0.0,0.0,0.0,88.0,2.0,88.0,44.0,132.0,220.0,264.0,176.0,yellow,flipped triangle
0.0,8.0,4.0,1.0,7.0,3.0,2756.8641130001197,3.0,1.0,part_3,go,0.0,0.0,0.0,264.0,6.0,220.0,88.0,264.0,132.0,176.0,44.0,magenta,square
0.0,4.0,4.0,0.0,7.0,6.0,1210.1363199999469,3.0,1.0,part_3,go,0.0,0.0,0.0,196.0,4.0,245.0,147.0,98.0,294.0,49.0,196.0,cyan,hexagon
0.0,2.0,2.0,0.0,7.0,3.0,1456.3789800004088,3.0,1.0,part_3,go,0.0,0.0,0.0,264.0,6.0,132.0,88.0,264.0,220.0,44.0,176.0,white,cross
0.0,5.0,1.0,1.0,7.0,5.0,1064.9188510005845,3.0,1.0,part_3,go,0.0,0.0,0.0,117.0,3.0,156.0,195.0,39.0,78.0,117.0,234.0,gray,diamond
0.0,1.0,1.0,0.0,7.0,3.0,1458.0611009996574,3.0,1.0,part_3,go,0.0,0.0,0.0,68.0,2.0,170.0,204.0,68.0,136.0,34.0,102.0,green,circle
0.0,7.0,3.0,1.0,7.0,5.0,876.4646929994342,4.0,1.0,part_3,go,0.0,0.0,0.0,195.0,5.0,78.0,156.0,234.0,39.0,195.0,117.0,yellow,flipped triangle
0.0,7.0,3.0,1.0,7.0,2.0,1101.439979999668,4.0,1.0,part_3,go,0.0,0.0,0.0,294.0,6.0,147.0,294.0,196.0,98.0,245.0,49.0,yellow,flipped triangle
0.0,1.0,1.0,0.0,7.0,6.0,2007.8520719998778,4.0,1.0,part_3,go,0.0,0.0,0.0,68.0,2.0,170.0,34.0,204.0,136.0,102.0,68.0,green,circle
0.0,4.0,4.0,0.0,7.0,2.0,1355.359913000029,4.0,1.0,part_3,go,0.0,0.0,0.0,204.0,6.0,170.0,204.0,68.0,34.0,136.0,102.0,cyan,hexagon
0.0,2.0,2.0,0.0,7.0,4.0,1264.3282819999513,4.0,1.0,part_3,go,0.0,0.0,0.0,195.0,5.0,156.0,234.0,39.0,195.0,78.0,117.0,white,cross
0.0,4.0,4.0,0.0,7.0,2.0,1446.9849960005376,4.0,1.0,part_3,go,0.0,0.0,0.0,170.0,5.0,68.0,170.0,34.0,102.0,204.0,136.0,cyan,hexagon
0.0,7.0,3.0,1.0,7.0,3.0,1165.6053400001838,4.0,1.0,part_3,go,0.0,0.0,0.0,204.0,6.0,136.0,68.0,204.0,102.0,170.0,34.0,yellow,flipped triangle
0.0,2.0,2.0,0.0,7.0,6.0,1196.9264209992616,4.0,1.0,part_3,go,0.0,0.0,0.0,117.0,3.0,78.0,234.0,156.0,39.0,195.0,117.0,white,cross
0.0,2.0,2.0,0.0,7.0,1.0,1220.479309999973,4.0,1.0,part_3,go,0.0,0.0,0.0,294.0,6.0,294.0,245.0,147.0,196.0,98.0,49.0,white,cross
0.0,6.0,2.0,1.0,7.0,4.0,1058.598212999641,4.0,1.0,part_3,go,0.0,0.0,0.0,108.0,2.0,324.0,54.0,162.0,108.0,270.0,216.0,blue,triangle
0.0,7.0,3.0,1.0,7.0,5.0,1756.462420000389,4.0,1.0,part_3,go,0.0,0.0,0.0,324.0,6.0,270.0,162.0,108.0,216.0,324.0,54.0,yellow,flipped triangle
0.0,1.0,1.0,0.0,7.0,3.0,1028.6542609992466,4.0,1.0,part_3,go,0.0,0.0,0.0,108.0,2.0,216.0,162.0,108.0,54.0,270.0,324.0,green,circle
0.0,7.0,3.0,1.0,7.0,3.0,1053.0670349999127,4.0,1.0,part_3,go,0.0,0.0,0.0,204.0,6.0,136.0,102.0,204.0,68.0,34.0,170.0,yellow,flipped triangle
0.0,8.0,4.0,1.0,7.0,1.0,1269.847667999784,4.0,1.0,part_3,go,0.0,0.0,0.0,136.0,4.0,136.0,204.0,170.0,34.0,68.0,102.0,magenta,square
0.0,7.0,3.0,1.0,7.0,3.0,1446.543070000189,4.0,1.0,part_3,go,0.0,0.0,0.0,147.0,3.0,245.0,49.0,147.0,196.0,294.0,98.0,yellow,flipped triangle
0.0,8.0,4.0,1.0,7.0,6.0,1471.1543690000326,4.0,1.0,part_3,go,0.0,0.0,0.0,44.0,1.0,176.0,264.0,88.0,220.0,132.0,44.0,magenta,square
0.0,4.0,4.0,0.0,7.0,2.0,1880.0670700002229,4.0,1.0,part_3,go,0.0,0.0,0.0,324.0,6.0,162.0,324.0,108.0,54.0,216.0,270.0,cyan,hexagon
0.0,5.0,1.0,1.0,7.0,4.0,911.3939660001053,4.0,1.0,part_3,go,0.0,0.0,0.0,216.0,4.0,270.0,162.0,324.0,216.0,108.0,54.0,gray,diamond
0.0,4.0,4.0,0.0,7.0,6.0,848.7513420004689,4.0,1.0,part_3,go,0.0,0.0,0.0,245.0,5.0,49.0,196.0,294.0,98.0,147.0,245.0,cyan,hexagon
0.0,5.0,1.0,1.0,7.0,3.0,1060.160173999975,4.0,1.0,part_3,go,0.0,0.0,0.0,98.0,2.0,147.0,49.0,98.0,196.0,294.0,245.0,gray,diamond
