raw_reward_magnitude,stim_reward,stepwise_reward_magnitude,paired_with_stopping,stim_location,response,reaction_time,block,num_trial_presentations,which_phase,stop_signal_trial_type,left_SSD,right_SSD,accuracy,chosen_bidding_amount,chosen_bidding_level,possible_bid_1,possible_bid_2,possible_bid_3,possible_bid_4,possible_bid_5,possible_bid_6,color_text,shape_text
116.0,2.0,2.0,0.0,2.0,2.0,384.2227589993854,1.0,1.0,phase_1,,,,,,,,,,,,,blue,hexagon
187.0,3.0,3.0,0.0,2.0,2.0,383.2186519994138,1.0,1.0,phase_1,,,,,,,,,,,,,gray,diamond
210.0,3.0,3.0,0.0,2.0,2.0,375.9423760002391,1.0,1.0,phase_1,,,,,,,,,,,,,gray,diamond
39.0,5.0,1.0,1.0,4.0,4.0,305.6311949985684,1.0,1.0,phase_1,,,,,,,,,,,,,yellow,circle
412.0,8.0,4.0,1.0,3.0,3.0,334.2583490011748,1.0,1.0,phase_1,,,,,,,,,,,,,white,flipped triangle
93.0,6.0,2.0,1.0,4.0,4.0,283.5049669993168,1.0,1.0,phase_1,,,,,,,,,,,,,magenta,triangle
110.0,6.0,2.0,1.0,3.0,3.0,352.2774129996833,1.0,1.0,phase_1,,,,,,,,,,,,,magenta,triangle
113.0,2.0,2.0,0.0,3.0,3.0,362.1516240000346,1.0,1.0,phase_1,,,,,,,,,,,,,blue,hexagon
64.0,1.0,1.0,0.0,3.0,3.0,331.7252140004711,1.0,1.0,phase_1,,,,,,,,,,,,,green,cross
100.0,6.0,2.0,1.0,3.0,3.0,332.9264880012488,1.0,1.0,phase_1,,,,,,,,,,,,,magenta,triangle
0.0,3.0,0.0,0.0,1.0,1.0,281.9787410007848,1.0,1.0,phase_1,,,,,,,,,,,,,gray,diamond
0.0,3.0,0.0,0.0,3.0,3.0,323.2502010014286,1.0,1.0,phase_1,,,,,,,,,,,,,gray,diamond
87.0,2.0,2.0,0.0,2.0,2.0,323.22759499948,1.0,1.0,phase_1,,,,,,,,,,,,,blue,hexagon
188.0,7.0,3.0,1.0,3.0,3.0,284.4102070012013,1.0,1.0,phase_1,,,,,,,,,,,,,cyan,I
194.0,3.0,3.0,0.0,1.0,1.0,331.4145919994189,1.0,1.0,phase_1,,,,,,,,,,,,,gray,diamond
123.0,6.0,2.0,1.0,2.0,2.0,341.6906869988452,1.0,1.0,phase_1,,,,,,,,,,,,,magenta,triangle
0.0,1.0,0.0,0.0,2.0,2.0,318.6777259998052,1.0,1.0,phase_1,,,,,,,,,,,,,green,cross
412.0,4.0,4.0,0.0,2.0,2.0,334.7532890002185,1.0,1.0,phase_1,,,,,,,,,,,,,orange,square
108.0,6.0,2.0,1.0,3.0,3.0,352.3591010016389,1.0,1.0,phase_1,,,,,,,,,,,,,magenta,triangle
84.0,6.0,2.0,1.0,3.0,3.0,337.7795759988657,1.0,1.0,phase_1,,,,,,,,,,,,,magenta,triangle
179.0,7.0,3.0,1.0,2.0,2.0,351.0912189994997,1.0,1.0,phase_1,,,,,,,,,,,,,cyan,I
386.0,4.0,4.0,0.0,2.0,2.0,344.396525000775,1.0,1.0,phase_1,,,,,,,,,,,,,orange,square
68.0,5.0,1.0,1.0,1.0,1.0,333.5264470006223,1.0,1.0,phase_1,,,,,,,,,,,,,yellow,circle
214.0,7.0,3.0,1.0,2.0,2.0,323.4293200002867,1.0,1.0,phase_1,,,,,,,,,,,,,cyan,I
61.0,1.0,1.0,0.0,4.0,4.0,286.6653940000105,1.0,1.0,phase_1,,,,,,,,,,,,,green,cross
0.0,8.0,0.0,1.0,4.0,4.0,339.7680839989334,1.0,1.0,phase_1,,,,,,,,,,,,,white,flipped triangle
0.0,4.0,0.0,0.0,2.0,2.0,341.3194820004719,1.0,1.0,phase_1,,,,,,,,,,,,,orange,square
0.0,7.0,0.0,1.0,1.0,1.0,362.99136900015577,1.0,1.0,phase_1,,,,,,,,,,,,,cyan,I
0.0,3.0,0.0,0.0,2.0,2.0,330.1547480004956,1.0,1.0,phase_1,,,,,,,,,,,,,gray,diamond
54.0,1.0,1.0,0.0,2.0,2.0,353.4494870000344,1.0,1.0,phase_1,,,,,,,,,,,,,green,cross
73.0,5.0,1.0,1.0,1.0,1.0,352.2864919996209,1.0,1.0,phase_1,,,,,,,,,,,,,yellow,circle
177.0,7.0,3.0,1.0,2.0,2.0,350.9483719990385,1.0,1.0,phase_1,,,,,,,,,,,,,cyan,I
201.0,3.0,3.0,0.0,2.0,2.0,336.6471039989847,1.0,1.0,phase_1,,,,,,,,,,,,,gray,diamond
0.0,1.0,0.0,0.0,3.0,3.0,404.5800679996318,1.0,1.0,phase_1,,,,,,,,,,,,,green,cross
93.0,6.0,2.0,1.0,3.0,3.0,351.9918109996069,1.0,1.0,phase_1,,,,,,,,,,,,,magenta,triangle
42.0,1.0,1.0,0.0,4.0,4.0,324.7507220003172,1.0,1.0,phase_1,,,,,,,,,,,,,green,cross
211.0,3.0,3.0,0.0,3.0,3.0,363.0591100009042,1.0,1.0,phase_1,,,,,,,,,,,,,gray,diamond
46.0,1.0,1.0,0.0,4.0,4.0,320.4651600008219,1.0,1.0,phase_1,,,,,,,,,,,,,green,cross
82.0,2.0,2.0,0.0,1.0,1.0,318.8303060014732,1.0,1.0,phase_1,,,,,,,,,,,,,blue,hexagon
187.0,7.0,3.0,1.0,2.0,2.0,341.4597859991772,1.0,1.0,phase_1,,,,,,,,,,,,,cyan,I
0.0,3.0,0.0,0.0,4.0,4.0,295.4664899989438,1.0,1.0,phase_1,,,,,,,,,,,,,gray,diamond
188.0,3.0,3.0,0.0,1.0,1.0,316.2429739986692,1.0,1.0,phase_1,,,,,,,,,,,,,gray,diamond
187.0,7.0,3.0,1.0,3.0,3.0,347.7389849995234,1.0,1.0,phase_1,,,,,,,,,,,,,cyan,I
0.0,4.0,0.0,0.0,3.0,3.0,405.0322819985013,1.0,1.0,phase_1,,,,,,,,,,,,,orange,square
423.0,8.0,4.0,1.0,2.0,2.0,365.5289979997178,1.0,1.0,phase_1,,,,,,,,,,,,,white,flipped triangle
0.0,2.0,0.0,0.0,4.0,4.0,370.271474999754,1.0,1.0,phase_1,,,,,,,,,,,,,blue,hexagon
198.0,7.0,3.0,1.0,2.0,2.0,389.5100059999095,1.0,1.0,phase_1,,,,,,,,,,,,,cyan,I
394.0,8.0,4.0,1.0,2.0,2.0,369.6505300013086,1.0,1.0,phase_1,,,,,,,,,,,,,white,flipped triangle
0.0,7.0,0.0,1.0,3.0,3.0,313.7774469996657,1.0,1.0,phase_1,,,,,,,,,,,,,cyan,I
74.0,1.0,1.0,0.0,1.0,1.0,302.7759489996242,1.0,1.0,phase_1,,,,,,,,,,,,,green,cross
0.0,6.0,0.0,1.0,1.0,1.0,364.7129090004455,1.0,1.0,phase_1,,,,,,,,,,,,,magenta,triangle
0.0,7.0,0.0,1.0,4.0,4.0,296.4921639995737,1.0,1.0,phase_1,,,,,,,,,,,,,cyan,I
185.0,7.0,3.0,1.0,4.0,4.0,312.8368819998286,1.0,1.0,phase_1,,,,,,,,,,,,,cyan,I
89.0,2.0,2.0,0.0,2.0,2.0,340.89689800021,1.0,1.0,phase_1,,,,,,,,,,,,,blue,hexagon
381.0,8.0,4.0,1.0,4.0,4.0,313.8666869999724,1.0,1.0,phase_1,,,,,,,,,,,,,white,flipped triangle
0.0,6.0,0.0,1.0,3.0,3.0,331.1437679985829,1.0,1.0,phase_1,,,,,,,,,,,,,magenta,triangle
202.0,7.0,3.0,1.0,2.0,2.0,374.4612450009299,1.0,1.0,phase_1,,,,,,,,,,,,,cyan,I
99.0,6.0,2.0,1.0,2.0,2.0,339.3430310006806,1.0,1.0,phase_1,,,,,,,,,,,,,magenta,triangle
83.0,6.0,2.0,1.0,4.0,4.0,325.7478360010282,1.0,1.0,phase_1,,,,,,,,,,,,,magenta,triangle
399.0,4.0,4.0,0.0,4.0,4.0,320.8696620004048,1.0,1.0,phase_1,,,,,,,,,,,,,orange,square
178.0,7.0,3.0,1.0,1.0,1.0,486.2852810001641,1.0,1.0,phase_1,,,,,,,,,,,,,cyan,I
202.0,7.0,3.0,1.0,3.0,3.0,333.888922999904,1.0,1.0,phase_1,,,,,,,,,,,,,cyan,I
78.0,2.0,2.0,0.0,4.0,4.0,304.4979450005485,1.0,1.0,phase_1,,,,,,,,,,,,,blue,hexagon
381.0,8.0,4.0,1.0,1.0,1.0,334.2066630011686,1.0,1.0,phase_1,,,,,,,,,,,,,white,flipped triangle
386.0,8.0,4.0,1.0,2.0,2.0,341.9447180003772,1.0,1.0,phase_1,,,,,,,,,,,,,white,flipped triangle
62.0,5.0,1.0,1.0,3.0,3.0,314.3921450009657,1.0,1.0,phase_1,,,,,,,,,,,,,yellow,circle
124.0,2.0,2.0,0.0,2.0,2.0,341.2361379996582,1.0,1.0,phase_1,,,,,,,,,,,,,blue,hexagon
0.0,7.0,0.0,1.0,1.0,1.0,368.9850560003833,1.0,1.0,phase_1,,,,,,,,,,,,,cyan,I
399.0,8.0,4.0,1.0,4.0,4.0,275.1052959993103,1.0,1.0,phase_1,,,,,,,,,,,,,white,flipped triangle
0.0,7.0,0.0,1.0,4.0,4.0,293.6759069998516,1.0,1.0,phase_1,,,,,,,,,,,,,cyan,I
0.0,8.0,0.0,1.0,2.0,2.0,366.3695530012774,1.0,1.0,phase_1,,,,,,,,,,,,,white,flipped triangle
386.0,8.0,4.0,1.0,4.0,4.0,303.18194999927067,1.0,1.0,phase_1,,,,,,,,,,,,,white,flipped triangle
48.0,1.0,1.0,0.0,1.0,1.0,302.7229759991314,1.0,1.0,phase_1,,,,,,,,,,,,,green,cross
111.0,2.0,2.0,0.0,2.0,2.0,297.98355699858797,1.0,1.0,phase_1,,,,,,,,,,,,,blue,hexagon
82.0,6.0,2.0,1.0,1.0,1.0,362.8864190013701,1.0,1.0,phase_1,,,,,,,,,,,,,magenta,triangle
111.0,6.0,2.0,1.0,1.0,1.0,336.1179469993658,1.0,1.0,phase_1,,,,,,,,,,,,,magenta,triangle
61.0,5.0,1.0,1.0,1.0,1.0,347.9884669995954,1.0,1.0,phase_1,,,,,,,,,,,,,yellow,circle
180.0,3.0,3.0,0.0,4.0,4.0,322.4645230002352,1.0,1.0,phase_1,,,,,,,,,,,,,gray,diamond
0.0,6.0,0.0,1.0,4.0,4.0,448.5569049993501,1.0,1.0,phase_1,,,,,,,,,,,,,magenta,triangle
74.0,5.0,1.0,1.0,3.0,3.0,391.5935919994808,1.0,1.0,phase_1,,,,,,,,,,,,,yellow,circle
64.0,5.0,1.0,1.0,2.0,2.0,344.0537730002688,1.0,1.0,phase_1,,,,,,,,,,,,,yellow,circle
113.0,6.0,2.0,1.0,2.0,2.0,343.496141000287,1.0,1.0,phase_1,,,,,,,,,,,,,magenta,triangle
119.0,6.0,2.0,1.0,2.0,2.0,358.4022309987631,1.0,1.0,phase_1,,,,,,,,,,,,,magenta,triangle
403.0,4.0,4.0,0.0,3.0,3.0,362.0052129990654,1.0,1.0,phase_1,,,,,,,,,,,,,orange,square
223.0,7.0,3.0,1.0,1.0,1.0,362.3782089998713,1.0,1.0,phase_1,,,,,,,,,,,,,cyan,I
0.0,8.0,0.0,1.0,1.0,1.0,431.0107450000942,1.0,1.0,phase_1,,,,,,,,,,,,,white,flipped triangle
109.0,6.0,2.0,1.0,1.0,1.0,361.4112430004752,1.0,1.0,phase_1,,,,,,,,,,,,,magenta,triangle
388.0,8.0,4.0,1.0,1.0,1.0,332.5771050003823,1.0,1.0,phase_1,,,,,,,,,,,,,white,flipped triangle
52.0,5.0,1.0,1.0,3.0,3.0,339.0141030013183,1.0,1.0,phase_1,,,,,,,,,,,,,yellow,circle
196.0,3.0,3.0,0.0,4.0,4.0,315.985492999971,1.0,1.0,phase_1,,,,,,,,,,,,,gray,diamond
414.0,8.0,4.0,1.0,2.0,2.0,333.2329400000162,1.0,1.0,phase_1,,,,,,,,,,,,,white,flipped triangle
386.0,8.0,4.0,1.0,3.0,3.0,349.8471809998591,1.0,1.0,phase_1,,,,,,,,,,,,,white,flipped triangle
381.0,4.0,4.0,0.0,4.0,4.0,292.8080910005519,1.0,1.0,phase_1,,,,,,,,,,,,,orange,square
99.0,6.0,2.0,1.0,2.0,2.0,280.7754849982302,1.0,1.0,phase_1,,,,,,,,,,,,,magenta,triangle
386.0,8.0,4.0,1.0,4.0,4.0,267.0063679997838,1.0,1.0,phase_1,,,,,,,,,,,,,white,flipped triangle
101.0,2.0,2.0,0.0,1.0,1.0,280.845847000819,1.0,1.0,phase_1,,,,,,,,,,,,,blue,hexagon
382.0,8.0,4.0,1.0,4.0,4.0,300.8982020000985,1.0,1.0,phase_1,,,,,,,,,,,,,white,flipped triangle
412.0,8.0,4.0,1.0,2.0,2.0,349.5010049991833,1.0,1.0,phase_1,,,,,,,,,,,,,white,flipped triangle
0.0,4.0,0.0,0.0,2.0,2.0,376.3901210004405,1.0,1.0,phase_1,,,,,,,,,,,,,orange,square
30.0,1.0,1.0,0.0,4.0,4.0,305.1991279990034,1.0,1.0,phase_1,,,,,,,,,,,,,green,cross
100.0,2.0,2.0,0.0,1.0,1.0,344.9702150010125,2.0,1.0,phase_1,,,,,,,,,,,,,blue,hexagon
33.0,5.0,1.0,1.0,4.0,4.0,294.5848740000656,2.0,1.0,phase_1,,,,,,,,,,,,,yellow,circle
417.0,4.0,4.0,0.0,4.0,4.0,328.2901089987717,2.0,1.0,phase_1,,,,,,,,,,,,,orange,square
183.0,7.0,3.0,1.0,4.0,4.0,323.904204999053,2.0,1.0,phase_1,,,,,,,,,,,,,cyan,I
409.0,8.0,4.0,1.0,3.0,3.0,369.6596330009924,2.0,1.0,phase_1,,,,,,,,,,,,,white,flipped triangle
412.0,4.0,4.0,0.0,2.0,2.0,312.9450489996088,2.0,1.0,phase_1,,,,,,,,,,,,,orange,square
224.0,7.0,3.0,1.0,3.0,3.0,359.1807049997442,2.0,1.0,phase_1,,,,,,,,,,,,,cyan,I
381.0,4.0,4.0,0.0,3.0,3.0,385.2526009995927,2.0,1.0,phase_1,,,,,,,,,,,,,orange,square
52.0,1.0,1.0,0.0,3.0,3.0,334.1154549998464,2.0,1.0,phase_1,,,,,,,,,,,,,green,cross
51.0,1.0,1.0,0.0,3.0,3.0,406.9288070004404,2.0,1.0,phase_1,,,,,,,,,,,,,green,cross
110.0,2.0,2.0,0.0,3.0,3.0,300.7909759999165,2.0,1.0,phase_1,,,,,,,,,,,,,blue,hexagon
412.0,8.0,4.0,1.0,4.0,4.0,322.0769349991315,2.0,1.0,phase_1,,,,,,,,,,,,,white,flipped triangle
386.0,4.0,4.0,0.0,1.0,1.0,367.8637689990864,2.0,1.0,phase_1,,,,,,,,,,,,,orange,square
101.0,6.0,2.0,1.0,4.0,4.0,287.8535469990311,2.0,1.0,phase_1,,,,,,,,,,,,,magenta,triangle
404.0,8.0,4.0,1.0,4.0,4.0,326.6920579990255,2.0,1.0,phase_1,,,,,,,,,,,,,white,flipped triangle
0.0,2.0,0.0,0.0,3.0,3.0,366.9751609995728,2.0,1.0,phase_1,,,,,,,,,,,,,blue,hexagon
390.0,8.0,4.0,1.0,1.0,1.0,441.6772470012802,2.0,1.0,phase_1,,,,,,,,,,,,,white,flipped triangle
87.0,2.0,2.0,0.0,2.0,2.0,333.9695469985599,2.0,1.0,phase_1,,,,,,,,,,,,,blue,hexagon
62.0,5.0,1.0,1.0,4.0,4.0,292.7554319994669,2.0,1.0,phase_1,,,,,,,,,,,,,yellow,circle
0.0,8.0,0.0,1.0,3.0,3.0,311.0544450009911,2.0,1.0,phase_1,,,,,,,,,,,,,white,flipped triangle
0.0,3.0,0.0,0.0,3.0,3.0,350.0926810011151,2.0,1.0,phase_1,,,,,,,,,,,,,gray,diamond
403.0,4.0,4.0,0.0,1.0,1.0,369.5662670015736,2.0,1.0,phase_1,,,,,,,,,,,,,orange,square
417.0,8.0,4.0,1.0,3.0,3.0,313.7447669996618,2.0,1.0,phase_1,,,,,,,,,,,,,white,flipped triangle
0.0,8.0,0.0,1.0,3.0,3.0,389.4838920004986,2.0,1.0,phase_1,,,,,,,,,,,,,white,flipped triangle
119.0,2.0,2.0,0.0,2.0,2.0,336.7160459984006,2.0,1.0,phase_1,,,,,,,,,,,,,blue,hexagon
0.0,5.0,0.0,1.0,1.0,1.0,296.0268699989683,2.0,1.0,phase_1,,,,,,,,,,,,,yellow,circle
412.0,4.0,4.0,0.0,4.0,4.0,312.1165880002081,2.0,1.0,phase_1,,,,,,,,,,,,,orange,square
193.0,7.0,3.0,1.0,4.0,4.0,370.5537009991531,2.0,1.0,phase_1,,,,,,,,,,,,,cyan,I
37.0,1.0,1.0,0.0,2.0,2.0,453.8076289991295,2.0,1.0,phase_1,,,,,,,,,,,,,green,cross
27.0,1.0,1.0,0.0,1.0,1.0,347.3579540004721,2.0,1.0,phase_1,,,,,,,,,,,,,green,cross
32.0,1.0,1.0,0.0,1.0,1.0,330.2429409995966,2.0,1.0,phase_1,,,,,,,,,,,,,green,cross
56.0,5.0,1.0,1.0,1.0,1.0,315.2049479995185,2.0,1.0,phase_1,,,,,,,,,,,,,yellow,circle
414.0,8.0,4.0,1.0,3.0,3.0,326.465490999908,2.0,1.0,phase_1,,,,,,,,,,,,,white,flipped triangle
106.0,2.0,2.0,0.0,1.0,1.0,324.4260310002573,2.0,1.0,phase_1,,,,,,,,,,,,,blue,hexagon
176.0,3.0,3.0,0.0,3.0,3.0,358.3644939990336,2.0,1.0,phase_1,,,,,,,,,,,,,gray,diamond
73.0,1.0,1.0,0.0,4.0,4.0,311.7758280004636,2.0,1.0,phase_1,,,,,,,,,,,,,green,cross
92.0,6.0,2.0,1.0,4.0,4.0,399.6010259998002,2.0,1.0,phase_1,,,,,,,,,,,,,magenta,triangle
26.0,1.0,1.0,0.0,4.0,4.0,364.3108069991285,2.0,1.0,phase_1,,,,,,,,,,,,,green,cross
123.0,2.0,2.0,0.0,4.0,4.0,301.0954329984088,2.0,1.0,phase_1,,,,,,,,,,,,,blue,hexagon
0.0,6.0,0.0,1.0,4.0,4.0,419.0762369998992,2.0,1.0,phase_1,,,,,,,,,,,,,magenta,triangle
26.0,5.0,1.0,1.0,3.0,3.0,378.7218289999146,2.0,1.0,phase_1,,,,,,,,,,,,,yellow,circle
214.0,7.0,3.0,1.0,1.0,1.0,369.8129120002704,2.0,1.0,phase_1,,,,,,,,,,,,,cyan,I
0.0,2.0,0.0,0.0,4.0,4.0,303.8407789990742,2.0,1.0,phase_1,,,,,,,,,,,,,blue,hexagon
30.0,5.0,1.0,1.0,4.0,4.0,326.6501609996339,2.0,1.0,phase_1,,,,,,,,,,,,,yellow,circle
83.0,2.0,2.0,0.0,1.0,1.0,320.2301140008785,2.0,1.0,phase_1,,,,,,,,,,,,,blue,hexagon
406.0,4.0,4.0,0.0,3.0,3.0,343.0789399990317,2.0,1.0,phase_1,,,,,,,,,,,,,orange,square
109.0,2.0,2.0,0.0,2.0,2.0,304.4171679994178,2.0,1.0,phase_1,,,,,,,,,,,,,blue,hexagon
45.0,1.0,1.0,0.0,3.0,3.0,371.063028998833,2.0,1.0,phase_1,,,,,,,,,,,,,green,cross
201.0,7.0,3.0,1.0,2.0,2.0,329.1699349992996,2.0,1.0,phase_1,,,,,,,,,,,,,cyan,I
0.0,5.0,0.0,1.0,3.0,3.0,339.8885749993496,2.0,1.0,phase_1,,,,,,,,,,,,,yellow,circle
212.0,3.0,3.0,0.0,3.0,3.0,385.6590260002122,2.0,1.0,phase_1,,,,,,,,,,,,,gray,diamond
42.0,5.0,1.0,1.0,4.0,4.0,308.4869049998815,2.0,1.0,phase_1,,,,,,,,,,,,,yellow,circle
413.0,8.0,4.0,1.0,4.0,4.0,320.0268489999871,2.0,1.0,phase_1,,,,,,,,,,,,,white,flipped triangle
185.0,3.0,3.0,0.0,3.0,3.0,351.7390390006767,2.0,1.0,phase_1,,,,,,,,,,,,,gray,diamond
196.0,7.0,3.0,1.0,2.0,2.0,327.1712030000344,2.0,1.0,phase_1,,,,,,,,,,,,,cyan,I
401.0,8.0,4.0,1.0,1.0,1.0,369.0314010000293,2.0,1.0,phase_1,,,,,,,,,,,,,white,flipped triangle
51.0,5.0,1.0,1.0,3.0,3.0,324.151371998596,2.0,1.0,phase_1,,,,,,,,,,,,,yellow,circle
215.0,7.0,3.0,1.0,1.0,1.0,281.6107510006986,2.0,1.0,phase_1,,,,,,,,,,,,,cyan,I
106.0,2.0,2.0,0.0,1.0,1.0,338.6555050001334,2.0,1.0,phase_1,,,,,,,,,,,,,blue,hexagon
107.0,6.0,2.0,1.0,3.0,3.0,331.0249020014453,2.0,1.0,phase_1,,,,,,,,,,,,,magenta,triangle
409.0,4.0,4.0,0.0,2.0,2.0,418.1948469995404,2.0,1.0,phase_1,,,,,,,,,,,,,orange,square
62.0,5.0,1.0,1.0,4.0,4.0,392.9716689999623,2.0,1.0,phase_1,,,,,,,,,,,,,yellow,circle
382.0,4.0,4.0,0.0,2.0,2.0,366.4651390008657,2.0,1.0,phase_1,,,,,,,,,,,,,orange,square
0.0,7.0,0.0,1.0,1.0,1.0,313.1806190012867,2.0,1.0,phase_1,,,,,,,,,,,,,cyan,I
118.0,2.0,2.0,0.0,3.0,3.0,390.8445540000684,2.0,1.0,phase_1,,,,,,,,,,,,,blue,hexagon
89.0,6.0,2.0,1.0,1.0,1.0,311.7639149986644,2.0,1.0,phase_1,,,,,,,,,,,,,magenta,triangle
62.0,1.0,1.0,0.0,2.0,2.0,322.3792369990406,2.0,1.0,phase_1,,,,,,,,,,,,,green,cross
115.0,2.0,2.0,0.0,2.0,2.0,359.1107079992071,2.0,1.0,phase_1,,,,,,,,,,,,,blue,hexagon
78.0,2.0,2.0,0.0,2.0,2.0,379.274222001186,2.0,1.0,phase_1,,,,,,,,,,,,,blue,hexagon
212.0,7.0,3.0,1.0,1.0,1.0,328.3438260004914,2.0,1.0,phase_1,,,,,,,,,,,,,cyan,I
83.0,6.0,2.0,1.0,4.0,4.0,319.0733649989852,2.0,1.0,phase_1,,,,,,,,,,,,,magenta,triangle
124.0,6.0,2.0,1.0,1.0,1.0,357.802962000278,2.0,1.0,phase_1,,,,,,,,,,,,,magenta,triangle
46.0,5.0,1.0,1.0,4.0,4.0,334.1817870004888,2.0,1.0,phase_1,,,,,,,,,,,,,yellow,circle
78.0,2.0,2.0,0.0,4.0,4.0,302.251339000577,2.0,1.0,phase_1,,,,,,,,,,,,,blue,hexagon
417.0,4.0,4.0,0.0,4.0,4.0,309.5976509994216,2.0,1.0,phase_1,,,,,,,,,,,,,orange,square
414.0,4.0,4.0,0.0,4.0,4.0,298.2269389995053,2.0,1.0,phase_1,,,,,,,,,,,,,orange,square
406.0,8.0,4.0,1.0,4.0,4.0,335.2768570002808,2.0,1.0,phase_1,,,,,,,,,,,,,white,flipped triangle
99.0,2.0,2.0,0.0,1.0,1.0,381.2063370005489,2.0,1.0,phase_1,,,,,,,,,,,,,blue,hexagon
37.0,5.0,1.0,1.0,2.0,2.0,377.8233169996383,2.0,1.0,phase_1,,,,,,,,,,,,,yellow,circle
424.0,8.0,4.0,1.0,1.0,1.0,290.1046520000818,2.0,1.0,phase_1,,,,,,,,,,,,,white,flipped triangle
394.0,8.0,4.0,1.0,1.0,1.0,335.7442929991521,2.0,2.0,phase_1,,,,,,,,,,,,,white,flipped triangle
177.0,3.0,3.0,0.0,2.0,2.0,421.2776420008595,2.0,1.0,phase_1,,,,,,,,,,,,,gray,diamond
198.0,3.0,3.0,0.0,1.0,1.0,306.2366990016016,2.0,1.0,phase_1,,,,,,,,,,,,,gray,diamond
202.0,3.0,3.0,0.0,3.0,3.0,350.5654029995639,2.0,1.0,phase_1,,,,,,,,,,,,,gray,diamond
403.0,8.0,4.0,1.0,1.0,1.0,317.3531760003243,2.0,1.0,phase_1,,,,,,,,,,,,,white,flipped triangle
0.0,1.0,0.0,0.0,4.0,4.0,323.8347339993197,2.0,1.0,phase_1,,,,,,,,,,,,,green,cross
200.0,7.0,3.0,1.0,1.0,1.0,301.1073730012867,2.0,1.0,phase_1,,,,,,,,,,,,,cyan,I
0.0,6.0,0.0,1.0,2.0,2.0,385.0880230002076,2.0,1.0,phase_1,,,,,,,,,,,,,magenta,triangle
185.0,3.0,3.0,0.0,4.0,4.0,333.2333889993606,2.0,1.0,phase_1,,,,,,,,,,,,,gray,diamond
178.0,3.0,3.0,0.0,1.0,1.0,301.1023489998479,2.0,1.0,phase_1,,,,,,,,,,,,,gray,diamond
395.0,4.0,4.0,0.0,2.0,2.0,351.0592740003631,2.0,1.0,phase_1,,,,,,,,,,,,,orange,square
0.0,5.0,0.0,1.0,1.0,1.0,276.7072030001145,2.0,1.0,phase_1,,,,,,,,,,,,,yellow,circle
106.0,6.0,2.0,1.0,1.0,1.0,319.5249960008368,2.0,1.0,phase_1,,,,,,,,,,,,,magenta,triangle
214.0,3.0,3.0,0.0,3.0,3.0,415.5179129993485,2.0,1.0,phase_1,,,,,,,,,,,,,gray,diamond
214.0,3.0,3.0,0.0,3.0,3.0,377.2853229984321,2.0,1.0,phase_1,,,,,,,,,,,,,gray,diamond
198.0,7.0,3.0,1.0,2.0,2.0,357.9495279991533,2.0,1.0,phase_1,,,,,,,,,,,,,cyan,I
187.0,3.0,3.0,0.0,4.0,4.0,340.0329730011435,2.0,1.0,phase_1,,,,,,,,,,,,,gray,diamond
73.0,5.0,1.0,1.0,1.0,1.0,350.2397669999482,2.0,1.0,phase_1,,,,,,,,,,,,,yellow,circle
101.0,2.0,2.0,0.0,3.0,3.0,429.3967470002826,2.0,1.0,phase_1,,,,,,,,,,,,,blue,hexagon
386.0,4.0,4.0,0.0,1.0,1.0,324.7154129985574,2.0,1.0,phase_1,,,,,,,,,,,,,orange,square
78.0,6.0,2.0,1.0,4.0,4.0,364.2171829997096,3.0,1.0,phase_1,,,,,,,,,,,,,magenta,triangle
210.0,7.0,3.0,1.0,4.0,4.0,336.7364559999259,3.0,1.0,phase_1,,,,,,,,,,,,,cyan,I
55.0,1.0,1.0,0.0,4.0,4.0,332.4475389999861,3.0,1.0,phase_1,,,,,,,,,,,,,green,cross
202.0,3.0,3.0,0.0,4.0,4.0,339.4429460004176,3.0,1.0,phase_1,,,,,,,,,,,,,gray,diamond
73.0,1.0,1.0,0.0,2.0,2.0,355.206079000709,3.0,1.0,phase_1,,,,,,,,,,,,,green,cross
0.0,8.0,0.0,1.0,1.0,1.0,349.4438260004244,3.0,1.0,phase_1,,,,,,,,,,,,,white,flipped triangle
211.0,7.0,3.0,1.0,4.0,4.0,283.4559750008338,3.0,1.0,phase_1,,,,,,,,,,,,,cyan,I
68.0,1.0,1.0,0.0,3.0,3.0,375.0431419994129,3.0,1.0,phase_1,,,,,,,,,,,,,green,cross
93.0,2.0,2.0,0.0,4.0,4.0,310.44274299893,3.0,1.0,phase_1,,,,,,,,,,,,,blue,hexagon
0.0,2.0,0.0,0.0,4.0,4.0,357.6635179997538,3.0,1.0,phase_1,,,,,,,,,,,,,blue,hexagon
0.0,7.0,0.0,1.0,3.0,3.0,451.3917920012318,3.0,1.0,phase_1,,,,,,,,,,,,,cyan,I
202.0,3.0,3.0,0.0,2.0,2.0,424.518548999913,3.0,1.0,phase_1,,,,,,,,,,,,,gray,diamond
39.0,1.0,1.0,0.0,3.0,3.0,527.2654340005829,3.0,1.0,phase_1,,,,,,,,,,,,,green,cross
409.0,8.0,4.0,1.0,2.0,2.0,495.4903859998012,3.0,1.0,phase_1,,,,,,,,,,,,,white,flipped triangle
403.0,8.0,4.0,1.0,3.0,3.0,426.6108580013679,3.0,1.0,phase_1,,,,,,,,,,,,,white,flipped triangle
0.0,5.0,0.0,1.0,2.0,2.0,358.5550699990563,3.0,1.0,phase_1,,,,,,,,,,,,,yellow,circle
118.0,6.0,2.0,1.0,4.0,4.0,345.8766889998514,3.0,1.0,phase_1,,,,,,,,,,,,,magenta,triangle
92.0,2.0,2.0,0.0,3.0,3.0,398.3018819999415,3.0,1.0,phase_1,,,,,,,,,,,,,blue,hexagon
0.0,1.0,0.0,0.0,2.0,2.0,389.1671199999109,3.0,1.0,phase_1,,,,,,,,,,,,,green,cross
377.0,8.0,4.0,1.0,4.0,4.0,341.6633999986516,3.0,1.0,phase_1,,,,,,,,,,,,,white,flipped triangle
42.0,1.0,1.0,0.0,1.0,1.0,305.7358199985174,3.0,1.0,phase_1,,,,,,,,,,,,,green,cross
200.0,7.0,3.0,1.0,1.0,1.0,411.4341050008079,3.0,1.0,phase_1,,,,,,,,,,,,,cyan,I
200.0,3.0,3.0,0.0,1.0,1.0,470.5436620006367,3.0,1.0,phase_1,,,,,,,,,,,,,gray,diamond
55.0,1.0,1.0,0.0,2.0,2.0,419.8632829993585,3.0,1.0,phase_1,,,,,,,,,,,,,green,cross
0.0,8.0,0.0,1.0,1.0,1.0,353.4409219992085,3.0,1.0,phase_1,,,,,,,,,,,,,white,flipped triangle
0.0,1.0,0.0,0.0,4.0,4.0,349.1309029996046,3.0,1.0,phase_1,,,,,,,,,,,,,green,cross
394.0,4.0,4.0,0.0,3.0,3.0,534.6229489987309,3.0,1.0,phase_1,,,,,,,,,,,,,orange,square
215.0,7.0,3.0,1.0,1.0,1.0,371.9280619989149,3.0,1.0,phase_1,,,,,,,,,,,,,cyan,I
38.0,1.0,1.0,0.0,2.0,2.0,418.8389800001459,3.0,1.0,phase_1,,,,,,,,,,,,,green,cross
407.0,8.0,4.0,1.0,3.0,3.0,383.106190000035,3.0,1.0,phase_1,,,,,,,,,,,,,white,flipped triangle
0.0,6.0,0.0,1.0,2.0,2.0,323.0137559985451,3.0,1.0,phase_1,,,,,,,,,,,,,magenta,triangle
96.0,6.0,2.0,1.0,2.0,2.0,336.8888799996057,3.0,1.0,phase_1,,,,,,,,,,,,,magenta,triangle
0.0,7.0,0.0,1.0,3.0,3.0,353.4920839992992,3.0,1.0,phase_1,,,,,,,,,,,,,cyan,I
122.0,2.0,2.0,0.0,4.0,4.0,362.1223139998619,3.0,1.0,phase_1,,,,,,,,,,,,,blue,hexagon
78.0,6.0,2.0,1.0,1.0,1.0,390.8056529999157,3.0,1.0,phase_1,,,,,,,,,,,,,magenta,triangle
0.0,1.0,0.0,0.0,2.0,2.0,348.8833709998289,3.0,1.0,phase_1,,,,,,,,,,,,,green,cross
183.0,3.0,3.0,0.0,2.0,2.0,325.859420998313,3.0,1.0,phase_1,,,,,,,,,,,,,gray,diamond
0.0,3.0,0.0,0.0,1.0,1.0,346.0578949998307,3.0,1.0,phase_1,,,,,,,,,,,,,gray,diamond
62.0,1.0,1.0,0.0,1.0,1.0,372.8459210014989,3.0,1.0,phase_1,,,,,,,,,,,,,green,cross
90.0,6.0,2.0,1.0,2.0,2.0,331.1023890000797,3.0,1.0,phase_1,,,,,,,,,,,,,magenta,triangle
0.0,1.0,0.0,0.0,1.0,1.0,293.3299779997469,3.0,1.0,phase_1,,,,,,,,,,,,,green,cross
376.0,4.0,4.0,0.0,2.0,2.0,346.4764919990557,3.0,1.0,phase_1,,,,,,,,,,,,,orange,square
195.0,3.0,3.0,0.0,4.0,4.0,347.9313529987848,3.0,1.0,phase_1,,,,,,,,,,,,,gray,diamond
33.0,1.0,1.0,0.0,1.0,1.0,320.4241889998229,3.0,1.0,phase_1,,,,,,,,,,,,,green,cross
215.0,7.0,3.0,1.0,3.0,3.0,393.0854230002296,3.0,1.0,phase_1,,,,,,,,,,,,,cyan,I
87.0,6.0,2.0,1.0,2.0,2.0,335.2983100012352,3.0,1.0,phase_1,,,,,,,,,,,,,magenta,triangle
0.0,7.0,0.0,1.0,1.0,1.0,399.8201710001012,3.0,1.0,phase_1,,,,,,,,,,,,,cyan,I
67.0,1.0,1.0,0.0,1.0,1.0,366.5505630015104,3.0,1.0,phase_1,,,,,,,,,,,,,green,cross
0.0,4.0,0.0,0.0,3.0,3.0,316.3217660003283,3.0,1.0,phase_1,,,,,,,,,,,,,orange,square
0.0,6.0,0.0,1.0,2.0,2.0,336.8468009994103,3.0,1.0,phase_1,,,,,,,,,,,,,magenta,triangle
61.0,1.0,1.0,0.0,2.0,2.0,382.2243329996126,3.0,1.0,phase_1,,,,,,,,,,,,,green,cross
0.0,1.0,0.0,0.0,1.0,1.0,358.5847119993559,3.0,1.0,phase_1,,,,,,,,,,,,,green,cross
50.0,1.0,1.0,0.0,4.0,4.0,463.3935159999964,3.0,1.0,phase_1,,,,,,,,,,,,,green,cross
0.0,6.0,0.0,1.0,4.0,4.0,373.1278820014267,3.0,1.0,phase_1,,,,,,,,,,,,,magenta,triangle
0.0,3.0,0.0,0.0,1.0,1.0,371.0123010005191,3.0,1.0,phase_1,,,,,,,,,,,,,gray,diamond
106.0,6.0,2.0,1.0,1.0,1.0,389.4727860006242,3.0,1.0,phase_1,,,,,,,,,,,,,magenta,triangle
424.0,4.0,4.0,0.0,1.0,1.0,387.033880000672,3.0,1.0,phase_1,,,,,,,,,,,,,orange,square
51.0,5.0,1.0,1.0,2.0,2.0,365.7883810010389,3.0,1.0,phase_1,,,,,,,,,,,,,yellow,circle
51.0,1.0,1.0,0.0,1.0,1.0,343.9730500012956,3.0,1.0,phase_1,,,,,,,,,,,,,green,cross
395.0,4.0,4.0,0.0,3.0,3.0,421.2628949990176,3.0,1.0,phase_1,,,,,,,,,,,,,orange,square
386.0,4.0,4.0,0.0,4.0,4.0,338.8258980012324,3.0,1.0,phase_1,,,,,,,,,,,,,orange,square
79.0,6.0,2.0,1.0,4.0,4.0,365.7207050000579,3.0,1.0,phase_1,,,,,,,,,,,,,magenta,triangle
395.0,8.0,4.0,1.0,3.0,3.0,429.6534529985365,3.0,1.0,phase_1,,,,,,,,,,,,,white,flipped triangle
0.0,3.0,0.0,0.0,3.0,3.0,357.455117000427,3.0,1.0,phase_1,,,,,,,,,,,,,gray,diamond
0.0,4.0,0.0,0.0,4.0,4.0,326.3391639993642,3.0,1.0,phase_1,,,,,,,,,,,,,orange,square
115.0,6.0,2.0,1.0,3.0,3.0,447.7447869994648,3.0,1.0,phase_1,,,,,,,,,,,,,magenta,triangle
87.0,6.0,2.0,1.0,2.0,2.0,326.8266729992319,3.0,1.0,phase_1,,,,,,,,,,,,,magenta,triangle
224.0,7.0,3.0,1.0,2.0,2.0,366.8019400010962,3.0,1.0,phase_1,,,,,,,,,,,,,cyan,I
0.0,5.0,0.0,1.0,4.0,4.0,331.2536850007745,3.0,1.0,phase_1,,,,,,,,,,,,,yellow,circle
69.0,1.0,1.0,0.0,3.0,3.0,307.7129900011641,3.0,1.0,phase_1,,,,,,,,,,,,,green,cross
69.0,5.0,1.0,1.0,2.0,2.0,330.9134099999937,3.0,1.0,phase_1,,,,,,,,,,,,,yellow,circle
381.0,8.0,4.0,1.0,3.0,3.0,488.5291610007698,3.0,1.0,phase_1,,,,,,,,,,,,,white,flipped triangle
0.0,2.0,0.0,0.0,1.0,1.0,396.6785669999808,3.0,1.0,phase_1,,,,,,,,,,,,,blue,hexagon
0.0,6.0,0.0,1.0,1.0,1.0,342.2997100005887,3.0,1.0,phase_1,,,,,,,,,,,,,magenta,triangle
0.0,2.0,0.0,0.0,4.0,4.0,342.3034219995315,3.0,1.0,phase_1,,,,,,,,,,,,,blue,hexagon
0.0,2.0,0.0,0.0,4.0,4.0,381.1871159996371,3.0,1.0,phase_1,,,,,,,,,,,,,blue,hexagon
96.0,2.0,2.0,0.0,3.0,3.0,430.3562289987894,3.0,1.0,phase_1,,,,,,,,,,,,,blue,hexagon
406.0,4.0,4.0,0.0,3.0,3.0,390.3179190001538,3.0,1.0,phase_1,,,,,,,,,,,,,orange,square
48.0,5.0,1.0,1.0,2.0,2.0,345.9656220002216,3.0,1.0,phase_1,,,,,,,,,,,,,yellow,circle
43.0,1.0,1.0,0.0,2.0,2.0,344.2816739989212,3.0,1.0,phase_1,,,,,,,,,,,,,green,cross
60.0,1.0,1.0,0.0,2.0,2.0,358.3107239992387,3.0,1.0,phase_1,,,,,,,,,,,,,green,cross
423.0,4.0,4.0,0.0,2.0,2.0,300.3848160005873,3.0,1.0,phase_1,,,,,,,,,,,,,orange,square
32.0,5.0,1.0,1.0,1.0,1.0,451.6047859997343,3.0,1.0,phase_1,,,,,,,,,,,,,yellow,circle
205.0,3.0,3.0,0.0,3.0,3.0,384.849858999587,3.0,1.0,phase_1,,,,,,,,,,,,,gray,diamond
90.0,2.0,2.0,0.0,4.0,4.0,396.041874999355,3.0,1.0,phase_1,,,,,,,,,,,,,blue,hexagon
0.0,5.0,0.0,1.0,4.0,4.0,356.511309999405,3.0,1.0,phase_1,,,,,,,,,,,,,yellow,circle
51.0,5.0,1.0,1.0,1.0,1.0,386.5037569994456,3.0,1.0,phase_1,,,,,,,,,,,,,yellow,circle
176.0,7.0,3.0,1.0,1.0,1.0,419.2168710014812,3.0,1.0,phase_1,,,,,,,,,,,,,cyan,I
215.0,3.0,3.0,0.0,1.0,1.0,318.3603659999789,3.0,1.0,phase_1,,,,,,,,,,,,,gray,diamond
413.0,4.0,4.0,0.0,3.0,3.0,314.5110910008952,3.0,1.0,phase_1,,,,,,,,,,,,,orange,square
0.0,8.0,0.0,1.0,2.0,2.0,354.827312999987,3.0,1.0,phase_1,,,,,,,,,,,,,white,flipped triangle
399.0,4.0,4.0,0.0,4.0,4.0,341.3598569986789,3.0,1.0,phase_1,,,,,,,,,,,,,orange,square
220.0,7.0,3.0,1.0,4.0,4.0,450.4605439997249,3.0,1.0,phase_1,,,,,,,,,,,,,cyan,I
0.0,5.0,0.0,1.0,2.0,2.0,360.033769000438,3.0,1.0,phase_1,,,,,,,,,,,,,yellow,circle
0.0,8.0,0.0,1.0,4.0,4.0,336.1622819993499,3.0,1.0,phase_1,,,,,,,,,,,,,white,flipped triangle
50.0,5.0,1.0,1.0,2.0,2.0,391.6878800009726,3.0,1.0,phase_1,,,,,,,,,,,,,yellow,circle
224.0,3.0,3.0,0.0,3.0,3.0,340.7887760004087,3.0,1.0,phase_1,,,,,,,,,,,,,gray,diamond
119.0,2.0,2.0,0.0,3.0,3.0,431.6106179994676,3.0,1.0,phase_1,,,,,,,,,,,,,blue,hexagon
388.0,4.0,4.0,0.0,1.0,1.0,392.6808839987643,3.0,1.0,phase_1,,,,,,,,,,,,,orange,square
376.0,8.0,4.0,1.0,1.0,1.0,450.854259001062,3.0,1.0,phase_1,,,,,,,,,,,,,white,flipped triangle
416.0,4.0,4.0,0.0,4.0,4.0,452.3616950009455,4.0,1.0,phase_1,,,,,,,,,,,,,orange,square
84.0,2.0,2.0,0.0,4.0,4.0,333.5368090010888,4.0,1.0,phase_1,,,,,,,,,,,,,blue,hexagon
416.0,8.0,4.0,1.0,2.0,2.0,340.6053870003234,4.0,1.0,phase_1,,,,,,,,,,,,,white,flipped triangle
421.0,8.0,4.0,1.0,1.0,1.0,340.8310790000541,4.0,1.0,phase_1,,,,,,,,,,,,,white,flipped triangle
55.0,5.0,1.0,1.0,2.0,2.0,364.93823300043,4.0,1.0,phase_1,,,,,,,,,,,,,yellow,circle
179.0,3.0,3.0,0.0,3.0,3.0,344.6243660000618,4.0,1.0,phase_1,,,,,,,,,,,,,gray,diamond
35.0,1.0,1.0,0.0,4.0,4.0,343.5035339989554,4.0,1.0,phase_1,,,,,,,,,,,,,green,cross
79.0,2.0,2.0,0.0,4.0,4.0,309.9921770008222,4.0,1.0,phase_1,,,,,,,,,,,,,blue,hexagon
0.0,1.0,0.0,0.0,2.0,2.0,454.7756179999851,4.0,1.0,phase_1,,,,,,,,,,,,,green,cross
119.0,6.0,2.0,1.0,3.0,3.0,336.2472799999523,4.0,1.0,phase_1,,,,,,,,,,,,,magenta,triangle
205.0,3.0,3.0,0.0,1.0,1.0,319.1290569993725,4.0,1.0,phase_1,,,,,,,,,,,,,gray,diamond
28.0,1.0,1.0,0.0,1.0,1.0,348.1009079987416,4.0,1.0,phase_1,,,,,,,,,,,,,green,cross
0.0,5.0,0.0,1.0,2.0,2.0,356.2280109999847,4.0,1.0,phase_1,,,,,,,,,,,,,yellow,circle
394.0,4.0,4.0,0.0,1.0,1.0,322.7628740005457,4.0,1.0,phase_1,,,,,,,,,,,,,orange,square
86.0,6.0,2.0,1.0,3.0,3.0,373.3225140003924,4.0,1.0,phase_1,,,,,,,,,,,,,magenta,triangle
83.0,2.0,2.0,0.0,1.0,1.0,297.5122440002451,4.0,1.0,phase_1,,,,,,,,,,,,,blue,hexagon
28.0,5.0,1.0,1.0,1.0,1.0,375.5461239998112,4.0,1.0,phase_1,,,,,,,,,,,,,yellow,circle
86.0,2.0,2.0,0.0,3.0,3.0,362.8300150012364,4.0,1.0,phase_1,,,,,,,,,,,,,blue,hexagon
407.0,4.0,4.0,0.0,4.0,4.0,388.1666570014204,4.0,1.0,phase_1,,,,,,,,,,,,,orange,square
215.0,3.0,3.0,0.0,2.0,2.0,351.9523060003848,4.0,1.0,phase_1,,,,,,,,,,,,,gray,diamond
56.0,1.0,1.0,0.0,3.0,3.0,343.9237120001053,4.0,1.0,phase_1,,,,,,,,,,,,,green,cross
421.0,4.0,4.0,0.0,3.0,3.0,372.2414320000098,4.0,1.0,phase_1,,,,,,,,,,,,,orange,square
209.0,7.0,3.0,1.0,3.0,3.0,358.9420260013867,4.0,1.0,phase_1,,,,,,,,,,,,,cyan,I
51.0,1.0,1.0,0.0,4.0,4.0,369.9326989990368,4.0,1.0,phase_1,,,,,,,,,,,,,green,cross
377.0,4.0,4.0,0.0,3.0,3.0,373.5545439994894,4.0,1.0,phase_1,,,,,,,,,,,,,orange,square
183.0,7.0,3.0,1.0,4.0,4.0,343.9000889993622,4.0,1.0,phase_1,,,,,,,,,,,,,cyan,I
0.0,4.0,0.0,0.0,4.0,4.0,367.0366610003839,4.0,1.0,phase_1,,,,,,,,,,,,,orange,square
38.0,5.0,1.0,1.0,3.0,3.0,409.3819179997808,4.0,1.0,phase_1,,,,,,,,,,,,,yellow,circle
381.0,4.0,4.0,0.0,1.0,1.0,406.6497109997726,4.0,1.0,phase_1,,,,,,,,,,,,,orange,square
45.0,5.0,1.0,1.0,3.0,3.0,342.9371610000089,4.0,1.0,phase_1,,,,,,,,,,,,,yellow,circle
0.0,2.0,0.0,0.0,1.0,1.0,410.50512599940697,4.0,1.0,phase_1,,,,,,,,,,,,,blue,hexagon
122.0,6.0,2.0,1.0,2.0,2.0,423.9689650003129,4.0,1.0,phase_1,,,,,,,,,,,,,magenta,triangle
112.0,2.0,2.0,0.0,3.0,3.0,381.5748470005928,4.0,1.0,phase_1,,,,,,,,,,,,,blue,hexagon
409.0,4.0,4.0,0.0,1.0,1.0,433.4929460001149,4.0,1.0,phase_1,,,,,,,,,,,,,orange,square
0.0,6.0,0.0,1.0,4.0,4.0,355.3173219988821,4.0,1.0,phase_1,,,,,,,,,,,,,magenta,triangle
0.0,3.0,0.0,0.0,2.0,2.0,340.0647319995187,4.0,1.0,phase_1,,,,,,,,,,,,,gray,diamond
215.0,3.0,3.0,0.0,2.0,2.0,356.6508029998658,4.0,1.0,phase_1,,,,,,,,,,,,,gray,diamond
185.0,7.0,3.0,1.0,3.0,3.0,406.5279099995678,4.0,1.0,phase_1,,,,,,,,,,,,,cyan,I
0.0,3.0,0.0,0.0,2.0,2.0,358.3331610007008,4.0,1.0,phase_1,,,,,,,,,,,,,gray,diamond
390.0,4.0,4.0,0.0,1.0,1.0,391.1980699995183,4.0,1.0,phase_1,,,,,,,,,,,,,orange,square
112.0,6.0,2.0,1.0,1.0,1.0,326.7485810010839,4.0,1.0,phase_1,,,,,,,,,,,,,magenta,triangle
388.0,8.0,4.0,1.0,2.0,2.0,372.9729320002661,4.0,1.0,phase_1,,,,,,,,,,,,,white,flipped triangle
93.0,2.0,2.0,0.0,3.0,3.0,489.5647670000471,4.0,1.0,phase_1,,,,,,,,,,,,,blue,hexagon
99.0,2.0,2.0,0.0,4.0,4.0,401.2766389987519,4.0,1.0,phase_1,,,,,,,,,,,,,blue,hexagon
224.0,3.0,3.0,0.0,1.0,1.0,359.5739880001929,4.0,1.0,phase_1,,,,,,,,,,,,,gray,diamond
101.0,6.0,2.0,1.0,4.0,4.0,366.0776639990217,4.0,1.0,phase_1,,,,,,,,,,,,,magenta,triangle
0.0,2.0,0.0,0.0,1.0,1.0,320.6527330003155,4.0,1.0,phase_1,,,,,,,,,,,,,blue,hexagon
0.0,5.0,0.0,1.0,1.0,1.0,448.2426760005182,4.0,1.0,phase_1,,,,,,,,,,,,,yellow,circle
193.0,3.0,3.0,0.0,1.0,1.0,394.2725679989962,4.0,1.0,phase_1,,,,,,,,,,,,,gray,diamond
78.0,6.0,2.0,1.0,1.0,1.0,338.6474279996037,4.0,1.0,phase_1,,,,,,,,,,,,,magenta,triangle
67.0,5.0,1.0,1.0,4.0,4.0,305.1113299989083,4.0,1.0,phase_1,,,,,,,,,,,,,yellow,circle
205.0,7.0,3.0,1.0,3.0,3.0,376.3418609996733,4.0,1.0,phase_1,,,,,,,,,,,,,cyan,I
202.0,7.0,3.0,1.0,1.0,1.0,294.9921009985701,4.0,1.0,phase_1,,,,,,,,,,,,,cyan,I
62.0,1.0,1.0,0.0,3.0,3.0,362.6957070009666,4.0,1.0,phase_1,,,,,,,,,,,,,green,cross
0.0,2.0,0.0,0.0,4.0,4.0,313.8550000003306,4.0,1.0,phase_1,,,,,,,,,,,,,blue,hexagon
87.0,2.0,2.0,0.0,1.0,1.0,294.2666050003026,4.0,1.0,phase_1,,,,,,,,,,,,,blue,hexagon
0.0,7.0,0.0,1.0,4.0,4.0,326.4412240005185,4.0,1.0,phase_1,,,,,,,,,,,,,cyan,I
205.0,7.0,3.0,1.0,3.0,3.0,417.4536880000232,4.0,1.0,phase_1,,,,,,,,,,,,,cyan,I
116.0,6.0,2.0,1.0,3.0,3.0,387.7495840006304,4.0,1.0,phase_1,,,,,,,,,,,,,magenta,triangle
0.0,5.0,0.0,1.0,3.0,3.0,362.9522219998762,4.0,1.0,phase_1,,,,,,,,,,,,,yellow,circle
0.0,1.0,0.0,0.0,1.0,1.0,365.1919409985567,4.0,1.0,phase_1,,,,,,,,,,,,,green,cross
38.0,1.0,1.0,0.0,2.0,2.0,449.1074799989292,4.0,1.0,phase_1,,,,,,,,,,,,,green,cross
27.0,5.0,1.0,1.0,2.0,2.0,327.18004399976047,4.0,1.0,phase_1,,,,,,,,,,,,,yellow,circle
180.0,7.0,3.0,1.0,4.0,4.0,347.0929930008424,4.0,1.0,phase_1,,,,,,,,,,,,,cyan,I
200.0,3.0,3.0,0.0,4.0,4.0,358.1470059998537,4.0,1.0,phase_1,,,,,,,,,,,,,gray,diamond
401.0,4.0,4.0,0.0,2.0,2.0,406.8317000001116,4.0,1.0,phase_1,,,,,,,,,,,,,orange,square
48.0,5.0,1.0,1.0,3.0,3.0,435.9476490008092,4.0,1.0,phase_1,,,,,,,,,,,,,yellow,circle
108.0,2.0,2.0,0.0,1.0,1.0,301.8873559994972,4.0,1.0,phase_1,,,,,,,,,,,,,blue,hexagon
406.0,8.0,4.0,1.0,2.0,2.0,329.981818998931,4.0,1.0,phase_1,,,,,,,,,,,,,white,flipped triangle
0.0,4.0,0.0,0.0,3.0,3.0,363.0762669999967,4.0,1.0,phase_1,,,,,,,,,,,,,orange,square
54.0,5.0,1.0,1.0,3.0,3.0,387.536727999759,4.0,1.0,phase_1,,,,,,,,,,,,,yellow,circle
38.0,5.0,1.0,1.0,1.0,1.0,358.2253829990804,4.0,1.0,phase_1,,,,,,,,,,,,,yellow,circle
43.0,5.0,1.0,1.0,2.0,2.0,319.900405998851,4.0,1.0,phase_1,,,,,,,,,,,,,yellow,circle
414.0,4.0,4.0,0.0,1.0,1.0,355.8601999993698,4.0,1.0,phase_1,,,,,,,,,,,,,orange,square
42.0,5.0,1.0,1.0,4.0,4.0,351.9561949997296,4.0,1.0,phase_1,,,,,,,,,,,,,yellow,circle
220.0,3.0,3.0,0.0,1.0,1.0,299.8778190012672,4.0,1.0,phase_1,,,,,,,,,,,,,gray,diamond
55.0,5.0,1.0,1.0,4.0,4.0,319.9179910006933,4.0,1.0,phase_1,,,,,,,,,,,,,yellow,circle
35.0,5.0,1.0,1.0,2.0,2.0,310.1873420000629,4.0,1.0,phase_1,,,,,,,,,,,,,yellow,circle
48.0,1.0,1.0,0.0,3.0,3.0,324.7075920007773,4.0,1.0,phase_1,,,,,,,,,,,,,green,cross
194.0,7.0,3.0,1.0,4.0,4.0,329.4323649988655,4.0,1.0,phase_1,,,,,,,,,,,,,cyan,I
399.0,8.0,4.0,1.0,1.0,1.0,394.6238900007301,4.0,1.0,phase_1,,,,,,,,,,,,,white,flipped triangle
404.0,4.0,4.0,0.0,3.0,3.0,320.3410520000034,4.0,1.0,phase_1,,,,,,,,,,,,,orange,square
0.0,4.0,0.0,0.0,1.0,1.0,351.1996319994068,4.0,1.0,phase_1,,,,,,,,,,,,,orange,square
0.0,4.0,0.0,0.0,1.0,1.0,333.1506270005775,4.0,1.0,phase_1,,,,,,,,,,,,,orange,square
195.0,7.0,3.0,1.0,4.0,4.0,349.6922159993119,4.0,1.0,phase_1,,,,,,,,,,,,,cyan,I
417.0,8.0,4.0,1.0,2.0,2.0,419.8809119989164,4.0,1.0,phase_1,,,,,,,,,,,,,white,flipped triangle
220.0,3.0,3.0,0.0,2.0,2.0,650.3686830001243,4.0,1.0,phase_1,,,,,,,,,,,,,gray,diamond
107.0,2.0,2.0,0.0,4.0,4.0,513.061731999187,4.0,1.0,phase_1,,,,,,,,,,,,,blue,hexagon
0.0,8.0,0.0,1.0,2.0,2.0,366.179598000599,4.0,1.0,phase_1,,,,,,,,,,,,,white,flipped triangle
60.0,5.0,1.0,1.0,1.0,1.0,307.4256019990571,4.0,1.0,phase_1,,,,,,,,,,,,,yellow,circle
220.0,7.0,3.0,1.0,3.0,3.0,355.0893909996375,4.0,1.0,phase_1,,,,,,,,,,,,,cyan,I
183.0,3.0,3.0,0.0,4.0,4.0,375.3322789998492,4.0,1.0,phase_1,,,,,,,,,,,,,gray,diamond
209.0,3.0,3.0,0.0,4.0,4.0,354.6360709988221,4.0,1.0,phase_1,,,,,,,,,,,,,gray,diamond
198.0,3.0,3.0,0.0,2.0,2.0,359.3573510006536,4.0,1.0,phase_1,,,,,,,,,,,,,gray,diamond
395.0,8.0,4.0,1.0,3.0,3.0,452.9010019996349,4.0,1.0,phase_1,,,,,,,,,,,,,white,flipped triangle
87.0,6.0,2.0,1.0,4.0,4.0,436.5558599984069,4.0,1.0,phase_1,,,,,,,,,,,,,magenta,triangle
0.0,4.0,0.0,0.0,4.0,4.0,468.6622459994396,4.0,1.0,phase_1,,,,,,,,,,,,,orange,square
388.0,4.0,4.0,0.0,2.0,2.0,398.7575360006303,4.0,1.0,phase_1,,,,,,,,,,,,,orange,square
61.0,5.0,1.0,1.0,3.0,3.0,352.8337299994746,4.0,1.0,phase_1,,,,,,,,,,,,,yellow,circle
223.0,3.0,3.0,0.0,4.0,4.0,466.6401380000025,4.0,1.0,phase_1,,,,,,,,,,,,,gray,diamond
0.0,6.0,2.0,1.0,6.0,6.0,469.1214350004884,1.0,1.0,phase_2,stop,250.0,250.0,3.0,,,,,,,,,magenta,triangle
0.0,7.0,3.0,1.0,5.0,0.0,0.0,1.0,1.0,phase_2,stop,250.0,200.0,4.0,,,,,,,,,cyan,I
0.0,5.0,1.0,1.0,6.0,0.0,0.0,1.0,1.0,phase_2,stop,300.0,200.0,4.0,,,,,,,,,yellow,circle
0.0,3.0,3.0,0.0,6.0,6.0,597.5293480005348,1.0,1.0,phase_2,go,300.0,250.0,1.0,,,,,,,,,gray,diamond
0.0,2.0,2.0,0.0,5.0,5.0,645.541976999084,1.0,1.0,phase_2,go,300.0,250.0,1.0,,,,,,,,,blue,hexagon
0.0,1.0,1.0,0.0,5.0,5.0,641.1476590001257,1.0,1.0,phase_2,go,300.0,250.0,1.0,,,,,,,,,green,cross
0.0,3.0,3.0,0.0,6.0,6.0,496.3260479999007,1.0,1.0,phase_2,go,300.0,250.0,1.0,,,,,,,,,gray,diamond
0.0,5.0,1.0,1.0,5.0,0.0,0.0,1.0,1.0,phase_2,stop,300.0,250.0,4.0,,,,,,,,,yellow,circle
0.0,1.0,1.0,0.0,6.0,6.0,693.5405979984353,1.0,1.0,phase_2,go,350.0,250.0,1.0,,,,,,,,,green,cross
0.0,4.0,4.0,0.0,6.0,6.0,798.0393260004348,1.0,1.0,phase_2,go,350.0,250.0,1.0,,,,,,,,,orange,square
0.0,2.0,2.0,0.0,5.0,5.0,672.6915249982994,1.0,1.0,phase_2,go,350.0,250.0,1.0,,,,,,,,,blue,hexagon
0.0,7.0,3.0,1.0,6.0,0.0,0.0,1.0,1.0,phase_2,stop,350.0,250.0,4.0,,,,,,,,,cyan,I
0.0,1.0,1.0,0.0,5.0,5.0,574.5040719993995,1.0,1.0,phase_2,go,350.0,300.0,1.0,,,,,,,,,green,cross
0.0,2.0,2.0,0.0,6.0,6.0,426.9733500004804,1.0,1.0,phase_2,go,350.0,300.0,1.0,,,,,,,,,blue,hexagon
0.0,5.0,1.0,1.0,5.0,5.0,407.3086500011413,1.0,1.0,phase_2,stop,350.0,300.0,3.0,,,,,,,,,yellow,circle
0.0,3.0,3.0,0.0,5.0,5.0,449.8328190002212,1.0,1.0,phase_2,go,300.0,300.0,1.0,,,,,,,,,gray,diamond
0.0,2.0,2.0,0.0,6.0,6.0,550.5598439995083,1.0,1.0,phase_2,go,300.0,300.0,1.0,,,,,,,,,blue,hexagon
0.0,6.0,2.0,1.0,5.0,0.0,0.0,1.0,1.0,phase_2,stop,300.0,300.0,4.0,,,,,,,,,magenta,triangle
0.0,2.0,2.0,0.0,5.0,5.0,513.3667819991388,1.0,1.0,phase_2,go,350.0,300.0,1.0,,,,,,,,,blue,hexagon
0.0,7.0,3.0,1.0,6.0,6.0,783.9883750002627,1.0,1.0,phase_2,go,350.0,300.0,1.0,,,,,,,,,cyan,I
0.0,8.0,4.0,1.0,6.0,0.0,0.0,1.0,1.0,phase_2,stop,350.0,300.0,4.0,,,,,,,,,white,flipped triangle
0.0,6.0,2.0,1.0,6.0,6.0,462.5033370011806,1.0,1.0,phase_2,stop,350.0,350.0,3.0,,,,,,,,,magenta,triangle
0.0,3.0,3.0,0.0,5.0,5.0,431.5789749998657,1.0,1.0,phase_2,go,350.0,300.0,1.0,,,,,,,,,gray,diamond
0.0,6.0,2.0,1.0,5.0,0.0,0.0,1.0,1.0,phase_2,stop,350.0,300.0,4.0,,,,,,,,,magenta,triangle
0.0,4.0,4.0,0.0,6.0,6.0,475.3569709992007,1.0,1.0,phase_2,go,400.0,300.0,1.0,,,,,,,,,orange,square
0.0,3.0,3.0,0.0,6.0,6.0,651.5323910007282,1.0,1.0,phase_2,go,400.0,300.0,1.0,,,,,,,,,gray,diamond
0.0,5.0,1.0,1.0,5.0,5.0,438.961409001422,1.0,1.0,phase_2,stop,400.0,300.0,3.0,,,,,,,,,yellow,circle
0.0,2.0,2.0,0.0,5.0,5.0,392.0180059994891,1.0,1.0,phase_2,go,350.0,300.0,1.0,,,,,,,,,blue,hexagon
0.0,8.0,4.0,1.0,6.0,6.0,421.6866139995545,1.0,1.0,phase_2,go,350.0,300.0,1.0,,,,,,,,,white,flipped triangle
0.0,4.0,4.0,0.0,5.0,5.0,472.2288730008586,1.0,1.0,phase_2,go,350.0,300.0,1.0,,,,,,,,,orange,square
0.0,7.0,3.0,1.0,6.0,6.0,386.0653530009585,1.0,1.0,phase_2,stop,350.0,300.0,3.0,,,,,,,,,cyan,I
0.0,3.0,3.0,0.0,6.0,6.0,490.7714130004024,1.0,1.0,phase_2,go,350.0,250.0,1.0,,,,,,,,,gray,diamond
0.0,6.0,2.0,1.0,6.0,6.0,669.8849809999956,1.0,1.0,phase_2,go,350.0,250.0,1.0,,,,,,,,,magenta,triangle
0.0,4.0,4.0,0.0,6.0,6.0,578.2942060013738,1.0,1.0,phase_2,go,350.0,250.0,1.0,,,,,,,,,orange,square
0.0,8.0,4.0,1.0,6.0,0.0,0.0,1.0,1.0,phase_2,stop,350.0,250.0,4.0,,,,,,,,,white,flipped triangle
0.0,2.0,2.0,0.0,6.0,6.0,531.1469819989725,1.0,1.0,phase_2,go,350.0,300.0,1.0,,,,,,,,,blue,hexagon
0.0,8.0,4.0,1.0,5.0,0.0,0.0,2.0,1.0,phase_2,stop,350.0,300.0,4.0,,,,,,,,,white,flipped triangle
0.0,8.0,4.0,1.0,5.0,0.0,0.0,2.0,1.0,phase_2,stop,400.0,300.0,4.0,,,,,,,,,white,flipped triangle
0.0,7.0,3.0,1.0,6.0,0.0,0.0,2.0,1.0,phase_2,go,450.0,300.0,5.0,,,,,,,,,cyan,I
0.0,2.0,2.0,0.0,6.0,6.0,595.2283879996685,2.0,1.0,phase_2,go,450.0,300.0,1.0,,,,,,,,,blue,hexagon
0.0,5.0,1.0,1.0,5.0,5.0,627.3925380010041,2.0,1.0,phase_2,stop,450.0,300.0,3.0,,,,,,,,,yellow,circle
0.0,3.0,3.0,0.0,5.0,5.0,583.6184729996603,2.0,1.0,phase_2,go,400.0,300.0,1.0,,,,,,,,,gray,diamond
0.0,6.0,2.0,1.0,6.0,0.0,0.0,2.0,1.0,phase_2,stop,400.0,300.0,4.0,,,,,,,,,magenta,triangle
0.0,2.0,2.0,0.0,6.0,6.0,526.4377149997017,2.0,1.0,phase_2,go,400.0,350.0,1.0,,,,,,,,,blue,hexagon
0.0,8.0,4.0,1.0,6.0,0.0,0.0,2.0,1.0,phase_2,stop,400.0,350.0,4.0,,,,,,,,,white,flipped triangle
0.0,5.0,1.0,1.0,5.0,0.0,0.0,2.0,1.0,phase_2,stop,400.0,400.0,4.0,,,,,,,,,yellow,circle
0.0,6.0,2.0,1.0,6.0,6.0,615.1682199997595,2.0,1.0,phase_2,go,450.0,400.0,1.0,,,,,,,,,magenta,triangle
0.0,4.0,4.0,0.0,6.0,6.0,449.1994279997016,2.0,1.0,phase_2,go,450.0,400.0,1.0,,,,,,,,,orange,square
0.0,8.0,4.0,1.0,5.0,5.0,384.9598299984791,2.0,1.0,phase_2,stop,450.0,400.0,3.0,,,,,,,,,white,flipped triangle
0.0,1.0,1.0,0.0,6.0,6.0,622.6781790010136,2.0,1.0,phase_2,go,400.0,400.0,1.0,,,,,,,,,green,cross
0.0,5.0,1.0,1.0,6.0,6.0,556.936458000564,2.0,1.0,phase_2,stop,400.0,400.0,3.0,,,,,,,,,yellow,circle
0.0,3.0,3.0,0.0,5.0,5.0,621.1552499989921,2.0,1.0,phase_2,go,400.0,350.0,1.0,,,,,,,,,gray,diamond
0.0,7.0,3.0,1.0,5.0,0.0,0.0,2.0,1.0,phase_2,stop,400.0,350.0,4.0,,,,,,,,,cyan,I
0.0,3.0,3.0,0.0,5.0,5.0,481.8994180004665,2.0,1.0,phase_2,go,450.0,350.0,1.0,,,,,,,,,gray,diamond
0.0,2.0,2.0,0.0,6.0,6.0,578.4374040013063,2.0,1.0,phase_2,go,450.0,350.0,1.0,,,,,,,,,blue,hexagon
0.0,8.0,4.0,1.0,5.0,5.0,630.7473719989503,2.0,1.0,phase_2,stop,450.0,350.0,3.0,,,,,,,,,white,flipped triangle
0.0,5.0,1.0,1.0,6.0,0.0,0.0,2.0,1.0,phase_2,stop,400.0,350.0,4.0,,,,,,,,,yellow,circle
0.0,2.0,2.0,0.0,6.0,6.0,692.1900419984013,2.0,1.0,phase_2,go,400.0,400.0,1.0,,,,,,,,,blue,hexagon
0.0,7.0,3.0,1.0,5.0,5.0,730.820525001036,2.0,1.0,phase_2,go,400.0,400.0,1.0,,,,,,,,,cyan,I
0.0,6.0,2.0,1.0,5.0,0.0,0.0,2.0,1.0,phase_2,stop,400.0,400.0,4.0,,,,,,,,,magenta,triangle
0.0,3.0,3.0,0.0,6.0,6.0,718.4547810011281,2.0,1.0,phase_2,go,450.0,400.0,1.0,,,,,,,,,gray,diamond
0.0,3.0,3.0,0.0,6.0,6.0,746.8259270008275,2.0,1.0,phase_2,go,450.0,400.0,1.0,,,,,,,,,gray,diamond
0.0,5.0,1.0,1.0,6.0,0.0,0.0,2.0,1.0,phase_2,stop,450.0,400.0,4.0,,,,,,,,,yellow,circle
0.0,6.0,2.0,1.0,5.0,0.0,0.0,2.0,1.0,phase_2,stop,450.0,450.0,4.0,,,,,,,,,magenta,triangle
0.0,3.0,3.0,0.0,5.0,5.0,539.2780510010198,2.0,1.0,phase_2,go,500.0,450.0,1.0,,,,,,,,,gray,diamond
0.0,8.0,4.0,1.0,5.0,0.0,0.0,2.0,1.0,phase_2,stop,500.0,450.0,4.0,,,,,,,,,white,flipped triangle
0.0,5.0,1.0,1.0,5.0,5.0,701.0861459984881,2.0,1.0,phase_2,go,550.0,450.0,1.0,,,,,,,,,yellow,circle
0.0,3.0,3.0,0.0,6.0,6.0,775.82215899929,2.0,1.0,phase_2,go,550.0,450.0,1.0,,,,,,,,,gray,diamond
0.0,1.0,1.0,0.0,5.0,5.0,717.411148998508,2.0,1.0,phase_2,go,550.0,450.0,1.0,,,,,,,,,green,cross
0.0,3.0,3.0,0.0,5.0,5.0,735.8723180004745,2.0,1.0,phase_2,go,550.0,450.0,1.0,,,,,,,,,gray,diamond
0.0,7.0,3.0,1.0,5.0,0.0,0.0,2.0,1.0,phase_2,stop,550.0,450.0,4.0,,,,,,,,,cyan,I
0.0,1.0,1.0,0.0,6.0,6.0,621.1704189990996,2.0,1.0,phase_2,go,600.0,450.0,1.0,,,,,,,,,green,cross
0.0,1.0,1.0,0.0,6.0,6.0,667.0236900008604,3.0,1.0,phase_2,go,600.0,450.0,1.0,,,,,,,,,green,cross
0.0,3.0,3.0,0.0,6.0,6.0,470.3211500000179,3.0,1.0,phase_2,go,600.0,450.0,1.0,,,,,,,,,gray,diamond
0.0,2.0,2.0,0.0,5.0,5.0,590.8137320002425,3.0,1.0,phase_2,go,600.0,450.0,1.0,,,,,,,,,blue,hexagon
0.0,3.0,3.0,0.0,5.0,5.0,515.5665160000353,3.0,1.0,phase_2,go,600.0,450.0,1.0,,,,,,,,,gray,diamond
0.0,5.0,1.0,1.0,5.0,5.0,684.276719999616,3.0,1.0,phase_2,go,600.0,450.0,1.0,,,,,,,,,yellow,circle
0.0,8.0,4.0,1.0,5.0,5.0,639.7939199996472,3.0,1.0,phase_2,stop,600.0,450.0,3.0,,,,,,,,,white,flipped triangle
0.0,7.0,3.0,1.0,5.0,5.0,655.4120109994983,3.0,1.0,phase_2,go,550.0,450.0,1.0,,,,,,,,,cyan,I
0.0,4.0,4.0,0.0,5.0,5.0,589.5065259992407,3.0,1.0,phase_2,go,550.0,450.0,1.0,,,,,,,,,orange,square
0.0,3.0,3.0,0.0,5.0,5.0,977.2934269985852,3.0,1.0,phase_2,go,550.0,450.0,1.0,,,,,,,,,gray,diamond
0.0,1.0,1.0,0.0,5.0,5.0,879.4632839999394,3.0,1.0,phase_2,go,550.0,450.0,1.0,,,,,,,,,green,cross
0.0,5.0,1.0,1.0,5.0,5.0,1020.8165560015914,3.0,1.0,phase_2,go,550.0,450.0,1.0,,,,,,,,,yellow,circle
0.0,3.0,3.0,0.0,6.0,6.0,707.4688840002636,3.0,1.0,phase_2,go,550.0,450.0,1.0,,,,,,,,,gray,diamond
0.0,1.0,1.0,0.0,5.0,5.0,660.6120679989544,3.0,1.0,phase_2,go,550.0,450.0,1.0,,,,,,,,,green,cross
0.0,7.0,3.0,1.0,6.0,6.0,615.0814209995588,3.0,1.0,phase_2,go,550.0,450.0,1.0,,,,,,,,,cyan,I
0.0,6.0,2.0,1.0,5.0,5.0,544.4548769992252,3.0,1.0,phase_2,go,550.0,450.0,1.0,,,,,,,,,magenta,triangle
0.0,6.0,2.0,1.0,5.0,0.0,0.0,3.0,1.0,phase_2,stop,550.0,450.0,4.0,,,,,,,,,magenta,triangle
0.0,1.0,1.0,0.0,6.0,6.0,605.6157780003559,3.0,1.0,phase_2,go,600.0,450.0,1.0,,,,,,,,,green,cross
0.0,8.0,4.0,1.0,5.0,5.0,747.0990260007966,3.0,1.0,phase_2,stop,600.0,450.0,3.0,,,,,,,,,white,flipped triangle
0.0,4.0,4.0,0.0,6.0,6.0,704.239097000027,3.0,1.0,phase_2,go,550.0,450.0,1.0,,,,,,,,,orange,square
0.0,4.0,4.0,0.0,6.0,6.0,1135.925786998996,3.0,1.0,phase_2,go,550.0,450.0,1.0,,,,,,,,,orange,square
0.0,2.0,2.0,0.0,6.0,6.0,732.6849420005601,3.0,1.0,phase_2,go,550.0,450.0,1.0,,,,,,,,,blue,hexagon
0.0,4.0,4.0,0.0,5.0,5.0,712.5285780002741,3.0,1.0,phase_2,go,550.0,450.0,1.0,,,,,,,,,orange,square
0.0,7.0,3.0,1.0,6.0,0.0,0.0,3.0,1.0,phase_2,stop,550.0,450.0,4.0,,,,,,,,,cyan,I
0.0,7.0,3.0,1.0,5.0,5.0,685.9362280010828,3.0,1.0,phase_2,stop,550.0,500.0,3.0,,,,,,,,,cyan,I
0.0,3.0,3.0,0.0,6.0,6.0,393.2369939993805,3.0,1.0,phase_2,go,500.0,500.0,1.0,,,,,,,,,gray,diamond
0.0,1.0,1.0,0.0,6.0,6.0,818.0504199990537,3.0,1.0,phase_2,go,500.0,500.0,1.0,,,,,,,,,green,cross
0.0,5.0,1.0,1.0,5.0,0.0,0.0,3.0,1.0,phase_2,stop,500.0,500.0,4.0,,,,,,,,,yellow,circle
0.0,3.0,3.0,0.0,5.0,5.0,763.297187999342,3.0,1.0,phase_2,go,550.0,500.0,1.0,,,,,,,,,gray,diamond
0.0,4.0,4.0,0.0,5.0,5.0,718.0952290000278,3.0,1.0,phase_2,go,550.0,500.0,1.0,,,,,,,,,orange,square
0.0,2.0,2.0,0.0,5.0,5.0,925.0917620011024,3.0,1.0,phase_2,go,550.0,500.0,1.0,,,,,,,,,blue,hexagon
0.0,2.0,2.0,0.0,5.0,5.0,841.0215519998019,3.0,1.0,phase_2,go,550.0,500.0,1.0,,,,,,,,,blue,hexagon
0.0,5.0,1.0,1.0,6.0,0.0,0.0,3.0,1.0,phase_2,stop,550.0,500.0,4.0,,,,,,,,,yellow,circle
0.0,1.0,1.0,0.0,6.0,6.0,683.6240999982692,3.0,1.0,phase_2,go,550.0,550.0,1.0,,,,,,,,,green,cross
0.0,4.0,4.0,0.0,5.0,5.0,903.2091799999762,3.0,1.0,phase_2,go,550.0,550.0,1.0,,,,,,,,,orange,square
0.0,5.0,1.0,1.0,6.0,6.0,499.1083730001264,3.0,1.0,phase_2,stop,550.0,550.0,3.0,,,,,,,,,yellow,circle
0.0,6.0,2.0,1.0,5.0,5.0,984.9629799991816,3.0,1.0,phase_2,stop,550.0,500.0,3.0,,,,,,,,,magenta,triangle
0.0,4.0,4.0,0.0,5.0,5.0,428.7364369993156,4.0,1.0,phase_2,go,500.0,500.0,1.0,,,,,,,,,orange,square
0.0,7.0,3.0,1.0,5.0,5.0,495.1884429992788,4.0,1.0,phase_2,stop,500.0,500.0,3.0,,,,,,,,,cyan,I
0.0,5.0,1.0,1.0,5.0,5.0,391.1633030002122,4.0,1.0,phase_2,stop,450.0,500.0,3.0,,,,,,,,,yellow,circle
0.0,6.0,2.0,1.0,6.0,6.0,464.6442499997647,4.0,1.0,phase_2,go,400.0,500.0,1.0,,,,,,,,,magenta,triangle
0.0,3.0,3.0,0.0,5.0,5.0,606.1723999991955,4.0,1.0,phase_2,go,400.0,500.0,1.0,,,,,,,,,gray,diamond
0.0,8.0,4.0,1.0,6.0,6.0,680.5915400000231,4.0,1.0,phase_2,go,400.0,500.0,1.0,,,,,,,,,white,flipped triangle
0.0,6.0,2.0,1.0,5.0,0.0,0.0,4.0,1.0,phase_2,stop,400.0,500.0,4.0,,,,,,,,,magenta,triangle
0.0,8.0,4.0,1.0,6.0,6.0,596.9055460009258,4.0,1.0,phase_2,stop,450.0,500.0,3.0,,,,,,,,,white,flipped triangle
0.0,4.0,4.0,0.0,5.0,5.0,700.8791459993517,4.0,1.0,phase_2,go,450.0,450.0,1.0,,,,,,,,,orange,square
0.0,6.0,2.0,1.0,6.0,6.0,482.5895539997873,4.0,1.0,phase_2,stop,450.0,450.0,3.0,,,,,,,,,magenta,triangle
0.0,4.0,4.0,0.0,6.0,6.0,446.2460869999631,4.0,1.0,phase_2,go,450.0,400.0,1.0,,,,,,,,,orange,square
0.0,7.0,3.0,1.0,6.0,0.0,0.0,4.0,1.0,phase_2,stop,450.0,400.0,4.0,,,,,,,,,cyan,I
0.0,5.0,1.0,1.0,5.0,5.0,592.2263770007703,4.0,1.0,phase_2,stop,450.0,450.0,3.0,,,,,,,,,yellow,circle
0.0,1.0,1.0,0.0,6.0,6.0,751.9867479986715,4.0,1.0,phase_2,go,400.0,450.0,1.0,,,,,,,,,green,cross
0.0,7.0,3.0,1.0,5.0,0.0,0.0,4.0,1.0,phase_2,stop,400.0,450.0,4.0,,,,,,,,,cyan,I
0.0,1.0,1.0,0.0,5.0,5.0,617.6622990005853,4.0,1.0,phase_2,go,450.0,450.0,1.0,,,,,,,,,green,cross
0.0,5.0,1.0,1.0,5.0,5.0,658.2858140009193,4.0,1.0,phase_2,go,450.0,450.0,1.0,,,,,,,,,yellow,circle
0.0,2.0,2.0,0.0,5.0,5.0,793.8148269986414,4.0,1.0,phase_2,go,450.0,450.0,1.0,,,,,,,,,blue,hexagon
0.0,7.0,3.0,1.0,5.0,0.0,0.0,4.0,1.0,phase_2,stop,450.0,450.0,4.0,,,,,,,,,cyan,I
0.0,2.0,2.0,0.0,5.0,5.0,835.6439830004092,4.0,1.0,phase_2,go,500.0,450.0,1.0,,,,,,,,,blue,hexagon
0.0,5.0,1.0,1.0,6.0,6.0,800.7450830009475,4.0,1.0,phase_2,go,500.0,450.0,1.0,,,,,,,,,yellow,circle
0.0,5.0,1.0,1.0,5.0,5.0,794.2232969999168,4.0,1.0,phase_2,stop,500.0,450.0,3.0,,,,,,,,,yellow,circle
0.0,2.0,2.0,0.0,6.0,6.0,689.4443999990472,4.0,1.0,phase_2,go,450.0,450.0,1.0,,,,,,,,,blue,hexagon
0.0,2.0,2.0,0.0,6.0,6.0,826.2923560014315,4.0,1.0,phase_2,go,450.0,450.0,1.0,,,,,,,,,blue,hexagon
0.0,7.0,3.0,1.0,6.0,6.0,888.7414119999448,4.0,1.0,phase_2,go,450.0,450.0,1.0,,,,,,,,,cyan,I
0.0,2.0,2.0,0.0,5.0,5.0,740.0727809999808,4.0,1.0,phase_2,go,450.0,450.0,1.0,,,,,,,,,blue,hexagon
0.0,1.0,1.0,0.0,6.0,6.0,757.9108209993137,4.0,1.0,phase_2,go,450.0,450.0,1.0,,,,,,,,,green,cross
0.0,6.0,2.0,1.0,5.0,0.0,0.0,4.0,1.0,phase_2,stop,450.0,450.0,4.0,,,,,,,,,magenta,triangle
0.0,6.0,2.0,1.0,5.0,5.0,554.9921080000786,4.0,1.0,phase_2,go,500.0,450.0,1.0,,,,,,,,,magenta,triangle
0.0,7.0,3.0,1.0,6.0,0.0,0.0,4.0,1.0,phase_2,stop,500.0,450.0,4.0,,,,,,,,,cyan,I
0.0,4.0,4.0,0.0,5.0,5.0,451.1216640003113,4.0,1.0,phase_2,go,500.0,500.0,1.0,,,,,,,,,orange,square
0.0,4.0,4.0,0.0,6.0,6.0,427.8321749989118,4.0,1.0,phase_2,go,500.0,500.0,1.0,,,,,,,,,orange,square
0.0,5.0,1.0,1.0,6.0,6.0,649.5959460007725,4.0,1.0,phase_2,stop,500.0,500.0,3.0,,,,,,,,,yellow,circle
0.0,7.0,3.0,1.0,6.0,6.0,594.5354249997763,4.0,1.0,phase_2,stop,500.0,450.0,3.0,,,,,,,,,cyan,I
0.0,2.0,2.0,0.0,5.0,5.0,753.8650410006085,4.0,1.0,phase_2,go,500.0,400.0,1.0,,,,,,,,,blue,hexagon
0.0,6.0,2.0,1.0,6.0,0.0,0.0,4.0,1.0,phase_2,stop,500.0,400.0,4.0,,,,,,,,,magenta,triangle
0.0,7.0,3.0,1.0,6.0,6.0,489.9263139996037,5.0,1.0,phase_2,stop,500.0,450.0,3.0,,,,,,,,,cyan,I
0.0,1.0,1.0,0.0,5.0,5.0,331.4754399998492,5.0,1.0,phase_2,go,500.0,400.0,1.0,,,,,,,,,green,cross
0.0,1.0,1.0,0.0,6.0,6.0,345.7678249997116,5.0,1.0,phase_2,go,500.0,400.0,1.0,,,,,,,,,green,cross
0.0,8.0,4.0,1.0,6.0,6.0,348.1905429998733,5.0,1.0,phase_2,go,500.0,400.0,1.0,,,,,,,,,white,flipped triangle
0.0,1.0,1.0,0.0,6.0,6.0,369.9382769991644,5.0,1.0,phase_2,go,500.0,400.0,1.0,,,,,,,,,green,cross
0.0,3.0,3.0,0.0,6.0,6.0,397.0414369996433,5.0,1.0,phase_2,go,500.0,400.0,1.0,,,,,,,,,gray,diamond
0.0,3.0,3.0,0.0,6.0,6.0,361.5457549985876,5.0,1.0,phase_2,go,500.0,400.0,1.0,,,,,,,,,gray,diamond
0.0,8.0,4.0,1.0,6.0,6.0,347.6762970003619,5.0,1.0,phase_2,stop,500.0,400.0,3.0,,,,,,,,,white,flipped triangle
0.0,7.0,3.0,1.0,5.0,5.0,328.2955619997665,5.0,1.0,phase_2,stop,500.0,350.0,3.0,,,,,,,,,cyan,I
0.0,1.0,1.0,0.0,6.0,6.0,374.2152319991874,5.0,1.0,phase_2,go,450.0,350.0,1.0,,,,,,,,,green,cross
0.0,6.0,2.0,1.0,6.0,6.0,387.7241080008389,5.0,1.0,phase_2,stop,450.0,350.0,3.0,,,,,,,,,magenta,triangle
0.0,2.0,2.0,0.0,6.0,6.0,429.847609000717,5.0,1.0,phase_2,go,450.0,300.0,1.0,,,,,,,,,blue,hexagon
0.0,3.0,3.0,0.0,6.0,6.0,467.3531250009546,5.0,1.0,phase_2,go,450.0,300.0,1.0,,,,,,,,,gray,diamond
0.0,1.0,1.0,0.0,5.0,5.0,510.2628620006726,5.0,1.0,phase_2,go,450.0,300.0,1.0,,,,,,,,,green,cross
0.0,8.0,4.0,1.0,5.0,5.0,419.1561499992531,5.0,1.0,phase_2,stop,450.0,300.0,3.0,,,,,,,,,white,flipped triangle
0.0,7.0,3.0,1.0,6.0,6.0,392.6304939996043,5.0,1.0,phase_2,stop,400.0,300.0,3.0,,,,,,,,,cyan,I
0.0,5.0,1.0,1.0,5.0,5.0,514.4324779994349,5.0,1.0,phase_2,stop,400.0,250.0,3.0,,,,,,,,,yellow,circle
0.0,2.0,2.0,0.0,5.0,5.0,479.0246769989608,5.0,1.0,phase_2,go,350.0,250.0,1.0,,,,,,,,,blue,hexagon
0.0,8.0,4.0,1.0,6.0,6.0,440.6764689992997,5.0,1.0,phase_2,stop,350.0,250.0,3.0,,,,,,,,,white,flipped triangle
0.0,7.0,3.0,1.0,5.0,5.0,400.4140890010603,5.0,1.0,phase_2,stop,350.0,200.0,3.0,,,,,,,,,cyan,I
0.0,4.0,4.0,0.0,5.0,5.0,567.2899839992169,5.0,1.0,phase_2,go,300.0,200.0,1.0,,,,,,,,,orange,square
0.0,4.0,4.0,0.0,5.0,5.0,419.6233370003028,5.0,1.0,phase_2,go,300.0,200.0,1.0,,,,,,,,,orange,square
0.0,4.0,4.0,0.0,6.0,6.0,550.5571619996772,5.0,1.0,phase_2,go,300.0,200.0,1.0,,,,,,,,,orange,square
0.0,1.0,1.0,0.0,6.0,6.0,396.2540299999091,5.0,1.0,phase_2,go,300.0,200.0,1.0,,,,,,,,,green,cross
0.0,4.0,4.0,0.0,5.0,5.0,699.7317980003572,5.0,1.0,phase_2,go,300.0,200.0,1.0,,,,,,,,,orange,square
0.0,1.0,1.0,0.0,5.0,5.0,383.3073129990225,5.0,1.0,phase_2,go,300.0,200.0,1.0,,,,,,,,,green,cross
0.0,8.0,4.0,1.0,6.0,6.0,356.3298139997641,5.0,1.0,phase_2,go,300.0,200.0,1.0,,,,,,,,,white,flipped triangle
0.0,8.0,4.0,1.0,5.0,0.0,0.0,5.0,1.0,phase_2,stop,300.0,200.0,4.0,,,,,,,,,white,flipped triangle
0.0,6.0,2.0,1.0,5.0,0.0,0.0,5.0,1.0,phase_2,stop,350.0,200.0,4.0,,,,,,,,,magenta,triangle
0.0,6.0,2.0,1.0,6.0,6.0,368.6669849994359,5.0,1.0,phase_2,stop,400.0,200.0,3.0,,,,,,,,,magenta,triangle
0.0,2.0,2.0,0.0,6.0,6.0,577.178036000987,5.0,1.0,phase_2,go,400.0,150.0,1.0,,,,,,,,,blue,hexagon
0.0,1.0,1.0,0.0,5.0,5.0,549.8790159999771,5.0,1.0,phase_2,go,400.0,150.0,1.0,,,,,,,,,green,cross
0.0,7.0,3.0,1.0,5.0,5.0,369.7384010010864,5.0,1.0,phase_2,stop,400.0,150.0,3.0,,,,,,,,,cyan,I
0.0,6.0,2.0,1.0,5.0,0.0,0.0,5.0,1.0,phase_2,stop,350.0,150.0,4.0,,,,,,,,,magenta,triangle
0.0,5.0,1.0,1.0,5.0,5.0,445.5658829992899,5.0,1.0,phase_2,stop,400.0,150.0,3.0,,,,,,,,,yellow,circle
0.0,7.0,3.0,1.0,6.0,6.0,418.663854999977,5.0,1.0,phase_2,go,350.0,150.0,1.0,,,,,,,,,cyan,I
0.0,8.0,4.0,1.0,5.0,5.0,415.4975809997268,6.0,1.0,phase_2,go,350.0,150.0,1.0,,,,,,,,,white,flipped triangle
0.0,7.0,3.0,1.0,5.0,5.0,465.081206000832,6.0,1.0,phase_2,stop,350.0,150.0,3.0,,,,,,,,,cyan,I
0.0,2.0,2.0,0.0,6.0,6.0,444.0784760008682,6.0,1.0,phase_2,go,300.0,150.0,1.0,,,,,,,,,blue,hexagon
0.0,2.0,2.0,0.0,6.0,6.0,452.7923589994316,6.0,1.0,phase_2,go,300.0,150.0,1.0,,,,,,,,,blue,hexagon
0.0,7.0,3.0,1.0,5.0,5.0,532.82678800133,6.0,1.0,phase_2,go,300.0,150.0,1.0,,,,,,,,,cyan,I
0.0,1.0,1.0,0.0,6.0,6.0,501.9561379995139,6.0,1.0,phase_2,go,300.0,150.0,1.0,,,,,,,,,green,cross
0.0,8.0,4.0,1.0,5.0,0.0,0.0,6.0,1.0,phase_2,stop,300.0,150.0,4.0,,,,,,,,,white,flipped triangle
0.0,7.0,3.0,1.0,5.0,5.0,449.264030001359,6.0,1.0,phase_2,stop,350.0,150.0,3.0,,,,,,,,,cyan,I
0.0,7.0,3.0,1.0,6.0,0.0,0.0,6.0,1.0,phase_2,stop,300.0,150.0,4.0,,,,,,,,,cyan,I
0.0,5.0,1.0,1.0,6.0,6.0,400.6662849988061,6.0,1.0,phase_2,go,300.0,200.0,1.0,,,,,,,,,yellow,circle
0.0,8.0,4.0,1.0,5.0,5.0,426.979043000756,6.0,1.0,phase_2,go,300.0,200.0,1.0,,,,,,,,,white,flipped triangle
0.0,5.0,1.0,1.0,6.0,0.0,0.0,6.0,1.0,phase_2,stop,300.0,200.0,4.0,,,,,,,,,yellow,circle
0.0,2.0,2.0,0.0,5.0,5.0,330.7073010000749,6.0,1.0,phase_2,go,300.0,250.0,1.0,,,,,,,,,blue,hexagon
0.0,6.0,2.0,1.0,6.0,6.0,356.7004129999986,6.0,1.0,phase_2,go,300.0,250.0,1.0,,,,,,,,,magenta,triangle
0.0,6.0,2.0,1.0,5.0,0.0,0.0,6.0,1.0,phase_2,stop,300.0,250.0,4.0,,,,,,,,,magenta,triangle
0.0,4.0,4.0,0.0,5.0,5.0,373.4983379999903,6.0,1.0,phase_2,go,350.0,250.0,1.0,,,,,,,,,orange,square
0.0,7.0,3.0,1.0,6.0,6.0,368.516054999418,6.0,1.0,phase_2,stop,350.0,250.0,3.0,,,,,,,,,cyan,I
0.0,4.0,4.0,0.0,6.0,6.0,505.0350170004094,6.0,1.0,phase_2,go,350.0,200.0,1.0,,,,,,,,,orange,square
0.0,5.0,1.0,1.0,6.0,6.0,381.9611680009984,6.0,1.0,phase_2,go,350.0,200.0,1.0,,,,,,,,,yellow,circle
0.0,4.0,4.0,0.0,5.0,5.0,374.5897339995281,6.0,1.0,phase_2,go,350.0,200.0,1.0,,,,,,,,,orange,square
0.0,7.0,3.0,1.0,6.0,6.0,376.826648000133,6.0,1.0,phase_2,stop,350.0,200.0,3.0,,,,,,,,,cyan,I
0.0,3.0,3.0,0.0,5.0,5.0,347.4980060000234,6.0,1.0,phase_2,go,350.0,150.0,1.0,,,,,,,,,gray,diamond
0.0,3.0,3.0,0.0,5.0,5.0,346.9577929990919,6.0,1.0,phase_2,go,350.0,150.0,1.0,,,,,,,,,gray,diamond
0.0,5.0,1.0,1.0,6.0,0.0,0.0,6.0,1.0,phase_2,stop,350.0,150.0,4.0,,,,,,,,,yellow,circle
0.0,6.0,2.0,1.0,6.0,6.0,464.0565090012387,6.0,1.0,phase_2,go,350.0,200.0,1.0,,,,,,,,,magenta,triangle
0.0,5.0,1.0,1.0,5.0,5.0,410.9548519991222,6.0,1.0,phase_2,stop,350.0,200.0,3.0,,,,,,,,,yellow,circle
0.0,3.0,3.0,0.0,6.0,6.0,385.8693380007025,6.0,1.0,phase_2,go,300.0,200.0,1.0,,,,,,,,,gray,diamond
0.0,4.0,4.0,0.0,6.0,6.0,326.6422309989139,6.0,1.0,phase_2,go,300.0,200.0,1.0,,,,,,,,,orange,square
0.0,8.0,4.0,1.0,6.0,6.0,385.0839089991495,6.0,1.0,phase_2,stop,300.0,200.0,3.0,,,,,,,,,white,flipped triangle
0.0,4.0,4.0,0.0,6.0,6.0,453.8609820010606,6.0,1.0,phase_2,go,300.0,150.0,1.0,,,,,,,,,orange,square
0.0,3.0,3.0,0.0,6.0,6.0,459.5419069992204,6.0,1.0,phase_2,go,300.0,150.0,1.0,,,,,,,,,gray,diamond
0.0,1.0,1.0,0.0,6.0,6.0,400.0684399998135,6.0,1.0,phase_2,go,300.0,150.0,1.0,,,,,,,,,green,cross
0.0,4.0,4.0,0.0,5.0,5.0,785.8371990005253,6.0,1.0,phase_2,go,300.0,150.0,1.0,,,,,,,,,orange,square
0.0,6.0,2.0,1.0,6.0,6.0,426.8663889997697,6.0,1.0,phase_2,go,300.0,150.0,1.0,,,,,,,,,magenta,triangle
0.0,5.0,1.0,1.0,6.0,0.0,0.0,6.0,1.0,phase_2,stop,300.0,150.0,4.0,,,,,,,,,yellow,circle
0.0,2.0,2.0,0.0,6.0,6.0,370.8288529996935,6.0,1.0,phase_2,go,300.0,200.0,1.0,,,,,,,,,blue,hexagon
0.0,4.0,4.0,0.0,6.0,6.0,818.8474960006715,7.0,1.0,phase_2,go,300.0,200.0,1.0,,,,,,,,,orange,square
0.0,3.0,3.0,0.0,5.0,5.0,356.8728669997654,7.0,1.0,phase_2,go,300.0,200.0,1.0,,,,,,,,,gray,diamond
0.0,2.0,2.0,0.0,5.0,5.0,364.0271900003426,7.0,1.0,phase_2,go,300.0,200.0,1.0,,,,,,,,,blue,hexagon
0.0,3.0,3.0,0.0,5.0,5.0,324.4781859993964,7.0,1.0,phase_2,go,300.0,200.0,1.0,,,,,,,,,gray,diamond
0.0,7.0,3.0,1.0,6.0,6.0,307.727433000764,7.0,1.0,phase_2,stop,300.0,200.0,3.0,,,,,,,,,cyan,I
0.0,8.0,4.0,1.0,6.0,6.0,348.4302379984001,7.0,1.0,phase_2,stop,300.0,150.0,3.0,,,,,,,,,white,flipped triangle
0.0,3.0,3.0,0.0,5.0,5.0,346.1104570014868,7.0,1.0,phase_2,go,300.0,100.0,1.0,,,,,,,,,gray,diamond
0.0,4.0,4.0,0.0,6.0,6.0,397.3736159987311,7.0,1.0,phase_2,go,300.0,100.0,1.0,,,,,,,,,orange,square
0.0,1.0,1.0,0.0,5.0,5.0,419.1622559992538,7.0,1.0,phase_2,go,300.0,100.0,1.0,,,,,,,,,green,cross
0.0,4.0,4.0,0.0,6.0,6.0,374.2638519997854,7.0,1.0,phase_2,go,300.0,100.0,1.0,,,,,,,,,orange,square
0.0,8.0,4.0,1.0,6.0,0.0,0.0,7.0,1.0,phase_2,stop,300.0,100.0,4.0,,,,,,,,,white,flipped triangle
0.0,4.0,4.0,0.0,5.0,5.0,360.7276089987863,7.0,1.0,phase_2,go,300.0,150.0,1.0,,,,,,,,,orange,square
0.0,1.0,1.0,0.0,5.0,5.0,349.7627219985588,7.0,1.0,phase_2,go,300.0,150.0,1.0,,,,,,,,,green,cross
0.0,3.0,3.0,0.0,6.0,6.0,420.4186269998899,7.0,1.0,phase_2,go,300.0,150.0,1.0,,,,,,,,,gray,diamond
0.0,5.0,1.0,1.0,5.0,5.0,351.761477000764,7.0,1.0,phase_2,stop,300.0,150.0,3.0,,,,,,,,,yellow,circle
0.0,2.0,2.0,0.0,5.0,5.0,413.0145159997482,7.0,1.0,phase_2,go,250.0,150.0,1.0,,,,,,,,,blue,hexagon
0.0,7.0,3.0,1.0,5.0,5.0,380.2513260015985,7.0,1.0,phase_2,stop,250.0,150.0,3.0,,,,,,,,,cyan,I
0.0,1.0,1.0,0.0,5.0,5.0,602.2380030008208,7.0,1.0,phase_2,go,200.0,150.0,1.0,,,,,,,,,green,cross
0.0,1.0,1.0,0.0,6.0,6.0,352.4363920005271,7.0,1.0,phase_2,go,200.0,150.0,1.0,,,,,,,,,green,cross
0.0,2.0,2.0,0.0,6.0,6.0,476.7710720007017,7.0,1.0,phase_2,go,200.0,150.0,1.0,,,,,,,,,blue,hexagon
0.0,4.0,4.0,0.0,6.0,6.0,357.0492569997441,7.0,1.0,phase_2,go,200.0,150.0,1.0,,,,,,,,,orange,square
0.0,3.0,3.0,0.0,6.0,6.0,443.5597829997277,7.0,1.0,phase_2,go,200.0,150.0,1.0,,,,,,,,,gray,diamond
0.0,1.0,1.0,0.0,6.0,6.0,359.9792259992682,7.0,1.0,phase_2,go,200.0,150.0,1.0,,,,,,,,,green,cross
0.0,6.0,2.0,1.0,6.0,0.0,0.0,7.0,1.0,phase_2,stop,200.0,150.0,4.0,,,,,,,,,magenta,triangle
0.0,8.0,4.0,1.0,6.0,0.0,0.0,7.0,1.0,phase_2,stop,200.0,200.0,4.0,,,,,,,,,white,flipped triangle
0.0,6.0,2.0,1.0,5.0,0.0,0.0,7.0,1.0,phase_2,stop,200.0,250.0,4.0,,,,,,,,,magenta,triangle
0.0,5.0,1.0,1.0,6.0,6.0,350.57233599945897,7.0,1.0,phase_2,go,250.0,250.0,1.0,,,,,,,,,yellow,circle
0.0,8.0,4.0,1.0,5.0,5.0,534.9269460002688,7.0,1.0,phase_2,go,250.0,250.0,1.0,,,,,,,,,white,flipped triangle
0.0,1.0,1.0,0.0,5.0,5.0,363.6692799991579,7.0,1.0,phase_2,go,250.0,250.0,1.0,,,,,,,,,green,cross
0.0,1.0,1.0,0.0,5.0,5.0,317.8766949986311,7.0,1.0,phase_2,go,250.0,250.0,1.0,,,,,,,,,green,cross
0.0,8.0,4.0,1.0,6.0,6.0,358.0029679997096,7.0,1.0,phase_2,stop,250.0,250.0,3.0,,,,,,,,,white,flipped triangle
0.0,4.0,4.0,0.0,6.0,6.0,530.7979459994385,7.0,1.0,phase_2,go,250.0,200.0,1.0,,,,,,,,,orange,square
0.0,8.0,4.0,1.0,5.0,5.0,346.8277409992879,7.0,1.0,phase_2,go,250.0,200.0,1.0,,,,,,,,,white,flipped triangle
0.0,6.0,2.0,1.0,6.0,6.0,355.5964259994653,7.0,1.0,phase_2,stop,250.0,200.0,3.0,,,,,,,,,magenta,triangle
0.0,2.0,2.0,0.0,6.0,6.0,358.7522569996508,7.0,1.0,phase_2,go,250.0,150.0,1.0,,,,,,,,,blue,hexagon
0.0,6.0,2.0,1.0,6.0,6.0,364.7749940009817,7.0,1.0,phase_2,stop,250.0,150.0,3.0,,,,,,,,,magenta,triangle
0.0,1.0,1.0,0.0,5.0,5.0,336.27473900014587,8.0,1.0,phase_2,go,250.0,100.0,1.0,,,,,,,,,green,cross
0.0,6.0,2.0,1.0,5.0,5.0,339.6579119998932,8.0,1.0,phase_2,stop,250.0,100.0,3.0,,,,,,,,,magenta,triangle
0.0,2.0,2.0,0.0,5.0,5.0,299.1335280003113,8.0,1.0,phase_2,go,200.0,100.0,1.0,,,,,,,,,blue,hexagon
0.0,8.0,4.0,1.0,6.0,6.0,312.9295100006857,8.0,1.0,phase_2,go,200.0,100.0,1.0,,,,,,,,,white,flipped triangle
0.0,8.0,4.0,1.0,5.0,5.0,420.3743310008576,8.0,1.0,phase_2,stop,200.0,100.0,3.0,,,,,,,,,white,flipped triangle
0.0,8.0,4.0,1.0,5.0,0.0,0.0,8.0,1.0,phase_2,stop,150.0,100.0,4.0,,,,,,,,,white,flipped triangle
0.0,6.0,2.0,1.0,5.0,0.0,0.0,8.0,1.0,phase_2,stop,200.0,100.0,4.0,,,,,,,,,magenta,triangle
0.0,3.0,3.0,0.0,6.0,6.0,305.0179270012449,8.0,1.0,phase_2,go,250.0,100.0,1.0,,,,,,,,,gray,diamond
0.0,5.0,1.0,1.0,5.0,5.0,340.8248700015974,8.0,1.0,phase_2,stop,250.0,100.0,3.0,,,,,,,,,yellow,circle
0.0,6.0,2.0,1.0,6.0,6.0,296.0551670003042,8.0,1.0,phase_2,stop,200.0,100.0,3.0,,,,,,,,,magenta,triangle
0.0,2.0,2.0,0.0,5.0,5.0,389.0564810008072,8.0,1.0,phase_2,go,200.0,50.0,1.0,,,,,,,,,blue,hexagon
0.0,1.0,1.0,0.0,5.0,5.0,325.4761999996844,8.0,1.0,phase_2,go,200.0,50.0,1.0,,,,,,,,,green,cross
0.0,5.0,1.0,1.0,6.0,6.0,350.8190439988539,8.0,1.0,phase_2,go,200.0,50.0,1.0,,,,,,,,,yellow,circle
0.0,8.0,4.0,1.0,5.0,5.0,399.2803999990428,8.0,1.0,phase_2,stop,200.0,50.0,3.0,,,,,,,,,white,flipped triangle
0.0,2.0,2.0,0.0,6.0,6.0,486.5471260000049,8.0,1.0,phase_2,go,150.0,50.0,1.0,,,,,,,,,blue,hexagon
0.0,1.0,1.0,0.0,6.0,6.0,342.7725790006661,8.0,1.0,phase_2,go,150.0,50.0,1.0,,,,,,,,,green,cross
0.0,4.0,4.0,0.0,6.0,6.0,420.8996190009202,8.0,1.0,phase_2,go,150.0,50.0,1.0,,,,,,,,,orange,square
0.0,7.0,3.0,1.0,5.0,0.0,0.0,8.0,1.0,phase_2,stop,150.0,50.0,4.0,,,,,,,,,cyan,I
0.0,4.0,4.0,0.0,5.0,5.0,425.9718930006784,8.0,1.0,phase_2,go,200.0,50.0,1.0,,,,,,,,,orange,square
0.0,8.0,4.0,1.0,6.0,0.0,0.0,8.0,1.0,phase_2,stop,200.0,50.0,4.0,,,,,,,,,white,flipped triangle
0.0,3.0,3.0,0.0,5.0,5.0,474.1962400003103,8.0,1.0,phase_2,go,200.0,100.0,1.0,,,,,,,,,gray,diamond
0.0,6.0,2.0,1.0,5.0,0.0,0.0,8.0,1.0,phase_2,stop,200.0,100.0,4.0,,,,,,,,,magenta,triangle
0.0,8.0,4.0,1.0,5.0,5.0,437.6182859996333,8.0,1.0,phase_2,stop,250.0,100.0,3.0,,,,,,,,,white,flipped triangle
0.0,6.0,2.0,1.0,6.0,6.0,545.1818109995656,8.0,1.0,phase_2,go,200.0,100.0,1.0,,,,,,,,,magenta,triangle
0.0,4.0,4.0,0.0,5.0,5.0,420.2726029998302,8.0,1.0,phase_2,go,200.0,100.0,1.0,,,,,,,,,orange,square
0.0,1.0,1.0,0.0,5.0,5.0,372.9063530008716,8.0,1.0,phase_2,go,200.0,100.0,1.0,,,,,,,,,green,cross
0.0,5.0,1.0,1.0,6.0,0.0,0.0,8.0,1.0,phase_2,stop,200.0,100.0,4.0,,,,,,,,,yellow,circle
0.0,4.0,4.0,0.0,5.0,5.0,451.2212330009788,8.0,1.0,phase_2,go,200.0,150.0,1.0,,,,,,,,,orange,square
0.0,8.0,4.0,1.0,6.0,6.0,363.9363660004164,8.0,1.0,phase_2,stop,200.0,150.0,3.0,,,,,,,,,white,flipped triangle
0.0,6.0,2.0,1.0,5.0,0.0,0.0,8.0,1.0,phase_2,stop,200.0,100.0,4.0,,,,,,,,,magenta,triangle
0.0,3.0,3.0,0.0,5.0,5.0,409.9109639992093,8.0,1.0,phase_2,go,250.0,100.0,1.0,,,,,,,,,gray,diamond
0.0,7.0,3.0,1.0,5.0,0.0,0.0,8.0,1.0,phase_2,stop,250.0,100.0,4.0,,,,,,,,,cyan,I
0.0,2.0,2.0,0.0,5.0,5.0,677.5255630000174,8.0,1.0,phase_2,go,300.0,100.0,1.0,,,,,,,,,blue,hexagon
0.0,7.0,3.0,1.0,6.0,6.0,518.7956759982626,8.0,1.0,phase_2,go,300.0,100.0,1.0,,,,,,,,,cyan,I
0.0,5.0,1.0,1.0,6.0,0.0,0.0,8.0,1.0,phase_2,stop,300.0,100.0,4.0,,,,,,,,,yellow,circle
0.0,5.0,1.0,1.0,6.0,0.0,0.0,8.0,1.0,phase_2,stop,300.0,150.0,4.0,,,,,,,,,yellow,circle
0.0,8.0,4.0,1.0,7.0,2.0,3633.775332000369,1.0,1.0,phase_3,,,,,147.0,3.0,196.0,147.0,98.0,49.0,245.0,294.0,white,flipped triangle
0.0,4.0,4.0,0.0,7.0,4.0,4605.043585999738,1.0,1.0,phase_3,,,,,176.0,4.0,132.0,264.0,88.0,176.0,44.0,220.0,orange,square
0.0,7.0,3.0,1.0,7.0,4.0,3874.016476998804,1.0,1.0,phase_3,,,,,88.0,2.0,220.0,176.0,44.0,88.0,264.0,132.0,cyan,I
0.0,4.0,4.0,0.0,7.0,3.0,3391.9848969999293,1.0,1.0,phase_3,,,,,147.0,3.0,245.0,49.0,147.0,196.0,294.0,98.0,orange,square
0.0,5.0,1.0,1.0,7.0,5.0,3180.843419999292,1.0,1.0,phase_3,,,,,68.0,2.0,136.0,204.0,34.0,102.0,68.0,170.0,yellow,circle
0.0,1.0,1.0,0.0,7.0,1.0,860.8986210001603,1.0,2.0,phase_3,,,,,204.0,6.0,204.0,136.0,102.0,68.0,34.0,170.0,green,cross
0.0,6.0,2.0,1.0,7.0,5.0,2222.9543899993587,1.0,1.0,phase_3,,,,,220.0,5.0,88.0,264.0,44.0,132.0,220.0,176.0,magenta,triangle
0.0,2.0,2.0,0.0,7.0,3.0,2593.371765999109,1.0,1.0,phase_3,,,,,108.0,2.0,270.0,216.0,108.0,324.0,162.0,54.0,blue,hexagon
0.0,5.0,1.0,1.0,7.0,5.0,1778.53927400065,1.0,1.0,phase_3,,,,,196.0,4.0,49.0,147.0,98.0,294.0,196.0,245.0,yellow,circle
0.0,3.0,3.0,0.0,7.0,3.0,1754.7990509992817,1.0,1.0,phase_3,,,,,54.0,1.0,162.0,324.0,54.0,270.0,108.0,216.0,gray,diamond
0.0,8.0,4.0,1.0,7.0,5.0,1397.2615659986332,1.0,1.0,phase_3,,,,,156.0,4.0,234.0,117.0,195.0,39.0,156.0,78.0,white,flipped triangle
0.0,4.0,4.0,0.0,7.0,1.0,1460.4534860009153,1.0,1.0,phase_3,,,,,324.0,6.0,324.0,216.0,162.0,108.0,54.0,270.0,orange,square
0.0,7.0,3.0,1.0,7.0,4.0,1749.015817000327,1.0,1.0,phase_3,,,,,156.0,4.0,117.0,234.0,39.0,156.0,78.0,195.0,cyan,I
0.0,8.0,4.0,1.0,7.0,2.0,1102.7002969985915,1.0,1.0,phase_3,,,,,170.0,5.0,136.0,170.0,68.0,204.0,34.0,102.0,white,flipped triangle
0.0,4.0,4.0,0.0,7.0,4.0,1222.8724480009987,1.0,1.0,phase_3,,,,,44.0,1.0,88.0,264.0,220.0,44.0,132.0,176.0,orange,square
0.0,7.0,3.0,1.0,7.0,5.0,1256.6224790007254,1.0,1.0,phase_3,,,,,102.0,3.0,170.0,34.0,68.0,136.0,102.0,204.0,cyan,I
0.0,3.0,3.0,0.0,7.0,2.0,1142.9795370004283,1.0,1.0,phase_3,,,,,102.0,3.0,68.0,102.0,204.0,34.0,170.0,136.0,gray,diamond
0.0,7.0,3.0,1.0,7.0,1.0,1138.232530998721,1.0,1.0,phase_3,,,,,245.0,5.0,245.0,196.0,49.0,294.0,147.0,98.0,cyan,I
0.0,1.0,1.0,0.0,7.0,6.0,1132.3211460003222,1.0,1.0,phase_3,,,,,196.0,4.0,245.0,49.0,98.0,147.0,294.0,196.0,green,cross
0.0,3.0,3.0,0.0,7.0,3.0,1339.2809529996157,1.0,1.0,phase_3,,,,,204.0,6.0,34.0,68.0,204.0,170.0,136.0,102.0,gray,diamond
0.0,1.0,1.0,0.0,7.0,3.0,1196.0765290004929,2.0,1.0,phase_3,,,,,39.0,1.0,234.0,117.0,39.0,195.0,78.0,156.0,green,cross
0.0,4.0,4.0,0.0,7.0,6.0,1493.792962999578,2.0,1.0,phase_3,,,,,39.0,1.0,234.0,78.0,156.0,195.0,117.0,39.0,orange,square
0.0,2.0,2.0,0.0,7.0,4.0,1136.1156980001397,2.0,1.0,phase_3,,,,,117.0,3.0,156.0,78.0,234.0,117.0,39.0,195.0,blue,hexagon
0.0,8.0,4.0,1.0,7.0,1.0,857.7533470015624,2.0,1.0,phase_3,,,,,216.0,4.0,216.0,270.0,108.0,162.0,54.0,324.0,white,flipped triangle
0.0,1.0,1.0,0.0,7.0,2.0,958.5746119992108,2.0,1.0,phase_3,,,,,108.0,2.0,162.0,108.0,54.0,216.0,324.0,270.0,green,cross
0.0,2.0,2.0,0.0,7.0,6.0,1363.4445869993217,2.0,1.0,phase_3,,,,,270.0,5.0,162.0,108.0,216.0,324.0,54.0,270.0,blue,hexagon
0.0,5.0,1.0,1.0,7.0,2.0,917.91912699955,2.0,1.0,phase_3,,,,,195.0,5.0,78.0,195.0,117.0,156.0,234.0,39.0,yellow,circle
0.0,8.0,4.0,1.0,7.0,1.0,626.8127319999621,2.0,1.0,phase_3,,,,,132.0,3.0,132.0,220.0,88.0,264.0,44.0,176.0,white,flipped triangle
0.0,5.0,1.0,1.0,7.0,4.0,935.5658939985004,2.0,1.0,phase_3,,,,,78.0,2.0,156.0,195.0,234.0,78.0,39.0,117.0,yellow,circle
0.0,3.0,3.0,0.0,7.0,3.0,960.9052220002924,2.0,1.0,phase_3,,,,,98.0,2.0,245.0,196.0,98.0,49.0,294.0,147.0,gray,diamond
0.0,2.0,2.0,0.0,7.0,5.0,1051.2885910011391,2.0,1.0,phase_3,,,,,117.0,3.0,195.0,156.0,234.0,39.0,117.0,78.0,blue,hexagon
0.0,8.0,4.0,1.0,7.0,2.0,889.697659000376,2.0,1.0,phase_3,,,,,54.0,1.0,324.0,54.0,216.0,162.0,108.0,270.0,white,flipped triangle
0.0,2.0,2.0,0.0,7.0,1.0,1131.2297980002768,2.0,1.0,phase_3,,,,,102.0,3.0,102.0,204.0,136.0,34.0,170.0,68.0,blue,hexagon
0.0,4.0,4.0,0.0,7.0,5.0,879.2853840004682,2.0,1.0,phase_3,,,,,102.0,3.0,136.0,34.0,204.0,170.0,102.0,68.0,orange,square
0.0,3.0,3.0,0.0,7.0,1.0,1581.496505999894,2.0,1.0,phase_3,,,,,195.0,5.0,195.0,78.0,39.0,156.0,234.0,117.0,gray,diamond
0.0,1.0,1.0,0.0,7.0,3.0,1140.2429779991508,2.0,1.0,phase_3,,,,,108.0,2.0,216.0,162.0,108.0,324.0,54.0,270.0,green,cross
0.0,6.0,2.0,1.0,7.0,2.0,1143.870366999181,2.0,1.0,phase_3,,,,,245.0,5.0,49.0,245.0,294.0,196.0,147.0,98.0,magenta,triangle
0.0,3.0,3.0,0.0,7.0,5.0,1151.2059939996109,2.0,1.0,phase_3,,,,,49.0,1.0,98.0,147.0,245.0,196.0,49.0,294.0,gray,diamond
0.0,7.0,3.0,1.0,7.0,2.0,698.0480380007066,2.0,1.0,phase_3,,,,,270.0,5.0,54.0,270.0,216.0,108.0,162.0,324.0,cyan,I
0.0,5.0,1.0,1.0,7.0,6.0,1098.153365001053,2.0,1.0,phase_3,,,,,44.0,1.0,176.0,88.0,220.0,132.0,264.0,44.0,yellow,circle
0.0,2.0,2.0,0.0,7.0,2.0,904.3504339988432,3.0,1.0,phase_3,,,,,176.0,4.0,132.0,176.0,264.0,220.0,44.0,88.0,blue,hexagon
0.0,1.0,1.0,0.0,7.0,3.0,1185.2770040004543,3.0,1.0,phase_3,,,,,132.0,3.0,88.0,220.0,132.0,264.0,44.0,176.0,green,cross
0.0,6.0,2.0,1.0,7.0,5.0,1143.0792520004616,3.0,1.0,phase_3,,,,,44.0,1.0,132.0,88.0,220.0,264.0,44.0,176.0,magenta,triangle
0.0,6.0,2.0,1.0,7.0,4.0,1453.6571729986465,3.0,1.0,phase_3,,,,,54.0,1.0,216.0,270.0,108.0,54.0,324.0,162.0,magenta,triangle
0.0,2.0,2.0,0.0,7.0,2.0,860.558199998195,3.0,1.0,phase_3,,,,,147.0,3.0,98.0,147.0,49.0,245.0,294.0,196.0,blue,hexagon
0.0,2.0,2.0,0.0,7.0,6.0,851.1142210008984,3.0,1.0,phase_3,,,,,68.0,2.0,136.0,102.0,204.0,170.0,34.0,68.0,blue,hexagon
0.0,6.0,2.0,1.0,7.0,4.0,878.1811219996598,3.0,1.0,phase_3,,,,,54.0,1.0,270.0,162.0,108.0,54.0,324.0,216.0,magenta,triangle
0.0,7.0,3.0,1.0,7.0,2.0,721.6193179992842,3.0,1.0,phase_3,,,,,245.0,5.0,294.0,245.0,147.0,196.0,98.0,49.0,cyan,I
0.0,1.0,1.0,0.0,7.0,4.0,1218.6052029992425,3.0,1.0,phase_3,,,,,176.0,4.0,88.0,264.0,44.0,176.0,132.0,220.0,green,cross
0.0,8.0,4.0,1.0,7.0,2.0,831.4755069986859,3.0,1.0,phase_3,,,,,102.0,3.0,204.0,102.0,170.0,68.0,34.0,136.0,white,flipped triangle
0.0,1.0,1.0,0.0,7.0,5.0,1121.6139430016483,3.0,1.0,phase_3,,,,,68.0,2.0,34.0,136.0,170.0,204.0,68.0,102.0,green,cross
0.0,8.0,4.0,1.0,7.0,6.0,927.4631930002216,3.0,1.0,phase_3,,,,,88.0,2.0,132.0,264.0,44.0,176.0,220.0,88.0,white,flipped triangle
0.0,5.0,1.0,1.0,7.0,2.0,1007.8078530004859,3.0,1.0,phase_3,,,,,98.0,2.0,49.0,98.0,294.0,147.0,245.0,196.0,yellow,circle
0.0,3.0,3.0,0.0,7.0,4.0,884.5193019988074,3.0,1.0,phase_3,,,,,108.0,2.0,270.0,216.0,162.0,108.0,54.0,324.0,gray,diamond
0.0,8.0,4.0,1.0,7.0,3.0,1075.4008650001197,3.0,1.0,phase_3,,,,,234.0,6.0,156.0,39.0,234.0,117.0,195.0,78.0,white,flipped triangle
0.0,5.0,1.0,1.0,7.0,6.0,1296.4870099986,3.0,1.0,phase_3,,,,,34.0,1.0,102.0,204.0,68.0,170.0,136.0,34.0,yellow,circle
0.0,7.0,3.0,1.0,7.0,2.0,1074.8151709995,3.0,1.0,phase_3,,,,,204.0,6.0,34.0,204.0,136.0,170.0,102.0,68.0,cyan,I
0.0,8.0,4.0,1.0,7.0,3.0,1289.8441550005373,3.0,1.0,phase_3,,,,,147.0,3.0,294.0,245.0,147.0,98.0,49.0,196.0,white,flipped triangle
0.0,7.0,3.0,1.0,7.0,2.0,1153.8757260004786,3.0,1.0,phase_3,,,,,270.0,5.0,54.0,270.0,108.0,216.0,324.0,162.0,cyan,I
0.0,3.0,3.0,0.0,7.0,4.0,1205.3975700000592,3.0,1.0,phase_3,,,,,132.0,3.0,220.0,44.0,264.0,132.0,88.0,176.0,gray,diamond
0.0,5.0,1.0,1.0,7.0,5.0,761.678053999276,4.0,1.0,phase_3,,,,,108.0,2.0,54.0,324.0,162.0,216.0,108.0,270.0,yellow,circle
0.0,6.0,2.0,1.0,7.0,3.0,1229.2333910008892,4.0,1.0,phase_3,,,,,34.0,1.0,136.0,170.0,34.0,102.0,68.0,204.0,magenta,triangle
0.0,3.0,3.0,0.0,7.0,6.0,1216.2068099987664,4.0,1.0,phase_3,,,,,117.0,3.0,78.0,195.0,156.0,39.0,234.0,117.0,gray,diamond
0.0,7.0,3.0,1.0,7.0,2.0,693.2061740008066,4.0,1.0,phase_3,,,,,195.0,5.0,117.0,195.0,78.0,39.0,156.0,234.0,cyan,I
0.0,5.0,1.0,1.0,7.0,4.0,1032.140654999239,4.0,1.0,phase_3,,,,,88.0,2.0,176.0,264.0,132.0,88.0,220.0,44.0,yellow,circle
0.0,4.0,4.0,0.0,7.0,6.0,917.5748249999742,4.0,1.0,phase_3,,,,,294.0,6.0,147.0,245.0,98.0,196.0,49.0,294.0,orange,square
0.0,2.0,2.0,0.0,7.0,1.0,997.1170469998468,4.0,1.0,phase_3,,,,,88.0,2.0,88.0,176.0,220.0,44.0,132.0,264.0,blue,hexagon
0.0,2.0,2.0,0.0,7.0,3.0,924.5097680013714,4.0,1.0,phase_3,,,,,98.0,2.0,294.0,245.0,98.0,49.0,196.0,147.0,blue,hexagon
0.0,1.0,1.0,0.0,7.0,1.0,1004.5022859994788,4.0,1.0,phase_3,,,,,78.0,2.0,78.0,156.0,117.0,234.0,39.0,195.0,green,cross
0.0,7.0,3.0,1.0,7.0,2.0,971.9690620004258,4.0,1.0,phase_3,,,,,132.0,3.0,220.0,132.0,176.0,88.0,44.0,264.0,cyan,I
0.0,4.0,4.0,0.0,7.0,5.0,1067.4020770002244,4.0,1.0,phase_3,,,,,54.0,1.0,216.0,108.0,270.0,162.0,54.0,324.0,orange,square
0.0,1.0,1.0,0.0,7.0,2.0,1093.8301099995442,4.0,1.0,phase_3,,,,,147.0,3.0,245.0,147.0,196.0,49.0,98.0,294.0,green,cross
0.0,6.0,2.0,1.0,7.0,5.0,951.7814999999246,4.0,1.0,phase_3,,,,,98.0,2.0,147.0,294.0,196.0,245.0,98.0,49.0,magenta,triangle
0.0,4.0,4.0,0.0,7.0,6.0,656.5603379985987,4.0,1.0,phase_3,,,,,78.0,2.0,156.0,195.0,234.0,117.0,39.0,78.0,orange,square
0.0,3.0,3.0,0.0,7.0,1.0,849.239282999406,4.0,1.0,phase_3,,,,,176.0,4.0,176.0,44.0,132.0,88.0,264.0,220.0,gray,diamond
0.0,6.0,2.0,1.0,7.0,5.0,876.8120880013157,4.0,1.0,phase_3,,,,,39.0,1.0,78.0,234.0,195.0,117.0,39.0,156.0,magenta,triangle
0.0,4.0,4.0,0.0,7.0,2.0,688.1146489995444,4.0,1.0,phase_3,,,,,204.0,6.0,170.0,204.0,102.0,68.0,34.0,136.0,orange,square
0.0,5.0,1.0,1.0,7.0,3.0,1225.740328000029,4.0,1.0,phase_3,,,,,54.0,1.0,108.0,162.0,54.0,216.0,270.0,324.0,yellow,circle
0.0,6.0,2.0,1.0,7.0,3.0,1250.9843930001807,4.0,1.0,phase_3,,,,,78.0,2.0,39.0,156.0,78.0,195.0,117.0,234.0,magenta,triangle
0.0,6.0,2.0,1.0,7.0,3.0,1377.238736999061,4.0,1.0,phase_3,,,,,204.0,6.0,170.0,102.0,204.0,136.0,68.0,34.0,magenta,triangle
