raw_reward_magnitude,stim_reward,stepwise_reward_magnitude,paired_with_stopping,stim_location,response,reaction_time,block,num_trial_presentations,which_phase,stop_signal_trial_type,left_SSD,right_SSD,accuracy,chosen_bidding_amount,chosen_bidding_level,possible_bid_1,possible_bid_2,possible_bid_3,possible_bid_4,possible_bid_5,possible_bid_6,color_text,shape_text
73.0,1.0,0.5,0.0,1.0,1.0,370.0042620000658,1.0,1.0,phase_1,,,,,,,,,,,,,gray,square
380.0,4.0,4.0,0.0,4.0,4.0,318.8102540000272,1.0,1.0,phase_1,,,,,,,,,,,,,yellow,triangle
0.0,7.0,0.0,1.0,1.0,1.0,325.9267170001294,1.0,1.0,phase_1,,,,,,,,,,,,,green,diamond
0.0,1.0,0.0,0.0,3.0,3.0,295.4415180001888,1.0,1.0,phase_1,,,,,,,,,,,,,gray,square
380.0,8.0,4.0,1.0,4.0,4.0,221.8567540001004,1.0,1.0,phase_1,,,,,,,,,,,,,blue,hexagon
223.0,7.0,2.0,1.0,4.0,4.0,306.6648040000927,1.0,1.0,phase_1,,,,,,,,,,,,,green,diamond
34.0,1.0,0.5,0.0,1.0,1.0,367.7197360000264,1.0,1.0,phase_1,,,,,,,,,,,,,gray,square
73.0,5.0,0.5,1.0,1.0,1.0,334.0045749998808,1.0,1.0,phase_1,,,,,,,,,,,,,orange,cross
407.0,4.0,4.0,0.0,4.0,4.0,295.1132610000968,1.0,1.0,phase_1,,,,,,,,,,,,,yellow,triangle
391.0,4.0,4.0,0.0,2.0,2.0,349.1483550001248,1.0,1.0,phase_1,,,,,,,,,,,,,yellow,triangle
40.0,1.0,0.5,0.0,3.0,3.0,286.169276999999,1.0,1.0,phase_1,,,,,,,,,,,,,gray,square
40.0,5.0,0.5,1.0,2.0,2.0,334.3382499999734,1.0,1.0,phase_1,,,,,,,,,,,,,orange,cross
411.0,8.0,4.0,1.0,2.0,2.0,279.7007930000745,1.0,1.0,phase_1,,,,,,,,,,,,,blue,hexagon
0.0,4.0,0.0,0.0,2.0,2.0,348.6588369999026,1.0,1.0,phase_1,,,,,,,,,,,,,yellow,triangle
0.0,3.0,0.0,0.0,1.0,1.0,314.9553440000545,1.0,1.0,phase_1,,,,,,,,,,,,,white,circle
0.0,8.0,0.0,1.0,4.0,4.0,309.9742839999635,1.0,1.0,phase_1,,,,,,,,,,,,,blue,hexagon
208.0,7.0,2.0,1.0,3.0,3.0,264.6353139998609,1.0,1.0,phase_1,,,,,,,,,,,,,green,diamond
185.0,7.0,2.0,1.0,2.0,2.0,300.2510810001695,1.0,1.0,phase_1,,,,,,,,,,,,,green,diamond
0.0,1.0,0.0,0.0,2.0,2.0,313.7732389998291,1.0,1.0,phase_1,,,,,,,,,,,,,gray,square
410.0,8.0,4.0,1.0,3.0,3.0,269.2061249999824,1.0,1.0,phase_1,,,,,,,,,,,,,blue,hexagon
185.0,3.0,2.0,0.0,3.0,3.0,304.9703199999385,1.0,1.0,phase_1,,,,,,,,,,,,,white,circle
116.0,2.0,1.0,0.0,1.0,1.0,277.0642180000777,1.0,1.0,phase_1,,,,,,,,,,,,,cyan,I
404.0,4.0,4.0,0.0,4.0,4.0,286.8697189999238,1.0,1.0,phase_1,,,,,,,,,,,,,yellow,triangle
409.0,8.0,4.0,1.0,2.0,2.0,323.0184680001002,1.0,1.0,phase_1,,,,,,,,,,,,,blue,hexagon
396.0,4.0,4.0,0.0,3.0,3.0,305.4093939999802,1.0,1.0,phase_1,,,,,,,,,,,,,yellow,triangle
415.0,4.0,4.0,0.0,1.0,1.0,324.2915339999399,1.0,1.0,phase_1,,,,,,,,,,,,,yellow,triangle
381.0,8.0,4.0,1.0,3.0,3.0,284.8996879999959,1.0,1.0,phase_1,,,,,,,,,,,,,blue,hexagon
395.0,4.0,4.0,0.0,4.0,4.0,306.3286409999364,1.0,1.0,phase_1,,,,,,,,,,,,,yellow,triangle
31.0,5.0,0.5,1.0,2.0,2.0,469.8769649999121,1.0,1.0,phase_1,,,,,,,,,,,,,orange,cross
67.0,1.0,0.5,0.0,2.0,2.0,406.8541070000719,1.0,1.0,phase_1,,,,,,,,,,,,,gray,square
43.0,5.0,0.5,1.0,2.0,2.0,349.989628000003,1.0,1.0,phase_1,,,,,,,,,,,,,orange,cross
382.0,4.0,4.0,0.0,3.0,3.0,277.1447509999234,1.0,1.0,phase_1,,,,,,,,,,,,,yellow,triangle
118.0,6.0,1.0,1.0,3.0,3.0,324.576382000032,1.0,1.0,phase_1,,,,,,,,,,,,,magenta,flipped triangle
113.0,2.0,1.0,0.0,3.0,3.0,329.4376979999924,1.0,1.0,phase_1,,,,,,,,,,,,,cyan,I
0.0,5.0,0.0,1.0,2.0,2.0,317.1714769998743,1.0,1.0,phase_1,,,,,,,,,,,,,orange,cross
391.0,8.0,4.0,1.0,4.0,4.0,280.9088030001021,1.0,1.0,phase_1,,,,,,,,,,,,,blue,hexagon
191.0,7.0,2.0,1.0,1.0,1.0,320.9917970000333,1.0,1.0,phase_1,,,,,,,,,,,,,green,diamond
191.0,3.0,2.0,0.0,1.0,1.0,334.5863559998179,1.0,1.0,phase_1,,,,,,,,,,,,,white,circle
186.0,3.0,2.0,0.0,3.0,3.0,258.4238130000358,1.0,1.0,phase_1,,,,,,,,,,,,,white,circle
186.0,7.0,2.0,1.0,2.0,2.0,280.1169080000818,1.0,1.0,phase_1,,,,,,,,,,,,,green,diamond
39.0,1.0,0.5,0.0,3.0,3.0,297.477200000003,1.0,1.0,phase_1,,,,,,,,,,,,,gray,square
46.0,1.0,0.5,0.0,4.0,4.0,321.80420100007717,1.0,1.0,phase_1,,,,,,,,,,,,,gray,square
90.0,6.0,1.0,1.0,2.0,2.0,287.6871840001058,1.0,1.0,phase_1,,,,,,,,,,,,,magenta,flipped triangle
48.0,1.0,0.5,0.0,4.0,4.0,324.2774870000176,1.0,1.0,phase_1,,,,,,,,,,,,,gray,square
87.0,2.0,1.0,0.0,3.0,3.0,473.0279289999544,1.0,1.0,phase_1,,,,,,,,,,,,,cyan,I
418.0,4.0,4.0,0.0,2.0,2.0,304.6604589999333,1.0,1.0,phase_1,,,,,,,,,,,,,yellow,triangle
78.0,2.0,1.0,0.0,4.0,4.0,317.40306100005,1.0,1.0,phase_1,,,,,,,,,,,,,cyan,I
0.0,5.0,0.0,1.0,2.0,2.0,358.0661200001032,1.0,1.0,phase_1,,,,,,,,,,,,,orange,cross
219.0,7.0,2.0,1.0,1.0,1.0,377.2326680000333,1.0,2.0,phase_1,,,,,,,,,,,,,green,diamond
39.0,5.0,0.5,1.0,3.0,3.0,355.8378210000228,1.0,1.0,phase_1,,,,,,,,,,,,,orange,cross
0.0,6.0,0.0,1.0,3.0,3.0,354.1864670000905,1.0,1.0,phase_1,,,,,,,,,,,,,magenta,flipped triangle
415.0,8.0,4.0,1.0,2.0,2.0,370.7712310001625,1.0,1.0,phase_1,,,,,,,,,,,,,blue,hexagon
76.0,2.0,1.0,0.0,1.0,1.0,280.7421120000981,1.0,1.0,phase_1,,,,,,,,,,,,,cyan,I
118.0,2.0,1.0,0.0,2.0,2.0,255.56898299987552,1.0,1.0,phase_1,,,,,,,,,,,,,cyan,I
394.0,8.0,4.0,1.0,4.0,4.0,353.9101979999941,1.0,1.0,phase_1,,,,,,,,,,,,,blue,hexagon
0.0,7.0,0.0,1.0,1.0,1.0,308.0796169999757,1.0,1.0,phase_1,,,,,,,,,,,,,green,diamond
0.0,7.0,0.0,1.0,1.0,1.0,309.6465030000672,1.0,1.0,phase_1,,,,,,,,,,,,,green,diamond
95.0,2.0,1.0,0.0,1.0,1.0,332.4701470000946,1.0,1.0,phase_1,,,,,,,,,,,,,cyan,I
0.0,5.0,0.0,1.0,2.0,2.0,334.143307999966,1.0,1.0,phase_1,,,,,,,,,,,,,orange,cross
210.0,7.0,2.0,1.0,4.0,4.0,396.2934119999772,1.0,1.0,phase_1,,,,,,,,,,,,,green,diamond
0.0,2.0,0.0,0.0,2.0,2.0,367.8356929999609,1.0,1.0,phase_1,,,,,,,,,,,,,cyan,I
396.0,4.0,4.0,0.0,2.0,2.0,321.0188540001581,1.0,1.0,phase_1,,,,,,,,,,,,,yellow,triangle
422.0,4.0,4.0,0.0,1.0,1.0,447.0102960001441,1.0,1.0,phase_1,,,,,,,,,,,,,yellow,triangle
186.0,7.0,2.0,1.0,3.0,3.0,338.1494140000995,1.0,1.0,phase_1,,,,,,,,,,,,,green,diamond
32.0,5.0,0.5,1.0,4.0,4.0,422.9111970000758,1.0,1.0,phase_1,,,,,,,,,,,,,orange,cross
381.0,8.0,4.0,1.0,2.0,2.0,291.7065980000188,1.0,1.0,phase_1,,,,,,,,,,,,,blue,hexagon
376.0,4.0,4.0,0.0,4.0,4.0,302.2459060000528,1.0,1.0,phase_1,,,,,,,,,,,,,yellow,triangle
0.0,1.0,0.0,0.0,1.0,1.0,337.2639310000522,1.0,1.0,phase_1,,,,,,,,,,,,,gray,square
70.0,1.0,0.5,0.0,2.0,2.0,283.06829400003147,1.0,1.0,phase_1,,,,,,,,,,,,,gray,square
113.0,6.0,1.0,1.0,3.0,3.0,325.3605200000038,1.0,1.0,phase_1,,,,,,,,,,,,,magenta,flipped triangle
70.0,5.0,0.5,1.0,4.0,4.0,341.3880590001099,1.0,1.0,phase_1,,,,,,,,,,,,,orange,cross
0.0,3.0,0.0,0.0,2.0,2.0,271.7789939999875,1.0,1.0,phase_1,,,,,,,,,,,,,white,circle
392.0,8.0,4.0,1.0,2.0,2.0,331.4630229999693,1.0,1.0,phase_1,,,,,,,,,,,,,blue,hexagon
26.0,5.0,0.5,1.0,1.0,1.0,491.0385149999001,1.0,1.0,phase_1,,,,,,,,,,,,,orange,cross
410.0,4.0,4.0,0.0,1.0,1.0,330.9485680001671,1.0,1.0,phase_1,,,,,,,,,,,,,yellow,triangle
178.0,7.0,2.0,1.0,2.0,2.0,282.7223290000802,1.0,1.0,phase_1,,,,,,,,,,,,,green,diamond
422.0,8.0,4.0,1.0,2.0,2.0,307.4276760000884,1.0,1.0,phase_1,,,,,,,,,,,,,blue,hexagon
0.0,7.0,0.0,1.0,1.0,1.0,373.1623060000402,1.0,1.0,phase_1,,,,,,,,,,,,,green,diamond
0.0,7.0,0.0,1.0,1.0,1.0,377.836458000047,1.0,1.0,phase_1,,,,,,,,,,,,,green,diamond
87.0,2.0,1.0,0.0,1.0,1.0,367.8207939999538,1.0,2.0,phase_1,,,,,,,,,,,,,cyan,I
57.0,1.0,0.5,0.0,3.0,3.0,378.4850970000661,1.0,1.0,phase_1,,,,,,,,,,,,,gray,square
0.0,7.0,0.0,1.0,2.0,2.0,390.7153479999579,1.0,1.0,phase_1,,,,,,,,,,,,,green,diamond
0.0,3.0,0.0,0.0,1.0,1.0,319.4997250000142,1.0,1.0,phase_1,,,,,,,,,,,,,white,circle
415.0,4.0,4.0,0.0,2.0,2.0,362.4437949999901,1.0,1.0,phase_1,,,,,,,,,,,,,yellow,triangle
395.0,4.0,4.0,0.0,2.0,2.0,325.3512929998123,1.0,1.0,phase_1,,,,,,,,,,,,,yellow,triangle
183.0,3.0,2.0,0.0,2.0,2.0,286.9429109998691,1.0,1.0,phase_1,,,,,,,,,,,,,white,circle
390.0,4.0,4.0,0.0,2.0,2.0,365.004122000073,1.0,1.0,phase_1,,,,,,,,,,,,,yellow,triangle
73.0,1.0,0.5,0.0,1.0,1.0,481.2649919999785,1.0,1.0,phase_1,,,,,,,,,,,,,gray,square
394.0,4.0,4.0,0.0,2.0,2.0,269.6597139999994,1.0,1.0,phase_1,,,,,,,,,,,,,yellow,triangle
72.0,1.0,0.5,0.0,1.0,1.0,306.388040999991,1.0,1.0,phase_1,,,,,,,,,,,,,gray,square
178.0,7.0,2.0,1.0,3.0,3.0,440.8455929999491,1.0,1.0,phase_1,,,,,,,,,,,,,green,diamond
198.0,7.0,2.0,1.0,2.0,2.0,276.8212370001492,1.0,1.0,phase_1,,,,,,,,,,,,,green,diamond
178.0,3.0,2.0,0.0,4.0,4.0,376.9831230001728,1.0,1.0,phase_1,,,,,,,,,,,,,white,circle
190.0,7.0,2.0,1.0,1.0,1.0,506.62729300006504,1.0,1.0,phase_1,,,,,,,,,,,,,green,diamond
219.0,3.0,2.0,0.0,1.0,1.0,331.1349820000941,1.0,2.0,phase_1,,,,,,,,,,,,,white,circle
0.0,8.0,0.0,1.0,3.0,3.0,386.6323879999527,1.0,1.0,phase_1,,,,,,,,,,,,,blue,hexagon
104.0,6.0,1.0,1.0,3.0,3.0,384.1907109999738,1.0,1.0,phase_1,,,,,,,,,,,,,magenta,flipped triangle
54.0,5.0,0.5,1.0,2.0,2.0,343.601081000088,1.0,1.0,phase_1,,,,,,,,,,,,,orange,cross
187.0,3.0,2.0,0.0,1.0,1.0,408.7794520000898,1.0,1.0,phase_1,,,,,,,,,,,,,white,circle
0.0,5.0,0.0,1.0,2.0,2.0,498.2177159999992,1.0,1.0,phase_1,,,,,,,,,,,,,orange,cross
112.0,2.0,1.0,0.0,3.0,3.0,453.8731720001578,2.0,1.0,phase_1,,,,,,,,,,,,,cyan,I
224.0,3.0,2.0,0.0,3.0,3.0,381.8318749999889,2.0,1.0,phase_1,,,,,,,,,,,,,white,circle
223.0,3.0,2.0,0.0,3.0,3.0,300.6145429999378,2.0,1.0,phase_1,,,,,,,,,,,,,white,circle
123.0,2.0,1.0,0.0,4.0,4.0,502.86622399994485,2.0,1.0,phase_1,,,,,,,,,,,,,cyan,I
0.0,5.0,0.0,1.0,3.0,3.0,381.031638999957,2.0,1.0,phase_1,,,,,,,,,,,,,orange,cross
59.0,1.0,0.5,0.0,2.0,2.0,329.4583839999632,2.0,1.0,phase_1,,,,,,,,,,,,,gray,square
0.0,4.0,0.0,0.0,3.0,3.0,416.883523000024,2.0,1.0,phase_1,,,,,,,,,,,,,yellow,triangle
0.0,3.0,0.0,0.0,3.0,3.0,362.3792240000512,2.0,1.0,phase_1,,,,,,,,,,,,,white,circle
88.0,6.0,1.0,1.0,4.0,4.0,496.1152949999814,2.0,1.0,phase_1,,,,,,,,,,,,,magenta,flipped triangle
0.0,4.0,0.0,0.0,1.0,1.0,417.0657120000669,2.0,1.0,phase_1,,,,,,,,,,,,,yellow,triangle
103.0,2.0,1.0,0.0,4.0,4.0,482.3672380000516,2.0,1.0,phase_1,,,,,,,,,,,,,cyan,I
101.0,6.0,1.0,1.0,1.0,1.0,469.9075820001326,2.0,1.0,phase_1,,,,,,,,,,,,,magenta,flipped triangle
119.0,2.0,1.0,0.0,1.0,1.0,434.3596409999009,2.0,1.0,phase_1,,,,,,,,,,,,,cyan,I
175.0,7.0,2.0,1.0,3.0,3.0,290.8216650000668,2.0,1.0,phase_1,,,,,,,,,,,,,green,diamond
218.0,3.0,2.0,0.0,4.0,4.0,373.9877339999111,2.0,1.0,phase_1,,,,,,,,,,,,,white,circle
70.0,5.0,0.5,1.0,3.0,3.0,378.6546290002661,2.0,1.0,phase_1,,,,,,,,,,,,,orange,cross
186.0,7.0,2.0,1.0,1.0,1.0,405.3890659997705,2.0,1.0,phase_1,,,,,,,,,,,,,green,diamond
28.0,5.0,0.5,1.0,2.0,2.0,335.7227510000484,2.0,1.0,phase_1,,,,,,,,,,,,,orange,cross
420.0,8.0,4.0,1.0,3.0,3.0,458.10617799998,2.0,1.0,phase_1,,,,,,,,,,,,,blue,hexagon
64.0,1.0,0.5,0.0,3.0,3.0,348.2863200001702,2.0,1.0,phase_1,,,,,,,,,,,,,gray,square
382.0,8.0,4.0,1.0,1.0,1.0,349.9612539999361,2.0,1.0,phase_1,,,,,,,,,,,,,blue,hexagon
219.0,7.0,2.0,1.0,2.0,2.0,467.0960910002577,2.0,1.0,phase_1,,,,,,,,,,,,,green,diamond
0.0,5.0,0.0,1.0,3.0,3.0,364.0660579999348,2.0,1.0,phase_1,,,,,,,,,,,,,orange,cross
0.0,1.0,0.0,0.0,1.0,1.0,324.9851560003662,2.0,1.0,phase_1,,,,,,,,,,,,,gray,square
76.0,6.0,1.0,1.0,4.0,4.0,427.1677279998584,2.0,1.0,phase_1,,,,,,,,,,,,,magenta,flipped triangle
101.0,2.0,1.0,0.0,4.0,4.0,287.0241450000321,2.0,1.0,phase_1,,,,,,,,,,,,,cyan,I
92.0,6.0,1.0,1.0,2.0,2.0,267.7951940004277,2.0,1.0,phase_1,,,,,,,,,,,,,magenta,flipped triangle
113.0,6.0,1.0,1.0,2.0,2.0,409.8401460000787,2.0,1.0,phase_1,,,,,,,,,,,,,magenta,flipped triangle
411.0,4.0,4.0,0.0,4.0,4.0,395.8625189998201,2.0,1.0,phase_1,,,,,,,,,,,,,yellow,triangle
222.0,3.0,2.0,0.0,4.0,4.0,377.8426330000002,2.0,1.0,phase_1,,,,,,,,,,,,,white,circle
183.0,7.0,2.0,1.0,3.0,3.0,390.1146769999286,2.0,1.0,phase_1,,,,,,,,,,,,,green,diamond
201.0,7.0,2.0,1.0,1.0,1.0,817.5116149996029,2.0,1.0,phase_1,,,,,,,,,,,,,green,diamond
218.0,7.0,2.0,1.0,4.0,4.0,392.4372709998351,2.0,1.0,phase_1,,,,,,,,,,,,,green,diamond
210.0,7.0,2.0,1.0,2.0,2.0,350.5303259998982,2.0,1.0,phase_1,,,,,,,,,,,,,green,diamond
0.0,3.0,0.0,0.0,3.0,3.0,304.9854660002893,2.0,1.0,phase_1,,,,,,,,,,,,,white,circle
87.0,6.0,1.0,1.0,2.0,2.0,289.4961970000622,2.0,1.0,phase_1,,,,,,,,,,,,,magenta,flipped triangle
0.0,6.0,0.0,1.0,4.0,4.0,486.6716330002418,2.0,1.0,phase_1,,,,,,,,,,,,,magenta,flipped triangle
85.0,6.0,1.0,1.0,4.0,4.0,396.32283099990667,2.0,1.0,phase_1,,,,,,,,,,,,,magenta,flipped triangle
98.0,2.0,1.0,0.0,1.0,1.0,337.0187860000442,2.0,1.0,phase_1,,,,,,,,,,,,,cyan,I
0.0,6.0,0.0,1.0,1.0,1.0,322.2300319998794,2.0,1.0,phase_1,,,,,,,,,,,,,magenta,flipped triangle
406.0,4.0,4.0,0.0,4.0,4.0,338.6256419998972,2.0,1.0,phase_1,,,,,,,,,,,,,yellow,triangle
0.0,1.0,0.0,0.0,2.0,2.0,444.0381960002924,2.0,1.0,phase_1,,,,,,,,,,,,,gray,square
0.0,8.0,0.0,1.0,4.0,4.0,356.2408180000602,2.0,1.0,phase_1,,,,,,,,,,,,,blue,hexagon
41.0,1.0,0.5,0.0,4.0,4.0,389.8964280001564,2.0,1.0,phase_1,,,,,,,,,,,,,gray,square
397.0,4.0,4.0,0.0,1.0,1.0,328.3036269999684,2.0,1.0,phase_1,,,,,,,,,,,,,yellow,triangle
201.0,3.0,2.0,0.0,3.0,3.0,360.5747919996247,2.0,1.0,phase_1,,,,,,,,,,,,,white,circle
101.0,2.0,1.0,0.0,2.0,2.0,321.5229120000913,2.0,1.0,phase_1,,,,,,,,,,,,,cyan,I
0.0,2.0,0.0,0.0,4.0,4.0,391.7578399996273,2.0,1.0,phase_1,,,,,,,,,,,,,cyan,I
407.0,8.0,4.0,1.0,3.0,3.0,340.5934980000893,2.0,1.0,phase_1,,,,,,,,,,,,,blue,hexagon
92.0,2.0,1.0,0.0,3.0,3.0,369.6543539999766,2.0,1.0,phase_1,,,,,,,,,,,,,cyan,I
50.0,5.0,0.5,1.0,3.0,3.0,355.0273190003281,2.0,1.0,phase_1,,,,,,,,,,,,,orange,cross
46.0,5.0,0.5,1.0,1.0,1.0,356.5465189999486,2.0,1.0,phase_1,,,,,,,,,,,,,orange,cross
384.0,4.0,4.0,0.0,4.0,4.0,385.5236540002806,2.0,1.0,phase_1,,,,,,,,,,,,,yellow,triangle
200.0,3.0,2.0,0.0,4.0,4.0,353.5120920000736,2.0,1.0,phase_1,,,,,,,,,,,,,white,circle
195.0,7.0,2.0,1.0,4.0,4.0,345.3962009998577,2.0,1.0,phase_1,,,,,,,,,,,,,green,diamond
78.0,6.0,1.0,1.0,2.0,2.0,317.5901939998766,2.0,1.0,phase_1,,,,,,,,,,,,,magenta,flipped triangle
0.0,4.0,0.0,0.0,1.0,1.0,321.5723130001606,2.0,1.0,phase_1,,,,,,,,,,,,,yellow,triangle
402.0,8.0,4.0,1.0,1.0,1.0,317.6829650001309,2.0,1.0,phase_1,,,,,,,,,,,,,blue,hexagon
0.0,1.0,0.0,0.0,4.0,4.0,431.4655379998839,2.0,1.0,phase_1,,,,,,,,,,,,,gray,square
31.0,1.0,0.5,0.0,2.0,2.0,370.0766010001644,2.0,1.0,phase_1,,,,,,,,,,,,,gray,square
36.0,5.0,0.5,1.0,1.0,1.0,361.2622430000556,2.0,1.0,phase_1,,,,,,,,,,,,,orange,cross
0.0,3.0,0.0,0.0,4.0,4.0,450.849425999877,2.0,1.0,phase_1,,,,,,,,,,,,,white,circle
104.0,2.0,1.0,0.0,4.0,4.0,306.2637279999762,2.0,1.0,phase_1,,,,,,,,,,,,,cyan,I
222.0,7.0,2.0,1.0,4.0,4.0,345.2920830000039,2.0,1.0,phase_1,,,,,,,,,,,,,green,diamond
87.0,6.0,1.0,1.0,3.0,3.0,360.0008509997678,2.0,1.0,phase_1,,,,,,,,,,,,,magenta,flipped triangle
114.0,6.0,1.0,1.0,2.0,2.0,348.7662789998467,2.0,1.0,phase_1,,,,,,,,,,,,,magenta,flipped triangle
383.0,8.0,4.0,1.0,1.0,1.0,430.5471570000918,2.0,1.0,phase_1,,,,,,,,,,,,,blue,hexagon
64.0,5.0,0.5,1.0,1.0,1.0,458.738550000362,2.0,1.0,phase_1,,,,,,,,,,,,,orange,cross
182.0,7.0,2.0,1.0,2.0,2.0,285.1174110001011,2.0,1.0,phase_1,,,,,,,,,,,,,green,diamond
124.0,2.0,1.0,0.0,1.0,1.0,326.3849439999831,2.0,1.0,phase_1,,,,,,,,,,,,,cyan,I
0.0,4.0,0.0,0.0,3.0,3.0,391.0472069997013,2.0,2.0,phase_1,,,,,,,,,,,,,yellow,triangle
74.0,1.0,0.5,0.0,2.0,2.0,387.6966879997781,2.0,1.0,phase_1,,,,,,,,,,,,,gray,square
48.0,1.0,0.5,0.0,2.0,2.0,381.7482909998944,2.0,1.0,phase_1,,,,,,,,,,,,,gray,square
0.0,3.0,0.0,0.0,4.0,4.0,428.8849700001265,2.0,1.0,phase_1,,,,,,,,,,,,,white,circle
119.0,6.0,1.0,1.0,3.0,3.0,348.839009999665,2.0,1.0,phase_1,,,,,,,,,,,,,magenta,flipped triangle
0.0,1.0,0.0,0.0,4.0,4.0,399.954131999948,2.0,1.0,phase_1,,,,,,,,,,,,,gray,square
402.0,4.0,4.0,0.0,3.0,3.0,395.5569079998895,2.0,1.0,phase_1,,,,,,,,,,,,,yellow,triangle
0.0,4.0,0.0,0.0,4.0,4.0,404.4782450000639,2.0,1.0,phase_1,,,,,,,,,,,,,yellow,triangle
116.0,6.0,1.0,1.0,4.0,4.0,371.76515400005877,2.0,1.0,phase_1,,,,,,,,,,,,,magenta,flipped triangle
0.0,2.0,0.0,0.0,1.0,1.0,493.1830320001609,2.0,1.0,phase_1,,,,,,,,,,,,,cyan,I
56.0,1.0,0.5,0.0,1.0,1.0,358.3130510000956,2.0,1.0,phase_1,,,,,,,,,,,,,gray,square
385.0,4.0,4.0,0.0,1.0,1.0,350.7440769999448,2.0,1.0,phase_1,,,,,,,,,,,,,yellow,triangle
111.0,6.0,1.0,1.0,1.0,1.0,378.2216219997281,2.0,1.0,phase_1,,,,,,,,,,,,,magenta,flipped triangle
68.0,1.0,0.5,0.0,3.0,3.0,400.5963319996226,2.0,1.0,phase_1,,,,,,,,,,,,,gray,square
210.0,3.0,2.0,0.0,1.0,1.0,493.0693979999887,2.0,1.0,phase_1,,,,,,,,,,,,,white,circle
398.0,8.0,4.0,1.0,1.0,1.0,385.4493050002929,2.0,1.0,phase_1,,,,,,,,,,,,,blue,hexagon
28.0,1.0,0.5,0.0,2.0,2.0,612.839828000233,2.0,1.0,phase_1,,,,,,,,,,,,,gray,square
200.0,3.0,2.0,0.0,2.0,2.0,320.8939749997626,2.0,1.0,phase_1,,,,,,,,,,,,,white,circle
61.0,1.0,0.5,0.0,3.0,3.0,384.3445819998123,2.0,1.0,phase_1,,,,,,,,,,,,,gray,square
0.0,5.0,0.0,1.0,3.0,3.0,423.9005540002836,2.0,1.0,phase_1,,,,,,,,,,,,,orange,cross
101.0,6.0,1.0,1.0,4.0,4.0,414.5132890002969,2.0,1.0,phase_1,,,,,,,,,,,,,magenta,flipped triangle
116.0,6.0,1.0,1.0,1.0,1.0,460.2659639999729,2.0,1.0,phase_1,,,,,,,,,,,,,magenta,flipped triangle
420.0,4.0,4.0,0.0,1.0,1.0,277.7450319999843,2.0,1.0,phase_1,,,,,,,,,,,,,yellow,triangle
0.0,8.0,0.0,1.0,4.0,4.0,427.1240489997581,2.0,1.0,phase_1,,,,,,,,,,,,,blue,hexagon
381.0,4.0,4.0,0.0,3.0,3.0,376.7448949997742,2.0,1.0,phase_1,,,,,,,,,,,,,yellow,triangle
37.0,5.0,0.5,1.0,4.0,4.0,432.3939529999734,2.0,1.0,phase_1,,,,,,,,,,,,,orange,cross
398.0,4.0,4.0,0.0,3.0,3.0,366.4696150003692,2.0,1.0,phase_1,,,,,,,,,,,,,yellow,triangle
215.0,3.0,2.0,0.0,3.0,3.0,442.9524850002053,2.0,1.0,phase_1,,,,,,,,,,,,,white,circle
219.0,3.0,2.0,0.0,1.0,1.0,341.001612999662,2.0,1.0,phase_1,,,,,,,,,,,,,white,circle
0.0,8.0,0.0,1.0,1.0,1.0,355.4594759998508,2.0,1.0,phase_1,,,,,,,,,,,,,blue,hexagon
95.0,2.0,1.0,0.0,1.0,1.0,522.6164509999762,3.0,1.0,phase_1,,,,,,,,,,,,,cyan,I
57.0,5.0,0.5,1.0,1.0,1.0,321.1733129996901,3.0,1.0,phase_1,,,,,,,,,,,,,orange,cross
385.0,8.0,4.0,1.0,2.0,2.0,341.6049130000829,3.0,1.0,phase_1,,,,,,,,,,,,,blue,hexagon
0.0,1.0,0.0,0.0,4.0,4.0,430.0326600000517,3.0,1.0,phase_1,,,,,,,,,,,,,gray,square
194.0,3.0,2.0,0.0,4.0,4.0,356.7648319999534,3.0,1.0,phase_1,,,,,,,,,,,,,white,circle
0.0,4.0,0.0,0.0,1.0,1.0,283.5700089999591,3.0,1.0,phase_1,,,,,,,,,,,,,yellow,triangle
177.0,7.0,2.0,1.0,3.0,3.0,349.1017170003943,3.0,1.0,phase_1,,,,,,,,,,,,,green,diamond
410.0,8.0,4.0,1.0,4.0,4.0,423.5149999999521,3.0,1.0,phase_1,,,,,,,,,,,,,blue,hexagon
81.0,2.0,1.0,0.0,4.0,4.0,380.3635159997611,3.0,1.0,phase_1,,,,,,,,,,,,,cyan,I
119.0,2.0,1.0,0.0,2.0,2.0,333.863688999827,3.0,1.0,phase_1,,,,,,,,,,,,,cyan,I
51.0,5.0,0.5,1.0,3.0,3.0,390.5422210000324,3.0,1.0,phase_1,,,,,,,,,,,,,orange,cross
379.0,4.0,4.0,0.0,3.0,3.0,386.1887089997253,3.0,1.0,phase_1,,,,,,,,,,,,,yellow,triangle
407.0,8.0,4.0,1.0,3.0,3.0,312.9956200000379,3.0,1.0,phase_1,,,,,,,,,,,,,blue,hexagon
215.0,7.0,2.0,1.0,3.0,3.0,283.5396819996276,3.0,1.0,phase_1,,,,,,,,,,,,,green,diamond
383.0,4.0,4.0,0.0,2.0,2.0,386.4166979997208,3.0,1.0,phase_1,,,,,,,,,,,,,yellow,triangle
210.0,3.0,2.0,0.0,4.0,4.0,419.8339590002433,3.0,1.0,phase_1,,,,,,,,,,,,,white,circle
33.0,1.0,0.5,0.0,2.0,2.0,380.9531709998737,3.0,1.0,phase_1,,,,,,,,,,,,,gray,square
112.0,6.0,1.0,1.0,1.0,1.0,346.1554270002125,3.0,1.0,phase_1,,,,,,,,,,,,,magenta,flipped triangle
0.0,2.0,0.0,0.0,4.0,4.0,465.0541880000673,3.0,1.0,phase_1,,,,,,,,,,,,,cyan,I
61.0,5.0,0.5,1.0,1.0,1.0,441.4706640000077,3.0,1.0,phase_1,,,,,,,,,,,,,orange,cross
396.0,8.0,4.0,1.0,3.0,3.0,331.1312040000302,3.0,1.0,phase_1,,,,,,,,,,,,,blue,hexagon
31.0,1.0,0.5,0.0,3.0,3.0,350.8914359999835,3.0,1.0,phase_1,,,,,,,,,,,,,gray,square
89.0,6.0,1.0,1.0,1.0,1.0,353.106495999782,3.0,1.0,phase_1,,,,,,,,,,,,,magenta,flipped triangle
387.0,8.0,4.0,1.0,3.0,3.0,373.4007729999575,3.0,1.0,phase_1,,,,,,,,,,,,,blue,hexagon
181.0,7.0,2.0,1.0,4.0,4.0,421.8388340000274,3.0,2.0,phase_1,,,,,,,,,,,,,green,diamond
392.0,4.0,4.0,0.0,1.0,1.0,393.873436999911,3.0,1.0,phase_1,,,,,,,,,,,,,yellow,triangle
73.0,5.0,0.5,1.0,3.0,3.0,595.9379720002289,3.0,1.0,phase_1,,,,,,,,,,,,,orange,cross
181.0,3.0,2.0,0.0,3.0,3.0,323.8183659996139,3.0,1.0,phase_1,,,,,,,,,,,,,white,circle
0.0,3.0,0.0,0.0,3.0,3.0,357.5252820000969,3.0,1.0,phase_1,,,,,,,,,,,,,white,circle
57.0,1.0,0.5,0.0,4.0,4.0,375.3697470001498,3.0,1.0,phase_1,,,,,,,,,,,,,gray,square
415.0,4.0,4.0,0.0,3.0,3.0,337.0708739998918,3.0,1.0,phase_1,,,,,,,,,,,,,yellow,triangle
28.0,1.0,0.5,0.0,1.0,1.0,387.9507850001573,3.0,1.0,phase_1,,,,,,,,,,,,,gray,square
33.0,5.0,0.5,1.0,1.0,1.0,383.1011819997911,3.0,1.0,phase_1,,,,,,,,,,,,,orange,cross
48.0,5.0,0.5,1.0,4.0,4.0,465.8367040001394,3.0,1.0,phase_1,,,,,,,,,,,,,orange,cross
0.0,6.0,0.0,1.0,4.0,4.0,629.594697000357,3.0,1.0,phase_1,,,,,,,,,,,,,magenta,flipped triangle
396.0,8.0,4.0,1.0,3.0,3.0,371.1793040001794,3.0,1.0,phase_1,,,,,,,,,,,,,blue,hexagon
90.0,6.0,1.0,1.0,1.0,1.0,586.9290069999806,3.0,1.0,phase_1,,,,,,,,,,,,,magenta,flipped triangle
385.0,8.0,4.0,1.0,4.0,4.0,358.9230180000413,3.0,1.0,phase_1,,,,,,,,,,,,,blue,hexagon
425.0,8.0,4.0,1.0,1.0,1.0,378.7954639997224,3.0,1.0,phase_1,,,,,,,,,,,,,blue,hexagon
0.0,7.0,0.0,1.0,3.0,3.0,385.8225569997557,3.0,1.0,phase_1,,,,,,,,,,,,,green,diamond
81.0,6.0,1.0,1.0,3.0,3.0,344.798996999998,3.0,1.0,phase_1,,,,,,,,,,,,,magenta,flipped triangle
189.0,3.0,2.0,0.0,3.0,3.0,422.0116739998047,3.0,1.0,phase_1,,,,,,,,,,,,,white,circle
224.0,7.0,2.0,1.0,4.0,4.0,384.0785110000979,3.0,1.0,phase_1,,,,,,,,,,,,,green,diamond
0.0,2.0,0.0,0.0,3.0,3.0,347.0181650000086,3.0,1.0,phase_1,,,,,,,,,,,,,cyan,I
116.0,2.0,1.0,0.0,3.0,3.0,412.4864489999709,3.0,1.0,phase_1,,,,,,,,,,,,,cyan,I
119.0,6.0,1.0,1.0,4.0,4.0,438.2484410002689,3.0,1.0,phase_1,,,,,,,,,,,,,magenta,flipped triangle
424.0,8.0,4.0,1.0,3.0,3.0,413.0124860002979,3.0,1.0,phase_1,,,,,,,,,,,,,blue,hexagon
123.0,6.0,1.0,1.0,2.0,2.0,357.5585359999422,3.0,1.0,phase_1,,,,,,,,,,,,,magenta,flipped triangle
215.0,3.0,2.0,0.0,1.0,1.0,308.3816020002814,3.0,1.0,phase_1,,,,,,,,,,,,,white,circle
200.0,7.0,2.0,1.0,4.0,4.0,461.8347949999588,3.0,1.0,phase_1,,,,,,,,,,,,,green,diamond
59.0,5.0,0.5,1.0,2.0,2.0,359.9542900001324,3.0,1.0,phase_1,,,,,,,,,,,,,orange,cross
51.0,1.0,0.5,0.0,3.0,3.0,347.0582489999287,3.0,1.0,phase_1,,,,,,,,,,,,,gray,square
385.0,4.0,4.0,0.0,3.0,3.0,367.0009530001152,3.0,1.0,phase_1,,,,,,,,,,,,,yellow,triangle
425.0,4.0,4.0,0.0,3.0,3.0,362.3881050002637,3.0,1.0,phase_1,,,,,,,,,,,,,yellow,triangle
0.0,6.0,0.0,1.0,3.0,3.0,357.7692059998298,3.0,1.0,phase_1,,,,,,,,,,,,,magenta,flipped triangle
0.0,4.0,0.0,0.0,1.0,1.0,360.0797530002637,3.0,1.0,phase_1,,,,,,,,,,,,,yellow,triangle
192.0,7.0,2.0,1.0,3.0,3.0,403.6237089999304,3.0,1.0,phase_1,,,,,,,,,,,,,green,diamond
400.0,8.0,4.0,1.0,2.0,2.0,447.1520490001239,3.0,1.0,phase_1,,,,,,,,,,,,,blue,hexagon
410.0,4.0,4.0,0.0,2.0,2.0,369.6197609997398,3.0,1.0,phase_1,,,,,,,,,,,,,yellow,triangle
68.0,5.0,0.5,1.0,3.0,3.0,321.0180159999254,3.0,1.0,phase_1,,,,,,,,,,,,,orange,cross
177.0,3.0,2.0,0.0,2.0,2.0,394.8209649997807,3.0,1.0,phase_1,,,,,,,,,,,,,white,circle
90.0,2.0,1.0,0.0,4.0,4.0,486.6250559998661,3.0,1.0,phase_1,,,,,,,,,,,,,cyan,I
418.0,8.0,4.0,1.0,4.0,4.0,352.5547029998961,3.0,1.0,phase_1,,,,,,,,,,,,,blue,hexagon
186.0,3.0,2.0,0.0,4.0,4.0,365.0086759998885,3.0,1.0,phase_1,,,,,,,,,,,,,white,circle
0.0,2.0,0.0,0.0,3.0,3.0,427.158951000365,3.0,1.0,phase_1,,,,,,,,,,,,,cyan,I
81.0,6.0,1.0,1.0,1.0,1.0,481.3172019999001,3.0,1.0,phase_1,,,,,,,,,,,,,magenta,flipped triangle
0.0,5.0,0.0,1.0,2.0,2.0,573.0780250000862,3.0,1.0,phase_1,,,,,,,,,,,,,orange,cross
121.0,2.0,1.0,0.0,3.0,3.0,319.6612619999541,3.0,1.0,phase_1,,,,,,,,,,,,,cyan,I
220.0,3.0,2.0,0.0,1.0,1.0,313.5280330002388,3.0,1.0,phase_1,,,,,,,,,,,,,white,circle
31.0,5.0,0.5,1.0,2.0,2.0,523.4641669999291,3.0,1.0,phase_1,,,,,,,,,,,,,orange,cross
40.0,1.0,0.5,0.0,1.0,1.0,312.7669189998414,3.0,1.0,phase_1,,,,,,,,,,,,,gray,square
109.0,6.0,1.0,1.0,2.0,2.0,274.7379800002818,3.0,1.0,phase_1,,,,,,,,,,,,,magenta,flipped triangle
178.0,3.0,2.0,0.0,1.0,1.0,325.6544760001816,3.0,1.0,phase_1,,,,,,,,,,,,,white,circle
77.0,2.0,1.0,0.0,1.0,1.0,278.2491779998963,3.0,1.0,phase_1,,,,,,,,,,,,,cyan,I
0.0,8.0,0.0,1.0,1.0,1.0,327.4094280000099,3.0,1.0,phase_1,,,,,,,,,,,,,blue,hexagon
41.0,5.0,0.5,1.0,4.0,4.0,387.3745149999195,3.0,1.0,phase_1,,,,,,,,,,,,,orange,cross
424.0,4.0,4.0,0.0,3.0,3.0,348.1781820000833,3.0,1.0,phase_1,,,,,,,,,,,,,yellow,triangle
0.0,6.0,0.0,1.0,2.0,2.0,342.0848620003198,3.0,1.0,phase_1,,,,,,,,,,,,,magenta,flipped triangle
210.0,3.0,2.0,0.0,4.0,4.0,329.4613040002332,3.0,1.0,phase_1,,,,,,,,,,,,,white,circle
0.0,4.0,0.0,0.0,1.0,1.0,300.1319559998592,3.0,1.0,phase_1,,,,,,,,,,,,,yellow,triangle
111.0,2.0,1.0,0.0,2.0,2.0,334.1571460000523,3.0,1.0,phase_1,,,,,,,,,,,,,cyan,I
70.0,1.0,0.5,0.0,4.0,4.0,426.2150069998824,3.0,1.0,phase_1,,,,,,,,,,,,,gray,square
104.0,6.0,1.0,1.0,4.0,4.0,443.7495330003003,3.0,1.0,phase_1,,,,,,,,,,,,,magenta,flipped triangle
186.0,3.0,2.0,0.0,2.0,2.0,286.5946279998752,3.0,1.0,phase_1,,,,,,,,,,,,,white,circle
119.0,2.0,1.0,0.0,2.0,2.0,308.9639959998749,3.0,1.0,phase_1,,,,,,,,,,,,,cyan,I
38.0,1.0,0.5,0.0,4.0,4.0,411.3477040000362,3.0,1.0,phase_1,,,,,,,,,,,,,gray,square
31.0,5.0,0.5,1.0,3.0,3.0,400.8764100003645,3.0,1.0,phase_1,,,,,,,,,,,,,orange,cross
415.0,8.0,4.0,1.0,1.0,1.0,343.6433340002622,3.0,1.0,phase_1,,,,,,,,,,,,,blue,hexagon
192.0,3.0,2.0,0.0,3.0,3.0,334.0783950002333,3.0,1.0,phase_1,,,,,,,,,,,,,white,circle
0.0,6.0,0.0,1.0,4.0,4.0,451.2192939996566,3.0,1.0,phase_1,,,,,,,,,,,,,magenta,flipped triangle
376.0,8.0,4.0,1.0,4.0,4.0,414.3463780001184,3.0,1.0,phase_1,,,,,,,,,,,,,blue,hexagon
395.0,8.0,4.0,1.0,2.0,2.0,544.0443699999378,3.0,1.0,phase_1,,,,,,,,,,,,,blue,hexagon
0.0,3.0,0.0,0.0,4.0,4.0,320.5178419998447,3.0,1.0,phase_1,,,,,,,,,,,,,white,circle
415.0,8.0,4.0,1.0,1.0,1.0,646.1560840002676,3.0,1.0,phase_1,,,,,,,,,,,,,blue,hexagon
43.0,1.0,0.5,0.0,1.0,1.0,317.1449410001514,3.0,1.0,phase_1,,,,,,,,,,,,,gray,square
0.0,3.0,0.0,0.0,4.0,4.0,351.1553719999938,3.0,1.0,phase_1,,,,,,,,,,,,,white,circle
72.0,5.0,0.5,1.0,4.0,4.0,385.3674890001457,3.0,1.0,phase_1,,,,,,,,,,,,,orange,cross
93.0,2.0,1.0,0.0,2.0,2.0,543.3385870001075,3.0,1.0,phase_1,,,,,,,,,,,,,cyan,I
54.0,5.0,0.5,1.0,2.0,2.0,390.8987240001806,3.0,1.0,phase_1,,,,,,,,,,,,,orange,cross
93.0,6.0,1.0,1.0,3.0,3.0,521.8559270001606,3.0,1.0,phase_1,,,,,,,,,,,,,magenta,flipped triangle
121.0,6.0,1.0,1.0,1.0,1.0,351.6909199997826,4.0,1.0,phase_1,,,,,,,,,,,,,magenta,flipped triangle
40.0,5.0,0.5,1.0,3.0,3.0,387.842599999658,4.0,1.0,phase_1,,,,,,,,,,,,,orange,cross
0.0,7.0,0.0,1.0,1.0,1.0,393.6138760000176,4.0,1.0,phase_1,,,,,,,,,,,,,green,diamond
88.0,2.0,1.0,0.0,3.0,3.0,281.0804740001913,4.0,1.0,phase_1,,,,,,,,,,,,,cyan,I
400.0,4.0,4.0,0.0,1.0,1.0,328.1662310000683,4.0,1.0,phase_1,,,,,,,,,,,,,yellow,triangle
175.0,3.0,2.0,0.0,2.0,2.0,322.1182000002045,4.0,1.0,phase_1,,,,,,,,,,,,,white,circle
31.0,1.0,0.5,0.0,4.0,4.0,364.8751089999678,4.0,1.0,phase_1,,,,,,,,,,,,,gray,square
206.0,7.0,2.0,1.0,2.0,2.0,317.4546119998922,4.0,1.0,phase_1,,,,,,,,,,,,,green,diamond
114.0,2.0,1.0,0.0,4.0,4.0,483.9528170000449,4.0,1.0,phase_1,,,,,,,,,,,,,cyan,I
89.0,2.0,1.0,0.0,2.0,2.0,326.276443000097,4.0,1.0,phase_1,,,,,,,,,,,,,cyan,I
84.0,2.0,1.0,0.0,1.0,1.0,314.8891169998933,4.0,1.0,phase_1,,,,,,,,,,,,,cyan,I
90.0,2.0,1.0,0.0,4.0,4.0,406.1709580000752,4.0,1.0,phase_1,,,,,,,,,,,,,cyan,I
210.0,7.0,2.0,1.0,4.0,4.0,459.7184489998653,4.0,1.0,phase_1,,,,,,,,,,,,,green,diamond
74.0,5.0,0.5,1.0,1.0,1.0,357.377040999836,4.0,1.0,phase_1,,,,,,,,,,,,,orange,cross
390.0,8.0,4.0,1.0,4.0,4.0,355.9601839997413,4.0,1.0,phase_1,,,,,,,,,,,,,blue,hexagon
50.0,1.0,0.5,0.0,3.0,3.0,396.4007239997045,4.0,1.0,phase_1,,,,,,,,,,,,,gray,square
109.0,2.0,1.0,0.0,3.0,3.0,367.2757499998624,4.0,1.0,phase_1,,,,,,,,,,,,,cyan,I
84.0,6.0,1.0,1.0,2.0,2.0,319.5656470002177,4.0,1.0,phase_1,,,,,,,,,,,,,magenta,flipped triangle
387.0,4.0,4.0,0.0,2.0,2.0,338.0480900000293,4.0,1.0,phase_1,,,,,,,,,,,,,yellow,triangle
397.0,8.0,4.0,1.0,2.0,2.0,353.8406489997214,4.0,1.0,phase_1,,,,,,,,,,,,,blue,hexagon
187.0,7.0,2.0,1.0,2.0,2.0,350.7330510001338,4.0,1.0,phase_1,,,,,,,,,,,,,green,diamond
64.0,5.0,0.5,1.0,3.0,3.0,374.3407619999743,4.0,1.0,phase_1,,,,,,,,,,,,,orange,cross
379.0,8.0,4.0,1.0,3.0,3.0,436.1952399999609,4.0,1.0,phase_1,,,,,,,,,,,,,blue,hexagon
384.0,8.0,4.0,1.0,4.0,4.0,464.1511199997694,4.0,1.0,phase_1,,,,,,,,,,,,,blue,hexagon
95.0,6.0,1.0,1.0,2.0,2.0,406.0263199999099,4.0,1.0,phase_1,,,,,,,,,,,,,magenta,flipped triangle
95.0,6.0,1.0,1.0,4.0,4.0,429.7754240001268,4.0,1.0,phase_1,,,,,,,,,,,,,magenta,flipped triangle
0.0,2.0,0.0,0.0,4.0,4.0,407.4678590000076,4.0,1.0,phase_1,,,,,,,,,,,,,cyan,I
224.0,7.0,2.0,1.0,1.0,1.0,391.7574950000926,4.0,1.0,phase_1,,,,,,,,,,,,,green,diamond
210.0,3.0,2.0,0.0,4.0,4.0,307.6684539996677,4.0,1.0,phase_1,,,,,,,,,,,,,white,circle
0.0,6.0,0.0,1.0,4.0,4.0,426.17716999984617,4.0,1.0,phase_1,,,,,,,,,,,,,magenta,flipped triangle
224.0,3.0,2.0,0.0,1.0,1.0,366.7990939998162,4.0,1.0,phase_1,,,,,,,,,,,,,white,circle
0.0,8.0,0.0,1.0,1.0,1.0,333.8492860002588,4.0,1.0,phase_1,,,,,,,,,,,,,blue,hexagon
407.0,4.0,4.0,0.0,1.0,1.0,325.8775960002822,4.0,1.0,phase_1,,,,,,,,,,,,,yellow,triangle
178.0,3.0,2.0,0.0,2.0,2.0,358.986540999922,4.0,1.0,phase_1,,,,,,,,,,,,,white,circle
36.0,1.0,0.5,0.0,2.0,2.0,353.3823820002908,4.0,1.0,phase_1,,,,,,,,,,,,,gray,square
38.0,5.0,0.5,1.0,3.0,3.0,325.0644979998469,4.0,1.0,phase_1,,,,,,,,,,,,,orange,cross
194.0,7.0,2.0,1.0,3.0,3.0,361.1949050000476,4.0,2.0,phase_1,,,,,,,,,,,,,green,diamond
182.0,3.0,2.0,0.0,3.0,3.0,379.7873089997665,4.0,1.0,phase_1,,,,,,,,,,,,,white,circle
406.0,8.0,4.0,1.0,1.0,1.0,428.813830999843,4.0,1.0,phase_1,,,,,,,,,,,,,blue,hexagon
409.0,4.0,4.0,0.0,4.0,4.0,379.2667060001804,4.0,1.0,phase_1,,,,,,,,,,,,,yellow,triangle
0.0,1.0,0.0,0.0,4.0,4.0,416.9699089998175,4.0,1.0,phase_1,,,,,,,,,,,,,gray,square
63.0,5.0,0.5,1.0,4.0,4.0,347.7282399999239,4.0,1.0,phase_1,,,,,,,,,,,,,orange,cross
77.0,6.0,1.0,1.0,3.0,3.0,472.6589229999263,4.0,1.0,phase_1,,,,,,,,,,,,,magenta,flipped triangle
91.0,6.0,1.0,1.0,3.0,3.0,368.6456080004063,4.0,1.0,phase_1,,,,,,,,,,,,,magenta,flipped triangle
0.0,2.0,0.0,0.0,3.0,3.0,384.1130680002607,4.0,1.0,phase_1,,,,,,,,,,,,,cyan,I
208.0,3.0,2.0,0.0,2.0,2.0,528.1043330001012,4.0,1.0,phase_1,,,,,,,,,,,,,white,circle
54.0,1.0,0.5,0.0,4.0,4.0,419.6296469999652,4.0,1.0,phase_1,,,,,,,,,,,,,gray,square
222.0,7.0,2.0,1.0,1.0,1.0,492.4404799999138,4.0,1.0,phase_1,,,,,,,,,,,,,green,diamond
381.0,4.0,4.0,0.0,4.0,4.0,352.1122289998857,4.0,1.0,phase_1,,,,,,,,,,,,,yellow,triangle
0.0,6.0,0.0,1.0,3.0,3.0,352.3073470000781,4.0,1.0,phase_1,,,,,,,,,,,,,magenta,flipped triangle
56.0,5.0,0.5,1.0,4.0,4.0,372.5319260001924,4.0,1.0,phase_1,,,,,,,,,,,,,orange,cross
0.0,5.0,0.0,1.0,4.0,4.0,375.6554659998983,4.0,1.0,phase_1,,,,,,,,,,,,,orange,cross
418.0,4.0,4.0,0.0,1.0,1.0,426.7460089999986,4.0,1.0,phase_1,,,,,,,,,,,,,yellow,triangle
37.0,1.0,0.5,0.0,1.0,1.0,334.9747930001285,4.0,1.0,phase_1,,,,,,,,,,,,,gray,square
98.0,6.0,1.0,1.0,1.0,1.0,383.3978669999851,4.0,1.0,phase_1,,,,,,,,,,,,,magenta,flipped triangle
0.0,2.0,0.0,0.0,1.0,1.0,337.4468350002644,4.0,1.0,phase_1,,,,,,,,,,,,,cyan,I
0.0,6.0,0.0,1.0,1.0,1.0,402.1030389999396,4.0,1.0,phase_1,,,,,,,,,,,,,magenta,flipped triangle
57.0,5.0,0.5,1.0,4.0,4.0,402.949671999977,4.0,1.0,phase_1,,,,,,,,,,,,,orange,cross
206.0,3.0,2.0,0.0,2.0,2.0,555.3214150004351,4.0,1.0,phase_1,,,,,,,,,,,,,white,circle
0.0,8.0,0.0,1.0,2.0,2.0,408.0062860002726,4.0,1.0,phase_1,,,,,,,,,,,,,blue,hexagon
210.0,7.0,2.0,1.0,2.0,2.0,356.2827609998749,4.0,1.0,phase_1,,,,,,,,,,,,,green,diamond
215.0,7.0,2.0,1.0,1.0,1.0,361.087833000056,4.0,1.0,phase_1,,,,,,,,,,,,,green,diamond
0.0,1.0,0.0,0.0,4.0,4.0,719.5635510001921,4.0,1.0,phase_1,,,,,,,,,,,,,gray,square
113.0,2.0,1.0,0.0,3.0,3.0,385.0623850003103,4.0,1.0,phase_1,,,,,,,,,,,,,cyan,I
119.0,6.0,1.0,1.0,1.0,1.0,318.1162900000345,4.0,1.0,phase_1,,,,,,,,,,,,,magenta,flipped triangle
0.0,8.0,0.0,1.0,4.0,4.0,458.1061060002867,4.0,1.0,phase_1,,,,,,,,,,,,,blue,hexagon
124.0,6.0,1.0,1.0,4.0,4.0,361.2322230001155,4.0,1.0,phase_1,,,,,,,,,,,,,magenta,flipped triangle
195.0,3.0,2.0,0.0,2.0,2.0,377.9349530000218,4.0,1.0,phase_1,,,,,,,,,,,,,white,circle
104.0,2.0,1.0,0.0,2.0,2.0,381.7526110001381,4.0,1.0,phase_1,,,,,,,,,,,,,cyan,I
103.0,6.0,1.0,1.0,3.0,3.0,315.9720150001703,4.0,1.0,phase_1,,,,,,,,,,,,,magenta,flipped triangle
67.0,5.0,0.5,1.0,2.0,2.0,345.6312550001712,4.0,1.0,phase_1,,,,,,,,,,,,,orange,cross
64.0,1.0,0.5,0.0,2.0,2.0,361.9865230002688,4.0,1.0,phase_1,,,,,,,,,,,,,gray,square
28.0,5.0,0.5,1.0,4.0,4.0,353.7183889998232,4.0,1.0,phase_1,,,,,,,,,,,,,orange,cross
190.0,3.0,2.0,0.0,1.0,1.0,396.3222049997057,4.0,1.0,phase_1,,,,,,,,,,,,,white,circle
54.0,1.0,0.5,0.0,4.0,4.0,316.8040579998887,4.0,1.0,phase_1,,,,,,,,,,,,,gray,square
48.0,5.0,0.5,1.0,2.0,2.0,308.0713790000118,4.0,1.0,phase_1,,,,,,,,,,,,,orange,cross
85.0,2.0,1.0,0.0,4.0,4.0,348.2100890000765,4.0,1.0,phase_1,,,,,,,,,,,,,cyan,I
63.0,1.0,0.5,0.0,1.0,1.0,376.2916959999529,4.0,1.0,phase_1,,,,,,,,,,,,,gray,square
0.0,7.0,0.0,1.0,1.0,1.0,357.5013690001469,4.0,1.0,phase_1,,,,,,,,,,,,,green,diamond
220.0,7.0,2.0,1.0,4.0,4.0,353.0831829998533,4.0,1.0,phase_1,,,,,,,,,,,,,green,diamond
222.0,3.0,2.0,0.0,2.0,2.0,291.1868239998512,4.0,1.0,phase_1,,,,,,,,,,,,,white,circle
0.0,4.0,0.0,0.0,4.0,4.0,365.7225950000793,4.0,1.0,phase_1,,,,,,,,,,,,,yellow,triangle
200.0,7.0,2.0,1.0,1.0,1.0,360.6690959995831,4.0,1.0,phase_1,,,,,,,,,,,,,green,diamond
198.0,3.0,2.0,0.0,4.0,4.0,360.1581899997654,4.0,1.0,phase_1,,,,,,,,,,,,,white,circle
26.0,1.0,0.5,0.0,3.0,3.0,500.9325800001534,4.0,1.0,phase_1,,,,,,,,,,,,,gray,square
32.0,1.0,0.5,0.0,4.0,4.0,388.9081080001233,4.0,1.0,phase_1,,,,,,,,,,,,,gray,square
0.0,2.0,0.0,0.0,4.0,4.0,402.1298040001966,4.0,1.0,phase_1,,,,,,,,,,,,,cyan,I
189.0,7.0,2.0,1.0,1.0,1.0,526.0183599998527,4.0,1.0,phase_1,,,,,,,,,,,,,green,diamond
0.0,7.0,0.0,1.0,3.0,3.0,443.1862639999053,4.0,1.0,phase_1,,,,,,,,,,,,,green,diamond
178.0,7.0,2.0,1.0,3.0,3.0,356.1942710002768,4.0,1.0,phase_1,,,,,,,,,,,,,green,diamond
395.0,8.0,4.0,1.0,1.0,1.0,497.7617109998391,4.0,1.0,phase_1,,,,,,,,,,,,,blue,hexagon
97.0,2.0,1.0,0.0,2.0,2.0,377.7690339998116,4.0,1.0,phase_1,,,,,,,,,,,,,cyan,I
34.0,5.0,0.5,1.0,1.0,1.0,349.1085040000143,4.0,1.0,phase_1,,,,,,,,,,,,,orange,cross
81.0,2.0,1.0,0.0,2.0,2.0,339.6254350000163,4.0,1.0,phase_1,,,,,,,,,,,,,cyan,I
0.0,8.0,0.0,1.0,3.0,3.0,473.6660880003001,4.0,1.0,phase_1,,,,,,,,,,,,,blue,hexagon
97.0,6.0,1.0,1.0,4.0,4.0,443.3232969995515,4.0,1.0,phase_1,,,,,,,,,,,,,magenta,flipped triangle
418.0,8.0,4.0,1.0,4.0,4.0,430.4169170000023,4.0,1.0,phase_1,,,,,,,,,,,,,blue,hexagon
404.0,8.0,4.0,1.0,1.0,1.0,371.6423010000653,4.0,1.0,phase_1,,,,,,,,,,,,,blue,hexagon
91.0,2.0,1.0,0.0,3.0,3.0,534.7731850001765,4.0,1.0,phase_1,,,,,,,,,,,,,cyan,I
0.0,5.0,0.0,1.0,3.0,3.0,402.4426979999589,4.0,1.0,phase_1,,,,,,,,,,,,,orange,cross
0.0,7.0,2.0,1.0,5.0,5.0,412.2941310001806,1.0,1.0,phase_2,stop,250.0,250.0,3.0,,,,,,,,,green,diamond
0.0,2.0,1.0,0.0,6.0,6.0,573.060555000211,1.0,1.0,phase_2,go,200.0,250.0,1.0,,,,,,,,,cyan,I
0.0,3.0,2.0,0.0,5.0,5.0,513.2941290003146,1.0,1.0,phase_2,go,200.0,250.0,1.0,,,,,,,,,white,circle
0.0,4.0,4.0,0.0,6.0,6.0,533.959497000069,1.0,1.0,phase_2,go,200.0,250.0,1.0,,,,,,,,,yellow,triangle
0.0,5.0,0.5,1.0,6.0,6.0,385.3453850001642,1.0,1.0,phase_2,go,200.0,250.0,1.0,,,,,,,,,orange,cross
0.0,1.0,0.5,0.0,5.0,5.0,583.2236490000469,1.0,1.0,phase_2,go,200.0,250.0,1.0,,,,,,,,,gray,square
0.0,2.0,1.0,0.0,5.0,5.0,413.5958140000184,1.0,1.0,phase_2,go,200.0,250.0,1.0,,,,,,,,,cyan,I
0.0,5.0,0.5,1.0,5.0,5.0,680.8821680001529,1.0,1.0,phase_2,stop,200.0,250.0,3.0,,,,,,,,,orange,cross
0.0,3.0,2.0,0.0,5.0,5.0,537.8483119998236,1.0,1.0,phase_2,go,150.0,250.0,1.0,,,,,,,,,white,circle
0.0,8.0,4.0,1.0,5.0,0.0,0.0,1.0,1.0,phase_2,stop,150.0,250.0,4.0,,,,,,,,,blue,hexagon
0.0,6.0,1.0,1.0,6.0,6.0,525.0463009997475,1.0,1.0,phase_2,go,200.0,250.0,1.0,,,,,,,,,magenta,flipped triangle
0.0,7.0,2.0,1.0,6.0,0.0,0.0,1.0,1.0,phase_2,stop,200.0,250.0,4.0,,,,,,,,,green,diamond
0.0,5.0,0.5,1.0,5.0,5.0,390.0130659999377,1.0,1.0,phase_2,stop,200.0,300.0,3.0,,,,,,,,,orange,cross
0.0,2.0,1.0,0.0,6.0,6.0,602.8711359999761,1.0,1.0,phase_2,go,150.0,300.0,1.0,,,,,,,,,cyan,I
0.0,1.0,0.5,0.0,6.0,6.0,507.83768300016163,1.0,1.0,phase_2,go,150.0,300.0,1.0,,,,,,,,,gray,square
0.0,5.0,0.5,1.0,5.0,0.0,0.0,1.0,1.0,phase_2,stop,150.0,300.0,4.0,,,,,,,,,orange,cross
0.0,8.0,4.0,1.0,6.0,6.0,624.737487999937,1.0,1.0,phase_2,go,200.0,300.0,1.0,,,,,,,,,blue,hexagon
0.0,8.0,4.0,1.0,5.0,0.0,0.0,1.0,1.0,phase_2,stop,200.0,300.0,4.0,,,,,,,,,blue,hexagon
0.0,1.0,0.5,0.0,6.0,6.0,581.460829000207,1.0,1.0,phase_2,go,250.0,300.0,1.0,,,,,,,,,gray,square
0.0,2.0,1.0,0.0,6.0,6.0,443.5012549997736,1.0,1.0,phase_2,go,250.0,300.0,1.0,,,,,,,,,cyan,I
0.0,2.0,1.0,0.0,5.0,5.0,580.9599599997455,1.0,1.0,phase_2,go,250.0,300.0,1.0,,,,,,,,,cyan,I
0.0,4.0,4.0,0.0,6.0,6.0,495.5426520000401,1.0,1.0,phase_2,go,250.0,300.0,1.0,,,,,,,,,yellow,triangle
0.0,6.0,1.0,1.0,6.0,0.0,0.0,1.0,1.0,phase_2,stop,250.0,300.0,4.0,,,,,,,,,magenta,flipped triangle
0.0,3.0,2.0,0.0,5.0,5.0,500.90872800001307,1.0,1.0,phase_2,go,250.0,350.0,1.0,,,,,,,,,white,circle
0.0,5.0,0.5,1.0,6.0,6.0,483.2470520000242,1.0,1.0,phase_2,stop,250.0,350.0,3.0,,,,,,,,,orange,cross
0.0,3.0,2.0,0.0,6.0,6.0,425.097955000183,1.0,1.0,phase_2,go,250.0,300.0,1.0,,,,,,,,,white,circle
0.0,4.0,4.0,0.0,6.0,6.0,634.6970800000236,1.0,1.0,phase_2,go,250.0,300.0,1.0,,,,,,,,,yellow,triangle
0.0,4.0,4.0,0.0,6.0,6.0,503.28479499967216,1.0,1.0,phase_2,go,250.0,300.0,1.0,,,,,,,,,yellow,triangle
0.0,3.0,2.0,0.0,5.0,5.0,543.0950939999093,1.0,1.0,phase_2,go,250.0,300.0,1.0,,,,,,,,,white,circle
0.0,7.0,2.0,1.0,5.0,0.0,0.0,1.0,1.0,phase_2,stop,250.0,300.0,4.0,,,,,,,,,green,diamond
0.0,7.0,2.0,1.0,6.0,0.0,0.0,1.0,1.0,phase_2,stop,300.0,300.0,4.0,,,,,,,,,green,diamond
0.0,2.0,1.0,0.0,6.0,6.0,643.8088980003158,1.0,1.0,phase_2,go,300.0,350.0,1.0,,,,,,,,,cyan,I
0.0,3.0,2.0,0.0,6.0,6.0,580.2014430000781,1.0,1.0,phase_2,go,300.0,350.0,1.0,,,,,,,,,white,circle
0.0,2.0,1.0,0.0,5.0,5.0,748.2431649996215,1.0,1.0,phase_2,go,300.0,350.0,1.0,,,,,,,,,cyan,I
0.0,1.0,0.5,0.0,6.0,6.0,351.1163050002324,1.0,1.0,phase_2,go,300.0,350.0,1.0,,,,,,,,,gray,square
0.0,7.0,2.0,1.0,5.0,5.0,454.808827999841,1.0,1.0,phase_2,stop,300.0,350.0,3.0,,,,,,,,,green,diamond
0.0,6.0,1.0,1.0,5.0,0.0,0.0,2.0,1.0,phase_2,stop,250.0,350.0,4.0,,,,,,,,,magenta,flipped triangle
0.0,4.0,4.0,0.0,5.0,5.0,570.018558999891,2.0,1.0,phase_2,go,300.0,350.0,1.0,,,,,,,,,yellow,triangle
0.0,6.0,1.0,1.0,5.0,5.0,690.4317240000637,2.0,1.0,phase_2,go,300.0,350.0,1.0,,,,,,,,,magenta,flipped triangle
0.0,5.0,0.5,1.0,5.0,5.0,383.1968849999612,2.0,1.0,phase_2,go,300.0,350.0,1.0,,,,,,,,,orange,cross
0.0,4.0,4.0,0.0,6.0,6.0,405.1161510001293,2.0,1.0,phase_2,go,300.0,350.0,1.0,,,,,,,,,yellow,triangle
0.0,3.0,2.0,0.0,5.0,5.0,570.4378929999621,2.0,1.0,phase_2,go,300.0,350.0,1.0,,,,,,,,,white,circle
0.0,5.0,0.5,1.0,6.0,6.0,492.1622649999335,2.0,1.0,phase_2,stop,300.0,350.0,3.0,,,,,,,,,orange,cross
0.0,5.0,0.5,1.0,6.0,6.0,607.3441039998215,2.0,1.0,phase_2,go,300.0,300.0,1.0,,,,,,,,,orange,cross
0.0,3.0,2.0,0.0,6.0,6.0,405.6971429999976,2.0,1.0,phase_2,go,300.0,300.0,1.0,,,,,,,,,white,circle
0.0,6.0,1.0,1.0,6.0,0.0,0.0,2.0,1.0,phase_2,stop,300.0,300.0,4.0,,,,,,,,,magenta,flipped triangle
0.0,4.0,4.0,0.0,5.0,5.0,581.9239659999766,2.0,1.0,phase_2,go,300.0,350.0,1.0,,,,,,,,,yellow,triangle
0.0,4.0,4.0,0.0,6.0,6.0,699.8025319999215,2.0,1.0,phase_2,go,300.0,350.0,1.0,,,,,,,,,yellow,triangle
0.0,8.0,4.0,1.0,5.0,5.0,377.8062790001968,2.0,1.0,phase_2,stop,300.0,350.0,3.0,,,,,,,,,blue,hexagon
0.0,1.0,0.5,0.0,5.0,5.0,558.0893410001408,2.0,1.0,phase_2,go,250.0,350.0,1.0,,,,,,,,,gray,square
0.0,4.0,4.0,0.0,5.0,5.0,564.6246790001896,2.0,1.0,phase_2,go,250.0,350.0,1.0,,,,,,,,,yellow,triangle
0.0,5.0,0.5,1.0,6.0,0.0,0.0,2.0,1.0,phase_2,stop,250.0,350.0,4.0,,,,,,,,,orange,cross
0.0,5.0,0.5,1.0,6.0,6.0,432.1642740001152,2.0,1.0,phase_2,stop,250.0,400.0,3.0,,,,,,,,,orange,cross
0.0,3.0,2.0,0.0,5.0,5.0,742.3843139999917,2.0,1.0,phase_2,go,250.0,350.0,1.0,,,,,,,,,white,circle
0.0,4.0,4.0,0.0,5.0,5.0,612.4845039998945,2.0,1.0,phase_2,go,250.0,350.0,1.0,,,,,,,,,yellow,triangle
0.0,8.0,4.0,1.0,5.0,0.0,0.0,2.0,1.0,phase_2,stop,250.0,350.0,4.0,,,,,,,,,blue,hexagon
0.0,3.0,2.0,0.0,5.0,5.0,543.7464550000186,2.0,1.0,phase_2,go,300.0,350.0,1.0,,,,,,,,,white,circle
0.0,6.0,1.0,1.0,5.0,0.0,0.0,2.0,1.0,phase_2,stop,300.0,350.0,4.0,,,,,,,,,magenta,flipped triangle
0.0,8.0,4.0,1.0,6.0,6.0,438.4268440003325,2.0,1.0,phase_2,stop,350.0,350.0,3.0,,,,,,,,,blue,hexagon
0.0,3.0,2.0,0.0,6.0,6.0,686.8394900002386,2.0,1.0,phase_2,go,350.0,300.0,1.0,,,,,,,,,white,circle
0.0,2.0,1.0,0.0,6.0,6.0,498.3156130001589,2.0,1.0,phase_2,go,350.0,300.0,1.0,,,,,,,,,cyan,I
0.0,8.0,4.0,1.0,5.0,0.0,0.0,2.0,1.0,phase_2,stop,350.0,300.0,4.0,,,,,,,,,blue,hexagon
0.0,2.0,1.0,0.0,6.0,6.0,812.4567539998679,2.0,1.0,phase_2,go,400.0,300.0,1.0,,,,,,,,,cyan,I
0.0,7.0,2.0,1.0,6.0,0.0,0.0,2.0,1.0,phase_2,stop,400.0,300.0,4.0,,,,,,,,,green,diamond
0.0,2.0,1.0,0.0,5.0,5.0,579.6094639999865,2.0,1.0,phase_2,go,400.0,350.0,1.0,,,,,,,,,cyan,I
0.0,6.0,1.0,1.0,6.0,0.0,0.0,2.0,1.0,phase_2,stop,400.0,350.0,4.0,,,,,,,,,magenta,flipped triangle
0.0,7.0,2.0,1.0,5.0,0.0,0.0,2.0,1.0,phase_2,stop,400.0,400.0,4.0,,,,,,,,,green,diamond
0.0,7.0,2.0,1.0,6.0,0.0,0.0,2.0,1.0,phase_2,stop,450.0,400.0,4.0,,,,,,,,,green,diamond
0.0,8.0,4.0,1.0,6.0,6.0,705.7679340000504,2.0,1.0,phase_2,go,450.0,450.0,1.0,,,,,,,,,blue,hexagon
0.0,1.0,0.5,0.0,6.0,6.0,759.5246219998444,2.0,1.0,phase_2,go,450.0,450.0,1.0,,,,,,,,,gray,square
0.0,3.0,2.0,0.0,6.0,6.0,672.176699999909,2.0,1.0,phase_2,go,450.0,450.0,1.0,,,,,,,,,white,circle
0.0,1.0,0.5,0.0,6.0,6.0,434.3641620002927,2.0,1.0,phase_2,go,450.0,450.0,1.0,,,,,,,,,gray,square
0.0,6.0,1.0,1.0,5.0,5.0,370.2375349998874,3.0,1.0,phase_2,stop,450.0,450.0,3.0,,,,,,,,,magenta,flipped triangle
0.0,3.0,2.0,0.0,5.0,5.0,629.9730139999156,3.0,1.0,phase_2,go,400.0,450.0,1.0,,,,,,,,,white,circle
0.0,4.0,4.0,0.0,6.0,6.0,592.1461299999464,3.0,1.0,phase_2,go,400.0,450.0,1.0,,,,,,,,,yellow,triangle
0.0,4.0,4.0,0.0,6.0,6.0,532.487625000158,3.0,1.0,phase_2,go,400.0,450.0,1.0,,,,,,,,,yellow,triangle
0.0,8.0,4.0,1.0,5.0,0.0,0.0,3.0,1.0,phase_2,stop,400.0,450.0,4.0,,,,,,,,,blue,hexagon
0.0,8.0,4.0,1.0,6.0,0.0,0.0,3.0,1.0,phase_2,stop,450.0,450.0,4.0,,,,,,,,,blue,hexagon
0.0,6.0,1.0,1.0,6.0,0.0,0.0,3.0,1.0,phase_2,stop,450.0,500.0,4.0,,,,,,,,,magenta,flipped triangle
0.0,6.0,1.0,1.0,5.0,5.0,547.5586749998911,3.0,1.0,phase_2,go,450.0,550.0,1.0,,,,,,,,,magenta,flipped triangle
0.0,1.0,0.5,0.0,5.0,5.0,657.870727000045,3.0,1.0,phase_2,go,450.0,550.0,1.0,,,,,,,,,gray,square
0.0,8.0,4.0,1.0,5.0,5.0,640.1786950000314,3.0,1.0,phase_2,go,450.0,550.0,1.0,,,,,,,,,blue,hexagon
0.0,8.0,4.0,1.0,6.0,0.0,0.0,3.0,1.0,phase_2,stop,450.0,550.0,4.0,,,,,,,,,blue,hexagon
0.0,7.0,2.0,1.0,5.0,0.0,0.0,3.0,1.0,phase_2,stop,450.0,600.0,4.0,,,,,,,,,green,diamond
0.0,2.0,1.0,0.0,6.0,6.0,586.1107750001793,3.0,1.0,phase_2,go,500.0,600.0,1.0,,,,,,,,,cyan,I
0.0,2.0,1.0,0.0,5.0,5.0,800.3598880000027,3.0,1.0,phase_2,go,500.0,600.0,1.0,,,,,,,,,cyan,I
0.0,4.0,4.0,0.0,6.0,6.0,752.0625749998544,3.0,1.0,phase_2,go,500.0,600.0,1.0,,,,,,,,,yellow,triangle
0.0,8.0,4.0,1.0,6.0,0.0,0.0,3.0,1.0,phase_2,stop,500.0,600.0,4.0,,,,,,,,,blue,hexagon
0.0,3.0,2.0,0.0,6.0,6.0,677.2115629996733,3.0,1.0,phase_2,go,500.0,650.0,1.0,,,,,,,,,white,circle
0.0,1.0,0.5,0.0,5.0,5.0,605.836814000213,3.0,1.0,phase_2,go,500.0,650.0,1.0,,,,,,,,,gray,square
0.0,4.0,4.0,0.0,5.0,5.0,660.5802980002409,3.0,1.0,phase_2,go,500.0,650.0,1.0,,,,,,,,,yellow,triangle
0.0,4.0,4.0,0.0,5.0,5.0,564.6315379999578,3.0,1.0,phase_2,go,500.0,650.0,1.0,,,,,,,,,yellow,triangle
0.0,7.0,2.0,1.0,5.0,0.0,0.0,3.0,1.0,phase_2,stop,500.0,650.0,4.0,,,,,,,,,green,diamond
0.0,3.0,2.0,0.0,5.0,5.0,709.5630290000372,3.0,1.0,phase_2,go,550.0,650.0,1.0,,,,,,,,,white,circle
0.0,2.0,1.0,0.0,5.0,5.0,714.8316630000409,3.0,1.0,phase_2,go,550.0,650.0,1.0,,,,,,,,,cyan,I
0.0,1.0,0.5,0.0,5.0,5.0,781.7202010000983,3.0,1.0,phase_2,go,550.0,650.0,1.0,,,,,,,,,gray,square
0.0,1.0,0.5,0.0,6.0,6.0,687.4031490001471,3.0,1.0,phase_2,go,550.0,650.0,1.0,,,,,,,,,gray,square
0.0,7.0,2.0,1.0,6.0,6.0,687.050759000158,3.0,1.0,phase_2,stop,550.0,650.0,3.0,,,,,,,,,green,diamond
0.0,7.0,2.0,1.0,5.0,0.0,0.0,3.0,1.0,phase_2,stop,550.0,600.0,4.0,,,,,,,,,green,diamond
0.0,1.0,0.5,0.0,5.0,5.0,780.6043450000288,3.0,1.0,phase_2,go,600.0,600.0,1.0,,,,,,,,,gray,square
0.0,8.0,4.0,1.0,6.0,0.0,0.0,3.0,1.0,phase_2,stop,600.0,600.0,4.0,,,,,,,,,blue,hexagon
0.0,4.0,4.0,0.0,6.0,6.0,1063.6589640002967,3.0,1.0,phase_2,go,600.0,650.0,1.0,,,,,,,,,yellow,triangle
0.0,8.0,4.0,1.0,5.0,0.0,0.0,3.0,1.0,phase_2,stop,600.0,650.0,4.0,,,,,,,,,blue,hexagon
0.0,2.0,1.0,0.0,5.0,5.0,667.3807039996973,3.0,1.0,phase_2,go,650.0,650.0,1.0,,,,,,,,,cyan,I
0.0,7.0,2.0,1.0,5.0,5.0,743.1660130000637,3.0,1.0,phase_2,stop,650.0,650.0,3.0,,,,,,,,,green,diamond
0.0,2.0,1.0,0.0,5.0,5.0,898.2570369998939,3.0,1.0,phase_2,go,600.0,650.0,1.0,,,,,,,,,cyan,I
0.0,3.0,2.0,0.0,6.0,6.0,669.5994990000145,3.0,1.0,phase_2,go,600.0,650.0,1.0,,,,,,,,,white,circle
0.0,8.0,4.0,1.0,6.0,6.0,721.7226419998042,3.0,1.0,phase_2,stop,600.0,650.0,3.0,,,,,,,,,blue,hexagon
0.0,6.0,1.0,1.0,5.0,5.0,328.0151610001667,4.0,1.0,phase_2,stop,600.0,600.0,3.0,,,,,,,,,magenta,flipped triangle
0.0,2.0,1.0,0.0,6.0,6.0,378.172946000177,4.0,1.0,phase_2,go,550.0,600.0,1.0,,,,,,,,,cyan,I
0.0,6.0,1.0,1.0,6.0,6.0,424.5910330000697,4.0,1.0,phase_2,stop,550.0,600.0,3.0,,,,,,,,,magenta,flipped triangle
0.0,6.0,1.0,1.0,5.0,5.0,622.83113400008,4.0,1.0,phase_2,stop,550.0,550.0,3.0,,,,,,,,,magenta,flipped triangle
0.0,7.0,2.0,1.0,6.0,6.0,696.2158709998221,4.0,1.0,phase_2,stop,500.0,550.0,3.0,,,,,,,,,green,diamond
0.0,4.0,4.0,0.0,5.0,5.0,727.470761999939,4.0,1.0,phase_2,go,500.0,500.0,1.0,,,,,,,,,yellow,triangle
0.0,8.0,4.0,1.0,5.0,5.0,393.2817700001578,4.0,1.0,phase_2,stop,500.0,500.0,3.0,,,,,,,,,blue,hexagon
0.0,1.0,0.5,0.0,6.0,6.0,358.9361109998208,4.0,1.0,phase_2,go,450.0,500.0,1.0,,,,,,,,,gray,square
0.0,6.0,1.0,1.0,6.0,6.0,417.16294299976647,4.0,1.0,phase_2,stop,450.0,500.0,3.0,,,,,,,,,magenta,flipped triangle
0.0,3.0,2.0,0.0,6.0,6.0,620.4097239997282,4.0,1.0,phase_2,go,450.0,450.0,1.0,,,,,,,,,white,circle
0.0,8.0,4.0,1.0,5.0,5.0,643.9869260002524,4.0,1.0,phase_2,go,450.0,450.0,1.0,,,,,,,,,blue,hexagon
0.0,1.0,0.5,0.0,6.0,6.0,386.8322559997068,4.0,1.0,phase_2,go,450.0,450.0,1.0,,,,,,,,,gray,square
0.0,5.0,0.5,1.0,6.0,6.0,297.19437499989,4.0,1.0,phase_2,go,450.0,450.0,1.0,,,,,,,,,orange,cross
0.0,1.0,0.5,0.0,6.0,6.0,403.3576769998035,4.0,1.0,phase_2,go,450.0,450.0,1.0,,,,,,,,,gray,square
0.0,7.0,2.0,1.0,6.0,6.0,360.3757779997067,4.0,1.0,phase_2,stop,450.0,450.0,3.0,,,,,,,,,green,diamond
0.0,5.0,0.5,1.0,5.0,5.0,375.3532850000738,4.0,1.0,phase_2,stop,450.0,400.0,3.0,,,,,,,,,orange,cross
0.0,4.0,4.0,0.0,6.0,6.0,320.2387930000441,4.0,1.0,phase_2,go,400.0,400.0,1.0,,,,,,,,,yellow,triangle
0.0,8.0,4.0,1.0,5.0,5.0,389.0477820000342,4.0,1.0,phase_2,stop,400.0,400.0,3.0,,,,,,,,,blue,hexagon
0.0,8.0,4.0,1.0,6.0,6.0,395.4433370004153,4.0,1.0,phase_2,go,350.0,400.0,1.0,,,,,,,,,blue,hexagon
0.0,1.0,0.5,0.0,5.0,5.0,403.2994939998389,4.0,1.0,phase_2,go,350.0,400.0,1.0,,,,,,,,,gray,square
0.0,6.0,1.0,1.0,5.0,5.0,446.4904440001191,4.0,1.0,phase_2,stop,350.0,400.0,3.0,,,,,,,,,magenta,flipped triangle
0.0,4.0,4.0,0.0,5.0,5.0,792.0235450001201,4.0,1.0,phase_2,go,300.0,400.0,1.0,,,,,,,,,yellow,triangle
0.0,8.0,4.0,1.0,6.0,6.0,441.9358489999467,4.0,1.0,phase_2,stop,300.0,400.0,3.0,,,,,,,,,blue,hexagon
0.0,6.0,1.0,1.0,6.0,6.0,386.8598190001648,4.0,1.0,phase_2,stop,300.0,350.0,3.0,,,,,,,,,magenta,flipped triangle
0.0,7.0,2.0,1.0,5.0,5.0,277.0960929997272,4.0,1.0,phase_2,go,300.0,300.0,1.0,,,,,,,,,green,diamond
0.0,3.0,2.0,0.0,6.0,6.0,317.0875910000177,4.0,1.0,phase_2,go,300.0,300.0,1.0,,,,,,,,,white,circle
0.0,4.0,4.0,0.0,6.0,6.0,302.5035009995918,4.0,1.0,phase_2,go,300.0,300.0,1.0,,,,,,,,,yellow,triangle
0.0,7.0,2.0,1.0,6.0,6.0,467.2207799999341,4.0,1.0,phase_2,stop,300.0,300.0,3.0,,,,,,,,,green,diamond
0.0,3.0,2.0,0.0,6.0,6.0,441.8620709998322,4.0,1.0,phase_2,go,300.0,250.0,1.0,,,,,,,,,white,circle
0.0,2.0,1.0,0.0,6.0,6.0,344.8919290003687,4.0,1.0,phase_2,go,300.0,250.0,1.0,,,,,,,,,cyan,I
0.0,3.0,2.0,0.0,5.0,5.0,366.9670109998151,4.0,1.0,phase_2,go,300.0,250.0,1.0,,,,,,,,,white,circle
0.0,1.0,0.5,0.0,6.0,6.0,369.5506950002709,4.0,1.0,phase_2,go,300.0,250.0,1.0,,,,,,,,,gray,square
0.0,2.0,1.0,0.0,6.0,6.0,344.623988999956,4.0,1.0,phase_2,go,300.0,250.0,1.0,,,,,,,,,cyan,I
0.0,3.0,2.0,0.0,5.0,5.0,469.469479000054,4.0,1.0,phase_2,go,300.0,250.0,1.0,,,,,,,,,white,circle
0.0,7.0,2.0,1.0,6.0,6.0,351.4609999997446,4.0,1.0,phase_2,stop,300.0,250.0,3.0,,,,,,,,,green,diamond
0.0,5.0,0.5,1.0,5.0,5.0,361.1679999999069,4.0,1.0,phase_2,stop,300.0,200.0,3.0,,,,,,,,,orange,cross
0.0,5.0,0.5,1.0,6.0,6.0,686.1477039997226,5.0,1.0,phase_2,go,250.0,200.0,1.0,,,,,,,,,orange,cross
0.0,8.0,4.0,1.0,5.0,0.0,0.0,5.0,1.0,phase_2,stop,250.0,200.0,4.0,,,,,,,,,blue,hexagon
0.0,3.0,2.0,0.0,5.0,5.0,589.079189000131,5.0,1.0,phase_2,go,300.0,200.0,1.0,,,,,,,,,white,circle
0.0,1.0,0.5,0.0,5.0,5.0,340.7790669998576,5.0,1.0,phase_2,go,300.0,200.0,1.0,,,,,,,,,gray,square
0.0,6.0,1.0,1.0,6.0,0.0,0.0,5.0,1.0,phase_2,stop,300.0,200.0,4.0,,,,,,,,,magenta,flipped triangle
0.0,3.0,2.0,0.0,6.0,6.0,474.8664539997662,5.0,1.0,phase_2,go,300.0,250.0,1.0,,,,,,,,,white,circle
0.0,3.0,2.0,0.0,5.0,5.0,419.3319089999932,5.0,1.0,phase_2,go,300.0,250.0,1.0,,,,,,,,,white,circle
0.0,7.0,2.0,1.0,6.0,6.0,284.7293499999068,5.0,1.0,phase_2,stop,300.0,250.0,3.0,,,,,,,,,green,diamond
0.0,3.0,2.0,0.0,5.0,5.0,344.6266119999563,5.0,1.0,phase_2,go,300.0,200.0,1.0,,,,,,,,,white,circle
0.0,8.0,4.0,1.0,5.0,5.0,384.6966139999495,5.0,1.0,phase_2,stop,300.0,200.0,3.0,,,,,,,,,blue,hexagon
0.0,7.0,2.0,1.0,5.0,0.0,0.0,5.0,1.0,phase_2,stop,250.0,200.0,4.0,,,,,,,,,green,diamond
0.0,5.0,0.5,1.0,6.0,6.0,428.747526999814,5.0,1.0,phase_2,go,300.0,200.0,1.0,,,,,,,,,orange,cross
0.0,8.0,4.0,1.0,6.0,0.0,0.0,5.0,1.0,phase_2,stop,300.0,200.0,4.0,,,,,,,,,blue,hexagon
0.0,4.0,4.0,0.0,5.0,5.0,530.9482550001121,5.0,1.0,phase_2,go,300.0,250.0,1.0,,,,,,,,,yellow,triangle
0.0,6.0,1.0,1.0,5.0,5.0,380.4985110000416,5.0,1.0,phase_2,stop,300.0,250.0,3.0,,,,,,,,,magenta,flipped triangle
0.0,7.0,2.0,1.0,5.0,0.0,0.0,5.0,1.0,phase_2,stop,250.0,250.0,4.0,,,,,,,,,green,diamond
0.0,7.0,2.0,1.0,6.0,0.0,0.0,5.0,1.0,phase_2,stop,300.0,250.0,4.0,,,,,,,,,green,diamond
0.0,4.0,4.0,0.0,6.0,6.0,512.817713000004,5.0,1.0,phase_2,go,300.0,300.0,1.0,,,,,,,,,yellow,triangle
0.0,8.0,4.0,1.0,6.0,6.0,395.0286459999006,5.0,1.0,phase_2,go,300.0,300.0,1.0,,,,,,,,,blue,hexagon
0.0,2.0,1.0,0.0,5.0,5.0,596.080343000267,5.0,1.0,phase_2,go,300.0,300.0,1.0,,,,,,,,,cyan,I
0.0,5.0,0.5,1.0,6.0,6.0,294.8310910001055,5.0,1.0,phase_2,stop,300.0,300.0,3.0,,,,,,,,,orange,cross
0.0,7.0,2.0,1.0,6.0,6.0,380.7043460001296,5.0,1.0,phase_2,go,300.0,250.0,1.0,,,,,,,,,green,diamond
0.0,1.0,0.5,0.0,5.0,5.0,369.7776720000547,5.0,1.0,phase_2,go,300.0,250.0,1.0,,,,,,,,,gray,square
0.0,5.0,0.5,1.0,5.0,5.0,445.9856349999427,5.0,1.0,phase_2,stop,300.0,250.0,3.0,,,,,,,,,orange,cross
0.0,8.0,4.0,1.0,6.0,0.0,0.0,5.0,1.0,phase_2,stop,250.0,250.0,4.0,,,,,,,,,blue,hexagon
0.0,8.0,4.0,1.0,5.0,5.0,347.8480930002661,5.0,1.0,phase_2,go,250.0,300.0,1.0,,,,,,,,,blue,hexagon
0.0,1.0,0.5,0.0,5.0,5.0,438.3097549998638,5.0,1.0,phase_2,go,250.0,300.0,1.0,,,,,,,,,gray,square
0.0,7.0,2.0,1.0,5.0,5.0,357.1124810000583,5.0,1.0,phase_2,stop,250.0,300.0,3.0,,,,,,,,,green,diamond
0.0,1.0,0.5,0.0,6.0,6.0,400.9283890000006,5.0,1.0,phase_2,go,200.0,300.0,1.0,,,,,,,,,gray,square
0.0,6.0,1.0,1.0,6.0,6.0,450.9696179998173,5.0,1.0,phase_2,stop,200.0,300.0,3.0,,,,,,,,,magenta,flipped triangle
0.0,7.0,2.0,1.0,5.0,0.0,0.0,5.0,1.0,phase_2,stop,200.0,250.0,4.0,,,,,,,,,green,diamond
0.0,1.0,0.5,0.0,5.0,5.0,426.4532090001012,5.0,1.0,phase_2,go,250.0,250.0,1.0,,,,,,,,,gray,square
0.0,7.0,2.0,1.0,6.0,6.0,520.7435590000387,5.0,1.0,phase_2,go,250.0,250.0,1.0,,,,,,,,,green,diamond
0.0,2.0,1.0,0.0,6.0,6.0,684.0751059999093,5.0,1.0,phase_2,go,250.0,250.0,1.0,,,,,,,,,cyan,I
0.0,2.0,1.0,0.0,6.0,6.0,361.6524069998377,5.0,1.0,phase_2,go,250.0,250.0,1.0,,,,,,,,,cyan,I
0.0,4.0,4.0,0.0,5.0,5.0,724.9181590000262,5.0,1.0,phase_2,go,250.0,250.0,1.0,,,,,,,,,yellow,triangle
0.0,5.0,0.5,1.0,5.0,5.0,287.7296260003277,6.0,1.0,phase_2,stop,250.0,250.0,3.0,,,,,,,,,orange,cross
0.0,3.0,2.0,0.0,5.0,5.0,368.7828219999574,6.0,1.0,phase_2,go,200.0,250.0,1.0,,,,,,,,,white,circle
0.0,2.0,1.0,0.0,6.0,6.0,443.134351000026,6.0,1.0,phase_2,go,200.0,250.0,1.0,,,,,,,,,cyan,I
0.0,1.0,0.5,0.0,6.0,6.0,320.30009600021,6.0,1.0,phase_2,go,200.0,250.0,1.0,,,,,,,,,gray,square
0.0,4.0,4.0,0.0,6.0,6.0,266.966384999705,6.0,1.0,phase_2,go,200.0,250.0,1.0,,,,,,,,,yellow,triangle
0.0,3.0,2.0,0.0,5.0,5.0,356.7507660000046,6.0,1.0,phase_2,go,200.0,250.0,1.0,,,,,,,,,white,circle
0.0,2.0,1.0,0.0,6.0,6.0,262.4698300001,6.0,1.0,phase_2,go,200.0,250.0,1.0,,,,,,,,,cyan,I
0.0,7.0,2.0,1.0,6.0,6.0,334.7182699999393,6.0,1.0,phase_2,stop,200.0,250.0,3.0,,,,,,,,,green,diamond
0.0,5.0,0.5,1.0,5.0,5.0,402.8622769997128,6.0,1.0,phase_2,go,200.0,200.0,1.0,,,,,,,,,orange,cross
0.0,6.0,1.0,1.0,5.0,5.0,386.5180359998703,6.0,1.0,phase_2,go,200.0,200.0,1.0,,,,,,,,,magenta,flipped triangle
0.0,6.0,1.0,1.0,5.0,0.0,0.0,6.0,1.0,phase_2,stop,200.0,200.0,4.0,,,,,,,,,magenta,flipped triangle
0.0,3.0,2.0,0.0,6.0,6.0,478.752348999933,6.0,1.0,phase_2,go,250.0,200.0,1.0,,,,,,,,,white,circle
0.0,4.0,4.0,0.0,5.0,5.0,324.6637799998098,6.0,1.0,phase_2,go,250.0,200.0,1.0,,,,,,,,,yellow,triangle
0.0,4.0,4.0,0.0,5.0,5.0,491.212608999831,6.0,1.0,phase_2,go,250.0,200.0,1.0,,,,,,,,,yellow,triangle
0.0,2.0,1.0,0.0,5.0,5.0,343.9712689996668,6.0,1.0,phase_2,go,250.0,200.0,1.0,,,,,,,,,cyan,I
0.0,1.0,0.5,0.0,6.0,6.0,322.8224009999394,6.0,1.0,phase_2,go,250.0,200.0,1.0,,,,,,,,,gray,square
0.0,5.0,0.5,1.0,6.0,6.0,322.9210859999512,6.0,1.0,phase_2,stop,250.0,200.0,3.0,,,,,,,,,orange,cross
0.0,3.0,2.0,0.0,6.0,6.0,437.0732330003193,6.0,1.0,phase_2,go,250.0,150.0,1.0,,,,,,,,,white,circle
0.0,2.0,1.0,0.0,6.0,6.0,364.216836000196,6.0,1.0,phase_2,go,250.0,150.0,1.0,,,,,,,,,cyan,I
0.0,5.0,0.5,1.0,6.0,0.0,0.0,6.0,1.0,phase_2,stop,250.0,150.0,4.0,,,,,,,,,orange,cross
0.0,7.0,2.0,1.0,6.0,6.0,304.5741979999548,6.0,1.0,phase_2,go,250.0,200.0,1.0,,,,,,,,,green,diamond
0.0,6.0,1.0,1.0,5.0,5.0,478.2800080001834,6.0,1.0,phase_2,go,250.0,200.0,1.0,,,,,,,,,magenta,flipped triangle
0.0,4.0,4.0,0.0,5.0,5.0,428.5688989998562,6.0,1.0,phase_2,go,250.0,200.0,1.0,,,,,,,,,yellow,triangle
0.0,6.0,1.0,1.0,6.0,6.0,322.7810739999768,6.0,1.0,phase_2,stop,250.0,200.0,3.0,,,,,,,,,magenta,flipped triangle
0.0,8.0,4.0,1.0,5.0,5.0,383.5428900001716,6.0,1.0,phase_2,stop,250.0,150.0,3.0,,,,,,,,,blue,hexagon
0.0,2.0,1.0,0.0,6.0,6.0,467.0165620000261,6.0,1.0,phase_2,go,200.0,150.0,1.0,,,,,,,,,cyan,I
0.0,6.0,1.0,1.0,6.0,0.0,0.0,6.0,1.0,phase_2,stop,200.0,150.0,4.0,,,,,,,,,magenta,flipped triangle
0.0,2.0,1.0,0.0,5.0,5.0,351.110332999724,6.0,1.0,phase_2,go,200.0,200.0,1.0,,,,,,,,,cyan,I
0.0,4.0,4.0,0.0,6.0,6.0,431.7017940002188,6.0,1.0,phase_2,go,200.0,200.0,1.0,,,,,,,,,yellow,triangle
0.0,3.0,2.0,0.0,6.0,6.0,418.9835820002372,6.0,1.0,phase_2,go,200.0,200.0,1.0,,,,,,,,,white,circle
0.0,1.0,0.5,0.0,5.0,5.0,359.8637499999313,6.0,1.0,phase_2,go,200.0,200.0,1.0,,,,,,,,,gray,square
0.0,2.0,1.0,0.0,5.0,5.0,413.0210079997596,6.0,1.0,phase_2,go,200.0,200.0,1.0,,,,,,,,,cyan,I
0.0,6.0,1.0,1.0,5.0,0.0,0.0,6.0,1.0,phase_2,stop,200.0,200.0,4.0,,,,,,,,,magenta,flipped triangle
0.0,6.0,1.0,1.0,6.0,6.0,388.7137209999309,6.0,1.0,phase_2,go,250.0,200.0,1.0,,,,,,,,,magenta,flipped triangle
0.0,7.0,2.0,1.0,6.0,0.0,0.0,6.0,1.0,phase_2,stop,250.0,200.0,4.0,,,,,,,,,green,diamond
0.0,6.0,1.0,1.0,5.0,5.0,545.7034930000191,6.0,1.0,phase_2,go,250.0,250.0,1.0,,,,,,,,,magenta,flipped triangle
0.0,2.0,1.0,0.0,6.0,6.0,462.6176510000732,7.0,1.0,phase_2,go,250.0,250.0,1.0,,,,,,,,,cyan,I
0.0,1.0,0.5,0.0,5.0,5.0,523.0296680001629,7.0,1.0,phase_2,go,250.0,250.0,1.0,,,,,,,,,gray,square
0.0,7.0,2.0,1.0,6.0,6.0,406.0485610002615,7.0,1.0,phase_2,go,250.0,250.0,1.0,,,,,,,,,green,diamond
0.0,3.0,2.0,0.0,6.0,6.0,499.5940130002054,7.0,1.0,phase_2,go,250.0,250.0,1.0,,,,,,,,,white,circle
0.0,8.0,4.0,1.0,5.0,0.0,0.0,7.0,1.0,phase_2,stop,250.0,250.0,4.0,,,,,,,,,blue,hexagon
0.0,8.0,4.0,1.0,6.0,0.0,0.0,7.0,1.0,phase_2,stop,300.0,250.0,4.0,,,,,,,,,blue,hexagon
0.0,8.0,4.0,1.0,6.0,0.0,0.0,7.0,1.0,phase_2,stop,300.0,300.0,4.0,,,,,,,,,blue,hexagon
0.0,1.0,0.5,0.0,5.0,5.0,611.4416319996963,7.0,1.0,phase_2,go,300.0,350.0,1.0,,,,,,,,,gray,square
0.0,5.0,0.5,1.0,5.0,0.0,0.0,7.0,1.0,phase_2,stop,300.0,350.0,4.0,,,,,,,,,orange,cross
0.0,1.0,0.5,0.0,6.0,6.0,711.7790130000685,7.0,1.0,phase_2,go,350.0,350.0,1.0,,,,,,,,,gray,square
0.0,5.0,0.5,1.0,6.0,0.0,0.0,7.0,1.0,phase_2,stop,350.0,350.0,4.0,,,,,,,,,orange,cross
0.0,4.0,4.0,0.0,6.0,6.0,672.0517569997355,7.0,1.0,phase_2,go,350.0,400.0,1.0,,,,,,,,,yellow,triangle
0.0,5.0,0.5,1.0,5.0,0.0,0.0,7.0,1.0,phase_2,stop,350.0,400.0,4.0,,,,,,,,,orange,cross
0.0,5.0,0.5,1.0,5.0,0.0,0.0,7.0,1.0,phase_2,stop,400.0,400.0,4.0,,,,,,,,,orange,cross
0.0,5.0,0.5,1.0,5.0,0.0,0.0,7.0,1.0,phase_2,stop,450.0,400.0,4.0,,,,,,,,,orange,cross
0.0,4.0,4.0,0.0,6.0,6.0,582.3721480001041,7.0,1.0,phase_2,go,500.0,400.0,1.0,,,,,,,,,yellow,triangle
0.0,5.0,0.5,1.0,6.0,0.0,0.0,7.0,1.0,phase_2,stop,500.0,400.0,4.0,,,,,,,,,orange,cross
0.0,5.0,0.5,1.0,5.0,0.0,0.0,7.0,1.0,phase_2,stop,500.0,450.0,4.0,,,,,,,,,orange,cross
0.0,3.0,2.0,0.0,6.0,6.0,602.9931150001175,7.0,1.0,phase_2,go,550.0,450.0,1.0,,,,,,,,,white,circle
0.0,1.0,0.5,0.0,6.0,6.0,676.5005160000328,7.0,1.0,phase_2,go,550.0,450.0,1.0,,,,,,,,,gray,square
0.0,8.0,4.0,1.0,6.0,0.0,0.0,7.0,1.0,phase_2,stop,550.0,450.0,4.0,,,,,,,,,blue,hexagon
0.0,5.0,0.5,1.0,5.0,0.0,0.0,7.0,1.0,phase_2,stop,550.0,500.0,4.0,,,,,,,,,orange,cross
0.0,1.0,0.5,0.0,6.0,6.0,735.8716909998293,7.0,1.0,phase_2,go,600.0,500.0,1.0,,,,,,,,,gray,square
0.0,7.0,2.0,1.0,6.0,6.0,750.9775090002222,7.0,1.0,phase_2,go,600.0,500.0,1.0,,,,,,,,,green,diamond
0.0,8.0,4.0,1.0,6.0,0.0,0.0,7.0,1.0,phase_2,stop,600.0,500.0,4.0,,,,,,,,,blue,hexagon
0.0,2.0,1.0,0.0,5.0,5.0,631.1090760000297,7.0,1.0,phase_2,go,600.0,550.0,1.0,,,,,,,,,cyan,I
0.0,4.0,4.0,0.0,5.0,5.0,810.3911759999392,7.0,1.0,phase_2,go,600.0,550.0,1.0,,,,,,,,,yellow,triangle
0.0,3.0,2.0,0.0,5.0,5.0,661.5588630002094,7.0,1.0,phase_2,go,600.0,550.0,1.0,,,,,,,,,white,circle
0.0,6.0,1.0,1.0,6.0,6.0,692.9336739999599,7.0,1.0,phase_2,go,600.0,550.0,1.0,,,,,,,,,magenta,flipped triangle
0.0,6.0,1.0,1.0,5.0,5.0,712.2294639998472,7.0,1.0,phase_2,stop,600.0,550.0,3.0,,,,,,,,,magenta,flipped triangle
0.0,1.0,0.5,0.0,5.0,5.0,778.812788000323,7.0,1.0,phase_2,go,550.0,550.0,1.0,,,,,,,,,gray,square
0.0,4.0,4.0,0.0,5.0,5.0,706.238489000043,7.0,1.0,phase_2,go,550.0,550.0,1.0,,,,,,,,,yellow,triangle
0.0,3.0,2.0,0.0,6.0,6.0,609.1198939998321,7.0,1.0,phase_2,go,550.0,550.0,1.0,,,,,,,,,white,circle
0.0,4.0,4.0,0.0,5.0,5.0,689.6162529997127,7.0,1.0,phase_2,go,550.0,550.0,1.0,,,,,,,,,yellow,triangle
0.0,2.0,1.0,0.0,6.0,6.0,783.0142800003159,7.0,1.0,phase_2,go,550.0,550.0,1.0,,,,,,,,,cyan,I
0.0,8.0,4.0,1.0,6.0,6.0,729.8000129999309,7.0,1.0,phase_2,go,550.0,550.0,1.0,,,,,,,,,blue,hexagon
0.0,2.0,1.0,0.0,5.0,5.0,383.8064669998857,8.0,1.0,phase_2,go,550.0,550.0,1.0,,,,,,,,,cyan,I
0.0,1.0,0.5,0.0,6.0,6.0,412.6707119999082,8.0,1.0,phase_2,go,550.0,550.0,1.0,,,,,,,,,gray,square
0.0,6.0,1.0,1.0,6.0,6.0,582.8788110002279,8.0,1.0,phase_2,stop,550.0,550.0,3.0,,,,,,,,,magenta,flipped triangle
0.0,5.0,0.5,1.0,6.0,6.0,545.7125699999779,8.0,1.0,phase_2,stop,550.0,500.0,3.0,,,,,,,,,orange,cross
0.0,6.0,1.0,1.0,5.0,0.0,0.0,8.0,1.0,phase_2,stop,550.0,450.0,4.0,,,,,,,,,magenta,flipped triangle
0.0,3.0,2.0,0.0,6.0,6.0,703.497852000055,8.0,1.0,phase_2,go,600.0,450.0,1.0,,,,,,,,,white,circle
0.0,2.0,1.0,0.0,5.0,5.0,374.3985330002033,8.0,1.0,phase_2,go,600.0,450.0,1.0,,,,,,,,,cyan,I
0.0,5.0,0.5,1.0,6.0,6.0,336.0166180000306,8.0,1.0,phase_2,stop,600.0,450.0,3.0,,,,,,,,,orange,cross
0.0,4.0,4.0,0.0,6.0,6.0,667.2956450001948,8.0,1.0,phase_2,go,600.0,400.0,1.0,,,,,,,,,yellow,triangle
0.0,7.0,2.0,1.0,5.0,5.0,544.571869000265,8.0,1.0,phase_2,stop,600.0,400.0,3.0,,,,,,,,,green,diamond
0.0,6.0,1.0,1.0,6.0,0.0,0.0,8.0,1.0,phase_2,stop,550.0,400.0,4.0,,,,,,,,,magenta,flipped triangle
0.0,5.0,0.5,1.0,6.0,6.0,644.0639910001664,8.0,1.0,phase_2,go,550.0,450.0,1.0,,,,,,,,,orange,cross
0.0,2.0,1.0,0.0,5.0,5.0,703.3748700000615,8.0,1.0,phase_2,go,550.0,450.0,1.0,,,,,,,,,cyan,I
0.0,3.0,2.0,0.0,5.0,5.0,534.4168060000811,8.0,1.0,phase_2,go,550.0,450.0,1.0,,,,,,,,,white,circle
0.0,8.0,4.0,1.0,5.0,5.0,653.7393510002403,8.0,1.0,phase_2,stop,550.0,450.0,3.0,,,,,,,,,blue,hexagon
0.0,2.0,1.0,0.0,5.0,5.0,741.4016180000544,8.0,1.0,phase_2,go,500.0,450.0,1.0,,,,,,,,,cyan,I
0.0,6.0,1.0,1.0,6.0,6.0,554.280413000015,8.0,1.0,phase_2,stop,500.0,450.0,3.0,,,,,,,,,magenta,flipped triangle
0.0,2.0,1.0,0.0,5.0,5.0,792.6331680000658,8.0,1.0,phase_2,go,500.0,400.0,1.0,,,,,,,,,cyan,I
0.0,1.0,0.5,0.0,5.0,5.0,636.5448710002966,8.0,1.0,phase_2,go,500.0,400.0,1.0,,,,,,,,,gray,square
0.0,5.0,0.5,1.0,5.0,0.0,0.0,8.0,1.0,phase_2,stop,500.0,400.0,4.0,,,,,,,,,orange,cross
0.0,4.0,4.0,0.0,5.0,5.0,772.4367160003567,8.0,1.0,phase_2,go,550.0,400.0,1.0,,,,,,,,,yellow,triangle
0.0,7.0,2.0,1.0,5.0,0.0,0.0,8.0,1.0,phase_2,stop,550.0,400.0,4.0,,,,,,,,,green,diamond
0.0,1.0,0.5,0.0,6.0,6.0,684.235230000013,8.0,1.0,phase_2,go,600.0,400.0,1.0,,,,,,,,,gray,square
0.0,6.0,1.0,1.0,5.0,0.0,0.0,8.0,1.0,phase_2,stop,600.0,400.0,4.0,,,,,,,,,magenta,flipped triangle
0.0,6.0,1.0,1.0,6.0,0.0,0.0,8.0,1.0,phase_2,stop,650.0,400.0,4.0,,,,,,,,,magenta,flipped triangle
0.0,5.0,0.5,1.0,5.0,5.0,813.0560220001826,8.0,1.0,phase_2,stop,650.0,450.0,3.0,,,,,,,,,orange,cross
0.0,7.0,2.0,1.0,5.0,5.0,644.0840549998939,8.0,1.0,phase_2,go,600.0,450.0,1.0,,,,,,,,,green,diamond
0.0,1.0,0.5,0.0,5.0,5.0,959.032140999625,8.0,1.0,phase_2,go,600.0,450.0,1.0,,,,,,,,,gray,square
0.0,4.0,4.0,0.0,5.0,5.0,715.5398639997657,8.0,1.0,phase_2,go,600.0,450.0,1.0,,,,,,,,,yellow,triangle
0.0,7.0,2.0,1.0,5.0,5.0,479.2788779996044,8.0,1.0,phase_2,go,600.0,450.0,1.0,,,,,,,,,green,diamond
0.0,5.0,0.5,1.0,6.0,0.0,0.0,8.0,1.0,phase_2,stop,600.0,450.0,4.0,,,,,,,,,orange,cross
0.0,5.0,0.5,1.0,5.0,5.0,749.3353150002804,8.0,1.0,phase_2,go,600.0,500.0,1.0,,,,,,,,,orange,cross
0.0,6.0,1.0,1.0,5.0,5.0,850.8063179997407,8.0,1.0,phase_2,go,600.0,500.0,1.0,,,,,,,,,magenta,flipped triangle
0.0,7.0,2.0,1.0,5.0,5.0,829.0385840000454,8.0,1.0,phase_2,go,600.0,500.0,1.0,,,,,,,,,green,diamond
0.0,1.0,0.5,0.0,5.0,5.0,528.8242790002187,8.0,1.0,phase_2,go,600.0,500.0,1.0,,,,,,,,,gray,square
0.0,8.0,4.0,1.0,5.0,5.0,444.4774500007042,8.0,1.0,phase_2,go,600.0,500.0,1.0,,,,,,,,,blue,hexagon
0.0,5.0,0.5,1.0,7.0,2.0,1378.9486490004492,1.0,2.0,phase_3,,,,,264.0,6.0,176.0,264.0,44.0,132.0,88.0,220.0,orange,cross
0.0,6.0,1.0,1.0,7.0,6.0,2293.7304730003234,1.0,1.0,phase_3,,,,,195.0,5.0,39.0,234.0,78.0,156.0,117.0,195.0,magenta,flipped triangle
0.0,3.0,2.0,0.0,7.0,4.0,2302.70700499932,1.0,1.0,phase_3,,,,,220.0,5.0,88.0,132.0,44.0,220.0,264.0,176.0,white,circle
0.0,7.0,2.0,1.0,7.0,4.0,2058.4264849994724,1.0,1.0,phase_3,,,,,195.0,5.0,234.0,78.0,156.0,195.0,117.0,39.0,green,diamond
0.0,7.0,2.0,1.0,7.0,1.0,2575.938987999507,1.0,1.0,phase_3,,,,,204.0,6.0,204.0,68.0,102.0,136.0,34.0,170.0,green,diamond
0.0,4.0,4.0,0.0,7.0,6.0,1633.905028999834,1.0,1.0,phase_3,,,,,324.0,6.0,216.0,162.0,54.0,270.0,108.0,324.0,yellow,triangle
0.0,8.0,4.0,1.0,7.0,4.0,1155.425470999944,1.0,1.0,phase_3,,,,,324.0,6.0,54.0,108.0,162.0,324.0,270.0,216.0,blue,hexagon
0.0,4.0,4.0,0.0,7.0,1.0,1612.565870999788,1.0,1.0,phase_3,,,,,204.0,6.0,204.0,170.0,102.0,136.0,34.0,68.0,yellow,triangle
0.0,4.0,4.0,0.0,7.0,4.0,1313.189778999913,1.0,1.0,phase_3,,,,,245.0,5.0,147.0,196.0,294.0,245.0,98.0,49.0,yellow,triangle
0.0,6.0,1.0,1.0,7.0,1.0,1365.213914999913,1.0,1.0,phase_3,,,,,270.0,5.0,270.0,162.0,216.0,54.0,108.0,324.0,magenta,flipped triangle
0.0,7.0,2.0,1.0,7.0,2.0,1459.7528289996262,1.0,1.0,phase_3,,,,,264.0,6.0,220.0,264.0,44.0,132.0,88.0,176.0,green,diamond
0.0,5.0,0.5,1.0,7.0,5.0,1743.5017679999874,1.0,1.0,phase_3,,,,,270.0,5.0,162.0,324.0,216.0,54.0,270.0,108.0,orange,cross
0.0,5.0,0.5,1.0,7.0,1.0,1544.056275999537,1.0,1.0,phase_3,,,,,195.0,5.0,195.0,39.0,156.0,117.0,78.0,234.0,orange,cross
0.0,6.0,1.0,1.0,7.0,3.0,1669.7690379996857,1.0,1.0,phase_3,,,,,234.0,6.0,39.0,78.0,234.0,195.0,156.0,117.0,magenta,flipped triangle
0.0,3.0,2.0,0.0,7.0,2.0,1678.0374689997188,1.0,1.0,phase_3,,,,,196.0,4.0,98.0,196.0,294.0,147.0,49.0,245.0,white,circle
0.0,1.0,0.5,0.0,7.0,2.0,1951.2694099994403,1.0,1.0,phase_3,,,,,234.0,6.0,78.0,234.0,195.0,156.0,39.0,117.0,gray,square
0.0,6.0,1.0,1.0,7.0,3.0,1548.2866430002105,1.0,1.0,phase_3,,,,,220.0,5.0,264.0,132.0,220.0,176.0,88.0,44.0,magenta,flipped triangle
0.0,5.0,0.5,1.0,7.0,2.0,1729.4133199993666,1.0,1.0,phase_3,,,,,270.0,5.0,162.0,270.0,324.0,108.0,54.0,216.0,orange,cross
0.0,7.0,2.0,1.0,7.0,4.0,1520.5086969999684,1.0,1.0,phase_3,,,,,270.0,5.0,54.0,162.0,216.0,270.0,324.0,108.0,green,diamond
0.0,6.0,1.0,1.0,7.0,4.0,1763.8337470007173,1.0,1.0,phase_3,,,,,264.0,6.0,220.0,88.0,132.0,264.0,44.0,176.0,magenta,flipped triangle
0.0,8.0,4.0,1.0,7.0,2.0,1554.9010450004062,2.0,1.0,phase_3,,,,,204.0,6.0,68.0,204.0,170.0,102.0,136.0,34.0,blue,hexagon
0.0,1.0,0.5,0.0,7.0,6.0,1512.3108879997744,2.0,1.0,phase_3,,,,,234.0,6.0,78.0,117.0,195.0,39.0,156.0,234.0,gray,square
0.0,7.0,2.0,1.0,7.0,4.0,1311.516307000602,2.0,1.0,phase_3,,,,,245.0,5.0,98.0,196.0,294.0,245.0,147.0,49.0,green,diamond
0.0,1.0,0.5,0.0,7.0,5.0,1696.720080999512,2.0,1.0,phase_3,,,,,170.0,5.0,102.0,68.0,204.0,136.0,170.0,34.0,gray,square
0.0,8.0,4.0,1.0,7.0,6.0,1563.3488409994245,2.0,1.0,phase_3,,,,,324.0,6.0,162.0,270.0,108.0,54.0,216.0,324.0,blue,hexagon
0.0,8.0,4.0,1.0,7.0,6.0,1379.6101100006126,2.0,1.0,phase_3,,,,,264.0,6.0,132.0,88.0,44.0,220.0,176.0,264.0,blue,hexagon
0.0,1.0,0.5,0.0,7.0,5.0,1464.2548040001202,2.0,1.0,phase_3,,,,,294.0,6.0,98.0,196.0,245.0,49.0,294.0,147.0,gray,square
0.0,3.0,2.0,0.0,7.0,5.0,1392.8109839998797,2.0,1.0,phase_3,,,,,324.0,6.0,108.0,216.0,270.0,162.0,324.0,54.0,white,circle
0.0,2.0,1.0,0.0,7.0,5.0,1670.5682840001828,2.0,1.0,phase_3,,,,,234.0,6.0,156.0,78.0,39.0,195.0,234.0,117.0,cyan,I
0.0,2.0,1.0,0.0,7.0,6.0,1599.623910000446,2.0,1.0,phase_3,,,,,220.0,5.0,176.0,88.0,264.0,132.0,44.0,220.0,cyan,I
0.0,8.0,4.0,1.0,7.0,4.0,1110.2754600005935,2.0,1.0,phase_3,,,,,234.0,6.0,39.0,78.0,195.0,234.0,117.0,156.0,blue,hexagon
0.0,7.0,2.0,1.0,7.0,4.0,1885.5430020003039,2.0,1.0,phase_3,,,,,204.0,6.0,102.0,136.0,68.0,204.0,170.0,34.0,green,diamond
0.0,6.0,1.0,1.0,7.0,4.0,1494.6286360000158,2.0,1.0,phase_3,,,,,294.0,6.0,196.0,147.0,98.0,294.0,49.0,245.0,magenta,flipped triangle
0.0,4.0,4.0,0.0,7.0,2.0,2225.5550059999223,2.0,1.0,phase_3,,,,,234.0,6.0,78.0,234.0,156.0,117.0,195.0,39.0,yellow,triangle
0.0,6.0,1.0,1.0,7.0,5.0,1353.5746509996898,2.0,1.0,phase_3,,,,,270.0,5.0,216.0,324.0,162.0,108.0,270.0,54.0,magenta,flipped triangle
0.0,8.0,4.0,1.0,7.0,3.0,2034.1675619993111,2.0,1.0,phase_3,,,,,204.0,6.0,170.0,68.0,204.0,102.0,136.0,34.0,blue,hexagon
0.0,3.0,2.0,0.0,7.0,1.0,2007.5428410000318,2.0,1.0,phase_3,,,,,234.0,6.0,234.0,156.0,195.0,78.0,39.0,117.0,white,circle
0.0,3.0,2.0,0.0,7.0,5.0,2156.5460929996334,2.0,1.0,phase_3,,,,,170.0,5.0,34.0,204.0,136.0,68.0,170.0,102.0,white,circle
0.0,2.0,1.0,0.0,7.0,5.0,1461.5249979997316,2.0,1.0,phase_3,,,,,170.0,5.0,34.0,68.0,204.0,136.0,170.0,102.0,cyan,I
0.0,1.0,0.5,0.0,7.0,5.0,1354.8661719996744,2.0,1.0,phase_3,,,,,264.0,6.0,88.0,176.0,44.0,220.0,264.0,132.0,gray,square
0.0,8.0,4.0,1.0,7.0,6.0,1791.450106000411,3.0,1.0,phase_3,,,,,264.0,6.0,132.0,220.0,176.0,88.0,44.0,264.0,blue,hexagon
0.0,2.0,1.0,0.0,7.0,3.0,2189.777612000398,3.0,1.0,phase_3,,,,,294.0,6.0,98.0,49.0,294.0,196.0,147.0,245.0,cyan,I
0.0,4.0,4.0,0.0,7.0,4.0,1168.8187689996994,3.0,1.0,phase_3,,,,,245.0,5.0,49.0,98.0,196.0,245.0,294.0,147.0,yellow,triangle
0.0,6.0,1.0,1.0,7.0,6.0,1130.4950570001893,3.0,1.0,phase_3,,,,,245.0,5.0,98.0,294.0,196.0,49.0,147.0,245.0,magenta,flipped triangle
0.0,2.0,1.0,0.0,7.0,6.0,1030.108195000139,3.0,1.0,phase_3,,,,,204.0,6.0,102.0,34.0,170.0,136.0,68.0,204.0,cyan,I
0.0,3.0,2.0,0.0,7.0,5.0,1170.2675879996605,3.0,1.0,phase_3,,,,,196.0,4.0,147.0,245.0,294.0,49.0,196.0,98.0,white,circle
0.0,6.0,1.0,1.0,7.0,1.0,1829.901097000402,3.0,1.0,phase_3,,,,,204.0,6.0,204.0,136.0,102.0,34.0,68.0,170.0,magenta,flipped triangle
0.0,1.0,0.5,0.0,7.0,4.0,1207.927505999578,3.0,1.0,phase_3,,,,,270.0,5.0,324.0,54.0,216.0,270.0,162.0,108.0,gray,square
0.0,2.0,1.0,0.0,7.0,6.0,2036.5042610001183,3.0,1.0,phase_3,,,,,294.0,6.0,245.0,98.0,49.0,147.0,196.0,294.0,cyan,I
0.0,4.0,4.0,0.0,7.0,4.0,1432.124214000396,3.0,1.0,phase_3,,,,,270.0,5.0,324.0,162.0,108.0,270.0,216.0,54.0,yellow,triangle
0.0,4.0,4.0,0.0,7.0,3.0,1864.864062000379,3.0,1.0,phase_3,,,,,204.0,6.0,136.0,102.0,204.0,170.0,68.0,34.0,yellow,triangle
0.0,3.0,2.0,0.0,7.0,6.0,1645.5266439998013,3.0,1.0,phase_3,,,,,204.0,6.0,34.0,136.0,68.0,170.0,102.0,204.0,white,circle
0.0,2.0,1.0,0.0,7.0,4.0,1363.0834810001031,3.0,1.0,phase_3,,,,,195.0,5.0,39.0,117.0,156.0,195.0,234.0,78.0,cyan,I
0.0,7.0,2.0,1.0,7.0,4.0,1108.2146970002211,3.0,1.0,phase_3,,,,,176.0,4.0,264.0,220.0,88.0,176.0,44.0,132.0,green,diamond
0.0,7.0,2.0,1.0,7.0,3.0,1322.5516720003725,3.0,1.0,phase_3,,,,,216.0,4.0,54.0,108.0,216.0,270.0,324.0,162.0,green,diamond
0.0,2.0,1.0,0.0,7.0,3.0,1467.3369390002335,3.0,1.0,phase_3,,,,,220.0,5.0,88.0,264.0,220.0,176.0,132.0,44.0,cyan,I
0.0,3.0,2.0,0.0,7.0,4.0,1113.2748590007395,3.0,1.0,phase_3,,,,,270.0,5.0,108.0,54.0,324.0,270.0,162.0,216.0,white,circle
0.0,4.0,4.0,0.0,7.0,5.0,1202.816611999879,3.0,1.0,phase_3,,,,,220.0,5.0,264.0,176.0,44.0,88.0,220.0,132.0,yellow,triangle
0.0,8.0,4.0,1.0,7.0,5.0,1122.2298550001142,3.0,1.0,phase_3,,,,,245.0,5.0,294.0,98.0,196.0,147.0,245.0,49.0,blue,hexagon
0.0,1.0,0.5,0.0,7.0,5.0,1226.946196999961,3.0,1.0,phase_3,,,,,176.0,4.0,264.0,220.0,132.0,44.0,176.0,88.0,gray,square
0.0,5.0,0.5,1.0,7.0,6.0,1281.4449170000444,4.0,1.0,phase_3,,,,,234.0,6.0,78.0,195.0,156.0,117.0,39.0,234.0,orange,cross
0.0,7.0,2.0,1.0,7.0,6.0,1388.661828000295,4.0,1.0,phase_3,,,,,195.0,5.0,117.0,156.0,78.0,39.0,234.0,195.0,green,diamond
0.0,6.0,1.0,1.0,7.0,3.0,1766.3971319998382,4.0,1.0,phase_3,,,,,204.0,6.0,34.0,68.0,204.0,136.0,102.0,170.0,magenta,flipped triangle
0.0,1.0,0.5,0.0,7.0,4.0,1156.492617999902,4.0,1.0,phase_3,,,,,324.0,6.0,270.0,54.0,216.0,324.0,108.0,162.0,gray,square
0.0,8.0,4.0,1.0,7.0,2.0,1629.72212799923,4.0,1.0,phase_3,,,,,234.0,6.0,78.0,234.0,117.0,195.0,39.0,156.0,blue,hexagon
0.0,1.0,0.5,0.0,7.0,6.0,1320.9357480000108,4.0,1.0,phase_3,,,,,204.0,6.0,68.0,102.0,34.0,170.0,136.0,204.0,gray,square
0.0,5.0,0.5,1.0,7.0,4.0,1213.076044000445,4.0,1.0,phase_3,,,,,204.0,6.0,34.0,170.0,102.0,204.0,136.0,68.0,orange,cross
0.0,4.0,4.0,0.0,7.0,4.0,1341.469421999136,4.0,1.0,phase_3,,,,,220.0,5.0,176.0,264.0,132.0,220.0,44.0,88.0,yellow,triangle
0.0,8.0,4.0,1.0,7.0,5.0,1249.149609000597,4.0,1.0,phase_3,,,,,294.0,6.0,147.0,245.0,49.0,196.0,294.0,98.0,blue,hexagon
0.0,7.0,2.0,1.0,7.0,1.0,1473.461139999927,4.0,1.0,phase_3,,,,,245.0,5.0,245.0,196.0,49.0,147.0,98.0,294.0,green,diamond
0.0,5.0,0.5,1.0,7.0,6.0,1226.256710000598,4.0,1.0,phase_3,,,,,264.0,6.0,44.0,220.0,176.0,88.0,132.0,264.0,orange,cross
0.0,3.0,2.0,0.0,7.0,1.0,1599.0269679996345,4.0,1.0,phase_3,,,,,234.0,6.0,234.0,78.0,156.0,195.0,117.0,39.0,white,circle
0.0,3.0,2.0,0.0,7.0,4.0,1097.3376880001524,4.0,1.0,phase_3,,,,,264.0,6.0,220.0,44.0,88.0,264.0,132.0,176.0,white,circle
0.0,5.0,0.5,1.0,7.0,2.0,1513.5028210006567,4.0,1.0,phase_3,,,,,294.0,6.0,245.0,294.0,49.0,147.0,98.0,196.0,orange,cross
0.0,1.0,0.5,0.0,7.0,5.0,1381.3868320003166,4.0,1.0,phase_3,,,,,245.0,5.0,196.0,49.0,98.0,294.0,245.0,147.0,gray,square
0.0,5.0,0.5,1.0,7.0,2.0,2212.1085210001183,4.0,1.0,phase_3,,,,,136.0,4.0,102.0,136.0,68.0,170.0,204.0,34.0,orange,cross
0.0,2.0,1.0,0.0,7.0,4.0,1501.212886000758,4.0,1.0,phase_3,,,,,270.0,5.0,108.0,54.0,216.0,270.0,324.0,162.0,cyan,I
0.0,5.0,0.5,1.0,7.0,3.0,1379.9255589992754,4.0,1.0,phase_3,,,,,294.0,6.0,147.0,245.0,294.0,98.0,49.0,196.0,orange,cross
0.0,2.0,1.0,0.0,7.0,6.0,1591.502336999838,4.0,1.0,phase_3,,,,,324.0,6.0,54.0,162.0,108.0,270.0,216.0,324.0,cyan,I
0.0,4.0,4.0,0.0,7.0,2.0,1710.283987999901,4.0,1.0,phase_3,,,,,195.0,5.0,156.0,195.0,78.0,39.0,117.0,234.0,yellow,triangle
