raw_reward_magnitude,stim_reward,stepwise_reward_magnitude,paired_with_stopping,quadrant,response,reaction_time,block,num_trial_presentations,which_part,stop_signal_trial_type,left_SSD,right_SSD,accuracy,chosen_bidding_amount,chosen_bidding_level,possible_bid_1,possible_bid_2,possible_bid_3,possible_bid_4,possible_bid_5,possible_bid_6,color_text,shape_text
207.0,7.0,3.0,1.0,1.0,1.0,376.1601290007093,1.0,1.0,part_1,,,,,,,,,,,,,green,flipped triangle
101.0,6.0,2.0,1.0,4.0,4.0,393.7249280006654,1.0,1.0,part_1,,,,,,,,,,,,,blue,cross
206.0,3.0,3.0,0.0,4.0,4.0,389.3945050003822,1.0,1.0,part_1,,,,,,,,,,,,,magenta,circle
55.0,1.0,1.0,0.0,4.0,4.0,434.9292299993976,1.0,1.0,part_1,,,,,,,,,,,,,cyan,I
117.0,2.0,2.0,0.0,4.0,4.0,329.1587000003346,1.0,1.0,part_1,,,,,,,,,,,,,orange,square
423.0,8.0,4.0,1.0,2.0,2.0,364.0016470017144,1.0,1.0,part_1,,,,,,,,,,,,,gray,triangle
223.0,3.0,3.0,0.0,1.0,1.0,363.5612910002237,1.0,1.0,part_1,,,,,,,,,,,,,magenta,circle
56.0,1.0,1.0,0.0,2.0,2.0,393.3601699991413,1.0,1.0,part_1,,,,,,,,,,,,,cyan,I
120.0,6.0,2.0,1.0,3.0,3.0,398.553641000035,1.0,1.0,part_1,,,,,,,,,,,,,blue,cross
86.0,6.0,2.0,1.0,3.0,3.0,372.485998999764,1.0,1.0,part_1,,,,,,,,,,,,,blue,cross
402.0,4.0,4.0,0.0,2.0,2.0,285.9963599985349,1.0,1.0,part_1,,,,,,,,,,,,,white,hexagon
0.0,8.0,0.0,1.0,2.0,2.0,312.1574959986901,1.0,1.0,part_1,,,,,,,,,,,,,gray,triangle
391.0,4.0,4.0,0.0,3.0,3.0,377.4683449992153,1.0,1.0,part_1,,,,,,,,,,,,,white,hexagon
30.0,5.0,1.0,1.0,2.0,2.0,355.237865998788,1.0,1.0,part_1,,,,,,,,,,,,,yellow,diamond
380.0,4.0,4.0,0.0,3.0,3.0,355.1558940016548,1.0,1.0,part_1,,,,,,,,,,,,,white,hexagon
224.0,7.0,3.0,1.0,1.0,1.0,321.1480230002053,1.0,1.0,part_1,,,,,,,,,,,,,green,flipped triangle
125.0,6.0,2.0,1.0,1.0,1.0,333.0131679995247,1.0,1.0,part_1,,,,,,,,,,,,,blue,cross
387.0,8.0,4.0,1.0,3.0,3.0,321.6252590009389,1.0,1.0,part_1,,,,,,,,,,,,,gray,triangle
101.0,2.0,2.0,0.0,1.0,1.0,322.3002639988408,1.0,1.0,part_1,,,,,,,,,,,,,orange,square
81.0,6.0,2.0,1.0,4.0,4.0,316.8962479994661,1.0,1.0,part_1,,,,,,,,,,,,,blue,cross
124.0,2.0,2.0,0.0,1.0,1.0,336.7049529988435,1.0,1.0,part_1,,,,,,,,,,,,,orange,square
0.0,7.0,0.0,1.0,4.0,4.0,405.591581000408,1.0,1.0,part_1,,,,,,,,,,,,,green,flipped triangle
182.0,3.0,3.0,0.0,3.0,3.0,384.5473780002066,1.0,1.0,part_1,,,,,,,,,,,,,magenta,circle
398.0,4.0,4.0,0.0,1.0,1.0,348.9255949989456,1.0,1.0,part_1,,,,,,,,,,,,,white,hexagon
115.0,6.0,2.0,1.0,4.0,4.0,324.8228920001565,1.0,1.0,part_1,,,,,,,,,,,,,blue,cross
52.0,5.0,1.0,1.0,3.0,3.0,381.9086140010768,1.0,1.0,part_1,,,,,,,,,,,,,yellow,diamond
176.0,3.0,3.0,0.0,1.0,1.0,438.6973309992754,1.0,1.0,part_1,,,,,,,,,,,,,magenta,circle
177.0,3.0,3.0,0.0,2.0,2.0,413.940131000345,1.0,1.0,part_1,,,,,,,,,,,,,magenta,circle
57.0,1.0,1.0,0.0,2.0,2.0,455.2608529993449,1.0,2.0,part_1,,,,,,,,,,,,,cyan,I
0.0,7.0,0.0,1.0,2.0,2.0,390.329172998463,1.0,1.0,part_1,,,,,,,,,,,,,green,flipped triangle
0.0,5.0,0.0,1.0,2.0,2.0,493.6328430012509,1.0,1.0,part_1,,,,,,,,,,,,,yellow,diamond
77.0,6.0,2.0,1.0,1.0,1.0,307.4356360011734,1.0,1.0,part_1,,,,,,,,,,,,,blue,cross
213.0,7.0,3.0,1.0,1.0,1.0,315.4825769997842,1.0,1.0,part_1,,,,,,,,,,,,,green,flipped triangle
52.0,5.0,1.0,1.0,3.0,3.0,484.2785879991425,1.0,1.0,part_1,,,,,,,,,,,,,yellow,diamond
0.0,3.0,0.0,0.0,3.0,3.0,366.8205579997448,1.0,1.0,part_1,,,,,,,,,,,,,magenta,circle
27.0,1.0,1.0,0.0,4.0,4.0,351.2387899991154,1.0,1.0,part_1,,,,,,,,,,,,,cyan,I
0.0,5.0,0.0,1.0,3.0,3.0,444.5742490006523,1.0,1.0,part_1,,,,,,,,,,,,,yellow,diamond
214.0,3.0,3.0,0.0,2.0,2.0,355.4661920006765,1.0,1.0,part_1,,,,,,,,,,,,,magenta,circle
198.0,7.0,3.0,1.0,4.0,4.0,442.0373419998213,1.0,1.0,part_1,,,,,,,,,,,,,green,flipped triangle
78.0,2.0,2.0,0.0,2.0,2.0,336.6813609991368,1.0,1.0,part_1,,,,,,,,,,,,,orange,square
94.0,2.0,2.0,0.0,1.0,1.0,309.941068999251,1.0,1.0,part_1,,,,,,,,,,,,,orange,square
186.0,3.0,3.0,0.0,4.0,4.0,296.6958269989845,1.0,1.0,part_1,,,,,,,,,,,,,magenta,circle
201.0,7.0,3.0,1.0,2.0,2.0,333.5523379992082,1.0,1.0,part_1,,,,,,,,,,,,,green,flipped triangle
30.0,5.0,1.0,1.0,2.0,2.0,357.5557799995295,1.0,1.0,part_1,,,,,,,,,,,,,yellow,diamond
382.0,4.0,4.0,0.0,1.0,1.0,365.3513890003523,1.0,1.0,part_1,,,,,,,,,,,,,white,hexagon
0.0,1.0,0.0,0.0,4.0,4.0,316.2550729994109,1.0,1.0,part_1,,,,,,,,,,,,,cyan,I
418.0,8.0,4.0,1.0,2.0,2.0,267.7201720016455,1.0,1.0,part_1,,,,,,,,,,,,,gray,triangle
0.0,2.0,0.0,0.0,2.0,2.0,325.3351740004291,1.0,1.0,part_1,,,,,,,,,,,,,orange,square
107.0,6.0,2.0,1.0,2.0,2.0,302.4786340010905,1.0,1.0,part_1,,,,,,,,,,,,,blue,cross
0.0,8.0,0.0,1.0,3.0,3.0,364.7744359986973,1.0,1.0,part_1,,,,,,,,,,,,,gray,triangle
196.0,7.0,3.0,1.0,2.0,2.0,303.9442760000383,1.0,1.0,part_1,,,,,,,,,,,,,green,flipped triangle
0.0,2.0,0.0,0.0,3.0,3.0,286.2499459988612,1.0,1.0,part_1,,,,,,,,,,,,,orange,square
0.0,7.0,0.0,1.0,4.0,4.0,344.5563120003498,1.0,1.0,part_1,,,,,,,,,,,,,green,flipped triangle
26.0,5.0,1.0,1.0,4.0,4.0,346.2927219989069,1.0,1.0,part_1,,,,,,,,,,,,,yellow,diamond
92.0,6.0,2.0,1.0,3.0,3.0,341.7207250004139,1.0,1.0,part_1,,,,,,,,,,,,,blue,cross
0.0,5.0,0.0,1.0,3.0,3.0,332.1808689997851,1.0,1.0,part_1,,,,,,,,,,,,,yellow,diamond
0.0,6.0,0.0,1.0,4.0,4.0,320.5478030013182,1.0,1.0,part_1,,,,,,,,,,,,,blue,cross
112.0,2.0,2.0,0.0,2.0,2.0,328.0567450001399,1.0,1.0,part_1,,,,,,,,,,,,,orange,square
213.0,3.0,3.0,0.0,4.0,4.0,314.8738380004943,1.0,1.0,part_1,,,,,,,,,,,,,magenta,circle
87.0,6.0,2.0,1.0,3.0,3.0,369.6329020003759,1.0,1.0,part_1,,,,,,,,,,,,,blue,cross
186.0,7.0,3.0,1.0,2.0,2.0,335.9214960000827,1.0,1.0,part_1,,,,,,,,,,,,,green,flipped triangle
0.0,8.0,0.0,1.0,1.0,1.0,323.5189040005934,1.0,1.0,part_1,,,,,,,,,,,,,gray,triangle
0.0,3.0,0.0,0.0,3.0,3.0,292.6630820002174,1.0,1.0,part_1,,,,,,,,,,,,,magenta,circle
0.0,8.0,0.0,1.0,3.0,3.0,349.6944410017022,1.0,1.0,part_1,,,,,,,,,,,,,gray,triangle
192.0,7.0,3.0,1.0,3.0,3.0,300.8539330003259,1.0,1.0,part_1,,,,,,,,,,,,,green,flipped triangle
410.0,8.0,4.0,1.0,3.0,3.0,323.022853999646,1.0,1.0,part_1,,,,,,,,,,,,,gray,triangle
49.0,5.0,1.0,1.0,3.0,3.0,327.8767980009434,1.0,1.0,part_1,,,,,,,,,,,,,yellow,diamond
0.0,2.0,0.0,0.0,2.0,2.0,344.123546999981,1.0,1.0,part_1,,,,,,,,,,,,,orange,square
56.0,5.0,1.0,1.0,1.0,1.0,382.2942410006362,1.0,1.0,part_1,,,,,,,,,,,,,yellow,diamond
0.0,1.0,0.0,0.0,3.0,3.0,304.2699319994426,1.0,1.0,part_1,,,,,,,,,,,,,cyan,I
423.0,4.0,4.0,0.0,4.0,4.0,354.0638989998115,1.0,1.0,part_1,,,,,,,,,,,,,white,hexagon
31.0,5.0,1.0,1.0,1.0,1.0,391.9006109990732,1.0,1.0,part_1,,,,,,,,,,,,,yellow,diamond
0.0,3.0,0.0,0.0,2.0,2.0,308.0637620005291,1.0,1.0,part_1,,,,,,,,,,,,,magenta,circle
219.0,7.0,3.0,1.0,2.0,2.0,330.6751010004518,1.0,1.0,part_1,,,,,,,,,,,,,green,flipped triangle
87.0,6.0,2.0,1.0,3.0,3.0,306.6205510003783,1.0,1.0,part_1,,,,,,,,,,,,,blue,cross
35.0,5.0,1.0,1.0,2.0,2.0,292.1033559996431,1.0,1.0,part_1,,,,,,,,,,,,,yellow,diamond
0.0,6.0,0.0,1.0,4.0,4.0,343.5848360004456,1.0,1.0,part_1,,,,,,,,,,,,,blue,cross
68.0,5.0,1.0,1.0,4.0,4.0,358.3655999991606,1.0,1.0,part_1,,,,,,,,,,,,,yellow,diamond
74.0,5.0,1.0,1.0,2.0,2.0,416.8257840010483,1.0,2.0,part_1,,,,,,,,,,,,,yellow,diamond
0.0,3.0,0.0,0.0,3.0,3.0,322.4689729995589,1.0,1.0,part_1,,,,,,,,,,,,,magenta,circle
192.0,7.0,3.0,1.0,1.0,1.0,310.4617230001167,1.0,1.0,part_1,,,,,,,,,,,,,green,flipped triangle
111.0,6.0,2.0,1.0,4.0,4.0,286.3499869999941,1.0,1.0,part_1,,,,,,,,,,,,,blue,cross
418.0,4.0,4.0,0.0,2.0,2.0,293.1811540001945,1.0,1.0,part_1,,,,,,,,,,,,,white,hexagon
0.0,7.0,0.0,1.0,3.0,3.0,297.1655990004365,1.0,1.0,part_1,,,,,,,,,,,,,green,flipped triangle
99.0,2.0,2.0,0.0,1.0,1.0,311.6747020012553,1.0,1.0,part_1,,,,,,,,,,,,,orange,square
0.0,3.0,0.0,0.0,1.0,1.0,407.5728130010247,1.0,1.0,part_1,,,,,,,,,,,,,magenta,circle
39.0,5.0,1.0,1.0,2.0,2.0,310.8314450000762,1.0,1.0,part_1,,,,,,,,,,,,,yellow,diamond
38.0,1.0,1.0,0.0,3.0,3.0,413.3185930004401,1.0,1.0,part_1,,,,,,,,,,,,,cyan,I
0.0,4.0,0.0,0.0,4.0,4.0,389.3876490001275,1.0,1.0,part_1,,,,,,,,,,,,,white,hexagon
419.0,4.0,4.0,0.0,3.0,3.0,439.5609599996533,1.0,1.0,part_1,,,,,,,,,,,,,white,hexagon
75.0,6.0,2.0,1.0,2.0,2.0,343.1821080012014,1.0,1.0,part_1,,,,,,,,,,,,,blue,cross
180.0,7.0,3.0,1.0,3.0,3.0,365.554116999192,1.0,1.0,part_1,,,,,,,,,,,,,green,flipped triangle
421.0,4.0,4.0,0.0,4.0,4.0,402.688053998645,1.0,1.0,part_1,,,,,,,,,,,,,white,hexagon
0.0,2.0,0.0,0.0,4.0,4.0,372.9121519991167,1.0,1.0,part_1,,,,,,,,,,,,,orange,square
194.0,7.0,3.0,1.0,2.0,2.0,430.829448001532,1.0,1.0,part_1,,,,,,,,,,,,,green,flipped triangle
420.0,4.0,4.0,0.0,4.0,4.0,370.2680229998805,1.0,1.0,part_1,,,,,,,,,,,,,white,hexagon
72.0,5.0,1.0,1.0,1.0,1.0,355.8494799999607,1.0,1.0,part_1,,,,,,,,,,,,,yellow,diamond
94.0,6.0,2.0,1.0,2.0,2.0,442.4555770001461,1.0,1.0,part_1,,,,,,,,,,,,,blue,cross
0.0,5.0,0.0,1.0,1.0,1.0,391.8281459991704,1.0,1.0,part_1,,,,,,,,,,,,,yellow,diamond
421.0,8.0,4.0,1.0,4.0,4.0,335.5619329995534,1.0,1.0,part_1,,,,,,,,,,,,,gray,triangle
0.0,6.0,0.0,1.0,2.0,2.0,308.3202800007711,2.0,1.0,part_1,,,,,,,,,,,,,blue,cross
75.0,2.0,2.0,0.0,3.0,3.0,385.2314110008592,2.0,1.0,part_1,,,,,,,,,,,,,orange,square
77.0,2.0,2.0,0.0,2.0,2.0,268.1702740010223,2.0,1.0,part_1,,,,,,,,,,,,,orange,square
0.0,1.0,0.0,0.0,3.0,3.0,331.1017449996143,2.0,1.0,part_1,,,,,,,,,,,,,cyan,I
62.0,1.0,1.0,0.0,1.0,1.0,278.4641109992662,2.0,1.0,part_1,,,,,,,,,,,,,cyan,I
60.0,1.0,1.0,0.0,4.0,4.0,270.043448999786,2.0,1.0,part_1,,,,,,,,,,,,,cyan,I
72.0,5.0,1.0,1.0,3.0,3.0,348.9193939985853,2.0,1.0,part_1,,,,,,,,,,,,,yellow,diamond
406.0,8.0,4.0,1.0,2.0,2.0,328.1762340011482,2.0,1.0,part_1,,,,,,,,,,,,,gray,triangle
0.0,6.0,0.0,1.0,1.0,1.0,377.28685699948977,2.0,1.0,part_1,,,,,,,,,,,,,blue,cross
0.0,4.0,0.0,0.0,3.0,3.0,350.2462699998432,2.0,1.0,part_1,,,,,,,,,,,,,white,hexagon
43.0,5.0,1.0,1.0,2.0,2.0,358.4278489997814,2.0,1.0,part_1,,,,,,,,,,,,,yellow,diamond
410.0,4.0,4.0,0.0,1.0,1.0,389.9411139991571,2.0,1.0,part_1,,,,,,,,,,,,,white,hexagon
0.0,4.0,0.0,0.0,3.0,3.0,342.3999179995007,2.0,1.0,part_1,,,,,,,,,,,,,white,hexagon
0.0,1.0,0.0,0.0,1.0,1.0,275.0317370009725,2.0,1.0,part_1,,,,,,,,,,,,,cyan,I
26.0,1.0,1.0,0.0,2.0,2.0,321.2069540004449,2.0,1.0,part_1,,,,,,,,,,,,,cyan,I
69.0,5.0,1.0,1.0,3.0,3.0,299.6714599994448,2.0,1.0,part_1,,,,,,,,,,,,,yellow,diamond
62.0,1.0,1.0,0.0,3.0,3.0,344.099425999957,2.0,1.0,part_1,,,,,,,,,,,,,cyan,I
106.0,2.0,2.0,0.0,4.0,4.0,312.5752369996917,2.0,1.0,part_1,,,,,,,,,,,,,orange,square
421.0,4.0,4.0,0.0,1.0,1.0,260.2871620001679,2.0,1.0,part_1,,,,,,,,,,,,,white,hexagon
206.0,7.0,3.0,1.0,3.0,3.0,281.2505670008249,2.0,1.0,part_1,,,,,,,,,,,,,green,flipped triangle
124.0,6.0,2.0,1.0,1.0,1.0,312.5611079994996,2.0,1.0,part_1,,,,,,,,,,,,,blue,cross
115.0,2.0,2.0,0.0,4.0,4.0,324.5490469998913,2.0,1.0,part_1,,,,,,,,,,,,,orange,square
0.0,7.0,0.0,1.0,1.0,1.0,329.8177029992075,2.0,1.0,part_1,,,,,,,,,,,,,green,flipped triangle
68.0,5.0,1.0,1.0,1.0,1.0,394.3082679998042,2.0,1.0,part_1,,,,,,,,,,,,,yellow,diamond
420.0,8.0,4.0,1.0,2.0,2.0,361.2320880001789,2.0,1.0,part_1,,,,,,,,,,,,,gray,triangle
376.0,4.0,4.0,0.0,4.0,4.0,327.9014479994657,2.0,1.0,part_1,,,,,,,,,,,,,white,hexagon
106.0,6.0,2.0,1.0,1.0,1.0,400.82012200036837,2.0,1.0,part_1,,,,,,,,,,,,,blue,cross
78.0,2.0,2.0,0.0,3.0,3.0,456.2880600005883,2.0,1.0,part_1,,,,,,,,,,,,,orange,square
186.0,7.0,3.0,1.0,4.0,4.0,316.629221999392,2.0,1.0,part_1,,,,,,,,,,,,,green,flipped triangle
376.0,8.0,4.0,1.0,1.0,1.0,325.8873100003256,2.0,1.0,part_1,,,,,,,,,,,,,gray,triangle
195.0,7.0,3.0,1.0,1.0,1.0,376.8465850007487,2.0,1.0,part_1,,,,,,,,,,,,,green,flipped triangle
213.0,7.0,3.0,1.0,2.0,2.0,620.7895440002176,2.0,1.0,part_1,,,,,,,,,,,,,green,flipped triangle
0.0,4.0,0.0,0.0,1.0,1.0,345.3535820008255,2.0,1.0,part_1,,,,,,,,,,,,,white,hexagon
404.0,8.0,4.0,1.0,1.0,1.0,430.7583619993238,2.0,1.0,part_1,,,,,,,,,,,,,gray,triangle
419.0,8.0,4.0,1.0,1.0,1.0,583.5842569995293,2.0,1.0,part_1,,,,,,,,,,,,,gray,triangle
0.0,1.0,0.0,0.0,4.0,4.0,330.5498659992736,2.0,1.0,part_1,,,,,,,,,,,,,cyan,I
117.0,6.0,2.0,1.0,2.0,2.0,243.967574000635,2.0,1.0,part_1,,,,,,,,,,,,,blue,cross
178.0,7.0,3.0,1.0,4.0,4.0,284.0919569989637,2.0,1.0,part_1,,,,,,,,,,,,,green,flipped triangle
74.0,1.0,1.0,0.0,1.0,1.0,257.9577399992558,2.0,1.0,part_1,,,,,,,,,,,,,cyan,I
44.0,5.0,1.0,1.0,1.0,1.0,324.9996979993739,2.0,1.0,part_1,,,,,,,,,,,,,yellow,diamond
376.0,8.0,4.0,1.0,3.0,3.0,437.8787230016314,2.0,1.0,part_1,,,,,,,,,,,,,gray,triangle
56.0,5.0,1.0,1.0,1.0,1.0,402.8234029992745,2.0,1.0,part_1,,,,,,,,,,,,,yellow,diamond
76.0,6.0,2.0,1.0,1.0,1.0,336.0436499988282,2.0,1.0,part_1,,,,,,,,,,,,,blue,cross
33.0,1.0,1.0,0.0,4.0,4.0,371.7859549997229,2.0,1.0,part_1,,,,,,,,,,,,,cyan,I
62.0,5.0,1.0,1.0,4.0,4.0,300.675153001066,2.0,1.0,part_1,,,,,,,,,,,,,yellow,diamond
117.0,2.0,2.0,0.0,4.0,4.0,436.9076359998871,2.0,1.0,part_1,,,,,,,,,,,,,orange,square
0.0,2.0,0.0,0.0,3.0,3.0,389.0188579989626,2.0,1.0,part_1,,,,,,,,,,,,,orange,square
382.0,8.0,4.0,1.0,3.0,3.0,421.2417290000303,2.0,1.0,part_1,,,,,,,,,,,,,gray,triangle
387.0,4.0,4.0,0.0,1.0,1.0,388.619159000882,2.0,2.0,part_1,,,,,,,,,,,,,white,hexagon
0.0,7.0,0.0,1.0,2.0,2.0,368.4607729992422,2.0,1.0,part_1,,,,,,,,,,,,,green,flipped triangle
0.0,8.0,0.0,1.0,1.0,1.0,295.7864679992781,2.0,1.0,part_1,,,,,,,,,,,,,gray,triangle
26.0,1.0,1.0,0.0,3.0,3.0,368.5753970003134,2.0,1.0,part_1,,,,,,,,,,,,,cyan,I
376.0,4.0,4.0,0.0,3.0,3.0,333.2515160000184,2.0,1.0,part_1,,,,,,,,,,,,,white,hexagon
219.0,3.0,3.0,0.0,1.0,1.0,349.6984310004336,2.0,1.0,part_1,,,,,,,,,,,,,magenta,circle
207.0,3.0,3.0,0.0,1.0,1.0,327.5961869985622,2.0,1.0,part_1,,,,,,,,,,,,,magenta,circle
0.0,5.0,0.0,1.0,2.0,2.0,284.5476860002236,2.0,1.0,part_1,,,,,,,,,,,,,yellow,diamond
40.0,5.0,1.0,1.0,2.0,2.0,338.3825349992548,2.0,1.0,part_1,,,,,,,,,,,,,yellow,diamond
122.0,6.0,2.0,1.0,1.0,1.0,278.9258809989405,2.0,1.0,part_1,,,,,,,,,,,,,blue,cross
406.0,8.0,4.0,1.0,4.0,4.0,355.9042240012786,2.0,1.0,part_1,,,,,,,,,,,,,gray,triangle
92.0,2.0,2.0,0.0,2.0,2.0,299.2578960001992,2.0,1.0,part_1,,,,,,,,,,,,,orange,square
189.0,7.0,3.0,1.0,1.0,1.0,310.9453910001321,2.0,1.0,part_1,,,,,,,,,,,,,green,flipped triangle
37.0,5.0,1.0,1.0,4.0,4.0,317.9436009995697,2.0,1.0,part_1,,,,,,,,,,,,,yellow,diamond
203.0,7.0,3.0,1.0,1.0,1.0,331.3088410013733,2.0,1.0,part_1,,,,,,,,,,,,,green,flipped triangle
0.0,1.0,0.0,0.0,1.0,1.0,319.6324469990941,2.0,1.0,part_1,,,,,,,,,,,,,cyan,I
176.0,7.0,3.0,1.0,1.0,1.0,345.6916189988988,2.0,1.0,part_1,,,,,,,,,,,,,green,flipped triangle
76.0,2.0,2.0,0.0,2.0,2.0,398.9158980002685,2.0,1.0,part_1,,,,,,,,,,,,,orange,square
37.0,1.0,1.0,0.0,4.0,4.0,697.4041419998684,2.0,1.0,part_1,,,,,,,,,,,,,cyan,I
0.0,8.0,0.0,1.0,2.0,2.0,956.8846090005536,2.0,1.0,part_1,,,,,,,,,,,,,gray,triangle
188.0,3.0,3.0,0.0,3.0,3.0,382.029804000922,2.0,1.0,part_1,,,,,,,,,,,,,magenta,circle
379.0,4.0,4.0,0.0,3.0,3.0,262.9716520004876,2.0,1.0,part_1,,,,,,,,,,,,,white,hexagon
94.0,6.0,2.0,1.0,4.0,4.0,327.4447739986499,2.0,1.0,part_1,,,,,,,,,,,,,blue,cross
379.0,8.0,4.0,1.0,4.0,4.0,341.5746419996139,2.0,1.0,part_1,,,,,,,,,,,,,gray,triangle
97.0,6.0,2.0,1.0,1.0,1.0,310.5645249997906,2.0,1.0,part_1,,,,,,,,,,,,,blue,cross
177.0,7.0,3.0,1.0,3.0,3.0,460.9202150004421,2.0,1.0,part_1,,,,,,,,,,,,,green,flipped triangle
404.0,4.0,4.0,0.0,1.0,1.0,317.5675769998634,2.0,1.0,part_1,,,,,,,,,,,,,white,hexagon
389.0,4.0,4.0,0.0,1.0,1.0,383.6434009990626,2.0,1.0,part_1,,,,,,,,,,,,,white,hexagon
423.0,4.0,4.0,0.0,4.0,4.0,351.6584020017035,2.0,1.0,part_1,,,,,,,,,,,,,white,hexagon
31.0,1.0,1.0,0.0,4.0,4.0,304.276413999105,2.0,1.0,part_1,,,,,,,,,,,,,cyan,I
0.0,7.0,0.0,1.0,4.0,4.0,322.7448690013261,2.0,1.0,part_1,,,,,,,,,,,,,green,flipped triangle
0.0,6.0,0.0,1.0,2.0,2.0,365.4932740009826,2.0,1.0,part_1,,,,,,,,,,,,,blue,cross
379.0,8.0,4.0,1.0,2.0,2.0,452.6994380012183,2.0,1.0,part_1,,,,,,,,,,,,,gray,triangle
180.0,3.0,3.0,0.0,3.0,3.0,265.6220249991747,2.0,1.0,part_1,,,,,,,,,,,,,magenta,circle
0.0,7.0,0.0,1.0,1.0,1.0,301.5304660002584,2.0,1.0,part_1,,,,,,,,,,,,,green,flipped triangle
0.0,3.0,0.0,0.0,2.0,2.0,315.4513930003304,2.0,1.0,part_1,,,,,,,,,,,,,magenta,circle
0.0,4.0,0.0,0.0,4.0,4.0,314.1158189991984,2.0,1.0,part_1,,,,,,,,,,,,,white,hexagon
217.0,7.0,3.0,1.0,3.0,3.0,451.6302339998219,2.0,1.0,part_1,,,,,,,,,,,,,green,flipped triangle
415.0,8.0,4.0,1.0,3.0,3.0,672.2999699995853,2.0,1.0,part_1,,,,,,,,,,,,,gray,triangle
0.0,5.0,0.0,1.0,3.0,3.0,590.5081559994869,2.0,1.0,part_1,,,,,,,,,,,,,yellow,diamond
214.0,7.0,3.0,1.0,1.0,1.0,265.9724000004644,2.0,1.0,part_1,,,,,,,,,,,,,green,flipped triangle
106.0,2.0,2.0,0.0,3.0,3.0,230.9741199987911,2.0,1.0,part_1,,,,,,,,,,,,,orange,square
0.0,4.0,0.0,0.0,4.0,4.0,335.0644450001709,2.0,1.0,part_1,,,,,,,,,,,,,white,hexagon
0.0,6.0,0.0,1.0,1.0,1.0,256.9903049989079,2.0,1.0,part_1,,,,,,,,,,,,,blue,cross
88.0,2.0,2.0,0.0,1.0,1.0,388.4380020008393,2.0,1.0,part_1,,,,,,,,,,,,,orange,square
117.0,2.0,2.0,0.0,2.0,2.0,405.8917479997035,2.0,1.0,part_1,,,,,,,,,,,,,orange,square
82.0,2.0,2.0,0.0,4.0,4.0,378.426175999266,2.0,2.0,part_1,,,,,,,,,,,,,orange,square
0.0,7.0,0.0,1.0,1.0,1.0,340.982879000876,2.0,1.0,part_1,,,,,,,,,,,,,green,flipped triangle
111.0,2.0,2.0,0.0,3.0,3.0,327.8908080010296,2.0,2.0,part_1,,,,,,,,,,,,,orange,square
0.0,4.0,0.0,0.0,3.0,3.0,459.1132980003749,2.0,2.0,part_1,,,,,,,,,,,,,white,hexagon
0.0,3.0,0.0,0.0,1.0,1.0,348.1312570002046,2.0,1.0,part_1,,,,,,,,,,,,,magenta,circle
408.0,4.0,4.0,0.0,3.0,3.0,309.0590519987017,2.0,1.0,part_1,,,,,,,,,,,,,white,hexagon
186.0,3.0,3.0,0.0,2.0,2.0,386.5926849994139,3.0,1.0,part_1,,,,,,,,,,,,,magenta,circle
224.0,3.0,3.0,0.0,4.0,4.0,352.2696990003169,3.0,1.0,part_1,,,,,,,,,,,,,magenta,circle
72.0,1.0,1.0,0.0,1.0,1.0,382.1472540003015,3.0,1.0,part_1,,,,,,,,,,,,,cyan,I
0.0,2.0,0.0,0.0,2.0,2.0,437.186365999878,3.0,1.0,part_1,,,,,,,,,,,,,orange,square
189.0,3.0,3.0,0.0,1.0,1.0,365.1118990001123,3.0,1.0,part_1,,,,,,,,,,,,,magenta,circle
413.0,4.0,4.0,0.0,2.0,2.0,296.2532920009835,3.0,1.0,part_1,,,,,,,,,,,,,white,hexagon
391.0,8.0,4.0,1.0,2.0,2.0,532.0935569998255,3.0,1.0,part_1,,,,,,,,,,,,,gray,triangle
211.0,7.0,3.0,1.0,2.0,2.0,468.1139799995435,3.0,1.0,part_1,,,,,,,,,,,,,green,flipped triangle
389.0,8.0,4.0,1.0,1.0,1.0,381.0851990001538,3.0,1.0,part_1,,,,,,,,,,,,,gray,triangle
125.0,2.0,2.0,0.0,4.0,4.0,430.1518940010282,3.0,1.0,part_1,,,,,,,,,,,,,orange,square
390.0,8.0,4.0,1.0,1.0,1.0,546.7461289990752,3.0,1.0,part_1,,,,,,,,,,,,,gray,triangle
206.0,7.0,3.0,1.0,4.0,4.0,477.3183329998574,3.0,1.0,part_1,,,,,,,,,,,,,green,flipped triangle
406.0,4.0,4.0,0.0,2.0,2.0,343.8768190007977,3.0,1.0,part_1,,,,,,,,,,,,,white,hexagon
68.0,5.0,1.0,1.0,4.0,4.0,333.7070050001784,3.0,1.0,part_1,,,,,,,,,,,,,yellow,diamond
0.0,1.0,0.0,0.0,1.0,1.0,313.3176709998224,3.0,1.0,part_1,,,,,,,,,,,,,cyan,I
392.0,8.0,4.0,1.0,4.0,4.0,375.8377320009458,3.0,1.0,part_1,,,,,,,,,,,,,gray,triangle
403.0,4.0,4.0,0.0,2.0,2.0,319.8896030007745,3.0,1.0,part_1,,,,,,,,,,,,,white,hexagon
213.0,3.0,3.0,0.0,4.0,4.0,361.6590159999759,3.0,1.0,part_1,,,,,,,,,,,,,magenta,circle
405.0,4.0,4.0,0.0,4.0,4.0,406.3487900002656,3.0,1.0,part_1,,,,,,,,,,,,,white,hexagon
43.0,1.0,1.0,0.0,4.0,4.0,378.2122659995366,3.0,1.0,part_1,,,,,,,,,,,,,cyan,I
378.0,8.0,4.0,1.0,4.0,4.0,354.9272050004219,3.0,1.0,part_1,,,,,,,,,,,,,gray,triangle
52.0,1.0,1.0,0.0,1.0,1.0,345.6182539994188,3.0,1.0,part_1,,,,,,,,,,,,,cyan,I
0.0,2.0,0.0,0.0,1.0,1.0,457.6578640007938,3.0,1.0,part_1,,,,,,,,,,,,,orange,square
388.0,8.0,4.0,1.0,3.0,3.0,369.048840000687,3.0,1.0,part_1,,,,,,,,,,,,,gray,triangle
0.0,4.0,0.0,0.0,1.0,1.0,318.0653220006206,3.0,1.0,part_1,,,,,,,,,,,,,white,hexagon
0.0,2.0,0.0,0.0,3.0,3.0,413.8618300003145,3.0,1.0,part_1,,,,,,,,,,,,,orange,square
78.0,6.0,2.0,1.0,1.0,1.0,374.3185519997496,3.0,1.0,part_1,,,,,,,,,,,,,blue,cross
0.0,4.0,0.0,0.0,1.0,1.0,700.0203040006454,3.0,1.0,part_1,,,,,,,,,,,,,white,hexagon
94.0,2.0,2.0,0.0,2.0,2.0,330.7126149993564,3.0,1.0,part_1,,,,,,,,,,,,,orange,square
208.0,7.0,3.0,1.0,4.0,4.0,363.808059000803,3.0,1.0,part_1,,,,,,,,,,,,,green,flipped triangle
86.0,2.0,2.0,0.0,1.0,1.0,385.8320540002751,3.0,1.0,part_1,,,,,,,,,,,,,orange,square
388.0,4.0,4.0,0.0,1.0,1.0,362.46252799901407,3.0,1.0,part_1,,,,,,,,,,,,,white,hexagon
49.0,1.0,1.0,0.0,2.0,2.0,451.1264090015174,3.0,1.0,part_1,,,,,,,,,,,,,cyan,I
0.0,8.0,0.0,1.0,4.0,4.0,671.6019720006443,3.0,1.0,part_1,,,,,,,,,,,,,gray,triangle
40.0,1.0,1.0,0.0,3.0,3.0,350.9826360004808,3.0,1.0,part_1,,,,,,,,,,,,,cyan,I
0.0,5.0,0.0,1.0,4.0,4.0,568.2260039993707,3.0,1.0,part_1,,,,,,,,,,,,,yellow,diamond
393.0,4.0,4.0,0.0,1.0,1.0,519.3294900000183,3.0,1.0,part_1,,,,,,,,,,,,,white,hexagon
408.0,8.0,4.0,1.0,2.0,2.0,291.7299019991333,3.0,1.0,part_1,,,,,,,,,,,,,gray,triangle
0.0,3.0,0.0,0.0,1.0,1.0,258.1061939999927,3.0,1.0,part_1,,,,,,,,,,,,,magenta,circle
203.0,3.0,3.0,0.0,3.0,3.0,335.2288240002963,3.0,1.0,part_1,,,,,,,,,,,,,magenta,circle
0.0,6.0,0.0,1.0,1.0,1.0,415.9718249993602,3.0,1.0,part_1,,,,,,,,,,,,,blue,cross
122.0,2.0,2.0,0.0,3.0,3.0,293.4744020003563,3.0,1.0,part_1,,,,,,,,,,,,,orange,square
105.0,2.0,2.0,0.0,3.0,3.0,323.4438020008383,3.0,1.0,part_1,,,,,,,,,,,,,orange,square
188.0,7.0,3.0,1.0,4.0,4.0,334.9654930007091,3.0,1.0,part_1,,,,,,,,,,,,,green,flipped triangle
398.0,4.0,4.0,0.0,2.0,2.0,452.5981530005083,3.0,1.0,part_1,,,,,,,,,,,,,white,hexagon
0.0,1.0,0.0,0.0,3.0,3.0,519.7664650004299,3.0,1.0,part_1,,,,,,,,,,,,,cyan,I
405.0,4.0,4.0,0.0,4.0,4.0,696.6589980002027,3.0,1.0,part_1,,,,,,,,,,,,,white,hexagon
386.0,8.0,4.0,1.0,2.0,2.0,285.6098240008577,3.0,1.0,part_1,,,,,,,,,,,,,gray,triangle
178.0,3.0,3.0,0.0,4.0,4.0,592.8307580015826,3.0,1.0,part_1,,,,,,,,,,,,,magenta,circle
66.0,5.0,1.0,1.0,4.0,4.0,444.7266620009031,3.0,1.0,part_1,,,,,,,,,,,,,yellow,diamond
120.0,2.0,2.0,0.0,1.0,1.0,329.3110550002893,3.0,2.0,part_1,,,,,,,,,,,,,orange,square
38.0,5.0,1.0,1.0,3.0,3.0,472.0804650005448,3.0,1.0,part_1,,,,,,,,,,,,,yellow,diamond
106.0,2.0,2.0,0.0,1.0,1.0,391.256954999335,3.0,1.0,part_1,,,,,,,,,,,,,orange,square
0.0,8.0,0.0,1.0,4.0,4.0,492.4142620002385,3.0,1.0,part_1,,,,,,,,,,,,,gray,triangle
211.0,3.0,3.0,0.0,3.0,3.0,446.5053950007132,3.0,1.0,part_1,,,,,,,,,,,,,magenta,circle
77.0,6.0,2.0,1.0,4.0,4.0,521.3274409998121,3.0,1.0,part_1,,,,,,,,,,,,,blue,cross
402.0,8.0,4.0,1.0,1.0,1.0,339.3817150008544,3.0,1.0,part_1,,,,,,,,,,,,,gray,triangle
106.0,6.0,2.0,1.0,3.0,3.0,386.7455559993686,3.0,1.0,part_1,,,,,,,,,,,,,blue,cross
0.0,8.0,0.0,1.0,1.0,1.0,339.2336439992505,3.0,2.0,part_1,,,,,,,,,,,,,gray,triangle
112.0,6.0,2.0,1.0,4.0,4.0,351.6432000014902,3.0,1.0,part_1,,,,,,,,,,,,,blue,cross
390.0,4.0,4.0,0.0,3.0,3.0,336.931410998659,3.0,1.0,part_1,,,,,,,,,,,,,white,hexagon
183.0,3.0,3.0,0.0,1.0,1.0,337.3592509997252,3.0,1.0,part_1,,,,,,,,,,,,,magenta,circle
211.0,7.0,3.0,1.0,3.0,3.0,458.6950749999232,3.0,1.0,part_1,,,,,,,,,,,,,green,flipped triangle
0.0,1.0,0.0,0.0,3.0,3.0,356.5645569997286,3.0,1.0,part_1,,,,,,,,,,,,,cyan,I
102.0,2.0,2.0,0.0,3.0,3.0,367.4107390015706,3.0,1.0,part_1,,,,,,,,,,,,,orange,square
62.0,5.0,1.0,1.0,4.0,4.0,562.800703000903,3.0,1.0,part_1,,,,,,,,,,,,,yellow,diamond
26.0,5.0,1.0,1.0,1.0,1.0,655.7020729997021,3.0,1.0,part_1,,,,,,,,,,,,,yellow,diamond
421.0,8.0,4.0,1.0,4.0,4.0,400.8731659996556,3.0,1.0,part_1,,,,,,,,,,,,,gray,triangle
30.0,5.0,1.0,1.0,4.0,4.0,356.5810239997518,3.0,1.0,part_1,,,,,,,,,,,,,yellow,diamond
386.0,4.0,4.0,0.0,4.0,4.0,368.0089930003305,3.0,2.0,part_1,,,,,,,,,,,,,white,hexagon
406.0,4.0,4.0,0.0,3.0,3.0,332.2578869992867,3.0,1.0,part_1,,,,,,,,,,,,,white,hexagon
0.0,3.0,0.0,0.0,1.0,1.0,398.9602699984971,3.0,1.0,part_1,,,,,,,,,,,,,magenta,circle
217.0,3.0,3.0,0.0,2.0,2.0,323.8289050004823,3.0,1.0,part_1,,,,,,,,,,,,,magenta,circle
39.0,1.0,1.0,0.0,2.0,2.0,343.9994870004739,3.0,1.0,part_1,,,,,,,,,,,,,cyan,I
179.0,7.0,3.0,1.0,3.0,3.0,314.832578998903,3.0,1.0,part_1,,,,,,,,,,,,,green,flipped triangle
97.0,2.0,2.0,0.0,2.0,2.0,353.4656840001844,3.0,1.0,part_1,,,,,,,,,,,,,orange,square
0.0,5.0,0.0,1.0,2.0,2.0,477.3431260000507,3.0,1.0,part_1,,,,,,,,,,,,,yellow,diamond
30.0,1.0,1.0,0.0,1.0,1.0,572.1992960006901,3.0,1.0,part_1,,,,,,,,,,,,,cyan,I
68.0,1.0,1.0,0.0,1.0,1.0,458.9432119992125,3.0,1.0,part_1,,,,,,,,,,,,,cyan,I
192.0,3.0,3.0,0.0,3.0,3.0,337.3442770007386,3.0,1.0,part_1,,,,,,,,,,,,,magenta,circle
182.0,7.0,3.0,1.0,4.0,4.0,376.6062409995356,3.0,1.0,part_1,,,,,,,,,,,,,green,flipped triangle
182.0,7.0,3.0,1.0,3.0,3.0,320.333188999939,3.0,2.0,part_1,,,,,,,,,,,,,green,flipped triangle
206.0,3.0,3.0,0.0,2.0,2.0,317.2285890013882,3.0,1.0,part_1,,,,,,,,,,,,,magenta,circle
102.0,6.0,2.0,1.0,3.0,3.0,435.6596430006902,3.0,1.0,part_1,,,,,,,,,,,,,blue,cross
215.0,3.0,3.0,0.0,2.0,2.0,399.571002999437,3.0,1.0,part_1,,,,,,,,,,,,,magenta,circle
99.0,6.0,2.0,1.0,2.0,2.0,372.3338769996189,3.0,1.0,part_1,,,,,,,,,,,,,blue,cross
418.0,4.0,4.0,0.0,4.0,4.0,396.0603420000552,3.0,1.0,part_1,,,,,,,,,,,,,white,hexagon
415.0,4.0,4.0,0.0,4.0,4.0,335.5536359995312,3.0,1.0,part_1,,,,,,,,,,,,,white,hexagon
33.0,5.0,1.0,1.0,2.0,2.0,380.3732090000267,3.0,1.0,part_1,,,,,,,,,,,,,yellow,diamond
60.0,5.0,1.0,1.0,3.0,3.0,478.2365200007916,3.0,1.0,part_1,,,,,,,,,,,,,yellow,diamond
82.0,6.0,2.0,1.0,4.0,4.0,259.8789669991674,3.0,2.0,part_1,,,,,,,,,,,,,blue,cross
68.0,1.0,1.0,0.0,3.0,3.0,403.5896459990908,3.0,1.0,part_1,,,,,,,,,,,,,cyan,I
222.0,3.0,3.0,0.0,2.0,2.0,327.8471440007706,3.0,1.0,part_1,,,,,,,,,,,,,magenta,circle
52.0,1.0,1.0,0.0,1.0,1.0,400.1620609997189,3.0,1.0,part_1,,,,,,,,,,,,,cyan,I
215.0,7.0,3.0,1.0,2.0,2.0,295.4845860003843,3.0,1.0,part_1,,,,,,,,,,,,,green,flipped triangle
81.0,2.0,2.0,0.0,4.0,4.0,364.4231289999879,3.0,1.0,part_1,,,,,,,,,,,,,orange,square
413.0,8.0,4.0,1.0,4.0,4.0,314.5940929989592,3.0,1.0,part_1,,,,,,,,,,,,,gray,triangle
398.0,8.0,4.0,1.0,4.0,4.0,343.7722340004256,3.0,1.0,part_1,,,,,,,,,,,,,gray,triangle
182.0,3.0,3.0,0.0,2.0,2.0,293.3760319992871,3.0,1.0,part_1,,,,,,,,,,,,,magenta,circle
183.0,7.0,3.0,1.0,4.0,4.0,329.7592790004273,3.0,1.0,part_1,,,,,,,,,,,,,green,flipped triangle
87.0,2.0,2.0,0.0,4.0,4.0,465.0722309997945,4.0,1.0,part_1,,,,,,,,,,,,,orange,square
0.0,2.0,0.0,0.0,4.0,4.0,298.6890249994758,4.0,1.0,part_1,,,,,,,,,,,,,orange,square
27.0,5.0,1.0,1.0,2.0,2.0,294.8314829991432,4.0,1.0,part_1,,,,,,,,,,,,,yellow,diamond
222.0,7.0,3.0,1.0,2.0,2.0,265.1095609999174,4.0,1.0,part_1,,,,,,,,,,,,,green,flipped triangle
196.0,3.0,3.0,0.0,3.0,3.0,265.7916499993007,4.0,1.0,part_1,,,,,,,,,,,,,magenta,circle
223.0,7.0,3.0,1.0,3.0,3.0,393.8484509999398,4.0,1.0,part_1,,,,,,,,,,,,,green,flipped triangle
403.0,8.0,4.0,1.0,1.0,1.0,329.038642001251,4.0,1.0,part_1,,,,,,,,,,,,,gray,triangle
0.0,8.0,0.0,1.0,3.0,3.0,297.1244290001777,4.0,1.0,part_1,,,,,,,,,,,,,gray,triangle
418.0,8.0,4.0,1.0,1.0,1.0,288.2442459995218,4.0,1.0,part_1,,,,,,,,,,,,,gray,triangle
35.0,1.0,1.0,0.0,2.0,2.0,286.2457629998971,4.0,1.0,part_1,,,,,,,,,,,,,cyan,I
82.0,6.0,2.0,1.0,3.0,3.0,443.7351229989872,4.0,1.0,part_1,,,,,,,,,,,,,blue,cross
412.0,4.0,4.0,0.0,3.0,3.0,321.3488309993408,4.0,2.0,part_1,,,,,,,,,,,,,white,hexagon
382.0,8.0,4.0,1.0,2.0,2.0,308.6417900012748,4.0,1.0,part_1,,,,,,,,,,,,,gray,triangle
94.0,6.0,2.0,1.0,3.0,3.0,321.2972929995885,4.0,1.0,part_1,,,,,,,,,,,,,blue,cross
0.0,6.0,0.0,1.0,1.0,1.0,572.3922880006285,4.0,1.0,part_1,,,,,,,,,,,,,blue,cross
28.0,1.0,1.0,0.0,4.0,4.0,373.805485000048,4.0,1.0,part_1,,,,,,,,,,,,,cyan,I
124.0,2.0,2.0,0.0,2.0,2.0,296.8275919993175,4.0,1.0,part_1,,,,,,,,,,,,,orange,square
217.0,3.0,3.0,0.0,3.0,3.0,326.1999620008282,4.0,1.0,part_1,,,,,,,,,,,,,magenta,circle
78.0,6.0,2.0,1.0,2.0,2.0,572.9174460011563,4.0,1.0,part_1,,,,,,,,,,,,,blue,cross
28.0,5.0,1.0,1.0,1.0,1.0,347.6521550001052,4.0,1.0,part_1,,,,,,,,,,,,,yellow,diamond
71.0,1.0,1.0,0.0,2.0,2.0,306.6328219993011,4.0,1.0,part_1,,,,,,,,,,,,,cyan,I
208.0,3.0,3.0,0.0,4.0,4.0,308.574458998919,4.0,1.0,part_1,,,,,,,,,,,,,magenta,circle
179.0,3.0,3.0,0.0,2.0,2.0,435.9587270009797,4.0,1.0,part_1,,,,,,,,,,,,,magenta,circle
211.0,3.0,3.0,0.0,4.0,4.0,332.7998469994782,4.0,1.0,part_1,,,,,,,,,,,,,magenta,circle
223.0,3.0,3.0,0.0,3.0,3.0,300.5323520010279,4.0,1.0,part_1,,,,,,,,,,,,,magenta,circle
69.0,1.0,1.0,0.0,3.0,3.0,369.5709149997128,4.0,1.0,part_1,,,,,,,,,,,,,cyan,I
378.0,4.0,4.0,0.0,3.0,3.0,313.4007179996843,4.0,1.0,part_1,,,,,,,,,,,,,white,hexagon
194.0,3.0,3.0,0.0,3.0,3.0,574.3736709991936,4.0,1.0,part_1,,,,,,,,,,,,,magenta,circle
198.0,3.0,3.0,0.0,4.0,4.0,473.4540469999047,4.0,1.0,part_1,,,,,,,,,,,,,magenta,circle
197.0,7.0,3.0,1.0,2.0,2.0,483.7647030017251,4.0,1.0,part_1,,,,,,,,,,,,,green,flipped triangle
0.0,3.0,0.0,0.0,2.0,2.0,410.5192679999163,4.0,1.0,part_1,,,,,,,,,,,,,magenta,circle
0.0,6.0,0.0,1.0,1.0,1.0,378.0841450006846,4.0,1.0,part_1,,,,,,,,,,,,,blue,cross
0.0,1.0,0.0,0.0,4.0,4.0,463.6306049997074,4.0,1.0,part_1,,,,,,,,,,,,,cyan,I
393.0,8.0,4.0,1.0,2.0,2.0,275.1018309991195,4.0,1.0,part_1,,,,,,,,,,,,,gray,triangle
87.0,2.0,2.0,0.0,4.0,4.0,253.51375799982628,4.0,1.0,part_1,,,,,,,,,,,,,orange,square
0.0,7.0,0.0,1.0,1.0,1.0,407.678333000149,4.0,1.0,part_1,,,,,,,,,,,,,green,flipped triangle
382.0,4.0,4.0,0.0,1.0,1.0,400.3417170006287,4.0,1.0,part_1,,,,,,,,,,,,,white,hexagon
69.0,5.0,1.0,1.0,1.0,1.0,407.7427730007912,4.0,1.0,part_1,,,,,,,,,,,,,yellow,diamond
32.0,5.0,1.0,1.0,2.0,2.0,301.3620630008518,4.0,2.0,part_1,,,,,,,,,,,,,yellow,diamond
392.0,4.0,4.0,0.0,2.0,2.0,286.7398810012673,4.0,1.0,part_1,,,,,,,,,,,,,white,hexagon
423.0,8.0,4.0,1.0,3.0,3.0,367.8159179999056,4.0,1.0,part_1,,,,,,,,,,,,,gray,triangle
85.0,6.0,2.0,1.0,4.0,4.0,313.4507780014246,4.0,2.0,part_1,,,,,,,,,,,,,blue,cross
379.0,4.0,4.0,0.0,2.0,2.0,288.4245770001143,4.0,1.0,part_1,,,,,,,,,,,,,white,hexagon
48.0,5.0,1.0,1.0,4.0,4.0,293.9481440007512,4.0,2.0,part_1,,,,,,,,,,,,,yellow,diamond
404.0,4.0,4.0,0.0,2.0,2.0,391.1379869987286,4.0,1.0,part_1,,,,,,,,,,,,,white,hexagon
55.0,5.0,1.0,1.0,4.0,4.0,339.8765690017171,4.0,1.0,part_1,,,,,,,,,,,,,yellow,diamond
407.0,8.0,4.0,1.0,3.0,3.0,424.5784600007027,4.0,1.0,part_1,,,,,,,,,,,,,gray,triangle
85.0,2.0,2.0,0.0,1.0,1.0,387.2741680006584,4.0,1.0,part_1,,,,,,,,,,,,,orange,square
69.0,1.0,1.0,0.0,3.0,3.0,588.6226879993046,4.0,1.0,part_1,,,,,,,,,,,,,cyan,I
117.0,6.0,2.0,1.0,3.0,3.0,483.8881550003862,4.0,1.0,part_1,,,,,,,,,,,,,blue,cross
66.0,1.0,1.0,0.0,1.0,1.0,330.1314229993295,4.0,1.0,part_1,,,,,,,,,,,,,cyan,I
94.0,2.0,2.0,0.0,3.0,3.0,541.8170299999474,4.0,1.0,part_1,,,,,,,,,,,,,orange,square
0.0,5.0,0.0,1.0,3.0,3.0,452.7562570001464,4.0,1.0,part_1,,,,,,,,,,,,,yellow,diamond
44.0,1.0,1.0,0.0,4.0,4.0,527.0435780003027,4.0,1.0,part_1,,,,,,,,,,,,,cyan,I
184.0,3.0,3.0,0.0,4.0,4.0,484.5215799996367,4.0,1.0,part_1,,,,,,,,,,,,,magenta,circle
56.0,1.0,1.0,0.0,2.0,2.0,426.8334620010137,4.0,1.0,part_1,,,,,,,,,,,,,cyan,I
117.0,6.0,2.0,1.0,4.0,4.0,335.9636460008914,4.0,2.0,part_1,,,,,,,,,,,,,blue,cross
48.0,1.0,1.0,0.0,3.0,3.0,353.2077989984827,4.0,1.0,part_1,,,,,,,,,,,,,cyan,I
0.0,2.0,0.0,0.0,4.0,4.0,326.9309740007884,4.0,1.0,part_1,,,,,,,,,,,,,orange,square
117.0,6.0,2.0,1.0,1.0,1.0,474.6699059996899,4.0,1.0,part_1,,,,,,,,,,,,,blue,cross
195.0,3.0,3.0,0.0,2.0,2.0,534.5270420002635,4.0,1.0,part_1,,,,,,,,,,,,,magenta,circle
203.0,7.0,3.0,1.0,4.0,4.0,383.1146339998668,4.0,1.0,part_1,,,,,,,,,,,,,green,flipped triangle
217.0,7.0,3.0,1.0,4.0,4.0,397.075588000007,4.0,1.0,part_1,,,,,,,,,,,,,green,flipped triangle
223.0,7.0,3.0,1.0,3.0,3.0,308.0233319997205,4.0,3.0,part_1,,,,,,,,,,,,,green,flipped triangle
197.0,3.0,3.0,0.0,1.0,1.0,304.2505109988269,4.0,2.0,part_1,,,,,,,,,,,,,magenta,circle
404.0,8.0,4.0,1.0,1.0,1.0,418.4551039998041,4.0,1.0,part_1,,,,,,,,,,,,,gray,triangle
184.0,7.0,3.0,1.0,1.0,1.0,367.6142370004527,4.0,1.0,part_1,,,,,,,,,,,,,green,flipped triangle
107.0,2.0,2.0,0.0,3.0,3.0,635.3240319986071,4.0,1.0,part_1,,,,,,,,,,,,,orange,square
405.0,8.0,4.0,1.0,3.0,3.0,371.1709510007495,4.0,1.0,part_1,,,,,,,,,,,,,gray,triangle
0.0,4.0,0.0,0.0,3.0,3.0,313.3669620001456,4.0,1.0,part_1,,,,,,,,,,,,,white,hexagon
68.0,1.0,1.0,0.0,3.0,3.0,604.7651509998104,4.0,1.0,part_1,,,,,,,,,,,,,cyan,I
106.0,6.0,2.0,1.0,2.0,2.0,438.5971280007652,4.0,1.0,part_1,,,,,,,,,,,,,blue,cross
71.0,5.0,1.0,1.0,1.0,1.0,288.5576689986919,4.0,1.0,part_1,,,,,,,,,,,,,yellow,diamond
407.0,4.0,4.0,0.0,2.0,2.0,319.0790769986051,4.0,1.0,part_1,,,,,,,,,,,,,white,hexagon
412.0,8.0,4.0,1.0,4.0,4.0,313.3747539995966,4.0,1.0,part_1,,,,,,,,,,,,,gray,triangle
30.0,1.0,1.0,0.0,4.0,4.0,541.5968429988425,4.0,1.0,part_1,,,,,,,,,,,,,cyan,I
125.0,6.0,2.0,1.0,2.0,2.0,346.0756139993464,4.0,1.0,part_1,,,,,,,,,,,,,blue,cross
380.0,8.0,4.0,1.0,1.0,1.0,295.7205750008143,4.0,1.0,part_1,,,,,,,,,,,,,gray,triangle
117.0,2.0,2.0,0.0,2.0,2.0,349.4801769993501,4.0,1.0,part_1,,,,,,,,,,,,,orange,square
30.0,1.0,1.0,0.0,2.0,2.0,289.9762609995377,4.0,1.0,part_1,,,,,,,,,,,,,cyan,I
192.0,3.0,3.0,0.0,1.0,1.0,613.4329329997854,4.0,1.0,part_1,,,,,,,,,,,,,magenta,circle
398.0,8.0,4.0,1.0,4.0,4.0,495.3470989985362,4.0,1.0,part_1,,,,,,,,,,,,,gray,triangle
57.0,5.0,1.0,1.0,3.0,3.0,348.473654999907,4.0,1.0,part_1,,,,,,,,,,,,,yellow,diamond
125.0,2.0,2.0,0.0,1.0,1.0,484.2868770010682,4.0,1.0,part_1,,,,,,,,,,,,,orange,square
203.0,3.0,3.0,0.0,1.0,1.0,309.3738229999871,4.0,1.0,part_1,,,,,,,,,,,,,magenta,circle
105.0,6.0,2.0,1.0,2.0,2.0,369.2125329998816,4.0,1.0,part_1,,,,,,,,,,,,,blue,cross
88.0,6.0,2.0,1.0,2.0,2.0,475.0223980008741,4.0,1.0,part_1,,,,,,,,,,,,,blue,cross
201.0,3.0,3.0,0.0,1.0,1.0,311.4147350006533,4.0,1.0,part_1,,,,,,,,,,,,,magenta,circle
32.0,1.0,1.0,0.0,1.0,1.0,376.8855789985537,4.0,1.0,part_1,,,,,,,,,,,,,cyan,I
72.0,1.0,1.0,0.0,1.0,1.0,735.7808599990676,4.0,1.0,part_1,,,,,,,,,,,,,cyan,I
124.0,6.0,2.0,1.0,1.0,1.0,677.0657149991166,4.0,1.0,part_1,,,,,,,,,,,,,blue,cross
46.0,1.0,1.0,0.0,2.0,2.0,394.7951150003064,4.0,1.0,part_1,,,,,,,,,,,,,cyan,I
405.0,8.0,4.0,1.0,3.0,3.0,310.5972880002809,4.0,1.0,part_1,,,,,,,,,,,,,gray,triangle
82.0,2.0,2.0,0.0,3.0,3.0,447.9313279989583,4.0,1.0,part_1,,,,,,,,,,,,,orange,square
64.0,5.0,1.0,1.0,3.0,3.0,311.3798120011779,4.0,2.0,part_1,,,,,,,,,,,,,yellow,diamond
46.0,5.0,1.0,1.0,3.0,3.0,326.8172110001615,4.0,1.0,part_1,,,,,,,,,,,,,yellow,diamond
0.0,6.0,0.0,1.0,2.0,2.0,350.0153909990331,4.0,1.0,part_1,,,,,,,,,,,,,blue,cross
77.0,2.0,2.0,0.0,4.0,4.0,469.8776730001555,4.0,1.0,part_1,,,,,,,,,,,,,orange,square
64.0,1.0,1.0,0.0,3.0,3.0,374.8690290012746,4.0,1.0,part_1,,,,,,,,,,,,,cyan,I
0.0,5.0,0.0,1.0,4.0,4.0,468.0407679989002,4.0,1.0,part_1,,,,,,,,,,,,,yellow,diamond
0.0,8.0,4.0,1.0,6.0,0.0,0.0,1.0,0.0,part_2,stop,250.0,250.0,4.0,,,,,,,,,gray,triangle
0.0,6.0,2.0,1.0,5.0,0.0,0.0,1.0,0.0,part_2,stop,250.0,300.0,4.0,,,,,,,,,blue,cross
0.0,8.0,4.0,1.0,6.0,6.0,538.6244600013015,1.0,0.0,part_2,go,300.0,300.0,1.0,,,,,,,,,gray,triangle
0.0,3.0,3.0,0.0,5.0,5.0,585.735240001668,1.0,0.0,part_2,go,300.0,300.0,1.0,,,,,,,,,magenta,circle
0.0,2.0,2.0,0.0,5.0,5.0,770.7491740002297,1.0,0.0,part_2,go,300.0,300.0,1.0,,,,,,,,,orange,square
0.0,3.0,3.0,0.0,6.0,6.0,586.3400039997941,1.0,0.0,part_2,go,300.0,300.0,1.0,,,,,,,,,magenta,circle
0.0,8.0,4.0,1.0,6.0,6.0,857.6872150006238,1.0,0.0,part_2,go,300.0,300.0,1.0,,,,,,,,,gray,triangle
0.0,5.0,1.0,1.0,6.0,0.0,0.0,1.0,0.0,part_2,stop,300.0,300.0,4.0,,,,,,,,,yellow,diamond
0.0,1.0,1.0,0.0,6.0,6.0,630.7221400020353,1.0,0.0,part_2,go,300.0,350.0,1.0,,,,,,,,,cyan,I
0.0,1.0,1.0,0.0,5.0,5.0,644.0895189989533,1.0,0.0,part_2,go,300.0,350.0,1.0,,,,,,,,,cyan,I
0.0,3.0,3.0,0.0,6.0,6.0,589.2530909986817,1.0,0.0,part_2,go,300.0,350.0,1.0,,,,,,,,,magenta,circle
0.0,7.0,3.0,1.0,6.0,6.0,486.2197700022079,1.0,0.0,part_2,stop,300.0,350.0,3.0,,,,,,,,,green,flipped triangle
0.0,4.0,4.0,0.0,5.0,5.0,663.49699499915,1.0,0.0,part_2,go,300.0,300.0,1.0,,,,,,,,,white,hexagon
0.0,7.0,3.0,1.0,6.0,6.0,618.6571459984407,1.0,0.0,part_2,go,300.0,300.0,1.0,,,,,,,,,green,flipped triangle
0.0,7.0,3.0,1.0,5.0,0.0,0.0,1.0,0.0,part_2,stop,300.0,300.0,4.0,,,,,,,,,green,flipped triangle
0.0,1.0,1.0,0.0,6.0,6.0,615.1820689992746,1.0,0.0,part_2,go,350.0,300.0,1.0,,,,,,,,,cyan,I
0.0,5.0,1.0,1.0,5.0,0.0,0.0,1.0,0.0,part_2,stop,350.0,300.0,4.0,,,,,,,,,yellow,diamond
0.0,1.0,1.0,0.0,5.0,5.0,645.476328998484,1.0,0.0,part_2,go,400.0,300.0,1.0,,,,,,,,,cyan,I
0.0,5.0,1.0,1.0,5.0,0.0,0.0,1.0,0.0,part_2,stop,400.0,300.0,4.0,,,,,,,,,yellow,diamond
0.0,7.0,3.0,1.0,6.0,0.0,0.0,1.0,0.0,part_2,stop,450.0,300.0,4.0,,,,,,,,,green,flipped triangle
0.0,6.0,2.0,1.0,5.0,0.0,0.0,1.0,0.0,part_2,stop,450.0,350.0,4.0,,,,,,,,,blue,cross
0.0,4.0,4.0,0.0,5.0,5.0,830.8111859987548,1.0,0.0,part_2,go,500.0,350.0,1.0,,,,,,,,,white,hexagon
0.0,8.0,4.0,1.0,6.0,0.0,0.0,1.0,0.0,part_2,stop,500.0,350.0,4.0,,,,,,,,,gray,triangle
0.0,6.0,2.0,1.0,6.0,0.0,0.0,1.0,0.0,part_2,stop,500.0,400.0,4.0,,,,,,,,,blue,cross
0.0,3.0,3.0,0.0,6.0,6.0,824.3046329989738,1.0,0.0,part_2,go,500.0,450.0,1.0,,,,,,,,,magenta,circle
0.0,1.0,1.0,0.0,6.0,6.0,1003.5267239982204,1.0,0.0,part_2,go,500.0,450.0,1.0,,,,,,,,,cyan,I
0.0,7.0,3.0,1.0,5.0,5.0,835.1027449971298,1.0,0.0,part_2,go,500.0,450.0,1.0,,,,,,,,,green,flipped triangle
0.0,1.0,1.0,0.0,6.0,6.0,1276.9527009986632,1.0,0.0,part_2,go,500.0,450.0,1.0,,,,,,,,,cyan,I
0.0,2.0,2.0,0.0,6.0,6.0,914.694923998468,1.0,0.0,part_2,go,500.0,450.0,1.0,,,,,,,,,orange,square
0.0,4.0,4.0,0.0,5.0,5.0,844.5494100014912,1.0,0.0,part_2,go,500.0,450.0,1.0,,,,,,,,,white,hexagon
0.0,5.0,1.0,1.0,6.0,0.0,0.0,1.0,0.0,part_2,stop,500.0,450.0,4.0,,,,,,,,,yellow,diamond
0.0,4.0,4.0,0.0,6.0,6.0,898.6548259999836,1.0,0.0,part_2,go,500.0,500.0,1.0,,,,,,,,,white,hexagon
0.0,7.0,3.0,1.0,6.0,6.0,915.2955610006755,1.0,0.0,part_2,go,500.0,500.0,1.0,,,,,,,,,green,flipped triangle
0.0,4.0,4.0,0.0,6.0,6.0,920.5163299993728,1.0,0.0,part_2,go,500.0,500.0,1.0,,,,,,,,,white,hexagon
0.0,5.0,1.0,1.0,6.0,0.0,0.0,1.0,0.0,part_2,stop,500.0,500.0,4.0,,,,,,,,,yellow,diamond
0.0,8.0,4.0,1.0,5.0,5.0,760.090826999658,1.0,0.0,part_2,go,500.0,550.0,1.0,,,,,,,,,gray,triangle
0.0,6.0,2.0,1.0,5.0,0.0,0.0,2.0,0.0,part_2,stop,500.0,550.0,4.0,,,,,,,,,blue,cross
0.0,8.0,4.0,1.0,5.0,5.0,592.2161470007268,2.0,0.0,part_2,stop,550.0,550.0,3.0,,,,,,,,,gray,triangle
0.0,3.0,3.0,0.0,5.0,5.0,644.7090710025805,2.0,0.0,part_2,go,500.0,550.0,1.0,,,,,,,,,magenta,circle
0.0,5.0,1.0,1.0,6.0,6.0,544.9547319985868,2.0,0.0,part_2,stop,500.0,550.0,3.0,,,,,,,,,yellow,diamond
0.0,1.0,1.0,0.0,5.0,5.0,562.9492289990594,2.0,0.0,part_2,go,500.0,500.0,1.0,,,,,,,,,cyan,I
0.0,7.0,3.0,1.0,6.0,6.0,669.9282240006141,2.0,0.0,part_2,stop,500.0,500.0,3.0,,,,,,,,,green,flipped triangle
0.0,2.0,2.0,0.0,6.0,6.0,786.9925320010225,2.0,0.0,part_2,go,500.0,450.0,1.0,,,,,,,,,orange,square
0.0,6.0,2.0,1.0,6.0,6.0,757.8866869989724,2.0,0.0,part_2,go,500.0,450.0,1.0,,,,,,,,,blue,cross
0.0,1.0,1.0,0.0,6.0,6.0,670.9426950001216,2.0,0.0,part_2,go,500.0,450.0,1.0,,,,,,,,,cyan,I
0.0,7.0,3.0,1.0,6.0,0.0,0.0,2.0,0.0,part_2,stop,500.0,450.0,4.0,,,,,,,,,green,flipped triangle
0.0,4.0,4.0,0.0,5.0,5.0,508.7259610008914,2.0,0.0,part_2,go,500.0,500.0,1.0,,,,,,,,,white,hexagon
0.0,5.0,1.0,1.0,6.0,0.0,0.0,2.0,0.0,part_2,stop,500.0,500.0,4.0,,,,,,,,,yellow,diamond
0.0,6.0,2.0,1.0,5.0,5.0,602.2341880016029,2.0,0.0,part_2,stop,500.0,550.0,3.0,,,,,,,,,blue,cross
0.0,4.0,4.0,0.0,6.0,6.0,837.46222499758,2.0,0.0,part_2,go,450.0,550.0,1.0,,,,,,,,,white,hexagon
0.0,8.0,4.0,1.0,5.0,0.0,0.0,2.0,0.0,part_2,stop,450.0,550.0,4.0,,,,,,,,,gray,triangle
0.0,8.0,4.0,1.0,5.0,0.0,0.0,2.0,0.0,part_2,stop,500.0,550.0,4.0,,,,,,,,,gray,triangle
0.0,2.0,2.0,0.0,6.0,6.0,684.7356259968365,2.0,0.0,part_2,go,550.0,550.0,1.0,,,,,,,,,orange,square
0.0,1.0,1.0,0.0,5.0,5.0,755.1530019991333,2.0,0.0,part_2,go,550.0,550.0,1.0,,,,,,,,,cyan,I
0.0,4.0,4.0,0.0,6.0,6.0,753.3953050005948,2.0,0.0,part_2,go,550.0,550.0,1.0,,,,,,,,,white,hexagon
0.0,1.0,1.0,0.0,5.0,5.0,429.4805749996158,2.0,0.0,part_2,go,550.0,550.0,1.0,,,,,,,,,cyan,I
0.0,8.0,4.0,1.0,6.0,6.0,692.0984069984115,2.0,0.0,part_2,go,550.0,550.0,1.0,,,,,,,,,gray,triangle
0.0,5.0,1.0,1.0,5.0,0.0,0.0,2.0,0.0,part_2,stop,550.0,550.0,4.0,,,,,,,,,yellow,diamond
0.0,5.0,1.0,1.0,5.0,0.0,0.0,2.0,0.0,part_2,stop,600.0,550.0,4.0,,,,,,,,,yellow,diamond
0.0,8.0,4.0,1.0,6.0,6.0,632.1704430010868,2.0,0.0,part_2,stop,650.0,550.0,3.0,,,,,,,,,gray,triangle
0.0,1.0,1.0,0.0,6.0,6.0,972.0854030019837,2.0,0.0,part_2,go,650.0,500.0,1.0,,,,,,,,,cyan,I
0.0,3.0,3.0,0.0,6.0,6.0,965.9900380029284,2.0,0.0,part_2,go,650.0,500.0,1.0,,,,,,,,,magenta,circle
0.0,4.0,4.0,0.0,6.0,6.0,918.3305840015236,2.0,0.0,part_2,go,650.0,500.0,1.0,,,,,,,,,white,hexagon
0.0,6.0,2.0,1.0,6.0,0.0,0.0,2.0,0.0,part_2,stop,650.0,500.0,4.0,,,,,,,,,blue,cross
0.0,3.0,3.0,0.0,5.0,5.0,688.8365769991651,2.0,0.0,part_2,go,650.0,550.0,1.0,,,,,,,,,magenta,circle
0.0,8.0,4.0,1.0,6.0,0.0,0.0,2.0,0.0,part_2,stop,650.0,550.0,4.0,,,,,,,,,gray,triangle
0.0,6.0,2.0,1.0,5.0,5.0,764.9700570000277,2.0,0.0,part_2,stop,650.0,600.0,3.0,,,,,,,,,blue,cross
0.0,4.0,4.0,0.0,5.0,5.0,1132.8408869994746,2.0,0.0,part_2,go,600.0,600.0,1.0,,,,,,,,,white,hexagon
0.0,8.0,4.0,1.0,5.0,0.0,0.0,2.0,0.0,part_2,stop,600.0,600.0,4.0,,,,,,,,,gray,triangle
0.0,1.0,1.0,0.0,6.0,6.0,860.6339459984156,2.0,0.0,part_2,go,650.0,600.0,1.0,,,,,,,,,cyan,I
0.0,7.0,3.0,1.0,5.0,5.0,744.7016650003206,2.0,0.0,part_2,go,650.0,600.0,1.0,,,,,,,,,green,flipped triangle
0.0,2.0,2.0,0.0,5.0,5.0,758.4844739976688,2.0,0.0,part_2,go,650.0,600.0,1.0,,,,,,,,,orange,square
0.0,2.0,2.0,0.0,6.0,6.0,398.7761899988982,3.0,0.0,part_2,go,650.0,600.0,1.0,,,,,,,,,orange,square
0.0,5.0,1.0,1.0,5.0,5.0,428.5816170013277,3.0,0.0,part_2,go,650.0,600.0,1.0,,,,,,,,,yellow,diamond
0.0,2.0,2.0,0.0,6.0,6.0,492.9873740002222,3.0,0.0,part_2,go,650.0,600.0,1.0,,,,,,,,,orange,square
0.0,6.0,2.0,1.0,6.0,6.0,632.6989750014036,3.0,0.0,part_2,stop,650.0,600.0,3.0,,,,,,,,,blue,cross
0.0,1.0,1.0,0.0,5.0,5.0,670.1076659992395,3.0,0.0,part_2,go,650.0,550.0,1.0,,,,,,,,,cyan,I
0.0,3.0,3.0,0.0,5.0,5.0,508.2122120002168,3.0,0.0,part_2,go,650.0,550.0,1.0,,,,,,,,,magenta,circle
0.0,2.0,2.0,0.0,6.0,6.0,647.652740997728,3.0,0.0,part_2,go,650.0,550.0,1.0,,,,,,,,,orange,square
0.0,6.0,2.0,1.0,6.0,6.0,417.1665060021041,3.0,0.0,part_2,stop,650.0,550.0,3.0,,,,,,,,,blue,cross
0.0,7.0,3.0,1.0,5.0,5.0,271.9244959989737,3.0,0.0,part_2,stop,650.0,500.0,3.0,,,,,,,,,green,flipped triangle
0.0,8.0,4.0,1.0,6.0,6.0,476.196316001733,3.0,0.0,part_2,go,600.0,500.0,1.0,,,,,,,,,gray,triangle
0.0,4.0,4.0,0.0,5.0,5.0,509.9872319988208,3.0,0.0,part_2,go,600.0,500.0,1.0,,,,,,,,,white,hexagon
0.0,1.0,1.0,0.0,6.0,6.0,647.2643170018273,3.0,0.0,part_2,go,600.0,500.0,1.0,,,,,,,,,cyan,I
0.0,2.0,2.0,0.0,5.0,5.0,521.0108119972574,3.0,0.0,part_2,go,600.0,500.0,1.0,,,,,,,,,orange,square
0.0,8.0,4.0,1.0,5.0,5.0,357.0947410007647,3.0,0.0,part_2,stop,600.0,500.0,3.0,,,,,,,,,gray,triangle
0.0,4.0,4.0,0.0,5.0,5.0,636.372761997336,3.0,0.0,part_2,go,550.0,500.0,1.0,,,,,,,,,white,hexagon
0.0,3.0,3.0,0.0,6.0,6.0,380.6019630028459,3.0,0.0,part_2,go,550.0,500.0,1.0,,,,,,,,,magenta,circle
0.0,6.0,2.0,1.0,6.0,0.0,0.0,3.0,0.0,part_2,stop,550.0,500.0,4.0,,,,,,,,,blue,cross
0.0,1.0,1.0,0.0,5.0,5.0,386.3946849996864,3.0,0.0,part_2,go,550.0,550.0,1.0,,,,,,,,,cyan,I
0.0,1.0,1.0,0.0,6.0,6.0,631.2907169995015,3.0,0.0,part_2,go,550.0,550.0,1.0,,,,,,,,,cyan,I
0.0,3.0,3.0,0.0,5.0,5.0,565.6825829973968,3.0,0.0,part_2,go,550.0,550.0,1.0,,,,,,,,,magenta,circle
0.0,3.0,3.0,0.0,6.0,6.0,506.8643800004793,3.0,0.0,part_2,go,550.0,550.0,1.0,,,,,,,,,magenta,circle
0.0,4.0,4.0,0.0,5.0,5.0,534.4229849979456,3.0,0.0,part_2,go,550.0,550.0,1.0,,,,,,,,,white,hexagon
0.0,8.0,4.0,1.0,6.0,6.0,538.8165260010283,3.0,0.0,part_2,stop,550.0,550.0,3.0,,,,,,,,,gray,triangle
0.0,1.0,1.0,0.0,5.0,5.0,553.2029969981522,3.0,0.0,part_2,go,550.0,500.0,1.0,,,,,,,,,cyan,I
0.0,8.0,4.0,1.0,6.0,6.0,564.006716998847,3.0,0.0,part_2,stop,550.0,500.0,3.0,,,,,,,,,gray,triangle
0.0,2.0,2.0,0.0,5.0,5.0,601.4293679982075,3.0,0.0,part_2,go,550.0,450.0,1.0,,,,,,,,,orange,square
0.0,2.0,2.0,0.0,5.0,5.0,685.0129149970599,3.0,0.0,part_2,go,550.0,450.0,1.0,,,,,,,,,orange,square
0.0,3.0,3.0,0.0,6.0,6.0,603.3881300027133,3.0,0.0,part_2,go,550.0,450.0,1.0,,,,,,,,,magenta,circle
0.0,3.0,3.0,0.0,5.0,5.0,622.7658090028854,3.0,0.0,part_2,go,550.0,450.0,1.0,,,,,,,,,magenta,circle
0.0,2.0,2.0,0.0,5.0,5.0,403.933268997207,3.0,0.0,part_2,go,550.0,450.0,1.0,,,,,,,,,orange,square
0.0,8.0,4.0,1.0,6.0,6.0,482.1192630006408,3.0,0.0,part_2,stop,550.0,450.0,3.0,,,,,,,,,gray,triangle
0.0,2.0,2.0,0.0,5.0,5.0,623.6542259975977,3.0,0.0,part_2,go,550.0,400.0,1.0,,,,,,,,,orange,square
0.0,4.0,4.0,0.0,6.0,6.0,586.3002359983511,3.0,0.0,part_2,go,550.0,400.0,1.0,,,,,,,,,white,hexagon
0.0,8.0,4.0,1.0,5.0,5.0,593.0927180015715,3.0,0.0,part_2,stop,550.0,400.0,3.0,,,,,,,,,gray,triangle
0.0,2.0,2.0,0.0,6.0,6.0,293.835176002176,3.0,0.0,part_2,go,500.0,400.0,1.0,,,,,,,,,orange,square
0.0,4.0,4.0,0.0,6.0,6.0,710.4044990010152,3.0,0.0,part_2,go,500.0,400.0,1.0,,,,,,,,,white,hexagon
0.0,1.0,1.0,0.0,6.0,6.0,415.5264520013588,4.0,0.0,part_2,go,500.0,400.0,1.0,,,,,,,,,cyan,I
0.0,6.0,2.0,1.0,5.0,5.0,636.6152390000934,4.0,0.0,part_2,stop,500.0,400.0,3.0,,,,,,,,,blue,cross
0.0,4.0,4.0,0.0,6.0,6.0,591.7773760011187,4.0,0.0,part_2,go,450.0,400.0,1.0,,,,,,,,,white,hexagon
0.0,7.0,3.0,1.0,5.0,5.0,580.0283829994441,4.0,0.0,part_2,stop,450.0,400.0,3.0,,,,,,,,,green,flipped triangle
0.0,5.0,1.0,1.0,5.0,0.0,0.0,4.0,0.0,part_2,stop,400.0,400.0,4.0,,,,,,,,,yellow,diamond
0.0,8.0,4.0,1.0,5.0,0.0,0.0,4.0,0.0,part_2,stop,450.0,400.0,4.0,,,,,,,,,gray,triangle
0.0,8.0,4.0,1.0,6.0,6.0,699.8878449994663,4.0,0.0,part_2,go,500.0,400.0,1.0,,,,,,,,,gray,triangle
0.0,6.0,2.0,1.0,6.0,0.0,0.0,4.0,0.0,part_2,stop,500.0,400.0,4.0,,,,,,,,,blue,cross
0.0,1.0,1.0,0.0,5.0,5.0,643.9197990002867,4.0,0.0,part_2,go,500.0,450.0,1.0,,,,,,,,,cyan,I
0.0,5.0,1.0,1.0,5.0,0.0,0.0,4.0,0.0,part_2,stop,500.0,450.0,4.0,,,,,,,,,yellow,diamond
0.0,5.0,1.0,1.0,6.0,0.0,0.0,4.0,0.0,part_2,stop,550.0,450.0,4.0,,,,,,,,,yellow,diamond
0.0,5.0,1.0,1.0,5.0,5.0,642.8262610024831,4.0,0.0,part_2,go,550.0,500.0,1.0,,,,,,,,,yellow,diamond
0.0,4.0,4.0,0.0,6.0,6.0,580.5118150019553,4.0,0.0,part_2,go,550.0,500.0,1.0,,,,,,,,,white,hexagon
0.0,3.0,3.0,0.0,6.0,6.0,863.945015000354,4.0,0.0,part_2,go,550.0,500.0,1.0,,,,,,,,,magenta,circle
0.0,2.0,2.0,0.0,5.0,5.0,329.3990490019496,4.0,0.0,part_2,go,550.0,500.0,1.0,,,,,,,,,orange,square
0.0,2.0,2.0,0.0,5.0,5.0,581.6619040015212,4.0,0.0,part_2,go,550.0,500.0,1.0,,,,,,,,,orange,square
0.0,6.0,2.0,1.0,5.0,5.0,1006.952617000934,4.0,0.0,part_2,go,550.0,500.0,1.0,,,,,,,,,blue,cross
0.0,1.0,1.0,0.0,6.0,6.0,883.4474680006679,4.0,0.0,part_2,go,550.0,500.0,1.0,,,,,,,,,cyan,I
0.0,1.0,1.0,0.0,6.0,6.0,525.2084359999571,4.0,0.0,part_2,go,550.0,500.0,1.0,,,,,,,,,cyan,I
0.0,6.0,2.0,1.0,5.0,5.0,729.953251000552,4.0,0.0,part_2,stop,550.0,500.0,3.0,,,,,,,,,blue,cross
0.0,3.0,3.0,0.0,6.0,6.0,528.7714160003816,4.0,0.0,part_2,go,500.0,500.0,1.0,,,,,,,,,magenta,circle
0.0,7.0,3.0,1.0,6.0,0.0,0.0,4.0,0.0,part_2,stop,500.0,500.0,4.0,,,,,,,,,green,flipped triangle
0.0,6.0,2.0,1.0,6.0,0.0,0.0,4.0,0.0,part_2,stop,500.0,550.0,4.0,,,,,,,,,blue,cross
0.0,5.0,1.0,1.0,5.0,5.0,621.2542919965927,4.0,0.0,part_2,go,500.0,600.0,1.0,,,,,,,,,yellow,diamond
0.0,6.0,2.0,1.0,6.0,6.0,875.4029250012536,4.0,0.0,part_2,go,500.0,600.0,1.0,,,,,,,,,blue,cross
0.0,1.0,1.0,0.0,6.0,6.0,788.132637997478,4.0,0.0,part_2,go,500.0,600.0,1.0,,,,,,,,,cyan,I
0.0,2.0,2.0,0.0,5.0,5.0,708.5866139968857,4.0,0.0,part_2,go,500.0,600.0,1.0,,,,,,,,,orange,square
0.0,2.0,2.0,0.0,6.0,6.0,543.8578729990695,4.0,0.0,part_2,go,500.0,600.0,1.0,,,,,,,,,orange,square
0.0,5.0,1.0,1.0,5.0,5.0,296.2341569982527,4.0,0.0,part_2,stop,500.0,600.0,3.0,,,,,,,,,yellow,diamond
0.0,2.0,2.0,0.0,5.0,5.0,763.0880810029339,4.0,0.0,part_2,go,450.0,600.0,1.0,,,,,,,,,orange,square
0.0,2.0,2.0,0.0,6.0,6.0,357.3919080008636,4.0,0.0,part_2,go,450.0,600.0,1.0,,,,,,,,,orange,square
0.0,4.0,4.0,0.0,5.0,5.0,779.7316229989519,4.0,0.0,part_2,go,450.0,600.0,1.0,,,,,,,,,white,hexagon
0.0,4.0,4.0,0.0,5.0,5.0,624.1898669977672,4.0,0.0,part_2,go,450.0,600.0,1.0,,,,,,,,,white,hexagon
0.0,2.0,2.0,0.0,5.0,5.0,644.1037189979397,4.0,0.0,part_2,go,450.0,600.0,1.0,,,,,,,,,orange,square
0.0,1.0,1.0,0.0,5.0,5.0,684.326771999622,4.0,0.0,part_2,go,450.0,600.0,1.0,,,,,,,,,cyan,I
0.0,7.0,3.0,1.0,5.0,5.0,488.2426670010318,4.0,0.0,part_2,stop,450.0,600.0,3.0,,,,,,,,,green,flipped triangle
0.0,2.0,2.0,0.0,6.0,6.0,736.7319510012749,5.0,0.0,part_2,go,400.0,600.0,1.0,,,,,,,,,orange,square
0.0,1.0,1.0,0.0,5.0,5.0,354.3880539982638,5.0,0.0,part_2,go,400.0,600.0,1.0,,,,,,,,,cyan,I
0.0,5.0,1.0,1.0,6.0,6.0,283.0079560008016,5.0,0.0,part_2,go,400.0,600.0,1.0,,,,,,,,,yellow,diamond
0.0,1.0,1.0,0.0,5.0,5.0,426.2905059986224,5.0,0.0,part_2,go,400.0,600.0,1.0,,,,,,,,,cyan,I
0.0,8.0,4.0,1.0,5.0,5.0,571.0493369988399,5.0,0.0,part_2,stop,400.0,600.0,3.0,,,,,,,,,gray,triangle
0.0,1.0,1.0,0.0,6.0,6.0,619.5908150002651,5.0,0.0,part_2,go,350.0,600.0,1.0,,,,,,,,,cyan,I
0.0,4.0,4.0,0.0,6.0,6.0,419.8488579968398,5.0,0.0,part_2,go,350.0,600.0,1.0,,,,,,,,,white,hexagon
0.0,1.0,1.0,0.0,6.0,6.0,550.4264629998943,5.0,0.0,part_2,go,350.0,600.0,1.0,,,,,,,,,cyan,I
0.0,8.0,4.0,1.0,5.0,5.0,607.7857029995357,5.0,0.0,part_2,go,350.0,600.0,1.0,,,,,,,,,gray,triangle
0.0,4.0,4.0,0.0,6.0,6.0,476.4961319997383,5.0,0.0,part_2,go,350.0,600.0,1.0,,,,,,,,,white,hexagon
0.0,3.0,3.0,0.0,6.0,6.0,624.3095890022232,5.0,0.0,part_2,go,350.0,600.0,1.0,,,,,,,,,magenta,circle
0.0,3.0,3.0,0.0,5.0,5.0,538.8172070015571,5.0,0.0,part_2,go,350.0,600.0,1.0,,,,,,,,,magenta,circle
0.0,2.0,2.0,0.0,6.0,6.0,488.9916419997462,5.0,0.0,part_2,go,350.0,600.0,1.0,,,,,,,,,orange,square
0.0,4.0,4.0,0.0,5.0,5.0,513.2628720020875,5.0,0.0,part_2,go,350.0,600.0,1.0,,,,,,,,,white,hexagon
0.0,7.0,3.0,1.0,5.0,5.0,444.3924760016671,5.0,0.0,part_2,stop,350.0,600.0,3.0,,,,,,,,,green,flipped triangle
0.0,4.0,4.0,0.0,6.0,6.0,453.6776759996428,5.0,0.0,part_2,go,300.0,600.0,1.0,,,,,,,,,white,hexagon
0.0,8.0,4.0,1.0,5.0,0.0,0.0,5.0,0.0,part_2,stop,300.0,600.0,4.0,,,,,,,,,gray,triangle
0.0,6.0,2.0,1.0,5.0,5.0,633.5883850006212,5.0,0.0,part_2,go,350.0,600.0,1.0,,,,,,,,,blue,cross
0.0,7.0,3.0,1.0,6.0,6.0,293.2493840016832,5.0,0.0,part_2,go,350.0,600.0,1.0,,,,,,,,,green,flipped triangle
0.0,7.0,3.0,1.0,5.0,5.0,643.7313819988049,5.0,0.0,part_2,go,350.0,600.0,1.0,,,,,,,,,green,flipped triangle
0.0,4.0,4.0,0.0,5.0,5.0,584.3561439978657,5.0,0.0,part_2,go,350.0,600.0,1.0,,,,,,,,,white,hexagon
0.0,3.0,3.0,0.0,5.0,5.0,565.6345610004792,5.0,0.0,part_2,go,350.0,600.0,1.0,,,,,,,,,magenta,circle
0.0,6.0,2.0,1.0,6.0,6.0,398.2152919998043,5.0,0.0,part_2,stop,350.0,600.0,3.0,,,,,,,,,blue,cross
0.0,4.0,4.0,0.0,5.0,5.0,412.48941899903,5.0,0.0,part_2,go,350.0,550.0,1.0,,,,,,,,,white,hexagon
0.0,7.0,3.0,1.0,5.0,0.0,0.0,5.0,0.0,part_2,stop,350.0,550.0,4.0,,,,,,,,,green,flipped triangle
0.0,2.0,2.0,0.0,5.0,5.0,703.8385759988159,5.0,0.0,part_2,go,400.0,550.0,1.0,,,,,,,,,orange,square
0.0,8.0,4.0,1.0,6.0,6.0,304.832735000673,5.0,0.0,part_2,stop,400.0,550.0,3.0,,,,,,,,,gray,triangle
0.0,8.0,4.0,1.0,5.0,5.0,522.0537230015907,5.0,0.0,part_2,stop,400.0,500.0,3.0,,,,,,,,,gray,triangle
0.0,3.0,3.0,0.0,6.0,6.0,553.4075450013916,5.0,0.0,part_2,go,350.0,500.0,1.0,,,,,,,,,magenta,circle
0.0,3.0,3.0,0.0,5.0,5.0,709.8350560008839,5.0,0.0,part_2,go,350.0,500.0,1.0,,,,,,,,,magenta,circle
0.0,7.0,3.0,1.0,5.0,0.0,0.0,5.0,0.0,part_2,stop,350.0,500.0,4.0,,,,,,,,,green,flipped triangle
0.0,3.0,3.0,0.0,6.0,6.0,619.3763909977861,5.0,0.0,part_2,go,400.0,500.0,1.0,,,,,,,,,magenta,circle
0.0,3.0,3.0,0.0,5.0,5.0,634.9721369988401,5.0,0.0,part_2,go,400.0,500.0,1.0,,,,,,,,,magenta,circle
0.0,2.0,2.0,0.0,5.0,5.0,634.2979050023132,5.0,0.0,part_2,go,400.0,500.0,1.0,,,,,,,,,orange,square
0.0,5.0,1.0,1.0,6.0,6.0,280.0874700005806,5.0,0.0,part_2,stop,400.0,500.0,3.0,,,,,,,,,yellow,diamond
0.0,4.0,4.0,0.0,5.0,5.0,572.6596940003219,5.0,0.0,part_2,go,400.0,450.0,1.0,,,,,,,,,white,hexagon
0.0,5.0,1.0,1.0,6.0,6.0,494.0414119992056,6.0,0.0,part_2,stop,400.0,450.0,3.0,,,,,,,,,yellow,diamond
0.0,6.0,2.0,1.0,6.0,6.0,668.072858999949,6.0,0.0,part_2,go,400.0,400.0,1.0,,,,,,,,,blue,cross
0.0,8.0,4.0,1.0,6.0,6.0,489.8082159998012,6.0,0.0,part_2,stop,400.0,400.0,3.0,,,,,,,,,gray,triangle
0.0,8.0,4.0,1.0,5.0,0.0,0.0,6.0,0.0,part_2,stop,400.0,350.0,4.0,,,,,,,,,gray,triangle
0.0,3.0,3.0,0.0,5.0,5.0,658.5631339985412,6.0,0.0,part_2,go,450.0,350.0,1.0,,,,,,,,,magenta,circle
0.0,6.0,2.0,1.0,5.0,0.0,0.0,6.0,0.0,part_2,stop,450.0,350.0,4.0,,,,,,,,,blue,cross
0.0,5.0,1.0,1.0,5.0,5.0,789.0455029992154,6.0,0.0,part_2,go,500.0,350.0,1.0,,,,,,,,,yellow,diamond
0.0,6.0,2.0,1.0,5.0,0.0,0.0,6.0,0.0,part_2,stop,500.0,350.0,4.0,,,,,,,,,blue,cross
0.0,7.0,3.0,1.0,6.0,0.0,0.0,6.0,0.0,part_2,stop,550.0,350.0,4.0,,,,,,,,,green,flipped triangle
0.0,6.0,2.0,1.0,6.0,0.0,0.0,6.0,0.0,part_2,stop,550.0,400.0,4.0,,,,,,,,,blue,cross
0.0,7.0,3.0,1.0,5.0,5.0,670.7907960008015,6.0,0.0,part_2,go,550.0,450.0,1.0,,,,,,,,,green,flipped triangle
0.0,6.0,2.0,1.0,5.0,5.0,751.4258629998949,6.0,0.0,part_2,go,550.0,450.0,1.0,,,,,,,,,blue,cross
0.0,3.0,3.0,0.0,5.0,5.0,658.294348999334,6.0,0.0,part_2,go,550.0,450.0,1.0,,,,,,,,,magenta,circle
0.0,5.0,1.0,1.0,5.0,5.0,582.398190999811,6.0,0.0,part_2,go,550.0,450.0,1.0,,,,,,,,,yellow,diamond
0.0,6.0,2.0,1.0,6.0,6.0,686.9616399999359,6.0,0.0,part_2,go,550.0,450.0,1.0,,,,,,,,,blue,cross
0.0,8.0,4.0,1.0,5.0,5.0,682.8167450003093,6.0,0.0,part_2,stop,550.0,450.0,3.0,,,,,,,,,gray,triangle
0.0,7.0,3.0,1.0,5.0,0.0,0.0,6.0,0.0,part_2,stop,500.0,450.0,4.0,,,,,,,,,green,flipped triangle
0.0,6.0,2.0,1.0,5.0,0.0,0.0,6.0,0.0,part_2,stop,550.0,450.0,4.0,,,,,,,,,blue,cross
0.0,3.0,3.0,0.0,5.0,5.0,798.4784360014601,6.0,0.0,part_2,go,600.0,450.0,1.0,,,,,,,,,magenta,circle
0.0,5.0,1.0,1.0,6.0,0.0,0.0,6.0,0.0,part_2,stop,600.0,450.0,4.0,,,,,,,,,yellow,diamond
0.0,2.0,2.0,0.0,5.0,6.0,750.5938760004938,6.0,0.0,part_2,go,600.0,500.0,2.0,,,,,,,,,orange,square
0.0,6.0,2.0,1.0,5.0,5.0,489.115591000882,6.0,0.0,part_2,stop,600.0,500.0,3.0,,,,,,,,,blue,cross
0.0,3.0,3.0,0.0,5.0,5.0,864.7493889984617,6.0,0.0,part_2,go,550.0,500.0,1.0,,,,,,,,,magenta,circle
0.0,7.0,3.0,1.0,5.0,0.0,0.0,6.0,0.0,part_2,stop,550.0,500.0,4.0,,,,,,,,,green,flipped triangle
0.0,5.0,1.0,1.0,5.0,5.0,673.6983959999634,6.0,0.0,part_2,go,600.0,500.0,1.0,,,,,,,,,yellow,diamond
0.0,4.0,4.0,0.0,5.0,5.0,758.99033099995,6.0,0.0,part_2,go,600.0,500.0,1.0,,,,,,,,,white,hexagon
0.0,7.0,3.0,1.0,5.0,0.0,0.0,6.0,0.0,part_2,stop,600.0,500.0,4.0,,,,,,,,,green,flipped triangle
0.0,4.0,4.0,0.0,5.0,5.0,693.265400997916,6.0,0.0,part_2,go,650.0,500.0,1.0,,,,,,,,,white,hexagon
0.0,3.0,3.0,0.0,5.0,5.0,773.3082380000269,6.0,0.0,part_2,go,650.0,500.0,1.0,,,,,,,,,magenta,circle
0.0,8.0,4.0,1.0,5.0,6.0,660.6482389979647,6.0,0.0,part_2,go,650.0,500.0,2.0,,,,,,,,,gray,triangle
0.0,8.0,4.0,1.0,5.0,5.0,745.4543159983587,6.0,0.0,part_2,stop,650.0,500.0,3.0,,,,,,,,,gray,triangle
0.0,7.0,3.0,1.0,5.0,0.0,0.0,6.0,0.0,part_2,stop,600.0,500.0,4.0,,,,,,,,,green,flipped triangle
0.0,1.0,1.0,0.0,5.0,5.0,518.4404339997855,6.0,0.0,part_2,go,650.0,500.0,1.0,,,,,,,,,cyan,I
0.0,7.0,3.0,1.0,5.0,5.0,755.2078859989706,6.0,0.0,part_2,stop,650.0,500.0,3.0,,,,,,,,,green,flipped triangle
0.0,6.0,2.0,1.0,6.0,0.0,0.0,6.0,0.0,part_2,stop,600.0,500.0,4.0,,,,,,,,,blue,cross
0.0,5.0,1.0,1.0,5.0,0.0,0.0,6.0,0.0,part_2,stop,600.0,550.0,4.0,,,,,,,,,yellow,diamond
0.0,1.0,1.0,0.0,6.0,6.0,395.3507890000765,7.0,0.0,part_2,go,650.0,550.0,1.0,,,,,,,,,cyan,I
0.0,1.0,1.0,0.0,5.0,5.0,641.8678709997039,7.0,0.0,part_2,go,650.0,550.0,1.0,,,,,,,,,cyan,I
0.0,1.0,1.0,0.0,6.0,6.0,383.6740059996373,7.0,0.0,part_2,go,650.0,550.0,1.0,,,,,,,,,cyan,I
0.0,3.0,3.0,0.0,6.0,6.0,351.625872997829,7.0,0.0,part_2,go,650.0,550.0,1.0,,,,,,,,,magenta,circle
0.0,5.0,1.0,1.0,6.0,6.0,391.1478890004218,7.0,0.0,part_2,stop,650.0,550.0,3.0,,,,,,,,,yellow,diamond
0.0,4.0,4.0,0.0,6.0,6.0,507.22907499948633,7.0,0.0,part_2,go,650.0,500.0,1.0,,,,,,,,,white,hexagon
0.0,6.0,2.0,1.0,5.0,5.0,507.56318000276224,7.0,0.0,part_2,go,650.0,500.0,1.0,,,,,,,,,blue,cross
0.0,3.0,3.0,0.0,6.0,6.0,337.4064960007672,7.0,0.0,part_2,go,650.0,500.0,1.0,,,,,,,,,magenta,circle
0.0,5.0,1.0,1.0,6.0,6.0,479.4952809970709,7.0,0.0,part_2,stop,650.0,500.0,3.0,,,,,,,,,yellow,diamond
0.0,3.0,3.0,0.0,5.0,5.0,431.2771059994702,7.0,0.0,part_2,go,650.0,450.0,1.0,,,,,,,,,magenta,circle
0.0,5.0,1.0,1.0,5.0,5.0,683.5783870010346,7.0,0.0,part_2,stop,650.0,450.0,3.0,,,,,,,,,yellow,diamond
0.0,8.0,4.0,1.0,5.0,5.0,634.5948160014814,7.0,0.0,part_2,stop,600.0,450.0,3.0,,,,,,,,,gray,triangle
0.0,3.0,3.0,0.0,6.0,6.0,821.8400999976438,7.0,0.0,part_2,go,550.0,450.0,1.0,,,,,,,,,magenta,circle
0.0,6.0,2.0,1.0,6.0,0.0,0.0,7.0,0.0,part_2,stop,550.0,450.0,4.0,,,,,,,,,blue,cross
0.0,3.0,3.0,0.0,6.0,6.0,788.4159860004729,7.0,0.0,part_2,go,550.0,500.0,1.0,,,,,,,,,magenta,circle
0.0,6.0,2.0,1.0,5.0,0.0,0.0,7.0,0.0,part_2,stop,550.0,500.0,4.0,,,,,,,,,blue,cross
0.0,7.0,3.0,1.0,6.0,0.0,0.0,7.0,0.0,part_2,stop,600.0,500.0,4.0,,,,,,,,,green,flipped triangle
0.0,5.0,1.0,1.0,5.0,0.0,0.0,7.0,0.0,part_2,stop,600.0,550.0,4.0,,,,,,,,,yellow,diamond
0.0,2.0,2.0,0.0,6.0,6.0,869.6297010028502,7.0,0.0,part_2,go,650.0,550.0,1.0,,,,,,,,,orange,square
0.0,7.0,3.0,1.0,5.0,5.0,782.1169140006532,7.0,0.0,part_2,go,650.0,550.0,1.0,,,,,,,,,green,flipped triangle
0.0,8.0,4.0,1.0,6.0,6.0,670.2925320023496,7.0,0.0,part_2,stop,650.0,550.0,3.0,,,,,,,,,gray,triangle
0.0,4.0,4.0,0.0,6.0,6.0,941.958646002604,7.0,0.0,part_2,go,650.0,500.0,1.0,,,,,,,,,white,hexagon
0.0,4.0,4.0,0.0,6.0,6.0,817.6640860001498,7.0,0.0,part_2,go,650.0,500.0,1.0,,,,,,,,,white,hexagon
0.0,5.0,1.0,1.0,6.0,0.0,0.0,7.0,0.0,part_2,stop,650.0,500.0,4.0,,,,,,,,,yellow,diamond
0.0,1.0,1.0,0.0,5.0,5.0,592.1275990003778,7.0,0.0,part_2,go,650.0,550.0,1.0,,,,,,,,,cyan,I
0.0,4.0,4.0,0.0,5.0,5.0,788.7354240010609,7.0,0.0,part_2,go,650.0,550.0,1.0,,,,,,,,,white,hexagon
0.0,8.0,4.0,1.0,5.0,5.0,855.9016119979788,7.0,0.0,part_2,stop,650.0,550.0,3.0,,,,,,,,,gray,triangle
0.0,4.0,4.0,0.0,6.0,6.0,831.9522689998848,7.0,0.0,part_2,go,600.0,550.0,1.0,,,,,,,,,white,hexagon
0.0,7.0,3.0,1.0,6.0,0.0,0.0,7.0,0.0,part_2,stop,600.0,550.0,4.0,,,,,,,,,green,flipped triangle
0.0,2.0,2.0,0.0,5.0,5.0,653.3828579995316,7.0,0.0,part_2,go,600.0,600.0,1.0,,,,,,,,,orange,square
0.0,5.0,1.0,1.0,5.0,5.0,864.3891329993494,7.0,0.0,part_2,go,600.0,600.0,1.0,,,,,,,,,yellow,diamond
0.0,3.0,3.0,0.0,6.0,6.0,701.2415419994795,7.0,0.0,part_2,go,600.0,600.0,1.0,,,,,,,,,magenta,circle
0.0,7.0,3.0,1.0,6.0,6.0,331.349002000934,7.0,0.0,part_2,go,600.0,600.0,1.0,,,,,,,,,green,flipped triangle
0.0,1.0,1.0,0.0,5.0,5.0,797.6188530010404,7.0,0.0,part_2,go,600.0,600.0,1.0,,,,,,,,,cyan,I
0.0,8.0,4.0,1.0,6.0,6.0,524.5241560005525,7.0,0.0,part_2,stop,600.0,600.0,3.0,,,,,,,,,gray,triangle
0.0,2.0,2.0,0.0,6.0,6.0,802.560492997145,7.0,0.0,part_2,go,600.0,550.0,1.0,,,,,,,,,orange,square
0.0,1.0,1.0,0.0,5.0,5.0,395.1363829983165,8.0,0.0,part_2,go,600.0,550.0,1.0,,,,,,,,,cyan,I
0.0,2.0,2.0,0.0,5.0,5.0,305.8121900030528,8.0,0.0,part_2,go,600.0,550.0,1.0,,,,,,,,,orange,square
0.0,5.0,1.0,1.0,6.0,6.0,349.2887130014424,8.0,0.0,part_2,stop,600.0,550.0,3.0,,,,,,,,,yellow,diamond
0.0,7.0,3.0,1.0,5.0,5.0,668.7281049999001,8.0,0.0,part_2,stop,600.0,500.0,3.0,,,,,,,,,green,flipped triangle
0.0,2.0,2.0,0.0,6.0,6.0,788.5935529993731,8.0,0.0,part_2,go,550.0,500.0,1.0,,,,,,,,,orange,square
0.0,5.0,1.0,1.0,6.0,0.0,0.0,8.0,0.0,part_2,stop,550.0,500.0,4.0,,,,,,,,,yellow,diamond
0.0,1.0,1.0,0.0,5.0,5.0,682.3824489983963,8.0,0.0,part_2,go,550.0,550.0,1.0,,,,,,,,,cyan,I
0.0,6.0,2.0,1.0,5.0,5.0,778.0661819997476,8.0,0.0,part_2,go,550.0,550.0,1.0,,,,,,,,,blue,cross
0.0,2.0,2.0,0.0,6.0,6.0,762.2691940014192,8.0,0.0,part_2,go,550.0,550.0,1.0,,,,,,,,,orange,square
0.0,5.0,1.0,1.0,5.0,0.0,0.0,8.0,0.0,part_2,stop,550.0,550.0,4.0,,,,,,,,,yellow,diamond
0.0,3.0,3.0,0.0,6.0,6.0,670.1220450013352,8.0,0.0,part_2,go,600.0,550.0,1.0,,,,,,,,,magenta,circle
0.0,2.0,2.0,0.0,6.0,6.0,905.1824390007824,8.0,0.0,part_2,go,600.0,550.0,1.0,,,,,,,,,orange,square
0.0,7.0,3.0,1.0,6.0,0.0,0.0,8.0,0.0,part_2,stop,600.0,550.0,4.0,,,,,,,,,green,flipped triangle
0.0,2.0,2.0,0.0,5.0,5.0,607.9934570007026,8.0,0.0,part_2,go,600.0,600.0,1.0,,,,,,,,,orange,square
0.0,5.0,1.0,1.0,6.0,6.0,890.3669600003923,8.0,0.0,part_2,go,600.0,600.0,1.0,,,,,,,,,yellow,diamond
0.0,6.0,2.0,1.0,5.0,5.0,769.4153330012341,8.0,0.0,part_2,stop,600.0,600.0,3.0,,,,,,,,,blue,cross
0.0,5.0,1.0,1.0,6.0,6.0,678.1473970004299,8.0,0.0,part_2,stop,550.0,600.0,3.0,,,,,,,,,yellow,diamond
0.0,7.0,3.0,1.0,6.0,0.0,0.0,8.0,0.0,part_2,stop,550.0,550.0,4.0,,,,,,,,,green,flipped triangle
0.0,1.0,1.0,0.0,6.0,6.0,736.5176390012493,8.0,0.0,part_2,go,550.0,600.0,1.0,,,,,,,,,cyan,I
0.0,7.0,3.0,1.0,6.0,0.0,0.0,8.0,0.0,part_2,stop,550.0,600.0,4.0,,,,,,,,,green,flipped triangle
0.0,4.0,4.0,0.0,6.0,6.0,754.1582060002838,8.0,0.0,part_2,go,550.0,650.0,1.0,,,,,,,,,white,hexagon
0.0,7.0,3.0,1.0,6.0,0.0,0.0,8.0,0.0,part_2,stop,550.0,650.0,4.0,,,,,,,,,green,flipped triangle
0.0,8.0,4.0,1.0,6.0,6.0,687.2102439992887,8.0,0.0,part_2,stop,550.0,700.0,3.0,,,,,,,,,gray,triangle
0.0,3.0,3.0,0.0,5.0,5.0,500.0192119987332,8.0,0.0,part_2,go,550.0,650.0,1.0,,,,,,,,,magenta,circle
0.0,3.0,3.0,0.0,5.0,5.0,840.3231629999937,8.0,0.0,part_2,go,550.0,650.0,1.0,,,,,,,,,magenta,circle
0.0,6.0,2.0,1.0,6.0,0.0,0.0,8.0,0.0,part_2,stop,550.0,650.0,4.0,,,,,,,,,blue,cross
0.0,7.0,3.0,1.0,6.0,6.0,674.8552159988321,8.0,0.0,part_2,stop,550.0,700.0,3.0,,,,,,,,,green,flipped triangle
0.0,2.0,2.0,0.0,6.0,6.0,963.1301879999228,8.0,0.0,part_2,go,550.0,650.0,1.0,,,,,,,,,orange,square
0.0,2.0,2.0,0.0,6.0,6.0,924.5477069998742,8.0,0.0,part_2,go,550.0,650.0,1.0,,,,,,,,,orange,square
0.0,5.0,1.0,1.0,6.0,0.0,0.0,8.0,0.0,part_2,stop,550.0,650.0,4.0,,,,,,,,,yellow,diamond
0.0,4.0,4.0,0.0,6.0,6.0,676.806616000249,8.0,0.0,part_2,go,550.0,700.0,1.0,,,,,,,,,white,hexagon
0.0,4.0,4.0,0.0,5.0,5.0,727.4013879978156,8.0,0.0,part_2,go,550.0,700.0,1.0,,,,,,,,,white,hexagon
0.0,8.0,4.0,1.0,6.0,6.0,785.9612100000959,8.0,0.0,part_2,go,550.0,700.0,1.0,,,,,,,,,gray,triangle
0.0,7.0,3.0,1.0,6.0,6.0,572.3158510008943,8.0,0.0,part_2,stop,550.0,700.0,3.0,,,,,,,,,green,flipped triangle
0.0,6.0,2.0,1.0,6.0,6.0,686.8248089995177,8.0,0.0,part_2,stop,550.0,650.0,3.0,,,,,,,,,blue,cross
0.0,6.0,2.0,1.0,6.0,0.0,0.0,8.0,0.0,part_2,stop,550.0,600.0,4.0,,,,,,,,,blue,cross
0.0,7.0,3.0,1.0,7.0,5.0,4268.887428999733,1.0,1.0,part_3,go,0.0,0.0,0.0,204.0,6.0,136.0,68.0,34.0,102.0,204.0,170.0,green,flipped triangle
0.0,7.0,3.0,1.0,7.0,3.0,3961.49074799905,1.0,1.0,part_3,go,0.0,0.0,0.0,245.0,5.0,294.0,196.0,245.0,49.0,147.0,98.0,green,flipped triangle
0.0,2.0,2.0,0.0,7.0,3.0,3620.609544999752,1.0,1.0,part_3,go,0.0,0.0,0.0,117.0,3.0,39.0,234.0,117.0,78.0,156.0,195.0,orange,square
0.0,6.0,2.0,1.0,7.0,2.0,4267.8364100029285,1.0,1.0,part_3,go,0.0,0.0,0.0,132.0,3.0,264.0,132.0,44.0,176.0,220.0,88.0,blue,cross
0.0,6.0,2.0,1.0,7.0,2.0,2917.0801359978213,1.0,1.0,part_3,go,0.0,0.0,0.0,264.0,6.0,44.0,264.0,176.0,132.0,220.0,88.0,blue,cross
0.0,1.0,1.0,0.0,7.0,2.0,3730.798647000483,1.0,1.0,part_3,go,0.0,0.0,0.0,102.0,3.0,136.0,102.0,170.0,34.0,68.0,204.0,cyan,I
0.0,6.0,2.0,1.0,7.0,5.0,4386.451867998403,1.0,1.0,part_3,go,0.0,0.0,0.0,117.0,3.0,78.0,39.0,195.0,156.0,117.0,234.0,blue,cross
0.0,6.0,2.0,1.0,7.0,6.0,1565.682498003298,1.0,2.0,part_3,go,0.0,0.0,0.0,324.0,6.0,216.0,162.0,108.0,54.0,270.0,324.0,blue,cross
0.0,2.0,2.0,0.0,7.0,4.0,2623.8802799998666,1.0,1.0,part_3,go,0.0,0.0,0.0,196.0,4.0,294.0,245.0,49.0,196.0,147.0,98.0,orange,square
0.0,8.0,4.0,1.0,7.0,2.0,2850.2753650027444,1.0,1.0,part_3,go,0.0,0.0,0.0,102.0,3.0,204.0,102.0,136.0,68.0,34.0,170.0,gray,triangle
0.0,3.0,3.0,0.0,7.0,2.0,2846.5378059991053,1.0,1.0,part_3,go,0.0,0.0,0.0,132.0,3.0,264.0,132.0,220.0,44.0,88.0,176.0,magenta,circle
0.0,8.0,4.0,1.0,7.0,1.0,2838.607265999599,1.0,1.0,part_3,go,0.0,0.0,0.0,156.0,4.0,156.0,117.0,78.0,195.0,39.0,234.0,gray,triangle
0.0,1.0,1.0,0.0,7.0,3.0,2305.5382819984516,1.0,1.0,part_3,go,0.0,0.0,0.0,98.0,2.0,147.0,245.0,98.0,49.0,294.0,196.0,cyan,I
0.0,7.0,3.0,1.0,7.0,4.0,2172.61014199903,1.0,1.0,part_3,go,0.0,0.0,0.0,324.0,6.0,54.0,108.0,270.0,324.0,162.0,216.0,green,flipped triangle
0.0,7.0,3.0,1.0,7.0,5.0,1830.1794860017253,1.0,1.0,part_3,go,0.0,0.0,0.0,195.0,5.0,234.0,156.0,117.0,78.0,195.0,39.0,green,flipped triangle
0.0,6.0,2.0,1.0,7.0,1.0,2391.450289000204,1.0,1.0,part_3,go,0.0,0.0,0.0,117.0,3.0,117.0,78.0,195.0,39.0,156.0,234.0,blue,cross
0.0,7.0,3.0,1.0,7.0,6.0,2555.5231150028703,1.0,1.0,part_3,go,0.0,0.0,0.0,176.0,4.0,132.0,44.0,264.0,220.0,88.0,176.0,green,flipped triangle
0.0,8.0,4.0,1.0,7.0,2.0,1799.6651690009458,1.0,1.0,part_3,go,0.0,0.0,0.0,196.0,4.0,147.0,196.0,294.0,245.0,49.0,98.0,gray,triangle
0.0,8.0,4.0,1.0,7.0,4.0,2458.0323879999924,1.0,1.0,part_3,go,0.0,0.0,0.0,132.0,3.0,44.0,176.0,264.0,132.0,220.0,88.0,gray,triangle
0.0,4.0,4.0,0.0,7.0,4.0,2500.561521999771,1.0,1.0,part_3,go,0.0,0.0,0.0,196.0,4.0,98.0,147.0,49.0,196.0,294.0,245.0,white,hexagon
0.0,5.0,1.0,1.0,7.0,4.0,2016.8110939994222,2.0,1.0,part_3,go,0.0,0.0,0.0,136.0,4.0,170.0,68.0,34.0,136.0,204.0,102.0,yellow,diamond
0.0,3.0,3.0,0.0,7.0,6.0,2438.3483870005875,2.0,1.0,part_3,go,0.0,0.0,0.0,102.0,3.0,136.0,34.0,68.0,204.0,170.0,102.0,magenta,circle
0.0,1.0,1.0,0.0,7.0,5.0,2664.108175002184,2.0,1.0,part_3,go,0.0,0.0,0.0,270.0,5.0,162.0,216.0,324.0,108.0,270.0,54.0,cyan,I
0.0,4.0,4.0,0.0,7.0,3.0,3473.0767509972793,2.0,1.0,part_3,go,0.0,0.0,0.0,176.0,4.0,44.0,88.0,176.0,220.0,132.0,264.0,white,hexagon
0.0,4.0,4.0,0.0,7.0,4.0,2619.521298001928,2.0,1.0,part_3,go,0.0,0.0,0.0,170.0,5.0,136.0,204.0,34.0,170.0,68.0,102.0,white,hexagon
0.0,6.0,2.0,1.0,7.0,3.0,2543.2007899980817,2.0,1.0,part_3,go,0.0,0.0,0.0,147.0,3.0,245.0,294.0,147.0,196.0,98.0,49.0,blue,cross
0.0,8.0,4.0,1.0,7.0,5.0,3076.0805329991854,2.0,1.0,part_3,go,0.0,0.0,0.0,195.0,5.0,39.0,78.0,234.0,156.0,195.0,117.0,gray,triangle
0.0,2.0,2.0,0.0,7.0,1.0,2659.772367998812,2.0,1.0,part_3,go,0.0,0.0,0.0,132.0,3.0,132.0,44.0,220.0,176.0,88.0,264.0,orange,square
0.0,5.0,1.0,1.0,7.0,4.0,2985.5773380004393,2.0,1.0,part_3,go,0.0,0.0,0.0,78.0,2.0,117.0,156.0,195.0,78.0,234.0,39.0,yellow,diamond
0.0,2.0,2.0,0.0,7.0,2.0,2683.501900999545,2.0,1.0,part_3,go,0.0,0.0,0.0,170.0,5.0,204.0,170.0,102.0,34.0,136.0,68.0,orange,square
0.0,2.0,2.0,0.0,7.0,3.0,2431.874263998907,2.0,1.0,part_3,go,0.0,0.0,0.0,216.0,4.0,162.0,108.0,216.0,54.0,270.0,324.0,orange,square
0.0,4.0,4.0,0.0,7.0,2.0,2739.3600510004035,2.0,1.0,part_3,go,0.0,0.0,0.0,68.0,2.0,34.0,68.0,102.0,170.0,136.0,204.0,white,hexagon
0.0,5.0,1.0,1.0,7.0,6.0,2262.789563999831,2.0,1.0,part_3,go,0.0,0.0,0.0,196.0,4.0,245.0,147.0,294.0,49.0,98.0,196.0,yellow,diamond
0.0,1.0,1.0,0.0,7.0,6.0,2214.07425399957,2.0,1.0,part_3,go,0.0,0.0,0.0,117.0,3.0,156.0,195.0,39.0,234.0,78.0,117.0,cyan,I
0.0,5.0,1.0,1.0,7.0,2.0,2722.60935000304,2.0,1.0,part_3,go,0.0,0.0,0.0,136.0,4.0,68.0,136.0,102.0,170.0,34.0,204.0,yellow,diamond
0.0,8.0,4.0,1.0,7.0,3.0,2830.1845919995685,2.0,1.0,part_3,go,0.0,0.0,0.0,136.0,4.0,102.0,204.0,136.0,68.0,34.0,170.0,gray,triangle
0.0,8.0,4.0,1.0,7.0,6.0,2553.2566189976933,2.0,1.0,part_3,go,0.0,0.0,0.0,264.0,6.0,44.0,132.0,176.0,88.0,220.0,264.0,gray,triangle
0.0,8.0,4.0,1.0,7.0,3.0,2487.1073909998813,2.0,1.0,part_3,go,0.0,0.0,0.0,294.0,6.0,196.0,147.0,294.0,245.0,49.0,98.0,gray,triangle
0.0,4.0,4.0,0.0,7.0,5.0,2528.455274001317,2.0,1.0,part_3,go,0.0,0.0,0.0,156.0,4.0,195.0,234.0,78.0,39.0,156.0,117.0,white,hexagon
0.0,1.0,1.0,0.0,7.0,3.0,1919.4103679983527,2.0,1.0,part_3,go,0.0,0.0,0.0,108.0,2.0,216.0,54.0,108.0,270.0,162.0,324.0,cyan,I
0.0,7.0,3.0,1.0,7.0,2.0,2558.902403998218,3.0,1.0,part_3,go,0.0,0.0,0.0,132.0,3.0,176.0,132.0,88.0,220.0,264.0,44.0,green,flipped triangle
0.0,3.0,3.0,0.0,7.0,5.0,2010.2265440000338,3.0,1.0,part_3,go,0.0,0.0,0.0,170.0,5.0,136.0,34.0,68.0,204.0,170.0,102.0,magenta,circle
0.0,7.0,3.0,1.0,7.0,3.0,2492.793345998507,3.0,1.0,part_3,go,0.0,0.0,0.0,117.0,3.0,195.0,234.0,117.0,39.0,78.0,156.0,green,flipped triangle
0.0,5.0,1.0,1.0,7.0,6.0,2275.5191379983444,3.0,1.0,part_3,go,0.0,0.0,0.0,216.0,4.0,324.0,108.0,270.0,162.0,54.0,216.0,yellow,diamond
0.0,5.0,1.0,1.0,7.0,3.0,2107.728581999254,3.0,1.0,part_3,go,0.0,0.0,0.0,147.0,3.0,294.0,196.0,147.0,245.0,49.0,98.0,yellow,diamond
0.0,4.0,4.0,0.0,7.0,4.0,3662.724778001575,3.0,1.0,part_3,go,0.0,0.0,0.0,270.0,5.0,162.0,324.0,54.0,270.0,108.0,216.0,white,hexagon
0.0,3.0,3.0,0.0,7.0,4.0,3713.364155999443,3.0,1.0,part_3,go,0.0,0.0,0.0,195.0,5.0,78.0,39.0,234.0,195.0,156.0,117.0,magenta,circle
0.0,7.0,3.0,1.0,7.0,3.0,2919.0010790007364,3.0,1.0,part_3,go,0.0,0.0,0.0,162.0,3.0,324.0,270.0,162.0,54.0,108.0,216.0,green,flipped triangle
0.0,4.0,4.0,0.0,7.0,5.0,3256.5498889998707,3.0,1.0,part_3,go,0.0,0.0,0.0,196.0,4.0,98.0,147.0,245.0,49.0,196.0,294.0,white,hexagon
0.0,1.0,1.0,0.0,7.0,3.0,1946.2343079976565,3.0,1.0,part_3,go,0.0,0.0,0.0,220.0,5.0,88.0,132.0,220.0,264.0,176.0,44.0,cyan,I
0.0,4.0,4.0,0.0,7.0,4.0,2395.0178400009463,3.0,1.0,part_3,go,0.0,0.0,0.0,220.0,5.0,88.0,264.0,132.0,220.0,176.0,44.0,white,hexagon
0.0,3.0,3.0,0.0,7.0,5.0,3104.6469089997117,3.0,1.0,part_3,go,0.0,0.0,0.0,117.0,3.0,156.0,234.0,195.0,39.0,117.0,78.0,magenta,circle
0.0,5.0,1.0,1.0,7.0,2.0,2808.2101119980507,3.0,1.0,part_3,go,0.0,0.0,0.0,270.0,5.0,216.0,270.0,162.0,108.0,324.0,54.0,yellow,diamond
0.0,1.0,1.0,0.0,7.0,2.0,2768.9993910025805,3.0,1.0,part_3,go,0.0,0.0,0.0,245.0,5.0,294.0,245.0,147.0,49.0,196.0,98.0,cyan,I
0.0,6.0,2.0,1.0,7.0,2.0,2770.5896549996396,3.0,1.0,part_3,go,0.0,0.0,0.0,170.0,5.0,136.0,170.0,102.0,68.0,204.0,34.0,blue,cross
0.0,3.0,3.0,0.0,7.0,3.0,2515.660334000131,3.0,1.0,part_3,go,0.0,0.0,0.0,245.0,5.0,196.0,49.0,245.0,294.0,98.0,147.0,magenta,circle
0.0,6.0,2.0,1.0,7.0,4.0,2249.059893998492,3.0,1.0,part_3,go,0.0,0.0,0.0,245.0,5.0,147.0,98.0,294.0,245.0,196.0,49.0,blue,cross
0.0,2.0,2.0,0.0,7.0,6.0,2646.1339099987526,3.0,1.0,part_3,go,0.0,0.0,0.0,270.0,5.0,324.0,108.0,162.0,216.0,54.0,270.0,orange,square
0.0,7.0,3.0,1.0,7.0,6.0,2319.8179120008717,3.0,1.0,part_3,go,0.0,0.0,0.0,170.0,5.0,102.0,204.0,68.0,136.0,34.0,170.0,green,flipped triangle
0.0,6.0,2.0,1.0,7.0,2.0,2934.97339500027,3.0,1.0,part_3,go,0.0,0.0,0.0,162.0,3.0,216.0,162.0,108.0,270.0,324.0,54.0,blue,cross
0.0,5.0,1.0,1.0,7.0,5.0,2445.005300000048,4.0,1.0,part_3,go,0.0,0.0,0.0,176.0,4.0,220.0,132.0,264.0,88.0,176.0,44.0,yellow,diamond
0.0,8.0,4.0,1.0,7.0,4.0,2658.267532002355,4.0,1.0,part_3,go,0.0,0.0,0.0,270.0,5.0,216.0,54.0,324.0,270.0,162.0,108.0,gray,triangle
0.0,5.0,1.0,1.0,7.0,6.0,2418.6279979985557,4.0,1.0,part_3,go,0.0,0.0,0.0,220.0,5.0,176.0,132.0,44.0,88.0,264.0,220.0,yellow,diamond
0.0,2.0,2.0,0.0,7.0,2.0,3876.675608000369,4.0,1.0,part_3,go,0.0,0.0,0.0,220.0,5.0,44.0,220.0,264.0,88.0,176.0,132.0,orange,square
0.0,8.0,4.0,1.0,7.0,3.0,2563.582573999156,4.0,1.0,part_3,go,0.0,0.0,0.0,162.0,3.0,54.0,270.0,162.0,324.0,108.0,216.0,gray,triangle
0.0,3.0,3.0,0.0,7.0,5.0,2826.0527350030316,4.0,1.0,part_3,go,0.0,0.0,0.0,270.0,5.0,216.0,54.0,108.0,162.0,270.0,324.0,magenta,circle
0.0,5.0,1.0,1.0,7.0,4.0,2676.774250001472,4.0,1.0,part_3,go,0.0,0.0,0.0,234.0,6.0,78.0,195.0,39.0,234.0,117.0,156.0,yellow,diamond
0.0,3.0,3.0,0.0,7.0,2.0,2469.0732519993617,4.0,1.0,part_3,go,0.0,0.0,0.0,216.0,4.0,324.0,216.0,108.0,270.0,162.0,54.0,magenta,circle
0.0,7.0,3.0,1.0,7.0,6.0,2938.3928749994084,4.0,1.0,part_3,go,0.0,0.0,0.0,196.0,4.0,294.0,147.0,245.0,49.0,98.0,196.0,green,flipped triangle
0.0,4.0,4.0,0.0,7.0,2.0,3099.767691001034,4.0,1.0,part_3,go,0.0,0.0,0.0,195.0,5.0,117.0,195.0,39.0,78.0,234.0,156.0,white,hexagon
0.0,1.0,1.0,0.0,7.0,3.0,2889.799511998717,4.0,1.0,part_3,go,0.0,0.0,0.0,195.0,5.0,78.0,117.0,195.0,39.0,234.0,156.0,cyan,I
0.0,2.0,2.0,0.0,7.0,2.0,3232.742970001709,4.0,1.0,part_3,go,0.0,0.0,0.0,195.0,5.0,39.0,195.0,117.0,156.0,234.0,78.0,orange,square
0.0,1.0,1.0,0.0,7.0,4.0,3284.9499809999543,4.0,1.0,part_3,go,0.0,0.0,0.0,220.0,5.0,44.0,88.0,132.0,220.0,176.0,264.0,cyan,I
0.0,2.0,2.0,0.0,7.0,3.0,3145.395079998707,4.0,1.0,part_3,go,0.0,0.0,0.0,170.0,5.0,204.0,68.0,170.0,34.0,102.0,136.0,orange,square
0.0,3.0,3.0,0.0,7.0,4.0,3016.0783380015346,4.0,1.0,part_3,go,0.0,0.0,0.0,245.0,5.0,49.0,294.0,98.0,245.0,196.0,147.0,magenta,circle
0.0,2.0,2.0,0.0,7.0,5.0,2647.958342000493,4.0,1.0,part_3,go,0.0,0.0,0.0,245.0,5.0,147.0,49.0,294.0,196.0,245.0,98.0,orange,square
0.0,6.0,2.0,1.0,7.0,5.0,2699.573298999894,4.0,1.0,part_3,go,0.0,0.0,0.0,170.0,5.0,34.0,204.0,136.0,102.0,170.0,68.0,blue,cross
0.0,4.0,4.0,0.0,7.0,5.0,2542.8225970026688,4.0,1.0,part_3,go,0.0,0.0,0.0,270.0,5.0,54.0,324.0,216.0,108.0,270.0,162.0,white,hexagon
0.0,1.0,1.0,0.0,7.0,2.0,2566.6381009978068,4.0,1.0,part_3,go,0.0,0.0,0.0,170.0,5.0,68.0,170.0,34.0,102.0,136.0,204.0,cyan,I
0.0,3.0,3.0,0.0,7.0,6.0,3115.1945970013912,4.0,1.0,part_3,go,0.0,0.0,0.0,220.0,5.0,264.0,132.0,176.0,88.0,44.0,220.0,magenta,circle
