raw_reward_magnitude,stim_reward,stepwise_reward_magnitude,paired_with_stopping,stim_location,response,reaction_time,block,num_trial_presentations,which_phase,stop_signal_trial_type,left_SSD,right_SSD,accuracy,chosen_bidding_amount,chosen_bidding_level,possible_bid_1,possible_bid_2,possible_bid_3,possible_bid_4,possible_bid_5,possible_bid_6,color_text,shape_text
384.0,4.0,4.0,0.0,1.0,1.0,549.8531320004076,1.0,1.0,phase_1,,,,,,,,,,,,,magenta,diamond
180.0,7.0,3.0,1.0,4.0,4.0,478.3747840001524,1.0,1.0,phase_1,,,,,,,,,,,,,orange,triangle
33.0,1.0,1.0,0.0,2.0,2.0,317.1667950000483,1.0,1.0,phase_1,,,,,,,,,,,,,white,hexagon
35.0,5.0,1.0,1.0,1.0,1.0,413.4371169998303,1.0,1.0,phase_1,,,,,,,,,,,,,blue,I
0.0,7.0,0.0,1.0,2.0,2.0,344.1571190001014,1.0,1.0,phase_1,,,,,,,,,,,,,orange,triangle
100.0,2.0,2.0,0.0,1.0,1.0,357.8767659996629,1.0,2.0,phase_1,,,,,,,,,,,,,green,circle
110.0,2.0,2.0,0.0,3.0,3.0,419.1372300001603,1.0,1.0,phase_1,,,,,,,,,,,,,green,circle
408.0,8.0,4.0,1.0,2.0,2.0,373.9895220001017,1.0,1.0,phase_1,,,,,,,,,,,,,gray,cross
90.0,6.0,2.0,1.0,4.0,4.0,513.5075690000122,1.0,1.0,phase_1,,,,,,,,,,,,,cyan,flipped triangle
197.0,3.0,3.0,0.0,3.0,3.0,345.4418730002544,1.0,1.0,phase_1,,,,,,,,,,,,,yellow,square
215.0,3.0,3.0,0.0,2.0,2.0,347.1276260002014,1.0,1.0,phase_1,,,,,,,,,,,,,yellow,square
184.0,3.0,3.0,0.0,4.0,4.0,382.8479369999513,1.0,1.0,phase_1,,,,,,,,,,,,,yellow,square
0.0,3.0,0.0,0.0,3.0,3.0,317.4115350002466,1.0,1.0,phase_1,,,,,,,,,,,,,yellow,square
113.0,2.0,2.0,0.0,1.0,1.0,326.3920019999204,1.0,1.0,phase_1,,,,,,,,,,,,,green,circle
72.0,1.0,1.0,0.0,4.0,4.0,416.3038739998228,1.0,1.0,phase_1,,,,,,,,,,,,,white,hexagon
0.0,3.0,0.0,0.0,1.0,1.0,369.6877239999594,1.0,1.0,phase_1,,,,,,,,,,,,,yellow,square
393.0,4.0,4.0,0.0,3.0,3.0,356.9202660000883,1.0,1.0,phase_1,,,,,,,,,,,,,magenta,diamond
55.0,5.0,1.0,1.0,1.0,1.0,384.405112999957,1.0,1.0,phase_1,,,,,,,,,,,,,blue,I
179.0,3.0,3.0,0.0,3.0,3.0,234.2074969997156,1.0,1.0,phase_1,,,,,,,,,,,,,yellow,square
106.0,2.0,2.0,0.0,2.0,2.0,336.3781969997035,1.0,1.0,phase_1,,,,,,,,,,,,,green,circle
43.0,5.0,1.0,1.0,4.0,4.0,317.3262150003211,1.0,1.0,phase_1,,,,,,,,,,,,,blue,I
120.0,2.0,2.0,0.0,4.0,4.0,511.8348989999504,1.0,2.0,phase_1,,,,,,,,,,,,,green,circle
55.0,1.0,1.0,0.0,1.0,1.0,497.6063220001379,1.0,1.0,phase_1,,,,,,,,,,,,,white,hexagon
0.0,4.0,0.0,0.0,2.0,2.0,445.0926499998786,1.0,1.0,phase_1,,,,,,,,,,,,,magenta,diamond
407.0,8.0,4.0,1.0,2.0,2.0,403.3899519999977,1.0,1.0,phase_1,,,,,,,,,,,,,gray,cross
102.0,6.0,2.0,1.0,2.0,2.0,348.8133550004022,1.0,1.0,phase_1,,,,,,,,,,,,,cyan,flipped triangle
404.0,8.0,4.0,1.0,2.0,2.0,331.9788469998457,1.0,1.0,phase_1,,,,,,,,,,,,,gray,cross
102.0,2.0,2.0,0.0,2.0,2.0,310.1249409996853,1.0,1.0,phase_1,,,,,,,,,,,,,green,circle
0.0,4.0,0.0,0.0,4.0,4.0,350.7446739999977,1.0,1.0,phase_1,,,,,,,,,,,,,magenta,diamond
0.0,4.0,0.0,0.0,2.0,2.0,302.6610279998749,1.0,2.0,phase_1,,,,,,,,,,,,,magenta,diamond
393.0,4.0,4.0,0.0,1.0,1.0,414.3877460001022,1.0,1.0,phase_1,,,,,,,,,,,,,magenta,diamond
100.0,6.0,2.0,1.0,4.0,4.0,366.2950049997562,1.0,1.0,phase_1,,,,,,,,,,,,,cyan,flipped triangle
195.0,7.0,3.0,1.0,2.0,2.0,269.772687999648,1.0,1.0,phase_1,,,,,,,,,,,,,orange,triangle
90.0,2.0,2.0,0.0,2.0,2.0,282.7711919999274,1.0,1.0,phase_1,,,,,,,,,,,,,green,circle
56.0,1.0,1.0,0.0,3.0,3.0,375.0910029998522,1.0,1.0,phase_1,,,,,,,,,,,,,white,hexagon
199.0,7.0,3.0,1.0,3.0,3.0,501.5988700001799,1.0,1.0,phase_1,,,,,,,,,,,,,orange,triangle
0.0,1.0,0.0,0.0,1.0,1.0,465.2773280004112,1.0,1.0,phase_1,,,,,,,,,,,,,white,hexagon
179.0,3.0,3.0,0.0,4.0,4.0,423.1643220000478,1.0,1.0,phase_1,,,,,,,,,,,,,yellow,square
40.0,1.0,1.0,0.0,4.0,4.0,466.9255909998355,1.0,1.0,phase_1,,,,,,,,,,,,,white,hexagon
0.0,2.0,0.0,0.0,4.0,4.0,355.3211749999718,1.0,1.0,phase_1,,,,,,,,,,,,,green,circle
37.0,5.0,1.0,1.0,3.0,3.0,386.4737530002458,1.0,1.0,phase_1,,,,,,,,,,,,,blue,I
90.0,2.0,2.0,0.0,4.0,4.0,353.3518670001285,1.0,1.0,phase_1,,,,,,,,,,,,,green,circle
106.0,2.0,2.0,0.0,1.0,1.0,268.471714000043,1.0,1.0,phase_1,,,,,,,,,,,,,green,circle
49.0,5.0,1.0,1.0,1.0,1.0,449.2731269997421,1.0,1.0,phase_1,,,,,,,,,,,,,blue,I
0.0,7.0,0.0,1.0,1.0,1.0,323.3919770000284,1.0,1.0,phase_1,,,,,,,,,,,,,orange,triangle
0.0,5.0,0.0,1.0,4.0,4.0,360.7489659998464,1.0,1.0,phase_1,,,,,,,,,,,,,blue,I
72.0,5.0,1.0,1.0,4.0,4.0,272.010641000179,1.0,1.0,phase_1,,,,,,,,,,,,,blue,I
213.0,7.0,3.0,1.0,4.0,4.0,318.0150029998003,1.0,1.0,phase_1,,,,,,,,,,,,,orange,triangle
207.0,3.0,3.0,0.0,4.0,4.0,276.8994870002643,1.0,1.0,phase_1,,,,,,,,,,,,,yellow,square
0.0,4.0,0.0,0.0,1.0,1.0,396.5005889999702,1.0,1.0,phase_1,,,,,,,,,,,,,magenta,diamond
0.0,7.0,0.0,1.0,3.0,3.0,434.8684090000461,1.0,1.0,phase_1,,,,,,,,,,,,,orange,triangle
0.0,4.0,0.0,0.0,2.0,2.0,312.7105290000145,1.0,1.0,phase_1,,,,,,,,,,,,,magenta,diamond
83.0,2.0,2.0,0.0,2.0,2.0,344.5211090001976,1.0,1.0,phase_1,,,,,,,,,,,,,green,circle
413.0,8.0,4.0,1.0,4.0,4.0,465.072801000133,1.0,1.0,phase_1,,,,,,,,,,,,,gray,cross
61.0,1.0,1.0,0.0,1.0,1.0,295.540949000042,1.0,1.0,phase_1,,,,,,,,,,,,,white,hexagon
412.0,8.0,4.0,1.0,3.0,3.0,361.0384160001558,1.0,1.0,phase_1,,,,,,,,,,,,,gray,cross
48.0,5.0,1.0,1.0,1.0,1.0,272.0758370001022,1.0,1.0,phase_1,,,,,,,,,,,,,blue,I
0.0,2.0,0.0,0.0,3.0,3.0,357.2175620001871,1.0,1.0,phase_1,,,,,,,,,,,,,green,circle
0.0,1.0,0.0,0.0,1.0,1.0,389.9089920000733,1.0,1.0,phase_1,,,,,,,,,,,,,white,hexagon
57.0,5.0,1.0,1.0,3.0,3.0,416.26969500021,1.0,1.0,phase_1,,,,,,,,,,,,,blue,I
78.0,6.0,2.0,1.0,2.0,2.0,336.5395049995641,1.0,1.0,phase_1,,,,,,,,,,,,,cyan,flipped triangle
87.0,2.0,2.0,0.0,4.0,4.0,367.7724839999428,1.0,1.0,phase_1,,,,,,,,,,,,,green,circle
208.0,3.0,3.0,0.0,3.0,3.0,340.9359410002253,1.0,1.0,phase_1,,,,,,,,,,,,,yellow,square
196.0,7.0,3.0,1.0,1.0,1.0,361.1264020000817,1.0,1.0,phase_1,,,,,,,,,,,,,orange,triangle
388.0,4.0,4.0,0.0,4.0,4.0,464.2818960001023,1.0,1.0,phase_1,,,,,,,,,,,,,magenta,diamond
124.0,2.0,2.0,0.0,2.0,2.0,436.2831840003309,1.0,2.0,phase_1,,,,,,,,,,,,,green,circle
218.0,3.0,3.0,0.0,2.0,2.0,438.6520849998305,1.0,1.0,phase_1,,,,,,,,,,,,,yellow,square
383.0,4.0,4.0,0.0,2.0,2.0,369.7446780001883,1.0,1.0,phase_1,,,,,,,,,,,,,magenta,diamond
176.0,7.0,3.0,1.0,4.0,4.0,551.4375929997186,1.0,1.0,phase_1,,,,,,,,,,,,,orange,triangle
0.0,1.0,0.0,0.0,3.0,3.0,530.5787920001421,1.0,1.0,phase_1,,,,,,,,,,,,,white,hexagon
77.0,6.0,2.0,1.0,1.0,1.0,276.8167099998209,1.0,1.0,phase_1,,,,,,,,,,,,,cyan,flipped triangle
0.0,8.0,0.0,1.0,2.0,2.0,291.1917060000633,1.0,1.0,phase_1,,,,,,,,,,,,,gray,cross
78.0,2.0,2.0,0.0,4.0,4.0,271.8818029998147,1.0,1.0,phase_1,,,,,,,,,,,,,green,circle
188.0,7.0,3.0,1.0,3.0,3.0,322.7780309998707,1.0,1.0,phase_1,,,,,,,,,,,,,orange,triangle
0.0,4.0,0.0,0.0,3.0,3.0,371.5055859997846,1.0,1.0,phase_1,,,,,,,,,,,,,magenta,diamond
32.0,5.0,1.0,1.0,4.0,4.0,439.1633900004308,1.0,1.0,phase_1,,,,,,,,,,,,,blue,I
101.0,2.0,2.0,0.0,3.0,3.0,357.3576839999077,1.0,1.0,phase_1,,,,,,,,,,,,,green,circle
412.0,4.0,4.0,0.0,4.0,4.0,323.2167599999229,1.0,1.0,phase_1,,,,,,,,,,,,,magenta,diamond
0.0,7.0,0.0,1.0,1.0,1.0,337.8486479996354,1.0,1.0,phase_1,,,,,,,,,,,,,orange,triangle
81.0,6.0,2.0,1.0,3.0,3.0,433.7438949996794,1.0,1.0,phase_1,,,,,,,,,,,,,cyan,flipped triangle
395.0,8.0,4.0,1.0,4.0,4.0,516.3816790000055,1.0,1.0,phase_1,,,,,,,,,,,,,gray,cross
394.0,8.0,4.0,1.0,4.0,4.0,314.4600249997893,1.0,1.0,phase_1,,,,,,,,,,,,,gray,cross
398.0,4.0,4.0,0.0,2.0,2.0,348.9584159997321,1.0,1.0,phase_1,,,,,,,,,,,,,magenta,diamond
110.0,2.0,2.0,0.0,1.0,1.0,316.1361679999572,1.0,1.0,phase_1,,,,,,,,,,,,,green,circle
78.0,2.0,2.0,0.0,4.0,4.0,417.2917519999828,1.0,1.0,phase_1,,,,,,,,,,,,,green,circle
61.0,5.0,1.0,1.0,2.0,2.0,417.3378229997979,1.0,1.0,phase_1,,,,,,,,,,,,,blue,I
0.0,6.0,0.0,1.0,1.0,1.0,465.1725570001872,1.0,1.0,phase_1,,,,,,,,,,,,,cyan,flipped triangle
0.0,6.0,0.0,1.0,3.0,3.0,351.2148179997894,1.0,1.0,phase_1,,,,,,,,,,,,,cyan,flipped triangle
34.0,5.0,1.0,1.0,3.0,3.0,413.1597389996386,1.0,1.0,phase_1,,,,,,,,,,,,,blue,I
0.0,5.0,0.0,1.0,4.0,4.0,359.4084459996338,1.0,1.0,phase_1,,,,,,,,,,,,,blue,I
400.0,8.0,4.0,1.0,3.0,3.0,488.6529870000231,1.0,1.0,phase_1,,,,,,,,,,,,,gray,cross
395.0,4.0,4.0,0.0,2.0,2.0,379.1579200001251,1.0,1.0,phase_1,,,,,,,,,,,,,magenta,diamond
0.0,5.0,0.0,1.0,4.0,4.0,467.6742910000939,1.0,1.0,phase_1,,,,,,,,,,,,,blue,I
54.0,1.0,1.0,0.0,3.0,3.0,425.2407060002952,1.0,1.0,phase_1,,,,,,,,,,,,,white,hexagon
113.0,2.0,2.0,0.0,3.0,3.0,386.4654740000333,1.0,1.0,phase_1,,,,,,,,,,,,,green,circle
396.0,4.0,4.0,0.0,3.0,3.0,400.3930790004233,1.0,1.0,phase_1,,,,,,,,,,,,,magenta,diamond
222.0,7.0,3.0,1.0,3.0,3.0,302.0273729998735,1.0,1.0,phase_1,,,,,,,,,,,,,orange,triangle
0.0,1.0,0.0,0.0,1.0,1.0,387.885076999737,1.0,1.0,phase_1,,,,,,,,,,,,,white,hexagon
88.0,2.0,2.0,0.0,4.0,4.0,378.893928999787,1.0,1.0,phase_1,,,,,,,,,,,,,green,circle
81.0,2.0,2.0,0.0,3.0,3.0,330.9537789996284,1.0,1.0,phase_1,,,,,,,,,,,,,green,circle
393.0,8.0,4.0,1.0,2.0,2.0,677.9470060000676,2.0,1.0,phase_1,,,,,,,,,,,,,gray,cross
120.0,6.0,2.0,1.0,1.0,1.0,373.19196100042967,2.0,1.0,phase_1,,,,,,,,,,,,,cyan,flipped triangle
385.0,4.0,4.0,0.0,4.0,4.0,291.2175790002038,2.0,1.0,phase_1,,,,,,,,,,,,,magenta,diamond
385.0,8.0,4.0,1.0,1.0,1.0,438.7655390000873,2.0,1.0,phase_1,,,,,,,,,,,,,gray,cross
208.0,7.0,3.0,1.0,2.0,2.0,412.609767000049,2.0,1.0,phase_1,,,,,,,,,,,,,orange,triangle
77.0,2.0,2.0,0.0,2.0,2.0,439.7041259999241,2.0,1.0,phase_1,,,,,,,,,,,,,green,circle
87.0,6.0,2.0,1.0,3.0,3.0,362.6814879999074,2.0,1.0,phase_1,,,,,,,,,,,,,cyan,flipped triangle
0.0,3.0,0.0,0.0,3.0,3.0,404.1151740002533,2.0,1.0,phase_1,,,,,,,,,,,,,yellow,square
50.0,1.0,1.0,0.0,3.0,3.0,372.0983179996437,2.0,1.0,phase_1,,,,,,,,,,,,,white,hexagon
0.0,5.0,0.0,1.0,2.0,2.0,415.2420969999184,2.0,1.0,phase_1,,,,,,,,,,,,,blue,I
0.0,1.0,0.0,0.0,2.0,2.0,350.789593999707,2.0,1.0,phase_1,,,,,,,,,,,,,white,hexagon
378.0,8.0,4.0,1.0,1.0,1.0,340.7835220000379,2.0,1.0,phase_1,,,,,,,,,,,,,gray,cross
72.0,1.0,1.0,0.0,1.0,1.0,384.4294450000234,2.0,1.0,phase_1,,,,,,,,,,,,,white,hexagon
66.0,1.0,1.0,0.0,3.0,3.0,502.82254600006127,2.0,1.0,phase_1,,,,,,,,,,,,,white,hexagon
123.0,6.0,2.0,1.0,1.0,1.0,316.3484579999931,2.0,1.0,phase_1,,,,,,,,,,,,,cyan,flipped triangle
188.0,3.0,3.0,0.0,1.0,1.0,321.3040189998537,2.0,1.0,phase_1,,,,,,,,,,,,,yellow,square
383.0,8.0,4.0,1.0,2.0,2.0,292.9076740001619,2.0,1.0,phase_1,,,,,,,,,,,,,gray,cross
85.0,6.0,2.0,1.0,2.0,2.0,292.1553720002521,2.0,1.0,phase_1,,,,,,,,,,,,,cyan,flipped triangle
0.0,7.0,0.0,1.0,4.0,4.0,489.0258000000358,2.0,2.0,phase_1,,,,,,,,,,,,,orange,triangle
51.0,1.0,1.0,0.0,1.0,1.0,497.4461860001611,2.0,1.0,phase_1,,,,,,,,,,,,,white,hexagon
29.0,1.0,1.0,0.0,2.0,2.0,437.7997910000886,2.0,1.0,phase_1,,,,,,,,,,,,,white,hexagon
65.0,5.0,1.0,1.0,4.0,4.0,575.7478799996534,2.0,1.0,phase_1,,,,,,,,,,,,,blue,I
176.0,3.0,3.0,0.0,2.0,2.0,506.3256560001719,2.0,1.0,phase_1,,,,,,,,,,,,,yellow,square
96.0,2.0,2.0,0.0,2.0,2.0,397.6424740003494,2.0,1.0,phase_1,,,,,,,,,,,,,green,circle
186.0,3.0,3.0,0.0,4.0,4.0,461.6995900000802,2.0,1.0,phase_1,,,,,,,,,,,,,yellow,square
223.0,3.0,3.0,0.0,1.0,1.0,311.5653489999204,2.0,1.0,phase_1,,,,,,,,,,,,,yellow,square
390.0,4.0,4.0,0.0,1.0,1.0,401.9450830001005,2.0,1.0,phase_1,,,,,,,,,,,,,magenta,diamond
117.0,6.0,2.0,1.0,1.0,1.0,310.1817199999459,2.0,1.0,phase_1,,,,,,,,,,,,,cyan,flipped triangle
40.0,5.0,1.0,1.0,1.0,1.0,266.9277609998062,2.0,1.0,phase_1,,,,,,,,,,,,,blue,I
46.0,5.0,1.0,1.0,2.0,2.0,381.0150250001243,2.0,1.0,phase_1,,,,,,,,,,,,,blue,I
63.0,5.0,1.0,1.0,3.0,3.0,300.8237429999099,2.0,1.0,phase_1,,,,,,,,,,,,,blue,I
199.0,3.0,3.0,0.0,1.0,1.0,255.5351030000565,2.0,1.0,phase_1,,,,,,,,,,,,,yellow,square
96.0,2.0,2.0,0.0,4.0,4.0,264.2337040001621,2.0,1.0,phase_1,,,,,,,,,,,,,green,circle
180.0,3.0,3.0,0.0,2.0,2.0,357.1968799997194,2.0,1.0,phase_1,,,,,,,,,,,,,yellow,square
0.0,5.0,0.0,1.0,2.0,2.0,342.8706029999375,2.0,1.0,phase_1,,,,,,,,,,,,,blue,I
117.0,2.0,2.0,0.0,1.0,1.0,265.6513169999925,2.0,2.0,phase_1,,,,,,,,,,,,,green,circle
201.0,7.0,3.0,1.0,1.0,1.0,373.3605840002383,2.0,1.0,phase_1,,,,,,,,,,,,,orange,triangle
0.0,3.0,0.0,0.0,1.0,1.0,481.9764680000844,2.0,1.0,phase_1,,,,,,,,,,,,,yellow,square
34.0,1.0,1.0,0.0,2.0,2.0,486.4275300001281,2.0,1.0,phase_1,,,,,,,,,,,,,white,hexagon
0.0,4.0,0.0,0.0,3.0,3.0,353.7845769997148,2.0,1.0,phase_1,,,,,,,,,,,,,magenta,diamond
180.0,7.0,3.0,1.0,4.0,4.0,383.1078900002467,2.0,1.0,phase_1,,,,,,,,,,,,,orange,triangle
418.0,4.0,4.0,0.0,1.0,1.0,559.6188229997097,2.0,1.0,phase_1,,,,,,,,,,,,,magenta,diamond
203.0,3.0,3.0,0.0,3.0,3.0,437.3238450002645,2.0,1.0,phase_1,,,,,,,,,,,,,yellow,square
0.0,1.0,0.0,0.0,4.0,4.0,569.1254869998374,2.0,1.0,phase_1,,,,,,,,,,,,,white,hexagon
218.0,7.0,3.0,1.0,3.0,3.0,405.3509899999881,2.0,1.0,phase_1,,,,,,,,,,,,,orange,triangle
56.0,1.0,1.0,0.0,4.0,4.0,507.753854999919,2.0,1.0,phase_1,,,,,,,,,,,,,white,hexagon
197.0,7.0,3.0,1.0,1.0,1.0,340.9901509999145,2.0,1.0,phase_1,,,,,,,,,,,,,orange,triangle
101.0,6.0,2.0,1.0,2.0,2.0,337.6634430001104,2.0,1.0,phase_1,,,,,,,,,,,,,cyan,flipped triangle
63.0,1.0,1.0,0.0,4.0,4.0,316.3271680000434,2.0,1.0,phase_1,,,,,,,,,,,,,white,hexagon
28.0,5.0,1.0,1.0,1.0,1.0,332.5868570000239,2.0,1.0,phase_1,,,,,,,,,,,,,blue,I
90.0,6.0,2.0,1.0,3.0,3.0,352.6870390001022,2.0,1.0,phase_1,,,,,,,,,,,,,cyan,flipped triangle
213.0,7.0,3.0,1.0,3.0,3.0,406.6948950003279,2.0,1.0,phase_1,,,,,,,,,,,,,orange,triangle
387.0,4.0,4.0,0.0,3.0,3.0,357.7188969998133,2.0,1.0,phase_1,,,,,,,,,,,,,magenta,diamond
51.0,5.0,1.0,1.0,4.0,4.0,470.5086990002201,2.0,1.0,phase_1,,,,,,,,,,,,,blue,I
0.0,1.0,0.0,0.0,3.0,3.0,379.1501199998492,2.0,1.0,phase_1,,,,,,,,,,,,,white,hexagon
200.0,3.0,3.0,0.0,1.0,1.0,431.0253799999373,2.0,1.0,phase_1,,,,,,,,,,,,,yellow,square
88.0,6.0,2.0,1.0,2.0,2.0,277.069291999851,2.0,1.0,phase_1,,,,,,,,,,,,,cyan,flipped triangle
123.0,2.0,2.0,0.0,4.0,4.0,299.4301549997544,2.0,1.0,phase_1,,,,,,,,,,,,,green,circle
409.0,4.0,4.0,0.0,4.0,4.0,528.4488449997298,2.0,1.0,phase_1,,,,,,,,,,,,,magenta,diamond
44.0,5.0,1.0,1.0,4.0,4.0,418.3312400000432,2.0,1.0,phase_1,,,,,,,,,,,,,blue,I
424.0,4.0,4.0,0.0,1.0,1.0,341.7180760002338,2.0,1.0,phase_1,,,,,,,,,,,,,magenta,diamond
0.0,4.0,0.0,0.0,1.0,1.0,377.148553999632,2.0,1.0,phase_1,,,,,,,,,,,,,magenta,diamond
223.0,7.0,3.0,1.0,3.0,3.0,335.6888029998117,2.0,1.0,phase_1,,,,,,,,,,,,,orange,triangle
83.0,6.0,2.0,1.0,1.0,1.0,319.8115209997922,2.0,1.0,phase_1,,,,,,,,,,,,,cyan,flipped triangle
390.0,8.0,4.0,1.0,3.0,3.0,314.8294190000342,2.0,2.0,phase_1,,,,,,,,,,,,,gray,cross
424.0,8.0,4.0,1.0,3.0,3.0,697.9095769997912,2.0,1.0,phase_1,,,,,,,,,,,,,gray,cross
188.0,3.0,3.0,0.0,3.0,3.0,730.6092469998475,2.0,1.0,phase_1,,,,,,,,,,,,,yellow,square
406.0,8.0,4.0,1.0,3.0,3.0,514.4679999998516,2.0,1.0,phase_1,,,,,,,,,,,,,gray,cross
198.0,3.0,3.0,0.0,1.0,1.0,463.6895359999471,2.0,1.0,phase_1,,,,,,,,,,,,,yellow,square
386.0,4.0,4.0,0.0,4.0,4.0,505.24637799981065,2.0,1.0,phase_1,,,,,,,,,,,,,magenta,diamond
0.0,7.0,0.0,1.0,4.0,4.0,484.1754359999868,2.0,1.0,phase_1,,,,,,,,,,,,,orange,triangle
74.0,1.0,1.0,0.0,2.0,2.0,475.6966980003199,2.0,1.0,phase_1,,,,,,,,,,,,,white,hexagon
31.0,1.0,1.0,0.0,1.0,1.0,482.3312019998411,2.0,1.0,phase_1,,,,,,,,,,,,,white,hexagon
379.0,8.0,4.0,1.0,1.0,1.0,431.9987359999686,2.0,1.0,phase_1,,,,,,,,,,,,,gray,cross
42.0,5.0,1.0,1.0,2.0,2.0,495.5172219997621,2.0,1.0,phase_1,,,,,,,,,,,,,blue,I
215.0,7.0,3.0,1.0,2.0,2.0,467.5428830000783,2.0,1.0,phase_1,,,,,,,,,,,,,orange,triangle
0.0,8.0,0.0,1.0,1.0,1.0,389.9920290000409,2.0,1.0,phase_1,,,,,,,,,,,,,gray,cross
84.0,6.0,2.0,1.0,3.0,3.0,521.6084749999936,2.0,1.0,phase_1,,,,,,,,,,,,,cyan,flipped triangle
108.0,2.0,2.0,0.0,2.0,2.0,422.0084520002274,2.0,1.0,phase_1,,,,,,,,,,,,,green,circle
222.0,7.0,3.0,1.0,3.0,3.0,470.4228969999349,2.0,1.0,phase_1,,,,,,,,,,,,,orange,triangle
93.0,6.0,2.0,1.0,3.0,3.0,369.1066920000594,2.0,1.0,phase_1,,,,,,,,,,,,,cyan,flipped triangle
44.0,1.0,1.0,0.0,3.0,3.0,382.7363129998957,2.0,1.0,phase_1,,,,,,,,,,,,,white,hexagon
0.0,2.0,0.0,0.0,2.0,2.0,459.2669310000019,2.0,1.0,phase_1,,,,,,,,,,,,,green,circle
0.0,1.0,0.0,0.0,2.0,2.0,328.8356419998308,2.0,1.0,phase_1,,,,,,,,,,,,,white,hexagon
0.0,6.0,0.0,1.0,2.0,2.0,363.7083049998182,2.0,1.0,phase_1,,,,,,,,,,,,,cyan,flipped triangle
45.0,5.0,1.0,1.0,3.0,3.0,429.2243589998179,2.0,1.0,phase_1,,,,,,,,,,,,,blue,I
384.0,8.0,4.0,1.0,3.0,3.0,434.2473610004163,2.0,1.0,phase_1,,,,,,,,,,,,,gray,cross
383.0,8.0,4.0,1.0,1.0,1.0,438.245414999983,2.0,1.0,phase_1,,,,,,,,,,,,,gray,cross
0.0,5.0,0.0,1.0,2.0,2.0,491.0275779998301,2.0,1.0,phase_1,,,,,,,,,,,,,blue,I
408.0,8.0,4.0,1.0,1.0,1.0,560.1783410002099,2.0,1.0,phase_1,,,,,,,,,,,,,gray,cross
395.0,8.0,4.0,1.0,4.0,4.0,500.89825500026564,2.0,1.0,phase_1,,,,,,,,,,,,,gray,cross
115.0,2.0,2.0,0.0,1.0,1.0,434.238108000045,2.0,1.0,phase_1,,,,,,,,,,,,,green,circle
199.0,7.0,3.0,1.0,2.0,2.0,310.8215819997895,2.0,1.0,phase_1,,,,,,,,,,,,,orange,triangle
386.0,8.0,4.0,1.0,4.0,4.0,329.1559670001334,2.0,1.0,phase_1,,,,,,,,,,,,,gray,cross
110.0,6.0,2.0,1.0,1.0,1.0,306.4530370002103,2.0,1.0,phase_1,,,,,,,,,,,,,cyan,flipped triangle
207.0,3.0,3.0,0.0,1.0,1.0,477.6743749998786,2.0,1.0,phase_1,,,,,,,,,,,,,yellow,square
50.0,5.0,1.0,1.0,4.0,4.0,427.7817100000902,2.0,1.0,phase_1,,,,,,,,,,,,,blue,I
212.0,7.0,3.0,1.0,4.0,4.0,420.091204000073,2.0,1.0,phase_1,,,,,,,,,,,,,orange,triangle
191.0,7.0,3.0,1.0,2.0,2.0,415.4529209999964,2.0,1.0,phase_1,,,,,,,,,,,,,orange,triangle
106.0,6.0,2.0,1.0,3.0,3.0,331.6447860001972,2.0,1.0,phase_1,,,,,,,,,,,,,cyan,flipped triangle
90.0,2.0,2.0,0.0,3.0,3.0,486.1910210001952,3.0,1.0,phase_1,,,,,,,,,,,,,green,circle
187.0,7.0,3.0,1.0,2.0,2.0,296.5554600000359,3.0,1.0,phase_1,,,,,,,,,,,,,orange,triangle
407.0,4.0,4.0,0.0,2.0,2.0,264.4631469997875,3.0,1.0,phase_1,,,,,,,,,,,,,magenta,diamond
0.0,7.0,0.0,1.0,3.0,3.0,311.8321060001108,3.0,1.0,phase_1,,,,,,,,,,,,,orange,triangle
399.0,4.0,4.0,0.0,2.0,2.0,279.9214929996196,3.0,1.0,phase_1,,,,,,,,,,,,,magenta,diamond
37.0,1.0,1.0,0.0,2.0,2.0,271.99809800004,3.0,1.0,phase_1,,,,,,,,,,,,,white,hexagon
191.0,7.0,3.0,1.0,3.0,3.0,372.5636919998578,3.0,1.0,phase_1,,,,,,,,,,,,,orange,triangle
45.0,1.0,1.0,0.0,2.0,2.0,256.9186480000098,3.0,1.0,phase_1,,,,,,,,,,,,,white,hexagon
0.0,6.0,0.0,1.0,4.0,4.0,309.9511279997387,3.0,1.0,phase_1,,,,,,,,,,,,,cyan,flipped triangle
70.0,1.0,1.0,0.0,4.0,4.0,311.7087939999692,3.0,1.0,phase_1,,,,,,,,,,,,,white,hexagon
179.0,7.0,3.0,1.0,3.0,3.0,377.010299000176,3.0,1.0,phase_1,,,,,,,,,,,,,orange,triangle
52.0,1.0,1.0,0.0,4.0,4.0,352.4604509998426,3.0,2.0,phase_1,,,,,,,,,,,,,white,hexagon
123.0,6.0,2.0,1.0,3.0,3.0,641.6070989998843,3.0,1.0,phase_1,,,,,,,,,,,,,cyan,flipped triangle
0.0,5.0,0.0,1.0,3.0,3.0,447.1062620000339,3.0,1.0,phase_1,,,,,,,,,,,,,blue,I
0.0,8.0,0.0,1.0,1.0,1.0,382.4624359999689,3.0,1.0,phase_1,,,,,,,,,,,,,gray,cross
200.0,7.0,3.0,1.0,4.0,4.0,439.4164559998899,3.0,1.0,phase_1,,,,,,,,,,,,,orange,triangle
388.0,8.0,4.0,1.0,4.0,4.0,345.0828420000107,3.0,1.0,phase_1,,,,,,,,,,,,,gray,cross
184.0,7.0,3.0,1.0,1.0,1.0,388.8054670001111,3.0,1.0,phase_1,,,,,,,,,,,,,orange,triangle
187.0,3.0,3.0,0.0,3.0,3.0,282.5073940002767,3.0,1.0,phase_1,,,,,,,,,,,,,yellow,square
91.0,6.0,2.0,1.0,4.0,4.0,378.5900970001421,3.0,1.0,phase_1,,,,,,,,,,,,,cyan,flipped triangle
181.0,3.0,3.0,0.0,1.0,1.0,279.2409710000356,3.0,1.0,phase_1,,,,,,,,,,,,,yellow,square
0.0,8.0,0.0,1.0,2.0,2.0,366.6686669998853,3.0,2.0,phase_1,,,,,,,,,,,,,gray,cross
28.0,5.0,1.0,1.0,1.0,1.0,515.2914770001189,3.0,1.0,phase_1,,,,,,,,,,,,,blue,I
424.0,8.0,4.0,1.0,4.0,4.0,536.9418999998743,3.0,1.0,phase_1,,,,,,,,,,,,,gray,cross
378.0,4.0,4.0,0.0,3.0,3.0,389.1301349999594,3.0,1.0,phase_1,,,,,,,,,,,,,magenta,diamond
416.0,4.0,4.0,0.0,4.0,4.0,805.435498999941,3.0,1.0,phase_1,,,,,,,,,,,,,magenta,diamond
203.0,7.0,3.0,1.0,4.0,4.0,469.0715270003238,3.0,1.0,phase_1,,,,,,,,,,,,,orange,triangle
387.0,8.0,4.0,1.0,2.0,2.0,423.7111079996793,3.0,1.0,phase_1,,,,,,,,,,,,,gray,cross
41.0,1.0,1.0,0.0,2.0,2.0,297.1989139996367,3.0,1.0,phase_1,,,,,,,,,,,,,white,hexagon
383.0,4.0,4.0,0.0,4.0,4.0,387.8080889999182,3.0,1.0,phase_1,,,,,,,,,,,,,magenta,diamond
394.0,4.0,4.0,0.0,2.0,2.0,368.7085520000437,3.0,1.0,phase_1,,,,,,,,,,,,,magenta,diamond
123.0,2.0,2.0,0.0,2.0,2.0,348.5822510001526,3.0,1.0,phase_1,,,,,,,,,,,,,green,circle
186.0,7.0,3.0,1.0,4.0,4.0,377.6071150000462,3.0,1.0,phase_1,,,,,,,,,,,,,orange,triangle
66.0,5.0,1.0,1.0,2.0,2.0,696.6361659997347,3.0,1.0,phase_1,,,,,,,,,,,,,blue,I
188.0,3.0,3.0,0.0,4.0,4.0,603.0080820000876,3.0,2.0,phase_1,,,,,,,,,,,,,yellow,square
113.0,6.0,2.0,1.0,1.0,1.0,559.4819230000212,3.0,1.0,phase_1,,,,,,,,,,,,,cyan,flipped triangle
33.0,5.0,1.0,1.0,1.0,1.0,430.8947870003976,3.0,1.0,phase_1,,,,,,,,,,,,,blue,I
419.0,8.0,4.0,1.0,1.0,1.0,493.4538640000028,3.0,1.0,phase_1,,,,,,,,,,,,,gray,cross
0.0,7.0,0.0,1.0,3.0,3.0,377.0443319999685,3.0,1.0,phase_1,,,,,,,,,,,,,orange,triangle
0.0,3.0,0.0,0.0,2.0,2.0,315.3024719999848,3.0,1.0,phase_1,,,,,,,,,,,,,yellow,square
399.0,8.0,4.0,1.0,3.0,3.0,431.908927999757,3.0,1.0,phase_1,,,,,,,,,,,,,gray,cross
222.0,7.0,3.0,1.0,1.0,1.0,431.6629239997382,3.0,1.0,phase_1,,,,,,,,,,,,,orange,triangle
94.0,2.0,2.0,0.0,3.0,3.0,583.9460550000695,3.0,1.0,phase_1,,,,,,,,,,,,,green,circle
418.0,8.0,4.0,1.0,2.0,2.0,633.2636150000326,3.0,1.0,phase_1,,,,,,,,,,,,,gray,cross
91.0,6.0,2.0,1.0,4.0,4.0,404.942170999675,3.0,1.0,phase_1,,,,,,,,,,,,,cyan,flipped triangle
48.0,1.0,1.0,0.0,2.0,2.0,450.3923289998965,3.0,1.0,phase_1,,,,,,,,,,,,,white,hexagon
201.0,3.0,3.0,0.0,3.0,3.0,407.7064180000889,3.0,1.0,phase_1,,,,,,,,,,,,,yellow,square
385.0,8.0,4.0,1.0,1.0,1.0,357.2396439999465,3.0,1.0,phase_1,,,,,,,,,,,,,gray,cross
0.0,7.0,0.0,1.0,2.0,2.0,329.3260310001642,3.0,1.0,phase_1,,,,,,,,,,,,,orange,triangle
0.0,6.0,0.0,1.0,4.0,4.0,342.0204640001429,3.0,1.0,phase_1,,,,,,,,,,,,,cyan,flipped triangle
90.0,6.0,2.0,1.0,4.0,4.0,326.8173770002249,3.0,1.0,phase_1,,,,,,,,,,,,,cyan,flipped triangle
0.0,1.0,0.0,0.0,3.0,3.0,443.6739359998682,3.0,1.0,phase_1,,,,,,,,,,,,,white,hexagon
72.0,5.0,1.0,1.0,4.0,4.0,484.1358700000455,3.0,1.0,phase_1,,,,,,,,,,,,,blue,I
0.0,2.0,0.0,0.0,1.0,1.0,483.5900390003189,3.0,1.0,phase_1,,,,,,,,,,,,,green,circle
402.0,8.0,4.0,1.0,3.0,3.0,377.7143429997522,3.0,1.0,phase_1,,,,,,,,,,,,,gray,cross
385.0,4.0,4.0,0.0,1.0,1.0,370.9677479996571,3.0,1.0,phase_1,,,,,,,,,,,,,magenta,diamond
110.0,6.0,2.0,1.0,1.0,1.0,383.3893900000475,3.0,1.0,phase_1,,,,,,,,,,,,,cyan,flipped triangle
0.0,3.0,0.0,0.0,3.0,3.0,491.9849220000287,3.0,1.0,phase_1,,,,,,,,,,,,,yellow,square
96.0,6.0,2.0,1.0,4.0,4.0,458.8725999997223,3.0,1.0,phase_1,,,,,,,,,,,,,cyan,flipped triangle
400.0,4.0,4.0,0.0,3.0,3.0,406.1562399997456,3.0,1.0,phase_1,,,,,,,,,,,,,magenta,diamond
28.0,1.0,1.0,0.0,1.0,1.0,469.9942920001376,3.0,1.0,phase_1,,,,,,,,,,,,,white,hexagon
393.0,8.0,4.0,1.0,2.0,2.0,421.5275719998317,3.0,1.0,phase_1,,,,,,,,,,,,,gray,cross
78.0,6.0,2.0,1.0,2.0,2.0,383.5628339998038,3.0,1.0,phase_1,,,,,,,,,,,,,cyan,flipped triangle
113.0,6.0,2.0,1.0,4.0,4.0,518.7817139999424,3.0,1.0,phase_1,,,,,,,,,,,,,cyan,flipped triangle
212.0,3.0,3.0,0.0,2.0,2.0,610.1311659999737,3.0,1.0,phase_1,,,,,,,,,,,,,yellow,square
196.0,3.0,3.0,0.0,1.0,1.0,419.84464000006477,3.0,1.0,phase_1,,,,,,,,,,,,,yellow,square
77.0,2.0,2.0,0.0,1.0,1.0,407.4102829999901,3.0,1.0,phase_1,,,,,,,,,,,,,green,circle
415.0,8.0,4.0,1.0,4.0,4.0,374.8117059999458,3.0,1.0,phase_1,,,,,,,,,,,,,gray,cross
74.0,5.0,1.0,1.0,3.0,3.0,370.87293000013227,3.0,1.0,phase_1,,,,,,,,,,,,,blue,I
62.0,5.0,1.0,1.0,2.0,2.0,552.2519000001012,3.0,1.0,phase_1,,,,,,,,,,,,,blue,I
423.0,8.0,4.0,1.0,1.0,1.0,359.1152330000113,3.0,1.0,phase_1,,,,,,,,,,,,,gray,cross
222.0,3.0,3.0,0.0,2.0,2.0,384.1174210001554,3.0,1.0,phase_1,,,,,,,,,,,,,yellow,square
199.0,3.0,3.0,0.0,4.0,4.0,558.8936730000569,3.0,1.0,phase_1,,,,,,,,,,,,,yellow,square
0.0,2.0,0.0,0.0,4.0,4.0,503.55153500004235,3.0,1.0,phase_1,,,,,,,,,,,,,green,circle
115.0,2.0,2.0,0.0,4.0,4.0,752.1452620003402,3.0,1.0,phase_1,,,,,,,,,,,,,green,circle
93.0,2.0,2.0,0.0,4.0,4.0,325.6801729999097,3.0,1.0,phase_1,,,,,,,,,,,,,green,circle
0.0,6.0,0.0,1.0,2.0,2.0,326.9672770002216,3.0,1.0,phase_1,,,,,,,,,,,,,cyan,flipped triangle
416.0,8.0,4.0,1.0,1.0,1.0,288.7213899998642,3.0,1.0,phase_1,,,,,,,,,,,,,gray,cross
0.0,2.0,0.0,0.0,4.0,4.0,321.8673159999525,3.0,1.0,phase_1,,,,,,,,,,,,,green,circle
46.0,1.0,1.0,0.0,3.0,3.0,276.5164000002187,3.0,2.0,phase_1,,,,,,,,,,,,,white,hexagon
0.0,7.0,0.0,1.0,1.0,1.0,358.9292090000526,3.0,1.0,phase_1,,,,,,,,,,,,,orange,triangle
208.0,3.0,3.0,0.0,4.0,4.0,305.1039390002188,3.0,1.0,phase_1,,,,,,,,,,,,,yellow,square
113.0,2.0,2.0,0.0,2.0,2.0,315.1345749997745,3.0,1.0,phase_1,,,,,,,,,,,,,green,circle
409.0,8.0,4.0,1.0,1.0,1.0,507.9066440002862,3.0,1.0,phase_1,,,,,,,,,,,,,gray,cross
28.0,1.0,1.0,0.0,4.0,4.0,341.215664000174,3.0,1.0,phase_1,,,,,,,,,,,,,white,hexagon
117.0,6.0,2.0,1.0,4.0,4.0,601.5985680000995,3.0,1.0,phase_1,,,,,,,,,,,,,cyan,flipped triangle
56.0,5.0,1.0,1.0,4.0,4.0,432.0366580000154,3.0,1.0,phase_1,,,,,,,,,,,,,blue,I
396.0,8.0,4.0,1.0,4.0,4.0,320.7120580000264,3.0,1.0,phase_1,,,,,,,,,,,,,gray,cross
408.0,4.0,4.0,0.0,2.0,2.0,436.1123159997078,3.0,1.0,phase_1,,,,,,,,,,,,,magenta,diamond
218.0,3.0,3.0,0.0,4.0,4.0,485.894806000033,3.0,1.0,phase_1,,,,,,,,,,,,,yellow,square
108.0,2.0,2.0,0.0,1.0,1.0,463.7843699997575,3.0,1.0,phase_1,,,,,,,,,,,,,green,circle
70.0,5.0,1.0,1.0,2.0,2.0,385.438441000133,3.0,1.0,phase_1,,,,,,,,,,,,,blue,I
0.0,6.0,0.0,1.0,4.0,4.0,330.533024000033,3.0,1.0,phase_1,,,,,,,,,,,,,cyan,flipped triangle
180.0,3.0,3.0,0.0,2.0,2.0,519.7972129999471,3.0,1.0,phase_1,,,,,,,,,,,,,yellow,square
96.0,6.0,2.0,1.0,1.0,1.0,440.0804709998738,3.0,1.0,phase_1,,,,,,,,,,,,,cyan,flipped triangle
0.0,3.0,0.0,0.0,2.0,2.0,554.0703309998207,3.0,1.0,phase_1,,,,,,,,,,,,,yellow,square
181.0,7.0,3.0,1.0,1.0,1.0,524.1832339997927,3.0,1.0,phase_1,,,,,,,,,,,,,orange,triangle
216.0,3.0,3.0,0.0,3.0,3.0,456.7546970001785,3.0,1.0,phase_1,,,,,,,,,,,,,yellow,square
91.0,2.0,2.0,0.0,3.0,3.0,343.7171819996365,3.0,1.0,phase_1,,,,,,,,,,,,,green,circle
423.0,4.0,4.0,0.0,2.0,2.0,361.7109339998023,3.0,1.0,phase_1,,,,,,,,,,,,,magenta,diamond
0.0,3.0,0.0,0.0,1.0,1.0,514.5291940002608,4.0,1.0,phase_1,,,,,,,,,,,,,yellow,square
388.0,4.0,4.0,0.0,2.0,2.0,316.525515000194,4.0,1.0,phase_1,,,,,,,,,,,,,magenta,diamond
0.0,5.0,0.0,1.0,4.0,4.0,324.3057149998094,4.0,1.0,phase_1,,,,,,,,,,,,,blue,I
0.0,8.0,0.0,1.0,1.0,1.0,300.8191259996238,4.0,1.0,phase_1,,,,,,,,,,,,,gray,cross
0.0,3.0,0.0,0.0,2.0,2.0,286.0602229998221,4.0,1.0,phase_1,,,,,,,,,,,,,yellow,square
0.0,2.0,0.0,0.0,2.0,2.0,315.2058949999627,4.0,1.0,phase_1,,,,,,,,,,,,,green,circle
0.0,6.0,0.0,1.0,1.0,1.0,344.3282299999737,4.0,1.0,phase_1,,,,,,,,,,,,,cyan,flipped triangle
0.0,8.0,0.0,1.0,1.0,1.0,452.4974070000098,4.0,1.0,phase_1,,,,,,,,,,,,,gray,cross
0.0,5.0,0.0,1.0,4.0,4.0,416.5910689998782,4.0,1.0,phase_1,,,,,,,,,,,,,blue,I
188.0,7.0,3.0,1.0,2.0,2.0,285.8106769999722,4.0,1.0,phase_1,,,,,,,,,,,,,orange,triangle
384.0,4.0,4.0,0.0,1.0,1.0,409.3668989999059,4.0,1.0,phase_1,,,,,,,,,,,,,magenta,diamond
191.0,3.0,3.0,0.0,1.0,1.0,365.7098720000249,4.0,1.0,phase_1,,,,,,,,,,,,,yellow,square
0.0,8.0,0.0,1.0,1.0,1.0,310.1502979998258,4.0,1.0,phase_1,,,,,,,,,,,,,gray,cross
0.0,4.0,0.0,0.0,1.0,1.0,262.8044809998755,4.0,1.0,phase_1,,,,,,,,,,,,,magenta,diamond
195.0,3.0,3.0,0.0,1.0,1.0,283.6663389998648,4.0,1.0,phase_1,,,,,,,,,,,,,yellow,square
0.0,6.0,0.0,1.0,3.0,3.0,359.6413620002749,4.0,1.0,phase_1,,,,,,,,,,,,,cyan,flipped triangle
197.0,7.0,3.0,1.0,4.0,4.0,779.1390960001081,4.0,1.0,phase_1,,,,,,,,,,,,,orange,triangle
222.0,3.0,3.0,0.0,3.0,3.0,397.612941999796,4.0,1.0,phase_1,,,,,,,,,,,,,yellow,square
39.0,5.0,1.0,1.0,1.0,1.0,371.1982179997903,4.0,1.0,phase_1,,,,,,,,,,,,,blue,I
379.0,4.0,4.0,0.0,3.0,3.0,621.7419070003416,4.0,1.0,phase_1,,,,,,,,,,,,,magenta,diamond
108.0,6.0,2.0,1.0,2.0,2.0,339.9917870001445,4.0,1.0,phase_1,,,,,,,,,,,,,cyan,flipped triangle
0.0,1.0,0.0,0.0,2.0,2.0,388.0718969999179,4.0,1.0,phase_1,,,,,,,,,,,,,white,hexagon
35.0,1.0,1.0,0.0,4.0,4.0,461.7110579997643,4.0,1.0,phase_1,,,,,,,,,,,,,white,hexagon
32.0,1.0,1.0,0.0,4.0,4.0,389.5278169998164,4.0,1.0,phase_1,,,,,,,,,,,,,white,hexagon
207.0,7.0,3.0,1.0,4.0,4.0,334.3982349997532,4.0,1.0,phase_1,,,,,,,,,,,,,orange,triangle
413.0,4.0,4.0,0.0,4.0,4.0,592.872393000107,4.0,1.0,phase_1,,,,,,,,,,,,,magenta,diamond
208.0,7.0,3.0,1.0,1.0,1.0,314.172722999956,4.0,1.0,phase_1,,,,,,,,,,,,,orange,triangle
0.0,8.0,0.0,1.0,2.0,2.0,309.8909360001016,4.0,1.0,phase_1,,,,,,,,,,,,,gray,cross
188.0,7.0,3.0,1.0,1.0,1.0,444.9687080000331,4.0,1.0,phase_1,,,,,,,,,,,,,orange,triangle
0.0,8.0,0.0,1.0,4.0,4.0,266.2001270000473,4.0,1.0,phase_1,,,,,,,,,,,,,gray,cross
213.0,3.0,3.0,0.0,2.0,2.0,320.5635439999241,4.0,1.0,phase_1,,,,,,,,,,,,,yellow,square
94.0,6.0,2.0,1.0,1.0,1.0,368.5718570000063,4.0,1.0,phase_1,,,,,,,,,,,,,cyan,flipped triangle
408.0,4.0,4.0,0.0,1.0,1.0,346.6755760000524,4.0,1.0,phase_1,,,,,,,,,,,,,magenta,diamond
424.0,4.0,4.0,0.0,3.0,3.0,417.9020649999074,4.0,1.0,phase_1,,,,,,,,,,,,,magenta,diamond
56.0,5.0,1.0,1.0,1.0,1.0,343.8487950002127,4.0,1.0,phase_1,,,,,,,,,,,,,blue,I
419.0,4.0,4.0,0.0,4.0,4.0,336.4845709998008,4.0,1.0,phase_1,,,,,,,,,,,,,magenta,diamond
0.0,2.0,0.0,0.0,1.0,1.0,360.1316389999738,4.0,1.0,phase_1,,,,,,,,,,,,,green,circle
98.0,2.0,2.0,0.0,3.0,3.0,428.7106629999471,4.0,1.0,phase_1,,,,,,,,,,,,,green,circle
115.0,6.0,2.0,1.0,2.0,2.0,381.5342750003765,4.0,1.0,phase_1,,,,,,,,,,,,,cyan,flipped triangle
43.0,1.0,1.0,0.0,3.0,3.0,437.9487989999688,4.0,1.0,phase_1,,,,,,,,,,,,,white,hexagon
61.0,5.0,1.0,1.0,2.0,2.0,366.846477999843,4.0,1.0,phase_1,,,,,,,,,,,,,blue,I
106.0,6.0,2.0,1.0,3.0,3.0,402.2399999998924,4.0,1.0,phase_1,,,,,,,,,,,,,cyan,flipped triangle
61.0,1.0,1.0,0.0,1.0,1.0,294.9266700002226,4.0,1.0,phase_1,,,,,,,,,,,,,white,hexagon
55.0,5.0,1.0,1.0,3.0,3.0,629.419031999987,4.0,1.0,phase_1,,,,,,,,,,,,,blue,I
68.0,5.0,1.0,1.0,3.0,3.0,368.9124269999411,4.0,1.0,phase_1,,,,,,,,,,,,,blue,I
207.0,7.0,3.0,1.0,2.0,2.0,311.997808000342,4.0,1.0,phase_1,,,,,,,,,,,,,orange,triangle
404.0,4.0,4.0,0.0,2.0,2.0,298.6949400001322,4.0,1.0,phase_1,,,,,,,,,,,,,magenta,diamond
0.0,5.0,0.0,1.0,4.0,4.0,437.5487739998789,4.0,1.0,phase_1,,,,,,,,,,,,,blue,I
216.0,7.0,3.0,1.0,2.0,2.0,351.4569389999451,4.0,1.0,phase_1,,,,,,,,,,,,,orange,triangle
198.0,7.0,3.0,1.0,1.0,1.0,247.7769359998092,4.0,1.0,phase_1,,,,,,,,,,,,,orange,triangle
84.0,2.0,2.0,0.0,3.0,3.0,335.3002170001673,4.0,1.0,phase_1,,,,,,,,,,,,,green,circle
49.0,1.0,1.0,0.0,3.0,3.0,372.0523880001565,4.0,1.0,phase_1,,,,,,,,,,,,,white,hexagon
52.0,5.0,1.0,1.0,3.0,3.0,373.5751789999995,4.0,1.0,phase_1,,,,,,,,,,,,,blue,I
61.0,1.0,1.0,0.0,1.0,1.0,327.0006619995911,4.0,1.0,phase_1,,,,,,,,,,,,,white,hexagon
402.0,4.0,4.0,0.0,3.0,3.0,398.3602470002552,4.0,1.0,phase_1,,,,,,,,,,,,,magenta,diamond
0.0,2.0,0.0,0.0,1.0,1.0,297.8709919998437,4.0,1.0,phase_1,,,,,,,,,,,,,green,circle
197.0,3.0,3.0,0.0,4.0,4.0,332.2199859999273,4.0,2.0,phase_1,,,,,,,,,,,,,yellow,square
406.0,4.0,4.0,0.0,3.0,3.0,469.3011399999705,4.0,1.0,phase_1,,,,,,,,,,,,,magenta,diamond
415.0,4.0,4.0,0.0,1.0,1.0,382.2981999996955,4.0,1.0,phase_1,,,,,,,,,,,,,magenta,diamond
213.0,3.0,3.0,0.0,2.0,2.0,305.5820340000537,4.0,1.0,phase_1,,,,,,,,,,,,,yellow,square
117.0,2.0,2.0,0.0,3.0,3.0,506.0539860000972,4.0,1.0,phase_1,,,,,,,,,,,,,green,circle
418.0,4.0,4.0,0.0,4.0,4.0,324.699738000163,4.0,1.0,phase_1,,,,,,,,,,,,,magenta,diamond
108.0,6.0,2.0,1.0,2.0,2.0,382.3274950000268,4.0,1.0,phase_1,,,,,,,,,,,,,cyan,flipped triangle
54.0,5.0,1.0,1.0,2.0,2.0,496.0459750000154,4.0,1.0,phase_1,,,,,,,,,,,,,blue,I
395.0,4.0,4.0,0.0,1.0,1.0,347.2830750001776,4.0,1.0,phase_1,,,,,,,,,,,,,magenta,diamond
398.0,8.0,4.0,1.0,2.0,2.0,426.9677769998452,4.0,1.0,phase_1,,,,,,,,,,,,,gray,cross
388.0,8.0,4.0,1.0,2.0,2.0,312.9905679998046,4.0,1.0,phase_1,,,,,,,,,,,,,gray,cross
31.0,5.0,1.0,1.0,4.0,4.0,462.0634389998486,4.0,1.0,phase_1,,,,,,,,,,,,,blue,I
57.0,1.0,1.0,0.0,2.0,2.0,330.3041789999952,4.0,1.0,phase_1,,,,,,,,,,,,,white,hexagon
61.0,5.0,1.0,1.0,3.0,3.0,481.4110410002286,4.0,1.0,phase_1,,,,,,,,,,,,,blue,I
115.0,6.0,2.0,1.0,2.0,2.0,386.3510000001042,4.0,1.0,phase_1,,,,,,,,,,,,,cyan,flipped triangle
0.0,2.0,0.0,0.0,2.0,2.0,454.9223469998651,4.0,1.0,phase_1,,,,,,,,,,,,,green,circle
0.0,3.0,0.0,0.0,3.0,3.0,353.0225159997826,4.0,1.0,phase_1,,,,,,,,,,,,,yellow,square
62.0,1.0,1.0,0.0,3.0,3.0,330.3849670001,4.0,1.0,phase_1,,,,,,,,,,,,,white,hexagon
85.0,2.0,2.0,0.0,1.0,1.0,378.0194610003491,4.0,1.0,phase_1,,,,,,,,,,,,,green,circle
392.0,4.0,4.0,0.0,3.0,3.0,439.6861220002392,4.0,1.0,phase_1,,,,,,,,,,,,,magenta,diamond
384.0,8.0,4.0,1.0,3.0,3.0,537.7592559998448,4.0,1.0,phase_1,,,,,,,,,,,,,gray,cross
392.0,8.0,4.0,1.0,3.0,3.0,332.4010860001181,4.0,1.0,phase_1,,,,,,,,,,,,,gray,cross
68.0,1.0,1.0,0.0,1.0,1.0,310.6189489999451,4.0,1.0,phase_1,,,,,,,,,,,,,white,hexagon
191.0,3.0,3.0,0.0,3.0,3.0,369.7953660002895,4.0,1.0,phase_1,,,,,,,,,,,,,yellow,square
65.0,1.0,1.0,0.0,4.0,4.0,526.3933869996436,4.0,1.0,phase_1,,,,,,,,,,,,,white,hexagon
113.0,6.0,2.0,1.0,4.0,4.0,411.9113149999975,4.0,1.0,phase_1,,,,,,,,,,,,,cyan,flipped triangle
41.0,5.0,1.0,1.0,2.0,2.0,311.8298340000365,4.0,1.0,phase_1,,,,,,,,,,,,,blue,I
91.0,2.0,2.0,0.0,1.0,1.0,366.4040449998538,4.0,1.0,phase_1,,,,,,,,,,,,,green,circle
218.0,7.0,3.0,1.0,3.0,3.0,517.3917850001999,4.0,1.0,phase_1,,,,,,,,,,,,,orange,triangle
179.0,7.0,3.0,1.0,1.0,1.0,445.5864579999797,4.0,1.0,phase_1,,,,,,,,,,,,,orange,triangle
0.0,8.0,0.0,1.0,1.0,1.0,400.9301589999268,4.0,1.0,phase_1,,,,,,,,,,,,,gray,cross
0.0,4.0,0.0,0.0,3.0,3.0,438.65149200019,4.0,1.0,phase_1,,,,,,,,,,,,,magenta,diamond
124.0,6.0,2.0,1.0,4.0,4.0,396.0463170001276,4.0,1.0,phase_1,,,,,,,,,,,,,cyan,flipped triangle
55.0,1.0,1.0,0.0,1.0,1.0,263.9171569999234,4.0,1.0,phase_1,,,,,,,,,,,,,white,hexagon
29.0,5.0,1.0,1.0,2.0,2.0,323.1164009998792,4.0,1.0,phase_1,,,,,,,,,,,,,blue,I
42.0,1.0,1.0,0.0,2.0,2.0,369.3530830000782,4.0,1.0,phase_1,,,,,,,,,,,,,white,hexagon
222.0,3.0,3.0,0.0,4.0,4.0,415.8835409998573,4.0,1.0,phase_1,,,,,,,,,,,,,yellow,square
77.0,6.0,2.0,1.0,3.0,3.0,313.563318999968,4.0,1.0,phase_1,,,,,,,,,,,,,cyan,flipped triangle
98.0,6.0,2.0,1.0,3.0,3.0,446.6110229996047,4.0,1.0,phase_1,,,,,,,,,,,,,cyan,flipped triangle
39.0,1.0,1.0,0.0,3.0,3.0,349.1876240000238,4.0,1.0,phase_1,,,,,,,,,,,,,white,hexagon
218.0,3.0,3.0,0.0,2.0,2.0,283.1629849997625,4.0,1.0,phase_1,,,,,,,,,,,,,yellow,square
418.0,8.0,4.0,1.0,4.0,4.0,388.5416369998893,4.0,1.0,phase_1,,,,,,,,,,,,,gray,cross
0.0,6.0,0.0,1.0,2.0,2.0,454.9985200001174,4.0,1.0,phase_1,,,,,,,,,,,,,cyan,flipped triangle
218.0,7.0,3.0,1.0,2.0,2.0,313.8634740002999,4.0,1.0,phase_1,,,,,,,,,,,,,orange,triangle
0.0,8.0,4.0,1.0,6.0,6.0,372.4427660004039,1.0,1.0,phase_2,go,250.0,250.0,1.0,,,,,,,,,gray,cross
0.0,5.0,1.0,1.0,5.0,0.0,0.0,1.0,1.0,phase_2,stop,250.0,250.0,4.0,,,,,,,,,blue,I
0.0,6.0,2.0,1.0,6.0,6.0,340.6440369999473,1.0,1.0,phase_2,stop,300.0,250.0,3.0,,,,,,,,,cyan,flipped triangle
0.0,8.0,4.0,1.0,5.0,0.0,0.0,1.0,1.0,phase_2,stop,300.0,200.0,4.0,,,,,,,,,gray,cross
0.0,2.0,2.0,0.0,5.0,5.0,464.0896909995717,1.0,1.0,phase_2,go,350.0,200.0,1.0,,,,,,,,,green,circle
0.0,1.0,1.0,0.0,6.0,6.0,717.4926180000512,1.0,1.0,phase_2,go,350.0,200.0,1.0,,,,,,,,,white,hexagon
0.0,5.0,1.0,1.0,5.0,0.0,0.0,1.0,1.0,phase_2,stop,350.0,200.0,4.0,,,,,,,,,blue,I
0.0,8.0,4.0,1.0,6.0,6.0,383.0685789998824,1.0,1.0,phase_2,stop,400.0,200.0,3.0,,,,,,,,,gray,cross
0.0,3.0,3.0,0.0,6.0,6.0,736.2040000002708,1.0,1.0,phase_2,go,400.0,150.0,1.0,,,,,,,,,yellow,square
0.0,8.0,4.0,1.0,6.0,0.0,0.0,1.0,1.0,phase_2,stop,400.0,150.0,4.0,,,,,,,,,gray,cross
0.0,1.0,1.0,0.0,6.0,6.0,833.8767950003785,1.0,1.0,phase_2,go,400.0,200.0,1.0,,,,,,,,,white,hexagon
0.0,7.0,3.0,1.0,5.0,0.0,0.0,1.0,1.0,phase_2,stop,400.0,200.0,4.0,,,,,,,,,orange,triangle
0.0,1.0,1.0,0.0,5.0,5.0,801.7475110000305,1.0,1.0,phase_2,go,450.0,200.0,1.0,,,,,,,,,white,hexagon
0.0,2.0,2.0,0.0,6.0,6.0,913.6401700002352,1.0,1.0,phase_2,go,450.0,200.0,1.0,,,,,,,,,green,circle
0.0,1.0,1.0,0.0,5.0,5.0,557.5459920000867,1.0,1.0,phase_2,go,450.0,200.0,1.0,,,,,,,,,white,hexagon
0.0,8.0,4.0,1.0,6.0,0.0,0.0,1.0,1.0,phase_2,stop,450.0,200.0,4.0,,,,,,,,,gray,cross
0.0,7.0,3.0,1.0,5.0,0.0,0.0,1.0,1.0,phase_2,stop,450.0,250.0,4.0,,,,,,,,,orange,triangle
0.0,2.0,2.0,0.0,5.0,5.0,537.0156489998408,1.0,1.0,phase_2,go,500.0,250.0,1.0,,,,,,,,,green,circle
0.0,5.0,1.0,1.0,6.0,0.0,0.0,1.0,1.0,phase_2,stop,500.0,250.0,4.0,,,,,,,,,blue,I
0.0,5.0,1.0,1.0,6.0,0.0,0.0,1.0,1.0,phase_2,stop,500.0,300.0,4.0,,,,,,,,,blue,I
0.0,8.0,4.0,1.0,5.0,0.0,0.0,1.0,1.0,phase_2,stop,500.0,350.0,4.0,,,,,,,,,gray,cross
0.0,1.0,1.0,0.0,5.0,5.0,433.6037650000435,1.0,1.0,phase_2,go,550.0,350.0,1.0,,,,,,,,,white,hexagon
0.0,6.0,2.0,1.0,6.0,0.0,0.0,1.0,1.0,phase_2,stop,550.0,350.0,4.0,,,,,,,,,cyan,flipped triangle
0.0,7.0,3.0,1.0,5.0,5.0,616.1797269996896,1.0,1.0,phase_2,go,550.0,400.0,1.0,,,,,,,,,orange,triangle
0.0,4.0,4.0,0.0,5.0,5.0,869.2035620001661,1.0,1.0,phase_2,go,550.0,400.0,1.0,,,,,,,,,magenta,diamond
0.0,7.0,3.0,1.0,6.0,0.0,0.0,1.0,1.0,phase_2,stop,550.0,400.0,4.0,,,,,,,,,orange,triangle
0.0,7.0,3.0,1.0,5.0,5.0,702.490355000009,1.0,1.0,phase_2,go,550.0,450.0,1.0,,,,,,,,,orange,triangle
0.0,1.0,1.0,0.0,6.0,6.0,583.2870829999592,1.0,1.0,phase_2,go,550.0,450.0,1.0,,,,,,,,,white,hexagon
0.0,5.0,1.0,1.0,6.0,0.0,0.0,1.0,1.0,phase_2,stop,550.0,450.0,4.0,,,,,,,,,blue,I
0.0,5.0,1.0,1.0,5.0,5.0,874.3027460000121,1.0,1.0,phase_2,go,550.0,500.0,1.0,,,,,,,,,blue,I
0.0,4.0,4.0,0.0,5.0,5.0,665.6859330000771,1.0,1.0,phase_2,go,550.0,500.0,1.0,,,,,,,,,magenta,diamond
0.0,6.0,2.0,1.0,5.0,5.0,585.3336019999915,1.0,1.0,phase_2,stop,550.0,500.0,3.0,,,,,,,,,cyan,flipped triangle
0.0,2.0,2.0,0.0,6.0,6.0,796.990328999982,1.0,1.0,phase_2,go,500.0,500.0,1.0,,,,,,,,,green,circle
0.0,2.0,2.0,0.0,5.0,5.0,424.992962000033,1.0,1.0,phase_2,go,500.0,500.0,1.0,,,,,,,,,green,circle
0.0,4.0,4.0,0.0,5.0,5.0,565.2986989998681,1.0,1.0,phase_2,go,500.0,500.0,1.0,,,,,,,,,magenta,diamond
0.0,6.0,2.0,1.0,5.0,0.0,0.0,1.0,1.0,phase_2,stop,500.0,500.0,4.0,,,,,,,,,cyan,flipped triangle
0.0,4.0,4.0,0.0,6.0,6.0,505.409150000105,2.0,1.0,phase_2,go,550.0,500.0,1.0,,,,,,,,,magenta,diamond
0.0,1.0,1.0,0.0,6.0,6.0,469.5588919998954,2.0,1.0,phase_2,go,550.0,500.0,1.0,,,,,,,,,white,hexagon
0.0,1.0,1.0,0.0,6.0,6.0,286.34726799964477,2.0,1.0,phase_2,go,550.0,500.0,1.0,,,,,,,,,white,hexagon
0.0,5.0,1.0,1.0,5.0,5.0,462.5398509997467,2.0,1.0,phase_2,go,550.0,500.0,1.0,,,,,,,,,blue,I
0.0,8.0,4.0,1.0,6.0,6.0,581.7909419997704,2.0,1.0,phase_2,stop,550.0,500.0,3.0,,,,,,,,,gray,cross
0.0,3.0,3.0,0.0,6.0,6.0,579.0183379999689,2.0,1.0,phase_2,go,550.0,450.0,1.0,,,,,,,,,yellow,square
0.0,4.0,4.0,0.0,6.0,6.0,779.4622020001043,2.0,1.0,phase_2,go,550.0,450.0,1.0,,,,,,,,,magenta,diamond
0.0,6.0,2.0,1.0,5.0,5.0,271.9983179999872,2.0,1.0,phase_2,stop,550.0,450.0,3.0,,,,,,,,,cyan,flipped triangle
0.0,7.0,3.0,1.0,5.0,5.0,499.063899000248,2.0,1.0,phase_2,stop,500.0,450.0,3.0,,,,,,,,,orange,triangle
0.0,8.0,4.0,1.0,5.0,5.0,403.6308400000052,2.0,1.0,phase_2,go,450.0,450.0,1.0,,,,,,,,,gray,cross
0.0,4.0,4.0,0.0,6.0,6.0,701.0350250002375,2.0,1.0,phase_2,go,450.0,450.0,1.0,,,,,,,,,magenta,diamond
0.0,7.0,3.0,1.0,6.0,0.0,0.0,2.0,1.0,phase_2,stop,450.0,450.0,4.0,,,,,,,,,orange,triangle
0.0,3.0,3.0,0.0,5.0,5.0,485.4953530002603,2.0,1.0,phase_2,go,450.0,500.0,1.0,,,,,,,,,yellow,square
0.0,3.0,3.0,0.0,5.0,5.0,567.5420479997229,2.0,1.0,phase_2,go,450.0,500.0,1.0,,,,,,,,,yellow,square
0.0,2.0,2.0,0.0,6.0,6.0,454.3871050000234,2.0,1.0,phase_2,go,450.0,500.0,1.0,,,,,,,,,green,circle
0.0,3.0,3.0,0.0,6.0,6.0,366.886809999869,2.0,1.0,phase_2,go,450.0,500.0,1.0,,,,,,,,,yellow,square
0.0,5.0,1.0,1.0,6.0,6.0,501.57466700011355,2.0,1.0,phase_2,go,450.0,500.0,1.0,,,,,,,,,blue,I
0.0,6.0,2.0,1.0,6.0,6.0,396.1059739999655,2.0,1.0,phase_2,stop,450.0,500.0,3.0,,,,,,,,,cyan,flipped triangle
0.0,1.0,1.0,0.0,6.0,6.0,512.6545029997942,2.0,1.0,phase_2,go,450.0,450.0,1.0,,,,,,,,,white,hexagon
0.0,7.0,3.0,1.0,5.0,5.0,436.7091149997577,2.0,1.0,phase_2,stop,450.0,450.0,3.0,,,,,,,,,orange,triangle
0.0,4.0,4.0,0.0,6.0,6.0,839.1516880001291,2.0,1.0,phase_2,go,400.0,450.0,1.0,,,,,,,,,magenta,diamond
0.0,3.0,3.0,0.0,6.0,6.0,645.1577950001592,2.0,1.0,phase_2,go,400.0,450.0,1.0,,,,,,,,,yellow,square
0.0,4.0,4.0,0.0,6.0,6.0,679.0726799999902,2.0,1.0,phase_2,go,400.0,450.0,1.0,,,,,,,,,magenta,diamond
0.0,4.0,4.0,0.0,6.0,6.0,505.39777599988156,2.0,1.0,phase_2,go,400.0,450.0,1.0,,,,,,,,,magenta,diamond
0.0,1.0,1.0,0.0,6.0,6.0,676.4689080000608,2.0,1.0,phase_2,go,400.0,450.0,1.0,,,,,,,,,white,hexagon
0.0,8.0,4.0,1.0,6.0,0.0,0.0,2.0,1.0,phase_2,stop,400.0,450.0,4.0,,,,,,,,,gray,cross
0.0,6.0,2.0,1.0,5.0,5.0,461.1613140000372,2.0,1.0,phase_2,stop,400.0,500.0,3.0,,,,,,,,,cyan,flipped triangle
0.0,2.0,2.0,0.0,5.0,5.0,460.3656240001328,2.0,1.0,phase_2,go,350.0,500.0,1.0,,,,,,,,,green,circle
0.0,3.0,3.0,0.0,5.0,5.0,674.8661020001236,2.0,1.0,phase_2,go,350.0,500.0,1.0,,,,,,,,,yellow,square
0.0,8.0,4.0,1.0,6.0,6.0,535.0652160000209,2.0,1.0,phase_2,stop,350.0,500.0,3.0,,,,,,,,,gray,cross
0.0,7.0,3.0,1.0,6.0,6.0,635.6472370002848,2.0,1.0,phase_2,go,350.0,450.0,1.0,,,,,,,,,orange,triangle
0.0,6.0,2.0,1.0,6.0,0.0,0.0,2.0,1.0,phase_2,stop,350.0,450.0,4.0,,,,,,,,,cyan,flipped triangle
0.0,1.0,1.0,0.0,6.0,6.0,879.1587480000089,2.0,1.0,phase_2,go,350.0,500.0,1.0,,,,,,,,,white,hexagon
0.0,2.0,2.0,0.0,6.0,6.0,772.1695189998172,2.0,1.0,phase_2,go,350.0,500.0,1.0,,,,,,,,,green,circle
0.0,3.0,3.0,0.0,5.0,5.0,503.74058699981106,2.0,1.0,phase_2,go,350.0,500.0,1.0,,,,,,,,,yellow,square
0.0,3.0,3.0,0.0,5.0,5.0,807.6196249999157,2.0,1.0,phase_2,go,350.0,500.0,1.0,,,,,,,,,yellow,square
0.0,1.0,1.0,0.0,5.0,5.0,1208.535810000285,3.0,1.0,phase_2,go,350.0,500.0,1.0,,,,,,,,,white,hexagon
0.0,5.0,1.0,1.0,5.0,5.0,383.7757600003897,3.0,1.0,phase_2,stop,350.0,500.0,3.0,,,,,,,,,blue,I
0.0,2.0,2.0,0.0,6.0,6.0,545.3711210002439,3.0,1.0,phase_2,go,300.0,500.0,1.0,,,,,,,,,green,circle
0.0,7.0,3.0,1.0,6.0,6.0,439.5958920003977,3.0,1.0,phase_2,stop,300.0,500.0,3.0,,,,,,,,,orange,triangle
0.0,3.0,3.0,0.0,6.0,6.0,726.587827000003,3.0,1.0,phase_2,go,300.0,450.0,1.0,,,,,,,,,yellow,square
0.0,6.0,2.0,1.0,6.0,0.0,0.0,3.0,1.0,phase_2,stop,300.0,450.0,4.0,,,,,,,,,cyan,flipped triangle
0.0,6.0,2.0,1.0,5.0,5.0,833.6793469998156,3.0,1.0,phase_2,go,300.0,500.0,1.0,,,,,,,,,cyan,flipped triangle
0.0,4.0,4.0,0.0,6.0,6.0,712.2499049992257,3.0,1.0,phase_2,go,300.0,500.0,1.0,,,,,,,,,magenta,diamond
0.0,3.0,3.0,0.0,5.0,5.0,394.9235539994333,3.0,1.0,phase_2,go,300.0,500.0,1.0,,,,,,,,,yellow,square
0.0,5.0,1.0,1.0,5.0,5.0,425.5117749999044,3.0,1.0,phase_2,stop,300.0,500.0,3.0,,,,,,,,,blue,I
0.0,6.0,2.0,1.0,6.0,0.0,0.0,3.0,1.0,phase_2,stop,250.0,500.0,4.0,,,,,,,,,cyan,flipped triangle
0.0,8.0,4.0,1.0,5.0,0.0,0.0,3.0,1.0,phase_2,stop,250.0,550.0,4.0,,,,,,,,,gray,cross
0.0,4.0,4.0,0.0,5.0,5.0,439.236252000228,3.0,1.0,phase_2,go,300.0,550.0,1.0,,,,,,,,,magenta,diamond
0.0,1.0,1.0,0.0,6.0,6.0,520.2249169997231,3.0,1.0,phase_2,go,300.0,550.0,1.0,,,,,,,,,white,hexagon
0.0,6.0,2.0,1.0,6.0,6.0,600.991520000207,3.0,1.0,phase_2,stop,300.0,550.0,3.0,,,,,,,,,cyan,flipped triangle
0.0,1.0,1.0,0.0,5.0,5.0,979.6850200000335,3.0,1.0,phase_2,go,300.0,500.0,1.0,,,,,,,,,white,hexagon
0.0,2.0,2.0,0.0,5.0,5.0,591.8867160007721,3.0,1.0,phase_2,go,300.0,500.0,1.0,,,,,,,,,green,circle
0.0,6.0,2.0,1.0,5.0,0.0,0.0,3.0,1.0,phase_2,stop,300.0,500.0,4.0,,,,,,,,,cyan,flipped triangle
0.0,2.0,2.0,0.0,5.0,5.0,611.2899749996359,3.0,1.0,phase_2,go,350.0,500.0,1.0,,,,,,,,,green,circle
0.0,6.0,2.0,1.0,5.0,0.0,0.0,3.0,1.0,phase_2,stop,350.0,500.0,4.0,,,,,,,,,cyan,flipped triangle
0.0,5.0,1.0,1.0,5.0,0.0,0.0,3.0,1.0,phase_2,stop,400.0,500.0,4.0,,,,,,,,,blue,I
0.0,4.0,4.0,0.0,6.0,6.0,454.6522069995262,3.0,1.0,phase_2,go,450.0,500.0,1.0,,,,,,,,,magenta,diamond
0.0,4.0,4.0,0.0,5.0,5.0,897.4515410000095,3.0,1.0,phase_2,go,450.0,500.0,1.0,,,,,,,,,magenta,diamond
0.0,7.0,3.0,1.0,6.0,0.0,0.0,3.0,1.0,phase_2,stop,450.0,500.0,4.0,,,,,,,,,orange,triangle
0.0,6.0,2.0,1.0,6.0,6.0,750.8920089994717,3.0,1.0,phase_2,go,450.0,550.0,1.0,,,,,,,,,cyan,flipped triangle
0.0,6.0,2.0,1.0,6.0,6.0,618.4905690006417,3.0,1.0,phase_2,go,450.0,550.0,1.0,,,,,,,,,cyan,flipped triangle
0.0,2.0,2.0,0.0,6.0,6.0,578.4664279999561,3.0,1.0,phase_2,go,450.0,550.0,1.0,,,,,,,,,green,circle
0.0,3.0,3.0,0.0,6.0,6.0,588.5750279994681,3.0,1.0,phase_2,go,450.0,550.0,1.0,,,,,,,,,yellow,square
0.0,6.0,2.0,1.0,5.0,5.0,605.6957250002597,3.0,1.0,phase_2,stop,450.0,550.0,3.0,,,,,,,,,cyan,flipped triangle
0.0,3.0,3.0,0.0,5.0,5.0,604.1140809993522,3.0,1.0,phase_2,go,400.0,550.0,1.0,,,,,,,,,yellow,square
0.0,4.0,4.0,0.0,6.0,6.0,929.5545190007032,3.0,1.0,phase_2,go,400.0,550.0,1.0,,,,,,,,,magenta,diamond
0.0,4.0,4.0,0.0,6.0,6.0,576.7783729997973,3.0,1.0,phase_2,go,400.0,550.0,1.0,,,,,,,,,magenta,diamond
0.0,7.0,3.0,1.0,5.0,5.0,485.5994760000612,3.0,1.0,phase_2,stop,400.0,550.0,3.0,,,,,,,,,orange,triangle
0.0,8.0,4.0,1.0,5.0,0.0,0.0,3.0,1.0,phase_2,stop,350.0,550.0,4.0,,,,,,,,,gray,cross
0.0,4.0,4.0,0.0,5.0,5.0,688.3113500007312,3.0,1.0,phase_2,go,400.0,550.0,1.0,,,,,,,,,magenta,diamond
0.0,2.0,2.0,0.0,5.0,5.0,635.7948229997419,3.0,1.0,phase_2,go,400.0,550.0,1.0,,,,,,,,,green,circle
0.0,2.0,2.0,0.0,5.0,5.0,410.3248970004642,4.0,1.0,phase_2,go,400.0,550.0,1.0,,,,,,,,,green,circle
0.0,1.0,1.0,0.0,6.0,6.0,410.020884000005,4.0,1.0,phase_2,go,400.0,550.0,1.0,,,,,,,,,white,hexagon
0.0,8.0,4.0,1.0,5.0,5.0,479.8364549997131,4.0,1.0,phase_2,stop,400.0,550.0,3.0,,,,,,,,,gray,cross
0.0,8.0,4.0,1.0,6.0,6.0,458.5957559993403,4.0,1.0,phase_2,stop,350.0,550.0,3.0,,,,,,,,,gray,cross
0.0,6.0,2.0,1.0,6.0,6.0,722.4223540006278,4.0,1.0,phase_2,go,350.0,500.0,1.0,,,,,,,,,cyan,flipped triangle
0.0,1.0,1.0,0.0,6.0,6.0,972.7189109999016,4.0,1.0,phase_2,go,350.0,500.0,1.0,,,,,,,,,white,hexagon
0.0,8.0,4.0,1.0,5.0,0.0,0.0,4.0,1.0,phase_2,stop,350.0,500.0,4.0,,,,,,,,,gray,cross
0.0,8.0,4.0,1.0,6.0,6.0,422.1593319998646,4.0,1.0,phase_2,stop,400.0,500.0,3.0,,,,,,,,,gray,cross
0.0,6.0,2.0,1.0,5.0,5.0,261.4448459999039,4.0,1.0,phase_2,stop,400.0,450.0,3.0,,,,,,,,,cyan,flipped triangle
0.0,5.0,1.0,1.0,6.0,6.0,689.4232169997849,4.0,1.0,phase_2,go,350.0,450.0,1.0,,,,,,,,,blue,I
0.0,6.0,2.0,1.0,5.0,0.0,0.0,4.0,1.0,phase_2,stop,350.0,450.0,4.0,,,,,,,,,cyan,flipped triangle
0.0,1.0,1.0,0.0,6.0,6.0,614.073642999756,4.0,1.0,phase_2,go,400.0,450.0,1.0,,,,,,,,,white,hexagon
0.0,4.0,4.0,0.0,6.0,6.0,683.5554039998897,4.0,1.0,phase_2,go,400.0,450.0,1.0,,,,,,,,,magenta,diamond
0.0,1.0,1.0,0.0,5.0,5.0,614.6773820000817,4.0,1.0,phase_2,go,400.0,450.0,1.0,,,,,,,,,white,hexagon
0.0,7.0,3.0,1.0,5.0,5.0,386.8145340002229,4.0,1.0,phase_2,go,400.0,450.0,1.0,,,,,,,,,orange,triangle
0.0,4.0,4.0,0.0,6.0,6.0,578.6636969996835,4.0,1.0,phase_2,go,400.0,450.0,1.0,,,,,,,,,magenta,diamond
0.0,5.0,1.0,1.0,5.0,0.0,0.0,4.0,1.0,phase_2,stop,400.0,450.0,4.0,,,,,,,,,blue,I
0.0,3.0,3.0,0.0,6.0,6.0,294.9968830007492,4.0,1.0,phase_2,go,450.0,450.0,1.0,,,,,,,,,yellow,square
0.0,3.0,3.0,0.0,5.0,5.0,599.7079029993984,4.0,1.0,phase_2,go,450.0,450.0,1.0,,,,,,,,,yellow,square
0.0,8.0,4.0,1.0,6.0,6.0,539.54394900029,4.0,1.0,phase_2,stop,450.0,450.0,3.0,,,,,,,,,gray,cross
0.0,3.0,3.0,0.0,6.0,6.0,587.434291000136,4.0,1.0,phase_2,go,450.0,400.0,1.0,,,,,,,,,yellow,square
0.0,4.0,4.0,0.0,5.0,5.0,657.8534430000218,4.0,1.0,phase_2,go,450.0,400.0,1.0,,,,,,,,,magenta,diamond
0.0,2.0,2.0,0.0,5.0,5.0,574.998420999691,4.0,1.0,phase_2,go,450.0,400.0,1.0,,,,,,,,,green,circle
0.0,8.0,4.0,1.0,5.0,5.0,548.1576769998355,4.0,1.0,phase_2,stop,450.0,400.0,3.0,,,,,,,,,gray,cross
0.0,5.0,1.0,1.0,5.0,0.0,0.0,4.0,1.0,phase_2,stop,400.0,400.0,4.0,,,,,,,,,blue,I
0.0,1.0,1.0,0.0,5.0,5.0,620.8615430005011,4.0,1.0,phase_2,go,450.0,400.0,1.0,,,,,,,,,white,hexagon
0.0,8.0,4.0,1.0,5.0,5.0,694.6159389999593,4.0,1.0,phase_2,go,450.0,400.0,1.0,,,,,,,,,gray,cross
0.0,3.0,3.0,0.0,5.0,5.0,360.5471040000338,4.0,1.0,phase_2,go,450.0,400.0,1.0,,,,,,,,,yellow,square
0.0,1.0,1.0,0.0,5.0,5.0,564.4947589998992,4.0,1.0,phase_2,go,450.0,400.0,1.0,,,,,,,,,white,hexagon
0.0,7.0,3.0,1.0,5.0,5.0,711.7472840000119,4.0,1.0,phase_2,go,450.0,400.0,1.0,,,,,,,,,orange,triangle
0.0,6.0,2.0,1.0,5.0,5.0,591.1665349995019,4.0,1.0,phase_2,go,450.0,400.0,1.0,,,,,,,,,cyan,flipped triangle
0.0,6.0,2.0,1.0,5.0,5.0,429.8899989998972,4.0,1.0,phase_2,stop,450.0,400.0,3.0,,,,,,,,,cyan,flipped triangle
0.0,5.0,1.0,1.0,6.0,6.0,517.1270900000309,4.0,1.0,phase_2,stop,400.0,400.0,3.0,,,,,,,,,blue,I
0.0,1.0,1.0,0.0,5.0,5.0,409.0721120001035,4.0,1.0,phase_2,go,400.0,350.0,1.0,,,,,,,,,white,hexagon
0.0,7.0,3.0,1.0,5.0,5.0,510.4865500006781,4.0,1.0,phase_2,stop,400.0,350.0,3.0,,,,,,,,,orange,triangle
0.0,1.0,1.0,0.0,5.0,5.0,716.4750310003001,4.0,1.0,phase_2,go,350.0,350.0,1.0,,,,,,,,,white,hexagon
0.0,1.0,1.0,0.0,6.0,6.0,539.1330989996277,5.0,1.0,phase_2,go,350.0,350.0,1.0,,,,,,,,,white,hexagon
0.0,5.0,1.0,1.0,5.0,5.0,451.4799009994021,5.0,1.0,phase_2,go,350.0,350.0,1.0,,,,,,,,,blue,I
0.0,8.0,4.0,1.0,6.0,0.0,0.0,5.0,1.0,phase_2,stop,350.0,350.0,4.0,,,,,,,,,gray,cross
0.0,6.0,2.0,1.0,5.0,5.0,420.2494359997217,5.0,1.0,phase_2,stop,350.0,400.0,3.0,,,,,,,,,cyan,flipped triangle
0.0,4.0,4.0,0.0,5.0,5.0,526.8433590008499,5.0,1.0,phase_2,go,300.0,400.0,1.0,,,,,,,,,magenta,diamond
0.0,5.0,1.0,1.0,5.0,5.0,640.3687190004348,5.0,1.0,phase_2,go,300.0,400.0,1.0,,,,,,,,,blue,I
0.0,4.0,4.0,0.0,6.0,6.0,585.558871000103,5.0,1.0,phase_2,go,300.0,400.0,1.0,,,,,,,,,magenta,diamond
0.0,2.0,2.0,0.0,6.0,6.0,630.4319549999491,5.0,1.0,phase_2,go,300.0,400.0,1.0,,,,,,,,,green,circle
0.0,4.0,4.0,0.0,5.0,5.0,550.247410999873,5.0,1.0,phase_2,go,300.0,400.0,1.0,,,,,,,,,magenta,diamond
0.0,2.0,2.0,0.0,6.0,6.0,450.3098369996223,5.0,1.0,phase_2,go,300.0,400.0,1.0,,,,,,,,,green,circle
0.0,2.0,2.0,0.0,5.0,5.0,483.9129709998815,5.0,1.0,phase_2,go,300.0,400.0,1.0,,,,,,,,,green,circle
0.0,8.0,4.0,1.0,5.0,0.0,0.0,5.0,1.0,phase_2,stop,300.0,400.0,4.0,,,,,,,,,gray,cross
0.0,1.0,1.0,0.0,5.0,5.0,685.21398699977,5.0,1.0,phase_2,go,350.0,400.0,1.0,,,,,,,,,white,hexagon
0.0,7.0,3.0,1.0,5.0,5.0,431.1072539994711,5.0,1.0,phase_2,stop,350.0,400.0,3.0,,,,,,,,,orange,triangle
0.0,2.0,2.0,0.0,5.0,5.0,605.5227329998161,5.0,1.0,phase_2,go,300.0,400.0,1.0,,,,,,,,,green,circle
0.0,7.0,3.0,1.0,6.0,6.0,542.1712040006241,5.0,1.0,phase_2,stop,300.0,400.0,3.0,,,,,,,,,orange,triangle
0.0,5.0,1.0,1.0,6.0,0.0,0.0,5.0,1.0,phase_2,stop,300.0,350.0,4.0,,,,,,,,,blue,I
0.0,1.0,1.0,0.0,6.0,6.0,565.3553349993672,5.0,1.0,phase_2,go,300.0,400.0,1.0,,,,,,,,,white,hexagon
0.0,4.0,4.0,0.0,5.0,5.0,548.9744919996156,5.0,1.0,phase_2,go,300.0,400.0,1.0,,,,,,,,,magenta,diamond
0.0,3.0,3.0,0.0,6.0,6.0,651.8925660002424,5.0,1.0,phase_2,go,300.0,400.0,1.0,,,,,,,,,yellow,square
0.0,3.0,3.0,0.0,6.0,6.0,528.7339359992984,5.0,1.0,phase_2,go,300.0,400.0,1.0,,,,,,,,,yellow,square
0.0,2.0,2.0,0.0,5.0,5.0,485.3036489994338,5.0,1.0,phase_2,go,300.0,400.0,1.0,,,,,,,,,green,circle
0.0,4.0,4.0,0.0,5.0,5.0,521.3550460002807,5.0,1.0,phase_2,go,300.0,400.0,1.0,,,,,,,,,magenta,diamond
0.0,2.0,2.0,0.0,6.0,6.0,450.0409699994634,5.0,1.0,phase_2,go,300.0,400.0,1.0,,,,,,,,,green,circle
0.0,5.0,1.0,1.0,5.0,5.0,332.5218769996354,5.0,1.0,phase_2,stop,300.0,400.0,3.0,,,,,,,,,blue,I
0.0,1.0,1.0,0.0,5.0,5.0,424.3857319997914,5.0,1.0,phase_2,go,250.0,400.0,1.0,,,,,,,,,white,hexagon
0.0,5.0,1.0,1.0,5.0,5.0,358.4288049996758,5.0,1.0,phase_2,go,250.0,400.0,1.0,,,,,,,,,blue,I
0.0,5.0,1.0,1.0,6.0,0.0,0.0,5.0,1.0,phase_2,stop,250.0,400.0,4.0,,,,,,,,,blue,I
0.0,8.0,4.0,1.0,6.0,6.0,753.3990029996858,5.0,1.0,phase_2,go,250.0,450.0,1.0,,,,,,,,,gray,cross
0.0,3.0,3.0,0.0,6.0,6.0,543.2997449997856,5.0,1.0,phase_2,go,250.0,450.0,1.0,,,,,,,,,yellow,square
0.0,6.0,2.0,1.0,6.0,6.0,506.6106560007029,5.0,1.0,phase_2,stop,250.0,450.0,3.0,,,,,,,,,cyan,flipped triangle
0.0,2.0,2.0,0.0,5.0,5.0,955.943216000378,5.0,1.0,phase_2,go,250.0,400.0,1.0,,,,,,,,,green,circle
0.0,2.0,2.0,0.0,5.0,5.0,480.5026140002155,5.0,1.0,phase_2,go,250.0,400.0,1.0,,,,,,,,,green,circle
0.0,7.0,3.0,1.0,6.0,0.0,0.0,5.0,1.0,phase_2,stop,250.0,400.0,4.0,,,,,,,,,orange,triangle
0.0,1.0,1.0,0.0,5.0,5.0,709.272353000415,5.0,1.0,phase_2,go,250.0,450.0,1.0,,,,,,,,,white,hexagon
0.0,4.0,4.0,0.0,5.0,5.0,310.1318179997179,5.0,1.0,phase_2,go,250.0,450.0,1.0,,,,,,,,,magenta,diamond
0.0,5.0,1.0,1.0,5.0,0.0,0.0,6.0,1.0,phase_2,stop,250.0,450.0,4.0,,,,,,,,,blue,I
0.0,7.0,3.0,1.0,6.0,6.0,433.8982769995709,6.0,1.0,phase_2,stop,300.0,450.0,3.0,,,,,,,,,orange,triangle
0.0,5.0,1.0,1.0,6.0,6.0,541.8175220002013,6.0,1.0,phase_2,stop,300.0,400.0,3.0,,,,,,,,,blue,I
0.0,3.0,3.0,0.0,5.0,5.0,304.4636439999522,6.0,1.0,phase_2,go,300.0,350.0,1.0,,,,,,,,,yellow,square
0.0,1.0,1.0,0.0,6.0,6.0,510.1829949999228,6.0,1.0,phase_2,go,300.0,350.0,1.0,,,,,,,,,white,hexagon
0.0,5.0,1.0,1.0,5.0,0.0,0.0,6.0,1.0,phase_2,stop,300.0,350.0,4.0,,,,,,,,,blue,I
0.0,3.0,3.0,0.0,5.0,5.0,574.8785199994018,6.0,1.0,phase_2,go,350.0,350.0,1.0,,,,,,,,,yellow,square
0.0,4.0,4.0,0.0,5.0,5.0,786.9386219999797,6.0,1.0,phase_2,go,350.0,350.0,1.0,,,,,,,,,magenta,diamond
0.0,1.0,1.0,0.0,5.0,5.0,524.2696100003741,6.0,1.0,phase_2,go,350.0,350.0,1.0,,,,,,,,,white,hexagon
0.0,5.0,1.0,1.0,6.0,0.0,0.0,6.0,1.0,phase_2,stop,350.0,350.0,4.0,,,,,,,,,blue,I
0.0,2.0,2.0,0.0,6.0,6.0,665.6739299996843,6.0,1.0,phase_2,go,350.0,400.0,1.0,,,,,,,,,green,circle
0.0,2.0,2.0,0.0,6.0,6.0,910.6970319999164,6.0,1.0,phase_2,go,350.0,400.0,1.0,,,,,,,,,green,circle
0.0,5.0,1.0,1.0,6.0,6.0,350.1139210002293,6.0,1.0,phase_2,stop,350.0,400.0,3.0,,,,,,,,,blue,I
0.0,2.0,2.0,0.0,6.0,6.0,691.4835709994804,6.0,1.0,phase_2,go,350.0,350.0,1.0,,,,,,,,,green,circle
0.0,6.0,2.0,1.0,6.0,0.0,0.0,6.0,1.0,phase_2,stop,350.0,350.0,4.0,,,,,,,,,cyan,flipped triangle
0.0,6.0,2.0,1.0,6.0,0.0,0.0,6.0,1.0,phase_2,stop,350.0,400.0,4.0,,,,,,,,,cyan,flipped triangle
0.0,4.0,4.0,0.0,5.0,5.0,545.7095229994593,6.0,1.0,phase_2,go,350.0,450.0,1.0,,,,,,,,,magenta,diamond
0.0,7.0,3.0,1.0,5.0,5.0,726.4560480007276,6.0,1.0,phase_2,go,350.0,450.0,1.0,,,,,,,,,orange,triangle
0.0,7.0,3.0,1.0,6.0,0.0,0.0,6.0,1.0,phase_2,stop,350.0,450.0,4.0,,,,,,,,,orange,triangle
0.0,2.0,2.0,0.0,5.0,5.0,579.0441409999403,6.0,1.0,phase_2,go,350.0,500.0,1.0,,,,,,,,,green,circle
0.0,8.0,4.0,1.0,5.0,5.0,510.6290480007374,6.0,1.0,phase_2,go,350.0,500.0,1.0,,,,,,,,,gray,cross
0.0,8.0,4.0,1.0,5.0,5.0,555.0957010000275,6.0,1.0,phase_2,go,350.0,500.0,1.0,,,,,,,,,gray,cross
0.0,7.0,3.0,1.0,6.0,6.0,644.7538930005976,6.0,1.0,phase_2,stop,350.0,500.0,3.0,,,,,,,,,orange,triangle
0.0,3.0,3.0,0.0,6.0,6.0,682.0413410005131,6.0,1.0,phase_2,go,350.0,450.0,1.0,,,,,,,,,yellow,square
0.0,2.0,2.0,0.0,5.0,5.0,684.3937459998415,6.0,1.0,phase_2,go,350.0,450.0,1.0,,,,,,,,,green,circle
0.0,7.0,3.0,1.0,6.0,6.0,612.8507919993353,6.0,1.0,phase_2,stop,350.0,450.0,3.0,,,,,,,,,orange,triangle
0.0,7.0,3.0,1.0,6.0,0.0,0.0,6.0,1.0,phase_2,stop,350.0,400.0,4.0,,,,,,,,,orange,triangle
0.0,8.0,4.0,1.0,6.0,0.0,0.0,6.0,1.0,phase_2,stop,350.0,450.0,4.0,,,,,,,,,gray,cross
0.0,4.0,4.0,0.0,6.0,6.0,602.5980389995311,6.0,1.0,phase_2,go,350.0,500.0,1.0,,,,,,,,,magenta,diamond
0.0,3.0,3.0,0.0,5.0,5.0,531.0984980005742,6.0,1.0,phase_2,go,350.0,500.0,1.0,,,,,,,,,yellow,square
0.0,3.0,3.0,0.0,5.0,5.0,525.5174049998459,6.0,1.0,phase_2,go,350.0,500.0,1.0,,,,,,,,,yellow,square
0.0,4.0,4.0,0.0,6.0,6.0,331.3765439997951,6.0,1.0,phase_2,go,350.0,500.0,1.0,,,,,,,,,magenta,diamond
0.0,1.0,1.0,0.0,6.0,6.0,336.5975920005439,6.0,1.0,phase_2,go,350.0,500.0,1.0,,,,,,,,,white,hexagon
0.0,5.0,1.0,1.0,6.0,6.0,491.1039899998286,6.0,1.0,phase_2,stop,350.0,500.0,3.0,,,,,,,,,blue,I
0.0,3.0,3.0,0.0,6.0,6.0,691.3960729998507,6.0,1.0,phase_2,go,350.0,450.0,1.0,,,,,,,,,yellow,square
0.0,8.0,4.0,1.0,5.0,5.0,464.2968620000829,6.0,1.0,phase_2,go,350.0,450.0,1.0,,,,,,,,,gray,cross
0.0,3.0,3.0,0.0,6.0,6.0,421.2162249996254,7.0,1.0,phase_2,go,350.0,450.0,1.0,,,,,,,,,yellow,square
0.0,3.0,3.0,0.0,5.0,5.0,189.8471579997931,7.0,1.0,phase_2,go,350.0,450.0,1.0,,,,,,,,,yellow,square
0.0,5.0,1.0,1.0,6.0,6.0,397.5756070003626,7.0,1.0,phase_2,stop,350.0,450.0,3.0,,,,,,,,,blue,I
0.0,7.0,3.0,1.0,5.0,0.0,0.0,7.0,1.0,phase_2,stop,350.0,400.0,4.0,,,,,,,,,orange,triangle
0.0,3.0,3.0,0.0,6.0,6.0,445.5544799993731,7.0,1.0,phase_2,go,400.0,400.0,1.0,,,,,,,,,yellow,square
0.0,8.0,4.0,1.0,6.0,6.0,537.2564350000175,7.0,1.0,phase_2,stop,400.0,400.0,3.0,,,,,,,,,gray,cross
0.0,8.0,4.0,1.0,6.0,0.0,0.0,7.0,1.0,phase_2,stop,400.0,350.0,4.0,,,,,,,,,gray,cross
0.0,4.0,4.0,0.0,5.0,5.0,602.2503639997012,7.0,1.0,phase_2,go,400.0,400.0,1.0,,,,,,,,,magenta,diamond
0.0,1.0,1.0,0.0,5.0,5.0,624.0515680001408,7.0,1.0,phase_2,go,400.0,400.0,1.0,,,,,,,,,white,hexagon
0.0,5.0,1.0,1.0,5.0,0.0,0.0,7.0,1.0,phase_2,stop,400.0,400.0,4.0,,,,,,,,,blue,I
0.0,6.0,2.0,1.0,5.0,0.0,0.0,7.0,1.0,phase_2,stop,450.0,400.0,4.0,,,,,,,,,cyan,flipped triangle
0.0,3.0,3.0,0.0,5.0,5.0,704.7354409996842,7.0,1.0,phase_2,go,500.0,400.0,1.0,,,,,,,,,yellow,square
0.0,2.0,2.0,0.0,5.0,5.0,585.1720170003318,7.0,1.0,phase_2,go,500.0,400.0,1.0,,,,,,,,,green,circle
0.0,7.0,3.0,1.0,6.0,0.0,0.0,7.0,1.0,phase_2,stop,500.0,400.0,4.0,,,,,,,,,orange,triangle
0.0,2.0,2.0,0.0,6.0,6.0,683.7958489995799,7.0,1.0,phase_2,go,500.0,450.0,1.0,,,,,,,,,green,circle
0.0,7.0,3.0,1.0,5.0,5.0,563.5876580008699,7.0,1.0,phase_2,stop,500.0,450.0,3.0,,,,,,,,,orange,triangle
0.0,8.0,4.0,1.0,5.0,0.0,0.0,7.0,1.0,phase_2,stop,450.0,450.0,4.0,,,,,,,,,gray,cross
0.0,7.0,3.0,1.0,5.0,0.0,0.0,7.0,1.0,phase_2,stop,500.0,450.0,4.0,,,,,,,,,orange,triangle
0.0,3.0,3.0,0.0,5.0,5.0,641.585454000051,7.0,1.0,phase_2,go,550.0,450.0,1.0,,,,,,,,,yellow,square
0.0,2.0,2.0,0.0,6.0,6.0,485.3721919998861,7.0,1.0,phase_2,go,550.0,450.0,1.0,,,,,,,,,green,circle
0.0,8.0,4.0,1.0,6.0,0.0,0.0,7.0,1.0,phase_2,stop,550.0,450.0,4.0,,,,,,,,,gray,cross
0.0,4.0,4.0,0.0,6.0,6.0,760.4404929998054,7.0,1.0,phase_2,go,550.0,500.0,1.0,,,,,,,,,magenta,diamond
0.0,4.0,4.0,0.0,6.0,6.0,611.7642469998827,7.0,1.0,phase_2,go,550.0,500.0,1.0,,,,,,,,,magenta,diamond
0.0,8.0,4.0,1.0,5.0,5.0,616.8711009995604,7.0,1.0,phase_2,stop,550.0,500.0,3.0,,,,,,,,,gray,cross
0.0,6.0,2.0,1.0,5.0,0.0,0.0,7.0,1.0,phase_2,stop,500.0,500.0,4.0,,,,,,,,,cyan,flipped triangle
0.0,4.0,4.0,0.0,5.0,6.0,990.1886819998252,7.0,1.0,phase_2,go,550.0,500.0,2.0,,,,,,,,,magenta,diamond
0.0,7.0,3.0,1.0,6.0,6.0,503.5780670004897,7.0,1.0,phase_2,go,550.0,500.0,1.0,,,,,,,,,orange,triangle
0.0,6.0,2.0,1.0,5.0,5.0,424.167180999575,7.0,1.0,phase_2,go,550.0,500.0,1.0,,,,,,,,,cyan,flipped triangle
0.0,2.0,2.0,0.0,6.0,6.0,921.0021220005729,7.0,1.0,phase_2,go,550.0,500.0,1.0,,,,,,,,,green,circle
0.0,6.0,2.0,1.0,6.0,6.0,399.865411999599,7.0,1.0,phase_2,stop,550.0,500.0,3.0,,,,,,,,,cyan,flipped triangle
0.0,1.0,1.0,0.0,5.0,5.0,747.903714000131,7.0,1.0,phase_2,go,550.0,450.0,1.0,,,,,,,,,white,hexagon
0.0,7.0,3.0,1.0,6.0,0.0,0.0,7.0,1.0,phase_2,stop,550.0,450.0,4.0,,,,,,,,,orange,triangle
0.0,7.0,3.0,1.0,5.0,0.0,0.0,7.0,1.0,phase_2,stop,550.0,500.0,4.0,,,,,,,,,orange,triangle
0.0,3.0,3.0,0.0,6.0,6.0,781.4311140000427,7.0,1.0,phase_2,go,600.0,500.0,1.0,,,,,,,,,yellow,square
0.0,3.0,3.0,0.0,5.0,5.0,487.9245490001267,7.0,1.0,phase_2,go,600.0,500.0,1.0,,,,,,,,,yellow,square
0.0,5.0,1.0,1.0,6.0,6.0,533.2604499999434,7.0,1.0,phase_2,stop,600.0,500.0,3.0,,,,,,,,,blue,I
0.0,5.0,1.0,1.0,6.0,6.0,436.1398829996687,8.0,1.0,phase_2,stop,600.0,450.0,3.0,,,,,,,,,blue,I
0.0,5.0,1.0,1.0,6.0,6.0,606.1525189998065,8.0,1.0,phase_2,go,600.0,400.0,1.0,,,,,,,,,blue,I
0.0,6.0,2.0,1.0,6.0,6.0,540.4896830004873,8.0,1.0,phase_2,go,600.0,400.0,1.0,,,,,,,,,cyan,flipped triangle
0.0,3.0,3.0,0.0,6.0,6.0,471.1273420007273,8.0,1.0,phase_2,go,600.0,400.0,1.0,,,,,,,,,yellow,square
0.0,7.0,3.0,1.0,5.0,5.0,584.0641730001153,8.0,1.0,phase_2,stop,600.0,400.0,3.0,,,,,,,,,orange,triangle
0.0,4.0,4.0,0.0,6.0,6.0,684.0947130003769,8.0,1.0,phase_2,go,550.0,400.0,1.0,,,,,,,,,magenta,diamond
0.0,7.0,3.0,1.0,6.0,0.0,0.0,8.0,1.0,phase_2,stop,550.0,400.0,4.0,,,,,,,,,orange,triangle
0.0,2.0,2.0,0.0,5.0,5.0,619.4167759995253,8.0,1.0,phase_2,go,550.0,450.0,1.0,,,,,,,,,green,circle
0.0,8.0,4.0,1.0,6.0,0.0,0.0,8.0,1.0,phase_2,stop,550.0,450.0,4.0,,,,,,,,,gray,cross
0.0,6.0,2.0,1.0,5.0,5.0,589.7023949992217,8.0,1.0,phase_2,stop,550.0,500.0,3.0,,,,,,,,,cyan,flipped triangle
0.0,8.0,4.0,1.0,5.0,5.0,481.7222239998955,8.0,1.0,phase_2,go,500.0,500.0,1.0,,,,,,,,,gray,cross
0.0,3.0,3.0,0.0,5.0,5.0,548.9721920002921,8.0,1.0,phase_2,go,500.0,500.0,1.0,,,,,,,,,yellow,square
0.0,6.0,2.0,1.0,6.0,6.0,538.1574789998922,8.0,1.0,phase_2,stop,500.0,500.0,3.0,,,,,,,,,cyan,flipped triangle
0.0,4.0,4.0,0.0,5.0,5.0,748.4948660003283,8.0,1.0,phase_2,go,500.0,450.0,1.0,,,,,,,,,magenta,diamond
0.0,3.0,3.0,0.0,6.0,6.0,692.849992000447,8.0,1.0,phase_2,go,500.0,450.0,1.0,,,,,,,,,yellow,square
0.0,6.0,2.0,1.0,6.0,6.0,749.1687190004086,8.0,1.0,phase_2,go,500.0,450.0,1.0,,,,,,,,,cyan,flipped triangle
0.0,5.0,1.0,1.0,6.0,6.0,586.9488770003954,8.0,1.0,phase_2,stop,500.0,450.0,3.0,,,,,,,,,blue,I
0.0,5.0,1.0,1.0,5.0,0.0,0.0,8.0,1.0,phase_2,stop,500.0,400.0,4.0,,,,,,,,,blue,I
0.0,6.0,2.0,1.0,6.0,6.0,675.8137010001519,8.0,1.0,phase_2,go,550.0,400.0,1.0,,,,,,,,,cyan,flipped triangle
0.0,7.0,3.0,1.0,6.0,0.0,0.0,8.0,1.0,phase_2,stop,550.0,400.0,4.0,,,,,,,,,orange,triangle
0.0,1.0,1.0,0.0,5.0,5.0,820.6069540001408,8.0,1.0,phase_2,go,550.0,450.0,1.0,,,,,,,,,white,hexagon
0.0,8.0,4.0,1.0,5.0,5.0,637.5094089999038,8.0,1.0,phase_2,stop,550.0,450.0,3.0,,,,,,,,,gray,cross
0.0,2.0,2.0,0.0,6.0,6.0,837.4885080002059,8.0,1.0,phase_2,go,500.0,450.0,1.0,,,,,,,,,green,circle
0.0,5.0,1.0,1.0,5.0,0.0,0.0,8.0,1.0,phase_2,stop,500.0,450.0,4.0,,,,,,,,,blue,I
0.0,7.0,3.0,1.0,6.0,6.0,631.9277389993658,8.0,1.0,phase_2,go,550.0,450.0,1.0,,,,,,,,,orange,triangle
0.0,1.0,1.0,0.0,6.0,6.0,666.2796749997142,8.0,1.0,phase_2,go,550.0,450.0,1.0,,,,,,,,,white,hexagon
0.0,2.0,2.0,0.0,6.0,6.0,568.5244440001043,8.0,1.0,phase_2,go,550.0,450.0,1.0,,,,,,,,,green,circle
0.0,5.0,1.0,1.0,6.0,6.0,704.5054820000587,8.0,1.0,phase_2,go,550.0,450.0,1.0,,,,,,,,,blue,I
0.0,8.0,4.0,1.0,5.0,5.0,398.0158379999921,8.0,1.0,phase_2,go,550.0,450.0,1.0,,,,,,,,,gray,cross
0.0,7.0,3.0,1.0,5.0,5.0,684.6441259995117,8.0,1.0,phase_2,go,550.0,450.0,1.0,,,,,,,,,orange,triangle
0.0,1.0,1.0,0.0,5.0,5.0,574.0077910004402,8.0,1.0,phase_2,go,550.0,450.0,1.0,,,,,,,,,white,hexagon
0.0,6.0,2.0,1.0,5.0,5.0,394.8485370001435,8.0,1.0,phase_2,stop,550.0,450.0,3.0,,,,,,,,,cyan,flipped triangle
0.0,4.0,4.0,0.0,5.0,5.0,574.958759000765,8.0,1.0,phase_2,go,500.0,450.0,1.0,,,,,,,,,magenta,diamond
0.0,2.0,2.0,0.0,6.0,6.0,651.1772840003687,8.0,1.0,phase_2,go,500.0,450.0,1.0,,,,,,,,,green,circle
0.0,8.0,4.0,1.0,6.0,6.0,575.6226809999134,8.0,1.0,phase_2,stop,500.0,450.0,3.0,,,,,,,,,gray,cross
0.0,1.0,1.0,0.0,6.0,6.0,763.1045690004612,8.0,1.0,phase_2,go,500.0,400.0,1.0,,,,,,,,,white,hexagon
0.0,2.0,2.0,0.0,7.0,3.0,4330.793737000022,1.0,1.0,phase_3,,,,,162.0,3.0,216.0,270.0,162.0,54.0,324.0,108.0,green,circle
0.0,5.0,1.0,1.0,7.0,5.0,3807.696851999936,1.0,1.0,phase_3,,,,,88.0,2.0,132.0,176.0,220.0,264.0,88.0,44.0,blue,I
0.0,3.0,3.0,0.0,7.0,1.0,2633.074180999756,1.0,1.0,phase_3,,,,,136.0,4.0,136.0,102.0,68.0,34.0,204.0,170.0,yellow,square
0.0,6.0,2.0,1.0,7.0,4.0,3629.640609000489,1.0,1.0,phase_3,,,,,49.0,1.0,245.0,147.0,196.0,49.0,98.0,294.0,cyan,flipped triangle
0.0,7.0,3.0,1.0,7.0,5.0,2897.064473999308,1.0,1.0,phase_3,,,,,195.0,5.0,156.0,234.0,78.0,117.0,195.0,39.0,orange,triangle
0.0,4.0,4.0,0.0,7.0,4.0,3772.0706259997314,1.0,1.0,phase_3,,,,,195.0,5.0,117.0,234.0,156.0,195.0,39.0,78.0,magenta,diamond
0.0,6.0,2.0,1.0,7.0,5.0,583.9814949995343,1.0,2.0,phase_3,,,,,132.0,3.0,88.0,220.0,264.0,176.0,132.0,44.0,cyan,flipped triangle
0.0,5.0,1.0,1.0,7.0,5.0,1800.3779179998671,1.0,1.0,phase_3,,,,,98.0,2.0,294.0,49.0,245.0,196.0,98.0,147.0,blue,I
0.0,8.0,4.0,1.0,7.0,5.0,2573.19041000028,1.0,1.0,phase_3,,,,,245.0,5.0,196.0,49.0,147.0,294.0,245.0,98.0,gray,cross
0.0,3.0,3.0,0.0,7.0,2.0,2226.941588000045,1.0,1.0,phase_3,,,,,176.0,4.0,132.0,176.0,264.0,44.0,220.0,88.0,yellow,square
0.0,3.0,3.0,0.0,7.0,6.0,1832.59000399994,1.0,1.0,phase_3,,,,,117.0,3.0,195.0,156.0,234.0,78.0,39.0,117.0,yellow,square
0.0,2.0,2.0,0.0,7.0,3.0,1789.122433000557,1.0,1.0,phase_3,,,,,176.0,4.0,44.0,264.0,176.0,88.0,220.0,132.0,green,circle
0.0,4.0,4.0,0.0,7.0,6.0,1883.9930599997388,1.0,1.0,phase_3,,,,,245.0,5.0,98.0,49.0,147.0,196.0,294.0,245.0,magenta,diamond
0.0,5.0,1.0,1.0,7.0,1.0,2663.8023429995883,1.0,1.0,phase_3,,,,,108.0,2.0,108.0,216.0,54.0,324.0,162.0,270.0,blue,I
0.0,6.0,2.0,1.0,7.0,4.0,3813.6893509999936,1.0,1.0,phase_3,,,,,170.0,5.0,34.0,68.0,102.0,170.0,204.0,136.0,cyan,flipped triangle
0.0,6.0,2.0,1.0,7.0,6.0,2163.012707999769,1.0,1.0,phase_3,,,,,132.0,3.0,176.0,44.0,88.0,220.0,264.0,132.0,cyan,flipped triangle
0.0,7.0,3.0,1.0,7.0,1.0,3967.2187450005367,1.0,1.0,phase_3,,,,,147.0,3.0,147.0,294.0,98.0,196.0,49.0,245.0,orange,triangle
0.0,4.0,4.0,0.0,7.0,5.0,2104.1297640003904,1.0,1.0,phase_3,,,,,220.0,5.0,176.0,88.0,264.0,132.0,220.0,44.0,magenta,diamond
0.0,6.0,2.0,1.0,7.0,2.0,3156.595407000168,1.0,1.0,phase_3,,,,,156.0,4.0,234.0,156.0,117.0,78.0,39.0,195.0,cyan,flipped triangle
0.0,4.0,4.0,0.0,7.0,2.0,3744.859006999832,1.0,1.0,phase_3,,,,,117.0,3.0,195.0,117.0,39.0,234.0,156.0,78.0,magenta,diamond
0.0,5.0,1.0,1.0,7.0,5.0,2009.1770319995703,2.0,1.0,phase_3,,,,,108.0,2.0,162.0,216.0,324.0,270.0,108.0,54.0,blue,I
0.0,8.0,4.0,1.0,7.0,4.0,2368.188506000479,2.0,1.0,phase_3,,,,,216.0,4.0,270.0,108.0,324.0,216.0,162.0,54.0,gray,cross
0.0,2.0,2.0,0.0,7.0,6.0,2392.430186000638,2.0,1.0,phase_3,,,,,156.0,4.0,117.0,195.0,234.0,39.0,78.0,156.0,green,circle
0.0,6.0,2.0,1.0,7.0,3.0,1868.0475299997847,2.0,1.0,phase_3,,,,,136.0,4.0,204.0,102.0,136.0,34.0,68.0,170.0,cyan,flipped triangle
0.0,7.0,3.0,1.0,7.0,5.0,2409.203642000648,2.0,1.0,phase_3,,,,,176.0,4.0,44.0,220.0,264.0,132.0,176.0,88.0,orange,triangle
0.0,8.0,4.0,1.0,7.0,5.0,4443.410290999964,2.0,1.0,phase_3,,,,,176.0,4.0,264.0,44.0,132.0,88.0,176.0,220.0,gray,cross
0.0,7.0,3.0,1.0,7.0,5.0,3095.6673979999323,2.0,1.0,phase_3,,,,,162.0,3.0,324.0,54.0,270.0,216.0,162.0,108.0,orange,triangle
0.0,8.0,4.0,1.0,7.0,3.0,2421.8708560001687,2.0,1.0,phase_3,,,,,117.0,3.0,195.0,78.0,117.0,156.0,39.0,234.0,gray,cross
0.0,4.0,4.0,0.0,7.0,2.0,2713.9508480004224,2.0,1.0,phase_3,,,,,108.0,2.0,216.0,108.0,270.0,54.0,324.0,162.0,magenta,diamond
0.0,8.0,4.0,1.0,7.0,5.0,802.3734929993225,2.0,2.0,phase_3,,,,,294.0,6.0,245.0,98.0,49.0,147.0,294.0,196.0,gray,cross
0.0,8.0,4.0,1.0,7.0,5.0,2078.654508,2.0,1.0,phase_3,,,,,132.0,3.0,88.0,176.0,44.0,220.0,132.0,264.0,gray,cross
0.0,1.0,1.0,0.0,7.0,6.0,2636.051710999709,2.0,1.0,phase_3,,,,,132.0,3.0,264.0,88.0,176.0,220.0,44.0,132.0,white,hexagon
0.0,2.0,2.0,0.0,7.0,2.0,1815.030492000005,2.0,1.0,phase_3,,,,,216.0,4.0,162.0,216.0,324.0,54.0,108.0,270.0,green,circle
0.0,7.0,3.0,1.0,7.0,6.0,2815.963778999503,2.0,1.0,phase_3,,,,,220.0,5.0,44.0,264.0,176.0,132.0,88.0,220.0,orange,triangle
0.0,4.0,4.0,0.0,7.0,5.0,2627.6208409999526,2.0,1.0,phase_3,,,,,102.0,3.0,136.0,204.0,68.0,170.0,102.0,34.0,magenta,diamond
0.0,6.0,2.0,1.0,7.0,5.0,2650.6397690000085,2.0,1.0,phase_3,,,,,162.0,3.0,108.0,216.0,54.0,270.0,162.0,324.0,cyan,flipped triangle
0.0,6.0,2.0,1.0,7.0,3.0,2405.3551690003587,2.0,1.0,phase_3,,,,,147.0,3.0,294.0,98.0,147.0,245.0,196.0,49.0,cyan,flipped triangle
0.0,7.0,3.0,1.0,7.0,4.0,3723.076303000198,2.0,1.0,phase_3,,,,,204.0,6.0,170.0,102.0,68.0,204.0,136.0,34.0,orange,triangle
0.0,2.0,2.0,0.0,7.0,6.0,2627.119321999998,2.0,1.0,phase_3,,,,,136.0,4.0,102.0,170.0,204.0,68.0,34.0,136.0,green,circle
0.0,1.0,1.0,0.0,7.0,2.0,1586.0938570003782,2.0,1.0,phase_3,,,,,147.0,3.0,49.0,147.0,245.0,98.0,196.0,294.0,white,hexagon
0.0,7.0,3.0,1.0,7.0,4.0,3831.171351999728,3.0,1.0,phase_3,,,,,117.0,3.0,39.0,234.0,156.0,117.0,195.0,78.0,orange,triangle
0.0,1.0,1.0,0.0,7.0,3.0,1734.0211910004657,3.0,1.0,phase_3,,,,,102.0,3.0,68.0,136.0,102.0,34.0,204.0,170.0,white,hexagon
0.0,2.0,2.0,0.0,7.0,3.0,4853.189973000553,3.0,1.0,phase_3,,,,,245.0,5.0,196.0,147.0,245.0,98.0,49.0,294.0,green,circle
0.0,5.0,1.0,1.0,7.0,1.0,3367.1468729999106,3.0,1.0,phase_3,,,,,68.0,2.0,68.0,204.0,102.0,170.0,34.0,136.0,blue,I
0.0,7.0,3.0,1.0,7.0,6.0,3329.0106020003805,3.0,1.0,phase_3,,,,,147.0,3.0,98.0,196.0,245.0,294.0,49.0,147.0,orange,triangle
0.0,2.0,2.0,0.0,7.0,4.0,1601.8049129997962,3.0,1.0,phase_3,,,,,170.0,5.0,102.0,34.0,204.0,170.0,68.0,136.0,green,circle
0.0,4.0,4.0,0.0,7.0,4.0,2137.481724999816,3.0,1.0,phase_3,,,,,136.0,4.0,34.0,170.0,102.0,136.0,68.0,204.0,magenta,diamond
0.0,3.0,3.0,0.0,7.0,2.0,1080.0952460003828,3.0,1.0,phase_3,,,,,220.0,5.0,176.0,220.0,264.0,88.0,44.0,132.0,yellow,square
0.0,1.0,1.0,0.0,7.0,6.0,1837.335477000124,3.0,1.0,phase_3,,,,,156.0,4.0,117.0,78.0,195.0,234.0,39.0,156.0,white,hexagon
0.0,3.0,3.0,0.0,7.0,3.0,2316.2119420003364,3.0,1.0,phase_3,,,,,108.0,2.0,54.0,270.0,108.0,324.0,162.0,216.0,yellow,square
0.0,5.0,1.0,1.0,7.0,1.0,3250.3360010005053,3.0,1.0,phase_3,,,,,68.0,2.0,68.0,102.0,136.0,204.0,34.0,170.0,blue,I
0.0,1.0,1.0,0.0,7.0,6.0,2687.6779300000635,3.0,1.0,phase_3,,,,,108.0,2.0,324.0,162.0,270.0,54.0,216.0,108.0,white,hexagon
0.0,6.0,2.0,1.0,7.0,3.0,1777.3838419998356,3.0,1.0,phase_3,,,,,216.0,4.0,270.0,108.0,216.0,324.0,54.0,162.0,cyan,flipped triangle
0.0,8.0,4.0,1.0,7.0,2.0,1937.324362000254,3.0,1.0,phase_3,,,,,170.0,5.0,136.0,170.0,204.0,34.0,68.0,102.0,gray,cross
0.0,1.0,1.0,0.0,7.0,4.0,1761.077636999289,3.0,1.0,phase_3,,,,,270.0,5.0,54.0,162.0,216.0,270.0,108.0,324.0,white,hexagon
0.0,3.0,3.0,0.0,7.0,6.0,1879.4488510002336,3.0,1.0,phase_3,,,,,270.0,5.0,162.0,324.0,108.0,54.0,216.0,270.0,yellow,square
0.0,1.0,1.0,0.0,7.0,4.0,2087.4395769997136,3.0,1.0,phase_3,,,,,132.0,3.0,176.0,88.0,220.0,132.0,264.0,44.0,white,hexagon
0.0,7.0,3.0,1.0,7.0,3.0,897.5001520002479,3.0,1.0,phase_3,,,,,170.0,5.0,136.0,34.0,170.0,68.0,102.0,204.0,orange,triangle
0.0,4.0,4.0,0.0,7.0,1.0,1622.261159000118,3.0,1.0,phase_3,,,,,196.0,4.0,196.0,98.0,49.0,294.0,245.0,147.0,magenta,diamond
0.0,2.0,2.0,0.0,7.0,5.0,4164.049926000189,3.0,1.0,phase_3,,,,,245.0,5.0,49.0,98.0,196.0,147.0,245.0,294.0,green,circle
0.0,8.0,4.0,1.0,7.0,2.0,1081.9819199996346,4.0,1.0,phase_3,,,,,270.0,5.0,54.0,270.0,108.0,162.0,216.0,324.0,gray,cross
0.0,5.0,1.0,1.0,7.0,6.0,1685.2335089997723,4.0,1.0,phase_3,,,,,196.0,4.0,147.0,49.0,294.0,245.0,98.0,196.0,blue,I
0.0,5.0,1.0,1.0,7.0,1.0,2923.883311999816,4.0,1.0,phase_3,,,,,78.0,2.0,78.0,195.0,234.0,156.0,117.0,39.0,blue,I
0.0,1.0,1.0,0.0,7.0,6.0,3317.772483999761,4.0,1.0,phase_3,,,,,147.0,3.0,49.0,98.0,196.0,245.0,294.0,147.0,white,hexagon
0.0,4.0,4.0,0.0,7.0,3.0,3823.3964630007904,4.0,1.0,phase_3,,,,,270.0,5.0,108.0,324.0,270.0,54.0,162.0,216.0,magenta,diamond
0.0,3.0,3.0,0.0,7.0,5.0,2116.637988000548,4.0,1.0,phase_3,,,,,196.0,4.0,245.0,49.0,98.0,294.0,196.0,147.0,yellow,square
0.0,8.0,4.0,1.0,7.0,3.0,1479.8796260001836,4.0,1.0,phase_3,,,,,102.0,3.0,170.0,34.0,102.0,68.0,204.0,136.0,gray,cross
0.0,3.0,3.0,0.0,7.0,6.0,1990.846492999481,4.0,1.0,phase_3,,,,,147.0,3.0,49.0,98.0,196.0,245.0,294.0,147.0,yellow,square
0.0,7.0,3.0,1.0,7.0,5.0,1425.3294830004959,4.0,1.0,phase_3,,,,,216.0,4.0,108.0,54.0,270.0,324.0,216.0,162.0,orange,triangle
0.0,1.0,1.0,0.0,7.0,2.0,1435.727007999958,4.0,1.0,phase_3,,,,,170.0,5.0,34.0,170.0,204.0,68.0,102.0,136.0,white,hexagon
0.0,4.0,4.0,0.0,7.0,6.0,3063.303053999334,4.0,1.0,phase_3,,,,,264.0,6.0,44.0,88.0,220.0,132.0,176.0,264.0,magenta,diamond
0.0,8.0,4.0,1.0,7.0,6.0,3798.741304999567,4.0,1.0,phase_3,,,,,195.0,5.0,156.0,39.0,234.0,117.0,78.0,195.0,gray,cross
0.0,6.0,2.0,1.0,7.0,4.0,2449.638674000198,4.0,1.0,phase_3,,,,,156.0,4.0,195.0,78.0,39.0,156.0,234.0,117.0,cyan,flipped triangle
0.0,3.0,3.0,0.0,7.0,3.0,1012.1862369996959,4.0,1.0,phase_3,,,,,136.0,4.0,170.0,204.0,136.0,102.0,34.0,68.0,yellow,square
0.0,2.0,2.0,0.0,7.0,4.0,1830.2020949995492,4.0,1.0,phase_3,,,,,176.0,4.0,44.0,88.0,264.0,176.0,132.0,220.0,green,circle
0.0,5.0,1.0,1.0,7.0,3.0,1719.9122609999904,4.0,1.0,phase_3,,,,,117.0,3.0,234.0,78.0,117.0,195.0,156.0,39.0,blue,I
0.0,5.0,1.0,1.0,7.0,4.0,3882.762838000417,4.0,1.0,phase_3,,,,,132.0,3.0,176.0,220.0,44.0,132.0,88.0,264.0,blue,I
0.0,2.0,2.0,0.0,7.0,3.0,3424.536579999767,4.0,1.0,phase_3,,,,,117.0,3.0,234.0,78.0,117.0,39.0,195.0,156.0,green,circle
0.0,3.0,3.0,0.0,7.0,4.0,1363.6447920007413,4.0,1.0,phase_3,,,,,156.0,4.0,195.0,78.0,117.0,156.0,39.0,234.0,yellow,square
0.0,1.0,1.0,0.0,7.0,3.0,2031.391282000186,4.0,1.0,phase_3,,,,,156.0,4.0,39.0,195.0,156.0,234.0,78.0,117.0,white,hexagon
