raw_reward_magnitude,stim_reward,stepwise_reward_magnitude,paired_with_stopping,quadrant,response,reaction_time,block,num_trial_presentations,which_part,stop_signal_trial_type,left_SSD,right_SSD,accuracy,chosen_bidding_amount,chosen_bidding_level,possible_bid_1,possible_bid_2,possible_bid_3,possible_bid_4,possible_bid_5,possible_bid_6,color_text,shape_text
96.0,6.0,2.0,1.0,4.0,4.0,451.9486429999233,1.0,1.0,part_1,,,,,,,,,,,,,yellow,cross
84.0,2.0,2.0,0.0,2.0,2.0,371.2291009996988,1.0,1.0,part_1,,,,,,,,,,,,,orange,circle
0.0,7.0,0.0,1.0,1.0,1.0,276.4970379994338,1.0,1.0,part_1,,,,,,,,,,,,,magenta,hexagon
188.0,3.0,3.0,0.0,1.0,1.0,285.9146049995615,1.0,1.0,part_1,,,,,,,,,,,,,green,I
102.0,6.0,2.0,1.0,3.0,3.0,251.8867130002036,1.0,1.0,part_1,,,,,,,,,,,,,yellow,cross
393.0,4.0,4.0,0.0,3.0,3.0,305.45362400062,1.0,1.0,part_1,,,,,,,,,,,,,cyan,diamond
79.0,2.0,2.0,0.0,2.0,2.0,259.2352199999368,1.0,1.0,part_1,,,,,,,,,,,,,orange,circle
67.0,5.0,1.0,1.0,2.0,2.0,301.9386609994399,1.0,1.0,part_1,,,,,,,,,,,,,gray,square
47.0,1.0,1.0,0.0,2.0,2.0,303.2275260002279,1.0,1.0,part_1,,,,,,,,,,,,,white,triangle
389.0,8.0,4.0,1.0,3.0,3.0,293.6888750000435,1.0,1.0,part_1,,,,,,,,,,,,,blue,flipped triangle
220.0,3.0,3.0,0.0,4.0,4.0,276.2191840001833,1.0,1.0,part_1,,,,,,,,,,,,,green,I
106.0,2.0,2.0,0.0,4.0,4.0,297.8995000003124,1.0,1.0,part_1,,,,,,,,,,,,,orange,circle
0.0,8.0,0.0,1.0,1.0,1.0,271.4596529995106,1.0,1.0,part_1,,,,,,,,,,,,,blue,flipped triangle
395.0,4.0,4.0,0.0,1.0,1.0,285.5652779999218,1.0,1.0,part_1,,,,,,,,,,,,,cyan,diamond
385.0,8.0,4.0,1.0,2.0,2.0,299.0222059997904,1.0,1.0,part_1,,,,,,,,,,,,,blue,flipped triangle
189.0,3.0,3.0,0.0,4.0,4.0,267.8109349999431,1.0,1.0,part_1,,,,,,,,,,,,,green,I
0.0,7.0,0.0,1.0,1.0,1.0,223.9538359999642,1.0,1.0,part_1,,,,,,,,,,,,,magenta,hexagon
418.0,8.0,4.0,1.0,2.0,2.0,264.5580489997883,1.0,1.0,part_1,,,,,,,,,,,,,blue,flipped triangle
194.0,3.0,3.0,0.0,2.0,2.0,351.1491930003103,1.0,1.0,part_1,,,,,,,,,,,,,green,I
0.0,4.0,0.0,0.0,4.0,4.0,293.1866529997933,1.0,1.0,part_1,,,,,,,,,,,,,cyan,diamond
0.0,5.0,0.0,1.0,2.0,2.0,297.1600809996744,1.0,1.0,part_1,,,,,,,,,,,,,gray,square
95.0,2.0,2.0,0.0,4.0,4.0,304.4517750004161,1.0,1.0,part_1,,,,,,,,,,,,,orange,circle
181.0,3.0,3.0,0.0,1.0,1.0,226.5852609998546,1.0,1.0,part_1,,,,,,,,,,,,,green,I
86.0,2.0,2.0,0.0,4.0,4.0,284.9722999999358,1.0,1.0,part_1,,,,,,,,,,,,,orange,circle
67.0,1.0,1.0,0.0,1.0,1.0,254.8314030000256,1.0,1.0,part_1,,,,,,,,,,,,,white,triangle
205.0,7.0,3.0,1.0,4.0,4.0,256.7037759999948,1.0,1.0,part_1,,,,,,,,,,,,,magenta,hexagon
205.0,3.0,3.0,0.0,1.0,1.0,247.0797860005404,1.0,1.0,part_1,,,,,,,,,,,,,green,I
62.0,1.0,1.0,0.0,3.0,3.0,302.4292759992022,1.0,2.0,part_1,,,,,,,,,,,,,white,triangle
405.0,8.0,4.0,1.0,3.0,3.0,313.7485489996834,1.0,1.0,part_1,,,,,,,,,,,,,blue,flipped triangle
0.0,5.0,0.0,1.0,2.0,2.0,284.3216419996679,1.0,1.0,part_1,,,,,,,,,,,,,gray,square
0.0,5.0,0.0,1.0,3.0,3.0,304.0578410000307,1.0,1.0,part_1,,,,,,,,,,,,,gray,square
114.0,6.0,2.0,1.0,1.0,1.0,285.6695649998073,1.0,1.0,part_1,,,,,,,,,,,,,yellow,cross
0.0,4.0,0.0,0.0,2.0,2.0,322.0558299999538,1.0,1.0,part_1,,,,,,,,,,,,,cyan,diamond
53.0,5.0,1.0,1.0,4.0,4.0,313.5297199996785,1.0,1.0,part_1,,,,,,,,,,,,,gray,square
106.0,2.0,2.0,0.0,1.0,1.0,240.6906400001389,1.0,1.0,part_1,,,,,,,,,,,,,orange,circle
200.0,3.0,3.0,0.0,3.0,3.0,314.1157730005943,1.0,1.0,part_1,,,,,,,,,,,,,green,I
0.0,7.0,0.0,1.0,2.0,2.0,267.1135660002619,1.0,1.0,part_1,,,,,,,,,,,,,magenta,hexagon
382.0,8.0,4.0,1.0,3.0,3.0,299.2754690003494,1.0,1.0,part_1,,,,,,,,,,,,,blue,flipped triangle
105.0,2.0,2.0,0.0,4.0,4.0,358.2420459997593,1.0,1.0,part_1,,,,,,,,,,,,,orange,circle
0.0,6.0,0.0,1.0,2.0,2.0,298.3095979998325,1.0,1.0,part_1,,,,,,,,,,,,,yellow,cross
47.0,5.0,1.0,1.0,1.0,1.0,297.4174950004453,1.0,2.0,part_1,,,,,,,,,,,,,gray,square
412.0,4.0,4.0,0.0,3.0,3.0,314.0857859998505,1.0,1.0,part_1,,,,,,,,,,,,,cyan,diamond
186.0,3.0,3.0,0.0,1.0,1.0,325.047192999591,1.0,1.0,part_1,,,,,,,,,,,,,green,I
201.0,7.0,3.0,1.0,3.0,3.0,296.7482220001329,1.0,1.0,part_1,,,,,,,,,,,,,magenta,hexagon
399.0,4.0,4.0,0.0,2.0,2.0,337.7865770007702,1.0,1.0,part_1,,,,,,,,,,,,,cyan,diamond
123.0,2.0,2.0,0.0,3.0,3.0,304.0544989999034,1.0,1.0,part_1,,,,,,,,,,,,,orange,circle
402.0,4.0,4.0,0.0,1.0,1.0,296.1723050002547,1.0,1.0,part_1,,,,,,,,,,,,,cyan,diamond
379.0,4.0,4.0,0.0,1.0,1.0,268.1382989994745,1.0,1.0,part_1,,,,,,,,,,,,,cyan,diamond
106.0,6.0,2.0,1.0,1.0,1.0,294.2135879993657,1.0,1.0,part_1,,,,,,,,,,,,,yellow,cross
60.0,5.0,1.0,1.0,1.0,1.0,326.0535549998167,1.0,1.0,part_1,,,,,,,,,,,,,gray,square
35.0,5.0,1.0,1.0,3.0,3.0,281.5972999997029,1.0,1.0,part_1,,,,,,,,,,,,,gray,square
375.0,8.0,4.0,1.0,2.0,2.0,281.068521000634,1.0,1.0,part_1,,,,,,,,,,,,,blue,flipped triangle
26.0,5.0,1.0,1.0,1.0,1.0,262.24754699978797,1.0,1.0,part_1,,,,,,,,,,,,,gray,square
0.0,2.0,0.0,0.0,3.0,3.0,284.9291259999518,1.0,1.0,part_1,,,,,,,,,,,,,orange,circle
191.0,7.0,3.0,1.0,3.0,3.0,297.1551540003929,1.0,1.0,part_1,,,,,,,,,,,,,magenta,hexagon
379.0,8.0,4.0,1.0,3.0,3.0,310.7209039999361,1.0,1.0,part_1,,,,,,,,,,,,,blue,flipped triangle
30.0,5.0,1.0,1.0,2.0,2.0,297.990203000154,1.0,1.0,part_1,,,,,,,,,,,,,gray,square
422.0,8.0,4.0,1.0,1.0,1.0,321.1622069993609,1.0,1.0,part_1,,,,,,,,,,,,,blue,flipped triangle
65.0,1.0,1.0,0.0,4.0,4.0,292.7100580000115,1.0,1.0,part_1,,,,,,,,,,,,,white,triangle
205.0,3.0,3.0,0.0,3.0,3.0,316.765051999937,1.0,1.0,part_1,,,,,,,,,,,,,green,I
28.0,5.0,1.0,1.0,3.0,3.0,305.4043199999796,1.0,1.0,part_1,,,,,,,,,,,,,gray,square
375.0,4.0,4.0,0.0,4.0,4.0,286.4530540000487,1.0,1.0,part_1,,,,,,,,,,,,,cyan,diamond
202.0,7.0,3.0,1.0,1.0,1.0,233.9183160001994,1.0,1.0,part_1,,,,,,,,,,,,,magenta,hexagon
196.0,7.0,3.0,1.0,4.0,4.0,322.9934340006366,1.0,1.0,part_1,,,,,,,,,,,,,magenta,hexagon
0.0,4.0,0.0,0.0,2.0,2.0,332.4197830006596,1.0,1.0,part_1,,,,,,,,,,,,,cyan,diamond
66.0,1.0,1.0,0.0,3.0,3.0,286.8643530000554,1.0,1.0,part_1,,,,,,,,,,,,,white,triangle
0.0,6.0,0.0,1.0,1.0,1.0,237.0775720000892,1.0,1.0,part_1,,,,,,,,,,,,,yellow,cross
64.0,5.0,1.0,1.0,2.0,2.0,321.3328599995293,1.0,1.0,part_1,,,,,,,,,,,,,gray,square
206.0,3.0,3.0,0.0,4.0,4.0,293.2378790001166,1.0,1.0,part_1,,,,,,,,,,,,,green,I
0.0,8.0,0.0,1.0,4.0,4.0,319.6860210000523,1.0,1.0,part_1,,,,,,,,,,,,,blue,flipped triangle
205.0,7.0,3.0,1.0,3.0,3.0,314.061488000334,1.0,1.0,part_1,,,,,,,,,,,,,magenta,hexagon
0.0,6.0,0.0,1.0,1.0,1.0,248.3064669995656,1.0,1.0,part_1,,,,,,,,,,,,,yellow,cross
84.0,2.0,2.0,0.0,1.0,1.0,308.1877770000574,1.0,1.0,part_1,,,,,,,,,,,,,orange,circle
406.0,8.0,4.0,1.0,4.0,4.0,303.6883199993099,1.0,1.0,part_1,,,,,,,,,,,,,blue,flipped triangle
0.0,1.0,0.0,0.0,4.0,4.0,317.4019699999917,1.0,1.0,part_1,,,,,,,,,,,,,white,triangle
414.0,8.0,4.0,1.0,1.0,1.0,297.0855359999405,1.0,1.0,part_1,,,,,,,,,,,,,blue,flipped triangle
198.0,7.0,3.0,1.0,4.0,4.0,299.23787899952,1.0,1.0,part_1,,,,,,,,,,,,,magenta,hexagon
0.0,3.0,0.0,0.0,2.0,2.0,401.5824569996766,1.0,1.0,part_1,,,,,,,,,,,,,green,I
84.0,6.0,2.0,1.0,1.0,1.0,294.7037969997836,1.0,1.0,part_1,,,,,,,,,,,,,yellow,cross
35.0,1.0,1.0,0.0,2.0,2.0,260.4818479994719,1.0,1.0,part_1,,,,,,,,,,,,,white,triangle
94.0,6.0,2.0,1.0,2.0,2.0,305.6546500001786,1.0,1.0,part_1,,,,,,,,,,,,,yellow,cross
37.0,1.0,1.0,0.0,2.0,2.0,308.3740140000373,1.0,1.0,part_1,,,,,,,,,,,,,white,triangle
0.0,2.0,0.0,0.0,3.0,3.0,280.6878159999542,1.0,1.0,part_1,,,,,,,,,,,,,orange,circle
224.0,7.0,3.0,1.0,4.0,4.0,263.576909999756,1.0,1.0,part_1,,,,,,,,,,,,,magenta,hexagon
63.0,5.0,1.0,1.0,3.0,3.0,362.0148010004413,1.0,1.0,part_1,,,,,,,,,,,,,gray,square
0.0,6.0,0.0,1.0,4.0,4.0,288.7302889994316,1.0,1.0,part_1,,,,,,,,,,,,,yellow,cross
398.0,8.0,4.0,1.0,1.0,1.0,262.998181000512,1.0,1.0,part_1,,,,,,,,,,,,,blue,flipped triangle
53.0,5.0,1.0,1.0,1.0,1.0,301.5179250005531,1.0,1.0,part_1,,,,,,,,,,,,,gray,square
33.0,5.0,1.0,1.0,4.0,4.0,281.3058860001547,1.0,1.0,part_1,,,,,,,,,,,,,gray,square
210.0,7.0,3.0,1.0,1.0,1.0,271.985979999954,1.0,1.0,part_1,,,,,,,,,,,,,magenta,hexagon
79.0,6.0,2.0,1.0,4.0,4.0,236.1911870002586,1.0,1.0,part_1,,,,,,,,,,,,,yellow,cross
194.0,7.0,3.0,1.0,3.0,3.0,290.1591679992634,1.0,1.0,part_1,,,,,,,,,,,,,magenta,hexagon
99.0,2.0,2.0,0.0,2.0,2.0,235.3514849992279,1.0,1.0,part_1,,,,,,,,,,,,,orange,circle
223.0,7.0,3.0,1.0,3.0,3.0,313.8310459999047,1.0,1.0,part_1,,,,,,,,,,,,,magenta,hexagon
0.0,1.0,0.0,0.0,4.0,4.0,295.325507000598,1.0,1.0,part_1,,,,,,,,,,,,,white,triangle
389.0,4.0,4.0,0.0,2.0,2.0,260.5222950005554,1.0,1.0,part_1,,,,,,,,,,,,,cyan,diamond
102.0,2.0,2.0,0.0,2.0,2.0,321.7764020000686,1.0,1.0,part_1,,,,,,,,,,,,,orange,circle
405.0,4.0,4.0,0.0,4.0,4.0,286.8551029996524,1.0,1.0,part_1,,,,,,,,,,,,,cyan,diamond
74.0,5.0,1.0,1.0,4.0,4.0,304.6152440001606,1.0,1.0,part_1,,,,,,,,,,,,,gray,square
45.0,5.0,1.0,1.0,3.0,3.0,327.1232019997114,1.0,1.0,part_1,,,,,,,,,,,,,gray,square
96.0,2.0,2.0,0.0,3.0,3.0,501.5659760001654,2.0,1.0,part_1,,,,,,,,,,,,,orange,circle
0.0,8.0,0.0,1.0,3.0,3.0,285.0019620000239,2.0,1.0,part_1,,,,,,,,,,,,,blue,flipped triangle
53.0,1.0,1.0,0.0,1.0,1.0,242.8060820002429,2.0,1.0,part_1,,,,,,,,,,,,,white,triangle
210.0,3.0,3.0,0.0,3.0,3.0,260.6052219998673,2.0,1.0,part_1,,,,,,,,,,,,,green,I
0.0,5.0,0.0,1.0,3.0,3.0,311.0066720000759,2.0,1.0,part_1,,,,,,,,,,,,,gray,square
61.0,1.0,1.0,0.0,4.0,4.0,261.9400140001744,2.0,1.0,part_1,,,,,,,,,,,,,white,triangle
0.0,1.0,0.0,0.0,4.0,4.0,293.428608000795,2.0,1.0,part_1,,,,,,,,,,,,,white,triangle
105.0,6.0,2.0,1.0,2.0,2.0,284.5544119991245,2.0,1.0,part_1,,,,,,,,,,,,,yellow,cross
385.0,4.0,4.0,0.0,1.0,1.0,299.1220410003734,2.0,1.0,part_1,,,,,,,,,,,,,cyan,diamond
179.0,3.0,3.0,0.0,3.0,3.0,254.45069599936681,2.0,1.0,part_1,,,,,,,,,,,,,green,I
389.0,4.0,4.0,0.0,4.0,4.0,220.6929499998295,2.0,1.0,part_1,,,,,,,,,,,,,cyan,diamond
102.0,6.0,2.0,1.0,3.0,3.0,230.484472000171,2.0,1.0,part_1,,,,,,,,,,,,,yellow,cross
0.0,1.0,0.0,0.0,3.0,3.0,286.9877079992875,2.0,1.0,part_1,,,,,,,,,,,,,white,triangle
76.0,6.0,2.0,1.0,2.0,2.0,266.7454470001758,2.0,1.0,part_1,,,,,,,,,,,,,yellow,cross
73.0,1.0,1.0,0.0,1.0,1.0,232.0870640005523,2.0,1.0,part_1,,,,,,,,,,,,,white,triangle
196.0,3.0,3.0,0.0,1.0,1.0,296.5382530001079,2.0,1.0,part_1,,,,,,,,,,,,,green,I
0.0,7.0,0.0,1.0,3.0,3.0,323.1847659999403,2.0,1.0,part_1,,,,,,,,,,,,,magenta,hexagon
180.0,3.0,3.0,0.0,3.0,3.0,288.5320260002117,2.0,1.0,part_1,,,,,,,,,,,,,green,I
38.0,1.0,1.0,0.0,2.0,2.0,309.3060470000637,2.0,1.0,part_1,,,,,,,,,,,,,white,triangle
0.0,3.0,0.0,0.0,3.0,3.0,276.7641890004597,2.0,1.0,part_1,,,,,,,,,,,,,green,I
0.0,6.0,0.0,1.0,2.0,2.0,312.1665030002987,2.0,1.0,part_1,,,,,,,,,,,,,yellow,cross
106.0,2.0,2.0,0.0,3.0,3.0,319.1264830002183,2.0,1.0,part_1,,,,,,,,,,,,,orange,circle
194.0,3.0,3.0,0.0,2.0,2.0,304.1971439997724,2.0,1.0,part_1,,,,,,,,,,,,,green,I
406.0,8.0,4.0,1.0,1.0,1.0,243.0086149997805,2.0,1.0,part_1,,,,,,,,,,,,,blue,flipped triangle
396.0,4.0,4.0,0.0,4.0,4.0,314.2813100002968,2.0,1.0,part_1,,,,,,,,,,,,,cyan,diamond
120.0,6.0,2.0,1.0,1.0,1.0,279.9899020001248,2.0,1.0,part_1,,,,,,,,,,,,,yellow,cross
60.0,1.0,1.0,0.0,4.0,4.0,267.2349000004033,2.0,1.0,part_1,,,,,,,,,,,,,white,triangle
420.0,4.0,4.0,0.0,3.0,3.0,288.0627320000712,2.0,1.0,part_1,,,,,,,,,,,,,cyan,diamond
381.0,8.0,4.0,1.0,1.0,1.0,295.1914800005397,2.0,1.0,part_1,,,,,,,,,,,,,blue,flipped triangle
414.0,4.0,4.0,0.0,4.0,4.0,240.1143249999222,2.0,1.0,part_1,,,,,,,,,,,,,cyan,diamond
419.0,4.0,4.0,0.0,2.0,2.0,276.5518619999056,2.0,1.0,part_1,,,,,,,,,,,,,cyan,diamond
0.0,7.0,0.0,1.0,3.0,3.0,256.6316709999228,2.0,1.0,part_1,,,,,,,,,,,,,magenta,hexagon
0.0,2.0,0.0,0.0,3.0,3.0,294.7444259998519,2.0,1.0,part_1,,,,,,,,,,,,,orange,circle
114.0,2.0,2.0,0.0,2.0,2.0,292.8541920000498,2.0,1.0,part_1,,,,,,,,,,,,,orange,circle
0.0,1.0,0.0,0.0,2.0,2.0,296.1431960002301,2.0,2.0,part_1,,,,,,,,,,,,,white,triangle
37.0,1.0,1.0,0.0,1.0,1.0,381.1559380001199,2.0,1.0,part_1,,,,,,,,,,,,,white,triangle
182.0,7.0,3.0,1.0,4.0,4.0,319.006034999802,2.0,1.0,part_1,,,,,,,,,,,,,magenta,hexagon
212.0,3.0,3.0,0.0,3.0,3.0,331.4055440005177,2.0,1.0,part_1,,,,,,,,,,,,,green,I
0.0,6.0,0.0,1.0,2.0,2.0,311.9467369997437,2.0,1.0,part_1,,,,,,,,,,,,,yellow,cross
385.0,8.0,4.0,1.0,4.0,4.0,257.8011089999563,2.0,1.0,part_1,,,,,,,,,,,,,blue,flipped triangle
196.0,7.0,3.0,1.0,3.0,3.0,305.2300769995781,2.0,1.0,part_1,,,,,,,,,,,,,magenta,hexagon
404.0,4.0,4.0,0.0,4.0,4.0,280.7959640003901,2.0,1.0,part_1,,,,,,,,,,,,,cyan,diamond
408.0,4.0,4.0,0.0,2.0,2.0,295.4415040003368,2.0,1.0,part_1,,,,,,,,,,,,,cyan,diamond
100.0,6.0,2.0,1.0,1.0,1.0,263.1013469999743,2.0,1.0,part_1,,,,,,,,,,,,,yellow,cross
59.0,1.0,1.0,0.0,2.0,2.0,284.0955520005082,2.0,1.0,part_1,,,,,,,,,,,,,white,triangle
415.0,4.0,4.0,0.0,1.0,1.0,266.1802700004045,2.0,1.0,part_1,,,,,,,,,,,,,cyan,diamond
120.0,2.0,2.0,0.0,4.0,4.0,273.3382250007707,2.0,1.0,part_1,,,,,,,,,,,,,orange,circle
66.0,5.0,1.0,1.0,2.0,2.0,248.929503999534,2.0,1.0,part_1,,,,,,,,,,,,,gray,square
393.0,8.0,4.0,1.0,4.0,4.0,281.3049810001757,2.0,1.0,part_1,,,,,,,,,,,,,blue,flipped triangle
410.0,4.0,4.0,0.0,2.0,2.0,275.8782280006926,2.0,1.0,part_1,,,,,,,,,,,,,cyan,diamond
0.0,4.0,0.0,0.0,4.0,4.0,285.6620800002929,2.0,1.0,part_1,,,,,,,,,,,,,cyan,diamond
99.0,6.0,2.0,1.0,3.0,3.0,289.4090070003585,2.0,1.0,part_1,,,,,,,,,,,,,yellow,cross
0.0,4.0,0.0,0.0,1.0,1.0,333.2295890004388,2.0,1.0,part_1,,,,,,,,,,,,,cyan,diamond
419.0,8.0,4.0,1.0,4.0,4.0,261.3169019996348,2.0,1.0,part_1,,,,,,,,,,,,,blue,flipped triangle
377.0,4.0,4.0,0.0,2.0,2.0,274.6305689997825,2.0,1.0,part_1,,,,,,,,,,,,,cyan,diamond
63.0,1.0,1.0,0.0,3.0,3.0,289.210699999785,2.0,1.0,part_1,,,,,,,,,,,,,white,triangle
93.0,2.0,2.0,0.0,4.0,4.0,301.3524709995181,2.0,1.0,part_1,,,,,,,,,,,,,orange,circle
0.0,5.0,0.0,1.0,2.0,2.0,299.6193339995443,2.0,1.0,part_1,,,,,,,,,,,,,gray,square
384.0,8.0,4.0,1.0,3.0,3.0,255.31023599978647,2.0,1.0,part_1,,,,,,,,,,,,,blue,flipped triangle
47.0,5.0,1.0,1.0,3.0,3.0,316.6468610006632,2.0,1.0,part_1,,,,,,,,,,,,,gray,square
59.0,1.0,1.0,0.0,2.0,2.0,276.9530570003553,2.0,1.0,part_1,,,,,,,,,,,,,white,triangle
0.0,3.0,0.0,0.0,4.0,4.0,236.2532669994834,2.0,1.0,part_1,,,,,,,,,,,,,green,I
418.0,4.0,4.0,0.0,1.0,1.0,257.4302599996372,2.0,1.0,part_1,,,,,,,,,,,,,cyan,diamond
121.0,2.0,2.0,0.0,3.0,3.0,306.3085470002988,2.0,1.0,part_1,,,,,,,,,,,,,orange,circle
201.0,3.0,3.0,0.0,2.0,2.0,330.0903700001072,2.0,1.0,part_1,,,,,,,,,,,,,green,I
84.0,6.0,2.0,1.0,3.0,3.0,299.8998909997681,2.0,1.0,part_1,,,,,,,,,,,,,yellow,cross
219.0,3.0,3.0,0.0,1.0,1.0,286.0230020005474,2.0,1.0,part_1,,,,,,,,,,,,,green,I
42.0,5.0,1.0,1.0,3.0,3.0,275.7181450006101,2.0,1.0,part_1,,,,,,,,,,,,,gray,square
76.0,2.0,2.0,0.0,1.0,1.0,301.7103660004068,2.0,1.0,part_1,,,,,,,,,,,,,orange,circle
0.0,2.0,0.0,0.0,3.0,3.0,303.37733699980157,2.0,1.0,part_1,,,,,,,,,,,,,orange,circle
25.0,5.0,1.0,1.0,4.0,4.0,280.2500230000078,2.0,1.0,part_1,,,,,,,,,,,,,gray,square
94.0,2.0,2.0,0.0,2.0,2.0,300.5784260003565,2.0,1.0,part_1,,,,,,,,,,,,,orange,circle
83.0,2.0,2.0,0.0,3.0,3.0,262.2098140000162,2.0,1.0,part_1,,,,,,,,,,,,,orange,circle
218.0,7.0,3.0,1.0,1.0,1.0,327.3456389997591,2.0,1.0,part_1,,,,,,,,,,,,,magenta,hexagon
101.0,6.0,2.0,1.0,4.0,4.0,267.9113099993628,2.0,1.0,part_1,,,,,,,,,,,,,yellow,cross
187.0,3.0,3.0,0.0,4.0,4.0,343.3290169996326,2.0,1.0,part_1,,,,,,,,,,,,,green,I
179.0,7.0,3.0,1.0,1.0,1.0,322.4459670000215,2.0,1.0,part_1,,,,,,,,,,,,,magenta,hexagon
42.0,1.0,1.0,0.0,4.0,4.0,307.114642999295,2.0,1.0,part_1,,,,,,,,,,,,,white,triangle
412.0,8.0,4.0,1.0,3.0,3.0,329.0338430006159,2.0,1.0,part_1,,,,,,,,,,,,,blue,flipped triangle
382.0,4.0,4.0,0.0,4.0,4.0,262.0029930003511,2.0,1.0,part_1,,,,,,,,,,,,,cyan,diamond
52.0,5.0,1.0,1.0,1.0,1.0,397.5081490007142,2.0,1.0,part_1,,,,,,,,,,,,,gray,square
42.0,5.0,1.0,1.0,1.0,1.0,333.1599229995845,2.0,1.0,part_1,,,,,,,,,,,,,gray,square
119.0,2.0,2.0,0.0,1.0,1.0,318.39246999970777,2.0,1.0,part_1,,,,,,,,,,,,,orange,circle
415.0,8.0,4.0,1.0,3.0,3.0,302.0739919993502,2.0,1.0,part_1,,,,,,,,,,,,,blue,flipped triangle
202.0,3.0,3.0,0.0,2.0,2.0,314.4156809994456,2.0,1.0,part_1,,,,,,,,,,,,,green,I
0.0,7.0,0.0,1.0,3.0,3.0,275.7428199993228,2.0,1.0,part_1,,,,,,,,,,,,,magenta,hexagon
205.0,7.0,3.0,1.0,2.0,2.0,294.7889140004918,2.0,1.0,part_1,,,,,,,,,,,,,magenta,hexagon
46.0,1.0,1.0,0.0,3.0,3.0,302.8056290004315,2.0,1.0,part_1,,,,,,,,,,,,,white,triangle
198.0,3.0,3.0,0.0,2.0,2.0,300.3695170000355,2.0,1.0,part_1,,,,,,,,,,,,,green,I
75.0,6.0,2.0,1.0,2.0,2.0,315.9372809996057,2.0,1.0,part_1,,,,,,,,,,,,,yellow,cross
115.0,6.0,2.0,1.0,2.0,2.0,300.345419000223,2.0,1.0,part_1,,,,,,,,,,,,,yellow,cross
36.0,1.0,1.0,0.0,3.0,3.0,316.2621530000251,2.0,1.0,part_1,,,,,,,,,,,,,white,triangle
186.0,7.0,3.0,1.0,4.0,4.0,319.4159750000835,2.0,1.0,part_1,,,,,,,,,,,,,magenta,hexagon
119.0,2.0,2.0,0.0,2.0,2.0,267.0142249999117,2.0,1.0,part_1,,,,,,,,,,,,,orange,circle
74.0,5.0,1.0,1.0,3.0,3.0,255.39081799979613,2.0,1.0,part_1,,,,,,,,,,,,,gray,square
96.0,2.0,2.0,0.0,1.0,1.0,301.1515400003191,2.0,1.0,part_1,,,,,,,,,,,,,orange,circle
194.0,7.0,3.0,1.0,2.0,2.0,267.2898300006636,2.0,1.0,part_1,,,,,,,,,,,,,magenta,hexagon
125.0,2.0,2.0,0.0,4.0,4.0,242.2293870004068,2.0,1.0,part_1,,,,,,,,,,,,,orange,circle
0.0,5.0,0.0,1.0,4.0,4.0,309.8333249999996,2.0,2.0,part_1,,,,,,,,,,,,,gray,square
93.0,6.0,2.0,1.0,3.0,3.0,350.3466819993264,2.0,1.0,part_1,,,,,,,,,,,,,yellow,cross
379.0,4.0,4.0,0.0,1.0,1.0,282.8751170000032,3.0,1.0,part_1,,,,,,,,,,,,,cyan,diamond
42.0,1.0,1.0,0.0,2.0,2.0,245.9127649999573,3.0,1.0,part_1,,,,,,,,,,,,,white,triangle
398.0,4.0,4.0,0.0,3.0,3.0,374.0543330004584,3.0,1.0,part_1,,,,,,,,,,,,,cyan,diamond
0.0,4.0,0.0,0.0,1.0,1.0,291.3091129994427,3.0,1.0,part_1,,,,,,,,,,,,,cyan,diamond
405.0,8.0,4.0,1.0,2.0,2.0,300.3818879997197,3.0,1.0,part_1,,,,,,,,,,,,,blue,flipped triangle
65.0,5.0,1.0,1.0,2.0,2.0,291.3813459999801,3.0,1.0,part_1,,,,,,,,,,,,,gray,square
42.0,5.0,1.0,1.0,1.0,1.0,283.1936279999354,3.0,1.0,part_1,,,,,,,,,,,,,gray,square
0.0,6.0,0.0,1.0,2.0,2.0,236.5016180001475,3.0,1.0,part_1,,,,,,,,,,,,,yellow,cross
52.0,1.0,1.0,0.0,1.0,1.0,307.3447900005703,3.0,1.0,part_1,,,,,,,,,,,,,white,triangle
220.0,7.0,3.0,1.0,4.0,4.0,304.8151720004171,3.0,1.0,part_1,,,,,,,,,,,,,magenta,hexagon
0.0,4.0,0.0,0.0,1.0,1.0,267.7319779995741,3.0,1.0,part_1,,,,,,,,,,,,,cyan,diamond
224.0,3.0,3.0,0.0,4.0,4.0,281.7059229992082,3.0,1.0,part_1,,,,,,,,,,,,,green,I
181.0,7.0,3.0,1.0,1.0,1.0,286.7588930002966,3.0,1.0,part_1,,,,,,,,,,,,,magenta,hexagon
193.0,3.0,3.0,0.0,1.0,1.0,252.6701839997258,3.0,1.0,part_1,,,,,,,,,,,,,green,I
180.0,7.0,3.0,1.0,3.0,3.0,278.0850289991576,3.0,1.0,part_1,,,,,,,,,,,,,magenta,hexagon
31.0,5.0,1.0,1.0,4.0,4.0,279.2519100003119,3.0,1.0,part_1,,,,,,,,,,,,,gray,square
0.0,2.0,0.0,0.0,2.0,2.0,294.8284780004542,3.0,1.0,part_1,,,,,,,,,,,,,orange,circle
206.0,7.0,3.0,1.0,1.0,1.0,238.2935519999591,3.0,1.0,part_1,,,,,,,,,,,,,magenta,hexagon
423.0,8.0,4.0,1.0,4.0,4.0,285.3320439999152,3.0,1.0,part_1,,,,,,,,,,,,,blue,flipped triangle
62.0,5.0,1.0,1.0,4.0,4.0,284.3304529997112,3.0,1.0,part_1,,,,,,,,,,,,,gray,square
402.0,8.0,4.0,1.0,1.0,1.0,233.9760969998678,3.0,1.0,part_1,,,,,,,,,,,,,blue,flipped triangle
202.0,7.0,3.0,1.0,2.0,2.0,255.36054399981361,3.0,1.0,part_1,,,,,,,,,,,,,magenta,hexagon
61.0,1.0,1.0,0.0,3.0,3.0,277.1123530001205,3.0,1.0,part_1,,,,,,,,,,,,,white,triangle
37.0,5.0,1.0,1.0,1.0,1.0,221.9728370000666,3.0,1.0,part_1,,,,,,,,,,,,,gray,square
423.0,4.0,4.0,0.0,1.0,1.0,300.2688009992198,3.0,1.0,part_1,,,,,,,,,,,,,cyan,diamond
25.0,1.0,1.0,0.0,3.0,3.0,304.5740729994577,3.0,1.0,part_1,,,,,,,,,,,,,white,triangle
406.0,4.0,4.0,0.0,3.0,3.0,300.6949519995032,3.0,1.0,part_1,,,,,,,,,,,,,cyan,diamond
47.0,1.0,1.0,0.0,1.0,1.0,254.8574060001556,3.0,1.0,part_1,,,,,,,,,,,,,white,triangle
53.0,1.0,1.0,0.0,2.0,2.0,242.6512160000129,3.0,1.0,part_1,,,,,,,,,,,,,white,triangle
0.0,2.0,0.0,0.0,3.0,3.0,267.169608999211,3.0,1.0,part_1,,,,,,,,,,,,,orange,circle
191.0,3.0,3.0,0.0,1.0,1.0,230.6649860001925,3.0,1.0,part_1,,,,,,,,,,,,,green,I
190.0,3.0,3.0,0.0,4.0,4.0,293.638903000101,3.0,1.0,part_1,,,,,,,,,,,,,green,I
54.0,1.0,1.0,0.0,4.0,4.0,332.2684449994995,3.0,1.0,part_1,,,,,,,,,,,,,white,triangle
193.0,7.0,3.0,1.0,1.0,1.0,254.91520400009898,3.0,1.0,part_1,,,,,,,,,,,,,magenta,hexagon
0.0,1.0,0.0,0.0,4.0,4.0,279.9840460002087,3.0,1.0,part_1,,,,,,,,,,,,,white,triangle
200.0,7.0,3.0,1.0,1.0,1.0,277.8708410005492,3.0,1.0,part_1,,,,,,,,,,,,,magenta,hexagon
177.0,7.0,3.0,1.0,2.0,2.0,284.0206470000339,3.0,1.0,part_1,,,,,,,,,,,,,magenta,hexagon
224.0,7.0,3.0,1.0,2.0,2.0,243.0179069997393,3.0,1.0,part_1,,,,,,,,,,,,,magenta,hexagon
219.0,3.0,3.0,0.0,3.0,3.0,267.4432209996666,3.0,1.0,part_1,,,,,,,,,,,,,green,I
395.0,8.0,4.0,1.0,2.0,2.0,271.7347090001567,3.0,1.0,part_1,,,,,,,,,,,,,blue,flipped triangle
114.0,6.0,2.0,1.0,4.0,4.0,282.3824270008117,3.0,1.0,part_1,,,,,,,,,,,,,yellow,cross
214.0,7.0,3.0,1.0,2.0,2.0,258.9485919997969,3.0,1.0,part_1,,,,,,,,,,,,,magenta,hexagon
115.0,2.0,2.0,0.0,3.0,3.0,263.9093600000706,3.0,1.0,part_1,,,,,,,,,,,,,orange,circle
85.0,2.0,2.0,0.0,3.0,3.0,299.5728599998983,3.0,1.0,part_1,,,,,,,,,,,,,orange,circle
100.0,2.0,2.0,0.0,3.0,3.0,250.8548450005037,3.0,1.0,part_1,,,,,,,,,,,,,orange,circle
218.0,3.0,3.0,0.0,2.0,2.0,259.6384830003444,3.0,1.0,part_1,,,,,,,,,,,,,green,I
119.0,6.0,2.0,1.0,2.0,2.0,264.1187660001378,3.0,1.0,part_1,,,,,,,,,,,,,yellow,cross
0.0,2.0,0.0,0.0,4.0,4.0,276.8314100003408,3.0,1.0,part_1,,,,,,,,,,,,,orange,circle
114.0,2.0,2.0,0.0,1.0,1.0,254.0646820007168,3.0,1.0,part_1,,,,,,,,,,,,,orange,circle
379.0,4.0,4.0,0.0,2.0,2.0,240.9522760008258,3.0,1.0,part_1,,,,,,,,,,,,,cyan,diamond
0.0,6.0,0.0,1.0,3.0,3.0,262.8213899997718,3.0,1.0,part_1,,,,,,,,,,,,,yellow,cross
224.0,3.0,3.0,0.0,2.0,2.0,255.55608600006963,3.0,1.0,part_1,,,,,,,,,,,,,green,I
0.0,4.0,0.0,0.0,2.0,2.0,275.3682379998281,3.0,1.0,part_1,,,,,,,,,,,,,cyan,diamond
0.0,7.0,0.0,1.0,2.0,2.0,254.31944400042988,3.0,1.0,part_1,,,,,,,,,,,,,magenta,hexagon
0.0,8.0,0.0,1.0,4.0,4.0,284.0631990002293,3.0,1.0,part_1,,,,,,,,,,,,,blue,flipped triangle
102.0,2.0,2.0,0.0,3.0,3.0,274.7001609996005,3.0,1.0,part_1,,,,,,,,,,,,,orange,circle
0.0,7.0,0.0,1.0,4.0,4.0,269.861235999997,3.0,1.0,part_1,,,,,,,,,,,,,magenta,hexagon
115.0,2.0,2.0,0.0,1.0,1.0,292.6582950003649,3.0,1.0,part_1,,,,,,,,,,,,,orange,circle
191.0,3.0,3.0,0.0,3.0,3.0,251.12530700062052,3.0,1.0,part_1,,,,,,,,,,,,,green,I
46.0,5.0,1.0,1.0,2.0,2.0,255.3891110001132,3.0,1.0,part_1,,,,,,,,,,,,,gray,square
0.0,3.0,0.0,0.0,3.0,3.0,240.8554079993337,3.0,1.0,part_1,,,,,,,,,,,,,green,I
394.0,8.0,4.0,1.0,1.0,1.0,254.31590999960457,3.0,1.0,part_1,,,,,,,,,,,,,blue,flipped triangle
224.0,7.0,3.0,1.0,3.0,3.0,263.0974849998893,3.0,1.0,part_1,,,,,,,,,,,,,magenta,hexagon
30.0,1.0,1.0,0.0,3.0,3.0,281.2401690007391,3.0,1.0,part_1,,,,,,,,,,,,,white,triangle
64.0,1.0,1.0,0.0,2.0,2.0,242.24612500074718,3.0,1.0,part_1,,,,,,,,,,,,,white,triangle
388.0,8.0,4.0,1.0,2.0,2.0,257.7874130001873,3.0,1.0,part_1,,,,,,,,,,,,,blue,flipped triangle
406.0,4.0,4.0,0.0,3.0,3.0,300.2301350006746,3.0,1.0,part_1,,,,,,,,,,,,,cyan,diamond
123.0,6.0,2.0,1.0,3.0,3.0,261.4099559996248,3.0,1.0,part_1,,,,,,,,,,,,,yellow,cross
110.0,2.0,2.0,0.0,1.0,1.0,262.7477440000803,3.0,1.0,part_1,,,,,,,,,,,,,orange,circle
405.0,4.0,4.0,0.0,2.0,2.0,252.00631600000628,3.0,1.0,part_1,,,,,,,,,,,,,cyan,diamond
0.0,1.0,0.0,0.0,1.0,1.0,272.6229740001145,3.0,1.0,part_1,,,,,,,,,,,,,white,triangle
0.0,8.0,0.0,1.0,1.0,1.0,307.5151419998292,3.0,1.0,part_1,,,,,,,,,,,,,blue,flipped triangle
384.0,4.0,4.0,0.0,2.0,2.0,253.50478000018478,3.0,1.0,part_1,,,,,,,,,,,,,cyan,diamond
421.0,8.0,4.0,1.0,4.0,4.0,322.8118349998112,3.0,1.0,part_1,,,,,,,,,,,,,blue,flipped triangle
187.0,7.0,3.0,1.0,4.0,4.0,339.0081520001331,3.0,1.0,part_1,,,,,,,,,,,,,magenta,hexagon
188.0,7.0,3.0,1.0,2.0,2.0,286.9734880005126,3.0,1.0,part_1,,,,,,,,,,,,,magenta,hexagon
96.0,6.0,2.0,1.0,4.0,4.0,293.9906740002698,3.0,1.0,part_1,,,,,,,,,,,,,yellow,cross
61.0,5.0,1.0,1.0,2.0,2.0,298.7243730003683,3.0,1.0,part_1,,,,,,,,,,,,,gray,square
0.0,5.0,0.0,1.0,1.0,1.0,355.442729999595,3.0,1.0,part_1,,,,,,,,,,,,,gray,square
88.0,6.0,2.0,1.0,4.0,4.0,286.8095099993297,3.0,1.0,part_1,,,,,,,,,,,,,yellow,cross
95.0,6.0,2.0,1.0,3.0,3.0,289.4973769998614,3.0,1.0,part_1,,,,,,,,,,,,,yellow,cross
96.0,6.0,2.0,1.0,2.0,2.0,246.1249750003844,3.0,1.0,part_1,,,,,,,,,,,,,yellow,cross
0.0,7.0,0.0,1.0,2.0,2.0,291.5139319993614,3.0,1.0,part_1,,,,,,,,,,,,,magenta,hexagon
186.0,7.0,3.0,1.0,3.0,3.0,278.8063409998358,3.0,1.0,part_1,,,,,,,,,,,,,magenta,hexagon
0.0,3.0,0.0,0.0,4.0,4.0,295.9411849997195,3.0,1.0,part_1,,,,,,,,,,,,,green,I
49.0,5.0,1.0,1.0,2.0,2.0,285.0169350003853,3.0,1.0,part_1,,,,,,,,,,,,,gray,square
202.0,3.0,3.0,0.0,2.0,2.0,298.8228269996398,3.0,1.0,part_1,,,,,,,,,,,,,green,I
75.0,2.0,2.0,0.0,2.0,2.0,263.6654100006126,3.0,1.0,part_1,,,,,,,,,,,,,orange,circle
397.0,8.0,4.0,1.0,3.0,3.0,335.094539000238,3.0,1.0,part_1,,,,,,,,,,,,,blue,flipped triangle
0.0,5.0,0.0,1.0,3.0,3.0,372.4000129996057,3.0,1.0,part_1,,,,,,,,,,,,,gray,square
406.0,8.0,4.0,1.0,2.0,2.0,266.9692810004562,3.0,1.0,part_1,,,,,,,,,,,,,blue,flipped triangle
209.0,3.0,3.0,0.0,4.0,4.0,285.5311409994101,3.0,1.0,part_1,,,,,,,,,,,,,green,I
79.0,2.0,2.0,0.0,4.0,4.0,279.5802190003087,3.0,1.0,part_1,,,,,,,,,,,,,orange,circle
0.0,8.0,0.0,1.0,2.0,2.0,272.7665349993913,3.0,1.0,part_1,,,,,,,,,,,,,blue,flipped triangle
110.0,6.0,2.0,1.0,4.0,4.0,247.7276130002792,3.0,1.0,part_1,,,,,,,,,,,,,yellow,cross
381.0,4.0,4.0,0.0,4.0,4.0,279.8327729997254,3.0,1.0,part_1,,,,,,,,,,,,,cyan,diamond
79.0,6.0,2.0,1.0,4.0,4.0,307.8434849994664,3.0,1.0,part_1,,,,,,,,,,,,,yellow,cross
388.0,4.0,4.0,0.0,4.0,4.0,285.7105779994526,3.0,1.0,part_1,,,,,,,,,,,,,cyan,diamond
421.0,4.0,4.0,0.0,4.0,4.0,258.3017369997833,3.0,1.0,part_1,,,,,,,,,,,,,cyan,diamond
214.0,3.0,3.0,0.0,4.0,4.0,285.2371740000308,3.0,1.0,part_1,,,,,,,,,,,,,green,I
0.0,6.0,0.0,1.0,2.0,2.0,279.1524129988829,4.0,1.0,part_1,,,,,,,,,,,,,yellow,cross
0.0,2.0,0.0,0.0,1.0,1.0,322.2439509991091,4.0,1.0,part_1,,,,,,,,,,,,,orange,circle
199.0,7.0,3.0,1.0,2.0,2.0,269.9614630000724,4.0,1.0,part_1,,,,,,,,,,,,,magenta,hexagon
125.0,6.0,2.0,1.0,3.0,3.0,318.5411000013118,4.0,1.0,part_1,,,,,,,,,,,,,yellow,cross
83.0,6.0,2.0,1.0,4.0,4.0,270.2791340016119,4.0,1.0,part_1,,,,,,,,,,,,,yellow,cross
92.0,2.0,2.0,0.0,2.0,2.0,281.263155000488,4.0,1.0,part_1,,,,,,,,,,,,,orange,circle
0.0,1.0,0.0,0.0,4.0,4.0,249.6680880012718,4.0,1.0,part_1,,,,,,,,,,,,,white,triangle
114.0,6.0,2.0,1.0,3.0,3.0,270.8504669990361,4.0,1.0,part_1,,,,,,,,,,,,,yellow,cross
219.0,7.0,3.0,1.0,2.0,2.0,286.2704330000269,4.0,1.0,part_1,,,,,,,,,,,,,magenta,hexagon
0.0,3.0,0.0,0.0,2.0,2.0,283.045297001081,4.0,1.0,part_1,,,,,,,,,,,,,green,I
396.0,8.0,4.0,1.0,1.0,1.0,235.719546000837,4.0,1.0,part_1,,,,,,,,,,,,,blue,flipped triangle
0.0,7.0,0.0,1.0,3.0,3.0,242.671361000248,4.0,1.0,part_1,,,,,,,,,,,,,magenta,hexagon
0.0,4.0,0.0,0.0,4.0,4.0,249.284790999809,4.0,1.0,part_1,,,,,,,,,,,,,cyan,diamond
38.0,5.0,1.0,1.0,1.0,1.0,263.0938330003118,4.0,1.0,part_1,,,,,,,,,,,,,gray,square
61.0,5.0,1.0,1.0,3.0,3.0,264.5921889998135,4.0,1.0,part_1,,,,,,,,,,,,,gray,square
0.0,2.0,0.0,0.0,3.0,3.0,288.1211740004801,4.0,1.0,part_1,,,,,,,,,,,,,orange,circle
29.0,5.0,1.0,1.0,1.0,1.0,273.3375199986767,4.0,1.0,part_1,,,,,,,,,,,,,gray,square
191.0,7.0,3.0,1.0,4.0,4.0,265.8504690007248,4.0,1.0,part_1,,,,,,,,,,,,,magenta,hexagon
28.0,1.0,1.0,0.0,1.0,1.0,246.9001289991865,4.0,1.0,part_1,,,,,,,,,,,,,white,triangle
399.0,8.0,4.0,1.0,1.0,1.0,444.2884159998357,4.0,1.0,part_1,,,,,,,,,,,,,blue,flipped triangle
223.0,3.0,3.0,0.0,2.0,2.0,292.7899389997037,4.0,1.0,part_1,,,,,,,,,,,,,green,I
73.0,5.0,1.0,1.0,4.0,4.0,544.0433359999588,4.0,1.0,part_1,,,,,,,,,,,,,gray,square
0.0,8.0,0.0,1.0,4.0,4.0,534.913145000246,4.0,1.0,part_1,,,,,,,,,,,,,blue,flipped triangle
106.0,6.0,2.0,1.0,1.0,1.0,292.9277650000585,4.0,2.0,part_1,,,,,,,,,,,,,yellow,cross
0.0,3.0,0.0,0.0,1.0,1.0,295.1263680006377,4.0,1.0,part_1,,,,,,,,,,,,,green,I
45.0,1.0,1.0,0.0,1.0,1.0,279.0532569997594,4.0,1.0,part_1,,,,,,,,,,,,,white,triangle
212.0,7.0,3.0,1.0,2.0,2.0,317.6456220007821,4.0,1.0,part_1,,,,,,,,,,,,,magenta,hexagon
377.0,8.0,4.0,1.0,3.0,3.0,299.2377679984201,4.0,1.0,part_1,,,,,,,,,,,,,blue,flipped triangle
0.0,3.0,0.0,0.0,3.0,3.0,291.7332500001066,4.0,1.0,part_1,,,,,,,,,,,,,green,I
106.0,6.0,2.0,1.0,1.0,1.0,219.225816999824,4.0,1.0,part_1,,,,,,,,,,,,,yellow,cross
420.0,8.0,4.0,1.0,2.0,2.0,272.2009370008891,4.0,1.0,part_1,,,,,,,,,,,,,blue,flipped triangle
42.0,1.0,1.0,0.0,4.0,4.0,306.6773560003639,4.0,1.0,part_1,,,,,,,,,,,,,white,triangle
49.0,1.0,1.0,0.0,3.0,3.0,302.4695390013221,4.0,1.0,part_1,,,,,,,,,,,,,white,triangle
404.0,8.0,4.0,1.0,4.0,4.0,311.4624539994111,4.0,1.0,part_1,,,,,,,,,,,,,blue,flipped triangle
104.0,2.0,2.0,0.0,4.0,4.0,361.4518369995494,4.0,1.0,part_1,,,,,,,,,,,,,orange,circle
92.0,6.0,2.0,1.0,2.0,2.0,267.3312950009858,4.0,1.0,part_1,,,,,,,,,,,,,yellow,cross
422.0,4.0,4.0,0.0,3.0,3.0,279.3234780001512,4.0,1.0,part_1,,,,,,,,,,,,,cyan,diamond
397.0,4.0,4.0,0.0,1.0,1.0,307.1187139994435,4.0,1.0,part_1,,,,,,,,,,,,,cyan,diamond
379.0,8.0,4.0,1.0,1.0,1.0,285.0754610008152,4.0,1.0,part_1,,,,,,,,,,,,,blue,flipped triangle
119.0,6.0,2.0,1.0,1.0,1.0,221.8810329995904,4.0,1.0,part_1,,,,,,,,,,,,,yellow,cross
0.0,1.0,0.0,0.0,2.0,2.0,273.1088860000454,4.0,1.0,part_1,,,,,,,,,,,,,white,triangle
0.0,2.0,0.0,0.0,2.0,2.0,290.5900119985745,4.0,1.0,part_1,,,,,,,,,,,,,orange,circle
0.0,5.0,0.0,1.0,2.0,2.0,266.2025509998784,4.0,1.0,part_1,,,,,,,,,,,,,gray,square
104.0,6.0,2.0,1.0,1.0,1.0,308.3072829995217,4.0,1.0,part_1,,,,,,,,,,,,,yellow,cross
0.0,4.0,0.0,0.0,1.0,1.0,274.6591750001244,4.0,1.0,part_1,,,,,,,,,,,,,cyan,diamond
418.0,4.0,4.0,0.0,3.0,3.0,267.5873570005933,4.0,1.0,part_1,,,,,,,,,,,,,cyan,diamond
199.0,3.0,3.0,0.0,3.0,3.0,317.894662000981,4.0,1.0,part_1,,,,,,,,,,,,,green,I
182.0,3.0,3.0,0.0,4.0,4.0,305.0970310014236,4.0,1.0,part_1,,,,,,,,,,,,,green,I
114.0,2.0,2.0,0.0,1.0,1.0,259.916068000166,4.0,1.0,part_1,,,,,,,,,,,,,orange,circle
385.0,4.0,4.0,0.0,3.0,3.0,250.3474789991742,4.0,1.0,part_1,,,,,,,,,,,,,cyan,diamond
189.0,7.0,3.0,1.0,4.0,4.0,342.6644060000399,4.0,2.0,part_1,,,,,,,,,,,,,magenta,hexagon
402.0,8.0,4.0,1.0,2.0,2.0,278.9895540008729,4.0,1.0,part_1,,,,,,,,,,,,,blue,flipped triangle
389.0,8.0,4.0,1.0,3.0,3.0,281.3400729992281,4.0,1.0,part_1,,,,,,,,,,,,,blue,flipped triangle
408.0,8.0,4.0,1.0,4.0,4.0,337.1352080012002,4.0,1.0,part_1,,,,,,,,,,,,,blue,flipped triangle
186.0,3.0,3.0,0.0,4.0,4.0,315.3712109997286,4.0,1.0,part_1,,,,,,,,,,,,,green,I
394.0,4.0,4.0,0.0,2.0,2.0,316.1362640003062,4.0,1.0,part_1,,,,,,,,,,,,,cyan,diamond
209.0,7.0,3.0,1.0,1.0,1.0,281.8949619995692,4.0,1.0,part_1,,,,,,,,,,,,,magenta,hexagon
410.0,8.0,4.0,1.0,4.0,4.0,272.6652220007963,4.0,1.0,part_1,,,,,,,,,,,,,blue,flipped triangle
190.0,7.0,3.0,1.0,3.0,3.0,281.8866620000335,4.0,1.0,part_1,,,,,,,,,,,,,magenta,hexagon
205.0,3.0,3.0,0.0,2.0,2.0,286.3314900005207,4.0,1.0,part_1,,,,,,,,,,,,,green,I
96.0,2.0,2.0,0.0,1.0,1.0,353.0116239999188,4.0,1.0,part_1,,,,,,,,,,,,,orange,circle
379.0,8.0,4.0,1.0,2.0,2.0,310.603452999203,4.0,1.0,part_1,,,,,,,,,,,,,blue,flipped triangle
74.0,1.0,1.0,0.0,4.0,4.0,302.9869399997551,4.0,1.0,part_1,,,,,,,,,,,,,white,triangle
86.0,6.0,2.0,1.0,4.0,4.0,324.9342099989007,4.0,1.0,part_1,,,,,,,,,,,,,yellow,cross
115.0,6.0,2.0,1.0,2.0,2.0,302.0487879985012,4.0,1.0,part_1,,,,,,,,,,,,,yellow,cross
406.0,4.0,4.0,0.0,1.0,1.0,305.2857450002193,4.0,1.0,part_1,,,,,,,,,,,,,cyan,diamond
69.0,5.0,1.0,1.0,3.0,3.0,290.7805590002681,4.0,1.0,part_1,,,,,,,,,,,,,gray,square
196.0,3.0,3.0,0.0,1.0,1.0,279.9457600012829,4.0,1.0,part_1,,,,,,,,,,,,,green,I
0.0,3.0,0.0,0.0,1.0,1.0,276.5510399985942,4.0,1.0,part_1,,,,,,,,,,,,,green,I
0.0,8.0,0.0,1.0,2.0,2.0,280.5009170006087,4.0,1.0,part_1,,,,,,,,,,,,,blue,flipped triangle
85.0,6.0,2.0,1.0,1.0,1.0,286.3016979990789,4.0,1.0,part_1,,,,,,,,,,,,,yellow,cross
0.0,3.0,0.0,0.0,2.0,2.0,387.1896710006695,4.0,2.0,part_1,,,,,,,,,,,,,green,I
121.0,6.0,2.0,1.0,2.0,2.0,302.3632869990251,4.0,1.0,part_1,,,,,,,,,,,,,yellow,cross
59.0,5.0,1.0,1.0,2.0,2.0,358.8661119993048,4.0,1.0,part_1,,,,,,,,,,,,,gray,square
402.0,4.0,4.0,0.0,3.0,3.0,300.6238920006581,4.0,1.0,part_1,,,,,,,,,,,,,cyan,diamond
36.0,5.0,1.0,1.0,2.0,2.0,310.5379400003585,4.0,1.0,part_1,,,,,,,,,,,,,gray,square
0.0,1.0,0.0,0.0,1.0,1.0,317.8910610004095,4.0,1.0,part_1,,,,,,,,,,,,,white,triangle
55.0,1.0,1.0,0.0,1.0,1.0,291.3248969998676,4.0,1.0,part_1,,,,,,,,,,,,,white,triangle
88.0,2.0,2.0,0.0,3.0,3.0,317.991180001627,4.0,1.0,part_1,,,,,,,,,,,,,orange,circle
69.0,1.0,1.0,0.0,4.0,4.0,293.3970720005163,4.0,1.0,part_1,,,,,,,,,,,,,white,triangle
0.0,8.0,0.0,1.0,2.0,2.0,304.9724100001185,4.0,1.0,part_1,,,,,,,,,,,,,blue,flipped triangle
33.0,1.0,1.0,0.0,1.0,1.0,284.2701640001905,4.0,1.0,part_1,,,,,,,,,,,,,white,triangle
26.0,1.0,1.0,0.0,3.0,3.0,257.0563070003118,4.0,1.0,part_1,,,,,,,,,,,,,white,triangle
0.0,5.0,0.0,1.0,3.0,3.0,288.1631239997659,4.0,1.0,part_1,,,,,,,,,,,,,gray,square
177.0,3.0,3.0,0.0,1.0,1.0,343.0065310003556,4.0,1.0,part_1,,,,,,,,,,,,,green,I
224.0,3.0,3.0,0.0,3.0,3.0,288.8479069988534,4.0,1.0,part_1,,,,,,,,,,,,,green,I
29.0,1.0,1.0,0.0,4.0,4.0,312.2863170010532,4.0,1.0,part_1,,,,,,,,,,,,,white,triangle
0.0,6.0,0.0,1.0,2.0,2.0,303.3819850006694,4.0,1.0,part_1,,,,,,,,,,,,,yellow,cross
55.0,5.0,1.0,1.0,3.0,3.0,317.5499489989306,4.0,1.0,part_1,,,,,,,,,,,,,gray,square
74.0,1.0,1.0,0.0,4.0,4.0,513.2547140001407,4.0,1.0,part_1,,,,,,,,,,,,,white,triangle
101.0,2.0,2.0,0.0,4.0,4.0,568.7744900005782,4.0,1.0,part_1,,,,,,,,,,,,,orange,circle
95.0,6.0,2.0,1.0,3.0,3.0,277.5205219986674,4.0,1.0,part_1,,,,,,,,,,,,,yellow,cross
0.0,8.0,0.0,1.0,4.0,4.0,331.4534420005657,4.0,1.0,part_1,,,,,,,,,,,,,blue,flipped triangle
54.0,5.0,1.0,1.0,4.0,4.0,312.170490000426,4.0,1.0,part_1,,,,,,,,,,,,,gray,square
95.0,2.0,2.0,0.0,2.0,2.0,348.8973040002747,4.0,1.0,part_1,,,,,,,,,,,,,orange,circle
418.0,8.0,4.0,1.0,4.0,4.0,346.3532900004793,4.0,1.0,part_1,,,,,,,,,,,,,blue,flipped triangle
219.0,7.0,3.0,1.0,1.0,1.0,335.9237640015635,4.0,1.0,part_1,,,,,,,,,,,,,magenta,hexagon
37.0,5.0,1.0,1.0,4.0,4.0,292.1381140004087,4.0,1.0,part_1,,,,,,,,,,,,,gray,square
31.0,1.0,1.0,0.0,2.0,2.0,435.6912879993615,4.0,1.0,part_1,,,,,,,,,,,,,white,triangle
59.0,5.0,1.0,1.0,4.0,4.0,499.3657599989092,4.0,1.0,part_1,,,,,,,,,,,,,gray,square
0.0,4.0,4.0,0.0,6.0,6.0,403.9056880010321,1.0,0.0,part_2,go,250.0,250.0,1.0,,,,,,,,,cyan,diamond
0.0,2.0,2.0,0.0,5.0,5.0,411.4093900006992,1.0,0.0,part_2,go,250.0,250.0,1.0,,,,,,,,,orange,circle
0.0,7.0,3.0,1.0,5.0,5.0,733.7400560008973,1.0,0.0,part_2,go,250.0,250.0,1.0,,,,,,,,,magenta,hexagon
0.0,2.0,2.0,0.0,6.0,6.0,307.2631309987628,1.0,0.0,part_2,go,250.0,250.0,1.0,,,,,,,,,orange,circle
0.0,4.0,4.0,0.0,6.0,6.0,324.9362389997259,1.0,0.0,part_2,go,250.0,250.0,1.0,,,,,,,,,cyan,diamond
0.0,7.0,3.0,1.0,5.0,5.0,389.2595610013813,1.0,0.0,part_2,go,250.0,250.0,1.0,,,,,,,,,magenta,hexagon
0.0,8.0,4.0,1.0,5.0,0.0,0.0,1.0,0.0,part_2,stop,250.0,250.0,4.0,,,,,,,,,blue,flipped triangle
0.0,5.0,1.0,1.0,6.0,6.0,524.6544439996796,1.0,0.0,part_2,stop,300.0,250.0,3.0,,,,,,,,,gray,square
0.0,5.0,1.0,1.0,5.0,5.0,618.6252890001924,1.0,0.0,part_2,go,300.0,200.0,1.0,,,,,,,,,gray,square
0.0,4.0,4.0,0.0,5.0,5.0,532.7889529999084,1.0,0.0,part_2,go,300.0,200.0,1.0,,,,,,,,,cyan,diamond
0.0,3.0,3.0,0.0,5.0,5.0,472.8354469989426,1.0,0.0,part_2,go,300.0,200.0,1.0,,,,,,,,,green,I
0.0,4.0,4.0,0.0,5.0,5.0,421.0407640002813,1.0,0.0,part_2,go,300.0,200.0,1.0,,,,,,,,,cyan,diamond
0.0,7.0,3.0,1.0,5.0,0.0,0.0,1.0,0.0,part_2,stop,300.0,200.0,4.0,,,,,,,,,magenta,hexagon
0.0,7.0,3.0,1.0,6.0,0.0,0.0,1.0,0.0,part_2,stop,350.0,200.0,4.0,,,,,,,,,magenta,hexagon
0.0,6.0,2.0,1.0,6.0,6.0,459.2236320004303,1.0,0.0,part_2,go,350.0,250.0,1.0,,,,,,,,,yellow,cross
0.0,8.0,4.0,1.0,6.0,0.0,0.0,1.0,0.0,part_2,stop,350.0,250.0,4.0,,,,,,,,,blue,flipped triangle
0.0,8.0,4.0,1.0,6.0,6.0,341.9407090004824,1.0,0.0,part_2,stop,350.0,300.0,3.0,,,,,,,,,blue,flipped triangle
0.0,4.0,4.0,0.0,6.0,6.0,671.5460420000454,1.0,0.0,part_2,go,350.0,250.0,1.0,,,,,,,,,cyan,diamond
0.0,7.0,3.0,1.0,5.0,0.0,0.0,1.0,0.0,part_2,stop,350.0,250.0,4.0,,,,,,,,,magenta,hexagon
0.0,3.0,3.0,0.0,5.0,5.0,558.3499360000133,1.0,0.0,part_2,go,400.0,250.0,1.0,,,,,,,,,green,I
0.0,2.0,2.0,0.0,5.0,5.0,583.1363069992221,1.0,0.0,part_2,go,400.0,250.0,1.0,,,,,,,,,orange,circle
0.0,8.0,4.0,1.0,5.0,5.0,537.4436330002936,1.0,0.0,part_2,stop,400.0,250.0,3.0,,,,,,,,,blue,flipped triangle
0.0,5.0,1.0,1.0,5.0,0.0,0.0,1.0,0.0,part_2,stop,350.0,250.0,4.0,,,,,,,,,gray,square
0.0,5.0,1.0,1.0,5.0,0.0,0.0,1.0,0.0,part_2,stop,400.0,250.0,4.0,,,,,,,,,gray,square
0.0,6.0,2.0,1.0,5.0,5.0,503.5837739997078,1.0,0.0,part_2,go,450.0,250.0,1.0,,,,,,,,,yellow,cross
0.0,5.0,1.0,1.0,6.0,6.0,866.4976799991564,1.0,0.0,part_2,go,450.0,250.0,1.0,,,,,,,,,gray,square
0.0,8.0,4.0,1.0,5.0,0.0,0.0,1.0,0.0,part_2,stop,450.0,250.0,4.0,,,,,,,,,blue,flipped triangle
0.0,5.0,1.0,1.0,6.0,6.0,669.7946369986312,1.0,0.0,part_2,go,500.0,250.0,1.0,,,,,,,,,gray,square
0.0,3.0,3.0,0.0,5.0,5.0,837.535222999577,1.0,0.0,part_2,go,500.0,250.0,1.0,,,,,,,,,green,I
0.0,4.0,4.0,0.0,5.0,5.0,638.3530030016118,1.0,0.0,part_2,go,500.0,250.0,1.0,,,,,,,,,cyan,diamond
0.0,2.0,2.0,0.0,6.0,6.0,700.7865089999541,1.0,0.0,part_2,go,500.0,250.0,1.0,,,,,,,,,orange,circle
0.0,8.0,4.0,1.0,5.0,5.0,569.1403720011294,1.0,0.0,part_2,go,500.0,250.0,1.0,,,,,,,,,blue,flipped triangle
0.0,6.0,2.0,1.0,5.0,0.0,0.0,1.0,0.0,part_2,stop,500.0,250.0,4.0,,,,,,,,,yellow,cross
0.0,5.0,1.0,1.0,6.0,0.0,0.0,1.0,0.0,part_2,stop,550.0,250.0,4.0,,,,,,,,,gray,square
0.0,5.0,1.0,1.0,6.0,0.0,0.0,1.0,0.0,part_2,stop,550.0,300.0,4.0,,,,,,,,,gray,square
0.0,3.0,3.0,0.0,6.0,6.0,803.271284999937,1.0,0.0,part_2,go,550.0,350.0,1.0,,,,,,,,,green,I
0.0,1.0,1.0,0.0,6.0,6.0,589.1396169990912,2.0,0.0,part_2,go,550.0,350.0,1.0,,,,,,,,,white,triangle
0.0,5.0,1.0,1.0,6.0,6.0,386.7416289995162,2.0,0.0,part_2,stop,550.0,350.0,3.0,,,,,,,,,gray,square
0.0,3.0,3.0,0.0,5.0,5.0,748.7437380004849,2.0,0.0,part_2,go,550.0,300.0,1.0,,,,,,,,,green,I
0.0,7.0,3.0,1.0,5.0,0.0,0.0,2.0,0.0,part_2,stop,550.0,300.0,4.0,,,,,,,,,magenta,hexagon
0.0,6.0,2.0,1.0,6.0,0.0,0.0,2.0,0.0,part_2,stop,600.0,300.0,4.0,,,,,,,,,yellow,cross
0.0,1.0,1.0,0.0,6.0,6.0,788.2715979994828,2.0,0.0,part_2,go,600.0,350.0,1.0,,,,,,,,,white,triangle
0.0,4.0,4.0,0.0,6.0,6.0,754.1683859999466,2.0,0.0,part_2,go,600.0,350.0,1.0,,,,,,,,,cyan,diamond
0.0,5.0,1.0,1.0,6.0,0.0,0.0,2.0,0.0,part_2,stop,600.0,350.0,4.0,,,,,,,,,gray,square
0.0,4.0,4.0,0.0,6.0,6.0,818.0197060009959,2.0,0.0,part_2,go,600.0,400.0,1.0,,,,,,,,,cyan,diamond
0.0,5.0,1.0,1.0,6.0,0.0,0.0,2.0,0.0,part_2,stop,600.0,400.0,4.0,,,,,,,,,gray,square
0.0,1.0,1.0,0.0,5.0,5.0,748.8795230001415,2.0,0.0,part_2,go,600.0,450.0,1.0,,,,,,,,,white,triangle
0.0,5.0,1.0,1.0,6.0,0.0,0.0,2.0,0.0,part_2,stop,600.0,450.0,4.0,,,,,,,,,gray,square
0.0,5.0,1.0,1.0,5.0,5.0,293.0395220009814,2.0,0.0,part_2,stop,600.0,500.0,3.0,,,,,,,,,gray,square
0.0,1.0,1.0,0.0,6.0,6.0,608.9525049992517,2.0,0.0,part_2,go,550.0,500.0,1.0,,,,,,,,,white,triangle
0.0,8.0,4.0,1.0,5.0,5.0,652.2998549990007,2.0,0.0,part_2,stop,550.0,500.0,3.0,,,,,,,,,blue,flipped triangle
0.0,3.0,3.0,0.0,6.0,6.0,605.9917459988355,2.0,0.0,part_2,go,500.0,500.0,1.0,,,,,,,,,green,I
0.0,2.0,2.0,0.0,6.0,6.0,754.1874369999277,2.0,0.0,part_2,go,500.0,500.0,1.0,,,,,,,,,orange,circle
0.0,1.0,1.0,0.0,5.0,5.0,855.519884999012,2.0,0.0,part_2,go,500.0,500.0,1.0,,,,,,,,,white,triangle
0.0,8.0,4.0,1.0,5.0,0.0,0.0,2.0,0.0,part_2,stop,500.0,500.0,4.0,,,,,,,,,blue,flipped triangle
0.0,4.0,4.0,0.0,6.0,6.0,836.703339999076,2.0,0.0,part_2,go,550.0,500.0,1.0,,,,,,,,,cyan,diamond
0.0,3.0,3.0,0.0,6.0,6.0,462.8167169994412,2.0,0.0,part_2,go,550.0,500.0,1.0,,,,,,,,,green,I
0.0,7.0,3.0,1.0,6.0,0.0,0.0,2.0,0.0,part_2,stop,550.0,500.0,4.0,,,,,,,,,magenta,hexagon
0.0,2.0,2.0,0.0,5.0,5.0,1067.058436001389,2.0,0.0,part_2,go,550.0,550.0,1.0,,,,,,,,,orange,circle
0.0,5.0,1.0,1.0,5.0,0.0,0.0,2.0,0.0,part_2,stop,550.0,550.0,4.0,,,,,,,,,gray,square
0.0,2.0,2.0,0.0,6.0,6.0,540.9381279987429,2.0,0.0,part_2,go,600.0,550.0,1.0,,,,,,,,,orange,circle
0.0,7.0,3.0,1.0,5.0,0.0,0.0,2.0,0.0,part_2,stop,600.0,550.0,4.0,,,,,,,,,magenta,hexagon
0.0,6.0,2.0,1.0,5.0,5.0,698.7529180005367,2.0,0.0,part_2,go,650.0,550.0,1.0,,,,,,,,,yellow,cross
0.0,3.0,3.0,0.0,6.0,6.0,793.6358309998468,2.0,0.0,part_2,go,650.0,550.0,1.0,,,,,,,,,green,I
0.0,3.0,3.0,0.0,6.0,6.0,667.9009100007534,2.0,0.0,part_2,go,650.0,550.0,1.0,,,,,,,,,green,I
0.0,4.0,4.0,0.0,5.0,5.0,302.3911620002764,2.0,0.0,part_2,go,650.0,550.0,1.0,,,,,,,,,cyan,diamond
0.0,3.0,3.0,0.0,5.0,5.0,879.7329349999927,2.0,0.0,part_2,go,650.0,550.0,1.0,,,,,,,,,green,I
0.0,5.0,1.0,1.0,5.0,0.0,0.0,2.0,0.0,part_2,stop,650.0,550.0,4.0,,,,,,,,,gray,square
0.0,2.0,2.0,0.0,6.0,6.0,698.0615440006659,2.0,0.0,part_2,go,700.0,550.0,1.0,,,,,,,,,orange,circle
0.0,3.0,3.0,0.0,6.0,6.0,629.552774998956,2.0,0.0,part_2,go,700.0,550.0,1.0,,,,,,,,,green,I
0.0,4.0,4.0,0.0,5.0,5.0,952.0387199991092,2.0,0.0,part_2,go,700.0,550.0,1.0,,,,,,,,,cyan,diamond
0.0,2.0,2.0,0.0,6.0,6.0,410.3119659994263,2.0,0.0,part_2,go,700.0,550.0,1.0,,,,,,,,,orange,circle
0.0,5.0,1.0,1.0,6.0,6.0,375.466082999992,3.0,0.0,part_2,go,700.0,550.0,1.0,,,,,,,,,gray,square
0.0,1.0,1.0,0.0,6.0,6.0,444.4696669997938,3.0,0.0,part_2,go,700.0,550.0,1.0,,,,,,,,,white,triangle
0.0,6.0,2.0,1.0,6.0,6.0,322.0644029988762,3.0,0.0,part_2,stop,700.0,550.0,3.0,,,,,,,,,yellow,cross
0.0,7.0,3.0,1.0,5.0,5.0,480.1229759996204,3.0,0.0,part_2,go,700.0,500.0,1.0,,,,,,,,,magenta,hexagon
0.0,8.0,4.0,1.0,6.0,6.0,461.6015430001425,3.0,0.0,part_2,stop,700.0,500.0,3.0,,,,,,,,,blue,flipped triangle
0.0,4.0,4.0,0.0,5.0,5.0,664.0071749989147,3.0,0.0,part_2,go,700.0,450.0,1.0,,,,,,,,,cyan,diamond
0.0,8.0,4.0,1.0,6.0,6.0,499.6023590010736,3.0,0.0,part_2,stop,700.0,450.0,3.0,,,,,,,,,blue,flipped triangle
0.0,5.0,1.0,1.0,5.0,5.0,834.623721000753,3.0,0.0,part_2,stop,700.0,400.0,3.0,,,,,,,,,gray,square
0.0,8.0,4.0,1.0,6.0,0.0,0.0,3.0,0.0,part_2,stop,650.0,400.0,4.0,,,,,,,,,blue,flipped triangle
0.0,3.0,3.0,0.0,6.0,6.0,675.2892960012105,3.0,0.0,part_2,go,650.0,450.0,1.0,,,,,,,,,green,I
0.0,8.0,4.0,1.0,5.0,5.0,572.3273910007265,3.0,0.0,part_2,stop,650.0,450.0,3.0,,,,,,,,,blue,flipped triangle
0.0,1.0,1.0,0.0,6.0,6.0,886.8200529996102,3.0,0.0,part_2,go,600.0,450.0,1.0,,,,,,,,,white,triangle
0.0,4.0,4.0,0.0,6.0,6.0,829.344834000949,3.0,0.0,part_2,go,600.0,450.0,1.0,,,,,,,,,cyan,diamond
0.0,4.0,4.0,0.0,5.0,5.0,783.7303070009511,3.0,0.0,part_2,go,600.0,450.0,1.0,,,,,,,,,cyan,diamond
0.0,6.0,2.0,1.0,6.0,0.0,0.0,3.0,0.0,part_2,stop,600.0,450.0,4.0,,,,,,,,,yellow,cross
0.0,2.0,2.0,0.0,6.0,6.0,531.6550309999002,3.0,0.0,part_2,go,600.0,500.0,1.0,,,,,,,,,orange,circle
0.0,2.0,2.0,0.0,6.0,6.0,688.5144240004593,3.0,0.0,part_2,go,600.0,500.0,1.0,,,,,,,,,orange,circle
0.0,2.0,2.0,0.0,6.0,6.0,746.295242000997,3.0,0.0,part_2,go,600.0,500.0,1.0,,,,,,,,,orange,circle
0.0,7.0,3.0,1.0,6.0,0.0,0.0,3.0,0.0,part_2,stop,600.0,500.0,4.0,,,,,,,,,magenta,hexagon
0.0,6.0,2.0,1.0,6.0,0.0,0.0,3.0,0.0,part_2,stop,600.0,550.0,4.0,,,,,,,,,yellow,cross
0.0,5.0,1.0,1.0,5.0,0.0,0.0,3.0,0.0,part_2,stop,600.0,600.0,4.0,,,,,,,,,gray,square
0.0,4.0,4.0,0.0,5.0,5.0,749.6723410004051,3.0,0.0,part_2,go,650.0,600.0,1.0,,,,,,,,,cyan,diamond
0.0,3.0,3.0,0.0,5.0,5.0,417.2304559997428,3.0,0.0,part_2,go,650.0,600.0,1.0,,,,,,,,,green,I
0.0,7.0,3.0,1.0,6.0,0.0,0.0,3.0,0.0,part_2,stop,650.0,600.0,4.0,,,,,,,,,magenta,hexagon
0.0,4.0,4.0,0.0,6.0,6.0,1038.660920999973,3.0,0.0,part_2,go,650.0,650.0,1.0,,,,,,,,,cyan,diamond
0.0,7.0,3.0,1.0,5.0,5.0,284.5045419999223,3.0,0.0,part_2,stop,650.0,650.0,3.0,,,,,,,,,magenta,hexagon
0.0,6.0,2.0,1.0,6.0,0.0,0.0,3.0,0.0,part_2,stop,600.0,650.0,4.0,,,,,,,,,yellow,cross
0.0,1.0,1.0,0.0,5.0,5.0,841.5066470006423,3.0,0.0,part_2,go,600.0,700.0,1.0,,,,,,,,,white,triangle
0.0,2.0,2.0,0.0,6.0,6.0,727.5564480005414,3.0,0.0,part_2,go,600.0,700.0,1.0,,,,,,,,,orange,circle
0.0,1.0,1.0,0.0,5.0,5.0,284.5182509990991,3.0,0.0,part_2,go,600.0,700.0,1.0,,,,,,,,,white,triangle
0.0,1.0,1.0,0.0,5.0,5.0,839.9387479985307,3.0,0.0,part_2,go,600.0,700.0,1.0,,,,,,,,,white,triangle
0.0,1.0,1.0,0.0,5.0,5.0,929.7908680000546,3.0,0.0,part_2,go,600.0,700.0,1.0,,,,,,,,,white,triangle
0.0,7.0,3.0,1.0,5.0,5.0,333.2930159995158,3.0,0.0,part_2,stop,600.0,700.0,3.0,,,,,,,,,magenta,hexagon
0.0,7.0,3.0,1.0,6.0,0.0,0.0,3.0,0.0,part_2,stop,550.0,700.0,4.0,,,,,,,,,magenta,hexagon
0.0,7.0,3.0,1.0,5.0,5.0,1036.7024850002051,3.0,0.0,part_2,go,550.0,750.0,1.0,,,,,,,,,magenta,hexagon
0.0,5.0,1.0,1.0,5.0,0.0,0.0,3.0,0.0,part_2,stop,550.0,750.0,4.0,,,,,,,,,gray,square
0.0,6.0,2.0,1.0,6.0,6.0,427.5111449987889,4.0,0.0,part_2,stop,600.0,750.0,3.0,,,,,,,,,yellow,cross
0.0,6.0,2.0,1.0,5.0,5.0,352.3712950009212,4.0,0.0,part_2,stop,600.0,700.0,3.0,,,,,,,,,yellow,cross
0.0,2.0,2.0,0.0,6.0,6.0,767.716147000101,4.0,0.0,part_2,go,550.0,700.0,1.0,,,,,,,,,orange,circle
0.0,4.0,4.0,0.0,6.0,5.0,324.7895999993488,4.0,0.0,part_2,go,550.0,700.0,2.0,,,,,,,,,cyan,diamond
0.0,2.0,2.0,0.0,5.0,5.0,521.3677939991612,4.0,0.0,part_2,go,550.0,700.0,1.0,,,,,,,,,orange,circle
0.0,5.0,1.0,1.0,6.0,6.0,660.5005040000833,4.0,0.0,part_2,stop,550.0,700.0,3.0,,,,,,,,,gray,square
0.0,6.0,2.0,1.0,5.0,5.0,444.8208419998991,4.0,0.0,part_2,stop,550.0,650.0,3.0,,,,,,,,,yellow,cross
0.0,3.0,3.0,0.0,5.0,5.0,687.0180519999849,4.0,0.0,part_2,go,500.0,650.0,1.0,,,,,,,,,green,I
0.0,2.0,2.0,0.0,5.0,5.0,281.9926320007653,4.0,0.0,part_2,go,500.0,650.0,1.0,,,,,,,,,orange,circle
0.0,1.0,1.0,0.0,6.0,6.0,269.7418530005961,4.0,0.0,part_2,go,500.0,650.0,1.0,,,,,,,,,white,triangle
0.0,7.0,3.0,1.0,6.0,6.0,318.6950359995535,4.0,0.0,part_2,stop,500.0,650.0,3.0,,,,,,,,,magenta,hexagon
0.0,2.0,2.0,0.0,5.0,5.0,460.5852820004656,4.0,0.0,part_2,go,500.0,600.0,1.0,,,,,,,,,orange,circle
0.0,7.0,3.0,1.0,6.0,6.0,548.254758999974,4.0,0.0,part_2,stop,500.0,600.0,3.0,,,,,,,,,magenta,hexagon
0.0,5.0,1.0,1.0,5.0,0.0,0.0,4.0,0.0,part_2,stop,500.0,550.0,4.0,,,,,,,,,gray,square
0.0,7.0,3.0,1.0,6.0,6.0,960.113207998802,4.0,0.0,part_2,go,550.0,550.0,1.0,,,,,,,,,magenta,hexagon
0.0,1.0,1.0,0.0,5.0,5.0,448.2611399998859,4.0,0.0,part_2,go,550.0,550.0,1.0,,,,,,,,,white,triangle
0.0,2.0,2.0,0.0,5.0,5.0,324.1482470002665,4.0,0.0,part_2,go,550.0,550.0,1.0,,,,,,,,,orange,circle
0.0,2.0,2.0,0.0,6.0,6.0,248.1035780001548,4.0,0.0,part_2,go,550.0,550.0,1.0,,,,,,,,,orange,circle
0.0,3.0,3.0,0.0,6.0,6.0,449.0558580000652,4.0,0.0,part_2,go,550.0,550.0,1.0,,,,,,,,,green,I
0.0,1.0,1.0,0.0,6.0,0.0,0.0,4.0,0.0,part_2,go,550.0,550.0,5.0,,,,,,,,,white,triangle
0.0,7.0,3.0,1.0,5.0,5.0,508.46649699997215,4.0,0.0,part_2,stop,550.0,550.0,3.0,,,,,,,,,magenta,hexagon
0.0,4.0,4.0,0.0,5.0,5.0,892.5781239995558,4.0,0.0,part_2,go,500.0,550.0,1.0,,,,,,,,,cyan,diamond
0.0,6.0,2.0,1.0,6.0,6.0,317.0024999999441,4.0,0.0,part_2,stop,500.0,550.0,3.0,,,,,,,,,yellow,cross
0.0,6.0,2.0,1.0,5.0,0.0,0.0,4.0,0.0,part_2,stop,500.0,500.0,4.0,,,,,,,,,yellow,cross
0.0,4.0,4.0,0.0,6.0,6.0,724.4902549991821,4.0,0.0,part_2,go,550.0,500.0,1.0,,,,,,,,,cyan,diamond
0.0,6.0,2.0,1.0,5.0,5.0,461.0511880000558,4.0,0.0,part_2,go,550.0,500.0,1.0,,,,,,,,,yellow,cross
0.0,6.0,2.0,1.0,6.0,6.0,565.3182860005472,4.0,0.0,part_2,stop,550.0,500.0,3.0,,,,,,,,,yellow,cross
0.0,7.0,3.0,1.0,5.0,0.0,0.0,4.0,0.0,part_2,stop,550.0,450.0,4.0,,,,,,,,,magenta,hexagon
0.0,3.0,3.0,0.0,6.0,6.0,655.7898029986973,4.0,0.0,part_2,go,600.0,450.0,1.0,,,,,,,,,green,I
0.0,5.0,1.0,1.0,6.0,6.0,588.4186719995341,4.0,0.0,part_2,stop,600.0,450.0,3.0,,,,,,,,,gray,square
0.0,2.0,2.0,0.0,6.0,6.0,624.15360399973,4.0,0.0,part_2,go,600.0,400.0,1.0,,,,,,,,,orange,circle
0.0,2.0,2.0,0.0,6.0,6.0,328.9933299984113,4.0,0.0,part_2,go,600.0,400.0,1.0,,,,,,,,,orange,circle
0.0,7.0,3.0,1.0,6.0,6.0,437.7797300003294,4.0,0.0,part_2,stop,600.0,400.0,3.0,,,,,,,,,magenta,hexagon
0.0,4.0,4.0,0.0,6.0,6.0,686.6784379999444,4.0,0.0,part_2,go,600.0,350.0,1.0,,,,,,,,,cyan,diamond
0.0,6.0,2.0,1.0,6.0,6.0,481.5428059991973,4.0,0.0,part_2,stop,600.0,350.0,3.0,,,,,,,,,yellow,cross
0.0,5.0,1.0,1.0,6.0,0.0,0.0,4.0,0.0,part_2,stop,600.0,300.0,4.0,,,,,,,,,gray,square
0.0,1.0,1.0,0.0,6.0,6.0,496.1947219999274,5.0,0.0,part_2,go,600.0,350.0,1.0,,,,,,,,,white,triangle
0.0,5.0,1.0,1.0,5.0,5.0,285.4118780014687,5.0,0.0,part_2,go,600.0,350.0,1.0,,,,,,,,,gray,square
0.0,2.0,2.0,0.0,6.0,6.0,422.3342979985318,5.0,0.0,part_2,go,600.0,350.0,1.0,,,,,,,,,orange,circle
0.0,1.0,1.0,0.0,5.0,5.0,324.2086600002949,5.0,0.0,part_2,go,600.0,350.0,1.0,,,,,,,,,white,triangle
0.0,4.0,4.0,0.0,6.0,6.0,776.5859869996348,5.0,0.0,part_2,go,600.0,350.0,1.0,,,,,,,,,cyan,diamond
0.0,1.0,1.0,0.0,6.0,6.0,744.5401209988631,5.0,0.0,part_2,go,600.0,350.0,1.0,,,,,,,,,white,triangle
0.0,8.0,4.0,1.0,6.0,6.0,333.7834609992569,5.0,0.0,part_2,stop,600.0,350.0,3.0,,,,,,,,,blue,flipped triangle
0.0,1.0,1.0,0.0,6.0,6.0,517.0944199999212,5.0,0.0,part_2,go,600.0,300.0,1.0,,,,,,,,,white,triangle
0.0,8.0,4.0,1.0,6.0,0.0,0.0,5.0,0.0,part_2,stop,600.0,300.0,4.0,,,,,,,,,blue,flipped triangle
0.0,6.0,2.0,1.0,5.0,5.0,378.6803439998039,5.0,0.0,part_2,stop,600.0,350.0,3.0,,,,,,,,,yellow,cross
0.0,4.0,4.0,0.0,5.0,5.0,608.3544499997515,5.0,0.0,part_2,go,550.0,350.0,1.0,,,,,,,,,cyan,diamond
0.0,2.0,2.0,0.0,5.0,5.0,619.2060359990137,5.0,0.0,part_2,go,550.0,350.0,1.0,,,,,,,,,orange,circle
0.0,1.0,1.0,0.0,5.0,5.0,293.2624200002465,5.0,0.0,part_2,go,550.0,350.0,1.0,,,,,,,,,white,triangle
0.0,1.0,1.0,0.0,6.0,6.0,321.4437989990983,5.0,0.0,part_2,go,550.0,350.0,1.0,,,,,,,,,white,triangle
0.0,6.0,2.0,1.0,6.0,6.0,769.9833999995462,5.0,0.0,part_2,go,550.0,350.0,1.0,,,,,,,,,yellow,cross
0.0,6.0,2.0,1.0,5.0,5.0,488.7444419982785,5.0,0.0,part_2,stop,550.0,350.0,3.0,,,,,,,,,yellow,cross
0.0,7.0,3.0,1.0,5.0,5.0,677.6417469991429,5.0,0.0,part_2,go,500.0,350.0,1.0,,,,,,,,,magenta,hexagon
0.0,4.0,4.0,0.0,5.0,5.0,686.488465000366,5.0,0.0,part_2,go,500.0,350.0,1.0,,,,,,,,,cyan,diamond
0.0,2.0,2.0,0.0,5.0,5.0,569.8461499996483,5.0,0.0,part_2,go,500.0,350.0,1.0,,,,,,,,,orange,circle
0.0,7.0,3.0,1.0,6.0,6.0,707.3483210006088,5.0,0.0,part_2,go,500.0,350.0,1.0,,,,,,,,,magenta,hexagon
0.0,8.0,4.0,1.0,5.0,0.0,0.0,5.0,0.0,part_2,stop,500.0,350.0,4.0,,,,,,,,,blue,flipped triangle
0.0,6.0,2.0,1.0,6.0,0.0,0.0,5.0,0.0,part_2,stop,550.0,350.0,4.0,,,,,,,,,yellow,cross
0.0,3.0,3.0,0.0,6.0,6.0,543.9559160004137,5.0,0.0,part_2,go,550.0,400.0,1.0,,,,,,,,,green,I
0.0,1.0,1.0,0.0,6.0,6.0,560.4588420010259,5.0,0.0,part_2,go,550.0,400.0,1.0,,,,,,,,,white,triangle
0.0,6.0,2.0,1.0,5.0,5.0,825.9498700008407,5.0,0.0,part_2,go,550.0,400.0,1.0,,,,,,,,,yellow,cross
0.0,3.0,3.0,0.0,6.0,6.0,532.7483880009822,5.0,0.0,part_2,go,550.0,400.0,1.0,,,,,,,,,green,I
0.0,2.0,2.0,0.0,5.0,5.0,598.1233479997172,5.0,0.0,part_2,go,550.0,400.0,1.0,,,,,,,,,orange,circle
0.0,2.0,2.0,0.0,5.0,5.0,454.5044189999316,5.0,0.0,part_2,go,550.0,400.0,1.0,,,,,,,,,orange,circle
0.0,3.0,3.0,0.0,6.0,6.0,630.7997359999717,5.0,0.0,part_2,go,550.0,400.0,1.0,,,,,,,,,green,I
0.0,1.0,1.0,0.0,5.0,5.0,590.8966440001677,5.0,0.0,part_2,go,550.0,400.0,1.0,,,,,,,,,white,triangle
0.0,2.0,2.0,0.0,6.0,6.0,330.3411310007504,5.0,0.0,part_2,go,550.0,400.0,1.0,,,,,,,,,orange,circle
0.0,6.0,2.0,1.0,5.0,5.0,436.0217840003315,5.0,0.0,part_2,stop,550.0,400.0,3.0,,,,,,,,,yellow,cross
0.0,2.0,2.0,0.0,5.0,5.0,581.5839459992276,5.0,0.0,part_2,go,500.0,400.0,1.0,,,,,,,,,orange,circle
0.0,7.0,3.0,1.0,6.0,0.0,0.0,5.0,0.0,part_2,stop,500.0,400.0,4.0,,,,,,,,,magenta,hexagon
0.0,5.0,1.0,1.0,5.0,0.0,0.0,5.0,0.0,part_2,stop,500.0,450.0,4.0,,,,,,,,,gray,square
0.0,1.0,1.0,0.0,6.0,6.0,655.7968670003902,5.0,0.0,part_2,go,550.0,450.0,1.0,,,,,,,,,white,triangle
0.0,3.0,3.0,0.0,5.0,5.0,318.7177050003811,6.0,0.0,part_2,go,550.0,450.0,1.0,,,,,,,,,green,I
0.0,8.0,4.0,1.0,5.0,0.0,0.0,6.0,0.0,part_2,stop,550.0,450.0,4.0,,,,,,,,,blue,flipped triangle
0.0,2.0,2.0,0.0,6.0,6.0,536.0565840001073,6.0,0.0,part_2,go,600.0,450.0,1.0,,,,,,,,,orange,circle
0.0,6.0,2.0,1.0,6.0,6.0,706.0220980001759,6.0,0.0,part_2,go,600.0,450.0,1.0,,,,,,,,,yellow,cross
0.0,2.0,2.0,0.0,5.0,5.0,536.717470999065,6.0,0.0,part_2,go,600.0,450.0,1.0,,,,,,,,,orange,circle
0.0,7.0,3.0,1.0,6.0,6.0,307.4444040012167,6.0,0.0,part_2,stop,600.0,450.0,3.0,,,,,,,,,magenta,hexagon
0.0,1.0,1.0,0.0,5.0,5.0,627.3462499993911,6.0,0.0,part_2,go,600.0,400.0,1.0,,,,,,,,,white,triangle
0.0,8.0,4.0,1.0,6.0,6.0,317.668899999262,6.0,0.0,part_2,go,600.0,400.0,1.0,,,,,,,,,blue,flipped triangle
0.0,8.0,4.0,1.0,5.0,5.0,854.0542680002545,6.0,0.0,part_2,go,600.0,400.0,1.0,,,,,,,,,blue,flipped triangle
0.0,4.0,4.0,0.0,6.0,6.0,564.8977750006452,6.0,0.0,part_2,go,600.0,400.0,1.0,,,,,,,,,cyan,diamond
0.0,6.0,2.0,1.0,6.0,6.0,372.3212820004846,6.0,0.0,part_2,stop,600.0,400.0,3.0,,,,,,,,,yellow,cross
0.0,7.0,3.0,1.0,6.0,6.0,571.5498559984553,6.0,0.0,part_2,go,600.0,350.0,1.0,,,,,,,,,magenta,hexagon
0.0,5.0,1.0,1.0,5.0,5.0,344.7747379996144,6.0,0.0,part_2,stop,600.0,350.0,3.0,,,,,,,,,gray,square
0.0,6.0,2.0,1.0,5.0,5.0,639.7572599998966,6.0,0.0,part_2,stop,550.0,350.0,3.0,,,,,,,,,yellow,cross
0.0,5.0,1.0,1.0,6.0,0.0,0.0,6.0,0.0,part_2,stop,500.0,350.0,4.0,,,,,,,,,gray,square
0.0,8.0,4.0,1.0,6.0,6.0,641.0101220008073,6.0,0.0,part_2,go,500.0,400.0,1.0,,,,,,,,,blue,flipped triangle
0.0,7.0,3.0,1.0,5.0,5.0,743.9308539997,6.0,0.0,part_2,go,500.0,400.0,1.0,,,,,,,,,magenta,hexagon
0.0,4.0,4.0,0.0,6.0,6.0,601.0719490004703,6.0,0.0,part_2,go,500.0,400.0,1.0,,,,,,,,,cyan,diamond
0.0,7.0,3.0,1.0,6.0,0.0,0.0,6.0,0.0,part_2,stop,500.0,400.0,4.0,,,,,,,,,magenta,hexagon
0.0,6.0,2.0,1.0,5.0,0.0,0.0,6.0,0.0,part_2,stop,500.0,450.0,4.0,,,,,,,,,yellow,cross
0.0,1.0,1.0,0.0,6.0,6.0,565.5920369990781,6.0,0.0,part_2,go,550.0,450.0,1.0,,,,,,,,,white,triangle
0.0,3.0,3.0,0.0,5.0,5.0,595.9650650002004,6.0,0.0,part_2,go,550.0,450.0,1.0,,,,,,,,,green,I
0.0,2.0,2.0,0.0,5.0,5.0,316.1340009992273,6.0,0.0,part_2,go,550.0,450.0,1.0,,,,,,,,,orange,circle
0.0,3.0,3.0,0.0,6.0,6.0,348.5200930008432,6.0,0.0,part_2,go,550.0,450.0,1.0,,,,,,,,,green,I
0.0,6.0,2.0,1.0,6.0,0.0,0.0,6.0,0.0,part_2,stop,550.0,450.0,4.0,,,,,,,,,yellow,cross
0.0,3.0,3.0,0.0,6.0,6.0,651.5012809995824,6.0,0.0,part_2,go,550.0,500.0,1.0,,,,,,,,,green,I
0.0,1.0,1.0,0.0,6.0,6.0,727.9467490006937,6.0,0.0,part_2,go,550.0,500.0,1.0,,,,,,,,,white,triangle
0.0,4.0,4.0,0.0,5.0,5.0,746.1122429995157,6.0,0.0,part_2,go,550.0,500.0,1.0,,,,,,,,,cyan,diamond
0.0,5.0,1.0,1.0,5.0,5.0,581.5624959996057,6.0,0.0,part_2,stop,550.0,500.0,3.0,,,,,,,,,gray,square
0.0,4.0,4.0,0.0,6.0,6.0,731.7949049993331,6.0,0.0,part_2,go,500.0,500.0,1.0,,,,,,,,,cyan,diamond
0.0,7.0,3.0,1.0,6.0,6.0,622.6240769992728,6.0,0.0,part_2,stop,500.0,500.0,3.0,,,,,,,,,magenta,hexagon
0.0,2.0,2.0,0.0,5.0,5.0,319.3048329994781,6.0,0.0,part_2,go,500.0,450.0,1.0,,,,,,,,,orange,circle
0.0,8.0,4.0,1.0,5.0,0.0,0.0,6.0,0.0,part_2,stop,500.0,450.0,4.0,,,,,,,,,blue,flipped triangle
0.0,1.0,1.0,0.0,6.0,6.0,672.4310640001931,6.0,0.0,part_2,go,550.0,450.0,1.0,,,,,,,,,white,triangle
0.0,4.0,4.0,0.0,6.0,6.0,687.4174839995248,6.0,0.0,part_2,go,550.0,450.0,1.0,,,,,,,,,cyan,diamond
0.0,6.0,2.0,1.0,5.0,5.0,825.2961270009109,6.0,0.0,part_2,go,550.0,450.0,1.0,,,,,,,,,yellow,cross
0.0,7.0,3.0,1.0,5.0,5.0,342.9944179988524,7.0,0.0,part_2,stop,550.0,450.0,3.0,,,,,,,,,magenta,hexagon
0.0,5.0,1.0,1.0,6.0,6.0,656.9921159989462,7.0,0.0,part_2,go,500.0,450.0,1.0,,,,,,,,,gray,square
0.0,5.0,1.0,1.0,6.0,6.0,596.7816169995785,7.0,0.0,part_2,go,500.0,450.0,1.0,,,,,,,,,gray,square
0.0,3.0,3.0,0.0,5.0,5.0,462.7050250001048,7.0,0.0,part_2,go,500.0,450.0,1.0,,,,,,,,,green,I
0.0,8.0,4.0,1.0,5.0,5.0,540.1663559987355,7.0,0.0,part_2,stop,500.0,450.0,3.0,,,,,,,,,blue,flipped triangle
0.0,8.0,4.0,1.0,5.0,0.0,0.0,7.0,0.0,part_2,stop,450.0,450.0,4.0,,,,,,,,,blue,flipped triangle
0.0,2.0,2.0,0.0,5.0,5.0,539.4250149984146,7.0,0.0,part_2,go,500.0,450.0,1.0,,,,,,,,,orange,circle
0.0,3.0,3.0,0.0,5.0,5.0,553.271273000064,7.0,0.0,part_2,go,500.0,450.0,1.0,,,,,,,,,green,I
0.0,1.0,1.0,0.0,5.0,5.0,726.156575999994,7.0,0.0,part_2,go,500.0,450.0,1.0,,,,,,,,,white,triangle
0.0,8.0,4.0,1.0,6.0,6.0,785.3548900002352,7.0,0.0,part_2,go,500.0,450.0,1.0,,,,,,,,,blue,flipped triangle
0.0,8.0,4.0,1.0,6.0,0.0,0.0,7.0,0.0,part_2,stop,500.0,450.0,4.0,,,,,,,,,blue,flipped triangle
0.0,8.0,4.0,1.0,6.0,0.0,0.0,7.0,0.0,part_2,stop,500.0,500.0,4.0,,,,,,,,,blue,flipped triangle
0.0,3.0,3.0,0.0,5.0,5.0,592.587511999227,7.0,0.0,part_2,go,500.0,550.0,1.0,,,,,,,,,green,I
0.0,1.0,1.0,0.0,5.0,5.0,510.37195100070676,7.0,0.0,part_2,go,500.0,550.0,1.0,,,,,,,,,white,triangle
0.0,6.0,2.0,1.0,6.0,0.0,0.0,7.0,0.0,part_2,stop,500.0,550.0,4.0,,,,,,,,,yellow,cross
0.0,3.0,3.0,0.0,6.0,6.0,688.7400439991325,7.0,0.0,part_2,go,500.0,600.0,1.0,,,,,,,,,green,I
0.0,3.0,3.0,0.0,5.0,5.0,542.9196730001422,7.0,0.0,part_2,go,500.0,600.0,1.0,,,,,,,,,green,I
0.0,7.0,3.0,1.0,6.0,6.0,666.5517330002331,7.0,0.0,part_2,stop,500.0,600.0,3.0,,,,,,,,,magenta,hexagon
0.0,6.0,2.0,1.0,6.0,0.0,0.0,7.0,0.0,part_2,stop,500.0,550.0,4.0,,,,,,,,,yellow,cross
0.0,3.0,3.0,0.0,5.0,5.0,903.85430599963,7.0,0.0,part_2,go,500.0,600.0,1.0,,,,,,,,,green,I
0.0,4.0,4.0,0.0,5.0,5.0,892.1820289997413,7.0,0.0,part_2,go,500.0,600.0,1.0,,,,,,,,,cyan,diamond
0.0,4.0,4.0,0.0,6.0,6.0,659.4613529996423,7.0,0.0,part_2,go,500.0,600.0,1.0,,,,,,,,,cyan,diamond
0.0,6.0,2.0,1.0,5.0,5.0,406.7173410003306,7.0,0.0,part_2,stop,500.0,600.0,3.0,,,,,,,,,yellow,cross
0.0,5.0,1.0,1.0,5.0,0.0,0.0,7.0,0.0,part_2,stop,450.0,600.0,4.0,,,,,,,,,gray,square
0.0,1.0,1.0,0.0,6.0,6.0,679.2627049999282,7.0,0.0,part_2,go,500.0,600.0,1.0,,,,,,,,,white,triangle
0.0,5.0,1.0,1.0,5.0,5.0,855.2797030006332,7.0,0.0,part_2,go,500.0,600.0,1.0,,,,,,,,,gray,square
0.0,3.0,3.0,0.0,5.0,5.0,635.8415609993244,7.0,0.0,part_2,go,500.0,600.0,1.0,,,,,,,,,green,I
0.0,1.0,1.0,0.0,5.0,5.0,652.1239779995085,7.0,0.0,part_2,go,500.0,600.0,1.0,,,,,,,,,white,triangle
0.0,3.0,3.0,0.0,6.0,6.0,588.9057589993172,7.0,0.0,part_2,go,500.0,600.0,1.0,,,,,,,,,green,I
0.0,4.0,4.0,0.0,5.0,5.0,510.57589599986386,7.0,0.0,part_2,go,500.0,600.0,1.0,,,,,,,,,cyan,diamond
0.0,5.0,1.0,1.0,5.0,5.0,393.3197869992,7.0,0.0,part_2,stop,500.0,600.0,3.0,,,,,,,,,gray,square
0.0,8.0,4.0,1.0,6.0,0.0,0.0,7.0,0.0,part_2,stop,450.0,600.0,4.0,,,,,,,,,blue,flipped triangle
0.0,7.0,3.0,1.0,6.0,0.0,0.0,7.0,0.0,part_2,stop,450.0,650.0,4.0,,,,,,,,,magenta,hexagon
0.0,5.0,1.0,1.0,5.0,5.0,863.0212150001171,7.0,0.0,part_2,go,450.0,700.0,1.0,,,,,,,,,gray,square
0.0,8.0,4.0,1.0,6.0,6.0,312.3946239993529,7.0,0.0,part_2,go,450.0,700.0,1.0,,,,,,,,,blue,flipped triangle
0.0,8.0,4.0,1.0,6.0,6.0,694.0259409984719,7.0,0.0,part_2,stop,450.0,700.0,3.0,,,,,,,,,blue,flipped triangle
0.0,7.0,3.0,1.0,5.0,5.0,576.3480059995345,8.0,0.0,part_2,stop,450.0,650.0,3.0,,,,,,,,,magenta,hexagon
0.0,8.0,4.0,1.0,5.0,0.0,0.0,8.0,0.0,part_2,stop,400.0,650.0,4.0,,,,,,,,,blue,flipped triangle
0.0,4.0,4.0,0.0,5.0,5.0,499.923461000435,8.0,0.0,part_2,go,450.0,650.0,1.0,,,,,,,,,cyan,diamond
0.0,7.0,3.0,1.0,5.0,5.0,319.8827960004564,8.0,0.0,part_2,stop,450.0,650.0,3.0,,,,,,,,,magenta,hexagon
0.0,6.0,2.0,1.0,6.0,6.0,682.6080160008132,8.0,0.0,part_2,stop,400.0,650.0,3.0,,,,,,,,,yellow,cross
0.0,6.0,2.0,1.0,5.0,0.0,0.0,8.0,0.0,part_2,stop,400.0,600.0,4.0,,,,,,,,,yellow,cross
0.0,4.0,4.0,0.0,5.0,5.0,448.7016140010382,8.0,0.0,part_2,go,450.0,600.0,1.0,,,,,,,,,cyan,diamond
0.0,7.0,3.0,1.0,6.0,0.0,0.0,8.0,0.0,part_2,stop,450.0,600.0,4.0,,,,,,,,,magenta,hexagon
0.0,8.0,4.0,1.0,5.0,0.0,0.0,8.0,0.0,part_2,stop,450.0,650.0,4.0,,,,,,,,,blue,flipped triangle
0.0,5.0,1.0,1.0,6.0,6.0,345.3694700001506,8.0,0.0,part_2,stop,500.0,650.0,3.0,,,,,,,,,gray,square
0.0,3.0,3.0,0.0,6.0,6.0,617.752242998904,8.0,0.0,part_2,go,500.0,600.0,1.0,,,,,,,,,green,I
0.0,8.0,4.0,1.0,5.0,5.0,884.8733899994841,8.0,0.0,part_2,go,500.0,600.0,1.0,,,,,,,,,blue,flipped triangle
0.0,3.0,3.0,0.0,5.0,5.0,548.3808490007505,8.0,0.0,part_2,go,500.0,600.0,1.0,,,,,,,,,green,I
0.0,8.0,4.0,1.0,6.0,0.0,0.0,8.0,0.0,part_2,stop,500.0,600.0,4.0,,,,,,,,,blue,flipped triangle
0.0,5.0,1.0,1.0,6.0,0.0,0.0,8.0,0.0,part_2,stop,500.0,650.0,4.0,,,,,,,,,gray,square
0.0,8.0,4.0,1.0,6.0,6.0,769.4857980004599,8.0,0.0,part_2,stop,500.0,700.0,3.0,,,,,,,,,blue,flipped triangle
0.0,6.0,2.0,1.0,5.0,5.0,1003.6311639996711,8.0,0.0,part_2,go,500.0,650.0,1.0,,,,,,,,,yellow,cross
0.0,1.0,1.0,0.0,6.0,6.0,676.6492139995535,8.0,0.0,part_2,go,500.0,650.0,1.0,,,,,,,,,white,triangle
0.0,7.0,3.0,1.0,5.0,5.0,403.9139790002082,8.0,0.0,part_2,stop,500.0,650.0,3.0,,,,,,,,,magenta,hexagon
0.0,4.0,4.0,0.0,5.0,5.0,762.4824970007467,8.0,0.0,part_2,go,450.0,650.0,1.0,,,,,,,,,cyan,diamond
0.0,3.0,3.0,0.0,5.0,5.0,488.908523999271,8.0,0.0,part_2,go,450.0,650.0,1.0,,,,,,,,,green,I
0.0,1.0,1.0,0.0,5.0,5.0,813.7318099998083,8.0,0.0,part_2,go,450.0,650.0,1.0,,,,,,,,,white,triangle
0.0,6.0,2.0,1.0,5.0,0.0,0.0,8.0,0.0,part_2,stop,450.0,650.0,4.0,,,,,,,,,yellow,cross
0.0,1.0,1.0,0.0,5.0,5.0,581.681652000043,8.0,0.0,part_2,go,500.0,650.0,1.0,,,,,,,,,white,triangle
0.0,8.0,4.0,1.0,5.0,5.0,262.7851830002328,8.0,0.0,part_2,go,500.0,650.0,1.0,,,,,,,,,blue,flipped triangle
0.0,4.0,4.0,0.0,6.0,6.0,441.4830179994169,8.0,0.0,part_2,go,500.0,650.0,1.0,,,,,,,,,cyan,diamond
0.0,2.0,2.0,0.0,5.0,5.0,461.3736510000308,8.0,0.0,part_2,go,500.0,650.0,1.0,,,,,,,,,orange,circle
0.0,4.0,4.0,0.0,5.0,5.0,528.8412500012782,8.0,0.0,part_2,go,500.0,650.0,1.0,,,,,,,,,cyan,diamond
0.0,8.0,4.0,1.0,5.0,5.0,290.7750609992945,8.0,0.0,part_2,stop,500.0,650.0,3.0,,,,,,,,,blue,flipped triangle
0.0,3.0,3.0,0.0,6.0,6.0,613.2425870000588,8.0,0.0,part_2,go,450.0,650.0,1.0,,,,,,,,,green,I
0.0,2.0,2.0,0.0,6.0,6.0,581.0792230004154,8.0,0.0,part_2,go,450.0,650.0,1.0,,,,,,,,,orange,circle
0.0,8.0,4.0,1.0,6.0,6.0,710.4316120003205,8.0,0.0,part_2,go,450.0,650.0,1.0,,,,,,,,,blue,flipped triangle
0.0,1.0,1.0,0.0,5.0,5.0,589.5431179997104,8.0,0.0,part_2,go,450.0,650.0,1.0,,,,,,,,,white,triangle
0.0,2.0,2.0,0.0,5.0,5.0,329.2109579997486,8.0,0.0,part_2,go,450.0,650.0,1.0,,,,,,,,,orange,circle
0.0,1.0,1.0,0.0,5.0,5.0,908.2863630010252,8.0,0.0,part_2,go,450.0,650.0,1.0,,,,,,,,,white,triangle
0.0,3.0,3.0,0.0,5.0,5.0,558.3359420015768,8.0,0.0,part_2,go,450.0,650.0,1.0,,,,,,,,,green,I
0.0,7.0,3.0,1.0,7.0,5.0,3822.003265999229,1.0,2.0,part_3,go,0.0,0.0,0.0,54.0,1.0,324.0,108.0,270.0,162.0,54.0,216.0,magenta,hexagon
0.0,7.0,3.0,1.0,7.0,2.0,2125.30564699955,1.0,1.0,part_3,go,0.0,0.0,0.0,88.0,2.0,132.0,88.0,264.0,220.0,176.0,44.0,magenta,hexagon
0.0,2.0,2.0,0.0,7.0,5.0,2333.5731309998664,1.0,1.0,part_3,go,0.0,0.0,0.0,176.0,4.0,132.0,88.0,220.0,264.0,176.0,44.0,orange,circle
0.0,4.0,4.0,0.0,7.0,2.0,2539.6204389999184,1.0,1.0,part_3,go,0.0,0.0,0.0,234.0,6.0,78.0,234.0,156.0,39.0,117.0,195.0,cyan,diamond
0.0,8.0,4.0,1.0,7.0,2.0,2367.8890120008873,1.0,1.0,part_3,go,0.0,0.0,0.0,264.0,6.0,88.0,264.0,220.0,176.0,44.0,132.0,blue,flipped triangle
0.0,6.0,2.0,1.0,7.0,6.0,2161.6213560009783,1.0,1.0,part_3,go,0.0,0.0,0.0,78.0,2.0,117.0,234.0,39.0,156.0,195.0,78.0,yellow,cross
0.0,3.0,3.0,0.0,7.0,5.0,2292.57109900027,1.0,1.0,part_3,go,0.0,0.0,0.0,147.0,3.0,245.0,49.0,98.0,196.0,147.0,294.0,green,I
0.0,3.0,3.0,0.0,7.0,3.0,2154.538599999796,1.0,1.0,part_3,go,0.0,0.0,0.0,264.0,6.0,88.0,132.0,264.0,44.0,220.0,176.0,green,I
0.0,4.0,4.0,0.0,7.0,2.0,2224.7994499994093,1.0,1.0,part_3,go,0.0,0.0,0.0,170.0,5.0,34.0,170.0,204.0,136.0,102.0,68.0,cyan,diamond
0.0,8.0,4.0,1.0,7.0,2.0,1987.3330970003735,1.0,1.0,part_3,go,0.0,0.0,0.0,54.0,1.0,324.0,54.0,270.0,162.0,216.0,108.0,blue,flipped triangle
0.0,5.0,1.0,1.0,7.0,3.0,3347.7476659991225,1.0,1.0,part_3,go,0.0,0.0,0.0,49.0,1.0,98.0,294.0,49.0,245.0,196.0,147.0,gray,square
0.0,4.0,4.0,0.0,7.0,5.0,2838.2457759998942,1.0,1.0,part_3,go,0.0,0.0,0.0,294.0,6.0,245.0,147.0,196.0,98.0,294.0,49.0,cyan,diamond
0.0,2.0,2.0,0.0,7.0,6.0,2273.184242998468,1.0,1.0,part_3,go,0.0,0.0,0.0,68.0,2.0,102.0,34.0,136.0,204.0,170.0,68.0,orange,circle
0.0,3.0,3.0,0.0,7.0,6.0,2284.0763650001463,1.0,1.0,part_3,go,0.0,0.0,0.0,136.0,4.0,204.0,68.0,102.0,170.0,34.0,136.0,green,I
0.0,1.0,1.0,0.0,7.0,4.0,1677.2716830000718,1.0,1.0,part_3,go,0.0,0.0,0.0,162.0,3.0,216.0,270.0,324.0,162.0,108.0,54.0,white,triangle
0.0,5.0,1.0,1.0,7.0,4.0,1798.865709999518,1.0,1.0,part_3,go,0.0,0.0,0.0,49.0,1.0,294.0,147.0,196.0,49.0,245.0,98.0,gray,square
0.0,1.0,1.0,0.0,7.0,1.0,2320.7472239992057,1.0,1.0,part_3,go,0.0,0.0,0.0,98.0,2.0,98.0,245.0,49.0,294.0,196.0,147.0,white,triangle
0.0,3.0,3.0,0.0,7.0,3.0,3331.3285899985203,1.0,1.0,part_3,go,0.0,0.0,0.0,162.0,3.0,216.0,324.0,162.0,270.0,54.0,108.0,green,I
0.0,4.0,4.0,0.0,7.0,3.0,1709.5192600008886,1.0,1.0,part_3,go,0.0,0.0,0.0,147.0,3.0,245.0,196.0,147.0,49.0,98.0,294.0,cyan,diamond
0.0,3.0,3.0,0.0,7.0,4.0,1106.4300559992262,1.0,1.0,part_3,go,0.0,0.0,0.0,156.0,4.0,117.0,234.0,78.0,156.0,39.0,195.0,green,I
0.0,8.0,4.0,1.0,7.0,3.0,1101.9963060007285,2.0,1.0,part_3,go,0.0,0.0,0.0,102.0,3.0,68.0,34.0,102.0,170.0,136.0,204.0,blue,flipped triangle
0.0,2.0,2.0,0.0,7.0,5.0,1131.9129269995756,2.0,1.0,part_3,go,0.0,0.0,0.0,68.0,2.0,102.0,204.0,34.0,136.0,68.0,170.0,orange,circle
0.0,4.0,4.0,0.0,7.0,3.0,1062.0322989998383,2.0,1.0,part_3,go,0.0,0.0,0.0,220.0,5.0,264.0,88.0,220.0,132.0,44.0,176.0,cyan,diamond
0.0,6.0,2.0,1.0,7.0,1.0,2774.000770999919,2.0,1.0,part_3,go,0.0,0.0,0.0,98.0,2.0,98.0,147.0,294.0,49.0,245.0,196.0,yellow,cross
0.0,1.0,1.0,0.0,7.0,1.0,1925.50795599891,2.0,1.0,part_3,go,0.0,0.0,0.0,44.0,1.0,44.0,220.0,88.0,132.0,176.0,264.0,white,triangle
0.0,6.0,2.0,1.0,7.0,4.0,1841.6988930002844,2.0,1.0,part_3,go,0.0,0.0,0.0,44.0,1.0,220.0,88.0,176.0,44.0,132.0,264.0,yellow,cross
0.0,6.0,2.0,1.0,7.0,2.0,3365.120817999923,2.0,1.0,part_3,go,0.0,0.0,0.0,162.0,3.0,270.0,162.0,108.0,324.0,216.0,54.0,yellow,cross
0.0,5.0,1.0,1.0,7.0,5.0,2163.819264000267,2.0,1.0,part_3,go,0.0,0.0,0.0,39.0,1.0,78.0,234.0,195.0,156.0,39.0,117.0,gray,square
0.0,8.0,4.0,1.0,7.0,2.0,1612.5814919996628,2.0,1.0,part_3,go,0.0,0.0,0.0,49.0,1.0,196.0,49.0,294.0,245.0,98.0,147.0,blue,flipped triangle
0.0,8.0,4.0,1.0,7.0,1.0,1754.7016919997986,2.0,1.0,part_3,go,0.0,0.0,0.0,78.0,2.0,78.0,195.0,117.0,234.0,156.0,39.0,blue,flipped triangle
0.0,6.0,2.0,1.0,7.0,1.0,1260.7564219997585,2.0,1.0,part_3,go,0.0,0.0,0.0,68.0,2.0,68.0,204.0,170.0,136.0,34.0,102.0,yellow,cross
0.0,5.0,1.0,1.0,7.0,1.0,1111.0463910008548,2.0,1.0,part_3,go,0.0,0.0,0.0,44.0,1.0,44.0,176.0,220.0,264.0,132.0,88.0,gray,square
0.0,3.0,3.0,0.0,7.0,6.0,1880.1393719986663,2.0,1.0,part_3,go,0.0,0.0,0.0,68.0,2.0,170.0,102.0,34.0,204.0,136.0,68.0,green,I
0.0,5.0,1.0,1.0,7.0,1.0,2048.2044849995873,2.0,1.0,part_3,go,0.0,0.0,0.0,34.0,1.0,34.0,68.0,170.0,204.0,136.0,102.0,gray,square
0.0,8.0,4.0,1.0,7.0,6.0,2196.9794710003043,2.0,1.0,part_3,go,0.0,0.0,0.0,44.0,1.0,176.0,264.0,220.0,88.0,132.0,44.0,blue,flipped triangle
0.0,7.0,3.0,1.0,7.0,3.0,3647.9135030003818,2.0,1.0,part_3,go,0.0,0.0,0.0,220.0,5.0,264.0,44.0,220.0,132.0,176.0,88.0,magenta,hexagon
0.0,3.0,3.0,0.0,7.0,6.0,2974.4883209987165,2.0,1.0,part_3,go,0.0,0.0,0.0,195.0,5.0,234.0,117.0,39.0,78.0,156.0,195.0,green,I
0.0,2.0,2.0,0.0,7.0,4.0,2799.6844819990656,2.0,1.0,part_3,go,0.0,0.0,0.0,78.0,2.0,195.0,234.0,39.0,78.0,117.0,156.0,orange,circle
0.0,6.0,2.0,1.0,7.0,4.0,2518.73094199982,2.0,1.0,part_3,go,0.0,0.0,0.0,78.0,2.0,195.0,117.0,156.0,78.0,39.0,234.0,yellow,cross
0.0,2.0,2.0,0.0,7.0,2.0,1752.4119930003508,2.0,1.0,part_3,go,0.0,0.0,0.0,270.0,5.0,162.0,270.0,324.0,54.0,216.0,108.0,orange,circle
0.0,4.0,4.0,0.0,7.0,4.0,996.5247580003052,3.0,1.0,part_3,go,0.0,0.0,0.0,204.0,6.0,170.0,136.0,34.0,204.0,68.0,102.0,cyan,diamond
0.0,1.0,1.0,0.0,7.0,6.0,2020.5875070005277,3.0,1.0,part_3,go,0.0,0.0,0.0,98.0,2.0,294.0,245.0,147.0,49.0,196.0,98.0,white,triangle
0.0,1.0,1.0,0.0,7.0,1.0,1150.910667000062,3.0,1.0,part_3,go,0.0,0.0,0.0,68.0,2.0,68.0,136.0,170.0,204.0,102.0,34.0,white,triangle
0.0,4.0,4.0,0.0,7.0,2.0,1333.0335310001828,3.0,1.0,part_3,go,0.0,0.0,0.0,78.0,2.0,117.0,78.0,156.0,195.0,39.0,234.0,cyan,diamond
0.0,1.0,1.0,0.0,7.0,5.0,1241.460895000273,3.0,1.0,part_3,go,0.0,0.0,0.0,39.0,1.0,234.0,156.0,195.0,78.0,39.0,117.0,white,triangle
0.0,3.0,3.0,0.0,7.0,2.0,1987.4039160004031,3.0,1.0,part_3,go,0.0,0.0,0.0,324.0,6.0,162.0,324.0,54.0,216.0,108.0,270.0,green,I
0.0,7.0,3.0,1.0,7.0,4.0,1932.7415879997716,3.0,1.0,part_3,go,0.0,0.0,0.0,270.0,5.0,54.0,108.0,162.0,270.0,324.0,216.0,magenta,hexagon
0.0,1.0,1.0,0.0,7.0,2.0,1257.6941110000917,3.0,1.0,part_3,go,0.0,0.0,0.0,54.0,1.0,324.0,54.0,162.0,216.0,270.0,108.0,white,triangle
0.0,2.0,2.0,0.0,7.0,1.0,2490.656528998443,3.0,1.0,part_3,go,0.0,0.0,0.0,162.0,3.0,162.0,108.0,54.0,270.0,216.0,324.0,orange,circle
0.0,5.0,1.0,1.0,7.0,5.0,1672.2049820000393,3.0,1.0,part_3,go,0.0,0.0,0.0,68.0,2.0,102.0,170.0,204.0,136.0,68.0,34.0,gray,square
0.0,7.0,3.0,1.0,7.0,3.0,1825.1240139998115,3.0,1.0,part_3,go,0.0,0.0,0.0,117.0,3.0,39.0,195.0,117.0,156.0,234.0,78.0,magenta,hexagon
0.0,6.0,2.0,1.0,7.0,5.0,2142.385958999512,3.0,1.0,part_3,go,0.0,0.0,0.0,88.0,2.0,176.0,44.0,132.0,220.0,88.0,264.0,yellow,cross
0.0,7.0,3.0,1.0,7.0,5.0,1380.7451879984,3.0,1.0,part_3,go,0.0,0.0,0.0,34.0,1.0,204.0,102.0,170.0,68.0,34.0,136.0,magenta,hexagon
0.0,3.0,3.0,0.0,7.0,4.0,2408.2393160006177,3.0,1.0,part_3,go,0.0,0.0,0.0,132.0,3.0,264.0,220.0,88.0,132.0,176.0,44.0,green,I
0.0,6.0,2.0,1.0,7.0,1.0,1451.0851809991436,3.0,1.0,part_3,go,0.0,0.0,0.0,270.0,5.0,270.0,162.0,324.0,108.0,216.0,54.0,yellow,cross
0.0,1.0,1.0,0.0,7.0,5.0,1832.4957469994845,3.0,1.0,part_3,go,0.0,0.0,0.0,44.0,1.0,132.0,264.0,176.0,88.0,44.0,220.0,white,triangle
0.0,7.0,3.0,1.0,7.0,6.0,3661.2032860011823,3.0,1.0,part_3,go,0.0,0.0,0.0,68.0,2.0,170.0,34.0,102.0,136.0,204.0,68.0,magenta,hexagon
0.0,8.0,4.0,1.0,7.0,1.0,4132.530748000136,3.0,1.0,part_3,go,0.0,0.0,0.0,162.0,3.0,162.0,108.0,270.0,216.0,324.0,54.0,blue,flipped triangle
0.0,2.0,2.0,0.0,7.0,4.0,1659.427634000167,3.0,1.0,part_3,go,0.0,0.0,0.0,49.0,1.0,294.0,147.0,196.0,49.0,245.0,98.0,orange,circle
0.0,8.0,4.0,1.0,7.0,6.0,1367.382207999981,3.0,1.0,part_3,go,0.0,0.0,0.0,68.0,2.0,102.0,34.0,136.0,170.0,204.0,68.0,blue,flipped triangle
0.0,2.0,2.0,0.0,7.0,2.0,2629.6329030010384,4.0,1.0,part_3,go,0.0,0.0,0.0,39.0,1.0,234.0,39.0,78.0,156.0,195.0,117.0,orange,circle
0.0,1.0,1.0,0.0,7.0,4.0,2148.4952270002395,4.0,1.0,part_3,go,0.0,0.0,0.0,156.0,4.0,195.0,78.0,39.0,156.0,117.0,234.0,white,triangle
0.0,5.0,1.0,1.0,7.0,2.0,2143.6559289995785,4.0,1.0,part_3,go,0.0,0.0,0.0,54.0,1.0,216.0,54.0,108.0,324.0,270.0,162.0,gray,square
0.0,2.0,2.0,0.0,7.0,1.0,1068.506776000504,4.0,1.0,part_3,go,0.0,0.0,0.0,98.0,2.0,98.0,49.0,196.0,245.0,294.0,147.0,orange,circle
0.0,4.0,4.0,0.0,7.0,6.0,1520.674136998423,4.0,1.0,part_3,go,0.0,0.0,0.0,264.0,6.0,220.0,132.0,88.0,44.0,176.0,264.0,cyan,diamond
0.0,4.0,4.0,0.0,7.0,4.0,1113.0523510000785,4.0,1.0,part_3,go,0.0,0.0,0.0,324.0,6.0,108.0,54.0,270.0,324.0,162.0,216.0,cyan,diamond
0.0,5.0,1.0,1.0,7.0,3.0,1303.935451000143,4.0,1.0,part_3,go,0.0,0.0,0.0,54.0,1.0,216.0,270.0,54.0,162.0,108.0,324.0,gray,square
0.0,6.0,2.0,1.0,7.0,4.0,2106.718846000149,4.0,1.0,part_3,go,0.0,0.0,0.0,49.0,1.0,245.0,294.0,196.0,49.0,98.0,147.0,yellow,cross
0.0,7.0,3.0,1.0,7.0,3.0,2179.83113199989,4.0,1.0,part_3,go,0.0,0.0,0.0,294.0,6.0,49.0,98.0,294.0,196.0,245.0,147.0,magenta,hexagon
0.0,3.0,3.0,0.0,7.0,4.0,2723.5441520006134,4.0,1.0,part_3,go,0.0,0.0,0.0,49.0,1.0,196.0,294.0,147.0,49.0,98.0,245.0,green,I
0.0,1.0,1.0,0.0,7.0,2.0,1210.0239430001238,4.0,1.0,part_3,go,0.0,0.0,0.0,102.0,3.0,68.0,102.0,204.0,136.0,34.0,170.0,white,triangle
0.0,8.0,4.0,1.0,7.0,3.0,1565.5450699996436,4.0,1.0,part_3,go,0.0,0.0,0.0,78.0,2.0,234.0,156.0,78.0,195.0,39.0,117.0,blue,flipped triangle
0.0,7.0,3.0,1.0,7.0,5.0,1577.818551000746,4.0,1.0,part_3,go,0.0,0.0,0.0,156.0,4.0,39.0,195.0,234.0,78.0,156.0,117.0,magenta,hexagon
0.0,4.0,4.0,0.0,7.0,6.0,1930.5288329996984,4.0,1.0,part_3,go,0.0,0.0,0.0,270.0,5.0,108.0,324.0,54.0,216.0,162.0,270.0,cyan,diamond
0.0,6.0,2.0,1.0,7.0,1.0,1747.086395000224,4.0,1.0,part_3,go,0.0,0.0,0.0,68.0,2.0,68.0,102.0,136.0,170.0,34.0,204.0,yellow,cross
0.0,2.0,2.0,0.0,7.0,2.0,2260.9053079995647,4.0,1.0,part_3,go,0.0,0.0,0.0,176.0,4.0,220.0,176.0,88.0,132.0,264.0,44.0,orange,circle
0.0,8.0,4.0,1.0,7.0,1.0,2314.559383999949,4.0,1.0,part_3,go,0.0,0.0,0.0,147.0,3.0,147.0,245.0,294.0,98.0,196.0,49.0,blue,flipped triangle
0.0,5.0,1.0,1.0,7.0,2.0,1058.4011999999348,4.0,1.0,part_3,go,0.0,0.0,0.0,39.0,1.0,156.0,39.0,234.0,78.0,117.0,195.0,gray,square
0.0,7.0,3.0,1.0,7.0,6.0,1587.4924740001006,4.0,1.0,part_3,go,0.0,0.0,0.0,294.0,6.0,245.0,196.0,49.0,147.0,98.0,294.0,magenta,hexagon
0.0,5.0,1.0,1.0,7.0,5.0,1712.2844530003931,4.0,1.0,part_3,go,0.0,0.0,0.0,132.0,3.0,264.0,44.0,220.0,88.0,132.0,176.0,gray,square
