raw_reward_magnitude,stim_reward,stepwise_reward_magnitude,paired_with_stopping,stim_location,response,reaction_time,block,num_trial_presentations,which_phase,stop_signal_trial_type,left_SSD,right_SSD,accuracy,chosen_bidding_amount,chosen_bidding_level,possible_bid_1,possible_bid_2,possible_bid_3,possible_bid_4,possible_bid_5,possible_bid_6,color_text,shape_text
0.0,4.0,0.0,0.0,3.0,3.0,427.9415850000987,1.0,1.0,phase_1,,,,,,,,,,,,,cyan,cross
0.0,5.0,0.0,1.0,2.0,2.0,427.1325499998966,1.0,1.0,phase_1,,,,,,,,,,,,,blue,circle
404.0,8.0,4.0,1.0,2.0,2.0,502.4002959999052,1.0,1.0,phase_1,,,,,,,,,,,,,orange,flipped triangle
0.0,3.0,0.0,0.0,2.0,2.0,408.6248089997752,1.0,1.0,phase_1,,,,,,,,,,,,,yellow,I
66.0,1.0,0.5,0.0,3.0,3.0,391.3811279999208,1.0,1.0,phase_1,,,,,,,,,,,,,white,square
0.0,4.0,0.0,0.0,3.0,3.0,484.0909639997335,1.0,1.0,phase_1,,,,,,,,,,,,,cyan,cross
385.0,8.0,4.0,1.0,2.0,2.0,377.8213999999025,1.0,1.0,phase_1,,,,,,,,,,,,,orange,flipped triangle
180.0,7.0,2.0,1.0,3.0,3.0,373.6475719997543,1.0,1.0,phase_1,,,,,,,,,,,,,magenta,diamond
188.0,7.0,2.0,1.0,4.0,4.0,387.7335699999094,1.0,1.0,phase_1,,,,,,,,,,,,,magenta,diamond
0.0,8.0,0.0,1.0,3.0,3.0,346.4574730001004,1.0,1.0,phase_1,,,,,,,,,,,,,orange,flipped triangle
96.0,2.0,1.0,0.0,2.0,2.0,460.3256360001069,1.0,1.0,phase_1,,,,,,,,,,,,,green,hexagon
176.0,3.0,2.0,0.0,2.0,2.0,360.7264870001927,1.0,1.0,phase_1,,,,,,,,,,,,,yellow,I
0.0,6.0,0.0,1.0,1.0,1.0,429.049125000347,1.0,1.0,phase_1,,,,,,,,,,,,,gray,triangle
84.0,2.0,1.0,0.0,2.0,2.0,458.6799689996041,1.0,1.0,phase_1,,,,,,,,,,,,,green,hexagon
51.0,5.0,0.5,1.0,3.0,3.0,391.4880850002191,1.0,1.0,phase_1,,,,,,,,,,,,,blue,circle
119.0,6.0,1.0,1.0,2.0,2.0,470.833981999931,1.0,1.0,phase_1,,,,,,,,,,,,,gray,triangle
42.0,5.0,0.5,1.0,1.0,1.0,379.5686990001741,1.0,1.0,phase_1,,,,,,,,,,,,,blue,circle
100.0,2.0,1.0,0.0,2.0,2.0,336.2221350002983,1.0,1.0,phase_1,,,,,,,,,,,,,green,hexagon
0.0,2.0,0.0,0.0,3.0,3.0,330.3441970001586,1.0,1.0,phase_1,,,,,,,,,,,,,green,hexagon
420.0,8.0,4.0,1.0,4.0,4.0,439.3872569999075,1.0,1.0,phase_1,,,,,,,,,,,,,orange,flipped triangle
411.0,8.0,4.0,1.0,1.0,1.0,364.9320139998053,1.0,1.0,phase_1,,,,,,,,,,,,,orange,flipped triangle
0.0,8.0,0.0,1.0,2.0,2.0,380.0507810001363,1.0,1.0,phase_1,,,,,,,,,,,,,orange,flipped triangle
40.0,1.0,0.5,0.0,2.0,2.0,372.3172840000188,1.0,1.0,phase_1,,,,,,,,,,,,,white,square
77.0,2.0,1.0,0.0,1.0,1.0,322.5047599999016,1.0,1.0,phase_1,,,,,,,,,,,,,green,hexagon
114.0,6.0,1.0,1.0,3.0,3.0,374.3978709999283,1.0,1.0,phase_1,,,,,,,,,,,,,gray,triangle
66.0,5.0,0.5,1.0,4.0,4.0,339.7494340001685,1.0,1.0,phase_1,,,,,,,,,,,,,blue,circle
180.0,3.0,2.0,0.0,3.0,3.0,316.0286400002405,1.0,1.0,phase_1,,,,,,,,,,,,,yellow,I
0.0,7.0,0.0,1.0,2.0,2.0,373.6281930000587,1.0,1.0,phase_1,,,,,,,,,,,,,magenta,diamond
57.0,1.0,0.5,0.0,2.0,2.0,423.5046240000883,1.0,1.0,phase_1,,,,,,,,,,,,,white,square
120.0,6.0,1.0,1.0,4.0,4.0,490.0061100001949,1.0,1.0,phase_1,,,,,,,,,,,,,gray,triangle
400.0,4.0,4.0,0.0,4.0,4.0,396.4198930002567,1.0,1.0,phase_1,,,,,,,,,,,,,cyan,cross
97.0,6.0,1.0,1.0,3.0,3.0,461.6792169999826,1.0,1.0,phase_1,,,,,,,,,,,,,gray,triangle
33.0,5.0,0.5,1.0,2.0,2.0,313.7859919997936,1.0,1.0,phase_1,,,,,,,,,,,,,blue,circle
0.0,5.0,0.0,1.0,1.0,1.0,404.6400689999245,1.0,2.0,phase_1,,,,,,,,,,,,,blue,circle
38.0,1.0,0.5,0.0,4.0,4.0,493.2904879997295,1.0,1.0,phase_1,,,,,,,,,,,,,white,square
386.0,8.0,4.0,1.0,4.0,4.0,454.6848969998791,1.0,1.0,phase_1,,,,,,,,,,,,,orange,flipped triangle
379.0,4.0,4.0,0.0,1.0,1.0,351.4202440001099,1.0,1.0,phase_1,,,,,,,,,,,,,cyan,cross
27.0,5.0,0.5,1.0,1.0,1.0,430.8751809999194,1.0,1.0,phase_1,,,,,,,,,,,,,blue,circle
208.0,3.0,2.0,0.0,4.0,4.0,390.9160480002356,1.0,1.0,phase_1,,,,,,,,,,,,,yellow,I
100.0,6.0,1.0,1.0,1.0,1.0,391.3822770000479,1.0,1.0,phase_1,,,,,,,,,,,,,gray,triangle
40.0,1.0,0.5,0.0,3.0,3.0,401.4231009996365,1.0,1.0,phase_1,,,,,,,,,,,,,white,square
59.0,1.0,0.5,0.0,3.0,3.0,387.8986939998867,1.0,1.0,phase_1,,,,,,,,,,,,,white,square
421.0,4.0,4.0,0.0,1.0,1.0,406.1378770002193,1.0,1.0,phase_1,,,,,,,,,,,,,cyan,cross
65.0,1.0,0.5,0.0,1.0,1.0,355.9597949997624,1.0,1.0,phase_1,,,,,,,,,,,,,white,square
197.0,7.0,2.0,1.0,4.0,4.0,386.4521919999788,1.0,1.0,phase_1,,,,,,,,,,,,,magenta,diamond
205.0,3.0,2.0,0.0,2.0,2.0,393.1219580003926,1.0,1.0,phase_1,,,,,,,,,,,,,yellow,I
399.0,8.0,4.0,1.0,4.0,4.0,443.1793869998728,1.0,1.0,phase_1,,,,,,,,,,,,,orange,flipped triangle
115.0,6.0,1.0,1.0,1.0,1.0,339.1579380004259,1.0,1.0,phase_1,,,,,,,,,,,,,gray,triangle
93.0,2.0,1.0,0.0,1.0,1.0,377.544313999806,1.0,1.0,phase_1,,,,,,,,,,,,,green,hexagon
205.0,3.0,2.0,0.0,2.0,2.0,417.3160390000703,1.0,1.0,phase_1,,,,,,,,,,,,,yellow,I
88.0,2.0,1.0,0.0,2.0,2.0,437.1281919998182,1.0,1.0,phase_1,,,,,,,,,,,,,green,hexagon
105.0,2.0,1.0,0.0,2.0,2.0,417.8871429999162,1.0,1.0,phase_1,,,,,,,,,,,,,green,hexagon
0.0,7.0,0.0,1.0,4.0,4.0,534.3146879999949,1.0,1.0,phase_1,,,,,,,,,,,,,magenta,diamond
0.0,4.0,0.0,0.0,1.0,1.0,385.4545309995956,1.0,1.0,phase_1,,,,,,,,,,,,,cyan,cross
213.0,7.0,2.0,1.0,2.0,2.0,280.017854000107,1.0,1.0,phase_1,,,,,,,,,,,,,magenta,diamond
77.0,6.0,1.0,1.0,2.0,2.0,344.2147550003938,1.0,1.0,phase_1,,,,,,,,,,,,,gray,triangle
376.0,8.0,4.0,1.0,2.0,2.0,362.1086549997017,1.0,1.0,phase_1,,,,,,,,,,,,,orange,flipped triangle
77.0,2.0,1.0,0.0,4.0,4.0,381.8530789999386,1.0,1.0,phase_1,,,,,,,,,,,,,green,hexagon
25.0,1.0,0.5,0.0,3.0,3.0,443.5076680001657,1.0,1.0,phase_1,,,,,,,,,,,,,white,square
0.0,4.0,0.0,0.0,4.0,4.0,364.1441659997326,1.0,1.0,phase_1,,,,,,,,,,,,,cyan,cross
0.0,2.0,0.0,0.0,2.0,2.0,381.3281099996857,1.0,1.0,phase_1,,,,,,,,,,,,,green,hexagon
195.0,7.0,2.0,1.0,1.0,1.0,340.6742409997605,1.0,1.0,phase_1,,,,,,,,,,,,,magenta,diamond
114.0,6.0,1.0,1.0,2.0,2.0,280.0333480004155,1.0,1.0,phase_1,,,,,,,,,,,,,gray,triangle
0.0,6.0,0.0,1.0,1.0,1.0,405.1625580000291,1.0,1.0,phase_1,,,,,,,,,,,,,gray,triangle
215.0,3.0,2.0,0.0,1.0,1.0,314.1166109999176,1.0,1.0,phase_1,,,,,,,,,,,,,yellow,I
45.0,1.0,0.5,0.0,1.0,1.0,353.7334299999202,1.0,1.0,phase_1,,,,,,,,,,,,,white,square
383.0,8.0,4.0,1.0,1.0,1.0,358.0524300000434,1.0,1.0,phase_1,,,,,,,,,,,,,orange,flipped triangle
0.0,3.0,0.0,0.0,2.0,2.0,366.4713830003165,1.0,1.0,phase_1,,,,,,,,,,,,,yellow,I
222.0,7.0,2.0,1.0,2.0,2.0,308.750277999934,1.0,1.0,phase_1,,,,,,,,,,,,,magenta,diamond
399.0,4.0,4.0,0.0,4.0,4.0,349.7793420001471,1.0,1.0,phase_1,,,,,,,,,,,,,cyan,cross
57.0,5.0,0.5,1.0,3.0,3.0,395.618027999717,1.0,1.0,phase_1,,,,,,,,,,,,,blue,circle
415.0,4.0,4.0,0.0,2.0,2.0,352.3721900000964,1.0,1.0,phase_1,,,,,,,,,,,,,cyan,cross
0.0,4.0,0.0,0.0,4.0,4.0,365.705059999982,1.0,1.0,phase_1,,,,,,,,,,,,,cyan,cross
0.0,2.0,0.0,0.0,4.0,4.0,334.0647370000624,1.0,1.0,phase_1,,,,,,,,,,,,,green,hexagon
0.0,4.0,0.0,0.0,2.0,2.0,339.5416530001967,1.0,1.0,phase_1,,,,,,,,,,,,,cyan,cross
407.0,4.0,4.0,0.0,2.0,2.0,346.1955200000375,1.0,1.0,phase_1,,,,,,,,,,,,,cyan,cross
85.0,2.0,1.0,0.0,1.0,1.0,342.1869079998032,1.0,1.0,phase_1,,,,,,,,,,,,,green,hexagon
27.0,1.0,0.5,0.0,1.0,1.0,329.8948649999147,1.0,1.0,phase_1,,,,,,,,,,,,,white,square
0.0,3.0,0.0,0.0,1.0,1.0,337.4231249999866,1.0,1.0,phase_1,,,,,,,,,,,,,yellow,I
76.0,6.0,1.0,1.0,1.0,1.0,330.1826299998538,1.0,1.0,phase_1,,,,,,,,,,,,,gray,triangle
78.0,2.0,1.0,0.0,2.0,2.0,338.8342670000384,1.0,1.0,phase_1,,,,,,,,,,,,,green,hexagon
0.0,1.0,0.0,0.0,2.0,2.0,350.7342510001763,1.0,1.0,phase_1,,,,,,,,,,,,,white,square
407.0,8.0,4.0,1.0,3.0,3.0,432.5039109999125,1.0,1.0,phase_1,,,,,,,,,,,,,orange,flipped triangle
397.0,4.0,4.0,0.0,2.0,2.0,522.5636509999276,1.0,1.0,phase_1,,,,,,,,,,,,,cyan,cross
58.0,1.0,0.5,0.0,3.0,3.0,351.546277000125,1.0,1.0,phase_1,,,,,,,,,,,,,white,square
105.0,6.0,1.0,1.0,4.0,4.0,500.6858619999548,1.0,1.0,phase_1,,,,,,,,,,,,,gray,triangle
220.0,3.0,2.0,0.0,4.0,4.0,508.20722999969803,1.0,1.0,phase_1,,,,,,,,,,,,,yellow,I
106.0,2.0,1.0,0.0,1.0,1.0,396.7011029999412,1.0,1.0,phase_1,,,,,,,,,,,,,green,hexagon
406.0,8.0,4.0,1.0,1.0,1.0,428.211537000152,1.0,1.0,phase_1,,,,,,,,,,,,,orange,flipped triangle
50.0,1.0,0.5,0.0,2.0,2.0,434.0203050001037,1.0,1.0,phase_1,,,,,,,,,,,,,white,square
0.0,8.0,0.0,1.0,4.0,4.0,367.3904639999819,1.0,1.0,phase_1,,,,,,,,,,,,,orange,flipped triangle
205.0,7.0,2.0,1.0,2.0,2.0,286.0151539998696,1.0,1.0,phase_1,,,,,,,,,,,,,magenta,diamond
30.0,5.0,0.5,1.0,1.0,1.0,370.069562000026,1.0,1.0,phase_1,,,,,,,,,,,,,blue,circle
47.0,5.0,0.5,1.0,4.0,4.0,366.052438999759,1.0,1.0,phase_1,,,,,,,,,,,,,blue,circle
0.0,8.0,0.0,1.0,1.0,1.0,642.3876899998504,1.0,1.0,phase_1,,,,,,,,,,,,,orange,flipped triangle
188.0,3.0,2.0,0.0,1.0,1.0,343.4355320000577,1.0,1.0,phase_1,,,,,,,,,,,,,yellow,I
0.0,8.0,0.0,1.0,4.0,4.0,547.0831020002151,1.0,1.0,phase_1,,,,,,,,,,,,,orange,flipped triangle
0.0,6.0,0.0,1.0,2.0,2.0,295.0759039999866,1.0,1.0,phase_1,,,,,,,,,,,,,gray,triangle
213.0,7.0,2.0,1.0,3.0,3.0,373.9205750002838,1.0,1.0,phase_1,,,,,,,,,,,,,magenta,diamond
413.0,4.0,4.0,0.0,3.0,3.0,476.8173530001149,1.0,1.0,phase_1,,,,,,,,,,,,,cyan,cross
116.0,6.0,1.0,1.0,3.0,3.0,399.739302999933,2.0,1.0,phase_1,,,,,,,,,,,,,gray,triangle
115.0,2.0,1.0,0.0,3.0,3.0,328.3185379996212,2.0,1.0,phase_1,,,,,,,,,,,,,green,hexagon
386.0,4.0,4.0,0.0,4.0,4.0,426.8249080000714,2.0,1.0,phase_1,,,,,,,,,,,,,cyan,cross
0.0,8.0,0.0,1.0,4.0,4.0,307.9435459999331,2.0,1.0,phase_1,,,,,,,,,,,,,orange,flipped triangle
0.0,1.0,0.0,0.0,3.0,3.0,329.0220579997367,2.0,1.0,phase_1,,,,,,,,,,,,,white,square
213.0,3.0,2.0,0.0,3.0,3.0,357.8502469999876,2.0,1.0,phase_1,,,,,,,,,,,,,yellow,I
195.0,3.0,2.0,0.0,4.0,4.0,455.2777960002458,2.0,1.0,phase_1,,,,,,,,,,,,,yellow,I
385.0,4.0,4.0,0.0,1.0,1.0,414.259009000034,2.0,1.0,phase_1,,,,,,,,,,,,,cyan,cross
399.0,4.0,4.0,0.0,1.0,1.0,445.7678779999696,2.0,1.0,phase_1,,,,,,,,,,,,,cyan,cross
117.0,2.0,1.0,0.0,3.0,3.0,474.4913680001446,2.0,2.0,phase_1,,,,,,,,,,,,,green,hexagon
375.0,4.0,4.0,0.0,4.0,4.0,387.8519370000504,2.0,1.0,phase_1,,,,,,,,,,,,,cyan,cross
186.0,7.0,2.0,1.0,1.0,1.0,366.0416289999375,2.0,1.0,phase_1,,,,,,,,,,,,,magenta,diamond
185.0,7.0,2.0,1.0,1.0,1.0,362.238970999897,2.0,1.0,phase_1,,,,,,,,,,,,,magenta,diamond
119.0,2.0,1.0,0.0,3.0,3.0,522.2137180003301,2.0,1.0,phase_1,,,,,,,,,,,,,green,hexagon
112.0,6.0,1.0,1.0,2.0,2.0,397.4501249999775,2.0,1.0,phase_1,,,,,,,,,,,,,gray,triangle
40.0,5.0,0.5,1.0,2.0,2.0,373.5211399998661,2.0,1.0,phase_1,,,,,,,,,,,,,blue,circle
114.0,2.0,1.0,0.0,4.0,4.0,344.1320010001618,2.0,1.0,phase_1,,,,,,,,,,,,,green,hexagon
32.0,5.0,0.5,1.0,1.0,1.0,382.2418310001012,2.0,1.0,phase_1,,,,,,,,,,,,,blue,circle
72.0,5.0,0.5,1.0,3.0,3.0,335.6418980001763,2.0,1.0,phase_1,,,,,,,,,,,,,blue,circle
0.0,7.0,0.0,1.0,4.0,4.0,447.2495959998923,2.0,1.0,phase_1,,,,,,,,,,,,,magenta,diamond
110.0,6.0,1.0,1.0,4.0,4.0,383.7024590002329,2.0,1.0,phase_1,,,,,,,,,,,,,gray,triangle
404.0,8.0,4.0,1.0,4.0,4.0,396.346345999973,2.0,1.0,phase_1,,,,,,,,,,,,,orange,flipped triangle
415.0,8.0,4.0,1.0,3.0,3.0,579.6540169999389,2.0,1.0,phase_1,,,,,,,,,,,,,orange,flipped triangle
202.0,7.0,2.0,1.0,1.0,1.0,419.4705849999991,2.0,1.0,phase_1,,,,,,,,,,,,,magenta,diamond
383.0,4.0,4.0,0.0,3.0,3.0,431.5195949998269,2.0,1.0,phase_1,,,,,,,,,,,,,cyan,cross
100.0,6.0,1.0,1.0,4.0,4.0,364.5836179998696,2.0,1.0,phase_1,,,,,,,,,,,,,gray,triangle
394.0,8.0,4.0,1.0,3.0,3.0,321.7444110000542,2.0,1.0,phase_1,,,,,,,,,,,,,orange,flipped triangle
59.0,5.0,0.5,1.0,1.0,1.0,367.5528450003185,2.0,1.0,phase_1,,,,,,,,,,,,,blue,circle
67.0,1.0,0.5,0.0,1.0,1.0,387.7492530000381,2.0,2.0,phase_1,,,,,,,,,,,,,white,square
0.0,4.0,0.0,0.0,4.0,4.0,413.0596620002507,2.0,1.0,phase_1,,,,,,,,,,,,,cyan,cross
194.0,7.0,2.0,1.0,1.0,1.0,358.1813179998789,2.0,1.0,phase_1,,,,,,,,,,,,,magenta,diamond
222.0,7.0,2.0,1.0,3.0,3.0,381.9510409998656,2.0,1.0,phase_1,,,,,,,,,,,,,magenta,diamond
103.0,2.0,1.0,0.0,2.0,2.0,411.6458650000822,2.0,1.0,phase_1,,,,,,,,,,,,,green,hexagon
207.0,7.0,2.0,1.0,2.0,2.0,482.8124149998984,2.0,1.0,phase_1,,,,,,,,,,,,,magenta,diamond
224.0,7.0,2.0,1.0,3.0,3.0,458.0946669998411,2.0,1.0,phase_1,,,,,,,,,,,,,magenta,diamond
221.0,7.0,2.0,1.0,1.0,1.0,391.6695560001244,2.0,1.0,phase_1,,,,,,,,,,,,,magenta,diamond
380.0,4.0,4.0,0.0,2.0,2.0,411.2152120001155,2.0,1.0,phase_1,,,,,,,,,,,,,cyan,cross
375.0,8.0,4.0,1.0,3.0,3.0,324.9097560001246,2.0,1.0,phase_1,,,,,,,,,,,,,orange,flipped triangle
0.0,7.0,0.0,1.0,4.0,4.0,389.41634899993,2.0,1.0,phase_1,,,,,,,,,,,,,magenta,diamond
75.0,1.0,0.5,0.0,2.0,2.0,401.1205780002456,2.0,1.0,phase_1,,,,,,,,,,,,,white,square
215.0,7.0,2.0,1.0,3.0,3.0,340.9094769999683,2.0,1.0,phase_1,,,,,,,,,,,,,magenta,diamond
0.0,4.0,0.0,0.0,1.0,1.0,340.2138230003402,2.0,1.0,phase_1,,,,,,,,,,,,,cyan,cross
0.0,5.0,0.0,1.0,2.0,2.0,480.9159179999369,2.0,1.0,phase_1,,,,,,,,,,,,,blue,circle
105.0,2.0,1.0,0.0,3.0,3.0,312.9789620002157,2.0,1.0,phase_1,,,,,,,,,,,,,green,hexagon
417.0,4.0,4.0,0.0,3.0,3.0,398.2660970000324,2.0,1.0,phase_1,,,,,,,,,,,,,cyan,cross
84.0,2.0,1.0,0.0,4.0,4.0,396.7132769998898,2.0,1.0,phase_1,,,,,,,,,,,,,green,hexagon
70.0,5.0,0.5,1.0,1.0,1.0,416.6788719999204,2.0,1.0,phase_1,,,,,,,,,,,,,blue,circle
191.0,7.0,2.0,1.0,3.0,3.0,367.9954230001385,2.0,1.0,phase_1,,,,,,,,,,,,,magenta,diamond
180.0,3.0,2.0,0.0,4.0,4.0,454.167218999828,2.0,1.0,phase_1,,,,,,,,,,,,,yellow,I
413.0,8.0,4.0,1.0,4.0,4.0,396.8249680001463,2.0,1.0,phase_1,,,,,,,,,,,,,orange,flipped triangle
404.0,4.0,4.0,0.0,1.0,1.0,377.1684090002054,2.0,1.0,phase_1,,,,,,,,,,,,,cyan,cross
186.0,7.0,2.0,1.0,4.0,4.0,399.0011810001306,2.0,1.0,phase_1,,,,,,,,,,,,,magenta,diamond
120.0,2.0,1.0,0.0,2.0,2.0,345.8930000001601,2.0,1.0,phase_1,,,,,,,,,,,,,green,hexagon
383.0,4.0,4.0,0.0,2.0,2.0,325.5826139998135,2.0,1.0,phase_1,,,,,,,,,,,,,cyan,cross
69.0,1.0,0.5,0.0,2.0,2.0,356.4049020001221,2.0,1.0,phase_1,,,,,,,,,,,,,white,square
90.0,6.0,1.0,1.0,4.0,4.0,349.3461739999475,2.0,1.0,phase_1,,,,,,,,,,,,,gray,triangle
0.0,2.0,0.0,0.0,4.0,4.0,370.2548659998683,2.0,1.0,phase_1,,,,,,,,,,,,,green,hexagon
53.0,5.0,0.5,1.0,4.0,4.0,317.7075399999012,2.0,1.0,phase_1,,,,,,,,,,,,,blue,circle
67.0,5.0,0.5,1.0,4.0,4.0,375.4964479999216,2.0,1.0,phase_1,,,,,,,,,,,,,blue,circle
180.0,7.0,2.0,1.0,2.0,2.0,399.276842999825,2.0,1.0,phase_1,,,,,,,,,,,,,magenta,diamond
60.0,1.0,0.5,0.0,4.0,4.0,376.2944540003445,2.0,1.0,phase_1,,,,,,,,,,,,,white,square
201.0,7.0,2.0,1.0,1.0,1.0,534.3695729998217,2.0,1.0,phase_1,,,,,,,,,,,,,magenta,diamond
208.0,7.0,2.0,1.0,2.0,2.0,494.7645719998945,2.0,1.0,phase_1,,,,,,,,,,,,,magenta,diamond
49.0,5.0,0.5,1.0,1.0,1.0,449.2922250001356,2.0,1.0,phase_1,,,,,,,,,,,,,blue,circle
413.0,8.0,4.0,1.0,2.0,2.0,548.6512819998097,2.0,1.0,phase_1,,,,,,,,,,,,,orange,flipped triangle
106.0,6.0,1.0,1.0,3.0,3.0,427.3335909997513,2.0,1.0,phase_1,,,,,,,,,,,,,gray,triangle
76.0,2.0,1.0,0.0,1.0,1.0,398.3829970002261,2.0,1.0,phase_1,,,,,,,,,,,,,green,hexagon
30.0,1.0,0.5,0.0,2.0,2.0,365.4706040001656,2.0,1.0,phase_1,,,,,,,,,,,,,white,square
82.0,2.0,1.0,0.0,4.0,4.0,475.0274580001132,2.0,1.0,phase_1,,,,,,,,,,,,,green,hexagon
36.0,1.0,0.5,0.0,4.0,4.0,465.6634190000659,2.0,1.0,phase_1,,,,,,,,,,,,,white,square
47.0,1.0,0.5,0.0,3.0,3.0,478.9596370001163,2.0,1.0,phase_1,,,,,,,,,,,,,white,square
390.0,4.0,4.0,0.0,4.0,4.0,484.4191679999312,2.0,1.0,phase_1,,,,,,,,,,,,,cyan,cross
84.0,6.0,1.0,1.0,1.0,1.0,458.6005659998591,2.0,1.0,phase_1,,,,,,,,,,,,,gray,triangle
97.0,2.0,1.0,0.0,4.0,4.0,390.457181000329,2.0,1.0,phase_1,,,,,,,,,,,,,green,hexagon
0.0,1.0,0.0,0.0,4.0,4.0,365.379619000123,2.0,1.0,phase_1,,,,,,,,,,,,,white,square
40.0,5.0,0.5,1.0,2.0,2.0,399.9454599997989,2.0,1.0,phase_1,,,,,,,,,,,,,blue,circle
381.0,4.0,4.0,0.0,1.0,1.0,487.4157990002459,2.0,1.0,phase_1,,,,,,,,,,,,,cyan,cross
47.0,1.0,0.5,0.0,1.0,1.0,400.9730560001117,2.0,1.0,phase_1,,,,,,,,,,,,,white,square
69.0,5.0,0.5,1.0,4.0,4.0,491.4449970001442,2.0,1.0,phase_1,,,,,,,,,,,,,blue,circle
182.0,3.0,2.0,0.0,1.0,1.0,491.4119909999499,2.0,1.0,phase_1,,,,,,,,,,,,,yellow,I
178.0,3.0,2.0,0.0,3.0,3.0,490.825273000155,2.0,1.0,phase_1,,,,,,,,,,,,,yellow,I
191.0,7.0,2.0,1.0,3.0,3.0,411.1976039998808,2.0,1.0,phase_1,,,,,,,,,,,,,magenta,diamond
106.0,2.0,1.0,0.0,3.0,3.0,493.7687219999134,2.0,1.0,phase_1,,,,,,,,,,,,,green,hexagon
0.0,6.0,0.0,1.0,1.0,1.0,544.0833060001751,2.0,1.0,phase_1,,,,,,,,,,,,,gray,triangle
185.0,7.0,2.0,1.0,1.0,1.0,546.4898360000916,2.0,1.0,phase_1,,,,,,,,,,,,,magenta,diamond
422.0,4.0,4.0,0.0,4.0,4.0,489.2885539998133,2.0,1.0,phase_1,,,,,,,,,,,,,cyan,cross
0.0,1.0,0.0,0.0,2.0,2.0,427.1732810002504,2.0,1.0,phase_1,,,,,,,,,,,,,white,square
403.0,4.0,4.0,0.0,4.0,4.0,422.0963309999206,2.0,1.0,phase_1,,,,,,,,,,,,,cyan,cross
0.0,6.0,0.0,1.0,3.0,3.0,455.2141430003757,2.0,1.0,phase_1,,,,,,,,,,,,,gray,triangle
104.0,2.0,1.0,0.0,4.0,4.0,493.4260269997139,2.0,1.0,phase_1,,,,,,,,,,,,,green,hexagon
93.0,6.0,1.0,1.0,1.0,1.0,461.3529110001764,2.0,1.0,phase_1,,,,,,,,,,,,,gray,triangle
0.0,3.0,0.0,0.0,2.0,2.0,541.5067499998258,2.0,1.0,phase_1,,,,,,,,,,,,,yellow,I
114.0,2.0,1.0,0.0,4.0,4.0,480.9826770001564,2.0,1.0,phase_1,,,,,,,,,,,,,green,hexagon
382.0,8.0,4.0,1.0,4.0,4.0,483.9309469998625,2.0,1.0,phase_1,,,,,,,,,,,,,orange,flipped triangle
0.0,2.0,0.0,0.0,1.0,1.0,435.1955860001908,2.0,1.0,phase_1,,,,,,,,,,,,,green,hexagon
215.0,7.0,2.0,1.0,1.0,1.0,450.9653629997956,2.0,1.0,phase_1,,,,,,,,,,,,,magenta,diamond
47.0,5.0,0.5,1.0,1.0,1.0,553.0544560001545,2.0,1.0,phase_1,,,,,,,,,,,,,blue,circle
400.0,8.0,4.0,1.0,1.0,1.0,634.2605599998024,2.0,1.0,phase_1,,,,,,,,,,,,,orange,flipped triangle
0.0,4.0,0.0,0.0,4.0,4.0,393.4555320001891,2.0,1.0,phase_1,,,,,,,,,,,,,cyan,cross
191.0,3.0,2.0,0.0,2.0,2.0,424.1930739999588,2.0,1.0,phase_1,,,,,,,,,,,,,yellow,I
422.0,8.0,4.0,1.0,2.0,2.0,396.829284999967,3.0,1.0,phase_1,,,,,,,,,,,,,orange,flipped triangle
29.0,5.0,0.5,1.0,2.0,2.0,396.6694010000537,3.0,1.0,phase_1,,,,,,,,,,,,,blue,circle
0.0,3.0,0.0,0.0,3.0,3.0,482.57887400041,3.0,1.0,phase_1,,,,,,,,,,,,,yellow,I
383.0,8.0,4.0,1.0,4.0,4.0,429.0855249996639,3.0,1.0,phase_1,,,,,,,,,,,,,orange,flipped triangle
71.0,1.0,0.5,0.0,2.0,2.0,386.2475780001659,3.0,1.0,phase_1,,,,,,,,,,,,,white,square
221.0,3.0,2.0,0.0,3.0,3.0,361.354958999982,3.0,1.0,phase_1,,,,,,,,,,,,,yellow,I
194.0,3.0,2.0,0.0,4.0,4.0,413.9378539998688,3.0,1.0,phase_1,,,,,,,,,,,,,yellow,I
199.0,7.0,2.0,1.0,3.0,3.0,379.6682969996254,3.0,1.0,phase_1,,,,,,,,,,,,,magenta,diamond
413.0,4.0,4.0,0.0,2.0,2.0,367.0878200000516,3.0,1.0,phase_1,,,,,,,,,,,,,cyan,cross
0.0,1.0,0.0,0.0,4.0,4.0,363.1372549998559,3.0,1.0,phase_1,,,,,,,,,,,,,white,square
87.0,6.0,1.0,1.0,3.0,3.0,438.068302999909,3.0,1.0,phase_1,,,,,,,,,,,,,gray,triangle
47.0,1.0,0.5,0.0,4.0,4.0,429.3263680001473,3.0,1.0,phase_1,,,,,,,,,,,,,white,square
413.0,4.0,4.0,0.0,2.0,2.0,332.1302300000752,3.0,1.0,phase_1,,,,,,,,,,,,,cyan,cross
45.0,5.0,0.5,1.0,3.0,3.0,405.1051789997473,3.0,1.0,phase_1,,,,,,,,,,,,,blue,circle
70.0,1.0,0.5,0.0,1.0,1.0,511.5618700001505,3.0,1.0,phase_1,,,,,,,,,,,,,white,square
112.0,2.0,1.0,0.0,3.0,3.0,403.8812819999293,3.0,1.0,phase_1,,,,,,,,,,,,,green,hexagon
42.0,5.0,0.5,1.0,2.0,2.0,518.6074899997948,3.0,1.0,phase_1,,,,,,,,,,,,,blue,circle
186.0,3.0,2.0,0.0,1.0,1.0,541.7250700002114,3.0,1.0,phase_1,,,,,,,,,,,,,yellow,I
0.0,2.0,0.0,0.0,2.0,2.0,431.9311039998865,3.0,1.0,phase_1,,,,,,,,,,,,,green,hexagon
0.0,5.0,0.0,1.0,1.0,1.0,447.0736289999877,3.0,1.0,phase_1,,,,,,,,,,,,,blue,circle
397.0,8.0,4.0,1.0,4.0,4.0,425.0214690000575,3.0,1.0,phase_1,,,,,,,,,,,,,orange,flipped triangle
390.0,8.0,4.0,1.0,3.0,3.0,458.4772590001194,3.0,1.0,phase_1,,,,,,,,,,,,,orange,flipped triangle
0.0,6.0,0.0,1.0,1.0,1.0,367.849734000174,3.0,1.0,phase_1,,,,,,,,,,,,,gray,triangle
399.0,8.0,4.0,1.0,2.0,2.0,340.6924730002174,3.0,1.0,phase_1,,,,,,,,,,,,,orange,flipped triangle
100.0,2.0,1.0,0.0,2.0,2.0,407.4468720000368,3.0,1.0,phase_1,,,,,,,,,,,,,green,hexagon
40.0,1.0,0.5,0.0,4.0,4.0,384.2274690000522,3.0,1.0,phase_1,,,,,,,,,,,,,white,square
380.0,8.0,4.0,1.0,4.0,4.0,520.8201489999738,3.0,1.0,phase_1,,,,,,,,,,,,,orange,flipped triangle
379.0,4.0,4.0,0.0,2.0,2.0,432.4878150000586,3.0,1.0,phase_1,,,,,,,,,,,,,cyan,cross
215.0,3.0,2.0,0.0,2.0,2.0,395.8557050000308,3.0,1.0,phase_1,,,,,,,,,,,,,yellow,I
77.0,6.0,1.0,1.0,2.0,2.0,428.8889069998731,3.0,1.0,phase_1,,,,,,,,,,,,,gray,triangle
201.0,3.0,2.0,0.0,1.0,1.0,382.7562330002365,3.0,1.0,phase_1,,,,,,,,,,,,,yellow,I
224.0,3.0,2.0,0.0,1.0,1.0,463.265642999886,3.0,1.0,phase_1,,,,,,,,,,,,,yellow,I
0.0,7.0,0.0,1.0,3.0,3.0,463.7728820002849,3.0,1.0,phase_1,,,,,,,,,,,,,magenta,diamond
206.0,7.0,2.0,1.0,2.0,2.0,358.5652739998295,3.0,1.0,phase_1,,,,,,,,,,,,,magenta,diamond
93.0,2.0,1.0,0.0,1.0,1.0,489.3885020001107,3.0,1.0,phase_1,,,,,,,,,,,,,green,hexagon
65.0,5.0,0.5,1.0,2.0,2.0,436.7039730000215,3.0,1.0,phase_1,,,,,,,,,,,,,blue,circle
42.0,1.0,0.5,0.0,4.0,4.0,428.6120579999988,3.0,1.0,phase_1,,,,,,,,,,,,,white,square
381.0,8.0,4.0,1.0,1.0,1.0,445.9111260002828,3.0,1.0,phase_1,,,,,,,,,,,,,orange,flipped triangle
0.0,1.0,0.0,0.0,3.0,3.0,399.279240999931,3.0,1.0,phase_1,,,,,,,,,,,,,white,square
88.0,2.0,1.0,0.0,3.0,3.0,382.7332529999694,3.0,1.0,phase_1,,,,,,,,,,,,,green,hexagon
115.0,2.0,1.0,0.0,3.0,3.0,338.7800860000425,3.0,1.0,phase_1,,,,,,,,,,,,,green,hexagon
0.0,6.0,0.0,1.0,3.0,3.0,353.0705580001267,3.0,1.0,phase_1,,,,,,,,,,,,,gray,triangle
87.0,2.0,1.0,0.0,4.0,4.0,451.5553179999187,3.0,1.0,phase_1,,,,,,,,,,,,,green,hexagon
0.0,1.0,0.0,0.0,3.0,3.0,429.7576250000929,3.0,1.0,phase_1,,,,,,,,,,,,,white,square
0.0,8.0,0.0,1.0,2.0,2.0,459.7071149996736,3.0,1.0,phase_1,,,,,,,,,,,,,orange,flipped triangle
0.0,2.0,0.0,0.0,2.0,2.0,350.7235429997308,3.0,1.0,phase_1,,,,,,,,,,,,,green,hexagon
0.0,6.0,0.0,1.0,1.0,1.0,523.8157509998018,3.0,1.0,phase_1,,,,,,,,,,,,,gray,triangle
185.0,3.0,2.0,0.0,3.0,3.0,339.9544979997699,3.0,1.0,phase_1,,,,,,,,,,,,,yellow,I
413.0,8.0,4.0,1.0,3.0,3.0,446.8014379999658,3.0,1.0,phase_1,,,,,,,,,,,,,orange,flipped triangle
0.0,3.0,0.0,0.0,1.0,1.0,480.0217580000208,3.0,1.0,phase_1,,,,,,,,,,,,,yellow,I
403.0,8.0,4.0,1.0,3.0,3.0,455.2384189996701,3.0,1.0,phase_1,,,,,,,,,,,,,orange,flipped triangle
205.0,7.0,2.0,1.0,4.0,4.0,438.5354969999753,3.0,1.0,phase_1,,,,,,,,,,,,,magenta,diamond
413.0,4.0,4.0,0.0,4.0,4.0,384.6077299999706,3.0,1.0,phase_1,,,,,,,,,,,,,cyan,cross
0.0,2.0,0.0,0.0,2.0,2.0,437.0142880002277,3.0,1.0,phase_1,,,,,,,,,,,,,green,hexagon
110.0,2.0,1.0,0.0,2.0,2.0,358.3044260003589,3.0,1.0,phase_1,,,,,,,,,,,,,green,hexagon
0.0,7.0,0.0,1.0,4.0,4.0,523.9286579999316,3.0,1.0,phase_1,,,,,,,,,,,,,magenta,diamond
101.0,6.0,1.0,1.0,1.0,1.0,467.6116270002239,3.0,1.0,phase_1,,,,,,,,,,,,,gray,triangle
205.0,7.0,2.0,1.0,3.0,3.0,408.5520130001896,3.0,1.0,phase_1,,,,,,,,,,,,,magenta,diamond
0.0,3.0,0.0,0.0,4.0,4.0,472.9904109999552,3.0,1.0,phase_1,,,,,,,,,,,,,yellow,I
194.0,7.0,2.0,1.0,2.0,2.0,378.7217019998934,3.0,1.0,phase_1,,,,,,,,,,,,,magenta,diamond
406.0,4.0,4.0,0.0,3.0,3.0,384.7120880000148,3.0,1.0,phase_1,,,,,,,,,,,,,cyan,cross
71.0,5.0,0.5,1.0,1.0,1.0,393.2119410001178,3.0,1.0,phase_1,,,,,,,,,,,,,blue,circle
199.0,3.0,2.0,0.0,1.0,1.0,470.9249450002062,3.0,1.0,phase_1,,,,,,,,,,,,,yellow,I
90.0,2.0,1.0,0.0,1.0,1.0,506.7152339997847,3.0,1.0,phase_1,,,,,,,,,,,,,green,hexagon
376.0,4.0,4.0,0.0,1.0,1.0,444.1057519998139,3.0,1.0,phase_1,,,,,,,,,,,,,cyan,cross
202.0,3.0,2.0,0.0,2.0,2.0,494.7181089996775,3.0,1.0,phase_1,,,,,,,,,,,,,yellow,I
0.0,3.0,0.0,0.0,3.0,3.0,420.2660840001044,3.0,1.0,phase_1,,,,,,,,,,,,,yellow,I
59.0,1.0,0.5,0.0,1.0,1.0,374.0376669998113,3.0,1.0,phase_1,,,,,,,,,,,,,white,square
105.0,6.0,1.0,1.0,1.0,1.0,334.6775610002623,3.0,1.0,phase_1,,,,,,,,,,,,,gray,triangle
376.0,4.0,4.0,0.0,4.0,4.0,491.6172270000061,3.0,1.0,phase_1,,,,,,,,,,,,,cyan,cross
125.0,2.0,1.0,0.0,1.0,1.0,453.052419999949,3.0,1.0,phase_1,,,,,,,,,,,,,green,hexagon
205.0,3.0,2.0,0.0,4.0,4.0,382.2603189996698,3.0,1.0,phase_1,,,,,,,,,,,,,yellow,I
0.0,2.0,0.0,0.0,1.0,1.0,418.3011529999021,3.0,1.0,phase_1,,,,,,,,,,,,,green,hexagon
64.0,1.0,0.5,0.0,1.0,1.0,327.5249759999497,3.0,1.0,phase_1,,,,,,,,,,,,,white,square
59.0,5.0,0.5,1.0,3.0,3.0,479.7708450000755,3.0,1.0,phase_1,,,,,,,,,,,,,blue,circle
60.0,5.0,0.5,1.0,2.0,2.0,408.8834489998589,3.0,1.0,phase_1,,,,,,,,,,,,,blue,circle
412.0,8.0,4.0,1.0,3.0,3.0,472.0468420000543,3.0,1.0,phase_1,,,,,,,,,,,,,orange,flipped triangle
67.0,5.0,0.5,1.0,4.0,4.0,407.2121780000088,3.0,1.0,phase_1,,,,,,,,,,,,,blue,circle
206.0,3.0,2.0,0.0,1.0,1.0,390.4382830000941,3.0,1.0,phase_1,,,,,,,,,,,,,yellow,I
379.0,8.0,4.0,1.0,1.0,1.0,412.8201530002116,3.0,1.0,phase_1,,,,,,,,,,,,,orange,flipped triangle
423.0,8.0,4.0,1.0,4.0,4.0,394.6376889998646,3.0,1.0,phase_1,,,,,,,,,,,,,orange,flipped triangle
207.0,3.0,2.0,0.0,3.0,3.0,395.9985669998787,3.0,1.0,phase_1,,,,,,,,,,,,,yellow,I
94.0,6.0,1.0,1.0,3.0,3.0,430.6920649996755,3.0,1.0,phase_1,,,,,,,,,,,,,gray,triangle
178.0,7.0,2.0,1.0,4.0,4.0,441.1208189999342,3.0,1.0,phase_1,,,,,,,,,,,,,magenta,diamond
84.0,6.0,1.0,1.0,2.0,2.0,451.2345439998171,3.0,1.0,phase_1,,,,,,,,,,,,,gray,triangle
0.0,3.0,0.0,0.0,2.0,2.0,417.4076479998803,3.0,1.0,phase_1,,,,,,,,,,,,,yellow,I
88.0,6.0,1.0,1.0,3.0,3.0,444.7064659998432,3.0,1.0,phase_1,,,,,,,,,,,,,gray,triangle
0.0,5.0,0.0,1.0,4.0,4.0,428.5351400003492,3.0,1.0,phase_1,,,,,,,,,,,,,blue,circle
422.0,8.0,4.0,1.0,3.0,3.0,344.5874899998671,3.0,1.0,phase_1,,,,,,,,,,,,,orange,flipped triangle
94.0,2.0,1.0,0.0,4.0,4.0,350.8273480001662,3.0,1.0,phase_1,,,,,,,,,,,,,green,hexagon
186.0,3.0,2.0,0.0,3.0,3.0,393.0286330000854,3.0,1.0,phase_1,,,,,,,,,,,,,yellow,I
408.0,4.0,4.0,0.0,1.0,1.0,492.2257460002583,3.0,1.0,phase_1,,,,,,,,,,,,,cyan,cross
58.0,5.0,0.5,1.0,3.0,3.0,370.3982499996527,3.0,1.0,phase_1,,,,,,,,,,,,,blue,circle
379.0,8.0,4.0,1.0,1.0,1.0,424.99236799994827,3.0,1.0,phase_1,,,,,,,,,,,,,orange,flipped triangle
96.0,6.0,1.0,1.0,4.0,4.0,410.18939400009907,3.0,1.0,phase_1,,,,,,,,,,,,,gray,triangle
106.0,6.0,1.0,1.0,3.0,3.0,433.3878919997005,3.0,1.0,phase_1,,,,,,,,,,,,,gray,triangle
0.0,5.0,0.0,1.0,4.0,4.0,453.3104259999163,3.0,1.0,phase_1,,,,,,,,,,,,,blue,circle
84.0,6.0,1.0,1.0,2.0,2.0,354.7478969999247,3.0,1.0,phase_1,,,,,,,,,,,,,gray,triangle
0.0,6.0,0.0,1.0,4.0,4.0,472.108482999829,3.0,1.0,phase_1,,,,,,,,,,,,,gray,triangle
182.0,7.0,2.0,1.0,4.0,4.0,419.9966840001252,3.0,1.0,phase_1,,,,,,,,,,,,,magenta,diamond
25.0,5.0,0.5,1.0,4.0,4.0,371.0046000001057,4.0,1.0,phase_1,,,,,,,,,,,,,blue,circle
386.0,4.0,4.0,0.0,3.0,3.0,416.3674720002746,4.0,1.0,phase_1,,,,,,,,,,,,,cyan,cross
213.0,3.0,2.0,0.0,4.0,4.0,425.7825059999049,4.0,1.0,phase_1,,,,,,,,,,,,,yellow,I
110.0,2.0,1.0,0.0,3.0,3.0,340.6152930001553,4.0,1.0,phase_1,,,,,,,,,,,,,green,hexagon
67.0,1.0,0.5,0.0,4.0,4.0,370.2363659999719,4.0,1.0,phase_1,,,,,,,,,,,,,white,square
0.0,7.0,0.0,1.0,1.0,1.0,427.974598000219,4.0,1.0,phase_1,,,,,,,,,,,,,magenta,diamond
215.0,3.0,2.0,0.0,3.0,3.0,373.9407299999584,4.0,1.0,phase_1,,,,,,,,,,,,,yellow,I
191.0,3.0,2.0,0.0,2.0,2.0,478.6707270000079,4.0,1.0,phase_1,,,,,,,,,,,,,yellow,I
423.0,4.0,4.0,0.0,2.0,2.0,477.291055999558,4.0,1.0,phase_1,,,,,,,,,,,,,cyan,cross
413.0,8.0,4.0,1.0,2.0,2.0,488.1225640001503,4.0,1.0,phase_1,,,,,,,,,,,,,orange,flipped triangle
50.0,5.0,0.5,1.0,2.0,2.0,400.6249049998587,4.0,1.0,phase_1,,,,,,,,,,,,,blue,circle
67.0,1.0,0.5,0.0,1.0,1.0,457.6336629997968,4.0,1.0,phase_1,,,,,,,,,,,,,white,square
47.0,5.0,0.5,1.0,4.0,4.0,400.1865729997007,4.0,1.0,phase_1,,,,,,,,,,,,,blue,circle
42.0,1.0,0.5,0.0,3.0,3.0,425.0829900001918,4.0,1.0,phase_1,,,,,,,,,,,,,white,square
415.0,8.0,4.0,1.0,1.0,1.0,403.1865480001215,4.0,1.0,phase_1,,,,,,,,,,,,,orange,flipped triangle
185.0,3.0,2.0,0.0,4.0,4.0,375.74100500023627,4.0,1.0,phase_1,,,,,,,,,,,,,yellow,I
194.0,3.0,2.0,0.0,2.0,2.0,384.6012359999804,4.0,1.0,phase_1,,,,,,,,,,,,,yellow,I
177.0,7.0,2.0,1.0,2.0,2.0,536.8574530002661,4.0,1.0,phase_1,,,,,,,,,,,,,magenta,diamond
215.0,7.0,2.0,1.0,4.0,4.0,517.5734949998514,4.0,1.0,phase_1,,,,,,,,,,,,,magenta,diamond
0.0,7.0,0.0,1.0,3.0,3.0,507.6962490002188,4.0,1.0,phase_1,,,,,,,,,,,,,magenta,diamond
0.0,3.0,0.0,0.0,4.0,4.0,458.6206409994702,4.0,1.0,phase_1,,,,,,,,,,,,,yellow,I
53.0,5.0,0.5,1.0,3.0,3.0,389.1461350003737,4.0,1.0,phase_1,,,,,,,,,,,,,blue,circle
38.0,5.0,0.5,1.0,3.0,3.0,369.8842869998771,4.0,1.0,phase_1,,,,,,,,,,,,,blue,circle
29.0,1.0,0.5,0.0,4.0,4.0,397.0096210005067,4.0,1.0,phase_1,,,,,,,,,,,,,white,square
78.0,6.0,1.0,1.0,3.0,3.0,466.727641000034,4.0,1.0,phase_1,,,,,,,,,,,,,gray,triangle
75.0,5.0,0.5,1.0,1.0,1.0,589.5742230004544,4.0,1.0,phase_1,,,,,,,,,,,,,blue,circle
0.0,7.0,0.0,1.0,2.0,2.0,488.1671240000287,4.0,1.0,phase_1,,,,,,,,,,,,,magenta,diamond
115.0,6.0,1.0,1.0,1.0,1.0,551.7715910000334,4.0,1.0,phase_1,,,,,,,,,,,,,gray,triangle
394.0,4.0,4.0,0.0,3.0,3.0,447.8688340004737,4.0,1.0,phase_1,,,,,,,,,,,,,cyan,cross
121.0,2.0,1.0,0.0,3.0,3.0,428.1253239996658,4.0,1.0,phase_1,,,,,,,,,,,,,green,hexagon
32.0,1.0,0.5,0.0,2.0,2.0,395.3458960004354,4.0,1.0,phase_1,,,,,,,,,,,,,white,square
204.0,7.0,2.0,1.0,3.0,3.0,404.5129159994758,4.0,1.0,phase_1,,,,,,,,,,,,,magenta,diamond
30.0,1.0,0.5,0.0,2.0,2.0,468.3818659996177,4.0,1.0,phase_1,,,,,,,,,,,,,white,square
36.0,5.0,0.5,1.0,4.0,4.0,447.7273900001819,4.0,1.0,phase_1,,,,,,,,,,,,,blue,circle
0.0,8.0,0.0,1.0,2.0,2.0,419.4132669999817,4.0,1.0,phase_1,,,,,,,,,,,,,orange,flipped triangle
213.0,7.0,2.0,1.0,4.0,4.0,463.0206680003539,4.0,1.0,phase_1,,,,,,,,,,,,,magenta,diamond
408.0,8.0,4.0,1.0,2.0,2.0,404.0718599999309,4.0,1.0,phase_1,,,,,,,,,,,,,orange,flipped triangle
53.0,1.0,0.5,0.0,3.0,3.0,446.3649780000196,4.0,1.0,phase_1,,,,,,,,,,,,,white,square
220.0,7.0,2.0,1.0,4.0,4.0,469.2411300002277,4.0,1.0,phase_1,,,,,,,,,,,,,magenta,diamond
382.0,4.0,4.0,0.0,1.0,1.0,409.5832590001009,4.0,1.0,phase_1,,,,,,,,,,,,,cyan,cross
0.0,5.0,0.0,1.0,2.0,2.0,442.3524209996685,4.0,1.0,phase_1,,,,,,,,,,,,,blue,circle
93.0,6.0,1.0,1.0,4.0,4.0,456.90810199994297,4.0,1.0,phase_1,,,,,,,,,,,,,gray,triangle
51.0,1.0,0.5,0.0,4.0,4.0,436.860720000368,4.0,1.0,phase_1,,,,,,,,,,,,,white,square
411.0,4.0,4.0,0.0,4.0,4.0,423.7890800004606,4.0,1.0,phase_1,,,,,,,,,,,,,cyan,cross
53.0,1.0,0.5,0.0,3.0,3.0,455.1555609996285,4.0,1.0,phase_1,,,,,,,,,,,,,white,square
0.0,1.0,0.0,0.0,4.0,4.0,487.3905620006553,4.0,1.0,phase_1,,,,,,,,,,,,,white,square
125.0,6.0,1.0,1.0,2.0,2.0,524.4851160005055,4.0,1.0,phase_1,,,,,,,,,,,,,gray,triangle
376.0,8.0,4.0,1.0,1.0,1.0,531.0511939997014,4.0,1.0,phase_1,,,,,,,,,,,,,orange,flipped triangle
33.0,1.0,0.5,0.0,4.0,4.0,501.93498299995554,4.0,1.0,phase_1,,,,,,,,,,,,,white,square
0.0,1.0,0.0,0.0,4.0,4.0,394.2957889994432,4.0,1.0,phase_1,,,,,,,,,,,,,white,square
386.0,8.0,4.0,1.0,2.0,2.0,384.9907280000479,4.0,1.0,phase_1,,,,,,,,,,,,,orange,flipped triangle
0.0,1.0,0.0,0.0,1.0,1.0,701.9367490001969,4.0,1.0,phase_1,,,,,,,,,,,,,white,square
197.0,3.0,2.0,0.0,4.0,4.0,484.6630310003093,4.0,1.0,phase_1,,,,,,,,,,,,,yellow,I
222.0,3.0,2.0,0.0,2.0,2.0,453.2916930002102,4.0,1.0,phase_1,,,,,,,,,,,,,yellow,I
0.0,5.0,0.0,1.0,1.0,1.0,537.0066020004742,4.0,1.0,phase_1,,,,,,,,,,,,,blue,circle
0.0,6.0,0.0,1.0,4.0,4.0,483.2341400006044,4.0,1.0,phase_1,,,,,,,,,,,,,gray,triangle
85.0,6.0,1.0,1.0,2.0,2.0,385.978019000504,4.0,1.0,phase_1,,,,,,,,,,,,,gray,triangle
45.0,5.0,0.5,1.0,3.0,3.0,441.1199770001985,4.0,1.0,phase_1,,,,,,,,,,,,,blue,circle
72.0,1.0,0.5,0.0,1.0,1.0,467.534852999961,4.0,1.0,phase_1,,,,,,,,,,,,,white,square
49.0,1.0,0.5,0.0,2.0,2.0,339.0875720006079,4.0,1.0,phase_1,,,,,,,,,,,,,white,square
0.0,7.0,0.0,1.0,3.0,3.0,470.4163849992255,4.0,1.0,phase_1,,,,,,,,,,,,,magenta,diamond
213.0,3.0,2.0,0.0,3.0,3.0,517.7424409994273,4.0,1.0,phase_1,,,,,,,,,,,,,yellow,I
103.0,6.0,1.0,1.0,4.0,4.0,428.1220349994328,4.0,1.0,phase_1,,,,,,,,,,,,,gray,triangle
40.0,5.0,0.5,1.0,3.0,3.0,465.0043520005056,4.0,1.0,phase_1,,,,,,,,,,,,,blue,circle
415.0,4.0,4.0,0.0,3.0,3.0,416.015177999725,4.0,1.0,phase_1,,,,,,,,,,,,,cyan,cross
101.0,2.0,1.0,0.0,4.0,4.0,433.1007560003854,4.0,1.0,phase_1,,,,,,,,,,,,,green,hexagon
116.0,2.0,1.0,0.0,1.0,1.0,483.4349160000784,4.0,1.0,phase_1,,,,,,,,,,,,,green,hexagon
197.0,3.0,2.0,0.0,1.0,1.0,519.4941019999533,4.0,1.0,phase_1,,,,,,,,,,,,,yellow,I
411.0,4.0,4.0,0.0,1.0,1.0,415.4075370006467,4.0,1.0,phase_1,,,,,,,,,,,,,cyan,cross
0.0,5.0,0.0,1.0,1.0,1.0,411.6086329995596,4.0,1.0,phase_1,,,,,,,,,,,,,blue,circle
82.0,6.0,1.0,1.0,2.0,2.0,401.0834790005901,4.0,1.0,phase_1,,,,,,,,,,,,,gray,triangle
412.0,4.0,4.0,0.0,2.0,2.0,362.3016829997141,4.0,1.0,phase_1,,,,,,,,,,,,,cyan,cross
422.0,4.0,4.0,0.0,3.0,3.0,544.9547349999193,4.0,1.0,phase_1,,,,,,,,,,,,,cyan,cross
0.0,8.0,0.0,1.0,3.0,3.0,427.6487189999898,4.0,1.0,phase_1,,,,,,,,,,,,,orange,flipped triangle
421.0,8.0,4.0,1.0,2.0,2.0,516.8174450000151,4.0,1.0,phase_1,,,,,,,,,,,,,orange,flipped triangle
177.0,3.0,2.0,0.0,4.0,4.0,705.8255120000467,4.0,1.0,phase_1,,,,,,,,,,,,,yellow,I
197.0,7.0,2.0,1.0,4.0,4.0,441.7893840000033,4.0,1.0,phase_1,,,,,,,,,,,,,magenta,diamond
204.0,3.0,2.0,0.0,3.0,3.0,421.0546340000292,4.0,1.0,phase_1,,,,,,,,,,,,,yellow,I
84.0,2.0,1.0,0.0,1.0,1.0,453.1679579995398,4.0,1.0,phase_1,,,,,,,,,,,,,green,hexagon
0.0,2.0,0.0,0.0,4.0,4.0,468.4409560004496,4.0,1.0,phase_1,,,,,,,,,,,,,green,hexagon
420.0,4.0,4.0,0.0,3.0,3.0,444.7483769999962,4.0,1.0,phase_1,,,,,,,,,,,,,cyan,cross
222.0,3.0,2.0,0.0,2.0,2.0,387.6411990004271,4.0,1.0,phase_1,,,,,,,,,,,,,yellow,I
104.0,6.0,1.0,1.0,1.0,1.0,463.411136999639,4.0,1.0,phase_1,,,,,,,,,,,,,gray,triangle
88.0,6.0,1.0,1.0,3.0,3.0,440.5565909992219,4.0,1.0,phase_1,,,,,,,,,,,,,gray,triangle
64.0,5.0,0.5,1.0,2.0,2.0,393.2789090004007,4.0,1.0,phase_1,,,,,,,,,,,,,blue,circle
117.0,6.0,1.0,1.0,1.0,1.0,538.9511809999021,4.0,1.0,phase_1,,,,,,,,,,,,,gray,triangle
176.0,7.0,2.0,1.0,1.0,1.0,383.5806260003664,4.0,1.0,phase_1,,,,,,,,,,,,,magenta,diamond
0.0,4.0,0.0,0.0,4.0,4.0,439.4340360004207,4.0,1.0,phase_1,,,,,,,,,,,,,cyan,cross
411.0,8.0,4.0,1.0,1.0,1.0,471.9358880001891,4.0,1.0,phase_1,,,,,,,,,,,,,orange,flipped triangle
209.0,7.0,2.0,1.0,2.0,2.0,496.1590259999866,4.0,1.0,phase_1,,,,,,,,,,,,,magenta,diamond
67.0,5.0,0.5,1.0,2.0,2.0,463.7728500001685,4.0,1.0,phase_1,,,,,,,,,,,,,blue,circle
30.0,5.0,0.5,1.0,4.0,4.0,422.5923819994932,4.0,1.0,phase_1,,,,,,,,,,,,,blue,circle
110.0,6.0,1.0,1.0,4.0,4.0,517.5279400000363,4.0,1.0,phase_1,,,,,,,,,,,,,gray,triangle
0.0,8.0,0.0,1.0,4.0,4.0,436.9490660001247,4.0,1.0,phase_1,,,,,,,,,,,,,orange,flipped triangle
121.0,6.0,1.0,1.0,4.0,4.0,478.8539999999557,4.0,1.0,phase_1,,,,,,,,,,,,,gray,triangle
404.0,4.0,4.0,0.0,3.0,3.0,393.4526000002734,4.0,1.0,phase_1,,,,,,,,,,,,,cyan,cross
45.0,1.0,0.5,0.0,3.0,3.0,417.0848439998735,4.0,1.0,phase_1,,,,,,,,,,,,,white,square
0.0,5.0,0.0,1.0,4.0,4.0,647.981148999861,4.0,1.0,phase_1,,,,,,,,,,,,,blue,circle
209.0,3.0,2.0,0.0,1.0,1.0,521.9346609992499,4.0,1.0,phase_1,,,,,,,,,,,,,yellow,I
417.0,8.0,4.0,1.0,3.0,3.0,371.9497480005884,4.0,1.0,phase_1,,,,,,,,,,,,,orange,flipped triangle
0.0,8.0,4.0,1.0,6.0,6.0,569.1740869997375,1.0,1.0,phase_2,stop,250.0,250.0,3.0,,,,,,,,,orange,flipped triangle
0.0,2.0,1.0,0.0,6.0,6.0,832.1064930005377,1.0,1.0,phase_2,go,250.0,200.0,1.0,,,,,,,,,green,hexagon
0.0,7.0,2.0,1.0,5.0,5.0,529.5030469997073,1.0,1.0,phase_2,go,250.0,200.0,1.0,,,,,,,,,magenta,diamond
0.0,8.0,4.0,1.0,5.0,5.0,587.4992110002495,1.0,1.0,phase_2,go,250.0,200.0,1.0,,,,,,,,,orange,flipped triangle
0.0,4.0,4.0,0.0,5.0,5.0,646.0353140000734,1.0,1.0,phase_2,go,250.0,200.0,1.0,,,,,,,,,cyan,cross
0.0,6.0,1.0,1.0,6.0,0.0,0.0,1.0,1.0,phase_2,stop,250.0,200.0,4.0,,,,,,,,,gray,triangle
0.0,5.0,0.5,1.0,6.0,0.0,0.0,1.0,1.0,phase_2,stop,250.0,250.0,4.0,,,,,,,,,blue,circle
0.0,3.0,2.0,0.0,5.0,5.0,410.2803949999725,1.0,1.0,phase_2,go,250.0,300.0,1.0,,,,,,,,,yellow,I
0.0,1.0,0.5,0.0,5.0,5.0,858.7046669999836,1.0,1.0,phase_2,go,250.0,300.0,1.0,,,,,,,,,white,square
0.0,3.0,2.0,0.0,6.0,6.0,672.4678870004936,1.0,1.0,phase_2,go,250.0,300.0,1.0,,,,,,,,,yellow,I
0.0,2.0,1.0,0.0,5.0,5.0,779.2987049997464,1.0,1.0,phase_2,go,250.0,300.0,1.0,,,,,,,,,green,hexagon
0.0,5.0,0.5,1.0,6.0,6.0,726.3132300004145,1.0,1.0,phase_2,go,250.0,300.0,1.0,,,,,,,,,blue,circle
0.0,4.0,4.0,0.0,6.0,6.0,536.7212089995519,1.0,1.0,phase_2,go,250.0,300.0,1.0,,,,,,,,,cyan,cross
0.0,5.0,0.5,1.0,6.0,6.0,702.9506600001696,1.0,1.0,phase_2,go,250.0,300.0,1.0,,,,,,,,,blue,circle
0.0,3.0,2.0,0.0,6.0,6.0,786.5178879992527,1.0,1.0,phase_2,go,250.0,300.0,1.0,,,,,,,,,yellow,I
0.0,7.0,2.0,1.0,5.0,5.0,767.0540029994299,1.0,1.0,phase_2,go,250.0,300.0,1.0,,,,,,,,,magenta,diamond
0.0,5.0,0.5,1.0,5.0,0.0,0.0,1.0,1.0,phase_2,stop,250.0,300.0,4.0,,,,,,,,,blue,circle
0.0,1.0,0.5,0.0,6.0,6.0,667.7077979993555,1.0,1.0,phase_2,go,300.0,300.0,1.0,,,,,,,,,white,square
0.0,7.0,2.0,1.0,6.0,0.0,0.0,1.0,1.0,phase_2,stop,300.0,300.0,4.0,,,,,,,,,magenta,diamond
0.0,2.0,1.0,0.0,6.0,6.0,841.3828160000776,1.0,1.0,phase_2,go,300.0,350.0,1.0,,,,,,,,,green,hexagon
0.0,1.0,0.5,0.0,5.0,5.0,874.145980999856,1.0,1.0,phase_2,go,300.0,350.0,1.0,,,,,,,,,white,square
0.0,6.0,1.0,1.0,6.0,6.0,944.8839280003084,1.0,1.0,phase_2,go,300.0,350.0,1.0,,,,,,,,,gray,triangle
0.0,6.0,1.0,1.0,5.0,5.0,1002.2521520004375,1.0,1.0,phase_2,go,300.0,350.0,1.0,,,,,,,,,gray,triangle
0.0,2.0,1.0,0.0,5.0,5.0,1036.7599559995142,1.0,1.0,phase_2,go,300.0,350.0,1.0,,,,,,,,,green,hexagon
0.0,3.0,2.0,0.0,5.0,5.0,944.3002899997736,1.0,1.0,phase_2,go,300.0,350.0,1.0,,,,,,,,,yellow,I
0.0,7.0,2.0,1.0,5.0,0.0,0.0,1.0,1.0,phase_2,stop,300.0,350.0,4.0,,,,,,,,,magenta,diamond
0.0,4.0,4.0,0.0,5.0,5.0,761.5429180004867,1.0,1.0,phase_2,go,350.0,350.0,1.0,,,,,,,,,cyan,cross
0.0,8.0,4.0,1.0,6.0,6.0,700.7254929994815,1.0,1.0,phase_2,go,350.0,350.0,1.0,,,,,,,,,orange,flipped triangle
0.0,3.0,2.0,0.0,6.0,6.0,678.7397600000986,1.0,1.0,phase_2,go,350.0,350.0,1.0,,,,,,,,,yellow,I
0.0,1.0,0.5,0.0,6.0,6.0,739.2935580000994,1.0,1.0,phase_2,go,350.0,350.0,1.0,,,,,,,,,white,square
0.0,7.0,2.0,1.0,5.0,0.0,0.0,1.0,1.0,phase_2,stop,350.0,350.0,4.0,,,,,,,,,magenta,diamond
0.0,3.0,2.0,0.0,6.0,6.0,588.7245200001416,1.0,1.0,phase_2,go,400.0,350.0,1.0,,,,,,,,,yellow,I
0.0,5.0,0.5,1.0,5.0,0.0,0.0,1.0,1.0,phase_2,stop,400.0,350.0,4.0,,,,,,,,,blue,circle
0.0,5.0,0.5,1.0,6.0,0.0,0.0,1.0,1.0,phase_2,stop,450.0,350.0,4.0,,,,,,,,,blue,circle
0.0,8.0,4.0,1.0,6.0,6.0,621.2230549999731,1.0,1.0,phase_2,go,450.0,400.0,1.0,,,,,,,,,orange,flipped triangle
0.0,3.0,2.0,0.0,5.0,5.0,791.3175980002052,1.0,1.0,phase_2,go,450.0,400.0,1.0,,,,,,,,,yellow,I
0.0,3.0,2.0,0.0,5.0,5.0,668.4617830005664,2.0,1.0,phase_2,go,450.0,400.0,1.0,,,,,,,,,yellow,I
0.0,2.0,1.0,0.0,6.0,6.0,598.716966000211,2.0,1.0,phase_2,go,450.0,400.0,1.0,,,,,,,,,green,hexagon
0.0,5.0,0.5,1.0,5.0,0.0,0.0,2.0,1.0,phase_2,stop,450.0,400.0,4.0,,,,,,,,,blue,circle
0.0,3.0,2.0,0.0,6.0,6.0,702.8401010002199,2.0,1.0,phase_2,go,500.0,400.0,1.0,,,,,,,,,yellow,I
0.0,4.0,4.0,0.0,5.0,5.0,729.7021609992953,2.0,1.0,phase_2,go,500.0,400.0,1.0,,,,,,,,,cyan,cross
0.0,2.0,1.0,0.0,6.0,6.0,715.5778279993683,2.0,1.0,phase_2,go,500.0,400.0,1.0,,,,,,,,,green,hexagon
0.0,8.0,4.0,1.0,5.0,5.0,577.6852819999476,2.0,1.0,phase_2,stop,500.0,400.0,3.0,,,,,,,,,orange,flipped triangle
0.0,5.0,0.5,1.0,5.0,0.0,0.0,2.0,1.0,phase_2,stop,450.0,400.0,4.0,,,,,,,,,blue,circle
0.0,3.0,2.0,0.0,6.0,6.0,555.8639119999498,2.0,1.0,phase_2,go,500.0,400.0,1.0,,,,,,,,,yellow,I
0.0,7.0,2.0,1.0,5.0,5.0,853.9264009996259,2.0,1.0,phase_2,go,500.0,400.0,1.0,,,,,,,,,magenta,diamond
0.0,1.0,0.5,0.0,5.0,5.0,700.7114250000086,2.0,1.0,phase_2,go,500.0,400.0,1.0,,,,,,,,,white,square
0.0,4.0,4.0,0.0,5.0,5.0,632.9387299992959,2.0,1.0,phase_2,go,500.0,400.0,1.0,,,,,,,,,cyan,cross
0.0,4.0,4.0,0.0,6.0,6.0,458.4240899994256,2.0,1.0,phase_2,go,500.0,400.0,1.0,,,,,,,,,cyan,cross
0.0,2.0,1.0,0.0,5.0,5.0,610.610134000126,2.0,1.0,phase_2,go,500.0,400.0,1.0,,,,,,,,,green,hexagon
0.0,4.0,4.0,0.0,6.0,6.0,618.6390209995807,2.0,1.0,phase_2,go,500.0,400.0,1.0,,,,,,,,,cyan,cross
0.0,2.0,1.0,0.0,6.0,6.0,682.3919489997934,2.0,1.0,phase_2,go,500.0,400.0,1.0,,,,,,,,,green,hexagon
0.0,7.0,2.0,1.0,6.0,0.0,0.0,2.0,1.0,phase_2,stop,500.0,400.0,4.0,,,,,,,,,magenta,diamond
0.0,7.0,2.0,1.0,5.0,5.0,565.5523310006174,2.0,1.0,phase_2,go,500.0,450.0,1.0,,,,,,,,,magenta,diamond
0.0,4.0,4.0,0.0,5.0,5.0,464.4242570002461,2.0,1.0,phase_2,go,500.0,450.0,1.0,,,,,,,,,cyan,cross
0.0,6.0,1.0,1.0,5.0,0.0,0.0,2.0,1.0,phase_2,stop,500.0,450.0,4.0,,,,,,,,,gray,triangle
0.0,6.0,1.0,1.0,5.0,5.0,625.9219120001944,2.0,1.0,phase_2,stop,550.0,450.0,3.0,,,,,,,,,gray,triangle
0.0,8.0,4.0,1.0,6.0,0.0,0.0,2.0,1.0,phase_2,stop,500.0,450.0,4.0,,,,,,,,,orange,flipped triangle
0.0,1.0,0.5,0.0,6.0,6.0,812.3775140002181,2.0,1.0,phase_2,go,500.0,500.0,1.0,,,,,,,,,white,square
0.0,3.0,2.0,0.0,5.0,5.0,621.0414860006495,2.0,1.0,phase_2,go,500.0,500.0,1.0,,,,,,,,,yellow,I
0.0,4.0,4.0,0.0,6.0,6.0,555.8845530003964,2.0,1.0,phase_2,go,500.0,500.0,1.0,,,,,,,,,cyan,cross
0.0,5.0,0.5,1.0,6.0,6.0,555.5089760000556,2.0,1.0,phase_2,stop,500.0,500.0,3.0,,,,,,,,,blue,circle
0.0,4.0,4.0,0.0,6.0,6.0,737.6707310004349,2.0,1.0,phase_2,go,500.0,450.0,1.0,,,,,,,,,cyan,cross
0.0,1.0,0.5,0.0,5.0,5.0,650.4088830006367,2.0,1.0,phase_2,go,500.0,450.0,1.0,,,,,,,,,white,square
0.0,4.0,4.0,0.0,5.0,5.0,685.1589830002922,2.0,1.0,phase_2,go,500.0,450.0,1.0,,,,,,,,,cyan,cross
0.0,8.0,4.0,1.0,5.0,0.0,0.0,2.0,1.0,phase_2,stop,500.0,450.0,4.0,,,,,,,,,orange,flipped triangle
0.0,2.0,1.0,0.0,5.0,5.0,786.990818999584,2.0,1.0,phase_2,go,550.0,450.0,1.0,,,,,,,,,green,hexagon
0.0,6.0,1.0,1.0,6.0,0.0,0.0,2.0,1.0,phase_2,stop,550.0,450.0,4.0,,,,,,,,,gray,triangle
0.0,6.0,1.0,1.0,5.0,5.0,663.0459130001327,2.0,1.0,phase_2,stop,550.0,500.0,3.0,,,,,,,,,gray,triangle
0.0,6.0,1.0,1.0,5.0,5.0,631.3839800004644,2.0,1.0,phase_2,stop,500.0,500.0,3.0,,,,,,,,,gray,triangle
0.0,1.0,0.5,0.0,6.0,6.0,778.624502000639,2.0,1.0,phase_2,go,450.0,500.0,1.0,,,,,,,,,white,square
0.0,5.0,0.5,1.0,5.0,0.0,0.0,2.0,1.0,phase_2,stop,450.0,500.0,4.0,,,,,,,,,blue,circle
0.0,5.0,0.5,1.0,6.0,6.0,592.897828999412,3.0,1.0,phase_2,stop,500.0,500.0,3.0,,,,,,,,,blue,circle
0.0,6.0,1.0,1.0,5.0,5.0,967.3434480000652,3.0,1.0,phase_2,go,500.0,450.0,1.0,,,,,,,,,gray,triangle
0.0,1.0,0.5,0.0,5.0,5.0,684.8333620000631,3.0,1.0,phase_2,go,500.0,450.0,1.0,,,,,,,,,white,square
0.0,5.0,0.5,1.0,5.0,0.0,0.0,3.0,1.0,phase_2,stop,500.0,450.0,4.0,,,,,,,,,blue,circle
0.0,3.0,2.0,0.0,6.0,6.0,597.7901169999313,3.0,1.0,phase_2,go,550.0,450.0,1.0,,,,,,,,,yellow,I
0.0,4.0,4.0,0.0,5.0,5.0,624.5383499999662,3.0,1.0,phase_2,go,550.0,450.0,1.0,,,,,,,,,cyan,cross
0.0,1.0,0.5,0.0,5.0,5.0,691.015193999192,3.0,1.0,phase_2,go,550.0,450.0,1.0,,,,,,,,,white,square
0.0,6.0,1.0,1.0,5.0,5.0,609.2502820001755,3.0,1.0,phase_2,stop,550.0,450.0,3.0,,,,,,,,,gray,triangle
0.0,8.0,4.0,1.0,5.0,5.0,696.4301009993505,3.0,1.0,phase_2,go,500.0,450.0,1.0,,,,,,,,,orange,flipped triangle
0.0,6.0,1.0,1.0,5.0,0.0,0.0,3.0,1.0,phase_2,stop,500.0,450.0,4.0,,,,,,,,,gray,triangle
0.0,8.0,4.0,1.0,5.0,5.0,584.7260319997076,3.0,1.0,phase_2,stop,550.0,450.0,3.0,,,,,,,,,orange,flipped triangle
0.0,6.0,1.0,1.0,6.0,6.0,755.7631969993963,3.0,1.0,phase_2,go,500.0,450.0,1.0,,,,,,,,,gray,triangle
0.0,7.0,2.0,1.0,6.0,0.0,0.0,3.0,1.0,phase_2,stop,500.0,450.0,4.0,,,,,,,,,magenta,diamond
0.0,5.0,0.5,1.0,6.0,6.0,708.075161999659,3.0,1.0,phase_2,stop,500.0,500.0,3.0,,,,,,,,,blue,circle
0.0,6.0,1.0,1.0,5.0,5.0,978.4711070005868,3.0,1.0,phase_2,go,500.0,450.0,1.0,,,,,,,,,gray,triangle
0.0,3.0,2.0,0.0,6.0,6.0,1155.8573960001013,3.0,1.0,phase_2,go,500.0,450.0,1.0,,,,,,,,,yellow,I
0.0,1.0,0.5,0.0,6.0,6.0,879.5398570000543,3.0,1.0,phase_2,go,500.0,450.0,1.0,,,,,,,,,white,square
0.0,5.0,0.5,1.0,5.0,0.0,0.0,3.0,1.0,phase_2,stop,500.0,450.0,4.0,,,,,,,,,blue,circle
0.0,5.0,0.5,1.0,5.0,0.0,0.0,3.0,1.0,phase_2,stop,550.0,450.0,4.0,,,,,,,,,blue,circle
0.0,4.0,4.0,0.0,6.0,6.0,739.9795929995889,3.0,1.0,phase_2,go,600.0,450.0,1.0,,,,,,,,,cyan,cross
0.0,8.0,4.0,1.0,5.0,5.0,716.5620719997605,3.0,1.0,phase_2,stop,600.0,450.0,3.0,,,,,,,,,orange,flipped triangle
0.0,3.0,2.0,0.0,5.0,5.0,734.8315009994622,3.0,1.0,phase_2,go,550.0,450.0,1.0,,,,,,,,,yellow,I
0.0,2.0,1.0,0.0,5.0,5.0,757.9431329995714,3.0,1.0,phase_2,go,550.0,450.0,1.0,,,,,,,,,green,hexagon
0.0,2.0,1.0,0.0,6.0,6.0,503.62134100032563,3.0,1.0,phase_2,go,550.0,450.0,1.0,,,,,,,,,green,hexagon
0.0,4.0,4.0,0.0,5.0,5.0,717.0527030002631,3.0,1.0,phase_2,go,550.0,450.0,1.0,,,,,,,,,cyan,cross
0.0,4.0,4.0,0.0,6.0,6.0,652.7182410000023,3.0,1.0,phase_2,go,550.0,450.0,1.0,,,,,,,,,cyan,cross
0.0,6.0,1.0,1.0,6.0,0.0,0.0,3.0,1.0,phase_2,stop,550.0,450.0,4.0,,,,,,,,,gray,triangle
0.0,1.0,0.5,0.0,5.0,5.0,721.8832370008386,3.0,1.0,phase_2,go,550.0,500.0,1.0,,,,,,,,,white,square
0.0,2.0,1.0,0.0,6.0,6.0,506.18671299980633,3.0,1.0,phase_2,go,550.0,500.0,1.0,,,,,,,,,green,hexagon
0.0,3.0,2.0,0.0,5.0,5.0,683.1398590002209,3.0,1.0,phase_2,go,550.0,500.0,1.0,,,,,,,,,yellow,I
0.0,5.0,0.5,1.0,5.0,0.0,0.0,3.0,1.0,phase_2,stop,550.0,500.0,4.0,,,,,,,,,blue,circle
0.0,7.0,2.0,1.0,6.0,0.0,0.0,3.0,1.0,phase_2,stop,600.0,500.0,4.0,,,,,,,,,magenta,diamond
0.0,3.0,2.0,0.0,6.0,6.0,837.1156870007326,3.0,1.0,phase_2,go,600.0,550.0,1.0,,,,,,,,,yellow,I
0.0,3.0,2.0,0.0,5.0,5.0,671.8904159997692,3.0,1.0,phase_2,go,600.0,550.0,1.0,,,,,,,,,yellow,I
0.0,7.0,2.0,1.0,6.0,6.0,683.9714930001719,3.0,1.0,phase_2,go,600.0,550.0,1.0,,,,,,,,,magenta,diamond
0.0,7.0,2.0,1.0,6.0,0.0,0.0,3.0,1.0,phase_2,stop,600.0,550.0,4.0,,,,,,,,,magenta,diamond
0.0,6.0,1.0,1.0,5.0,5.0,570.1722059993699,4.0,1.0,phase_2,go,600.0,600.0,1.0,,,,,,,,,gray,triangle
0.0,4.0,4.0,0.0,6.0,6.0,525.2261130008264,4.0,1.0,phase_2,go,600.0,600.0,1.0,,,,,,,,,cyan,cross
0.0,2.0,1.0,0.0,5.0,5.0,589.6411360008642,4.0,1.0,phase_2,go,600.0,600.0,1.0,,,,,,,,,green,hexagon
0.0,2.0,1.0,0.0,6.0,6.0,582.326042999739,4.0,1.0,phase_2,go,600.0,600.0,1.0,,,,,,,,,green,hexagon
0.0,8.0,4.0,1.0,5.0,5.0,636.8979979997675,4.0,1.0,phase_2,stop,600.0,600.0,3.0,,,,,,,,,orange,flipped triangle
0.0,3.0,2.0,0.0,5.0,5.0,727.8142529994511,4.0,1.0,phase_2,go,550.0,600.0,1.0,,,,,,,,,yellow,I
0.0,2.0,1.0,0.0,6.0,6.0,541.7864450000707,4.0,1.0,phase_2,go,550.0,600.0,1.0,,,,,,,,,green,hexagon
0.0,1.0,0.5,0.0,5.0,5.0,539.2488159995992,4.0,1.0,phase_2,go,550.0,600.0,1.0,,,,,,,,,white,square
0.0,3.0,2.0,0.0,5.0,5.0,688.7860199994975,4.0,1.0,phase_2,go,550.0,600.0,1.0,,,,,,,,,yellow,I
0.0,2.0,1.0,0.0,6.0,6.0,600.9479699996518,4.0,1.0,phase_2,go,550.0,600.0,1.0,,,,,,,,,green,hexagon
0.0,1.0,0.5,0.0,6.0,6.0,393.9531799996985,4.0,1.0,phase_2,go,550.0,600.0,1.0,,,,,,,,,white,square
0.0,7.0,2.0,1.0,6.0,6.0,632.6753299999837,4.0,1.0,phase_2,stop,550.0,600.0,3.0,,,,,,,,,magenta,diamond
0.0,6.0,1.0,1.0,5.0,0.0,0.0,4.0,1.0,phase_2,stop,550.0,550.0,4.0,,,,,,,,,gray,triangle
0.0,3.0,2.0,0.0,5.0,5.0,610.932622999826,4.0,1.0,phase_2,go,600.0,550.0,1.0,,,,,,,,,yellow,I
0.0,2.0,1.0,0.0,5.0,5.0,641.6274979992522,4.0,1.0,phase_2,go,600.0,550.0,1.0,,,,,,,,,green,hexagon
0.0,6.0,1.0,1.0,5.0,5.0,413.0622089996905,4.0,1.0,phase_2,stop,600.0,550.0,3.0,,,,,,,,,gray,triangle
0.0,4.0,4.0,0.0,6.0,6.0,606.5732409997509,4.0,1.0,phase_2,go,550.0,550.0,1.0,,,,,,,,,cyan,cross
0.0,6.0,1.0,1.0,5.0,5.0,380.2607480001825,4.0,1.0,phase_2,go,550.0,550.0,1.0,,,,,,,,,gray,triangle
0.0,7.0,2.0,1.0,5.0,5.0,448.3845529994141,4.0,1.0,phase_2,stop,550.0,550.0,3.0,,,,,,,,,magenta,diamond
0.0,4.0,4.0,0.0,5.0,5.0,541.5568139997049,4.0,1.0,phase_2,go,500.0,550.0,1.0,,,,,,,,,cyan,cross
0.0,5.0,0.5,1.0,5.0,5.0,422.5509039997632,4.0,1.0,phase_2,go,500.0,550.0,1.0,,,,,,,,,blue,circle
0.0,7.0,2.0,1.0,5.0,5.0,300.9969610002372,4.0,1.0,phase_2,stop,500.0,550.0,3.0,,,,,,,,,magenta,diamond
0.0,5.0,0.5,1.0,6.0,0.0,0.0,4.0,1.0,phase_2,stop,450.0,550.0,4.0,,,,,,,,,blue,circle
0.0,8.0,4.0,1.0,6.0,6.0,737.826015999417,4.0,1.0,phase_2,go,450.0,600.0,1.0,,,,,,,,,orange,flipped triangle
0.0,6.0,1.0,1.0,5.0,5.0,551.1313569995764,4.0,1.0,phase_2,stop,450.0,600.0,3.0,,,,,,,,,gray,triangle
0.0,2.0,1.0,0.0,6.0,6.0,694.0916439998546,4.0,1.0,phase_2,go,400.0,600.0,1.0,,,,,,,,,green,hexagon
0.0,2.0,1.0,0.0,6.0,6.0,605.6560480001281,4.0,1.0,phase_2,go,400.0,600.0,1.0,,,,,,,,,green,hexagon
0.0,8.0,4.0,1.0,6.0,6.0,569.5884350006963,4.0,1.0,phase_2,stop,400.0,600.0,3.0,,,,,,,,,orange,flipped triangle
0.0,4.0,4.0,0.0,5.0,5.0,625.1969099994312,4.0,1.0,phase_2,go,400.0,550.0,1.0,,,,,,,,,cyan,cross
0.0,6.0,1.0,1.0,5.0,0.0,0.0,4.0,1.0,phase_2,stop,400.0,550.0,4.0,,,,,,,,,gray,triangle
0.0,1.0,0.5,0.0,5.0,5.0,729.6163470000465,4.0,1.0,phase_2,go,450.0,550.0,1.0,,,,,,,,,white,square
0.0,2.0,1.0,0.0,5.0,5.0,567.0125090000511,4.0,1.0,phase_2,go,450.0,550.0,1.0,,,,,,,,,green,hexagon
0.0,5.0,0.5,1.0,5.0,5.0,560.5934880004497,4.0,1.0,phase_2,go,450.0,550.0,1.0,,,,,,,,,blue,circle
0.0,7.0,2.0,1.0,6.0,6.0,685.1003820002006,4.0,1.0,phase_2,stop,450.0,550.0,3.0,,,,,,,,,magenta,diamond
0.0,1.0,0.5,0.0,6.0,6.0,657.812622000165,4.0,1.0,phase_2,go,450.0,500.0,1.0,,,,,,,,,white,square
0.0,4.0,4.0,0.0,6.0,6.0,707.6859949993377,4.0,1.0,phase_2,go,450.0,500.0,1.0,,,,,,,,,cyan,cross
0.0,3.0,2.0,0.0,6.0,6.0,561.1441110004307,5.0,1.0,phase_2,go,450.0,500.0,1.0,,,,,,,,,yellow,I
0.0,6.0,1.0,1.0,6.0,0.0,0.0,5.0,1.0,phase_2,stop,450.0,500.0,4.0,,,,,,,,,gray,triangle
0.0,2.0,1.0,0.0,5.0,5.0,693.9036020003186,5.0,1.0,phase_2,go,450.0,550.0,1.0,,,,,,,,,green,hexagon
0.0,1.0,0.5,0.0,6.0,6.0,510.47830100014835,5.0,1.0,phase_2,go,450.0,550.0,1.0,,,,,,,,,white,square
0.0,2.0,1.0,0.0,5.0,5.0,338.5443519991895,5.0,1.0,phase_2,go,450.0,550.0,1.0,,,,,,,,,green,hexagon
0.0,3.0,2.0,0.0,5.0,5.0,626.9414289999986,5.0,1.0,phase_2,go,450.0,550.0,1.0,,,,,,,,,yellow,I
0.0,2.0,1.0,0.0,5.0,5.0,643.7414829997579,5.0,1.0,phase_2,go,450.0,550.0,1.0,,,,,,,,,green,hexagon
0.0,6.0,1.0,1.0,6.0,0.0,0.0,5.0,1.0,phase_2,stop,450.0,550.0,4.0,,,,,,,,,gray,triangle
0.0,3.0,2.0,0.0,5.0,5.0,526.3030500000241,5.0,1.0,phase_2,go,450.0,600.0,1.0,,,,,,,,,yellow,I
0.0,5.0,0.5,1.0,5.0,0.0,0.0,5.0,1.0,phase_2,stop,450.0,600.0,4.0,,,,,,,,,blue,circle
0.0,1.0,0.5,0.0,6.0,6.0,299.3198510002912,5.0,1.0,phase_2,go,500.0,600.0,1.0,,,,,,,,,white,square
0.0,5.0,0.5,1.0,6.0,6.0,727.3740700002236,5.0,1.0,phase_2,go,500.0,600.0,1.0,,,,,,,,,blue,circle
0.0,1.0,0.5,0.0,5.0,5.0,632.5709320008173,5.0,1.0,phase_2,go,500.0,600.0,1.0,,,,,,,,,white,square
0.0,5.0,0.5,1.0,5.0,5.0,583.7299269996947,5.0,1.0,phase_2,stop,500.0,600.0,3.0,,,,,,,,,blue,circle
0.0,4.0,4.0,0.0,5.0,5.0,641.0797480002657,5.0,1.0,phase_2,go,450.0,600.0,1.0,,,,,,,,,cyan,cross
0.0,1.0,0.5,0.0,6.0,6.0,567.6980240004923,5.0,1.0,phase_2,go,450.0,600.0,1.0,,,,,,,,,white,square
0.0,2.0,1.0,0.0,6.0,6.0,486.7161840002154,5.0,1.0,phase_2,go,450.0,600.0,1.0,,,,,,,,,green,hexagon
0.0,6.0,1.0,1.0,6.0,6.0,637.7159950006899,5.0,1.0,phase_2,stop,450.0,600.0,3.0,,,,,,,,,gray,triangle
0.0,7.0,2.0,1.0,6.0,6.0,786.8676069992944,5.0,1.0,phase_2,go,450.0,550.0,1.0,,,,,,,,,magenta,diamond
0.0,5.0,0.5,1.0,5.0,5.0,455.7974819999799,5.0,1.0,phase_2,go,450.0,550.0,1.0,,,,,,,,,blue,circle
0.0,8.0,4.0,1.0,6.0,6.0,364.985030999378,5.0,1.0,phase_2,stop,450.0,550.0,3.0,,,,,,,,,orange,flipped triangle
0.0,1.0,0.5,0.0,5.0,5.0,614.9296119992869,5.0,1.0,phase_2,go,450.0,500.0,1.0,,,,,,,,,white,square
0.0,4.0,4.0,0.0,6.0,6.0,522.7835940004297,5.0,1.0,phase_2,go,450.0,500.0,1.0,,,,,,,,,cyan,cross
0.0,1.0,0.5,0.0,6.0,6.0,893.3375650003654,5.0,1.0,phase_2,go,450.0,500.0,1.0,,,,,,,,,white,square
0.0,2.0,1.0,0.0,6.0,6.0,671.4116260000083,5.0,1.0,phase_2,go,450.0,500.0,1.0,,,,,,,,,green,hexagon
0.0,1.0,0.5,0.0,5.0,5.0,639.1063460005171,5.0,1.0,phase_2,go,450.0,500.0,1.0,,,,,,,,,white,square
0.0,8.0,4.0,1.0,6.0,6.0,541.082698999162,5.0,1.0,phase_2,stop,450.0,500.0,3.0,,,,,,,,,orange,flipped triangle
0.0,7.0,2.0,1.0,6.0,0.0,0.0,5.0,1.0,phase_2,stop,450.0,450.0,4.0,,,,,,,,,magenta,diamond
0.0,3.0,2.0,0.0,5.0,5.0,768.349775000388,5.0,1.0,phase_2,go,450.0,500.0,1.0,,,,,,,,,yellow,I
0.0,2.0,1.0,0.0,5.0,5.0,725.7510549998187,5.0,1.0,phase_2,go,450.0,500.0,1.0,,,,,,,,,green,hexagon
0.0,5.0,0.5,1.0,6.0,6.0,542.0011619999059,5.0,1.0,phase_2,stop,450.0,500.0,3.0,,,,,,,,,blue,circle
0.0,8.0,4.0,1.0,6.0,6.0,863.5249489998387,5.0,1.0,phase_2,go,450.0,450.0,1.0,,,,,,,,,orange,flipped triangle
0.0,7.0,2.0,1.0,5.0,0.0,0.0,5.0,1.0,phase_2,stop,450.0,450.0,4.0,,,,,,,,,magenta,diamond
0.0,5.0,0.5,1.0,6.0,0.0,0.0,5.0,1.0,phase_2,stop,500.0,450.0,4.0,,,,,,,,,blue,circle
0.0,6.0,1.0,1.0,6.0,6.0,661.3653829999748,5.0,1.0,phase_2,go,500.0,500.0,1.0,,,,,,,,,gray,triangle
0.0,2.0,1.0,0.0,5.0,5.0,646.4871329999369,5.0,1.0,phase_2,go,500.0,500.0,1.0,,,,,,,,,green,hexagon
0.0,6.0,1.0,1.0,6.0,6.0,339.7875540003952,6.0,1.0,phase_2,stop,500.0,500.0,3.0,,,,,,,,,gray,triangle
0.0,4.0,4.0,0.0,5.0,5.0,547.2795679997944,6.0,1.0,phase_2,go,500.0,450.0,1.0,,,,,,,,,cyan,cross
0.0,2.0,1.0,0.0,6.0,6.0,358.3218470002975,6.0,1.0,phase_2,go,500.0,450.0,1.0,,,,,,,,,green,hexagon
0.0,1.0,0.5,0.0,5.0,5.0,555.389923999428,6.0,1.0,phase_2,go,500.0,450.0,1.0,,,,,,,,,white,square
0.0,2.0,1.0,0.0,5.0,5.0,387.4607850002576,6.0,1.0,phase_2,go,500.0,450.0,1.0,,,,,,,,,green,hexagon
0.0,8.0,4.0,1.0,6.0,6.0,303.8070039992817,6.0,1.0,phase_2,stop,500.0,450.0,3.0,,,,,,,,,orange,flipped triangle
0.0,8.0,4.0,1.0,5.0,0.0,0.0,6.0,1.0,phase_2,stop,500.0,400.0,4.0,,,,,,,,,orange,flipped triangle
0.0,6.0,1.0,1.0,5.0,5.0,423.2547060000797,6.0,1.0,phase_2,stop,550.0,400.0,3.0,,,,,,,,,gray,triangle
0.0,3.0,2.0,0.0,5.0,5.0,711.2282240004788,6.0,1.0,phase_2,go,500.0,400.0,1.0,,,,,,,,,yellow,I
0.0,6.0,1.0,1.0,6.0,0.0,0.0,6.0,1.0,phase_2,stop,500.0,400.0,4.0,,,,,,,,,gray,triangle
0.0,7.0,2.0,1.0,6.0,6.0,773.678468000071,6.0,1.0,phase_2,go,500.0,450.0,1.0,,,,,,,,,magenta,diamond
0.0,2.0,1.0,0.0,6.0,6.0,622.7358259993707,6.0,1.0,phase_2,go,500.0,450.0,1.0,,,,,,,,,green,hexagon
0.0,7.0,2.0,1.0,5.0,0.0,0.0,6.0,1.0,phase_2,stop,500.0,450.0,4.0,,,,,,,,,magenta,diamond
0.0,4.0,4.0,0.0,5.0,5.0,558.4082790001048,6.0,1.0,phase_2,go,550.0,450.0,1.0,,,,,,,,,cyan,cross
0.0,7.0,2.0,1.0,6.0,6.0,567.0448010005202,6.0,1.0,phase_2,stop,550.0,450.0,3.0,,,,,,,,,magenta,diamond
0.0,5.0,0.5,1.0,6.0,0.0,0.0,6.0,1.0,phase_2,stop,550.0,400.0,4.0,,,,,,,,,blue,circle
0.0,2.0,1.0,0.0,5.0,5.0,460.0357649997022,6.0,1.0,phase_2,go,550.0,450.0,1.0,,,,,,,,,green,hexagon
0.0,1.0,0.5,0.0,6.0,6.0,676.6832169996633,6.0,1.0,phase_2,go,550.0,450.0,1.0,,,,,,,,,white,square
0.0,5.0,0.5,1.0,6.0,0.0,0.0,6.0,1.0,phase_2,stop,550.0,450.0,4.0,,,,,,,,,blue,circle
0.0,1.0,0.5,0.0,5.0,5.0,677.6759559998027,6.0,1.0,phase_2,go,550.0,500.0,1.0,,,,,,,,,white,square
0.0,2.0,1.0,0.0,5.0,5.0,568.4478640005182,6.0,1.0,phase_2,go,550.0,500.0,1.0,,,,,,,,,green,hexagon
0.0,7.0,2.0,1.0,5.0,5.0,709.4714419999946,6.0,1.0,phase_2,stop,550.0,500.0,3.0,,,,,,,,,magenta,diamond
0.0,7.0,2.0,1.0,5.0,5.0,712.3069079998459,6.0,1.0,phase_2,go,500.0,500.0,1.0,,,,,,,,,magenta,diamond
0.0,4.0,4.0,0.0,5.0,5.0,917.1081000004052,6.0,1.0,phase_2,go,500.0,500.0,1.0,,,,,,,,,cyan,cross
0.0,8.0,4.0,1.0,5.0,0.0,0.0,6.0,1.0,phase_2,stop,500.0,500.0,4.0,,,,,,,,,orange,flipped triangle
0.0,8.0,4.0,1.0,6.0,0.0,0.0,6.0,1.0,phase_2,stop,550.0,500.0,4.0,,,,,,,,,orange,flipped triangle
0.0,1.0,0.5,0.0,5.0,5.0,703.1163769997875,6.0,1.0,phase_2,go,550.0,550.0,1.0,,,,,,,,,white,square
0.0,8.0,4.0,1.0,6.0,6.0,732.5519719997828,6.0,1.0,phase_2,go,550.0,550.0,1.0,,,,,,,,,orange,flipped triangle
0.0,3.0,2.0,0.0,6.0,6.0,603.2379309999669,6.0,1.0,phase_2,go,550.0,550.0,1.0,,,,,,,,,yellow,I
0.0,8.0,4.0,1.0,6.0,0.0,0.0,6.0,1.0,phase_2,stop,550.0,550.0,4.0,,,,,,,,,orange,flipped triangle
0.0,2.0,1.0,0.0,5.0,5.0,881.4142040000661,6.0,1.0,phase_2,go,550.0,600.0,1.0,,,,,,,,,green,hexagon
0.0,8.0,4.0,1.0,5.0,5.0,785.1162569995722,6.0,1.0,phase_2,stop,550.0,600.0,3.0,,,,,,,,,orange,flipped triangle
0.0,6.0,1.0,1.0,5.0,5.0,846.902682000291,6.0,1.0,phase_2,stop,500.0,600.0,3.0,,,,,,,,,gray,triangle
0.0,8.0,4.0,1.0,6.0,0.0,0.0,6.0,1.0,phase_2,stop,450.0,600.0,4.0,,,,,,,,,orange,flipped triangle
0.0,3.0,2.0,0.0,6.0,6.0,979.5604399996593,6.0,1.0,phase_2,go,450.0,650.0,1.0,,,,,,,,,yellow,I
0.0,6.0,1.0,1.0,6.0,0.0,0.0,6.0,1.0,phase_2,stop,450.0,650.0,4.0,,,,,,,,,gray,triangle
0.0,7.0,2.0,1.0,5.0,0.0,0.0,7.0,1.0,phase_2,stop,450.0,700.0,4.0,,,,,,,,,magenta,diamond
0.0,3.0,2.0,0.0,6.0,6.0,305.642901000283,7.0,1.0,phase_2,go,500.0,700.0,1.0,,,,,,,,,yellow,I
0.0,5.0,0.5,1.0,5.0,5.0,454.0241089998744,7.0,1.0,phase_2,stop,500.0,700.0,3.0,,,,,,,,,blue,circle
0.0,5.0,0.5,1.0,6.0,6.0,701.174928999535,7.0,1.0,phase_2,go,450.0,700.0,1.0,,,,,,,,,blue,circle
0.0,3.0,2.0,0.0,6.0,6.0,589.6460370004206,7.0,1.0,phase_2,go,450.0,700.0,1.0,,,,,,,,,yellow,I
0.0,8.0,4.0,1.0,5.0,5.0,390.9780650001266,7.0,1.0,phase_2,stop,450.0,700.0,3.0,,,,,,,,,orange,flipped triangle
0.0,3.0,2.0,0.0,6.0,6.0,553.3561109996299,7.0,1.0,phase_2,go,400.0,700.0,1.0,,,,,,,,,yellow,I
0.0,7.0,2.0,1.0,6.0,6.0,518.6958699996467,7.0,1.0,phase_2,stop,400.0,700.0,3.0,,,,,,,,,magenta,diamond
0.0,8.0,4.0,1.0,6.0,6.0,732.5011089997133,7.0,1.0,phase_2,stop,400.0,650.0,3.0,,,,,,,,,orange,flipped triangle
0.0,4.0,4.0,0.0,6.0,6.0,567.9009240002415,7.0,1.0,phase_2,go,400.0,600.0,1.0,,,,,,,,,cyan,cross
0.0,4.0,4.0,0.0,6.0,6.0,626.5656770001442,7.0,1.0,phase_2,go,400.0,600.0,1.0,,,,,,,,,cyan,cross
0.0,8.0,4.0,1.0,5.0,0.0,0.0,7.0,1.0,phase_2,stop,400.0,600.0,4.0,,,,,,,,,orange,flipped triangle
0.0,5.0,0.5,1.0,6.0,6.0,563.0360839995774,7.0,1.0,phase_2,stop,450.0,600.0,3.0,,,,,,,,,blue,circle
0.0,1.0,0.5,0.0,5.0,5.0,826.4873269999953,7.0,1.0,phase_2,go,450.0,550.0,1.0,,,,,,,,,white,square
0.0,3.0,2.0,0.0,5.0,5.0,801.2148349998824,7.0,1.0,phase_2,go,450.0,550.0,1.0,,,,,,,,,yellow,I
0.0,4.0,4.0,0.0,5.0,5.0,660.4293399996095,7.0,1.0,phase_2,go,450.0,550.0,1.0,,,,,,,,,cyan,cross
0.0,8.0,4.0,1.0,6.0,6.0,645.9565820005082,7.0,1.0,phase_2,stop,450.0,550.0,3.0,,,,,,,,,orange,flipped triangle
0.0,6.0,1.0,1.0,5.0,5.0,691.5560709994679,7.0,1.0,phase_2,go,450.0,500.0,1.0,,,,,,,,,gray,triangle
0.0,3.0,2.0,0.0,5.0,5.0,689.6149429994693,7.0,1.0,phase_2,go,450.0,500.0,1.0,,,,,,,,,yellow,I
0.0,8.0,4.0,1.0,5.0,0.0,0.0,7.0,1.0,phase_2,stop,450.0,500.0,4.0,,,,,,,,,orange,flipped triangle
0.0,1.0,0.5,0.0,6.0,6.0,636.0061240002324,7.0,1.0,phase_2,go,500.0,500.0,1.0,,,,,,,,,white,square
0.0,1.0,0.5,0.0,6.0,6.0,650.3228800002034,7.0,1.0,phase_2,go,500.0,500.0,1.0,,,,,,,,,white,square
0.0,7.0,2.0,1.0,5.0,0.0,0.0,7.0,1.0,phase_2,stop,500.0,500.0,4.0,,,,,,,,,magenta,diamond
0.0,6.0,1.0,1.0,6.0,0.0,0.0,7.0,1.0,phase_2,stop,550.0,500.0,4.0,,,,,,,,,gray,triangle
0.0,3.0,2.0,0.0,5.0,5.0,877.1529850000661,7.0,1.0,phase_2,go,550.0,550.0,1.0,,,,,,,,,yellow,I
0.0,7.0,2.0,1.0,6.0,0.0,0.0,7.0,1.0,phase_2,stop,550.0,550.0,4.0,,,,,,,,,magenta,diamond
0.0,1.0,0.5,0.0,6.0,6.0,881.538511999679,7.0,1.0,phase_2,go,550.0,600.0,1.0,,,,,,,,,white,square
0.0,8.0,4.0,1.0,5.0,0.0,0.0,7.0,1.0,phase_2,stop,550.0,600.0,4.0,,,,,,,,,orange,flipped triangle
0.0,5.0,0.5,1.0,6.0,0.0,0.0,7.0,1.0,phase_2,stop,600.0,600.0,4.0,,,,,,,,,blue,circle
0.0,4.0,4.0,0.0,5.0,5.0,653.7036270001408,7.0,1.0,phase_2,go,600.0,650.0,1.0,,,,,,,,,cyan,cross
0.0,6.0,1.0,1.0,6.0,0.0,0.0,7.0,1.0,phase_2,stop,600.0,650.0,4.0,,,,,,,,,gray,triangle
0.0,5.0,0.5,1.0,5.0,5.0,666.7273690000002,7.0,1.0,phase_2,stop,600.0,700.0,3.0,,,,,,,,,blue,circle
0.0,8.0,4.0,1.0,6.0,6.0,670.1392499999201,7.0,1.0,phase_2,go,550.0,700.0,1.0,,,,,,,,,orange,flipped triangle
0.0,7.0,2.0,1.0,6.0,6.0,469.1676299999017,7.0,1.0,phase_2,stop,550.0,700.0,3.0,,,,,,,,,magenta,diamond
0.0,8.0,4.0,1.0,6.0,6.0,462.8070270000535,7.0,1.0,phase_2,stop,550.0,650.0,3.0,,,,,,,,,orange,flipped triangle
0.0,6.0,1.0,1.0,6.0,6.0,750.1722959996187,7.0,1.0,phase_2,stop,550.0,600.0,3.0,,,,,,,,,gray,triangle
0.0,5.0,0.5,1.0,6.0,6.0,472.6303990000815,8.0,1.0,phase_2,go,550.0,550.0,1.0,,,,,,,,,blue,circle
0.0,8.0,4.0,1.0,5.0,5.0,417.4227869998503,8.0,1.0,phase_2,stop,550.0,550.0,3.0,,,,,,,,,orange,flipped triangle
0.0,2.0,1.0,0.0,6.0,6.0,493.4914610003034,8.0,1.0,phase_2,go,500.0,550.0,1.0,,,,,,,,,green,hexagon
0.0,6.0,1.0,1.0,6.0,6.0,412.9561760000797,8.0,1.0,phase_2,stop,500.0,550.0,3.0,,,,,,,,,gray,triangle
0.0,4.0,4.0,0.0,5.0,5.0,683.8874420000138,8.0,1.0,phase_2,go,500.0,500.0,1.0,,,,,,,,,cyan,cross
0.0,6.0,1.0,1.0,6.0,6.0,441.8019369995818,8.0,1.0,phase_2,stop,500.0,500.0,3.0,,,,,,,,,gray,triangle
0.0,4.0,4.0,0.0,6.0,6.0,782.6841449996209,8.0,1.0,phase_2,go,500.0,450.0,1.0,,,,,,,,,cyan,cross
0.0,5.0,0.5,1.0,6.0,6.0,518.663720999939,8.0,1.0,phase_2,stop,500.0,450.0,3.0,,,,,,,,,blue,circle
0.0,4.0,4.0,0.0,6.0,6.0,786.1028200004512,8.0,1.0,phase_2,go,500.0,400.0,1.0,,,,,,,,,cyan,cross
0.0,4.0,4.0,0.0,6.0,6.0,339.4345629994859,8.0,1.0,phase_2,go,500.0,400.0,1.0,,,,,,,,,cyan,cross
0.0,1.0,0.5,0.0,6.0,6.0,720.834007999656,8.0,1.0,phase_2,go,500.0,400.0,1.0,,,,,,,,,white,square
0.0,4.0,4.0,0.0,6.0,6.0,558.7923530001717,8.0,1.0,phase_2,go,500.0,400.0,1.0,,,,,,,,,cyan,cross
0.0,4.0,4.0,0.0,6.0,6.0,663.7321719999818,8.0,1.0,phase_2,go,500.0,400.0,1.0,,,,,,,,,cyan,cross
0.0,1.0,0.5,0.0,6.0,6.0,613.0272899999909,8.0,1.0,phase_2,go,500.0,400.0,1.0,,,,,,,,,white,square
0.0,7.0,2.0,1.0,5.0,5.0,552.1238319997792,8.0,1.0,phase_2,stop,500.0,400.0,3.0,,,,,,,,,magenta,diamond
0.0,7.0,2.0,1.0,5.0,0.0,0.0,8.0,1.0,phase_2,stop,450.0,400.0,4.0,,,,,,,,,magenta,diamond
0.0,5.0,0.5,1.0,5.0,5.0,489.5352499997898,8.0,1.0,phase_2,go,500.0,400.0,1.0,,,,,,,,,blue,circle
0.0,3.0,2.0,0.0,6.0,6.0,577.6878509996095,8.0,1.0,phase_2,go,500.0,400.0,1.0,,,,,,,,,yellow,I
0.0,2.0,1.0,0.0,6.0,6.0,610.6339979996847,8.0,1.0,phase_2,go,500.0,400.0,1.0,,,,,,,,,green,hexagon
0.0,3.0,2.0,0.0,6.0,6.0,542.0129730000554,8.0,1.0,phase_2,go,500.0,400.0,1.0,,,,,,,,,yellow,I
0.0,7.0,2.0,1.0,6.0,6.0,512.9766019999806,8.0,1.0,phase_2,go,500.0,400.0,1.0,,,,,,,,,magenta,diamond
0.0,7.0,2.0,1.0,5.0,5.0,600.0666640002237,8.0,1.0,phase_2,stop,500.0,400.0,3.0,,,,,,,,,magenta,diamond
0.0,3.0,2.0,0.0,6.0,6.0,892.7136120000796,8.0,1.0,phase_2,go,450.0,400.0,1.0,,,,,,,,,yellow,I
0.0,2.0,1.0,0.0,5.0,5.0,479.4330039994747,8.0,1.0,phase_2,go,450.0,400.0,1.0,,,,,,,,,green,hexagon
0.0,8.0,4.0,1.0,5.0,0.0,0.0,8.0,1.0,phase_2,stop,450.0,400.0,4.0,,,,,,,,,orange,flipped triangle
0.0,8.0,4.0,1.0,5.0,5.0,669.3977810000433,8.0,1.0,phase_2,go,500.0,400.0,1.0,,,,,,,,,orange,flipped triangle
0.0,1.0,0.5,0.0,6.0,6.0,618.1828430007954,8.0,1.0,phase_2,go,500.0,400.0,1.0,,,,,,,,,white,square
0.0,8.0,4.0,1.0,5.0,5.0,642.0331479994275,8.0,1.0,phase_2,stop,500.0,400.0,3.0,,,,,,,,,orange,flipped triangle
0.0,6.0,1.0,1.0,6.0,0.0,0.0,8.0,1.0,phase_2,stop,450.0,400.0,4.0,,,,,,,,,gray,triangle
0.0,1.0,0.5,0.0,5.0,5.0,781.7444289994455,8.0,1.0,phase_2,go,450.0,450.0,1.0,,,,,,,,,white,square
0.0,7.0,2.0,1.0,5.0,5.0,562.299293000251,8.0,1.0,phase_2,stop,450.0,450.0,3.0,,,,,,,,,magenta,diamond
0.0,4.0,4.0,0.0,5.0,5.0,402.6351590000558,8.0,1.0,phase_2,go,400.0,450.0,1.0,,,,,,,,,cyan,cross
0.0,5.0,0.5,1.0,5.0,5.0,375.7555780002803,8.0,1.0,phase_2,stop,400.0,450.0,3.0,,,,,,,,,blue,circle
0.0,7.0,2.0,1.0,6.0,0.0,0.0,8.0,1.0,phase_2,stop,350.0,450.0,4.0,,,,,,,,,magenta,diamond
0.0,1.0,0.5,0.0,5.0,5.0,688.9147040001262,8.0,1.0,phase_2,go,350.0,500.0,1.0,,,,,,,,,white,square
0.0,7.0,2.0,1.0,6.0,6.0,616.2256500001604,8.0,1.0,phase_2,stop,350.0,500.0,3.0,,,,,,,,,magenta,diamond
0.0,2.0,1.0,0.0,7.0,2.0,1757.4806159991567,1.0,1.0,phase_3,,,,,234.0,6.0,156.0,234.0,117.0,39.0,195.0,78.0,green,hexagon
0.0,5.0,0.5,1.0,7.0,3.0,4956.153290999282,1.0,1.0,phase_3,,,,,156.0,4.0,234.0,195.0,156.0,39.0,78.0,117.0,blue,circle
0.0,8.0,4.0,1.0,7.0,4.0,2147.8539310001,1.0,1.0,phase_3,,,,,34.0,1.0,170.0,102.0,204.0,34.0,136.0,68.0,orange,flipped triangle
0.0,4.0,4.0,0.0,7.0,1.0,4069.1429759999664,1.0,1.0,phase_3,,,,,294.0,6.0,294.0,245.0,49.0,147.0,196.0,98.0,cyan,cross
0.0,1.0,0.5,0.0,7.0,5.0,2826.538745000107,1.0,1.0,phase_3,,,,,78.0,2.0,117.0,234.0,39.0,195.0,78.0,156.0,white,square
0.0,2.0,1.0,0.0,7.0,4.0,3053.545733999272,1.0,1.0,phase_3,,,,,170.0,5.0,68.0,136.0,34.0,170.0,204.0,102.0,green,hexagon
0.0,3.0,2.0,0.0,7.0,5.0,3803.679503999774,1.0,1.0,phase_3,,,,,39.0,1.0,195.0,117.0,78.0,234.0,39.0,156.0,yellow,I
0.0,2.0,1.0,0.0,7.0,3.0,2673.957674000121,1.0,1.0,phase_3,,,,,264.0,6.0,44.0,88.0,264.0,220.0,176.0,132.0,green,hexagon
0.0,1.0,0.5,0.0,7.0,4.0,1784.377320000203,1.0,1.0,phase_3,,,,,88.0,2.0,264.0,44.0,176.0,88.0,220.0,132.0,white,square
0.0,6.0,1.0,1.0,7.0,1.0,2785.146940000232,1.0,1.0,phase_3,,,,,162.0,3.0,162.0,270.0,216.0,54.0,324.0,108.0,gray,triangle
0.0,2.0,1.0,0.0,7.0,5.0,3009.291793000557,1.0,1.0,phase_3,,,,,264.0,6.0,88.0,44.0,176.0,220.0,264.0,132.0,green,hexagon
0.0,1.0,0.5,0.0,7.0,6.0,2528.182416999698,1.0,1.0,phase_3,,,,,68.0,2.0,136.0,170.0,204.0,102.0,34.0,68.0,white,square
0.0,7.0,2.0,1.0,7.0,6.0,2126.79587599996,1.0,1.0,phase_3,,,,,234.0,6.0,195.0,39.0,156.0,117.0,78.0,234.0,magenta,diamond
0.0,7.0,2.0,1.0,7.0,5.0,2807.7947129995664,1.0,1.0,phase_3,,,,,294.0,6.0,98.0,245.0,147.0,49.0,294.0,196.0,magenta,diamond
0.0,1.0,0.5,0.0,7.0,6.0,3413.4325090008133,1.0,1.0,phase_3,,,,,54.0,1.0,270.0,216.0,162.0,108.0,324.0,54.0,white,square
0.0,6.0,1.0,1.0,7.0,4.0,1843.4078659993247,1.0,1.0,phase_3,,,,,78.0,2.0,117.0,39.0,234.0,78.0,156.0,195.0,gray,triangle
0.0,3.0,2.0,0.0,7.0,5.0,3542.7391210005226,1.0,1.0,phase_3,,,,,170.0,5.0,136.0,68.0,204.0,102.0,170.0,34.0,yellow,I
0.0,3.0,2.0,0.0,7.0,5.0,3173.783686000206,1.0,1.0,phase_3,,,,,147.0,3.0,49.0,98.0,245.0,196.0,147.0,294.0,yellow,I
0.0,6.0,1.0,1.0,7.0,2.0,2381.4437170003657,1.0,1.0,phase_3,,,,,78.0,2.0,156.0,78.0,117.0,39.0,195.0,234.0,gray,triangle
0.0,1.0,0.5,0.0,7.0,5.0,1649.183139999877,1.0,1.0,phase_3,,,,,49.0,1.0,98.0,147.0,245.0,294.0,49.0,196.0,white,square
0.0,8.0,4.0,1.0,7.0,5.0,1726.63650999948,2.0,1.0,phase_3,,,,,195.0,5.0,117.0,78.0,39.0,156.0,195.0,234.0,orange,flipped triangle
0.0,8.0,4.0,1.0,7.0,6.0,1962.2473959998388,2.0,1.0,phase_3,,,,,147.0,3.0,196.0,49.0,98.0,245.0,294.0,147.0,orange,flipped triangle
0.0,2.0,1.0,0.0,7.0,4.0,2850.0709989993998,2.0,1.0,phase_3,,,,,195.0,5.0,117.0,156.0,234.0,195.0,39.0,78.0,green,hexagon
0.0,3.0,2.0,0.0,7.0,5.0,2299.1980070000864,2.0,1.0,phase_3,,,,,88.0,2.0,176.0,264.0,220.0,132.0,88.0,44.0,yellow,I
0.0,7.0,2.0,1.0,7.0,2.0,2150.9151069994914,2.0,1.0,phase_3,,,,,54.0,1.0,216.0,54.0,324.0,270.0,108.0,162.0,magenta,diamond
0.0,3.0,2.0,0.0,7.0,5.0,2438.302916999419,2.0,1.0,phase_3,,,,,170.0,5.0,204.0,136.0,34.0,68.0,170.0,102.0,yellow,I
0.0,5.0,0.5,1.0,7.0,4.0,2982.836670999859,2.0,1.0,phase_3,,,,,132.0,3.0,176.0,88.0,220.0,132.0,264.0,44.0,blue,circle
0.0,7.0,2.0,1.0,7.0,2.0,2409.0285459997176,2.0,1.0,phase_3,,,,,176.0,4.0,88.0,176.0,44.0,264.0,220.0,132.0,magenta,diamond
0.0,4.0,4.0,0.0,7.0,4.0,1882.5634520007952,2.0,1.0,phase_3,,,,,234.0,6.0,39.0,117.0,78.0,234.0,195.0,156.0,cyan,cross
0.0,7.0,2.0,1.0,7.0,4.0,1530.125174999739,2.0,1.0,phase_3,,,,,68.0,2.0,136.0,170.0,34.0,68.0,102.0,204.0,magenta,diamond
0.0,2.0,1.0,0.0,7.0,5.0,1739.874601000338,2.0,1.0,phase_3,,,,,216.0,4.0,270.0,324.0,54.0,162.0,216.0,108.0,green,hexagon
0.0,4.0,4.0,0.0,7.0,4.0,1649.0149379997092,2.0,1.0,phase_3,,,,,176.0,4.0,220.0,88.0,264.0,176.0,132.0,44.0,cyan,cross
0.0,5.0,0.5,1.0,7.0,6.0,1895.629371000723,2.0,1.0,phase_3,,,,,108.0,2.0,324.0,162.0,270.0,216.0,54.0,108.0,blue,circle
0.0,1.0,0.5,0.0,7.0,3.0,1681.370698000137,2.0,1.0,phase_3,,,,,136.0,4.0,170.0,204.0,136.0,34.0,102.0,68.0,white,square
0.0,4.0,4.0,0.0,7.0,4.0,2478.51055800038,2.0,1.0,phase_3,,,,,204.0,6.0,102.0,170.0,68.0,204.0,34.0,136.0,cyan,cross
0.0,4.0,4.0,0.0,7.0,2.0,1588.559679999889,2.0,1.0,phase_3,,,,,204.0,6.0,68.0,204.0,170.0,102.0,34.0,136.0,cyan,cross
0.0,1.0,0.5,0.0,7.0,5.0,1641.2148879999222,2.0,1.0,phase_3,,,,,98.0,2.0,294.0,196.0,245.0,49.0,98.0,147.0,white,square
0.0,3.0,2.0,0.0,7.0,4.0,1457.1398309999497,2.0,1.0,phase_3,,,,,117.0,3.0,39.0,234.0,195.0,117.0,156.0,78.0,yellow,I
0.0,2.0,1.0,0.0,7.0,2.0,1366.136137000467,2.0,1.0,phase_3,,,,,270.0,5.0,54.0,270.0,162.0,216.0,108.0,324.0,green,hexagon
0.0,6.0,1.0,1.0,7.0,5.0,1603.7596989999656,2.0,1.0,phase_3,,,,,98.0,2.0,245.0,294.0,49.0,196.0,98.0,147.0,gray,triangle
0.0,3.0,2.0,0.0,7.0,4.0,2166.30436899959,3.0,1.0,phase_3,,,,,196.0,4.0,98.0,147.0,49.0,196.0,245.0,294.0,yellow,I
0.0,5.0,0.5,1.0,7.0,5.0,1433.22482900021,3.0,1.0,phase_3,,,,,49.0,1.0,196.0,147.0,98.0,245.0,49.0,294.0,blue,circle
0.0,8.0,4.0,1.0,7.0,2.0,1602.265886999703,3.0,1.0,phase_3,,,,,170.0,5.0,68.0,170.0,102.0,136.0,204.0,34.0,orange,flipped triangle
0.0,6.0,1.0,1.0,7.0,3.0,2260.5174590007664,3.0,1.0,phase_3,,,,,176.0,4.0,264.0,88.0,176.0,220.0,44.0,132.0,gray,triangle
0.0,6.0,1.0,1.0,7.0,5.0,1538.0070900000646,3.0,1.0,phase_3,,,,,88.0,2.0,264.0,132.0,44.0,176.0,88.0,220.0,gray,triangle
0.0,8.0,4.0,1.0,7.0,4.0,1547.740476999934,3.0,1.0,phase_3,,,,,117.0,3.0,195.0,78.0,234.0,117.0,156.0,39.0,orange,flipped triangle
0.0,6.0,1.0,1.0,7.0,3.0,2504.4741929996235,3.0,1.0,phase_3,,,,,170.0,5.0,68.0,204.0,170.0,102.0,136.0,34.0,gray,triangle
0.0,7.0,2.0,1.0,7.0,4.0,1213.3697030003532,3.0,1.0,phase_3,,,,,216.0,4.0,54.0,108.0,270.0,216.0,162.0,324.0,magenta,diamond
0.0,5.0,0.5,1.0,7.0,3.0,2809.912933000305,3.0,1.0,phase_3,,,,,108.0,2.0,162.0,270.0,108.0,54.0,216.0,324.0,blue,circle
0.0,2.0,1.0,0.0,7.0,2.0,1894.10397499978,3.0,1.0,phase_3,,,,,147.0,3.0,245.0,147.0,98.0,294.0,49.0,196.0,green,hexagon
0.0,6.0,1.0,1.0,7.0,4.0,2627.607618000184,3.0,1.0,phase_3,,,,,108.0,2.0,162.0,324.0,270.0,108.0,216.0,54.0,gray,triangle
0.0,3.0,2.0,0.0,7.0,5.0,1935.7277600001908,3.0,1.0,phase_3,,,,,216.0,4.0,162.0,324.0,108.0,54.0,216.0,270.0,yellow,I
0.0,3.0,2.0,0.0,7.0,5.0,2539.726284999233,3.0,1.0,phase_3,,,,,162.0,3.0,108.0,216.0,54.0,270.0,162.0,324.0,yellow,I
0.0,7.0,2.0,1.0,7.0,2.0,1844.6629620002568,3.0,1.0,phase_3,,,,,204.0,6.0,136.0,204.0,68.0,170.0,34.0,102.0,magenta,diamond
0.0,8.0,4.0,1.0,7.0,1.0,2020.9419060001892,3.0,1.0,phase_3,,,,,88.0,2.0,88.0,44.0,176.0,220.0,264.0,132.0,orange,flipped triangle
0.0,5.0,0.5,1.0,7.0,3.0,1806.7145249997336,3.0,1.0,phase_3,,,,,39.0,1.0,234.0,117.0,39.0,156.0,195.0,78.0,blue,circle
0.0,5.0,0.5,1.0,7.0,4.0,1461.3407130000269,3.0,1.0,phase_3,,,,,68.0,2.0,102.0,204.0,34.0,68.0,170.0,136.0,blue,circle
0.0,4.0,4.0,0.0,7.0,2.0,1876.0303569997632,3.0,1.0,phase_3,,,,,294.0,6.0,245.0,294.0,49.0,98.0,147.0,196.0,cyan,cross
0.0,4.0,4.0,0.0,7.0,3.0,1786.6659979999897,3.0,1.0,phase_3,,,,,270.0,5.0,162.0,54.0,270.0,324.0,108.0,216.0,cyan,cross
0.0,5.0,0.5,1.0,7.0,3.0,2200.8425470003203,3.0,1.0,phase_3,,,,,132.0,3.0,44.0,264.0,132.0,176.0,220.0,88.0,blue,circle
0.0,6.0,1.0,1.0,7.0,6.0,1521.1040829999547,4.0,1.0,phase_3,,,,,98.0,2.0,147.0,294.0,245.0,196.0,49.0,98.0,gray,triangle
0.0,4.0,4.0,0.0,7.0,6.0,3564.211789999717,4.0,1.0,phase_3,,,,,176.0,4.0,132.0,220.0,44.0,88.0,264.0,176.0,cyan,cross
0.0,7.0,2.0,1.0,7.0,4.0,2593.4543680004936,4.0,1.0,phase_3,,,,,117.0,3.0,234.0,156.0,195.0,117.0,39.0,78.0,magenta,diamond
0.0,8.0,4.0,1.0,7.0,5.0,1709.7917660003077,4.0,1.0,phase_3,,,,,108.0,2.0,216.0,54.0,162.0,270.0,108.0,324.0,orange,flipped triangle
0.0,1.0,0.5,0.0,7.0,3.0,1879.911729000014,4.0,1.0,phase_3,,,,,108.0,2.0,270.0,324.0,108.0,216.0,54.0,162.0,white,square
0.0,7.0,2.0,1.0,7.0,4.0,1876.224592999279,4.0,1.0,phase_3,,,,,220.0,5.0,44.0,264.0,88.0,220.0,176.0,132.0,magenta,diamond
0.0,2.0,1.0,0.0,7.0,1.0,3213.078370000403,4.0,1.0,phase_3,,,,,294.0,6.0,294.0,49.0,98.0,196.0,147.0,245.0,green,hexagon
0.0,5.0,0.5,1.0,7.0,6.0,2724.183981999886,4.0,1.0,phase_3,,,,,98.0,2.0,147.0,49.0,245.0,196.0,294.0,98.0,blue,circle
0.0,4.0,4.0,0.0,7.0,2.0,1734.5306019997224,4.0,1.0,phase_3,,,,,270.0,5.0,324.0,270.0,108.0,54.0,162.0,216.0,cyan,cross
0.0,3.0,2.0,0.0,7.0,4.0,1299.9019710005086,4.0,1.0,phase_3,,,,,132.0,3.0,44.0,220.0,264.0,132.0,176.0,88.0,yellow,I
0.0,1.0,0.5,0.0,7.0,2.0,3245.1482220003527,4.0,1.0,phase_3,,,,,176.0,4.0,132.0,176.0,88.0,44.0,264.0,220.0,white,square
0.0,8.0,4.0,1.0,7.0,4.0,1519.9454209996477,4.0,1.0,phase_3,,,,,147.0,3.0,49.0,196.0,294.0,147.0,98.0,245.0,orange,flipped triangle
0.0,2.0,1.0,0.0,7.0,3.0,1163.3220139992773,4.0,1.0,phase_3,,,,,136.0,4.0,34.0,68.0,136.0,102.0,170.0,204.0,green,hexagon
0.0,8.0,4.0,1.0,7.0,5.0,2760.498225999981,4.0,1.0,phase_3,,,,,176.0,4.0,44.0,220.0,132.0,88.0,176.0,264.0,orange,flipped triangle
0.0,5.0,0.5,1.0,7.0,3.0,3876.742856999954,4.0,1.0,phase_3,,,,,68.0,2.0,136.0,34.0,68.0,204.0,170.0,102.0,blue,circle
0.0,1.0,0.5,0.0,7.0,3.0,2754.47802799954,4.0,1.0,phase_3,,,,,78.0,2.0,39.0,234.0,78.0,117.0,195.0,156.0,white,square
0.0,4.0,4.0,0.0,7.0,5.0,3370.9077359999355,4.0,1.0,phase_3,,,,,156.0,4.0,78.0,39.0,234.0,195.0,156.0,117.0,cyan,cross
0.0,7.0,2.0,1.0,7.0,4.0,2497.397813999669,4.0,1.0,phase_3,,,,,196.0,4.0,294.0,147.0,245.0,196.0,98.0,49.0,magenta,diamond
0.0,8.0,4.0,1.0,7.0,4.0,1822.6064020000197,4.0,1.0,phase_3,,,,,270.0,5.0,54.0,324.0,216.0,270.0,162.0,108.0,orange,flipped triangle
0.0,6.0,1.0,1.0,7.0,4.0,2704.591122999773,4.0,1.0,phase_3,,,,,68.0,2.0,102.0,136.0,170.0,68.0,34.0,204.0,gray,triangle
