raw_reward_magnitude,stim_reward,stepwise_reward_magnitude,paired_with_stopping,quadrant,response,reaction_time,block,num_trial_presentations,which_part,stop_signal_trial_type,left_SSD,right_SSD,accuracy,chosen_bidding_amount,chosen_bidding_level,possible_bid_1,possible_bid_2,possible_bid_3,possible_bid_4,possible_bid_5,possible_bid_6,color_text,shape_text
0.0,1.0,0.0,0.0,3.0,3.0,469.3426040003032,1.0,1.0,part_1,,,,,,,,,,,,,blue,diamond
206.0,7.0,3.0,1.0,2.0,2.0,364.0201590001197,1.0,1.0,part_1,,,,,,,,,,,,,orange,square
0.0,6.0,0.0,1.0,2.0,2.0,402.6259889997163,1.0,1.0,part_1,,,,,,,,,,,,,gray,flipped triangle
42.0,1.0,1.0,0.0,3.0,3.0,405.3042310001729,1.0,1.0,part_1,,,,,,,,,,,,,blue,diamond
0.0,2.0,0.0,0.0,1.0,1.0,318.8113349997366,1.0,1.0,part_1,,,,,,,,,,,,,white,circle
0.0,5.0,0.0,1.0,2.0,2.0,386.65909000019377,1.0,1.0,part_1,,,,,,,,,,,,,yellow,I
110.0,6.0,2.0,1.0,3.0,3.0,298.7725020002472,1.0,1.0,part_1,,,,,,,,,,,,,gray,flipped triangle
88.0,6.0,2.0,1.0,1.0,1.0,278.8009209998563,1.0,1.0,part_1,,,,,,,,,,,,,gray,flipped triangle
68.0,1.0,1.0,0.0,3.0,3.0,304.9044300000787,1.0,1.0,part_1,,,,,,,,,,,,,blue,diamond
110.0,2.0,2.0,0.0,4.0,4.0,240.0532469996505,1.0,1.0,part_1,,,,,,,,,,,,,white,circle
72.0,1.0,1.0,0.0,1.0,1.0,342.2651490000135,1.0,1.0,part_1,,,,,,,,,,,,,blue,diamond
66.0,5.0,1.0,1.0,1.0,1.0,331.3945250001779,1.0,1.0,part_1,,,,,,,,,,,,,yellow,I
0.0,6.0,0.0,1.0,3.0,3.0,291.4023509997605,1.0,1.0,part_1,,,,,,,,,,,,,gray,flipped triangle
407.0,8.0,4.0,1.0,2.0,2.0,323.618432999865,1.0,1.0,part_1,,,,,,,,,,,,,magenta,cross
381.0,4.0,4.0,0.0,4.0,4.0,381.7820539998138,1.0,1.0,part_1,,,,,,,,,,,,,cyan,triangle
410.0,4.0,4.0,0.0,1.0,1.0,250.827407000088,1.0,1.0,part_1,,,,,,,,,,,,,cyan,triangle
30.0,1.0,1.0,0.0,2.0,2.0,355.741382999895,1.0,1.0,part_1,,,,,,,,,,,,,blue,diamond
0.0,4.0,0.0,0.0,2.0,2.0,329.3728480002755,1.0,1.0,part_1,,,,,,,,,,,,,cyan,triangle
390.0,4.0,4.0,0.0,2.0,2.0,303.7753140001769,1.0,1.0,part_1,,,,,,,,,,,,,cyan,triangle
0.0,6.0,0.0,1.0,3.0,3.0,267.472423000072,1.0,1.0,part_1,,,,,,,,,,,,,gray,flipped triangle
0.0,7.0,0.0,1.0,1.0,1.0,266.9560190001903,1.0,1.0,part_1,,,,,,,,,,,,,orange,square
93.0,6.0,2.0,1.0,4.0,4.0,338.4386859997903,1.0,1.0,part_1,,,,,,,,,,,,,gray,flipped triangle
79.0,6.0,2.0,1.0,3.0,3.0,305.3478430001632,1.0,1.0,part_1,,,,,,,,,,,,,gray,flipped triangle
386.0,8.0,4.0,1.0,2.0,2.0,296.3057619999745,1.0,1.0,part_1,,,,,,,,,,,,,magenta,cross
0.0,7.0,0.0,1.0,1.0,1.0,395.469870999932,1.0,1.0,part_1,,,,,,,,,,,,,orange,square
110.0,6.0,2.0,1.0,1.0,1.0,417.1287350000057,1.0,1.0,part_1,,,,,,,,,,,,,gray,flipped triangle
36.0,1.0,1.0,0.0,2.0,2.0,386.6934940001556,1.0,1.0,part_1,,,,,,,,,,,,,blue,diamond
99.0,6.0,2.0,1.0,2.0,2.0,394.406680999964,1.0,1.0,part_1,,,,,,,,,,,,,gray,flipped triangle
38.0,1.0,1.0,0.0,1.0,1.0,375.5450529997688,1.0,1.0,part_1,,,,,,,,,,,,,blue,diamond
203.0,3.0,3.0,0.0,3.0,3.0,302.2831069997664,1.0,1.0,part_1,,,,,,,,,,,,,green,hexagon
82.0,2.0,2.0,0.0,3.0,3.0,337.8357719998348,1.0,1.0,part_1,,,,,,,,,,,,,white,circle
44.0,5.0,1.0,1.0,1.0,1.0,290.6297210001867,1.0,1.0,part_1,,,,,,,,,,,,,yellow,I
0.0,3.0,0.0,0.0,2.0,2.0,326.448487000107,1.0,1.0,part_1,,,,,,,,,,,,,green,hexagon
408.0,4.0,4.0,0.0,1.0,1.0,282.7842159999818,1.0,1.0,part_1,,,,,,,,,,,,,cyan,triangle
106.0,6.0,2.0,1.0,1.0,1.0,345.8442060000379,1.0,1.0,part_1,,,,,,,,,,,,,gray,flipped triangle
400.0,8.0,4.0,1.0,4.0,4.0,321.2658910001664,1.0,1.0,part_1,,,,,,,,,,,,,magenta,cross
191.0,3.0,3.0,0.0,4.0,4.0,332.4529159999656,1.0,1.0,part_1,,,,,,,,,,,,,green,hexagon
177.0,7.0,3.0,1.0,3.0,3.0,332.1832390001873,1.0,1.0,part_1,,,,,,,,,,,,,orange,square
408.0,4.0,4.0,0.0,1.0,1.0,275.3224089997275,1.0,1.0,part_1,,,,,,,,,,,,,cyan,triangle
49.0,5.0,1.0,1.0,2.0,2.0,297.3296850000224,1.0,1.0,part_1,,,,,,,,,,,,,yellow,I
38.0,5.0,1.0,1.0,3.0,3.0,281.7515199999434,1.0,1.0,part_1,,,,,,,,,,,,,yellow,I
0.0,7.0,0.0,1.0,2.0,2.0,313.8818600000377,1.0,1.0,part_1,,,,,,,,,,,,,orange,square
196.0,3.0,3.0,0.0,1.0,1.0,318.8672270002826,1.0,1.0,part_1,,,,,,,,,,,,,green,hexagon
0.0,5.0,0.0,1.0,3.0,3.0,256.9841929998802,1.0,1.0,part_1,,,,,,,,,,,,,yellow,I
0.0,2.0,0.0,0.0,3.0,3.0,346.9136019998586,1.0,1.0,part_1,,,,,,,,,,,,,white,circle
93.0,2.0,2.0,0.0,3.0,3.0,307.1807410001383,1.0,1.0,part_1,,,,,,,,,,,,,white,circle
386.0,4.0,4.0,0.0,1.0,1.0,278.8359310002306,1.0,1.0,part_1,,,,,,,,,,,,,cyan,triangle
79.0,2.0,2.0,0.0,4.0,4.0,351.4592330002415,1.0,1.0,part_1,,,,,,,,,,,,,white,circle
398.0,4.0,4.0,0.0,4.0,4.0,367.4313420001454,1.0,1.0,part_1,,,,,,,,,,,,,cyan,triangle
74.0,1.0,1.0,0.0,1.0,1.0,373.964442000215,1.0,1.0,part_1,,,,,,,,,,,,,blue,diamond
0.0,3.0,0.0,0.0,1.0,1.0,327.5631410001551,1.0,1.0,part_1,,,,,,,,,,,,,green,hexagon
222.0,7.0,3.0,1.0,1.0,1.0,355.799050999849,1.0,1.0,part_1,,,,,,,,,,,,,orange,square
61.0,5.0,1.0,1.0,2.0,2.0,313.0614309998236,1.0,1.0,part_1,,,,,,,,,,,,,yellow,I
187.0,3.0,3.0,0.0,3.0,3.0,324.9554230001195,1.0,1.0,part_1,,,,,,,,,,,,,green,hexagon
183.0,7.0,3.0,1.0,2.0,2.0,362.6215250001223,1.0,1.0,part_1,,,,,,,,,,,,,orange,square
52.0,1.0,1.0,0.0,1.0,1.0,474.0403519999745,1.0,1.0,part_1,,,,,,,,,,,,,blue,diamond
77.0,6.0,2.0,1.0,1.0,1.0,369.4363360000352,1.0,1.0,part_1,,,,,,,,,,,,,gray,flipped triangle
40.0,1.0,1.0,0.0,3.0,3.0,428.5319689997777,1.0,1.0,part_1,,,,,,,,,,,,,blue,diamond
202.0,3.0,3.0,0.0,1.0,1.0,306.5649700001813,1.0,1.0,part_1,,,,,,,,,,,,,green,hexagon
0.0,2.0,0.0,0.0,4.0,4.0,342.5343439998869,1.0,1.0,part_1,,,,,,,,,,,,,white,circle
177.0,7.0,3.0,1.0,2.0,2.0,319.6001350002007,1.0,1.0,part_1,,,,,,,,,,,,,orange,square
406.0,8.0,4.0,1.0,4.0,4.0,302.0628969998142,1.0,1.0,part_1,,,,,,,,,,,,,magenta,cross
123.0,2.0,2.0,0.0,2.0,2.0,296.305896999911,1.0,1.0,part_1,,,,,,,,,,,,,white,circle
88.0,6.0,2.0,1.0,1.0,1.0,290.792264999709,1.0,1.0,part_1,,,,,,,,,,,,,gray,flipped triangle
210.0,3.0,3.0,0.0,2.0,2.0,352.0339820001936,1.0,1.0,part_1,,,,,,,,,,,,,green,hexagon
409.0,4.0,4.0,0.0,4.0,4.0,419.123620999926,1.0,1.0,part_1,,,,,,,,,,,,,cyan,triangle
88.0,2.0,2.0,0.0,3.0,3.0,404.9706870000591,1.0,1.0,part_1,,,,,,,,,,,,,white,circle
215.0,3.0,3.0,0.0,2.0,2.0,322.0815409999886,1.0,1.0,part_1,,,,,,,,,,,,,green,hexagon
82.0,2.0,2.0,0.0,1.0,1.0,319.9364349998177,1.0,1.0,part_1,,,,,,,,,,,,,white,circle
0.0,6.0,0.0,1.0,4.0,4.0,335.2276340001481,1.0,1.0,part_1,,,,,,,,,,,,,gray,flipped triangle
52.0,5.0,1.0,1.0,1.0,1.0,337.1519369998168,1.0,1.0,part_1,,,,,,,,,,,,,yellow,I
0.0,2.0,0.0,0.0,2.0,2.0,325.2296299997397,1.0,1.0,part_1,,,,,,,,,,,,,white,circle
400.0,4.0,4.0,0.0,2.0,2.0,339.4007760002751,1.0,1.0,part_1,,,,,,,,,,,,,cyan,triangle
403.0,8.0,4.0,1.0,2.0,2.0,341.2901520000559,1.0,1.0,part_1,,,,,,,,,,,,,magenta,cross
0.0,3.0,0.0,0.0,2.0,2.0,319.719601000088,1.0,1.0,part_1,,,,,,,,,,,,,green,hexagon
86.0,2.0,2.0,0.0,2.0,2.0,310.9677849997752,1.0,1.0,part_1,,,,,,,,,,,,,white,circle
220.0,7.0,3.0,1.0,4.0,4.0,319.3729780000467,1.0,1.0,part_1,,,,,,,,,,,,,orange,square
91.0,6.0,2.0,1.0,2.0,2.0,321.2303860000247,1.0,1.0,part_1,,,,,,,,,,,,,gray,flipped triangle
377.0,4.0,4.0,0.0,3.0,3.0,289.8753610002131,1.0,1.0,part_1,,,,,,,,,,,,,cyan,triangle
82.0,6.0,2.0,1.0,2.0,2.0,259.6609560000615,1.0,1.0,part_1,,,,,,,,,,,,,gray,flipped triangle
76.0,2.0,2.0,0.0,1.0,1.0,269.5193800000197,1.0,1.0,part_1,,,,,,,,,,,,,white,circle
0.0,3.0,0.0,0.0,3.0,3.0,310.574811999686,1.0,1.0,part_1,,,,,,,,,,,,,green,hexagon
405.0,8.0,4.0,1.0,3.0,3.0,385.4589939996913,1.0,1.0,part_1,,,,,,,,,,,,,magenta,cross
91.0,2.0,2.0,0.0,1.0,1.0,300.4858750000494,1.0,1.0,part_1,,,,,,,,,,,,,white,circle
201.0,7.0,3.0,1.0,1.0,1.0,311.4409820000219,1.0,1.0,part_1,,,,,,,,,,,,,orange,square
25.0,5.0,1.0,1.0,2.0,2.0,306.1084020000635,1.0,1.0,part_1,,,,,,,,,,,,,yellow,I
218.0,3.0,3.0,0.0,3.0,3.0,239.2863820000457,1.0,1.0,part_1,,,,,,,,,,,,,green,hexagon
99.0,2.0,2.0,0.0,4.0,4.0,296.9808440002452,1.0,1.0,part_1,,,,,,,,,,,,,white,circle
216.0,7.0,3.0,1.0,1.0,1.0,393.159482000101,1.0,1.0,part_1,,,,,,,,,,,,,orange,square
403.0,8.0,4.0,1.0,4.0,4.0,340.1193549998424,1.0,1.0,part_1,,,,,,,,,,,,,magenta,cross
399.0,4.0,4.0,0.0,4.0,4.0,316.6908540001714,1.0,1.0,part_1,,,,,,,,,,,,,cyan,triangle
38.0,5.0,1.0,1.0,1.0,1.0,333.8506279997091,1.0,1.0,part_1,,,,,,,,,,,,,yellow,I
213.0,3.0,3.0,0.0,1.0,1.0,341.2505679998503,1.0,1.0,part_1,,,,,,,,,,,,,green,hexagon
87.0,6.0,2.0,1.0,4.0,4.0,457.8053370000816,1.0,2.0,part_1,,,,,,,,,,,,,gray,flipped triangle
107.0,6.0,2.0,1.0,1.0,1.0,461.8102289996386,1.0,1.0,part_1,,,,,,,,,,,,,gray,flipped triangle
0.0,8.0,0.0,1.0,2.0,2.0,346.8520080000417,1.0,1.0,part_1,,,,,,,,,,,,,magenta,cross
223.0,7.0,3.0,1.0,2.0,2.0,394.2744060000223,1.0,1.0,part_1,,,,,,,,,,,,,orange,square
404.0,8.0,4.0,1.0,4.0,4.0,364.4057890001022,1.0,1.0,part_1,,,,,,,,,,,,,magenta,cross
33.0,5.0,1.0,1.0,4.0,4.0,339.2113750001044,1.0,1.0,part_1,,,,,,,,,,,,,yellow,I
30.0,1.0,1.0,0.0,2.0,2.0,324.6489020002627,1.0,1.0,part_1,,,,,,,,,,,,,blue,diamond
0.0,5.0,0.0,1.0,2.0,2.0,364.7884880001584,2.0,1.0,part_1,,,,,,,,,,,,,yellow,I
0.0,6.0,0.0,1.0,1.0,1.0,440.0468790004197,2.0,1.0,part_1,,,,,,,,,,,,,gray,flipped triangle
0.0,4.0,0.0,0.0,4.0,4.0,338.2651680003619,2.0,1.0,part_1,,,,,,,,,,,,,cyan,triangle
420.0,4.0,4.0,0.0,3.0,3.0,339.0654940003514,2.0,1.0,part_1,,,,,,,,,,,,,cyan,triangle
177.0,3.0,3.0,0.0,2.0,2.0,319.3063759999859,2.0,1.0,part_1,,,,,,,,,,,,,green,hexagon
49.0,1.0,1.0,0.0,1.0,1.0,327.573879999818,2.0,1.0,part_1,,,,,,,,,,,,,blue,diamond
60.0,1.0,1.0,0.0,4.0,4.0,280.1146219999282,2.0,1.0,part_1,,,,,,,,,,,,,blue,diamond
107.0,2.0,2.0,0.0,4.0,4.0,374.1955809996398,2.0,2.0,part_1,,,,,,,,,,,,,white,circle
414.0,4.0,4.0,0.0,2.0,2.0,316.8056730000899,2.0,1.0,part_1,,,,,,,,,,,,,cyan,triangle
0.0,4.0,0.0,0.0,4.0,4.0,361.8497880001996,2.0,1.0,part_1,,,,,,,,,,,,,cyan,triangle
0.0,1.0,0.0,0.0,3.0,3.0,337.2118540000883,2.0,1.0,part_1,,,,,,,,,,,,,blue,diamond
50.0,1.0,1.0,0.0,4.0,4.0,359.6190289999867,2.0,1.0,part_1,,,,,,,,,,,,,blue,diamond
123.0,2.0,2.0,0.0,2.0,2.0,331.5973720000329,2.0,1.0,part_1,,,,,,,,,,,,,white,circle
0.0,2.0,0.0,0.0,2.0,2.0,319.241361999957,2.0,1.0,part_1,,,,,,,,,,,,,white,circle
67.0,5.0,1.0,1.0,2.0,2.0,366.8195519999244,2.0,1.0,part_1,,,,,,,,,,,,,yellow,I
0.0,3.0,0.0,0.0,3.0,3.0,298.3413330002804,2.0,1.0,part_1,,,,,,,,,,,,,green,hexagon
408.0,8.0,4.0,1.0,1.0,1.0,321.64908499999,2.0,1.0,part_1,,,,,,,,,,,,,magenta,cross
50.0,1.0,1.0,0.0,1.0,1.0,392.1083230002296,2.0,1.0,part_1,,,,,,,,,,,,,blue,diamond
122.0,2.0,2.0,0.0,3.0,3.0,359.8029960003259,2.0,1.0,part_1,,,,,,,,,,,,,white,circle
218.0,7.0,3.0,1.0,4.0,4.0,363.1419610001103,2.0,1.0,part_1,,,,,,,,,,,,,orange,square
407.0,4.0,4.0,0.0,4.0,4.0,341.0414909999417,2.0,1.0,part_1,,,,,,,,,,,,,cyan,triangle
117.0,6.0,2.0,1.0,1.0,1.0,459.7180999999182,2.0,1.0,part_1,,,,,,,,,,,,,gray,flipped triangle
413.0,4.0,4.0,0.0,1.0,1.0,360.9870250002132,2.0,1.0,part_1,,,,,,,,,,,,,cyan,triangle
96.0,6.0,2.0,1.0,4.0,4.0,354.7983769999518,2.0,1.0,part_1,,,,,,,,,,,,,gray,flipped triangle
385.0,4.0,4.0,0.0,3.0,3.0,325.9243759998753,2.0,1.0,part_1,,,,,,,,,,,,,cyan,triangle
0.0,8.0,0.0,1.0,2.0,2.0,298.6825089997182,2.0,1.0,part_1,,,,,,,,,,,,,magenta,cross
420.0,8.0,4.0,1.0,1.0,1.0,373.6526910001885,2.0,1.0,part_1,,,,,,,,,,,,,magenta,cross
421.0,8.0,4.0,1.0,4.0,4.0,364.7744760000933,2.0,1.0,part_1,,,,,,,,,,,,,magenta,cross
399.0,8.0,4.0,1.0,3.0,3.0,322.7669899997636,2.0,1.0,part_1,,,,,,,,,,,,,magenta,cross
414.0,8.0,4.0,1.0,2.0,2.0,298.7379430001056,2.0,1.0,part_1,,,,,,,,,,,,,magenta,cross
0.0,3.0,0.0,0.0,2.0,2.0,327.7148950000992,2.0,1.0,part_1,,,,,,,,,,,,,green,hexagon
107.0,2.0,2.0,0.0,2.0,2.0,366.1199500002112,2.0,1.0,part_1,,,,,,,,,,,,,white,circle
0.0,5.0,0.0,1.0,3.0,3.0,286.0752010001306,2.0,1.0,part_1,,,,,,,,,,,,,yellow,I
195.0,7.0,3.0,1.0,2.0,2.0,352.7558870000575,2.0,1.0,part_1,,,,,,,,,,,,,orange,square
83.0,2.0,2.0,0.0,3.0,3.0,277.5148370001261,2.0,1.0,part_1,,,,,,,,,,,,,white,circle
387.0,4.0,4.0,0.0,4.0,4.0,362.5249790002272,2.0,1.0,part_1,,,,,,,,,,,,,cyan,triangle
0.0,4.0,0.0,0.0,3.0,3.0,304.9750340001083,2.0,1.0,part_1,,,,,,,,,,,,,cyan,triangle
52.0,1.0,1.0,0.0,2.0,2.0,305.1684799997929,2.0,1.0,part_1,,,,,,,,,,,,,blue,diamond
114.0,2.0,2.0,0.0,4.0,4.0,307.1556059999238,2.0,1.0,part_1,,,,,,,,,,,,,white,circle
216.0,7.0,3.0,1.0,1.0,1.0,344.2193290002251,2.0,1.0,part_1,,,,,,,,,,,,,orange,square
384.0,4.0,4.0,0.0,3.0,3.0,290.729564999765,2.0,1.0,part_1,,,,,,,,,,,,,cyan,triangle
26.0,5.0,1.0,1.0,3.0,3.0,323.0765080002129,2.0,1.0,part_1,,,,,,,,,,,,,yellow,I
0.0,3.0,0.0,0.0,4.0,4.0,340.8893380001245,2.0,1.0,part_1,,,,,,,,,,,,,green,hexagon
203.0,7.0,3.0,1.0,1.0,1.0,320.1921669997318,2.0,1.0,part_1,,,,,,,,,,,,,orange,square
88.0,2.0,2.0,0.0,3.0,3.0,253.93836300008837,2.0,1.0,part_1,,,,,,,,,,,,,white,circle
0.0,7.0,0.0,1.0,4.0,4.0,333.5860580000371,2.0,1.0,part_1,,,,,,,,,,,,,orange,square
384.0,8.0,4.0,1.0,3.0,3.0,299.279456000022,2.0,1.0,part_1,,,,,,,,,,,,,magenta,cross
187.0,7.0,3.0,1.0,3.0,3.0,339.2415950002032,2.0,1.0,part_1,,,,,,,,,,,,,orange,square
416.0,8.0,4.0,1.0,3.0,3.0,336.986503999924,2.0,1.0,part_1,,,,,,,,,,,,,magenta,cross
0.0,1.0,0.0,0.0,1.0,1.0,336.1005799997656,2.0,1.0,part_1,,,,,,,,,,,,,blue,diamond
381.0,8.0,4.0,1.0,1.0,1.0,336.5618819998417,2.0,1.0,part_1,,,,,,,,,,,,,magenta,cross
118.0,6.0,2.0,1.0,4.0,4.0,387.2038459999203,2.0,1.0,part_1,,,,,,,,,,,,,gray,flipped triangle
42.0,5.0,1.0,1.0,4.0,4.0,349.7984220002763,2.0,1.0,part_1,,,,,,,,,,,,,yellow,I
398.0,8.0,4.0,1.0,2.0,2.0,327.6677990002099,2.0,1.0,part_1,,,,,,,,,,,,,magenta,cross
196.0,7.0,3.0,1.0,1.0,1.0,419.1333310000118,2.0,1.0,part_1,,,,,,,,,,,,,orange,square
215.0,7.0,3.0,1.0,2.0,2.0,338.5152040000321,2.0,1.0,part_1,,,,,,,,,,,,,orange,square
56.0,5.0,1.0,1.0,3.0,3.0,328.9849500001764,2.0,1.0,part_1,,,,,,,,,,,,,yellow,I
86.0,6.0,2.0,1.0,3.0,3.0,353.1840569999076,2.0,1.0,part_1,,,,,,,,,,,,,gray,flipped triangle
0.0,3.0,0.0,0.0,4.0,4.0,303.1467529999645,2.0,1.0,part_1,,,,,,,,,,,,,green,hexagon
198.0,7.0,3.0,1.0,2.0,2.0,354.4414530001631,2.0,1.0,part_1,,,,,,,,,,,,,orange,square
107.0,6.0,2.0,1.0,3.0,3.0,330.6450390000464,2.0,1.0,part_1,,,,,,,,,,,,,gray,flipped triangle
119.0,2.0,2.0,0.0,3.0,3.0,322.479913999814,2.0,1.0,part_1,,,,,,,,,,,,,white,circle
0.0,3.0,0.0,0.0,3.0,3.0,328.0890999999428,2.0,1.0,part_1,,,,,,,,,,,,,green,hexagon
396.0,4.0,4.0,0.0,2.0,2.0,306.37667100018,2.0,1.0,part_1,,,,,,,,,,,,,cyan,triangle
183.0,3.0,3.0,0.0,3.0,3.0,276.1119070000859,2.0,1.0,part_1,,,,,,,,,,,,,green,hexagon
61.0,1.0,1.0,0.0,2.0,2.0,336.5379249999023,2.0,1.0,part_1,,,,,,,,,,,,,blue,diamond
214.0,7.0,3.0,1.0,3.0,3.0,334.4447210001817,2.0,1.0,part_1,,,,,,,,,,,,,orange,square
377.0,8.0,4.0,1.0,2.0,2.0,393.2104249997792,2.0,1.0,part_1,,,,,,,,,,,,,magenta,cross
180.0,3.0,3.0,0.0,4.0,4.0,329.1587749999962,2.0,1.0,part_1,,,,,,,,,,,,,green,hexagon
76.0,6.0,2.0,1.0,4.0,4.0,365.62272299988757,2.0,1.0,part_1,,,,,,,,,,,,,gray,flipped triangle
74.0,1.0,1.0,0.0,4.0,4.0,300.277745999665,2.0,1.0,part_1,,,,,,,,,,,,,blue,diamond
0.0,6.0,0.0,1.0,4.0,4.0,333.1040510001912,2.0,1.0,part_1,,,,,,,,,,,,,gray,flipped triangle
187.0,3.0,3.0,0.0,2.0,2.0,315.2471019998302,2.0,1.0,part_1,,,,,,,,,,,,,green,hexagon
195.0,3.0,3.0,0.0,4.0,4.0,274.7736450000957,2.0,1.0,part_1,,,,,,,,,,,,,green,hexagon
108.0,6.0,2.0,1.0,4.0,4.0,294.4301799998357,2.0,1.0,part_1,,,,,,,,,,,,,gray,flipped triangle
220.0,3.0,3.0,0.0,3.0,3.0,318.7231360002442,2.0,1.0,part_1,,,,,,,,,,,,,green,hexagon
77.0,2.0,2.0,0.0,4.0,4.0,346.0290149996581,2.0,1.0,part_1,,,,,,,,,,,,,white,circle
390.0,8.0,4.0,1.0,3.0,3.0,299.8877209997772,2.0,1.0,part_1,,,,,,,,,,,,,magenta,cross
415.0,4.0,4.0,0.0,4.0,4.0,343.5125310002149,2.0,1.0,part_1,,,,,,,,,,,,,cyan,triangle
216.0,3.0,3.0,0.0,2.0,2.0,340.688031999889,2.0,1.0,part_1,,,,,,,,,,,,,green,hexagon
101.0,6.0,2.0,1.0,2.0,2.0,385.7512750000751,2.0,2.0,part_1,,,,,,,,,,,,,gray,flipped triangle
56.0,5.0,1.0,1.0,4.0,4.0,439.8065440000209,2.0,1.0,part_1,,,,,,,,,,,,,yellow,I
198.0,3.0,3.0,0.0,4.0,4.0,350.8569159998842,2.0,1.0,part_1,,,,,,,,,,,,,green,hexagon
79.0,2.0,2.0,0.0,3.0,3.0,318.9434760001859,2.0,1.0,part_1,,,,,,,,,,,,,white,circle
180.0,7.0,3.0,1.0,1.0,1.0,404.15018900012,2.0,1.0,part_1,,,,,,,,,,,,,orange,square
91.0,6.0,2.0,1.0,4.0,4.0,330.1141450001523,2.0,1.0,part_1,,,,,,,,,,,,,gray,flipped triangle
209.0,7.0,3.0,1.0,4.0,4.0,335.8429049999358,2.0,1.0,part_1,,,,,,,,,,,,,orange,square
375.0,8.0,4.0,1.0,1.0,1.0,340.0239409997994,2.0,1.0,part_1,,,,,,,,,,,,,magenta,cross
409.0,8.0,4.0,1.0,1.0,1.0,363.7900129997433,2.0,1.0,part_1,,,,,,,,,,,,,magenta,cross
112.0,2.0,2.0,0.0,1.0,1.0,355.5203900000379,2.0,1.0,part_1,,,,,,,,,,,,,white,circle
117.0,2.0,2.0,0.0,2.0,2.0,331.0179140003129,2.0,1.0,part_1,,,,,,,,,,,,,white,circle
193.0,7.0,3.0,1.0,4.0,4.0,339.7397120002097,2.0,1.0,part_1,,,,,,,,,,,,,orange,square
400.0,8.0,4.0,1.0,3.0,3.0,295.1700690000507,2.0,1.0,part_1,,,,,,,,,,,,,magenta,cross
206.0,3.0,3.0,0.0,3.0,3.0,288.5255070000312,2.0,1.0,part_1,,,,,,,,,,,,,green,hexagon
213.0,7.0,3.0,1.0,4.0,4.0,389.832245999969,2.0,1.0,part_1,,,,,,,,,,,,,orange,square
405.0,4.0,4.0,0.0,3.0,3.0,315.5750769997212,2.0,1.0,part_1,,,,,,,,,,,,,cyan,triangle
185.0,3.0,3.0,0.0,2.0,2.0,261.7955549999351,2.0,1.0,part_1,,,,,,,,,,,,,green,hexagon
377.0,8.0,4.0,1.0,1.0,1.0,335.8570360001067,2.0,1.0,part_1,,,,,,,,,,,,,magenta,cross
177.0,3.0,3.0,0.0,1.0,1.0,336.629935000019,2.0,1.0,part_1,,,,,,,,,,,,,green,hexagon
49.0,1.0,1.0,0.0,3.0,3.0,308.0632999999579,2.0,1.0,part_1,,,,,,,,,,,,,blue,diamond
202.0,7.0,3.0,1.0,3.0,3.0,343.6591700001372,3.0,1.0,part_1,,,,,,,,,,,,,orange,square
79.0,6.0,2.0,1.0,2.0,2.0,353.4127810003156,3.0,1.0,part_1,,,,,,,,,,,,,gray,flipped triangle
0.0,8.0,0.0,1.0,1.0,1.0,300.7415950000904,3.0,1.0,part_1,,,,,,,,,,,,,magenta,cross
71.0,5.0,1.0,1.0,2.0,2.0,292.5216769999679,3.0,1.0,part_1,,,,,,,,,,,,,yellow,I
0.0,4.0,0.0,0.0,3.0,3.0,261.675361000016,3.0,1.0,part_1,,,,,,,,,,,,,cyan,triangle
101.0,2.0,2.0,0.0,1.0,1.0,328.7815650000993,3.0,1.0,part_1,,,,,,,,,,,,,white,circle
410.0,8.0,4.0,1.0,4.0,4.0,321.0626420000153,3.0,1.0,part_1,,,,,,,,,,,,,magenta,cross
415.0,8.0,4.0,1.0,4.0,4.0,344.2930220003291,3.0,1.0,part_1,,,,,,,,,,,,,magenta,cross
413.0,8.0,4.0,1.0,3.0,3.0,333.0072520002431,3.0,1.0,part_1,,,,,,,,,,,,,magenta,cross
391.0,8.0,4.0,1.0,1.0,1.0,296.758944999965,3.0,1.0,part_1,,,,,,,,,,,,,magenta,cross
0.0,8.0,0.0,1.0,4.0,4.0,332.5013520002358,3.0,1.0,part_1,,,,,,,,,,,,,magenta,cross
54.0,1.0,1.0,0.0,4.0,4.0,347.4358149996988,3.0,1.0,part_1,,,,,,,,,,,,,blue,diamond
396.0,8.0,4.0,1.0,4.0,4.0,343.4543029998167,3.0,1.0,part_1,,,,,,,,,,,,,magenta,cross
202.0,7.0,3.0,1.0,4.0,4.0,313.346081000418,3.0,1.0,part_1,,,,,,,,,,,,,orange,square
176.0,7.0,3.0,1.0,3.0,3.0,370.9199210002225,3.0,1.0,part_1,,,,,,,,,,,,,orange,square
390.0,4.0,4.0,0.0,1.0,1.0,375.8052229995883,3.0,1.0,part_1,,,,,,,,,,,,,cyan,triangle
0.0,6.0,0.0,1.0,4.0,4.0,346.5515809998578,3.0,1.0,part_1,,,,,,,,,,,,,gray,flipped triangle
214.0,3.0,3.0,0.0,2.0,2.0,316.4293310001085,3.0,1.0,part_1,,,,,,,,,,,,,green,hexagon
123.0,6.0,2.0,1.0,3.0,3.0,314.0853800000514,3.0,1.0,part_1,,,,,,,,,,,,,gray,flipped triangle
108.0,6.0,2.0,1.0,3.0,3.0,408.020132999809,3.0,1.0,part_1,,,,,,,,,,,,,gray,flipped triangle
0.0,8.0,0.0,1.0,2.0,2.0,352.7960000001258,3.0,1.0,part_1,,,,,,,,,,,,,magenta,cross
36.0,5.0,1.0,1.0,4.0,4.0,332.1072779999667,3.0,1.0,part_1,,,,,,,,,,,,,yellow,I
0.0,5.0,0.0,1.0,1.0,1.0,339.0676899998652,3.0,1.0,part_1,,,,,,,,,,,,,yellow,I
107.0,2.0,2.0,0.0,1.0,1.0,345.4917020003449,3.0,1.0,part_1,,,,,,,,,,,,,white,circle
0.0,8.0,0.0,1.0,1.0,1.0,338.0922800001826,3.0,1.0,part_1,,,,,,,,,,,,,magenta,cross
106.0,2.0,2.0,0.0,1.0,1.0,323.6083890001282,3.0,1.0,part_1,,,,,,,,,,,,,white,circle
117.0,2.0,2.0,0.0,2.0,2.0,285.4867369997009,3.0,1.0,part_1,,,,,,,,,,,,,white,circle
0.0,4.0,0.0,0.0,3.0,3.0,313.6271250000391,3.0,1.0,part_1,,,,,,,,,,,,,cyan,triangle
194.0,3.0,3.0,0.0,3.0,3.0,337.0357500002683,3.0,1.0,part_1,,,,,,,,,,,,,green,hexagon
102.0,2.0,2.0,0.0,2.0,2.0,302.1739239998169,3.0,1.0,part_1,,,,,,,,,,,,,white,circle
190.0,3.0,3.0,0.0,1.0,1.0,289.6247520002362,3.0,1.0,part_1,,,,,,,,,,,,,green,hexagon
403.0,4.0,4.0,0.0,4.0,4.0,294.2750150000393,3.0,1.0,part_1,,,,,,,,,,,,,cyan,triangle
193.0,3.0,3.0,0.0,1.0,1.0,462.135047999709,3.0,1.0,part_1,,,,,,,,,,,,,green,hexagon
96.0,2.0,2.0,0.0,1.0,1.0,379.9850919999699,3.0,1.0,part_1,,,,,,,,,,,,,white,circle
191.0,7.0,3.0,1.0,3.0,3.0,360.7641860003241,3.0,1.0,part_1,,,,,,,,,,,,,orange,square
71.0,1.0,1.0,0.0,3.0,3.0,372.8499039998496,3.0,1.0,part_1,,,,,,,,,,,,,blue,diamond
49.0,5.0,1.0,1.0,2.0,2.0,379.2046090002259,3.0,1.0,part_1,,,,,,,,,,,,,yellow,I
408.0,8.0,4.0,1.0,1.0,1.0,303.1092520000129,3.0,1.0,part_1,,,,,,,,,,,,,magenta,cross
187.0,7.0,3.0,1.0,4.0,4.0,360.6218529998841,3.0,1.0,part_1,,,,,,,,,,,,,orange,square
108.0,2.0,2.0,0.0,1.0,1.0,368.3230659999026,3.0,1.0,part_1,,,,,,,,,,,,,white,circle
411.0,8.0,4.0,1.0,1.0,1.0,309.3573270002707,3.0,1.0,part_1,,,,,,,,,,,,,magenta,cross
112.0,6.0,2.0,1.0,1.0,1.0,320.6880679999813,3.0,1.0,part_1,,,,,,,,,,,,,gray,flipped triangle
52.0,5.0,1.0,1.0,3.0,3.0,322.6989789995969,3.0,1.0,part_1,,,,,,,,,,,,,yellow,I
401.0,4.0,4.0,0.0,2.0,2.0,407.1354419997988,3.0,1.0,part_1,,,,,,,,,,,,,cyan,triangle
407.0,8.0,4.0,1.0,3.0,3.0,313.6377299997548,3.0,1.0,part_1,,,,,,,,,,,,,magenta,cross
56.0,1.0,1.0,0.0,3.0,3.0,285.4487929998868,3.0,1.0,part_1,,,,,,,,,,,,,blue,diamond
67.0,1.0,1.0,0.0,1.0,1.0,277.6136359998418,3.0,1.0,part_1,,,,,,,,,,,,,blue,diamond
50.0,5.0,1.0,1.0,3.0,3.0,265.0370549999934,3.0,1.0,part_1,,,,,,,,,,,,,yellow,I
34.0,1.0,1.0,0.0,2.0,2.0,289.4303100001707,3.0,1.0,part_1,,,,,,,,,,,,,blue,diamond
0.0,1.0,0.0,0.0,4.0,4.0,335.5182559998866,3.0,1.0,part_1,,,,,,,,,,,,,blue,diamond
190.0,7.0,3.0,1.0,4.0,4.0,277.8993219999393,3.0,1.0,part_1,,,,,,,,,,,,,orange,square
407.0,4.0,4.0,0.0,3.0,3.0,342.143544999999,3.0,1.0,part_1,,,,,,,,,,,,,cyan,triangle
60.0,5.0,1.0,1.0,2.0,2.0,339.7955049999837,3.0,1.0,part_1,,,,,,,,,,,,,yellow,I
182.0,7.0,3.0,1.0,1.0,1.0,363.5814029998983,3.0,1.0,part_1,,,,,,,,,,,,,orange,square
387.0,8.0,4.0,1.0,3.0,3.0,276.2226790000568,3.0,1.0,part_1,,,,,,,,,,,,,magenta,cross
89.0,2.0,2.0,0.0,4.0,4.0,364.0353709997725,3.0,1.0,part_1,,,,,,,,,,,,,white,circle
86.0,2.0,2.0,0.0,4.0,4.0,333.5654600000453,3.0,1.0,part_1,,,,,,,,,,,,,white,circle
102.0,6.0,2.0,1.0,2.0,2.0,355.323578000025,3.0,1.0,part_1,,,,,,,,,,,,,gray,flipped triangle
0.0,2.0,0.0,0.0,2.0,2.0,284.9358260000372,3.0,1.0,part_1,,,,,,,,,,,,,white,circle
212.0,7.0,3.0,1.0,3.0,3.0,275.8892769998056,3.0,1.0,part_1,,,,,,,,,,,,,orange,square
0.0,6.0,0.0,1.0,1.0,1.0,307.9812300002231,3.0,1.0,part_1,,,,,,,,,,,,,gray,flipped triangle
0.0,1.0,0.0,0.0,2.0,2.0,320.6781079998109,3.0,1.0,part_1,,,,,,,,,,,,,blue,diamond
50.0,1.0,1.0,0.0,1.0,1.0,308.9675500000339,3.0,1.0,part_1,,,,,,,,,,,,,blue,diamond
0.0,6.0,0.0,1.0,4.0,4.0,335.7251769998584,3.0,1.0,part_1,,,,,,,,,,,,,gray,flipped triangle
60.0,1.0,1.0,0.0,4.0,4.0,387.457221999739,3.0,1.0,part_1,,,,,,,,,,,,,blue,diamond
223.0,3.0,3.0,0.0,1.0,1.0,305.7163499997841,3.0,1.0,part_1,,,,,,,,,,,,,green,hexagon
375.0,4.0,4.0,0.0,2.0,2.0,291.5001960000154,3.0,1.0,part_1,,,,,,,,,,,,,cyan,triangle
0.0,1.0,0.0,0.0,1.0,1.0,295.4735769999388,3.0,1.0,part_1,,,,,,,,,,,,,blue,diamond
111.0,6.0,2.0,1.0,4.0,4.0,338.0294980001963,3.0,1.0,part_1,,,,,,,,,,,,,gray,flipped triangle
26.0,5.0,1.0,1.0,4.0,4.0,334.2230389998804,3.0,1.0,part_1,,,,,,,,,,,,,yellow,I
124.0,2.0,2.0,0.0,2.0,2.0,334.2406159999882,3.0,1.0,part_1,,,,,,,,,,,,,white,circle
391.0,4.0,4.0,0.0,3.0,3.0,331.5686410001035,3.0,1.0,part_1,,,,,,,,,,,,,cyan,triangle
83.0,6.0,2.0,1.0,3.0,3.0,296.4713490000576,3.0,1.0,part_1,,,,,,,,,,,,,gray,flipped triangle
87.0,2.0,2.0,0.0,1.0,1.0,277.85972999981817,3.0,1.0,part_1,,,,,,,,,,,,,white,circle
415.0,4.0,4.0,0.0,3.0,3.0,289.5373579999614,3.0,1.0,part_1,,,,,,,,,,,,,cyan,triangle
25.0,1.0,1.0,0.0,2.0,2.0,323.1729690000975,3.0,1.0,part_1,,,,,,,,,,,,,blue,diamond
124.0,6.0,2.0,1.0,4.0,4.0,310.3995470000882,3.0,1.0,part_1,,,,,,,,,,,,,gray,flipped triangle
218.0,7.0,3.0,1.0,4.0,4.0,326.1507659999552,3.0,1.0,part_1,,,,,,,,,,,,,orange,square
0.0,3.0,0.0,0.0,2.0,2.0,312.2540889999072,3.0,1.0,part_1,,,,,,,,,,,,,green,hexagon
0.0,2.0,0.0,0.0,2.0,2.0,348.4397490001356,3.0,1.0,part_1,,,,,,,,,,,,,white,circle
0.0,7.0,0.0,1.0,1.0,1.0,336.9889040000089,3.0,1.0,part_1,,,,,,,,,,,,,orange,square
176.0,3.0,3.0,0.0,3.0,3.0,301.4713620000293,3.0,1.0,part_1,,,,,,,,,,,,,green,hexagon
86.0,6.0,2.0,1.0,2.0,2.0,330.5567239999618,3.0,1.0,part_1,,,,,,,,,,,,,gray,flipped triangle
202.0,3.0,3.0,0.0,4.0,4.0,310.1487999997516,3.0,1.0,part_1,,,,,,,,,,,,,green,hexagon
0.0,7.0,0.0,1.0,4.0,4.0,329.6373600001061,3.0,1.0,part_1,,,,,,,,,,,,,orange,square
0.0,7.0,0.0,1.0,2.0,2.0,316.1139700000603,3.0,1.0,part_1,,,,,,,,,,,,,orange,square
214.0,3.0,3.0,0.0,1.0,1.0,327.8909439995914,3.0,1.0,part_1,,,,,,,,,,,,,green,hexagon
187.0,3.0,3.0,0.0,2.0,2.0,330.0747970001794,3.0,1.0,part_1,,,,,,,,,,,,,green,hexagon
411.0,4.0,4.0,0.0,4.0,4.0,317.2684020000815,3.0,1.0,part_1,,,,,,,,,,,,,cyan,triangle
70.0,5.0,1.0,1.0,3.0,3.0,316.2677330001315,3.0,1.0,part_1,,,,,,,,,,,,,yellow,I
0.0,1.0,0.0,0.0,3.0,3.0,322.0277729997178,3.0,1.0,part_1,,,,,,,,,,,,,blue,diamond
406.0,4.0,4.0,0.0,2.0,2.0,336.6120829996362,3.0,1.0,part_1,,,,,,,,,,,,,cyan,triangle
0.0,8.0,0.0,1.0,1.0,1.0,337.7805850000186,3.0,1.0,part_1,,,,,,,,,,,,,magenta,cross
424.0,4.0,4.0,0.0,1.0,1.0,329.2413740000484,3.0,1.0,part_1,,,,,,,,,,,,,cyan,triangle
384.0,4.0,4.0,0.0,1.0,1.0,301.1245350003264,3.0,1.0,part_1,,,,,,,,,,,,,cyan,triangle
39.0,1.0,1.0,0.0,1.0,1.0,312.3529859999507,3.0,1.0,part_1,,,,,,,,,,,,,blue,diamond
74.0,5.0,1.0,1.0,4.0,4.0,336.6926660000899,3.0,1.0,part_1,,,,,,,,,,,,,yellow,I
0.0,4.0,0.0,0.0,1.0,1.0,324.7861760000887,3.0,1.0,part_1,,,,,,,,,,,,,cyan,triangle
74.0,5.0,1.0,1.0,4.0,4.0,357.9746440000235,3.0,1.0,part_1,,,,,,,,,,,,,yellow,I
416.0,4.0,4.0,0.0,1.0,1.0,310.5162179999752,3.0,1.0,part_1,,,,,,,,,,,,,cyan,triangle
114.0,6.0,2.0,1.0,3.0,3.0,367.5327060000199,4.0,1.0,part_1,,,,,,,,,,,,,gray,flipped triangle
63.0,1.0,1.0,0.0,4.0,4.0,290.5822329998955,4.0,1.0,part_1,,,,,,,,,,,,,blue,diamond
0.0,5.0,0.0,1.0,3.0,3.0,288.0036120000113,4.0,1.0,part_1,,,,,,,,,,,,,yellow,I
44.0,1.0,1.0,0.0,3.0,3.0,267.3715509999965,4.0,1.0,part_1,,,,,,,,,,,,,blue,diamond
33.0,1.0,1.0,0.0,4.0,4.0,255.4712730002393,4.0,1.0,part_1,,,,,,,,,,,,,blue,diamond
401.0,8.0,4.0,1.0,4.0,4.0,286.1738070000683,4.0,1.0,part_1,,,,,,,,,,,,,magenta,cross
30.0,5.0,1.0,1.0,3.0,3.0,278.6099920003835,4.0,1.0,part_1,,,,,,,,,,,,,yellow,I
57.0,5.0,1.0,1.0,3.0,3.0,294.4023099998958,4.0,1.0,part_1,,,,,,,,,,,,,yellow,I
424.0,8.0,4.0,1.0,4.0,4.0,308.9893290002692,4.0,1.0,part_1,,,,,,,,,,,,,magenta,cross
72.0,5.0,1.0,1.0,1.0,1.0,265.9077900002558,4.0,1.0,part_1,,,,,,,,,,,,,yellow,I
50.0,5.0,1.0,1.0,4.0,4.0,284.2401899997639,4.0,1.0,part_1,,,,,,,,,,,,,yellow,I
397.0,4.0,4.0,0.0,3.0,3.0,257.3840590002874,4.0,1.0,part_1,,,,,,,,,,,,,cyan,triangle
57.0,1.0,1.0,0.0,4.0,4.0,292.2091109999201,4.0,1.0,part_1,,,,,,,,,,,,,blue,diamond
70.0,1.0,1.0,0.0,1.0,1.0,272.0035659999666,4.0,1.0,part_1,,,,,,,,,,,,,blue,diamond
82.0,6.0,2.0,1.0,1.0,1.0,296.4955119996375,4.0,1.0,part_1,,,,,,,,,,,,,gray,flipped triangle
60.0,5.0,1.0,1.0,4.0,4.0,305.2301589996204,4.0,1.0,part_1,,,,,,,,,,,,,yellow,I
180.0,7.0,3.0,1.0,3.0,3.0,316.0255449997748,4.0,1.0,part_1,,,,,,,,,,,,,orange,square
41.0,5.0,1.0,1.0,2.0,2.0,291.8640799998684,4.0,1.0,part_1,,,,,,,,,,,,,yellow,I
39.0,5.0,1.0,1.0,1.0,1.0,279.0237280000838,4.0,1.0,part_1,,,,,,,,,,,,,yellow,I
66.0,1.0,1.0,0.0,4.0,4.0,320.0433169999996,4.0,2.0,part_1,,,,,,,,,,,,,blue,diamond
0.0,1.0,0.0,0.0,1.0,1.0,312.1644860002561,4.0,1.0,part_1,,,,,,,,,,,,,blue,diamond
400.0,4.0,4.0,0.0,1.0,1.0,320.6604319998405,4.0,1.0,part_1,,,,,,,,,,,,,cyan,triangle
384.0,8.0,4.0,1.0,2.0,2.0,310.7164779999039,4.0,1.0,part_1,,,,,,,,,,,,,magenta,cross
0.0,2.0,0.0,0.0,4.0,4.0,273.3520599999792,4.0,1.0,part_1,,,,,,,,,,,,,white,circle
212.0,3.0,3.0,0.0,4.0,4.0,355.3475110002182,4.0,1.0,part_1,,,,,,,,,,,,,green,hexagon
181.0,3.0,3.0,0.0,3.0,3.0,305.2823229995738,4.0,1.0,part_1,,,,,,,,,,,,,green,hexagon
0.0,5.0,0.0,1.0,4.0,4.0,331.982815000174,4.0,1.0,part_1,,,,,,,,,,,,,yellow,I
0.0,4.0,0.0,0.0,4.0,4.0,345.7031570001163,4.0,1.0,part_1,,,,,,,,,,,,,cyan,triangle
390.0,8.0,4.0,1.0,3.0,3.0,324.9969809999129,4.0,1.0,part_1,,,,,,,,,,,,,magenta,cross
68.0,5.0,1.0,1.0,2.0,2.0,332.5609600001371,4.0,1.0,part_1,,,,,,,,,,,,,yellow,I
0.0,8.0,0.0,1.0,2.0,2.0,319.9601789997359,4.0,1.0,part_1,,,,,,,,,,,,,magenta,cross
222.0,3.0,3.0,0.0,4.0,4.0,311.5404390000549,4.0,1.0,part_1,,,,,,,,,,,,,green,hexagon
185.0,7.0,3.0,1.0,4.0,4.0,326.6973449999568,4.0,1.0,part_1,,,,,,,,,,,,,orange,square
220.0,3.0,3.0,0.0,4.0,4.0,333.1933350000327,4.0,1.0,part_1,,,,,,,,,,,,,green,hexagon
385.0,8.0,4.0,1.0,2.0,2.0,330.8496829999967,4.0,1.0,part_1,,,,,,,,,,,,,magenta,cross
94.0,6.0,2.0,1.0,2.0,2.0,331.7309789999854,4.0,1.0,part_1,,,,,,,,,,,,,gray,flipped triangle
30.0,5.0,1.0,1.0,3.0,3.0,326.6830769998705,4.0,1.0,part_1,,,,,,,,,,,,,yellow,I
91.0,2.0,2.0,0.0,3.0,3.0,318.9963919999172,4.0,1.0,part_1,,,,,,,,,,,,,white,circle
0.0,1.0,0.0,0.0,3.0,3.0,295.3816060003191,4.0,1.0,part_1,,,,,,,,,,,,,blue,diamond
117.0,6.0,2.0,1.0,2.0,2.0,312.1088110001437,4.0,1.0,part_1,,,,,,,,,,,,,gray,flipped triangle
377.0,4.0,4.0,0.0,2.0,2.0,346.073565000097,4.0,1.0,part_1,,,,,,,,,,,,,cyan,triangle
220.0,7.0,3.0,1.0,3.0,3.0,293.5100709996732,4.0,1.0,part_1,,,,,,,,,,,,,orange,square
0.0,5.0,0.0,1.0,2.0,2.0,296.5500450000036,4.0,1.0,part_1,,,,,,,,,,,,,yellow,I
0.0,5.0,0.0,1.0,3.0,3.0,285.9284950000074,4.0,1.0,part_1,,,,,,,,,,,,,yellow,I
180.0,3.0,3.0,0.0,3.0,3.0,292.5537050000457,4.0,1.0,part_1,,,,,,,,,,,,,green,hexagon
122.0,6.0,2.0,1.0,2.0,2.0,289.9271309997857,4.0,1.0,part_1,,,,,,,,,,,,,gray,flipped triangle
421.0,4.0,4.0,0.0,4.0,4.0,255.636025000058,4.0,1.0,part_1,,,,,,,,,,,,,cyan,triangle
0.0,8.0,0.0,1.0,4.0,4.0,339.5008619995678,4.0,1.0,part_1,,,,,,,,,,,,,magenta,cross
40.0,5.0,1.0,1.0,1.0,1.0,331.5846030000102,4.0,1.0,part_1,,,,,,,,,,,,,yellow,I
381.0,4.0,4.0,0.0,3.0,3.0,310.5511390003812,4.0,1.0,part_1,,,,,,,,,,,,,cyan,triangle
0.0,2.0,0.0,0.0,2.0,2.0,265.4539300001488,4.0,1.0,part_1,,,,,,,,,,,,,white,circle
0.0,2.0,0.0,0.0,4.0,4.0,299.4569309998951,4.0,1.0,part_1,,,,,,,,,,,,,white,circle
64.0,5.0,1.0,1.0,3.0,3.0,286.0308819999773,4.0,1.0,part_1,,,,,,,,,,,,,yellow,I
216.0,3.0,3.0,0.0,2.0,2.0,301.3366199998017,4.0,1.0,part_1,,,,,,,,,,,,,green,hexagon
26.0,1.0,1.0,0.0,3.0,3.0,302.9448629999933,4.0,1.0,part_1,,,,,,,,,,,,,blue,diamond
36.0,5.0,1.0,1.0,4.0,4.0,315.118726000037,4.0,1.0,part_1,,,,,,,,,,,,,yellow,I
0.0,7.0,0.0,1.0,2.0,2.0,312.3236770002222,4.0,1.0,part_1,,,,,,,,,,,,,orange,square
36.0,1.0,1.0,0.0,3.0,3.0,263.9118299998699,4.0,1.0,part_1,,,,,,,,,,,,,blue,diamond
119.0,6.0,2.0,1.0,3.0,3.0,320.8822589999727,4.0,1.0,part_1,,,,,,,,,,,,,gray,flipped triangle
38.0,1.0,1.0,0.0,2.0,2.0,403.9708959999188,4.0,1.0,part_1,,,,,,,,,,,,,blue,diamond
210.0,7.0,3.0,1.0,2.0,2.0,289.7097790000771,4.0,1.0,part_1,,,,,,,,,,,,,orange,square
381.0,8.0,4.0,1.0,2.0,2.0,324.1259950000312,4.0,1.0,part_1,,,,,,,,,,,,,magenta,cross
199.0,7.0,3.0,1.0,2.0,2.0,317.7945099996577,4.0,1.0,part_1,,,,,,,,,,,,,orange,square
56.0,1.0,1.0,0.0,3.0,3.0,300.250682999831,4.0,1.0,part_1,,,,,,,,,,,,,blue,diamond
118.0,2.0,2.0,0.0,4.0,4.0,340.1823839999451,4.0,1.0,part_1,,,,,,,,,,,,,white,circle
181.0,7.0,3.0,1.0,1.0,1.0,384.8963919999733,4.0,1.0,part_1,,,,,,,,,,,,,orange,square
415.0,8.0,4.0,1.0,1.0,1.0,376.7436370003452,4.0,1.0,part_1,,,,,,,,,,,,,magenta,cross
199.0,3.0,3.0,0.0,1.0,1.0,283.6497109997253,4.0,1.0,part_1,,,,,,,,,,,,,green,hexagon
54.0,5.0,1.0,1.0,2.0,2.0,305.7923820001633,4.0,1.0,part_1,,,,,,,,,,,,,yellow,I
0.0,7.0,0.0,1.0,1.0,1.0,397.0899409996491,4.0,1.0,part_1,,,,,,,,,,,,,orange,square
209.0,3.0,3.0,0.0,4.0,4.0,336.7005049999534,4.0,1.0,part_1,,,,,,,,,,,,,green,hexagon
0.0,6.0,0.0,1.0,4.0,4.0,371.9397680001748,4.0,1.0,part_1,,,,,,,,,,,,,gray,flipped triangle
187.0,7.0,3.0,1.0,2.0,2.0,293.2982530001027,4.0,1.0,part_1,,,,,,,,,,,,,orange,square
0.0,7.0,0.0,1.0,2.0,2.0,372.3929719999432,4.0,1.0,part_1,,,,,,,,,,,,,orange,square
404.0,4.0,4.0,0.0,2.0,2.0,331.6560690000187,4.0,1.0,part_1,,,,,,,,,,,,,cyan,triangle
107.0,6.0,2.0,1.0,1.0,1.0,341.0423490004177,4.0,1.0,part_1,,,,,,,,,,,,,gray,flipped triangle
63.0,5.0,1.0,1.0,1.0,1.0,315.97902600015,4.0,1.0,part_1,,,,,,,,,,,,,yellow,I
50.0,5.0,1.0,1.0,1.0,1.0,296.9290239998372,4.0,1.0,part_1,,,,,,,,,,,,,yellow,I
0.0,4.0,0.0,0.0,3.0,3.0,307.471704999898,4.0,1.0,part_1,,,,,,,,,,,,,cyan,triangle
218.0,3.0,3.0,0.0,4.0,4.0,530.2541870000823,4.0,1.0,part_1,,,,,,,,,,,,,green,hexagon
397.0,8.0,4.0,1.0,2.0,2.0,312.3287720000007,4.0,1.0,part_1,,,,,,,,,,,,,magenta,cross
403.0,4.0,4.0,0.0,2.0,2.0,311.6079999999783,4.0,1.0,part_1,,,,,,,,,,,,,cyan,triangle
0.0,4.0,0.0,0.0,2.0,2.0,312.16280199987517,4.0,1.0,part_1,,,,,,,,,,,,,cyan,triangle
201.0,3.0,3.0,0.0,1.0,1.0,273.3613469999909,4.0,1.0,part_1,,,,,,,,,,,,,green,hexagon
26.0,1.0,1.0,0.0,4.0,4.0,326.3569540004027,4.0,1.0,part_1,,,,,,,,,,,,,blue,diamond
41.0,1.0,1.0,0.0,2.0,2.0,304.0415479999865,4.0,1.0,part_1,,,,,,,,,,,,,blue,diamond
0.0,8.0,0.0,1.0,1.0,1.0,326.93845900030277,4.0,1.0,part_1,,,,,,,,,,,,,magenta,cross
0.0,1.0,0.0,0.0,2.0,2.0,336.6737900000771,4.0,1.0,part_1,,,,,,,,,,,,,blue,diamond
123.0,6.0,2.0,1.0,3.0,3.0,274.9819820000994,4.0,1.0,part_1,,,,,,,,,,,,,gray,flipped triangle
110.0,2.0,2.0,0.0,2.0,2.0,343.0206190000717,4.0,1.0,part_1,,,,,,,,,,,,,white,circle
108.0,2.0,2.0,0.0,4.0,4.0,291.4859970001089,4.0,1.0,part_1,,,,,,,,,,,,,white,circle
94.0,2.0,2.0,0.0,2.0,2.0,290.4019170000538,4.0,1.0,part_1,,,,,,,,,,,,,white,circle
194.0,7.0,3.0,1.0,1.0,1.0,284.6829439999965,4.0,1.0,part_1,,,,,,,,,,,,,orange,square
182.0,3.0,3.0,0.0,2.0,2.0,273.5077110000929,4.0,1.0,part_1,,,,,,,,,,,,,green,hexagon
214.0,7.0,3.0,1.0,3.0,3.0,286.0567149996313,4.0,1.0,part_1,,,,,,,,,,,,,orange,square
34.0,5.0,1.0,1.0,1.0,1.0,257.4143279998679,4.0,1.0,part_1,,,,,,,,,,,,,yellow,I
89.0,6.0,2.0,1.0,4.0,4.0,343.1134069996915,4.0,1.0,part_1,,,,,,,,,,,,,gray,flipped triangle
0.0,5.0,0.0,1.0,2.0,2.0,271.4465499998368,4.0,1.0,part_1,,,,,,,,,,,,,yellow,I
64.0,1.0,1.0,0.0,2.0,2.0,280.0896329999887,4.0,1.0,part_1,,,,,,,,,,,,,blue,diamond
111.0,2.0,2.0,0.0,3.0,3.0,271.7113159997097,4.0,1.0,part_1,,,,,,,,,,,,,white,circle
0.0,6.0,2.0,1.0,6.0,0.0,0.0,1.0,0.0,part_2,stop,250.0,250.0,4.0,,,,,,,,,gray,flipped triangle
0.0,7.0,3.0,1.0,6.0,0.0,0.0,1.0,0.0,part_2,stop,250.0,300.0,4.0,,,,,,,,,orange,square
0.0,7.0,3.0,1.0,5.0,5.0,554.6603509997112,1.0,0.0,part_2,go,250.0,350.0,1.0,,,,,,,,,orange,square
0.0,2.0,2.0,0.0,6.0,6.0,599.5365650001077,1.0,0.0,part_2,go,250.0,350.0,1.0,,,,,,,,,white,circle
0.0,3.0,3.0,0.0,6.0,6.0,622.836899000049,1.0,0.0,part_2,go,250.0,350.0,1.0,,,,,,,,,green,hexagon
0.0,4.0,4.0,0.0,6.0,6.0,423.4335099999953,1.0,0.0,part_2,go,250.0,350.0,1.0,,,,,,,,,cyan,triangle
0.0,6.0,2.0,1.0,5.0,5.0,551.8310099996597,1.0,0.0,part_2,stop,250.0,350.0,3.0,,,,,,,,,gray,flipped triangle
0.0,8.0,4.0,1.0,6.0,0.0,0.0,1.0,0.0,part_2,stop,200.0,350.0,4.0,,,,,,,,,magenta,cross
0.0,6.0,2.0,1.0,5.0,5.0,765.508568000314,1.0,0.0,part_2,go,200.0,400.0,1.0,,,,,,,,,gray,flipped triangle
0.0,8.0,4.0,1.0,6.0,6.0,679.3809920000058,1.0,0.0,part_2,go,200.0,400.0,1.0,,,,,,,,,magenta,cross
0.0,2.0,2.0,0.0,6.0,6.0,627.3753069999657,1.0,0.0,part_2,go,200.0,400.0,1.0,,,,,,,,,white,circle
0.0,5.0,1.0,1.0,5.0,5.0,610.3501970001162,1.0,0.0,part_2,go,200.0,400.0,1.0,,,,,,,,,yellow,I
0.0,1.0,1.0,0.0,5.0,5.0,534.2765380000856,1.0,0.0,part_2,go,200.0,400.0,1.0,,,,,,,,,blue,diamond
0.0,6.0,2.0,1.0,5.0,0.0,0.0,1.0,0.0,part_2,stop,200.0,400.0,4.0,,,,,,,,,gray,flipped triangle
0.0,8.0,4.0,1.0,5.0,0.0,0.0,1.0,0.0,part_2,stop,250.0,400.0,4.0,,,,,,,,,magenta,cross
0.0,5.0,1.0,1.0,6.0,6.0,548.6581650002336,1.0,0.0,part_2,stop,300.0,400.0,3.0,,,,,,,,,yellow,I
0.0,2.0,2.0,0.0,6.0,6.0,596.6359629996987,1.0,0.0,part_2,go,300.0,350.0,1.0,,,,,,,,,white,circle
0.0,6.0,2.0,1.0,6.0,6.0,389.8247249999258,1.0,0.0,part_2,stop,300.0,350.0,3.0,,,,,,,,,gray,flipped triangle
0.0,1.0,1.0,0.0,6.0,6.0,744.7026649997497,1.0,0.0,part_2,go,300.0,300.0,1.0,,,,,,,,,blue,diamond
0.0,4.0,4.0,0.0,5.0,5.0,871.1440759998368,1.0,0.0,part_2,go,300.0,300.0,1.0,,,,,,,,,cyan,triangle
0.0,1.0,1.0,0.0,5.0,5.0,912.4551250001788,1.0,0.0,part_2,go,300.0,300.0,1.0,,,,,,,,,blue,diamond
0.0,5.0,1.0,1.0,5.0,0.0,0.0,1.0,0.0,part_2,stop,300.0,300.0,4.0,,,,,,,,,yellow,I
0.0,6.0,2.0,1.0,6.0,0.0,0.0,1.0,0.0,part_2,stop,350.0,300.0,4.0,,,,,,,,,gray,flipped triangle
0.0,6.0,2.0,1.0,6.0,6.0,697.7139380001063,1.0,0.0,part_2,go,350.0,350.0,1.0,,,,,,,,,gray,flipped triangle
0.0,1.0,1.0,0.0,6.0,6.0,737.0740740002475,1.0,0.0,part_2,go,350.0,350.0,1.0,,,,,,,,,blue,diamond
0.0,3.0,3.0,0.0,5.0,5.0,658.8172800002212,1.0,0.0,part_2,go,350.0,350.0,1.0,,,,,,,,,green,hexagon
0.0,7.0,3.0,1.0,5.0,0.0,0.0,1.0,0.0,part_2,stop,350.0,350.0,4.0,,,,,,,,,orange,square
0.0,3.0,3.0,0.0,5.0,5.0,833.8168200002656,1.0,0.0,part_2,go,400.0,350.0,1.0,,,,,,,,,green,hexagon
0.0,3.0,3.0,0.0,5.0,5.0,784.1147199997067,1.0,0.0,part_2,go,400.0,350.0,1.0,,,,,,,,,green,hexagon
0.0,1.0,1.0,0.0,6.0,6.0,718.3977530003176,1.0,0.0,part_2,go,400.0,350.0,1.0,,,,,,,,,blue,diamond
0.0,6.0,2.0,1.0,6.0,0.0,0.0,1.0,0.0,part_2,stop,400.0,350.0,4.0,,,,,,,,,gray,flipped triangle
0.0,2.0,2.0,0.0,5.0,5.0,602.9650149998815,1.0,0.0,part_2,go,400.0,400.0,1.0,,,,,,,,,white,circle
0.0,7.0,3.0,1.0,5.0,5.0,436.8526460002613,1.0,0.0,part_2,stop,400.0,400.0,3.0,,,,,,,,,orange,square
0.0,2.0,2.0,0.0,6.0,6.0,663.1805829997575,1.0,0.0,part_2,go,350.0,400.0,1.0,,,,,,,,,white,circle
0.0,1.0,1.0,0.0,5.0,5.0,676.8822509998245,1.0,0.0,part_2,go,350.0,400.0,1.0,,,,,,,,,blue,diamond
0.0,1.0,1.0,0.0,6.0,6.0,600.2810840000166,1.0,0.0,part_2,go,350.0,400.0,1.0,,,,,,,,,blue,diamond
0.0,5.0,1.0,1.0,5.0,0.0,0.0,2.0,0.0,part_2,stop,350.0,400.0,4.0,,,,,,,,,yellow,I
0.0,5.0,1.0,1.0,6.0,0.0,0.0,2.0,0.0,part_2,stop,400.0,400.0,4.0,,,,,,,,,yellow,I
0.0,4.0,4.0,0.0,6.0,6.0,541.2615700001879,2.0,0.0,part_2,go,400.0,450.0,1.0,,,,,,,,,cyan,triangle
0.0,1.0,1.0,0.0,6.0,6.0,579.8714029997427,2.0,0.0,part_2,go,400.0,450.0,1.0,,,,,,,,,blue,diamond
0.0,5.0,1.0,1.0,6.0,6.0,340.1138999997783,2.0,0.0,part_2,stop,400.0,450.0,3.0,,,,,,,,,yellow,I
0.0,1.0,1.0,0.0,5.0,5.0,418.8407739998183,2.0,0.0,part_2,go,400.0,400.0,1.0,,,,,,,,,blue,diamond
0.0,8.0,4.0,1.0,6.0,6.0,395.9175630002391,2.0,0.0,part_2,stop,400.0,400.0,3.0,,,,,,,,,magenta,cross
0.0,4.0,4.0,0.0,6.0,6.0,523.1474480001452,2.0,0.0,part_2,go,400.0,350.0,1.0,,,,,,,,,cyan,triangle
0.0,4.0,4.0,0.0,6.0,6.0,372.5943059998826,2.0,0.0,part_2,go,400.0,350.0,1.0,,,,,,,,,cyan,triangle
0.0,7.0,3.0,1.0,5.0,5.0,433.4206160001486,2.0,0.0,part_2,stop,400.0,350.0,3.0,,,,,,,,,orange,square
0.0,3.0,3.0,0.0,6.0,6.0,633.7395509999624,2.0,0.0,part_2,go,350.0,350.0,1.0,,,,,,,,,green,hexagon
0.0,4.0,4.0,0.0,6.0,6.0,497.8615650002211,2.0,0.0,part_2,go,350.0,350.0,1.0,,,,,,,,,cyan,triangle
0.0,5.0,1.0,1.0,6.0,0.0,0.0,2.0,0.0,part_2,stop,350.0,350.0,4.0,,,,,,,,,yellow,I
0.0,5.0,1.0,1.0,6.0,6.0,599.7833290002745,2.0,0.0,part_2,go,350.0,400.0,1.0,,,,,,,,,yellow,I
0.0,4.0,4.0,0.0,6.0,6.0,423.2705569997961,2.0,0.0,part_2,go,350.0,400.0,1.0,,,,,,,,,cyan,triangle
0.0,6.0,2.0,1.0,5.0,0.0,0.0,2.0,0.0,part_2,stop,350.0,400.0,4.0,,,,,,,,,gray,flipped triangle
0.0,4.0,4.0,0.0,5.0,5.0,546.6492559999097,2.0,0.0,part_2,go,400.0,400.0,1.0,,,,,,,,,cyan,triangle
0.0,2.0,2.0,0.0,5.0,5.0,581.5659820000292,2.0,0.0,part_2,go,400.0,400.0,1.0,,,,,,,,,white,circle
0.0,2.0,2.0,0.0,5.0,5.0,401.1776830002418,2.0,0.0,part_2,go,400.0,400.0,1.0,,,,,,,,,white,circle
0.0,6.0,2.0,1.0,5.0,5.0,761.0631600000488,2.0,0.0,part_2,go,400.0,400.0,1.0,,,,,,,,,gray,flipped triangle
0.0,3.0,3.0,0.0,6.0,6.0,394.8095040000225,2.0,0.0,part_2,go,400.0,400.0,1.0,,,,,,,,,green,hexagon
0.0,7.0,3.0,1.0,5.0,5.0,370.4754909999792,2.0,0.0,part_2,stop,400.0,400.0,3.0,,,,,,,,,orange,square
0.0,4.0,4.0,0.0,6.0,6.0,488.7291169998207,2.0,0.0,part_2,go,350.0,400.0,1.0,,,,,,,,,cyan,triangle
0.0,2.0,2.0,0.0,5.0,5.0,537.158293000175,2.0,0.0,part_2,go,350.0,400.0,1.0,,,,,,,,,white,circle
0.0,2.0,2.0,0.0,6.0,6.0,629.703513000095,2.0,0.0,part_2,go,350.0,400.0,1.0,,,,,,,,,white,circle
0.0,7.0,3.0,1.0,5.0,0.0,0.0,2.0,0.0,part_2,stop,350.0,400.0,4.0,,,,,,,,,orange,square
0.0,8.0,4.0,1.0,5.0,5.0,516.644486000132,2.0,0.0,part_2,stop,400.0,400.0,3.0,,,,,,,,,magenta,cross
0.0,3.0,3.0,0.0,6.0,6.0,462.5688989999617,2.0,0.0,part_2,go,350.0,400.0,1.0,,,,,,,,,green,hexagon
0.0,2.0,2.0,0.0,5.0,5.0,475.5710800000088,2.0,0.0,part_2,go,350.0,400.0,1.0,,,,,,,,,white,circle
0.0,6.0,2.0,1.0,6.0,0.0,0.0,2.0,0.0,part_2,stop,350.0,400.0,4.0,,,,,,,,,gray,flipped triangle
0.0,4.0,4.0,0.0,5.0,5.0,489.0021409996734,2.0,0.0,part_2,go,350.0,450.0,1.0,,,,,,,,,cyan,triangle
0.0,1.0,1.0,0.0,5.0,5.0,434.6523940002953,2.0,0.0,part_2,go,350.0,450.0,1.0,,,,,,,,,blue,diamond
0.0,3.0,3.0,0.0,6.0,6.0,317.4641879995761,2.0,0.0,part_2,go,350.0,450.0,1.0,,,,,,,,,green,hexagon
0.0,1.0,1.0,0.0,6.0,6.0,419.6666340003503,2.0,0.0,part_2,go,350.0,450.0,1.0,,,,,,,,,blue,diamond
0.0,7.0,3.0,1.0,6.0,6.0,418.7563529994804,2.0,0.0,part_2,stop,350.0,450.0,3.0,,,,,,,,,orange,square
0.0,7.0,3.0,1.0,6.0,0.0,0.0,2.0,0.0,part_2,stop,350.0,400.0,4.0,,,,,,,,,orange,square
0.0,2.0,2.0,0.0,5.0,5.0,664.3158540000513,3.0,0.0,part_2,go,350.0,450.0,1.0,,,,,,,,,white,circle
0.0,8.0,4.0,1.0,5.0,5.0,452.8488299993114,3.0,0.0,part_2,go,350.0,450.0,1.0,,,,,,,,,magenta,cross
0.0,8.0,4.0,1.0,6.0,6.0,354.0802440002153,3.0,0.0,part_2,go,350.0,450.0,1.0,,,,,,,,,magenta,cross
0.0,4.0,4.0,0.0,6.0,6.0,445.9309180001582,3.0,0.0,part_2,go,350.0,450.0,1.0,,,,,,,,,cyan,triangle
0.0,7.0,3.0,1.0,6.0,6.0,424.4626170002448,3.0,0.0,part_2,stop,350.0,450.0,3.0,,,,,,,,,orange,square
0.0,2.0,2.0,0.0,5.0,5.0,499.200109999947,3.0,0.0,part_2,go,350.0,400.0,1.0,,,,,,,,,white,circle
0.0,1.0,1.0,0.0,6.0,6.0,529.3123709998326,3.0,0.0,part_2,go,350.0,400.0,1.0,,,,,,,,,blue,diamond
0.0,1.0,1.0,0.0,6.0,6.0,456.6805209997255,3.0,0.0,part_2,go,350.0,400.0,1.0,,,,,,,,,blue,diamond
0.0,1.0,1.0,0.0,5.0,5.0,502.92250999973476,3.0,0.0,part_2,go,350.0,400.0,1.0,,,,,,,,,blue,diamond
0.0,8.0,4.0,1.0,6.0,0.0,0.0,3.0,0.0,part_2,stop,350.0,400.0,4.0,,,,,,,,,magenta,cross
0.0,5.0,1.0,1.0,5.0,5.0,345.6638939996992,3.0,0.0,part_2,stop,350.0,450.0,3.0,,,,,,,,,yellow,I
0.0,5.0,1.0,1.0,5.0,5.0,456.4925419999781,3.0,0.0,part_2,go,300.0,450.0,1.0,,,,,,,,,yellow,I
0.0,1.0,1.0,0.0,5.0,5.0,410.015845000089,3.0,0.0,part_2,go,300.0,450.0,1.0,,,,,,,,,blue,diamond
0.0,3.0,3.0,0.0,6.0,6.0,416.1884680006551,3.0,0.0,part_2,go,300.0,450.0,1.0,,,,,,,,,green,hexagon
0.0,4.0,4.0,0.0,6.0,6.0,485.3492199999891,3.0,0.0,part_2,go,300.0,450.0,1.0,,,,,,,,,cyan,triangle
0.0,6.0,2.0,1.0,5.0,0.0,0.0,3.0,0.0,part_2,stop,300.0,450.0,4.0,,,,,,,,,gray,flipped triangle
0.0,1.0,1.0,0.0,5.0,5.0,759.7851559994524,3.0,0.0,part_2,go,350.0,450.0,1.0,,,,,,,,,blue,diamond
0.0,1.0,1.0,0.0,6.0,6.0,325.6982059992879,3.0,0.0,part_2,go,350.0,450.0,1.0,,,,,,,,,blue,diamond
0.0,3.0,3.0,0.0,5.0,5.0,485.3590100001383,3.0,0.0,part_2,go,350.0,450.0,1.0,,,,,,,,,green,hexagon
0.0,4.0,4.0,0.0,5.0,5.0,583.032405999802,3.0,0.0,part_2,go,350.0,450.0,1.0,,,,,,,,,cyan,triangle
0.0,6.0,2.0,1.0,6.0,6.0,584.5126840004014,3.0,0.0,part_2,stop,350.0,450.0,3.0,,,,,,,,,gray,flipped triangle
0.0,7.0,3.0,1.0,6.0,6.0,374.137177999728,3.0,0.0,part_2,go,350.0,400.0,1.0,,,,,,,,,orange,square
0.0,8.0,4.0,1.0,5.0,5.0,483.1624910002574,3.0,0.0,part_2,go,350.0,400.0,1.0,,,,,,,,,magenta,cross
0.0,5.0,1.0,1.0,6.0,0.0,0.0,3.0,0.0,part_2,stop,350.0,400.0,4.0,,,,,,,,,yellow,I
0.0,5.0,1.0,1.0,6.0,0.0,0.0,3.0,0.0,part_2,stop,350.0,450.0,4.0,,,,,,,,,yellow,I
0.0,4.0,4.0,0.0,5.0,5.0,472.2142499995243,3.0,0.0,part_2,go,350.0,500.0,1.0,,,,,,,,,cyan,triangle
0.0,5.0,1.0,1.0,5.0,0.0,0.0,3.0,0.0,part_2,stop,350.0,500.0,4.0,,,,,,,,,yellow,I
0.0,2.0,2.0,0.0,5.0,5.0,549.7920630004955,3.0,0.0,part_2,go,400.0,500.0,1.0,,,,,,,,,white,circle
0.0,8.0,4.0,1.0,5.0,5.0,438.0802180003229,3.0,0.0,part_2,stop,400.0,500.0,3.0,,,,,,,,,magenta,cross
0.0,3.0,3.0,0.0,6.0,6.0,316.9083530001444,3.0,0.0,part_2,go,350.0,500.0,1.0,,,,,,,,,green,hexagon
0.0,4.0,4.0,0.0,5.0,5.0,572.2851249993255,3.0,0.0,part_2,go,350.0,500.0,1.0,,,,,,,,,cyan,triangle
0.0,3.0,3.0,0.0,5.0,5.0,580.5390649993569,3.0,0.0,part_2,go,350.0,500.0,1.0,,,,,,,,,green,hexagon
0.0,5.0,1.0,1.0,6.0,0.0,0.0,3.0,0.0,part_2,stop,350.0,500.0,4.0,,,,,,,,,yellow,I
0.0,2.0,2.0,0.0,6.0,6.0,510.5632839995451,3.0,0.0,part_2,go,350.0,550.0,1.0,,,,,,,,,white,circle
0.0,1.0,1.0,0.0,5.0,5.0,380.4505429998244,3.0,0.0,part_2,go,350.0,550.0,1.0,,,,,,,,,blue,diamond
0.0,6.0,2.0,1.0,6.0,6.0,306.2651439995534,3.0,0.0,part_2,go,350.0,550.0,1.0,,,,,,,,,gray,flipped triangle
0.0,4.0,4.0,0.0,5.0,5.0,514.3134949994419,4.0,0.0,part_2,go,350.0,550.0,1.0,,,,,,,,,cyan,triangle
0.0,7.0,3.0,1.0,5.0,5.0,508.27347100039333,4.0,0.0,part_2,go,350.0,550.0,1.0,,,,,,,,,orange,square
0.0,4.0,4.0,0.0,5.0,5.0,433.6534350004513,4.0,0.0,part_2,go,350.0,550.0,1.0,,,,,,,,,cyan,triangle
0.0,3.0,3.0,0.0,5.0,5.0,375.7267499995578,4.0,0.0,part_2,go,350.0,550.0,1.0,,,,,,,,,green,hexagon
0.0,2.0,2.0,0.0,5.0,5.0,420.0376599992523,4.0,0.0,part_2,go,350.0,550.0,1.0,,,,,,,,,white,circle
0.0,5.0,1.0,1.0,6.0,6.0,582.7688660001513,4.0,0.0,part_2,stop,350.0,550.0,3.0,,,,,,,,,yellow,I
0.0,7.0,3.0,1.0,5.0,0.0,0.0,4.0,0.0,part_2,stop,350.0,500.0,4.0,,,,,,,,,orange,square
0.0,1.0,1.0,0.0,5.0,5.0,774.6300869994229,4.0,0.0,part_2,go,400.0,500.0,1.0,,,,,,,,,blue,diamond
0.0,7.0,3.0,1.0,6.0,6.0,534.1555129998596,4.0,0.0,part_2,stop,400.0,500.0,3.0,,,,,,,,,orange,square
0.0,1.0,1.0,0.0,6.0,6.0,496.1058919998322,4.0,0.0,part_2,go,400.0,450.0,1.0,,,,,,,,,blue,diamond
0.0,3.0,3.0,0.0,6.0,6.0,536.5269629992326,4.0,0.0,part_2,go,400.0,450.0,1.0,,,,,,,,,green,hexagon
0.0,1.0,1.0,0.0,5.0,5.0,500.0152180000441,4.0,0.0,part_2,go,400.0,450.0,1.0,,,,,,,,,blue,diamond
0.0,4.0,4.0,0.0,6.0,6.0,307.8741210001681,4.0,0.0,part_2,go,400.0,450.0,1.0,,,,,,,,,cyan,triangle
0.0,7.0,3.0,1.0,6.0,6.0,500.3676890000861,4.0,0.0,part_2,stop,400.0,450.0,3.0,,,,,,,,,orange,square
0.0,2.0,2.0,0.0,5.0,5.0,427.0368020006572,4.0,0.0,part_2,go,400.0,400.0,1.0,,,,,,,,,white,circle
0.0,3.0,3.0,0.0,5.0,5.0,431.0413570001401,4.0,0.0,part_2,go,400.0,400.0,1.0,,,,,,,,,green,hexagon
0.0,6.0,2.0,1.0,6.0,6.0,631.73053599985,4.0,0.0,part_2,stop,400.0,400.0,3.0,,,,,,,,,gray,flipped triangle
0.0,6.0,2.0,1.0,5.0,0.0,0.0,4.0,0.0,part_2,stop,400.0,350.0,4.0,,,,,,,,,gray,flipped triangle
0.0,5.0,1.0,1.0,6.0,6.0,409.9605999999767,4.0,0.0,part_2,stop,450.0,350.0,3.0,,,,,,,,,yellow,I
0.0,3.0,3.0,0.0,5.0,5.0,551.1155270005474,4.0,0.0,part_2,go,450.0,300.0,1.0,,,,,,,,,green,hexagon
0.0,5.0,1.0,1.0,6.0,6.0,433.8462549994801,4.0,0.0,part_2,stop,450.0,300.0,3.0,,,,,,,,,yellow,I
0.0,2.0,2.0,0.0,6.0,6.0,801.8770919998133,4.0,0.0,part_2,go,450.0,250.0,1.0,,,,,,,,,white,circle
0.0,5.0,1.0,1.0,6.0,6.0,508.4295500000735,4.0,0.0,part_2,go,450.0,250.0,1.0,,,,,,,,,yellow,I
0.0,4.0,4.0,0.0,5.0,5.0,481.4717099998233,4.0,0.0,part_2,go,450.0,250.0,1.0,,,,,,,,,cyan,triangle
0.0,6.0,2.0,1.0,5.0,0.0,0.0,4.0,0.0,part_2,stop,450.0,250.0,4.0,,,,,,,,,gray,flipped triangle
0.0,8.0,4.0,1.0,5.0,5.0,600.4038789997139,4.0,0.0,part_2,stop,500.0,250.0,3.0,,,,,,,,,magenta,cross
0.0,8.0,4.0,1.0,5.0,0.0,0.0,4.0,0.0,part_2,stop,450.0,250.0,4.0,,,,,,,,,magenta,cross
0.0,3.0,3.0,0.0,5.0,5.0,605.239781999444,4.0,0.0,part_2,go,500.0,250.0,1.0,,,,,,,,,green,hexagon
0.0,5.0,1.0,1.0,5.0,5.0,670.4172769996148,4.0,0.0,part_2,stop,500.0,250.0,3.0,,,,,,,,,yellow,I
0.0,7.0,3.0,1.0,6.0,0.0,0.0,4.0,0.0,part_2,stop,450.0,250.0,4.0,,,,,,,,,orange,square
0.0,1.0,1.0,0.0,6.0,6.0,565.1056280003104,4.0,0.0,part_2,go,450.0,300.0,1.0,,,,,,,,,blue,diamond
0.0,8.0,4.0,1.0,6.0,6.0,987.0399860001272,4.0,0.0,part_2,go,450.0,300.0,1.0,,,,,,,,,magenta,cross
0.0,2.0,2.0,0.0,6.0,6.0,598.0072009997457,4.0,0.0,part_2,go,450.0,300.0,1.0,,,,,,,,,white,circle
0.0,3.0,3.0,0.0,6.0,6.0,381.7143380001653,4.0,0.0,part_2,go,450.0,300.0,1.0,,,,,,,,,green,hexagon
0.0,2.0,2.0,0.0,5.0,5.0,768.2955889995355,4.0,0.0,part_2,go,450.0,300.0,1.0,,,,,,,,,white,circle
0.0,7.0,3.0,1.0,6.0,6.0,405.4806160002044,4.0,0.0,part_2,go,450.0,300.0,1.0,,,,,,,,,orange,square
0.0,6.0,2.0,1.0,6.0,6.0,460.2568230002362,5.0,0.0,part_2,stop,450.0,300.0,3.0,,,,,,,,,gray,flipped triangle
0.0,8.0,4.0,1.0,5.0,5.0,524.329289999514,5.0,0.0,part_2,stop,450.0,250.0,3.0,,,,,,,,,magenta,cross
0.0,5.0,1.0,1.0,5.0,5.0,454.6867540002495,5.0,0.0,part_2,stop,400.0,250.0,3.0,,,,,,,,,yellow,I
0.0,6.0,2.0,1.0,5.0,5.0,471.3857210008427,5.0,0.0,part_2,go,350.0,250.0,1.0,,,,,,,,,gray,flipped triangle
0.0,7.0,3.0,1.0,6.0,0.0,0.0,5.0,0.0,part_2,stop,350.0,250.0,4.0,,,,,,,,,orange,square
0.0,6.0,2.0,1.0,5.0,0.0,0.0,5.0,0.0,part_2,stop,350.0,300.0,4.0,,,,,,,,,gray,flipped triangle
0.0,4.0,4.0,0.0,6.0,6.0,596.1766840000564,5.0,0.0,part_2,go,400.0,300.0,1.0,,,,,,,,,cyan,triangle
0.0,8.0,4.0,1.0,6.0,0.0,0.0,5.0,0.0,part_2,stop,400.0,300.0,4.0,,,,,,,,,magenta,cross
0.0,1.0,1.0,0.0,5.0,5.0,351.7664749997493,5.0,0.0,part_2,go,400.0,350.0,1.0,,,,,,,,,blue,diamond
0.0,8.0,4.0,1.0,6.0,6.0,333.8550739999846,5.0,0.0,part_2,stop,400.0,350.0,3.0,,,,,,,,,magenta,cross
0.0,8.0,4.0,1.0,5.0,0.0,0.0,5.0,0.0,part_2,stop,400.0,300.0,4.0,,,,,,,,,magenta,cross
0.0,1.0,1.0,0.0,6.0,6.0,552.7071899996372,5.0,0.0,part_2,go,450.0,300.0,1.0,,,,,,,,,blue,diamond
0.0,8.0,4.0,1.0,5.0,0.0,0.0,5.0,0.0,part_2,stop,450.0,300.0,4.0,,,,,,,,,magenta,cross
0.0,1.0,1.0,0.0,5.0,5.0,588.0463339999551,5.0,0.0,part_2,go,500.0,300.0,1.0,,,,,,,,,blue,diamond
0.0,6.0,2.0,1.0,5.0,5.0,873.0658520007637,5.0,0.0,part_2,go,500.0,300.0,1.0,,,,,,,,,gray,flipped triangle
0.0,8.0,4.0,1.0,5.0,5.0,672.9693469997073,5.0,0.0,part_2,stop,500.0,300.0,3.0,,,,,,,,,magenta,cross
0.0,3.0,3.0,0.0,5.0,5.0,469.15484100009047,5.0,0.0,part_2,go,450.0,300.0,1.0,,,,,,,,,green,hexagon
0.0,4.0,4.0,0.0,5.0,5.0,592.6447720003125,5.0,0.0,part_2,go,450.0,300.0,1.0,,,,,,,,,cyan,triangle
0.0,8.0,4.0,1.0,6.0,0.0,0.0,5.0,0.0,part_2,stop,450.0,300.0,4.0,,,,,,,,,magenta,cross
0.0,8.0,4.0,1.0,5.0,5.0,605.3604409999025,5.0,0.0,part_2,stop,450.0,350.0,3.0,,,,,,,,,magenta,cross
0.0,6.0,2.0,1.0,6.0,6.0,729.7686880001493,5.0,0.0,part_2,go,400.0,350.0,1.0,,,,,,,,,gray,flipped triangle
0.0,7.0,3.0,1.0,5.0,0.0,0.0,5.0,0.0,part_2,stop,400.0,350.0,4.0,,,,,,,,,orange,square
0.0,7.0,3.0,1.0,6.0,0.0,0.0,5.0,0.0,part_2,stop,450.0,350.0,4.0,,,,,,,,,orange,square
0.0,3.0,3.0,0.0,6.0,6.0,420.8802590001141,5.0,0.0,part_2,go,450.0,400.0,1.0,,,,,,,,,green,hexagon
0.0,2.0,2.0,0.0,6.0,6.0,515.1198019993899,5.0,0.0,part_2,go,450.0,400.0,1.0,,,,,,,,,white,circle
0.0,7.0,3.0,1.0,5.0,5.0,602.4641340000016,5.0,0.0,part_2,stop,450.0,400.0,3.0,,,,,,,,,orange,square
0.0,2.0,2.0,0.0,5.0,5.0,703.2002079995436,5.0,0.0,part_2,go,400.0,400.0,1.0,,,,,,,,,white,circle
0.0,7.0,3.0,1.0,6.0,6.0,319.6168280001075,5.0,0.0,part_2,stop,400.0,400.0,3.0,,,,,,,,,orange,square
0.0,6.0,2.0,1.0,6.0,0.0,0.0,5.0,0.0,part_2,stop,400.0,350.0,4.0,,,,,,,,,gray,flipped triangle
0.0,5.0,1.0,1.0,5.0,5.0,685.7014390006952,5.0,0.0,part_2,go,400.0,400.0,1.0,,,,,,,,,yellow,I
0.0,3.0,3.0,0.0,6.0,6.0,462.7985480001371,5.0,0.0,part_2,go,400.0,400.0,1.0,,,,,,,,,green,hexagon
0.0,1.0,1.0,0.0,6.0,6.0,459.8980820001088,5.0,0.0,part_2,go,400.0,400.0,1.0,,,,,,,,,blue,diamond
0.0,6.0,2.0,1.0,5.0,5.0,398.346997999397,5.0,0.0,part_2,stop,400.0,400.0,3.0,,,,,,,,,gray,flipped triangle
0.0,4.0,4.0,0.0,6.0,6.0,708.5654150005212,5.0,0.0,part_2,go,350.0,400.0,1.0,,,,,,,,,cyan,triangle
0.0,6.0,2.0,1.0,5.0,0.0,0.0,5.0,0.0,part_2,stop,350.0,400.0,4.0,,,,,,,,,gray,flipped triangle
0.0,7.0,3.0,1.0,5.0,0.0,0.0,5.0,0.0,part_2,stop,400.0,400.0,4.0,,,,,,,,,orange,square
0.0,1.0,1.0,0.0,6.0,6.0,560.5066950001856,6.0,0.0,part_2,go,450.0,400.0,1.0,,,,,,,,,blue,diamond
0.0,1.0,1.0,0.0,5.0,5.0,464.5077830000446,6.0,0.0,part_2,go,450.0,400.0,1.0,,,,,,,,,blue,diamond
0.0,2.0,2.0,0.0,6.0,6.0,571.9996620000529,6.0,0.0,part_2,go,450.0,400.0,1.0,,,,,,,,,white,circle
0.0,6.0,2.0,1.0,5.0,5.0,333.8194079997265,6.0,0.0,part_2,stop,450.0,400.0,3.0,,,,,,,,,gray,flipped triangle
0.0,5.0,1.0,1.0,6.0,0.0,0.0,6.0,0.0,part_2,stop,400.0,400.0,4.0,,,,,,,,,yellow,I
0.0,6.0,2.0,1.0,5.0,0.0,0.0,6.0,0.0,part_2,stop,400.0,450.0,4.0,,,,,,,,,gray,flipped triangle
0.0,2.0,2.0,0.0,5.0,5.0,384.2445539994514,6.0,0.0,part_2,go,450.0,450.0,1.0,,,,,,,,,white,circle
0.0,4.0,4.0,0.0,5.0,5.0,610.2664050004023,6.0,0.0,part_2,go,450.0,450.0,1.0,,,,,,,,,cyan,triangle
0.0,8.0,4.0,1.0,6.0,6.0,913.9501409999866,6.0,0.0,part_2,go,450.0,450.0,1.0,,,,,,,,,magenta,cross
0.0,1.0,1.0,0.0,6.0,6.0,439.2989089992625,6.0,0.0,part_2,go,450.0,450.0,1.0,,,,,,,,,blue,diamond
0.0,2.0,2.0,0.0,5.0,5.0,584.335812000063,6.0,0.0,part_2,go,450.0,450.0,1.0,,,,,,,,,white,circle
0.0,4.0,4.0,0.0,5.0,5.0,421.9505750006647,6.0,0.0,part_2,go,450.0,450.0,1.0,,,,,,,,,cyan,triangle
0.0,6.0,2.0,1.0,6.0,0.0,0.0,6.0,0.0,part_2,stop,450.0,450.0,4.0,,,,,,,,,gray,flipped triangle
0.0,4.0,4.0,0.0,6.0,6.0,493.452215000616,6.0,0.0,part_2,go,450.0,500.0,1.0,,,,,,,,,cyan,triangle
0.0,2.0,2.0,0.0,5.0,5.0,448.830240999996,6.0,0.0,part_2,go,450.0,500.0,1.0,,,,,,,,,white,circle
0.0,5.0,1.0,1.0,6.0,6.0,615.163290000055,6.0,0.0,part_2,stop,450.0,500.0,3.0,,,,,,,,,yellow,I
0.0,5.0,1.0,1.0,5.0,5.0,777.6763750007376,6.0,0.0,part_2,go,450.0,450.0,1.0,,,,,,,,,yellow,I
0.0,3.0,3.0,0.0,5.0,5.0,500.2197840003646,6.0,0.0,part_2,go,450.0,450.0,1.0,,,,,,,,,green,hexagon
0.0,8.0,4.0,1.0,5.0,5.0,751.4431800000239,6.0,0.0,part_2,go,450.0,450.0,1.0,,,,,,,,,magenta,cross
0.0,3.0,3.0,0.0,5.0,5.0,458.8327520004895,6.0,0.0,part_2,go,450.0,450.0,1.0,,,,,,,,,green,hexagon
0.0,8.0,4.0,1.0,6.0,6.0,605.712362000304,6.0,0.0,part_2,stop,450.0,450.0,3.0,,,,,,,,,magenta,cross
0.0,8.0,4.0,1.0,5.0,0.0,0.0,6.0,0.0,part_2,stop,450.0,400.0,4.0,,,,,,,,,magenta,cross
0.0,5.0,1.0,1.0,5.0,0.0,0.0,6.0,0.0,part_2,stop,500.0,400.0,4.0,,,,,,,,,yellow,I
0.0,3.0,3.0,0.0,5.0,5.0,507.46641299974726,6.0,0.0,part_2,go,550.0,400.0,1.0,,,,,,,,,green,hexagon
0.0,4.0,4.0,0.0,6.0,6.0,377.0415680000951,6.0,0.0,part_2,go,550.0,400.0,1.0,,,,,,,,,cyan,triangle
0.0,2.0,2.0,0.0,6.0,6.0,587.4205309992249,6.0,0.0,part_2,go,550.0,400.0,1.0,,,,,,,,,white,circle
0.0,7.0,3.0,1.0,6.0,6.0,437.4782570002935,6.0,0.0,part_2,stop,550.0,400.0,3.0,,,,,,,,,orange,square
0.0,8.0,4.0,1.0,6.0,0.0,0.0,6.0,0.0,part_2,stop,550.0,350.0,4.0,,,,,,,,,magenta,cross
0.0,7.0,3.0,1.0,5.0,5.0,450.5029400006606,6.0,0.0,part_2,go,550.0,400.0,1.0,,,,,,,,,orange,square
0.0,3.0,3.0,0.0,5.0,5.0,479.363581999678,6.0,0.0,part_2,go,550.0,400.0,1.0,,,,,,,,,green,hexagon
0.0,4.0,4.0,0.0,6.0,6.0,472.5312740001754,6.0,0.0,part_2,go,550.0,400.0,1.0,,,,,,,,,cyan,triangle
0.0,8.0,4.0,1.0,5.0,5.0,345.2263789995413,6.0,0.0,part_2,go,550.0,400.0,1.0,,,,,,,,,magenta,cross
0.0,8.0,4.0,1.0,6.0,6.0,822.7052460006234,6.0,0.0,part_2,go,550.0,400.0,1.0,,,,,,,,,magenta,cross
0.0,5.0,1.0,1.0,6.0,6.0,814.217130000543,6.0,0.0,part_2,go,550.0,400.0,1.0,,,,,,,,,yellow,I
0.0,1.0,1.0,0.0,6.0,6.0,419.7239790000822,6.0,0.0,part_2,go,550.0,400.0,1.0,,,,,,,,,blue,diamond
0.0,3.0,3.0,0.0,5.0,5.0,491.2740619993201,6.0,0.0,part_2,go,550.0,400.0,1.0,,,,,,,,,green,hexagon
0.0,2.0,2.0,0.0,6.0,6.0,484.4878110006902,7.0,0.0,part_2,go,550.0,400.0,1.0,,,,,,,,,white,circle
0.0,5.0,1.0,1.0,5.0,5.0,517.0205999993414,7.0,0.0,part_2,stop,550.0,400.0,3.0,,,,,,,,,yellow,I
0.0,8.0,4.0,1.0,6.0,0.0,0.0,7.0,0.0,part_2,stop,500.0,400.0,4.0,,,,,,,,,magenta,cross
0.0,3.0,3.0,0.0,5.0,5.0,524.6084649998011,7.0,0.0,part_2,go,500.0,450.0,1.0,,,,,,,,,green,hexagon
0.0,6.0,2.0,1.0,6.0,6.0,404.9691000000166,7.0,0.0,part_2,go,500.0,450.0,1.0,,,,,,,,,gray,flipped triangle
0.0,2.0,2.0,0.0,5.0,5.0,353.021431000343,7.0,0.0,part_2,go,500.0,450.0,1.0,,,,,,,,,white,circle
0.0,1.0,1.0,0.0,6.0,6.0,357.9120209997199,7.0,0.0,part_2,go,500.0,450.0,1.0,,,,,,,,,blue,diamond
0.0,5.0,1.0,1.0,6.0,6.0,491.1688299998786,7.0,0.0,part_2,stop,500.0,450.0,3.0,,,,,,,,,yellow,I
0.0,5.0,1.0,1.0,5.0,0.0,0.0,7.0,0.0,part_2,stop,500.0,400.0,4.0,,,,,,,,,yellow,I
0.0,1.0,1.0,0.0,5.0,5.0,514.8673800003962,7.0,0.0,part_2,go,550.0,400.0,1.0,,,,,,,,,blue,diamond
0.0,7.0,3.0,1.0,6.0,6.0,452.9129390002708,7.0,0.0,part_2,stop,550.0,400.0,3.0,,,,,,,,,orange,square
0.0,4.0,4.0,0.0,5.0,5.0,530.5240289999347,7.0,0.0,part_2,go,550.0,350.0,1.0,,,,,,,,,cyan,triangle
0.0,2.0,2.0,0.0,6.0,6.0,491.4769469996827,7.0,0.0,part_2,go,550.0,350.0,1.0,,,,,,,,,white,circle
0.0,8.0,4.0,1.0,5.0,5.0,347.5745630003075,7.0,0.0,part_2,stop,550.0,350.0,3.0,,,,,,,,,magenta,cross
0.0,7.0,3.0,1.0,5.0,5.0,610.4461559998526,7.0,0.0,part_2,stop,500.0,350.0,3.0,,,,,,,,,orange,square
0.0,3.0,3.0,0.0,6.0,6.0,500.8470729999317,7.0,0.0,part_2,go,450.0,350.0,1.0,,,,,,,,,green,hexagon
0.0,2.0,2.0,0.0,6.0,6.0,449.3155870004557,7.0,0.0,part_2,go,450.0,350.0,1.0,,,,,,,,,white,circle
0.0,4.0,4.0,0.0,5.0,5.0,467.2586510005203,7.0,0.0,part_2,go,450.0,350.0,1.0,,,,,,,,,cyan,triangle
0.0,4.0,4.0,0.0,6.0,6.0,357.3992789997646,7.0,0.0,part_2,go,450.0,350.0,1.0,,,,,,,,,cyan,triangle
0.0,7.0,3.0,1.0,5.0,5.0,594.4830209991778,7.0,0.0,part_2,stop,450.0,350.0,3.0,,,,,,,,,orange,square
0.0,6.0,2.0,1.0,5.0,0.0,0.0,7.0,0.0,part_2,stop,400.0,350.0,4.0,,,,,,,,,gray,flipped triangle
0.0,6.0,2.0,1.0,5.0,0.0,0.0,7.0,0.0,part_2,stop,450.0,350.0,4.0,,,,,,,,,gray,flipped triangle
0.0,4.0,4.0,0.0,5.0,5.0,597.5048390000666,7.0,0.0,part_2,go,500.0,350.0,1.0,,,,,,,,,cyan,triangle
0.0,1.0,1.0,0.0,5.0,5.0,426.8035309996776,7.0,0.0,part_2,go,500.0,350.0,1.0,,,,,,,,,blue,diamond
0.0,2.0,2.0,0.0,5.0,5.0,605.660037999769,7.0,0.0,part_2,go,500.0,350.0,1.0,,,,,,,,,white,circle
0.0,6.0,2.0,1.0,6.0,0.0,0.0,7.0,0.0,part_2,stop,500.0,350.0,4.0,,,,,,,,,gray,flipped triangle
0.0,5.0,1.0,1.0,5.0,5.0,623.0020169996351,7.0,0.0,part_2,stop,500.0,400.0,3.0,,,,,,,,,yellow,I
0.0,7.0,3.0,1.0,5.0,0.0,0.0,7.0,0.0,part_2,stop,450.0,400.0,4.0,,,,,,,,,orange,square
0.0,2.0,2.0,0.0,6.0,6.0,597.7825879999727,7.0,0.0,part_2,go,500.0,400.0,1.0,,,,,,,,,white,circle
0.0,5.0,1.0,1.0,5.0,0.0,0.0,7.0,0.0,part_2,stop,500.0,400.0,4.0,,,,,,,,,yellow,I
0.0,8.0,4.0,1.0,5.0,0.0,0.0,7.0,0.0,part_2,stop,550.0,400.0,4.0,,,,,,,,,magenta,cross
0.0,5.0,1.0,1.0,5.0,5.0,980.6941780007036,7.0,0.0,part_2,go,600.0,400.0,1.0,,,,,,,,,yellow,I
0.0,7.0,3.0,1.0,5.0,5.0,429.53082399981207,7.0,0.0,part_2,go,600.0,400.0,1.0,,,,,,,,,orange,square
0.0,3.0,3.0,0.0,5.0,5.0,492.0965259998411,7.0,0.0,part_2,go,600.0,400.0,1.0,,,,,,,,,green,hexagon
0.0,4.0,4.0,0.0,6.0,6.0,532.7611000002435,7.0,0.0,part_2,go,600.0,400.0,1.0,,,,,,,,,cyan,triangle
0.0,7.0,3.0,1.0,6.0,0.0,0.0,7.0,0.0,part_2,stop,600.0,400.0,4.0,,,,,,,,,orange,square
0.0,3.0,3.0,0.0,6.0,6.0,544.0236419999565,8.0,0.0,part_2,go,600.0,450.0,1.0,,,,,,,,,green,hexagon
0.0,1.0,1.0,0.0,5.0,5.0,426.9542699994417,8.0,0.0,part_2,go,600.0,450.0,1.0,,,,,,,,,blue,diamond
0.0,5.0,1.0,1.0,5.0,0.0,0.0,8.0,0.0,part_2,stop,600.0,450.0,4.0,,,,,,,,,yellow,I
0.0,7.0,3.0,1.0,6.0,0.0,0.0,8.0,0.0,part_2,stop,650.0,450.0,4.0,,,,,,,,,orange,square
0.0,4.0,4.0,0.0,5.0,5.0,581.4230719997795,8.0,0.0,part_2,go,650.0,500.0,1.0,,,,,,,,,cyan,triangle
0.0,3.0,3.0,0.0,6.0,6.0,493.7181470004361,8.0,0.0,part_2,go,650.0,500.0,1.0,,,,,,,,,green,hexagon
0.0,3.0,3.0,0.0,6.0,6.0,481.2900210008592,8.0,0.0,part_2,go,650.0,500.0,1.0,,,,,,,,,green,hexagon
0.0,5.0,1.0,1.0,6.0,6.0,962.7324600005522,8.0,0.0,part_2,go,650.0,500.0,1.0,,,,,,,,,yellow,I
0.0,2.0,2.0,0.0,6.0,6.0,426.7639809995671,8.0,0.0,part_2,go,650.0,500.0,1.0,,,,,,,,,white,circle
0.0,8.0,4.0,1.0,6.0,6.0,605.6532610000431,8.0,0.0,part_2,stop,650.0,500.0,3.0,,,,,,,,,magenta,cross
0.0,2.0,2.0,0.0,5.0,5.0,520.5164249991867,8.0,0.0,part_2,go,650.0,450.0,1.0,,,,,,,,,white,circle
0.0,3.0,3.0,0.0,5.0,5.0,525.280785999712,8.0,0.0,part_2,go,650.0,450.0,1.0,,,,,,,,,green,hexagon
0.0,5.0,1.0,1.0,6.0,6.0,337.2501760004525,8.0,0.0,part_2,stop,650.0,450.0,3.0,,,,,,,,,yellow,I
0.0,8.0,4.0,1.0,5.0,5.0,354.1051820002394,8.0,0.0,part_2,stop,650.0,400.0,3.0,,,,,,,,,magenta,cross
0.0,2.0,2.0,0.0,6.0,6.0,470.2887729999929,8.0,0.0,part_2,go,600.0,400.0,1.0,,,,,,,,,white,circle
0.0,7.0,3.0,1.0,6.0,6.0,372.2446369993122,8.0,0.0,part_2,go,600.0,400.0,1.0,,,,,,,,,orange,square
0.0,8.0,4.0,1.0,6.0,6.0,379.5536279994849,8.0,0.0,part_2,stop,600.0,400.0,3.0,,,,,,,,,magenta,cross
0.0,8.0,4.0,1.0,6.0,0.0,0.0,8.0,0.0,part_2,stop,600.0,350.0,4.0,,,,,,,,,magenta,cross
0.0,1.0,1.0,0.0,5.0,5.0,520.0322020000385,8.0,0.0,part_2,go,600.0,400.0,1.0,,,,,,,,,blue,diamond
0.0,7.0,3.0,1.0,5.0,5.0,852.4628029999803,8.0,0.0,part_2,go,600.0,400.0,1.0,,,,,,,,,orange,square
0.0,7.0,3.0,1.0,6.0,6.0,548.005104999902,8.0,0.0,part_2,go,600.0,400.0,1.0,,,,,,,,,orange,square
0.0,3.0,3.0,0.0,6.0,6.0,495.1957610001045,8.0,0.0,part_2,go,600.0,400.0,1.0,,,,,,,,,green,hexagon
0.0,4.0,4.0,0.0,5.0,5.0,381.9138409999141,8.0,0.0,part_2,go,600.0,400.0,1.0,,,,,,,,,cyan,triangle
0.0,7.0,3.0,1.0,5.0,5.0,709.911732999899,8.0,0.0,part_2,stop,600.0,400.0,3.0,,,,,,,,,orange,square
0.0,5.0,1.0,1.0,5.0,5.0,581.1096690003978,8.0,0.0,part_2,stop,550.0,400.0,3.0,,,,,,,,,yellow,I
0.0,3.0,3.0,0.0,6.0,6.0,607.0562730001257,8.0,0.0,part_2,go,500.0,400.0,1.0,,,,,,,,,green,hexagon
0.0,8.0,4.0,1.0,6.0,0.0,0.0,8.0,0.0,part_2,stop,500.0,400.0,4.0,,,,,,,,,magenta,cross
0.0,6.0,2.0,1.0,6.0,6.0,562.8482419997454,8.0,0.0,part_2,go,500.0,450.0,1.0,,,,,,,,,gray,flipped triangle
0.0,4.0,4.0,0.0,5.0,5.0,327.3260949999894,8.0,0.0,part_2,go,500.0,450.0,1.0,,,,,,,,,cyan,triangle
0.0,6.0,2.0,1.0,6.0,6.0,647.5883490002161,8.0,0.0,part_2,stop,500.0,450.0,3.0,,,,,,,,,gray,flipped triangle
0.0,6.0,2.0,1.0,5.0,0.0,0.0,8.0,0.0,part_2,stop,500.0,400.0,4.0,,,,,,,,,gray,flipped triangle
0.0,4.0,4.0,0.0,6.0,6.0,516.9843549992947,8.0,0.0,part_2,go,550.0,400.0,1.0,,,,,,,,,cyan,triangle
0.0,6.0,2.0,1.0,6.0,0.0,0.0,8.0,0.0,part_2,stop,550.0,400.0,4.0,,,,,,,,,gray,flipped triangle
0.0,1.0,1.0,0.0,6.0,6.0,577.3481639998863,8.0,0.0,part_2,go,550.0,450.0,1.0,,,,,,,,,blue,diamond
0.0,3.0,3.0,0.0,6.0,6.0,417.1743810002226,8.0,0.0,part_2,go,550.0,450.0,1.0,,,,,,,,,green,hexagon
0.0,2.0,2.0,0.0,6.0,6.0,372.5217880000855,8.0,0.0,part_2,go,550.0,450.0,1.0,,,,,,,,,white,circle
0.0,5.0,1.0,1.0,7.0,4.0,2797.3742539998057,1.0,1.0,part_3,go,0.0,0.0,0.0,324.0,6.0,54.0,270.0,216.0,324.0,108.0,162.0,yellow,I
0.0,6.0,2.0,1.0,7.0,3.0,2751.3400959996943,1.0,1.0,part_3,go,0.0,0.0,0.0,147.0,3.0,294.0,245.0,147.0,196.0,49.0,98.0,gray,flipped triangle
0.0,4.0,4.0,0.0,7.0,2.0,2236.097761000565,1.0,2.0,part_3,go,0.0,0.0,0.0,204.0,6.0,34.0,204.0,170.0,68.0,102.0,136.0,cyan,triangle
0.0,2.0,2.0,0.0,7.0,5.0,2117.2686200006865,1.0,1.0,part_3,go,0.0,0.0,0.0,78.0,2.0,195.0,234.0,117.0,156.0,78.0,39.0,white,circle
0.0,4.0,4.0,0.0,7.0,3.0,2296.3774049994754,1.0,1.0,part_3,go,0.0,0.0,0.0,102.0,3.0,170.0,204.0,102.0,34.0,68.0,136.0,cyan,triangle
0.0,1.0,1.0,0.0,7.0,2.0,2441.6365170000063,1.0,1.0,part_3,go,0.0,0.0,0.0,136.0,4.0,102.0,136.0,34.0,170.0,204.0,68.0,blue,diamond
0.0,1.0,1.0,0.0,7.0,5.0,1463.9381779998075,1.0,1.0,part_3,go,0.0,0.0,0.0,156.0,4.0,195.0,78.0,234.0,39.0,156.0,117.0,blue,diamond
0.0,2.0,2.0,0.0,7.0,1.0,2281.9829469999604,1.0,1.0,part_3,go,0.0,0.0,0.0,88.0,2.0,88.0,220.0,44.0,264.0,132.0,176.0,white,circle
0.0,6.0,2.0,1.0,7.0,5.0,1963.0935129998759,1.0,1.0,part_3,go,0.0,0.0,0.0,234.0,6.0,78.0,195.0,156.0,117.0,234.0,39.0,gray,flipped triangle
0.0,7.0,3.0,1.0,7.0,2.0,2461.05946499938,1.0,1.0,part_3,go,0.0,0.0,0.0,156.0,4.0,39.0,156.0,234.0,117.0,78.0,195.0,orange,square
0.0,8.0,4.0,1.0,7.0,4.0,2150.7814029992005,1.0,1.0,part_3,go,0.0,0.0,0.0,220.0,5.0,264.0,132.0,44.0,220.0,176.0,88.0,magenta,cross
0.0,2.0,2.0,0.0,7.0,6.0,2095.745929000259,1.0,1.0,part_3,go,0.0,0.0,0.0,68.0,2.0,136.0,102.0,204.0,170.0,34.0,68.0,white,circle
0.0,3.0,3.0,0.0,7.0,5.0,1489.0827519993763,1.0,1.0,part_3,go,0.0,0.0,0.0,270.0,5.0,324.0,162.0,216.0,108.0,270.0,54.0,green,hexagon
0.0,4.0,4.0,0.0,7.0,1.0,1932.464472999527,1.0,1.0,part_3,go,0.0,0.0,0.0,264.0,6.0,264.0,88.0,220.0,44.0,176.0,132.0,cyan,triangle
0.0,5.0,1.0,1.0,7.0,4.0,2421.950949999882,1.0,1.0,part_3,go,0.0,0.0,0.0,108.0,2.0,54.0,324.0,270.0,108.0,162.0,216.0,yellow,I
0.0,4.0,4.0,0.0,7.0,1.0,1931.1535659999208,1.0,1.0,part_3,go,0.0,0.0,0.0,245.0,5.0,245.0,147.0,294.0,196.0,49.0,98.0,cyan,triangle
0.0,2.0,2.0,0.0,7.0,5.0,2338.340543999948,1.0,1.0,part_3,go,0.0,0.0,0.0,132.0,3.0,88.0,264.0,176.0,44.0,132.0,220.0,white,circle
0.0,4.0,4.0,0.0,7.0,4.0,2063.375050000104,1.0,1.0,part_3,go,0.0,0.0,0.0,234.0,6.0,156.0,39.0,195.0,234.0,117.0,78.0,cyan,triangle
0.0,8.0,4.0,1.0,7.0,6.0,2168.3343799995782,1.0,1.0,part_3,go,0.0,0.0,0.0,156.0,4.0,195.0,39.0,234.0,117.0,78.0,156.0,magenta,cross
0.0,7.0,3.0,1.0,7.0,2.0,1836.6253840003992,1.0,1.0,part_3,go,0.0,0.0,0.0,88.0,2.0,132.0,88.0,220.0,176.0,44.0,264.0,orange,square
0.0,3.0,3.0,0.0,7.0,5.0,1127.384188999713,2.0,1.0,part_3,go,0.0,0.0,0.0,245.0,5.0,98.0,147.0,294.0,196.0,245.0,49.0,green,hexagon
0.0,1.0,1.0,0.0,7.0,4.0,3114.190555999812,2.0,1.0,part_3,go,0.0,0.0,0.0,170.0,5.0,204.0,136.0,34.0,170.0,102.0,68.0,blue,diamond
0.0,7.0,3.0,1.0,7.0,1.0,1893.951289999677,2.0,1.0,part_3,go,0.0,0.0,0.0,88.0,2.0,88.0,132.0,176.0,264.0,44.0,220.0,orange,square
0.0,3.0,3.0,0.0,7.0,4.0,1770.153413999651,2.0,1.0,part_3,go,0.0,0.0,0.0,234.0,6.0,156.0,39.0,195.0,234.0,117.0,78.0,green,hexagon
0.0,5.0,1.0,1.0,7.0,3.0,1411.8741419997605,2.0,1.0,part_3,go,0.0,0.0,0.0,220.0,5.0,264.0,44.0,220.0,88.0,132.0,176.0,yellow,I
0.0,6.0,2.0,1.0,7.0,1.0,2215.2630950004095,2.0,1.0,part_3,go,0.0,0.0,0.0,44.0,1.0,44.0,132.0,264.0,176.0,88.0,220.0,gray,flipped triangle
0.0,2.0,2.0,0.0,7.0,2.0,1790.8347740003592,2.0,1.0,part_3,go,0.0,0.0,0.0,78.0,2.0,156.0,78.0,234.0,39.0,117.0,195.0,white,circle
0.0,2.0,2.0,0.0,7.0,4.0,1508.615361000011,2.0,1.0,part_3,go,0.0,0.0,0.0,49.0,1.0,294.0,196.0,245.0,49.0,147.0,98.0,white,circle
0.0,4.0,4.0,0.0,7.0,1.0,2316.375252999933,2.0,1.0,part_3,go,0.0,0.0,0.0,245.0,5.0,245.0,294.0,147.0,98.0,49.0,196.0,cyan,triangle
0.0,7.0,3.0,1.0,7.0,4.0,1980.0641700003323,2.0,1.0,part_3,go,0.0,0.0,0.0,195.0,5.0,234.0,117.0,39.0,195.0,156.0,78.0,orange,square
0.0,5.0,1.0,1.0,7.0,6.0,1218.5702320002747,2.0,1.0,part_3,go,0.0,0.0,0.0,170.0,5.0,34.0,204.0,68.0,136.0,102.0,170.0,yellow,I
0.0,2.0,2.0,0.0,7.0,4.0,1557.6306289995046,2.0,1.0,part_3,go,0.0,0.0,0.0,98.0,2.0,147.0,245.0,49.0,98.0,196.0,294.0,white,circle
0.0,8.0,4.0,1.0,7.0,1.0,1746.790482000506,2.0,1.0,part_3,go,0.0,0.0,0.0,234.0,6.0,234.0,195.0,156.0,117.0,39.0,78.0,magenta,cross
0.0,1.0,1.0,0.0,7.0,3.0,2577.740767999785,2.0,1.0,part_3,go,0.0,0.0,0.0,54.0,1.0,270.0,216.0,54.0,108.0,162.0,324.0,blue,diamond
0.0,8.0,4.0,1.0,7.0,2.0,1356.4196690003882,2.0,1.0,part_3,go,0.0,0.0,0.0,220.0,5.0,132.0,220.0,44.0,88.0,264.0,176.0,magenta,cross
0.0,6.0,2.0,1.0,7.0,1.0,1636.0886729999038,2.0,1.0,part_3,go,0.0,0.0,0.0,54.0,1.0,54.0,108.0,270.0,324.0,216.0,162.0,gray,flipped triangle
0.0,3.0,3.0,0.0,7.0,5.0,2394.947733000663,2.0,1.0,part_3,go,0.0,0.0,0.0,204.0,6.0,136.0,68.0,170.0,34.0,204.0,102.0,green,hexagon
0.0,5.0,1.0,1.0,7.0,1.0,2275.625926999965,2.0,1.0,part_3,go,0.0,0.0,0.0,132.0,3.0,132.0,220.0,44.0,88.0,176.0,264.0,yellow,I
0.0,4.0,4.0,0.0,7.0,6.0,2279.5035910003207,2.0,1.0,part_3,go,0.0,0.0,0.0,270.0,5.0,324.0,54.0,216.0,108.0,162.0,270.0,cyan,triangle
0.0,6.0,2.0,1.0,7.0,5.0,1319.7252330000993,2.0,1.0,part_3,go,0.0,0.0,0.0,108.0,2.0,54.0,270.0,162.0,324.0,108.0,216.0,gray,flipped triangle
0.0,8.0,4.0,1.0,7.0,4.0,1592.4850720002723,3.0,1.0,part_3,go,0.0,0.0,0.0,102.0,3.0,68.0,34.0,170.0,102.0,136.0,204.0,magenta,cross
0.0,7.0,3.0,1.0,7.0,3.0,1172.717778000333,3.0,1.0,part_3,go,0.0,0.0,0.0,270.0,5.0,216.0,324.0,270.0,162.0,108.0,54.0,orange,square
0.0,1.0,1.0,0.0,7.0,6.0,2198.8143290000153,3.0,1.0,part_3,go,0.0,0.0,0.0,156.0,4.0,195.0,78.0,117.0,39.0,234.0,156.0,blue,diamond
0.0,1.0,1.0,0.0,7.0,4.0,1999.6557639997263,3.0,1.0,part_3,go,0.0,0.0,0.0,294.0,6.0,147.0,245.0,49.0,294.0,196.0,98.0,blue,diamond
0.0,7.0,3.0,1.0,7.0,5.0,1956.254781000098,3.0,1.0,part_3,go,0.0,0.0,0.0,204.0,6.0,34.0,68.0,136.0,102.0,204.0,170.0,orange,square
0.0,5.0,1.0,1.0,7.0,2.0,2090.989563000221,3.0,1.0,part_3,go,0.0,0.0,0.0,170.0,5.0,102.0,170.0,204.0,68.0,34.0,136.0,yellow,I
0.0,3.0,3.0,0.0,7.0,3.0,2077.521623999928,3.0,1.0,part_3,go,0.0,0.0,0.0,204.0,6.0,34.0,102.0,204.0,68.0,136.0,170.0,green,hexagon
0.0,3.0,3.0,0.0,7.0,4.0,2988.09238099966,3.0,1.0,part_3,go,0.0,0.0,0.0,270.0,5.0,54.0,216.0,324.0,270.0,162.0,108.0,green,hexagon
0.0,3.0,3.0,0.0,7.0,1.0,2103.836524000144,3.0,1.0,part_3,go,0.0,0.0,0.0,132.0,3.0,132.0,220.0,176.0,88.0,44.0,264.0,green,hexagon
0.0,7.0,3.0,1.0,7.0,4.0,2816.6751560002012,3.0,1.0,part_3,go,0.0,0.0,0.0,196.0,4.0,245.0,98.0,147.0,196.0,294.0,49.0,orange,square
0.0,8.0,4.0,1.0,7.0,3.0,1975.137319999703,3.0,1.0,part_3,go,0.0,0.0,0.0,324.0,6.0,216.0,54.0,324.0,270.0,108.0,162.0,magenta,cross
0.0,3.0,3.0,0.0,7.0,2.0,2132.472035000319,3.0,1.0,part_3,go,0.0,0.0,0.0,220.0,5.0,44.0,220.0,132.0,264.0,176.0,88.0,green,hexagon
0.0,2.0,2.0,0.0,7.0,5.0,1837.3847960001513,3.0,1.0,part_3,go,0.0,0.0,0.0,54.0,1.0,108.0,270.0,324.0,162.0,54.0,216.0,white,circle
0.0,3.0,3.0,0.0,7.0,6.0,3369.4424499999514,3.0,1.0,part_3,go,0.0,0.0,0.0,245.0,5.0,294.0,98.0,196.0,49.0,147.0,245.0,green,hexagon
0.0,8.0,4.0,1.0,7.0,5.0,1534.1400639999847,3.0,1.0,part_3,go,0.0,0.0,0.0,245.0,5.0,98.0,196.0,147.0,294.0,245.0,49.0,magenta,cross
0.0,2.0,2.0,0.0,7.0,4.0,2633.912238999983,3.0,1.0,part_3,go,0.0,0.0,0.0,108.0,2.0,270.0,216.0,324.0,108.0,54.0,162.0,white,circle
0.0,8.0,4.0,1.0,7.0,2.0,1692.0446619997165,3.0,1.0,part_3,go,0.0,0.0,0.0,204.0,6.0,170.0,204.0,102.0,136.0,68.0,34.0,magenta,cross
0.0,3.0,3.0,0.0,7.0,1.0,2074.4635020000715,3.0,1.0,part_3,go,0.0,0.0,0.0,234.0,6.0,234.0,117.0,39.0,195.0,78.0,156.0,green,hexagon
0.0,2.0,2.0,0.0,7.0,1.0,2277.5055290003365,3.0,1.0,part_3,go,0.0,0.0,0.0,68.0,2.0,68.0,34.0,170.0,204.0,102.0,136.0,white,circle
0.0,1.0,1.0,0.0,7.0,3.0,1251.2062670002706,3.0,1.0,part_3,go,0.0,0.0,0.0,44.0,1.0,264.0,132.0,44.0,88.0,176.0,220.0,blue,diamond
0.0,7.0,3.0,1.0,7.0,3.0,1904.4189870000992,4.0,1.0,part_3,go,0.0,0.0,0.0,204.0,6.0,170.0,102.0,204.0,136.0,68.0,34.0,orange,square
0.0,8.0,4.0,1.0,7.0,1.0,1355.9010890003265,4.0,1.0,part_3,go,0.0,0.0,0.0,324.0,6.0,324.0,162.0,54.0,108.0,270.0,216.0,magenta,cross
0.0,8.0,4.0,1.0,7.0,2.0,2304.1182770002706,4.0,1.0,part_3,go,0.0,0.0,0.0,294.0,6.0,49.0,294.0,245.0,147.0,196.0,98.0,magenta,cross
0.0,6.0,2.0,1.0,7.0,2.0,2012.3302379997767,4.0,1.0,part_3,go,0.0,0.0,0.0,39.0,1.0,195.0,39.0,234.0,156.0,117.0,78.0,gray,flipped triangle
0.0,4.0,4.0,0.0,7.0,5.0,2737.2219790004237,4.0,1.0,part_3,go,0.0,0.0,0.0,264.0,6.0,44.0,132.0,220.0,88.0,264.0,176.0,cyan,triangle
0.0,4.0,4.0,0.0,7.0,6.0,2385.113561000253,4.0,1.0,part_3,go,0.0,0.0,0.0,234.0,6.0,195.0,78.0,39.0,156.0,117.0,234.0,cyan,triangle
0.0,1.0,1.0,0.0,7.0,2.0,2547.134405000179,4.0,1.0,part_3,go,0.0,0.0,0.0,270.0,5.0,324.0,270.0,54.0,162.0,216.0,108.0,blue,diamond
0.0,1.0,1.0,0.0,7.0,5.0,2764.033001999451,4.0,1.0,part_3,go,0.0,0.0,0.0,245.0,5.0,196.0,294.0,49.0,98.0,245.0,147.0,blue,diamond
0.0,6.0,2.0,1.0,7.0,6.0,2068.293813999844,4.0,1.0,part_3,go,0.0,0.0,0.0,68.0,2.0,170.0,34.0,204.0,102.0,136.0,68.0,gray,flipped triangle
0.0,6.0,2.0,1.0,7.0,6.0,2261.249995000071,4.0,1.0,part_3,go,0.0,0.0,0.0,88.0,2.0,132.0,220.0,176.0,264.0,44.0,88.0,gray,flipped triangle
0.0,5.0,1.0,1.0,7.0,3.0,3475.7505600000513,4.0,1.0,part_3,go,0.0,0.0,0.0,98.0,2.0,294.0,245.0,98.0,196.0,49.0,147.0,yellow,I
0.0,5.0,1.0,1.0,7.0,6.0,1856.861084999764,4.0,1.0,part_3,go,0.0,0.0,0.0,156.0,4.0,234.0,117.0,78.0,195.0,39.0,156.0,yellow,I
0.0,5.0,1.0,1.0,7.0,5.0,2415.0571620002665,4.0,1.0,part_3,go,0.0,0.0,0.0,98.0,2.0,294.0,147.0,196.0,245.0,98.0,49.0,yellow,I
0.0,7.0,3.0,1.0,7.0,1.0,2332.6202150001336,4.0,1.0,part_3,go,0.0,0.0,0.0,216.0,4.0,216.0,270.0,108.0,162.0,54.0,324.0,orange,square
0.0,5.0,1.0,1.0,7.0,4.0,1647.273015999417,4.0,1.0,part_3,go,0.0,0.0,0.0,117.0,3.0,195.0,156.0,234.0,117.0,39.0,78.0,yellow,I
0.0,6.0,2.0,1.0,7.0,2.0,1875.2226010001325,4.0,1.0,part_3,go,0.0,0.0,0.0,98.0,2.0,294.0,98.0,245.0,147.0,49.0,196.0,gray,flipped triangle
0.0,1.0,1.0,0.0,7.0,2.0,2720.892895000361,4.0,1.0,part_3,go,0.0,0.0,0.0,220.0,5.0,264.0,220.0,88.0,132.0,176.0,44.0,blue,diamond
0.0,6.0,2.0,1.0,7.0,2.0,2810.39451900051,4.0,1.0,part_3,go,0.0,0.0,0.0,136.0,4.0,170.0,136.0,102.0,34.0,204.0,68.0,gray,flipped triangle
0.0,7.0,3.0,1.0,7.0,4.0,2585.263519000364,4.0,1.0,part_3,go,0.0,0.0,0.0,147.0,3.0,294.0,49.0,98.0,147.0,245.0,196.0,orange,square
0.0,4.0,4.0,0.0,7.0,4.0,2243.496089000473,4.0,1.0,part_3,go,0.0,0.0,0.0,270.0,5.0,162.0,108.0,216.0,270.0,54.0,324.0,cyan,triangle
