raw_reward_magnitude,stim_reward,stepwise_reward_magnitude,paired_with_stopping,quadrant,response,reaction_time,block,num_trial_presentations,which_part,stop_signal_trial_type,left_SSD,right_SSD,accuracy,chosen_bidding_amount,chosen_bidding_level,possible_bid_1,possible_bid_2,possible_bid_3,possible_bid_4,possible_bid_5,possible_bid_6,color_text,shape_text
418.0,8.0,4.0,1.0,2.0,2.0,297.7629349989001,1.0,1.0,part_1,,,,,,,,,,,,,magenta,circle
388.0,4.0,4.0,0.0,3.0,3.0,347.9633799997828,1.0,1.0,part_1,,,,,,,,,,,,,white,cross
389.0,4.0,4.0,0.0,2.0,2.0,359.0415590006159,1.0,1.0,part_1,,,,,,,,,,,,,white,cross
379.0,8.0,4.0,1.0,3.0,3.0,306.9336979988293,1.0,1.0,part_1,,,,,,,,,,,,,magenta,circle
206.0,3.0,3.0,0.0,3.0,3.0,373.489318000793,1.0,1.0,part_1,,,,,,,,,,,,,blue,I
108.0,6.0,2.0,1.0,1.0,1.0,298.5588720002852,1.0,1.0,part_1,,,,,,,,,,,,,orange,hexagon
65.0,5.0,1.0,1.0,3.0,3.0,329.2222110012517,1.0,1.0,part_1,,,,,,,,,,,,,gray,square
0.0,3.0,0.0,0.0,1.0,1.0,365.8791610014305,1.0,1.0,part_1,,,,,,,,,,,,,blue,I
403.0,8.0,4.0,1.0,2.0,2.0,311.4247929988778,1.0,1.0,part_1,,,,,,,,,,,,,magenta,circle
105.0,2.0,2.0,0.0,2.0,2.0,351.1534730005223,1.0,1.0,part_1,,,,,,,,,,,,,yellow,flipped triangle
186.0,7.0,3.0,1.0,4.0,4.0,296.1084640010085,1.0,1.0,part_1,,,,,,,,,,,,,cyan,triangle
181.0,7.0,3.0,1.0,4.0,4.0,335.0964259989268,1.0,1.0,part_1,,,,,,,,,,,,,cyan,triangle
414.0,8.0,4.0,1.0,3.0,3.0,314.4755239991355,1.0,2.0,part_1,,,,,,,,,,,,,magenta,circle
0.0,1.0,0.0,0.0,4.0,4.0,365.141971000412,1.0,1.0,part_1,,,,,,,,,,,,,green,diamond
0.0,8.0,0.0,1.0,2.0,2.0,325.141095001527,1.0,1.0,part_1,,,,,,,,,,,,,magenta,circle
408.0,4.0,4.0,0.0,4.0,4.0,312.3338269997475,1.0,1.0,part_1,,,,,,,,,,,,,white,cross
124.0,6.0,2.0,1.0,4.0,4.0,340.2961129995674,1.0,1.0,part_1,,,,,,,,,,,,,orange,hexagon
190.0,3.0,3.0,0.0,2.0,2.0,238.4661680007411,1.0,1.0,part_1,,,,,,,,,,,,,blue,I
64.0,1.0,1.0,0.0,1.0,1.0,354.2292429992812,1.0,1.0,part_1,,,,,,,,,,,,,green,diamond
73.0,5.0,1.0,1.0,4.0,4.0,387.3288720005803,1.0,1.0,part_1,,,,,,,,,,,,,gray,square
219.0,7.0,3.0,1.0,2.0,2.0,333.6354690000007,1.0,1.0,part_1,,,,,,,,,,,,,cyan,triangle
99.0,6.0,2.0,1.0,1.0,1.0,292.8694669990364,1.0,1.0,part_1,,,,,,,,,,,,,orange,hexagon
194.0,3.0,3.0,0.0,3.0,3.0,293.4860829991521,1.0,1.0,part_1,,,,,,,,,,,,,blue,I
44.0,5.0,1.0,1.0,2.0,2.0,335.9055290002288,1.0,1.0,part_1,,,,,,,,,,,,,gray,square
382.0,4.0,4.0,0.0,3.0,3.0,288.055691999034,1.0,1.0,part_1,,,,,,,,,,,,,white,cross
35.0,1.0,1.0,0.0,3.0,3.0,272.3918829997274,1.0,1.0,part_1,,,,,,,,,,,,,green,diamond
223.0,3.0,3.0,0.0,2.0,2.0,306.570937998913,1.0,1.0,part_1,,,,,,,,,,,,,blue,I
204.0,7.0,3.0,1.0,1.0,1.0,323.4464480010501,1.0,2.0,part_1,,,,,,,,,,,,,cyan,triangle
45.0,5.0,1.0,1.0,3.0,3.0,391.4159390005807,1.0,1.0,part_1,,,,,,,,,,,,,gray,square
422.0,4.0,4.0,0.0,1.0,1.0,282.6421220015618,1.0,1.0,part_1,,,,,,,,,,,,,white,cross
100.0,6.0,2.0,1.0,2.0,2.0,270.4513980006595,1.0,1.0,part_1,,,,,,,,,,,,,orange,hexagon
0.0,4.0,0.0,0.0,3.0,3.0,429.6549059999961,1.0,1.0,part_1,,,,,,,,,,,,,white,cross
191.0,3.0,3.0,0.0,1.0,1.0,299.7768630011705,1.0,2.0,part_1,,,,,,,,,,,,,blue,I
0.0,1.0,0.0,0.0,3.0,3.0,367.4550439991435,1.0,1.0,part_1,,,,,,,,,,,,,green,diamond
91.0,6.0,2.0,1.0,3.0,3.0,333.313012999497,1.0,1.0,part_1,,,,,,,,,,,,,orange,hexagon
378.0,8.0,4.0,1.0,1.0,1.0,327.034531001118,1.0,1.0,part_1,,,,,,,,,,,,,magenta,circle
0.0,1.0,0.0,0.0,1.0,1.0,286.6714730007516,1.0,1.0,part_1,,,,,,,,,,,,,green,diamond
394.0,8.0,4.0,1.0,1.0,1.0,327.9409380011202,1.0,1.0,part_1,,,,,,,,,,,,,magenta,circle
45.0,1.0,1.0,0.0,4.0,4.0,374.2373139994015,1.0,1.0,part_1,,,,,,,,,,,,,green,diamond
0.0,7.0,0.0,1.0,1.0,1.0,357.6477850001538,1.0,1.0,part_1,,,,,,,,,,,,,cyan,triangle
412.0,8.0,4.0,1.0,3.0,3.0,303.3881600003951,1.0,1.0,part_1,,,,,,,,,,,,,magenta,circle
178.0,3.0,3.0,0.0,4.0,4.0,453.7459139992279,1.0,2.0,part_1,,,,,,,,,,,,,blue,I
60.0,1.0,1.0,0.0,2.0,2.0,266.4360140006465,1.0,1.0,part_1,,,,,,,,,,,,,green,diamond
27.0,1.0,1.0,0.0,1.0,1.0,357.8769899995677,1.0,1.0,part_1,,,,,,,,,,,,,green,diamond
223.0,7.0,3.0,1.0,4.0,4.0,389.9113030001899,1.0,1.0,part_1,,,,,,,,,,,,,cyan,triangle
217.0,7.0,3.0,1.0,4.0,4.0,348.0422990014631,1.0,1.0,part_1,,,,,,,,,,,,,cyan,triangle
88.0,6.0,2.0,1.0,4.0,4.0,371.4882289987145,1.0,1.0,part_1,,,,,,,,,,,,,orange,hexagon
406.0,8.0,4.0,1.0,3.0,3.0,291.1138660001597,1.0,1.0,part_1,,,,,,,,,,,,,magenta,circle
31.0,5.0,1.0,1.0,4.0,4.0,298.3497610002814,1.0,1.0,part_1,,,,,,,,,,,,,gray,square
390.0,4.0,4.0,0.0,4.0,4.0,323.3911359984631,1.0,1.0,part_1,,,,,,,,,,,,,white,cross
207.0,3.0,3.0,0.0,1.0,1.0,288.5774869992019,1.0,1.0,part_1,,,,,,,,,,,,,blue,I
32.0,5.0,1.0,1.0,1.0,1.0,292.2328569984529,1.0,1.0,part_1,,,,,,,,,,,,,gray,square
424.0,4.0,4.0,0.0,3.0,3.0,264.8088519999874,1.0,1.0,part_1,,,,,,,,,,,,,white,cross
414.0,8.0,4.0,1.0,4.0,4.0,368.6542929990537,1.0,1.0,part_1,,,,,,,,,,,,,magenta,circle
106.0,2.0,2.0,0.0,2.0,2.0,410.1702139996632,1.0,1.0,part_1,,,,,,,,,,,,,yellow,flipped triangle
403.0,4.0,4.0,0.0,2.0,2.0,323.7428659995203,1.0,1.0,part_1,,,,,,,,,,,,,white,cross
57.0,5.0,1.0,1.0,3.0,3.0,301.5684550009609,1.0,1.0,part_1,,,,,,,,,,,,,gray,square
103.0,2.0,2.0,0.0,2.0,2.0,307.3249829994893,1.0,1.0,part_1,,,,,,,,,,,,,yellow,flipped triangle
120.0,6.0,2.0,1.0,1.0,1.0,430.2253910009312,1.0,1.0,part_1,,,,,,,,,,,,,orange,hexagon
99.0,2.0,2.0,0.0,3.0,3.0,307.3843259990099,1.0,1.0,part_1,,,,,,,,,,,,,yellow,flipped triangle
102.0,6.0,2.0,1.0,2.0,2.0,255.284823000693,1.0,1.0,part_1,,,,,,,,,,,,,orange,hexagon
179.0,3.0,3.0,0.0,3.0,3.0,268.6976829991181,1.0,1.0,part_1,,,,,,,,,,,,,blue,I
0.0,4.0,0.0,0.0,3.0,3.0,302.471200000582,1.0,1.0,part_1,,,,,,,,,,,,,white,cross
407.0,8.0,4.0,1.0,4.0,4.0,354.103159999795,1.0,1.0,part_1,,,,,,,,,,,,,magenta,circle
100.0,2.0,2.0,0.0,4.0,4.0,322.7275640001608,1.0,1.0,part_1,,,,,,,,,,,,,yellow,flipped triangle
0.0,6.0,0.0,1.0,1.0,1.0,416.1809460001677,1.0,1.0,part_1,,,,,,,,,,,,,orange,hexagon
89.0,2.0,2.0,0.0,2.0,2.0,349.2260149996582,1.0,1.0,part_1,,,,,,,,,,,,,yellow,flipped triangle
203.0,7.0,3.0,1.0,1.0,1.0,330.965962000846,1.0,1.0,part_1,,,,,,,,,,,,,cyan,triangle
395.0,8.0,4.0,1.0,4.0,4.0,417.5459090001823,1.0,1.0,part_1,,,,,,,,,,,,,magenta,circle
59.0,5.0,1.0,1.0,2.0,2.0,366.88675699952,1.0,1.0,part_1,,,,,,,,,,,,,gray,square
422.0,8.0,4.0,1.0,3.0,3.0,299.3392360003781,1.0,1.0,part_1,,,,,,,,,,,,,magenta,circle
382.0,8.0,4.0,1.0,4.0,4.0,445.1134760001878,1.0,1.0,part_1,,,,,,,,,,,,,magenta,circle
179.0,7.0,3.0,1.0,3.0,3.0,318.0352529998345,1.0,1.0,part_1,,,,,,,,,,,,,cyan,triangle
210.0,3.0,3.0,0.0,2.0,2.0,370.2651540006627,1.0,1.0,part_1,,,,,,,,,,,,,blue,I
380.0,4.0,4.0,0.0,2.0,2.0,328.2574479999312,1.0,1.0,part_1,,,,,,,,,,,,,white,cross
0.0,1.0,0.0,0.0,3.0,3.0,360.1789219992497,1.0,1.0,part_1,,,,,,,,,,,,,green,diamond
411.0,4.0,4.0,0.0,3.0,3.0,310.9580809996259,1.0,1.0,part_1,,,,,,,,,,,,,white,cross
0.0,5.0,0.0,1.0,2.0,2.0,331.7296169989276,1.0,1.0,part_1,,,,,,,,,,,,,gray,square
50.0,1.0,1.0,0.0,3.0,3.0,305.0077129992132,1.0,1.0,part_1,,,,,,,,,,,,,green,diamond
125.0,2.0,2.0,0.0,3.0,3.0,388.2175599992479,1.0,1.0,part_1,,,,,,,,,,,,,yellow,flipped triangle
84.0,2.0,2.0,0.0,4.0,4.0,339.9641189989779,1.0,1.0,part_1,,,,,,,,,,,,,yellow,flipped triangle
43.0,5.0,1.0,1.0,3.0,3.0,314.3683109992707,1.0,1.0,part_1,,,,,,,,,,,,,gray,square
381.0,8.0,4.0,1.0,3.0,3.0,322.953590999532,1.0,1.0,part_1,,,,,,,,,,,,,magenta,circle
376.0,4.0,4.0,0.0,1.0,1.0,372.8341139994882,1.0,1.0,part_1,,,,,,,,,,,,,white,cross
112.0,6.0,2.0,1.0,1.0,1.0,508.68942600027367,1.0,1.0,part_1,,,,,,,,,,,,,orange,hexagon
120.0,2.0,2.0,0.0,4.0,4.0,488.320112999645,1.0,1.0,part_1,,,,,,,,,,,,,yellow,flipped triangle
124.0,2.0,2.0,0.0,3.0,3.0,246.1205210001935,1.0,1.0,part_1,,,,,,,,,,,,,yellow,flipped triangle
44.0,1.0,1.0,0.0,1.0,1.0,324.4830690000526,1.0,1.0,part_1,,,,,,,,,,,,,green,diamond
0.0,8.0,0.0,1.0,4.0,4.0,339.5562909990985,1.0,1.0,part_1,,,,,,,,,,,,,magenta,circle
408.0,8.0,4.0,1.0,2.0,2.0,409.7389489998022,1.0,1.0,part_1,,,,,,,,,,,,,magenta,circle
397.0,4.0,4.0,0.0,4.0,4.0,357.1770469989133,1.0,1.0,part_1,,,,,,,,,,,,,white,cross
92.0,6.0,2.0,1.0,2.0,2.0,414.6856700008356,1.0,1.0,part_1,,,,,,,,,,,,,orange,hexagon
224.0,3.0,3.0,0.0,4.0,4.0,378.8915910008654,1.0,1.0,part_1,,,,,,,,,,,,,blue,I
381.0,4.0,4.0,0.0,3.0,3.0,317.3608170000079,1.0,1.0,part_1,,,,,,,,,,,,,white,cross
219.0,3.0,3.0,0.0,1.0,1.0,288.5192449994065,1.0,1.0,part_1,,,,,,,,,,,,,blue,I
67.0,1.0,1.0,0.0,2.0,2.0,489.6372429993789,1.0,1.0,part_1,,,,,,,,,,,,,green,diamond
186.0,3.0,3.0,0.0,2.0,2.0,291.9530300005135,1.0,1.0,part_1,,,,,,,,,,,,,blue,I
211.0,7.0,3.0,1.0,4.0,4.0,379.1131919988402,1.0,1.0,part_1,,,,,,,,,,,,,cyan,triangle
82.0,6.0,2.0,1.0,4.0,4.0,458.0332690002251,1.0,1.0,part_1,,,,,,,,,,,,,orange,hexagon
388.0,8.0,4.0,1.0,4.0,4.0,350.7912949989986,1.0,1.0,part_1,,,,,,,,,,,,,magenta,circle
30.0,1.0,1.0,0.0,4.0,4.0,415.2404090000345,2.0,1.0,part_1,,,,,,,,,,,,,green,diamond
106.0,6.0,2.0,1.0,1.0,1.0,320.038478999777,2.0,1.0,part_1,,,,,,,,,,,,,orange,hexagon
115.0,2.0,2.0,0.0,1.0,1.0,321.0450229998969,2.0,1.0,part_1,,,,,,,,,,,,,yellow,flipped triangle
69.0,1.0,1.0,0.0,3.0,3.0,296.8213450003532,2.0,1.0,part_1,,,,,,,,,,,,,green,diamond
203.0,7.0,3.0,1.0,3.0,3.0,266.9149140001536,2.0,1.0,part_1,,,,,,,,,,,,,cyan,triangle
0.0,4.0,0.0,0.0,3.0,3.0,302.251872000852,2.0,1.0,part_1,,,,,,,,,,,,,white,cross
115.0,2.0,2.0,0.0,2.0,2.0,278.9513489988167,2.0,1.0,part_1,,,,,,,,,,,,,yellow,flipped triangle
395.0,4.0,4.0,0.0,2.0,2.0,256.4177339991147,2.0,1.0,part_1,,,,,,,,,,,,,white,cross
0.0,5.0,0.0,1.0,3.0,3.0,338.0442069992568,2.0,1.0,part_1,,,,,,,,,,,,,gray,square
0.0,7.0,0.0,1.0,1.0,1.0,389.7594569989451,2.0,1.0,part_1,,,,,,,,,,,,,cyan,triangle
54.0,5.0,1.0,1.0,4.0,4.0,290.6386189988552,2.0,1.0,part_1,,,,,,,,,,,,,gray,square
0.0,5.0,0.0,1.0,2.0,2.0,394.3518870000844,2.0,1.0,part_1,,,,,,,,,,,,,gray,square
71.0,1.0,1.0,0.0,2.0,2.0,481.3124460015388,2.0,1.0,part_1,,,,,,,,,,,,,green,diamond
59.0,5.0,1.0,1.0,2.0,2.0,337.1232569988933,2.0,1.0,part_1,,,,,,,,,,,,,gray,square
0.0,5.0,0.0,1.0,1.0,1.0,327.519136999399,2.0,1.0,part_1,,,,,,,,,,,,,gray,square
418.0,4.0,4.0,0.0,2.0,2.0,288.5034619994258,2.0,1.0,part_1,,,,,,,,,,,,,white,cross
390.0,4.0,4.0,0.0,1.0,1.0,281.0153790014738,2.0,1.0,part_1,,,,,,,,,,,,,white,cross
395.0,8.0,4.0,1.0,2.0,2.0,303.5145989997545,2.0,1.0,part_1,,,,,,,,,,,,,magenta,circle
115.0,6.0,2.0,1.0,4.0,4.0,229.2852190003032,2.0,1.0,part_1,,,,,,,,,,,,,orange,hexagon
0.0,2.0,0.0,0.0,4.0,4.0,293.8425219999772,2.0,1.0,part_1,,,,,,,,,,,,,yellow,flipped triangle
376.0,4.0,4.0,0.0,1.0,1.0,325.6744780010194,2.0,1.0,part_1,,,,,,,,,,,,,white,cross
408.0,8.0,4.0,1.0,1.0,1.0,321.3066270000126,2.0,1.0,part_1,,,,,,,,,,,,,magenta,circle
199.0,3.0,3.0,0.0,3.0,3.0,464.9544959993363,2.0,2.0,part_1,,,,,,,,,,,,,blue,I
90.0,6.0,2.0,1.0,3.0,3.0,314.7392550017684,2.0,1.0,part_1,,,,,,,,,,,,,orange,hexagon
198.0,3.0,3.0,0.0,4.0,4.0,328.3284389999608,2.0,1.0,part_1,,,,,,,,,,,,,blue,I
386.0,8.0,4.0,1.0,4.0,4.0,373.9534200012713,2.0,1.0,part_1,,,,,,,,,,,,,magenta,circle
84.0,6.0,2.0,1.0,3.0,3.0,291.4319369992881,2.0,1.0,part_1,,,,,,,,,,,,,orange,hexagon
101.0,6.0,2.0,1.0,3.0,3.0,344.7095779993105,2.0,1.0,part_1,,,,,,,,,,,,,orange,hexagon
419.0,8.0,4.0,1.0,1.0,1.0,278.0332849997649,2.0,1.0,part_1,,,,,,,,,,,,,magenta,circle
69.0,5.0,1.0,1.0,1.0,1.0,341.2259050001012,2.0,1.0,part_1,,,,,,,,,,,,,gray,square
0.0,4.0,0.0,0.0,3.0,3.0,412.2419340001215,2.0,1.0,part_1,,,,,,,,,,,,,white,cross
206.0,3.0,3.0,0.0,2.0,2.0,350.5125350002345,2.0,1.0,part_1,,,,,,,,,,,,,blue,I
47.0,5.0,1.0,1.0,1.0,1.0,355.9744220001448,2.0,1.0,part_1,,,,,,,,,,,,,gray,square
403.0,4.0,4.0,0.0,1.0,1.0,360.9524540006532,2.0,1.0,part_1,,,,,,,,,,,,,white,cross
32.0,1.0,1.0,0.0,3.0,3.0,480.1896879998821,2.0,1.0,part_1,,,,,,,,,,,,,green,diamond
65.0,1.0,1.0,0.0,1.0,1.0,323.1494360006763,2.0,1.0,part_1,,,,,,,,,,,,,green,diamond
49.0,5.0,1.0,1.0,3.0,3.0,332.717589000822,2.0,1.0,part_1,,,,,,,,,,,,,gray,square
0.0,1.0,0.0,0.0,1.0,1.0,281.192831998851,2.0,1.0,part_1,,,,,,,,,,,,,green,diamond
190.0,3.0,3.0,0.0,4.0,4.0,365.2196289986023,2.0,1.0,part_1,,,,,,,,,,,,,blue,I
385.0,8.0,4.0,1.0,4.0,4.0,329.0076009998302,2.0,1.0,part_1,,,,,,,,,,,,,magenta,circle
35.0,5.0,1.0,1.0,3.0,3.0,321.7115030001878,2.0,1.0,part_1,,,,,,,,,,,,,gray,square
208.0,3.0,3.0,0.0,2.0,2.0,419.2229560012492,2.0,1.0,part_1,,,,,,,,,,,,,blue,I
79.0,6.0,2.0,1.0,1.0,1.0,275.5247309996775,2.0,1.0,part_1,,,,,,,,,,,,,orange,hexagon
0.0,5.0,0.0,1.0,2.0,2.0,325.911857000392,2.0,1.0,part_1,,,,,,,,,,,,,gray,square
379.0,4.0,4.0,0.0,2.0,2.0,348.74371099977,2.0,1.0,part_1,,,,,,,,,,,,,white,cross
71.0,1.0,1.0,0.0,4.0,4.0,323.9264419989922,2.0,1.0,part_1,,,,,,,,,,,,,green,diamond
102.0,2.0,2.0,0.0,4.0,4.0,517.1203480003896,2.0,1.0,part_1,,,,,,,,,,,,,yellow,flipped triangle
43.0,1.0,1.0,0.0,1.0,1.0,306.87336800110637,2.0,1.0,part_1,,,,,,,,,,,,,green,diamond
183.0,7.0,3.0,1.0,2.0,2.0,388.3617899991805,2.0,1.0,part_1,,,,,,,,,,,,,cyan,triangle
78.0,2.0,2.0,0.0,2.0,2.0,389.2972590001591,2.0,1.0,part_1,,,,,,,,,,,,,yellow,flipped triangle
422.0,8.0,4.0,1.0,1.0,1.0,357.3420669999905,2.0,1.0,part_1,,,,,,,,,,,,,magenta,circle
0.0,3.0,0.0,0.0,3.0,3.0,340.5738279998331,2.0,1.0,part_1,,,,,,,,,,,,,blue,I
93.0,2.0,2.0,0.0,2.0,2.0,355.7319550000102,2.0,1.0,part_1,,,,,,,,,,,,,yellow,flipped triangle
67.0,5.0,1.0,1.0,1.0,1.0,291.2405770002806,2.0,1.0,part_1,,,,,,,,,,,,,gray,square
98.0,6.0,2.0,1.0,2.0,2.0,359.404008000638,2.0,1.0,part_1,,,,,,,,,,,,,orange,hexagon
78.0,6.0,2.0,1.0,4.0,4.0,357.1868950002681,2.0,1.0,part_1,,,,,,,,,,,,,orange,hexagon
186.0,3.0,3.0,0.0,3.0,3.0,342.6883949996409,2.0,1.0,part_1,,,,,,,,,,,,,blue,I
105.0,6.0,2.0,1.0,3.0,3.0,307.5168920004216,2.0,1.0,part_1,,,,,,,,,,,,,orange,hexagon
380.0,8.0,4.0,1.0,1.0,1.0,376.6304159998981,2.0,1.0,part_1,,,,,,,,,,,,,magenta,circle
104.0,2.0,2.0,0.0,4.0,4.0,398.7932939999155,2.0,1.0,part_1,,,,,,,,,,,,,yellow,flipped triangle
0.0,6.0,0.0,1.0,3.0,3.0,350.1643300005526,2.0,1.0,part_1,,,,,,,,,,,,,orange,hexagon
120.0,2.0,2.0,0.0,4.0,4.0,362.2311920007632,2.0,1.0,part_1,,,,,,,,,,,,,yellow,flipped triangle
0.0,8.0,0.0,1.0,4.0,4.0,338.929511999595,2.0,1.0,part_1,,,,,,,,,,,,,magenta,circle
68.0,5.0,1.0,1.0,2.0,2.0,414.1171150004084,2.0,1.0,part_1,,,,,,,,,,,,,gray,square
224.0,3.0,3.0,0.0,1.0,1.0,295.6488389991136,2.0,1.0,part_1,,,,,,,,,,,,,blue,I
217.0,3.0,3.0,0.0,4.0,4.0,324.3439849993592,2.0,1.0,part_1,,,,,,,,,,,,,blue,I
0.0,5.0,0.0,1.0,2.0,2.0,381.6294989992457,2.0,1.0,part_1,,,,,,,,,,,,,gray,square
394.0,4.0,4.0,0.0,2.0,2.0,389.6216760003881,2.0,1.0,part_1,,,,,,,,,,,,,white,cross
0.0,3.0,0.0,0.0,1.0,1.0,327.2470599986263,2.0,1.0,part_1,,,,,,,,,,,,,blue,I
0.0,6.0,0.0,1.0,2.0,2.0,336.8965520003257,2.0,1.0,part_1,,,,,,,,,,,,,orange,hexagon
200.0,7.0,3.0,1.0,3.0,3.0,262.2322360002727,2.0,1.0,part_1,,,,,,,,,,,,,cyan,triangle
213.0,3.0,3.0,0.0,2.0,2.0,302.9944709996925,2.0,1.0,part_1,,,,,,,,,,,,,blue,I
0.0,7.0,0.0,1.0,3.0,3.0,327.8155990010418,2.0,1.0,part_1,,,,,,,,,,,,,cyan,triangle
224.0,7.0,3.0,1.0,3.0,3.0,306.2226370002463,2.0,2.0,part_1,,,,,,,,,,,,,cyan,triangle
0.0,5.0,0.0,1.0,4.0,4.0,316.5492779990018,2.0,1.0,part_1,,,,,,,,,,,,,gray,square
117.0,6.0,2.0,1.0,3.0,3.0,307.0419780015072,2.0,1.0,part_1,,,,,,,,,,,,,orange,hexagon
93.0,6.0,2.0,1.0,3.0,3.0,304.1510450002533,2.0,1.0,part_1,,,,,,,,,,,,,orange,hexagon
50.0,5.0,1.0,1.0,2.0,2.0,336.4553280007385,2.0,1.0,part_1,,,,,,,,,,,,,gray,square
98.0,2.0,2.0,0.0,3.0,3.0,325.2856670005712,2.0,1.0,part_1,,,,,,,,,,,,,yellow,flipped triangle
73.0,1.0,1.0,0.0,3.0,3.0,345.7322870017378,2.0,1.0,part_1,,,,,,,,,,,,,green,diamond
198.0,7.0,3.0,1.0,1.0,1.0,425.5982949998724,2.0,1.0,part_1,,,,,,,,,,,,,cyan,triangle
41.0,1.0,1.0,0.0,4.0,4.0,419.7844680002163,2.0,1.0,part_1,,,,,,,,,,,,,green,diamond
118.0,2.0,2.0,0.0,4.0,4.0,379.5812719999958,2.0,1.0,part_1,,,,,,,,,,,,,yellow,flipped triangle
124.0,2.0,2.0,0.0,1.0,1.0,379.713812000773,2.0,1.0,part_1,,,,,,,,,,,,,yellow,flipped triangle
0.0,6.0,0.0,1.0,3.0,3.0,527.6157879998209,2.0,1.0,part_1,,,,,,,,,,,,,orange,hexagon
0.0,2.0,0.0,0.0,3.0,3.0,322.2326150007575,2.0,1.0,part_1,,,,,,,,,,,,,yellow,flipped triangle
27.0,1.0,1.0,0.0,3.0,3.0,261.255796000114,2.0,1.0,part_1,,,,,,,,,,,,,green,diamond
0.0,1.0,0.0,0.0,2.0,2.0,331.2361959997361,2.0,1.0,part_1,,,,,,,,,,,,,green,diamond
390.0,8.0,4.0,1.0,2.0,2.0,343.1353060004767,2.0,1.0,part_1,,,,,,,,,,,,,magenta,circle
89.0,2.0,2.0,0.0,1.0,1.0,313.8416709989542,2.0,2.0,part_1,,,,,,,,,,,,,yellow,flipped triangle
206.0,3.0,3.0,0.0,3.0,3.0,321.6947269993397,2.0,1.0,part_1,,,,,,,,,,,,,blue,I
187.0,3.0,3.0,0.0,1.0,1.0,343.9546539993898,2.0,1.0,part_1,,,,,,,,,,,,,blue,I
422.0,4.0,4.0,0.0,3.0,3.0,306.5500630000315,2.0,1.0,part_1,,,,,,,,,,,,,white,cross
386.0,4.0,4.0,0.0,4.0,4.0,369.8978869997518,2.0,1.0,part_1,,,,,,,,,,,,,white,cross
54.0,1.0,1.0,0.0,2.0,2.0,376.3746630011155,2.0,1.0,part_1,,,,,,,,,,,,,green,diamond
28.0,1.0,1.0,0.0,4.0,4.0,327.9398180002317,2.0,1.0,part_1,,,,,,,,,,,,,green,diamond
117.0,2.0,2.0,0.0,2.0,2.0,404.8581719998765,2.0,1.0,part_1,,,,,,,,,,,,,yellow,flipped triangle
29.0,1.0,1.0,0.0,1.0,1.0,336.6451760011841,2.0,1.0,part_1,,,,,,,,,,,,,green,diamond
218.0,7.0,3.0,1.0,1.0,1.0,342.4005550004949,2.0,1.0,part_1,,,,,,,,,,,,,cyan,triangle
0.0,4.0,0.0,0.0,2.0,2.0,289.4624930013378,2.0,1.0,part_1,,,,,,,,,,,,,white,cross
381.0,8.0,4.0,1.0,4.0,4.0,383.5577299996657,3.0,1.0,part_1,,,,,,,,,,,,,magenta,circle
395.0,4.0,4.0,0.0,1.0,1.0,369.4661869994888,3.0,1.0,part_1,,,,,,,,,,,,,white,cross
389.0,8.0,4.0,1.0,1.0,1.0,332.6187439997738,3.0,1.0,part_1,,,,,,,,,,,,,magenta,circle
49.0,1.0,1.0,0.0,2.0,2.0,346.2193960003787,3.0,1.0,part_1,,,,,,,,,,,,,green,diamond
0.0,8.0,0.0,1.0,3.0,3.0,317.0936210008221,3.0,1.0,part_1,,,,,,,,,,,,,magenta,circle
0.0,5.0,0.0,1.0,4.0,4.0,342.971475000013,3.0,1.0,part_1,,,,,,,,,,,,,gray,square
419.0,4.0,4.0,0.0,3.0,3.0,340.0203620003594,3.0,1.0,part_1,,,,,,,,,,,,,white,cross
0.0,5.0,0.0,1.0,2.0,2.0,408.130585001345,3.0,1.0,part_1,,,,,,,,,,,,,gray,square
414.0,4.0,4.0,0.0,4.0,4.0,315.6064840004546,3.0,1.0,part_1,,,,,,,,,,,,,white,cross
192.0,7.0,3.0,1.0,3.0,3.0,300.3606300007959,3.0,1.0,part_1,,,,,,,,,,,,,cyan,triangle
188.0,3.0,3.0,0.0,3.0,3.0,295.4480330008664,3.0,1.0,part_1,,,,,,,,,,,,,blue,I
49.0,5.0,1.0,1.0,1.0,1.0,423.2551179993606,3.0,1.0,part_1,,,,,,,,,,,,,gray,square
216.0,3.0,3.0,0.0,2.0,2.0,631.8791379999311,3.0,1.0,part_1,,,,,,,,,,,,,blue,I
191.0,7.0,3.0,1.0,2.0,2.0,339.1769360005128,3.0,1.0,part_1,,,,,,,,,,,,,cyan,triangle
376.0,8.0,4.0,1.0,4.0,4.0,299.5038399985787,3.0,1.0,part_1,,,,,,,,,,,,,magenta,circle
0.0,1.0,0.0,0.0,4.0,4.0,298.7488449998636,3.0,1.0,part_1,,,,,,,,,,,,,green,diamond
79.0,2.0,2.0,0.0,1.0,1.0,443.7266580007417,3.0,1.0,part_1,,,,,,,,,,,,,yellow,flipped triangle
91.0,2.0,2.0,0.0,2.0,2.0,332.4316919988632,3.0,1.0,part_1,,,,,,,,,,,,,yellow,flipped triangle
106.0,6.0,2.0,1.0,2.0,2.0,250.2713329995458,3.0,1.0,part_1,,,,,,,,,,,,,orange,hexagon
395.0,8.0,4.0,1.0,3.0,3.0,383.7695360016369,3.0,1.0,part_1,,,,,,,,,,,,,magenta,circle
415.0,8.0,4.0,1.0,2.0,2.0,344.7134720008762,3.0,1.0,part_1,,,,,,,,,,,,,magenta,circle
63.0,5.0,1.0,1.0,2.0,2.0,428.6429889998544,3.0,1.0,part_1,,,,,,,,,,,,,gray,square
418.0,4.0,4.0,0.0,1.0,1.0,441.9701189999614,3.0,1.0,part_1,,,,,,,,,,,,,white,cross
0.0,7.0,0.0,1.0,1.0,1.0,325.9507980001217,3.0,1.0,part_1,,,,,,,,,,,,,cyan,triangle
0.0,2.0,0.0,0.0,4.0,4.0,371.4200720005465,3.0,1.0,part_1,,,,,,,,,,,,,yellow,flipped triangle
0.0,2.0,0.0,0.0,2.0,2.0,293.6960490005731,3.0,1.0,part_1,,,,,,,,,,,,,yellow,flipped triangle
118.0,6.0,2.0,1.0,1.0,1.0,349.3951050004398,3.0,1.0,part_1,,,,,,,,,,,,,orange,hexagon
407.0,4.0,4.0,0.0,2.0,2.0,315.8212219987035,3.0,1.0,part_1,,,,,,,,,,,,,white,cross
63.0,1.0,1.0,0.0,3.0,3.0,406.2080059993604,3.0,1.0,part_1,,,,,,,,,,,,,green,diamond
101.0,2.0,2.0,0.0,4.0,4.0,483.9742180010944,3.0,1.0,part_1,,,,,,,,,,,,,yellow,flipped triangle
100.0,2.0,2.0,0.0,3.0,3.0,357.0759690010163,3.0,1.0,part_1,,,,,,,,,,,,,yellow,flipped triangle
0.0,8.0,0.0,1.0,3.0,3.0,354.8245780002617,3.0,1.0,part_1,,,,,,,,,,,,,magenta,circle
92.0,2.0,2.0,0.0,4.0,4.0,333.8765289990988,3.0,1.0,part_1,,,,,,,,,,,,,yellow,flipped triangle
0.0,8.0,0.0,1.0,3.0,3.0,282.0458299993333,3.0,1.0,part_1,,,,,,,,,,,,,magenta,circle
218.0,7.0,3.0,1.0,4.0,4.0,381.5304519994242,3.0,1.0,part_1,,,,,,,,,,,,,cyan,triangle
41.0,5.0,1.0,1.0,2.0,2.0,282.8567809992819,3.0,1.0,part_1,,,,,,,,,,,,,gray,square
67.0,1.0,1.0,0.0,4.0,4.0,316.012622000926,3.0,1.0,part_1,,,,,,,,,,,,,green,diamond
397.0,8.0,4.0,1.0,3.0,3.0,305.7103179999103,3.0,1.0,part_1,,,,,,,,,,,,,magenta,circle
0.0,6.0,0.0,1.0,3.0,3.0,437.0202939990122,3.0,1.0,part_1,,,,,,,,,,,,,orange,hexagon
29.0,5.0,1.0,1.0,4.0,4.0,322.5317899996298,3.0,1.0,part_1,,,,,,,,,,,,,gray,square
207.0,7.0,3.0,1.0,3.0,3.0,304.8716009998315,3.0,1.0,part_1,,,,,,,,,,,,,cyan,triangle
0.0,2.0,0.0,0.0,1.0,1.0,318.2146920007653,3.0,1.0,part_1,,,,,,,,,,,,,yellow,flipped triangle
78.0,6.0,2.0,1.0,4.0,4.0,362.2280500003398,3.0,1.0,part_1,,,,,,,,,,,,,orange,hexagon
0.0,3.0,0.0,0.0,1.0,1.0,293.1389269997453,3.0,1.0,part_1,,,,,,,,,,,,,blue,I
0.0,4.0,0.0,0.0,3.0,3.0,323.7941509996744,3.0,1.0,part_1,,,,,,,,,,,,,white,cross
195.0,3.0,3.0,0.0,4.0,4.0,423.9876109986653,3.0,1.0,part_1,,,,,,,,,,,,,blue,I
187.0,7.0,3.0,1.0,1.0,1.0,335.0334269998711,3.0,1.0,part_1,,,,,,,,,,,,,cyan,triangle
67.0,5.0,1.0,1.0,1.0,1.0,383.21951800026,3.0,1.0,part_1,,,,,,,,,,,,,gray,square
0.0,6.0,0.0,1.0,4.0,4.0,395.4053219986235,3.0,1.0,part_1,,,,,,,,,,,,,orange,hexagon
124.0,6.0,2.0,1.0,2.0,2.0,289.8318959996686,3.0,1.0,part_1,,,,,,,,,,,,,orange,hexagon
71.0,5.0,1.0,1.0,3.0,3.0,419.54975099906727,3.0,1.0,part_1,,,,,,,,,,,,,gray,square
98.0,2.0,2.0,0.0,2.0,2.0,333.8914800006023,3.0,1.0,part_1,,,,,,,,,,,,,yellow,flipped triangle
408.0,8.0,4.0,1.0,3.0,3.0,325.9092530006455,3.0,1.0,part_1,,,,,,,,,,,,,magenta,circle
84.0,2.0,2.0,0.0,3.0,3.0,341.4228330002515,3.0,1.0,part_1,,,,,,,,,,,,,yellow,flipped triangle
59.0,1.0,1.0,0.0,3.0,3.0,598.4148379993712,3.0,1.0,part_1,,,,,,,,,,,,,green,diamond
211.0,3.0,3.0,0.0,3.0,3.0,295.0999349995982,3.0,1.0,part_1,,,,,,,,,,,,,blue,I
415.0,4.0,4.0,0.0,4.0,4.0,540.3025979994709,3.0,1.0,part_1,,,,,,,,,,,,,white,cross
0.0,4.0,0.0,0.0,1.0,1.0,384.2525559994101,3.0,1.0,part_1,,,,,,,,,,,,,white,cross
197.0,3.0,3.0,0.0,2.0,2.0,291.3448449999123,3.0,1.0,part_1,,,,,,,,,,,,,blue,I
0.0,6.0,0.0,1.0,2.0,2.0,392.8377390002424,3.0,1.0,part_1,,,,,,,,,,,,,orange,hexagon
68.0,1.0,1.0,0.0,2.0,2.0,305.685273000563,3.0,1.0,part_1,,,,,,,,,,,,,green,diamond
412.0,4.0,4.0,0.0,3.0,3.0,316.2095490006322,3.0,1.0,part_1,,,,,,,,,,,,,white,cross
196.0,3.0,3.0,0.0,4.0,4.0,391.8419479996373,3.0,2.0,part_1,,,,,,,,,,,,,blue,I
56.0,1.0,1.0,0.0,4.0,4.0,332.1910280010343,3.0,1.0,part_1,,,,,,,,,,,,,green,diamond
187.0,7.0,3.0,1.0,1.0,1.0,357.5412009995489,3.0,1.0,part_1,,,,,,,,,,,,,cyan,triangle
65.0,5.0,1.0,1.0,2.0,2.0,445.6158350003534,3.0,1.0,part_1,,,,,,,,,,,,,gray,square
0.0,8.0,0.0,1.0,1.0,1.0,398.7151539986371,3.0,1.0,part_1,,,,,,,,,,,,,magenta,circle
424.0,8.0,4.0,1.0,2.0,2.0,400.27056399958377,3.0,1.0,part_1,,,,,,,,,,,,,magenta,circle
181.0,3.0,3.0,0.0,1.0,1.0,431.8028820016479,3.0,1.0,part_1,,,,,,,,,,,,,blue,I
0.0,3.0,0.0,0.0,2.0,2.0,326.0379319999629,3.0,1.0,part_1,,,,,,,,,,,,,blue,I
98.0,6.0,2.0,1.0,3.0,3.0,368.6990220012376,3.0,1.0,part_1,,,,,,,,,,,,,orange,hexagon
60.0,5.0,1.0,1.0,4.0,4.0,367.6365200008149,3.0,1.0,part_1,,,,,,,,,,,,,gray,square
107.0,6.0,2.0,1.0,3.0,3.0,315.4352710007515,3.0,1.0,part_1,,,,,,,,,,,,,orange,hexagon
206.0,7.0,3.0,1.0,2.0,2.0,425.9369920000608,3.0,1.0,part_1,,,,,,,,,,,,,cyan,triangle
197.0,7.0,3.0,1.0,4.0,4.0,440.3956820005987,3.0,1.0,part_1,,,,,,,,,,,,,cyan,triangle
415.0,8.0,4.0,1.0,3.0,3.0,486.6933829998743,3.0,1.0,part_1,,,,,,,,,,,,,magenta,circle
403.0,8.0,4.0,1.0,2.0,2.0,779.2907129987725,3.0,1.0,part_1,,,,,,,,,,,,,magenta,circle
115.0,6.0,2.0,1.0,3.0,3.0,322.7724469998065,3.0,1.0,part_1,,,,,,,,,,,,,orange,hexagon
0.0,7.0,0.0,1.0,4.0,4.0,334.9969039991265,3.0,1.0,part_1,,,,,,,,,,,,,cyan,triangle
36.0,1.0,1.0,0.0,1.0,1.0,382.6549629993678,3.0,1.0,part_1,,,,,,,,,,,,,green,diamond
89.0,6.0,2.0,1.0,1.0,1.0,305.3357640001195,3.0,1.0,part_1,,,,,,,,,,,,,orange,hexagon
224.0,7.0,3.0,1.0,2.0,2.0,295.1484379991598,3.0,1.0,part_1,,,,,,,,,,,,,cyan,triangle
0.0,7.0,0.0,1.0,4.0,4.0,350.3204549997463,3.0,1.0,part_1,,,,,,,,,,,,,cyan,triangle
0.0,3.0,0.0,0.0,2.0,2.0,305.2610340000683,3.0,1.0,part_1,,,,,,,,,,,,,blue,I
218.0,3.0,3.0,0.0,4.0,4.0,367.2047589989233,3.0,1.0,part_1,,,,,,,,,,,,,blue,I
0.0,1.0,0.0,0.0,1.0,1.0,299.1748040003585,3.0,1.0,part_1,,,,,,,,,,,,,green,diamond
36.0,1.0,1.0,0.0,1.0,1.0,297.3828260001028,3.0,1.0,part_1,,,,,,,,,,,,,green,diamond
178.0,7.0,3.0,1.0,1.0,1.0,319.5948510001472,3.0,1.0,part_1,,,,,,,,,,,,,cyan,triangle
199.0,7.0,3.0,1.0,4.0,4.0,500.35307300095155,3.0,1.0,part_1,,,,,,,,,,,,,cyan,triangle
203.0,3.0,3.0,0.0,1.0,1.0,442.1374479989026,3.0,1.0,part_1,,,,,,,,,,,,,blue,I
57.0,1.0,1.0,0.0,1.0,1.0,326.2089070012735,3.0,1.0,part_1,,,,,,,,,,,,,green,diamond
64.0,5.0,1.0,1.0,1.0,1.0,297.5298590008606,3.0,1.0,part_1,,,,,,,,,,,,,gray,square
418.0,8.0,4.0,1.0,4.0,4.0,612.192809001499,3.0,1.0,part_1,,,,,,,,,,,,,magenta,circle
84.0,6.0,2.0,1.0,2.0,2.0,316.6552999991836,3.0,1.0,part_1,,,,,,,,,,,,,orange,hexagon
213.0,7.0,3.0,1.0,1.0,1.0,429.1489140014164,3.0,1.0,part_1,,,,,,,,,,,,,cyan,triangle
0.0,2.0,0.0,0.0,1.0,1.0,317.6488489989424,3.0,1.0,part_1,,,,,,,,,,,,,yellow,flipped triangle
82.0,6.0,2.0,1.0,2.0,2.0,292.4346899999364,3.0,1.0,part_1,,,,,,,,,,,,,orange,hexagon
67.0,5.0,1.0,1.0,2.0,2.0,319.8217259996454,3.0,1.0,part_1,,,,,,,,,,,,,gray,square
190.0,7.0,3.0,1.0,3.0,3.0,284.2818219996843,3.0,1.0,part_1,,,,,,,,,,,,,cyan,triangle
0.0,2.0,0.0,0.0,4.0,4.0,350.7123109993699,3.0,1.0,part_1,,,,,,,,,,,,,yellow,flipped triangle
210.0,7.0,3.0,1.0,1.0,1.0,361.9321349997335,4.0,1.0,part_1,,,,,,,,,,,,,cyan,triangle
0.0,2.0,0.0,0.0,4.0,4.0,331.046105000496,4.0,1.0,part_1,,,,,,,,,,,,,yellow,flipped triangle
195.0,7.0,3.0,1.0,3.0,3.0,307.7200780007842,4.0,1.0,part_1,,,,,,,,,,,,,cyan,triangle
100.0,6.0,2.0,1.0,1.0,1.0,277.255322000201,4.0,1.0,part_1,,,,,,,,,,,,,orange,hexagon
390.0,8.0,4.0,1.0,1.0,1.0,314.6891679989494,4.0,1.0,part_1,,,,,,,,,,,,,magenta,circle
52.0,5.0,1.0,1.0,4.0,4.0,335.1328690005175,4.0,2.0,part_1,,,,,,,,,,,,,gray,square
194.0,7.0,3.0,1.0,3.0,3.0,327.33840799846797,4.0,1.0,part_1,,,,,,,,,,,,,cyan,triangle
0.0,4.0,0.0,0.0,3.0,3.0,357.5249910009006,4.0,1.0,part_1,,,,,,,,,,,,,white,cross
0.0,4.0,0.0,0.0,3.0,3.0,346.3780779984517,4.0,1.0,part_1,,,,,,,,,,,,,white,cross
415.0,4.0,4.0,0.0,4.0,4.0,365.7087909996335,4.0,1.0,part_1,,,,,,,,,,,,,white,cross
0.0,1.0,0.0,0.0,2.0,2.0,333.4568800000852,4.0,1.0,part_1,,,,,,,,,,,,,green,diamond
179.0,7.0,3.0,1.0,2.0,2.0,468.3088930014492,4.0,1.0,part_1,,,,,,,,,,,,,cyan,triangle
47.0,1.0,1.0,0.0,4.0,4.0,713.4481869998126,4.0,1.0,part_1,,,,,,,,,,,,,green,diamond
105.0,2.0,2.0,0.0,3.0,3.0,364.5675400002801,4.0,1.0,part_1,,,,,,,,,,,,,yellow,flipped triangle
397.0,8.0,4.0,1.0,1.0,1.0,375.0709109990566,4.0,1.0,part_1,,,,,,,,,,,,,magenta,circle
81.0,2.0,2.0,0.0,1.0,1.0,341.2415700004203,4.0,1.0,part_1,,,,,,,,,,,,,yellow,flipped triangle
32.0,5.0,1.0,1.0,3.0,3.0,290.105209000103,4.0,1.0,part_1,,,,,,,,,,,,,gray,square
187.0,3.0,3.0,0.0,3.0,3.0,466.1506150005152,4.0,1.0,part_1,,,,,,,,,,,,,blue,I
108.0,2.0,2.0,0.0,1.0,1.0,347.2343659996113,4.0,1.0,part_1,,,,,,,,,,,,,yellow,flipped triangle
59.0,1.0,1.0,0.0,4.0,4.0,370.152646999486,4.0,1.0,part_1,,,,,,,,,,,,,green,diamond
0.0,7.0,0.0,1.0,4.0,4.0,365.465625998695,4.0,1.0,part_1,,,,,,,,,,,,,cyan,triangle
30.0,5.0,1.0,1.0,1.0,1.0,374.765386000945,4.0,1.0,part_1,,,,,,,,,,,,,gray,square
112.0,2.0,2.0,0.0,1.0,1.0,264.1738299989811,4.0,1.0,part_1,,,,,,,,,,,,,yellow,flipped triangle
0.0,6.0,0.0,1.0,3.0,3.0,347.0882030014763,4.0,1.0,part_1,,,,,,,,,,,,,orange,hexagon
206.0,7.0,3.0,1.0,2.0,2.0,331.4768720010761,4.0,1.0,part_1,,,,,,,,,,,,,cyan,triangle
0.0,3.0,0.0,0.0,3.0,3.0,338.5919489992375,4.0,1.0,part_1,,,,,,,,,,,,,blue,I
52.0,1.0,1.0,0.0,2.0,2.0,403.8408220003475,4.0,1.0,part_1,,,,,,,,,,,,,green,diamond
0.0,5.0,0.0,1.0,1.0,1.0,391.8608789990685,4.0,1.0,part_1,,,,,,,,,,,,,gray,square
376.0,8.0,4.0,1.0,1.0,1.0,343.6108770001738,4.0,1.0,part_1,,,,,,,,,,,,,magenta,circle
65.0,1.0,1.0,0.0,3.0,3.0,342.3314400006347,4.0,1.0,part_1,,,,,,,,,,,,,green,diamond
105.0,6.0,2.0,1.0,4.0,4.0,341.3289079999231,4.0,1.0,part_1,,,,,,,,,,,,,orange,hexagon
63.0,1.0,1.0,0.0,2.0,2.0,349.878354001703,4.0,1.0,part_1,,,,,,,,,,,,,green,diamond
67.0,1.0,1.0,0.0,2.0,2.0,278.4559900010208,4.0,1.0,part_1,,,,,,,,,,,,,green,diamond
218.0,3.0,3.0,0.0,4.0,4.0,339.15187800084817,4.0,1.0,part_1,,,,,,,,,,,,,blue,I
204.0,3.0,3.0,0.0,1.0,1.0,321.6102859987586,4.0,1.0,part_1,,,,,,,,,,,,,blue,I
186.0,7.0,3.0,1.0,4.0,4.0,343.7113850013702,4.0,1.0,part_1,,,,,,,,,,,,,cyan,triangle
0.0,3.0,0.0,0.0,4.0,4.0,380.9257430002617,4.0,1.0,part_1,,,,,,,,,,,,,blue,I
0.0,8.0,0.0,1.0,4.0,4.0,282.3585419992014,4.0,1.0,part_1,,,,,,,,,,,,,magenta,circle
402.0,4.0,4.0,0.0,1.0,1.0,310.1490509998257,4.0,1.0,part_1,,,,,,,,,,,,,white,cross
414.0,4.0,4.0,0.0,3.0,3.0,329.7448550001718,4.0,1.0,part_1,,,,,,,,,,,,,white,cross
89.0,6.0,2.0,1.0,2.0,2.0,481.0133749997476,4.0,1.0,part_1,,,,,,,,,,,,,orange,hexagon
216.0,7.0,3.0,1.0,3.0,3.0,293.9517749982769,4.0,1.0,part_1,,,,,,,,,,,,,cyan,triangle
31.0,5.0,1.0,1.0,3.0,3.0,312.10056800046,4.0,1.0,part_1,,,,,,,,,,,,,gray,square
88.0,2.0,2.0,0.0,3.0,3.0,331.1047439983667,4.0,1.0,part_1,,,,,,,,,,,,,yellow,flipped triangle
395.0,4.0,4.0,0.0,2.0,2.0,346.8961929993384,4.0,1.0,part_1,,,,,,,,,,,,,white,cross
49.0,1.0,1.0,0.0,1.0,1.0,319.6331090002786,4.0,1.0,part_1,,,,,,,,,,,,,green,diamond
411.0,8.0,4.0,1.0,2.0,2.0,341.6598059993703,4.0,1.0,part_1,,,,,,,,,,,,,magenta,circle
82.0,2.0,2.0,0.0,1.0,1.0,374.373172999185,4.0,1.0,part_1,,,,,,,,,,,,,yellow,flipped triangle
63.0,5.0,1.0,1.0,4.0,4.0,363.9372420002473,4.0,1.0,part_1,,,,,,,,,,,,,gray,square
0.0,1.0,0.0,0.0,4.0,4.0,344.1901930000313,4.0,1.0,part_1,,,,,,,,,,,,,green,diamond
107.0,2.0,2.0,0.0,1.0,1.0,317.78891400063,4.0,1.0,part_1,,,,,,,,,,,,,yellow,flipped triangle
406.0,4.0,4.0,0.0,1.0,1.0,302.3202490003314,4.0,1.0,part_1,,,,,,,,,,,,,white,cross
125.0,6.0,2.0,1.0,1.0,1.0,337.3874030003208,4.0,1.0,part_1,,,,,,,,,,,,,orange,hexagon
81.0,6.0,2.0,1.0,4.0,4.0,362.7198459998908,4.0,1.0,part_1,,,,,,,,,,,,,orange,hexagon
196.0,7.0,3.0,1.0,4.0,4.0,516.4803560001019,4.0,1.0,part_1,,,,,,,,,,,,,cyan,triangle
0.0,2.0,0.0,0.0,2.0,2.0,264.9019410000619,4.0,1.0,part_1,,,,,,,,,,,,,yellow,flipped triangle
208.0,7.0,3.0,1.0,2.0,2.0,372.2384649990999,4.0,1.0,part_1,,,,,,,,,,,,,cyan,triangle
0.0,6.0,0.0,1.0,3.0,3.0,279.4599659991945,4.0,1.0,part_1,,,,,,,,,,,,,orange,hexagon
32.0,1.0,1.0,0.0,2.0,2.0,275.0287620001472,4.0,1.0,part_1,,,,,,,,,,,,,green,diamond
206.0,7.0,3.0,1.0,1.0,1.0,361.2132149992249,4.0,1.0,part_1,,,,,,,,,,,,,cyan,triangle
0.0,4.0,0.0,0.0,3.0,3.0,263.1061870015401,4.0,1.0,part_1,,,,,,,,,,,,,white,cross
36.0,5.0,1.0,1.0,4.0,4.0,374.959372999001,4.0,1.0,part_1,,,,,,,,,,,,,gray,square
378.0,4.0,4.0,0.0,2.0,2.0,295.3964970001834,4.0,1.0,part_1,,,,,,,,,,,,,white,cross
203.0,3.0,3.0,0.0,2.0,2.0,345.0011309996625,4.0,1.0,part_1,,,,,,,,,,,,,blue,I
0.0,8.0,0.0,1.0,2.0,2.0,776.4141019997624,4.0,1.0,part_1,,,,,,,,,,,,,magenta,circle
82.0,2.0,2.0,0.0,3.0,3.0,380.3877040008956,4.0,1.0,part_1,,,,,,,,,,,,,yellow,flipped triangle
408.0,4.0,4.0,0.0,4.0,4.0,334.2340220006008,4.0,1.0,part_1,,,,,,,,,,,,,white,cross
106.0,2.0,2.0,0.0,1.0,1.0,399.5622799993725,4.0,1.0,part_1,,,,,,,,,,,,,yellow,flipped triangle
31.0,1.0,1.0,0.0,3.0,3.0,440.2681650008162,4.0,1.0,part_1,,,,,,,,,,,,,green,diamond
397.0,4.0,4.0,0.0,3.0,3.0,348.5385829990264,4.0,1.0,part_1,,,,,,,,,,,,,white,cross
200.0,3.0,3.0,0.0,1.0,1.0,569.1678300008789,4.0,1.0,part_1,,,,,,,,,,,,,blue,I
408.0,4.0,4.0,0.0,4.0,4.0,307.3613899996417,4.0,1.0,part_1,,,,,,,,,,,,,white,cross
0.0,6.0,0.0,1.0,4.0,4.0,313.6682959993777,4.0,1.0,part_1,,,,,,,,,,,,,orange,hexagon
78.0,2.0,2.0,0.0,4.0,4.0,297.714727001221,4.0,1.0,part_1,,,,,,,,,,,,,yellow,flipped triangle
190.0,7.0,3.0,1.0,2.0,2.0,687.3052499995538,4.0,1.0,part_1,,,,,,,,,,,,,cyan,triangle
120.0,6.0,2.0,1.0,2.0,2.0,446.4489490001142,4.0,1.0,part_1,,,,,,,,,,,,,orange,hexagon
56.0,5.0,1.0,1.0,3.0,3.0,536.1949919988547,4.0,1.0,part_1,,,,,,,,,,,,,gray,square
179.0,3.0,3.0,0.0,4.0,4.0,359.8703280003974,4.0,2.0,part_1,,,,,,,,,,,,,blue,I
0.0,2.0,0.0,0.0,3.0,3.0,391.1565100006555,4.0,1.0,part_1,,,,,,,,,,,,,yellow,flipped triangle
27.0,5.0,1.0,1.0,4.0,4.0,340.3259419992537,4.0,1.0,part_1,,,,,,,,,,,,,gray,square
192.0,3.0,3.0,0.0,1.0,1.0,336.3461359986104,4.0,1.0,part_1,,,,,,,,,,,,,blue,I
36.0,5.0,1.0,1.0,1.0,1.0,341.2853840000025,4.0,1.0,part_1,,,,,,,,,,,,,gray,square
103.0,6.0,2.0,1.0,4.0,4.0,331.6050849989551,4.0,2.0,part_1,,,,,,,,,,,,,orange,hexagon
71.0,5.0,1.0,1.0,4.0,4.0,368.5141679998196,4.0,1.0,part_1,,,,,,,,,,,,,gray,square
381.0,4.0,4.0,0.0,1.0,1.0,422.2392840001703,4.0,1.0,part_1,,,,,,,,,,,,,white,cross
0.0,7.0,0.0,1.0,4.0,4.0,369.4724940014566,4.0,1.0,part_1,,,,,,,,,,,,,cyan,triangle
31.0,1.0,1.0,0.0,4.0,4.0,319.6323590000247,4.0,1.0,part_1,,,,,,,,,,,,,green,diamond
27.0,5.0,1.0,1.0,2.0,2.0,288.0311890003213,4.0,1.0,part_1,,,,,,,,,,,,,gray,square
0.0,8.0,0.0,1.0,2.0,2.0,300.7023999998637,4.0,1.0,part_1,,,,,,,,,,,,,magenta,circle
28.0,5.0,1.0,1.0,1.0,1.0,381.9016439992992,4.0,1.0,part_1,,,,,,,,,,,,,gray,square
188.0,7.0,3.0,1.0,2.0,2.0,331.4133749991015,4.0,1.0,part_1,,,,,,,,,,,,,cyan,triangle
0.0,7.0,0.0,1.0,1.0,1.0,344.0088340012153,4.0,1.0,part_1,,,,,,,,,,,,,cyan,triangle
183.0,3.0,3.0,0.0,3.0,3.0,273.0688410010771,4.0,1.0,part_1,,,,,,,,,,,,,blue,I
90.0,2.0,2.0,0.0,3.0,3.0,265.3187790001539,4.0,2.0,part_1,,,,,,,,,,,,,yellow,flipped triangle
0.0,7.0,0.0,1.0,1.0,1.0,330.908506999549,4.0,1.0,part_1,,,,,,,,,,,,,cyan,triangle
402.0,8.0,4.0,1.0,2.0,2.0,293.8345509992359,4.0,1.0,part_1,,,,,,,,,,,,,magenta,circle
104.0,6.0,2.0,1.0,4.0,4.0,357.2966150004504,4.0,1.0,part_1,,,,,,,,,,,,,orange,hexagon
385.0,4.0,4.0,0.0,4.0,4.0,339.7841120004159,4.0,1.0,part_1,,,,,,,,,,,,,white,cross
0.0,3.0,0.0,0.0,2.0,2.0,328.5766310000326,4.0,1.0,part_1,,,,,,,,,,,,,blue,I
0.0,3.0,0.0,0.0,1.0,1.0,292.4394349993235,4.0,1.0,part_1,,,,,,,,,,,,,blue,I
0.0,7.0,3.0,1.0,6.0,6.0,363.5804360001202,1.0,0.0,part_2,go,250.0,250.0,1.0,,,,,,,,,cyan,triangle
0.0,2.0,2.0,0.0,6.0,6.0,294.8775660006504,1.0,0.0,part_2,go,250.0,250.0,1.0,,,,,,,,,yellow,flipped triangle
0.0,1.0,1.0,0.0,5.0,5.0,295.1462149994768,1.0,0.0,part_2,go,250.0,250.0,1.0,,,,,,,,,green,diamond
0.0,6.0,2.0,1.0,5.0,0.0,0.0,1.0,0.0,part_2,stop,250.0,250.0,4.0,,,,,,,,,orange,hexagon
0.0,2.0,2.0,0.0,6.0,6.0,273.3808470002259,1.0,0.0,part_2,go,300.0,250.0,1.0,,,,,,,,,yellow,flipped triangle
0.0,8.0,4.0,1.0,6.0,6.0,317.2986680001486,1.0,0.0,part_2,stop,300.0,250.0,3.0,,,,,,,,,magenta,circle
0.0,8.0,4.0,1.0,5.0,5.0,233.5367519990541,1.0,0.0,part_2,stop,300.0,200.0,3.0,,,,,,,,,magenta,circle
0.0,1.0,1.0,0.0,6.0,6.0,247.3271020007814,1.0,0.0,part_2,go,250.0,200.0,1.0,,,,,,,,,green,diamond
0.0,4.0,4.0,0.0,6.0,6.0,288.3138319994032,1.0,0.0,part_2,go,250.0,200.0,1.0,,,,,,,,,white,cross
0.0,1.0,1.0,0.0,5.0,5.0,251.08103500133439,1.0,0.0,part_2,go,250.0,200.0,1.0,,,,,,,,,green,diamond
0.0,5.0,1.0,1.0,5.0,5.0,407.4905529996613,1.0,0.0,part_2,go,250.0,200.0,1.0,,,,,,,,,gray,square
0.0,8.0,4.0,1.0,6.0,6.0,260.4763879990059,1.0,0.0,part_2,go,250.0,200.0,1.0,,,,,,,,,magenta,circle
0.0,2.0,2.0,0.0,5.0,5.0,267.8121240005566,1.0,0.0,part_2,go,250.0,200.0,1.0,,,,,,,,,yellow,flipped triangle
0.0,5.0,1.0,1.0,5.0,5.0,316.2470370007213,1.0,0.0,part_2,stop,250.0,200.0,3.0,,,,,,,,,gray,square
0.0,1.0,1.0,0.0,6.0,6.0,243.157319000602,1.0,0.0,part_2,go,200.0,200.0,1.0,,,,,,,,,green,diamond
0.0,8.0,4.0,1.0,6.0,6.0,383.3013910007139,1.0,0.0,part_2,go,200.0,200.0,1.0,,,,,,,,,magenta,circle
0.0,6.0,2.0,1.0,6.0,6.0,276.7744419998053,1.0,0.0,part_2,go,200.0,200.0,1.0,,,,,,,,,orange,hexagon
0.0,1.0,1.0,0.0,5.0,5.0,266.522468000403,1.0,0.0,part_2,go,200.0,200.0,1.0,,,,,,,,,green,diamond
0.0,7.0,3.0,1.0,5.0,5.0,311.970721999387,1.0,0.0,part_2,stop,200.0,200.0,3.0,,,,,,,,,cyan,triangle
0.0,6.0,2.0,1.0,6.0,6.0,308.9549720007198,1.0,0.0,part_2,stop,150.0,200.0,3.0,,,,,,,,,orange,hexagon
0.0,4.0,4.0,0.0,6.0,6.0,324.9052169994684,1.0,0.0,part_2,go,150.0,150.0,1.0,,,,,,,,,white,cross
0.0,5.0,1.0,1.0,6.0,0.0,0.0,1.0,0.0,part_2,stop,150.0,150.0,4.0,,,,,,,,,gray,square
0.0,2.0,2.0,0.0,5.0,5.0,291.393090999918,1.0,0.0,part_2,go,150.0,200.0,1.0,,,,,,,,,yellow,flipped triangle
0.0,4.0,4.0,0.0,5.0,5.0,612.0278660000622,1.0,0.0,part_2,go,150.0,200.0,1.0,,,,,,,,,white,cross
0.0,2.0,2.0,0.0,5.0,5.0,320.3123240000423,1.0,0.0,part_2,go,150.0,200.0,1.0,,,,,,,,,yellow,flipped triangle
0.0,6.0,2.0,1.0,6.0,6.0,358.6298070003977,1.0,0.0,part_2,stop,150.0,200.0,3.0,,,,,,,,,orange,hexagon
0.0,1.0,1.0,0.0,5.0,5.0,325.3527060005581,1.0,0.0,part_2,go,150.0,150.0,1.0,,,,,,,,,green,diamond
0.0,4.0,4.0,0.0,5.0,5.0,377.2344709996105,1.0,0.0,part_2,go,150.0,150.0,1.0,,,,,,,,,white,cross
0.0,8.0,4.0,1.0,6.0,0.0,0.0,1.0,0.0,part_2,stop,150.0,150.0,4.0,,,,,,,,,magenta,circle
0.0,6.0,2.0,1.0,6.0,6.0,374.6148480004194,1.0,0.0,part_2,go,150.0,200.0,1.0,,,,,,,,,orange,hexagon
0.0,4.0,4.0,0.0,5.0,5.0,585.0010340000154,1.0,0.0,part_2,go,150.0,200.0,1.0,,,,,,,,,white,cross
0.0,6.0,2.0,1.0,5.0,5.0,369.667898001353,1.0,0.0,part_2,go,150.0,200.0,1.0,,,,,,,,,orange,hexagon
0.0,8.0,4.0,1.0,6.0,6.0,308.9701549997699,1.0,0.0,part_2,stop,150.0,200.0,3.0,,,,,,,,,magenta,circle
0.0,4.0,4.0,0.0,5.0,5.0,385.6718450006156,1.0,0.0,part_2,go,150.0,150.0,1.0,,,,,,,,,white,cross
0.0,3.0,3.0,0.0,6.0,6.0,435.3783980004664,1.0,0.0,part_2,go,150.0,150.0,1.0,,,,,,,,,blue,I
0.0,1.0,1.0,0.0,5.0,5.0,349.5424329994421,1.0,0.0,part_2,go,150.0,150.0,1.0,,,,,,,,,green,diamond
0.0,5.0,1.0,1.0,6.0,0.0,0.0,2.0,0.0,part_2,stop,150.0,150.0,4.0,,,,,,,,,gray,square
0.0,7.0,3.0,1.0,6.0,6.0,657.5765849993331,2.0,0.0,part_2,go,150.0,200.0,1.0,,,,,,,,,cyan,triangle
0.0,4.0,4.0,0.0,5.0,5.0,529.2052740005602,2.0,0.0,part_2,go,150.0,200.0,1.0,,,,,,,,,white,cross
0.0,6.0,2.0,1.0,5.0,0.0,0.0,2.0,0.0,part_2,stop,150.0,200.0,4.0,,,,,,,,,orange,hexagon
0.0,2.0,2.0,0.0,6.0,6.0,343.1465209996531,2.0,0.0,part_2,go,200.0,200.0,1.0,,,,,,,,,yellow,flipped triangle
0.0,8.0,4.0,1.0,5.0,0.0,0.0,2.0,0.0,part_2,stop,200.0,200.0,4.0,,,,,,,,,magenta,circle
0.0,5.0,1.0,1.0,6.0,6.0,358.5191389993269,2.0,0.0,part_2,stop,250.0,200.0,3.0,,,,,,,,,gray,square
0.0,7.0,3.0,1.0,5.0,0.0,0.0,2.0,0.0,part_2,stop,250.0,150.0,4.0,,,,,,,,,cyan,triangle
0.0,1.0,1.0,0.0,5.0,5.0,525.5727220010158,2.0,0.0,part_2,go,300.0,150.0,1.0,,,,,,,,,green,diamond
0.0,4.0,4.0,0.0,6.0,6.0,542.9266979990643,2.0,0.0,part_2,go,300.0,150.0,1.0,,,,,,,,,white,cross
0.0,5.0,1.0,1.0,6.0,0.0,0.0,2.0,0.0,part_2,stop,300.0,150.0,4.0,,,,,,,,,gray,square
0.0,8.0,4.0,1.0,6.0,6.0,336.6729739991569,2.0,0.0,part_2,stop,300.0,200.0,3.0,,,,,,,,,magenta,circle
0.0,3.0,3.0,0.0,6.0,6.0,549.5026240005245,2.0,0.0,part_2,go,300.0,150.0,1.0,,,,,,,,,blue,I
0.0,4.0,4.0,0.0,6.0,6.0,708.1110690014611,2.0,0.0,part_2,go,300.0,150.0,1.0,,,,,,,,,white,cross
0.0,1.0,1.0,0.0,6.0,6.0,480.128725999748,2.0,0.0,part_2,go,300.0,150.0,1.0,,,,,,,,,green,diamond
0.0,2.0,2.0,0.0,5.0,5.0,378.8664290004817,2.0,0.0,part_2,go,300.0,150.0,1.0,,,,,,,,,yellow,flipped triangle
0.0,4.0,4.0,0.0,6.0,6.0,480.8465099995374,2.0,0.0,part_2,go,300.0,150.0,1.0,,,,,,,,,white,cross
0.0,8.0,4.0,1.0,6.0,0.0,0.0,2.0,0.0,part_2,stop,300.0,150.0,4.0,,,,,,,,,magenta,circle
0.0,8.0,4.0,1.0,6.0,0.0,0.0,2.0,0.0,part_2,stop,300.0,200.0,4.0,,,,,,,,,magenta,circle
0.0,3.0,3.0,0.0,6.0,6.0,510.4583449992788,2.0,0.0,part_2,go,300.0,250.0,1.0,,,,,,,,,blue,I
0.0,5.0,1.0,1.0,6.0,6.0,560.1215539991244,2.0,0.0,part_2,go,300.0,250.0,1.0,,,,,,,,,gray,square
0.0,4.0,4.0,0.0,5.0,5.0,527.0206360000884,2.0,0.0,part_2,go,300.0,250.0,1.0,,,,,,,,,white,cross
0.0,7.0,3.0,1.0,6.0,6.0,362.3334109997813,2.0,0.0,part_2,stop,300.0,250.0,3.0,,,,,,,,,cyan,triangle
0.0,6.0,2.0,1.0,6.0,0.0,0.0,2.0,0.0,part_2,stop,300.0,200.0,4.0,,,,,,,,,orange,hexagon
0.0,5.0,1.0,1.0,5.0,5.0,383.126690001518,2.0,0.0,part_2,stop,300.0,250.0,3.0,,,,,,,,,gray,square
0.0,1.0,1.0,0.0,5.0,5.0,500.127302000692,2.0,0.0,part_2,go,250.0,250.0,1.0,,,,,,,,,green,diamond
0.0,8.0,4.0,1.0,5.0,0.0,0.0,2.0,0.0,part_2,stop,250.0,250.0,4.0,,,,,,,,,magenta,circle
0.0,2.0,2.0,0.0,6.0,6.0,478.03333399861,2.0,0.0,part_2,go,300.0,250.0,1.0,,,,,,,,,yellow,flipped triangle
0.0,3.0,3.0,0.0,6.0,6.0,496.0078669992072,2.0,0.0,part_2,go,300.0,250.0,1.0,,,,,,,,,blue,I
0.0,7.0,3.0,1.0,5.0,5.0,384.8313660000713,2.0,0.0,part_2,stop,300.0,250.0,3.0,,,,,,,,,cyan,triangle
0.0,2.0,2.0,0.0,5.0,5.0,558.2957919996261,2.0,0.0,part_2,go,250.0,250.0,1.0,,,,,,,,,yellow,flipped triangle
0.0,2.0,2.0,0.0,6.0,6.0,716.9351319989801,2.0,0.0,part_2,go,250.0,250.0,1.0,,,,,,,,,yellow,flipped triangle
0.0,3.0,3.0,0.0,5.0,5.0,749.1080750005494,2.0,0.0,part_2,go,250.0,250.0,1.0,,,,,,,,,blue,I
0.0,8.0,4.0,1.0,5.0,0.0,0.0,2.0,0.0,part_2,stop,250.0,250.0,4.0,,,,,,,,,magenta,circle
0.0,4.0,4.0,0.0,6.0,6.0,505.32662400109984,2.0,0.0,part_2,go,300.0,250.0,1.0,,,,,,,,,white,cross
0.0,4.0,4.0,0.0,6.0,6.0,498.3264379989123,2.0,0.0,part_2,go,300.0,250.0,1.0,,,,,,,,,white,cross
0.0,3.0,3.0,0.0,5.0,5.0,439.0898080000625,3.0,0.0,part_2,go,300.0,250.0,1.0,,,,,,,,,blue,I
0.0,7.0,3.0,1.0,6.0,0.0,0.0,3.0,0.0,part_2,stop,300.0,250.0,4.0,,,,,,,,,cyan,triangle
0.0,7.0,3.0,1.0,5.0,5.0,451.9026709986065,3.0,0.0,part_2,go,300.0,300.0,1.0,,,,,,,,,cyan,triangle
0.0,2.0,2.0,0.0,6.0,6.0,529.3280839996442,3.0,0.0,part_2,go,300.0,300.0,1.0,,,,,,,,,yellow,flipped triangle
0.0,4.0,4.0,0.0,6.0,6.0,549.7880659986549,3.0,0.0,part_2,go,300.0,300.0,1.0,,,,,,,,,white,cross
0.0,1.0,1.0,0.0,6.0,6.0,333.159333000367,3.0,0.0,part_2,go,300.0,300.0,1.0,,,,,,,,,green,diamond
0.0,8.0,4.0,1.0,6.0,6.0,341.4124060000176,3.0,0.0,part_2,stop,300.0,300.0,3.0,,,,,,,,,magenta,circle
0.0,3.0,3.0,0.0,5.0,5.0,414.8369750000711,3.0,0.0,part_2,go,300.0,250.0,1.0,,,,,,,,,blue,I
0.0,5.0,1.0,1.0,6.0,0.0,0.0,3.0,0.0,part_2,stop,300.0,250.0,4.0,,,,,,,,,gray,square
0.0,6.0,2.0,1.0,6.0,0.0,0.0,3.0,0.0,part_2,stop,300.0,300.0,4.0,,,,,,,,,orange,hexagon
0.0,7.0,3.0,1.0,6.0,0.0,0.0,3.0,0.0,part_2,stop,300.0,350.0,4.0,,,,,,,,,cyan,triangle
0.0,2.0,2.0,0.0,6.0,6.0,608.2726069998898,3.0,0.0,part_2,go,300.0,400.0,1.0,,,,,,,,,yellow,flipped triangle
0.0,2.0,2.0,0.0,6.0,6.0,475.0213450006413,3.0,0.0,part_2,go,300.0,400.0,1.0,,,,,,,,,yellow,flipped triangle
0.0,8.0,4.0,1.0,6.0,6.0,365.0790810006583,3.0,0.0,part_2,go,300.0,400.0,1.0,,,,,,,,,magenta,circle
0.0,6.0,2.0,1.0,5.0,5.0,441.1262499997974,3.0,0.0,part_2,stop,300.0,400.0,3.0,,,,,,,,,orange,hexagon
0.0,4.0,4.0,0.0,6.0,6.0,520.2943320000486,3.0,0.0,part_2,go,250.0,400.0,1.0,,,,,,,,,white,cross
0.0,2.0,2.0,0.0,5.0,5.0,341.2409540014778,3.0,0.0,part_2,go,250.0,400.0,1.0,,,,,,,,,yellow,flipped triangle
0.0,8.0,4.0,1.0,6.0,6.0,328.3067610009311,3.0,0.0,part_2,go,250.0,400.0,1.0,,,,,,,,,magenta,circle
0.0,7.0,3.0,1.0,5.0,5.0,531.8571909992897,3.0,0.0,part_2,go,250.0,400.0,1.0,,,,,,,,,cyan,triangle
0.0,7.0,3.0,1.0,6.0,6.0,568.2817959987005,3.0,0.0,part_2,stop,250.0,400.0,3.0,,,,,,,,,cyan,triangle
0.0,2.0,2.0,0.0,5.0,5.0,483.9601990006485,3.0,0.0,part_2,go,250.0,350.0,1.0,,,,,,,,,yellow,flipped triangle
0.0,6.0,2.0,1.0,6.0,0.0,0.0,3.0,0.0,part_2,stop,250.0,350.0,4.0,,,,,,,,,orange,hexagon
0.0,2.0,2.0,0.0,6.0,6.0,492.6198840003053,3.0,0.0,part_2,go,250.0,400.0,1.0,,,,,,,,,yellow,flipped triangle
0.0,1.0,1.0,0.0,5.0,5.0,413.4984450010961,3.0,0.0,part_2,go,250.0,400.0,1.0,,,,,,,,,green,diamond
0.0,8.0,4.0,1.0,5.0,5.0,617.7036159988347,3.0,0.0,part_2,go,250.0,400.0,1.0,,,,,,,,,magenta,circle
0.0,7.0,3.0,1.0,6.0,6.0,536.2394630010385,3.0,0.0,part_2,go,250.0,400.0,1.0,,,,,,,,,cyan,triangle
0.0,1.0,1.0,0.0,6.0,6.0,402.8549140002724,3.0,0.0,part_2,go,250.0,400.0,1.0,,,,,,,,,green,diamond
0.0,7.0,3.0,1.0,6.0,6.0,350.5030360011005,3.0,0.0,part_2,stop,250.0,400.0,3.0,,,,,,,,,cyan,triangle
0.0,8.0,4.0,1.0,5.0,0.0,0.0,3.0,0.0,part_2,stop,250.0,350.0,4.0,,,,,,,,,magenta,circle
0.0,5.0,1.0,1.0,6.0,6.0,521.9185059995652,3.0,0.0,part_2,go,300.0,350.0,1.0,,,,,,,,,gray,square
0.0,5.0,1.0,1.0,5.0,0.0,0.0,3.0,0.0,part_2,stop,300.0,350.0,4.0,,,,,,,,,gray,square
0.0,2.0,2.0,0.0,5.0,5.0,598.4678370004985,3.0,0.0,part_2,go,350.0,350.0,1.0,,,,,,,,,yellow,flipped triangle
0.0,2.0,2.0,0.0,6.0,6.0,404.2490650008403,3.0,0.0,part_2,go,350.0,350.0,1.0,,,,,,,,,yellow,flipped triangle
0.0,2.0,2.0,0.0,6.0,6.0,490.1405629989313,3.0,0.0,part_2,go,350.0,350.0,1.0,,,,,,,,,yellow,flipped triangle
0.0,6.0,2.0,1.0,5.0,5.0,522.078601999965,3.0,0.0,part_2,stop,350.0,350.0,3.0,,,,,,,,,orange,hexagon
0.0,1.0,1.0,0.0,6.0,6.0,551.2321360001806,3.0,0.0,part_2,go,300.0,350.0,1.0,,,,,,,,,green,diamond
0.0,7.0,3.0,1.0,5.0,5.0,523.2310779992986,4.0,0.0,part_2,stop,300.0,350.0,3.0,,,,,,,,,cyan,triangle
0.0,8.0,4.0,1.0,5.0,0.0,0.0,4.0,0.0,part_2,stop,250.0,350.0,4.0,,,,,,,,,magenta,circle
0.0,5.0,1.0,1.0,5.0,0.0,0.0,4.0,0.0,part_2,stop,300.0,350.0,4.0,,,,,,,,,gray,square
0.0,4.0,4.0,0.0,5.0,5.0,481.673337999382,4.0,0.0,part_2,go,350.0,350.0,1.0,,,,,,,,,white,cross
0.0,3.0,3.0,0.0,5.0,5.0,596.5297270013252,4.0,0.0,part_2,go,350.0,350.0,1.0,,,,,,,,,blue,I
0.0,1.0,1.0,0.0,5.0,5.0,757.8794520013616,4.0,0.0,part_2,go,350.0,350.0,1.0,,,,,,,,,green,diamond
0.0,6.0,2.0,1.0,5.0,5.0,387.7249240013043,4.0,0.0,part_2,stop,350.0,350.0,3.0,,,,,,,,,orange,hexagon
0.0,4.0,4.0,0.0,6.0,6.0,791.6193950004526,4.0,0.0,part_2,go,300.0,350.0,1.0,,,,,,,,,white,cross
0.0,3.0,3.0,0.0,5.0,5.0,748.2622600000468,4.0,0.0,part_2,go,300.0,350.0,1.0,,,,,,,,,blue,I
0.0,5.0,1.0,1.0,5.0,0.0,0.0,4.0,0.0,part_2,stop,300.0,350.0,4.0,,,,,,,,,gray,square
0.0,6.0,2.0,1.0,5.0,0.0,0.0,4.0,0.0,part_2,stop,350.0,350.0,4.0,,,,,,,,,orange,hexagon
0.0,4.0,4.0,0.0,5.0,5.0,681.2618559997645,4.0,0.0,part_2,go,400.0,350.0,1.0,,,,,,,,,white,cross
0.0,6.0,2.0,1.0,6.0,0.0,0.0,4.0,0.0,part_2,stop,400.0,350.0,4.0,,,,,,,,,orange,hexagon
0.0,3.0,3.0,0.0,5.0,5.0,731.8133940007101,4.0,0.0,part_2,go,400.0,400.0,1.0,,,,,,,,,blue,I
0.0,2.0,2.0,0.0,6.0,6.0,642.9138740004419,4.0,0.0,part_2,go,400.0,400.0,1.0,,,,,,,,,yellow,flipped triangle
0.0,2.0,2.0,0.0,5.0,5.0,895.5636509999749,4.0,0.0,part_2,go,400.0,400.0,1.0,,,,,,,,,yellow,flipped triangle
0.0,2.0,2.0,0.0,6.0,6.0,497.3135479995108,4.0,0.0,part_2,go,400.0,400.0,1.0,,,,,,,,,yellow,flipped triangle
0.0,5.0,1.0,1.0,5.0,5.0,486.8846729987126,4.0,0.0,part_2,stop,400.0,400.0,3.0,,,,,,,,,gray,square
0.0,2.0,2.0,0.0,5.0,5.0,561.8857850004133,4.0,0.0,part_2,go,350.0,400.0,1.0,,,,,,,,,yellow,flipped triangle
0.0,3.0,3.0,0.0,5.0,5.0,519.7289019997697,4.0,0.0,part_2,go,350.0,400.0,1.0,,,,,,,,,blue,I
0.0,8.0,4.0,1.0,6.0,6.0,486.0096110005543,4.0,0.0,part_2,stop,350.0,400.0,3.0,,,,,,,,,magenta,circle
0.0,5.0,1.0,1.0,5.0,5.0,436.7378779988939,4.0,0.0,part_2,stop,350.0,350.0,3.0,,,,,,,,,gray,square
0.0,2.0,2.0,0.0,5.0,5.0,695.9794699996564,4.0,0.0,part_2,go,300.0,350.0,1.0,,,,,,,,,yellow,flipped triangle
0.0,3.0,3.0,0.0,5.0,5.0,809.8206220001885,4.0,0.0,part_2,go,300.0,350.0,1.0,,,,,,,,,blue,I
0.0,6.0,2.0,1.0,6.0,0.0,0.0,4.0,0.0,part_2,stop,300.0,350.0,4.0,,,,,,,,,orange,hexagon
0.0,1.0,1.0,0.0,5.0,5.0,752.5409250010853,4.0,0.0,part_2,go,300.0,400.0,1.0,,,,,,,,,green,diamond
0.0,7.0,3.0,1.0,6.0,0.0,0.0,4.0,0.0,part_2,stop,300.0,400.0,4.0,,,,,,,,,cyan,triangle
0.0,4.0,4.0,0.0,6.0,6.0,688.0253340004856,4.0,0.0,part_2,go,300.0,450.0,1.0,,,,,,,,,white,cross
0.0,7.0,3.0,1.0,6.0,0.0,0.0,4.0,0.0,part_2,stop,300.0,450.0,4.0,,,,,,,,,cyan,triangle
0.0,3.0,3.0,0.0,6.0,6.0,706.460800000059,4.0,0.0,part_2,go,300.0,500.0,1.0,,,,,,,,,blue,I
0.0,1.0,1.0,0.0,6.0,6.0,710.1791460008826,4.0,0.0,part_2,go,300.0,500.0,1.0,,,,,,,,,green,diamond
0.0,5.0,1.0,1.0,5.0,0.0,0.0,4.0,0.0,part_2,stop,300.0,500.0,4.0,,,,,,,,,gray,square
0.0,5.0,1.0,1.0,5.0,0.0,0.0,4.0,0.0,part_2,stop,350.0,500.0,4.0,,,,,,,,,gray,square
0.0,3.0,3.0,0.0,6.0,6.0,616.1598839989892,4.0,0.0,part_2,go,400.0,500.0,1.0,,,,,,,,,blue,I
0.0,7.0,3.0,1.0,6.0,0.0,0.0,4.0,0.0,part_2,stop,400.0,500.0,4.0,,,,,,,,,cyan,triangle
0.0,1.0,1.0,0.0,5.0,5.0,695.5810910003493,4.0,0.0,part_2,go,400.0,550.0,1.0,,,,,,,,,green,diamond
0.0,8.0,4.0,1.0,5.0,5.0,478.8026639998861,5.0,0.0,part_2,stop,400.0,550.0,3.0,,,,,,,,,magenta,circle
0.0,8.0,4.0,1.0,5.0,0.0,0.0,5.0,0.0,part_2,stop,350.0,550.0,4.0,,,,,,,,,magenta,circle
0.0,4.0,4.0,0.0,5.0,5.0,636.5992350001761,5.0,0.0,part_2,go,400.0,550.0,1.0,,,,,,,,,white,cross
0.0,5.0,1.0,1.0,6.0,6.0,676.3407350008492,5.0,0.0,part_2,stop,400.0,550.0,3.0,,,,,,,,,gray,square
0.0,6.0,2.0,1.0,5.0,0.0,0.0,5.0,0.0,part_2,stop,400.0,500.0,4.0,,,,,,,,,orange,hexagon
0.0,1.0,1.0,0.0,6.0,6.0,749.5980490002694,5.0,0.0,part_2,go,450.0,500.0,1.0,,,,,,,,,green,diamond
0.0,7.0,3.0,1.0,6.0,6.0,614.4463660002657,5.0,0.0,part_2,stop,450.0,500.0,3.0,,,,,,,,,cyan,triangle
0.0,3.0,3.0,0.0,6.0,6.0,518.2931710005505,5.0,0.0,part_2,go,450.0,450.0,1.0,,,,,,,,,blue,I
0.0,6.0,2.0,1.0,6.0,0.0,0.0,5.0,0.0,part_2,stop,450.0,450.0,4.0,,,,,,,,,orange,hexagon
0.0,1.0,1.0,0.0,5.0,5.0,759.800745998291,5.0,0.0,part_2,go,450.0,500.0,1.0,,,,,,,,,green,diamond
0.0,3.0,3.0,0.0,6.0,6.0,843.7936070004071,5.0,0.0,part_2,go,450.0,500.0,1.0,,,,,,,,,blue,I
0.0,5.0,1.0,1.0,6.0,0.0,0.0,5.0,0.0,part_2,stop,450.0,500.0,4.0,,,,,,,,,gray,square
0.0,7.0,3.0,1.0,5.0,5.0,550.8411500013608,5.0,0.0,part_2,go,450.0,550.0,1.0,,,,,,,,,cyan,triangle
0.0,3.0,3.0,0.0,5.0,5.0,646.6058149999299,5.0,0.0,part_2,go,450.0,550.0,1.0,,,,,,,,,blue,I
0.0,8.0,4.0,1.0,5.0,5.0,767.1523049993993,5.0,0.0,part_2,go,450.0,550.0,1.0,,,,,,,,,magenta,circle
0.0,6.0,2.0,1.0,5.0,5.0,357.6597280007263,5.0,0.0,part_2,stop,450.0,550.0,3.0,,,,,,,,,orange,hexagon
0.0,4.0,4.0,0.0,5.0,5.0,602.2929400005523,5.0,0.0,part_2,go,400.0,550.0,1.0,,,,,,,,,white,cross
0.0,7.0,3.0,1.0,6.0,6.0,310.6978160012659,5.0,0.0,part_2,stop,400.0,550.0,3.0,,,,,,,,,cyan,triangle
0.0,6.0,2.0,1.0,5.0,5.0,778.9625030000025,5.0,0.0,part_2,go,400.0,500.0,1.0,,,,,,,,,orange,hexagon
0.0,8.0,4.0,1.0,5.0,0.0,0.0,5.0,0.0,part_2,stop,400.0,500.0,4.0,,,,,,,,,magenta,circle
0.0,6.0,2.0,1.0,5.0,5.0,708.1671160012775,5.0,0.0,part_2,go,450.0,500.0,1.0,,,,,,,,,orange,hexagon
0.0,5.0,1.0,1.0,6.0,0.0,0.0,5.0,0.0,part_2,stop,450.0,500.0,4.0,,,,,,,,,gray,square
0.0,8.0,4.0,1.0,6.0,6.0,703.9086189997761,5.0,0.0,part_2,go,450.0,550.0,1.0,,,,,,,,,magenta,circle
0.0,5.0,1.0,1.0,5.0,0.0,0.0,5.0,0.0,part_2,stop,450.0,550.0,4.0,,,,,,,,,gray,square
0.0,3.0,3.0,0.0,6.0,6.0,711.1739960000705,5.0,0.0,part_2,go,500.0,550.0,1.0,,,,,,,,,blue,I
0.0,3.0,3.0,0.0,6.0,6.0,654.6392430009291,5.0,0.0,part_2,go,500.0,550.0,1.0,,,,,,,,,blue,I
0.0,3.0,3.0,0.0,5.0,5.0,542.9027499994845,5.0,0.0,part_2,go,500.0,550.0,1.0,,,,,,,,,blue,I
0.0,8.0,4.0,1.0,5.0,5.0,797.2470540007635,5.0,0.0,part_2,go,500.0,550.0,1.0,,,,,,,,,magenta,circle
0.0,2.0,2.0,0.0,5.0,5.0,535.878667000361,5.0,0.0,part_2,go,500.0,550.0,1.0,,,,,,,,,yellow,flipped triangle
0.0,6.0,2.0,1.0,5.0,5.0,569.982205000997,5.0,0.0,part_2,stop,500.0,550.0,3.0,,,,,,,,,orange,hexagon
0.0,6.0,2.0,1.0,5.0,5.0,738.8269869989017,5.0,0.0,part_2,go,450.0,550.0,1.0,,,,,,,,,orange,hexagon
0.0,8.0,4.0,1.0,5.0,0.0,0.0,5.0,0.0,part_2,stop,450.0,550.0,4.0,,,,,,,,,magenta,circle
0.0,5.0,1.0,1.0,5.0,5.0,508.97988799988525,5.0,0.0,part_2,go,500.0,550.0,1.0,,,,,,,,,gray,square
0.0,2.0,2.0,0.0,6.0,6.0,510.6257720017311,5.0,0.0,part_2,go,500.0,550.0,1.0,,,,,,,,,yellow,flipped triangle
0.0,3.0,3.0,0.0,5.0,5.0,604.736684999807,5.0,0.0,part_2,go,500.0,550.0,1.0,,,,,,,,,blue,I
0.0,6.0,2.0,1.0,5.0,5.0,574.0634520007006,5.0,0.0,part_2,stop,500.0,550.0,3.0,,,,,,,,,orange,hexagon
0.0,5.0,1.0,1.0,6.0,6.0,611.3507350000873,6.0,0.0,part_2,stop,450.0,550.0,3.0,,,,,,,,,gray,square
0.0,3.0,3.0,0.0,5.0,5.0,539.560053999594,6.0,0.0,part_2,go,450.0,500.0,1.0,,,,,,,,,blue,I
0.0,6.0,2.0,1.0,6.0,6.0,441.6541039990989,6.0,0.0,part_2,stop,450.0,500.0,3.0,,,,,,,,,orange,hexagon
0.0,1.0,1.0,0.0,5.0,5.0,724.9167970003327,6.0,0.0,part_2,go,450.0,450.0,1.0,,,,,,,,,green,diamond
0.0,7.0,3.0,1.0,5.0,5.0,485.7859089988778,6.0,0.0,part_2,stop,450.0,450.0,3.0,,,,,,,,,cyan,triangle
0.0,2.0,2.0,0.0,5.0,5.0,547.2271870003169,6.0,0.0,part_2,go,400.0,450.0,1.0,,,,,,,,,yellow,flipped triangle
0.0,6.0,2.0,1.0,6.0,6.0,515.5153810010233,6.0,0.0,part_2,stop,400.0,450.0,3.0,,,,,,,,,orange,hexagon
0.0,7.0,3.0,1.0,5.0,0.0,0.0,6.0,0.0,part_2,stop,400.0,400.0,4.0,,,,,,,,,cyan,triangle
0.0,2.0,2.0,0.0,5.0,5.0,624.6840060011891,6.0,0.0,part_2,go,450.0,400.0,1.0,,,,,,,,,yellow,flipped triangle
0.0,6.0,2.0,1.0,5.0,5.0,592.0498499999667,6.0,0.0,part_2,go,450.0,400.0,1.0,,,,,,,,,orange,hexagon
0.0,7.0,3.0,1.0,6.0,6.0,516.3522370003193,6.0,0.0,part_2,stop,450.0,400.0,3.0,,,,,,,,,cyan,triangle
0.0,1.0,1.0,0.0,5.0,5.0,555.0299400001677,6.0,0.0,part_2,go,450.0,350.0,1.0,,,,,,,,,green,diamond
0.0,1.0,1.0,0.0,6.0,6.0,560.6891400002496,6.0,0.0,part_2,go,450.0,350.0,1.0,,,,,,,,,green,diamond
0.0,4.0,4.0,0.0,6.0,6.0,326.1807890012278,6.0,0.0,part_2,go,450.0,350.0,1.0,,,,,,,,,white,cross
0.0,6.0,2.0,1.0,5.0,5.0,488.1209600007423,6.0,0.0,part_2,stop,450.0,350.0,3.0,,,,,,,,,orange,hexagon
0.0,5.0,1.0,1.0,5.0,5.0,467.7862850003293,6.0,0.0,part_2,go,400.0,350.0,1.0,,,,,,,,,gray,square
0.0,7.0,3.0,1.0,6.0,6.0,452.5563140014128,6.0,0.0,part_2,stop,400.0,350.0,3.0,,,,,,,,,cyan,triangle
0.0,7.0,3.0,1.0,5.0,5.0,343.0936100012332,6.0,0.0,part_2,stop,400.0,300.0,3.0,,,,,,,,,cyan,triangle
0.0,6.0,2.0,1.0,6.0,6.0,564.0214790000755,6.0,0.0,part_2,go,350.0,300.0,1.0,,,,,,,,,orange,hexagon
0.0,1.0,1.0,0.0,6.0,6.0,301.0553450003499,6.0,0.0,part_2,go,350.0,300.0,1.0,,,,,,,,,green,diamond
0.0,4.0,4.0,0.0,5.0,5.0,515.213031998428,6.0,0.0,part_2,go,350.0,300.0,1.0,,,,,,,,,white,cross
0.0,7.0,3.0,1.0,5.0,0.0,0.0,6.0,0.0,part_2,stop,350.0,300.0,4.0,,,,,,,,,cyan,triangle
0.0,6.0,2.0,1.0,6.0,6.0,573.3772969997517,6.0,0.0,part_2,go,400.0,300.0,1.0,,,,,,,,,orange,hexagon
0.0,3.0,3.0,0.0,6.0,6.0,429.2160420009168,6.0,0.0,part_2,go,400.0,300.0,1.0,,,,,,,,,blue,I
0.0,4.0,4.0,0.0,5.0,5.0,588.9710899991769,6.0,0.0,part_2,go,400.0,300.0,1.0,,,,,,,,,white,cross
0.0,8.0,4.0,1.0,5.0,0.0,0.0,6.0,0.0,part_2,stop,400.0,300.0,4.0,,,,,,,,,magenta,circle
0.0,7.0,3.0,1.0,5.0,5.0,635.1905620012985,6.0,0.0,part_2,stop,450.0,300.0,3.0,,,,,,,,,cyan,triangle
0.0,7.0,3.0,1.0,5.0,0.0,0.0,6.0,0.0,part_2,stop,400.0,300.0,4.0,,,,,,,,,cyan,triangle
0.0,1.0,1.0,0.0,5.0,5.0,483.4260290008387,6.0,0.0,part_2,go,450.0,300.0,1.0,,,,,,,,,green,diamond
0.0,5.0,1.0,1.0,6.0,6.0,693.8923090001481,6.0,0.0,part_2,go,450.0,300.0,1.0,,,,,,,,,gray,square
0.0,1.0,1.0,0.0,5.0,5.0,564.0833950001252,6.0,0.0,part_2,go,450.0,300.0,1.0,,,,,,,,,green,diamond
0.0,6.0,2.0,1.0,6.0,0.0,0.0,6.0,0.0,part_2,stop,450.0,300.0,4.0,,,,,,,,,orange,hexagon
0.0,5.0,1.0,1.0,5.0,5.0,486.5634569996473,6.0,0.0,part_2,stop,450.0,350.0,3.0,,,,,,,,,gray,square
0.0,3.0,3.0,0.0,6.0,6.0,691.9605980001506,6.0,0.0,part_2,go,400.0,350.0,1.0,,,,,,,,,blue,I
0.0,6.0,2.0,1.0,5.0,0.0,0.0,6.0,0.0,part_2,stop,400.0,350.0,4.0,,,,,,,,,orange,hexagon
0.0,4.0,4.0,0.0,5.0,5.0,690.1692299998103,6.0,0.0,part_2,go,450.0,350.0,1.0,,,,,,,,,white,cross
0.0,8.0,4.0,1.0,6.0,6.0,728.2101450000482,7.0,0.0,part_2,stop,450.0,350.0,3.0,,,,,,,,,magenta,circle
0.0,3.0,3.0,0.0,5.0,5.0,529.826772002707,7.0,0.0,part_2,go,450.0,300.0,1.0,,,,,,,,,blue,I
0.0,1.0,1.0,0.0,6.0,6.0,587.3925560008502,7.0,0.0,part_2,go,450.0,300.0,1.0,,,,,,,,,green,diamond
0.0,4.0,4.0,0.0,6.0,6.0,623.5884740017354,7.0,0.0,part_2,go,450.0,300.0,1.0,,,,,,,,,white,cross
0.0,5.0,1.0,1.0,6.0,6.0,390.9647039981792,7.0,0.0,part_2,stop,450.0,300.0,3.0,,,,,,,,,gray,square
0.0,1.0,1.0,0.0,6.0,6.0,809.256534997985,7.0,0.0,part_2,go,450.0,250.0,1.0,,,,,,,,,green,diamond
0.0,3.0,3.0,0.0,6.0,6.0,702.8753899976437,7.0,0.0,part_2,go,450.0,250.0,1.0,,,,,,,,,blue,I
0.0,7.0,3.0,1.0,6.0,6.0,777.5172680012474,7.0,0.0,part_2,go,450.0,250.0,1.0,,,,,,,,,cyan,triangle
0.0,4.0,4.0,0.0,6.0,6.0,800.2933099996881,7.0,0.0,part_2,go,450.0,250.0,1.0,,,,,,,,,white,cross
0.0,5.0,1.0,1.0,5.0,5.0,420.5702319995907,7.0,0.0,part_2,stop,450.0,250.0,3.0,,,,,,,,,gray,square
0.0,8.0,4.0,1.0,6.0,0.0,0.0,7.0,0.0,part_2,stop,400.0,250.0,4.0,,,,,,,,,magenta,circle
0.0,4.0,4.0,0.0,6.0,6.0,1117.4303769985272,7.0,0.0,part_2,go,400.0,300.0,1.0,,,,,,,,,white,cross
0.0,1.0,1.0,0.0,6.0,6.0,1214.8401599988574,7.0,0.0,part_2,go,400.0,300.0,1.0,,,,,,,,,green,diamond
0.0,3.0,3.0,0.0,6.0,6.0,542.6598869998998,7.0,0.0,part_2,go,400.0,300.0,1.0,,,,,,,,,blue,I
0.0,2.0,2.0,0.0,6.0,6.0,717.1099970000796,7.0,0.0,part_2,go,400.0,300.0,1.0,,,,,,,,,yellow,flipped triangle
0.0,5.0,1.0,1.0,6.0,6.0,705.4021500007366,7.0,0.0,part_2,go,400.0,300.0,1.0,,,,,,,,,gray,square
0.0,5.0,1.0,1.0,6.0,6.0,367.1040380031627,7.0,0.0,part_2,stop,400.0,300.0,3.0,,,,,,,,,gray,square
0.0,3.0,3.0,0.0,5.0,5.0,692.4664479993226,7.0,0.0,part_2,go,400.0,250.0,1.0,,,,,,,,,blue,I
0.0,2.0,2.0,0.0,5.0,5.0,743.6431579990312,7.0,0.0,part_2,go,400.0,250.0,1.0,,,,,,,,,yellow,flipped triangle
0.0,3.0,3.0,0.0,5.0,5.0,624.4657450006343,7.0,0.0,part_2,go,400.0,250.0,1.0,,,,,,,,,blue,I
0.0,1.0,1.0,0.0,6.0,6.0,800.1337229979981,7.0,0.0,part_2,go,400.0,250.0,1.0,,,,,,,,,green,diamond
0.0,2.0,2.0,0.0,5.0,5.0,502.6774250000017,7.0,0.0,part_2,go,400.0,250.0,1.0,,,,,,,,,yellow,flipped triangle
0.0,5.0,1.0,1.0,5.0,5.0,467.4321720012813,7.0,0.0,part_2,go,400.0,250.0,1.0,,,,,,,,,gray,square
0.0,8.0,4.0,1.0,6.0,0.0,0.0,7.0,0.0,part_2,stop,400.0,250.0,4.0,,,,,,,,,magenta,circle
0.0,8.0,4.0,1.0,5.0,5.0,681.0431519988924,7.0,0.0,part_2,go,400.0,300.0,1.0,,,,,,,,,magenta,circle
0.0,7.0,3.0,1.0,6.0,0.0,0.0,7.0,0.0,part_2,stop,400.0,300.0,4.0,,,,,,,,,cyan,triangle
0.0,3.0,3.0,0.0,5.0,5.0,712.7303710003616,7.0,0.0,part_2,go,400.0,350.0,1.0,,,,,,,,,blue,I
0.0,7.0,3.0,1.0,5.0,5.0,441.2776099998154,7.0,0.0,part_2,stop,400.0,350.0,3.0,,,,,,,,,cyan,triangle
0.0,4.0,4.0,0.0,6.0,6.0,676.8482029983716,7.0,0.0,part_2,go,350.0,350.0,1.0,,,,,,,,,white,cross
0.0,3.0,3.0,0.0,6.0,6.0,476.3698280003154,7.0,0.0,part_2,go,350.0,350.0,1.0,,,,,,,,,blue,I
0.0,7.0,3.0,1.0,5.0,0.0,0.0,7.0,0.0,part_2,stop,350.0,350.0,4.0,,,,,,,,,cyan,triangle
0.0,3.0,3.0,0.0,6.0,6.0,504.4177729978401,7.0,0.0,part_2,go,400.0,350.0,1.0,,,,,,,,,blue,I
0.0,4.0,4.0,0.0,5.0,5.0,550.1253900001757,7.0,0.0,part_2,go,400.0,350.0,1.0,,,,,,,,,white,cross
0.0,6.0,2.0,1.0,5.0,5.0,364.7708390017214,7.0,0.0,part_2,stop,400.0,350.0,3.0,,,,,,,,,orange,hexagon
0.0,7.0,3.0,1.0,5.0,5.0,429.6325130017067,7.0,0.0,part_2,stop,350.0,350.0,3.0,,,,,,,,,cyan,triangle
0.0,4.0,4.0,0.0,5.0,5.0,561.0459549970983,7.0,0.0,part_2,go,300.0,350.0,1.0,,,,,,,,,white,cross
0.0,6.0,2.0,1.0,6.0,6.0,462.4805080020451,8.0,0.0,part_2,stop,300.0,350.0,3.0,,,,,,,,,orange,hexagon
0.0,1.0,1.0,0.0,6.0,6.0,355.1290720024553,8.0,0.0,part_2,go,300.0,300.0,1.0,,,,,,,,,green,diamond
0.0,7.0,3.0,1.0,5.0,5.0,283.8786489992344,8.0,0.0,part_2,go,300.0,300.0,1.0,,,,,,,,,cyan,triangle
0.0,6.0,2.0,1.0,6.0,6.0,342.1003789990209,8.0,0.0,part_2,stop,300.0,300.0,3.0,,,,,,,,,orange,hexagon
0.0,5.0,1.0,1.0,6.0,0.0,0.0,8.0,0.0,part_2,stop,300.0,250.0,4.0,,,,,,,,,gray,square
0.0,4.0,4.0,0.0,5.0,5.0,486.8496560011408,8.0,0.0,part_2,go,300.0,300.0,1.0,,,,,,,,,white,cross
0.0,1.0,1.0,0.0,5.0,5.0,472.2459299991897,8.0,0.0,part_2,go,300.0,300.0,1.0,,,,,,,,,green,diamond
0.0,3.0,3.0,0.0,6.0,6.0,552.0089609999559,8.0,0.0,part_2,go,300.0,300.0,1.0,,,,,,,,,blue,I
0.0,7.0,3.0,1.0,6.0,6.0,385.3514980000909,8.0,0.0,part_2,stop,300.0,300.0,3.0,,,,,,,,,cyan,triangle
0.0,3.0,3.0,0.0,5.0,5.0,555.8472140000958,8.0,0.0,part_2,go,300.0,250.0,1.0,,,,,,,,,blue,I
0.0,5.0,1.0,1.0,6.0,0.0,0.0,8.0,0.0,part_2,stop,300.0,250.0,4.0,,,,,,,,,gray,square
0.0,8.0,4.0,1.0,6.0,0.0,0.0,8.0,0.0,part_2,stop,300.0,300.0,4.0,,,,,,,,,magenta,circle
0.0,2.0,2.0,0.0,5.0,5.0,464.2304080007307,8.0,0.0,part_2,go,300.0,350.0,1.0,,,,,,,,,yellow,flipped triangle
0.0,6.0,2.0,1.0,6.0,0.0,0.0,8.0,0.0,part_2,stop,300.0,350.0,4.0,,,,,,,,,orange,hexagon
0.0,4.0,4.0,0.0,5.0,5.0,282.0328960006009,8.0,0.0,part_2,go,300.0,400.0,1.0,,,,,,,,,white,cross
0.0,1.0,1.0,0.0,6.0,0.0,0.0,8.0,0.0,part_2,go,300.0,400.0,5.0,,,,,,,,,green,diamond
0.0,4.0,4.0,0.0,5.0,5.0,533.2052939993446,8.0,0.0,part_2,go,300.0,400.0,1.0,,,,,,,,,white,cross
0.0,3.0,3.0,0.0,5.0,5.0,435.4578099992068,8.0,0.0,part_2,go,300.0,400.0,1.0,,,,,,,,,blue,I
0.0,8.0,4.0,1.0,6.0,6.0,346.5880440016917,8.0,0.0,part_2,stop,300.0,400.0,3.0,,,,,,,,,magenta,circle
0.0,3.0,3.0,0.0,6.0,6.0,565.0039940010174,8.0,0.0,part_2,go,300.0,350.0,1.0,,,,,,,,,blue,I
0.0,2.0,2.0,0.0,6.0,6.0,349.8476479981036,8.0,0.0,part_2,go,300.0,350.0,1.0,,,,,,,,,yellow,flipped triangle
0.0,5.0,1.0,1.0,6.0,6.0,313.8596509998024,8.0,0.0,part_2,go,300.0,350.0,1.0,,,,,,,,,gray,square
0.0,4.0,4.0,0.0,6.0,6.0,338.3648589988297,8.0,0.0,part_2,go,300.0,350.0,1.0,,,,,,,,,white,cross
0.0,1.0,1.0,0.0,6.0,6.0,366.8166310017113,8.0,0.0,part_2,go,300.0,350.0,1.0,,,,,,,,,green,diamond
0.0,8.0,4.0,1.0,5.0,0.0,0.0,8.0,0.0,part_2,stop,300.0,350.0,4.0,,,,,,,,,magenta,circle
0.0,1.0,1.0,0.0,5.0,5.0,618.2128239997837,8.0,0.0,part_2,go,350.0,350.0,1.0,,,,,,,,,green,diamond
0.0,2.0,2.0,0.0,5.0,5.0,493.723849998787,8.0,0.0,part_2,go,350.0,350.0,1.0,,,,,,,,,yellow,flipped triangle
0.0,5.0,1.0,1.0,5.0,5.0,424.6520650012826,8.0,0.0,part_2,stop,350.0,350.0,3.0,,,,,,,,,gray,square
0.0,2.0,2.0,0.0,6.0,6.0,472.0028869996895,8.0,0.0,part_2,go,300.0,350.0,1.0,,,,,,,,,yellow,flipped triangle
0.0,4.0,4.0,0.0,6.0,6.0,446.4496350010449,8.0,0.0,part_2,go,300.0,350.0,1.0,,,,,,,,,white,cross
0.0,8.0,4.0,1.0,5.0,0.0,0.0,8.0,0.0,part_2,stop,300.0,350.0,4.0,,,,,,,,,magenta,circle
0.0,8.0,4.0,1.0,5.0,0.0,0.0,8.0,0.0,part_2,stop,350.0,350.0,4.0,,,,,,,,,magenta,circle
0.0,7.0,3.0,1.0,5.0,5.0,492.6190980004321,8.0,0.0,part_2,go,400.0,350.0,1.0,,,,,,,,,cyan,triangle
0.0,5.0,1.0,1.0,5.0,5.0,521.7443439978524,8.0,0.0,part_2,stop,400.0,350.0,3.0,,,,,,,,,gray,square
0.0,1.0,1.0,0.0,6.0,6.0,371.6857219988014,8.0,0.0,part_2,go,350.0,350.0,1.0,,,,,,,,,green,diamond
0.0,2.0,2.0,0.0,6.0,6.0,439.0272680029738,8.0,0.0,part_2,go,350.0,350.0,1.0,,,,,,,,,yellow,flipped triangle
0.0,7.0,3.0,1.0,7.0,4.0,787.4973420002789,1.0,2.0,part_3,go,0.0,0.0,0.0,196.0,4.0,49.0,147.0,294.0,196.0,245.0,98.0,cyan,triangle
0.0,2.0,2.0,0.0,7.0,3.0,1611.1694990031538,1.0,1.0,part_3,go,0.0,0.0,0.0,78.0,2.0,39.0,156.0,78.0,234.0,195.0,117.0,yellow,flipped triangle
0.0,6.0,2.0,1.0,7.0,4.0,2427.4340350020793,1.0,1.0,part_3,go,0.0,0.0,0.0,88.0,2.0,132.0,176.0,264.0,88.0,220.0,44.0,orange,hexagon
0.0,8.0,4.0,1.0,7.0,6.0,2468.422879002901,1.0,1.0,part_3,go,0.0,0.0,0.0,264.0,6.0,88.0,44.0,132.0,220.0,176.0,264.0,magenta,circle
0.0,6.0,2.0,1.0,7.0,5.0,1472.13240900237,1.0,1.0,part_3,go,0.0,0.0,0.0,49.0,1.0,98.0,294.0,147.0,196.0,49.0,245.0,orange,hexagon
0.0,5.0,1.0,1.0,7.0,5.0,1493.5005650004314,1.0,1.0,part_3,go,0.0,0.0,0.0,34.0,1.0,170.0,136.0,102.0,68.0,34.0,204.0,gray,square
0.0,2.0,2.0,0.0,7.0,3.0,1998.144149998552,1.0,1.0,part_3,go,0.0,0.0,0.0,98.0,2.0,196.0,49.0,98.0,147.0,245.0,294.0,yellow,flipped triangle
0.0,1.0,1.0,0.0,7.0,5.0,2533.489681998617,1.0,1.0,part_3,go,0.0,0.0,0.0,34.0,1.0,170.0,102.0,68.0,204.0,34.0,136.0,green,diamond
0.0,6.0,2.0,1.0,7.0,5.0,1313.117883000814,1.0,1.0,part_3,go,0.0,0.0,0.0,78.0,2.0,234.0,156.0,117.0,195.0,78.0,39.0,orange,hexagon
0.0,4.0,4.0,0.0,7.0,5.0,2042.3231999993732,1.0,1.0,part_3,go,0.0,0.0,0.0,294.0,6.0,147.0,245.0,196.0,98.0,294.0,49.0,white,cross
0.0,1.0,1.0,0.0,7.0,5.0,2222.84257100182,1.0,1.0,part_3,go,0.0,0.0,0.0,39.0,1.0,78.0,156.0,195.0,117.0,39.0,234.0,green,diamond
0.0,6.0,2.0,1.0,7.0,4.0,1729.4791169988455,1.0,1.0,part_3,go,0.0,0.0,0.0,98.0,2.0,294.0,245.0,147.0,98.0,49.0,196.0,orange,hexagon
0.0,5.0,1.0,1.0,7.0,6.0,1985.2243219975207,1.0,1.0,part_3,go,0.0,0.0,0.0,39.0,1.0,78.0,195.0,117.0,234.0,156.0,39.0,gray,square
0.0,7.0,3.0,1.0,7.0,4.0,1391.156123001565,1.0,1.0,part_3,go,0.0,0.0,0.0,176.0,4.0,220.0,44.0,88.0,176.0,264.0,132.0,cyan,triangle
0.0,8.0,4.0,1.0,7.0,2.0,2223.1498870023643,1.0,1.0,part_3,go,0.0,0.0,0.0,270.0,5.0,324.0,270.0,54.0,162.0,108.0,216.0,magenta,circle
0.0,1.0,1.0,0.0,7.0,5.0,3030.5577899998752,1.0,1.0,part_3,go,0.0,0.0,0.0,156.0,4.0,234.0,195.0,117.0,78.0,156.0,39.0,green,diamond
0.0,8.0,4.0,1.0,7.0,3.0,2375.7486419999623,1.0,1.0,part_3,go,0.0,0.0,0.0,264.0,6.0,88.0,44.0,264.0,220.0,132.0,176.0,magenta,circle
0.0,4.0,4.0,0.0,7.0,6.0,1829.1132119993565,1.0,1.0,part_3,go,0.0,0.0,0.0,204.0,6.0,68.0,170.0,102.0,136.0,34.0,204.0,white,cross
0.0,5.0,1.0,1.0,7.0,3.0,1495.086421000451,1.0,1.0,part_3,go,0.0,0.0,0.0,34.0,1.0,204.0,102.0,34.0,170.0,136.0,68.0,gray,square
0.0,1.0,1.0,0.0,7.0,2.0,1400.8462839992717,1.0,1.0,part_3,go,0.0,0.0,0.0,49.0,1.0,98.0,49.0,147.0,294.0,245.0,196.0,green,diamond
0.0,1.0,1.0,0.0,7.0,5.0,1122.0625459973237,2.0,1.0,part_3,go,0.0,0.0,0.0,34.0,1.0,102.0,170.0,68.0,136.0,34.0,204.0,green,diamond
0.0,1.0,1.0,0.0,7.0,4.0,1235.6391079993043,2.0,1.0,part_3,go,0.0,0.0,0.0,54.0,1.0,216.0,270.0,108.0,54.0,162.0,324.0,green,diamond
0.0,5.0,1.0,1.0,7.0,6.0,1097.224225002719,2.0,1.0,part_3,go,0.0,0.0,0.0,54.0,1.0,162.0,270.0,108.0,216.0,324.0,54.0,gray,square
0.0,7.0,3.0,1.0,7.0,3.0,2121.5964449984313,2.0,1.0,part_3,go,0.0,0.0,0.0,108.0,2.0,54.0,162.0,108.0,270.0,324.0,216.0,cyan,triangle
0.0,3.0,3.0,0.0,7.0,4.0,1383.5348100001283,2.0,1.0,part_3,go,0.0,0.0,0.0,162.0,3.0,324.0,270.0,216.0,162.0,108.0,54.0,blue,I
0.0,1.0,1.0,0.0,7.0,6.0,1672.3431300015363,2.0,1.0,part_3,go,0.0,0.0,0.0,44.0,1.0,220.0,176.0,132.0,264.0,88.0,44.0,green,diamond
0.0,3.0,3.0,0.0,7.0,2.0,1977.294050000637,2.0,1.0,part_3,go,0.0,0.0,0.0,136.0,4.0,34.0,136.0,102.0,68.0,170.0,204.0,blue,I
0.0,3.0,3.0,0.0,7.0,3.0,1366.5170040003431,2.0,1.0,part_3,go,0.0,0.0,0.0,136.0,4.0,68.0,102.0,136.0,170.0,34.0,204.0,blue,I
0.0,2.0,2.0,0.0,7.0,5.0,1623.818060998019,2.0,1.0,part_3,go,0.0,0.0,0.0,108.0,2.0,216.0,270.0,162.0,324.0,108.0,54.0,yellow,flipped triangle
0.0,6.0,2.0,1.0,7.0,5.0,822.6882830022078,2.0,1.0,part_3,go,0.0,0.0,0.0,68.0,2.0,102.0,34.0,136.0,204.0,68.0,170.0,orange,hexagon
0.0,7.0,3.0,1.0,7.0,6.0,902.5392759976968,2.0,1.0,part_3,go,0.0,0.0,0.0,176.0,4.0,132.0,44.0,88.0,264.0,220.0,176.0,cyan,triangle
0.0,8.0,4.0,1.0,7.0,6.0,1118.1642489973456,2.0,1.0,part_3,go,0.0,0.0,0.0,204.0,6.0,34.0,136.0,68.0,102.0,170.0,204.0,magenta,circle
0.0,3.0,3.0,0.0,7.0,5.0,2639.500198998576,2.0,1.0,part_3,go,0.0,0.0,0.0,98.0,2.0,196.0,245.0,294.0,147.0,98.0,49.0,blue,I
0.0,3.0,3.0,0.0,7.0,5.0,919.164973001898,2.0,1.0,part_3,go,0.0,0.0,0.0,117.0,3.0,78.0,234.0,156.0,39.0,117.0,195.0,blue,I
0.0,6.0,2.0,1.0,7.0,6.0,1103.342482001608,2.0,1.0,part_3,go,0.0,0.0,0.0,54.0,1.0,270.0,162.0,108.0,216.0,324.0,54.0,orange,hexagon
0.0,7.0,3.0,1.0,7.0,5.0,1728.4541780027212,2.0,1.0,part_3,go,0.0,0.0,0.0,196.0,4.0,49.0,147.0,294.0,245.0,196.0,98.0,cyan,triangle
0.0,8.0,4.0,1.0,7.0,3.0,2071.193690000655,2.0,1.0,part_3,go,0.0,0.0,0.0,234.0,6.0,39.0,195.0,234.0,78.0,117.0,156.0,magenta,circle
0.0,8.0,4.0,1.0,7.0,2.0,2323.387989999901,2.0,1.0,part_3,go,0.0,0.0,0.0,245.0,5.0,98.0,245.0,49.0,294.0,147.0,196.0,magenta,circle
0.0,6.0,2.0,1.0,7.0,2.0,2307.543325001461,2.0,1.0,part_3,go,0.0,0.0,0.0,78.0,2.0,234.0,78.0,156.0,39.0,117.0,195.0,orange,hexagon
0.0,3.0,3.0,0.0,7.0,3.0,1614.1451820003567,2.0,1.0,part_3,go,0.0,0.0,0.0,132.0,3.0,264.0,176.0,132.0,88.0,44.0,220.0,blue,I
0.0,2.0,2.0,0.0,7.0,1.0,2039.5280659977288,3.0,1.0,part_3,go,0.0,0.0,0.0,98.0,2.0,98.0,49.0,245.0,196.0,147.0,294.0,yellow,flipped triangle
0.0,7.0,3.0,1.0,7.0,6.0,875.5609639993054,3.0,1.0,part_3,go,0.0,0.0,0.0,117.0,3.0,156.0,78.0,195.0,39.0,234.0,117.0,cyan,triangle
0.0,2.0,2.0,0.0,7.0,1.0,1135.5812570000126,3.0,1.0,part_3,go,0.0,0.0,0.0,88.0,2.0,88.0,44.0,176.0,264.0,220.0,132.0,yellow,flipped triangle
0.0,2.0,2.0,0.0,7.0,1.0,1288.592802000494,3.0,1.0,part_3,go,0.0,0.0,0.0,68.0,2.0,68.0,102.0,136.0,170.0,204.0,34.0,yellow,flipped triangle
0.0,6.0,2.0,1.0,7.0,5.0,996.69589000041,3.0,1.0,part_3,go,0.0,0.0,0.0,108.0,2.0,162.0,270.0,324.0,54.0,108.0,216.0,orange,hexagon
0.0,8.0,4.0,1.0,7.0,3.0,1965.4488619999029,3.0,1.0,part_3,go,0.0,0.0,0.0,245.0,5.0,49.0,294.0,245.0,147.0,196.0,98.0,magenta,circle
0.0,7.0,3.0,1.0,7.0,4.0,2107.2647019973374,3.0,1.0,part_3,go,0.0,0.0,0.0,170.0,5.0,34.0,102.0,136.0,170.0,204.0,68.0,cyan,triangle
0.0,5.0,1.0,1.0,7.0,1.0,945.7086000002164,3.0,1.0,part_3,go,0.0,0.0,0.0,44.0,1.0,44.0,220.0,88.0,264.0,176.0,132.0,gray,square
0.0,3.0,3.0,0.0,7.0,4.0,1642.9841479985043,3.0,1.0,part_3,go,0.0,0.0,0.0,117.0,3.0,234.0,195.0,39.0,117.0,156.0,78.0,blue,I
0.0,4.0,4.0,0.0,7.0,2.0,1489.644988996588,3.0,1.0,part_3,go,0.0,0.0,0.0,234.0,6.0,117.0,234.0,39.0,195.0,78.0,156.0,white,cross
0.0,6.0,2.0,1.0,7.0,3.0,1830.851145998167,3.0,1.0,part_3,go,0.0,0.0,0.0,44.0,1.0,220.0,264.0,44.0,132.0,88.0,176.0,orange,hexagon
0.0,4.0,4.0,0.0,7.0,2.0,1704.3245989989373,3.0,1.0,part_3,go,0.0,0.0,0.0,324.0,6.0,108.0,324.0,162.0,216.0,270.0,54.0,white,cross
0.0,5.0,1.0,1.0,7.0,4.0,1362.0021939968865,3.0,1.0,part_3,go,0.0,0.0,0.0,49.0,1.0,196.0,294.0,98.0,49.0,245.0,147.0,gray,square
0.0,8.0,4.0,1.0,7.0,1.0,1554.2760099997397,3.0,1.0,part_3,go,0.0,0.0,0.0,204.0,6.0,204.0,34.0,170.0,136.0,68.0,102.0,magenta,circle
0.0,3.0,3.0,0.0,7.0,4.0,1638.230385000497,3.0,1.0,part_3,go,0.0,0.0,0.0,162.0,3.0,216.0,324.0,108.0,162.0,270.0,54.0,blue,I
0.0,1.0,1.0,0.0,7.0,3.0,1880.0105939990317,3.0,1.0,part_3,go,0.0,0.0,0.0,44.0,1.0,132.0,176.0,44.0,88.0,264.0,220.0,green,diamond
0.0,4.0,4.0,0.0,7.0,1.0,1349.462460999348,3.0,1.0,part_3,go,0.0,0.0,0.0,234.0,6.0,234.0,39.0,156.0,117.0,78.0,195.0,white,cross
0.0,5.0,1.0,1.0,7.0,2.0,1231.0747600022296,3.0,1.0,part_3,go,0.0,0.0,0.0,44.0,1.0,176.0,44.0,88.0,264.0,220.0,132.0,gray,square
0.0,8.0,4.0,1.0,7.0,4.0,1921.4103230006003,3.0,1.0,part_3,go,0.0,0.0,0.0,324.0,6.0,108.0,270.0,216.0,324.0,162.0,54.0,magenta,circle
0.0,8.0,4.0,1.0,7.0,6.0,1501.4402180022444,3.0,1.0,part_3,go,0.0,0.0,0.0,234.0,6.0,78.0,156.0,117.0,39.0,195.0,234.0,magenta,circle
0.0,4.0,4.0,0.0,7.0,4.0,1481.1574060004205,4.0,1.0,part_3,go,0.0,0.0,0.0,204.0,6.0,102.0,136.0,34.0,204.0,170.0,68.0,white,cross
0.0,4.0,4.0,0.0,7.0,4.0,990.102752999519,4.0,1.0,part_3,go,0.0,0.0,0.0,294.0,6.0,196.0,245.0,98.0,294.0,147.0,49.0,white,cross
0.0,2.0,2.0,0.0,7.0,4.0,1750.182636998943,4.0,1.0,part_3,go,0.0,0.0,0.0,108.0,2.0,270.0,54.0,216.0,108.0,324.0,162.0,yellow,flipped triangle
0.0,5.0,1.0,1.0,7.0,5.0,827.3464169978979,4.0,1.0,part_3,go,0.0,0.0,0.0,39.0,1.0,195.0,234.0,156.0,117.0,39.0,78.0,gray,square
0.0,4.0,4.0,0.0,7.0,2.0,2150.9538479986077,4.0,1.0,part_3,go,0.0,0.0,0.0,324.0,6.0,162.0,324.0,270.0,54.0,108.0,216.0,white,cross
0.0,2.0,2.0,0.0,7.0,4.0,2028.2189390018175,4.0,1.0,part_3,go,0.0,0.0,0.0,78.0,2.0,234.0,156.0,39.0,78.0,117.0,195.0,yellow,flipped triangle
0.0,5.0,1.0,1.0,7.0,3.0,1624.3072829965968,4.0,1.0,part_3,go,0.0,0.0,0.0,49.0,1.0,294.0,196.0,49.0,98.0,245.0,147.0,gray,square
0.0,7.0,3.0,1.0,7.0,1.0,2253.9779110011295,4.0,1.0,part_3,go,0.0,0.0,0.0,195.0,5.0,195.0,78.0,156.0,39.0,117.0,234.0,cyan,triangle
0.0,5.0,1.0,1.0,7.0,2.0,1536.372885999299,4.0,1.0,part_3,go,0.0,0.0,0.0,54.0,1.0,324.0,54.0,216.0,108.0,162.0,270.0,gray,square
0.0,4.0,4.0,0.0,7.0,3.0,1634.182335001242,4.0,1.0,part_3,go,0.0,0.0,0.0,220.0,5.0,264.0,176.0,220.0,44.0,88.0,132.0,white,cross
0.0,1.0,1.0,0.0,7.0,1.0,2100.1641909970203,4.0,1.0,part_3,go,0.0,0.0,0.0,49.0,1.0,49.0,294.0,147.0,245.0,98.0,196.0,green,diamond
0.0,3.0,3.0,0.0,7.0,5.0,2434.3840590008767,4.0,1.0,part_3,go,0.0,0.0,0.0,132.0,3.0,88.0,176.0,220.0,44.0,132.0,264.0,blue,I
0.0,2.0,2.0,0.0,7.0,3.0,1456.7458870005794,4.0,1.0,part_3,go,0.0,0.0,0.0,68.0,2.0,136.0,102.0,68.0,204.0,170.0,34.0,yellow,flipped triangle
0.0,7.0,3.0,1.0,7.0,5.0,2230.192573999375,4.0,1.0,part_3,go,0.0,0.0,0.0,162.0,3.0,216.0,54.0,324.0,108.0,162.0,270.0,cyan,triangle
0.0,2.0,2.0,0.0,7.0,2.0,2084.3093100011174,4.0,1.0,part_3,go,0.0,0.0,0.0,88.0,2.0,44.0,88.0,132.0,176.0,220.0,264.0,yellow,flipped triangle
0.0,6.0,2.0,1.0,7.0,3.0,2080.2225600018573,4.0,1.0,part_3,go,0.0,0.0,0.0,68.0,2.0,136.0,34.0,68.0,102.0,204.0,170.0,orange,hexagon
0.0,1.0,1.0,0.0,7.0,1.0,1146.8148319981992,4.0,1.0,part_3,go,0.0,0.0,0.0,54.0,1.0,54.0,324.0,216.0,162.0,270.0,108.0,green,diamond
0.0,7.0,3.0,1.0,7.0,4.0,2902.214087000175,4.0,1.0,part_3,go,0.0,0.0,0.0,170.0,5.0,204.0,136.0,68.0,170.0,34.0,102.0,cyan,triangle
0.0,4.0,4.0,0.0,7.0,3.0,1591.6743550005776,4.0,1.0,part_3,go,0.0,0.0,0.0,220.0,5.0,264.0,132.0,220.0,176.0,88.0,44.0,white,cross
0.0,3.0,3.0,0.0,7.0,5.0,1428.950902998622,4.0,1.0,part_3,go,0.0,0.0,0.0,245.0,5.0,98.0,294.0,147.0,49.0,245.0,196.0,blue,I
