raw_reward_magnitude,stim_reward,stepwise_reward_magnitude,paired_with_stopping,stim_location,response,reaction_time,block,num_trial_presentations,which_phase,stop_signal_trial_type,left_SSD,right_SSD,accuracy,chosen_bidding_amount,chosen_bidding_level,possible_bid_1,possible_bid_2,possible_bid_3,possible_bid_4,possible_bid_5,possible_bid_6,color_text,shape_text
199.0,7.0,2.0,1.0,1.0,1.0,486.7301649999263,1.0,1.0,phase_1,,,,,,,,,,,,,green,square
424.0,4.0,4.0,0.0,2.0,2.0,474.19069700004,1.0,1.0,phase_1,,,,,,,,,,,,,blue,flipped triangle
100.0,2.0,1.0,0.0,2.0,2.0,581.9126809999489,1.0,1.0,phase_1,,,,,,,,,,,,,yellow,circle
405.0,4.0,4.0,0.0,2.0,2.0,384.1857709999203,1.0,1.0,phase_1,,,,,,,,,,,,,blue,flipped triangle
0.0,1.0,0.0,0.0,1.0,1.0,426.2005269999918,1.0,1.0,phase_1,,,,,,,,,,,,,magenta,cross
410.0,4.0,4.0,0.0,3.0,3.0,498.5080819999439,1.0,1.0,phase_1,,,,,,,,,,,,,blue,flipped triangle
378.0,4.0,4.0,0.0,1.0,1.0,507.51712999999654,1.0,1.0,phase_1,,,,,,,,,,,,,blue,flipped triangle
408.0,4.0,4.0,0.0,3.0,3.0,537.3937589999969,1.0,1.0,phase_1,,,,,,,,,,,,,blue,flipped triangle
35.0,5.0,0.5,1.0,2.0,2.0,524.1795370002365,1.0,1.0,phase_1,,,,,,,,,,,,,gray,hexagon
206.0,3.0,2.0,0.0,1.0,1.0,432.6769029999013,1.0,1.0,phase_1,,,,,,,,,,,,,cyan,diamond
100.0,2.0,1.0,0.0,3.0,3.0,560.7145230001152,1.0,1.0,phase_1,,,,,,,,,,,,,yellow,circle
420.0,8.0,4.0,1.0,3.0,3.0,665.7841760002157,1.0,1.0,phase_1,,,,,,,,,,,,,orange,I
31.0,5.0,0.5,1.0,1.0,1.0,574.9096839999766,1.0,1.0,phase_1,,,,,,,,,,,,,gray,hexagon
176.0,7.0,2.0,1.0,2.0,2.0,544.1074760001356,1.0,1.0,phase_1,,,,,,,,,,,,,green,square
52.0,5.0,0.5,1.0,4.0,4.0,651.3963809998131,1.0,1.0,phase_1,,,,,,,,,,,,,gray,hexagon
107.0,6.0,1.0,1.0,4.0,4.0,524.4677949999641,1.0,1.0,phase_1,,,,,,,,,,,,,white,triangle
182.0,7.0,2.0,1.0,1.0,1.0,461.1706390001018,1.0,1.0,phase_1,,,,,,,,,,,,,green,square
48.0,5.0,0.5,1.0,4.0,4.0,549.60422799968,1.0,1.0,phase_1,,,,,,,,,,,,,gray,hexagon
69.0,5.0,0.5,1.0,4.0,4.0,480.1260659996842,1.0,1.0,phase_1,,,,,,,,,,,,,gray,hexagon
44.0,5.0,0.5,1.0,4.0,4.0,404.8092580001139,1.0,1.0,phase_1,,,,,,,,,,,,,gray,hexagon
404.0,8.0,4.0,1.0,1.0,1.0,509.2382259999795,1.0,1.0,phase_1,,,,,,,,,,,,,orange,I
57.0,1.0,0.5,0.0,3.0,3.0,666.406674999962,1.0,1.0,phase_1,,,,,,,,,,,,,magenta,cross
0.0,5.0,0.0,1.0,2.0,2.0,547.7839369996218,1.0,1.0,phase_1,,,,,,,,,,,,,gray,hexagon
411.0,8.0,4.0,1.0,3.0,3.0,563.6668539996208,1.0,1.0,phase_1,,,,,,,,,,,,,orange,I
93.0,2.0,1.0,0.0,3.0,3.0,543.2368709998627,1.0,1.0,phase_1,,,,,,,,,,,,,yellow,circle
199.0,3.0,2.0,0.0,2.0,2.0,583.6062929997752,1.0,1.0,phase_1,,,,,,,,,,,,,cyan,diamond
40.0,5.0,0.5,1.0,2.0,2.0,745.0826360000065,1.0,1.0,phase_1,,,,,,,,,,,,,gray,hexagon
387.0,4.0,4.0,0.0,2.0,2.0,551.2288100003389,1.0,1.0,phase_1,,,,,,,,,,,,,blue,flipped triangle
0.0,6.0,0.0,1.0,4.0,4.0,561.6659769998478,1.0,1.0,phase_1,,,,,,,,,,,,,white,triangle
54.0,5.0,0.5,1.0,4.0,4.0,507.78044400021827,1.0,1.0,phase_1,,,,,,,,,,,,,gray,hexagon
378.0,4.0,4.0,0.0,2.0,2.0,470.7068309999158,1.0,1.0,phase_1,,,,,,,,,,,,,blue,flipped triangle
0.0,4.0,0.0,0.0,3.0,3.0,574.9523109998336,1.0,1.0,phase_1,,,,,,,,,,,,,blue,flipped triangle
110.0,2.0,1.0,0.0,1.0,1.0,489.7601650000069,1.0,1.0,phase_1,,,,,,,,,,,,,yellow,circle
418.0,4.0,4.0,0.0,2.0,2.0,337.9146000002038,1.0,1.0,phase_1,,,,,,,,,,,,,blue,flipped triangle
0.0,4.0,0.0,0.0,4.0,4.0,305.9473990001606,1.0,1.0,phase_1,,,,,,,,,,,,,blue,flipped triangle
418.0,4.0,4.0,0.0,4.0,4.0,675.9771910001291,1.0,1.0,phase_1,,,,,,,,,,,,,blue,flipped triangle
111.0,2.0,1.0,0.0,4.0,4.0,550.6383189999724,1.0,1.0,phase_1,,,,,,,,,,,,,yellow,circle
0.0,4.0,0.0,0.0,1.0,1.0,527.906196999993,1.0,1.0,phase_1,,,,,,,,,,,,,blue,flipped triangle
403.0,4.0,4.0,0.0,3.0,3.0,505.2952080000068,1.0,1.0,phase_1,,,,,,,,,,,,,blue,flipped triangle
32.0,5.0,0.5,1.0,3.0,3.0,487.030698000126,1.0,1.0,phase_1,,,,,,,,,,,,,gray,hexagon
93.0,2.0,1.0,0.0,4.0,4.0,543.4306289998858,1.0,1.0,phase_1,,,,,,,,,,,,,yellow,circle
66.0,1.0,0.5,0.0,2.0,2.0,461.4588790000198,1.0,1.0,phase_1,,,,,,,,,,,,,magenta,cross
47.0,5.0,0.5,1.0,3.0,3.0,437.6962149999599,1.0,1.0,phase_1,,,,,,,,,,,,,gray,hexagon
0.0,8.0,0.0,1.0,4.0,4.0,580.7364120000784,1.0,1.0,phase_1,,,,,,,,,,,,,orange,I
0.0,3.0,0.0,0.0,3.0,3.0,484.9562159997731,1.0,1.0,phase_1,,,,,,,,,,,,,cyan,diamond
387.0,8.0,4.0,1.0,2.0,2.0,504.69246299962833,1.0,1.0,phase_1,,,,,,,,,,,,,orange,I
0.0,5.0,0.0,1.0,4.0,4.0,507.2882140002548,1.0,1.0,phase_1,,,,,,,,,,,,,gray,hexagon
68.0,5.0,0.5,1.0,1.0,1.0,500.3347409997332,1.0,1.0,phase_1,,,,,,,,,,,,,gray,hexagon
0.0,7.0,0.0,1.0,4.0,4.0,429.7203950000039,1.0,1.0,phase_1,,,,,,,,,,,,,green,square
0.0,6.0,0.0,1.0,3.0,3.0,502.4211740001192,1.0,1.0,phase_1,,,,,,,,,,,,,white,triangle
186.0,3.0,2.0,0.0,1.0,1.0,512.01685299975,1.0,1.0,phase_1,,,,,,,,,,,,,cyan,diamond
384.0,8.0,4.0,1.0,1.0,1.0,474.2272560001765,1.0,1.0,phase_1,,,,,,,,,,,,,orange,I
0.0,8.0,0.0,1.0,4.0,4.0,478.0929939997804,1.0,1.0,phase_1,,,,,,,,,,,,,orange,I
0.0,8.0,0.0,1.0,3.0,3.0,721.3604809999197,1.0,1.0,phase_1,,,,,,,,,,,,,orange,I
394.0,8.0,4.0,1.0,1.0,1.0,749.084774000039,1.0,1.0,phase_1,,,,,,,,,,,,,orange,I
0.0,6.0,0.0,1.0,3.0,3.0,742.011365000053,1.0,1.0,phase_1,,,,,,,,,,,,,white,triangle
414.0,4.0,4.0,0.0,3.0,3.0,567.1251740000116,1.0,1.0,phase_1,,,,,,,,,,,,,blue,flipped triangle
89.0,6.0,1.0,1.0,3.0,3.0,479.8396189999039,1.0,1.0,phase_1,,,,,,,,,,,,,white,triangle
75.0,5.0,0.5,1.0,3.0,3.0,570.6593700001577,1.0,1.0,phase_1,,,,,,,,,,,,,gray,hexagon
82.0,6.0,1.0,1.0,1.0,1.0,649.788503000309,1.0,1.0,phase_1,,,,,,,,,,,,,white,triangle
62.0,5.0,0.5,1.0,3.0,3.0,573.0758740000965,1.0,1.0,phase_1,,,,,,,,,,,,,gray,hexagon
93.0,6.0,1.0,1.0,3.0,3.0,584.2871330000889,1.0,1.0,phase_1,,,,,,,,,,,,,white,triangle
188.0,3.0,2.0,0.0,1.0,1.0,481.5470319999804,1.0,1.0,phase_1,,,,,,,,,,,,,cyan,diamond
190.0,7.0,2.0,1.0,1.0,1.0,391.1390560001564,1.0,1.0,phase_1,,,,,,,,,,,,,green,square
207.0,7.0,2.0,1.0,4.0,4.0,459.1187349997199,1.0,1.0,phase_1,,,,,,,,,,,,,green,square
224.0,7.0,2.0,1.0,2.0,2.0,512.7260179997393,1.0,1.0,phase_1,,,,,,,,,,,,,green,square
82.0,2.0,1.0,0.0,4.0,4.0,417.2989290000259,1.0,1.0,phase_1,,,,,,,,,,,,,yellow,circle
416.0,8.0,4.0,1.0,4.0,4.0,460.2152669999668,1.0,1.0,phase_1,,,,,,,,,,,,,orange,I
85.0,2.0,1.0,0.0,3.0,3.0,426.994256999933,1.0,1.0,phase_1,,,,,,,,,,,,,yellow,circle
122.0,2.0,1.0,0.0,1.0,1.0,546.4158649997444,1.0,1.0,phase_1,,,,,,,,,,,,,yellow,circle
223.0,3.0,2.0,0.0,3.0,3.0,466.7722479998701,1.0,1.0,phase_1,,,,,,,,,,,,,cyan,diamond
72.0,1.0,0.5,0.0,2.0,2.0,485.9287270001005,1.0,1.0,phase_1,,,,,,,,,,,,,magenta,cross
85.0,6.0,1.0,1.0,3.0,3.0,495.0418720000016,1.0,1.0,phase_1,,,,,,,,,,,,,white,triangle
76.0,2.0,1.0,0.0,2.0,2.0,460.792979999951,1.0,1.0,phase_1,,,,,,,,,,,,,yellow,circle
114.0,6.0,1.0,1.0,3.0,3.0,426.1887189995832,1.0,1.0,phase_1,,,,,,,,,,,,,white,triangle
200.0,3.0,2.0,0.0,3.0,3.0,464.0267710001353,1.0,1.0,phase_1,,,,,,,,,,,,,cyan,diamond
0.0,4.0,0.0,0.0,1.0,1.0,526.7705809997096,1.0,1.0,phase_1,,,,,,,,,,,,,blue,flipped triangle
0.0,2.0,0.0,0.0,1.0,1.0,591.3031350000892,1.0,1.0,phase_1,,,,,,,,,,,,,yellow,circle
216.0,3.0,2.0,0.0,3.0,3.0,553.0709080003362,1.0,1.0,phase_1,,,,,,,,,,,,,cyan,diamond
418.0,8.0,4.0,1.0,1.0,1.0,518.6550550001812,1.0,1.0,phase_1,,,,,,,,,,,,,orange,I
116.0,6.0,1.0,1.0,4.0,4.0,523.0438030002915,1.0,1.0,phase_1,,,,,,,,,,,,,white,triangle
221.0,7.0,2.0,1.0,4.0,4.0,464.5605369996701,1.0,1.0,phase_1,,,,,,,,,,,,,green,square
418.0,8.0,4.0,1.0,1.0,1.0,633.0383740000798,1.0,1.0,phase_1,,,,,,,,,,,,,orange,I
394.0,8.0,4.0,1.0,3.0,3.0,492.673995000132,1.0,1.0,phase_1,,,,,,,,,,,,,orange,I
76.0,6.0,1.0,1.0,1.0,1.0,538.5513700002775,1.0,1.0,phase_1,,,,,,,,,,,,,white,triangle
211.0,7.0,2.0,1.0,3.0,3.0,618.3175799997116,1.0,1.0,phase_1,,,,,,,,,,,,,green,square
84.0,2.0,1.0,0.0,1.0,1.0,431.7431120002766,1.0,1.0,phase_1,,,,,,,,,,,,,yellow,circle
61.0,5.0,0.5,1.0,4.0,4.0,526.5044709999529,1.0,1.0,phase_1,,,,,,,,,,,,,gray,hexagon
0.0,1.0,0.0,0.0,1.0,1.0,450.7922970001345,1.0,1.0,phase_1,,,,,,,,,,,,,magenta,cross
381.0,8.0,4.0,1.0,3.0,3.0,582.0947000001979,1.0,1.0,phase_1,,,,,,,,,,,,,orange,I
112.0,6.0,1.0,1.0,1.0,1.0,582.4454450003032,1.0,1.0,phase_1,,,,,,,,,,,,,white,triangle
57.0,5.0,0.5,1.0,3.0,3.0,550.1606660000107,1.0,1.0,phase_1,,,,,,,,,,,,,gray,hexagon
408.0,8.0,4.0,1.0,4.0,4.0,571.3550120003674,1.0,1.0,phase_1,,,,,,,,,,,,,orange,I
122.0,6.0,1.0,1.0,4.0,4.0,603.7027319998742,1.0,1.0,phase_1,,,,,,,,,,,,,white,triangle
113.0,6.0,1.0,1.0,2.0,2.0,450.4387239999232,1.0,1.0,phase_1,,,,,,,,,,,,,white,triangle
376.0,4.0,4.0,0.0,2.0,2.0,467.2523340000225,1.0,1.0,phase_1,,,,,,,,,,,,,blue,flipped triangle
51.0,1.0,0.5,0.0,4.0,4.0,435.11551800020237,1.0,1.0,phase_1,,,,,,,,,,,,,magenta,cross
48.0,1.0,0.5,0.0,1.0,1.0,587.0128880001175,1.0,1.0,phase_1,,,,,,,,,,,,,magenta,cross
398.0,4.0,4.0,0.0,2.0,2.0,445.6977629997709,1.0,1.0,phase_1,,,,,,,,,,,,,blue,flipped triangle
191.0,7.0,2.0,1.0,2.0,2.0,525.1900549997117,1.0,1.0,phase_1,,,,,,,,,,,,,green,square
0.0,7.0,0.0,1.0,1.0,1.0,606.8979199999376,2.0,1.0,phase_1,,,,,,,,,,,,,green,square
392.0,4.0,4.0,0.0,2.0,2.0,411.6934749999927,2.0,1.0,phase_1,,,,,,,,,,,,,blue,flipped triangle
223.0,7.0,2.0,1.0,4.0,4.0,534.0656790003777,2.0,1.0,phase_1,,,,,,,,,,,,,green,square
404.0,4.0,4.0,0.0,3.0,3.0,617.294948000108,2.0,1.0,phase_1,,,,,,,,,,,,,blue,flipped triangle
224.0,7.0,2.0,1.0,3.0,3.0,509.48507799967047,2.0,1.0,phase_1,,,,,,,,,,,,,green,square
122.0,2.0,1.0,0.0,1.0,1.0,397.8510019996975,2.0,1.0,phase_1,,,,,,,,,,,,,yellow,circle
27.0,5.0,0.5,1.0,1.0,1.0,510.06622899967624,2.0,1.0,phase_1,,,,,,,,,,,,,gray,hexagon
0.0,7.0,0.0,1.0,3.0,3.0,691.7810919999283,2.0,1.0,phase_1,,,,,,,,,,,,,green,square
0.0,3.0,0.0,0.0,1.0,1.0,636.0380629998872,2.0,1.0,phase_1,,,,,,,,,,,,,cyan,diamond
197.0,3.0,2.0,0.0,2.0,2.0,517.616621000343,2.0,1.0,phase_1,,,,,,,,,,,,,cyan,diamond
221.0,3.0,2.0,0.0,3.0,3.0,558.8426630001777,2.0,1.0,phase_1,,,,,,,,,,,,,cyan,diamond
103.0,2.0,1.0,0.0,4.0,4.0,691.0714300001928,2.0,1.0,phase_1,,,,,,,,,,,,,yellow,circle
0.0,5.0,0.0,1.0,4.0,4.0,750.4285119998713,2.0,1.0,phase_1,,,,,,,,,,,,,gray,hexagon
96.0,6.0,1.0,1.0,2.0,2.0,869.2039689999547,2.0,1.0,phase_1,,,,,,,,,,,,,white,triangle
223.0,7.0,2.0,1.0,3.0,3.0,919.356597999922,2.0,1.0,phase_1,,,,,,,,,,,,,green,square
209.0,3.0,2.0,0.0,3.0,3.0,407.4539059997732,2.0,2.0,phase_1,,,,,,,,,,,,,cyan,diamond
92.0,2.0,1.0,0.0,2.0,2.0,422.9110910000599,2.0,1.0,phase_1,,,,,,,,,,,,,yellow,circle
410.0,8.0,4.0,1.0,4.0,4.0,438.6371900000085,2.0,1.0,phase_1,,,,,,,,,,,,,orange,I
177.0,7.0,2.0,1.0,3.0,3.0,496.9198569997388,2.0,1.0,phase_1,,,,,,,,,,,,,green,square
0.0,8.0,0.0,1.0,2.0,2.0,365.6115300000238,2.0,1.0,phase_1,,,,,,,,,,,,,orange,I
188.0,7.0,2.0,1.0,2.0,2.0,571.7709699997613,2.0,1.0,phase_1,,,,,,,,,,,,,green,square
0.0,5.0,0.0,1.0,3.0,3.0,375.5102339996483,2.0,1.0,phase_1,,,,,,,,,,,,,gray,hexagon
124.0,2.0,1.0,0.0,3.0,3.0,490.5151879997902,2.0,1.0,phase_1,,,,,,,,,,,,,yellow,circle
33.0,1.0,0.5,0.0,1.0,1.0,438.3347829998456,2.0,1.0,phase_1,,,,,,,,,,,,,magenta,cross
35.0,1.0,0.5,0.0,2.0,2.0,394.7790279999026,2.0,1.0,phase_1,,,,,,,,,,,,,magenta,cross
187.0,7.0,2.0,1.0,4.0,4.0,486.0282340000594,2.0,1.0,phase_1,,,,,,,,,,,,,green,square
0.0,8.0,0.0,1.0,2.0,2.0,350.4495649999626,2.0,1.0,phase_1,,,,,,,,,,,,,orange,I
200.0,7.0,2.0,1.0,3.0,3.0,487.8306679997877,2.0,1.0,phase_1,,,,,,,,,,,,,green,square
114.0,2.0,1.0,0.0,2.0,2.0,347.2616260000905,2.0,1.0,phase_1,,,,,,,,,,,,,yellow,circle
415.0,4.0,4.0,0.0,4.0,4.0,386.6143549998924,2.0,1.0,phase_1,,,,,,,,,,,,,blue,flipped triangle
225.0,3.0,2.0,0.0,4.0,4.0,536.2428089997593,2.0,1.0,phase_1,,,,,,,,,,,,,cyan,diamond
0.0,5.0,0.0,1.0,4.0,4.0,409.1441589998794,2.0,1.0,phase_1,,,,,,,,,,,,,gray,hexagon
0.0,3.0,0.0,0.0,1.0,1.0,517.8747400000248,2.0,1.0,phase_1,,,,,,,,,,,,,cyan,diamond
392.0,8.0,4.0,1.0,2.0,2.0,503.3960539999498,2.0,1.0,phase_1,,,,,,,,,,,,,orange,I
83.0,2.0,1.0,0.0,4.0,4.0,553.892770999937,2.0,1.0,phase_1,,,,,,,,,,,,,yellow,circle
0.0,8.0,0.0,1.0,1.0,1.0,591.4100699997107,2.0,1.0,phase_1,,,,,,,,,,,,,orange,I
65.0,5.0,0.5,1.0,2.0,2.0,501.7309119998572,2.0,1.0,phase_1,,,,,,,,,,,,,gray,hexagon
424.0,4.0,4.0,0.0,4.0,4.0,616.7814540003747,2.0,1.0,phase_1,,,,,,,,,,,,,blue,flipped triangle
31.0,1.0,0.5,0.0,2.0,2.0,467.7413350000279,2.0,1.0,phase_1,,,,,,,,,,,,,magenta,cross
194.0,3.0,2.0,0.0,4.0,4.0,572.6985800001785,2.0,1.0,phase_1,,,,,,,,,,,,,cyan,diamond
114.0,2.0,1.0,0.0,4.0,4.0,424.7654309997415,2.0,1.0,phase_1,,,,,,,,,,,,,yellow,circle
84.0,6.0,1.0,1.0,3.0,3.0,545.9516750001967,2.0,1.0,phase_1,,,,,,,,,,,,,white,triangle
0.0,6.0,0.0,1.0,1.0,1.0,490.3411800000867,2.0,1.0,phase_1,,,,,,,,,,,,,white,triangle
384.0,4.0,4.0,0.0,4.0,4.0,497.4208440003167,2.0,1.0,phase_1,,,,,,,,,,,,,blue,flipped triangle
393.0,8.0,4.0,1.0,2.0,2.0,406.6638910003348,2.0,1.0,phase_1,,,,,,,,,,,,,orange,I
223.0,3.0,2.0,0.0,3.0,3.0,690.8880740002132,2.0,1.0,phase_1,,,,,,,,,,,,,cyan,diamond
67.0,1.0,0.5,0.0,4.0,4.0,545.7912970000507,2.0,1.0,phase_1,,,,,,,,,,,,,magenta,cross
400.0,4.0,4.0,0.0,1.0,1.0,716.0399720000896,2.0,1.0,phase_1,,,,,,,,,,,,,blue,flipped triangle
0.0,6.0,0.0,1.0,2.0,2.0,425.3057920000174,2.0,1.0,phase_1,,,,,,,,,,,,,white,triangle
0.0,6.0,0.0,1.0,4.0,4.0,392.9196379999666,2.0,1.0,phase_1,,,,,,,,,,,,,white,triangle
38.0,5.0,0.5,1.0,2.0,2.0,483.8073519999852,2.0,1.0,phase_1,,,,,,,,,,,,,gray,hexagon
0.0,5.0,0.0,1.0,4.0,4.0,610.1970210002037,2.0,1.0,phase_1,,,,,,,,,,,,,gray,hexagon
69.0,5.0,0.5,1.0,2.0,2.0,690.4239919999782,2.0,1.0,phase_1,,,,,,,,,,,,,gray,hexagon
177.0,3.0,2.0,0.0,1.0,1.0,434.2249699998319,2.0,1.0,phase_1,,,,,,,,,,,,,cyan,diamond
211.0,3.0,2.0,0.0,1.0,1.0,536.1450770001284,2.0,1.0,phase_1,,,,,,,,,,,,,cyan,diamond
425.0,4.0,4.0,0.0,4.0,4.0,487.6089669996872,2.0,1.0,phase_1,,,,,,,,,,,,,blue,flipped triangle
92.0,6.0,1.0,1.0,2.0,2.0,439.8127330000534,2.0,1.0,phase_1,,,,,,,,,,,,,white,triangle
122.0,6.0,1.0,1.0,2.0,2.0,378.5571809999055,2.0,1.0,phase_1,,,,,,,,,,,,,white,triangle
188.0,3.0,2.0,0.0,2.0,2.0,500.25225399986084,2.0,1.0,phase_1,,,,,,,,,,,,,cyan,diamond
177.0,3.0,2.0,0.0,4.0,4.0,504.40829299986945,2.0,1.0,phase_1,,,,,,,,,,,,,cyan,diamond
69.0,1.0,0.5,0.0,4.0,4.0,492.6847800002178,2.0,1.0,phase_1,,,,,,,,,,,,,magenta,cross
219.0,3.0,2.0,0.0,3.0,3.0,665.3376889998981,2.0,1.0,phase_1,,,,,,,,,,,,,cyan,diamond
0.0,7.0,0.0,1.0,2.0,2.0,440.2272059996903,2.0,1.0,phase_1,,,,,,,,,,,,,green,square
49.0,5.0,0.5,1.0,3.0,3.0,458.8810949999242,2.0,1.0,phase_1,,,,,,,,,,,,,gray,hexagon
198.0,7.0,2.0,1.0,4.0,4.0,528.9110939997954,2.0,1.0,phase_1,,,,,,,,,,,,,green,square
0.0,7.0,0.0,1.0,4.0,4.0,438.6991470000794,2.0,1.0,phase_1,,,,,,,,,,,,,green,square
178.0,7.0,2.0,1.0,3.0,3.0,595.4047420000279,2.0,1.0,phase_1,,,,,,,,,,,,,green,square
0.0,1.0,0.0,0.0,1.0,1.0,546.689695999703,2.0,1.0,phase_1,,,,,,,,,,,,,magenta,cross
91.0,6.0,1.0,1.0,3.0,3.0,490.9692369997174,2.0,1.0,phase_1,,,,,,,,,,,,,white,triangle
0.0,3.0,0.0,0.0,2.0,2.0,405.5862539998998,2.0,1.0,phase_1,,,,,,,,,,,,,cyan,diamond
106.0,6.0,1.0,1.0,4.0,4.0,482.6314750002893,2.0,1.0,phase_1,,,,,,,,,,,,,white,triangle
0.0,7.0,0.0,1.0,1.0,1.0,501.92426600006,2.0,1.0,phase_1,,,,,,,,,,,,,green,square
114.0,6.0,1.0,1.0,1.0,1.0,417.2268709999116,2.0,1.0,phase_1,,,,,,,,,,,,,white,triangle
49.0,5.0,0.5,1.0,4.0,4.0,486.2996980000389,2.0,1.0,phase_1,,,,,,,,,,,,,gray,hexagon
176.0,7.0,2.0,1.0,3.0,3.0,418.324997000127,2.0,1.0,phase_1,,,,,,,,,,,,,green,square
32.0,1.0,0.5,0.0,4.0,4.0,359.641642999577,2.0,1.0,phase_1,,,,,,,,,,,,,magenta,cross
65.0,1.0,0.5,0.0,3.0,3.0,367.6781690001007,2.0,1.0,phase_1,,,,,,,,,,,,,magenta,cross
381.0,8.0,4.0,1.0,3.0,3.0,367.9559479996896,2.0,1.0,phase_1,,,,,,,,,,,,,orange,I
224.0,3.0,2.0,0.0,4.0,4.0,366.7816150000362,2.0,1.0,phase_1,,,,,,,,,,,,,cyan,diamond
62.0,5.0,0.5,1.0,4.0,4.0,418.1384889998298,2.0,1.0,phase_1,,,,,,,,,,,,,gray,hexagon
376.0,8.0,4.0,1.0,4.0,4.0,330.442027999652,2.0,1.0,phase_1,,,,,,,,,,,,,orange,I
0.0,4.0,0.0,0.0,2.0,2.0,335.4911319997882,2.0,1.0,phase_1,,,,,,,,,,,,,blue,flipped triangle
216.0,7.0,2.0,1.0,1.0,1.0,414.1648810000333,2.0,1.0,phase_1,,,,,,,,,,,,,green,square
415.0,8.0,4.0,1.0,4.0,4.0,423.322318999908,2.0,1.0,phase_1,,,,,,,,,,,,,orange,I
110.0,6.0,1.0,1.0,3.0,3.0,486.0863429998971,2.0,1.0,phase_1,,,,,,,,,,,,,white,triangle
62.0,1.0,0.5,0.0,1.0,1.0,404.6427509997556,2.0,1.0,phase_1,,,,,,,,,,,,,magenta,cross
0.0,4.0,0.0,0.0,1.0,1.0,376.5581699999529,2.0,1.0,phase_1,,,,,,,,,,,,,blue,flipped triangle
192.0,7.0,2.0,1.0,2.0,2.0,350.918829999955,2.0,1.0,phase_1,,,,,,,,,,,,,green,square
0.0,2.0,0.0,0.0,2.0,2.0,394.8954689999482,2.0,1.0,phase_1,,,,,,,,,,,,,yellow,circle
57.0,1.0,0.5,0.0,1.0,1.0,516.1422340001991,2.0,1.0,phase_1,,,,,,,,,,,,,magenta,cross
0.0,1.0,0.0,0.0,4.0,4.0,438.417441999718,2.0,1.0,phase_1,,,,,,,,,,,,,magenta,cross
77.0,6.0,1.0,1.0,2.0,2.0,343.1355729999268,2.0,1.0,phase_1,,,,,,,,,,,,,white,triangle
112.0,2.0,1.0,0.0,2.0,2.0,440.1468940000086,2.0,1.0,phase_1,,,,,,,,,,,,,yellow,circle
45.0,5.0,0.5,1.0,2.0,2.0,392.5625159999981,2.0,1.0,phase_1,,,,,,,,,,,,,gray,hexagon
424.0,8.0,4.0,1.0,1.0,1.0,479.9036869999327,2.0,1.0,phase_1,,,,,,,,,,,,,orange,I
408.0,8.0,4.0,1.0,2.0,2.0,361.4376650002668,2.0,1.0,phase_1,,,,,,,,,,,,,orange,I
192.0,3.0,2.0,0.0,4.0,4.0,672.0359820001249,2.0,1.0,phase_1,,,,,,,,,,,,,cyan,diamond
224.0,3.0,2.0,0.0,3.0,3.0,536.2786179998693,2.0,1.0,phase_1,,,,,,,,,,,,,cyan,diamond
0.0,1.0,0.0,0.0,2.0,2.0,403.3674320003229,2.0,1.0,phase_1,,,,,,,,,,,,,magenta,cross
94.0,2.0,1.0,0.0,2.0,2.0,408.3374130000266,2.0,1.0,phase_1,,,,,,,,,,,,,yellow,circle
425.0,8.0,4.0,1.0,4.0,4.0,505.5383929998243,3.0,1.0,phase_1,,,,,,,,,,,,,orange,I
198.0,3.0,2.0,0.0,2.0,2.0,450.6110100001024,3.0,1.0,phase_1,,,,,,,,,,,,,cyan,diamond
94.0,6.0,1.0,1.0,4.0,4.0,422.5390690003223,3.0,1.0,phase_1,,,,,,,,,,,,,white,triangle
405.0,8.0,4.0,1.0,4.0,4.0,432.5778450001962,3.0,1.0,phase_1,,,,,,,,,,,,,orange,I
54.0,5.0,0.5,1.0,3.0,3.0,445.1590009998654,3.0,1.0,phase_1,,,,,,,,,,,,,gray,hexagon
106.0,2.0,1.0,0.0,1.0,1.0,481.876476999787,3.0,1.0,phase_1,,,,,,,,,,,,,yellow,circle
121.0,6.0,1.0,1.0,4.0,4.0,355.1397109999925,3.0,1.0,phase_1,,,,,,,,,,,,,white,triangle
394.0,4.0,4.0,0.0,1.0,1.0,448.3159630003683,3.0,1.0,phase_1,,,,,,,,,,,,,blue,flipped triangle
0.0,7.0,0.0,1.0,3.0,3.0,561.0628149997865,3.0,1.0,phase_1,,,,,,,,,,,,,green,square
54.0,1.0,0.5,0.0,4.0,4.0,496.978868000042,3.0,1.0,phase_1,,,,,,,,,,,,,magenta,cross
194.0,7.0,2.0,1.0,2.0,2.0,359.1818679997232,3.0,1.0,phase_1,,,,,,,,,,,,,green,square
36.0,5.0,0.5,1.0,1.0,1.0,455.9709740001381,3.0,1.0,phase_1,,,,,,,,,,,,,gray,hexagon
420.0,4.0,4.0,0.0,2.0,2.0,397.6174120002724,3.0,1.0,phase_1,,,,,,,,,,,,,blue,flipped triangle
0.0,6.0,0.0,1.0,3.0,3.0,399.0419819997441,3.0,1.0,phase_1,,,,,,,,,,,,,white,triangle
188.0,3.0,2.0,0.0,4.0,4.0,444.7354859998995,3.0,1.0,phase_1,,,,,,,,,,,,,cyan,diamond
91.0,2.0,1.0,0.0,3.0,3.0,423.7599039997803,3.0,1.0,phase_1,,,,,,,,,,,,,yellow,circle
108.0,2.0,1.0,0.0,3.0,3.0,337.1059579999382,3.0,1.0,phase_1,,,,,,,,,,,,,yellow,circle
93.0,6.0,1.0,1.0,4.0,4.0,387.5588870000683,3.0,1.0,phase_1,,,,,,,,,,,,,white,triangle
200.0,7.0,2.0,1.0,1.0,1.0,436.6953300000205,3.0,1.0,phase_1,,,,,,,,,,,,,green,square
0.0,4.0,0.0,0.0,4.0,4.0,441.7177100003755,3.0,1.0,phase_1,,,,,,,,,,,,,blue,flipped triangle
213.0,7.0,2.0,1.0,1.0,1.0,436.4355960001376,3.0,1.0,phase_1,,,,,,,,,,,,,green,square
219.0,7.0,2.0,1.0,4.0,4.0,448.314406999998,3.0,1.0,phase_1,,,,,,,,,,,,,green,square
412.0,8.0,4.0,1.0,2.0,2.0,324.0569259996846,3.0,1.0,phase_1,,,,,,,,,,,,,orange,I
0.0,5.0,0.0,1.0,2.0,2.0,471.5925770001377,3.0,1.0,phase_1,,,,,,,,,,,,,gray,hexagon
192.0,7.0,2.0,1.0,4.0,4.0,393.8726619999215,3.0,1.0,phase_1,,,,,,,,,,,,,green,square
389.0,8.0,4.0,1.0,3.0,3.0,581.6534189998492,3.0,1.0,phase_1,,,,,,,,,,,,,orange,I
377.0,8.0,4.0,1.0,4.0,4.0,424.9136990001716,3.0,1.0,phase_1,,,,,,,,,,,,,orange,I
103.0,6.0,1.0,1.0,1.0,1.0,477.4251549997643,3.0,1.0,phase_1,,,,,,,,,,,,,white,triangle
53.0,5.0,0.5,1.0,2.0,2.0,385.9260480003286,3.0,1.0,phase_1,,,,,,,,,,,,,gray,hexagon
378.0,8.0,4.0,1.0,1.0,1.0,483.5194669999509,3.0,1.0,phase_1,,,,,,,,,,,,,orange,I
225.0,7.0,2.0,1.0,4.0,4.0,444.3872299998475,3.0,1.0,phase_1,,,,,,,,,,,,,green,square
44.0,1.0,0.5,0.0,3.0,3.0,425.2796509999825,3.0,1.0,phase_1,,,,,,,,,,,,,magenta,cross
0.0,2.0,0.0,0.0,2.0,2.0,346.6817339999579,3.0,1.0,phase_1,,,,,,,,,,,,,yellow,circle
213.0,3.0,2.0,0.0,1.0,1.0,403.0235489999541,3.0,1.0,phase_1,,,,,,,,,,,,,cyan,diamond
214.0,3.0,2.0,0.0,2.0,2.0,314.3318600000384,3.0,1.0,phase_1,,,,,,,,,,,,,cyan,diamond
103.0,6.0,1.0,1.0,1.0,1.0,460.9713160002684,3.0,1.0,phase_1,,,,,,,,,,,,,white,triangle
390.0,8.0,4.0,1.0,2.0,2.0,335.3935499999352,3.0,1.0,phase_1,,,,,,,,,,,,,orange,I
414.0,8.0,4.0,1.0,3.0,3.0,542.2586839999894,3.0,1.0,phase_1,,,,,,,,,,,,,orange,I
384.0,4.0,4.0,0.0,4.0,4.0,414.6620710002935,3.0,1.0,phase_1,,,,,,,,,,,,,blue,flipped triangle
181.0,3.0,2.0,0.0,2.0,2.0,319.6426429999519,3.0,1.0,phase_1,,,,,,,,,,,,,cyan,diamond
51.0,5.0,0.5,1.0,1.0,1.0,390.1896259999375,3.0,1.0,phase_1,,,,,,,,,,,,,gray,hexagon
0.0,3.0,0.0,0.0,2.0,2.0,458.1137430000126,3.0,1.0,phase_1,,,,,,,,,,,,,cyan,diamond
119.0,2.0,1.0,0.0,1.0,1.0,398.6056250000729,3.0,1.0,phase_1,,,,,,,,,,,,,yellow,circle
384.0,8.0,4.0,1.0,1.0,1.0,629.4805409997934,3.0,1.0,phase_1,,,,,,,,,,,,,orange,I
389.0,4.0,4.0,0.0,4.0,4.0,431.2626200003251,3.0,1.0,phase_1,,,,,,,,,,,,,blue,flipped triangle
70.0,1.0,0.5,0.0,2.0,2.0,244.9451739998949,3.0,1.0,phase_1,,,,,,,,,,,,,magenta,cross
40.0,1.0,0.5,0.0,3.0,3.0,271.9051399999443,3.0,1.0,phase_1,,,,,,,,,,,,,magenta,cross
38.0,1.0,0.5,0.0,4.0,4.0,382.6136520001455,3.0,1.0,phase_1,,,,,,,,,,,,,magenta,cross
192.0,7.0,2.0,1.0,3.0,3.0,429.2931390000376,3.0,1.0,phase_1,,,,,,,,,,,,,green,square
207.0,7.0,2.0,1.0,3.0,3.0,312.8817609999714,3.0,1.0,phase_1,,,,,,,,,,,,,green,square
0.0,8.0,0.0,1.0,2.0,2.0,396.3911820001158,3.0,1.0,phase_1,,,,,,,,,,,,,orange,I
0.0,4.0,0.0,0.0,1.0,1.0,340.6232839997756,3.0,1.0,phase_1,,,,,,,,,,,,,blue,flipped triangle
79.0,6.0,1.0,1.0,3.0,3.0,313.1862670002192,3.0,1.0,phase_1,,,,,,,,,,,,,white,triangle
0.0,3.0,0.0,0.0,4.0,4.0,336.4922450000449,3.0,1.0,phase_1,,,,,,,,,,,,,cyan,diamond
0.0,1.0,0.0,0.0,2.0,2.0,282.9779039998357,3.0,1.0,phase_1,,,,,,,,,,,,,magenta,cross
398.0,8.0,4.0,1.0,3.0,3.0,364.8391400001856,3.0,1.0,phase_1,,,,,,,,,,,,,orange,I
207.0,3.0,2.0,0.0,1.0,1.0,370.7636919998549,3.0,1.0,phase_1,,,,,,,,,,,,,cyan,diamond
31.0,5.0,0.5,1.0,3.0,3.0,417.5130459998399,3.0,1.0,phase_1,,,,,,,,,,,,,gray,hexagon
119.0,6.0,1.0,1.0,4.0,4.0,410.6202939997274,3.0,1.0,phase_1,,,,,,,,,,,,,white,triangle
416.0,4.0,4.0,0.0,4.0,4.0,347.4323349996666,3.0,1.0,phase_1,,,,,,,,,,,,,blue,flipped triangle
419.0,4.0,4.0,0.0,1.0,1.0,526.990215999831,3.0,1.0,phase_1,,,,,,,,,,,,,blue,flipped triangle
85.0,2.0,1.0,0.0,1.0,1.0,325.217375000193,3.0,1.0,phase_1,,,,,,,,,,,,,yellow,circle
199.0,3.0,2.0,0.0,1.0,1.0,303.0539920000592,3.0,1.0,phase_1,,,,,,,,,,,,,cyan,diamond
103.0,2.0,1.0,0.0,1.0,1.0,330.9149659999093,3.0,1.0,phase_1,,,,,,,,,,,,,yellow,circle
62.0,1.0,0.5,0.0,3.0,3.0,411.2854440004412,3.0,1.0,phase_1,,,,,,,,,,,,,magenta,cross
116.0,2.0,1.0,0.0,2.0,2.0,341.4865629997621,3.0,1.0,phase_1,,,,,,,,,,,,,yellow,circle
49.0,1.0,0.5,0.0,4.0,4.0,411.6354009997849,3.0,1.0,phase_1,,,,,,,,,,,,,magenta,cross
0.0,2.0,0.0,0.0,2.0,2.0,300.3486719999273,3.0,1.0,phase_1,,,,,,,,,,,,,yellow,circle
100.0,6.0,1.0,1.0,3.0,3.0,362.2322699998221,3.0,1.0,phase_1,,,,,,,,,,,,,white,triangle
188.0,7.0,2.0,1.0,2.0,2.0,375.1185370001622,3.0,1.0,phase_1,,,,,,,,,,,,,green,square
0.0,2.0,0.0,0.0,1.0,1.0,451.3370140002735,3.0,1.0,phase_1,,,,,,,,,,,,,yellow,circle
68.0,1.0,0.5,0.0,3.0,3.0,419.2196879998846,3.0,1.0,phase_1,,,,,,,,,,,,,magenta,cross
0.0,3.0,0.0,0.0,1.0,1.0,335.8274080001138,3.0,1.0,phase_1,,,,,,,,,,,,,cyan,diamond
394.0,4.0,4.0,0.0,3.0,3.0,301.9755810000788,3.0,1.0,phase_1,,,,,,,,,,,,,blue,flipped triangle
402.0,8.0,4.0,1.0,2.0,2.0,356.0768319998715,3.0,1.0,phase_1,,,,,,,,,,,,,orange,I
84.0,2.0,1.0,0.0,2.0,2.0,414.8785669999597,3.0,1.0,phase_1,,,,,,,,,,,,,yellow,circle
393.0,4.0,4.0,0.0,1.0,1.0,340.1056259999677,3.0,1.0,phase_1,,,,,,,,,,,,,blue,flipped triangle
0.0,3.0,0.0,0.0,1.0,1.0,345.718596000097,3.0,1.0,phase_1,,,,,,,,,,,,,cyan,diamond
36.0,1.0,0.5,0.0,1.0,1.0,336.5328699997008,3.0,1.0,phase_1,,,,,,,,,,,,,magenta,cross
61.0,1.0,0.5,0.0,3.0,3.0,339.3456939998032,3.0,1.0,phase_1,,,,,,,,,,,,,magenta,cross
177.0,7.0,2.0,1.0,2.0,2.0,296.2716079996426,3.0,1.0,phase_1,,,,,,,,,,,,,green,square
187.0,3.0,2.0,0.0,4.0,4.0,386.6643700002896,3.0,1.0,phase_1,,,,,,,,,,,,,cyan,diamond
107.0,2.0,1.0,0.0,4.0,4.0,368.8166819997605,3.0,1.0,phase_1,,,,,,,,,,,,,yellow,circle
100.0,6.0,1.0,1.0,1.0,1.0,357.4223239997991,3.0,1.0,phase_1,,,,,,,,,,,,,white,triangle
400.0,8.0,4.0,1.0,1.0,1.0,416.7179320002105,3.0,1.0,phase_1,,,,,,,,,,,,,orange,I
178.0,3.0,2.0,0.0,4.0,4.0,460.8235240002614,3.0,1.0,phase_1,,,,,,,,,,,,,cyan,diamond
0.0,6.0,0.0,1.0,2.0,2.0,377.3747890004415,3.0,1.0,phase_1,,,,,,,,,,,,,white,triangle
0.0,4.0,0.0,0.0,1.0,1.0,392.4176690002241,3.0,1.0,phase_1,,,,,,,,,,,,,blue,flipped triangle
186.0,7.0,2.0,1.0,3.0,3.0,372.8436960000181,3.0,1.0,phase_1,,,,,,,,,,,,,green,square
0.0,3.0,0.0,0.0,1.0,1.0,370.7093139996686,3.0,1.0,phase_1,,,,,,,,,,,,,cyan,diamond
216.0,7.0,2.0,1.0,1.0,1.0,343.6418849996698,3.0,1.0,phase_1,,,,,,,,,,,,,green,square
51.0,1.0,0.5,0.0,1.0,1.0,290.5409390000386,3.0,1.0,phase_1,,,,,,,,,,,,,magenta,cross
118.0,6.0,1.0,1.0,3.0,3.0,522.0031359999666,3.0,1.0,phase_1,,,,,,,,,,,,,white,triangle
31.0,1.0,0.5,0.0,1.0,1.0,822.9496700000709,3.0,1.0,phase_1,,,,,,,,,,,,,magenta,cross
390.0,4.0,4.0,0.0,3.0,3.0,508.7309609998556,3.0,1.0,phase_1,,,,,,,,,,,,,blue,flipped triangle
38.0,1.0,0.5,0.0,1.0,1.0,397.1908620001159,3.0,1.0,phase_1,,,,,,,,,,,,,magenta,cross
0.0,6.0,0.0,1.0,4.0,4.0,376.9033339999623,3.0,1.0,phase_1,,,,,,,,,,,,,white,triangle
86.0,2.0,1.0,0.0,4.0,4.0,390.7984659999783,3.0,1.0,phase_1,,,,,,,,,,,,,yellow,circle
106.0,6.0,1.0,1.0,1.0,1.0,475.994487999742,3.0,1.0,phase_1,,,,,,,,,,,,,white,triangle
0.0,1.0,0.0,0.0,1.0,1.0,437.1921430001748,3.0,1.0,phase_1,,,,,,,,,,,,,magenta,cross
53.0,1.0,0.5,0.0,1.0,1.0,304.8770250002235,4.0,1.0,phase_1,,,,,,,,,,,,,magenta,cross
0.0,7.0,0.0,1.0,2.0,2.0,335.3225649998421,4.0,1.0,phase_1,,,,,,,,,,,,,green,square
402.0,4.0,4.0,0.0,3.0,3.0,370.8473910000975,4.0,1.0,phase_1,,,,,,,,,,,,,blue,flipped triangle
77.0,2.0,1.0,0.0,1.0,1.0,310.5088769998474,4.0,1.0,phase_1,,,,,,,,,,,,,yellow,circle
106.0,2.0,1.0,0.0,4.0,4.0,355.9628820003127,4.0,1.0,phase_1,,,,,,,,,,,,,yellow,circle
83.0,6.0,1.0,1.0,1.0,1.0,357.0214240003224,4.0,1.0,phase_1,,,,,,,,,,,,,white,triangle
79.0,2.0,1.0,0.0,3.0,3.0,446.3989890000448,4.0,1.0,phase_1,,,,,,,,,,,,,yellow,circle
400.0,8.0,4.0,1.0,4.0,4.0,376.1067300001741,4.0,2.0,phase_1,,,,,,,,,,,,,orange,I
111.0,6.0,1.0,1.0,4.0,4.0,406.3041539998266,4.0,1.0,phase_1,,,,,,,,,,,,,white,triangle
113.0,2.0,1.0,0.0,1.0,1.0,333.4693440001501,4.0,1.0,phase_1,,,,,,,,,,,,,yellow,circle
412.0,4.0,4.0,0.0,4.0,4.0,409.5831920003547,4.0,1.0,phase_1,,,,,,,,,,,,,blue,flipped triangle
381.0,4.0,4.0,0.0,2.0,2.0,329.8651410000275,4.0,1.0,phase_1,,,,,,,,,,,,,blue,flipped triangle
378.0,8.0,4.0,1.0,2.0,2.0,450.6772240001737,4.0,1.0,phase_1,,,,,,,,,,,,,orange,I
69.0,1.0,0.5,0.0,3.0,3.0,404.9514710000039,4.0,1.0,phase_1,,,,,,,,,,,,,magenta,cross
33.0,5.0,0.5,1.0,1.0,1.0,468.0312420000518,4.0,1.0,phase_1,,,,,,,,,,,,,gray,hexagon
424.0,8.0,4.0,1.0,2.0,2.0,334.8933530000977,4.0,1.0,phase_1,,,,,,,,,,,,,orange,I
200.0,3.0,2.0,0.0,3.0,3.0,429.4161390002955,4.0,1.0,phase_1,,,,,,,,,,,,,cyan,diamond
207.0,3.0,2.0,0.0,1.0,1.0,595.5737700001009,4.0,1.0,phase_1,,,,,,,,,,,,,cyan,diamond
72.0,5.0,0.5,1.0,2.0,2.0,389.2951090001588,4.0,1.0,phase_1,,,,,,,,,,,,,gray,hexagon
38.0,5.0,0.5,1.0,1.0,1.0,426.9300659998407,4.0,1.0,phase_1,,,,,,,,,,,,,gray,hexagon
49.0,1.0,0.5,0.0,3.0,3.0,485.5294100002538,4.0,1.0,phase_1,,,,,,,,,,,,,magenta,cross
209.0,7.0,2.0,1.0,1.0,1.0,464.8539899999377,4.0,1.0,phase_1,,,,,,,,,,,,,green,square
121.0,2.0,1.0,0.0,4.0,4.0,573.4989249999671,4.0,1.0,phase_1,,,,,,,,,,,,,yellow,circle
0.0,6.0,0.0,1.0,4.0,4.0,361.4602590000686,4.0,1.0,phase_1,,,,,,,,,,,,,white,triangle
28.0,5.0,0.5,1.0,3.0,3.0,435.1627770001869,4.0,1.0,phase_1,,,,,,,,,,,,,gray,hexagon
176.0,3.0,2.0,0.0,3.0,3.0,467.9426220000096,4.0,1.0,phase_1,,,,,,,,,,,,,cyan,diamond
378.0,8.0,4.0,1.0,4.0,4.0,370.4711430000316,4.0,1.0,phase_1,,,,,,,,,,,,,orange,I
75.0,1.0,0.5,0.0,4.0,4.0,482.2353979998297,4.0,1.0,phase_1,,,,,,,,,,,,,magenta,cross
54.0,1.0,0.5,0.0,1.0,1.0,373.5535329997219,4.0,2.0,phase_1,,,,,,,,,,,,,magenta,cross
216.0,3.0,2.0,0.0,2.0,2.0,493.068821000179,4.0,1.0,phase_1,,,,,,,,,,,,,cyan,diamond
0.0,8.0,0.0,1.0,4.0,4.0,389.521570999932,4.0,1.0,phase_1,,,,,,,,,,,,,orange,I
403.0,8.0,4.0,1.0,3.0,3.0,374.9520220003433,4.0,1.0,phase_1,,,,,,,,,,,,,orange,I
403.0,8.0,4.0,1.0,3.0,3.0,375.8257979998234,4.0,1.0,phase_1,,,,,,,,,,,,,orange,I
408.0,4.0,4.0,0.0,1.0,1.0,384.0288869996584,4.0,1.0,phase_1,,,,,,,,,,,,,blue,flipped triangle
51.0,5.0,0.5,1.0,3.0,3.0,414.7406189999856,4.0,1.0,phase_1,,,,,,,,,,,,,gray,hexagon
377.0,4.0,4.0,0.0,3.0,3.0,360.673217999647,4.0,1.0,phase_1,,,,,,,,,,,,,blue,flipped triangle
214.0,7.0,2.0,1.0,2.0,2.0,394.6925330001249,4.0,1.0,phase_1,,,,,,,,,,,,,green,square
0.0,2.0,0.0,0.0,1.0,1.0,445.0541490000432,4.0,1.0,phase_1,,,,,,,,,,,,,yellow,circle
0.0,2.0,0.0,0.0,3.0,3.0,578.5821800000122,4.0,1.0,phase_1,,,,,,,,,,,,,yellow,circle
396.0,4.0,4.0,0.0,1.0,1.0,334.8633789996711,4.0,1.0,phase_1,,,,,,,,,,,,,blue,flipped triangle
89.0,2.0,1.0,0.0,3.0,3.0,364.1224789998887,4.0,1.0,phase_1,,,,,,,,,,,,,yellow,circle
0.0,1.0,0.0,0.0,2.0,2.0,420.6022250000387,4.0,1.0,phase_1,,,,,,,,,,,,,magenta,cross
45.0,1.0,0.5,0.0,4.0,4.0,766.4235409997673,4.0,2.0,phase_1,,,,,,,,,,,,,magenta,cross
176.0,3.0,2.0,0.0,4.0,4.0,438.3790289998615,4.0,1.0,phase_1,,,,,,,,,,,,,cyan,diamond
199.0,7.0,2.0,1.0,4.0,4.0,582.5960309998663,4.0,1.0,phase_1,,,,,,,,,,,,,green,square
0.0,8.0,0.0,1.0,3.0,3.0,508.6085970001477,4.0,1.0,phase_1,,,,,,,,,,,,,orange,I
0.0,8.0,0.0,1.0,2.0,2.0,373.4695319999446,4.0,1.0,phase_1,,,,,,,,,,,,,orange,I
57.0,5.0,0.5,1.0,2.0,2.0,674.3217989996992,4.0,1.0,phase_1,,,,,,,,,,,,,gray,hexagon
192.0,3.0,2.0,0.0,2.0,2.0,332.8527930002565,4.0,1.0,phase_1,,,,,,,,,,,,,cyan,diamond
188.0,7.0,2.0,1.0,1.0,1.0,374.5626310001171,4.0,1.0,phase_1,,,,,,,,,,,,,green,square
411.0,4.0,4.0,0.0,4.0,4.0,463.7474619999011,4.0,1.0,phase_1,,,,,,,,,,,,,blue,flipped triangle
66.0,5.0,0.5,1.0,4.0,4.0,540.7597819998955,4.0,1.0,phase_1,,,,,,,,,,,,,gray,hexagon
192.0,3.0,2.0,0.0,2.0,2.0,389.659034000033,4.0,1.0,phase_1,,,,,,,,,,,,,cyan,diamond
0.0,1.0,0.0,0.0,3.0,3.0,678.1252269997822,4.0,1.0,phase_1,,,,,,,,,,,,,magenta,cross
118.0,2.0,1.0,0.0,3.0,3.0,468.5785520000536,4.0,1.0,phase_1,,,,,,,,,,,,,yellow,circle
43.0,5.0,0.5,1.0,1.0,1.0,539.5640710003136,4.0,1.0,phase_1,,,,,,,,,,,,,gray,hexagon
89.0,2.0,1.0,0.0,2.0,2.0,398.9754569997785,4.0,1.0,phase_1,,,,,,,,,,,,,yellow,circle
197.0,7.0,2.0,1.0,4.0,4.0,816.5196830000241,4.0,1.0,phase_1,,,,,,,,,,,,,green,square
56.0,5.0,0.5,1.0,2.0,2.0,442.4390549997952,4.0,1.0,phase_1,,,,,,,,,,,,,gray,hexagon
67.0,5.0,0.5,1.0,4.0,4.0,559.4062800000756,4.0,1.0,phase_1,,,,,,,,,,,,,gray,hexagon
0.0,7.0,0.0,1.0,4.0,4.0,392.3212970003078,4.0,1.0,phase_1,,,,,,,,,,,,,green,square
0.0,5.0,0.0,1.0,4.0,4.0,486.2479499997789,4.0,1.0,phase_1,,,,,,,,,,,,,gray,hexagon
108.0,6.0,1.0,1.0,2.0,2.0,424.7209459999794,4.0,1.0,phase_1,,,,,,,,,,,,,white,triangle
100.0,2.0,1.0,0.0,2.0,2.0,388.3348549998118,4.0,1.0,phase_1,,,,,,,,,,,,,yellow,circle
378.0,4.0,4.0,0.0,1.0,1.0,443.4568880001279,4.0,1.0,phase_1,,,,,,,,,,,,,blue,flipped triangle
0.0,4.0,0.0,0.0,4.0,4.0,596.2519689996952,4.0,1.0,phase_1,,,,,,,,,,,,,blue,flipped triangle
0.0,1.0,0.0,0.0,3.0,3.0,634.5960250000644,4.0,1.0,phase_1,,,,,,,,,,,,,magenta,cross
28.0,1.0,0.5,0.0,2.0,2.0,440.4367249999268,4.0,1.0,phase_1,,,,,,,,,,,,,magenta,cross
419.0,8.0,4.0,1.0,1.0,1.0,507.19728800004305,4.0,1.0,phase_1,,,,,,,,,,,,,orange,I
124.0,6.0,1.0,1.0,2.0,2.0,428.1776840002749,4.0,1.0,phase_1,,,,,,,,,,,,,white,triangle
182.0,3.0,2.0,0.0,2.0,2.0,475.7604729998093,4.0,1.0,phase_1,,,,,,,,,,,,,cyan,diamond
84.0,6.0,1.0,1.0,4.0,4.0,559.1559089998555,4.0,1.0,phase_1,,,,,,,,,,,,,white,triangle
181.0,7.0,2.0,1.0,1.0,1.0,541.0143909998624,4.0,1.0,phase_1,,,,,,,,,,,,,green,square
396.0,8.0,4.0,1.0,2.0,2.0,365.0364049999552,4.0,1.0,phase_1,,,,,,,,,,,,,orange,I
190.0,3.0,2.0,0.0,4.0,4.0,447.3453619998508,4.0,1.0,phase_1,,,,,,,,,,,,,cyan,diamond
0.0,2.0,0.0,0.0,2.0,2.0,389.1862519999449,4.0,1.0,phase_1,,,,,,,,,,,,,yellow,circle
206.0,7.0,2.0,1.0,2.0,2.0,472.4235939997925,4.0,1.0,phase_1,,,,,,,,,,,,,green,square
89.0,6.0,1.0,1.0,1.0,1.0,524.0940940002474,4.0,1.0,phase_1,,,,,,,,,,,,,white,triangle
85.0,6.0,1.0,1.0,2.0,2.0,350.4546959998151,4.0,1.0,phase_1,,,,,,,,,,,,,white,triangle
403.0,4.0,4.0,0.0,3.0,3.0,502.87729100000433,4.0,1.0,phase_1,,,,,,,,,,,,,blue,flipped triangle
191.0,3.0,2.0,0.0,1.0,1.0,531.1383429998386,4.0,1.0,phase_1,,,,,,,,,,,,,cyan,diamond
400.0,4.0,4.0,0.0,1.0,1.0,460.7898009999189,4.0,1.0,phase_1,,,,,,,,,,,,,blue,flipped triangle
86.0,6.0,1.0,1.0,2.0,2.0,366.0694630002581,4.0,1.0,phase_1,,,,,,,,,,,,,white,triangle
27.0,1.0,0.5,0.0,2.0,2.0,394.7529910001321,4.0,1.0,phase_1,,,,,,,,,,,,,magenta,cross
43.0,1.0,0.5,0.0,3.0,3.0,455.6544950000898,4.0,1.0,phase_1,,,,,,,,,,,,,magenta,cross
70.0,5.0,0.5,1.0,1.0,1.0,506.4200389997495,4.0,1.0,phase_1,,,,,,,,,,,,,gray,hexagon
100.0,6.0,1.0,1.0,2.0,2.0,372.5245109999378,4.0,1.0,phase_1,,,,,,,,,,,,,white,triangle
0.0,5.0,0.0,1.0,2.0,2.0,419.4334970002273,4.0,1.0,phase_1,,,,,,,,,,,,,gray,hexagon
30.0,1.0,0.5,0.0,2.0,2.0,405.2555509997546,4.0,1.0,phase_1,,,,,,,,,,,,,magenta,cross
56.0,1.0,0.5,0.0,2.0,2.0,364.065956000104,4.0,1.0,phase_1,,,,,,,,,,,,,magenta,cross
0.0,2.0,0.0,0.0,3.0,3.0,578.8821210003334,4.0,1.0,phase_1,,,,,,,,,,,,,yellow,circle
96.0,2.0,1.0,0.0,3.0,3.0,340.2213469998969,4.0,1.0,phase_1,,,,,,,,,,,,,yellow,circle
0.0,7.0,0.0,1.0,3.0,3.0,358.5157109996544,4.0,1.0,phase_1,,,,,,,,,,,,,green,square
0.0,2.0,0.0,0.0,4.0,4.0,525.1413659998434,4.0,1.0,phase_1,,,,,,,,,,,,,yellow,circle
0.0,3.0,0.0,0.0,4.0,4.0,466.3843260000249,4.0,1.0,phase_1,,,,,,,,,,,,,cyan,diamond
0.0,5.0,0.0,1.0,3.0,3.0,592.1844589997818,4.0,1.0,phase_1,,,,,,,,,,,,,gray,hexagon
47.0,1.0,0.5,0.0,4.0,4.0,420.2584089998709,4.0,1.0,phase_1,,,,,,,,,,,,,magenta,cross
381.0,4.0,4.0,0.0,1.0,1.0,603.6088770001697,4.0,1.0,phase_1,,,,,,,,,,,,,blue,flipped triangle
52.0,1.0,0.5,0.0,2.0,2.0,427.8653810001742,4.0,1.0,phase_1,,,,,,,,,,,,,magenta,cross
30.0,5.0,0.5,1.0,1.0,1.0,757.1562269999959,4.0,1.0,phase_1,,,,,,,,,,,,,gray,hexagon
0.0,2.0,1.0,0.0,5.0,5.0,836.9167860000744,1.0,1.0,phase_2,go,250.0,250.0,1.0,,,,,,,,,yellow,circle
0.0,7.0,2.0,1.0,5.0,5.0,448.6725060000935,1.0,1.0,phase_2,stop,250.0,250.0,3.0,,,,,,,,,green,square
0.0,7.0,2.0,1.0,6.0,0.0,0.0,1.0,1.0,phase_2,stop,200.0,250.0,4.0,,,,,,,,,green,square
0.0,8.0,4.0,1.0,6.0,6.0,787.0539020000251,1.0,1.0,phase_2,go,200.0,300.0,1.0,,,,,,,,,orange,I
0.0,4.0,4.0,0.0,5.0,5.0,790.6925009997394,1.0,1.0,phase_2,go,200.0,300.0,1.0,,,,,,,,,blue,flipped triangle
0.0,1.0,0.5,0.0,5.0,5.0,660.8707209998101,1.0,1.0,phase_2,go,200.0,300.0,1.0,,,,,,,,,magenta,cross
0.0,1.0,0.5,0.0,6.0,6.0,877.5498390000394,1.0,1.0,phase_2,go,200.0,300.0,1.0,,,,,,,,,magenta,cross
0.0,5.0,0.5,1.0,5.0,0.0,0.0,1.0,1.0,phase_2,stop,200.0,300.0,4.0,,,,,,,,,gray,hexagon
0.0,5.0,0.5,1.0,5.0,5.0,665.5721460001587,1.0,1.0,phase_2,go,250.0,300.0,1.0,,,,,,,,,gray,hexagon
0.0,3.0,2.0,0.0,6.0,6.0,991.7497380001804,1.0,1.0,phase_2,go,250.0,300.0,1.0,,,,,,,,,cyan,diamond
0.0,3.0,2.0,0.0,6.0,6.0,455.6759659999443,1.0,1.0,phase_2,go,250.0,300.0,1.0,,,,,,,,,cyan,diamond
0.0,8.0,4.0,1.0,6.0,0.0,0.0,1.0,1.0,phase_2,stop,250.0,300.0,4.0,,,,,,,,,orange,I
0.0,4.0,4.0,0.0,5.0,5.0,519.9245730000257,1.0,1.0,phase_2,go,250.0,350.0,1.0,,,,,,,,,blue,flipped triangle
0.0,8.0,4.0,1.0,6.0,0.0,0.0,1.0,1.0,phase_2,stop,250.0,350.0,4.0,,,,,,,,,orange,I
0.0,1.0,0.5,0.0,6.0,6.0,829.8600980001538,1.0,1.0,phase_2,go,250.0,400.0,1.0,,,,,,,,,magenta,cross
0.0,1.0,0.5,0.0,6.0,6.0,937.1276669999132,1.0,1.0,phase_2,go,250.0,400.0,1.0,,,,,,,,,magenta,cross
0.0,8.0,4.0,1.0,5.0,0.0,0.0,1.0,1.0,phase_2,stop,250.0,400.0,4.0,,,,,,,,,orange,I
0.0,4.0,4.0,0.0,5.0,5.0,789.6552289998908,1.0,1.0,phase_2,go,300.0,400.0,1.0,,,,,,,,,blue,flipped triangle
0.0,4.0,4.0,0.0,5.0,5.0,708.3910450000985,1.0,1.0,phase_2,go,300.0,400.0,1.0,,,,,,,,,blue,flipped triangle
0.0,2.0,1.0,0.0,5.0,5.0,931.9154320000962,1.0,1.0,phase_2,go,300.0,400.0,1.0,,,,,,,,,yellow,circle
0.0,5.0,0.5,1.0,5.0,0.0,0.0,1.0,1.0,phase_2,stop,300.0,400.0,4.0,,,,,,,,,gray,hexagon
0.0,4.0,4.0,0.0,5.0,5.0,1001.5194799998426,1.0,1.0,phase_2,go,350.0,400.0,1.0,,,,,,,,,blue,flipped triangle
0.0,1.0,0.5,0.0,5.0,5.0,531.9665540000642,1.0,1.0,phase_2,go,350.0,400.0,1.0,,,,,,,,,magenta,cross
0.0,4.0,4.0,0.0,5.0,5.0,601.1311970000861,1.0,1.0,phase_2,go,350.0,400.0,1.0,,,,,,,,,blue,flipped triangle
0.0,5.0,0.5,1.0,6.0,0.0,0.0,1.0,1.0,phase_2,stop,350.0,400.0,4.0,,,,,,,,,gray,hexagon
0.0,8.0,4.0,1.0,6.0,6.0,786.3143059998947,1.0,1.0,phase_2,go,350.0,450.0,1.0,,,,,,,,,orange,I
0.0,1.0,0.5,0.0,5.0,5.0,798.8710560002801,1.0,1.0,phase_2,go,350.0,450.0,1.0,,,,,,,,,magenta,cross
0.0,2.0,1.0,0.0,6.0,6.0,938.410051000119,1.0,1.0,phase_2,go,350.0,450.0,1.0,,,,,,,,,yellow,circle
0.0,4.0,4.0,0.0,5.0,5.0,559.0497200000755,1.0,1.0,phase_2,go,350.0,450.0,1.0,,,,,,,,,blue,flipped triangle
0.0,6.0,1.0,1.0,6.0,6.0,368.3455599998524,1.0,1.0,phase_2,go,350.0,450.0,1.0,,,,,,,,,white,triangle
0.0,5.0,0.5,1.0,6.0,6.0,558.0418539998391,1.0,1.0,phase_2,stop,350.0,450.0,3.0,,,,,,,,,gray,hexagon
0.0,2.0,1.0,0.0,5.0,5.0,793.8981020001847,1.0,1.0,phase_2,go,350.0,400.0,1.0,,,,,,,,,yellow,circle
0.0,8.0,4.0,1.0,5.0,0.0,0.0,1.0,1.0,phase_2,stop,350.0,400.0,4.0,,,,,,,,,orange,I
0.0,5.0,0.5,1.0,6.0,0.0,0.0,1.0,1.0,phase_2,stop,400.0,400.0,4.0,,,,,,,,,gray,hexagon
0.0,4.0,4.0,0.0,5.0,5.0,833.3135049997509,1.0,1.0,phase_2,go,400.0,450.0,1.0,,,,,,,,,blue,flipped triangle
0.0,7.0,2.0,1.0,5.0,0.0,0.0,1.0,1.0,phase_2,stop,400.0,450.0,4.0,,,,,,,,,green,square
0.0,5.0,0.5,1.0,5.0,5.0,763.833724000051,2.0,1.0,phase_2,go,450.0,450.0,1.0,,,,,,,,,gray,hexagon
0.0,7.0,2.0,1.0,6.0,6.0,322.0410829999309,2.0,1.0,phase_2,go,450.0,450.0,1.0,,,,,,,,,green,square
0.0,1.0,0.5,0.0,6.0,6.0,540.9811979998267,2.0,1.0,phase_2,go,450.0,450.0,1.0,,,,,,,,,magenta,cross
0.0,5.0,0.5,1.0,6.0,6.0,366.2592969999423,2.0,1.0,phase_2,stop,450.0,450.0,3.0,,,,,,,,,gray,hexagon
0.0,1.0,0.5,0.0,5.0,5.0,705.0998099998651,2.0,1.0,phase_2,go,450.0,400.0,1.0,,,,,,,,,magenta,cross
0.0,2.0,1.0,0.0,6.0,6.0,319.9855050002043,2.0,1.0,phase_2,go,450.0,400.0,1.0,,,,,,,,,yellow,circle
0.0,3.0,2.0,0.0,5.0,5.0,322.0559299998058,2.0,1.0,phase_2,go,450.0,400.0,1.0,,,,,,,,,cyan,diamond
0.0,5.0,0.5,1.0,6.0,6.0,430.4160639999281,2.0,1.0,phase_2,go,450.0,400.0,1.0,,,,,,,,,gray,hexagon
0.0,2.0,1.0,0.0,6.0,6.0,412.4243960000058,2.0,1.0,phase_2,go,450.0,400.0,1.0,,,,,,,,,yellow,circle
0.0,5.0,0.5,1.0,6.0,0.0,0.0,2.0,1.0,phase_2,stop,450.0,400.0,4.0,,,,,,,,,gray,hexagon
0.0,2.0,1.0,0.0,6.0,6.0,616.616084999805,2.0,1.0,phase_2,go,450.0,450.0,1.0,,,,,,,,,yellow,circle
0.0,5.0,0.5,1.0,5.0,5.0,335.7835609999711,2.0,1.0,phase_2,stop,450.0,450.0,3.0,,,,,,,,,gray,hexagon
0.0,5.0,0.5,1.0,5.0,5.0,514.6827000003213,2.0,1.0,phase_2,go,400.0,450.0,1.0,,,,,,,,,gray,hexagon
0.0,7.0,2.0,1.0,5.0,5.0,303.3045000001948,2.0,1.0,phase_2,go,400.0,450.0,1.0,,,,,,,,,green,square
0.0,4.0,4.0,0.0,5.0,5.0,505.64927200002785,2.0,1.0,phase_2,go,400.0,450.0,1.0,,,,,,,,,blue,flipped triangle
0.0,3.0,2.0,0.0,6.0,6.0,314.5802399999411,2.0,1.0,phase_2,go,400.0,450.0,1.0,,,,,,,,,cyan,diamond
0.0,4.0,4.0,0.0,5.0,5.0,312.4705269997321,2.0,1.0,phase_2,go,400.0,450.0,1.0,,,,,,,,,blue,flipped triangle
0.0,6.0,1.0,1.0,5.0,5.0,447.7331819998653,2.0,1.0,phase_2,stop,400.0,450.0,3.0,,,,,,,,,white,triangle
0.0,8.0,4.0,1.0,5.0,0.0,0.0,2.0,1.0,phase_2,stop,350.0,450.0,4.0,,,,,,,,,orange,I
0.0,6.0,1.0,1.0,5.0,5.0,711.9210880000537,2.0,1.0,phase_2,go,400.0,450.0,1.0,,,,,,,,,white,triangle
0.0,4.0,4.0,0.0,6.0,6.0,718.8939449997633,2.0,1.0,phase_2,go,400.0,450.0,1.0,,,,,,,,,blue,flipped triangle
0.0,7.0,2.0,1.0,6.0,6.0,814.5967209998162,2.0,1.0,phase_2,go,400.0,450.0,1.0,,,,,,,,,green,square
0.0,4.0,4.0,0.0,6.0,6.0,574.3471840000893,2.0,1.0,phase_2,go,400.0,450.0,1.0,,,,,,,,,blue,flipped triangle
0.0,4.0,4.0,0.0,5.0,5.0,802.2798940000939,2.0,1.0,phase_2,go,400.0,450.0,1.0,,,,,,,,,blue,flipped triangle
0.0,7.0,2.0,1.0,5.0,0.0,0.0,2.0,1.0,phase_2,stop,400.0,450.0,4.0,,,,,,,,,green,square
0.0,3.0,2.0,0.0,5.0,5.0,469.6460170002865,2.0,1.0,phase_2,go,450.0,450.0,1.0,,,,,,,,,cyan,diamond
0.0,8.0,4.0,1.0,6.0,6.0,490.8683029998428,2.0,1.0,phase_2,stop,450.0,450.0,3.0,,,,,,,,,orange,I
0.0,4.0,4.0,0.0,6.0,6.0,838.0659379999997,2.0,1.0,phase_2,go,450.0,400.0,1.0,,,,,,,,,blue,flipped triangle
0.0,2.0,1.0,0.0,5.0,5.0,770.1874989998032,2.0,1.0,phase_2,go,450.0,400.0,1.0,,,,,,,,,yellow,circle
0.0,2.0,1.0,0.0,5.0,5.0,473.1948060002651,2.0,1.0,phase_2,go,450.0,400.0,1.0,,,,,,,,,yellow,circle
0.0,8.0,4.0,1.0,5.0,5.0,393.2411260002482,2.0,1.0,phase_2,go,450.0,400.0,1.0,,,,,,,,,orange,I
0.0,8.0,4.0,1.0,6.0,6.0,451.5229889998409,2.0,1.0,phase_2,go,450.0,400.0,1.0,,,,,,,,,orange,I
0.0,8.0,4.0,1.0,6.0,6.0,294.2973789999996,2.0,1.0,phase_2,stop,450.0,400.0,3.0,,,,,,,,,orange,I
0.0,6.0,1.0,1.0,5.0,5.0,733.4435349998785,2.0,1.0,phase_2,go,450.0,350.0,1.0,,,,,,,,,white,triangle
0.0,5.0,0.5,1.0,6.0,6.0,308.1701900000553,2.0,1.0,phase_2,go,450.0,350.0,1.0,,,,,,,,,gray,hexagon
0.0,5.0,0.5,1.0,5.0,5.0,605.452878000051,2.0,1.0,phase_2,stop,450.0,350.0,3.0,,,,,,,,,gray,hexagon
0.0,5.0,0.5,1.0,6.0,6.0,773.2744420000017,3.0,1.0,phase_2,stop,400.0,350.0,3.0,,,,,,,,,gray,hexagon
0.0,6.0,1.0,1.0,6.0,0.0,0.0,3.0,1.0,phase_2,stop,400.0,300.0,4.0,,,,,,,,,white,triangle
0.0,2.0,1.0,0.0,6.0,6.0,1241.3606889999755,3.0,1.0,phase_2,go,400.0,350.0,1.0,,,,,,,,,yellow,circle
0.0,8.0,4.0,1.0,5.0,5.0,435.2277110001523,3.0,1.0,phase_2,go,400.0,350.0,1.0,,,,,,,,,orange,I
0.0,6.0,1.0,1.0,5.0,5.0,306.8715990002602,3.0,1.0,phase_2,stop,400.0,350.0,3.0,,,,,,,,,white,triangle
0.0,6.0,1.0,1.0,5.0,0.0,0.0,3.0,1.0,phase_2,stop,350.0,350.0,4.0,,,,,,,,,white,triangle
0.0,6.0,1.0,1.0,6.0,6.0,780.4606569998214,3.0,1.0,phase_2,go,400.0,350.0,1.0,,,,,,,,,white,triangle
0.0,7.0,2.0,1.0,5.0,5.0,341.4158250002401,3.0,1.0,phase_2,stop,400.0,350.0,3.0,,,,,,,,,green,square
0.0,6.0,1.0,1.0,6.0,6.0,257.6511580000442,3.0,1.0,phase_2,stop,350.0,350.0,3.0,,,,,,,,,white,triangle
0.0,7.0,2.0,1.0,5.0,0.0,0.0,3.0,1.0,phase_2,stop,350.0,300.0,4.0,,,,,,,,,green,square
0.0,1.0,0.5,0.0,5.0,5.0,735.9130129998448,3.0,1.0,phase_2,go,400.0,300.0,1.0,,,,,,,,,magenta,cross
0.0,6.0,1.0,1.0,6.0,0.0,0.0,3.0,1.0,phase_2,stop,400.0,300.0,4.0,,,,,,,,,white,triangle
0.0,8.0,4.0,1.0,5.0,0.0,0.0,3.0,1.0,phase_2,stop,400.0,350.0,4.0,,,,,,,,,orange,I
0.0,4.0,4.0,0.0,6.0,6.0,980.0388110002132,3.0,1.0,phase_2,go,450.0,350.0,1.0,,,,,,,,,blue,flipped triangle
0.0,7.0,2.0,1.0,6.0,6.0,877.8465109999161,3.0,1.0,phase_2,go,450.0,350.0,1.0,,,,,,,,,green,square
0.0,5.0,0.5,1.0,6.0,6.0,467.5913539999783,3.0,1.0,phase_2,stop,450.0,350.0,3.0,,,,,,,,,gray,hexagon
0.0,3.0,2.0,0.0,6.0,6.0,679.0724110001065,3.0,1.0,phase_2,go,450.0,300.0,1.0,,,,,,,,,cyan,diamond
0.0,8.0,4.0,1.0,5.0,5.0,884.0782809998018,3.0,1.0,phase_2,go,450.0,300.0,1.0,,,,,,,,,orange,I
0.0,7.0,2.0,1.0,5.0,5.0,655.835259000014,3.0,1.0,phase_2,go,450.0,300.0,1.0,,,,,,,,,green,square
0.0,1.0,0.5,0.0,6.0,6.0,647.9572289999851,3.0,1.0,phase_2,go,450.0,300.0,1.0,,,,,,,,,magenta,cross
0.0,6.0,1.0,1.0,6.0,6.0,885.2080380002008,3.0,1.0,phase_2,go,450.0,300.0,1.0,,,,,,,,,white,triangle
0.0,3.0,2.0,0.0,6.0,6.0,633.3579329998429,3.0,1.0,phase_2,go,450.0,300.0,1.0,,,,,,,,,cyan,diamond
0.0,7.0,2.0,1.0,6.0,0.0,0.0,3.0,1.0,phase_2,stop,450.0,300.0,4.0,,,,,,,,,green,square
0.0,7.0,2.0,1.0,5.0,0.0,0.0,3.0,1.0,phase_2,stop,450.0,350.0,4.0,,,,,,,,,green,square
0.0,4.0,4.0,0.0,6.0,6.0,1007.0835060000718,3.0,1.0,phase_2,go,500.0,350.0,1.0,,,,,,,,,blue,flipped triangle
0.0,2.0,1.0,0.0,6.0,6.0,1211.2762450001355,3.0,1.0,phase_2,go,500.0,350.0,1.0,,,,,,,,,yellow,circle
0.0,3.0,2.0,0.0,6.0,6.0,664.4879749997017,3.0,1.0,phase_2,go,500.0,350.0,1.0,,,,,,,,,cyan,diamond
0.0,1.0,0.5,0.0,5.0,5.0,323.6678279999978,3.0,1.0,phase_2,go,500.0,350.0,1.0,,,,,,,,,magenta,cross
0.0,8.0,4.0,1.0,5.0,5.0,355.5045009998139,3.0,1.0,phase_2,stop,500.0,350.0,3.0,,,,,,,,,orange,I
0.0,5.0,0.5,1.0,6.0,6.0,506.7170580000493,3.0,1.0,phase_2,stop,450.0,350.0,3.0,,,,,,,,,gray,hexagon
0.0,2.0,1.0,0.0,5.0,5.0,1156.113224999899,3.0,1.0,phase_2,go,450.0,300.0,1.0,,,,,,,,,yellow,circle
0.0,1.0,0.5,0.0,5.0,5.0,462.197556999854,3.0,1.0,phase_2,go,450.0,300.0,1.0,,,,,,,,,magenta,cross
0.0,8.0,4.0,1.0,6.0,6.0,346.0705270003927,3.0,1.0,phase_2,stop,450.0,300.0,3.0,,,,,,,,,orange,I
0.0,5.0,0.5,1.0,5.0,0.0,0.0,3.0,1.0,phase_2,stop,450.0,250.0,4.0,,,,,,,,,gray,hexagon
0.0,5.0,0.5,1.0,6.0,6.0,824.1916360002506,3.0,1.0,phase_2,go,500.0,250.0,1.0,,,,,,,,,gray,hexagon
0.0,2.0,1.0,0.0,6.0,6.0,372.6078540003072,3.0,1.0,phase_2,go,500.0,250.0,1.0,,,,,,,,,yellow,circle
0.0,8.0,4.0,1.0,6.0,6.0,485.6935799998609,4.0,1.0,phase_2,go,500.0,250.0,1.0,,,,,,,,,orange,I
0.0,3.0,2.0,0.0,6.0,6.0,374.143905999972,4.0,1.0,phase_2,go,500.0,250.0,1.0,,,,,,,,,cyan,diamond
0.0,6.0,1.0,1.0,6.0,0.0,0.0,4.0,1.0,phase_2,stop,500.0,250.0,4.0,,,,,,,,,white,triangle
0.0,3.0,2.0,0.0,5.0,5.0,191.1791399998037,4.0,1.0,phase_2,go,500.0,300.0,1.0,,,,,,,,,cyan,diamond
0.0,4.0,4.0,0.0,5.0,5.0,405.19109700017,4.0,1.0,phase_2,go,500.0,300.0,1.0,,,,,,,,,blue,flipped triangle
0.0,7.0,2.0,1.0,5.0,5.0,318.1014349997895,4.0,1.0,phase_2,stop,500.0,300.0,3.0,,,,,,,,,green,square
0.0,6.0,1.0,1.0,5.0,5.0,557.948701999976,4.0,1.0,phase_2,go,450.0,300.0,1.0,,,,,,,,,white,triangle
0.0,6.0,1.0,1.0,5.0,5.0,294.6469739999884,4.0,1.0,phase_2,stop,450.0,300.0,3.0,,,,,,,,,white,triangle
0.0,1.0,0.5,0.0,6.0,6.0,675.4594229996655,4.0,1.0,phase_2,go,400.0,300.0,1.0,,,,,,,,,magenta,cross
0.0,1.0,0.5,0.0,5.0,5.0,452.3660019999624,4.0,1.0,phase_2,go,400.0,300.0,1.0,,,,,,,,,magenta,cross
0.0,8.0,4.0,1.0,6.0,0.0,0.0,4.0,1.0,phase_2,stop,400.0,300.0,4.0,,,,,,,,,orange,I
0.0,2.0,1.0,0.0,6.0,6.0,612.2057110001151,4.0,1.0,phase_2,go,400.0,350.0,1.0,,,,,,,,,yellow,circle
0.0,8.0,4.0,1.0,6.0,0.0,0.0,4.0,1.0,phase_2,stop,400.0,350.0,4.0,,,,,,,,,orange,I
0.0,3.0,2.0,0.0,6.0,6.0,698.2437450001271,4.0,1.0,phase_2,go,400.0,400.0,1.0,,,,,,,,,cyan,diamond
0.0,1.0,0.5,0.0,5.0,5.0,785.8079300003737,4.0,1.0,phase_2,go,400.0,400.0,1.0,,,,,,,,,magenta,cross
0.0,6.0,1.0,1.0,6.0,0.0,0.0,4.0,1.0,phase_2,stop,400.0,400.0,4.0,,,,,,,,,white,triangle
0.0,7.0,2.0,1.0,6.0,6.0,592.8279390000171,4.0,1.0,phase_2,stop,400.0,450.0,3.0,,,,,,,,,green,square
0.0,3.0,2.0,0.0,6.0,6.0,710.8749519998128,4.0,1.0,phase_2,go,400.0,400.0,1.0,,,,,,,,,cyan,diamond
0.0,7.0,2.0,1.0,6.0,6.0,379.5782720003444,4.0,1.0,phase_2,stop,400.0,400.0,3.0,,,,,,,,,green,square
0.0,4.0,4.0,0.0,6.0,6.0,1007.2171840001829,4.0,1.0,phase_2,go,400.0,350.0,1.0,,,,,,,,,blue,flipped triangle
0.0,1.0,0.5,0.0,6.0,6.0,932.2871819999818,4.0,1.0,phase_2,go,400.0,350.0,1.0,,,,,,,,,magenta,cross
0.0,1.0,0.5,0.0,5.0,5.0,281.073503999778,4.0,1.0,phase_2,go,400.0,350.0,1.0,,,,,,,,,magenta,cross
0.0,3.0,2.0,0.0,6.0,6.0,355.988595999861,4.0,1.0,phase_2,go,400.0,350.0,1.0,,,,,,,,,cyan,diamond
0.0,3.0,2.0,0.0,5.0,5.0,274.261812000077,4.0,1.0,phase_2,go,400.0,350.0,1.0,,,,,,,,,cyan,diamond
0.0,2.0,1.0,0.0,5.0,5.0,395.9827710000354,4.0,1.0,phase_2,go,400.0,350.0,1.0,,,,,,,,,yellow,circle
0.0,8.0,4.0,1.0,6.0,6.0,324.9235670000416,4.0,1.0,phase_2,stop,400.0,350.0,3.0,,,,,,,,,orange,I
0.0,4.0,4.0,0.0,5.0,5.0,447.3000609996234,4.0,1.0,phase_2,go,400.0,300.0,1.0,,,,,,,,,blue,flipped triangle
0.0,1.0,0.5,0.0,5.0,5.0,507.1352879999722,4.0,1.0,phase_2,go,400.0,300.0,1.0,,,,,,,,,magenta,cross
0.0,8.0,4.0,1.0,6.0,6.0,405.8400720000463,4.0,1.0,phase_2,stop,400.0,300.0,3.0,,,,,,,,,orange,I
0.0,1.0,0.5,0.0,5.0,5.0,315.6590650000908,4.0,1.0,phase_2,go,400.0,250.0,1.0,,,,,,,,,magenta,cross
0.0,6.0,1.0,1.0,5.0,5.0,398.0046650003714,4.0,1.0,phase_2,stop,400.0,250.0,3.0,,,,,,,,,white,triangle
0.0,6.0,1.0,1.0,5.0,0.0,0.0,4.0,1.0,phase_2,stop,350.0,250.0,4.0,,,,,,,,,white,triangle
0.0,5.0,0.5,1.0,5.0,5.0,621.4426729998195,4.0,1.0,phase_2,stop,400.0,250.0,3.0,,,,,,,,,gray,hexagon
0.0,4.0,4.0,0.0,6.0,6.0,744.7826249999707,4.0,1.0,phase_2,go,350.0,250.0,1.0,,,,,,,,,blue,flipped triangle
0.0,4.0,4.0,0.0,6.0,6.0,512.6465610001105,4.0,1.0,phase_2,go,350.0,250.0,1.0,,,,,,,,,blue,flipped triangle
0.0,4.0,4.0,0.0,5.0,5.0,666.418012000122,4.0,1.0,phase_2,go,350.0,250.0,1.0,,,,,,,,,blue,flipped triangle
0.0,1.0,0.5,0.0,5.0,5.0,494.1663340000559,5.0,1.0,phase_2,go,350.0,250.0,1.0,,,,,,,,,magenta,cross
0.0,1.0,0.5,0.0,5.0,5.0,420.0336829999287,5.0,1.0,phase_2,go,350.0,250.0,1.0,,,,,,,,,magenta,cross
0.0,5.0,0.5,1.0,6.0,0.0,0.0,5.0,1.0,phase_2,stop,350.0,250.0,4.0,,,,,,,,,gray,hexagon
0.0,6.0,1.0,1.0,5.0,0.0,0.0,5.0,1.0,phase_2,stop,350.0,300.0,4.0,,,,,,,,,white,triangle
0.0,5.0,0.5,1.0,6.0,0.0,0.0,5.0,1.0,phase_2,stop,400.0,300.0,4.0,,,,,,,,,gray,hexagon
0.0,2.0,1.0,0.0,5.0,5.0,503.5965080001006,5.0,1.0,phase_2,go,400.0,350.0,1.0,,,,,,,,,yellow,circle
0.0,2.0,1.0,0.0,6.0,6.0,465.6586250002874,5.0,1.0,phase_2,go,400.0,350.0,1.0,,,,,,,,,yellow,circle
0.0,4.0,4.0,0.0,5.0,5.0,639.6935689999736,5.0,1.0,phase_2,go,400.0,350.0,1.0,,,,,,,,,blue,flipped triangle
0.0,7.0,2.0,1.0,6.0,0.0,0.0,5.0,1.0,phase_2,stop,400.0,350.0,4.0,,,,,,,,,green,square
0.0,2.0,1.0,0.0,6.0,6.0,830.0047739999172,5.0,1.0,phase_2,go,400.0,400.0,1.0,,,,,,,,,yellow,circle
0.0,3.0,2.0,0.0,6.0,6.0,459.0742740001587,5.0,1.0,phase_2,go,400.0,400.0,1.0,,,,,,,,,cyan,diamond
0.0,8.0,4.0,1.0,5.0,0.0,0.0,5.0,1.0,phase_2,stop,400.0,400.0,4.0,,,,,,,,,orange,I
0.0,6.0,1.0,1.0,5.0,0.0,0.0,5.0,1.0,phase_2,stop,450.0,400.0,4.0,,,,,,,,,white,triangle
0.0,6.0,1.0,1.0,6.0,6.0,708.2460910000918,5.0,1.0,phase_2,go,500.0,400.0,1.0,,,,,,,,,white,triangle
0.0,8.0,4.0,1.0,5.0,0.0,0.0,5.0,1.0,phase_2,stop,500.0,400.0,4.0,,,,,,,,,orange,I
0.0,6.0,1.0,1.0,6.0,0.0,0.0,5.0,1.0,phase_2,stop,550.0,400.0,4.0,,,,,,,,,white,triangle
0.0,7.0,2.0,1.0,6.0,6.0,812.8866689999086,5.0,1.0,phase_2,go,550.0,450.0,1.0,,,,,,,,,green,square
0.0,3.0,2.0,0.0,6.0,6.0,559.5953749998444,5.0,1.0,phase_2,go,550.0,450.0,1.0,,,,,,,,,cyan,diamond
0.0,7.0,2.0,1.0,5.0,5.0,520.2729809998345,5.0,1.0,phase_2,stop,550.0,450.0,3.0,,,,,,,,,green,square
0.0,8.0,4.0,1.0,5.0,0.0,0.0,5.0,1.0,phase_2,stop,500.0,450.0,4.0,,,,,,,,,orange,I
0.0,4.0,4.0,0.0,6.0,6.0,872.4662600002375,5.0,1.0,phase_2,go,550.0,450.0,1.0,,,,,,,,,blue,flipped triangle
0.0,7.0,2.0,1.0,5.0,0.0,0.0,5.0,1.0,phase_2,stop,550.0,450.0,4.0,,,,,,,,,green,square
0.0,1.0,0.5,0.0,5.0,5.0,817.8094570002941,5.0,1.0,phase_2,go,600.0,450.0,1.0,,,,,,,,,magenta,cross
0.0,8.0,4.0,1.0,5.0,5.0,813.4375069998896,5.0,1.0,phase_2,go,600.0,450.0,1.0,,,,,,,,,orange,I
0.0,3.0,2.0,0.0,5.0,5.0,825.0521330000993,5.0,1.0,phase_2,go,600.0,450.0,1.0,,,,,,,,,cyan,diamond
0.0,6.0,1.0,1.0,5.0,5.0,594.0142159997777,5.0,1.0,phase_2,stop,600.0,450.0,3.0,,,,,,,,,white,triangle
0.0,5.0,0.5,1.0,5.0,5.0,384.2358869997042,5.0,1.0,phase_2,stop,550.0,450.0,3.0,,,,,,,,,gray,hexagon
0.0,3.0,2.0,0.0,6.0,6.0,398.6720140001125,5.0,1.0,phase_2,go,500.0,450.0,1.0,,,,,,,,,cyan,diamond
0.0,8.0,4.0,1.0,6.0,6.0,320.1693399996657,5.0,1.0,phase_2,stop,500.0,450.0,3.0,,,,,,,,,orange,I
0.0,2.0,1.0,0.0,5.0,5.0,460.5883500003074,5.0,1.0,phase_2,go,500.0,400.0,1.0,,,,,,,,,yellow,circle
0.0,2.0,1.0,0.0,5.0,5.0,436.8297010000788,5.0,1.0,phase_2,go,500.0,400.0,1.0,,,,,,,,,yellow,circle
0.0,5.0,0.5,1.0,5.0,5.0,385.6984630001534,5.0,1.0,phase_2,stop,500.0,400.0,3.0,,,,,,,,,gray,hexagon
0.0,5.0,0.5,1.0,5.0,5.0,390.2687030004017,5.0,1.0,phase_2,stop,450.0,400.0,3.0,,,,,,,,,gray,hexagon
0.0,6.0,1.0,1.0,6.0,0.0,0.0,5.0,1.0,phase_2,stop,400.0,400.0,4.0,,,,,,,,,white,triangle
0.0,1.0,0.5,0.0,6.0,6.0,757.9607349998696,5.0,1.0,phase_2,go,400.0,450.0,1.0,,,,,,,,,magenta,cross
0.0,2.0,1.0,0.0,5.0,5.0,714.3177820003075,5.0,1.0,phase_2,go,400.0,450.0,1.0,,,,,,,,,yellow,circle
0.0,1.0,0.5,0.0,5.0,5.0,753.5585669998,6.0,1.0,phase_2,go,400.0,450.0,1.0,,,,,,,,,magenta,cross
0.0,8.0,4.0,1.0,6.0,6.0,434.1977060003046,6.0,1.0,phase_2,stop,400.0,450.0,3.0,,,,,,,,,orange,I
0.0,5.0,0.5,1.0,6.0,6.0,437.9378429998724,6.0,1.0,phase_2,stop,400.0,400.0,3.0,,,,,,,,,gray,hexagon
0.0,8.0,4.0,1.0,5.0,5.0,189.0111259999685,6.0,1.0,phase_2,stop,400.0,350.0,3.0,,,,,,,,,orange,I
0.0,2.0,1.0,0.0,5.0,5.0,708.288279000044,6.0,1.0,phase_2,go,350.0,350.0,1.0,,,,,,,,,yellow,circle
0.0,2.0,1.0,0.0,6.0,6.0,451.0777520004012,6.0,1.0,phase_2,go,350.0,350.0,1.0,,,,,,,,,yellow,circle
0.0,1.0,0.5,0.0,6.0,6.0,343.5725419999471,6.0,1.0,phase_2,go,350.0,350.0,1.0,,,,,,,,,magenta,cross
0.0,4.0,4.0,0.0,5.0,5.0,252.43629400029022,6.0,1.0,phase_2,go,350.0,350.0,1.0,,,,,,,,,blue,flipped triangle
0.0,7.0,2.0,1.0,5.0,5.0,287.2676599999977,6.0,1.0,phase_2,stop,350.0,350.0,3.0,,,,,,,,,green,square
0.0,2.0,1.0,0.0,6.0,6.0,600.583345000814,6.0,1.0,phase_2,go,300.0,350.0,1.0,,,,,,,,,yellow,circle
0.0,2.0,1.0,0.0,6.0,6.0,396.2613100002272,6.0,1.0,phase_2,go,300.0,350.0,1.0,,,,,,,,,yellow,circle
0.0,6.0,1.0,1.0,6.0,6.0,325.8792300002824,6.0,1.0,phase_2,stop,300.0,350.0,3.0,,,,,,,,,white,triangle
0.0,2.0,1.0,0.0,5.0,5.0,679.4611860004807,6.0,1.0,phase_2,go,300.0,300.0,1.0,,,,,,,,,yellow,circle
0.0,3.0,2.0,0.0,6.0,6.0,662.5491940003485,6.0,1.0,phase_2,go,300.0,300.0,1.0,,,,,,,,,cyan,diamond
0.0,7.0,2.0,1.0,5.0,5.0,413.572307999857,6.0,1.0,phase_2,go,300.0,300.0,1.0,,,,,,,,,green,square
0.0,7.0,2.0,1.0,5.0,0.0,0.0,6.0,1.0,phase_2,stop,300.0,300.0,4.0,,,,,,,,,green,square
0.0,6.0,1.0,1.0,5.0,0.0,0.0,6.0,1.0,phase_2,stop,350.0,300.0,4.0,,,,,,,,,white,triangle
0.0,3.0,2.0,0.0,5.0,5.0,748.239225999896,6.0,1.0,phase_2,go,400.0,300.0,1.0,,,,,,,,,cyan,diamond
0.0,5.0,0.5,1.0,5.0,5.0,441.5662169994903,6.0,1.0,phase_2,stop,400.0,300.0,3.0,,,,,,,,,gray,hexagon
0.0,7.0,2.0,1.0,6.0,6.0,486.3496030002352,6.0,1.0,phase_2,stop,350.0,300.0,3.0,,,,,,,,,green,square
0.0,4.0,4.0,0.0,6.0,6.0,724.5057289992474,6.0,1.0,phase_2,go,350.0,250.0,1.0,,,,,,,,,blue,flipped triangle
0.0,2.0,1.0,0.0,5.0,5.0,667.41611299949,6.0,1.0,phase_2,go,350.0,250.0,1.0,,,,,,,,,yellow,circle
0.0,1.0,0.5,0.0,6.0,6.0,671.3734340000883,6.0,1.0,phase_2,go,350.0,250.0,1.0,,,,,,,,,magenta,cross
0.0,7.0,2.0,1.0,6.0,0.0,0.0,6.0,1.0,phase_2,stop,350.0,250.0,4.0,,,,,,,,,green,square
0.0,2.0,1.0,0.0,6.0,6.0,664.3076730006214,6.0,1.0,phase_2,go,350.0,300.0,1.0,,,,,,,,,yellow,circle
0.0,4.0,4.0,0.0,6.0,6.0,579.6648259993162,6.0,1.0,phase_2,go,350.0,300.0,1.0,,,,,,,,,blue,flipped triangle
0.0,4.0,4.0,0.0,6.0,6.0,805.2662879999843,6.0,1.0,phase_2,go,350.0,300.0,1.0,,,,,,,,,blue,flipped triangle
0.0,6.0,1.0,1.0,5.0,0.0,0.0,6.0,1.0,phase_2,stop,350.0,300.0,4.0,,,,,,,,,white,triangle
0.0,4.0,4.0,0.0,6.0,6.0,716.1259799995605,6.0,1.0,phase_2,go,400.0,300.0,1.0,,,,,,,,,blue,flipped triangle
0.0,8.0,4.0,1.0,5.0,5.0,724.3747070006066,6.0,1.0,phase_2,go,400.0,300.0,1.0,,,,,,,,,orange,I
0.0,1.0,0.5,0.0,6.0,6.0,621.4714660000027,6.0,1.0,phase_2,go,400.0,300.0,1.0,,,,,,,,,magenta,cross
0.0,4.0,4.0,0.0,5.0,5.0,638.4419659998457,6.0,1.0,phase_2,go,400.0,300.0,1.0,,,,,,,,,blue,flipped triangle
0.0,4.0,4.0,0.0,5.0,5.0,688.5297509998054,6.0,1.0,phase_2,go,400.0,300.0,1.0,,,,,,,,,blue,flipped triangle
0.0,7.0,2.0,1.0,5.0,0.0,0.0,6.0,1.0,phase_2,stop,400.0,300.0,4.0,,,,,,,,,green,square
0.0,3.0,2.0,0.0,5.0,5.0,903.1039230003444,6.0,1.0,phase_2,go,450.0,300.0,1.0,,,,,,,,,cyan,diamond
0.0,3.0,2.0,0.0,5.0,5.0,349.413234000167,6.0,1.0,phase_2,go,450.0,300.0,1.0,,,,,,,,,cyan,diamond
0.0,3.0,2.0,0.0,5.0,5.0,543.4611779992338,7.0,1.0,phase_2,go,450.0,300.0,1.0,,,,,,,,,cyan,diamond
0.0,8.0,4.0,1.0,6.0,6.0,381.4434340001753,7.0,1.0,phase_2,stop,450.0,300.0,3.0,,,,,,,,,orange,I
0.0,8.0,4.0,1.0,5.0,0.0,0.0,7.0,1.0,phase_2,stop,450.0,250.0,4.0,,,,,,,,,orange,I
0.0,7.0,2.0,1.0,6.0,6.0,428.3461140003055,7.0,1.0,phase_2,stop,500.0,250.0,3.0,,,,,,,,,green,square
0.0,1.0,0.5,0.0,6.0,6.0,467.9197030000068,7.0,1.0,phase_2,go,500.0,200.0,1.0,,,,,,,,,magenta,cross
0.0,3.0,2.0,0.0,5.0,5.0,293.9637280005627,7.0,1.0,phase_2,go,500.0,200.0,1.0,,,,,,,,,cyan,diamond
0.0,2.0,1.0,0.0,6.0,6.0,457.335153000713,7.0,1.0,phase_2,go,500.0,200.0,1.0,,,,,,,,,yellow,circle
0.0,5.0,0.5,1.0,6.0,0.0,0.0,7.0,1.0,phase_2,stop,500.0,200.0,4.0,,,,,,,,,gray,hexagon
0.0,2.0,1.0,0.0,5.0,5.0,626.8905030001406,7.0,1.0,phase_2,go,500.0,250.0,1.0,,,,,,,,,yellow,circle
0.0,3.0,2.0,0.0,5.0,5.0,311.6624909998791,7.0,1.0,phase_2,go,500.0,250.0,1.0,,,,,,,,,cyan,diamond
0.0,3.0,2.0,0.0,6.0,6.0,726.4251650003644,7.0,1.0,phase_2,go,500.0,250.0,1.0,,,,,,,,,cyan,diamond
0.0,1.0,0.5,0.0,5.0,5.0,322.6763209995624,7.0,1.0,phase_2,go,500.0,250.0,1.0,,,,,,,,,magenta,cross
0.0,7.0,2.0,1.0,6.0,0.0,0.0,7.0,1.0,phase_2,stop,500.0,250.0,4.0,,,,,,,,,green,square
0.0,7.0,2.0,1.0,5.0,5.0,552.6334979995227,7.0,1.0,phase_2,stop,500.0,300.0,3.0,,,,,,,,,green,square
0.0,4.0,4.0,0.0,6.0,6.0,656.1824830005207,7.0,1.0,phase_2,go,450.0,300.0,1.0,,,,,,,,,blue,flipped triangle
0.0,1.0,0.5,0.0,6.0,6.0,737.1097059995009,7.0,1.0,phase_2,go,450.0,300.0,1.0,,,,,,,,,magenta,cross
0.0,6.0,1.0,1.0,6.0,6.0,376.0287360000802,7.0,1.0,phase_2,stop,450.0,300.0,3.0,,,,,,,,,white,triangle
0.0,4.0,4.0,0.0,6.0,6.0,691.9143619998067,7.0,1.0,phase_2,go,450.0,250.0,1.0,,,,,,,,,blue,flipped triangle
0.0,6.0,1.0,1.0,5.0,5.0,564.9757809997027,7.0,1.0,phase_2,stop,450.0,250.0,3.0,,,,,,,,,white,triangle
0.0,1.0,0.5,0.0,6.0,6.0,660.9515090003697,7.0,1.0,phase_2,go,400.0,250.0,1.0,,,,,,,,,magenta,cross
0.0,6.0,1.0,1.0,6.0,6.0,552.2324810008286,7.0,1.0,phase_2,go,400.0,250.0,1.0,,,,,,,,,white,triangle
0.0,3.0,2.0,0.0,5.0,5.0,500.8350200005225,7.0,1.0,phase_2,go,400.0,250.0,1.0,,,,,,,,,cyan,diamond
0.0,1.0,0.5,0.0,6.0,6.0,420.1605930002188,7.0,1.0,phase_2,go,400.0,250.0,1.0,,,,,,,,,magenta,cross
0.0,3.0,2.0,0.0,5.0,5.0,439.8947439995027,7.0,1.0,phase_2,go,400.0,250.0,1.0,,,,,,,,,cyan,diamond
0.0,6.0,1.0,1.0,6.0,0.0,0.0,7.0,1.0,phase_2,stop,400.0,250.0,4.0,,,,,,,,,white,triangle
0.0,1.0,0.5,0.0,6.0,6.0,453.3374120001099,7.0,1.0,phase_2,go,400.0,300.0,1.0,,,,,,,,,magenta,cross
0.0,1.0,0.5,0.0,6.0,6.0,601.7547310002556,7.0,1.0,phase_2,go,400.0,300.0,1.0,,,,,,,,,magenta,cross
0.0,7.0,2.0,1.0,5.0,5.0,508.6595499997202,7.0,1.0,phase_2,stop,400.0,300.0,3.0,,,,,,,,,green,square
0.0,3.0,2.0,0.0,5.0,5.0,495.4537789999449,7.0,1.0,phase_2,go,350.0,300.0,1.0,,,,,,,,,cyan,diamond
0.0,3.0,2.0,0.0,5.0,5.0,401.1172990003615,7.0,1.0,phase_2,go,350.0,300.0,1.0,,,,,,,,,cyan,diamond
0.0,6.0,1.0,1.0,5.0,5.0,454.9227870002141,7.0,1.0,phase_2,stop,350.0,300.0,3.0,,,,,,,,,white,triangle
0.0,8.0,4.0,1.0,6.0,0.0,0.0,7.0,1.0,phase_2,stop,300.0,300.0,4.0,,,,,,,,,orange,I
0.0,2.0,1.0,0.0,6.0,6.0,710.5093620002663,7.0,1.0,phase_2,go,300.0,350.0,1.0,,,,,,,,,yellow,circle
0.0,5.0,0.5,1.0,5.0,5.0,367.5184820003778,7.0,1.0,phase_2,go,300.0,350.0,1.0,,,,,,,,,gray,hexagon
0.0,1.0,0.5,0.0,6.0,6.0,574.8509879995254,7.0,1.0,phase_2,go,300.0,350.0,1.0,,,,,,,,,magenta,cross
0.0,2.0,1.0,0.0,5.0,5.0,300.6203549994097,7.0,1.0,phase_2,go,300.0,350.0,1.0,,,,,,,,,yellow,circle
0.0,8.0,4.0,1.0,6.0,6.0,390.0072779997572,8.0,1.0,phase_2,stop,300.0,350.0,3.0,,,,,,,,,orange,I
0.0,5.0,0.5,1.0,6.0,6.0,338.0685530000846,8.0,1.0,phase_2,stop,300.0,300.0,3.0,,,,,,,,,gray,hexagon
0.0,3.0,2.0,0.0,6.0,6.0,267.9809869996461,8.0,1.0,phase_2,go,300.0,250.0,1.0,,,,,,,,,cyan,diamond
0.0,3.0,2.0,0.0,5.0,5.0,198.6390909996771,8.0,1.0,phase_2,go,300.0,250.0,1.0,,,,,,,,,cyan,diamond
0.0,8.0,4.0,1.0,5.0,5.0,299.8263620002035,8.0,1.0,phase_2,stop,300.0,250.0,3.0,,,,,,,,,orange,I
0.0,8.0,4.0,1.0,5.0,5.0,365.6776709995029,8.0,1.0,phase_2,stop,250.0,250.0,3.0,,,,,,,,,orange,I
0.0,6.0,1.0,1.0,5.0,5.0,312.3789510000279,8.0,1.0,phase_2,stop,200.0,250.0,3.0,,,,,,,,,white,triangle
0.0,2.0,1.0,0.0,5.0,5.0,490.9190880007372,8.0,1.0,phase_2,go,150.0,250.0,1.0,,,,,,,,,yellow,circle
0.0,2.0,1.0,0.0,6.0,6.0,348.3337269999538,8.0,1.0,phase_2,go,150.0,250.0,1.0,,,,,,,,,yellow,circle
0.0,4.0,4.0,0.0,6.0,6.0,379.6041970008446,8.0,1.0,phase_2,go,150.0,250.0,1.0,,,,,,,,,blue,flipped triangle
0.0,3.0,2.0,0.0,6.0,6.0,314.9978569999803,8.0,1.0,phase_2,go,150.0,250.0,1.0,,,,,,,,,cyan,diamond
0.0,6.0,1.0,1.0,6.0,6.0,343.7083380003969,8.0,1.0,phase_2,go,150.0,250.0,1.0,,,,,,,,,white,triangle
0.0,1.0,0.5,0.0,5.0,5.0,341.4071019997209,8.0,1.0,phase_2,go,150.0,250.0,1.0,,,,,,,,,magenta,cross
0.0,3.0,2.0,0.0,5.0,5.0,293.6237869998876,8.0,1.0,phase_2,go,150.0,250.0,1.0,,,,,,,,,cyan,diamond
0.0,4.0,4.0,0.0,6.0,6.0,381.3969309994718,8.0,1.0,phase_2,go,150.0,250.0,1.0,,,,,,,,,blue,flipped triangle
0.0,5.0,0.5,1.0,5.0,0.0,0.0,8.0,1.0,phase_2,stop,150.0,250.0,4.0,,,,,,,,,gray,hexagon
0.0,5.0,0.5,1.0,6.0,0.0,0.0,8.0,1.0,phase_2,stop,200.0,250.0,4.0,,,,,,,,,gray,hexagon
0.0,3.0,2.0,0.0,6.0,6.0,368.122638999921,8.0,1.0,phase_2,go,200.0,300.0,1.0,,,,,,,,,cyan,diamond
0.0,7.0,2.0,1.0,6.0,6.0,336.1041759999352,8.0,1.0,phase_2,stop,200.0,300.0,3.0,,,,,,,,,green,square
0.0,5.0,0.5,1.0,6.0,6.0,636.4303499995003,8.0,1.0,phase_2,go,200.0,250.0,1.0,,,,,,,,,gray,hexagon
0.0,2.0,1.0,0.0,5.0,5.0,374.82882400036027,8.0,1.0,phase_2,go,200.0,250.0,1.0,,,,,,,,,yellow,circle
0.0,3.0,2.0,0.0,5.0,5.0,348.4556439998414,8.0,1.0,phase_2,go,200.0,250.0,1.0,,,,,,,,,cyan,diamond
0.0,7.0,2.0,1.0,6.0,6.0,402.6627779994669,8.0,1.0,phase_2,go,200.0,250.0,1.0,,,,,,,,,green,square
0.0,6.0,1.0,1.0,5.0,5.0,373.3352270000978,8.0,1.0,phase_2,stop,200.0,250.0,3.0,,,,,,,,,white,triangle
0.0,6.0,1.0,1.0,6.0,0.0,0.0,8.0,1.0,phase_2,stop,150.0,250.0,4.0,,,,,,,,,white,triangle
0.0,7.0,2.0,1.0,6.0,6.0,668.6158800002886,8.0,1.0,phase_2,go,150.0,300.0,1.0,,,,,,,,,green,square
0.0,5.0,0.5,1.0,5.0,0.0,0.0,8.0,1.0,phase_2,stop,150.0,300.0,4.0,,,,,,,,,gray,hexagon
0.0,6.0,1.0,1.0,6.0,0.0,0.0,8.0,1.0,phase_2,stop,200.0,300.0,4.0,,,,,,,,,white,triangle
0.0,7.0,2.0,1.0,6.0,0.0,0.0,8.0,1.0,phase_2,stop,200.0,350.0,4.0,,,,,,,,,green,square
0.0,5.0,0.5,1.0,5.0,5.0,472.1997799997552,8.0,1.0,phase_2,go,200.0,400.0,1.0,,,,,,,,,gray,hexagon
0.0,7.0,2.0,1.0,5.0,5.0,396.8205259998285,8.0,1.0,phase_2,stop,200.0,400.0,3.0,,,,,,,,,green,square
0.0,8.0,4.0,1.0,5.0,0.0,0.0,8.0,1.0,phase_2,stop,150.0,400.0,4.0,,,,,,,,,orange,I
0.0,7.0,2.0,1.0,6.0,0.0,0.0,8.0,1.0,phase_2,stop,200.0,400.0,4.0,,,,,,,,,green,square
0.0,4.0,4.0,0.0,6.0,6.0,654.1699549998157,8.0,1.0,phase_2,go,200.0,450.0,1.0,,,,,,,,,blue,flipped triangle
0.0,5.0,0.5,1.0,5.0,0.0,0.0,8.0,1.0,phase_2,stop,200.0,450.0,4.0,,,,,,,,,gray,hexagon
0.0,2.0,1.0,0.0,6.0,6.0,732.5945069997033,8.0,1.0,phase_2,go,250.0,450.0,1.0,,,,,,,,,yellow,circle
0.0,1.0,0.5,0.0,7.0,4.0,290.3020469993862,1.0,1.0,phase_3,,,,,44.0,1.0,176.0,132.0,220.0,44.0,88.0,264.0,magenta,cross
0.0,6.0,1.0,1.0,7.0,1.0,4904.9661259996365,1.0,1.0,phase_3,,,,,294.0,6.0,294.0,98.0,49.0,245.0,196.0,147.0,white,triangle
0.0,4.0,4.0,0.0,7.0,1.0,2063.532044000567,1.0,2.0,phase_3,,,,,49.0,1.0,49.0,294.0,147.0,245.0,98.0,196.0,blue,flipped triangle
0.0,8.0,4.0,1.0,7.0,2.0,3117.84442500084,1.0,1.0,phase_3,,,,,204.0,6.0,136.0,204.0,170.0,34.0,102.0,68.0,orange,I
0.0,8.0,4.0,1.0,7.0,2.0,2051.4561589998266,1.0,1.0,phase_3,,,,,204.0,6.0,136.0,204.0,34.0,102.0,170.0,68.0,orange,I
0.0,7.0,2.0,1.0,7.0,5.0,1944.331575000433,1.0,1.0,phase_3,,,,,234.0,6.0,156.0,39.0,195.0,78.0,234.0,117.0,green,square
0.0,1.0,0.5,0.0,7.0,2.0,2191.1740750001627,1.0,1.0,phase_3,,,,,204.0,6.0,170.0,204.0,102.0,68.0,34.0,136.0,magenta,cross
0.0,1.0,0.5,0.0,7.0,1.0,1880.267558000014,1.0,1.0,phase_3,,,,,204.0,6.0,204.0,68.0,170.0,34.0,102.0,136.0,magenta,cross
0.0,8.0,4.0,1.0,7.0,5.0,1611.1111449999953,1.0,1.0,phase_3,,,,,294.0,6.0,196.0,49.0,98.0,245.0,294.0,147.0,orange,I
0.0,6.0,1.0,1.0,7.0,2.0,1499.1506229998777,1.0,1.0,phase_3,,,,,220.0,5.0,132.0,220.0,264.0,88.0,44.0,176.0,white,triangle
0.0,6.0,1.0,1.0,7.0,3.0,1790.2879060002306,1.0,1.0,phase_3,,,,,204.0,6.0,102.0,34.0,204.0,170.0,136.0,68.0,white,triangle
0.0,5.0,0.5,1.0,7.0,3.0,1832.9576330006605,1.0,1.0,phase_3,,,,,220.0,5.0,88.0,264.0,220.0,132.0,176.0,44.0,gray,hexagon
0.0,7.0,2.0,1.0,7.0,3.0,2164.5090840002013,1.0,1.0,phase_3,,,,,324.0,6.0,108.0,162.0,324.0,270.0,216.0,54.0,green,square
0.0,3.0,2.0,0.0,7.0,3.0,1568.2327679996888,1.0,1.0,phase_3,,,,,220.0,5.0,264.0,176.0,220.0,88.0,44.0,132.0,cyan,diamond
0.0,1.0,0.5,0.0,7.0,4.0,1798.3435030000692,1.0,1.0,phase_3,,,,,162.0,3.0,54.0,324.0,108.0,162.0,216.0,270.0,magenta,cross
0.0,8.0,4.0,1.0,7.0,1.0,970.3793810003843,1.0,1.0,phase_3,,,,,88.0,2.0,88.0,132.0,220.0,44.0,264.0,176.0,orange,I
0.0,2.0,1.0,0.0,7.0,2.0,2482.280426000216,1.0,1.0,phase_3,,,,,204.0,6.0,34.0,204.0,102.0,170.0,136.0,68.0,yellow,circle
0.0,7.0,2.0,1.0,7.0,6.0,1711.0990219998712,1.0,1.0,phase_3,,,,,49.0,1.0,245.0,147.0,294.0,98.0,196.0,49.0,green,square
0.0,4.0,4.0,0.0,7.0,2.0,3160.570380000536,1.0,1.0,phase_3,,,,,34.0,1.0,204.0,34.0,102.0,170.0,68.0,136.0,blue,flipped triangle
0.0,5.0,0.5,1.0,7.0,2.0,1635.1034130002515,1.0,1.0,phase_3,,,,,78.0,2.0,39.0,78.0,117.0,195.0,156.0,234.0,gray,hexagon
0.0,1.0,0.5,0.0,7.0,1.0,1988.4184219999952,2.0,1.0,phase_3,,,,,54.0,1.0,54.0,108.0,270.0,162.0,216.0,324.0,magenta,cross
0.0,3.0,2.0,0.0,7.0,4.0,1695.583570999588,2.0,1.0,phase_3,,,,,162.0,3.0,216.0,108.0,54.0,162.0,324.0,270.0,cyan,diamond
0.0,3.0,2.0,0.0,7.0,2.0,1906.846703000156,2.0,1.0,phase_3,,,,,324.0,6.0,54.0,324.0,270.0,216.0,108.0,162.0,cyan,diamond
0.0,5.0,0.5,1.0,7.0,6.0,935.8651410002494,2.0,1.0,phase_3,,,,,294.0,6.0,245.0,147.0,196.0,98.0,49.0,294.0,gray,hexagon
0.0,7.0,2.0,1.0,7.0,6.0,1704.3233849999524,2.0,1.0,phase_3,,,,,88.0,2.0,44.0,264.0,176.0,220.0,132.0,88.0,green,square
0.0,3.0,2.0,0.0,7.0,4.0,1074.284102999627,2.0,1.0,phase_3,,,,,132.0,3.0,220.0,44.0,176.0,132.0,264.0,88.0,cyan,diamond
0.0,4.0,4.0,0.0,7.0,3.0,1471.809828000005,2.0,1.0,phase_3,,,,,108.0,2.0,162.0,324.0,108.0,216.0,270.0,54.0,blue,flipped triangle
0.0,1.0,0.5,0.0,7.0,3.0,2040.9483430003093,2.0,1.0,phase_3,,,,,196.0,4.0,98.0,245.0,196.0,294.0,49.0,147.0,magenta,cross
0.0,6.0,1.0,1.0,7.0,5.0,1186.4301770001475,2.0,1.0,phase_3,,,,,324.0,6.0,162.0,270.0,54.0,216.0,324.0,108.0,white,triangle
0.0,4.0,4.0,0.0,7.0,3.0,2654.8029329997007,2.0,1.0,phase_3,,,,,176.0,4.0,132.0,220.0,176.0,44.0,88.0,264.0,blue,flipped triangle
0.0,3.0,2.0,0.0,7.0,2.0,2113.4883219992844,2.0,1.0,phase_3,,,,,204.0,6.0,34.0,204.0,102.0,170.0,68.0,136.0,cyan,diamond
0.0,2.0,1.0,0.0,7.0,5.0,1832.2958959997775,2.0,1.0,phase_3,,,,,176.0,4.0,220.0,44.0,88.0,264.0,176.0,132.0,yellow,circle
0.0,6.0,1.0,1.0,7.0,6.0,2913.7510450000264,2.0,1.0,phase_3,,,,,78.0,2.0,234.0,39.0,156.0,117.0,195.0,78.0,white,triangle
0.0,2.0,1.0,0.0,7.0,2.0,3799.091502999545,2.0,1.0,phase_3,,,,,196.0,4.0,245.0,196.0,294.0,98.0,147.0,49.0,yellow,circle
0.0,2.0,1.0,0.0,7.0,6.0,3433.244396000191,2.0,1.0,phase_3,,,,,324.0,6.0,270.0,216.0,54.0,162.0,108.0,324.0,yellow,circle
0.0,2.0,1.0,0.0,7.0,5.0,2855.456878999576,2.0,1.0,phase_3,,,,,294.0,6.0,147.0,196.0,49.0,98.0,294.0,245.0,yellow,circle
0.0,7.0,2.0,1.0,7.0,1.0,2915.338541999517,2.0,1.0,phase_3,,,,,204.0,6.0,204.0,34.0,102.0,136.0,170.0,68.0,green,square
0.0,5.0,0.5,1.0,7.0,1.0,2452.33756900052,2.0,1.0,phase_3,,,,,39.0,1.0,39.0,156.0,117.0,78.0,234.0,195.0,gray,hexagon
0.0,6.0,1.0,1.0,7.0,3.0,1497.554331999709,2.0,1.0,phase_3,,,,,54.0,1.0,216.0,162.0,54.0,324.0,270.0,108.0,white,triangle
0.0,3.0,2.0,0.0,7.0,4.0,1421.5892659995006,2.0,1.0,phase_3,,,,,117.0,3.0,234.0,78.0,156.0,117.0,195.0,39.0,cyan,diamond
0.0,1.0,0.5,0.0,7.0,5.0,1470.9831140007736,3.0,1.0,phase_3,,,,,294.0,6.0,245.0,49.0,98.0,147.0,294.0,196.0,magenta,cross
0.0,4.0,4.0,0.0,7.0,3.0,1308.8486740007284,3.0,1.0,phase_3,,,,,156.0,4.0,39.0,195.0,156.0,234.0,78.0,117.0,blue,flipped triangle
0.0,8.0,4.0,1.0,7.0,2.0,2543.1547050002337,3.0,1.0,phase_3,,,,,220.0,5.0,264.0,220.0,132.0,176.0,44.0,88.0,orange,I
0.0,1.0,0.5,0.0,7.0,6.0,2878.16766800006,3.0,1.0,phase_3,,,,,220.0,5.0,264.0,44.0,88.0,176.0,132.0,220.0,magenta,cross
0.0,2.0,1.0,0.0,7.0,1.0,1854.75483800019,3.0,1.0,phase_3,,,,,204.0,6.0,204.0,170.0,34.0,136.0,68.0,102.0,yellow,circle
0.0,1.0,0.5,0.0,7.0,1.0,1046.6661450000174,3.0,1.0,phase_3,,,,,117.0,3.0,117.0,39.0,195.0,78.0,234.0,156.0,magenta,cross
0.0,3.0,2.0,0.0,7.0,3.0,1586.3000879999165,3.0,1.0,phase_3,,,,,117.0,3.0,156.0,78.0,117.0,39.0,234.0,195.0,cyan,diamond
0.0,4.0,4.0,0.0,7.0,4.0,2315.067756999269,3.0,1.0,phase_3,,,,,204.0,6.0,136.0,102.0,68.0,204.0,34.0,170.0,blue,flipped triangle
0.0,8.0,4.0,1.0,7.0,3.0,2259.054064999873,3.0,1.0,phase_3,,,,,234.0,6.0,156.0,117.0,234.0,78.0,39.0,195.0,orange,I
0.0,5.0,0.5,1.0,7.0,6.0,2634.497965000264,3.0,1.0,phase_3,,,,,324.0,6.0,54.0,216.0,162.0,108.0,270.0,324.0,gray,hexagon
0.0,2.0,1.0,0.0,7.0,1.0,2363.8535039999624,3.0,1.0,phase_3,,,,,54.0,1.0,54.0,216.0,162.0,270.0,324.0,108.0,yellow,circle
0.0,7.0,2.0,1.0,7.0,4.0,3185.9513440003866,3.0,1.0,phase_3,,,,,245.0,5.0,49.0,294.0,147.0,245.0,196.0,98.0,green,square
0.0,3.0,2.0,0.0,7.0,5.0,2437.817433999953,3.0,1.0,phase_3,,,,,196.0,4.0,294.0,49.0,147.0,245.0,196.0,98.0,cyan,diamond
0.0,4.0,4.0,0.0,7.0,5.0,2633.507804999681,3.0,1.0,phase_3,,,,,196.0,4.0,147.0,49.0,98.0,294.0,196.0,245.0,blue,flipped triangle
0.0,2.0,1.0,0.0,7.0,3.0,2287.1689639996475,3.0,1.0,phase_3,,,,,117.0,3.0,195.0,39.0,117.0,78.0,234.0,156.0,yellow,circle
0.0,4.0,4.0,0.0,7.0,2.0,2584.7931050002444,3.0,1.0,phase_3,,,,,216.0,4.0,162.0,216.0,108.0,270.0,54.0,324.0,blue,flipped triangle
0.0,7.0,2.0,1.0,7.0,5.0,1899.178634999771,3.0,1.0,phase_3,,,,,270.0,5.0,324.0,162.0,108.0,216.0,270.0,54.0,green,square
0.0,4.0,4.0,0.0,7.0,4.0,2475.7151430003432,3.0,1.0,phase_3,,,,,132.0,3.0,264.0,88.0,44.0,132.0,220.0,176.0,blue,flipped triangle
0.0,3.0,2.0,0.0,7.0,4.0,1831.351261999771,3.0,1.0,phase_3,,,,,204.0,6.0,102.0,170.0,68.0,204.0,136.0,34.0,cyan,diamond
0.0,5.0,0.5,1.0,7.0,1.0,1465.633329999946,3.0,1.0,phase_3,,,,,34.0,1.0,34.0,102.0,136.0,170.0,68.0,204.0,gray,hexagon
0.0,1.0,0.5,0.0,7.0,2.0,1279.2258479994416,4.0,1.0,phase_3,,,,,195.0,5.0,78.0,195.0,156.0,117.0,39.0,234.0,magenta,cross
0.0,7.0,2.0,1.0,7.0,3.0,2383.2397860005585,4.0,1.0,phase_3,,,,,132.0,3.0,220.0,88.0,132.0,264.0,176.0,44.0,green,square
0.0,3.0,2.0,0.0,7.0,2.0,1955.9308409998264,4.0,1.0,phase_3,,,,,196.0,4.0,294.0,196.0,49.0,98.0,245.0,147.0,cyan,diamond
0.0,6.0,1.0,1.0,7.0,1.0,2435.105009999461,4.0,1.0,phase_3,,,,,68.0,2.0,68.0,204.0,34.0,136.0,170.0,102.0,white,triangle
0.0,2.0,1.0,0.0,7.0,3.0,2492.3687139998947,4.0,1.0,phase_3,,,,,117.0,3.0,156.0,234.0,117.0,195.0,39.0,78.0,yellow,circle
0.0,5.0,0.5,1.0,7.0,2.0,1144.0585660002398,4.0,1.0,phase_3,,,,,34.0,1.0,204.0,34.0,102.0,68.0,136.0,170.0,gray,hexagon
0.0,6.0,1.0,1.0,7.0,6.0,3052.965584999584,4.0,1.0,phase_3,,,,,245.0,5.0,98.0,147.0,294.0,196.0,49.0,245.0,white,triangle
0.0,8.0,4.0,1.0,7.0,1.0,2190.8793759994296,4.0,1.0,phase_3,,,,,294.0,6.0,294.0,98.0,147.0,196.0,245.0,49.0,orange,I
0.0,5.0,0.5,1.0,7.0,4.0,2019.2469900002834,4.0,1.0,phase_3,,,,,44.0,1.0,220.0,132.0,176.0,44.0,88.0,264.0,gray,hexagon
0.0,2.0,1.0,0.0,7.0,4.0,1788.000479999937,4.0,1.0,phase_3,,,,,220.0,5.0,88.0,264.0,132.0,220.0,176.0,44.0,yellow,circle
0.0,8.0,4.0,1.0,7.0,5.0,2941.820607000409,4.0,1.0,phase_3,,,,,324.0,6.0,162.0,108.0,270.0,216.0,324.0,54.0,orange,I
0.0,7.0,2.0,1.0,7.0,2.0,3380.88755499939,4.0,1.0,phase_3,,,,,156.0,4.0,117.0,156.0,234.0,78.0,39.0,195.0,green,square
0.0,7.0,2.0,1.0,7.0,2.0,4319.928456000525,4.0,1.0,phase_3,,,,,170.0,5.0,136.0,170.0,204.0,68.0,34.0,102.0,green,square
0.0,5.0,0.5,1.0,7.0,4.0,2540.130074999979,4.0,1.0,phase_3,,,,,49.0,1.0,147.0,196.0,245.0,49.0,98.0,294.0,gray,hexagon
0.0,4.0,4.0,0.0,7.0,2.0,4417.156508000517,4.0,1.0,phase_3,,,,,156.0,4.0,117.0,156.0,234.0,78.0,39.0,195.0,blue,flipped triangle
0.0,6.0,1.0,1.0,7.0,5.0,1436.9533629997022,4.0,1.0,phase_3,,,,,39.0,1.0,117.0,234.0,156.0,78.0,39.0,195.0,white,triangle
0.0,8.0,4.0,1.0,7.0,4.0,3336.83704699979,4.0,1.0,phase_3,,,,,270.0,5.0,108.0,54.0,324.0,270.0,216.0,162.0,orange,I
0.0,5.0,0.5,1.0,7.0,1.0,3384.561596999447,4.0,1.0,phase_3,,,,,54.0,1.0,54.0,108.0,162.0,216.0,270.0,324.0,gray,hexagon
0.0,6.0,1.0,1.0,7.0,5.0,2961.65870599998,4.0,1.0,phase_3,,,,,44.0,1.0,220.0,132.0,264.0,88.0,44.0,176.0,white,triangle
0.0,8.0,4.0,1.0,7.0,5.0,1939.489151999624,4.0,1.0,phase_3,,,,,39.0,1.0,195.0,78.0,234.0,156.0,39.0,117.0,orange,I
