raw_reward_magnitude,stim_reward,stepwise_reward_magnitude,paired_with_stopping,quadrant,response,reaction_time,block,num_trial_presentations,which_part,stop_signal_trial_type,left_SSD,right_SSD,accuracy,chosen_bidding_amount,chosen_bidding_level,possible_bid_1,possible_bid_2,possible_bid_3,possible_bid_4,possible_bid_5,possible_bid_6,color_text,shape_text
116.0,2.0,2.0,0.0,2.0,2.0,361.1480739998569,1.0,1.0,part_1,,,,,,,,,,,,,yellow,square
64.0,1.0,1.0,0.0,2.0,2.0,305.2783209998324,1.0,1.0,part_1,,,,,,,,,,,,,gray,flipped triangle
78.0,2.0,2.0,0.0,1.0,1.0,303.6559820000093,1.0,1.0,part_1,,,,,,,,,,,,,yellow,square
0.0,6.0,0.0,1.0,2.0,2.0,354.3905960000302,1.0,1.0,part_1,,,,,,,,,,,,,white,I
100.0,2.0,2.0,0.0,4.0,4.0,303.7233360000755,1.0,1.0,part_1,,,,,,,,,,,,,yellow,square
65.0,5.0,1.0,1.0,4.0,4.0,361.8292050000491,1.0,1.0,part_1,,,,,,,,,,,,,green,circle
37.0,1.0,1.0,0.0,1.0,1.0,347.274944999981,1.0,1.0,part_1,,,,,,,,,,,,,gray,flipped triangle
390.0,8.0,4.0,1.0,3.0,3.0,368.7981030000173,1.0,1.0,part_1,,,,,,,,,,,,,orange,hexagon
0.0,2.0,0.0,0.0,1.0,1.0,313.1126129999302,1.0,1.0,part_1,,,,,,,,,,,,,yellow,square
389.0,4.0,4.0,0.0,1.0,1.0,355.1510639999833,1.0,1.0,part_1,,,,,,,,,,,,,blue,diamond
108.0,6.0,2.0,1.0,3.0,3.0,323.2508920000327,1.0,1.0,part_1,,,,,,,,,,,,,white,I
201.0,7.0,3.0,1.0,3.0,3.0,347.2055069998987,1.0,1.0,part_1,,,,,,,,,,,,,magenta,triangle
181.0,7.0,3.0,1.0,4.0,4.0,342.9380599998239,1.0,1.0,part_1,,,,,,,,,,,,,magenta,triangle
54.0,1.0,1.0,0.0,2.0,2.0,315.0071679999655,1.0,1.0,part_1,,,,,,,,,,,,,gray,flipped triangle
0.0,3.0,0.0,0.0,4.0,4.0,275.5502059999344,1.0,1.0,part_1,,,,,,,,,,,,,cyan,cross
0.0,3.0,0.0,0.0,2.0,2.0,282.6342780001596,1.0,1.0,part_1,,,,,,,,,,,,,cyan,cross
76.0,6.0,2.0,1.0,2.0,2.0,293.3076229999187,1.0,1.0,part_1,,,,,,,,,,,,,white,I
199.0,7.0,3.0,1.0,2.0,2.0,270.8102320000307,1.0,1.0,part_1,,,,,,,,,,,,,magenta,triangle
77.0,2.0,2.0,0.0,4.0,4.0,271.6520950000358,1.0,1.0,part_1,,,,,,,,,,,,,yellow,square
66.0,1.0,1.0,0.0,1.0,1.0,308.2733440000993,1.0,1.0,part_1,,,,,,,,,,,,,gray,flipped triangle
122.0,2.0,2.0,0.0,2.0,2.0,357.9847900000459,1.0,1.0,part_1,,,,,,,,,,,,,yellow,square
79.0,2.0,2.0,0.0,2.0,2.0,345.3928659998837,1.0,1.0,part_1,,,,,,,,,,,,,yellow,square
423.0,8.0,4.0,1.0,4.0,4.0,317.6284329999816,1.0,1.0,part_1,,,,,,,,,,,,,orange,hexagon
120.0,2.0,2.0,0.0,4.0,4.0,309.4812009999259,1.0,1.0,part_1,,,,,,,,,,,,,yellow,square
78.0,6.0,2.0,1.0,2.0,2.0,698.6112400002185,1.0,1.0,part_1,,,,,,,,,,,,,white,I
66.0,5.0,1.0,1.0,2.0,2.0,411.8848110001636,1.0,1.0,part_1,,,,,,,,,,,,,green,circle
49.0,1.0,1.0,0.0,3.0,3.0,499.382555000011,1.0,1.0,part_1,,,,,,,,,,,,,gray,flipped triangle
31.0,1.0,1.0,0.0,2.0,2.0,310.6411230000958,1.0,1.0,part_1,,,,,,,,,,,,,gray,flipped triangle
199.0,3.0,3.0,0.0,1.0,1.0,339.9296519999097,1.0,1.0,part_1,,,,,,,,,,,,,cyan,cross
211.0,7.0,3.0,1.0,3.0,3.0,349.9854380002034,1.0,1.0,part_1,,,,,,,,,,,,,magenta,triangle
88.0,6.0,2.0,1.0,4.0,4.0,343.6579829999573,1.0,1.0,part_1,,,,,,,,,,,,,white,I
182.0,7.0,3.0,1.0,4.0,4.0,345.2531699999781,1.0,1.0,part_1,,,,,,,,,,,,,magenta,triangle
212.0,7.0,3.0,1.0,2.0,2.0,373.8207210001292,1.0,1.0,part_1,,,,,,,,,,,,,magenta,triangle
0.0,4.0,0.0,0.0,4.0,4.0,345.1708570000846,1.0,1.0,part_1,,,,,,,,,,,,,blue,diamond
193.0,7.0,3.0,1.0,2.0,2.0,379.3902689999413,1.0,1.0,part_1,,,,,,,,,,,,,magenta,triangle
25.0,5.0,1.0,1.0,1.0,1.0,378.1148069999744,1.0,1.0,part_1,,,,,,,,,,,,,green,circle
102.0,6.0,2.0,1.0,4.0,4.0,353.3254460000989,1.0,1.0,part_1,,,,,,,,,,,,,white,I
0.0,7.0,0.0,1.0,3.0,3.0,398.1947970000874,1.0,1.0,part_1,,,,,,,,,,,,,magenta,triangle
0.0,2.0,0.0,0.0,4.0,4.0,429.4920099998762,1.0,1.0,part_1,,,,,,,,,,,,,yellow,square
56.0,1.0,1.0,0.0,3.0,3.0,345.1141139998981,1.0,1.0,part_1,,,,,,,,,,,,,gray,flipped triangle
415.0,8.0,4.0,1.0,4.0,4.0,350.5097940001178,1.0,1.0,part_1,,,,,,,,,,,,,orange,hexagon
405.0,4.0,4.0,0.0,2.0,2.0,421.0555080001086,1.0,1.0,part_1,,,,,,,,,,,,,blue,diamond
25.0,1.0,1.0,0.0,4.0,4.0,341.2389669999811,1.0,1.0,part_1,,,,,,,,,,,,,gray,flipped triangle
0.0,5.0,0.0,1.0,4.0,4.0,325.9265220001452,1.0,1.0,part_1,,,,,,,,,,,,,green,circle
212.0,7.0,3.0,1.0,3.0,3.0,388.930855000126,1.0,1.0,part_1,,,,,,,,,,,,,magenta,triangle
212.0,3.0,3.0,0.0,1.0,1.0,285.3590429999713,1.0,1.0,part_1,,,,,,,,,,,,,cyan,cross
217.0,3.0,3.0,0.0,3.0,3.0,324.2327319999276,1.0,1.0,part_1,,,,,,,,,,,,,cyan,cross
46.0,5.0,1.0,1.0,4.0,4.0,293.8173570000799,1.0,1.0,part_1,,,,,,,,,,,,,green,circle
0.0,7.0,0.0,1.0,1.0,1.0,284.1858730000695,1.0,1.0,part_1,,,,,,,,,,,,,magenta,triangle
122.0,2.0,2.0,0.0,1.0,1.0,387.0426739999857,1.0,1.0,part_1,,,,,,,,,,,,,yellow,square
26.0,5.0,1.0,1.0,4.0,4.0,341.6397379999125,1.0,1.0,part_1,,,,,,,,,,,,,green,circle
82.0,2.0,2.0,0.0,3.0,3.0,312.2577539998019,1.0,1.0,part_1,,,,,,,,,,,,,yellow,square
39.0,5.0,1.0,1.0,1.0,1.0,426.360220999868,1.0,1.0,part_1,,,,,,,,,,,,,green,circle
224.0,7.0,3.0,1.0,3.0,3.0,355.2773419999084,1.0,1.0,part_1,,,,,,,,,,,,,magenta,triangle
0.0,6.0,0.0,1.0,3.0,3.0,597.8493800000706,1.0,1.0,part_1,,,,,,,,,,,,,white,I
186.0,3.0,3.0,0.0,1.0,1.0,484.6288080000249,1.0,1.0,part_1,,,,,,,,,,,,,cyan,cross
176.0,3.0,3.0,0.0,4.0,4.0,381.2695440001334,1.0,1.0,part_1,,,,,,,,,,,,,cyan,cross
88.0,2.0,2.0,0.0,3.0,3.0,511.6767020001589,1.0,1.0,part_1,,,,,,,,,,,,,yellow,square
219.0,3.0,3.0,0.0,3.0,3.0,489.4779010001002,1.0,1.0,part_1,,,,,,,,,,,,,cyan,cross
100.0,2.0,2.0,0.0,3.0,3.0,489.9518069998976,1.0,1.0,part_1,,,,,,,,,,,,,yellow,square
0.0,4.0,0.0,0.0,3.0,3.0,524.8447359999773,1.0,1.0,part_1,,,,,,,,,,,,,blue,diamond
113.0,2.0,2.0,0.0,2.0,2.0,396.1902179999015,1.0,1.0,part_1,,,,,,,,,,,,,yellow,square
0.0,4.0,0.0,0.0,4.0,4.0,395.9363169999506,1.0,1.0,part_1,,,,,,,,,,,,,blue,diamond
51.0,1.0,1.0,0.0,4.0,4.0,438.6825460001091,1.0,1.0,part_1,,,,,,,,,,,,,gray,flipped triangle
383.0,8.0,4.0,1.0,3.0,3.0,391.3853229998949,1.0,1.0,part_1,,,,,,,,,,,,,orange,hexagon
176.0,3.0,3.0,0.0,3.0,3.0,819.2958969998472,1.0,1.0,part_1,,,,,,,,,,,,,cyan,cross
72.0,5.0,1.0,1.0,2.0,2.0,554.4275620000008,1.0,1.0,part_1,,,,,,,,,,,,,green,circle
0.0,5.0,0.0,1.0,4.0,4.0,405.3923839999243,1.0,1.0,part_1,,,,,,,,,,,,,green,circle
388.0,4.0,4.0,0.0,3.0,3.0,310.4320919999281,1.0,1.0,part_1,,,,,,,,,,,,,blue,diamond
0.0,1.0,0.0,0.0,2.0,2.0,400.6509690000257,1.0,1.0,part_1,,,,,,,,,,,,,gray,flipped triangle
219.0,7.0,3.0,1.0,3.0,3.0,308.0123029999413,1.0,1.0,part_1,,,,,,,,,,,,,magenta,triangle
214.0,3.0,3.0,0.0,4.0,4.0,313.8650389998929,1.0,1.0,part_1,,,,,,,,,,,,,cyan,cross
71.0,5.0,1.0,1.0,3.0,3.0,449.3781229998603,1.0,1.0,part_1,,,,,,,,,,,,,green,circle
377.0,4.0,4.0,0.0,3.0,3.0,313.2654609999008,1.0,1.0,part_1,,,,,,,,,,,,,blue,diamond
100.0,6.0,2.0,1.0,1.0,1.0,372.0131569998557,1.0,1.0,part_1,,,,,,,,,,,,,white,I
102.0,6.0,2.0,1.0,1.0,1.0,402.6537990000634,1.0,1.0,part_1,,,,,,,,,,,,,white,I
419.0,4.0,4.0,0.0,2.0,2.0,291.065448000154,1.0,1.0,part_1,,,,,,,,,,,,,blue,diamond
189.0,3.0,3.0,0.0,1.0,1.0,392.6422300000922,1.0,1.0,part_1,,,,,,,,,,,,,cyan,cross
184.0,3.0,3.0,0.0,2.0,2.0,306.2520430000859,1.0,1.0,part_1,,,,,,,,,,,,,cyan,cross
58.0,5.0,1.0,1.0,2.0,2.0,385.678900999892,1.0,1.0,part_1,,,,,,,,,,,,,green,circle
0.0,2.0,0.0,0.0,1.0,1.0,466.0234760001458,1.0,1.0,part_1,,,,,,,,,,,,,yellow,square
192.0,7.0,3.0,1.0,1.0,1.0,360.2429649999976,1.0,1.0,part_1,,,,,,,,,,,,,magenta,triangle
50.0,1.0,1.0,0.0,4.0,4.0,361.9125780001013,1.0,1.0,part_1,,,,,,,,,,,,,gray,flipped triangle
52.0,1.0,1.0,0.0,2.0,2.0,267.0280800000455,1.0,1.0,part_1,,,,,,,,,,,,,gray,flipped triangle
0.0,6.0,0.0,1.0,4.0,4.0,378.2879189998311,1.0,1.0,part_1,,,,,,,,,,,,,white,I
392.0,4.0,4.0,0.0,3.0,3.0,353.5274230000595,1.0,1.0,part_1,,,,,,,,,,,,,blue,diamond
221.0,7.0,3.0,1.0,3.0,3.0,360.7075220002116,1.0,1.0,part_1,,,,,,,,,,,,,magenta,triangle
52.0,5.0,1.0,1.0,3.0,3.0,318.6857759999384,1.0,1.0,part_1,,,,,,,,,,,,,green,circle
77.0,6.0,2.0,1.0,3.0,3.0,323.5323399999288,1.0,1.0,part_1,,,,,,,,,,,,,white,I
0.0,6.0,0.0,1.0,3.0,3.0,305.4548659999909,1.0,1.0,part_1,,,,,,,,,,,,,white,I
0.0,5.0,0.0,1.0,1.0,1.0,328.6524699999518,1.0,1.0,part_1,,,,,,,,,,,,,green,circle
189.0,7.0,3.0,1.0,3.0,3.0,274.2458210000222,1.0,1.0,part_1,,,,,,,,,,,,,magenta,triangle
99.0,6.0,2.0,1.0,4.0,4.0,451.7647949999173,1.0,1.0,part_1,,,,,,,,,,,,,white,I
200.0,3.0,3.0,0.0,2.0,2.0,382.6946100000441,1.0,1.0,part_1,,,,,,,,,,,,,cyan,cross
94.0,2.0,2.0,0.0,1.0,1.0,306.3545630000135,1.0,1.0,part_1,,,,,,,,,,,,,yellow,square
65.0,1.0,1.0,0.0,2.0,2.0,400.7571409999855,1.0,1.0,part_1,,,,,,,,,,,,,gray,flipped triangle
385.0,4.0,4.0,0.0,1.0,1.0,427.1824939999078,1.0,1.0,part_1,,,,,,,,,,,,,blue,diamond
209.0,7.0,3.0,1.0,4.0,4.0,329.0075889999571,1.0,1.0,part_1,,,,,,,,,,,,,magenta,triangle
0.0,8.0,0.0,1.0,3.0,3.0,379.6500310002102,1.0,1.0,part_1,,,,,,,,,,,,,orange,hexagon
402.0,4.0,4.0,0.0,1.0,1.0,442.4582399999508,1.0,1.0,part_1,,,,,,,,,,,,,blue,diamond
422.0,8.0,4.0,1.0,4.0,4.0,338.4016129998599,2.0,1.0,part_1,,,,,,,,,,,,,orange,hexagon
0.0,4.0,0.0,0.0,2.0,2.0,268.2248969999818,2.0,1.0,part_1,,,,,,,,,,,,,blue,diamond
46.0,1.0,1.0,0.0,4.0,4.0,324.4551339998907,2.0,1.0,part_1,,,,,,,,,,,,,gray,flipped triangle
111.0,2.0,2.0,0.0,3.0,3.0,322.2259809999741,2.0,1.0,part_1,,,,,,,,,,,,,yellow,square
379.0,8.0,4.0,1.0,3.0,3.0,345.7231540000975,2.0,1.0,part_1,,,,,,,,,,,,,orange,hexagon
116.0,6.0,2.0,1.0,4.0,4.0,295.9880989999419,2.0,1.0,part_1,,,,,,,,,,,,,white,I
201.0,3.0,3.0,0.0,2.0,2.0,336.2298970000665,2.0,1.0,part_1,,,,,,,,,,,,,cyan,cross
424.0,4.0,4.0,0.0,3.0,3.0,347.0921589998852,2.0,1.0,part_1,,,,,,,,,,,,,blue,diamond
0.0,2.0,0.0,0.0,3.0,3.0,475.9126139999807,2.0,1.0,part_1,,,,,,,,,,,,,yellow,square
45.0,5.0,1.0,1.0,2.0,2.0,293.2687869999881,2.0,1.0,part_1,,,,,,,,,,,,,green,circle
31.0,5.0,1.0,1.0,3.0,3.0,261.2716409998938,2.0,1.0,part_1,,,,,,,,,,,,,green,circle
0.0,2.0,0.0,0.0,1.0,1.0,355.7853649999742,2.0,1.0,part_1,,,,,,,,,,,,,yellow,square
378.0,8.0,4.0,1.0,1.0,1.0,330.4261129999304,2.0,1.0,part_1,,,,,,,,,,,,,orange,hexagon
92.0,6.0,2.0,1.0,2.0,2.0,312.4089380000896,2.0,1.0,part_1,,,,,,,,,,,,,white,I
64.0,5.0,1.0,1.0,3.0,3.0,467.32734899978817,2.0,1.0,part_1,,,,,,,,,,,,,green,circle
0.0,6.0,0.0,1.0,4.0,4.0,276.0382200001459,2.0,1.0,part_1,,,,,,,,,,,,,white,I
184.0,7.0,3.0,1.0,1.0,1.0,314.0739529999337,2.0,1.0,part_1,,,,,,,,,,,,,magenta,triangle
178.0,3.0,3.0,0.0,4.0,4.0,385.0016710000545,2.0,1.0,part_1,,,,,,,,,,,,,cyan,cross
89.0,2.0,2.0,0.0,3.0,3.0,390.5771370000366,2.0,1.0,part_1,,,,,,,,,,,,,yellow,square
388.0,8.0,4.0,1.0,2.0,2.0,348.50087400013757,2.0,1.0,part_1,,,,,,,,,,,,,orange,hexagon
42.0,1.0,1.0,0.0,3.0,3.0,392.7394840000033,2.0,1.0,part_1,,,,,,,,,,,,,gray,flipped triangle
34.0,5.0,1.0,1.0,2.0,2.0,356.0569169999326,2.0,1.0,part_1,,,,,,,,,,,,,green,circle
402.0,8.0,4.0,1.0,4.0,4.0,389.2031170000791,2.0,1.0,part_1,,,,,,,,,,,,,orange,hexagon
51.0,1.0,1.0,0.0,1.0,1.0,412.6761780000834,2.0,1.0,part_1,,,,,,,,,,,,,gray,flipped triangle
82.0,6.0,2.0,1.0,1.0,1.0,320.8229849999497,2.0,1.0,part_1,,,,,,,,,,,,,white,I
381.0,8.0,4.0,1.0,1.0,1.0,321.3760399999046,2.0,1.0,part_1,,,,,,,,,,,,,orange,hexagon
0.0,8.0,0.0,1.0,1.0,1.0,366.2191690000327,2.0,1.0,part_1,,,,,,,,,,,,,orange,hexagon
0.0,8.0,0.0,1.0,4.0,4.0,346.3399419999859,2.0,1.0,part_1,,,,,,,,,,,,,orange,hexagon
94.0,2.0,2.0,0.0,1.0,1.0,332.7578460000495,2.0,1.0,part_1,,,,,,,,,,,,,yellow,square
0.0,2.0,0.0,0.0,1.0,1.0,378.224856000088,2.0,1.0,part_1,,,,,,,,,,,,,yellow,square
218.0,7.0,3.0,1.0,4.0,4.0,317.8734749999421,2.0,1.0,part_1,,,,,,,,,,,,,magenta,triangle
0.0,7.0,0.0,1.0,4.0,4.0,360.8906320000642,2.0,1.0,part_1,,,,,,,,,,,,,magenta,triangle
407.0,4.0,4.0,0.0,3.0,3.0,347.9535860001306,2.0,1.0,part_1,,,,,,,,,,,,,blue,diamond
34.0,1.0,1.0,0.0,4.0,4.0,339.8665719998917,2.0,1.0,part_1,,,,,,,,,,,,,gray,flipped triangle
92.0,2.0,2.0,0.0,2.0,2.0,270.3908880000654,2.0,1.0,part_1,,,,,,,,,,,,,yellow,square
409.0,8.0,4.0,1.0,3.0,3.0,305.3251720000389,2.0,1.0,part_1,,,,,,,,,,,,,orange,hexagon
220.0,7.0,3.0,1.0,1.0,1.0,344.2474690000381,2.0,1.0,part_1,,,,,,,,,,,,,magenta,triangle
108.0,6.0,2.0,1.0,4.0,4.0,349.7770030000993,2.0,1.0,part_1,,,,,,,,,,,,,white,I
384.0,8.0,4.0,1.0,1.0,1.0,349.6539309999207,2.0,1.0,part_1,,,,,,,,,,,,,orange,hexagon
0.0,6.0,0.0,1.0,3.0,3.0,429.4702439999582,2.0,1.0,part_1,,,,,,,,,,,,,white,I
0.0,5.0,0.0,1.0,1.0,1.0,424.5859420000215,2.0,1.0,part_1,,,,,,,,,,,,,green,circle
175.0,3.0,3.0,0.0,4.0,4.0,327.3595360001309,2.0,1.0,part_1,,,,,,,,,,,,,cyan,cross
37.0,5.0,1.0,1.0,3.0,3.0,407.3621950001325,2.0,1.0,part_1,,,,,,,,,,,,,green,circle
424.0,8.0,4.0,1.0,3.0,3.0,350.4909980001685,2.0,1.0,part_1,,,,,,,,,,,,,orange,hexagon
108.0,2.0,2.0,0.0,3.0,3.0,292.1236219999628,2.0,1.0,part_1,,,,,,,,,,,,,yellow,square
0.0,7.0,0.0,1.0,3.0,3.0,326.4383579999048,2.0,1.0,part_1,,,,,,,,,,,,,magenta,triangle
0.0,2.0,0.0,0.0,3.0,3.0,339.0956420000748,2.0,1.0,part_1,,,,,,,,,,,,,yellow,square
424.0,8.0,4.0,1.0,1.0,1.0,336.5618309999263,2.0,1.0,part_1,,,,,,,,,,,,,orange,hexagon
116.0,2.0,2.0,0.0,2.0,2.0,420.5462350000744,2.0,1.0,part_1,,,,,,,,,,,,,yellow,square
102.0,2.0,2.0,0.0,4.0,4.0,282.8522380000322,2.0,1.0,part_1,,,,,,,,,,,,,yellow,square
0.0,5.0,0.0,1.0,1.0,1.0,447.1737020001001,2.0,1.0,part_1,,,,,,,,,,,,,green,circle
192.0,3.0,3.0,0.0,4.0,4.0,304.6780160000253,2.0,1.0,part_1,,,,,,,,,,,,,cyan,cross
379.0,4.0,4.0,0.0,1.0,1.0,352.9446180000377,2.0,1.0,part_1,,,,,,,,,,,,,blue,diamond
64.0,5.0,1.0,1.0,1.0,1.0,305.301474000089,2.0,1.0,part_1,,,,,,,,,,,,,green,circle
121.0,6.0,2.0,1.0,2.0,2.0,338.5883170001307,2.0,1.0,part_1,,,,,,,,,,,,,white,I
26.0,1.0,1.0,0.0,3.0,3.0,339.2686680001588,2.0,1.0,part_1,,,,,,,,,,,,,gray,flipped triangle
402.0,8.0,4.0,1.0,4.0,4.0,375.9046519999174,2.0,1.0,part_1,,,,,,,,,,,,,orange,hexagon
39.0,5.0,1.0,1.0,4.0,4.0,367.2414180000487,2.0,1.0,part_1,,,,,,,,,,,,,green,circle
44.0,1.0,1.0,0.0,3.0,3.0,336.8180069999198,2.0,1.0,part_1,,,,,,,,,,,,,gray,flipped triangle
0.0,7.0,0.0,1.0,3.0,3.0,523.8308250000046,2.0,1.0,part_1,,,,,,,,,,,,,magenta,triangle
52.0,1.0,1.0,0.0,1.0,1.0,373.5269730000254,2.0,1.0,part_1,,,,,,,,,,,,,gray,flipped triangle
195.0,3.0,3.0,0.0,1.0,1.0,318.9609930000188,2.0,1.0,part_1,,,,,,,,,,,,,cyan,cross
48.0,5.0,1.0,1.0,2.0,2.0,296.4324559998204,2.0,1.0,part_1,,,,,,,,,,,,,green,circle
95.0,6.0,2.0,1.0,4.0,4.0,341.764613000123,2.0,1.0,part_1,,,,,,,,,,,,,white,I
202.0,3.0,3.0,0.0,2.0,2.0,386.0132439999688,2.0,1.0,part_1,,,,,,,,,,,,,cyan,cross
413.0,8.0,4.0,1.0,2.0,2.0,397.059347999857,2.0,1.0,part_1,,,,,,,,,,,,,orange,hexagon
0.0,1.0,0.0,0.0,1.0,1.0,385.6644389998109,2.0,1.0,part_1,,,,,,,,,,,,,gray,flipped triangle
201.0,7.0,3.0,1.0,2.0,2.0,476.4507489999232,2.0,1.0,part_1,,,,,,,,,,,,,magenta,triangle
196.0,7.0,3.0,1.0,1.0,1.0,314.7444789999554,2.0,1.0,part_1,,,,,,,,,,,,,magenta,triangle
195.0,7.0,3.0,1.0,1.0,1.0,408.7962419998803,2.0,1.0,part_1,,,,,,,,,,,,,magenta,triangle
417.0,4.0,4.0,0.0,3.0,3.0,740.9504689999267,2.0,1.0,part_1,,,,,,,,,,,,,blue,diamond
193.0,7.0,3.0,1.0,2.0,2.0,374.6485440001379,2.0,1.0,part_1,,,,,,,,,,,,,magenta,triangle
0.0,1.0,0.0,0.0,3.0,3.0,387.3214000000189,2.0,1.0,part_1,,,,,,,,,,,,,gray,flipped triangle
82.0,6.0,2.0,1.0,2.0,2.0,550.7962809999754,2.0,1.0,part_1,,,,,,,,,,,,,white,I
62.0,5.0,1.0,1.0,3.0,3.0,367.2951089999969,2.0,1.0,part_1,,,,,,,,,,,,,green,circle
51.0,5.0,1.0,1.0,4.0,4.0,342.5435019998986,2.0,1.0,part_1,,,,,,,,,,,,,green,circle
122.0,6.0,2.0,1.0,1.0,1.0,481.23515400016,2.0,1.0,part_1,,,,,,,,,,,,,white,I
77.0,6.0,2.0,1.0,4.0,4.0,314.4895620000625,2.0,1.0,part_1,,,,,,,,,,,,,white,I
405.0,8.0,4.0,1.0,2.0,2.0,362.6742519998061,2.0,1.0,part_1,,,,,,,,,,,,,orange,hexagon
176.0,7.0,3.0,1.0,4.0,4.0,391.2552010001491,2.0,1.0,part_1,,,,,,,,,,,,,magenta,triangle
200.0,7.0,3.0,1.0,4.0,4.0,328.1713730000319,2.0,1.0,part_1,,,,,,,,,,,,,magenta,triangle
413.0,4.0,4.0,0.0,4.0,4.0,362.3072450000109,2.0,1.0,part_1,,,,,,,,,,,,,blue,diamond
113.0,6.0,2.0,1.0,1.0,1.0,415.3135399999428,2.0,1.0,part_1,,,,,,,,,,,,,white,I
121.0,2.0,2.0,0.0,4.0,4.0,339.2194560001371,2.0,1.0,part_1,,,,,,,,,,,,,yellow,square
223.0,3.0,3.0,0.0,3.0,3.0,978.162310000016,2.0,1.0,part_1,,,,,,,,,,,,,cyan,cross
0.0,1.0,0.0,0.0,1.0,1.0,371.5146750000713,2.0,1.0,part_1,,,,,,,,,,,,,gray,flipped triangle
39.0,1.0,1.0,0.0,4.0,4.0,341.2719670000115,2.0,1.0,part_1,,,,,,,,,,,,,gray,flipped triangle
59.0,5.0,1.0,1.0,1.0,1.0,351.7155220001768,2.0,1.0,part_1,,,,,,,,,,,,,green,circle
0.0,1.0,0.0,0.0,3.0,3.0,321.0611019999305,2.0,1.0,part_1,,,,,,,,,,,,,gray,flipped triangle
121.0,2.0,2.0,0.0,4.0,4.0,354.013415999816,2.0,1.0,part_1,,,,,,,,,,,,,yellow,square
0.0,1.0,0.0,0.0,3.0,3.0,373.4016789999259,2.0,1.0,part_1,,,,,,,,,,,,,gray,flipped triangle
102.0,2.0,2.0,0.0,1.0,1.0,321.9006790000094,2.0,1.0,part_1,,,,,,,,,,,,,yellow,square
0.0,8.0,0.0,1.0,2.0,2.0,341.1826980000114,2.0,1.0,part_1,,,,,,,,,,,,,orange,hexagon
0.0,6.0,0.0,1.0,1.0,1.0,565.5669299999317,2.0,1.0,part_1,,,,,,,,,,,,,white,I
185.0,3.0,3.0,0.0,3.0,3.0,298.409865999929,2.0,1.0,part_1,,,,,,,,,,,,,cyan,cross
214.0,3.0,3.0,0.0,2.0,2.0,287.160773999858,2.0,1.0,part_1,,,,,,,,,,,,,cyan,cross
411.0,8.0,4.0,1.0,4.0,4.0,344.4572050002534,2.0,1.0,part_1,,,,,,,,,,,,,orange,hexagon
98.0,2.0,2.0,0.0,3.0,3.0,308.9811270001519,2.0,1.0,part_1,,,,,,,,,,,,,yellow,square
0.0,1.0,0.0,0.0,1.0,1.0,291.0534210000151,2.0,1.0,part_1,,,,,,,,,,,,,gray,flipped triangle
411.0,4.0,4.0,0.0,1.0,1.0,609.359067999776,2.0,1.0,part_1,,,,,,,,,,,,,blue,diamond
58.0,1.0,1.0,0.0,1.0,1.0,327.2776560002057,3.0,1.0,part_1,,,,,,,,,,,,,gray,flipped triangle
379.0,4.0,4.0,0.0,4.0,4.0,281.3958980000279,3.0,1.0,part_1,,,,,,,,,,,,,blue,diamond
379.0,4.0,4.0,0.0,1.0,1.0,311.5445629996429,3.0,1.0,part_1,,,,,,,,,,,,,blue,diamond
220.0,3.0,3.0,0.0,1.0,1.0,289.5953970000846,3.0,1.0,part_1,,,,,,,,,,,,,cyan,cross
393.0,4.0,4.0,0.0,4.0,4.0,326.5584490000037,3.0,1.0,part_1,,,,,,,,,,,,,blue,diamond
400.0,8.0,4.0,1.0,4.0,4.0,326.5881139996054,3.0,1.0,part_1,,,,,,,,,,,,,orange,hexagon
196.0,7.0,3.0,1.0,4.0,4.0,295.6305699999575,3.0,1.0,part_1,,,,,,,,,,,,,magenta,triangle
49.0,5.0,1.0,1.0,1.0,1.0,266.2761199999295,3.0,1.0,part_1,,,,,,,,,,,,,green,circle
417.0,8.0,4.0,1.0,3.0,3.0,319.2336679999243,3.0,1.0,part_1,,,,,,,,,,,,,orange,hexagon
398.0,8.0,4.0,1.0,2.0,2.0,516.4131110000199,3.0,1.0,part_1,,,,,,,,,,,,,orange,hexagon
45.0,1.0,1.0,0.0,3.0,3.0,471.926378000262,3.0,1.0,part_1,,,,,,,,,,,,,gray,flipped triangle
221.0,3.0,3.0,0.0,1.0,1.0,531.3812459999099,3.0,1.0,part_1,,,,,,,,,,,,,cyan,cross
175.0,7.0,3.0,1.0,1.0,1.0,345.8281660000466,3.0,1.0,part_1,,,,,,,,,,,,,magenta,triangle
42.0,5.0,1.0,1.0,2.0,2.0,326.7806170001677,3.0,1.0,part_1,,,,,,,,,,,,,green,circle
54.0,5.0,1.0,1.0,3.0,3.0,294.2683260002923,3.0,1.0,part_1,,,,,,,,,,,,,green,circle
95.0,2.0,2.0,0.0,1.0,1.0,305.1152779999029,3.0,1.0,part_1,,,,,,,,,,,,,yellow,square
0.0,8.0,0.0,1.0,2.0,2.0,370.8430699998644,3.0,1.0,part_1,,,,,,,,,,,,,orange,hexagon
0.0,3.0,0.0,0.0,1.0,1.0,316.3357919997906,3.0,1.0,part_1,,,,,,,,,,,,,cyan,cross
59.0,1.0,1.0,0.0,1.0,1.0,335.6351379998159,3.0,1.0,part_1,,,,,,,,,,,,,gray,flipped triangle
0.0,3.0,0.0,0.0,4.0,4.0,316.8135249998158,3.0,1.0,part_1,,,,,,,,,,,,,cyan,cross
51.0,5.0,1.0,1.0,4.0,4.0,397.0949059998929,3.0,1.0,part_1,,,,,,,,,,,,,green,circle
0.0,6.0,0.0,1.0,3.0,3.0,339.8798510002052,3.0,1.0,part_1,,,,,,,,,,,,,white,I
212.0,3.0,3.0,0.0,1.0,1.0,380.9709189999921,3.0,1.0,part_1,,,,,,,,,,,,,cyan,cross
79.0,6.0,2.0,1.0,3.0,3.0,315.3501259998847,3.0,1.0,part_1,,,,,,,,,,,,,white,I
0.0,3.0,0.0,0.0,4.0,4.0,355.8485039998231,3.0,1.0,part_1,,,,,,,,,,,,,cyan,cross
398.0,4.0,4.0,0.0,2.0,2.0,391.3553140000658,3.0,1.0,part_1,,,,,,,,,,,,,blue,diamond
217.0,7.0,3.0,1.0,3.0,3.0,369.7403159999339,3.0,1.0,part_1,,,,,,,,,,,,,magenta,triangle
0.0,4.0,0.0,0.0,3.0,3.0,304.2344929999672,3.0,1.0,part_1,,,,,,,,,,,,,blue,diamond
39.0,1.0,1.0,0.0,1.0,1.0,387.6599430000169,3.0,1.0,part_1,,,,,,,,,,,,,gray,flipped triangle
0.0,7.0,0.0,1.0,2.0,2.0,429.2279390001567,3.0,1.0,part_1,,,,,,,,,,,,,magenta,triangle
58.0,5.0,1.0,1.0,4.0,4.0,306.1747149999974,3.0,1.0,part_1,,,,,,,,,,,,,green,circle
407.0,8.0,4.0,1.0,1.0,1.0,340.1175650001278,3.0,1.0,part_1,,,,,,,,,,,,,orange,hexagon
396.0,8.0,4.0,1.0,4.0,4.0,288.2770719998007,3.0,1.0,part_1,,,,,,,,,,,,,orange,hexagon
398.0,8.0,4.0,1.0,4.0,4.0,268.8796090001233,3.0,1.0,part_1,,,,,,,,,,,,,orange,hexagon
201.0,3.0,3.0,0.0,2.0,2.0,364.2142120002063,3.0,1.0,part_1,,,,,,,,,,,,,cyan,cross
385.0,8.0,4.0,1.0,1.0,1.0,339.221605000148,3.0,1.0,part_1,,,,,,,,,,,,,orange,hexagon
219.0,7.0,3.0,1.0,2.0,2.0,412.380204999863,3.0,1.0,part_1,,,,,,,,,,,,,magenta,triangle
378.0,4.0,4.0,0.0,2.0,2.0,334.1868729999078,3.0,1.0,part_1,,,,,,,,,,,,,blue,diamond
26.0,1.0,1.0,0.0,1.0,1.0,328.6766319997696,3.0,1.0,part_1,,,,,,,,,,,,,gray,flipped triangle
76.0,2.0,2.0,0.0,4.0,4.0,286.1398560003181,3.0,1.0,part_1,,,,,,,,,,,,,yellow,square
37.0,1.0,1.0,0.0,4.0,4.0,322.3450330001469,3.0,1.0,part_1,,,,,,,,,,,,,gray,flipped triangle
396.0,4.0,4.0,0.0,4.0,4.0,291.2706680003794,3.0,1.0,part_1,,,,,,,,,,,,,blue,diamond
109.0,6.0,2.0,1.0,2.0,2.0,354.3545459997403,3.0,1.0,part_1,,,,,,,,,,,,,white,I
100.0,6.0,2.0,1.0,1.0,1.0,290.2293679999275,3.0,1.0,part_1,,,,,,,,,,,,,white,I
219.0,3.0,3.0,0.0,4.0,4.0,277.3338209999565,3.0,1.0,part_1,,,,,,,,,,,,,cyan,cross
77.0,2.0,2.0,0.0,3.0,3.0,428.1858479998846,3.0,1.0,part_1,,,,,,,,,,,,,yellow,square
390.0,4.0,4.0,0.0,1.0,1.0,301.2998419999348,3.0,1.0,part_1,,,,,,,,,,,,,blue,diamond
209.0,3.0,3.0,0.0,1.0,1.0,311.3238760001877,3.0,1.0,part_1,,,,,,,,,,,,,cyan,cross
89.0,6.0,2.0,1.0,2.0,2.0,338.9486519999991,3.0,1.0,part_1,,,,,,,,,,,,,white,I
76.0,2.0,2.0,0.0,1.0,1.0,303.0158759997903,3.0,1.0,part_1,,,,,,,,,,,,,yellow,square
423.0,4.0,4.0,0.0,2.0,2.0,286.1631089999719,3.0,1.0,part_1,,,,,,,,,,,,,blue,diamond
52.0,5.0,1.0,1.0,2.0,2.0,366.9381160002558,3.0,1.0,part_1,,,,,,,,,,,,,green,circle
113.0,6.0,2.0,1.0,3.0,3.0,329.9534220000168,3.0,1.0,part_1,,,,,,,,,,,,,white,I
0.0,1.0,0.0,0.0,2.0,2.0,343.7524300002224,3.0,1.0,part_1,,,,,,,,,,,,,gray,flipped triangle
211.0,3.0,3.0,0.0,4.0,4.0,529.4717989995661,3.0,1.0,part_1,,,,,,,,,,,,,cyan,cross
0.0,4.0,0.0,0.0,1.0,1.0,341.2347550001868,3.0,1.0,part_1,,,,,,,,,,,,,blue,diamond
0.0,6.0,0.0,1.0,1.0,1.0,319.9276360001022,3.0,1.0,part_1,,,,,,,,,,,,,white,I
413.0,8.0,4.0,1.0,3.0,3.0,557.1583060000194,3.0,1.0,part_1,,,,,,,,,,,,,orange,hexagon
0.0,2.0,0.0,0.0,2.0,2.0,419.1223510001691,3.0,1.0,part_1,,,,,,,,,,,,,yellow,square
0.0,4.0,0.0,0.0,4.0,4.0,391.1645389998739,3.0,1.0,part_1,,,,,,,,,,,,,blue,diamond
381.0,4.0,4.0,0.0,4.0,4.0,342.8673590001381,3.0,1.0,part_1,,,,,,,,,,,,,blue,diamond
55.0,1.0,1.0,0.0,3.0,3.0,430.9017569999014,3.0,1.0,part_1,,,,,,,,,,,,,gray,flipped triangle
94.0,6.0,2.0,1.0,1.0,1.0,403.4029819999887,3.0,1.0,part_1,,,,,,,,,,,,,white,I
44.0,5.0,1.0,1.0,4.0,4.0,396.8902120000166,3.0,1.0,part_1,,,,,,,,,,,,,green,circle
0.0,1.0,0.0,0.0,4.0,4.0,336.7952039998272,3.0,1.0,part_1,,,,,,,,,,,,,gray,flipped triangle
71.0,1.0,1.0,0.0,1.0,1.0,368.4933019999334,3.0,1.0,part_1,,,,,,,,,,,,,gray,flipped triangle
37.0,5.0,1.0,1.0,3.0,3.0,357.0153010000467,3.0,1.0,part_1,,,,,,,,,,,,,green,circle
214.0,7.0,3.0,1.0,4.0,4.0,284.5170499999767,3.0,1.0,part_1,,,,,,,,,,,,,magenta,triangle
202.0,7.0,3.0,1.0,2.0,2.0,369.3506150002577,3.0,1.0,part_1,,,,,,,,,,,,,magenta,triangle
405.0,4.0,4.0,0.0,1.0,1.0,474.4813970000905,3.0,1.0,part_1,,,,,,,,,,,,,blue,diamond
34.0,5.0,1.0,1.0,1.0,1.0,451.7088049997255,3.0,1.0,part_1,,,,,,,,,,,,,green,circle
0.0,5.0,0.0,1.0,3.0,3.0,381.0753220000151,3.0,1.0,part_1,,,,,,,,,,,,,green,circle
0.0,3.0,0.0,0.0,4.0,4.0,364.9071969998658,3.0,1.0,part_1,,,,,,,,,,,,,cyan,cross
121.0,6.0,2.0,1.0,1.0,1.0,354.2560630003208,3.0,1.0,part_1,,,,,,,,,,,,,white,I
383.0,4.0,4.0,0.0,1.0,1.0,345.8060379998642,3.0,1.0,part_1,,,,,,,,,,,,,blue,diamond
0.0,7.0,0.0,1.0,3.0,3.0,321.2833560000945,3.0,1.0,part_1,,,,,,,,,,,,,magenta,triangle
116.0,6.0,2.0,1.0,4.0,4.0,346.8651939997471,3.0,2.0,part_1,,,,,,,,,,,,,white,I
115.0,2.0,2.0,0.0,2.0,2.0,423.7058199996681,3.0,1.0,part_1,,,,,,,,,,,,,yellow,square
419.0,8.0,4.0,1.0,2.0,2.0,392.8226070001983,3.0,1.0,part_1,,,,,,,,,,,,,orange,hexagon
180.0,7.0,3.0,1.0,4.0,4.0,315.9968959998878,3.0,1.0,part_1,,,,,,,,,,,,,magenta,triangle
60.0,5.0,1.0,1.0,4.0,4.0,322.490528000344,3.0,1.0,part_1,,,,,,,,,,,,,green,circle
65.0,1.0,1.0,0.0,3.0,3.0,365.3292280000642,3.0,1.0,part_1,,,,,,,,,,,,,gray,flipped triangle
114.0,6.0,2.0,1.0,3.0,3.0,458.8060490000316,3.0,1.0,part_1,,,,,,,,,,,,,white,I
111.0,6.0,2.0,1.0,2.0,2.0,589.838833000158,3.0,1.0,part_1,,,,,,,,,,,,,white,I
109.0,2.0,2.0,0.0,1.0,1.0,360.8368459999838,3.0,1.0,part_1,,,,,,,,,,,,,yellow,square
49.0,1.0,1.0,0.0,2.0,2.0,315.5352670000866,3.0,1.0,part_1,,,,,,,,,,,,,gray,flipped triangle
413.0,4.0,4.0,0.0,4.0,4.0,388.5451490000378,3.0,1.0,part_1,,,,,,,,,,,,,blue,diamond
115.0,6.0,2.0,1.0,3.0,3.0,307.2371820003354,3.0,1.0,part_1,,,,,,,,,,,,,white,I
49.0,5.0,1.0,1.0,1.0,1.0,343.9792859999215,3.0,1.0,part_1,,,,,,,,,,,,,green,circle
65.0,5.0,1.0,1.0,2.0,2.0,435.1600360000702,3.0,1.0,part_1,,,,,,,,,,,,,green,circle
381.0,4.0,4.0,0.0,1.0,1.0,411.1016599999857,3.0,1.0,part_1,,,,,,,,,,,,,blue,diamond
409.0,4.0,4.0,0.0,2.0,2.0,507.57824400034224,3.0,1.0,part_1,,,,,,,,,,,,,blue,diamond
0.0,4.0,0.0,0.0,2.0,2.0,401.7332149996946,3.0,1.0,part_1,,,,,,,,,,,,,blue,diamond
85.0,2.0,2.0,0.0,4.0,4.0,387.7846820000741,3.0,1.0,part_1,,,,,,,,,,,,,yellow,square
0.0,8.0,0.0,1.0,4.0,4.0,379.861511999934,3.0,1.0,part_1,,,,,,,,,,,,,orange,hexagon
0.0,3.0,0.0,0.0,4.0,4.0,444.0241800002695,3.0,1.0,part_1,,,,,,,,,,,,,cyan,cross
82.0,2.0,2.0,0.0,1.0,1.0,691.3234389999161,3.0,1.0,part_1,,,,,,,,,,,,,yellow,square
60.0,1.0,1.0,0.0,3.0,3.0,339.5333520002168,3.0,1.0,part_1,,,,,,,,,,,,,gray,flipped triangle
113.0,2.0,2.0,0.0,1.0,1.0,366.9721119999849,3.0,1.0,part_1,,,,,,,,,,,,,yellow,square
402.0,4.0,4.0,0.0,3.0,3.0,309.0038440000171,3.0,1.0,part_1,,,,,,,,,,,,,blue,diamond
0.0,4.0,0.0,0.0,3.0,3.0,386.5935630001331,4.0,1.0,part_1,,,,,,,,,,,,,blue,diamond
0.0,5.0,0.0,1.0,2.0,2.0,325.3036270002667,4.0,1.0,part_1,,,,,,,,,,,,,green,circle
379.0,8.0,4.0,1.0,2.0,2.0,396.9081940003889,4.0,1.0,part_1,,,,,,,,,,,,,orange,hexagon
99.0,2.0,2.0,0.0,3.0,3.0,319.9643739999374,4.0,1.0,part_1,,,,,,,,,,,,,yellow,square
0.0,8.0,0.0,1.0,3.0,3.0,382.9611889996158,4.0,1.0,part_1,,,,,,,,,,,,,orange,hexagon
94.0,6.0,2.0,1.0,4.0,4.0,282.9423210000641,4.0,1.0,part_1,,,,,,,,,,,,,white,I
389.0,8.0,4.0,1.0,1.0,1.0,313.7234640003044,4.0,1.0,part_1,,,,,,,,,,,,,orange,hexagon
0.0,3.0,0.0,0.0,1.0,1.0,416.6161309999552,4.0,1.0,part_1,,,,,,,,,,,,,cyan,cross
180.0,3.0,3.0,0.0,4.0,4.0,341.6295249999166,4.0,1.0,part_1,,,,,,,,,,,,,cyan,cross
0.0,7.0,0.0,1.0,2.0,2.0,414.3946369999867,4.0,1.0,part_1,,,,,,,,,,,,,magenta,triangle
85.0,6.0,2.0,1.0,1.0,1.0,333.6298599997462,4.0,1.0,part_1,,,,,,,,,,,,,white,I
417.0,8.0,4.0,1.0,2.0,2.0,511.77112100003797,4.0,1.0,part_1,,,,,,,,,,,,,orange,hexagon
414.0,8.0,4.0,1.0,2.0,2.0,480.7606220001617,4.0,1.0,part_1,,,,,,,,,,,,,orange,hexagon
92.0,6.0,2.0,1.0,3.0,3.0,374.5456910000939,4.0,1.0,part_1,,,,,,,,,,,,,white,I
60.0,5.0,1.0,1.0,1.0,1.0,339.7175620002599,4.0,1.0,part_1,,,,,,,,,,,,,green,circle
56.0,5.0,1.0,1.0,1.0,1.0,567.5782620000973,4.0,1.0,part_1,,,,,,,,,,,,,green,circle
88.0,2.0,2.0,0.0,2.0,2.0,499.8234930003491,4.0,1.0,part_1,,,,,,,,,,,,,yellow,square
405.0,4.0,4.0,0.0,3.0,3.0,530.7932170003369,4.0,1.0,part_1,,,,,,,,,,,,,blue,diamond
0.0,5.0,0.0,1.0,1.0,1.0,414.5801580002626,4.0,1.0,part_1,,,,,,,,,,,,,green,circle
34.0,1.0,1.0,0.0,3.0,3.0,411.7277210002612,4.0,1.0,part_1,,,,,,,,,,,,,gray,flipped triangle
0.0,8.0,0.0,1.0,3.0,3.0,398.5521829999925,4.0,1.0,part_1,,,,,,,,,,,,,orange,hexagon
122.0,6.0,2.0,1.0,3.0,3.0,460.3939019998506,4.0,1.0,part_1,,,,,,,,,,,,,white,I
405.0,8.0,4.0,1.0,3.0,3.0,357.6389780000681,4.0,1.0,part_1,,,,,,,,,,,,,orange,hexagon
58.0,1.0,1.0,0.0,4.0,4.0,424.5005609996042,4.0,1.0,part_1,,,,,,,,,,,,,gray,flipped triangle
381.0,8.0,4.0,1.0,2.0,2.0,415.8239339999454,4.0,1.0,part_1,,,,,,,,,,,,,orange,hexagon
181.0,3.0,3.0,0.0,4.0,4.0,416.1750929997652,4.0,1.0,part_1,,,,,,,,,,,,,cyan,cross
36.0,1.0,1.0,0.0,1.0,1.0,395.2590029998646,4.0,1.0,part_1,,,,,,,,,,,,,gray,flipped triangle
184.0,3.0,3.0,0.0,3.0,3.0,514.2511620001642,4.0,1.0,part_1,,,,,,,,,,,,,cyan,cross
186.0,7.0,3.0,1.0,1.0,1.0,321.7352120000214,4.0,1.0,part_1,,,,,,,,,,,,,magenta,triangle
218.0,3.0,3.0,0.0,3.0,3.0,489.6394190000137,4.0,1.0,part_1,,,,,,,,,,,,,cyan,cross
69.0,1.0,1.0,0.0,4.0,4.0,379.3450269999994,4.0,1.0,part_1,,,,,,,,,,,,,gray,flipped triangle
62.0,1.0,1.0,0.0,2.0,2.0,441.2652400001207,4.0,1.0,part_1,,,,,,,,,,,,,gray,flipped triangle
178.0,7.0,3.0,1.0,3.0,3.0,379.8125410003194,4.0,2.0,part_1,,,,,,,,,,,,,magenta,triangle
0.0,8.0,0.0,1.0,3.0,3.0,355.9092079999573,4.0,1.0,part_1,,,,,,,,,,,,,orange,hexagon
0.0,7.0,0.0,1.0,2.0,2.0,359.796015000029,4.0,1.0,part_1,,,,,,,,,,,,,magenta,triangle
392.0,8.0,4.0,1.0,1.0,1.0,418.3210890000737,4.0,1.0,part_1,,,,,,,,,,,,,orange,hexagon
0.0,2.0,0.0,0.0,4.0,4.0,348.4711159999278,4.0,1.0,part_1,,,,,,,,,,,,,yellow,square
393.0,8.0,4.0,1.0,3.0,3.0,385.2352819999396,4.0,1.0,part_1,,,,,,,,,,,,,orange,hexagon
399.0,8.0,4.0,1.0,1.0,1.0,315.8103519999713,4.0,1.0,part_1,,,,,,,,,,,,,orange,hexagon
214.0,7.0,3.0,1.0,2.0,2.0,357.2513079998316,4.0,1.0,part_1,,,,,,,,,,,,,magenta,triangle
0.0,6.0,0.0,1.0,2.0,2.0,538.7528179999208,4.0,1.0,part_1,,,,,,,,,,,,,white,I
414.0,4.0,4.0,0.0,4.0,4.0,299.3353390002085,4.0,1.0,part_1,,,,,,,,,,,,,blue,diamond
88.0,6.0,2.0,1.0,2.0,2.0,318.2459489999019,4.0,1.0,part_1,,,,,,,,,,,,,white,I
182.0,3.0,3.0,0.0,2.0,2.0,305.5985819996749,4.0,1.0,part_1,,,,,,,,,,,,,cyan,cross
417.0,4.0,4.0,0.0,3.0,3.0,321.7448540003715,4.0,1.0,part_1,,,,,,,,,,,,,blue,diamond
377.0,8.0,4.0,1.0,4.0,4.0,593.8289190003161,4.0,1.0,part_1,,,,,,,,,,,,,orange,hexagon
193.0,3.0,3.0,0.0,3.0,3.0,392.687566999939,4.0,2.0,part_1,,,,,,,,,,,,,cyan,cross
60.0,1.0,1.0,0.0,2.0,2.0,376.6153500000655,4.0,1.0,part_1,,,,,,,,,,,,,gray,flipped triangle
92.0,2.0,2.0,0.0,4.0,4.0,398.49440900025,4.0,1.0,part_1,,,,,,,,,,,,,yellow,square
36.0,5.0,1.0,1.0,1.0,1.0,350.8835019997605,4.0,1.0,part_1,,,,,,,,,,,,,green,circle
114.0,2.0,2.0,0.0,2.0,2.0,457.2224079997795,4.0,1.0,part_1,,,,,,,,,,,,,yellow,square
424.0,4.0,4.0,0.0,2.0,2.0,346.7361230000279,4.0,1.0,part_1,,,,,,,,,,,,,blue,diamond
221.0,7.0,3.0,1.0,3.0,3.0,335.7718860002023,4.0,1.0,part_1,,,,,,,,,,,,,magenta,triangle
0.0,7.0,0.0,1.0,4.0,4.0,385.7227970001986,4.0,1.0,part_1,,,,,,,,,,,,,magenta,triangle
0.0,3.0,0.0,0.0,1.0,1.0,449.5148690002679,4.0,1.0,part_1,,,,,,,,,,,,,cyan,cross
64.0,1.0,1.0,0.0,4.0,4.0,367.6930349997747,4.0,1.0,part_1,,,,,,,,,,,,,gray,flipped triangle
411.0,8.0,4.0,1.0,1.0,1.0,498.6616860001049,4.0,1.0,part_1,,,,,,,,,,,,,orange,hexagon
221.0,3.0,3.0,0.0,2.0,2.0,365.900928999963,4.0,1.0,part_1,,,,,,,,,,,,,cyan,cross
69.0,5.0,1.0,1.0,4.0,4.0,412.2496569998475,4.0,1.0,part_1,,,,,,,,,,,,,green,circle
176.0,7.0,3.0,1.0,4.0,4.0,438.9755800002604,4.0,1.0,part_1,,,,,,,,,,,,,magenta,triangle
0.0,8.0,0.0,1.0,1.0,1.0,360.1586770000722,4.0,1.0,part_1,,,,,,,,,,,,,orange,hexagon
186.0,3.0,3.0,0.0,3.0,3.0,311.4540980000129,4.0,1.0,part_1,,,,,,,,,,,,,cyan,cross
0.0,3.0,0.0,0.0,1.0,1.0,422.0959029998994,4.0,1.0,part_1,,,,,,,,,,,,,cyan,cross
55.0,5.0,1.0,1.0,3.0,3.0,320.418668000002,4.0,1.0,part_1,,,,,,,,,,,,,green,circle
0.0,5.0,0.0,1.0,2.0,2.0,600.868275999801,4.0,1.0,part_1,,,,,,,,,,,,,green,circle
223.0,7.0,3.0,1.0,2.0,2.0,484.2898859997149,4.0,1.0,part_1,,,,,,,,,,,,,magenta,triangle
26.0,5.0,1.0,1.0,2.0,2.0,479.615862999708,4.0,1.0,part_1,,,,,,,,,,,,,green,circle
415.0,4.0,4.0,0.0,4.0,4.0,379.9911219998648,4.0,1.0,part_1,,,,,,,,,,,,,blue,diamond
379.0,8.0,4.0,1.0,2.0,2.0,362.0415830000638,4.0,1.0,part_1,,,,,,,,,,,,,orange,hexagon
48.0,1.0,1.0,0.0,2.0,2.0,443.9422209998156,4.0,1.0,part_1,,,,,,,,,,,,,gray,flipped triangle
384.0,4.0,4.0,0.0,3.0,3.0,340.5843750001622,4.0,1.0,part_1,,,,,,,,,,,,,blue,diamond
196.0,3.0,3.0,0.0,1.0,1.0,526.4383190001354,4.0,1.0,part_1,,,,,,,,,,,,,cyan,cross
72.0,1.0,1.0,0.0,2.0,2.0,476.8211730001894,4.0,1.0,part_1,,,,,,,,,,,,,gray,flipped triangle
118.0,2.0,2.0,0.0,4.0,4.0,349.7597169998698,4.0,1.0,part_1,,,,,,,,,,,,,yellow,square
217.0,3.0,3.0,0.0,3.0,3.0,329.6795299997939,4.0,1.0,part_1,,,,,,,,,,,,,cyan,cross
0.0,4.0,0.0,0.0,1.0,1.0,451.9924129999708,4.0,1.0,part_1,,,,,,,,,,,,,blue,diamond
184.0,7.0,3.0,1.0,2.0,2.0,489.140701999986,4.0,1.0,part_1,,,,,,,,,,,,,magenta,triangle
405.0,8.0,4.0,1.0,3.0,3.0,388.7869919999502,4.0,1.0,part_1,,,,,,,,,,,,,orange,hexagon
422.0,4.0,4.0,0.0,4.0,4.0,440.6987689999369,4.0,1.0,part_1,,,,,,,,,,,,,blue,diamond
120.0,6.0,2.0,1.0,3.0,3.0,515.1263640000252,4.0,1.0,part_1,,,,,,,,,,,,,white,I
217.0,7.0,3.0,1.0,1.0,1.0,346.0585870002433,4.0,1.0,part_1,,,,,,,,,,,,,magenta,triangle
98.0,6.0,2.0,1.0,2.0,2.0,322.3096710003119,4.0,1.0,part_1,,,,,,,,,,,,,white,I
121.0,6.0,2.0,1.0,1.0,1.0,356.309051000153,4.0,1.0,part_1,,,,,,,,,,,,,white,I
0.0,1.0,0.0,0.0,3.0,3.0,413.5100710000188,4.0,1.0,part_1,,,,,,,,,,,,,gray,flipped triangle
399.0,4.0,4.0,0.0,2.0,2.0,351.0796769996887,4.0,1.0,part_1,,,,,,,,,,,,,blue,diamond
0.0,5.0,0.0,1.0,1.0,1.0,327.8630660001909,4.0,1.0,part_1,,,,,,,,,,,,,green,circle
118.0,6.0,2.0,1.0,4.0,4.0,361.8474679997234,4.0,1.0,part_1,,,,,,,,,,,,,white,I
76.0,6.0,2.0,1.0,3.0,3.0,422.418122000181,4.0,1.0,part_1,,,,,,,,,,,,,white,I
400.0,4.0,4.0,0.0,2.0,2.0,319.7870560002229,4.0,1.0,part_1,,,,,,,,,,,,,blue,diamond
121.0,2.0,2.0,0.0,2.0,2.0,427.9724709999755,4.0,1.0,part_1,,,,,,,,,,,,,yellow,square
193.0,3.0,3.0,0.0,2.0,2.0,379.0269399996759,4.0,1.0,part_1,,,,,,,,,,,,,cyan,cross
196.0,3.0,3.0,0.0,2.0,2.0,428.9300450000155,4.0,1.0,part_1,,,,,,,,,,,,,cyan,cross
108.0,2.0,2.0,0.0,3.0,3.0,563.3531900002708,4.0,1.0,part_1,,,,,,,,,,,,,yellow,square
185.0,7.0,3.0,1.0,1.0,1.0,356.6967329998078,4.0,1.0,part_1,,,,,,,,,,,,,magenta,triangle
50.0,5.0,1.0,1.0,3.0,3.0,335.1028559995939,4.0,1.0,part_1,,,,,,,,,,,,,green,circle
398.0,4.0,4.0,0.0,2.0,2.0,362.3079500002859,4.0,1.0,part_1,,,,,,,,,,,,,blue,diamond
0.0,2.0,0.0,0.0,4.0,4.0,289.4913049999559,4.0,1.0,part_1,,,,,,,,,,,,,yellow,square
186.0,7.0,3.0,1.0,1.0,1.0,364.5459370000026,4.0,1.0,part_1,,,,,,,,,,,,,magenta,triangle
224.0,3.0,3.0,0.0,4.0,4.0,367.4272049997853,4.0,1.0,part_1,,,,,,,,,,,,,cyan,cross
411.0,4.0,4.0,0.0,4.0,4.0,321.0867550001239,4.0,1.0,part_1,,,,,,,,,,,,,blue,diamond
0.0,8.0,4.0,1.0,5.0,5.0,572.618600000169,1.0,0.0,part_2,stop,250.0,250.0,3.0,,,,,,,,,orange,hexagon
0.0,7.0,3.0,1.0,5.0,0.0,0.0,1.0,0.0,part_2,stop,200.0,250.0,4.0,,,,,,,,,magenta,triangle
0.0,4.0,4.0,0.0,5.0,5.0,580.0719260000733,1.0,0.0,part_2,go,250.0,250.0,1.0,,,,,,,,,blue,diamond
0.0,8.0,4.0,1.0,5.0,0.0,0.0,1.0,0.0,part_2,stop,250.0,250.0,4.0,,,,,,,,,orange,hexagon
0.0,6.0,2.0,1.0,5.0,0.0,0.0,1.0,0.0,part_2,stop,300.0,250.0,4.0,,,,,,,,,white,I
0.0,3.0,3.0,0.0,6.0,6.0,648.2396159999553,1.0,0.0,part_2,go,350.0,250.0,1.0,,,,,,,,,cyan,cross
0.0,4.0,4.0,0.0,5.0,5.0,826.9691899999998,1.0,0.0,part_2,go,350.0,250.0,1.0,,,,,,,,,blue,diamond
0.0,2.0,2.0,0.0,6.0,6.0,815.0330850003229,1.0,0.0,part_2,go,350.0,250.0,1.0,,,,,,,,,yellow,square
0.0,6.0,2.0,1.0,6.0,6.0,792.2225439997419,1.0,0.0,part_2,go,350.0,250.0,1.0,,,,,,,,,white,I
0.0,3.0,3.0,0.0,5.0,5.0,795.1537549997738,1.0,0.0,part_2,go,350.0,250.0,1.0,,,,,,,,,cyan,cross
0.0,4.0,4.0,0.0,6.0,6.0,741.6016449997187,1.0,0.0,part_2,go,350.0,250.0,1.0,,,,,,,,,blue,diamond
0.0,5.0,1.0,1.0,6.0,0.0,0.0,1.0,0.0,part_2,stop,350.0,250.0,4.0,,,,,,,,,green,circle
0.0,2.0,2.0,0.0,6.0,6.0,595.6594770000265,1.0,0.0,part_2,go,350.0,300.0,1.0,,,,,,,,,yellow,square
0.0,8.0,4.0,1.0,6.0,0.0,0.0,1.0,0.0,part_2,stop,350.0,300.0,4.0,,,,,,,,,orange,hexagon
0.0,7.0,3.0,1.0,5.0,0.0,0.0,1.0,0.0,part_2,stop,350.0,350.0,4.0,,,,,,,,,magenta,triangle
0.0,1.0,1.0,0.0,5.0,5.0,624.5981629999733,1.0,0.0,part_2,go,400.0,350.0,1.0,,,,,,,,,gray,flipped triangle
0.0,2.0,2.0,0.0,5.0,5.0,703.9698120001958,1.0,0.0,part_2,go,400.0,350.0,1.0,,,,,,,,,yellow,square
0.0,2.0,2.0,0.0,6.0,6.0,817.7298539999356,1.0,0.0,part_2,go,400.0,350.0,1.0,,,,,,,,,yellow,square
0.0,5.0,1.0,1.0,5.0,0.0,0.0,1.0,0.0,part_2,stop,400.0,350.0,4.0,,,,,,,,,green,circle
0.0,6.0,2.0,1.0,6.0,0.0,0.0,1.0,0.0,part_2,stop,450.0,350.0,4.0,,,,,,,,,white,I
0.0,6.0,2.0,1.0,6.0,6.0,581.3683870001114,1.0,0.0,part_2,go,450.0,400.0,1.0,,,,,,,,,white,I
0.0,6.0,2.0,1.0,5.0,0.0,0.0,1.0,0.0,part_2,stop,450.0,400.0,4.0,,,,,,,,,white,I
0.0,7.0,3.0,1.0,5.0,0.0,0.0,1.0,0.0,part_2,stop,500.0,400.0,4.0,,,,,,,,,magenta,triangle
0.0,1.0,1.0,0.0,5.0,5.0,636.8898639998406,1.0,0.0,part_2,go,550.0,400.0,1.0,,,,,,,,,gray,flipped triangle
0.0,7.0,3.0,1.0,5.0,5.0,693.5665599999083,1.0,0.0,part_2,go,550.0,400.0,1.0,,,,,,,,,magenta,triangle
0.0,5.0,1.0,1.0,5.0,0.0,0.0,1.0,0.0,part_2,stop,550.0,400.0,4.0,,,,,,,,,green,circle
0.0,5.0,1.0,1.0,6.0,6.0,501.4279079996413,1.0,0.0,part_2,go,600.0,400.0,1.0,,,,,,,,,green,circle
0.0,3.0,3.0,0.0,5.0,5.0,661.6628629999468,1.0,0.0,part_2,go,600.0,400.0,1.0,,,,,,,,,cyan,cross
0.0,4.0,4.0,0.0,6.0,6.0,828.2036929999776,1.0,0.0,part_2,go,600.0,400.0,1.0,,,,,,,,,blue,diamond
0.0,5.0,1.0,1.0,6.0,0.0,0.0,1.0,0.0,part_2,stop,600.0,400.0,4.0,,,,,,,,,green,circle
0.0,7.0,3.0,1.0,6.0,0.0,0.0,1.0,0.0,part_2,stop,600.0,450.0,4.0,,,,,,,,,magenta,triangle
0.0,8.0,4.0,1.0,5.0,5.0,756.0238300002311,1.0,0.0,part_2,stop,600.0,500.0,3.0,,,,,,,,,orange,hexagon
0.0,1.0,1.0,0.0,6.0,6.0,693.6906070000077,1.0,0.0,part_2,go,550.0,500.0,1.0,,,,,,,,,gray,flipped triangle
0.0,6.0,2.0,1.0,6.0,0.0,0.0,1.0,0.0,part_2,stop,550.0,500.0,4.0,,,,,,,,,white,I
0.0,7.0,3.0,1.0,5.0,5.0,682.8722650002419,1.0,0.0,part_2,stop,550.0,550.0,3.0,,,,,,,,,magenta,triangle
0.0,7.0,3.0,1.0,6.0,6.0,824.428854999951,1.0,0.0,part_2,go,500.0,550.0,1.0,,,,,,,,,magenta,triangle
0.0,3.0,3.0,0.0,6.0,6.0,848.880551000093,2.0,0.0,part_2,go,500.0,550.0,1.0,,,,,,,,,cyan,cross
0.0,1.0,1.0,0.0,5.0,5.0,601.0428370000227,2.0,0.0,part_2,go,500.0,550.0,1.0,,,,,,,,,gray,flipped triangle
0.0,6.0,2.0,1.0,5.0,0.0,0.0,2.0,0.0,part_2,stop,500.0,550.0,4.0,,,,,,,,,white,I
0.0,3.0,3.0,0.0,6.0,6.0,555.6250399999954,2.0,0.0,part_2,go,550.0,550.0,1.0,,,,,,,,,cyan,cross
0.0,4.0,4.0,0.0,5.0,5.0,858.7212789998375,2.0,0.0,part_2,go,550.0,550.0,1.0,,,,,,,,,blue,diamond
0.0,8.0,4.0,1.0,6.0,6.0,669.9590150001313,2.0,0.0,part_2,stop,550.0,550.0,3.0,,,,,,,,,orange,hexagon
0.0,4.0,4.0,0.0,5.0,5.0,895.494582000083,2.0,0.0,part_2,go,550.0,500.0,1.0,,,,,,,,,blue,diamond
0.0,7.0,3.0,1.0,5.0,0.0,0.0,2.0,0.0,part_2,stop,550.0,500.0,4.0,,,,,,,,,magenta,triangle
0.0,8.0,4.0,1.0,5.0,0.0,0.0,2.0,0.0,part_2,stop,600.0,500.0,4.0,,,,,,,,,orange,hexagon
0.0,3.0,3.0,0.0,5.0,5.0,759.6042490004038,2.0,0.0,part_2,go,650.0,500.0,1.0,,,,,,,,,cyan,cross
0.0,2.0,2.0,0.0,5.0,5.0,864.2602129998522,2.0,0.0,part_2,go,650.0,500.0,1.0,,,,,,,,,yellow,square
0.0,2.0,2.0,0.0,5.0,5.0,1061.7708639997545,2.0,0.0,part_2,go,650.0,500.0,1.0,,,,,,,,,yellow,square
0.0,6.0,2.0,1.0,6.0,0.0,0.0,2.0,0.0,part_2,stop,650.0,500.0,4.0,,,,,,,,,white,I
0.0,3.0,3.0,0.0,6.0,6.0,832.5289180002073,2.0,0.0,part_2,go,650.0,550.0,1.0,,,,,,,,,cyan,cross
0.0,1.0,1.0,0.0,6.0,6.0,855.2909119998731,2.0,0.0,part_2,go,650.0,550.0,1.0,,,,,,,,,gray,flipped triangle
0.0,3.0,3.0,0.0,6.0,6.0,1088.2857860001425,2.0,0.0,part_2,go,650.0,550.0,1.0,,,,,,,,,cyan,cross
0.0,2.0,2.0,0.0,6.0,6.0,929.4653120000476,2.0,0.0,part_2,go,650.0,550.0,1.0,,,,,,,,,yellow,square
0.0,2.0,2.0,0.0,6.0,6.0,802.9598359999,2.0,0.0,part_2,go,650.0,550.0,1.0,,,,,,,,,yellow,square
0.0,1.0,1.0,0.0,5.0,5.0,694.1792509996958,2.0,0.0,part_2,go,650.0,550.0,1.0,,,,,,,,,gray,flipped triangle
0.0,8.0,4.0,1.0,6.0,0.0,0.0,2.0,0.0,part_2,stop,650.0,550.0,4.0,,,,,,,,,orange,hexagon
0.0,3.0,3.0,0.0,6.0,6.0,942.974766000134,2.0,0.0,part_2,go,650.0,600.0,1.0,,,,,,,,,cyan,cross
0.0,4.0,4.0,0.0,5.0,5.0,767.4254620001193,2.0,0.0,part_2,go,650.0,600.0,1.0,,,,,,,,,blue,diamond
0.0,5.0,1.0,1.0,6.0,0.0,0.0,2.0,0.0,part_2,stop,650.0,600.0,4.0,,,,,,,,,green,circle
0.0,5.0,1.0,1.0,6.0,0.0,0.0,2.0,0.0,part_2,stop,650.0,650.0,4.0,,,,,,,,,green,circle
0.0,5.0,1.0,1.0,6.0,6.0,877.1363939999901,2.0,0.0,part_2,stop,650.0,700.0,3.0,,,,,,,,,green,circle
0.0,2.0,2.0,0.0,5.0,5.0,711.0787249998793,2.0,0.0,part_2,go,650.0,650.0,1.0,,,,,,,,,yellow,square
0.0,4.0,4.0,0.0,5.0,5.0,947.8404740002588,2.0,0.0,part_2,go,650.0,650.0,1.0,,,,,,,,,blue,diamond
0.0,5.0,1.0,1.0,5.0,5.0,751.3263649998407,2.0,0.0,part_2,stop,650.0,650.0,3.0,,,,,,,,,green,circle
0.0,3.0,3.0,0.0,5.0,5.0,691.2735190003332,2.0,0.0,part_2,go,600.0,650.0,1.0,,,,,,,,,cyan,cross
0.0,7.0,3.0,1.0,5.0,0.0,0.0,2.0,0.0,part_2,stop,600.0,650.0,4.0,,,,,,,,,magenta,triangle
0.0,3.0,3.0,0.0,5.0,5.0,861.8731400001707,2.0,0.0,part_2,go,650.0,650.0,1.0,,,,,,,,,cyan,cross
0.0,6.0,2.0,1.0,5.0,0.0,0.0,2.0,0.0,part_2,stop,650.0,650.0,4.0,,,,,,,,,white,I
0.0,8.0,4.0,1.0,6.0,6.0,812.3292889999902,2.0,0.0,part_2,stop,700.0,650.0,3.0,,,,,,,,,orange,hexagon
0.0,8.0,4.0,1.0,6.0,6.0,711.8242219999047,2.0,0.0,part_2,stop,700.0,600.0,3.0,,,,,,,,,orange,hexagon
0.0,1.0,1.0,0.0,5.0,5.0,863.4121919999416,2.0,0.0,part_2,go,700.0,550.0,1.0,,,,,,,,,gray,flipped triangle
0.0,1.0,1.0,0.0,5.0,5.0,943.8850520000416,2.0,0.0,part_2,go,700.0,550.0,1.0,,,,,,,,,gray,flipped triangle
0.0,2.0,2.0,0.0,5.0,5.0,647.9737050003678,3.0,0.0,part_2,go,700.0,550.0,1.0,,,,,,,,,yellow,square
0.0,2.0,2.0,0.0,5.0,5.0,529.110178999872,3.0,0.0,part_2,go,700.0,550.0,1.0,,,,,,,,,yellow,square
0.0,4.0,4.0,0.0,6.0,6.0,582.1820920000391,3.0,0.0,part_2,go,700.0,550.0,1.0,,,,,,,,,blue,diamond
0.0,5.0,1.0,1.0,6.0,6.0,660.1455119998718,3.0,0.0,part_2,stop,700.0,550.0,3.0,,,,,,,,,green,circle
0.0,3.0,3.0,0.0,6.0,6.0,631.0470250000435,3.0,0.0,part_2,go,700.0,500.0,1.0,,,,,,,,,cyan,cross
0.0,2.0,2.0,0.0,5.0,5.0,752.3138340002333,3.0,0.0,part_2,go,700.0,500.0,1.0,,,,,,,,,yellow,square
0.0,6.0,2.0,1.0,5.0,5.0,771.6392709999127,3.0,0.0,part_2,stop,700.0,500.0,3.0,,,,,,,,,white,I
0.0,5.0,1.0,1.0,6.0,0.0,0.0,3.0,0.0,part_2,stop,650.0,500.0,4.0,,,,,,,,,green,circle
0.0,2.0,2.0,0.0,6.0,6.0,785.1702920002026,3.0,0.0,part_2,go,650.0,550.0,1.0,,,,,,,,,yellow,square
0.0,4.0,4.0,0.0,6.0,6.0,1014.898809999977,3.0,0.0,part_2,go,650.0,550.0,1.0,,,,,,,,,blue,diamond
0.0,6.0,2.0,1.0,5.0,0.0,0.0,3.0,0.0,part_2,stop,650.0,550.0,4.0,,,,,,,,,white,I
0.0,7.0,3.0,1.0,6.0,0.0,0.0,3.0,0.0,part_2,stop,700.0,550.0,4.0,,,,,,,,,magenta,triangle
0.0,1.0,1.0,0.0,6.0,6.0,970.5902089999654,3.0,0.0,part_2,go,700.0,600.0,1.0,,,,,,,,,gray,flipped triangle
0.0,2.0,2.0,0.0,5.0,5.0,859.1519329997936,3.0,0.0,part_2,go,700.0,600.0,1.0,,,,,,,,,yellow,square
0.0,6.0,2.0,1.0,5.0,0.0,0.0,3.0,0.0,part_2,stop,700.0,600.0,4.0,,,,,,,,,white,I
0.0,2.0,2.0,0.0,6.0,6.0,974.4499299999916,3.0,0.0,part_2,go,750.0,600.0,1.0,,,,,,,,,yellow,square
0.0,2.0,2.0,0.0,6.0,6.0,1046.1903760001403,3.0,0.0,part_2,go,750.0,600.0,1.0,,,,,,,,,yellow,square
0.0,4.0,4.0,0.0,5.0,5.0,840.7978179998281,3.0,0.0,part_2,go,750.0,600.0,1.0,,,,,,,,,blue,diamond
0.0,7.0,3.0,1.0,6.0,0.0,0.0,3.0,0.0,part_2,stop,750.0,600.0,4.0,,,,,,,,,magenta,triangle
0.0,6.0,2.0,1.0,5.0,5.0,730.387520000022,3.0,0.0,part_2,go,750.0,650.0,1.0,,,,,,,,,white,I
0.0,8.0,4.0,1.0,6.0,0.0,0.0,3.0,0.0,part_2,stop,750.0,650.0,4.0,,,,,,,,,orange,hexagon
0.0,3.0,3.0,0.0,5.0,5.0,790.7405900000413,3.0,0.0,part_2,go,750.0,700.0,1.0,,,,,,,,,cyan,cross
0.0,3.0,3.0,0.0,6.0,6.0,686.6320020003513,3.0,0.0,part_2,go,750.0,700.0,1.0,,,,,,,,,cyan,cross
0.0,1.0,1.0,0.0,6.0,6.0,872.9699900000014,3.0,0.0,part_2,go,750.0,700.0,1.0,,,,,,,,,gray,flipped triangle
0.0,4.0,4.0,0.0,6.0,6.0,993.2116619997942,3.0,0.0,part_2,go,750.0,700.0,1.0,,,,,,,,,blue,diamond
0.0,5.0,1.0,1.0,5.0,5.0,1202.8637089997574,3.0,0.0,part_2,go,750.0,700.0,1.0,,,,,,,,,green,circle
0.0,3.0,3.0,0.0,5.0,5.0,847.8751709999415,3.0,0.0,part_2,go,750.0,700.0,1.0,,,,,,,,,cyan,cross
0.0,4.0,4.0,0.0,5.0,5.0,872.0302060000904,3.0,0.0,part_2,go,750.0,700.0,1.0,,,,,,,,,blue,diamond
0.0,7.0,3.0,1.0,6.0,6.0,854.9704239999301,3.0,0.0,part_2,stop,750.0,700.0,3.0,,,,,,,,,magenta,triangle
0.0,7.0,3.0,1.0,6.0,0.0,0.0,3.0,0.0,part_2,stop,750.0,650.0,4.0,,,,,,,,,magenta,triangle
0.0,2.0,2.0,0.0,5.0,5.0,863.7850499999331,3.0,0.0,part_2,go,750.0,700.0,1.0,,,,,,,,,yellow,square
0.0,7.0,3.0,1.0,5.0,0.0,0.0,3.0,0.0,part_2,stop,750.0,700.0,4.0,,,,,,,,,magenta,triangle
0.0,2.0,2.0,0.0,6.0,6.0,933.6303800000678,3.0,0.0,part_2,go,800.0,700.0,1.0,,,,,,,,,yellow,square
0.0,4.0,4.0,0.0,6.0,6.0,785.1849029998448,3.0,0.0,part_2,go,800.0,700.0,1.0,,,,,,,,,blue,diamond
0.0,7.0,3.0,1.0,6.0,0.0,0.0,3.0,0.0,part_2,stop,800.0,700.0,4.0,,,,,,,,,magenta,triangle
0.0,3.0,3.0,0.0,5.0,5.0,979.7082109998884,3.0,0.0,part_2,go,800.0,750.0,1.0,,,,,,,,,cyan,cross
0.0,4.0,4.0,0.0,6.0,6.0,503.50021700023717,4.0,0.0,part_2,go,800.0,750.0,1.0,,,,,,,,,blue,diamond
0.0,7.0,3.0,1.0,6.0,6.0,448.284670999783,4.0,0.0,part_2,stop,800.0,750.0,3.0,,,,,,,,,magenta,triangle
0.0,2.0,2.0,0.0,5.0,5.0,478.8577909998821,4.0,0.0,part_2,go,800.0,700.0,1.0,,,,,,,,,yellow,square
0.0,8.0,4.0,1.0,5.0,5.0,493.9061249997394,4.0,0.0,part_2,go,800.0,700.0,1.0,,,,,,,,,orange,hexagon
0.0,8.0,4.0,1.0,6.0,6.0,472.5071549996755,4.0,0.0,part_2,stop,800.0,700.0,3.0,,,,,,,,,orange,hexagon
0.0,1.0,1.0,0.0,5.0,5.0,518.2102179996946,4.0,0.0,part_2,go,800.0,650.0,1.0,,,,,,,,,gray,flipped triangle
0.0,1.0,1.0,0.0,6.0,6.0,508.32601399997657,4.0,0.0,part_2,go,800.0,650.0,1.0,,,,,,,,,gray,flipped triangle
0.0,1.0,1.0,0.0,6.0,6.0,419.1220920001797,4.0,0.0,part_2,go,800.0,650.0,1.0,,,,,,,,,gray,flipped triangle
0.0,7.0,3.0,1.0,6.0,6.0,716.2666819999686,4.0,0.0,part_2,stop,800.0,650.0,3.0,,,,,,,,,magenta,triangle
0.0,1.0,1.0,0.0,6.0,6.0,732.5061070000629,4.0,0.0,part_2,go,800.0,600.0,1.0,,,,,,,,,gray,flipped triangle
0.0,7.0,3.0,1.0,6.0,6.0,490.1505900002121,4.0,0.0,part_2,stop,800.0,600.0,3.0,,,,,,,,,magenta,triangle
0.0,4.0,4.0,0.0,6.0,6.0,472.334721000152,4.0,0.0,part_2,go,800.0,550.0,1.0,,,,,,,,,blue,diamond
0.0,8.0,4.0,1.0,6.0,6.0,398.8529590001235,4.0,0.0,part_2,stop,800.0,550.0,3.0,,,,,,,,,orange,hexagon
0.0,4.0,4.0,0.0,5.0,5.0,585.0726539997595,4.0,0.0,part_2,go,800.0,500.0,1.0,,,,,,,,,blue,diamond
0.0,8.0,4.0,1.0,5.0,5.0,345.0999449996743,4.0,0.0,part_2,stop,800.0,500.0,3.0,,,,,,,,,orange,hexagon
0.0,5.0,1.0,1.0,5.0,5.0,555.3098450000107,4.0,0.0,part_2,stop,750.0,500.0,3.0,,,,,,,,,green,circle
0.0,1.0,1.0,0.0,6.0,6.0,642.8206900000077,4.0,0.0,part_2,go,700.0,500.0,1.0,,,,,,,,,gray,flipped triangle
0.0,7.0,3.0,1.0,5.0,5.0,674.315272000058,4.0,0.0,part_2,stop,700.0,500.0,3.0,,,,,,,,,magenta,triangle
0.0,6.0,2.0,1.0,6.0,6.0,639.1833279999446,4.0,0.0,part_2,go,650.0,500.0,1.0,,,,,,,,,white,I
0.0,8.0,4.0,1.0,5.0,5.0,719.6302809998087,4.0,0.0,part_2,stop,650.0,500.0,3.0,,,,,,,,,orange,hexagon
0.0,7.0,3.0,1.0,5.0,5.0,705.510076000337,4.0,0.0,part_2,go,600.0,500.0,1.0,,,,,,,,,magenta,triangle
0.0,5.0,1.0,1.0,5.0,5.0,846.5117419996204,4.0,0.0,part_2,go,600.0,500.0,1.0,,,,,,,,,green,circle
0.0,2.0,2.0,0.0,5.0,5.0,582.1052229998713,4.0,0.0,part_2,go,600.0,500.0,1.0,,,,,,,,,yellow,square
0.0,5.0,1.0,1.0,6.0,6.0,422.5168089997169,4.0,0.0,part_2,stop,600.0,500.0,3.0,,,,,,,,,green,circle
0.0,5.0,1.0,1.0,5.0,5.0,633.5938820002411,4.0,0.0,part_2,go,600.0,450.0,1.0,,,,,,,,,green,circle
0.0,8.0,4.0,1.0,6.0,6.0,383.7635669997326,4.0,0.0,part_2,stop,600.0,450.0,3.0,,,,,,,,,orange,hexagon
0.0,4.0,4.0,0.0,5.0,5.0,658.6648840002454,4.0,0.0,part_2,go,600.0,400.0,1.0,,,,,,,,,blue,diamond
0.0,2.0,2.0,0.0,5.0,5.0,399.134543999935,4.0,0.0,part_2,go,600.0,400.0,1.0,,,,,,,,,yellow,square
0.0,5.0,1.0,1.0,6.0,6.0,382.2944220000863,4.0,0.0,part_2,stop,600.0,400.0,3.0,,,,,,,,,green,circle
0.0,4.0,4.0,0.0,6.0,6.0,651.1960500001805,4.0,0.0,part_2,go,600.0,350.0,1.0,,,,,,,,,blue,diamond
0.0,4.0,4.0,0.0,5.0,5.0,651.4496150002742,4.0,0.0,part_2,go,600.0,350.0,1.0,,,,,,,,,blue,diamond
0.0,2.0,2.0,0.0,6.0,6.0,501.9185199998901,4.0,0.0,part_2,go,600.0,350.0,1.0,,,,,,,,,yellow,square
0.0,5.0,1.0,1.0,5.0,5.0,656.2109219999002,4.0,0.0,part_2,stop,600.0,350.0,3.0,,,,,,,,,green,circle
0.0,3.0,3.0,0.0,6.0,6.0,592.0281879998583,4.0,0.0,part_2,go,550.0,350.0,1.0,,,,,,,,,cyan,cross
0.0,8.0,4.0,1.0,5.0,5.0,734.5966409998255,4.0,0.0,part_2,go,550.0,350.0,1.0,,,,,,,,,orange,hexagon
0.0,4.0,4.0,0.0,6.0,6.0,691.2568829998236,4.0,0.0,part_2,go,550.0,350.0,1.0,,,,,,,,,blue,diamond
0.0,2.0,2.0,0.0,5.0,5.0,532.9212179999558,5.0,0.0,part_2,go,550.0,350.0,1.0,,,,,,,,,yellow,square
0.0,4.0,4.0,0.0,5.0,5.0,495.4772569999477,5.0,0.0,part_2,go,550.0,350.0,1.0,,,,,,,,,blue,diamond
0.0,3.0,3.0,0.0,5.0,5.0,662.0407039999918,5.0,0.0,part_2,go,550.0,350.0,1.0,,,,,,,,,cyan,cross
0.0,8.0,4.0,1.0,6.0,6.0,579.2027299999063,5.0,0.0,part_2,go,550.0,350.0,1.0,,,,,,,,,orange,hexagon
0.0,4.0,4.0,0.0,6.0,6.0,697.6879969997754,5.0,0.0,part_2,go,550.0,350.0,1.0,,,,,,,,,blue,diamond
0.0,6.0,2.0,1.0,6.0,0.0,0.0,5.0,0.0,part_2,stop,550.0,350.0,4.0,,,,,,,,,white,I
0.0,5.0,1.0,1.0,6.0,6.0,608.5502329997325,5.0,0.0,part_2,go,550.0,400.0,1.0,,,,,,,,,green,circle
0.0,8.0,4.0,1.0,6.0,6.0,642.3043599997982,5.0,0.0,part_2,go,550.0,400.0,1.0,,,,,,,,,orange,hexagon
0.0,3.0,3.0,0.0,5.0,5.0,806.7510539999603,5.0,0.0,part_2,go,550.0,400.0,1.0,,,,,,,,,cyan,cross
0.0,8.0,4.0,1.0,5.0,0.0,0.0,5.0,0.0,part_2,stop,550.0,400.0,4.0,,,,,,,,,orange,hexagon
0.0,7.0,3.0,1.0,5.0,5.0,573.0737789999694,5.0,0.0,part_2,go,600.0,400.0,1.0,,,,,,,,,magenta,triangle
0.0,1.0,1.0,0.0,5.0,5.0,634.5998470001177,5.0,0.0,part_2,go,600.0,400.0,1.0,,,,,,,,,gray,flipped triangle
0.0,7.0,3.0,1.0,6.0,6.0,437.4282019998645,5.0,0.0,part_2,stop,600.0,400.0,3.0,,,,,,,,,magenta,triangle
0.0,1.0,1.0,0.0,5.0,5.0,665.6399519997649,5.0,0.0,part_2,go,600.0,350.0,1.0,,,,,,,,,gray,flipped triangle
0.0,5.0,1.0,1.0,5.0,5.0,528.7633100001585,5.0,0.0,part_2,go,600.0,350.0,1.0,,,,,,,,,green,circle
0.0,8.0,4.0,1.0,5.0,5.0,591.1188820000461,5.0,0.0,part_2,stop,600.0,350.0,3.0,,,,,,,,,orange,hexagon
0.0,6.0,2.0,1.0,5.0,5.0,397.214884999812,5.0,0.0,part_2,stop,550.0,350.0,3.0,,,,,,,,,white,I
0.0,2.0,2.0,0.0,6.0,6.0,520.5364649996227,5.0,0.0,part_2,go,500.0,350.0,1.0,,,,,,,,,yellow,square
0.0,4.0,4.0,0.0,6.0,6.0,433.3404510002765,5.0,0.0,part_2,go,500.0,350.0,1.0,,,,,,,,,blue,diamond
0.0,5.0,1.0,1.0,6.0,0.0,0.0,5.0,0.0,part_2,stop,500.0,350.0,4.0,,,,,,,,,green,circle
0.0,5.0,1.0,1.0,5.0,0.0,0.0,5.0,0.0,part_2,stop,500.0,400.0,4.0,,,,,,,,,green,circle
0.0,6.0,2.0,1.0,5.0,5.0,613.6306680000416,5.0,0.0,part_2,go,550.0,400.0,1.0,,,,,,,,,white,I
0.0,3.0,3.0,0.0,5.0,5.0,930.9696440000153,5.0,0.0,part_2,go,550.0,400.0,1.0,,,,,,,,,cyan,cross
0.0,6.0,2.0,1.0,6.0,6.0,494.1870830002699,5.0,0.0,part_2,stop,550.0,400.0,3.0,,,,,,,,,white,I
0.0,7.0,3.0,1.0,6.0,0.0,0.0,5.0,0.0,part_2,stop,550.0,350.0,4.0,,,,,,,,,magenta,triangle
0.0,6.0,2.0,1.0,6.0,6.0,846.0413470002095,5.0,0.0,part_2,go,550.0,400.0,1.0,,,,,,,,,white,I
0.0,8.0,4.0,1.0,5.0,5.0,607.0896500000345,5.0,0.0,part_2,stop,550.0,400.0,3.0,,,,,,,,,orange,hexagon
0.0,6.0,2.0,1.0,5.0,0.0,0.0,5.0,0.0,part_2,stop,500.0,400.0,4.0,,,,,,,,,white,I
0.0,1.0,1.0,0.0,6.0,6.0,619.9637760000769,5.0,0.0,part_2,go,550.0,400.0,1.0,,,,,,,,,gray,flipped triangle
0.0,6.0,2.0,1.0,6.0,0.0,0.0,5.0,0.0,part_2,stop,550.0,400.0,4.0,,,,,,,,,white,I
0.0,3.0,3.0,0.0,5.0,5.0,636.8191000001389,5.0,0.0,part_2,go,550.0,450.0,1.0,,,,,,,,,cyan,cross
0.0,5.0,1.0,1.0,5.0,5.0,654.1719849997207,5.0,0.0,part_2,go,550.0,450.0,1.0,,,,,,,,,green,circle
0.0,1.0,1.0,0.0,6.0,6.0,697.8913859998102,5.0,0.0,part_2,go,550.0,450.0,1.0,,,,,,,,,gray,flipped triangle
0.0,5.0,1.0,1.0,6.0,0.0,0.0,5.0,0.0,part_2,stop,550.0,450.0,4.0,,,,,,,,,green,circle
0.0,6.0,2.0,1.0,6.0,6.0,449.600073000056,5.0,0.0,part_2,stop,550.0,500.0,3.0,,,,,,,,,white,I
0.0,5.0,1.0,1.0,6.0,6.0,483.1786979998469,5.0,0.0,part_2,stop,550.0,450.0,3.0,,,,,,,,,green,circle
0.0,4.0,4.0,0.0,6.0,6.0,370.9053010002208,6.0,0.0,part_2,go,550.0,400.0,1.0,,,,,,,,,blue,diamond
0.0,7.0,3.0,1.0,5.0,5.0,531.7213379998975,6.0,0.0,part_2,stop,550.0,400.0,3.0,,,,,,,,,magenta,triangle
0.0,6.0,2.0,1.0,5.0,5.0,465.25237700006977,6.0,0.0,part_2,stop,500.0,400.0,3.0,,,,,,,,,white,I
0.0,3.0,3.0,0.0,6.0,6.0,335.7364600001347,6.0,0.0,part_2,go,450.0,400.0,1.0,,,,,,,,,cyan,cross
0.0,7.0,3.0,1.0,5.0,5.0,375.8334330000252,6.0,0.0,part_2,go,450.0,400.0,1.0,,,,,,,,,magenta,triangle
0.0,3.0,3.0,0.0,5.0,5.0,512.9377089997433,6.0,0.0,part_2,go,450.0,400.0,1.0,,,,,,,,,cyan,cross
0.0,8.0,4.0,1.0,5.0,5.0,670.355247000316,6.0,0.0,part_2,go,450.0,400.0,1.0,,,,,,,,,orange,hexagon
0.0,5.0,1.0,1.0,6.0,6.0,360.9883630001604,6.0,0.0,part_2,stop,450.0,400.0,3.0,,,,,,,,,green,circle
0.0,7.0,3.0,1.0,6.0,0.0,0.0,6.0,0.0,part_2,stop,450.0,350.0,4.0,,,,,,,,,magenta,triangle
0.0,3.0,3.0,0.0,6.0,6.0,547.5255870001092,6.0,0.0,part_2,go,450.0,400.0,1.0,,,,,,,,,cyan,cross
0.0,1.0,1.0,0.0,5.0,5.0,546.4870820001124,6.0,0.0,part_2,go,450.0,400.0,1.0,,,,,,,,,gray,flipped triangle
0.0,7.0,3.0,1.0,6.0,6.0,643.409315000099,6.0,0.0,part_2,go,450.0,400.0,1.0,,,,,,,,,magenta,triangle
0.0,2.0,2.0,0.0,5.0,5.0,445.4936039996937,6.0,0.0,part_2,go,450.0,400.0,1.0,,,,,,,,,yellow,square
0.0,1.0,1.0,0.0,6.0,6.0,526.2088019999283,6.0,0.0,part_2,go,450.0,400.0,1.0,,,,,,,,,gray,flipped triangle
0.0,7.0,3.0,1.0,5.0,5.0,444.9507410004116,6.0,0.0,part_2,stop,450.0,400.0,3.0,,,,,,,,,magenta,triangle
0.0,1.0,1.0,0.0,6.0,6.0,644.1678830001365,6.0,0.0,part_2,go,400.0,400.0,1.0,,,,,,,,,gray,flipped triangle
0.0,4.0,4.0,0.0,6.0,6.0,366.2612250000165,6.0,0.0,part_2,go,400.0,400.0,1.0,,,,,,,,,blue,diamond
0.0,1.0,1.0,0.0,5.0,5.0,329.5348729998295,6.0,0.0,part_2,go,400.0,400.0,1.0,,,,,,,,,gray,flipped triangle
0.0,4.0,4.0,0.0,5.0,5.0,634.317228999862,6.0,0.0,part_2,go,400.0,400.0,1.0,,,,,,,,,blue,diamond
0.0,1.0,1.0,0.0,6.0,6.0,514.9712550000913,6.0,0.0,part_2,go,400.0,400.0,1.0,,,,,,,,,gray,flipped triangle
0.0,6.0,2.0,1.0,5.0,0.0,0.0,6.0,0.0,part_2,stop,400.0,400.0,4.0,,,,,,,,,white,I
0.0,6.0,2.0,1.0,5.0,5.0,604.5269000001099,6.0,0.0,part_2,go,450.0,400.0,1.0,,,,,,,,,white,I
0.0,6.0,2.0,1.0,6.0,6.0,345.8805359996404,6.0,0.0,part_2,go,450.0,400.0,1.0,,,,,,,,,white,I
0.0,5.0,1.0,1.0,5.0,5.0,321.0992799999985,6.0,0.0,part_2,stop,450.0,400.0,3.0,,,,,,,,,green,circle
0.0,7.0,3.0,1.0,6.0,6.0,537.7977990001455,6.0,0.0,part_2,stop,400.0,400.0,3.0,,,,,,,,,magenta,triangle
0.0,1.0,1.0,0.0,6.0,6.0,527.3657090001507,6.0,0.0,part_2,go,400.0,350.0,1.0,,,,,,,,,gray,flipped triangle
0.0,7.0,3.0,1.0,5.0,0.0,0.0,6.0,0.0,part_2,stop,400.0,350.0,4.0,,,,,,,,,magenta,triangle
0.0,7.0,3.0,1.0,6.0,6.0,341.7588809998051,6.0,0.0,part_2,stop,450.0,350.0,3.0,,,,,,,,,magenta,triangle
0.0,1.0,1.0,0.0,5.0,5.0,655.7583750000049,6.0,0.0,part_2,go,450.0,300.0,1.0,,,,,,,,,gray,flipped triangle
0.0,3.0,3.0,0.0,5.0,5.0,585.5670930000088,6.0,0.0,part_2,go,450.0,300.0,1.0,,,,,,,,,cyan,cross
0.0,3.0,3.0,0.0,5.0,5.0,288.8717169998926,6.0,0.0,part_2,go,450.0,300.0,1.0,,,,,,,,,cyan,cross
0.0,1.0,1.0,0.0,6.0,6.0,575.9993010001381,6.0,0.0,part_2,go,450.0,300.0,1.0,,,,,,,,,gray,flipped triangle
0.0,2.0,2.0,0.0,6.0,5.0,0.3224680003768,6.0,0.0,part_2,go,450.0,300.0,2.0,,,,,,,,,yellow,square
0.0,1.0,1.0,0.0,5.0,5.0,789.2815039999732,6.0,0.0,part_2,go,450.0,300.0,1.0,,,,,,,,,gray,flipped triangle
0.0,7.0,3.0,1.0,6.0,6.0,343.2261590000962,6.0,0.0,part_2,go,450.0,300.0,1.0,,,,,,,,,magenta,triangle
0.0,6.0,2.0,1.0,6.0,0.0,0.0,6.0,0.0,part_2,stop,450.0,300.0,4.0,,,,,,,,,white,I
0.0,6.0,2.0,1.0,6.0,6.0,450.5266139999548,7.0,0.0,part_2,stop,450.0,350.0,3.0,,,,,,,,,white,I
0.0,6.0,2.0,1.0,5.0,5.0,386.0696219999227,7.0,0.0,part_2,stop,450.0,300.0,3.0,,,,,,,,,white,I
0.0,4.0,4.0,0.0,6.0,6.0,514.2899020002005,7.0,0.0,part_2,go,400.0,300.0,1.0,,,,,,,,,blue,diamond
0.0,5.0,1.0,1.0,6.0,6.0,357.5419339999826,7.0,0.0,part_2,stop,400.0,300.0,3.0,,,,,,,,,green,circle
0.0,5.0,1.0,1.0,5.0,5.0,376.4423940001506,7.0,0.0,part_2,stop,400.0,250.0,3.0,,,,,,,,,green,circle
0.0,8.0,4.0,1.0,6.0,0.0,0.0,7.0,0.0,part_2,stop,350.0,250.0,4.0,,,,,,,,,orange,hexagon
0.0,8.0,4.0,1.0,6.0,6.0,554.4933400001355,7.0,0.0,part_2,go,350.0,300.0,1.0,,,,,,,,,orange,hexagon
0.0,4.0,4.0,0.0,5.0,5.0,621.388957000363,7.0,0.0,part_2,go,350.0,300.0,1.0,,,,,,,,,blue,diamond
0.0,8.0,4.0,1.0,6.0,0.0,0.0,7.0,0.0,part_2,stop,350.0,300.0,4.0,,,,,,,,,orange,hexagon
0.0,6.0,2.0,1.0,6.0,0.0,0.0,7.0,0.0,part_2,stop,350.0,350.0,4.0,,,,,,,,,white,I
0.0,4.0,4.0,0.0,5.0,5.0,660.6078949998846,7.0,0.0,part_2,go,350.0,400.0,1.0,,,,,,,,,blue,diamond
0.0,5.0,1.0,1.0,5.0,0.0,0.0,7.0,0.0,part_2,stop,350.0,400.0,4.0,,,,,,,,,green,circle
0.0,6.0,2.0,1.0,5.0,5.0,438.1777370003874,7.0,0.0,part_2,stop,400.0,400.0,3.0,,,,,,,,,white,I
0.0,4.0,4.0,0.0,6.0,6.0,543.984668000121,7.0,0.0,part_2,go,350.0,400.0,1.0,,,,,,,,,blue,diamond
0.0,7.0,3.0,1.0,5.0,5.0,602.1150579999812,7.0,0.0,part_2,go,350.0,400.0,1.0,,,,,,,,,magenta,triangle
0.0,4.0,4.0,0.0,5.0,5.0,405.3022040002361,7.0,0.0,part_2,go,350.0,400.0,1.0,,,,,,,,,blue,diamond
0.0,8.0,4.0,1.0,6.0,6.0,376.7957559998649,7.0,0.0,part_2,stop,350.0,400.0,3.0,,,,,,,,,orange,hexagon
0.0,8.0,4.0,1.0,6.0,0.0,0.0,7.0,0.0,part_2,stop,350.0,350.0,4.0,,,,,,,,,orange,hexagon
0.0,4.0,4.0,0.0,6.0,6.0,677.580234999823,7.0,0.0,part_2,go,350.0,400.0,1.0,,,,,,,,,blue,diamond
0.0,5.0,1.0,1.0,5.0,5.0,574.2470300001514,7.0,0.0,part_2,stop,350.0,400.0,3.0,,,,,,,,,green,circle
0.0,3.0,3.0,0.0,6.0,6.0,690.0265290000789,7.0,0.0,part_2,go,300.0,400.0,1.0,,,,,,,,,cyan,cross
0.0,3.0,3.0,0.0,5.0,5.0,770.8240309998473,7.0,0.0,part_2,go,300.0,400.0,1.0,,,,,,,,,cyan,cross
0.0,2.0,2.0,0.0,6.0,6.0,476.5811160000339,7.0,0.0,part_2,go,300.0,400.0,1.0,,,,,,,,,yellow,square
0.0,2.0,2.0,0.0,6.0,6.0,819.9100029996771,7.0,0.0,part_2,go,300.0,400.0,1.0,,,,,,,,,yellow,square
0.0,2.0,2.0,0.0,5.0,5.0,755.9919880000052,7.0,0.0,part_2,go,300.0,400.0,1.0,,,,,,,,,yellow,square
0.0,3.0,3.0,0.0,5.0,5.0,331.6903340000863,7.0,0.0,part_2,go,300.0,400.0,1.0,,,,,,,,,cyan,cross
0.0,7.0,3.0,1.0,5.0,5.0,702.5626780000493,7.0,0.0,part_2,go,300.0,400.0,1.0,,,,,,,,,magenta,triangle
0.0,4.0,4.0,0.0,5.0,5.0,643.1258960001287,7.0,0.0,part_2,go,300.0,400.0,1.0,,,,,,,,,blue,diamond
0.0,5.0,1.0,1.0,6.0,6.0,332.8129000001354,7.0,0.0,part_2,stop,300.0,400.0,3.0,,,,,,,,,green,circle
0.0,2.0,2.0,0.0,6.0,6.0,707.9756950001865,7.0,0.0,part_2,go,300.0,350.0,1.0,,,,,,,,,yellow,square
0.0,1.0,1.0,0.0,5.0,5.0,587.9528489999757,7.0,0.0,part_2,go,300.0,350.0,1.0,,,,,,,,,gray,flipped triangle
0.0,5.0,1.0,1.0,5.0,5.0,736.7476180002086,7.0,0.0,part_2,go,300.0,350.0,1.0,,,,,,,,,green,circle
0.0,4.0,4.0,0.0,6.0,6.0,767.1619180000562,7.0,0.0,part_2,go,300.0,350.0,1.0,,,,,,,,,blue,diamond
0.0,1.0,1.0,0.0,5.0,5.0,786.3213370001176,7.0,0.0,part_2,go,300.0,350.0,1.0,,,,,,,,,gray,flipped triangle
0.0,3.0,3.0,0.0,6.0,6.0,637.4701780000578,7.0,0.0,part_2,go,300.0,350.0,1.0,,,,,,,,,cyan,cross
0.0,8.0,4.0,1.0,5.0,0.0,0.0,7.0,0.0,part_2,stop,300.0,350.0,4.0,,,,,,,,,orange,hexagon
0.0,5.0,1.0,1.0,6.0,6.0,481.2890610000977,8.0,0.0,part_2,stop,350.0,350.0,3.0,,,,,,,,,green,circle
0.0,8.0,4.0,1.0,5.0,5.0,532.3981400001685,8.0,0.0,part_2,go,350.0,300.0,1.0,,,,,,,,,orange,hexagon
0.0,5.0,1.0,1.0,5.0,5.0,455.117040999994,8.0,0.0,part_2,go,350.0,300.0,1.0,,,,,,,,,green,circle
0.0,1.0,1.0,0.0,6.0,6.0,384.18171299963427,8.0,0.0,part_2,go,350.0,300.0,1.0,,,,,,,,,gray,flipped triangle
0.0,3.0,3.0,0.0,6.0,6.0,625.1019680003083,8.0,0.0,part_2,go,350.0,300.0,1.0,,,,,,,,,cyan,cross
0.0,8.0,4.0,1.0,5.0,5.0,410.0494140002411,8.0,0.0,part_2,stop,350.0,300.0,3.0,,,,,,,,,orange,hexagon
0.0,3.0,3.0,0.0,6.0,6.0,516.7219209997711,8.0,0.0,part_2,go,300.0,300.0,1.0,,,,,,,,,cyan,cross
0.0,6.0,2.0,1.0,6.0,6.0,435.8060579997982,8.0,0.0,part_2,stop,300.0,300.0,3.0,,,,,,,,,white,I
0.0,8.0,4.0,1.0,5.0,0.0,0.0,8.0,0.0,part_2,stop,300.0,250.0,4.0,,,,,,,,,orange,hexagon
0.0,2.0,2.0,0.0,5.0,5.0,578.1789030002074,8.0,0.0,part_2,go,350.0,250.0,1.0,,,,,,,,,yellow,square
0.0,3.0,3.0,0.0,6.0,6.0,470.0684519998503,8.0,0.0,part_2,go,350.0,250.0,1.0,,,,,,,,,cyan,cross
0.0,1.0,1.0,0.0,6.0,6.0,828.1346480002867,8.0,0.0,part_2,go,350.0,250.0,1.0,,,,,,,,,gray,flipped triangle
0.0,8.0,4.0,1.0,5.0,0.0,0.0,8.0,0.0,part_2,stop,350.0,250.0,4.0,,,,,,,,,orange,hexagon
0.0,7.0,3.0,1.0,5.0,5.0,616.4627089997339,8.0,0.0,part_2,stop,400.0,250.0,3.0,,,,,,,,,magenta,triangle
0.0,2.0,2.0,0.0,6.0,6.0,597.1025880003253,8.0,0.0,part_2,go,350.0,250.0,1.0,,,,,,,,,yellow,square
0.0,3.0,3.0,0.0,5.0,5.0,597.5477900001351,8.0,0.0,part_2,go,350.0,250.0,1.0,,,,,,,,,cyan,cross
0.0,2.0,2.0,0.0,6.0,6.0,636.2705460001052,8.0,0.0,part_2,go,350.0,250.0,1.0,,,,,,,,,yellow,square
0.0,8.0,4.0,1.0,6.0,6.0,655.7727170002181,8.0,0.0,part_2,go,350.0,250.0,1.0,,,,,,,,,orange,hexagon
0.0,2.0,2.0,0.0,5.0,5.0,539.0195230002064,8.0,0.0,part_2,go,350.0,250.0,1.0,,,,,,,,,yellow,square
0.0,3.0,3.0,0.0,6.0,6.0,528.3871980000185,8.0,0.0,part_2,go,350.0,250.0,1.0,,,,,,,,,cyan,cross
0.0,8.0,4.0,1.0,6.0,0.0,0.0,8.0,0.0,part_2,stop,350.0,250.0,4.0,,,,,,,,,orange,hexagon
0.0,6.0,2.0,1.0,6.0,0.0,0.0,8.0,0.0,part_2,stop,350.0,300.0,4.0,,,,,,,,,white,I
0.0,5.0,1.0,1.0,5.0,5.0,513.1785410003431,8.0,0.0,part_2,stop,350.0,350.0,3.0,,,,,,,,,green,circle
0.0,4.0,4.0,0.0,5.0,5.0,650.5245260000265,8.0,0.0,part_2,go,300.0,350.0,1.0,,,,,,,,,blue,diamond
0.0,1.0,1.0,0.0,5.0,5.0,765.4468689997884,8.0,0.0,part_2,go,300.0,350.0,1.0,,,,,,,,,gray,flipped triangle
0.0,1.0,1.0,0.0,5.0,5.0,628.8659860001644,8.0,0.0,part_2,go,300.0,350.0,1.0,,,,,,,,,gray,flipped triangle
0.0,2.0,2.0,0.0,5.0,5.0,592.0354999998381,8.0,0.0,part_2,go,300.0,350.0,1.0,,,,,,,,,yellow,square
0.0,6.0,2.0,1.0,5.0,0.0,0.0,8.0,0.0,part_2,stop,300.0,350.0,4.0,,,,,,,,,white,I
0.0,7.0,3.0,1.0,6.0,0.0,0.0,8.0,0.0,part_2,stop,350.0,350.0,4.0,,,,,,,,,magenta,triangle
0.0,2.0,2.0,0.0,6.0,6.0,638.5778310000205,8.0,0.0,part_2,go,350.0,400.0,1.0,,,,,,,,,yellow,square
0.0,1.0,1.0,0.0,6.0,6.0,718.7711060000765,8.0,0.0,part_2,go,350.0,400.0,1.0,,,,,,,,,gray,flipped triangle
0.0,6.0,2.0,1.0,5.0,5.0,629.8631589997967,8.0,0.0,part_2,go,350.0,400.0,1.0,,,,,,,,,white,I
0.0,8.0,4.0,1.0,5.0,5.0,443.6630449999938,8.0,0.0,part_2,go,350.0,400.0,1.0,,,,,,,,,orange,hexagon
0.0,6.0,2.0,1.0,6.0,6.0,488.5843790002582,8.0,0.0,part_2,stop,350.0,400.0,3.0,,,,,,,,,white,I
0.0,1.0,1.0,0.0,5.0,5.0,484.4313939997846,8.0,0.0,part_2,go,350.0,350.0,1.0,,,,,,,,,gray,flipped triangle
0.0,3.0,3.0,0.0,6.0,6.0,562.1771229998558,8.0,0.0,part_2,go,350.0,350.0,1.0,,,,,,,,,cyan,cross
0.0,5.0,1.0,1.0,7.0,5.0,4941.107894000197,1.0,1.0,part_3,go,0.0,0.0,0.0,294.0,6.0,147.0,245.0,49.0,196.0,294.0,98.0,green,circle
0.0,7.0,3.0,1.0,7.0,1.0,4584.430994000286,1.0,1.0,part_3,go,0.0,0.0,0.0,220.0,5.0,220.0,132.0,44.0,264.0,176.0,88.0,magenta,triangle
0.0,4.0,4.0,0.0,7.0,5.0,4097.602777000247,1.0,1.0,part_3,go,0.0,0.0,0.0,68.0,2.0,34.0,204.0,102.0,170.0,68.0,136.0,blue,diamond
0.0,7.0,3.0,1.0,7.0,6.0,2194.219770000018,1.0,1.0,part_3,go,0.0,0.0,0.0,204.0,6.0,136.0,34.0,68.0,102.0,170.0,204.0,magenta,triangle
0.0,8.0,4.0,1.0,7.0,5.0,1242.6750240001638,1.0,2.0,part_3,go,0.0,0.0,0.0,39.0,1.0,156.0,78.0,234.0,195.0,39.0,117.0,orange,hexagon
0.0,3.0,3.0,0.0,7.0,2.0,1089.2707060002067,1.0,1.0,part_3,go,0.0,0.0,0.0,196.0,4.0,245.0,196.0,147.0,98.0,294.0,49.0,cyan,cross
0.0,4.0,4.0,0.0,7.0,4.0,1262.7068820002023,1.0,1.0,part_3,go,0.0,0.0,0.0,264.0,6.0,220.0,44.0,176.0,264.0,132.0,88.0,blue,diamond
0.0,6.0,2.0,1.0,7.0,6.0,1192.0767850006089,1.0,1.0,part_3,go,0.0,0.0,0.0,156.0,4.0,234.0,78.0,117.0,195.0,39.0,156.0,white,I
0.0,4.0,4.0,0.0,7.0,2.0,1306.809298999724,1.0,1.0,part_3,go,0.0,0.0,0.0,147.0,3.0,294.0,147.0,49.0,196.0,98.0,245.0,blue,diamond
0.0,6.0,2.0,1.0,7.0,6.0,1199.6619569999891,1.0,1.0,part_3,go,0.0,0.0,0.0,132.0,3.0,44.0,264.0,176.0,88.0,220.0,132.0,white,I
0.0,7.0,3.0,1.0,7.0,3.0,1425.8729600005609,1.0,1.0,part_3,go,0.0,0.0,0.0,270.0,5.0,54.0,108.0,270.0,216.0,162.0,324.0,magenta,triangle
0.0,8.0,4.0,1.0,7.0,2.0,2018.2981089992609,1.0,1.0,part_3,go,0.0,0.0,0.0,170.0,5.0,102.0,170.0,34.0,204.0,68.0,136.0,orange,hexagon
0.0,6.0,2.0,1.0,7.0,5.0,1544.1712589999952,1.0,1.0,part_3,go,0.0,0.0,0.0,324.0,6.0,162.0,108.0,270.0,54.0,324.0,216.0,white,I
0.0,8.0,4.0,1.0,7.0,4.0,1252.4353890003113,1.0,1.0,part_3,go,0.0,0.0,0.0,245.0,5.0,98.0,196.0,147.0,245.0,49.0,294.0,orange,hexagon
0.0,5.0,1.0,1.0,7.0,6.0,979.4116789998952,1.0,1.0,part_3,go,0.0,0.0,0.0,108.0,2.0,216.0,162.0,270.0,54.0,324.0,108.0,green,circle
0.0,7.0,3.0,1.0,7.0,2.0,903.9487899999584,1.0,1.0,part_3,go,0.0,0.0,0.0,132.0,3.0,264.0,132.0,44.0,88.0,176.0,220.0,magenta,triangle
0.0,8.0,4.0,1.0,7.0,5.0,989.4557110001188,1.0,1.0,part_3,go,0.0,0.0,0.0,324.0,6.0,54.0,216.0,162.0,108.0,324.0,270.0,orange,hexagon
0.0,6.0,2.0,1.0,7.0,4.0,1370.2284669998337,1.0,1.0,part_3,go,0.0,0.0,0.0,88.0,2.0,220.0,264.0,44.0,88.0,132.0,176.0,white,I
0.0,4.0,4.0,0.0,7.0,1.0,1610.0316029996975,1.0,1.0,part_3,go,0.0,0.0,0.0,44.0,1.0,44.0,220.0,132.0,176.0,264.0,88.0,blue,diamond
0.0,2.0,2.0,0.0,7.0,2.0,1257.6704400007657,1.0,1.0,part_3,go,0.0,0.0,0.0,117.0,3.0,195.0,117.0,234.0,78.0,156.0,39.0,yellow,square
0.0,8.0,4.0,1.0,7.0,4.0,768.1799769998179,2.0,1.0,part_3,go,0.0,0.0,0.0,264.0,6.0,88.0,132.0,176.0,264.0,220.0,44.0,orange,hexagon
0.0,6.0,2.0,1.0,7.0,1.0,1295.7799979994888,2.0,1.0,part_3,go,0.0,0.0,0.0,54.0,1.0,54.0,162.0,216.0,324.0,108.0,270.0,white,I
0.0,3.0,3.0,0.0,7.0,6.0,1077.1353970003474,2.0,1.0,part_3,go,0.0,0.0,0.0,54.0,1.0,324.0,216.0,108.0,270.0,162.0,54.0,cyan,cross
0.0,5.0,1.0,1.0,7.0,6.0,1026.1079439997047,2.0,1.0,part_3,go,0.0,0.0,0.0,324.0,6.0,270.0,108.0,216.0,162.0,54.0,324.0,green,circle
0.0,1.0,1.0,0.0,7.0,3.0,1567.6684219997696,2.0,1.0,part_3,go,0.0,0.0,0.0,39.0,1.0,156.0,195.0,39.0,117.0,234.0,78.0,gray,flipped triangle
0.0,6.0,2.0,1.0,7.0,2.0,1637.759060999997,2.0,1.0,part_3,go,0.0,0.0,0.0,68.0,2.0,102.0,68.0,170.0,204.0,34.0,136.0,white,I
0.0,1.0,1.0,0.0,7.0,4.0,1688.3126189995892,2.0,1.0,part_3,go,0.0,0.0,0.0,54.0,1.0,108.0,324.0,162.0,54.0,270.0,216.0,gray,flipped triangle
0.0,6.0,2.0,1.0,7.0,1.0,798.7622520004152,2.0,1.0,part_3,go,0.0,0.0,0.0,49.0,1.0,49.0,294.0,245.0,98.0,147.0,196.0,white,I
0.0,6.0,2.0,1.0,7.0,2.0,1243.9442849999978,2.0,1.0,part_3,go,0.0,0.0,0.0,117.0,3.0,78.0,117.0,156.0,195.0,234.0,39.0,white,I
0.0,3.0,3.0,0.0,7.0,3.0,1380.1710320003622,2.0,1.0,part_3,go,0.0,0.0,0.0,216.0,4.0,54.0,162.0,216.0,108.0,270.0,324.0,cyan,cross
0.0,1.0,1.0,0.0,7.0,2.0,1628.4508669996285,2.0,1.0,part_3,go,0.0,0.0,0.0,39.0,1.0,117.0,39.0,195.0,234.0,156.0,78.0,gray,flipped triangle
0.0,2.0,2.0,0.0,7.0,4.0,1440.7922069995038,2.0,1.0,part_3,go,0.0,0.0,0.0,204.0,6.0,34.0,68.0,170.0,204.0,136.0,102.0,yellow,square
0.0,5.0,1.0,1.0,7.0,3.0,1669.6378090000508,2.0,1.0,part_3,go,0.0,0.0,0.0,78.0,2.0,156.0,234.0,78.0,117.0,195.0,39.0,green,circle
0.0,2.0,2.0,0.0,7.0,6.0,1346.6601890004313,2.0,1.0,part_3,go,0.0,0.0,0.0,196.0,4.0,294.0,245.0,98.0,49.0,147.0,196.0,yellow,square
0.0,6.0,2.0,1.0,7.0,6.0,961.7677059995912,2.0,1.0,part_3,go,0.0,0.0,0.0,34.0,1.0,170.0,136.0,68.0,204.0,102.0,34.0,white,I
0.0,2.0,2.0,0.0,7.0,4.0,1105.2930780006136,2.0,1.0,part_3,go,0.0,0.0,0.0,270.0,5.0,162.0,108.0,216.0,270.0,54.0,324.0,yellow,square
0.0,3.0,3.0,0.0,7.0,4.0,1503.946064000047,2.0,1.0,part_3,go,0.0,0.0,0.0,170.0,5.0,34.0,204.0,102.0,170.0,136.0,68.0,cyan,cross
0.0,3.0,3.0,0.0,7.0,5.0,1208.9534730002924,2.0,1.0,part_3,go,0.0,0.0,0.0,156.0,4.0,117.0,39.0,195.0,78.0,156.0,234.0,cyan,cross
0.0,8.0,4.0,1.0,7.0,3.0,2160.097073000543,2.0,1.0,part_3,go,0.0,0.0,0.0,204.0,6.0,68.0,136.0,204.0,34.0,170.0,102.0,orange,hexagon
0.0,3.0,3.0,0.0,7.0,5.0,1228.7355079997724,2.0,1.0,part_3,go,0.0,0.0,0.0,196.0,4.0,49.0,98.0,245.0,294.0,196.0,147.0,cyan,cross
0.0,1.0,1.0,0.0,7.0,2.0,1121.7805490005048,3.0,1.0,part_3,go,0.0,0.0,0.0,44.0,1.0,220.0,44.0,132.0,176.0,264.0,88.0,gray,flipped triangle
0.0,3.0,3.0,0.0,7.0,5.0,978.3097239997004,3.0,1.0,part_3,go,0.0,0.0,0.0,195.0,5.0,156.0,117.0,39.0,234.0,195.0,78.0,cyan,cross
0.0,4.0,4.0,0.0,7.0,1.0,1751.1237159997108,3.0,1.0,part_3,go,0.0,0.0,0.0,324.0,6.0,324.0,216.0,162.0,54.0,108.0,270.0,blue,diamond
0.0,2.0,2.0,0.0,7.0,3.0,1352.4890150001738,3.0,1.0,part_3,go,0.0,0.0,0.0,204.0,6.0,102.0,136.0,204.0,34.0,68.0,170.0,yellow,square
0.0,4.0,4.0,0.0,7.0,4.0,851.7989749998378,3.0,1.0,part_3,go,0.0,0.0,0.0,234.0,6.0,195.0,117.0,156.0,234.0,78.0,39.0,blue,diamond
0.0,5.0,1.0,1.0,7.0,4.0,987.6856199998656,3.0,1.0,part_3,go,0.0,0.0,0.0,102.0,3.0,170.0,204.0,34.0,102.0,68.0,136.0,green,circle
0.0,5.0,1.0,1.0,7.0,6.0,1429.1907540000466,3.0,1.0,part_3,go,0.0,0.0,0.0,68.0,2.0,204.0,136.0,170.0,102.0,34.0,68.0,green,circle
0.0,8.0,4.0,1.0,7.0,1.0,1336.1791460001768,3.0,1.0,part_3,go,0.0,0.0,0.0,324.0,6.0,324.0,54.0,162.0,270.0,216.0,108.0,orange,hexagon
0.0,1.0,1.0,0.0,7.0,4.0,896.0991339999964,3.0,1.0,part_3,go,0.0,0.0,0.0,264.0,6.0,44.0,220.0,176.0,264.0,132.0,88.0,gray,flipped triangle
0.0,7.0,3.0,1.0,7.0,5.0,1198.2117279994782,3.0,1.0,part_3,go,0.0,0.0,0.0,245.0,5.0,147.0,196.0,98.0,49.0,245.0,294.0,magenta,triangle
0.0,3.0,3.0,0.0,7.0,3.0,1072.5967930002298,3.0,1.0,part_3,go,0.0,0.0,0.0,68.0,2.0,136.0,170.0,68.0,102.0,204.0,34.0,cyan,cross
0.0,7.0,3.0,1.0,7.0,5.0,764.0333659992393,3.0,1.0,part_3,go,0.0,0.0,0.0,216.0,4.0,54.0,324.0,270.0,162.0,216.0,108.0,magenta,triangle
0.0,2.0,2.0,0.0,7.0,4.0,671.5304179997474,3.0,1.0,part_3,go,0.0,0.0,0.0,108.0,2.0,270.0,324.0,54.0,108.0,162.0,216.0,yellow,square
0.0,4.0,4.0,0.0,7.0,5.0,648.2334069996796,3.0,1.0,part_3,go,0.0,0.0,0.0,102.0,3.0,136.0,68.0,170.0,204.0,102.0,34.0,blue,diamond
0.0,5.0,1.0,1.0,7.0,6.0,802.8655150001214,3.0,1.0,part_3,go,0.0,0.0,0.0,44.0,1.0,220.0,132.0,176.0,88.0,264.0,44.0,green,circle
0.0,2.0,2.0,0.0,7.0,5.0,937.13816699983,3.0,1.0,part_3,go,0.0,0.0,0.0,196.0,4.0,245.0,294.0,49.0,147.0,196.0,98.0,yellow,square
0.0,2.0,2.0,0.0,7.0,6.0,1161.8909089993394,3.0,1.0,part_3,go,0.0,0.0,0.0,176.0,4.0,88.0,132.0,44.0,264.0,220.0,176.0,yellow,square
0.0,5.0,1.0,1.0,7.0,5.0,898.5565680004584,3.0,1.0,part_3,go,0.0,0.0,0.0,132.0,3.0,44.0,176.0,264.0,220.0,132.0,88.0,green,circle
0.0,2.0,2.0,0.0,7.0,2.0,1336.3117770004465,3.0,1.0,part_3,go,0.0,0.0,0.0,156.0,4.0,39.0,156.0,117.0,195.0,234.0,78.0,yellow,square
0.0,3.0,3.0,0.0,7.0,5.0,1295.969804999913,3.0,1.0,part_3,go,0.0,0.0,0.0,132.0,3.0,264.0,220.0,88.0,176.0,132.0,44.0,cyan,cross
0.0,7.0,3.0,1.0,7.0,4.0,872.1776470001714,4.0,1.0,part_3,go,0.0,0.0,0.0,234.0,6.0,117.0,78.0,156.0,234.0,195.0,39.0,magenta,triangle
0.0,4.0,4.0,0.0,7.0,5.0,837.2430649997114,4.0,1.0,part_3,go,0.0,0.0,0.0,108.0,2.0,216.0,324.0,270.0,54.0,108.0,162.0,blue,diamond
0.0,1.0,1.0,0.0,7.0,2.0,1024.3855740000072,4.0,1.0,part_3,go,0.0,0.0,0.0,136.0,4.0,170.0,136.0,34.0,102.0,68.0,204.0,gray,flipped triangle
0.0,8.0,4.0,1.0,7.0,5.0,1249.6055840001643,4.0,1.0,part_3,go,0.0,0.0,0.0,234.0,6.0,78.0,39.0,117.0,195.0,234.0,156.0,orange,hexagon
0.0,7.0,3.0,1.0,7.0,5.0,925.5096079996292,4.0,1.0,part_3,go,0.0,0.0,0.0,136.0,4.0,170.0,204.0,34.0,102.0,136.0,68.0,magenta,triangle
0.0,7.0,3.0,1.0,7.0,6.0,999.8425579997274,4.0,1.0,part_3,go,0.0,0.0,0.0,196.0,4.0,294.0,147.0,245.0,49.0,98.0,196.0,magenta,triangle
0.0,7.0,3.0,1.0,7.0,4.0,1114.7214070006155,4.0,1.0,part_3,go,0.0,0.0,0.0,156.0,4.0,234.0,117.0,39.0,156.0,195.0,78.0,magenta,triangle
0.0,3.0,3.0,0.0,7.0,4.0,1178.961600000548,4.0,1.0,part_3,go,0.0,0.0,0.0,88.0,2.0,176.0,264.0,220.0,88.0,132.0,44.0,cyan,cross
0.0,8.0,4.0,1.0,7.0,2.0,1134.694940999907,4.0,1.0,part_3,go,0.0,0.0,0.0,264.0,6.0,176.0,264.0,44.0,88.0,220.0,132.0,orange,hexagon
0.0,1.0,1.0,0.0,7.0,6.0,885.1709340005982,4.0,1.0,part_3,go,0.0,0.0,0.0,49.0,1.0,245.0,147.0,294.0,98.0,196.0,49.0,gray,flipped triangle
0.0,4.0,4.0,0.0,7.0,4.0,1020.3445790002661,4.0,1.0,part_3,go,0.0,0.0,0.0,156.0,4.0,195.0,39.0,117.0,156.0,78.0,234.0,blue,diamond
0.0,1.0,1.0,0.0,7.0,3.0,1265.9925039997688,4.0,1.0,part_3,go,0.0,0.0,0.0,68.0,2.0,102.0,204.0,68.0,136.0,34.0,170.0,gray,flipped triangle
0.0,6.0,2.0,1.0,7.0,3.0,1216.1731579999469,4.0,1.0,part_3,go,0.0,0.0,0.0,49.0,1.0,294.0,98.0,49.0,196.0,147.0,245.0,white,I
0.0,4.0,4.0,0.0,7.0,4.0,2423.292616999788,4.0,1.0,part_3,go,0.0,0.0,0.0,196.0,4.0,147.0,294.0,245.0,196.0,98.0,49.0,blue,diamond
0.0,1.0,1.0,0.0,7.0,6.0,1002.9500880000342,4.0,1.0,part_3,go,0.0,0.0,0.0,98.0,2.0,245.0,49.0,294.0,196.0,147.0,98.0,gray,flipped triangle
0.0,2.0,2.0,0.0,7.0,6.0,953.2110540003488,4.0,1.0,part_3,go,0.0,0.0,0.0,220.0,5.0,176.0,132.0,88.0,264.0,44.0,220.0,yellow,square
0.0,5.0,1.0,1.0,7.0,2.0,1001.0949019997497,4.0,1.0,part_3,go,0.0,0.0,0.0,49.0,1.0,245.0,49.0,196.0,294.0,98.0,147.0,green,circle
0.0,8.0,4.0,1.0,7.0,1.0,1463.633252999898,4.0,1.0,part_3,go,0.0,0.0,0.0,294.0,6.0,294.0,196.0,147.0,245.0,98.0,49.0,orange,hexagon
0.0,1.0,1.0,0.0,7.0,1.0,762.113171999772,4.0,1.0,part_3,go,0.0,0.0,0.0,54.0,1.0,54.0,162.0,108.0,270.0,216.0,324.0,gray,flipped triangle
0.0,5.0,1.0,1.0,7.0,1.0,825.402540000141,4.0,1.0,part_3,go,0.0,0.0,0.0,39.0,1.0,39.0,234.0,78.0,156.0,195.0,117.0,green,circle
