raw_reward_magnitude,stim_reward,stepwise_reward_magnitude,paired_with_stopping,stim_location,response,reaction_time,block,num_trial_presentations,which_phase,stop_signal_trial_type,left_SSD,right_SSD,accuracy,chosen_bidding_amount,chosen_bidding_level,possible_bid_1,possible_bid_2,possible_bid_3,possible_bid_4,possible_bid_5,possible_bid_6,color_text,shape_text
381.0,4.0,4.0,0.0,4.0,4.0,359.2952880003395,1.0,1.0,phase_1,,,,,,,,,,,,,magenta,circle
389.0,8.0,4.0,1.0,1.0,1.0,292.9870150001079,1.0,1.0,phase_1,,,,,,,,,,,,,green,hexagon
96.0,2.0,2.0,0.0,1.0,1.0,346.6451829999641,1.0,2.0,phase_1,,,,,,,,,,,,,yellow,triangle
25.0,5.0,1.0,1.0,3.0,3.0,275.6279690001975,1.0,1.0,phase_1,,,,,,,,,,,,,cyan,square
180.0,7.0,3.0,1.0,2.0,2.0,279.1357159999279,1.0,1.0,phase_1,,,,,,,,,,,,,blue,cross
0.0,4.0,0.0,0.0,1.0,1.0,266.4981319999242,1.0,1.0,phase_1,,,,,,,,,,,,,magenta,circle
0.0,2.0,0.0,0.0,3.0,3.0,414.0446219998921,1.0,1.0,phase_1,,,,,,,,,,,,,yellow,triangle
221.0,7.0,3.0,1.0,1.0,1.0,297.2474929997588,1.0,1.0,phase_1,,,,,,,,,,,,,blue,cross
108.0,6.0,2.0,1.0,2.0,2.0,386.0703600003035,1.0,1.0,phase_1,,,,,,,,,,,,,orange,I
123.0,6.0,2.0,1.0,3.0,3.0,351.4331260003018,1.0,2.0,phase_1,,,,,,,,,,,,,orange,I
96.0,6.0,2.0,1.0,3.0,3.0,349.9978800000463,1.0,1.0,phase_1,,,,,,,,,,,,,orange,I
0.0,4.0,0.0,0.0,4.0,4.0,370.7690440000988,1.0,1.0,phase_1,,,,,,,,,,,,,magenta,circle
221.0,7.0,3.0,1.0,1.0,1.0,348.4630349998951,1.0,1.0,phase_1,,,,,,,,,,,,,blue,cross
0.0,5.0,0.0,1.0,2.0,2.0,297.690386999875,1.0,1.0,phase_1,,,,,,,,,,,,,cyan,square
402.0,8.0,4.0,1.0,1.0,1.0,319.4120850002946,1.0,2.0,phase_1,,,,,,,,,,,,,green,hexagon
411.0,4.0,4.0,0.0,3.0,3.0,363.5229249998701,1.0,1.0,phase_1,,,,,,,,,,,,,magenta,circle
57.0,5.0,1.0,1.0,4.0,4.0,323.485392999828,1.0,1.0,phase_1,,,,,,,,,,,,,cyan,square
107.0,6.0,2.0,1.0,2.0,2.0,253.2774179999251,1.0,1.0,phase_1,,,,,,,,,,,,,orange,I
219.0,7.0,3.0,1.0,2.0,2.0,365.3291850000641,1.0,1.0,phase_1,,,,,,,,,,,,,blue,cross
196.0,7.0,3.0,1.0,1.0,1.0,308.3947690001878,1.0,1.0,phase_1,,,,,,,,,,,,,blue,cross
98.0,6.0,2.0,1.0,3.0,3.0,351.17868399993307,1.0,1.0,phase_1,,,,,,,,,,,,,orange,I
63.0,5.0,1.0,1.0,3.0,3.0,435.7020860002194,1.0,1.0,phase_1,,,,,,,,,,,,,cyan,square
116.0,2.0,2.0,0.0,3.0,3.0,306.6201689998706,1.0,1.0,phase_1,,,,,,,,,,,,,yellow,triangle
404.0,8.0,4.0,1.0,2.0,2.0,257.9438289999416,1.0,1.0,phase_1,,,,,,,,,,,,,green,hexagon
74.0,1.0,1.0,0.0,4.0,4.0,309.9866470001871,1.0,1.0,phase_1,,,,,,,,,,,,,white,diamond
376.0,8.0,4.0,1.0,2.0,2.0,283.0865739997534,1.0,1.0,phase_1,,,,,,,,,,,,,green,hexagon
37.0,1.0,1.0,0.0,4.0,4.0,332.8509580001082,1.0,1.0,phase_1,,,,,,,,,,,,,white,diamond
120.0,2.0,2.0,0.0,4.0,4.0,355.0454810001611,1.0,1.0,phase_1,,,,,,,,,,,,,yellow,triangle
123.0,2.0,2.0,0.0,3.0,3.0,310.5366559998401,1.0,1.0,phase_1,,,,,,,,,,,,,yellow,triangle
0.0,4.0,0.0,0.0,4.0,4.0,309.9248859998624,1.0,1.0,phase_1,,,,,,,,,,,,,magenta,circle
179.0,3.0,3.0,0.0,4.0,4.0,379.1762790001485,1.0,1.0,phase_1,,,,,,,,,,,,,gray,flipped triangle
48.0,1.0,1.0,0.0,2.0,2.0,315.6305849997807,1.0,1.0,phase_1,,,,,,,,,,,,,white,diamond
406.0,8.0,4.0,1.0,2.0,2.0,475.7925200001409,1.0,1.0,phase_1,,,,,,,,,,,,,green,hexagon
124.0,6.0,2.0,1.0,1.0,1.0,336.591283999951,1.0,1.0,phase_1,,,,,,,,,,,,,orange,I
394.0,4.0,4.0,0.0,2.0,2.0,319.1134260000581,1.0,1.0,phase_1,,,,,,,,,,,,,magenta,circle
187.0,3.0,3.0,0.0,2.0,2.0,406.2888739999835,1.0,1.0,phase_1,,,,,,,,,,,,,gray,flipped triangle
38.0,1.0,1.0,0.0,2.0,2.0,338.7609510000402,1.0,1.0,phase_1,,,,,,,,,,,,,white,diamond
0.0,6.0,0.0,1.0,2.0,2.0,472.3546260001967,1.0,1.0,phase_1,,,,,,,,,,,,,orange,I
386.0,4.0,4.0,0.0,4.0,4.0,389.7069640001973,1.0,1.0,phase_1,,,,,,,,,,,,,magenta,circle
0.0,8.0,0.0,1.0,2.0,2.0,315.6977490002646,1.0,1.0,phase_1,,,,,,,,,,,,,green,hexagon
60.0,5.0,1.0,1.0,1.0,1.0,353.2941960002063,1.0,1.0,phase_1,,,,,,,,,,,,,cyan,square
215.0,7.0,3.0,1.0,4.0,4.0,394.2009600000347,1.0,1.0,phase_1,,,,,,,,,,,,,blue,cross
219.0,7.0,3.0,1.0,1.0,1.0,436.604872999851,1.0,1.0,phase_1,,,,,,,,,,,,,blue,cross
104.0,2.0,2.0,0.0,4.0,4.0,329.6950149997428,1.0,1.0,phase_1,,,,,,,,,,,,,yellow,triangle
424.0,8.0,4.0,1.0,3.0,3.0,536.7435530001785,1.0,1.0,phase_1,,,,,,,,,,,,,green,hexagon
0.0,3.0,0.0,0.0,4.0,4.0,532.9913509999642,1.0,1.0,phase_1,,,,,,,,,,,,,gray,flipped triangle
69.0,5.0,1.0,1.0,2.0,2.0,291.880788999606,1.0,1.0,phase_1,,,,,,,,,,,,,cyan,square
69.0,1.0,1.0,0.0,3.0,3.0,401.5494210002543,1.0,1.0,phase_1,,,,,,,,,,,,,white,diamond
0.0,6.0,0.0,1.0,3.0,3.0,451.7898399999467,1.0,1.0,phase_1,,,,,,,,,,,,,orange,I
98.0,2.0,2.0,0.0,2.0,2.0,312.4233329999697,1.0,1.0,phase_1,,,,,,,,,,,,,yellow,triangle
0.0,6.0,0.0,1.0,3.0,3.0,391.0381750001761,1.0,1.0,phase_1,,,,,,,,,,,,,orange,I
0.0,3.0,0.0,0.0,2.0,2.0,377.1607570001833,1.0,1.0,phase_1,,,,,,,,,,,,,gray,flipped triangle
0.0,4.0,0.0,0.0,1.0,1.0,386.2525049999021,1.0,1.0,phase_1,,,,,,,,,,,,,magenta,circle
218.0,7.0,3.0,1.0,1.0,1.0,457.1323509999274,1.0,1.0,phase_1,,,,,,,,,,,,,blue,cross
186.0,7.0,3.0,1.0,3.0,3.0,329.9200110000129,1.0,1.0,phase_1,,,,,,,,,,,,,blue,cross
120.0,6.0,2.0,1.0,3.0,3.0,348.173332999977,1.0,1.0,phase_1,,,,,,,,,,,,,orange,I
0.0,8.0,0.0,1.0,1.0,1.0,350.3441319999183,1.0,1.0,phase_1,,,,,,,,,,,,,green,hexagon
0.0,2.0,0.0,0.0,4.0,4.0,321.657702000266,1.0,1.0,phase_1,,,,,,,,,,,,,yellow,triangle
120.0,6.0,2.0,1.0,1.0,1.0,386.4946889998464,1.0,1.0,phase_1,,,,,,,,,,,,,orange,I
0.0,8.0,0.0,1.0,2.0,2.0,370.1257110001279,1.0,1.0,phase_1,,,,,,,,,,,,,green,hexagon
104.0,6.0,2.0,1.0,4.0,4.0,374.6046670003125,1.0,1.0,phase_1,,,,,,,,,,,,,orange,I
0.0,7.0,0.0,1.0,3.0,3.0,386.0377680002784,1.0,1.0,phase_1,,,,,,,,,,,,,blue,cross
199.0,7.0,3.0,1.0,4.0,4.0,386.0675129999436,1.0,1.0,phase_1,,,,,,,,,,,,,blue,cross
98.0,6.0,2.0,1.0,4.0,4.0,401.2285459998566,1.0,1.0,phase_1,,,,,,,,,,,,,orange,I
0.0,5.0,0.0,1.0,3.0,3.0,378.9466520001951,1.0,1.0,phase_1,,,,,,,,,,,,,cyan,square
0.0,1.0,0.0,0.0,2.0,2.0,390.5963749998591,1.0,1.0,phase_1,,,,,,,,,,,,,white,diamond
97.0,6.0,2.0,1.0,2.0,2.0,365.1732849998552,1.0,1.0,phase_1,,,,,,,,,,,,,orange,I
78.0,2.0,2.0,0.0,3.0,3.0,353.1400580000081,1.0,1.0,phase_1,,,,,,,,,,,,,yellow,triangle
188.0,7.0,3.0,1.0,2.0,2.0,292.6185179999265,1.0,1.0,phase_1,,,,,,,,,,,,,blue,cross
421.0,4.0,4.0,0.0,4.0,4.0,277.6189740002337,1.0,1.0,phase_1,,,,,,,,,,,,,magenta,circle
117.0,2.0,2.0,0.0,4.0,4.0,373.3357429996431,1.0,2.0,phase_1,,,,,,,,,,,,,yellow,triangle
0.0,5.0,0.0,1.0,3.0,3.0,302.2655110003143,1.0,1.0,phase_1,,,,,,,,,,,,,cyan,square
194.0,7.0,3.0,1.0,2.0,2.0,257.6364720002857,1.0,1.0,phase_1,,,,,,,,,,,,,blue,cross
94.0,6.0,2.0,1.0,1.0,1.0,270.6329840002581,1.0,1.0,phase_1,,,,,,,,,,,,,orange,I
88.0,2.0,2.0,0.0,2.0,2.0,249.4533000003684,1.0,1.0,phase_1,,,,,,,,,,,,,yellow,triangle
0.0,2.0,0.0,0.0,1.0,1.0,271.8383749997883,1.0,1.0,phase_1,,,,,,,,,,,,,yellow,triangle
208.0,3.0,3.0,0.0,4.0,4.0,370.2884079998512,1.0,1.0,phase_1,,,,,,,,,,,,,gray,flipped triangle
412.0,8.0,4.0,1.0,3.0,3.0,339.3146589996831,1.0,1.0,phase_1,,,,,,,,,,,,,green,hexagon
219.0,3.0,3.0,0.0,2.0,2.0,351.837881999927,1.0,1.0,phase_1,,,,,,,,,,,,,gray,flipped triangle
0.0,6.0,0.0,1.0,3.0,3.0,381.0927740000807,1.0,2.0,phase_1,,,,,,,,,,,,,orange,I
0.0,2.0,0.0,0.0,4.0,4.0,333.3674129999053,1.0,1.0,phase_1,,,,,,,,,,,,,yellow,triangle
27.0,1.0,1.0,0.0,1.0,1.0,286.7623840002125,1.0,1.0,phase_1,,,,,,,,,,,,,white,diamond
57.0,5.0,1.0,1.0,3.0,3.0,351.2915339997562,1.0,1.0,phase_1,,,,,,,,,,,,,cyan,square
396.0,8.0,4.0,1.0,3.0,3.0,331.2064159999863,1.0,1.0,phase_1,,,,,,,,,,,,,green,hexagon
210.0,3.0,3.0,0.0,3.0,3.0,348.2672610002737,1.0,1.0,phase_1,,,,,,,,,,,,,gray,flipped triangle
0.0,5.0,0.0,1.0,3.0,3.0,336.0877540003457,1.0,1.0,phase_1,,,,,,,,,,,,,cyan,square
58.0,1.0,1.0,0.0,3.0,3.0,353.0473270002403,1.0,1.0,phase_1,,,,,,,,,,,,,white,diamond
63.0,1.0,1.0,0.0,2.0,2.0,289.4029159997444,1.0,1.0,phase_1,,,,,,,,,,,,,white,diamond
387.0,4.0,4.0,0.0,4.0,4.0,401.001965999967,1.0,1.0,phase_1,,,,,,,,,,,,,magenta,circle
0.0,3.0,0.0,0.0,2.0,2.0,360.4088079996472,1.0,1.0,phase_1,,,,,,,,,,,,,gray,flipped triangle
381.0,8.0,4.0,1.0,4.0,4.0,379.1128819998448,1.0,1.0,phase_1,,,,,,,,,,,,,green,hexagon
198.0,3.0,3.0,0.0,4.0,4.0,360.7617239999854,1.0,1.0,phase_1,,,,,,,,,,,,,gray,flipped triangle
421.0,8.0,4.0,1.0,3.0,3.0,374.678202999803,1.0,1.0,phase_1,,,,,,,,,,,,,green,hexagon
0.0,1.0,0.0,0.0,4.0,4.0,318.2901139998648,1.0,1.0,phase_1,,,,,,,,,,,,,white,diamond
201.0,3.0,3.0,0.0,1.0,1.0,328.5216229996877,1.0,1.0,phase_1,,,,,,,,,,,,,gray,flipped triangle
412.0,4.0,4.0,0.0,2.0,2.0,223.364739000317,1.0,1.0,phase_1,,,,,,,,,,,,,magenta,circle
58.0,5.0,1.0,1.0,1.0,1.0,233.3393719995911,1.0,1.0,phase_1,,,,,,,,,,,,,cyan,square
0.0,1.0,0.0,0.0,3.0,3.0,323.9486079996823,1.0,1.0,phase_1,,,,,,,,,,,,,white,diamond
0.0,1.0,0.0,0.0,2.0,2.0,211.4095480001196,1.0,1.0,phase_1,,,,,,,,,,,,,white,diamond
70.0,1.0,1.0,0.0,1.0,1.0,270.9124849998261,1.0,2.0,phase_1,,,,,,,,,,,,,white,diamond
0.0,7.0,0.0,1.0,3.0,3.0,303.263711999989,2.0,1.0,phase_1,,,,,,,,,,,,,blue,cross
219.0,7.0,3.0,1.0,4.0,4.0,277.7008309999473,2.0,1.0,phase_1,,,,,,,,,,,,,blue,cross
418.0,4.0,4.0,0.0,1.0,1.0,261.7570960001103,2.0,1.0,phase_1,,,,,,,,,,,,,magenta,circle
47.0,5.0,1.0,1.0,2.0,2.0,305.8921859997099,2.0,1.0,phase_1,,,,,,,,,,,,,cyan,square
188.0,3.0,3.0,0.0,2.0,2.0,353.9740939995681,2.0,1.0,phase_1,,,,,,,,,,,,,gray,flipped triangle
405.0,8.0,4.0,1.0,3.0,3.0,297.2304100003384,2.0,1.0,phase_1,,,,,,,,,,,,,green,hexagon
180.0,3.0,3.0,0.0,1.0,1.0,273.5877790000813,2.0,1.0,phase_1,,,,,,,,,,,,,gray,flipped triangle
422.0,8.0,4.0,1.0,4.0,4.0,270.8165980002377,2.0,1.0,phase_1,,,,,,,,,,,,,green,hexagon
393.0,4.0,4.0,0.0,1.0,1.0,291.4236199999322,2.0,1.0,phase_1,,,,,,,,,,,,,magenta,circle
88.0,2.0,2.0,0.0,1.0,1.0,298.1478029996651,2.0,1.0,phase_1,,,,,,,,,,,,,yellow,triangle
0.0,7.0,0.0,1.0,3.0,3.0,353.5853560001669,2.0,1.0,phase_1,,,,,,,,,,,,,blue,cross
88.0,6.0,2.0,1.0,3.0,3.0,330.5422520002139,2.0,2.0,phase_1,,,,,,,,,,,,,orange,I
42.0,5.0,1.0,1.0,1.0,1.0,316.6270759998042,2.0,1.0,phase_1,,,,,,,,,,,,,cyan,square
419.0,4.0,4.0,0.0,3.0,3.0,318.5891129996889,2.0,1.0,phase_1,,,,,,,,,,,,,magenta,circle
88.0,2.0,2.0,0.0,2.0,2.0,252.0075520001228,2.0,1.0,phase_1,,,,,,,,,,,,,yellow,triangle
410.0,4.0,4.0,0.0,2.0,2.0,424.4975409997096,2.0,2.0,phase_1,,,,,,,,,,,,,magenta,circle
393.0,8.0,4.0,1.0,2.0,2.0,360.8385539996561,2.0,1.0,phase_1,,,,,,,,,,,,,green,hexagon
0.0,3.0,0.0,0.0,3.0,3.0,351.7683900004158,2.0,1.0,phase_1,,,,,,,,,,,,,gray,flipped triangle
186.0,7.0,3.0,1.0,2.0,2.0,442.5167160002274,2.0,1.0,phase_1,,,,,,,,,,,,,blue,cross
79.0,6.0,2.0,1.0,4.0,4.0,333.0564789998789,2.0,1.0,phase_1,,,,,,,,,,,,,orange,I
0.0,2.0,0.0,0.0,1.0,1.0,290.6999779997932,2.0,1.0,phase_1,,,,,,,,,,,,,yellow,triangle
60.0,1.0,1.0,0.0,3.0,3.0,467.9855980002685,2.0,1.0,phase_1,,,,,,,,,,,,,white,diamond
404.0,4.0,4.0,0.0,3.0,3.0,356.3273920003666,2.0,1.0,phase_1,,,,,,,,,,,,,magenta,circle
100.0,2.0,2.0,0.0,3.0,3.0,258.7886759997673,2.0,1.0,phase_1,,,,,,,,,,,,,yellow,triangle
0.0,2.0,0.0,0.0,4.0,4.0,298.4524399998918,2.0,1.0,phase_1,,,,,,,,,,,,,yellow,triangle
61.0,1.0,1.0,0.0,1.0,1.0,357.9531219997989,2.0,1.0,phase_1,,,,,,,,,,,,,white,diamond
51.0,1.0,1.0,0.0,1.0,1.0,333.3609220003382,2.0,1.0,phase_1,,,,,,,,,,,,,white,diamond
382.0,8.0,4.0,1.0,2.0,2.0,263.0420409996077,2.0,1.0,phase_1,,,,,,,,,,,,,green,hexagon
103.0,2.0,2.0,0.0,4.0,4.0,298.5904750003101,2.0,1.0,phase_1,,,,,,,,,,,,,yellow,triangle
118.0,6.0,2.0,1.0,1.0,1.0,238.9798310000515,2.0,1.0,phase_1,,,,,,,,,,,,,orange,I
0.0,5.0,0.0,1.0,2.0,2.0,298.4180690000357,2.0,1.0,phase_1,,,,,,,,,,,,,cyan,square
0.0,2.0,0.0,0.0,4.0,4.0,365.8355630000187,2.0,1.0,phase_1,,,,,,,,,,,,,yellow,triangle
120.0,2.0,2.0,0.0,1.0,1.0,355.3452359997209,2.0,1.0,phase_1,,,,,,,,,,,,,yellow,triangle
424.0,4.0,4.0,0.0,3.0,3.0,297.1123359998273,2.0,1.0,phase_1,,,,,,,,,,,,,magenta,circle
92.0,6.0,2.0,1.0,1.0,1.0,321.7874560000382,2.0,1.0,phase_1,,,,,,,,,,,,,orange,I
394.0,8.0,4.0,1.0,2.0,2.0,388.2736329996987,2.0,1.0,phase_1,,,,,,,,,,,,,green,hexagon
106.0,6.0,2.0,1.0,1.0,1.0,249.038217999896,2.0,1.0,phase_1,,,,,,,,,,,,,orange,I
52.0,5.0,1.0,1.0,1.0,1.0,419.6856929997921,2.0,1.0,phase_1,,,,,,,,,,,,,cyan,square
0.0,6.0,0.0,1.0,3.0,3.0,308.1703900002139,2.0,1.0,phase_1,,,,,,,,,,,,,orange,I
0.0,8.0,0.0,1.0,4.0,4.0,357.4947649999558,2.0,1.0,phase_1,,,,,,,,,,,,,green,hexagon
200.0,7.0,3.0,1.0,3.0,3.0,293.423133000033,2.0,1.0,phase_1,,,,,,,,,,,,,blue,cross
178.0,3.0,3.0,0.0,3.0,3.0,384.0793230001509,2.0,1.0,phase_1,,,,,,,,,,,,,gray,flipped triangle
210.0,7.0,3.0,1.0,3.0,3.0,432.1232530000998,2.0,1.0,phase_1,,,,,,,,,,,,,blue,cross
0.0,1.0,0.0,0.0,4.0,4.0,353.2423980000203,2.0,1.0,phase_1,,,,,,,,,,,,,white,diamond
410.0,8.0,4.0,1.0,2.0,2.0,302.9967610000312,2.0,1.0,phase_1,,,,,,,,,,,,,green,hexagon
0.0,7.0,0.0,1.0,1.0,1.0,316.7938740002682,2.0,1.0,phase_1,,,,,,,,,,,,,blue,cross
124.0,2.0,2.0,0.0,1.0,1.0,363.3237630001531,2.0,1.0,phase_1,,,,,,,,,,,,,yellow,triangle
38.0,1.0,1.0,0.0,4.0,4.0,351.9367359999705,2.0,1.0,phase_1,,,,,,,,,,,,,white,diamond
0.0,8.0,0.0,1.0,2.0,2.0,364.7941579997678,2.0,1.0,phase_1,,,,,,,,,,,,,green,hexagon
187.0,7.0,3.0,1.0,1.0,1.0,517.5917589999699,2.0,1.0,phase_1,,,,,,,,,,,,,blue,cross
208.0,7.0,3.0,1.0,3.0,3.0,395.2681480000137,2.0,1.0,phase_1,,,,,,,,,,,,,blue,cross
207.0,3.0,3.0,0.0,3.0,3.0,337.4983930002599,2.0,1.0,phase_1,,,,,,,,,,,,,gray,flipped triangle
27.0,1.0,1.0,0.0,2.0,2.0,316.8897729997297,2.0,1.0,phase_1,,,,,,,,,,,,,white,diamond
95.0,2.0,2.0,0.0,2.0,2.0,323.4977319998506,2.0,1.0,phase_1,,,,,,,,,,,,,yellow,triangle
422.0,8.0,4.0,1.0,1.0,1.0,309.6631309999793,2.0,1.0,phase_1,,,,,,,,,,,,,green,hexagon
210.0,3.0,3.0,0.0,1.0,1.0,386.367005000011,2.0,1.0,phase_1,,,,,,,,,,,,,gray,flipped triangle
84.0,6.0,2.0,1.0,4.0,4.0,424.4113319996359,2.0,1.0,phase_1,,,,,,,,,,,,,orange,I
382.0,4.0,4.0,0.0,1.0,1.0,381.3950169997042,2.0,1.0,phase_1,,,,,,,,,,,,,magenta,circle
395.0,8.0,4.0,1.0,4.0,4.0,404.4039260002137,2.0,1.0,phase_1,,,,,,,,,,,,,green,hexagon
382.0,4.0,4.0,0.0,1.0,1.0,291.3597120000304,2.0,1.0,phase_1,,,,,,,,,,,,,magenta,circle
58.0,5.0,1.0,1.0,2.0,2.0,267.9876570000488,2.0,1.0,phase_1,,,,,,,,,,,,,cyan,square
194.0,3.0,3.0,0.0,2.0,2.0,332.2477070000786,2.0,1.0,phase_1,,,,,,,,,,,,,gray,flipped triangle
406.0,4.0,4.0,0.0,4.0,4.0,376.3518180003302,2.0,1.0,phase_1,,,,,,,,,,,,,magenta,circle
38.0,5.0,1.0,1.0,3.0,3.0,391.1120590000791,2.0,1.0,phase_1,,,,,,,,,,,,,cyan,square
48.0,5.0,1.0,1.0,1.0,1.0,266.3636229999611,2.0,1.0,phase_1,,,,,,,,,,,,,cyan,square
377.0,4.0,4.0,0.0,2.0,2.0,318.132986999899,2.0,1.0,phase_1,,,,,,,,,,,,,magenta,circle
38.0,5.0,1.0,1.0,2.0,2.0,370.724663999681,2.0,1.0,phase_1,,,,,,,,,,,,,cyan,square
98.0,2.0,2.0,0.0,4.0,4.0,336.2770879998606,2.0,1.0,phase_1,,,,,,,,,,,,,yellow,triangle
89.0,6.0,2.0,1.0,2.0,2.0,384.9406439999256,2.0,1.0,phase_1,,,,,,,,,,,,,orange,I
81.0,6.0,2.0,1.0,3.0,3.0,418.4833529998286,2.0,1.0,phase_1,,,,,,,,,,,,,orange,I
41.0,5.0,1.0,1.0,3.0,3.0,379.7370480001518,2.0,1.0,phase_1,,,,,,,,,,,,,cyan,square
0.0,7.0,0.0,1.0,4.0,4.0,368.5702379998474,2.0,1.0,phase_1,,,,,,,,,,,,,blue,cross
201.0,7.0,3.0,1.0,3.0,3.0,410.1437060003263,2.0,1.0,phase_1,,,,,,,,,,,,,blue,cross
0.0,3.0,0.0,0.0,1.0,1.0,292.2964099998353,2.0,1.0,phase_1,,,,,,,,,,,,,gray,flipped triangle
37.0,1.0,1.0,0.0,4.0,4.0,479.5621630000823,2.0,1.0,phase_1,,,,,,,,,,,,,white,diamond
221.0,3.0,3.0,0.0,1.0,1.0,325.5747339999288,2.0,1.0,phase_1,,,,,,,,,,,,,gray,flipped triangle
41.0,5.0,1.0,1.0,2.0,2.0,343.7273539998386,2.0,1.0,phase_1,,,,,,,,,,,,,cyan,square
375.0,4.0,4.0,0.0,2.0,2.0,342.9560320000746,2.0,1.0,phase_1,,,,,,,,,,,,,magenta,circle
380.0,8.0,4.0,1.0,1.0,1.0,282.8015039999627,2.0,1.0,phase_1,,,,,,,,,,,,,green,hexagon
79.0,2.0,2.0,0.0,1.0,1.0,315.0578719996701,2.0,2.0,phase_1,,,,,,,,,,,,,yellow,triangle
95.0,6.0,2.0,1.0,4.0,4.0,456.972472000416,2.0,2.0,phase_1,,,,,,,,,,,,,orange,I
186.0,3.0,3.0,0.0,3.0,3.0,338.6524540001119,2.0,1.0,phase_1,,,,,,,,,,,,,gray,flipped triangle
394.0,4.0,4.0,0.0,3.0,3.0,358.9110170000822,2.0,1.0,phase_1,,,,,,,,,,,,,magenta,circle
191.0,3.0,3.0,0.0,2.0,2.0,350.2703690000999,2.0,1.0,phase_1,,,,,,,,,,,,,gray,flipped triangle
396.0,4.0,4.0,0.0,3.0,3.0,385.2207859999907,2.0,1.0,phase_1,,,,,,,,,,,,,magenta,circle
0.0,1.0,0.0,0.0,3.0,3.0,444.1221440001754,2.0,1.0,phase_1,,,,,,,,,,,,,white,diamond
385.0,4.0,4.0,0.0,4.0,4.0,389.0317440000217,2.0,1.0,phase_1,,,,,,,,,,,,,magenta,circle
214.0,3.0,3.0,0.0,1.0,1.0,362.3421410002265,2.0,1.0,phase_1,,,,,,,,,,,,,gray,flipped triangle
178.0,3.0,3.0,0.0,3.0,3.0,328.1597189998138,2.0,1.0,phase_1,,,,,,,,,,,,,gray,flipped triangle
57.0,1.0,1.0,0.0,4.0,4.0,353.0654830001367,2.0,1.0,phase_1,,,,,,,,,,,,,white,diamond
220.0,3.0,3.0,0.0,3.0,3.0,337.2577700001784,2.0,1.0,phase_1,,,,,,,,,,,,,gray,flipped triangle
88.0,6.0,2.0,1.0,4.0,4.0,324.5406220003133,2.0,1.0,phase_1,,,,,,,,,,,,,orange,I
422.0,4.0,4.0,0.0,2.0,2.0,301.7051580000043,2.0,1.0,phase_1,,,,,,,,,,,,,magenta,circle
58.0,1.0,1.0,0.0,1.0,1.0,306.6877850001219,2.0,1.0,phase_1,,,,,,,,,,,,,white,diamond
179.0,3.0,3.0,0.0,1.0,1.0,344.241563000196,2.0,1.0,phase_1,,,,,,,,,,,,,gray,flipped triangle
38.0,1.0,1.0,0.0,4.0,4.0,294.852823000383,2.0,1.0,phase_1,,,,,,,,,,,,,white,diamond
214.0,7.0,3.0,1.0,2.0,2.0,324.5001610002873,2.0,1.0,phase_1,,,,,,,,,,,,,blue,cross
27.0,5.0,1.0,1.0,4.0,4.0,338.6697300002197,2.0,1.0,phase_1,,,,,,,,,,,,,cyan,square
84.0,2.0,2.0,0.0,1.0,1.0,355.5373999997755,2.0,1.0,phase_1,,,,,,,,,,,,,yellow,triangle
0.0,6.0,0.0,1.0,4.0,4.0,312.5805630002105,2.0,1.0,phase_1,,,,,,,,,,,,,orange,I
100.0,6.0,2.0,1.0,3.0,3.0,350.2634399997077,3.0,1.0,phase_1,,,,,,,,,,,,,orange,I
51.0,1.0,1.0,0.0,1.0,1.0,245.9401020000768,3.0,1.0,phase_1,,,,,,,,,,,,,white,diamond
98.0,6.0,2.0,1.0,1.0,1.0,331.7251949997626,3.0,2.0,phase_1,,,,,,,,,,,,,orange,I
62.0,5.0,1.0,1.0,2.0,2.0,303.4748760001093,3.0,1.0,phase_1,,,,,,,,,,,,,cyan,square
84.0,6.0,2.0,1.0,4.0,4.0,338.7167360001513,3.0,1.0,phase_1,,,,,,,,,,,,,orange,I
51.0,5.0,1.0,1.0,4.0,4.0,414.7283829997832,3.0,1.0,phase_1,,,,,,,,,,,,,cyan,square
184.0,3.0,3.0,0.0,3.0,3.0,396.8203710001035,3.0,1.0,phase_1,,,,,,,,,,,,,gray,flipped triangle
92.0,6.0,2.0,1.0,1.0,1.0,335.704005000025,3.0,1.0,phase_1,,,,,,,,,,,,,orange,I
0.0,3.0,0.0,0.0,3.0,3.0,338.5858540000299,3.0,1.0,phase_1,,,,,,,,,,,,,gray,flipped triangle
74.0,5.0,1.0,1.0,3.0,3.0,318.8743219998287,3.0,1.0,phase_1,,,,,,,,,,,,,cyan,square
89.0,2.0,2.0,0.0,4.0,4.0,312.2893279996788,3.0,1.0,phase_1,,,,,,,,,,,,,yellow,triangle
179.0,7.0,3.0,1.0,4.0,4.0,367.7492910001092,3.0,1.0,phase_1,,,,,,,,,,,,,blue,cross
0.0,5.0,0.0,1.0,4.0,4.0,393.9849049997974,3.0,1.0,phase_1,,,,,,,,,,,,,cyan,square
0.0,8.0,0.0,1.0,1.0,1.0,309.9299519999476,3.0,1.0,phase_1,,,,,,,,,,,,,green,hexagon
0.0,8.0,0.0,1.0,4.0,4.0,393.7599810001302,3.0,2.0,phase_1,,,,,,,,,,,,,green,hexagon
118.0,2.0,2.0,0.0,1.0,1.0,342.6492270000381,3.0,1.0,phase_1,,,,,,,,,,,,,yellow,triangle
97.0,2.0,2.0,0.0,4.0,4.0,296.9839679999495,3.0,1.0,phase_1,,,,,,,,,,,,,yellow,triangle
220.0,7.0,3.0,1.0,4.0,4.0,378.9503660000264,3.0,1.0,phase_1,,,,,,,,,,,,,blue,cross
68.0,5.0,1.0,1.0,1.0,1.0,342.5351490000139,3.0,1.0,phase_1,,,,,,,,,,,,,cyan,square
413.0,4.0,4.0,0.0,4.0,4.0,290.3285200000027,3.0,1.0,phase_1,,,,,,,,,,,,,magenta,circle
424.0,4.0,4.0,0.0,4.0,4.0,359.5019720000891,3.0,1.0,phase_1,,,,,,,,,,,,,magenta,circle
67.0,5.0,1.0,1.0,4.0,4.0,354.623231000005,3.0,1.0,phase_1,,,,,,,,,,,,,cyan,square
191.0,7.0,3.0,1.0,3.0,3.0,357.1621170003709,3.0,1.0,phase_1,,,,,,,,,,,,,blue,cross
417.0,4.0,4.0,0.0,2.0,2.0,435.5506560000322,3.0,1.0,phase_1,,,,,,,,,,,,,magenta,circle
219.0,3.0,3.0,0.0,2.0,2.0,372.3987289999968,3.0,1.0,phase_1,,,,,,,,,,,,,gray,flipped triangle
102.0,2.0,2.0,0.0,3.0,3.0,397.3910670001714,3.0,1.0,phase_1,,,,,,,,,,,,,yellow,triangle
31.0,1.0,1.0,0.0,1.0,1.0,264.411112000289,3.0,1.0,phase_1,,,,,,,,,,,,,white,diamond
41.0,1.0,1.0,0.0,2.0,2.0,285.3137729998707,3.0,1.0,phase_1,,,,,,,,,,,,,white,diamond
94.0,2.0,2.0,0.0,4.0,4.0,283.9058380000097,3.0,1.0,phase_1,,,,,,,,,,,,,yellow,triangle
202.0,7.0,3.0,1.0,2.0,2.0,267.6857269998436,3.0,1.0,phase_1,,,,,,,,,,,,,blue,cross
48.0,5.0,1.0,1.0,4.0,4.0,414.7495710003568,3.0,2.0,phase_1,,,,,,,,,,,,,cyan,square
25.0,1.0,1.0,0.0,3.0,3.0,360.6906449999769,3.0,1.0,phase_1,,,,,,,,,,,,,white,diamond
116.0,6.0,2.0,1.0,3.0,3.0,336.8928189997859,3.0,1.0,phase_1,,,,,,,,,,,,,orange,I
191.0,7.0,3.0,1.0,2.0,2.0,278.1057239999427,3.0,1.0,phase_1,,,,,,,,,,,,,blue,cross
107.0,2.0,2.0,0.0,2.0,2.0,290.4482939998161,3.0,1.0,phase_1,,,,,,,,,,,,,yellow,triangle
0.0,4.0,0.0,0.0,2.0,2.0,285.8556609999141,3.0,1.0,phase_1,,,,,,,,,,,,,magenta,circle
199.0,3.0,3.0,0.0,2.0,2.0,434.2712419997951,3.0,1.0,phase_1,,,,,,,,,,,,,gray,flipped triangle
385.0,8.0,4.0,1.0,4.0,4.0,413.7367520002044,3.0,1.0,phase_1,,,,,,,,,,,,,green,hexagon
424.0,8.0,4.0,1.0,3.0,3.0,388.1598200000553,3.0,1.0,phase_1,,,,,,,,,,,,,green,hexagon
200.0,3.0,3.0,0.0,3.0,3.0,311.9851189999281,3.0,1.0,phase_1,,,,,,,,,,,,,gray,flipped triangle
70.0,5.0,1.0,1.0,3.0,3.0,335.7982899997296,3.0,1.0,phase_1,,,,,,,,,,,,,cyan,square
112.0,6.0,2.0,1.0,2.0,2.0,312.528361999739,3.0,1.0,phase_1,,,,,,,,,,,,,orange,I
377.0,8.0,4.0,1.0,1.0,1.0,333.016305000001,3.0,1.0,phase_1,,,,,,,,,,,,,green,hexagon
0.0,2.0,0.0,0.0,3.0,3.0,293.3604790000572,3.0,1.0,phase_1,,,,,,,,,,,,,yellow,triangle
0.0,4.0,0.0,0.0,1.0,1.0,337.8572809997422,3.0,1.0,phase_1,,,,,,,,,,,,,magenta,circle
207.0,7.0,3.0,1.0,2.0,2.0,323.6636429996906,3.0,1.0,phase_1,,,,,,,,,,,,,blue,cross
180.0,7.0,3.0,1.0,4.0,4.0,326.1768900001698,3.0,1.0,phase_1,,,,,,,,,,,,,blue,cross
0.0,6.0,0.0,1.0,2.0,2.0,296.2452399997346,3.0,1.0,phase_1,,,,,,,,,,,,,orange,I
27.0,5.0,1.0,1.0,1.0,1.0,324.0075369999431,3.0,1.0,phase_1,,,,,,,,,,,,,cyan,square
60.0,5.0,1.0,1.0,4.0,4.0,265.8256159998018,3.0,1.0,phase_1,,,,,,,,,,,,,cyan,square
84.0,2.0,2.0,0.0,2.0,2.0,281.4332279999689,3.0,1.0,phase_1,,,,,,,,,,,,,yellow,triangle
398.0,8.0,4.0,1.0,3.0,3.0,439.9599490002401,3.0,1.0,phase_1,,,,,,,,,,,,,green,hexagon
389.0,8.0,4.0,1.0,1.0,1.0,328.8645839998025,3.0,1.0,phase_1,,,,,,,,,,,,,green,hexagon
206.0,7.0,3.0,1.0,1.0,1.0,453.3386829998562,3.0,1.0,phase_1,,,,,,,,,,,,,blue,cross
51.0,5.0,1.0,1.0,4.0,4.0,328.2745490000707,3.0,1.0,phase_1,,,,,,,,,,,,,cyan,square
0.0,5.0,0.0,1.0,3.0,3.0,369.9371269999574,3.0,1.0,phase_1,,,,,,,,,,,,,cyan,square
196.0,3.0,3.0,0.0,4.0,4.0,316.0577680000642,3.0,1.0,phase_1,,,,,,,,,,,,,gray,flipped triangle
224.0,7.0,3.0,1.0,4.0,4.0,336.7004109995832,3.0,1.0,phase_1,,,,,,,,,,,,,blue,cross
185.0,7.0,3.0,1.0,4.0,4.0,446.1977280002429,3.0,1.0,phase_1,,,,,,,,,,,,,blue,cross
58.0,1.0,1.0,0.0,4.0,4.0,391.7491309998695,3.0,1.0,phase_1,,,,,,,,,,,,,white,diamond
49.0,1.0,1.0,0.0,4.0,4.0,335.6620919998931,3.0,1.0,phase_1,,,,,,,,,,,,,white,diamond
61.0,5.0,1.0,1.0,4.0,4.0,360.0593280002613,3.0,1.0,phase_1,,,,,,,,,,,,,cyan,square
118.0,2.0,2.0,0.0,4.0,4.0,257.9900139999154,3.0,1.0,phase_1,,,,,,,,,,,,,yellow,triangle
69.0,5.0,1.0,1.0,1.0,1.0,274.3516470000031,3.0,1.0,phase_1,,,,,,,,,,,,,cyan,square
118.0,6.0,2.0,1.0,2.0,2.0,880.9407240000837,3.0,1.0,phase_1,,,,,,,,,,,,,orange,I
38.0,1.0,1.0,0.0,2.0,2.0,319.8357629999009,3.0,1.0,phase_1,,,,,,,,,,,,,white,diamond
389.0,4.0,4.0,0.0,1.0,1.0,382.7650240000366,3.0,1.0,phase_1,,,,,,,,,,,,,magenta,circle
0.0,4.0,0.0,0.0,3.0,3.0,407.8292350000083,3.0,1.0,phase_1,,,,,,,,,,,,,magenta,circle
400.0,4.0,4.0,0.0,3.0,3.0,331.7383630001131,3.0,1.0,phase_1,,,,,,,,,,,,,magenta,circle
0.0,8.0,0.0,1.0,4.0,4.0,396.309760999884,3.0,1.0,phase_1,,,,,,,,,,,,,green,hexagon
422.0,4.0,4.0,0.0,1.0,1.0,294.9016210000081,3.0,1.0,phase_1,,,,,,,,,,,,,magenta,circle
215.0,3.0,3.0,0.0,3.0,3.0,353.0580069996176,3.0,1.0,phase_1,,,,,,,,,,,,,gray,flipped triangle
80.0,2.0,2.0,0.0,2.0,2.0,262.4250389999361,3.0,1.0,phase_1,,,,,,,,,,,,,yellow,triangle
112.0,2.0,2.0,0.0,3.0,3.0,332.2078240003066,3.0,2.0,phase_1,,,,,,,,,,,,,yellow,triangle
395.0,4.0,4.0,0.0,2.0,2.0,368.7260439996862,3.0,1.0,phase_1,,,,,,,,,,,,,magenta,circle
387.0,8.0,4.0,1.0,1.0,1.0,371.597692999785,3.0,1.0,phase_1,,,,,,,,,,,,,green,hexagon
103.0,6.0,2.0,1.0,2.0,2.0,320.394278999629,3.0,1.0,phase_1,,,,,,,,,,,,,orange,I
38.0,5.0,1.0,1.0,2.0,2.0,359.8425899999711,3.0,1.0,phase_1,,,,,,,,,,,,,cyan,square
0.0,1.0,0.0,0.0,1.0,1.0,400.0176600002305,3.0,1.0,phase_1,,,,,,,,,,,,,white,diamond
105.0,2.0,2.0,0.0,1.0,1.0,355.7309380003062,3.0,1.0,phase_1,,,,,,,,,,,,,yellow,triangle
88.0,6.0,2.0,1.0,1.0,1.0,307.0941620003395,3.0,1.0,phase_1,,,,,,,,,,,,,orange,I
207.0,3.0,3.0,0.0,4.0,4.0,375.5406190002759,3.0,1.0,phase_1,,,,,,,,,,,,,gray,flipped triangle
105.0,6.0,2.0,1.0,2.0,2.0,331.9864790000792,3.0,1.0,phase_1,,,,,,,,,,,,,orange,I
0.0,1.0,0.0,0.0,1.0,1.0,351.6296420002618,3.0,1.0,phase_1,,,,,,,,,,,,,white,diamond
67.0,1.0,1.0,0.0,2.0,2.0,330.9741389998635,3.0,1.0,phase_1,,,,,,,,,,,,,white,diamond
0.0,6.0,0.0,1.0,4.0,4.0,353.3306760000414,3.0,2.0,phase_1,,,,,,,,,,,,,orange,I
78.0,6.0,2.0,1.0,3.0,3.0,374.8219600001903,3.0,1.0,phase_1,,,,,,,,,,,,,orange,I
0.0,7.0,0.0,1.0,1.0,1.0,337.9530120000709,3.0,1.0,phase_1,,,,,,,,,,,,,blue,cross
400.0,4.0,4.0,0.0,1.0,1.0,335.088523000195,3.0,1.0,phase_1,,,,,,,,,,,,,magenta,circle
0.0,6.0,0.0,1.0,2.0,2.0,351.2818720000723,3.0,1.0,phase_1,,,,,,,,,,,,,orange,I
0.0,1.0,0.0,0.0,4.0,4.0,822.2944320000352,3.0,1.0,phase_1,,,,,,,,,,,,,white,diamond
0.0,2.0,0.0,0.0,4.0,4.0,363.5773910000353,3.0,1.0,phase_1,,,,,,,,,,,,,yellow,triangle
382.0,8.0,4.0,1.0,4.0,4.0,417.2046720000253,3.0,1.0,phase_1,,,,,,,,,,,,,green,hexagon
184.0,7.0,3.0,1.0,1.0,1.0,303.8480159998471,3.0,1.0,phase_1,,,,,,,,,,,,,blue,cross
103.0,2.0,2.0,0.0,3.0,3.0,407.5825739996617,3.0,1.0,phase_1,,,,,,,,,,,,,yellow,triangle
375.0,8.0,4.0,1.0,3.0,3.0,313.3229589998336,3.0,1.0,phase_1,,,,,,,,,,,,,green,hexagon
100.0,6.0,2.0,1.0,1.0,1.0,351.0426350003399,3.0,1.0,phase_1,,,,,,,,,,,,,orange,I
221.0,7.0,3.0,1.0,4.0,4.0,341.149561000293,3.0,1.0,phase_1,,,,,,,,,,,,,blue,cross
400.0,8.0,4.0,1.0,1.0,1.0,288.1984119999288,3.0,1.0,phase_1,,,,,,,,,,,,,green,hexagon
179.0,7.0,3.0,1.0,1.0,1.0,309.9374590001389,3.0,1.0,phase_1,,,,,,,,,,,,,blue,cross
206.0,3.0,3.0,0.0,2.0,2.0,398.6530450001737,4.0,1.0,phase_1,,,,,,,,,,,,,gray,flipped triangle
202.0,3.0,3.0,0.0,3.0,3.0,353.1492920001255,4.0,1.0,phase_1,,,,,,,,,,,,,gray,flipped triangle
43.0,1.0,1.0,0.0,3.0,3.0,292.2540340000523,4.0,1.0,phase_1,,,,,,,,,,,,,white,diamond
198.0,7.0,3.0,1.0,3.0,3.0,337.8683599999021,4.0,1.0,phase_1,,,,,,,,,,,,,blue,cross
92.0,2.0,2.0,0.0,2.0,2.0,294.2836770002941,4.0,1.0,phase_1,,,,,,,,,,,,,yellow,triangle
0.0,7.0,0.0,1.0,1.0,1.0,354.4910089999575,4.0,1.0,phase_1,,,,,,,,,,,,,blue,cross
48.0,1.0,1.0,0.0,4.0,4.0,340.0313600000118,4.0,1.0,phase_1,,,,,,,,,,,,,white,diamond
0.0,8.0,0.0,1.0,2.0,2.0,321.286801000042,4.0,1.0,phase_1,,,,,,,,,,,,,green,hexagon
103.0,6.0,2.0,1.0,2.0,2.0,332.6295309998386,4.0,1.0,phase_1,,,,,,,,,,,,,orange,I
200.0,3.0,3.0,0.0,4.0,4.0,362.0392610000635,4.0,2.0,phase_1,,,,,,,,,,,,,gray,flipped triangle
26.0,5.0,1.0,1.0,4.0,4.0,303.8822590001473,4.0,1.0,phase_1,,,,,,,,,,,,,cyan,square
380.0,4.0,4.0,0.0,1.0,1.0,332.7433660001588,4.0,1.0,phase_1,,,,,,,,,,,,,magenta,circle
0.0,2.0,0.0,0.0,4.0,4.0,409.3310279999969,4.0,1.0,phase_1,,,,,,,,,,,,,yellow,triangle
0.0,5.0,0.0,1.0,4.0,4.0,434.023179000178,4.0,1.0,phase_1,,,,,,,,,,,,,cyan,square
68.0,1.0,1.0,0.0,3.0,3.0,387.0690009998725,4.0,1.0,phase_1,,,,,,,,,,,,,white,diamond
0.0,3.0,0.0,0.0,3.0,3.0,373.0399070000203,4.0,1.0,phase_1,,,,,,,,,,,,,gray,flipped triangle
74.0,1.0,1.0,0.0,2.0,2.0,316.8948730003649,4.0,1.0,phase_1,,,,,,,,,,,,,white,diamond
43.0,5.0,1.0,1.0,3.0,3.0,275.3256740002143,4.0,1.0,phase_1,,,,,,,,,,,,,cyan,square
413.0,8.0,4.0,1.0,2.0,2.0,222.6357899999129,4.0,1.0,phase_1,,,,,,,,,,,,,green,hexagon
385.0,4.0,4.0,0.0,3.0,3.0,247.6492969999526,4.0,1.0,phase_1,,,,,,,,,,,,,magenta,circle
0.0,4.0,0.0,0.0,3.0,3.0,308.3292460000848,4.0,1.0,phase_1,,,,,,,,,,,,,magenta,circle
0.0,6.0,0.0,1.0,3.0,3.0,319.3063099997744,4.0,1.0,phase_1,,,,,,,,,,,,,orange,I
102.0,6.0,2.0,1.0,4.0,4.0,375.1657910001995,4.0,1.0,phase_1,,,,,,,,,,,,,orange,I
405.0,4.0,4.0,0.0,3.0,3.0,282.3045889999775,4.0,2.0,phase_1,,,,,,,,,,,,,magenta,circle
81.0,2.0,2.0,0.0,2.0,2.0,331.2875120000171,4.0,1.0,phase_1,,,,,,,,,,,,,yellow,triangle
186.0,3.0,3.0,0.0,1.0,1.0,359.7994529995958,4.0,1.0,phase_1,,,,,,,,,,,,,gray,flipped triangle
200.0,7.0,3.0,1.0,3.0,3.0,349.853857999733,4.0,1.0,phase_1,,,,,,,,,,,,,blue,cross
210.0,7.0,3.0,1.0,4.0,4.0,303.8076140001067,4.0,1.0,phase_1,,,,,,,,,,,,,blue,cross
191.0,3.0,3.0,0.0,2.0,2.0,270.8897099996648,4.0,1.0,phase_1,,,,,,,,,,,,,gray,flipped triangle
402.0,4.0,4.0,0.0,1.0,1.0,264.4796899999164,4.0,1.0,phase_1,,,,,,,,,,,,,magenta,circle
417.0,8.0,4.0,1.0,2.0,2.0,331.2496609996742,4.0,1.0,phase_1,,,,,,,,,,,,,green,hexagon
0.0,5.0,0.0,1.0,2.0,2.0,347.0990340001663,4.0,1.0,phase_1,,,,,,,,,,,,,cyan,square
420.0,8.0,4.0,1.0,4.0,4.0,288.8681079998605,4.0,1.0,phase_1,,,,,,,,,,,,,green,hexagon
98.0,2.0,2.0,0.0,3.0,3.0,539.4222210002226,4.0,1.0,phase_1,,,,,,,,,,,,,yellow,triangle
389.0,4.0,4.0,0.0,3.0,3.0,325.3715060000104,4.0,1.0,phase_1,,,,,,,,,,,,,magenta,circle
60.0,1.0,1.0,0.0,1.0,1.0,262.0172669999192,4.0,1.0,phase_1,,,,,,,,,,,,,white,diamond
57.0,1.0,1.0,0.0,2.0,2.0,245.4804610001701,4.0,1.0,phase_1,,,,,,,,,,,,,white,diamond
62.0,1.0,1.0,0.0,1.0,1.0,259.7132700002476,4.0,1.0,phase_1,,,,,,,,,,,,,white,diamond
376.0,4.0,4.0,0.0,1.0,1.0,312.6394819996676,4.0,1.0,phase_1,,,,,,,,,,,,,magenta,circle
0.0,3.0,0.0,0.0,1.0,1.0,358.2075960002839,4.0,2.0,phase_1,,,,,,,,,,,,,gray,flipped triangle
0.0,7.0,0.0,1.0,2.0,2.0,381.90829999985,4.0,1.0,phase_1,,,,,,,,,,,,,blue,cross
42.0,1.0,1.0,0.0,1.0,1.0,410.667045000082,4.0,1.0,phase_1,,,,,,,,,,,,,white,diamond
0.0,8.0,0.0,1.0,3.0,3.0,295.0856489997022,4.0,1.0,phase_1,,,,,,,,,,,,,green,hexagon
221.0,3.0,3.0,0.0,1.0,1.0,237.8431239999372,4.0,1.0,phase_1,,,,,,,,,,,,,gray,flipped triangle
108.0,2.0,2.0,0.0,4.0,4.0,400.063584000236,4.0,1.0,phase_1,,,,,,,,,,,,,yellow,triangle
219.0,3.0,3.0,0.0,1.0,1.0,289.3290740003067,4.0,1.0,phase_1,,,,,,,,,,,,,gray,flipped triangle
405.0,4.0,4.0,0.0,2.0,2.0,291.4809070002775,4.0,1.0,phase_1,,,,,,,,,,,,,magenta,circle
0.0,3.0,0.0,0.0,1.0,1.0,350.7354570001553,4.0,1.0,phase_1,,,,,,,,,,,,,gray,flipped triangle
418.0,8.0,4.0,1.0,4.0,4.0,324.1751900000054,4.0,1.0,phase_1,,,,,,,,,,,,,green,hexagon
69.0,1.0,1.0,0.0,3.0,3.0,362.3481539998465,4.0,1.0,phase_1,,,,,,,,,,,,,white,diamond
78.0,6.0,2.0,1.0,2.0,2.0,347.9914929998813,4.0,1.0,phase_1,,,,,,,,,,,,,orange,I
386.0,8.0,4.0,1.0,1.0,1.0,339.6187150001424,4.0,1.0,phase_1,,,,,,,,,,,,,green,hexagon
74.0,5.0,1.0,1.0,2.0,2.0,328.1374039997899,4.0,1.0,phase_1,,,,,,,,,,,,,cyan,square
58.0,5.0,1.0,1.0,4.0,4.0,307.5211390000731,4.0,1.0,phase_1,,,,,,,,,,,,,cyan,square
0.0,7.0,0.0,1.0,2.0,2.0,310.7347559998743,4.0,1.0,phase_1,,,,,,,,,,,,,blue,cross
80.0,6.0,2.0,1.0,4.0,4.0,412.8636179998466,4.0,2.0,phase_1,,,,,,,,,,,,,orange,I
185.0,3.0,3.0,0.0,2.0,2.0,304.6208860000661,4.0,1.0,phase_1,,,,,,,,,,,,,gray,flipped triangle
92.0,2.0,2.0,0.0,1.0,1.0,308.6404079999738,4.0,1.0,phase_1,,,,,,,,,,,,,yellow,triangle
224.0,3.0,3.0,0.0,4.0,4.0,310.0597540001217,4.0,1.0,phase_1,,,,,,,,,,,,,gray,flipped triangle
411.0,8.0,4.0,1.0,1.0,1.0,334.1643459998522,4.0,1.0,phase_1,,,,,,,,,,,,,green,hexagon
37.0,5.0,1.0,1.0,2.0,2.0,339.1716800001632,4.0,1.0,phase_1,,,,,,,,,,,,,cyan,square
420.0,4.0,4.0,0.0,4.0,4.0,342.8308340003241,4.0,1.0,phase_1,,,,,,,,,,,,,magenta,circle
178.0,7.0,3.0,1.0,1.0,1.0,378.7076220000926,4.0,1.0,phase_1,,,,,,,,,,,,,blue,cross
78.0,2.0,2.0,0.0,3.0,3.0,361.0223729997415,4.0,1.0,phase_1,,,,,,,,,,,,,yellow,triangle
0.0,7.0,0.0,1.0,3.0,3.0,420.012743999905,4.0,1.0,phase_1,,,,,,,,,,,,,blue,cross
218.0,3.0,3.0,0.0,4.0,4.0,359.8677519999,4.0,1.0,phase_1,,,,,,,,,,,,,gray,flipped triangle
406.0,8.0,4.0,1.0,3.0,3.0,446.2043629996515,4.0,1.0,phase_1,,,,,,,,,,,,,green,hexagon
26.0,1.0,1.0,0.0,3.0,3.0,375.7953889999044,4.0,1.0,phase_1,,,,,,,,,,,,,white,diamond
37.0,5.0,1.0,1.0,2.0,2.0,327.6050770000438,4.0,1.0,phase_1,,,,,,,,,,,,,cyan,square
106.0,2.0,2.0,0.0,3.0,3.0,355.4957749997811,4.0,1.0,phase_1,,,,,,,,,,,,,yellow,triangle
58.0,1.0,1.0,0.0,2.0,2.0,301.148079000086,4.0,1.0,phase_1,,,,,,,,,,,,,white,diamond
405.0,8.0,4.0,1.0,4.0,4.0,319.6916649999366,4.0,1.0,phase_1,,,,,,,,,,,,,green,hexagon
0.0,4.0,0.0,0.0,4.0,4.0,410.3322859996297,4.0,1.0,phase_1,,,,,,,,,,,,,magenta,circle
31.0,5.0,1.0,1.0,1.0,1.0,337.4177330001657,4.0,1.0,phase_1,,,,,,,,,,,,,cyan,square
0.0,4.0,0.0,0.0,1.0,1.0,394.541252000181,4.0,1.0,phase_1,,,,,,,,,,,,,magenta,circle
207.0,7.0,3.0,1.0,3.0,3.0,365.4805740002302,4.0,2.0,phase_1,,,,,,,,,,,,,blue,cross
47.0,1.0,1.0,0.0,3.0,3.0,316.3169320000634,4.0,1.0,phase_1,,,,,,,,,,,,,white,diamond
0.0,5.0,0.0,1.0,3.0,3.0,329.1452919997937,4.0,1.0,phase_1,,,,,,,,,,,,,cyan,square
398.0,4.0,4.0,0.0,2.0,2.0,282.1900690000802,4.0,1.0,phase_1,,,,,,,,,,,,,magenta,circle
400.0,8.0,4.0,1.0,4.0,4.0,307.6164559997778,4.0,1.0,phase_1,,,,,,,,,,,,,green,hexagon
179.0,7.0,3.0,1.0,2.0,2.0,351.2103200000638,4.0,1.0,phase_1,,,,,,,,,,,,,blue,cross
385.0,8.0,4.0,1.0,2.0,2.0,336.2371509997501,4.0,1.0,phase_1,,,,,,,,,,,,,green,hexagon
58.0,5.0,1.0,1.0,1.0,1.0,385.8240670001578,4.0,2.0,phase_1,,,,,,,,,,,,,cyan,square
221.0,3.0,3.0,0.0,1.0,1.0,299.3804520001504,4.0,1.0,phase_1,,,,,,,,,,,,,gray,flipped triangle
41.0,1.0,1.0,0.0,4.0,4.0,362.8124859997115,4.0,1.0,phase_1,,,,,,,,,,,,,white,diamond
179.0,3.0,3.0,0.0,4.0,4.0,365.9203589995741,4.0,1.0,phase_1,,,,,,,,,,,,,gray,flipped triangle
394.0,8.0,4.0,1.0,3.0,3.0,371.5027899997949,4.0,1.0,phase_1,,,,,,,,,,,,,green,hexagon
49.0,5.0,1.0,1.0,3.0,3.0,357.8160480001315,4.0,1.0,phase_1,,,,,,,,,,,,,cyan,square
38.0,5.0,1.0,1.0,3.0,3.0,359.7590409999611,4.0,1.0,phase_1,,,,,,,,,,,,,cyan,square
117.0,6.0,2.0,1.0,3.0,3.0,355.268580000029,4.0,1.0,phase_1,,,,,,,,,,,,,orange,I
112.0,2.0,2.0,0.0,1.0,1.0,352.671083000132,4.0,1.0,phase_1,,,,,,,,,,,,,yellow,triangle
0.0,1.0,0.0,0.0,3.0,3.0,364.4762100002481,4.0,1.0,phase_1,,,,,,,,,,,,,white,diamond
419.0,8.0,4.0,1.0,4.0,4.0,335.4063500000848,4.0,1.0,phase_1,,,,,,,,,,,,,green,hexagon
178.0,7.0,3.0,1.0,3.0,3.0,387.3150129998066,4.0,1.0,phase_1,,,,,,,,,,,,,blue,cross
406.0,4.0,4.0,0.0,4.0,4.0,412.890262000019,4.0,1.0,phase_1,,,,,,,,,,,,,magenta,circle
112.0,6.0,2.0,1.0,4.0,4.0,363.4905950002576,4.0,1.0,phase_1,,,,,,,,,,,,,orange,I
0.0,3.0,0.0,0.0,1.0,1.0,388.7455660001251,4.0,1.0,phase_1,,,,,,,,,,,,,gray,flipped triangle
52.0,1.0,1.0,0.0,3.0,3.0,302.1648369999639,4.0,1.0,phase_1,,,,,,,,,,,,,white,diamond
180.0,3.0,3.0,0.0,4.0,4.0,415.7864570001948,4.0,1.0,phase_1,,,,,,,,,,,,,gray,flipped triangle
100.0,2.0,2.0,0.0,2.0,2.0,363.4343690000605,4.0,1.0,phase_1,,,,,,,,,,,,,yellow,triangle
0.0,1.0,1.0,0.0,5.0,5.0,287.8105869999672,1.0,1.0,phase_2,go,250.0,250.0,1.0,,,,,,,,,white,diamond
0.0,6.0,2.0,1.0,6.0,0.0,0.0,1.0,1.0,phase_2,stop,250.0,250.0,4.0,,,,,,,,,orange,I
0.0,7.0,3.0,1.0,5.0,5.0,285.8549910001784,1.0,1.0,phase_2,stop,250.0,300.0,3.0,,,,,,,,,blue,cross
0.0,8.0,4.0,1.0,6.0,6.0,363.4000639999613,1.0,1.0,phase_2,stop,200.0,300.0,3.0,,,,,,,,,green,hexagon
0.0,4.0,4.0,0.0,5.0,5.0,294.2433289999826,1.0,1.0,phase_2,go,200.0,250.0,1.0,,,,,,,,,magenta,circle
0.0,6.0,2.0,1.0,5.0,0.0,0.0,1.0,1.0,phase_2,stop,200.0,250.0,4.0,,,,,,,,,orange,I
0.0,6.0,2.0,1.0,6.0,6.0,344.1690319996269,1.0,1.0,phase_2,go,250.0,250.0,1.0,,,,,,,,,orange,I
0.0,4.0,4.0,0.0,5.0,5.0,518.4936030000245,1.0,1.0,phase_2,go,250.0,250.0,1.0,,,,,,,,,magenta,circle
0.0,3.0,3.0,0.0,5.0,5.0,330.4654220000884,1.0,1.0,phase_2,go,250.0,250.0,1.0,,,,,,,,,gray,flipped triangle
0.0,5.0,1.0,1.0,6.0,6.0,267.8973890001543,1.0,1.0,phase_2,go,250.0,250.0,1.0,,,,,,,,,cyan,square
0.0,6.0,2.0,1.0,6.0,6.0,290.7948760002909,1.0,1.0,phase_2,stop,250.0,250.0,3.0,,,,,,,,,orange,I
0.0,2.0,2.0,0.0,6.0,6.0,263.9056630000596,1.0,1.0,phase_2,go,250.0,200.0,1.0,,,,,,,,,yellow,triangle
0.0,3.0,3.0,0.0,5.0,5.0,258.6994850003066,1.0,1.0,phase_2,go,250.0,200.0,1.0,,,,,,,,,gray,flipped triangle
0.0,8.0,4.0,1.0,6.0,6.0,250.80695799988462,1.0,1.0,phase_2,stop,250.0,200.0,3.0,,,,,,,,,green,hexagon
0.0,6.0,2.0,1.0,5.0,5.0,326.9828210000014,1.0,1.0,phase_2,stop,250.0,150.0,3.0,,,,,,,,,orange,I
0.0,1.0,1.0,0.0,6.0,6.0,298.6907480003538,1.0,1.0,phase_2,go,200.0,150.0,1.0,,,,,,,,,white,diamond
0.0,1.0,1.0,0.0,6.0,6.0,328.7846160001209,1.0,1.0,phase_2,go,200.0,150.0,1.0,,,,,,,,,white,diamond
0.0,5.0,1.0,1.0,5.0,5.0,290.6567479999467,1.0,1.0,phase_2,stop,200.0,150.0,3.0,,,,,,,,,cyan,square
0.0,5.0,1.0,1.0,5.0,0.0,0.0,1.0,1.0,phase_2,stop,150.0,150.0,4.0,,,,,,,,,cyan,square
0.0,1.0,1.0,0.0,6.0,6.0,585.7006060000458,1.0,1.0,phase_2,go,200.0,150.0,1.0,,,,,,,,,white,diamond
0.0,5.0,1.0,1.0,6.0,6.0,350.4288809999707,1.0,1.0,phase_2,go,200.0,150.0,1.0,,,,,,,,,cyan,square
0.0,2.0,2.0,0.0,5.0,5.0,295.7354169998325,1.0,1.0,phase_2,go,200.0,150.0,1.0,,,,,,,,,yellow,triangle
0.0,5.0,1.0,1.0,6.0,6.0,283.8341389997367,1.0,1.0,phase_2,stop,200.0,150.0,3.0,,,,,,,,,cyan,square
0.0,3.0,3.0,0.0,5.0,5.0,518.3888440001283,1.0,1.0,phase_2,go,200.0,100.0,1.0,,,,,,,,,gray,flipped triangle
0.0,7.0,3.0,1.0,5.0,0.0,0.0,1.0,1.0,phase_2,stop,200.0,100.0,4.0,,,,,,,,,blue,cross
0.0,1.0,1.0,0.0,5.0,5.0,323.7452329999541,1.0,1.0,phase_2,go,250.0,100.0,1.0,,,,,,,,,white,diamond
0.0,1.0,1.0,0.0,5.0,5.0,360.357789000318,1.0,1.0,phase_2,go,250.0,100.0,1.0,,,,,,,,,white,diamond
0.0,5.0,1.0,1.0,6.0,6.0,255.0929640001413,1.0,1.0,phase_2,stop,250.0,100.0,3.0,,,,,,,,,cyan,square
0.0,7.0,3.0,1.0,5.0,5.0,316.8205290003243,1.0,1.0,phase_2,stop,250.0,50.0,3.0,,,,,,,,,blue,cross
0.0,3.0,3.0,0.0,5.0,5.0,589.3001149997872,1.0,1.0,phase_2,go,200.0,50.0,1.0,,,,,,,,,gray,flipped triangle
0.0,2.0,2.0,0.0,5.0,5.0,300.3309389996502,1.0,1.0,phase_2,go,200.0,50.0,1.0,,,,,,,,,yellow,triangle
0.0,2.0,2.0,0.0,6.0,6.0,327.1031109998148,1.0,1.0,phase_2,go,200.0,50.0,1.0,,,,,,,,,yellow,triangle
0.0,6.0,2.0,1.0,6.0,0.0,0.0,1.0,1.0,phase_2,stop,200.0,50.0,4.0,,,,,,,,,orange,I
0.0,7.0,3.0,1.0,5.0,5.0,288.5684859998036,1.0,1.0,phase_2,go,200.0,100.0,1.0,,,,,,,,,blue,cross
0.0,1.0,1.0,0.0,5.0,5.0,341.5369990002546,1.0,1.0,phase_2,go,200.0,100.0,1.0,,,,,,,,,white,diamond
0.0,8.0,4.0,1.0,5.0,5.0,290.9318600000006,1.0,1.0,phase_2,stop,200.0,100.0,3.0,,,,,,,,,green,hexagon
0.0,5.0,1.0,1.0,6.0,0.0,0.0,2.0,1.0,phase_2,stop,150.0,100.0,4.0,,,,,,,,,cyan,square
0.0,2.0,2.0,0.0,5.0,5.0,267.0254099998601,2.0,1.0,phase_2,go,150.0,150.0,1.0,,,,,,,,,yellow,triangle
0.0,2.0,2.0,0.0,6.0,6.0,328.3704909999869,2.0,1.0,phase_2,go,150.0,150.0,1.0,,,,,,,,,yellow,triangle
0.0,4.0,4.0,0.0,5.0,5.0,221.1294129997441,2.0,1.0,phase_2,go,150.0,150.0,1.0,,,,,,,,,magenta,circle
0.0,6.0,2.0,1.0,5.0,0.0,0.0,2.0,1.0,phase_2,stop,150.0,150.0,4.0,,,,,,,,,orange,I
0.0,2.0,2.0,0.0,6.0,6.0,372.5004539996916,2.0,1.0,phase_2,go,200.0,150.0,1.0,,,,,,,,,yellow,triangle
0.0,4.0,4.0,0.0,5.0,5.0,386.4519829999153,2.0,1.0,phase_2,go,200.0,150.0,1.0,,,,,,,,,magenta,circle
0.0,2.0,2.0,0.0,6.0,6.0,282.2110580000299,2.0,1.0,phase_2,go,200.0,150.0,1.0,,,,,,,,,yellow,triangle
0.0,1.0,1.0,0.0,5.0,5.0,252.6648959997146,2.0,1.0,phase_2,go,200.0,150.0,1.0,,,,,,,,,white,diamond
0.0,6.0,2.0,1.0,6.0,0.0,0.0,2.0,1.0,phase_2,stop,200.0,150.0,4.0,,,,,,,,,orange,I
0.0,4.0,4.0,0.0,6.0,6.0,357.5166229998103,2.0,1.0,phase_2,go,200.0,200.0,1.0,,,,,,,,,magenta,circle
0.0,3.0,3.0,0.0,5.0,5.0,296.3591120001183,2.0,1.0,phase_2,go,200.0,200.0,1.0,,,,,,,,,gray,flipped triangle
0.0,8.0,4.0,1.0,5.0,5.0,347.0389469998736,2.0,1.0,phase_2,stop,200.0,200.0,3.0,,,,,,,,,green,hexagon
0.0,4.0,4.0,0.0,6.0,6.0,446.9530530000156,2.0,1.0,phase_2,go,150.0,200.0,1.0,,,,,,,,,magenta,circle
0.0,6.0,2.0,1.0,5.0,0.0,0.0,2.0,1.0,phase_2,stop,150.0,200.0,4.0,,,,,,,,,orange,I
0.0,2.0,2.0,0.0,6.0,6.0,367.0202909997897,2.0,1.0,phase_2,go,200.0,200.0,1.0,,,,,,,,,yellow,triangle
0.0,5.0,1.0,1.0,5.0,5.0,331.5336109999407,2.0,1.0,phase_2,stop,200.0,200.0,3.0,,,,,,,,,cyan,square
0.0,7.0,3.0,1.0,6.0,6.0,324.2168659999151,2.0,1.0,phase_2,go,150.0,200.0,1.0,,,,,,,,,blue,cross
0.0,4.0,4.0,0.0,5.0,5.0,650.8679329999723,2.0,1.0,phase_2,go,150.0,200.0,1.0,,,,,,,,,magenta,circle
0.0,3.0,3.0,0.0,6.0,6.0,490.7479640005476,2.0,1.0,phase_2,go,150.0,200.0,1.0,,,,,,,,,gray,flipped triangle
0.0,6.0,2.0,1.0,5.0,5.0,308.1121900004291,2.0,1.0,phase_2,stop,150.0,200.0,3.0,,,,,,,,,orange,I
0.0,7.0,3.0,1.0,5.0,0.0,0.0,2.0,1.0,phase_2,stop,100.0,200.0,4.0,,,,,,,,,blue,cross
0.0,1.0,1.0,0.0,6.0,6.0,316.5267149997817,2.0,1.0,phase_2,go,150.0,200.0,1.0,,,,,,,,,white,diamond
0.0,2.0,2.0,0.0,5.0,5.0,510.2751289996377,2.0,1.0,phase_2,go,150.0,200.0,1.0,,,,,,,,,yellow,triangle
0.0,1.0,1.0,0.0,6.0,6.0,454.2343499997514,2.0,1.0,phase_2,go,150.0,200.0,1.0,,,,,,,,,white,diamond
0.0,6.0,2.0,1.0,6.0,0.0,0.0,2.0,1.0,phase_2,stop,150.0,200.0,4.0,,,,,,,,,orange,I
0.0,5.0,1.0,1.0,5.0,5.0,316.6048909997698,2.0,1.0,phase_2,stop,150.0,250.0,3.0,,,,,,,,,cyan,square
0.0,6.0,2.0,1.0,5.0,5.0,488.1372489999194,2.0,1.0,phase_2,go,100.0,250.0,1.0,,,,,,,,,orange,I
0.0,5.0,1.0,1.0,5.0,0.0,0.0,2.0,1.0,phase_2,stop,100.0,250.0,4.0,,,,,,,,,cyan,square
0.0,2.0,2.0,0.0,6.0,6.0,362.7819220000674,2.0,1.0,phase_2,go,150.0,250.0,1.0,,,,,,,,,yellow,triangle
0.0,4.0,4.0,0.0,5.0,5.0,517.5522279996585,2.0,1.0,phase_2,go,150.0,250.0,1.0,,,,,,,,,magenta,circle
0.0,1.0,1.0,0.0,5.0,5.0,394.0841130006447,2.0,1.0,phase_2,go,150.0,250.0,1.0,,,,,,,,,white,diamond
0.0,6.0,2.0,1.0,6.0,6.0,355.4674059996614,2.0,1.0,phase_2,stop,150.0,250.0,3.0,,,,,,,,,orange,I
0.0,2.0,2.0,0.0,6.0,6.0,454.7401649997482,2.0,1.0,phase_2,go,150.0,200.0,1.0,,,,,,,,,yellow,triangle
0.0,7.0,3.0,1.0,6.0,0.0,0.0,2.0,1.0,phase_2,stop,150.0,200.0,4.0,,,,,,,,,blue,cross
0.0,1.0,1.0,0.0,5.0,5.0,444.1308620007476,2.0,1.0,phase_2,go,150.0,250.0,1.0,,,,,,,,,white,diamond
0.0,7.0,3.0,1.0,6.0,6.0,367.8292849999707,3.0,1.0,phase_2,go,150.0,250.0,1.0,,,,,,,,,blue,cross
0.0,7.0,3.0,1.0,5.0,0.0,0.0,3.0,1.0,phase_2,stop,150.0,250.0,4.0,,,,,,,,,blue,cross
0.0,8.0,4.0,1.0,5.0,5.0,361.8863399997281,3.0,1.0,phase_2,stop,200.0,250.0,3.0,,,,,,,,,green,hexagon
0.0,4.0,4.0,0.0,5.0,5.0,418.880512999749,3.0,1.0,phase_2,go,150.0,250.0,1.0,,,,,,,,,magenta,circle
0.0,2.0,2.0,0.0,5.0,5.0,417.1788599996944,3.0,1.0,phase_2,go,150.0,250.0,1.0,,,,,,,,,yellow,triangle
0.0,1.0,1.0,0.0,6.0,6.0,486.9518019995666,3.0,1.0,phase_2,go,150.0,250.0,1.0,,,,,,,,,white,diamond
0.0,2.0,2.0,0.0,6.0,6.0,307.7711679998174,3.0,1.0,phase_2,go,150.0,250.0,1.0,,,,,,,,,yellow,triangle
0.0,6.0,2.0,1.0,5.0,5.0,276.3239750001958,3.0,1.0,phase_2,stop,150.0,250.0,3.0,,,,,,,,,orange,I
0.0,7.0,3.0,1.0,6.0,6.0,357.7433359996576,3.0,1.0,phase_2,stop,100.0,250.0,3.0,,,,,,,,,blue,cross
0.0,7.0,3.0,1.0,5.0,0.0,0.0,3.0,1.0,phase_2,stop,100.0,200.0,4.0,,,,,,,,,blue,cross
0.0,3.0,3.0,0.0,5.0,5.0,464.3935490003059,3.0,1.0,phase_2,go,150.0,200.0,1.0,,,,,,,,,gray,flipped triangle
0.0,2.0,2.0,0.0,5.0,5.0,527.2037810000256,3.0,1.0,phase_2,go,150.0,200.0,1.0,,,,,,,,,yellow,triangle
0.0,2.0,2.0,0.0,5.0,5.0,373.6683119996087,3.0,1.0,phase_2,go,150.0,200.0,1.0,,,,,,,,,yellow,triangle
0.0,3.0,3.0,0.0,6.0,6.0,567.2496209999736,3.0,1.0,phase_2,go,150.0,200.0,1.0,,,,,,,,,gray,flipped triangle
0.0,5.0,1.0,1.0,5.0,5.0,326.4059169996471,3.0,1.0,phase_2,stop,150.0,200.0,3.0,,,,,,,,,cyan,square
0.0,1.0,1.0,0.0,5.0,5.0,443.9536919999227,3.0,1.0,phase_2,go,100.0,200.0,1.0,,,,,,,,,white,diamond
0.0,6.0,2.0,1.0,6.0,0.0,0.0,3.0,1.0,phase_2,stop,100.0,200.0,4.0,,,,,,,,,orange,I
0.0,4.0,4.0,0.0,6.0,6.0,429.036038999584,3.0,1.0,phase_2,go,100.0,250.0,1.0,,,,,,,,,magenta,circle
0.0,6.0,2.0,1.0,5.0,0.0,0.0,3.0,1.0,phase_2,stop,100.0,250.0,4.0,,,,,,,,,orange,I
0.0,5.0,1.0,1.0,6.0,6.0,307.5792680001541,3.0,1.0,phase_2,stop,150.0,250.0,3.0,,,,,,,,,cyan,square
0.0,4.0,4.0,0.0,5.0,5.0,351.0451639995153,3.0,1.0,phase_2,go,150.0,200.0,1.0,,,,,,,,,magenta,circle
0.0,3.0,3.0,0.0,6.0,6.0,416.0728899996684,3.0,1.0,phase_2,go,150.0,200.0,1.0,,,,,,,,,gray,flipped triangle
0.0,4.0,4.0,0.0,6.0,6.0,523.4101320002083,3.0,1.0,phase_2,go,150.0,200.0,1.0,,,,,,,,,magenta,circle
0.0,6.0,2.0,1.0,6.0,0.0,0.0,3.0,1.0,phase_2,stop,150.0,200.0,4.0,,,,,,,,,orange,I
0.0,8.0,4.0,1.0,6.0,6.0,394.8690580000402,3.0,1.0,phase_2,stop,150.0,250.0,3.0,,,,,,,,,green,hexagon
0.0,2.0,2.0,0.0,5.0,5.0,384.8559740008568,3.0,1.0,phase_2,go,150.0,200.0,1.0,,,,,,,,,yellow,triangle
0.0,1.0,1.0,0.0,6.0,6.0,456.816124999932,3.0,1.0,phase_2,go,150.0,200.0,1.0,,,,,,,,,white,diamond
0.0,6.0,2.0,1.0,6.0,0.0,0.0,3.0,1.0,phase_2,stop,150.0,200.0,4.0,,,,,,,,,orange,I
0.0,8.0,4.0,1.0,6.0,6.0,492.8440490002685,3.0,1.0,phase_2,go,150.0,250.0,1.0,,,,,,,,,green,hexagon
0.0,8.0,4.0,1.0,5.0,0.0,0.0,3.0,1.0,phase_2,stop,150.0,250.0,4.0,,,,,,,,,green,hexagon
0.0,1.0,1.0,0.0,6.0,6.0,501.12407800043,3.0,1.0,phase_2,go,200.0,250.0,1.0,,,,,,,,,white,diamond
0.0,8.0,4.0,1.0,5.0,5.0,324.6036629998343,3.0,1.0,phase_2,stop,200.0,250.0,3.0,,,,,,,,,green,hexagon
0.0,4.0,4.0,0.0,6.0,6.0,507.7604340003745,3.0,1.0,phase_2,go,150.0,250.0,1.0,,,,,,,,,magenta,circle
0.0,8.0,4.0,1.0,5.0,5.0,507.726549999461,3.0,1.0,phase_2,go,150.0,250.0,1.0,,,,,,,,,green,hexagon
0.0,7.0,3.0,1.0,6.0,6.0,491.6970840004069,3.0,1.0,phase_2,go,150.0,250.0,1.0,,,,,,,,,blue,cross
0.0,8.0,4.0,1.0,5.0,0.0,0.0,3.0,1.0,phase_2,stop,150.0,250.0,4.0,,,,,,,,,green,hexagon
0.0,2.0,2.0,0.0,5.0,5.0,622.4037539996061,4.0,1.0,phase_2,go,200.0,250.0,1.0,,,,,,,,,yellow,triangle
0.0,8.0,4.0,1.0,6.0,6.0,287.6331039997239,4.0,1.0,phase_2,stop,200.0,250.0,3.0,,,,,,,,,green,hexagon
0.0,2.0,2.0,0.0,5.0,5.0,391.208744999858,4.0,1.0,phase_2,go,200.0,200.0,1.0,,,,,,,,,yellow,triangle
0.0,7.0,3.0,1.0,6.0,0.0,0.0,4.0,1.0,phase_2,stop,200.0,200.0,4.0,,,,,,,,,blue,cross
0.0,3.0,3.0,0.0,6.0,6.0,436.98201299957867,4.0,1.0,phase_2,go,200.0,250.0,1.0,,,,,,,,,gray,flipped triangle
0.0,7.0,3.0,1.0,5.0,0.0,0.0,4.0,1.0,phase_2,stop,200.0,250.0,4.0,,,,,,,,,blue,cross
0.0,8.0,4.0,1.0,6.0,6.0,415.2019260000088,4.0,1.0,phase_2,stop,250.0,250.0,3.0,,,,,,,,,green,hexagon
0.0,4.0,4.0,0.0,6.0,6.0,466.3104139999632,4.0,1.0,phase_2,go,250.0,200.0,1.0,,,,,,,,,magenta,circle
0.0,8.0,4.0,1.0,6.0,0.0,0.0,4.0,1.0,phase_2,stop,250.0,200.0,4.0,,,,,,,,,green,hexagon
0.0,7.0,3.0,1.0,5.0,5.0,510.0818780001646,4.0,1.0,phase_2,go,250.0,250.0,1.0,,,,,,,,,blue,cross
0.0,6.0,2.0,1.0,5.0,5.0,433.4740929998588,4.0,1.0,phase_2,go,250.0,250.0,1.0,,,,,,,,,orange,I
0.0,2.0,2.0,0.0,6.0,6.0,540.87648299992,4.0,1.0,phase_2,go,250.0,250.0,1.0,,,,,,,,,yellow,triangle
0.0,8.0,4.0,1.0,5.0,5.0,529.2906039994705,4.0,1.0,phase_2,go,250.0,250.0,1.0,,,,,,,,,green,hexagon
0.0,8.0,4.0,1.0,6.0,6.0,418.1503159998101,4.0,1.0,phase_2,stop,250.0,250.0,3.0,,,,,,,,,green,hexagon
0.0,2.0,2.0,0.0,6.0,6.0,415.0039250007467,4.0,1.0,phase_2,go,250.0,200.0,1.0,,,,,,,,,yellow,triangle
0.0,7.0,3.0,1.0,5.0,5.0,397.5440139993225,4.0,1.0,phase_2,stop,250.0,200.0,3.0,,,,,,,,,blue,cross
0.0,8.0,4.0,1.0,6.0,6.0,535.2373100004115,4.0,1.0,phase_2,go,200.0,200.0,1.0,,,,,,,,,green,hexagon
0.0,6.0,2.0,1.0,5.0,0.0,0.0,4.0,1.0,phase_2,stop,200.0,200.0,4.0,,,,,,,,,orange,I
0.0,1.0,1.0,0.0,6.0,6.0,566.7587019997882,4.0,1.0,phase_2,go,250.0,200.0,1.0,,,,,,,,,white,diamond
0.0,5.0,1.0,1.0,6.0,6.0,542.7116600003501,4.0,1.0,phase_2,go,250.0,200.0,1.0,,,,,,,,,cyan,square
0.0,4.0,4.0,0.0,6.0,6.0,648.861399999987,4.0,1.0,phase_2,go,250.0,200.0,1.0,,,,,,,,,magenta,circle
0.0,1.0,1.0,0.0,5.0,5.0,705.3219270001136,4.0,1.0,phase_2,go,250.0,200.0,1.0,,,,,,,,,white,diamond
0.0,5.0,1.0,1.0,6.0,6.0,358.0929559993819,4.0,1.0,phase_2,go,250.0,200.0,1.0,,,,,,,,,cyan,square
0.0,5.0,1.0,1.0,5.0,0.0,0.0,4.0,1.0,phase_2,stop,250.0,200.0,4.0,,,,,,,,,cyan,square
0.0,4.0,4.0,0.0,6.0,6.0,340.273304999755,4.0,1.0,phase_2,go,300.0,200.0,1.0,,,,,,,,,magenta,circle
0.0,4.0,4.0,0.0,5.0,5.0,453.0308820003483,4.0,1.0,phase_2,go,300.0,200.0,1.0,,,,,,,,,magenta,circle
0.0,7.0,3.0,1.0,5.0,5.0,377.1769880004285,4.0,1.0,phase_2,stop,300.0,200.0,3.0,,,,,,,,,blue,cross
0.0,5.0,1.0,1.0,6.0,6.0,359.5495270001265,4.0,1.0,phase_2,stop,250.0,200.0,3.0,,,,,,,,,cyan,square
0.0,4.0,4.0,0.0,6.0,6.0,379.3646280000757,4.0,1.0,phase_2,go,250.0,150.0,1.0,,,,,,,,,magenta,circle
0.0,3.0,3.0,0.0,6.0,6.0,623.9661390000037,4.0,1.0,phase_2,go,250.0,150.0,1.0,,,,,,,,,gray,flipped triangle
0.0,3.0,3.0,0.0,5.0,5.0,476.9791159997112,4.0,1.0,phase_2,go,250.0,150.0,1.0,,,,,,,,,gray,flipped triangle
0.0,2.0,2.0,0.0,6.0,6.0,313.8517870002033,4.0,1.0,phase_2,go,250.0,150.0,1.0,,,,,,,,,yellow,triangle
0.0,1.0,1.0,0.0,6.0,6.0,329.12825199946377,4.0,1.0,phase_2,go,250.0,150.0,1.0,,,,,,,,,white,diamond
0.0,6.0,2.0,1.0,6.0,0.0,0.0,4.0,1.0,phase_2,stop,250.0,150.0,4.0,,,,,,,,,orange,I
0.0,3.0,3.0,0.0,5.0,5.0,331.3224680005078,4.0,1.0,phase_2,go,250.0,200.0,1.0,,,,,,,,,gray,flipped triangle
0.0,4.0,4.0,0.0,6.0,6.0,379.1466089996902,4.0,1.0,phase_2,go,250.0,200.0,1.0,,,,,,,,,magenta,circle
0.0,1.0,1.0,0.0,5.0,5.0,548.2380840003316,5.0,1.0,phase_2,go,250.0,200.0,1.0,,,,,,,,,white,diamond
0.0,7.0,3.0,1.0,6.0,0.0,0.0,5.0,1.0,phase_2,stop,250.0,200.0,4.0,,,,,,,,,blue,cross
0.0,4.0,4.0,0.0,5.0,5.0,527.434603999609,5.0,1.0,phase_2,go,250.0,250.0,1.0,,,,,,,,,magenta,circle
0.0,3.0,3.0,0.0,5.0,5.0,521.7720900000131,5.0,1.0,phase_2,go,250.0,250.0,1.0,,,,,,,,,gray,flipped triangle
0.0,7.0,3.0,1.0,6.0,0.0,0.0,5.0,1.0,phase_2,stop,250.0,250.0,4.0,,,,,,,,,blue,cross
0.0,8.0,4.0,1.0,5.0,5.0,333.5204029999659,5.0,1.0,phase_2,go,250.0,300.0,1.0,,,,,,,,,green,hexagon
0.0,7.0,3.0,1.0,6.0,6.0,410.1854240007014,5.0,1.0,phase_2,stop,250.0,300.0,3.0,,,,,,,,,blue,cross
0.0,8.0,4.0,1.0,5.0,0.0,0.0,5.0,1.0,phase_2,stop,250.0,250.0,4.0,,,,,,,,,green,hexagon
0.0,5.0,1.0,1.0,5.0,5.0,486.6168799999286,5.0,1.0,phase_2,go,300.0,250.0,1.0,,,,,,,,,cyan,square
0.0,1.0,1.0,0.0,6.0,6.0,496.9852960002754,5.0,1.0,phase_2,go,300.0,250.0,1.0,,,,,,,,,white,diamond
0.0,7.0,3.0,1.0,6.0,0.0,0.0,5.0,1.0,phase_2,stop,300.0,250.0,4.0,,,,,,,,,blue,cross
0.0,3.0,3.0,0.0,6.0,6.0,374.0055870002834,5.0,1.0,phase_2,go,300.0,300.0,1.0,,,,,,,,,gray,flipped triangle
0.0,3.0,3.0,0.0,5.0,5.0,418.0753840000761,5.0,1.0,phase_2,go,300.0,300.0,1.0,,,,,,,,,gray,flipped triangle
0.0,5.0,1.0,1.0,5.0,0.0,0.0,5.0,1.0,phase_2,stop,300.0,300.0,4.0,,,,,,,,,cyan,square
0.0,8.0,4.0,1.0,6.0,6.0,398.4142389999761,5.0,1.0,phase_2,stop,350.0,300.0,3.0,,,,,,,,,green,hexagon
0.0,8.0,4.0,1.0,6.0,6.0,600.8445289999145,5.0,1.0,phase_2,go,350.0,250.0,1.0,,,,,,,,,green,hexagon
0.0,7.0,3.0,1.0,6.0,0.0,0.0,5.0,1.0,phase_2,stop,350.0,250.0,4.0,,,,,,,,,blue,cross
0.0,4.0,4.0,0.0,6.0,6.0,466.823998000109,5.0,1.0,phase_2,go,350.0,300.0,1.0,,,,,,,,,magenta,circle
0.0,3.0,3.0,0.0,5.0,5.0,800.1233089999005,5.0,1.0,phase_2,go,350.0,300.0,1.0,,,,,,,,,gray,flipped triangle
0.0,3.0,3.0,0.0,5.0,5.0,384.8544029997356,5.0,1.0,phase_2,go,350.0,300.0,1.0,,,,,,,,,gray,flipped triangle
0.0,8.0,4.0,1.0,5.0,0.0,0.0,5.0,1.0,phase_2,stop,350.0,300.0,4.0,,,,,,,,,green,hexagon
0.0,2.0,2.0,0.0,6.0,6.0,435.9281729994109,5.0,1.0,phase_2,go,400.0,300.0,1.0,,,,,,,,,yellow,triangle
0.0,3.0,3.0,0.0,6.0,6.0,472.755397999208,5.0,1.0,phase_2,go,400.0,300.0,1.0,,,,,,,,,gray,flipped triangle
0.0,4.0,4.0,0.0,5.0,5.0,516.1395599998286,5.0,1.0,phase_2,go,400.0,300.0,1.0,,,,,,,,,magenta,circle
0.0,4.0,4.0,0.0,6.0,6.0,333.8134989999162,5.0,1.0,phase_2,go,400.0,300.0,1.0,,,,,,,,,magenta,circle
0.0,6.0,2.0,1.0,5.0,5.0,441.2635429998772,5.0,1.0,phase_2,stop,400.0,300.0,3.0,,,,,,,,,orange,I
0.0,6.0,2.0,1.0,5.0,5.0,505.06319099986285,5.0,1.0,phase_2,go,350.0,300.0,1.0,,,,,,,,,orange,I
0.0,1.0,1.0,0.0,6.0,6.0,453.0421859999478,5.0,1.0,phase_2,go,350.0,300.0,1.0,,,,,,,,,white,diamond
0.0,4.0,4.0,0.0,5.0,5.0,467.4302690000331,5.0,1.0,phase_2,go,350.0,300.0,1.0,,,,,,,,,magenta,circle
0.0,4.0,4.0,0.0,6.0,6.0,389.5865119993686,5.0,1.0,phase_2,go,350.0,300.0,1.0,,,,,,,,,magenta,circle
0.0,4.0,4.0,0.0,6.0,6.0,575.7037200000923,5.0,1.0,phase_2,go,350.0,300.0,1.0,,,,,,,,,magenta,circle
0.0,6.0,2.0,1.0,5.0,5.0,474.7093040004984,5.0,1.0,phase_2,stop,350.0,300.0,3.0,,,,,,,,,orange,I
0.0,6.0,2.0,1.0,6.0,6.0,510.0702210002055,5.0,1.0,phase_2,go,300.0,300.0,1.0,,,,,,,,,orange,I
0.0,5.0,1.0,1.0,6.0,6.0,471.2970659993516,5.0,1.0,phase_2,go,300.0,300.0,1.0,,,,,,,,,cyan,square
0.0,1.0,1.0,0.0,5.0,5.0,375.7437570002366,5.0,1.0,phase_2,go,300.0,300.0,1.0,,,,,,,,,white,diamond
0.0,2.0,2.0,0.0,5.0,5.0,547.0988669994767,5.0,1.0,phase_2,go,300.0,300.0,1.0,,,,,,,,,yellow,triangle
0.0,5.0,1.0,1.0,6.0,2.0,393.8707979996252,6.0,1.0,phase_2,stop,300.0,300.0,3.0,,,,,,,,,cyan,square
0.0,1.0,1.0,0.0,6.0,2.0,452.8519380000944,6.0,1.0,phase_2,go,300.0,250.0,2.0,,,,,,,,,white,diamond
0.0,7.0,3.0,1.0,6.0,0.0,0.0,6.0,1.0,phase_2,stop,300.0,250.0,4.0,,,,,,,,,blue,cross
0.0,3.0,3.0,0.0,5.0,5.0,372.6860249998935,6.0,1.0,phase_2,go,300.0,300.0,1.0,,,,,,,,,gray,flipped triangle
0.0,7.0,3.0,1.0,6.0,2.0,436.567560000185,6.0,1.0,phase_2,stop,300.0,300.0,3.0,,,,,,,,,blue,cross
0.0,5.0,1.0,1.0,6.0,2.0,354.9125160006952,6.0,1.0,phase_2,stop,300.0,250.0,3.0,,,,,,,,,cyan,square
0.0,2.0,2.0,0.0,6.0,2.0,519.7169640005086,6.0,1.0,phase_2,go,300.0,200.0,2.0,,,,,,,,,yellow,triangle
0.0,4.0,4.0,0.0,6.0,2.0,651.0091569998622,6.0,1.0,phase_2,go,300.0,200.0,2.0,,,,,,,,,magenta,circle
0.0,8.0,4.0,1.0,6.0,6.0,521.6046010000355,6.0,1.0,phase_2,stop,300.0,200.0,3.0,,,,,,,,,green,hexagon
0.0,4.0,4.0,0.0,6.0,6.0,490.9434529999998,6.0,1.0,phase_2,go,300.0,150.0,1.0,,,,,,,,,magenta,circle
0.0,8.0,4.0,1.0,5.0,0.0,0.0,6.0,1.0,phase_2,stop,300.0,150.0,4.0,,,,,,,,,green,hexagon
0.0,4.0,4.0,0.0,6.0,6.0,464.9744950002059,6.0,1.0,phase_2,go,350.0,150.0,1.0,,,,,,,,,magenta,circle
0.0,7.0,3.0,1.0,6.0,0.0,0.0,6.0,1.0,phase_2,stop,350.0,150.0,4.0,,,,,,,,,blue,cross
0.0,4.0,4.0,0.0,5.0,5.0,353.7323050004488,6.0,1.0,phase_2,go,350.0,200.0,1.0,,,,,,,,,magenta,circle
0.0,3.0,3.0,0.0,6.0,6.0,569.4847390004725,6.0,1.0,phase_2,go,350.0,200.0,1.0,,,,,,,,,gray,flipped triangle
0.0,7.0,3.0,1.0,5.0,5.0,551.3430389992209,6.0,1.0,phase_2,go,350.0,200.0,1.0,,,,,,,,,blue,cross
0.0,2.0,2.0,0.0,6.0,6.0,503.07331700059876,6.0,1.0,phase_2,go,350.0,200.0,1.0,,,,,,,,,yellow,triangle
0.0,7.0,3.0,1.0,5.0,0.0,0.0,6.0,1.0,phase_2,stop,350.0,200.0,4.0,,,,,,,,,blue,cross
0.0,5.0,1.0,1.0,5.0,5.0,381.6445140000724,6.0,1.0,phase_2,stop,400.0,200.0,3.0,,,,,,,,,cyan,square
0.0,8.0,4.0,1.0,6.0,6.0,314.0121630003705,6.0,1.0,phase_2,go,350.0,200.0,1.0,,,,,,,,,green,hexagon
0.0,2.0,2.0,0.0,5.0,5.0,393.5932560007131,6.0,1.0,phase_2,go,350.0,200.0,1.0,,,,,,,,,yellow,triangle
0.0,5.0,1.0,1.0,5.0,0.0,0.0,6.0,1.0,phase_2,stop,350.0,200.0,4.0,,,,,,,,,cyan,square
0.0,7.0,3.0,1.0,6.0,6.0,570.4444749999311,6.0,1.0,phase_2,go,400.0,200.0,1.0,,,,,,,,,blue,cross
0.0,7.0,3.0,1.0,5.0,5.0,411.9277159998091,6.0,1.0,phase_2,go,400.0,200.0,1.0,,,,,,,,,blue,cross
0.0,1.0,1.0,0.0,5.0,5.0,429.1710859997693,6.0,1.0,phase_2,go,400.0,200.0,1.0,,,,,,,,,white,diamond
0.0,7.0,3.0,1.0,5.0,5.0,360.3339450000931,6.0,1.0,phase_2,stop,400.0,200.0,3.0,,,,,,,,,blue,cross
0.0,3.0,3.0,0.0,5.0,5.0,591.5430169998217,6.0,1.0,phase_2,go,350.0,200.0,1.0,,,,,,,,,gray,flipped triangle
0.0,2.0,2.0,0.0,5.0,5.0,736.8709430002127,6.0,1.0,phase_2,go,350.0,200.0,1.0,,,,,,,,,yellow,triangle
0.0,1.0,1.0,0.0,5.0,5.0,567.3417540001537,6.0,1.0,phase_2,go,350.0,200.0,1.0,,,,,,,,,white,diamond
0.0,8.0,4.0,1.0,6.0,0.0,0.0,6.0,1.0,phase_2,stop,350.0,200.0,4.0,,,,,,,,,green,hexagon
0.0,6.0,2.0,1.0,5.0,5.0,415.1908020003247,6.0,1.0,phase_2,stop,350.0,250.0,3.0,,,,,,,,,orange,I
0.0,1.0,1.0,0.0,5.0,5.0,522.2095859999172,6.0,1.0,phase_2,go,300.0,250.0,1.0,,,,,,,,,white,diamond
0.0,6.0,2.0,1.0,5.0,0.0,0.0,6.0,1.0,phase_2,stop,300.0,250.0,4.0,,,,,,,,,orange,I
0.0,6.0,2.0,1.0,6.0,6.0,563.3407479999732,6.0,1.0,phase_2,go,350.0,250.0,1.0,,,,,,,,,orange,I
0.0,3.0,3.0,0.0,6.0,6.0,600.8887269999832,6.0,1.0,phase_2,go,350.0,250.0,1.0,,,,,,,,,gray,flipped triangle
0.0,1.0,1.0,0.0,6.0,6.0,716.6531109996868,6.0,1.0,phase_2,go,350.0,250.0,1.0,,,,,,,,,white,diamond
0.0,6.0,2.0,1.0,5.0,5.0,478.7121469998965,7.0,1.0,phase_2,stop,350.0,250.0,3.0,,,,,,,,,orange,I
0.0,6.0,2.0,1.0,6.0,6.0,375.2954230003524,7.0,1.0,phase_2,stop,300.0,250.0,3.0,,,,,,,,,orange,I
0.0,7.0,3.0,1.0,5.0,5.0,435.6150300000081,7.0,1.0,phase_2,stop,300.0,200.0,3.0,,,,,,,,,blue,cross
0.0,5.0,1.0,1.0,6.0,6.0,419.0391739994084,7.0,1.0,phase_2,go,250.0,200.0,1.0,,,,,,,,,cyan,square
0.0,5.0,1.0,1.0,5.0,0.0,0.0,7.0,1.0,phase_2,stop,250.0,200.0,4.0,,,,,,,,,cyan,square
0.0,5.0,1.0,1.0,6.0,0.0,0.0,7.0,1.0,phase_2,stop,300.0,200.0,4.0,,,,,,,,,cyan,square
0.0,3.0,3.0,0.0,5.0,5.0,469.6706459999404,7.0,1.0,phase_2,go,300.0,250.0,1.0,,,,,,,,,gray,flipped triangle
0.0,4.0,4.0,0.0,5.0,5.0,369.00990499998437,7.0,1.0,phase_2,go,300.0,250.0,1.0,,,,,,,,,magenta,circle
0.0,5.0,1.0,1.0,5.0,5.0,773.2456920002733,7.0,1.0,phase_2,go,300.0,250.0,1.0,,,,,,,,,cyan,square
0.0,3.0,3.0,0.0,5.0,5.0,591.5526999997383,7.0,1.0,phase_2,go,300.0,250.0,1.0,,,,,,,,,gray,flipped triangle
0.0,8.0,4.0,1.0,5.0,5.0,608.9883819995521,7.0,1.0,phase_2,go,300.0,250.0,1.0,,,,,,,,,green,hexagon
0.0,7.0,3.0,1.0,6.0,6.0,423.8356099995144,7.0,1.0,phase_2,stop,300.0,250.0,3.0,,,,,,,,,blue,cross
0.0,7.0,3.0,1.0,5.0,5.0,522.4093280003217,7.0,1.0,phase_2,stop,300.0,200.0,3.0,,,,,,,,,blue,cross
0.0,4.0,4.0,0.0,5.0,5.0,498.9904310004931,7.0,1.0,phase_2,go,250.0,200.0,1.0,,,,,,,,,magenta,circle
0.0,8.0,4.0,1.0,5.0,5.0,533.8594670001839,7.0,1.0,phase_2,go,250.0,200.0,1.0,,,,,,,,,green,hexagon
0.0,1.0,1.0,0.0,5.0,5.0,706.4748289994895,7.0,1.0,phase_2,go,250.0,200.0,1.0,,,,,,,,,white,diamond
0.0,6.0,2.0,1.0,6.0,6.0,584.2125839999426,7.0,1.0,phase_2,go,250.0,200.0,1.0,,,,,,,,,orange,I
0.0,2.0,2.0,0.0,5.0,5.0,566.5529400002924,7.0,1.0,phase_2,go,250.0,200.0,1.0,,,,,,,,,yellow,triangle
0.0,8.0,4.0,1.0,6.0,0.0,0.0,7.0,1.0,phase_2,stop,250.0,200.0,4.0,,,,,,,,,green,hexagon
0.0,1.0,1.0,0.0,6.0,6.0,491.0412899998846,7.0,1.0,phase_2,go,250.0,250.0,1.0,,,,,,,,,white,diamond
0.0,2.0,2.0,0.0,6.0,6.0,622.8507409996382,7.0,1.0,phase_2,go,250.0,250.0,1.0,,,,,,,,,yellow,triangle
0.0,2.0,2.0,0.0,5.0,5.0,609.6456980003495,7.0,1.0,phase_2,go,250.0,250.0,1.0,,,,,,,,,yellow,triangle
0.0,8.0,4.0,1.0,5.0,0.0,0.0,7.0,1.0,phase_2,stop,250.0,250.0,4.0,,,,,,,,,green,hexagon
0.0,7.0,3.0,1.0,6.0,0.0,0.0,7.0,1.0,phase_2,stop,300.0,250.0,4.0,,,,,,,,,blue,cross
0.0,5.0,1.0,1.0,6.0,0.0,0.0,7.0,1.0,phase_2,stop,300.0,300.0,4.0,,,,,,,,,cyan,square
0.0,2.0,2.0,0.0,6.0,6.0,606.2132800007021,7.0,1.0,phase_2,go,300.0,350.0,1.0,,,,,,,,,yellow,triangle
0.0,4.0,4.0,0.0,6.0,6.0,816.1295399995652,7.0,1.0,phase_2,go,300.0,350.0,1.0,,,,,,,,,magenta,circle
0.0,3.0,3.0,0.0,5.0,5.0,368.0575139997017,7.0,1.0,phase_2,go,300.0,350.0,1.0,,,,,,,,,gray,flipped triangle
0.0,1.0,1.0,0.0,6.0,6.0,626.8713609997576,7.0,1.0,phase_2,go,300.0,350.0,1.0,,,,,,,,,white,diamond
0.0,5.0,1.0,1.0,5.0,0.0,0.0,7.0,1.0,phase_2,stop,300.0,350.0,4.0,,,,,,,,,cyan,square
0.0,3.0,3.0,0.0,6.0,6.0,459.4611739994434,7.0,1.0,phase_2,go,350.0,350.0,1.0,,,,,,,,,gray,flipped triangle
0.0,5.0,1.0,1.0,5.0,0.0,0.0,7.0,1.0,phase_2,stop,350.0,350.0,4.0,,,,,,,,,cyan,square
0.0,2.0,2.0,0.0,6.0,6.0,444.436830000086,7.0,1.0,phase_2,go,400.0,350.0,1.0,,,,,,,,,yellow,triangle
0.0,3.0,3.0,0.0,6.0,6.0,588.5843619998923,7.0,1.0,phase_2,go,400.0,350.0,1.0,,,,,,,,,gray,flipped triangle
0.0,3.0,3.0,0.0,6.0,6.0,471.4058660001683,7.0,1.0,phase_2,go,400.0,350.0,1.0,,,,,,,,,gray,flipped triangle
0.0,5.0,1.0,1.0,6.0,6.0,493.3547600003294,7.0,1.0,phase_2,go,400.0,350.0,1.0,,,,,,,,,cyan,square
0.0,7.0,3.0,1.0,5.0,5.0,432.8349589995923,8.0,1.0,phase_2,stop,400.0,350.0,3.0,,,,,,,,,blue,cross
0.0,4.0,4.0,0.0,5.0,5.0,548.7144689996057,8.0,1.0,phase_2,go,350.0,350.0,1.0,,,,,,,,,magenta,circle
0.0,6.0,2.0,1.0,6.0,6.0,400.8771110002271,8.0,1.0,phase_2,go,350.0,350.0,1.0,,,,,,,,,orange,I
0.0,2.0,2.0,0.0,5.0,5.0,599.5578749998458,8.0,1.0,phase_2,go,350.0,350.0,1.0,,,,,,,,,yellow,triangle
0.0,7.0,3.0,1.0,6.0,6.0,529.2509920000157,8.0,1.0,phase_2,go,350.0,350.0,1.0,,,,,,,,,blue,cross
0.0,6.0,2.0,1.0,6.0,6.0,421.07466199922777,8.0,1.0,phase_2,stop,350.0,350.0,3.0,,,,,,,,,orange,I
0.0,3.0,3.0,0.0,6.0,6.0,504.8782379999466,8.0,1.0,phase_2,go,350.0,300.0,1.0,,,,,,,,,gray,flipped triangle
0.0,1.0,1.0,0.0,6.0,6.0,572.2300420002284,8.0,1.0,phase_2,go,350.0,300.0,1.0,,,,,,,,,white,diamond
0.0,4.0,4.0,0.0,5.0,5.0,595.7923770001798,8.0,1.0,phase_2,go,350.0,300.0,1.0,,,,,,,,,magenta,circle
0.0,6.0,2.0,1.0,5.0,5.0,595.6494660003955,8.0,1.0,phase_2,go,350.0,300.0,1.0,,,,,,,,,orange,I
0.0,8.0,4.0,1.0,6.0,6.0,380.6641350001882,8.0,1.0,phase_2,stop,350.0,300.0,3.0,,,,,,,,,green,hexagon
0.0,8.0,4.0,1.0,6.0,0.0,0.0,8.0,1.0,phase_2,stop,350.0,250.0,4.0,,,,,,,,,green,hexagon
0.0,2.0,2.0,0.0,5.0,5.0,498.483393999777,8.0,1.0,phase_2,go,350.0,300.0,1.0,,,,,,,,,yellow,triangle
0.0,8.0,4.0,1.0,5.0,5.0,467.7465400000073,8.0,1.0,phase_2,stop,350.0,300.0,3.0,,,,,,,,,green,hexagon
0.0,6.0,2.0,1.0,5.0,0.0,0.0,8.0,1.0,phase_2,stop,300.0,300.0,4.0,,,,,,,,,orange,I
0.0,3.0,3.0,0.0,6.0,6.0,754.7246550002455,8.0,1.0,phase_2,go,350.0,300.0,1.0,,,,,,,,,gray,flipped triangle
0.0,8.0,4.0,1.0,5.0,0.0,0.0,8.0,1.0,phase_2,stop,350.0,300.0,4.0,,,,,,,,,green,hexagon
0.0,8.0,4.0,1.0,5.0,0.0,0.0,8.0,1.0,phase_2,stop,400.0,300.0,4.0,,,,,,,,,green,hexagon
0.0,3.0,3.0,0.0,5.0,5.0,837.3892160007017,8.0,1.0,phase_2,go,450.0,300.0,1.0,,,,,,,,,gray,flipped triangle
0.0,1.0,1.0,0.0,5.0,5.0,652.5949919996492,8.0,1.0,phase_2,go,450.0,300.0,1.0,,,,,,,,,white,diamond
0.0,8.0,4.0,1.0,6.0,6.0,436.4658380000037,8.0,1.0,phase_2,stop,450.0,300.0,3.0,,,,,,,,,green,hexagon
0.0,1.0,1.0,0.0,6.0,6.0,527.1737599996413,8.0,1.0,phase_2,go,450.0,250.0,1.0,,,,,,,,,white,diamond
0.0,5.0,1.0,1.0,5.0,0.0,0.0,8.0,1.0,phase_2,stop,450.0,250.0,4.0,,,,,,,,,cyan,square
0.0,3.0,3.0,0.0,6.0,6.0,496.1040440002762,8.0,1.0,phase_2,go,500.0,250.0,1.0,,,,,,,,,gray,flipped triangle
0.0,3.0,3.0,0.0,6.0,6.0,367.4165129996254,8.0,1.0,phase_2,go,500.0,250.0,1.0,,,,,,,,,gray,flipped triangle
0.0,2.0,2.0,0.0,5.0,5.0,474.0462740001021,8.0,1.0,phase_2,go,500.0,250.0,1.0,,,,,,,,,yellow,triangle
0.0,5.0,1.0,1.0,5.0,5.0,413.4617409999919,8.0,1.0,phase_2,stop,500.0,250.0,3.0,,,,,,,,,cyan,square
0.0,5.0,1.0,1.0,5.0,5.0,560.8509319999939,8.0,1.0,phase_2,stop,450.0,250.0,3.0,,,,,,,,,cyan,square
0.0,5.0,1.0,1.0,6.0,0.0,0.0,8.0,1.0,phase_2,stop,400.0,250.0,4.0,,,,,,,,,cyan,square
0.0,4.0,4.0,0.0,5.0,5.0,581.891259999793,8.0,1.0,phase_2,go,400.0,300.0,1.0,,,,,,,,,magenta,circle
0.0,1.0,1.0,0.0,5.0,5.0,573.6176199998226,8.0,1.0,phase_2,go,400.0,300.0,1.0,,,,,,,,,white,diamond
0.0,3.0,3.0,0.0,6.0,6.0,437.5069830002758,8.0,1.0,phase_2,go,400.0,300.0,1.0,,,,,,,,,gray,flipped triangle
0.0,6.0,2.0,1.0,6.0,6.0,448.4787539995523,8.0,1.0,phase_2,stop,400.0,300.0,3.0,,,,,,,,,orange,I
0.0,3.0,3.0,0.0,6.0,6.0,510.3380790005758,8.0,1.0,phase_2,go,400.0,250.0,1.0,,,,,,,,,gray,flipped triangle
0.0,5.0,1.0,1.0,6.0,0.0,0.0,8.0,1.0,phase_2,stop,400.0,250.0,4.0,,,,,,,,,cyan,square
0.0,1.0,1.0,0.0,5.0,5.0,729.2292590000216,8.0,1.0,phase_2,go,400.0,300.0,1.0,,,,,,,,,white,diamond
0.0,3.0,3.0,0.0,7.0,3.0,3231.166114000189,1.0,1.0,phase_3,,,,,156.0,4.0,117.0,234.0,156.0,78.0,39.0,195.0,gray,flipped triangle
0.0,3.0,3.0,0.0,7.0,6.0,3389.216479999959,1.0,1.0,phase_3,,,,,54.0,1.0,108.0,162.0,270.0,324.0,216.0,54.0,gray,flipped triangle
0.0,4.0,4.0,0.0,7.0,6.0,3107.796949000658,1.0,1.0,phase_3,,,,,294.0,6.0,49.0,245.0,98.0,196.0,147.0,294.0,magenta,circle
0.0,7.0,3.0,1.0,7.0,1.0,1452.465049999773,1.0,1.0,phase_3,,,,,196.0,4.0,196.0,294.0,245.0,98.0,49.0,147.0,blue,cross
0.0,5.0,1.0,1.0,7.0,2.0,1291.72587299945,1.0,1.0,phase_3,,,,,44.0,1.0,220.0,44.0,176.0,88.0,264.0,132.0,cyan,square
0.0,6.0,2.0,1.0,7.0,5.0,1617.4391160002417,1.0,1.0,phase_3,,,,,147.0,3.0,294.0,196.0,49.0,98.0,147.0,245.0,orange,I
0.0,1.0,1.0,0.0,7.0,3.0,1716.5696019992538,1.0,1.0,phase_3,,,,,117.0,3.0,39.0,156.0,117.0,78.0,195.0,234.0,white,diamond
0.0,8.0,4.0,1.0,7.0,4.0,2602.9948010000226,1.0,1.0,phase_3,,,,,264.0,6.0,176.0,220.0,88.0,264.0,44.0,132.0,green,hexagon
0.0,6.0,2.0,1.0,7.0,6.0,1474.218997999742,1.0,1.0,phase_3,,,,,176.0,4.0,132.0,88.0,264.0,44.0,220.0,176.0,orange,I
0.0,7.0,3.0,1.0,7.0,1.0,2797.2923429997536,1.0,1.0,phase_3,,,,,162.0,3.0,162.0,270.0,216.0,108.0,54.0,324.0,blue,cross
0.0,7.0,3.0,1.0,7.0,6.0,2105.8511420005743,1.0,1.0,phase_3,,,,,132.0,3.0,264.0,220.0,176.0,44.0,88.0,132.0,blue,cross
0.0,8.0,4.0,1.0,7.0,6.0,1985.193364999759,1.0,1.0,phase_3,,,,,204.0,6.0,136.0,68.0,34.0,102.0,170.0,204.0,green,hexagon
0.0,7.0,3.0,1.0,7.0,6.0,2315.2931000004173,1.0,1.0,phase_3,,,,,132.0,3.0,264.0,176.0,44.0,88.0,220.0,132.0,blue,cross
0.0,4.0,4.0,0.0,7.0,1.0,2030.776612000409,1.0,1.0,phase_3,,,,,264.0,6.0,264.0,220.0,44.0,132.0,88.0,176.0,magenta,circle
0.0,2.0,2.0,0.0,7.0,5.0,1841.169481000179,1.0,1.0,phase_3,,,,,68.0,2.0,102.0,170.0,34.0,136.0,68.0,204.0,yellow,triangle
0.0,3.0,3.0,0.0,7.0,1.0,2502.6635300000635,1.0,1.0,phase_3,,,,,68.0,2.0,68.0,34.0,204.0,136.0,170.0,102.0,gray,flipped triangle
0.0,8.0,4.0,1.0,7.0,3.0,2489.744370000153,1.0,1.0,phase_3,,,,,264.0,6.0,176.0,220.0,264.0,132.0,44.0,88.0,green,hexagon
0.0,2.0,2.0,0.0,7.0,1.0,2025.1875710000604,1.0,1.0,phase_3,,,,,98.0,2.0,98.0,245.0,147.0,49.0,196.0,294.0,yellow,triangle
0.0,4.0,4.0,0.0,7.0,4.0,1902.1390940006315,1.0,1.0,phase_3,,,,,324.0,6.0,54.0,216.0,162.0,324.0,270.0,108.0,magenta,circle
0.0,2.0,2.0,0.0,7.0,3.0,2068.801176999841,1.0,1.0,phase_3,,,,,78.0,2.0,39.0,234.0,78.0,117.0,156.0,195.0,yellow,triangle
0.0,8.0,4.0,1.0,7.0,5.0,1418.7318960002813,2.0,1.0,phase_3,,,,,294.0,6.0,98.0,245.0,49.0,147.0,294.0,196.0,green,hexagon
0.0,2.0,2.0,0.0,7.0,2.0,1938.170639999953,2.0,1.0,phase_3,,,,,78.0,2.0,156.0,78.0,117.0,234.0,195.0,39.0,yellow,triangle
0.0,7.0,3.0,1.0,7.0,5.0,1534.723125999335,2.0,1.0,phase_3,,,,,156.0,4.0,117.0,195.0,78.0,234.0,156.0,39.0,blue,cross
0.0,3.0,3.0,0.0,7.0,2.0,1728.9108559998567,2.0,1.0,phase_3,,,,,220.0,5.0,264.0,220.0,44.0,176.0,132.0,88.0,gray,flipped triangle
0.0,3.0,3.0,0.0,7.0,6.0,1230.2449970002272,2.0,1.0,phase_3,,,,,44.0,1.0,264.0,88.0,220.0,132.0,176.0,44.0,gray,flipped triangle
0.0,2.0,2.0,0.0,7.0,4.0,2552.098544000728,2.0,1.0,phase_3,,,,,54.0,1.0,324.0,162.0,108.0,54.0,270.0,216.0,yellow,triangle
0.0,1.0,1.0,0.0,7.0,3.0,2294.1774720002286,2.0,1.0,phase_3,,,,,54.0,1.0,108.0,270.0,54.0,216.0,162.0,324.0,white,diamond
0.0,3.0,3.0,0.0,7.0,2.0,1457.8477040004143,2.0,1.0,phase_3,,,,,68.0,2.0,136.0,68.0,204.0,34.0,170.0,102.0,gray,flipped triangle
0.0,6.0,2.0,1.0,7.0,3.0,1949.9566169997704,2.0,1.0,phase_3,,,,,195.0,5.0,78.0,39.0,195.0,117.0,234.0,156.0,orange,I
0.0,7.0,3.0,1.0,7.0,5.0,3069.378819000121,2.0,1.0,phase_3,,,,,170.0,5.0,102.0,204.0,136.0,34.0,170.0,68.0,blue,cross
0.0,8.0,4.0,1.0,7.0,1.0,2035.634945999845,2.0,1.0,phase_3,,,,,294.0,6.0,294.0,49.0,196.0,245.0,98.0,147.0,green,hexagon
0.0,6.0,2.0,1.0,7.0,2.0,2071.329944000354,2.0,1.0,phase_3,,,,,132.0,3.0,44.0,132.0,264.0,176.0,220.0,88.0,orange,I
0.0,1.0,1.0,0.0,7.0,3.0,1717.9103589996885,2.0,1.0,phase_3,,,,,68.0,2.0,136.0,34.0,68.0,102.0,204.0,170.0,white,diamond
0.0,1.0,1.0,0.0,7.0,3.0,1098.091442999248,2.0,1.0,phase_3,,,,,98.0,2.0,245.0,49.0,98.0,294.0,196.0,147.0,white,diamond
0.0,4.0,4.0,0.0,7.0,3.0,1823.138304999702,2.0,1.0,phase_3,,,,,294.0,6.0,245.0,196.0,294.0,98.0,147.0,49.0,magenta,circle
0.0,8.0,4.0,1.0,7.0,2.0,1180.4329309998138,2.0,1.0,phase_3,,,,,270.0,5.0,108.0,270.0,162.0,324.0,54.0,216.0,green,hexagon
0.0,5.0,1.0,1.0,7.0,3.0,1613.5672390000764,2.0,1.0,phase_3,,,,,49.0,1.0,294.0,245.0,49.0,196.0,98.0,147.0,cyan,square
0.0,1.0,1.0,0.0,7.0,1.0,1092.5565730003657,2.0,1.0,phase_3,,,,,88.0,2.0,88.0,132.0,176.0,220.0,264.0,44.0,white,diamond
0.0,6.0,2.0,1.0,7.0,3.0,2215.107421000539,2.0,1.0,phase_3,,,,,108.0,2.0,270.0,324.0,108.0,216.0,162.0,54.0,orange,I
0.0,2.0,2.0,0.0,7.0,2.0,2199.259807000089,2.0,1.0,phase_3,,,,,108.0,2.0,270.0,108.0,324.0,216.0,162.0,54.0,yellow,triangle
0.0,5.0,1.0,1.0,7.0,6.0,1233.143057000234,3.0,1.0,phase_3,,,,,68.0,2.0,102.0,136.0,170.0,204.0,34.0,68.0,cyan,square
0.0,1.0,1.0,0.0,7.0,2.0,1529.7426140004973,3.0,1.0,phase_3,,,,,54.0,1.0,270.0,54.0,216.0,108.0,324.0,162.0,white,diamond
0.0,4.0,4.0,0.0,7.0,3.0,1959.1915970004263,3.0,1.0,phase_3,,,,,324.0,6.0,162.0,216.0,324.0,54.0,270.0,108.0,magenta,circle
0.0,5.0,1.0,1.0,7.0,1.0,1714.6345230003135,3.0,1.0,phase_3,,,,,39.0,1.0,39.0,117.0,195.0,156.0,78.0,234.0,cyan,square
0.0,5.0,1.0,1.0,7.0,1.0,946.3859719999164,3.0,1.0,phase_3,,,,,68.0,2.0,68.0,102.0,136.0,34.0,204.0,170.0,cyan,square
0.0,2.0,2.0,0.0,7.0,4.0,1461.8276470000635,3.0,1.0,phase_3,,,,,88.0,2.0,176.0,132.0,220.0,88.0,44.0,264.0,yellow,triangle
0.0,4.0,4.0,0.0,7.0,2.0,2006.2843760006217,3.0,1.0,phase_3,,,,,204.0,6.0,136.0,204.0,102.0,34.0,170.0,68.0,magenta,circle
0.0,5.0,1.0,1.0,7.0,3.0,1449.9829699998372,3.0,1.0,phase_3,,,,,39.0,1.0,156.0,234.0,39.0,78.0,117.0,195.0,cyan,square
0.0,7.0,3.0,1.0,7.0,2.0,2939.7850079994896,3.0,1.0,phase_3,,,,,156.0,4.0,117.0,156.0,39.0,78.0,195.0,234.0,blue,cross
0.0,8.0,4.0,1.0,7.0,5.0,1104.567739000231,3.0,1.0,phase_3,,,,,234.0,6.0,78.0,117.0,195.0,156.0,234.0,39.0,green,hexagon
0.0,8.0,4.0,1.0,7.0,6.0,2056.955823999488,3.0,1.0,phase_3,,,,,204.0,6.0,170.0,68.0,102.0,34.0,136.0,204.0,green,hexagon
0.0,5.0,1.0,1.0,7.0,1.0,1003.5615070000858,3.0,1.0,phase_3,,,,,54.0,1.0,54.0,216.0,324.0,270.0,108.0,162.0,cyan,square
0.0,4.0,4.0,0.0,7.0,3.0,2288.600083999881,3.0,1.0,phase_3,,,,,234.0,6.0,78.0,117.0,234.0,195.0,39.0,156.0,magenta,circle
0.0,7.0,3.0,1.0,7.0,2.0,1571.232432000215,3.0,1.0,phase_3,,,,,147.0,3.0,49.0,147.0,245.0,196.0,294.0,98.0,blue,cross
0.0,2.0,2.0,0.0,7.0,4.0,2602.1354290005547,3.0,1.0,phase_3,,,,,132.0,3.0,44.0,88.0,176.0,132.0,220.0,264.0,yellow,triangle
0.0,1.0,1.0,0.0,7.0,3.0,1601.9268390000434,3.0,1.0,phase_3,,,,,68.0,2.0,204.0,136.0,68.0,34.0,102.0,170.0,white,diamond
0.0,8.0,4.0,1.0,7.0,2.0,1377.6410399996166,3.0,1.0,phase_3,,,,,234.0,6.0,39.0,234.0,156.0,78.0,117.0,195.0,green,hexagon
0.0,4.0,4.0,0.0,7.0,5.0,1218.1816259999323,3.0,1.0,phase_3,,,,,204.0,6.0,34.0,170.0,68.0,102.0,204.0,136.0,magenta,circle
0.0,1.0,1.0,0.0,7.0,1.0,1075.4343110002085,3.0,1.0,phase_3,,,,,78.0,2.0,78.0,156.0,117.0,195.0,39.0,234.0,white,diamond
0.0,7.0,3.0,1.0,7.0,5.0,2563.636092999332,3.0,1.0,phase_3,,,,,270.0,5.0,324.0,54.0,108.0,162.0,270.0,216.0,blue,cross
0.0,3.0,3.0,0.0,7.0,5.0,1383.5590110002158,4.0,1.0,phase_3,,,,,49.0,1.0,245.0,196.0,294.0,98.0,49.0,147.0,gray,flipped triangle
0.0,4.0,4.0,0.0,7.0,4.0,1509.0881259993694,4.0,1.0,phase_3,,,,,234.0,6.0,156.0,78.0,195.0,234.0,117.0,39.0,magenta,circle
0.0,1.0,1.0,0.0,7.0,3.0,1193.9277430001312,4.0,1.0,phase_3,,,,,88.0,2.0,176.0,220.0,88.0,44.0,264.0,132.0,white,diamond
0.0,3.0,3.0,0.0,7.0,6.0,1662.9774310003995,4.0,1.0,phase_3,,,,,54.0,1.0,108.0,216.0,324.0,270.0,162.0,54.0,gray,flipped triangle
0.0,3.0,3.0,0.0,7.0,1.0,1048.826092000127,4.0,1.0,phase_3,,,,,49.0,1.0,49.0,147.0,245.0,196.0,98.0,294.0,gray,flipped triangle
0.0,4.0,4.0,0.0,7.0,1.0,1668.5608550005782,4.0,1.0,phase_3,,,,,264.0,6.0,264.0,132.0,220.0,176.0,88.0,44.0,magenta,circle
0.0,1.0,1.0,0.0,7.0,6.0,2505.6521249998696,4.0,1.0,phase_3,,,,,98.0,2.0,196.0,245.0,147.0,49.0,294.0,98.0,white,diamond
0.0,2.0,2.0,0.0,7.0,6.0,3124.972693999553,4.0,1.0,phase_3,,,,,102.0,3.0,68.0,34.0,204.0,170.0,136.0,102.0,yellow,triangle
0.0,2.0,2.0,0.0,7.0,2.0,827.6897519999693,4.0,1.0,phase_3,,,,,49.0,1.0,196.0,49.0,294.0,147.0,245.0,98.0,yellow,triangle
0.0,5.0,1.0,1.0,7.0,6.0,1296.302038000249,4.0,1.0,phase_3,,,,,44.0,1.0,220.0,88.0,176.0,264.0,132.0,44.0,cyan,square
0.0,5.0,1.0,1.0,7.0,2.0,1168.5750870001357,4.0,1.0,phase_3,,,,,49.0,1.0,245.0,49.0,98.0,147.0,294.0,196.0,cyan,square
0.0,6.0,2.0,1.0,7.0,5.0,1799.4562750000114,4.0,1.0,phase_3,,,,,147.0,3.0,294.0,196.0,245.0,49.0,147.0,98.0,orange,I
0.0,8.0,4.0,1.0,7.0,1.0,1341.526127999714,4.0,1.0,phase_3,,,,,324.0,6.0,324.0,162.0,54.0,270.0,108.0,216.0,green,hexagon
0.0,6.0,2.0,1.0,7.0,4.0,2179.944061000242,4.0,1.0,phase_3,,,,,170.0,5.0,34.0,102.0,204.0,170.0,136.0,68.0,orange,I
0.0,5.0,1.0,1.0,7.0,6.0,1763.4449489996769,4.0,1.0,phase_3,,,,,54.0,1.0,324.0,162.0,270.0,108.0,216.0,54.0,cyan,square
0.0,6.0,2.0,1.0,7.0,2.0,1654.6928549996665,4.0,1.0,phase_3,,,,,162.0,3.0,108.0,162.0,324.0,54.0,270.0,216.0,orange,I
0.0,6.0,2.0,1.0,7.0,5.0,1679.2624839999917,4.0,1.0,phase_3,,,,,117.0,3.0,195.0,156.0,234.0,78.0,117.0,39.0,orange,I
0.0,3.0,3.0,0.0,7.0,3.0,1687.2369709999475,4.0,1.0,phase_3,,,,,39.0,1.0,117.0,195.0,39.0,234.0,156.0,78.0,gray,flipped triangle
0.0,6.0,2.0,1.0,7.0,3.0,2676.7299080001976,4.0,1.0,phase_3,,,,,136.0,4.0,102.0,34.0,136.0,170.0,204.0,68.0,orange,I
0.0,7.0,3.0,1.0,7.0,4.0,3152.4979050000184,4.0,1.0,phase_3,,,,,136.0,4.0,170.0,102.0,34.0,136.0,68.0,204.0,blue,cross
