raw_reward_magnitude,stim_reward,stepwise_reward_magnitude,paired_with_stopping,quadrant,response,reaction_time,block,num_trial_presentations,which_part,stop_signal_trial_type,left_SSD,right_SSD,accuracy,chosen_bidding_amount,chosen_bidding_level,possible_bid_1,possible_bid_2,possible_bid_3,possible_bid_4,possible_bid_5,possible_bid_6,color_text,shape_text
394.0,4.0,4.0,0.0,1.0,1.0,650.4035230000227,1.0,1.0,part_1,,,,,,,,,,,,,green,square
396.0,4.0,4.0,0.0,2.0,2.0,437.4405529997602,1.0,1.0,part_1,,,,,,,,,,,,,green,square
218.0,3.0,3.0,0.0,4.0,4.0,623.9339829999153,1.0,1.0,part_1,,,,,,,,,,,,,gray,triangle
27.0,5.0,1.0,1.0,3.0,3.0,580.432447000021,1.0,1.0,part_1,,,,,,,,,,,,,blue,I
184.0,7.0,3.0,1.0,2.0,2.0,412.3482790000707,1.0,1.0,part_1,,,,,,,,,,,,,white,hexagon
66.0,5.0,1.0,1.0,3.0,3.0,556.45970400019,1.0,1.0,part_1,,,,,,,,,,,,,blue,I
52.0,5.0,1.0,1.0,1.0,1.0,738.2065149995469,1.0,1.0,part_1,,,,,,,,,,,,,blue,I
218.0,7.0,3.0,1.0,1.0,1.0,517.8441800007931,1.0,1.0,part_1,,,,,,,,,,,,,white,hexagon
0.0,3.0,0.0,0.0,3.0,3.0,455.6754109999019,1.0,1.0,part_1,,,,,,,,,,,,,gray,triangle
51.0,5.0,1.0,1.0,2.0,2.0,368.5516539999298,1.0,1.0,part_1,,,,,,,,,,,,,blue,I
124.0,2.0,2.0,0.0,4.0,4.0,341.306622999582,1.0,1.0,part_1,,,,,,,,,,,,,orange,flipped triangle
0.0,7.0,0.0,1.0,2.0,2.0,361.6954459994304,1.0,1.0,part_1,,,,,,,,,,,,,white,hexagon
385.0,8.0,4.0,1.0,4.0,4.0,475.1204270005473,1.0,1.0,part_1,,,,,,,,,,,,,yellow,circle
415.0,4.0,4.0,0.0,2.0,2.0,439.0347620001193,1.0,1.0,part_1,,,,,,,,,,,,,green,square
405.0,8.0,4.0,1.0,3.0,3.0,275.0564710004255,1.0,1.0,part_1,,,,,,,,,,,,,yellow,circle
0.0,2.0,0.0,0.0,2.0,2.0,329.2838580000534,1.0,1.0,part_1,,,,,,,,,,,,,orange,flipped triangle
409.0,8.0,4.0,1.0,1.0,1.0,319.6957380005187,1.0,1.0,part_1,,,,,,,,,,,,,yellow,circle
62.0,1.0,1.0,0.0,2.0,2.0,393.7252940004327,1.0,1.0,part_1,,,,,,,,,,,,,cyan,diamond
85.0,2.0,2.0,0.0,4.0,4.0,304.68826500055,1.0,1.0,part_1,,,,,,,,,,,,,orange,flipped triangle
37.0,5.0,1.0,1.0,4.0,4.0,425.7742959998722,1.0,1.0,part_1,,,,,,,,,,,,,blue,I
44.0,5.0,1.0,1.0,4.0,4.0,342.7258739993704,1.0,1.0,part_1,,,,,,,,,,,,,blue,I
0.0,2.0,0.0,0.0,3.0,3.0,308.0389140004627,1.0,1.0,part_1,,,,,,,,,,,,,orange,flipped triangle
37.0,1.0,1.0,0.0,4.0,4.0,402.8711789997032,1.0,1.0,part_1,,,,,,,,,,,,,cyan,diamond
399.0,4.0,4.0,0.0,3.0,3.0,351.2986269997782,1.0,1.0,part_1,,,,,,,,,,,,,green,square
96.0,6.0,2.0,1.0,4.0,4.0,390.5856940000376,1.0,1.0,part_1,,,,,,,,,,,,,magenta,cross
113.0,6.0,2.0,1.0,3.0,3.0,392.5915449999593,1.0,1.0,part_1,,,,,,,,,,,,,magenta,cross
29.0,5.0,1.0,1.0,1.0,1.0,498.6996840007123,1.0,1.0,part_1,,,,,,,,,,,,,blue,I
414.0,8.0,4.0,1.0,1.0,1.0,280.1079250002658,1.0,1.0,part_1,,,,,,,,,,,,,yellow,circle
199.0,7.0,3.0,1.0,3.0,3.0,349.0962470004888,1.0,1.0,part_1,,,,,,,,,,,,,white,hexagon
191.0,3.0,3.0,0.0,3.0,3.0,355.3517059999649,1.0,1.0,part_1,,,,,,,,,,,,,gray,triangle
403.0,4.0,4.0,0.0,1.0,1.0,539.0036310000141,1.0,1.0,part_1,,,,,,,,,,,,,green,square
0.0,1.0,0.0,0.0,4.0,4.0,414.489599999797,1.0,1.0,part_1,,,,,,,,,,,,,cyan,diamond
57.0,5.0,1.0,1.0,1.0,1.0,439.9772770002528,1.0,1.0,part_1,,,,,,,,,,,,,blue,I
75.0,6.0,2.0,1.0,4.0,4.0,456.3578190000044,1.0,1.0,part_1,,,,,,,,,,,,,magenta,cross
0.0,8.0,0.0,1.0,4.0,4.0,383.3095489999323,1.0,1.0,part_1,,,,,,,,,,,,,yellow,circle
42.0,5.0,1.0,1.0,2.0,2.0,312.8195040007995,1.0,1.0,part_1,,,,,,,,,,,,,blue,I
0.0,1.0,0.0,0.0,2.0,2.0,424.0970860000743,1.0,1.0,part_1,,,,,,,,,,,,,cyan,diamond
0.0,2.0,0.0,0.0,2.0,2.0,404.8147789999348,1.0,1.0,part_1,,,,,,,,,,,,,orange,flipped triangle
59.0,1.0,1.0,0.0,3.0,3.0,364.9402559994996,1.0,1.0,part_1,,,,,,,,,,,,,cyan,diamond
183.0,7.0,3.0,1.0,4.0,4.0,381.8783999995503,1.0,1.0,part_1,,,,,,,,,,,,,white,hexagon
222.0,7.0,3.0,1.0,4.0,4.0,393.8628599998992,1.0,1.0,part_1,,,,,,,,,,,,,white,hexagon
28.0,5.0,1.0,1.0,3.0,3.0,442.5343080001767,1.0,1.0,part_1,,,,,,,,,,,,,blue,I
184.0,3.0,3.0,0.0,3.0,3.0,375.4746940003315,1.0,1.0,part_1,,,,,,,,,,,,,gray,triangle
76.0,6.0,2.0,1.0,1.0,1.0,372.8326159998687,1.0,1.0,part_1,,,,,,,,,,,,,magenta,cross
176.0,3.0,3.0,0.0,2.0,2.0,359.4587440002215,1.0,1.0,part_1,,,,,,,,,,,,,gray,triangle
192.0,7.0,3.0,1.0,3.0,3.0,262.0556899992152,1.0,1.0,part_1,,,,,,,,,,,,,white,hexagon
413.0,4.0,4.0,0.0,4.0,4.0,412.0207500000106,1.0,1.0,part_1,,,,,,,,,,,,,green,square
120.0,6.0,2.0,1.0,1.0,1.0,483.2273550000536,1.0,1.0,part_1,,,,,,,,,,,,,magenta,cross
188.0,3.0,3.0,0.0,4.0,4.0,420.6219190000411,1.0,1.0,part_1,,,,,,,,,,,,,gray,triangle
86.0,6.0,2.0,1.0,3.0,3.0,400.1878979997855,1.0,1.0,part_1,,,,,,,,,,,,,magenta,cross
223.0,3.0,3.0,0.0,2.0,2.0,350.5886620005185,1.0,1.0,part_1,,,,,,,,,,,,,gray,triangle
176.0,3.0,3.0,0.0,2.0,2.0,378.1396119993587,1.0,1.0,part_1,,,,,,,,,,,,,gray,triangle
385.0,4.0,4.0,0.0,1.0,1.0,570.9222140003476,1.0,1.0,part_1,,,,,,,,,,,,,green,square
0.0,6.0,0.0,1.0,2.0,2.0,346.7575869999564,1.0,1.0,part_1,,,,,,,,,,,,,magenta,cross
407.0,4.0,4.0,0.0,3.0,3.0,299.808698000561,1.0,1.0,part_1,,,,,,,,,,,,,green,square
52.0,1.0,1.0,0.0,4.0,4.0,407.9639920000772,1.0,1.0,part_1,,,,,,,,,,,,,cyan,diamond
69.0,5.0,1.0,1.0,4.0,4.0,402.0124130001932,1.0,1.0,part_1,,,,,,,,,,,,,blue,I
43.0,5.0,1.0,1.0,3.0,3.0,319.3815919994449,1.0,1.0,part_1,,,,,,,,,,,,,blue,I
0.0,4.0,0.0,0.0,4.0,4.0,331.3182080000842,1.0,1.0,part_1,,,,,,,,,,,,,green,square
0.0,5.0,0.0,1.0,4.0,4.0,399.7080290000667,1.0,1.0,part_1,,,,,,,,,,,,,blue,I
376.0,8.0,4.0,1.0,4.0,4.0,420.6366999997044,1.0,1.0,part_1,,,,,,,,,,,,,yellow,circle
213.0,7.0,3.0,1.0,2.0,2.0,409.4691679993048,1.0,1.0,part_1,,,,,,,,,,,,,white,hexagon
422.0,4.0,4.0,0.0,4.0,4.0,296.9221230005132,1.0,1.0,part_1,,,,,,,,,,,,,green,square
103.0,6.0,2.0,1.0,2.0,2.0,473.2406840003023,1.0,1.0,part_1,,,,,,,,,,,,,magenta,cross
225.0,3.0,3.0,0.0,2.0,2.0,275.63680700041,1.0,1.0,part_1,,,,,,,,,,,,,gray,triangle
90.0,2.0,2.0,0.0,2.0,2.0,297.9143610000392,1.0,1.0,part_1,,,,,,,,,,,,,orange,flipped triangle
394.0,8.0,4.0,1.0,2.0,2.0,319.2723050005952,1.0,1.0,part_1,,,,,,,,,,,,,yellow,circle
184.0,3.0,3.0,0.0,2.0,2.0,339.526701000068,1.0,1.0,part_1,,,,,,,,,,,,,gray,triangle
203.0,3.0,3.0,0.0,4.0,4.0,432.0355919999201,1.0,1.0,part_1,,,,,,,,,,,,,gray,triangle
207.0,3.0,3.0,0.0,2.0,2.0,310.9426069995606,1.0,1.0,part_1,,,,,,,,,,,,,gray,triangle
407.0,4.0,4.0,0.0,2.0,2.0,425.5400179999924,1.0,1.0,part_1,,,,,,,,,,,,,green,square
84.0,6.0,2.0,1.0,3.0,3.0,302.4032830007854,1.0,1.0,part_1,,,,,,,,,,,,,magenta,cross
60.0,5.0,1.0,1.0,4.0,4.0,492.3624799994286,1.0,1.0,part_1,,,,,,,,,,,,,blue,I
401.0,4.0,4.0,0.0,3.0,3.0,453.5993510007756,1.0,1.0,part_1,,,,,,,,,,,,,green,square
384.0,8.0,4.0,1.0,3.0,3.0,459.1927040000882,1.0,1.0,part_1,,,,,,,,,,,,,yellow,circle
417.0,4.0,4.0,0.0,4.0,4.0,371.586354000101,1.0,1.0,part_1,,,,,,,,,,,,,green,square
79.0,6.0,2.0,1.0,3.0,3.0,305.8200369996484,1.0,1.0,part_1,,,,,,,,,,,,,magenta,cross
0.0,8.0,0.0,1.0,1.0,1.0,363.7096490001568,1.0,1.0,part_1,,,,,,,,,,,,,yellow,circle
43.0,1.0,1.0,0.0,3.0,3.0,417.3524739999266,1.0,1.0,part_1,,,,,,,,,,,,,cyan,diamond
0.0,8.0,0.0,1.0,1.0,1.0,308.7310729997625,1.0,1.0,part_1,,,,,,,,,,,,,yellow,circle
79.0,6.0,2.0,1.0,4.0,4.0,460.8821929996338,1.0,1.0,part_1,,,,,,,,,,,,,magenta,cross
90.0,6.0,2.0,1.0,3.0,3.0,305.7148269999743,1.0,1.0,part_1,,,,,,,,,,,,,magenta,cross
177.0,7.0,3.0,1.0,1.0,1.0,310.2266139994754,1.0,1.0,part_1,,,,,,,,,,,,,white,hexagon
209.0,7.0,3.0,1.0,3.0,3.0,312.1600280001075,1.0,1.0,part_1,,,,,,,,,,,,,white,hexagon
217.0,7.0,3.0,1.0,1.0,1.0,349.7091340004772,1.0,1.0,part_1,,,,,,,,,,,,,white,hexagon
0.0,8.0,0.0,1.0,3.0,3.0,322.3878469998453,1.0,1.0,part_1,,,,,,,,,,,,,yellow,circle
0.0,4.0,0.0,0.0,4.0,4.0,494.8165280002286,1.0,1.0,part_1,,,,,,,,,,,,,green,square
399.0,4.0,4.0,0.0,2.0,2.0,379.6353580000868,1.0,1.0,part_1,,,,,,,,,,,,,green,square
29.0,1.0,1.0,0.0,2.0,2.0,560.2548160004517,1.0,1.0,part_1,,,,,,,,,,,,,cyan,diamond
219.0,7.0,3.0,1.0,3.0,3.0,477.177897000729,1.0,1.0,part_1,,,,,,,,,,,,,white,hexagon
394.0,4.0,4.0,0.0,1.0,1.0,613.4783059997062,1.0,1.0,part_1,,,,,,,,,,,,,green,square
51.0,5.0,1.0,1.0,4.0,4.0,343.0434500005503,1.0,1.0,part_1,,,,,,,,,,,,,blue,I
375.0,4.0,4.0,0.0,2.0,2.0,294.9732079996465,1.0,1.0,part_1,,,,,,,,,,,,,green,square
0.0,1.0,0.0,0.0,1.0,1.0,370.1439090000349,1.0,1.0,part_1,,,,,,,,,,,,,cyan,diamond
0.0,2.0,0.0,0.0,2.0,2.0,315.3728269999192,1.0,1.0,part_1,,,,,,,,,,,,,orange,flipped triangle
400.0,8.0,4.0,1.0,2.0,2.0,283.1407409994426,1.0,1.0,part_1,,,,,,,,,,,,,yellow,circle
40.0,5.0,1.0,1.0,2.0,2.0,343.8859130001219,1.0,1.0,part_1,,,,,,,,,,,,,blue,I
122.0,6.0,2.0,1.0,2.0,2.0,343.7505439997039,1.0,1.0,part_1,,,,,,,,,,,,,magenta,cross
422.0,4.0,4.0,0.0,4.0,4.0,367.08775399984,1.0,1.0,part_1,,,,,,,,,,,,,green,square
387.0,4.0,4.0,0.0,4.0,4.0,396.8932679999852,1.0,1.0,part_1,,,,,,,,,,,,,green,square
384.0,8.0,4.0,1.0,1.0,1.0,432.5077149997014,2.0,1.0,part_1,,,,,,,,,,,,,yellow,circle
391.0,4.0,4.0,0.0,3.0,3.0,429.6591120000812,2.0,1.0,part_1,,,,,,,,,,,,,green,square
75.0,2.0,2.0,0.0,3.0,3.0,352.287454999896,2.0,1.0,part_1,,,,,,,,,,,,,orange,flipped triangle
71.0,5.0,1.0,1.0,1.0,1.0,498.0815409999195,2.0,1.0,part_1,,,,,,,,,,,,,blue,I
0.0,2.0,0.0,0.0,1.0,1.0,343.4991329995682,2.0,1.0,part_1,,,,,,,,,,,,,orange,flipped triangle
177.0,3.0,3.0,0.0,1.0,1.0,386.1863830006768,2.0,1.0,part_1,,,,,,,,,,,,,gray,triangle
74.0,5.0,1.0,1.0,2.0,2.0,320.5574759995215,2.0,1.0,part_1,,,,,,,,,,,,,blue,I
0.0,7.0,0.0,1.0,1.0,1.0,309.87930900028,2.0,1.0,part_1,,,,,,,,,,,,,white,hexagon
28.0,1.0,1.0,0.0,3.0,3.0,525.8131809996485,2.0,1.0,part_1,,,,,,,,,,,,,cyan,diamond
47.0,1.0,1.0,0.0,4.0,4.0,315.2176690000488,2.0,1.0,part_1,,,,,,,,,,,,,cyan,diamond
399.0,8.0,4.0,1.0,1.0,1.0,452.7554749993214,2.0,1.0,part_1,,,,,,,,,,,,,yellow,circle
0.0,2.0,0.0,0.0,4.0,4.0,404.1237709998313,2.0,1.0,part_1,,,,,,,,,,,,,orange,flipped triangle
188.0,7.0,3.0,1.0,2.0,2.0,285.4393389998222,2.0,1.0,part_1,,,,,,,,,,,,,white,hexagon
96.0,2.0,2.0,0.0,2.0,2.0,307.6482070000566,2.0,1.0,part_1,,,,,,,,,,,,,orange,flipped triangle
30.0,5.0,1.0,1.0,2.0,2.0,328.9902509995954,2.0,1.0,part_1,,,,,,,,,,,,,blue,I
418.0,4.0,4.0,0.0,1.0,1.0,256.7136030002075,2.0,1.0,part_1,,,,,,,,,,,,,green,square
0.0,4.0,0.0,0.0,1.0,1.0,358.8007560001642,2.0,1.0,part_1,,,,,,,,,,,,,green,square
409.0,4.0,4.0,0.0,2.0,2.0,215.524238999933,2.0,1.0,part_1,,,,,,,,,,,,,green,square
0.0,6.0,0.0,1.0,1.0,1.0,304.6610999999757,2.0,1.0,part_1,,,,,,,,,,,,,magenta,cross
71.0,1.0,1.0,0.0,1.0,1.0,363.8300100001288,2.0,1.0,part_1,,,,,,,,,,,,,cyan,diamond
0.0,5.0,0.0,1.0,4.0,4.0,371.9427510004607,2.0,1.0,part_1,,,,,,,,,,,,,blue,I
90.0,6.0,2.0,1.0,3.0,3.0,380.9743140000137,2.0,1.0,part_1,,,,,,,,,,,,,magenta,cross
69.0,5.0,1.0,1.0,2.0,2.0,429.978635000225,2.0,1.0,part_1,,,,,,,,,,,,,blue,I
125.0,2.0,2.0,0.0,2.0,2.0,310.1000649994603,2.0,1.0,part_1,,,,,,,,,,,,,orange,flipped triangle
25.0,1.0,1.0,0.0,2.0,2.0,276.1159390001921,2.0,1.0,part_1,,,,,,,,,,,,,cyan,diamond
59.0,5.0,1.0,1.0,3.0,3.0,450.6209929995748,2.0,1.0,part_1,,,,,,,,,,,,,blue,I
52.0,1.0,1.0,0.0,1.0,1.0,297.9888320005557,2.0,1.0,part_1,,,,,,,,,,,,,cyan,diamond
47.0,5.0,1.0,1.0,2.0,2.0,273.0702019998716,2.0,1.0,part_1,,,,,,,,,,,,,blue,I
120.0,6.0,2.0,1.0,2.0,2.0,276.1432410006819,2.0,1.0,part_1,,,,,,,,,,,,,magenta,cross
60.0,1.0,1.0,0.0,2.0,2.0,240.7783039998321,2.0,1.0,part_1,,,,,,,,,,,,,cyan,diamond
71.0,1.0,1.0,0.0,3.0,3.0,410.4182210003273,2.0,2.0,part_1,,,,,,,,,,,,,cyan,diamond
87.0,2.0,2.0,0.0,4.0,4.0,554.2253089997757,2.0,1.0,part_1,,,,,,,,,,,,,orange,flipped triangle
0.0,4.0,0.0,0.0,3.0,3.0,391.9186820003233,2.0,1.0,part_1,,,,,,,,,,,,,green,square
425.0,4.0,4.0,0.0,2.0,2.0,359.4767639997371,2.0,1.0,part_1,,,,,,,,,,,,,green,square
66.0,5.0,1.0,1.0,1.0,1.0,503.3824820002337,2.0,1.0,part_1,,,,,,,,,,,,,blue,I
118.0,2.0,2.0,0.0,3.0,3.0,435.3985709994958,2.0,1.0,part_1,,,,,,,,,,,,,orange,flipped triangle
0.0,5.0,0.0,1.0,1.0,1.0,507.8333430001294,2.0,1.0,part_1,,,,,,,,,,,,,blue,I
0.0,1.0,0.0,0.0,3.0,3.0,397.5091379998048,2.0,1.0,part_1,,,,,,,,,,,,,cyan,diamond
40.0,1.0,1.0,0.0,4.0,4.0,320.5934919997162,2.0,1.0,part_1,,,,,,,,,,,,,cyan,diamond
66.0,1.0,1.0,0.0,2.0,2.0,254.06938000014628,2.0,1.0,part_1,,,,,,,,,,,,,cyan,diamond
52.0,5.0,1.0,1.0,1.0,1.0,407.1811470003013,2.0,1.0,part_1,,,,,,,,,,,,,blue,I
33.0,1.0,1.0,0.0,3.0,3.0,378.1156029999692,2.0,1.0,part_1,,,,,,,,,,,,,cyan,diamond
219.0,3.0,3.0,0.0,1.0,1.0,365.6844750003074,2.0,1.0,part_1,,,,,,,,,,,,,gray,triangle
0.0,5.0,0.0,1.0,4.0,4.0,393.649435000043,2.0,1.0,part_1,,,,,,,,,,,,,blue,I
51.0,1.0,1.0,0.0,3.0,3.0,376.8475939996278,2.0,1.0,part_1,,,,,,,,,,,,,cyan,diamond
120.0,2.0,2.0,0.0,1.0,1.0,412.083686999722,2.0,1.0,part_1,,,,,,,,,,,,,orange,flipped triangle
177.0,7.0,3.0,1.0,1.0,1.0,387.6905420002003,2.0,1.0,part_1,,,,,,,,,,,,,white,hexagon
109.0,6.0,2.0,1.0,2.0,2.0,352.7594910001426,2.0,1.0,part_1,,,,,,,,,,,,,magenta,cross
116.0,2.0,2.0,0.0,3.0,3.0,354.076626999813,2.0,1.0,part_1,,,,,,,,,,,,,orange,flipped triangle
62.0,5.0,1.0,1.0,2.0,2.0,444.9509810001473,2.0,1.0,part_1,,,,,,,,,,,,,blue,I
84.0,2.0,2.0,0.0,4.0,4.0,599.1093689999616,2.0,1.0,part_1,,,,,,,,,,,,,orange,flipped triangle
224.0,3.0,3.0,0.0,3.0,3.0,427.2469800007457,2.0,1.0,part_1,,,,,,,,,,,,,gray,triangle
69.0,1.0,1.0,0.0,3.0,3.0,278.9888009992864,2.0,1.0,part_1,,,,,,,,,,,,,cyan,diamond
0.0,6.0,0.0,1.0,4.0,4.0,354.0127140004188,2.0,1.0,part_1,,,,,,,,,,,,,magenta,cross
192.0,7.0,3.0,1.0,2.0,2.0,442.2106069996516,2.0,1.0,part_1,,,,,,,,,,,,,white,hexagon
0.0,7.0,0.0,1.0,2.0,2.0,339.1860889996678,2.0,1.0,part_1,,,,,,,,,,,,,white,hexagon
0.0,5.0,0.0,1.0,3.0,3.0,327.2598369994739,2.0,1.0,part_1,,,,,,,,,,,,,blue,I
402.0,4.0,4.0,0.0,3.0,3.0,379.1173380004693,2.0,1.0,part_1,,,,,,,,,,,,,green,square
114.0,2.0,2.0,0.0,3.0,3.0,348.6289160000524,2.0,1.0,part_1,,,,,,,,,,,,,orange,flipped triangle
217.0,3.0,3.0,0.0,3.0,3.0,309.8069090001445,2.0,1.0,part_1,,,,,,,,,,,,,gray,triangle
195.0,7.0,3.0,1.0,4.0,4.0,476.3815139995131,2.0,1.0,part_1,,,,,,,,,,,,,white,hexagon
0.0,3.0,0.0,0.0,4.0,4.0,343.5803930005932,2.0,1.0,part_1,,,,,,,,,,,,,gray,triangle
225.0,7.0,3.0,1.0,2.0,2.0,386.0968830003912,2.0,1.0,part_1,,,,,,,,,,,,,white,hexagon
92.0,2.0,2.0,0.0,4.0,4.0,387.8623520004112,2.0,1.0,part_1,,,,,,,,,,,,,orange,flipped triangle
0.0,1.0,0.0,0.0,4.0,4.0,514.9843190001775,2.0,1.0,part_1,,,,,,,,,,,,,cyan,diamond
0.0,5.0,0.0,1.0,2.0,2.0,414.3901380002717,2.0,1.0,part_1,,,,,,,,,,,,,blue,I
425.0,8.0,4.0,1.0,3.0,3.0,373.300547999861,2.0,1.0,part_1,,,,,,,,,,,,,yellow,circle
0.0,1.0,0.0,0.0,3.0,3.0,354.7936450004272,2.0,1.0,part_1,,,,,,,,,,,,,cyan,diamond
183.0,3.0,3.0,0.0,2.0,2.0,343.4720730001572,2.0,1.0,part_1,,,,,,,,,,,,,gray,triangle
85.0,6.0,2.0,1.0,4.0,4.0,441.6124230001514,2.0,1.0,part_1,,,,,,,,,,,,,magenta,cross
185.0,3.0,3.0,0.0,1.0,1.0,626.2652820005314,2.0,1.0,part_1,,,,,,,,,,,,,gray,triangle
102.0,2.0,2.0,0.0,2.0,2.0,353.9615850004338,2.0,1.0,part_1,,,,,,,,,,,,,orange,flipped triangle
379.0,8.0,4.0,1.0,2.0,2.0,320.9809440004392,2.0,1.0,part_1,,,,,,,,,,,,,yellow,circle
407.0,8.0,4.0,1.0,2.0,2.0,300.7471610007997,2.0,1.0,part_1,,,,,,,,,,,,,yellow,circle
0.0,4.0,0.0,0.0,4.0,4.0,339.4588930004829,2.0,1.0,part_1,,,,,,,,,,,,,green,square
419.0,8.0,4.0,1.0,2.0,2.0,295.4786250002144,2.0,1.0,part_1,,,,,,,,,,,,,yellow,circle
27.0,1.0,1.0,0.0,1.0,1.0,401.4314389996798,2.0,2.0,part_1,,,,,,,,,,,,,cyan,diamond
94.0,2.0,2.0,0.0,4.0,4.0,446.3475840002502,2.0,1.0,part_1,,,,,,,,,,,,,orange,flipped triangle
0.0,4.0,0.0,0.0,2.0,2.0,376.245817000381,2.0,1.0,part_1,,,,,,,,,,,,,green,square
417.0,4.0,4.0,0.0,4.0,4.0,529.1376380000656,2.0,1.0,part_1,,,,,,,,,,,,,green,square
37.0,1.0,1.0,0.0,4.0,4.0,403.306555999734,2.0,1.0,part_1,,,,,,,,,,,,,cyan,diamond
71.0,5.0,1.0,1.0,2.0,2.0,394.7676940006204,2.0,1.0,part_1,,,,,,,,,,,,,blue,I
65.0,5.0,1.0,1.0,1.0,1.0,430.1406469994617,2.0,1.0,part_1,,,,,,,,,,,,,blue,I
0.0,3.0,0.0,0.0,4.0,4.0,416.1989550002545,2.0,1.0,part_1,,,,,,,,,,,,,gray,triangle
0.0,3.0,0.0,0.0,1.0,1.0,433.8335190004727,2.0,1.0,part_1,,,,,,,,,,,,,gray,triangle
69.0,1.0,1.0,0.0,4.0,4.0,453.9246969998203,2.0,1.0,part_1,,,,,,,,,,,,,cyan,diamond
188.0,3.0,3.0,0.0,3.0,3.0,341.2042859999928,2.0,1.0,part_1,,,,,,,,,,,,,gray,triangle
192.0,3.0,3.0,0.0,4.0,4.0,407.9822289995718,2.0,1.0,part_1,,,,,,,,,,,,,gray,triangle
79.0,2.0,2.0,0.0,2.0,2.0,331.3981969995438,2.0,1.0,part_1,,,,,,,,,,,,,orange,flipped triangle
394.0,8.0,4.0,1.0,2.0,2.0,373.8502759997573,2.0,1.0,part_1,,,,,,,,,,,,,yellow,circle
202.0,3.0,3.0,0.0,3.0,3.0,442.4910329998965,2.0,1.0,part_1,,,,,,,,,,,,,gray,triangle
27.0,1.0,1.0,0.0,1.0,1.0,502.9375490003076,2.0,1.0,part_1,,,,,,,,,,,,,cyan,diamond
203.0,3.0,3.0,0.0,3.0,3.0,459.5207669999581,2.0,1.0,part_1,,,,,,,,,,,,,gray,triangle
0.0,5.0,0.0,1.0,1.0,1.0,414.1328769992469,2.0,1.0,part_1,,,,,,,,,,,,,blue,I
87.0,6.0,2.0,1.0,1.0,1.0,424.2260709997936,2.0,1.0,part_1,,,,,,,,,,,,,magenta,cross
100.0,2.0,2.0,0.0,4.0,4.0,415.1241689996823,2.0,1.0,part_1,,,,,,,,,,,,,orange,flipped triangle
0.0,1.0,0.0,0.0,4.0,4.0,484.5217459997002,2.0,1.0,part_1,,,,,,,,,,,,,cyan,diamond
87.0,2.0,2.0,0.0,3.0,3.0,429.1640560004452,2.0,1.0,part_1,,,,,,,,,,,,,orange,flipped triangle
214.0,7.0,3.0,1.0,3.0,3.0,394.8099169992929,2.0,1.0,part_1,,,,,,,,,,,,,white,hexagon
44.0,5.0,1.0,1.0,3.0,3.0,433.1272839999656,2.0,1.0,part_1,,,,,,,,,,,,,blue,I
397.0,4.0,4.0,0.0,3.0,3.0,378.7248979997457,3.0,1.0,part_1,,,,,,,,,,,,,green,square
44.0,1.0,1.0,0.0,1.0,1.0,351.1210159995244,3.0,1.0,part_1,,,,,,,,,,,,,cyan,diamond
39.0,1.0,1.0,0.0,1.0,1.0,421.364290999918,3.0,1.0,part_1,,,,,,,,,,,,,cyan,diamond
176.0,7.0,3.0,1.0,2.0,2.0,364.2958350001208,3.0,1.0,part_1,,,,,,,,,,,,,white,hexagon
0.0,7.0,0.0,1.0,2.0,2.0,276.6204979998292,3.0,1.0,part_1,,,,,,,,,,,,,white,hexagon
95.0,6.0,2.0,1.0,4.0,4.0,345.4991340004198,3.0,1.0,part_1,,,,,,,,,,,,,magenta,cross
125.0,6.0,2.0,1.0,2.0,2.0,408.4995780003737,3.0,1.0,part_1,,,,,,,,,,,,,magenta,cross
405.0,4.0,4.0,0.0,1.0,1.0,277.2485089999463,3.0,1.0,part_1,,,,,,,,,,,,,green,square
201.0,3.0,3.0,0.0,1.0,1.0,311.0407789999954,3.0,1.0,part_1,,,,,,,,,,,,,gray,triangle
0.0,6.0,0.0,1.0,3.0,3.0,314.2737969992595,3.0,1.0,part_1,,,,,,,,,,,,,magenta,cross
37.0,5.0,1.0,1.0,4.0,4.0,337.9117920003409,3.0,1.0,part_1,,,,,,,,,,,,,blue,I
52.0,5.0,1.0,1.0,3.0,3.0,373.2374910005092,3.0,1.0,part_1,,,,,,,,,,,,,blue,I
0.0,6.0,0.0,1.0,2.0,2.0,409.7370039999077,3.0,1.0,part_1,,,,,,,,,,,,,magenta,cross
91.0,2.0,2.0,0.0,2.0,2.0,362.1553869998024,3.0,1.0,part_1,,,,,,,,,,,,,orange,flipped triangle
0.0,3.0,0.0,0.0,3.0,3.0,326.1810770000011,3.0,1.0,part_1,,,,,,,,,,,,,gray,triangle
120.0,2.0,2.0,0.0,1.0,1.0,437.8697590000229,3.0,1.0,part_1,,,,,,,,,,,,,orange,flipped triangle
387.0,8.0,4.0,1.0,4.0,4.0,383.9846539995051,3.0,1.0,part_1,,,,,,,,,,,,,yellow,circle
376.0,8.0,4.0,1.0,1.0,1.0,547.6583500003471,3.0,1.0,part_1,,,,,,,,,,,,,yellow,circle
86.0,6.0,2.0,1.0,4.0,4.0,472.9390089996741,3.0,1.0,part_1,,,,,,,,,,,,,magenta,cross
0.0,2.0,0.0,0.0,2.0,2.0,360.2028099994641,3.0,1.0,part_1,,,,,,,,,,,,,orange,flipped triangle
74.0,1.0,1.0,0.0,1.0,1.0,544.1293919993768,3.0,1.0,part_1,,,,,,,,,,,,,cyan,diamond
0.0,6.0,0.0,1.0,2.0,2.0,338.9797580002778,3.0,1.0,part_1,,,,,,,,,,,,,magenta,cross
122.0,6.0,2.0,1.0,1.0,1.0,446.5208110004823,3.0,1.0,part_1,,,,,,,,,,,,,magenta,cross
0.0,2.0,0.0,0.0,2.0,2.0,480.1371450002989,3.0,1.0,part_1,,,,,,,,,,,,,orange,flipped triangle
94.0,6.0,2.0,1.0,3.0,3.0,470.4983990004621,3.0,1.0,part_1,,,,,,,,,,,,,magenta,cross
407.0,8.0,4.0,1.0,3.0,3.0,417.8109800004677,3.0,1.0,part_1,,,,,,,,,,,,,yellow,circle
103.0,2.0,2.0,0.0,2.0,2.0,442.7723869994224,3.0,1.0,part_1,,,,,,,,,,,,,orange,flipped triangle
0.0,1.0,0.0,0.0,3.0,3.0,533.2142679999379,3.0,1.0,part_1,,,,,,,,,,,,,cyan,diamond
0.0,8.0,0.0,1.0,3.0,3.0,356.9649730006858,3.0,1.0,part_1,,,,,,,,,,,,,yellow,circle
203.0,3.0,3.0,0.0,2.0,2.0,341.9402920007997,3.0,1.0,part_1,,,,,,,,,,,,,gray,triangle
211.0,7.0,3.0,1.0,1.0,1.0,276.2188260003313,3.0,1.0,part_1,,,,,,,,,,,,,white,hexagon
420.0,4.0,4.0,0.0,1.0,1.0,684.6821380004258,3.0,1.0,part_1,,,,,,,,,,,,,green,square
384.0,4.0,4.0,0.0,1.0,1.0,420.49685799975117,3.0,1.0,part_1,,,,,,,,,,,,,green,square
0.0,5.0,0.0,1.0,2.0,2.0,332.5376869997853,3.0,1.0,part_1,,,,,,,,,,,,,blue,I
67.0,5.0,1.0,1.0,2.0,2.0,445.8480439998311,3.0,1.0,part_1,,,,,,,,,,,,,blue,I
176.0,7.0,3.0,1.0,4.0,4.0,502.98672600001737,3.0,1.0,part_1,,,,,,,,,,,,,white,hexagon
25.0,1.0,1.0,0.0,4.0,4.0,514.7348950004016,3.0,1.0,part_1,,,,,,,,,,,,,cyan,diamond
0.0,7.0,0.0,1.0,4.0,4.0,376.8840949996956,3.0,1.0,part_1,,,,,,,,,,,,,white,hexagon
211.0,3.0,3.0,0.0,1.0,1.0,514.3983520001711,3.0,1.0,part_1,,,,,,,,,,,,,gray,triangle
0.0,3.0,0.0,0.0,1.0,1.0,408.8545669992527,3.0,1.0,part_1,,,,,,,,,,,,,gray,triangle
59.0,5.0,1.0,1.0,1.0,1.0,374.1959870003484,3.0,1.0,part_1,,,,,,,,,,,,,blue,I
207.0,7.0,3.0,1.0,4.0,4.0,478.7552139996478,3.0,1.0,part_1,,,,,,,,,,,,,white,hexagon
108.0,2.0,2.0,0.0,1.0,1.0,475.1653919993259,3.0,1.0,part_1,,,,,,,,,,,,,orange,flipped triangle
63.0,5.0,1.0,1.0,1.0,1.0,361.6517600003135,3.0,1.0,part_1,,,,,,,,,,,,,blue,I
90.0,2.0,2.0,0.0,1.0,1.0,409.5235470003899,3.0,1.0,part_1,,,,,,,,,,,,,orange,flipped triangle
0.0,5.0,0.0,1.0,3.0,3.0,419.7283720004634,3.0,1.0,part_1,,,,,,,,,,,,,blue,I
25.0,5.0,1.0,1.0,3.0,3.0,318.3159950003755,3.0,1.0,part_1,,,,,,,,,,,,,blue,I
65.0,1.0,1.0,0.0,2.0,2.0,471.6246320003847,3.0,1.0,part_1,,,,,,,,,,,,,cyan,diamond
66.0,1.0,1.0,0.0,2.0,2.0,347.2531179995712,3.0,1.0,part_1,,,,,,,,,,,,,cyan,diamond
67.0,1.0,1.0,0.0,4.0,4.0,374.1939139999886,3.0,1.0,part_1,,,,,,,,,,,,,cyan,diamond
195.0,3.0,3.0,0.0,1.0,1.0,450.9792879998713,3.0,1.0,part_1,,,,,,,,,,,,,gray,triangle
413.0,8.0,4.0,1.0,1.0,1.0,368.5026319999451,3.0,1.0,part_1,,,,,,,,,,,,,yellow,circle
118.0,6.0,2.0,1.0,3.0,3.0,396.2914509993425,3.0,1.0,part_1,,,,,,,,,,,,,magenta,cross
92.0,6.0,2.0,1.0,4.0,4.0,489.4115839997539,3.0,1.0,part_1,,,,,,,,,,,,,magenta,cross
102.0,6.0,2.0,1.0,1.0,1.0,353.3978030000071,3.0,1.0,part_1,,,,,,,,,,,,,magenta,cross
97.0,2.0,2.0,0.0,2.0,2.0,369.1562590001922,3.0,1.0,part_1,,,,,,,,,,,,,orange,flipped triangle
408.0,8.0,4.0,1.0,3.0,3.0,519.5392919995356,3.0,1.0,part_1,,,,,,,,,,,,,yellow,circle
225.0,7.0,3.0,1.0,4.0,4.0,370.6341670003894,3.0,1.0,part_1,,,,,,,,,,,,,white,hexagon
0.0,7.0,0.0,1.0,4.0,4.0,549.4695659999707,3.0,1.0,part_1,,,,,,,,,,,,,white,hexagon
203.0,3.0,3.0,0.0,4.0,4.0,389.6392950000518,3.0,1.0,part_1,,,,,,,,,,,,,gray,triangle
0.0,2.0,0.0,0.0,1.0,1.0,498.7292969999544,3.0,1.0,part_1,,,,,,,,,,,,,orange,flipped triangle
79.0,2.0,2.0,0.0,4.0,4.0,552.8473429994847,3.0,1.0,part_1,,,,,,,,,,,,,orange,flipped triangle
389.0,4.0,4.0,0.0,2.0,2.0,379.8788690000947,3.0,1.0,part_1,,,,,,,,,,,,,green,square
0.0,8.0,0.0,1.0,3.0,3.0,278.8771329996962,3.0,1.0,part_1,,,,,,,,,,,,,yellow,circle
0.0,3.0,0.0,0.0,2.0,2.0,399.693194000065,3.0,1.0,part_1,,,,,,,,,,,,,gray,triangle
0.0,3.0,0.0,0.0,4.0,4.0,499.42533699959307,3.0,1.0,part_1,,,,,,,,,,,,,gray,triangle
99.0,6.0,2.0,1.0,1.0,1.0,564.0319759995691,3.0,1.0,part_1,,,,,,,,,,,,,magenta,cross
91.0,6.0,2.0,1.0,1.0,1.0,350.42009100015997,3.0,1.0,part_1,,,,,,,,,,,,,magenta,cross
0.0,8.0,0.0,1.0,4.0,4.0,410.0057289997494,3.0,1.0,part_1,,,,,,,,,,,,,yellow,circle
388.0,8.0,4.0,1.0,3.0,3.0,315.3283460005696,3.0,1.0,part_1,,,,,,,,,,,,,yellow,circle
384.0,4.0,4.0,0.0,4.0,4.0,590.586266000173,3.0,1.0,part_1,,,,,,,,,,,,,green,square
86.0,2.0,2.0,0.0,1.0,1.0,391.6398170003958,3.0,1.0,part_1,,,,,,,,,,,,,orange,flipped triangle
223.0,3.0,3.0,0.0,1.0,1.0,390.7007050001994,3.0,1.0,part_1,,,,,,,,,,,,,gray,triangle
417.0,8.0,4.0,1.0,4.0,4.0,394.6464289992946,3.0,1.0,part_1,,,,,,,,,,,,,yellow,circle
0.0,4.0,0.0,0.0,2.0,2.0,309.3256840002141,3.0,1.0,part_1,,,,,,,,,,,,,green,square
100.0,6.0,2.0,1.0,1.0,1.0,615.4203350006355,3.0,1.0,part_1,,,,,,,,,,,,,magenta,cross
224.0,7.0,3.0,1.0,2.0,2.0,360.0312870003108,3.0,1.0,part_1,,,,,,,,,,,,,white,hexagon
51.0,1.0,1.0,0.0,4.0,4.0,613.8503989996025,3.0,1.0,part_1,,,,,,,,,,,,,cyan,diamond
376.0,8.0,4.0,1.0,4.0,4.0,598.0422259999614,3.0,1.0,part_1,,,,,,,,,,,,,yellow,circle
203.0,7.0,3.0,1.0,1.0,1.0,470.1899400006368,3.0,1.0,part_1,,,,,,,,,,,,,white,hexagon
109.0,2.0,2.0,0.0,1.0,1.0,373.7973670004066,3.0,1.0,part_1,,,,,,,,,,,,,orange,flipped triangle
401.0,8.0,4.0,1.0,3.0,3.0,270.8059340002364,3.0,1.0,part_1,,,,,,,,,,,,,yellow,circle
203.0,7.0,3.0,1.0,4.0,4.0,542.9776340006356,3.0,1.0,part_1,,,,,,,,,,,,,white,hexagon
176.0,3.0,3.0,0.0,1.0,1.0,358.7882140000147,3.0,1.0,part_1,,,,,,,,,,,,,gray,triangle
209.0,3.0,3.0,0.0,3.0,3.0,345.7628280002609,3.0,1.0,part_1,,,,,,,,,,,,,gray,triangle
192.0,3.0,3.0,0.0,4.0,4.0,391.7285210000045,3.0,1.0,part_1,,,,,,,,,,,,,gray,triangle
46.0,5.0,1.0,1.0,3.0,3.0,469.5318540007065,3.0,1.0,part_1,,,,,,,,,,,,,blue,I
0.0,7.0,0.0,1.0,3.0,3.0,495.8993419995749,3.0,1.0,part_1,,,,,,,,,,,,,white,hexagon
203.0,7.0,3.0,1.0,3.0,3.0,315.228704999754,3.0,1.0,part_1,,,,,,,,,,,,,white,hexagon
417.0,8.0,4.0,1.0,2.0,2.0,316.1032460002388,3.0,1.0,part_1,,,,,,,,,,,,,yellow,circle
0.0,7.0,0.0,1.0,4.0,4.0,361.4773540002716,3.0,1.0,part_1,,,,,,,,,,,,,white,hexagon
0.0,2.0,0.0,0.0,3.0,3.0,327.4748969997745,3.0,1.0,part_1,,,,,,,,,,,,,orange,flipped triangle
185.0,7.0,3.0,1.0,1.0,1.0,349.1187620002165,3.0,1.0,part_1,,,,,,,,,,,,,white,hexagon
110.0,6.0,2.0,1.0,2.0,2.0,297.369515000355,3.0,1.0,part_1,,,,,,,,,,,,,magenta,cross
84.0,2.0,2.0,0.0,2.0,2.0,321.5928629997506,3.0,1.0,part_1,,,,,,,,,,,,,orange,flipped triangle
109.0,2.0,2.0,0.0,3.0,3.0,371.7913250002311,3.0,1.0,part_1,,,,,,,,,,,,,orange,flipped triangle
57.0,1.0,1.0,0.0,2.0,2.0,320.9747089995289,3.0,1.0,part_1,,,,,,,,,,,,,cyan,diamond
202.0,7.0,3.0,1.0,1.0,1.0,283.2792740000514,3.0,1.0,part_1,,,,,,,,,,,,,white,hexagon
113.0,2.0,2.0,0.0,3.0,3.0,487.6889369998025,3.0,1.0,part_1,,,,,,,,,,,,,orange,flipped triangle
408.0,4.0,4.0,0.0,1.0,1.0,504.63340300029813,3.0,1.0,part_1,,,,,,,,,,,,,green,square
419.0,4.0,4.0,0.0,2.0,2.0,345.5160049998085,4.0,1.0,part_1,,,,,,,,,,,,,green,square
110.0,2.0,2.0,0.0,3.0,3.0,369.5881040002859,4.0,1.0,part_1,,,,,,,,,,,,,orange,flipped triangle
0.0,8.0,0.0,1.0,1.0,1.0,577.8250009998374,4.0,4.0,part_1,,,,,,,,,,,,,yellow,circle
0.0,8.0,0.0,1.0,3.0,3.0,531.5436120008599,4.0,1.0,part_1,,,,,,,,,,,,,yellow,circle
0.0,6.0,0.0,1.0,2.0,2.0,325.1954019997356,4.0,1.0,part_1,,,,,,,,,,,,,magenta,cross
184.0,3.0,3.0,0.0,4.0,4.0,475.7082430005539,4.0,1.0,part_1,,,,,,,,,,,,,gray,triangle
193.0,3.0,3.0,0.0,3.0,3.0,345.8637160001672,4.0,1.0,part_1,,,,,,,,,,,,,gray,triangle
399.0,8.0,4.0,1.0,2.0,2.0,516.3752380003643,4.0,1.0,part_1,,,,,,,,,,,,,yellow,circle
59.0,1.0,1.0,0.0,1.0,1.0,376.54794799982477,4.0,1.0,part_1,,,,,,,,,,,,,cyan,diamond
199.0,3.0,3.0,0.0,4.0,4.0,373.480180000115,4.0,1.0,part_1,,,,,,,,,,,,,gray,triangle
64.0,5.0,1.0,1.0,4.0,4.0,495.909111000401,4.0,1.0,part_1,,,,,,,,,,,,,blue,I
115.0,2.0,2.0,0.0,4.0,4.0,406.647785000132,4.0,1.0,part_1,,,,,,,,,,,,,orange,flipped triangle
39.0,5.0,1.0,1.0,1.0,1.0,403.98074299992,4.0,1.0,part_1,,,,,,,,,,,,,blue,I
224.0,3.0,3.0,0.0,3.0,3.0,343.2874639993315,4.0,1.0,part_1,,,,,,,,,,,,,gray,triangle
95.0,2.0,2.0,0.0,1.0,1.0,496.6943919998812,4.0,1.0,part_1,,,,,,,,,,,,,orange,flipped triangle
188.0,7.0,3.0,1.0,3.0,3.0,383.6602680003125,4.0,1.0,part_1,,,,,,,,,,,,,white,hexagon
376.0,4.0,4.0,0.0,2.0,2.0,494.9871629996778,4.0,1.0,part_1,,,,,,,,,,,,,green,square
391.0,8.0,4.0,1.0,4.0,4.0,416.9604650005567,4.0,1.0,part_1,,,,,,,,,,,,,yellow,circle
0.0,6.0,0.0,1.0,3.0,3.0,431.0159400001794,4.0,1.0,part_1,,,,,,,,,,,,,magenta,cross
178.0,3.0,3.0,0.0,1.0,1.0,330.935904999933,4.0,1.0,part_1,,,,,,,,,,,,,gray,triangle
99.0,2.0,2.0,0.0,1.0,1.0,327.993334999519,4.0,1.0,part_1,,,,,,,,,,,,,orange,flipped triangle
383.0,8.0,4.0,1.0,2.0,2.0,332.1977369996602,4.0,1.0,part_1,,,,,,,,,,,,,yellow,circle
122.0,2.0,2.0,0.0,4.0,4.0,509.37494699974195,4.0,1.0,part_1,,,,,,,,,,,,,orange,flipped triangle
116.0,6.0,2.0,1.0,3.0,3.0,484.4168989993704,4.0,1.0,part_1,,,,,,,,,,,,,magenta,cross
114.0,6.0,2.0,1.0,4.0,4.0,419.6332279998387,4.0,1.0,part_1,,,,,,,,,,,,,magenta,cross
0.0,6.0,0.0,1.0,2.0,2.0,383.6007319996497,4.0,1.0,part_1,,,,,,,,,,,,,magenta,cross
92.0,2.0,2.0,0.0,1.0,1.0,399.212847999479,4.0,1.0,part_1,,,,,,,,,,,,,orange,flipped triangle
223.0,7.0,3.0,1.0,3.0,3.0,446.8483059999926,4.0,1.0,part_1,,,,,,,,,,,,,white,hexagon
63.0,1.0,1.0,0.0,3.0,3.0,403.4693290004725,4.0,1.0,part_1,,,,,,,,,,,,,cyan,diamond
225.0,3.0,3.0,0.0,2.0,2.0,375.5304400001478,4.0,1.0,part_1,,,,,,,,,,,,,gray,triangle
224.0,7.0,3.0,1.0,4.0,4.0,593.3758870005477,4.0,1.0,part_1,,,,,,,,,,,,,white,hexagon
403.0,8.0,4.0,1.0,3.0,3.0,557.0123679999597,4.0,1.0,part_1,,,,,,,,,,,,,yellow,circle
30.0,1.0,1.0,0.0,3.0,3.0,292.8334320004069,4.0,1.0,part_1,,,,,,,,,,,,,cyan,diamond
418.0,8.0,4.0,1.0,4.0,4.0,261.9039279998105,4.0,1.0,part_1,,,,,,,,,,,,,yellow,circle
376.0,4.0,4.0,0.0,4.0,4.0,269.999344000098,4.0,1.0,part_1,,,,,,,,,,,,,green,square
201.0,7.0,3.0,1.0,4.0,4.0,300.0813010003185,4.0,1.0,part_1,,,,,,,,,,,,,white,hexagon
388.0,4.0,4.0,0.0,4.0,4.0,246.1058839999168,4.0,1.0,part_1,,,,,,,,,,,,,green,square
388.0,8.0,4.0,1.0,2.0,2.0,312.5599210006839,4.0,1.0,part_1,,,,,,,,,,,,,yellow,circle
193.0,7.0,3.0,1.0,2.0,2.0,318.0536260006192,4.0,1.0,part_1,,,,,,,,,,,,,white,hexagon
0.0,4.0,0.0,0.0,1.0,1.0,379.5703910000156,4.0,1.0,part_1,,,,,,,,,,,,,green,square
59.0,5.0,1.0,1.0,4.0,4.0,314.6972209997329,4.0,1.0,part_1,,,,,,,,,,,,,blue,I
108.0,6.0,2.0,1.0,1.0,1.0,361.123005999616,4.0,1.0,part_1,,,,,,,,,,,,,magenta,cross
0.0,8.0,0.0,1.0,3.0,3.0,352.8013599998303,4.0,1.0,part_1,,,,,,,,,,,,,yellow,circle
0.0,5.0,0.0,1.0,2.0,2.0,338.69410299939767,4.0,1.0,part_1,,,,,,,,,,,,,blue,I
0.0,6.0,0.0,1.0,2.0,2.0,348.1011880003279,4.0,1.0,part_1,,,,,,,,,,,,,magenta,cross
415.0,8.0,4.0,1.0,1.0,1.0,308.2804650002799,4.0,1.0,part_1,,,,,,,,,,,,,yellow,circle
214.0,3.0,3.0,0.0,4.0,4.0,480.1513920001525,4.0,1.0,part_1,,,,,,,,,,,,,gray,triangle
422.0,8.0,4.0,1.0,3.0,3.0,354.0320880001673,4.0,1.0,part_1,,,,,,,,,,,,,yellow,circle
203.0,7.0,3.0,1.0,2.0,2.0,341.3479529999677,4.0,1.0,part_1,,,,,,,,,,,,,white,hexagon
184.0,7.0,3.0,1.0,4.0,4.0,326.4110830004938,4.0,1.0,part_1,,,,,,,,,,,,,white,hexagon
383.0,4.0,4.0,0.0,4.0,4.0,334.500048999871,4.0,1.0,part_1,,,,,,,,,,,,,green,square
184.0,7.0,3.0,1.0,3.0,3.0,375.120701999549,4.0,1.0,part_1,,,,,,,,,,,,,white,hexagon
389.0,8.0,4.0,1.0,1.0,1.0,342.027790999964,4.0,1.0,part_1,,,,,,,,,,,,,yellow,circle
84.0,6.0,2.0,1.0,2.0,2.0,311.658603000069,4.0,1.0,part_1,,,,,,,,,,,,,magenta,cross
86.0,2.0,2.0,0.0,1.0,1.0,509.3695140003547,4.0,1.0,part_1,,,,,,,,,,,,,orange,flipped triangle
213.0,3.0,3.0,0.0,4.0,4.0,342.0257170000695,4.0,1.0,part_1,,,,,,,,,,,,,gray,triangle
76.0,2.0,2.0,0.0,2.0,2.0,294.4840919999478,4.0,1.0,part_1,,,,,,,,,,,,,orange,flipped triangle
0.0,7.0,0.0,1.0,4.0,4.0,351.4965209997172,4.0,1.0,part_1,,,,,,,,,,,,,white,hexagon
222.0,3.0,3.0,0.0,2.0,2.0,344.7651189999305,4.0,1.0,part_1,,,,,,,,,,,,,gray,triangle
25.0,5.0,1.0,1.0,4.0,4.0,362.0419090002542,4.0,2.0,part_1,,,,,,,,,,,,,blue,I
0.0,7.0,0.0,1.0,2.0,2.0,381.2190480002755,4.0,1.0,part_1,,,,,,,,,,,,,white,hexagon
375.0,8.0,4.0,1.0,1.0,1.0,430.2683610003441,4.0,1.0,part_1,,,,,,,,,,,,,yellow,circle
64.0,1.0,1.0,0.0,1.0,1.0,408.0950810002832,4.0,1.0,part_1,,,,,,,,,,,,,cyan,diamond
177.0,3.0,3.0,0.0,1.0,1.0,331.0026400004062,4.0,1.0,part_1,,,,,,,,,,,,,gray,triangle
388.0,4.0,4.0,0.0,3.0,3.0,354.3194709991439,4.0,1.0,part_1,,,,,,,,,,,,,green,square
0.0,3.0,0.0,0.0,3.0,3.0,405.2276989996244,4.0,1.0,part_1,,,,,,,,,,,,,gray,triangle
0.0,4.0,0.0,0.0,2.0,2.0,401.4944800001103,4.0,1.0,part_1,,,,,,,,,,,,,green,square
402.0,8.0,4.0,1.0,4.0,4.0,690.4214690002846,4.0,1.0,part_1,,,,,,,,,,,,,yellow,circle
115.0,6.0,2.0,1.0,4.0,4.0,437.1621979998963,4.0,1.0,part_1,,,,,,,,,,,,,magenta,cross
376.0,4.0,4.0,0.0,1.0,1.0,349.4510179998542,4.0,1.0,part_1,,,,,,,,,,,,,green,square
111.0,6.0,2.0,1.0,4.0,4.0,402.080592000857,4.0,1.0,part_1,,,,,,,,,,,,,magenta,cross
109.0,6.0,2.0,1.0,2.0,2.0,404.7894229997837,4.0,1.0,part_1,,,,,,,,,,,,,magenta,cross
397.0,8.0,4.0,1.0,4.0,4.0,413.608013999692,4.0,1.0,part_1,,,,,,,,,,,,,yellow,circle
44.0,1.0,1.0,0.0,2.0,2.0,337.0050960002118,4.0,1.0,part_1,,,,,,,,,,,,,cyan,diamond
379.0,4.0,4.0,0.0,3.0,3.0,354.7509079999145,4.0,1.0,part_1,,,,,,,,,,,,,green,square
27.0,5.0,1.0,1.0,3.0,3.0,378.6358440002004,4.0,1.0,part_1,,,,,,,,,,,,,blue,I
122.0,2.0,2.0,0.0,3.0,3.0,351.6120979993502,4.0,1.0,part_1,,,,,,,,,,,,,orange,flipped triangle
0.0,1.0,0.0,0.0,1.0,1.0,322.0998449996841,4.0,1.0,part_1,,,,,,,,,,,,,cyan,diamond
414.0,4.0,4.0,0.0,3.0,3.0,462.8104129997155,4.0,1.0,part_1,,,,,,,,,,,,,green,square
422.0,8.0,4.0,1.0,4.0,4.0,361.6061800003081,4.0,1.0,part_1,,,,,,,,,,,,,yellow,circle
97.0,6.0,2.0,1.0,3.0,3.0,324.7182169998268,4.0,1.0,part_1,,,,,,,,,,,,,magenta,cross
0.0,1.0,0.0,0.0,3.0,3.0,349.9782019998747,4.0,1.0,part_1,,,,,,,,,,,,,cyan,diamond
42.0,1.0,1.0,0.0,1.0,1.0,570.2575549994435,4.0,1.0,part_1,,,,,,,,,,,,,cyan,diamond
176.0,7.0,3.0,1.0,3.0,3.0,311.7180350000126,4.0,1.0,part_1,,,,,,,,,,,,,white,hexagon
59.0,1.0,1.0,0.0,3.0,3.0,372.112609999931,4.0,1.0,part_1,,,,,,,,,,,,,cyan,diamond
124.0,6.0,2.0,1.0,1.0,1.0,482.8877390000343,4.0,1.0,part_1,,,,,,,,,,,,,magenta,cross
111.0,2.0,2.0,0.0,3.0,3.0,311.5735249994031,4.0,1.0,part_1,,,,,,,,,,,,,orange,flipped triangle
223.0,7.0,3.0,1.0,1.0,1.0,382.1886659998199,4.0,1.0,part_1,,,,,,,,,,,,,white,hexagon
191.0,7.0,3.0,1.0,2.0,2.0,359.7420520000014,4.0,1.0,part_1,,,,,,,,,,,,,white,hexagon
0.0,3.0,0.0,0.0,3.0,3.0,374.3161029997282,4.0,1.0,part_1,,,,,,,,,,,,,gray,triangle
420.0,8.0,4.0,1.0,1.0,1.0,254.5090690000506,4.0,1.0,part_1,,,,,,,,,,,,,yellow,circle
400.0,4.0,4.0,0.0,3.0,3.0,492.5798409994968,4.0,1.0,part_1,,,,,,,,,,,,,green,square
396.0,8.0,4.0,1.0,3.0,3.0,301.0832700001629,4.0,1.0,part_1,,,,,,,,,,,,,yellow,circle
178.0,7.0,3.0,1.0,1.0,1.0,346.9040749996566,4.0,1.0,part_1,,,,,,,,,,,,,white,hexagon
92.0,6.0,2.0,1.0,2.0,2.0,334.3955110003662,4.0,1.0,part_1,,,,,,,,,,,,,magenta,cross
46.0,1.0,1.0,0.0,4.0,4.0,323.3234199997241,4.0,1.0,part_1,,,,,,,,,,,,,cyan,diamond
0.0,4.0,0.0,0.0,2.0,2.0,318.2172610004272,4.0,1.0,part_1,,,,,,,,,,,,,green,square
87.0,6.0,2.0,1.0,2.0,2.0,293.2239150004534,4.0,1.0,part_1,,,,,,,,,,,,,magenta,cross
33.0,5.0,1.0,1.0,4.0,4.0,510.16677799998433,4.0,2.0,part_1,,,,,,,,,,,,,blue,I
52.0,1.0,1.0,0.0,2.0,2.0,423.9960109998719,4.0,1.0,part_1,,,,,,,,,,,,,cyan,diamond
0.0,8.0,4.0,1.0,6.0,6.0,631.7420039995341,1.0,0.0,part_2,go,250.0,250.0,1.0,,,,,,,,,yellow,circle
0.0,1.0,1.0,0.0,5.0,5.0,525.2689440003451,1.0,0.0,part_2,go,250.0,250.0,1.0,,,,,,,,,cyan,diamond
0.0,4.0,4.0,0.0,5.0,5.0,752.57000900001,1.0,0.0,part_2,go,250.0,250.0,1.0,,,,,,,,,green,square
0.0,5.0,1.0,1.0,5.0,0.0,0.0,1.0,0.0,part_2,stop,250.0,250.0,4.0,,,,,,,,,blue,I
0.0,2.0,2.0,0.0,6.0,6.0,490.8102569997936,1.0,0.0,part_2,go,300.0,250.0,1.0,,,,,,,,,orange,flipped triangle
0.0,5.0,1.0,1.0,5.0,5.0,1013.789927000289,1.0,0.0,part_2,go,300.0,250.0,1.0,,,,,,,,,blue,I
0.0,7.0,3.0,1.0,6.0,6.0,1070.903401000578,1.0,0.0,part_2,go,300.0,250.0,1.0,,,,,,,,,white,hexagon
0.0,7.0,3.0,1.0,6.0,0.0,0.0,1.0,0.0,part_2,stop,300.0,250.0,4.0,,,,,,,,,white,hexagon
0.0,5.0,1.0,1.0,5.0,5.0,382.1244179998757,1.0,0.0,part_2,go,300.0,300.0,1.0,,,,,,,,,blue,I
0.0,8.0,4.0,1.0,5.0,0.0,0.0,1.0,0.0,part_2,stop,300.0,300.0,4.0,,,,,,,,,yellow,circle
0.0,4.0,4.0,0.0,5.0,5.0,938.3843140003592,1.0,0.0,part_2,go,350.0,300.0,1.0,,,,,,,,,green,square
0.0,2.0,2.0,0.0,6.0,6.0,785.2612290007528,1.0,0.0,part_2,go,350.0,300.0,1.0,,,,,,,,,orange,flipped triangle
0.0,4.0,4.0,0.0,5.0,5.0,734.3425999997635,1.0,0.0,part_2,go,350.0,300.0,1.0,,,,,,,,,green,square
0.0,6.0,2.0,1.0,5.0,0.0,0.0,1.0,0.0,part_2,stop,350.0,300.0,4.0,,,,,,,,,magenta,cross
0.0,7.0,3.0,1.0,6.0,0.0,0.0,1.0,0.0,part_2,stop,400.0,300.0,4.0,,,,,,,,,white,hexagon
0.0,4.0,4.0,0.0,6.0,6.0,823.9272060000076,1.0,0.0,part_2,go,400.0,350.0,1.0,,,,,,,,,green,square
0.0,7.0,3.0,1.0,5.0,5.0,985.410375000356,1.0,0.0,part_2,go,400.0,350.0,1.0,,,,,,,,,white,hexagon
0.0,2.0,2.0,0.0,6.0,6.0,830.8540590005578,1.0,0.0,part_2,go,400.0,350.0,1.0,,,,,,,,,orange,flipped triangle
0.0,4.0,4.0,0.0,6.0,6.0,817.4723679994713,1.0,0.0,part_2,go,400.0,350.0,1.0,,,,,,,,,green,square
0.0,4.0,4.0,0.0,6.0,6.0,881.7971509997733,1.0,0.0,part_2,go,400.0,350.0,1.0,,,,,,,,,green,square
0.0,7.0,3.0,1.0,5.0,0.0,0.0,1.0,0.0,part_2,stop,400.0,350.0,4.0,,,,,,,,,white,hexagon
0.0,6.0,2.0,1.0,6.0,6.0,867.9119399994306,1.0,0.0,part_2,go,450.0,350.0,1.0,,,,,,,,,magenta,cross
0.0,4.0,4.0,0.0,6.0,6.0,1403.5562540002502,1.0,0.0,part_2,go,450.0,350.0,1.0,,,,,,,,,green,square
0.0,1.0,1.0,0.0,6.0,6.0,1227.732143000139,1.0,0.0,part_2,go,450.0,350.0,1.0,,,,,,,,,cyan,diamond
0.0,7.0,3.0,1.0,6.0,0.0,0.0,1.0,0.0,part_2,stop,450.0,350.0,4.0,,,,,,,,,white,hexagon
0.0,4.0,4.0,0.0,5.0,5.0,1009.4417529999191,1.0,0.0,part_2,go,450.0,400.0,1.0,,,,,,,,,green,square
0.0,3.0,3.0,0.0,5.0,5.0,1314.721069999905,1.0,0.0,part_2,go,450.0,400.0,1.0,,,,,,,,,gray,triangle
0.0,3.0,3.0,0.0,6.0,6.0,1472.4241949998031,1.0,0.0,part_2,go,450.0,400.0,1.0,,,,,,,,,gray,triangle
0.0,2.0,2.0,0.0,6.0,6.0,1096.9206050003777,1.0,0.0,part_2,go,450.0,400.0,1.0,,,,,,,,,orange,flipped triangle
0.0,3.0,3.0,0.0,6.0,6.0,1214.6247849996143,1.0,0.0,part_2,go,450.0,400.0,1.0,,,,,,,,,gray,triangle
0.0,3.0,3.0,0.0,5.0,5.0,1385.8419509997475,1.0,0.0,part_2,go,450.0,400.0,1.0,,,,,,,,,gray,triangle
0.0,7.0,3.0,1.0,6.0,0.0,0.0,1.0,0.0,part_2,stop,450.0,400.0,4.0,,,,,,,,,white,hexagon
0.0,6.0,2.0,1.0,5.0,0.0,0.0,1.0,0.0,part_2,stop,450.0,450.0,4.0,,,,,,,,,magenta,cross
0.0,2.0,2.0,0.0,6.0,6.0,708.9562410001236,1.0,0.0,part_2,go,500.0,450.0,1.0,,,,,,,,,orange,flipped triangle
0.0,4.0,4.0,0.0,5.0,5.0,1287.4823310003194,1.0,0.0,part_2,go,500.0,450.0,1.0,,,,,,,,,green,square
0.0,7.0,3.0,1.0,5.0,0.0,0.0,1.0,0.0,part_2,stop,500.0,450.0,4.0,,,,,,,,,white,hexagon
0.0,2.0,2.0,0.0,6.0,6.0,749.9077450002005,2.0,0.0,part_2,go,550.0,450.0,1.0,,,,,,,,,orange,flipped triangle
0.0,1.0,1.0,0.0,6.0,6.0,805.2617120001742,2.0,0.0,part_2,go,550.0,450.0,1.0,,,,,,,,,cyan,diamond
0.0,3.0,3.0,0.0,5.0,5.0,441.4504100004706,2.0,0.0,part_2,go,550.0,450.0,1.0,,,,,,,,,gray,triangle
0.0,4.0,4.0,0.0,6.0,6.0,629.2955819999406,2.0,0.0,part_2,go,550.0,450.0,1.0,,,,,,,,,green,square
0.0,6.0,2.0,1.0,5.0,0.0,0.0,2.0,0.0,part_2,stop,550.0,450.0,4.0,,,,,,,,,magenta,cross
0.0,6.0,2.0,1.0,6.0,6.0,515.7535150001422,2.0,0.0,part_2,stop,600.0,450.0,3.0,,,,,,,,,magenta,cross
0.0,4.0,4.0,0.0,6.0,6.0,757.1227220005312,2.0,0.0,part_2,go,600.0,400.0,1.0,,,,,,,,,green,square
0.0,5.0,1.0,1.0,5.0,0.0,0.0,2.0,0.0,part_2,stop,600.0,400.0,4.0,,,,,,,,,blue,I
0.0,8.0,4.0,1.0,6.0,6.0,534.7621989994877,2.0,0.0,part_2,go,650.0,400.0,1.0,,,,,,,,,yellow,circle
0.0,6.0,2.0,1.0,6.0,0.0,0.0,2.0,0.0,part_2,stop,650.0,400.0,4.0,,,,,,,,,magenta,cross
0.0,4.0,4.0,0.0,6.0,6.0,357.4227529998097,2.0,0.0,part_2,go,650.0,450.0,1.0,,,,,,,,,green,square
0.0,4.0,4.0,0.0,6.0,6.0,352.4108010005875,2.0,0.0,part_2,go,650.0,450.0,1.0,,,,,,,,,green,square
0.0,2.0,2.0,0.0,6.0,6.0,916.0452770011034,2.0,0.0,part_2,go,650.0,450.0,1.0,,,,,,,,,orange,flipped triangle
0.0,1.0,1.0,0.0,5.0,5.0,504.0713500002312,2.0,0.0,part_2,go,650.0,450.0,1.0,,,,,,,,,cyan,diamond
0.0,7.0,3.0,1.0,6.0,6.0,318.7569940000685,2.0,0.0,part_2,stop,650.0,450.0,3.0,,,,,,,,,white,hexagon
0.0,5.0,1.0,1.0,6.0,0.0,0.0,2.0,0.0,part_2,stop,650.0,400.0,4.0,,,,,,,,,blue,I
0.0,8.0,4.0,1.0,5.0,0.0,0.0,2.0,0.0,part_2,stop,650.0,450.0,4.0,,,,,,,,,yellow,circle
0.0,2.0,2.0,0.0,5.0,5.0,1198.5613180004293,2.0,0.0,part_2,go,700.0,450.0,1.0,,,,,,,,,orange,flipped triangle
0.0,1.0,1.0,0.0,6.0,6.0,782.5562380003248,2.0,0.0,part_2,go,700.0,450.0,1.0,,,,,,,,,cyan,diamond
0.0,2.0,2.0,0.0,5.0,5.0,704.344874000526,2.0,0.0,part_2,go,700.0,450.0,1.0,,,,,,,,,orange,flipped triangle
0.0,8.0,4.0,1.0,6.0,6.0,874.4084930003737,2.0,0.0,part_2,go,700.0,450.0,1.0,,,,,,,,,yellow,circle
0.0,2.0,2.0,0.0,5.0,5.0,706.4557230005448,2.0,0.0,part_2,go,700.0,450.0,1.0,,,,,,,,,orange,flipped triangle
0.0,5.0,1.0,1.0,5.0,5.0,788.513987999977,2.0,0.0,part_2,stop,700.0,450.0,3.0,,,,,,,,,blue,I
0.0,4.0,4.0,0.0,5.0,5.0,965.1481119999517,2.0,0.0,part_2,go,650.0,450.0,1.0,,,,,,,,,green,square
0.0,4.0,4.0,0.0,6.0,6.0,969.094132000464,2.0,0.0,part_2,go,650.0,450.0,1.0,,,,,,,,,green,square
0.0,5.0,1.0,1.0,6.0,0.0,0.0,2.0,0.0,part_2,stop,650.0,450.0,4.0,,,,,,,,,blue,I
0.0,8.0,4.0,1.0,6.0,0.0,0.0,2.0,0.0,part_2,stop,650.0,500.0,4.0,,,,,,,,,yellow,circle
0.0,2.0,2.0,0.0,5.0,5.0,439.4876540009136,2.0,0.0,part_2,go,650.0,550.0,1.0,,,,,,,,,orange,flipped triangle
0.0,7.0,3.0,1.0,5.0,5.0,781.2072910001007,2.0,0.0,part_2,go,650.0,550.0,1.0,,,,,,,,,white,hexagon
0.0,8.0,4.0,1.0,6.0,0.0,0.0,2.0,0.0,part_2,stop,650.0,550.0,4.0,,,,,,,,,yellow,circle
0.0,8.0,4.0,1.0,6.0,0.0,0.0,2.0,0.0,part_2,stop,650.0,600.0,4.0,,,,,,,,,yellow,circle
0.0,7.0,3.0,1.0,5.0,5.0,728.3889680002176,2.0,0.0,part_2,stop,650.0,650.0,3.0,,,,,,,,,white,hexagon
0.0,2.0,2.0,0.0,6.0,6.0,1102.8722239989293,2.0,0.0,part_2,go,600.0,650.0,1.0,,,,,,,,,orange,flipped triangle
0.0,5.0,1.0,1.0,6.0,0.0,0.0,2.0,0.0,part_2,stop,600.0,650.0,4.0,,,,,,,,,blue,I
0.0,3.0,3.0,0.0,6.0,6.0,1029.2382259995063,2.0,0.0,part_2,go,600.0,700.0,1.0,,,,,,,,,gray,triangle
0.0,3.0,3.0,0.0,5.0,5.0,1019.4684189991676,2.0,0.0,part_2,go,600.0,700.0,1.0,,,,,,,,,gray,triangle
0.0,3.0,3.0,0.0,5.0,5.0,644.7980900011316,3.0,0.0,part_2,go,600.0,700.0,1.0,,,,,,,,,gray,triangle
0.0,2.0,2.0,0.0,6.0,6.0,530.5247690012038,3.0,0.0,part_2,go,600.0,700.0,1.0,,,,,,,,,orange,flipped triangle
0.0,2.0,2.0,0.0,5.0,5.0,649.9719180010288,3.0,0.0,part_2,go,600.0,700.0,1.0,,,,,,,,,orange,flipped triangle
0.0,6.0,2.0,1.0,6.0,6.0,345.1925329991354,3.0,0.0,part_2,stop,600.0,700.0,3.0,,,,,,,,,magenta,cross
0.0,8.0,4.0,1.0,6.0,0.0,0.0,3.0,0.0,part_2,stop,600.0,650.0,4.0,,,,,,,,,yellow,circle
0.0,1.0,1.0,0.0,6.0,6.0,730.4427089984529,3.0,0.0,part_2,go,600.0,700.0,1.0,,,,,,,,,cyan,diamond
0.0,5.0,1.0,1.0,6.0,6.0,499.6122110005672,3.0,0.0,part_2,stop,600.0,700.0,3.0,,,,,,,,,blue,I
0.0,2.0,2.0,0.0,6.0,6.0,1113.2910790001915,3.0,0.0,part_2,go,600.0,650.0,1.0,,,,,,,,,orange,flipped triangle
0.0,2.0,2.0,0.0,5.0,5.0,505.54641199960315,3.0,0.0,part_2,go,600.0,650.0,1.0,,,,,,,,,orange,flipped triangle
0.0,3.0,3.0,0.0,5.0,5.0,707.8934310011391,3.0,0.0,part_2,go,600.0,650.0,1.0,,,,,,,,,gray,triangle
0.0,1.0,1.0,0.0,6.0,6.0,928.6389459994098,3.0,0.0,part_2,go,600.0,650.0,1.0,,,,,,,,,cyan,diamond
0.0,8.0,4.0,1.0,6.0,6.0,338.7850810013333,3.0,0.0,part_2,stop,600.0,650.0,3.0,,,,,,,,,yellow,circle
0.0,3.0,3.0,0.0,5.0,5.0,310.6454999997368,3.0,0.0,part_2,go,600.0,600.0,1.0,,,,,,,,,gray,triangle
0.0,8.0,4.0,1.0,5.0,5.0,1008.9768939997157,3.0,0.0,part_2,go,600.0,600.0,1.0,,,,,,,,,yellow,circle
0.0,1.0,1.0,0.0,6.0,6.0,751.7056249998859,3.0,0.0,part_2,go,600.0,600.0,1.0,,,,,,,,,cyan,diamond
0.0,1.0,1.0,0.0,5.0,5.0,289.1734360000555,3.0,0.0,part_2,go,600.0,600.0,1.0,,,,,,,,,cyan,diamond
0.0,5.0,1.0,1.0,5.0,0.0,0.0,3.0,0.0,part_2,stop,600.0,600.0,4.0,,,,,,,,,blue,I
0.0,2.0,2.0,0.0,6.0,6.0,281.4754959999845,3.0,0.0,part_2,go,650.0,600.0,1.0,,,,,,,,,orange,flipped triangle
0.0,5.0,1.0,1.0,5.0,0.0,0.0,3.0,0.0,part_2,stop,650.0,600.0,4.0,,,,,,,,,blue,I
0.0,5.0,1.0,1.0,6.0,6.0,338.3176110000931,3.0,0.0,part_2,stop,700.0,600.0,3.0,,,,,,,,,blue,I
0.0,1.0,1.0,0.0,5.0,5.0,761.3453469984961,3.0,0.0,part_2,go,700.0,550.0,1.0,,,,,,,,,cyan,diamond
0.0,3.0,3.0,0.0,6.0,6.0,774.5443230014644,3.0,0.0,part_2,go,700.0,550.0,1.0,,,,,,,,,gray,triangle
0.0,5.0,1.0,1.0,6.0,6.0,906.0965339995164,3.0,0.0,part_2,go,700.0,550.0,1.0,,,,,,,,,blue,I
0.0,3.0,3.0,0.0,6.0,6.0,448.0216160009149,3.0,0.0,part_2,go,700.0,550.0,1.0,,,,,,,,,gray,triangle
0.0,2.0,2.0,0.0,5.0,5.0,339.6619520008244,3.0,0.0,part_2,go,700.0,550.0,1.0,,,,,,,,,orange,flipped triangle
0.0,4.0,4.0,0.0,5.0,5.0,1054.7839810005826,3.0,0.0,part_2,go,700.0,550.0,1.0,,,,,,,,,green,square
0.0,3.0,3.0,0.0,6.0,6.0,547.9587629997695,3.0,0.0,part_2,go,700.0,550.0,1.0,,,,,,,,,gray,triangle
0.0,5.0,1.0,1.0,5.0,0.0,0.0,3.0,0.0,part_2,stop,700.0,550.0,4.0,,,,,,,,,blue,I
0.0,6.0,2.0,1.0,5.0,5.0,556.3294399998995,3.0,0.0,part_2,stop,750.0,550.0,3.0,,,,,,,,,magenta,cross
0.0,5.0,1.0,1.0,5.0,5.0,878.8427969993791,3.0,0.0,part_2,stop,700.0,550.0,3.0,,,,,,,,,blue,I
0.0,1.0,1.0,0.0,6.0,6.0,826.3894939991587,3.0,0.0,part_2,go,650.0,550.0,1.0,,,,,,,,,cyan,diamond
0.0,7.0,3.0,1.0,5.0,5.0,691.4383069997712,3.0,0.0,part_2,stop,650.0,550.0,3.0,,,,,,,,,white,hexagon
0.0,1.0,1.0,0.0,5.0,5.0,909.7196440015978,3.0,0.0,part_2,go,600.0,550.0,1.0,,,,,,,,,cyan,diamond
0.0,4.0,4.0,0.0,6.0,6.0,249.7152439991623,3.0,0.0,part_2,go,600.0,550.0,1.0,,,,,,,,,green,square
0.0,6.0,2.0,1.0,5.0,5.0,596.0812819994317,3.0,0.0,part_2,stop,600.0,550.0,3.0,,,,,,,,,magenta,cross
0.0,1.0,1.0,0.0,6.0,6.0,557.7671299997746,3.0,0.0,part_2,go,550.0,550.0,1.0,,,,,,,,,cyan,diamond
0.0,3.0,3.0,0.0,5.0,5.0,1324.5797359995777,4.0,0.0,part_2,go,550.0,550.0,1.0,,,,,,,,,gray,triangle
0.0,3.0,3.0,0.0,6.0,6.0,383.3059459993819,4.0,0.0,part_2,go,550.0,550.0,1.0,,,,,,,,,gray,triangle
0.0,2.0,2.0,0.0,6.0,6.0,474.8167140005535,4.0,0.0,part_2,go,550.0,550.0,1.0,,,,,,,,,orange,flipped triangle
0.0,8.0,4.0,1.0,6.0,0.0,0.0,4.0,0.0,part_2,stop,550.0,550.0,4.0,,,,,,,,,yellow,circle
0.0,4.0,4.0,0.0,5.0,5.0,425.8829410009639,4.0,0.0,part_2,go,550.0,600.0,1.0,,,,,,,,,green,square
0.0,3.0,3.0,0.0,6.0,6.0,504.7260989995266,4.0,0.0,part_2,go,550.0,600.0,1.0,,,,,,,,,gray,triangle
0.0,4.0,4.0,0.0,6.0,6.0,733.996807000949,4.0,0.0,part_2,go,550.0,600.0,1.0,,,,,,,,,green,square
0.0,5.0,1.0,1.0,5.0,5.0,1185.0881579994166,4.0,0.0,part_2,go,550.0,600.0,1.0,,,,,,,,,blue,I
0.0,2.0,2.0,0.0,6.0,6.0,972.282445998644,4.0,0.0,part_2,go,550.0,600.0,1.0,,,,,,,,,orange,flipped triangle
0.0,6.0,2.0,1.0,5.0,5.0,433.1950900013908,4.0,0.0,part_2,stop,550.0,600.0,3.0,,,,,,,,,magenta,cross
0.0,3.0,3.0,0.0,5.0,5.0,548.0090730015945,4.0,0.0,part_2,go,500.0,600.0,1.0,,,,,,,,,gray,triangle
0.0,6.0,2.0,1.0,5.0,0.0,0.0,4.0,0.0,part_2,stop,500.0,600.0,4.0,,,,,,,,,magenta,cross
0.0,6.0,2.0,1.0,5.0,5.0,770.4938300012145,4.0,0.0,part_2,go,550.0,600.0,1.0,,,,,,,,,magenta,cross
0.0,1.0,1.0,0.0,5.0,5.0,840.167828999256,4.0,0.0,part_2,go,550.0,600.0,1.0,,,,,,,,,cyan,diamond
0.0,8.0,4.0,1.0,6.0,6.0,934.767369999463,4.0,0.0,part_2,go,550.0,600.0,1.0,,,,,,,,,yellow,circle
0.0,8.0,4.0,1.0,6.0,0.0,0.0,4.0,0.0,part_2,stop,550.0,600.0,4.0,,,,,,,,,yellow,circle
0.0,1.0,1.0,0.0,6.0,6.0,618.7402089999523,4.0,0.0,part_2,go,550.0,650.0,1.0,,,,,,,,,cyan,diamond
0.0,5.0,1.0,1.0,5.0,0.0,0.0,4.0,0.0,part_2,stop,550.0,650.0,4.0,,,,,,,,,blue,I
0.0,8.0,4.0,1.0,6.0,6.0,421.2477849996503,4.0,0.0,part_2,stop,600.0,650.0,3.0,,,,,,,,,yellow,circle
0.0,3.0,3.0,0.0,6.0,6.0,583.674928999244,4.0,0.0,part_2,go,600.0,600.0,1.0,,,,,,,,,gray,triangle
0.0,4.0,4.0,0.0,5.0,5.0,526.5326150001783,4.0,0.0,part_2,go,600.0,600.0,1.0,,,,,,,,,green,square
0.0,3.0,3.0,0.0,6.0,6.0,899.6872810002969,4.0,0.0,part_2,go,600.0,600.0,1.0,,,,,,,,,gray,triangle
0.0,7.0,3.0,1.0,5.0,5.0,490.6624039995222,4.0,0.0,part_2,go,600.0,600.0,1.0,,,,,,,,,white,hexagon
0.0,5.0,1.0,1.0,6.0,0.0,0.0,4.0,0.0,part_2,stop,600.0,600.0,4.0,,,,,,,,,blue,I
0.0,5.0,1.0,1.0,5.0,0.0,0.0,4.0,0.0,part_2,stop,600.0,650.0,4.0,,,,,,,,,blue,I
0.0,2.0,2.0,0.0,6.0,6.0,572.5753049991908,4.0,0.0,part_2,go,650.0,650.0,1.0,,,,,,,,,orange,flipped triangle
0.0,8.0,4.0,1.0,5.0,0.0,0.0,4.0,0.0,part_2,stop,650.0,650.0,4.0,,,,,,,,,yellow,circle
0.0,3.0,3.0,0.0,5.0,5.0,843.235050999283,4.0,0.0,part_2,go,700.0,650.0,1.0,,,,,,,,,gray,triangle
0.0,4.0,4.0,0.0,6.0,6.0,503.6194969998178,4.0,0.0,part_2,go,700.0,650.0,1.0,,,,,,,,,green,square
0.0,4.0,4.0,0.0,6.0,6.0,441.2579910003842,4.0,0.0,part_2,go,700.0,650.0,1.0,,,,,,,,,green,square
0.0,2.0,2.0,0.0,5.0,5.0,548.4039370003302,4.0,0.0,part_2,go,700.0,650.0,1.0,,,,,,,,,orange,flipped triangle
0.0,6.0,2.0,1.0,6.0,0.0,0.0,4.0,0.0,part_2,stop,700.0,650.0,4.0,,,,,,,,,magenta,cross
0.0,7.0,3.0,1.0,5.0,5.0,492.406937000851,4.0,0.0,part_2,stop,700.0,700.0,3.0,,,,,,,,,white,hexagon
0.0,7.0,3.0,1.0,6.0,6.0,1002.8024269995512,4.0,0.0,part_2,go,650.0,700.0,1.0,,,,,,,,,white,hexagon
0.0,5.0,1.0,1.0,5.0,0.0,0.0,4.0,0.0,part_2,stop,650.0,700.0,4.0,,,,,,,,,blue,I
0.0,7.0,3.0,1.0,5.0,0.0,0.0,4.0,0.0,part_2,stop,700.0,700.0,4.0,,,,,,,,,white,hexagon
0.0,8.0,4.0,1.0,5.0,0.0,0.0,5.0,0.0,part_2,stop,750.0,700.0,4.0,,,,,,,,,yellow,circle
0.0,8.0,4.0,1.0,6.0,6.0,1063.8575190005213,5.0,0.0,part_2,go,800.0,700.0,1.0,,,,,,,,,yellow,circle
0.0,6.0,2.0,1.0,5.0,0.0,0.0,5.0,0.0,part_2,stop,800.0,700.0,4.0,,,,,,,,,magenta,cross
0.0,7.0,3.0,1.0,6.0,0.0,0.0,5.0,0.0,part_2,stop,850.0,700.0,4.0,,,,,,,,,white,hexagon
0.0,3.0,3.0,0.0,6.0,6.0,650.6909710005857,5.0,0.0,part_2,go,850.0,750.0,1.0,,,,,,,,,gray,triangle
0.0,5.0,1.0,1.0,5.0,5.0,1272.1521690000372,5.0,0.0,part_2,go,850.0,750.0,1.0,,,,,,,,,blue,I
0.0,6.0,2.0,1.0,6.0,0.0,0.0,5.0,0.0,part_2,stop,850.0,750.0,4.0,,,,,,,,,magenta,cross
0.0,8.0,4.0,1.0,5.0,5.0,536.3317299998016,5.0,0.0,part_2,stop,850.0,800.0,3.0,,,,,,,,,yellow,circle
0.0,6.0,2.0,1.0,5.0,0.0,0.0,5.0,0.0,part_2,stop,800.0,800.0,4.0,,,,,,,,,magenta,cross
0.0,4.0,4.0,0.0,5.0,5.0,1073.6198390004574,5.0,0.0,part_2,go,850.0,800.0,1.0,,,,,,,,,green,square
0.0,7.0,3.0,1.0,5.0,0.0,0.0,5.0,0.0,part_2,stop,850.0,800.0,4.0,,,,,,,,,white,hexagon
0.0,7.0,3.0,1.0,6.0,6.0,767.7120249991276,5.0,0.0,part_2,stop,900.0,800.0,3.0,,,,,,,,,white,hexagon
0.0,8.0,4.0,1.0,5.0,0.0,0.0,5.0,0.0,part_2,stop,900.0,750.0,4.0,,,,,,,,,yellow,circle
0.0,1.0,1.0,0.0,6.0,6.0,894.6105039995018,5.0,0.0,part_2,go,950.0,750.0,1.0,,,,,,,,,cyan,diamond
0.0,5.0,1.0,1.0,6.0,0.0,0.0,5.0,0.0,part_2,stop,950.0,750.0,4.0,,,,,,,,,blue,I
0.0,4.0,4.0,0.0,5.0,5.0,1215.053910998904,5.0,0.0,part_2,go,950.0,800.0,1.0,,,,,,,,,green,square
0.0,7.0,3.0,1.0,5.0,0.0,0.0,5.0,0.0,part_2,stop,950.0,800.0,4.0,,,,,,,,,white,hexagon
0.0,2.0,2.0,0.0,6.0,6.0,586.1018229988986,5.0,0.0,part_2,go,1000.0,800.0,1.0,,,,,,,,,orange,flipped triangle
0.0,3.0,3.0,0.0,6.0,6.0,904.4308430002276,5.0,0.0,part_2,go,1000.0,800.0,1.0,,,,,,,,,gray,triangle
0.0,2.0,2.0,0.0,5.0,5.0,629.3662049993145,5.0,0.0,part_2,go,1000.0,800.0,1.0,,,,,,,,,orange,flipped triangle
0.0,1.0,1.0,0.0,6.0,6.0,1438.5266809986206,5.0,0.0,part_2,go,1000.0,800.0,1.0,,,,,,,,,cyan,diamond
0.0,6.0,2.0,1.0,5.0,5.0,1427.1854130001884,5.0,0.0,part_2,go,1000.0,800.0,1.0,,,,,,,,,magenta,cross
0.0,1.0,1.0,0.0,5.0,5.0,764.6106480005983,5.0,0.0,part_2,go,1000.0,800.0,1.0,,,,,,,,,cyan,diamond
0.0,5.0,1.0,1.0,6.0,0.0,0.0,5.0,0.0,part_2,stop,1000.0,800.0,4.0,,,,,,,,,blue,I
0.0,1.0,1.0,0.0,5.0,5.0,755.9706909996748,5.0,0.0,part_2,go,1000.0,850.0,1.0,,,,,,,,,cyan,diamond
0.0,2.0,2.0,0.0,5.0,5.0,508.2948050003324,5.0,0.0,part_2,go,1000.0,850.0,1.0,,,,,,,,,orange,flipped triangle
0.0,6.0,2.0,1.0,5.0,0.0,0.0,5.0,0.0,part_2,stop,1000.0,850.0,4.0,,,,,,,,,magenta,cross
0.0,8.0,4.0,1.0,6.0,6.0,493.3859279990429,5.0,0.0,part_2,stop,1050.0,850.0,3.0,,,,,,,,,yellow,circle
0.0,6.0,2.0,1.0,6.0,6.0,1418.6591750003572,5.0,0.0,part_2,go,1050.0,800.0,1.0,,,,,,,,,magenta,cross
0.0,8.0,4.0,1.0,5.0,0.0,0.0,5.0,0.0,part_2,stop,1050.0,800.0,4.0,,,,,,,,,yellow,circle
0.0,6.0,2.0,1.0,6.0,0.0,0.0,5.0,0.0,part_2,stop,1100.0,800.0,4.0,,,,,,,,,magenta,cross
0.0,2.0,2.0,0.0,6.0,6.0,670.9219849999499,5.0,0.0,part_2,go,1100.0,850.0,1.0,,,,,,,,,orange,flipped triangle
0.0,5.0,1.0,1.0,6.0,0.0,0.0,5.0,0.0,part_2,stop,1100.0,850.0,4.0,,,,,,,,,blue,I
0.0,8.0,4.0,1.0,5.0,0.0,0.0,5.0,0.0,part_2,stop,1100.0,900.0,4.0,,,,,,,,,yellow,circle
0.0,3.0,3.0,0.0,6.0,6.0,560.3073020010925,5.0,0.0,part_2,go,1150.0,900.0,1.0,,,,,,,,,gray,triangle
0.0,5.0,1.0,1.0,6.0,0.0,0.0,5.0,0.0,part_2,stop,1150.0,900.0,4.0,,,,,,,,,blue,I
0.0,1.0,1.0,0.0,5.0,5.0,684.4369460013695,6.0,0.0,part_2,go,1150.0,950.0,1.0,,,,,,,,,cyan,diamond
0.0,8.0,4.0,1.0,6.0,0.0,0.0,6.0,0.0,part_2,stop,1150.0,950.0,4.0,,,,,,,,,yellow,circle
0.0,1.0,1.0,0.0,5.0,5.0,924.3454829993424,6.0,0.0,part_2,go,1150.0,1000.0,1.0,,,,,,,,,cyan,diamond
0.0,1.0,1.0,0.0,6.0,6.0,817.2845750013948,6.0,0.0,part_2,go,1150.0,1000.0,1.0,,,,,,,,,cyan,diamond
0.0,5.0,1.0,1.0,6.0,0.0,0.0,6.0,0.0,part_2,go,1150.0,1000.0,5.0,,,,,,,,,blue,I
0.0,7.0,3.0,1.0,6.0,6.0,1258.9233919989056,6.0,0.0,part_2,stop,1150.0,1000.0,3.0,,,,,,,,,white,hexagon
0.0,8.0,4.0,1.0,5.0,0.0,0.0,6.0,0.0,part_2,stop,1150.0,950.0,4.0,,,,,,,,,yellow,circle
0.0,4.0,4.0,0.0,6.0,6.0,590.7847199996468,6.0,0.0,part_2,go,1200.0,950.0,1.0,,,,,,,,,green,square
0.0,3.0,3.0,0.0,6.0,6.0,533.5574689997884,6.0,0.0,part_2,go,1200.0,950.0,1.0,,,,,,,,,gray,triangle
0.0,3.0,3.0,0.0,5.0,5.0,409.3902730000991,6.0,0.0,part_2,go,1200.0,950.0,1.0,,,,,,,,,gray,triangle
0.0,8.0,4.0,1.0,5.0,0.0,0.0,6.0,0.0,part_2,stop,1200.0,950.0,4.0,,,,,,,,,yellow,circle
0.0,7.0,3.0,1.0,5.0,5.0,835.7945000007021,6.0,0.0,part_2,stop,1250.0,950.0,3.0,,,,,,,,,white,hexagon
0.0,3.0,3.0,0.0,5.0,5.0,593.7198390001868,6.0,0.0,part_2,go,1200.0,950.0,1.0,,,,,,,,,gray,triangle
0.0,6.0,2.0,1.0,6.0,0.0,0.0,6.0,0.0,part_2,stop,1200.0,950.0,4.0,,,,,,,,,magenta,cross
0.0,3.0,3.0,0.0,5.0,5.0,626.3510280004994,6.0,0.0,part_2,go,1200.0,1000.0,1.0,,,,,,,,,gray,triangle
0.0,2.0,2.0,0.0,6.0,6.0,497.4767419989803,6.0,0.0,part_2,go,1200.0,1000.0,1.0,,,,,,,,,orange,flipped triangle
0.0,6.0,2.0,1.0,6.0,0.0,0.0,6.0,0.0,part_2,go,1200.0,1000.0,5.0,,,,,,,,,magenta,cross
0.0,1.0,1.0,0.0,5.0,5.0,603.4765060012433,6.0,0.0,part_2,go,1200.0,1000.0,1.0,,,,,,,,,cyan,diamond
0.0,1.0,1.0,0.0,5.0,5.0,419.282557999395,6.0,0.0,part_2,go,1200.0,1000.0,1.0,,,,,,,,,cyan,diamond
0.0,6.0,2.0,1.0,6.0,6.0,476.6575419998844,6.0,0.0,part_2,stop,1200.0,1000.0,3.0,,,,,,,,,magenta,cross
0.0,7.0,3.0,1.0,5.0,5.0,1156.404945999384,6.0,0.0,part_2,stop,1200.0,950.0,3.0,,,,,,,,,white,hexagon
0.0,3.0,3.0,0.0,5.0,5.0,1036.6839580001397,6.0,0.0,part_2,go,1150.0,950.0,1.0,,,,,,,,,gray,triangle
0.0,2.0,2.0,0.0,5.0,5.0,487.9517720000876,6.0,0.0,part_2,go,1150.0,950.0,1.0,,,,,,,,,orange,flipped triangle
0.0,8.0,4.0,1.0,5.0,0.0,0.0,6.0,0.0,part_2,stop,1150.0,950.0,4.0,,,,,,,,,yellow,circle
0.0,8.0,4.0,1.0,5.0,5.0,1237.2189249999792,6.0,0.0,part_2,stop,1200.0,950.0,3.0,,,,,,,,,yellow,circle
0.0,8.0,4.0,1.0,5.0,0.0,0.0,6.0,0.0,part_2,stop,1150.0,950.0,4.0,,,,,,,,,yellow,circle
0.0,4.0,4.0,0.0,6.0,6.0,993.5594760008826,6.0,0.0,part_2,go,1200.0,950.0,1.0,,,,,,,,,green,square
0.0,6.0,2.0,1.0,5.0,0.0,0.0,6.0,0.0,part_2,stop,1200.0,950.0,4.0,,,,,,,,,magenta,cross
0.0,7.0,3.0,1.0,6.0,0.0,0.0,6.0,0.0,part_2,stop,1250.0,950.0,4.0,,,,,,,,,white,hexagon
0.0,2.0,2.0,0.0,5.0,5.0,571.8095270003687,6.0,0.0,part_2,go,1250.0,1000.0,1.0,,,,,,,,,orange,flipped triangle
0.0,5.0,1.0,1.0,6.0,0.0,0.0,6.0,0.0,part_2,go,1250.0,1000.0,5.0,,,,,,,,,blue,I
0.0,5.0,1.0,1.0,5.0,5.0,590.5855370001518,6.0,0.0,part_2,stop,1250.0,1000.0,3.0,,,,,,,,,blue,I
0.0,6.0,2.0,1.0,6.0,0.0,0.0,6.0,0.0,part_2,stop,1200.0,1000.0,4.0,,,,,,,,,magenta,cross
0.0,5.0,1.0,1.0,6.0,0.0,0.0,6.0,0.0,part_2,stop,1200.0,1050.0,4.0,,,,,,,,,blue,I
0.0,3.0,3.0,0.0,5.0,5.0,1229.2817220004508,6.0,0.0,part_2,go,1200.0,1100.0,1.0,,,,,,,,,gray,triangle
0.0,7.0,3.0,1.0,6.0,6.0,434.0700500015373,6.0,0.0,part_2,go,1200.0,1100.0,1.0,,,,,,,,,white,hexagon
0.0,7.0,3.0,1.0,5.0,5.0,783.8609110003745,7.0,0.0,part_2,stop,1200.0,1100.0,3.0,,,,,,,,,white,hexagon
0.0,4.0,4.0,0.0,6.0,6.0,666.934355000194,7.0,0.0,part_2,go,1150.0,1100.0,1.0,,,,,,,,,green,square
0.0,4.0,4.0,0.0,5.0,5.0,819.3122230004519,7.0,0.0,part_2,go,1150.0,1100.0,1.0,,,,,,,,,green,square
0.0,1.0,1.0,0.0,6.0,6.0,337.8937639990909,7.0,0.0,part_2,go,1150.0,1100.0,1.0,,,,,,,,,cyan,diamond
0.0,2.0,2.0,0.0,5.0,5.0,391.4464610006689,7.0,0.0,part_2,go,1150.0,1100.0,1.0,,,,,,,,,orange,flipped triangle
0.0,5.0,1.0,1.0,6.0,0.0,0.0,7.0,0.0,part_2,stop,1150.0,1100.0,4.0,,,,,,,,,blue,I
0.0,7.0,3.0,1.0,6.0,6.0,468.4504319993721,7.0,0.0,part_2,stop,1150.0,1150.0,3.0,,,,,,,,,white,hexagon
0.0,4.0,4.0,0.0,5.0,5.0,338.6209879990929,7.0,0.0,part_2,go,1150.0,1100.0,1.0,,,,,,,,,green,square
0.0,1.0,1.0,0.0,6.0,6.0,369.2505470007745,7.0,0.0,part_2,go,1150.0,1100.0,1.0,,,,,,,,,cyan,diamond
0.0,6.0,2.0,1.0,6.0,0.0,0.0,7.0,0.0,part_2,stop,1150.0,1100.0,4.0,,,,,,,,,magenta,cross
0.0,6.0,2.0,1.0,5.0,0.0,0.0,7.0,0.0,part_2,go,1150.0,1150.0,5.0,,,,,,,,,magenta,cross
0.0,7.0,3.0,1.0,5.0,5.0,573.1024340002477,7.0,0.0,part_2,go,1150.0,1150.0,1.0,,,,,,,,,white,hexagon
0.0,6.0,2.0,1.0,5.0,0.0,0.0,7.0,0.0,part_2,stop,1150.0,1150.0,4.0,,,,,,,,,magenta,cross
0.0,6.0,2.0,1.0,6.0,6.0,1430.86707799921,7.0,0.0,part_2,go,1200.0,1150.0,1.0,,,,,,,,,magenta,cross
0.0,2.0,2.0,0.0,5.0,5.0,588.2397639998089,7.0,0.0,part_2,go,1200.0,1150.0,1.0,,,,,,,,,orange,flipped triangle
0.0,6.0,2.0,1.0,5.0,5.0,447.1112329993048,7.0,0.0,part_2,stop,1200.0,1150.0,3.0,,,,,,,,,magenta,cross
0.0,1.0,1.0,0.0,6.0,6.0,581.2661780000781,7.0,0.0,part_2,go,1150.0,1150.0,1.0,,,,,,,,,cyan,diamond
0.0,5.0,1.0,1.0,5.0,5.0,1403.6501460013824,7.0,0.0,part_2,go,1150.0,1150.0,1.0,,,,,,,,,blue,I
0.0,2.0,2.0,0.0,5.0,5.0,542.621254999176,7.0,0.0,part_2,go,1150.0,1150.0,1.0,,,,,,,,,orange,flipped triangle
0.0,3.0,3.0,0.0,5.0,5.0,647.0586800005549,7.0,0.0,part_2,go,1150.0,1150.0,1.0,,,,,,,,,gray,triangle
0.0,6.0,2.0,1.0,5.0,5.0,1205.3272489993103,7.0,0.0,part_2,stop,1150.0,1150.0,3.0,,,,,,,,,magenta,cross
0.0,4.0,4.0,0.0,6.0,6.0,512.0698800001264,7.0,0.0,part_2,go,1100.0,1150.0,1.0,,,,,,,,,green,square
0.0,7.0,3.0,1.0,6.0,6.0,447.9907340009958,7.0,0.0,part_2,stop,1100.0,1150.0,3.0,,,,,,,,,white,hexagon
0.0,7.0,3.0,1.0,5.0,0.0,0.0,7.0,0.0,part_2,stop,1100.0,1100.0,4.0,,,,,,,,,white,hexagon
0.0,6.0,2.0,1.0,6.0,0.0,0.0,7.0,0.0,part_2,go,1150.0,1100.0,5.0,,,,,,,,,magenta,cross
0.0,4.0,4.0,0.0,5.0,5.0,560.1524779995088,7.0,0.0,part_2,go,1150.0,1100.0,1.0,,,,,,,,,green,square
0.0,1.0,1.0,0.0,5.0,5.0,457.5766079997265,7.0,0.0,part_2,go,1150.0,1100.0,1.0,,,,,,,,,cyan,diamond
0.0,3.0,3.0,0.0,6.0,6.0,595.0607839986333,7.0,0.0,part_2,go,1150.0,1100.0,1.0,,,,,,,,,gray,triangle
0.0,8.0,4.0,1.0,6.0,6.0,318.1897110007412,7.0,0.0,part_2,stop,1150.0,1100.0,3.0,,,,,,,,,yellow,circle
0.0,7.0,3.0,1.0,6.0,6.0,352.607638000336,7.0,0.0,part_2,stop,1150.0,1050.0,3.0,,,,,,,,,white,hexagon
0.0,3.0,3.0,0.0,6.0,6.0,426.1168920002092,7.0,0.0,part_2,go,1150.0,1000.0,1.0,,,,,,,,,gray,triangle
0.0,8.0,4.0,1.0,5.0,5.0,1076.396651998948,7.0,0.0,part_2,stop,1150.0,1000.0,3.0,,,,,,,,,yellow,circle
0.0,2.0,2.0,0.0,6.0,6.0,473.5581220011227,7.0,0.0,part_2,go,1100.0,1000.0,1.0,,,,,,,,,orange,flipped triangle
0.0,1.0,1.0,0.0,6.0,6.0,726.1732709994249,7.0,0.0,part_2,go,1100.0,1000.0,1.0,,,,,,,,,cyan,diamond
0.0,2.0,2.0,0.0,5.0,5.0,514.6681610003725,7.0,0.0,part_2,go,1100.0,1000.0,1.0,,,,,,,,,orange,flipped triangle
0.0,7.0,3.0,1.0,6.0,6.0,478.5815850009385,7.0,0.0,part_2,stop,1100.0,1000.0,3.0,,,,,,,,,white,hexagon
0.0,8.0,4.0,1.0,5.0,5.0,858.248676000585,8.0,0.0,part_2,stop,1100.0,950.0,3.0,,,,,,,,,yellow,circle
0.0,4.0,4.0,0.0,6.0,6.0,758.4830280011374,8.0,0.0,part_2,go,1050.0,950.0,1.0,,,,,,,,,green,square
0.0,5.0,1.0,1.0,6.0,0.0,0.0,8.0,0.0,part_2,stop,1050.0,950.0,4.0,,,,,,,,,blue,I
0.0,8.0,4.0,1.0,5.0,5.0,1446.9693540013395,8.0,0.0,part_2,go,1050.0,1000.0,1.0,,,,,,,,,yellow,circle
0.0,3.0,3.0,0.0,5.0,5.0,674.5360650002112,8.0,0.0,part_2,go,1050.0,1000.0,1.0,,,,,,,,,gray,triangle
0.0,3.0,3.0,0.0,6.0,6.0,312.5638969995634,8.0,0.0,part_2,go,1050.0,1000.0,1.0,,,,,,,,,gray,triangle
0.0,4.0,4.0,0.0,5.0,5.0,527.6738229986222,8.0,0.0,part_2,go,1050.0,1000.0,1.0,,,,,,,,,green,square
0.0,8.0,4.0,1.0,6.0,6.0,1224.9451169991517,8.0,0.0,part_2,go,1050.0,1000.0,1.0,,,,,,,,,yellow,circle
0.0,1.0,1.0,0.0,6.0,6.0,1242.8607889996783,8.0,0.0,part_2,go,1050.0,1000.0,1.0,,,,,,,,,cyan,diamond
0.0,1.0,1.0,0.0,5.0,5.0,337.2617460008769,8.0,0.0,part_2,go,1050.0,1000.0,1.0,,,,,,,,,cyan,diamond
0.0,6.0,2.0,1.0,6.0,0.0,0.0,8.0,0.0,part_2,stop,1050.0,1000.0,4.0,,,,,,,,,magenta,cross
0.0,5.0,1.0,1.0,5.0,0.0,0.0,8.0,0.0,part_2,stop,1050.0,1050.0,4.0,,,,,,,,,blue,I
0.0,3.0,3.0,0.0,5.0,5.0,839.7335379995639,8.0,0.0,part_2,go,1100.0,1050.0,1.0,,,,,,,,,gray,triangle
0.0,1.0,1.0,0.0,5.0,5.0,980.0404390007316,8.0,0.0,part_2,go,1100.0,1050.0,1.0,,,,,,,,,cyan,diamond
0.0,1.0,1.0,0.0,5.0,5.0,599.5004039996275,8.0,0.0,part_2,go,1100.0,1050.0,1.0,,,,,,,,,cyan,diamond
0.0,1.0,1.0,0.0,5.0,5.0,414.190741999846,8.0,0.0,part_2,go,1100.0,1050.0,1.0,,,,,,,,,cyan,diamond
0.0,7.0,3.0,1.0,6.0,6.0,1321.8663220013696,8.0,0.0,part_2,go,1100.0,1050.0,1.0,,,,,,,,,white,hexagon
0.0,1.0,1.0,0.0,6.0,6.0,421.9162900008086,8.0,0.0,part_2,go,1100.0,1050.0,1.0,,,,,,,,,cyan,diamond
0.0,8.0,4.0,1.0,5.0,5.0,1099.2548860012905,8.0,0.0,part_2,go,1100.0,1050.0,1.0,,,,,,,,,yellow,circle
0.0,4.0,4.0,0.0,5.0,5.0,663.0530860002182,8.0,0.0,part_2,go,1100.0,1050.0,1.0,,,,,,,,,green,square
0.0,5.0,1.0,1.0,5.0,0.0,0.0,8.0,0.0,part_2,stop,1100.0,1050.0,4.0,,,,,,,,,blue,I
0.0,7.0,3.0,1.0,5.0,5.0,581.662940001479,8.0,0.0,part_2,stop,1150.0,1050.0,3.0,,,,,,,,,white,hexagon
0.0,8.0,4.0,1.0,6.0,6.0,1091.9242180007132,8.0,0.0,part_2,stop,1100.0,1050.0,3.0,,,,,,,,,yellow,circle
0.0,4.0,4.0,0.0,5.0,5.0,610.313037999731,8.0,0.0,part_2,go,1100.0,1000.0,1.0,,,,,,,,,green,square
0.0,6.0,2.0,1.0,6.0,0.0,0.0,8.0,0.0,part_2,stop,1100.0,1000.0,4.0,,,,,,,,,magenta,cross
0.0,2.0,2.0,0.0,5.0,5.0,521.6628520011,8.0,0.0,part_2,go,1100.0,1050.0,1.0,,,,,,,,,orange,flipped triangle
0.0,1.0,1.0,0.0,5.0,5.0,536.2925879999239,8.0,0.0,part_2,go,1100.0,1050.0,1.0,,,,,,,,,cyan,diamond
0.0,6.0,2.0,1.0,6.0,0.0,0.0,8.0,0.0,part_2,stop,1100.0,1050.0,4.0,,,,,,,,,magenta,cross
0.0,3.0,3.0,0.0,6.0,6.0,636.2795000004553,8.0,0.0,part_2,go,1100.0,1100.0,1.0,,,,,,,,,gray,triangle
0.0,6.0,2.0,1.0,5.0,0.0,0.0,8.0,0.0,part_2,go,1100.0,1100.0,5.0,,,,,,,,,magenta,cross
0.0,2.0,2.0,0.0,5.0,5.0,642.8581670006679,8.0,0.0,part_2,go,1100.0,1100.0,1.0,,,,,,,,,orange,flipped triangle
0.0,5.0,1.0,1.0,6.0,6.0,1409.081565998349,8.0,0.0,part_2,go,1100.0,1100.0,1.0,,,,,,,,,blue,I
0.0,4.0,4.0,0.0,5.0,5.0,597.3324580008921,8.0,0.0,part_2,go,1100.0,1100.0,1.0,,,,,,,,,green,square
0.0,5.0,1.0,1.0,6.0,0.0,0.0,8.0,0.0,part_2,stop,1100.0,1100.0,4.0,,,,,,,,,blue,I
0.0,7.0,3.0,1.0,5.0,5.0,548.3693339992897,8.0,0.0,part_2,stop,1100.0,1150.0,3.0,,,,,,,,,white,hexagon
0.0,7.0,3.0,1.0,6.0,6.0,682.2844079997594,8.0,0.0,part_2,go,1050.0,1150.0,1.0,,,,,,,,,white,hexagon
0.0,4.0,4.0,0.0,7.0,3.0,1618.1981310000992,1.0,2.0,part_3,go,0.0,0.0,0.0,117.0,3.0,234.0,156.0,117.0,195.0,39.0,78.0,green,square
0.0,7.0,3.0,1.0,7.0,1.0,3122.924455001339,1.0,2.0,part_3,go,0.0,0.0,0.0,102.0,3.0,102.0,34.0,204.0,170.0,136.0,68.0,white,hexagon
0.0,8.0,4.0,1.0,7.0,2.0,4376.88376999904,1.0,1.0,part_3,go,0.0,0.0,0.0,196.0,4.0,245.0,196.0,98.0,49.0,147.0,294.0,yellow,circle
0.0,8.0,4.0,1.0,7.0,4.0,4024.2481639998005,1.0,1.0,part_3,go,0.0,0.0,0.0,195.0,5.0,78.0,117.0,156.0,195.0,39.0,234.0,yellow,circle
0.0,8.0,4.0,1.0,7.0,2.0,4545.018527000138,1.0,1.0,part_3,go,0.0,0.0,0.0,170.0,5.0,102.0,170.0,34.0,68.0,204.0,136.0,yellow,circle
0.0,5.0,1.0,1.0,7.0,1.0,2893.4247249999316,1.0,1.0,part_3,go,0.0,0.0,0.0,34.0,1.0,34.0,68.0,170.0,136.0,204.0,102.0,blue,I
0.0,4.0,4.0,0.0,7.0,6.0,2810.7088370015845,1.0,1.0,part_3,go,0.0,0.0,0.0,170.0,5.0,102.0,34.0,68.0,204.0,136.0,170.0,green,square
0.0,2.0,2.0,0.0,7.0,3.0,2813.295116999143,1.0,1.0,part_3,go,0.0,0.0,0.0,204.0,6.0,102.0,170.0,204.0,68.0,34.0,136.0,orange,flipped triangle
0.0,8.0,4.0,1.0,7.0,5.0,3601.1552549989574,1.0,1.0,part_3,go,0.0,0.0,0.0,220.0,5.0,176.0,88.0,264.0,132.0,220.0,44.0,yellow,circle
0.0,6.0,2.0,1.0,7.0,2.0,3319.3170790000295,1.0,1.0,part_3,go,0.0,0.0,0.0,68.0,2.0,102.0,68.0,170.0,34.0,136.0,204.0,magenta,cross
0.0,3.0,3.0,0.0,7.0,3.0,2037.1333910006797,1.0,1.0,part_3,go,0.0,0.0,0.0,162.0,3.0,108.0,324.0,162.0,54.0,270.0,216.0,gray,triangle
0.0,1.0,1.0,0.0,7.0,4.0,4787.801304000823,1.0,1.0,part_3,go,0.0,0.0,0.0,324.0,6.0,216.0,162.0,108.0,324.0,270.0,54.0,cyan,diamond
0.0,6.0,2.0,1.0,7.0,3.0,3191.495588998805,1.0,1.0,part_3,go,0.0,0.0,0.0,108.0,2.0,270.0,324.0,108.0,54.0,216.0,162.0,magenta,cross
0.0,4.0,4.0,0.0,7.0,4.0,2429.767185998571,1.0,1.0,part_3,go,0.0,0.0,0.0,196.0,4.0,49.0,147.0,245.0,196.0,98.0,294.0,green,square
0.0,5.0,1.0,1.0,7.0,4.0,2442.3941090008157,1.0,1.0,part_3,go,0.0,0.0,0.0,54.0,1.0,108.0,162.0,324.0,54.0,216.0,270.0,blue,I
0.0,2.0,2.0,0.0,7.0,3.0,3003.957092001656,1.0,1.0,part_3,go,0.0,0.0,0.0,264.0,6.0,88.0,132.0,264.0,176.0,220.0,44.0,orange,flipped triangle
0.0,8.0,4.0,1.0,7.0,4.0,4397.561516001588,1.0,1.0,part_3,go,0.0,0.0,0.0,170.0,5.0,204.0,136.0,102.0,170.0,68.0,34.0,yellow,circle
0.0,3.0,3.0,0.0,7.0,4.0,2461.5508019996923,1.0,1.0,part_3,go,0.0,0.0,0.0,162.0,3.0,324.0,216.0,54.0,162.0,270.0,108.0,gray,triangle
0.0,5.0,1.0,1.0,7.0,5.0,3416.9792080010666,1.0,1.0,part_3,go,0.0,0.0,0.0,44.0,1.0,88.0,176.0,220.0,132.0,44.0,264.0,blue,I
0.0,1.0,1.0,0.0,7.0,3.0,2449.5231919991056,1.0,1.0,part_3,go,0.0,0.0,0.0,117.0,3.0,234.0,39.0,117.0,195.0,78.0,156.0,cyan,diamond
0.0,5.0,1.0,1.0,7.0,4.0,1631.0797139994977,2.0,1.0,part_3,go,0.0,0.0,0.0,98.0,2.0,196.0,147.0,294.0,98.0,49.0,245.0,blue,I
0.0,4.0,4.0,0.0,7.0,3.0,2631.435605000661,2.0,1.0,part_3,go,0.0,0.0,0.0,136.0,4.0,102.0,34.0,136.0,204.0,68.0,170.0,green,square
0.0,4.0,4.0,0.0,7.0,5.0,3024.2250970004534,2.0,1.0,part_3,go,0.0,0.0,0.0,264.0,6.0,132.0,176.0,44.0,220.0,264.0,88.0,green,square
0.0,8.0,4.0,1.0,7.0,3.0,3533.8300530002016,2.0,1.0,part_3,go,0.0,0.0,0.0,162.0,3.0,216.0,324.0,162.0,54.0,270.0,108.0,yellow,circle
0.0,4.0,4.0,0.0,7.0,1.0,3551.3894760006224,2.0,1.0,part_3,go,0.0,0.0,0.0,220.0,5.0,220.0,132.0,44.0,264.0,88.0,176.0,green,square
0.0,1.0,1.0,0.0,7.0,3.0,3711.2854389997665,2.0,1.0,part_3,go,0.0,0.0,0.0,216.0,4.0,324.0,270.0,216.0,54.0,162.0,108.0,cyan,diamond
0.0,8.0,4.0,1.0,7.0,5.0,3364.158280999618,2.0,1.0,part_3,go,0.0,0.0,0.0,220.0,5.0,88.0,44.0,176.0,264.0,220.0,132.0,yellow,circle
0.0,4.0,4.0,0.0,7.0,2.0,3328.249762998894,2.0,1.0,part_3,go,0.0,0.0,0.0,216.0,4.0,108.0,216.0,54.0,324.0,270.0,162.0,green,square
0.0,6.0,2.0,1.0,7.0,4.0,3280.0367750005535,2.0,1.0,part_3,go,0.0,0.0,0.0,39.0,1.0,78.0,156.0,195.0,39.0,117.0,234.0,magenta,cross
0.0,3.0,3.0,0.0,7.0,2.0,3004.0555340001447,2.0,1.0,part_3,go,0.0,0.0,0.0,176.0,4.0,132.0,176.0,44.0,220.0,264.0,88.0,gray,triangle
0.0,3.0,3.0,0.0,7.0,1.0,2479.416909000065,2.0,1.0,part_3,go,0.0,0.0,0.0,147.0,3.0,147.0,294.0,49.0,196.0,98.0,245.0,gray,triangle
0.0,7.0,3.0,1.0,7.0,2.0,2168.667189000189,2.0,1.0,part_3,go,0.0,0.0,0.0,108.0,2.0,324.0,108.0,216.0,162.0,270.0,54.0,white,hexagon
0.0,2.0,2.0,0.0,7.0,5.0,2936.4512729989656,2.0,1.0,part_3,go,0.0,0.0,0.0,264.0,6.0,220.0,176.0,88.0,132.0,264.0,44.0,orange,flipped triangle
0.0,5.0,1.0,1.0,7.0,2.0,4157.274455999868,2.0,1.0,part_3,go,0.0,0.0,0.0,44.0,1.0,132.0,44.0,176.0,220.0,264.0,88.0,blue,I
0.0,6.0,2.0,1.0,7.0,2.0,1988.0914200002735,2.0,1.0,part_3,go,0.0,0.0,0.0,98.0,2.0,196.0,98.0,245.0,147.0,49.0,294.0,magenta,cross
0.0,7.0,3.0,1.0,7.0,1.0,2275.1443150009436,2.0,1.0,part_3,go,0.0,0.0,0.0,136.0,4.0,136.0,170.0,34.0,68.0,204.0,102.0,white,hexagon
0.0,5.0,1.0,1.0,7.0,4.0,3427.18244200114,2.0,1.0,part_3,go,0.0,0.0,0.0,54.0,1.0,108.0,270.0,162.0,54.0,324.0,216.0,blue,I
0.0,6.0,2.0,1.0,7.0,5.0,4353.348307000488,2.0,1.0,part_3,go,0.0,0.0,0.0,78.0,2.0,234.0,39.0,195.0,117.0,78.0,156.0,magenta,cross
0.0,2.0,2.0,0.0,7.0,5.0,4947.685850000198,2.0,1.0,part_3,go,0.0,0.0,0.0,294.0,6.0,245.0,196.0,98.0,49.0,294.0,147.0,orange,flipped triangle
0.0,7.0,3.0,1.0,7.0,3.0,2164.394457999151,2.0,1.0,part_3,go,0.0,0.0,0.0,132.0,3.0,44.0,176.0,132.0,88.0,220.0,264.0,white,hexagon
0.0,4.0,4.0,0.0,7.0,3.0,3213.427071001206,3.0,1.0,part_3,go,0.0,0.0,0.0,147.0,3.0,49.0,294.0,147.0,245.0,98.0,196.0,green,square
0.0,5.0,1.0,1.0,7.0,6.0,4653.903901000376,3.0,1.0,part_3,go,0.0,0.0,0.0,34.0,1.0,136.0,204.0,68.0,102.0,170.0,34.0,blue,I
0.0,5.0,1.0,1.0,7.0,3.0,2136.5266390002944,3.0,1.0,part_3,go,0.0,0.0,0.0,39.0,1.0,234.0,117.0,39.0,156.0,78.0,195.0,blue,I
0.0,6.0,2.0,1.0,7.0,5.0,2112.6496359993325,3.0,1.0,part_3,go,0.0,0.0,0.0,68.0,2.0,34.0,136.0,170.0,204.0,68.0,102.0,magenta,cross
0.0,3.0,3.0,0.0,7.0,4.0,4913.358354999218,3.0,1.0,part_3,go,0.0,0.0,0.0,196.0,4.0,294.0,245.0,49.0,196.0,98.0,147.0,gray,triangle
0.0,2.0,2.0,0.0,7.0,3.0,2566.30359600058,3.0,1.0,part_3,go,0.0,0.0,0.0,196.0,4.0,98.0,147.0,196.0,49.0,294.0,245.0,orange,flipped triangle
0.0,6.0,2.0,1.0,7.0,3.0,1360.1951700002246,3.0,1.0,part_3,go,0.0,0.0,0.0,88.0,2.0,220.0,44.0,88.0,264.0,132.0,176.0,magenta,cross
0.0,5.0,1.0,1.0,7.0,1.0,2594.75071199995,3.0,1.0,part_3,go,0.0,0.0,0.0,49.0,1.0,49.0,196.0,147.0,245.0,98.0,294.0,blue,I
0.0,3.0,3.0,0.0,7.0,1.0,3680.2033220010344,3.0,1.0,part_3,go,0.0,0.0,0.0,176.0,4.0,176.0,132.0,264.0,88.0,44.0,220.0,gray,triangle
0.0,1.0,1.0,0.0,7.0,5.0,2884.2138550007803,3.0,1.0,part_3,go,0.0,0.0,0.0,195.0,5.0,78.0,39.0,234.0,156.0,195.0,117.0,cyan,diamond
0.0,1.0,1.0,0.0,7.0,5.0,3449.3390580009873,3.0,1.0,part_3,go,0.0,0.0,0.0,170.0,5.0,34.0,136.0,204.0,68.0,170.0,102.0,cyan,diamond
0.0,8.0,4.0,1.0,7.0,3.0,2209.717552999791,3.0,1.0,part_3,go,0.0,0.0,0.0,234.0,6.0,117.0,39.0,234.0,78.0,156.0,195.0,yellow,circle
0.0,1.0,1.0,0.0,7.0,2.0,2846.816444000069,3.0,1.0,part_3,go,0.0,0.0,0.0,204.0,6.0,34.0,204.0,136.0,68.0,102.0,170.0,cyan,diamond
0.0,3.0,3.0,0.0,7.0,1.0,2961.3987140000972,3.0,1.0,part_3,go,0.0,0.0,0.0,195.0,5.0,195.0,156.0,78.0,117.0,234.0,39.0,gray,triangle
0.0,7.0,3.0,1.0,7.0,2.0,1795.1525999997102,3.0,2.0,part_3,go,0.0,0.0,0.0,98.0,2.0,294.0,98.0,245.0,49.0,196.0,147.0,white,hexagon
0.0,4.0,4.0,0.0,7.0,5.0,3826.42371700058,3.0,1.0,part_3,go,0.0,0.0,0.0,216.0,4.0,270.0,324.0,54.0,108.0,216.0,162.0,green,square
0.0,2.0,2.0,0.0,7.0,3.0,2926.6087859996333,3.0,1.0,part_3,go,0.0,0.0,0.0,270.0,5.0,54.0,216.0,270.0,324.0,108.0,162.0,orange,flipped triangle
0.0,1.0,1.0,0.0,7.0,3.0,3079.938193999624,3.0,1.0,part_3,go,0.0,0.0,0.0,294.0,6.0,49.0,196.0,294.0,98.0,147.0,245.0,cyan,diamond
0.0,2.0,2.0,0.0,7.0,1.0,3302.926888000002,3.0,1.0,part_3,go,0.0,0.0,0.0,270.0,5.0,270.0,54.0,324.0,162.0,108.0,216.0,orange,flipped triangle
0.0,6.0,2.0,1.0,7.0,4.0,3526.784226998643,3.0,2.0,part_3,go,0.0,0.0,0.0,54.0,1.0,216.0,162.0,108.0,54.0,270.0,324.0,magenta,cross
0.0,3.0,3.0,0.0,7.0,4.0,2937.93720999929,4.0,1.0,part_3,go,0.0,0.0,0.0,78.0,2.0,195.0,117.0,156.0,78.0,39.0,234.0,gray,triangle
0.0,3.0,3.0,0.0,7.0,2.0,1674.533932000486,4.0,1.0,part_3,go,0.0,0.0,0.0,170.0,5.0,68.0,170.0,102.0,204.0,136.0,34.0,gray,triangle
0.0,7.0,3.0,1.0,7.0,4.0,1487.842140999419,4.0,1.0,part_3,go,0.0,0.0,0.0,88.0,2.0,44.0,220.0,132.0,88.0,264.0,176.0,white,hexagon
0.0,2.0,2.0,0.0,7.0,3.0,1924.0194899994096,4.0,1.0,part_3,go,0.0,0.0,0.0,195.0,5.0,78.0,39.0,195.0,117.0,234.0,156.0,orange,flipped triangle
0.0,2.0,2.0,0.0,7.0,4.0,2384.140463998847,4.0,1.0,part_3,go,0.0,0.0,0.0,195.0,5.0,78.0,117.0,234.0,195.0,39.0,156.0,orange,flipped triangle
0.0,4.0,4.0,0.0,7.0,4.0,2694.7517360003985,4.0,1.0,part_3,go,0.0,0.0,0.0,195.0,5.0,156.0,78.0,39.0,195.0,117.0,234.0,green,square
0.0,6.0,2.0,1.0,7.0,4.0,3406.947808998666,4.0,1.0,part_3,go,0.0,0.0,0.0,49.0,1.0,196.0,294.0,245.0,49.0,147.0,98.0,magenta,cross
0.0,1.0,1.0,0.0,7.0,3.0,4548.0536820014095,4.0,1.0,part_3,go,0.0,0.0,0.0,220.0,5.0,264.0,44.0,220.0,88.0,132.0,176.0,cyan,diamond
0.0,8.0,4.0,1.0,7.0,4.0,2627.3646560002817,4.0,1.0,part_3,go,0.0,0.0,0.0,245.0,5.0,98.0,49.0,196.0,245.0,147.0,294.0,yellow,circle
0.0,7.0,3.0,1.0,7.0,1.0,3100.8566559994506,4.0,1.0,part_3,go,0.0,0.0,0.0,156.0,4.0,156.0,117.0,195.0,39.0,234.0,78.0,white,hexagon
0.0,7.0,3.0,1.0,7.0,4.0,2494.1928700009157,4.0,1.0,part_3,go,0.0,0.0,0.0,162.0,3.0,324.0,108.0,216.0,162.0,270.0,54.0,white,hexagon
0.0,5.0,1.0,1.0,7.0,4.0,2262.918921000164,4.0,1.0,part_3,go,0.0,0.0,0.0,39.0,1.0,117.0,195.0,234.0,39.0,78.0,156.0,blue,I
0.0,2.0,2.0,0.0,7.0,4.0,2832.3463149990857,4.0,1.0,part_3,go,0.0,0.0,0.0,204.0,6.0,170.0,34.0,68.0,204.0,102.0,136.0,orange,flipped triangle
0.0,3.0,3.0,0.0,7.0,5.0,3490.41287,4.0,1.0,part_3,go,0.0,0.0,0.0,170.0,5.0,204.0,136.0,34.0,68.0,170.0,102.0,gray,triangle
0.0,1.0,1.0,0.0,7.0,3.0,4434.0513960014505,4.0,1.0,part_3,go,0.0,0.0,0.0,176.0,4.0,132.0,88.0,176.0,264.0,44.0,220.0,cyan,diamond
0.0,1.0,1.0,0.0,7.0,5.0,3446.3354840008833,4.0,1.0,part_3,go,0.0,0.0,0.0,196.0,4.0,245.0,294.0,147.0,49.0,196.0,98.0,cyan,diamond
0.0,6.0,2.0,1.0,7.0,3.0,2697.7545370009466,4.0,1.0,part_3,go,0.0,0.0,0.0,88.0,2.0,176.0,132.0,88.0,264.0,44.0,220.0,magenta,cross
0.0,8.0,4.0,1.0,7.0,5.0,2523.4117159998277,4.0,1.0,part_3,go,0.0,0.0,0.0,270.0,5.0,54.0,108.0,216.0,162.0,270.0,324.0,yellow,circle
0.0,7.0,3.0,1.0,7.0,2.0,3064.3768879999698,4.0,2.0,part_3,go,0.0,0.0,0.0,195.0,5.0,234.0,195.0,156.0,117.0,78.0,39.0,white,hexagon
0.0,7.0,3.0,1.0,7.0,4.0,3839.6486620004,4.0,1.0,part_3,go,0.0,0.0,0.0,196.0,4.0,245.0,49.0,147.0,196.0,294.0,98.0,white,hexagon
