raw_reward_magnitude,stim_reward,stepwise_reward_magnitude,paired_with_stopping,quadrant,response,reaction_time,block,num_trial_presentations,which_part,stop_signal_trial_type,left_SSD,right_SSD,accuracy,chosen_bidding_amount,chosen_bidding_level,possible_bid_1,possible_bid_2,possible_bid_3,possible_bid_4,possible_bid_5,possible_bid_6,color_text,shape_text
197.0,3.0,3.0,0.0,1.0,1.0,571.9768320000185,1.0,1.0,part_1,,,,,,,,,,,,,cyan,triangle
190.0,3.0,3.0,0.0,4.0,4.0,395.5763890003254,1.0,1.0,part_1,,,,,,,,,,,,,cyan,triangle
211.0,7.0,3.0,1.0,4.0,4.0,374.289857000349,1.0,1.0,part_1,,,,,,,,,,,,,yellow,diamond
0.0,4.0,0.0,0.0,1.0,1.0,459.3863529998998,1.0,1.0,part_1,,,,,,,,,,,,,gray,hexagon
220.0,7.0,3.0,1.0,4.0,4.0,365.670463999777,1.0,1.0,part_1,,,,,,,,,,,,,yellow,diamond
217.0,3.0,3.0,0.0,2.0,2.0,395.1976719999948,1.0,1.0,part_1,,,,,,,,,,,,,cyan,triangle
210.0,3.0,3.0,0.0,4.0,4.0,316.3981589996183,1.0,1.0,part_1,,,,,,,,,,,,,cyan,triangle
28.0,1.0,1.0,0.0,4.0,4.0,359.0582750002795,1.0,1.0,part_1,,,,,,,,,,,,,green,circle
34.0,5.0,1.0,1.0,4.0,4.0,326.7119189999903,1.0,1.0,part_1,,,,,,,,,,,,,white,I
36.0,1.0,1.0,0.0,2.0,2.0,348.7069160000828,1.0,1.0,part_1,,,,,,,,,,,,,green,circle
0.0,5.0,0.0,1.0,1.0,1.0,428.051989999858,1.0,1.0,part_1,,,,,,,,,,,,,white,I
400.0,8.0,4.0,1.0,4.0,4.0,365.0984179998886,1.0,1.0,part_1,,,,,,,,,,,,,magenta,flipped triangle
215.0,7.0,3.0,1.0,1.0,1.0,372.1822620000239,1.0,1.0,part_1,,,,,,,,,,,,,yellow,diamond
79.0,6.0,2.0,1.0,2.0,2.0,296.8357009999636,1.0,1.0,part_1,,,,,,,,,,,,,blue,square
48.0,1.0,1.0,0.0,2.0,2.0,340.4142839999622,1.0,1.0,part_1,,,,,,,,,,,,,green,circle
195.0,3.0,3.0,0.0,3.0,3.0,422.0842730001095,1.0,1.0,part_1,,,,,,,,,,,,,cyan,triangle
0.0,8.0,0.0,1.0,3.0,3.0,471.1045120002382,1.0,1.0,part_1,,,,,,,,,,,,,magenta,flipped triangle
0.0,3.0,0.0,0.0,2.0,2.0,332.8925250002612,1.0,1.0,part_1,,,,,,,,,,,,,cyan,triangle
78.0,2.0,2.0,0.0,3.0,3.0,343.3514419998573,1.0,1.0,part_1,,,,,,,,,,,,,orange,cross
215.0,3.0,3.0,0.0,3.0,3.0,371.5515819999382,1.0,1.0,part_1,,,,,,,,,,,,,cyan,triangle
404.0,4.0,4.0,0.0,4.0,4.0,378.7875809998695,1.0,1.0,part_1,,,,,,,,,,,,,gray,hexagon
217.0,7.0,3.0,1.0,3.0,3.0,367.1201689999179,1.0,1.0,part_1,,,,,,,,,,,,,yellow,diamond
0.0,7.0,0.0,1.0,2.0,2.0,302.77757700014257,1.0,1.0,part_1,,,,,,,,,,,,,yellow,diamond
204.0,7.0,3.0,1.0,2.0,2.0,309.5892030000868,1.0,1.0,part_1,,,,,,,,,,,,,yellow,diamond
417.0,8.0,4.0,1.0,2.0,2.0,316.8506799997885,1.0,1.0,part_1,,,,,,,,,,,,,magenta,flipped triangle
384.0,4.0,4.0,0.0,2.0,2.0,319.9925780004378,1.0,1.0,part_1,,,,,,,,,,,,,gray,hexagon
396.0,8.0,4.0,1.0,4.0,4.0,303.3839050003735,1.0,1.0,part_1,,,,,,,,,,,,,magenta,flipped triangle
79.0,6.0,2.0,1.0,1.0,1.0,361.2006250000377,1.0,1.0,part_1,,,,,,,,,,,,,blue,square
391.0,8.0,4.0,1.0,4.0,4.0,341.2721390000115,1.0,1.0,part_1,,,,,,,,,,,,,magenta,flipped triangle
71.0,5.0,1.0,1.0,1.0,1.0,331.3615040001423,1.0,1.0,part_1,,,,,,,,,,,,,white,I
98.0,2.0,2.0,0.0,2.0,2.0,433.4640960000797,1.0,1.0,part_1,,,,,,,,,,,,,orange,cross
49.0,1.0,1.0,0.0,4.0,4.0,512.3722970001836,1.0,1.0,part_1,,,,,,,,,,,,,green,circle
56.0,1.0,1.0,0.0,2.0,2.0,339.1569709997384,1.0,1.0,part_1,,,,,,,,,,,,,green,circle
0.0,2.0,0.0,0.0,4.0,4.0,346.9598639999276,1.0,1.0,part_1,,,,,,,,,,,,,orange,cross
177.0,3.0,3.0,0.0,1.0,1.0,318.7629389999529,1.0,1.0,part_1,,,,,,,,,,,,,cyan,triangle
219.0,7.0,3.0,1.0,1.0,1.0,411.2274480003179,1.0,1.0,part_1,,,,,,,,,,,,,yellow,diamond
40.0,1.0,1.0,0.0,4.0,4.0,453.3095639999374,1.0,1.0,part_1,,,,,,,,,,,,,green,circle
178.0,7.0,3.0,1.0,2.0,2.0,342.8935040001306,1.0,1.0,part_1,,,,,,,,,,,,,yellow,diamond
379.0,8.0,4.0,1.0,3.0,3.0,438.9503120000881,1.0,1.0,part_1,,,,,,,,,,,,,magenta,flipped triangle
85.0,6.0,2.0,1.0,3.0,3.0,488.3757830002651,1.0,1.0,part_1,,,,,,,,,,,,,blue,square
413.0,4.0,4.0,0.0,4.0,4.0,435.5968180002492,1.0,1.0,part_1,,,,,,,,,,,,,gray,hexagon
0.0,5.0,0.0,1.0,2.0,2.0,358.0747790001624,1.0,1.0,part_1,,,,,,,,,,,,,white,I
47.0,1.0,1.0,0.0,1.0,1.0,318.8799730000937,1.0,1.0,part_1,,,,,,,,,,,,,green,circle
63.0,5.0,1.0,1.0,2.0,2.0,316.7214640002385,1.0,1.0,part_1,,,,,,,,,,,,,white,I
80.0,6.0,2.0,1.0,1.0,1.0,366.6851660000247,1.0,1.0,part_1,,,,,,,,,,,,,blue,square
98.0,6.0,2.0,1.0,2.0,2.0,321.130538000034,1.0,1.0,part_1,,,,,,,,,,,,,blue,square
122.0,6.0,2.0,1.0,2.0,2.0,329.9099220002972,1.0,1.0,part_1,,,,,,,,,,,,,blue,square
0.0,4.0,0.0,0.0,4.0,4.0,434.3151980001494,1.0,1.0,part_1,,,,,,,,,,,,,gray,hexagon
0.0,5.0,0.0,1.0,2.0,2.0,348.1479369997942,1.0,1.0,part_1,,,,,,,,,,,,,white,I
97.0,6.0,2.0,1.0,2.0,2.0,333.0630259997633,1.0,1.0,part_1,,,,,,,,,,,,,blue,square
112.0,6.0,2.0,1.0,3.0,3.0,442.8125670001464,1.0,1.0,part_1,,,,,,,,,,,,,blue,square
0.0,8.0,0.0,1.0,1.0,1.0,364.1404170002715,1.0,1.0,part_1,,,,,,,,,,,,,magenta,flipped triangle
56.0,5.0,1.0,1.0,3.0,3.0,375.4577260001497,1.0,1.0,part_1,,,,,,,,,,,,,white,I
388.0,4.0,4.0,0.0,3.0,3.0,426.9046839999646,1.0,1.0,part_1,,,,,,,,,,,,,gray,hexagon
0.0,6.0,0.0,1.0,3.0,3.0,329.804354999851,1.0,1.0,part_1,,,,,,,,,,,,,blue,square
379.0,4.0,4.0,0.0,4.0,4.0,577.5831689998085,1.0,1.0,part_1,,,,,,,,,,,,,gray,hexagon
106.0,6.0,2.0,1.0,1.0,1.0,308.6264980001942,1.0,1.0,part_1,,,,,,,,,,,,,blue,square
69.0,1.0,1.0,0.0,2.0,2.0,259.6374990002914,1.0,1.0,part_1,,,,,,,,,,,,,green,circle
413.0,8.0,4.0,1.0,4.0,4.0,355.2024989999154,1.0,1.0,part_1,,,,,,,,,,,,,magenta,flipped triangle
34.0,1.0,1.0,0.0,2.0,2.0,290.4423840000163,1.0,1.0,part_1,,,,,,,,,,,,,green,circle
0.0,6.0,0.0,1.0,1.0,1.0,292.1354369996152,1.0,1.0,part_1,,,,,,,,,,,,,blue,square
202.0,3.0,3.0,0.0,2.0,2.0,359.8503399998662,1.0,1.0,part_1,,,,,,,,,,,,,cyan,triangle
34.0,1.0,1.0,0.0,3.0,3.0,420.4561209999156,1.0,1.0,part_1,,,,,,,,,,,,,green,circle
391.0,4.0,4.0,0.0,1.0,1.0,338.3168049999767,1.0,1.0,part_1,,,,,,,,,,,,,gray,hexagon
418.0,4.0,4.0,0.0,4.0,4.0,469.0318309999384,1.0,1.0,part_1,,,,,,,,,,,,,gray,hexagon
375.0,4.0,4.0,0.0,2.0,2.0,438.4740599998622,1.0,1.0,part_1,,,,,,,,,,,,,gray,hexagon
0.0,1.0,0.0,0.0,3.0,3.0,392.8726220001408,1.0,1.0,part_1,,,,,,,,,,,,,green,circle
195.0,7.0,3.0,1.0,3.0,3.0,343.7681360001079,1.0,1.0,part_1,,,,,,,,,,,,,yellow,diamond
224.0,3.0,3.0,0.0,2.0,2.0,315.2205689998482,1.0,1.0,part_1,,,,,,,,,,,,,cyan,triangle
66.0,1.0,1.0,0.0,4.0,4.0,402.5891390001561,1.0,1.0,part_1,,,,,,,,,,,,,green,circle
195.0,3.0,3.0,0.0,4.0,4.0,386.4500929998939,1.0,1.0,part_1,,,,,,,,,,,,,cyan,triangle
48.0,5.0,1.0,1.0,3.0,3.0,383.3622209999703,1.0,1.0,part_1,,,,,,,,,,,,,white,I
80.0,6.0,2.0,1.0,2.0,2.0,316.469121999944,1.0,1.0,part_1,,,,,,,,,,,,,blue,square
105.0,2.0,2.0,0.0,1.0,1.0,328.8572930000555,1.0,1.0,part_1,,,,,,,,,,,,,orange,cross
394.0,8.0,4.0,1.0,1.0,1.0,336.4066469998761,1.0,1.0,part_1,,,,,,,,,,,,,magenta,flipped triangle
0.0,7.0,0.0,1.0,1.0,1.0,336.8031400000291,1.0,1.0,part_1,,,,,,,,,,,,,yellow,diamond
396.0,4.0,4.0,0.0,1.0,1.0,319.1873929999929,1.0,1.0,part_1,,,,,,,,,,,,,gray,hexagon
0.0,4.0,0.0,0.0,1.0,1.0,282.1340880000207,1.0,1.0,part_1,,,,,,,,,,,,,gray,hexagon
0.0,8.0,0.0,1.0,4.0,4.0,409.0456560002167,1.0,1.0,part_1,,,,,,,,,,,,,magenta,flipped triangle
123.0,6.0,2.0,1.0,3.0,3.0,451.9420330002504,1.0,1.0,part_1,,,,,,,,,,,,,blue,square
182.0,3.0,3.0,0.0,3.0,3.0,422.1616069999072,1.0,1.0,part_1,,,,,,,,,,,,,cyan,triangle
418.0,8.0,4.0,1.0,4.0,4.0,472.9896329999974,1.0,1.0,part_1,,,,,,,,,,,,,magenta,flipped triangle
107.0,6.0,2.0,1.0,1.0,1.0,350.9786040003746,1.0,1.0,part_1,,,,,,,,,,,,,blue,square
58.0,5.0,1.0,1.0,1.0,1.0,329.093603000274,1.0,1.0,part_1,,,,,,,,,,,,,white,I
0.0,7.0,0.0,1.0,3.0,3.0,508.9120119996551,1.0,1.0,part_1,,,,,,,,,,,,,yellow,diamond
0.0,5.0,0.0,1.0,1.0,1.0,327.1107970003868,1.0,1.0,part_1,,,,,,,,,,,,,white,I
220.0,7.0,3.0,1.0,4.0,4.0,410.1350539999657,1.0,1.0,part_1,,,,,,,,,,,,,yellow,diamond
195.0,3.0,3.0,0.0,4.0,4.0,501.0368169996582,1.0,1.0,part_1,,,,,,,,,,,,,cyan,triangle
0.0,8.0,0.0,1.0,2.0,2.0,410.0864580000234,1.0,1.0,part_1,,,,,,,,,,,,,magenta,flipped triangle
25.0,5.0,1.0,1.0,1.0,1.0,327.6388369999949,1.0,1.0,part_1,,,,,,,,,,,,,white,I
49.0,1.0,1.0,0.0,4.0,4.0,443.6371270003292,1.0,1.0,part_1,,,,,,,,,,,,,green,circle
105.0,2.0,2.0,0.0,3.0,3.0,765.9398680002596,1.0,1.0,part_1,,,,,,,,,,,,,orange,cross
386.0,8.0,4.0,1.0,1.0,1.0,423.5169040002802,1.0,1.0,part_1,,,,,,,,,,,,,magenta,flipped triangle
418.0,4.0,4.0,0.0,4.0,4.0,405.2715400002853,1.0,1.0,part_1,,,,,,,,,,,,,gray,hexagon
423.0,8.0,4.0,1.0,1.0,1.0,334.8202510001101,1.0,1.0,part_1,,,,,,,,,,,,,magenta,flipped triangle
0.0,3.0,0.0,0.0,3.0,3.0,398.4998670002824,1.0,1.0,part_1,,,,,,,,,,,,,cyan,triangle
187.0,7.0,3.0,1.0,3.0,3.0,403.784276999886,1.0,1.0,part_1,,,,,,,,,,,,,yellow,diamond
208.0,3.0,3.0,0.0,3.0,3.0,452.6256409999405,1.0,1.0,part_1,,,,,,,,,,,,,cyan,triangle
0.0,5.0,0.0,1.0,3.0,3.0,437.6575429996592,1.0,1.0,part_1,,,,,,,,,,,,,white,I
197.0,7.0,3.0,1.0,2.0,2.0,372.9022080001414,1.0,1.0,part_1,,,,,,,,,,,,,yellow,diamond
411.0,4.0,4.0,0.0,1.0,1.0,837.0921700002327,2.0,1.0,part_1,,,,,,,,,,,,,gray,hexagon
413.0,8.0,4.0,1.0,3.0,3.0,402.1678340000107,2.0,1.0,part_1,,,,,,,,,,,,,magenta,flipped triangle
0.0,7.0,0.0,1.0,2.0,2.0,326.4373340002748,2.0,1.0,part_1,,,,,,,,,,,,,yellow,diamond
224.0,7.0,3.0,1.0,3.0,3.0,335.5069690001073,2.0,1.0,part_1,,,,,,,,,,,,,yellow,diamond
0.0,8.0,0.0,1.0,1.0,1.0,340.0459680001404,2.0,1.0,part_1,,,,,,,,,,,,,magenta,flipped triangle
37.0,5.0,1.0,1.0,4.0,4.0,359.8684910002703,2.0,1.0,part_1,,,,,,,,,,,,,white,I
50.0,1.0,1.0,0.0,3.0,3.0,369.6990329999607,2.0,1.0,part_1,,,,,,,,,,,,,green,circle
404.0,8.0,4.0,1.0,2.0,2.0,364.5622670001103,2.0,1.0,part_1,,,,,,,,,,,,,magenta,flipped triangle
411.0,8.0,4.0,1.0,2.0,2.0,381.653900999936,2.0,1.0,part_1,,,,,,,,,,,,,magenta,flipped triangle
375.0,8.0,4.0,1.0,1.0,1.0,347.3438609998993,2.0,1.0,part_1,,,,,,,,,,,,,magenta,flipped triangle
184.0,3.0,3.0,0.0,1.0,1.0,318.2795889997578,2.0,1.0,part_1,,,,,,,,,,,,,cyan,triangle
61.0,5.0,1.0,1.0,3.0,3.0,340.230670999972,2.0,1.0,part_1,,,,,,,,,,,,,white,I
380.0,4.0,4.0,0.0,4.0,4.0,348.4397600000193,2.0,1.0,part_1,,,,,,,,,,,,,gray,hexagon
47.0,5.0,1.0,1.0,2.0,2.0,283.535018999828,2.0,1.0,part_1,,,,,,,,,,,,,white,I
394.0,8.0,4.0,1.0,2.0,2.0,362.4237300000459,2.0,1.0,part_1,,,,,,,,,,,,,magenta,flipped triangle
118.0,6.0,2.0,1.0,2.0,2.0,607.5487900002372,2.0,1.0,part_1,,,,,,,,,,,,,blue,square
28.0,5.0,1.0,1.0,2.0,2.0,336.529278999933,2.0,1.0,part_1,,,,,,,,,,,,,white,I
34.0,5.0,1.0,1.0,3.0,3.0,496.3770250001289,2.0,1.0,part_1,,,,,,,,,,,,,white,I
418.0,8.0,4.0,1.0,2.0,2.0,379.4871320001221,2.0,1.0,part_1,,,,,,,,,,,,,magenta,flipped triangle
180.0,3.0,3.0,0.0,1.0,1.0,379.6228520000113,2.0,1.0,part_1,,,,,,,,,,,,,cyan,triangle
68.0,5.0,1.0,1.0,4.0,4.0,393.3541040000818,2.0,1.0,part_1,,,,,,,,,,,,,white,I
25.0,1.0,1.0,0.0,2.0,2.0,315.598540999872,2.0,1.0,part_1,,,,,,,,,,,,,green,circle
0.0,4.0,0.0,0.0,1.0,1.0,322.547441000097,2.0,1.0,part_1,,,,,,,,,,,,,gray,hexagon
105.0,6.0,2.0,1.0,1.0,1.0,387.5675969998156,2.0,1.0,part_1,,,,,,,,,,,,,blue,square
0.0,7.0,0.0,1.0,4.0,4.0,409.0362269998877,2.0,1.0,part_1,,,,,,,,,,,,,yellow,diamond
69.0,1.0,1.0,0.0,3.0,3.0,491.6627020002124,2.0,1.0,part_1,,,,,,,,,,,,,green,circle
51.0,5.0,1.0,1.0,1.0,1.0,354.067834000034,2.0,1.0,part_1,,,,,,,,,,,,,white,I
64.0,1.0,1.0,0.0,3.0,3.0,348.7573420002263,2.0,1.0,part_1,,,,,,,,,,,,,green,circle
211.0,3.0,3.0,0.0,4.0,4.0,361.2024370004292,2.0,1.0,part_1,,,,,,,,,,,,,cyan,triangle
420.0,4.0,4.0,0.0,3.0,3.0,298.6416700000518,2.0,1.0,part_1,,,,,,,,,,,,,gray,hexagon
214.0,3.0,3.0,0.0,1.0,1.0,289.607751999938,2.0,1.0,part_1,,,,,,,,,,,,,cyan,triangle
0.0,3.0,0.0,0.0,2.0,2.0,390.0578140001016,2.0,1.0,part_1,,,,,,,,,,,,,cyan,triangle
0.0,7.0,0.0,1.0,1.0,1.0,515.1775539998198,2.0,1.0,part_1,,,,,,,,,,,,,yellow,diamond
55.0,1.0,1.0,0.0,1.0,1.0,351.183323999976,2.0,1.0,part_1,,,,,,,,,,,,,green,circle
49.0,5.0,1.0,1.0,2.0,2.0,367.0992219999789,2.0,1.0,part_1,,,,,,,,,,,,,white,I
74.0,5.0,1.0,1.0,3.0,3.0,393.7284660000841,2.0,1.0,part_1,,,,,,,,,,,,,white,I
70.0,5.0,1.0,1.0,3.0,3.0,410.3396999998949,2.0,1.0,part_1,,,,,,,,,,,,,white,I
204.0,7.0,3.0,1.0,1.0,1.0,337.4957480000375,2.0,1.0,part_1,,,,,,,,,,,,,yellow,diamond
103.0,2.0,2.0,0.0,4.0,4.0,375.2500310001778,2.0,1.0,part_1,,,,,,,,,,,,,orange,cross
106.0,2.0,2.0,0.0,1.0,1.0,328.7060570000903,2.0,1.0,part_1,,,,,,,,,,,,,orange,cross
112.0,2.0,2.0,0.0,1.0,1.0,375.582900000154,2.0,1.0,part_1,,,,,,,,,,,,,orange,cross
36.0,5.0,1.0,1.0,3.0,3.0,320.8137960000385,2.0,1.0,part_1,,,,,,,,,,,,,white,I
68.0,1.0,1.0,0.0,2.0,2.0,314.7016449997863,2.0,1.0,part_1,,,,,,,,,,,,,green,circle
97.0,2.0,2.0,0.0,3.0,3.0,315.8291759996245,2.0,1.0,part_1,,,,,,,,,,,,,orange,cross
400.0,8.0,4.0,1.0,1.0,1.0,354.0761620001831,2.0,1.0,part_1,,,,,,,,,,,,,magenta,flipped triangle
375.0,8.0,4.0,1.0,3.0,3.0,334.522515000117,2.0,1.0,part_1,,,,,,,,,,,,,magenta,flipped triangle
421.0,8.0,4.0,1.0,4.0,4.0,444.7286240001631,2.0,1.0,part_1,,,,,,,,,,,,,magenta,flipped triangle
418.0,8.0,4.0,1.0,4.0,4.0,413.5637379999934,2.0,1.0,part_1,,,,,,,,,,,,,magenta,flipped triangle
53.0,1.0,1.0,0.0,2.0,2.0,386.416360000112,2.0,1.0,part_1,,,,,,,,,,,,,green,circle
420.0,8.0,4.0,1.0,2.0,2.0,364.7897139999259,2.0,1.0,part_1,,,,,,,,,,,,,magenta,flipped triangle
382.0,8.0,4.0,1.0,3.0,3.0,349.7447649997411,2.0,1.0,part_1,,,,,,,,,,,,,magenta,flipped triangle
0.0,5.0,0.0,1.0,4.0,4.0,334.0165459999298,2.0,1.0,part_1,,,,,,,,,,,,,white,I
192.0,3.0,3.0,0.0,1.0,1.0,330.7489879998684,2.0,1.0,part_1,,,,,,,,,,,,,cyan,triangle
82.0,6.0,2.0,1.0,4.0,4.0,384.593852999842,2.0,1.0,part_1,,,,,,,,,,,,,blue,square
29.0,1.0,1.0,0.0,4.0,4.0,363.7853299997005,2.0,1.0,part_1,,,,,,,,,,,,,green,circle
421.0,4.0,4.0,0.0,2.0,2.0,415.050278000308,2.0,1.0,part_1,,,,,,,,,,,,,gray,hexagon
30.0,5.0,1.0,1.0,2.0,2.0,408.0514669999502,2.0,1.0,part_1,,,,,,,,,,,,,white,I
34.0,1.0,1.0,0.0,1.0,1.0,340.6447540000954,2.0,1.0,part_1,,,,,,,,,,,,,green,circle
0.0,2.0,0.0,0.0,3.0,3.0,332.9315669998323,2.0,1.0,part_1,,,,,,,,,,,,,orange,cross
93.0,6.0,2.0,1.0,3.0,3.0,353.4461920003195,2.0,1.0,part_1,,,,,,,,,,,,,blue,square
107.0,2.0,2.0,0.0,4.0,4.0,371.7154189998837,2.0,1.0,part_1,,,,,,,,,,,,,orange,cross
180.0,7.0,3.0,1.0,3.0,3.0,405.5787780002902,2.0,1.0,part_1,,,,,,,,,,,,,yellow,diamond
34.0,1.0,1.0,0.0,2.0,2.0,400.1536669998131,2.0,1.0,part_1,,,,,,,,,,,,,green,circle
0.0,2.0,0.0,0.0,2.0,2.0,334.1764729998431,2.0,1.0,part_1,,,,,,,,,,,,,orange,cross
417.0,4.0,4.0,0.0,2.0,2.0,419.9092730000302,2.0,1.0,part_1,,,,,,,,,,,,,gray,hexagon
0.0,3.0,0.0,0.0,4.0,4.0,396.8919500002812,2.0,1.0,part_1,,,,,,,,,,,,,cyan,triangle
0.0,3.0,0.0,0.0,2.0,2.0,382.717316000253,2.0,1.0,part_1,,,,,,,,,,,,,cyan,triangle
411.0,8.0,4.0,1.0,4.0,4.0,402.0014190000438,2.0,1.0,part_1,,,,,,,,,,,,,magenta,flipped triangle
184.0,7.0,3.0,1.0,2.0,2.0,348.1676750002407,2.0,1.0,part_1,,,,,,,,,,,,,yellow,diamond
182.0,3.0,3.0,0.0,3.0,3.0,369.0416670001468,2.0,1.0,part_1,,,,,,,,,,,,,cyan,triangle
64.0,5.0,1.0,1.0,4.0,4.0,454.0800310001032,2.0,1.0,part_1,,,,,,,,,,,,,white,I
114.0,2.0,2.0,0.0,4.0,4.0,378.9778100003786,2.0,1.0,part_1,,,,,,,,,,,,,orange,cross
79.0,2.0,2.0,0.0,1.0,1.0,408.9348590000554,2.0,1.0,part_1,,,,,,,,,,,,,orange,cross
123.0,6.0,2.0,1.0,1.0,1.0,372.150326999872,2.0,1.0,part_1,,,,,,,,,,,,,blue,square
0.0,6.0,0.0,1.0,1.0,1.0,338.1545470001583,2.0,1.0,part_1,,,,,,,,,,,,,blue,square
91.0,2.0,2.0,0.0,4.0,4.0,356.1964420000549,2.0,1.0,part_1,,,,,,,,,,,,,orange,cross
108.0,2.0,2.0,0.0,1.0,1.0,379.4521589998112,2.0,1.0,part_1,,,,,,,,,,,,,orange,cross
422.0,4.0,4.0,0.0,3.0,3.0,420.8846749997974,2.0,1.0,part_1,,,,,,,,,,,,,gray,hexagon
187.0,3.0,3.0,0.0,3.0,3.0,368.4346529998947,2.0,1.0,part_1,,,,,,,,,,,,,cyan,triangle
189.0,7.0,3.0,1.0,4.0,4.0,479.2115920004107,2.0,1.0,part_1,,,,,,,,,,,,,yellow,diamond
422.0,8.0,4.0,1.0,2.0,2.0,532.2864939998908,2.0,1.0,part_1,,,,,,,,,,,,,magenta,flipped triangle
0.0,8.0,0.0,1.0,2.0,2.0,414.1931080002905,2.0,1.0,part_1,,,,,,,,,,,,,magenta,flipped triangle
195.0,7.0,3.0,1.0,1.0,1.0,376.2520409995886,2.0,1.0,part_1,,,,,,,,,,,,,yellow,diamond
39.0,1.0,1.0,0.0,3.0,3.0,363.4215820002282,2.0,1.0,part_1,,,,,,,,,,,,,green,circle
411.0,4.0,4.0,0.0,1.0,1.0,428.0239210002037,2.0,1.0,part_1,,,,,,,,,,,,,gray,hexagon
70.0,1.0,1.0,0.0,4.0,4.0,371.6388430002553,2.0,1.0,part_1,,,,,,,,,,,,,green,circle
0.0,8.0,0.0,1.0,2.0,2.0,400.4087390003406,2.0,1.0,part_1,,,,,,,,,,,,,magenta,flipped triangle
388.0,4.0,4.0,0.0,3.0,3.0,444.4556880002892,2.0,1.0,part_1,,,,,,,,,,,,,gray,hexagon
177.0,7.0,3.0,1.0,1.0,1.0,399.5203220001713,2.0,1.0,part_1,,,,,,,,,,,,,yellow,diamond
117.0,6.0,2.0,1.0,4.0,4.0,362.2025519998715,2.0,1.0,part_1,,,,,,,,,,,,,blue,square
102.0,2.0,2.0,0.0,2.0,2.0,379.86262800041,2.0,1.0,part_1,,,,,,,,,,,,,orange,cross
0.0,1.0,0.0,0.0,2.0,2.0,396.924565000063,2.0,1.0,part_1,,,,,,,,,,,,,green,circle
394.0,4.0,4.0,0.0,1.0,1.0,385.4904109998642,2.0,1.0,part_1,,,,,,,,,,,,,gray,hexagon
0.0,1.0,0.0,0.0,2.0,2.0,328.2921740001256,2.0,1.0,part_1,,,,,,,,,,,,,green,circle
210.0,7.0,3.0,1.0,4.0,4.0,380.6110479999915,2.0,1.0,part_1,,,,,,,,,,,,,yellow,diamond
380.0,4.0,4.0,0.0,2.0,2.0,375.460621000002,2.0,1.0,part_1,,,,,,,,,,,,,gray,hexagon
0.0,8.0,0.0,1.0,1.0,1.0,301.4523209999424,2.0,1.0,part_1,,,,,,,,,,,,,magenta,flipped triangle
86.0,2.0,2.0,0.0,2.0,2.0,311.2739189996318,2.0,1.0,part_1,,,,,,,,,,,,,orange,cross
29.0,5.0,1.0,1.0,1.0,1.0,351.6742219999287,2.0,1.0,part_1,,,,,,,,,,,,,white,I
78.0,6.0,2.0,1.0,1.0,1.0,360.3141099997629,2.0,1.0,part_1,,,,,,,,,,,,,blue,square
380.0,8.0,4.0,1.0,4.0,4.0,587.6845550001235,3.0,1.0,part_1,,,,,,,,,,,,,magenta,flipped triangle
0.0,1.0,0.0,0.0,3.0,3.0,335.0719230002141,3.0,1.0,part_1,,,,,,,,,,,,,green,circle
407.0,4.0,4.0,0.0,1.0,1.0,335.1206299998921,3.0,1.0,part_1,,,,,,,,,,,,,gray,hexagon
69.0,5.0,1.0,1.0,1.0,1.0,355.4690609998943,3.0,1.0,part_1,,,,,,,,,,,,,white,I
118.0,2.0,2.0,0.0,1.0,1.0,316.464902000007,3.0,1.0,part_1,,,,,,,,,,,,,orange,cross
34.0,5.0,1.0,1.0,4.0,4.0,366.2896949999776,3.0,1.0,part_1,,,,,,,,,,,,,white,I
214.0,7.0,3.0,1.0,3.0,3.0,362.6650800001698,3.0,1.0,part_1,,,,,,,,,,,,,yellow,diamond
29.0,1.0,1.0,0.0,1.0,1.0,328.3344360002047,3.0,2.0,part_1,,,,,,,,,,,,,green,circle
0.0,1.0,0.0,0.0,3.0,3.0,769.8083479999696,3.0,1.0,part_1,,,,,,,,,,,,,green,circle
82.0,2.0,2.0,0.0,3.0,3.0,417.8062630003296,3.0,1.0,part_1,,,,,,,,,,,,,orange,cross
182.0,7.0,3.0,1.0,1.0,1.0,341.6399309999178,3.0,1.0,part_1,,,,,,,,,,,,,yellow,diamond
0.0,5.0,0.0,1.0,1.0,1.0,377.1085710000079,3.0,1.0,part_1,,,,,,,,,,,,,white,I
123.0,2.0,2.0,0.0,4.0,4.0,344.2856459996619,3.0,1.0,part_1,,,,,,,,,,,,,orange,cross
103.0,6.0,2.0,1.0,3.0,3.0,409.6560200000567,3.0,1.0,part_1,,,,,,,,,,,,,blue,square
394.0,4.0,4.0,0.0,3.0,3.0,424.3995219999306,3.0,1.0,part_1,,,,,,,,,,,,,gray,hexagon
101.0,6.0,2.0,1.0,2.0,2.0,372.8422750000391,3.0,1.0,part_1,,,,,,,,,,,,,blue,square
0.0,7.0,0.0,1.0,4.0,4.0,372.2887600001741,3.0,1.0,part_1,,,,,,,,,,,,,yellow,diamond
107.0,2.0,2.0,0.0,4.0,4.0,402.7224149999711,3.0,1.0,part_1,,,,,,,,,,,,,orange,cross
43.0,1.0,1.0,0.0,2.0,2.0,368.2242959998802,3.0,1.0,part_1,,,,,,,,,,,,,green,circle
91.0,6.0,2.0,1.0,4.0,4.0,346.9185899998592,3.0,1.0,part_1,,,,,,,,,,,,,blue,square
189.0,3.0,3.0,0.0,2.0,2.0,357.8836799997589,3.0,1.0,part_1,,,,,,,,,,,,,cyan,triangle
0.0,7.0,0.0,1.0,1.0,1.0,362.6895749998766,3.0,1.0,part_1,,,,,,,,,,,,,yellow,diamond
0.0,6.0,0.0,1.0,1.0,1.0,318.5167229999024,3.0,1.0,part_1,,,,,,,,,,,,,blue,square
208.0,3.0,3.0,0.0,1.0,1.0,344.6239749996493,3.0,1.0,part_1,,,,,,,,,,,,,cyan,triangle
210.0,3.0,3.0,0.0,4.0,4.0,328.3567829998901,3.0,1.0,part_1,,,,,,,,,,,,,cyan,triangle
225.0,3.0,3.0,0.0,1.0,1.0,307.4055010001757,3.0,1.0,part_1,,,,,,,,,,,,,cyan,triangle
190.0,7.0,3.0,1.0,1.0,1.0,344.0591170001426,3.0,1.0,part_1,,,,,,,,,,,,,yellow,diamond
97.0,2.0,2.0,0.0,4.0,4.0,367.2789310003281,3.0,1.0,part_1,,,,,,,,,,,,,orange,cross
377.0,8.0,4.0,1.0,3.0,3.0,404.2305489997488,3.0,1.0,part_1,,,,,,,,,,,,,magenta,flipped triangle
0.0,1.0,0.0,0.0,2.0,2.0,349.6384220002255,3.0,1.0,part_1,,,,,,,,,,,,,green,circle
101.0,2.0,2.0,0.0,1.0,1.0,336.6541189998315,3.0,1.0,part_1,,,,,,,,,,,,,orange,cross
0.0,6.0,0.0,1.0,2.0,2.0,440.6017159999464,3.0,1.0,part_1,,,,,,,,,,,,,blue,square
55.0,5.0,1.0,1.0,1.0,1.0,348.9102439998532,3.0,1.0,part_1,,,,,,,,,,,,,white,I
388.0,8.0,4.0,1.0,2.0,2.0,440.3903190000164,3.0,1.0,part_1,,,,,,,,,,,,,magenta,flipped triangle
195.0,7.0,3.0,1.0,4.0,4.0,440.1276999997208,3.0,1.0,part_1,,,,,,,,,,,,,yellow,diamond
114.0,2.0,2.0,0.0,2.0,2.0,384.329321000223,3.0,1.0,part_1,,,,,,,,,,,,,orange,cross
395.0,8.0,4.0,1.0,3.0,3.0,397.6770310000574,3.0,1.0,part_1,,,,,,,,,,,,,magenta,flipped triangle
114.0,6.0,2.0,1.0,1.0,1.0,353.7577970000711,3.0,1.0,part_1,,,,,,,,,,,,,blue,square
80.0,2.0,2.0,0.0,4.0,4.0,400.9473219998654,3.0,1.0,part_1,,,,,,,,,,,,,orange,cross
0.0,4.0,0.0,0.0,1.0,1.0,354.107526000007,3.0,1.0,part_1,,,,,,,,,,,,,gray,hexagon
191.0,7.0,3.0,1.0,3.0,3.0,301.634732000366,3.0,1.0,part_1,,,,,,,,,,,,,yellow,diamond
395.0,4.0,4.0,0.0,1.0,1.0,378.5204629998588,3.0,1.0,part_1,,,,,,,,,,,,,gray,hexagon
71.0,1.0,1.0,0.0,4.0,4.0,419.0232249998189,3.0,1.0,part_1,,,,,,,,,,,,,green,circle
118.0,2.0,2.0,0.0,3.0,3.0,493.0523170000924,3.0,1.0,part_1,,,,,,,,,,,,,orange,cross
220.0,3.0,3.0,0.0,2.0,2.0,391.0148560003108,3.0,1.0,part_1,,,,,,,,,,,,,cyan,triangle
34.0,5.0,1.0,1.0,2.0,2.0,382.9405400001633,3.0,1.0,part_1,,,,,,,,,,,,,white,I
421.0,8.0,4.0,1.0,1.0,1.0,364.3947300001855,3.0,1.0,part_1,,,,,,,,,,,,,magenta,flipped triangle
76.0,2.0,2.0,0.0,3.0,3.0,478.4959419998813,3.0,1.0,part_1,,,,,,,,,,,,,orange,cross
111.0,2.0,2.0,0.0,4.0,4.0,381.398259999969,3.0,1.0,part_1,,,,,,,,,,,,,orange,cross
82.0,6.0,2.0,1.0,4.0,4.0,416.4980790001209,3.0,1.0,part_1,,,,,,,,,,,,,blue,square
50.0,5.0,1.0,1.0,3.0,3.0,399.4160959996407,3.0,1.0,part_1,,,,,,,,,,,,,white,I
0.0,3.0,0.0,0.0,4.0,4.0,302.4534969999877,3.0,1.0,part_1,,,,,,,,,,,,,cyan,triangle
0.0,3.0,0.0,0.0,3.0,3.0,328.5777259998212,3.0,1.0,part_1,,,,,,,,,,,,,cyan,triangle
97.0,6.0,2.0,1.0,3.0,3.0,302.6640379998753,3.0,1.0,part_1,,,,,,,,,,,,,blue,square
58.0,1.0,1.0,0.0,1.0,1.0,321.6824090000045,3.0,1.0,part_1,,,,,,,,,,,,,green,circle
97.0,6.0,2.0,1.0,3.0,3.0,353.9826080000239,3.0,1.0,part_1,,,,,,,,,,,,,blue,square
215.0,3.0,3.0,0.0,3.0,3.0,357.9969190000156,3.0,1.0,part_1,,,,,,,,,,,,,cyan,triangle
122.0,2.0,2.0,0.0,3.0,3.0,364.102123000066,3.0,1.0,part_1,,,,,,,,,,,,,orange,cross
418.0,8.0,4.0,1.0,4.0,4.0,357.7357270000902,3.0,1.0,part_1,,,,,,,,,,,,,magenta,flipped triangle
108.0,6.0,2.0,1.0,4.0,4.0,310.8832069997334,3.0,1.0,part_1,,,,,,,,,,,,,blue,square
400.0,4.0,4.0,0.0,4.0,4.0,332.300165000106,3.0,1.0,part_1,,,,,,,,,,,,,gray,hexagon
0.0,3.0,0.0,0.0,3.0,3.0,330.2483769998616,3.0,1.0,part_1,,,,,,,,,,,,,cyan,triangle
400.0,4.0,4.0,0.0,2.0,2.0,366.2578270000267,3.0,1.0,part_1,,,,,,,,,,,,,gray,hexagon
114.0,6.0,2.0,1.0,3.0,3.0,465.2363620002688,3.0,1.0,part_1,,,,,,,,,,,,,blue,square
388.0,8.0,4.0,1.0,1.0,1.0,399.7875529998964,3.0,1.0,part_1,,,,,,,,,,,,,magenta,flipped triangle
43.0,5.0,1.0,1.0,2.0,2.0,399.7677890001796,3.0,1.0,part_1,,,,,,,,,,,,,white,I
193.0,3.0,3.0,0.0,2.0,2.0,732.9081329999099,3.0,1.0,part_1,,,,,,,,,,,,,cyan,triangle
386.0,4.0,4.0,0.0,2.0,2.0,430.6927560000986,3.0,1.0,part_1,,,,,,,,,,,,,gray,hexagon
375.0,4.0,4.0,0.0,3.0,3.0,441.9349859999784,3.0,1.0,part_1,,,,,,,,,,,,,gray,hexagon
0.0,6.0,0.0,1.0,3.0,3.0,434.6484829998189,3.0,1.0,part_1,,,,,,,,,,,,,blue,square
0.0,8.0,0.0,1.0,4.0,4.0,536.4918720001697,3.0,1.0,part_1,,,,,,,,,,,,,magenta,flipped triangle
0.0,4.0,0.0,0.0,1.0,1.0,321.9205899999906,3.0,1.0,part_1,,,,,,,,,,,,,gray,hexagon
43.0,1.0,1.0,0.0,1.0,1.0,335.1946180000595,3.0,1.0,part_1,,,,,,,,,,,,,green,circle
117.0,6.0,2.0,1.0,1.0,1.0,320.4955020000852,3.0,1.0,part_1,,,,,,,,,,,,,blue,square
87.0,2.0,2.0,0.0,3.0,3.0,768.0270780001592,3.0,1.0,part_1,,,,,,,,,,,,,orange,cross
0.0,1.0,0.0,0.0,3.0,3.0,401.3516590002837,3.0,1.0,part_1,,,,,,,,,,,,,green,circle
178.0,3.0,3.0,0.0,2.0,2.0,434.1875030004303,3.0,1.0,part_1,,,,,,,,,,,,,cyan,triangle
215.0,7.0,3.0,1.0,4.0,4.0,426.2433049998435,3.0,1.0,part_1,,,,,,,,,,,,,yellow,diamond
0.0,1.0,0.0,0.0,4.0,4.0,405.009469000106,3.0,1.0,part_1,,,,,,,,,,,,,green,circle
0.0,4.0,0.0,0.0,4.0,4.0,391.0586999995757,3.0,1.0,part_1,,,,,,,,,,,,,gray,hexagon
71.0,5.0,1.0,1.0,1.0,1.0,305.1786619998893,3.0,1.0,part_1,,,,,,,,,,,,,white,I
200.0,3.0,3.0,0.0,4.0,4.0,434.3183450000651,3.0,1.0,part_1,,,,,,,,,,,,,cyan,triangle
84.0,6.0,2.0,1.0,4.0,4.0,436.210845000005,3.0,1.0,part_1,,,,,,,,,,,,,blue,square
105.0,6.0,2.0,1.0,4.0,4.0,381.8174539997017,3.0,1.0,part_1,,,,,,,,,,,,,blue,square
219.0,3.0,3.0,0.0,3.0,3.0,453.3732489999238,3.0,1.0,part_1,,,,,,,,,,,,,cyan,triangle
0.0,3.0,0.0,0.0,3.0,3.0,395.2976610003134,3.0,1.0,part_1,,,,,,,,,,,,,cyan,triangle
107.0,6.0,2.0,1.0,2.0,2.0,350.0902620003217,3.0,1.0,part_1,,,,,,,,,,,,,blue,square
388.0,4.0,4.0,0.0,2.0,2.0,323.2220449999659,3.0,1.0,part_1,,,,,,,,,,,,,gray,hexagon
86.0,6.0,2.0,1.0,3.0,3.0,405.4267050000817,3.0,1.0,part_1,,,,,,,,,,,,,blue,square
413.0,4.0,4.0,0.0,4.0,4.0,457.5461240001459,3.0,1.0,part_1,,,,,,,,,,,,,gray,hexagon
123.0,2.0,2.0,0.0,2.0,2.0,355.5130569998255,3.0,1.0,part_1,,,,,,,,,,,,,orange,cross
76.0,6.0,2.0,1.0,1.0,1.0,298.5146929995608,3.0,1.0,part_1,,,,,,,,,,,,,blue,square
0.0,2.0,0.0,0.0,1.0,1.0,309.3604339997,3.0,1.0,part_1,,,,,,,,,,,,,orange,cross
0.0,5.0,0.0,1.0,3.0,3.0,420.7971729997553,3.0,1.0,part_1,,,,,,,,,,,,,white,I
66.0,5.0,1.0,1.0,4.0,4.0,393.3964199995898,3.0,1.0,part_1,,,,,,,,,,,,,white,I
384.0,8.0,4.0,1.0,1.0,1.0,320.2079960001356,3.0,1.0,part_1,,,,,,,,,,,,,magenta,flipped triangle
191.0,3.0,3.0,0.0,3.0,3.0,418.1488210001589,3.0,1.0,part_1,,,,,,,,,,,,,cyan,triangle
69.0,5.0,1.0,1.0,4.0,4.0,394.0198740001506,3.0,1.0,part_1,,,,,,,,,,,,,white,I
0.0,4.0,0.0,0.0,3.0,3.0,420.1571139997213,3.0,1.0,part_1,,,,,,,,,,,,,gray,hexagon
211.0,3.0,3.0,0.0,3.0,3.0,444.7887309997895,3.0,1.0,part_1,,,,,,,,,,,,,cyan,triangle
204.0,3.0,3.0,0.0,2.0,2.0,483.1787250000161,4.0,1.0,part_1,,,,,,,,,,,,,cyan,triangle
0.0,7.0,0.0,1.0,2.0,2.0,353.0029359999389,4.0,1.0,part_1,,,,,,,,,,,,,yellow,diamond
0.0,2.0,0.0,0.0,3.0,3.0,391.9768549999389,4.0,1.0,part_1,,,,,,,,,,,,,orange,cross
29.0,5.0,1.0,1.0,4.0,4.0,355.331551999825,4.0,1.0,part_1,,,,,,,,,,,,,white,I
101.0,2.0,2.0,0.0,2.0,2.0,321.7402230002335,4.0,1.0,part_1,,,,,,,,,,,,,orange,cross
0.0,8.0,0.0,1.0,1.0,1.0,477.6560270001937,4.0,1.0,part_1,,,,,,,,,,,,,magenta,flipped triangle
66.0,1.0,1.0,0.0,3.0,3.0,391.0328309998476,4.0,1.0,part_1,,,,,,,,,,,,,green,circle
178.0,3.0,3.0,0.0,1.0,1.0,301.4165790000334,4.0,1.0,part_1,,,,,,,,,,,,,cyan,triangle
0.0,1.0,0.0,0.0,3.0,3.0,374.7799579996353,4.0,1.0,part_1,,,,,,,,,,,,,green,circle
43.0,5.0,1.0,1.0,2.0,2.0,309.4970909996846,4.0,1.0,part_1,,,,,,,,,,,,,white,I
192.0,3.0,3.0,0.0,4.0,4.0,332.8672359998563,4.0,1.0,part_1,,,,,,,,,,,,,cyan,triangle
382.0,4.0,4.0,0.0,3.0,3.0,410.3548250000131,4.0,1.0,part_1,,,,,,,,,,,,,gray,hexagon
0.0,6.0,0.0,1.0,1.0,1.0,332.6356780003152,4.0,1.0,part_1,,,,,,,,,,,,,blue,square
193.0,7.0,3.0,1.0,2.0,2.0,289.1013409998777,4.0,1.0,part_1,,,,,,,,,,,,,yellow,diamond
118.0,6.0,2.0,1.0,3.0,3.0,345.775101000072,4.0,1.0,part_1,,,,,,,,,,,,,blue,square
385.0,8.0,4.0,1.0,2.0,2.0,359.9325830000452,4.0,1.0,part_1,,,,,,,,,,,,,magenta,flipped triangle
423.0,4.0,4.0,0.0,3.0,3.0,374.5599580001908,4.0,1.0,part_1,,,,,,,,,,,,,gray,hexagon
111.0,6.0,2.0,1.0,4.0,4.0,351.663052999811,4.0,2.0,part_1,,,,,,,,,,,,,blue,square
49.0,5.0,1.0,1.0,2.0,2.0,310.3373320000173,4.0,1.0,part_1,,,,,,,,,,,,,white,I
200.0,7.0,3.0,1.0,3.0,3.0,363.4698870000648,4.0,1.0,part_1,,,,,,,,,,,,,yellow,diamond
225.0,7.0,3.0,1.0,2.0,2.0,313.2845000000088,4.0,1.0,part_1,,,,,,,,,,,,,yellow,diamond
40.0,5.0,1.0,1.0,4.0,4.0,319.6796349998294,4.0,1.0,part_1,,,,,,,,,,,,,white,I
204.0,3.0,3.0,0.0,1.0,1.0,307.9650209997453,4.0,1.0,part_1,,,,,,,,,,,,,cyan,triangle
0.0,2.0,0.0,0.0,2.0,2.0,295.6036519999543,4.0,1.0,part_1,,,,,,,,,,,,,orange,cross
0.0,1.0,0.0,0.0,4.0,4.0,509.353628000099,4.0,1.0,part_1,,,,,,,,,,,,,green,circle
97.0,2.0,2.0,0.0,2.0,2.0,386.1223580001933,4.0,1.0,part_1,,,,,,,,,,,,,orange,cross
61.0,1.0,1.0,0.0,3.0,3.0,370.0597619999826,4.0,1.0,part_1,,,,,,,,,,,,,green,circle
39.0,5.0,1.0,1.0,1.0,1.0,333.5446559999582,4.0,1.0,part_1,,,,,,,,,,,,,white,I
178.0,7.0,3.0,1.0,4.0,4.0,370.7588910001504,4.0,1.0,part_1,,,,,,,,,,,,,yellow,diamond
416.0,8.0,4.0,1.0,1.0,1.0,341.3647450001917,4.0,1.0,part_1,,,,,,,,,,,,,magenta,flipped triangle
195.0,7.0,3.0,1.0,1.0,1.0,371.672449000016,4.0,1.0,part_1,,,,,,,,,,,,,yellow,diamond
87.0,6.0,2.0,1.0,4.0,4.0,421.7257750001408,4.0,1.0,part_1,,,,,,,,,,,,,blue,square
108.0,6.0,2.0,1.0,4.0,4.0,400.648087999798,4.0,1.0,part_1,,,,,,,,,,,,,blue,square
0.0,5.0,0.0,1.0,2.0,2.0,361.3363679996837,4.0,1.0,part_1,,,,,,,,,,,,,white,I
117.0,2.0,2.0,0.0,2.0,2.0,303.824896000151,4.0,1.0,part_1,,,,,,,,,,,,,orange,cross
418.0,4.0,4.0,0.0,3.0,3.0,422.4319689997173,4.0,1.0,part_1,,,,,,,,,,,,,gray,hexagon
0.0,6.0,0.0,1.0,4.0,4.0,424.3346059997748,4.0,1.0,part_1,,,,,,,,,,,,,blue,square
0.0,2.0,0.0,0.0,2.0,2.0,341.2439740000081,4.0,1.0,part_1,,,,,,,,,,,,,orange,cross
51.0,1.0,1.0,0.0,1.0,1.0,411.3891480001257,4.0,1.0,part_1,,,,,,,,,,,,,green,circle
64.0,5.0,1.0,1.0,2.0,2.0,352.1439589999318,4.0,1.0,part_1,,,,,,,,,,,,,white,I
416.0,4.0,4.0,0.0,4.0,4.0,401.7033399995853,4.0,1.0,part_1,,,,,,,,,,,,,gray,hexagon
0.0,5.0,0.0,1.0,1.0,1.0,383.6632340003234,4.0,1.0,part_1,,,,,,,,,,,,,white,I
407.0,8.0,4.0,1.0,3.0,3.0,375.3410809999877,4.0,1.0,part_1,,,,,,,,,,,,,magenta,flipped triangle
101.0,6.0,2.0,1.0,2.0,2.0,449.9502019998544,4.0,1.0,part_1,,,,,,,,,,,,,blue,square
195.0,7.0,3.0,1.0,4.0,4.0,449.8379330002535,4.0,1.0,part_1,,,,,,,,,,,,,yellow,diamond
0.0,3.0,0.0,0.0,2.0,2.0,319.8110439998345,4.0,1.0,part_1,,,,,,,,,,,,,cyan,triangle
0.0,6.0,0.0,1.0,2.0,2.0,374.2056609999054,4.0,1.0,part_1,,,,,,,,,,,,,blue,square
214.0,7.0,3.0,1.0,2.0,2.0,345.4838070001642,4.0,1.0,part_1,,,,,,,,,,,,,yellow,diamond
195.0,3.0,3.0,0.0,2.0,2.0,368.7215259997174,4.0,1.0,part_1,,,,,,,,,,,,,cyan,triangle
93.0,2.0,2.0,0.0,1.0,1.0,413.9294159999735,4.0,1.0,part_1,,,,,,,,,,,,,orange,cross
64.0,1.0,1.0,0.0,4.0,4.0,437.5395689999095,4.0,1.0,part_1,,,,,,,,,,,,,green,circle
37.0,1.0,1.0,0.0,3.0,3.0,426.505872999769,4.0,1.0,part_1,,,,,,,,,,,,,green,circle
0.0,4.0,0.0,0.0,3.0,3.0,682.826877000025,4.0,1.0,part_1,,,,,,,,,,,,,gray,hexagon
108.0,2.0,2.0,0.0,1.0,1.0,370.0570949999928,4.0,1.0,part_1,,,,,,,,,,,,,orange,cross
377.0,4.0,4.0,0.0,3.0,3.0,430.5751309998413,4.0,1.0,part_1,,,,,,,,,,,,,gray,hexagon
214.0,3.0,3.0,0.0,2.0,2.0,398.0875740003284,4.0,1.0,part_1,,,,,,,,,,,,,cyan,triangle
57.0,5.0,1.0,1.0,3.0,3.0,404.0748850002273,4.0,1.0,part_1,,,,,,,,,,,,,white,I
102.0,6.0,2.0,1.0,2.0,2.0,336.7919709999114,4.0,1.0,part_1,,,,,,,,,,,,,blue,square
0.0,2.0,0.0,0.0,1.0,1.0,384.6603380002307,4.0,1.0,part_1,,,,,,,,,,,,,orange,cross
400.0,4.0,4.0,0.0,2.0,2.0,331.0758809998333,4.0,1.0,part_1,,,,,,,,,,,,,gray,hexagon
210.0,7.0,3.0,1.0,4.0,4.0,347.1014889996695,4.0,1.0,part_1,,,,,,,,,,,,,yellow,diamond
71.0,1.0,1.0,0.0,1.0,1.0,371.5801459998147,4.0,1.0,part_1,,,,,,,,,,,,,green,circle
66.0,5.0,1.0,1.0,3.0,3.0,447.7034900000944,4.0,1.0,part_1,,,,,,,,,,,,,white,I
84.0,2.0,2.0,0.0,2.0,2.0,378.1529519997093,4.0,1.0,part_1,,,,,,,,,,,,,orange,cross
380.0,8.0,4.0,1.0,3.0,3.0,406.8437310002082,4.0,1.0,part_1,,,,,,,,,,,,,magenta,flipped triangle
396.0,8.0,4.0,1.0,1.0,1.0,381.261343999995,4.0,1.0,part_1,,,,,,,,,,,,,magenta,flipped triangle
388.0,8.0,4.0,1.0,3.0,3.0,416.4194909999423,4.0,1.0,part_1,,,,,,,,,,,,,magenta,flipped triangle
208.0,7.0,3.0,1.0,1.0,1.0,371.3108890001422,4.0,1.0,part_1,,,,,,,,,,,,,yellow,diamond
0.0,2.0,0.0,0.0,1.0,1.0,373.9892680000594,4.0,1.0,part_1,,,,,,,,,,,,,orange,cross
80.0,2.0,2.0,0.0,3.0,3.0,399.7857210001712,4.0,1.0,part_1,,,,,,,,,,,,,orange,cross
79.0,2.0,2.0,0.0,1.0,1.0,313.8005079999857,4.0,1.0,part_1,,,,,,,,,,,,,orange,cross
53.0,5.0,1.0,1.0,1.0,1.0,331.7933729999822,4.0,1.0,part_1,,,,,,,,,,,,,white,I
182.0,7.0,3.0,1.0,2.0,2.0,352.5348779999149,4.0,1.0,part_1,,,,,,,,,,,,,yellow,diamond
421.0,4.0,4.0,0.0,1.0,1.0,348.9969179995569,4.0,1.0,part_1,,,,,,,,,,,,,gray,hexagon
208.0,7.0,3.0,1.0,2.0,2.0,283.1087610002214,4.0,1.0,part_1,,,,,,,,,,,,,yellow,diamond
30.0,1.0,1.0,0.0,1.0,1.0,332.8221609999673,4.0,1.0,part_1,,,,,,,,,,,,,green,circle
220.0,3.0,3.0,0.0,4.0,4.0,409.9813590000849,4.0,1.0,part_1,,,,,,,,,,,,,cyan,triangle
0.0,2.0,0.0,0.0,4.0,4.0,359.5132600003126,4.0,1.0,part_1,,,,,,,,,,,,,orange,cross
0.0,6.0,0.0,1.0,1.0,1.0,307.3397709999881,4.0,1.0,part_1,,,,,,,,,,,,,blue,square
74.0,1.0,1.0,0.0,3.0,3.0,305.5957960000341,4.0,1.0,part_1,,,,,,,,,,,,,green,circle
418.0,4.0,4.0,0.0,4.0,4.0,357.877933999589,4.0,1.0,part_1,,,,,,,,,,,,,gray,hexagon
26.0,1.0,1.0,0.0,1.0,1.0,545.3916139999819,4.0,1.0,part_1,,,,,,,,,,,,,green,circle
63.0,1.0,1.0,0.0,4.0,4.0,288.4892440001749,4.0,1.0,part_1,,,,,,,,,,,,,green,circle
0.0,4.0,0.0,0.0,3.0,3.0,368.9058730001306,4.0,1.0,part_1,,,,,,,,,,,,,gray,hexagon
26.0,5.0,1.0,1.0,4.0,4.0,311.2452690002101,4.0,1.0,part_1,,,,,,,,,,,,,white,I
400.0,8.0,4.0,1.0,3.0,3.0,401.2691580001046,4.0,1.0,part_1,,,,,,,,,,,,,magenta,flipped triangle
401.0,8.0,4.0,1.0,2.0,2.0,317.3656550002306,4.0,1.0,part_1,,,,,,,,,,,,,magenta,flipped triangle
211.0,7.0,3.0,1.0,3.0,3.0,285.2074679999532,4.0,1.0,part_1,,,,,,,,,,,,,yellow,diamond
85.0,2.0,2.0,0.0,3.0,3.0,374.8294060001171,4.0,1.0,part_1,,,,,,,,,,,,,orange,cross
195.0,3.0,3.0,0.0,4.0,4.0,264.1153109998413,4.0,1.0,part_1,,,,,,,,,,,,,cyan,triangle
192.0,7.0,3.0,1.0,1.0,1.0,281.664641000134,4.0,1.0,part_1,,,,,,,,,,,,,yellow,diamond
117.0,2.0,2.0,0.0,4.0,4.0,362.5345120003658,4.0,1.0,part_1,,,,,,,,,,,,,orange,cross
192.0,7.0,3.0,1.0,3.0,3.0,301.294668999617,4.0,1.0,part_1,,,,,,,,,,,,,yellow,diamond
202.0,7.0,3.0,1.0,2.0,2.0,304.5501270003115,4.0,1.0,part_1,,,,,,,,,,,,,yellow,diamond
385.0,4.0,4.0,0.0,2.0,2.0,310.2876680000008,4.0,1.0,part_1,,,,,,,,,,,,,gray,hexagon
57.0,1.0,1.0,0.0,3.0,3.0,306.2367830002586,4.0,1.0,part_1,,,,,,,,,,,,,green,circle
0.0,7.0,0.0,1.0,2.0,2.0,248.5393299998577,4.0,1.0,part_1,,,,,,,,,,,,,yellow,diamond
396.0,4.0,4.0,0.0,1.0,1.0,298.2867610003268,4.0,1.0,part_1,,,,,,,,,,,,,gray,hexagon
82.0,2.0,2.0,0.0,2.0,2.0,274.7473409999657,4.0,1.0,part_1,,,,,,,,,,,,,orange,cross
401.0,4.0,4.0,0.0,1.0,1.0,307.1437019998484,4.0,1.0,part_1,,,,,,,,,,,,,gray,hexagon
0.0,3.0,3.0,0.0,6.0,6.0,390.878437000083,1.0,0.0,part_2,go,250.0,250.0,1.0,,,,,,,,,cyan,triangle
0.0,6.0,2.0,1.0,6.0,6.0,452.9248610001559,1.0,0.0,part_2,go,250.0,250.0,1.0,,,,,,,,,blue,square
0.0,6.0,2.0,1.0,5.0,5.0,483.6626379997142,1.0,0.0,part_2,stop,250.0,250.0,3.0,,,,,,,,,blue,square
0.0,8.0,4.0,1.0,5.0,0.0,0.0,1.0,0.0,part_2,stop,200.0,250.0,4.0,,,,,,,,,magenta,flipped triangle
0.0,3.0,3.0,0.0,5.0,5.0,547.751653999967,1.0,0.0,part_2,go,250.0,250.0,1.0,,,,,,,,,cyan,triangle
0.0,3.0,3.0,0.0,6.0,6.0,476.1512879999827,1.0,0.0,part_2,go,250.0,250.0,1.0,,,,,,,,,cyan,triangle
0.0,8.0,4.0,1.0,5.0,0.0,0.0,1.0,0.0,part_2,stop,250.0,250.0,4.0,,,,,,,,,magenta,flipped triangle
0.0,6.0,2.0,1.0,6.0,6.0,334.3281070001467,1.0,0.0,part_2,go,300.0,250.0,1.0,,,,,,,,,blue,square
0.0,7.0,3.0,1.0,6.0,0.0,0.0,1.0,0.0,part_2,stop,300.0,250.0,4.0,,,,,,,,,yellow,diamond
0.0,1.0,1.0,0.0,5.0,5.0,620.9372769999391,1.0,0.0,part_2,go,300.0,300.0,1.0,,,,,,,,,green,circle
0.0,1.0,1.0,0.0,5.0,5.0,424.2593489998398,1.0,0.0,part_2,go,300.0,300.0,1.0,,,,,,,,,green,circle
0.0,7.0,3.0,1.0,6.0,6.0,257.5684550001824,1.0,0.0,part_2,stop,300.0,300.0,3.0,,,,,,,,,yellow,diamond
0.0,1.0,1.0,0.0,6.0,6.0,534.1607259997545,1.0,0.0,part_2,go,300.0,250.0,1.0,,,,,,,,,green,circle
0.0,7.0,3.0,1.0,6.0,6.0,482.0216399998571,1.0,0.0,part_2,go,300.0,250.0,1.0,,,,,,,,,yellow,diamond
0.0,4.0,4.0,0.0,6.0,6.0,529.4125419995908,1.0,0.0,part_2,go,300.0,250.0,1.0,,,,,,,,,gray,hexagon
0.0,2.0,2.0,0.0,6.0,6.0,580.3473159999157,1.0,0.0,part_2,go,300.0,250.0,1.0,,,,,,,,,orange,cross
0.0,7.0,3.0,1.0,6.0,6.0,629.9103759997706,1.0,0.0,part_2,go,300.0,250.0,1.0,,,,,,,,,yellow,diamond
0.0,8.0,4.0,1.0,6.0,0.0,0.0,1.0,0.0,part_2,stop,300.0,250.0,4.0,,,,,,,,,magenta,flipped triangle
0.0,3.0,3.0,0.0,5.0,5.0,524.7658070002217,1.0,0.0,part_2,go,300.0,300.0,1.0,,,,,,,,,cyan,triangle
0.0,5.0,1.0,1.0,6.0,0.0,0.0,1.0,0.0,part_2,stop,300.0,300.0,4.0,,,,,,,,,white,I
0.0,7.0,3.0,1.0,5.0,5.0,472.2158579997995,1.0,0.0,part_2,stop,300.0,350.0,3.0,,,,,,,,,yellow,diamond
0.0,2.0,2.0,0.0,6.0,6.0,441.5997239998432,1.0,0.0,part_2,go,250.0,350.0,1.0,,,,,,,,,orange,cross
0.0,5.0,1.0,1.0,6.0,0.0,0.0,1.0,0.0,part_2,stop,250.0,350.0,4.0,,,,,,,,,white,I
0.0,2.0,2.0,0.0,5.0,5.0,595.2653800000007,1.0,0.0,part_2,go,250.0,400.0,1.0,,,,,,,,,orange,cross
0.0,7.0,3.0,1.0,5.0,0.0,0.0,1.0,0.0,part_2,stop,250.0,400.0,4.0,,,,,,,,,yellow,diamond
0.0,2.0,2.0,0.0,5.0,5.0,379.9790470002335,1.0,0.0,part_2,go,300.0,400.0,1.0,,,,,,,,,orange,cross
0.0,4.0,4.0,0.0,6.0,6.0,764.0466120001292,1.0,0.0,part_2,go,300.0,400.0,1.0,,,,,,,,,gray,hexagon
0.0,7.0,3.0,1.0,6.0,6.0,615.3170370007501,1.0,0.0,part_2,go,300.0,400.0,1.0,,,,,,,,,yellow,diamond
0.0,1.0,1.0,0.0,5.0,5.0,380.4779449992566,1.0,0.0,part_2,go,300.0,400.0,1.0,,,,,,,,,green,circle
0.0,4.0,4.0,0.0,5.0,5.0,325.9948029999577,1.0,0.0,part_2,go,300.0,400.0,1.0,,,,,,,,,gray,hexagon
0.0,4.0,4.0,0.0,6.0,6.0,412.9945230006342,1.0,0.0,part_2,go,300.0,400.0,1.0,,,,,,,,,gray,hexagon
0.0,3.0,3.0,0.0,5.0,5.0,477.1092250002766,1.0,0.0,part_2,go,300.0,400.0,1.0,,,,,,,,,cyan,triangle
0.0,8.0,4.0,1.0,6.0,6.0,525.446933999774,1.0,0.0,part_2,go,300.0,400.0,1.0,,,,,,,,,magenta,flipped triangle
0.0,3.0,3.0,0.0,6.0,6.0,419.2368000003625,1.0,0.0,part_2,go,300.0,400.0,1.0,,,,,,,,,cyan,triangle
0.0,8.0,4.0,1.0,6.0,0.0,0.0,1.0,0.0,part_2,stop,300.0,400.0,4.0,,,,,,,,,magenta,flipped triangle
0.0,4.0,4.0,0.0,5.0,5.0,434.3709069999022,1.0,0.0,part_2,go,300.0,450.0,1.0,,,,,,,,,gray,hexagon
0.0,8.0,4.0,1.0,6.0,6.0,503.8884870000402,2.0,0.0,part_2,stop,300.0,450.0,3.0,,,,,,,,,magenta,flipped triangle
0.0,7.0,3.0,1.0,5.0,0.0,0.0,2.0,0.0,part_2,stop,300.0,400.0,4.0,,,,,,,,,yellow,diamond
0.0,6.0,2.0,1.0,5.0,5.0,525.5336370000805,2.0,0.0,part_2,go,350.0,400.0,1.0,,,,,,,,,blue,square
0.0,4.0,4.0,0.0,6.0,6.0,255.7233190000261,2.0,0.0,part_2,go,350.0,400.0,1.0,,,,,,,,,gray,hexagon
0.0,8.0,4.0,1.0,5.0,0.0,0.0,2.0,0.0,part_2,stop,350.0,400.0,4.0,,,,,,,,,magenta,flipped triangle
0.0,7.0,3.0,1.0,5.0,5.0,435.0024630002735,2.0,0.0,part_2,stop,400.0,400.0,3.0,,,,,,,,,yellow,diamond
0.0,3.0,3.0,0.0,6.0,6.0,751.7096789997595,2.0,0.0,part_2,go,350.0,400.0,1.0,,,,,,,,,cyan,triangle
0.0,8.0,4.0,1.0,6.0,6.0,829.3895679998968,2.0,0.0,part_2,go,350.0,400.0,1.0,,,,,,,,,magenta,flipped triangle
0.0,8.0,4.0,1.0,6.0,0.0,0.0,2.0,0.0,part_2,stop,350.0,400.0,4.0,,,,,,,,,magenta,flipped triangle
0.0,2.0,2.0,0.0,5.0,5.0,342.2289140007706,2.0,0.0,part_2,go,350.0,450.0,1.0,,,,,,,,,orange,cross
0.0,4.0,4.0,0.0,6.0,6.0,482.8002100002777,2.0,0.0,part_2,go,350.0,450.0,1.0,,,,,,,,,gray,hexagon
0.0,7.0,3.0,1.0,6.0,6.0,682.7896680006234,2.0,0.0,part_2,go,350.0,450.0,1.0,,,,,,,,,yellow,diamond
0.0,3.0,3.0,0.0,6.0,6.0,327.7429010004198,2.0,0.0,part_2,go,350.0,450.0,1.0,,,,,,,,,cyan,triangle
0.0,8.0,4.0,1.0,6.0,6.0,523.256410000613,2.0,0.0,part_2,go,350.0,450.0,1.0,,,,,,,,,magenta,flipped triangle
0.0,1.0,1.0,0.0,5.0,5.0,601.488094999695,2.0,0.0,part_2,go,350.0,450.0,1.0,,,,,,,,,green,circle
0.0,4.0,4.0,0.0,6.0,6.0,534.503947000303,2.0,0.0,part_2,go,350.0,450.0,1.0,,,,,,,,,gray,hexagon
0.0,8.0,4.0,1.0,5.0,0.0,0.0,2.0,0.0,part_2,stop,350.0,450.0,4.0,,,,,,,,,magenta,flipped triangle
0.0,2.0,2.0,0.0,6.0,6.0,501.64046800000506,2.0,0.0,part_2,go,400.0,450.0,1.0,,,,,,,,,orange,cross
0.0,3.0,3.0,0.0,6.0,6.0,647.9078329994081,2.0,0.0,part_2,go,400.0,450.0,1.0,,,,,,,,,cyan,triangle
0.0,1.0,1.0,0.0,6.0,6.0,419.0460450008686,2.0,0.0,part_2,go,400.0,450.0,1.0,,,,,,,,,green,circle
0.0,3.0,3.0,0.0,5.0,5.0,782.0592580001176,2.0,0.0,part_2,go,400.0,450.0,1.0,,,,,,,,,cyan,triangle
0.0,6.0,2.0,1.0,6.0,6.0,442.656194999472,2.0,0.0,part_2,stop,400.0,450.0,3.0,,,,,,,,,blue,square
0.0,4.0,4.0,0.0,6.0,6.0,718.3413239999936,2.0,0.0,part_2,go,400.0,400.0,1.0,,,,,,,,,gray,hexagon
0.0,4.0,4.0,0.0,5.0,5.0,519.3391699995118,2.0,0.0,part_2,go,400.0,400.0,1.0,,,,,,,,,gray,hexagon
0.0,7.0,3.0,1.0,5.0,0.0,0.0,2.0,0.0,part_2,stop,400.0,400.0,4.0,,,,,,,,,yellow,diamond
0.0,3.0,3.0,0.0,6.0,6.0,637.5154089992066,2.0,0.0,part_2,go,450.0,400.0,1.0,,,,,,,,,cyan,triangle
0.0,7.0,3.0,1.0,5.0,5.0,480.3527180001765,2.0,0.0,part_2,stop,450.0,400.0,3.0,,,,,,,,,yellow,diamond
0.0,2.0,2.0,0.0,5.0,5.0,629.2622519995348,2.0,0.0,part_2,go,400.0,400.0,1.0,,,,,,,,,orange,cross
0.0,8.0,4.0,1.0,6.0,0.0,0.0,2.0,0.0,part_2,stop,400.0,400.0,4.0,,,,,,,,,magenta,flipped triangle
0.0,5.0,1.0,1.0,6.0,6.0,563.1100680002419,2.0,0.0,part_2,go,400.0,450.0,1.0,,,,,,,,,white,I
0.0,8.0,4.0,1.0,5.0,0.0,0.0,2.0,0.0,part_2,stop,400.0,450.0,4.0,,,,,,,,,magenta,flipped triangle
0.0,8.0,4.0,1.0,5.0,5.0,594.0750560002925,2.0,0.0,part_2,go,450.0,450.0,1.0,,,,,,,,,magenta,flipped triangle
0.0,8.0,4.0,1.0,6.0,6.0,521.1073580003358,2.0,0.0,part_2,stop,450.0,450.0,3.0,,,,,,,,,magenta,flipped triangle
0.0,4.0,4.0,0.0,5.0,5.0,946.1700290003135,2.0,0.0,part_2,go,450.0,400.0,1.0,,,,,,,,,gray,hexagon
0.0,7.0,3.0,1.0,6.0,0.0,0.0,2.0,0.0,part_2,stop,450.0,400.0,4.0,,,,,,,,,yellow,diamond
0.0,8.0,4.0,1.0,6.0,6.0,775.082422000196,2.0,0.0,part_2,go,450.0,450.0,1.0,,,,,,,,,magenta,flipped triangle
0.0,1.0,1.0,0.0,6.0,6.0,504.13622399992164,3.0,0.0,part_2,go,450.0,450.0,1.0,,,,,,,,,green,circle
0.0,5.0,1.0,1.0,5.0,5.0,496.1260709997077,3.0,0.0,part_2,stop,450.0,450.0,3.0,,,,,,,,,white,I
0.0,1.0,1.0,0.0,6.0,6.0,623.9795779993074,3.0,0.0,part_2,go,400.0,450.0,1.0,,,,,,,,,green,circle
0.0,1.0,1.0,0.0,5.0,5.0,565.9062309996443,3.0,0.0,part_2,go,400.0,450.0,1.0,,,,,,,,,green,circle
0.0,3.0,3.0,0.0,5.0,5.0,618.6527139998361,3.0,0.0,part_2,go,400.0,450.0,1.0,,,,,,,,,cyan,triangle
0.0,5.0,1.0,1.0,6.0,6.0,369.9033889997736,3.0,0.0,part_2,go,400.0,450.0,1.0,,,,,,,,,white,I
0.0,5.0,1.0,1.0,5.0,5.0,521.4779289999569,3.0,0.0,part_2,stop,400.0,450.0,3.0,,,,,,,,,white,I
0.0,3.0,3.0,0.0,6.0,6.0,797.6236909998988,3.0,0.0,part_2,go,350.0,450.0,1.0,,,,,,,,,cyan,triangle
0.0,2.0,2.0,0.0,5.0,5.0,724.3712549998236,3.0,0.0,part_2,go,350.0,450.0,1.0,,,,,,,,,orange,cross
0.0,3.0,3.0,0.0,5.0,5.0,610.7349639996755,3.0,0.0,part_2,go,350.0,450.0,1.0,,,,,,,,,cyan,triangle
0.0,7.0,3.0,1.0,6.0,0.0,0.0,3.0,0.0,part_2,stop,350.0,450.0,4.0,,,,,,,,,yellow,diamond
0.0,5.0,1.0,1.0,6.0,6.0,579.7059540000191,3.0,0.0,part_2,go,350.0,500.0,1.0,,,,,,,,,white,I
0.0,2.0,2.0,0.0,5.0,5.0,754.3500050005605,3.0,0.0,part_2,go,350.0,500.0,1.0,,,,,,,,,orange,cross
0.0,8.0,4.0,1.0,6.0,0.0,0.0,3.0,0.0,part_2,stop,350.0,500.0,4.0,,,,,,,,,magenta,flipped triangle
0.0,6.0,2.0,1.0,5.0,0.0,0.0,3.0,0.0,part_2,stop,350.0,550.0,4.0,,,,,,,,,blue,square
0.0,4.0,4.0,0.0,5.0,5.0,600.9113959999013,3.0,0.0,part_2,go,400.0,550.0,1.0,,,,,,,,,gray,hexagon
0.0,6.0,2.0,1.0,5.0,5.0,364.6685399999114,3.0,0.0,part_2,stop,400.0,550.0,3.0,,,,,,,,,blue,square
0.0,1.0,1.0,0.0,6.0,6.0,800.7339290006712,3.0,0.0,part_2,go,350.0,550.0,1.0,,,,,,,,,green,circle
0.0,6.0,2.0,1.0,6.0,0.0,0.0,3.0,0.0,part_2,stop,350.0,550.0,4.0,,,,,,,,,blue,square
0.0,8.0,4.0,1.0,6.0,0.0,0.0,3.0,0.0,part_2,stop,350.0,600.0,4.0,,,,,,,,,magenta,flipped triangle
0.0,6.0,2.0,1.0,5.0,0.0,0.0,3.0,0.0,part_2,stop,350.0,650.0,4.0,,,,,,,,,blue,square
0.0,1.0,1.0,0.0,6.0,6.0,517.3596610002278,3.0,0.0,part_2,go,400.0,650.0,1.0,,,,,,,,,green,circle
0.0,5.0,1.0,1.0,5.0,0.0,0.0,3.0,0.0,part_2,stop,400.0,650.0,4.0,,,,,,,,,white,I
0.0,2.0,2.0,0.0,6.0,6.0,671.7766759993538,3.0,0.0,part_2,go,450.0,650.0,1.0,,,,,,,,,orange,cross
0.0,6.0,2.0,1.0,6.0,6.0,796.5348160005306,3.0,0.0,part_2,go,450.0,650.0,1.0,,,,,,,,,blue,square
0.0,3.0,3.0,0.0,5.0,5.0,582.814026000051,3.0,0.0,part_2,go,450.0,650.0,1.0,,,,,,,,,cyan,triangle
0.0,2.0,2.0,0.0,6.0,6.0,455.690642999798,3.0,0.0,part_2,go,450.0,650.0,1.0,,,,,,,,,orange,cross
0.0,3.0,3.0,0.0,5.0,5.0,653.2787639998787,3.0,0.0,part_2,go,450.0,650.0,1.0,,,,,,,,,cyan,triangle
0.0,6.0,2.0,1.0,5.0,5.0,490.4953170007502,3.0,0.0,part_2,stop,450.0,650.0,3.0,,,,,,,,,blue,square
0.0,7.0,3.0,1.0,6.0,6.0,832.998236000094,3.0,0.0,part_2,stop,400.0,650.0,3.0,,,,,,,,,yellow,diamond
0.0,1.0,1.0,0.0,5.0,5.0,1061.121663999984,3.0,0.0,part_2,go,400.0,600.0,1.0,,,,,,,,,green,circle
0.0,3.0,3.0,0.0,6.0,6.0,795.7623189995502,3.0,0.0,part_2,go,400.0,600.0,1.0,,,,,,,,,cyan,triangle
0.0,3.0,3.0,0.0,6.0,6.0,910.0276420003864,3.0,0.0,part_2,go,400.0,600.0,1.0,,,,,,,,,cyan,triangle
0.0,5.0,1.0,1.0,5.0,0.0,0.0,3.0,0.0,part_2,stop,400.0,600.0,4.0,,,,,,,,,white,I
0.0,4.0,4.0,0.0,6.0,6.0,702.8675700003078,3.0,0.0,part_2,go,450.0,600.0,1.0,,,,,,,,,gray,hexagon
0.0,3.0,3.0,0.0,5.0,5.0,860.3487740001583,3.0,0.0,part_2,go,450.0,600.0,1.0,,,,,,,,,cyan,triangle
0.0,7.0,3.0,1.0,6.0,6.0,633.8250129992957,4.0,0.0,part_2,stop,450.0,600.0,3.0,,,,,,,,,yellow,diamond
0.0,3.0,3.0,0.0,6.0,6.0,533.8874380004199,4.0,0.0,part_2,go,450.0,550.0,1.0,,,,,,,,,cyan,triangle
0.0,8.0,4.0,1.0,5.0,5.0,491.2891280000622,4.0,0.0,part_2,stop,450.0,550.0,3.0,,,,,,,,,magenta,flipped triangle
0.0,2.0,2.0,0.0,5.0,5.0,528.684167999927,4.0,0.0,part_2,go,400.0,550.0,1.0,,,,,,,,,orange,cross
0.0,7.0,3.0,1.0,5.0,5.0,433.6912640001173,4.0,0.0,part_2,stop,400.0,550.0,3.0,,,,,,,,,yellow,diamond
0.0,6.0,2.0,1.0,5.0,0.0,0.0,4.0,0.0,part_2,stop,350.0,550.0,4.0,,,,,,,,,blue,square
0.0,7.0,3.0,1.0,6.0,6.0,493.4410590003608,4.0,0.0,part_2,go,400.0,550.0,1.0,,,,,,,,,yellow,diamond
0.0,2.0,2.0,0.0,6.0,6.0,413.7589000001753,4.0,0.0,part_2,go,400.0,550.0,1.0,,,,,,,,,orange,cross
0.0,4.0,4.0,0.0,5.0,5.0,645.9260969995739,4.0,0.0,part_2,go,400.0,550.0,1.0,,,,,,,,,gray,hexagon
0.0,5.0,1.0,1.0,6.0,6.0,502.68237899945234,4.0,0.0,part_2,stop,400.0,550.0,3.0,,,,,,,,,white,I
0.0,2.0,2.0,0.0,5.0,5.0,789.244203000635,4.0,0.0,part_2,go,400.0,500.0,1.0,,,,,,,,,orange,cross
0.0,7.0,3.0,1.0,6.0,6.0,741.7744240001412,4.0,0.0,part_2,go,400.0,500.0,1.0,,,,,,,,,yellow,diamond
0.0,6.0,2.0,1.0,6.0,6.0,678.6566089995176,4.0,0.0,part_2,go,400.0,500.0,1.0,,,,,,,,,blue,square
0.0,8.0,4.0,1.0,5.0,5.0,650.2392480006165,4.0,0.0,part_2,go,400.0,500.0,1.0,,,,,,,,,magenta,flipped triangle
0.0,8.0,4.0,1.0,5.0,5.0,439.2523189999338,4.0,0.0,part_2,stop,400.0,500.0,3.0,,,,,,,,,magenta,flipped triangle
0.0,3.0,3.0,0.0,5.0,5.0,585.0954070001535,4.0,0.0,part_2,go,350.0,500.0,1.0,,,,,,,,,cyan,triangle
0.0,6.0,2.0,1.0,5.0,0.0,0.0,4.0,0.0,part_2,stop,350.0,500.0,4.0,,,,,,,,,blue,square
0.0,8.0,4.0,1.0,6.0,6.0,527.0815339999899,4.0,0.0,part_2,go,400.0,500.0,1.0,,,,,,,,,magenta,flipped triangle
0.0,8.0,4.0,1.0,5.0,0.0,0.0,4.0,0.0,part_2,stop,400.0,500.0,4.0,,,,,,,,,magenta,flipped triangle
0.0,8.0,4.0,1.0,5.0,0.0,0.0,4.0,0.0,part_2,stop,450.0,500.0,4.0,,,,,,,,,magenta,flipped triangle
0.0,6.0,2.0,1.0,5.0,0.0,0.0,4.0,0.0,part_2,stop,500.0,500.0,4.0,,,,,,,,,blue,square
0.0,6.0,2.0,1.0,5.0,5.0,677.1035550000306,4.0,0.0,part_2,go,550.0,500.0,1.0,,,,,,,,,blue,square
0.0,8.0,4.0,1.0,6.0,6.0,447.80139300019067,4.0,0.0,part_2,stop,550.0,500.0,3.0,,,,,,,,,magenta,flipped triangle
0.0,1.0,1.0,0.0,6.0,6.0,820.1154739999765,4.0,0.0,part_2,go,550.0,450.0,1.0,,,,,,,,,green,circle
0.0,8.0,4.0,1.0,6.0,6.0,606.4942769999107,4.0,0.0,part_2,stop,550.0,450.0,3.0,,,,,,,,,magenta,flipped triangle
0.0,8.0,4.0,1.0,5.0,5.0,726.2665359994571,4.0,0.0,part_2,stop,550.0,400.0,3.0,,,,,,,,,magenta,flipped triangle
0.0,4.0,4.0,0.0,6.0,6.0,795.739236999907,4.0,0.0,part_2,go,500.0,400.0,1.0,,,,,,,,,gray,hexagon
0.0,7.0,3.0,1.0,6.0,6.0,879.0014149999479,4.0,0.0,part_2,go,500.0,400.0,1.0,,,,,,,,,yellow,diamond
0.0,4.0,4.0,0.0,5.0,5.0,740.3352829996948,4.0,0.0,part_2,go,500.0,400.0,1.0,,,,,,,,,gray,hexagon
0.0,6.0,2.0,1.0,6.0,0.0,0.0,4.0,0.0,part_2,stop,500.0,400.0,4.0,,,,,,,,,blue,square
0.0,5.0,1.0,1.0,6.0,0.0,0.0,4.0,0.0,part_2,stop,500.0,450.0,4.0,,,,,,,,,white,I
0.0,7.0,3.0,1.0,6.0,6.0,684.4300860002477,4.0,0.0,part_2,stop,500.0,500.0,3.0,,,,,,,,,yellow,diamond
0.0,2.0,2.0,0.0,6.0,6.0,785.5534059999627,4.0,0.0,part_2,go,500.0,450.0,1.0,,,,,,,,,orange,cross
0.0,1.0,1.0,0.0,6.0,6.0,839.8478919998524,4.0,0.0,part_2,go,500.0,450.0,1.0,,,,,,,,,green,circle
0.0,2.0,2.0,0.0,6.0,6.0,769.7547080006188,4.0,0.0,part_2,go,500.0,450.0,1.0,,,,,,,,,orange,cross
0.0,1.0,1.0,0.0,5.0,5.0,607.8442569996696,4.0,0.0,part_2,go,500.0,450.0,1.0,,,,,,,,,green,circle
0.0,7.0,3.0,1.0,5.0,5.0,691.2662400000045,5.0,0.0,part_2,stop,500.0,450.0,3.0,,,,,,,,,yellow,diamond
0.0,7.0,3.0,1.0,5.0,5.0,508.37476499964396,5.0,0.0,part_2,go,450.0,450.0,1.0,,,,,,,,,yellow,diamond
0.0,6.0,2.0,1.0,5.0,5.0,437.5014979996194,5.0,0.0,part_2,stop,450.0,450.0,3.0,,,,,,,,,blue,square
0.0,1.0,1.0,0.0,5.0,5.0,417.7208999999493,5.0,0.0,part_2,go,400.0,450.0,1.0,,,,,,,,,green,circle
0.0,3.0,3.0,0.0,6.0,6.0,430.841519999376,5.0,0.0,part_2,go,400.0,450.0,1.0,,,,,,,,,cyan,triangle
0.0,7.0,3.0,1.0,6.0,6.0,345.9690429999682,5.0,0.0,part_2,stop,400.0,450.0,3.0,,,,,,,,,yellow,diamond
0.0,1.0,1.0,0.0,6.0,6.0,341.0968389998743,5.0,0.0,part_2,go,400.0,400.0,1.0,,,,,,,,,green,circle
0.0,4.0,4.0,0.0,6.0,6.0,278.9841800004069,5.0,0.0,part_2,go,400.0,400.0,1.0,,,,,,,,,gray,hexagon
0.0,5.0,1.0,1.0,6.0,6.0,312.7553069998612,5.0,0.0,part_2,stop,400.0,400.0,3.0,,,,,,,,,white,I
0.0,5.0,1.0,1.0,5.0,5.0,313.69800199991,5.0,0.0,part_2,go,400.0,350.0,1.0,,,,,,,,,white,I
0.0,8.0,4.0,1.0,6.0,0.0,0.0,5.0,0.0,part_2,stop,400.0,350.0,4.0,,,,,,,,,magenta,flipped triangle
0.0,3.0,3.0,0.0,5.0,5.0,460.3211949997785,5.0,0.0,part_2,go,400.0,400.0,1.0,,,,,,,,,cyan,triangle
0.0,2.0,2.0,0.0,6.0,6.0,536.9634449998557,5.0,0.0,part_2,go,400.0,400.0,1.0,,,,,,,,,orange,cross
0.0,6.0,2.0,1.0,6.0,6.0,346.1980729998686,5.0,0.0,part_2,go,400.0,400.0,1.0,,,,,,,,,blue,square
0.0,4.0,4.0,0.0,6.0,6.0,437.3094370002945,5.0,0.0,part_2,go,400.0,400.0,1.0,,,,,,,,,gray,hexagon
0.0,6.0,2.0,1.0,6.0,0.0,0.0,5.0,0.0,part_2,stop,400.0,400.0,4.0,,,,,,,,,blue,square
0.0,3.0,3.0,0.0,5.0,5.0,526.4169890006087,5.0,0.0,part_2,go,400.0,450.0,1.0,,,,,,,,,cyan,triangle
0.0,1.0,1.0,0.0,5.0,5.0,266.4433419995475,5.0,0.0,part_2,go,400.0,450.0,1.0,,,,,,,,,green,circle
0.0,3.0,3.0,0.0,6.0,6.0,507.4919130001945,5.0,0.0,part_2,go,400.0,450.0,1.0,,,,,,,,,cyan,triangle
0.0,3.0,3.0,0.0,6.0,6.0,419.1143540001576,5.0,0.0,part_2,go,400.0,450.0,1.0,,,,,,,,,cyan,triangle
0.0,4.0,4.0,0.0,6.0,6.0,308.7295269997412,5.0,0.0,part_2,go,400.0,450.0,1.0,,,,,,,,,gray,hexagon
0.0,7.0,3.0,1.0,5.0,5.0,448.1998840001324,5.0,0.0,part_2,stop,400.0,450.0,3.0,,,,,,,,,yellow,diamond
0.0,5.0,1.0,1.0,6.0,6.0,361.29968700061,5.0,0.0,part_2,go,350.0,450.0,1.0,,,,,,,,,white,I
0.0,4.0,4.0,0.0,5.0,5.0,467.0819170005416,5.0,0.0,part_2,go,350.0,450.0,1.0,,,,,,,,,gray,hexagon
0.0,6.0,2.0,1.0,5.0,5.0,337.0984140001383,5.0,0.0,part_2,stop,350.0,450.0,3.0,,,,,,,,,blue,square
0.0,1.0,1.0,0.0,5.0,5.0,261.1371339999095,5.0,0.0,part_2,go,300.0,450.0,1.0,,,,,,,,,green,circle
0.0,1.0,1.0,0.0,6.0,6.0,302.8768109998054,5.0,0.0,part_2,go,300.0,450.0,1.0,,,,,,,,,green,circle
0.0,3.0,3.0,0.0,5.0,5.0,373.4108219996415,5.0,0.0,part_2,go,300.0,450.0,1.0,,,,,,,,,cyan,triangle
0.0,4.0,4.0,0.0,6.0,6.0,724.2542240001058,5.0,0.0,part_2,go,300.0,450.0,1.0,,,,,,,,,gray,hexagon
0.0,6.0,2.0,1.0,6.0,6.0,519.148426999891,5.0,0.0,part_2,stop,300.0,450.0,3.0,,,,,,,,,blue,square
0.0,5.0,1.0,1.0,6.0,6.0,432.58838699966867,5.0,0.0,part_2,stop,300.0,400.0,3.0,,,,,,,,,white,I
0.0,4.0,4.0,0.0,6.0,6.0,599.5162219996928,5.0,0.0,part_2,go,300.0,350.0,1.0,,,,,,,,,gray,hexagon
0.0,2.0,2.0,0.0,6.0,6.0,655.035339999813,5.0,0.0,part_2,go,300.0,350.0,1.0,,,,,,,,,orange,cross
0.0,7.0,3.0,1.0,5.0,5.0,349.4777570003862,5.0,0.0,part_2,stop,300.0,350.0,3.0,,,,,,,,,yellow,diamond
0.0,4.0,4.0,0.0,5.0,5.0,570.0482829997782,5.0,0.0,part_2,go,250.0,350.0,1.0,,,,,,,,,gray,hexagon
0.0,4.0,4.0,0.0,6.0,6.0,519.997604999844,5.0,0.0,part_2,go,250.0,350.0,1.0,,,,,,,,,gray,hexagon
0.0,3.0,3.0,0.0,5.0,5.0,608.3483499996873,6.0,0.0,part_2,go,250.0,350.0,1.0,,,,,,,,,cyan,triangle
0.0,1.0,1.0,0.0,6.0,6.0,285.6030160000955,6.0,0.0,part_2,go,250.0,350.0,1.0,,,,,,,,,green,circle
0.0,6.0,2.0,1.0,6.0,6.0,464.2778730003556,6.0,0.0,part_2,stop,250.0,350.0,3.0,,,,,,,,,blue,square
0.0,6.0,2.0,1.0,6.0,0.0,0.0,6.0,0.0,part_2,stop,250.0,300.0,4.0,,,,,,,,,blue,square
0.0,6.0,2.0,1.0,6.0,6.0,535.5476389995601,6.0,0.0,part_2,stop,250.0,350.0,3.0,,,,,,,,,blue,square
0.0,1.0,1.0,0.0,5.0,5.0,525.9974979999242,6.0,0.0,part_2,go,250.0,300.0,1.0,,,,,,,,,green,circle
0.0,8.0,4.0,1.0,6.0,0.0,0.0,6.0,0.0,part_2,stop,250.0,300.0,4.0,,,,,,,,,magenta,flipped triangle
0.0,2.0,2.0,0.0,6.0,6.0,347.0459709997158,6.0,0.0,part_2,go,250.0,350.0,1.0,,,,,,,,,orange,cross
0.0,7.0,3.0,1.0,6.0,6.0,385.5935370002044,6.0,0.0,part_2,stop,250.0,350.0,3.0,,,,,,,,,yellow,diamond
0.0,5.0,1.0,1.0,6.0,0.0,0.0,6.0,0.0,part_2,stop,250.0,300.0,4.0,,,,,,,,,white,I
0.0,4.0,4.0,0.0,6.0,6.0,631.3783419991523,6.0,0.0,part_2,go,250.0,350.0,1.0,,,,,,,,,gray,hexagon
0.0,3.0,3.0,0.0,6.0,6.0,614.119890999973,6.0,0.0,part_2,go,250.0,350.0,1.0,,,,,,,,,cyan,triangle
0.0,7.0,3.0,1.0,5.0,0.0,0.0,6.0,0.0,part_2,stop,250.0,350.0,4.0,,,,,,,,,yellow,diamond
0.0,5.0,1.0,1.0,5.0,0.0,0.0,6.0,0.0,part_2,stop,300.0,350.0,4.0,,,,,,,,,white,I
0.0,5.0,1.0,1.0,5.0,5.0,581.6853710002761,6.0,0.0,part_2,stop,350.0,350.0,3.0,,,,,,,,,white,I
0.0,3.0,3.0,0.0,5.0,5.0,570.3780740004731,6.0,0.0,part_2,go,300.0,350.0,1.0,,,,,,,,,cyan,triangle
0.0,1.0,1.0,0.0,5.0,5.0,316.5694750005059,6.0,0.0,part_2,go,300.0,350.0,1.0,,,,,,,,,green,circle
0.0,1.0,1.0,0.0,5.0,5.0,440.9096000008503,6.0,0.0,part_2,go,300.0,350.0,1.0,,,,,,,,,green,circle
0.0,1.0,1.0,0.0,5.0,5.0,324.1304450002644,6.0,0.0,part_2,go,300.0,350.0,1.0,,,,,,,,,green,circle
0.0,5.0,1.0,1.0,5.0,5.0,419.9492219995591,6.0,0.0,part_2,go,300.0,350.0,1.0,,,,,,,,,white,I
0.0,4.0,4.0,0.0,5.0,5.0,510.2279410002666,6.0,0.0,part_2,go,300.0,350.0,1.0,,,,,,,,,gray,hexagon
0.0,4.0,4.0,0.0,5.0,5.0,516.2847179999517,6.0,0.0,part_2,go,300.0,350.0,1.0,,,,,,,,,gray,hexagon
0.0,4.0,4.0,0.0,6.0,6.0,508.1830170001922,6.0,0.0,part_2,go,300.0,350.0,1.0,,,,,,,,,gray,hexagon
0.0,5.0,1.0,1.0,5.0,0.0,0.0,6.0,0.0,part_2,stop,300.0,350.0,4.0,,,,,,,,,white,I
0.0,5.0,1.0,1.0,5.0,0.0,0.0,6.0,0.0,part_2,stop,350.0,350.0,4.0,,,,,,,,,white,I
0.0,5.0,1.0,1.0,5.0,5.0,608.1098229997224,6.0,0.0,part_2,stop,400.0,350.0,3.0,,,,,,,,,white,I
0.0,3.0,3.0,0.0,5.0,5.0,631.0542049996002,6.0,0.0,part_2,go,350.0,350.0,1.0,,,,,,,,,cyan,triangle
0.0,4.0,4.0,0.0,5.0,5.0,567.3988529997587,6.0,0.0,part_2,go,350.0,350.0,1.0,,,,,,,,,gray,hexagon
0.0,8.0,4.0,1.0,5.0,0.0,0.0,6.0,0.0,part_2,stop,350.0,350.0,4.0,,,,,,,,,magenta,flipped triangle
0.0,6.0,2.0,1.0,5.0,5.0,554.5139840005504,6.0,0.0,part_2,stop,400.0,350.0,3.0,,,,,,,,,blue,square
0.0,8.0,4.0,1.0,5.0,0.0,0.0,6.0,0.0,part_2,stop,350.0,350.0,4.0,,,,,,,,,magenta,flipped triangle
0.0,5.0,1.0,1.0,6.0,6.0,575.7574250001198,6.0,0.0,part_2,go,400.0,350.0,1.0,,,,,,,,,white,I
0.0,4.0,4.0,0.0,5.0,5.0,500.6295389994193,6.0,0.0,part_2,go,400.0,350.0,1.0,,,,,,,,,gray,hexagon
0.0,2.0,2.0,0.0,5.0,5.0,335.5704840005273,6.0,0.0,part_2,go,400.0,350.0,1.0,,,,,,,,,orange,cross
0.0,1.0,1.0,0.0,5.0,5.0,376.0781179998957,6.0,0.0,part_2,go,400.0,350.0,1.0,,,,,,,,,green,circle
0.0,7.0,3.0,1.0,5.0,5.0,337.1124619998227,6.0,0.0,part_2,go,400.0,350.0,1.0,,,,,,,,,yellow,diamond
0.0,6.0,2.0,1.0,6.0,6.0,512.6037440004438,7.0,0.0,part_2,go,400.0,350.0,1.0,,,,,,,,,blue,square
0.0,6.0,2.0,1.0,5.0,5.0,440.3476610004873,7.0,0.0,part_2,stop,400.0,350.0,3.0,,,,,,,,,blue,square
0.0,5.0,1.0,1.0,5.0,0.0,0.0,7.0,0.0,part_2,stop,350.0,350.0,4.0,,,,,,,,,white,I
0.0,3.0,3.0,0.0,6.0,6.0,555.4244499999186,7.0,0.0,part_2,go,400.0,350.0,1.0,,,,,,,,,cyan,triangle
0.0,2.0,2.0,0.0,5.0,5.0,450.4501040000832,7.0,0.0,part_2,go,400.0,350.0,1.0,,,,,,,,,orange,cross
0.0,5.0,1.0,1.0,5.0,5.0,336.087120999764,7.0,0.0,part_2,stop,400.0,350.0,3.0,,,,,,,,,white,I
0.0,1.0,1.0,0.0,5.0,5.0,457.2570210002595,7.0,0.0,part_2,go,350.0,350.0,1.0,,,,,,,,,green,circle
0.0,2.0,2.0,0.0,6.0,6.0,580.9594279999146,7.0,0.0,part_2,go,350.0,350.0,1.0,,,,,,,,,orange,cross
0.0,2.0,2.0,0.0,6.0,6.0,391.4498809999713,7.0,0.0,part_2,go,350.0,350.0,1.0,,,,,,,,,orange,cross
0.0,5.0,1.0,1.0,6.0,6.0,347.5616639998407,7.0,0.0,part_2,stop,350.0,350.0,3.0,,,,,,,,,white,I
0.0,7.0,3.0,1.0,5.0,0.0,0.0,7.0,0.0,part_2,stop,350.0,300.0,4.0,,,,,,,,,yellow,diamond
0.0,7.0,3.0,1.0,5.0,0.0,0.0,7.0,0.0,part_2,stop,400.0,300.0,4.0,,,,,,,,,yellow,diamond
0.0,2.0,2.0,0.0,5.0,5.0,420.0666440001441,7.0,0.0,part_2,go,450.0,300.0,1.0,,,,,,,,,orange,cross
0.0,2.0,2.0,0.0,5.0,5.0,366.5871370003515,7.0,0.0,part_2,go,450.0,300.0,1.0,,,,,,,,,orange,cross
0.0,1.0,1.0,0.0,6.0,6.0,313.2073420001688,7.0,0.0,part_2,go,450.0,300.0,1.0,,,,,,,,,green,circle
0.0,1.0,1.0,0.0,6.0,6.0,316.298808999818,7.0,0.0,part_2,go,450.0,300.0,1.0,,,,,,,,,green,circle
0.0,4.0,4.0,0.0,5.0,5.0,369.86503299976897,7.0,0.0,part_2,go,450.0,300.0,1.0,,,,,,,,,gray,hexagon
0.0,5.0,1.0,1.0,6.0,6.0,391.956929999651,7.0,0.0,part_2,stop,450.0,300.0,3.0,,,,,,,,,white,I
0.0,5.0,1.0,1.0,5.0,0.0,0.0,7.0,0.0,part_2,stop,450.0,250.0,4.0,,,,,,,,,white,I
0.0,5.0,1.0,1.0,6.0,0.0,0.0,7.0,0.0,part_2,stop,500.0,250.0,4.0,,,,,,,,,white,I
0.0,8.0,4.0,1.0,5.0,5.0,381.923005000317,7.0,0.0,part_2,go,500.0,300.0,1.0,,,,,,,,,magenta,flipped triangle
0.0,1.0,1.0,0.0,5.0,5.0,419.62130399952,7.0,0.0,part_2,go,500.0,300.0,1.0,,,,,,,,,green,circle
0.0,6.0,2.0,1.0,5.0,5.0,563.6843390002468,7.0,0.0,part_2,go,500.0,300.0,1.0,,,,,,,,,blue,square
0.0,1.0,1.0,0.0,6.0,6.0,462.8725760003362,7.0,0.0,part_2,go,500.0,300.0,1.0,,,,,,,,,green,circle
0.0,6.0,2.0,1.0,6.0,6.0,344.3253949999416,7.0,0.0,part_2,stop,500.0,300.0,3.0,,,,,,,,,blue,square
0.0,5.0,1.0,1.0,6.0,0.0,0.0,7.0,0.0,part_2,stop,500.0,250.0,4.0,,,,,,,,,white,I
0.0,2.0,2.0,0.0,6.0,6.0,581.1030770000798,7.0,0.0,part_2,go,500.0,300.0,1.0,,,,,,,,,orange,cross
0.0,5.0,1.0,1.0,5.0,5.0,427.1367679994,7.0,0.0,part_2,go,500.0,300.0,1.0,,,,,,,,,white,I
0.0,3.0,3.0,0.0,5.0,5.0,436.9549279999773,7.0,0.0,part_2,go,500.0,300.0,1.0,,,,,,,,,cyan,triangle
0.0,2.0,2.0,0.0,5.0,5.0,319.752747000166,7.0,0.0,part_2,go,500.0,300.0,1.0,,,,,,,,,orange,cross
0.0,6.0,2.0,1.0,5.0,5.0,430.990419000409,7.0,0.0,part_2,stop,500.0,300.0,3.0,,,,,,,,,blue,square
0.0,2.0,2.0,0.0,5.0,5.0,424.150470999848,7.0,0.0,part_2,go,450.0,300.0,1.0,,,,,,,,,orange,cross
0.0,4.0,4.0,0.0,5.0,5.0,469.7472639991247,7.0,0.0,part_2,go,450.0,300.0,1.0,,,,,,,,,gray,hexagon
0.0,2.0,2.0,0.0,5.0,5.0,577.2382919994925,7.0,0.0,part_2,go,450.0,300.0,1.0,,,,,,,,,orange,cross
0.0,3.0,3.0,0.0,6.0,6.0,486.1036009997406,7.0,0.0,part_2,go,450.0,300.0,1.0,,,,,,,,,cyan,triangle
0.0,8.0,4.0,1.0,5.0,5.0,407.8593419999379,7.0,0.0,part_2,stop,450.0,300.0,3.0,,,,,,,,,magenta,flipped triangle
0.0,7.0,3.0,1.0,5.0,5.0,501.4502589992844,8.0,0.0,part_2,stop,400.0,300.0,3.0,,,,,,,,,yellow,diamond
0.0,5.0,1.0,1.0,5.0,5.0,666.2224290002996,8.0,0.0,part_2,go,350.0,300.0,1.0,,,,,,,,,white,I
0.0,4.0,4.0,0.0,6.0,6.0,377.9331649993764,8.0,0.0,part_2,go,350.0,300.0,1.0,,,,,,,,,gray,hexagon
0.0,2.0,2.0,0.0,6.0,6.0,286.9065459999547,8.0,0.0,part_2,go,350.0,300.0,1.0,,,,,,,,,orange,cross
0.0,7.0,3.0,1.0,6.0,6.0,355.4214340001635,8.0,0.0,part_2,stop,350.0,300.0,3.0,,,,,,,,,yellow,diamond
0.0,5.0,1.0,1.0,6.0,0.0,0.0,8.0,0.0,part_2,stop,350.0,250.0,4.0,,,,,,,,,white,I
0.0,6.0,2.0,1.0,6.0,6.0,379.4759490001524,8.0,0.0,part_2,stop,350.0,300.0,3.0,,,,,,,,,blue,square
0.0,1.0,1.0,0.0,5.0,5.0,490.5816389991742,8.0,0.0,part_2,go,350.0,250.0,1.0,,,,,,,,,green,circle
0.0,2.0,2.0,0.0,5.0,5.0,469.2174299998441,8.0,0.0,part_2,go,350.0,250.0,1.0,,,,,,,,,orange,cross
0.0,6.0,2.0,1.0,6.0,0.0,0.0,8.0,0.0,part_2,stop,350.0,250.0,4.0,,,,,,,,,blue,square
0.0,4.0,4.0,0.0,5.0,5.0,419.8276860006444,8.0,0.0,part_2,go,350.0,300.0,1.0,,,,,,,,,gray,hexagon
0.0,7.0,3.0,1.0,5.0,5.0,405.9272889999192,8.0,0.0,part_2,stop,350.0,300.0,3.0,,,,,,,,,yellow,diamond
0.0,8.0,4.0,1.0,6.0,0.0,0.0,8.0,0.0,part_2,stop,300.0,300.0,4.0,,,,,,,,,magenta,flipped triangle
0.0,2.0,2.0,0.0,5.0,5.0,487.1964880003361,8.0,0.0,part_2,go,300.0,350.0,1.0,,,,,,,,,orange,cross
0.0,5.0,1.0,1.0,6.0,0.0,0.0,8.0,0.0,part_2,stop,300.0,350.0,4.0,,,,,,,,,white,I
0.0,2.0,2.0,0.0,6.0,6.0,450.4754119998324,8.0,0.0,part_2,go,300.0,400.0,1.0,,,,,,,,,orange,cross
0.0,6.0,2.0,1.0,5.0,0.0,0.0,8.0,0.0,part_2,stop,300.0,400.0,4.0,,,,,,,,,blue,square
0.0,8.0,4.0,1.0,5.0,0.0,0.0,8.0,0.0,part_2,stop,350.0,400.0,4.0,,,,,,,,,magenta,flipped triangle
0.0,1.0,1.0,0.0,6.0,6.0,537.849704999644,8.0,0.0,part_2,go,400.0,400.0,1.0,,,,,,,,,green,circle
0.0,1.0,1.0,0.0,6.0,6.0,564.8571740002808,8.0,0.0,part_2,go,400.0,400.0,1.0,,,,,,,,,green,circle
0.0,3.0,3.0,0.0,6.0,6.0,340.7666639996023,8.0,0.0,part_2,go,400.0,400.0,1.0,,,,,,,,,cyan,triangle
0.0,1.0,1.0,0.0,6.0,6.0,420.9465590001855,8.0,0.0,part_2,go,400.0,400.0,1.0,,,,,,,,,green,circle
0.0,5.0,1.0,1.0,5.0,5.0,295.7306190000963,8.0,0.0,part_2,stop,400.0,400.0,3.0,,,,,,,,,white,I
0.0,7.0,3.0,1.0,6.0,6.0,520.0163760000578,8.0,0.0,part_2,stop,350.0,400.0,3.0,,,,,,,,,yellow,diamond
0.0,6.0,2.0,1.0,5.0,0.0,0.0,8.0,0.0,part_2,stop,350.0,350.0,4.0,,,,,,,,,blue,square
0.0,3.0,3.0,0.0,5.0,5.0,668.4306830002242,8.0,0.0,part_2,go,400.0,350.0,1.0,,,,,,,,,cyan,triangle
0.0,8.0,4.0,1.0,5.0,5.0,659.500343000218,8.0,0.0,part_2,go,400.0,350.0,1.0,,,,,,,,,magenta,flipped triangle
0.0,1.0,1.0,0.0,6.0,6.0,424.3544820001261,8.0,0.0,part_2,go,400.0,350.0,1.0,,,,,,,,,green,circle
0.0,4.0,4.0,0.0,5.0,5.0,371.4554349999162,8.0,0.0,part_2,go,400.0,350.0,1.0,,,,,,,,,gray,hexagon
0.0,2.0,2.0,0.0,5.0,5.0,354.8455970003488,8.0,0.0,part_2,go,400.0,350.0,1.0,,,,,,,,,orange,cross
0.0,7.0,3.0,1.0,5.0,5.0,436.4909220003028,8.0,0.0,part_2,stop,400.0,350.0,3.0,,,,,,,,,yellow,diamond
0.0,2.0,2.0,0.0,6.0,6.0,429.0711739995458,8.0,0.0,part_2,go,350.0,350.0,1.0,,,,,,,,,orange,cross
0.0,5.0,1.0,1.0,5.0,0.0,0.0,8.0,0.0,part_2,stop,350.0,350.0,4.0,,,,,,,,,white,I
0.0,2.0,2.0,0.0,6.0,6.0,615.0687409999591,8.0,0.0,part_2,go,400.0,350.0,1.0,,,,,,,,,orange,cross
0.0,4.0,4.0,0.0,5.0,5.0,471.1521740000535,8.0,0.0,part_2,go,400.0,350.0,1.0,,,,,,,,,gray,hexagon
0.0,6.0,2.0,1.0,6.0,6.0,453.0927989999327,8.0,0.0,part_2,stop,400.0,350.0,3.0,,,,,,,,,blue,square
0.0,5.0,1.0,1.0,7.0,2.0,2118.260035000276,1.0,1.0,part_3,go,0.0,0.0,0.0,170.0,5.0,204.0,170.0,68.0,34.0,136.0,102.0,white,I
0.0,2.0,2.0,0.0,7.0,3.0,2032.2110429997338,1.0,1.0,part_3,go,0.0,0.0,0.0,136.0,4.0,102.0,68.0,136.0,170.0,204.0,34.0,orange,cross
0.0,8.0,4.0,1.0,7.0,6.0,1170.5750669998451,1.0,1.0,part_3,go,0.0,0.0,0.0,54.0,1.0,162.0,108.0,216.0,324.0,270.0,54.0,magenta,flipped triangle
0.0,8.0,4.0,1.0,7.0,6.0,1184.8588760003622,1.0,1.0,part_3,go,0.0,0.0,0.0,147.0,3.0,98.0,196.0,245.0,294.0,49.0,147.0,magenta,flipped triangle
0.0,4.0,4.0,0.0,7.0,3.0,1225.4053679998833,1.0,1.0,part_3,go,0.0,0.0,0.0,270.0,5.0,108.0,162.0,270.0,216.0,54.0,324.0,gray,hexagon
0.0,1.0,1.0,0.0,7.0,3.0,1134.4720420001977,1.0,1.0,part_3,go,0.0,0.0,0.0,88.0,2.0,176.0,44.0,88.0,220.0,264.0,132.0,green,circle
0.0,5.0,1.0,1.0,7.0,6.0,707.1166649993756,1.0,1.0,part_3,go,0.0,0.0,0.0,234.0,6.0,39.0,78.0,195.0,156.0,117.0,234.0,white,I
0.0,5.0,1.0,1.0,7.0,5.0,862.0304760006547,1.0,1.0,part_3,go,0.0,0.0,0.0,68.0,2.0,102.0,170.0,34.0,204.0,68.0,136.0,white,I
0.0,3.0,3.0,0.0,7.0,4.0,1203.723607000029,1.0,1.0,part_3,go,0.0,0.0,0.0,162.0,3.0,216.0,324.0,270.0,162.0,54.0,108.0,cyan,triangle
0.0,4.0,4.0,0.0,7.0,1.0,856.6540769998028,1.0,1.0,part_3,go,0.0,0.0,0.0,220.0,5.0,220.0,176.0,88.0,44.0,264.0,132.0,gray,hexagon
0.0,1.0,1.0,0.0,7.0,6.0,873.8787900001626,1.0,1.0,part_3,go,0.0,0.0,0.0,117.0,3.0,195.0,156.0,78.0,234.0,39.0,117.0,green,circle
0.0,8.0,4.0,1.0,7.0,1.0,1680.1793189997625,1.0,1.0,part_3,go,0.0,0.0,0.0,204.0,6.0,204.0,170.0,34.0,136.0,102.0,68.0,magenta,flipped triangle
0.0,1.0,1.0,0.0,7.0,5.0,929.5964410002852,1.0,1.0,part_3,go,0.0,0.0,0.0,102.0,3.0,170.0,204.0,68.0,34.0,102.0,136.0,green,circle
0.0,7.0,3.0,1.0,7.0,5.0,1459.716873000616,1.0,1.0,part_3,go,0.0,0.0,0.0,170.0,5.0,102.0,136.0,34.0,68.0,170.0,204.0,yellow,diamond
0.0,6.0,2.0,1.0,7.0,2.0,2828.292999999576,1.0,1.0,part_3,go,0.0,0.0,0.0,195.0,5.0,78.0,195.0,39.0,234.0,156.0,117.0,blue,square
0.0,7.0,3.0,1.0,7.0,1.0,3480.3598359994794,1.0,1.0,part_3,go,0.0,0.0,0.0,216.0,4.0,216.0,270.0,108.0,162.0,54.0,324.0,yellow,diamond
0.0,6.0,2.0,1.0,7.0,5.0,1946.4958899998237,1.0,1.0,part_3,go,0.0,0.0,0.0,170.0,5.0,204.0,102.0,34.0,136.0,170.0,68.0,blue,square
0.0,6.0,2.0,1.0,7.0,6.0,1606.9801059993551,1.0,1.0,part_3,go,0.0,0.0,0.0,220.0,5.0,264.0,132.0,44.0,88.0,176.0,220.0,blue,square
0.0,7.0,3.0,1.0,7.0,3.0,3172.4058899999363,1.0,1.0,part_3,go,0.0,0.0,0.0,216.0,4.0,324.0,54.0,216.0,108.0,270.0,162.0,yellow,diamond
0.0,6.0,2.0,1.0,7.0,5.0,2201.5557369995804,1.0,1.0,part_3,go,0.0,0.0,0.0,216.0,4.0,108.0,324.0,54.0,270.0,216.0,162.0,blue,square
0.0,4.0,4.0,0.0,7.0,6.0,1270.381821999763,2.0,1.0,part_3,go,0.0,0.0,0.0,294.0,6.0,245.0,98.0,49.0,196.0,147.0,294.0,gray,hexagon
0.0,2.0,2.0,0.0,7.0,3.0,1867.015602999345,2.0,1.0,part_3,go,0.0,0.0,0.0,234.0,6.0,117.0,156.0,234.0,78.0,195.0,39.0,orange,cross
0.0,8.0,4.0,1.0,7.0,1.0,1965.8042109995224,2.0,1.0,part_3,go,0.0,0.0,0.0,102.0,3.0,102.0,204.0,136.0,68.0,34.0,170.0,magenta,flipped triangle
0.0,2.0,2.0,0.0,7.0,5.0,2251.037706000716,2.0,1.0,part_3,go,0.0,0.0,0.0,294.0,6.0,98.0,196.0,49.0,147.0,294.0,245.0,orange,cross
0.0,3.0,3.0,0.0,7.0,6.0,1329.8747500002721,2.0,1.0,part_3,go,0.0,0.0,0.0,88.0,2.0,132.0,264.0,220.0,176.0,44.0,88.0,cyan,triangle
0.0,5.0,1.0,1.0,7.0,2.0,2180.93273300019,2.0,1.0,part_3,go,0.0,0.0,0.0,220.0,5.0,176.0,220.0,44.0,88.0,264.0,132.0,white,I
0.0,6.0,2.0,1.0,7.0,4.0,3773.969597999894,2.0,1.0,part_3,go,0.0,0.0,0.0,102.0,3.0,68.0,170.0,204.0,102.0,34.0,136.0,blue,square
0.0,2.0,2.0,0.0,7.0,4.0,2392.187763000038,2.0,1.0,part_3,go,0.0,0.0,0.0,270.0,5.0,108.0,324.0,54.0,270.0,162.0,216.0,orange,cross
0.0,1.0,1.0,0.0,7.0,1.0,846.6483800002607,2.0,1.0,part_3,go,0.0,0.0,0.0,44.0,1.0,44.0,132.0,264.0,220.0,88.0,176.0,green,circle
0.0,8.0,4.0,1.0,7.0,6.0,2268.662442999812,2.0,1.0,part_3,go,0.0,0.0,0.0,88.0,2.0,132.0,44.0,264.0,176.0,220.0,88.0,magenta,flipped triangle
0.0,6.0,2.0,1.0,7.0,2.0,2414.10585200083,2.0,1.0,part_3,go,0.0,0.0,0.0,132.0,3.0,264.0,132.0,176.0,88.0,44.0,220.0,blue,square
0.0,7.0,3.0,1.0,7.0,1.0,2456.216472000051,2.0,1.0,part_3,go,0.0,0.0,0.0,147.0,3.0,147.0,49.0,245.0,196.0,98.0,294.0,yellow,diamond
0.0,1.0,1.0,0.0,7.0,4.0,1123.8755539998238,2.0,1.0,part_3,go,0.0,0.0,0.0,34.0,1.0,102.0,68.0,170.0,34.0,136.0,204.0,green,circle
0.0,4.0,4.0,0.0,7.0,6.0,1959.8516580008436,2.0,1.0,part_3,go,0.0,0.0,0.0,196.0,4.0,49.0,147.0,245.0,294.0,98.0,196.0,gray,hexagon
0.0,3.0,3.0,0.0,7.0,3.0,1532.96777200012,2.0,1.0,part_3,go,0.0,0.0,0.0,98.0,2.0,245.0,294.0,98.0,49.0,147.0,196.0,cyan,triangle
0.0,4.0,4.0,0.0,7.0,1.0,2682.728105000024,2.0,1.0,part_3,go,0.0,0.0,0.0,220.0,5.0,220.0,44.0,176.0,132.0,88.0,264.0,gray,hexagon
0.0,8.0,4.0,1.0,7.0,6.0,2528.575861999343,2.0,1.0,part_3,go,0.0,0.0,0.0,108.0,2.0,162.0,270.0,54.0,324.0,216.0,108.0,magenta,flipped triangle
0.0,2.0,2.0,0.0,7.0,4.0,2168.1599610001285,2.0,1.0,part_3,go,0.0,0.0,0.0,245.0,5.0,294.0,196.0,98.0,245.0,49.0,147.0,orange,cross
0.0,6.0,2.0,1.0,7.0,3.0,3147.8780520001237,2.0,1.0,part_3,go,0.0,0.0,0.0,156.0,4.0,234.0,195.0,156.0,117.0,78.0,39.0,blue,square
0.0,1.0,1.0,0.0,7.0,6.0,1160.0964799999929,2.0,1.0,part_3,go,0.0,0.0,0.0,147.0,3.0,245.0,49.0,294.0,196.0,98.0,147.0,green,circle
0.0,3.0,3.0,0.0,7.0,1.0,1960.3827419996376,3.0,1.0,part_3,go,0.0,0.0,0.0,78.0,2.0,78.0,195.0,234.0,39.0,117.0,156.0,cyan,triangle
0.0,1.0,1.0,0.0,7.0,1.0,932.2673329997996,3.0,1.0,part_3,go,0.0,0.0,0.0,54.0,1.0,54.0,324.0,216.0,270.0,108.0,162.0,green,circle
0.0,7.0,3.0,1.0,7.0,5.0,1681.038464000267,3.0,1.0,part_3,go,0.0,0.0,0.0,117.0,3.0,78.0,156.0,234.0,39.0,117.0,195.0,yellow,diamond
0.0,5.0,1.0,1.0,7.0,1.0,2030.5225650008651,3.0,1.0,part_3,go,0.0,0.0,0.0,195.0,5.0,195.0,78.0,156.0,234.0,39.0,117.0,white,I
0.0,4.0,4.0,0.0,7.0,5.0,3978.522401999726,3.0,1.0,part_3,go,0.0,0.0,0.0,136.0,4.0,170.0,102.0,34.0,68.0,136.0,204.0,gray,hexagon
0.0,2.0,2.0,0.0,7.0,5.0,1070.4853630004436,3.0,1.0,part_3,go,0.0,0.0,0.0,264.0,6.0,44.0,88.0,220.0,176.0,264.0,132.0,orange,cross
0.0,8.0,4.0,1.0,7.0,4.0,1014.0797760004716,3.0,1.0,part_3,go,0.0,0.0,0.0,78.0,2.0,195.0,117.0,234.0,78.0,39.0,156.0,magenta,flipped triangle
0.0,5.0,1.0,1.0,7.0,2.0,1992.169386000569,3.0,1.0,part_3,go,0.0,0.0,0.0,270.0,5.0,162.0,270.0,54.0,216.0,108.0,324.0,white,I
0.0,7.0,3.0,1.0,7.0,1.0,2454.156003999742,3.0,1.0,part_3,go,0.0,0.0,0.0,132.0,3.0,132.0,264.0,88.0,220.0,44.0,176.0,yellow,diamond
0.0,7.0,3.0,1.0,7.0,3.0,2163.688596000611,3.0,1.0,part_3,go,0.0,0.0,0.0,147.0,3.0,49.0,196.0,147.0,245.0,294.0,98.0,yellow,diamond
0.0,6.0,2.0,1.0,7.0,6.0,2479.9652900001092,3.0,1.0,part_3,go,0.0,0.0,0.0,162.0,3.0,216.0,108.0,324.0,270.0,54.0,162.0,blue,square
0.0,1.0,1.0,0.0,7.0,4.0,978.6360579992106,3.0,1.0,part_3,go,0.0,0.0,0.0,49.0,1.0,294.0,147.0,245.0,49.0,196.0,98.0,green,circle
0.0,4.0,4.0,0.0,7.0,4.0,2444.7683549997237,3.0,1.0,part_3,go,0.0,0.0,0.0,156.0,4.0,78.0,195.0,117.0,156.0,39.0,234.0,gray,hexagon
0.0,7.0,3.0,1.0,7.0,5.0,2015.9168930003943,3.0,1.0,part_3,go,0.0,0.0,0.0,117.0,3.0,195.0,78.0,39.0,156.0,117.0,234.0,yellow,diamond
0.0,5.0,1.0,1.0,7.0,5.0,1304.718899999898,3.0,1.0,part_3,go,0.0,0.0,0.0,245.0,5.0,147.0,196.0,98.0,49.0,245.0,294.0,white,I
0.0,3.0,3.0,0.0,7.0,1.0,918.247388999589,3.0,1.0,part_3,go,0.0,0.0,0.0,88.0,2.0,88.0,264.0,220.0,176.0,44.0,132.0,cyan,triangle
0.0,4.0,4.0,0.0,7.0,3.0,2575.4782539997905,3.0,1.0,part_3,go,0.0,0.0,0.0,136.0,4.0,34.0,170.0,136.0,204.0,102.0,68.0,gray,hexagon
0.0,8.0,4.0,1.0,7.0,5.0,2344.758730000649,3.0,1.0,part_3,go,0.0,0.0,0.0,117.0,3.0,156.0,234.0,195.0,78.0,117.0,39.0,magenta,flipped triangle
0.0,4.0,4.0,0.0,7.0,6.0,2071.2183610003194,3.0,1.0,part_3,go,0.0,0.0,0.0,216.0,4.0,108.0,162.0,270.0,324.0,54.0,216.0,gray,hexagon
0.0,2.0,2.0,0.0,7.0,1.0,1331.204572000388,3.0,1.0,part_3,go,0.0,0.0,0.0,324.0,6.0,324.0,162.0,108.0,270.0,54.0,216.0,orange,cross
0.0,8.0,4.0,1.0,7.0,2.0,1565.0242430001526,4.0,1.0,part_3,go,0.0,0.0,0.0,98.0,2.0,147.0,98.0,294.0,196.0,245.0,49.0,magenta,flipped triangle
0.0,2.0,2.0,0.0,7.0,4.0,1570.7046170000467,4.0,1.0,part_3,go,0.0,0.0,0.0,264.0,6.0,132.0,220.0,44.0,264.0,176.0,88.0,orange,cross
0.0,7.0,3.0,1.0,7.0,2.0,3888.991091999742,4.0,1.0,part_3,go,0.0,0.0,0.0,132.0,3.0,44.0,132.0,264.0,88.0,176.0,220.0,yellow,diamond
0.0,2.0,2.0,0.0,7.0,6.0,1436.7668109998704,4.0,1.0,part_3,go,0.0,0.0,0.0,204.0,6.0,34.0,170.0,136.0,68.0,102.0,204.0,orange,cross
0.0,2.0,2.0,0.0,7.0,2.0,884.7831459997906,4.0,1.0,part_3,go,0.0,0.0,0.0,234.0,6.0,156.0,234.0,117.0,78.0,195.0,39.0,orange,cross
0.0,5.0,1.0,1.0,7.0,5.0,1303.7025860003268,4.0,1.0,part_3,go,0.0,0.0,0.0,220.0,5.0,88.0,44.0,176.0,132.0,220.0,264.0,white,I
0.0,6.0,2.0,1.0,7.0,1.0,2048.967437999636,4.0,1.0,part_3,go,0.0,0.0,0.0,147.0,3.0,147.0,245.0,196.0,49.0,294.0,98.0,blue,square
0.0,1.0,1.0,0.0,7.0,3.0,1544.8802159999104,4.0,1.0,part_3,go,0.0,0.0,0.0,78.0,2.0,234.0,39.0,78.0,195.0,117.0,156.0,green,circle
0.0,5.0,1.0,1.0,7.0,2.0,1547.677190000286,4.0,1.0,part_3,go,0.0,0.0,0.0,270.0,5.0,216.0,270.0,162.0,324.0,108.0,54.0,white,I
0.0,3.0,3.0,0.0,7.0,3.0,1981.6236850001587,4.0,1.0,part_3,go,0.0,0.0,0.0,78.0,2.0,234.0,117.0,78.0,39.0,156.0,195.0,cyan,triangle
0.0,3.0,3.0,0.0,7.0,1.0,3436.7693980002514,4.0,1.0,part_3,go,0.0,0.0,0.0,108.0,2.0,108.0,270.0,162.0,216.0,324.0,54.0,cyan,triangle
0.0,6.0,2.0,1.0,7.0,2.0,2933.711743999993,4.0,1.0,part_3,go,0.0,0.0,0.0,147.0,3.0,294.0,147.0,245.0,98.0,196.0,49.0,blue,square
0.0,3.0,3.0,0.0,7.0,3.0,1530.3879809998762,4.0,1.0,part_3,go,0.0,0.0,0.0,98.0,2.0,49.0,196.0,98.0,294.0,245.0,147.0,cyan,triangle
0.0,4.0,4.0,0.0,7.0,1.0,900.6925070007128,4.0,2.0,part_3,go,0.0,0.0,0.0,156.0,4.0,156.0,234.0,39.0,195.0,117.0,78.0,gray,hexagon
0.0,7.0,3.0,1.0,7.0,5.0,1983.1992770004945,4.0,1.0,part_3,go,0.0,0.0,0.0,102.0,3.0,170.0,136.0,204.0,68.0,102.0,34.0,yellow,diamond
0.0,3.0,3.0,0.0,7.0,5.0,1731.9985960002668,4.0,1.0,part_3,go,0.0,0.0,0.0,68.0,2.0,34.0,204.0,136.0,170.0,68.0,102.0,cyan,triangle
0.0,5.0,1.0,1.0,7.0,4.0,2237.3143389995676,4.0,1.0,part_3,go,0.0,0.0,0.0,245.0,5.0,147.0,196.0,49.0,245.0,294.0,98.0,white,I
0.0,3.0,3.0,0.0,7.0,2.0,1207.817186000284,4.0,1.0,part_3,go,0.0,0.0,0.0,68.0,2.0,204.0,68.0,170.0,34.0,102.0,136.0,cyan,triangle
0.0,8.0,4.0,1.0,7.0,2.0,1077.5909530002536,4.0,1.0,part_3,go,0.0,0.0,0.0,88.0,2.0,176.0,88.0,264.0,44.0,132.0,220.0,magenta,flipped triangle
0.0,1.0,1.0,0.0,7.0,2.0,2121.000611999989,4.0,1.0,part_3,go,0.0,0.0,0.0,108.0,2.0,162.0,108.0,270.0,216.0,324.0,54.0,green,circle
