raw_reward_magnitude,stim_reward,stepwise_reward_magnitude,paired_with_stopping,stim_location,response,reaction_time,block,num_trial_presentations,which_phase,stop_signal_trial_type,left_SSD,right_SSD,accuracy,chosen_bidding_amount,chosen_bidding_level,possible_bid_1,possible_bid_2,possible_bid_3,possible_bid_4,possible_bid_5,possible_bid_6,color_text,shape_text
101.0,2.0,1.0,0.0,1.0,1.0,262.5069109999458,1.0,1.0,phase_1,,,,,,,,,,,,,blue,triangle
119.0,6.0,1.0,1.0,4.0,4.0,254.21427500077698,1.0,1.0,phase_1,,,,,,,,,,,,,magenta,hexagon
413.0,8.0,4.0,1.0,2.0,2.0,247.9382190012984,1.0,1.0,phase_1,,,,,,,,,,,,,white,circle
121.0,2.0,1.0,0.0,3.0,3.0,270.2075790002709,1.0,1.0,phase_1,,,,,,,,,,,,,blue,triangle
97.0,2.0,1.0,0.0,4.0,4.0,264.0027769994049,1.0,1.0,phase_1,,,,,,,,,,,,,blue,triangle
190.0,3.0,2.0,0.0,2.0,2.0,267.64371500030387,1.0,1.0,phase_1,,,,,,,,,,,,,orange,I
221.0,7.0,2.0,1.0,3.0,3.0,276.8637589997524,1.0,1.0,phase_1,,,,,,,,,,,,,cyan,square
182.0,3.0,2.0,0.0,1.0,1.0,230.3445429988642,1.0,1.0,phase_1,,,,,,,,,,,,,orange,I
381.0,4.0,4.0,0.0,1.0,1.0,284.089455000867,1.0,1.0,phase_1,,,,,,,,,,,,,gray,cross
28.0,1.0,0.5,0.0,4.0,4.0,332.2003050016064,1.0,1.0,phase_1,,,,,,,,,,,,,green,flipped triangle
0.0,1.0,0.0,0.0,4.0,4.0,305.510066998977,1.0,2.0,phase_1,,,,,,,,,,,,,green,flipped triangle
62.0,5.0,0.5,1.0,3.0,3.0,311.9956459995592,1.0,1.0,phase_1,,,,,,,,,,,,,yellow,diamond
118.0,2.0,1.0,0.0,1.0,1.0,250.6374620006681,1.0,1.0,phase_1,,,,,,,,,,,,,blue,triangle
49.0,1.0,0.5,0.0,1.0,1.0,267.1399770006246,1.0,2.0,phase_1,,,,,,,,,,,,,green,flipped triangle
93.0,6.0,1.0,1.0,2.0,2.0,320.9446799992292,1.0,1.0,phase_1,,,,,,,,,,,,,magenta,hexagon
407.0,4.0,4.0,0.0,3.0,3.0,362.4307049994968,1.0,1.0,phase_1,,,,,,,,,,,,,gray,cross
27.0,5.0,0.5,1.0,2.0,2.0,362.604003999877,1.0,1.0,phase_1,,,,,,,,,,,,,yellow,diamond
193.0,3.0,2.0,0.0,1.0,1.0,255.54980200104183,1.0,1.0,phase_1,,,,,,,,,,,,,orange,I
95.0,2.0,1.0,0.0,1.0,1.0,274.5876209992275,1.0,1.0,phase_1,,,,,,,,,,,,,blue,triangle
0.0,6.0,0.0,1.0,4.0,4.0,279.7199050000927,1.0,1.0,phase_1,,,,,,,,,,,,,magenta,hexagon
176.0,7.0,2.0,1.0,1.0,1.0,281.1416420008754,1.0,1.0,phase_1,,,,,,,,,,,,,cyan,square
421.0,8.0,4.0,1.0,2.0,2.0,416.8650270003127,1.0,1.0,phase_1,,,,,,,,,,,,,white,circle
0.0,6.0,0.0,1.0,4.0,4.0,290.1927929997328,1.0,1.0,phase_1,,,,,,,,,,,,,magenta,hexagon
0.0,6.0,0.0,1.0,1.0,1.0,240.8619919988268,1.0,1.0,phase_1,,,,,,,,,,,,,magenta,hexagon
107.0,2.0,1.0,0.0,1.0,1.0,300.3823079998255,1.0,1.0,phase_1,,,,,,,,,,,,,blue,triangle
65.0,5.0,0.5,1.0,1.0,1.0,255.3254379999998,1.0,1.0,phase_1,,,,,,,,,,,,,yellow,diamond
414.0,8.0,4.0,1.0,2.0,2.0,247.7497429990762,1.0,1.0,phase_1,,,,,,,,,,,,,white,circle
419.0,8.0,4.0,1.0,2.0,2.0,280.940066999392,1.0,1.0,phase_1,,,,,,,,,,,,,white,circle
0.0,7.0,0.0,1.0,4.0,4.0,276.5116999999009,1.0,1.0,phase_1,,,,,,,,,,,,,cyan,square
0.0,1.0,0.0,0.0,1.0,1.0,224.9552210014371,1.0,1.0,phase_1,,,,,,,,,,,,,green,flipped triangle
52.0,1.0,0.5,0.0,1.0,1.0,290.6674800015025,1.0,1.0,phase_1,,,,,,,,,,,,,green,flipped triangle
120.0,6.0,1.0,1.0,2.0,2.0,281.2040850003541,1.0,1.0,phase_1,,,,,,,,,,,,,magenta,hexagon
29.0,1.0,0.5,0.0,3.0,3.0,453.0752139999094,1.0,2.0,phase_1,,,,,,,,,,,,,green,flipped triangle
108.0,6.0,1.0,1.0,1.0,1.0,299.0103689990064,1.0,1.0,phase_1,,,,,,,,,,,,,magenta,hexagon
0.0,2.0,0.0,0.0,3.0,3.0,335.7989260002796,1.0,2.0,phase_1,,,,,,,,,,,,,blue,triangle
0.0,2.0,0.0,0.0,3.0,3.0,335.6466900004307,1.0,1.0,phase_1,,,,,,,,,,,,,blue,triangle
78.0,6.0,1.0,1.0,3.0,3.0,310.938773000089,1.0,1.0,phase_1,,,,,,,,,,,,,magenta,hexagon
0.0,1.0,0.0,0.0,1.0,1.0,285.7659340006648,1.0,1.0,phase_1,,,,,,,,,,,,,green,flipped triangle
218.0,3.0,2.0,0.0,2.0,2.0,352.824726000108,1.0,1.0,phase_1,,,,,,,,,,,,,orange,I
86.0,6.0,1.0,1.0,1.0,1.0,264.6265729999868,1.0,1.0,phase_1,,,,,,,,,,,,,magenta,hexagon
386.0,4.0,4.0,0.0,4.0,4.0,330.9279839995724,1.0,1.0,phase_1,,,,,,,,,,,,,gray,cross
201.0,3.0,2.0,0.0,3.0,3.0,330.8037490005517,1.0,1.0,phase_1,,,,,,,,,,,,,orange,I
190.0,7.0,2.0,1.0,1.0,1.0,277.8960350005945,1.0,1.0,phase_1,,,,,,,,,,,,,cyan,square
118.0,6.0,1.0,1.0,3.0,3.0,321.1042040002212,1.0,1.0,phase_1,,,,,,,,,,,,,magenta,hexagon
189.0,3.0,2.0,0.0,3.0,3.0,345.6679159990017,1.0,1.0,phase_1,,,,,,,,,,,,,orange,I
33.0,5.0,0.5,1.0,1.0,1.0,291.6936349993193,1.0,1.0,phase_1,,,,,,,,,,,,,yellow,diamond
0.0,3.0,0.0,0.0,3.0,3.0,374.2557610003132,1.0,1.0,phase_1,,,,,,,,,,,,,orange,I
0.0,1.0,0.0,0.0,3.0,3.0,356.2839059995895,1.0,1.0,phase_1,,,,,,,,,,,,,green,flipped triangle
206.0,3.0,2.0,0.0,1.0,1.0,270.587611999872,1.0,1.0,phase_1,,,,,,,,,,,,,orange,I
77.0,6.0,1.0,1.0,4.0,4.0,329.6424700001807,1.0,2.0,phase_1,,,,,,,,,,,,,magenta,hexagon
51.0,5.0,0.5,1.0,3.0,3.0,337.3633560004236,1.0,1.0,phase_1,,,,,,,,,,,,,yellow,diamond
118.0,2.0,1.0,0.0,2.0,2.0,306.0808669997641,1.0,1.0,phase_1,,,,,,,,,,,,,blue,triangle
109.0,6.0,1.0,1.0,1.0,1.0,311.5669379985775,1.0,1.0,phase_1,,,,,,,,,,,,,magenta,hexagon
386.0,8.0,4.0,1.0,1.0,1.0,316.919233999215,1.0,1.0,phase_1,,,,,,,,,,,,,white,circle
110.0,6.0,1.0,1.0,2.0,2.0,370.916292999027,1.0,1.0,phase_1,,,,,,,,,,,,,magenta,hexagon
91.0,2.0,1.0,0.0,4.0,4.0,347.6627499985625,1.0,1.0,phase_1,,,,,,,,,,,,,blue,triangle
225.0,7.0,2.0,1.0,3.0,3.0,335.3328960001818,1.0,1.0,phase_1,,,,,,,,,,,,,cyan,square
189.0,7.0,2.0,1.0,3.0,3.0,358.9574149991676,1.0,1.0,phase_1,,,,,,,,,,,,,cyan,square
393.0,8.0,4.0,1.0,4.0,4.0,405.5451700005505,1.0,2.0,phase_1,,,,,,,,,,,,,white,circle
393.0,4.0,4.0,0.0,2.0,2.0,325.7327119990805,1.0,1.0,phase_1,,,,,,,,,,,,,gray,cross
0.0,8.0,0.0,1.0,1.0,1.0,276.1292350005533,1.0,1.0,phase_1,,,,,,,,,,,,,white,circle
186.0,3.0,2.0,0.0,3.0,3.0,331.9921160000376,1.0,1.0,phase_1,,,,,,,,,,,,,orange,I
386.0,4.0,4.0,0.0,4.0,4.0,297.9580970004463,1.0,1.0,phase_1,,,,,,,,,,,,,gray,cross
0.0,1.0,0.0,0.0,4.0,4.0,342.8135310005018,1.0,1.0,phase_1,,,,,,,,,,,,,green,flipped triangle
417.0,8.0,4.0,1.0,3.0,3.0,335.9214209995116,1.0,1.0,phase_1,,,,,,,,,,,,,white,circle
182.0,7.0,2.0,1.0,4.0,4.0,354.0122009999322,1.0,1.0,phase_1,,,,,,,,,,,,,cyan,square
97.0,6.0,1.0,1.0,2.0,2.0,303.0645540002297,1.0,1.0,phase_1,,,,,,,,,,,,,magenta,hexagon
393.0,4.0,4.0,0.0,4.0,4.0,362.0246299997234,1.0,1.0,phase_1,,,,,,,,,,,,,gray,cross
206.0,7.0,2.0,1.0,4.0,4.0,326.9340080005349,1.0,1.0,phase_1,,,,,,,,,,,,,cyan,square
0.0,5.0,0.0,1.0,2.0,2.0,338.99138400011,1.0,1.0,phase_1,,,,,,,,,,,,,yellow,diamond
422.0,4.0,4.0,0.0,1.0,1.0,291.0288639995997,1.0,1.0,phase_1,,,,,,,,,,,,,gray,cross
77.0,2.0,1.0,0.0,2.0,2.0,343.8750179993803,1.0,1.0,phase_1,,,,,,,,,,,,,blue,triangle
81.0,2.0,1.0,0.0,2.0,2.0,361.8493850008235,1.0,1.0,phase_1,,,,,,,,,,,,,blue,triangle
206.0,3.0,2.0,0.0,2.0,2.0,349.915927999973,1.0,1.0,phase_1,,,,,,,,,,,,,orange,I
63.0,5.0,0.5,1.0,4.0,4.0,290.4503859990655,1.0,1.0,phase_1,,,,,,,,,,,,,yellow,diamond
419.0,4.0,4.0,0.0,4.0,4.0,343.8546799989126,1.0,1.0,phase_1,,,,,,,,,,,,,gray,cross
0.0,2.0,0.0,0.0,2.0,2.0,440.2806929992948,1.0,1.0,phase_1,,,,,,,,,,,,,blue,triangle
404.0,8.0,4.0,1.0,3.0,3.0,300.1775970005838,1.0,1.0,phase_1,,,,,,,,,,,,,white,circle
111.0,2.0,1.0,0.0,1.0,1.0,285.3695530011464,1.0,1.0,phase_1,,,,,,,,,,,,,blue,triangle
192.0,3.0,2.0,0.0,4.0,4.0,306.5825749999931,1.0,1.0,phase_1,,,,,,,,,,,,,orange,I
117.0,2.0,1.0,0.0,2.0,2.0,265.071583999088,1.0,1.0,phase_1,,,,,,,,,,,,,blue,triangle
218.0,3.0,2.0,0.0,4.0,4.0,382.696451000811,1.0,1.0,phase_1,,,,,,,,,,,,,orange,I
68.0,5.0,0.5,1.0,4.0,4.0,405.5007419992762,1.0,1.0,phase_1,,,,,,,,,,,,,yellow,diamond
414.0,8.0,4.0,1.0,2.0,2.0,354.3287860011332,1.0,1.0,phase_1,,,,,,,,,,,,,white,circle
123.0,2.0,1.0,0.0,2.0,2.0,298.4903779997694,1.0,1.0,phase_1,,,,,,,,,,,,,blue,triangle
0.0,5.0,0.0,1.0,3.0,3.0,340.0939399998606,1.0,1.0,phase_1,,,,,,,,,,,,,yellow,diamond
0.0,6.0,0.0,1.0,1.0,1.0,286.0799350000889,1.0,1.0,phase_1,,,,,,,,,,,,,magenta,hexagon
396.0,4.0,4.0,0.0,1.0,1.0,347.1437759999389,1.0,1.0,phase_1,,,,,,,,,,,,,gray,cross
381.0,8.0,4.0,1.0,4.0,4.0,326.5080330002092,1.0,1.0,phase_1,,,,,,,,,,,,,white,circle
381.0,4.0,4.0,0.0,1.0,1.0,298.8454530004674,1.0,1.0,phase_1,,,,,,,,,,,,,gray,cross
194.0,7.0,2.0,1.0,4.0,4.0,309.999995999533,1.0,1.0,phase_1,,,,,,,,,,,,,cyan,square
422.0,8.0,4.0,1.0,4.0,4.0,309.7693629988498,1.0,1.0,phase_1,,,,,,,,,,,,,white,circle
0.0,6.0,0.0,1.0,3.0,3.0,332.7891970002383,1.0,1.0,phase_1,,,,,,,,,,,,,magenta,hexagon
66.0,5.0,0.5,1.0,3.0,3.0,318.9525300003879,1.0,1.0,phase_1,,,,,,,,,,,,,yellow,diamond
26.0,5.0,0.5,1.0,1.0,1.0,250.3048629987461,1.0,1.0,phase_1,,,,,,,,,,,,,yellow,diamond
42.0,1.0,0.5,0.0,1.0,1.0,293.6952069994731,1.0,1.0,phase_1,,,,,,,,,,,,,green,flipped triangle
98.0,2.0,1.0,0.0,4.0,4.0,307.5952990002406,1.0,1.0,phase_1,,,,,,,,,,,,,blue,triangle
187.0,7.0,2.0,1.0,2.0,2.0,283.922665999853,1.0,1.0,phase_1,,,,,,,,,,,,,cyan,square
0.0,6.0,0.0,1.0,2.0,2.0,383.1913929989241,1.0,1.0,phase_1,,,,,,,,,,,,,magenta,hexagon
394.0,4.0,4.0,0.0,4.0,4.0,383.5899000005156,1.0,2.0,phase_1,,,,,,,,,,,,,gray,cross
107.0,6.0,1.0,1.0,4.0,4.0,323.1615269996837,2.0,1.0,phase_1,,,,,,,,,,,,,magenta,hexagon
28.0,1.0,0.5,0.0,2.0,2.0,269.5996679995005,2.0,1.0,phase_1,,,,,,,,,,,,,green,flipped triangle
31.0,5.0,0.5,1.0,4.0,4.0,307.4379669997142,2.0,2.0,phase_1,,,,,,,,,,,,,yellow,diamond
202.0,3.0,2.0,0.0,2.0,2.0,342.2051270008523,2.0,1.0,phase_1,,,,,,,,,,,,,orange,I
0.0,5.0,0.0,1.0,2.0,2.0,373.2646139997086,2.0,1.0,phase_1,,,,,,,,,,,,,yellow,diamond
208.0,7.0,2.0,1.0,2.0,2.0,298.1488859986712,2.0,1.0,phase_1,,,,,,,,,,,,,cyan,square
212.0,3.0,2.0,0.0,1.0,1.0,279.7975680005038,2.0,1.0,phase_1,,,,,,,,,,,,,orange,I
421.0,8.0,4.0,1.0,4.0,4.0,309.1699029992014,2.0,1.0,phase_1,,,,,,,,,,,,,white,circle
181.0,3.0,2.0,0.0,4.0,4.0,406.6689100000076,2.0,1.0,phase_1,,,,,,,,,,,,,orange,I
0.0,7.0,0.0,1.0,3.0,3.0,374.7260190011729,2.0,1.0,phase_1,,,,,,,,,,,,,cyan,square
0.0,4.0,0.0,0.0,1.0,1.0,318.0187119996844,2.0,1.0,phase_1,,,,,,,,,,,,,gray,cross
199.0,7.0,2.0,1.0,3.0,3.0,311.7749409993848,2.0,1.0,phase_1,,,,,,,,,,,,,cyan,square
208.0,3.0,2.0,0.0,3.0,3.0,345.2636350011744,2.0,1.0,phase_1,,,,,,,,,,,,,orange,I
105.0,2.0,1.0,0.0,3.0,3.0,314.9003830003494,2.0,1.0,phase_1,,,,,,,,,,,,,blue,triangle
0.0,2.0,0.0,0.0,1.0,1.0,276.5331420014263,2.0,1.0,phase_1,,,,,,,,,,,,,blue,triangle
119.0,2.0,1.0,0.0,2.0,2.0,384.9655970007006,2.0,1.0,phase_1,,,,,,,,,,,,,blue,triangle
0.0,7.0,0.0,1.0,4.0,4.0,375.4531310005404,2.0,1.0,phase_1,,,,,,,,,,,,,cyan,square
0.0,4.0,0.0,0.0,2.0,2.0,310.0082390010357,2.0,1.0,phase_1,,,,,,,,,,,,,gray,cross
181.0,7.0,2.0,1.0,4.0,4.0,364.7757199996704,2.0,1.0,phase_1,,,,,,,,,,,,,cyan,square
95.0,2.0,1.0,0.0,1.0,1.0,250.9610470006009,2.0,1.0,phase_1,,,,,,,,,,,,,blue,triangle
225.0,7.0,2.0,1.0,2.0,2.0,267.38872200076,2.0,1.0,phase_1,,,,,,,,,,,,,cyan,square
394.0,8.0,4.0,1.0,2.0,2.0,280.9111269998539,2.0,1.0,phase_1,,,,,,,,,,,,,white,circle
387.0,8.0,4.0,1.0,4.0,4.0,285.009342000194,2.0,1.0,phase_1,,,,,,,,,,,,,white,circle
378.0,8.0,4.0,1.0,4.0,4.0,311.3947439996991,2.0,2.0,phase_1,,,,,,,,,,,,,white,circle
190.0,3.0,2.0,0.0,2.0,2.0,305.3937949989631,2.0,1.0,phase_1,,,,,,,,,,,,,orange,I
0.0,2.0,0.0,0.0,2.0,2.0,340.1101250001375,2.0,1.0,phase_1,,,,,,,,,,,,,blue,triangle
389.0,8.0,4.0,1.0,1.0,1.0,360.854514001403,2.0,1.0,phase_1,,,,,,,,,,,,,white,circle
201.0,7.0,2.0,1.0,2.0,2.0,335.3919019991735,2.0,1.0,phase_1,,,,,,,,,,,,,cyan,square
212.0,7.0,2.0,1.0,4.0,4.0,303.0038400011108,2.0,1.0,phase_1,,,,,,,,,,,,,cyan,square
79.0,6.0,1.0,1.0,1.0,1.0,331.5865179993125,2.0,1.0,phase_1,,,,,,,,,,,,,magenta,hexagon
405.0,4.0,4.0,0.0,1.0,1.0,327.8446109998185,2.0,2.0,phase_1,,,,,,,,,,,,,gray,cross
187.0,3.0,2.0,0.0,4.0,4.0,361.7373729994142,2.0,1.0,phase_1,,,,,,,,,,,,,orange,I
0.0,2.0,0.0,0.0,3.0,3.0,356.7788430009386,2.0,1.0,phase_1,,,,,,,,,,,,,blue,triangle
0.0,8.0,0.0,1.0,1.0,1.0,270.3036189996055,2.0,1.0,phase_1,,,,,,,,,,,,,white,circle
105.0,6.0,1.0,1.0,4.0,4.0,350.5215490004048,2.0,1.0,phase_1,,,,,,,,,,,,,magenta,hexagon
52.0,5.0,0.5,1.0,4.0,4.0,353.9409980003256,2.0,1.0,phase_1,,,,,,,,,,,,,yellow,diamond
31.0,1.0,0.5,0.0,2.0,2.0,369.1519489984785,2.0,1.0,phase_1,,,,,,,,,,,,,green,flipped triangle
202.0,7.0,2.0,1.0,4.0,4.0,412.8380229994945,2.0,1.0,phase_1,,,,,,,,,,,,,cyan,square
102.0,6.0,1.0,1.0,4.0,4.0,419.2844610006432,2.0,1.0,phase_1,,,,,,,,,,,,,magenta,hexagon
0.0,1.0,0.0,0.0,4.0,4.0,327.7816559984785,2.0,1.0,phase_1,,,,,,,,,,,,,green,flipped triangle
188.0,7.0,2.0,1.0,4.0,4.0,293.7347840015718,2.0,2.0,phase_1,,,,,,,,,,,,,cyan,square
0.0,1.0,0.0,0.0,4.0,4.0,372.1360609997646,2.0,1.0,phase_1,,,,,,,,,,,,,green,flipped triangle
378.0,4.0,4.0,0.0,4.0,4.0,324.5329730016237,2.0,1.0,phase_1,,,,,,,,,,,,,gray,cross
105.0,2.0,1.0,0.0,3.0,3.0,383.8080680015991,2.0,1.0,phase_1,,,,,,,,,,,,,blue,triangle
27.0,1.0,0.5,0.0,1.0,1.0,316.4402760012308,2.0,1.0,phase_1,,,,,,,,,,,,,green,flipped triangle
202.0,7.0,2.0,1.0,1.0,1.0,341.8614580004941,2.0,1.0,phase_1,,,,,,,,,,,,,cyan,square
0.0,6.0,0.0,1.0,3.0,3.0,374.7421110001596,2.0,1.0,phase_1,,,,,,,,,,,,,magenta,hexagon
394.0,4.0,4.0,0.0,2.0,2.0,347.9979759995331,2.0,1.0,phase_1,,,,,,,,,,,,,gray,cross
0.0,7.0,0.0,1.0,2.0,2.0,324.4488229993294,2.0,1.0,phase_1,,,,,,,,,,,,,cyan,square
394.0,4.0,4.0,0.0,2.0,2.0,328.2789300010336,2.0,1.0,phase_1,,,,,,,,,,,,,gray,cross
48.0,1.0,0.5,0.0,1.0,1.0,263.1627649989241,2.0,1.0,phase_1,,,,,,,,,,,,,green,flipped triangle
30.0,1.0,0.5,0.0,3.0,3.0,294.7693639998761,2.0,1.0,phase_1,,,,,,,,,,,,,green,flipped triangle
416.0,4.0,4.0,0.0,1.0,1.0,279.0394280000328,2.0,1.0,phase_1,,,,,,,,,,,,,gray,cross
404.0,4.0,4.0,0.0,3.0,3.0,359.5427269992797,2.0,1.0,phase_1,,,,,,,,,,,,,gray,cross
181.0,3.0,2.0,0.0,3.0,3.0,353.2422349999251,2.0,1.0,phase_1,,,,,,,,,,,,,orange,I
181.0,7.0,2.0,1.0,3.0,3.0,318.8289999998233,2.0,1.0,phase_1,,,,,,,,,,,,,cyan,square
199.0,3.0,2.0,0.0,3.0,3.0,342.4244289999478,2.0,1.0,phase_1,,,,,,,,,,,,,orange,I
0.0,2.0,0.0,0.0,1.0,1.0,266.3361029990483,2.0,1.0,phase_1,,,,,,,,,,,,,blue,triangle
100.0,2.0,1.0,0.0,4.0,4.0,281.158278001385,2.0,1.0,phase_1,,,,,,,,,,,,,blue,triangle
108.0,2.0,1.0,0.0,1.0,1.0,325.4494600005273,2.0,1.0,phase_1,,,,,,,,,,,,,blue,triangle
0.0,5.0,0.0,1.0,2.0,2.0,338.3377190002647,2.0,1.0,phase_1,,,,,,,,,,,,,yellow,diamond
105.0,6.0,1.0,1.0,3.0,3.0,349.0325470011157,2.0,1.0,phase_1,,,,,,,,,,,,,magenta,hexagon
214.0,3.0,2.0,0.0,2.0,2.0,317.5613740004337,2.0,1.0,phase_1,,,,,,,,,,,,,orange,I
87.0,2.0,1.0,0.0,1.0,1.0,289.5831959995121,2.0,1.0,phase_1,,,,,,,,,,,,,blue,triangle
41.0,5.0,0.5,1.0,1.0,1.0,285.4474609994213,2.0,1.0,phase_1,,,,,,,,,,,,,yellow,diamond
396.0,8.0,4.0,1.0,1.0,1.0,309.4927889997052,2.0,1.0,phase_1,,,,,,,,,,,,,white,circle
65.0,5.0,0.5,1.0,2.0,2.0,261.9868710007722,2.0,1.0,phase_1,,,,,,,,,,,,,yellow,diamond
71.0,1.0,0.5,0.0,4.0,4.0,334.1904209992208,2.0,1.0,phase_1,,,,,,,,,,,,,green,flipped triangle
178.0,7.0,2.0,1.0,2.0,2.0,324.8423380009626,2.0,1.0,phase_1,,,,,,,,,,,,,cyan,square
202.0,3.0,2.0,0.0,2.0,2.0,312.8337990001455,2.0,1.0,phase_1,,,,,,,,,,,,,orange,I
38.0,5.0,0.5,1.0,4.0,4.0,328.7024190012744,2.0,1.0,phase_1,,,,,,,,,,,,,yellow,diamond
51.0,1.0,0.5,0.0,4.0,4.0,304.4255080003495,2.0,1.0,phase_1,,,,,,,,,,,,,green,flipped triangle
0.0,1.0,0.0,0.0,2.0,2.0,268.6271040001884,2.0,1.0,phase_1,,,,,,,,,,,,,green,flipped triangle
34.0,5.0,0.5,1.0,4.0,4.0,260.8963660004519,2.0,1.0,phase_1,,,,,,,,,,,,,yellow,diamond
212.0,7.0,2.0,1.0,3.0,3.0,355.7824500003335,2.0,1.0,phase_1,,,,,,,,,,,,,cyan,square
208.0,3.0,2.0,0.0,1.0,1.0,275.2755139990768,2.0,1.0,phase_1,,,,,,,,,,,,,orange,I
73.0,5.0,0.5,1.0,1.0,1.0,311.9374559992138,2.0,1.0,phase_1,,,,,,,,,,,,,yellow,diamond
71.0,5.0,0.5,1.0,3.0,3.0,348.6313409994181,2.0,1.0,phase_1,,,,,,,,,,,,,yellow,diamond
404.0,4.0,4.0,0.0,2.0,2.0,345.9365629987587,2.0,1.0,phase_1,,,,,,,,,,,,,gray,cross
111.0,6.0,1.0,1.0,1.0,1.0,290.5918840006052,2.0,1.0,phase_1,,,,,,,,,,,,,magenta,hexagon
396.0,4.0,4.0,0.0,1.0,1.0,305.453517999922,2.0,1.0,phase_1,,,,,,,,,,,,,gray,cross
65.0,1.0,0.5,0.0,3.0,3.0,305.3097960000741,2.0,1.0,phase_1,,,,,,,,,,,,,green,flipped triangle
72.0,5.0,0.5,1.0,1.0,1.0,262.8317480011901,2.0,1.0,phase_1,,,,,,,,,,,,,yellow,diamond
220.0,3.0,2.0,0.0,4.0,4.0,337.419157000113,2.0,1.0,phase_1,,,,,,,,,,,,,orange,I
110.0,2.0,1.0,0.0,3.0,3.0,331.4281179991667,2.0,1.0,phase_1,,,,,,,,,,,,,blue,triangle
199.0,7.0,2.0,1.0,2.0,2.0,299.9176419998548,2.0,1.0,phase_1,,,,,,,,,,,,,cyan,square
117.0,6.0,1.0,1.0,2.0,2.0,366.5695449999475,2.0,1.0,phase_1,,,,,,,,,,,,,magenta,hexagon
62.0,1.0,0.5,0.0,1.0,1.0,271.080434000396,2.0,1.0,phase_1,,,,,,,,,,,,,green,flipped triangle
0.0,3.0,0.0,0.0,2.0,2.0,301.2622189999092,2.0,1.0,phase_1,,,,,,,,,,,,,orange,I
0.0,8.0,0.0,1.0,3.0,3.0,339.0596280005411,2.0,1.0,phase_1,,,,,,,,,,,,,white,circle
67.0,5.0,0.5,1.0,1.0,1.0,246.9483690001652,2.0,1.0,phase_1,,,,,,,,,,,,,yellow,diamond
225.0,3.0,2.0,0.0,4.0,4.0,306.7366780014708,2.0,1.0,phase_1,,,,,,,,,,,,,orange,I
71.0,5.0,0.5,1.0,2.0,2.0,289.8944240005221,2.0,1.0,phase_1,,,,,,,,,,,,,yellow,diamond
407.0,8.0,4.0,1.0,1.0,1.0,233.8332569997874,2.0,1.0,phase_1,,,,,,,,,,,,,white,circle
225.0,3.0,2.0,0.0,3.0,3.0,324.6867770012613,2.0,1.0,phase_1,,,,,,,,,,,,,orange,I
0.0,4.0,0.0,0.0,2.0,2.0,328.3343589992,2.0,1.0,phase_1,,,,,,,,,,,,,gray,cross
49.0,5.0,0.5,1.0,2.0,2.0,315.1616489994921,2.0,1.0,phase_1,,,,,,,,,,,,,yellow,diamond
195.0,3.0,2.0,0.0,4.0,4.0,364.1448839989607,2.0,1.0,phase_1,,,,,,,,,,,,,orange,I
35.0,5.0,0.5,1.0,2.0,2.0,257.4013329995068,2.0,1.0,phase_1,,,,,,,,,,,,,yellow,diamond
214.0,7.0,2.0,1.0,2.0,2.0,331.4481420002266,2.0,1.0,phase_1,,,,,,,,,,,,,cyan,square
57.0,1.0,0.5,0.0,3.0,3.0,352.7777799972682,3.0,1.0,phase_1,,,,,,,,,,,,,green,flipped triangle
419.0,8.0,4.0,1.0,4.0,4.0,309.5312940022268,3.0,1.0,phase_1,,,,,,,,,,,,,white,circle
378.0,8.0,4.0,1.0,2.0,2.0,220.4734240003745,3.0,1.0,phase_1,,,,,,,,,,,,,white,circle
0.0,1.0,0.0,0.0,1.0,1.0,260.6919710015063,3.0,1.0,phase_1,,,,,,,,,,,,,green,flipped triangle
86.0,2.0,1.0,0.0,2.0,2.0,315.6999589991756,3.0,1.0,phase_1,,,,,,,,,,,,,blue,triangle
215.0,3.0,2.0,0.0,2.0,2.0,286.6037089988822,3.0,1.0,phase_1,,,,,,,,,,,,,orange,I
98.0,6.0,1.0,1.0,2.0,2.0,258.6621000009472,3.0,1.0,phase_1,,,,,,,,,,,,,magenta,hexagon
55.0,5.0,0.5,1.0,1.0,1.0,268.2245350006269,3.0,1.0,phase_1,,,,,,,,,,,,,yellow,diamond
57.0,1.0,0.5,0.0,4.0,4.0,334.5571829995606,3.0,1.0,phase_1,,,,,,,,,,,,,green,flipped triangle
95.0,2.0,1.0,0.0,4.0,4.0,319.171681003354,3.0,1.0,phase_1,,,,,,,,,,,,,blue,triangle
0.0,3.0,0.0,0.0,2.0,2.0,274.8072030008188,3.0,1.0,phase_1,,,,,,,,,,,,,orange,I
26.0,1.0,0.5,0.0,4.0,4.0,308.4610349978902,3.0,1.0,phase_1,,,,,,,,,,,,,green,flipped triangle
49.0,1.0,0.5,0.0,3.0,3.0,334.2514210016816,3.0,1.0,phase_1,,,,,,,,,,,,,green,flipped triangle
415.0,8.0,4.0,1.0,4.0,4.0,357.6871000004757,3.0,1.0,phase_1,,,,,,,,,,,,,white,circle
218.0,7.0,2.0,1.0,1.0,1.0,293.925740999839,3.0,1.0,phase_1,,,,,,,,,,,,,cyan,square
421.0,4.0,4.0,0.0,4.0,4.0,322.4775689996022,3.0,1.0,phase_1,,,,,,,,,,,,,gray,cross
378.0,4.0,4.0,0.0,3.0,3.0,335.3569259998039,3.0,1.0,phase_1,,,,,,,,,,,,,gray,cross
186.0,7.0,2.0,1.0,2.0,2.0,220.5423769992194,3.0,1.0,phase_1,,,,,,,,,,,,,cyan,square
107.0,6.0,1.0,1.0,2.0,2.0,305.7062839980062,3.0,1.0,phase_1,,,,,,,,,,,,,magenta,hexagon
421.0,4.0,4.0,0.0,3.0,3.0,329.6970250012236,3.0,1.0,phase_1,,,,,,,,,,,,,gray,cross
77.0,2.0,1.0,0.0,4.0,4.0,361.3994410006853,3.0,1.0,phase_1,,,,,,,,,,,,,blue,triangle
408.0,8.0,4.0,1.0,1.0,1.0,237.6026109996019,3.0,1.0,phase_1,,,,,,,,,,,,,white,circle
203.0,7.0,2.0,1.0,3.0,3.0,299.9256020011671,3.0,1.0,phase_1,,,,,,,,,,,,,cyan,square
417.0,4.0,4.0,0.0,4.0,4.0,280.2321910021419,3.0,1.0,phase_1,,,,,,,,,,,,,gray,cross
0.0,3.0,0.0,0.0,4.0,4.0,301.4479960002063,3.0,1.0,phase_1,,,,,,,,,,,,,orange,I
220.0,7.0,2.0,1.0,1.0,1.0,280.0435120007023,3.0,1.0,phase_1,,,,,,,,,,,,,cyan,square
0.0,6.0,0.0,1.0,2.0,2.0,278.8959969984717,3.0,1.0,phase_1,,,,,,,,,,,,,magenta,hexagon
188.0,3.0,2.0,0.0,4.0,4.0,269.5818069987581,3.0,1.0,phase_1,,,,,,,,,,,,,orange,I
417.0,4.0,4.0,0.0,2.0,2.0,296.588214001531,3.0,1.0,phase_1,,,,,,,,,,,,,gray,cross
184.0,7.0,2.0,1.0,2.0,2.0,270.5461990008189,3.0,1.0,phase_1,,,,,,,,,,,,,cyan,square
30.0,5.0,0.5,1.0,4.0,4.0,339.0842270018765,3.0,1.0,phase_1,,,,,,,,,,,,,yellow,diamond
414.0,8.0,4.0,1.0,1.0,1.0,240.6769919980433,3.0,1.0,phase_1,,,,,,,,,,,,,white,circle
87.0,6.0,1.0,1.0,3.0,3.0,297.5462680005876,3.0,1.0,phase_1,,,,,,,,,,,,,magenta,hexagon
116.0,2.0,1.0,0.0,2.0,2.0,278.8322859996697,3.0,1.0,phase_1,,,,,,,,,,,,,blue,triangle
42.0,1.0,0.5,0.0,4.0,4.0,299.9830939988896,3.0,1.0,phase_1,,,,,,,,,,,,,green,flipped triangle
0.0,2.0,0.0,0.0,1.0,1.0,264.5493119998718,3.0,1.0,phase_1,,,,,,,,,,,,,blue,triangle
0.0,5.0,0.0,1.0,2.0,2.0,314.4009470015589,3.0,1.0,phase_1,,,,,,,,,,,,,yellow,diamond
63.0,1.0,0.5,0.0,4.0,4.0,285.0978240021504,3.0,1.0,phase_1,,,,,,,,,,,,,green,flipped triangle
93.0,2.0,1.0,0.0,2.0,2.0,266.0480129998177,3.0,1.0,phase_1,,,,,,,,,,,,,blue,triangle
0.0,7.0,0.0,1.0,4.0,4.0,265.1141980022657,3.0,1.0,phase_1,,,,,,,,,,,,,cyan,square
378.0,4.0,4.0,0.0,2.0,2.0,348.7517530011246,3.0,1.0,phase_1,,,,,,,,,,,,,gray,cross
394.0,8.0,4.0,1.0,2.0,2.0,275.6251679966226,3.0,1.0,phase_1,,,,,,,,,,,,,white,circle
65.0,5.0,0.5,1.0,3.0,3.0,292.9840770011651,3.0,1.0,phase_1,,,,,,,,,,,,,yellow,diamond
382.0,4.0,4.0,0.0,3.0,3.0,388.1993440008955,3.0,1.0,phase_1,,,,,,,,,,,,,gray,cross
95.0,6.0,1.0,1.0,2.0,2.0,287.9712899994047,3.0,1.0,phase_1,,,,,,,,,,,,,magenta,hexagon
408.0,4.0,4.0,0.0,3.0,3.0,348.3274339996569,3.0,1.0,phase_1,,,,,,,,,,,,,gray,cross
0.0,7.0,0.0,1.0,1.0,1.0,310.5051849997835,3.0,1.0,phase_1,,,,,,,,,,,,,cyan,square
28.0,5.0,0.5,1.0,4.0,4.0,338.5698950005462,3.0,1.0,phase_1,,,,,,,,,,,,,yellow,diamond
42.0,5.0,0.5,1.0,2.0,2.0,261.1969409990706,3.0,1.0,phase_1,,,,,,,,,,,,,yellow,diamond
0.0,5.0,0.0,1.0,4.0,4.0,312.5099899989436,3.0,2.0,phase_1,,,,,,,,,,,,,yellow,diamond
0.0,2.0,0.0,0.0,1.0,1.0,315.6475329997192,3.0,1.0,phase_1,,,,,,,,,,,,,blue,triangle
103.0,2.0,1.0,0.0,4.0,4.0,300.4083489977347,3.0,1.0,phase_1,,,,,,,,,,,,,blue,triangle
45.0,1.0,0.5,0.0,2.0,2.0,275.3853860012896,3.0,1.0,phase_1,,,,,,,,,,,,,green,flipped triangle
0.0,4.0,0.0,0.0,4.0,4.0,325.6786230012949,3.0,1.0,phase_1,,,,,,,,,,,,,gray,cross
95.0,6.0,1.0,1.0,1.0,1.0,286.3398959998449,3.0,1.0,phase_1,,,,,,,,,,,,,magenta,hexagon
0.0,3.0,0.0,0.0,2.0,2.0,290.394641997409,3.0,1.0,phase_1,,,,,,,,,,,,,orange,I
222.0,3.0,2.0,0.0,2.0,2.0,313.7098539991712,3.0,1.0,phase_1,,,,,,,,,,,,,orange,I
414.0,4.0,4.0,0.0,2.0,2.0,288.1708410022838,3.0,1.0,phase_1,,,,,,,,,,,,,gray,cross
404.0,8.0,4.0,1.0,2.0,2.0,246.6802040034963,3.0,1.0,phase_1,,,,,,,,,,,,,white,circle
182.0,3.0,2.0,0.0,3.0,3.0,342.9152089993295,3.0,1.0,phase_1,,,,,,,,,,,,,orange,I
78.0,2.0,1.0,0.0,1.0,1.0,260.9956250016694,3.0,1.0,phase_1,,,,,,,,,,,,,blue,triangle
378.0,8.0,4.0,1.0,1.0,1.0,300.9561679973558,3.0,1.0,phase_1,,,,,,,,,,,,,white,circle
0.0,3.0,0.0,0.0,3.0,3.0,315.6994410019251,3.0,1.0,phase_1,,,,,,,,,,,,,orange,I
49.0,5.0,0.5,1.0,3.0,3.0,292.3638419997587,3.0,1.0,phase_1,,,,,,,,,,,,,yellow,diamond
378.0,8.0,4.0,1.0,3.0,3.0,313.0171439988771,3.0,1.0,phase_1,,,,,,,,,,,,,white,circle
377.0,8.0,4.0,1.0,3.0,3.0,325.1431469980161,3.0,1.0,phase_1,,,,,,,,,,,,,white,circle
121.0,6.0,1.0,1.0,1.0,1.0,269.1949120016943,3.0,1.0,phase_1,,,,,,,,,,,,,magenta,hexagon
417.0,8.0,4.0,1.0,1.0,1.0,268.9782609995745,3.0,1.0,phase_1,,,,,,,,,,,,,white,circle
393.0,8.0,4.0,1.0,3.0,3.0,320.8002869978372,3.0,1.0,phase_1,,,,,,,,,,,,,white,circle
55.0,1.0,0.5,0.0,2.0,2.0,330.1127240010828,3.0,2.0,phase_1,,,,,,,,,,,,,green,flipped triangle
102.0,6.0,1.0,1.0,2.0,2.0,279.461377998814,3.0,1.0,phase_1,,,,,,,,,,,,,magenta,hexagon
212.0,3.0,2.0,0.0,1.0,1.0,295.2208349997818,3.0,1.0,phase_1,,,,,,,,,,,,,orange,I
49.0,5.0,0.5,1.0,1.0,1.0,292.2450629994273,3.0,1.0,phase_1,,,,,,,,,,,,,yellow,diamond
81.0,6.0,1.0,1.0,1.0,1.0,320.1864789989486,3.0,1.0,phase_1,,,,,,,,,,,,,magenta,hexagon
193.0,7.0,2.0,1.0,1.0,1.0,252.3713810005574,3.0,1.0,phase_1,,,,,,,,,,,,,cyan,square
407.0,8.0,4.0,1.0,1.0,1.0,263.4721069989609,3.0,1.0,phase_1,,,,,,,,,,,,,white,circle
396.0,8.0,4.0,1.0,3.0,3.0,326.0773149995657,3.0,1.0,phase_1,,,,,,,,,,,,,white,circle
0.0,8.0,0.0,1.0,2.0,2.0,293.7265179971291,3.0,1.0,phase_1,,,,,,,,,,,,,white,circle
0.0,4.0,0.0,0.0,4.0,4.0,226.6572299995459,3.0,2.0,phase_1,,,,,,,,,,,,,gray,cross
386.0,8.0,4.0,1.0,4.0,4.0,303.8540050001757,3.0,1.0,phase_1,,,,,,,,,,,,,white,circle
193.0,7.0,2.0,1.0,3.0,3.0,332.0058790013718,3.0,1.0,phase_1,,,,,,,,,,,,,cyan,square
0.0,4.0,0.0,0.0,3.0,3.0,373.5164890022133,3.0,1.0,phase_1,,,,,,,,,,,,,gray,cross
377.0,4.0,4.0,0.0,4.0,4.0,361.0566629977256,3.0,1.0,phase_1,,,,,,,,,,,,,gray,cross
0.0,8.0,0.0,1.0,1.0,1.0,323.3466109995788,3.0,1.0,phase_1,,,,,,,,,,,,,white,circle
38.0,1.0,0.5,0.0,1.0,1.0,323.7935129982361,3.0,1.0,phase_1,,,,,,,,,,,,,green,flipped triangle
65.0,1.0,0.5,0.0,3.0,3.0,331.9827380000788,3.0,1.0,phase_1,,,,,,,,,,,,,green,flipped triangle
0.0,1.0,0.0,0.0,4.0,4.0,297.703062002256,3.0,1.0,phase_1,,,,,,,,,,,,,green,flipped triangle
67.0,1.0,0.5,0.0,3.0,3.0,280.2446509995207,3.0,1.0,phase_1,,,,,,,,,,,,,green,flipped triangle
73.0,1.0,0.5,0.0,2.0,2.0,275.9931039981893,3.0,1.0,phase_1,,,,,,,,,,,,,green,flipped triangle
0.0,4.0,0.0,0.0,1.0,1.0,329.4234410022909,3.0,1.0,phase_1,,,,,,,,,,,,,gray,cross
0.0,5.0,0.0,1.0,3.0,3.0,281.7476369964424,3.0,1.0,phase_1,,,,,,,,,,,,,yellow,diamond
409.0,4.0,4.0,0.0,4.0,4.0,300.8110349983326,3.0,1.0,phase_1,,,,,,,,,,,,,gray,cross
35.0,1.0,0.5,0.0,2.0,2.0,399.382521998632,3.0,1.0,phase_1,,,,,,,,,,,,,green,flipped triangle
0.0,8.0,0.0,1.0,2.0,2.0,312.6097109998227,3.0,1.0,phase_1,,,,,,,,,,,,,white,circle
414.0,4.0,4.0,0.0,3.0,3.0,303.5884989985788,3.0,1.0,phase_1,,,,,,,,,,,,,gray,cross
0.0,7.0,0.0,1.0,1.0,1.0,241.5560020017437,3.0,2.0,phase_1,,,,,,,,,,,,,cyan,square
0.0,8.0,0.0,1.0,2.0,2.0,275.5241279992333,3.0,1.0,phase_1,,,,,,,,,,,,,white,circle
62.0,1.0,0.5,0.0,3.0,3.0,344.2060870002024,3.0,1.0,phase_1,,,,,,,,,,,,,green,flipped triangle
73.0,1.0,0.5,0.0,2.0,2.0,305.5893829987326,3.0,1.0,phase_1,,,,,,,,,,,,,green,flipped triangle
0.0,4.0,0.0,0.0,2.0,2.0,271.500429000298,3.0,1.0,phase_1,,,,,,,,,,,,,gray,cross
413.0,4.0,4.0,0.0,1.0,1.0,357.983032001357,4.0,1.0,phase_1,,,,,,,,,,,,,gray,cross
193.0,3.0,2.0,0.0,1.0,1.0,283.4598919980635,4.0,1.0,phase_1,,,,,,,,,,,,,orange,I
393.0,8.0,4.0,1.0,3.0,3.0,288.3286710020911,4.0,1.0,phase_1,,,,,,,,,,,,,white,circle
41.0,1.0,0.5,0.0,3.0,3.0,274.1524130033212,4.0,1.0,phase_1,,,,,,,,,,,,,green,flipped triangle
57.0,5.0,0.5,1.0,2.0,2.0,208.1360820011468,4.0,1.0,phase_1,,,,,,,,,,,,,yellow,diamond
72.0,1.0,0.5,0.0,4.0,4.0,270.4965570010245,4.0,1.0,phase_1,,,,,,,,,,,,,green,flipped triangle
194.0,3.0,2.0,0.0,4.0,4.0,340.5693849999807,4.0,2.0,phase_1,,,,,,,,,,,,,orange,I
176.0,3.0,2.0,0.0,4.0,4.0,351.6191679991607,4.0,1.0,phase_1,,,,,,,,,,,,,orange,I
62.0,5.0,0.5,1.0,3.0,3.0,334.4045960002404,4.0,1.0,phase_1,,,,,,,,,,,,,yellow,diamond
48.0,5.0,0.5,1.0,4.0,4.0,319.72639200103,4.0,1.0,phase_1,,,,,,,,,,,,,yellow,diamond
195.0,7.0,2.0,1.0,4.0,4.0,351.7342160012049,4.0,1.0,phase_1,,,,,,,,,,,,,cyan,square
0.0,5.0,0.0,1.0,1.0,1.0,324.3144979969656,4.0,1.0,phase_1,,,,,,,,,,,,,yellow,diamond
0.0,7.0,0.0,1.0,4.0,4.0,327.0574560010573,4.0,1.0,phase_1,,,,,,,,,,,,,cyan,square
182.0,7.0,2.0,1.0,4.0,4.0,299.3455929972697,4.0,1.0,phase_1,,,,,,,,,,,,,cyan,square
28.0,5.0,0.5,1.0,2.0,2.0,321.517747001053,4.0,1.0,phase_1,,,,,,,,,,,,,yellow,diamond
45.0,5.0,0.5,1.0,2.0,2.0,347.3032289984985,4.0,1.0,phase_1,,,,,,,,,,,,,yellow,diamond
29.0,5.0,0.5,1.0,3.0,3.0,276.2098769999284,4.0,1.0,phase_1,,,,,,,,,,,,,yellow,diamond
199.0,3.0,2.0,0.0,3.0,3.0,328.9580109994858,4.0,1.0,phase_1,,,,,,,,,,,,,orange,I
378.0,4.0,4.0,0.0,1.0,1.0,268.5184059992025,4.0,1.0,phase_1,,,,,,,,,,,,,gray,cross
0.0,8.0,0.0,1.0,4.0,4.0,317.1820620009384,4.0,1.0,phase_1,,,,,,,,,,,,,white,circle
381.0,8.0,4.0,1.0,4.0,4.0,356.6083149999031,4.0,1.0,phase_1,,,,,,,,,,,,,white,circle
73.0,5.0,0.5,1.0,1.0,1.0,281.176462998701,4.0,1.0,phase_1,,,,,,,,,,,,,yellow,diamond
71.0,1.0,0.5,0.0,4.0,4.0,246.1435570003232,4.0,1.0,phase_1,,,,,,,,,,,,,green,flipped triangle
178.0,3.0,2.0,0.0,1.0,1.0,259.0775060016312,4.0,1.0,phase_1,,,,,,,,,,,,,orange,I
100.0,6.0,1.0,1.0,4.0,4.0,299.5941400004085,4.0,2.0,phase_1,,,,,,,,,,,,,magenta,hexagon
416.0,8.0,4.0,1.0,1.0,1.0,301.3218170017353,4.0,1.0,phase_1,,,,,,,,,,,,,white,circle
0.0,7.0,0.0,1.0,1.0,1.0,358.2518340008391,4.0,1.0,phase_1,,,,,,,,,,,,,cyan,square
103.0,6.0,1.0,1.0,3.0,3.0,335.4256499987968,4.0,1.0,phase_1,,,,,,,,,,,,,magenta,hexagon
393.0,4.0,4.0,0.0,3.0,3.0,325.6782620010199,4.0,1.0,phase_1,,,,,,,,,,,,,gray,cross
65.0,1.0,0.5,0.0,1.0,1.0,326.1979429989878,4.0,1.0,phase_1,,,,,,,,,,,,,green,flipped triangle
387.0,4.0,4.0,0.0,3.0,3.0,264.2878149999887,4.0,1.0,phase_1,,,,,,,,,,,,,gray,cross
109.0,2.0,1.0,0.0,3.0,3.0,254.1633729997556,4.0,1.0,phase_1,,,,,,,,,,,,,blue,triangle
0.0,8.0,0.0,1.0,1.0,1.0,257.0264780006255,4.0,1.0,phase_1,,,,,,,,,,,,,white,circle
0.0,3.0,0.0,0.0,4.0,4.0,361.1654329979501,4.0,1.0,phase_1,,,,,,,,,,,,,orange,I
0.0,3.0,0.0,0.0,2.0,2.0,348.0033639971225,4.0,1.0,phase_1,,,,,,,,,,,,,orange,I
40.0,5.0,0.5,1.0,2.0,2.0,366.8949489983788,4.0,1.0,phase_1,,,,,,,,,,,,,yellow,diamond
45.0,5.0,0.5,1.0,3.0,3.0,327.385841999785,4.0,1.0,phase_1,,,,,,,,,,,,,yellow,diamond
106.0,2.0,1.0,0.0,4.0,4.0,336.7719759989995,4.0,1.0,phase_1,,,,,,,,,,,,,blue,triangle
0.0,6.0,0.0,1.0,4.0,4.0,367.30341799921,4.0,1.0,phase_1,,,,,,,,,,,,,magenta,hexagon
102.0,2.0,1.0,0.0,2.0,2.0,270.8084719997714,4.0,1.0,phase_1,,,,,,,,,,,,,blue,triangle
42.0,5.0,0.5,1.0,3.0,3.0,282.5114959996426,4.0,1.0,phase_1,,,,,,,,,,,,,yellow,diamond
107.0,2.0,1.0,0.0,4.0,4.0,353.796079998574,4.0,1.0,phase_1,,,,,,,,,,,,,blue,triangle
222.0,7.0,2.0,1.0,1.0,1.0,258.2643079986155,4.0,1.0,phase_1,,,,,,,,,,,,,cyan,square
106.0,6.0,1.0,1.0,3.0,3.0,278.7407150026411,4.0,1.0,phase_1,,,,,,,,,,,,,magenta,hexagon
0.0,5.0,0.0,1.0,3.0,3.0,282.2900369974377,4.0,1.0,phase_1,,,,,,,,,,,,,yellow,diamond
389.0,4.0,4.0,0.0,3.0,3.0,316.3090769994596,4.0,1.0,phase_1,,,,,,,,,,,,,gray,cross
208.0,7.0,2.0,1.0,1.0,1.0,282.1861829979752,4.0,1.0,phase_1,,,,,,,,,,,,,cyan,square
84.0,2.0,1.0,0.0,3.0,3.0,303.9153970021289,4.0,1.0,phase_1,,,,,,,,,,,,,blue,triangle
218.0,7.0,2.0,1.0,1.0,1.0,265.5532200005837,4.0,1.0,phase_1,,,,,,,,,,,,,cyan,square
193.0,7.0,2.0,1.0,2.0,2.0,238.5119089994987,4.0,1.0,phase_1,,,,,,,,,,,,,cyan,square
49.0,1.0,0.5,0.0,1.0,1.0,300.5292339985317,4.0,1.0,phase_1,,,,,,,,,,,,,green,flipped triangle
0.0,5.0,0.0,1.0,3.0,3.0,252.1562809997704,4.0,1.0,phase_1,,,,,,,,,,,,,yellow,diamond
102.0,2.0,1.0,0.0,1.0,1.0,229.8257900001772,4.0,1.0,phase_1,,,,,,,,,,,,,blue,triangle
91.0,6.0,1.0,1.0,4.0,4.0,302.1337739992304,4.0,1.0,phase_1,,,,,,,,,,,,,magenta,hexagon
68.0,1.0,0.5,0.0,2.0,2.0,262.0028819983417,4.0,1.0,phase_1,,,,,,,,,,,,,green,flipped triangle
419.0,4.0,4.0,0.0,2.0,2.0,327.3426279993146,4.0,1.0,phase_1,,,,,,,,,,,,,gray,cross
221.0,3.0,2.0,0.0,2.0,2.0,323.8613189969328,4.0,1.0,phase_1,,,,,,,,,,,,,orange,I
184.0,3.0,2.0,0.0,1.0,1.0,296.1592450010357,4.0,1.0,phase_1,,,,,,,,,,,,,orange,I
83.0,2.0,1.0,0.0,3.0,3.0,336.0222870032885,4.0,1.0,phase_1,,,,,,,,,,,,,blue,triangle
45.0,1.0,0.5,0.0,4.0,4.0,310.8138610004971,4.0,1.0,phase_1,,,,,,,,,,,,,green,flipped triangle
415.0,4.0,4.0,0.0,2.0,2.0,263.4797020000405,4.0,1.0,phase_1,,,,,,,,,,,,,gray,cross
192.0,7.0,2.0,1.0,3.0,3.0,319.5920670004852,4.0,1.0,phase_1,,,,,,,,,,,,,cyan,square
407.0,4.0,4.0,0.0,1.0,1.0,231.94924099880149,4.0,1.0,phase_1,,,,,,,,,,,,,gray,cross
120.0,2.0,1.0,0.0,3.0,3.0,252.892607000831,4.0,1.0,phase_1,,,,,,,,,,,,,blue,triangle
40.0,1.0,0.5,0.0,2.0,2.0,282.8517769994505,4.0,1.0,phase_1,,,,,,,,,,,,,green,flipped triangle
91.0,2.0,1.0,0.0,3.0,3.0,278.4911509988887,4.0,1.0,phase_1,,,,,,,,,,,,,blue,triangle
86.0,2.0,1.0,0.0,4.0,4.0,353.0938240000978,4.0,1.0,phase_1,,,,,,,,,,,,,blue,triangle
0.0,6.0,0.0,1.0,2.0,2.0,315.7080470009532,4.0,1.0,phase_1,,,,,,,,,,,,,magenta,hexagon
409.0,8.0,4.0,1.0,3.0,3.0,268.2361000006494,4.0,1.0,phase_1,,,,,,,,,,,,,white,circle
0.0,3.0,0.0,0.0,1.0,1.0,281.2447479991533,4.0,1.0,phase_1,,,,,,,,,,,,,orange,I
394.0,8.0,4.0,1.0,3.0,3.0,248.8277250013197,4.0,1.0,phase_1,,,,,,,,,,,,,white,circle
83.0,6.0,1.0,1.0,3.0,3.0,322.2142539998458,4.0,1.0,phase_1,,,,,,,,,,,,,magenta,hexagon
0.0,8.0,0.0,1.0,4.0,4.0,309.0071990009164,4.0,1.0,phase_1,,,,,,,,,,,,,white,circle
34.0,1.0,0.5,0.0,2.0,2.0,301.1611719994107,4.0,1.0,phase_1,,,,,,,,,,,,,green,flipped triangle
57.0,5.0,0.5,1.0,4.0,4.0,309.9631410004804,4.0,1.0,phase_1,,,,,,,,,,,,,yellow,diamond
0.0,4.0,0.0,0.0,2.0,2.0,294.0607420023298,4.0,1.0,phase_1,,,,,,,,,,,,,gray,cross
0.0,3.0,0.0,0.0,4.0,4.0,310.2247200004058,4.0,2.0,phase_1,,,,,,,,,,,,,orange,I
95.0,6.0,1.0,1.0,1.0,1.0,266.127217997564,4.0,1.0,phase_1,,,,,,,,,,,,,magenta,hexagon
0.0,4.0,0.0,0.0,4.0,4.0,297.0404360021348,4.0,2.0,phase_1,,,,,,,,,,,,,gray,cross
77.0,6.0,1.0,1.0,4.0,4.0,273.2148739996773,4.0,1.0,phase_1,,,,,,,,,,,,,magenta,hexagon
190.0,7.0,2.0,1.0,4.0,4.0,320.7629630014708,4.0,1.0,phase_1,,,,,,,,,,,,,cyan,square
84.0,6.0,1.0,1.0,3.0,3.0,400.0142110016895,4.0,1.0,phase_1,,,,,,,,,,,,,magenta,hexagon
123.0,6.0,1.0,1.0,3.0,3.0,385.7011399995826,4.0,1.0,phase_1,,,,,,,,,,,,,magenta,hexagon
33.0,1.0,0.5,0.0,1.0,1.0,350.7923640027002,4.0,2.0,phase_1,,,,,,,,,,,,,green,flipped triangle
0.0,2.0,0.0,0.0,4.0,4.0,355.4155790006916,4.0,1.0,phase_1,,,,,,,,,,,,,blue,triangle
118.0,6.0,1.0,1.0,4.0,4.0,371.245441998326,4.0,1.0,phase_1,,,,,,,,,,,,,magenta,hexagon
382.0,8.0,4.0,1.0,3.0,3.0,365.0424160005059,4.0,1.0,phase_1,,,,,,,,,,,,,white,circle
203.0,3.0,2.0,0.0,1.0,1.0,295.1940579987422,4.0,1.0,phase_1,,,,,,,,,,,,,orange,I
193.0,3.0,2.0,0.0,3.0,3.0,315.8594750020711,4.0,1.0,phase_1,,,,,,,,,,,,,orange,I
206.0,7.0,2.0,1.0,3.0,3.0,325.7909120002296,4.0,1.0,phase_1,,,,,,,,,,,,,cyan,square
116.0,6.0,1.0,1.0,3.0,3.0,308.7842349996208,4.0,1.0,phase_1,,,,,,,,,,,,,magenta,hexagon
91.0,6.0,1.0,1.0,1.0,1.0,277.2851490008179,4.0,1.0,phase_1,,,,,,,,,,,,,magenta,hexagon
414.0,4.0,4.0,0.0,2.0,2.0,351.6399569998611,4.0,1.0,phase_1,,,,,,,,,,,,,gray,cross
79.0,2.0,1.0,0.0,3.0,3.0,354.9794360005762,4.0,1.0,phase_1,,,,,,,,,,,,,blue,triangle
0.0,7.0,0.0,1.0,3.0,3.0,322.7199230022961,4.0,1.0,phase_1,,,,,,,,,,,,,cyan,square
101.0,6.0,1.0,1.0,2.0,2.0,366.6857659991365,4.0,1.0,phase_1,,,,,,,,,,,,,magenta,hexagon
215.0,7.0,2.0,1.0,1.0,1.0,305.0493070004449,4.0,1.0,phase_1,,,,,,,,,,,,,cyan,square
66.0,1.0,0.5,0.0,3.0,3.0,303.9297350005654,4.0,1.0,phase_1,,,,,,,,,,,,,green,flipped triangle
405.0,8.0,4.0,1.0,2.0,2.0,345.9577670000726,4.0,1.0,phase_1,,,,,,,,,,,,,white,circle
86.0,6.0,1.0,1.0,4.0,4.0,267.770369999198,4.0,1.0,phase_1,,,,,,,,,,,,,magenta,hexagon
0.0,1.0,0.5,0.0,5.0,5.0,320.504538998648,1.0,1.0,phase_2,go,250.0,250.0,1.0,,,,,,,,,green,flipped triangle
0.0,2.0,1.0,0.0,6.0,6.0,288.8894780007831,1.0,1.0,phase_2,go,250.0,250.0,1.0,,,,,,,,,blue,triangle
0.0,2.0,1.0,0.0,6.0,6.0,389.1607939985988,1.0,1.0,phase_2,go,250.0,250.0,1.0,,,,,,,,,blue,triangle
0.0,7.0,2.0,1.0,5.0,5.0,407.4800399976084,1.0,1.0,phase_2,stop,250.0,250.0,3.0,,,,,,,,,cyan,square
0.0,1.0,0.5,0.0,5.0,5.0,333.9082700003928,1.0,1.0,phase_2,go,200.0,250.0,1.0,,,,,,,,,green,flipped triangle
0.0,4.0,4.0,0.0,6.0,6.0,250.4408570021041,1.0,1.0,phase_2,go,200.0,250.0,1.0,,,,,,,,,gray,cross
0.0,7.0,2.0,1.0,5.0,5.0,334.7533240012126,1.0,1.0,phase_2,go,200.0,250.0,1.0,,,,,,,,,cyan,square
0.0,5.0,0.5,1.0,6.0,6.0,290.8864419987367,1.0,1.0,phase_2,stop,200.0,250.0,3.0,,,,,,,,,yellow,diamond
0.0,6.0,1.0,1.0,5.0,5.0,287.2578169990447,1.0,1.0,phase_2,stop,200.0,200.0,3.0,,,,,,,,,magenta,hexagon
0.0,8.0,4.0,1.0,6.0,6.0,260.0724490002903,1.0,1.0,phase_2,stop,150.0,200.0,3.0,,,,,,,,,white,circle
0.0,1.0,0.5,0.0,6.0,6.0,338.6011039983714,1.0,1.0,phase_2,go,150.0,150.0,1.0,,,,,,,,,green,flipped triangle
0.0,5.0,0.5,1.0,5.0,0.0,0.0,1.0,1.0,phase_2,stop,150.0,150.0,4.0,,,,,,,,,yellow,diamond
0.0,3.0,2.0,0.0,6.0,6.0,314.4134499998472,1.0,1.0,phase_2,go,200.0,150.0,1.0,,,,,,,,,orange,I
0.0,7.0,2.0,1.0,6.0,6.0,337.4605379976856,1.0,1.0,phase_2,stop,200.0,150.0,3.0,,,,,,,,,cyan,square
0.0,7.0,2.0,1.0,6.0,0.0,0.0,1.0,1.0,phase_2,stop,200.0,100.0,4.0,,,,,,,,,cyan,square
0.0,4.0,4.0,0.0,6.0,6.0,427.4446350027574,1.0,1.0,phase_2,go,200.0,150.0,1.0,,,,,,,,,gray,cross
0.0,8.0,4.0,1.0,6.0,6.0,296.1775679978018,1.0,1.0,phase_2,stop,200.0,150.0,3.0,,,,,,,,,white,circle
0.0,1.0,0.5,0.0,5.0,5.0,414.7412700003769,1.0,1.0,phase_2,go,200.0,100.0,1.0,,,,,,,,,green,flipped triangle
0.0,7.0,2.0,1.0,5.0,5.0,398.4573050001927,1.0,1.0,phase_2,stop,200.0,100.0,3.0,,,,,,,,,cyan,square
0.0,4.0,4.0,0.0,6.0,6.0,562.6362530019833,1.0,1.0,phase_2,go,150.0,100.0,1.0,,,,,,,,,gray,cross
0.0,4.0,4.0,0.0,6.0,6.0,368.8363540022692,1.0,1.0,phase_2,go,150.0,100.0,1.0,,,,,,,,,gray,cross
0.0,5.0,0.5,1.0,5.0,0.0,0.0,1.0,1.0,phase_2,stop,150.0,100.0,4.0,,,,,,,,,yellow,diamond
0.0,1.0,0.5,0.0,6.0,6.0,399.1665989997273,1.0,1.0,phase_2,go,200.0,100.0,1.0,,,,,,,,,green,flipped triangle
0.0,1.0,0.5,0.0,6.0,6.0,410.2622130012605,1.0,1.0,phase_2,go,200.0,100.0,1.0,,,,,,,,,green,flipped triangle
0.0,7.0,2.0,1.0,6.0,0.0,0.0,1.0,1.0,phase_2,stop,200.0,100.0,4.0,,,,,,,,,cyan,square
0.0,4.0,4.0,0.0,6.0,6.0,551.8319660004636,1.0,1.0,phase_2,go,200.0,150.0,1.0,,,,,,,,,gray,cross
0.0,8.0,4.0,1.0,5.0,5.0,471.2560460029635,1.0,1.0,phase_2,go,200.0,150.0,1.0,,,,,,,,,white,circle
0.0,5.0,0.5,1.0,6.0,6.0,286.5834650001488,1.0,1.0,phase_2,stop,200.0,150.0,3.0,,,,,,,,,yellow,diamond
0.0,2.0,1.0,0.0,6.0,6.0,342.0216580016131,1.0,1.0,phase_2,go,200.0,100.0,1.0,,,,,,,,,blue,triangle
0.0,4.0,4.0,0.0,5.0,5.0,248.1974940019427,1.0,1.0,phase_2,go,200.0,100.0,1.0,,,,,,,,,gray,cross
0.0,6.0,1.0,1.0,6.0,6.0,421.6684719976911,1.0,1.0,phase_2,go,200.0,100.0,1.0,,,,,,,,,magenta,hexagon
0.0,3.0,2.0,0.0,5.0,5.0,377.9028899989498,1.0,1.0,phase_2,go,200.0,100.0,1.0,,,,,,,,,orange,I
0.0,5.0,0.5,1.0,5.0,5.0,382.6771189997089,1.0,1.0,phase_2,stop,200.0,100.0,3.0,,,,,,,,,yellow,diamond
0.0,4.0,4.0,0.0,6.0,6.0,260.3077410021797,1.0,1.0,phase_2,go,150.0,100.0,1.0,,,,,,,,,gray,cross
0.0,8.0,4.0,1.0,5.0,5.0,321.9733370024187,1.0,1.0,phase_2,stop,150.0,100.0,3.0,,,,,,,,,white,circle
0.0,2.0,1.0,0.0,5.0,5.0,321.5964359987993,1.0,1.0,phase_2,go,100.0,100.0,1.0,,,,,,,,,blue,triangle
0.0,8.0,4.0,1.0,6.0,2.0,601.0706079978263,2.0,1.0,phase_2,stop,100.0,100.0,3.0,,,,,,,,,white,circle
0.0,2.0,1.0,0.0,5.0,5.0,376.4095850019657,2.0,1.0,phase_2,go,100.0,50.0,1.0,,,,,,,,,blue,triangle
0.0,1.0,0.5,0.0,5.0,5.0,406.0533420015417,2.0,1.0,phase_2,go,100.0,50.0,1.0,,,,,,,,,green,flipped triangle
0.0,1.0,0.5,0.0,6.0,6.0,460.8343369982322,2.0,1.0,phase_2,go,100.0,50.0,1.0,,,,,,,,,green,flipped triangle
0.0,2.0,1.0,0.0,5.0,5.0,365.9314119977352,2.0,1.0,phase_2,go,100.0,50.0,1.0,,,,,,,,,blue,triangle
0.0,2.0,1.0,0.0,5.0,5.0,352.6683280033467,2.0,1.0,phase_2,go,100.0,50.0,1.0,,,,,,,,,blue,triangle
0.0,2.0,1.0,0.0,6.0,6.0,576.6996780002955,2.0,1.0,phase_2,go,100.0,50.0,1.0,,,,,,,,,blue,triangle
0.0,4.0,4.0,0.0,5.0,5.0,658.0484010009968,2.0,1.0,phase_2,go,100.0,50.0,1.0,,,,,,,,,gray,cross
0.0,8.0,4.0,1.0,6.0,0.0,0.0,2.0,1.0,phase_2,stop,100.0,50.0,4.0,,,,,,,,,white,circle
0.0,1.0,0.5,0.0,5.0,5.0,327.5099319980654,2.0,1.0,phase_2,go,100.0,100.0,1.0,,,,,,,,,green,flipped triangle
0.0,2.0,1.0,0.0,5.0,5.0,598.0963389993121,2.0,1.0,phase_2,go,100.0,100.0,1.0,,,,,,,,,blue,triangle
0.0,4.0,4.0,0.0,5.0,5.0,341.1856559978332,2.0,1.0,phase_2,go,100.0,100.0,1.0,,,,,,,,,gray,cross
0.0,2.0,1.0,0.0,5.0,5.0,419.5811030003824,2.0,1.0,phase_2,go,100.0,100.0,1.0,,,,,,,,,blue,triangle
0.0,2.0,1.0,0.0,5.0,5.0,317.0609820008394,2.0,1.0,phase_2,go,100.0,100.0,1.0,,,,,,,,,blue,triangle
0.0,7.0,2.0,1.0,6.0,0.0,0.0,2.0,1.0,phase_2,stop,100.0,100.0,4.0,,,,,,,,,cyan,square
0.0,4.0,4.0,0.0,6.0,6.0,327.0627159981814,2.0,1.0,phase_2,go,100.0,150.0,1.0,,,,,,,,,gray,cross
0.0,6.0,1.0,1.0,6.0,6.0,428.7877850001678,2.0,1.0,phase_2,go,100.0,150.0,1.0,,,,,,,,,magenta,hexagon
0.0,5.0,0.5,1.0,6.0,6.0,393.8407030000235,2.0,1.0,phase_2,stop,100.0,150.0,3.0,,,,,,,,,yellow,diamond
0.0,1.0,0.5,0.0,5.0,5.0,340.1718989989604,2.0,1.0,phase_2,go,100.0,100.0,1.0,,,,,,,,,green,flipped triangle
0.0,4.0,4.0,0.0,5.0,5.0,430.3232320016832,2.0,1.0,phase_2,go,100.0,100.0,1.0,,,,,,,,,gray,cross
0.0,3.0,2.0,0.0,6.0,6.0,485.8752479995019,2.0,1.0,phase_2,go,100.0,100.0,1.0,,,,,,,,,orange,I
0.0,2.0,1.0,0.0,6.0,6.0,490.5321590013045,2.0,1.0,phase_2,go,100.0,100.0,1.0,,,,,,,,,blue,triangle
0.0,6.0,1.0,1.0,6.0,0.0,0.0,2.0,1.0,phase_2,stop,100.0,100.0,4.0,,,,,,,,,magenta,hexagon
0.0,6.0,1.0,1.0,5.0,5.0,275.9143440016487,2.0,1.0,phase_2,stop,100.0,150.0,3.0,,,,,,,,,magenta,hexagon
0.0,4.0,4.0,0.0,6.0,6.0,492.8838179985177,2.0,1.0,phase_2,go,50.0,150.0,1.0,,,,,,,,,gray,cross
0.0,3.0,2.0,0.0,6.0,6.0,479.4749620014045,2.0,1.0,phase_2,go,50.0,150.0,1.0,,,,,,,,,orange,I
0.0,3.0,2.0,0.0,5.0,5.0,376.3105979996908,2.0,1.0,phase_2,go,50.0,150.0,1.0,,,,,,,,,orange,I
0.0,1.0,0.5,0.0,6.0,6.0,375.2032310003415,2.0,1.0,phase_2,go,50.0,150.0,1.0,,,,,,,,,green,flipped triangle
0.0,6.0,1.0,1.0,6.0,0.0,0.0,2.0,1.0,phase_2,stop,50.0,150.0,4.0,,,,,,,,,magenta,hexagon
0.0,3.0,2.0,0.0,6.0,6.0,429.9271399977442,2.0,1.0,phase_2,go,50.0,200.0,1.0,,,,,,,,,orange,I
0.0,1.0,0.5,0.0,5.0,5.0,332.2644590007257,2.0,1.0,phase_2,go,50.0,200.0,1.0,,,,,,,,,green,flipped triangle
0.0,1.0,0.5,0.0,6.0,6.0,479.0293520018167,2.0,1.0,phase_2,go,50.0,200.0,1.0,,,,,,,,,green,flipped triangle
0.0,1.0,0.5,0.0,5.0,5.0,406.1560600021039,2.0,1.0,phase_2,go,50.0,200.0,1.0,,,,,,,,,green,flipped triangle
0.0,5.0,0.5,1.0,6.0,0.0,0.0,2.0,1.0,phase_2,stop,50.0,200.0,4.0,,,,,,,,,yellow,diamond
0.0,5.0,0.5,1.0,6.0,6.0,289.5903140015434,2.0,1.0,phase_2,stop,50.0,250.0,3.0,,,,,,,,,yellow,diamond
0.0,6.0,1.0,1.0,5.0,0.0,0.0,2.0,1.0,phase_2,stop,50.0,200.0,4.0,,,,,,,,,magenta,hexagon
0.0,6.0,1.0,1.0,6.0,6.0,348.912665998796,3.0,1.0,phase_2,go,100.0,200.0,1.0,,,,,,,,,magenta,hexagon
0.0,8.0,4.0,1.0,5.0,0.0,0.0,3.0,1.0,phase_2,stop,100.0,200.0,4.0,,,,,,,,,white,circle
0.0,3.0,2.0,0.0,5.0,5.0,370.4208359995391,3.0,1.0,phase_2,go,150.0,200.0,1.0,,,,,,,,,orange,I
0.0,6.0,1.0,1.0,6.0,0.0,0.0,3.0,1.0,phase_2,stop,150.0,200.0,4.0,,,,,,,,,magenta,hexagon
0.0,8.0,4.0,1.0,6.0,6.0,334.4911239983048,3.0,1.0,phase_2,stop,150.0,250.0,3.0,,,,,,,,,white,circle
0.0,2.0,1.0,0.0,5.0,5.0,347.6703570013342,3.0,1.0,phase_2,go,150.0,200.0,1.0,,,,,,,,,blue,triangle
0.0,1.0,0.5,0.0,5.0,5.0,369.8238180004409,3.0,1.0,phase_2,go,150.0,200.0,1.0,,,,,,,,,green,flipped triangle
0.0,5.0,0.5,1.0,6.0,6.0,603.4078129996487,3.0,1.0,phase_2,go,150.0,200.0,1.0,,,,,,,,,yellow,diamond
0.0,3.0,2.0,0.0,6.0,6.0,520.7191109984706,3.0,1.0,phase_2,go,150.0,200.0,1.0,,,,,,,,,orange,I
0.0,1.0,0.5,0.0,5.0,5.0,506.2754409991612,3.0,1.0,phase_2,go,150.0,200.0,1.0,,,,,,,,,green,flipped triangle
0.0,1.0,0.5,0.0,5.0,5.0,440.7564539978921,3.0,1.0,phase_2,go,150.0,200.0,1.0,,,,,,,,,green,flipped triangle
0.0,5.0,0.5,1.0,5.0,0.0,0.0,3.0,1.0,phase_2,stop,150.0,200.0,4.0,,,,,,,,,yellow,diamond
0.0,2.0,1.0,0.0,6.0,6.0,329.8837170004844,3.0,1.0,phase_2,go,200.0,200.0,1.0,,,,,,,,,blue,triangle
0.0,8.0,4.0,1.0,5.0,0.0,0.0,3.0,1.0,phase_2,stop,200.0,200.0,4.0,,,,,,,,,white,circle
0.0,6.0,1.0,1.0,6.0,6.0,288.3391110008233,3.0,1.0,phase_2,stop,250.0,200.0,3.0,,,,,,,,,magenta,hexagon
0.0,4.0,4.0,0.0,6.0,6.0,499.3004110001493,3.0,1.0,phase_2,go,250.0,150.0,1.0,,,,,,,,,gray,cross
0.0,6.0,1.0,1.0,5.0,5.0,473.5797299981641,3.0,1.0,phase_2,go,250.0,150.0,1.0,,,,,,,,,magenta,hexagon
0.0,3.0,2.0,0.0,5.0,5.0,408.8802359983674,3.0,1.0,phase_2,go,250.0,150.0,1.0,,,,,,,,,orange,I
0.0,5.0,0.5,1.0,5.0,5.0,437.3097700008657,3.0,1.0,phase_2,go,250.0,150.0,1.0,,,,,,,,,yellow,diamond
0.0,5.0,0.5,1.0,6.0,0.0,0.0,3.0,1.0,phase_2,stop,250.0,150.0,4.0,,,,,,,,,yellow,diamond
0.0,7.0,2.0,1.0,6.0,0.0,0.0,3.0,1.0,phase_2,stop,250.0,200.0,4.0,,,,,,,,,cyan,square
0.0,1.0,0.5,0.0,6.0,6.0,339.4820620014798,3.0,1.0,phase_2,go,250.0,250.0,1.0,,,,,,,,,green,flipped triangle
0.0,7.0,2.0,1.0,5.0,5.0,364.9530250004318,3.0,1.0,phase_2,go,250.0,250.0,1.0,,,,,,,,,cyan,square
0.0,7.0,2.0,1.0,5.0,5.0,421.2631480004347,3.0,1.0,phase_2,stop,250.0,250.0,3.0,,,,,,,,,cyan,square
0.0,2.0,1.0,0.0,6.0,6.0,458.1819349987199,3.0,1.0,phase_2,go,200.0,250.0,1.0,,,,,,,,,blue,triangle
0.0,8.0,4.0,1.0,6.0,0.0,0.0,3.0,1.0,phase_2,stop,200.0,250.0,4.0,,,,,,,,,white,circle
0.0,3.0,2.0,0.0,5.0,5.0,389.2162129995995,3.0,1.0,phase_2,go,200.0,300.0,1.0,,,,,,,,,orange,I
0.0,4.0,4.0,0.0,5.0,5.0,527.1851549987332,3.0,1.0,phase_2,go,200.0,300.0,1.0,,,,,,,,,gray,cross
0.0,8.0,4.0,1.0,5.0,5.0,598.2340269983979,3.0,1.0,phase_2,go,200.0,300.0,1.0,,,,,,,,,white,circle
0.0,2.0,1.0,0.0,6.0,6.0,471.3910960017529,3.0,1.0,phase_2,go,200.0,300.0,1.0,,,,,,,,,blue,triangle
0.0,3.0,2.0,0.0,6.0,6.0,617.1437119992333,3.0,1.0,phase_2,go,200.0,300.0,1.0,,,,,,,,,orange,I
0.0,2.0,1.0,0.0,5.0,5.0,400.0969150001765,3.0,1.0,phase_2,go,200.0,300.0,1.0,,,,,,,,,blue,triangle
0.0,1.0,0.5,0.0,6.0,6.0,509.7037490013463,3.0,1.0,phase_2,go,200.0,300.0,1.0,,,,,,,,,green,flipped triangle
0.0,1.0,0.5,0.0,5.0,5.0,530.084457997873,3.0,1.0,phase_2,go,200.0,300.0,1.0,,,,,,,,,green,flipped triangle
0.0,8.0,4.0,1.0,6.0,0.0,0.0,3.0,1.0,phase_2,stop,200.0,300.0,4.0,,,,,,,,,white,circle
0.0,4.0,4.0,0.0,5.0,5.0,366.3387930027966,3.0,1.0,phase_2,go,200.0,350.0,1.0,,,,,,,,,gray,cross
0.0,4.0,4.0,0.0,5.0,5.0,357.7539969992358,4.0,1.0,phase_2,go,200.0,350.0,1.0,,,,,,,,,gray,cross
0.0,6.0,1.0,1.0,6.0,6.0,325.5261990016151,4.0,1.0,phase_2,go,200.0,350.0,1.0,,,,,,,,,magenta,hexagon
0.0,8.0,4.0,1.0,6.0,0.0,0.0,4.0,1.0,phase_2,stop,200.0,350.0,4.0,,,,,,,,,white,circle
0.0,7.0,2.0,1.0,6.0,6.0,343.1291099986993,4.0,1.0,phase_2,go,200.0,400.0,1.0,,,,,,,,,cyan,square
0.0,5.0,0.5,1.0,5.0,5.0,282.4534559986205,4.0,1.0,phase_2,stop,200.0,400.0,3.0,,,,,,,,,yellow,diamond
0.0,3.0,2.0,0.0,5.0,5.0,524.8070189991267,4.0,1.0,phase_2,go,150.0,400.0,1.0,,,,,,,,,orange,I
0.0,3.0,2.0,0.0,6.0,6.0,341.5698720018554,4.0,1.0,phase_2,go,150.0,400.0,1.0,,,,,,,,,orange,I
0.0,8.0,4.0,1.0,6.0,6.0,460.6943260005209,4.0,1.0,phase_2,stop,150.0,400.0,3.0,,,,,,,,,white,circle
0.0,5.0,0.5,1.0,6.0,6.0,448.9199929994356,4.0,1.0,phase_2,stop,150.0,350.0,3.0,,,,,,,,,yellow,diamond
0.0,5.0,0.5,1.0,5.0,5.0,657.6818590001494,4.0,1.0,phase_2,go,150.0,300.0,1.0,,,,,,,,,yellow,diamond
0.0,8.0,4.0,1.0,6.0,6.0,548.4619739982008,4.0,1.0,phase_2,go,150.0,300.0,1.0,,,,,,,,,white,circle
0.0,6.0,1.0,1.0,5.0,0.0,0.0,4.0,1.0,phase_2,stop,150.0,300.0,4.0,,,,,,,,,magenta,hexagon
0.0,3.0,2.0,0.0,6.0,6.0,327.3755800000799,4.0,1.0,phase_2,go,200.0,300.0,1.0,,,,,,,,,orange,I
0.0,6.0,1.0,1.0,6.0,0.0,0.0,4.0,1.0,phase_2,stop,200.0,300.0,4.0,,,,,,,,,magenta,hexagon
0.0,7.0,2.0,1.0,5.0,0.0,0.0,4.0,1.0,phase_2,stop,200.0,350.0,4.0,,,,,,,,,cyan,square
0.0,8.0,4.0,1.0,5.0,5.0,383.0211509994115,4.0,1.0,phase_2,stop,250.0,350.0,3.0,,,,,,,,,white,circle
0.0,1.0,0.5,0.0,5.0,5.0,386.0725829981675,4.0,1.0,phase_2,go,200.0,350.0,1.0,,,,,,,,,green,flipped triangle
0.0,6.0,1.0,1.0,5.0,5.0,418.0505620024632,4.0,1.0,phase_2,go,200.0,350.0,1.0,,,,,,,,,magenta,hexagon
0.0,2.0,1.0,0.0,5.0,5.0,569.4601699979103,4.0,1.0,phase_2,go,200.0,350.0,1.0,,,,,,,,,blue,triangle
0.0,1.0,0.5,0.0,6.0,6.0,572.4126620007155,4.0,1.0,phase_2,go,200.0,350.0,1.0,,,,,,,,,green,flipped triangle
0.0,3.0,2.0,0.0,6.0,6.0,563.0146189978404,4.0,1.0,phase_2,go,200.0,350.0,1.0,,,,,,,,,orange,I
0.0,6.0,1.0,1.0,6.0,6.0,431.8189580008038,4.0,1.0,phase_2,stop,200.0,350.0,3.0,,,,,,,,,magenta,hexagon
0.0,1.0,0.5,0.0,6.0,6.0,414.0706350008258,4.0,1.0,phase_2,go,200.0,300.0,1.0,,,,,,,,,green,flipped triangle
0.0,8.0,4.0,1.0,5.0,5.0,395.1390880029066,4.0,1.0,phase_2,go,200.0,300.0,1.0,,,,,,,,,white,circle
0.0,8.0,4.0,1.0,5.0,0.0,0.0,4.0,1.0,phase_2,stop,200.0,300.0,4.0,,,,,,,,,white,circle
0.0,4.0,4.0,0.0,5.0,5.0,503.90641200283426,4.0,1.0,phase_2,go,250.0,300.0,1.0,,,,,,,,,gray,cross
0.0,6.0,1.0,1.0,5.0,0.0,0.0,4.0,1.0,phase_2,stop,250.0,300.0,4.0,,,,,,,,,magenta,hexagon
0.0,8.0,4.0,1.0,6.0,0.0,0.0,4.0,1.0,phase_2,stop,300.0,300.0,4.0,,,,,,,,,white,circle
0.0,6.0,1.0,1.0,6.0,6.0,410.9163350003655,4.0,1.0,phase_2,stop,300.0,350.0,3.0,,,,,,,,,magenta,hexagon
0.0,8.0,4.0,1.0,6.0,6.0,447.0614729980298,4.0,1.0,phase_2,go,300.0,300.0,1.0,,,,,,,,,white,circle
0.0,8.0,4.0,1.0,6.0,0.0,0.0,4.0,1.0,phase_2,stop,300.0,300.0,4.0,,,,,,,,,white,circle
0.0,2.0,1.0,0.0,6.0,6.0,572.1145659990725,4.0,1.0,phase_2,go,300.0,350.0,1.0,,,,,,,,,blue,triangle
0.0,1.0,0.5,0.0,5.0,5.0,458.7583570028073,4.0,1.0,phase_2,go,300.0,350.0,1.0,,,,,,,,,green,flipped triangle
0.0,6.0,1.0,1.0,6.0,0.0,0.0,4.0,1.0,phase_2,stop,300.0,350.0,4.0,,,,,,,,,magenta,hexagon
0.0,3.0,2.0,0.0,6.0,6.0,606.1459140000807,4.0,1.0,phase_2,go,300.0,400.0,1.0,,,,,,,,,orange,I
0.0,6.0,1.0,1.0,5.0,5.0,397.5466429983498,4.0,1.0,phase_2,stop,300.0,400.0,3.0,,,,,,,,,magenta,hexagon
0.0,7.0,2.0,1.0,5.0,5.0,285.4886120003357,5.0,1.0,phase_2,stop,250.0,400.0,3.0,,,,,,,,,cyan,square
0.0,4.0,4.0,0.0,5.0,5.0,553.0927719992178,5.0,1.0,phase_2,go,200.0,400.0,1.0,,,,,,,,,gray,cross
0.0,7.0,2.0,1.0,6.0,6.0,498.5992840011022,5.0,1.0,phase_2,stop,200.0,400.0,3.0,,,,,,,,,cyan,square
0.0,4.0,4.0,0.0,6.0,6.0,604.9414020017139,5.0,1.0,phase_2,go,200.0,350.0,1.0,,,,,,,,,gray,cross
0.0,7.0,2.0,1.0,6.0,0.0,0.0,5.0,1.0,phase_2,stop,200.0,350.0,4.0,,,,,,,,,cyan,square
0.0,5.0,0.5,1.0,5.0,0.0,0.0,5.0,1.0,phase_2,stop,200.0,400.0,4.0,,,,,,,,,yellow,diamond
0.0,2.0,1.0,0.0,6.0,6.0,492.8390679997392,5.0,1.0,phase_2,go,250.0,400.0,1.0,,,,,,,,,blue,triangle
0.0,5.0,0.5,1.0,6.0,6.0,495.7634999991569,5.0,1.0,phase_2,stop,250.0,400.0,3.0,,,,,,,,,yellow,diamond
0.0,2.0,1.0,0.0,6.0,6.0,833.7316430006467,5.0,1.0,phase_2,go,250.0,350.0,1.0,,,,,,,,,blue,triangle
0.0,2.0,1.0,0.0,5.0,5.0,521.829802000866,5.0,1.0,phase_2,go,250.0,350.0,1.0,,,,,,,,,blue,triangle
0.0,8.0,4.0,1.0,5.0,0.0,0.0,5.0,1.0,phase_2,stop,250.0,350.0,4.0,,,,,,,,,white,circle
0.0,6.0,1.0,1.0,5.0,0.0,0.0,5.0,1.0,phase_2,stop,300.0,350.0,4.0,,,,,,,,,magenta,hexagon
0.0,6.0,1.0,1.0,6.0,6.0,395.8395320005365,5.0,1.0,phase_2,go,350.0,350.0,1.0,,,,,,,,,magenta,hexagon
0.0,2.0,1.0,0.0,6.0,6.0,489.0885839995462,5.0,1.0,phase_2,go,350.0,350.0,1.0,,,,,,,,,blue,triangle
0.0,2.0,1.0,0.0,5.0,5.0,475.9716700027638,5.0,1.0,phase_2,go,350.0,350.0,1.0,,,,,,,,,blue,triangle
0.0,5.0,0.5,1.0,6.0,6.0,439.150032998441,5.0,1.0,phase_2,stop,350.0,350.0,3.0,,,,,,,,,yellow,diamond
0.0,2.0,1.0,0.0,5.0,5.0,581.7854660017474,5.0,1.0,phase_2,go,350.0,300.0,1.0,,,,,,,,,blue,triangle
0.0,8.0,4.0,1.0,6.0,0.0,0.0,5.0,1.0,phase_2,stop,350.0,300.0,4.0,,,,,,,,,white,circle
0.0,8.0,4.0,1.0,5.0,0.0,0.0,5.0,1.0,phase_2,stop,350.0,350.0,4.0,,,,,,,,,white,circle
0.0,3.0,2.0,0.0,5.0,5.0,398.8815560005605,5.0,1.0,phase_2,go,400.0,350.0,1.0,,,,,,,,,orange,I
0.0,4.0,4.0,0.0,5.0,5.0,500.1739919971442,5.0,1.0,phase_2,go,400.0,350.0,1.0,,,,,,,,,gray,cross
0.0,1.0,0.5,0.0,6.0,6.0,666.8333500019799,5.0,1.0,phase_2,go,400.0,350.0,1.0,,,,,,,,,green,flipped triangle
0.0,8.0,4.0,1.0,6.0,0.0,0.0,5.0,1.0,phase_2,stop,400.0,350.0,4.0,,,,,,,,,white,circle
0.0,4.0,4.0,0.0,5.0,5.0,703.8275140002952,5.0,1.0,phase_2,go,400.0,400.0,1.0,,,,,,,,,gray,cross
0.0,6.0,1.0,1.0,6.0,6.0,450.7553160001407,5.0,1.0,phase_2,stop,400.0,400.0,3.0,,,,,,,,,magenta,hexagon
0.0,4.0,4.0,0.0,6.0,6.0,842.027971000789,5.0,1.0,phase_2,go,400.0,350.0,1.0,,,,,,,,,gray,cross
0.0,7.0,2.0,1.0,5.0,5.0,534.0400530003535,5.0,1.0,phase_2,stop,400.0,350.0,3.0,,,,,,,,,cyan,square
0.0,3.0,2.0,0.0,6.0,6.0,645.555182996759,5.0,1.0,phase_2,go,350.0,350.0,1.0,,,,,,,,,orange,I
0.0,5.0,0.5,1.0,5.0,5.0,971.0761050009752,5.0,1.0,phase_2,go,350.0,350.0,1.0,,,,,,,,,yellow,diamond
0.0,2.0,1.0,0.0,6.0,6.0,491.3256530016952,5.0,1.0,phase_2,go,350.0,350.0,1.0,,,,,,,,,blue,triangle
0.0,5.0,0.5,1.0,5.0,0.0,0.0,5.0,1.0,phase_2,stop,350.0,350.0,4.0,,,,,,,,,yellow,diamond
0.0,3.0,2.0,0.0,5.0,5.0,727.5329280018923,5.0,1.0,phase_2,go,400.0,350.0,1.0,,,,,,,,,orange,I
0.0,7.0,2.0,1.0,6.0,0.0,0.0,5.0,1.0,phase_2,stop,400.0,350.0,4.0,,,,,,,,,cyan,square
0.0,7.0,2.0,1.0,5.0,5.0,610.6937990007282,5.0,1.0,phase_2,go,400.0,400.0,1.0,,,,,,,,,cyan,square
0.0,3.0,2.0,0.0,5.0,5.0,649.7204979968956,5.0,1.0,phase_2,go,400.0,400.0,1.0,,,,,,,,,orange,I
0.0,5.0,0.5,1.0,6.0,6.0,618.4694710027543,5.0,1.0,phase_2,go,400.0,400.0,1.0,,,,,,,,,yellow,diamond
0.0,3.0,2.0,0.0,5.0,5.0,274.4599619982182,6.0,1.0,phase_2,go,400.0,400.0,1.0,,,,,,,,,orange,I
0.0,7.0,2.0,1.0,6.0,6.0,479.4197660012287,6.0,1.0,phase_2,stop,400.0,400.0,3.0,,,,,,,,,cyan,square
0.0,6.0,1.0,1.0,6.0,6.0,389.2863360015326,6.0,1.0,phase_2,stop,400.0,350.0,3.0,,,,,,,,,magenta,hexagon
0.0,7.0,2.0,1.0,6.0,6.0,661.1292019988468,6.0,1.0,phase_2,go,400.0,300.0,1.0,,,,,,,,,cyan,square
0.0,7.0,2.0,1.0,6.0,0.0,0.0,6.0,1.0,phase_2,stop,400.0,300.0,4.0,,,,,,,,,cyan,square
0.0,1.0,0.5,0.0,6.0,6.0,615.7501449997653,6.0,1.0,phase_2,go,400.0,350.0,1.0,,,,,,,,,green,flipped triangle
0.0,5.0,0.5,1.0,6.0,0.0,0.0,6.0,1.0,phase_2,stop,400.0,350.0,4.0,,,,,,,,,yellow,diamond
0.0,1.0,0.5,0.0,5.0,5.0,696.1421109990624,6.0,1.0,phase_2,go,400.0,400.0,1.0,,,,,,,,,green,flipped triangle
0.0,5.0,0.5,1.0,5.0,0.0,0.0,6.0,1.0,phase_2,stop,400.0,400.0,4.0,,,,,,,,,yellow,diamond
0.0,8.0,4.0,1.0,5.0,5.0,540.0412090020836,6.0,1.0,phase_2,go,450.0,400.0,1.0,,,,,,,,,white,circle
0.0,3.0,2.0,0.0,6.0,6.0,576.4736309974978,6.0,1.0,phase_2,go,450.0,400.0,1.0,,,,,,,,,orange,I
0.0,4.0,4.0,0.0,6.0,6.0,585.8837150008185,6.0,1.0,phase_2,go,450.0,400.0,1.0,,,,,,,,,gray,cross
0.0,7.0,2.0,1.0,5.0,5.0,651.2434180003766,6.0,1.0,phase_2,go,450.0,400.0,1.0,,,,,,,,,cyan,square
0.0,2.0,1.0,0.0,5.0,5.0,425.9524529988994,6.0,1.0,phase_2,go,450.0,400.0,1.0,,,,,,,,,blue,triangle
0.0,7.0,2.0,1.0,6.0,0.0,0.0,6.0,1.0,phase_2,stop,450.0,400.0,4.0,,,,,,,,,cyan,square
0.0,4.0,4.0,0.0,5.0,5.0,438.6169950012117,6.0,1.0,phase_2,go,450.0,450.0,1.0,,,,,,,,,gray,cross
0.0,8.0,4.0,1.0,5.0,5.0,528.6464749988227,6.0,1.0,phase_2,go,450.0,450.0,1.0,,,,,,,,,white,circle
0.0,3.0,2.0,0.0,5.0,5.0,460.0941149983555,6.0,1.0,phase_2,go,450.0,450.0,1.0,,,,,,,,,orange,I
0.0,8.0,4.0,1.0,5.0,0.0,0.0,6.0,1.0,phase_2,stop,450.0,450.0,4.0,,,,,,,,,white,circle
0.0,5.0,0.5,1.0,5.0,5.0,604.1421239970077,6.0,1.0,phase_2,stop,500.0,450.0,3.0,,,,,,,,,yellow,diamond
0.0,4.0,4.0,0.0,6.0,6.0,621.4920320016972,6.0,1.0,phase_2,go,450.0,450.0,1.0,,,,,,,,,gray,cross
0.0,3.0,2.0,0.0,6.0,6.0,559.8618989970419,6.0,1.0,phase_2,go,450.0,450.0,1.0,,,,,,,,,orange,I
0.0,4.0,4.0,0.0,6.0,6.0,595.9433970019745,6.0,1.0,phase_2,go,450.0,450.0,1.0,,,,,,,,,gray,cross
0.0,5.0,0.5,1.0,6.0,0.0,0.0,6.0,1.0,phase_2,stop,450.0,450.0,4.0,,,,,,,,,yellow,diamond
0.0,1.0,0.5,0.0,5.0,5.0,792.8960850003932,6.0,1.0,phase_2,go,450.0,500.0,1.0,,,,,,,,,green,flipped triangle
0.0,5.0,0.5,1.0,6.0,6.0,599.7525610000594,6.0,1.0,phase_2,stop,450.0,500.0,3.0,,,,,,,,,yellow,diamond
0.0,4.0,4.0,0.0,6.0,6.0,859.3205149991263,6.0,1.0,phase_2,go,450.0,450.0,1.0,,,,,,,,,gray,cross
0.0,3.0,2.0,0.0,5.0,5.0,756.7206370003987,6.0,1.0,phase_2,go,450.0,450.0,1.0,,,,,,,,,orange,I
0.0,4.0,4.0,0.0,5.0,5.0,573.0874159999075,6.0,1.0,phase_2,go,450.0,450.0,1.0,,,,,,,,,gray,cross
0.0,8.0,4.0,1.0,5.0,0.0,0.0,6.0,1.0,phase_2,stop,450.0,450.0,4.0,,,,,,,,,white,circle
0.0,1.0,0.5,0.0,6.0,6.0,438.9010189988767,6.0,1.0,phase_2,go,500.0,450.0,1.0,,,,,,,,,green,flipped triangle
0.0,1.0,0.5,0.0,6.0,6.0,719.0716429977329,6.0,1.0,phase_2,go,500.0,450.0,1.0,,,,,,,,,green,flipped triangle
0.0,3.0,2.0,0.0,5.0,5.0,757.4636919998738,6.0,1.0,phase_2,go,500.0,450.0,1.0,,,,,,,,,orange,I
0.0,8.0,4.0,1.0,6.0,6.0,599.8040459999174,6.0,1.0,phase_2,stop,500.0,450.0,3.0,,,,,,,,,white,circle
0.0,5.0,0.5,1.0,5.0,5.0,584.42120899781,6.0,1.0,phase_2,go,500.0,400.0,1.0,,,,,,,,,yellow,diamond
0.0,6.0,1.0,1.0,5.0,0.0,0.0,6.0,1.0,phase_2,stop,500.0,400.0,4.0,,,,,,,,,magenta,hexagon
0.0,1.0,0.5,0.0,6.0,6.0,316.0912159983127,7.0,1.0,phase_2,go,550.0,400.0,1.0,,,,,,,,,green,flipped triangle
0.0,3.0,2.0,0.0,6.0,6.0,491.566682998382,7.0,1.0,phase_2,go,550.0,400.0,1.0,,,,,,,,,orange,I
0.0,7.0,2.0,1.0,5.0,5.0,659.9949949995789,7.0,1.0,phase_2,stop,550.0,400.0,3.0,,,,,,,,,cyan,square
0.0,8.0,4.0,1.0,5.0,5.0,539.1272190026939,7.0,1.0,phase_2,stop,500.0,400.0,3.0,,,,,,,,,white,circle
0.0,6.0,1.0,1.0,5.0,0.0,0.0,7.0,1.0,phase_2,stop,450.0,400.0,4.0,,,,,,,,,magenta,hexagon
0.0,1.0,0.5,0.0,5.0,5.0,632.9161659996316,7.0,1.0,phase_2,go,500.0,400.0,1.0,,,,,,,,,green,flipped triangle
0.0,5.0,0.5,1.0,6.0,0.0,0.0,7.0,1.0,phase_2,stop,500.0,400.0,4.0,,,,,,,,,yellow,diamond
0.0,3.0,2.0,0.0,5.0,5.0,674.9827499988896,7.0,1.0,phase_2,go,500.0,450.0,1.0,,,,,,,,,orange,I
0.0,4.0,4.0,0.0,5.0,5.0,678.107687002921,7.0,1.0,phase_2,go,500.0,450.0,1.0,,,,,,,,,gray,cross
0.0,7.0,2.0,1.0,5.0,5.0,662.5124700003653,7.0,1.0,phase_2,stop,500.0,450.0,3.0,,,,,,,,,cyan,square
0.0,6.0,1.0,1.0,6.0,0.0,0.0,7.0,1.0,phase_2,stop,450.0,450.0,4.0,,,,,,,,,magenta,hexagon
0.0,7.0,2.0,1.0,5.0,0.0,0.0,7.0,1.0,phase_2,stop,450.0,500.0,4.0,,,,,,,,,cyan,square
0.0,2.0,1.0,0.0,6.0,6.0,342.3471669993887,7.0,1.0,phase_2,go,500.0,500.0,1.0,,,,,,,,,blue,triangle
0.0,1.0,0.5,0.0,6.0,6.0,535.691388999112,7.0,1.0,phase_2,go,500.0,500.0,1.0,,,,,,,,,green,flipped triangle
0.0,3.0,2.0,0.0,6.0,6.0,479.2653080003219,7.0,1.0,phase_2,go,500.0,500.0,1.0,,,,,,,,,orange,I
0.0,2.0,1.0,0.0,6.0,6.0,727.750970996567,7.0,1.0,phase_2,go,500.0,500.0,1.0,,,,,,,,,blue,triangle
0.0,7.0,2.0,1.0,5.0,0.0,0.0,7.0,1.0,phase_2,stop,500.0,500.0,4.0,,,,,,,,,cyan,square
0.0,1.0,0.5,0.0,6.0,6.0,684.022712001024,7.0,1.0,phase_2,go,550.0,500.0,1.0,,,,,,,,,green,flipped triangle
0.0,6.0,1.0,1.0,5.0,5.0,547.4698200014245,7.0,1.0,phase_2,stop,550.0,500.0,3.0,,,,,,,,,magenta,hexagon
0.0,5.0,0.5,1.0,6.0,6.0,711.131206000573,7.0,1.0,phase_2,go,500.0,500.0,1.0,,,,,,,,,yellow,diamond
0.0,6.0,1.0,1.0,6.0,6.0,663.7520160002168,7.0,1.0,phase_2,stop,500.0,500.0,3.0,,,,,,,,,magenta,hexagon
0.0,5.0,0.5,1.0,5.0,0.0,0.0,7.0,1.0,phase_2,stop,500.0,450.0,4.0,,,,,,,,,yellow,diamond
0.0,4.0,4.0,0.0,6.0,6.0,863.0568990010943,7.0,1.0,phase_2,go,550.0,450.0,1.0,,,,,,,,,gray,cross
0.0,2.0,1.0,0.0,5.0,5.0,705.8565119987179,7.0,1.0,phase_2,go,550.0,450.0,1.0,,,,,,,,,blue,triangle
0.0,4.0,4.0,0.0,6.0,6.0,788.6494470003527,7.0,1.0,phase_2,go,550.0,450.0,1.0,,,,,,,,,gray,cross
0.0,6.0,1.0,1.0,6.0,0.0,0.0,7.0,1.0,phase_2,stop,550.0,450.0,4.0,,,,,,,,,magenta,hexagon
0.0,1.0,0.5,0.0,6.0,6.0,512.7958150005725,7.0,1.0,phase_2,go,550.0,500.0,1.0,,,,,,,,,green,flipped triangle
0.0,8.0,4.0,1.0,6.0,6.0,957.3636200002512,7.0,1.0,phase_2,go,550.0,500.0,1.0,,,,,,,,,white,circle
0.0,2.0,1.0,0.0,6.0,6.0,441.1982080018788,7.0,1.0,phase_2,go,550.0,500.0,1.0,,,,,,,,,blue,triangle
0.0,7.0,2.0,1.0,5.0,5.0,803.4243510010128,7.0,1.0,phase_2,go,550.0,500.0,1.0,,,,,,,,,cyan,square
0.0,7.0,2.0,1.0,6.0,6.0,798.5996330025955,7.0,1.0,phase_2,go,550.0,500.0,1.0,,,,,,,,,cyan,square
0.0,2.0,1.0,0.0,5.0,5.0,587.0401200008928,7.0,1.0,phase_2,go,550.0,500.0,1.0,,,,,,,,,blue,triangle
0.0,7.0,2.0,1.0,6.0,6.0,539.9384119991737,7.0,1.0,phase_2,stop,550.0,500.0,3.0,,,,,,,,,cyan,square
0.0,7.0,2.0,1.0,6.0,0.0,0.0,7.0,1.0,phase_2,stop,550.0,450.0,4.0,,,,,,,,,cyan,square
0.0,4.0,4.0,0.0,5.0,5.0,309.0985590024502,7.0,1.0,phase_2,go,550.0,500.0,1.0,,,,,,,,,gray,cross
0.0,6.0,1.0,1.0,5.0,5.0,356.4656299968192,7.0,1.0,phase_2,stop,550.0,500.0,3.0,,,,,,,,,magenta,hexagon
0.0,3.0,2.0,0.0,5.0,5.0,294.6392160010873,8.0,1.0,phase_2,go,500.0,500.0,1.0,,,,,,,,,orange,I
0.0,4.0,4.0,0.0,5.0,5.0,468.0799229972763,8.0,1.0,phase_2,go,500.0,500.0,1.0,,,,,,,,,gray,cross
0.0,7.0,2.0,1.0,5.0,0.0,0.0,8.0,1.0,phase_2,stop,500.0,500.0,4.0,,,,,,,,,cyan,square
0.0,3.0,2.0,0.0,5.0,5.0,685.0453070001095,8.0,1.0,phase_2,go,550.0,500.0,1.0,,,,,,,,,orange,I
0.0,3.0,2.0,0.0,5.0,5.0,705.5330459988909,8.0,1.0,phase_2,go,550.0,500.0,1.0,,,,,,,,,orange,I
0.0,2.0,1.0,0.0,6.0,6.0,647.8163419997145,8.0,1.0,phase_2,go,550.0,500.0,1.0,,,,,,,,,blue,triangle
0.0,5.0,0.5,1.0,5.0,5.0,610.0225359987235,8.0,1.0,phase_2,stop,550.0,500.0,3.0,,,,,,,,,yellow,diamond
0.0,3.0,2.0,0.0,6.0,6.0,753.1335369967564,8.0,1.0,phase_2,go,500.0,500.0,1.0,,,,,,,,,orange,I
0.0,5.0,0.5,1.0,5.0,0.0,0.0,8.0,1.0,phase_2,stop,500.0,500.0,4.0,,,,,,,,,yellow,diamond
0.0,2.0,1.0,0.0,5.0,5.0,757.564502000605,8.0,1.0,phase_2,go,550.0,500.0,1.0,,,,,,,,,blue,triangle
0.0,7.0,2.0,1.0,5.0,0.0,0.0,8.0,1.0,phase_2,stop,550.0,500.0,4.0,,,,,,,,,cyan,square
0.0,3.0,2.0,0.0,5.0,5.0,490.9088349995727,8.0,1.0,phase_2,go,600.0,500.0,1.0,,,,,,,,,orange,I
0.0,7.0,2.0,1.0,5.0,5.0,866.4559140015626,8.0,1.0,phase_2,go,600.0,500.0,1.0,,,,,,,,,cyan,square
0.0,3.0,2.0,0.0,6.0,6.0,700.2310399984708,8.0,1.0,phase_2,go,600.0,500.0,1.0,,,,,,,,,orange,I
0.0,7.0,2.0,1.0,6.0,0.0,0.0,8.0,1.0,phase_2,stop,600.0,500.0,4.0,,,,,,,,,cyan,square
0.0,8.0,4.0,1.0,5.0,5.0,376.0079849998874,8.0,1.0,phase_2,stop,600.0,550.0,3.0,,,,,,,,,white,circle
0.0,5.0,0.5,1.0,5.0,5.0,673.8543840001512,8.0,1.0,phase_2,stop,550.0,550.0,3.0,,,,,,,,,yellow,diamond
0.0,4.0,4.0,0.0,5.0,5.0,825.5912169988733,8.0,1.0,phase_2,go,500.0,550.0,1.0,,,,,,,,,gray,cross
0.0,6.0,1.0,1.0,5.0,5.0,759.3373749987222,8.0,1.0,phase_2,go,500.0,550.0,1.0,,,,,,,,,magenta,hexagon
0.0,5.0,0.5,1.0,5.0,5.0,954.7064039979888,8.0,1.0,phase_2,go,500.0,550.0,1.0,,,,,,,,,yellow,diamond
0.0,3.0,2.0,0.0,6.0,6.0,558.9395239985606,8.0,1.0,phase_2,go,500.0,550.0,1.0,,,,,,,,,orange,I
0.0,6.0,1.0,1.0,5.0,5.0,637.7157339993573,8.0,1.0,phase_2,stop,500.0,550.0,3.0,,,,,,,,,magenta,hexagon
0.0,5.0,0.5,1.0,6.0,6.0,578.9299249991018,8.0,1.0,phase_2,go,450.0,550.0,1.0,,,,,,,,,yellow,diamond
0.0,4.0,4.0,0.0,6.0,6.0,716.94953000042,8.0,1.0,phase_2,go,450.0,550.0,1.0,,,,,,,,,gray,cross
0.0,1.0,0.5,0.0,5.0,5.0,948.9955819990428,8.0,1.0,phase_2,go,450.0,550.0,1.0,,,,,,,,,green,flipped triangle
0.0,6.0,1.0,1.0,5.0,0.0,0.0,8.0,1.0,phase_2,stop,450.0,550.0,4.0,,,,,,,,,magenta,hexagon
0.0,6.0,1.0,1.0,5.0,5.0,788.38938500121,8.0,1.0,phase_2,go,500.0,550.0,1.0,,,,,,,,,magenta,hexagon
0.0,5.0,0.5,1.0,6.0,6.0,609.0286939979705,8.0,1.0,phase_2,stop,500.0,550.0,3.0,,,,,,,,,yellow,diamond
0.0,7.0,2.0,1.0,6.0,0.0,0.0,8.0,1.0,phase_2,stop,500.0,500.0,4.0,,,,,,,,,cyan,square
0.0,8.0,4.0,1.0,6.0,6.0,436.6400690014416,8.0,1.0,phase_2,stop,500.0,550.0,3.0,,,,,,,,,white,circle
0.0,2.0,1.0,0.0,6.0,6.0,811.4899020001758,8.0,1.0,phase_2,go,500.0,500.0,1.0,,,,,,,,,blue,triangle
0.0,2.0,1.0,0.0,5.0,5.0,585.9157380000397,8.0,1.0,phase_2,go,500.0,500.0,1.0,,,,,,,,,blue,triangle
0.0,8.0,4.0,1.0,5.0,5.0,771.2890930015419,8.0,1.0,phase_2,go,500.0,500.0,1.0,,,,,,,,,white,circle
0.0,4.0,4.0,0.0,5.0,5.0,805.2041980008653,8.0,1.0,phase_2,go,500.0,500.0,1.0,,,,,,,,,gray,cross
0.0,8.0,4.0,1.0,5.0,0.0,0.0,8.0,1.0,phase_2,stop,500.0,500.0,4.0,,,,,,,,,white,circle
0.0,6.0,1.0,1.0,5.0,0.0,0.0,8.0,1.0,phase_2,stop,550.0,500.0,4.0,,,,,,,,,magenta,hexagon
0.0,2.0,1.0,0.0,7.0,5.0,891.4915040004416,1.0,2.0,phase_3,,,,,176.0,4.0,132.0,88.0,220.0,44.0,176.0,264.0,blue,triangle
0.0,6.0,1.0,1.0,7.0,1.0,3963.17213400107,1.0,1.0,phase_3,,,,,220.0,5.0,220.0,132.0,44.0,176.0,88.0,264.0,magenta,hexagon
0.0,6.0,1.0,1.0,7.0,5.0,3433.975840001949,1.0,1.0,phase_3,,,,,270.0,5.0,162.0,216.0,108.0,54.0,270.0,324.0,magenta,hexagon
0.0,2.0,1.0,0.0,7.0,1.0,3591.0124039983198,1.0,1.0,phase_3,,,,,136.0,4.0,136.0,204.0,34.0,68.0,102.0,170.0,blue,triangle
0.0,5.0,0.5,1.0,7.0,4.0,3118.173700000625,1.0,1.0,phase_3,,,,,204.0,6.0,68.0,102.0,170.0,204.0,136.0,34.0,yellow,diamond
0.0,5.0,0.5,1.0,7.0,6.0,1742.545708999387,1.0,1.0,phase_3,,,,,132.0,3.0,44.0,176.0,264.0,88.0,220.0,132.0,yellow,diamond
0.0,8.0,4.0,1.0,7.0,6.0,3123.242761001165,1.0,1.0,phase_3,,,,,176.0,4.0,264.0,132.0,220.0,44.0,88.0,176.0,white,circle
0.0,7.0,2.0,1.0,7.0,6.0,2588.1348619986966,1.0,1.0,phase_3,,,,,78.0,2.0,195.0,117.0,156.0,234.0,39.0,78.0,cyan,square
0.0,7.0,2.0,1.0,7.0,3.0,3844.034502999421,1.0,1.0,phase_3,,,,,78.0,2.0,234.0,195.0,78.0,117.0,39.0,156.0,cyan,square
0.0,7.0,2.0,1.0,7.0,2.0,1680.431476001104,1.0,1.0,phase_3,,,,,147.0,3.0,98.0,147.0,245.0,49.0,196.0,294.0,cyan,square
0.0,5.0,0.5,1.0,7.0,4.0,2279.6630810007628,1.0,1.0,phase_3,,,,,162.0,3.0,216.0,54.0,108.0,162.0,270.0,324.0,yellow,diamond
0.0,4.0,4.0,0.0,7.0,5.0,2336.918118002359,1.0,1.0,phase_3,,,,,220.0,5.0,88.0,264.0,176.0,132.0,220.0,44.0,gray,cross
0.0,6.0,1.0,1.0,7.0,6.0,2205.3220880006847,1.0,1.0,phase_3,,,,,147.0,3.0,245.0,49.0,196.0,294.0,98.0,147.0,magenta,hexagon
0.0,5.0,0.5,1.0,7.0,6.0,2713.528722000774,1.0,1.0,phase_3,,,,,220.0,5.0,132.0,44.0,264.0,88.0,176.0,220.0,yellow,diamond
0.0,8.0,4.0,1.0,7.0,4.0,2768.996109996806,1.0,1.0,phase_3,,,,,102.0,3.0,34.0,204.0,136.0,102.0,68.0,170.0,white,circle
0.0,6.0,1.0,1.0,7.0,2.0,2832.4422000005143,1.0,1.0,phase_3,,,,,102.0,3.0,68.0,102.0,136.0,34.0,170.0,204.0,magenta,hexagon
0.0,3.0,2.0,0.0,7.0,2.0,3052.468230998784,1.0,1.0,phase_3,,,,,216.0,4.0,324.0,216.0,54.0,108.0,270.0,162.0,orange,I
0.0,1.0,0.5,0.0,7.0,2.0,3073.265489001642,1.0,1.0,phase_3,,,,,132.0,3.0,44.0,132.0,88.0,220.0,264.0,176.0,green,flipped triangle
0.0,4.0,4.0,0.0,7.0,5.0,2260.538243997871,1.0,1.0,phase_3,,,,,196.0,4.0,245.0,294.0,98.0,49.0,196.0,147.0,gray,cross
0.0,8.0,4.0,1.0,7.0,2.0,3322.6405220011657,1.0,1.0,phase_3,,,,,195.0,5.0,234.0,195.0,39.0,117.0,78.0,156.0,white,circle
0.0,3.0,2.0,0.0,7.0,3.0,1612.022668999998,2.0,1.0,phase_3,,,,,176.0,4.0,44.0,264.0,176.0,220.0,132.0,88.0,orange,I
0.0,8.0,4.0,1.0,7.0,3.0,1897.55602799778,2.0,1.0,phase_3,,,,,220.0,5.0,264.0,44.0,220.0,132.0,176.0,88.0,white,circle
0.0,2.0,1.0,0.0,7.0,4.0,2197.538467000413,2.0,1.0,phase_3,,,,,270.0,5.0,108.0,216.0,324.0,270.0,162.0,54.0,blue,triangle
0.0,1.0,0.5,0.0,7.0,5.0,3247.193817001971,2.0,1.0,phase_3,,,,,132.0,3.0,220.0,88.0,44.0,176.0,132.0,264.0,green,flipped triangle
0.0,7.0,2.0,1.0,7.0,4.0,1280.381063999812,2.0,1.0,phase_3,,,,,204.0,6.0,136.0,34.0,170.0,204.0,68.0,102.0,cyan,square
0.0,5.0,0.5,1.0,7.0,1.0,2598.604703001911,2.0,1.0,phase_3,,,,,147.0,3.0,147.0,49.0,196.0,98.0,245.0,294.0,yellow,diamond
0.0,3.0,2.0,0.0,7.0,1.0,2346.4472870000463,2.0,1.0,phase_3,,,,,136.0,4.0,136.0,204.0,34.0,102.0,68.0,170.0,orange,I
0.0,5.0,0.5,1.0,7.0,3.0,1950.7836329976271,2.0,1.0,phase_3,,,,,195.0,5.0,117.0,156.0,195.0,78.0,39.0,234.0,yellow,diamond
0.0,7.0,2.0,1.0,7.0,3.0,1996.4629800015248,2.0,1.0,phase_3,,,,,294.0,6.0,147.0,196.0,294.0,49.0,245.0,98.0,cyan,square
0.0,1.0,0.5,0.0,7.0,5.0,1702.2759389983548,2.0,1.0,phase_3,,,,,156.0,4.0,195.0,78.0,39.0,117.0,156.0,234.0,green,flipped triangle
0.0,5.0,0.5,1.0,7.0,5.0,2360.993338999833,2.0,1.0,phase_3,,,,,216.0,4.0,54.0,162.0,270.0,108.0,216.0,324.0,yellow,diamond
0.0,7.0,2.0,1.0,7.0,1.0,3013.122629999998,2.0,1.0,phase_3,,,,,162.0,3.0,162.0,216.0,324.0,108.0,54.0,270.0,cyan,square
0.0,8.0,4.0,1.0,7.0,3.0,3066.043892002199,2.0,1.0,phase_3,,,,,156.0,4.0,234.0,39.0,156.0,78.0,117.0,195.0,white,circle
0.0,1.0,0.5,0.0,7.0,4.0,2709.1005520014733,2.0,1.0,phase_3,,,,,270.0,5.0,162.0,324.0,108.0,270.0,54.0,216.0,green,flipped triangle
0.0,5.0,0.5,1.0,7.0,3.0,1457.4284850023105,2.0,1.0,phase_3,,,,,117.0,3.0,39.0,195.0,117.0,78.0,156.0,234.0,yellow,diamond
0.0,8.0,4.0,1.0,7.0,6.0,1893.7010879999436,2.0,1.0,phase_3,,,,,162.0,3.0,270.0,324.0,216.0,54.0,108.0,162.0,white,circle
0.0,5.0,0.5,1.0,7.0,5.0,2244.91615900115,2.0,1.0,phase_3,,,,,204.0,6.0,170.0,136.0,68.0,34.0,204.0,102.0,yellow,diamond
0.0,1.0,0.5,0.0,7.0,2.0,1149.7714340002858,2.0,1.0,phase_3,,,,,117.0,3.0,156.0,117.0,195.0,234.0,39.0,78.0,green,flipped triangle
0.0,1.0,0.5,0.0,7.0,4.0,3015.5939079995733,2.0,1.0,phase_3,,,,,216.0,4.0,324.0,54.0,270.0,216.0,108.0,162.0,green,flipped triangle
0.0,2.0,1.0,0.0,7.0,6.0,2513.966212001833,2.0,1.0,phase_3,,,,,147.0,3.0,245.0,196.0,98.0,49.0,294.0,147.0,blue,triangle
0.0,4.0,4.0,0.0,7.0,3.0,1863.6442269998952,3.0,1.0,phase_3,,,,,216.0,4.0,54.0,324.0,216.0,270.0,162.0,108.0,gray,cross
0.0,8.0,4.0,1.0,7.0,4.0,2264.371043998836,3.0,1.0,phase_3,,,,,324.0,6.0,54.0,108.0,270.0,324.0,162.0,216.0,white,circle
0.0,1.0,0.5,0.0,7.0,2.0,1696.5025610006703,3.0,1.0,phase_3,,,,,245.0,5.0,294.0,245.0,147.0,98.0,49.0,196.0,green,flipped triangle
0.0,8.0,4.0,1.0,7.0,5.0,2184.502183001314,3.0,1.0,phase_3,,,,,170.0,5.0,204.0,136.0,34.0,102.0,170.0,68.0,white,circle
0.0,5.0,0.5,1.0,7.0,4.0,2641.940310000791,3.0,1.0,phase_3,,,,,196.0,4.0,98.0,294.0,49.0,196.0,147.0,245.0,yellow,diamond
0.0,2.0,1.0,0.0,7.0,5.0,2329.813879001449,3.0,1.0,phase_3,,,,,156.0,4.0,39.0,117.0,78.0,195.0,156.0,234.0,blue,triangle
0.0,2.0,1.0,0.0,7.0,2.0,2492.4618289987848,3.0,1.0,phase_3,,,,,170.0,5.0,136.0,170.0,102.0,34.0,204.0,68.0,blue,triangle
0.0,2.0,1.0,0.0,7.0,2.0,2696.8914059980307,3.0,1.0,phase_3,,,,,245.0,5.0,98.0,245.0,147.0,294.0,49.0,196.0,blue,triangle
0.0,6.0,1.0,1.0,7.0,4.0,2494.4035629996506,3.0,1.0,phase_3,,,,,270.0,5.0,324.0,54.0,108.0,270.0,216.0,162.0,magenta,hexagon
0.0,4.0,4.0,0.0,7.0,2.0,2780.37996400235,3.0,1.0,phase_3,,,,,156.0,4.0,78.0,156.0,117.0,234.0,195.0,39.0,gray,cross
0.0,3.0,2.0,0.0,7.0,5.0,2269.753147997108,3.0,1.0,phase_3,,,,,156.0,4.0,78.0,195.0,234.0,39.0,156.0,117.0,orange,I
0.0,7.0,2.0,1.0,7.0,3.0,2424.7144290020515,3.0,1.0,phase_3,,,,,44.0,1.0,264.0,220.0,44.0,132.0,176.0,88.0,cyan,square
0.0,2.0,1.0,0.0,7.0,4.0,2667.636385998776,3.0,1.0,phase_3,,,,,195.0,5.0,39.0,234.0,117.0,195.0,78.0,156.0,blue,triangle
0.0,3.0,2.0,0.0,7.0,4.0,1860.5451220028044,3.0,1.0,phase_3,,,,,195.0,5.0,39.0,234.0,78.0,195.0,156.0,117.0,orange,I
0.0,1.0,0.5,0.0,7.0,2.0,3094.609062998643,3.0,1.0,phase_3,,,,,102.0,3.0,204.0,102.0,136.0,34.0,170.0,68.0,green,flipped triangle
0.0,4.0,4.0,0.0,7.0,5.0,2327.244143001735,3.0,1.0,phase_3,,,,,176.0,4.0,220.0,132.0,88.0,44.0,176.0,264.0,gray,cross
0.0,2.0,1.0,0.0,7.0,2.0,2472.8917899992666,3.0,1.0,phase_3,,,,,216.0,4.0,108.0,216.0,54.0,270.0,162.0,324.0,blue,triangle
0.0,3.0,2.0,0.0,7.0,5.0,3400.0840680018878,3.0,1.0,phase_3,,,,,216.0,4.0,162.0,108.0,270.0,54.0,216.0,324.0,orange,I
0.0,3.0,2.0,0.0,7.0,4.0,1830.962975000148,3.0,1.0,phase_3,,,,,196.0,4.0,98.0,245.0,147.0,196.0,294.0,49.0,orange,I
0.0,1.0,0.5,0.0,7.0,6.0,2406.04959400298,3.0,1.0,phase_3,,,,,147.0,3.0,294.0,49.0,245.0,98.0,196.0,147.0,green,flipped triangle
0.0,8.0,4.0,1.0,7.0,3.0,1522.9997940004978,4.0,1.0,phase_3,,,,,196.0,4.0,49.0,294.0,196.0,147.0,98.0,245.0,white,circle
0.0,4.0,4.0,0.0,7.0,5.0,1679.9725599994415,4.0,1.0,phase_3,,,,,162.0,3.0,270.0,54.0,216.0,324.0,162.0,108.0,gray,cross
0.0,6.0,1.0,1.0,7.0,2.0,2289.34374399978,4.0,1.0,phase_3,,,,,220.0,5.0,88.0,220.0,44.0,264.0,132.0,176.0,magenta,hexagon
0.0,4.0,4.0,0.0,7.0,4.0,2566.9730299996445,4.0,1.0,phase_3,,,,,117.0,3.0,78.0,195.0,39.0,117.0,234.0,156.0,gray,cross
0.0,2.0,1.0,0.0,7.0,3.0,2133.2469259978097,4.0,1.0,phase_3,,,,,176.0,4.0,264.0,88.0,176.0,132.0,44.0,220.0,blue,triangle
0.0,6.0,1.0,1.0,7.0,5.0,2199.740110998391,4.0,1.0,phase_3,,,,,102.0,3.0,34.0,204.0,170.0,136.0,102.0,68.0,magenta,hexagon
0.0,4.0,4.0,0.0,7.0,4.0,1300.9001649988932,4.0,1.0,phase_3,,,,,102.0,3.0,136.0,170.0,204.0,102.0,34.0,68.0,gray,cross
0.0,3.0,2.0,0.0,7.0,4.0,1685.8635309981764,4.0,1.0,phase_3,,,,,204.0,6.0,170.0,68.0,102.0,204.0,34.0,136.0,orange,I
0.0,3.0,2.0,0.0,7.0,6.0,2306.2501099993824,4.0,1.0,phase_3,,,,,196.0,4.0,98.0,49.0,245.0,147.0,294.0,196.0,orange,I
0.0,6.0,1.0,1.0,7.0,3.0,2497.9942370009667,4.0,1.0,phase_3,,,,,156.0,4.0,39.0,234.0,156.0,78.0,117.0,195.0,magenta,hexagon
0.0,6.0,1.0,1.0,7.0,6.0,2018.2417489995714,4.0,1.0,phase_3,,,,,196.0,4.0,98.0,245.0,294.0,147.0,49.0,196.0,magenta,hexagon
0.0,6.0,1.0,1.0,7.0,1.0,1800.7237930032716,4.0,1.0,phase_3,,,,,234.0,6.0,234.0,39.0,156.0,78.0,195.0,117.0,magenta,hexagon
0.0,7.0,2.0,1.0,7.0,2.0,2235.1019570014614,4.0,1.0,phase_3,,,,,132.0,3.0,88.0,132.0,44.0,264.0,220.0,176.0,cyan,square
0.0,7.0,2.0,1.0,7.0,1.0,1481.6829470000812,4.0,1.0,phase_3,,,,,34.0,1.0,34.0,102.0,68.0,170.0,136.0,204.0,cyan,square
0.0,4.0,4.0,0.0,7.0,5.0,1999.309656999685,4.0,1.0,phase_3,,,,,170.0,5.0,102.0,204.0,68.0,34.0,170.0,136.0,gray,cross
0.0,7.0,2.0,1.0,7.0,3.0,1534.0893100001267,4.0,1.0,phase_3,,,,,54.0,1.0,108.0,270.0,54.0,162.0,324.0,216.0,cyan,square
0.0,8.0,4.0,1.0,7.0,6.0,3093.2678270000906,4.0,1.0,phase_3,,,,,147.0,3.0,98.0,196.0,245.0,49.0,294.0,147.0,white,circle
0.0,1.0,0.5,0.0,7.0,4.0,2803.3313659980195,4.0,1.0,phase_3,,,,,34.0,1.0,204.0,170.0,136.0,34.0,68.0,102.0,green,flipped triangle
0.0,4.0,4.0,0.0,7.0,3.0,3971.882888003165,4.0,1.0,phase_3,,,,,49.0,1.0,294.0,196.0,49.0,147.0,98.0,245.0,gray,cross
0.0,3.0,2.0,0.0,7.0,3.0,3401.2185470019176,4.0,1.0,phase_3,,,,,132.0,3.0,264.0,88.0,132.0,220.0,176.0,44.0,orange,I
