raw_reward_magnitude,stim_reward,stepwise_reward_magnitude,paired_with_stopping,stim_location,response,reaction_time,block,num_trial_presentations,which_phase,stop_signal_trial_type,left_SSD,right_SSD,accuracy,chosen_bidding_amount,chosen_bidding_level,possible_bid_1,possible_bid_2,possible_bid_3,possible_bid_4,possible_bid_5,possible_bid_6,color_text,shape_text
54.0,1.0,0.5,0.0,1.0,1.0,536.6806290001023,1.0,1.0,phase_1,,,,,,,,,,,,,orange,diamond
49.0,1.0,0.5,0.0,1.0,1.0,470.453414000076,1.0,1.0,phase_1,,,,,,,,,,,,,orange,diamond
0.0,2.0,0.0,0.0,2.0,2.0,475.445321000052,1.0,1.0,phase_1,,,,,,,,,,,,,cyan,cross
0.0,3.0,0.0,0.0,3.0,3.0,469.3054930000926,1.0,1.0,phase_1,,,,,,,,,,,,,yellow,hexagon
193.0,7.0,2.0,1.0,4.0,4.0,498.9895440000964,1.0,1.0,phase_1,,,,,,,,,,,,,blue,square
93.0,6.0,1.0,1.0,3.0,3.0,437.7142509999885,1.0,1.0,phase_1,,,,,,,,,,,,,green,triangle
381.0,8.0,4.0,1.0,3.0,3.0,624.7914939999646,1.0,1.0,phase_1,,,,,,,,,,,,,magenta,I
214.0,3.0,2.0,0.0,3.0,3.0,428.207403999977,1.0,1.0,phase_1,,,,,,,,,,,,,yellow,hexagon
121.0,6.0,1.0,1.0,1.0,1.0,433.0894849999822,1.0,1.0,phase_1,,,,,,,,,,,,,green,triangle
0.0,1.0,0.0,0.0,4.0,4.0,472.3449690000052,1.0,1.0,phase_1,,,,,,,,,,,,,orange,diamond
0.0,6.0,0.0,1.0,4.0,4.0,407.4372069999299,1.0,1.0,phase_1,,,,,,,,,,,,,green,triangle
89.0,2.0,1.0,0.0,1.0,1.0,407.0321379999768,1.0,1.0,phase_1,,,,,,,,,,,,,cyan,cross
111.0,2.0,1.0,0.0,1.0,1.0,465.8994009998878,1.0,1.0,phase_1,,,,,,,,,,,,,cyan,cross
115.0,2.0,1.0,0.0,2.0,2.0,464.0148949999911,1.0,1.0,phase_1,,,,,,,,,,,,,cyan,cross
0.0,1.0,0.0,0.0,3.0,3.0,482.4428180002087,1.0,1.0,phase_1,,,,,,,,,,,,,orange,diamond
177.0,7.0,2.0,1.0,2.0,2.0,409.2430159998912,1.0,1.0,phase_1,,,,,,,,,,,,,blue,square
411.0,4.0,4.0,0.0,4.0,4.0,390.0660580000021,1.0,1.0,phase_1,,,,,,,,,,,,,white,flipped triangle
188.0,3.0,2.0,0.0,4.0,4.0,434.6640819999265,1.0,1.0,phase_1,,,,,,,,,,,,,yellow,hexagon
84.0,2.0,1.0,0.0,4.0,4.0,394.0005449999262,1.0,1.0,phase_1,,,,,,,,,,,,,cyan,cross
45.0,1.0,0.5,0.0,3.0,3.0,418.2704869999725,1.0,1.0,phase_1,,,,,,,,,,,,,orange,diamond
105.0,6.0,1.0,1.0,2.0,2.0,443.6007719998542,1.0,1.0,phase_1,,,,,,,,,,,,,green,triangle
0.0,1.0,0.0,0.0,3.0,3.0,408.33206100001,1.0,1.0,phase_1,,,,,,,,,,,,,orange,diamond
41.0,5.0,0.5,1.0,1.0,1.0,376.2725740000405,1.0,1.0,phase_1,,,,,,,,,,,,,gray,circle
198.0,7.0,2.0,1.0,4.0,4.0,388.9918209999905,1.0,1.0,phase_1,,,,,,,,,,,,,blue,square
0.0,5.0,0.0,1.0,3.0,3.0,400.7000789999893,1.0,1.0,phase_1,,,,,,,,,,,,,gray,circle
204.0,3.0,2.0,0.0,4.0,4.0,458.9850219999789,1.0,1.0,phase_1,,,,,,,,,,,,,yellow,hexagon
0.0,3.0,0.0,0.0,1.0,1.0,337.1128740000131,1.0,1.0,phase_1,,,,,,,,,,,,,yellow,hexagon
30.0,5.0,0.5,1.0,1.0,1.0,379.6965140002157,1.0,1.0,phase_1,,,,,,,,,,,,,gray,circle
79.0,2.0,1.0,0.0,1.0,1.0,387.5170219998836,1.0,1.0,phase_1,,,,,,,,,,,,,cyan,cross
178.0,3.0,2.0,0.0,4.0,4.0,360.9229769999729,1.0,1.0,phase_1,,,,,,,,,,,,,yellow,hexagon
386.0,8.0,4.0,1.0,1.0,1.0,368.0603959999189,1.0,1.0,phase_1,,,,,,,,,,,,,magenta,I
65.0,1.0,0.5,0.0,2.0,2.0,461.2673809999705,1.0,1.0,phase_1,,,,,,,,,,,,,orange,diamond
48.0,1.0,0.5,0.0,1.0,1.0,367.1509910000168,1.0,1.0,phase_1,,,,,,,,,,,,,orange,diamond
384.0,8.0,4.0,1.0,4.0,4.0,352.5189150000187,1.0,1.0,phase_1,,,,,,,,,,,,,magenta,I
408.0,4.0,4.0,0.0,1.0,1.0,329.4474070000888,1.0,1.0,phase_1,,,,,,,,,,,,,white,flipped triangle
410.0,8.0,4.0,1.0,1.0,1.0,376.1044620000575,1.0,1.0,phase_1,,,,,,,,,,,,,magenta,I
64.0,5.0,0.5,1.0,4.0,4.0,419.624739000028,1.0,1.0,phase_1,,,,,,,,,,,,,gray,circle
34.0,5.0,0.5,1.0,2.0,2.0,374.0238759999101,1.0,1.0,phase_1,,,,,,,,,,,,,gray,circle
0.0,2.0,0.0,0.0,2.0,2.0,429.4207089999418,1.0,1.0,phase_1,,,,,,,,,,,,,cyan,cross
31.0,1.0,0.5,0.0,1.0,1.0,297.9378720001477,1.0,1.0,phase_1,,,,,,,,,,,,,orange,diamond
0.0,2.0,0.0,0.0,1.0,1.0,328.9574939999511,1.0,1.0,phase_1,,,,,,,,,,,,,cyan,cross
58.0,5.0,0.5,1.0,4.0,4.0,290.6024709998291,1.0,1.0,phase_1,,,,,,,,,,,,,gray,circle
68.0,5.0,0.5,1.0,3.0,3.0,298.2485710001583,1.0,1.0,phase_1,,,,,,,,,,,,,gray,circle
36.0,5.0,0.5,1.0,4.0,4.0,526.4527389999785,1.0,1.0,phase_1,,,,,,,,,,,,,gray,circle
62.0,1.0,0.5,0.0,1.0,1.0,349.2838610000035,1.0,1.0,phase_1,,,,,,,,,,,,,orange,diamond
379.0,4.0,4.0,0.0,1.0,1.0,359.176079000008,1.0,1.0,phase_1,,,,,,,,,,,,,white,flipped triangle
81.0,6.0,1.0,1.0,3.0,3.0,415.841175999958,1.0,1.0,phase_1,,,,,,,,,,,,,green,triangle
403.0,4.0,4.0,0.0,1.0,1.0,345.9101630000987,1.0,1.0,phase_1,,,,,,,,,,,,,white,flipped triangle
0.0,5.0,0.0,1.0,1.0,1.0,350.5941210000856,1.0,1.0,phase_1,,,,,,,,,,,,,gray,circle
0.0,5.0,0.0,1.0,3.0,3.0,392.0748689999982,1.0,1.0,phase_1,,,,,,,,,,,,,gray,circle
91.0,2.0,1.0,0.0,3.0,3.0,525.9965119998924,1.0,1.0,phase_1,,,,,,,,,,,,,cyan,cross
183.0,3.0,2.0,0.0,2.0,2.0,512.6752419998866,1.0,1.0,phase_1,,,,,,,,,,,,,yellow,hexagon
0.0,1.0,0.0,0.0,1.0,1.0,339.0129949998481,1.0,1.0,phase_1,,,,,,,,,,,,,orange,diamond
84.0,6.0,1.0,1.0,3.0,3.0,400.1973039999029,1.0,1.0,phase_1,,,,,,,,,,,,,green,triangle
425.0,8.0,4.0,1.0,2.0,2.0,435.2212769999823,1.0,1.0,phase_1,,,,,,,,,,,,,magenta,I
0.0,4.0,0.0,0.0,4.0,4.0,428.8959080001859,1.0,1.0,phase_1,,,,,,,,,,,,,white,flipped triangle
63.0,1.0,0.5,0.0,4.0,4.0,355.7218840001042,1.0,1.0,phase_1,,,,,,,,,,,,,orange,diamond
177.0,7.0,2.0,1.0,3.0,3.0,369.2741749998731,1.0,1.0,phase_1,,,,,,,,,,,,,blue,square
185.0,7.0,2.0,1.0,1.0,1.0,440.2640650000649,1.0,1.0,phase_1,,,,,,,,,,,,,blue,square
101.0,2.0,1.0,0.0,2.0,2.0,391.061185000126,1.0,1.0,phase_1,,,,,,,,,,,,,cyan,cross
417.0,8.0,4.0,1.0,3.0,3.0,349.6735189999072,1.0,1.0,phase_1,,,,,,,,,,,,,magenta,I
224.0,3.0,2.0,0.0,1.0,1.0,306.722721000142,1.0,1.0,phase_1,,,,,,,,,,,,,yellow,hexagon
104.0,6.0,1.0,1.0,2.0,2.0,417.6350570000977,1.0,1.0,phase_1,,,,,,,,,,,,,green,triangle
176.0,7.0,2.0,1.0,3.0,3.0,458.104657000149,1.0,1.0,phase_1,,,,,,,,,,,,,blue,square
209.0,3.0,2.0,0.0,2.0,2.0,407.1833560001323,1.0,1.0,phase_1,,,,,,,,,,,,,yellow,hexagon
48.0,5.0,0.5,1.0,3.0,3.0,485.5334159999529,1.0,2.0,phase_1,,,,,,,,,,,,,gray,circle
0.0,3.0,0.0,0.0,1.0,1.0,422.4074479998307,1.0,1.0,phase_1,,,,,,,,,,,,,yellow,hexagon
0.0,5.0,0.0,1.0,1.0,1.0,545.8151519999319,1.0,1.0,phase_1,,,,,,,,,,,,,gray,circle
115.0,2.0,1.0,0.0,4.0,4.0,369.2808119999426,1.0,1.0,phase_1,,,,,,,,,,,,,cyan,cross
99.0,2.0,1.0,0.0,2.0,2.0,511.32615599999554,1.0,1.0,phase_1,,,,,,,,,,,,,cyan,cross
45.0,5.0,0.5,1.0,1.0,1.0,425.6357940000725,1.0,1.0,phase_1,,,,,,,,,,,,,gray,circle
225.0,3.0,2.0,0.0,1.0,1.0,401.4051139999992,1.0,1.0,phase_1,,,,,,,,,,,,,yellow,hexagon
0.0,7.0,0.0,1.0,1.0,1.0,513.2662070000151,1.0,1.0,phase_1,,,,,,,,,,,,,blue,square
0.0,6.0,0.0,1.0,3.0,3.0,377.2923120000087,1.0,1.0,phase_1,,,,,,,,,,,,,green,triangle
0.0,1.0,0.0,0.0,3.0,3.0,448.114908999969,1.0,1.0,phase_1,,,,,,,,,,,,,orange,diamond
412.0,4.0,4.0,0.0,3.0,3.0,599.2745690000447,1.0,1.0,phase_1,,,,,,,,,,,,,white,flipped triangle
377.0,4.0,4.0,0.0,4.0,4.0,557.6023179999083,1.0,1.0,phase_1,,,,,,,,,,,,,white,flipped triangle
379.0,8.0,4.0,1.0,4.0,4.0,614.2830989999766,1.0,1.0,phase_1,,,,,,,,,,,,,magenta,I
417.0,4.0,4.0,0.0,2.0,2.0,586.0604380000041,1.0,1.0,phase_1,,,,,,,,,,,,,white,flipped triangle
403.0,8.0,4.0,1.0,3.0,3.0,488.4397690000241,1.0,1.0,phase_1,,,,,,,,,,,,,magenta,I
383.0,8.0,4.0,1.0,2.0,2.0,475.6825130000379,1.0,1.0,phase_1,,,,,,,,,,,,,magenta,I
211.0,3.0,2.0,0.0,1.0,1.0,451.8248609999773,1.0,1.0,phase_1,,,,,,,,,,,,,yellow,hexagon
394.0,4.0,4.0,0.0,4.0,4.0,493.70649399998,1.0,1.0,phase_1,,,,,,,,,,,,,white,flipped triangle
55.0,1.0,0.5,0.0,3.0,3.0,391.0676860000421,1.0,1.0,phase_1,,,,,,,,,,,,,orange,diamond
385.0,8.0,4.0,1.0,2.0,2.0,411.6710000000694,1.0,1.0,phase_1,,,,,,,,,,,,,magenta,I
68.0,5.0,0.5,1.0,2.0,2.0,433.2003819999954,1.0,1.0,phase_1,,,,,,,,,,,,,gray,circle
219.0,3.0,2.0,0.0,1.0,1.0,431.4816290000181,1.0,1.0,phase_1,,,,,,,,,,,,,yellow,hexagon
118.0,6.0,1.0,1.0,1.0,1.0,472.8558750000502,1.0,1.0,phase_1,,,,,,,,,,,,,green,triangle
0.0,8.0,0.0,1.0,1.0,1.0,530.6713070001479,1.0,1.0,phase_1,,,,,,,,,,,,,magenta,I
416.0,8.0,4.0,1.0,2.0,2.0,462.3839839998709,1.0,1.0,phase_1,,,,,,,,,,,,,magenta,I
45.0,5.0,0.5,1.0,4.0,4.0,685.4126640000686,1.0,1.0,phase_1,,,,,,,,,,,,,gray,circle
217.0,7.0,2.0,1.0,3.0,3.0,507.9844800000046,1.0,1.0,phase_1,,,,,,,,,,,,,blue,square
0.0,7.0,0.0,1.0,4.0,4.0,570.6639109998832,1.0,1.0,phase_1,,,,,,,,,,,,,blue,square
103.0,2.0,1.0,0.0,4.0,4.0,476.8966650001403,1.0,1.0,phase_1,,,,,,,,,,,,,cyan,cross
45.0,1.0,0.5,0.0,3.0,3.0,465.2920510000058,1.0,1.0,phase_1,,,,,,,,,,,,,orange,diamond
43.0,5.0,0.5,1.0,2.0,2.0,561.8794270001217,1.0,1.0,phase_1,,,,,,,,,,,,,gray,circle
0.0,3.0,0.0,0.0,4.0,4.0,498.1346310000845,1.0,1.0,phase_1,,,,,,,,,,,,,yellow,hexagon
0.0,1.0,0.0,0.0,2.0,2.0,405.6153630001518,1.0,1.0,phase_1,,,,,,,,,,,,,orange,diamond
0.0,6.0,0.0,1.0,3.0,3.0,460.3686030000062,1.0,1.0,phase_1,,,,,,,,,,,,,green,triangle
56.0,5.0,0.5,1.0,3.0,3.0,548.7769159999516,1.0,1.0,phase_1,,,,,,,,,,,,,gray,circle
36.0,1.0,0.5,0.0,3.0,3.0,411.8791020000572,2.0,1.0,phase_1,,,,,,,,,,,,,orange,diamond
408.0,8.0,4.0,1.0,2.0,2.0,414.77960300017,2.0,1.0,phase_1,,,,,,,,,,,,,magenta,I
0.0,3.0,0.0,0.0,1.0,1.0,402.1058660000562,2.0,1.0,phase_1,,,,,,,,,,,,,yellow,hexagon
0.0,3.0,0.0,0.0,2.0,2.0,464.7195300001385,2.0,1.0,phase_1,,,,,,,,,,,,,yellow,hexagon
0.0,8.0,0.0,1.0,4.0,4.0,456.3230389999262,2.0,1.0,phase_1,,,,,,,,,,,,,magenta,I
77.0,6.0,1.0,1.0,3.0,3.0,373.7963890000628,2.0,1.0,phase_1,,,,,,,,,,,,,green,triangle
105.0,6.0,1.0,1.0,4.0,4.0,385.1561579999725,2.0,1.0,phase_1,,,,,,,,,,,,,green,triangle
74.0,1.0,0.5,0.0,4.0,4.0,384.2763449999893,2.0,1.0,phase_1,,,,,,,,,,,,,orange,diamond
0.0,6.0,0.0,1.0,1.0,1.0,287.3623550001412,2.0,1.0,phase_1,,,,,,,,,,,,,green,triangle
221.0,7.0,2.0,1.0,3.0,3.0,479.0018339999733,2.0,1.0,phase_1,,,,,,,,,,,,,blue,square
415.0,8.0,4.0,1.0,1.0,1.0,374.344659999906,2.0,1.0,phase_1,,,,,,,,,,,,,magenta,I
188.0,3.0,2.0,0.0,1.0,1.0,429.6089380000012,2.0,1.0,phase_1,,,,,,,,,,,,,yellow,hexagon
121.0,2.0,1.0,0.0,2.0,2.0,429.5942130002004,2.0,1.0,phase_1,,,,,,,,,,,,,cyan,cross
72.0,5.0,0.5,1.0,1.0,1.0,508.4166290000667,2.0,1.0,phase_1,,,,,,,,,,,,,gray,circle
81.0,2.0,1.0,0.0,2.0,2.0,378.5283980000713,2.0,1.0,phase_1,,,,,,,,,,,,,cyan,cross
0.0,5.0,0.0,1.0,4.0,4.0,532.7542289999201,2.0,1.0,phase_1,,,,,,,,,,,,,gray,circle
104.0,2.0,1.0,0.0,3.0,3.0,428.2776090001334,2.0,1.0,phase_1,,,,,,,,,,,,,cyan,cross
118.0,2.0,1.0,0.0,4.0,4.0,431.9451880000997,2.0,1.0,phase_1,,,,,,,,,,,,,cyan,cross
400.0,8.0,4.0,1.0,4.0,4.0,363.4720909999487,2.0,1.0,phase_1,,,,,,,,,,,,,magenta,I
425.0,4.0,4.0,0.0,2.0,2.0,375.5393839999215,2.0,1.0,phase_1,,,,,,,,,,,,,white,flipped triangle
79.0,6.0,1.0,1.0,2.0,2.0,416.9488760001059,2.0,1.0,phase_1,,,,,,,,,,,,,green,triangle
112.0,6.0,1.0,1.0,4.0,4.0,469.675522999978,2.0,1.0,phase_1,,,,,,,,,,,,,green,triangle
103.0,6.0,1.0,1.0,1.0,1.0,473.0339320001349,2.0,1.0,phase_1,,,,,,,,,,,,,green,triangle
409.0,4.0,4.0,0.0,4.0,4.0,493.6778690000665,2.0,1.0,phase_1,,,,,,,,,,,,,white,flipped triangle
402.0,8.0,4.0,1.0,3.0,3.0,450.6101030001446,2.0,1.0,phase_1,,,,,,,,,,,,,magenta,I
224.0,7.0,2.0,1.0,1.0,1.0,510.19975100007287,2.0,1.0,phase_1,,,,,,,,,,,,,blue,square
205.0,7.0,2.0,1.0,3.0,3.0,466.333824000003,2.0,1.0,phase_1,,,,,,,,,,,,,blue,square
224.0,7.0,2.0,1.0,1.0,1.0,330.1106530000197,2.0,1.0,phase_1,,,,,,,,,,,,,blue,square
103.0,2.0,1.0,0.0,3.0,3.0,360.1474040001449,2.0,1.0,phase_1,,,,,,,,,,,,,cyan,cross
77.0,2.0,1.0,0.0,2.0,2.0,399.9174850000599,2.0,1.0,phase_1,,,,,,,,,,,,,cyan,cross
0.0,7.0,0.0,1.0,4.0,4.0,527.3093850000805,2.0,1.0,phase_1,,,,,,,,,,,,,blue,square
59.0,5.0,0.5,1.0,2.0,2.0,427.5726209998538,2.0,1.0,phase_1,,,,,,,,,,,,,gray,circle
73.0,1.0,0.5,0.0,2.0,2.0,382.7853390000655,2.0,1.0,phase_1,,,,,,,,,,,,,orange,diamond
417.0,4.0,4.0,0.0,2.0,2.0,376.7628849998345,2.0,1.0,phase_1,,,,,,,,,,,,,white,flipped triangle
202.0,3.0,2.0,0.0,2.0,2.0,428.897963000054,2.0,1.0,phase_1,,,,,,,,,,,,,yellow,hexagon
0.0,6.0,0.0,1.0,2.0,2.0,370.9643089998735,2.0,1.0,phase_1,,,,,,,,,,,,,green,triangle
194.0,7.0,2.0,1.0,3.0,3.0,494.2735339998307,2.0,1.0,phase_1,,,,,,,,,,,,,blue,square
379.0,4.0,4.0,0.0,4.0,4.0,426.606141000093,2.0,1.0,phase_1,,,,,,,,,,,,,white,flipped triangle
0.0,7.0,0.0,1.0,3.0,3.0,453.8708919999408,2.0,1.0,phase_1,,,,,,,,,,,,,blue,square
223.0,3.0,2.0,0.0,2.0,2.0,541.6757869998037,2.0,1.0,phase_1,,,,,,,,,,,,,yellow,hexagon
65.0,5.0,0.5,1.0,2.0,2.0,428.6341429999538,2.0,1.0,phase_1,,,,,,,,,,,,,gray,circle
64.0,1.0,0.5,0.0,1.0,1.0,369.4522990001587,2.0,1.0,phase_1,,,,,,,,,,,,,orange,diamond
390.0,8.0,4.0,1.0,4.0,4.0,408.446720000029,2.0,1.0,phase_1,,,,,,,,,,,,,magenta,I
0.0,6.0,0.0,1.0,3.0,3.0,375.9326920001058,2.0,1.0,phase_1,,,,,,,,,,,,,green,triangle
96.0,6.0,1.0,1.0,3.0,3.0,410.5429940000249,2.0,1.0,phase_1,,,,,,,,,,,,,green,triangle
410.0,4.0,4.0,0.0,4.0,4.0,523.4795589999521,2.0,1.0,phase_1,,,,,,,,,,,,,white,flipped triangle
0.0,2.0,0.0,0.0,3.0,3.0,422.6810430000114,2.0,1.0,phase_1,,,,,,,,,,,,,cyan,cross
187.0,7.0,2.0,1.0,4.0,4.0,354.7412489997441,2.0,1.0,phase_1,,,,,,,,,,,,,blue,square
176.0,3.0,2.0,0.0,4.0,4.0,350.5172489999495,2.0,1.0,phase_1,,,,,,,,,,,,,yellow,hexagon
0.0,6.0,0.0,1.0,4.0,4.0,344.7095689998605,2.0,1.0,phase_1,,,,,,,,,,,,,green,triangle
179.0,7.0,2.0,1.0,4.0,4.0,333.3539469999778,2.0,1.0,phase_1,,,,,,,,,,,,,blue,square
95.0,2.0,1.0,0.0,1.0,1.0,386.1299159998452,2.0,1.0,phase_1,,,,,,,,,,,,,cyan,cross
209.0,7.0,2.0,1.0,2.0,2.0,472.0650710000882,2.0,1.0,phase_1,,,,,,,,,,,,,blue,square
0.0,3.0,0.0,0.0,1.0,1.0,506.91921999987244,2.0,1.0,phase_1,,,,,,,,,,,,,yellow,hexagon
384.0,4.0,4.0,0.0,3.0,3.0,346.9418499998937,2.0,1.0,phase_1,,,,,,,,,,,,,white,flipped triangle
179.0,3.0,2.0,0.0,4.0,4.0,370.2246210000339,2.0,1.0,phase_1,,,,,,,,,,,,,yellow,hexagon
196.0,7.0,2.0,1.0,4.0,4.0,501.01188500002536,2.0,1.0,phase_1,,,,,,,,,,,,,blue,square
381.0,4.0,4.0,0.0,1.0,1.0,379.9689990000843,2.0,1.0,phase_1,,,,,,,,,,,,,white,flipped triangle
96.0,6.0,1.0,1.0,1.0,1.0,446.7162920000191,2.0,1.0,phase_1,,,,,,,,,,,,,green,triangle
403.0,8.0,4.0,1.0,4.0,4.0,384.7458230002303,2.0,1.0,phase_1,,,,,,,,,,,,,magenta,I
88.0,2.0,1.0,0.0,1.0,1.0,394.0074659999482,2.0,1.0,phase_1,,,,,,,,,,,,,cyan,cross
101.0,6.0,1.0,1.0,4.0,4.0,421.3732349999191,2.0,1.0,phase_1,,,,,,,,,,,,,green,triangle
74.0,5.0,0.5,1.0,1.0,1.0,393.1987460000528,2.0,1.0,phase_1,,,,,,,,,,,,,gray,circle
381.0,4.0,4.0,0.0,4.0,4.0,333.8616419996469,2.0,1.0,phase_1,,,,,,,,,,,,,white,flipped triangle
420.0,4.0,4.0,0.0,4.0,4.0,375.9475580000071,2.0,2.0,phase_1,,,,,,,,,,,,,white,flipped triangle
0.0,1.0,0.0,0.0,4.0,4.0,395.4080600001362,2.0,1.0,phase_1,,,,,,,,,,,,,orange,diamond
39.0,5.0,0.5,1.0,4.0,4.0,366.3396849997298,2.0,1.0,phase_1,,,,,,,,,,,,,gray,circle
115.0,6.0,1.0,1.0,2.0,2.0,421.833458999572,2.0,1.0,phase_1,,,,,,,,,,,,,green,triangle
71.0,1.0,0.5,0.0,4.0,4.0,389.4515829997544,2.0,1.0,phase_1,,,,,,,,,,,,,orange,diamond
398.0,4.0,4.0,0.0,1.0,1.0,438.0666259999088,2.0,1.0,phase_1,,,,,,,,,,,,,white,flipped triangle
0.0,4.0,0.0,0.0,3.0,3.0,492.9930909997893,2.0,1.0,phase_1,,,,,,,,,,,,,white,flipped triangle
100.0,6.0,1.0,1.0,2.0,2.0,413.9167989997077,2.0,1.0,phase_1,,,,,,,,,,,,,green,triangle
408.0,4.0,4.0,0.0,1.0,1.0,414.6523579997847,2.0,1.0,phase_1,,,,,,,,,,,,,white,flipped triangle
387.0,4.0,4.0,0.0,3.0,3.0,428.9734939998197,2.0,1.0,phase_1,,,,,,,,,,,,,white,flipped triangle
0.0,2.0,0.0,0.0,2.0,2.0,434.3919509997249,2.0,1.0,phase_1,,,,,,,,,,,,,cyan,cross
417.0,8.0,4.0,1.0,1.0,1.0,451.3378810001995,2.0,1.0,phase_1,,,,,,,,,,,,,magenta,I
217.0,3.0,2.0,0.0,3.0,3.0,422.3951219996706,2.0,1.0,phase_1,,,,,,,,,,,,,yellow,hexagon
407.0,4.0,4.0,0.0,4.0,4.0,464.3110140000317,2.0,1.0,phase_1,,,,,,,,,,,,,white,flipped triangle
394.0,8.0,4.0,1.0,1.0,1.0,327.1817080003529,2.0,1.0,phase_1,,,,,,,,,,,,,magenta,I
39.0,1.0,0.5,0.0,1.0,1.0,462.5456740000118,2.0,1.0,phase_1,,,,,,,,,,,,,orange,diamond
93.0,2.0,1.0,0.0,4.0,4.0,471.6806730002645,2.0,1.0,phase_1,,,,,,,,,,,,,cyan,cross
108.0,2.0,1.0,0.0,3.0,3.0,569.8148239998773,2.0,1.0,phase_1,,,,,,,,,,,,,cyan,cross
190.0,3.0,2.0,0.0,1.0,1.0,543.79537099976,2.0,1.0,phase_1,,,,,,,,,,,,,yellow,hexagon
225.0,7.0,2.0,1.0,4.0,4.0,536.2109150000833,2.0,1.0,phase_1,,,,,,,,,,,,,blue,square
206.0,3.0,2.0,0.0,2.0,2.0,388.2936869999867,2.0,1.0,phase_1,,,,,,,,,,,,,yellow,hexagon
31.0,5.0,0.5,1.0,2.0,2.0,501.8939560000035,2.0,1.0,phase_1,,,,,,,,,,,,,gray,circle
105.0,2.0,1.0,0.0,3.0,3.0,449.5452880000812,2.0,1.0,phase_1,,,,,,,,,,,,,cyan,cross
390.0,4.0,4.0,0.0,1.0,1.0,445.6293799999002,2.0,1.0,phase_1,,,,,,,,,,,,,white,flipped triangle
40.0,1.0,0.5,0.0,3.0,3.0,482.514639999863,2.0,1.0,phase_1,,,,,,,,,,,,,orange,diamond
0.0,3.0,0.0,0.0,4.0,4.0,492.8083170002537,2.0,1.0,phase_1,,,,,,,,,,,,,yellow,hexagon
62.0,1.0,0.5,0.0,3.0,3.0,548.6762020000242,2.0,1.0,phase_1,,,,,,,,,,,,,orange,diamond
30.0,1.0,0.5,0.0,4.0,4.0,682.6147880001372,2.0,1.0,phase_1,,,,,,,,,,,,,orange,diamond
0.0,4.0,0.0,0.0,2.0,2.0,525.1403679999385,2.0,1.0,phase_1,,,,,,,,,,,,,white,flipped triangle
27.0,1.0,0.5,0.0,2.0,2.0,420.0191480003923,2.0,1.0,phase_1,,,,,,,,,,,,,orange,diamond
0.0,4.0,0.0,0.0,4.0,4.0,549.9282390001099,2.0,1.0,phase_1,,,,,,,,,,,,,white,flipped triangle
193.0,3.0,2.0,0.0,4.0,4.0,426.25110400013,2.0,1.0,phase_1,,,,,,,,,,,,,yellow,hexagon
79.0,6.0,1.0,1.0,4.0,4.0,412.1647049996682,2.0,1.0,phase_1,,,,,,,,,,,,,green,triangle
72.0,1.0,0.5,0.0,2.0,2.0,481.2652579998939,2.0,1.0,phase_1,,,,,,,,,,,,,orange,diamond
420.0,8.0,4.0,1.0,2.0,2.0,407.476921000125,2.0,1.0,phase_1,,,,,,,,,,,,,magenta,I
0.0,4.0,0.0,0.0,4.0,4.0,381.3622170000599,2.0,1.0,phase_1,,,,,,,,,,,,,white,flipped triangle
118.0,2.0,1.0,0.0,2.0,2.0,419.0525829999387,3.0,1.0,phase_1,,,,,,,,,,,,,cyan,cross
0.0,2.0,0.0,0.0,4.0,4.0,369.4763710000188,3.0,1.0,phase_1,,,,,,,,,,,,,cyan,cross
68.0,1.0,0.5,0.0,1.0,1.0,401.878169000156,3.0,1.0,phase_1,,,,,,,,,,,,,orange,diamond
53.0,5.0,0.5,1.0,2.0,2.0,549.6283560000848,3.0,1.0,phase_1,,,,,,,,,,,,,gray,circle
393.0,8.0,4.0,1.0,2.0,2.0,455.4857039997841,3.0,1.0,phase_1,,,,,,,,,,,,,magenta,I
0.0,3.0,0.0,0.0,4.0,4.0,376.3587429998551,3.0,1.0,phase_1,,,,,,,,,,,,,yellow,hexagon
402.0,4.0,4.0,0.0,1.0,1.0,299.6286110001165,3.0,1.0,phase_1,,,,,,,,,,,,,white,flipped triangle
58.0,1.0,0.5,0.0,3.0,3.0,400.7747269997708,3.0,1.0,phase_1,,,,,,,,,,,,,orange,diamond
0.0,5.0,0.0,1.0,1.0,1.0,365.7893260001401,3.0,1.0,phase_1,,,,,,,,,,,,,gray,circle
33.0,5.0,0.5,1.0,3.0,3.0,345.4242530001465,3.0,1.0,phase_1,,,,,,,,,,,,,gray,circle
0.0,5.0,0.0,1.0,3.0,3.0,334.1331809997427,3.0,1.0,phase_1,,,,,,,,,,,,,gray,circle
68.0,1.0,0.5,0.0,2.0,2.0,384.2868269998689,3.0,1.0,phase_1,,,,,,,,,,,,,orange,diamond
390.0,4.0,4.0,0.0,1.0,1.0,433.0210849998366,3.0,1.0,phase_1,,,,,,,,,,,,,white,flipped triangle
224.0,3.0,2.0,0.0,2.0,2.0,409.5746600000893,3.0,1.0,phase_1,,,,,,,,,,,,,yellow,hexagon
39.0,5.0,0.5,1.0,4.0,4.0,479.2829999996684,3.0,1.0,phase_1,,,,,,,,,,,,,gray,circle
0.0,8.0,0.0,1.0,3.0,3.0,390.6988200001251,3.0,1.0,phase_1,,,,,,,,,,,,,magenta,I
62.0,5.0,0.5,1.0,2.0,2.0,402.4969980000605,3.0,1.0,phase_1,,,,,,,,,,,,,gray,circle
411.0,8.0,4.0,1.0,1.0,1.0,444.4856009999967,3.0,1.0,phase_1,,,,,,,,,,,,,magenta,I
390.0,8.0,4.0,1.0,1.0,1.0,338.227886000368,3.0,1.0,phase_1,,,,,,,,,,,,,magenta,I
176.0,7.0,2.0,1.0,2.0,2.0,443.3089069998459,3.0,2.0,phase_1,,,,,,,,,,,,,blue,square
105.0,2.0,1.0,0.0,3.0,3.0,522.1924639999997,3.0,1.0,phase_1,,,,,,,,,,,,,cyan,cross
40.0,5.0,0.5,1.0,4.0,4.0,454.8880520001148,3.0,1.0,phase_1,,,,,,,,,,,,,gray,circle
95.0,6.0,1.0,1.0,4.0,4.0,400.5546309999772,3.0,1.0,phase_1,,,,,,,,,,,,,green,triangle
54.0,5.0,0.5,1.0,3.0,3.0,604.9165869999342,3.0,1.0,phase_1,,,,,,,,,,,,,gray,circle
105.0,2.0,1.0,0.0,3.0,3.0,476.1817230000815,3.0,1.0,phase_1,,,,,,,,,,,,,cyan,cross
387.0,8.0,4.0,1.0,2.0,2.0,581.6698840003482,3.0,1.0,phase_1,,,,,,,,,,,,,magenta,I
44.0,5.0,0.5,1.0,1.0,1.0,477.9940579996946,3.0,1.0,phase_1,,,,,,,,,,,,,gray,circle
205.0,3.0,2.0,0.0,3.0,3.0,538.2961350001096,3.0,1.0,phase_1,,,,,,,,,,,,,yellow,hexagon
77.0,6.0,1.0,1.0,2.0,2.0,543.220236000252,3.0,1.0,phase_1,,,,,,,,,,,,,green,triangle
0.0,5.0,0.0,1.0,1.0,1.0,528.905782000038,3.0,1.0,phase_1,,,,,,,,,,,,,gray,circle
96.0,2.0,1.0,0.0,3.0,3.0,588.0617759999041,3.0,1.0,phase_1,,,,,,,,,,,,,cyan,cross
27.0,5.0,0.5,1.0,3.0,3.0,487.6430549998076,3.0,1.0,phase_1,,,,,,,,,,,,,gray,circle
108.0,6.0,1.0,1.0,1.0,1.0,444.5028489999458,3.0,1.0,phase_1,,,,,,,,,,,,,green,triangle
190.0,7.0,2.0,1.0,4.0,4.0,512.3004880001645,3.0,1.0,phase_1,,,,,,,,,,,,,blue,square
204.0,7.0,2.0,1.0,2.0,2.0,381.7310790000192,3.0,1.0,phase_1,,,,,,,,,,,,,blue,square
196.0,3.0,2.0,0.0,2.0,2.0,503.22851800001445,3.0,1.0,phase_1,,,,,,,,,,,,,yellow,hexagon
59.0,5.0,0.5,1.0,1.0,1.0,453.5292099999424,3.0,1.0,phase_1,,,,,,,,,,,,,gray,circle
43.0,1.0,0.5,0.0,4.0,4.0,490.3420759997061,3.0,1.0,phase_1,,,,,,,,,,,,,orange,diamond
45.0,1.0,0.5,0.0,4.0,4.0,490.5927849999898,3.0,1.0,phase_1,,,,,,,,,,,,,orange,diamond
103.0,6.0,1.0,1.0,4.0,4.0,482.6945149998209,3.0,1.0,phase_1,,,,,,,,,,,,,green,triangle
204.0,3.0,2.0,0.0,3.0,3.0,678.733579999971,3.0,1.0,phase_1,,,,,,,,,,,,,yellow,hexagon
202.0,7.0,2.0,1.0,2.0,2.0,573.6256479999611,3.0,1.0,phase_1,,,,,,,,,,,,,blue,square
86.0,2.0,1.0,0.0,4.0,4.0,470.7097040000008,3.0,1.0,phase_1,,,,,,,,,,,,,cyan,cross
0.0,7.0,0.0,1.0,3.0,3.0,495.6845359997714,3.0,1.0,phase_1,,,,,,,,,,,,,blue,square
196.0,3.0,2.0,0.0,3.0,3.0,584.0876399997796,3.0,1.0,phase_1,,,,,,,,,,,,,yellow,hexagon
0.0,8.0,0.0,1.0,1.0,1.0,731.5992550002193,3.0,1.0,phase_1,,,,,,,,,,,,,magenta,I
0.0,7.0,0.0,1.0,3.0,3.0,578.6302189999333,3.0,1.0,phase_1,,,,,,,,,,,,,blue,square
0.0,5.0,0.0,1.0,4.0,4.0,486.463523999646,3.0,1.0,phase_1,,,,,,,,,,,,,gray,circle
86.0,6.0,1.0,1.0,3.0,3.0,584.5381799999814,3.0,1.0,phase_1,,,,,,,,,,,,,green,triangle
115.0,6.0,1.0,1.0,1.0,1.0,557.9162760000145,3.0,1.0,phase_1,,,,,,,,,,,,,green,triangle
121.0,6.0,1.0,1.0,1.0,1.0,492.5852500000474,3.0,1.0,phase_1,,,,,,,,,,,,,green,triangle
0.0,8.0,0.0,1.0,4.0,4.0,445.6192689999625,3.0,1.0,phase_1,,,,,,,,,,,,,magenta,I
198.0,3.0,2.0,0.0,3.0,3.0,485.8254219998343,3.0,1.0,phase_1,,,,,,,,,,,,,yellow,hexagon
81.0,6.0,1.0,1.0,1.0,1.0,548.1272209999588,3.0,1.0,phase_1,,,,,,,,,,,,,green,triangle
398.0,8.0,4.0,1.0,1.0,1.0,497.3288330002106,3.0,1.0,phase_1,,,,,,,,,,,,,magenta,I
205.0,3.0,2.0,0.0,3.0,3.0,499.0053679998709,3.0,1.0,phase_1,,,,,,,,,,,,,yellow,hexagon
191.0,7.0,2.0,1.0,1.0,1.0,519.645429999855,3.0,1.0,phase_1,,,,,,,,,,,,,blue,square
0.0,2.0,0.0,0.0,2.0,2.0,511.9520640000701,3.0,1.0,phase_1,,,,,,,,,,,,,cyan,cross
0.0,2.0,0.0,0.0,4.0,4.0,459.6684439998171,3.0,1.0,phase_1,,,,,,,,,,,,,cyan,cross
79.0,2.0,1.0,0.0,3.0,3.0,570.8827990001737,3.0,1.0,phase_1,,,,,,,,,,,,,cyan,cross
191.0,3.0,2.0,0.0,2.0,2.0,404.8458550000759,3.0,1.0,phase_1,,,,,,,,,,,,,yellow,hexagon
398.0,4.0,4.0,0.0,2.0,2.0,425.7721909998508,3.0,1.0,phase_1,,,,,,,,,,,,,white,flipped triangle
114.0,6.0,1.0,1.0,3.0,3.0,357.6657300000079,3.0,1.0,phase_1,,,,,,,,,,,,,green,triangle
403.0,4.0,4.0,0.0,2.0,2.0,466.0465990000375,3.0,1.0,phase_1,,,,,,,,,,,,,white,flipped triangle
36.0,5.0,0.5,1.0,1.0,1.0,519.1175090003526,3.0,1.0,phase_1,,,,,,,,,,,,,gray,circle
223.0,7.0,2.0,1.0,2.0,2.0,436.85608900023,3.0,1.0,phase_1,,,,,,,,,,,,,blue,square
77.0,2.0,1.0,0.0,2.0,2.0,434.5739210002648,3.0,1.0,phase_1,,,,,,,,,,,,,cyan,cross
88.0,6.0,1.0,1.0,2.0,2.0,445.4352610000569,3.0,1.0,phase_1,,,,,,,,,,,,,green,triangle
0.0,8.0,0.0,1.0,1.0,1.0,487.2409159997914,3.0,1.0,phase_1,,,,,,,,,,,,,magenta,I
381.0,8.0,4.0,1.0,4.0,4.0,530.8605760001228,3.0,1.0,phase_1,,,,,,,,,,,,,magenta,I
81.0,2.0,1.0,0.0,4.0,4.0,510.4052890001185,3.0,1.0,phase_1,,,,,,,,,,,,,cyan,cross
418.0,4.0,4.0,0.0,2.0,2.0,479.9465860000964,3.0,1.0,phase_1,,,,,,,,,,,,,white,flipped triangle
115.0,2.0,1.0,0.0,4.0,4.0,548.4173179997924,3.0,1.0,phase_1,,,,,,,,,,,,,cyan,cross
59.0,1.0,0.5,0.0,1.0,1.0,578.5444390003249,3.0,1.0,phase_1,,,,,,,,,,,,,orange,diamond
0.0,7.0,0.0,1.0,2.0,2.0,400.1333080000222,3.0,1.0,phase_1,,,,,,,,,,,,,blue,square
33.0,5.0,0.5,1.0,3.0,3.0,470.6781290001345,3.0,1.0,phase_1,,,,,,,,,,,,,gray,circle
59.0,1.0,0.5,0.0,3.0,3.0,471.8785810000554,3.0,1.0,phase_1,,,,,,,,,,,,,orange,diamond
377.0,4.0,4.0,0.0,3.0,3.0,414.9634620002871,3.0,1.0,phase_1,,,,,,,,,,,,,white,flipped triangle
0.0,4.0,0.0,0.0,3.0,3.0,562.5815120001789,3.0,1.0,phase_1,,,,,,,,,,,,,white,flipped triangle
205.0,7.0,2.0,1.0,2.0,2.0,489.7240810000767,3.0,1.0,phase_1,,,,,,,,,,,,,blue,square
45.0,5.0,0.5,1.0,4.0,4.0,467.4906539999028,3.0,1.0,phase_1,,,,,,,,,,,,,gray,circle
0.0,6.0,0.0,1.0,3.0,3.0,392.4282229995697,3.0,1.0,phase_1,,,,,,,,,,,,,green,triangle
44.0,1.0,0.5,0.0,2.0,2.0,466.5749989999312,3.0,1.0,phase_1,,,,,,,,,,,,,orange,diamond
89.0,6.0,1.0,1.0,2.0,2.0,450.4692220002653,3.0,1.0,phase_1,,,,,,,,,,,,,green,triangle
412.0,8.0,4.0,1.0,4.0,4.0,540.2774350000072,3.0,1.0,phase_1,,,,,,,,,,,,,magenta,I
177.0,3.0,2.0,0.0,1.0,1.0,407.4400760000571,3.0,1.0,phase_1,,,,,,,,,,,,,yellow,hexagon
91.0,6.0,1.0,1.0,1.0,1.0,442.0952870000292,3.0,1.0,phase_1,,,,,,,,,,,,,green,triangle
204.0,7.0,2.0,1.0,3.0,3.0,526.8581189998258,3.0,1.0,phase_1,,,,,,,,,,,,,blue,square
217.0,3.0,2.0,0.0,3.0,3.0,525.3700339999341,3.0,1.0,phase_1,,,,,,,,,,,,,yellow,hexagon
105.0,6.0,1.0,1.0,3.0,3.0,416.3585850001254,3.0,1.0,phase_1,,,,,,,,,,,,,green,triangle
0.0,3.0,0.0,0.0,4.0,4.0,772.1702910002932,3.0,1.0,phase_1,,,,,,,,,,,,,yellow,hexagon
211.0,7.0,2.0,1.0,1.0,1.0,541.1962230000427,3.0,1.0,phase_1,,,,,,,,,,,,,blue,square
78.0,2.0,1.0,0.0,4.0,4.0,553.7823380000191,3.0,1.0,phase_1,,,,,,,,,,,,,cyan,cross
41.0,1.0,0.5,0.0,1.0,1.0,472.4627250002413,3.0,1.0,phase_1,,,,,,,,,,,,,orange,diamond
424.0,4.0,4.0,0.0,3.0,3.0,557.5286029998097,3.0,1.0,phase_1,,,,,,,,,,,,,white,flipped triangle
98.0,2.0,1.0,0.0,2.0,2.0,615.0400859996807,3.0,1.0,phase_1,,,,,,,,,,,,,cyan,cross
416.0,4.0,4.0,0.0,3.0,3.0,715.3525859998808,3.0,1.0,phase_1,,,,,,,,,,,,,white,flipped triangle
32.0,5.0,0.5,1.0,4.0,4.0,573.9704390002771,3.0,1.0,phase_1,,,,,,,,,,,,,gray,circle
377.0,8.0,4.0,1.0,3.0,3.0,572.1549250001772,3.0,1.0,phase_1,,,,,,,,,,,,,magenta,I
185.0,3.0,2.0,0.0,2.0,2.0,635.8116050000717,3.0,1.0,phase_1,,,,,,,,,,,,,yellow,hexagon
183.0,7.0,2.0,1.0,4.0,4.0,560.9449450003012,4.0,1.0,phase_1,,,,,,,,,,,,,blue,square
384.0,8.0,4.0,1.0,3.0,3.0,382.5984720001543,4.0,1.0,phase_1,,,,,,,,,,,,,magenta,I
39.0,1.0,0.5,0.0,2.0,2.0,395.982283000194,4.0,1.0,phase_1,,,,,,,,,,,,,orange,diamond
0.0,8.0,0.0,1.0,1.0,1.0,429.6906220001801,4.0,1.0,phase_1,,,,,,,,,,,,,magenta,I
400.0,4.0,4.0,0.0,2.0,2.0,447.2393529999863,4.0,1.0,phase_1,,,,,,,,,,,,,white,flipped triangle
0.0,4.0,0.0,0.0,2.0,2.0,418.1188620000284,4.0,1.0,phase_1,,,,,,,,,,,,,white,flipped triangle
122.0,2.0,1.0,0.0,1.0,1.0,428.3385120002094,4.0,1.0,phase_1,,,,,,,,,,,,,cyan,cross
177.0,3.0,2.0,0.0,1.0,1.0,373.2253020002645,4.0,1.0,phase_1,,,,,,,,,,,,,yellow,hexagon
0.0,6.0,0.0,1.0,4.0,4.0,420.4028750000361,4.0,1.0,phase_1,,,,,,,,,,,,,green,triangle
200.0,7.0,2.0,1.0,1.0,1.0,374.6062229997733,4.0,1.0,phase_1,,,,,,,,,,,,,blue,square
0.0,4.0,0.0,0.0,2.0,2.0,403.1519599998319,4.0,1.0,phase_1,,,,,,,,,,,,,white,flipped triangle
0.0,8.0,0.0,1.0,3.0,3.0,397.5192760003665,4.0,1.0,phase_1,,,,,,,,,,,,,magenta,I
408.0,8.0,4.0,1.0,2.0,2.0,368.0100520000451,4.0,1.0,phase_1,,,,,,,,,,,,,magenta,I
36.0,1.0,0.5,0.0,2.0,2.0,404.9263420001807,4.0,1.0,phase_1,,,,,,,,,,,,,orange,diamond
393.0,4.0,4.0,0.0,3.0,3.0,478.695489999609,4.0,1.0,phase_1,,,,,,,,,,,,,white,flipped triangle
104.0,6.0,1.0,1.0,4.0,4.0,487.4703579998822,4.0,1.0,phase_1,,,,,,,,,,,,,green,triangle
96.0,2.0,1.0,0.0,2.0,2.0,441.337294999812,4.0,1.0,phase_1,,,,,,,,,,,,,cyan,cross
188.0,7.0,2.0,1.0,4.0,4.0,447.5771780003015,4.0,1.0,phase_1,,,,,,,,,,,,,blue,square
407.0,8.0,4.0,1.0,1.0,1.0,325.0899649997336,4.0,1.0,phase_1,,,,,,,,,,,,,magenta,I
71.0,5.0,0.5,1.0,3.0,3.0,405.5599790003725,4.0,1.0,phase_1,,,,,,,,,,,,,gray,circle
55.0,5.0,0.5,1.0,3.0,3.0,461.4681299999574,4.0,1.0,phase_1,,,,,,,,,,,,,gray,circle
118.0,6.0,1.0,1.0,4.0,4.0,439.480327000183,4.0,1.0,phase_1,,,,,,,,,,,,,green,triangle
73.0,5.0,0.5,1.0,3.0,3.0,452.9052299999421,4.0,1.0,phase_1,,,,,,,,,,,,,gray,circle
196.0,7.0,2.0,1.0,1.0,1.0,572.6689160001115,4.0,1.0,phase_1,,,,,,,,,,,,,blue,square
395.0,8.0,4.0,1.0,3.0,3.0,477.5704749999931,4.0,1.0,phase_1,,,,,,,,,,,,,magenta,I
0.0,5.0,0.0,1.0,4.0,4.0,532.8066760002912,4.0,1.0,phase_1,,,,,,,,,,,,,gray,circle
398.0,8.0,4.0,1.0,3.0,3.0,532.8186860001551,4.0,1.0,phase_1,,,,,,,,,,,,,magenta,I
0.0,7.0,0.0,1.0,2.0,2.0,393.9469450001525,4.0,1.0,phase_1,,,,,,,,,,,,,blue,square
115.0,6.0,1.0,1.0,2.0,2.0,460.1275140003054,4.0,1.0,phase_1,,,,,,,,,,,,,green,triangle
210.0,3.0,2.0,0.0,4.0,4.0,439.0131540003494,4.0,1.0,phase_1,,,,,,,,,,,,,yellow,hexagon
65.0,1.0,0.5,0.0,3.0,3.0,487.4537619998591,4.0,1.0,phase_1,,,,,,,,,,,,,orange,diamond
383.0,4.0,4.0,0.0,2.0,2.0,404.0818130001753,4.0,1.0,phase_1,,,,,,,,,,,,,white,flipped triangle
33.0,1.0,0.5,0.0,4.0,4.0,457.0377669997469,4.0,1.0,phase_1,,,,,,,,,,,,,orange,diamond
122.0,6.0,1.0,1.0,2.0,2.0,365.1794600000357,4.0,1.0,phase_1,,,,,,,,,,,,,green,triangle
418.0,8.0,4.0,1.0,4.0,4.0,501.0215350002909,4.0,1.0,phase_1,,,,,,,,,,,,,magenta,I
377.0,8.0,4.0,1.0,2.0,2.0,568.6583310002788,4.0,1.0,phase_1,,,,,,,,,,,,,magenta,I
176.0,3.0,2.0,0.0,4.0,4.0,429.4983670001784,4.0,1.0,phase_1,,,,,,,,,,,,,yellow,hexagon
200.0,3.0,2.0,0.0,3.0,3.0,478.6832310001045,4.0,1.0,phase_1,,,,,,,,,,,,,yellow,hexagon
49.0,5.0,0.5,1.0,2.0,2.0,362.7049750002697,4.0,1.0,phase_1,,,,,,,,,,,,,gray,circle
415.0,4.0,4.0,0.0,1.0,1.0,508.11710700008916,4.0,2.0,phase_1,,,,,,,,,,,,,white,flipped triangle
215.0,3.0,2.0,0.0,4.0,4.0,469.5786220004265,4.0,1.0,phase_1,,,,,,,,,,,,,yellow,hexagon
183.0,7.0,2.0,1.0,2.0,2.0,428.210609999951,4.0,1.0,phase_1,,,,,,,,,,,,,blue,square
0.0,1.0,0.0,0.0,3.0,3.0,529.1543179996552,4.0,1.0,phase_1,,,,,,,,,,,,,orange,diamond
379.0,8.0,4.0,1.0,1.0,1.0,385.7692230003522,4.0,1.0,phase_1,,,,,,,,,,,,,magenta,I
0.0,7.0,0.0,1.0,1.0,1.0,514.7673879996546,4.0,1.0,phase_1,,,,,,,,,,,,,blue,square
36.0,5.0,0.5,1.0,2.0,2.0,508.4348579998732,4.0,1.0,phase_1,,,,,,,,,,,,,gray,circle
183.0,3.0,2.0,0.0,1.0,1.0,422.4538430003122,4.0,1.0,phase_1,,,,,,,,,,,,,yellow,hexagon
0.0,8.0,0.0,1.0,3.0,3.0,506.82989400002043,4.0,1.0,phase_1,,,,,,,,,,,,,magenta,I
0.0,2.0,0.0,0.0,4.0,4.0,588.6276749997705,4.0,2.0,phase_1,,,,,,,,,,,,,cyan,cross
36.0,1.0,0.5,0.0,4.0,4.0,475.9939979999217,4.0,1.0,phase_1,,,,,,,,,,,,,orange,diamond
100.0,2.0,1.0,0.0,3.0,3.0,448.8539760000094,4.0,1.0,phase_1,,,,,,,,,,,,,cyan,cross
53.0,1.0,0.5,0.0,2.0,2.0,420.1508280002599,4.0,1.0,phase_1,,,,,,,,,,,,,orange,diamond
34.0,1.0,0.5,0.0,2.0,2.0,468.635680999796,4.0,1.0,phase_1,,,,,,,,,,,,,orange,diamond
200.0,7.0,2.0,1.0,1.0,1.0,576.669163999668,4.0,1.0,phase_1,,,,,,,,,,,,,blue,square
56.0,1.0,0.5,0.0,4.0,4.0,647.204383999906,4.0,1.0,phase_1,,,,,,,,,,,,,orange,diamond
112.0,2.0,1.0,0.0,1.0,1.0,531.5959479999037,4.0,1.0,phase_1,,,,,,,,,,,,,cyan,cross
98.0,6.0,1.0,1.0,3.0,3.0,432.9887500002769,4.0,1.0,phase_1,,,,,,,,,,,,,green,triangle
65.0,5.0,0.5,1.0,4.0,4.0,607.4909970002409,4.0,1.0,phase_1,,,,,,,,,,,,,gray,circle
398.0,8.0,4.0,1.0,4.0,4.0,681.8584740003644,4.0,1.0,phase_1,,,,,,,,,,,,,magenta,I
214.0,7.0,2.0,1.0,2.0,2.0,576.4922819998901,4.0,1.0,phase_1,,,,,,,,,,,,,blue,square
178.0,7.0,2.0,1.0,2.0,2.0,620.241002000057,4.0,1.0,phase_1,,,,,,,,,,,,,blue,square
0.0,2.0,0.0,0.0,4.0,4.0,573.901621999994,4.0,1.0,phase_1,,,,,,,,,,,,,cyan,cross
0.0,6.0,0.0,1.0,2.0,2.0,442.73203000011557,4.0,1.0,phase_1,,,,,,,,,,,,,green,triangle
119.0,2.0,1.0,0.0,1.0,1.0,524.4977479997033,4.0,1.0,phase_1,,,,,,,,,,,,,cyan,cross
187.0,3.0,2.0,0.0,4.0,4.0,490.1681960000132,4.0,1.0,phase_1,,,,,,,,,,,,,yellow,hexagon
217.0,7.0,2.0,1.0,3.0,3.0,689.850863999709,4.0,1.0,phase_1,,,,,,,,,,,,,blue,square
0.0,4.0,0.0,0.0,1.0,1.0,483.0350710003586,4.0,1.0,phase_1,,,,,,,,,,,,,white,flipped triangle
395.0,4.0,4.0,0.0,4.0,4.0,334.4935280001664,4.0,1.0,phase_1,,,,,,,,,,,,,white,flipped triangle
386.0,4.0,4.0,0.0,3.0,3.0,499.5084360002693,4.0,1.0,phase_1,,,,,,,,,,,,,white,flipped triangle
78.0,6.0,1.0,1.0,4.0,4.0,492.8308339999603,4.0,1.0,phase_1,,,,,,,,,,,,,green,triangle
409.0,8.0,4.0,1.0,3.0,3.0,513.5100210000019,4.0,1.0,phase_1,,,,,,,,,,,,,magenta,I
119.0,6.0,1.0,1.0,3.0,3.0,459.2231589999755,4.0,1.0,phase_1,,,,,,,,,,,,,green,triangle
194.0,3.0,2.0,0.0,3.0,3.0,538.1000239999594,4.0,1.0,phase_1,,,,,,,,,,,,,yellow,hexagon
104.0,2.0,1.0,0.0,4.0,4.0,488.0640939995828,4.0,1.0,phase_1,,,,,,,,,,,,,cyan,cross
111.0,6.0,1.0,1.0,4.0,4.0,524.6995520001292,4.0,1.0,phase_1,,,,,,,,,,,,,green,triangle
215.0,7.0,2.0,1.0,4.0,4.0,557.5335700000323,4.0,1.0,phase_1,,,,,,,,,,,,,blue,square
32.0,1.0,0.5,0.0,4.0,4.0,507.0706080000491,4.0,1.0,phase_1,,,,,,,,,,,,,orange,diamond
33.0,1.0,0.5,0.0,3.0,3.0,502.9673349999939,4.0,1.0,phase_1,,,,,,,,,,,,,orange,diamond
384.0,4.0,4.0,0.0,3.0,3.0,630.8513349999885,4.0,1.0,phase_1,,,,,,,,,,,,,white,flipped triangle
62.0,5.0,0.5,1.0,1.0,1.0,568.1256509997183,4.0,1.0,phase_1,,,,,,,,,,,,,gray,circle
206.0,7.0,2.0,1.0,1.0,1.0,524.5271809999394,4.0,1.0,phase_1,,,,,,,,,,,,,blue,square
0.0,7.0,0.0,1.0,2.0,2.0,618.7274990002152,4.0,1.0,phase_1,,,,,,,,,,,,,blue,square
418.0,4.0,4.0,0.0,2.0,2.0,697.3300810000183,4.0,1.0,phase_1,,,,,,,,,,,,,white,flipped triangle
188.0,7.0,2.0,1.0,3.0,3.0,701.7127519998212,4.0,1.0,phase_1,,,,,,,,,,,,,blue,square
418.0,8.0,4.0,1.0,3.0,3.0,409.4494240002859,4.0,1.0,phase_1,,,,,,,,,,,,,magenta,I
114.0,2.0,1.0,0.0,1.0,1.0,620.6148460000804,4.0,1.0,phase_1,,,,,,,,,,,,,cyan,cross
398.0,4.0,4.0,0.0,3.0,3.0,444.9471439997978,4.0,1.0,phase_1,,,,,,,,,,,,,white,flipped triangle
0.0,1.0,0.0,0.0,1.0,1.0,517.2554629998558,4.0,1.0,phase_1,,,,,,,,,,,,,orange,diamond
0.0,4.0,0.0,0.0,2.0,2.0,355.2999329999693,4.0,1.0,phase_1,,,,,,,,,,,,,white,flipped triangle
424.0,8.0,4.0,1.0,4.0,4.0,442.44843999968,4.0,1.0,phase_1,,,,,,,,,,,,,magenta,I
63.0,5.0,0.5,1.0,1.0,1.0,439.1810530000839,4.0,1.0,phase_1,,,,,,,,,,,,,gray,circle
221.0,3.0,2.0,0.0,2.0,2.0,543.7101990000883,4.0,1.0,phase_1,,,,,,,,,,,,,yellow,hexagon
0.0,8.0,0.0,1.0,4.0,4.0,528.9271809997445,4.0,1.0,phase_1,,,,,,,,,,,,,magenta,I
219.0,7.0,2.0,1.0,1.0,1.0,491.0904450002817,4.0,1.0,phase_1,,,,,,,,,,,,,blue,square
99.0,6.0,1.0,1.0,1.0,1.0,530.5993039996793,4.0,1.0,phase_1,,,,,,,,,,,,,green,triangle
200.0,3.0,2.0,0.0,1.0,1.0,508.35926599984305,4.0,1.0,phase_1,,,,,,,,,,,,,yellow,hexagon
121.0,2.0,1.0,0.0,1.0,1.0,523.8065329999699,4.0,1.0,phase_1,,,,,,,,,,,,,cyan,cross
0.0,1.0,0.0,0.0,3.0,3.0,605.3449979999641,4.0,1.0,phase_1,,,,,,,,,,,,,orange,diamond
385.0,4.0,4.0,0.0,2.0,2.0,459.1060029997607,4.0,1.0,phase_1,,,,,,,,,,,,,white,flipped triangle
210.0,7.0,2.0,1.0,3.0,3.0,448.6056569999164,4.0,1.0,phase_1,,,,,,,,,,,,,blue,square
0.0,6.0,1.0,1.0,5.0,5.0,454.7732400001223,1.0,1.0,phase_2,stop,250.0,250.0,3.0,,,,,,,,,green,triangle
0.0,4.0,4.0,0.0,6.0,6.0,737.6039739997395,1.0,1.0,phase_2,go,200.0,250.0,1.0,,,,,,,,,white,flipped triangle
0.0,2.0,1.0,0.0,5.0,5.0,675.2250270001241,1.0,1.0,phase_2,go,200.0,250.0,1.0,,,,,,,,,cyan,cross
0.0,5.0,0.5,1.0,5.0,0.0,0.0,1.0,1.0,phase_2,stop,200.0,250.0,4.0,,,,,,,,,gray,circle
0.0,8.0,4.0,1.0,6.0,0.0,0.0,1.0,1.0,phase_2,stop,250.0,250.0,4.0,,,,,,,,,magenta,I
0.0,4.0,4.0,0.0,6.0,6.0,607.9755730002034,1.0,1.0,phase_2,go,250.0,300.0,1.0,,,,,,,,,white,flipped triangle
0.0,7.0,2.0,1.0,5.0,0.0,0.0,1.0,1.0,phase_2,stop,250.0,300.0,4.0,,,,,,,,,blue,square
0.0,7.0,2.0,1.0,5.0,0.0,0.0,1.0,1.0,phase_2,stop,300.0,300.0,4.0,,,,,,,,,blue,square
0.0,2.0,1.0,0.0,5.0,5.0,661.3510639999731,1.0,1.0,phase_2,go,350.0,300.0,1.0,,,,,,,,,cyan,cross
0.0,4.0,4.0,0.0,6.0,6.0,835.0301870000294,1.0,1.0,phase_2,go,350.0,300.0,1.0,,,,,,,,,white,flipped triangle
0.0,3.0,2.0,0.0,5.0,5.0,683.6435720001646,1.0,1.0,phase_2,go,350.0,300.0,1.0,,,,,,,,,yellow,hexagon
0.0,8.0,4.0,1.0,6.0,0.0,0.0,1.0,1.0,phase_2,stop,350.0,300.0,4.0,,,,,,,,,magenta,I
0.0,8.0,4.0,1.0,5.0,0.0,0.0,1.0,1.0,phase_2,stop,350.0,350.0,4.0,,,,,,,,,magenta,I
0.0,2.0,1.0,0.0,5.0,5.0,691.9094159998167,1.0,1.0,phase_2,go,400.0,350.0,1.0,,,,,,,,,cyan,cross
0.0,4.0,4.0,0.0,6.0,6.0,699.5120729998234,1.0,1.0,phase_2,go,400.0,350.0,1.0,,,,,,,,,white,flipped triangle
0.0,3.0,2.0,0.0,5.0,5.0,536.4461059998575,1.0,1.0,phase_2,go,400.0,350.0,1.0,,,,,,,,,yellow,hexagon
0.0,1.0,0.5,0.0,5.0,5.0,775.122802000169,1.0,1.0,phase_2,go,400.0,350.0,1.0,,,,,,,,,orange,diamond
0.0,1.0,0.5,0.0,6.0,6.0,559.9373860000014,1.0,1.0,phase_2,go,400.0,350.0,1.0,,,,,,,,,orange,diamond
0.0,8.0,4.0,1.0,6.0,0.0,0.0,1.0,1.0,phase_2,stop,400.0,350.0,4.0,,,,,,,,,magenta,I
0.0,1.0,0.5,0.0,5.0,5.0,629.2608920002749,1.0,1.0,phase_2,go,400.0,400.0,1.0,,,,,,,,,orange,diamond
0.0,2.0,1.0,0.0,6.0,6.0,740.2920730000915,1.0,1.0,phase_2,go,400.0,400.0,1.0,,,,,,,,,cyan,cross
0.0,6.0,1.0,1.0,6.0,0.0,0.0,1.0,1.0,phase_2,stop,400.0,400.0,4.0,,,,,,,,,green,triangle
0.0,6.0,1.0,1.0,6.0,0.0,0.0,1.0,1.0,phase_2,stop,400.0,450.0,4.0,,,,,,,,,green,triangle
0.0,8.0,4.0,1.0,5.0,0.0,0.0,1.0,1.0,phase_2,stop,400.0,500.0,4.0,,,,,,,,,magenta,I
0.0,3.0,2.0,0.0,6.0,6.0,580.9858610000447,1.0,1.0,phase_2,go,450.0,500.0,1.0,,,,,,,,,yellow,hexagon
0.0,7.0,2.0,1.0,6.0,0.0,0.0,1.0,1.0,phase_2,stop,450.0,500.0,4.0,,,,,,,,,blue,square
0.0,1.0,0.5,0.0,5.0,5.0,683.3619310000358,1.0,1.0,phase_2,go,450.0,550.0,1.0,,,,,,,,,orange,diamond
0.0,3.0,2.0,0.0,6.0,6.0,837.2580500004005,1.0,1.0,phase_2,go,450.0,550.0,1.0,,,,,,,,,yellow,hexagon
0.0,1.0,0.5,0.0,5.0,5.0,1029.6657310000228,1.0,1.0,phase_2,go,450.0,550.0,1.0,,,,,,,,,orange,diamond
0.0,3.0,2.0,0.0,5.0,5.0,614.8651819999031,1.0,1.0,phase_2,go,450.0,550.0,1.0,,,,,,,,,yellow,hexagon
0.0,6.0,1.0,1.0,6.0,6.0,585.7462699996177,1.0,1.0,phase_2,stop,450.0,550.0,3.0,,,,,,,,,green,triangle
0.0,1.0,0.5,0.0,5.0,5.0,874.1018880000411,1.0,1.0,phase_2,go,450.0,500.0,1.0,,,,,,,,,orange,diamond
0.0,5.0,0.5,1.0,5.0,0.0,0.0,1.0,1.0,phase_2,stop,450.0,500.0,4.0,,,,,,,,,gray,circle
0.0,8.0,4.0,1.0,6.0,0.0,0.0,1.0,1.0,phase_2,stop,500.0,500.0,4.0,,,,,,,,,magenta,I
0.0,1.0,0.5,0.0,6.0,6.0,794.3933650003601,1.0,1.0,phase_2,go,500.0,550.0,1.0,,,,,,,,,orange,diamond
0.0,6.0,1.0,1.0,6.0,0.0,0.0,1.0,1.0,phase_2,stop,500.0,550.0,4.0,,,,,,,,,green,triangle
0.0,2.0,1.0,0.0,5.0,5.0,1003.7810160001754,2.0,1.0,phase_2,go,500.0,600.0,1.0,,,,,,,,,cyan,cross
0.0,2.0,1.0,0.0,5.0,5.0,346.0672699998213,2.0,1.0,phase_2,go,500.0,600.0,1.0,,,,,,,,,cyan,cross
0.0,7.0,2.0,1.0,5.0,5.0,354.3485170002896,2.0,1.0,phase_2,go,500.0,600.0,1.0,,,,,,,,,blue,square
0.0,5.0,0.5,1.0,5.0,5.0,424.684846999753,2.0,1.0,phase_2,stop,500.0,600.0,3.0,,,,,,,,,gray,circle
0.0,1.0,0.5,0.0,6.0,6.0,750.6810970003244,2.0,1.0,phase_2,go,450.0,600.0,1.0,,,,,,,,,orange,diamond
0.0,3.0,2.0,0.0,6.0,6.0,448.4642990000793,2.0,1.0,phase_2,go,450.0,600.0,1.0,,,,,,,,,yellow,hexagon
0.0,5.0,0.5,1.0,5.0,5.0,549.5447000002969,2.0,1.0,phase_2,stop,450.0,600.0,3.0,,,,,,,,,gray,circle
0.0,8.0,4.0,1.0,5.0,0.0,0.0,2.0,1.0,phase_2,stop,400.0,600.0,4.0,,,,,,,,,magenta,I
0.0,4.0,4.0,0.0,5.0,5.0,656.1041029999615,2.0,1.0,phase_2,go,450.0,600.0,1.0,,,,,,,,,white,flipped triangle
0.0,1.0,0.5,0.0,6.0,6.0,408.9687179998691,2.0,1.0,phase_2,go,450.0,600.0,1.0,,,,,,,,,orange,diamond
0.0,8.0,4.0,1.0,5.0,0.0,0.0,2.0,1.0,phase_2,stop,450.0,600.0,4.0,,,,,,,,,magenta,I
0.0,5.0,0.5,1.0,5.0,5.0,690.9323300001233,2.0,1.0,phase_2,go,500.0,600.0,1.0,,,,,,,,,gray,circle
0.0,1.0,0.5,0.0,6.0,6.0,524.6870930000114,2.0,1.0,phase_2,go,500.0,600.0,1.0,,,,,,,,,orange,diamond
0.0,2.0,1.0,0.0,6.0,6.0,495.7683150000775,2.0,1.0,phase_2,go,500.0,600.0,1.0,,,,,,,,,cyan,cross
0.0,7.0,2.0,1.0,5.0,5.0,680.7467660000839,2.0,1.0,phase_2,go,500.0,600.0,1.0,,,,,,,,,blue,square
0.0,5.0,0.5,1.0,6.0,6.0,501.37421199997334,2.0,1.0,phase_2,stop,500.0,600.0,3.0,,,,,,,,,gray,circle
0.0,8.0,4.0,1.0,5.0,0.0,0.0,2.0,1.0,phase_2,stop,500.0,550.0,4.0,,,,,,,,,magenta,I
0.0,4.0,4.0,0.0,5.0,5.0,750.9533379998174,2.0,1.0,phase_2,go,550.0,550.0,1.0,,,,,,,,,white,flipped triangle
0.0,4.0,4.0,0.0,5.0,5.0,745.5843839998124,2.0,1.0,phase_2,go,550.0,550.0,1.0,,,,,,,,,white,flipped triangle
0.0,6.0,1.0,1.0,5.0,5.0,453.4744309999041,2.0,1.0,phase_2,go,550.0,550.0,1.0,,,,,,,,,green,triangle
0.0,7.0,2.0,1.0,5.0,5.0,679.3255400002636,2.0,1.0,phase_2,stop,550.0,550.0,3.0,,,,,,,,,blue,square
0.0,5.0,0.5,1.0,6.0,0.0,0.0,2.0,1.0,phase_2,stop,500.0,550.0,4.0,,,,,,,,,gray,circle
0.0,3.0,2.0,0.0,5.0,5.0,781.0085589999289,2.0,1.0,phase_2,go,500.0,600.0,1.0,,,,,,,,,yellow,hexagon
0.0,3.0,2.0,0.0,6.0,6.0,896.41190500015,2.0,1.0,phase_2,go,500.0,600.0,1.0,,,,,,,,,yellow,hexagon
0.0,5.0,0.5,1.0,6.0,0.0,0.0,2.0,1.0,phase_2,stop,500.0,600.0,4.0,,,,,,,,,gray,circle
0.0,7.0,2.0,1.0,5.0,0.0,0.0,2.0,1.0,phase_2,stop,500.0,650.0,4.0,,,,,,,,,blue,square
0.0,7.0,2.0,1.0,6.0,6.0,627.011906000007,2.0,1.0,phase_2,stop,550.0,650.0,3.0,,,,,,,,,blue,square
0.0,5.0,0.5,1.0,6.0,6.0,912.2942300000432,2.0,1.0,phase_2,go,550.0,600.0,1.0,,,,,,,,,gray,circle
0.0,8.0,4.0,1.0,6.0,6.0,1127.586245999737,2.0,1.0,phase_2,go,550.0,600.0,1.0,,,,,,,,,magenta,I
0.0,8.0,4.0,1.0,5.0,5.0,863.7197529997138,2.0,1.0,phase_2,go,550.0,600.0,1.0,,,,,,,,,magenta,I
0.0,4.0,4.0,0.0,6.0,6.0,685.7192330003272,2.0,1.0,phase_2,go,550.0,600.0,1.0,,,,,,,,,white,flipped triangle
0.0,6.0,1.0,1.0,5.0,0.0,0.0,2.0,1.0,phase_2,stop,550.0,600.0,4.0,,,,,,,,,green,triangle
0.0,8.0,4.0,1.0,5.0,5.0,870.2303489999395,2.0,1.0,phase_2,go,600.0,600.0,1.0,,,,,,,,,magenta,I
0.0,6.0,1.0,1.0,6.0,6.0,784.6173210000416,2.0,1.0,phase_2,go,600.0,600.0,1.0,,,,,,,,,green,triangle
0.0,1.0,0.5,0.0,5.0,5.0,633.8298750001741,2.0,1.0,phase_2,go,600.0,600.0,1.0,,,,,,,,,orange,diamond
0.0,7.0,2.0,1.0,6.0,6.0,431.9256160001714,2.0,1.0,phase_2,stop,600.0,600.0,3.0,,,,,,,,,blue,square
0.0,2.0,1.0,0.0,5.0,5.0,807.2264060001544,3.0,1.0,phase_2,go,600.0,550.0,1.0,,,,,,,,,cyan,cross
0.0,5.0,0.5,1.0,5.0,5.0,326.9897939999282,3.0,1.0,phase_2,stop,600.0,550.0,3.0,,,,,,,,,gray,circle
0.0,4.0,4.0,0.0,6.0,6.0,388.2515700001931,3.0,1.0,phase_2,go,550.0,550.0,1.0,,,,,,,,,white,flipped triangle
0.0,7.0,2.0,1.0,6.0,6.0,394.6018859996911,3.0,1.0,phase_2,stop,550.0,550.0,3.0,,,,,,,,,blue,square
0.0,5.0,0.5,1.0,6.0,6.0,595.8372000000054,3.0,1.0,phase_2,go,550.0,500.0,1.0,,,,,,,,,gray,circle
0.0,4.0,4.0,0.0,6.0,6.0,341.1678830002529,3.0,1.0,phase_2,go,550.0,500.0,1.0,,,,,,,,,white,flipped triangle
0.0,8.0,4.0,1.0,5.0,5.0,347.7126850002605,3.0,1.0,phase_2,stop,550.0,500.0,3.0,,,,,,,,,magenta,I
0.0,5.0,0.5,1.0,6.0,6.0,334.906852000131,3.0,1.0,phase_2,stop,500.0,500.0,3.0,,,,,,,,,gray,circle
0.0,1.0,0.5,0.0,6.0,6.0,610.0064070001281,3.0,1.0,phase_2,go,500.0,450.0,1.0,,,,,,,,,orange,diamond
0.0,7.0,2.0,1.0,6.0,6.0,542.4115360001451,3.0,1.0,phase_2,stop,500.0,450.0,3.0,,,,,,,,,blue,square
0.0,6.0,1.0,1.0,5.0,5.0,639.9816930002089,3.0,1.0,phase_2,stop,500.0,400.0,3.0,,,,,,,,,green,triangle
0.0,8.0,4.0,1.0,6.0,0.0,0.0,3.0,1.0,phase_2,stop,450.0,400.0,4.0,,,,,,,,,magenta,I
0.0,1.0,0.5,0.0,5.0,5.0,655.2188470000146,3.0,1.0,phase_2,go,450.0,450.0,1.0,,,,,,,,,orange,diamond
0.0,3.0,2.0,0.0,5.0,5.0,643.4680349998416,3.0,1.0,phase_2,go,450.0,450.0,1.0,,,,,,,,,yellow,hexagon
0.0,5.0,0.5,1.0,6.0,6.0,548.5148249999838,3.0,1.0,phase_2,stop,450.0,450.0,3.0,,,,,,,,,gray,circle
0.0,8.0,4.0,1.0,6.0,0.0,0.0,3.0,1.0,phase_2,stop,450.0,400.0,4.0,,,,,,,,,magenta,I
0.0,7.0,2.0,1.0,6.0,6.0,605.6284639998921,3.0,1.0,phase_2,stop,450.0,450.0,3.0,,,,,,,,,blue,square
0.0,1.0,0.5,0.0,5.0,5.0,697.0881679999366,3.0,1.0,phase_2,go,450.0,400.0,1.0,,,,,,,,,orange,diamond
0.0,2.0,1.0,0.0,5.0,5.0,664.5097290002013,3.0,1.0,phase_2,go,450.0,400.0,1.0,,,,,,,,,cyan,cross
0.0,2.0,1.0,0.0,6.0,6.0,886.1442860002171,3.0,1.0,phase_2,go,450.0,400.0,1.0,,,,,,,,,cyan,cross
0.0,7.0,2.0,1.0,5.0,5.0,509.2403749999903,3.0,1.0,phase_2,stop,450.0,400.0,3.0,,,,,,,,,blue,square
0.0,7.0,2.0,1.0,6.0,0.0,0.0,3.0,1.0,phase_2,stop,400.0,400.0,4.0,,,,,,,,,blue,square
0.0,5.0,0.5,1.0,5.0,5.0,479.8112230000697,3.0,1.0,phase_2,go,400.0,450.0,1.0,,,,,,,,,gray,circle
0.0,2.0,1.0,0.0,6.0,6.0,829.2558479997751,3.0,1.0,phase_2,go,400.0,450.0,1.0,,,,,,,,,cyan,cross
0.0,4.0,4.0,0.0,5.0,5.0,665.0813969999945,3.0,1.0,phase_2,go,400.0,450.0,1.0,,,,,,,,,white,flipped triangle
0.0,7.0,2.0,1.0,6.0,6.0,582.8967970001031,3.0,1.0,phase_2,go,400.0,450.0,1.0,,,,,,,,,blue,square
0.0,7.0,2.0,1.0,6.0,0.0,0.0,3.0,1.0,phase_2,stop,400.0,450.0,4.0,,,,,,,,,blue,square
0.0,2.0,1.0,0.0,5.0,5.0,777.0047719996,3.0,1.0,phase_2,go,400.0,500.0,1.0,,,,,,,,,cyan,cross
0.0,6.0,1.0,1.0,5.0,0.0,0.0,3.0,1.0,phase_2,stop,400.0,500.0,4.0,,,,,,,,,green,triangle
0.0,6.0,1.0,1.0,5.0,0.0,0.0,3.0,1.0,phase_2,stop,450.0,500.0,4.0,,,,,,,,,green,triangle
0.0,6.0,1.0,1.0,5.0,0.0,0.0,3.0,1.0,phase_2,stop,500.0,500.0,4.0,,,,,,,,,green,triangle
0.0,1.0,0.5,0.0,5.0,5.0,818.8976850001382,3.0,1.0,phase_2,go,550.0,500.0,1.0,,,,,,,,,orange,diamond
0.0,3.0,2.0,0.0,5.0,5.0,807.6714339999853,3.0,1.0,phase_2,go,550.0,500.0,1.0,,,,,,,,,yellow,hexagon
0.0,3.0,2.0,0.0,6.0,6.0,463.3454529998744,3.0,1.0,phase_2,go,550.0,500.0,1.0,,,,,,,,,yellow,hexagon
0.0,5.0,0.5,1.0,6.0,6.0,476.3844170001903,3.0,1.0,phase_2,stop,550.0,500.0,3.0,,,,,,,,,gray,circle
0.0,1.0,0.5,0.0,5.0,5.0,673.1172179997884,3.0,1.0,phase_2,go,550.0,450.0,1.0,,,,,,,,,orange,diamond
0.0,6.0,1.0,1.0,6.0,0.0,0.0,4.0,1.0,phase_2,stop,550.0,450.0,4.0,,,,,,,,,green,triangle
0.0,4.0,4.0,0.0,6.0,6.0,743.9329639996686,4.0,1.0,phase_2,go,550.0,500.0,1.0,,,,,,,,,white,flipped triangle
0.0,3.0,2.0,0.0,6.0,6.0,725.0664319999487,4.0,1.0,phase_2,go,550.0,500.0,1.0,,,,,,,,,yellow,hexagon
0.0,1.0,0.5,0.0,5.0,5.0,477.1850940001059,4.0,1.0,phase_2,go,550.0,500.0,1.0,,,,,,,,,orange,diamond
0.0,6.0,1.0,1.0,6.0,0.0,0.0,4.0,1.0,phase_2,stop,550.0,500.0,4.0,,,,,,,,,green,triangle
0.0,2.0,1.0,0.0,5.0,5.0,810.8118129998729,4.0,1.0,phase_2,go,550.0,550.0,1.0,,,,,,,,,cyan,cross
0.0,3.0,2.0,0.0,6.0,6.0,641.6597010002079,4.0,1.0,phase_2,go,550.0,550.0,1.0,,,,,,,,,yellow,hexagon
0.0,6.0,1.0,1.0,6.0,0.0,0.0,4.0,1.0,phase_2,stop,550.0,550.0,4.0,,,,,,,,,green,triangle
0.0,7.0,2.0,1.0,6.0,0.0,0.0,4.0,1.0,phase_2,stop,550.0,600.0,4.0,,,,,,,,,blue,square
0.0,1.0,0.5,0.0,5.0,5.0,522.7342630000749,4.0,1.0,phase_2,go,550.0,650.0,1.0,,,,,,,,,orange,diamond
0.0,7.0,2.0,1.0,5.0,0.0,0.0,4.0,1.0,phase_2,stop,550.0,650.0,4.0,,,,,,,,,blue,square
0.0,4.0,4.0,0.0,5.0,5.0,753.1887400000414,4.0,1.0,phase_2,go,600.0,650.0,1.0,,,,,,,,,white,flipped triangle
0.0,4.0,4.0,0.0,6.0,6.0,701.098851000097,4.0,1.0,phase_2,go,600.0,650.0,1.0,,,,,,,,,white,flipped triangle
0.0,7.0,2.0,1.0,6.0,6.0,823.7006099998325,4.0,1.0,phase_2,stop,600.0,650.0,3.0,,,,,,,,,blue,square
0.0,7.0,2.0,1.0,5.0,5.0,860.4456809998737,4.0,1.0,phase_2,go,600.0,600.0,1.0,,,,,,,,,blue,square
0.0,8.0,4.0,1.0,6.0,6.0,770.1656809999804,4.0,1.0,phase_2,go,600.0,600.0,1.0,,,,,,,,,magenta,I
0.0,3.0,2.0,0.0,6.0,6.0,705.9777490003398,4.0,1.0,phase_2,go,600.0,600.0,1.0,,,,,,,,,yellow,hexagon
0.0,6.0,1.0,1.0,5.0,0.0,0.0,4.0,1.0,phase_2,stop,600.0,600.0,4.0,,,,,,,,,green,triangle
0.0,6.0,1.0,1.0,6.0,6.0,738.0326420002348,4.0,1.0,phase_2,stop,650.0,600.0,3.0,,,,,,,,,green,triangle
0.0,2.0,1.0,0.0,6.0,6.0,767.8353539999989,4.0,1.0,phase_2,go,650.0,550.0,1.0,,,,,,,,,cyan,cross
0.0,5.0,0.5,1.0,5.0,5.0,841.934456999752,4.0,1.0,phase_2,stop,650.0,550.0,3.0,,,,,,,,,gray,circle
0.0,1.0,0.5,0.0,6.0,6.0,452.0593350002855,4.0,1.0,phase_2,go,600.0,550.0,1.0,,,,,,,,,orange,diamond
0.0,5.0,0.5,1.0,6.0,6.0,790.7804860001306,4.0,1.0,phase_2,go,600.0,550.0,1.0,,,,,,,,,gray,circle
0.0,6.0,1.0,1.0,6.0,6.0,586.2793900000725,4.0,1.0,phase_2,stop,600.0,550.0,3.0,,,,,,,,,green,triangle
0.0,2.0,1.0,0.0,6.0,6.0,850.2383740001278,4.0,1.0,phase_2,go,600.0,500.0,1.0,,,,,,,,,cyan,cross
0.0,1.0,0.5,0.0,6.0,6.0,818.0984450000324,4.0,1.0,phase_2,go,600.0,500.0,1.0,,,,,,,,,orange,diamond
0.0,4.0,4.0,0.0,5.0,5.0,848.4931220000362,4.0,1.0,phase_2,go,600.0,500.0,1.0,,,,,,,,,white,flipped triangle
0.0,1.0,0.5,0.0,6.0,6.0,729.6759509999902,4.0,1.0,phase_2,go,600.0,500.0,1.0,,,,,,,,,orange,diamond
0.0,5.0,0.5,1.0,6.0,6.0,670.5181249999441,4.0,1.0,phase_2,stop,600.0,500.0,3.0,,,,,,,,,gray,circle
0.0,7.0,2.0,1.0,5.0,5.0,721.4098749996083,4.0,1.0,phase_2,stop,600.0,450.0,3.0,,,,,,,,,blue,square
0.0,8.0,4.0,1.0,5.0,0.0,0.0,4.0,1.0,phase_2,stop,550.0,450.0,4.0,,,,,,,,,magenta,I
0.0,2.0,1.0,0.0,5.0,5.0,666.5347369998926,4.0,1.0,phase_2,go,600.0,450.0,1.0,,,,,,,,,cyan,cross
0.0,3.0,2.0,0.0,5.0,5.0,441.249512000013,4.0,1.0,phase_2,go,600.0,450.0,1.0,,,,,,,,,yellow,hexagon
0.0,6.0,1.0,1.0,5.0,5.0,762.0181560000674,4.0,1.0,phase_2,stop,600.0,450.0,3.0,,,,,,,,,green,triangle
0.0,5.0,0.5,1.0,6.0,0.0,0.0,4.0,1.0,phase_2,stop,550.0,450.0,4.0,,,,,,,,,gray,circle
0.0,4.0,4.0,0.0,6.0,6.0,760.5116350000571,4.0,1.0,phase_2,go,550.0,500.0,1.0,,,,,,,,,white,flipped triangle
0.0,3.0,2.0,0.0,5.0,5.0,451.1074609999923,5.0,1.0,phase_2,go,550.0,500.0,1.0,,,,,,,,,yellow,hexagon
0.0,3.0,2.0,0.0,6.0,6.0,437.7739829997153,5.0,1.0,phase_2,go,550.0,500.0,1.0,,,,,,,,,yellow,hexagon
0.0,5.0,0.5,1.0,5.0,5.0,330.8640099999138,5.0,1.0,phase_2,go,550.0,500.0,1.0,,,,,,,,,gray,circle
0.0,1.0,0.5,0.0,6.0,6.0,417.0414999998684,5.0,1.0,phase_2,go,550.0,500.0,1.0,,,,,,,,,orange,diamond
0.0,7.0,2.0,1.0,6.0,6.0,357.5244569997267,5.0,1.0,phase_2,go,550.0,500.0,1.0,,,,,,,,,blue,square
0.0,3.0,2.0,0.0,5.0,5.0,589.4763380001677,5.0,1.0,phase_2,go,550.0,500.0,1.0,,,,,,,,,yellow,hexagon
0.0,8.0,4.0,1.0,5.0,5.0,496.7074900000625,5.0,1.0,phase_2,stop,550.0,500.0,3.0,,,,,,,,,magenta,I
0.0,7.0,2.0,1.0,5.0,5.0,628.1623459999537,5.0,1.0,phase_2,stop,500.0,500.0,3.0,,,,,,,,,blue,square
0.0,1.0,0.5,0.0,6.0,6.0,696.8656510002802,5.0,1.0,phase_2,go,450.0,500.0,1.0,,,,,,,,,orange,diamond
0.0,6.0,1.0,1.0,6.0,6.0,541.039326000373,5.0,1.0,phase_2,go,450.0,500.0,1.0,,,,,,,,,green,triangle
0.0,1.0,0.5,0.0,5.0,5.0,708.2180990000779,5.0,1.0,phase_2,go,450.0,500.0,1.0,,,,,,,,,orange,diamond
0.0,6.0,1.0,1.0,5.0,0.0,0.0,5.0,1.0,phase_2,stop,450.0,500.0,4.0,,,,,,,,,green,triangle
0.0,3.0,2.0,0.0,6.0,6.0,680.0433969997357,5.0,1.0,phase_2,go,500.0,500.0,1.0,,,,,,,,,yellow,hexagon
0.0,8.0,4.0,1.0,5.0,0.0,0.0,5.0,1.0,phase_2,stop,500.0,500.0,4.0,,,,,,,,,magenta,I
0.0,7.0,2.0,1.0,5.0,5.0,537.0131220001895,5.0,1.0,phase_2,stop,550.0,500.0,3.0,,,,,,,,,blue,square
0.0,3.0,2.0,0.0,5.0,5.0,596.2813850001112,5.0,1.0,phase_2,go,500.0,500.0,1.0,,,,,,,,,yellow,hexagon
0.0,3.0,2.0,0.0,5.0,5.0,924.0092339996409,5.0,1.0,phase_2,go,500.0,500.0,1.0,,,,,,,,,yellow,hexagon
0.0,8.0,4.0,1.0,5.0,0.0,0.0,5.0,1.0,phase_2,stop,500.0,500.0,4.0,,,,,,,,,magenta,I
0.0,2.0,1.0,0.0,6.0,6.0,590.4001359999711,5.0,1.0,phase_2,go,550.0,500.0,1.0,,,,,,,,,cyan,cross
0.0,4.0,4.0,0.0,5.0,5.0,697.7668500003347,5.0,1.0,phase_2,go,550.0,500.0,1.0,,,,,,,,,white,flipped triangle
0.0,2.0,1.0,0.0,5.0,5.0,917.6609219998682,5.0,1.0,phase_2,go,550.0,500.0,1.0,,,,,,,,,cyan,cross
0.0,8.0,4.0,1.0,6.0,6.0,372.3427039999478,5.0,1.0,phase_2,go,550.0,500.0,1.0,,,,,,,,,magenta,I
0.0,5.0,0.5,1.0,5.0,5.0,562.1814040000572,5.0,1.0,phase_2,go,550.0,500.0,1.0,,,,,,,,,gray,circle
0.0,5.0,0.5,1.0,5.0,5.0,625.4275830001461,5.0,1.0,phase_2,stop,550.0,500.0,3.0,,,,,,,,,gray,circle
0.0,1.0,0.5,0.0,6.0,6.0,440.8267870003328,5.0,1.0,phase_2,go,500.0,500.0,1.0,,,,,,,,,orange,diamond
0.0,4.0,4.0,0.0,5.0,5.0,420.5538209998849,5.0,1.0,phase_2,go,500.0,500.0,1.0,,,,,,,,,white,flipped triangle
0.0,7.0,2.0,1.0,5.0,5.0,774.156782999853,5.0,1.0,phase_2,go,500.0,500.0,1.0,,,,,,,,,blue,square
0.0,2.0,1.0,0.0,6.0,6.0,471.4471249999405,5.0,1.0,phase_2,go,500.0,500.0,1.0,,,,,,,,,cyan,cross
0.0,4.0,4.0,0.0,5.0,5.0,377.0563319999382,5.0,1.0,phase_2,go,500.0,500.0,1.0,,,,,,,,,white,flipped triangle
0.0,1.0,0.5,0.0,5.0,5.0,536.6112440001416,5.0,1.0,phase_2,go,500.0,500.0,1.0,,,,,,,,,orange,diamond
0.0,7.0,2.0,1.0,6.0,6.0,540.4966950000016,5.0,1.0,phase_2,stop,500.0,500.0,3.0,,,,,,,,,blue,square
0.0,2.0,1.0,0.0,5.0,5.0,685.6614370003626,5.0,1.0,phase_2,go,500.0,450.0,1.0,,,,,,,,,cyan,cross
0.0,7.0,2.0,1.0,6.0,6.0,482.9135449999739,5.0,1.0,phase_2,stop,500.0,450.0,3.0,,,,,,,,,blue,square
0.0,4.0,4.0,0.0,5.0,5.0,609.7952619998068,5.0,1.0,phase_2,go,500.0,400.0,1.0,,,,,,,,,white,flipped triangle
0.0,4.0,4.0,0.0,5.0,5.0,422.0662160000756,5.0,1.0,phase_2,go,500.0,400.0,1.0,,,,,,,,,white,flipped triangle
0.0,2.0,1.0,0.0,6.0,6.0,326.6666999998051,5.0,1.0,phase_2,go,500.0,400.0,1.0,,,,,,,,,cyan,cross
0.0,7.0,2.0,1.0,5.0,5.0,427.6424370000313,6.0,1.0,phase_2,stop,500.0,400.0,3.0,,,,,,,,,blue,square
0.0,3.0,2.0,0.0,6.0,6.0,454.3888040002457,6.0,1.0,phase_2,go,450.0,400.0,1.0,,,,,,,,,yellow,hexagon
0.0,6.0,1.0,1.0,6.0,6.0,486.0087239999302,6.0,1.0,phase_2,stop,450.0,400.0,3.0,,,,,,,,,green,triangle
0.0,5.0,0.5,1.0,5.0,0.0,0.0,6.0,1.0,phase_2,stop,450.0,350.0,4.0,,,,,,,,,gray,circle
0.0,4.0,4.0,0.0,6.0,6.0,533.2596319999539,6.0,1.0,phase_2,go,500.0,350.0,1.0,,,,,,,,,white,flipped triangle
0.0,6.0,1.0,1.0,5.0,5.0,710.6923500000448,6.0,1.0,phase_2,go,500.0,350.0,1.0,,,,,,,,,green,triangle
0.0,7.0,2.0,1.0,6.0,0.0,0.0,6.0,1.0,phase_2,stop,500.0,350.0,4.0,,,,,,,,,blue,square
0.0,3.0,2.0,0.0,6.0,6.0,536.7721790003088,6.0,1.0,phase_2,go,500.0,400.0,1.0,,,,,,,,,yellow,hexagon
0.0,1.0,0.5,0.0,6.0,6.0,727.4919179999415,6.0,1.0,phase_2,go,500.0,400.0,1.0,,,,,,,,,orange,diamond
0.0,5.0,0.5,1.0,5.0,5.0,572.9441180001231,6.0,1.0,phase_2,stop,500.0,400.0,3.0,,,,,,,,,gray,circle
0.0,6.0,1.0,1.0,5.0,0.0,0.0,6.0,1.0,phase_2,stop,450.0,400.0,4.0,,,,,,,,,green,triangle
0.0,3.0,2.0,0.0,6.0,6.0,676.101576000292,6.0,1.0,phase_2,go,500.0,400.0,1.0,,,,,,,,,yellow,hexagon
0.0,6.0,1.0,1.0,6.0,6.0,652.0782160000635,6.0,1.0,phase_2,go,500.0,400.0,1.0,,,,,,,,,green,triangle
0.0,4.0,4.0,0.0,5.0,5.0,679.4825040001342,6.0,1.0,phase_2,go,500.0,400.0,1.0,,,,,,,,,white,flipped triangle
0.0,5.0,0.5,1.0,6.0,0.0,0.0,6.0,1.0,phase_2,stop,500.0,400.0,4.0,,,,,,,,,gray,circle
0.0,4.0,4.0,0.0,6.0,6.0,736.1250680000921,6.0,1.0,phase_2,go,500.0,450.0,1.0,,,,,,,,,white,flipped triangle
0.0,4.0,4.0,0.0,5.0,5.0,587.0631520001552,6.0,1.0,phase_2,go,500.0,450.0,1.0,,,,,,,,,white,flipped triangle
0.0,3.0,2.0,0.0,5.0,5.0,624.4829029997163,6.0,1.0,phase_2,go,500.0,450.0,1.0,,,,,,,,,yellow,hexagon
0.0,8.0,4.0,1.0,6.0,0.0,0.0,6.0,1.0,phase_2,stop,500.0,450.0,4.0,,,,,,,,,magenta,I
0.0,2.0,1.0,0.0,5.0,5.0,548.7653300001512,6.0,1.0,phase_2,go,500.0,500.0,1.0,,,,,,,,,cyan,cross
0.0,2.0,1.0,0.0,6.0,6.0,548.6940119999417,6.0,1.0,phase_2,go,500.0,500.0,1.0,,,,,,,,,cyan,cross
0.0,6.0,1.0,1.0,5.0,5.0,567.3650929998075,6.0,1.0,phase_2,stop,500.0,500.0,3.0,,,,,,,,,green,triangle
0.0,8.0,4.0,1.0,5.0,0.0,0.0,6.0,1.0,phase_2,stop,450.0,500.0,4.0,,,,,,,,,magenta,I
0.0,2.0,1.0,0.0,6.0,6.0,720.2465819996178,6.0,1.0,phase_2,go,500.0,500.0,1.0,,,,,,,,,cyan,cross
0.0,5.0,0.5,1.0,6.0,0.0,0.0,6.0,1.0,phase_2,stop,500.0,500.0,4.0,,,,,,,,,gray,circle
0.0,7.0,2.0,1.0,5.0,5.0,563.9319160000014,6.0,1.0,phase_2,stop,500.0,550.0,3.0,,,,,,,,,blue,square
0.0,2.0,1.0,0.0,6.0,6.0,779.8911360000602,6.0,1.0,phase_2,go,450.0,550.0,1.0,,,,,,,,,cyan,cross
0.0,2.0,1.0,0.0,5.0,5.0,728.6390780000147,6.0,1.0,phase_2,go,450.0,550.0,1.0,,,,,,,,,cyan,cross
0.0,5.0,0.5,1.0,5.0,0.0,0.0,6.0,1.0,phase_2,stop,450.0,550.0,4.0,,,,,,,,,gray,circle
0.0,3.0,2.0,0.0,5.0,5.0,722.3920890000954,6.0,1.0,phase_2,go,500.0,550.0,1.0,,,,,,,,,yellow,hexagon
0.0,2.0,1.0,0.0,5.0,5.0,799.2814520002867,6.0,1.0,phase_2,go,500.0,550.0,1.0,,,,,,,,,cyan,cross
0.0,4.0,4.0,0.0,5.0,5.0,680.4432259996247,6.0,1.0,phase_2,go,500.0,550.0,1.0,,,,,,,,,white,flipped triangle
0.0,2.0,1.0,0.0,6.0,6.0,471.6263939999408,6.0,1.0,phase_2,go,500.0,550.0,1.0,,,,,,,,,cyan,cross
0.0,2.0,1.0,0.0,6.0,6.0,825.0657469998259,6.0,1.0,phase_2,go,500.0,550.0,1.0,,,,,,,,,cyan,cross
0.0,6.0,1.0,1.0,6.0,0.0,0.0,6.0,1.0,phase_2,stop,500.0,550.0,4.0,,,,,,,,,green,triangle
0.0,6.0,1.0,1.0,5.0,5.0,753.0483680002362,6.0,1.0,phase_2,go,500.0,600.0,1.0,,,,,,,,,green,triangle
0.0,1.0,0.5,0.0,6.0,6.0,487.9742859998259,7.0,1.0,phase_2,go,500.0,600.0,1.0,,,,,,,,,orange,diamond
0.0,8.0,4.0,1.0,6.0,6.0,491.4292780003961,7.0,1.0,phase_2,stop,500.0,600.0,3.0,,,,,,,,,magenta,I
0.0,8.0,4.0,1.0,6.0,6.0,758.0824960000427,7.0,1.0,phase_2,stop,500.0,550.0,3.0,,,,,,,,,magenta,I
0.0,6.0,1.0,1.0,5.0,5.0,689.254575999712,7.0,1.0,phase_2,go,500.0,500.0,1.0,,,,,,,,,green,triangle
0.0,5.0,0.5,1.0,6.0,0.0,0.0,7.0,1.0,phase_2,stop,500.0,500.0,4.0,,,,,,,,,gray,circle
0.0,3.0,2.0,0.0,6.0,6.0,693.6777559999427,7.0,1.0,phase_2,go,500.0,550.0,1.0,,,,,,,,,yellow,hexagon
0.0,8.0,4.0,1.0,5.0,0.0,0.0,7.0,1.0,phase_2,stop,500.0,550.0,4.0,,,,,,,,,magenta,I
0.0,7.0,2.0,1.0,5.0,5.0,469.34548299987,7.0,1.0,phase_2,stop,550.0,550.0,3.0,,,,,,,,,blue,square
0.0,1.0,0.5,0.0,5.0,5.0,731.6818650001551,7.0,1.0,phase_2,go,500.0,550.0,1.0,,,,,,,,,orange,diamond
0.0,8.0,4.0,1.0,6.0,0.0,0.0,7.0,1.0,phase_2,stop,500.0,550.0,4.0,,,,,,,,,magenta,I
0.0,6.0,1.0,1.0,6.0,6.0,748.5645629999453,7.0,1.0,phase_2,stop,500.0,600.0,3.0,,,,,,,,,green,triangle
0.0,4.0,4.0,0.0,5.0,5.0,502.3415460000251,7.0,1.0,phase_2,go,500.0,550.0,1.0,,,,,,,,,white,flipped triangle
0.0,7.0,2.0,1.0,5.0,5.0,854.0519530001802,7.0,1.0,phase_2,go,500.0,550.0,1.0,,,,,,,,,blue,square
0.0,4.0,4.0,0.0,5.0,5.0,850.0859700002366,7.0,1.0,phase_2,go,500.0,550.0,1.0,,,,,,,,,white,flipped triangle
0.0,4.0,4.0,0.0,6.0,6.0,548.4746029997041,7.0,1.0,phase_2,go,500.0,550.0,1.0,,,,,,,,,white,flipped triangle
0.0,8.0,4.0,1.0,6.0,6.0,782.4769230001039,7.0,1.0,phase_2,go,500.0,550.0,1.0,,,,,,,,,magenta,I
0.0,8.0,4.0,1.0,5.0,5.0,531.3981089998379,7.0,1.0,phase_2,go,500.0,550.0,1.0,,,,,,,,,magenta,I
0.0,4.0,4.0,0.0,6.0,6.0,445.8397680000416,7.0,1.0,phase_2,go,500.0,550.0,1.0,,,,,,,,,white,flipped triangle
0.0,3.0,2.0,0.0,6.0,6.0,412.4871399999392,7.0,1.0,phase_2,go,500.0,550.0,1.0,,,,,,,,,yellow,hexagon
0.0,5.0,0.5,1.0,6.0,6.0,699.3352170002254,7.0,1.0,phase_2,go,500.0,550.0,1.0,,,,,,,,,gray,circle
0.0,8.0,4.0,1.0,6.0,6.0,543.7648590000208,7.0,1.0,phase_2,stop,500.0,550.0,3.0,,,,,,,,,magenta,I
0.0,8.0,4.0,1.0,5.0,5.0,654.2484159999731,7.0,1.0,phase_2,go,500.0,500.0,1.0,,,,,,,,,magenta,I
0.0,1.0,0.5,0.0,6.0,6.0,769.7549029999209,7.0,1.0,phase_2,go,500.0,500.0,1.0,,,,,,,,,orange,diamond
0.0,8.0,4.0,1.0,5.0,5.0,534.9791170001481,7.0,1.0,phase_2,stop,500.0,500.0,3.0,,,,,,,,,magenta,I
0.0,6.0,1.0,1.0,5.0,6.0,1043.5834479999355,7.0,1.0,phase_2,stop,450.0,500.0,3.0,,,,,,,,,green,triangle
0.0,4.0,4.0,0.0,5.0,5.0,771.0664300002463,7.0,1.0,phase_2,go,400.0,500.0,1.0,,,,,,,,,white,flipped triangle
0.0,1.0,0.5,0.0,5.0,5.0,548.5240159996465,7.0,1.0,phase_2,go,400.0,500.0,1.0,,,,,,,,,orange,diamond
0.0,6.0,1.0,1.0,5.0,5.0,365.2886250001756,7.0,1.0,phase_2,go,400.0,500.0,1.0,,,,,,,,,green,triangle
0.0,1.0,0.5,0.0,6.0,6.0,598.6366420002014,7.0,1.0,phase_2,go,400.0,500.0,1.0,,,,,,,,,orange,diamond
0.0,5.0,0.5,1.0,5.0,5.0,342.453930999909,7.0,1.0,phase_2,stop,400.0,500.0,3.0,,,,,,,,,gray,circle
0.0,8.0,4.0,1.0,6.0,6.0,684.3163509993246,7.0,1.0,phase_2,stop,350.0,500.0,3.0,,,,,,,,,magenta,I
0.0,6.0,1.0,1.0,6.0,6.0,655.2057970002352,7.0,1.0,phase_2,go,350.0,450.0,1.0,,,,,,,,,green,triangle
0.0,3.0,2.0,0.0,6.0,6.0,759.9087449998478,7.0,1.0,phase_2,go,350.0,450.0,1.0,,,,,,,,,yellow,hexagon
0.0,2.0,1.0,0.0,5.0,5.0,431.5393189999668,7.0,1.0,phase_2,go,350.0,450.0,1.0,,,,,,,,,cyan,cross
0.0,2.0,1.0,0.0,6.0,6.0,517.7986609996879,7.0,1.0,phase_2,go,350.0,450.0,1.0,,,,,,,,,cyan,cross
0.0,6.0,1.0,1.0,6.0,6.0,356.9434589999218,7.0,1.0,phase_2,stop,350.0,450.0,3.0,,,,,,,,,green,triangle
0.0,5.0,0.5,1.0,5.0,0.0,0.0,8.0,1.0,phase_2,stop,350.0,400.0,4.0,,,,,,,,,gray,circle
0.0,6.0,1.0,1.0,6.0,6.0,520.4994480000096,8.0,1.0,phase_2,stop,400.0,400.0,3.0,,,,,,,,,green,triangle
0.0,2.0,1.0,0.0,6.0,6.0,593.3613400002287,8.0,1.0,phase_2,go,400.0,350.0,1.0,,,,,,,,,cyan,cross
0.0,5.0,0.5,1.0,5.0,0.0,0.0,8.0,1.0,phase_2,stop,400.0,350.0,4.0,,,,,,,,,gray,circle
0.0,5.0,0.5,1.0,6.0,6.0,501.22920500052714,8.0,1.0,phase_2,stop,450.0,350.0,3.0,,,,,,,,,gray,circle
0.0,2.0,1.0,0.0,5.0,5.0,502.3953910003911,8.0,1.0,phase_2,go,450.0,300.0,1.0,,,,,,,,,cyan,cross
0.0,3.0,2.0,0.0,5.0,5.0,562.9269660003047,8.0,1.0,phase_2,go,450.0,300.0,1.0,,,,,,,,,yellow,hexagon
0.0,3.0,2.0,0.0,6.0,6.0,508.40709499971126,8.0,1.0,phase_2,go,450.0,300.0,1.0,,,,,,,,,yellow,hexagon
0.0,5.0,0.5,1.0,5.0,5.0,587.269708000349,8.0,1.0,phase_2,go,450.0,300.0,1.0,,,,,,,,,gray,circle
0.0,7.0,2.0,1.0,5.0,5.0,437.2359910003069,8.0,1.0,phase_2,go,450.0,300.0,1.0,,,,,,,,,blue,square
0.0,8.0,4.0,1.0,6.0,6.0,497.9650480008786,8.0,1.0,phase_2,stop,450.0,300.0,3.0,,,,,,,,,magenta,I
0.0,8.0,4.0,1.0,5.0,5.0,685.8730650001235,8.0,1.0,phase_2,go,450.0,250.0,1.0,,,,,,,,,magenta,I
0.0,5.0,0.5,1.0,6.0,0.0,0.0,8.0,1.0,phase_2,stop,450.0,250.0,4.0,,,,,,,,,gray,circle
0.0,3.0,2.0,0.0,5.0,5.0,741.9960290008021,8.0,1.0,phase_2,go,450.0,300.0,1.0,,,,,,,,,yellow,hexagon
0.0,7.0,2.0,1.0,6.0,6.0,734.7883580005146,8.0,1.0,phase_2,go,450.0,300.0,1.0,,,,,,,,,blue,square
0.0,3.0,2.0,0.0,6.0,6.0,660.6430109995927,8.0,1.0,phase_2,go,450.0,300.0,1.0,,,,,,,,,yellow,hexagon
0.0,8.0,4.0,1.0,6.0,0.0,0.0,8.0,1.0,phase_2,stop,450.0,300.0,4.0,,,,,,,,,magenta,I
0.0,3.0,2.0,0.0,5.0,5.0,427.0998309993956,8.0,1.0,phase_2,go,450.0,350.0,1.0,,,,,,,,,yellow,hexagon
0.0,3.0,2.0,0.0,5.0,5.0,659.3158840005344,8.0,1.0,phase_2,go,450.0,350.0,1.0,,,,,,,,,yellow,hexagon
0.0,4.0,4.0,0.0,6.0,6.0,793.6409869998897,8.0,1.0,phase_2,go,450.0,350.0,1.0,,,,,,,,,white,flipped triangle
0.0,4.0,4.0,0.0,6.0,6.0,584.2716459992516,8.0,1.0,phase_2,go,450.0,350.0,1.0,,,,,,,,,white,flipped triangle
0.0,2.0,1.0,0.0,6.0,6.0,601.213947999895,8.0,1.0,phase_2,go,450.0,350.0,1.0,,,,,,,,,cyan,cross
0.0,2.0,1.0,0.0,6.0,6.0,628.8613960005023,8.0,1.0,phase_2,go,450.0,350.0,1.0,,,,,,,,,cyan,cross
0.0,7.0,2.0,1.0,6.0,0.0,0.0,8.0,1.0,phase_2,stop,450.0,350.0,4.0,,,,,,,,,blue,square
0.0,4.0,4.0,0.0,6.0,6.0,679.7128449998127,8.0,1.0,phase_2,go,450.0,400.0,1.0,,,,,,,,,white,flipped triangle
0.0,1.0,0.5,0.0,5.0,5.0,421.5024710001671,8.0,1.0,phase_2,go,450.0,400.0,1.0,,,,,,,,,orange,diamond
0.0,7.0,2.0,1.0,6.0,6.0,529.5315270004721,8.0,1.0,phase_2,stop,450.0,400.0,3.0,,,,,,,,,blue,square
0.0,5.0,0.5,1.0,6.0,0.0,0.0,8.0,1.0,phase_2,stop,450.0,350.0,4.0,,,,,,,,,gray,circle
0.0,3.0,2.0,0.0,5.0,5.0,433.0816249994313,8.0,1.0,phase_2,go,450.0,400.0,1.0,,,,,,,,,yellow,hexagon
0.0,1.0,0.5,0.0,6.0,6.0,486.3115119997019,8.0,1.0,phase_2,go,450.0,400.0,1.0,,,,,,,,,orange,diamond
0.0,2.0,1.0,0.0,5.0,5.0,543.4570869992967,8.0,1.0,phase_2,go,450.0,400.0,1.0,,,,,,,,,cyan,cross
0.0,1.0,0.5,0.0,6.0,6.0,530.6392470001811,8.0,1.0,phase_2,go,450.0,400.0,1.0,,,,,,,,,orange,diamond
0.0,6.0,1.0,1.0,5.0,5.0,540.5877379998856,8.0,1.0,phase_2,stop,450.0,400.0,3.0,,,,,,,,,green,triangle
0.0,4.0,4.0,0.0,6.0,6.0,586.8480899998758,8.0,1.0,phase_2,go,400.0,400.0,1.0,,,,,,,,,white,flipped triangle
0.0,4.0,4.0,0.0,5.0,5.0,460.5569779996585,8.0,1.0,phase_2,go,400.0,400.0,1.0,,,,,,,,,white,flipped triangle
0.0,1.0,0.5,0.0,5.0,5.0,499.1360349995375,8.0,1.0,phase_2,go,400.0,400.0,1.0,,,,,,,,,orange,diamond
0.0,2.0,1.0,0.0,7.0,3.0,2464.8422769996614,1.0,1.0,phase_3,,,,,204.0,6.0,170.0,102.0,204.0,68.0,136.0,34.0,cyan,cross
0.0,2.0,1.0,0.0,7.0,4.0,2319.363353999506,1.0,1.0,phase_3,,,,,170.0,5.0,136.0,102.0,68.0,170.0,34.0,204.0,cyan,cross
0.0,6.0,1.0,1.0,7.0,1.0,2421.9940769999084,1.0,1.0,phase_3,,,,,216.0,4.0,216.0,270.0,54.0,108.0,162.0,324.0,green,triangle
0.0,2.0,1.0,0.0,7.0,1.0,1167.3685010000554,1.0,1.0,phase_3,,,,,264.0,6.0,264.0,132.0,176.0,44.0,220.0,88.0,cyan,cross
0.0,7.0,2.0,1.0,7.0,3.0,1480.164856000556,1.0,1.0,phase_3,,,,,234.0,6.0,39.0,156.0,234.0,78.0,117.0,195.0,blue,square
0.0,6.0,1.0,1.0,7.0,4.0,2290.485161000106,1.0,1.0,phase_3,,,,,204.0,6.0,68.0,170.0,102.0,204.0,34.0,136.0,green,triangle
0.0,1.0,0.5,0.0,7.0,3.0,1898.4253809994696,1.0,1.0,phase_3,,,,,216.0,4.0,108.0,162.0,216.0,270.0,324.0,54.0,orange,diamond
0.0,3.0,2.0,0.0,7.0,2.0,2262.3079630002394,1.0,1.0,phase_3,,,,,270.0,5.0,162.0,270.0,54.0,108.0,216.0,324.0,yellow,hexagon
0.0,8.0,4.0,1.0,7.0,3.0,2317.721469999924,1.0,1.0,phase_3,,,,,204.0,6.0,136.0,34.0,204.0,102.0,170.0,68.0,magenta,I
0.0,1.0,0.5,0.0,7.0,2.0,1640.0598840000384,1.0,1.0,phase_3,,,,,204.0,6.0,136.0,204.0,102.0,170.0,68.0,34.0,orange,diamond
0.0,6.0,1.0,1.0,7.0,2.0,2196.1273280003297,1.0,1.0,phase_3,,,,,195.0,5.0,39.0,195.0,234.0,78.0,117.0,156.0,green,triangle
0.0,8.0,4.0,1.0,7.0,4.0,1942.421114999888,1.0,1.0,phase_3,,,,,220.0,5.0,132.0,176.0,264.0,220.0,88.0,44.0,magenta,I
0.0,8.0,4.0,1.0,7.0,1.0,1794.4391969995197,1.0,1.0,phase_3,,,,,216.0,4.0,216.0,324.0,162.0,108.0,54.0,270.0,magenta,I
0.0,2.0,1.0,0.0,7.0,2.0,2369.275574000312,1.0,1.0,phase_3,,,,,196.0,4.0,245.0,196.0,98.0,147.0,294.0,49.0,cyan,cross
0.0,4.0,4.0,0.0,7.0,1.0,1351.3600520000182,1.0,1.0,phase_3,,,,,216.0,4.0,216.0,324.0,270.0,54.0,162.0,108.0,white,flipped triangle
0.0,3.0,2.0,0.0,7.0,5.0,3852.422916999785,1.0,1.0,phase_3,,,,,195.0,5.0,234.0,156.0,39.0,117.0,195.0,78.0,yellow,hexagon
0.0,5.0,0.5,1.0,7.0,1.0,3014.2360050003845,1.0,1.0,phase_3,,,,,220.0,5.0,220.0,264.0,44.0,176.0,132.0,88.0,gray,circle
0.0,3.0,2.0,0.0,7.0,1.0,2154.3686259992683,1.0,1.0,phase_3,,,,,204.0,6.0,204.0,102.0,170.0,34.0,136.0,68.0,yellow,hexagon
0.0,4.0,4.0,0.0,7.0,1.0,2000.313299000481,1.0,1.0,phase_3,,,,,204.0,6.0,204.0,136.0,34.0,170.0,68.0,102.0,white,flipped triangle
0.0,7.0,2.0,1.0,7.0,2.0,953.8816960002804,1.0,1.0,phase_3,,,,,216.0,4.0,108.0,216.0,324.0,54.0,162.0,270.0,blue,square
0.0,7.0,2.0,1.0,7.0,1.0,927.573091999875,2.0,1.0,phase_3,,,,,220.0,5.0,220.0,264.0,44.0,88.0,176.0,132.0,blue,square
0.0,7.0,2.0,1.0,7.0,3.0,1528.112166000028,2.0,1.0,phase_3,,,,,220.0,5.0,132.0,44.0,220.0,88.0,176.0,264.0,blue,square
0.0,4.0,4.0,0.0,7.0,3.0,1288.6426219993157,2.0,1.0,phase_3,,,,,220.0,5.0,88.0,264.0,220.0,176.0,44.0,132.0,white,flipped triangle
0.0,7.0,2.0,1.0,7.0,1.0,2030.9853159997147,2.0,1.0,phase_3,,,,,216.0,4.0,216.0,270.0,162.0,324.0,54.0,108.0,blue,square
0.0,6.0,1.0,1.0,7.0,5.0,2037.7826430003552,2.0,1.0,phase_3,,,,,234.0,6.0,156.0,39.0,78.0,195.0,234.0,117.0,green,triangle
0.0,7.0,2.0,1.0,7.0,5.0,1344.3554269997549,2.0,1.0,phase_3,,,,,204.0,6.0,68.0,34.0,170.0,102.0,204.0,136.0,blue,square
0.0,1.0,0.5,0.0,7.0,6.0,2178.085661000296,2.0,1.0,phase_3,,,,,220.0,5.0,88.0,264.0,132.0,44.0,176.0,220.0,orange,diamond
0.0,3.0,2.0,0.0,7.0,6.0,2234.999985000286,2.0,1.0,phase_3,,,,,216.0,4.0,54.0,108.0,162.0,324.0,270.0,216.0,yellow,hexagon
0.0,7.0,2.0,1.0,7.0,4.0,3506.2802390002616,2.0,1.0,phase_3,,,,,204.0,6.0,102.0,34.0,68.0,204.0,170.0,136.0,blue,square
0.0,6.0,1.0,1.0,7.0,4.0,2134.379390000504,2.0,1.0,phase_3,,,,,216.0,4.0,324.0,54.0,162.0,216.0,108.0,270.0,green,triangle
0.0,4.0,4.0,0.0,7.0,1.0,2143.120763999832,2.0,1.0,phase_3,,,,,204.0,6.0,204.0,136.0,34.0,68.0,170.0,102.0,white,flipped triangle
0.0,1.0,0.5,0.0,7.0,6.0,3406.281996999496,2.0,1.0,phase_3,,,,,196.0,4.0,245.0,294.0,49.0,98.0,147.0,196.0,orange,diamond
0.0,2.0,1.0,0.0,7.0,6.0,1643.8067279996176,2.0,1.0,phase_3,,,,,234.0,6.0,39.0,156.0,78.0,195.0,117.0,234.0,cyan,cross
0.0,2.0,1.0,0.0,7.0,6.0,2510.299954000402,2.0,1.0,phase_3,,,,,216.0,4.0,270.0,324.0,108.0,162.0,54.0,216.0,cyan,cross
0.0,2.0,1.0,0.0,7.0,5.0,1681.371128000137,2.0,1.0,phase_3,,,,,195.0,5.0,39.0,234.0,78.0,156.0,195.0,117.0,cyan,cross
0.0,1.0,0.5,0.0,7.0,2.0,1645.467727000323,2.0,1.0,phase_3,,,,,234.0,6.0,117.0,234.0,39.0,78.0,195.0,156.0,orange,diamond
0.0,3.0,2.0,0.0,7.0,6.0,2906.621525999981,2.0,1.0,phase_3,,,,,98.0,2.0,245.0,49.0,147.0,294.0,196.0,98.0,yellow,hexagon
0.0,6.0,1.0,1.0,7.0,5.0,2029.1826879993096,2.0,1.0,phase_3,,,,,245.0,5.0,98.0,196.0,294.0,147.0,245.0,49.0,green,triangle
0.0,3.0,2.0,0.0,7.0,3.0,1632.1768450006855,2.0,1.0,phase_3,,,,,196.0,4.0,98.0,294.0,196.0,49.0,245.0,147.0,yellow,hexagon
0.0,8.0,4.0,1.0,7.0,4.0,2069.1807980001613,2.0,1.0,phase_3,,,,,195.0,5.0,117.0,234.0,156.0,195.0,39.0,78.0,magenta,I
0.0,8.0,4.0,1.0,7.0,6.0,1170.8691519997956,3.0,1.0,phase_3,,,,,220.0,5.0,132.0,44.0,176.0,88.0,264.0,220.0,magenta,I
0.0,2.0,1.0,0.0,7.0,1.0,993.90907399993,3.0,1.0,phase_3,,,,,220.0,5.0,220.0,44.0,176.0,88.0,132.0,264.0,cyan,cross
0.0,2.0,1.0,0.0,7.0,6.0,2798.4827239997685,3.0,1.0,phase_3,,,,,216.0,4.0,324.0,108.0,162.0,270.0,54.0,216.0,cyan,cross
0.0,8.0,4.0,1.0,7.0,6.0,1952.091926999856,3.0,1.0,phase_3,,,,,245.0,5.0,196.0,49.0,147.0,294.0,98.0,245.0,magenta,I
0.0,3.0,2.0,0.0,7.0,1.0,1770.6961349995254,3.0,1.0,phase_3,,,,,234.0,6.0,234.0,78.0,156.0,39.0,117.0,195.0,yellow,hexagon
0.0,3.0,2.0,0.0,7.0,1.0,2463.9313589996164,3.0,1.0,phase_3,,,,,204.0,6.0,204.0,170.0,68.0,34.0,136.0,102.0,yellow,hexagon
0.0,7.0,2.0,1.0,7.0,3.0,1753.6965580002288,3.0,1.0,phase_3,,,,,234.0,6.0,195.0,156.0,234.0,39.0,78.0,117.0,blue,square
0.0,1.0,0.5,0.0,7.0,3.0,1214.3582010003229,3.0,1.0,phase_3,,,,,220.0,5.0,176.0,264.0,220.0,44.0,132.0,88.0,orange,diamond
0.0,1.0,0.5,0.0,7.0,6.0,1992.5767859995176,3.0,1.0,phase_3,,,,,216.0,4.0,324.0,108.0,162.0,270.0,54.0,216.0,orange,diamond
0.0,8.0,4.0,1.0,7.0,3.0,1411.5931190008268,3.0,1.0,phase_3,,,,,204.0,6.0,170.0,68.0,204.0,34.0,136.0,102.0,magenta,I
0.0,6.0,1.0,1.0,7.0,6.0,2275.0668030003,3.0,1.0,phase_3,,,,,220.0,5.0,44.0,176.0,132.0,264.0,88.0,220.0,green,triangle
0.0,1.0,0.5,0.0,7.0,3.0,1677.521968000292,3.0,1.0,phase_3,,,,,204.0,6.0,68.0,170.0,204.0,136.0,102.0,34.0,orange,diamond
0.0,4.0,4.0,0.0,7.0,1.0,2065.9839680001824,3.0,1.0,phase_3,,,,,196.0,4.0,196.0,245.0,98.0,147.0,49.0,294.0,white,flipped triangle
0.0,5.0,0.5,1.0,7.0,5.0,1859.426871999858,3.0,1.0,phase_3,,,,,147.0,3.0,49.0,294.0,245.0,196.0,147.0,98.0,gray,circle
0.0,5.0,0.5,1.0,7.0,1.0,1508.851902999595,3.0,1.0,phase_3,,,,,204.0,6.0,204.0,102.0,136.0,170.0,34.0,68.0,gray,circle
0.0,8.0,4.0,1.0,7.0,1.0,2475.023642999986,3.0,1.0,phase_3,,,,,245.0,5.0,245.0,196.0,49.0,147.0,98.0,294.0,magenta,I
0.0,1.0,0.5,0.0,7.0,2.0,1126.8214900001112,3.0,1.0,phase_3,,,,,234.0,6.0,39.0,234.0,78.0,195.0,156.0,117.0,orange,diamond
0.0,7.0,2.0,1.0,7.0,5.0,2335.9121240000604,3.0,1.0,phase_3,,,,,245.0,5.0,49.0,294.0,98.0,147.0,245.0,196.0,blue,square
0.0,3.0,2.0,0.0,7.0,5.0,1657.759800000349,3.0,1.0,phase_3,,,,,220.0,5.0,264.0,176.0,132.0,88.0,220.0,44.0,yellow,hexagon
0.0,4.0,4.0,0.0,7.0,4.0,1380.2187019991834,3.0,1.0,phase_3,,,,,216.0,4.0,324.0,54.0,162.0,216.0,108.0,270.0,white,flipped triangle
0.0,5.0,0.5,1.0,7.0,2.0,1270.6119800004672,4.0,1.0,phase_3,,,,,234.0,6.0,39.0,234.0,78.0,195.0,117.0,156.0,gray,circle
0.0,8.0,4.0,1.0,7.0,5.0,1720.4738400005226,4.0,1.0,phase_3,,,,,234.0,6.0,195.0,117.0,156.0,39.0,234.0,78.0,magenta,I
0.0,6.0,1.0,1.0,7.0,3.0,2540.9191889993963,4.0,1.0,phase_3,,,,,245.0,5.0,49.0,147.0,245.0,98.0,196.0,294.0,green,triangle
0.0,4.0,4.0,0.0,7.0,6.0,2216.143163999732,4.0,1.0,phase_3,,,,,195.0,5.0,39.0,78.0,156.0,117.0,234.0,195.0,white,flipped triangle
0.0,5.0,0.5,1.0,7.0,4.0,2010.6247639996582,4.0,1.0,phase_3,,,,,220.0,5.0,264.0,132.0,88.0,220.0,44.0,176.0,gray,circle
0.0,5.0,0.5,1.0,7.0,1.0,2730.7282969995867,4.0,1.0,phase_3,,,,,216.0,4.0,216.0,324.0,162.0,54.0,108.0,270.0,gray,circle
0.0,8.0,4.0,1.0,7.0,4.0,1810.7574690002368,4.0,1.0,phase_3,,,,,216.0,4.0,324.0,162.0,54.0,216.0,108.0,270.0,magenta,I
0.0,6.0,1.0,1.0,7.0,1.0,2489.6781839997857,4.0,1.0,phase_3,,,,,204.0,6.0,204.0,170.0,136.0,102.0,68.0,34.0,green,triangle
0.0,4.0,4.0,0.0,7.0,2.0,2143.8609980004912,4.0,1.0,phase_3,,,,,220.0,5.0,264.0,220.0,44.0,176.0,88.0,132.0,white,flipped triangle
0.0,5.0,0.5,1.0,7.0,3.0,1159.1428169995197,4.0,1.0,phase_3,,,,,216.0,4.0,162.0,324.0,216.0,54.0,270.0,108.0,gray,circle
0.0,5.0,0.5,1.0,7.0,5.0,2330.381562999719,4.0,1.0,phase_3,,,,,196.0,4.0,294.0,245.0,98.0,49.0,196.0,147.0,gray,circle
0.0,5.0,0.5,1.0,7.0,1.0,1296.9686070000537,4.0,1.0,phase_3,,,,,204.0,6.0,204.0,170.0,68.0,136.0,34.0,102.0,gray,circle
0.0,6.0,1.0,1.0,7.0,5.0,2747.0255099997303,4.0,1.0,phase_3,,,,,220.0,5.0,44.0,132.0,264.0,88.0,220.0,176.0,green,triangle
0.0,7.0,2.0,1.0,7.0,4.0,3089.8037089991703,4.0,1.0,phase_3,,,,,196.0,4.0,49.0,147.0,98.0,196.0,245.0,294.0,blue,square
0.0,4.0,4.0,0.0,7.0,6.0,3428.523340000538,4.0,1.0,phase_3,,,,,196.0,4.0,245.0,294.0,147.0,98.0,49.0,196.0,white,flipped triangle
0.0,2.0,1.0,0.0,7.0,4.0,3039.8860379991675,4.0,1.0,phase_3,,,,,196.0,4.0,98.0,245.0,147.0,196.0,294.0,49.0,cyan,cross
0.0,5.0,0.5,1.0,7.0,1.0,2976.1431850001827,4.0,1.0,phase_3,,,,,234.0,6.0,234.0,78.0,156.0,117.0,195.0,39.0,gray,circle
0.0,1.0,0.5,0.0,7.0,3.0,2548.9728409993404,4.0,1.0,phase_3,,,,,245.0,5.0,196.0,147.0,245.0,49.0,294.0,98.0,orange,diamond
0.0,4.0,4.0,0.0,7.0,3.0,3128.5781249998763,4.0,1.0,phase_3,,,,,195.0,5.0,156.0,117.0,195.0,39.0,78.0,234.0,white,flipped triangle
0.0,3.0,2.0,0.0,7.0,1.0,1515.843610999582,4.0,1.0,phase_3,,,,,220.0,5.0,220.0,44.0,264.0,88.0,176.0,132.0,yellow,hexagon
