raw_reward_magnitude,stim_reward,stepwise_reward_magnitude,paired_with_stopping,quadrant,response,reaction_time,block,num_trial_presentations,which_part,stop_signal_trial_type,left_SSD,right_SSD,accuracy,chosen_bidding_amount,chosen_bidding_level,possible_bid_1,possible_bid_2,possible_bid_3,possible_bid_4,possible_bid_5,possible_bid_6,color_text,shape_text
398.0,8.0,4.0,1.0,2.0,2.0,386.6249719994812,1.0,1.0,part_1,,,,,,,,,,,,,cyan,cross
0.0,3.0,0.0,0.0,2.0,2.0,310.4463919999034,1.0,1.0,part_1,,,,,,,,,,,,,orange,I
38.0,5.0,1.0,1.0,1.0,1.0,331.7097910003213,1.0,1.0,part_1,,,,,,,,,,,,,gray,square
215.0,7.0,3.0,1.0,3.0,3.0,342.5966069999049,1.0,1.0,part_1,,,,,,,,,,,,,magenta,diamond
380.0,4.0,4.0,0.0,4.0,4.0,284.9104999995688,1.0,1.0,part_1,,,,,,,,,,,,,yellow,flipped triangle
184.0,7.0,3.0,1.0,3.0,3.0,319.9337050000395,1.0,2.0,part_1,,,,,,,,,,,,,magenta,diamond
93.0,2.0,2.0,0.0,2.0,2.0,243.9585070005705,1.0,1.0,part_1,,,,,,,,,,,,,green,circle
0.0,8.0,0.0,1.0,4.0,4.0,459.9403369993524,1.0,1.0,part_1,,,,,,,,,,,,,cyan,cross
195.0,3.0,3.0,0.0,1.0,1.0,288.2240019998789,1.0,1.0,part_1,,,,,,,,,,,,,orange,I
190.0,7.0,3.0,1.0,2.0,2.0,320.4746490000616,1.0,2.0,part_1,,,,,,,,,,,,,magenta,diamond
99.0,6.0,2.0,1.0,1.0,1.0,351.0274119998939,1.0,1.0,part_1,,,,,,,,,,,,,blue,triangle
99.0,6.0,2.0,1.0,4.0,4.0,328.1076249995749,1.0,1.0,part_1,,,,,,,,,,,,,blue,triangle
376.0,8.0,4.0,1.0,4.0,4.0,316.6503370002829,1.0,1.0,part_1,,,,,,,,,,,,,cyan,cross
0.0,7.0,0.0,1.0,2.0,2.0,317.5557930007926,1.0,2.0,part_1,,,,,,,,,,,,,magenta,diamond
111.0,2.0,2.0,0.0,1.0,1.0,307.1735610001269,1.0,1.0,part_1,,,,,,,,,,,,,green,circle
191.0,7.0,3.0,1.0,4.0,4.0,325.7448200001818,1.0,1.0,part_1,,,,,,,,,,,,,magenta,diamond
191.0,7.0,3.0,1.0,1.0,1.0,351.4631670004746,1.0,1.0,part_1,,,,,,,,,,,,,magenta,diamond
215.0,3.0,3.0,0.0,3.0,3.0,319.5808649998071,1.0,1.0,part_1,,,,,,,,,,,,,orange,I
209.0,7.0,3.0,1.0,3.0,3.0,321.7429630003607,1.0,2.0,part_1,,,,,,,,,,,,,magenta,diamond
38.0,1.0,1.0,0.0,3.0,3.0,317.8024929993626,1.0,1.0,part_1,,,,,,,,,,,,,white,hexagon
397.0,4.0,4.0,0.0,3.0,3.0,395.2117400003772,1.0,1.0,part_1,,,,,,,,,,,,,yellow,flipped triangle
212.0,3.0,3.0,0.0,1.0,1.0,353.5094649996608,1.0,1.0,part_1,,,,,,,,,,,,,orange,I
116.0,2.0,2.0,0.0,4.0,4.0,389.5746610005517,1.0,1.0,part_1,,,,,,,,,,,,,green,circle
85.0,2.0,2.0,0.0,2.0,2.0,277.9916050003521,1.0,1.0,part_1,,,,,,,,,,,,,green,circle
177.0,7.0,3.0,1.0,1.0,1.0,320.3207149999798,1.0,1.0,part_1,,,,,,,,,,,,,magenta,diamond
0.0,1.0,0.0,0.0,1.0,1.0,396.9864000000598,1.0,1.0,part_1,,,,,,,,,,,,,white,hexagon
0.0,6.0,0.0,1.0,2.0,2.0,312.3411369997484,1.0,1.0,part_1,,,,,,,,,,,,,blue,triangle
52.0,5.0,1.0,1.0,3.0,3.0,323.2690549994004,1.0,1.0,part_1,,,,,,,,,,,,,gray,square
414.0,4.0,4.0,0.0,3.0,3.0,325.7931240004836,1.0,1.0,part_1,,,,,,,,,,,,,yellow,flipped triangle
30.0,5.0,1.0,1.0,3.0,3.0,284.7584749997622,1.0,1.0,part_1,,,,,,,,,,,,,gray,square
189.0,3.0,3.0,0.0,1.0,1.0,309.9297380003918,1.0,1.0,part_1,,,,,,,,,,,,,orange,I
82.0,2.0,2.0,0.0,2.0,2.0,331.0366760006218,1.0,1.0,part_1,,,,,,,,,,,,,green,circle
31.0,1.0,1.0,0.0,1.0,1.0,272.358553000231,1.0,1.0,part_1,,,,,,,,,,,,,white,hexagon
182.0,7.0,3.0,1.0,2.0,2.0,257.9976819997682,1.0,1.0,part_1,,,,,,,,,,,,,magenta,diamond
422.0,8.0,4.0,1.0,3.0,3.0,354.9446690003606,1.0,1.0,part_1,,,,,,,,,,,,,cyan,cross
70.0,5.0,1.0,1.0,3.0,3.0,303.0902239997886,1.0,1.0,part_1,,,,,,,,,,,,,gray,square
71.0,1.0,1.0,0.0,1.0,1.0,266.8294109998896,1.0,1.0,part_1,,,,,,,,,,,,,white,hexagon
200.0,3.0,3.0,0.0,3.0,3.0,294.2392619997918,1.0,1.0,part_1,,,,,,,,,,,,,orange,I
0.0,1.0,0.0,0.0,2.0,2.0,279.7440839995033,1.0,1.0,part_1,,,,,,,,,,,,,white,hexagon
43.0,1.0,1.0,0.0,1.0,1.0,269.2857040001399,1.0,1.0,part_1,,,,,,,,,,,,,white,hexagon
0.0,5.0,0.0,1.0,2.0,2.0,256.9888309999442,1.0,1.0,part_1,,,,,,,,,,,,,gray,square
419.0,4.0,4.0,0.0,2.0,2.0,283.0836229995839,1.0,1.0,part_1,,,,,,,,,,,,,yellow,flipped triangle
74.0,1.0,1.0,0.0,3.0,3.0,252.64216300001863,1.0,1.0,part_1,,,,,,,,,,,,,white,hexagon
189.0,3.0,3.0,0.0,1.0,1.0,272.2656450005161,1.0,1.0,part_1,,,,,,,,,,,,,orange,I
202.0,7.0,3.0,1.0,2.0,2.0,262.8648909994808,1.0,1.0,part_1,,,,,,,,,,,,,magenta,diamond
376.0,4.0,4.0,0.0,3.0,3.0,337.0224129994312,1.0,1.0,part_1,,,,,,,,,,,,,yellow,flipped triangle
389.0,4.0,4.0,0.0,2.0,2.0,444.2265210000187,1.0,1.0,part_1,,,,,,,,,,,,,yellow,flipped triangle
118.0,2.0,2.0,0.0,3.0,3.0,275.4489349999858,1.0,1.0,part_1,,,,,,,,,,,,,green,circle
178.0,3.0,3.0,0.0,4.0,4.0,308.0893070000456,1.0,1.0,part_1,,,,,,,,,,,,,orange,I
0.0,5.0,0.0,1.0,2.0,2.0,260.0908459999118,1.0,1.0,part_1,,,,,,,,,,,,,gray,square
177.0,3.0,3.0,0.0,1.0,1.0,264.7076589992139,1.0,1.0,part_1,,,,,,,,,,,,,orange,I
401.0,4.0,4.0,0.0,4.0,4.0,307.0644290000928,1.0,1.0,part_1,,,,,,,,,,,,,yellow,flipped triangle
0.0,4.0,0.0,0.0,1.0,1.0,314.81729799997987,1.0,1.0,part_1,,,,,,,,,,,,,yellow,flipped triangle
208.0,3.0,3.0,0.0,4.0,4.0,347.0777359998465,1.0,1.0,part_1,,,,,,,,,,,,,orange,I
404.0,4.0,4.0,0.0,3.0,3.0,318.8543779997417,1.0,1.0,part_1,,,,,,,,,,,,,yellow,flipped triangle
59.0,1.0,1.0,0.0,2.0,2.0,419.0941090000706,1.0,1.0,part_1,,,,,,,,,,,,,white,hexagon
35.0,1.0,1.0,0.0,2.0,2.0,330.2462049996393,1.0,1.0,part_1,,,,,,,,,,,,,white,hexagon
116.0,6.0,2.0,1.0,2.0,2.0,385.3032589995564,1.0,1.0,part_1,,,,,,,,,,,,,blue,triangle
46.0,5.0,1.0,1.0,2.0,2.0,343.8172709993523,1.0,1.0,part_1,,,,,,,,,,,,,gray,square
119.0,2.0,2.0,0.0,2.0,2.0,341.2895009996646,1.0,1.0,part_1,,,,,,,,,,,,,green,circle
49.0,1.0,1.0,0.0,2.0,2.0,282.2499590001825,1.0,1.0,part_1,,,,,,,,,,,,,white,hexagon
0.0,2.0,0.0,0.0,3.0,3.0,297.5770130005912,1.0,1.0,part_1,,,,,,,,,,,,,green,circle
0.0,1.0,0.0,0.0,3.0,3.0,308.3753720002278,1.0,1.0,part_1,,,,,,,,,,,,,white,hexagon
397.0,8.0,4.0,1.0,1.0,1.0,359.6900780003125,1.0,1.0,part_1,,,,,,,,,,,,,cyan,cross
0.0,4.0,0.0,0.0,4.0,4.0,346.0682459999589,1.0,1.0,part_1,,,,,,,,,,,,,yellow,flipped triangle
107.0,6.0,2.0,1.0,1.0,1.0,280.5355919999783,1.0,1.0,part_1,,,,,,,,,,,,,blue,triangle
63.0,5.0,1.0,1.0,3.0,3.0,267.0366089996605,1.0,1.0,part_1,,,,,,,,,,,,,gray,square
405.0,4.0,4.0,0.0,3.0,3.0,313.9417510001294,1.0,1.0,part_1,,,,,,,,,,,,,yellow,flipped triangle
0.0,1.0,0.0,0.0,3.0,3.0,329.1816529999778,1.0,1.0,part_1,,,,,,,,,,,,,white,hexagon
178.0,7.0,3.0,1.0,3.0,3.0,311.3417280001158,1.0,1.0,part_1,,,,,,,,,,,,,magenta,diamond
210.0,7.0,3.0,1.0,4.0,4.0,290.9282489999896,1.0,1.0,part_1,,,,,,,,,,,,,magenta,diamond
218.0,3.0,3.0,0.0,3.0,3.0,264.3478499994671,1.0,1.0,part_1,,,,,,,,,,,,,orange,I
195.0,7.0,3.0,1.0,3.0,3.0,253.5575189995143,1.0,1.0,part_1,,,,,,,,,,,,,magenta,diamond
191.0,3.0,3.0,0.0,2.0,2.0,336.4095899996755,1.0,2.0,part_1,,,,,,,,,,,,,orange,I
380.0,8.0,4.0,1.0,2.0,2.0,322.8080200005934,1.0,1.0,part_1,,,,,,,,,,,,,cyan,cross
96.0,6.0,2.0,1.0,3.0,3.0,265.836725000554,1.0,1.0,part_1,,,,,,,,,,,,,blue,triangle
207.0,7.0,3.0,1.0,3.0,3.0,343.9322219992391,1.0,1.0,part_1,,,,,,,,,,,,,magenta,diamond
0.0,2.0,0.0,0.0,4.0,4.0,348.2876150001175,1.0,1.0,part_1,,,,,,,,,,,,,green,circle
218.0,7.0,3.0,1.0,3.0,3.0,297.2658750004484,1.0,1.0,part_1,,,,,,,,,,,,,magenta,diamond
73.0,5.0,1.0,1.0,4.0,4.0,314.5159089999652,1.0,1.0,part_1,,,,,,,,,,,,,gray,square
198.0,3.0,3.0,0.0,4.0,4.0,319.9353250001877,1.0,1.0,part_1,,,,,,,,,,,,,orange,I
50.0,1.0,1.0,0.0,1.0,1.0,265.2367030004825,1.0,1.0,part_1,,,,,,,,,,,,,white,hexagon
420.0,4.0,4.0,0.0,4.0,4.0,265.5289470003481,1.0,1.0,part_1,,,,,,,,,,,,,yellow,flipped triangle
191.0,3.0,3.0,0.0,3.0,3.0,386.481411999739,1.0,1.0,part_1,,,,,,,,,,,,,orange,I
215.0,3.0,3.0,0.0,1.0,1.0,285.953642000095,1.0,1.0,part_1,,,,,,,,,,,,,orange,I
404.0,4.0,4.0,0.0,1.0,1.0,333.168731999649,1.0,2.0,part_1,,,,,,,,,,,,,yellow,flipped triangle
88.0,2.0,2.0,0.0,4.0,4.0,296.140983999976,1.0,1.0,part_1,,,,,,,,,,,,,green,circle
0.0,3.0,0.0,0.0,2.0,2.0,280.2662450003481,1.0,1.0,part_1,,,,,,,,,,,,,orange,I
41.0,5.0,1.0,1.0,4.0,4.0,273.8529599992034,1.0,1.0,part_1,,,,,,,,,,,,,gray,square
0.0,2.0,0.0,0.0,3.0,3.0,283.9015399995332,1.0,1.0,part_1,,,,,,,,,,,,,green,circle
35.0,5.0,1.0,1.0,2.0,2.0,336.5078229999199,1.0,1.0,part_1,,,,,,,,,,,,,gray,square
205.0,3.0,3.0,0.0,2.0,2.0,293.2283720001578,1.0,1.0,part_1,,,,,,,,,,,,,orange,I
103.0,2.0,2.0,0.0,1.0,1.0,291.6439810005613,1.0,1.0,part_1,,,,,,,,,,,,,green,circle
413.0,4.0,4.0,0.0,2.0,2.0,255.16424300076318,1.0,1.0,part_1,,,,,,,,,,,,,yellow,flipped triangle
0.0,4.0,0.0,0.0,3.0,3.0,272.6508149999063,1.0,1.0,part_1,,,,,,,,,,,,,yellow,flipped triangle
49.0,5.0,1.0,1.0,2.0,2.0,281.8058379998547,1.0,1.0,part_1,,,,,,,,,,,,,gray,square
209.0,3.0,3.0,0.0,4.0,4.0,310.4292910002186,1.0,1.0,part_1,,,,,,,,,,,,,orange,I
55.0,1.0,1.0,0.0,2.0,2.0,264.6536909996939,1.0,1.0,part_1,,,,,,,,,,,,,white,hexagon
190.0,3.0,3.0,0.0,3.0,3.0,306.0603229996559,1.0,1.0,part_1,,,,,,,,,,,,,orange,I
70.0,1.0,1.0,0.0,1.0,1.0,310.3940739993049,1.0,1.0,part_1,,,,,,,,,,,,,white,hexagon
0.0,8.0,0.0,1.0,3.0,3.0,364.8212640000565,2.0,1.0,part_1,,,,,,,,,,,,,cyan,cross
215.0,7.0,3.0,1.0,1.0,1.0,317.9131339993546,2.0,1.0,part_1,,,,,,,,,,,,,magenta,diamond
51.0,1.0,1.0,0.0,3.0,3.0,303.5989579993838,2.0,1.0,part_1,,,,,,,,,,,,,white,hexagon
103.0,6.0,2.0,1.0,1.0,1.0,348.3657639999364,2.0,1.0,part_1,,,,,,,,,,,,,blue,triangle
0.0,2.0,0.0,0.0,2.0,2.0,258.3726940001725,2.0,1.0,part_1,,,,,,,,,,,,,green,circle
105.0,2.0,2.0,0.0,2.0,2.0,301.0948159999316,2.0,1.0,part_1,,,,,,,,,,,,,green,circle
382.0,8.0,4.0,1.0,3.0,3.0,282.9218759998184,2.0,1.0,part_1,,,,,,,,,,,,,cyan,cross
46.0,1.0,1.0,0.0,3.0,3.0,277.3682770002779,2.0,1.0,part_1,,,,,,,,,,,,,white,hexagon
99.0,2.0,2.0,0.0,3.0,3.0,270.7314669996776,2.0,1.0,part_1,,,,,,,,,,,,,green,circle
118.0,2.0,2.0,0.0,2.0,2.0,402.34888999930257,2.0,1.0,part_1,,,,,,,,,,,,,green,circle
0.0,7.0,0.0,1.0,1.0,1.0,303.2474439996804,2.0,1.0,part_1,,,,,,,,,,,,,magenta,diamond
28.0,5.0,1.0,1.0,2.0,2.0,269.5524359996852,2.0,1.0,part_1,,,,,,,,,,,,,gray,square
420.0,8.0,4.0,1.0,1.0,1.0,290.6867649999185,2.0,1.0,part_1,,,,,,,,,,,,,cyan,cross
68.0,5.0,1.0,1.0,1.0,1.0,358.9305539999259,2.0,1.0,part_1,,,,,,,,,,,,,gray,square
113.0,6.0,2.0,1.0,4.0,4.0,303.4306750005271,2.0,1.0,part_1,,,,,,,,,,,,,blue,triangle
73.0,1.0,1.0,0.0,4.0,4.0,261.6482869998435,2.0,1.0,part_1,,,,,,,,,,,,,white,hexagon
26.0,5.0,1.0,1.0,4.0,4.0,361.9447629998831,2.0,1.0,part_1,,,,,,,,,,,,,gray,square
0.0,7.0,0.0,1.0,4.0,4.0,299.5546819993251,2.0,1.0,part_1,,,,,,,,,,,,,magenta,diamond
57.0,1.0,1.0,0.0,1.0,1.0,344.387189000372,2.0,1.0,part_1,,,,,,,,,,,,,white,hexagon
190.0,3.0,3.0,0.0,2.0,2.0,353.8807619997897,2.0,1.0,part_1,,,,,,,,,,,,,orange,I
0.0,2.0,0.0,0.0,4.0,4.0,275.7578529999591,2.0,1.0,part_1,,,,,,,,,,,,,green,circle
192.0,3.0,3.0,0.0,1.0,1.0,284.9705009994068,2.0,1.0,part_1,,,,,,,,,,,,,orange,I
0.0,3.0,0.0,0.0,3.0,3.0,293.5040409993235,2.0,1.0,part_1,,,,,,,,,,,,,orange,I
46.0,5.0,1.0,1.0,1.0,1.0,253.27368600028421,2.0,1.0,part_1,,,,,,,,,,,,,gray,square
183.0,3.0,3.0,0.0,1.0,1.0,291.7484090003199,2.0,1.0,part_1,,,,,,,,,,,,,orange,I
0.0,5.0,0.0,1.0,3.0,3.0,284.0365700003531,2.0,1.0,part_1,,,,,,,,,,,,,gray,square
200.0,7.0,3.0,1.0,1.0,1.0,262.6987940002436,2.0,1.0,part_1,,,,,,,,,,,,,magenta,diamond
416.0,8.0,4.0,1.0,4.0,4.0,339.8861030000262,2.0,1.0,part_1,,,,,,,,,,,,,cyan,cross
31.0,5.0,1.0,1.0,3.0,3.0,296.1067969999931,2.0,1.0,part_1,,,,,,,,,,,,,gray,square
50.0,1.0,1.0,0.0,3.0,3.0,301.3807950001137,2.0,1.0,part_1,,,,,,,,,,,,,white,hexagon
99.0,2.0,2.0,0.0,3.0,3.0,336.5349659998173,2.0,1.0,part_1,,,,,,,,,,,,,green,circle
412.0,8.0,4.0,1.0,1.0,1.0,286.394355000084,2.0,1.0,part_1,,,,,,,,,,,,,cyan,cross
77.0,2.0,2.0,0.0,1.0,1.0,333.3363120000285,2.0,1.0,part_1,,,,,,,,,,,,,green,circle
419.0,8.0,4.0,1.0,3.0,3.0,266.7017719995783,2.0,1.0,part_1,,,,,,,,,,,,,cyan,cross
0.0,1.0,0.0,0.0,2.0,2.0,296.510944000147,2.0,1.0,part_1,,,,,,,,,,,,,white,hexagon
0.0,6.0,0.0,1.0,1.0,1.0,323.9851899998029,2.0,1.0,part_1,,,,,,,,,,,,,blue,triangle
205.0,7.0,3.0,1.0,1.0,1.0,291.0918620000302,2.0,1.0,part_1,,,,,,,,,,,,,magenta,diamond
98.0,2.0,2.0,0.0,4.0,4.0,336.7021710000699,2.0,1.0,part_1,,,,,,,,,,,,,green,circle
0.0,2.0,0.0,0.0,2.0,2.0,268.3160760007013,2.0,1.0,part_1,,,,,,,,,,,,,green,circle
0.0,1.0,0.0,0.0,1.0,1.0,214.9297969999679,2.0,1.0,part_1,,,,,,,,,,,,,white,hexagon
97.0,6.0,2.0,1.0,3.0,3.0,327.7241779996984,2.0,1.0,part_1,,,,,,,,,,,,,blue,triangle
124.0,2.0,2.0,0.0,2.0,2.0,243.4282559997882,2.0,1.0,part_1,,,,,,,,,,,,,green,circle
185.0,3.0,3.0,0.0,4.0,4.0,335.2494259997911,2.0,1.0,part_1,,,,,,,,,,,,,orange,I
425.0,8.0,4.0,1.0,4.0,4.0,468.5941920006371,2.0,1.0,part_1,,,,,,,,,,,,,cyan,cross
220.0,3.0,3.0,0.0,3.0,3.0,276.9853230001899,2.0,1.0,part_1,,,,,,,,,,,,,orange,I
121.0,6.0,2.0,1.0,4.0,4.0,281.7290579996552,2.0,1.0,part_1,,,,,,,,,,,,,blue,triangle
0.0,8.0,0.0,1.0,3.0,3.0,284.2773829997895,2.0,1.0,part_1,,,,,,,,,,,,,cyan,cross
425.0,4.0,4.0,0.0,3.0,3.0,316.313889000412,2.0,1.0,part_1,,,,,,,,,,,,,yellow,flipped triangle
0.0,8.0,0.0,1.0,2.0,2.0,267.1618430003946,2.0,1.0,part_1,,,,,,,,,,,,,cyan,cross
411.0,4.0,4.0,0.0,1.0,1.0,295.0603400004183,2.0,1.0,part_1,,,,,,,,,,,,,yellow,flipped triangle
85.0,6.0,2.0,1.0,2.0,2.0,285.7413519996044,2.0,1.0,part_1,,,,,,,,,,,,,blue,triangle
30.0,1.0,1.0,0.0,2.0,2.0,317.3824010000317,2.0,1.0,part_1,,,,,,,,,,,,,white,hexagon
179.0,7.0,3.0,1.0,1.0,1.0,283.95270800047,2.0,1.0,part_1,,,,,,,,,,,,,magenta,diamond
382.0,4.0,4.0,0.0,1.0,1.0,410.54978800002567,2.0,1.0,part_1,,,,,,,,,,,,,yellow,flipped triangle
225.0,7.0,3.0,1.0,4.0,4.0,357.8401450004094,2.0,1.0,part_1,,,,,,,,,,,,,magenta,diamond
380.0,8.0,4.0,1.0,4.0,4.0,262.0472590006102,2.0,1.0,part_1,,,,,,,,,,,,,cyan,cross
413.0,8.0,4.0,1.0,2.0,2.0,240.045339000062,2.0,1.0,part_1,,,,,,,,,,,,,cyan,cross
208.0,7.0,3.0,1.0,3.0,3.0,337.8310180005428,2.0,1.0,part_1,,,,,,,,,,,,,magenta,diamond
71.0,5.0,1.0,1.0,3.0,3.0,271.0396980000951,2.0,1.0,part_1,,,,,,,,,,,,,gray,square
378.0,8.0,4.0,1.0,4.0,4.0,346.5355549997184,2.0,1.0,part_1,,,,,,,,,,,,,cyan,cross
399.0,8.0,4.0,1.0,4.0,4.0,270.5996750000849,2.0,1.0,part_1,,,,,,,,,,,,,cyan,cross
44.0,1.0,1.0,0.0,4.0,4.0,283.6339079995014,2.0,1.0,part_1,,,,,,,,,,,,,white,hexagon
124.0,6.0,2.0,1.0,4.0,4.0,246.0220670000126,2.0,1.0,part_1,,,,,,,,,,,,,blue,triangle
0.0,7.0,0.0,1.0,3.0,3.0,286.6110469994964,2.0,1.0,part_1,,,,,,,,,,,,,magenta,diamond
179.0,3.0,3.0,0.0,2.0,2.0,301.2031199996272,2.0,1.0,part_1,,,,,,,,,,,,,orange,I
217.0,3.0,3.0,0.0,2.0,2.0,245.3464110003551,2.0,2.0,part_1,,,,,,,,,,,,,orange,I
0.0,3.0,0.0,0.0,4.0,4.0,490.1939439996567,2.0,1.0,part_1,,,,,,,,,,,,,orange,I
189.0,7.0,3.0,1.0,4.0,4.0,274.9428090000947,2.0,1.0,part_1,,,,,,,,,,,,,magenta,diamond
75.0,1.0,1.0,0.0,1.0,1.0,241.8422900000223,2.0,1.0,part_1,,,,,,,,,,,,,white,hexagon
0.0,7.0,0.0,1.0,4.0,4.0,221.4008800001465,2.0,1.0,part_1,,,,,,,,,,,,,magenta,diamond
0.0,3.0,0.0,0.0,4.0,4.0,253.51362099991093,2.0,1.0,part_1,,,,,,,,,,,,,orange,I
207.0,3.0,3.0,0.0,2.0,2.0,295.9694529999979,2.0,1.0,part_1,,,,,,,,,,,,,orange,I
86.0,6.0,2.0,1.0,3.0,3.0,335.0567070001489,2.0,1.0,part_1,,,,,,,,,,,,,blue,triangle
209.0,7.0,3.0,1.0,2.0,2.0,509.546741000122,2.0,1.0,part_1,,,,,,,,,,,,,magenta,diamond
199.0,7.0,3.0,1.0,4.0,4.0,267.4116899997898,2.0,1.0,part_1,,,,,,,,,,,,,magenta,diamond
217.0,7.0,3.0,1.0,1.0,1.0,237.1641230001842,2.0,1.0,part_1,,,,,,,,,,,,,magenta,diamond
204.0,7.0,3.0,1.0,2.0,2.0,281.4013090001026,2.0,1.0,part_1,,,,,,,,,,,,,magenta,diamond
75.0,6.0,2.0,1.0,3.0,3.0,368.26061600004317,2.0,1.0,part_1,,,,,,,,,,,,,blue,triangle
190.0,7.0,3.0,1.0,2.0,2.0,366.8483189994731,2.0,1.0,part_1,,,,,,,,,,,,,magenta,diamond
223.0,3.0,3.0,0.0,1.0,1.0,251.5807939998922,2.0,1.0,part_1,,,,,,,,,,,,,orange,I
184.0,3.0,3.0,0.0,4.0,4.0,313.0924500001129,2.0,1.0,part_1,,,,,,,,,,,,,orange,I
210.0,3.0,3.0,0.0,3.0,3.0,323.5730590004095,2.0,1.0,part_1,,,,,,,,,,,,,orange,I
0.0,8.0,0.0,1.0,4.0,4.0,298.9438640006483,2.0,1.0,part_1,,,,,,,,,,,,,cyan,cross
75.0,2.0,2.0,0.0,4.0,4.0,303.5580900004788,2.0,1.0,part_1,,,,,,,,,,,,,green,circle
399.0,4.0,4.0,0.0,3.0,3.0,248.7735040003826,2.0,1.0,part_1,,,,,,,,,,,,,yellow,flipped triangle
406.0,8.0,4.0,1.0,4.0,4.0,297.4033480004436,2.0,1.0,part_1,,,,,,,,,,,,,cyan,cross
61.0,5.0,1.0,1.0,2.0,2.0,239.1887009998754,2.0,1.0,part_1,,,,,,,,,,,,,gray,square
102.0,2.0,2.0,0.0,3.0,3.0,269.0715720000298,2.0,1.0,part_1,,,,,,,,,,,,,green,circle
214.0,3.0,3.0,0.0,3.0,3.0,319.3680160002259,2.0,1.0,part_1,,,,,,,,,,,,,orange,I
50.0,5.0,1.0,1.0,2.0,2.0,291.9596570000067,2.0,1.0,part_1,,,,,,,,,,,,,gray,square
66.0,1.0,1.0,0.0,3.0,3.0,317.76404999982327,2.0,1.0,part_1,,,,,,,,,,,,,white,hexagon
0.0,7.0,0.0,1.0,2.0,2.0,305.1142839995009,2.0,1.0,part_1,,,,,,,,,,,,,magenta,diamond
0.0,5.0,0.0,1.0,1.0,1.0,290.3849569993326,2.0,1.0,part_1,,,,,,,,,,,,,gray,square
418.0,4.0,4.0,0.0,3.0,3.0,300.9563019995767,2.0,2.0,part_1,,,,,,,,,,,,,yellow,flipped triangle
0.0,4.0,0.0,0.0,3.0,3.0,317.9309710003508,2.0,1.0,part_1,,,,,,,,,,,,,yellow,flipped triangle
74.0,5.0,1.0,1.0,1.0,1.0,314.2858060000435,2.0,2.0,part_1,,,,,,,,,,,,,gray,square
81.0,6.0,2.0,1.0,1.0,1.0,384.2539830002351,2.0,1.0,part_1,,,,,,,,,,,,,blue,triangle
51.0,5.0,1.0,1.0,4.0,4.0,322.4694400005319,2.0,1.0,part_1,,,,,,,,,,,,,gray,square
382.0,4.0,4.0,0.0,1.0,1.0,461.2642849997428,2.0,1.0,part_1,,,,,,,,,,,,,yellow,flipped triangle
121.0,2.0,2.0,0.0,4.0,4.0,282.2792639999534,2.0,1.0,part_1,,,,,,,,,,,,,green,circle
0.0,4.0,0.0,0.0,4.0,4.0,380.8982209993701,3.0,1.0,part_1,,,,,,,,,,,,,yellow,flipped triangle
0.0,5.0,0.0,1.0,4.0,4.0,320.363515000281,3.0,1.0,part_1,,,,,,,,,,,,,gray,square
0.0,3.0,0.0,0.0,2.0,2.0,328.0128350006634,3.0,1.0,part_1,,,,,,,,,,,,,orange,I
0.0,4.0,0.0,0.0,2.0,2.0,343.43711099973,3.0,1.0,part_1,,,,,,,,,,,,,yellow,flipped triangle
66.0,5.0,1.0,1.0,1.0,1.0,281.9811499994102,3.0,1.0,part_1,,,,,,,,,,,,,gray,square
420.0,4.0,4.0,0.0,4.0,4.0,274.9469330001375,3.0,1.0,part_1,,,,,,,,,,,,,yellow,flipped triangle
208.0,3.0,3.0,0.0,4.0,4.0,299.4527869996091,3.0,1.0,part_1,,,,,,,,,,,,,orange,I
398.0,4.0,4.0,0.0,3.0,3.0,304.3096199999127,3.0,1.0,part_1,,,,,,,,,,,,,yellow,flipped triangle
0.0,6.0,0.0,1.0,3.0,3.0,344.4217509995724,3.0,1.0,part_1,,,,,,,,,,,,,blue,triangle
0.0,8.0,0.0,1.0,1.0,1.0,361.9985080003971,3.0,1.0,part_1,,,,,,,,,,,,,cyan,cross
98.0,6.0,2.0,1.0,4.0,4.0,307.8767169999992,3.0,1.0,part_1,,,,,,,,,,,,,blue,triangle
0.0,6.0,0.0,1.0,1.0,1.0,459.6447800004171,3.0,1.0,part_1,,,,,,,,,,,,,blue,triangle
0.0,6.0,0.0,1.0,3.0,3.0,276.4612870005294,3.0,1.0,part_1,,,,,,,,,,,,,blue,triangle
378.0,4.0,4.0,0.0,2.0,2.0,324.5526909995533,3.0,1.0,part_1,,,,,,,,,,,,,yellow,flipped triangle
376.0,8.0,4.0,1.0,3.0,3.0,498.7439440001253,3.0,1.0,part_1,,,,,,,,,,,,,cyan,cross
118.0,6.0,2.0,1.0,1.0,1.0,307.621270000709,3.0,1.0,part_1,,,,,,,,,,,,,blue,triangle
0.0,1.0,0.0,0.0,1.0,1.0,328.3948510006667,3.0,1.0,part_1,,,,,,,,,,,,,white,hexagon
0.0,4.0,0.0,0.0,2.0,2.0,353.0562779997126,3.0,1.0,part_1,,,,,,,,,,,,,yellow,flipped triangle
75.0,5.0,1.0,1.0,4.0,4.0,291.3110479994429,3.0,1.0,part_1,,,,,,,,,,,,,gray,square
91.0,2.0,2.0,0.0,1.0,1.0,323.4593080005652,3.0,1.0,part_1,,,,,,,,,,,,,green,circle
43.0,5.0,1.0,1.0,2.0,2.0,318.1866969998737,3.0,1.0,part_1,,,,,,,,,,,,,gray,square
416.0,8.0,4.0,1.0,1.0,1.0,302.9576720000477,3.0,1.0,part_1,,,,,,,,,,,,,cyan,cross
199.0,3.0,3.0,0.0,2.0,2.0,256.29348299935367,3.0,1.0,part_1,,,,,,,,,,,,,orange,I
392.0,4.0,4.0,0.0,4.0,4.0,309.4293539998034,3.0,1.0,part_1,,,,,,,,,,,,,yellow,flipped triangle
111.0,6.0,2.0,1.0,1.0,1.0,418.6686769999141,3.0,1.0,part_1,,,,,,,,,,,,,blue,triangle
411.0,8.0,4.0,1.0,2.0,2.0,253.18794700069702,3.0,1.0,part_1,,,,,,,,,,,,,cyan,cross
82.0,6.0,2.0,1.0,2.0,2.0,303.5868799997843,3.0,1.0,part_1,,,,,,,,,,,,,blue,triangle
36.0,1.0,1.0,0.0,4.0,4.0,254.92567099990993,3.0,1.0,part_1,,,,,,,,,,,,,white,hexagon
386.0,8.0,4.0,1.0,3.0,3.0,384.6644659997764,3.0,1.0,part_1,,,,,,,,,,,,,cyan,cross
212.0,7.0,3.0,1.0,4.0,4.0,288.5042860007161,3.0,1.0,part_1,,,,,,,,,,,,,magenta,diamond
0.0,2.0,0.0,0.0,4.0,4.0,271.7391170008341,3.0,1.0,part_1,,,,,,,,,,,,,green,circle
57.0,5.0,1.0,1.0,4.0,4.0,270.0198989996352,3.0,1.0,part_1,,,,,,,,,,,,,gray,square
220.0,7.0,3.0,1.0,4.0,4.0,283.1353920000765,3.0,1.0,part_1,,,,,,,,,,,,,magenta,diamond
81.0,2.0,2.0,0.0,1.0,1.0,269.44420899963,3.0,1.0,part_1,,,,,,,,,,,,,green,circle
49.0,1.0,1.0,0.0,3.0,3.0,227.6206520000414,3.0,1.0,part_1,,,,,,,,,,,,,white,hexagon
208.0,7.0,3.0,1.0,4.0,4.0,271.0815370001,3.0,1.0,part_1,,,,,,,,,,,,,magenta,diamond
30.0,5.0,1.0,1.0,3.0,3.0,247.8135549999933,3.0,1.0,part_1,,,,,,,,,,,,,gray,square
380.0,8.0,4.0,1.0,4.0,4.0,211.8092450000404,3.0,1.0,part_1,,,,,,,,,,,,,cyan,cross
185.0,7.0,3.0,1.0,1.0,1.0,297.4305469997489,3.0,1.0,part_1,,,,,,,,,,,,,magenta,diamond
0.0,4.0,0.0,0.0,1.0,1.0,265.0053510005818,3.0,1.0,part_1,,,,,,,,,,,,,yellow,flipped triangle
0.0,6.0,0.0,1.0,4.0,4.0,289.2247469999347,3.0,1.0,part_1,,,,,,,,,,,,,blue,triangle
114.0,6.0,2.0,1.0,4.0,4.0,272.3051309994844,3.0,1.0,part_1,,,,,,,,,,,,,blue,triangle
185.0,7.0,3.0,1.0,4.0,4.0,292.2744689994943,3.0,1.0,part_1,,,,,,,,,,,,,magenta,diamond
40.0,1.0,1.0,0.0,4.0,4.0,262.0232870003747,3.0,1.0,part_1,,,,,,,,,,,,,white,hexagon
105.0,6.0,2.0,1.0,4.0,4.0,260.8525030000237,3.0,1.0,part_1,,,,,,,,,,,,,blue,triangle
119.0,6.0,2.0,1.0,2.0,2.0,285.7751250003275,3.0,1.0,part_1,,,,,,,,,,,,,blue,triangle
59.0,5.0,1.0,1.0,3.0,3.0,249.475609000001,3.0,1.0,part_1,,,,,,,,,,,,,gray,square
56.0,5.0,1.0,1.0,1.0,1.0,328.1236120001267,3.0,1.0,part_1,,,,,,,,,,,,,gray,square
393.0,4.0,4.0,0.0,2.0,2.0,284.2657979999785,3.0,1.0,part_1,,,,,,,,,,,,,yellow,flipped triangle
91.0,6.0,2.0,1.0,1.0,1.0,243.5983159994066,3.0,1.0,part_1,,,,,,,,,,,,,blue,triangle
217.0,7.0,3.0,1.0,3.0,3.0,321.9469960004062,3.0,1.0,part_1,,,,,,,,,,,,,magenta,diamond
68.0,1.0,1.0,0.0,4.0,4.0,275.1104409999243,3.0,1.0,part_1,,,,,,,,,,,,,white,hexagon
391.0,4.0,4.0,0.0,1.0,1.0,274.8144800007139,3.0,1.0,part_1,,,,,,,,,,,,,yellow,flipped triangle
217.0,3.0,3.0,0.0,4.0,4.0,254.2538719999356,3.0,1.0,part_1,,,,,,,,,,,,,orange,I
49.0,5.0,1.0,1.0,1.0,1.0,333.0994549996831,3.0,1.0,part_1,,,,,,,,,,,,,gray,square
192.0,7.0,3.0,1.0,3.0,3.0,229.391005999787,3.0,1.0,part_1,,,,,,,,,,,,,magenta,diamond
99.0,2.0,2.0,0.0,2.0,2.0,239.0077609998115,3.0,1.0,part_1,,,,,,,,,,,,,green,circle
34.0,5.0,1.0,1.0,2.0,2.0,269.0968420001809,3.0,1.0,part_1,,,,,,,,,,,,,gray,square
50.0,5.0,1.0,1.0,2.0,2.0,256.9232040004863,3.0,2.0,part_1,,,,,,,,,,,,,gray,square
42.0,1.0,1.0,0.0,4.0,4.0,360.9087570002884,3.0,1.0,part_1,,,,,,,,,,,,,white,hexagon
121.0,2.0,2.0,0.0,3.0,3.0,272.1907730001476,3.0,1.0,part_1,,,,,,,,,,,,,green,circle
87.0,6.0,2.0,1.0,4.0,4.0,276.2213919995702,3.0,1.0,part_1,,,,,,,,,,,,,blue,triangle
404.0,8.0,4.0,1.0,1.0,1.0,336.6628310004671,3.0,1.0,part_1,,,,,,,,,,,,,cyan,cross
0.0,6.0,0.0,1.0,1.0,1.0,286.6130149996024,3.0,1.0,part_1,,,,,,,,,,,,,blue,triangle
0.0,3.0,0.0,0.0,1.0,1.0,288.991082999928,3.0,1.0,part_1,,,,,,,,,,,,,orange,I
418.0,8.0,4.0,1.0,2.0,2.0,261.3539570002103,3.0,1.0,part_1,,,,,,,,,,,,,cyan,cross
118.0,6.0,2.0,1.0,2.0,2.0,268.0745659999957,3.0,1.0,part_1,,,,,,,,,,,,,blue,triangle
103.0,6.0,2.0,1.0,3.0,3.0,300.6637200005571,3.0,2.0,part_1,,,,,,,,,,,,,blue,triangle
89.0,2.0,2.0,0.0,1.0,1.0,356.9347189995824,3.0,1.0,part_1,,,,,,,,,,,,,green,circle
51.0,1.0,1.0,0.0,2.0,2.0,311.54788799995,3.0,1.0,part_1,,,,,,,,,,,,,white,hexagon
30.0,1.0,1.0,0.0,2.0,2.0,281.7289180002262,3.0,1.0,part_1,,,,,,,,,,,,,white,hexagon
0.0,5.0,0.0,1.0,4.0,4.0,307.7185550000649,3.0,1.0,part_1,,,,,,,,,,,,,gray,square
183.0,7.0,3.0,1.0,1.0,1.0,320.2154950004114,3.0,1.0,part_1,,,,,,,,,,,,,magenta,diamond
26.0,1.0,1.0,0.0,4.0,4.0,307.2832239995477,3.0,1.0,part_1,,,,,,,,,,,,,white,hexagon
386.0,4.0,4.0,0.0,1.0,1.0,290.3504229998361,3.0,1.0,part_1,,,,,,,,,,,,,yellow,flipped triangle
88.0,6.0,2.0,1.0,4.0,4.0,287.5880669998878,3.0,2.0,part_1,,,,,,,,,,,,,blue,triangle
96.0,2.0,2.0,0.0,3.0,3.0,267.4427199999627,3.0,1.0,part_1,,,,,,,,,,,,,green,circle
76.0,2.0,2.0,0.0,4.0,4.0,279.4259399997827,3.0,1.0,part_1,,,,,,,,,,,,,green,circle
185.0,3.0,3.0,0.0,3.0,3.0,355.1428660002784,3.0,1.0,part_1,,,,,,,,,,,,,orange,I
121.0,6.0,2.0,1.0,4.0,4.0,248.1225289993744,3.0,1.0,part_1,,,,,,,,,,,,,blue,triangle
93.0,6.0,2.0,1.0,3.0,3.0,331.4350190003097,3.0,1.0,part_1,,,,,,,,,,,,,blue,triangle
0.0,6.0,0.0,1.0,4.0,4.0,259.9316509995333,3.0,1.0,part_1,,,,,,,,,,,,,blue,triangle
420.0,4.0,4.0,0.0,2.0,2.0,257.3979509998025,3.0,1.0,part_1,,,,,,,,,,,,,yellow,flipped triangle
114.0,2.0,2.0,0.0,4.0,4.0,272.3193000001629,3.0,1.0,part_1,,,,,,,,,,,,,green,circle
0.0,8.0,0.0,1.0,1.0,1.0,272.7625150000676,3.0,1.0,part_1,,,,,,,,,,,,,cyan,cross
204.0,3.0,3.0,0.0,1.0,1.0,311.3101680000909,3.0,1.0,part_1,,,,,,,,,,,,,orange,I
93.0,2.0,2.0,0.0,1.0,1.0,311.3230560002193,3.0,1.0,part_1,,,,,,,,,,,,,green,circle
0.0,7.0,0.0,1.0,2.0,2.0,473.1799130004219,3.0,1.0,part_1,,,,,,,,,,,,,magenta,diamond
61.0,1.0,1.0,0.0,1.0,1.0,262.6799379995645,3.0,1.0,part_1,,,,,,,,,,,,,white,hexagon
405.0,8.0,4.0,1.0,1.0,1.0,333.9279709998664,3.0,1.0,part_1,,,,,,,,,,,,,cyan,cross
382.0,8.0,4.0,1.0,2.0,2.0,314.4172199999957,3.0,2.0,part_1,,,,,,,,,,,,,cyan,cross
112.0,2.0,2.0,0.0,1.0,1.0,309.2444619996968,3.0,1.0,part_1,,,,,,,,,,,,,green,circle
86.0,2.0,2.0,0.0,2.0,2.0,317.0733509996353,3.0,1.0,part_1,,,,,,,,,,,,,green,circle
77.0,6.0,2.0,1.0,2.0,2.0,299.4267770000078,3.0,2.0,part_1,,,,,,,,,,,,,blue,triangle
76.0,6.0,2.0,1.0,3.0,3.0,325.1926149996507,3.0,1.0,part_1,,,,,,,,,,,,,blue,triangle
0.0,8.0,0.0,1.0,4.0,4.0,327.0676980000644,3.0,1.0,part_1,,,,,,,,,,,,,cyan,cross
0.0,1.0,0.0,0.0,2.0,2.0,280.5384499997672,3.0,1.0,part_1,,,,,,,,,,,,,white,hexagon
0.0,2.0,0.0,0.0,2.0,2.0,279.9376020002455,3.0,1.0,part_1,,,,,,,,,,,,,green,circle
0.0,5.0,0.0,1.0,3.0,3.0,339.0052710001328,3.0,1.0,part_1,,,,,,,,,,,,,gray,square
44.0,5.0,1.0,1.0,3.0,3.0,314.3169420000049,3.0,1.0,part_1,,,,,,,,,,,,,gray,square
56.0,1.0,1.0,0.0,2.0,2.0,324.5182479995492,4.0,1.0,part_1,,,,,,,,,,,,,white,hexagon
95.0,2.0,2.0,0.0,3.0,3.0,307.8757299999779,4.0,1.0,part_1,,,,,,,,,,,,,green,circle
406.0,4.0,4.0,0.0,2.0,2.0,263.5064400001283,4.0,1.0,part_1,,,,,,,,,,,,,yellow,flipped triangle
85.0,6.0,2.0,1.0,3.0,3.0,275.7643630002349,4.0,1.0,part_1,,,,,,,,,,,,,blue,triangle
93.0,6.0,2.0,1.0,2.0,2.0,341.8831910003064,4.0,1.0,part_1,,,,,,,,,,,,,blue,triangle
0.0,2.0,0.0,0.0,4.0,4.0,317.3103389999596,4.0,1.0,part_1,,,,,,,,,,,,,green,circle
63.0,1.0,1.0,0.0,4.0,4.0,286.2139250000837,4.0,1.0,part_1,,,,,,,,,,,,,white,hexagon
392.0,8.0,4.0,1.0,3.0,3.0,241.2851420003789,4.0,1.0,part_1,,,,,,,,,,,,,cyan,cross
0.0,8.0,0.0,1.0,2.0,2.0,237.2714610000912,4.0,1.0,part_1,,,,,,,,,,,,,cyan,cross
0.0,1.0,0.0,0.0,1.0,1.0,253.39588000042568,4.0,1.0,part_1,,,,,,,,,,,,,white,hexagon
389.0,8.0,4.0,1.0,2.0,2.0,229.6414599995841,4.0,1.0,part_1,,,,,,,,,,,,,cyan,cross
0.0,4.0,0.0,0.0,3.0,3.0,321.0255570002118,4.0,2.0,part_1,,,,,,,,,,,,,yellow,flipped triangle
420.0,8.0,4.0,1.0,4.0,4.0,347.7992009993613,4.0,1.0,part_1,,,,,,,,,,,,,cyan,cross
0.0,5.0,0.0,1.0,3.0,3.0,335.8402570001999,4.0,1.0,part_1,,,,,,,,,,,,,gray,square
207.0,7.0,3.0,1.0,4.0,4.0,337.011540000276,4.0,1.0,part_1,,,,,,,,,,,,,magenta,diamond
401.0,8.0,4.0,1.0,2.0,2.0,268.0617870000787,4.0,1.0,part_1,,,,,,,,,,,,,cyan,cross
65.0,5.0,1.0,1.0,4.0,4.0,278.4969320000527,4.0,1.0,part_1,,,,,,,,,,,,,gray,square
184.0,3.0,3.0,0.0,4.0,4.0,296.7418559992438,4.0,1.0,part_1,,,,,,,,,,,,,orange,I
51.0,5.0,1.0,1.0,1.0,1.0,296.1048899996967,4.0,1.0,part_1,,,,,,,,,,,,,gray,square
422.0,4.0,4.0,0.0,1.0,1.0,454.663630000141,4.0,1.0,part_1,,,,,,,,,,,,,yellow,flipped triangle
0.0,3.0,0.0,0.0,4.0,4.0,296.1793389995364,4.0,1.0,part_1,,,,,,,,,,,,,orange,I
376.0,8.0,4.0,1.0,1.0,1.0,301.8898850004916,4.0,1.0,part_1,,,,,,,,,,,,,cyan,cross
412.0,4.0,4.0,0.0,4.0,4.0,293.0550700002641,4.0,1.0,part_1,,,,,,,,,,,,,yellow,flipped triangle
0.0,5.0,0.0,1.0,4.0,4.0,344.2661479994058,4.0,1.0,part_1,,,,,,,,,,,,,gray,square
400.0,8.0,4.0,1.0,1.0,1.0,325.0935020005272,4.0,1.0,part_1,,,,,,,,,,,,,cyan,cross
80.0,2.0,2.0,0.0,3.0,3.0,309.9673910001002,4.0,1.0,part_1,,,,,,,,,,,,,green,circle
65.0,1.0,1.0,0.0,1.0,1.0,286.0618180002348,4.0,1.0,part_1,,,,,,,,,,,,,white,hexagon
52.0,1.0,1.0,0.0,2.0,2.0,327.4629500001538,4.0,1.0,part_1,,,,,,,,,,,,,white,hexagon
112.0,6.0,2.0,1.0,1.0,1.0,291.7377869998745,4.0,1.0,part_1,,,,,,,,,,,,,blue,triangle
104.0,6.0,2.0,1.0,1.0,1.0,311.9959840005322,4.0,1.0,part_1,,,,,,,,,,,,,blue,triangle
0.0,7.0,0.0,1.0,1.0,1.0,272.6650100003098,4.0,1.0,part_1,,,,,,,,,,,,,magenta,diamond
95.0,6.0,2.0,1.0,2.0,2.0,265.1205960000879,4.0,1.0,part_1,,,,,,,,,,,,,blue,triangle
0.0,7.0,0.0,1.0,3.0,3.0,310.1153220004562,4.0,1.0,part_1,,,,,,,,,,,,,magenta,diamond
46.0,1.0,1.0,0.0,3.0,3.0,309.2474869999932,4.0,2.0,part_1,,,,,,,,,,,,,white,hexagon
44.0,1.0,1.0,0.0,4.0,4.0,330.3787040003954,4.0,1.0,part_1,,,,,,,,,,,,,white,hexagon
107.0,2.0,2.0,0.0,3.0,3.0,294.0382369997678,4.0,1.0,part_1,,,,,,,,,,,,,green,circle
0.0,2.0,0.0,0.0,1.0,1.0,316.1823419995926,4.0,1.0,part_1,,,,,,,,,,,,,green,circle
47.0,5.0,1.0,1.0,1.0,1.0,314.3964770006278,4.0,1.0,part_1,,,,,,,,,,,,,gray,square
104.0,2.0,2.0,0.0,4.0,4.0,305.9140919995116,4.0,1.0,part_1,,,,,,,,,,,,,green,circle
42.0,5.0,1.0,1.0,2.0,2.0,316.6423990005569,4.0,1.0,part_1,,,,,,,,,,,,,gray,square
0.0,3.0,0.0,0.0,1.0,1.0,270.892403000289,4.0,1.0,part_1,,,,,,,,,,,,,orange,I
47.0,1.0,1.0,0.0,3.0,3.0,248.3222660002866,4.0,1.0,part_1,,,,,,,,,,,,,white,hexagon
189.0,7.0,3.0,1.0,2.0,2.0,256.3136039998426,4.0,1.0,part_1,,,,,,,,,,,,,magenta,diamond
393.0,8.0,4.0,1.0,3.0,3.0,301.4023989999259,4.0,1.0,part_1,,,,,,,,,,,,,cyan,cross
414.0,8.0,4.0,1.0,3.0,3.0,364.6055629997136,4.0,1.0,part_1,,,,,,,,,,,,,cyan,cross
28.0,1.0,1.0,0.0,4.0,4.0,325.1824520002628,4.0,1.0,part_1,,,,,,,,,,,,,white,hexagon
202.0,3.0,3.0,0.0,2.0,2.0,308.7609770000199,4.0,1.0,part_1,,,,,,,,,,,,,orange,I
376.0,4.0,4.0,0.0,1.0,1.0,257.9724440001882,4.0,1.0,part_1,,,,,,,,,,,,,yellow,flipped triangle
44.0,5.0,1.0,1.0,4.0,4.0,271.0880029999316,4.0,1.0,part_1,,,,,,,,,,,,,gray,square
380.0,8.0,4.0,1.0,1.0,1.0,334.2761519998021,4.0,1.0,part_1,,,,,,,,,,,,,cyan,cross
416.0,4.0,4.0,0.0,4.0,4.0,322.1954689997801,4.0,1.0,part_1,,,,,,,,,,,,,yellow,flipped triangle
402.0,8.0,4.0,1.0,1.0,1.0,310.8684369999537,4.0,1.0,part_1,,,,,,,,,,,,,cyan,cross
225.0,3.0,3.0,0.0,2.0,2.0,291.7732220003017,4.0,1.0,part_1,,,,,,,,,,,,,orange,I
391.0,8.0,4.0,1.0,3.0,3.0,265.6831179992878,4.0,1.0,part_1,,,,,,,,,,,,,cyan,cross
0.0,4.0,0.0,0.0,3.0,3.0,266.7570659996272,4.0,1.0,part_1,,,,,,,,,,,,,yellow,flipped triangle
85.0,2.0,2.0,0.0,3.0,3.0,339.5566640001561,4.0,1.0,part_1,,,,,,,,,,,,,green,circle
0.0,8.0,0.0,1.0,2.0,2.0,275.4483039998376,4.0,1.0,part_1,,,,,,,,,,,,,cyan,cross
0.0,6.0,0.0,1.0,1.0,1.0,343.8419349995456,4.0,1.0,part_1,,,,,,,,,,,,,blue,triangle
56.0,5.0,1.0,1.0,3.0,3.0,277.2029589996236,4.0,1.0,part_1,,,,,,,,,,,,,gray,square
400.0,4.0,4.0,0.0,2.0,2.0,220.4032069994355,4.0,1.0,part_1,,,,,,,,,,,,,yellow,flipped triangle
184.0,7.0,3.0,1.0,2.0,2.0,280.6490379998649,4.0,2.0,part_1,,,,,,,,,,,,,magenta,diamond
182.0,3.0,3.0,0.0,4.0,4.0,306.3446820005993,4.0,1.0,part_1,,,,,,,,,,,,,orange,I
223.0,7.0,3.0,1.0,1.0,1.0,362.8153449999445,4.0,1.0,part_1,,,,,,,,,,,,,magenta,diamond
198.0,7.0,3.0,1.0,2.0,2.0,269.1109409997807,4.0,1.0,part_1,,,,,,,,,,,,,magenta,diamond
209.0,3.0,3.0,0.0,3.0,3.0,314.8088120005923,4.0,1.0,part_1,,,,,,,,,,,,,orange,I
40.0,5.0,1.0,1.0,4.0,4.0,338.8265510002384,4.0,1.0,part_1,,,,,,,,,,,,,gray,square
55.0,5.0,1.0,1.0,4.0,4.0,345.8835230003387,4.0,1.0,part_1,,,,,,,,,,,,,gray,square
376.0,4.0,4.0,0.0,2.0,2.0,236.0017569999399,4.0,1.0,part_1,,,,,,,,,,,,,yellow,flipped triangle
380.0,4.0,4.0,0.0,4.0,4.0,329.5441170002959,4.0,1.0,part_1,,,,,,,,,,,,,yellow,flipped triangle
0.0,1.0,0.0,0.0,1.0,1.0,340.1907500001471,4.0,1.0,part_1,,,,,,,,,,,,,white,hexagon
380.0,4.0,4.0,0.0,2.0,2.0,243.699665999884,4.0,1.0,part_1,,,,,,,,,,,,,yellow,flipped triangle
99.0,6.0,2.0,1.0,1.0,1.0,261.1694080005691,4.0,1.0,part_1,,,,,,,,,,,,,blue,triangle
103.0,2.0,2.0,0.0,2.0,2.0,225.0441739997768,4.0,1.0,part_1,,,,,,,,,,,,,green,circle
411.0,4.0,4.0,0.0,1.0,1.0,237.5323249998473,4.0,1.0,part_1,,,,,,,,,,,,,yellow,flipped triangle
0.0,3.0,0.0,0.0,3.0,3.0,253.16509700041928,4.0,1.0,part_1,,,,,,,,,,,,,orange,I
393.0,4.0,4.0,0.0,4.0,4.0,292.8452969999853,4.0,1.0,part_1,,,,,,,,,,,,,yellow,flipped triangle
404.0,8.0,4.0,1.0,2.0,2.0,242.8781520002303,4.0,1.0,part_1,,,,,,,,,,,,,cyan,cross
402.0,4.0,4.0,0.0,4.0,4.0,297.063074000107,4.0,1.0,part_1,,,,,,,,,,,,,yellow,flipped triangle
97.0,2.0,2.0,0.0,1.0,1.0,242.7291469994088,4.0,1.0,part_1,,,,,,,,,,,,,green,circle
420.0,8.0,4.0,1.0,2.0,2.0,300.0805649999165,4.0,1.0,part_1,,,,,,,,,,,,,cyan,cross
80.0,6.0,2.0,1.0,3.0,3.0,320.0469470002645,4.0,1.0,part_1,,,,,,,,,,,,,blue,triangle
87.0,2.0,2.0,0.0,1.0,1.0,306.6634649994739,4.0,1.0,part_1,,,,,,,,,,,,,green,circle
416.0,4.0,4.0,0.0,3.0,3.0,268.2923809998101,4.0,1.0,part_1,,,,,,,,,,,,,yellow,flipped triangle
0.0,5.0,0.0,1.0,1.0,1.0,259.024257999954,4.0,1.0,part_1,,,,,,,,,,,,,gray,square
36.0,5.0,1.0,1.0,1.0,1.0,320.3384529997493,4.0,1.0,part_1,,,,,,,,,,,,,gray,square
207.0,3.0,3.0,0.0,2.0,2.0,292.814978000024,4.0,1.0,part_1,,,,,,,,,,,,,orange,I
121.0,6.0,2.0,1.0,2.0,2.0,269.1442369996366,4.0,1.0,part_1,,,,,,,,,,,,,blue,triangle
411.0,8.0,4.0,1.0,3.0,3.0,275.2142970002751,4.0,1.0,part_1,,,,,,,,,,,,,cyan,cross
0.0,6.0,0.0,1.0,4.0,4.0,328.210528999989,4.0,2.0,part_1,,,,,,,,,,,,,blue,triangle
393.0,8.0,4.0,1.0,4.0,4.0,318.2144460006384,4.0,1.0,part_1,,,,,,,,,,,,,cyan,cross
214.0,7.0,3.0,1.0,2.0,2.0,294.9157429993647,4.0,1.0,part_1,,,,,,,,,,,,,magenta,diamond
380.0,4.0,4.0,0.0,1.0,1.0,337.7504760001102,4.0,1.0,part_1,,,,,,,,,,,,,yellow,flipped triangle
89.0,6.0,2.0,1.0,2.0,2.0,276.3126959998772,4.0,1.0,part_1,,,,,,,,,,,,,blue,triangle
41.0,1.0,1.0,0.0,3.0,3.0,289.7941609999179,4.0,1.0,part_1,,,,,,,,,,,,,white,hexagon
34.0,1.0,1.0,0.0,2.0,2.0,254.34616599977738,4.0,1.0,part_1,,,,,,,,,,,,,white,hexagon
113.0,2.0,2.0,0.0,4.0,4.0,356.736390000151,4.0,1.0,part_1,,,,,,,,,,,,,green,circle
0.0,7.0,0.0,1.0,2.0,2.0,292.6282449998325,4.0,1.0,part_1,,,,,,,,,,,,,magenta,diamond
102.0,6.0,2.0,1.0,3.0,3.0,317.3527929993724,4.0,2.0,part_1,,,,,,,,,,,,,blue,triangle
121.0,2.0,2.0,0.0,4.0,4.0,317.5781910003934,4.0,1.0,part_1,,,,,,,,,,,,,green,circle
56.0,1.0,1.0,0.0,1.0,1.0,317.0180329998402,4.0,1.0,part_1,,,,,,,,,,,,,white,hexagon
0.0,6.0,2.0,1.0,6.0,6.0,403.4159200000431,1.0,0.0,part_2,stop,250.0,250.0,3.0,,,,,,,,,blue,triangle
0.0,7.0,3.0,1.0,6.0,0.0,0.0,1.0,0.0,part_2,stop,250.0,200.0,4.0,,,,,,,,,magenta,diamond
0.0,6.0,2.0,1.0,6.0,0.0,0.0,1.0,0.0,part_2,stop,250.0,250.0,4.0,,,,,,,,,blue,triangle
0.0,6.0,2.0,1.0,6.0,6.0,662.8408979995584,1.0,0.0,part_2,go,250.0,300.0,1.0,,,,,,,,,blue,triangle
0.0,1.0,1.0,0.0,6.0,6.0,441.4397529999405,1.0,0.0,part_2,go,250.0,300.0,1.0,,,,,,,,,white,hexagon
0.0,2.0,2.0,0.0,5.0,5.0,510.76958200064837,1.0,0.0,part_2,go,250.0,300.0,1.0,,,,,,,,,green,circle
0.0,8.0,4.0,1.0,6.0,6.0,410.6274040004791,1.0,0.0,part_2,stop,250.0,300.0,3.0,,,,,,,,,cyan,cross
0.0,7.0,3.0,1.0,5.0,5.0,467.6314790003744,1.0,0.0,part_2,go,250.0,250.0,1.0,,,,,,,,,magenta,diamond
0.0,2.0,2.0,0.0,6.0,6.0,462.7612160002172,1.0,0.0,part_2,go,250.0,250.0,1.0,,,,,,,,,green,circle
0.0,3.0,3.0,0.0,6.0,6.0,739.1666099993017,1.0,0.0,part_2,go,250.0,250.0,1.0,,,,,,,,,orange,I
0.0,8.0,4.0,1.0,6.0,0.0,0.0,1.0,0.0,part_2,stop,250.0,250.0,4.0,,,,,,,,,cyan,cross
0.0,5.0,1.0,1.0,6.0,6.0,625.3606349991969,1.0,0.0,part_2,go,250.0,300.0,1.0,,,,,,,,,gray,square
0.0,2.0,2.0,0.0,6.0,6.0,803.4827499996027,1.0,0.0,part_2,go,250.0,300.0,1.0,,,,,,,,,green,circle
0.0,3.0,3.0,0.0,5.0,5.0,806.3306490003015,1.0,0.0,part_2,go,250.0,300.0,1.0,,,,,,,,,orange,I
0.0,6.0,2.0,1.0,5.0,0.0,0.0,1.0,0.0,part_2,stop,250.0,300.0,4.0,,,,,,,,,blue,triangle
0.0,8.0,4.0,1.0,6.0,0.0,0.0,1.0,0.0,part_2,stop,300.0,300.0,4.0,,,,,,,,,cyan,cross
0.0,7.0,3.0,1.0,5.0,0.0,0.0,1.0,0.0,part_2,stop,300.0,350.0,4.0,,,,,,,,,magenta,diamond
0.0,1.0,1.0,0.0,5.0,5.0,503.5771190005107,1.0,0.0,part_2,go,350.0,350.0,1.0,,,,,,,,,white,hexagon
0.0,6.0,2.0,1.0,5.0,0.0,0.0,1.0,0.0,part_2,stop,350.0,350.0,4.0,,,,,,,,,blue,triangle
0.0,4.0,4.0,0.0,6.0,6.0,641.2246260006214,1.0,0.0,part_2,go,400.0,350.0,1.0,,,,,,,,,yellow,flipped triangle
0.0,2.0,2.0,0.0,6.0,6.0,756.8812359995718,1.0,0.0,part_2,go,400.0,350.0,1.0,,,,,,,,,green,circle
0.0,3.0,3.0,0.0,6.0,6.0,819.628492999982,1.0,0.0,part_2,go,400.0,350.0,1.0,,,,,,,,,orange,I
0.0,8.0,4.0,1.0,6.0,6.0,438.3773910003583,1.0,0.0,part_2,go,400.0,350.0,1.0,,,,,,,,,cyan,cross
0.0,6.0,2.0,1.0,5.0,0.0,0.0,1.0,0.0,part_2,stop,400.0,350.0,4.0,,,,,,,,,blue,triangle
0.0,8.0,4.0,1.0,5.0,0.0,0.0,1.0,0.0,part_2,stop,450.0,350.0,4.0,,,,,,,,,cyan,cross
0.0,7.0,3.0,1.0,6.0,0.0,0.0,1.0,0.0,part_2,stop,500.0,350.0,4.0,,,,,,,,,magenta,diamond
0.0,7.0,3.0,1.0,6.0,6.0,583.3499629998187,1.0,0.0,part_2,go,500.0,400.0,1.0,,,,,,,,,magenta,diamond
0.0,2.0,2.0,0.0,5.0,5.0,685.4583650001587,1.0,0.0,part_2,go,500.0,400.0,1.0,,,,,,,,,green,circle
0.0,3.0,3.0,0.0,5.0,5.0,819.929998000589,1.0,0.0,part_2,go,500.0,400.0,1.0,,,,,,,,,orange,I
0.0,3.0,3.0,0.0,5.0,5.0,898.0386959992757,1.0,0.0,part_2,go,500.0,400.0,1.0,,,,,,,,,orange,I
0.0,3.0,3.0,0.0,6.0,6.0,750.5909510000492,1.0,0.0,part_2,go,500.0,400.0,1.0,,,,,,,,,orange,I
0.0,4.0,4.0,0.0,6.0,6.0,524.1349269999773,1.0,0.0,part_2,go,500.0,400.0,1.0,,,,,,,,,yellow,flipped triangle
0.0,1.0,1.0,0.0,5.0,5.0,606.1788729994078,1.0,0.0,part_2,go,500.0,400.0,1.0,,,,,,,,,white,hexagon
0.0,6.0,2.0,1.0,6.0,0.0,0.0,1.0,0.0,part_2,stop,500.0,400.0,4.0,,,,,,,,,blue,triangle
0.0,5.0,1.0,1.0,6.0,0.0,0.0,1.0,0.0,part_2,stop,500.0,450.0,4.0,,,,,,,,,gray,square
0.0,3.0,3.0,0.0,5.0,5.0,651.9139739993989,1.0,0.0,part_2,go,500.0,500.0,1.0,,,,,,,,,orange,I
0.0,7.0,3.0,1.0,6.0,6.0,962.920872999348,2.0,0.0,part_2,go,500.0,500.0,1.0,,,,,,,,,magenta,diamond
0.0,4.0,4.0,0.0,5.0,5.0,589.4962270003816,2.0,0.0,part_2,go,500.0,500.0,1.0,,,,,,,,,yellow,flipped triangle
0.0,2.0,2.0,0.0,6.0,6.0,524.5845680001366,2.0,0.0,part_2,go,500.0,500.0,1.0,,,,,,,,,green,circle
0.0,3.0,3.0,0.0,6.0,6.0,710.05836599943,2.0,0.0,part_2,go,500.0,500.0,1.0,,,,,,,,,orange,I
0.0,8.0,4.0,1.0,5.0,5.0,230.7038789995203,2.0,0.0,part_2,go,500.0,500.0,1.0,,,,,,,,,cyan,cross
0.0,8.0,4.0,1.0,6.0,6.0,248.1094849999863,2.0,0.0,part_2,stop,500.0,500.0,3.0,,,,,,,,,cyan,cross
0.0,8.0,4.0,1.0,5.0,5.0,798.8920130001134,2.0,0.0,part_2,go,500.0,450.0,1.0,,,,,,,,,cyan,cross
0.0,7.0,3.0,1.0,5.0,0.0,0.0,2.0,0.0,part_2,stop,500.0,450.0,4.0,,,,,,,,,magenta,diamond
0.0,6.0,2.0,1.0,6.0,6.0,831.6121790003308,2.0,0.0,part_2,go,550.0,450.0,1.0,,,,,,,,,blue,triangle
0.0,3.0,3.0,0.0,5.0,5.0,646.2287530002868,2.0,0.0,part_2,go,550.0,450.0,1.0,,,,,,,,,orange,I
0.0,3.0,3.0,0.0,5.0,5.0,650.0708749999831,2.0,0.0,part_2,go,550.0,450.0,1.0,,,,,,,,,orange,I
0.0,2.0,2.0,0.0,5.0,5.0,603.8279519998468,2.0,0.0,part_2,go,550.0,450.0,1.0,,,,,,,,,green,circle
0.0,7.0,3.0,1.0,6.0,0.0,0.0,2.0,0.0,part_2,stop,550.0,450.0,4.0,,,,,,,,,magenta,diamond
0.0,4.0,4.0,0.0,5.0,5.0,767.5720619999993,2.0,0.0,part_2,go,550.0,500.0,1.0,,,,,,,,,yellow,flipped triangle
0.0,2.0,2.0,0.0,5.0,5.0,1088.0998220000038,2.0,0.0,part_2,go,550.0,500.0,1.0,,,,,,,,,green,circle
0.0,1.0,1.0,0.0,5.0,5.0,810.8053870000731,2.0,0.0,part_2,go,550.0,500.0,1.0,,,,,,,,,white,hexagon
0.0,7.0,3.0,1.0,6.0,6.0,298.4496760000183,2.0,0.0,part_2,stop,550.0,500.0,3.0,,,,,,,,,magenta,diamond
0.0,4.0,4.0,0.0,6.0,6.0,1086.2896540002112,2.0,0.0,part_2,go,550.0,450.0,1.0,,,,,,,,,yellow,flipped triangle
0.0,6.0,2.0,1.0,5.0,0.0,0.0,2.0,0.0,part_2,stop,550.0,450.0,4.0,,,,,,,,,blue,triangle
0.0,1.0,1.0,0.0,6.0,6.0,1003.261773000304,2.0,0.0,part_2,go,600.0,450.0,1.0,,,,,,,,,white,hexagon
0.0,5.0,1.0,1.0,6.0,6.0,801.6338659999747,2.0,0.0,part_2,go,600.0,450.0,1.0,,,,,,,,,gray,square
0.0,5.0,1.0,1.0,5.0,5.0,773.6682060003659,2.0,0.0,part_2,go,600.0,450.0,1.0,,,,,,,,,gray,square
0.0,4.0,4.0,0.0,5.0,5.0,882.0421460004582,2.0,0.0,part_2,go,600.0,450.0,1.0,,,,,,,,,yellow,flipped triangle
0.0,7.0,3.0,1.0,5.0,0.0,0.0,2.0,0.0,part_2,stop,600.0,450.0,4.0,,,,,,,,,magenta,diamond
0.0,4.0,4.0,0.0,6.0,6.0,681.7818019999322,2.0,0.0,part_2,go,650.0,450.0,1.0,,,,,,,,,yellow,flipped triangle
0.0,4.0,4.0,0.0,5.0,5.0,515.8629050001764,2.0,0.0,part_2,go,650.0,450.0,1.0,,,,,,,,,yellow,flipped triangle
0.0,6.0,2.0,1.0,6.0,0.0,0.0,2.0,0.0,part_2,stop,650.0,450.0,4.0,,,,,,,,,blue,triangle
0.0,5.0,1.0,1.0,5.0,5.0,569.3300829998407,2.0,0.0,part_2,stop,650.0,500.0,3.0,,,,,,,,,gray,square
0.0,8.0,4.0,1.0,6.0,6.0,805.6066859999191,2.0,0.0,part_2,go,600.0,500.0,1.0,,,,,,,,,cyan,cross
0.0,7.0,3.0,1.0,5.0,0.0,0.0,2.0,0.0,part_2,stop,600.0,500.0,4.0,,,,,,,,,magenta,diamond
0.0,8.0,4.0,1.0,6.0,6.0,637.1381090002615,2.0,0.0,part_2,stop,650.0,500.0,3.0,,,,,,,,,cyan,cross
0.0,1.0,1.0,0.0,5.0,5.0,841.4596389993676,2.0,0.0,part_2,go,650.0,450.0,1.0,,,,,,,,,white,hexagon
0.0,6.0,2.0,1.0,5.0,0.0,0.0,2.0,0.0,part_2,stop,650.0,450.0,4.0,,,,,,,,,blue,triangle
0.0,2.0,2.0,0.0,6.0,6.0,914.8733219999484,2.0,0.0,part_2,go,700.0,450.0,1.0,,,,,,,,,green,circle
0.0,8.0,4.0,1.0,6.0,6.0,664.7043990005841,2.0,0.0,part_2,stop,700.0,450.0,3.0,,,,,,,,,cyan,cross
0.0,1.0,1.0,0.0,6.0,6.0,1106.3879430003,2.0,0.0,part_2,go,700.0,400.0,1.0,,,,,,,,,white,hexagon
0.0,4.0,4.0,0.0,5.0,5.0,510.4358390008201,3.0,0.0,part_2,go,700.0,400.0,1.0,,,,,,,,,yellow,flipped triangle
0.0,5.0,1.0,1.0,5.0,5.0,797.835411000051,3.0,0.0,part_2,stop,700.0,400.0,3.0,,,,,,,,,gray,square
0.0,1.0,1.0,0.0,6.0,6.0,733.3733309997115,3.0,0.0,part_2,go,650.0,400.0,1.0,,,,,,,,,white,hexagon
0.0,1.0,1.0,0.0,5.0,5.0,613.0764999998064,3.0,0.0,part_2,go,650.0,400.0,1.0,,,,,,,,,white,hexagon
0.0,3.0,3.0,0.0,6.0,6.0,680.8060769999429,3.0,0.0,part_2,go,650.0,400.0,1.0,,,,,,,,,orange,I
0.0,6.0,2.0,1.0,5.0,5.0,496.6385269999591,3.0,0.0,part_2,go,650.0,400.0,1.0,,,,,,,,,blue,triangle
0.0,7.0,3.0,1.0,6.0,6.0,471.8624020006245,3.0,0.0,part_2,stop,650.0,400.0,3.0,,,,,,,,,magenta,diamond
0.0,5.0,1.0,1.0,6.0,0.0,0.0,3.0,0.0,part_2,stop,650.0,350.0,4.0,,,,,,,,,gray,square
0.0,5.0,1.0,1.0,5.0,5.0,386.9104979994517,3.0,0.0,part_2,stop,650.0,400.0,3.0,,,,,,,,,gray,square
0.0,4.0,4.0,0.0,6.0,6.0,532.2495829996114,3.0,0.0,part_2,go,600.0,400.0,1.0,,,,,,,,,yellow,flipped triangle
0.0,5.0,1.0,1.0,6.0,6.0,439.0713820002929,3.0,0.0,part_2,stop,600.0,400.0,3.0,,,,,,,,,gray,square
0.0,5.0,1.0,1.0,6.0,0.0,0.0,3.0,0.0,part_2,stop,600.0,350.0,4.0,,,,,,,,,gray,square
0.0,8.0,4.0,1.0,5.0,5.0,764.6877879997191,3.0,0.0,part_2,stop,600.0,400.0,3.0,,,,,,,,,cyan,cross
0.0,7.0,3.0,1.0,5.0,5.0,875.0712920000296,3.0,0.0,part_2,go,550.0,400.0,1.0,,,,,,,,,magenta,diamond
0.0,4.0,4.0,0.0,5.0,5.0,539.4107299998723,3.0,0.0,part_2,go,550.0,400.0,1.0,,,,,,,,,yellow,flipped triangle
0.0,5.0,1.0,1.0,6.0,0.0,0.0,3.0,0.0,part_2,stop,550.0,400.0,4.0,,,,,,,,,gray,square
0.0,5.0,1.0,1.0,6.0,0.0,0.0,3.0,0.0,part_2,stop,550.0,450.0,4.0,,,,,,,,,gray,square
0.0,7.0,3.0,1.0,5.0,5.0,636.8512299995928,3.0,0.0,part_2,stop,550.0,500.0,3.0,,,,,,,,,magenta,diamond
0.0,5.0,1.0,1.0,6.0,6.0,729.7705820001283,3.0,0.0,part_2,go,500.0,500.0,1.0,,,,,,,,,gray,square
0.0,7.0,3.0,1.0,6.0,0.0,0.0,3.0,0.0,part_2,stop,500.0,500.0,4.0,,,,,,,,,magenta,diamond
0.0,4.0,4.0,0.0,5.0,5.0,349.95718799928,3.0,0.0,part_2,go,500.0,550.0,1.0,,,,,,,,,yellow,flipped triangle
0.0,3.0,3.0,0.0,6.0,6.0,840.6655600001613,3.0,0.0,part_2,go,500.0,550.0,1.0,,,,,,,,,orange,I
0.0,6.0,2.0,1.0,5.0,5.0,728.6298260005424,3.0,0.0,part_2,go,500.0,550.0,1.0,,,,,,,,,blue,triangle
0.0,3.0,3.0,0.0,5.0,5.0,522.5919740005338,3.0,0.0,part_2,go,500.0,550.0,1.0,,,,,,,,,orange,I
0.0,1.0,1.0,0.0,5.0,5.0,534.2490119992362,3.0,0.0,part_2,go,500.0,550.0,1.0,,,,,,,,,white,hexagon
0.0,7.0,3.0,1.0,5.0,5.0,308.031868999933,3.0,0.0,part_2,stop,500.0,550.0,3.0,,,,,,,,,magenta,diamond
0.0,2.0,2.0,0.0,5.0,5.0,598.054203999709,3.0,0.0,part_2,go,450.0,550.0,1.0,,,,,,,,,green,circle
0.0,6.0,2.0,1.0,5.0,5.0,482.79312700015,3.0,0.0,part_2,go,450.0,550.0,1.0,,,,,,,,,blue,triangle
0.0,2.0,2.0,0.0,5.0,5.0,858.9649139994435,3.0,0.0,part_2,go,450.0,550.0,1.0,,,,,,,,,green,circle
0.0,4.0,4.0,0.0,5.0,5.0,901.5068529997734,3.0,0.0,part_2,go,450.0,550.0,1.0,,,,,,,,,yellow,flipped triangle
0.0,1.0,1.0,0.0,6.0,6.0,635.3221670005951,3.0,0.0,part_2,go,450.0,550.0,1.0,,,,,,,,,white,hexagon
0.0,3.0,3.0,0.0,5.0,5.0,541.7621719998351,3.0,0.0,part_2,go,450.0,550.0,1.0,,,,,,,,,orange,I
0.0,8.0,4.0,1.0,6.0,6.0,581.8675749997055,3.0,0.0,part_2,go,450.0,550.0,1.0,,,,,,,,,cyan,cross
0.0,5.0,1.0,1.0,6.0,6.0,348.3855029999176,3.0,0.0,part_2,stop,450.0,550.0,3.0,,,,,,,,,gray,square
0.0,6.0,2.0,1.0,6.0,6.0,660.0713999996515,3.0,0.0,part_2,stop,450.0,500.0,3.0,,,,,,,,,blue,triangle
0.0,2.0,2.0,0.0,6.0,6.0,709.9641559998418,3.0,0.0,part_2,go,450.0,450.0,1.0,,,,,,,,,green,circle
0.0,2.0,2.0,0.0,5.0,5.0,539.170553999611,4.0,0.0,part_2,go,450.0,450.0,1.0,,,,,,,,,green,circle
0.0,2.0,2.0,0.0,6.0,6.0,376.6311299996232,4.0,0.0,part_2,go,450.0,450.0,1.0,,,,,,,,,green,circle
0.0,8.0,4.0,1.0,5.0,5.0,384.3355620001603,4.0,0.0,part_2,stop,450.0,450.0,3.0,,,,,,,,,cyan,cross
0.0,1.0,1.0,0.0,5.0,5.0,489.3278649997228,4.0,0.0,part_2,go,400.0,450.0,1.0,,,,,,,,,white,hexagon
0.0,1.0,1.0,0.0,5.0,5.0,576.9943180002883,4.0,0.0,part_2,go,400.0,450.0,1.0,,,,,,,,,white,hexagon
0.0,7.0,3.0,1.0,5.0,0.0,0.0,4.0,0.0,part_2,stop,400.0,450.0,4.0,,,,,,,,,magenta,diamond
0.0,7.0,3.0,1.0,6.0,6.0,638.7591040002008,4.0,0.0,part_2,stop,450.0,450.0,3.0,,,,,,,,,magenta,diamond
0.0,8.0,4.0,1.0,5.0,0.0,0.0,4.0,0.0,part_2,stop,450.0,400.0,4.0,,,,,,,,,cyan,cross
0.0,3.0,3.0,0.0,6.0,6.0,551.0433929994178,4.0,0.0,part_2,go,500.0,400.0,1.0,,,,,,,,,orange,I
0.0,4.0,4.0,0.0,6.0,6.0,1016.1576609998519,4.0,0.0,part_2,go,500.0,400.0,1.0,,,,,,,,,yellow,flipped triangle
0.0,5.0,1.0,1.0,5.0,5.0,404.6093309998468,4.0,0.0,part_2,stop,500.0,400.0,3.0,,,,,,,,,gray,square
0.0,7.0,3.0,1.0,5.0,0.0,0.0,4.0,0.0,part_2,stop,450.0,400.0,4.0,,,,,,,,,magenta,diamond
0.0,3.0,3.0,0.0,6.0,6.0,314.8930170000312,4.0,0.0,part_2,go,500.0,400.0,1.0,,,,,,,,,orange,I
0.0,2.0,2.0,0.0,6.0,6.0,949.6321530004934,4.0,0.0,part_2,go,500.0,400.0,1.0,,,,,,,,,green,circle
0.0,5.0,1.0,1.0,6.0,6.0,449.0144760002295,4.0,0.0,part_2,stop,500.0,400.0,3.0,,,,,,,,,gray,square
0.0,8.0,4.0,1.0,5.0,5.0,541.9698899995637,4.0,0.0,part_2,stop,500.0,350.0,3.0,,,,,,,,,cyan,cross
0.0,3.0,3.0,0.0,5.0,5.0,658.3007180006462,4.0,0.0,part_2,go,450.0,350.0,1.0,,,,,,,,,orange,I
0.0,8.0,4.0,1.0,5.0,5.0,749.2765470005907,4.0,0.0,part_2,go,450.0,350.0,1.0,,,,,,,,,cyan,cross
0.0,8.0,4.0,1.0,6.0,6.0,346.2193010000192,4.0,0.0,part_2,stop,450.0,350.0,3.0,,,,,,,,,cyan,cross
0.0,2.0,2.0,0.0,6.0,6.0,757.6120669991724,4.0,0.0,part_2,go,450.0,300.0,1.0,,,,,,,,,green,circle
0.0,1.0,1.0,0.0,6.0,6.0,839.0439229997355,4.0,0.0,part_2,go,450.0,300.0,1.0,,,,,,,,,white,hexagon
0.0,6.0,2.0,1.0,6.0,6.0,531.6732170003888,4.0,0.0,part_2,stop,450.0,300.0,3.0,,,,,,,,,blue,triangle
0.0,8.0,4.0,1.0,6.0,0.0,0.0,4.0,0.0,part_2,stop,450.0,250.0,4.0,,,,,,,,,cyan,cross
0.0,2.0,2.0,0.0,6.0,6.0,575.6736120001733,4.0,0.0,part_2,go,450.0,300.0,1.0,,,,,,,,,green,circle
0.0,8.0,4.0,1.0,5.0,5.0,398.6126649997459,4.0,0.0,part_2,go,450.0,300.0,1.0,,,,,,,,,cyan,cross
0.0,3.0,3.0,0.0,5.0,5.0,407.6819500005513,4.0,0.0,part_2,go,450.0,300.0,1.0,,,,,,,,,orange,I
0.0,1.0,1.0,0.0,6.0,6.0,660.8605400006127,4.0,0.0,part_2,go,450.0,300.0,1.0,,,,,,,,,white,hexagon
0.0,4.0,4.0,0.0,5.0,5.0,477.7083340004537,4.0,0.0,part_2,go,450.0,300.0,1.0,,,,,,,,,yellow,flipped triangle
0.0,7.0,3.0,1.0,6.0,0.0,0.0,4.0,0.0,part_2,stop,450.0,300.0,4.0,,,,,,,,,magenta,diamond
0.0,3.0,3.0,0.0,5.0,5.0,483.7905909998881,4.0,0.0,part_2,go,450.0,350.0,1.0,,,,,,,,,orange,I
0.0,1.0,1.0,0.0,6.0,6.0,654.9019829999452,4.0,0.0,part_2,go,450.0,350.0,1.0,,,,,,,,,white,hexagon
0.0,5.0,1.0,1.0,5.0,0.0,0.0,4.0,0.0,part_2,stop,450.0,350.0,4.0,,,,,,,,,gray,square
0.0,4.0,4.0,0.0,5.0,5.0,576.0746200003268,4.0,0.0,part_2,go,500.0,350.0,1.0,,,,,,,,,yellow,flipped triangle
0.0,2.0,2.0,0.0,6.0,6.0,640.906329000245,4.0,0.0,part_2,go,500.0,350.0,1.0,,,,,,,,,green,circle
0.0,1.0,1.0,0.0,6.0,6.0,398.5562099996969,4.0,0.0,part_2,go,500.0,350.0,1.0,,,,,,,,,white,hexagon
0.0,5.0,1.0,1.0,6.0,6.0,387.1358639999016,4.0,0.0,part_2,stop,500.0,350.0,3.0,,,,,,,,,gray,square
0.0,7.0,3.0,1.0,5.0,5.0,449.6749219997582,5.0,0.0,part_2,stop,500.0,300.0,3.0,,,,,,,,,magenta,diamond
0.0,3.0,3.0,0.0,6.0,6.0,644.1382249995513,5.0,0.0,part_2,go,450.0,300.0,1.0,,,,,,,,,orange,I
0.0,2.0,2.0,0.0,5.0,5.0,327.42166800017,5.0,0.0,part_2,go,450.0,300.0,1.0,,,,,,,,,green,circle
0.0,1.0,1.0,0.0,6.0,6.0,476.2630029999855,5.0,0.0,part_2,go,450.0,300.0,1.0,,,,,,,,,white,hexagon
0.0,7.0,3.0,1.0,5.0,5.0,417.7707039998495,5.0,0.0,part_2,stop,450.0,300.0,3.0,,,,,,,,,magenta,diamond
0.0,7.0,3.0,1.0,6.0,0.0,0.0,5.0,0.0,part_2,stop,400.0,300.0,4.0,,,,,,,,,magenta,diamond
0.0,4.0,4.0,0.0,5.0,5.0,416.3038639999286,5.0,0.0,part_2,go,400.0,350.0,1.0,,,,,,,,,yellow,flipped triangle
0.0,4.0,4.0,0.0,6.0,6.0,851.9645690003017,5.0,0.0,part_2,go,400.0,350.0,1.0,,,,,,,,,yellow,flipped triangle
0.0,7.0,3.0,1.0,6.0,6.0,796.6875530000834,5.0,0.0,part_2,go,400.0,350.0,1.0,,,,,,,,,magenta,diamond
0.0,8.0,4.0,1.0,5.0,5.0,519.4637320000766,5.0,0.0,part_2,stop,400.0,350.0,3.0,,,,,,,,,cyan,cross
0.0,4.0,4.0,0.0,6.0,6.0,319.1232589997526,5.0,0.0,part_2,go,350.0,350.0,1.0,,,,,,,,,yellow,flipped triangle
0.0,5.0,1.0,1.0,5.0,5.0,392.2921789999236,5.0,0.0,part_2,stop,350.0,350.0,3.0,,,,,,,,,gray,square
0.0,3.0,3.0,0.0,5.0,5.0,508.24219599962817,5.0,0.0,part_2,go,300.0,350.0,1.0,,,,,,,,,orange,I
0.0,5.0,1.0,1.0,5.0,5.0,450.2202769999712,5.0,0.0,part_2,go,300.0,350.0,1.0,,,,,,,,,gray,square
0.0,2.0,2.0,0.0,6.0,6.0,632.2735329995339,5.0,0.0,part_2,go,300.0,350.0,1.0,,,,,,,,,green,circle
0.0,6.0,2.0,1.0,5.0,0.0,0.0,5.0,0.0,part_2,stop,300.0,350.0,4.0,,,,,,,,,blue,triangle
0.0,6.0,2.0,1.0,6.0,6.0,453.5083509999822,5.0,0.0,part_2,stop,350.0,350.0,3.0,,,,,,,,,blue,triangle
0.0,7.0,3.0,1.0,6.0,6.0,596.2774950003222,5.0,0.0,part_2,go,350.0,300.0,1.0,,,,,,,,,magenta,diamond
0.0,3.0,3.0,0.0,5.0,5.0,241.402308999568,5.0,0.0,part_2,go,350.0,300.0,1.0,,,,,,,,,orange,I
0.0,6.0,2.0,1.0,5.0,0.0,0.0,5.0,0.0,part_2,stop,350.0,300.0,4.0,,,,,,,,,blue,triangle
0.0,2.0,2.0,0.0,5.0,5.0,631.4446750002389,5.0,0.0,part_2,go,400.0,300.0,1.0,,,,,,,,,green,circle
0.0,2.0,2.0,0.0,5.0,5.0,673.2442490001631,5.0,0.0,part_2,go,400.0,300.0,1.0,,,,,,,,,green,circle
0.0,1.0,1.0,0.0,6.0,6.0,513.8882540004488,5.0,0.0,part_2,go,400.0,300.0,1.0,,,,,,,,,white,hexagon
0.0,6.0,2.0,1.0,6.0,6.0,580.750658999932,5.0,0.0,part_2,go,400.0,300.0,1.0,,,,,,,,,blue,triangle
0.0,6.0,2.0,1.0,5.0,5.0,316.9875250005134,5.0,0.0,part_2,stop,400.0,300.0,3.0,,,,,,,,,blue,triangle
0.0,5.0,1.0,1.0,5.0,5.0,435.9090300004027,5.0,0.0,part_2,stop,350.0,300.0,3.0,,,,,,,,,gray,square
0.0,3.0,3.0,0.0,6.0,6.0,496.3994169993384,5.0,0.0,part_2,go,300.0,300.0,1.0,,,,,,,,,orange,I
0.0,8.0,4.0,1.0,6.0,0.0,0.0,5.0,0.0,part_2,stop,300.0,300.0,4.0,,,,,,,,,cyan,cross
0.0,3.0,3.0,0.0,6.0,6.0,665.7915569994657,5.0,0.0,part_2,go,300.0,350.0,1.0,,,,,,,,,orange,I
0.0,7.0,3.0,1.0,5.0,0.0,0.0,5.0,0.0,part_2,stop,300.0,350.0,4.0,,,,,,,,,magenta,diamond
0.0,1.0,1.0,0.0,5.0,5.0,494.7745070003293,5.0,0.0,part_2,go,350.0,350.0,1.0,,,,,,,,,white,hexagon
0.0,6.0,2.0,1.0,6.0,0.0,0.0,5.0,0.0,part_2,stop,350.0,350.0,4.0,,,,,,,,,blue,triangle
0.0,7.0,3.0,1.0,6.0,6.0,394.270864999271,5.0,0.0,part_2,stop,350.0,400.0,3.0,,,,,,,,,magenta,diamond
0.0,2.0,2.0,0.0,5.0,5.0,617.7658059996247,5.0,0.0,part_2,go,350.0,350.0,1.0,,,,,,,,,green,circle
0.0,5.0,1.0,1.0,6.0,6.0,484.6446739993553,5.0,0.0,part_2,stop,350.0,350.0,3.0,,,,,,,,,gray,square
0.0,4.0,4.0,0.0,6.0,6.0,440.2082639999207,5.0,0.0,part_2,go,350.0,300.0,1.0,,,,,,,,,yellow,flipped triangle
0.0,5.0,1.0,1.0,5.0,5.0,593.6262300001545,6.0,0.0,part_2,go,350.0,300.0,1.0,,,,,,,,,gray,square
0.0,1.0,1.0,0.0,6.0,6.0,588.4958420001567,6.0,0.0,part_2,go,350.0,300.0,1.0,,,,,,,,,white,hexagon
0.0,1.0,1.0,0.0,5.0,5.0,314.9837159999151,6.0,0.0,part_2,go,350.0,300.0,1.0,,,,,,,,,white,hexagon
0.0,5.0,1.0,1.0,6.0,6.0,381.9763809997312,6.0,0.0,part_2,stop,350.0,300.0,3.0,,,,,,,,,gray,square
0.0,7.0,3.0,1.0,5.0,0.0,0.0,6.0,0.0,part_2,stop,350.0,250.0,4.0,,,,,,,,,magenta,diamond
0.0,5.0,1.0,1.0,5.0,5.0,301.5905359998214,6.0,0.0,part_2,stop,400.0,250.0,3.0,,,,,,,,,gray,square
0.0,1.0,1.0,0.0,6.0,6.0,417.1444250005152,6.0,0.0,part_2,go,350.0,250.0,1.0,,,,,,,,,white,hexagon
0.0,3.0,3.0,0.0,6.0,6.0,654.4688520007185,6.0,0.0,part_2,go,350.0,250.0,1.0,,,,,,,,,orange,I
0.0,5.0,1.0,1.0,6.0,0.0,0.0,6.0,0.0,part_2,stop,350.0,250.0,4.0,,,,,,,,,gray,square
0.0,5.0,1.0,1.0,5.0,5.0,467.6438220003547,6.0,0.0,part_2,go,350.0,300.0,1.0,,,,,,,,,gray,square
0.0,6.0,2.0,1.0,6.0,0.0,0.0,6.0,0.0,part_2,stop,350.0,300.0,4.0,,,,,,,,,blue,triangle
0.0,8.0,4.0,1.0,5.0,0.0,0.0,6.0,0.0,part_2,stop,350.0,350.0,4.0,,,,,,,,,cyan,cross
0.0,6.0,2.0,1.0,5.0,5.0,437.9676180005845,6.0,0.0,part_2,stop,400.0,350.0,3.0,,,,,,,,,blue,triangle
0.0,1.0,1.0,0.0,5.0,5.0,460.6497240001772,6.0,0.0,part_2,go,350.0,350.0,1.0,,,,,,,,,white,hexagon
0.0,6.0,2.0,1.0,5.0,5.0,270.1681470007315,6.0,0.0,part_2,stop,350.0,350.0,3.0,,,,,,,,,blue,triangle
0.0,5.0,1.0,1.0,5.0,0.0,0.0,6.0,0.0,part_2,stop,300.0,350.0,4.0,,,,,,,,,gray,square
0.0,6.0,2.0,1.0,5.0,5.0,653.90336100063,6.0,0.0,part_2,go,350.0,350.0,1.0,,,,,,,,,blue,triangle
0.0,2.0,2.0,0.0,5.0,5.0,493.0210069996974,6.0,0.0,part_2,go,350.0,350.0,1.0,,,,,,,,,green,circle
0.0,1.0,1.0,0.0,6.0,6.0,498.2873629996902,6.0,0.0,part_2,go,350.0,350.0,1.0,,,,,,,,,white,hexagon
0.0,8.0,4.0,1.0,5.0,0.0,0.0,6.0,0.0,part_2,stop,350.0,350.0,4.0,,,,,,,,,cyan,cross
0.0,8.0,4.0,1.0,6.0,6.0,469.3168370004059,6.0,0.0,part_2,stop,400.0,350.0,3.0,,,,,,,,,cyan,cross
0.0,2.0,2.0,0.0,6.0,6.0,485.6218960003389,6.0,0.0,part_2,go,400.0,300.0,1.0,,,,,,,,,green,circle
0.0,4.0,4.0,0.0,6.0,6.0,580.9835330001079,6.0,0.0,part_2,go,400.0,300.0,1.0,,,,,,,,,yellow,flipped triangle
0.0,5.0,1.0,1.0,6.0,6.0,286.1342329997569,6.0,0.0,part_2,go,400.0,300.0,1.0,,,,,,,,,gray,square
0.0,2.0,2.0,0.0,5.0,5.0,474.4983339996906,6.0,0.0,part_2,go,400.0,300.0,1.0,,,,,,,,,green,circle
0.0,4.0,4.0,0.0,5.0,5.0,524.2938029996367,6.0,0.0,part_2,go,400.0,300.0,1.0,,,,,,,,,yellow,flipped triangle
0.0,2.0,2.0,0.0,5.0,5.0,615.3379319994201,6.0,0.0,part_2,go,400.0,300.0,1.0,,,,,,,,,green,circle
0.0,5.0,1.0,1.0,5.0,5.0,362.4610440001561,6.0,0.0,part_2,stop,400.0,300.0,3.0,,,,,,,,,gray,square
0.0,4.0,4.0,0.0,5.0,5.0,269.1123539998443,6.0,0.0,part_2,go,350.0,300.0,1.0,,,,,,,,,yellow,flipped triangle
0.0,4.0,4.0,0.0,6.0,6.0,257.4487240008238,6.0,0.0,part_2,go,350.0,300.0,1.0,,,,,,,,,yellow,flipped triangle
0.0,4.0,4.0,0.0,5.0,5.0,395.4610869996031,6.0,0.0,part_2,go,350.0,300.0,1.0,,,,,,,,,yellow,flipped triangle
0.0,8.0,4.0,1.0,6.0,0.0,0.0,6.0,0.0,part_2,stop,350.0,300.0,4.0,,,,,,,,,cyan,cross
0.0,1.0,1.0,0.0,5.0,5.0,956.169177999982,6.0,0.0,part_2,go,350.0,350.0,1.0,,,,,,,,,white,hexagon
0.0,8.0,4.0,1.0,5.0,5.0,467.7449269993303,6.0,0.0,part_2,stop,350.0,350.0,3.0,,,,,,,,,cyan,cross
0.0,6.0,2.0,1.0,6.0,6.0,195.6418830004622,6.0,0.0,part_2,stop,300.0,350.0,3.0,,,,,,,,,blue,triangle
0.0,3.0,3.0,0.0,6.0,6.0,316.2222319997454,6.0,0.0,part_2,go,300.0,300.0,1.0,,,,,,,,,orange,I
0.0,7.0,3.0,1.0,5.0,0.0,0.0,7.0,0.0,part_2,stop,300.0,300.0,4.0,,,,,,,,,magenta,diamond
0.0,7.0,3.0,1.0,5.0,5.0,539.1227310001341,7.0,0.0,part_2,go,350.0,300.0,1.0,,,,,,,,,magenta,diamond
0.0,4.0,4.0,0.0,6.0,6.0,286.7465890003586,7.0,0.0,part_2,go,350.0,300.0,1.0,,,,,,,,,yellow,flipped triangle
0.0,4.0,4.0,0.0,5.0,5.0,528.1332609993115,7.0,0.0,part_2,go,350.0,300.0,1.0,,,,,,,,,yellow,flipped triangle
0.0,1.0,1.0,0.0,5.0,5.0,631.8147130004945,7.0,0.0,part_2,go,350.0,300.0,1.0,,,,,,,,,white,hexagon
0.0,3.0,3.0,0.0,6.0,6.0,191.6877389994624,7.0,0.0,part_2,go,350.0,300.0,1.0,,,,,,,,,orange,I
0.0,1.0,1.0,0.0,6.0,6.0,316.8199339997954,7.0,0.0,part_2,go,350.0,300.0,1.0,,,,,,,,,white,hexagon
0.0,1.0,1.0,0.0,6.0,6.0,184.2195859999265,7.0,0.0,part_2,go,350.0,300.0,1.0,,,,,,,,,white,hexagon
0.0,4.0,4.0,0.0,6.0,6.0,170.504164999329,7.0,0.0,part_2,go,350.0,300.0,1.0,,,,,,,,,yellow,flipped triangle
0.0,6.0,2.0,1.0,5.0,5.0,227.0565319995512,7.0,0.0,part_2,stop,350.0,300.0,3.0,,,,,,,,,blue,triangle
0.0,8.0,4.0,1.0,5.0,5.0,270.607512999959,7.0,0.0,part_2,stop,300.0,300.0,3.0,,,,,,,,,cyan,cross
0.0,2.0,2.0,0.0,6.0,6.0,184.4005339999057,7.0,0.0,part_2,go,250.0,300.0,1.0,,,,,,,,,green,circle
0.0,3.0,3.0,0.0,5.0,5.0,419.6445279994805,7.0,0.0,part_2,go,250.0,300.0,1.0,,,,,,,,,orange,I
0.0,8.0,4.0,1.0,6.0,6.0,332.7054060000591,7.0,0.0,part_2,stop,250.0,300.0,3.0,,,,,,,,,cyan,cross
0.0,5.0,1.0,1.0,5.0,0.0,0.0,7.0,0.0,part_2,stop,250.0,250.0,4.0,,,,,,,,,gray,square
0.0,8.0,4.0,1.0,6.0,6.0,231.971152999904,7.0,0.0,part_2,stop,300.0,250.0,3.0,,,,,,,,,cyan,cross
0.0,3.0,3.0,0.0,5.0,5.0,276.3552920005168,7.0,0.0,part_2,go,300.0,200.0,1.0,,,,,,,,,orange,I
0.0,7.0,3.0,1.0,6.0,0.0,0.0,7.0,0.0,part_2,stop,300.0,200.0,4.0,,,,,,,,,magenta,diamond
0.0,2.0,2.0,0.0,6.0,6.0,286.6747569996732,7.0,0.0,part_2,go,300.0,250.0,1.0,,,,,,,,,green,circle
0.0,1.0,1.0,0.0,6.0,6.0,281.7858720000004,7.0,0.0,part_2,go,300.0,250.0,1.0,,,,,,,,,white,hexagon
0.0,8.0,4.0,1.0,5.0,5.0,274.7241949991803,7.0,0.0,part_2,stop,300.0,250.0,3.0,,,,,,,,,cyan,cross
0.0,5.0,1.0,1.0,6.0,6.0,341.4871420000054,7.0,0.0,part_2,stop,250.0,250.0,3.0,,,,,,,,,gray,square
0.0,4.0,4.0,0.0,6.0,6.0,560.7420229998752,7.0,0.0,part_2,go,250.0,200.0,1.0,,,,,,,,,yellow,flipped triangle
0.0,6.0,2.0,1.0,6.0,6.0,291.1598139999114,7.0,0.0,part_2,go,250.0,200.0,1.0,,,,,,,,,blue,triangle
0.0,4.0,4.0,0.0,5.0,5.0,366.9739879996996,7.0,0.0,part_2,go,250.0,200.0,1.0,,,,,,,,,yellow,flipped triangle
0.0,4.0,4.0,0.0,6.0,6.0,282.2015299998384,7.0,0.0,part_2,go,250.0,200.0,1.0,,,,,,,,,yellow,flipped triangle
0.0,5.0,1.0,1.0,5.0,0.0,0.0,7.0,0.0,part_2,stop,250.0,200.0,4.0,,,,,,,,,gray,square
0.0,2.0,2.0,0.0,5.0,5.0,355.5828409998867,7.0,0.0,part_2,go,300.0,200.0,1.0,,,,,,,,,green,circle
0.0,6.0,2.0,1.0,6.0,6.0,0.3245819998483,7.0,0.0,part_2,go,300.0,200.0,1.0,,,,,,,,,blue,triangle
0.0,5.0,1.0,1.0,5.0,5.0,232.5650140001016,7.0,0.0,part_2,stop,300.0,200.0,3.0,,,,,,,,,gray,square
0.0,6.0,2.0,1.0,6.0,6.0,188.1928309994691,7.0,0.0,part_2,stop,250.0,200.0,3.0,,,,,,,,,blue,triangle
0.0,2.0,2.0,0.0,5.0,5.0,491.0139339999659,7.0,0.0,part_2,go,250.0,150.0,1.0,,,,,,,,,green,circle
0.0,4.0,4.0,0.0,6.0,6.0,316.7140960003962,7.0,0.0,part_2,go,250.0,150.0,1.0,,,,,,,,,yellow,flipped triangle
0.0,5.0,1.0,1.0,5.0,5.0,224.9096699997608,7.0,0.0,part_2,go,250.0,150.0,1.0,,,,,,,,,gray,square
0.0,3.0,3.0,0.0,6.0,6.0,443.7401459999819,7.0,0.0,part_2,go,250.0,150.0,1.0,,,,,,,,,orange,I
0.0,7.0,3.0,1.0,6.0,6.0,261.8749610001032,7.0,0.0,part_2,go,250.0,150.0,1.0,,,,,,,,,magenta,diamond
0.0,8.0,4.0,1.0,6.0,6.0,601.3877020004657,8.0,0.0,part_2,go,250.0,150.0,1.0,,,,,,,,,cyan,cross
0.0,6.0,2.0,1.0,5.0,0.0,0.0,8.0,0.0,part_2,stop,250.0,150.0,4.0,,,,,,,,,blue,triangle
0.0,7.0,3.0,1.0,5.0,0.0,0.0,8.0,0.0,part_2,stop,300.0,150.0,4.0,,,,,,,,,magenta,diamond
0.0,4.0,4.0,0.0,5.0,5.0,317.4476229996799,8.0,0.0,part_2,go,350.0,150.0,1.0,,,,,,,,,yellow,flipped triangle
0.0,7.0,3.0,1.0,6.0,6.0,492.5043659995936,8.0,0.0,part_2,go,350.0,150.0,1.0,,,,,,,,,magenta,diamond
0.0,6.0,2.0,1.0,6.0,6.0,277.5064690004001,8.0,0.0,part_2,stop,350.0,150.0,3.0,,,,,,,,,blue,triangle
0.0,2.0,2.0,0.0,5.0,5.0,510.5377429999862,8.0,0.0,part_2,go,350.0,100.0,1.0,,,,,,,,,green,circle
0.0,4.0,4.0,0.0,6.0,6.0,584.3167229995743,8.0,0.0,part_2,go,350.0,100.0,1.0,,,,,,,,,yellow,flipped triangle
0.0,8.0,4.0,1.0,5.0,5.0,479.8881910001,8.0,0.0,part_2,stop,350.0,100.0,3.0,,,,,,,,,cyan,cross
0.0,8.0,4.0,1.0,5.0,5.0,531.7834750003385,8.0,0.0,part_2,go,300.0,100.0,1.0,,,,,,,,,cyan,cross
0.0,3.0,3.0,0.0,6.0,6.0,389.2475029997513,8.0,0.0,part_2,go,300.0,100.0,1.0,,,,,,,,,orange,I
0.0,2.0,2.0,0.0,6.0,6.0,537.3660010000094,8.0,0.0,part_2,go,300.0,100.0,1.0,,,,,,,,,green,circle
0.0,1.0,1.0,0.0,5.0,5.0,617.3846989995582,8.0,0.0,part_2,go,300.0,100.0,1.0,,,,,,,,,white,hexagon
0.0,6.0,2.0,1.0,5.0,0.0,0.0,8.0,0.0,part_2,stop,300.0,100.0,4.0,,,,,,,,,blue,triangle
0.0,1.0,1.0,0.0,5.0,5.0,621.8033850000211,8.0,0.0,part_2,go,350.0,100.0,1.0,,,,,,,,,white,hexagon
0.0,3.0,3.0,0.0,6.0,6.0,299.8332480001409,8.0,0.0,part_2,go,350.0,100.0,1.0,,,,,,,,,orange,I
0.0,1.0,1.0,0.0,5.0,5.0,548.5806640008377,8.0,0.0,part_2,go,350.0,100.0,1.0,,,,,,,,,white,hexagon
0.0,8.0,4.0,1.0,5.0,0.0,0.0,8.0,0.0,part_2,stop,350.0,100.0,4.0,,,,,,,,,cyan,cross
0.0,3.0,3.0,0.0,5.0,5.0,339.0110549999008,8.0,0.0,part_2,go,400.0,100.0,1.0,,,,,,,,,orange,I
0.0,8.0,4.0,1.0,6.0,0.0,0.0,8.0,0.0,part_2,stop,400.0,100.0,4.0,,,,,,,,,cyan,cross
0.0,7.0,3.0,1.0,5.0,5.0,236.066794999715,8.0,0.0,part_2,stop,400.0,150.0,3.0,,,,,,,,,magenta,diamond
0.0,2.0,2.0,0.0,6.0,6.0,462.7247769994937,8.0,0.0,part_2,go,350.0,150.0,1.0,,,,,,,,,green,circle
0.0,7.0,3.0,1.0,6.0,0.0,0.0,8.0,0.0,part_2,stop,350.0,150.0,4.0,,,,,,,,,magenta,diamond
0.0,2.0,2.0,0.0,6.0,6.0,366.0060209995208,8.0,0.0,part_2,go,350.0,200.0,1.0,,,,,,,,,green,circle
0.0,6.0,2.0,1.0,5.0,5.0,391.1108040001636,8.0,0.0,part_2,stop,350.0,200.0,3.0,,,,,,,,,blue,triangle
0.0,2.0,2.0,0.0,5.0,5.0,472.6048160000573,8.0,0.0,part_2,go,300.0,200.0,1.0,,,,,,,,,green,circle
0.0,3.0,3.0,0.0,5.0,5.0,350.770576999821,8.0,0.0,part_2,go,300.0,200.0,1.0,,,,,,,,,orange,I
0.0,5.0,1.0,1.0,6.0,0.0,0.0,8.0,0.0,part_2,stop,300.0,200.0,4.0,,,,,,,,,gray,square
0.0,1.0,1.0,0.0,5.0,5.0,552.8811469994253,8.0,0.0,part_2,go,300.0,250.0,1.0,,,,,,,,,white,hexagon
0.0,1.0,1.0,0.0,5.0,5.0,527.2393859995645,8.0,0.0,part_2,go,300.0,250.0,1.0,,,,,,,,,white,hexagon
0.0,4.0,4.0,0.0,5.0,5.0,348.2247900001312,8.0,0.0,part_2,go,300.0,250.0,1.0,,,,,,,,,yellow,flipped triangle
0.0,3.0,3.0,0.0,6.0,6.0,443.8005729998622,8.0,0.0,part_2,go,300.0,250.0,1.0,,,,,,,,,orange,I
0.0,3.0,3.0,0.0,5.0,5.0,407.9262980003477,8.0,0.0,part_2,go,300.0,250.0,1.0,,,,,,,,,orange,I
0.0,4.0,4.0,0.0,6.0,6.0,407.7063549993909,8.0,0.0,part_2,go,300.0,250.0,1.0,,,,,,,,,yellow,flipped triangle
0.0,1.0,1.0,0.0,6.0,6.0,328.9150749997134,8.0,0.0,part_2,go,300.0,250.0,1.0,,,,,,,,,white,hexagon
0.0,6.0,2.0,1.0,6.0,0.0,0.0,8.0,0.0,part_2,stop,300.0,250.0,4.0,,,,,,,,,blue,triangle
0.0,4.0,4.0,0.0,7.0,3.0,3930.642946000262,1.0,1.0,part_3,go,0.0,0.0,0.0,98.0,2.0,147.0,49.0,98.0,196.0,294.0,245.0,yellow,flipped triangle
0.0,7.0,3.0,1.0,7.0,5.0,3795.7924789998287,1.0,1.0,part_3,go,0.0,0.0,0.0,176.0,4.0,132.0,44.0,88.0,264.0,176.0,220.0,magenta,diamond
0.0,2.0,2.0,0.0,7.0,3.0,1543.924436999987,1.0,1.0,part_3,go,0.0,0.0,0.0,195.0,5.0,78.0,117.0,195.0,39.0,156.0,234.0,green,circle
0.0,1.0,1.0,0.0,7.0,5.0,3683.403943000485,1.0,1.0,part_3,go,0.0,0.0,0.0,204.0,6.0,68.0,136.0,102.0,34.0,204.0,170.0,white,hexagon
0.0,2.0,2.0,0.0,7.0,1.0,1637.2834949997923,1.0,1.0,part_3,go,0.0,0.0,0.0,204.0,6.0,204.0,34.0,68.0,136.0,170.0,102.0,green,circle
0.0,2.0,2.0,0.0,7.0,5.0,1393.559013000413,1.0,1.0,part_3,go,0.0,0.0,0.0,270.0,5.0,324.0,162.0,108.0,216.0,270.0,54.0,green,circle
0.0,7.0,3.0,1.0,7.0,4.0,1949.206590000358,1.0,1.0,part_3,go,0.0,0.0,0.0,216.0,4.0,324.0,54.0,162.0,216.0,108.0,270.0,magenta,diamond
0.0,7.0,3.0,1.0,7.0,4.0,2175.219116000335,1.0,1.0,part_3,go,0.0,0.0,0.0,204.0,6.0,34.0,102.0,68.0,204.0,170.0,136.0,magenta,diamond
0.0,5.0,1.0,1.0,7.0,4.0,1291.5348349997655,1.0,1.0,part_3,go,0.0,0.0,0.0,176.0,4.0,220.0,132.0,44.0,176.0,264.0,88.0,gray,square
0.0,7.0,3.0,1.0,7.0,1.0,2133.471582999846,1.0,1.0,part_3,go,0.0,0.0,0.0,196.0,4.0,196.0,49.0,147.0,294.0,98.0,245.0,magenta,diamond
0.0,5.0,1.0,1.0,7.0,1.0,1983.3759389994157,1.0,1.0,part_3,go,0.0,0.0,0.0,78.0,2.0,78.0,156.0,39.0,117.0,234.0,195.0,gray,square
0.0,4.0,4.0,0.0,7.0,5.0,1851.6145039993717,1.0,1.0,part_3,go,0.0,0.0,0.0,170.0,5.0,136.0,102.0,68.0,34.0,170.0,204.0,yellow,flipped triangle
0.0,4.0,4.0,0.0,7.0,1.0,1681.5060159997302,1.0,1.0,part_3,go,0.0,0.0,0.0,162.0,3.0,162.0,216.0,108.0,324.0,54.0,270.0,yellow,flipped triangle
0.0,8.0,4.0,1.0,7.0,2.0,2647.8206680003495,1.0,1.0,part_3,go,0.0,0.0,0.0,196.0,4.0,294.0,196.0,147.0,98.0,49.0,245.0,cyan,cross
0.0,1.0,1.0,0.0,7.0,3.0,1131.2771619996056,1.0,1.0,part_3,go,0.0,0.0,0.0,220.0,5.0,88.0,44.0,220.0,264.0,132.0,176.0,white,hexagon
0.0,6.0,2.0,1.0,7.0,3.0,2922.861613999885,1.0,1.0,part_3,go,0.0,0.0,0.0,196.0,4.0,245.0,98.0,196.0,49.0,294.0,147.0,blue,triangle
0.0,6.0,2.0,1.0,7.0,4.0,1851.886667999679,1.0,1.0,part_3,go,0.0,0.0,0.0,216.0,4.0,54.0,270.0,162.0,216.0,324.0,108.0,blue,triangle
0.0,1.0,1.0,0.0,7.0,5.0,1272.957905000112,1.0,1.0,part_3,go,0.0,0.0,0.0,220.0,5.0,44.0,132.0,176.0,88.0,220.0,264.0,white,hexagon
0.0,5.0,1.0,1.0,7.0,1.0,1322.8770180003266,1.0,1.0,part_3,go,0.0,0.0,0.0,98.0,2.0,98.0,49.0,294.0,196.0,245.0,147.0,gray,square
0.0,5.0,1.0,1.0,7.0,1.0,773.5287890000109,1.0,1.0,part_3,go,0.0,0.0,0.0,88.0,2.0,88.0,176.0,264.0,132.0,220.0,44.0,gray,square
0.0,6.0,2.0,1.0,7.0,4.0,2468.960163000702,2.0,1.0,part_3,go,0.0,0.0,0.0,195.0,5.0,234.0,78.0,117.0,195.0,156.0,39.0,blue,triangle
0.0,5.0,1.0,1.0,7.0,1.0,597.5388349997957,2.0,1.0,part_3,go,0.0,0.0,0.0,78.0,2.0,78.0,39.0,117.0,234.0,195.0,156.0,gray,square
0.0,3.0,3.0,0.0,7.0,5.0,663.1825459999163,2.0,1.0,part_3,go,0.0,0.0,0.0,136.0,4.0,102.0,68.0,204.0,170.0,136.0,34.0,orange,I
0.0,4.0,4.0,0.0,7.0,2.0,783.9099769998938,2.0,1.0,part_3,go,0.0,0.0,0.0,176.0,4.0,220.0,176.0,44.0,88.0,132.0,264.0,yellow,flipped triangle
0.0,5.0,1.0,1.0,7.0,2.0,807.6765400001022,2.0,1.0,part_3,go,0.0,0.0,0.0,216.0,4.0,54.0,216.0,108.0,270.0,324.0,162.0,gray,square
0.0,3.0,3.0,0.0,7.0,1.0,1282.474548999744,2.0,1.0,part_3,go,0.0,0.0,0.0,204.0,6.0,204.0,136.0,68.0,102.0,34.0,170.0,orange,I
0.0,2.0,2.0,0.0,7.0,3.0,1022.8258430006465,2.0,1.0,part_3,go,0.0,0.0,0.0,234.0,6.0,39.0,78.0,234.0,195.0,117.0,156.0,green,circle
0.0,8.0,4.0,1.0,7.0,4.0,877.5143200000457,2.0,1.0,part_3,go,0.0,0.0,0.0,216.0,4.0,324.0,108.0,162.0,216.0,270.0,54.0,cyan,cross
0.0,5.0,1.0,1.0,7.0,6.0,2739.85732500023,2.0,1.0,part_3,go,0.0,0.0,0.0,270.0,5.0,108.0,216.0,162.0,324.0,54.0,270.0,gray,square
0.0,7.0,3.0,1.0,7.0,3.0,785.0028899993049,2.0,1.0,part_3,go,0.0,0.0,0.0,234.0,6.0,117.0,78.0,234.0,39.0,195.0,156.0,magenta,diamond
0.0,7.0,3.0,1.0,7.0,5.0,625.1187140005641,2.0,1.0,part_3,go,0.0,0.0,0.0,264.0,6.0,220.0,88.0,44.0,176.0,264.0,132.0,magenta,diamond
0.0,7.0,3.0,1.0,7.0,3.0,1104.541448999953,2.0,1.0,part_3,go,0.0,0.0,0.0,195.0,5.0,156.0,117.0,195.0,234.0,78.0,39.0,magenta,diamond
0.0,3.0,3.0,0.0,7.0,3.0,877.8486259998317,2.0,1.0,part_3,go,0.0,0.0,0.0,162.0,3.0,216.0,54.0,162.0,270.0,108.0,324.0,orange,I
0.0,4.0,4.0,0.0,7.0,5.0,1653.77030900072,2.0,1.0,part_3,go,0.0,0.0,0.0,156.0,4.0,39.0,195.0,117.0,78.0,156.0,234.0,yellow,flipped triangle
0.0,4.0,4.0,0.0,7.0,5.0,1017.4882889996295,2.0,1.0,part_3,go,0.0,0.0,0.0,294.0,6.0,245.0,196.0,49.0,98.0,294.0,147.0,yellow,flipped triangle
0.0,3.0,3.0,0.0,7.0,3.0,1883.645271000205,2.0,1.0,part_3,go,0.0,0.0,0.0,245.0,5.0,147.0,196.0,245.0,98.0,294.0,49.0,orange,I
0.0,3.0,3.0,0.0,7.0,3.0,503.14666099984606,2.0,1.0,part_3,go,0.0,0.0,0.0,264.0,6.0,44.0,132.0,264.0,176.0,220.0,88.0,orange,I
0.0,6.0,2.0,1.0,7.0,1.0,4058.936181999343,2.0,1.0,part_3,go,0.0,0.0,0.0,196.0,4.0,196.0,147.0,245.0,49.0,294.0,98.0,blue,triangle
0.0,5.0,1.0,1.0,7.0,6.0,1206.372881999414,2.0,1.0,part_3,go,0.0,0.0,0.0,34.0,1.0,170.0,204.0,68.0,102.0,136.0,34.0,gray,square
0.0,8.0,4.0,1.0,7.0,3.0,779.3077670003186,2.0,1.0,part_3,go,0.0,0.0,0.0,204.0,6.0,170.0,68.0,204.0,102.0,34.0,136.0,cyan,cross
0.0,6.0,2.0,1.0,7.0,2.0,1518.4844249997695,3.0,1.0,part_3,go,0.0,0.0,0.0,204.0,6.0,170.0,204.0,136.0,34.0,68.0,102.0,blue,triangle
0.0,7.0,3.0,1.0,7.0,3.0,1169.8600109994004,3.0,1.0,part_3,go,0.0,0.0,0.0,204.0,6.0,68.0,170.0,204.0,136.0,34.0,102.0,magenta,diamond
0.0,8.0,4.0,1.0,7.0,4.0,685.9227060003832,3.0,1.0,part_3,go,0.0,0.0,0.0,234.0,6.0,156.0,117.0,39.0,234.0,78.0,195.0,cyan,cross
0.0,5.0,1.0,1.0,7.0,1.0,1118.4416539999802,3.0,1.0,part_3,go,0.0,0.0,0.0,98.0,2.0,98.0,49.0,196.0,147.0,245.0,294.0,gray,square
0.0,4.0,4.0,0.0,7.0,3.0,1427.5904559999617,3.0,1.0,part_3,go,0.0,0.0,0.0,234.0,6.0,156.0,78.0,234.0,117.0,39.0,195.0,yellow,flipped triangle
0.0,8.0,4.0,1.0,7.0,3.0,3078.72676199986,3.0,1.0,part_3,go,0.0,0.0,0.0,216.0,4.0,270.0,54.0,216.0,162.0,324.0,108.0,cyan,cross
0.0,1.0,1.0,0.0,7.0,4.0,1511.984245000349,3.0,1.0,part_3,go,0.0,0.0,0.0,147.0,3.0,294.0,49.0,98.0,147.0,245.0,196.0,white,hexagon
0.0,3.0,3.0,0.0,7.0,6.0,1624.454771999808,3.0,1.0,part_3,go,0.0,0.0,0.0,270.0,5.0,216.0,162.0,108.0,324.0,54.0,270.0,orange,I
0.0,2.0,2.0,0.0,7.0,3.0,835.2885720005361,3.0,1.0,part_3,go,0.0,0.0,0.0,170.0,5.0,204.0,34.0,170.0,68.0,102.0,136.0,green,circle
0.0,8.0,4.0,1.0,7.0,5.0,855.8219960004863,3.0,1.0,part_3,go,0.0,0.0,0.0,176.0,4.0,44.0,220.0,264.0,132.0,176.0,88.0,cyan,cross
0.0,5.0,1.0,1.0,7.0,2.0,1363.103355000021,3.0,1.0,part_3,go,0.0,0.0,0.0,68.0,2.0,34.0,68.0,136.0,204.0,170.0,102.0,gray,square
0.0,8.0,4.0,1.0,7.0,2.0,820.2035180001985,3.0,1.0,part_3,go,0.0,0.0,0.0,245.0,5.0,49.0,245.0,196.0,98.0,147.0,294.0,cyan,cross
0.0,7.0,3.0,1.0,7.0,3.0,1706.4307390000977,3.0,1.0,part_3,go,0.0,0.0,0.0,270.0,5.0,108.0,162.0,270.0,216.0,54.0,324.0,magenta,diamond
0.0,3.0,3.0,0.0,7.0,2.0,1778.0265700002928,3.0,1.0,part_3,go,0.0,0.0,0.0,234.0,6.0,78.0,234.0,156.0,117.0,39.0,195.0,orange,I
0.0,6.0,2.0,1.0,7.0,4.0,2161.5259680002055,3.0,1.0,part_3,go,0.0,0.0,0.0,220.0,5.0,264.0,44.0,132.0,220.0,176.0,88.0,blue,triangle
0.0,8.0,4.0,1.0,7.0,1.0,1716.0258080002675,3.0,1.0,part_3,go,0.0,0.0,0.0,204.0,6.0,204.0,68.0,34.0,170.0,102.0,136.0,cyan,cross
0.0,2.0,2.0,0.0,7.0,5.0,2061.233811999955,3.0,1.0,part_3,go,0.0,0.0,0.0,216.0,4.0,54.0,162.0,324.0,108.0,216.0,270.0,green,circle
0.0,6.0,2.0,1.0,7.0,4.0,2324.4768819995443,3.0,1.0,part_3,go,0.0,0.0,0.0,195.0,5.0,156.0,117.0,39.0,195.0,78.0,234.0,blue,triangle
0.0,3.0,3.0,0.0,7.0,4.0,1326.687545999448,3.0,1.0,part_3,go,0.0,0.0,0.0,176.0,4.0,264.0,44.0,220.0,176.0,88.0,132.0,orange,I
0.0,7.0,3.0,1.0,7.0,2.0,2547.430679000172,3.0,1.0,part_3,go,0.0,0.0,0.0,196.0,4.0,98.0,196.0,147.0,294.0,245.0,49.0,magenta,diamond
0.0,8.0,4.0,1.0,7.0,5.0,1418.253920999632,4.0,1.0,part_3,go,0.0,0.0,0.0,195.0,5.0,234.0,117.0,39.0,78.0,195.0,156.0,cyan,cross
0.0,1.0,1.0,0.0,7.0,5.0,1781.9678009991549,4.0,1.0,part_3,go,0.0,0.0,0.0,162.0,3.0,54.0,216.0,324.0,270.0,162.0,108.0,white,hexagon
0.0,2.0,2.0,0.0,7.0,3.0,2113.430385999891,4.0,1.0,part_3,go,0.0,0.0,0.0,196.0,4.0,49.0,294.0,196.0,98.0,147.0,245.0,green,circle
0.0,3.0,3.0,0.0,7.0,4.0,1272.1011879993966,4.0,1.0,part_3,go,0.0,0.0,0.0,245.0,5.0,98.0,49.0,294.0,245.0,147.0,196.0,orange,I
0.0,4.0,4.0,0.0,7.0,4.0,1130.3337370000008,4.0,1.0,part_3,go,0.0,0.0,0.0,216.0,4.0,270.0,162.0,108.0,216.0,54.0,324.0,yellow,flipped triangle
0.0,2.0,2.0,0.0,7.0,5.0,2116.7264340001566,4.0,1.0,part_3,go,0.0,0.0,0.0,220.0,5.0,264.0,132.0,88.0,176.0,220.0,44.0,green,circle
0.0,4.0,4.0,0.0,7.0,4.0,172.0014949996766,4.0,1.0,part_3,go,0.0,0.0,0.0,68.0,2.0,34.0,136.0,102.0,68.0,170.0,204.0,yellow,flipped triangle
0.0,2.0,2.0,0.0,7.0,2.0,374.0902780000397,4.0,1.0,part_3,go,0.0,0.0,0.0,88.0,2.0,132.0,88.0,220.0,176.0,44.0,264.0,green,circle
0.0,6.0,2.0,1.0,7.0,3.0,2425.0241850004386,4.0,1.0,part_3,go,0.0,0.0,0.0,216.0,4.0,54.0,108.0,216.0,324.0,270.0,162.0,blue,triangle
0.0,3.0,3.0,0.0,7.0,4.0,1287.033995999991,4.0,1.0,part_3,go,0.0,0.0,0.0,156.0,4.0,234.0,117.0,195.0,156.0,39.0,78.0,orange,I
0.0,6.0,2.0,1.0,7.0,2.0,1472.7576989998852,4.0,1.0,part_3,go,0.0,0.0,0.0,204.0,6.0,102.0,204.0,170.0,34.0,68.0,136.0,blue,triangle
0.0,1.0,1.0,0.0,7.0,2.0,2555.039052000211,4.0,1.0,part_3,go,0.0,0.0,0.0,195.0,5.0,156.0,195.0,39.0,234.0,117.0,78.0,white,hexagon
0.0,1.0,1.0,0.0,7.0,2.0,1384.8017649997928,4.0,1.0,part_3,go,0.0,0.0,0.0,136.0,4.0,204.0,136.0,68.0,34.0,102.0,170.0,white,hexagon
0.0,6.0,2.0,1.0,7.0,6.0,1195.891584000492,4.0,1.0,part_3,go,0.0,0.0,0.0,176.0,4.0,220.0,88.0,132.0,264.0,44.0,176.0,blue,triangle
0.0,1.0,1.0,0.0,7.0,4.0,1614.8670689999562,4.0,1.0,part_3,go,0.0,0.0,0.0,147.0,3.0,294.0,49.0,196.0,147.0,98.0,245.0,white,hexagon
0.0,8.0,4.0,1.0,7.0,5.0,1650.7399310003166,4.0,1.0,part_3,go,0.0,0.0,0.0,220.0,5.0,176.0,132.0,44.0,264.0,220.0,88.0,cyan,cross
0.0,1.0,1.0,0.0,7.0,2.0,1811.1429170003248,4.0,1.0,part_3,go,0.0,0.0,0.0,216.0,4.0,162.0,216.0,270.0,54.0,108.0,324.0,white,hexagon
0.0,1.0,1.0,0.0,7.0,3.0,927.554978000444,4.0,1.0,part_3,go,0.0,0.0,0.0,195.0,5.0,234.0,156.0,195.0,78.0,117.0,39.0,white,hexagon
0.0,2.0,2.0,0.0,7.0,1.0,2599.5658619995083,4.0,1.0,part_3,go,0.0,0.0,0.0,196.0,4.0,196.0,49.0,245.0,294.0,147.0,98.0,green,circle
0.0,4.0,4.0,0.0,7.0,2.0,1030.402590000449,4.0,1.0,part_3,go,0.0,0.0,0.0,176.0,4.0,132.0,176.0,88.0,220.0,44.0,264.0,yellow,flipped triangle
