raw_reward_magnitude,stim_reward,stepwise_reward_magnitude,paired_with_stopping,stim_location,response,reaction_time,block,num_trial_presentations,which_phase,stop_signal_trial_type,left_SSD,right_SSD,accuracy,chosen_bidding_amount,chosen_bidding_level,possible_bid_1,possible_bid_2,possible_bid_3,possible_bid_4,possible_bid_5,possible_bid_6,color_text,shape_text
211.0,3.0,3.0,0.0,1.0,1.0,306.1158820000855,1.0,1.0,phase_1,,,,,,,,,,,,,cyan,circle
0.0,8.0,0.0,1.0,1.0,1.0,384.9179370008642,1.0,1.0,phase_1,,,,,,,,,,,,,yellow,diamond
95.0,6.0,2.0,1.0,1.0,1.0,409.2257259999314,1.0,1.0,phase_1,,,,,,,,,,,,,magenta,I
63.0,1.0,1.0,0.0,4.0,4.0,304.7081109998544,1.0,1.0,phase_1,,,,,,,,,,,,,green,hexagon
0.0,4.0,0.0,0.0,3.0,3.0,325.390027001049,1.0,1.0,phase_1,,,,,,,,,,,,,blue,square
424.0,8.0,4.0,1.0,2.0,2.0,255.9081680010422,1.0,1.0,phase_1,,,,,,,,,,,,,yellow,diamond
380.0,8.0,4.0,1.0,1.0,1.0,328.9542109996546,1.0,1.0,phase_1,,,,,,,,,,,,,yellow,diamond
201.0,7.0,3.0,1.0,1.0,1.0,305.0821289998566,1.0,1.0,phase_1,,,,,,,,,,,,,gray,triangle
0.0,3.0,0.0,0.0,4.0,4.0,281.477520999033,1.0,1.0,phase_1,,,,,,,,,,,,,cyan,circle
106.0,2.0,2.0,0.0,2.0,2.0,333.6952449990349,1.0,1.0,phase_1,,,,,,,,,,,,,orange,cross
0.0,7.0,0.0,1.0,1.0,1.0,304.58058899967,1.0,1.0,phase_1,,,,,,,,,,,,,gray,triangle
74.0,5.0,1.0,1.0,3.0,3.0,333.0176159997791,1.0,1.0,phase_1,,,,,,,,,,,,,white,flipped triangle
214.0,3.0,3.0,0.0,3.0,3.0,464.1713700002583,1.0,1.0,phase_1,,,,,,,,,,,,,cyan,circle
53.0,1.0,1.0,0.0,4.0,4.0,467.0972679996339,1.0,1.0,phase_1,,,,,,,,,,,,,green,hexagon
198.0,7.0,3.0,1.0,3.0,3.0,374.8603140011255,1.0,1.0,phase_1,,,,,,,,,,,,,gray,triangle
197.0,3.0,3.0,0.0,2.0,2.0,318.0751479994796,1.0,1.0,phase_1,,,,,,,,,,,,,cyan,circle
105.0,2.0,2.0,0.0,1.0,1.0,317.7385740000318,1.0,1.0,phase_1,,,,,,,,,,,,,orange,cross
0.0,4.0,0.0,0.0,4.0,4.0,316.5735440015851,1.0,1.0,phase_1,,,,,,,,,,,,,blue,square
56.0,5.0,1.0,1.0,3.0,3.0,282.4391269987245,1.0,1.0,phase_1,,,,,,,,,,,,,white,flipped triangle
100.0,2.0,2.0,0.0,4.0,4.0,324.7368320007808,1.0,1.0,phase_1,,,,,,,,,,,,,orange,cross
0.0,1.0,0.0,0.0,1.0,1.0,305.0043310013279,1.0,1.0,phase_1,,,,,,,,,,,,,green,hexagon
383.0,8.0,4.0,1.0,1.0,1.0,306.9499130015174,1.0,1.0,phase_1,,,,,,,,,,,,,yellow,diamond
83.0,6.0,2.0,1.0,3.0,3.0,322.0365500001207,1.0,1.0,phase_1,,,,,,,,,,,,,magenta,I
194.0,3.0,3.0,0.0,2.0,2.0,295.599103999848,1.0,1.0,phase_1,,,,,,,,,,,,,cyan,circle
223.0,3.0,3.0,0.0,3.0,3.0,319.9843290003628,1.0,1.0,phase_1,,,,,,,,,,,,,cyan,circle
53.0,1.0,1.0,0.0,3.0,3.0,309.1322039999795,1.0,1.0,phase_1,,,,,,,,,,,,,green,hexagon
207.0,7.0,3.0,1.0,3.0,3.0,321.1297919988283,1.0,1.0,phase_1,,,,,,,,,,,,,gray,triangle
380.0,4.0,4.0,0.0,2.0,2.0,316.4956679993338,1.0,1.0,phase_1,,,,,,,,,,,,,blue,square
220.0,7.0,3.0,1.0,3.0,3.0,345.5343909990915,1.0,1.0,phase_1,,,,,,,,,,,,,gray,triangle
91.0,2.0,2.0,0.0,3.0,3.0,344.1345739993267,1.0,1.0,phase_1,,,,,,,,,,,,,orange,cross
378.0,8.0,4.0,1.0,3.0,3.0,292.2697920002974,1.0,1.0,phase_1,,,,,,,,,,,,,yellow,diamond
405.0,8.0,4.0,1.0,4.0,4.0,309.3900629992276,1.0,1.0,phase_1,,,,,,,,,,,,,yellow,diamond
51.0,1.0,1.0,0.0,4.0,4.0,303.7821400012035,1.0,1.0,phase_1,,,,,,,,,,,,,green,hexagon
208.0,7.0,3.0,1.0,2.0,2.0,354.3781469998066,1.0,1.0,phase_1,,,,,,,,,,,,,gray,triangle
45.0,5.0,1.0,1.0,1.0,1.0,438.2543029987573,1.0,1.0,phase_1,,,,,,,,,,,,,white,flipped triangle
113.0,2.0,2.0,0.0,1.0,1.0,308.7236699993809,1.0,1.0,phase_1,,,,,,,,,,,,,orange,cross
0.0,5.0,0.0,1.0,3.0,3.0,304.86531099995767,1.0,1.0,phase_1,,,,,,,,,,,,,white,flipped triangle
377.0,8.0,4.0,1.0,2.0,2.0,306.7406310001388,1.0,1.0,phase_1,,,,,,,,,,,,,yellow,diamond
87.0,6.0,2.0,1.0,2.0,2.0,299.1277249984705,1.0,1.0,phase_1,,,,,,,,,,,,,magenta,I
77.0,6.0,2.0,1.0,2.0,2.0,288.6271769984887,1.0,1.0,phase_1,,,,,,,,,,,,,magenta,I
203.0,7.0,3.0,1.0,4.0,4.0,323.0070330009766,1.0,1.0,phase_1,,,,,,,,,,,,,gray,triangle
93.0,6.0,2.0,1.0,3.0,3.0,333.1532400006836,1.0,1.0,phase_1,,,,,,,,,,,,,magenta,I
0.0,7.0,0.0,1.0,3.0,3.0,351.3647729996592,1.0,1.0,phase_1,,,,,,,,,,,,,gray,triangle
100.0,6.0,2.0,1.0,4.0,4.0,343.0058419999113,1.0,1.0,phase_1,,,,,,,,,,,,,magenta,I
92.0,6.0,2.0,1.0,2.0,2.0,363.545072999841,1.0,1.0,phase_1,,,,,,,,,,,,,magenta,I
50.0,5.0,1.0,1.0,3.0,3.0,337.9593879999447,1.0,1.0,phase_1,,,,,,,,,,,,,white,flipped triangle
76.0,6.0,2.0,1.0,1.0,1.0,318.2164989993907,1.0,1.0,phase_1,,,,,,,,,,,,,magenta,I
0.0,5.0,0.0,1.0,4.0,4.0,300.0641230009933,1.0,1.0,phase_1,,,,,,,,,,,,,white,flipped triangle
415.0,4.0,4.0,0.0,2.0,2.0,321.2576830010221,1.0,1.0,phase_1,,,,,,,,,,,,,blue,square
186.0,3.0,3.0,0.0,3.0,3.0,328.8204159998713,1.0,1.0,phase_1,,,,,,,,,,,,,cyan,circle
216.0,3.0,3.0,0.0,4.0,4.0,314.4773290005105,1.0,1.0,phase_1,,,,,,,,,,,,,cyan,circle
396.0,8.0,4.0,1.0,1.0,1.0,338.9250380005251,1.0,1.0,phase_1,,,,,,,,,,,,,yellow,diamond
103.0,2.0,2.0,0.0,3.0,3.0,302.1608100007142,1.0,1.0,phase_1,,,,,,,,,,,,,orange,cross
403.0,8.0,4.0,1.0,1.0,1.0,303.9461560001655,1.0,1.0,phase_1,,,,,,,,,,,,,yellow,diamond
0.0,2.0,0.0,0.0,4.0,4.0,316.4705950002826,1.0,1.0,phase_1,,,,,,,,,,,,,orange,cross
76.0,2.0,2.0,0.0,3.0,3.0,325.7908260002295,1.0,1.0,phase_1,,,,,,,,,,,,,orange,cross
125.0,2.0,2.0,0.0,3.0,3.0,367.4472679995233,1.0,1.0,phase_1,,,,,,,,,,,,,orange,cross
401.0,4.0,4.0,0.0,2.0,2.0,331.1489240004448,1.0,1.0,phase_1,,,,,,,,,,,,,blue,square
59.0,5.0,1.0,1.0,4.0,4.0,312.8117569995083,1.0,1.0,phase_1,,,,,,,,,,,,,white,flipped triangle
388.0,4.0,4.0,0.0,2.0,2.0,366.6860030007228,1.0,1.0,phase_1,,,,,,,,,,,,,blue,square
202.0,7.0,3.0,1.0,4.0,4.0,350.6898300001921,1.0,1.0,phase_1,,,,,,,,,,,,,gray,triangle
0.0,2.0,0.0,0.0,1.0,1.0,288.0721309993532,1.0,1.0,phase_1,,,,,,,,,,,,,orange,cross
398.0,8.0,4.0,1.0,3.0,3.0,346.3448470010917,1.0,1.0,phase_1,,,,,,,,,,,,,yellow,diamond
175.0,3.0,3.0,0.0,4.0,4.0,334.1953359995386,1.0,1.0,phase_1,,,,,,,,,,,,,cyan,circle
0.0,6.0,0.0,1.0,4.0,4.0,362.3787760006962,1.0,1.0,phase_1,,,,,,,,,,,,,magenta,I
0.0,8.0,0.0,1.0,4.0,4.0,315.2544320000743,1.0,1.0,phase_1,,,,,,,,,,,,,yellow,diamond
0.0,1.0,0.0,0.0,2.0,2.0,306.651218999832,1.0,1.0,phase_1,,,,,,,,,,,,,green,hexagon
93.0,2.0,2.0,0.0,4.0,4.0,284.9231740001414,1.0,1.0,phase_1,,,,,,,,,,,,,orange,cross
377.0,4.0,4.0,0.0,3.0,3.0,316.9638520012086,1.0,1.0,phase_1,,,,,,,,,,,,,blue,square
377.0,4.0,4.0,0.0,2.0,2.0,343.7591980000434,1.0,1.0,phase_1,,,,,,,,,,,,,blue,square
203.0,7.0,3.0,1.0,1.0,1.0,328.608523001094,1.0,1.0,phase_1,,,,,,,,,,,,,gray,triangle
118.0,6.0,2.0,1.0,1.0,1.0,244.4452800009457,1.0,1.0,phase_1,,,,,,,,,,,,,magenta,I
61.0,5.0,1.0,1.0,2.0,2.0,257.5713580008596,1.0,1.0,phase_1,,,,,,,,,,,,,white,flipped triangle
27.0,5.0,1.0,1.0,1.0,1.0,273.0939310004032,1.0,1.0,phase_1,,,,,,,,,,,,,white,flipped triangle
0.0,1.0,0.0,0.0,2.0,2.0,310.5623750016093,1.0,1.0,phase_1,,,,,,,,,,,,,green,hexagon
38.0,1.0,1.0,0.0,4.0,4.0,294.2563090000476,1.0,2.0,phase_1,,,,,,,,,,,,,green,hexagon
38.0,1.0,1.0,0.0,3.0,3.0,318.0603629989491,1.0,1.0,phase_1,,,,,,,,,,,,,green,hexagon
0.0,5.0,0.0,1.0,1.0,1.0,287.3792699992918,1.0,1.0,phase_1,,,,,,,,,,,,,white,flipped triangle
0.0,6.0,0.0,1.0,3.0,3.0,368.5149570010253,1.0,1.0,phase_1,,,,,,,,,,,,,magenta,I
118.0,2.0,2.0,0.0,4.0,4.0,297.7462839990039,1.0,1.0,phase_1,,,,,,,,,,,,,orange,cross
49.0,5.0,1.0,1.0,1.0,1.0,290.4319609988306,1.0,1.0,phase_1,,,,,,,,,,,,,white,flipped triangle
56.0,1.0,1.0,0.0,2.0,2.0,290.8282850003161,1.0,1.0,phase_1,,,,,,,,,,,,,green,hexagon
388.0,4.0,4.0,0.0,4.0,4.0,270.8784970000124,1.0,1.0,phase_1,,,,,,,,,,,,,blue,square
202.0,3.0,3.0,0.0,4.0,4.0,274.7344409999641,1.0,1.0,phase_1,,,,,,,,,,,,,cyan,circle
105.0,2.0,2.0,0.0,3.0,3.0,372.9172149996884,1.0,1.0,phase_1,,,,,,,,,,,,,orange,cross
0.0,7.0,0.0,1.0,3.0,3.0,342.344750999473,1.0,1.0,phase_1,,,,,,,,,,,,,gray,triangle
416.0,4.0,4.0,0.0,1.0,1.0,320.128585999555,1.0,1.0,phase_1,,,,,,,,,,,,,blue,square
38.0,5.0,1.0,1.0,4.0,4.0,260.8388640001067,1.0,1.0,phase_1,,,,,,,,,,,,,white,flipped triangle
0.0,2.0,0.0,0.0,3.0,3.0,315.2290699999867,1.0,1.0,phase_1,,,,,,,,,,,,,orange,cross
77.0,2.0,2.0,0.0,1.0,1.0,286.0872210003435,1.0,1.0,phase_1,,,,,,,,,,,,,orange,cross
223.0,7.0,3.0,1.0,2.0,2.0,301.2380840009427,1.0,1.0,phase_1,,,,,,,,,,,,,gray,triangle
0.0,6.0,0.0,1.0,4.0,4.0,288.8525880007364,1.0,1.0,phase_1,,,,,,,,,,,,,magenta,I
114.0,2.0,2.0,0.0,3.0,3.0,329.4638470015343,1.0,1.0,phase_1,,,,,,,,,,,,,orange,cross
423.0,4.0,4.0,0.0,4.0,4.0,338.9197180003975,1.0,1.0,phase_1,,,,,,,,,,,,,blue,square
34.0,1.0,1.0,0.0,4.0,4.0,326.7072490016289,1.0,1.0,phase_1,,,,,,,,,,,,,green,hexagon
0.0,8.0,0.0,1.0,3.0,3.0,360.3109529994981,1.0,1.0,phase_1,,,,,,,,,,,,,yellow,diamond
208.0,3.0,3.0,0.0,2.0,2.0,383.9763240011962,1.0,1.0,phase_1,,,,,,,,,,,,,cyan,circle
0.0,8.0,0.0,1.0,4.0,4.0,297.8602390012383,1.0,1.0,phase_1,,,,,,,,,,,,,yellow,diamond
221.0,3.0,3.0,0.0,2.0,2.0,260.6511419999151,1.0,1.0,phase_1,,,,,,,,,,,,,cyan,circle
74.0,1.0,1.0,0.0,2.0,2.0,299.8978390005504,1.0,1.0,phase_1,,,,,,,,,,,,,green,hexagon
199.0,3.0,3.0,0.0,2.0,2.0,274.6271519990841,2.0,1.0,phase_1,,,,,,,,,,,,,cyan,circle
193.0,3.0,3.0,0.0,1.0,1.0,255.15084300059237,2.0,1.0,phase_1,,,,,,,,,,,,,cyan,circle
178.0,3.0,3.0,0.0,2.0,2.0,236.7584179992263,2.0,1.0,phase_1,,,,,,,,,,,,,cyan,circle
83.0,2.0,2.0,0.0,1.0,1.0,273.921612999402,2.0,1.0,phase_1,,,,,,,,,,,,,orange,cross
0.0,5.0,0.0,1.0,4.0,4.0,260.1561749997927,2.0,1.0,phase_1,,,,,,,,,,,,,white,flipped triangle
0.0,6.0,0.0,1.0,4.0,4.0,299.7238719999586,2.0,1.0,phase_1,,,,,,,,,,,,,magenta,I
379.0,4.0,4.0,0.0,4.0,4.0,384.0788659999816,2.0,1.0,phase_1,,,,,,,,,,,,,blue,square
188.0,7.0,3.0,1.0,3.0,3.0,326.7127390008681,2.0,1.0,phase_1,,,,,,,,,,,,,gray,triangle
0.0,3.0,0.0,0.0,1.0,1.0,273.1457059999229,2.0,1.0,phase_1,,,,,,,,,,,,,cyan,circle
88.0,2.0,2.0,0.0,2.0,2.0,314.9133719998644,2.0,1.0,phase_1,,,,,,,,,,,,,orange,cross
84.0,2.0,2.0,0.0,4.0,4.0,271.3631430015084,2.0,1.0,phase_1,,,,,,,,,,,,,orange,cross
0.0,3.0,0.0,0.0,1.0,1.0,239.0413699995406,2.0,1.0,phase_1,,,,,,,,,,,,,cyan,circle
0.0,3.0,0.0,0.0,1.0,1.0,288.3269089998066,2.0,1.0,phase_1,,,,,,,,,,,,,cyan,circle
36.0,5.0,1.0,1.0,3.0,3.0,295.1956569995673,2.0,1.0,phase_1,,,,,,,,,,,,,white,flipped triangle
95.0,2.0,2.0,0.0,2.0,2.0,357.3115670005791,2.0,1.0,phase_1,,,,,,,,,,,,,orange,cross
92.0,2.0,2.0,0.0,4.0,4.0,319.6386519994121,2.0,1.0,phase_1,,,,,,,,,,,,,orange,cross
211.0,7.0,3.0,1.0,1.0,1.0,328.8197429992578,2.0,1.0,phase_1,,,,,,,,,,,,,gray,triangle
56.0,1.0,1.0,0.0,3.0,3.0,271.9899230014562,2.0,1.0,phase_1,,,,,,,,,,,,,green,hexagon
186.0,7.0,3.0,1.0,3.0,3.0,326.2943800000357,2.0,1.0,phase_1,,,,,,,,,,,,,gray,triangle
194.0,3.0,3.0,0.0,3.0,3.0,290.5238579987781,2.0,1.0,phase_1,,,,,,,,,,,,,cyan,circle
65.0,5.0,1.0,1.0,4.0,4.0,319.2613539995363,2.0,1.0,phase_1,,,,,,,,,,,,,white,flipped triangle
0.0,3.0,0.0,0.0,3.0,3.0,287.9185559995676,2.0,1.0,phase_1,,,,,,,,,,,,,cyan,circle
0.0,3.0,0.0,0.0,4.0,4.0,273.2297179991292,2.0,1.0,phase_1,,,,,,,,,,,,,cyan,circle
216.0,7.0,3.0,1.0,4.0,4.0,288.5971880004945,2.0,1.0,phase_1,,,,,,,,,,,,,gray,triangle
414.0,8.0,4.0,1.0,4.0,4.0,262.2116700003971,2.0,1.0,phase_1,,,,,,,,,,,,,yellow,diamond
0.0,6.0,0.0,1.0,4.0,4.0,259.2008159990655,2.0,1.0,phase_1,,,,,,,,,,,,,magenta,I
114.0,2.0,2.0,0.0,4.0,4.0,255.49769799908972,2.0,1.0,phase_1,,,,,,,,,,,,,orange,cross
92.0,6.0,2.0,1.0,3.0,3.0,329.1380810005648,2.0,1.0,phase_1,,,,,,,,,,,,,magenta,I
178.0,7.0,3.0,1.0,2.0,2.0,283.615018999626,2.0,1.0,phase_1,,,,,,,,,,,,,gray,triangle
390.0,8.0,4.0,1.0,4.0,4.0,294.8252620008134,2.0,1.0,phase_1,,,,,,,,,,,,,yellow,diamond
399.0,8.0,4.0,1.0,1.0,1.0,261.6116860008333,2.0,1.0,phase_1,,,,,,,,,,,,,yellow,diamond
106.0,6.0,2.0,1.0,4.0,4.0,285.8805180003401,2.0,1.0,phase_1,,,,,,,,,,,,,magenta,I
394.0,8.0,4.0,1.0,2.0,2.0,280.3304299995943,2.0,1.0,phase_1,,,,,,,,,,,,,yellow,diamond
214.0,7.0,3.0,1.0,1.0,1.0,287.1525560003647,2.0,1.0,phase_1,,,,,,,,,,,,,gray,triangle
197.0,3.0,3.0,0.0,3.0,3.0,296.1065519994008,2.0,1.0,phase_1,,,,,,,,,,,,,cyan,circle
0.0,8.0,0.0,1.0,1.0,1.0,263.2395849996101,2.0,1.0,phase_1,,,,,,,,,,,,,yellow,diamond
405.0,4.0,4.0,0.0,3.0,3.0,338.3302229995024,2.0,1.0,phase_1,,,,,,,,,,,,,blue,square
69.0,1.0,1.0,0.0,3.0,3.0,298.0009769999014,2.0,1.0,phase_1,,,,,,,,,,,,,green,hexagon
176.0,3.0,3.0,0.0,1.0,1.0,314.9101090002659,2.0,1.0,phase_1,,,,,,,,,,,,,cyan,circle
0.0,1.0,0.0,0.0,3.0,3.0,292.7236449995689,2.0,1.0,phase_1,,,,,,,,,,,,,green,hexagon
394.0,4.0,4.0,0.0,1.0,1.0,257.4809319994529,2.0,1.0,phase_1,,,,,,,,,,,,,blue,square
124.0,6.0,2.0,1.0,3.0,3.0,310.739607000869,2.0,1.0,phase_1,,,,,,,,,,,,,magenta,I
45.0,1.0,1.0,0.0,3.0,3.0,314.8167010003817,2.0,1.0,phase_1,,,,,,,,,,,,,green,hexagon
411.0,8.0,4.0,1.0,2.0,2.0,270.9142799994879,2.0,1.0,phase_1,,,,,,,,,,,,,yellow,diamond
182.0,3.0,3.0,0.0,4.0,4.0,337.5439510000433,2.0,1.0,phase_1,,,,,,,,,,,,,cyan,circle
197.0,7.0,3.0,1.0,2.0,2.0,290.536679998695,2.0,1.0,phase_1,,,,,,,,,,,,,gray,triangle
0.0,3.0,0.0,0.0,1.0,1.0,276.6635790012515,2.0,1.0,phase_1,,,,,,,,,,,,,cyan,circle
178.0,7.0,3.0,1.0,4.0,4.0,246.2485969990666,2.0,1.0,phase_1,,,,,,,,,,,,,gray,triangle
223.0,7.0,3.0,1.0,4.0,4.0,283.5247000002709,2.0,1.0,phase_1,,,,,,,,,,,,,gray,triangle
49.0,1.0,1.0,0.0,1.0,1.0,321.809459999713,2.0,1.0,phase_1,,,,,,,,,,,,,green,hexagon
180.0,7.0,3.0,1.0,2.0,2.0,422.0946960012952,2.0,1.0,phase_1,,,,,,,,,,,,,gray,triangle
48.0,5.0,1.0,1.0,1.0,1.0,261.0463849996449,2.0,1.0,phase_1,,,,,,,,,,,,,white,flipped triangle
48.0,1.0,1.0,0.0,2.0,2.0,272.4715569984255,2.0,1.0,phase_1,,,,,,,,,,,,,green,hexagon
178.0,3.0,3.0,0.0,3.0,3.0,338.3154089988238,2.0,1.0,phase_1,,,,,,,,,,,,,cyan,circle
121.0,2.0,2.0,0.0,3.0,3.0,295.1257659988187,2.0,1.0,phase_1,,,,,,,,,,,,,orange,cross
69.0,5.0,1.0,1.0,2.0,2.0,290.9528339987446,2.0,1.0,phase_1,,,,,,,,,,,,,white,flipped triangle
409.0,8.0,4.0,1.0,4.0,4.0,284.2358489997423,2.0,1.0,phase_1,,,,,,,,,,,,,yellow,diamond
119.0,6.0,2.0,1.0,3.0,3.0,343.4524989988858,2.0,1.0,phase_1,,,,,,,,,,,,,magenta,I
0.0,4.0,0.0,0.0,2.0,2.0,323.2866470007138,2.0,1.0,phase_1,,,,,,,,,,,,,blue,square
404.0,8.0,4.0,1.0,4.0,4.0,336.4285970001219,2.0,1.0,phase_1,,,,,,,,,,,,,yellow,diamond
203.0,3.0,3.0,0.0,2.0,2.0,264.3473330008419,2.0,1.0,phase_1,,,,,,,,,,,,,cyan,circle
415.0,8.0,4.0,1.0,4.0,4.0,271.0061069992662,2.0,1.0,phase_1,,,,,,,,,,,,,yellow,diamond
0.0,1.0,0.0,0.0,3.0,3.0,269.5937989992671,2.0,1.0,phase_1,,,,,,,,,,,,,green,hexagon
30.0,5.0,1.0,1.0,1.0,1.0,282.3685059993295,2.0,1.0,phase_1,,,,,,,,,,,,,white,flipped triangle
218.0,7.0,3.0,1.0,1.0,1.0,308.4229590003815,2.0,1.0,phase_1,,,,,,,,,,,,,gray,triangle
222.0,7.0,3.0,1.0,1.0,1.0,301.8540640005085,2.0,1.0,phase_1,,,,,,,,,,,,,gray,triangle
51.0,5.0,1.0,1.0,3.0,3.0,273.2929789999616,2.0,2.0,phase_1,,,,,,,,,,,,,white,flipped triangle
105.0,6.0,2.0,1.0,1.0,1.0,264.9882929999876,2.0,1.0,phase_1,,,,,,,,,,,,,magenta,I
48.0,1.0,1.0,0.0,1.0,1.0,299.5971999989706,2.0,1.0,phase_1,,,,,,,,,,,,,green,hexagon
194.0,7.0,3.0,1.0,2.0,2.0,313.1039090003469,2.0,1.0,phase_1,,,,,,,,,,,,,gray,triangle
26.0,5.0,1.0,1.0,2.0,2.0,341.2996860006387,2.0,1.0,phase_1,,,,,,,,,,,,,white,flipped triangle
0.0,7.0,0.0,1.0,4.0,4.0,286.0567799998534,2.0,2.0,phase_1,,,,,,,,,,,,,gray,triangle
389.0,4.0,4.0,0.0,2.0,2.0,295.3530089998821,2.0,1.0,phase_1,,,,,,,,,,,,,blue,square
194.0,7.0,3.0,1.0,1.0,1.0,300.3581190005207,2.0,1.0,phase_1,,,,,,,,,,,,,gray,triangle
175.0,7.0,3.0,1.0,1.0,1.0,328.2203159997152,2.0,1.0,phase_1,,,,,,,,,,,,,gray,triangle
394.0,4.0,4.0,0.0,3.0,3.0,354.2754390000482,2.0,1.0,phase_1,,,,,,,,,,,,,blue,square
200.0,3.0,3.0,0.0,4.0,4.0,329.8941390003165,2.0,1.0,phase_1,,,,,,,,,,,,,cyan,circle
422.0,8.0,4.0,1.0,2.0,2.0,274.3048949996591,2.0,1.0,phase_1,,,,,,,,,,,,,yellow,diamond
68.0,5.0,1.0,1.0,2.0,2.0,341.2525889998505,2.0,1.0,phase_1,,,,,,,,,,,,,white,flipped triangle
0.0,1.0,0.0,0.0,3.0,3.0,304.9520090007718,2.0,1.0,phase_1,,,,,,,,,,,,,green,hexagon
419.0,4.0,4.0,0.0,4.0,4.0,400.5030799999076,2.0,1.0,phase_1,,,,,,,,,,,,,blue,square
108.0,6.0,2.0,1.0,1.0,1.0,305.9430309986055,2.0,1.0,phase_1,,,,,,,,,,,,,magenta,I
403.0,4.0,4.0,0.0,1.0,1.0,291.4585020007507,2.0,1.0,phase_1,,,,,,,,,,,,,blue,square
208.0,3.0,3.0,0.0,4.0,4.0,261.4109380010632,2.0,1.0,phase_1,,,,,,,,,,,,,cyan,circle
222.0,7.0,3.0,1.0,2.0,2.0,283.9626740005769,2.0,1.0,phase_1,,,,,,,,,,,,,gray,triangle
43.0,1.0,1.0,0.0,1.0,1.0,260.0861659993825,2.0,1.0,phase_1,,,,,,,,,,,,,green,hexagon
76.0,6.0,2.0,1.0,1.0,1.0,252.1239090001472,2.0,1.0,phase_1,,,,,,,,,,,,,magenta,I
200.0,7.0,3.0,1.0,2.0,2.0,327.2750039996026,2.0,1.0,phase_1,,,,,,,,,,,,,gray,triangle
0.0,6.0,0.0,1.0,2.0,2.0,351.5155479999521,2.0,1.0,phase_1,,,,,,,,,,,,,magenta,I
0.0,8.0,0.0,1.0,1.0,1.0,298.3112300007633,2.0,1.0,phase_1,,,,,,,,,,,,,yellow,diamond
43.0,5.0,1.0,1.0,1.0,1.0,267.6327749995835,2.0,1.0,phase_1,,,,,,,,,,,,,white,flipped triangle
68.0,1.0,1.0,0.0,3.0,3.0,300.6546979995619,2.0,1.0,phase_1,,,,,,,,,,,,,green,hexagon
199.0,7.0,3.0,1.0,2.0,2.0,286.0486090012273,2.0,1.0,phase_1,,,,,,,,,,,,,gray,triangle
398.0,8.0,4.0,1.0,3.0,3.0,307.0206180000241,2.0,1.0,phase_1,,,,,,,,,,,,,yellow,diamond
396.0,4.0,4.0,0.0,2.0,2.0,269.8570560005464,2.0,1.0,phase_1,,,,,,,,,,,,,blue,square
88.0,6.0,2.0,1.0,2.0,2.0,331.5269769991573,2.0,1.0,phase_1,,,,,,,,,,,,,magenta,I
0.0,4.0,0.0,0.0,3.0,3.0,324.169929999698,2.0,1.0,phase_1,,,,,,,,,,,,,blue,square
0.0,8.0,0.0,1.0,2.0,2.0,285.2732740011561,2.0,1.0,phase_1,,,,,,,,,,,,,yellow,diamond
27.0,1.0,1.0,0.0,3.0,3.0,293.4414539995487,2.0,1.0,phase_1,,,,,,,,,,,,,green,hexagon
114.0,6.0,2.0,1.0,3.0,3.0,301.0712420000345,2.0,1.0,phase_1,,,,,,,,,,,,,magenta,I
30.0,1.0,1.0,0.0,4.0,4.0,305.1073260012344,3.0,1.0,phase_1,,,,,,,,,,,,,green,hexagon
377.0,8.0,4.0,1.0,1.0,1.0,245.9669250001752,3.0,1.0,phase_1,,,,,,,,,,,,,yellow,diamond
106.0,6.0,2.0,1.0,2.0,2.0,264.3755700009933,3.0,1.0,phase_1,,,,,,,,,,,,,magenta,I
51.0,5.0,1.0,1.0,3.0,3.0,287.0378269999492,3.0,1.0,phase_1,,,,,,,,,,,,,white,flipped triangle
398.0,8.0,4.0,1.0,2.0,2.0,241.7583309998008,3.0,1.0,phase_1,,,,,,,,,,,,,yellow,diamond
223.0,3.0,3.0,0.0,1.0,1.0,252.554484999564,3.0,1.0,phase_1,,,,,,,,,,,,,cyan,circle
0.0,2.0,0.0,0.0,4.0,4.0,233.527022999624,3.0,1.0,phase_1,,,,,,,,,,,,,orange,cross
404.0,4.0,4.0,0.0,4.0,4.0,293.2236619999457,3.0,1.0,phase_1,,,,,,,,,,,,,blue,square
399.0,4.0,4.0,0.0,1.0,1.0,290.5217070001527,3.0,1.0,phase_1,,,,,,,,,,,,,blue,square
59.0,1.0,1.0,0.0,3.0,3.0,279.0554639996117,3.0,1.0,phase_1,,,,,,,,,,,,,green,hexagon
388.0,8.0,4.0,1.0,1.0,1.0,294.2095750004228,3.0,1.0,phase_1,,,,,,,,,,,,,yellow,diamond
182.0,7.0,3.0,1.0,3.0,3.0,317.1283020001283,3.0,1.0,phase_1,,,,,,,,,,,,,gray,triangle
414.0,4.0,4.0,0.0,4.0,4.0,297.2362870004872,3.0,1.0,phase_1,,,,,,,,,,,,,blue,square
113.0,6.0,2.0,1.0,4.0,4.0,311.9431890008854,3.0,1.0,phase_1,,,,,,,,,,,,,magenta,I
53.0,5.0,1.0,1.0,2.0,2.0,292.9538160005904,3.0,1.0,phase_1,,,,,,,,,,,,,white,flipped triangle
411.0,4.0,4.0,0.0,1.0,1.0,317.8316939993237,3.0,1.0,phase_1,,,,,,,,,,,,,blue,square
0.0,3.0,0.0,0.0,2.0,2.0,291.6099650010437,3.0,1.0,phase_1,,,,,,,,,,,,,cyan,circle
201.0,3.0,3.0,0.0,2.0,2.0,286.57727800055,3.0,1.0,phase_1,,,,,,,,,,,,,cyan,circle
124.0,2.0,2.0,0.0,1.0,1.0,311.6206340000644,3.0,1.0,phase_1,,,,,,,,,,,,,orange,cross
181.0,3.0,3.0,0.0,1.0,1.0,309.9585630006913,3.0,1.0,phase_1,,,,,,,,,,,,,cyan,circle
398.0,4.0,4.0,0.0,2.0,2.0,273.5200019997137,3.0,1.0,phase_1,,,,,,,,,,,,,blue,square
85.0,2.0,2.0,0.0,1.0,1.0,248.3041359992057,3.0,1.0,phase_1,,,,,,,,,,,,,orange,cross
99.0,6.0,2.0,1.0,3.0,3.0,291.0944830000517,3.0,1.0,phase_1,,,,,,,,,,,,,magenta,I
0.0,5.0,0.0,1.0,2.0,2.0,293.6715510004433,3.0,1.0,phase_1,,,,,,,,,,,,,white,flipped triangle
0.0,1.0,0.0,0.0,1.0,1.0,259.1434620007931,3.0,1.0,phase_1,,,,,,,,,,,,,green,hexagon
121.0,6.0,2.0,1.0,2.0,2.0,276.7850839991297,3.0,1.0,phase_1,,,,,,,,,,,,,magenta,I
76.0,2.0,2.0,0.0,1.0,1.0,273.8939959999698,3.0,1.0,phase_1,,,,,,,,,,,,,orange,cross
182.0,3.0,3.0,0.0,3.0,3.0,317.2698790003778,3.0,1.0,phase_1,,,,,,,,,,,,,cyan,circle
416.0,4.0,4.0,0.0,3.0,3.0,288.8176090000343,3.0,1.0,phase_1,,,,,,,,,,,,,blue,square
398.0,4.0,4.0,0.0,1.0,1.0,259.7119210004166,3.0,1.0,phase_1,,,,,,,,,,,,,blue,square
43.0,1.0,1.0,0.0,3.0,3.0,288.6357970000972,3.0,1.0,phase_1,,,,,,,,,,,,,green,hexagon
0.0,7.0,0.0,1.0,3.0,3.0,300.9013450009661,3.0,1.0,phase_1,,,,,,,,,,,,,gray,triangle
0.0,7.0,0.0,1.0,2.0,2.0,339.1456350000226,3.0,1.0,phase_1,,,,,,,,,,,,,gray,triangle
211.0,3.0,3.0,0.0,4.0,4.0,325.5649769998854,3.0,1.0,phase_1,,,,,,,,,,,,,cyan,circle
201.0,7.0,3.0,1.0,4.0,4.0,339.1475699991133,3.0,1.0,phase_1,,,,,,,,,,,,,gray,triangle
115.0,2.0,2.0,0.0,2.0,2.0,305.0213219994475,3.0,1.0,phase_1,,,,,,,,,,,,,orange,cross
108.0,2.0,2.0,0.0,1.0,1.0,294.1336759995465,3.0,1.0,phase_1,,,,,,,,,,,,,orange,cross
123.0,2.0,2.0,0.0,4.0,4.0,254.7376999991684,3.0,1.0,phase_1,,,,,,,,,,,,,orange,cross
0.0,4.0,0.0,0.0,3.0,3.0,320.2656140001636,3.0,1.0,phase_1,,,,,,,,,,,,,blue,square
0.0,5.0,0.0,1.0,2.0,2.0,290.498899999875,3.0,1.0,phase_1,,,,,,,,,,,,,white,flipped triangle
422.0,8.0,4.0,1.0,1.0,1.0,304.9754140010918,3.0,1.0,phase_1,,,,,,,,,,,,,yellow,diamond
385.0,8.0,4.0,1.0,4.0,4.0,287.9740039988974,3.0,1.0,phase_1,,,,,,,,,,,,,yellow,diamond
197.0,7.0,3.0,1.0,4.0,4.0,286.6754490005405,3.0,1.0,phase_1,,,,,,,,,,,,,gray,triangle
0.0,6.0,0.0,1.0,4.0,4.0,297.0186410002498,3.0,1.0,phase_1,,,,,,,,,,,,,magenta,I
0.0,2.0,0.0,0.0,4.0,4.0,283.8485760003095,3.0,1.0,phase_1,,,,,,,,,,,,,orange,cross
93.0,6.0,2.0,1.0,1.0,1.0,281.2216629990871,3.0,2.0,phase_1,,,,,,,,,,,,,magenta,I
31.0,5.0,1.0,1.0,4.0,4.0,305.4345110012946,3.0,1.0,phase_1,,,,,,,,,,,,,white,flipped triangle
110.0,2.0,2.0,0.0,3.0,3.0,290.0347879985929,3.0,1.0,phase_1,,,,,,,,,,,,,orange,cross
0.0,2.0,0.0,0.0,4.0,4.0,270.8497679996071,3.0,2.0,phase_1,,,,,,,,,,,,,orange,cross
0.0,8.0,0.0,1.0,4.0,4.0,269.7138879993872,3.0,1.0,phase_1,,,,,,,,,,,,,yellow,diamond
198.0,3.0,3.0,0.0,4.0,4.0,265.1757929997984,3.0,1.0,phase_1,,,,,,,,,,,,,cyan,circle
207.0,3.0,3.0,0.0,1.0,1.0,315.7921220008575,3.0,1.0,phase_1,,,,,,,,,,,,,cyan,circle
106.0,2.0,2.0,0.0,3.0,3.0,348.7951719998818,3.0,1.0,phase_1,,,,,,,,,,,,,orange,cross
119.0,2.0,2.0,0.0,2.0,2.0,286.4928090002649,3.0,1.0,phase_1,,,,,,,,,,,,,orange,cross
0.0,1.0,0.0,0.0,4.0,4.0,252.57298799988348,3.0,1.0,phase_1,,,,,,,,,,,,,green,hexagon
31.0,1.0,1.0,0.0,2.0,2.0,263.874221000151,3.0,1.0,phase_1,,,,,,,,,,,,,green,hexagon
71.0,5.0,1.0,1.0,3.0,3.0,281.5893400002096,3.0,1.0,phase_1,,,,,,,,,,,,,white,flipped triangle
385.0,4.0,4.0,0.0,4.0,4.0,272.1516080000583,3.0,1.0,phase_1,,,,,,,,,,,,,blue,square
0.0,1.0,0.0,0.0,4.0,4.0,287.104693999936,3.0,1.0,phase_1,,,,,,,,,,,,,green,hexagon
87.0,2.0,2.0,0.0,2.0,2.0,283.6030449998361,3.0,1.0,phase_1,,,,,,,,,,,,,orange,cross
424.0,4.0,4.0,0.0,2.0,2.0,284.8740380013623,3.0,2.0,phase_1,,,,,,,,,,,,,blue,square
72.0,5.0,1.0,1.0,2.0,2.0,286.1888600000384,3.0,1.0,phase_1,,,,,,,,,,,,,white,flipped triangle
0.0,5.0,0.0,1.0,1.0,1.0,373.5274839982594,3.0,1.0,phase_1,,,,,,,,,,,,,white,flipped triangle
94.0,6.0,2.0,1.0,4.0,4.0,297.4302460006583,3.0,1.0,phase_1,,,,,,,,,,,,,magenta,I
111.0,6.0,2.0,1.0,2.0,2.0,298.5969069995917,3.0,1.0,phase_1,,,,,,,,,,,,,magenta,I
222.0,3.0,3.0,0.0,1.0,1.0,313.7630609999178,3.0,1.0,phase_1,,,,,,,,,,,,,cyan,circle
59.0,1.0,1.0,0.0,2.0,2.0,271.5309699997306,3.0,1.0,phase_1,,,,,,,,,,,,,green,hexagon
208.0,7.0,3.0,1.0,3.0,3.0,341.4415599982021,3.0,1.0,phase_1,,,,,,,,,,,,,gray,triangle
61.0,5.0,1.0,1.0,1.0,1.0,302.3911290001706,3.0,1.0,phase_1,,,,,,,,,,,,,white,flipped triangle
96.0,2.0,2.0,0.0,4.0,4.0,301.4274580000347,3.0,1.0,phase_1,,,,,,,,,,,,,orange,cross
201.0,3.0,3.0,0.0,1.0,1.0,265.2582789996813,3.0,2.0,phase_1,,,,,,,,,,,,,cyan,circle
43.0,5.0,1.0,1.0,4.0,4.0,334.34877199942997,3.0,1.0,phase_1,,,,,,,,,,,,,white,flipped triangle
103.0,6.0,2.0,1.0,2.0,2.0,310.5410509997455,3.0,1.0,phase_1,,,,,,,,,,,,,magenta,I
48.0,5.0,1.0,1.0,4.0,4.0,337.4399980002636,3.0,1.0,phase_1,,,,,,,,,,,,,white,flipped triangle
49.0,5.0,1.0,1.0,4.0,4.0,341.7948660007823,3.0,1.0,phase_1,,,,,,,,,,,,,white,flipped triangle
391.0,8.0,4.0,1.0,3.0,3.0,346.2647599990305,3.0,1.0,phase_1,,,,,,,,,,,,,yellow,diamond
0.0,6.0,0.0,1.0,2.0,2.0,348.8468850009667,3.0,1.0,phase_1,,,,,,,,,,,,,magenta,I
91.0,2.0,2.0,0.0,2.0,2.0,364.8477860006096,3.0,1.0,phase_1,,,,,,,,,,,,,orange,cross
61.0,1.0,1.0,0.0,2.0,2.0,325.7671519986616,3.0,1.0,phase_1,,,,,,,,,,,,,green,hexagon
422.0,4.0,4.0,0.0,3.0,3.0,353.8085310010501,3.0,1.0,phase_1,,,,,,,,,,,,,blue,square
85.0,6.0,2.0,1.0,1.0,1.0,316.1174509987177,3.0,1.0,phase_1,,,,,,,,,,,,,magenta,I
0.0,4.0,0.0,0.0,1.0,1.0,311.2510009996185,3.0,1.0,phase_1,,,,,,,,,,,,,blue,square
30.0,1.0,1.0,0.0,3.0,3.0,320.6476209998072,3.0,1.0,phase_1,,,,,,,,,,,,,green,hexagon
400.0,4.0,4.0,0.0,3.0,3.0,361.9435370001156,3.0,1.0,phase_1,,,,,,,,,,,,,blue,square
40.0,1.0,1.0,0.0,4.0,4.0,307.1872420005093,3.0,1.0,phase_1,,,,,,,,,,,,,green,hexagon
422.0,4.0,4.0,0.0,4.0,4.0,286.4404040010413,3.0,1.0,phase_1,,,,,,,,,,,,,blue,square
176.0,7.0,3.0,1.0,4.0,4.0,305.780541999411,3.0,1.0,phase_1,,,,,,,,,,,,,gray,triangle
71.0,1.0,1.0,0.0,1.0,1.0,285.0459910005156,3.0,1.0,phase_1,,,,,,,,,,,,,green,hexagon
0.0,7.0,0.0,1.0,3.0,3.0,311.7301429992949,3.0,1.0,phase_1,,,,,,,,,,,,,gray,triangle
72.0,1.0,1.0,0.0,1.0,1.0,287.307361000785,3.0,1.0,phase_1,,,,,,,,,,,,,green,hexagon
74.0,5.0,1.0,1.0,4.0,4.0,300.760504000209,3.0,1.0,phase_1,,,,,,,,,,,,,white,flipped triangle
0.0,5.0,0.0,1.0,2.0,2.0,366.3964360002865,3.0,1.0,phase_1,,,,,,,,,,,,,white,flipped triangle
76.0,2.0,2.0,0.0,2.0,2.0,395.0981250000041,3.0,1.0,phase_1,,,,,,,,,,,,,orange,cross
44.0,5.0,1.0,1.0,3.0,3.0,394.687811998665,3.0,1.0,phase_1,,,,,,,,,,,,,white,flipped triangle
76.0,6.0,2.0,1.0,4.0,4.0,323.0375399998593,3.0,1.0,phase_1,,,,,,,,,,,,,magenta,I
40.0,5.0,1.0,1.0,1.0,1.0,254.2808920006791,3.0,1.0,phase_1,,,,,,,,,,,,,white,flipped triangle
197.0,3.0,3.0,0.0,3.0,3.0,370.2883930000098,3.0,1.0,phase_1,,,,,,,,,,,,,cyan,circle
400.0,8.0,4.0,1.0,1.0,1.0,322.6615980001952,3.0,1.0,phase_1,,,,,,,,,,,,,yellow,diamond
386.0,4.0,4.0,0.0,3.0,3.0,378.8802970011602,3.0,1.0,phase_1,,,,,,,,,,,,,blue,square
97.0,6.0,2.0,1.0,2.0,2.0,283.0322070003603,3.0,1.0,phase_1,,,,,,,,,,,,,magenta,I
0.0,4.0,0.0,0.0,4.0,4.0,369.7393879992887,4.0,1.0,phase_1,,,,,,,,,,,,,blue,square
388.0,8.0,4.0,1.0,2.0,2.0,283.0711340011476,4.0,1.0,phase_1,,,,,,,,,,,,,yellow,diamond
110.0,6.0,2.0,1.0,1.0,1.0,263.3469490010611,4.0,1.0,phase_1,,,,,,,,,,,,,magenta,I
391.0,4.0,4.0,0.0,3.0,3.0,288.9860680006677,4.0,1.0,phase_1,,,,,,,,,,,,,blue,square
424.0,4.0,4.0,0.0,2.0,2.0,261.757120000766,4.0,1.0,phase_1,,,,,,,,,,,,,blue,square
38.0,5.0,1.0,1.0,1.0,1.0,419.1251230004127,4.0,2.0,phase_1,,,,,,,,,,,,,white,flipped triangle
63.0,5.0,1.0,1.0,2.0,2.0,270.4774550002184,4.0,1.0,phase_1,,,,,,,,,,,,,white,flipped triangle
0.0,7.0,0.0,1.0,2.0,2.0,282.6342070002283,4.0,1.0,phase_1,,,,,,,,,,,,,gray,triangle
0.0,2.0,0.0,0.0,4.0,4.0,286.3716470001236,4.0,1.0,phase_1,,,,,,,,,,,,,orange,cross
424.0,8.0,4.0,1.0,2.0,2.0,253.92487600038288,4.0,1.0,phase_1,,,,,,,,,,,,,yellow,diamond
44.0,1.0,1.0,0.0,4.0,4.0,266.0885869991034,4.0,1.0,phase_1,,,,,,,,,,,,,green,hexagon
186.0,3.0,3.0,0.0,2.0,2.0,257.6681159989675,4.0,1.0,phase_1,,,,,,,,,,,,,cyan,circle
0.0,4.0,0.0,0.0,4.0,4.0,281.6261290008697,4.0,1.0,phase_1,,,,,,,,,,,,,blue,square
416.0,8.0,4.0,1.0,3.0,3.0,311.728425000183,4.0,1.0,phase_1,,,,,,,,,,,,,yellow,diamond
182.0,7.0,3.0,1.0,3.0,3.0,302.9402590000245,4.0,1.0,phase_1,,,,,,,,,,,,,gray,triangle
65.0,1.0,1.0,0.0,1.0,1.0,249.4202360012423,4.0,1.0,phase_1,,,,,,,,,,,,,green,hexagon
0.0,8.0,0.0,1.0,3.0,3.0,298.3056689990917,4.0,1.0,phase_1,,,,,,,,,,,,,yellow,diamond
34.0,5.0,1.0,1.0,2.0,2.0,334.0032560008694,4.0,1.0,phase_1,,,,,,,,,,,,,white,flipped triangle
0.0,5.0,0.0,1.0,4.0,4.0,272.6047619999008,4.0,1.0,phase_1,,,,,,,,,,,,,white,flipped triangle
59.0,5.0,1.0,1.0,1.0,1.0,245.5883289985649,4.0,1.0,phase_1,,,,,,,,,,,,,white,flipped triangle
222.0,3.0,3.0,0.0,3.0,3.0,287.6935879994562,4.0,1.0,phase_1,,,,,,,,,,,,,cyan,circle
387.0,4.0,4.0,0.0,1.0,1.0,277.4037479994149,4.0,1.0,phase_1,,,,,,,,,,,,,blue,square
0.0,7.0,0.0,1.0,1.0,1.0,317.7212939990568,4.0,1.0,phase_1,,,,,,,,,,,,,gray,triangle
387.0,8.0,4.0,1.0,3.0,3.0,297.8284339988022,4.0,1.0,phase_1,,,,,,,,,,,,,yellow,diamond
398.0,4.0,4.0,0.0,3.0,3.0,335.9329869999783,4.0,1.0,phase_1,,,,,,,,,,,,,blue,square
0.0,7.0,0.0,1.0,4.0,4.0,284.4109519992344,4.0,1.0,phase_1,,,,,,,,,,,,,gray,triangle
218.0,3.0,3.0,0.0,3.0,3.0,338.9728410002135,4.0,1.0,phase_1,,,,,,,,,,,,,cyan,circle
0.0,2.0,0.0,0.0,2.0,2.0,269.5987440001772,4.0,1.0,phase_1,,,,,,,,,,,,,orange,cross
53.0,5.0,1.0,1.0,3.0,3.0,319.644318000428,4.0,1.0,phase_1,,,,,,,,,,,,,white,flipped triangle
50.0,1.0,1.0,0.0,2.0,2.0,298.7280209999881,4.0,1.0,phase_1,,,,,,,,,,,,,green,hexagon
0.0,3.0,0.0,0.0,1.0,1.0,327.5612400011596,4.0,1.0,phase_1,,,,,,,,,,,,,cyan,circle
30.0,5.0,1.0,1.0,4.0,4.0,283.4179199999198,4.0,1.0,phase_1,,,,,,,,,,,,,white,flipped triangle
423.0,8.0,4.0,1.0,1.0,1.0,294.0381150001485,4.0,1.0,phase_1,,,,,,,,,,,,,yellow,diamond
96.0,6.0,2.0,1.0,3.0,3.0,305.2744010001333,4.0,1.0,phase_1,,,,,,,,,,,,,magenta,I
186.0,7.0,3.0,1.0,4.0,4.0,294.2029639998509,4.0,1.0,phase_1,,,,,,,,,,,,,gray,triangle
378.0,4.0,4.0,0.0,4.0,4.0,346.8153840003651,4.0,1.0,phase_1,,,,,,,,,,,,,blue,square
0.0,5.0,0.0,1.0,3.0,3.0,357.6977100001386,4.0,1.0,phase_1,,,,,,,,,,,,,white,flipped triangle
0.0,6.0,0.0,1.0,1.0,1.0,281.7157999998017,4.0,1.0,phase_1,,,,,,,,,,,,,magenta,I
114.0,6.0,2.0,1.0,4.0,4.0,310.2115640012926,4.0,1.0,phase_1,,,,,,,,,,,,,magenta,I
85.0,6.0,2.0,1.0,1.0,1.0,286.2739439988218,4.0,1.0,phase_1,,,,,,,,,,,,,magenta,I
220.0,3.0,3.0,0.0,2.0,2.0,302.681159999338,4.0,1.0,phase_1,,,,,,,,,,,,,cyan,circle
115.0,6.0,2.0,1.0,3.0,3.0,341.5990570010763,4.0,1.0,phase_1,,,,,,,,,,,,,magenta,I
56.0,5.0,1.0,1.0,2.0,2.0,324.1008250006416,4.0,1.0,phase_1,,,,,,,,,,,,,white,flipped triangle
123.0,6.0,2.0,1.0,4.0,4.0,297.645904998717,4.0,1.0,phase_1,,,,,,,,,,,,,magenta,I
203.0,3.0,3.0,0.0,1.0,1.0,294.7817580006813,4.0,1.0,phase_1,,,,,,,,,,,,,cyan,circle
51.0,1.0,1.0,0.0,4.0,4.0,280.444793001152,4.0,1.0,phase_1,,,,,,,,,,,,,green,hexagon
26.0,5.0,1.0,1.0,3.0,3.0,306.261331999849,4.0,1.0,phase_1,,,,,,,,,,,,,white,flipped triangle
36.0,1.0,1.0,0.0,1.0,1.0,367.2214969992637,4.0,1.0,phase_1,,,,,,,,,,,,,green,hexagon
91.0,6.0,2.0,1.0,3.0,3.0,282.9944389995944,4.0,1.0,phase_1,,,,,,,,,,,,,magenta,I
390.0,4.0,4.0,0.0,1.0,1.0,293.4972790008032,4.0,1.0,phase_1,,,,,,,,,,,,,blue,square
26.0,1.0,1.0,0.0,2.0,2.0,300.5025860002206,4.0,1.0,phase_1,,,,,,,,,,,,,green,hexagon
97.0,2.0,2.0,0.0,1.0,1.0,282.1302900010778,4.0,1.0,phase_1,,,,,,,,,,,,,orange,cross
389.0,8.0,4.0,1.0,3.0,3.0,327.6455019986315,4.0,1.0,phase_1,,,,,,,,,,,,,yellow,diamond
401.0,8.0,4.0,1.0,3.0,3.0,301.3672899996891,4.0,1.0,phase_1,,,,,,,,,,,,,yellow,diamond
409.0,4.0,4.0,0.0,1.0,1.0,267.3790699991514,4.0,1.0,phase_1,,,,,,,,,,,,,blue,square
411.0,8.0,4.0,1.0,4.0,4.0,311.3213029992039,4.0,1.0,phase_1,,,,,,,,,,,,,yellow,diamond
0.0,4.0,0.0,0.0,1.0,1.0,272.352554000463,4.0,1.0,phase_1,,,,,,,,,,,,,blue,square
419.0,8.0,4.0,1.0,4.0,4.0,279.290573000253,4.0,1.0,phase_1,,,,,,,,,,,,,yellow,diamond
74.0,1.0,1.0,0.0,2.0,2.0,291.9851280003058,4.0,1.0,phase_1,,,,,,,,,,,,,green,hexagon
386.0,8.0,4.0,1.0,3.0,3.0,312.3232580001058,4.0,1.0,phase_1,,,,,,,,,,,,,yellow,diamond
125.0,6.0,2.0,1.0,2.0,2.0,315.2647979986795,4.0,1.0,phase_1,,,,,,,,,,,,,magenta,I
26.0,1.0,1.0,0.0,4.0,4.0,316.471891999754,4.0,1.0,phase_1,,,,,,,,,,,,,green,hexagon
70.0,5.0,1.0,1.0,4.0,4.0,287.9848620013945,4.0,1.0,phase_1,,,,,,,,,,,,,white,flipped triangle
93.0,2.0,2.0,0.0,1.0,1.0,278.9645119992201,4.0,1.0,phase_1,,,,,,,,,,,,,orange,cross
197.0,7.0,3.0,1.0,1.0,1.0,296.7466660011268,4.0,1.0,phase_1,,,,,,,,,,,,,gray,triangle
111.0,2.0,2.0,0.0,2.0,2.0,288.1058900002244,4.0,1.0,phase_1,,,,,,,,,,,,,orange,cross
0.0,1.0,0.0,0.0,2.0,2.0,299.573706000956,4.0,1.0,phase_1,,,,,,,,,,,,,green,hexagon
412.0,8.0,4.0,1.0,3.0,3.0,303.0131150007946,4.0,1.0,phase_1,,,,,,,,,,,,,yellow,diamond
0.0,4.0,0.0,0.0,4.0,4.0,348.8761610005895,4.0,1.0,phase_1,,,,,,,,,,,,,blue,square
0.0,8.0,0.0,1.0,1.0,1.0,287.3065330004465,4.0,1.0,phase_1,,,,,,,,,,,,,yellow,diamond
211.0,7.0,3.0,1.0,3.0,3.0,331.2026290004723,4.0,1.0,phase_1,,,,,,,,,,,,,gray,triangle
84.0,6.0,2.0,1.0,4.0,4.0,352.8137249995779,4.0,1.0,phase_1,,,,,,,,,,,,,magenta,I
181.0,7.0,3.0,1.0,1.0,1.0,312.7053759999398,4.0,1.0,phase_1,,,,,,,,,,,,,gray,triangle
188.0,3.0,3.0,0.0,4.0,4.0,303.9604390014574,4.0,1.0,phase_1,,,,,,,,,,,,,cyan,circle
180.0,3.0,3.0,0.0,4.0,4.0,371.4427409995551,4.0,1.0,phase_1,,,,,,,,,,,,,cyan,circle
411.0,4.0,4.0,0.0,4.0,4.0,345.9528940002201,4.0,1.0,phase_1,,,,,,,,,,,,,blue,square
92.0,2.0,2.0,0.0,4.0,4.0,300.0894289998541,4.0,1.0,phase_1,,,,,,,,,,,,,orange,cross
44.0,5.0,1.0,1.0,2.0,2.0,312.2667009993165,4.0,1.0,phase_1,,,,,,,,,,,,,white,flipped triangle
105.0,6.0,2.0,1.0,4.0,4.0,260.4867399986688,4.0,1.0,phase_1,,,,,,,,,,,,,magenta,I
412.0,4.0,4.0,0.0,3.0,3.0,350.2197800007707,4.0,1.0,phase_1,,,,,,,,,,,,,blue,square
383.0,4.0,4.0,0.0,1.0,1.0,306.3695850014483,4.0,1.0,phase_1,,,,,,,,,,,,,blue,square
379.0,8.0,4.0,1.0,4.0,4.0,277.2148439999,4.0,1.0,phase_1,,,,,,,,,,,,,yellow,diamond
94.0,2.0,2.0,0.0,4.0,4.0,310.2409200000693,4.0,1.0,phase_1,,,,,,,,,,,,,orange,cross
394.0,8.0,4.0,1.0,2.0,2.0,290.5256230005761,4.0,1.0,phase_1,,,,,,,,,,,,,yellow,diamond
0.0,2.0,0.0,0.0,1.0,1.0,288.6647380000795,4.0,1.0,phase_1,,,,,,,,,,,,,orange,cross
212.0,7.0,3.0,1.0,2.0,2.0,310.3330720005033,4.0,1.0,phase_1,,,,,,,,,,,,,gray,triangle
221.0,7.0,3.0,1.0,3.0,3.0,316.6889699987223,4.0,1.0,phase_1,,,,,,,,,,,,,gray,triangle
91.0,6.0,2.0,1.0,4.0,4.0,328.2790749999549,4.0,1.0,phase_1,,,,,,,,,,,,,magenta,I
70.0,1.0,1.0,0.0,1.0,1.0,306.4183269998466,4.0,1.0,phase_1,,,,,,,,,,,,,green,hexagon
0.0,6.0,0.0,1.0,1.0,1.0,303.2785699997475,4.0,1.0,phase_1,,,,,,,,,,,,,magenta,I
0.0,3.0,0.0,0.0,4.0,4.0,293.7933140001405,4.0,1.0,phase_1,,,,,,,,,,,,,cyan,circle
49.0,1.0,1.0,0.0,1.0,1.0,287.0338980010274,4.0,1.0,phase_1,,,,,,,,,,,,,green,hexagon
99.0,2.0,2.0,0.0,2.0,2.0,367.8335800013883,4.0,1.0,phase_1,,,,,,,,,,,,,orange,cross
416.0,8.0,4.0,1.0,2.0,2.0,320.5839059992286,4.0,1.0,phase_1,,,,,,,,,,,,,yellow,diamond
44.0,1.0,1.0,0.0,1.0,1.0,325.6631700005528,4.0,1.0,phase_1,,,,,,,,,,,,,green,hexagon
193.0,7.0,3.0,1.0,4.0,4.0,321.129922000182,4.0,1.0,phase_1,,,,,,,,,,,,,gray,triangle
85.0,2.0,2.0,0.0,3.0,3.0,340.038860000277,4.0,1.0,phase_1,,,,,,,,,,,,,orange,cross
0.0,2.0,0.0,0.0,4.0,4.0,336.0025010006211,4.0,1.0,phase_1,,,,,,,,,,,,,orange,cross
212.0,3.0,3.0,0.0,1.0,1.0,268.7676980003743,4.0,1.0,phase_1,,,,,,,,,,,,,cyan,circle
61.0,1.0,1.0,0.0,2.0,2.0,302.5444439990679,4.0,1.0,phase_1,,,,,,,,,,,,,green,hexagon
0.0,2.0,2.0,0.0,6.0,6.0,568.3925949997501,1.0,1.0,phase_2,go,250.0,250.0,1.0,,,,,,,,,orange,cross
0.0,1.0,1.0,0.0,5.0,5.0,534.0742179996596,1.0,1.0,phase_2,go,250.0,250.0,1.0,,,,,,,,,green,hexagon
0.0,6.0,2.0,1.0,5.0,5.0,406.616453999959,1.0,1.0,phase_2,stop,250.0,250.0,3.0,,,,,,,,,magenta,I
0.0,4.0,4.0,0.0,6.0,6.0,394.0644100002828,1.0,1.0,phase_2,go,200.0,250.0,1.0,,,,,,,,,blue,square
0.0,2.0,2.0,0.0,5.0,5.0,500.8676670004206,1.0,1.0,phase_2,go,200.0,250.0,1.0,,,,,,,,,orange,cross
0.0,4.0,4.0,0.0,5.0,5.0,454.9809440013632,1.0,1.0,phase_2,go,200.0,250.0,1.0,,,,,,,,,blue,square
0.0,8.0,4.0,1.0,6.0,0.0,0.0,1.0,1.0,phase_2,stop,200.0,250.0,4.0,,,,,,,,,yellow,diamond
0.0,4.0,4.0,0.0,6.0,6.0,310.543494999365,1.0,1.0,phase_2,go,200.0,300.0,1.0,,,,,,,,,blue,square
0.0,4.0,4.0,0.0,5.0,5.0,592.7939760003937,1.0,1.0,phase_2,go,200.0,300.0,1.0,,,,,,,,,blue,square
0.0,6.0,2.0,1.0,6.0,6.0,669.5395079987065,1.0,1.0,phase_2,go,200.0,300.0,1.0,,,,,,,,,magenta,I
0.0,8.0,4.0,1.0,5.0,0.0,0.0,1.0,1.0,phase_2,stop,200.0,300.0,4.0,,,,,,,,,yellow,diamond
0.0,4.0,4.0,0.0,5.0,5.0,564.818529999684,1.0,1.0,phase_2,go,250.0,300.0,1.0,,,,,,,,,blue,square
0.0,1.0,1.0,0.0,6.0,6.0,616.3376699987566,1.0,1.0,phase_2,go,250.0,300.0,1.0,,,,,,,,,green,hexagon
0.0,8.0,4.0,1.0,5.0,0.0,0.0,1.0,1.0,phase_2,stop,250.0,300.0,4.0,,,,,,,,,yellow,diamond
0.0,7.0,3.0,1.0,6.0,6.0,339.0396960003272,1.0,1.0,phase_2,go,300.0,300.0,1.0,,,,,,,,,gray,triangle
0.0,5.0,1.0,1.0,5.0,0.0,0.0,1.0,1.0,phase_2,stop,300.0,300.0,4.0,,,,,,,,,white,flipped triangle
0.0,3.0,3.0,0.0,5.0,5.0,543.5356100006175,1.0,1.0,phase_2,go,350.0,300.0,1.0,,,,,,,,,cyan,circle
0.0,4.0,4.0,0.0,5.0,5.0,767.1687149995705,1.0,1.0,phase_2,go,350.0,300.0,1.0,,,,,,,,,blue,square
0.0,7.0,3.0,1.0,5.0,0.0,0.0,1.0,1.0,phase_2,stop,350.0,300.0,4.0,,,,,,,,,gray,triangle
0.0,1.0,1.0,0.0,5.0,5.0,551.5368010001112,1.0,1.0,phase_2,go,400.0,300.0,1.0,,,,,,,,,green,hexagon
0.0,4.0,4.0,0.0,6.0,6.0,1052.5803439995798,1.0,1.0,phase_2,go,400.0,300.0,1.0,,,,,,,,,blue,square
0.0,3.0,3.0,0.0,6.0,6.0,633.0245209992427,1.0,1.0,phase_2,go,400.0,300.0,1.0,,,,,,,,,cyan,circle
0.0,6.0,2.0,1.0,6.0,6.0,675.0417790008214,1.0,1.0,phase_2,go,400.0,300.0,1.0,,,,,,,,,magenta,I
0.0,3.0,3.0,0.0,5.0,5.0,737.2182920007617,1.0,1.0,phase_2,go,400.0,300.0,1.0,,,,,,,,,cyan,circle
0.0,7.0,3.0,1.0,5.0,0.0,0.0,1.0,1.0,phase_2,stop,400.0,300.0,4.0,,,,,,,,,gray,triangle
0.0,1.0,1.0,0.0,6.0,6.0,301.0621989997162,1.0,1.0,phase_2,go,450.0,300.0,1.0,,,,,,,,,green,hexagon
0.0,2.0,2.0,0.0,6.0,6.0,563.9035940002941,1.0,1.0,phase_2,go,450.0,300.0,1.0,,,,,,,,,orange,cross
0.0,7.0,3.0,1.0,6.0,0.0,0.0,1.0,1.0,phase_2,stop,450.0,300.0,4.0,,,,,,,,,gray,triangle
0.0,4.0,4.0,0.0,5.0,5.0,450.7600390006701,1.0,1.0,phase_2,go,450.0,350.0,1.0,,,,,,,,,blue,square
0.0,6.0,2.0,1.0,5.0,0.0,0.0,1.0,1.0,phase_2,stop,450.0,350.0,4.0,,,,,,,,,magenta,I
0.0,7.0,3.0,1.0,5.0,5.0,458.9979970005515,1.0,1.0,phase_2,stop,500.0,350.0,3.0,,,,,,,,,gray,triangle
0.0,1.0,1.0,0.0,5.0,5.0,741.056855998977,1.0,1.0,phase_2,go,450.0,350.0,1.0,,,,,,,,,green,hexagon
0.0,7.0,3.0,1.0,5.0,5.0,919.7664949988392,1.0,1.0,phase_2,go,450.0,350.0,1.0,,,,,,,,,gray,triangle
0.0,1.0,1.0,0.0,5.0,5.0,1007.8661210009161,1.0,1.0,phase_2,go,450.0,350.0,1.0,,,,,,,,,green,hexagon
0.0,7.0,3.0,1.0,5.0,0.0,0.0,1.0,1.0,phase_2,stop,450.0,350.0,4.0,,,,,,,,,gray,triangle
0.0,8.0,4.0,1.0,6.0,6.0,571.8827059990872,1.0,1.0,phase_2,go,500.0,350.0,1.0,,,,,,,,,yellow,diamond
0.0,7.0,3.0,1.0,5.0,5.0,484.9540169998363,2.0,1.0,phase_2,stop,500.0,350.0,3.0,,,,,,,,,gray,triangle
0.0,5.0,1.0,1.0,5.0,0.0,0.0,2.0,1.0,phase_2,stop,450.0,350.0,4.0,,,,,,,,,white,flipped triangle
0.0,1.0,1.0,0.0,5.0,5.0,484.7548759989877,2.0,1.0,phase_2,go,500.0,350.0,1.0,,,,,,,,,green,hexagon
0.0,6.0,2.0,1.0,5.0,0.0,0.0,2.0,1.0,phase_2,stop,500.0,350.0,4.0,,,,,,,,,magenta,I
0.0,2.0,2.0,0.0,5.0,5.0,608.102936999785,2.0,1.0,phase_2,go,550.0,350.0,1.0,,,,,,,,,orange,cross
0.0,8.0,4.0,1.0,6.0,0.0,0.0,2.0,1.0,phase_2,stop,550.0,350.0,4.0,,,,,,,,,yellow,diamond
0.0,2.0,2.0,0.0,5.0,5.0,755.8911340001941,2.0,1.0,phase_2,go,550.0,400.0,1.0,,,,,,,,,orange,cross
0.0,5.0,1.0,1.0,6.0,0.0,0.0,2.0,1.0,phase_2,stop,550.0,400.0,4.0,,,,,,,,,white,flipped triangle
0.0,2.0,2.0,0.0,6.0,6.0,839.813063001202,2.0,1.0,phase_2,go,550.0,450.0,1.0,,,,,,,,,orange,cross
0.0,3.0,3.0,0.0,5.0,5.0,760.9510000002047,2.0,1.0,phase_2,go,550.0,450.0,1.0,,,,,,,,,cyan,circle
0.0,6.0,2.0,1.0,5.0,5.0,674.1765970000415,2.0,1.0,phase_2,go,550.0,450.0,1.0,,,,,,,,,magenta,I
0.0,3.0,3.0,0.0,5.0,5.0,507.69561099878047,2.0,1.0,phase_2,go,550.0,450.0,1.0,,,,,,,,,cyan,circle
0.0,8.0,4.0,1.0,5.0,5.0,731.7213220012491,2.0,1.0,phase_2,go,550.0,450.0,1.0,,,,,,,,,yellow,diamond
0.0,5.0,1.0,1.0,6.0,0.0,0.0,2.0,1.0,phase_2,stop,550.0,450.0,4.0,,,,,,,,,white,flipped triangle
0.0,1.0,1.0,0.0,6.0,6.0,618.1417600000714,2.0,1.0,phase_2,go,550.0,500.0,1.0,,,,,,,,,green,hexagon
0.0,2.0,2.0,0.0,6.0,6.0,867.7719569986948,2.0,1.0,phase_2,go,550.0,500.0,1.0,,,,,,,,,orange,cross
0.0,6.0,2.0,1.0,5.0,5.0,679.6175939998648,2.0,1.0,phase_2,stop,550.0,500.0,3.0,,,,,,,,,magenta,I
0.0,1.0,1.0,0.0,5.0,5.0,812.6787789988157,2.0,1.0,phase_2,go,500.0,500.0,1.0,,,,,,,,,green,hexagon
0.0,2.0,2.0,0.0,6.0,6.0,753.2674289996066,2.0,1.0,phase_2,go,500.0,500.0,1.0,,,,,,,,,orange,cross
0.0,7.0,3.0,1.0,6.0,0.0,0.0,2.0,1.0,phase_2,stop,500.0,500.0,4.0,,,,,,,,,gray,triangle
0.0,7.0,3.0,1.0,6.0,6.0,650.9482439996646,2.0,1.0,phase_2,stop,500.0,550.0,3.0,,,,,,,,,gray,triangle
0.0,5.0,1.0,1.0,6.0,6.0,742.0363780001935,2.0,1.0,phase_2,go,500.0,500.0,1.0,,,,,,,,,white,flipped triangle
0.0,3.0,3.0,0.0,6.0,6.0,958.2786110004236,2.0,1.0,phase_2,go,500.0,500.0,1.0,,,,,,,,,cyan,circle
0.0,2.0,2.0,0.0,6.0,6.0,872.6555519988324,2.0,1.0,phase_2,go,500.0,500.0,1.0,,,,,,,,,orange,cross
0.0,5.0,1.0,1.0,6.0,0.0,0.0,2.0,1.0,phase_2,stop,500.0,500.0,4.0,,,,,,,,,white,flipped triangle
0.0,7.0,3.0,1.0,6.0,6.0,816.4929859995027,2.0,1.0,phase_2,go,500.0,550.0,1.0,,,,,,,,,gray,triangle
0.0,7.0,3.0,1.0,5.0,5.0,765.2195790014957,2.0,1.0,phase_2,go,500.0,550.0,1.0,,,,,,,,,gray,triangle
0.0,8.0,4.0,1.0,6.0,6.0,653.6591179992683,2.0,1.0,phase_2,stop,500.0,550.0,3.0,,,,,,,,,yellow,diamond
0.0,3.0,3.0,0.0,5.0,5.0,316.5062869993562,2.0,1.0,phase_2,go,500.0,500.0,1.0,,,,,,,,,cyan,circle
0.0,3.0,3.0,0.0,6.0,6.0,851.2100770003599,2.0,1.0,phase_2,go,500.0,500.0,1.0,,,,,,,,,cyan,circle
0.0,7.0,3.0,1.0,5.0,0.0,0.0,2.0,1.0,phase_2,stop,500.0,500.0,4.0,,,,,,,,,gray,triangle
0.0,7.0,3.0,1.0,6.0,0.0,0.0,2.0,1.0,phase_2,stop,550.0,500.0,4.0,,,,,,,,,gray,triangle
0.0,3.0,3.0,0.0,5.0,5.0,533.5676260001492,2.0,1.0,phase_2,go,550.0,550.0,1.0,,,,,,,,,cyan,circle
0.0,1.0,1.0,0.0,5.0,5.0,517.5402320001012,2.0,1.0,phase_2,go,550.0,550.0,1.0,,,,,,,,,green,hexagon
0.0,6.0,2.0,1.0,5.0,0.0,0.0,2.0,1.0,phase_2,stop,550.0,550.0,4.0,,,,,,,,,magenta,I
0.0,4.0,4.0,0.0,5.0,5.0,698.0191760012531,2.0,1.0,phase_2,go,600.0,550.0,1.0,,,,,,,,,blue,square
0.0,8.0,4.0,1.0,5.0,5.0,523.9827250006783,3.0,1.0,phase_2,stop,600.0,550.0,3.0,,,,,,,,,yellow,diamond
0.0,8.0,4.0,1.0,6.0,6.0,611.1126850009896,3.0,1.0,phase_2,stop,550.0,550.0,3.0,,,,,,,,,yellow,diamond
0.0,4.0,4.0,0.0,6.0,6.0,298.2456489989999,3.0,1.0,phase_2,go,550.0,500.0,1.0,,,,,,,,,blue,square
0.0,5.0,1.0,1.0,5.0,5.0,500.34956200033776,3.0,1.0,phase_2,stop,550.0,500.0,3.0,,,,,,,,,white,flipped triangle
0.0,3.0,3.0,0.0,5.0,5.0,809.9731960010104,3.0,1.0,phase_2,go,500.0,500.0,1.0,,,,,,,,,cyan,circle
0.0,3.0,3.0,0.0,5.0,5.0,545.2053159988282,3.0,1.0,phase_2,go,500.0,500.0,1.0,,,,,,,,,cyan,circle
0.0,8.0,4.0,1.0,6.0,6.0,702.1183300003031,3.0,1.0,phase_2,stop,500.0,500.0,3.0,,,,,,,,,yellow,diamond
0.0,5.0,1.0,1.0,5.0,0.0,0.0,3.0,1.0,phase_2,stop,500.0,450.0,4.0,,,,,,,,,white,flipped triangle
0.0,7.0,3.0,1.0,5.0,0.0,0.0,3.0,1.0,phase_2,stop,550.0,450.0,4.0,,,,,,,,,gray,triangle
0.0,2.0,2.0,0.0,5.0,5.0,630.9796740006277,3.0,1.0,phase_2,go,600.0,450.0,1.0,,,,,,,,,orange,cross
0.0,6.0,2.0,1.0,5.0,0.0,0.0,3.0,1.0,phase_2,stop,600.0,450.0,4.0,,,,,,,,,magenta,I
0.0,4.0,4.0,0.0,5.0,5.0,723.9546929995413,3.0,1.0,phase_2,go,650.0,450.0,1.0,,,,,,,,,blue,square
0.0,4.0,4.0,0.0,6.0,6.0,869.7410990007484,3.0,1.0,phase_2,go,650.0,450.0,1.0,,,,,,,,,blue,square
0.0,6.0,2.0,1.0,5.0,5.0,757.9342310000357,3.0,1.0,phase_2,go,650.0,450.0,1.0,,,,,,,,,magenta,I
0.0,6.0,2.0,1.0,6.0,6.0,791.3204960004805,3.0,1.0,phase_2,go,650.0,450.0,1.0,,,,,,,,,magenta,I
0.0,6.0,2.0,1.0,5.0,0.0,0.0,3.0,1.0,phase_2,stop,650.0,450.0,4.0,,,,,,,,,magenta,I
0.0,4.0,4.0,0.0,6.0,6.0,627.5712799997564,3.0,1.0,phase_2,go,700.0,450.0,1.0,,,,,,,,,blue,square
0.0,7.0,3.0,1.0,5.0,0.0,0.0,3.0,1.0,phase_2,stop,700.0,450.0,4.0,,,,,,,,,gray,triangle
0.0,4.0,4.0,0.0,5.0,5.0,666.1229960009223,3.0,1.0,phase_2,go,750.0,450.0,1.0,,,,,,,,,blue,square
0.0,7.0,3.0,1.0,6.0,0.0,0.0,3.0,1.0,phase_2,stop,750.0,450.0,4.0,,,,,,,,,gray,triangle
0.0,8.0,4.0,1.0,6.0,6.0,280.8494210003118,3.0,1.0,phase_2,stop,750.0,500.0,3.0,,,,,,,,,yellow,diamond
0.0,4.0,4.0,0.0,6.0,6.0,497.2814909997396,3.0,1.0,phase_2,go,750.0,450.0,1.0,,,,,,,,,blue,square
0.0,7.0,3.0,1.0,5.0,5.0,812.2190599988244,3.0,1.0,phase_2,stop,750.0,450.0,3.0,,,,,,,,,gray,triangle
0.0,8.0,4.0,1.0,6.0,0.0,0.0,3.0,1.0,phase_2,stop,700.0,450.0,4.0,,,,,,,,,yellow,diamond
0.0,1.0,1.0,0.0,6.0,6.0,648.2828419993893,3.0,1.0,phase_2,go,700.0,500.0,1.0,,,,,,,,,green,hexagon
0.0,5.0,1.0,1.0,5.0,0.0,0.0,3.0,1.0,phase_2,stop,700.0,500.0,4.0,,,,,,,,,white,flipped triangle
0.0,3.0,3.0,0.0,6.0,6.0,734.4280910001544,3.0,1.0,phase_2,go,750.0,500.0,1.0,,,,,,,,,cyan,circle
0.0,8.0,4.0,1.0,5.0,0.0,0.0,3.0,1.0,phase_2,stop,750.0,500.0,4.0,,,,,,,,,yellow,diamond
0.0,7.0,3.0,1.0,6.0,0.0,0.0,3.0,1.0,phase_2,stop,800.0,500.0,4.0,,,,,,,,,gray,triangle
0.0,3.0,3.0,0.0,6.0,6.0,402.2227820005355,3.0,1.0,phase_2,go,800.0,550.0,1.0,,,,,,,,,cyan,circle
0.0,6.0,2.0,1.0,6.0,0.0,0.0,3.0,1.0,phase_2,stop,800.0,550.0,4.0,,,,,,,,,magenta,I
0.0,1.0,1.0,0.0,6.0,6.0,607.9597320003813,3.0,1.0,phase_2,go,800.0,600.0,1.0,,,,,,,,,green,hexagon
0.0,2.0,2.0,0.0,5.0,5.0,1062.6588439990885,3.0,1.0,phase_2,go,800.0,600.0,1.0,,,,,,,,,orange,cross
0.0,2.0,2.0,0.0,6.0,6.0,604.4392999992851,3.0,1.0,phase_2,go,800.0,600.0,1.0,,,,,,,,,orange,cross
0.0,5.0,1.0,1.0,6.0,0.0,0.0,3.0,1.0,phase_2,stop,800.0,600.0,4.0,,,,,,,,,white,flipped triangle
0.0,4.0,4.0,0.0,5.0,5.0,475.9641290002037,3.0,1.0,phase_2,go,800.0,650.0,1.0,,,,,,,,,blue,square
0.0,5.0,1.0,1.0,5.0,5.0,912.2405590005656,4.0,1.0,phase_2,go,800.0,650.0,1.0,,,,,,,,,white,flipped triangle
0.0,2.0,2.0,0.0,6.0,6.0,763.1820520000474,4.0,1.0,phase_2,go,800.0,650.0,1.0,,,,,,,,,orange,cross
0.0,5.0,1.0,1.0,5.0,5.0,833.2926820003195,4.0,1.0,phase_2,stop,800.0,650.0,3.0,,,,,,,,,white,flipped triangle
0.0,8.0,4.0,1.0,5.0,5.0,549.2207489987777,4.0,1.0,phase_2,stop,750.0,650.0,3.0,,,,,,,,,yellow,diamond
0.0,1.0,1.0,0.0,6.0,6.0,484.3203370000992,4.0,1.0,phase_2,go,700.0,650.0,1.0,,,,,,,,,green,hexagon
0.0,5.0,1.0,1.0,6.0,6.0,534.2164100002265,4.0,1.0,phase_2,stop,700.0,650.0,3.0,,,,,,,,,white,flipped triangle
0.0,6.0,2.0,1.0,5.0,5.0,410.12483600025,4.0,1.0,phase_2,stop,700.0,600.0,3.0,,,,,,,,,magenta,I
0.0,1.0,1.0,0.0,5.0,5.0,483.8527199990494,4.0,1.0,phase_2,go,650.0,600.0,1.0,,,,,,,,,green,hexagon
0.0,8.0,4.0,1.0,6.0,6.0,345.5757579995406,4.0,1.0,phase_2,stop,650.0,600.0,3.0,,,,,,,,,yellow,diamond
0.0,1.0,1.0,0.0,6.0,6.0,463.1642629992711,4.0,1.0,phase_2,go,650.0,550.0,1.0,,,,,,,,,green,hexagon
0.0,6.0,2.0,1.0,5.0,5.0,808.1786029997602,4.0,1.0,phase_2,stop,650.0,550.0,3.0,,,,,,,,,magenta,I
0.0,6.0,2.0,1.0,6.0,6.0,1132.9873140002746,4.0,1.0,phase_2,go,600.0,550.0,1.0,,,,,,,,,magenta,I
0.0,8.0,4.0,1.0,5.0,0.0,0.0,4.0,1.0,phase_2,stop,600.0,550.0,4.0,,,,,,,,,yellow,diamond
0.0,6.0,2.0,1.0,5.0,0.0,0.0,4.0,1.0,phase_2,stop,650.0,550.0,4.0,,,,,,,,,magenta,I
0.0,1.0,1.0,0.0,5.0,5.0,501.07693999962066,4.0,1.0,phase_2,go,700.0,550.0,1.0,,,,,,,,,green,hexagon
0.0,4.0,4.0,0.0,6.0,6.0,358.4410049988946,4.0,1.0,phase_2,go,700.0,550.0,1.0,,,,,,,,,blue,square
0.0,4.0,4.0,0.0,5.0,5.0,349.0127530003519,4.0,1.0,phase_2,go,700.0,550.0,1.0,,,,,,,,,blue,square
0.0,6.0,2.0,1.0,6.0,0.0,0.0,4.0,1.0,phase_2,stop,700.0,550.0,4.0,,,,,,,,,magenta,I
0.0,1.0,1.0,0.0,5.0,5.0,524.6478259996366,4.0,1.0,phase_2,go,700.0,600.0,1.0,,,,,,,,,green,hexagon
0.0,3.0,3.0,0.0,5.0,5.0,882.0673129994248,4.0,1.0,phase_2,go,700.0,600.0,1.0,,,,,,,,,cyan,circle
0.0,8.0,4.0,1.0,6.0,6.0,1183.3765730007144,4.0,1.0,phase_2,go,700.0,600.0,1.0,,,,,,,,,yellow,diamond
0.0,5.0,1.0,1.0,6.0,6.0,1041.0917320004955,4.0,1.0,phase_2,go,700.0,600.0,1.0,,,,,,,,,white,flipped triangle
0.0,3.0,3.0,0.0,6.0,6.0,565.5988529997558,4.0,1.0,phase_2,go,700.0,600.0,1.0,,,,,,,,,cyan,circle
0.0,7.0,3.0,1.0,6.0,6.0,1041.3211039995076,4.0,1.0,phase_2,go,700.0,600.0,1.0,,,,,,,,,gray,triangle
0.0,5.0,1.0,1.0,5.0,5.0,798.1366519998119,4.0,1.0,phase_2,stop,700.0,600.0,3.0,,,,,,,,,white,flipped triangle
0.0,6.0,2.0,1.0,6.0,6.0,1058.728809999593,4.0,1.0,phase_2,go,650.0,600.0,1.0,,,,,,,,,magenta,I
0.0,8.0,4.0,1.0,5.0,0.0,0.0,4.0,1.0,phase_2,stop,650.0,600.0,4.0,,,,,,,,,yellow,diamond
0.0,1.0,1.0,0.0,5.0,5.0,365.1806489997398,4.0,1.0,phase_2,go,700.0,600.0,1.0,,,,,,,,,green,hexagon
0.0,6.0,2.0,1.0,6.0,0.0,0.0,4.0,1.0,phase_2,stop,700.0,600.0,4.0,,,,,,,,,magenta,I
0.0,2.0,2.0,0.0,6.0,6.0,531.7091809993144,4.0,1.0,phase_2,go,700.0,650.0,1.0,,,,,,,,,orange,cross
0.0,4.0,4.0,0.0,5.0,5.0,288.7245309993886,4.0,1.0,phase_2,go,700.0,650.0,1.0,,,,,,,,,blue,square
0.0,3.0,3.0,0.0,6.0,6.0,526.3984819994221,4.0,1.0,phase_2,go,700.0,650.0,1.0,,,,,,,,,cyan,circle
0.0,1.0,1.0,0.0,6.0,6.0,373.7672129991551,4.0,1.0,phase_2,go,700.0,650.0,1.0,,,,,,,,,green,hexagon
0.0,1.0,1.0,0.0,6.0,6.0,427.1142870002222,4.0,1.0,phase_2,go,700.0,650.0,1.0,,,,,,,,,green,hexagon
0.0,2.0,2.0,0.0,6.0,6.0,424.7418350005318,4.0,1.0,phase_2,go,700.0,650.0,1.0,,,,,,,,,orange,cross
0.0,8.0,4.0,1.0,5.0,0.0,0.0,4.0,1.0,phase_2,stop,700.0,650.0,4.0,,,,,,,,,yellow,diamond
0.0,2.0,2.0,0.0,6.0,6.0,416.8019589997129,5.0,1.0,phase_2,go,750.0,650.0,1.0,,,,,,,,,orange,cross
0.0,4.0,4.0,0.0,5.0,5.0,409.7606289997202,5.0,1.0,phase_2,go,750.0,650.0,1.0,,,,,,,,,blue,square
0.0,2.0,2.0,0.0,6.0,6.0,455.1391559998592,5.0,1.0,phase_2,go,750.0,650.0,1.0,,,,,,,,,orange,cross
0.0,3.0,3.0,0.0,6.0,6.0,345.5911569999443,5.0,1.0,phase_2,go,750.0,650.0,1.0,,,,,,,,,cyan,circle
0.0,6.0,2.0,1.0,6.0,0.0,0.0,5.0,1.0,phase_2,stop,750.0,650.0,4.0,,,,,,,,,magenta,I
0.0,4.0,4.0,0.0,6.0,6.0,367.5095610014978,5.0,1.0,phase_2,go,750.0,700.0,1.0,,,,,,,,,blue,square
0.0,7.0,3.0,1.0,5.0,5.0,876.31339499967,5.0,1.0,phase_2,stop,750.0,700.0,3.0,,,,,,,,,gray,triangle
0.0,2.0,2.0,0.0,5.0,5.0,419.3120859999908,5.0,1.0,phase_2,go,700.0,700.0,1.0,,,,,,,,,orange,cross
0.0,8.0,4.0,1.0,5.0,0.0,0.0,5.0,1.0,phase_2,stop,700.0,700.0,4.0,,,,,,,,,yellow,diamond
0.0,5.0,1.0,1.0,5.0,0.0,0.0,5.0,1.0,phase_2,stop,750.0,700.0,4.0,,,,,,,,,white,flipped triangle
0.0,7.0,3.0,1.0,6.0,6.0,1009.5806970002741,5.0,1.0,phase_2,go,800.0,700.0,1.0,,,,,,,,,gray,triangle
0.0,2.0,2.0,0.0,5.0,5.0,421.32960500021,5.0,1.0,phase_2,go,800.0,700.0,1.0,,,,,,,,,orange,cross
0.0,4.0,4.0,0.0,6.0,6.0,326.1379999985365,5.0,1.0,phase_2,go,800.0,700.0,1.0,,,,,,,,,blue,square
0.0,3.0,3.0,0.0,6.0,6.0,397.3673599994072,5.0,1.0,phase_2,go,800.0,700.0,1.0,,,,,,,,,cyan,circle
0.0,8.0,4.0,1.0,6.0,6.0,363.2819710001058,5.0,1.0,phase_2,stop,800.0,700.0,3.0,,,,,,,,,yellow,diamond
0.0,1.0,1.0,0.0,6.0,6.0,484.7697150016756,5.0,1.0,phase_2,go,800.0,650.0,1.0,,,,,,,,,green,hexagon
0.0,8.0,4.0,1.0,6.0,6.0,1221.024144000694,5.0,1.0,phase_2,go,800.0,650.0,1.0,,,,,,,,,yellow,diamond
0.0,4.0,4.0,0.0,5.0,5.0,386.2231000002794,5.0,1.0,phase_2,go,800.0,650.0,1.0,,,,,,,,,blue,square
0.0,5.0,1.0,1.0,5.0,0.0,0.0,5.0,1.0,phase_2,stop,800.0,650.0,4.0,,,,,,,,,white,flipped triangle
0.0,2.0,2.0,0.0,5.0,5.0,445.5408189987793,5.0,1.0,phase_2,go,850.0,650.0,1.0,,,,,,,,,orange,cross
0.0,2.0,2.0,0.0,5.0,5.0,366.4076810000551,5.0,1.0,phase_2,go,850.0,650.0,1.0,,,,,,,,,orange,cross
0.0,3.0,3.0,0.0,6.0,6.0,338.4038669992151,5.0,1.0,phase_2,go,850.0,650.0,1.0,,,,,,,,,cyan,circle
0.0,2.0,2.0,0.0,6.0,6.0,350.7735690000118,5.0,1.0,phase_2,go,850.0,650.0,1.0,,,,,,,,,orange,cross
0.0,1.0,1.0,0.0,6.0,6.0,380.0644919992919,5.0,1.0,phase_2,go,850.0,650.0,1.0,,,,,,,,,green,hexagon
0.0,1.0,1.0,0.0,5.0,5.0,304.4902159999765,5.0,1.0,phase_2,go,850.0,650.0,1.0,,,,,,,,,green,hexagon
0.0,6.0,2.0,1.0,6.0,6.0,1097.3815199995445,5.0,1.0,phase_2,go,850.0,650.0,1.0,,,,,,,,,magenta,I
0.0,2.0,2.0,0.0,5.0,5.0,444.4520509987342,5.0,1.0,phase_2,go,850.0,650.0,1.0,,,,,,,,,orange,cross
0.0,5.0,1.0,1.0,5.0,0.0,0.0,5.0,1.0,phase_2,stop,850.0,650.0,4.0,,,,,,,,,white,flipped triangle
0.0,1.0,1.0,0.0,5.0,5.0,485.3321830014465,5.0,1.0,phase_2,go,900.0,650.0,1.0,,,,,,,,,green,hexagon
0.0,6.0,2.0,1.0,5.0,5.0,1017.4328779994539,5.0,1.0,phase_2,stop,900.0,650.0,3.0,,,,,,,,,magenta,I
0.0,8.0,4.0,1.0,5.0,0.0,0.0,5.0,1.0,phase_2,stop,850.0,650.0,4.0,,,,,,,,,yellow,diamond
0.0,3.0,3.0,0.0,6.0,6.0,381.7358300002524,5.0,1.0,phase_2,go,900.0,650.0,1.0,,,,,,,,,cyan,circle
0.0,3.0,3.0,0.0,5.0,5.0,298.347552999985,5.0,1.0,phase_2,go,900.0,650.0,1.0,,,,,,,,,cyan,circle
0.0,4.0,4.0,0.0,6.0,6.0,371.7097980006656,5.0,1.0,phase_2,go,900.0,650.0,1.0,,,,,,,,,blue,square
0.0,6.0,2.0,1.0,5.0,5.0,310.5243789996166,5.0,1.0,phase_2,stop,900.0,650.0,3.0,,,,,,,,,magenta,I
0.0,1.0,1.0,0.0,6.0,6.0,345.6041579993325,5.0,1.0,phase_2,go,850.0,650.0,1.0,,,,,,,,,green,hexagon
0.0,5.0,1.0,1.0,6.0,0.0,0.0,6.0,1.0,phase_2,stop,850.0,650.0,4.0,,,,,,,,,white,flipped triangle
0.0,8.0,4.0,1.0,6.0,6.0,1074.204466998708,6.0,1.0,phase_2,go,850.0,700.0,1.0,,,,,,,,,yellow,diamond
0.0,6.0,2.0,1.0,6.0,0.0,0.0,6.0,1.0,phase_2,stop,850.0,700.0,4.0,,,,,,,,,magenta,I
0.0,5.0,1.0,1.0,6.0,0.0,0.0,6.0,1.0,phase_2,stop,850.0,750.0,4.0,,,,,,,,,white,flipped triangle
0.0,3.0,3.0,0.0,6.0,6.0,431.8078149990469,6.0,1.0,phase_2,go,850.0,800.0,1.0,,,,,,,,,cyan,circle
0.0,1.0,1.0,0.0,5.0,5.0,341.1709330011945,6.0,1.0,phase_2,go,850.0,800.0,1.0,,,,,,,,,green,hexagon
0.0,5.0,1.0,1.0,5.0,5.0,1077.127622000262,6.0,1.0,phase_2,go,850.0,800.0,1.0,,,,,,,,,white,flipped triangle
0.0,1.0,1.0,0.0,6.0,6.0,568.5375670000212,6.0,1.0,phase_2,go,850.0,800.0,1.0,,,,,,,,,green,hexagon
0.0,4.0,4.0,0.0,5.0,5.0,343.6980129990843,6.0,1.0,phase_2,go,850.0,800.0,1.0,,,,,,,,,blue,square
0.0,3.0,3.0,0.0,5.0,5.0,294.9607249993278,6.0,1.0,phase_2,go,850.0,800.0,1.0,,,,,,,,,cyan,circle
0.0,8.0,4.0,1.0,5.0,5.0,341.3059979993704,6.0,1.0,phase_2,stop,850.0,800.0,3.0,,,,,,,,,yellow,diamond
0.0,7.0,3.0,1.0,5.0,5.0,760.7053459996678,6.0,1.0,phase_2,go,800.0,800.0,1.0,,,,,,,,,gray,triangle
0.0,5.0,1.0,1.0,6.0,0.0,0.0,6.0,1.0,phase_2,stop,800.0,800.0,4.0,,,,,,,,,white,flipped triangle
0.0,5.0,1.0,1.0,6.0,6.0,1195.3774670000712,6.0,1.0,phase_2,go,800.0,850.0,1.0,,,,,,,,,white,flipped triangle
0.0,3.0,3.0,0.0,6.0,6.0,421.6284369995264,6.0,1.0,phase_2,go,800.0,850.0,1.0,,,,,,,,,cyan,circle
0.0,5.0,1.0,1.0,5.0,0.0,0.0,6.0,1.0,phase_2,stop,800.0,850.0,4.0,,,,,,,,,white,flipped triangle
0.0,6.0,2.0,1.0,5.0,5.0,350.2417210002022,6.0,1.0,phase_2,stop,850.0,850.0,3.0,,,,,,,,,magenta,I
0.0,2.0,2.0,0.0,6.0,6.0,448.3816199990542,6.0,1.0,phase_2,go,800.0,850.0,1.0,,,,,,,,,orange,cross
0.0,7.0,3.0,1.0,6.0,6.0,655.5540150002344,6.0,1.0,phase_2,stop,800.0,850.0,3.0,,,,,,,,,gray,triangle
0.0,3.0,3.0,0.0,5.0,5.0,427.3101180006051,6.0,1.0,phase_2,go,800.0,800.0,1.0,,,,,,,,,cyan,circle
0.0,7.0,3.0,1.0,6.0,0.0,0.0,6.0,1.0,phase_2,stop,800.0,800.0,4.0,,,,,,,,,gray,triangle
0.0,7.0,3.0,1.0,5.0,0.0,0.0,6.0,1.0,phase_2,stop,800.0,850.0,4.0,,,,,,,,,gray,triangle
0.0,3.0,3.0,0.0,5.0,5.0,355.6965429997945,6.0,1.0,phase_2,go,850.0,850.0,1.0,,,,,,,,,cyan,circle
0.0,4.0,4.0,0.0,6.0,6.0,444.0585099982854,6.0,1.0,phase_2,go,850.0,850.0,1.0,,,,,,,,,blue,square
0.0,4.0,4.0,0.0,6.0,6.0,489.6154540001589,6.0,1.0,phase_2,go,850.0,850.0,1.0,,,,,,,,,blue,square
0.0,2.0,2.0,0.0,5.0,5.0,437.8161189997627,6.0,1.0,phase_2,go,850.0,850.0,1.0,,,,,,,,,orange,cross
0.0,5.0,1.0,1.0,6.0,0.0,0.0,6.0,1.0,phase_2,stop,850.0,850.0,4.0,,,,,,,,,white,flipped triangle
0.0,7.0,3.0,1.0,5.0,5.0,1119.9330139988888,6.0,1.0,phase_2,go,850.0,900.0,1.0,,,,,,,,,gray,triangle
0.0,5.0,1.0,1.0,6.0,0.0,0.0,6.0,1.0,phase_2,stop,850.0,900.0,4.0,,,,,,,,,white,flipped triangle
0.0,2.0,2.0,0.0,5.0,5.0,443.2921850002458,6.0,1.0,phase_2,go,850.0,950.0,1.0,,,,,,,,,orange,cross
0.0,5.0,1.0,1.0,6.0,6.0,1207.5311520002288,6.0,1.0,phase_2,go,850.0,950.0,1.0,,,,,,,,,white,flipped triangle
0.0,2.0,2.0,0.0,6.0,6.0,520.0712160003604,6.0,1.0,phase_2,go,850.0,950.0,1.0,,,,,,,,,orange,cross
0.0,1.0,1.0,0.0,5.0,5.0,476.2350510009128,6.0,1.0,phase_2,go,850.0,950.0,1.0,,,,,,,,,green,hexagon
0.0,5.0,1.0,1.0,6.0,6.0,1193.1420040000376,6.0,1.0,phase_2,go,850.0,950.0,1.0,,,,,,,,,white,flipped triangle
0.0,7.0,3.0,1.0,6.0,6.0,1066.547045000334,6.0,1.0,phase_2,stop,850.0,950.0,3.0,,,,,,,,,gray,triangle
0.0,1.0,1.0,0.0,5.0,5.0,406.4215830003377,6.0,1.0,phase_2,go,850.0,900.0,1.0,,,,,,,,,green,hexagon
0.0,8.0,4.0,1.0,6.0,6.0,388.980439000079,7.0,1.0,phase_2,go,850.0,900.0,1.0,,,,,,,,,yellow,diamond
0.0,3.0,3.0,0.0,5.0,5.0,421.7126690000441,7.0,1.0,phase_2,go,850.0,900.0,1.0,,,,,,,,,cyan,circle
0.0,7.0,3.0,1.0,6.0,0.0,0.0,7.0,1.0,phase_2,stop,850.0,900.0,4.0,,,,,,,,,gray,triangle
0.0,4.0,4.0,0.0,5.0,5.0,413.7316159994952,7.0,1.0,phase_2,go,850.0,950.0,1.0,,,,,,,,,blue,square
0.0,1.0,1.0,0.0,6.0,6.0,410.7665560004534,7.0,1.0,phase_2,go,850.0,950.0,1.0,,,,,,,,,green,hexagon
0.0,8.0,4.0,1.0,6.0,0.0,0.0,7.0,1.0,phase_2,stop,850.0,950.0,4.0,,,,,,,,,yellow,diamond
0.0,6.0,2.0,1.0,5.0,5.0,324.4545990000915,7.0,1.0,phase_2,stop,850.0,1000.0,3.0,,,,,,,,,magenta,I
0.0,7.0,3.0,1.0,5.0,0.0,0.0,7.0,1.0,phase_2,stop,800.0,1000.0,4.0,,,,,,,,,gray,triangle
0.0,4.0,4.0,0.0,5.0,5.0,486.0975600004167,7.0,1.0,phase_2,go,850.0,1000.0,1.0,,,,,,,,,blue,square
0.0,6.0,2.0,1.0,5.0,0.0,0.0,7.0,1.0,phase_2,stop,850.0,1000.0,4.0,,,,,,,,,magenta,I
0.0,1.0,1.0,0.0,6.0,6.0,460.9984110011282,7.0,1.0,phase_2,go,900.0,1000.0,1.0,,,,,,,,,green,hexagon
0.0,1.0,1.0,0.0,5.0,5.0,463.5704590000387,7.0,1.0,phase_2,go,900.0,1000.0,1.0,,,,,,,,,green,hexagon
0.0,1.0,1.0,0.0,6.0,6.0,390.01110999925,7.0,1.0,phase_2,go,900.0,1000.0,1.0,,,,,,,,,green,hexagon
0.0,8.0,4.0,1.0,5.0,0.0,0.0,7.0,1.0,phase_2,stop,900.0,1000.0,4.0,,,,,,,,,yellow,diamond
0.0,2.0,2.0,0.0,5.0,5.0,474.3752929989568,7.0,1.0,phase_2,go,950.0,1000.0,1.0,,,,,,,,,orange,cross
0.0,5.0,1.0,1.0,5.0,0.0,0.0,7.0,1.0,phase_2,stop,950.0,1000.0,4.0,,,,,,,,,white,flipped triangle
0.0,2.0,2.0,0.0,6.0,6.0,438.2132459995773,7.0,1.0,phase_2,go,1000.0,1000.0,1.0,,,,,,,,,orange,cross
0.0,1.0,1.0,0.0,6.0,6.0,419.2097129998728,7.0,1.0,phase_2,go,1000.0,1000.0,1.0,,,,,,,,,green,hexagon
0.0,5.0,1.0,1.0,5.0,5.0,1254.0636639987497,7.0,1.0,phase_2,go,1000.0,1000.0,1.0,,,,,,,,,white,flipped triangle
0.0,4.0,4.0,0.0,6.0,6.0,446.4075289997709,7.0,1.0,phase_2,go,1000.0,1000.0,1.0,,,,,,,,,blue,square
0.0,1.0,1.0,0.0,5.0,5.0,455.4023109994887,7.0,1.0,phase_2,go,1000.0,1000.0,1.0,,,,,,,,,green,hexagon
0.0,6.0,2.0,1.0,6.0,6.0,1176.5288660008082,7.0,1.0,phase_2,stop,1000.0,1000.0,3.0,,,,,,,,,magenta,I
0.0,6.0,2.0,1.0,6.0,6.0,1058.271545000025,7.0,1.0,phase_2,stop,1000.0,950.0,3.0,,,,,,,,,magenta,I
0.0,6.0,2.0,1.0,6.0,6.0,1465.9354560008069,7.0,1.0,phase_2,go,1000.0,900.0,1.0,,,,,,,,,magenta,I
0.0,7.0,3.0,1.0,6.0,0.0,0.0,7.0,1.0,phase_2,stop,1000.0,900.0,4.0,,,,,,,,,gray,triangle
0.0,3.0,3.0,0.0,6.0,6.0,472.0598559997597,7.0,1.0,phase_2,go,1000.0,950.0,1.0,,,,,,,,,cyan,circle
0.0,5.0,1.0,1.0,5.0,0.0,0.0,7.0,1.0,phase_2,stop,1000.0,950.0,4.0,,,,,,,,,white,flipped triangle
0.0,3.0,3.0,0.0,6.0,6.0,581.1047449988109,7.0,1.0,phase_2,go,1050.0,950.0,1.0,,,,,,,,,cyan,circle
0.0,7.0,3.0,1.0,6.0,6.0,1361.7209759995603,7.0,1.0,phase_2,go,1050.0,950.0,1.0,,,,,,,,,gray,triangle
0.0,7.0,3.0,1.0,6.0,0.0,0.0,7.0,1.0,phase_2,stop,1050.0,950.0,4.0,,,,,,,,,gray,triangle
0.0,1.0,1.0,0.0,6.0,6.0,413.4137860000919,7.0,1.0,phase_2,go,1050.0,1000.0,1.0,,,,,,,,,green,hexagon
0.0,2.0,2.0,0.0,5.0,5.0,325.4524349995336,7.0,1.0,phase_2,go,1050.0,1000.0,1.0,,,,,,,,,orange,cross
0.0,4.0,4.0,0.0,6.0,6.0,276.7851169992354,7.0,1.0,phase_2,go,1050.0,1000.0,1.0,,,,,,,,,blue,square
0.0,3.0,3.0,0.0,6.0,6.0,336.2430929992115,7.0,1.0,phase_2,go,1050.0,1000.0,1.0,,,,,,,,,cyan,circle
0.0,5.0,1.0,1.0,6.0,6.0,281.0993749990302,7.0,1.0,phase_2,stop,1050.0,1000.0,3.0,,,,,,,,,white,flipped triangle
0.0,6.0,2.0,1.0,5.0,0.0,0.0,7.0,1.0,phase_2,stop,1050.0,950.0,4.0,,,,,,,,,magenta,I
0.0,3.0,3.0,0.0,5.0,5.0,441.4229240010172,8.0,1.0,phase_2,go,1100.0,950.0,1.0,,,,,,,,,cyan,circle
0.0,8.0,4.0,1.0,6.0,0.0,0.0,8.0,1.0,phase_2,stop,1100.0,950.0,4.0,,,,,,,,,yellow,diamond
0.0,6.0,2.0,1.0,6.0,0.0,0.0,8.0,1.0,phase_2,stop,1100.0,1000.0,4.0,,,,,,,,,magenta,I
0.0,8.0,4.0,1.0,5.0,5.0,348.578073999306,8.0,1.0,phase_2,go,1100.0,1050.0,1.0,,,,,,,,,yellow,diamond
0.0,7.0,3.0,1.0,5.0,0.0,0.0,8.0,1.0,phase_2,stop,1100.0,1050.0,4.0,,,,,,,,,gray,triangle
0.0,2.0,2.0,0.0,6.0,6.0,447.5621700003103,8.0,1.0,phase_2,go,1150.0,1050.0,1.0,,,,,,,,,orange,cross
0.0,3.0,3.0,0.0,5.0,5.0,295.7473220012616,8.0,1.0,phase_2,go,1150.0,1050.0,1.0,,,,,,,,,cyan,circle
0.0,2.0,2.0,0.0,5.0,5.0,319.5558229999733,8.0,1.0,phase_2,go,1150.0,1050.0,1.0,,,,,,,,,orange,cross
0.0,4.0,4.0,0.0,6.0,6.0,431.6329150005913,8.0,1.0,phase_2,go,1150.0,1050.0,1.0,,,,,,,,,blue,square
0.0,2.0,2.0,0.0,5.0,5.0,501.15013899994665,8.0,1.0,phase_2,go,1150.0,1050.0,1.0,,,,,,,,,orange,cross
0.0,2.0,2.0,0.0,6.0,6.0,308.1135649990756,8.0,1.0,phase_2,go,1150.0,1050.0,1.0,,,,,,,,,orange,cross
0.0,6.0,2.0,1.0,6.0,0.0,0.0,8.0,1.0,phase_2,stop,1150.0,1050.0,4.0,,,,,,,,,magenta,I
0.0,8.0,4.0,1.0,6.0,0.0,0.0,8.0,1.0,phase_2,stop,1150.0,1100.0,4.0,,,,,,,,,yellow,diamond
0.0,5.0,1.0,1.0,5.0,5.0,1317.8130240012251,8.0,1.0,phase_2,go,1150.0,1150.0,1.0,,,,,,,,,white,flipped triangle
0.0,8.0,4.0,1.0,5.0,5.0,1374.83733100089,8.0,1.0,phase_2,go,1150.0,1150.0,1.0,,,,,,,,,yellow,diamond
0.0,5.0,1.0,1.0,6.0,0.0,0.0,8.0,1.0,phase_2,stop,1150.0,1150.0,4.0,,,,,,,,,white,flipped triangle
0.0,3.0,3.0,0.0,6.0,6.0,481.5207760002522,8.0,1.0,phase_2,go,1150.0,1200.0,1.0,,,,,,,,,cyan,circle
0.0,6.0,2.0,1.0,6.0,0.0,0.0,8.0,1.0,phase_2,stop,1150.0,1200.0,4.0,,,,,,,,,magenta,I
0.0,6.0,2.0,1.0,6.0,0.0,0.0,8.0,1.0,phase_2,stop,1150.0,1250.0,4.0,,,,,,,,,magenta,I
0.0,3.0,3.0,0.0,6.0,6.0,429.5540430011897,8.0,1.0,phase_2,go,1150.0,1300.0,1.0,,,,,,,,,cyan,circle
0.0,5.0,1.0,1.0,6.0,6.0,1295.414098998663,8.0,1.0,phase_2,stop,1150.0,1300.0,3.0,,,,,,,,,white,flipped triangle
0.0,8.0,4.0,1.0,6.0,6.0,1339.0820830009034,8.0,1.0,phase_2,go,1150.0,1250.0,1.0,,,,,,,,,yellow,diamond
0.0,3.0,3.0,0.0,5.0,5.0,455.79058399926,8.0,1.0,phase_2,go,1150.0,1250.0,1.0,,,,,,,,,cyan,circle
0.0,3.0,3.0,0.0,5.0,5.0,482.3233000006439,8.0,1.0,phase_2,go,1150.0,1250.0,1.0,,,,,,,,,cyan,circle
0.0,8.0,4.0,1.0,5.0,0.0,0.0,8.0,1.0,phase_2,stop,1150.0,1250.0,4.0,,,,,,,,,yellow,diamond
0.0,4.0,4.0,0.0,6.0,6.0,479.3179230000532,8.0,1.0,phase_2,go,1200.0,1250.0,1.0,,,,,,,,,blue,square
0.0,4.0,4.0,0.0,5.0,5.0,424.4281909996061,8.0,1.0,phase_2,go,1200.0,1250.0,1.0,,,,,,,,,blue,square
0.0,4.0,4.0,0.0,6.0,6.0,310.4626530002861,8.0,1.0,phase_2,go,1200.0,1250.0,1.0,,,,,,,,,blue,square
0.0,7.0,3.0,1.0,6.0,0.0,0.0,8.0,1.0,phase_2,stop,1200.0,1250.0,4.0,,,,,,,,,gray,triangle
0.0,2.0,2.0,0.0,5.0,5.0,458.0621120003343,8.0,1.0,phase_2,go,1200.0,1300.0,1.0,,,,,,,,,orange,cross
0.0,7.0,3.0,1.0,5.0,0.0,0.0,8.0,1.0,phase_2,stop,1200.0,1300.0,4.0,,,,,,,,,gray,triangle
0.0,4.0,4.0,0.0,5.0,5.0,419.7567709998111,8.0,1.0,phase_2,go,1250.0,1300.0,1.0,,,,,,,,,blue,square
0.0,8.0,4.0,1.0,5.0,0.0,0.0,8.0,1.0,phase_2,stop,1250.0,1300.0,4.0,,,,,,,,,yellow,diamond
0.0,8.0,4.0,1.0,5.0,0.0,0.0,8.0,1.0,phase_2,stop,1300.0,1300.0,4.0,,,,,,,,,yellow,diamond
0.0,2.0,2.0,0.0,5.0,5.0,457.6924430002691,8.0,1.0,phase_2,go,1350.0,1300.0,1.0,,,,,,,,,orange,cross
0.0,5.0,1.0,1.0,5.0,5.0,305.5383110004186,8.0,1.0,phase_2,stop,1350.0,1300.0,3.0,,,,,,,,,white,flipped triangle
0.0,4.0,4.0,0.0,7.0,5.0,4095.6507259998034,1.0,1.0,phase_3,,,,,170.0,5.0,102.0,204.0,136.0,68.0,170.0,34.0,blue,square
0.0,6.0,2.0,1.0,7.0,2.0,4305.553752001288,1.0,1.0,phase_3,,,,,270.0,5.0,54.0,270.0,108.0,162.0,216.0,324.0,magenta,I
0.0,7.0,3.0,1.0,7.0,2.0,2950.8879040004103,1.0,1.0,phase_3,,,,,147.0,3.0,98.0,147.0,294.0,196.0,49.0,245.0,gray,triangle
0.0,4.0,4.0,0.0,7.0,6.0,2102.9216289989563,1.0,1.0,phase_3,,,,,220.0,5.0,176.0,44.0,264.0,132.0,88.0,220.0,blue,square
0.0,6.0,2.0,1.0,7.0,3.0,2794.8885159985366,1.0,1.0,phase_3,,,,,195.0,5.0,78.0,156.0,195.0,39.0,234.0,117.0,magenta,I
0.0,1.0,1.0,0.0,7.0,4.0,3671.5264979993663,1.0,1.0,phase_3,,,,,204.0,6.0,34.0,68.0,170.0,204.0,102.0,136.0,green,hexagon
0.0,7.0,3.0,1.0,7.0,5.0,2555.5276519989998,1.0,1.0,phase_3,,,,,102.0,3.0,170.0,136.0,34.0,68.0,102.0,204.0,gray,triangle
0.0,8.0,4.0,1.0,7.0,6.0,2289.5863770008878,1.0,1.0,phase_3,,,,,136.0,4.0,102.0,170.0,68.0,34.0,204.0,136.0,yellow,diamond
0.0,3.0,3.0,0.0,7.0,2.0,3406.430170000021,1.0,1.0,phase_3,,,,,195.0,5.0,156.0,195.0,78.0,234.0,117.0,39.0,cyan,circle
0.0,2.0,2.0,0.0,7.0,1.0,4051.431349000268,1.0,1.0,phase_3,,,,,132.0,3.0,132.0,264.0,176.0,220.0,44.0,88.0,orange,cross
0.0,8.0,4.0,1.0,7.0,4.0,3349.8182090006594,1.0,1.0,phase_3,,,,,245.0,5.0,98.0,49.0,294.0,245.0,147.0,196.0,yellow,diamond
0.0,8.0,4.0,1.0,7.0,1.0,2931.3434249997954,1.0,1.0,phase_3,,,,,156.0,4.0,156.0,78.0,195.0,117.0,234.0,39.0,yellow,diamond
0.0,2.0,2.0,0.0,7.0,1.0,4242.289969000922,1.0,1.0,phase_3,,,,,162.0,3.0,162.0,54.0,324.0,108.0,270.0,216.0,orange,cross
0.0,3.0,3.0,0.0,7.0,5.0,3188.6108130001962,1.0,1.0,phase_3,,,,,216.0,4.0,108.0,54.0,270.0,324.0,216.0,162.0,cyan,circle
0.0,8.0,4.0,1.0,7.0,1.0,3376.9317920014146,1.0,1.0,phase_3,,,,,220.0,5.0,220.0,132.0,44.0,88.0,264.0,176.0,yellow,diamond
0.0,1.0,1.0,0.0,7.0,5.0,2724.169855999208,1.0,1.0,phase_3,,,,,98.0,2.0,147.0,196.0,245.0,294.0,98.0,49.0,green,hexagon
0.0,6.0,2.0,1.0,7.0,3.0,3031.2877529995603,1.0,1.0,phase_3,,,,,147.0,3.0,49.0,196.0,147.0,294.0,98.0,245.0,magenta,I
0.0,4.0,4.0,0.0,7.0,4.0,3187.987929999508,1.0,1.0,phase_3,,,,,270.0,5.0,216.0,324.0,162.0,270.0,54.0,108.0,blue,square
0.0,5.0,1.0,1.0,7.0,1.0,3184.7398080008134,1.0,1.0,phase_3,,,,,162.0,3.0,162.0,216.0,54.0,324.0,270.0,108.0,white,flipped triangle
0.0,4.0,4.0,0.0,7.0,4.0,3127.5465519993304,1.0,1.0,phase_3,,,,,270.0,5.0,54.0,108.0,216.0,270.0,162.0,324.0,blue,square
0.0,7.0,3.0,1.0,7.0,5.0,1445.4261579994636,2.0,1.0,phase_3,,,,,117.0,3.0,78.0,195.0,156.0,39.0,117.0,234.0,gray,triangle
0.0,7.0,3.0,1.0,7.0,5.0,1935.0897270014684,2.0,1.0,phase_3,,,,,132.0,3.0,44.0,264.0,220.0,88.0,132.0,176.0,gray,triangle
0.0,3.0,3.0,0.0,7.0,1.0,2376.598232000106,2.0,1.0,phase_3,,,,,170.0,5.0,170.0,204.0,102.0,136.0,34.0,68.0,cyan,circle
0.0,8.0,4.0,1.0,7.0,5.0,3364.395389999117,2.0,1.0,phase_3,,,,,216.0,4.0,108.0,270.0,162.0,324.0,216.0,54.0,yellow,diamond
0.0,2.0,2.0,0.0,7.0,5.0,3460.0015420001,2.0,1.0,phase_3,,,,,195.0,5.0,117.0,234.0,156.0,39.0,195.0,78.0,orange,cross
0.0,2.0,2.0,0.0,7.0,3.0,1228.776366999227,2.0,1.0,phase_3,,,,,108.0,2.0,162.0,54.0,108.0,324.0,270.0,216.0,orange,cross
0.0,8.0,4.0,1.0,7.0,3.0,2137.102720000257,2.0,1.0,phase_3,,,,,78.0,2.0,39.0,195.0,78.0,156.0,117.0,234.0,yellow,diamond
0.0,4.0,4.0,0.0,7.0,3.0,1808.9730920000875,2.0,1.0,phase_3,,,,,245.0,5.0,147.0,196.0,245.0,98.0,294.0,49.0,blue,square
0.0,4.0,4.0,0.0,7.0,5.0,1285.4770770009054,2.0,1.0,phase_3,,,,,78.0,2.0,117.0,39.0,195.0,156.0,78.0,234.0,blue,square
0.0,8.0,4.0,1.0,7.0,4.0,2033.371741999872,2.0,1.0,phase_3,,,,,170.0,5.0,204.0,68.0,34.0,170.0,102.0,136.0,yellow,diamond
0.0,3.0,3.0,0.0,7.0,1.0,2851.371779999681,2.0,1.0,phase_3,,,,,176.0,4.0,176.0,88.0,264.0,220.0,44.0,132.0,cyan,circle
0.0,2.0,2.0,0.0,7.0,5.0,2316.4758469993103,2.0,1.0,phase_3,,,,,204.0,6.0,68.0,102.0,136.0,170.0,204.0,34.0,orange,cross
0.0,4.0,4.0,0.0,7.0,6.0,2561.403337000229,2.0,1.0,phase_3,,,,,196.0,4.0,147.0,245.0,98.0,49.0,294.0,196.0,blue,square
0.0,6.0,2.0,1.0,7.0,3.0,2295.946067000841,2.0,1.0,phase_3,,,,,132.0,3.0,176.0,264.0,132.0,220.0,44.0,88.0,magenta,I
0.0,1.0,1.0,0.0,7.0,1.0,1964.8012239995296,2.0,1.0,phase_3,,,,,162.0,3.0,162.0,54.0,216.0,270.0,108.0,324.0,green,hexagon
0.0,7.0,3.0,1.0,7.0,6.0,1556.2472809997416,2.0,1.0,phase_3,,,,,39.0,1.0,117.0,156.0,195.0,78.0,234.0,39.0,gray,triangle
0.0,5.0,1.0,1.0,7.0,5.0,2658.2762409998395,2.0,1.0,phase_3,,,,,147.0,3.0,49.0,245.0,98.0,294.0,147.0,196.0,white,flipped triangle
0.0,5.0,1.0,1.0,7.0,5.0,2536.0445869991963,2.0,1.0,phase_3,,,,,176.0,4.0,264.0,132.0,44.0,88.0,176.0,220.0,white,flipped triangle
0.0,4.0,4.0,0.0,7.0,2.0,2815.545874000236,2.0,1.0,phase_3,,,,,195.0,5.0,39.0,195.0,78.0,234.0,117.0,156.0,blue,square
0.0,6.0,2.0,1.0,7.0,6.0,1920.6673380012944,2.0,1.0,phase_3,,,,,176.0,4.0,220.0,132.0,264.0,44.0,88.0,176.0,magenta,I
0.0,6.0,2.0,1.0,7.0,2.0,1382.4212859999534,3.0,1.0,phase_3,,,,,170.0,5.0,102.0,170.0,136.0,68.0,204.0,34.0,magenta,I
0.0,5.0,1.0,1.0,7.0,3.0,2090.050284999961,3.0,1.0,phase_3,,,,,132.0,3.0,176.0,88.0,132.0,220.0,264.0,44.0,white,flipped triangle
0.0,5.0,1.0,1.0,7.0,2.0,1155.1223490005214,3.0,1.0,phase_3,,,,,147.0,3.0,245.0,147.0,196.0,294.0,98.0,49.0,white,flipped triangle
0.0,6.0,2.0,1.0,7.0,1.0,2635.614348000672,3.0,1.0,phase_3,,,,,117.0,3.0,117.0,234.0,39.0,156.0,78.0,195.0,magenta,I
0.0,3.0,3.0,0.0,7.0,1.0,2697.282585000721,3.0,1.0,phase_3,,,,,195.0,5.0,195.0,156.0,39.0,117.0,78.0,234.0,cyan,circle
0.0,2.0,2.0,0.0,7.0,6.0,1540.1380109997262,3.0,1.0,phase_3,,,,,78.0,2.0,234.0,156.0,195.0,39.0,117.0,78.0,orange,cross
0.0,6.0,2.0,1.0,7.0,4.0,3379.2877179985226,3.0,1.0,phase_3,,,,,147.0,3.0,196.0,49.0,245.0,147.0,98.0,294.0,magenta,I
0.0,7.0,3.0,1.0,7.0,2.0,2254.898629000309,3.0,1.0,phase_3,,,,,68.0,2.0,34.0,68.0,204.0,102.0,170.0,136.0,gray,triangle
0.0,2.0,2.0,0.0,7.0,3.0,2031.7019639987848,3.0,1.0,phase_3,,,,,170.0,5.0,204.0,102.0,170.0,136.0,34.0,68.0,orange,cross
0.0,7.0,3.0,1.0,7.0,4.0,2234.055127000829,3.0,1.0,phase_3,,,,,88.0,2.0,220.0,176.0,264.0,88.0,44.0,132.0,gray,triangle
0.0,1.0,1.0,0.0,7.0,5.0,3057.575339000323,3.0,1.0,phase_3,,,,,147.0,3.0,294.0,49.0,98.0,245.0,147.0,196.0,green,hexagon
0.0,5.0,1.0,1.0,7.0,3.0,3734.4944999986174,3.0,1.0,phase_3,,,,,136.0,4.0,34.0,102.0,136.0,68.0,170.0,204.0,white,flipped triangle
0.0,7.0,3.0,1.0,7.0,4.0,1250.3515499993227,3.0,1.0,phase_3,,,,,54.0,1.0,324.0,216.0,162.0,54.0,108.0,270.0,gray,triangle
0.0,8.0,4.0,1.0,7.0,4.0,1706.0762780001824,3.0,1.0,phase_3,,,,,108.0,2.0,54.0,216.0,162.0,108.0,324.0,270.0,yellow,diamond
0.0,3.0,3.0,0.0,7.0,5.0,1382.0512410002266,3.0,1.0,phase_3,,,,,170.0,5.0,102.0,68.0,136.0,34.0,170.0,204.0,cyan,circle
0.0,5.0,1.0,1.0,7.0,3.0,2321.224405000976,3.0,2.0,phase_3,,,,,156.0,4.0,117.0,39.0,156.0,195.0,234.0,78.0,white,flipped triangle
0.0,7.0,3.0,1.0,7.0,6.0,1365.654203998929,3.0,1.0,phase_3,,,,,98.0,2.0,294.0,147.0,49.0,196.0,245.0,98.0,gray,triangle
0.0,1.0,1.0,0.0,7.0,5.0,2673.817451999639,3.0,1.0,phase_3,,,,,34.0,1.0,68.0,136.0,170.0,102.0,34.0,204.0,green,hexagon
0.0,2.0,2.0,0.0,7.0,3.0,2295.056917000693,3.0,1.0,phase_3,,,,,147.0,3.0,196.0,294.0,147.0,245.0,98.0,49.0,orange,cross
0.0,2.0,2.0,0.0,7.0,5.0,1532.4537989999951,3.0,1.0,phase_3,,,,,132.0,3.0,264.0,44.0,176.0,88.0,132.0,220.0,orange,cross
0.0,2.0,2.0,0.0,7.0,3.0,1359.27236399948,4.0,1.0,phase_3,,,,,147.0,3.0,49.0,245.0,147.0,294.0,196.0,98.0,orange,cross
0.0,5.0,1.0,1.0,7.0,5.0,1711.0330629984674,4.0,1.0,phase_3,,,,,117.0,3.0,195.0,234.0,156.0,78.0,117.0,39.0,white,flipped triangle
0.0,6.0,2.0,1.0,7.0,2.0,1826.2785980004992,4.0,1.0,phase_3,,,,,162.0,3.0,270.0,162.0,54.0,216.0,324.0,108.0,magenta,I
0.0,4.0,4.0,0.0,7.0,1.0,2036.7880650010197,4.0,1.0,phase_3,,,,,204.0,6.0,204.0,34.0,170.0,102.0,68.0,136.0,blue,square
0.0,5.0,1.0,1.0,7.0,6.0,1610.00193000109,4.0,1.0,phase_3,,,,,102.0,3.0,68.0,136.0,204.0,170.0,34.0,102.0,white,flipped triangle
0.0,1.0,1.0,0.0,7.0,3.0,1211.8989989994589,4.0,1.0,phase_3,,,,,132.0,3.0,176.0,220.0,132.0,264.0,44.0,88.0,green,hexagon
0.0,8.0,4.0,1.0,7.0,1.0,2480.150669000068,4.0,1.0,phase_3,,,,,132.0,3.0,132.0,88.0,264.0,176.0,220.0,44.0,yellow,diamond
0.0,5.0,1.0,1.0,7.0,4.0,2572.722414999589,4.0,1.0,phase_3,,,,,108.0,2.0,216.0,324.0,54.0,108.0,270.0,162.0,white,flipped triangle
0.0,1.0,1.0,0.0,7.0,5.0,3198.9046960006817,4.0,1.0,phase_3,,,,,117.0,3.0,39.0,234.0,78.0,195.0,117.0,156.0,green,hexagon
0.0,3.0,3.0,0.0,7.0,5.0,1442.138035001335,4.0,1.0,phase_3,,,,,220.0,5.0,264.0,132.0,88.0,176.0,220.0,44.0,cyan,circle
0.0,1.0,1.0,0.0,7.0,1.0,1823.655786000017,4.0,1.0,phase_3,,,,,117.0,3.0,117.0,78.0,234.0,195.0,39.0,156.0,green,hexagon
0.0,6.0,2.0,1.0,7.0,2.0,1575.0321649993566,4.0,1.0,phase_3,,,,,136.0,4.0,170.0,136.0,102.0,34.0,68.0,204.0,magenta,I
0.0,8.0,4.0,1.0,7.0,3.0,1332.9604230002587,4.0,1.0,phase_3,,,,,98.0,2.0,196.0,147.0,98.0,49.0,245.0,294.0,yellow,diamond
0.0,3.0,3.0,0.0,7.0,5.0,1729.7302670012868,4.0,1.0,phase_3,,,,,245.0,5.0,147.0,294.0,49.0,98.0,245.0,196.0,cyan,circle
0.0,4.0,4.0,0.0,7.0,2.0,1772.9393350000464,4.0,1.0,phase_3,,,,,220.0,5.0,88.0,220.0,176.0,132.0,44.0,264.0,blue,square
0.0,1.0,1.0,0.0,7.0,3.0,995.8876540003984,4.0,1.0,phase_3,,,,,132.0,3.0,264.0,220.0,132.0,176.0,44.0,88.0,green,hexagon
0.0,7.0,3.0,1.0,7.0,4.0,1394.2909399993368,4.0,1.0,phase_3,,,,,54.0,1.0,108.0,324.0,270.0,54.0,216.0,162.0,gray,triangle
0.0,3.0,3.0,0.0,7.0,1.0,2818.9761729991005,4.0,1.0,phase_3,,,,,245.0,5.0,245.0,196.0,294.0,98.0,147.0,49.0,cyan,circle
0.0,1.0,1.0,0.0,7.0,5.0,2813.797905999309,4.0,1.0,phase_3,,,,,216.0,4.0,324.0,108.0,270.0,54.0,216.0,162.0,green,hexagon
0.0,3.0,3.0,0.0,7.0,5.0,2098.679968999932,4.0,1.0,phase_3,,,,,162.0,3.0,54.0,108.0,324.0,216.0,162.0,270.0,cyan,circle
