raw_reward_magnitude,stim_reward,stepwise_reward_magnitude,paired_with_stopping,stim_location,response,reaction_time,block,num_trial_presentations,which_phase,stop_signal_trial_type,left_SSD,right_SSD,accuracy,chosen_bidding_amount,chosen_bidding_level,possible_bid_1,possible_bid_2,possible_bid_3,possible_bid_4,possible_bid_5,possible_bid_6,color_text,shape_text
52.0,5.0,1.0,1.0,1.0,1.0,428.4305810001569,1.0,1.0,phase_1,,,,,,,,,,,,,gray,diamond
178.0,3.0,3.0,0.0,1.0,1.0,452.0344079996903,1.0,1.0,phase_1,,,,,,,,,,,,,yellow,flipped triangle
196.0,3.0,3.0,0.0,2.0,2.0,361.1611229998743,1.0,1.0,phase_1,,,,,,,,,,,,,yellow,flipped triangle
0.0,5.0,0.0,1.0,1.0,1.0,412.5221799999963,1.0,1.0,phase_1,,,,,,,,,,,,,gray,diamond
192.0,3.0,3.0,0.0,2.0,2.0,342.0722989999376,1.0,1.0,phase_1,,,,,,,,,,,,,yellow,flipped triangle
60.0,5.0,1.0,1.0,3.0,3.0,353.8020650003091,1.0,1.0,phase_1,,,,,,,,,,,,,gray,diamond
424.0,8.0,4.0,1.0,2.0,2.0,292.4862640002175,1.0,1.0,phase_1,,,,,,,,,,,,,green,I
0.0,4.0,0.0,0.0,3.0,3.0,374.8752970000168,1.0,1.0,phase_1,,,,,,,,,,,,,white,cross
0.0,6.0,0.0,1.0,1.0,1.0,311.07670900019,1.0,1.0,phase_1,,,,,,,,,,,,,magenta,triangle
196.0,3.0,3.0,0.0,2.0,2.0,321.3554009998915,1.0,1.0,phase_1,,,,,,,,,,,,,yellow,flipped triangle
205.0,3.0,3.0,0.0,4.0,4.0,284.0396540000256,1.0,1.0,phase_1,,,,,,,,,,,,,yellow,flipped triangle
423.0,4.0,4.0,0.0,4.0,4.0,344.0554409999095,1.0,1.0,phase_1,,,,,,,,,,,,,white,cross
64.0,5.0,1.0,1.0,2.0,2.0,321.8119329999354,1.0,1.0,phase_1,,,,,,,,,,,,,gray,diamond
200.0,7.0,3.0,1.0,3.0,3.0,296.0190290000355,1.0,1.0,phase_1,,,,,,,,,,,,,cyan,square
0.0,5.0,0.0,1.0,4.0,4.0,319.6374999997715,1.0,1.0,phase_1,,,,,,,,,,,,,gray,diamond
121.0,2.0,2.0,0.0,3.0,3.0,380.7428489999438,1.0,1.0,phase_1,,,,,,,,,,,,,blue,hexagon
177.0,3.0,3.0,0.0,3.0,3.0,324.1628210003,1.0,1.0,phase_1,,,,,,,,,,,,,yellow,flipped triangle
190.0,7.0,3.0,1.0,2.0,2.0,355.0554479998027,1.0,1.0,phase_1,,,,,,,,,,,,,cyan,square
0.0,6.0,0.0,1.0,3.0,3.0,294.4915829998535,1.0,1.0,phase_1,,,,,,,,,,,,,magenta,triangle
100.0,2.0,2.0,0.0,4.0,4.0,293.011301000206,1.0,1.0,phase_1,,,,,,,,,,,,,blue,hexagon
77.0,6.0,2.0,1.0,3.0,3.0,381.2988219997351,1.0,1.0,phase_1,,,,,,,,,,,,,magenta,triangle
0.0,5.0,0.0,1.0,2.0,2.0,364.7445639999205,1.0,1.0,phase_1,,,,,,,,,,,,,gray,diamond
0.0,1.0,0.0,0.0,4.0,4.0,296.436058999916,1.0,1.0,phase_1,,,,,,,,,,,,,orange,circle
62.0,5.0,1.0,1.0,2.0,2.0,340.64354000020097,1.0,1.0,phase_1,,,,,,,,,,,,,gray,diamond
201.0,3.0,3.0,0.0,3.0,3.0,372.5832279997121,1.0,1.0,phase_1,,,,,,,,,,,,,yellow,flipped triangle
0.0,3.0,0.0,0.0,3.0,3.0,357.5262310000653,1.0,1.0,phase_1,,,,,,,,,,,,,yellow,flipped triangle
198.0,3.0,3.0,0.0,3.0,3.0,339.10290599988,1.0,1.0,phase_1,,,,,,,,,,,,,yellow,flipped triangle
219.0,3.0,3.0,0.0,1.0,1.0,289.6189260000028,1.0,1.0,phase_1,,,,,,,,,,,,,yellow,flipped triangle
412.0,4.0,4.0,0.0,1.0,1.0,407.6326669996888,1.0,1.0,phase_1,,,,,,,,,,,,,white,cross
80.0,2.0,2.0,0.0,1.0,1.0,369.4084300000213,1.0,1.0,phase_1,,,,,,,,,,,,,blue,hexagon
223.0,3.0,3.0,0.0,2.0,2.0,375.7268640001712,1.0,1.0,phase_1,,,,,,,,,,,,,yellow,flipped triangle
57.0,1.0,1.0,0.0,2.0,2.0,387.9433249999238,1.0,1.0,phase_1,,,,,,,,,,,,,orange,circle
177.0,7.0,3.0,1.0,1.0,1.0,400.572615999863,1.0,1.0,phase_1,,,,,,,,,,,,,cyan,square
95.0,6.0,2.0,1.0,2.0,2.0,324.1768990001219,1.0,1.0,phase_1,,,,,,,,,,,,,magenta,triangle
33.0,5.0,1.0,1.0,4.0,4.0,364.1249500001322,1.0,1.0,phase_1,,,,,,,,,,,,,gray,diamond
223.0,7.0,3.0,1.0,3.0,3.0,296.9104939998033,1.0,1.0,phase_1,,,,,,,,,,,,,cyan,square
89.0,6.0,2.0,1.0,4.0,4.0,378.1770399996276,1.0,1.0,phase_1,,,,,,,,,,,,,magenta,triangle
124.0,2.0,2.0,0.0,2.0,2.0,341.9206620001205,1.0,1.0,phase_1,,,,,,,,,,,,,blue,hexagon
420.0,8.0,4.0,1.0,2.0,2.0,341.9946369999707,1.0,1.0,phase_1,,,,,,,,,,,,,green,I
0.0,4.0,0.0,0.0,3.0,3.0,321.2514330002705,1.0,1.0,phase_1,,,,,,,,,,,,,white,cross
102.0,6.0,2.0,1.0,2.0,2.0,335.8681189997696,1.0,1.0,phase_1,,,,,,,,,,,,,magenta,triangle
188.0,3.0,3.0,0.0,1.0,1.0,281.9912179998027,1.0,1.0,phase_1,,,,,,,,,,,,,yellow,flipped triangle
197.0,3.0,3.0,0.0,1.0,1.0,420.0198720000117,1.0,1.0,phase_1,,,,,,,,,,,,,yellow,flipped triangle
219.0,7.0,3.0,1.0,4.0,4.0,280.5337509998935,1.0,1.0,phase_1,,,,,,,,,,,,,cyan,square
95.0,6.0,2.0,1.0,1.0,1.0,362.0902830002706,1.0,1.0,phase_1,,,,,,,,,,,,,magenta,triangle
0.0,3.0,0.0,0.0,1.0,1.0,319.5139549998202,1.0,1.0,phase_1,,,,,,,,,,,,,yellow,flipped triangle
411.0,8.0,4.0,1.0,2.0,2.0,289.1309249998812,1.0,1.0,phase_1,,,,,,,,,,,,,green,I
51.0,1.0,1.0,0.0,2.0,2.0,311.2928059999831,1.0,1.0,phase_1,,,,,,,,,,,,,orange,circle
75.0,1.0,1.0,0.0,1.0,1.0,299.3972590002158,1.0,1.0,phase_1,,,,,,,,,,,,,orange,circle
0.0,7.0,0.0,1.0,3.0,3.0,475.6727349999892,1.0,1.0,phase_1,,,,,,,,,,,,,cyan,square
0.0,7.0,0.0,1.0,3.0,3.0,397.2473160001755,1.0,1.0,phase_1,,,,,,,,,,,,,cyan,square
188.0,7.0,3.0,1.0,2.0,2.0,273.0742169997029,1.0,1.0,phase_1,,,,,,,,,,,,,cyan,square
90.0,6.0,2.0,1.0,4.0,4.0,367.4741530003302,1.0,1.0,phase_1,,,,,,,,,,,,,magenta,triangle
42.0,1.0,1.0,0.0,4.0,4.0,376.5295729999707,1.0,1.0,phase_1,,,,,,,,,,,,,orange,circle
77.0,6.0,2.0,1.0,2.0,2.0,284.3920509999407,1.0,1.0,phase_1,,,,,,,,,,,,,magenta,triangle
0.0,8.0,0.0,1.0,2.0,2.0,319.8950949999926,1.0,1.0,phase_1,,,,,,,,,,,,,green,I
74.0,5.0,1.0,1.0,2.0,2.0,343.6479199999667,1.0,1.0,phase_1,,,,,,,,,,,,,gray,diamond
395.0,4.0,4.0,0.0,2.0,2.0,304.0025210002568,1.0,1.0,phase_1,,,,,,,,,,,,,white,cross
183.0,3.0,3.0,0.0,2.0,2.0,326.0262829999192,1.0,1.0,phase_1,,,,,,,,,,,,,yellow,flipped triangle
392.0,8.0,4.0,1.0,2.0,2.0,355.3339150003012,1.0,1.0,phase_1,,,,,,,,,,,,,green,I
33.0,5.0,1.0,1.0,1.0,1.0,356.0730459998922,1.0,1.0,phase_1,,,,,,,,,,,,,gray,diamond
0.0,7.0,0.0,1.0,1.0,1.0,297.108026999922,1.0,1.0,phase_1,,,,,,,,,,,,,cyan,square
74.0,1.0,1.0,0.0,4.0,4.0,374.0104069997869,1.0,1.0,phase_1,,,,,,,,,,,,,orange,circle
0.0,3.0,0.0,0.0,3.0,3.0,333.7087790000623,1.0,1.0,phase_1,,,,,,,,,,,,,yellow,flipped triangle
0.0,8.0,0.0,1.0,3.0,3.0,369.3589559998145,1.0,1.0,phase_1,,,,,,,,,,,,,green,I
69.0,1.0,1.0,0.0,1.0,1.0,357.540027000141,1.0,1.0,phase_1,,,,,,,,,,,,,orange,circle
0.0,1.0,0.0,0.0,1.0,1.0,343.096470999626,1.0,1.0,phase_1,,,,,,,,,,,,,orange,circle
0.0,5.0,0.0,1.0,3.0,3.0,322.9459550002502,1.0,1.0,phase_1,,,,,,,,,,,,,gray,diamond
388.0,4.0,4.0,0.0,2.0,2.0,308.8299649998589,1.0,1.0,phase_1,,,,,,,,,,,,,white,cross
81.0,6.0,2.0,1.0,3.0,3.0,302.1579440001005,1.0,1.0,phase_1,,,,,,,,,,,,,magenta,triangle
64.0,1.0,1.0,0.0,2.0,2.0,450.1606110002285,1.0,1.0,phase_1,,,,,,,,,,,,,orange,circle
42.0,1.0,1.0,0.0,1.0,1.0,503.74988000021403,1.0,1.0,phase_1,,,,,,,,,,,,,orange,circle
29.0,1.0,1.0,0.0,2.0,2.0,362.2156139999788,1.0,1.0,phase_1,,,,,,,,,,,,,orange,circle
92.0,2.0,2.0,0.0,2.0,2.0,350.5211539995798,1.0,1.0,phase_1,,,,,,,,,,,,,blue,hexagon
0.0,6.0,0.0,1.0,1.0,1.0,419.8326000000634,1.0,1.0,phase_1,,,,,,,,,,,,,magenta,triangle
0.0,8.0,0.0,1.0,1.0,1.0,333.1682289999662,1.0,1.0,phase_1,,,,,,,,,,,,,green,I
102.0,6.0,2.0,1.0,1.0,1.0,364.6265290003612,1.0,1.0,phase_1,,,,,,,,,,,,,magenta,triangle
423.0,8.0,4.0,1.0,1.0,1.0,311.0708839999461,1.0,1.0,phase_1,,,,,,,,,,,,,green,I
119.0,6.0,2.0,1.0,4.0,4.0,378.4692199997153,1.0,1.0,phase_1,,,,,,,,,,,,,magenta,triangle
223.0,7.0,3.0,1.0,2.0,2.0,323.128658999849,1.0,1.0,phase_1,,,,,,,,,,,,,cyan,square
0.0,2.0,0.0,0.0,3.0,3.0,278.6692179997772,1.0,1.0,phase_1,,,,,,,,,,,,,blue,hexagon
223.0,3.0,3.0,0.0,3.0,3.0,334.8048590000871,1.0,1.0,phase_1,,,,,,,,,,,,,yellow,flipped triangle
200.0,3.0,3.0,0.0,4.0,4.0,409.7469839998666,1.0,1.0,phase_1,,,,,,,,,,,,,yellow,flipped triangle
199.0,3.0,3.0,0.0,4.0,4.0,334.607668999979,1.0,1.0,phase_1,,,,,,,,,,,,,yellow,flipped triangle
87.0,6.0,2.0,1.0,2.0,2.0,366.5888909999921,1.0,1.0,phase_1,,,,,,,,,,,,,magenta,triangle
416.0,4.0,4.0,0.0,3.0,3.0,309.7721340000134,1.0,1.0,phase_1,,,,,,,,,,,,,white,cross
42.0,5.0,1.0,1.0,1.0,1.0,289.1149339998264,1.0,1.0,phase_1,,,,,,,,,,,,,gray,diamond
0.0,7.0,0.0,1.0,3.0,3.0,342.173420999643,1.0,1.0,phase_1,,,,,,,,,,,,,cyan,square
0.0,1.0,0.0,0.0,1.0,1.0,435.4722240000228,1.0,1.0,phase_1,,,,,,,,,,,,,orange,circle
26.0,1.0,1.0,0.0,4.0,4.0,412.7639600001203,1.0,1.0,phase_1,,,,,,,,,,,,,orange,circle
0.0,3.0,0.0,0.0,3.0,3.0,297.1369159999995,1.0,1.0,phase_1,,,,,,,,,,,,,yellow,flipped triangle
406.0,4.0,4.0,0.0,1.0,1.0,278.82474599982737,1.0,1.0,phase_1,,,,,,,,,,,,,white,cross
107.0,6.0,2.0,1.0,1.0,1.0,283.2102019997364,1.0,1.0,phase_1,,,,,,,,,,,,,magenta,triangle
96.0,2.0,2.0,0.0,4.0,4.0,306.8596470002376,1.0,1.0,phase_1,,,,,,,,,,,,,blue,hexagon
0.0,3.0,0.0,0.0,2.0,2.0,311.0908410003503,1.0,1.0,phase_1,,,,,,,,,,,,,yellow,flipped triangle
0.0,3.0,0.0,0.0,3.0,3.0,325.9719100001348,1.0,1.0,phase_1,,,,,,,,,,,,,yellow,flipped triangle
75.0,5.0,1.0,1.0,3.0,3.0,290.8368819998941,1.0,1.0,phase_1,,,,,,,,,,,,,gray,diamond
416.0,8.0,4.0,1.0,1.0,1.0,378.8314240000545,1.0,1.0,phase_1,,,,,,,,,,,,,green,I
0.0,5.0,0.0,1.0,1.0,1.0,313.5198330001003,1.0,1.0,phase_1,,,,,,,,,,,,,gray,diamond
42.0,5.0,1.0,1.0,4.0,4.0,305.0960129999112,1.0,1.0,phase_1,,,,,,,,,,,,,gray,diamond
99.0,6.0,2.0,1.0,4.0,4.0,379.6425680002357,2.0,1.0,phase_1,,,,,,,,,,,,,magenta,triangle
0.0,2.0,0.0,0.0,2.0,2.0,369.7574390002955,2.0,1.0,phase_1,,,,,,,,,,,,,blue,hexagon
378.0,8.0,4.0,1.0,4.0,4.0,345.8374840001852,2.0,1.0,phase_1,,,,,,,,,,,,,green,I
0.0,2.0,0.0,0.0,2.0,2.0,312.1295659998395,2.0,1.0,phase_1,,,,,,,,,,,,,blue,hexagon
87.0,2.0,2.0,0.0,1.0,1.0,301.8232770000395,2.0,1.0,phase_1,,,,,,,,,,,,,blue,hexagon
64.0,5.0,1.0,1.0,3.0,3.0,412.5002959999619,2.0,2.0,phase_1,,,,,,,,,,,,,gray,diamond
89.0,2.0,2.0,0.0,1.0,1.0,441.2614170000779,2.0,1.0,phase_1,,,,,,,,,,,,,blue,hexagon
108.0,2.0,2.0,0.0,2.0,2.0,457.2291340000447,2.0,1.0,phase_1,,,,,,,,,,,,,blue,hexagon
394.0,4.0,4.0,0.0,2.0,2.0,480.9109590000844,2.0,1.0,phase_1,,,,,,,,,,,,,white,cross
0.0,1.0,0.0,0.0,2.0,2.0,478.2969859998047,2.0,1.0,phase_1,,,,,,,,,,,,,orange,circle
58.0,5.0,1.0,1.0,2.0,2.0,346.1498530000426,2.0,1.0,phase_1,,,,,,,,,,,,,gray,diamond
184.0,7.0,3.0,1.0,4.0,4.0,350.0321769997754,2.0,1.0,phase_1,,,,,,,,,,,,,cyan,square
0.0,6.0,0.0,1.0,2.0,2.0,337.5677809999615,2.0,1.0,phase_1,,,,,,,,,,,,,magenta,triangle
0.0,1.0,0.0,0.0,2.0,2.0,361.9984299998577,2.0,1.0,phase_1,,,,,,,,,,,,,orange,circle
381.0,4.0,4.0,0.0,2.0,2.0,333.8316439999289,2.0,1.0,phase_1,,,,,,,,,,,,,white,cross
400.0,4.0,4.0,0.0,2.0,2.0,345.8066190000863,2.0,1.0,phase_1,,,,,,,,,,,,,white,cross
0.0,4.0,0.0,0.0,1.0,1.0,327.4689610002497,2.0,1.0,phase_1,,,,,,,,,,,,,white,cross
44.0,1.0,1.0,0.0,3.0,3.0,380.4863229997863,2.0,1.0,phase_1,,,,,,,,,,,,,orange,circle
0.0,4.0,0.0,0.0,2.0,2.0,300.89238199980167,2.0,1.0,phase_1,,,,,,,,,,,,,white,cross
0.0,4.0,0.0,0.0,2.0,2.0,333.1811439998091,2.0,1.0,phase_1,,,,,,,,,,,,,white,cross
0.0,2.0,0.0,0.0,4.0,4.0,302.0798110001124,2.0,1.0,phase_1,,,,,,,,,,,,,blue,hexagon
0.0,2.0,0.0,0.0,2.0,2.0,329.462870000043,2.0,1.0,phase_1,,,,,,,,,,,,,blue,hexagon
64.0,1.0,1.0,0.0,2.0,2.0,366.4958379999916,2.0,1.0,phase_1,,,,,,,,,,,,,orange,circle
95.0,2.0,2.0,0.0,1.0,1.0,311.3092730000062,2.0,1.0,phase_1,,,,,,,,,,,,,blue,hexagon
120.0,6.0,2.0,1.0,1.0,1.0,334.5814040003461,2.0,1.0,phase_1,,,,,,,,,,,,,magenta,triangle
0.0,7.0,0.0,1.0,2.0,2.0,285.2594779997162,2.0,1.0,phase_1,,,,,,,,,,,,,cyan,square
0.0,3.0,0.0,0.0,1.0,1.0,335.1154699998915,2.0,1.0,phase_1,,,,,,,,,,,,,yellow,flipped triangle
73.0,1.0,1.0,0.0,4.0,4.0,359.3605109999771,2.0,1.0,phase_1,,,,,,,,,,,,,orange,circle
198.0,7.0,3.0,1.0,1.0,1.0,305.9931999996479,2.0,1.0,phase_1,,,,,,,,,,,,,cyan,square
412.0,8.0,4.0,1.0,2.0,2.0,335.1340359999994,2.0,1.0,phase_1,,,,,,,,,,,,,green,I
58.0,1.0,1.0,0.0,2.0,2.0,354.7956709999198,2.0,1.0,phase_1,,,,,,,,,,,,,orange,circle
400.0,8.0,4.0,1.0,3.0,3.0,306.2929499997153,2.0,1.0,phase_1,,,,,,,,,,,,,green,I
394.0,4.0,4.0,0.0,4.0,4.0,414.1513220001798,2.0,1.0,phase_1,,,,,,,,,,,,,white,cross
411.0,4.0,4.0,0.0,3.0,3.0,411.6464000003361,2.0,1.0,phase_1,,,,,,,,,,,,,white,cross
178.0,7.0,3.0,1.0,3.0,3.0,391.5740299999015,2.0,1.0,phase_1,,,,,,,,,,,,,cyan,square
377.0,8.0,4.0,1.0,3.0,3.0,489.7659980001663,2.0,1.0,phase_1,,,,,,,,,,,,,green,I
70.0,1.0,1.0,0.0,3.0,3.0,358.6716830000114,2.0,1.0,phase_1,,,,,,,,,,,,,orange,circle
223.0,7.0,3.0,1.0,1.0,1.0,341.7232039996634,2.0,1.0,phase_1,,,,,,,,,,,,,cyan,square
203.0,7.0,3.0,1.0,3.0,3.0,335.6958859999395,2.0,1.0,phase_1,,,,,,,,,,,,,cyan,square
0.0,1.0,0.0,0.0,4.0,4.0,331.7060869999295,2.0,1.0,phase_1,,,,,,,,,,,,,orange,circle
0.0,8.0,0.0,1.0,2.0,2.0,315.6799979997231,2.0,1.0,phase_1,,,,,,,,,,,,,green,I
185.0,3.0,3.0,0.0,4.0,4.0,334.153525000147,2.0,1.0,phase_1,,,,,,,,,,,,,yellow,flipped triangle
71.0,5.0,1.0,1.0,4.0,4.0,391.4487760002885,2.0,1.0,phase_1,,,,,,,,,,,,,gray,diamond
62.0,1.0,1.0,0.0,1.0,1.0,278.9491929997894,2.0,1.0,phase_1,,,,,,,,,,,,,orange,circle
183.0,7.0,3.0,1.0,2.0,2.0,435.3376980002394,2.0,1.0,phase_1,,,,,,,,,,,,,cyan,square
0.0,3.0,0.0,0.0,1.0,1.0,295.556728000065,2.0,1.0,phase_1,,,,,,,,,,,,,yellow,flipped triangle
192.0,3.0,3.0,0.0,2.0,2.0,359.5509209999363,2.0,1.0,phase_1,,,,,,,,,,,,,yellow,flipped triangle
397.0,8.0,4.0,1.0,1.0,1.0,547.5311999998667,2.0,1.0,phase_1,,,,,,,,,,,,,green,I
421.0,8.0,4.0,1.0,4.0,4.0,352.1950019999167,2.0,1.0,phase_1,,,,,,,,,,,,,green,I
197.0,7.0,3.0,1.0,2.0,2.0,303.6327820000224,2.0,1.0,phase_1,,,,,,,,,,,,,cyan,square
378.0,4.0,4.0,0.0,4.0,4.0,332.9065220000302,2.0,1.0,phase_1,,,,,,,,,,,,,white,cross
0.0,6.0,0.0,1.0,3.0,3.0,331.2122620000082,2.0,1.0,phase_1,,,,,,,,,,,,,magenta,triangle
45.0,1.0,1.0,0.0,4.0,4.0,395.952465999926,2.0,1.0,phase_1,,,,,,,,,,,,,orange,circle
96.0,6.0,2.0,1.0,3.0,3.0,426.8406359997243,2.0,1.0,phase_1,,,,,,,,,,,,,magenta,triangle
107.0,2.0,2.0,0.0,3.0,3.0,328.1934169999658,2.0,1.0,phase_1,,,,,,,,,,,,,blue,hexagon
0.0,3.0,0.0,0.0,1.0,1.0,368.7164369998754,2.0,1.0,phase_1,,,,,,,,,,,,,yellow,flipped triangle
201.0,7.0,3.0,1.0,4.0,4.0,339.9737560002904,2.0,1.0,phase_1,,,,,,,,,,,,,cyan,square
394.0,4.0,4.0,0.0,1.0,1.0,330.5568299997503,2.0,1.0,phase_1,,,,,,,,,,,,,white,cross
210.0,3.0,3.0,0.0,2.0,2.0,418.0067890001737,2.0,1.0,phase_1,,,,,,,,,,,,,yellow,flipped triangle
0.0,1.0,0.0,0.0,2.0,2.0,401.6721650000363,2.0,1.0,phase_1,,,,,,,,,,,,,orange,circle
422.0,8.0,4.0,1.0,4.0,4.0,383.3306900000934,2.0,1.0,phase_1,,,,,,,,,,,,,green,I
0.0,4.0,0.0,0.0,3.0,3.0,420.3807349999806,2.0,1.0,phase_1,,,,,,,,,,,,,white,cross
416.0,4.0,4.0,0.0,4.0,4.0,439.379259999896,2.0,1.0,phase_1,,,,,,,,,,,,,white,cross
378.0,4.0,4.0,0.0,2.0,2.0,343.0238930000087,2.0,1.0,phase_1,,,,,,,,,,,,,white,cross
416.0,8.0,4.0,1.0,2.0,2.0,302.6858789999096,2.0,1.0,phase_1,,,,,,,,,,,,,green,I
0.0,5.0,0.0,1.0,4.0,4.0,375.4398380001476,2.0,1.0,phase_1,,,,,,,,,,,,,gray,diamond
0.0,2.0,0.0,0.0,2.0,2.0,308.525642999939,2.0,1.0,phase_1,,,,,,,,,,,,,blue,hexagon
98.0,2.0,2.0,0.0,1.0,1.0,387.2694440001396,2.0,1.0,phase_1,,,,,,,,,,,,,blue,hexagon
387.0,4.0,4.0,0.0,1.0,1.0,379.71005899999,2.0,1.0,phase_1,,,,,,,,,,,,,white,cross
98.0,6.0,2.0,1.0,4.0,4.0,394.274439000128,2.0,1.0,phase_1,,,,,,,,,,,,,magenta,triangle
188.0,3.0,3.0,0.0,4.0,4.0,384.5828399998936,2.0,1.0,phase_1,,,,,,,,,,,,,yellow,flipped triangle
397.0,4.0,4.0,0.0,2.0,2.0,324.7293839999656,2.0,1.0,phase_1,,,,,,,,,,,,,white,cross
422.0,4.0,4.0,0.0,4.0,4.0,312.8198959998371,2.0,1.0,phase_1,,,,,,,,,,,,,white,cross
213.0,3.0,3.0,0.0,1.0,1.0,280.2795100001276,2.0,1.0,phase_1,,,,,,,,,,,,,yellow,flipped triangle
62.0,1.0,1.0,0.0,2.0,2.0,272.1076679999896,2.0,1.0,phase_1,,,,,,,,,,,,,orange,circle
30.0,1.0,1.0,0.0,3.0,3.0,400.3538539996043,2.0,1.0,phase_1,,,,,,,,,,,,,orange,circle
177.0,3.0,3.0,0.0,1.0,1.0,395.1778619998549,2.0,1.0,phase_1,,,,,,,,,,,,,yellow,flipped triangle
56.0,5.0,1.0,1.0,1.0,1.0,369.0950370000792,2.0,1.0,phase_1,,,,,,,,,,,,,gray,diamond
0.0,4.0,0.0,0.0,1.0,1.0,317.7626069996222,2.0,1.0,phase_1,,,,,,,,,,,,,white,cross
402.0,4.0,4.0,0.0,3.0,3.0,324.7214829998484,2.0,1.0,phase_1,,,,,,,,,,,,,white,cross
124.0,6.0,2.0,1.0,4.0,4.0,301.9782769997619,2.0,1.0,phase_1,,,,,,,,,,,,,magenta,triangle
64.0,5.0,1.0,1.0,1.0,1.0,338.4385330000441,2.0,1.0,phase_1,,,,,,,,,,,,,gray,diamond
99.0,2.0,2.0,0.0,2.0,2.0,314.9962819998109,2.0,1.0,phase_1,,,,,,,,,,,,,blue,hexagon
206.0,7.0,3.0,1.0,1.0,1.0,298.6358019998079,2.0,1.0,phase_1,,,,,,,,,,,,,cyan,square
0.0,5.0,0.0,1.0,1.0,1.0,317.1552549997614,2.0,1.0,phase_1,,,,,,,,,,,,,gray,diamond
384.0,4.0,4.0,0.0,3.0,3.0,338.4345069998744,2.0,1.0,phase_1,,,,,,,,,,,,,white,cross
402.0,8.0,4.0,1.0,2.0,2.0,339.7019459998773,2.0,1.0,phase_1,,,,,,,,,,,,,green,I
37.0,1.0,1.0,0.0,1.0,1.0,374.8517990002256,2.0,1.0,phase_1,,,,,,,,,,,,,orange,circle
118.0,6.0,2.0,1.0,3.0,3.0,362.6758089999384,2.0,1.0,phase_1,,,,,,,,,,,,,magenta,triangle
406.0,8.0,4.0,1.0,2.0,2.0,338.4021769998071,2.0,1.0,phase_1,,,,,,,,,,,,,green,I
82.0,2.0,2.0,0.0,1.0,1.0,392.1519589998752,2.0,1.0,phase_1,,,,,,,,,,,,,blue,hexagon
386.0,4.0,4.0,0.0,1.0,1.0,350.8900009996978,2.0,1.0,phase_1,,,,,,,,,,,,,white,cross
35.0,5.0,1.0,1.0,4.0,4.0,441.1409090002962,2.0,1.0,phase_1,,,,,,,,,,,,,gray,diamond
71.0,1.0,1.0,0.0,1.0,1.0,316.6490639996482,2.0,1.0,phase_1,,,,,,,,,,,,,orange,circle
33.0,1.0,1.0,0.0,4.0,4.0,348.1327039999087,2.0,1.0,phase_1,,,,,,,,,,,,,orange,circle
0.0,8.0,0.0,1.0,3.0,3.0,362.7777920000881,2.0,1.0,phase_1,,,,,,,,,,,,,green,I
0.0,4.0,0.0,0.0,3.0,3.0,336.0353040002337,2.0,1.0,phase_1,,,,,,,,,,,,,white,cross
48.0,1.0,1.0,0.0,1.0,1.0,351.8415500002447,2.0,1.0,phase_1,,,,,,,,,,,,,orange,circle
26.0,5.0,1.0,1.0,3.0,3.0,376.3466329996845,2.0,1.0,phase_1,,,,,,,,,,,,,gray,diamond
210.0,7.0,3.0,1.0,2.0,2.0,348.6313639996297,2.0,1.0,phase_1,,,,,,,,,,,,,cyan,square
115.0,2.0,2.0,0.0,2.0,2.0,341.8678640000507,3.0,1.0,phase_1,,,,,,,,,,,,,blue,hexagon
58.0,5.0,1.0,1.0,4.0,4.0,410.961873999895,3.0,1.0,phase_1,,,,,,,,,,,,,gray,diamond
34.0,5.0,1.0,1.0,4.0,4.0,437.5970750002125,3.0,1.0,phase_1,,,,,,,,,,,,,gray,diamond
102.0,2.0,2.0,0.0,1.0,1.0,509.59969699988505,3.0,1.0,phase_1,,,,,,,,,,,,,blue,hexagon
424.0,4.0,4.0,0.0,1.0,1.0,373.2294839996939,3.0,1.0,phase_1,,,,,,,,,,,,,white,cross
179.0,3.0,3.0,0.0,1.0,1.0,353.5026189997552,3.0,1.0,phase_1,,,,,,,,,,,,,yellow,flipped triangle
92.0,6.0,2.0,1.0,2.0,2.0,382.3369589999856,3.0,1.0,phase_1,,,,,,,,,,,,,magenta,triangle
108.0,6.0,2.0,1.0,2.0,2.0,315.085659000033,3.0,1.0,phase_1,,,,,,,,,,,,,magenta,triangle
82.0,6.0,2.0,1.0,1.0,1.0,299.4732420002037,3.0,1.0,phase_1,,,,,,,,,,,,,magenta,triangle
113.0,6.0,2.0,1.0,3.0,3.0,298.8540670003203,3.0,1.0,phase_1,,,,,,,,,,,,,magenta,triangle
210.0,7.0,3.0,1.0,3.0,3.0,313.2526129998041,3.0,1.0,phase_1,,,,,,,,,,,,,cyan,square
222.0,7.0,3.0,1.0,4.0,4.0,272.3234669997509,3.0,1.0,phase_1,,,,,,,,,,,,,cyan,square
95.0,2.0,2.0,0.0,3.0,3.0,303.863389000071,3.0,1.0,phase_1,,,,,,,,,,,,,blue,hexagon
59.0,1.0,1.0,0.0,3.0,3.0,334.35168400001197,3.0,1.0,phase_1,,,,,,,,,,,,,orange,circle
196.0,7.0,3.0,1.0,2.0,2.0,262.7761349999673,3.0,1.0,phase_1,,,,,,,,,,,,,cyan,square
35.0,5.0,1.0,1.0,4.0,4.0,377.7280690001134,3.0,1.0,phase_1,,,,,,,,,,,,,gray,diamond
45.0,5.0,1.0,1.0,4.0,4.0,276.7488750000666,3.0,1.0,phase_1,,,,,,,,,,,,,gray,diamond
59.0,5.0,1.0,1.0,3.0,3.0,341.2205340000582,3.0,1.0,phase_1,,,,,,,,,,,,,gray,diamond
406.0,8.0,4.0,1.0,3.0,3.0,300.4257910001797,3.0,1.0,phase_1,,,,,,,,,,,,,green,I
77.0,2.0,2.0,0.0,2.0,2.0,278.7408760000289,3.0,1.0,phase_1,,,,,,,,,,,,,blue,hexagon
206.0,3.0,3.0,0.0,1.0,1.0,333.0737060000501,3.0,1.0,phase_1,,,,,,,,,,,,,yellow,flipped triangle
378.0,8.0,4.0,1.0,3.0,3.0,305.7103850001113,3.0,1.0,phase_1,,,,,,,,,,,,,green,I
26.0,5.0,1.0,1.0,2.0,2.0,307.1333600000798,3.0,1.0,phase_1,,,,,,,,,,,,,gray,diamond
0.0,1.0,0.0,0.0,3.0,3.0,298.0266750000737,3.0,1.0,phase_1,,,,,,,,,,,,,orange,circle
409.0,4.0,4.0,0.0,2.0,2.0,398.3230920002825,3.0,2.0,phase_1,,,,,,,,,,,,,white,cross
400.0,8.0,4.0,1.0,1.0,1.0,333.5203639999236,3.0,1.0,phase_1,,,,,,,,,,,,,green,I
86.0,2.0,2.0,0.0,3.0,3.0,745.223451000129,3.0,1.0,phase_1,,,,,,,,,,,,,blue,hexagon
213.0,7.0,3.0,1.0,1.0,1.0,660.2124770001865,3.0,1.0,phase_1,,,,,,,,,,,,,cyan,square
77.0,6.0,2.0,1.0,4.0,4.0,488.7998600001992,3.0,1.0,phase_1,,,,,,,,,,,,,magenta,triangle
213.0,3.0,3.0,0.0,3.0,3.0,539.5680369997535,3.0,1.0,phase_1,,,,,,,,,,,,,yellow,flipped triangle
121.0,6.0,2.0,1.0,1.0,1.0,405.2555809998921,3.0,1.0,phase_1,,,,,,,,,,,,,magenta,triangle
0.0,8.0,0.0,1.0,3.0,3.0,405.0892209997982,3.0,1.0,phase_1,,,,,,,,,,,,,green,I
37.0,5.0,1.0,1.0,2.0,2.0,375.4671349997807,3.0,1.0,phase_1,,,,,,,,,,,,,gray,diamond
395.0,4.0,4.0,0.0,3.0,3.0,331.4139809999687,3.0,1.0,phase_1,,,,,,,,,,,,,white,cross
378.0,8.0,4.0,1.0,1.0,1.0,360.5157639999561,3.0,1.0,phase_1,,,,,,,,,,,,,green,I
395.0,8.0,4.0,1.0,4.0,4.0,330.0089670001398,3.0,1.0,phase_1,,,,,,,,,,,,,green,I
118.0,2.0,2.0,0.0,4.0,4.0,367.2037989999808,3.0,1.0,phase_1,,,,,,,,,,,,,blue,hexagon
185.0,7.0,3.0,1.0,1.0,1.0,327.8511630001048,3.0,1.0,phase_1,,,,,,,,,,,,,cyan,square
103.0,2.0,2.0,0.0,3.0,3.0,311.4292750001368,3.0,1.0,phase_1,,,,,,,,,,,,,blue,hexagon
33.0,1.0,1.0,0.0,4.0,4.0,444.4481890000133,3.0,2.0,phase_1,,,,,,,,,,,,,orange,circle
60.0,1.0,1.0,0.0,2.0,2.0,453.4712679997028,3.0,1.0,phase_1,,,,,,,,,,,,,orange,circle
199.0,7.0,3.0,1.0,2.0,2.0,376.7180400000143,3.0,1.0,phase_1,,,,,,,,,,,,,cyan,square
222.0,3.0,3.0,0.0,3.0,3.0,336.8747139998049,3.0,1.0,phase_1,,,,,,,,,,,,,yellow,flipped triangle
395.0,8.0,4.0,1.0,4.0,4.0,358.2810569996582,3.0,1.0,phase_1,,,,,,,,,,,,,green,I
414.0,4.0,4.0,0.0,2.0,2.0,338.5869570001887,3.0,1.0,phase_1,,,,,,,,,,,,,white,cross
192.0,7.0,3.0,1.0,4.0,4.0,356.1797420002222,3.0,1.0,phase_1,,,,,,,,,,,,,cyan,square
117.0,2.0,2.0,0.0,1.0,1.0,373.7247670001125,3.0,1.0,phase_1,,,,,,,,,,,,,blue,hexagon
394.0,8.0,4.0,1.0,4.0,4.0,328.9367820002553,3.0,1.0,phase_1,,,,,,,,,,,,,green,I
88.0,2.0,2.0,0.0,4.0,4.0,365.6723630001579,3.0,1.0,phase_1,,,,,,,,,,,,,blue,hexagon
64.0,1.0,1.0,0.0,1.0,1.0,346.8574809999154,3.0,1.0,phase_1,,,,,,,,,,,,,orange,circle
119.0,2.0,2.0,0.0,3.0,3.0,387.6948199999788,3.0,1.0,phase_1,,,,,,,,,,,,,blue,hexagon
414.0,8.0,4.0,1.0,3.0,3.0,485.311165999974,3.0,1.0,phase_1,,,,,,,,,,,,,green,I
183.0,3.0,3.0,0.0,4.0,4.0,322.567292000258,3.0,1.0,phase_1,,,,,,,,,,,,,yellow,flipped triangle
179.0,7.0,3.0,1.0,1.0,1.0,443.5582889996112,3.0,1.0,phase_1,,,,,,,,,,,,,cyan,square
89.0,6.0,2.0,1.0,3.0,3.0,317.1194920000744,3.0,1.0,phase_1,,,,,,,,,,,,,magenta,triangle
105.0,2.0,2.0,0.0,4.0,4.0,365.3005520000079,3.0,1.0,phase_1,,,,,,,,,,,,,blue,hexagon
0.0,8.0,0.0,1.0,4.0,4.0,415.8935589998691,3.0,1.0,phase_1,,,,,,,,,,,,,green,I
396.0,8.0,4.0,1.0,3.0,3.0,366.8919829997321,3.0,1.0,phase_1,,,,,,,,,,,,,green,I
0.0,2.0,0.0,0.0,4.0,4.0,319.9931069998456,3.0,1.0,phase_1,,,,,,,,,,,,,blue,hexagon
409.0,8.0,4.0,1.0,1.0,1.0,335.4397060002156,3.0,1.0,phase_1,,,,,,,,,,,,,green,I
377.0,4.0,4.0,0.0,4.0,4.0,343.0583549998118,3.0,1.0,phase_1,,,,,,,,,,,,,white,cross
204.0,3.0,3.0,0.0,1.0,1.0,576.9202360002055,3.0,1.0,phase_1,,,,,,,,,,,,,yellow,flipped triangle
0.0,2.0,0.0,0.0,2.0,2.0,382.568633000119,3.0,1.0,phase_1,,,,,,,,,,,,,blue,hexagon
34.0,1.0,1.0,0.0,3.0,3.0,318.2407190001868,3.0,1.0,phase_1,,,,,,,,,,,,,orange,circle
70.0,5.0,1.0,1.0,1.0,1.0,375.4344070002844,3.0,1.0,phase_1,,,,,,,,,,,,,gray,diamond
0.0,5.0,0.0,1.0,3.0,3.0,318.3501720000095,3.0,1.0,phase_1,,,,,,,,,,,,,gray,diamond
26.0,1.0,1.0,0.0,1.0,1.0,327.8114469999309,3.0,1.0,phase_1,,,,,,,,,,,,,orange,circle
29.0,5.0,1.0,1.0,3.0,3.0,354.417979000118,3.0,1.0,phase_1,,,,,,,,,,,,,gray,diamond
0.0,7.0,0.0,1.0,3.0,3.0,386.6266630002428,3.0,1.0,phase_1,,,,,,,,,,,,,cyan,square
421.0,8.0,4.0,1.0,3.0,3.0,327.6329930004067,3.0,1.0,phase_1,,,,,,,,,,,,,green,I
219.0,3.0,3.0,0.0,2.0,2.0,331.5891199999896,3.0,1.0,phase_1,,,,,,,,,,,,,yellow,flipped triangle
0.0,1.0,0.0,0.0,3.0,3.0,333.3113109997612,3.0,1.0,phase_1,,,,,,,,,,,,,orange,circle
116.0,6.0,2.0,1.0,1.0,1.0,444.9982210003327,3.0,1.0,phase_1,,,,,,,,,,,,,magenta,triangle
121.0,2.0,2.0,0.0,4.0,4.0,374.4974989999718,3.0,1.0,phase_1,,,,,,,,,,,,,blue,hexagon
210.0,3.0,3.0,0.0,4.0,4.0,376.2954379999428,3.0,1.0,phase_1,,,,,,,,,,,,,yellow,flipped triangle
121.0,6.0,2.0,1.0,3.0,3.0,304.8715230002017,3.0,1.0,phase_1,,,,,,,,,,,,,magenta,triangle
189.0,3.0,3.0,0.0,3.0,3.0,332.8603889999613,3.0,1.0,phase_1,,,,,,,,,,,,,yellow,flipped triangle
381.0,8.0,4.0,1.0,4.0,4.0,345.6097589996716,3.0,1.0,phase_1,,,,,,,,,,,,,green,I
406.0,4.0,4.0,0.0,3.0,3.0,333.9838649999365,3.0,1.0,phase_1,,,,,,,,,,,,,white,cross
58.0,1.0,1.0,0.0,3.0,3.0,436.3915339999948,3.0,1.0,phase_1,,,,,,,,,,,,,orange,circle
69.0,5.0,1.0,1.0,2.0,2.0,362.5126020001517,3.0,1.0,phase_1,,,,,,,,,,,,,gray,diamond
385.0,4.0,4.0,0.0,3.0,3.0,349.5593550001103,3.0,1.0,phase_1,,,,,,,,,,,,,white,cross
394.0,8.0,4.0,1.0,3.0,3.0,362.7523889999793,3.0,1.0,phase_1,,,,,,,,,,,,,green,I
219.0,7.0,3.0,1.0,2.0,2.0,353.9800050002668,3.0,1.0,phase_1,,,,,,,,,,,,,cyan,square
90.0,2.0,2.0,0.0,4.0,4.0,309.2060239996499,3.0,1.0,phase_1,,,,,,,,,,,,,blue,hexagon
0.0,4.0,0.0,0.0,2.0,2.0,343.4460849998686,3.0,1.0,phase_1,,,,,,,,,,,,,white,cross
107.0,6.0,2.0,1.0,1.0,1.0,376.1390149998078,3.0,1.0,phase_1,,,,,,,,,,,,,magenta,triangle
420.0,4.0,4.0,0.0,4.0,4.0,367.4416949997976,3.0,1.0,phase_1,,,,,,,,,,,,,white,cross
388.0,8.0,4.0,1.0,2.0,2.0,417.2194840002703,3.0,1.0,phase_1,,,,,,,,,,,,,green,I
120.0,2.0,2.0,0.0,4.0,4.0,383.541699000034,3.0,1.0,phase_1,,,,,,,,,,,,,blue,hexagon
395.0,4.0,4.0,0.0,4.0,4.0,409.4724110000243,3.0,2.0,phase_1,,,,,,,,,,,,,white,cross
0.0,5.0,0.0,1.0,1.0,1.0,394.6371409997482,3.0,1.0,phase_1,,,,,,,,,,,,,gray,diamond
99.0,6.0,2.0,1.0,3.0,3.0,398.2777569999598,3.0,1.0,phase_1,,,,,,,,,,,,,magenta,triangle
105.0,6.0,2.0,1.0,4.0,4.0,354.66545700001,3.0,1.0,phase_1,,,,,,,,,,,,,magenta,triangle
45.0,1.0,1.0,0.0,2.0,2.0,531.8863249999595,3.0,1.0,phase_1,,,,,,,,,,,,,orange,circle
381.0,8.0,4.0,1.0,4.0,4.0,425.7254650001414,3.0,1.0,phase_1,,,,,,,,,,,,,green,I
402.0,8.0,4.0,1.0,2.0,2.0,404.0330970001378,3.0,1.0,phase_1,,,,,,,,,,,,,green,I
68.0,5.0,1.0,1.0,4.0,4.0,392.6029990002462,3.0,1.0,phase_1,,,,,,,,,,,,,gray,diamond
113.0,2.0,2.0,0.0,2.0,2.0,322.4274990002413,3.0,1.0,phase_1,,,,,,,,,,,,,blue,hexagon
62.0,5.0,1.0,1.0,1.0,1.0,505.25884399985443,3.0,1.0,phase_1,,,,,,,,,,,,,gray,diamond
46.0,5.0,1.0,1.0,3.0,3.0,356.9072069999492,4.0,1.0,phase_1,,,,,,,,,,,,,gray,diamond
189.0,7.0,3.0,1.0,4.0,4.0,387.7770340000097,4.0,1.0,phase_1,,,,,,,,,,,,,cyan,square
0.0,7.0,0.0,1.0,1.0,1.0,365.2231080000092,4.0,1.0,phase_1,,,,,,,,,,,,,cyan,square
35.0,1.0,1.0,0.0,4.0,4.0,341.0523180000382,4.0,1.0,phase_1,,,,,,,,,,,,,orange,circle
60.0,5.0,1.0,1.0,2.0,2.0,284.4246800000292,4.0,1.0,phase_1,,,,,,,,,,,,,gray,diamond
192.0,7.0,3.0,1.0,4.0,4.0,345.0732880000942,4.0,1.0,phase_1,,,,,,,,,,,,,cyan,square
387.0,8.0,4.0,1.0,1.0,1.0,354.4035830000211,4.0,1.0,phase_1,,,,,,,,,,,,,green,I
60.0,1.0,1.0,0.0,3.0,3.0,348.1260690000454,4.0,1.0,phase_1,,,,,,,,,,,,,orange,circle
52.0,1.0,1.0,0.0,3.0,3.0,361.8672419997892,4.0,1.0,phase_1,,,,,,,,,,,,,orange,circle
177.0,7.0,3.0,1.0,4.0,4.0,424.5039380002708,4.0,1.0,phase_1,,,,,,,,,,,,,cyan,square
89.0,2.0,2.0,0.0,1.0,1.0,333.3031709998977,4.0,1.0,phase_1,,,,,,,,,,,,,blue,hexagon
92.0,6.0,2.0,1.0,4.0,4.0,351.9156149995979,4.0,1.0,phase_1,,,,,,,,,,,,,magenta,triangle
86.0,6.0,2.0,1.0,1.0,1.0,427.044768000087,4.0,1.0,phase_1,,,,,,,,,,,,,magenta,triangle
0.0,1.0,0.0,0.0,4.0,4.0,348.5489029999371,4.0,1.0,phase_1,,,,,,,,,,,,,orange,circle
0.0,8.0,0.0,1.0,2.0,2.0,316.3739410001653,4.0,1.0,phase_1,,,,,,,,,,,,,green,I
204.0,7.0,3.0,1.0,4.0,4.0,358.0320569999458,4.0,1.0,phase_1,,,,,,,,,,,,,cyan,square
392.0,4.0,4.0,0.0,3.0,3.0,372.0169310004166,4.0,1.0,phase_1,,,,,,,,,,,,,white,cross
99.0,2.0,2.0,0.0,4.0,4.0,335.824944000251,4.0,1.0,phase_1,,,,,,,,,,,,,blue,hexagon
0.0,7.0,0.0,1.0,4.0,4.0,362.4228109997602,4.0,1.0,phase_1,,,,,,,,,,,,,cyan,square
399.0,4.0,4.0,0.0,4.0,4.0,323.7759069997992,4.0,1.0,phase_1,,,,,,,,,,,,,white,cross
73.0,5.0,1.0,1.0,2.0,2.0,324.3307550001191,4.0,1.0,phase_1,,,,,,,,,,,,,gray,diamond
421.0,4.0,4.0,0.0,1.0,1.0,361.3825610000276,4.0,1.0,phase_1,,,,,,,,,,,,,white,cross
117.0,6.0,2.0,1.0,4.0,4.0,317.80797600004,4.0,1.0,phase_1,,,,,,,,,,,,,magenta,triangle
418.0,8.0,4.0,1.0,1.0,1.0,318.2486519999656,4.0,1.0,phase_1,,,,,,,,,,,,,green,I
35.0,1.0,1.0,0.0,3.0,3.0,319.0943710001193,4.0,1.0,phase_1,,,,,,,,,,,,,orange,circle
29.0,5.0,1.0,1.0,3.0,3.0,346.3394610002979,4.0,1.0,phase_1,,,,,,,,,,,,,gray,diamond
402.0,4.0,4.0,0.0,1.0,1.0,446.8993129999035,4.0,1.0,phase_1,,,,,,,,,,,,,white,cross
221.0,7.0,3.0,1.0,3.0,3.0,339.2778610000277,4.0,1.0,phase_1,,,,,,,,,,,,,cyan,square
211.0,7.0,3.0,1.0,3.0,3.0,289.4686899999215,4.0,1.0,phase_1,,,,,,,,,,,,,cyan,square
221.0,3.0,3.0,0.0,2.0,2.0,274.0965550001419,4.0,1.0,phase_1,,,,,,,,,,,,,yellow,flipped triangle
192.0,7.0,3.0,1.0,1.0,1.0,312.8904460004378,4.0,1.0,phase_1,,,,,,,,,,,,,cyan,square
206.0,3.0,3.0,0.0,3.0,3.0,277.0523320000393,4.0,1.0,phase_1,,,,,,,,,,,,,yellow,flipped triangle
384.0,8.0,4.0,1.0,3.0,3.0,408.2939260001694,4.0,1.0,phase_1,,,,,,,,,,,,,green,I
213.0,7.0,3.0,1.0,3.0,3.0,403.5047810002652,4.0,1.0,phase_1,,,,,,,,,,,,,cyan,square
0.0,6.0,0.0,1.0,3.0,3.0,364.9610130000837,4.0,1.0,phase_1,,,,,,,,,,,,,magenta,triangle
421.0,4.0,4.0,0.0,1.0,1.0,400.0843920002808,4.0,1.0,phase_1,,,,,,,,,,,,,white,cross
183.0,7.0,3.0,1.0,3.0,3.0,360.8120910002981,4.0,1.0,phase_1,,,,,,,,,,,,,cyan,square
0.0,6.0,0.0,1.0,4.0,4.0,379.4233110002096,4.0,1.0,phase_1,,,,,,,,,,,,,magenta,triangle
381.0,4.0,4.0,0.0,3.0,3.0,377.681919999759,4.0,1.0,phase_1,,,,,,,,,,,,,white,cross
123.0,6.0,2.0,1.0,2.0,2.0,471.6753009997774,4.0,1.0,phase_1,,,,,,,,,,,,,magenta,triangle
77.0,2.0,2.0,0.0,2.0,2.0,415.9057189999657,4.0,1.0,phase_1,,,,,,,,,,,,,blue,hexagon
92.0,2.0,2.0,0.0,1.0,1.0,315.3597580003406,4.0,1.0,phase_1,,,,,,,,,,,,,blue,hexagon
115.0,6.0,2.0,1.0,2.0,2.0,321.9548189999841,4.0,1.0,phase_1,,,,,,,,,,,,,magenta,triangle
92.0,2.0,2.0,0.0,3.0,3.0,321.8305790001068,4.0,1.0,phase_1,,,,,,,,,,,,,blue,hexagon
394.0,8.0,4.0,1.0,1.0,1.0,332.2398299997076,4.0,1.0,phase_1,,,,,,,,,,,,,green,I
0.0,6.0,0.0,1.0,4.0,4.0,379.4199720000506,4.0,1.0,phase_1,,,,,,,,,,,,,magenta,triangle
77.0,2.0,2.0,0.0,2.0,2.0,334.7550889998274,4.0,1.0,phase_1,,,,,,,,,,,,,blue,hexagon
80.0,6.0,2.0,1.0,2.0,2.0,353.1778910000867,4.0,1.0,phase_1,,,,,,,,,,,,,magenta,triangle
0.0,6.0,0.0,1.0,2.0,2.0,341.3406859999668,4.0,1.0,phase_1,,,,,,,,,,,,,magenta,triangle
107.0,2.0,2.0,0.0,4.0,4.0,382.4731959998644,4.0,1.0,phase_1,,,,,,,,,,,,,blue,hexagon
0.0,2.0,0.0,0.0,1.0,1.0,324.2455129998234,4.0,1.0,phase_1,,,,,,,,,,,,,blue,hexagon
188.0,7.0,3.0,1.0,1.0,1.0,343.9123600001039,4.0,1.0,phase_1,,,,,,,,,,,,,cyan,square
223.0,3.0,3.0,0.0,4.0,4.0,583.8716689995636,4.0,1.0,phase_1,,,,,,,,,,,,,yellow,flipped triangle
0.0,4.0,0.0,0.0,4.0,4.0,355.882303999806,4.0,1.0,phase_1,,,,,,,,,,,,,white,cross
46.0,1.0,1.0,0.0,1.0,1.0,361.4946590000727,4.0,1.0,phase_1,,,,,,,,,,,,,orange,circle
184.0,3.0,3.0,0.0,3.0,3.0,343.4381819997725,4.0,1.0,phase_1,,,,,,,,,,,,,yellow,flipped triangle
203.0,3.0,3.0,0.0,4.0,4.0,351.6513600002326,4.0,1.0,phase_1,,,,,,,,,,,,,yellow,flipped triangle
92.0,6.0,2.0,1.0,1.0,1.0,296.4092889997118,4.0,1.0,phase_1,,,,,,,,,,,,,magenta,triangle
51.0,5.0,1.0,1.0,3.0,3.0,284.6834320002926,4.0,1.0,phase_1,,,,,,,,,,,,,gray,diamond
395.0,8.0,4.0,1.0,1.0,1.0,310.4853140002888,4.0,1.0,phase_1,,,,,,,,,,,,,green,I
385.0,8.0,4.0,1.0,3.0,3.0,303.9974329999495,4.0,1.0,phase_1,,,,,,,,,,,,,green,I
103.0,6.0,2.0,1.0,3.0,3.0,348.4317170000395,4.0,1.0,phase_1,,,,,,,,,,,,,magenta,triangle
56.0,1.0,1.0,0.0,2.0,2.0,297.462051000366,4.0,1.0,phase_1,,,,,,,,,,,,,orange,circle
30.0,5.0,1.0,1.0,1.0,1.0,348.4434169999986,4.0,1.0,phase_1,,,,,,,,,,,,,gray,diamond
44.0,5.0,1.0,1.0,3.0,3.0,309.930735999842,4.0,1.0,phase_1,,,,,,,,,,,,,gray,diamond
45.0,5.0,1.0,1.0,1.0,1.0,348.5494910000852,4.0,1.0,phase_1,,,,,,,,,,,,,gray,diamond
68.0,1.0,1.0,0.0,4.0,4.0,319.0504460003467,4.0,1.0,phase_1,,,,,,,,,,,,,orange,circle
205.0,7.0,3.0,1.0,1.0,1.0,302.2753089999241,4.0,1.0,phase_1,,,,,,,,,,,,,cyan,square
0.0,5.0,0.0,1.0,4.0,4.0,348.5387569999147,4.0,1.0,phase_1,,,,,,,,,,,,,gray,diamond
0.0,3.0,0.0,0.0,1.0,1.0,380.803332999676,4.0,1.0,phase_1,,,,,,,,,,,,,yellow,flipped triangle
192.0,3.0,3.0,0.0,4.0,4.0,397.1081569998205,4.0,1.0,phase_1,,,,,,,,,,,,,yellow,flipped triangle
116.0,2.0,2.0,0.0,2.0,2.0,269.2611309998938,4.0,1.0,phase_1,,,,,,,,,,,,,blue,hexagon
48.0,5.0,1.0,1.0,1.0,1.0,372.7071829998749,4.0,1.0,phase_1,,,,,,,,,,,,,gray,diamond
57.0,5.0,1.0,1.0,4.0,4.0,342.3287129999153,4.0,1.0,phase_1,,,,,,,,,,,,,gray,diamond
0.0,7.0,0.0,1.0,1.0,1.0,436.0432090002177,4.0,1.0,phase_1,,,,,,,,,,,,,cyan,square
399.0,8.0,4.0,1.0,4.0,4.0,342.8659390001485,4.0,1.0,phase_1,,,,,,,,,,,,,green,I
29.0,1.0,1.0,0.0,3.0,3.0,480.6261510002514,4.0,1.0,phase_1,,,,,,,,,,,,,orange,circle
188.0,3.0,3.0,0.0,2.0,2.0,341.5534079999816,4.0,1.0,phase_1,,,,,,,,,,,,,yellow,flipped triangle
88.0,6.0,2.0,1.0,3.0,3.0,354.4406290002371,4.0,1.0,phase_1,,,,,,,,,,,,,magenta,triangle
102.0,2.0,2.0,0.0,3.0,3.0,333.595833000345,4.0,1.0,phase_1,,,,,,,,,,,,,blue,hexagon
418.0,4.0,4.0,0.0,1.0,1.0,317.4859569999171,4.0,1.0,phase_1,,,,,,,,,,,,,white,cross
29.0,5.0,1.0,1.0,2.0,2.0,483.6698369999794,4.0,1.0,phase_1,,,,,,,,,,,,,gray,diamond
100.0,6.0,2.0,1.0,2.0,2.0,283.8317270002335,4.0,1.0,phase_1,,,,,,,,,,,,,magenta,triangle
196.0,7.0,3.0,1.0,3.0,3.0,348.4457349995864,4.0,1.0,phase_1,,,,,,,,,,,,,cyan,square
190.0,3.0,3.0,0.0,1.0,1.0,407.7942230001099,4.0,1.0,phase_1,,,,,,,,,,,,,yellow,flipped triangle
81.0,2.0,2.0,0.0,3.0,3.0,335.1328640001156,4.0,1.0,phase_1,,,,,,,,,,,,,blue,hexagon
396.0,4.0,4.0,0.0,2.0,2.0,294.5834590000231,4.0,1.0,phase_1,,,,,,,,,,,,,white,cross
0.0,2.0,0.0,0.0,4.0,4.0,388.1097089997638,4.0,1.0,phase_1,,,,,,,,,,,,,blue,hexagon
211.0,3.0,3.0,0.0,3.0,3.0,405.2522970000609,4.0,1.0,phase_1,,,,,,,,,,,,,yellow,flipped triangle
123.0,2.0,2.0,0.0,3.0,3.0,467.4568279997402,4.0,1.0,phase_1,,,,,,,,,,,,,blue,hexagon
0.0,8.0,0.0,1.0,4.0,4.0,387.6711269999759,4.0,1.0,phase_1,,,,,,,,,,,,,green,I
29.0,1.0,1.0,0.0,4.0,4.0,347.4410939998051,4.0,1.0,phase_1,,,,,,,,,,,,,orange,circle
0.0,8.0,0.0,1.0,3.0,3.0,458.1090500000755,4.0,1.0,phase_1,,,,,,,,,,,,,green,I
0.0,7.0,0.0,1.0,3.0,3.0,370.6350200000088,4.0,1.0,phase_1,,,,,,,,,,,,,cyan,square
378.0,4.0,4.0,0.0,4.0,4.0,334.2518189997463,4.0,1.0,phase_1,,,,,,,,,,,,,white,cross
206.0,7.0,3.0,1.0,4.0,4.0,371.8550309999955,4.0,1.0,phase_1,,,,,,,,,,,,,cyan,square
0.0,6.0,0.0,1.0,1.0,1.0,322.8629090003778,4.0,1.0,phase_1,,,,,,,,,,,,,magenta,triangle
386.0,8.0,4.0,1.0,4.0,4.0,320.0442460001795,4.0,1.0,phase_1,,,,,,,,,,,,,green,I
400.0,4.0,4.0,0.0,3.0,3.0,347.3621940001976,4.0,1.0,phase_1,,,,,,,,,,,,,white,cross
188.0,7.0,3.0,1.0,2.0,2.0,312.131779000083,4.0,1.0,phase_1,,,,,,,,,,,,,cyan,square
0.0,1.0,1.0,0.0,6.0,6.0,398.6488549999194,1.0,1.0,phase_2,go,250.0,250.0,1.0,,,,,,,,,orange,circle
0.0,1.0,1.0,0.0,5.0,5.0,563.4163119998448,1.0,1.0,phase_2,go,250.0,250.0,1.0,,,,,,,,,orange,circle
0.0,3.0,3.0,0.0,6.0,6.0,411.2138370001048,1.0,1.0,phase_2,go,250.0,250.0,1.0,,,,,,,,,yellow,flipped triangle
0.0,3.0,3.0,0.0,5.0,5.0,481.9727440003589,1.0,1.0,phase_2,go,250.0,250.0,1.0,,,,,,,,,yellow,flipped triangle
0.0,6.0,2.0,1.0,5.0,5.0,481.6855650001344,1.0,1.0,phase_2,stop,250.0,250.0,3.0,,,,,,,,,magenta,triangle
0.0,5.0,1.0,1.0,5.0,0.0,0.0,1.0,1.0,phase_2,stop,200.0,250.0,4.0,,,,,,,,,gray,diamond
0.0,2.0,2.0,0.0,6.0,6.0,452.656430999923,1.0,1.0,phase_2,go,250.0,250.0,1.0,,,,,,,,,blue,hexagon
0.0,3.0,3.0,0.0,6.0,6.0,599.9762530000226,1.0,1.0,phase_2,go,250.0,250.0,1.0,,,,,,,,,yellow,flipped triangle
0.0,5.0,1.0,1.0,6.0,6.0,524.43084000015,1.0,1.0,phase_2,go,250.0,250.0,1.0,,,,,,,,,gray,diamond
0.0,7.0,3.0,1.0,5.0,0.0,0.0,1.0,1.0,phase_2,stop,250.0,250.0,4.0,,,,,,,,,cyan,square
0.0,5.0,1.0,1.0,6.0,6.0,659.3391350002094,1.0,1.0,phase_2,go,300.0,250.0,1.0,,,,,,,,,gray,diamond
0.0,1.0,1.0,0.0,6.0,6.0,511.5444910002225,1.0,1.0,phase_2,go,300.0,250.0,1.0,,,,,,,,,orange,circle
0.0,1.0,1.0,0.0,6.0,6.0,495.6438489998618,1.0,1.0,phase_2,go,300.0,250.0,1.0,,,,,,,,,orange,circle
0.0,5.0,1.0,1.0,6.0,0.0,0.0,1.0,1.0,phase_2,stop,300.0,250.0,4.0,,,,,,,,,gray,diamond
0.0,1.0,1.0,0.0,6.0,6.0,666.1516879998999,1.0,1.0,phase_2,go,300.0,300.0,1.0,,,,,,,,,orange,circle
0.0,2.0,2.0,0.0,5.0,5.0,383.1327020002391,1.0,1.0,phase_2,go,300.0,300.0,1.0,,,,,,,,,blue,hexagon
0.0,7.0,3.0,1.0,6.0,6.0,474.6749119999549,1.0,1.0,phase_2,go,300.0,300.0,1.0,,,,,,,,,cyan,square
0.0,4.0,4.0,0.0,6.0,6.0,465.2517939998688,1.0,1.0,phase_2,go,300.0,300.0,1.0,,,,,,,,,white,cross
0.0,4.0,4.0,0.0,5.0,5.0,508.09017799974754,1.0,1.0,phase_2,go,300.0,300.0,1.0,,,,,,,,,white,cross
0.0,2.0,2.0,0.0,6.0,6.0,378.3371690001331,1.0,1.0,phase_2,go,300.0,300.0,1.0,,,,,,,,,blue,hexagon
0.0,4.0,4.0,0.0,5.0,5.0,529.2452960002265,1.0,1.0,phase_2,go,300.0,300.0,1.0,,,,,,,,,white,cross
0.0,7.0,3.0,1.0,6.0,0.0,0.0,1.0,1.0,phase_2,stop,300.0,300.0,4.0,,,,,,,,,cyan,square
0.0,1.0,1.0,0.0,6.0,6.0,527.8431430001547,1.0,1.0,phase_2,go,300.0,350.0,1.0,,,,,,,,,orange,circle
0.0,6.0,2.0,1.0,6.0,6.0,460.3729229997952,1.0,1.0,phase_2,go,300.0,350.0,1.0,,,,,,,,,magenta,triangle
0.0,2.0,2.0,0.0,5.0,5.0,490.8587059999263,1.0,1.0,phase_2,go,300.0,350.0,1.0,,,,,,,,,blue,hexagon
0.0,6.0,2.0,1.0,5.0,5.0,436.3349109999035,1.0,1.0,phase_2,stop,300.0,350.0,3.0,,,,,,,,,magenta,triangle
0.0,1.0,1.0,0.0,6.0,6.0,619.3526140000358,1.0,1.0,phase_2,go,250.0,350.0,1.0,,,,,,,,,orange,circle
0.0,8.0,4.0,1.0,6.0,6.0,468.3870970002317,1.0,1.0,phase_2,go,250.0,350.0,1.0,,,,,,,,,green,I
0.0,2.0,2.0,0.0,6.0,6.0,431.1868169997979,1.0,1.0,phase_2,go,250.0,350.0,1.0,,,,,,,,,blue,hexagon
0.0,3.0,3.0,0.0,6.0,6.0,518.9231729996209,1.0,1.0,phase_2,go,250.0,350.0,1.0,,,,,,,,,yellow,flipped triangle
0.0,8.0,4.0,1.0,5.0,5.0,396.1142759999347,1.0,1.0,phase_2,stop,250.0,350.0,3.0,,,,,,,,,green,I
0.0,5.0,1.0,1.0,5.0,0.0,0.0,1.0,1.0,phase_2,stop,200.0,350.0,4.0,,,,,,,,,gray,diamond
0.0,1.0,1.0,0.0,5.0,5.0,577.0551459995659,1.0,1.0,phase_2,go,250.0,350.0,1.0,,,,,,,,,orange,circle
0.0,8.0,4.0,1.0,5.0,0.0,0.0,1.0,1.0,phase_2,stop,250.0,350.0,4.0,,,,,,,,,green,I
0.0,3.0,3.0,0.0,5.0,5.0,545.5408049997459,1.0,1.0,phase_2,go,300.0,350.0,1.0,,,,,,,,,yellow,flipped triangle
0.0,2.0,2.0,0.0,5.0,5.0,578.5805199998322,1.0,1.0,phase_2,go,300.0,350.0,1.0,,,,,,,,,blue,hexagon
0.0,7.0,3.0,1.0,6.0,6.0,620.0792790000378,2.0,1.0,phase_2,stop,300.0,350.0,3.0,,,,,,,,,cyan,square
0.0,2.0,2.0,0.0,5.0,5.0,659.0500880001855,2.0,1.0,phase_2,go,300.0,300.0,1.0,,,,,,,,,blue,hexagon
0.0,2.0,2.0,0.0,6.0,6.0,593.3163750000858,2.0,1.0,phase_2,go,300.0,300.0,1.0,,,,,,,,,blue,hexagon
0.0,7.0,3.0,1.0,6.0,0.0,0.0,2.0,1.0,phase_2,stop,300.0,300.0,4.0,,,,,,,,,cyan,square
0.0,1.0,1.0,0.0,6.0,6.0,525.3025219999472,2.0,1.0,phase_2,go,300.0,350.0,1.0,,,,,,,,,orange,circle
0.0,5.0,1.0,1.0,5.0,0.0,0.0,2.0,1.0,phase_2,stop,300.0,350.0,4.0,,,,,,,,,gray,diamond
0.0,7.0,3.0,1.0,6.0,6.0,536.3502029999836,2.0,1.0,phase_2,go,350.0,350.0,1.0,,,,,,,,,cyan,square
0.0,7.0,3.0,1.0,5.0,0.0,0.0,2.0,1.0,phase_2,stop,350.0,350.0,4.0,,,,,,,,,cyan,square
0.0,7.0,3.0,1.0,6.0,0.0,0.0,2.0,1.0,phase_2,stop,400.0,350.0,4.0,,,,,,,,,cyan,square
0.0,1.0,1.0,0.0,5.0,5.0,566.7972169999302,2.0,1.0,phase_2,go,400.0,400.0,1.0,,,,,,,,,orange,circle
0.0,6.0,2.0,1.0,6.0,6.0,547.2551830002885,2.0,1.0,phase_2,stop,400.0,400.0,3.0,,,,,,,,,magenta,triangle
0.0,3.0,3.0,0.0,5.0,5.0,717.6058889999695,2.0,1.0,phase_2,go,400.0,350.0,1.0,,,,,,,,,yellow,flipped triangle
0.0,6.0,2.0,1.0,6.0,0.0,0.0,2.0,1.0,phase_2,stop,400.0,350.0,4.0,,,,,,,,,magenta,triangle
0.0,6.0,2.0,1.0,6.0,6.0,683.4785379996902,2.0,1.0,phase_2,go,400.0,400.0,1.0,,,,,,,,,magenta,triangle
0.0,2.0,2.0,0.0,5.0,5.0,656.6247410000869,2.0,1.0,phase_2,go,400.0,400.0,1.0,,,,,,,,,blue,hexagon
0.0,1.0,1.0,0.0,6.0,6.0,401.1979370002336,2.0,1.0,phase_2,go,400.0,400.0,1.0,,,,,,,,,orange,circle
0.0,4.0,4.0,0.0,6.0,6.0,464.6741709993875,2.0,1.0,phase_2,go,400.0,400.0,1.0,,,,,,,,,white,cross
0.0,4.0,4.0,0.0,5.0,5.0,475.496043000021,2.0,1.0,phase_2,go,400.0,400.0,1.0,,,,,,,,,white,cross
0.0,6.0,2.0,1.0,6.0,6.0,526.4047250002477,2.0,1.0,phase_2,stop,400.0,400.0,3.0,,,,,,,,,magenta,triangle
0.0,4.0,4.0,0.0,5.0,5.0,541.263892000643,2.0,1.0,phase_2,go,400.0,350.0,1.0,,,,,,,,,white,cross
0.0,3.0,3.0,0.0,6.0,6.0,549.3316960000811,2.0,1.0,phase_2,go,400.0,350.0,1.0,,,,,,,,,yellow,flipped triangle
0.0,2.0,2.0,0.0,6.0,6.0,579.4271410004512,2.0,1.0,phase_2,go,400.0,350.0,1.0,,,,,,,,,blue,hexagon
0.0,7.0,3.0,1.0,6.0,6.0,353.8568400008444,2.0,1.0,phase_2,go,400.0,350.0,1.0,,,,,,,,,cyan,square
0.0,4.0,4.0,0.0,5.0,5.0,541.5077629995722,2.0,1.0,phase_2,go,400.0,350.0,1.0,,,,,,,,,white,cross
0.0,4.0,4.0,0.0,6.0,6.0,522.5192560001233,2.0,1.0,phase_2,go,400.0,350.0,1.0,,,,,,,,,white,cross
0.0,7.0,3.0,1.0,5.0,0.0,0.0,2.0,1.0,phase_2,stop,400.0,350.0,4.0,,,,,,,,,cyan,square
0.0,8.0,4.0,1.0,6.0,6.0,507.7786809997633,2.0,1.0,phase_2,stop,450.0,350.0,3.0,,,,,,,,,green,I
0.0,3.0,3.0,0.0,6.0,6.0,648.9265970003544,2.0,1.0,phase_2,go,450.0,300.0,1.0,,,,,,,,,yellow,flipped triangle
0.0,8.0,4.0,1.0,6.0,6.0,719.1051079998942,2.0,1.0,phase_2,go,450.0,300.0,1.0,,,,,,,,,green,I
0.0,4.0,4.0,0.0,6.0,6.0,608.8777079994543,2.0,1.0,phase_2,go,450.0,300.0,1.0,,,,,,,,,white,cross
0.0,1.0,1.0,0.0,5.0,5.0,650.7955979996041,2.0,1.0,phase_2,go,450.0,300.0,1.0,,,,,,,,,orange,circle
0.0,5.0,1.0,1.0,6.0,0.0,0.0,2.0,1.0,phase_2,stop,450.0,300.0,4.0,,,,,,,,,gray,diamond
0.0,4.0,4.0,0.0,6.0,6.0,472.1376039997267,2.0,1.0,phase_2,go,450.0,350.0,1.0,,,,,,,,,white,cross
0.0,1.0,1.0,0.0,6.0,6.0,455.9582490001048,2.0,1.0,phase_2,go,450.0,350.0,1.0,,,,,,,,,orange,circle
0.0,6.0,2.0,1.0,5.0,5.0,660.5672109999432,2.0,1.0,phase_2,stop,450.0,350.0,3.0,,,,,,,,,magenta,triangle
0.0,1.0,1.0,0.0,6.0,6.0,603.705832999367,2.0,1.0,phase_2,go,400.0,350.0,1.0,,,,,,,,,orange,circle
0.0,3.0,3.0,0.0,5.0,5.0,545.2961959999811,3.0,1.0,phase_2,go,400.0,350.0,1.0,,,,,,,,,yellow,flipped triangle
0.0,3.0,3.0,0.0,6.0,6.0,572.8740750000725,3.0,1.0,phase_2,go,400.0,350.0,1.0,,,,,,,,,yellow,flipped triangle
0.0,6.0,2.0,1.0,5.0,5.0,332.9525260005539,3.0,1.0,phase_2,stop,400.0,350.0,3.0,,,,,,,,,magenta,triangle
0.0,5.0,1.0,1.0,6.0,6.0,446.2799580005594,3.0,1.0,phase_2,stop,350.0,350.0,3.0,,,,,,,,,gray,diamond
0.0,4.0,4.0,0.0,5.0,5.0,643.4067700001833,3.0,1.0,phase_2,go,350.0,300.0,1.0,,,,,,,,,white,cross
0.0,2.0,2.0,0.0,5.0,5.0,599.5146519999253,3.0,1.0,phase_2,go,350.0,300.0,1.0,,,,,,,,,blue,hexagon
0.0,6.0,2.0,1.0,6.0,6.0,483.8690890001089,3.0,1.0,phase_2,stop,350.0,300.0,3.0,,,,,,,,,magenta,triangle
0.0,4.0,4.0,0.0,5.0,5.0,571.6829160000998,3.0,1.0,phase_2,go,350.0,250.0,1.0,,,,,,,,,white,cross
0.0,3.0,3.0,0.0,5.0,5.0,492.0177599997259,3.0,1.0,phase_2,go,350.0,250.0,1.0,,,,,,,,,yellow,flipped triangle
0.0,1.0,1.0,0.0,5.0,5.0,618.1517790000726,3.0,1.0,phase_2,go,350.0,250.0,1.0,,,,,,,,,orange,circle
0.0,7.0,3.0,1.0,6.0,0.0,0.0,3.0,1.0,phase_2,stop,350.0,250.0,4.0,,,,,,,,,cyan,square
0.0,8.0,4.0,1.0,5.0,0.0,0.0,3.0,1.0,phase_2,stop,350.0,300.0,4.0,,,,,,,,,green,I
0.0,1.0,1.0,0.0,5.0,5.0,592.8306409996367,3.0,1.0,phase_2,go,400.0,300.0,1.0,,,,,,,,,orange,circle
0.0,7.0,3.0,1.0,5.0,5.0,489.2030010005328,3.0,1.0,phase_2,stop,400.0,300.0,3.0,,,,,,,,,cyan,square
0.0,1.0,1.0,0.0,6.0,6.0,705.3035710005133,3.0,1.0,phase_2,go,350.0,300.0,1.0,,,,,,,,,orange,circle
0.0,8.0,4.0,1.0,6.0,0.0,0.0,3.0,1.0,phase_2,stop,350.0,300.0,4.0,,,,,,,,,green,I
0.0,4.0,4.0,0.0,6.0,6.0,553.2818120000229,3.0,1.0,phase_2,go,350.0,350.0,1.0,,,,,,,,,white,cross
0.0,3.0,3.0,0.0,5.0,5.0,571.1904839999988,3.0,1.0,phase_2,go,350.0,350.0,1.0,,,,,,,,,yellow,flipped triangle
0.0,5.0,1.0,1.0,5.0,0.0,0.0,3.0,1.0,phase_2,stop,350.0,350.0,4.0,,,,,,,,,gray,diamond
0.0,4.0,4.0,0.0,5.0,5.0,575.5723870006477,3.0,1.0,phase_2,go,400.0,350.0,1.0,,,,,,,,,white,cross
0.0,3.0,3.0,0.0,5.0,5.0,569.6434510000472,3.0,1.0,phase_2,go,400.0,350.0,1.0,,,,,,,,,yellow,flipped triangle
0.0,5.0,1.0,1.0,5.0,5.0,569.5469699994646,3.0,1.0,phase_2,stop,400.0,350.0,3.0,,,,,,,,,gray,diamond
0.0,3.0,3.0,0.0,6.0,6.0,641.1107769999944,3.0,1.0,phase_2,go,350.0,350.0,1.0,,,,,,,,,yellow,flipped triangle
0.0,5.0,1.0,1.0,6.0,0.0,0.0,3.0,1.0,phase_2,stop,350.0,350.0,4.0,,,,,,,,,gray,diamond
0.0,7.0,3.0,1.0,6.0,0.0,0.0,3.0,1.0,phase_2,stop,350.0,400.0,4.0,,,,,,,,,cyan,square
0.0,2.0,2.0,0.0,6.0,6.0,625.4254010000295,3.0,1.0,phase_2,go,350.0,450.0,1.0,,,,,,,,,blue,hexagon
0.0,6.0,2.0,1.0,5.0,5.0,638.7965149997399,3.0,1.0,phase_2,go,350.0,450.0,1.0,,,,,,,,,magenta,triangle
0.0,2.0,2.0,0.0,6.0,6.0,705.0555940004415,3.0,1.0,phase_2,go,350.0,450.0,1.0,,,,,,,,,blue,hexagon
0.0,7.0,3.0,1.0,5.0,0.0,0.0,3.0,1.0,phase_2,stop,350.0,450.0,4.0,,,,,,,,,cyan,square
0.0,4.0,4.0,0.0,5.0,5.0,640.0936310001271,3.0,1.0,phase_2,go,400.0,450.0,1.0,,,,,,,,,white,cross
0.0,1.0,1.0,0.0,5.0,5.0,559.7564219997366,3.0,1.0,phase_2,go,400.0,450.0,1.0,,,,,,,,,orange,circle
0.0,8.0,4.0,1.0,5.0,5.0,636.9080220001706,3.0,1.0,phase_2,go,400.0,450.0,1.0,,,,,,,,,green,I
0.0,4.0,4.0,0.0,6.0,6.0,557.6865869998073,3.0,1.0,phase_2,go,400.0,450.0,1.0,,,,,,,,,white,cross
0.0,3.0,3.0,0.0,5.0,5.0,561.2591890003387,3.0,1.0,phase_2,go,400.0,450.0,1.0,,,,,,,,,yellow,flipped triangle
0.0,7.0,3.0,1.0,5.0,0.0,0.0,3.0,1.0,phase_2,stop,400.0,450.0,4.0,,,,,,,,,cyan,square
0.0,2.0,2.0,0.0,6.0,6.0,480.7275829998616,3.0,1.0,phase_2,go,450.0,450.0,1.0,,,,,,,,,blue,hexagon
0.0,2.0,2.0,0.0,6.0,6.0,593.2689620003657,4.0,1.0,phase_2,go,450.0,450.0,1.0,,,,,,,,,blue,hexagon
0.0,5.0,1.0,1.0,6.0,0.0,0.0,4.0,1.0,phase_2,stop,450.0,450.0,4.0,,,,,,,,,gray,diamond
0.0,2.0,2.0,0.0,6.0,6.0,637.7809519999573,4.0,1.0,phase_2,go,450.0,500.0,1.0,,,,,,,,,blue,hexagon
0.0,7.0,3.0,1.0,5.0,5.0,494.889067999793,4.0,1.0,phase_2,go,450.0,500.0,1.0,,,,,,,,,cyan,square
0.0,7.0,3.0,1.0,5.0,5.0,579.845813999782,4.0,1.0,phase_2,stop,450.0,500.0,3.0,,,,,,,,,cyan,square
0.0,3.0,3.0,0.0,6.0,6.0,561.6416389993901,4.0,1.0,phase_2,go,400.0,500.0,1.0,,,,,,,,,yellow,flipped triangle
0.0,4.0,4.0,0.0,6.0,6.0,633.5061070003576,4.0,1.0,phase_2,go,400.0,500.0,1.0,,,,,,,,,white,cross
0.0,6.0,2.0,1.0,6.0,6.0,619.7251789999427,4.0,1.0,phase_2,stop,400.0,500.0,3.0,,,,,,,,,magenta,triangle
0.0,6.0,2.0,1.0,5.0,0.0,0.0,4.0,1.0,phase_2,stop,400.0,450.0,4.0,,,,,,,,,magenta,triangle
0.0,4.0,4.0,0.0,6.0,6.0,600.9636789995056,4.0,1.0,phase_2,go,450.0,450.0,1.0,,,,,,,,,white,cross
0.0,3.0,3.0,0.0,5.0,5.0,585.0346920005904,4.0,1.0,phase_2,go,450.0,450.0,1.0,,,,,,,,,yellow,flipped triangle
0.0,1.0,1.0,0.0,6.0,6.0,641.6112819997579,4.0,1.0,phase_2,go,450.0,450.0,1.0,,,,,,,,,orange,circle
0.0,6.0,2.0,1.0,5.0,5.0,564.9276869999085,4.0,1.0,phase_2,stop,450.0,450.0,3.0,,,,,,,,,magenta,triangle
0.0,8.0,4.0,1.0,6.0,6.0,584.7132809994946,4.0,1.0,phase_2,stop,400.0,450.0,3.0,,,,,,,,,green,I
0.0,6.0,2.0,1.0,6.0,0.0,0.0,4.0,1.0,phase_2,stop,400.0,400.0,4.0,,,,,,,,,magenta,triangle
0.0,1.0,1.0,0.0,6.0,6.0,798.8770440006192,4.0,1.0,phase_2,go,400.0,450.0,1.0,,,,,,,,,orange,circle
0.0,8.0,4.0,1.0,5.0,0.0,0.0,4.0,1.0,phase_2,stop,400.0,450.0,4.0,,,,,,,,,green,I
0.0,3.0,3.0,0.0,5.0,5.0,742.7516279994961,4.0,1.0,phase_2,go,450.0,450.0,1.0,,,,,,,,,yellow,flipped triangle
0.0,5.0,1.0,1.0,6.0,6.0,660.4163560004963,4.0,1.0,phase_2,go,450.0,450.0,1.0,,,,,,,,,gray,diamond
0.0,1.0,1.0,0.0,6.0,6.0,678.3387239993317,4.0,1.0,phase_2,go,450.0,450.0,1.0,,,,,,,,,orange,circle
0.0,8.0,4.0,1.0,5.0,5.0,658.0391739998959,4.0,1.0,phase_2,go,450.0,450.0,1.0,,,,,,,,,green,I
0.0,4.0,4.0,0.0,5.0,5.0,674.5392419998097,4.0,1.0,phase_2,go,450.0,450.0,1.0,,,,,,,,,white,cross
0.0,5.0,1.0,1.0,5.0,5.0,668.8144810004815,4.0,1.0,phase_2,go,450.0,450.0,1.0,,,,,,,,,gray,diamond
0.0,4.0,4.0,0.0,5.0,5.0,615.0394890000825,4.0,1.0,phase_2,go,450.0,450.0,1.0,,,,,,,,,white,cross
0.0,7.0,3.0,1.0,5.0,0.0,0.0,4.0,1.0,phase_2,stop,450.0,450.0,4.0,,,,,,,,,cyan,square
0.0,8.0,4.0,1.0,6.0,6.0,707.9534249996868,4.0,1.0,phase_2,go,500.0,450.0,1.0,,,,,,,,,green,I
0.0,7.0,3.0,1.0,5.0,0.0,0.0,4.0,1.0,phase_2,stop,500.0,450.0,4.0,,,,,,,,,cyan,square
0.0,2.0,2.0,0.0,6.0,6.0,566.3853709993418,4.0,1.0,phase_2,go,550.0,450.0,1.0,,,,,,,,,blue,hexagon
0.0,2.0,2.0,0.0,5.0,5.0,627.0168109995211,4.0,1.0,phase_2,go,550.0,450.0,1.0,,,,,,,,,blue,hexagon
0.0,4.0,4.0,0.0,5.0,5.0,681.2242999994851,4.0,1.0,phase_2,go,550.0,450.0,1.0,,,,,,,,,white,cross
0.0,7.0,3.0,1.0,5.0,5.0,673.9402769999288,4.0,1.0,phase_2,stop,550.0,450.0,3.0,,,,,,,,,cyan,square
0.0,1.0,1.0,0.0,5.0,5.0,619.05276699963,4.0,1.0,phase_2,go,500.0,450.0,1.0,,,,,,,,,orange,circle
0.0,8.0,4.0,1.0,5.0,0.0,0.0,4.0,1.0,phase_2,stop,500.0,450.0,4.0,,,,,,,,,green,I
0.0,1.0,1.0,0.0,5.0,5.0,892.5678859995969,4.0,1.0,phase_2,go,550.0,450.0,1.0,,,,,,,,,orange,circle
0.0,6.0,2.0,1.0,5.0,0.0,0.0,4.0,1.0,phase_2,stop,550.0,450.0,4.0,,,,,,,,,magenta,triangle
0.0,8.0,4.0,1.0,5.0,5.0,694.9139379994449,4.0,1.0,phase_2,stop,600.0,450.0,3.0,,,,,,,,,green,I
0.0,5.0,1.0,1.0,5.0,5.0,512.9055439992953,5.0,1.0,phase_2,stop,550.0,450.0,3.0,,,,,,,,,gray,diamond
0.0,3.0,3.0,0.0,6.0,6.0,668.3500760000243,5.0,1.0,phase_2,go,500.0,450.0,1.0,,,,,,,,,yellow,flipped triangle
0.0,4.0,4.0,0.0,6.0,6.0,508.1768300005933,5.0,1.0,phase_2,go,500.0,450.0,1.0,,,,,,,,,white,cross
0.0,6.0,2.0,1.0,6.0,6.0,544.3998330001705,5.0,1.0,phase_2,stop,500.0,450.0,3.0,,,,,,,,,magenta,triangle
0.0,8.0,4.0,1.0,5.0,5.0,554.0875309998228,5.0,1.0,phase_2,go,500.0,400.0,1.0,,,,,,,,,green,I
0.0,1.0,1.0,0.0,5.0,5.0,613.8047200001893,5.0,1.0,phase_2,go,500.0,400.0,1.0,,,,,,,,,orange,circle
0.0,4.0,4.0,0.0,6.0,6.0,547.2730299998148,5.0,1.0,phase_2,go,500.0,400.0,1.0,,,,,,,,,white,cross
0.0,6.0,2.0,1.0,6.0,6.0,470.3295650006112,5.0,1.0,phase_2,stop,500.0,400.0,3.0,,,,,,,,,magenta,triangle
0.0,2.0,2.0,0.0,5.0,5.0,340.085669000473,5.0,1.0,phase_2,go,500.0,350.0,1.0,,,,,,,,,blue,hexagon
0.0,7.0,3.0,1.0,5.0,5.0,608.0257769999662,5.0,1.0,phase_2,stop,500.0,350.0,3.0,,,,,,,,,cyan,square
0.0,8.0,4.0,1.0,5.0,0.0,0.0,5.0,1.0,phase_2,stop,450.0,350.0,4.0,,,,,,,,,green,I
0.0,3.0,3.0,0.0,5.0,5.0,590.1358390001405,5.0,1.0,phase_2,go,500.0,350.0,1.0,,,,,,,,,yellow,flipped triangle
0.0,2.0,2.0,0.0,5.0,5.0,618.6579779996464,5.0,1.0,phase_2,go,500.0,350.0,1.0,,,,,,,,,blue,hexagon
0.0,4.0,4.0,0.0,6.0,6.0,529.1316769998957,5.0,1.0,phase_2,go,500.0,350.0,1.0,,,,,,,,,white,cross
0.0,8.0,4.0,1.0,6.0,6.0,385.3086069993878,5.0,1.0,phase_2,stop,500.0,350.0,3.0,,,,,,,,,green,I
0.0,1.0,1.0,0.0,5.0,5.0,492.310047000501,5.0,1.0,phase_2,go,500.0,300.0,1.0,,,,,,,,,orange,circle
0.0,7.0,3.0,1.0,6.0,0.0,0.0,5.0,1.0,phase_2,stop,500.0,300.0,4.0,,,,,,,,,cyan,square
0.0,7.0,3.0,1.0,5.0,5.0,579.0674270001546,5.0,1.0,phase_2,stop,500.0,350.0,3.0,,,,,,,,,cyan,square
0.0,4.0,4.0,0.0,6.0,6.0,640.9145380002883,5.0,1.0,phase_2,go,450.0,350.0,1.0,,,,,,,,,white,cross
0.0,5.0,1.0,1.0,6.0,0.0,0.0,5.0,1.0,phase_2,stop,450.0,350.0,4.0,,,,,,,,,gray,diamond
0.0,5.0,1.0,1.0,6.0,6.0,555.7430449998719,5.0,1.0,phase_2,stop,450.0,400.0,3.0,,,,,,,,,gray,diamond
0.0,4.0,4.0,0.0,6.0,6.0,660.1299510002718,5.0,1.0,phase_2,go,450.0,350.0,1.0,,,,,,,,,white,cross
0.0,1.0,1.0,0.0,5.0,5.0,688.4502919992883,5.0,1.0,phase_2,go,450.0,350.0,1.0,,,,,,,,,orange,circle
0.0,5.0,1.0,1.0,5.0,5.0,586.558334000074,5.0,1.0,phase_2,stop,450.0,350.0,3.0,,,,,,,,,gray,diamond
0.0,8.0,4.0,1.0,6.0,0.0,0.0,5.0,1.0,phase_2,stop,400.0,350.0,4.0,,,,,,,,,green,I
0.0,7.0,3.0,1.0,5.0,0.0,0.0,5.0,1.0,phase_2,stop,400.0,400.0,4.0,,,,,,,,,cyan,square
0.0,7.0,3.0,1.0,6.0,6.0,588.0247369996141,5.0,1.0,phase_2,go,450.0,400.0,1.0,,,,,,,,,cyan,square
0.0,6.0,2.0,1.0,5.0,5.0,707.052947000193,5.0,1.0,phase_2,go,450.0,400.0,1.0,,,,,,,,,magenta,triangle
0.0,6.0,2.0,1.0,5.0,0.0,0.0,5.0,1.0,phase_2,stop,450.0,400.0,4.0,,,,,,,,,magenta,triangle
0.0,1.0,1.0,0.0,5.0,5.0,597.5900310004363,5.0,1.0,phase_2,go,500.0,400.0,1.0,,,,,,,,,orange,circle
0.0,7.0,3.0,1.0,5.0,5.0,643.4806459992615,5.0,1.0,phase_2,go,500.0,400.0,1.0,,,,,,,,,cyan,square
0.0,5.0,1.0,1.0,6.0,0.0,0.0,5.0,1.0,phase_2,stop,500.0,400.0,4.0,,,,,,,,,gray,diamond
0.0,5.0,1.0,1.0,5.0,5.0,684.3122069994934,5.0,1.0,phase_2,go,500.0,450.0,1.0,,,,,,,,,gray,diamond
0.0,5.0,1.0,1.0,6.0,0.0,0.0,5.0,1.0,phase_2,stop,500.0,450.0,4.0,,,,,,,,,gray,diamond
0.0,8.0,4.0,1.0,5.0,5.0,554.9503479996929,5.0,1.0,phase_2,stop,500.0,500.0,3.0,,,,,,,,,green,I
0.0,7.0,3.0,1.0,5.0,5.0,573.7550240000928,5.0,1.0,phase_2,stop,450.0,500.0,3.0,,,,,,,,,cyan,square
0.0,6.0,2.0,1.0,6.0,6.0,463.0037950000769,6.0,1.0,phase_2,go,400.0,500.0,1.0,,,,,,,,,magenta,triangle
0.0,5.0,1.0,1.0,6.0,6.0,577.9941820001113,6.0,1.0,phase_2,stop,400.0,500.0,3.0,,,,,,,,,gray,diamond
0.0,4.0,4.0,0.0,5.0,5.0,591.3781939998444,6.0,1.0,phase_2,go,400.0,450.0,1.0,,,,,,,,,white,cross
0.0,8.0,4.0,1.0,6.0,6.0,590.4392070005997,6.0,1.0,phase_2,stop,400.0,450.0,3.0,,,,,,,,,green,I
0.0,5.0,1.0,1.0,6.0,6.0,500.5124689996592,6.0,1.0,phase_2,stop,400.0,400.0,3.0,,,,,,,,,gray,diamond
0.0,5.0,1.0,1.0,5.0,0.0,0.0,6.0,1.0,phase_2,stop,400.0,350.0,4.0,,,,,,,,,gray,diamond
0.0,2.0,2.0,0.0,5.0,5.0,665.3560650001964,6.0,1.0,phase_2,go,450.0,350.0,1.0,,,,,,,,,blue,hexagon
0.0,8.0,4.0,1.0,5.0,5.0,639.5393889997649,6.0,1.0,phase_2,stop,450.0,350.0,3.0,,,,,,,,,green,I
0.0,6.0,2.0,1.0,6.0,6.0,639.1910939992158,6.0,1.0,phase_2,go,400.0,350.0,1.0,,,,,,,,,magenta,triangle
0.0,6.0,2.0,1.0,6.0,0.0,0.0,6.0,1.0,phase_2,stop,400.0,350.0,4.0,,,,,,,,,magenta,triangle
0.0,5.0,1.0,1.0,6.0,6.0,655.2613910007494,6.0,1.0,phase_2,go,400.0,400.0,1.0,,,,,,,,,gray,diamond
0.0,2.0,2.0,0.0,6.0,6.0,615.281256000344,6.0,1.0,phase_2,go,400.0,400.0,1.0,,,,,,,,,blue,hexagon
0.0,5.0,1.0,1.0,5.0,0.0,0.0,6.0,1.0,phase_2,stop,400.0,400.0,4.0,,,,,,,,,gray,diamond
0.0,1.0,1.0,0.0,6.0,6.0,580.6371470007434,6.0,1.0,phase_2,go,450.0,400.0,1.0,,,,,,,,,orange,circle
0.0,3.0,3.0,0.0,5.0,5.0,663.2227479994981,6.0,1.0,phase_2,go,450.0,400.0,1.0,,,,,,,,,yellow,flipped triangle
0.0,5.0,1.0,1.0,5.0,5.0,391.8798040003821,6.0,1.0,phase_2,stop,450.0,400.0,3.0,,,,,,,,,gray,diamond
0.0,4.0,4.0,0.0,5.0,5.0,614.86589299966,6.0,1.0,phase_2,go,400.0,400.0,1.0,,,,,,,,,white,cross
0.0,6.0,2.0,1.0,5.0,5.0,592.3946020002404,6.0,1.0,phase_2,stop,400.0,400.0,3.0,,,,,,,,,magenta,triangle
0.0,8.0,4.0,1.0,5.0,0.0,0.0,6.0,1.0,phase_2,stop,350.0,400.0,4.0,,,,,,,,,green,I
0.0,2.0,2.0,0.0,5.0,5.0,643.6517259999164,6.0,1.0,phase_2,go,400.0,400.0,1.0,,,,,,,,,blue,hexagon
0.0,5.0,1.0,1.0,6.0,0.0,0.0,6.0,1.0,phase_2,stop,400.0,400.0,4.0,,,,,,,,,gray,diamond
0.0,3.0,3.0,0.0,6.0,6.0,586.0588780005855,6.0,1.0,phase_2,go,400.0,450.0,1.0,,,,,,,,,yellow,flipped triangle
0.0,5.0,1.0,1.0,5.0,0.0,0.0,6.0,1.0,phase_2,stop,400.0,450.0,4.0,,,,,,,,,gray,diamond
0.0,4.0,4.0,0.0,5.0,5.0,669.973344999562,6.0,1.0,phase_2,go,450.0,450.0,1.0,,,,,,,,,white,cross
0.0,7.0,3.0,1.0,6.0,6.0,705.6158779996622,6.0,1.0,phase_2,go,450.0,450.0,1.0,,,,,,,,,cyan,square
0.0,6.0,2.0,1.0,5.0,0.0,0.0,6.0,1.0,phase_2,stop,450.0,450.0,4.0,,,,,,,,,magenta,triangle
0.0,6.0,2.0,1.0,6.0,0.0,0.0,6.0,1.0,phase_2,stop,500.0,450.0,4.0,,,,,,,,,magenta,triangle
0.0,1.0,1.0,0.0,5.0,5.0,636.0373719999188,6.0,1.0,phase_2,go,500.0,500.0,1.0,,,,,,,,,orange,circle
0.0,6.0,2.0,1.0,5.0,5.0,606.0532100000273,6.0,1.0,phase_2,stop,500.0,500.0,3.0,,,,,,,,,magenta,triangle
0.0,4.0,4.0,0.0,5.0,5.0,638.2401840000966,6.0,1.0,phase_2,go,450.0,500.0,1.0,,,,,,,,,white,cross
0.0,3.0,3.0,0.0,6.0,6.0,601.4118180000878,6.0,1.0,phase_2,go,450.0,500.0,1.0,,,,,,,,,yellow,flipped triangle
0.0,5.0,1.0,1.0,6.0,6.0,703.1848520000494,6.0,1.0,phase_2,go,450.0,500.0,1.0,,,,,,,,,gray,diamond
0.0,7.0,3.0,1.0,6.0,6.0,680.1678820002053,6.0,1.0,phase_2,go,450.0,500.0,1.0,,,,,,,,,cyan,square
0.0,6.0,2.0,1.0,6.0,6.0,716.0355860005438,6.0,1.0,phase_2,go,450.0,500.0,1.0,,,,,,,,,magenta,triangle
0.0,2.0,2.0,0.0,6.0,6.0,660.2103980003449,6.0,1.0,phase_2,go,450.0,500.0,1.0,,,,,,,,,blue,hexagon
0.0,8.0,4.0,1.0,6.0,6.0,647.1574569995937,6.0,1.0,phase_2,stop,450.0,500.0,3.0,,,,,,,,,green,I
0.0,2.0,2.0,0.0,5.0,5.0,384.4909640001788,7.0,1.0,phase_2,go,450.0,450.0,1.0,,,,,,,,,blue,hexagon
0.0,2.0,2.0,0.0,5.0,5.0,586.4027879997593,7.0,1.0,phase_2,go,450.0,450.0,1.0,,,,,,,,,blue,hexagon
0.0,6.0,2.0,1.0,6.0,6.0,568.6479550004151,7.0,1.0,phase_2,stop,450.0,450.0,3.0,,,,,,,,,magenta,triangle
0.0,3.0,3.0,0.0,6.0,6.0,719.5706829998016,7.0,1.0,phase_2,go,450.0,400.0,1.0,,,,,,,,,yellow,flipped triangle
0.0,5.0,1.0,1.0,5.0,0.0,0.0,7.0,1.0,phase_2,stop,450.0,400.0,4.0,,,,,,,,,gray,diamond
0.0,3.0,3.0,0.0,6.0,6.0,478.1052190000991,7.0,1.0,phase_2,go,500.0,400.0,1.0,,,,,,,,,yellow,flipped triangle
0.0,6.0,2.0,1.0,6.0,0.0,0.0,7.0,1.0,phase_2,stop,500.0,400.0,4.0,,,,,,,,,magenta,triangle
0.0,5.0,1.0,1.0,5.0,5.0,634.264739000173,7.0,1.0,phase_2,go,500.0,450.0,1.0,,,,,,,,,gray,diamond
0.0,1.0,1.0,0.0,5.0,5.0,624.5444400001361,7.0,1.0,phase_2,go,500.0,450.0,1.0,,,,,,,,,orange,circle
0.0,6.0,2.0,1.0,5.0,5.0,752.3203569999168,7.0,1.0,phase_2,stop,500.0,450.0,3.0,,,,,,,,,magenta,triangle
0.0,8.0,4.0,1.0,6.0,0.0,0.0,7.0,1.0,phase_2,stop,450.0,450.0,4.0,,,,,,,,,green,I
0.0,1.0,1.0,0.0,6.0,6.0,652.4884739992558,7.0,1.0,phase_2,go,450.0,500.0,1.0,,,,,,,,,orange,circle
0.0,2.0,2.0,0.0,5.0,5.0,629.0668159999768,7.0,1.0,phase_2,go,450.0,500.0,1.0,,,,,,,,,blue,hexagon
0.0,6.0,2.0,1.0,6.0,6.0,678.8924640004552,7.0,1.0,phase_2,stop,450.0,500.0,3.0,,,,,,,,,magenta,triangle
0.0,8.0,4.0,1.0,5.0,0.0,0.0,7.0,1.0,phase_2,stop,450.0,450.0,4.0,,,,,,,,,green,I
0.0,8.0,4.0,1.0,6.0,0.0,0.0,7.0,1.0,phase_2,stop,500.0,450.0,4.0,,,,,,,,,green,I
0.0,3.0,3.0,0.0,6.0,6.0,636.4876289999302,7.0,1.0,phase_2,go,500.0,500.0,1.0,,,,,,,,,yellow,flipped triangle
0.0,1.0,1.0,0.0,5.0,5.0,889.132618000076,7.0,1.0,phase_2,go,500.0,500.0,1.0,,,,,,,,,orange,circle
0.0,4.0,4.0,0.0,6.0,6.0,567.6724750001085,7.0,1.0,phase_2,go,500.0,500.0,1.0,,,,,,,,,white,cross
0.0,7.0,3.0,1.0,5.0,5.0,686.2395010002729,7.0,1.0,phase_2,stop,500.0,500.0,3.0,,,,,,,,,cyan,square
0.0,4.0,4.0,0.0,5.0,5.0,779.5244139997521,7.0,1.0,phase_2,go,450.0,500.0,1.0,,,,,,,,,white,cross
0.0,2.0,2.0,0.0,5.0,5.0,993.0485439999755,7.0,1.0,phase_2,go,450.0,500.0,1.0,,,,,,,,,blue,hexagon
0.0,7.0,3.0,1.0,6.0,6.0,608.1836570001542,7.0,1.0,phase_2,stop,450.0,500.0,3.0,,,,,,,,,cyan,square
0.0,3.0,3.0,0.0,6.0,6.0,640.5382800003281,7.0,1.0,phase_2,go,450.0,450.0,1.0,,,,,,,,,yellow,flipped triangle
0.0,8.0,4.0,1.0,6.0,6.0,668.5584810002183,7.0,1.0,phase_2,go,450.0,450.0,1.0,,,,,,,,,green,I
0.0,8.0,4.0,1.0,5.0,0.0,0.0,7.0,1.0,phase_2,stop,450.0,450.0,4.0,,,,,,,,,green,I
0.0,3.0,3.0,0.0,6.0,6.0,617.0188329997472,7.0,1.0,phase_2,go,500.0,450.0,1.0,,,,,,,,,yellow,flipped triangle
0.0,8.0,4.0,1.0,6.0,0.0,0.0,7.0,1.0,phase_2,stop,500.0,450.0,4.0,,,,,,,,,green,I
0.0,4.0,4.0,0.0,6.0,6.0,639.1916959992159,7.0,1.0,phase_2,go,500.0,500.0,1.0,,,,,,,,,white,cross
0.0,8.0,4.0,1.0,6.0,6.0,629.4140609998067,7.0,1.0,phase_2,stop,500.0,500.0,3.0,,,,,,,,,green,I
0.0,2.0,2.0,0.0,6.0,6.0,749.9196549997578,7.0,1.0,phase_2,go,500.0,450.0,1.0,,,,,,,,,blue,hexagon
0.0,3.0,3.0,0.0,5.0,5.0,786.3530620006713,7.0,1.0,phase_2,go,500.0,450.0,1.0,,,,,,,,,yellow,flipped triangle
0.0,4.0,4.0,0.0,5.0,5.0,346.8539109999256,7.0,1.0,phase_2,go,500.0,450.0,1.0,,,,,,,,,white,cross
0.0,5.0,1.0,1.0,5.0,5.0,676.2227110002641,7.0,1.0,phase_2,go,500.0,450.0,1.0,,,,,,,,,gray,diamond
0.0,8.0,4.0,1.0,5.0,0.0,0.0,7.0,1.0,phase_2,stop,500.0,450.0,4.0,,,,,,,,,green,I
0.0,3.0,3.0,0.0,5.0,5.0,634.4046630001685,7.0,1.0,phase_2,go,550.0,450.0,1.0,,,,,,,,,yellow,flipped triangle
0.0,3.0,3.0,0.0,5.0,5.0,503.96221299979516,8.0,1.0,phase_2,go,550.0,450.0,1.0,,,,,,,,,yellow,flipped triangle
0.0,1.0,1.0,0.0,6.0,6.0,502.74258500030555,8.0,1.0,phase_2,go,550.0,450.0,1.0,,,,,,,,,orange,circle
0.0,7.0,3.0,1.0,6.0,6.0,493.7208040000769,8.0,1.0,phase_2,stop,550.0,450.0,3.0,,,,,,,,,cyan,square
0.0,7.0,3.0,1.0,5.0,5.0,589.5442900000489,8.0,1.0,phase_2,stop,550.0,400.0,3.0,,,,,,,,,cyan,square
0.0,2.0,2.0,0.0,6.0,6.0,633.1778350004242,8.0,1.0,phase_2,go,500.0,400.0,1.0,,,,,,,,,blue,hexagon
0.0,8.0,4.0,1.0,6.0,6.0,641.3569370006371,8.0,1.0,phase_2,go,500.0,400.0,1.0,,,,,,,,,green,I
0.0,3.0,3.0,0.0,5.0,5.0,589.171270999941,8.0,1.0,phase_2,go,500.0,400.0,1.0,,,,,,,,,yellow,flipped triangle
0.0,6.0,2.0,1.0,5.0,5.0,593.9346639997893,8.0,1.0,phase_2,stop,500.0,400.0,3.0,,,,,,,,,magenta,triangle
0.0,4.0,4.0,0.0,6.0,6.0,577.0742539998537,8.0,1.0,phase_2,go,450.0,400.0,1.0,,,,,,,,,white,cross
0.0,3.0,3.0,0.0,5.0,5.0,625.0113520000014,8.0,1.0,phase_2,go,450.0,400.0,1.0,,,,,,,,,yellow,flipped triangle
0.0,5.0,1.0,1.0,5.0,0.0,0.0,8.0,1.0,phase_2,stop,450.0,400.0,4.0,,,,,,,,,gray,diamond
0.0,7.0,3.0,1.0,6.0,0.0,0.0,8.0,1.0,phase_2,stop,500.0,400.0,4.0,,,,,,,,,cyan,square
0.0,3.0,3.0,0.0,5.0,5.0,647.944379999899,8.0,1.0,phase_2,go,500.0,450.0,1.0,,,,,,,,,yellow,flipped triangle
0.0,2.0,2.0,0.0,6.0,6.0,602.6787239998157,8.0,1.0,phase_2,go,500.0,450.0,1.0,,,,,,,,,blue,hexagon
0.0,4.0,4.0,0.0,6.0,6.0,829.3246719995295,8.0,1.0,phase_2,go,500.0,450.0,1.0,,,,,,,,,white,cross
0.0,6.0,2.0,1.0,5.0,5.0,587.7008199995544,8.0,1.0,phase_2,stop,500.0,450.0,3.0,,,,,,,,,magenta,triangle
0.0,2.0,2.0,0.0,6.0,6.0,615.4407289996016,8.0,1.0,phase_2,go,450.0,450.0,1.0,,,,,,,,,blue,hexagon
0.0,2.0,2.0,0.0,6.0,6.0,750.4423950003911,8.0,1.0,phase_2,go,450.0,450.0,1.0,,,,,,,,,blue,hexagon
0.0,2.0,2.0,0.0,5.0,5.0,752.0622120000553,8.0,1.0,phase_2,go,450.0,450.0,1.0,,,,,,,,,blue,hexagon
0.0,5.0,1.0,1.0,5.0,0.0,0.0,8.0,1.0,phase_2,stop,450.0,450.0,4.0,,,,,,,,,gray,diamond
0.0,2.0,2.0,0.0,5.0,5.0,700.1049339996825,8.0,1.0,phase_2,go,500.0,450.0,1.0,,,,,,,,,blue,hexagon
0.0,1.0,1.0,0.0,5.0,5.0,815.0573200000508,8.0,1.0,phase_2,go,500.0,450.0,1.0,,,,,,,,,orange,circle
0.0,1.0,1.0,0.0,6.0,6.0,710.379594999722,8.0,1.0,phase_2,go,500.0,450.0,1.0,,,,,,,,,orange,circle
0.0,7.0,3.0,1.0,6.0,6.0,626.6262780000034,8.0,1.0,phase_2,go,500.0,450.0,1.0,,,,,,,,,cyan,square
0.0,5.0,1.0,1.0,6.0,0.0,0.0,8.0,1.0,phase_2,stop,500.0,450.0,4.0,,,,,,,,,gray,diamond
0.0,7.0,3.0,1.0,6.0,6.0,594.8068729994702,8.0,1.0,phase_2,stop,500.0,500.0,3.0,,,,,,,,,cyan,square
0.0,1.0,1.0,0.0,5.0,5.0,784.258635999322,8.0,1.0,phase_2,go,500.0,450.0,1.0,,,,,,,,,orange,circle
0.0,8.0,4.0,1.0,6.0,6.0,662.8787419995206,8.0,1.0,phase_2,go,500.0,450.0,1.0,,,,,,,,,green,I
0.0,8.0,4.0,1.0,6.0,6.0,582.5859960004891,8.0,1.0,phase_2,stop,500.0,450.0,3.0,,,,,,,,,green,I
0.0,3.0,3.0,0.0,6.0,6.0,573.8218370006507,8.0,1.0,phase_2,go,500.0,400.0,1.0,,,,,,,,,yellow,flipped triangle
0.0,6.0,2.0,1.0,5.0,5.0,522.2360739999203,8.0,1.0,phase_2,go,500.0,400.0,1.0,,,,,,,,,magenta,triangle
0.0,6.0,2.0,1.0,5.0,5.0,365.2568099996642,8.0,1.0,phase_2,go,500.0,400.0,1.0,,,,,,,,,magenta,triangle
0.0,8.0,4.0,1.0,5.0,5.0,412.5553379999473,8.0,1.0,phase_2,stop,500.0,400.0,3.0,,,,,,,,,green,I
0.0,8.0,4.0,1.0,5.0,5.0,581.6167660004794,8.0,1.0,phase_2,stop,450.0,400.0,3.0,,,,,,,,,green,I
0.0,3.0,3.0,0.0,6.0,6.0,635.1717420002387,8.0,1.0,phase_2,go,400.0,400.0,1.0,,,,,,,,,yellow,flipped triangle
0.0,2.0,2.0,0.0,5.0,5.0,562.9908520004392,8.0,1.0,phase_2,go,400.0,400.0,1.0,,,,,,,,,blue,hexagon
0.0,4.0,4.0,0.0,7.0,1.0,4781.227653999849,1.0,1.0,phase_3,,,,,102.0,3.0,102.0,170.0,34.0,68.0,204.0,136.0,white,cross
0.0,5.0,1.0,1.0,7.0,5.0,1480.241635999846,1.0,2.0,phase_3,,,,,39.0,1.0,78.0,117.0,234.0,156.0,39.0,195.0,gray,diamond
0.0,3.0,3.0,0.0,7.0,3.0,2865.47517300005,1.0,1.0,phase_3,,,,,216.0,4.0,324.0,162.0,216.0,54.0,108.0,270.0,yellow,flipped triangle
0.0,3.0,3.0,0.0,7.0,1.0,2749.447021999913,1.0,1.0,phase_3,,,,,245.0,5.0,245.0,49.0,98.0,147.0,294.0,196.0,yellow,flipped triangle
0.0,4.0,4.0,0.0,7.0,4.0,2885.3233279996857,1.0,1.0,phase_3,,,,,108.0,2.0,54.0,270.0,162.0,108.0,216.0,324.0,white,cross
0.0,8.0,4.0,1.0,7.0,6.0,2794.0432639998107,1.0,1.0,phase_3,,,,,176.0,4.0,88.0,220.0,264.0,44.0,132.0,176.0,green,I
0.0,7.0,3.0,1.0,7.0,2.0,3482.71879099957,1.0,1.0,phase_3,,,,,220.0,5.0,88.0,220.0,176.0,264.0,132.0,44.0,cyan,square
0.0,3.0,3.0,0.0,7.0,1.0,2472.7117280008315,1.0,1.0,phase_3,,,,,132.0,3.0,132.0,44.0,88.0,264.0,220.0,176.0,yellow,flipped triangle
0.0,7.0,3.0,1.0,7.0,6.0,3053.932895999424,1.0,1.0,phase_3,,,,,102.0,3.0,136.0,170.0,204.0,34.0,68.0,102.0,cyan,square
0.0,6.0,2.0,1.0,7.0,1.0,2876.057327000126,1.0,1.0,phase_3,,,,,220.0,5.0,220.0,176.0,88.0,132.0,264.0,44.0,magenta,triangle
0.0,1.0,1.0,0.0,7.0,5.0,3874.062887000037,1.0,1.0,phase_3,,,,,68.0,2.0,136.0,204.0,170.0,102.0,68.0,34.0,orange,circle
0.0,4.0,4.0,0.0,7.0,2.0,1659.4814959998985,1.0,1.0,phase_3,,,,,220.0,5.0,88.0,220.0,264.0,44.0,132.0,176.0,white,cross
0.0,8.0,4.0,1.0,7.0,6.0,3100.022249000176,1.0,1.0,phase_3,,,,,204.0,6.0,102.0,136.0,34.0,170.0,68.0,204.0,green,I
0.0,5.0,1.0,1.0,7.0,2.0,2126.4569690001736,1.0,1.0,phase_3,,,,,98.0,2.0,49.0,98.0,196.0,147.0,294.0,245.0,gray,diamond
0.0,7.0,3.0,1.0,7.0,3.0,2217.375641000217,1.0,1.0,phase_3,,,,,204.0,6.0,102.0,34.0,204.0,136.0,68.0,170.0,cyan,square
0.0,1.0,1.0,0.0,7.0,6.0,1959.60545700018,1.0,1.0,phase_3,,,,,68.0,2.0,204.0,170.0,136.0,102.0,34.0,68.0,orange,circle
0.0,2.0,2.0,0.0,7.0,4.0,1905.5035789997416,1.0,1.0,phase_3,,,,,176.0,4.0,44.0,220.0,88.0,176.0,264.0,132.0,blue,hexagon
0.0,7.0,3.0,1.0,7.0,6.0,2192.3011609997047,1.0,1.0,phase_3,,,,,216.0,4.0,54.0,108.0,270.0,162.0,324.0,216.0,cyan,square
0.0,3.0,3.0,0.0,7.0,3.0,1456.897554000534,1.0,1.0,phase_3,,,,,68.0,2.0,170.0,34.0,68.0,136.0,102.0,204.0,yellow,flipped triangle
0.0,2.0,2.0,0.0,7.0,3.0,3296.539357999791,1.0,1.0,phase_3,,,,,162.0,3.0,216.0,54.0,162.0,108.0,324.0,270.0,blue,hexagon
0.0,6.0,2.0,1.0,7.0,1.0,1727.2305739998046,2.0,1.0,phase_3,,,,,216.0,4.0,216.0,108.0,270.0,324.0,162.0,54.0,magenta,triangle
0.0,8.0,4.0,1.0,7.0,5.0,1680.348208000396,2.0,1.0,phase_3,,,,,117.0,3.0,39.0,195.0,156.0,234.0,117.0,78.0,green,I
0.0,8.0,4.0,1.0,7.0,4.0,2477.523182999903,2.0,1.0,phase_3,,,,,136.0,4.0,68.0,170.0,204.0,136.0,102.0,34.0,green,I
0.0,4.0,4.0,0.0,7.0,5.0,2128.758292999919,2.0,1.0,phase_3,,,,,102.0,3.0,136.0,68.0,204.0,34.0,102.0,170.0,white,cross
0.0,5.0,1.0,1.0,7.0,2.0,1341.663848999815,2.0,1.0,phase_3,,,,,44.0,1.0,132.0,44.0,264.0,88.0,220.0,176.0,gray,diamond
0.0,5.0,1.0,1.0,7.0,5.0,1277.309821000017,2.0,1.0,phase_3,,,,,54.0,1.0,270.0,324.0,162.0,216.0,54.0,108.0,gray,diamond
0.0,5.0,1.0,1.0,7.0,6.0,1307.2651790007512,2.0,1.0,phase_3,,,,,68.0,2.0,136.0,204.0,34.0,170.0,102.0,68.0,gray,diamond
0.0,2.0,2.0,0.0,7.0,2.0,2784.109663999516,2.0,1.0,phase_3,,,,,132.0,3.0,44.0,132.0,264.0,220.0,88.0,176.0,blue,hexagon
0.0,6.0,2.0,1.0,7.0,5.0,981.364911000128,2.0,1.0,phase_3,,,,,170.0,5.0,102.0,204.0,34.0,136.0,170.0,68.0,magenta,triangle
0.0,8.0,4.0,1.0,7.0,2.0,2173.254641999847,2.0,1.0,phase_3,,,,,162.0,3.0,108.0,162.0,324.0,270.0,216.0,54.0,green,I
0.0,7.0,3.0,1.0,7.0,4.0,1415.0118009993091,2.0,1.0,phase_3,,,,,195.0,5.0,117.0,156.0,234.0,195.0,78.0,39.0,cyan,square
0.0,8.0,4.0,1.0,7.0,5.0,2851.1986240000624,2.0,1.0,phase_3,,,,,195.0,5.0,117.0,78.0,234.0,156.0,195.0,39.0,green,I
0.0,6.0,2.0,1.0,7.0,1.0,1782.3435250002149,2.0,1.0,phase_3,,,,,234.0,6.0,234.0,78.0,195.0,156.0,39.0,117.0,magenta,triangle
0.0,6.0,2.0,1.0,7.0,6.0,1180.5283180001425,2.0,1.0,phase_3,,,,,216.0,4.0,162.0,324.0,270.0,108.0,54.0,216.0,magenta,triangle
0.0,5.0,1.0,1.0,7.0,2.0,1268.186662000517,2.0,1.0,phase_3,,,,,98.0,2.0,196.0,98.0,294.0,147.0,245.0,49.0,gray,diamond
0.0,6.0,2.0,1.0,7.0,4.0,1255.9814570004164,2.0,1.0,phase_3,,,,,196.0,4.0,147.0,245.0,98.0,196.0,294.0,49.0,magenta,triangle
0.0,1.0,1.0,0.0,7.0,4.0,1906.994298000427,2.0,1.0,phase_3,,,,,39.0,1.0,234.0,78.0,156.0,39.0,195.0,117.0,orange,circle
0.0,1.0,1.0,0.0,7.0,3.0,1626.8451490004736,2.0,1.0,phase_3,,,,,44.0,1.0,176.0,88.0,44.0,220.0,264.0,132.0,orange,circle
0.0,3.0,3.0,0.0,7.0,2.0,2575.56712800033,2.0,1.0,phase_3,,,,,108.0,2.0,324.0,108.0,54.0,162.0,270.0,216.0,yellow,flipped triangle
0.0,7.0,3.0,1.0,7.0,2.0,2203.667463999409,2.0,1.0,phase_3,,,,,196.0,4.0,294.0,196.0,49.0,245.0,147.0,98.0,cyan,square
0.0,4.0,4.0,0.0,7.0,6.0,1019.4440029999896,3.0,1.0,phase_3,,,,,98.0,2.0,294.0,245.0,147.0,49.0,196.0,98.0,white,cross
0.0,2.0,2.0,0.0,7.0,1.0,1581.3532479996866,3.0,1.0,phase_3,,,,,196.0,4.0,196.0,147.0,49.0,245.0,294.0,98.0,blue,hexagon
0.0,2.0,2.0,0.0,7.0,1.0,2348.3717420003813,3.0,1.0,phase_3,,,,,204.0,6.0,204.0,170.0,34.0,68.0,136.0,102.0,blue,hexagon
0.0,3.0,3.0,0.0,7.0,3.0,2132.7212790001795,3.0,1.0,phase_3,,,,,117.0,3.0,234.0,156.0,117.0,195.0,78.0,39.0,yellow,flipped triangle
0.0,7.0,3.0,1.0,7.0,6.0,1299.608643000283,3.0,1.0,phase_3,,,,,216.0,4.0,270.0,54.0,324.0,162.0,108.0,216.0,cyan,square
0.0,3.0,3.0,0.0,7.0,2.0,736.8689510003605,3.0,1.0,phase_3,,,,,156.0,4.0,195.0,156.0,39.0,117.0,234.0,78.0,yellow,flipped triangle
0.0,1.0,1.0,0.0,7.0,2.0,1788.6397120000763,3.0,1.0,phase_3,,,,,54.0,1.0,108.0,54.0,270.0,324.0,162.0,216.0,orange,circle
0.0,2.0,2.0,0.0,7.0,5.0,1839.7986429999944,3.0,1.0,phase_3,,,,,216.0,4.0,324.0,108.0,162.0,54.0,216.0,270.0,blue,hexagon
0.0,3.0,3.0,0.0,7.0,1.0,929.0036709999184,3.0,1.0,phase_3,,,,,220.0,5.0,220.0,264.0,44.0,176.0,132.0,88.0,yellow,flipped triangle
0.0,4.0,4.0,0.0,7.0,6.0,1466.597037999236,3.0,1.0,phase_3,,,,,117.0,3.0,78.0,234.0,195.0,39.0,156.0,117.0,white,cross
0.0,6.0,2.0,1.0,7.0,2.0,916.274162999798,3.0,1.0,phase_3,,,,,220.0,5.0,176.0,220.0,132.0,88.0,44.0,264.0,magenta,triangle
0.0,7.0,3.0,1.0,7.0,6.0,1939.723307999884,3.0,1.0,phase_3,,,,,195.0,5.0,156.0,234.0,117.0,39.0,78.0,195.0,cyan,square
0.0,4.0,4.0,0.0,7.0,3.0,2284.814681999705,3.0,1.0,phase_3,,,,,132.0,3.0,44.0,176.0,132.0,220.0,264.0,88.0,white,cross
0.0,1.0,1.0,0.0,7.0,5.0,1593.992872999479,3.0,1.0,phase_3,,,,,88.0,2.0,44.0,264.0,132.0,220.0,88.0,176.0,orange,circle
0.0,1.0,1.0,0.0,7.0,1.0,1082.2974400007297,3.0,1.0,phase_3,,,,,108.0,2.0,108.0,270.0,162.0,216.0,324.0,54.0,orange,circle
0.0,8.0,4.0,1.0,7.0,4.0,2990.0729239998327,3.0,1.0,phase_3,,,,,147.0,3.0,196.0,294.0,98.0,147.0,49.0,245.0,green,I
0.0,6.0,2.0,1.0,7.0,1.0,1208.5690710000565,3.0,1.0,phase_3,,,,,195.0,5.0,195.0,78.0,117.0,39.0,156.0,234.0,magenta,triangle
0.0,4.0,4.0,0.0,7.0,5.0,1043.2886930002496,3.0,1.0,phase_3,,,,,108.0,2.0,54.0,270.0,324.0,216.0,108.0,162.0,white,cross
0.0,2.0,2.0,0.0,7.0,3.0,1844.5877000003748,3.0,1.0,phase_3,,,,,170.0,5.0,34.0,136.0,170.0,68.0,102.0,204.0,blue,hexagon
0.0,1.0,1.0,0.0,7.0,3.0,2419.706247999784,3.0,1.0,phase_3,,,,,49.0,1.0,196.0,98.0,49.0,245.0,294.0,147.0,orange,circle
0.0,2.0,2.0,0.0,7.0,6.0,1374.570398999822,4.0,1.0,phase_3,,,,,195.0,5.0,78.0,156.0,39.0,234.0,117.0,195.0,blue,hexagon
0.0,1.0,1.0,0.0,7.0,3.0,1309.6137980001004,4.0,1.0,phase_3,,,,,98.0,2.0,147.0,245.0,98.0,294.0,49.0,196.0,orange,circle
0.0,2.0,2.0,0.0,7.0,3.0,1784.878495999692,4.0,1.0,phase_3,,,,,156.0,4.0,117.0,39.0,156.0,78.0,234.0,195.0,blue,hexagon
0.0,7.0,3.0,1.0,7.0,2.0,2213.983826999538,4.0,1.0,phase_3,,,,,294.0,6.0,245.0,294.0,147.0,49.0,98.0,196.0,cyan,square
0.0,8.0,4.0,1.0,7.0,4.0,1911.237133999748,4.0,1.0,phase_3,,,,,196.0,4.0,294.0,245.0,49.0,196.0,98.0,147.0,green,I
0.0,1.0,1.0,0.0,7.0,3.0,1729.1113649998806,4.0,1.0,phase_3,,,,,78.0,2.0,234.0,39.0,78.0,117.0,195.0,156.0,orange,circle
0.0,7.0,3.0,1.0,7.0,6.0,1494.8216660004618,4.0,1.0,phase_3,,,,,220.0,5.0,132.0,176.0,264.0,44.0,88.0,220.0,cyan,square
0.0,5.0,1.0,1.0,7.0,1.0,1834.2086359998573,4.0,1.0,phase_3,,,,,102.0,3.0,102.0,68.0,204.0,170.0,136.0,34.0,gray,diamond
0.0,5.0,1.0,1.0,7.0,5.0,1344.2699440001888,4.0,1.0,phase_3,,,,,88.0,2.0,264.0,176.0,220.0,44.0,88.0,132.0,gray,diamond
0.0,8.0,4.0,1.0,7.0,5.0,1596.4115460001267,4.0,1.0,phase_3,,,,,216.0,4.0,270.0,162.0,54.0,324.0,216.0,108.0,green,I
0.0,3.0,3.0,0.0,7.0,6.0,1398.953805999554,4.0,1.0,phase_3,,,,,102.0,3.0,68.0,34.0,204.0,170.0,136.0,102.0,yellow,flipped triangle
0.0,3.0,3.0,0.0,7.0,4.0,2038.599597000029,4.0,1.0,phase_3,,,,,98.0,2.0,49.0,196.0,294.0,98.0,245.0,147.0,yellow,flipped triangle
0.0,6.0,2.0,1.0,7.0,4.0,1909.7918059997028,4.0,1.0,phase_3,,,,,245.0,5.0,147.0,98.0,294.0,245.0,196.0,49.0,magenta,triangle
0.0,4.0,4.0,0.0,7.0,2.0,1150.123295999947,4.0,1.0,phase_3,,,,,39.0,1.0,156.0,39.0,117.0,195.0,234.0,78.0,white,cross
0.0,6.0,2.0,1.0,7.0,4.0,1701.0873760000322,4.0,1.0,phase_3,,,,,204.0,6.0,136.0,170.0,34.0,204.0,68.0,102.0,magenta,triangle
0.0,4.0,4.0,0.0,7.0,2.0,2132.6455369999167,4.0,1.0,phase_3,,,,,98.0,2.0,245.0,98.0,147.0,196.0,49.0,294.0,white,cross
0.0,5.0,1.0,1.0,7.0,6.0,2093.393608999577,4.0,1.0,phase_3,,,,,108.0,2.0,324.0,270.0,54.0,216.0,162.0,108.0,gray,diamond
0.0,2.0,2.0,0.0,7.0,3.0,1551.2431859997378,4.0,1.0,phase_3,,,,,196.0,4.0,98.0,49.0,196.0,147.0,245.0,294.0,blue,hexagon
0.0,8.0,4.0,1.0,7.0,6.0,988.929778000056,4.0,1.0,phase_3,,,,,132.0,3.0,220.0,44.0,176.0,264.0,88.0,132.0,green,I
0.0,5.0,1.0,1.0,7.0,1.0,970.2614369998628,4.0,1.0,phase_3,,,,,156.0,4.0,156.0,234.0,195.0,117.0,39.0,78.0,gray,diamond
