raw_reward_magnitude,stim_reward,stepwise_reward_magnitude,paired_with_stopping,stim_location,response,reaction_time,block,num_trial_presentations,which_phase,stop_signal_trial_type,left_SSD,right_SSD,accuracy,chosen_bidding_amount,chosen_bidding_level,possible_bid_1,possible_bid_2,possible_bid_3,possible_bid_4,possible_bid_5,possible_bid_6,color_text,shape_text
0.0,5.0,0.0,1.0,2.0,2.0,345.4237519999878,1.0,1.0,phase_1,,,,,,,,,,,,,cyan,diamond
396.0,4.0,4.0,0.0,3.0,3.0,428.7205329999324,1.0,1.0,phase_1,,,,,,,,,,,,,magenta,I
75.0,1.0,0.5,0.0,3.0,3.0,473.8339240000186,1.0,1.0,phase_1,,,,,,,,,,,,,gray,circle
197.0,3.0,2.0,0.0,2.0,2.0,367.5527209998108,1.0,1.0,phase_1,,,,,,,,,,,,,yellow,cross
189.0,7.0,2.0,1.0,2.0,2.0,354.5948959999805,1.0,1.0,phase_1,,,,,,,,,,,,,blue,square
105.0,6.0,1.0,1.0,2.0,2.0,427.5200060001225,1.0,1.0,phase_1,,,,,,,,,,,,,white,flipped triangle
73.0,5.0,0.5,1.0,1.0,1.0,342.8451060001407,1.0,1.0,phase_1,,,,,,,,,,,,,cyan,diamond
66.0,5.0,0.5,1.0,1.0,1.0,366.5784849999909,1.0,1.0,phase_1,,,,,,,,,,,,,cyan,diamond
0.0,2.0,0.0,0.0,2.0,2.0,416.6700880000462,1.0,1.0,phase_1,,,,,,,,,,,,,green,hexagon
0.0,5.0,0.0,1.0,3.0,3.0,407.1167130000503,1.0,1.0,phase_1,,,,,,,,,,,,,cyan,diamond
70.0,1.0,0.5,0.0,4.0,4.0,463.8850429998911,1.0,1.0,phase_1,,,,,,,,,,,,,gray,circle
42.0,1.0,0.5,0.0,1.0,1.0,312.0115029998942,1.0,1.0,phase_1,,,,,,,,,,,,,gray,circle
114.0,6.0,1.0,1.0,1.0,1.0,390.1446610000221,1.0,1.0,phase_1,,,,,,,,,,,,,white,flipped triangle
37.0,5.0,0.5,1.0,2.0,2.0,291.6157869999551,1.0,1.0,phase_1,,,,,,,,,,,,,cyan,diamond
416.0,8.0,4.0,1.0,1.0,1.0,302.6739399999769,1.0,1.0,phase_1,,,,,,,,,,,,,orange,triangle
400.0,8.0,4.0,1.0,3.0,3.0,360.5792139999266,1.0,1.0,phase_1,,,,,,,,,,,,,orange,triangle
115.0,2.0,1.0,0.0,2.0,2.0,383.0181450000509,1.0,1.0,phase_1,,,,,,,,,,,,,green,hexagon
203.0,3.0,2.0,0.0,2.0,2.0,402.0840980001594,1.0,1.0,phase_1,,,,,,,,,,,,,yellow,cross
182.0,3.0,2.0,0.0,4.0,4.0,401.5069140000378,1.0,1.0,phase_1,,,,,,,,,,,,,yellow,cross
42.0,5.0,0.5,1.0,4.0,4.0,386.893715000042,1.0,1.0,phase_1,,,,,,,,,,,,,cyan,diamond
386.0,4.0,4.0,0.0,4.0,4.0,405.089554999904,1.0,1.0,phase_1,,,,,,,,,,,,,magenta,I
385.0,4.0,4.0,0.0,3.0,3.0,436.5649769999891,1.0,1.0,phase_1,,,,,,,,,,,,,magenta,I
390.0,4.0,4.0,0.0,4.0,4.0,435.9632260000126,1.0,1.0,phase_1,,,,,,,,,,,,,magenta,I
61.0,1.0,0.5,0.0,2.0,2.0,410.0831200000812,1.0,1.0,phase_1,,,,,,,,,,,,,gray,circle
66.0,1.0,0.5,0.0,4.0,4.0,365.8252479999646,1.0,1.0,phase_1,,,,,,,,,,,,,gray,circle
114.0,2.0,1.0,0.0,2.0,2.0,393.1476879999991,1.0,1.0,phase_1,,,,,,,,,,,,,green,hexagon
102.0,2.0,1.0,0.0,2.0,2.0,428.6534809998557,1.0,1.0,phase_1,,,,,,,,,,,,,green,hexagon
53.0,1.0,0.5,0.0,1.0,1.0,386.2867619998269,1.0,1.0,phase_1,,,,,,,,,,,,,gray,circle
0.0,2.0,0.0,0.0,3.0,3.0,351.6162590001386,1.0,1.0,phase_1,,,,,,,,,,,,,green,hexagon
375.0,4.0,4.0,0.0,1.0,1.0,393.4216790000846,1.0,1.0,phase_1,,,,,,,,,,,,,magenta,I
119.0,2.0,1.0,0.0,2.0,2.0,358.8815849998354,1.0,1.0,phase_1,,,,,,,,,,,,,green,hexagon
109.0,6.0,1.0,1.0,2.0,2.0,360.2880930000083,1.0,1.0,phase_1,,,,,,,,,,,,,white,flipped triangle
30.0,1.0,0.5,0.0,2.0,2.0,386.7863699999816,1.0,1.0,phase_1,,,,,,,,,,,,,gray,circle
177.0,7.0,2.0,1.0,4.0,4.0,328.410391000034,1.0,1.0,phase_1,,,,,,,,,,,,,blue,square
91.0,6.0,1.0,1.0,2.0,2.0,328.9466399999128,1.0,1.0,phase_1,,,,,,,,,,,,,white,flipped triangle
75.0,5.0,0.5,1.0,4.0,4.0,370.9272470000542,1.0,1.0,phase_1,,,,,,,,,,,,,cyan,diamond
400.0,4.0,4.0,0.0,2.0,2.0,374.0478999998231,1.0,1.0,phase_1,,,,,,,,,,,,,magenta,I
48.0,1.0,0.5,0.0,3.0,3.0,418.0051979999462,1.0,1.0,phase_1,,,,,,,,,,,,,gray,circle
185.0,7.0,2.0,1.0,1.0,1.0,285.2452239999365,1.0,1.0,phase_1,,,,,,,,,,,,,blue,square
216.0,7.0,2.0,1.0,3.0,3.0,426.711135000005,1.0,1.0,phase_1,,,,,,,,,,,,,blue,square
398.0,4.0,4.0,0.0,1.0,1.0,349.9488149998342,1.0,1.0,phase_1,,,,,,,,,,,,,magenta,I
116.0,2.0,1.0,0.0,4.0,4.0,353.2883600000787,1.0,1.0,phase_1,,,,,,,,,,,,,green,hexagon
204.0,3.0,2.0,0.0,2.0,2.0,309.159758000078,1.0,1.0,phase_1,,,,,,,,,,,,,yellow,cross
0.0,6.0,0.0,1.0,3.0,3.0,366.8372479999107,1.0,1.0,phase_1,,,,,,,,,,,,,white,flipped triangle
0.0,2.0,0.0,0.0,4.0,4.0,417.3246020000078,1.0,1.0,phase_1,,,,,,,,,,,,,green,hexagon
34.0,1.0,0.5,0.0,1.0,1.0,304.6161319998646,1.0,1.0,phase_1,,,,,,,,,,,,,gray,circle
54.0,5.0,0.5,1.0,3.0,3.0,381.2371279998388,1.0,1.0,phase_1,,,,,,,,,,,,,cyan,diamond
183.0,7.0,2.0,1.0,4.0,4.0,317.2816619999139,1.0,1.0,phase_1,,,,,,,,,,,,,blue,square
203.0,7.0,2.0,1.0,2.0,2.0,330.89852200009767,1.0,1.0,phase_1,,,,,,,,,,,,,blue,square
99.0,6.0,1.0,1.0,2.0,2.0,398.4153949998017,1.0,1.0,phase_1,,,,,,,,,,,,,white,flipped triangle
26.0,5.0,0.5,1.0,1.0,1.0,393.7574639999184,1.0,1.0,phase_1,,,,,,,,,,,,,cyan,diamond
66.0,1.0,0.5,0.0,2.0,2.0,374.158707000106,1.0,1.0,phase_1,,,,,,,,,,,,,gray,circle
81.0,6.0,1.0,1.0,4.0,4.0,416.4976909999041,1.0,1.0,phase_1,,,,,,,,,,,,,white,flipped triangle
415.0,4.0,4.0,0.0,1.0,1.0,432.4425749998681,1.0,1.0,phase_1,,,,,,,,,,,,,magenta,I
197.0,7.0,2.0,1.0,1.0,1.0,423.0137330000616,1.0,1.0,phase_1,,,,,,,,,,,,,blue,square
216.0,3.0,2.0,0.0,3.0,3.0,474.6120730001166,1.0,1.0,phase_1,,,,,,,,,,,,,yellow,cross
214.0,7.0,2.0,1.0,3.0,3.0,393.5051240000575,1.0,1.0,phase_1,,,,,,,,,,,,,blue,square
189.0,3.0,2.0,0.0,1.0,1.0,496.3454690000617,1.0,1.0,phase_1,,,,,,,,,,,,,yellow,cross
0.0,3.0,0.0,0.0,3.0,3.0,460.8287389999077,1.0,1.0,phase_1,,,,,,,,,,,,,yellow,cross
0.0,1.0,0.0,0.0,1.0,1.0,345.7714209998812,1.0,1.0,phase_1,,,,,,,,,,,,,gray,circle
414.0,4.0,4.0,0.0,1.0,1.0,381.6613579999739,1.0,1.0,phase_1,,,,,,,,,,,,,magenta,I
398.0,4.0,4.0,0.0,2.0,2.0,382.1318080001674,1.0,1.0,phase_1,,,,,,,,,,,,,magenta,I
176.0,7.0,2.0,1.0,4.0,4.0,336.750782000081,1.0,1.0,phase_1,,,,,,,,,,,,,blue,square
204.0,7.0,2.0,1.0,4.0,4.0,432.6328070001182,1.0,1.0,phase_1,,,,,,,,,,,,,blue,square
119.0,6.0,1.0,1.0,4.0,4.0,305.5791049998788,1.0,1.0,phase_1,,,,,,,,,,,,,white,flipped triangle
398.0,8.0,4.0,1.0,1.0,1.0,331.3508789999559,1.0,1.0,phase_1,,,,,,,,,,,,,orange,triangle
417.0,4.0,4.0,0.0,4.0,4.0,351.2688369999068,1.0,1.0,phase_1,,,,,,,,,,,,,magenta,I
212.0,7.0,2.0,1.0,4.0,4.0,358.9197910000621,1.0,1.0,phase_1,,,,,,,,,,,,,blue,square
190.0,3.0,2.0,0.0,2.0,2.0,365.253493000182,1.0,1.0,phase_1,,,,,,,,,,,,,yellow,cross
386.0,4.0,4.0,0.0,3.0,3.0,375.48903600009,1.0,1.0,phase_1,,,,,,,,,,,,,magenta,I
218.0,3.0,2.0,0.0,4.0,4.0,428.8440160000846,1.0,1.0,phase_1,,,,,,,,,,,,,yellow,cross
0.0,7.0,0.0,1.0,4.0,4.0,397.8062380001574,1.0,1.0,phase_1,,,,,,,,,,,,,blue,square
115.0,6.0,1.0,1.0,1.0,1.0,385.4955990000235,1.0,1.0,phase_1,,,,,,,,,,,,,white,flipped triangle
392.0,4.0,4.0,0.0,1.0,1.0,432.4758000000201,1.0,1.0,phase_1,,,,,,,,,,,,,magenta,I
0.0,1.0,0.0,0.0,3.0,3.0,407.1555959999386,1.0,1.0,phase_1,,,,,,,,,,,,,gray,circle
0.0,6.0,0.0,1.0,4.0,4.0,356.0002430001532,1.0,1.0,phase_1,,,,,,,,,,,,,white,flipped triangle
396.0,8.0,4.0,1.0,4.0,4.0,384.0819160000137,1.0,1.0,phase_1,,,,,,,,,,,,,orange,triangle
72.0,1.0,0.5,0.0,1.0,1.0,382.9848169998513,1.0,1.0,phase_1,,,,,,,,,,,,,gray,circle
400.0,8.0,4.0,1.0,2.0,2.0,355.0850520000495,1.0,1.0,phase_1,,,,,,,,,,,,,orange,triangle
397.0,4.0,4.0,0.0,1.0,1.0,350.5501569998159,1.0,1.0,phase_1,,,,,,,,,,,,,magenta,I
209.0,7.0,2.0,1.0,3.0,3.0,317.8571450000618,1.0,1.0,phase_1,,,,,,,,,,,,,blue,square
200.0,7.0,2.0,1.0,3.0,3.0,428.8220660000661,1.0,1.0,phase_1,,,,,,,,,,,,,blue,square
212.0,3.0,2.0,0.0,1.0,1.0,369.5936859999165,1.0,1.0,phase_1,,,,,,,,,,,,,yellow,cross
0.0,5.0,0.0,1.0,1.0,1.0,309.4559490000392,1.0,1.0,phase_1,,,,,,,,,,,,,cyan,diamond
410.0,4.0,4.0,0.0,2.0,2.0,348.4090300000844,1.0,1.0,phase_1,,,,,,,,,,,,,magenta,I
78.0,2.0,1.0,0.0,2.0,2.0,376.2092990000383,1.0,1.0,phase_1,,,,,,,,,,,,,green,hexagon
0.0,8.0,0.0,1.0,2.0,2.0,342.7811589999692,1.0,1.0,phase_1,,,,,,,,,,,,,orange,triangle
0.0,3.0,0.0,0.0,3.0,3.0,451.6722410000966,1.0,1.0,phase_1,,,,,,,,,,,,,yellow,cross
383.0,4.0,4.0,0.0,3.0,3.0,431.4746990000913,1.0,1.0,phase_1,,,,,,,,,,,,,magenta,I
81.0,2.0,1.0,0.0,4.0,4.0,428.1349939999472,1.0,1.0,phase_1,,,,,,,,,,,,,green,hexagon
176.0,3.0,2.0,0.0,1.0,1.0,294.3922970000585,1.0,1.0,phase_1,,,,,,,,,,,,,yellow,cross
186.0,7.0,2.0,1.0,1.0,1.0,347.4864830000115,1.0,1.0,phase_1,,,,,,,,,,,,,blue,square
222.0,3.0,2.0,0.0,4.0,4.0,386.8818270000247,1.0,1.0,phase_1,,,,,,,,,,,,,yellow,cross
42.0,1.0,0.5,0.0,2.0,2.0,344.0887930000826,1.0,1.0,phase_1,,,,,,,,,,,,,gray,circle
185.0,3.0,2.0,0.0,1.0,1.0,307.8965390000121,1.0,1.0,phase_1,,,,,,,,,,,,,yellow,cross
51.0,1.0,0.5,0.0,2.0,2.0,285.698037999964,1.0,1.0,phase_1,,,,,,,,,,,,,gray,circle
122.0,6.0,1.0,1.0,2.0,2.0,281.9024469999931,1.0,1.0,phase_1,,,,,,,,,,,,,white,flipped triangle
417.0,8.0,4.0,1.0,4.0,4.0,337.5083319999703,1.0,1.0,phase_1,,,,,,,,,,,,,orange,triangle
0.0,4.0,0.0,0.0,4.0,4.0,322.9154199998447,1.0,1.0,phase_1,,,,,,,,,,,,,magenta,I
0.0,7.0,0.0,1.0,2.0,2.0,368.9157070000419,1.0,1.0,phase_1,,,,,,,,,,,,,blue,square
85.0,2.0,1.0,0.0,4.0,4.0,419.8123450000821,2.0,1.0,phase_1,,,,,,,,,,,,,green,hexagon
119.0,6.0,1.0,1.0,3.0,3.0,402.4022470000545,2.0,1.0,phase_1,,,,,,,,,,,,,white,flipped triangle
48.0,5.0,0.5,1.0,1.0,1.0,293.0014139999457,2.0,1.0,phase_1,,,,,,,,,,,,,cyan,diamond
224.0,7.0,2.0,1.0,3.0,3.0,354.7534330000417,2.0,1.0,phase_1,,,,,,,,,,,,,blue,square
0.0,3.0,0.0,0.0,2.0,2.0,358.1989320000502,2.0,1.0,phase_1,,,,,,,,,,,,,yellow,cross
410.0,8.0,4.0,1.0,4.0,4.0,278.7053570000353,2.0,1.0,phase_1,,,,,,,,,,,,,orange,triangle
0.0,5.0,0.0,1.0,4.0,4.0,357.82220100009,2.0,1.0,phase_1,,,,,,,,,,,,,cyan,diamond
0.0,7.0,0.0,1.0,4.0,4.0,397.1899919999941,2.0,1.0,phase_1,,,,,,,,,,,,,blue,square
77.0,2.0,1.0,0.0,3.0,3.0,347.4638669999876,2.0,1.0,phase_1,,,,,,,,,,,,,green,hexagon
183.0,3.0,2.0,0.0,3.0,3.0,297.3184290001427,2.0,1.0,phase_1,,,,,,,,,,,,,yellow,cross
0.0,4.0,0.0,0.0,3.0,3.0,350.1056970001173,2.0,1.0,phase_1,,,,,,,,,,,,,magenta,I
0.0,1.0,0.0,0.0,3.0,3.0,305.706303000079,2.0,1.0,phase_1,,,,,,,,,,,,,gray,circle
29.0,1.0,0.5,0.0,4.0,4.0,336.78010299991,2.0,1.0,phase_1,,,,,,,,,,,,,gray,circle
196.0,3.0,2.0,0.0,2.0,2.0,389.2406970001048,2.0,1.0,phase_1,,,,,,,,,,,,,yellow,cross
0.0,4.0,0.0,0.0,4.0,4.0,346.5830780000942,2.0,1.0,phase_1,,,,,,,,,,,,,magenta,I
0.0,4.0,0.0,0.0,4.0,4.0,334.9353329999758,2.0,1.0,phase_1,,,,,,,,,,,,,magenta,I
37.0,1.0,0.5,0.0,2.0,2.0,393.8400460001503,2.0,1.0,phase_1,,,,,,,,,,,,,gray,circle
394.0,8.0,4.0,1.0,2.0,2.0,366.5302009999323,2.0,1.0,phase_1,,,,,,,,,,,,,orange,triangle
100.0,2.0,1.0,0.0,2.0,2.0,323.1217039999592,2.0,1.0,phase_1,,,,,,,,,,,,,green,hexagon
0.0,6.0,0.0,1.0,3.0,3.0,356.2476859999606,2.0,1.0,phase_1,,,,,,,,,,,,,white,flipped triangle
189.0,3.0,2.0,0.0,1.0,1.0,318.6332320001384,2.0,1.0,phase_1,,,,,,,,,,,,,yellow,cross
0.0,8.0,0.0,1.0,3.0,3.0,386.4510299999892,2.0,1.0,phase_1,,,,,,,,,,,,,orange,triangle
89.0,2.0,1.0,0.0,1.0,1.0,416.3809310000488,2.0,1.0,phase_1,,,,,,,,,,,,,green,hexagon
186.0,7.0,2.0,1.0,1.0,1.0,252.02214000000822,2.0,1.0,phase_1,,,,,,,,,,,,,blue,square
208.0,3.0,2.0,0.0,3.0,3.0,332.9390999999759,2.0,1.0,phase_1,,,,,,,,,,,,,yellow,cross
104.0,6.0,1.0,1.0,2.0,2.0,334.8405049998746,2.0,1.0,phase_1,,,,,,,,,,,,,white,flipped triangle
102.0,2.0,1.0,0.0,4.0,4.0,395.7904610001606,2.0,1.0,phase_1,,,,,,,,,,,,,green,hexagon
186.0,7.0,2.0,1.0,2.0,2.0,320.3981650001424,2.0,1.0,phase_1,,,,,,,,,,,,,blue,square
45.0,1.0,0.5,0.0,4.0,4.0,368.17124900017,2.0,1.0,phase_1,,,,,,,,,,,,,gray,circle
196.0,7.0,2.0,1.0,1.0,1.0,297.3023090000879,2.0,1.0,phase_1,,,,,,,,,,,,,blue,square
89.0,6.0,1.0,1.0,3.0,3.0,312.2361690000161,2.0,1.0,phase_1,,,,,,,,,,,,,white,flipped triangle
183.0,7.0,2.0,1.0,1.0,1.0,316.6758630000004,2.0,1.0,phase_1,,,,,,,,,,,,,blue,square
0.0,1.0,0.0,0.0,2.0,2.0,318.7906789999033,2.0,1.0,phase_1,,,,,,,,,,,,,gray,circle
220.0,7.0,2.0,1.0,3.0,3.0,407.8401949998351,2.0,1.0,phase_1,,,,,,,,,,,,,blue,square
120.0,2.0,1.0,0.0,4.0,4.0,364.7705039998072,2.0,1.0,phase_1,,,,,,,,,,,,,green,hexagon
0.0,6.0,0.0,1.0,1.0,1.0,288.6034210000616,2.0,1.0,phase_1,,,,,,,,,,,,,white,flipped triangle
0.0,6.0,0.0,1.0,4.0,4.0,320.9977649999018,2.0,1.0,phase_1,,,,,,,,,,,,,white,flipped triangle
77.0,6.0,1.0,1.0,1.0,1.0,330.3666899998916,2.0,1.0,phase_1,,,,,,,,,,,,,white,flipped triangle
91.0,2.0,1.0,0.0,1.0,1.0,396.97277100003697,2.0,1.0,phase_1,,,,,,,,,,,,,green,hexagon
72.0,5.0,0.5,1.0,2.0,2.0,294.4121650000397,2.0,1.0,phase_1,,,,,,,,,,,,,cyan,diamond
93.0,2.0,1.0,0.0,3.0,3.0,324.4459679999636,2.0,1.0,phase_1,,,,,,,,,,,,,green,hexagon
0.0,2.0,0.0,0.0,3.0,3.0,337.5901140000223,2.0,1.0,phase_1,,,,,,,,,,,,,green,hexagon
37.0,5.0,0.5,1.0,2.0,2.0,366.8187349999243,2.0,1.0,phase_1,,,,,,,,,,,,,cyan,diamond
196.0,7.0,2.0,1.0,2.0,2.0,352.7583669999785,2.0,1.0,phase_1,,,,,,,,,,,,,blue,square
83.0,6.0,1.0,1.0,3.0,3.0,321.0085660000459,2.0,1.0,phase_1,,,,,,,,,,,,,white,flipped triangle
0.0,4.0,0.0,0.0,2.0,2.0,323.9181830001598,2.0,1.0,phase_1,,,,,,,,,,,,,magenta,I
224.0,7.0,2.0,1.0,1.0,1.0,319.6551380001438,2.0,1.0,phase_1,,,,,,,,,,,,,blue,square
0.0,2.0,0.0,0.0,4.0,4.0,320.472134000056,2.0,1.0,phase_1,,,,,,,,,,,,,green,hexagon
112.0,6.0,1.0,1.0,1.0,1.0,342.5876660000995,2.0,1.0,phase_1,,,,,,,,,,,,,white,flipped triangle
0.0,8.0,0.0,1.0,1.0,1.0,354.5510710000599,2.0,1.0,phase_1,,,,,,,,,,,,,orange,triangle
75.0,5.0,0.5,1.0,4.0,4.0,374.4582819999777,2.0,1.0,phase_1,,,,,,,,,,,,,cyan,diamond
26.0,1.0,0.5,0.0,1.0,1.0,344.8894489999929,2.0,1.0,phase_1,,,,,,,,,,,,,gray,circle
0.0,8.0,0.0,1.0,4.0,4.0,440.0569639999503,2.0,1.0,phase_1,,,,,,,,,,,,,orange,triangle
70.0,5.0,0.5,1.0,4.0,4.0,343.788356999994,2.0,1.0,phase_1,,,,,,,,,,,,,cyan,diamond
87.0,2.0,1.0,0.0,3.0,3.0,346.2309080000523,2.0,1.0,phase_1,,,,,,,,,,,,,green,hexagon
105.0,2.0,1.0,0.0,3.0,3.0,368.3654660001139,2.0,1.0,phase_1,,,,,,,,,,,,,green,hexagon
176.0,3.0,2.0,0.0,1.0,1.0,356.6957620000721,2.0,1.0,phase_1,,,,,,,,,,,,,yellow,cross
0.0,7.0,0.0,1.0,2.0,2.0,394.6885600000769,2.0,1.0,phase_1,,,,,,,,,,,,,blue,square
64.0,1.0,0.5,0.0,2.0,2.0,374.3902339999749,2.0,1.0,phase_1,,,,,,,,,,,,,gray,circle
124.0,6.0,1.0,1.0,3.0,3.0,318.8377690000834,2.0,1.0,phase_1,,,,,,,,,,,,,white,flipped triangle
379.0,4.0,4.0,0.0,4.0,4.0,359.1431019999618,2.0,1.0,phase_1,,,,,,,,,,,,,magenta,I
176.0,7.0,2.0,1.0,4.0,4.0,415.8478100000593,2.0,1.0,phase_1,,,,,,,,,,,,,blue,square
91.0,6.0,1.0,1.0,3.0,3.0,433.4136740001213,2.0,1.0,phase_1,,,,,,,,,,,,,white,flipped triangle
0.0,6.0,0.0,1.0,3.0,3.0,370.760442999881,2.0,1.0,phase_1,,,,,,,,,,,,,white,flipped triangle
375.0,4.0,4.0,0.0,4.0,4.0,407.4637379999331,2.0,1.0,phase_1,,,,,,,,,,,,,magenta,I
0.0,7.0,0.0,1.0,1.0,1.0,324.0183180000713,2.0,1.0,phase_1,,,,,,,,,,,,,blue,square
220.0,3.0,2.0,0.0,3.0,3.0,393.5088550001637,2.0,1.0,phase_1,,,,,,,,,,,,,yellow,cross
184.0,3.0,2.0,0.0,3.0,3.0,416.4110469998832,2.0,1.0,phase_1,,,,,,,,,,,,,yellow,cross
401.0,8.0,4.0,1.0,2.0,2.0,356.0667469998861,2.0,1.0,phase_1,,,,,,,,,,,,,orange,triangle
424.0,4.0,4.0,0.0,2.0,2.0,323.7829960000908,2.0,1.0,phase_1,,,,,,,,,,,,,magenta,I
190.0,7.0,2.0,1.0,4.0,4.0,365.7149319999462,2.0,1.0,phase_1,,,,,,,,,,,,,blue,square
50.0,1.0,0.5,0.0,3.0,3.0,654.3111910000334,2.0,1.0,phase_1,,,,,,,,,,,,,gray,circle
50.0,5.0,0.5,1.0,1.0,1.0,358.3169010000802,2.0,1.0,phase_1,,,,,,,,,,,,,cyan,diamond
375.0,8.0,4.0,1.0,3.0,3.0,412.0448250000663,2.0,1.0,phase_1,,,,,,,,,,,,,orange,triangle
378.0,8.0,4.0,1.0,1.0,1.0,376.6545620001125,2.0,1.0,phase_1,,,,,,,,,,,,,orange,triangle
425.0,8.0,4.0,1.0,3.0,3.0,419.0667349998875,2.0,1.0,phase_1,,,,,,,,,,,,,orange,triangle
382.0,8.0,4.0,1.0,4.0,4.0,367.4167199999374,2.0,1.0,phase_1,,,,,,,,,,,,,orange,triangle
72.0,1.0,0.5,0.0,4.0,4.0,402.5903869999183,2.0,1.0,phase_1,,,,,,,,,,,,,gray,circle
37.0,1.0,0.5,0.0,1.0,1.0,395.4555200000413,2.0,1.0,phase_1,,,,,,,,,,,,,gray,circle
35.0,5.0,0.5,1.0,4.0,4.0,353.1301489999805,2.0,1.0,phase_1,,,,,,,,,,,,,cyan,diamond
397.0,8.0,4.0,1.0,4.0,4.0,329.6865330000855,2.0,1.0,phase_1,,,,,,,,,,,,,orange,triangle
183.0,3.0,2.0,0.0,4.0,4.0,400.4539310001291,2.0,1.0,phase_1,,,,,,,,,,,,,yellow,cross
89.0,2.0,1.0,0.0,1.0,1.0,368.1934080000246,2.0,1.0,phase_1,,,,,,,,,,,,,green,hexagon
0.0,7.0,0.0,1.0,3.0,3.0,331.2002990001019,2.0,1.0,phase_1,,,,,,,,,,,,,blue,square
54.0,1.0,0.5,0.0,2.0,2.0,335.7651579999583,2.0,1.0,phase_1,,,,,,,,,,,,,gray,circle
101.0,2.0,1.0,0.0,2.0,2.0,409.3436609998662,2.0,1.0,phase_1,,,,,,,,,,,,,green,hexagon
30.0,5.0,0.5,1.0,2.0,2.0,366.6946749999624,2.0,1.0,phase_1,,,,,,,,,,,,,cyan,diamond
199.0,7.0,2.0,1.0,2.0,2.0,326.8877440000324,2.0,1.0,phase_1,,,,,,,,,,,,,blue,square
214.0,3.0,2.0,0.0,4.0,4.0,488.6758269999518,2.0,1.0,phase_1,,,,,,,,,,,,,yellow,cross
124.0,2.0,1.0,0.0,2.0,2.0,348.9011500000742,2.0,1.0,phase_1,,,,,,,,,,,,,green,hexagon
0.0,1.0,0.0,0.0,1.0,1.0,380.92685599986,2.0,1.0,phase_1,,,,,,,,,,,,,gray,circle
0.0,3.0,0.0,0.0,4.0,4.0,328.5934250000082,2.0,1.0,phase_1,,,,,,,,,,,,,yellow,cross
0.0,4.0,0.0,0.0,2.0,2.0,387.0395200001439,2.0,1.0,phase_1,,,,,,,,,,,,,magenta,I
96.0,2.0,1.0,0.0,1.0,1.0,372.7565320000394,2.0,1.0,phase_1,,,,,,,,,,,,,green,hexagon
409.0,4.0,4.0,0.0,3.0,3.0,318.9729240000361,2.0,1.0,phase_1,,,,,,,,,,,,,magenta,I
0.0,2.0,0.0,0.0,2.0,2.0,397.4110569999993,2.0,1.0,phase_1,,,,,,,,,,,,,green,hexagon
32.0,1.0,0.5,0.0,3.0,3.0,480.7397120000587,2.0,1.0,phase_1,,,,,,,,,,,,,gray,circle
28.0,1.0,0.5,0.0,3.0,3.0,410.2138480000121,2.0,1.0,phase_1,,,,,,,,,,,,,gray,circle
186.0,3.0,2.0,0.0,2.0,2.0,441.3537769999038,2.0,1.0,phase_1,,,,,,,,,,,,,yellow,cross
209.0,3.0,2.0,0.0,1.0,1.0,328.8193789999241,2.0,1.0,phase_1,,,,,,,,,,,,,yellow,cross
379.0,4.0,4.0,0.0,4.0,4.0,425.6180729998959,3.0,1.0,phase_1,,,,,,,,,,,,,magenta,I
89.0,2.0,1.0,0.0,3.0,3.0,413.3661880000545,3.0,1.0,phase_1,,,,,,,,,,,,,green,hexagon
204.0,3.0,2.0,0.0,2.0,2.0,304.2567579998376,3.0,1.0,phase_1,,,,,,,,,,,,,yellow,cross
379.0,8.0,4.0,1.0,1.0,1.0,316.6167159999986,3.0,1.0,phase_1,,,,,,,,,,,,,orange,triangle
61.0,5.0,0.5,1.0,4.0,4.0,287.7785569999105,3.0,1.0,phase_1,,,,,,,,,,,,,cyan,diamond
392.0,8.0,4.0,1.0,3.0,3.0,341.0071559999323,3.0,1.0,phase_1,,,,,,,,,,,,,orange,triangle
383.0,4.0,4.0,0.0,2.0,2.0,353.512050000063,3.0,1.0,phase_1,,,,,,,,,,,,,magenta,I
0.0,5.0,0.0,1.0,1.0,1.0,275.8011009998427,3.0,1.0,phase_1,,,,,,,,,,,,,cyan,diamond
115.0,2.0,1.0,0.0,1.0,1.0,333.8138619999427,3.0,1.0,phase_1,,,,,,,,,,,,,green,hexagon
69.0,1.0,0.5,0.0,4.0,4.0,272.7523220000876,3.0,1.0,phase_1,,,,,,,,,,,,,gray,circle
410.0,8.0,4.0,1.0,1.0,1.0,332.9465700001037,3.0,1.0,phase_1,,,,,,,,,,,,,orange,triangle
0.0,1.0,0.0,0.0,1.0,1.0,383.9919090000876,3.0,1.0,phase_1,,,,,,,,,,,,,gray,circle
414.0,8.0,4.0,1.0,2.0,2.0,317.5784689999545,3.0,1.0,phase_1,,,,,,,,,,,,,orange,triangle
119.0,2.0,1.0,0.0,1.0,1.0,359.9316840000028,3.0,1.0,phase_1,,,,,,,,,,,,,green,hexagon
124.0,2.0,1.0,0.0,4.0,4.0,313.8519010001346,3.0,1.0,phase_1,,,,,,,,,,,,,green,hexagon
224.0,3.0,2.0,0.0,3.0,3.0,510.01227599999766,3.0,1.0,phase_1,,,,,,,,,,,,,yellow,cross
383.0,8.0,4.0,1.0,1.0,1.0,275.4177270001037,3.0,1.0,phase_1,,,,,,,,,,,,,orange,triangle
414.0,8.0,4.0,1.0,4.0,4.0,351.5290230000119,3.0,1.0,phase_1,,,,,,,,,,,,,orange,triangle
42.0,5.0,0.5,1.0,3.0,3.0,452.5237850000394,3.0,1.0,phase_1,,,,,,,,,,,,,cyan,diamond
0.0,8.0,0.0,1.0,1.0,1.0,345.8752039998671,3.0,1.0,phase_1,,,,,,,,,,,,,orange,triangle
83.0,2.0,1.0,0.0,1.0,1.0,342.2810139998091,3.0,1.0,phase_1,,,,,,,,,,,,,green,hexagon
109.0,2.0,1.0,0.0,2.0,2.0,289.9875879998035,3.0,1.0,phase_1,,,,,,,,,,,,,green,hexagon
200.0,3.0,2.0,0.0,4.0,4.0,287.4265540001488,3.0,1.0,phase_1,,,,,,,,,,,,,yellow,cross
382.0,4.0,4.0,0.0,2.0,2.0,338.3109970000078,3.0,1.0,phase_1,,,,,,,,,,,,,magenta,I
30.0,5.0,0.5,1.0,3.0,3.0,347.6480489998721,3.0,1.0,phase_1,,,,,,,,,,,,,cyan,diamond
0.0,4.0,0.0,0.0,4.0,4.0,518.6869520000528,3.0,1.0,phase_1,,,,,,,,,,,,,magenta,I
419.0,4.0,4.0,0.0,3.0,3.0,434.7814380000727,3.0,1.0,phase_1,,,,,,,,,,,,,magenta,I
0.0,1.0,0.0,0.0,3.0,3.0,368.596147000062,3.0,1.0,phase_1,,,,,,,,,,,,,gray,circle
37.0,5.0,0.5,1.0,3.0,3.0,313.1037120001565,3.0,1.0,phase_1,,,,,,,,,,,,,cyan,diamond
385.0,8.0,4.0,1.0,4.0,4.0,331.1605110000073,3.0,1.0,phase_1,,,,,,,,,,,,,orange,triangle
224.0,3.0,2.0,0.0,4.0,4.0,374.5010259999617,3.0,1.0,phase_1,,,,,,,,,,,,,yellow,cross
189.0,7.0,2.0,1.0,2.0,2.0,360.7981259999633,3.0,1.0,phase_1,,,,,,,,,,,,,blue,square
414.0,4.0,4.0,0.0,2.0,2.0,346.8790690001242,3.0,1.0,phase_1,,,,,,,,,,,,,magenta,I
216.0,3.0,2.0,0.0,3.0,3.0,350.6401530000858,3.0,1.0,phase_1,,,,,,,,,,,,,yellow,cross
205.0,7.0,2.0,1.0,1.0,1.0,264.0913000000182,3.0,1.0,phase_1,,,,,,,,,,,,,blue,square
410.0,4.0,4.0,0.0,3.0,3.0,498.3808310000768,3.0,1.0,phase_1,,,,,,,,,,,,,magenta,I
82.0,6.0,1.0,1.0,2.0,2.0,344.1254439999284,3.0,1.0,phase_1,,,,,,,,,,,,,white,flipped triangle
89.0,6.0,1.0,1.0,1.0,1.0,336.3817059998837,3.0,1.0,phase_1,,,,,,,,,,,,,white,flipped triangle
0.0,3.0,0.0,0.0,1.0,1.0,352.0006999999623,3.0,1.0,phase_1,,,,,,,,,,,,,yellow,cross
186.0,3.0,2.0,0.0,2.0,2.0,378.2240880000245,3.0,1.0,phase_1,,,,,,,,,,,,,yellow,cross
124.0,2.0,1.0,0.0,4.0,4.0,340.5507510001371,3.0,1.0,phase_1,,,,,,,,,,,,,green,hexagon
406.0,8.0,4.0,1.0,1.0,1.0,357.7663309999934,3.0,1.0,phase_1,,,,,,,,,,,,,orange,triangle
394.0,4.0,4.0,0.0,1.0,1.0,335.8135599999059,3.0,1.0,phase_1,,,,,,,,,,,,,magenta,I
0.0,3.0,0.0,0.0,2.0,2.0,400.0895829999535,3.0,1.0,phase_1,,,,,,,,,,,,,yellow,cross
37.0,1.0,0.5,0.0,1.0,1.0,284.539162000101,3.0,1.0,phase_1,,,,,,,,,,,,,gray,circle
0.0,5.0,0.0,1.0,3.0,3.0,404.1531440000199,3.0,1.0,phase_1,,,,,,,,,,,,,cyan,diamond
32.0,5.0,0.5,1.0,3.0,3.0,366.6512649999731,3.0,1.0,phase_1,,,,,,,,,,,,,cyan,diamond
0.0,7.0,0.0,1.0,4.0,4.0,376.6235250000136,3.0,1.0,phase_1,,,,,,,,,,,,,blue,square
0.0,5.0,0.0,1.0,2.0,2.0,336.36685700003,3.0,1.0,phase_1,,,,,,,,,,,,,cyan,diamond
96.0,6.0,1.0,1.0,2.0,2.0,305.0245590000031,3.0,1.0,phase_1,,,,,,,,,,,,,white,flipped triangle
189.0,3.0,2.0,0.0,1.0,1.0,260.0665930001469,3.0,1.0,phase_1,,,,,,,,,,,,,yellow,cross
0.0,4.0,0.0,0.0,1.0,1.0,265.6837339998219,3.0,1.0,phase_1,,,,,,,,,,,,,magenta,I
75.0,5.0,0.5,1.0,4.0,4.0,326.9723860000795,3.0,1.0,phase_1,,,,,,,,,,,,,cyan,diamond
378.0,4.0,4.0,0.0,4.0,4.0,321.4059720000932,3.0,1.0,phase_1,,,,,,,,,,,,,magenta,I
0.0,2.0,0.0,0.0,1.0,1.0,353.5464179999508,3.0,1.0,phase_1,,,,,,,,,,,,,green,hexagon
403.0,8.0,4.0,1.0,1.0,1.0,315.2855289999934,3.0,1.0,phase_1,,,,,,,,,,,,,orange,triangle
423.0,8.0,4.0,1.0,2.0,2.0,275.2662579998741,3.0,1.0,phase_1,,,,,,,,,,,,,orange,triangle
51.0,1.0,0.5,0.0,2.0,2.0,366.9290070001807,3.0,1.0,phase_1,,,,,,,,,,,,,gray,circle
101.0,6.0,1.0,1.0,4.0,4.0,294.5741480000379,3.0,1.0,phase_1,,,,,,,,,,,,,white,flipped triangle
84.0,6.0,1.0,1.0,4.0,4.0,336.4490940000451,3.0,1.0,phase_1,,,,,,,,,,,,,white,flipped triangle
96.0,6.0,1.0,1.0,3.0,3.0,338.8250380000954,3.0,1.0,phase_1,,,,,,,,,,,,,white,flipped triangle
30.0,1.0,0.5,0.0,1.0,1.0,284.8775499999192,3.0,1.0,phase_1,,,,,,,,,,,,,gray,circle
43.0,5.0,0.5,1.0,3.0,3.0,356.0101020000275,3.0,1.0,phase_1,,,,,,,,,,,,,cyan,diamond
406.0,4.0,4.0,0.0,1.0,1.0,349.1764220000277,3.0,1.0,phase_1,,,,,,,,,,,,,magenta,I
83.0,2.0,1.0,0.0,1.0,1.0,357.5170459998844,3.0,1.0,phase_1,,,,,,,,,,,,,green,hexagon
421.0,8.0,4.0,1.0,2.0,2.0,326.7720920000556,3.0,1.0,phase_1,,,,,,,,,,,,,orange,triangle
37.0,1.0,0.5,0.0,2.0,2.0,398.3401709999725,3.0,1.0,phase_1,,,,,,,,,,,,,gray,circle
0.0,3.0,0.0,0.0,4.0,4.0,366.9866320001347,3.0,1.0,phase_1,,,,,,,,,,,,,yellow,cross
66.0,5.0,0.5,1.0,4.0,4.0,367.5630630000341,3.0,1.0,phase_1,,,,,,,,,,,,,cyan,diamond
404.0,8.0,4.0,1.0,2.0,2.0,332.3589700000866,3.0,1.0,phase_1,,,,,,,,,,,,,orange,triangle
104.0,2.0,1.0,0.0,3.0,3.0,384.4893320001574,3.0,1.0,phase_1,,,,,,,,,,,,,green,hexagon
65.0,1.0,0.5,0.0,4.0,4.0,381.8361619998995,3.0,1.0,phase_1,,,,,,,,,,,,,gray,circle
57.0,5.0,0.5,1.0,1.0,1.0,320.06156099987487,3.0,1.0,phase_1,,,,,,,,,,,,,cyan,diamond
32.0,5.0,0.5,1.0,3.0,3.0,419.8757199999363,3.0,1.0,phase_1,,,,,,,,,,,,,cyan,diamond
216.0,7.0,2.0,1.0,2.0,2.0,390.070501000082,3.0,1.0,phase_1,,,,,,,,,,,,,blue,square
98.0,2.0,1.0,0.0,3.0,3.0,433.3134099999824,3.0,1.0,phase_1,,,,,,,,,,,,,green,hexagon
386.0,8.0,4.0,1.0,4.0,4.0,324.6410650001508,3.0,1.0,phase_1,,,,,,,,,,,,,orange,triangle
400.0,4.0,4.0,0.0,2.0,2.0,283.738158999995,3.0,1.0,phase_1,,,,,,,,,,,,,magenta,I
75.0,1.0,0.5,0.0,4.0,4.0,294.001205000086,3.0,1.0,phase_1,,,,,,,,,,,,,gray,circle
98.0,6.0,1.0,1.0,1.0,1.0,239.2803580000873,3.0,1.0,phase_1,,,,,,,,,,,,,white,flipped triangle
102.0,6.0,1.0,1.0,4.0,4.0,316.3953190000939,3.0,1.0,phase_1,,,,,,,,,,,,,white,flipped triangle
29.0,5.0,0.5,1.0,2.0,2.0,288.8421509999261,3.0,1.0,phase_1,,,,,,,,,,,,,cyan,diamond
0.0,7.0,0.0,1.0,1.0,1.0,337.8494549999686,3.0,1.0,phase_1,,,,,,,,,,,,,blue,square
40.0,5.0,0.5,1.0,2.0,2.0,354.3338150000181,3.0,1.0,phase_1,,,,,,,,,,,,,cyan,diamond
415.0,8.0,4.0,1.0,3.0,3.0,394.0072970001438,3.0,1.0,phase_1,,,,,,,,,,,,,orange,triangle
0.0,8.0,0.0,1.0,3.0,3.0,331.6985520000344,3.0,1.0,phase_1,,,,,,,,,,,,,orange,triangle
0.0,8.0,0.0,1.0,2.0,2.0,307.6499950000197,3.0,1.0,phase_1,,,,,,,,,,,,,orange,triangle
112.0,2.0,1.0,0.0,3.0,3.0,357.4817709998115,3.0,1.0,phase_1,,,,,,,,,,,,,green,hexagon
189.0,7.0,2.0,1.0,3.0,3.0,333.5403370001586,3.0,1.0,phase_1,,,,,,,,,,,,,blue,square
0.0,8.0,0.0,1.0,3.0,3.0,320.6558299998505,3.0,1.0,phase_1,,,,,,,,,,,,,orange,triangle
53.0,5.0,0.5,1.0,3.0,3.0,295.7438739999816,3.0,1.0,phase_1,,,,,,,,,,,,,cyan,diamond
0.0,4.0,0.0,0.0,3.0,3.0,335.8458100001371,3.0,1.0,phase_1,,,,,,,,,,,,,magenta,I
425.0,4.0,4.0,0.0,3.0,3.0,298.993505999988,3.0,1.0,phase_1,,,,,,,,,,,,,magenta,I
120.0,6.0,1.0,1.0,1.0,1.0,311.8253160000677,3.0,1.0,phase_1,,,,,,,,,,,,,white,flipped triangle
419.0,8.0,4.0,1.0,3.0,3.0,366.316242000039,3.0,1.0,phase_1,,,,,,,,,,,,,orange,triangle
423.0,4.0,4.0,0.0,4.0,4.0,353.2197340000493,3.0,1.0,phase_1,,,,,,,,,,,,,magenta,I
124.0,6.0,1.0,1.0,3.0,3.0,436.3409169998249,3.0,1.0,phase_1,,,,,,,,,,,,,white,flipped triangle
394.0,4.0,4.0,0.0,4.0,4.0,274.6779660001266,3.0,1.0,phase_1,,,,,,,,,,,,,magenta,I
37.0,5.0,0.5,1.0,4.0,4.0,283.8224590000209,3.0,1.0,phase_1,,,,,,,,,,,,,cyan,diamond
99.0,2.0,1.0,0.0,1.0,1.0,323.37461599991,3.0,1.0,phase_1,,,,,,,,,,,,,green,hexagon
0.0,3.0,0.0,0.0,2.0,2.0,291.6827169999578,4.0,1.0,phase_1,,,,,,,,,,,,,yellow,cross
91.0,2.0,1.0,0.0,3.0,3.0,327.3431480001818,4.0,1.0,phase_1,,,,,,,,,,,,,green,hexagon
0.0,3.0,0.0,0.0,1.0,1.0,278.6140230000455,4.0,1.0,phase_1,,,,,,,,,,,,,yellow,cross
28.0,5.0,0.5,1.0,3.0,3.0,375.1420720000169,4.0,2.0,phase_1,,,,,,,,,,,,,cyan,diamond
215.0,7.0,2.0,1.0,4.0,4.0,401.288981999869,4.0,1.0,phase_1,,,,,,,,,,,,,blue,square
0.0,4.0,0.0,0.0,4.0,4.0,376.8645109998942,4.0,1.0,phase_1,,,,,,,,,,,,,magenta,I
0.0,5.0,0.0,1.0,2.0,2.0,333.0657999999857,4.0,1.0,phase_1,,,,,,,,,,,,,cyan,diamond
99.0,2.0,1.0,0.0,3.0,3.0,380.8330990000286,4.0,1.0,phase_1,,,,,,,,,,,,,green,hexagon
35.0,1.0,0.5,0.0,4.0,4.0,388.5391900000741,4.0,1.0,phase_1,,,,,,,,,,,,,gray,circle
0.0,8.0,0.0,1.0,4.0,4.0,437.462688000096,4.0,1.0,phase_1,,,,,,,,,,,,,orange,triangle
27.0,1.0,0.5,0.0,3.0,3.0,388.0514360000688,4.0,1.0,phase_1,,,,,,,,,,,,,gray,circle
416.0,4.0,4.0,0.0,1.0,1.0,424.1188539999712,4.0,1.0,phase_1,,,,,,,,,,,,,magenta,I
421.0,4.0,4.0,0.0,2.0,2.0,342.4101360001259,4.0,1.0,phase_1,,,,,,,,,,,,,magenta,I
45.0,5.0,0.5,1.0,3.0,3.0,420.4488899999887,4.0,1.0,phase_1,,,,,,,,,,,,,cyan,diamond
0.0,2.0,0.0,0.0,1.0,1.0,368.8474359996689,4.0,1.0,phase_1,,,,,,,,,,,,,green,hexagon
394.0,8.0,4.0,1.0,3.0,3.0,434.5983369998976,4.0,1.0,phase_1,,,,,,,,,,,,,orange,triangle
0.0,5.0,0.0,1.0,2.0,2.0,372.8907730001083,4.0,1.0,phase_1,,,,,,,,,,,,,cyan,diamond
182.0,7.0,2.0,1.0,2.0,2.0,358.02720699985,4.0,1.0,phase_1,,,,,,,,,,,,,blue,square
27.0,5.0,0.5,1.0,1.0,1.0,318.7511420001101,4.0,1.0,phase_1,,,,,,,,,,,,,cyan,diamond
0.0,1.0,0.0,0.0,3.0,3.0,485.7065510000211,4.0,1.0,phase_1,,,,,,,,,,,,,gray,circle
96.0,2.0,1.0,0.0,4.0,4.0,335.0716039999497,4.0,1.0,phase_1,,,,,,,,,,,,,green,hexagon
0.0,7.0,0.0,1.0,4.0,4.0,393.2161190000443,4.0,1.0,phase_1,,,,,,,,,,,,,blue,square
78.0,6.0,1.0,1.0,3.0,3.0,466.210114000205,4.0,1.0,phase_1,,,,,,,,,,,,,white,flipped triangle
424.0,8.0,4.0,1.0,3.0,3.0,363.5870399998566,4.0,1.0,phase_1,,,,,,,,,,,,,orange,triangle
116.0,6.0,1.0,1.0,2.0,2.0,364.4818550001218,4.0,1.0,phase_1,,,,,,,,,,,,,white,flipped triangle
214.0,3.0,2.0,0.0,4.0,4.0,453.3809819999987,4.0,1.0,phase_1,,,,,,,,,,,,,yellow,cross
100.0,6.0,1.0,1.0,4.0,4.0,364.4332920002853,4.0,1.0,phase_1,,,,,,,,,,,,,white,flipped triangle
214.0,7.0,2.0,1.0,4.0,4.0,355.1069680002001,4.0,1.0,phase_1,,,,,,,,,,,,,blue,square
390.0,8.0,4.0,1.0,4.0,4.0,304.4759440003872,4.0,1.0,phase_1,,,,,,,,,,,,,orange,triangle
51.0,5.0,0.5,1.0,4.0,4.0,305.0760599999194,4.0,1.0,phase_1,,,,,,,,,,,,,cyan,diamond
64.0,5.0,0.5,1.0,2.0,2.0,379.3247850003354,4.0,1.0,phase_1,,,,,,,,,,,,,cyan,diamond
214.0,7.0,2.0,1.0,3.0,3.0,464.6289060001436,4.0,1.0,phase_1,,,,,,,,,,,,,blue,square
0.0,8.0,0.0,1.0,4.0,4.0,386.6100469999765,4.0,1.0,phase_1,,,,,,,,,,,,,orange,triangle
72.0,5.0,0.5,1.0,2.0,2.0,357.1148060000269,4.0,1.0,phase_1,,,,,,,,,,,,,cyan,diamond
177.0,3.0,2.0,0.0,3.0,3.0,416.2516910000704,4.0,1.0,phase_1,,,,,,,,,,,,,yellow,cross
75.0,1.0,0.5,0.0,4.0,4.0,334.9632899999051,4.0,1.0,phase_1,,,,,,,,,,,,,gray,circle
0.0,2.0,0.0,0.0,3.0,3.0,413.3503869998094,4.0,1.0,phase_1,,,,,,,,,,,,,green,hexagon
34.0,5.0,0.5,1.0,2.0,2.0,364.925518000291,4.0,1.0,phase_1,,,,,,,,,,,,,cyan,diamond
0.0,6.0,0.0,1.0,1.0,1.0,400.1643689998673,4.0,1.0,phase_1,,,,,,,,,,,,,white,flipped triangle
196.0,3.0,2.0,0.0,4.0,4.0,292.9762200001278,4.0,1.0,phase_1,,,,,,,,,,,,,yellow,cross
32.0,1.0,0.5,0.0,1.0,1.0,387.4129609998817,4.0,1.0,phase_1,,,,,,,,,,,,,gray,circle
0.0,1.0,0.0,0.0,1.0,1.0,387.6457379997191,4.0,1.0,phase_1,,,,,,,,,,,,,gray,circle
51.0,5.0,0.5,1.0,2.0,2.0,317.3165480002353,4.0,1.0,phase_1,,,,,,,,,,,,,cyan,diamond
91.0,6.0,1.0,1.0,4.0,4.0,317.0364769998741,4.0,1.0,phase_1,,,,,,,,,,,,,white,flipped triangle
91.0,2.0,1.0,0.0,2.0,2.0,501.4093879999564,4.0,1.0,phase_1,,,,,,,,,,,,,green,hexagon
419.0,8.0,4.0,1.0,1.0,1.0,381.5762559997893,4.0,1.0,phase_1,,,,,,,,,,,,,orange,triangle
40.0,1.0,0.5,0.0,3.0,3.0,436.6690880001442,4.0,1.0,phase_1,,,,,,,,,,,,,gray,circle
43.0,1.0,0.5,0.0,3.0,3.0,366.6009549997397,4.0,1.0,phase_1,,,,,,,,,,,,,gray,circle
403.0,4.0,4.0,0.0,3.0,3.0,416.3980620000984,4.0,1.0,phase_1,,,,,,,,,,,,,magenta,I
93.0,6.0,1.0,1.0,4.0,4.0,361.3593869999931,4.0,1.0,phase_1,,,,,,,,,,,,,white,flipped triangle
184.0,7.0,2.0,1.0,3.0,3.0,480.8432129998436,4.0,1.0,phase_1,,,,,,,,,,,,,blue,square
57.0,1.0,0.5,0.0,1.0,1.0,450.4311750001761,4.0,1.0,phase_1,,,,,,,,,,,,,gray,circle
398.0,8.0,4.0,1.0,3.0,3.0,410.4479239999818,4.0,1.0,phase_1,,,,,,,,,,,,,orange,triangle
199.0,3.0,2.0,0.0,1.0,1.0,419.0950689999226,4.0,1.0,phase_1,,,,,,,,,,,,,yellow,cross
193.0,3.0,2.0,0.0,2.0,2.0,374.7186489999876,4.0,1.0,phase_1,,,,,,,,,,,,,yellow,cross
186.0,3.0,2.0,0.0,2.0,2.0,369.6013310000126,4.0,1.0,phase_1,,,,,,,,,,,,,yellow,cross
115.0,6.0,1.0,1.0,3.0,3.0,480.6964580002386,4.0,1.0,phase_1,,,,,,,,,,,,,white,flipped triangle
205.0,7.0,2.0,1.0,3.0,3.0,415.4537800000071,4.0,1.0,phase_1,,,,,,,,,,,,,blue,square
65.0,5.0,0.5,1.0,1.0,1.0,447.2498159998395,4.0,1.0,phase_1,,,,,,,,,,,,,cyan,diamond
124.0,6.0,1.0,1.0,4.0,4.0,321.4753339998424,4.0,1.0,phase_1,,,,,,,,,,,,,white,flipped triangle
102.0,6.0,1.0,1.0,1.0,1.0,390.4296389996489,4.0,1.0,phase_1,,,,,,,,,,,,,white,flipped triangle
222.0,7.0,2.0,1.0,4.0,4.0,364.3593920000967,4.0,1.0,phase_1,,,,,,,,,,,,,blue,square
83.0,6.0,1.0,1.0,3.0,3.0,450.4072790000464,4.0,1.0,phase_1,,,,,,,,,,,,,white,flipped triangle
87.0,6.0,1.0,1.0,2.0,2.0,448.6379899999519,4.0,1.0,phase_1,,,,,,,,,,,,,white,flipped triangle
85.0,6.0,1.0,1.0,4.0,4.0,359.8609249997935,4.0,1.0,phase_1,,,,,,,,,,,,,white,flipped triangle
386.0,8.0,4.0,1.0,3.0,3.0,419.3343949996233,4.0,1.0,phase_1,,,,,,,,,,,,,orange,triangle
419.0,4.0,4.0,0.0,4.0,4.0,384.2253780003375,4.0,1.0,phase_1,,,,,,,,,,,,,magenta,I
89.0,6.0,1.0,1.0,1.0,1.0,377.0865709998361,4.0,1.0,phase_1,,,,,,,,,,,,,white,flipped triangle
122.0,2.0,1.0,0.0,4.0,4.0,288.3717119998437,4.0,1.0,phase_1,,,,,,,,,,,,,green,hexagon
69.0,5.0,0.5,1.0,1.0,1.0,372.3524830002134,4.0,1.0,phase_1,,,,,,,,,,,,,cyan,diamond
208.0,7.0,2.0,1.0,2.0,2.0,342.0765320001919,4.0,1.0,phase_1,,,,,,,,,,,,,blue,square
82.0,2.0,1.0,0.0,4.0,4.0,345.3080799999952,4.0,1.0,phase_1,,,,,,,,,,,,,green,hexagon
0.0,2.0,0.0,0.0,2.0,2.0,285.4766039999958,4.0,1.0,phase_1,,,,,,,,,,,,,green,hexagon
193.0,7.0,2.0,1.0,1.0,1.0,369.0989769997941,4.0,1.0,phase_1,,,,,,,,,,,,,blue,square
0.0,7.0,0.0,1.0,4.0,4.0,359.2682949997652,4.0,1.0,phase_1,,,,,,,,,,,,,blue,square
218.0,7.0,2.0,1.0,2.0,2.0,340.9698390000812,4.0,1.0,phase_1,,,,,,,,,,,,,blue,square
404.0,4.0,4.0,0.0,1.0,1.0,357.7490730003774,4.0,1.0,phase_1,,,,,,,,,,,,,magenta,I
0.0,6.0,0.0,1.0,1.0,1.0,408.6019850001321,4.0,1.0,phase_1,,,,,,,,,,,,,white,flipped triangle
75.0,5.0,0.5,1.0,1.0,1.0,500.50452999994377,4.0,1.0,phase_1,,,,,,,,,,,,,cyan,diamond
205.0,3.0,2.0,0.0,3.0,3.0,445.8040889999211,4.0,1.0,phase_1,,,,,,,,,,,,,yellow,cross
401.0,4.0,4.0,0.0,2.0,2.0,387.6942530000633,4.0,1.0,phase_1,,,,,,,,,,,,,magenta,I
0.0,1.0,0.0,0.0,1.0,1.0,303.1267660003323,4.0,1.0,phase_1,,,,,,,,,,,,,gray,circle
215.0,3.0,2.0,0.0,1.0,1.0,386.5953509998689,4.0,1.0,phase_1,,,,,,,,,,,,,yellow,cross
84.0,2.0,1.0,0.0,1.0,1.0,327.9995299999427,4.0,1.0,phase_1,,,,,,,,,,,,,green,hexagon
397.0,8.0,4.0,1.0,1.0,1.0,322.2405070000604,4.0,1.0,phase_1,,,,,,,,,,,,,orange,triangle
204.0,7.0,2.0,1.0,1.0,1.0,320.65260200033657,4.0,1.0,phase_1,,,,,,,,,,,,,blue,square
375.0,8.0,4.0,1.0,2.0,2.0,334.8686730000736,4.0,1.0,phase_1,,,,,,,,,,,,,orange,triangle
99.0,6.0,1.0,1.0,1.0,1.0,364.454375999685,4.0,1.0,phase_1,,,,,,,,,,,,,white,flipped triangle
409.0,8.0,4.0,1.0,2.0,2.0,300.7461600000169,4.0,1.0,phase_1,,,,,,,,,,,,,orange,triangle
205.0,3.0,2.0,0.0,4.0,4.0,503.27844299999924,4.0,1.0,phase_1,,,,,,,,,,,,,yellow,cross
0.0,6.0,0.0,1.0,4.0,4.0,374.2346880003424,4.0,1.0,phase_1,,,,,,,,,,,,,white,flipped triangle
0.0,6.0,0.0,1.0,2.0,2.0,299.9178279997068,4.0,1.0,phase_1,,,,,,,,,,,,,white,flipped triangle
0.0,3.0,0.0,0.0,4.0,4.0,360.3554760002225,4.0,1.0,phase_1,,,,,,,,,,,,,yellow,cross
397.0,4.0,4.0,0.0,3.0,3.0,469.7434189997693,4.0,1.0,phase_1,,,,,,,,,,,,,magenta,I
73.0,1.0,0.5,0.0,3.0,3.0,492.6351109997995,4.0,1.0,phase_1,,,,,,,,,,,,,gray,circle
383.0,8.0,4.0,1.0,4.0,4.0,440.5735699997422,4.0,1.0,phase_1,,,,,,,,,,,,,orange,triangle
379.0,8.0,4.0,1.0,2.0,2.0,294.7956699999849,4.0,1.0,phase_1,,,,,,,,,,,,,orange,triangle
214.0,3.0,2.0,0.0,3.0,3.0,479.7925839998243,4.0,1.0,phase_1,,,,,,,,,,,,,yellow,cross
0.0,5.0,0.0,1.0,3.0,3.0,389.1852140000083,4.0,1.0,phase_1,,,,,,,,,,,,,cyan,diamond
75.0,1.0,0.5,0.0,3.0,3.0,385.7165399999758,4.0,1.0,phase_1,,,,,,,,,,,,,gray,circle
0.0,8.0,4.0,1.0,6.0,6.0,534.2988110000988,1.0,1.0,phase_2,stop,250.0,250.0,3.0,,,,,,,,,orange,triangle
0.0,3.0,2.0,0.0,6.0,6.0,656.3823299998148,1.0,1.0,phase_2,go,250.0,200.0,1.0,,,,,,,,,yellow,cross
0.0,5.0,0.5,1.0,6.0,0.0,0.0,1.0,1.0,phase_2,stop,250.0,200.0,4.0,,,,,,,,,cyan,diamond
0.0,2.0,1.0,0.0,6.0,6.0,656.1760529998537,1.0,1.0,phase_2,go,250.0,250.0,1.0,,,,,,,,,green,hexagon
0.0,1.0,0.5,0.0,5.0,5.0,580.5175070004225,1.0,1.0,phase_2,go,250.0,250.0,1.0,,,,,,,,,gray,circle
0.0,1.0,0.5,0.0,5.0,5.0,688.2603929998368,1.0,1.0,phase_2,go,250.0,250.0,1.0,,,,,,,,,gray,circle
0.0,8.0,4.0,1.0,5.0,0.0,0.0,1.0,1.0,phase_2,stop,250.0,250.0,4.0,,,,,,,,,orange,triangle
0.0,2.0,1.0,0.0,5.0,5.0,685.7180839997454,1.0,1.0,phase_2,go,300.0,250.0,1.0,,,,,,,,,green,hexagon
0.0,2.0,1.0,0.0,5.0,5.0,647.9659550000179,1.0,1.0,phase_2,go,300.0,250.0,1.0,,,,,,,,,green,hexagon
0.0,4.0,4.0,0.0,5.0,5.0,804.8296219999429,1.0,1.0,phase_2,go,300.0,250.0,1.0,,,,,,,,,magenta,I
0.0,7.0,2.0,1.0,6.0,0.0,0.0,1.0,1.0,phase_2,stop,300.0,250.0,4.0,,,,,,,,,blue,square
0.0,5.0,0.5,1.0,5.0,0.0,0.0,1.0,1.0,phase_2,stop,300.0,300.0,4.0,,,,,,,,,cyan,diamond
0.0,4.0,4.0,0.0,5.0,5.0,640.4350329999033,1.0,1.0,phase_2,go,350.0,300.0,1.0,,,,,,,,,magenta,I
0.0,5.0,0.5,1.0,6.0,0.0,0.0,1.0,1.0,phase_2,stop,350.0,300.0,4.0,,,,,,,,,cyan,diamond
0.0,1.0,0.5,0.0,5.0,5.0,833.1935430001067,1.0,1.0,phase_2,go,350.0,350.0,1.0,,,,,,,,,gray,circle
0.0,8.0,4.0,1.0,6.0,0.0,0.0,1.0,1.0,phase_2,stop,350.0,350.0,4.0,,,,,,,,,orange,triangle
0.0,6.0,1.0,1.0,5.0,0.0,0.0,1.0,1.0,phase_2,stop,350.0,400.0,4.0,,,,,,,,,white,flipped triangle
0.0,3.0,2.0,0.0,6.0,6.0,704.7228899996298,1.0,1.0,phase_2,go,400.0,400.0,1.0,,,,,,,,,yellow,cross
0.0,5.0,0.5,1.0,6.0,0.0,0.0,1.0,1.0,phase_2,stop,400.0,400.0,4.0,,,,,,,,,cyan,diamond
0.0,4.0,4.0,0.0,5.0,5.0,815.3417920002539,1.0,1.0,phase_2,go,400.0,450.0,1.0,,,,,,,,,magenta,I
0.0,2.0,1.0,0.0,5.0,5.0,736.2803179998991,1.0,1.0,phase_2,go,400.0,450.0,1.0,,,,,,,,,green,hexagon
0.0,3.0,2.0,0.0,5.0,5.0,708.0895039998722,1.0,1.0,phase_2,go,400.0,450.0,1.0,,,,,,,,,yellow,cross
0.0,2.0,1.0,0.0,5.0,5.0,596.9165810001869,1.0,1.0,phase_2,go,400.0,450.0,1.0,,,,,,,,,green,hexagon
0.0,1.0,0.5,0.0,6.0,6.0,760.8966879997752,1.0,1.0,phase_2,go,400.0,450.0,1.0,,,,,,,,,gray,circle
0.0,7.0,2.0,1.0,6.0,0.0,0.0,1.0,1.0,phase_2,stop,400.0,450.0,4.0,,,,,,,,,blue,square
0.0,7.0,2.0,1.0,5.0,5.0,747.9213940000591,1.0,1.0,phase_2,go,400.0,500.0,1.0,,,,,,,,,blue,square
0.0,4.0,4.0,0.0,6.0,6.0,753.2175860001189,1.0,1.0,phase_2,go,400.0,500.0,1.0,,,,,,,,,magenta,I
0.0,3.0,2.0,0.0,6.0,6.0,762.1035229999507,1.0,1.0,phase_2,go,400.0,500.0,1.0,,,,,,,,,yellow,cross
0.0,2.0,1.0,0.0,5.0,5.0,743.0043989998012,1.0,1.0,phase_2,go,400.0,500.0,1.0,,,,,,,,,green,hexagon
0.0,8.0,4.0,1.0,5.0,5.0,791.1862409996502,1.0,1.0,phase_2,go,400.0,500.0,1.0,,,,,,,,,orange,triangle
0.0,8.0,4.0,1.0,5.0,0.0,0.0,1.0,1.0,phase_2,stop,400.0,500.0,4.0,,,,,,,,,orange,triangle
0.0,8.0,4.0,1.0,6.0,6.0,657.050702000106,1.0,1.0,phase_2,stop,450.0,500.0,3.0,,,,,,,,,orange,triangle
0.0,5.0,0.5,1.0,5.0,5.0,786.8099359998268,1.0,1.0,phase_2,go,450.0,450.0,1.0,,,,,,,,,cyan,diamond
0.0,8.0,4.0,1.0,5.0,0.0,0.0,1.0,1.0,phase_2,stop,450.0,450.0,4.0,,,,,,,,,orange,triangle
0.0,8.0,4.0,1.0,5.0,0.0,0.0,1.0,1.0,phase_2,stop,500.0,450.0,4.0,,,,,,,,,orange,triangle
0.0,2.0,1.0,0.0,5.0,5.0,633.9086079997287,1.0,1.0,phase_2,go,550.0,450.0,1.0,,,,,,,,,green,hexagon
0.0,3.0,2.0,0.0,6.0,6.0,519.170726000084,2.0,1.0,phase_2,go,550.0,450.0,1.0,,,,,,,,,yellow,cross
0.0,1.0,0.5,0.0,6.0,6.0,514.5476640000197,2.0,1.0,phase_2,go,550.0,450.0,1.0,,,,,,,,,gray,circle
0.0,3.0,2.0,0.0,5.0,5.0,567.6826810004059,2.0,1.0,phase_2,go,550.0,450.0,1.0,,,,,,,,,yellow,cross
0.0,3.0,2.0,0.0,5.0,5.0,685.0367219999498,2.0,1.0,phase_2,go,550.0,450.0,1.0,,,,,,,,,yellow,cross
0.0,2.0,1.0,0.0,5.0,5.0,550.0821220002763,2.0,1.0,phase_2,go,550.0,450.0,1.0,,,,,,,,,green,hexagon
0.0,3.0,2.0,0.0,5.0,5.0,695.9289159999571,2.0,1.0,phase_2,go,550.0,450.0,1.0,,,,,,,,,yellow,cross
0.0,6.0,1.0,1.0,5.0,5.0,413.0064620003395,2.0,1.0,phase_2,stop,550.0,450.0,3.0,,,,,,,,,white,flipped triangle
0.0,5.0,0.5,1.0,6.0,0.0,0.0,2.0,1.0,phase_2,stop,500.0,450.0,4.0,,,,,,,,,cyan,diamond
0.0,1.0,0.5,0.0,5.0,5.0,653.605546000108,2.0,1.0,phase_2,go,500.0,500.0,1.0,,,,,,,,,gray,circle
0.0,2.0,1.0,0.0,6.0,6.0,698.800275999929,2.0,1.0,phase_2,go,500.0,500.0,1.0,,,,,,,,,green,hexagon
0.0,6.0,1.0,1.0,6.0,6.0,665.1584040000671,2.0,1.0,phase_2,stop,500.0,500.0,3.0,,,,,,,,,white,flipped triangle
0.0,7.0,2.0,1.0,6.0,6.0,783.4333809996679,2.0,1.0,phase_2,go,500.0,450.0,1.0,,,,,,,,,blue,square
0.0,1.0,0.5,0.0,5.0,5.0,697.116136999739,2.0,1.0,phase_2,go,500.0,450.0,1.0,,,,,,,,,gray,circle
0.0,8.0,4.0,1.0,6.0,6.0,482.568607000303,2.0,1.0,phase_2,go,500.0,450.0,1.0,,,,,,,,,orange,triangle
0.0,8.0,4.0,1.0,5.0,0.0,0.0,2.0,1.0,phase_2,stop,500.0,450.0,4.0,,,,,,,,,orange,triangle
0.0,3.0,2.0,0.0,5.0,5.0,805.7550409998839,2.0,1.0,phase_2,go,550.0,450.0,1.0,,,,,,,,,yellow,cross
0.0,4.0,4.0,0.0,6.0,6.0,477.8534229999422,2.0,1.0,phase_2,go,550.0,450.0,1.0,,,,,,,,,magenta,I
0.0,6.0,1.0,1.0,5.0,5.0,671.914033000121,2.0,1.0,phase_2,stop,550.0,450.0,3.0,,,,,,,,,white,flipped triangle
0.0,3.0,2.0,0.0,6.0,6.0,816.0742059999393,2.0,1.0,phase_2,go,500.0,450.0,1.0,,,,,,,,,yellow,cross
0.0,4.0,4.0,0.0,6.0,6.0,754.9521199998708,2.0,1.0,phase_2,go,500.0,450.0,1.0,,,,,,,,,magenta,I
0.0,6.0,1.0,1.0,6.0,0.0,0.0,2.0,1.0,phase_2,stop,500.0,450.0,4.0,,,,,,,,,white,flipped triangle
0.0,4.0,4.0,0.0,6.0,6.0,685.7155309999143,2.0,1.0,phase_2,go,500.0,500.0,1.0,,,,,,,,,magenta,I
0.0,1.0,0.5,0.0,5.0,5.0,708.6941150000712,2.0,1.0,phase_2,go,500.0,500.0,1.0,,,,,,,,,gray,circle
0.0,7.0,2.0,1.0,5.0,5.0,585.624370000005,2.0,1.0,phase_2,stop,500.0,500.0,3.0,,,,,,,,,blue,square
0.0,4.0,4.0,0.0,5.0,5.0,685.9615460002715,2.0,1.0,phase_2,go,450.0,500.0,1.0,,,,,,,,,magenta,I
0.0,7.0,2.0,1.0,6.0,6.0,657.4022150002747,2.0,1.0,phase_2,go,450.0,500.0,1.0,,,,,,,,,blue,square
0.0,6.0,1.0,1.0,6.0,0.0,0.0,2.0,1.0,phase_2,stop,450.0,500.0,4.0,,,,,,,,,white,flipped triangle
0.0,7.0,2.0,1.0,5.0,0.0,0.0,2.0,1.0,phase_2,stop,450.0,550.0,4.0,,,,,,,,,blue,square
0.0,5.0,0.5,1.0,5.0,5.0,669.0061609997429,2.0,1.0,phase_2,stop,500.0,550.0,3.0,,,,,,,,,cyan,diamond
0.0,6.0,1.0,1.0,5.0,5.0,856.4584989999275,2.0,1.0,phase_2,go,450.0,550.0,1.0,,,,,,,,,white,flipped triangle
0.0,6.0,1.0,1.0,5.0,5.0,770.2057000001332,2.0,1.0,phase_2,go,450.0,550.0,1.0,,,,,,,,,white,flipped triangle
0.0,5.0,0.5,1.0,5.0,5.0,890.8629919997111,2.0,1.0,phase_2,go,450.0,550.0,1.0,,,,,,,,,cyan,diamond
0.0,1.0,0.5,0.0,5.0,5.0,691.6321270000481,2.0,1.0,phase_2,go,450.0,550.0,1.0,,,,,,,,,gray,circle
0.0,1.0,0.5,0.0,6.0,6.0,833.3043060001728,2.0,1.0,phase_2,go,450.0,550.0,1.0,,,,,,,,,gray,circle
0.0,7.0,2.0,1.0,5.0,0.0,0.0,2.0,1.0,phase_2,stop,450.0,550.0,4.0,,,,,,,,,blue,square
0.0,6.0,1.0,1.0,6.0,0.0,0.0,2.0,1.0,phase_2,stop,500.0,550.0,4.0,,,,,,,,,white,flipped triangle
0.0,1.0,0.5,0.0,6.0,6.0,657.1871739997732,3.0,1.0,phase_2,go,500.0,600.0,1.0,,,,,,,,,gray,circle
0.0,4.0,4.0,0.0,6.0,6.0,451.8799349998517,3.0,1.0,phase_2,go,500.0,600.0,1.0,,,,,,,,,magenta,I
0.0,2.0,1.0,0.0,6.0,6.0,749.3809289999263,3.0,1.0,phase_2,go,500.0,600.0,1.0,,,,,,,,,green,hexagon
0.0,4.0,4.0,0.0,5.0,5.0,417.3406510003588,3.0,1.0,phase_2,go,500.0,600.0,1.0,,,,,,,,,magenta,I
0.0,4.0,4.0,0.0,6.0,6.0,529.1497690000142,3.0,1.0,phase_2,go,500.0,600.0,1.0,,,,,,,,,magenta,I
0.0,8.0,4.0,1.0,5.0,5.0,585.3734870001972,3.0,1.0,phase_2,go,500.0,600.0,1.0,,,,,,,,,orange,triangle
0.0,6.0,1.0,1.0,6.0,6.0,503.8078620000306,3.0,1.0,phase_2,stop,500.0,600.0,3.0,,,,,,,,,white,flipped triangle
0.0,5.0,0.5,1.0,6.0,0.0,0.0,3.0,1.0,phase_2,stop,500.0,550.0,4.0,,,,,,,,,cyan,diamond
0.0,1.0,0.5,0.0,6.0,6.0,688.5012949996963,3.0,1.0,phase_2,go,500.0,600.0,1.0,,,,,,,,,gray,circle
0.0,1.0,0.5,0.0,5.0,5.0,760.8182489998399,3.0,1.0,phase_2,go,500.0,600.0,1.0,,,,,,,,,gray,circle
0.0,4.0,4.0,0.0,5.0,5.0,769.9379989999215,3.0,1.0,phase_2,go,500.0,600.0,1.0,,,,,,,,,magenta,I
0.0,7.0,2.0,1.0,5.0,0.0,0.0,3.0,1.0,phase_2,stop,500.0,600.0,4.0,,,,,,,,,blue,square
0.0,1.0,0.5,0.0,5.0,5.0,790.0670829999399,3.0,1.0,phase_2,go,550.0,600.0,1.0,,,,,,,,,gray,circle
0.0,2.0,1.0,0.0,6.0,6.0,596.8617439998525,3.0,1.0,phase_2,go,550.0,600.0,1.0,,,,,,,,,green,hexagon
0.0,7.0,2.0,1.0,6.0,6.0,640.6945019998602,3.0,1.0,phase_2,stop,550.0,600.0,3.0,,,,,,,,,blue,square
0.0,8.0,4.0,1.0,6.0,0.0,0.0,3.0,1.0,phase_2,stop,550.0,550.0,4.0,,,,,,,,,orange,triangle
0.0,2.0,1.0,0.0,6.0,6.0,688.9547920000041,3.0,1.0,phase_2,go,550.0,600.0,1.0,,,,,,,,,green,hexagon
0.0,4.0,4.0,0.0,6.0,6.0,694.3885870000486,3.0,1.0,phase_2,go,550.0,600.0,1.0,,,,,,,,,magenta,I
0.0,8.0,4.0,1.0,6.0,0.0,0.0,3.0,1.0,phase_2,stop,550.0,600.0,4.0,,,,,,,,,orange,triangle
0.0,8.0,4.0,1.0,5.0,5.0,680.5894040003295,3.0,1.0,phase_2,stop,550.0,650.0,3.0,,,,,,,,,orange,triangle
0.0,2.0,1.0,0.0,6.0,6.0,995.3623239998706,3.0,1.0,phase_2,go,500.0,650.0,1.0,,,,,,,,,green,hexagon
0.0,6.0,1.0,1.0,6.0,6.0,601.4543750002304,3.0,1.0,phase_2,go,500.0,650.0,1.0,,,,,,,,,white,flipped triangle
0.0,4.0,4.0,0.0,5.0,5.0,643.8525309999932,3.0,1.0,phase_2,go,500.0,650.0,1.0,,,,,,,,,magenta,I
0.0,6.0,1.0,1.0,6.0,6.0,760.4149339999822,3.0,1.0,phase_2,stop,500.0,650.0,3.0,,,,,,,,,white,flipped triangle
0.0,2.0,1.0,0.0,6.0,6.0,817.2733760002302,3.0,1.0,phase_2,go,500.0,600.0,1.0,,,,,,,,,green,hexagon
0.0,7.0,2.0,1.0,5.0,0.0,0.0,3.0,1.0,phase_2,stop,500.0,600.0,4.0,,,,,,,,,blue,square
0.0,8.0,4.0,1.0,6.0,6.0,586.537287000283,3.0,1.0,phase_2,stop,550.0,600.0,3.0,,,,,,,,,orange,triangle
0.0,3.0,2.0,0.0,6.0,6.0,545.8362350000243,3.0,1.0,phase_2,go,550.0,550.0,1.0,,,,,,,,,yellow,cross
0.0,7.0,2.0,1.0,5.0,5.0,526.9243339998866,3.0,1.0,phase_2,stop,550.0,550.0,3.0,,,,,,,,,blue,square
0.0,4.0,4.0,0.0,6.0,6.0,679.3775189998996,3.0,1.0,phase_2,go,500.0,550.0,1.0,,,,,,,,,magenta,I
0.0,5.0,0.5,1.0,5.0,0.0,0.0,3.0,1.0,phase_2,stop,500.0,550.0,4.0,,,,,,,,,cyan,diamond
0.0,6.0,1.0,1.0,6.0,0.0,0.0,3.0,1.0,phase_2,stop,550.0,550.0,4.0,,,,,,,,,white,flipped triangle
0.0,6.0,1.0,1.0,6.0,6.0,758.4165060002306,3.0,1.0,phase_2,go,550.0,600.0,1.0,,,,,,,,,white,flipped triangle
0.0,4.0,4.0,0.0,5.0,5.0,693.5974130001341,3.0,1.0,phase_2,go,550.0,600.0,1.0,,,,,,,,,magenta,I
0.0,1.0,0.5,0.0,5.0,5.0,963.8502060001885,3.0,1.0,phase_2,go,550.0,600.0,1.0,,,,,,,,,gray,circle
0.0,6.0,1.0,1.0,6.0,6.0,716.1413100002392,3.0,1.0,phase_2,stop,550.0,600.0,3.0,,,,,,,,,white,flipped triangle
0.0,4.0,4.0,0.0,5.0,5.0,662.8671280000162,4.0,1.0,phase_2,go,550.0,550.0,1.0,,,,,,,,,magenta,I
0.0,2.0,1.0,0.0,5.0,5.0,786.8712880003841,4.0,1.0,phase_2,go,550.0,550.0,1.0,,,,,,,,,green,hexagon
0.0,4.0,4.0,0.0,6.0,6.0,777.1265400001539,4.0,1.0,phase_2,go,550.0,550.0,1.0,,,,,,,,,magenta,I
0.0,8.0,4.0,1.0,5.0,0.0,0.0,4.0,1.0,phase_2,stop,550.0,550.0,4.0,,,,,,,,,orange,triangle
0.0,5.0,0.5,1.0,6.0,6.0,634.4258960002662,4.0,1.0,phase_2,stop,600.0,550.0,3.0,,,,,,,,,cyan,diamond
0.0,8.0,4.0,1.0,5.0,5.0,730.2523479997944,4.0,1.0,phase_2,stop,600.0,500.0,3.0,,,,,,,,,orange,triangle
0.0,4.0,4.0,0.0,5.0,5.0,662.3307489999206,4.0,1.0,phase_2,go,550.0,500.0,1.0,,,,,,,,,magenta,I
0.0,1.0,0.5,0.0,6.0,6.0,887.048256000071,4.0,1.0,phase_2,go,550.0,500.0,1.0,,,,,,,,,gray,circle
0.0,2.0,1.0,0.0,5.0,5.0,623.8829339999938,4.0,1.0,phase_2,go,550.0,500.0,1.0,,,,,,,,,green,hexagon
0.0,4.0,4.0,0.0,6.0,6.0,494.2864870004086,4.0,1.0,phase_2,go,550.0,500.0,1.0,,,,,,,,,magenta,I
0.0,3.0,2.0,0.0,5.0,5.0,604.5165629998337,4.0,1.0,phase_2,go,550.0,500.0,1.0,,,,,,,,,yellow,cross
0.0,1.0,0.5,0.0,5.0,5.0,678.4708249997493,4.0,1.0,phase_2,go,550.0,500.0,1.0,,,,,,,,,gray,circle
0.0,5.0,0.5,1.0,6.0,6.0,624.3094070000552,4.0,1.0,phase_2,stop,550.0,500.0,3.0,,,,,,,,,cyan,diamond
0.0,7.0,2.0,1.0,6.0,0.0,0.0,4.0,1.0,phase_2,stop,550.0,450.0,4.0,,,,,,,,,blue,square
0.0,8.0,4.0,1.0,6.0,6.0,607.4686110000584,4.0,1.0,phase_2,stop,550.0,500.0,3.0,,,,,,,,,orange,triangle
0.0,5.0,0.5,1.0,6.0,6.0,760.1474129996859,4.0,1.0,phase_2,go,550.0,450.0,1.0,,,,,,,,,cyan,diamond
0.0,6.0,1.0,1.0,5.0,0.0,0.0,4.0,1.0,phase_2,stop,550.0,450.0,4.0,,,,,,,,,white,flipped triangle
0.0,2.0,1.0,0.0,6.0,6.0,616.8024010003137,4.0,1.0,phase_2,go,600.0,450.0,1.0,,,,,,,,,green,hexagon
0.0,7.0,2.0,1.0,5.0,0.0,0.0,4.0,1.0,phase_2,stop,600.0,450.0,4.0,,,,,,,,,blue,square
0.0,1.0,0.5,0.0,5.0,5.0,655.6934529999126,4.0,1.0,phase_2,go,650.0,450.0,1.0,,,,,,,,,gray,circle
0.0,5.0,0.5,1.0,5.0,5.0,818.6382899998534,4.0,1.0,phase_2,stop,650.0,450.0,3.0,,,,,,,,,cyan,diamond
0.0,1.0,0.5,0.0,6.0,6.0,692.1202910002648,4.0,1.0,phase_2,go,600.0,450.0,1.0,,,,,,,,,gray,circle
0.0,7.0,2.0,1.0,5.0,0.0,0.0,4.0,1.0,phase_2,stop,600.0,450.0,4.0,,,,,,,,,blue,square
0.0,3.0,2.0,0.0,5.0,5.0,756.3843169996289,4.0,1.0,phase_2,go,650.0,450.0,1.0,,,,,,,,,yellow,cross
0.0,6.0,1.0,1.0,6.0,0.0,0.0,4.0,1.0,phase_2,stop,650.0,450.0,4.0,,,,,,,,,white,flipped triangle
0.0,5.0,0.5,1.0,6.0,6.0,740.742611999849,4.0,1.0,phase_2,go,650.0,500.0,1.0,,,,,,,,,cyan,diamond
0.0,6.0,1.0,1.0,5.0,0.0,0.0,4.0,1.0,phase_2,stop,650.0,500.0,4.0,,,,,,,,,white,flipped triangle
0.0,8.0,4.0,1.0,6.0,0.0,0.0,4.0,1.0,phase_2,stop,700.0,500.0,4.0,,,,,,,,,orange,triangle
0.0,4.0,4.0,0.0,6.0,6.0,756.6302719997111,4.0,1.0,phase_2,go,700.0,550.0,1.0,,,,,,,,,magenta,I
0.0,4.0,4.0,0.0,6.0,6.0,835.3253029999905,4.0,1.0,phase_2,go,700.0,550.0,1.0,,,,,,,,,magenta,I
0.0,3.0,2.0,0.0,6.0,6.0,899.0184469998894,4.0,1.0,phase_2,go,700.0,550.0,1.0,,,,,,,,,yellow,cross
0.0,5.0,0.5,1.0,6.0,0.0,0.0,4.0,1.0,phase_2,stop,700.0,550.0,4.0,,,,,,,,,cyan,diamond
0.0,7.0,2.0,1.0,6.0,6.0,688.4270850000576,4.0,1.0,phase_2,go,700.0,600.0,1.0,,,,,,,,,blue,square
0.0,8.0,4.0,1.0,6.0,0.0,0.0,4.0,1.0,phase_2,stop,700.0,600.0,4.0,,,,,,,,,orange,triangle
0.0,3.0,2.0,0.0,5.0,5.0,506.10307900024054,4.0,1.0,phase_2,go,700.0,650.0,1.0,,,,,,,,,yellow,cross
0.0,2.0,1.0,0.0,5.0,5.0,964.37495400005,4.0,1.0,phase_2,go,700.0,650.0,1.0,,,,,,,,,green,hexagon
0.0,4.0,4.0,0.0,6.0,6.0,335.8909789999416,5.0,1.0,phase_2,go,700.0,650.0,1.0,,,,,,,,,magenta,I
0.0,8.0,4.0,1.0,6.0,6.0,802.8074149997337,5.0,1.0,phase_2,go,700.0,650.0,1.0,,,,,,,,,orange,triangle
0.0,7.0,2.0,1.0,5.0,5.0,731.7823549997229,5.0,1.0,phase_2,go,700.0,650.0,1.0,,,,,,,,,blue,square
0.0,5.0,0.5,1.0,6.0,6.0,629.2117660000258,5.0,1.0,phase_2,stop,700.0,650.0,3.0,,,,,,,,,cyan,diamond
0.0,6.0,1.0,1.0,6.0,6.0,662.7276590002111,5.0,1.0,phase_2,go,700.0,600.0,1.0,,,,,,,,,white,flipped triangle
0.0,8.0,4.0,1.0,6.0,6.0,756.7472400000952,5.0,1.0,phase_2,stop,700.0,600.0,3.0,,,,,,,,,orange,triangle
0.0,3.0,2.0,0.0,6.0,6.0,910.3636869999718,5.0,1.0,phase_2,go,700.0,550.0,1.0,,,,,,,,,yellow,cross
0.0,7.0,2.0,1.0,5.0,5.0,564.0049190001264,5.0,1.0,phase_2,stop,700.0,550.0,3.0,,,,,,,,,blue,square
0.0,5.0,0.5,1.0,5.0,5.0,575.2474549999533,5.0,1.0,phase_2,go,650.0,550.0,1.0,,,,,,,,,cyan,diamond
0.0,5.0,0.5,1.0,6.0,0.0,0.0,5.0,1.0,phase_2,stop,650.0,550.0,4.0,,,,,,,,,cyan,diamond
0.0,5.0,0.5,1.0,6.0,0.0,0.0,5.0,1.0,phase_2,stop,650.0,600.0,4.0,,,,,,,,,cyan,diamond
0.0,1.0,0.5,0.0,5.0,5.0,880.6938170000649,5.0,1.0,phase_2,go,650.0,650.0,1.0,,,,,,,,,gray,circle
0.0,2.0,1.0,0.0,6.0,6.0,924.2184169997928,5.0,1.0,phase_2,go,650.0,650.0,1.0,,,,,,,,,green,hexagon
0.0,7.0,2.0,1.0,6.0,6.0,774.2525510002451,5.0,1.0,phase_2,stop,650.0,650.0,3.0,,,,,,,,,blue,square
0.0,6.0,1.0,1.0,6.0,0.0,0.0,5.0,1.0,phase_2,stop,650.0,600.0,4.0,,,,,,,,,white,flipped triangle
0.0,6.0,1.0,1.0,5.0,5.0,773.7768090000827,5.0,1.0,phase_2,go,650.0,650.0,1.0,,,,,,,,,white,flipped triangle
0.0,5.0,0.5,1.0,5.0,5.0,743.6166490001597,5.0,1.0,phase_2,stop,650.0,650.0,3.0,,,,,,,,,cyan,diamond
0.0,2.0,1.0,0.0,6.0,6.0,686.2065619998248,5.0,1.0,phase_2,go,600.0,650.0,1.0,,,,,,,,,green,hexagon
0.0,7.0,2.0,1.0,6.0,0.0,0.0,5.0,1.0,phase_2,stop,600.0,650.0,4.0,,,,,,,,,blue,square
0.0,7.0,2.0,1.0,5.0,5.0,651.767413000016,5.0,1.0,phase_2,stop,600.0,700.0,3.0,,,,,,,,,blue,square
0.0,7.0,2.0,1.0,5.0,5.0,656.5225710000959,5.0,1.0,phase_2,stop,550.0,700.0,3.0,,,,,,,,,blue,square
0.0,2.0,1.0,0.0,5.0,5.0,738.498791999973,5.0,1.0,phase_2,go,500.0,700.0,1.0,,,,,,,,,green,hexagon
0.0,4.0,4.0,0.0,5.0,5.0,927.253685999858,5.0,1.0,phase_2,go,500.0,700.0,1.0,,,,,,,,,magenta,I
0.0,5.0,0.5,1.0,5.0,0.0,0.0,5.0,1.0,phase_2,stop,500.0,700.0,4.0,,,,,,,,,cyan,diamond
0.0,1.0,0.5,0.0,5.0,5.0,768.0060849997972,5.0,1.0,phase_2,go,550.0,700.0,1.0,,,,,,,,,gray,circle
0.0,6.0,1.0,1.0,5.0,0.0,0.0,5.0,1.0,phase_2,stop,550.0,700.0,4.0,,,,,,,,,white,flipped triangle
0.0,6.0,1.0,1.0,5.0,5.0,648.9834170001814,5.0,1.0,phase_2,stop,600.0,700.0,3.0,,,,,,,,,white,flipped triangle
0.0,2.0,1.0,0.0,5.0,5.0,776.7358470000545,5.0,1.0,phase_2,go,550.0,700.0,1.0,,,,,,,,,green,hexagon
0.0,8.0,4.0,1.0,5.0,0.0,0.0,5.0,1.0,phase_2,stop,550.0,700.0,4.0,,,,,,,,,orange,triangle
0.0,8.0,4.0,1.0,5.0,0.0,0.0,5.0,1.0,phase_2,stop,600.0,700.0,4.0,,,,,,,,,orange,triangle
0.0,6.0,1.0,1.0,5.0,5.0,750.7008819998191,5.0,1.0,phase_2,go,650.0,700.0,1.0,,,,,,,,,white,flipped triangle
0.0,4.0,4.0,0.0,6.0,6.0,842.3182729998189,5.0,1.0,phase_2,go,650.0,700.0,1.0,,,,,,,,,magenta,I
0.0,6.0,1.0,1.0,5.0,5.0,830.9187079998992,5.0,1.0,phase_2,go,650.0,700.0,1.0,,,,,,,,,white,flipped triangle
0.0,6.0,1.0,1.0,5.0,5.0,733.9942140001767,5.0,1.0,phase_2,stop,650.0,700.0,3.0,,,,,,,,,white,flipped triangle
0.0,3.0,2.0,0.0,5.0,5.0,728.8082160002887,5.0,1.0,phase_2,go,600.0,700.0,1.0,,,,,,,,,yellow,cross
0.0,3.0,2.0,0.0,6.0,6.0,772.5099130002491,5.0,1.0,phase_2,go,600.0,700.0,1.0,,,,,,,,,yellow,cross
0.0,5.0,0.5,1.0,5.0,5.0,443.6897140003566,6.0,1.0,phase_2,stop,600.0,700.0,3.0,,,,,,,,,cyan,diamond
0.0,4.0,4.0,0.0,5.0,5.0,613.0835639996803,6.0,1.0,phase_2,go,550.0,700.0,1.0,,,,,,,,,magenta,I
0.0,3.0,2.0,0.0,6.0,6.0,390.8289020000666,6.0,1.0,phase_2,go,550.0,700.0,1.0,,,,,,,,,yellow,cross
0.0,8.0,4.0,1.0,5.0,5.0,307.8687239999453,6.0,1.0,phase_2,stop,550.0,700.0,3.0,,,,,,,,,orange,triangle
0.0,6.0,1.0,1.0,5.0,5.0,630.7601190001151,6.0,1.0,phase_2,stop,500.0,700.0,3.0,,,,,,,,,white,flipped triangle
0.0,1.0,0.5,0.0,5.0,5.0,510.1148210001156,6.0,1.0,phase_2,go,450.0,700.0,1.0,,,,,,,,,gray,circle
0.0,1.0,0.5,0.0,6.0,6.0,411.2115129996709,6.0,1.0,phase_2,go,450.0,700.0,1.0,,,,,,,,,gray,circle
0.0,6.0,1.0,1.0,5.0,0.0,0.0,6.0,1.0,phase_2,stop,450.0,700.0,4.0,,,,,,,,,white,flipped triangle
0.0,7.0,2.0,1.0,5.0,5.0,392.6516209999136,6.0,1.0,phase_2,go,500.0,700.0,1.0,,,,,,,,,blue,square
0.0,3.0,2.0,0.0,5.0,5.0,553.4896439999102,6.0,1.0,phase_2,go,500.0,700.0,1.0,,,,,,,,,yellow,cross
0.0,5.0,0.5,1.0,5.0,5.0,614.685050999924,6.0,1.0,phase_2,go,500.0,700.0,1.0,,,,,,,,,cyan,diamond
0.0,4.0,4.0,0.0,5.0,5.0,791.2121379999917,6.0,1.0,phase_2,go,500.0,700.0,1.0,,,,,,,,,magenta,I
0.0,3.0,2.0,0.0,5.0,5.0,731.7371259996435,6.0,1.0,phase_2,go,500.0,700.0,1.0,,,,,,,,,yellow,cross
0.0,7.0,2.0,1.0,6.0,6.0,581.9169080000393,6.0,1.0,phase_2,stop,500.0,700.0,3.0,,,,,,,,,blue,square
0.0,4.0,4.0,0.0,6.0,6.0,493.9043320000564,6.0,1.0,phase_2,go,500.0,650.0,1.0,,,,,,,,,magenta,I
0.0,7.0,2.0,1.0,5.0,5.0,469.9369180002577,6.0,1.0,phase_2,stop,500.0,650.0,3.0,,,,,,,,,blue,square
0.0,7.0,2.0,1.0,6.0,6.0,362.1357840002019,6.0,1.0,phase_2,stop,450.0,650.0,3.0,,,,,,,,,blue,square
0.0,8.0,4.0,1.0,6.0,6.0,513.4892569999465,6.0,1.0,phase_2,go,450.0,600.0,1.0,,,,,,,,,orange,triangle
0.0,7.0,2.0,1.0,6.0,6.0,310.4775870001504,6.0,1.0,phase_2,go,450.0,600.0,1.0,,,,,,,,,blue,square
0.0,8.0,4.0,1.0,6.0,6.0,333.3107280000149,6.0,1.0,phase_2,stop,450.0,600.0,3.0,,,,,,,,,orange,triangle
0.0,8.0,4.0,1.0,6.0,6.0,581.8779360001827,6.0,1.0,phase_2,stop,450.0,550.0,3.0,,,,,,,,,orange,triangle
0.0,6.0,1.0,1.0,6.0,6.0,369.1254489999664,6.0,1.0,phase_2,stop,450.0,500.0,3.0,,,,,,,,,white,flipped triangle
0.0,1.0,0.5,0.0,6.0,6.0,494.9858219997622,6.0,1.0,phase_2,go,450.0,450.0,1.0,,,,,,,,,gray,circle
0.0,7.0,2.0,1.0,6.0,6.0,476.3685159996385,6.0,1.0,phase_2,go,450.0,450.0,1.0,,,,,,,,,blue,square
0.0,6.0,1.0,1.0,6.0,6.0,489.869009999893,6.0,1.0,phase_2,stop,450.0,450.0,3.0,,,,,,,,,white,flipped triangle
0.0,1.0,0.5,0.0,6.0,6.0,315.0615680001465,6.0,1.0,phase_2,go,450.0,400.0,1.0,,,,,,,,,gray,circle
0.0,2.0,1.0,0.0,5.0,5.0,393.3388700002069,6.0,1.0,phase_2,go,450.0,400.0,1.0,,,,,,,,,green,hexagon
0.0,5.0,0.5,1.0,6.0,6.0,508.37187100023584,6.0,1.0,phase_2,stop,450.0,400.0,3.0,,,,,,,,,cyan,diamond
0.0,1.0,0.5,0.0,5.0,5.0,557.195492000119,6.0,1.0,phase_2,go,450.0,350.0,1.0,,,,,,,,,gray,circle
0.0,5.0,0.5,1.0,6.0,6.0,380.7692829996085,6.0,1.0,phase_2,stop,450.0,350.0,3.0,,,,,,,,,cyan,diamond
0.0,2.0,1.0,0.0,6.0,6.0,343.8944240001547,6.0,1.0,phase_2,go,450.0,300.0,1.0,,,,,,,,,green,hexagon
0.0,2.0,1.0,0.0,6.0,6.0,571.1575370000901,6.0,1.0,phase_2,go,450.0,300.0,1.0,,,,,,,,,green,hexagon
0.0,3.0,2.0,0.0,6.0,6.0,569.5470699997713,6.0,1.0,phase_2,go,450.0,300.0,1.0,,,,,,,,,yellow,cross
0.0,4.0,4.0,0.0,6.0,6.0,805.5459140000494,6.0,1.0,phase_2,go,450.0,300.0,1.0,,,,,,,,,magenta,I
0.0,3.0,2.0,0.0,5.0,5.0,320.9321130002536,6.0,1.0,phase_2,go,450.0,300.0,1.0,,,,,,,,,yellow,cross
0.0,6.0,1.0,1.0,5.0,5.0,551.7330589996163,6.0,1.0,phase_2,stop,450.0,300.0,3.0,,,,,,,,,white,flipped triangle
0.0,8.0,4.0,1.0,6.0,6.0,413.3971760002168,7.0,1.0,phase_2,go,400.0,300.0,1.0,,,,,,,,,orange,triangle
0.0,5.0,0.5,1.0,5.0,5.0,324.6829660001822,7.0,1.0,phase_2,go,400.0,300.0,1.0,,,,,,,,,cyan,diamond
0.0,1.0,0.5,0.0,6.0,6.0,311.556322999877,7.0,1.0,phase_2,go,400.0,300.0,1.0,,,,,,,,,gray,circle
0.0,3.0,2.0,0.0,6.0,6.0,593.7636569997267,7.0,1.0,phase_2,go,400.0,300.0,1.0,,,,,,,,,yellow,cross
0.0,4.0,4.0,0.0,5.0,5.0,568.9887389999058,7.0,1.0,phase_2,go,400.0,300.0,1.0,,,,,,,,,magenta,I
0.0,2.0,1.0,0.0,6.0,6.0,395.7177610000144,7.0,1.0,phase_2,go,400.0,300.0,1.0,,,,,,,,,green,hexagon
0.0,8.0,4.0,1.0,5.0,5.0,405.0298349998229,7.0,1.0,phase_2,go,400.0,300.0,1.0,,,,,,,,,orange,triangle
0.0,3.0,2.0,0.0,5.0,5.0,389.7158150002724,7.0,1.0,phase_2,go,400.0,300.0,1.0,,,,,,,,,yellow,cross
0.0,8.0,4.0,1.0,5.0,5.0,323.9027629997508,7.0,1.0,phase_2,stop,400.0,300.0,3.0,,,,,,,,,orange,triangle
0.0,2.0,1.0,0.0,6.0,6.0,486.2848520001535,7.0,1.0,phase_2,go,350.0,300.0,1.0,,,,,,,,,green,hexagon
0.0,4.0,4.0,0.0,6.0,6.0,461.9450119998873,7.0,1.0,phase_2,go,350.0,300.0,1.0,,,,,,,,,magenta,I
0.0,3.0,2.0,0.0,5.0,5.0,442.8063440000187,7.0,1.0,phase_2,go,350.0,300.0,1.0,,,,,,,,,yellow,cross
0.0,7.0,2.0,1.0,6.0,6.0,289.6170980002353,7.0,1.0,phase_2,stop,350.0,300.0,3.0,,,,,,,,,blue,square
0.0,1.0,0.5,0.0,5.0,5.0,403.7542549999671,7.0,1.0,phase_2,go,350.0,250.0,1.0,,,,,,,,,gray,circle
0.0,3.0,2.0,0.0,6.0,6.0,328.3712769998601,7.0,1.0,phase_2,go,350.0,250.0,1.0,,,,,,,,,yellow,cross
0.0,1.0,0.5,0.0,6.0,6.0,567.423062999751,7.0,1.0,phase_2,go,350.0,250.0,1.0,,,,,,,,,gray,circle
0.0,7.0,2.0,1.0,6.0,0.0,0.0,7.0,1.0,phase_2,stop,350.0,250.0,4.0,,,,,,,,,blue,square
0.0,5.0,0.5,1.0,6.0,0.0,0.0,7.0,1.0,phase_2,stop,350.0,300.0,4.0,,,,,,,,,cyan,diamond
0.0,5.0,0.5,1.0,5.0,5.0,527.5172540000312,7.0,1.0,phase_2,go,350.0,350.0,1.0,,,,,,,,,cyan,diamond
0.0,4.0,4.0,0.0,5.0,5.0,343.4153469997909,7.0,1.0,phase_2,go,350.0,350.0,1.0,,,,,,,,,magenta,I
0.0,2.0,1.0,0.0,5.0,5.0,457.2252049997587,7.0,1.0,phase_2,go,350.0,350.0,1.0,,,,,,,,,green,hexagon
0.0,6.0,1.0,1.0,5.0,5.0,422.5149910002983,7.0,1.0,phase_2,stop,350.0,350.0,3.0,,,,,,,,,white,flipped triangle
0.0,2.0,1.0,0.0,5.0,5.0,530.0290899999709,7.0,1.0,phase_2,go,300.0,350.0,1.0,,,,,,,,,green,hexagon
0.0,7.0,2.0,1.0,5.0,5.0,355.172390000007,7.0,1.0,phase_2,stop,300.0,350.0,3.0,,,,,,,,,blue,square
0.0,1.0,0.5,0.0,5.0,5.0,494.6952749996853,7.0,1.0,phase_2,go,250.0,350.0,1.0,,,,,,,,,gray,circle
0.0,4.0,4.0,0.0,5.0,5.0,469.5021800002905,7.0,1.0,phase_2,go,250.0,350.0,1.0,,,,,,,,,magenta,I
0.0,4.0,4.0,0.0,5.0,5.0,612.0379429999048,7.0,1.0,phase_2,go,250.0,350.0,1.0,,,,,,,,,magenta,I
0.0,5.0,0.5,1.0,6.0,6.0,500.64782199979163,7.0,1.0,phase_2,go,250.0,350.0,1.0,,,,,,,,,cyan,diamond
0.0,5.0,0.5,1.0,5.0,0.0,0.0,7.0,1.0,phase_2,stop,250.0,350.0,4.0,,,,,,,,,cyan,diamond
0.0,2.0,1.0,0.0,6.0,6.0,540.451462999954,7.0,1.0,phase_2,go,300.0,350.0,1.0,,,,,,,,,green,hexagon
0.0,8.0,4.0,1.0,5.0,0.0,0.0,7.0,1.0,phase_2,stop,300.0,350.0,4.0,,,,,,,,,orange,triangle
0.0,7.0,2.0,1.0,6.0,6.0,395.865945999958,7.0,1.0,phase_2,stop,350.0,350.0,3.0,,,,,,,,,blue,square
0.0,3.0,2.0,0.0,6.0,6.0,483.9656479998666,7.0,1.0,phase_2,go,350.0,300.0,1.0,,,,,,,,,yellow,cross
0.0,3.0,2.0,0.0,6.0,6.0,497.2247259997857,7.0,1.0,phase_2,go,350.0,300.0,1.0,,,,,,,,,yellow,cross
0.0,1.0,0.5,0.0,6.0,6.0,516.652563000207,7.0,1.0,phase_2,go,350.0,300.0,1.0,,,,,,,,,gray,circle
0.0,8.0,4.0,1.0,6.0,6.0,371.6908579999654,7.0,1.0,phase_2,stop,350.0,300.0,3.0,,,,,,,,,orange,triangle
0.0,3.0,2.0,0.0,5.0,5.0,336.7619669998021,8.0,1.0,phase_2,go,350.0,250.0,1.0,,,,,,,,,yellow,cross
0.0,3.0,2.0,0.0,6.0,6.0,387.6037459999679,8.0,1.0,phase_2,go,350.0,250.0,1.0,,,,,,,,,yellow,cross
0.0,5.0,0.5,1.0,5.0,5.0,389.5306790000177,8.0,1.0,phase_2,stop,350.0,250.0,3.0,,,,,,,,,cyan,diamond
0.0,1.0,0.5,0.0,6.0,6.0,422.0646320000014,8.0,1.0,phase_2,go,300.0,250.0,1.0,,,,,,,,,gray,circle
0.0,1.0,0.5,0.0,6.0,6.0,489.6440760003315,8.0,1.0,phase_2,go,300.0,250.0,1.0,,,,,,,,,gray,circle
0.0,1.0,0.5,0.0,6.0,6.0,506.1824190001971,8.0,1.0,phase_2,go,300.0,250.0,1.0,,,,,,,,,gray,circle
0.0,7.0,2.0,1.0,5.0,5.0,436.6624589997627,8.0,1.0,phase_2,stop,300.0,250.0,3.0,,,,,,,,,blue,square
0.0,5.0,0.5,1.0,5.0,0.0,0.0,8.0,1.0,phase_2,stop,250.0,250.0,4.0,,,,,,,,,cyan,diamond
0.0,8.0,4.0,1.0,6.0,6.0,295.7512200000565,8.0,1.0,phase_2,go,300.0,250.0,1.0,,,,,,,,,orange,triangle
0.0,5.0,0.5,1.0,5.0,5.0,464.360256999953,8.0,1.0,phase_2,stop,300.0,250.0,3.0,,,,,,,,,cyan,diamond
0.0,6.0,1.0,1.0,6.0,0.0,0.0,8.0,1.0,phase_2,stop,250.0,250.0,4.0,,,,,,,,,white,flipped triangle
0.0,2.0,1.0,0.0,5.0,5.0,479.7007490001306,8.0,1.0,phase_2,go,250.0,300.0,1.0,,,,,,,,,green,hexagon
0.0,3.0,2.0,0.0,5.0,5.0,611.5162999999484,8.0,1.0,phase_2,go,250.0,300.0,1.0,,,,,,,,,yellow,cross
0.0,8.0,4.0,1.0,5.0,0.0,0.0,8.0,1.0,phase_2,stop,250.0,300.0,4.0,,,,,,,,,orange,triangle
0.0,5.0,0.5,1.0,6.0,0.0,0.0,8.0,1.0,phase_2,stop,300.0,300.0,4.0,,,,,,,,,cyan,diamond
0.0,2.0,1.0,0.0,5.0,5.0,565.6982529999368,8.0,1.0,phase_2,go,300.0,350.0,1.0,,,,,,,,,green,hexagon
0.0,2.0,1.0,0.0,5.0,5.0,566.8706389997169,8.0,1.0,phase_2,go,300.0,350.0,1.0,,,,,,,,,green,hexagon
0.0,7.0,2.0,1.0,5.0,5.0,619.2895499998485,8.0,1.0,phase_2,go,300.0,350.0,1.0,,,,,,,,,blue,square
0.0,6.0,1.0,1.0,5.0,5.0,569.5184910000535,8.0,1.0,phase_2,go,300.0,350.0,1.0,,,,,,,,,white,flipped triangle
0.0,3.0,2.0,0.0,6.0,6.0,415.9468190000552,8.0,1.0,phase_2,go,300.0,350.0,1.0,,,,,,,,,yellow,cross
0.0,7.0,2.0,1.0,6.0,0.0,0.0,8.0,1.0,phase_2,stop,300.0,350.0,4.0,,,,,,,,,blue,square
0.0,6.0,1.0,1.0,6.0,6.0,461.4341370001966,8.0,1.0,phase_2,stop,300.0,400.0,3.0,,,,,,,,,white,flipped triangle
0.0,4.0,4.0,0.0,5.0,5.0,310.5055249998258,8.0,1.0,phase_2,go,300.0,350.0,1.0,,,,,,,,,magenta,I
0.0,2.0,1.0,0.0,6.0,6.0,486.910330000228,8.0,1.0,phase_2,go,300.0,350.0,1.0,,,,,,,,,green,hexagon
0.0,1.0,0.5,0.0,6.0,6.0,477.3544330000732,8.0,1.0,phase_2,go,300.0,350.0,1.0,,,,,,,,,gray,circle
0.0,5.0,0.5,1.0,5.0,0.0,0.0,8.0,1.0,phase_2,stop,300.0,350.0,4.0,,,,,,,,,cyan,diamond
0.0,2.0,1.0,0.0,6.0,6.0,484.7901100001763,8.0,1.0,phase_2,go,350.0,350.0,1.0,,,,,,,,,green,hexagon
0.0,6.0,1.0,1.0,6.0,6.0,505.6843089996619,8.0,1.0,phase_2,stop,350.0,350.0,3.0,,,,,,,,,white,flipped triangle
0.0,3.0,2.0,0.0,5.0,5.0,505.32059200031654,8.0,1.0,phase_2,go,350.0,300.0,1.0,,,,,,,,,yellow,cross
0.0,4.0,4.0,0.0,6.0,6.0,603.4663939999518,8.0,1.0,phase_2,go,350.0,300.0,1.0,,,,,,,,,magenta,I
0.0,8.0,4.0,1.0,5.0,5.0,543.4194939998633,8.0,1.0,phase_2,go,350.0,300.0,1.0,,,,,,,,,orange,triangle
0.0,2.0,1.0,0.0,6.0,6.0,534.5711869999832,8.0,1.0,phase_2,go,350.0,300.0,1.0,,,,,,,,,green,hexagon
0.0,1.0,0.5,0.0,6.0,6.0,506.45450100000744,8.0,1.0,phase_2,go,350.0,300.0,1.0,,,,,,,,,gray,circle
0.0,3.0,2.0,0.0,6.0,6.0,473.495456999899,8.0,1.0,phase_2,go,350.0,300.0,1.0,,,,,,,,,yellow,cross
0.0,7.0,2.0,1.0,6.0,6.0,358.9221560000624,8.0,1.0,phase_2,stop,350.0,300.0,3.0,,,,,,,,,blue,square
0.0,3.0,2.0,0.0,5.0,5.0,438.3113080002658,8.0,1.0,phase_2,go,350.0,250.0,1.0,,,,,,,,,yellow,cross
0.0,4.0,4.0,0.0,7.0,3.0,2138.701910999771,1.0,1.0,phase_3,,,,,294.0,6.0,49.0,98.0,294.0,147.0,196.0,245.0,magenta,I
0.0,5.0,0.5,1.0,7.0,4.0,2327.2731339998245,1.0,1.0,phase_3,,,,,136.0,4.0,170.0,204.0,102.0,136.0,34.0,68.0,cyan,diamond
0.0,5.0,0.5,1.0,7.0,1.0,1831.715984999846,1.0,1.0,phase_3,,,,,324.0,6.0,324.0,270.0,54.0,162.0,108.0,216.0,cyan,diamond
0.0,5.0,0.5,1.0,7.0,4.0,2225.339969999822,1.0,1.0,phase_3,,,,,117.0,3.0,234.0,156.0,39.0,117.0,78.0,195.0,cyan,diamond
0.0,4.0,4.0,0.0,7.0,5.0,2390.098854000371,1.0,1.0,phase_3,,,,,234.0,6.0,156.0,117.0,78.0,39.0,234.0,195.0,magenta,I
0.0,6.0,1.0,1.0,7.0,2.0,1379.813863000436,1.0,1.0,phase_3,,,,,270.0,5.0,324.0,270.0,54.0,108.0,162.0,216.0,white,flipped triangle
0.0,6.0,1.0,1.0,7.0,4.0,1525.7991549997314,1.0,1.0,phase_3,,,,,294.0,6.0,98.0,49.0,147.0,294.0,196.0,245.0,white,flipped triangle
0.0,7.0,2.0,1.0,7.0,6.0,1473.458334000043,1.0,1.0,phase_3,,,,,270.0,5.0,108.0,216.0,324.0,162.0,54.0,270.0,blue,square
0.0,8.0,4.0,1.0,7.0,2.0,2118.105990000004,1.0,1.0,phase_3,,,,,49.0,1.0,196.0,49.0,98.0,294.0,245.0,147.0,orange,triangle
0.0,1.0,0.5,0.0,7.0,1.0,1092.3284809996403,1.0,1.0,phase_3,,,,,170.0,5.0,170.0,204.0,34.0,102.0,136.0,68.0,gray,circle
0.0,1.0,0.5,0.0,7.0,3.0,2344.5850460002475,1.0,1.0,phase_3,,,,,196.0,4.0,245.0,49.0,196.0,147.0,294.0,98.0,gray,circle
0.0,8.0,4.0,1.0,7.0,5.0,2226.7024010002388,1.0,1.0,phase_3,,,,,54.0,1.0,162.0,270.0,324.0,108.0,54.0,216.0,orange,triangle
0.0,2.0,1.0,0.0,7.0,1.0,2685.357081999882,1.0,1.0,phase_3,,,,,204.0,6.0,204.0,102.0,68.0,34.0,170.0,136.0,green,hexagon
0.0,3.0,2.0,0.0,7.0,3.0,1141.7845000000852,1.0,1.0,phase_3,,,,,245.0,5.0,196.0,49.0,245.0,147.0,294.0,98.0,yellow,cross
0.0,7.0,2.0,1.0,7.0,6.0,1211.1577279997618,1.0,1.0,phase_3,,,,,88.0,2.0,220.0,176.0,264.0,132.0,44.0,88.0,blue,square
0.0,4.0,4.0,0.0,7.0,3.0,1777.6120899998205,1.0,1.0,phase_3,,,,,170.0,5.0,102.0,204.0,170.0,68.0,136.0,34.0,magenta,I
0.0,5.0,0.5,1.0,7.0,4.0,1558.4661029997733,1.0,1.0,phase_3,,,,,216.0,4.0,270.0,108.0,324.0,216.0,54.0,162.0,cyan,diamond
0.0,5.0,0.5,1.0,7.0,1.0,2654.361262999828,1.0,1.0,phase_3,,,,,49.0,1.0,49.0,245.0,147.0,196.0,294.0,98.0,cyan,diamond
0.0,5.0,0.5,1.0,7.0,2.0,1183.057743000063,1.0,1.0,phase_3,,,,,44.0,1.0,132.0,44.0,176.0,220.0,88.0,264.0,cyan,diamond
0.0,7.0,2.0,1.0,7.0,4.0,2175.701395000033,1.0,1.0,phase_3,,,,,132.0,3.0,220.0,176.0,44.0,132.0,264.0,88.0,blue,square
0.0,6.0,1.0,1.0,7.0,5.0,1552.8491760001089,2.0,1.0,phase_3,,,,,264.0,6.0,176.0,132.0,220.0,44.0,264.0,88.0,white,flipped triangle
0.0,2.0,1.0,0.0,7.0,2.0,1778.658569000072,2.0,1.0,phase_3,,,,,270.0,5.0,162.0,270.0,108.0,324.0,54.0,216.0,green,hexagon
0.0,1.0,0.5,0.0,7.0,6.0,1598.770508999678,2.0,1.0,phase_3,,,,,147.0,3.0,49.0,245.0,98.0,196.0,294.0,147.0,gray,circle
0.0,8.0,4.0,1.0,7.0,5.0,2560.4876600000352,2.0,1.0,phase_3,,,,,195.0,5.0,39.0,156.0,78.0,234.0,195.0,117.0,orange,triangle
0.0,3.0,2.0,0.0,7.0,3.0,1208.2359999999426,2.0,1.0,phase_3,,,,,49.0,1.0,147.0,245.0,49.0,98.0,294.0,196.0,yellow,cross
0.0,4.0,4.0,0.0,7.0,2.0,1140.2504719999342,2.0,1.0,phase_3,,,,,270.0,5.0,162.0,270.0,108.0,324.0,54.0,216.0,magenta,I
0.0,4.0,4.0,0.0,7.0,4.0,1204.4197159998475,2.0,1.0,phase_3,,,,,264.0,6.0,132.0,220.0,88.0,264.0,176.0,44.0,magenta,I
0.0,3.0,2.0,0.0,7.0,1.0,2554.2060600000696,2.0,1.0,phase_3,,,,,39.0,1.0,39.0,195.0,78.0,156.0,234.0,117.0,yellow,cross
0.0,2.0,1.0,0.0,7.0,4.0,2530.9332970005016,2.0,1.0,phase_3,,,,,132.0,3.0,88.0,176.0,44.0,132.0,264.0,220.0,green,hexagon
0.0,3.0,2.0,0.0,7.0,5.0,1683.3955749998497,2.0,1.0,phase_3,,,,,108.0,2.0,270.0,216.0,162.0,54.0,108.0,324.0,yellow,cross
0.0,4.0,4.0,0.0,7.0,5.0,1750.4693820001194,2.0,1.0,phase_3,,,,,204.0,6.0,68.0,34.0,102.0,170.0,204.0,136.0,magenta,I
0.0,6.0,1.0,1.0,7.0,4.0,1833.234636999805,2.0,1.0,phase_3,,,,,34.0,1.0,170.0,136.0,204.0,34.0,102.0,68.0,white,flipped triangle
0.0,6.0,1.0,1.0,7.0,2.0,976.8347340004766,2.0,1.0,phase_3,,,,,39.0,1.0,195.0,39.0,234.0,78.0,117.0,156.0,white,flipped triangle
0.0,7.0,2.0,1.0,7.0,4.0,1271.9943290003357,2.0,1.0,phase_3,,,,,78.0,2.0,195.0,234.0,156.0,78.0,117.0,39.0,blue,square
0.0,6.0,1.0,1.0,7.0,2.0,1571.7410119996202,2.0,1.0,phase_3,,,,,54.0,1.0,216.0,54.0,108.0,270.0,162.0,324.0,white,flipped triangle
0.0,2.0,1.0,0.0,7.0,4.0,1184.3995899998845,2.0,1.0,phase_3,,,,,98.0,2.0,245.0,294.0,196.0,98.0,49.0,147.0,green,hexagon
0.0,7.0,2.0,1.0,7.0,3.0,1172.0252300001448,2.0,1.0,phase_3,,,,,170.0,5.0,102.0,68.0,170.0,34.0,204.0,136.0,blue,square
0.0,7.0,2.0,1.0,7.0,2.0,1401.9509310001013,2.0,1.0,phase_3,,,,,156.0,4.0,117.0,156.0,234.0,39.0,78.0,195.0,blue,square
0.0,7.0,2.0,1.0,7.0,4.0,1605.7691109999723,2.0,1.0,phase_3,,,,,147.0,3.0,294.0,245.0,98.0,147.0,49.0,196.0,blue,square
0.0,4.0,4.0,0.0,7.0,4.0,1310.3848740001922,2.0,1.0,phase_3,,,,,245.0,5.0,49.0,98.0,147.0,245.0,294.0,196.0,magenta,I
0.0,3.0,2.0,0.0,7.0,5.0,1123.03313800021,3.0,1.0,phase_3,,,,,88.0,2.0,264.0,132.0,44.0,220.0,88.0,176.0,yellow,cross
0.0,1.0,0.5,0.0,7.0,2.0,1044.5959989992843,3.0,1.0,phase_3,,,,,54.0,1.0,108.0,54.0,324.0,162.0,270.0,216.0,gray,circle
0.0,8.0,4.0,1.0,7.0,4.0,1615.040176000548,3.0,1.0,phase_3,,,,,324.0,6.0,54.0,162.0,216.0,324.0,108.0,270.0,orange,triangle
0.0,6.0,1.0,1.0,7.0,1.0,1033.1942259999778,3.0,1.0,phase_3,,,,,34.0,1.0,34.0,68.0,204.0,102.0,170.0,136.0,white,flipped triangle
0.0,2.0,1.0,0.0,7.0,3.0,1143.7490600001183,3.0,1.0,phase_3,,,,,132.0,3.0,176.0,88.0,132.0,44.0,220.0,264.0,green,hexagon
0.0,3.0,2.0,0.0,7.0,6.0,2301.48816000019,3.0,1.0,phase_3,,,,,176.0,4.0,132.0,44.0,220.0,88.0,264.0,176.0,yellow,cross
0.0,5.0,0.5,1.0,7.0,1.0,1618.0735789994287,3.0,1.0,phase_3,,,,,245.0,5.0,245.0,49.0,294.0,147.0,98.0,196.0,cyan,diamond
0.0,7.0,2.0,1.0,7.0,2.0,1161.0930240003654,3.0,1.0,phase_3,,,,,68.0,2.0,34.0,68.0,204.0,102.0,170.0,136.0,blue,square
0.0,6.0,1.0,1.0,7.0,2.0,1027.4381600002016,3.0,1.0,phase_3,,,,,44.0,1.0,132.0,44.0,176.0,220.0,88.0,264.0,white,flipped triangle
0.0,6.0,1.0,1.0,7.0,1.0,1027.3894740003016,3.0,1.0,phase_3,,,,,49.0,1.0,49.0,98.0,245.0,147.0,294.0,196.0,white,flipped triangle
0.0,8.0,4.0,1.0,7.0,3.0,1331.1491159993238,3.0,1.0,phase_3,,,,,98.0,2.0,245.0,147.0,98.0,49.0,294.0,196.0,orange,triangle
0.0,2.0,1.0,0.0,7.0,5.0,1189.4066630002271,3.0,1.0,phase_3,,,,,204.0,6.0,170.0,102.0,68.0,136.0,204.0,34.0,green,hexagon
0.0,8.0,4.0,1.0,7.0,3.0,1661.2277399999584,3.0,1.0,phase_3,,,,,176.0,4.0,132.0,88.0,176.0,264.0,44.0,220.0,orange,triangle
0.0,4.0,4.0,0.0,7.0,5.0,1313.1287729993346,3.0,1.0,phase_3,,,,,234.0,6.0,39.0,117.0,156.0,78.0,234.0,195.0,magenta,I
0.0,1.0,0.5,0.0,7.0,4.0,1262.894702000267,3.0,1.0,phase_3,,,,,78.0,2.0,39.0,234.0,195.0,78.0,117.0,156.0,gray,circle
0.0,7.0,2.0,1.0,7.0,2.0,1132.099945999471,3.0,1.0,phase_3,,,,,147.0,3.0,245.0,147.0,196.0,49.0,98.0,294.0,blue,square
0.0,7.0,2.0,1.0,7.0,1.0,1332.2997909999683,3.0,1.0,phase_3,,,,,162.0,3.0,162.0,216.0,324.0,270.0,54.0,108.0,blue,square
0.0,3.0,2.0,0.0,7.0,3.0,1381.7456309998306,3.0,1.0,phase_3,,,,,324.0,6.0,54.0,108.0,324.0,162.0,270.0,216.0,yellow,cross
0.0,2.0,1.0,0.0,7.0,4.0,1180.0707119991785,3.0,1.0,phase_3,,,,,147.0,3.0,245.0,98.0,294.0,147.0,49.0,196.0,green,hexagon
0.0,2.0,1.0,0.0,7.0,3.0,1796.865262999745,3.0,1.0,phase_3,,,,,117.0,3.0,78.0,195.0,117.0,234.0,156.0,39.0,green,hexagon
0.0,5.0,0.5,1.0,7.0,4.0,2224.555605000205,4.0,1.0,phase_3,,,,,170.0,5.0,34.0,68.0,136.0,170.0,102.0,204.0,cyan,diamond
0.0,8.0,4.0,1.0,7.0,3.0,907.9802870001004,4.0,1.0,phase_3,,,,,170.0,5.0,102.0,34.0,170.0,68.0,136.0,204.0,orange,triangle
0.0,1.0,0.5,0.0,7.0,5.0,1793.2583330002672,4.0,1.0,phase_3,,,,,78.0,2.0,234.0,39.0,117.0,156.0,78.0,195.0,gray,circle
0.0,4.0,4.0,0.0,7.0,3.0,1120.2278589998969,4.0,1.0,phase_3,,,,,264.0,6.0,44.0,132.0,264.0,220.0,88.0,176.0,magenta,I
0.0,5.0,0.5,1.0,7.0,1.0,1471.3520059995062,4.0,1.0,phase_3,,,,,117.0,3.0,117.0,234.0,39.0,156.0,195.0,78.0,cyan,diamond
0.0,4.0,4.0,0.0,7.0,3.0,1295.7757830008632,4.0,1.0,phase_3,,,,,270.0,5.0,216.0,324.0,270.0,162.0,54.0,108.0,magenta,I
0.0,2.0,1.0,0.0,7.0,4.0,1006.0713129996657,4.0,1.0,phase_3,,,,,156.0,4.0,234.0,39.0,117.0,156.0,78.0,195.0,green,hexagon
0.0,3.0,2.0,0.0,7.0,6.0,1522.3221919995922,4.0,1.0,phase_3,,,,,234.0,6.0,78.0,156.0,39.0,195.0,117.0,234.0,yellow,cross
0.0,2.0,1.0,0.0,7.0,1.0,2050.3164920000927,4.0,1.0,phase_3,,,,,108.0,2.0,108.0,54.0,324.0,270.0,162.0,216.0,green,hexagon
0.0,8.0,4.0,1.0,7.0,4.0,2082.049541999368,4.0,1.0,phase_3,,,,,170.0,5.0,136.0,102.0,204.0,170.0,68.0,34.0,orange,triangle
0.0,8.0,4.0,1.0,7.0,6.0,1674.1017240001383,4.0,1.0,phase_3,,,,,176.0,4.0,44.0,220.0,264.0,132.0,88.0,176.0,orange,triangle
0.0,1.0,0.5,0.0,7.0,1.0,1920.7145169993964,4.0,1.0,phase_3,,,,,102.0,3.0,102.0,34.0,204.0,136.0,170.0,68.0,gray,circle
0.0,1.0,0.5,0.0,7.0,6.0,2169.646552000813,4.0,1.0,phase_3,,,,,88.0,2.0,44.0,264.0,176.0,132.0,220.0,88.0,gray,circle
0.0,3.0,2.0,0.0,7.0,5.0,1724.3600209994838,4.0,1.0,phase_3,,,,,204.0,6.0,136.0,170.0,34.0,102.0,204.0,68.0,yellow,cross
0.0,1.0,0.5,0.0,7.0,1.0,1027.975009000329,4.0,1.0,phase_3,,,,,108.0,2.0,108.0,270.0,216.0,162.0,324.0,54.0,gray,circle
0.0,6.0,1.0,1.0,7.0,5.0,1368.496005999987,4.0,1.0,phase_3,,,,,39.0,1.0,234.0,117.0,78.0,156.0,39.0,195.0,white,flipped triangle
0.0,1.0,0.5,0.0,7.0,4.0,2417.534947000604,4.0,1.0,phase_3,,,,,88.0,2.0,44.0,176.0,220.0,88.0,132.0,264.0,gray,circle
0.0,8.0,4.0,1.0,7.0,6.0,1698.282565000227,4.0,1.0,phase_3,,,,,117.0,3.0,195.0,156.0,78.0,234.0,39.0,117.0,orange,triangle
0.0,5.0,0.5,1.0,7.0,2.0,1120.2134340001066,4.0,1.0,phase_3,,,,,176.0,4.0,220.0,176.0,88.0,132.0,44.0,264.0,cyan,diamond
0.0,3.0,2.0,0.0,7.0,2.0,1305.717793999975,4.0,1.0,phase_3,,,,,170.0,5.0,204.0,170.0,102.0,68.0,136.0,34.0,yellow,cross
