raw_reward_magnitude,stim_reward,stepwise_reward_magnitude,paired_with_stopping,stim_location,response,reaction_time,block,num_trial_presentations,which_phase,stop_signal_trial_type,left_SSD,right_SSD,accuracy,chosen_bidding_amount,chosen_bidding_level,possible_bid_1,possible_bid_2,possible_bid_3,possible_bid_4,possible_bid_5,possible_bid_6,color_text,shape_text
115.0,6.0,1.0,1.0,2.0,2.0,365.5703140000241,1.0,1.0,phase_1,,,,,,,,,,,,,white,triangle
62.0,5.0,0.5,1.0,4.0,4.0,351.8985430000612,1.0,1.0,phase_1,,,,,,,,,,,,,orange,flipped triangle
193.0,3.0,2.0,0.0,1.0,1.0,286.0582270000122,1.0,1.0,phase_1,,,,,,,,,,,,,blue,diamond
0.0,3.0,0.0,0.0,4.0,4.0,249.3525360000603,1.0,1.0,phase_1,,,,,,,,,,,,,blue,diamond
0.0,5.0,0.0,1.0,2.0,2.0,303.541584000186,1.0,1.0,phase_1,,,,,,,,,,,,,orange,flipped triangle
225.0,7.0,2.0,1.0,1.0,1.0,218.3468330001687,1.0,1.0,phase_1,,,,,,,,,,,,,green,circle
29.0,1.0,0.5,0.0,3.0,3.0,264.151596000147,1.0,1.0,phase_1,,,,,,,,,,,,,gray,hexagon
62.0,1.0,0.5,0.0,4.0,4.0,270.9784549999767,1.0,1.0,phase_1,,,,,,,,,,,,,gray,hexagon
392.0,8.0,4.0,1.0,1.0,1.0,266.96640199998,1.0,1.0,phase_1,,,,,,,,,,,,,yellow,I
0.0,2.0,0.0,0.0,1.0,1.0,314.2777509999632,1.0,1.0,phase_1,,,,,,,,,,,,,cyan,square
50.0,1.0,0.5,0.0,2.0,2.0,300.3494470001442,1.0,1.0,phase_1,,,,,,,,,,,,,gray,hexagon
406.0,4.0,4.0,0.0,1.0,1.0,267.3607389999688,1.0,1.0,phase_1,,,,,,,,,,,,,magenta,cross
384.0,4.0,4.0,0.0,2.0,2.0,248.0268059998707,1.0,1.0,phase_1,,,,,,,,,,,,,magenta,cross
101.0,2.0,1.0,0.0,2.0,2.0,269.8375110001052,1.0,1.0,phase_1,,,,,,,,,,,,,cyan,square
49.0,5.0,0.5,1.0,2.0,2.0,273.5589999999774,1.0,2.0,phase_1,,,,,,,,,,,,,orange,flipped triangle
27.0,1.0,0.5,0.0,2.0,2.0,249.4597049999356,1.0,1.0,phase_1,,,,,,,,,,,,,gray,hexagon
124.0,2.0,1.0,0.0,3.0,3.0,350.6520819998968,1.0,1.0,phase_1,,,,,,,,,,,,,cyan,square
58.0,5.0,0.5,1.0,4.0,4.0,340.7618890000776,1.0,1.0,phase_1,,,,,,,,,,,,,orange,flipped triangle
0.0,8.0,0.0,1.0,1.0,1.0,285.6891489998361,1.0,1.0,phase_1,,,,,,,,,,,,,yellow,I
117.0,2.0,1.0,0.0,1.0,1.0,309.5367089999854,1.0,1.0,phase_1,,,,,,,,,,,,,cyan,square
423.0,8.0,4.0,1.0,3.0,3.0,283.4687110000686,1.0,1.0,phase_1,,,,,,,,,,,,,yellow,I
193.0,3.0,2.0,0.0,2.0,2.0,332.8702179999254,1.0,1.0,phase_1,,,,,,,,,,,,,blue,diamond
414.0,4.0,4.0,0.0,3.0,3.0,320.4085750001013,1.0,1.0,phase_1,,,,,,,,,,,,,magenta,cross
58.0,5.0,0.5,1.0,3.0,3.0,339.0673380001772,1.0,1.0,phase_1,,,,,,,,,,,,,orange,flipped triangle
212.0,7.0,2.0,1.0,2.0,2.0,272.0198930001061,1.0,1.0,phase_1,,,,,,,,,,,,,green,circle
49.0,1.0,0.5,0.0,1.0,1.0,320.38071199986,1.0,1.0,phase_1,,,,,,,,,,,,,gray,hexagon
418.0,4.0,4.0,0.0,3.0,3.0,277.7981109998109,1.0,1.0,phase_1,,,,,,,,,,,,,magenta,cross
96.0,6.0,1.0,1.0,2.0,2.0,274.7665040001266,1.0,1.0,phase_1,,,,,,,,,,,,,white,triangle
0.0,6.0,0.0,1.0,4.0,4.0,311.4486179999858,1.0,1.0,phase_1,,,,,,,,,,,,,white,triangle
416.0,4.0,4.0,0.0,4.0,4.0,347.3773040000196,1.0,1.0,phase_1,,,,,,,,,,,,,magenta,cross
82.0,6.0,1.0,1.0,4.0,4.0,276.2086330001239,1.0,1.0,phase_1,,,,,,,,,,,,,white,triangle
107.0,6.0,1.0,1.0,4.0,4.0,282.743574000051,1.0,1.0,phase_1,,,,,,,,,,,,,white,triangle
411.0,4.0,4.0,0.0,1.0,1.0,284.4170600001234,1.0,1.0,phase_1,,,,,,,,,,,,,magenta,cross
0.0,8.0,0.0,1.0,3.0,3.0,287.9923830000734,1.0,1.0,phase_1,,,,,,,,,,,,,yellow,I
220.0,3.0,2.0,0.0,2.0,2.0,289.2130860000179,1.0,1.0,phase_1,,,,,,,,,,,,,blue,diamond
70.0,1.0,0.5,0.0,4.0,4.0,276.8162770000799,1.0,1.0,phase_1,,,,,,,,,,,,,gray,hexagon
0.0,2.0,0.0,0.0,3.0,3.0,342.2921199999109,1.0,1.0,phase_1,,,,,,,,,,,,,cyan,square
181.0,3.0,2.0,0.0,1.0,1.0,248.2386459998906,1.0,1.0,phase_1,,,,,,,,,,,,,blue,diamond
114.0,2.0,1.0,0.0,2.0,2.0,307.806274000086,1.0,1.0,phase_1,,,,,,,,,,,,,cyan,square
395.0,8.0,4.0,1.0,1.0,1.0,313.2755280000765,1.0,1.0,phase_1,,,,,,,,,,,,,yellow,I
220.0,7.0,2.0,1.0,4.0,4.0,256.2717030000385,1.0,1.0,phase_1,,,,,,,,,,,,,green,circle
204.0,3.0,2.0,0.0,3.0,3.0,297.2942960000182,1.0,1.0,phase_1,,,,,,,,,,,,,blue,diamond
200.0,7.0,2.0,1.0,4.0,4.0,322.0571069998641,1.0,1.0,phase_1,,,,,,,,,,,,,green,circle
78.0,6.0,1.0,1.0,4.0,4.0,318.623430000116,1.0,1.0,phase_1,,,,,,,,,,,,,white,triangle
111.0,6.0,1.0,1.0,2.0,2.0,234.4869730000027,1.0,1.0,phase_1,,,,,,,,,,,,,white,triangle
390.0,8.0,4.0,1.0,2.0,2.0,284.745853000004,1.0,1.0,phase_1,,,,,,,,,,,,,yellow,I
204.0,7.0,2.0,1.0,3.0,3.0,265.4770340000141,1.0,1.0,phase_1,,,,,,,,,,,,,green,circle
0.0,4.0,0.0,0.0,1.0,1.0,313.853244000029,1.0,1.0,phase_1,,,,,,,,,,,,,magenta,cross
0.0,4.0,0.0,0.0,3.0,3.0,271.9291779999366,1.0,1.0,phase_1,,,,,,,,,,,,,magenta,cross
418.0,8.0,4.0,1.0,4.0,4.0,253.1195999999909,1.0,1.0,phase_1,,,,,,,,,,,,,yellow,I
0.0,1.0,0.0,0.0,2.0,2.0,283.2314019999558,1.0,1.0,phase_1,,,,,,,,,,,,,gray,hexagon
217.0,7.0,2.0,1.0,3.0,3.0,235.68810300002949,1.0,1.0,phase_1,,,,,,,,,,,,,green,circle
404.0,4.0,4.0,0.0,2.0,2.0,245.7917449999058,1.0,1.0,phase_1,,,,,,,,,,,,,magenta,cross
0.0,1.0,0.0,0.0,2.0,2.0,294.8290629999519,1.0,1.0,phase_1,,,,,,,,,,,,,gray,hexagon
34.0,5.0,0.5,1.0,3.0,3.0,218.7771110000085,1.0,1.0,phase_1,,,,,,,,,,,,,orange,flipped triangle
0.0,2.0,0.0,0.0,2.0,2.0,235.2615699999205,1.0,1.0,phase_1,,,,,,,,,,,,,cyan,square
387.0,8.0,4.0,1.0,4.0,4.0,263.6524439999448,1.0,1.0,phase_1,,,,,,,,,,,,,yellow,I
184.0,7.0,2.0,1.0,2.0,2.0,219.8682120001649,1.0,1.0,phase_1,,,,,,,,,,,,,green,circle
61.0,5.0,0.5,1.0,2.0,2.0,283.1194379998578,1.0,1.0,phase_1,,,,,,,,,,,,,orange,flipped triangle
124.0,2.0,1.0,0.0,1.0,1.0,335.4258899998967,1.0,1.0,phase_1,,,,,,,,,,,,,cyan,square
188.0,3.0,2.0,0.0,1.0,1.0,346.9806759999301,1.0,2.0,phase_1,,,,,,,,,,,,,blue,diamond
76.0,6.0,1.0,1.0,1.0,1.0,343.6523330001364,1.0,1.0,phase_1,,,,,,,,,,,,,white,triangle
0.0,3.0,0.0,0.0,3.0,3.0,356.4098550000381,1.0,1.0,phase_1,,,,,,,,,,,,,blue,diamond
0.0,4.0,0.0,0.0,3.0,3.0,307.5954399998863,1.0,1.0,phase_1,,,,,,,,,,,,,magenta,cross
406.0,8.0,4.0,1.0,4.0,4.0,309.3651520000549,1.0,1.0,phase_1,,,,,,,,,,,,,yellow,I
177.0,7.0,2.0,1.0,1.0,1.0,328.918423999994,1.0,1.0,phase_1,,,,,,,,,,,,,green,circle
114.0,6.0,1.0,1.0,4.0,4.0,300.13853499986,1.0,1.0,phase_1,,,,,,,,,,,,,white,triangle
0.0,4.0,0.0,0.0,3.0,3.0,286.9760640001004,1.0,1.0,phase_1,,,,,,,,,,,,,magenta,cross
0.0,8.0,0.0,1.0,2.0,2.0,265.552598000113,1.0,1.0,phase_1,,,,,,,,,,,,,yellow,I
410.0,4.0,4.0,0.0,2.0,2.0,256.7607119999593,1.0,1.0,phase_1,,,,,,,,,,,,,magenta,cross
28.0,5.0,0.5,1.0,3.0,3.0,270.7226919999357,1.0,1.0,phase_1,,,,,,,,,,,,,orange,flipped triangle
217.0,7.0,2.0,1.0,3.0,3.0,297.8131289999055,1.0,1.0,phase_1,,,,,,,,,,,,,green,circle
52.0,1.0,0.5,0.0,3.0,3.0,332.9653529999632,1.0,1.0,phase_1,,,,,,,,,,,,,gray,hexagon
88.0,2.0,1.0,0.0,1.0,1.0,245.9613239998361,1.0,1.0,phase_1,,,,,,,,,,,,,cyan,square
406.0,8.0,4.0,1.0,4.0,4.0,381.7895590000262,1.0,1.0,phase_1,,,,,,,,,,,,,yellow,I
0.0,5.0,0.0,1.0,4.0,4.0,437.8545090000898,1.0,1.0,phase_1,,,,,,,,,,,,,orange,flipped triangle
51.0,1.0,0.5,0.0,3.0,3.0,344.1753530000824,1.0,1.0,phase_1,,,,,,,,,,,,,gray,hexagon
384.0,8.0,4.0,1.0,4.0,4.0,314.3471379999027,1.0,1.0,phase_1,,,,,,,,,,,,,yellow,I
70.0,1.0,0.5,0.0,3.0,3.0,274.7774169999957,1.0,1.0,phase_1,,,,,,,,,,,,,gray,hexagon
90.0,2.0,1.0,0.0,4.0,4.0,240.995064000117,1.0,1.0,phase_1,,,,,,,,,,,,,cyan,square
0.0,7.0,0.0,1.0,1.0,1.0,309.9148699998295,1.0,1.0,phase_1,,,,,,,,,,,,,green,circle
0.0,6.0,0.0,1.0,2.0,2.0,233.5699440000098,1.0,1.0,phase_1,,,,,,,,,,,,,white,triangle
111.0,2.0,1.0,0.0,3.0,3.0,269.3273269999281,1.0,1.0,phase_1,,,,,,,,,,,,,cyan,square
0.0,3.0,0.0,0.0,2.0,2.0,237.4735270000201,1.0,1.0,phase_1,,,,,,,,,,,,,blue,diamond
0.0,1.0,0.0,0.0,2.0,2.0,316.1601179999707,1.0,1.0,phase_1,,,,,,,,,,,,,gray,hexagon
195.0,7.0,2.0,1.0,4.0,4.0,270.4945000000407,1.0,1.0,phase_1,,,,,,,,,,,,,green,circle
217.0,3.0,2.0,0.0,3.0,3.0,252.4999530000968,1.0,1.0,phase_1,,,,,,,,,,,,,blue,diamond
39.0,1.0,0.5,0.0,2.0,2.0,263.6682660001952,1.0,1.0,phase_1,,,,,,,,,,,,,gray,hexagon
0.0,2.0,0.0,0.0,4.0,4.0,326.5001919999122,1.0,1.0,phase_1,,,,,,,,,,,,,cyan,square
89.0,2.0,1.0,0.0,2.0,2.0,334.0361079999638,1.0,2.0,phase_1,,,,,,,,,,,,,cyan,square
222.0,7.0,2.0,1.0,3.0,3.0,342.3254879999149,1.0,1.0,phase_1,,,,,,,,,,,,,green,circle
106.0,6.0,1.0,1.0,4.0,4.0,333.8722680000501,1.0,1.0,phase_1,,,,,,,,,,,,,white,triangle
62.0,5.0,0.5,1.0,4.0,4.0,351.0721509999257,1.0,1.0,phase_1,,,,,,,,,,,,,orange,flipped triangle
0.0,7.0,0.0,1.0,3.0,3.0,382.6326480000261,1.0,1.0,phase_1,,,,,,,,,,,,,green,circle
204.0,3.0,2.0,0.0,1.0,1.0,469.8178080000161,1.0,1.0,phase_1,,,,,,,,,,,,,blue,diamond
107.0,2.0,1.0,0.0,2.0,2.0,352.6607599999352,1.0,1.0,phase_1,,,,,,,,,,,,,cyan,square
390.0,4.0,4.0,0.0,4.0,4.0,297.2072879999814,1.0,1.0,phase_1,,,,,,,,,,,,,magenta,cross
70.0,1.0,0.5,0.0,1.0,1.0,353.1749900000704,1.0,1.0,phase_1,,,,,,,,,,,,,gray,hexagon
0.0,6.0,0.0,1.0,2.0,2.0,357.9880780000621,1.0,1.0,phase_1,,,,,,,,,,,,,white,triangle
196.0,3.0,2.0,0.0,3.0,3.0,315.3504829999747,1.0,1.0,phase_1,,,,,,,,,,,,,blue,diamond
53.0,5.0,0.5,1.0,1.0,1.0,296.4827060000061,2.0,1.0,phase_1,,,,,,,,,,,,,orange,flipped triangle
395.0,4.0,4.0,0.0,2.0,2.0,284.2800739999802,2.0,1.0,phase_1,,,,,,,,,,,,,magenta,cross
375.0,4.0,4.0,0.0,1.0,1.0,288.2122599999093,2.0,1.0,phase_1,,,,,,,,,,,,,magenta,cross
184.0,3.0,2.0,0.0,4.0,4.0,350.3240759998789,2.0,1.0,phase_1,,,,,,,,,,,,,blue,diamond
116.0,6.0,1.0,1.0,4.0,4.0,279.4570579999345,2.0,1.0,phase_1,,,,,,,,,,,,,white,triangle
50.0,5.0,0.5,1.0,2.0,2.0,288.5165249999772,2.0,1.0,phase_1,,,,,,,,,,,,,orange,flipped triangle
0.0,8.0,0.0,1.0,4.0,4.0,300.4506760000822,2.0,1.0,phase_1,,,,,,,,,,,,,yellow,I
0.0,3.0,0.0,0.0,2.0,2.0,224.1027909999502,2.0,1.0,phase_1,,,,,,,,,,,,,blue,diamond
212.0,3.0,2.0,0.0,2.0,2.0,308.6511520000385,2.0,1.0,phase_1,,,,,,,,,,,,,blue,diamond
48.0,1.0,0.5,0.0,4.0,4.0,258.8511919998382,2.0,1.0,phase_1,,,,,,,,,,,,,gray,hexagon
218.0,3.0,2.0,0.0,3.0,3.0,354.397482999957,2.0,1.0,phase_1,,,,,,,,,,,,,blue,diamond
394.0,4.0,4.0,0.0,2.0,2.0,278.8330690000293,2.0,1.0,phase_1,,,,,,,,,,,,,magenta,cross
0.0,2.0,0.0,0.0,3.0,3.0,302.413357999967,2.0,1.0,phase_1,,,,,,,,,,,,,cyan,square
111.0,2.0,1.0,0.0,2.0,2.0,256.6718690000016,2.0,1.0,phase_1,,,,,,,,,,,,,cyan,square
124.0,6.0,1.0,1.0,1.0,1.0,295.0553299999683,2.0,1.0,phase_1,,,,,,,,,,,,,white,triangle
0.0,8.0,0.0,1.0,1.0,1.0,348.3312879998266,2.0,1.0,phase_1,,,,,,,,,,,,,yellow,I
88.0,6.0,1.0,1.0,3.0,3.0,319.1534279999359,2.0,1.0,phase_1,,,,,,,,,,,,,white,triangle
104.0,2.0,1.0,0.0,3.0,3.0,362.8550739999809,2.0,1.0,phase_1,,,,,,,,,,,,,cyan,square
187.0,7.0,2.0,1.0,2.0,2.0,343.2091109998509,2.0,1.0,phase_1,,,,,,,,,,,,,green,circle
107.0,2.0,1.0,0.0,3.0,3.0,326.1823919999642,2.0,1.0,phase_1,,,,,,,,,,,,,cyan,square
423.0,8.0,4.0,1.0,1.0,1.0,287.1808610000244,2.0,1.0,phase_1,,,,,,,,,,,,,yellow,I
0.0,1.0,0.0,0.0,3.0,3.0,335.3699059998689,2.0,2.0,phase_1,,,,,,,,,,,,,gray,hexagon
389.0,8.0,4.0,1.0,2.0,2.0,277.2440209998876,2.0,1.0,phase_1,,,,,,,,,,,,,yellow,I
198.0,3.0,2.0,0.0,4.0,4.0,333.6828490000698,2.0,1.0,phase_1,,,,,,,,,,,,,blue,diamond
217.0,3.0,2.0,0.0,2.0,2.0,425.7559339998806,2.0,1.0,phase_1,,,,,,,,,,,,,blue,diamond
83.0,2.0,1.0,0.0,4.0,4.0,284.9476119999963,2.0,1.0,phase_1,,,,,,,,,,,,,cyan,square
416.0,8.0,4.0,1.0,2.0,2.0,353.9521459999832,2.0,1.0,phase_1,,,,,,,,,,,,,yellow,I
222.0,3.0,2.0,0.0,1.0,1.0,310.4707689999486,2.0,1.0,phase_1,,,,,,,,,,,,,blue,diamond
45.0,5.0,0.5,1.0,4.0,4.0,398.7868020001315,2.0,1.0,phase_1,,,,,,,,,,,,,orange,flipped triangle
34.0,1.0,0.5,0.0,4.0,4.0,364.199464999956,2.0,1.0,phase_1,,,,,,,,,,,,,gray,hexagon
0.0,7.0,0.0,1.0,2.0,2.0,251.549119999936,2.0,1.0,phase_1,,,,,,,,,,,,,green,circle
0.0,7.0,0.0,1.0,3.0,3.0,275.5335059998742,2.0,1.0,phase_1,,,,,,,,,,,,,green,circle
176.0,7.0,2.0,1.0,3.0,3.0,290.6501869999829,2.0,1.0,phase_1,,,,,,,,,,,,,green,circle
385.0,4.0,4.0,0.0,4.0,4.0,294.5722350000324,2.0,1.0,phase_1,,,,,,,,,,,,,magenta,cross
178.0,3.0,2.0,0.0,1.0,1.0,326.2632270000267,2.0,1.0,phase_1,,,,,,,,,,,,,blue,diamond
77.0,6.0,1.0,1.0,1.0,1.0,366.7803940002159,2.0,1.0,phase_1,,,,,,,,,,,,,white,triangle
377.0,4.0,4.0,0.0,1.0,1.0,369.7608110001056,2.0,1.0,phase_1,,,,,,,,,,,,,magenta,cross
86.0,2.0,1.0,0.0,1.0,1.0,317.8310969999529,2.0,1.0,phase_1,,,,,,,,,,,,,cyan,square
116.0,2.0,1.0,0.0,1.0,1.0,293.7077720000616,2.0,1.0,phase_1,,,,,,,,,,,,,cyan,square
217.0,3.0,2.0,0.0,4.0,4.0,306.597475999979,2.0,1.0,phase_1,,,,,,,,,,,,,blue,diamond
423.0,4.0,4.0,0.0,1.0,1.0,256.0022949999165,2.0,1.0,phase_1,,,,,,,,,,,,,magenta,cross
422.0,8.0,4.0,1.0,4.0,4.0,255.8574839999892,2.0,1.0,phase_1,,,,,,,,,,,,,yellow,I
68.0,1.0,0.5,0.0,4.0,4.0,383.4619960000509,2.0,1.0,phase_1,,,,,,,,,,,,,gray,hexagon
52.0,5.0,0.5,1.0,2.0,2.0,399.6450600000116,2.0,1.0,phase_1,,,,,,,,,,,,,orange,flipped triangle
124.0,6.0,1.0,1.0,1.0,1.0,361.3863240000228,2.0,1.0,phase_1,,,,,,,,,,,,,white,triangle
415.0,8.0,4.0,1.0,4.0,4.0,267.8649469999072,2.0,1.0,phase_1,,,,,,,,,,,,,yellow,I
93.0,2.0,1.0,0.0,4.0,4.0,259.3839930000285,2.0,1.0,phase_1,,,,,,,,,,,,,cyan,square
83.0,6.0,1.0,1.0,2.0,2.0,263.0899509999835,2.0,1.0,phase_1,,,,,,,,,,,,,white,triangle
66.0,1.0,0.5,0.0,2.0,2.0,331.3351870001497,2.0,1.0,phase_1,,,,,,,,,,,,,gray,hexagon
83.0,6.0,1.0,1.0,3.0,3.0,343.1915520000075,2.0,1.0,phase_1,,,,,,,,,,,,,white,triangle
410.0,8.0,4.0,1.0,1.0,1.0,347.8249199999936,2.0,1.0,phase_1,,,,,,,,,,,,,yellow,I
225.0,3.0,2.0,0.0,4.0,4.0,402.9797700000017,2.0,1.0,phase_1,,,,,,,,,,,,,blue,diamond
417.0,4.0,4.0,0.0,4.0,4.0,311.4078559999598,2.0,1.0,phase_1,,,,,,,,,,,,,magenta,cross
208.0,3.0,2.0,0.0,3.0,3.0,351.5385050000077,2.0,1.0,phase_1,,,,,,,,,,,,,blue,diamond
422.0,4.0,4.0,0.0,4.0,4.0,324.4186929998705,2.0,1.0,phase_1,,,,,,,,,,,,,magenta,cross
44.0,1.0,0.5,0.0,1.0,1.0,408.6369789999935,2.0,1.0,phase_1,,,,,,,,,,,,,gray,hexagon
71.0,5.0,0.5,1.0,1.0,1.0,372.9991049999626,2.0,1.0,phase_1,,,,,,,,,,,,,orange,flipped triangle
68.0,5.0,0.5,1.0,1.0,1.0,368.0617679999614,2.0,1.0,phase_1,,,,,,,,,,,,,orange,flipped triangle
418.0,8.0,4.0,1.0,3.0,3.0,329.0994589999627,2.0,1.0,phase_1,,,,,,,,,,,,,yellow,I
196.0,7.0,2.0,1.0,4.0,4.0,286.5099839998493,2.0,1.0,phase_1,,,,,,,,,,,,,green,circle
206.0,3.0,2.0,0.0,3.0,3.0,310.5269870000029,2.0,1.0,phase_1,,,,,,,,,,,,,blue,diamond
0.0,3.0,0.0,0.0,2.0,2.0,324.5082299999922,2.0,1.0,phase_1,,,,,,,,,,,,,blue,diamond
119.0,6.0,1.0,1.0,4.0,4.0,341.9513369999549,2.0,1.0,phase_1,,,,,,,,,,,,,white,triangle
47.0,1.0,0.5,0.0,3.0,3.0,306.4520209998136,2.0,1.0,phase_1,,,,,,,,,,,,,gray,hexagon
113.0,6.0,1.0,1.0,2.0,2.0,530.0400769999669,2.0,1.0,phase_1,,,,,,,,,,,,,white,triangle
404.0,4.0,4.0,0.0,1.0,1.0,381.1848670000017,2.0,1.0,phase_1,,,,,,,,,,,,,magenta,cross
0.0,2.0,0.0,0.0,4.0,4.0,279.1581970000152,2.0,1.0,phase_1,,,,,,,,,,,,,cyan,square
83.0,2.0,1.0,0.0,4.0,4.0,347.6019229999565,2.0,1.0,phase_1,,,,,,,,,,,,,cyan,square
182.0,7.0,2.0,1.0,3.0,3.0,344.6845040000426,2.0,1.0,phase_1,,,,,,,,,,,,,green,circle
89.0,2.0,1.0,0.0,1.0,1.0,370.112545999973,2.0,1.0,phase_1,,,,,,,,,,,,,cyan,square
188.0,7.0,2.0,1.0,1.0,1.0,401.2649429998873,2.0,1.0,phase_1,,,,,,,,,,,,,green,circle
206.0,7.0,2.0,1.0,3.0,3.0,400.5966459999399,2.0,1.0,phase_1,,,,,,,,,,,,,green,circle
100.0,2.0,1.0,0.0,4.0,4.0,295.9521220000169,2.0,1.0,phase_1,,,,,,,,,,,,,cyan,square
0.0,7.0,0.0,1.0,4.0,4.0,275.4489330000069,2.0,1.0,phase_1,,,,,,,,,,,,,green,circle
179.0,7.0,2.0,1.0,3.0,3.0,299.2536280000877,2.0,1.0,phase_1,,,,,,,,,,,,,green,circle
194.0,7.0,2.0,1.0,2.0,2.0,322.7119949999633,2.0,1.0,phase_1,,,,,,,,,,,,,green,circle
378.0,8.0,4.0,1.0,1.0,1.0,316.1363739998251,2.0,1.0,phase_1,,,,,,,,,,,,,yellow,I
58.0,1.0,0.5,0.0,3.0,3.0,320.003682999868,2.0,1.0,phase_1,,,,,,,,,,,,,gray,hexagon
390.0,4.0,4.0,0.0,2.0,2.0,313.2298990001345,2.0,1.0,phase_1,,,,,,,,,,,,,magenta,cross
93.0,6.0,1.0,1.0,3.0,3.0,320.7739389999915,2.0,1.0,phase_1,,,,,,,,,,,,,white,triangle
0.0,5.0,0.0,1.0,4.0,4.0,317.3752289999356,2.0,1.0,phase_1,,,,,,,,,,,,,orange,flipped triangle
190.0,3.0,2.0,0.0,3.0,3.0,304.6724869998343,2.0,1.0,phase_1,,,,,,,,,,,,,blue,diamond
71.0,1.0,0.5,0.0,4.0,4.0,307.2811670001556,2.0,1.0,phase_1,,,,,,,,,,,,,gray,hexagon
0.0,8.0,0.0,1.0,4.0,4.0,282.518409000204,2.0,1.0,phase_1,,,,,,,,,,,,,yellow,I
117.0,6.0,1.0,1.0,3.0,3.0,267.1502170001076,2.0,1.0,phase_1,,,,,,,,,,,,,white,triangle
403.0,8.0,4.0,1.0,2.0,2.0,385.4695859999992,2.0,1.0,phase_1,,,,,,,,,,,,,yellow,I
203.0,3.0,2.0,0.0,4.0,4.0,312.431788999902,2.0,1.0,phase_1,,,,,,,,,,,,,blue,diamond
62.0,1.0,0.5,0.0,2.0,2.0,301.7429080000511,2.0,1.0,phase_1,,,,,,,,,,,,,gray,hexagon
0.0,5.0,0.0,1.0,3.0,3.0,285.2659730001505,2.0,1.0,phase_1,,,,,,,,,,,,,orange,flipped triangle
406.0,4.0,4.0,0.0,3.0,3.0,333.8934630000949,2.0,1.0,phase_1,,,,,,,,,,,,,magenta,cross
182.0,3.0,2.0,0.0,4.0,4.0,327.4580950001109,2.0,1.0,phase_1,,,,,,,,,,,,,blue,diamond
193.0,7.0,2.0,1.0,2.0,2.0,368.6999940000532,2.0,1.0,phase_1,,,,,,,,,,,,,green,circle
409.0,8.0,4.0,1.0,1.0,1.0,434.2059989999143,2.0,1.0,phase_1,,,,,,,,,,,,,yellow,I
27.0,1.0,0.5,0.0,2.0,2.0,403.4077199999046,2.0,1.0,phase_1,,,,,,,,,,,,,gray,hexagon
414.0,8.0,4.0,1.0,3.0,3.0,464.4926119999581,2.0,1.0,phase_1,,,,,,,,,,,,,yellow,I
124.0,2.0,1.0,0.0,4.0,4.0,360.8528519998799,2.0,1.0,phase_1,,,,,,,,,,,,,cyan,square
79.0,2.0,1.0,0.0,3.0,3.0,423.3135199999651,2.0,1.0,phase_1,,,,,,,,,,,,,cyan,square
195.0,3.0,2.0,0.0,2.0,2.0,350.5206899999393,2.0,1.0,phase_1,,,,,,,,,,,,,blue,diamond
0.0,5.0,0.0,1.0,1.0,1.0,304.3993380001666,2.0,1.0,phase_1,,,,,,,,,,,,,orange,flipped triangle
381.0,4.0,4.0,0.0,3.0,3.0,329.456410000148,2.0,1.0,phase_1,,,,,,,,,,,,,magenta,cross
208.0,7.0,2.0,1.0,4.0,4.0,259.2099839998809,3.0,1.0,phase_1,,,,,,,,,,,,,green,circle
42.0,5.0,0.5,1.0,1.0,1.0,291.9631150002715,3.0,1.0,phase_1,,,,,,,,,,,,,orange,flipped triangle
404.0,8.0,4.0,1.0,3.0,3.0,281.0322919999635,3.0,1.0,phase_1,,,,,,,,,,,,,yellow,I
77.0,2.0,1.0,0.0,1.0,1.0,322.964076000062,3.0,1.0,phase_1,,,,,,,,,,,,,cyan,square
45.0,1.0,0.5,0.0,1.0,1.0,321.0715129998789,3.0,1.0,phase_1,,,,,,,,,,,,,gray,hexagon
0.0,6.0,0.0,1.0,3.0,3.0,306.6548670003612,3.0,1.0,phase_1,,,,,,,,,,,,,white,triangle
64.0,1.0,0.5,0.0,1.0,1.0,313.0748110002059,3.0,1.0,phase_1,,,,,,,,,,,,,gray,hexagon
0.0,8.0,0.0,1.0,3.0,3.0,272.3834200000965,3.0,1.0,phase_1,,,,,,,,,,,,,yellow,I
47.0,5.0,0.5,1.0,1.0,1.0,277.6092150002114,3.0,1.0,phase_1,,,,,,,,,,,,,orange,flipped triangle
28.0,1.0,0.5,0.0,1.0,1.0,311.5910470000926,3.0,1.0,phase_1,,,,,,,,,,,,,gray,hexagon
217.0,7.0,2.0,1.0,2.0,2.0,250.5894979999539,3.0,1.0,phase_1,,,,,,,,,,,,,green,circle
76.0,2.0,1.0,0.0,2.0,2.0,548.3831490000739,3.0,1.0,phase_1,,,,,,,,,,,,,cyan,square
389.0,8.0,4.0,1.0,2.0,2.0,431.0381050004253,3.0,1.0,phase_1,,,,,,,,,,,,,yellow,I
82.0,2.0,1.0,0.0,2.0,2.0,321.8951320000087,3.0,1.0,phase_1,,,,,,,,,,,,,cyan,square
88.0,6.0,1.0,1.0,2.0,2.0,375.1736119997986,3.0,1.0,phase_1,,,,,,,,,,,,,white,triangle
0.0,3.0,0.0,0.0,4.0,4.0,367.6462789999277,3.0,1.0,phase_1,,,,,,,,,,,,,blue,diamond
58.0,1.0,0.5,0.0,1.0,1.0,357.7654350001467,3.0,1.0,phase_1,,,,,,,,,,,,,gray,hexagon
0.0,7.0,0.0,1.0,4.0,4.0,318.5195730002306,3.0,1.0,phase_1,,,,,,,,,,,,,green,circle
114.0,2.0,1.0,0.0,4.0,4.0,320.6817059999594,3.0,1.0,phase_1,,,,,,,,,,,,,cyan,square
100.0,6.0,1.0,1.0,4.0,4.0,289.5159460003924,3.0,1.0,phase_1,,,,,,,,,,,,,white,triangle
0.0,3.0,0.0,0.0,4.0,4.0,281.9547070002954,3.0,1.0,phase_1,,,,,,,,,,,,,blue,diamond
0.0,2.0,0.0,0.0,2.0,2.0,324.1127530000085,3.0,1.0,phase_1,,,,,,,,,,,,,cyan,square
394.0,8.0,4.0,1.0,4.0,4.0,307.228355999996,3.0,1.0,phase_1,,,,,,,,,,,,,yellow,I
44.0,1.0,0.5,0.0,3.0,3.0,275.414720000299,3.0,1.0,phase_1,,,,,,,,,,,,,gray,hexagon
33.0,1.0,0.5,0.0,2.0,2.0,311.301977000312,3.0,1.0,phase_1,,,,,,,,,,,,,gray,hexagon
70.0,5.0,0.5,1.0,3.0,3.0,257.1469209997303,3.0,1.0,phase_1,,,,,,,,,,,,,orange,flipped triangle
177.0,3.0,2.0,0.0,3.0,3.0,262.8950869998334,3.0,1.0,phase_1,,,,,,,,,,,,,blue,diamond
48.0,5.0,0.5,1.0,4.0,4.0,306.4913069997601,3.0,1.0,phase_1,,,,,,,,,,,,,orange,flipped triangle
377.0,8.0,4.0,1.0,2.0,2.0,276.1576140001125,3.0,1.0,phase_1,,,,,,,,,,,,,yellow,I
0.0,6.0,0.0,1.0,1.0,1.0,255.10374799978308,3.0,1.0,phase_1,,,,,,,,,,,,,white,triangle
378.0,8.0,4.0,1.0,4.0,4.0,328.1800670001757,3.0,1.0,phase_1,,,,,,,,,,,,,yellow,I
222.0,7.0,2.0,1.0,1.0,1.0,383.0600620003679,3.0,1.0,phase_1,,,,,,,,,,,,,green,circle
411.0,8.0,4.0,1.0,1.0,1.0,320.149395000044,3.0,1.0,phase_1,,,,,,,,,,,,,yellow,I
115.0,2.0,1.0,0.0,3.0,3.0,294.5697800000744,3.0,1.0,phase_1,,,,,,,,,,,,,cyan,square
101.0,6.0,1.0,1.0,2.0,2.0,263.1734709998454,3.0,1.0,phase_1,,,,,,,,,,,,,white,triangle
37.0,5.0,0.5,1.0,1.0,1.0,366.4461660000597,3.0,1.0,phase_1,,,,,,,,,,,,,orange,flipped triangle
39.0,5.0,0.5,1.0,4.0,4.0,317.5048500002049,3.0,1.0,phase_1,,,,,,,,,,,,,orange,flipped triangle
397.0,4.0,4.0,0.0,3.0,3.0,321.5603059998102,3.0,1.0,phase_1,,,,,,,,,,,,,magenta,cross
120.0,2.0,1.0,0.0,3.0,3.0,383.7492820002808,3.0,1.0,phase_1,,,,,,,,,,,,,cyan,square
194.0,3.0,2.0,0.0,3.0,3.0,406.3985859997956,3.0,1.0,phase_1,,,,,,,,,,,,,blue,diamond
37.0,1.0,0.5,0.0,1.0,1.0,337.9709099999672,3.0,1.0,phase_1,,,,,,,,,,,,,gray,hexagon
415.0,4.0,4.0,0.0,4.0,4.0,252.8824250002799,3.0,1.0,phase_1,,,,,,,,,,,,,magenta,cross
66.0,5.0,0.5,1.0,3.0,3.0,290.6241370001226,3.0,1.0,phase_1,,,,,,,,,,,,,orange,flipped triangle
83.0,6.0,1.0,1.0,2.0,2.0,325.5990940001538,3.0,1.0,phase_1,,,,,,,,,,,,,white,triangle
70.0,5.0,0.5,1.0,2.0,2.0,259.2622860001938,3.0,1.0,phase_1,,,,,,,,,,,,,orange,flipped triangle
192.0,3.0,2.0,0.0,2.0,2.0,405.9358549998251,3.0,1.0,phase_1,,,,,,,,,,,,,blue,diamond
86.0,6.0,1.0,1.0,3.0,3.0,330.7275659999504,3.0,1.0,phase_1,,,,,,,,,,,,,white,triangle
198.0,7.0,2.0,1.0,1.0,1.0,321.2402760000259,3.0,1.0,phase_1,,,,,,,,,,,,,green,circle
396.0,8.0,4.0,1.0,3.0,3.0,287.5046599997404,3.0,1.0,phase_1,,,,,,,,,,,,,yellow,I
0.0,1.0,0.0,0.0,1.0,1.0,369.6887569999489,3.0,2.0,phase_1,,,,,,,,,,,,,gray,hexagon
0.0,5.0,0.0,1.0,4.0,4.0,386.4113869999528,3.0,1.0,phase_1,,,,,,,,,,,,,orange,flipped triangle
218.0,7.0,2.0,1.0,1.0,1.0,335.7810319998862,3.0,1.0,phase_1,,,,,,,,,,,,,green,circle
204.0,7.0,2.0,1.0,3.0,3.0,294.4695189999038,3.0,1.0,phase_1,,,,,,,,,,,,,green,circle
53.0,1.0,0.5,0.0,4.0,4.0,732.132171000103,3.0,1.0,phase_1,,,,,,,,,,,,,gray,hexagon
43.0,1.0,0.5,0.0,2.0,2.0,426.7184989998895,3.0,1.0,phase_1,,,,,,,,,,,,,gray,hexagon
0.0,8.0,0.0,1.0,1.0,1.0,337.898118999874,3.0,1.0,phase_1,,,,,,,,,,,,,yellow,I
42.0,1.0,0.5,0.0,2.0,2.0,560.4928910001945,3.0,1.0,phase_1,,,,,,,,,,,,,gray,hexagon
0.0,5.0,0.0,1.0,2.0,2.0,423.9540380003745,3.0,1.0,phase_1,,,,,,,,,,,,,orange,flipped triangle
104.0,6.0,1.0,1.0,1.0,1.0,301.7182469998261,3.0,1.0,phase_1,,,,,,,,,,,,,white,triangle
96.0,2.0,1.0,0.0,1.0,1.0,320.6693910001377,3.0,1.0,phase_1,,,,,,,,,,,,,cyan,square
381.0,8.0,4.0,1.0,3.0,3.0,365.4966919998514,3.0,1.0,phase_1,,,,,,,,,,,,,yellow,I
79.0,6.0,1.0,1.0,1.0,1.0,298.2945989997461,3.0,1.0,phase_1,,,,,,,,,,,,,white,triangle
184.0,3.0,2.0,0.0,2.0,2.0,409.323575000144,3.0,1.0,phase_1,,,,,,,,,,,,,blue,diamond
47.0,1.0,0.5,0.0,1.0,1.0,362.9157909999776,3.0,1.0,phase_1,,,,,,,,,,,,,gray,hexagon
106.0,2.0,1.0,0.0,4.0,4.0,272.0663939999213,3.0,1.0,phase_1,,,,,,,,,,,,,cyan,square
389.0,4.0,4.0,0.0,2.0,2.0,330.5314539998107,3.0,1.0,phase_1,,,,,,,,,,,,,magenta,cross
70.0,1.0,0.5,0.0,4.0,4.0,348.5551110002234,3.0,1.0,phase_1,,,,,,,,,,,,,gray,hexagon
175.0,3.0,2.0,0.0,2.0,2.0,330.0253819998033,3.0,1.0,phase_1,,,,,,,,,,,,,blue,diamond
387.0,4.0,4.0,0.0,3.0,3.0,387.5013649999346,3.0,1.0,phase_1,,,,,,,,,,,,,magenta,cross
0.0,1.0,0.0,0.0,1.0,1.0,363.1449490003433,3.0,1.0,phase_1,,,,,,,,,,,,,gray,hexagon
222.0,7.0,2.0,1.0,4.0,4.0,359.2975420001494,3.0,1.0,phase_1,,,,,,,,,,,,,green,circle
27.0,5.0,0.5,1.0,3.0,3.0,277.8326470001957,3.0,1.0,phase_1,,,,,,,,,,,,,orange,flipped triangle
377.0,8.0,4.0,1.0,2.0,2.0,286.7346809998707,3.0,1.0,phase_1,,,,,,,,,,,,,yellow,I
396.0,4.0,4.0,0.0,1.0,1.0,310.1165879998007,3.0,1.0,phase_1,,,,,,,,,,,,,magenta,cross
200.0,3.0,2.0,0.0,1.0,1.0,342.3977009997543,3.0,1.0,phase_1,,,,,,,,,,,,,blue,diamond
114.0,6.0,1.0,1.0,3.0,3.0,327.7785290001702,3.0,1.0,phase_1,,,,,,,,,,,,,white,triangle
63.0,5.0,0.5,1.0,4.0,4.0,323.1877349999195,3.0,1.0,phase_1,,,,,,,,,,,,,orange,flipped triangle
0.0,1.0,0.0,0.0,3.0,3.0,377.8428790001271,3.0,1.0,phase_1,,,,,,,,,,,,,gray,hexagon
187.0,3.0,2.0,0.0,4.0,4.0,319.8918430002777,3.0,1.0,phase_1,,,,,,,,,,,,,blue,diamond
0.0,5.0,0.0,1.0,2.0,2.0,392.7689320003082,3.0,1.0,phase_1,,,,,,,,,,,,,orange,flipped triangle
0.0,2.0,0.0,0.0,4.0,4.0,292.757285999869,3.0,1.0,phase_1,,,,,,,,,,,,,cyan,square
222.0,3.0,2.0,0.0,4.0,4.0,302.1721539998907,3.0,1.0,phase_1,,,,,,,,,,,,,blue,diamond
120.0,6.0,1.0,1.0,1.0,1.0,324.9324829998841,3.0,1.0,phase_1,,,,,,,,,,,,,white,triangle
0.0,6.0,0.0,1.0,3.0,3.0,329.9515610001435,3.0,1.0,phase_1,,,,,,,,,,,,,white,triangle
108.0,2.0,1.0,0.0,2.0,2.0,343.6654469996938,3.0,1.0,phase_1,,,,,,,,,,,,,cyan,square
222.0,3.0,2.0,0.0,4.0,4.0,328.2702229998904,3.0,1.0,phase_1,,,,,,,,,,,,,blue,diamond
416.0,8.0,4.0,1.0,3.0,3.0,369.4856239999353,3.0,1.0,phase_1,,,,,,,,,,,,,yellow,I
0.0,4.0,0.0,0.0,2.0,2.0,327.5325309996333,3.0,1.0,phase_1,,,,,,,,,,,,,magenta,cross
410.0,4.0,4.0,0.0,1.0,1.0,327.4571560000368,3.0,1.0,phase_1,,,,,,,,,,,,,magenta,cross
377.0,4.0,4.0,0.0,2.0,2.0,319.6834219997981,3.0,1.0,phase_1,,,,,,,,,,,,,magenta,cross
203.0,7.0,2.0,1.0,2.0,2.0,356.8278579996331,3.0,1.0,phase_1,,,,,,,,,,,,,green,circle
0.0,8.0,0.0,1.0,1.0,1.0,374.2058449997785,3.0,1.0,phase_1,,,,,,,,,,,,,yellow,I
209.0,7.0,2.0,1.0,1.0,1.0,340.85819099982467,3.0,1.0,phase_1,,,,,,,,,,,,,green,circle
31.0,1.0,0.5,0.0,2.0,2.0,268.552426000042,3.0,1.0,phase_1,,,,,,,,,,,,,gray,hexagon
68.0,5.0,0.5,1.0,4.0,4.0,439.1765079999459,3.0,1.0,phase_1,,,,,,,,,,,,,orange,flipped triangle
83.0,2.0,1.0,0.0,2.0,2.0,334.2732930000238,3.0,1.0,phase_1,,,,,,,,,,,,,cyan,square
82.0,2.0,1.0,0.0,1.0,1.0,343.3005559995763,3.0,1.0,phase_1,,,,,,,,,,,,,cyan,square
95.0,2.0,1.0,0.0,2.0,2.0,306.0696850002387,3.0,1.0,phase_1,,,,,,,,,,,,,cyan,square
176.0,3.0,2.0,0.0,1.0,1.0,304.1684909999276,3.0,1.0,phase_1,,,,,,,,,,,,,blue,diamond
52.0,5.0,0.5,1.0,2.0,2.0,288.7519199998678,3.0,1.0,phase_1,,,,,,,,,,,,,orange,flipped triangle
418.0,4.0,4.0,0.0,3.0,3.0,281.7077380000228,4.0,1.0,phase_1,,,,,,,,,,,,,magenta,cross
61.0,1.0,0.5,0.0,4.0,4.0,278.278025000418,4.0,1.0,phase_1,,,,,,,,,,,,,gray,hexagon
410.0,8.0,4.0,1.0,3.0,3.0,366.3430370002061,4.0,1.0,phase_1,,,,,,,,,,,,,yellow,I
78.0,2.0,1.0,0.0,3.0,3.0,292.6832549997016,4.0,1.0,phase_1,,,,,,,,,,,,,cyan,square
44.0,5.0,0.5,1.0,2.0,2.0,328.9757960001225,4.0,1.0,phase_1,,,,,,,,,,,,,orange,flipped triangle
89.0,6.0,1.0,1.0,4.0,4.0,301.5965879999385,4.0,1.0,phase_1,,,,,,,,,,,,,white,triangle
52.0,1.0,0.5,0.0,4.0,4.0,302.161456000249,4.0,1.0,phase_1,,,,,,,,,,,,,gray,hexagon
25.0,1.0,0.5,0.0,3.0,3.0,321.5210729999853,4.0,1.0,phase_1,,,,,,,,,,,,,gray,hexagon
410.0,8.0,4.0,1.0,3.0,3.0,299.1635410003255,4.0,1.0,phase_1,,,,,,,,,,,,,yellow,I
47.0,5.0,0.5,1.0,2.0,2.0,311.3904460001322,4.0,1.0,phase_1,,,,,,,,,,,,,orange,flipped triangle
44.0,5.0,0.5,1.0,2.0,2.0,374.5540260001689,4.0,1.0,phase_1,,,,,,,,,,,,,orange,flipped triangle
189.0,3.0,2.0,0.0,4.0,4.0,255.9384040000623,4.0,1.0,phase_1,,,,,,,,,,,,,blue,diamond
192.0,7.0,2.0,1.0,2.0,2.0,370.863442999962,4.0,1.0,phase_1,,,,,,,,,,,,,green,circle
175.0,7.0,2.0,1.0,4.0,4.0,215.4897349996645,4.0,1.0,phase_1,,,,,,,,,,,,,green,circle
179.0,3.0,2.0,0.0,2.0,2.0,227.6298560000214,4.0,1.0,phase_1,,,,,,,,,,,,,blue,diamond
33.0,5.0,0.5,1.0,1.0,1.0,285.0230460003331,4.0,1.0,phase_1,,,,,,,,,,,,,orange,flipped triangle
405.0,4.0,4.0,0.0,2.0,2.0,359.8080209999352,4.0,1.0,phase_1,,,,,,,,,,,,,magenta,cross
405.0,8.0,4.0,1.0,2.0,2.0,327.8987119997509,4.0,1.0,phase_1,,,,,,,,,,,,,yellow,I
86.0,2.0,1.0,0.0,4.0,4.0,502.3753760001455,4.0,1.0,phase_1,,,,,,,,,,,,,cyan,square
118.0,6.0,1.0,1.0,2.0,2.0,355.2152839997688,4.0,1.0,phase_1,,,,,,,,,,,,,white,triangle
39.0,1.0,0.5,0.0,3.0,3.0,445.0462719996721,4.0,1.0,phase_1,,,,,,,,,,,,,gray,hexagon
0.0,1.0,0.0,0.0,2.0,2.0,302.989117999914,4.0,1.0,phase_1,,,,,,,,,,,,,gray,hexagon
217.0,3.0,2.0,0.0,2.0,2.0,312.1913449999738,4.0,1.0,phase_1,,,,,,,,,,,,,blue,diamond
89.0,6.0,1.0,1.0,1.0,1.0,322.6154009998936,4.0,1.0,phase_1,,,,,,,,,,,,,white,triangle
423.0,4.0,4.0,0.0,4.0,4.0,262.7790559999994,4.0,1.0,phase_1,,,,,,,,,,,,,magenta,cross
0.0,4.0,0.0,0.0,2.0,2.0,286.3553550000688,4.0,1.0,phase_1,,,,,,,,,,,,,magenta,cross
0.0,4.0,0.0,0.0,4.0,4.0,300.7343230001424,4.0,1.0,phase_1,,,,,,,,,,,,,magenta,cross
0.0,8.0,0.0,1.0,4.0,4.0,304.8812340002769,4.0,1.0,phase_1,,,,,,,,,,,,,yellow,I
0.0,7.0,0.0,1.0,1.0,1.0,358.1867679999959,4.0,1.0,phase_1,,,,,,,,,,,,,green,circle
389.0,4.0,4.0,0.0,4.0,4.0,339.0818150000996,4.0,1.0,phase_1,,,,,,,,,,,,,magenta,cross
0.0,4.0,0.0,0.0,3.0,3.0,322.2326170002816,4.0,1.0,phase_1,,,,,,,,,,,,,magenta,cross
0.0,3.0,0.0,0.0,3.0,3.0,328.8160659999448,4.0,2.0,phase_1,,,,,,,,,,,,,blue,diamond
0.0,2.0,0.0,0.0,1.0,1.0,395.0750730000436,4.0,1.0,phase_1,,,,,,,,,,,,,cyan,square
90.0,6.0,1.0,1.0,3.0,3.0,404.7108889999435,4.0,1.0,phase_1,,,,,,,,,,,,,white,triangle
193.0,7.0,2.0,1.0,4.0,4.0,370.1445099995908,4.0,1.0,phase_1,,,,,,,,,,,,,green,circle
0.0,7.0,0.0,1.0,4.0,4.0,367.3403980001239,4.0,1.0,phase_1,,,,,,,,,,,,,green,circle
0.0,5.0,0.0,1.0,1.0,1.0,314.5588920001501,4.0,1.0,phase_1,,,,,,,,,,,,,orange,flipped triangle
0.0,3.0,0.0,0.0,1.0,1.0,416.875796000113,4.0,1.0,phase_1,,,,,,,,,,,,,blue,diamond
209.0,3.0,2.0,0.0,3.0,3.0,281.1951470002896,4.0,1.0,phase_1,,,,,,,,,,,,,blue,diamond
392.0,4.0,4.0,0.0,4.0,4.0,317.9502289999618,4.0,1.0,phase_1,,,,,,,,,,,,,magenta,cross
189.0,7.0,2.0,1.0,1.0,1.0,408.5692570001811,4.0,1.0,phase_1,,,,,,,,,,,,,green,circle
124.0,6.0,1.0,1.0,1.0,1.0,452.3835440004404,4.0,1.0,phase_1,,,,,,,,,,,,,white,triangle
70.0,5.0,0.5,1.0,1.0,1.0,360.6694430000061,4.0,1.0,phase_1,,,,,,,,,,,,,orange,flipped triangle
82.0,6.0,1.0,1.0,2.0,2.0,343.9079740001034,4.0,1.0,phase_1,,,,,,,,,,,,,white,triangle
403.0,4.0,4.0,0.0,1.0,1.0,299.6539499999926,4.0,1.0,phase_1,,,,,,,,,,,,,magenta,cross
68.0,1.0,0.5,0.0,1.0,1.0,367.559490000076,4.0,1.0,phase_1,,,,,,,,,,,,,gray,hexagon
111.0,6.0,1.0,1.0,1.0,1.0,371.1748820001048,4.0,1.0,phase_1,,,,,,,,,,,,,white,triangle
397.0,8.0,4.0,1.0,3.0,3.0,591.8067130000964,4.0,1.0,phase_1,,,,,,,,,,,,,yellow,I
43.0,5.0,0.5,1.0,1.0,1.0,383.6006870001256,4.0,1.0,phase_1,,,,,,,,,,,,,orange,flipped triangle
107.0,6.0,1.0,1.0,4.0,4.0,377.3964109996086,4.0,1.0,phase_1,,,,,,,,,,,,,white,triangle
217.0,7.0,2.0,1.0,4.0,4.0,316.365362000397,4.0,1.0,phase_1,,,,,,,,,,,,,green,circle
0.0,4.0,0.0,0.0,4.0,4.0,376.1479549998512,4.0,1.0,phase_1,,,,,,,,,,,,,magenta,cross
378.0,4.0,4.0,0.0,4.0,4.0,286.6957700002785,4.0,1.0,phase_1,,,,,,,,,,,,,magenta,cross
178.0,7.0,2.0,1.0,3.0,3.0,296.7611080002825,4.0,1.0,phase_1,,,,,,,,,,,,,green,circle
0.0,1.0,0.0,0.0,3.0,3.0,291.3364829996681,4.0,1.0,phase_1,,,,,,,,,,,,,gray,hexagon
29.0,5.0,0.5,1.0,3.0,3.0,276.1029820003386,4.0,1.0,phase_1,,,,,,,,,,,,,orange,flipped triangle
0.0,7.0,0.0,1.0,2.0,2.0,385.4374289999214,4.0,1.0,phase_1,,,,,,,,,,,,,green,circle
0.0,6.0,0.0,1.0,4.0,4.0,288.5008829998696,4.0,1.0,phase_1,,,,,,,,,,,,,white,triangle
31.0,5.0,0.5,1.0,4.0,4.0,339.1640929999084,4.0,1.0,phase_1,,,,,,,,,,,,,orange,flipped triangle
70.0,5.0,0.5,1.0,3.0,3.0,274.2664040001727,4.0,1.0,phase_1,,,,,,,,,,,,,orange,flipped triangle
95.0,6.0,1.0,1.0,3.0,3.0,278.0129419998047,4.0,1.0,phase_1,,,,,,,,,,,,,white,triangle
0.0,5.0,0.0,1.0,4.0,4.0,259.9454239998522,4.0,1.0,phase_1,,,,,,,,,,,,,orange,flipped triangle
113.0,2.0,1.0,0.0,4.0,4.0,313.5420499997963,4.0,1.0,phase_1,,,,,,,,,,,,,cyan,square
392.0,8.0,4.0,1.0,1.0,1.0,394.9292830002378,4.0,1.0,phase_1,,,,,,,,,,,,,yellow,I
108.0,6.0,1.0,1.0,3.0,3.0,336.2864300002002,4.0,1.0,phase_1,,,,,,,,,,,,,white,triangle
0.0,1.0,0.0,0.0,4.0,4.0,378.1863449999036,4.0,1.0,phase_1,,,,,,,,,,,,,gray,hexagon
410.0,4.0,4.0,0.0,1.0,1.0,326.3197400001445,4.0,1.0,phase_1,,,,,,,,,,,,,magenta,cross
25.0,5.0,0.5,1.0,1.0,1.0,352.8570399998898,4.0,1.0,phase_1,,,,,,,,,,,,,orange,flipped triangle
119.0,2.0,1.0,0.0,1.0,1.0,319.9263769997742,4.0,1.0,phase_1,,,,,,,,,,,,,cyan,square
385.0,8.0,4.0,1.0,2.0,2.0,396.34084599993,4.0,1.0,phase_1,,,,,,,,,,,,,yellow,I
181.0,7.0,2.0,1.0,1.0,1.0,344.5855469999515,4.0,1.0,phase_1,,,,,,,,,,,,,green,circle
193.0,7.0,2.0,1.0,4.0,4.0,344.3031150000024,4.0,1.0,phase_1,,,,,,,,,,,,,green,circle
51.0,5.0,0.5,1.0,3.0,3.0,416.4230079995832,4.0,1.0,phase_1,,,,,,,,,,,,,orange,flipped triangle
86.0,6.0,1.0,1.0,3.0,3.0,278.3795049999753,4.0,1.0,phase_1,,,,,,,,,,,,,white,triangle
409.0,4.0,4.0,0.0,2.0,2.0,260.3196289996958,4.0,1.0,phase_1,,,,,,,,,,,,,magenta,cross
39.0,5.0,0.5,1.0,3.0,3.0,338.8889190000554,4.0,1.0,phase_1,,,,,,,,,,,,,orange,flipped triangle
378.0,4.0,4.0,0.0,3.0,3.0,276.3014699999075,4.0,1.0,phase_1,,,,,,,,,,,,,magenta,cross
0.0,3.0,0.0,0.0,4.0,4.0,394.3397149996599,4.0,1.0,phase_1,,,,,,,,,,,,,blue,diamond
0.0,6.0,0.0,1.0,3.0,3.0,350.40467400040137,4.0,1.0,phase_1,,,,,,,,,,,,,white,triangle
416.0,4.0,4.0,0.0,3.0,3.0,307.3385220000091,4.0,1.0,phase_1,,,,,,,,,,,,,magenta,cross
417.0,8.0,4.0,1.0,1.0,1.0,325.4534679999779,4.0,1.0,phase_1,,,,,,,,,,,,,yellow,I
0.0,6.0,0.0,1.0,2.0,2.0,311.2376239996592,4.0,1.0,phase_1,,,,,,,,,,,,,white,triangle
184.0,7.0,2.0,1.0,2.0,2.0,364.3519329998526,4.0,1.0,phase_1,,,,,,,,,,,,,green,circle
222.0,7.0,2.0,1.0,1.0,1.0,325.7852180004192,4.0,1.0,phase_1,,,,,,,,,,,,,green,circle
0.0,2.0,0.0,0.0,2.0,2.0,309.3485419999524,4.0,1.0,phase_1,,,,,,,,,,,,,cyan,square
392.0,4.0,4.0,0.0,3.0,3.0,358.2820219999121,4.0,1.0,phase_1,,,,,,,,,,,,,magenta,cross
190.0,7.0,2.0,1.0,2.0,2.0,334.2503839999153,4.0,1.0,phase_1,,,,,,,,,,,,,green,circle
63.0,1.0,0.5,0.0,3.0,3.0,537.836655999854,4.0,1.0,phase_1,,,,,,,,,,,,,gray,hexagon
193.0,3.0,2.0,0.0,1.0,1.0,346.3852729996688,4.0,1.0,phase_1,,,,,,,,,,,,,blue,diamond
404.0,8.0,4.0,1.0,1.0,1.0,359.0431289999287,4.0,1.0,phase_1,,,,,,,,,,,,,yellow,I
375.0,8.0,4.0,1.0,4.0,4.0,348.1718539997018,4.0,2.0,phase_1,,,,,,,,,,,,,yellow,I
0.0,4.0,0.0,0.0,3.0,3.0,323.9540889999261,4.0,1.0,phase_1,,,,,,,,,,,,,magenta,cross
88.0,2.0,1.0,0.0,3.0,3.0,356.0027329999684,4.0,1.0,phase_1,,,,,,,,,,,,,cyan,square
0.0,6.0,0.0,1.0,1.0,1.0,355.024670000148,4.0,1.0,phase_1,,,,,,,,,,,,,white,triangle
0.0,7.0,0.0,1.0,2.0,2.0,340.6365879995974,4.0,1.0,phase_1,,,,,,,,,,,,,green,circle
390.0,8.0,4.0,1.0,2.0,2.0,317.8314550000323,4.0,1.0,phase_1,,,,,,,,,,,,,yellow,I
64.0,5.0,0.5,1.0,4.0,4.0,319.7898399998848,4.0,1.0,phase_1,,,,,,,,,,,,,orange,flipped triangle
222.0,3.0,2.0,0.0,1.0,1.0,400.4154209997068,4.0,1.0,phase_1,,,,,,,,,,,,,blue,diamond
118.0,2.0,1.0,0.0,3.0,3.0,500.59218199976385,4.0,1.0,phase_1,,,,,,,,,,,,,cyan,square
27.0,5.0,0.5,1.0,2.0,2.0,307.8510820000701,4.0,1.0,phase_1,,,,,,,,,,,,,orange,flipped triangle
0.0,7.0,2.0,1.0,5.0,5.0,419.5742750002864,1.0,1.0,phase_2,stop,250.0,250.0,3.0,,,,,,,,,green,circle
0.0,6.0,1.0,1.0,6.0,0.0,0.0,1.0,1.0,phase_2,stop,200.0,250.0,4.0,,,,,,,,,white,triangle
0.0,6.0,1.0,1.0,6.0,6.0,391.0467430000608,1.0,1.0,phase_2,go,200.0,300.0,1.0,,,,,,,,,white,triangle
0.0,5.0,0.5,1.0,5.0,0.0,0.0,1.0,1.0,phase_2,stop,200.0,300.0,4.0,,,,,,,,,orange,flipped triangle
0.0,7.0,2.0,1.0,5.0,0.0,0.0,1.0,1.0,phase_2,stop,250.0,300.0,4.0,,,,,,,,,green,circle
0.0,4.0,4.0,0.0,6.0,6.0,532.3860720000084,1.0,1.0,phase_2,go,300.0,300.0,1.0,,,,,,,,,magenta,cross
0.0,5.0,0.5,1.0,6.0,0.0,0.0,1.0,1.0,phase_2,stop,300.0,300.0,4.0,,,,,,,,,orange,flipped triangle
0.0,3.0,2.0,0.0,6.0,6.0,735.5366140000115,1.0,1.0,phase_2,go,300.0,350.0,1.0,,,,,,,,,blue,diamond
0.0,7.0,2.0,1.0,6.0,6.0,577.2672970001622,1.0,1.0,phase_2,go,300.0,350.0,1.0,,,,,,,,,green,circle
0.0,6.0,1.0,1.0,6.0,6.0,497.2832299999936,1.0,1.0,phase_2,stop,300.0,350.0,3.0,,,,,,,,,white,triangle
0.0,8.0,4.0,1.0,6.0,0.0,0.0,1.0,1.0,phase_2,stop,300.0,300.0,4.0,,,,,,,,,yellow,I
0.0,2.0,1.0,0.0,5.0,5.0,571.6034219999528,1.0,1.0,phase_2,go,300.0,350.0,1.0,,,,,,,,,cyan,square
0.0,7.0,2.0,1.0,5.0,0.0,0.0,1.0,1.0,phase_2,stop,300.0,350.0,4.0,,,,,,,,,green,circle
0.0,2.0,1.0,0.0,5.0,5.0,603.1641929998841,1.0,1.0,phase_2,go,350.0,350.0,1.0,,,,,,,,,cyan,square
0.0,6.0,1.0,1.0,5.0,0.0,0.0,1.0,1.0,phase_2,stop,350.0,350.0,4.0,,,,,,,,,white,triangle
0.0,4.0,4.0,0.0,6.0,6.0,351.223237999875,1.0,1.0,phase_2,go,400.0,350.0,1.0,,,,,,,,,magenta,cross
0.0,6.0,1.0,1.0,5.0,0.0,0.0,1.0,1.0,phase_2,stop,400.0,350.0,4.0,,,,,,,,,white,triangle
0.0,5.0,0.5,1.0,5.0,0.0,0.0,1.0,1.0,phase_2,stop,450.0,350.0,4.0,,,,,,,,,orange,flipped triangle
0.0,8.0,4.0,1.0,5.0,0.0,0.0,1.0,1.0,phase_2,stop,500.0,350.0,4.0,,,,,,,,,yellow,I
0.0,2.0,1.0,0.0,6.0,6.0,561.3798809999935,1.0,1.0,phase_2,go,550.0,350.0,1.0,,,,,,,,,cyan,square
0.0,7.0,2.0,1.0,6.0,6.0,801.6351759997633,1.0,1.0,phase_2,go,550.0,350.0,1.0,,,,,,,,,green,circle
0.0,3.0,2.0,0.0,5.0,5.0,745.0751320002382,1.0,1.0,phase_2,go,550.0,350.0,1.0,,,,,,,,,blue,diamond
0.0,6.0,1.0,1.0,5.0,5.0,684.8594899997806,1.0,1.0,phase_2,stop,550.0,350.0,3.0,,,,,,,,,white,triangle
0.0,3.0,2.0,0.0,6.0,6.0,776.2765880002007,1.0,1.0,phase_2,go,500.0,350.0,1.0,,,,,,,,,blue,diamond
0.0,7.0,2.0,1.0,5.0,0.0,0.0,1.0,1.0,phase_2,stop,500.0,350.0,4.0,,,,,,,,,green,circle
0.0,4.0,4.0,0.0,6.0,6.0,830.1134210000782,1.0,1.0,phase_2,go,550.0,350.0,1.0,,,,,,,,,magenta,cross
0.0,4.0,4.0,0.0,5.0,5.0,833.8629050003874,1.0,1.0,phase_2,go,550.0,350.0,1.0,,,,,,,,,magenta,cross
0.0,5.0,0.5,1.0,5.0,5.0,710.6924879999497,1.0,1.0,phase_2,stop,550.0,350.0,3.0,,,,,,,,,orange,flipped triangle
0.0,3.0,2.0,0.0,6.0,6.0,1062.7138560003004,1.0,1.0,phase_2,go,500.0,350.0,1.0,,,,,,,,,blue,diamond
0.0,1.0,0.5,0.0,5.0,5.0,918.9191179998488,1.0,1.0,phase_2,go,500.0,350.0,1.0,,,,,,,,,gray,hexagon
0.0,8.0,4.0,1.0,5.0,5.0,563.0030269999224,1.0,1.0,phase_2,stop,500.0,350.0,3.0,,,,,,,,,yellow,I
0.0,4.0,4.0,0.0,5.0,5.0,754.7773999999663,1.0,1.0,phase_2,go,450.0,350.0,1.0,,,,,,,,,magenta,cross
0.0,3.0,2.0,0.0,6.0,6.0,753.4031219997814,1.0,1.0,phase_2,go,450.0,350.0,1.0,,,,,,,,,blue,diamond
0.0,5.0,0.5,1.0,6.0,0.0,0.0,1.0,1.0,phase_2,stop,450.0,350.0,4.0,,,,,,,,,orange,flipped triangle
0.0,7.0,2.0,1.0,6.0,0.0,0.0,1.0,1.0,phase_2,stop,450.0,400.0,4.0,,,,,,,,,green,circle
0.0,1.0,0.5,0.0,6.0,6.0,851.5050480000355,1.0,1.0,phase_2,go,450.0,450.0,1.0,,,,,,,,,gray,hexagon
0.0,7.0,2.0,1.0,5.0,0.0,0.0,2.0,1.0,phase_2,stop,450.0,450.0,4.0,,,,,,,,,green,circle
0.0,5.0,0.5,1.0,6.0,6.0,360.728688999643,2.0,1.0,phase_2,go,500.0,450.0,1.0,,,,,,,,,orange,flipped triangle
0.0,3.0,2.0,0.0,6.0,6.0,581.9032539998261,2.0,1.0,phase_2,go,500.0,450.0,1.0,,,,,,,,,blue,diamond
0.0,1.0,0.5,0.0,6.0,6.0,598.1439789998149,2.0,1.0,phase_2,go,500.0,450.0,1.0,,,,,,,,,gray,hexagon
0.0,4.0,4.0,0.0,5.0,5.0,525.6255779995627,2.0,1.0,phase_2,go,500.0,450.0,1.0,,,,,,,,,magenta,cross
0.0,6.0,1.0,1.0,5.0,5.0,347.8238309999142,2.0,1.0,phase_2,stop,500.0,450.0,3.0,,,,,,,,,white,triangle
0.0,1.0,0.5,0.0,6.0,6.0,555.0549059998957,2.0,1.0,phase_2,go,450.0,450.0,1.0,,,,,,,,,gray,hexagon
0.0,7.0,2.0,1.0,5.0,5.0,579.2247070003214,2.0,1.0,phase_2,stop,450.0,450.0,3.0,,,,,,,,,green,circle
0.0,3.0,2.0,0.0,5.0,5.0,667.7457639998465,2.0,1.0,phase_2,go,400.0,450.0,1.0,,,,,,,,,blue,diamond
0.0,1.0,0.5,0.0,6.0,6.0,550.7368100002168,2.0,1.0,phase_2,go,400.0,450.0,1.0,,,,,,,,,gray,hexagon
0.0,4.0,4.0,0.0,5.0,5.0,688.5416239997539,2.0,1.0,phase_2,go,400.0,450.0,1.0,,,,,,,,,magenta,cross
0.0,7.0,2.0,1.0,6.0,6.0,662.9839420002099,2.0,1.0,phase_2,stop,400.0,450.0,3.0,,,,,,,,,green,circle
0.0,5.0,0.5,1.0,6.0,0.0,0.0,2.0,1.0,phase_2,stop,400.0,400.0,4.0,,,,,,,,,orange,flipped triangle
0.0,2.0,1.0,0.0,5.0,5.0,505.76404399998864,2.0,1.0,phase_2,go,400.0,450.0,1.0,,,,,,,,,cyan,square
0.0,7.0,2.0,1.0,6.0,6.0,761.1642229999234,2.0,1.0,phase_2,go,400.0,450.0,1.0,,,,,,,,,green,circle
0.0,6.0,1.0,1.0,5.0,5.0,696.7566009998336,2.0,1.0,phase_2,go,400.0,450.0,1.0,,,,,,,,,white,triangle
0.0,8.0,4.0,1.0,5.0,0.0,0.0,2.0,1.0,phase_2,stop,400.0,450.0,4.0,,,,,,,,,yellow,I
0.0,2.0,1.0,0.0,6.0,6.0,294.9315529999694,2.0,1.0,phase_2,go,450.0,450.0,1.0,,,,,,,,,cyan,square
0.0,1.0,0.5,0.0,5.0,5.0,549.3502079998507,2.0,1.0,phase_2,go,450.0,450.0,1.0,,,,,,,,,gray,hexagon
0.0,6.0,1.0,1.0,5.0,5.0,760.766287000024,2.0,1.0,phase_2,go,450.0,450.0,1.0,,,,,,,,,white,triangle
0.0,5.0,0.5,1.0,5.0,5.0,328.9075960001355,2.0,1.0,phase_2,stop,450.0,450.0,3.0,,,,,,,,,orange,flipped triangle
0.0,1.0,0.5,0.0,6.0,6.0,625.6296859996837,2.0,1.0,phase_2,go,400.0,450.0,1.0,,,,,,,,,gray,hexagon
0.0,7.0,2.0,1.0,6.0,6.0,568.5676709999825,2.0,1.0,phase_2,stop,400.0,450.0,3.0,,,,,,,,,green,circle
0.0,1.0,0.5,0.0,6.0,6.0,878.2158129997697,2.0,1.0,phase_2,go,400.0,400.0,1.0,,,,,,,,,gray,hexagon
0.0,6.0,1.0,1.0,6.0,6.0,474.8658550001892,2.0,1.0,phase_2,stop,400.0,400.0,3.0,,,,,,,,,white,triangle
0.0,1.0,0.5,0.0,6.0,6.0,530.6659670000045,2.0,1.0,phase_2,go,400.0,350.0,1.0,,,,,,,,,gray,hexagon
0.0,5.0,0.5,1.0,5.0,0.0,0.0,2.0,1.0,phase_2,stop,400.0,350.0,4.0,,,,,,,,,orange,flipped triangle
0.0,1.0,0.5,0.0,5.0,5.0,685.3163250002581,2.0,1.0,phase_2,go,450.0,350.0,1.0,,,,,,,,,gray,hexagon
0.0,4.0,4.0,0.0,5.0,5.0,948.547969000174,2.0,1.0,phase_2,go,450.0,350.0,1.0,,,,,,,,,magenta,cross
0.0,5.0,0.5,1.0,5.0,0.0,0.0,2.0,1.0,phase_2,stop,450.0,350.0,4.0,,,,,,,,,orange,flipped triangle
0.0,3.0,2.0,0.0,5.0,5.0,668.0657279998741,2.0,1.0,phase_2,go,500.0,350.0,1.0,,,,,,,,,blue,diamond
0.0,6.0,1.0,1.0,6.0,6.0,683.6304490002476,2.0,1.0,phase_2,go,500.0,350.0,1.0,,,,,,,,,white,triangle
0.0,3.0,2.0,0.0,6.0,6.0,668.2253330000094,2.0,1.0,phase_2,go,500.0,350.0,1.0,,,,,,,,,blue,diamond
0.0,5.0,0.5,1.0,5.0,5.0,643.9639529999113,2.0,1.0,phase_2,stop,500.0,350.0,3.0,,,,,,,,,orange,flipped triangle
0.0,1.0,0.5,0.0,5.0,5.0,445.561975000146,2.0,1.0,phase_2,go,450.0,350.0,1.0,,,,,,,,,gray,hexagon
0.0,3.0,2.0,0.0,6.0,6.0,659.1635200002202,2.0,1.0,phase_2,go,450.0,350.0,1.0,,,,,,,,,blue,diamond
0.0,8.0,4.0,1.0,5.0,5.0,836.3609530001668,3.0,1.0,phase_2,go,450.0,350.0,1.0,,,,,,,,,yellow,I
0.0,6.0,1.0,1.0,5.0,5.0,549.6432270001606,3.0,1.0,phase_2,stop,450.0,350.0,3.0,,,,,,,,,white,triangle
0.0,6.0,1.0,1.0,5.0,5.0,508.05236499991224,3.0,1.0,phase_2,stop,400.0,350.0,3.0,,,,,,,,,white,triangle
0.0,5.0,0.5,1.0,6.0,0.0,0.0,3.0,1.0,phase_2,stop,350.0,350.0,4.0,,,,,,,,,orange,flipped triangle
0.0,6.0,1.0,1.0,6.0,6.0,531.281171000046,3.0,1.0,phase_2,go,350.0,400.0,1.0,,,,,,,,,white,triangle
0.0,7.0,2.0,1.0,5.0,0.0,0.0,3.0,1.0,phase_2,stop,350.0,400.0,4.0,,,,,,,,,green,circle
0.0,1.0,0.5,0.0,6.0,6.0,531.3597350000236,3.0,1.0,phase_2,go,400.0,400.0,1.0,,,,,,,,,gray,hexagon
0.0,6.0,1.0,1.0,5.0,0.0,0.0,3.0,1.0,phase_2,stop,400.0,400.0,4.0,,,,,,,,,white,triangle
0.0,7.0,2.0,1.0,6.0,0.0,0.0,3.0,1.0,phase_2,stop,450.0,400.0,4.0,,,,,,,,,green,circle
0.0,6.0,1.0,1.0,6.0,6.0,610.9554009999556,3.0,1.0,phase_2,stop,450.0,450.0,3.0,,,,,,,,,white,triangle
0.0,2.0,1.0,0.0,6.0,6.0,854.8299959998076,3.0,1.0,phase_2,go,450.0,400.0,1.0,,,,,,,,,cyan,square
0.0,3.0,2.0,0.0,5.0,5.0,841.5690709998671,3.0,1.0,phase_2,go,450.0,400.0,1.0,,,,,,,,,blue,diamond
0.0,8.0,4.0,1.0,6.0,0.0,0.0,3.0,1.0,phase_2,stop,450.0,400.0,4.0,,,,,,,,,yellow,I
0.0,3.0,2.0,0.0,5.0,5.0,581.1684710001828,3.0,1.0,phase_2,go,450.0,450.0,1.0,,,,,,,,,blue,diamond
0.0,3.0,2.0,0.0,6.0,6.0,666.7184420002741,3.0,1.0,phase_2,go,450.0,450.0,1.0,,,,,,,,,blue,diamond
0.0,8.0,4.0,1.0,5.0,5.0,631.5935119996539,3.0,1.0,phase_2,stop,450.0,450.0,3.0,,,,,,,,,yellow,I
0.0,4.0,4.0,0.0,5.0,5.0,565.4136499997549,3.0,1.0,phase_2,go,400.0,450.0,1.0,,,,,,,,,magenta,cross
0.0,8.0,4.0,1.0,5.0,0.0,0.0,3.0,1.0,phase_2,stop,400.0,450.0,4.0,,,,,,,,,yellow,I
0.0,4.0,4.0,0.0,5.0,5.0,702.4354959999073,3.0,1.0,phase_2,go,450.0,450.0,1.0,,,,,,,,,magenta,cross
0.0,3.0,2.0,0.0,5.0,5.0,728.1184130001748,3.0,1.0,phase_2,go,450.0,450.0,1.0,,,,,,,,,blue,diamond
0.0,6.0,1.0,1.0,6.0,6.0,489.1303290000905,3.0,1.0,phase_2,stop,450.0,450.0,3.0,,,,,,,,,white,triangle
0.0,3.0,2.0,0.0,6.0,6.0,696.8133010000201,3.0,1.0,phase_2,go,450.0,400.0,1.0,,,,,,,,,blue,diamond
0.0,3.0,2.0,0.0,6.0,6.0,795.5011680001007,3.0,1.0,phase_2,go,450.0,400.0,1.0,,,,,,,,,blue,diamond
0.0,3.0,2.0,0.0,5.0,5.0,617.5063959999534,3.0,1.0,phase_2,go,450.0,400.0,1.0,,,,,,,,,blue,diamond
0.0,6.0,1.0,1.0,5.0,5.0,603.793647999737,3.0,1.0,phase_2,stop,450.0,400.0,3.0,,,,,,,,,white,triangle
0.0,7.0,2.0,1.0,5.0,0.0,0.0,3.0,1.0,phase_2,stop,400.0,400.0,4.0,,,,,,,,,green,circle
0.0,2.0,1.0,0.0,6.0,6.0,709.8159089996443,3.0,1.0,phase_2,go,450.0,400.0,1.0,,,,,,,,,cyan,square
0.0,4.0,4.0,0.0,6.0,6.0,795.3907010000876,3.0,1.0,phase_2,go,450.0,400.0,1.0,,,,,,,,,magenta,cross
0.0,5.0,0.5,1.0,5.0,5.0,787.2550679999222,3.0,1.0,phase_2,stop,450.0,400.0,3.0,,,,,,,,,orange,flipped triangle
0.0,1.0,0.5,0.0,5.0,5.0,742.6386030001595,3.0,1.0,phase_2,go,400.0,400.0,1.0,,,,,,,,,gray,hexagon
0.0,5.0,0.5,1.0,5.0,0.0,0.0,3.0,1.0,phase_2,stop,400.0,400.0,4.0,,,,,,,,,orange,flipped triangle
0.0,8.0,4.0,1.0,5.0,0.0,0.0,3.0,1.0,phase_2,stop,450.0,400.0,4.0,,,,,,,,,yellow,I
0.0,1.0,0.5,0.0,5.0,5.0,743.4570330001407,3.0,1.0,phase_2,go,500.0,400.0,1.0,,,,,,,,,gray,hexagon
0.0,5.0,0.5,1.0,5.0,0.0,0.0,3.0,1.0,phase_2,stop,500.0,400.0,4.0,,,,,,,,,orange,flipped triangle
0.0,4.0,4.0,0.0,5.0,5.0,738.3709099999578,3.0,1.0,phase_2,go,550.0,400.0,1.0,,,,,,,,,magenta,cross
0.0,3.0,2.0,0.0,5.0,5.0,800.5820839998705,3.0,1.0,phase_2,go,550.0,400.0,1.0,,,,,,,,,blue,diamond
0.0,6.0,1.0,1.0,5.0,5.0,544.761335000203,4.0,1.0,phase_2,stop,550.0,400.0,3.0,,,,,,,,,white,triangle
0.0,7.0,2.0,1.0,5.0,5.0,605.2827819999038,4.0,1.0,phase_2,go,500.0,400.0,1.0,,,,,,,,,green,circle
0.0,5.0,0.5,1.0,5.0,0.0,0.0,4.0,1.0,phase_2,stop,500.0,400.0,4.0,,,,,,,,,orange,flipped triangle
0.0,2.0,1.0,0.0,6.0,6.0,641.3943369998378,4.0,1.0,phase_2,go,550.0,400.0,1.0,,,,,,,,,cyan,square
0.0,1.0,0.5,0.0,5.0,5.0,773.8316909999412,4.0,1.0,phase_2,go,550.0,400.0,1.0,,,,,,,,,gray,hexagon
0.0,1.0,0.5,0.0,6.0,6.0,659.9735459999465,4.0,1.0,phase_2,go,550.0,400.0,1.0,,,,,,,,,gray,hexagon
0.0,3.0,2.0,0.0,6.0,6.0,572.2284919997946,4.0,1.0,phase_2,go,550.0,400.0,1.0,,,,,,,,,blue,diamond
0.0,5.0,0.5,1.0,5.0,5.0,605.3906590000224,4.0,1.0,phase_2,go,550.0,400.0,1.0,,,,,,,,,orange,flipped triangle
0.0,1.0,0.5,0.0,5.0,5.0,345.2587779997884,4.0,1.0,phase_2,go,550.0,400.0,1.0,,,,,,,,,gray,hexagon
0.0,2.0,1.0,0.0,5.0,5.0,619.0341940000508,4.0,1.0,phase_2,go,550.0,400.0,1.0,,,,,,,,,cyan,square
0.0,4.0,4.0,0.0,6.0,6.0,424.2682960002639,4.0,1.0,phase_2,go,550.0,400.0,1.0,,,,,,,,,magenta,cross
0.0,3.0,2.0,0.0,5.0,5.0,539.1808280000987,4.0,1.0,phase_2,go,550.0,400.0,1.0,,,,,,,,,blue,diamond
0.0,8.0,4.0,1.0,6.0,0.0,0.0,4.0,1.0,phase_2,stop,550.0,400.0,4.0,,,,,,,,,yellow,I
0.0,3.0,2.0,0.0,6.0,6.0,634.6866550002233,4.0,1.0,phase_2,go,550.0,450.0,1.0,,,,,,,,,blue,diamond
0.0,2.0,1.0,0.0,5.0,5.0,567.2409389999302,4.0,1.0,phase_2,go,550.0,450.0,1.0,,,,,,,,,cyan,square
0.0,8.0,4.0,1.0,6.0,0.0,0.0,4.0,1.0,phase_2,stop,550.0,450.0,4.0,,,,,,,,,yellow,I
0.0,5.0,0.5,1.0,6.0,6.0,653.3963889996812,4.0,1.0,phase_2,go,550.0,500.0,1.0,,,,,,,,,orange,flipped triangle
0.0,3.0,2.0,0.0,5.0,5.0,371.5012990001014,4.0,1.0,phase_2,go,550.0,500.0,1.0,,,,,,,,,blue,diamond
0.0,4.0,4.0,0.0,6.0,6.0,537.8357059998962,4.0,1.0,phase_2,go,550.0,500.0,1.0,,,,,,,,,magenta,cross
0.0,4.0,4.0,0.0,6.0,6.0,392.2579959998984,4.0,1.0,phase_2,go,550.0,500.0,1.0,,,,,,,,,magenta,cross
0.0,8.0,4.0,1.0,5.0,5.0,598.0955810000523,4.0,1.0,phase_2,go,550.0,500.0,1.0,,,,,,,,,yellow,I
0.0,8.0,4.0,1.0,6.0,6.0,535.6532659998265,4.0,1.0,phase_2,stop,550.0,500.0,3.0,,,,,,,,,yellow,I
0.0,4.0,4.0,0.0,6.0,6.0,519.6983569999247,4.0,1.0,phase_2,go,550.0,450.0,1.0,,,,,,,,,magenta,cross
0.0,6.0,1.0,1.0,6.0,6.0,525.5443070000183,4.0,1.0,phase_2,stop,550.0,450.0,3.0,,,,,,,,,white,triangle
0.0,5.0,0.5,1.0,5.0,0.0,0.0,4.0,1.0,phase_2,stop,550.0,400.0,4.0,,,,,,,,,orange,flipped triangle
0.0,8.0,4.0,1.0,5.0,5.0,638.1149130002086,4.0,1.0,phase_2,stop,600.0,400.0,3.0,,,,,,,,,yellow,I
0.0,2.0,1.0,0.0,5.0,5.0,954.8046790000626,4.0,1.0,phase_2,go,550.0,400.0,1.0,,,,,,,,,cyan,square
0.0,7.0,2.0,1.0,5.0,5.0,777.6915889999145,4.0,1.0,phase_2,go,550.0,400.0,1.0,,,,,,,,,green,circle
0.0,6.0,1.0,1.0,5.0,0.0,0.0,4.0,1.0,phase_2,stop,550.0,400.0,4.0,,,,,,,,,white,triangle
0.0,3.0,2.0,0.0,6.0,6.0,447.7019279997876,4.0,1.0,phase_2,go,600.0,400.0,1.0,,,,,,,,,blue,diamond
0.0,7.0,2.0,1.0,5.0,5.0,655.2163250003105,4.0,1.0,phase_2,go,600.0,400.0,1.0,,,,,,,,,green,circle
0.0,4.0,4.0,0.0,6.0,6.0,789.1192580000279,4.0,1.0,phase_2,go,600.0,400.0,1.0,,,,,,,,,magenta,cross
0.0,1.0,0.5,0.0,6.0,6.0,513.6095489997388,4.0,1.0,phase_2,go,600.0,400.0,1.0,,,,,,,,,gray,hexagon
0.0,8.0,4.0,1.0,6.0,0.0,0.0,4.0,1.0,phase_2,stop,600.0,400.0,4.0,,,,,,,,,yellow,I
0.0,8.0,4.0,1.0,5.0,5.0,666.6158980001455,4.0,1.0,phase_2,stop,600.0,450.0,3.0,,,,,,,,,yellow,I
0.0,8.0,4.0,1.0,6.0,6.0,978.9357969998492,4.0,1.0,phase_2,go,550.0,450.0,1.0,,,,,,,,,yellow,I
0.0,4.0,4.0,0.0,5.0,5.0,774.1359069996179,5.0,1.0,phase_2,go,550.0,450.0,1.0,,,,,,,,,magenta,cross
0.0,3.0,2.0,0.0,5.0,5.0,408.7050820003242,5.0,1.0,phase_2,go,550.0,450.0,1.0,,,,,,,,,blue,diamond
0.0,1.0,0.5,0.0,5.0,0.0,0.0,5.0,1.0,phase_2,go,550.0,450.0,5.0,,,,,,,,,gray,hexagon
0.0,2.0,1.0,0.0,5.0,5.0,715.3846769997472,5.0,1.0,phase_2,go,550.0,450.0,1.0,,,,,,,,,cyan,square
0.0,6.0,1.0,1.0,6.0,6.0,494.1469770001276,5.0,1.0,phase_2,stop,550.0,450.0,3.0,,,,,,,,,white,triangle
0.0,4.0,4.0,0.0,6.0,6.0,607.2925720000057,5.0,1.0,phase_2,go,550.0,400.0,1.0,,,,,,,,,magenta,cross
0.0,6.0,1.0,1.0,6.0,0.0,0.0,5.0,1.0,phase_2,stop,550.0,400.0,4.0,,,,,,,,,white,triangle
0.0,1.0,0.5,0.0,5.0,5.0,630.7317259997944,5.0,1.0,phase_2,go,550.0,450.0,1.0,,,,,,,,,gray,hexagon
0.0,1.0,0.5,0.0,5.0,5.0,836.9390029997703,5.0,1.0,phase_2,go,550.0,450.0,1.0,,,,,,,,,gray,hexagon
0.0,7.0,2.0,1.0,6.0,6.0,483.6310370001229,5.0,1.0,phase_2,stop,550.0,450.0,3.0,,,,,,,,,green,circle
0.0,7.0,2.0,1.0,6.0,0.0,0.0,5.0,1.0,phase_2,stop,550.0,400.0,4.0,,,,,,,,,green,circle
0.0,5.0,0.5,1.0,5.0,5.0,516.5750549999757,5.0,1.0,phase_2,stop,550.0,450.0,3.0,,,,,,,,,orange,flipped triangle
0.0,7.0,2.0,1.0,5.0,5.0,704.1222500001822,5.0,1.0,phase_2,go,500.0,450.0,1.0,,,,,,,,,green,circle
0.0,6.0,1.0,1.0,6.0,0.0,0.0,5.0,1.0,phase_2,stop,500.0,450.0,4.0,,,,,,,,,white,triangle
0.0,7.0,2.0,1.0,6.0,6.0,591.9772499996725,5.0,1.0,phase_2,stop,500.0,500.0,3.0,,,,,,,,,green,circle
0.0,4.0,4.0,0.0,6.0,6.0,826.5567649996228,5.0,1.0,phase_2,go,500.0,450.0,1.0,,,,,,,,,magenta,cross
0.0,2.0,1.0,0.0,5.0,5.0,804.5696240001234,5.0,1.0,phase_2,go,500.0,450.0,1.0,,,,,,,,,cyan,square
0.0,8.0,4.0,1.0,5.0,0.0,0.0,5.0,1.0,phase_2,stop,500.0,450.0,4.0,,,,,,,,,yellow,I
0.0,4.0,4.0,0.0,5.0,5.0,759.5046850001381,5.0,1.0,phase_2,go,550.0,450.0,1.0,,,,,,,,,magenta,cross
0.0,4.0,4.0,0.0,5.0,5.0,615.4779020002934,5.0,1.0,phase_2,go,550.0,450.0,1.0,,,,,,,,,magenta,cross
0.0,3.0,2.0,0.0,5.0,5.0,610.9768470000745,5.0,1.0,phase_2,go,550.0,450.0,1.0,,,,,,,,,blue,diamond
0.0,3.0,2.0,0.0,6.0,6.0,727.9644330001247,5.0,1.0,phase_2,go,550.0,450.0,1.0,,,,,,,,,blue,diamond
0.0,5.0,0.5,1.0,5.0,0.0,0.0,5.0,1.0,phase_2,stop,550.0,450.0,4.0,,,,,,,,,orange,flipped triangle
0.0,6.0,1.0,1.0,5.0,5.0,767.5184350000563,5.0,1.0,phase_2,stop,600.0,450.0,3.0,,,,,,,,,white,triangle
0.0,1.0,0.5,0.0,5.0,5.0,665.0893529999848,5.0,1.0,phase_2,go,550.0,450.0,1.0,,,,,,,,,gray,hexagon
0.0,2.0,1.0,0.0,6.0,6.0,699.5537400002831,5.0,1.0,phase_2,go,550.0,450.0,1.0,,,,,,,,,cyan,square
0.0,1.0,0.5,0.0,5.0,5.0,643.2105510002657,5.0,1.0,phase_2,go,550.0,450.0,1.0,,,,,,,,,gray,hexagon
0.0,5.0,0.5,1.0,6.0,0.0,0.0,5.0,1.0,phase_2,stop,550.0,450.0,4.0,,,,,,,,,orange,flipped triangle
0.0,3.0,2.0,0.0,5.0,5.0,560.7456540001294,5.0,1.0,phase_2,go,550.0,500.0,1.0,,,,,,,,,blue,diamond
0.0,1.0,0.5,0.0,5.0,5.0,578.0114300000605,5.0,1.0,phase_2,go,550.0,500.0,1.0,,,,,,,,,gray,hexagon
0.0,7.0,2.0,1.0,6.0,6.0,603.5627860001114,5.0,1.0,phase_2,stop,550.0,500.0,3.0,,,,,,,,,green,circle
0.0,2.0,1.0,0.0,5.0,5.0,389.5246219999535,5.0,1.0,phase_2,go,550.0,450.0,1.0,,,,,,,,,cyan,square
0.0,4.0,4.0,0.0,5.0,5.0,486.5236549999281,5.0,1.0,phase_2,go,550.0,450.0,1.0,,,,,,,,,magenta,cross
0.0,3.0,2.0,0.0,5.0,5.0,619.5759800002634,5.0,1.0,phase_2,go,550.0,450.0,1.0,,,,,,,,,blue,diamond
0.0,1.0,0.5,0.0,5.0,5.0,722.6198719999957,5.0,1.0,phase_2,go,550.0,450.0,1.0,,,,,,,,,gray,hexagon
0.0,1.0,0.5,0.0,6.0,6.0,758.4510739998223,5.0,1.0,phase_2,go,550.0,450.0,1.0,,,,,,,,,gray,hexagon
0.0,6.0,1.0,1.0,6.0,6.0,402.7193739998438,6.0,1.0,phase_2,stop,550.0,450.0,3.0,,,,,,,,,white,triangle
0.0,7.0,2.0,1.0,5.0,5.0,498.1584329998441,6.0,1.0,phase_2,stop,550.0,400.0,3.0,,,,,,,,,green,circle
0.0,6.0,1.0,1.0,5.0,5.0,636.8359419998342,6.0,1.0,phase_2,go,500.0,400.0,1.0,,,,,,,,,white,triangle
0.0,2.0,1.0,0.0,6.0,6.0,517.9741229999308,6.0,1.0,phase_2,go,500.0,400.0,1.0,,,,,,,,,cyan,square
0.0,5.0,0.5,1.0,6.0,6.0,578.5940849996223,6.0,1.0,phase_2,go,500.0,400.0,1.0,,,,,,,,,orange,flipped triangle
0.0,5.0,0.5,1.0,5.0,5.0,333.9141929996003,6.0,1.0,phase_2,go,500.0,400.0,1.0,,,,,,,,,orange,flipped triangle
0.0,4.0,4.0,0.0,6.0,6.0,386.0423149999406,6.0,1.0,phase_2,go,500.0,400.0,1.0,,,,,,,,,magenta,cross
0.0,4.0,4.0,0.0,5.0,5.0,426.7206469999109,6.0,1.0,phase_2,go,500.0,400.0,1.0,,,,,,,,,magenta,cross
0.0,8.0,4.0,1.0,6.0,6.0,322.0796199998403,6.0,1.0,phase_2,stop,500.0,400.0,3.0,,,,,,,,,yellow,I
0.0,3.0,2.0,0.0,6.0,6.0,561.9691769998099,6.0,1.0,phase_2,go,500.0,350.0,1.0,,,,,,,,,blue,diamond
0.0,8.0,4.0,1.0,5.0,5.0,400.4694540003584,6.0,1.0,phase_2,stop,500.0,350.0,3.0,,,,,,,,,yellow,I
0.0,7.0,2.0,1.0,5.0,5.0,565.9246599998369,6.0,1.0,phase_2,stop,450.0,350.0,3.0,,,,,,,,,green,circle
0.0,7.0,2.0,1.0,5.0,0.0,0.0,6.0,1.0,phase_2,stop,400.0,350.0,4.0,,,,,,,,,green,circle
0.0,4.0,4.0,0.0,6.0,6.0,498.9025639997635,6.0,1.0,phase_2,go,450.0,350.0,1.0,,,,,,,,,magenta,cross
0.0,3.0,2.0,0.0,5.0,5.0,654.6202629997424,6.0,1.0,phase_2,go,450.0,350.0,1.0,,,,,,,,,blue,diamond
0.0,4.0,4.0,0.0,6.0,6.0,563.4026610000546,6.0,1.0,phase_2,go,450.0,350.0,1.0,,,,,,,,,magenta,cross
0.0,5.0,0.5,1.0,6.0,0.0,0.0,6.0,1.0,phase_2,stop,450.0,350.0,4.0,,,,,,,,,orange,flipped triangle
0.0,2.0,1.0,0.0,5.0,5.0,551.1216279996916,6.0,1.0,phase_2,go,450.0,400.0,1.0,,,,,,,,,cyan,square
0.0,8.0,4.0,1.0,6.0,6.0,601.3721940003052,6.0,1.0,phase_2,go,450.0,400.0,1.0,,,,,,,,,yellow,I
0.0,5.0,0.5,1.0,6.0,0.0,0.0,6.0,1.0,phase_2,stop,450.0,400.0,4.0,,,,,,,,,orange,flipped triangle
0.0,2.0,1.0,0.0,6.0,6.0,647.1445970000786,6.0,1.0,phase_2,go,450.0,450.0,1.0,,,,,,,,,cyan,square
0.0,8.0,4.0,1.0,5.0,5.0,624.9196479998318,6.0,1.0,phase_2,go,450.0,450.0,1.0,,,,,,,,,yellow,I
0.0,5.0,0.5,1.0,5.0,5.0,652.8968520001399,6.0,1.0,phase_2,go,450.0,450.0,1.0,,,,,,,,,orange,flipped triangle
0.0,8.0,4.0,1.0,6.0,6.0,600.5451110004287,6.0,1.0,phase_2,go,450.0,450.0,1.0,,,,,,,,,yellow,I
0.0,4.0,4.0,0.0,6.0,6.0,564.5825810001952,6.0,1.0,phase_2,go,450.0,450.0,1.0,,,,,,,,,magenta,cross
0.0,5.0,0.5,1.0,6.0,6.0,574.9770430002172,6.0,1.0,phase_2,go,450.0,450.0,1.0,,,,,,,,,orange,flipped triangle
0.0,7.0,2.0,1.0,5.0,5.0,581.789487000151,6.0,1.0,phase_2,stop,450.0,450.0,3.0,,,,,,,,,green,circle
0.0,7.0,2.0,1.0,6.0,6.0,684.1827519997423,6.0,1.0,phase_2,go,400.0,450.0,1.0,,,,,,,,,green,circle
0.0,2.0,1.0,0.0,5.0,5.0,622.5288059999912,6.0,1.0,phase_2,go,400.0,450.0,1.0,,,,,,,,,cyan,square
0.0,8.0,4.0,1.0,5.0,5.0,664.3850669997846,6.0,1.0,phase_2,go,400.0,450.0,1.0,,,,,,,,,yellow,I
0.0,7.0,2.0,1.0,6.0,6.0,412.1578760000375,6.0,1.0,phase_2,stop,400.0,450.0,3.0,,,,,,,,,green,circle
0.0,2.0,1.0,0.0,5.0,5.0,600.6383910003024,6.0,1.0,phase_2,go,400.0,400.0,1.0,,,,,,,,,cyan,square
0.0,6.0,1.0,1.0,5.0,5.0,590.6098740001653,6.0,1.0,phase_2,go,400.0,400.0,1.0,,,,,,,,,white,triangle
0.0,1.0,0.5,0.0,5.0,5.0,443.4428640001897,6.0,1.0,phase_2,go,400.0,400.0,1.0,,,,,,,,,gray,hexagon
0.0,6.0,1.0,1.0,6.0,6.0,561.7580230000385,6.0,1.0,phase_2,stop,400.0,400.0,3.0,,,,,,,,,white,triangle
0.0,8.0,4.0,1.0,6.0,0.0,0.0,6.0,1.0,phase_2,stop,400.0,350.0,4.0,,,,,,,,,yellow,I
0.0,2.0,1.0,0.0,6.0,6.0,705.5648630002906,7.0,1.0,phase_2,go,400.0,400.0,1.0,,,,,,,,,cyan,square
0.0,1.0,0.5,0.0,6.0,6.0,657.1391390002645,7.0,1.0,phase_2,go,400.0,400.0,1.0,,,,,,,,,gray,hexagon
0.0,5.0,0.5,1.0,6.0,0.0,0.0,7.0,1.0,phase_2,stop,400.0,400.0,4.0,,,,,,,,,orange,flipped triangle
0.0,1.0,0.5,0.0,6.0,6.0,492.2291070001847,7.0,1.0,phase_2,go,400.0,450.0,1.0,,,,,,,,,gray,hexagon
0.0,8.0,4.0,1.0,6.0,0.0,0.0,7.0,1.0,phase_2,stop,400.0,450.0,4.0,,,,,,,,,yellow,I
0.0,8.0,4.0,1.0,6.0,6.0,638.1774100000257,7.0,1.0,phase_2,stop,400.0,500.0,3.0,,,,,,,,,yellow,I
0.0,2.0,1.0,0.0,6.0,6.0,632.2252760000993,7.0,1.0,phase_2,go,400.0,450.0,1.0,,,,,,,,,cyan,square
0.0,2.0,1.0,0.0,6.0,6.0,729.7820019998653,7.0,1.0,phase_2,go,400.0,450.0,1.0,,,,,,,,,cyan,square
0.0,6.0,1.0,1.0,6.0,0.0,0.0,7.0,1.0,phase_2,stop,400.0,450.0,4.0,,,,,,,,,white,triangle
0.0,6.0,1.0,1.0,6.0,0.0,0.0,7.0,1.0,phase_2,stop,400.0,500.0,4.0,,,,,,,,,white,triangle
0.0,8.0,4.0,1.0,6.0,0.0,0.0,7.0,1.0,phase_2,stop,400.0,550.0,4.0,,,,,,,,,yellow,I
0.0,2.0,1.0,0.0,6.0,6.0,530.4575509999268,7.0,1.0,phase_2,go,400.0,600.0,1.0,,,,,,,,,cyan,square
0.0,4.0,4.0,0.0,6.0,6.0,890.8664519999547,7.0,1.0,phase_2,go,400.0,600.0,1.0,,,,,,,,,magenta,cross
0.0,2.0,1.0,0.0,5.0,5.0,705.1029819999712,7.0,1.0,phase_2,go,400.0,600.0,1.0,,,,,,,,,cyan,square
0.0,4.0,4.0,0.0,5.0,5.0,759.7292830000697,7.0,1.0,phase_2,go,400.0,600.0,1.0,,,,,,,,,magenta,cross
0.0,6.0,1.0,1.0,6.0,6.0,645.0773390001814,7.0,1.0,phase_2,stop,400.0,600.0,3.0,,,,,,,,,white,triangle
0.0,2.0,1.0,0.0,5.0,5.0,811.578317999647,7.0,1.0,phase_2,go,400.0,550.0,1.0,,,,,,,,,cyan,square
0.0,2.0,1.0,0.0,5.0,5.0,716.7975350002962,7.0,1.0,phase_2,go,400.0,550.0,1.0,,,,,,,,,cyan,square
0.0,4.0,4.0,0.0,5.0,5.0,552.3181930002465,7.0,1.0,phase_2,go,400.0,550.0,1.0,,,,,,,,,magenta,cross
0.0,6.0,1.0,1.0,5.0,0.0,0.0,7.0,1.0,phase_2,stop,400.0,550.0,4.0,,,,,,,,,white,triangle
0.0,4.0,4.0,0.0,5.0,5.0,766.9043379996765,7.0,1.0,phase_2,go,450.0,550.0,1.0,,,,,,,,,magenta,cross
0.0,3.0,2.0,0.0,5.0,5.0,747.3191059998499,7.0,1.0,phase_2,go,450.0,550.0,1.0,,,,,,,,,blue,diamond
0.0,5.0,0.5,1.0,6.0,0.0,0.0,7.0,1.0,phase_2,stop,450.0,550.0,4.0,,,,,,,,,orange,flipped triangle
0.0,3.0,2.0,0.0,6.0,6.0,878.5657660000652,7.0,1.0,phase_2,go,450.0,600.0,1.0,,,,,,,,,blue,diamond
0.0,2.0,1.0,0.0,5.0,5.0,927.363330999924,7.0,1.0,phase_2,go,450.0,600.0,1.0,,,,,,,,,cyan,square
0.0,4.0,4.0,0.0,6.0,6.0,727.6643270001841,7.0,1.0,phase_2,go,450.0,600.0,1.0,,,,,,,,,magenta,cross
0.0,2.0,1.0,0.0,6.0,6.0,505.65050500017605,7.0,1.0,phase_2,go,450.0,600.0,1.0,,,,,,,,,cyan,square
0.0,3.0,2.0,0.0,6.0,6.0,593.5268200000792,7.0,1.0,phase_2,go,450.0,600.0,1.0,,,,,,,,,blue,diamond
0.0,2.0,1.0,0.0,6.0,6.0,520.7378610002706,7.0,1.0,phase_2,go,450.0,600.0,1.0,,,,,,,,,cyan,square
0.0,5.0,0.5,1.0,6.0,6.0,516.9994719999522,7.0,1.0,phase_2,go,450.0,600.0,1.0,,,,,,,,,orange,flipped triangle
0.0,5.0,0.5,1.0,6.0,6.0,640.3451619999032,7.0,1.0,phase_2,stop,450.0,600.0,3.0,,,,,,,,,orange,flipped triangle
0.0,4.0,4.0,0.0,5.0,5.0,726.7225430000508,7.0,1.0,phase_2,go,450.0,550.0,1.0,,,,,,,,,magenta,cross
0.0,2.0,1.0,0.0,6.0,6.0,528.9936819999639,7.0,1.0,phase_2,go,450.0,550.0,1.0,,,,,,,,,cyan,square
0.0,5.0,0.5,1.0,6.0,6.0,620.7141639997644,7.0,1.0,phase_2,stop,450.0,550.0,3.0,,,,,,,,,orange,flipped triangle
0.0,3.0,2.0,0.0,5.0,5.0,869.0700600000127,7.0,1.0,phase_2,go,450.0,500.0,1.0,,,,,,,,,blue,diamond
0.0,1.0,0.5,0.0,6.0,6.0,574.4711989996176,7.0,1.0,phase_2,go,450.0,500.0,1.0,,,,,,,,,gray,hexagon
0.0,7.0,2.0,1.0,5.0,5.0,321.0292079997998,8.0,1.0,phase_2,go,450.0,500.0,1.0,,,,,,,,,green,circle
0.0,7.0,2.0,1.0,6.0,6.0,354.2550129996016,8.0,1.0,phase_2,stop,450.0,500.0,3.0,,,,,,,,,green,circle
0.0,8.0,4.0,1.0,6.0,0.0,0.0,8.0,1.0,phase_2,stop,450.0,450.0,4.0,,,,,,,,,yellow,I
0.0,5.0,0.5,1.0,5.0,5.0,664.8449029999028,8.0,1.0,phase_2,go,450.0,500.0,1.0,,,,,,,,,orange,flipped triangle
0.0,2.0,1.0,0.0,6.0,6.0,770.7234670001526,8.0,1.0,phase_2,go,450.0,500.0,1.0,,,,,,,,,cyan,square
0.0,1.0,0.5,0.0,6.0,6.0,569.9087589996452,8.0,1.0,phase_2,go,450.0,500.0,1.0,,,,,,,,,gray,hexagon
0.0,8.0,4.0,1.0,5.0,5.0,531.2965150001219,8.0,1.0,phase_2,go,450.0,500.0,1.0,,,,,,,,,yellow,I
0.0,8.0,4.0,1.0,6.0,6.0,285.4901410000821,8.0,1.0,phase_2,stop,450.0,500.0,3.0,,,,,,,,,yellow,I
0.0,5.0,0.5,1.0,6.0,6.0,583.5504460001175,8.0,1.0,phase_2,stop,450.0,450.0,3.0,,,,,,,,,orange,flipped triangle
0.0,8.0,4.0,1.0,5.0,0.0,0.0,8.0,1.0,phase_2,stop,450.0,400.0,4.0,,,,,,,,,yellow,I
0.0,2.0,1.0,0.0,6.0,6.0,603.0836019999697,8.0,1.0,phase_2,go,500.0,400.0,1.0,,,,,,,,,cyan,square
0.0,7.0,2.0,1.0,6.0,0.0,0.0,8.0,1.0,phase_2,stop,500.0,400.0,4.0,,,,,,,,,green,circle
0.0,3.0,2.0,0.0,6.0,6.0,824.8783270000786,8.0,1.0,phase_2,go,500.0,450.0,1.0,,,,,,,,,blue,diamond
0.0,7.0,2.0,1.0,6.0,0.0,0.0,8.0,1.0,phase_2,stop,500.0,450.0,4.0,,,,,,,,,green,circle
0.0,5.0,0.5,1.0,6.0,6.0,631.1737820001326,8.0,1.0,phase_2,stop,500.0,500.0,3.0,,,,,,,,,orange,flipped triangle
0.0,4.0,4.0,0.0,6.0,6.0,1191.8145869999537,8.0,1.0,phase_2,go,500.0,450.0,1.0,,,,,,,,,magenta,cross
0.0,2.0,1.0,0.0,5.0,5.0,792.148521999934,8.0,1.0,phase_2,go,500.0,450.0,1.0,,,,,,,,,cyan,square
0.0,6.0,1.0,1.0,5.0,5.0,671.8296190001638,8.0,1.0,phase_2,go,500.0,450.0,1.0,,,,,,,,,white,triangle
0.0,1.0,0.5,0.0,5.0,5.0,536.7217689999961,8.0,1.0,phase_2,go,500.0,450.0,1.0,,,,,,,,,gray,hexagon
0.0,6.0,1.0,1.0,5.0,5.0,424.9966630000017,8.0,1.0,phase_2,stop,500.0,450.0,3.0,,,,,,,,,white,triangle
0.0,1.0,0.5,0.0,5.0,5.0,686.1807450000015,8.0,1.0,phase_2,go,450.0,450.0,1.0,,,,,,,,,gray,hexagon
0.0,7.0,2.0,1.0,6.0,6.0,518.65586599979,8.0,1.0,phase_2,stop,450.0,450.0,3.0,,,,,,,,,green,circle
0.0,8.0,4.0,1.0,5.0,0.0,0.0,8.0,1.0,phase_2,stop,450.0,400.0,4.0,,,,,,,,,yellow,I
0.0,1.0,0.5,0.0,6.0,6.0,670.6480049997481,8.0,1.0,phase_2,go,500.0,400.0,1.0,,,,,,,,,gray,hexagon
0.0,7.0,2.0,1.0,6.0,0.0,0.0,8.0,1.0,phase_2,stop,500.0,400.0,4.0,,,,,,,,,green,circle
0.0,2.0,1.0,0.0,6.0,6.0,692.6401880000412,8.0,1.0,phase_2,go,500.0,450.0,1.0,,,,,,,,,cyan,square
0.0,6.0,1.0,1.0,6.0,6.0,667.2105620000366,8.0,1.0,phase_2,go,500.0,450.0,1.0,,,,,,,,,white,triangle
0.0,3.0,2.0,0.0,5.0,5.0,545.5512890002865,8.0,1.0,phase_2,go,500.0,450.0,1.0,,,,,,,,,blue,diamond
0.0,1.0,0.5,0.0,6.0,6.0,296.9410629998492,8.0,1.0,phase_2,go,500.0,450.0,1.0,,,,,,,,,gray,hexagon
0.0,8.0,4.0,1.0,6.0,6.0,428.783193000072,8.0,1.0,phase_2,stop,500.0,450.0,3.0,,,,,,,,,yellow,I
0.0,8.0,4.0,1.0,6.0,6.0,839.0440279999893,8.0,1.0,phase_2,go,500.0,400.0,1.0,,,,,,,,,yellow,I
0.0,2.0,1.0,0.0,5.0,5.0,666.5376350001679,8.0,1.0,phase_2,go,500.0,400.0,1.0,,,,,,,,,cyan,square
0.0,8.0,4.0,1.0,5.0,0.0,0.0,8.0,1.0,phase_2,stop,500.0,400.0,4.0,,,,,,,,,yellow,I
0.0,1.0,0.5,0.0,6.0,6.0,646.0321430004115,8.0,1.0,phase_2,go,550.0,400.0,1.0,,,,,,,,,gray,hexagon
0.0,4.0,4.0,0.0,5.0,5.0,681.1432099998456,8.0,1.0,phase_2,go,550.0,400.0,1.0,,,,,,,,,magenta,cross
0.0,7.0,2.0,1.0,5.0,0.0,0.0,8.0,1.0,phase_2,stop,550.0,400.0,4.0,,,,,,,,,green,circle
0.0,3.0,2.0,0.0,7.0,4.0,2760.726775999501,1.0,1.0,phase_3,,,,,117.0,3.0,195.0,39.0,156.0,117.0,78.0,234.0,blue,diamond
0.0,8.0,4.0,1.0,7.0,1.0,1274.671918999957,1.0,1.0,phase_3,,,,,270.0,5.0,270.0,108.0,324.0,54.0,162.0,216.0,yellow,I
0.0,3.0,2.0,0.0,7.0,3.0,3326.399412000683,1.0,1.0,phase_3,,,,,245.0,5.0,98.0,294.0,245.0,147.0,196.0,49.0,blue,diamond
0.0,5.0,0.5,1.0,7.0,5.0,1574.6328219993302,1.0,1.0,phase_3,,,,,98.0,2.0,147.0,196.0,245.0,49.0,98.0,294.0,orange,flipped triangle
0.0,8.0,4.0,1.0,7.0,6.0,1622.8655269997034,1.0,1.0,phase_3,,,,,220.0,5.0,264.0,44.0,176.0,132.0,88.0,220.0,yellow,I
0.0,5.0,0.5,1.0,7.0,6.0,2475.71721300028,1.0,1.0,phase_3,,,,,108.0,2.0,270.0,54.0,324.0,162.0,216.0,108.0,orange,flipped triangle
0.0,3.0,2.0,0.0,7.0,3.0,2201.9221800001105,1.0,1.0,phase_3,,,,,204.0,6.0,136.0,102.0,204.0,68.0,170.0,34.0,blue,diamond
0.0,5.0,0.5,1.0,7.0,2.0,1401.421241999742,1.0,1.0,phase_3,,,,,78.0,2.0,234.0,78.0,195.0,156.0,117.0,39.0,orange,flipped triangle
0.0,5.0,0.5,1.0,7.0,2.0,1193.4622839999065,1.0,1.0,phase_3,,,,,88.0,2.0,264.0,88.0,44.0,176.0,132.0,220.0,orange,flipped triangle
0.0,8.0,4.0,1.0,7.0,2.0,2914.865691000159,1.0,1.0,phase_3,,,,,245.0,5.0,98.0,245.0,196.0,294.0,49.0,147.0,yellow,I
0.0,5.0,0.5,1.0,7.0,2.0,1527.0695380004329,1.0,1.0,phase_3,,,,,68.0,2.0,102.0,68.0,136.0,34.0,204.0,170.0,orange,flipped triangle
0.0,1.0,0.5,0.0,7.0,2.0,1409.0396339997824,1.0,1.0,phase_3,,,,,34.0,1.0,204.0,34.0,68.0,170.0,102.0,136.0,gray,hexagon
0.0,1.0,0.5,0.0,7.0,6.0,2214.3912100000307,1.0,1.0,phase_3,,,,,49.0,1.0,196.0,147.0,245.0,98.0,294.0,49.0,gray,hexagon
0.0,7.0,2.0,1.0,7.0,1.0,3586.3991129999704,1.0,1.0,phase_3,,,,,147.0,3.0,147.0,49.0,98.0,245.0,196.0,294.0,green,circle
0.0,7.0,2.0,1.0,7.0,4.0,1783.892960999765,1.0,1.0,phase_3,,,,,156.0,4.0,117.0,234.0,78.0,156.0,195.0,39.0,green,circle
0.0,7.0,2.0,1.0,7.0,4.0,2174.518480000188,1.0,1.0,phase_3,,,,,176.0,4.0,264.0,88.0,44.0,176.0,132.0,220.0,green,circle
0.0,6.0,1.0,1.0,7.0,2.0,969.2674600000828,1.0,1.0,phase_3,,,,,49.0,1.0,196.0,49.0,147.0,294.0,98.0,245.0,white,triangle
0.0,3.0,2.0,0.0,7.0,1.0,2184.328168999855,1.0,1.0,phase_3,,,,,216.0,4.0,216.0,324.0,108.0,162.0,270.0,54.0,blue,diamond
0.0,3.0,2.0,0.0,7.0,4.0,2124.1732460002822,1.0,1.0,phase_3,,,,,195.0,5.0,117.0,156.0,78.0,195.0,39.0,234.0,blue,diamond
0.0,7.0,2.0,1.0,7.0,4.0,2365.08077399958,1.0,1.0,phase_3,,,,,117.0,3.0,234.0,78.0,39.0,117.0,195.0,156.0,green,circle
0.0,8.0,4.0,1.0,7.0,4.0,1003.6081089992877,2.0,1.0,phase_3,,,,,234.0,6.0,156.0,78.0,195.0,234.0,39.0,117.0,yellow,I
0.0,7.0,2.0,1.0,7.0,2.0,987.7698929994948,2.0,1.0,phase_3,,,,,98.0,2.0,49.0,98.0,196.0,147.0,245.0,294.0,green,circle
0.0,7.0,2.0,1.0,7.0,6.0,1269.9892119999276,2.0,1.0,phase_3,,,,,204.0,6.0,136.0,68.0,170.0,102.0,34.0,204.0,green,circle
0.0,3.0,2.0,0.0,7.0,2.0,1169.0506449995155,2.0,1.0,phase_3,,,,,204.0,6.0,170.0,204.0,102.0,136.0,68.0,34.0,blue,diamond
0.0,2.0,1.0,0.0,7.0,5.0,1915.202864000093,2.0,1.0,phase_3,,,,,264.0,6.0,176.0,88.0,132.0,44.0,264.0,220.0,cyan,square
0.0,6.0,1.0,1.0,7.0,5.0,2786.7574840001907,2.0,1.0,phase_3,,,,,68.0,2.0,204.0,136.0,102.0,34.0,68.0,170.0,white,triangle
0.0,7.0,2.0,1.0,7.0,4.0,2406.90428400012,2.0,1.0,phase_3,,,,,170.0,5.0,204.0,68.0,136.0,170.0,34.0,102.0,green,circle
0.0,7.0,2.0,1.0,7.0,3.0,2758.3328250002523,2.0,1.0,phase_3,,,,,162.0,3.0,54.0,324.0,162.0,216.0,270.0,108.0,green,circle
0.0,8.0,4.0,1.0,7.0,1.0,1637.6012790005916,2.0,1.0,phase_3,,,,,204.0,6.0,204.0,136.0,102.0,34.0,170.0,68.0,yellow,I
0.0,2.0,1.0,0.0,7.0,2.0,1138.9075240003876,2.0,1.0,phase_3,,,,,324.0,6.0,270.0,324.0,108.0,216.0,162.0,54.0,cyan,square
0.0,4.0,4.0,0.0,7.0,5.0,1881.4630529996064,2.0,1.0,phase_3,,,,,294.0,6.0,49.0,147.0,98.0,196.0,294.0,245.0,magenta,cross
0.0,5.0,0.5,1.0,7.0,2.0,1970.11987300084,2.0,1.0,phase_3,,,,,49.0,1.0,147.0,49.0,245.0,294.0,196.0,98.0,orange,flipped triangle
0.0,6.0,1.0,1.0,7.0,5.0,1079.6108439999443,2.0,1.0,phase_3,,,,,54.0,1.0,324.0,108.0,162.0,216.0,54.0,270.0,white,triangle
0.0,2.0,1.0,0.0,7.0,5.0,2448.0769530000543,2.0,1.0,phase_3,,,,,117.0,3.0,39.0,78.0,195.0,156.0,117.0,234.0,cyan,square
0.0,3.0,2.0,0.0,7.0,4.0,1500.6850889994894,2.0,1.0,phase_3,,,,,216.0,4.0,162.0,324.0,270.0,216.0,54.0,108.0,blue,diamond
0.0,3.0,2.0,0.0,7.0,3.0,2521.673844999896,2.0,1.0,phase_3,,,,,196.0,4.0,147.0,49.0,196.0,98.0,245.0,294.0,blue,diamond
0.0,1.0,0.5,0.0,7.0,4.0,1565.643117000036,2.0,1.0,phase_3,,,,,88.0,2.0,264.0,220.0,176.0,88.0,44.0,132.0,gray,hexagon
0.0,6.0,1.0,1.0,7.0,2.0,1537.625326000125,2.0,1.0,phase_3,,,,,78.0,2.0,39.0,78.0,117.0,156.0,195.0,234.0,white,triangle
0.0,5.0,0.5,1.0,7.0,2.0,2362.970166000196,2.0,1.0,phase_3,,,,,108.0,2.0,162.0,108.0,54.0,324.0,216.0,270.0,orange,flipped triangle
0.0,4.0,4.0,0.0,7.0,6.0,2065.8577169997443,2.0,1.0,phase_3,,,,,204.0,6.0,136.0,68.0,34.0,102.0,170.0,204.0,magenta,cross
0.0,6.0,1.0,1.0,7.0,3.0,2082.5230320006085,3.0,1.0,phase_3,,,,,39.0,1.0,78.0,195.0,39.0,156.0,234.0,117.0,white,triangle
0.0,1.0,0.5,0.0,7.0,6.0,1441.8043470004704,3.0,1.0,phase_3,,,,,49.0,1.0,245.0,196.0,98.0,294.0,147.0,49.0,gray,hexagon
0.0,6.0,1.0,1.0,7.0,4.0,1958.2720930002324,3.0,1.0,phase_3,,,,,54.0,1.0,162.0,108.0,324.0,54.0,216.0,270.0,white,triangle
0.0,2.0,1.0,0.0,7.0,3.0,1852.130967999983,3.0,1.0,phase_3,,,,,196.0,4.0,147.0,245.0,196.0,49.0,98.0,294.0,cyan,square
0.0,1.0,0.5,0.0,7.0,2.0,2631.0623449999184,3.0,1.0,phase_3,,,,,78.0,2.0,234.0,78.0,195.0,156.0,117.0,39.0,gray,hexagon
0.0,1.0,0.5,0.0,7.0,1.0,1750.2409900007478,3.0,1.0,phase_3,,,,,78.0,2.0,78.0,117.0,39.0,234.0,156.0,195.0,gray,hexagon
0.0,4.0,4.0,0.0,7.0,3.0,1806.4295949998268,3.0,1.0,phase_3,,,,,270.0,5.0,324.0,54.0,270.0,108.0,216.0,162.0,magenta,cross
0.0,3.0,2.0,0.0,7.0,2.0,2317.864206000195,3.0,1.0,phase_3,,,,,220.0,5.0,176.0,220.0,44.0,88.0,264.0,132.0,blue,diamond
0.0,1.0,0.5,0.0,7.0,2.0,1502.4829119993228,3.0,1.0,phase_3,,,,,54.0,1.0,216.0,54.0,108.0,324.0,162.0,270.0,gray,hexagon
0.0,2.0,1.0,0.0,7.0,5.0,1683.7322769997627,3.0,1.0,phase_3,,,,,204.0,6.0,34.0,102.0,136.0,170.0,204.0,68.0,cyan,square
0.0,5.0,0.5,1.0,7.0,4.0,1374.3096369998966,3.0,1.0,phase_3,,,,,88.0,2.0,132.0,220.0,176.0,88.0,264.0,44.0,orange,flipped triangle
0.0,2.0,1.0,0.0,7.0,2.0,1414.9951569997938,3.0,1.0,phase_3,,,,,196.0,4.0,98.0,196.0,245.0,49.0,294.0,147.0,cyan,square
0.0,3.0,2.0,0.0,7.0,4.0,1449.6024219997707,3.0,1.0,phase_3,,,,,220.0,5.0,264.0,176.0,132.0,220.0,88.0,44.0,blue,diamond
0.0,4.0,4.0,0.0,7.0,3.0,1873.7562449996403,3.0,1.0,phase_3,,,,,204.0,6.0,170.0,136.0,204.0,34.0,68.0,102.0,magenta,cross
0.0,6.0,1.0,1.0,7.0,5.0,2546.561071000724,3.0,1.0,phase_3,,,,,44.0,1.0,88.0,132.0,264.0,176.0,44.0,220.0,white,triangle
0.0,7.0,2.0,1.0,7.0,2.0,3090.943867000533,3.0,1.0,phase_3,,,,,220.0,5.0,264.0,220.0,88.0,176.0,44.0,132.0,green,circle
0.0,1.0,0.5,0.0,7.0,4.0,1258.2358630006638,3.0,1.0,phase_3,,,,,54.0,1.0,216.0,324.0,270.0,54.0,162.0,108.0,gray,hexagon
0.0,7.0,2.0,1.0,7.0,6.0,3083.436627000083,3.0,1.0,phase_3,,,,,216.0,4.0,108.0,324.0,54.0,162.0,270.0,216.0,green,circle
0.0,8.0,4.0,1.0,7.0,2.0,1984.411487000216,3.0,1.0,phase_3,,,,,264.0,6.0,88.0,264.0,44.0,132.0,220.0,176.0,yellow,I
0.0,4.0,4.0,0.0,7.0,5.0,2163.062096999965,3.0,1.0,phase_3,,,,,264.0,6.0,88.0,176.0,44.0,220.0,264.0,132.0,magenta,cross
0.0,2.0,1.0,0.0,7.0,4.0,2170.056400999784,4.0,1.0,phase_3,,,,,220.0,5.0,132.0,176.0,88.0,220.0,44.0,264.0,cyan,square
0.0,6.0,1.0,1.0,7.0,5.0,1415.0699550000354,4.0,1.0,phase_3,,,,,49.0,1.0,196.0,294.0,147.0,245.0,49.0,98.0,white,triangle
0.0,4.0,4.0,0.0,7.0,6.0,1727.790637999533,4.0,1.0,phase_3,,,,,324.0,6.0,162.0,108.0,54.0,270.0,216.0,324.0,magenta,cross
0.0,4.0,4.0,0.0,7.0,2.0,1391.4961279997442,4.0,1.0,phase_3,,,,,234.0,6.0,156.0,234.0,117.0,78.0,195.0,39.0,magenta,cross
0.0,8.0,4.0,1.0,7.0,4.0,3193.0423610001526,4.0,1.0,phase_3,,,,,245.0,5.0,196.0,294.0,98.0,245.0,49.0,147.0,yellow,I
0.0,8.0,4.0,1.0,7.0,1.0,1758.1872740001927,4.0,1.0,phase_3,,,,,234.0,6.0,234.0,156.0,117.0,78.0,39.0,195.0,yellow,I
0.0,6.0,1.0,1.0,7.0,3.0,4149.807843999952,4.0,1.0,phase_3,,,,,68.0,2.0,34.0,204.0,68.0,170.0,136.0,102.0,white,triangle
0.0,4.0,4.0,0.0,7.0,2.0,2396.2537590005013,4.0,1.0,phase_3,,,,,234.0,6.0,195.0,234.0,78.0,117.0,156.0,39.0,magenta,cross
0.0,1.0,0.5,0.0,7.0,4.0,1727.6097650001248,4.0,1.0,phase_3,,,,,68.0,2.0,136.0,170.0,102.0,68.0,34.0,204.0,gray,hexagon
0.0,8.0,4.0,1.0,7.0,3.0,3246.775128000081,4.0,1.0,phase_3,,,,,216.0,4.0,324.0,162.0,216.0,54.0,108.0,270.0,yellow,I
0.0,4.0,4.0,0.0,7.0,2.0,2923.774338999465,4.0,1.0,phase_3,,,,,245.0,5.0,98.0,245.0,147.0,49.0,294.0,196.0,magenta,cross
0.0,1.0,0.5,0.0,7.0,5.0,3154.783500999656,4.0,1.0,phase_3,,,,,88.0,2.0,220.0,176.0,132.0,44.0,88.0,264.0,gray,hexagon
0.0,5.0,0.5,1.0,7.0,5.0,1550.9178289994452,4.0,1.0,phase_3,,,,,34.0,1.0,204.0,102.0,68.0,170.0,34.0,136.0,orange,flipped triangle
0.0,2.0,1.0,0.0,7.0,6.0,3368.1291769999007,4.0,1.0,phase_3,,,,,204.0,6.0,102.0,68.0,34.0,136.0,170.0,204.0,cyan,square
0.0,2.0,1.0,0.0,7.0,1.0,2875.4832940003325,4.0,1.0,phase_3,,,,,162.0,3.0,162.0,108.0,216.0,324.0,270.0,54.0,cyan,square
0.0,6.0,1.0,1.0,7.0,5.0,1940.9953320000568,4.0,1.0,phase_3,,,,,88.0,2.0,176.0,220.0,44.0,264.0,88.0,132.0,white,triangle
0.0,5.0,0.5,1.0,7.0,1.0,1491.6312730001664,4.0,1.0,phase_3,,,,,39.0,1.0,39.0,78.0,156.0,195.0,117.0,234.0,orange,flipped triangle
0.0,2.0,1.0,0.0,7.0,3.0,2294.437318999371,4.0,1.0,phase_3,,,,,195.0,5.0,78.0,39.0,195.0,156.0,117.0,234.0,cyan,square
0.0,8.0,4.0,1.0,7.0,6.0,3199.281277999944,4.0,1.0,phase_3,,,,,204.0,6.0,68.0,34.0,102.0,170.0,136.0,204.0,yellow,I
0.0,4.0,4.0,0.0,7.0,1.0,3090.5973460003224,4.0,1.0,phase_3,,,,,220.0,5.0,220.0,264.0,176.0,88.0,132.0,44.0,magenta,cross
