raw_reward_magnitude,stim_reward,stepwise_reward_magnitude,paired_with_stopping,stim_location,response,reaction_time,block,num_trial_presentations,which_phase,stop_signal_trial_type,left_SSD,right_SSD,accuracy,chosen_bidding_amount,chosen_bidding_level,possible_bid_1,possible_bid_2,possible_bid_3,possible_bid_4,possible_bid_5,possible_bid_6,color_text,shape_text
423.0,8.0,4.0,1.0,3.0,3.0,387.9619530000582,1.0,1.0,phase_1,,,,,,,,,,,,,blue,square
99.0,6.0,2.0,1.0,3.0,3.0,278.8779879999765,1.0,1.0,phase_1,,,,,,,,,,,,,orange,hexagon
211.0,3.0,3.0,0.0,2.0,2.0,332.6644720000331,1.0,1.0,phase_1,,,,,,,,,,,,,green,triangle
97.0,6.0,2.0,1.0,2.0,2.0,299.538597000037,1.0,1.0,phase_1,,,,,,,,,,,,,orange,hexagon
105.0,2.0,2.0,0.0,2.0,2.0,275.3201109999281,1.0,1.0,phase_1,,,,,,,,,,,,,white,cross
387.0,8.0,4.0,1.0,3.0,3.0,301.48991600003677,1.0,1.0,phase_1,,,,,,,,,,,,,blue,square
0.0,4.0,0.0,0.0,4.0,4.0,341.5088850001666,1.0,1.0,phase_1,,,,,,,,,,,,,gray,diamond
110.0,6.0,2.0,1.0,4.0,4.0,403.1571390000863,1.0,1.0,phase_1,,,,,,,,,,,,,orange,hexagon
382.0,8.0,4.0,1.0,2.0,2.0,369.9442900001486,1.0,1.0,phase_1,,,,,,,,,,,,,blue,square
201.0,3.0,3.0,0.0,4.0,4.0,335.8801549998134,1.0,1.0,phase_1,,,,,,,,,,,,,green,triangle
0.0,8.0,0.0,1.0,2.0,2.0,334.7361599999203,1.0,1.0,phase_1,,,,,,,,,,,,,blue,square
45.0,1.0,1.0,0.0,4.0,4.0,333.8408990000516,1.0,1.0,phase_1,,,,,,,,,,,,,magenta,circle
36.0,5.0,1.0,1.0,4.0,4.0,305.9093120000398,1.0,1.0,phase_1,,,,,,,,,,,,,cyan,I
0.0,5.0,0.0,1.0,4.0,4.0,328.8512189999437,1.0,1.0,phase_1,,,,,,,,,,,,,cyan,I
215.0,3.0,3.0,0.0,4.0,4.0,281.7777239999941,1.0,1.0,phase_1,,,,,,,,,,,,,green,triangle
67.0,5.0,1.0,1.0,4.0,4.0,287.1080449999681,1.0,1.0,phase_1,,,,,,,,,,,,,cyan,I
378.0,4.0,4.0,0.0,2.0,2.0,335.9433360001276,1.0,1.0,phase_1,,,,,,,,,,,,,gray,diamond
416.0,8.0,4.0,1.0,2.0,2.0,325.2740240000094,1.0,1.0,phase_1,,,,,,,,,,,,,blue,square
405.0,8.0,4.0,1.0,1.0,1.0,351.1760220001179,1.0,1.0,phase_1,,,,,,,,,,,,,blue,square
53.0,5.0,1.0,1.0,4.0,4.0,311.5825679999489,1.0,1.0,phase_1,,,,,,,,,,,,,cyan,I
75.0,5.0,1.0,1.0,3.0,3.0,365.5165010000019,1.0,1.0,phase_1,,,,,,,,,,,,,cyan,I
394.0,4.0,4.0,0.0,2.0,2.0,298.3170380000501,1.0,1.0,phase_1,,,,,,,,,,,,,gray,diamond
59.0,5.0,1.0,1.0,4.0,4.0,304.5022339999832,1.0,1.0,phase_1,,,,,,,,,,,,,cyan,I
378.0,8.0,4.0,1.0,1.0,1.0,259.6849729998212,1.0,1.0,phase_1,,,,,,,,,,,,,blue,square
382.0,8.0,4.0,1.0,1.0,1.0,307.4474669999745,1.0,1.0,phase_1,,,,,,,,,,,,,blue,square
215.0,7.0,3.0,1.0,3.0,3.0,324.8132000001078,1.0,1.0,phase_1,,,,,,,,,,,,,yellow,flipped triangle
36.0,5.0,1.0,1.0,1.0,1.0,265.318304999937,1.0,1.0,phase_1,,,,,,,,,,,,,cyan,I
0.0,2.0,0.0,0.0,2.0,2.0,311.4706210001259,1.0,1.0,phase_1,,,,,,,,,,,,,white,cross
105.0,6.0,2.0,1.0,1.0,1.0,314.6322500001588,1.0,1.0,phase_1,,,,,,,,,,,,,orange,hexagon
424.0,8.0,4.0,1.0,2.0,2.0,287.8392559998701,1.0,1.0,phase_1,,,,,,,,,,,,,blue,square
0.0,5.0,0.0,1.0,4.0,4.0,323.5549040000478,1.0,1.0,phase_1,,,,,,,,,,,,,cyan,I
27.0,1.0,1.0,0.0,2.0,2.0,258.5515830000986,1.0,1.0,phase_1,,,,,,,,,,,,,magenta,circle
396.0,8.0,4.0,1.0,2.0,2.0,290.53315200008,1.0,1.0,phase_1,,,,,,,,,,,,,blue,square
395.0,4.0,4.0,0.0,1.0,1.0,276.3922619999448,1.0,1.0,phase_1,,,,,,,,,,,,,gray,diamond
191.0,7.0,3.0,1.0,3.0,3.0,345.4564329999812,1.0,1.0,phase_1,,,,,,,,,,,,,yellow,flipped triangle
411.0,4.0,4.0,0.0,4.0,4.0,300.41244500012,1.0,1.0,phase_1,,,,,,,,,,,,,gray,diamond
0.0,3.0,0.0,0.0,3.0,3.0,330.9528970000883,1.0,1.0,phase_1,,,,,,,,,,,,,green,triangle
394.0,8.0,4.0,1.0,2.0,2.0,253.6794600000576,1.0,1.0,phase_1,,,,,,,,,,,,,blue,square
0.0,1.0,0.0,0.0,3.0,3.0,294.9287500000537,1.0,1.0,phase_1,,,,,,,,,,,,,magenta,circle
0.0,4.0,0.0,0.0,3.0,3.0,303.4775920000356,1.0,1.0,phase_1,,,,,,,,,,,,,gray,diamond
101.0,2.0,2.0,0.0,1.0,1.0,305.5064200000288,1.0,1.0,phase_1,,,,,,,,,,,,,white,cross
0.0,7.0,0.0,1.0,2.0,2.0,243.6374890000934,1.0,1.0,phase_1,,,,,,,,,,,,,yellow,flipped triangle
36.0,1.0,1.0,0.0,1.0,1.0,300.3661660000034,1.0,1.0,phase_1,,,,,,,,,,,,,magenta,circle
415.0,4.0,4.0,0.0,4.0,4.0,360.9259390000261,1.0,1.0,phase_1,,,,,,,,,,,,,gray,diamond
375.0,8.0,4.0,1.0,1.0,1.0,313.6007949999566,1.0,1.0,phase_1,,,,,,,,,,,,,blue,square
415.0,8.0,4.0,1.0,4.0,4.0,340.9315779999815,1.0,1.0,phase_1,,,,,,,,,,,,,blue,square
420.0,8.0,4.0,1.0,1.0,1.0,247.852641999998,1.0,1.0,phase_1,,,,,,,,,,,,,blue,square
422.0,4.0,4.0,0.0,1.0,1.0,291.1732949999077,1.0,1.0,phase_1,,,,,,,,,,,,,gray,diamond
423.0,4.0,4.0,0.0,1.0,1.0,291.4261749999696,1.0,1.0,phase_1,,,,,,,,,,,,,gray,diamond
405.0,8.0,4.0,1.0,3.0,3.0,339.1170990000773,1.0,1.0,phase_1,,,,,,,,,,,,,blue,square
381.0,8.0,4.0,1.0,4.0,4.0,333.1380760000684,1.0,1.0,phase_1,,,,,,,,,,,,,blue,square
397.0,4.0,4.0,0.0,3.0,3.0,311.0473209999327,1.0,1.0,phase_1,,,,,,,,,,,,,gray,diamond
0.0,7.0,0.0,1.0,1.0,1.0,306.5964259999418,1.0,1.0,phase_1,,,,,,,,,,,,,yellow,flipped triangle
81.0,6.0,2.0,1.0,3.0,3.0,344.8678590000327,1.0,1.0,phase_1,,,,,,,,,,,,,orange,hexagon
387.0,4.0,4.0,0.0,2.0,2.0,323.1112290000055,1.0,1.0,phase_1,,,,,,,,,,,,,gray,diamond
212.0,3.0,3.0,0.0,4.0,4.0,388.4629299998323,1.0,1.0,phase_1,,,,,,,,,,,,,green,triangle
45.0,5.0,1.0,1.0,2.0,2.0,305.5688940000891,1.0,1.0,phase_1,,,,,,,,,,,,,cyan,I
67.0,1.0,1.0,0.0,4.0,4.0,336.0804650001228,1.0,1.0,phase_1,,,,,,,,,,,,,magenta,circle
401.0,8.0,4.0,1.0,2.0,2.0,293.7269479998576,1.0,1.0,phase_1,,,,,,,,,,,,,blue,square
112.0,2.0,2.0,0.0,1.0,1.0,297.1085560000119,1.0,1.0,phase_1,,,,,,,,,,,,,white,cross
199.0,7.0,3.0,1.0,2.0,2.0,314.1826710000259,1.0,1.0,phase_1,,,,,,,,,,,,,yellow,flipped triangle
110.0,2.0,2.0,0.0,1.0,1.0,307.7448330000152,1.0,1.0,phase_1,,,,,,,,,,,,,white,cross
420.0,4.0,4.0,0.0,1.0,1.0,320.0565140000435,1.0,1.0,phase_1,,,,,,,,,,,,,gray,diamond
224.0,3.0,3.0,0.0,3.0,3.0,339.8482210000111,1.0,1.0,phase_1,,,,,,,,,,,,,green,triangle
211.0,7.0,3.0,1.0,2.0,2.0,252.3411310000938,1.0,1.0,phase_1,,,,,,,,,,,,,yellow,flipped triangle
0.0,5.0,0.0,1.0,4.0,4.0,421.8619619998662,1.0,1.0,phase_1,,,,,,,,,,,,,cyan,I
114.0,2.0,2.0,0.0,3.0,3.0,356.3126250001005,1.0,1.0,phase_1,,,,,,,,,,,,,white,cross
80.0,2.0,2.0,0.0,4.0,4.0,330.1709060001485,1.0,1.0,phase_1,,,,,,,,,,,,,white,cross
112.0,2.0,2.0,0.0,2.0,2.0,331.0118700001112,1.0,1.0,phase_1,,,,,,,,,,,,,white,cross
80.0,6.0,2.0,1.0,3.0,3.0,331.2152519999927,1.0,1.0,phase_1,,,,,,,,,,,,,orange,hexagon
119.0,2.0,2.0,0.0,3.0,3.0,325.5089870001484,1.0,1.0,phase_1,,,,,,,,,,,,,white,cross
208.0,3.0,3.0,0.0,1.0,1.0,316.9967100000121,1.0,1.0,phase_1,,,,,,,,,,,,,green,triangle
405.0,4.0,4.0,0.0,4.0,4.0,326.6373550000025,1.0,1.0,phase_1,,,,,,,,,,,,,gray,diamond
60.0,1.0,1.0,0.0,2.0,2.0,302.0486929999606,1.0,1.0,phase_1,,,,,,,,,,,,,magenta,circle
97.0,6.0,2.0,1.0,2.0,2.0,290.126409000095,1.0,1.0,phase_1,,,,,,,,,,,,,orange,hexagon
116.0,2.0,2.0,0.0,1.0,1.0,306.0314670001389,1.0,1.0,phase_1,,,,,,,,,,,,,white,cross
46.0,1.0,1.0,0.0,4.0,4.0,320.1282509999146,1.0,1.0,phase_1,,,,,,,,,,,,,magenta,circle
75.0,1.0,1.0,0.0,1.0,1.0,331.7853399998967,1.0,1.0,phase_1,,,,,,,,,,,,,magenta,circle
0.0,7.0,0.0,1.0,1.0,1.0,298.3065969999643,1.0,1.0,phase_1,,,,,,,,,,,,,yellow,flipped triangle
28.0,1.0,1.0,0.0,1.0,1.0,323.9325349998125,1.0,1.0,phase_1,,,,,,,,,,,,,magenta,circle
393.0,4.0,4.0,0.0,3.0,3.0,363.9682359998915,1.0,1.0,phase_1,,,,,,,,,,,,,gray,diamond
179.0,3.0,3.0,0.0,4.0,4.0,353.0545019998499,1.0,1.0,phase_1,,,,,,,,,,,,,green,triangle
0.0,7.0,0.0,1.0,3.0,3.0,346.6097909999917,1.0,1.0,phase_1,,,,,,,,,,,,,yellow,flipped triangle
0.0,7.0,0.0,1.0,1.0,1.0,304.0865819998544,1.0,1.0,phase_1,,,,,,,,,,,,,yellow,flipped triangle
0.0,8.0,0.0,1.0,2.0,2.0,297.9867430001377,1.0,1.0,phase_1,,,,,,,,,,,,,blue,square
123.0,2.0,2.0,0.0,4.0,4.0,322.6756599999589,1.0,1.0,phase_1,,,,,,,,,,,,,white,cross
209.0,3.0,3.0,0.0,2.0,2.0,272.3177749999195,1.0,1.0,phase_1,,,,,,,,,,,,,green,triangle
188.0,7.0,3.0,1.0,1.0,1.0,292.4577470000713,1.0,1.0,phase_1,,,,,,,,,,,,,yellow,flipped triangle
105.0,2.0,2.0,0.0,2.0,2.0,305.969973999936,1.0,1.0,phase_1,,,,,,,,,,,,,white,cross
388.0,4.0,4.0,0.0,3.0,3.0,290.340704999835,1.0,1.0,phase_1,,,,,,,,,,,,,gray,diamond
36.0,1.0,1.0,0.0,2.0,2.0,267.9106479999973,1.0,1.0,phase_1,,,,,,,,,,,,,magenta,circle
201.0,3.0,3.0,0.0,1.0,1.0,313.3059480001066,1.0,1.0,phase_1,,,,,,,,,,,,,green,triangle
28.0,5.0,1.0,1.0,2.0,2.0,310.3605420001258,1.0,1.0,phase_1,,,,,,,,,,,,,cyan,I
0.0,6.0,0.0,1.0,2.0,2.0,324.3892049999886,1.0,1.0,phase_1,,,,,,,,,,,,,orange,hexagon
29.0,1.0,1.0,0.0,2.0,2.0,317.2229560000232,1.0,1.0,phase_1,,,,,,,,,,,,,magenta,circle
423.0,4.0,4.0,0.0,4.0,4.0,338.7112049999814,1.0,1.0,phase_1,,,,,,,,,,,,,gray,diamond
398.0,4.0,4.0,0.0,1.0,1.0,290.7578770000327,1.0,1.0,phase_1,,,,,,,,,,,,,gray,diamond
422.0,8.0,4.0,1.0,2.0,2.0,289.0325089999805,1.0,1.0,phase_1,,,,,,,,,,,,,blue,square
83.0,6.0,2.0,1.0,4.0,4.0,328.5246549999101,1.0,1.0,phase_1,,,,,,,,,,,,,orange,hexagon
57.0,5.0,1.0,1.0,3.0,3.0,390.5722909998985,1.0,1.0,phase_1,,,,,,,,,,,,,cyan,I
34.0,5.0,1.0,1.0,2.0,2.0,303.510770999992,2.0,1.0,phase_1,,,,,,,,,,,,,cyan,I
213.0,3.0,3.0,0.0,4.0,4.0,284.0202669999598,2.0,1.0,phase_1,,,,,,,,,,,,,green,triangle
392.0,8.0,4.0,1.0,4.0,4.0,317.9790090000551,2.0,1.0,phase_1,,,,,,,,,,,,,blue,square
0.0,6.0,0.0,1.0,3.0,3.0,329.3210310000631,2.0,1.0,phase_1,,,,,,,,,,,,,orange,hexagon
387.0,8.0,4.0,1.0,3.0,3.0,336.5823489998547,2.0,1.0,phase_1,,,,,,,,,,,,,blue,square
0.0,2.0,0.0,0.0,4.0,4.0,339.1547740000078,2.0,1.0,phase_1,,,,,,,,,,,,,white,cross
112.0,6.0,2.0,1.0,2.0,2.0,302.1926469998561,2.0,1.0,phase_1,,,,,,,,,,,,,orange,hexagon
200.0,3.0,3.0,0.0,1.0,1.0,312.5058989999161,2.0,1.0,phase_1,,,,,,,,,,,,,green,triangle
217.0,7.0,3.0,1.0,4.0,4.0,363.5548060001383,2.0,1.0,phase_1,,,,,,,,,,,,,yellow,flipped triangle
45.0,1.0,1.0,0.0,1.0,1.0,310.3454969998438,2.0,1.0,phase_1,,,,,,,,,,,,,magenta,circle
187.0,3.0,3.0,0.0,2.0,2.0,313.4427309998955,2.0,1.0,phase_1,,,,,,,,,,,,,green,triangle
196.0,7.0,3.0,1.0,4.0,4.0,274.1827940001258,2.0,1.0,phase_1,,,,,,,,,,,,,yellow,flipped triangle
95.0,6.0,2.0,1.0,4.0,4.0,348.2443990001229,2.0,1.0,phase_1,,,,,,,,,,,,,orange,hexagon
213.0,7.0,3.0,1.0,4.0,4.0,340.4956370000036,2.0,1.0,phase_1,,,,,,,,,,,,,yellow,flipped triangle
0.0,8.0,0.0,1.0,4.0,4.0,343.571208999947,2.0,1.0,phase_1,,,,,,,,,,,,,blue,square
207.0,3.0,3.0,0.0,1.0,1.0,294.0701649999937,2.0,1.0,phase_1,,,,,,,,,,,,,green,triangle
54.0,5.0,1.0,1.0,1.0,1.0,334.5160929998201,2.0,1.0,phase_1,,,,,,,,,,,,,cyan,I
0.0,8.0,0.0,1.0,2.0,2.0,242.9711350000616,2.0,1.0,phase_1,,,,,,,,,,,,,blue,square
211.0,7.0,3.0,1.0,1.0,1.0,283.7828970000373,2.0,1.0,phase_1,,,,,,,,,,,,,yellow,flipped triangle
78.0,2.0,2.0,0.0,3.0,3.0,342.6398480000898,2.0,1.0,phase_1,,,,,,,,,,,,,white,cross
67.0,5.0,1.0,1.0,1.0,1.0,279.3427290000636,2.0,1.0,phase_1,,,,,,,,,,,,,cyan,I
185.0,3.0,3.0,0.0,3.0,3.0,332.3157330000867,2.0,1.0,phase_1,,,,,,,,,,,,,green,triangle
0.0,5.0,0.0,1.0,2.0,2.0,267.0364299999619,2.0,1.0,phase_1,,,,,,,,,,,,,cyan,I
34.0,1.0,1.0,0.0,4.0,4.0,371.6775259999849,2.0,1.0,phase_1,,,,,,,,,,,,,magenta,circle
102.0,2.0,2.0,0.0,4.0,4.0,334.3468820000908,2.0,2.0,phase_1,,,,,,,,,,,,,white,cross
0.0,6.0,0.0,1.0,2.0,2.0,233.6309419999906,2.0,1.0,phase_1,,,,,,,,,,,,,orange,hexagon
221.0,7.0,3.0,1.0,1.0,1.0,343.5769700001856,2.0,1.0,phase_1,,,,,,,,,,,,,yellow,flipped triangle
0.0,1.0,0.0,0.0,3.0,3.0,366.9117060001099,2.0,1.0,phase_1,,,,,,,,,,,,,magenta,circle
388.0,8.0,4.0,1.0,1.0,1.0,318.9461200001915,2.0,1.0,phase_1,,,,,,,,,,,,,blue,square
124.0,2.0,2.0,0.0,1.0,1.0,281.3061480001124,2.0,1.0,phase_1,,,,,,,,,,,,,white,cross
212.0,7.0,3.0,1.0,4.0,4.0,287.5724450000234,2.0,1.0,phase_1,,,,,,,,,,,,,yellow,flipped triangle
177.0,3.0,3.0,0.0,1.0,1.0,330.4183689999718,2.0,1.0,phase_1,,,,,,,,,,,,,green,triangle
425.0,8.0,4.0,1.0,4.0,4.0,377.8058139998848,2.0,1.0,phase_1,,,,,,,,,,,,,blue,square
104.0,2.0,2.0,0.0,1.0,1.0,306.9700300000022,2.0,1.0,phase_1,,,,,,,,,,,,,white,cross
422.0,8.0,4.0,1.0,4.0,4.0,354.6871720000126,2.0,1.0,phase_1,,,,,,,,,,,,,blue,square
207.0,7.0,3.0,1.0,4.0,4.0,348.5842009999942,2.0,1.0,phase_1,,,,,,,,,,,,,yellow,flipped triangle
0.0,1.0,0.0,0.0,3.0,3.0,407.4174079999011,2.0,1.0,phase_1,,,,,,,,,,,,,magenta,circle
53.0,1.0,1.0,0.0,3.0,3.0,373.6911779999445,2.0,1.0,phase_1,,,,,,,,,,,,,magenta,circle
225.0,3.0,3.0,0.0,4.0,4.0,321.5067179999096,2.0,1.0,phase_1,,,,,,,,,,,,,green,triangle
56.0,5.0,1.0,1.0,3.0,3.0,324.3673009999384,2.0,1.0,phase_1,,,,,,,,,,,,,cyan,I
423.0,8.0,4.0,1.0,3.0,3.0,325.2915400000802,2.0,1.0,phase_1,,,,,,,,,,,,,blue,square
0.0,2.0,0.0,0.0,4.0,4.0,314.872687000161,2.0,1.0,phase_1,,,,,,,,,,,,,white,cross
65.0,5.0,1.0,1.0,1.0,1.0,283.5779740000816,2.0,1.0,phase_1,,,,,,,,,,,,,cyan,I
0.0,5.0,0.0,1.0,1.0,1.0,274.1867839999941,2.0,1.0,phase_1,,,,,,,,,,,,,cyan,I
0.0,1.0,0.0,0.0,3.0,3.0,330.2880129999721,2.0,1.0,phase_1,,,,,,,,,,,,,magenta,circle
200.0,7.0,3.0,1.0,3.0,3.0,361.529869999913,2.0,1.0,phase_1,,,,,,,,,,,,,yellow,flipped triangle
205.0,3.0,3.0,0.0,1.0,1.0,323.3597720000034,2.0,1.0,phase_1,,,,,,,,,,,,,green,triangle
0.0,7.0,0.0,1.0,2.0,2.0,310.8341519998703,2.0,1.0,phase_1,,,,,,,,,,,,,yellow,flipped triangle
209.0,7.0,3.0,1.0,2.0,2.0,298.5088349998932,2.0,1.0,phase_1,,,,,,,,,,,,,yellow,flipped triangle
0.0,2.0,0.0,0.0,2.0,2.0,309.9179989999356,2.0,1.0,phase_1,,,,,,,,,,,,,white,cross
107.0,2.0,2.0,0.0,1.0,1.0,322.546138000007,2.0,1.0,phase_1,,,,,,,,,,,,,white,cross
117.0,2.0,2.0,0.0,4.0,4.0,307.3167410000224,2.0,1.0,phase_1,,,,,,,,,,,,,white,cross
390.0,8.0,4.0,1.0,2.0,2.0,277.978578000102,2.0,1.0,phase_1,,,,,,,,,,,,,blue,square
0.0,4.0,0.0,0.0,2.0,2.0,347.7770879999298,2.0,1.0,phase_1,,,,,,,,,,,,,gray,diamond
398.0,8.0,4.0,1.0,1.0,1.0,322.3103930001798,2.0,1.0,phase_1,,,,,,,,,,,,,blue,square
97.0,2.0,2.0,0.0,3.0,3.0,313.3079909998741,2.0,1.0,phase_1,,,,,,,,,,,,,white,cross
224.0,7.0,3.0,1.0,3.0,3.0,374.5953399998143,2.0,1.0,phase_1,,,,,,,,,,,,,yellow,flipped triangle
78.0,6.0,2.0,1.0,3.0,3.0,373.7839670000085,2.0,1.0,phase_1,,,,,,,,,,,,,orange,hexagon
112.0,2.0,2.0,0.0,4.0,4.0,411.3225769999644,2.0,1.0,phase_1,,,,,,,,,,,,,white,cross
393.0,8.0,4.0,1.0,3.0,3.0,358.1018150000545,2.0,1.0,phase_1,,,,,,,,,,,,,blue,square
201.0,7.0,3.0,1.0,4.0,4.0,365.3690959999949,2.0,1.0,phase_1,,,,,,,,,,,,,yellow,flipped triangle
389.0,4.0,4.0,0.0,3.0,3.0,383.4233840000252,2.0,1.0,phase_1,,,,,,,,,,,,,gray,diamond
32.0,1.0,1.0,0.0,3.0,3.0,292.0528380000178,2.0,1.0,phase_1,,,,,,,,,,,,,magenta,circle
0.0,6.0,0.0,1.0,4.0,4.0,332.4145369999769,2.0,1.0,phase_1,,,,,,,,,,,,,orange,hexagon
0.0,6.0,0.0,1.0,1.0,1.0,288.735152000072,2.0,1.0,phase_1,,,,,,,,,,,,,orange,hexagon
0.0,2.0,0.0,0.0,4.0,4.0,270.9303960000397,2.0,1.0,phase_1,,,,,,,,,,,,,white,cross
78.0,2.0,2.0,0.0,4.0,4.0,336.5549679999731,2.0,1.0,phase_1,,,,,,,,,,,,,white,cross
0.0,1.0,0.0,0.0,1.0,1.0,278.8707389997853,2.0,1.0,phase_1,,,,,,,,,,,,,magenta,circle
209.0,7.0,3.0,1.0,1.0,1.0,314.3921500000033,2.0,1.0,phase_1,,,,,,,,,,,,,yellow,flipped triangle
411.0,8.0,4.0,1.0,4.0,4.0,297.1293939999668,2.0,1.0,phase_1,,,,,,,,,,,,,blue,square
193.0,7.0,3.0,1.0,2.0,2.0,414.4198029998733,2.0,1.0,phase_1,,,,,,,,,,,,,yellow,flipped triangle
392.0,4.0,4.0,0.0,2.0,2.0,332.0789349997994,2.0,1.0,phase_1,,,,,,,,,,,,,gray,diamond
124.0,2.0,2.0,0.0,2.0,2.0,293.1943969999793,2.0,1.0,phase_1,,,,,,,,,,,,,white,cross
0.0,4.0,0.0,0.0,1.0,1.0,307.5249020000683,2.0,1.0,phase_1,,,,,,,,,,,,,gray,diamond
422.0,4.0,4.0,0.0,2.0,2.0,263.0742040000768,2.0,1.0,phase_1,,,,,,,,,,,,,gray,diamond
119.0,6.0,2.0,1.0,3.0,3.0,379.3067839999366,2.0,1.0,phase_1,,,,,,,,,,,,,orange,hexagon
387.0,4.0,4.0,0.0,1.0,1.0,289.6153480000976,2.0,1.0,phase_1,,,,,,,,,,,,,gray,diamond
185.0,7.0,3.0,1.0,3.0,3.0,285.2439379998941,2.0,1.0,phase_1,,,,,,,,,,,,,yellow,flipped triangle
0.0,5.0,0.0,1.0,2.0,2.0,283.7525310001183,2.0,1.0,phase_1,,,,,,,,,,,,,cyan,I
92.0,6.0,2.0,1.0,4.0,4.0,307.1750859999156,2.0,1.0,phase_1,,,,,,,,,,,,,orange,hexagon
54.0,1.0,1.0,0.0,3.0,3.0,329.2783629999576,2.0,1.0,phase_1,,,,,,,,,,,,,magenta,circle
33.0,5.0,1.0,1.0,2.0,2.0,298.8278239999999,2.0,1.0,phase_1,,,,,,,,,,,,,cyan,I
409.0,8.0,4.0,1.0,3.0,3.0,323.08261599996507,2.0,1.0,phase_1,,,,,,,,,,,,,blue,square
32.0,5.0,1.0,1.0,3.0,3.0,346.3654289998885,2.0,1.0,phase_1,,,,,,,,,,,,,cyan,I
0.0,8.0,0.0,1.0,4.0,4.0,346.21299000014,2.0,1.0,phase_1,,,,,,,,,,,,,blue,square
410.0,4.0,4.0,0.0,4.0,4.0,311.4546040001187,2.0,1.0,phase_1,,,,,,,,,,,,,gray,diamond
201.0,7.0,3.0,1.0,4.0,4.0,321.692374000122,2.0,1.0,phase_1,,,,,,,,,,,,,yellow,flipped triangle
106.0,6.0,2.0,1.0,2.0,2.0,278.4246549999807,2.0,1.0,phase_1,,,,,,,,,,,,,orange,hexagon
223.0,7.0,3.0,1.0,1.0,1.0,318.3479120000356,2.0,1.0,phase_1,,,,,,,,,,,,,yellow,flipped triangle
89.0,2.0,2.0,0.0,1.0,1.0,261.3822069999969,2.0,1.0,phase_1,,,,,,,,,,,,,white,cross
74.0,1.0,1.0,0.0,1.0,1.0,243.5012539999661,2.0,1.0,phase_1,,,,,,,,,,,,,magenta,circle
61.0,5.0,1.0,1.0,4.0,4.0,286.0860560001583,2.0,1.0,phase_1,,,,,,,,,,,,,cyan,I
189.0,7.0,3.0,1.0,1.0,1.0,315.1708899999903,2.0,1.0,phase_1,,,,,,,,,,,,,yellow,flipped triangle
0.0,5.0,0.0,1.0,3.0,3.0,388.8982969999688,2.0,1.0,phase_1,,,,,,,,,,,,,cyan,I
0.0,7.0,0.0,1.0,3.0,3.0,454.6416829998634,2.0,1.0,phase_1,,,,,,,,,,,,,yellow,flipped triangle
209.0,7.0,3.0,1.0,1.0,1.0,288.9648899999884,2.0,1.0,phase_1,,,,,,,,,,,,,yellow,flipped triangle
0.0,4.0,0.0,0.0,1.0,1.0,266.6659810001874,2.0,1.0,phase_1,,,,,,,,,,,,,gray,diamond
190.0,3.0,3.0,0.0,1.0,1.0,249.9181030000272,2.0,1.0,phase_1,,,,,,,,,,,,,green,triangle
182.0,7.0,3.0,1.0,2.0,2.0,283.2129729999906,2.0,1.0,phase_1,,,,,,,,,,,,,yellow,flipped triangle
42.0,1.0,1.0,0.0,2.0,2.0,313.4327249999842,2.0,1.0,phase_1,,,,,,,,,,,,,magenta,circle
51.0,5.0,1.0,1.0,4.0,4.0,395.2963730000647,3.0,1.0,phase_1,,,,,,,,,,,,,cyan,I
78.0,6.0,2.0,1.0,1.0,1.0,298.3296350000728,3.0,1.0,phase_1,,,,,,,,,,,,,orange,hexagon
57.0,1.0,1.0,0.0,3.0,3.0,326.4292020000994,3.0,1.0,phase_1,,,,,,,,,,,,,magenta,circle
78.0,2.0,2.0,0.0,1.0,1.0,298.2835529999192,3.0,1.0,phase_1,,,,,,,,,,,,,white,cross
223.0,3.0,3.0,0.0,3.0,3.0,349.3675639999765,3.0,1.0,phase_1,,,,,,,,,,,,,green,triangle
46.0,1.0,1.0,0.0,1.0,1.0,289.761376999877,3.0,1.0,phase_1,,,,,,,,,,,,,magenta,circle
73.0,1.0,1.0,0.0,4.0,4.0,305.9497209999335,3.0,1.0,phase_1,,,,,,,,,,,,,magenta,circle
64.0,1.0,1.0,0.0,3.0,3.0,357.0700979998946,3.0,1.0,phase_1,,,,,,,,,,,,,magenta,circle
101.0,6.0,2.0,1.0,3.0,3.0,334.6023210001476,3.0,1.0,phase_1,,,,,,,,,,,,,orange,hexagon
403.0,4.0,4.0,0.0,1.0,1.0,310.0684809999166,3.0,1.0,phase_1,,,,,,,,,,,,,gray,diamond
0.0,3.0,0.0,0.0,3.0,3.0,297.032468999987,3.0,1.0,phase_1,,,,,,,,,,,,,green,triangle
112.0,6.0,2.0,1.0,4.0,4.0,355.070396000201,3.0,1.0,phase_1,,,,,,,,,,,,,orange,hexagon
384.0,4.0,4.0,0.0,3.0,3.0,324.4989459999488,3.0,1.0,phase_1,,,,,,,,,,,,,gray,diamond
54.0,1.0,1.0,0.0,3.0,3.0,335.0045959998624,3.0,1.0,phase_1,,,,,,,,,,,,,magenta,circle
109.0,6.0,2.0,1.0,3.0,3.0,306.3332410001749,3.0,1.0,phase_1,,,,,,,,,,,,,orange,hexagon
187.0,7.0,3.0,1.0,4.0,4.0,302.9298950000338,3.0,1.0,phase_1,,,,,,,,,,,,,yellow,flipped triangle
33.0,5.0,1.0,1.0,4.0,4.0,310.2899210000487,3.0,1.0,phase_1,,,,,,,,,,,,,cyan,I
104.0,6.0,2.0,1.0,4.0,4.0,275.7597209999858,3.0,1.0,phase_1,,,,,,,,,,,,,orange,hexagon
0.0,3.0,0.0,0.0,4.0,4.0,305.9733160000633,3.0,1.0,phase_1,,,,,,,,,,,,,green,triangle
182.0,7.0,3.0,1.0,3.0,3.0,367.7458270001352,3.0,1.0,phase_1,,,,,,,,,,,,,yellow,flipped triangle
0.0,2.0,0.0,0.0,3.0,3.0,367.6818599999478,3.0,1.0,phase_1,,,,,,,,,,,,,white,cross
177.0,7.0,3.0,1.0,2.0,2.0,283.1497489999037,3.0,1.0,phase_1,,,,,,,,,,,,,yellow,flipped triangle
193.0,3.0,3.0,0.0,4.0,4.0,326.0818720000316,3.0,1.0,phase_1,,,,,,,,,,,,,green,triangle
209.0,3.0,3.0,0.0,4.0,4.0,254.87836000002062,3.0,1.0,phase_1,,,,,,,,,,,,,green,triangle
186.0,3.0,3.0,0.0,4.0,4.0,265.3573510001479,3.0,1.0,phase_1,,,,,,,,,,,,,green,triangle
51.0,1.0,1.0,0.0,4.0,4.0,280.2974539999923,3.0,1.0,phase_1,,,,,,,,,,,,,magenta,circle
35.0,5.0,1.0,1.0,1.0,1.0,595.4284530000677,3.0,1.0,phase_1,,,,,,,,,,,,,cyan,I
75.0,1.0,1.0,0.0,1.0,1.0,306.0528789999353,3.0,1.0,phase_1,,,,,,,,,,,,,magenta,circle
205.0,7.0,3.0,1.0,1.0,1.0,289.0148769999996,3.0,1.0,phase_1,,,,,,,,,,,,,yellow,flipped triangle
89.0,6.0,2.0,1.0,2.0,2.0,329.1696250000768,3.0,1.0,phase_1,,,,,,,,,,,,,orange,hexagon
67.0,1.0,1.0,0.0,3.0,3.0,362.6818679999815,3.0,1.0,phase_1,,,,,,,,,,,,,magenta,circle
186.0,7.0,3.0,1.0,2.0,2.0,267.6887980001083,3.0,1.0,phase_1,,,,,,,,,,,,,yellow,flipped triangle
0.0,2.0,0.0,0.0,2.0,2.0,326.0405959999843,3.0,1.0,phase_1,,,,,,,,,,,,,white,cross
60.0,5.0,1.0,1.0,1.0,1.0,297.4085480000212,3.0,1.0,phase_1,,,,,,,,,,,,,cyan,I
193.0,7.0,3.0,1.0,1.0,1.0,239.9822250001761,3.0,1.0,phase_1,,,,,,,,,,,,,yellow,flipped triangle
64.0,5.0,1.0,1.0,1.0,1.0,234.3829920000644,3.0,1.0,phase_1,,,,,,,,,,,,,cyan,I
184.0,3.0,3.0,0.0,2.0,2.0,286.766316000012,3.0,1.0,phase_1,,,,,,,,,,,,,green,triangle
193.0,3.0,3.0,0.0,2.0,2.0,281.4109139999345,3.0,1.0,phase_1,,,,,,,,,,,,,green,triangle
401.0,4.0,4.0,0.0,3.0,3.0,303.1930089998695,3.0,1.0,phase_1,,,,,,,,,,,,,gray,diamond
0.0,8.0,0.0,1.0,2.0,2.0,258.8416409998899,3.0,1.0,phase_1,,,,,,,,,,,,,blue,square
0.0,4.0,0.0,0.0,3.0,3.0,410.9998960000212,3.0,1.0,phase_1,,,,,,,,,,,,,gray,diamond
377.0,4.0,4.0,0.0,4.0,4.0,307.4400700002115,3.0,1.0,phase_1,,,,,,,,,,,,,gray,diamond
64.0,5.0,1.0,1.0,3.0,3.0,314.51323400006,3.0,1.0,phase_1,,,,,,,,,,,,,cyan,I
200.0,3.0,3.0,0.0,3.0,3.0,322.33084099993897,3.0,1.0,phase_1,,,,,,,,,,,,,green,triangle
114.0,6.0,2.0,1.0,3.0,3.0,348.3655389998148,3.0,1.0,phase_1,,,,,,,,,,,,,orange,hexagon
59.0,1.0,1.0,0.0,4.0,4.0,289.4324579999647,3.0,1.0,phase_1,,,,,,,,,,,,,magenta,circle
54.0,5.0,1.0,1.0,2.0,2.0,277.5784400000702,3.0,1.0,phase_1,,,,,,,,,,,,,cyan,I
217.0,3.0,3.0,0.0,3.0,3.0,312.5757420000354,3.0,1.0,phase_1,,,,,,,,,,,,,green,triangle
200.0,7.0,3.0,1.0,3.0,3.0,343.3701680000922,3.0,1.0,phase_1,,,,,,,,,,,,,yellow,flipped triangle
123.0,6.0,2.0,1.0,4.0,4.0,332.2878029998719,3.0,1.0,phase_1,,,,,,,,,,,,,orange,hexagon
81.0,2.0,2.0,0.0,3.0,3.0,341.0163809999176,3.0,1.0,phase_1,,,,,,,,,,,,,white,cross
0.0,7.0,0.0,1.0,2.0,2.0,320.7991009999205,3.0,1.0,phase_1,,,,,,,,,,,,,yellow,flipped triangle
0.0,8.0,0.0,1.0,3.0,3.0,296.814058000109,3.0,1.0,phase_1,,,,,,,,,,,,,blue,square
0.0,5.0,0.0,1.0,3.0,3.0,347.9845720003141,3.0,1.0,phase_1,,,,,,,,,,,,,cyan,I
59.0,5.0,1.0,1.0,3.0,3.0,295.4484150000098,3.0,1.0,phase_1,,,,,,,,,,,,,cyan,I
414.0,4.0,4.0,0.0,2.0,2.0,311.3193019999016,3.0,1.0,phase_1,,,,,,,,,,,,,gray,diamond
97.0,6.0,2.0,1.0,2.0,2.0,306.4768570002343,3.0,1.0,phase_1,,,,,,,,,,,,,orange,hexagon
28.0,5.0,1.0,1.0,2.0,2.0,274.6773190001477,3.0,1.0,phase_1,,,,,,,,,,,,,cyan,I
67.0,1.0,1.0,0.0,1.0,1.0,351.618210000197,3.0,1.0,phase_1,,,,,,,,,,,,,magenta,circle
27.0,5.0,1.0,1.0,4.0,4.0,325.1014789998407,3.0,1.0,phase_1,,,,,,,,,,,,,cyan,I
79.0,2.0,2.0,0.0,2.0,2.0,289.0254439998898,3.0,1.0,phase_1,,,,,,,,,,,,,white,cross
34.0,1.0,1.0,0.0,4.0,4.0,299.1353809998145,3.0,1.0,phase_1,,,,,,,,,,,,,magenta,circle
99.0,2.0,2.0,0.0,4.0,4.0,303.4105679998902,3.0,1.0,phase_1,,,,,,,,,,,,,white,cross
382.0,8.0,4.0,1.0,4.0,4.0,320.5049509997479,3.0,1.0,phase_1,,,,,,,,,,,,,blue,square
0.0,7.0,0.0,1.0,3.0,3.0,591.0442389999844,3.0,1.0,phase_1,,,,,,,,,,,,,yellow,flipped triangle
124.0,6.0,2.0,1.0,2.0,2.0,290.2714659999219,3.0,1.0,phase_1,,,,,,,,,,,,,orange,hexagon
409.0,4.0,4.0,0.0,2.0,2.0,272.4542699997982,3.0,1.0,phase_1,,,,,,,,,,,,,gray,diamond
0.0,3.0,0.0,0.0,1.0,1.0,272.1732250001878,3.0,1.0,phase_1,,,,,,,,,,,,,green,triangle
74.0,5.0,1.0,1.0,1.0,1.0,331.0322289999021,3.0,1.0,phase_1,,,,,,,,,,,,,cyan,I
0.0,8.0,0.0,1.0,1.0,1.0,228.2155959996998,3.0,1.0,phase_1,,,,,,,,,,,,,blue,square
221.0,3.0,3.0,0.0,3.0,3.0,355.8994119998715,3.0,1.0,phase_1,,,,,,,,,,,,,green,triangle
380.0,8.0,4.0,1.0,3.0,3.0,293.2964999999967,3.0,2.0,phase_1,,,,,,,,,,,,,blue,square
0.0,1.0,0.0,0.0,2.0,2.0,286.0933540000587,3.0,1.0,phase_1,,,,,,,,,,,,,magenta,circle
199.0,7.0,3.0,1.0,3.0,3.0,281.88955299992807,3.0,1.0,phase_1,,,,,,,,,,,,,yellow,flipped triangle
117.0,6.0,2.0,1.0,2.0,2.0,273.1240839998463,3.0,1.0,phase_1,,,,,,,,,,,,,orange,hexagon
410.0,8.0,4.0,1.0,4.0,4.0,357.3669079996762,3.0,1.0,phase_1,,,,,,,,,,,,,blue,square
389.0,8.0,4.0,1.0,2.0,2.0,250.9115779998865,3.0,1.0,phase_1,,,,,,,,,,,,,blue,square
95.0,2.0,2.0,0.0,3.0,3.0,299.771759000123,3.0,1.0,phase_1,,,,,,,,,,,,,white,cross
0.0,3.0,0.0,0.0,3.0,3.0,362.1882550000919,3.0,1.0,phase_1,,,,,,,,,,,,,green,triangle
0.0,3.0,0.0,0.0,3.0,3.0,293.411245000243,3.0,1.0,phase_1,,,,,,,,,,,,,green,triangle
116.0,6.0,2.0,1.0,1.0,1.0,316.0196869998799,3.0,1.0,phase_1,,,,,,,,,,,,,orange,hexagon
46.0,5.0,1.0,1.0,1.0,1.0,294.0846510000483,3.0,1.0,phase_1,,,,,,,,,,,,,cyan,I
94.0,6.0,2.0,1.0,4.0,4.0,286.8807439999727,3.0,1.0,phase_1,,,,,,,,,,,,,orange,hexagon
107.0,6.0,2.0,1.0,1.0,1.0,285.7562760000292,3.0,1.0,phase_1,,,,,,,,,,,,,orange,hexagon
424.0,4.0,4.0,0.0,1.0,1.0,294.7756200001095,3.0,1.0,phase_1,,,,,,,,,,,,,gray,diamond
0.0,1.0,0.0,0.0,1.0,1.0,238.1127080002443,3.0,1.0,phase_1,,,,,,,,,,,,,magenta,circle
33.0,1.0,1.0,0.0,2.0,2.0,251.2010120003651,3.0,1.0,phase_1,,,,,,,,,,,,,magenta,circle
403.0,8.0,4.0,1.0,4.0,4.0,301.3872360002096,3.0,1.0,phase_1,,,,,,,,,,,,,blue,square
29.0,1.0,1.0,0.0,3.0,3.0,296.0996180004258,3.0,1.0,phase_1,,,,,,,,,,,,,magenta,circle
61.0,1.0,1.0,0.0,2.0,2.0,223.8470359998245,3.0,1.0,phase_1,,,,,,,,,,,,,magenta,circle
94.0,2.0,2.0,0.0,2.0,2.0,300.422540999989,3.0,1.0,phase_1,,,,,,,,,,,,,white,cross
199.0,3.0,3.0,0.0,3.0,3.0,323.3972180000819,3.0,1.0,phase_1,,,,,,,,,,,,,green,triangle
67.0,5.0,1.0,1.0,4.0,4.0,369.0472470002532,3.0,1.0,phase_1,,,,,,,,,,,,,cyan,I
0.0,4.0,0.0,0.0,2.0,2.0,291.2173619997702,3.0,1.0,phase_1,,,,,,,,,,,,,gray,diamond
79.0,6.0,2.0,1.0,1.0,1.0,251.61657499984358,3.0,1.0,phase_1,,,,,,,,,,,,,orange,hexagon
35.0,1.0,1.0,0.0,2.0,2.0,289.4614889996774,3.0,1.0,phase_1,,,,,,,,,,,,,magenta,circle
98.0,2.0,2.0,0.0,3.0,3.0,290.9666010000364,3.0,1.0,phase_1,,,,,,,,,,,,,white,cross
415.0,4.0,4.0,0.0,4.0,4.0,335.0505989997145,3.0,1.0,phase_1,,,,,,,,,,,,,gray,diamond
106.0,2.0,2.0,0.0,2.0,2.0,295.2985210004044,3.0,1.0,phase_1,,,,,,,,,,,,,white,cross
414.0,8.0,4.0,1.0,1.0,1.0,281.1453549998077,3.0,1.0,phase_1,,,,,,,,,,,,,blue,square
29.0,5.0,1.0,1.0,2.0,2.0,325.0291500003186,4.0,1.0,phase_1,,,,,,,,,,,,,cyan,I
29.0,5.0,1.0,1.0,2.0,2.0,309.2179939999369,4.0,1.0,phase_1,,,,,,,,,,,,,cyan,I
46.0,5.0,1.0,1.0,1.0,1.0,283.0715019999843,4.0,1.0,phase_1,,,,,,,,,,,,,cyan,I
0.0,4.0,0.0,0.0,3.0,3.0,321.7813739997837,4.0,1.0,phase_1,,,,,,,,,,,,,gray,diamond
0.0,3.0,0.0,0.0,2.0,2.0,259.3251160001273,4.0,1.0,phase_1,,,,,,,,,,,,,green,triangle
381.0,4.0,4.0,0.0,2.0,2.0,274.6563779996904,4.0,1.0,phase_1,,,,,,,,,,,,,gray,diamond
36.0,5.0,1.0,1.0,2.0,2.0,245.1956310001151,4.0,1.0,phase_1,,,,,,,,,,,,,cyan,I
64.0,1.0,1.0,0.0,3.0,3.0,306.1383469998873,4.0,1.0,phase_1,,,,,,,,,,,,,magenta,circle
196.0,3.0,3.0,0.0,3.0,3.0,324.9522349997278,4.0,1.0,phase_1,,,,,,,,,,,,,green,triangle
0.0,7.0,0.0,1.0,2.0,2.0,207.2799819998181,4.0,1.0,phase_1,,,,,,,,,,,,,yellow,flipped triangle
425.0,4.0,4.0,0.0,4.0,4.0,300.3119709997008,4.0,1.0,phase_1,,,,,,,,,,,,,gray,diamond
0.0,4.0,0.0,0.0,4.0,4.0,337.2894909998649,4.0,1.0,phase_1,,,,,,,,,,,,,gray,diamond
375.0,4.0,4.0,0.0,4.0,4.0,321.5301109999018,4.0,1.0,phase_1,,,,,,,,,,,,,gray,diamond
0.0,2.0,0.0,0.0,2.0,2.0,293.7473120000504,4.0,1.0,phase_1,,,,,,,,,,,,,white,cross
190.0,7.0,3.0,1.0,1.0,1.0,276.5217060000395,4.0,1.0,phase_1,,,,,,,,,,,,,yellow,flipped triangle
0.0,8.0,0.0,1.0,4.0,4.0,310.4820220000874,4.0,1.0,phase_1,,,,,,,,,,,,,blue,square
382.0,4.0,4.0,0.0,3.0,3.0,320.8211609999125,4.0,1.0,phase_1,,,,,,,,,,,,,gray,diamond
109.0,2.0,2.0,0.0,4.0,4.0,297.0782419997704,4.0,1.0,phase_1,,,,,,,,,,,,,white,cross
118.0,2.0,2.0,0.0,3.0,3.0,321.8504030000986,4.0,1.0,phase_1,,,,,,,,,,,,,white,cross
78.0,6.0,2.0,1.0,3.0,3.0,306.6801519998989,4.0,1.0,phase_1,,,,,,,,,,,,,orange,hexagon
65.0,1.0,1.0,0.0,2.0,2.0,292.8029539998533,4.0,1.0,phase_1,,,,,,,,,,,,,magenta,circle
76.0,6.0,2.0,1.0,2.0,2.0,283.6562949996732,4.0,1.0,phase_1,,,,,,,,,,,,,orange,hexagon
0.0,3.0,0.0,0.0,1.0,1.0,346.003257999655,4.0,1.0,phase_1,,,,,,,,,,,,,green,triangle
0.0,2.0,0.0,0.0,2.0,2.0,373.2082369997442,4.0,1.0,phase_1,,,,,,,,,,,,,white,cross
97.0,2.0,2.0,0.0,2.0,2.0,227.6454099996954,4.0,1.0,phase_1,,,,,,,,,,,,,white,cross
178.0,7.0,3.0,1.0,2.0,2.0,257.0723080002608,4.0,1.0,phase_1,,,,,,,,,,,,,yellow,flipped triangle
0.0,6.0,0.0,1.0,1.0,1.0,322.1557050001138,4.0,1.0,phase_1,,,,,,,,,,,,,orange,hexagon
209.0,3.0,3.0,0.0,2.0,2.0,246.0681860002296,4.0,1.0,phase_1,,,,,,,,,,,,,green,triangle
211.0,3.0,3.0,0.0,3.0,3.0,315.4295610002009,4.0,1.0,phase_1,,,,,,,,,,,,,green,triangle
98.0,6.0,2.0,1.0,1.0,1.0,303.9181610001833,4.0,1.0,phase_1,,,,,,,,,,,,,orange,hexagon
405.0,4.0,4.0,0.0,3.0,3.0,283.0659249998462,4.0,1.0,phase_1,,,,,,,,,,,,,gray,diamond
0.0,3.0,0.0,0.0,3.0,3.0,271.6591389998939,4.0,1.0,phase_1,,,,,,,,,,,,,green,triangle
73.0,5.0,1.0,1.0,3.0,3.0,269.3496809997668,4.0,1.0,phase_1,,,,,,,,,,,,,cyan,I
395.0,8.0,4.0,1.0,1.0,1.0,298.3273890004057,4.0,1.0,phase_1,,,,,,,,,,,,,blue,square
75.0,5.0,1.0,1.0,3.0,3.0,271.5949329999603,4.0,1.0,phase_1,,,,,,,,,,,,,cyan,I
398.0,4.0,4.0,0.0,3.0,3.0,293.6868759998106,4.0,1.0,phase_1,,,,,,,,,,,,,gray,diamond
0.0,1.0,0.0,0.0,4.0,4.0,332.5059559997498,4.0,1.0,phase_1,,,,,,,,,,,,,magenta,circle
75.0,5.0,1.0,1.0,3.0,3.0,280.682342000091,4.0,1.0,phase_1,,,,,,,,,,,,,cyan,I
97.0,2.0,2.0,0.0,3.0,3.0,492.7243649999582,4.0,1.0,phase_1,,,,,,,,,,,,,white,cross
112.0,6.0,2.0,1.0,2.0,2.0,315.8738820002327,4.0,1.0,phase_1,,,,,,,,,,,,,orange,hexagon
56.0,1.0,1.0,0.0,1.0,1.0,302.5396450002517,4.0,1.0,phase_1,,,,,,,,,,,,,magenta,circle
0.0,4.0,0.0,0.0,3.0,3.0,287.8207730000213,4.0,1.0,phase_1,,,,,,,,,,,,,gray,diamond
382.0,4.0,4.0,0.0,2.0,2.0,301.4511639999,4.0,1.0,phase_1,,,,,,,,,,,,,gray,diamond
179.0,7.0,3.0,1.0,4.0,4.0,300.8318590000272,4.0,1.0,phase_1,,,,,,,,,,,,,yellow,flipped triangle
102.0,6.0,2.0,1.0,4.0,4.0,292.8948690000652,4.0,1.0,phase_1,,,,,,,,,,,,,orange,hexagon
92.0,6.0,2.0,1.0,1.0,1.0,325.5856310001945,4.0,1.0,phase_1,,,,,,,,,,,,,orange,hexagon
191.0,3.0,3.0,0.0,4.0,4.0,312.560724999912,4.0,1.0,phase_1,,,,,,,,,,,,,green,triangle
28.0,1.0,1.0,0.0,3.0,3.0,303.9287199999307,4.0,1.0,phase_1,,,,,,,,,,,,,magenta,circle
92.0,2.0,2.0,0.0,3.0,3.0,306.6595979998965,4.0,1.0,phase_1,,,,,,,,,,,,,white,cross
182.0,3.0,3.0,0.0,2.0,2.0,269.8185640001611,4.0,1.0,phase_1,,,,,,,,,,,,,green,triangle
42.0,5.0,1.0,1.0,3.0,3.0,257.1623389999331,4.0,1.0,phase_1,,,,,,,,,,,,,cyan,I
0.0,3.0,0.0,0.0,4.0,4.0,388.2150049998927,4.0,1.0,phase_1,,,,,,,,,,,,,green,triangle
182.0,3.0,3.0,0.0,1.0,1.0,355.6475719997252,4.0,1.0,phase_1,,,,,,,,,,,,,green,triangle
189.0,3.0,3.0,0.0,1.0,1.0,377.026707999903,4.0,1.0,phase_1,,,,,,,,,,,,,green,triangle
0.0,2.0,0.0,0.0,4.0,4.0,313.8983750000079,4.0,2.0,phase_1,,,,,,,,,,,,,white,cross
380.0,4.0,4.0,0.0,1.0,1.0,296.1256920002597,4.0,1.0,phase_1,,,,,,,,,,,,,gray,diamond
184.0,7.0,3.0,1.0,2.0,2.0,283.9683369998056,4.0,1.0,phase_1,,,,,,,,,,,,,yellow,flipped triangle
76.0,2.0,2.0,0.0,4.0,4.0,273.8212419999399,4.0,1.0,phase_1,,,,,,,,,,,,,white,cross
118.0,6.0,2.0,1.0,3.0,3.0,304.9842440000248,4.0,1.0,phase_1,,,,,,,,,,,,,orange,hexagon
34.0,5.0,1.0,1.0,4.0,4.0,293.9927469997201,4.0,1.0,phase_1,,,,,,,,,,,,,cyan,I
0.0,1.0,0.0,0.0,4.0,4.0,413.7952169999153,4.0,1.0,phase_1,,,,,,,,,,,,,magenta,circle
0.0,5.0,0.0,1.0,2.0,2.0,231.8234449999181,4.0,1.0,phase_1,,,,,,,,,,,,,cyan,I
0.0,8.0,0.0,1.0,3.0,3.0,258.466528000099,4.0,1.0,phase_1,,,,,,,,,,,,,blue,square
0.0,1.0,0.0,0.0,3.0,3.0,291.6935170001125,4.0,1.0,phase_1,,,,,,,,,,,,,magenta,circle
75.0,1.0,1.0,0.0,4.0,4.0,281.692866999947,4.0,1.0,phase_1,,,,,,,,,,,,,magenta,circle
33.0,1.0,1.0,0.0,2.0,2.0,294.9445489998652,4.0,1.0,phase_1,,,,,,,,,,,,,magenta,circle
45.0,5.0,1.0,1.0,2.0,2.0,263.2086079997862,4.0,1.0,phase_1,,,,,,,,,,,,,cyan,I
208.0,7.0,3.0,1.0,4.0,4.0,309.0366189999258,4.0,1.0,phase_1,,,,,,,,,,,,,yellow,flipped triangle
200.0,3.0,3.0,0.0,2.0,2.0,344.6171129999129,4.0,1.0,phase_1,,,,,,,,,,,,,green,triangle
201.0,3.0,3.0,0.0,2.0,2.0,337.6258530001905,4.0,1.0,phase_1,,,,,,,,,,,,,green,triangle
199.0,3.0,3.0,0.0,2.0,2.0,274.4635359999847,4.0,1.0,phase_1,,,,,,,,,,,,,green,triangle
0.0,5.0,0.0,1.0,4.0,4.0,329.6250650000729,4.0,1.0,phase_1,,,,,,,,,,,,,cyan,I
116.0,6.0,2.0,1.0,4.0,4.0,349.5362519997798,4.0,1.0,phase_1,,,,,,,,,,,,,orange,hexagon
396.0,4.0,4.0,0.0,4.0,4.0,345.1330699999744,4.0,1.0,phase_1,,,,,,,,,,,,,gray,diamond
398.0,8.0,4.0,1.0,1.0,1.0,460.22440500019,4.0,1.0,phase_1,,,,,,,,,,,,,blue,square
124.0,6.0,2.0,1.0,1.0,1.0,286.2302990001808,4.0,1.0,phase_1,,,,,,,,,,,,,orange,hexagon
36.0,1.0,1.0,0.0,4.0,4.0,287.0741940000698,4.0,1.0,phase_1,,,,,,,,,,,,,magenta,circle
92.0,2.0,2.0,0.0,1.0,1.0,317.810609999924,4.0,1.0,phase_1,,,,,,,,,,,,,white,cross
188.0,3.0,3.0,0.0,3.0,3.0,294.6291020002718,4.0,1.0,phase_1,,,,,,,,,,,,,green,triangle
200.0,7.0,3.0,1.0,3.0,3.0,282.3020239998186,4.0,1.0,phase_1,,,,,,,,,,,,,yellow,flipped triangle
397.0,8.0,4.0,1.0,2.0,2.0,315.7443039999634,4.0,1.0,phase_1,,,,,,,,,,,,,blue,square
384.0,8.0,4.0,1.0,4.0,4.0,257.554103000075,4.0,1.0,phase_1,,,,,,,,,,,,,blue,square
0.0,6.0,0.0,1.0,1.0,1.0,331.4182999997683,4.0,1.0,phase_1,,,,,,,,,,,,,orange,hexagon
201.0,7.0,3.0,1.0,2.0,2.0,275.4254599999512,4.0,1.0,phase_1,,,,,,,,,,,,,yellow,flipped triangle
80.0,2.0,2.0,0.0,2.0,2.0,276.5321080000831,4.0,1.0,phase_1,,,,,,,,,,,,,white,cross
382.0,4.0,4.0,0.0,1.0,1.0,302.410988000247,4.0,2.0,phase_1,,,,,,,,,,,,,gray,diamond
416.0,4.0,4.0,0.0,3.0,3.0,298.7461729999268,4.0,1.0,phase_1,,,,,,,,,,,,,gray,diamond
105.0,6.0,2.0,1.0,1.0,1.0,279.7104780001973,4.0,1.0,phase_1,,,,,,,,,,,,,orange,hexagon
225.0,7.0,3.0,1.0,3.0,3.0,297.0056260001001,4.0,1.0,phase_1,,,,,,,,,,,,,yellow,flipped triangle
116.0,2.0,2.0,0.0,4.0,4.0,343.6459370000193,4.0,2.0,phase_1,,,,,,,,,,,,,white,cross
80.0,6.0,2.0,1.0,1.0,1.0,380.6773510000312,4.0,1.0,phase_1,,,,,,,,,,,,,orange,hexagon
178.0,3.0,3.0,0.0,1.0,1.0,356.5808349999315,4.0,1.0,phase_1,,,,,,,,,,,,,green,triangle
0.0,6.0,0.0,1.0,2.0,2.0,342.8673849998631,4.0,1.0,phase_1,,,,,,,,,,,,,orange,hexagon
59.0,1.0,1.0,0.0,1.0,1.0,327.3222200000418,4.0,1.0,phase_1,,,,,,,,,,,,,magenta,circle
0.0,6.0,0.0,1.0,3.0,3.0,412.0162610001898,4.0,1.0,phase_1,,,,,,,,,,,,,orange,hexagon
0.0,6.0,0.0,1.0,3.0,3.0,371.2872699998115,4.0,1.0,phase_1,,,,,,,,,,,,,orange,hexagon
390.0,4.0,4.0,0.0,2.0,2.0,310.127330999876,4.0,1.0,phase_1,,,,,,,,,,,,,gray,diamond
415.0,8.0,4.0,1.0,3.0,3.0,286.9560909998654,4.0,1.0,phase_1,,,,,,,,,,,,,blue,square
377.0,8.0,4.0,1.0,3.0,3.0,257.5567190001493,4.0,1.0,phase_1,,,,,,,,,,,,,blue,square
83.0,2.0,2.0,0.0,2.0,2.0,342.5058190000527,4.0,1.0,phase_1,,,,,,,,,,,,,white,cross
0.0,8.0,4.0,1.0,5.0,0.0,0.0,1.0,1.0,phase_2,stop,250.0,250.0,4.0,,,,,,,,,blue,square
0.0,8.0,4.0,1.0,6.0,6.0,363.1770239999241,1.0,1.0,phase_2,go,300.0,250.0,1.0,,,,,,,,,blue,square
0.0,7.0,3.0,1.0,6.0,6.0,457.4753370002327,1.0,1.0,phase_2,go,300.0,250.0,1.0,,,,,,,,,yellow,flipped triangle
0.0,1.0,1.0,0.0,6.0,6.0,481.2531709999348,1.0,1.0,phase_2,go,300.0,250.0,1.0,,,,,,,,,magenta,circle
0.0,3.0,3.0,0.0,6.0,6.0,461.6632869997374,1.0,1.0,phase_2,go,300.0,250.0,1.0,,,,,,,,,green,triangle
0.0,8.0,4.0,1.0,6.0,6.0,490.9257679996699,1.0,1.0,phase_2,stop,300.0,250.0,3.0,,,,,,,,,blue,square
0.0,8.0,4.0,1.0,5.0,0.0,0.0,1.0,1.0,phase_2,stop,300.0,200.0,4.0,,,,,,,,,blue,square
0.0,1.0,1.0,0.0,6.0,6.0,313.1409890002032,1.0,1.0,phase_2,go,350.0,200.0,1.0,,,,,,,,,magenta,circle
0.0,3.0,3.0,0.0,6.0,6.0,650.4171380001935,1.0,1.0,phase_2,go,350.0,200.0,1.0,,,,,,,,,green,triangle
0.0,6.0,2.0,1.0,5.0,0.0,0.0,1.0,1.0,phase_2,stop,350.0,200.0,4.0,,,,,,,,,orange,hexagon
0.0,4.0,4.0,0.0,5.0,5.0,536.6717509996306,1.0,1.0,phase_2,go,400.0,200.0,1.0,,,,,,,,,gray,diamond
0.0,1.0,1.0,0.0,5.0,5.0,330.4003719999855,1.0,1.0,phase_2,go,400.0,200.0,1.0,,,,,,,,,magenta,circle
0.0,2.0,2.0,0.0,6.0,6.0,310.6478580002658,1.0,1.0,phase_2,go,400.0,200.0,1.0,,,,,,,,,white,cross
0.0,1.0,1.0,0.0,5.0,5.0,320.5394340002385,1.0,1.0,phase_2,go,400.0,200.0,1.0,,,,,,,,,magenta,circle
0.0,1.0,1.0,0.0,5.0,5.0,322.7307899996958,1.0,1.0,phase_2,go,400.0,200.0,1.0,,,,,,,,,magenta,circle
0.0,1.0,1.0,0.0,5.0,5.0,675.6045129995982,1.0,1.0,phase_2,go,400.0,200.0,1.0,,,,,,,,,magenta,circle
0.0,3.0,3.0,0.0,5.0,5.0,315.2720240000235,1.0,1.0,phase_2,go,400.0,200.0,1.0,,,,,,,,,green,triangle
0.0,1.0,1.0,0.0,5.0,5.0,351.667690999875,1.0,1.0,phase_2,go,400.0,200.0,1.0,,,,,,,,,magenta,circle
0.0,6.0,2.0,1.0,5.0,0.0,0.0,1.0,1.0,phase_2,stop,400.0,200.0,4.0,,,,,,,,,orange,hexagon
0.0,5.0,1.0,1.0,6.0,6.0,333.9922759996625,1.0,1.0,phase_2,stop,450.0,200.0,3.0,,,,,,,,,cyan,I
0.0,2.0,2.0,0.0,5.0,5.0,637.0394400000805,1.0,1.0,phase_2,go,450.0,150.0,1.0,,,,,,,,,white,cross
0.0,8.0,4.0,1.0,6.0,0.0,0.0,1.0,1.0,phase_2,stop,450.0,150.0,4.0,,,,,,,,,blue,square
0.0,3.0,3.0,0.0,6.0,6.0,572.7013880000413,1.0,1.0,phase_2,go,450.0,200.0,1.0,,,,,,,,,green,triangle
0.0,1.0,1.0,0.0,6.0,6.0,586.4513270003044,1.0,1.0,phase_2,go,450.0,200.0,1.0,,,,,,,,,magenta,circle
0.0,7.0,3.0,1.0,5.0,5.0,489.9864399999387,1.0,1.0,phase_2,go,450.0,200.0,1.0,,,,,,,,,yellow,flipped triangle
0.0,6.0,2.0,1.0,6.0,6.0,291.1453639999308,1.0,1.0,phase_2,stop,450.0,200.0,3.0,,,,,,,,,orange,hexagon
0.0,3.0,3.0,0.0,5.0,5.0,455.9411390000605,1.0,1.0,phase_2,go,450.0,150.0,1.0,,,,,,,,,green,triangle
0.0,5.0,1.0,1.0,6.0,6.0,300.885924999875,1.0,1.0,phase_2,stop,450.0,150.0,3.0,,,,,,,,,cyan,I
0.0,5.0,1.0,1.0,5.0,5.0,521.0870999999315,1.0,1.0,phase_2,stop,450.0,100.0,3.0,,,,,,,,,cyan,I
0.0,5.0,1.0,1.0,6.0,0.0,0.0,1.0,1.0,phase_2,stop,400.0,100.0,4.0,,,,,,,,,cyan,I
0.0,4.0,4.0,0.0,5.0,5.0,347.395981000318,1.0,1.0,phase_2,go,400.0,150.0,1.0,,,,,,,,,gray,diamond
0.0,3.0,3.0,0.0,5.0,5.0,363.3435709998593,1.0,1.0,phase_2,go,400.0,150.0,1.0,,,,,,,,,green,triangle
0.0,7.0,3.0,1.0,6.0,6.0,347.1330209999905,1.0,1.0,phase_2,go,400.0,150.0,1.0,,,,,,,,,yellow,flipped triangle
0.0,7.0,3.0,1.0,6.0,0.0,0.0,1.0,1.0,phase_2,stop,400.0,150.0,4.0,,,,,,,,,yellow,flipped triangle
0.0,6.0,2.0,1.0,6.0,0.0,0.0,1.0,1.0,phase_2,stop,400.0,200.0,4.0,,,,,,,,,orange,hexagon
0.0,3.0,3.0,0.0,5.0,5.0,526.7603699999199,1.0,1.0,phase_2,go,400.0,250.0,1.0,,,,,,,,,green,triangle
0.0,1.0,1.0,0.0,5.0,5.0,440.9768659998008,2.0,1.0,phase_2,go,400.0,250.0,1.0,,,,,,,,,magenta,circle
0.0,5.0,1.0,1.0,5.0,5.0,344.047576000321,2.0,1.0,phase_2,stop,400.0,250.0,3.0,,,,,,,,,cyan,I
0.0,8.0,4.0,1.0,6.0,6.0,477.7124709999043,2.0,1.0,phase_2,go,350.0,250.0,1.0,,,,,,,,,blue,square
0.0,2.0,2.0,0.0,6.0,6.0,298.2153600000856,2.0,1.0,phase_2,go,350.0,250.0,1.0,,,,,,,,,white,cross
0.0,5.0,1.0,1.0,6.0,6.0,349.7264929997072,2.0,1.0,phase_2,stop,350.0,250.0,3.0,,,,,,,,,cyan,I
0.0,1.0,1.0,0.0,6.0,6.0,484.3666920000942,2.0,1.0,phase_2,go,350.0,200.0,1.0,,,,,,,,,magenta,circle
0.0,7.0,3.0,1.0,6.0,6.0,295.8176380002442,2.0,1.0,phase_2,stop,350.0,200.0,3.0,,,,,,,,,yellow,flipped triangle
0.0,3.0,3.0,0.0,5.0,5.0,479.6823299998323,2.0,1.0,phase_2,go,350.0,150.0,1.0,,,,,,,,,green,triangle
0.0,8.0,4.0,1.0,5.0,5.0,331.0422479999033,2.0,1.0,phase_2,stop,350.0,150.0,3.0,,,,,,,,,blue,square
0.0,4.0,4.0,0.0,5.0,5.0,464.5565929999975,2.0,1.0,phase_2,go,300.0,150.0,1.0,,,,,,,,,gray,diamond
0.0,8.0,4.0,1.0,5.0,5.0,274.6252749998348,2.0,1.0,phase_2,stop,300.0,150.0,3.0,,,,,,,,,blue,square
0.0,7.0,3.0,1.0,6.0,6.0,297.4614620002285,2.0,1.0,phase_2,stop,250.0,150.0,3.0,,,,,,,,,yellow,flipped triangle
0.0,1.0,1.0,0.0,5.0,5.0,370.4213969999728,2.0,1.0,phase_2,go,250.0,100.0,1.0,,,,,,,,,magenta,circle
0.0,8.0,4.0,1.0,6.0,0.0,0.0,2.0,1.0,phase_2,stop,250.0,100.0,4.0,,,,,,,,,blue,square
0.0,6.0,2.0,1.0,5.0,5.0,446.8651000001955,2.0,1.0,phase_2,go,250.0,150.0,1.0,,,,,,,,,orange,hexagon
0.0,8.0,4.0,1.0,5.0,5.0,297.969944000215,2.0,1.0,phase_2,stop,250.0,150.0,3.0,,,,,,,,,blue,square
0.0,1.0,1.0,0.0,5.0,5.0,504.68389400020897,2.0,1.0,phase_2,go,200.0,150.0,1.0,,,,,,,,,magenta,circle
0.0,6.0,2.0,1.0,5.0,5.0,347.3820559997875,2.0,1.0,phase_2,stop,200.0,150.0,3.0,,,,,,,,,orange,hexagon
0.0,5.0,1.0,1.0,5.0,5.0,427.1612989996356,2.0,1.0,phase_2,go,150.0,150.0,1.0,,,,,,,,,cyan,I
0.0,1.0,1.0,0.0,5.0,5.0,430.0410119999469,2.0,1.0,phase_2,go,150.0,150.0,1.0,,,,,,,,,magenta,circle
0.0,4.0,4.0,0.0,6.0,6.0,403.8261069999862,2.0,1.0,phase_2,go,150.0,150.0,1.0,,,,,,,,,gray,diamond
0.0,4.0,4.0,0.0,5.0,5.0,465.2595690004091,2.0,1.0,phase_2,go,150.0,150.0,1.0,,,,,,,,,gray,diamond
0.0,4.0,4.0,0.0,6.0,6.0,274.9914949999947,2.0,1.0,phase_2,go,150.0,150.0,1.0,,,,,,,,,gray,diamond
0.0,6.0,2.0,1.0,6.0,0.0,0.0,2.0,1.0,phase_2,stop,150.0,150.0,4.0,,,,,,,,,orange,hexagon
0.0,5.0,1.0,1.0,6.0,6.0,337.1528580000813,2.0,1.0,phase_2,go,150.0,200.0,1.0,,,,,,,,,cyan,I
0.0,4.0,4.0,0.0,5.0,5.0,259.5171150001079,2.0,1.0,phase_2,go,150.0,200.0,1.0,,,,,,,,,gray,diamond
0.0,7.0,3.0,1.0,5.0,5.0,296.1452029999236,2.0,1.0,phase_2,stop,150.0,200.0,3.0,,,,,,,,,yellow,flipped triangle
0.0,4.0,4.0,0.0,5.0,5.0,301.8472659996405,2.0,1.0,phase_2,go,100.0,200.0,1.0,,,,,,,,,gray,diamond
0.0,2.0,2.0,0.0,5.0,5.0,298.9279950002128,2.0,1.0,phase_2,go,100.0,200.0,1.0,,,,,,,,,white,cross
0.0,4.0,4.0,0.0,5.0,5.0,297.6730999998835,2.0,1.0,phase_2,go,100.0,200.0,1.0,,,,,,,,,gray,diamond
0.0,1.0,1.0,0.0,6.0,6.0,250.0154049998855,2.0,1.0,phase_2,go,100.0,200.0,1.0,,,,,,,,,magenta,circle
0.0,6.0,2.0,1.0,5.0,5.0,375.6590010002583,2.0,1.0,phase_2,stop,100.0,200.0,3.0,,,,,,,,,orange,hexagon
0.0,5.0,1.0,1.0,5.0,5.0,334.4603059999826,2.0,1.0,phase_2,go,50.0,200.0,1.0,,,,,,,,,cyan,I
0.0,8.0,4.0,1.0,6.0,6.0,288.612787999682,2.0,1.0,phase_2,stop,50.0,200.0,3.0,,,,,,,,,blue,square
0.0,2.0,2.0,0.0,5.0,5.0,281.4207350002107,2.0,1.0,phase_2,go,50.0,150.0,1.0,,,,,,,,,white,cross
0.0,4.0,4.0,0.0,6.0,6.0,267.0113950002815,2.0,1.0,phase_2,go,50.0,150.0,1.0,,,,,,,,,gray,diamond
0.0,3.0,3.0,0.0,6.0,6.0,688.1538839998029,3.0,1.0,phase_2,go,50.0,150.0,1.0,,,,,,,,,green,triangle
0.0,5.0,1.0,1.0,5.0,0.0,0.0,3.0,1.0,phase_2,stop,50.0,150.0,4.0,,,,,,,,,cyan,I
0.0,1.0,1.0,0.0,5.0,5.0,785.9177819996148,3.0,1.0,phase_2,go,100.0,150.0,1.0,,,,,,,,,magenta,circle
0.0,7.0,3.0,1.0,5.0,0.0,0.0,3.0,1.0,phase_2,stop,100.0,150.0,4.0,,,,,,,,,yellow,flipped triangle
0.0,7.0,3.0,1.0,5.0,0.0,0.0,3.0,1.0,phase_2,stop,150.0,150.0,4.0,,,,,,,,,yellow,flipped triangle
0.0,4.0,4.0,0.0,6.0,6.0,652.0304059999944,3.0,1.0,phase_2,go,200.0,150.0,1.0,,,,,,,,,gray,diamond
0.0,6.0,2.0,1.0,5.0,0.0,0.0,3.0,1.0,phase_2,stop,200.0,150.0,4.0,,,,,,,,,orange,hexagon
0.0,5.0,1.0,1.0,5.0,0.0,0.0,3.0,1.0,phase_2,stop,250.0,150.0,4.0,,,,,,,,,cyan,I
0.0,3.0,3.0,0.0,5.0,5.0,875.6885779998811,3.0,1.0,phase_2,go,300.0,150.0,1.0,,,,,,,,,green,triangle
0.0,5.0,1.0,1.0,5.0,0.0,0.0,3.0,1.0,phase_2,stop,300.0,150.0,4.0,,,,,,,,,cyan,I
0.0,5.0,1.0,1.0,6.0,0.0,0.0,3.0,1.0,phase_2,stop,350.0,150.0,4.0,,,,,,,,,cyan,I
0.0,3.0,3.0,0.0,5.0,5.0,681.0874130001139,3.0,1.0,phase_2,go,350.0,200.0,1.0,,,,,,,,,green,triangle
0.0,5.0,1.0,1.0,6.0,0.0,0.0,3.0,1.0,phase_2,stop,350.0,200.0,4.0,,,,,,,,,cyan,I
0.0,1.0,1.0,0.0,5.0,5.0,667.5240889999259,3.0,1.0,phase_2,go,350.0,250.0,1.0,,,,,,,,,magenta,circle
0.0,2.0,2.0,0.0,5.0,5.0,878.0012709999028,3.0,1.0,phase_2,go,350.0,250.0,1.0,,,,,,,,,white,cross
0.0,4.0,4.0,0.0,6.0,5.0,842.3936399999548,3.0,1.0,phase_2,go,350.0,250.0,2.0,,,,,,,,,gray,diamond
0.0,1.0,1.0,0.0,6.0,6.0,752.0837319998463,3.0,1.0,phase_2,go,350.0,250.0,1.0,,,,,,,,,magenta,circle
0.0,2.0,2.0,0.0,5.0,5.0,624.1380060000665,3.0,1.0,phase_2,go,350.0,250.0,1.0,,,,,,,,,white,cross
0.0,5.0,1.0,1.0,6.0,6.0,770.976392999728,3.0,1.0,phase_2,go,350.0,250.0,1.0,,,,,,,,,cyan,I
0.0,6.0,2.0,1.0,5.0,0.0,0.0,3.0,1.0,phase_2,stop,350.0,250.0,4.0,,,,,,,,,orange,hexagon
0.0,6.0,2.0,1.0,6.0,0.0,0.0,3.0,1.0,phase_2,stop,400.0,250.0,4.0,,,,,,,,,orange,hexagon
0.0,8.0,4.0,1.0,5.0,0.0,0.0,3.0,1.0,phase_2,stop,400.0,300.0,4.0,,,,,,,,,blue,square
0.0,4.0,4.0,0.0,6.0,6.0,945.2601129996764,3.0,1.0,phase_2,go,450.0,300.0,1.0,,,,,,,,,gray,diamond
0.0,5.0,1.0,1.0,5.0,0.0,0.0,3.0,1.0,phase_2,stop,450.0,300.0,4.0,,,,,,,,,cyan,I
0.0,5.0,1.0,1.0,6.0,6.0,766.8247769997834,3.0,1.0,phase_2,go,500.0,300.0,1.0,,,,,,,,,cyan,I
0.0,3.0,3.0,0.0,6.0,6.0,704.6298609998303,3.0,1.0,phase_2,go,500.0,300.0,1.0,,,,,,,,,green,triangle
0.0,7.0,3.0,1.0,6.0,0.0,0.0,3.0,1.0,phase_2,stop,500.0,300.0,4.0,,,,,,,,,yellow,flipped triangle
0.0,5.0,1.0,1.0,6.0,0.0,0.0,3.0,1.0,phase_2,stop,500.0,350.0,4.0,,,,,,,,,cyan,I
0.0,2.0,2.0,0.0,5.0,5.0,782.6844189999065,3.0,1.0,phase_2,go,500.0,400.0,1.0,,,,,,,,,white,cross
0.0,4.0,4.0,0.0,6.0,6.0,753.1233990002875,3.0,1.0,phase_2,go,500.0,400.0,1.0,,,,,,,,,gray,diamond
0.0,3.0,3.0,0.0,5.0,5.0,750.221449000037,3.0,1.0,phase_2,go,500.0,400.0,1.0,,,,,,,,,green,triangle
0.0,8.0,4.0,1.0,5.0,0.0,0.0,3.0,1.0,phase_2,stop,500.0,400.0,4.0,,,,,,,,,blue,square
0.0,1.0,1.0,0.0,6.0,6.0,911.4526229996044,3.0,1.0,phase_2,go,550.0,400.0,1.0,,,,,,,,,magenta,circle
0.0,6.0,2.0,1.0,6.0,0.0,0.0,3.0,1.0,phase_2,stop,550.0,400.0,4.0,,,,,,,,,orange,hexagon
0.0,2.0,2.0,0.0,5.0,5.0,865.4836900000191,3.0,1.0,phase_2,go,550.0,450.0,1.0,,,,,,,,,white,cross
0.0,7.0,3.0,1.0,5.0,0.0,0.0,3.0,1.0,phase_2,stop,550.0,450.0,4.0,,,,,,,,,yellow,flipped triangle
0.0,7.0,3.0,1.0,6.0,0.0,0.0,4.0,1.0,phase_2,stop,600.0,450.0,4.0,,,,,,,,,yellow,flipped triangle
0.0,3.0,3.0,0.0,6.0,6.0,596.5571819997422,4.0,1.0,phase_2,go,600.0,500.0,1.0,,,,,,,,,green,triangle
0.0,5.0,1.0,1.0,5.0,5.0,655.2996149998762,4.0,1.0,phase_2,go,600.0,500.0,1.0,,,,,,,,,cyan,I
0.0,6.0,2.0,1.0,6.0,6.0,648.0780169999889,4.0,1.0,phase_2,stop,600.0,500.0,3.0,,,,,,,,,orange,hexagon
0.0,7.0,3.0,1.0,5.0,0.0,0.0,4.0,1.0,phase_2,stop,600.0,450.0,4.0,,,,,,,,,yellow,flipped triangle
0.0,3.0,3.0,0.0,5.0,5.0,583.0098540000108,4.0,1.0,phase_2,go,650.0,450.0,1.0,,,,,,,,,green,triangle
0.0,1.0,1.0,0.0,6.0,6.0,280.4273320002721,4.0,1.0,phase_2,go,650.0,450.0,1.0,,,,,,,,,magenta,circle
0.0,4.0,4.0,0.0,6.0,6.0,398.0059479999909,4.0,1.0,phase_2,go,650.0,450.0,1.0,,,,,,,,,gray,diamond
0.0,1.0,1.0,0.0,5.0,5.0,646.5975400001298,4.0,1.0,phase_2,go,650.0,450.0,1.0,,,,,,,,,magenta,circle
0.0,2.0,2.0,0.0,5.0,0.0,0.0,4.0,1.0,phase_2,go,650.0,450.0,5.0,,,,,,,,,white,cross
0.0,2.0,2.0,0.0,6.0,6.0,543.3927110002514,4.0,1.0,phase_2,go,650.0,450.0,1.0,,,,,,,,,white,cross
0.0,4.0,4.0,0.0,5.0,5.0,437.5646019998385,4.0,1.0,phase_2,go,650.0,450.0,1.0,,,,,,,,,gray,diamond
0.0,2.0,2.0,0.0,5.0,5.0,607.7404559996467,4.0,1.0,phase_2,go,650.0,450.0,1.0,,,,,,,,,white,cross
0.0,8.0,4.0,1.0,6.0,6.0,624.118782000096,4.0,1.0,phase_2,stop,650.0,450.0,3.0,,,,,,,,,blue,square
0.0,3.0,3.0,0.0,5.0,5.0,532.980182999836,4.0,1.0,phase_2,go,650.0,400.0,1.0,,,,,,,,,green,triangle
0.0,2.0,2.0,0.0,5.0,5.0,387.7808780002851,4.0,1.0,phase_2,go,650.0,400.0,1.0,,,,,,,,,white,cross
0.0,8.0,4.0,1.0,6.0,0.0,0.0,4.0,1.0,phase_2,stop,650.0,400.0,4.0,,,,,,,,,blue,square
0.0,5.0,1.0,1.0,5.0,5.0,330.7004839998626,4.0,1.0,phase_2,stop,650.0,450.0,3.0,,,,,,,,,cyan,I
0.0,4.0,4.0,0.0,5.0,5.0,480.363935999776,4.0,1.0,phase_2,go,600.0,450.0,1.0,,,,,,,,,gray,diamond
0.0,8.0,4.0,1.0,6.0,6.0,257.5834539998141,4.0,1.0,phase_2,stop,600.0,450.0,3.0,,,,,,,,,blue,square
0.0,4.0,4.0,0.0,6.0,6.0,748.5673579999457,4.0,1.0,phase_2,go,600.0,400.0,1.0,,,,,,,,,gray,diamond
0.0,8.0,4.0,1.0,6.0,0.0,0.0,4.0,1.0,phase_2,stop,600.0,400.0,4.0,,,,,,,,,blue,square
0.0,3.0,3.0,0.0,6.0,6.0,529.6255680000286,4.0,1.0,phase_2,go,600.0,450.0,1.0,,,,,,,,,green,triangle
0.0,8.0,4.0,1.0,5.0,5.0,569.9990280004386,4.0,1.0,phase_2,stop,600.0,450.0,3.0,,,,,,,,,blue,square
0.0,5.0,1.0,1.0,6.0,6.0,535.9396870003366,4.0,1.0,phase_2,stop,550.0,450.0,3.0,,,,,,,,,cyan,I
0.0,2.0,2.0,0.0,5.0,5.0,598.8855609998609,4.0,1.0,phase_2,go,550.0,400.0,1.0,,,,,,,,,white,cross
0.0,8.0,4.0,1.0,5.0,0.0,0.0,4.0,1.0,phase_2,stop,550.0,400.0,4.0,,,,,,,,,blue,square
0.0,5.0,1.0,1.0,5.0,0.0,0.0,4.0,1.0,phase_2,stop,600.0,400.0,4.0,,,,,,,,,cyan,I
0.0,8.0,4.0,1.0,5.0,5.0,691.4064819998202,4.0,1.0,phase_2,stop,650.0,400.0,3.0,,,,,,,,,blue,square
0.0,1.0,1.0,0.0,6.0,6.0,928.0273549998128,4.0,1.0,phase_2,go,600.0,400.0,1.0,,,,,,,,,magenta,circle
0.0,1.0,1.0,0.0,6.0,6.0,724.2384600003788,4.0,1.0,phase_2,go,600.0,400.0,1.0,,,,,,,,,magenta,circle
0.0,4.0,4.0,0.0,6.0,6.0,510.82864999989397,4.0,1.0,phase_2,go,600.0,400.0,1.0,,,,,,,,,gray,diamond
0.0,4.0,4.0,0.0,6.0,6.0,274.9419480001052,4.0,1.0,phase_2,go,600.0,400.0,1.0,,,,,,,,,gray,diamond
0.0,3.0,3.0,0.0,6.0,6.0,323.8512289999562,4.0,1.0,phase_2,go,600.0,400.0,1.0,,,,,,,,,green,triangle
0.0,8.0,4.0,1.0,6.0,0.0,0.0,4.0,1.0,phase_2,stop,600.0,400.0,4.0,,,,,,,,,blue,square
0.0,2.0,2.0,0.0,6.0,6.0,608.0525099996521,4.0,1.0,phase_2,go,600.0,450.0,1.0,,,,,,,,,white,cross
0.0,6.0,2.0,1.0,6.0,0.0,0.0,5.0,1.0,phase_2,stop,600.0,450.0,4.0,,,,,,,,,orange,hexagon
0.0,7.0,3.0,1.0,6.0,6.0,532.4712839997119,5.0,1.0,phase_2,stop,600.0,500.0,3.0,,,,,,,,,yellow,flipped triangle
0.0,6.0,2.0,1.0,5.0,5.0,631.4011669996944,5.0,1.0,phase_2,stop,600.0,450.0,3.0,,,,,,,,,orange,hexagon
0.0,1.0,1.0,0.0,6.0,6.0,647.3731709997992,5.0,1.0,phase_2,go,550.0,450.0,1.0,,,,,,,,,magenta,circle
0.0,8.0,4.0,1.0,6.0,6.0,821.4410850000604,5.0,1.0,phase_2,go,550.0,450.0,1.0,,,,,,,,,blue,square
0.0,6.0,2.0,1.0,5.0,5.0,505.6336310003644,5.0,1.0,phase_2,go,550.0,450.0,1.0,,,,,,,,,orange,hexagon
0.0,6.0,2.0,1.0,6.0,6.0,545.8983580001586,5.0,1.0,phase_2,go,550.0,450.0,1.0,,,,,,,,,orange,hexagon
0.0,7.0,3.0,1.0,5.0,5.0,260.1303040000857,5.0,1.0,phase_2,go,550.0,450.0,1.0,,,,,,,,,yellow,flipped triangle
0.0,6.0,2.0,1.0,5.0,5.0,504.2106999999305,5.0,1.0,phase_2,stop,550.0,450.0,3.0,,,,,,,,,orange,hexagon
0.0,2.0,2.0,0.0,6.0,6.0,592.20495999989,5.0,1.0,phase_2,go,500.0,450.0,1.0,,,,,,,,,white,cross
0.0,7.0,3.0,1.0,5.0,5.0,562.3729449998791,5.0,1.0,phase_2,stop,500.0,450.0,3.0,,,,,,,,,yellow,flipped triangle
0.0,6.0,2.0,1.0,6.0,6.0,686.2085299999308,5.0,1.0,phase_2,go,450.0,450.0,1.0,,,,,,,,,orange,hexagon
0.0,6.0,2.0,1.0,6.0,6.0,624.9014969998825,5.0,1.0,phase_2,stop,450.0,450.0,3.0,,,,,,,,,orange,hexagon
0.0,3.0,3.0,0.0,6.0,6.0,576.7163400000754,5.0,1.0,phase_2,go,450.0,400.0,1.0,,,,,,,,,green,triangle
0.0,1.0,1.0,0.0,6.0,6.0,954.3519300000298,5.0,1.0,phase_2,go,450.0,400.0,1.0,,,,,,,,,magenta,circle
0.0,7.0,3.0,1.0,6.0,6.0,612.3697620000712,5.0,1.0,phase_2,go,450.0,400.0,1.0,,,,,,,,,yellow,flipped triangle
0.0,8.0,4.0,1.0,6.0,6.0,526.4362590000928,5.0,1.0,phase_2,go,450.0,400.0,1.0,,,,,,,,,blue,square
0.0,5.0,1.0,1.0,6.0,0.0,0.0,5.0,1.0,phase_2,stop,450.0,400.0,4.0,,,,,,,,,cyan,I
0.0,6.0,2.0,1.0,6.0,0.0,0.0,5.0,1.0,phase_2,stop,450.0,450.0,4.0,,,,,,,,,orange,hexagon
0.0,8.0,4.0,1.0,6.0,0.0,0.0,5.0,1.0,phase_2,stop,450.0,500.0,4.0,,,,,,,,,blue,square
0.0,1.0,1.0,0.0,5.0,5.0,664.5345100000668,5.0,1.0,phase_2,go,450.0,550.0,1.0,,,,,,,,,magenta,circle
0.0,1.0,1.0,0.0,5.0,5.0,944.3283909999992,5.0,1.0,phase_2,go,450.0,550.0,1.0,,,,,,,,,magenta,circle
0.0,2.0,2.0,0.0,6.0,6.0,776.291178000065,5.0,1.0,phase_2,go,450.0,550.0,1.0,,,,,,,,,white,cross
0.0,5.0,1.0,1.0,5.0,0.0,0.0,5.0,1.0,phase_2,stop,450.0,550.0,4.0,,,,,,,,,cyan,I
0.0,7.0,3.0,1.0,5.0,5.0,390.8320579998872,5.0,1.0,phase_2,stop,500.0,550.0,3.0,,,,,,,,,yellow,flipped triangle
0.0,4.0,4.0,0.0,6.0,6.0,554.3669079997926,5.0,1.0,phase_2,go,450.0,550.0,1.0,,,,,,,,,gray,diamond
0.0,3.0,3.0,0.0,5.0,5.0,635.607422999783,5.0,1.0,phase_2,go,450.0,550.0,1.0,,,,,,,,,green,triangle
0.0,4.0,4.0,0.0,6.0,6.0,564.4698699998116,5.0,1.0,phase_2,go,450.0,550.0,1.0,,,,,,,,,gray,diamond
0.0,8.0,4.0,1.0,5.0,5.0,563.040624000223,5.0,1.0,phase_2,stop,450.0,550.0,3.0,,,,,,,,,blue,square
0.0,1.0,1.0,0.0,6.0,6.0,504.0046710000752,5.0,1.0,phase_2,go,400.0,550.0,1.0,,,,,,,,,magenta,circle
0.0,1.0,1.0,0.0,6.0,6.0,459.3761160003851,5.0,1.0,phase_2,go,400.0,550.0,1.0,,,,,,,,,magenta,circle
0.0,7.0,3.0,1.0,6.0,6.0,320.1192460001039,5.0,1.0,phase_2,go,400.0,550.0,1.0,,,,,,,,,yellow,flipped triangle
0.0,8.0,4.0,1.0,5.0,5.0,720.5747849998261,5.0,1.0,phase_2,go,400.0,550.0,1.0,,,,,,,,,blue,square
0.0,6.0,2.0,1.0,5.0,5.0,349.4215440000516,5.0,1.0,phase_2,stop,400.0,550.0,3.0,,,,,,,,,orange,hexagon
0.0,8.0,4.0,1.0,5.0,5.0,632.747997000024,5.0,1.0,phase_2,go,350.0,550.0,1.0,,,,,,,,,blue,square
0.0,5.0,1.0,1.0,6.0,6.0,586.6967960000693,5.0,1.0,phase_2,stop,350.0,550.0,3.0,,,,,,,,,cyan,I
0.0,8.0,4.0,1.0,6.0,6.0,360.2803650001078,6.0,1.0,phase_2,stop,350.0,500.0,3.0,,,,,,,,,blue,square
0.0,6.0,2.0,1.0,6.0,6.0,666.8320870003299,6.0,1.0,phase_2,go,350.0,450.0,1.0,,,,,,,,,orange,hexagon
0.0,4.0,4.0,0.0,6.0,6.0,517.8089969999746,6.0,1.0,phase_2,go,350.0,450.0,1.0,,,,,,,,,gray,diamond
0.0,3.0,3.0,0.0,6.0,6.0,543.2464420000542,6.0,1.0,phase_2,go,350.0,450.0,1.0,,,,,,,,,green,triangle
0.0,3.0,3.0,0.0,6.0,6.0,559.0895509999427,6.0,1.0,phase_2,go,350.0,450.0,1.0,,,,,,,,,green,triangle
0.0,4.0,4.0,0.0,5.0,5.0,599.653625999963,6.0,1.0,phase_2,go,350.0,450.0,1.0,,,,,,,,,gray,diamond
0.0,6.0,2.0,1.0,5.0,0.0,0.0,6.0,1.0,phase_2,stop,350.0,450.0,4.0,,,,,,,,,orange,hexagon
0.0,2.0,2.0,0.0,6.0,6.0,791.4415199998075,6.0,1.0,phase_2,go,400.0,450.0,1.0,,,,,,,,,white,cross
0.0,6.0,2.0,1.0,6.0,6.0,438.342159000058,6.0,1.0,phase_2,stop,400.0,450.0,3.0,,,,,,,,,orange,hexagon
0.0,1.0,1.0,0.0,5.0,5.0,659.366584000054,6.0,1.0,phase_2,go,400.0,400.0,1.0,,,,,,,,,magenta,circle
0.0,7.0,3.0,1.0,5.0,0.0,0.0,6.0,1.0,phase_2,stop,400.0,400.0,4.0,,,,,,,,,yellow,flipped triangle
0.0,3.0,3.0,0.0,6.0,6.0,647.9991520000112,6.0,1.0,phase_2,go,450.0,400.0,1.0,,,,,,,,,green,triangle
0.0,4.0,4.0,0.0,5.0,5.0,458.3513540001149,6.0,1.0,phase_2,go,450.0,400.0,1.0,,,,,,,,,gray,diamond
0.0,3.0,3.0,0.0,6.0,6.0,643.3272559997931,6.0,1.0,phase_2,go,450.0,400.0,1.0,,,,,,,,,green,triangle
0.0,5.0,1.0,1.0,5.0,0.0,0.0,6.0,1.0,phase_2,stop,450.0,400.0,4.0,,,,,,,,,cyan,I
0.0,7.0,3.0,1.0,5.0,5.0,731.3271899997744,6.0,1.0,phase_2,go,500.0,400.0,1.0,,,,,,,,,yellow,flipped triangle
0.0,2.0,2.0,0.0,6.0,6.0,643.558352999662,6.0,1.0,phase_2,go,500.0,400.0,1.0,,,,,,,,,white,cross
0.0,5.0,1.0,1.0,6.0,0.0,0.0,6.0,1.0,phase_2,stop,500.0,400.0,4.0,,,,,,,,,cyan,I
0.0,1.0,1.0,0.0,6.0,6.0,1006.718704999912,6.0,1.0,phase_2,go,500.0,450.0,1.0,,,,,,,,,magenta,circle
0.0,4.0,4.0,0.0,5.0,5.0,938.488444000086,6.0,1.0,phase_2,go,500.0,450.0,1.0,,,,,,,,,gray,diamond
0.0,8.0,4.0,1.0,5.0,5.0,611.8815960003303,6.0,1.0,phase_2,go,500.0,450.0,1.0,,,,,,,,,blue,square
0.0,3.0,3.0,0.0,5.0,5.0,319.2019449998042,6.0,1.0,phase_2,go,500.0,450.0,1.0,,,,,,,,,green,triangle
0.0,3.0,3.0,0.0,5.0,5.0,588.4031310001774,6.0,1.0,phase_2,go,500.0,450.0,1.0,,,,,,,,,green,triangle
0.0,7.0,3.0,1.0,6.0,0.0,0.0,6.0,1.0,phase_2,stop,500.0,450.0,4.0,,,,,,,,,yellow,flipped triangle
0.0,6.0,2.0,1.0,6.0,6.0,615.2450839999801,6.0,1.0,phase_2,stop,500.0,500.0,3.0,,,,,,,,,orange,hexagon
0.0,4.0,4.0,0.0,6.0,6.0,616.2795469999764,6.0,1.0,phase_2,go,500.0,450.0,1.0,,,,,,,,,gray,diamond
0.0,4.0,4.0,0.0,5.0,5.0,691.3372580002033,6.0,1.0,phase_2,go,500.0,450.0,1.0,,,,,,,,,gray,diamond
0.0,7.0,3.0,1.0,6.0,6.0,531.7267850000462,6.0,1.0,phase_2,stop,500.0,450.0,3.0,,,,,,,,,yellow,flipped triangle
0.0,7.0,3.0,1.0,6.0,0.0,0.0,6.0,1.0,phase_2,stop,500.0,400.0,4.0,,,,,,,,,yellow,flipped triangle
0.0,3.0,3.0,0.0,5.0,5.0,853.078787999948,6.0,1.0,phase_2,go,500.0,450.0,1.0,,,,,,,,,green,triangle
0.0,4.0,4.0,0.0,6.0,6.0,874.2545290001544,6.0,1.0,phase_2,go,500.0,450.0,1.0,,,,,,,,,gray,diamond
0.0,1.0,1.0,0.0,6.0,6.0,944.3144970000504,6.0,1.0,phase_2,go,500.0,450.0,1.0,,,,,,,,,magenta,circle
0.0,2.0,2.0,0.0,6.0,6.0,912.4001369996222,6.0,1.0,phase_2,go,500.0,450.0,1.0,,,,,,,,,white,cross
0.0,7.0,3.0,1.0,5.0,5.0,1004.7624599997107,6.0,1.0,phase_2,go,500.0,450.0,1.0,,,,,,,,,yellow,flipped triangle
0.0,6.0,2.0,1.0,5.0,5.0,911.8328049999036,6.0,1.0,phase_2,go,500.0,450.0,1.0,,,,,,,,,orange,hexagon
0.0,7.0,3.0,1.0,5.0,0.0,0.0,6.0,1.0,phase_2,stop,500.0,450.0,4.0,,,,,,,,,yellow,flipped triangle
0.0,3.0,3.0,0.0,6.0,6.0,353.69441399961937,7.0,1.0,phase_2,go,550.0,450.0,1.0,,,,,,,,,green,triangle
0.0,2.0,2.0,0.0,5.0,5.0,365.9825329996238,7.0,1.0,phase_2,go,550.0,450.0,1.0,,,,,,,,,white,cross
0.0,8.0,4.0,1.0,6.0,6.0,378.9923509998516,7.0,1.0,phase_2,stop,550.0,450.0,3.0,,,,,,,,,blue,square
0.0,8.0,4.0,1.0,6.0,6.0,436.5710689999105,7.0,1.0,phase_2,stop,550.0,400.0,3.0,,,,,,,,,blue,square
0.0,7.0,3.0,1.0,5.0,5.0,673.8318100001379,7.0,1.0,phase_2,stop,550.0,350.0,3.0,,,,,,,,,yellow,flipped triangle
0.0,1.0,1.0,0.0,6.0,6.0,886.0265090002031,7.0,1.0,phase_2,go,500.0,350.0,1.0,,,,,,,,,magenta,circle
0.0,2.0,2.0,0.0,6.0,6.0,662.2336450000148,7.0,1.0,phase_2,go,500.0,350.0,1.0,,,,,,,,,white,cross
0.0,8.0,4.0,1.0,5.0,5.0,738.3293650000269,7.0,1.0,phase_2,stop,500.0,350.0,3.0,,,,,,,,,blue,square
0.0,2.0,2.0,0.0,6.0,6.0,776.6854820001754,7.0,1.0,phase_2,go,450.0,350.0,1.0,,,,,,,,,white,cross
0.0,2.0,2.0,0.0,5.0,5.0,717.1622949999801,7.0,1.0,phase_2,go,450.0,350.0,1.0,,,,,,,,,white,cross
0.0,7.0,3.0,1.0,5.0,5.0,519.526340000084,7.0,1.0,phase_2,stop,450.0,350.0,3.0,,,,,,,,,yellow,flipped triangle
0.0,7.0,3.0,1.0,6.0,0.0,0.0,7.0,1.0,phase_2,stop,400.0,350.0,4.0,,,,,,,,,yellow,flipped triangle
0.0,2.0,2.0,0.0,5.0,5.0,774.4096399997034,7.0,1.0,phase_2,go,400.0,400.0,1.0,,,,,,,,,white,cross
0.0,6.0,2.0,1.0,6.0,0.0,0.0,7.0,1.0,phase_2,stop,400.0,400.0,4.0,,,,,,,,,orange,hexagon
0.0,3.0,3.0,0.0,5.0,5.0,692.4753739999687,7.0,1.0,phase_2,go,400.0,450.0,1.0,,,,,,,,,green,triangle
0.0,8.0,4.0,1.0,5.0,5.0,520.3964950001136,7.0,1.0,phase_2,stop,400.0,450.0,3.0,,,,,,,,,blue,square
0.0,5.0,1.0,1.0,5.0,5.0,568.9200069996332,7.0,1.0,phase_2,go,350.0,450.0,1.0,,,,,,,,,cyan,I
0.0,1.0,1.0,0.0,5.0,5.0,384.5780159999776,7.0,1.0,phase_2,go,350.0,450.0,1.0,,,,,,,,,magenta,circle
0.0,2.0,2.0,0.0,6.0,6.0,317.6175229996261,7.0,1.0,phase_2,go,350.0,450.0,1.0,,,,,,,,,white,cross
0.0,6.0,2.0,1.0,5.0,5.0,382.3123210004269,7.0,1.0,phase_2,stop,350.0,450.0,3.0,,,,,,,,,orange,hexagon
0.0,6.0,2.0,1.0,6.0,6.0,325.3448860000389,7.0,1.0,phase_2,stop,300.0,450.0,3.0,,,,,,,,,orange,hexagon
0.0,4.0,4.0,0.0,5.0,5.0,759.0409760000512,7.0,1.0,phase_2,go,300.0,400.0,1.0,,,,,,,,,gray,diamond
0.0,4.0,4.0,0.0,5.0,5.0,579.6528000000762,7.0,1.0,phase_2,go,300.0,400.0,1.0,,,,,,,,,gray,diamond
0.0,4.0,4.0,0.0,5.0,5.0,265.826448000098,7.0,1.0,phase_2,go,300.0,400.0,1.0,,,,,,,,,gray,diamond
0.0,6.0,2.0,1.0,5.0,5.0,269.5132829999238,7.0,1.0,phase_2,go,300.0,400.0,1.0,,,,,,,,,orange,hexagon
0.0,1.0,1.0,0.0,6.0,6.0,886.4860570001838,7.0,1.0,phase_2,go,300.0,400.0,1.0,,,,,,,,,magenta,circle
0.0,2.0,2.0,0.0,5.0,5.0,523.2231059999322,7.0,1.0,phase_2,go,300.0,400.0,1.0,,,,,,,,,white,cross
0.0,6.0,2.0,1.0,5.0,5.0,424.286015999769,7.0,1.0,phase_2,go,300.0,400.0,1.0,,,,,,,,,orange,hexagon
0.0,5.0,1.0,1.0,5.0,5.0,375.2951159999611,7.0,1.0,phase_2,stop,300.0,400.0,3.0,,,,,,,,,cyan,I
0.0,5.0,1.0,1.0,6.0,6.0,268.4324429997105,7.0,1.0,phase_2,go,250.0,400.0,1.0,,,,,,,,,cyan,I
0.0,7.0,3.0,1.0,5.0,0.0,0.0,7.0,1.0,phase_2,stop,250.0,400.0,4.0,,,,,,,,,yellow,flipped triangle
0.0,8.0,4.0,1.0,6.0,6.0,363.0797719997645,7.0,1.0,phase_2,go,300.0,400.0,1.0,,,,,,,,,blue,square
0.0,2.0,2.0,0.0,6.0,6.0,638.3743820001655,7.0,1.0,phase_2,go,300.0,400.0,1.0,,,,,,,,,white,cross
0.0,8.0,4.0,1.0,5.0,0.0,0.0,7.0,1.0,phase_2,stop,300.0,400.0,4.0,,,,,,,,,blue,square
0.0,1.0,1.0,0.0,5.0,5.0,550.4372059999696,7.0,1.0,phase_2,go,350.0,400.0,1.0,,,,,,,,,magenta,circle
0.0,3.0,3.0,0.0,6.0,6.0,282.0644409998749,7.0,1.0,phase_2,go,350.0,400.0,1.0,,,,,,,,,green,triangle
0.0,7.0,3.0,1.0,5.0,5.0,556.7932419999124,8.0,1.0,phase_2,stop,350.0,400.0,3.0,,,,,,,,,yellow,flipped triangle
0.0,3.0,3.0,0.0,6.0,6.0,496.0578660002284,8.0,1.0,phase_2,go,300.0,400.0,1.0,,,,,,,,,green,triangle
0.0,7.0,3.0,1.0,5.0,0.0,0.0,8.0,1.0,phase_2,stop,300.0,400.0,4.0,,,,,,,,,yellow,flipped triangle
0.0,3.0,3.0,0.0,6.0,6.0,523.6180110000532,8.0,1.0,phase_2,go,350.0,400.0,1.0,,,,,,,,,green,triangle
0.0,6.0,2.0,1.0,5.0,5.0,496.3126439997722,8.0,1.0,phase_2,stop,350.0,400.0,3.0,,,,,,,,,orange,hexagon
0.0,5.0,1.0,1.0,6.0,0.0,0.0,8.0,1.0,phase_2,stop,300.0,400.0,4.0,,,,,,,,,cyan,I
0.0,3.0,3.0,0.0,5.0,5.0,545.1573820000704,8.0,1.0,phase_2,go,300.0,450.0,1.0,,,,,,,,,green,triangle
0.0,4.0,4.0,0.0,5.0,5.0,316.0139279998475,8.0,1.0,phase_2,go,300.0,450.0,1.0,,,,,,,,,gray,diamond
0.0,3.0,3.0,0.0,6.0,6.0,616.4081330002773,8.0,1.0,phase_2,go,300.0,450.0,1.0,,,,,,,,,green,triangle
0.0,4.0,4.0,0.0,6.0,6.0,494.0460550001262,8.0,1.0,phase_2,go,300.0,450.0,1.0,,,,,,,,,gray,diamond
0.0,2.0,2.0,0.0,6.0,6.0,603.4552169999188,8.0,1.0,phase_2,go,300.0,450.0,1.0,,,,,,,,,white,cross
0.0,2.0,2.0,0.0,6.0,6.0,532.2056680001879,8.0,1.0,phase_2,go,300.0,450.0,1.0,,,,,,,,,white,cross
0.0,7.0,3.0,1.0,6.0,6.0,569.4216229999256,8.0,1.0,phase_2,go,300.0,450.0,1.0,,,,,,,,,yellow,flipped triangle
0.0,4.0,4.0,0.0,5.0,5.0,574.4366330000048,8.0,1.0,phase_2,go,300.0,450.0,1.0,,,,,,,,,gray,diamond
0.0,7.0,3.0,1.0,6.0,0.0,0.0,8.0,1.0,phase_2,stop,300.0,450.0,4.0,,,,,,,,,yellow,flipped triangle
0.0,5.0,1.0,1.0,6.0,6.0,609.5188720000806,8.0,1.0,phase_2,go,300.0,500.0,1.0,,,,,,,,,cyan,I
0.0,8.0,4.0,1.0,5.0,5.0,591.4059660003659,8.0,1.0,phase_2,go,300.0,500.0,1.0,,,,,,,,,blue,square
0.0,5.0,1.0,1.0,5.0,5.0,297.7887550000559,8.0,1.0,phase_2,stop,300.0,500.0,3.0,,,,,,,,,cyan,I
0.0,7.0,3.0,1.0,6.0,0.0,0.0,8.0,1.0,phase_2,stop,250.0,500.0,4.0,,,,,,,,,yellow,flipped triangle
0.0,1.0,1.0,0.0,5.0,5.0,645.6708910000089,8.0,1.0,phase_2,go,250.0,550.0,1.0,,,,,,,,,magenta,circle
0.0,2.0,2.0,0.0,6.0,6.0,737.5117770002362,8.0,1.0,phase_2,go,250.0,550.0,1.0,,,,,,,,,white,cross
0.0,6.0,2.0,1.0,6.0,6.0,605.4534929999136,8.0,1.0,phase_2,stop,250.0,550.0,3.0,,,,,,,,,orange,hexagon
0.0,4.0,4.0,0.0,6.0,6.0,538.8298869997925,8.0,1.0,phase_2,go,250.0,500.0,1.0,,,,,,,,,gray,diamond
0.0,2.0,2.0,0.0,6.0,6.0,760.951397000099,8.0,1.0,phase_2,go,250.0,500.0,1.0,,,,,,,,,white,cross
0.0,2.0,2.0,0.0,5.0,5.0,516.3210079999772,8.0,1.0,phase_2,go,250.0,500.0,1.0,,,,,,,,,white,cross
0.0,5.0,1.0,1.0,5.0,0.0,0.0,8.0,1.0,phase_2,stop,250.0,500.0,4.0,,,,,,,,,cyan,I
0.0,6.0,2.0,1.0,6.0,0.0,0.0,8.0,1.0,phase_2,stop,300.0,500.0,4.0,,,,,,,,,orange,hexagon
0.0,5.0,1.0,1.0,6.0,0.0,0.0,8.0,1.0,phase_2,stop,300.0,550.0,4.0,,,,,,,,,cyan,I
0.0,2.0,2.0,0.0,6.0,6.0,758.1356800001231,8.0,1.0,phase_2,go,300.0,600.0,1.0,,,,,,,,,white,cross
0.0,3.0,3.0,0.0,5.0,5.0,838.4523869999612,8.0,1.0,phase_2,go,300.0,600.0,1.0,,,,,,,,,green,triangle
0.0,3.0,3.0,0.0,5.0,5.0,650.3133629998956,8.0,1.0,phase_2,go,300.0,600.0,1.0,,,,,,,,,green,triangle
0.0,2.0,2.0,0.0,5.0,5.0,301.6935209998337,8.0,1.0,phase_2,go,300.0,600.0,1.0,,,,,,,,,white,cross
0.0,2.0,2.0,0.0,5.0,5.0,526.7966669998714,8.0,1.0,phase_2,go,300.0,600.0,1.0,,,,,,,,,white,cross
0.0,6.0,2.0,1.0,5.0,5.0,687.219830000231,8.0,1.0,phase_2,go,300.0,600.0,1.0,,,,,,,,,orange,hexagon
0.0,5.0,1.0,1.0,5.0,0.0,0.0,8.0,1.0,phase_2,stop,300.0,600.0,4.0,,,,,,,,,cyan,I
0.0,7.0,3.0,1.0,6.0,6.0,447.528388000137,8.0,1.0,phase_2,stop,350.0,600.0,3.0,,,,,,,,,yellow,flipped triangle
0.0,1.0,1.0,0.0,7.0,3.0,3165.589722000732,1.0,1.0,phase_3,,,,,156.0,4.0,78.0,117.0,156.0,234.0,195.0,39.0,magenta,circle
0.0,5.0,1.0,1.0,7.0,3.0,3044.4824500000323,1.0,1.0,phase_3,,,,,44.0,1.0,132.0,88.0,44.0,264.0,220.0,176.0,cyan,I
0.0,6.0,2.0,1.0,7.0,6.0,2452.3240839998834,1.0,1.0,phase_3,,,,,108.0,2.0,54.0,162.0,270.0,324.0,216.0,108.0,orange,hexagon
0.0,3.0,3.0,0.0,7.0,4.0,3052.2198280004886,1.0,1.0,phase_3,,,,,156.0,4.0,117.0,78.0,195.0,156.0,234.0,39.0,green,triangle
0.0,3.0,3.0,0.0,7.0,5.0,2810.461656999905,1.0,1.0,phase_3,,,,,162.0,3.0,54.0,108.0,216.0,270.0,162.0,324.0,green,triangle
0.0,3.0,3.0,0.0,7.0,4.0,2836.516230999223,1.0,1.0,phase_3,,,,,176.0,4.0,132.0,88.0,220.0,176.0,44.0,264.0,green,triangle
0.0,6.0,2.0,1.0,7.0,3.0,2819.6519879993502,1.0,1.0,phase_3,,,,,147.0,3.0,98.0,294.0,147.0,196.0,49.0,245.0,orange,hexagon
0.0,7.0,3.0,1.0,7.0,3.0,2172.39348899966,1.0,1.0,phase_3,,,,,204.0,6.0,68.0,34.0,204.0,170.0,136.0,102.0,yellow,flipped triangle
0.0,6.0,2.0,1.0,7.0,2.0,2919.59508599939,1.0,1.0,phase_3,,,,,136.0,4.0,34.0,136.0,102.0,170.0,204.0,68.0,orange,hexagon
0.0,7.0,3.0,1.0,7.0,1.0,1799.202197000341,1.0,1.0,phase_3,,,,,245.0,5.0,245.0,147.0,196.0,98.0,294.0,49.0,yellow,flipped triangle
0.0,8.0,4.0,1.0,7.0,4.0,1515.3130080007031,1.0,1.0,phase_3,,,,,108.0,2.0,54.0,270.0,216.0,108.0,324.0,162.0,blue,square
0.0,5.0,1.0,1.0,7.0,3.0,1788.7395690004269,1.0,1.0,phase_3,,,,,39.0,1.0,117.0,195.0,39.0,156.0,234.0,78.0,cyan,I
0.0,2.0,2.0,0.0,7.0,2.0,2291.0304609995364,1.0,1.0,phase_3,,,,,98.0,2.0,147.0,98.0,294.0,245.0,49.0,196.0,white,cross
0.0,7.0,3.0,1.0,7.0,5.0,1448.7980629992308,1.0,1.0,phase_3,,,,,216.0,4.0,108.0,324.0,162.0,54.0,216.0,270.0,yellow,flipped triangle
0.0,4.0,4.0,0.0,7.0,3.0,1175.5242389999694,1.0,1.0,phase_3,,,,,176.0,4.0,88.0,44.0,176.0,220.0,264.0,132.0,gray,diamond
0.0,3.0,3.0,0.0,7.0,5.0,3025.188185000843,1.0,1.0,phase_3,,,,,176.0,4.0,220.0,44.0,132.0,264.0,176.0,88.0,green,triangle
0.0,8.0,4.0,1.0,7.0,6.0,1872.340253999937,1.0,1.0,phase_3,,,,,156.0,4.0,234.0,195.0,117.0,78.0,39.0,156.0,blue,square
0.0,3.0,3.0,0.0,7.0,5.0,2851.110644000073,1.0,1.0,phase_3,,,,,156.0,4.0,78.0,234.0,39.0,195.0,156.0,117.0,green,triangle
0.0,2.0,2.0,0.0,7.0,6.0,2076.2930490000144,1.0,1.0,phase_3,,,,,98.0,2.0,196.0,245.0,294.0,147.0,49.0,98.0,white,cross
0.0,5.0,1.0,1.0,7.0,3.0,1013.9543659997798,1.0,1.0,phase_3,,,,,49.0,1.0,98.0,196.0,49.0,147.0,294.0,245.0,cyan,I
0.0,2.0,2.0,0.0,7.0,5.0,2419.0777710000475,2.0,1.0,phase_3,,,,,102.0,3.0,170.0,136.0,68.0,34.0,102.0,204.0,white,cross
0.0,7.0,3.0,1.0,7.0,5.0,1627.0836900002903,2.0,1.0,phase_3,,,,,220.0,5.0,88.0,132.0,44.0,264.0,220.0,176.0,yellow,flipped triangle
0.0,1.0,1.0,0.0,7.0,4.0,2073.288606999995,2.0,1.0,phase_3,,,,,132.0,3.0,264.0,220.0,44.0,132.0,88.0,176.0,magenta,circle
0.0,5.0,1.0,1.0,7.0,6.0,1512.872912999228,2.0,1.0,phase_3,,,,,49.0,1.0,98.0,196.0,147.0,245.0,294.0,49.0,cyan,I
0.0,1.0,1.0,0.0,7.0,1.0,2068.144218999805,2.0,1.0,phase_3,,,,,147.0,3.0,147.0,98.0,196.0,49.0,294.0,245.0,magenta,circle
0.0,5.0,1.0,1.0,7.0,4.0,1281.1287539998375,2.0,1.0,phase_3,,,,,54.0,1.0,270.0,108.0,162.0,54.0,324.0,216.0,cyan,I
0.0,6.0,2.0,1.0,7.0,4.0,2447.22145600008,2.0,1.0,phase_3,,,,,132.0,3.0,44.0,220.0,264.0,132.0,88.0,176.0,orange,hexagon
0.0,6.0,2.0,1.0,7.0,4.0,1000.82959700012,2.0,1.0,phase_3,,,,,170.0,5.0,68.0,136.0,34.0,170.0,102.0,204.0,orange,hexagon
0.0,3.0,3.0,0.0,7.0,1.0,1949.9329589998524,2.0,1.0,phase_3,,,,,98.0,2.0,98.0,147.0,294.0,245.0,196.0,49.0,green,triangle
0.0,4.0,4.0,0.0,7.0,6.0,2812.784400000055,2.0,1.0,phase_3,,,,,108.0,2.0,324.0,54.0,270.0,162.0,216.0,108.0,gray,diamond
0.0,1.0,1.0,0.0,7.0,2.0,2037.1080069999152,2.0,1.0,phase_3,,,,,136.0,4.0,34.0,136.0,170.0,102.0,204.0,68.0,magenta,circle
0.0,1.0,1.0,0.0,7.0,2.0,4223.6569530005,2.0,1.0,phase_3,,,,,108.0,2.0,54.0,108.0,162.0,270.0,216.0,324.0,magenta,circle
0.0,2.0,2.0,0.0,7.0,3.0,1988.7979550003363,2.0,1.0,phase_3,,,,,176.0,4.0,88.0,220.0,176.0,132.0,44.0,264.0,white,cross
0.0,7.0,3.0,1.0,7.0,6.0,1702.1880399997826,2.0,1.0,phase_3,,,,,234.0,6.0,117.0,195.0,39.0,78.0,156.0,234.0,yellow,flipped triangle
0.0,8.0,4.0,1.0,7.0,5.0,2054.0904070003307,2.0,1.0,phase_3,,,,,136.0,4.0,68.0,204.0,170.0,102.0,136.0,34.0,blue,square
0.0,1.0,1.0,0.0,7.0,3.0,2264.67364600012,2.0,1.0,phase_3,,,,,147.0,3.0,196.0,294.0,147.0,49.0,245.0,98.0,magenta,circle
0.0,1.0,1.0,0.0,7.0,3.0,1852.4404489999145,2.0,1.0,phase_3,,,,,162.0,3.0,108.0,54.0,162.0,216.0,324.0,270.0,magenta,circle
0.0,2.0,2.0,0.0,7.0,2.0,1572.057684000356,2.0,1.0,phase_3,,,,,102.0,3.0,170.0,102.0,204.0,136.0,34.0,68.0,white,cross
0.0,7.0,3.0,1.0,7.0,6.0,1372.9663109998,2.0,1.0,phase_3,,,,,204.0,6.0,170.0,136.0,102.0,68.0,34.0,204.0,yellow,flipped triangle
0.0,3.0,3.0,0.0,7.0,5.0,2212.890545999471,2.0,1.0,phase_3,,,,,170.0,5.0,136.0,34.0,102.0,204.0,170.0,68.0,green,triangle
0.0,6.0,2.0,1.0,7.0,3.0,1961.0825010004191,3.0,1.0,phase_3,,,,,156.0,4.0,234.0,195.0,156.0,78.0,39.0,117.0,orange,hexagon
0.0,2.0,2.0,0.0,7.0,1.0,1631.2101350004014,3.0,1.0,phase_3,,,,,108.0,2.0,108.0,162.0,216.0,324.0,270.0,54.0,white,cross
0.0,2.0,2.0,0.0,7.0,2.0,1143.6825110004063,3.0,1.0,phase_3,,,,,108.0,2.0,324.0,108.0,162.0,54.0,270.0,216.0,white,cross
0.0,5.0,1.0,1.0,7.0,6.0,1700.1437869994334,3.0,1.0,phase_3,,,,,39.0,1.0,117.0,156.0,78.0,234.0,195.0,39.0,cyan,I
0.0,8.0,4.0,1.0,7.0,6.0,1837.4986279995935,3.0,1.0,phase_3,,,,,132.0,3.0,264.0,44.0,220.0,176.0,88.0,132.0,blue,square
0.0,8.0,4.0,1.0,7.0,4.0,1867.8886569996396,3.0,1.0,phase_3,,,,,136.0,4.0,68.0,170.0,34.0,136.0,102.0,204.0,blue,square
0.0,7.0,3.0,1.0,7.0,1.0,1831.2002129996472,3.0,1.0,phase_3,,,,,234.0,6.0,234.0,117.0,39.0,195.0,78.0,156.0,yellow,flipped triangle
0.0,4.0,4.0,0.0,7.0,3.0,2646.825431999787,3.0,1.0,phase_3,,,,,147.0,3.0,98.0,294.0,147.0,49.0,196.0,245.0,gray,diamond
0.0,4.0,4.0,0.0,7.0,5.0,1697.283927999706,3.0,1.0,phase_3,,,,,170.0,5.0,204.0,34.0,136.0,68.0,170.0,102.0,gray,diamond
0.0,1.0,1.0,0.0,7.0,3.0,2745.839616000012,3.0,1.0,phase_3,,,,,132.0,3.0,176.0,88.0,132.0,264.0,220.0,44.0,magenta,circle
0.0,8.0,4.0,1.0,7.0,4.0,1865.8049759997084,3.0,1.0,phase_3,,,,,147.0,3.0,98.0,49.0,294.0,147.0,196.0,245.0,blue,square
0.0,3.0,3.0,0.0,7.0,4.0,2059.886151999308,3.0,1.0,phase_3,,,,,170.0,5.0,204.0,136.0,68.0,170.0,102.0,34.0,green,triangle
0.0,6.0,2.0,1.0,7.0,4.0,2707.6337629996488,3.0,1.0,phase_3,,,,,162.0,3.0,54.0,108.0,270.0,162.0,324.0,216.0,orange,hexagon
0.0,7.0,3.0,1.0,7.0,5.0,2233.444610999868,3.0,1.0,phase_3,,,,,220.0,5.0,132.0,44.0,264.0,176.0,220.0,88.0,yellow,flipped triangle
0.0,6.0,2.0,1.0,7.0,3.0,1773.359363000054,3.0,1.0,phase_3,,,,,132.0,3.0,44.0,220.0,132.0,88.0,176.0,264.0,orange,hexagon
0.0,5.0,1.0,1.0,7.0,1.0,1744.9007960003655,3.0,1.0,phase_3,,,,,68.0,2.0,68.0,34.0,204.0,170.0,102.0,136.0,cyan,I
0.0,2.0,2.0,0.0,7.0,6.0,2086.6077670007144,3.0,1.0,phase_3,,,,,78.0,2.0,156.0,39.0,117.0,234.0,195.0,78.0,white,cross
0.0,4.0,4.0,0.0,7.0,6.0,1650.855484999738,3.0,1.0,phase_3,,,,,162.0,3.0,108.0,270.0,324.0,216.0,54.0,162.0,gray,diamond
0.0,8.0,4.0,1.0,7.0,2.0,1791.6238030002205,3.0,1.0,phase_3,,,,,162.0,3.0,324.0,162.0,270.0,108.0,54.0,216.0,blue,square
0.0,8.0,4.0,1.0,7.0,3.0,1479.6710710006664,3.0,1.0,phase_3,,,,,156.0,4.0,78.0,195.0,156.0,117.0,39.0,234.0,blue,square
0.0,2.0,2.0,0.0,7.0,3.0,2455.8680990003268,4.0,1.0,phase_3,,,,,156.0,4.0,195.0,234.0,156.0,78.0,117.0,39.0,white,cross
0.0,1.0,1.0,0.0,7.0,3.0,1643.9692300000388,4.0,1.0,phase_3,,,,,156.0,4.0,78.0,117.0,156.0,39.0,234.0,195.0,magenta,circle
0.0,4.0,4.0,0.0,7.0,6.0,2006.1336729995678,4.0,1.0,phase_3,,,,,156.0,4.0,78.0,195.0,234.0,39.0,117.0,156.0,gray,diamond
0.0,5.0,1.0,1.0,7.0,4.0,1301.7551599996295,4.0,1.0,phase_3,,,,,54.0,1.0,162.0,216.0,108.0,54.0,270.0,324.0,cyan,I
0.0,5.0,1.0,1.0,7.0,4.0,984.0377410000656,4.0,1.0,phase_3,,,,,44.0,1.0,132.0,176.0,88.0,44.0,264.0,220.0,cyan,I
0.0,4.0,4.0,0.0,7.0,6.0,1850.34274499958,4.0,1.0,phase_3,,,,,147.0,3.0,294.0,245.0,196.0,49.0,98.0,147.0,gray,diamond
0.0,5.0,1.0,1.0,7.0,1.0,1312.649646999489,4.0,1.0,phase_3,,,,,34.0,1.0,34.0,68.0,204.0,170.0,136.0,102.0,cyan,I
0.0,2.0,2.0,0.0,7.0,1.0,2312.8115709996564,4.0,1.0,phase_3,,,,,132.0,3.0,132.0,220.0,176.0,44.0,88.0,264.0,white,cross
0.0,6.0,2.0,1.0,7.0,6.0,1606.4796889995705,4.0,1.0,phase_3,,,,,156.0,4.0,78.0,195.0,234.0,39.0,117.0,156.0,orange,hexagon
0.0,6.0,2.0,1.0,7.0,5.0,1627.383636000559,4.0,1.0,phase_3,,,,,147.0,3.0,49.0,245.0,294.0,98.0,147.0,196.0,orange,hexagon
0.0,8.0,4.0,1.0,7.0,1.0,2371.2941660005527,4.0,1.0,phase_3,,,,,132.0,3.0,132.0,88.0,264.0,44.0,176.0,220.0,blue,square
0.0,4.0,4.0,0.0,7.0,6.0,1660.46701400046,4.0,1.0,phase_3,,,,,176.0,4.0,44.0,88.0,132.0,220.0,264.0,176.0,gray,diamond
0.0,4.0,4.0,0.0,7.0,3.0,1750.2245579998998,4.0,1.0,phase_3,,,,,156.0,4.0,39.0,195.0,156.0,117.0,234.0,78.0,gray,diamond
0.0,3.0,3.0,0.0,7.0,6.0,1497.1555520005495,4.0,1.0,phase_3,,,,,162.0,3.0,270.0,216.0,324.0,108.0,54.0,162.0,green,triangle
0.0,7.0,3.0,1.0,7.0,5.0,1764.636537000115,4.0,1.0,phase_3,,,,,245.0,5.0,196.0,147.0,49.0,294.0,245.0,98.0,yellow,flipped triangle
0.0,8.0,4.0,1.0,7.0,5.0,2057.96474699946,4.0,1.0,phase_3,,,,,147.0,3.0,294.0,98.0,49.0,245.0,147.0,196.0,blue,square
0.0,7.0,3.0,1.0,7.0,5.0,1224.7846390000632,4.0,1.0,phase_3,,,,,216.0,4.0,54.0,162.0,270.0,324.0,216.0,108.0,yellow,flipped triangle
0.0,4.0,4.0,0.0,7.0,4.0,1527.5567920007234,4.0,1.0,phase_3,,,,,136.0,4.0,170.0,102.0,68.0,136.0,204.0,34.0,gray,diamond
0.0,1.0,1.0,0.0,7.0,3.0,1290.4461909993188,4.0,1.0,phase_3,,,,,136.0,4.0,204.0,102.0,136.0,34.0,68.0,170.0,magenta,circle
0.0,3.0,3.0,0.0,7.0,1.0,2276.225350000459,4.0,1.0,phase_3,,,,,147.0,3.0,147.0,245.0,98.0,294.0,196.0,49.0,green,triangle
