raw_reward_magnitude,stim_reward,stepwise_reward_magnitude,paired_with_stopping,stim_location,response,reaction_time,block,num_trial_presentations,which_phase,stop_signal_trial_type,left_SSD,right_SSD,accuracy,chosen_bidding_amount,chosen_bidding_level,possible_bid_1,possible_bid_2,possible_bid_3,possible_bid_4,possible_bid_5,possible_bid_6,color_text,shape_text
205.0,3.0,2.0,0.0,2.0,2.0,338.4496899998339,1.0,1.0,phase_1,,,,,,,,,,,,,green,circle
385.0,8.0,4.0,1.0,3.0,3.0,274.1341920000195,1.0,1.0,phase_1,,,,,,,,,,,,,orange,hexagon
56.0,1.0,0.5,0.0,4.0,4.0,266.3578810002036,1.0,1.0,phase_1,,,,,,,,,,,,,white,square
205.0,7.0,2.0,1.0,4.0,4.0,363.9218870000604,1.0,1.0,phase_1,,,,,,,,,,,,,cyan,cross
415.0,4.0,4.0,0.0,1.0,1.0,293.4560250000686,1.0,1.0,phase_1,,,,,,,,,,,,,magenta,triangle
34.0,1.0,0.5,0.0,3.0,3.0,286.3386230001197,1.0,1.0,phase_1,,,,,,,,,,,,,white,square
91.0,6.0,1.0,1.0,1.0,1.0,267.6862349999283,1.0,1.0,phase_1,,,,,,,,,,,,,yellow,I
420.0,8.0,4.0,1.0,4.0,4.0,293.9970630000061,1.0,1.0,phase_1,,,,,,,,,,,,,orange,hexagon
0.0,7.0,0.0,1.0,3.0,3.0,252.0920990000377,1.0,1.0,phase_1,,,,,,,,,,,,,cyan,cross
218.0,3.0,2.0,0.0,1.0,1.0,237.5230170000577,1.0,1.0,phase_1,,,,,,,,,,,,,green,circle
55.0,1.0,0.5,0.0,4.0,4.0,251.758989000109,1.0,1.0,phase_1,,,,,,,,,,,,,white,square
40.0,1.0,0.5,0.0,4.0,4.0,288.2633159999841,1.0,1.0,phase_1,,,,,,,,,,,,,white,square
181.0,3.0,2.0,0.0,1.0,1.0,268.5690710000017,1.0,1.0,phase_1,,,,,,,,,,,,,green,circle
100.0,2.0,1.0,0.0,3.0,3.0,287.3187309999139,1.0,1.0,phase_1,,,,,,,,,,,,,gray,flipped triangle
83.0,6.0,1.0,1.0,1.0,1.0,241.4231130001098,1.0,1.0,phase_1,,,,,,,,,,,,,yellow,I
402.0,8.0,4.0,1.0,4.0,4.0,283.1365109998387,1.0,1.0,phase_1,,,,,,,,,,,,,orange,hexagon
86.0,6.0,1.0,1.0,2.0,2.0,235.9879380001075,1.0,1.0,phase_1,,,,,,,,,,,,,yellow,I
181.0,3.0,2.0,0.0,3.0,3.0,240.3456029999233,1.0,1.0,phase_1,,,,,,,,,,,,,green,circle
378.0,4.0,4.0,0.0,4.0,4.0,263.6685229999784,1.0,1.0,phase_1,,,,,,,,,,,,,magenta,triangle
202.0,7.0,2.0,1.0,3.0,3.0,301.1164869999447,1.0,1.0,phase_1,,,,,,,,,,,,,cyan,cross
76.0,6.0,1.0,1.0,1.0,1.0,254.56938599995738,1.0,1.0,phase_1,,,,,,,,,,,,,yellow,I
25.0,1.0,0.5,0.0,2.0,2.0,296.8289740001637,1.0,1.0,phase_1,,,,,,,,,,,,,white,square
0.0,6.0,0.0,1.0,4.0,4.0,244.5988399999805,1.0,1.0,phase_1,,,,,,,,,,,,,yellow,I
215.0,3.0,2.0,0.0,2.0,2.0,242.1671199999764,1.0,1.0,phase_1,,,,,,,,,,,,,green,circle
106.0,2.0,1.0,0.0,2.0,2.0,336.2382410000464,1.0,1.0,phase_1,,,,,,,,,,,,,gray,flipped triangle
411.0,4.0,4.0,0.0,3.0,3.0,240.1902379999683,1.0,1.0,phase_1,,,,,,,,,,,,,magenta,triangle
397.0,8.0,4.0,1.0,4.0,4.0,239.0298010000151,1.0,1.0,phase_1,,,,,,,,,,,,,orange,hexagon
206.0,3.0,2.0,0.0,4.0,4.0,286.8018579999898,1.0,1.0,phase_1,,,,,,,,,,,,,green,circle
116.0,6.0,1.0,1.0,4.0,4.0,257.5004029999945,1.0,1.0,phase_1,,,,,,,,,,,,,yellow,I
395.0,4.0,4.0,0.0,3.0,3.0,257.3349280000911,1.0,1.0,phase_1,,,,,,,,,,,,,magenta,triangle
32.0,5.0,0.5,1.0,2.0,2.0,241.241016999993,1.0,1.0,phase_1,,,,,,,,,,,,,blue,diamond
200.0,7.0,2.0,1.0,4.0,4.0,251.16820300013381,1.0,1.0,phase_1,,,,,,,,,,,,,cyan,cross
52.0,1.0,0.5,0.0,2.0,2.0,257.1538590000273,1.0,1.0,phase_1,,,,,,,,,,,,,white,square
40.0,5.0,0.5,1.0,3.0,3.0,230.9474930000306,1.0,1.0,phase_1,,,,,,,,,,,,,blue,diamond
85.0,6.0,1.0,1.0,3.0,3.0,251.2746679999509,1.0,1.0,phase_1,,,,,,,,,,,,,yellow,I
120.0,6.0,1.0,1.0,4.0,4.0,267.269375000069,1.0,1.0,phase_1,,,,,,,,,,,,,yellow,I
92.0,2.0,1.0,0.0,4.0,4.0,283.8759639998898,1.0,1.0,phase_1,,,,,,,,,,,,,gray,flipped triangle
30.0,1.0,0.5,0.0,2.0,2.0,236.249700999906,1.0,1.0,phase_1,,,,,,,,,,,,,white,square
0.0,5.0,0.0,1.0,4.0,4.0,257.1518820000165,1.0,1.0,phase_1,,,,,,,,,,,,,blue,diamond
117.0,2.0,1.0,0.0,1.0,1.0,247.2349919999033,1.0,1.0,phase_1,,,,,,,,,,,,,gray,flipped triangle
203.0,7.0,2.0,1.0,3.0,3.0,263.9864200000374,1.0,1.0,phase_1,,,,,,,,,,,,,cyan,cross
0.0,3.0,0.0,0.0,3.0,3.0,253.35812200000868,1.0,1.0,phase_1,,,,,,,,,,,,,green,circle
400.0,4.0,4.0,0.0,1.0,1.0,242.634014000032,1.0,1.0,phase_1,,,,,,,,,,,,,magenta,triangle
222.0,3.0,2.0,0.0,4.0,4.0,267.3379909999767,1.0,1.0,phase_1,,,,,,,,,,,,,green,circle
65.0,1.0,0.5,0.0,4.0,4.0,250.29051599995,1.0,1.0,phase_1,,,,,,,,,,,,,white,square
112.0,6.0,1.0,1.0,4.0,4.0,271.1472910000339,1.0,1.0,phase_1,,,,,,,,,,,,,yellow,I
63.0,5.0,0.5,1.0,4.0,4.0,312.0859370001199,1.0,1.0,phase_1,,,,,,,,,,,,,blue,diamond
87.0,2.0,1.0,0.0,3.0,3.0,265.596344999949,1.0,1.0,phase_1,,,,,,,,,,,,,gray,flipped triangle
383.0,8.0,4.0,1.0,4.0,4.0,280.5653299999449,1.0,1.0,phase_1,,,,,,,,,,,,,orange,hexagon
0.0,3.0,0.0,0.0,4.0,4.0,237.9015030001028,1.0,1.0,phase_1,,,,,,,,,,,,,green,circle
0.0,4.0,0.0,0.0,2.0,2.0,238.6490070000491,1.0,1.0,phase_1,,,,,,,,,,,,,magenta,triangle
0.0,6.0,0.0,1.0,3.0,3.0,246.4040719999047,1.0,1.0,phase_1,,,,,,,,,,,,,yellow,I
0.0,6.0,0.0,1.0,4.0,4.0,239.4685269998717,1.0,1.0,phase_1,,,,,,,,,,,,,yellow,I
79.0,2.0,1.0,0.0,1.0,1.0,250.27760699981621,1.0,1.0,phase_1,,,,,,,,,,,,,gray,flipped triangle
66.0,1.0,0.5,0.0,3.0,3.0,221.4495540001735,1.0,1.0,phase_1,,,,,,,,,,,,,white,square
224.0,7.0,2.0,1.0,4.0,4.0,246.6323400001329,1.0,1.0,phase_1,,,,,,,,,,,,,cyan,cross
120.0,2.0,1.0,0.0,3.0,3.0,245.2497349997884,1.0,1.0,phase_1,,,,,,,,,,,,,gray,flipped triangle
394.0,4.0,4.0,0.0,2.0,2.0,256.3891649999732,1.0,1.0,phase_1,,,,,,,,,,,,,magenta,triangle
82.0,6.0,1.0,1.0,1.0,1.0,294.161602000031,1.0,1.0,phase_1,,,,,,,,,,,,,yellow,I
51.0,5.0,0.5,1.0,4.0,4.0,237.983523000139,1.0,1.0,phase_1,,,,,,,,,,,,,blue,diamond
0.0,7.0,0.0,1.0,2.0,2.0,265.5431299999691,1.0,1.0,phase_1,,,,,,,,,,,,,cyan,cross
0.0,1.0,0.0,0.0,4.0,4.0,240.465395000001,1.0,1.0,phase_1,,,,,,,,,,,,,white,square
0.0,3.0,0.0,0.0,3.0,3.0,245.754356000134,1.0,1.0,phase_1,,,,,,,,,,,,,green,circle
379.0,4.0,4.0,0.0,1.0,1.0,241.3396970000576,1.0,1.0,phase_1,,,,,,,,,,,,,magenta,triangle
0.0,2.0,0.0,0.0,3.0,3.0,246.5095529998962,1.0,1.0,phase_1,,,,,,,,,,,,,gray,flipped triangle
376.0,4.0,4.0,0.0,4.0,4.0,262.1754739998323,1.0,1.0,phase_1,,,,,,,,,,,,,magenta,triangle
55.0,5.0,0.5,1.0,4.0,4.0,273.5818050000489,1.0,1.0,phase_1,,,,,,,,,,,,,blue,diamond
40.0,1.0,0.5,0.0,4.0,4.0,269.540490000054,1.0,1.0,phase_1,,,,,,,,,,,,,white,square
202.0,7.0,2.0,1.0,3.0,3.0,237.6765900000919,1.0,1.0,phase_1,,,,,,,,,,,,,cyan,cross
85.0,6.0,1.0,1.0,1.0,1.0,292.0535209998434,1.0,1.0,phase_1,,,,,,,,,,,,,yellow,I
0.0,5.0,0.0,1.0,4.0,4.0,236.63580700008418,1.0,1.0,phase_1,,,,,,,,,,,,,blue,diamond
409.0,4.0,4.0,0.0,2.0,2.0,214.9991999999656,1.0,1.0,phase_1,,,,,,,,,,,,,magenta,triangle
388.0,8.0,4.0,1.0,4.0,4.0,256.4060209999752,1.0,1.0,phase_1,,,,,,,,,,,,,orange,hexagon
123.0,6.0,1.0,1.0,4.0,4.0,243.9781919999859,1.0,1.0,phase_1,,,,,,,,,,,,,yellow,I
70.0,5.0,0.5,1.0,1.0,1.0,267.2501899999133,1.0,1.0,phase_1,,,,,,,,,,,,,blue,diamond
83.0,2.0,1.0,0.0,1.0,1.0,274.4971800000257,1.0,1.0,phase_1,,,,,,,,,,,,,gray,flipped triangle
64.0,5.0,0.5,1.0,1.0,1.0,252.97456099997362,1.0,1.0,phase_1,,,,,,,,,,,,,blue,diamond
0.0,1.0,0.0,0.0,1.0,1.0,274.671084999909,1.0,1.0,phase_1,,,,,,,,,,,,,white,square
221.0,3.0,2.0,0.0,3.0,3.0,243.3114200000545,1.0,1.0,phase_1,,,,,,,,,,,,,green,circle
78.0,2.0,1.0,0.0,3.0,3.0,276.9639840000764,1.0,1.0,phase_1,,,,,,,,,,,,,gray,flipped triangle
65.0,5.0,0.5,1.0,4.0,4.0,212.2079579999081,1.0,1.0,phase_1,,,,,,,,,,,,,blue,diamond
38.0,1.0,0.5,0.0,2.0,2.0,194.79530600006,1.0,1.0,phase_1,,,,,,,,,,,,,white,square
29.0,1.0,0.5,0.0,3.0,3.0,234.7025260000919,1.0,1.0,phase_1,,,,,,,,,,,,,white,square
381.0,8.0,4.0,1.0,3.0,3.0,262.2520689999419,1.0,1.0,phase_1,,,,,,,,,,,,,orange,hexagon
97.0,6.0,1.0,1.0,1.0,1.0,239.2137290000846,1.0,1.0,phase_1,,,,,,,,,,,,,yellow,I
101.0,2.0,1.0,0.0,1.0,1.0,310.7221689999733,1.0,1.0,phase_1,,,,,,,,,,,,,gray,flipped triangle
0.0,2.0,0.0,0.0,2.0,2.0,263.6310799998682,1.0,1.0,phase_1,,,,,,,,,,,,,gray,flipped triangle
0.0,8.0,0.0,1.0,1.0,1.0,205.7943960001012,1.0,1.0,phase_1,,,,,,,,,,,,,orange,hexagon
0.0,7.0,0.0,1.0,4.0,4.0,265.8190759998433,1.0,1.0,phase_1,,,,,,,,,,,,,cyan,cross
36.0,5.0,0.5,1.0,3.0,3.0,272.3860470000545,1.0,1.0,phase_1,,,,,,,,,,,,,blue,diamond
52.0,5.0,0.5,1.0,4.0,4.0,306.396414999881,1.0,2.0,phase_1,,,,,,,,,,,,,blue,diamond
383.0,4.0,4.0,0.0,2.0,2.0,300.9504670001206,1.0,1.0,phase_1,,,,,,,,,,,,,magenta,triangle
0.0,8.0,0.0,1.0,3.0,3.0,237.2071419999883,1.0,1.0,phase_1,,,,,,,,,,,,,orange,hexagon
181.0,7.0,2.0,1.0,3.0,3.0,263.0055089998677,1.0,1.0,phase_1,,,,,,,,,,,,,cyan,cross
85.0,2.0,1.0,0.0,3.0,3.0,377.0659029999024,1.0,1.0,phase_1,,,,,,,,,,,,,gray,flipped triangle
391.0,8.0,4.0,1.0,2.0,2.0,249.9623720000272,1.0,1.0,phase_1,,,,,,,,,,,,,orange,hexagon
424.0,8.0,4.0,1.0,3.0,3.0,242.3050070001409,1.0,1.0,phase_1,,,,,,,,,,,,,orange,hexagon
388.0,4.0,4.0,0.0,2.0,2.0,199.9858679998851,1.0,1.0,phase_1,,,,,,,,,,,,,magenta,triangle
66.0,1.0,0.5,0.0,3.0,3.0,236.0813479999706,1.0,1.0,phase_1,,,,,,,,,,,,,white,square
199.0,3.0,2.0,0.0,1.0,1.0,216.0854940000263,1.0,1.0,phase_1,,,,,,,,,,,,,green,circle
397.0,4.0,4.0,0.0,1.0,1.0,267.7609620000112,2.0,1.0,phase_1,,,,,,,,,,,,,magenta,triangle
115.0,6.0,1.0,1.0,3.0,3.0,268.0107360001784,2.0,1.0,phase_1,,,,,,,,,,,,,yellow,I
92.0,6.0,1.0,1.0,3.0,3.0,276.4047329999357,2.0,1.0,phase_1,,,,,,,,,,,,,yellow,I
378.0,8.0,4.0,1.0,3.0,3.0,244.6809190000749,2.0,1.0,phase_1,,,,,,,,,,,,,orange,hexagon
0.0,4.0,0.0,0.0,4.0,4.0,271.1790959999689,2.0,1.0,phase_1,,,,,,,,,,,,,magenta,triangle
391.0,4.0,4.0,0.0,2.0,2.0,257.7047209999819,2.0,1.0,phase_1,,,,,,,,,,,,,magenta,triangle
75.0,6.0,1.0,1.0,2.0,2.0,295.3038419998393,2.0,1.0,phase_1,,,,,,,,,,,,,yellow,I
106.0,6.0,1.0,1.0,1.0,1.0,268.1622499999321,2.0,2.0,phase_1,,,,,,,,,,,,,yellow,I
92.0,6.0,1.0,1.0,4.0,4.0,283.1403039999713,2.0,1.0,phase_1,,,,,,,,,,,,,yellow,I
0.0,1.0,0.0,0.0,1.0,1.0,261.2573629999133,2.0,1.0,phase_1,,,,,,,,,,,,,white,square
65.0,1.0,0.5,0.0,4.0,4.0,279.9805820000074,2.0,1.0,phase_1,,,,,,,,,,,,,white,square
192.0,7.0,2.0,1.0,3.0,3.0,310.4236629999377,2.0,2.0,phase_1,,,,,,,,,,,,,cyan,cross
409.0,8.0,4.0,1.0,1.0,1.0,367.086393999898,2.0,1.0,phase_1,,,,,,,,,,,,,orange,hexagon
189.0,7.0,2.0,1.0,2.0,2.0,267.7580479999051,2.0,1.0,phase_1,,,,,,,,,,,,,cyan,cross
204.0,7.0,2.0,1.0,4.0,4.0,284.1794529999788,2.0,1.0,phase_1,,,,,,,,,,,,,cyan,cross
0.0,1.0,0.0,0.0,4.0,4.0,270.3592509999453,2.0,1.0,phase_1,,,,,,,,,,,,,white,square
114.0,6.0,1.0,1.0,2.0,2.0,268.9394239998819,2.0,1.0,phase_1,,,,,,,,,,,,,yellow,I
421.0,4.0,4.0,0.0,3.0,3.0,267.6362019999487,2.0,1.0,phase_1,,,,,,,,,,,,,magenta,triangle
82.0,2.0,1.0,0.0,2.0,2.0,270.8599079999203,2.0,1.0,phase_1,,,,,,,,,,,,,gray,flipped triangle
0.0,4.0,0.0,0.0,1.0,1.0,285.7065170001078,2.0,1.0,phase_1,,,,,,,,,,,,,magenta,triangle
104.0,2.0,1.0,0.0,2.0,2.0,325.079536999965,2.0,1.0,phase_1,,,,,,,,,,,,,gray,flipped triangle
65.0,1.0,0.5,0.0,4.0,4.0,269.3795800000771,2.0,1.0,phase_1,,,,,,,,,,,,,white,square
185.0,3.0,2.0,0.0,3.0,3.0,279.4476850001501,2.0,1.0,phase_1,,,,,,,,,,,,,green,circle
70.0,1.0,0.5,0.0,1.0,1.0,280.8314359999713,2.0,1.0,phase_1,,,,,,,,,,,,,white,square
44.0,5.0,0.5,1.0,2.0,2.0,247.4553240001569,2.0,1.0,phase_1,,,,,,,,,,,,,blue,diamond
0.0,3.0,0.0,0.0,2.0,2.0,279.7067740000329,2.0,1.0,phase_1,,,,,,,,,,,,,green,circle
85.0,2.0,1.0,0.0,4.0,4.0,274.041089000093,2.0,1.0,phase_1,,,,,,,,,,,,,gray,flipped triangle
0.0,6.0,0.0,1.0,4.0,4.0,278.9033740000377,2.0,1.0,phase_1,,,,,,,,,,,,,yellow,I
221.0,7.0,2.0,1.0,2.0,2.0,250.75158399999958,2.0,1.0,phase_1,,,,,,,,,,,,,cyan,cross
380.0,4.0,4.0,0.0,2.0,2.0,251.34592499989589,2.0,1.0,phase_1,,,,,,,,,,,,,magenta,triangle
55.0,1.0,0.5,0.0,1.0,1.0,260.0841230000696,2.0,1.0,phase_1,,,,,,,,,,,,,white,square
33.0,1.0,0.5,0.0,1.0,1.0,276.0058099997877,2.0,1.0,phase_1,,,,,,,,,,,,,white,square
181.0,3.0,2.0,0.0,4.0,4.0,259.2206900001201,2.0,1.0,phase_1,,,,,,,,,,,,,green,circle
0.0,4.0,0.0,0.0,1.0,1.0,264.7551109998858,2.0,1.0,phase_1,,,,,,,,,,,,,magenta,triangle
0.0,2.0,0.0,0.0,1.0,1.0,263.468906000071,2.0,2.0,phase_1,,,,,,,,,,,,,gray,flipped triangle
188.0,7.0,2.0,1.0,4.0,4.0,317.0875600001182,2.0,1.0,phase_1,,,,,,,,,,,,,cyan,cross
0.0,3.0,0.0,0.0,2.0,2.0,228.3332310000787,2.0,1.0,phase_1,,,,,,,,,,,,,green,circle
86.0,2.0,1.0,0.0,1.0,1.0,274.8551279998992,2.0,1.0,phase_1,,,,,,,,,,,,,gray,flipped triangle
412.0,8.0,4.0,1.0,2.0,2.0,230.0382170001285,2.0,1.0,phase_1,,,,,,,,,,,,,orange,hexagon
0.0,5.0,0.0,1.0,3.0,3.0,271.8447639999795,2.0,1.0,phase_1,,,,,,,,,,,,,blue,diamond
411.0,8.0,4.0,1.0,1.0,1.0,235.7904120001421,2.0,1.0,phase_1,,,,,,,,,,,,,orange,hexagon
71.0,1.0,0.5,0.0,1.0,1.0,300.9249930000806,2.0,1.0,phase_1,,,,,,,,,,,,,white,square
60.0,1.0,0.5,0.0,2.0,2.0,290.9618370001681,2.0,1.0,phase_1,,,,,,,,,,,,,white,square
192.0,3.0,2.0,0.0,3.0,3.0,305.195440000034,2.0,1.0,phase_1,,,,,,,,,,,,,green,circle
0.0,5.0,0.0,1.0,1.0,1.0,281.8999429998712,2.0,1.0,phase_1,,,,,,,,,,,,,blue,diamond
0.0,1.0,0.0,0.0,1.0,1.0,311.5297979998104,2.0,1.0,phase_1,,,,,,,,,,,,,white,square
377.0,8.0,4.0,1.0,3.0,3.0,328.6733590000494,2.0,1.0,phase_1,,,,,,,,,,,,,orange,hexagon
32.0,1.0,0.5,0.0,2.0,2.0,265.0131339999007,2.0,1.0,phase_1,,,,,,,,,,,,,white,square
123.0,6.0,1.0,1.0,4.0,4.0,290.9412609999435,2.0,1.0,phase_1,,,,,,,,,,,,,yellow,I
57.0,1.0,0.5,0.0,3.0,3.0,274.257119999902,2.0,1.0,phase_1,,,,,,,,,,,,,white,square
55.0,5.0,0.5,1.0,2.0,2.0,260.6034549999094,2.0,1.0,phase_1,,,,,,,,,,,,,blue,diamond
0.0,8.0,0.0,1.0,1.0,1.0,239.9537290000353,2.0,1.0,phase_1,,,,,,,,,,,,,orange,hexagon
397.0,4.0,4.0,0.0,4.0,4.0,288.8849729999947,2.0,1.0,phase_1,,,,,,,,,,,,,magenta,triangle
34.0,1.0,0.5,0.0,2.0,2.0,203.2961959998829,2.0,1.0,phase_1,,,,,,,,,,,,,white,square
0.0,6.0,0.0,1.0,2.0,2.0,253.8798579998911,2.0,1.0,phase_1,,,,,,,,,,,,,yellow,I
0.0,1.0,0.0,0.0,3.0,3.0,285.7686799998191,2.0,1.0,phase_1,,,,,,,,,,,,,white,square
47.0,1.0,0.5,0.0,1.0,1.0,274.3184920000203,2.0,1.0,phase_1,,,,,,,,,,,,,white,square
201.0,7.0,2.0,1.0,1.0,1.0,279.9468289999822,2.0,1.0,phase_1,,,,,,,,,,,,,cyan,cross
175.0,3.0,2.0,0.0,4.0,4.0,310.4157300001589,2.0,1.0,phase_1,,,,,,,,,,,,,green,circle
175.0,7.0,2.0,1.0,1.0,1.0,272.9388400000516,2.0,1.0,phase_1,,,,,,,,,,,,,cyan,cross
417.0,8.0,4.0,1.0,4.0,4.0,286.3564030001271,2.0,1.0,phase_1,,,,,,,,,,,,,orange,hexagon
91.0,2.0,1.0,0.0,3.0,3.0,283.8716589999421,2.0,1.0,phase_1,,,,,,,,,,,,,gray,flipped triangle
0.0,4.0,0.0,0.0,4.0,4.0,289.8855839998759,2.0,1.0,phase_1,,,,,,,,,,,,,magenta,triangle
55.0,1.0,0.5,0.0,1.0,1.0,237.2467430000142,2.0,1.0,phase_1,,,,,,,,,,,,,white,square
176.0,3.0,2.0,0.0,3.0,3.0,281.6586729998107,2.0,1.0,phase_1,,,,,,,,,,,,,green,circle
0.0,2.0,0.0,0.0,3.0,3.0,264.3834959999367,2.0,1.0,phase_1,,,,,,,,,,,,,gray,flipped triangle
115.0,2.0,1.0,0.0,2.0,2.0,250.8623159999388,2.0,1.0,phase_1,,,,,,,,,,,,,gray,flipped triangle
420.0,4.0,4.0,0.0,3.0,3.0,239.787600999989,2.0,1.0,phase_1,,,,,,,,,,,,,magenta,triangle
125.0,2.0,1.0,0.0,3.0,3.0,290.790675999915,2.0,1.0,phase_1,,,,,,,,,,,,,gray,flipped triangle
421.0,8.0,4.0,1.0,1.0,1.0,241.1659470001268,2.0,1.0,phase_1,,,,,,,,,,,,,orange,hexagon
0.0,1.0,0.0,0.0,4.0,4.0,247.8580219999457,2.0,1.0,phase_1,,,,,,,,,,,,,white,square
381.0,4.0,4.0,0.0,4.0,4.0,284.3627359998208,2.0,1.0,phase_1,,,,,,,,,,,,,magenta,triangle
205.0,7.0,2.0,1.0,4.0,4.0,273.3654389999174,2.0,1.0,phase_1,,,,,,,,,,,,,cyan,cross
0.0,4.0,0.0,0.0,3.0,3.0,250.53302799983612,2.0,1.0,phase_1,,,,,,,,,,,,,magenta,triangle
224.0,3.0,2.0,0.0,1.0,1.0,259.0923810000731,2.0,1.0,phase_1,,,,,,,,,,,,,green,circle
39.0,5.0,0.5,1.0,3.0,3.0,236.9116129998474,2.0,1.0,phase_1,,,,,,,,,,,,,blue,diamond
398.0,8.0,4.0,1.0,3.0,3.0,309.3981130000429,2.0,1.0,phase_1,,,,,,,,,,,,,orange,hexagon
66.0,5.0,0.5,1.0,1.0,1.0,276.0279610001817,2.0,1.0,phase_1,,,,,,,,,,,,,blue,diamond
47.0,5.0,0.5,1.0,2.0,2.0,264.0204330000415,2.0,1.0,phase_1,,,,,,,,,,,,,blue,diamond
221.0,7.0,2.0,1.0,3.0,3.0,275.1817280000068,2.0,1.0,phase_1,,,,,,,,,,,,,cyan,cross
200.0,3.0,2.0,0.0,2.0,2.0,237.045493000096,2.0,1.0,phase_1,,,,,,,,,,,,,green,circle
114.0,2.0,1.0,0.0,2.0,2.0,301.158272000066,2.0,1.0,phase_1,,,,,,,,,,,,,gray,flipped triangle
398.0,4.0,4.0,0.0,1.0,1.0,243.3726790000037,2.0,1.0,phase_1,,,,,,,,,,,,,magenta,triangle
55.0,1.0,0.5,0.0,1.0,1.0,280.6390550001651,2.0,1.0,phase_1,,,,,,,,,,,,,white,square
70.0,5.0,0.5,1.0,2.0,2.0,246.775757000023,2.0,1.0,phase_1,,,,,,,,,,,,,blue,diamond
409.0,4.0,4.0,0.0,2.0,2.0,227.0906869998725,2.0,1.0,phase_1,,,,,,,,,,,,,magenta,triangle
408.0,4.0,4.0,0.0,3.0,3.0,254.97253799994718,2.0,1.0,phase_1,,,,,,,,,,,,,magenta,triangle
0.0,7.0,0.0,1.0,3.0,3.0,273.7760950001302,2.0,1.0,phase_1,,,,,,,,,,,,,cyan,cross
96.0,6.0,1.0,1.0,4.0,4.0,324.7896870000204,2.0,1.0,phase_1,,,,,,,,,,,,,yellow,I
379.0,8.0,4.0,1.0,2.0,2.0,336.9439250000141,2.0,2.0,phase_1,,,,,,,,,,,,,orange,hexagon
385.0,4.0,4.0,0.0,3.0,3.0,275.9556130001783,2.0,1.0,phase_1,,,,,,,,,,,,,magenta,triangle
116.0,2.0,1.0,0.0,4.0,4.0,360.594158999902,2.0,1.0,phase_1,,,,,,,,,,,,,gray,flipped triangle
112.0,6.0,1.0,1.0,2.0,2.0,266.1710719999064,2.0,1.0,phase_1,,,,,,,,,,,,,yellow,I
417.0,4.0,4.0,0.0,3.0,3.0,322.2662460000265,2.0,1.0,phase_1,,,,,,,,,,,,,magenta,triangle
213.0,7.0,2.0,1.0,1.0,1.0,232.3389220000535,2.0,1.0,phase_1,,,,,,,,,,,,,cyan,cross
0.0,2.0,0.0,0.0,1.0,1.0,278.7825749999228,2.0,1.0,phase_1,,,,,,,,,,,,,gray,flipped triangle
419.0,4.0,4.0,0.0,4.0,4.0,275.03452499991,2.0,1.0,phase_1,,,,,,,,,,,,,magenta,triangle
0.0,8.0,0.0,1.0,2.0,2.0,288.6145879999731,2.0,1.0,phase_1,,,,,,,,,,,,,orange,hexagon
65.0,5.0,0.5,1.0,1.0,1.0,304.0129930000148,2.0,1.0,phase_1,,,,,,,,,,,,,blue,diamond
79.0,6.0,1.0,1.0,4.0,4.0,296.0891369998535,2.0,2.0,phase_1,,,,,,,,,,,,,yellow,I
107.0,2.0,1.0,0.0,4.0,4.0,514.6586319999642,3.0,1.0,phase_1,,,,,,,,,,,,,gray,flipped triangle
115.0,2.0,1.0,0.0,1.0,1.0,363.7200580001263,3.0,1.0,phase_1,,,,,,,,,,,,,gray,flipped triangle
221.0,7.0,2.0,1.0,2.0,2.0,339.9520949999441,3.0,1.0,phase_1,,,,,,,,,,,,,cyan,cross
0.0,5.0,0.0,1.0,2.0,2.0,261.4186799999061,3.0,1.0,phase_1,,,,,,,,,,,,,blue,diamond
0.0,7.0,0.0,1.0,2.0,2.0,274.5661989999917,3.0,1.0,phase_1,,,,,,,,,,,,,cyan,cross
206.0,7.0,2.0,1.0,1.0,1.0,260.1819649999015,3.0,1.0,phase_1,,,,,,,,,,,,,cyan,cross
115.0,6.0,1.0,1.0,2.0,2.0,284.4214489998649,3.0,1.0,phase_1,,,,,,,,,,,,,yellow,I
75.0,2.0,1.0,0.0,2.0,2.0,273.3500330000424,3.0,1.0,phase_1,,,,,,,,,,,,,gray,flipped triangle
425.0,8.0,4.0,1.0,1.0,1.0,226.9331930001499,3.0,1.0,phase_1,,,,,,,,,,,,,orange,hexagon
0.0,2.0,0.0,0.0,3.0,3.0,295.1728150001145,3.0,1.0,phase_1,,,,,,,,,,,,,gray,flipped triangle
29.0,5.0,0.5,1.0,3.0,3.0,337.970906999999,3.0,2.0,phase_1,,,,,,,,,,,,,blue,diamond
204.0,3.0,2.0,0.0,1.0,1.0,272.0887329999186,3.0,1.0,phase_1,,,,,,,,,,,,,green,circle
377.0,4.0,4.0,0.0,4.0,4.0,366.2254160001339,3.0,1.0,phase_1,,,,,,,,,,,,,magenta,triangle
112.0,2.0,1.0,0.0,4.0,4.0,315.1735399999325,3.0,1.0,phase_1,,,,,,,,,,,,,gray,flipped triangle
0.0,4.0,0.0,0.0,4.0,4.0,302.0214650000525,3.0,1.0,phase_1,,,,,,,,,,,,,magenta,triangle
383.0,4.0,4.0,0.0,2.0,2.0,254.12613599996797,3.0,1.0,phase_1,,,,,,,,,,,,,magenta,triangle
201.0,3.0,2.0,0.0,3.0,3.0,269.0593239999543,3.0,1.0,phase_1,,,,,,,,,,,,,green,circle
64.0,1.0,0.5,0.0,1.0,1.0,244.7364429999652,3.0,1.0,phase_1,,,,,,,,,,,,,white,square
0.0,6.0,0.0,1.0,4.0,4.0,251.8222609999156,3.0,1.0,phase_1,,,,,,,,,,,,,yellow,I
65.0,5.0,0.5,1.0,2.0,2.0,251.478120999991,3.0,1.0,phase_1,,,,,,,,,,,,,blue,diamond
78.0,2.0,1.0,0.0,1.0,1.0,299.0623449998111,3.0,1.0,phase_1,,,,,,,,,,,,,gray,flipped triangle
107.0,6.0,1.0,1.0,2.0,2.0,248.4955810000428,3.0,1.0,phase_1,,,,,,,,,,,,,yellow,I
189.0,3.0,2.0,0.0,2.0,2.0,268.9541170000211,3.0,1.0,phase_1,,,,,,,,,,,,,green,circle
190.0,3.0,2.0,0.0,2.0,2.0,360.4725190000408,3.0,1.0,phase_1,,,,,,,,,,,,,green,circle
0.0,5.0,0.0,1.0,2.0,2.0,272.8222920000007,3.0,1.0,phase_1,,,,,,,,,,,,,blue,diamond
34.0,5.0,0.5,1.0,4.0,4.0,408.2503880003969,3.0,2.0,phase_1,,,,,,,,,,,,,blue,diamond
123.0,2.0,1.0,0.0,3.0,3.0,380.7776610001383,3.0,1.0,phase_1,,,,,,,,,,,,,gray,flipped triangle
50.0,5.0,0.5,1.0,3.0,3.0,352.1386799998254,3.0,1.0,phase_1,,,,,,,,,,,,,blue,diamond
33.0,5.0,0.5,1.0,4.0,4.0,413.0959179997262,3.0,1.0,phase_1,,,,,,,,,,,,,blue,diamond
0.0,3.0,0.0,0.0,3.0,3.0,345.4129990000183,3.0,1.0,phase_1,,,,,,,,,,,,,green,circle
0.0,7.0,0.0,1.0,3.0,3.0,302.4266899997201,3.0,1.0,phase_1,,,,,,,,,,,,,cyan,cross
190.0,7.0,2.0,1.0,3.0,3.0,379.5463920000657,3.0,1.0,phase_1,,,,,,,,,,,,,cyan,cross
181.0,7.0,2.0,1.0,1.0,1.0,313.403670000298,3.0,2.0,phase_1,,,,,,,,,,,,,cyan,cross
213.0,3.0,2.0,0.0,2.0,2.0,299.0365989999191,3.0,1.0,phase_1,,,,,,,,,,,,,green,circle
125.0,6.0,1.0,1.0,4.0,4.0,333.2249550003325,3.0,1.0,phase_1,,,,,,,,,,,,,yellow,I
0.0,3.0,0.0,0.0,3.0,3.0,372.2474599999259,3.0,1.0,phase_1,,,,,,,,,,,,,green,circle
0.0,5.0,0.0,1.0,3.0,3.0,305.0405620001584,3.0,1.0,phase_1,,,,,,,,,,,,,blue,diamond
423.0,8.0,4.0,1.0,2.0,2.0,295.4455159997451,3.0,1.0,phase_1,,,,,,,,,,,,,orange,hexagon
385.0,4.0,4.0,0.0,4.0,4.0,402.6343760001509,3.0,1.0,phase_1,,,,,,,,,,,,,magenta,triangle
421.0,4.0,4.0,0.0,3.0,3.0,513.893102000111,3.0,1.0,phase_1,,,,,,,,,,,,,magenta,triangle
112.0,6.0,1.0,1.0,3.0,3.0,352.3454050000509,3.0,1.0,phase_1,,,,,,,,,,,,,yellow,I
112.0,2.0,1.0,0.0,4.0,4.0,290.805784999975,3.0,1.0,phase_1,,,,,,,,,,,,,gray,flipped triangle
215.0,3.0,2.0,0.0,3.0,3.0,345.2506070002528,3.0,1.0,phase_1,,,,,,,,,,,,,green,circle
199.0,7.0,2.0,1.0,2.0,2.0,333.2100559996434,3.0,1.0,phase_1,,,,,,,,,,,,,cyan,cross
38.0,5.0,0.5,1.0,4.0,4.0,292.0424290000483,3.0,1.0,phase_1,,,,,,,,,,,,,blue,diamond
188.0,3.0,2.0,0.0,4.0,4.0,368.9516960002947,3.0,1.0,phase_1,,,,,,,,,,,,,green,circle
218.0,7.0,2.0,1.0,2.0,2.0,250.4825810001421,3.0,1.0,phase_1,,,,,,,,,,,,,cyan,cross
200.0,3.0,2.0,0.0,1.0,1.0,281.1048900002788,3.0,1.0,phase_1,,,,,,,,,,,,,green,circle
123.0,2.0,1.0,0.0,1.0,1.0,308.8842570000452,3.0,1.0,phase_1,,,,,,,,,,,,,gray,flipped triangle
38.0,1.0,0.5,0.0,2.0,2.0,291.3363559996469,3.0,1.0,phase_1,,,,,,,,,,,,,white,square
93.0,6.0,1.0,1.0,3.0,3.0,259.9201170000924,3.0,1.0,phase_1,,,,,,,,,,,,,yellow,I
94.0,6.0,1.0,1.0,3.0,3.0,257.3224860002483,3.0,1.0,phase_1,,,,,,,,,,,,,yellow,I
57.0,5.0,0.5,1.0,4.0,4.0,293.3847869999226,3.0,1.0,phase_1,,,,,,,,,,,,,blue,diamond
0.0,2.0,0.0,0.0,1.0,1.0,290.3260550001505,3.0,1.0,phase_1,,,,,,,,,,,,,gray,flipped triangle
47.0,1.0,0.5,0.0,2.0,2.0,238.6132169999655,3.0,1.0,phase_1,,,,,,,,,,,,,white,square
412.0,8.0,4.0,1.0,3.0,3.0,297.865000999991,3.0,1.0,phase_1,,,,,,,,,,,,,orange,hexagon
25.0,5.0,0.5,1.0,3.0,3.0,280.1121130000865,3.0,1.0,phase_1,,,,,,,,,,,,,blue,diamond
0.0,8.0,0.0,1.0,1.0,1.0,228.825384999709,3.0,1.0,phase_1,,,,,,,,,,,,,orange,hexagon
190.0,3.0,2.0,0.0,1.0,1.0,342.2534269998323,3.0,1.0,phase_1,,,,,,,,,,,,,green,circle
388.0,4.0,4.0,0.0,1.0,1.0,329.6155060002093,3.0,1.0,phase_1,,,,,,,,,,,,,magenta,triangle
34.0,5.0,0.5,1.0,3.0,3.0,348.9572439998483,3.0,2.0,phase_1,,,,,,,,,,,,,blue,diamond
44.0,1.0,0.5,0.0,4.0,4.0,345.3901359998781,3.0,1.0,phase_1,,,,,,,,,,,,,white,square
176.0,7.0,2.0,1.0,2.0,2.0,289.6226050002042,3.0,1.0,phase_1,,,,,,,,,,,,,cyan,cross
83.0,6.0,1.0,1.0,3.0,3.0,285.8594059998722,3.0,1.0,phase_1,,,,,,,,,,,,,yellow,I
64.0,1.0,0.5,0.0,3.0,3.0,324.9506719998862,3.0,2.0,phase_1,,,,,,,,,,,,,white,square
394.0,8.0,4.0,1.0,4.0,4.0,470.0581790002616,3.0,1.0,phase_1,,,,,,,,,,,,,orange,hexagon
0.0,3.0,0.0,0.0,2.0,2.0,292.6679120000699,3.0,1.0,phase_1,,,,,,,,,,,,,green,circle
60.0,5.0,0.5,1.0,2.0,2.0,346.7709710002964,3.0,1.0,phase_1,,,,,,,,,,,,,blue,diamond
56.0,5.0,0.5,1.0,1.0,1.0,348.3890110001084,3.0,1.0,phase_1,,,,,,,,,,,,,blue,diamond
115.0,2.0,1.0,0.0,2.0,2.0,271.8536439997479,3.0,1.0,phase_1,,,,,,,,,,,,,gray,flipped triangle
0.0,1.0,0.0,0.0,3.0,3.0,312.0116610002696,3.0,1.0,phase_1,,,,,,,,,,,,,white,square
376.0,8.0,4.0,1.0,2.0,2.0,351.6965650001111,3.0,1.0,phase_1,,,,,,,,,,,,,orange,hexagon
222.0,7.0,2.0,1.0,1.0,1.0,296.9161510000049,3.0,1.0,phase_1,,,,,,,,,,,,,cyan,cross
379.0,4.0,4.0,0.0,4.0,4.0,321.3829280002755,3.0,1.0,phase_1,,,,,,,,,,,,,magenta,triangle
0.0,5.0,0.0,1.0,2.0,2.0,278.5070529998847,3.0,1.0,phase_1,,,,,,,,,,,,,blue,diamond
104.0,6.0,1.0,1.0,2.0,2.0,252.7218840000387,3.0,1.0,phase_1,,,,,,,,,,,,,yellow,I
221.0,3.0,2.0,0.0,1.0,1.0,280.4032809999626,3.0,1.0,phase_1,,,,,,,,,,,,,green,circle
178.0,7.0,2.0,1.0,4.0,4.0,319.947871000295,3.0,1.0,phase_1,,,,,,,,,,,,,cyan,cross
40.0,5.0,0.5,1.0,3.0,3.0,283.7503270002344,3.0,1.0,phase_1,,,,,,,,,,,,,blue,diamond
115.0,6.0,1.0,1.0,1.0,1.0,293.0825729999924,3.0,1.0,phase_1,,,,,,,,,,,,,yellow,I
385.0,8.0,4.0,1.0,4.0,4.0,301.0720029997173,3.0,1.0,phase_1,,,,,,,,,,,,,orange,hexagon
0.0,7.0,0.0,1.0,1.0,1.0,292.9202440000154,3.0,1.0,phase_1,,,,,,,,,,,,,cyan,cross
205.0,3.0,2.0,0.0,4.0,4.0,281.898208000257,3.0,1.0,phase_1,,,,,,,,,,,,,green,circle
206.0,7.0,2.0,1.0,3.0,3.0,282.9468049999377,3.0,1.0,phase_1,,,,,,,,,,,,,cyan,cross
196.0,3.0,2.0,0.0,2.0,2.0,306.2776500000836,3.0,1.0,phase_1,,,,,,,,,,,,,green,circle
38.0,5.0,0.5,1.0,2.0,2.0,294.4595320000189,3.0,1.0,phase_1,,,,,,,,,,,,,blue,diamond
408.0,8.0,4.0,1.0,4.0,4.0,282.8640739999173,3.0,2.0,phase_1,,,,,,,,,,,,,orange,hexagon
45.0,1.0,0.5,0.0,1.0,1.0,289.8687709998739,3.0,1.0,phase_1,,,,,,,,,,,,,white,square
121.0,2.0,1.0,0.0,4.0,4.0,362.2692910003025,3.0,1.0,phase_1,,,,,,,,,,,,,gray,flipped triangle
78.0,6.0,1.0,1.0,2.0,2.0,240.1768099998662,3.0,1.0,phase_1,,,,,,,,,,,,,yellow,I
400.0,8.0,4.0,1.0,3.0,3.0,345.6247570002233,3.0,1.0,phase_1,,,,,,,,,,,,,orange,hexagon
202.0,3.0,2.0,0.0,2.0,2.0,250.6208089998836,3.0,1.0,phase_1,,,,,,,,,,,,,green,circle
421.0,8.0,4.0,1.0,1.0,1.0,283.7237879998611,3.0,1.0,phase_1,,,,,,,,,,,,,orange,hexagon
412.0,4.0,4.0,0.0,3.0,3.0,352.884670000094,3.0,1.0,phase_1,,,,,,,,,,,,,magenta,triangle
0.0,4.0,0.0,0.0,1.0,1.0,292.9682009998942,3.0,1.0,phase_1,,,,,,,,,,,,,magenta,triangle
39.0,1.0,0.5,0.0,4.0,4.0,289.3033099999229,3.0,1.0,phase_1,,,,,,,,,,,,,white,square
55.0,5.0,0.5,1.0,3.0,3.0,286.2771949999114,3.0,1.0,phase_1,,,,,,,,,,,,,blue,diamond
380.0,8.0,4.0,1.0,3.0,3.0,288.6893189997863,3.0,1.0,phase_1,,,,,,,,,,,,,orange,hexagon
207.0,3.0,2.0,0.0,1.0,1.0,289.1314780003995,3.0,1.0,phase_1,,,,,,,,,,,,,green,circle
383.0,8.0,4.0,1.0,3.0,3.0,297.0411910000621,3.0,1.0,phase_1,,,,,,,,,,,,,orange,hexagon
71.0,5.0,0.5,1.0,3.0,3.0,377.7141629998368,4.0,1.0,phase_1,,,,,,,,,,,,,blue,diamond
183.0,3.0,2.0,0.0,4.0,4.0,314.2174780000459,4.0,1.0,phase_1,,,,,,,,,,,,,green,circle
409.0,8.0,4.0,1.0,1.0,1.0,237.3125849999269,4.0,1.0,phase_1,,,,,,,,,,,,,orange,hexagon
0.0,2.0,0.0,0.0,2.0,2.0,284.3427259999771,4.0,1.0,phase_1,,,,,,,,,,,,,gray,flipped triangle
87.0,6.0,1.0,1.0,3.0,3.0,269.7678680001445,4.0,1.0,phase_1,,,,,,,,,,,,,yellow,I
415.0,8.0,4.0,1.0,2.0,2.0,231.3201650003975,4.0,1.0,phase_1,,,,,,,,,,,,,orange,hexagon
178.0,3.0,2.0,0.0,4.0,4.0,384.7123919999831,4.0,1.0,phase_1,,,,,,,,,,,,,green,circle
64.0,5.0,0.5,1.0,1.0,1.0,239.88132400018,4.0,1.0,phase_1,,,,,,,,,,,,,blue,diamond
416.0,4.0,4.0,0.0,1.0,1.0,289.6520350000173,4.0,1.0,phase_1,,,,,,,,,,,,,magenta,triangle
207.0,7.0,2.0,1.0,3.0,3.0,264.7082219996264,4.0,1.0,phase_1,,,,,,,,,,,,,cyan,cross
412.0,4.0,4.0,0.0,1.0,1.0,266.4232319998518,4.0,1.0,phase_1,,,,,,,,,,,,,magenta,triangle
0.0,3.0,0.0,0.0,1.0,1.0,273.507532000167,4.0,1.0,phase_1,,,,,,,,,,,,,green,circle
0.0,1.0,0.0,0.0,4.0,4.0,306.1905399999887,4.0,1.0,phase_1,,,,,,,,,,,,,white,square
30.0,1.0,0.5,0.0,1.0,1.0,274.7739070000534,4.0,1.0,phase_1,,,,,,,,,,,,,white,square
423.0,4.0,4.0,0.0,4.0,4.0,302.1955630001685,4.0,1.0,phase_1,,,,,,,,,,,,,magenta,triangle
45.0,5.0,0.5,1.0,1.0,1.0,238.3523160001459,4.0,1.0,phase_1,,,,,,,,,,,,,blue,diamond
112.0,2.0,1.0,0.0,2.0,2.0,239.943562999997,4.0,1.0,phase_1,,,,,,,,,,,,,gray,flipped triangle
175.0,3.0,2.0,0.0,4.0,4.0,324.6464529997865,4.0,1.0,phase_1,,,,,,,,,,,,,green,circle
0.0,7.0,0.0,1.0,3.0,3.0,323.7805750000007,4.0,1.0,phase_1,,,,,,,,,,,,,cyan,cross
0.0,7.0,0.0,1.0,4.0,4.0,286.0833180002373,4.0,1.0,phase_1,,,,,,,,,,,,,cyan,cross
0.0,6.0,0.0,1.0,3.0,3.0,278.576995000094,4.0,1.0,phase_1,,,,,,,,,,,,,yellow,I
221.0,3.0,2.0,0.0,3.0,3.0,265.8370829999512,4.0,1.0,phase_1,,,,,,,,,,,,,green,circle
70.0,1.0,0.5,0.0,3.0,3.0,278.6069789999601,4.0,1.0,phase_1,,,,,,,,,,,,,white,square
121.0,6.0,1.0,1.0,3.0,3.0,257.4684680002974,4.0,1.0,phase_1,,,,,,,,,,,,,yellow,I
388.0,8.0,4.0,1.0,1.0,1.0,209.3825130000368,4.0,1.0,phase_1,,,,,,,,,,,,,orange,hexagon
0.0,5.0,0.0,1.0,2.0,2.0,218.8651850001406,4.0,1.0,phase_1,,,,,,,,,,,,,blue,diamond
0.0,7.0,0.0,1.0,2.0,2.0,228.6795310001252,4.0,1.0,phase_1,,,,,,,,,,,,,cyan,cross
383.0,8.0,4.0,1.0,2.0,2.0,278.4584250002808,4.0,1.0,phase_1,,,,,,,,,,,,,orange,hexagon
0.0,5.0,0.0,1.0,4.0,4.0,260.4445960000703,4.0,1.0,phase_1,,,,,,,,,,,,,blue,diamond
44.0,5.0,0.5,1.0,2.0,2.0,254.58206699977382,4.0,1.0,phase_1,,,,,,,,,,,,,blue,diamond
214.0,7.0,2.0,1.0,1.0,1.0,199.1925310003353,4.0,1.0,phase_1,,,,,,,,,,,,,cyan,cross
78.0,6.0,1.0,1.0,1.0,1.0,293.0313030001343,4.0,1.0,phase_1,,,,,,,,,,,,,yellow,I
50.0,1.0,0.5,0.0,3.0,3.0,237.3786719999771,4.0,1.0,phase_1,,,,,,,,,,,,,white,square
215.0,7.0,2.0,1.0,2.0,2.0,271.0496690001491,4.0,1.0,phase_1,,,,,,,,,,,,,cyan,cross
63.0,1.0,0.5,0.0,3.0,3.0,254.82025800010888,4.0,1.0,phase_1,,,,,,,,,,,,,white,square
0.0,1.0,0.0,0.0,1.0,1.0,234.0531530003318,4.0,1.0,phase_1,,,,,,,,,,,,,white,square
379.0,8.0,4.0,1.0,1.0,1.0,244.6967020000556,4.0,1.0,phase_1,,,,,,,,,,,,,orange,hexagon
97.0,2.0,1.0,0.0,2.0,2.0,254.733954999665,4.0,1.0,phase_1,,,,,,,,,,,,,gray,flipped triangle
100.0,6.0,1.0,1.0,1.0,1.0,280.7835929997964,4.0,1.0,phase_1,,,,,,,,,,,,,yellow,I
36.0,1.0,0.5,0.0,3.0,3.0,217.5978380000742,4.0,1.0,phase_1,,,,,,,,,,,,,white,square
115.0,6.0,1.0,1.0,2.0,2.0,205.0566029997753,4.0,1.0,phase_1,,,,,,,,,,,,,yellow,I
47.0,5.0,0.5,1.0,1.0,1.0,310.250024999732,4.0,1.0,phase_1,,,,,,,,,,,,,blue,diamond
0.0,3.0,0.0,0.0,1.0,1.0,314.6353069996621,4.0,1.0,phase_1,,,,,,,,,,,,,green,circle
0.0,6.0,0.0,1.0,4.0,4.0,291.4782550001291,4.0,1.0,phase_1,,,,,,,,,,,,,yellow,I
215.0,7.0,2.0,1.0,2.0,2.0,206.352350999623,4.0,1.0,phase_1,,,,,,,,,,,,,cyan,cross
395.0,8.0,4.0,1.0,2.0,2.0,247.1053280000887,4.0,1.0,phase_1,,,,,,,,,,,,,orange,hexagon
196.0,7.0,2.0,1.0,1.0,1.0,196.5460780002104,4.0,1.0,phase_1,,,,,,,,,,,,,cyan,cross
0.0,8.0,0.0,1.0,3.0,3.0,250.3722010001183,4.0,1.0,phase_1,,,,,,,,,,,,,orange,hexagon
203.0,3.0,2.0,0.0,3.0,3.0,252.0467619997362,4.0,1.0,phase_1,,,,,,,,,,,,,green,circle
0.0,2.0,0.0,0.0,4.0,4.0,306.0864919998494,4.0,1.0,phase_1,,,,,,,,,,,,,gray,flipped triangle
393.0,4.0,4.0,0.0,3.0,3.0,274.5112090001385,4.0,2.0,phase_1,,,,,,,,,,,,,magenta,triangle
115.0,2.0,1.0,0.0,1.0,1.0,266.6038649999791,4.0,1.0,phase_1,,,,,,,,,,,,,gray,flipped triangle
101.0,6.0,1.0,1.0,2.0,2.0,258.6873699997341,4.0,1.0,phase_1,,,,,,,,,,,,,yellow,I
185.0,7.0,2.0,1.0,4.0,4.0,254.5293759999367,4.0,1.0,phase_1,,,,,,,,,,,,,cyan,cross
393.0,8.0,4.0,1.0,1.0,1.0,262.4596509999719,4.0,1.0,phase_1,,,,,,,,,,,,,orange,hexagon
93.0,2.0,1.0,0.0,4.0,4.0,290.8746059997611,4.0,1.0,phase_1,,,,,,,,,,,,,gray,flipped triangle
383.0,4.0,4.0,0.0,2.0,2.0,317.5144020001426,4.0,2.0,phase_1,,,,,,,,,,,,,magenta,triangle
424.0,4.0,4.0,0.0,4.0,4.0,352.4345000000721,4.0,1.0,phase_1,,,,,,,,,,,,,magenta,triangle
416.0,8.0,4.0,1.0,1.0,1.0,259.1095140001016,4.0,1.0,phase_1,,,,,,,,,,,,,orange,hexagon
44.0,1.0,0.5,0.0,2.0,2.0,258.834219000164,4.0,1.0,phase_1,,,,,,,,,,,,,white,square
55.0,5.0,0.5,1.0,4.0,4.0,333.0854679998083,4.0,1.0,phase_1,,,,,,,,,,,,,blue,diamond
214.0,3.0,2.0,0.0,2.0,2.0,249.3385580000904,4.0,1.0,phase_1,,,,,,,,,,,,,green,circle
0.0,6.0,0.0,1.0,3.0,3.0,287.9958789999364,4.0,1.0,phase_1,,,,,,,,,,,,,yellow,I
0.0,8.0,0.0,1.0,2.0,2.0,301.6603920000307,4.0,1.0,phase_1,,,,,,,,,,,,,orange,hexagon
202.0,3.0,2.0,0.0,3.0,3.0,281.2485110002853,4.0,1.0,phase_1,,,,,,,,,,,,,green,circle
181.0,7.0,2.0,1.0,1.0,1.0,292.3419549997561,4.0,1.0,phase_1,,,,,,,,,,,,,cyan,cross
0.0,4.0,0.0,0.0,4.0,4.0,290.2211999999053,4.0,1.0,phase_1,,,,,,,,,,,,,magenta,triangle
0.0,8.0,0.0,1.0,2.0,2.0,260.151636000046,4.0,1.0,phase_1,,,,,,,,,,,,,orange,hexagon
402.0,4.0,4.0,0.0,2.0,2.0,273.200977000215,4.0,1.0,phase_1,,,,,,,,,,,,,magenta,triangle
76.0,2.0,1.0,0.0,1.0,1.0,229.5729719999144,4.0,1.0,phase_1,,,,,,,,,,,,,gray,flipped triangle
92.0,2.0,1.0,0.0,4.0,4.0,264.950287999909,4.0,1.0,phase_1,,,,,,,,,,,,,gray,flipped triangle
412.0,4.0,4.0,0.0,1.0,1.0,259.5054100002016,4.0,1.0,phase_1,,,,,,,,,,,,,magenta,triangle
51.0,1.0,0.5,0.0,4.0,4.0,331.6118610000558,4.0,1.0,phase_1,,,,,,,,,,,,,white,square
196.0,3.0,2.0,0.0,1.0,1.0,316.2669200000891,4.0,1.0,phase_1,,,,,,,,,,,,,green,circle
214.0,3.0,2.0,0.0,2.0,2.0,237.2419920002357,4.0,1.0,phase_1,,,,,,,,,,,,,green,circle
117.0,6.0,1.0,1.0,4.0,4.0,288.9411830001336,4.0,1.0,phase_1,,,,,,,,,,,,,yellow,I
66.0,5.0,0.5,1.0,2.0,2.0,281.6846629998508,4.0,1.0,phase_1,,,,,,,,,,,,,blue,diamond
196.0,7.0,2.0,1.0,4.0,4.0,338.0777900001703,4.0,1.0,phase_1,,,,,,,,,,,,,cyan,cross
30.0,5.0,0.5,1.0,1.0,1.0,212.8184449998116,4.0,1.0,phase_1,,,,,,,,,,,,,blue,diamond
98.0,2.0,1.0,0.0,3.0,3.0,255.13714400040038,4.0,1.0,phase_1,,,,,,,,,,,,,gray,flipped triangle
412.0,8.0,4.0,1.0,4.0,4.0,346.0145740000371,4.0,1.0,phase_1,,,,,,,,,,,,,orange,hexagon
0.0,4.0,0.0,0.0,2.0,2.0,353.9451050000934,4.0,1.0,phase_1,,,,,,,,,,,,,magenta,triangle
0.0,8.0,0.0,1.0,2.0,2.0,277.6608469998791,4.0,1.0,phase_1,,,,,,,,,,,,,orange,hexagon
190.0,7.0,2.0,1.0,3.0,3.0,286.1815719998049,4.0,1.0,phase_1,,,,,,,,,,,,,cyan,cross
200.0,7.0,2.0,1.0,2.0,2.0,301.2521830000878,4.0,1.0,phase_1,,,,,,,,,,,,,cyan,cross
206.0,3.0,2.0,0.0,4.0,4.0,314.7434870002144,4.0,1.0,phase_1,,,,,,,,,,,,,green,circle
183.0,7.0,2.0,1.0,4.0,4.0,294.1793459999644,4.0,1.0,phase_1,,,,,,,,,,,,,cyan,cross
94.0,2.0,1.0,0.0,3.0,3.0,290.054118000171,4.0,1.0,phase_1,,,,,,,,,,,,,gray,flipped triangle
0.0,8.0,0.0,1.0,4.0,4.0,302.1114799998941,4.0,1.0,phase_1,,,,,,,,,,,,,orange,hexagon
425.0,4.0,4.0,0.0,1.0,1.0,274.8757620001925,4.0,1.0,phase_1,,,,,,,,,,,,,magenta,triangle
214.0,7.0,2.0,1.0,2.0,2.0,232.50106399973438,4.0,1.0,phase_1,,,,,,,,,,,,,cyan,cross
419.0,8.0,4.0,1.0,2.0,2.0,250.56031399981288,4.0,1.0,phase_1,,,,,,,,,,,,,orange,hexagon
0.0,6.0,0.0,1.0,1.0,1.0,238.6412900000323,4.0,1.0,phase_1,,,,,,,,,,,,,yellow,I
397.0,8.0,4.0,1.0,2.0,2.0,258.3771000004162,4.0,1.0,phase_1,,,,,,,,,,,,,orange,hexagon
0.0,2.0,0.0,0.0,3.0,3.0,305.1063769999018,4.0,1.0,phase_1,,,,,,,,,,,,,gray,flipped triangle
83.0,2.0,1.0,0.0,4.0,4.0,303.3949219998249,4.0,1.0,phase_1,,,,,,,,,,,,,gray,flipped triangle
175.0,7.0,2.0,1.0,1.0,1.0,254.6430910001618,4.0,1.0,phase_1,,,,,,,,,,,,,cyan,cross
30.0,5.0,0.5,1.0,1.0,1.0,242.0523149999098,4.0,1.0,phase_1,,,,,,,,,,,,,blue,diamond
96.0,2.0,1.0,0.0,2.0,2.0,232.7574280002409,4.0,1.0,phase_1,,,,,,,,,,,,,gray,flipped triangle
98.0,6.0,1.0,1.0,3.0,3.0,260.5629690001478,4.0,1.0,phase_1,,,,,,,,,,,,,yellow,I
0.0,1.0,0.5,0.0,6.0,6.0,556.9726270000501,1.0,1.0,phase_2,go,250.0,250.0,1.0,,,,,,,,,white,square
0.0,5.0,0.5,1.0,6.0,6.0,524.9976459999743,1.0,1.0,phase_2,stop,250.0,250.0,3.0,,,,,,,,,blue,diamond
0.0,3.0,2.0,0.0,5.0,5.0,614.201865999803,1.0,1.0,phase_2,go,250.0,200.0,1.0,,,,,,,,,green,circle
0.0,4.0,4.0,0.0,6.0,6.0,626.8344939999224,1.0,1.0,phase_2,go,250.0,200.0,1.0,,,,,,,,,magenta,triangle
0.0,7.0,2.0,1.0,6.0,6.0,374.7620690000985,1.0,1.0,phase_2,stop,250.0,200.0,3.0,,,,,,,,,cyan,cross
0.0,3.0,2.0,0.0,5.0,5.0,279.1916330002095,1.0,1.0,phase_2,go,250.0,150.0,1.0,,,,,,,,,green,circle
0.0,1.0,0.5,0.0,6.0,6.0,500.33160100019813,1.0,1.0,phase_2,go,250.0,150.0,1.0,,,,,,,,,white,square
0.0,4.0,4.0,0.0,6.0,6.0,638.8233220000075,1.0,1.0,phase_2,go,250.0,150.0,1.0,,,,,,,,,magenta,triangle
0.0,6.0,1.0,1.0,6.0,6.0,622.1589639999365,1.0,1.0,phase_2,go,250.0,150.0,1.0,,,,,,,,,yellow,I
0.0,2.0,1.0,0.0,6.0,6.0,626.9683729997269,1.0,1.0,phase_2,go,250.0,150.0,1.0,,,,,,,,,gray,flipped triangle
0.0,7.0,2.0,1.0,6.0,6.0,518.629411999882,1.0,1.0,phase_2,go,250.0,150.0,1.0,,,,,,,,,cyan,cross
0.0,5.0,0.5,1.0,5.0,0.0,0.0,1.0,1.0,phase_2,stop,250.0,150.0,4.0,,,,,,,,,blue,diamond
0.0,5.0,0.5,1.0,6.0,0.0,0.0,1.0,1.0,phase_2,stop,300.0,150.0,4.0,,,,,,,,,blue,diamond
0.0,3.0,2.0,0.0,5.0,5.0,501.19056199991974,1.0,1.0,phase_2,go,300.0,200.0,1.0,,,,,,,,,green,circle
0.0,8.0,4.0,1.0,5.0,0.0,0.0,1.0,1.0,phase_2,stop,300.0,200.0,4.0,,,,,,,,,orange,hexagon
0.0,5.0,0.5,1.0,5.0,0.0,0.0,1.0,1.0,phase_2,stop,350.0,200.0,4.0,,,,,,,,,blue,diamond
0.0,5.0,0.5,1.0,6.0,0.0,0.0,1.0,1.0,phase_2,stop,400.0,200.0,4.0,,,,,,,,,blue,diamond
0.0,3.0,2.0,0.0,5.0,5.0,479.9874420000378,1.0,1.0,phase_2,go,400.0,250.0,1.0,,,,,,,,,green,circle
0.0,6.0,1.0,1.0,6.0,0.0,0.0,1.0,1.0,phase_2,stop,400.0,250.0,4.0,,,,,,,,,yellow,I
0.0,3.0,2.0,0.0,5.0,5.0,644.8905800002649,1.0,1.0,phase_2,go,400.0,300.0,1.0,,,,,,,,,green,circle
0.0,6.0,1.0,1.0,6.0,0.0,0.0,1.0,1.0,phase_2,stop,400.0,300.0,4.0,,,,,,,,,yellow,I
0.0,3.0,2.0,0.0,6.0,6.0,705.4295029997775,1.0,1.0,phase_2,go,400.0,350.0,1.0,,,,,,,,,green,circle
0.0,5.0,0.5,1.0,5.0,0.0,0.0,1.0,1.0,phase_2,stop,400.0,350.0,4.0,,,,,,,,,blue,diamond
0.0,5.0,0.5,1.0,6.0,0.0,0.0,1.0,1.0,phase_2,stop,450.0,350.0,4.0,,,,,,,,,blue,diamond
0.0,4.0,4.0,0.0,5.0,5.0,591.9539649999024,1.0,1.0,phase_2,go,450.0,400.0,1.0,,,,,,,,,magenta,triangle
0.0,7.0,2.0,1.0,6.0,6.0,465.4156039996451,1.0,1.0,phase_2,stop,450.0,400.0,3.0,,,,,,,,,cyan,cross
0.0,3.0,2.0,0.0,5.0,5.0,684.3764939999346,1.0,1.0,phase_2,go,450.0,350.0,1.0,,,,,,,,,green,circle
0.0,1.0,0.5,0.0,6.0,6.0,575.2005750000535,1.0,1.0,phase_2,go,450.0,350.0,1.0,,,,,,,,,white,square
0.0,3.0,2.0,0.0,6.0,6.0,623.6015940003199,1.0,1.0,phase_2,go,450.0,350.0,1.0,,,,,,,,,green,circle
0.0,1.0,0.5,0.0,6.0,6.0,550.5671219998476,1.0,1.0,phase_2,go,450.0,350.0,1.0,,,,,,,,,white,square
0.0,2.0,1.0,0.0,5.0,5.0,436.3474729998415,1.0,1.0,phase_2,go,450.0,350.0,1.0,,,,,,,,,gray,flipped triangle
0.0,1.0,0.5,0.0,6.0,6.0,346.5804369998295,1.0,1.0,phase_2,go,450.0,350.0,1.0,,,,,,,,,white,square
0.0,6.0,1.0,1.0,6.0,6.0,385.414910000236,1.0,1.0,phase_2,stop,450.0,350.0,3.0,,,,,,,,,yellow,I
0.0,1.0,0.5,0.0,6.0,6.0,648.2601759998943,1.0,1.0,phase_2,go,450.0,300.0,1.0,,,,,,,,,white,square
0.0,1.0,0.5,0.0,5.0,5.0,454.3949740000244,1.0,1.0,phase_2,go,450.0,300.0,1.0,,,,,,,,,white,square
0.0,1.0,0.5,0.0,5.0,5.0,365.2456419999907,1.0,1.0,phase_2,go,450.0,300.0,1.0,,,,,,,,,white,square
0.0,2.0,1.0,0.0,5.0,5.0,725.5766220000623,2.0,1.0,phase_2,go,450.0,300.0,1.0,,,,,,,,,gray,flipped triangle
0.0,3.0,2.0,0.0,5.0,5.0,398.8648230001672,2.0,1.0,phase_2,go,450.0,300.0,1.0,,,,,,,,,green,circle
0.0,6.0,1.0,1.0,6.0,6.0,297.3728009997103,2.0,1.0,phase_2,go,450.0,300.0,1.0,,,,,,,,,yellow,I
0.0,8.0,4.0,1.0,6.0,6.0,333.2237519998671,2.0,1.0,phase_2,stop,450.0,300.0,3.0,,,,,,,,,orange,hexagon
0.0,3.0,2.0,0.0,5.0,5.0,535.6126289998429,2.0,1.0,phase_2,go,450.0,250.0,1.0,,,,,,,,,green,circle
0.0,5.0,0.5,1.0,5.0,5.0,484.5650520001072,2.0,1.0,phase_2,stop,450.0,250.0,3.0,,,,,,,,,blue,diamond
0.0,5.0,0.5,1.0,6.0,6.0,676.6137510003318,2.0,1.0,phase_2,go,400.0,250.0,1.0,,,,,,,,,blue,diamond
0.0,6.0,1.0,1.0,5.0,5.0,545.0780070000292,2.0,1.0,phase_2,stop,400.0,250.0,3.0,,,,,,,,,yellow,I
0.0,3.0,2.0,0.0,6.0,6.0,575.5229950000285,2.0,1.0,phase_2,go,350.0,250.0,1.0,,,,,,,,,green,circle
0.0,2.0,1.0,0.0,5.0,5.0,500.08081099986157,2.0,1.0,phase_2,go,350.0,250.0,1.0,,,,,,,,,gray,flipped triangle
0.0,5.0,0.5,1.0,6.0,6.0,282.5989650000338,2.0,1.0,phase_2,stop,350.0,250.0,3.0,,,,,,,,,blue,diamond
0.0,3.0,2.0,0.0,6.0,6.0,800.1301920003243,2.0,1.0,phase_2,go,350.0,200.0,1.0,,,,,,,,,green,circle
0.0,8.0,4.0,1.0,6.0,0.0,0.0,2.0,1.0,phase_2,stop,350.0,200.0,4.0,,,,,,,,,orange,hexagon
0.0,4.0,4.0,0.0,6.0,6.0,520.0743239997792,2.0,1.0,phase_2,go,350.0,250.0,1.0,,,,,,,,,magenta,triangle
0.0,1.0,0.5,0.0,5.0,5.0,404.3071470000541,2.0,1.0,phase_2,go,350.0,250.0,1.0,,,,,,,,,white,square
0.0,2.0,1.0,0.0,5.0,5.0,557.5656880000679,2.0,1.0,phase_2,go,350.0,250.0,1.0,,,,,,,,,gray,flipped triangle
0.0,7.0,2.0,1.0,6.0,6.0,518.7210419999246,2.0,1.0,phase_2,go,350.0,250.0,1.0,,,,,,,,,cyan,cross
0.0,1.0,0.5,0.0,5.0,5.0,379.3394959998295,2.0,1.0,phase_2,go,350.0,250.0,1.0,,,,,,,,,white,square
0.0,6.0,1.0,1.0,5.0,5.0,409.2380590000175,2.0,1.0,phase_2,stop,350.0,250.0,3.0,,,,,,,,,yellow,I
0.0,2.0,1.0,0.0,5.0,5.0,606.4008570001533,2.0,1.0,phase_2,go,300.0,250.0,1.0,,,,,,,,,gray,flipped triangle
0.0,8.0,4.0,1.0,6.0,6.0,522.3038760000236,2.0,1.0,phase_2,go,300.0,250.0,1.0,,,,,,,,,orange,hexagon
0.0,2.0,1.0,0.0,5.0,5.0,531.7153759997382,2.0,1.0,phase_2,go,300.0,250.0,1.0,,,,,,,,,gray,flipped triangle
0.0,5.0,0.5,1.0,5.0,0.0,0.0,2.0,1.0,phase_2,stop,300.0,250.0,4.0,,,,,,,,,blue,diamond
0.0,4.0,4.0,0.0,6.0,6.0,460.0765770001089,2.0,1.0,phase_2,go,350.0,250.0,1.0,,,,,,,,,magenta,triangle
0.0,7.0,2.0,1.0,6.0,0.0,0.0,2.0,1.0,phase_2,stop,350.0,250.0,4.0,,,,,,,,,cyan,cross
0.0,1.0,0.5,0.0,6.0,6.0,568.5928489997423,2.0,1.0,phase_2,go,350.0,300.0,1.0,,,,,,,,,white,square
0.0,2.0,1.0,0.0,6.0,6.0,511.4132950002386,2.0,1.0,phase_2,go,350.0,300.0,1.0,,,,,,,,,gray,flipped triangle
0.0,7.0,2.0,1.0,6.0,0.0,0.0,2.0,1.0,phase_2,stop,350.0,300.0,4.0,,,,,,,,,cyan,cross
0.0,6.0,1.0,1.0,6.0,0.0,0.0,2.0,1.0,phase_2,stop,350.0,350.0,4.0,,,,,,,,,yellow,I
0.0,5.0,0.5,1.0,5.0,0.0,0.0,2.0,1.0,phase_2,stop,350.0,400.0,4.0,,,,,,,,,blue,diamond
0.0,1.0,0.5,0.0,5.0,5.0,487.7555590001066,2.0,1.0,phase_2,go,400.0,400.0,1.0,,,,,,,,,white,square
0.0,1.0,0.5,0.0,5.0,5.0,537.2320030000992,2.0,1.0,phase_2,go,400.0,400.0,1.0,,,,,,,,,white,square
0.0,2.0,1.0,0.0,6.0,6.0,521.5042939998966,2.0,1.0,phase_2,go,400.0,400.0,1.0,,,,,,,,,gray,flipped triangle
0.0,7.0,2.0,1.0,6.0,6.0,817.9522250002265,2.0,1.0,phase_2,go,400.0,400.0,1.0,,,,,,,,,cyan,cross
0.0,7.0,2.0,1.0,5.0,5.0,700.3855140001178,2.0,1.0,phase_2,go,400.0,400.0,1.0,,,,,,,,,cyan,cross
0.0,4.0,4.0,0.0,5.0,5.0,603.6082010000428,2.0,1.0,phase_2,go,400.0,400.0,1.0,,,,,,,,,magenta,triangle
0.0,2.0,1.0,0.0,5.0,5.0,511.37504700000136,3.0,1.0,phase_2,go,400.0,400.0,1.0,,,,,,,,,gray,flipped triangle
0.0,4.0,4.0,0.0,5.0,5.0,465.0010839995957,3.0,1.0,phase_2,go,400.0,400.0,1.0,,,,,,,,,magenta,triangle
0.0,3.0,2.0,0.0,6.0,6.0,360.1680359997772,3.0,1.0,phase_2,go,400.0,400.0,1.0,,,,,,,,,green,circle
0.0,7.0,2.0,1.0,6.0,6.0,497.7246030002789,3.0,1.0,phase_2,stop,400.0,400.0,3.0,,,,,,,,,cyan,cross
0.0,7.0,2.0,1.0,6.0,0.0,0.0,3.0,1.0,phase_2,stop,400.0,350.0,4.0,,,,,,,,,cyan,cross
0.0,7.0,2.0,1.0,5.0,5.0,609.87179499989,3.0,1.0,phase_2,stop,400.0,400.0,3.0,,,,,,,,,cyan,cross
0.0,4.0,4.0,0.0,6.0,6.0,603.2684140000129,3.0,1.0,phase_2,go,350.0,400.0,1.0,,,,,,,,,magenta,triangle
0.0,2.0,1.0,0.0,6.0,6.0,569.8671039999681,3.0,1.0,phase_2,go,350.0,400.0,1.0,,,,,,,,,gray,flipped triangle
0.0,5.0,0.5,1.0,6.0,0.0,0.0,3.0,1.0,phase_2,stop,350.0,400.0,4.0,,,,,,,,,blue,diamond
0.0,2.0,1.0,0.0,6.0,6.0,558.0899310002678,3.0,1.0,phase_2,go,350.0,450.0,1.0,,,,,,,,,gray,flipped triangle
0.0,7.0,2.0,1.0,5.0,0.0,0.0,3.0,1.0,phase_2,stop,350.0,450.0,4.0,,,,,,,,,cyan,cross
0.0,8.0,4.0,1.0,5.0,0.0,0.0,3.0,1.0,phase_2,stop,400.0,450.0,4.0,,,,,,,,,orange,hexagon
0.0,5.0,0.5,1.0,6.0,6.0,700.8272220000435,3.0,1.0,phase_2,go,450.0,450.0,1.0,,,,,,,,,blue,diamond
0.0,3.0,2.0,0.0,5.0,5.0,553.4927520002384,3.0,1.0,phase_2,go,450.0,450.0,1.0,,,,,,,,,green,circle
0.0,6.0,1.0,1.0,6.0,0.0,0.0,3.0,1.0,phase_2,stop,450.0,450.0,4.0,,,,,,,,,yellow,I
0.0,6.0,1.0,1.0,5.0,5.0,805.7547339999473,3.0,1.0,phase_2,go,450.0,500.0,1.0,,,,,,,,,yellow,I
0.0,8.0,4.0,1.0,6.0,0.0,0.0,3.0,1.0,phase_2,stop,450.0,500.0,4.0,,,,,,,,,orange,hexagon
0.0,5.0,0.5,1.0,6.0,0.0,0.0,3.0,1.0,phase_2,stop,450.0,550.0,4.0,,,,,,,,,blue,diamond
0.0,6.0,1.0,1.0,5.0,5.0,769.7098509997886,3.0,1.0,phase_2,go,450.0,600.0,1.0,,,,,,,,,yellow,I
0.0,2.0,1.0,0.0,6.0,6.0,597.7619729997059,3.0,1.0,phase_2,go,450.0,600.0,1.0,,,,,,,,,gray,flipped triangle
0.0,1.0,0.5,0.0,5.0,5.0,510.01722400042127,3.0,1.0,phase_2,go,450.0,600.0,1.0,,,,,,,,,white,square
0.0,3.0,2.0,0.0,6.0,6.0,561.5881869998702,3.0,1.0,phase_2,go,450.0,600.0,1.0,,,,,,,,,green,circle
0.0,2.0,1.0,0.0,6.0,6.0,423.3396449999418,3.0,1.0,phase_2,go,450.0,600.0,1.0,,,,,,,,,gray,flipped triangle
0.0,3.0,2.0,0.0,5.0,5.0,457.2225200004141,3.0,1.0,phase_2,go,450.0,600.0,1.0,,,,,,,,,green,circle
0.0,2.0,1.0,0.0,6.0,6.0,447.7644850003344,3.0,1.0,phase_2,go,450.0,600.0,1.0,,,,,,,,,gray,flipped triangle
0.0,8.0,4.0,1.0,6.0,0.0,0.0,3.0,1.0,phase_2,stop,450.0,600.0,4.0,,,,,,,,,orange,hexagon
0.0,4.0,4.0,0.0,5.0,5.0,563.054541999918,3.0,1.0,phase_2,go,450.0,650.0,1.0,,,,,,,,,magenta,triangle
0.0,3.0,2.0,0.0,6.0,6.0,510.27841899986015,3.0,1.0,phase_2,go,450.0,650.0,1.0,,,,,,,,,green,circle
0.0,5.0,0.5,1.0,5.0,5.0,845.1144109999404,3.0,1.0,phase_2,go,450.0,650.0,1.0,,,,,,,,,blue,diamond
0.0,8.0,4.0,1.0,6.0,6.0,430.8405179999681,3.0,1.0,phase_2,stop,450.0,650.0,3.0,,,,,,,,,orange,hexagon
0.0,8.0,4.0,1.0,6.0,6.0,1060.4104650001318,3.0,1.0,phase_2,go,450.0,600.0,1.0,,,,,,,,,orange,hexagon
0.0,1.0,0.5,0.0,6.0,6.0,502.87743599983514,3.0,1.0,phase_2,go,450.0,600.0,1.0,,,,,,,,,white,square
0.0,8.0,4.0,1.0,5.0,5.0,883.7697029998708,3.0,1.0,phase_2,go,450.0,600.0,1.0,,,,,,,,,orange,hexagon
0.0,8.0,4.0,1.0,6.0,6.0,832.4350490001962,3.0,1.0,phase_2,go,450.0,600.0,1.0,,,,,,,,,orange,hexagon
0.0,1.0,0.5,0.0,5.0,5.0,512.952352999946,3.0,1.0,phase_2,go,450.0,600.0,1.0,,,,,,,,,white,square
0.0,4.0,4.0,0.0,6.0,6.0,420.467276999716,3.0,1.0,phase_2,go,450.0,600.0,1.0,,,,,,,,,magenta,triangle
0.0,5.0,0.5,1.0,6.0,6.0,417.9624819998935,4.0,1.0,phase_2,stop,450.0,600.0,3.0,,,,,,,,,blue,diamond
0.0,7.0,2.0,1.0,5.0,0.0,0.0,4.0,1.0,phase_2,stop,450.0,550.0,4.0,,,,,,,,,cyan,cross
0.0,7.0,2.0,1.0,5.0,0.0,0.0,4.0,1.0,phase_2,stop,500.0,550.0,4.0,,,,,,,,,cyan,cross
0.0,4.0,4.0,0.0,6.0,6.0,650.2432279999084,4.0,1.0,phase_2,go,550.0,550.0,1.0,,,,,,,,,magenta,triangle
0.0,7.0,2.0,1.0,5.0,5.0,611.5993059997891,4.0,1.0,phase_2,go,550.0,550.0,1.0,,,,,,,,,cyan,cross
0.0,8.0,4.0,1.0,6.0,6.0,672.300678999818,4.0,1.0,phase_2,go,550.0,550.0,1.0,,,,,,,,,orange,hexagon
0.0,7.0,2.0,1.0,6.0,6.0,367.2431840000172,4.0,1.0,phase_2,go,550.0,550.0,1.0,,,,,,,,,cyan,cross
0.0,3.0,2.0,0.0,5.0,5.0,512.2206569999435,4.0,1.0,phase_2,go,550.0,550.0,1.0,,,,,,,,,green,circle
0.0,7.0,2.0,1.0,6.0,6.0,612.5619780000306,4.0,1.0,phase_2,stop,550.0,550.0,3.0,,,,,,,,,cyan,cross
0.0,2.0,1.0,0.0,5.0,5.0,519.122187999983,4.0,1.0,phase_2,go,550.0,500.0,1.0,,,,,,,,,gray,flipped triangle
0.0,3.0,2.0,0.0,6.0,6.0,456.711506999909,4.0,1.0,phase_2,go,550.0,500.0,1.0,,,,,,,,,green,circle
0.0,3.0,2.0,0.0,5.0,5.0,488.3780280001701,4.0,1.0,phase_2,go,550.0,500.0,1.0,,,,,,,,,green,circle
0.0,1.0,0.5,0.0,5.0,5.0,359.6636860002036,4.0,1.0,phase_2,go,550.0,500.0,1.0,,,,,,,,,white,square
0.0,5.0,0.5,1.0,5.0,5.0,843.9519359999395,4.0,1.0,phase_2,go,550.0,500.0,1.0,,,,,,,,,blue,diamond
0.0,5.0,0.5,1.0,6.0,6.0,609.5051370002693,4.0,1.0,phase_2,stop,550.0,500.0,3.0,,,,,,,,,blue,diamond
0.0,4.0,4.0,0.0,6.0,6.0,737.850203999642,4.0,1.0,phase_2,go,550.0,450.0,1.0,,,,,,,,,magenta,triangle
0.0,1.0,0.5,0.0,6.0,6.0,495.6428039999991,4.0,1.0,phase_2,go,550.0,450.0,1.0,,,,,,,,,white,square
0.0,8.0,4.0,1.0,6.0,0.0,0.0,4.0,1.0,phase_2,stop,550.0,450.0,4.0,,,,,,,,,orange,hexagon
0.0,4.0,4.0,0.0,6.0,6.0,572.1907390002343,4.0,1.0,phase_2,go,550.0,500.0,1.0,,,,,,,,,magenta,triangle
0.0,8.0,4.0,1.0,6.0,0.0,0.0,4.0,1.0,phase_2,stop,550.0,500.0,4.0,,,,,,,,,orange,hexagon
0.0,8.0,4.0,1.0,5.0,5.0,1271.2110539996502,4.0,1.0,phase_2,go,550.0,550.0,1.0,,,,,,,,,orange,hexagon
0.0,2.0,1.0,0.0,5.0,5.0,565.2911819997826,4.0,1.0,phase_2,go,550.0,550.0,1.0,,,,,,,,,gray,flipped triangle
0.0,6.0,1.0,1.0,6.0,0.0,0.0,4.0,1.0,phase_2,stop,550.0,550.0,4.0,,,,,,,,,yellow,I
0.0,3.0,2.0,0.0,6.0,6.0,521.9550360002359,4.0,1.0,phase_2,go,550.0,600.0,1.0,,,,,,,,,green,circle
0.0,6.0,1.0,1.0,5.0,0.0,0.0,4.0,1.0,phase_2,stop,550.0,600.0,4.0,,,,,,,,,yellow,I
0.0,4.0,4.0,0.0,5.0,5.0,617.1550779999961,4.0,1.0,phase_2,go,600.0,600.0,1.0,,,,,,,,,magenta,triangle
0.0,8.0,4.0,1.0,5.0,0.0,0.0,4.0,1.0,phase_2,stop,600.0,600.0,4.0,,,,,,,,,orange,hexagon
0.0,8.0,4.0,1.0,5.0,5.0,817.213726999853,4.0,1.0,phase_2,stop,650.0,600.0,3.0,,,,,,,,,orange,hexagon
0.0,6.0,1.0,1.0,5.0,0.0,0.0,4.0,1.0,phase_2,stop,600.0,600.0,4.0,,,,,,,,,yellow,I
0.0,5.0,0.5,1.0,6.0,6.0,1235.326458000145,4.0,1.0,phase_2,go,650.0,600.0,1.0,,,,,,,,,blue,diamond
0.0,3.0,2.0,0.0,6.0,6.0,612.4484179999854,4.0,1.0,phase_2,go,650.0,600.0,1.0,,,,,,,,,green,circle
0.0,2.0,1.0,0.0,5.0,5.0,529.056897999908,4.0,1.0,phase_2,go,650.0,600.0,1.0,,,,,,,,,gray,flipped triangle
0.0,7.0,2.0,1.0,5.0,0.0,0.0,4.0,1.0,phase_2,stop,650.0,600.0,4.0,,,,,,,,,cyan,cross
0.0,7.0,2.0,1.0,6.0,0.0,0.0,4.0,1.0,phase_2,stop,700.0,600.0,4.0,,,,,,,,,cyan,cross
0.0,6.0,1.0,1.0,5.0,0.0,0.0,4.0,1.0,phase_2,stop,700.0,650.0,4.0,,,,,,,,,yellow,I
0.0,4.0,4.0,0.0,6.0,6.0,623.9539779999177,4.0,1.0,phase_2,go,750.0,650.0,1.0,,,,,,,,,magenta,triangle
0.0,5.0,0.5,1.0,5.0,5.0,425.5450109999401,5.0,1.0,phase_2,go,750.0,650.0,1.0,,,,,,,,,blue,diamond
0.0,1.0,0.5,0.0,5.0,5.0,465.00668999988187,5.0,1.0,phase_2,go,750.0,650.0,1.0,,,,,,,,,white,square
0.0,8.0,4.0,1.0,5.0,5.0,946.4102420001836,5.0,1.0,phase_2,go,750.0,650.0,1.0,,,,,,,,,orange,hexagon
0.0,7.0,2.0,1.0,5.0,0.0,0.0,5.0,1.0,phase_2,stop,750.0,650.0,4.0,,,,,,,,,cyan,cross
0.0,6.0,1.0,1.0,6.0,6.0,1320.3949319999992,5.0,1.0,phase_2,go,800.0,650.0,1.0,,,,,,,,,yellow,I
0.0,3.0,2.0,0.0,5.0,5.0,524.7173160000784,5.0,1.0,phase_2,go,800.0,650.0,1.0,,,,,,,,,green,circle
0.0,8.0,4.0,1.0,5.0,0.0,0.0,5.0,1.0,phase_2,stop,800.0,650.0,4.0,,,,,,,,,orange,hexagon
0.0,6.0,1.0,1.0,5.0,0.0,0.0,5.0,1.0,phase_2,stop,850.0,650.0,4.0,,,,,,,,,yellow,I
0.0,1.0,0.5,0.0,5.0,5.0,483.3957969999574,5.0,1.0,phase_2,go,900.0,650.0,1.0,,,,,,,,,white,square
0.0,4.0,4.0,0.0,6.0,6.0,444.0686110001479,5.0,1.0,phase_2,go,900.0,650.0,1.0,,,,,,,,,magenta,triangle
0.0,1.0,0.5,0.0,5.0,5.0,498.3342450000236,5.0,1.0,phase_2,go,900.0,650.0,1.0,,,,,,,,,white,square
0.0,2.0,1.0,0.0,5.0,5.0,367.6056409999546,5.0,1.0,phase_2,go,900.0,650.0,1.0,,,,,,,,,gray,flipped triangle
0.0,5.0,0.5,1.0,5.0,5.0,1029.3894550000005,5.0,1.0,phase_2,go,900.0,650.0,1.0,,,,,,,,,blue,diamond
0.0,1.0,0.5,0.0,5.0,5.0,426.7501240001365,5.0,1.0,phase_2,go,900.0,650.0,1.0,,,,,,,,,white,square
0.0,7.0,2.0,1.0,6.0,6.0,337.8615199999331,5.0,1.0,phase_2,go,900.0,650.0,1.0,,,,,,,,,cyan,cross
0.0,8.0,4.0,1.0,6.0,0.0,0.0,5.0,1.0,phase_2,stop,900.0,650.0,4.0,,,,,,,,,orange,hexagon
0.0,2.0,1.0,0.0,6.0,6.0,502.7789300002041,5.0,1.0,phase_2,go,900.0,700.0,1.0,,,,,,,,,gray,flipped triangle
0.0,3.0,2.0,0.0,6.0,6.0,390.7143279998308,5.0,1.0,phase_2,go,900.0,700.0,1.0,,,,,,,,,green,circle
0.0,8.0,4.0,1.0,6.0,0.0,0.0,5.0,1.0,phase_2,stop,900.0,700.0,4.0,,,,,,,,,orange,hexagon
0.0,7.0,2.0,1.0,6.0,0.0,0.0,5.0,1.0,phase_2,stop,900.0,750.0,4.0,,,,,,,,,cyan,cross
0.0,7.0,2.0,1.0,5.0,0.0,0.0,5.0,1.0,phase_2,stop,900.0,800.0,4.0,,,,,,,,,cyan,cross
0.0,4.0,4.0,0.0,5.0,5.0,607.4193260001266,5.0,1.0,phase_2,go,950.0,800.0,1.0,,,,,,,,,magenta,triangle
0.0,2.0,1.0,0.0,6.0,6.0,475.1100509997741,5.0,1.0,phase_2,go,950.0,800.0,1.0,,,,,,,,,gray,flipped triangle
0.0,4.0,4.0,0.0,5.0,5.0,451.2742530000651,5.0,1.0,phase_2,go,950.0,800.0,1.0,,,,,,,,,magenta,triangle
0.0,7.0,2.0,1.0,5.0,0.0,0.0,5.0,1.0,phase_2,stop,950.0,800.0,4.0,,,,,,,,,cyan,cross
0.0,2.0,1.0,0.0,6.0,6.0,506.89018999992186,5.0,1.0,phase_2,go,1000.0,800.0,1.0,,,,,,,,,gray,flipped triangle
0.0,1.0,0.5,0.0,5.0,5.0,404.4076029999814,5.0,1.0,phase_2,go,1000.0,800.0,1.0,,,,,,,,,white,square
0.0,8.0,4.0,1.0,5.0,0.0,0.0,5.0,1.0,phase_2,stop,1000.0,800.0,4.0,,,,,,,,,orange,hexagon
0.0,4.0,4.0,0.0,6.0,6.0,494.3286830002762,5.0,1.0,phase_2,go,1050.0,800.0,1.0,,,,,,,,,magenta,triangle
0.0,8.0,4.0,1.0,5.0,0.0,0.0,5.0,1.0,phase_2,stop,1050.0,800.0,4.0,,,,,,,,,orange,hexagon
0.0,6.0,1.0,1.0,5.0,0.0,0.0,5.0,1.0,phase_2,stop,1100.0,800.0,4.0,,,,,,,,,yellow,I
0.0,3.0,2.0,0.0,6.0,6.0,502.88103499997305,5.0,1.0,phase_2,go,1150.0,800.0,1.0,,,,,,,,,green,circle
0.0,5.0,0.5,1.0,6.0,6.0,617.4125459997413,5.0,1.0,phase_2,stop,1150.0,800.0,3.0,,,,,,,,,blue,diamond
0.0,4.0,4.0,0.0,5.0,5.0,522.7028530002826,5.0,1.0,phase_2,go,1150.0,750.0,1.0,,,,,,,,,magenta,triangle
0.0,1.0,0.5,0.0,6.0,6.0,421.2765699999181,5.0,1.0,phase_2,go,1150.0,750.0,1.0,,,,,,,,,white,square
0.0,5.0,0.5,1.0,5.0,5.0,446.692553000048,5.0,1.0,phase_2,stop,1150.0,750.0,3.0,,,,,,,,,blue,diamond
0.0,4.0,4.0,0.0,6.0,6.0,375.5172219998712,6.0,1.0,phase_2,go,1100.0,750.0,1.0,,,,,,,,,magenta,triangle
0.0,6.0,1.0,1.0,5.0,5.0,1261.7551759999517,6.0,1.0,phase_2,stop,1100.0,750.0,3.0,,,,,,,,,yellow,I
0.0,5.0,0.5,1.0,6.0,0.0,0.0,6.0,1.0,phase_2,stop,1050.0,750.0,4.0,,,,,,,,,blue,diamond
0.0,1.0,0.5,0.0,6.0,6.0,425.8215889999519,6.0,1.0,phase_2,go,1050.0,800.0,1.0,,,,,,,,,white,square
0.0,6.0,1.0,1.0,5.0,0.0,0.0,6.0,1.0,phase_2,stop,1050.0,800.0,4.0,,,,,,,,,yellow,I
0.0,7.0,2.0,1.0,5.0,0.0,0.0,6.0,1.0,phase_2,stop,1100.0,800.0,4.0,,,,,,,,,cyan,cross
0.0,3.0,2.0,0.0,5.0,5.0,555.1073730002827,6.0,1.0,phase_2,go,1150.0,800.0,1.0,,,,,,,,,green,circle
0.0,6.0,1.0,1.0,6.0,0.0,0.0,6.0,1.0,phase_2,go,1150.0,800.0,5.0,,,,,,,,,yellow,I
0.0,4.0,4.0,0.0,6.0,6.0,556.5051829998993,6.0,1.0,phase_2,go,1150.0,800.0,1.0,,,,,,,,,magenta,triangle
0.0,3.0,2.0,0.0,6.0,6.0,467.8108620000785,6.0,1.0,phase_2,go,1150.0,800.0,1.0,,,,,,,,,green,circle
0.0,5.0,0.5,1.0,5.0,5.0,1192.798529999891,6.0,1.0,phase_2,stop,1150.0,800.0,3.0,,,,,,,,,blue,diamond
0.0,3.0,2.0,0.0,5.0,5.0,521.0026049999215,6.0,1.0,phase_2,go,1100.0,800.0,1.0,,,,,,,,,green,circle
0.0,8.0,4.0,1.0,5.0,0.0,0.0,6.0,1.0,phase_2,stop,1100.0,800.0,4.0,,,,,,,,,orange,hexagon
0.0,8.0,4.0,1.0,5.0,5.0,1328.9723410002807,6.0,1.0,phase_2,stop,1150.0,800.0,3.0,,,,,,,,,orange,hexagon
0.0,6.0,1.0,1.0,6.0,0.0,0.0,6.0,1.0,phase_2,stop,1100.0,800.0,4.0,,,,,,,,,yellow,I
0.0,4.0,4.0,0.0,5.0,5.0,598.391150000225,6.0,1.0,phase_2,go,1100.0,850.0,1.0,,,,,,,,,magenta,triangle
0.0,1.0,0.5,0.0,6.0,6.0,359.5564739998735,6.0,1.0,phase_2,go,1100.0,850.0,1.0,,,,,,,,,white,square
0.0,3.0,2.0,0.0,6.0,6.0,481.3500159998511,6.0,1.0,phase_2,go,1100.0,850.0,1.0,,,,,,,,,green,circle
0.0,3.0,2.0,0.0,5.0,5.0,469.0256030003183,6.0,1.0,phase_2,go,1100.0,850.0,1.0,,,,,,,,,green,circle
0.0,1.0,0.5,0.0,5.0,5.0,501.83482299962634,6.0,1.0,phase_2,go,1100.0,850.0,1.0,,,,,,,,,white,square
0.0,5.0,0.5,1.0,5.0,5.0,1227.512473000388,6.0,1.0,phase_2,stop,1100.0,850.0,3.0,,,,,,,,,blue,diamond
0.0,1.0,0.5,0.0,6.0,6.0,398.7497130001429,6.0,1.0,phase_2,go,1050.0,850.0,1.0,,,,,,,,,white,square
0.0,2.0,1.0,0.0,5.0,5.0,424.6354239999164,6.0,1.0,phase_2,go,1050.0,850.0,1.0,,,,,,,,,gray,flipped triangle
0.0,3.0,2.0,0.0,6.0,6.0,351.1585189999096,6.0,1.0,phase_2,go,1050.0,850.0,1.0,,,,,,,,,green,circle
0.0,1.0,0.5,0.0,5.0,5.0,391.6340279997712,6.0,1.0,phase_2,go,1050.0,850.0,1.0,,,,,,,,,white,square
0.0,3.0,2.0,0.0,6.0,6.0,380.0608729998203,6.0,1.0,phase_2,go,1050.0,850.0,1.0,,,,,,,,,green,circle
0.0,4.0,4.0,0.0,5.0,5.0,516.7316830002164,6.0,1.0,phase_2,go,1050.0,850.0,1.0,,,,,,,,,magenta,triangle
0.0,6.0,1.0,1.0,6.0,6.0,341.0145990001183,6.0,1.0,phase_2,stop,1050.0,850.0,3.0,,,,,,,,,yellow,I
0.0,4.0,4.0,0.0,6.0,6.0,460.2430459999596,6.0,1.0,phase_2,go,1050.0,800.0,1.0,,,,,,,,,magenta,triangle
0.0,5.0,0.5,1.0,6.0,0.0,0.0,6.0,1.0,phase_2,stop,1050.0,800.0,4.0,,,,,,,,,blue,diamond
0.0,8.0,4.0,1.0,5.0,0.0,0.0,6.0,1.0,phase_2,stop,1050.0,850.0,4.0,,,,,,,,,orange,hexagon
0.0,4.0,4.0,0.0,5.0,5.0,590.4678150000109,6.0,1.0,phase_2,go,1100.0,850.0,1.0,,,,,,,,,magenta,triangle
0.0,4.0,4.0,0.0,6.0,6.0,395.9870100002263,6.0,1.0,phase_2,go,1100.0,850.0,1.0,,,,,,,,,magenta,triangle
0.0,6.0,1.0,1.0,6.0,6.0,1483.0709679999927,6.0,1.0,phase_2,go,1100.0,850.0,1.0,,,,,,,,,yellow,I
0.0,4.0,4.0,0.0,5.0,5.0,595.0119700000869,6.0,1.0,phase_2,go,1100.0,850.0,1.0,,,,,,,,,magenta,triangle
0.0,6.0,1.0,1.0,5.0,5.0,355.7683280000674,6.0,1.0,phase_2,stop,1100.0,850.0,3.0,,,,,,,,,yellow,I
0.0,5.0,0.5,1.0,6.0,6.0,298.8700380001319,7.0,1.0,phase_2,stop,1050.0,850.0,3.0,,,,,,,,,blue,diamond
0.0,2.0,1.0,0.0,6.0,6.0,412.9268080000656,7.0,1.0,phase_2,go,1050.0,800.0,1.0,,,,,,,,,gray,flipped triangle
0.0,4.0,4.0,0.0,5.0,5.0,406.4151229999879,7.0,1.0,phase_2,go,1050.0,800.0,1.0,,,,,,,,,magenta,triangle
0.0,2.0,1.0,0.0,5.0,5.0,429.6604609999122,7.0,1.0,phase_2,go,1050.0,800.0,1.0,,,,,,,,,gray,flipped triangle
0.0,5.0,0.5,1.0,5.0,0.0,0.0,7.0,1.0,phase_2,stop,1050.0,800.0,4.0,,,,,,,,,blue,diamond
0.0,2.0,1.0,0.0,5.0,5.0,490.3496759998234,7.0,1.0,phase_2,go,1100.0,800.0,1.0,,,,,,,,,gray,flipped triangle
0.0,6.0,1.0,1.0,5.0,5.0,1072.0009820001906,7.0,1.0,phase_2,stop,1100.0,800.0,3.0,,,,,,,,,yellow,I
0.0,6.0,1.0,1.0,5.0,0.0,0.0,7.0,1.0,phase_2,stop,1050.0,800.0,4.0,,,,,,,,,yellow,I
0.0,6.0,1.0,1.0,6.0,0.0,0.0,7.0,1.0,phase_2,stop,1100.0,800.0,4.0,,,,,,,,,yellow,I
0.0,7.0,2.0,1.0,6.0,6.0,1029.5023479998235,7.0,1.0,phase_2,go,1100.0,850.0,1.0,,,,,,,,,cyan,cross
0.0,2.0,1.0,0.0,5.0,5.0,360.5087700002514,7.0,1.0,phase_2,go,1100.0,850.0,1.0,,,,,,,,,gray,flipped triangle
0.0,5.0,0.5,1.0,5.0,0.0,0.0,7.0,1.0,phase_2,stop,1100.0,850.0,4.0,,,,,,,,,blue,diamond
0.0,5.0,0.5,1.0,6.0,0.0,0.0,7.0,1.0,phase_2,stop,1150.0,850.0,4.0,,,,,,,,,blue,diamond
0.0,2.0,1.0,0.0,5.0,5.0,463.9811770002779,7.0,1.0,phase_2,go,1150.0,900.0,1.0,,,,,,,,,gray,flipped triangle
0.0,2.0,1.0,0.0,5.0,5.0,452.7317540000695,7.0,1.0,phase_2,go,1150.0,900.0,1.0,,,,,,,,,gray,flipped triangle
0.0,7.0,2.0,1.0,5.0,5.0,581.3593289999517,7.0,1.0,phase_2,stop,1150.0,900.0,3.0,,,,,,,,,cyan,cross
0.0,1.0,0.5,0.0,5.0,5.0,461.5068410003005,7.0,1.0,phase_2,go,1100.0,900.0,1.0,,,,,,,,,white,square
0.0,1.0,0.5,0.0,6.0,6.0,359.2508219999217,7.0,1.0,phase_2,go,1100.0,900.0,1.0,,,,,,,,,white,square
0.0,3.0,2.0,0.0,6.0,6.0,472.1193029999995,7.0,1.0,phase_2,go,1100.0,900.0,1.0,,,,,,,,,green,circle
0.0,1.0,0.5,0.0,6.0,6.0,406.549613000152,7.0,1.0,phase_2,go,1100.0,900.0,1.0,,,,,,,,,white,square
0.0,7.0,2.0,1.0,5.0,0.0,0.0,7.0,1.0,phase_2,stop,1100.0,900.0,4.0,,,,,,,,,cyan,cross
0.0,4.0,4.0,0.0,5.0,5.0,491.0471130001497,7.0,1.0,phase_2,go,1150.0,900.0,1.0,,,,,,,,,magenta,triangle
0.0,7.0,2.0,1.0,5.0,0.0,0.0,7.0,1.0,phase_2,stop,1150.0,900.0,4.0,,,,,,,,,cyan,cross
0.0,1.0,0.5,0.0,6.0,6.0,388.4239070002877,7.0,1.0,phase_2,go,1200.0,900.0,1.0,,,,,,,,,white,square
0.0,6.0,1.0,1.0,5.0,0.0,0.0,7.0,1.0,phase_2,stop,1200.0,900.0,4.0,,,,,,,,,yellow,I
0.0,4.0,4.0,0.0,5.0,5.0,474.2623789998106,7.0,1.0,phase_2,go,1250.0,900.0,1.0,,,,,,,,,magenta,triangle
0.0,8.0,4.0,1.0,5.0,0.0,0.0,7.0,1.0,phase_2,stop,1250.0,900.0,4.0,,,,,,,,,orange,hexagon
0.0,3.0,2.0,0.0,6.0,6.0,470.56926899995227,7.0,1.0,phase_2,go,1300.0,900.0,1.0,,,,,,,,,green,circle
0.0,2.0,1.0,0.0,6.0,6.0,399.415050999778,7.0,1.0,phase_2,go,1300.0,900.0,1.0,,,,,,,,,gray,flipped triangle
0.0,4.0,4.0,0.0,6.0,6.0,464.7054189999835,7.0,1.0,phase_2,go,1300.0,900.0,1.0,,,,,,,,,magenta,triangle
0.0,2.0,1.0,0.0,5.0,5.0,383.7728170001355,7.0,1.0,phase_2,go,1300.0,900.0,1.0,,,,,,,,,gray,flipped triangle
0.0,3.0,2.0,0.0,5.0,5.0,370.977068999764,7.0,1.0,phase_2,go,1300.0,900.0,1.0,,,,,,,,,green,circle
0.0,6.0,1.0,1.0,6.0,0.0,0.0,7.0,1.0,phase_2,stop,1300.0,900.0,4.0,,,,,,,,,yellow,I
0.0,8.0,4.0,1.0,6.0,0.0,0.0,7.0,1.0,phase_2,stop,1300.0,950.0,4.0,,,,,,,,,orange,hexagon
0.0,7.0,2.0,1.0,6.0,6.0,1476.3296340001943,7.0,1.0,phase_2,go,1300.0,1000.0,1.0,,,,,,,,,cyan,cross
0.0,6.0,1.0,1.0,5.0,0.0,0.0,7.0,1.0,phase_2,stop,1300.0,1000.0,4.0,,,,,,,,,yellow,I
0.0,6.0,1.0,1.0,5.0,5.0,1178.980774000138,8.0,1.0,phase_2,stop,1350.0,1000.0,3.0,,,,,,,,,yellow,I
0.0,8.0,4.0,1.0,5.0,0.0,0.0,8.0,1.0,phase_2,stop,1300.0,1000.0,4.0,,,,,,,,,orange,hexagon
0.0,4.0,4.0,0.0,5.0,5.0,516.0577060000833,8.0,1.0,phase_2,go,1350.0,1000.0,1.0,,,,,,,,,magenta,triangle
0.0,7.0,2.0,1.0,6.0,0.0,0.0,8.0,1.0,phase_2,stop,1350.0,1000.0,4.0,,,,,,,,,cyan,cross
0.0,2.0,1.0,0.0,6.0,6.0,532.948855000086,8.0,1.0,phase_2,go,1350.0,1050.0,1.0,,,,,,,,,gray,flipped triangle
0.0,4.0,4.0,0.0,5.0,5.0,483.7660729999697,8.0,1.0,phase_2,go,1350.0,1050.0,1.0,,,,,,,,,magenta,triangle
0.0,4.0,4.0,0.0,6.0,6.0,366.8250680002529,8.0,1.0,phase_2,go,1350.0,1050.0,1.0,,,,,,,,,magenta,triangle
0.0,6.0,1.0,1.0,5.0,5.0,1414.306124000177,8.0,1.0,phase_2,go,1350.0,1050.0,1.0,,,,,,,,,yellow,I
0.0,5.0,0.5,1.0,5.0,0.0,0.0,8.0,1.0,phase_2,stop,1350.0,1050.0,4.0,,,,,,,,,blue,diamond
0.0,8.0,4.0,1.0,6.0,0.0,0.0,8.0,1.0,phase_2,go,1400.0,1050.0,5.0,,,,,,,,,orange,hexagon
0.0,6.0,1.0,1.0,6.0,6.0,1435.4663879998952,8.0,1.0,phase_2,go,1400.0,1050.0,1.0,,,,,,,,,yellow,I
0.0,7.0,2.0,1.0,5.0,5.0,532.1277680000094,8.0,1.0,phase_2,stop,1400.0,1050.0,3.0,,,,,,,,,cyan,cross
0.0,8.0,4.0,1.0,6.0,6.0,450.7225229999676,8.0,1.0,phase_2,stop,1350.0,1050.0,3.0,,,,,,,,,orange,hexagon
0.0,5.0,0.5,1.0,5.0,5.0,1171.5119410000625,8.0,1.0,phase_2,go,1350.0,1000.0,1.0,,,,,,,,,blue,diamond
0.0,7.0,2.0,1.0,6.0,6.0,1039.3463939999492,8.0,1.0,phase_2,stop,1350.0,1000.0,3.0,,,,,,,,,cyan,cross
0.0,6.0,1.0,1.0,6.0,0.0,0.0,8.0,1.0,phase_2,stop,1350.0,950.0,4.0,,,,,,,,,yellow,I
0.0,1.0,0.5,0.0,6.0,6.0,399.2145819997859,8.0,1.0,phase_2,go,1350.0,1000.0,1.0,,,,,,,,,white,square
0.0,8.0,4.0,1.0,5.0,5.0,1264.4748760003497,8.0,1.0,phase_2,go,1350.0,1000.0,1.0,,,,,,,,,orange,hexagon
0.0,5.0,0.5,1.0,6.0,6.0,1410.7712429999992,8.0,1.0,phase_2,go,1350.0,1000.0,1.0,,,,,,,,,blue,diamond
0.0,7.0,2.0,1.0,5.0,5.0,1180.1327419998415,8.0,1.0,phase_2,stop,1350.0,1000.0,3.0,,,,,,,,,cyan,cross
0.0,3.0,2.0,0.0,5.0,5.0,468.5025890003089,8.0,1.0,phase_2,go,1300.0,1000.0,1.0,,,,,,,,,green,circle
0.0,1.0,0.5,0.0,5.0,5.0,441.7431779997969,8.0,1.0,phase_2,go,1300.0,1000.0,1.0,,,,,,,,,white,square
0.0,5.0,0.5,1.0,5.0,5.0,1331.3611319999836,8.0,1.0,phase_2,stop,1300.0,1000.0,3.0,,,,,,,,,blue,diamond
0.0,2.0,1.0,0.0,6.0,6.0,423.7560950000443,8.0,1.0,phase_2,go,1250.0,1000.0,1.0,,,,,,,,,gray,flipped triangle
0.0,7.0,2.0,1.0,5.0,0.0,0.0,8.0,1.0,phase_2,stop,1250.0,1000.0,4.0,,,,,,,,,cyan,cross
0.0,8.0,4.0,1.0,6.0,6.0,1135.3988569999274,8.0,1.0,phase_2,stop,1300.0,1000.0,3.0,,,,,,,,,orange,hexagon
0.0,2.0,1.0,0.0,6.0,6.0,513.1607859998439,8.0,1.0,phase_2,go,1300.0,950.0,1.0,,,,,,,,,gray,flipped triangle
0.0,1.0,0.5,0.0,6.0,6.0,333.6759399999209,8.0,1.0,phase_2,go,1300.0,950.0,1.0,,,,,,,,,white,square
0.0,8.0,4.0,1.0,5.0,0.0,0.0,8.0,1.0,phase_2,stop,1300.0,950.0,4.0,,,,,,,,,orange,hexagon
0.0,8.0,4.0,1.0,6.0,0.0,0.0,8.0,1.0,phase_2,stop,1350.0,950.0,4.0,,,,,,,,,orange,hexagon
0.0,7.0,2.0,1.0,5.0,0.0,0.0,8.0,1.0,phase_2,stop,1350.0,1000.0,4.0,,,,,,,,,cyan,cross
0.0,4.0,4.0,0.0,5.0,5.0,487.1894439997959,8.0,1.0,phase_2,go,1400.0,1000.0,1.0,,,,,,,,,magenta,triangle
0.0,2.0,1.0,0.0,6.0,6.0,338.4077460000299,8.0,1.0,phase_2,go,1400.0,1000.0,1.0,,,,,,,,,gray,flipped triangle
0.0,2.0,1.0,0.0,6.0,6.0,328.9272130000427,8.0,1.0,phase_2,go,1400.0,1000.0,1.0,,,,,,,,,gray,flipped triangle
0.0,6.0,1.0,1.0,6.0,0.0,0.0,8.0,1.0,phase_2,stop,1400.0,1000.0,4.0,,,,,,,,,yellow,I
0.0,8.0,4.0,1.0,5.0,0.0,0.0,8.0,1.0,phase_2,stop,1400.0,1050.0,4.0,,,,,,,,,orange,hexagon
0.0,7.0,2.0,1.0,7.0,6.0,3341.0406279999734,1.0,1.0,phase_3,,,,,294.0,6.0,245.0,147.0,98.0,49.0,196.0,294.0,cyan,cross
0.0,8.0,4.0,1.0,7.0,1.0,2329.282516000603,1.0,1.0,phase_3,,,,,234.0,6.0,234.0,39.0,117.0,195.0,156.0,78.0,orange,hexagon
0.0,2.0,1.0,0.0,7.0,4.0,1195.7647799999904,1.0,1.0,phase_3,,,,,170.0,5.0,34.0,204.0,136.0,170.0,68.0,102.0,gray,flipped triangle
0.0,8.0,4.0,1.0,7.0,5.0,1394.1814019999583,1.0,1.0,phase_3,,,,,220.0,5.0,264.0,132.0,176.0,88.0,220.0,44.0,orange,hexagon
0.0,1.0,0.5,0.0,7.0,4.0,987.1608399998876,1.0,1.0,phase_3,,,,,88.0,2.0,44.0,220.0,264.0,88.0,132.0,176.0,white,square
0.0,8.0,4.0,1.0,7.0,2.0,1533.521875999213,1.0,1.0,phase_3,,,,,196.0,4.0,245.0,196.0,49.0,147.0,294.0,98.0,orange,hexagon
0.0,4.0,4.0,0.0,7.0,5.0,1461.89755100022,1.0,1.0,phase_3,,,,,324.0,6.0,54.0,270.0,108.0,216.0,324.0,162.0,magenta,triangle
0.0,5.0,0.5,1.0,7.0,3.0,1358.0305219993534,1.0,1.0,phase_3,,,,,147.0,3.0,49.0,98.0,147.0,294.0,196.0,245.0,blue,diamond
0.0,3.0,2.0,0.0,7.0,5.0,835.623379000026,1.0,1.0,phase_3,,,,,204.0,6.0,102.0,136.0,170.0,34.0,204.0,68.0,green,circle
0.0,6.0,1.0,1.0,7.0,1.0,1936.0563229993204,1.0,1.0,phase_3,,,,,324.0,6.0,324.0,108.0,216.0,54.0,270.0,162.0,yellow,I
0.0,3.0,2.0,0.0,7.0,4.0,1163.9391729995625,1.0,1.0,phase_3,,,,,176.0,4.0,132.0,220.0,88.0,176.0,264.0,44.0,green,circle
0.0,6.0,1.0,1.0,7.0,4.0,1217.2688649998236,1.0,1.0,phase_3,,,,,132.0,3.0,88.0,176.0,44.0,132.0,264.0,220.0,yellow,I
0.0,4.0,4.0,0.0,7.0,2.0,1382.1100469995145,1.0,1.0,phase_3,,,,,234.0,6.0,195.0,234.0,39.0,156.0,78.0,117.0,magenta,triangle
0.0,6.0,1.0,1.0,7.0,1.0,1572.6253510001698,1.0,1.0,phase_3,,,,,170.0,5.0,170.0,102.0,34.0,68.0,204.0,136.0,yellow,I
0.0,2.0,1.0,0.0,7.0,2.0,1491.948543000035,1.0,1.0,phase_3,,,,,88.0,2.0,176.0,88.0,132.0,220.0,264.0,44.0,gray,flipped triangle
0.0,4.0,4.0,0.0,7.0,5.0,1179.8815509991982,1.0,1.0,phase_3,,,,,204.0,6.0,102.0,136.0,170.0,34.0,204.0,68.0,magenta,triangle
0.0,3.0,2.0,0.0,7.0,3.0,1458.4660299997267,1.0,1.0,phase_3,,,,,147.0,3.0,49.0,294.0,147.0,196.0,98.0,245.0,green,circle
0.0,1.0,0.5,0.0,7.0,4.0,1385.706650999964,1.0,1.0,phase_3,,,,,162.0,3.0,324.0,54.0,270.0,162.0,216.0,108.0,white,square
0.0,2.0,1.0,0.0,7.0,3.0,1391.6701770003783,1.0,1.0,phase_3,,,,,245.0,5.0,98.0,196.0,245.0,49.0,147.0,294.0,gray,flipped triangle
0.0,2.0,1.0,0.0,7.0,6.0,1288.105641000584,1.0,1.0,phase_3,,,,,196.0,4.0,49.0,147.0,245.0,294.0,98.0,196.0,gray,flipped triangle
0.0,7.0,2.0,1.0,7.0,3.0,1196.3471429999115,2.0,1.0,phase_3,,,,,162.0,3.0,54.0,216.0,162.0,324.0,270.0,108.0,cyan,cross
0.0,3.0,2.0,0.0,7.0,2.0,1070.9205169996494,2.0,1.0,phase_3,,,,,204.0,6.0,102.0,204.0,136.0,34.0,68.0,170.0,green,circle
0.0,2.0,1.0,0.0,7.0,4.0,884.6495159996266,2.0,1.0,phase_3,,,,,264.0,6.0,44.0,176.0,220.0,264.0,132.0,88.0,gray,flipped triangle
0.0,3.0,2.0,0.0,7.0,5.0,1179.9744569998438,2.0,1.0,phase_3,,,,,156.0,4.0,195.0,78.0,117.0,39.0,156.0,234.0,green,circle
0.0,6.0,1.0,1.0,7.0,5.0,1342.6890849996198,2.0,1.0,phase_3,,,,,234.0,6.0,195.0,117.0,78.0,39.0,234.0,156.0,yellow,I
0.0,1.0,0.5,0.0,7.0,6.0,2104.2688730003647,2.0,1.0,phase_3,,,,,78.0,2.0,117.0,234.0,195.0,39.0,156.0,78.0,white,square
0.0,8.0,4.0,1.0,7.0,4.0,2202.35549500012,2.0,1.0,phase_3,,,,,170.0,5.0,68.0,136.0,204.0,170.0,102.0,34.0,orange,hexagon
0.0,7.0,2.0,1.0,7.0,5.0,1915.1047529994685,2.0,1.0,phase_3,,,,,245.0,5.0,294.0,98.0,147.0,196.0,245.0,49.0,cyan,cross
0.0,6.0,1.0,1.0,7.0,4.0,1489.0585359999022,2.0,1.0,phase_3,,,,,147.0,3.0,49.0,196.0,294.0,147.0,245.0,98.0,yellow,I
0.0,3.0,2.0,0.0,7.0,1.0,1443.8828020001893,2.0,1.0,phase_3,,,,,162.0,3.0,162.0,216.0,324.0,54.0,108.0,270.0,green,circle
0.0,7.0,2.0,1.0,7.0,6.0,1751.553722000608,2.0,1.0,phase_3,,,,,220.0,5.0,44.0,176.0,88.0,132.0,264.0,220.0,cyan,cross
0.0,2.0,1.0,0.0,7.0,5.0,2206.4595290003126,2.0,1.0,phase_3,,,,,102.0,3.0,34.0,204.0,170.0,136.0,102.0,68.0,gray,flipped triangle
0.0,5.0,0.5,1.0,7.0,5.0,1861.175812999136,2.0,1.0,phase_3,,,,,176.0,4.0,44.0,132.0,220.0,264.0,176.0,88.0,blue,diamond
0.0,5.0,0.5,1.0,7.0,2.0,1769.6065210002416,2.0,1.0,phase_3,,,,,156.0,4.0,39.0,156.0,234.0,117.0,78.0,195.0,blue,diamond
0.0,8.0,4.0,1.0,7.0,2.0,1736.8314370005464,2.0,1.0,phase_3,,,,,294.0,6.0,98.0,294.0,196.0,245.0,49.0,147.0,orange,hexagon
0.0,5.0,0.5,1.0,7.0,4.0,1850.8400159998928,2.0,1.0,phase_3,,,,,162.0,3.0,108.0,54.0,270.0,162.0,324.0,216.0,blue,diamond
0.0,6.0,1.0,1.0,7.0,6.0,1368.8221909997085,2.0,1.0,phase_3,,,,,204.0,6.0,34.0,136.0,68.0,102.0,170.0,204.0,yellow,I
0.0,5.0,0.5,1.0,7.0,4.0,2130.7876540004145,2.0,1.0,phase_3,,,,,176.0,4.0,132.0,44.0,88.0,176.0,220.0,264.0,blue,diamond
0.0,1.0,0.5,0.0,7.0,1.0,1655.182187999344,2.0,1.0,phase_3,,,,,162.0,3.0,162.0,54.0,324.0,108.0,216.0,270.0,white,square
0.0,6.0,1.0,1.0,7.0,4.0,1317.7423039996938,2.0,1.0,phase_3,,,,,264.0,6.0,44.0,132.0,176.0,264.0,220.0,88.0,yellow,I
0.0,5.0,0.5,1.0,7.0,2.0,1967.138576000252,3.0,1.0,phase_3,,,,,196.0,4.0,245.0,196.0,147.0,98.0,294.0,49.0,blue,diamond
0.0,2.0,1.0,0.0,7.0,6.0,1502.0733900000778,3.0,1.0,phase_3,,,,,117.0,3.0,39.0,234.0,156.0,78.0,195.0,117.0,gray,flipped triangle
0.0,7.0,2.0,1.0,7.0,6.0,1396.989597999891,3.0,1.0,phase_3,,,,,234.0,6.0,117.0,39.0,78.0,195.0,156.0,234.0,cyan,cross
0.0,1.0,0.5,0.0,7.0,2.0,1511.2703739996505,3.0,1.0,phase_3,,,,,102.0,3.0,136.0,102.0,34.0,68.0,170.0,204.0,white,square
0.0,7.0,2.0,1.0,7.0,1.0,1554.0924490005636,3.0,1.0,phase_3,,,,,170.0,5.0,170.0,204.0,68.0,102.0,34.0,136.0,cyan,cross
0.0,8.0,4.0,1.0,7.0,6.0,1500.7055599999148,3.0,1.0,phase_3,,,,,264.0,6.0,44.0,176.0,132.0,88.0,220.0,264.0,orange,hexagon
0.0,6.0,1.0,1.0,7.0,4.0,2782.6487510001243,3.0,1.0,phase_3,,,,,216.0,4.0,324.0,54.0,108.0,216.0,270.0,162.0,yellow,I
0.0,8.0,4.0,1.0,7.0,1.0,2133.011238999643,3.0,1.0,phase_3,,,,,324.0,6.0,324.0,216.0,54.0,108.0,162.0,270.0,orange,hexagon
0.0,8.0,4.0,1.0,7.0,2.0,1695.055592999779,3.0,1.0,phase_3,,,,,324.0,6.0,108.0,324.0,54.0,270.0,162.0,216.0,orange,hexagon
0.0,4.0,4.0,0.0,7.0,3.0,1660.8838570000444,3.0,1.0,phase_3,,,,,270.0,5.0,324.0,216.0,270.0,108.0,54.0,162.0,magenta,triangle
0.0,1.0,0.5,0.0,7.0,3.0,2051.593070999843,3.0,1.0,phase_3,,,,,196.0,4.0,49.0,245.0,196.0,147.0,294.0,98.0,white,square
0.0,5.0,0.5,1.0,7.0,6.0,2086.4933399998336,3.0,1.0,phase_3,,,,,204.0,6.0,102.0,34.0,68.0,136.0,170.0,204.0,blue,diamond
0.0,4.0,4.0,0.0,7.0,3.0,1706.1033459995087,3.0,1.0,phase_3,,,,,264.0,6.0,220.0,176.0,264.0,88.0,132.0,44.0,magenta,triangle
0.0,5.0,0.5,1.0,7.0,4.0,2237.5639280007817,3.0,1.0,phase_3,,,,,195.0,5.0,78.0,39.0,156.0,195.0,234.0,117.0,blue,diamond
0.0,5.0,0.5,1.0,7.0,3.0,1520.0874049996855,3.0,1.0,phase_3,,,,,170.0,5.0,34.0,136.0,170.0,204.0,102.0,68.0,blue,diamond
0.0,7.0,2.0,1.0,7.0,4.0,1181.654779999917,3.0,1.0,phase_3,,,,,220.0,5.0,44.0,132.0,88.0,220.0,264.0,176.0,cyan,cross
0.0,2.0,1.0,0.0,7.0,1.0,1603.1872080002358,3.0,1.0,phase_3,,,,,108.0,2.0,108.0,216.0,324.0,162.0,270.0,54.0,gray,flipped triangle
0.0,4.0,4.0,0.0,7.0,4.0,1829.6155880007063,3.0,1.0,phase_3,,,,,245.0,5.0,147.0,49.0,196.0,245.0,294.0,98.0,magenta,triangle
0.0,2.0,1.0,0.0,7.0,4.0,2835.65264400022,3.0,1.0,phase_3,,,,,117.0,3.0,39.0,234.0,78.0,117.0,195.0,156.0,gray,flipped triangle
0.0,3.0,2.0,0.0,7.0,5.0,2451.4282569998613,3.0,1.0,phase_3,,,,,216.0,4.0,108.0,324.0,162.0,54.0,216.0,270.0,green,circle
0.0,6.0,1.0,1.0,7.0,5.0,1054.5211389999167,4.0,1.0,phase_3,,,,,294.0,6.0,196.0,49.0,98.0,245.0,294.0,147.0,yellow,I
0.0,1.0,0.5,0.0,7.0,4.0,1880.339102999642,4.0,1.0,phase_3,,,,,98.0,2.0,294.0,245.0,196.0,98.0,49.0,147.0,white,square
0.0,1.0,0.5,0.0,7.0,4.0,2954.969990000791,4.0,1.0,phase_3,,,,,102.0,3.0,68.0,170.0,204.0,102.0,136.0,34.0,white,square
0.0,7.0,2.0,1.0,7.0,6.0,3074.9911209995844,4.0,1.0,phase_3,,,,,270.0,5.0,324.0,216.0,54.0,162.0,108.0,270.0,cyan,cross
0.0,8.0,4.0,1.0,7.0,3.0,2091.6717649997736,4.0,1.0,phase_3,,,,,234.0,6.0,39.0,78.0,234.0,117.0,156.0,195.0,orange,hexagon
0.0,7.0,2.0,1.0,7.0,5.0,1224.4945319998806,4.0,1.0,phase_3,,,,,204.0,6.0,136.0,34.0,102.0,170.0,204.0,68.0,cyan,cross
0.0,6.0,1.0,1.0,7.0,6.0,2129.7230930003934,4.0,1.0,phase_3,,,,,195.0,5.0,78.0,156.0,117.0,39.0,234.0,195.0,yellow,I
0.0,4.0,4.0,0.0,7.0,4.0,2662.1481769998354,4.0,1.0,phase_3,,,,,220.0,5.0,44.0,88.0,264.0,220.0,132.0,176.0,magenta,triangle
0.0,8.0,4.0,1.0,7.0,6.0,1450.5558979999478,4.0,1.0,phase_3,,,,,204.0,6.0,170.0,136.0,34.0,68.0,102.0,204.0,orange,hexagon
0.0,3.0,2.0,0.0,7.0,2.0,2236.903375000111,4.0,1.0,phase_3,,,,,196.0,4.0,294.0,196.0,147.0,98.0,245.0,49.0,green,circle
0.0,3.0,2.0,0.0,7.0,2.0,2889.3397440006083,4.0,1.0,phase_3,,,,,176.0,4.0,132.0,176.0,44.0,264.0,88.0,220.0,green,circle
0.0,4.0,4.0,0.0,7.0,1.0,1834.5238700003392,4.0,1.0,phase_3,,,,,204.0,6.0,204.0,68.0,136.0,102.0,34.0,170.0,magenta,triangle
0.0,5.0,0.5,1.0,7.0,5.0,1651.0834000000614,4.0,1.0,phase_3,,,,,162.0,3.0,324.0,108.0,216.0,270.0,162.0,54.0,blue,diamond
0.0,7.0,2.0,1.0,7.0,5.0,1010.2182999999061,4.0,1.0,phase_3,,,,,234.0,6.0,39.0,78.0,117.0,195.0,234.0,156.0,cyan,cross
0.0,2.0,1.0,0.0,7.0,5.0,2921.846053000081,4.0,1.0,phase_3,,,,,54.0,1.0,162.0,270.0,108.0,216.0,54.0,324.0,gray,flipped triangle
0.0,3.0,2.0,0.0,7.0,1.0,2605.9049810000943,4.0,1.0,phase_3,,,,,117.0,3.0,117.0,156.0,195.0,234.0,78.0,39.0,green,circle
0.0,4.0,4.0,0.0,7.0,3.0,1985.5683979994865,4.0,1.0,phase_3,,,,,245.0,5.0,196.0,98.0,245.0,147.0,49.0,294.0,magenta,triangle
0.0,1.0,0.5,0.0,7.0,6.0,1989.057609000156,4.0,1.0,phase_3,,,,,88.0,2.0,176.0,132.0,264.0,220.0,44.0,88.0,white,square
0.0,4.0,4.0,0.0,7.0,5.0,2402.0492800000284,4.0,1.0,phase_3,,,,,234.0,6.0,39.0,78.0,117.0,195.0,234.0,156.0,magenta,triangle
0.0,1.0,0.5,0.0,7.0,3.0,1065.431691000413,4.0,1.0,phase_3,,,,,234.0,6.0,39.0,195.0,234.0,117.0,156.0,78.0,white,square
