raw_reward_magnitude,stim_reward,stepwise_reward_magnitude,paired_with_stopping,quadrant,response,reaction_time,block,num_trial_presentations,which_part,stop_signal_trial_type,left_SSD,right_SSD,accuracy,chosen_bidding_amount,chosen_bidding_level,possible_bid_1,possible_bid_2,possible_bid_3,possible_bid_4,possible_bid_5,possible_bid_6,color_text,shape_text
36.0,1.0,1.0,0.0,2.0,2.0,553.3468510000148,1.0,1.0,part_1,,,,,,,,,,,,,cyan,square
70.0,1.0,1.0,0.0,3.0,3.0,688.9921040001354,1.0,1.0,part_1,,,,,,,,,,,,,cyan,square
106.0,6.0,2.0,1.0,4.0,4.0,514.3277900001522,1.0,1.0,part_1,,,,,,,,,,,,,orange,cross
123.0,6.0,2.0,1.0,4.0,4.0,528.9509350000117,1.0,1.0,part_1,,,,,,,,,,,,,orange,cross
125.0,6.0,2.0,1.0,3.0,3.0,478.5133870000209,1.0,1.0,part_1,,,,,,,,,,,,,orange,cross
43.0,1.0,1.0,0.0,1.0,1.0,372.6921750001111,1.0,1.0,part_1,,,,,,,,,,,,,cyan,square
0.0,7.0,0.0,1.0,3.0,3.0,443.954893999944,1.0,1.0,part_1,,,,,,,,,,,,,yellow,flipped triangle
45.0,1.0,1.0,0.0,4.0,4.0,458.0905189998248,1.0,1.0,part_1,,,,,,,,,,,,,cyan,square
68.0,5.0,1.0,1.0,1.0,1.0,528.6662710000201,1.0,1.0,part_1,,,,,,,,,,,,,magenta,hexagon
411.0,4.0,4.0,0.0,2.0,2.0,371.0373660001096,1.0,1.0,part_1,,,,,,,,,,,,,white,I
125.0,2.0,2.0,0.0,4.0,4.0,399.4982370002162,1.0,1.0,part_1,,,,,,,,,,,,,blue,diamond
207.0,7.0,3.0,1.0,4.0,4.0,358.0950089999533,1.0,1.0,part_1,,,,,,,,,,,,,yellow,flipped triangle
191.0,3.0,3.0,0.0,1.0,1.0,314.4237440001234,1.0,1.0,part_1,,,,,,,,,,,,,green,triangle
190.0,7.0,3.0,1.0,2.0,2.0,382.2286720001102,1.0,1.0,part_1,,,,,,,,,,,,,yellow,flipped triangle
190.0,7.0,3.0,1.0,4.0,4.0,303.2565769999564,1.0,1.0,part_1,,,,,,,,,,,,,yellow,flipped triangle
39.0,5.0,1.0,1.0,3.0,3.0,292.9168469997876,1.0,1.0,part_1,,,,,,,,,,,,,magenta,hexagon
47.0,5.0,1.0,1.0,1.0,1.0,483.0745029998979,1.0,1.0,part_1,,,,,,,,,,,,,magenta,hexagon
84.0,6.0,2.0,1.0,1.0,1.0,488.4647369999584,1.0,1.0,part_1,,,,,,,,,,,,,orange,cross
83.0,6.0,2.0,1.0,1.0,1.0,372.2473899999841,1.0,1.0,part_1,,,,,,,,,,,,,orange,cross
106.0,2.0,2.0,0.0,4.0,4.0,401.6745210001318,1.0,1.0,part_1,,,,,,,,,,,,,blue,diamond
0.0,7.0,0.0,1.0,3.0,3.0,531.7353739999362,1.0,1.0,part_1,,,,,,,,,,,,,yellow,flipped triangle
91.0,6.0,2.0,1.0,2.0,2.0,402.9895360001774,1.0,1.0,part_1,,,,,,,,,,,,,orange,cross
85.0,2.0,2.0,0.0,2.0,2.0,374.4007870000132,1.0,1.0,part_1,,,,,,,,,,,,,blue,diamond
0.0,2.0,0.0,0.0,4.0,4.0,356.1078069999439,1.0,1.0,part_1,,,,,,,,,,,,,blue,diamond
106.0,6.0,2.0,1.0,2.0,2.0,394.1234740000254,1.0,1.0,part_1,,,,,,,,,,,,,orange,cross
38.0,5.0,1.0,1.0,4.0,4.0,558.3932959998492,1.0,1.0,part_1,,,,,,,,,,,,,magenta,hexagon
84.0,2.0,2.0,0.0,1.0,1.0,489.1290069999741,1.0,1.0,part_1,,,,,,,,,,,,,blue,diamond
0.0,1.0,0.0,0.0,2.0,2.0,421.6759650000767,1.0,1.0,part_1,,,,,,,,,,,,,cyan,square
0.0,5.0,0.0,1.0,3.0,3.0,456.5693839999767,1.0,1.0,part_1,,,,,,,,,,,,,magenta,hexagon
177.0,3.0,3.0,0.0,1.0,1.0,408.925212999975,1.0,1.0,part_1,,,,,,,,,,,,,green,triangle
387.0,8.0,4.0,1.0,2.0,2.0,394.8320460001469,1.0,1.0,part_1,,,,,,,,,,,,,gray,circle
68.0,5.0,1.0,1.0,4.0,4.0,312.9620659999546,1.0,1.0,part_1,,,,,,,,,,,,,magenta,hexagon
210.0,7.0,3.0,1.0,4.0,4.0,469.5881550001104,1.0,1.0,part_1,,,,,,,,,,,,,yellow,flipped triangle
210.0,3.0,3.0,0.0,3.0,3.0,624.9772720000237,1.0,1.0,part_1,,,,,,,,,,,,,green,triangle
122.0,2.0,2.0,0.0,4.0,4.0,375.7709820001764,1.0,1.0,part_1,,,,,,,,,,,,,blue,diamond
81.0,2.0,2.0,0.0,3.0,3.0,356.1370780000743,1.0,1.0,part_1,,,,,,,,,,,,,blue,diamond
123.0,2.0,2.0,0.0,1.0,1.0,483.4370839998883,1.0,1.0,part_1,,,,,,,,,,,,,blue,diamond
112.0,6.0,2.0,1.0,2.0,2.0,373.5342469999523,1.0,1.0,part_1,,,,,,,,,,,,,orange,cross
414.0,8.0,4.0,1.0,3.0,3.0,624.5161940000798,1.0,1.0,part_1,,,,,,,,,,,,,gray,circle
209.0,3.0,3.0,0.0,2.0,2.0,393.6933420000059,1.0,1.0,part_1,,,,,,,,,,,,,green,triangle
0.0,4.0,0.0,0.0,1.0,1.0,405.2828480000698,1.0,1.0,part_1,,,,,,,,,,,,,white,I
0.0,2.0,0.0,0.0,4.0,4.0,349.0270199999941,1.0,1.0,part_1,,,,,,,,,,,,,blue,diamond
0.0,7.0,0.0,1.0,1.0,1.0,431.4401469998756,1.0,1.0,part_1,,,,,,,,,,,,,yellow,flipped triangle
117.0,2.0,2.0,0.0,4.0,4.0,451.6407539999818,1.0,1.0,part_1,,,,,,,,,,,,,blue,diamond
47.0,1.0,1.0,0.0,1.0,1.0,369.5281909999721,1.0,1.0,part_1,,,,,,,,,,,,,cyan,square
382.0,4.0,4.0,0.0,3.0,3.0,336.1305890000494,1.0,1.0,part_1,,,,,,,,,,,,,white,I
380.0,8.0,4.0,1.0,4.0,4.0,570.7051909998881,1.0,2.0,part_1,,,,,,,,,,,,,gray,circle
99.0,6.0,2.0,1.0,1.0,1.0,426.0675150001134,1.0,1.0,part_1,,,,,,,,,,,,,orange,cross
417.0,4.0,4.0,0.0,1.0,1.0,400.4928259998905,1.0,1.0,part_1,,,,,,,,,,,,,white,I
394.0,8.0,4.0,1.0,1.0,1.0,397.0301840001866,1.0,1.0,part_1,,,,,,,,,,,,,gray,circle
202.0,7.0,3.0,1.0,1.0,1.0,375.1494189998539,1.0,1.0,part_1,,,,,,,,,,,,,yellow,flipped triangle
0.0,7.0,0.0,1.0,2.0,2.0,500.5821320000905,1.0,1.0,part_1,,,,,,,,,,,,,yellow,flipped triangle
417.0,8.0,4.0,1.0,2.0,2.0,439.0565570001854,1.0,1.0,part_1,,,,,,,,,,,,,gray,circle
0.0,1.0,0.0,0.0,1.0,1.0,460.6752089998736,1.0,1.0,part_1,,,,,,,,,,,,,cyan,square
0.0,6.0,0.0,1.0,3.0,3.0,499.816790000068,1.0,1.0,part_1,,,,,,,,,,,,,orange,cross
0.0,5.0,0.0,1.0,1.0,1.0,508.16596099980416,1.0,1.0,part_1,,,,,,,,,,,,,magenta,hexagon
57.0,1.0,1.0,0.0,3.0,3.0,537.3595610001303,1.0,1.0,part_1,,,,,,,,,,,,,cyan,square
61.0,5.0,1.0,1.0,4.0,4.0,580.3666889999022,1.0,1.0,part_1,,,,,,,,,,,,,magenta,hexagon
0.0,1.0,0.0,0.0,4.0,4.0,543.9068939999743,1.0,1.0,part_1,,,,,,,,,,,,,cyan,square
43.0,5.0,1.0,1.0,4.0,4.0,469.5100179999372,1.0,1.0,part_1,,,,,,,,,,,,,magenta,hexagon
43.0,5.0,1.0,1.0,2.0,2.0,453.0599180000081,1.0,1.0,part_1,,,,,,,,,,,,,magenta,hexagon
181.0,3.0,3.0,0.0,4.0,4.0,534.1605000000982,1.0,1.0,part_1,,,,,,,,,,,,,green,triangle
0.0,6.0,0.0,1.0,1.0,1.0,573.8898329998392,1.0,1.0,part_1,,,,,,,,,,,,,orange,cross
0.0,8.0,0.0,1.0,1.0,1.0,511.7257189999691,1.0,1.0,part_1,,,,,,,,,,,,,gray,circle
384.0,8.0,4.0,1.0,4.0,4.0,561.4758609999626,1.0,1.0,part_1,,,,,,,,,,,,,gray,circle
0.0,7.0,0.0,1.0,3.0,3.0,397.9340890000458,1.0,1.0,part_1,,,,,,,,,,,,,yellow,flipped triangle
81.0,6.0,2.0,1.0,2.0,2.0,454.9164869999913,1.0,1.0,part_1,,,,,,,,,,,,,orange,cross
0.0,8.0,0.0,1.0,2.0,2.0,489.535222999848,1.0,1.0,part_1,,,,,,,,,,,,,gray,circle
95.0,2.0,2.0,0.0,3.0,3.0,528.8792250000824,1.0,1.0,part_1,,,,,,,,,,,,,blue,diamond
36.0,1.0,1.0,0.0,2.0,2.0,534.9867719999111,1.0,1.0,part_1,,,,,,,,,,,,,cyan,square
387.0,4.0,4.0,0.0,4.0,4.0,424.5596529999602,1.0,1.0,part_1,,,,,,,,,,,,,white,I
216.0,3.0,3.0,0.0,1.0,1.0,472.4379080000744,1.0,1.0,part_1,,,,,,,,,,,,,green,triangle
387.0,8.0,4.0,1.0,3.0,3.0,503.86586700005864,1.0,1.0,part_1,,,,,,,,,,,,,gray,circle
53.0,1.0,1.0,0.0,4.0,4.0,572.5192809998134,1.0,1.0,part_1,,,,,,,,,,,,,cyan,square
34.0,5.0,1.0,1.0,4.0,4.0,528.3825379999598,1.0,1.0,part_1,,,,,,,,,,,,,magenta,hexagon
0.0,2.0,0.0,0.0,4.0,4.0,513.0665819999649,1.0,1.0,part_1,,,,,,,,,,,,,blue,diamond
215.0,7.0,3.0,1.0,3.0,3.0,389.1830509999181,1.0,1.0,part_1,,,,,,,,,,,,,yellow,flipped triangle
36.0,5.0,1.0,1.0,1.0,1.0,568.0711210000027,1.0,1.0,part_1,,,,,,,,,,,,,magenta,hexagon
91.0,2.0,2.0,0.0,2.0,2.0,493.3797109999887,1.0,1.0,part_1,,,,,,,,,,,,,blue,diamond
180.0,7.0,3.0,1.0,3.0,3.0,541.655105000018,1.0,1.0,part_1,,,,,,,,,,,,,yellow,flipped triangle
0.0,5.0,0.0,1.0,4.0,4.0,536.9966040000236,1.0,1.0,part_1,,,,,,,,,,,,,magenta,hexagon
195.0,7.0,3.0,1.0,1.0,1.0,476.7277949999879,1.0,1.0,part_1,,,,,,,,,,,,,yellow,flipped triangle
109.0,2.0,2.0,0.0,1.0,1.0,404.9493689999508,1.0,1.0,part_1,,,,,,,,,,,,,blue,diamond
110.0,2.0,2.0,0.0,4.0,4.0,376.6398699999627,1.0,1.0,part_1,,,,,,,,,,,,,blue,diamond
382.0,8.0,4.0,1.0,2.0,2.0,426.0640529998909,1.0,1.0,part_1,,,,,,,,,,,,,gray,circle
388.0,4.0,4.0,0.0,4.0,4.0,464.7993180001322,1.0,1.0,part_1,,,,,,,,,,,,,white,I
219.0,3.0,3.0,0.0,2.0,2.0,573.3906489999754,1.0,1.0,part_1,,,,,,,,,,,,,green,triangle
422.0,8.0,4.0,1.0,2.0,2.0,623.3251999999538,1.0,1.0,part_1,,,,,,,,,,,,,gray,circle
0.0,4.0,0.0,0.0,2.0,2.0,526.4370479999343,1.0,1.0,part_1,,,,,,,,,,,,,white,I
107.0,2.0,2.0,0.0,2.0,2.0,408.5615369999686,1.0,1.0,part_1,,,,,,,,,,,,,blue,diamond
0.0,1.0,0.0,0.0,1.0,1.0,538.3778840000559,1.0,1.0,part_1,,,,,,,,,,,,,cyan,square
423.0,8.0,4.0,1.0,3.0,3.0,623.6162420000255,1.0,1.0,part_1,,,,,,,,,,,,,gray,circle
93.0,6.0,2.0,1.0,3.0,3.0,518.4681410000849,1.0,1.0,part_1,,,,,,,,,,,,,orange,cross
378.0,8.0,4.0,1.0,2.0,2.0,529.1723650000222,1.0,1.0,part_1,,,,,,,,,,,,,gray,circle
87.0,6.0,2.0,1.0,4.0,4.0,486.7747570001484,1.0,1.0,part_1,,,,,,,,,,,,,orange,cross
179.0,7.0,3.0,1.0,3.0,3.0,569.2672960001346,1.0,1.0,part_1,,,,,,,,,,,,,yellow,flipped triangle
27.0,5.0,1.0,1.0,3.0,3.0,557.5549719999344,1.0,1.0,part_1,,,,,,,,,,,,,magenta,hexagon
222.0,7.0,3.0,1.0,4.0,4.0,423.1576839999889,1.0,1.0,part_1,,,,,,,,,,,,,yellow,flipped triangle
401.0,4.0,4.0,0.0,3.0,3.0,489.6481289999883,1.0,1.0,part_1,,,,,,,,,,,,,white,I
0.0,2.0,0.0,0.0,1.0,1.0,418.7359130000914,1.0,1.0,part_1,,,,,,,,,,,,,blue,diamond
0.0,8.0,0.0,1.0,3.0,3.0,548.2201359998271,2.0,1.0,part_1,,,,,,,,,,,,,gray,circle
421.0,8.0,4.0,1.0,1.0,1.0,600.1151519999439,2.0,1.0,part_1,,,,,,,,,,,,,gray,circle
111.0,6.0,2.0,1.0,2.0,2.0,504.90722499989715,2.0,1.0,part_1,,,,,,,,,,,,,orange,cross
63.0,5.0,1.0,1.0,1.0,1.0,531.743274000064,2.0,1.0,part_1,,,,,,,,,,,,,magenta,hexagon
61.0,1.0,1.0,0.0,4.0,4.0,467.9023680000682,2.0,1.0,part_1,,,,,,,,,,,,,cyan,square
423.0,4.0,4.0,0.0,3.0,3.0,524.4069269999727,2.0,1.0,part_1,,,,,,,,,,,,,white,I
73.0,1.0,1.0,0.0,4.0,4.0,514.5584760000474,2.0,1.0,part_1,,,,,,,,,,,,,cyan,square
87.0,2.0,2.0,0.0,2.0,2.0,404.7627729999021,2.0,1.0,part_1,,,,,,,,,,,,,blue,diamond
0.0,8.0,0.0,1.0,4.0,4.0,480.5318290000286,2.0,1.0,part_1,,,,,,,,,,,,,gray,circle
178.0,7.0,3.0,1.0,4.0,4.0,493.5963639998135,2.0,1.0,part_1,,,,,,,,,,,,,yellow,flipped triangle
0.0,6.0,0.0,1.0,2.0,2.0,541.9440069999837,2.0,1.0,part_1,,,,,,,,,,,,,orange,cross
87.0,6.0,2.0,1.0,1.0,1.0,587.811573999943,2.0,1.0,part_1,,,,,,,,,,,,,orange,cross
93.0,2.0,2.0,0.0,2.0,2.0,853.7773359998937,2.0,1.0,part_1,,,,,,,,,,,,,blue,diamond
0.0,6.0,0.0,1.0,2.0,2.0,425.6332080001357,2.0,1.0,part_1,,,,,,,,,,,,,orange,cross
106.0,2.0,2.0,0.0,2.0,2.0,454.3962810000721,2.0,1.0,part_1,,,,,,,,,,,,,blue,diamond
199.0,3.0,3.0,0.0,2.0,2.0,547.3386670000764,2.0,1.0,part_1,,,,,,,,,,,,,green,triangle
412.0,4.0,4.0,0.0,4.0,4.0,528.8740789999338,2.0,1.0,part_1,,,,,,,,,,,,,white,I
78.0,2.0,2.0,0.0,3.0,3.0,821.2761810000302,2.0,1.0,part_1,,,,,,,,,,,,,blue,diamond
0.0,4.0,0.0,0.0,1.0,1.0,489.8735379999834,2.0,1.0,part_1,,,,,,,,,,,,,white,I
32.0,1.0,1.0,0.0,1.0,1.0,603.9832540000134,2.0,1.0,part_1,,,,,,,,,,,,,cyan,square
78.0,6.0,2.0,1.0,3.0,3.0,509.8885429999882,2.0,1.0,part_1,,,,,,,,,,,,,orange,cross
0.0,4.0,0.0,0.0,4.0,4.0,550.693334000016,2.0,1.0,part_1,,,,,,,,,,,,,white,I
0.0,3.0,0.0,0.0,4.0,4.0,492.4323609998282,2.0,1.0,part_1,,,,,,,,,,,,,green,triangle
206.0,7.0,3.0,1.0,2.0,2.0,570.4648460000499,2.0,1.0,part_1,,,,,,,,,,,,,yellow,flipped triangle
47.0,5.0,1.0,1.0,3.0,3.0,430.6630160001532,2.0,1.0,part_1,,,,,,,,,,,,,magenta,hexagon
0.0,6.0,0.0,1.0,4.0,4.0,452.0989400000417,2.0,1.0,part_1,,,,,,,,,,,,,orange,cross
196.0,3.0,3.0,0.0,4.0,4.0,513.3706649999112,2.0,1.0,part_1,,,,,,,,,,,,,green,triangle
217.0,3.0,3.0,0.0,4.0,4.0,561.8602399999872,2.0,1.0,part_1,,,,,,,,,,,,,green,triangle
382.0,8.0,4.0,1.0,1.0,1.0,533.4529930000826,2.0,1.0,part_1,,,,,,,,,,,,,gray,circle
395.0,4.0,4.0,0.0,2.0,2.0,469.2022459998952,2.0,1.0,part_1,,,,,,,,,,,,,white,I
223.0,3.0,3.0,0.0,4.0,4.0,436.3619030000336,2.0,1.0,part_1,,,,,,,,,,,,,green,triangle
187.0,7.0,3.0,1.0,3.0,3.0,429.0762979999272,2.0,1.0,part_1,,,,,,,,,,,,,yellow,flipped triangle
121.0,2.0,2.0,0.0,1.0,1.0,438.7775420000253,2.0,1.0,part_1,,,,,,,,,,,,,blue,diamond
0.0,3.0,0.0,0.0,1.0,1.0,444.8854450001818,2.0,1.0,part_1,,,,,,,,,,,,,green,triangle
92.0,6.0,2.0,1.0,1.0,1.0,532.7115130003222,2.0,1.0,part_1,,,,,,,,,,,,,orange,cross
223.0,7.0,3.0,1.0,1.0,1.0,546.2536309996722,2.0,1.0,part_1,,,,,,,,,,,,,yellow,flipped triangle
184.0,7.0,3.0,1.0,2.0,2.0,569.1416770000615,2.0,1.0,part_1,,,,,,,,,,,,,yellow,flipped triangle
209.0,7.0,3.0,1.0,4.0,4.0,583.7615410000581,2.0,1.0,part_1,,,,,,,,,,,,,yellow,flipped triangle
401.0,4.0,4.0,0.0,1.0,1.0,525.9629110000787,2.0,1.0,part_1,,,,,,,,,,,,,white,I
68.0,1.0,1.0,0.0,3.0,3.0,438.4736729998622,2.0,1.0,part_1,,,,,,,,,,,,,cyan,square
194.0,3.0,3.0,0.0,2.0,2.0,508.0240299998877,2.0,1.0,part_1,,,,,,,,,,,,,green,triangle
396.0,4.0,4.0,0.0,2.0,2.0,528.2384610000008,2.0,1.0,part_1,,,,,,,,,,,,,white,I
401.0,4.0,4.0,0.0,3.0,3.0,628.3409399998163,2.0,1.0,part_1,,,,,,,,,,,,,white,I
53.0,5.0,1.0,1.0,3.0,3.0,520.138821999808,2.0,1.0,part_1,,,,,,,,,,,,,magenta,hexagon
175.0,7.0,3.0,1.0,3.0,3.0,442.7180559996486,2.0,1.0,part_1,,,,,,,,,,,,,yellow,flipped triangle
93.0,2.0,2.0,0.0,3.0,3.0,478.4898339999017,2.0,1.0,part_1,,,,,,,,,,,,,blue,diamond
27.0,1.0,1.0,0.0,1.0,1.0,611.2615090000872,2.0,1.0,part_1,,,,,,,,,,,,,cyan,square
416.0,4.0,4.0,0.0,4.0,4.0,418.8049449999198,2.0,1.0,part_1,,,,,,,,,,,,,white,I
0.0,3.0,0.0,0.0,2.0,2.0,437.2355169998627,2.0,1.0,part_1,,,,,,,,,,,,,green,triangle
53.0,5.0,1.0,1.0,4.0,4.0,662.3981920001825,2.0,1.0,part_1,,,,,,,,,,,,,magenta,hexagon
0.0,5.0,0.0,1.0,3.0,3.0,377.2231810003177,2.0,1.0,part_1,,,,,,,,,,,,,magenta,hexagon
406.0,8.0,4.0,1.0,4.0,4.0,625.7248199999594,2.0,1.0,part_1,,,,,,,,,,,,,gray,circle
108.0,2.0,2.0,0.0,2.0,2.0,478.5926750000726,2.0,1.0,part_1,,,,,,,,,,,,,blue,diamond
93.0,6.0,2.0,1.0,1.0,1.0,449.9833840000065,2.0,1.0,part_1,,,,,,,,,,,,,orange,cross
224.0,7.0,3.0,1.0,3.0,3.0,446.2995859998955,2.0,1.0,part_1,,,,,,,,,,,,,yellow,flipped triangle
380.0,4.0,4.0,0.0,2.0,2.0,407.4302039998656,2.0,1.0,part_1,,,,,,,,,,,,,white,I
207.0,7.0,3.0,1.0,2.0,2.0,475.3166760001477,2.0,1.0,part_1,,,,,,,,,,,,,yellow,flipped triangle
414.0,4.0,4.0,0.0,1.0,1.0,506.65578600001027,2.0,1.0,part_1,,,,,,,,,,,,,white,I
99.0,2.0,2.0,0.0,3.0,3.0,505.64652800039767,2.0,1.0,part_1,,,,,,,,,,,,,blue,diamond
217.0,7.0,3.0,1.0,1.0,1.0,590.3479290000178,2.0,1.0,part_1,,,,,,,,,,,,,yellow,flipped triangle
81.0,6.0,2.0,1.0,4.0,4.0,446.8617140000788,2.0,1.0,part_1,,,,,,,,,,,,,orange,cross
26.0,1.0,1.0,0.0,2.0,2.0,438.0161909998605,2.0,1.0,part_1,,,,,,,,,,,,,cyan,square
117.0,6.0,2.0,1.0,2.0,2.0,525.5187030002162,2.0,1.0,part_1,,,,,,,,,,,,,orange,cross
421.0,4.0,4.0,0.0,2.0,2.0,864.2695929997899,2.0,1.0,part_1,,,,,,,,,,,,,white,I
377.0,4.0,4.0,0.0,3.0,3.0,475.8519560000422,2.0,1.0,part_1,,,,,,,,,,,,,white,I
54.0,1.0,1.0,0.0,1.0,1.0,422.1132229999966,2.0,1.0,part_1,,,,,,,,,,,,,cyan,square
381.0,4.0,4.0,0.0,3.0,3.0,549.2754920001062,2.0,1.0,part_1,,,,,,,,,,,,,white,I
177.0,7.0,3.0,1.0,4.0,4.0,585.7380089996695,2.0,1.0,part_1,,,,,,,,,,,,,yellow,flipped triangle
122.0,6.0,2.0,1.0,1.0,1.0,506.3900180002747,2.0,1.0,part_1,,,,,,,,,,,,,orange,cross
93.0,6.0,2.0,1.0,4.0,4.0,489.7047730000849,2.0,1.0,part_1,,,,,,,,,,,,,orange,cross
396.0,8.0,4.0,1.0,1.0,1.0,422.2453440002027,2.0,1.0,part_1,,,,,,,,,,,,,gray,circle
44.0,1.0,1.0,0.0,4.0,4.0,423.9398129998335,2.0,1.0,part_1,,,,,,,,,,,,,cyan,square
0.0,7.0,0.0,1.0,4.0,4.0,396.8958169998586,2.0,1.0,part_1,,,,,,,,,,,,,yellow,flipped triangle
207.0,3.0,3.0,0.0,1.0,1.0,471.4486699999725,2.0,1.0,part_1,,,,,,,,,,,,,green,triangle
411.0,8.0,4.0,1.0,2.0,2.0,512.7920349996202,2.0,1.0,part_1,,,,,,,,,,,,,gray,circle
0.0,5.0,0.0,1.0,2.0,2.0,489.6243139996841,2.0,1.0,part_1,,,,,,,,,,,,,magenta,hexagon
396.0,4.0,4.0,0.0,1.0,1.0,502.4675570002728,2.0,1.0,part_1,,,,,,,,,,,,,white,I
35.0,1.0,1.0,0.0,1.0,1.0,523.3094200002597,2.0,1.0,part_1,,,,,,,,,,,,,cyan,square
184.0,3.0,3.0,0.0,3.0,3.0,455.400968000049,2.0,1.0,part_1,,,,,,,,,,,,,green,triangle
107.0,6.0,2.0,1.0,3.0,3.0,478.4464520002984,2.0,1.0,part_1,,,,,,,,,,,,,orange,cross
195.0,3.0,3.0,0.0,4.0,4.0,571.504485999867,2.0,1.0,part_1,,,,,,,,,,,,,green,triangle
106.0,6.0,2.0,1.0,3.0,3.0,559.9555779999719,2.0,1.0,part_1,,,,,,,,,,,,,orange,cross
93.0,2.0,2.0,0.0,1.0,1.0,445.7637420000537,2.0,1.0,part_1,,,,,,,,,,,,,blue,diamond
92.0,2.0,2.0,0.0,1.0,1.0,402.0260980000785,2.0,1.0,part_1,,,,,,,,,,,,,blue,diamond
114.0,6.0,2.0,1.0,3.0,3.0,324.8405389999789,2.0,1.0,part_1,,,,,,,,,,,,,orange,cross
0.0,4.0,0.0,0.0,1.0,1.0,416.9602070001019,2.0,1.0,part_1,,,,,,,,,,,,,white,I
406.0,4.0,4.0,0.0,2.0,2.0,545.9057800003393,2.0,1.0,part_1,,,,,,,,,,,,,white,I
114.0,2.0,2.0,0.0,1.0,1.0,505.2556110003934,2.0,1.0,part_1,,,,,,,,,,,,,blue,diamond
58.0,1.0,1.0,0.0,3.0,3.0,415.133054999842,2.0,1.0,part_1,,,,,,,,,,,,,cyan,square
405.0,4.0,4.0,0.0,4.0,4.0,678.3689659996526,2.0,1.0,part_1,,,,,,,,,,,,,white,I
108.0,6.0,2.0,1.0,2.0,2.0,457.2315719997277,2.0,1.0,part_1,,,,,,,,,,,,,orange,cross
0.0,4.0,0.0,0.0,1.0,1.0,415.7004380003855,2.0,1.0,part_1,,,,,,,,,,,,,white,I
423.0,4.0,4.0,0.0,2.0,2.0,573.1384969999453,2.0,1.0,part_1,,,,,,,,,,,,,white,I
0.0,3.0,0.0,0.0,3.0,3.0,473.5900480000055,2.0,1.0,part_1,,,,,,,,,,,,,green,triangle
34.0,5.0,1.0,1.0,3.0,3.0,439.8244960002557,2.0,1.0,part_1,,,,,,,,,,,,,magenta,hexagon
408.0,4.0,4.0,0.0,1.0,1.0,529.0996319999977,2.0,1.0,part_1,,,,,,,,,,,,,white,I
0.0,7.0,0.0,1.0,2.0,2.0,477.0632230001865,2.0,1.0,part_1,,,,,,,,,,,,,yellow,flipped triangle
0.0,4.0,0.0,0.0,3.0,3.0,501.89697699988756,2.0,1.0,part_1,,,,,,,,,,,,,white,I
98.0,6.0,2.0,1.0,1.0,1.0,648.2964179999726,2.0,1.0,part_1,,,,,,,,,,,,,orange,cross
49.0,5.0,1.0,1.0,3.0,3.0,517.0445769999787,2.0,1.0,part_1,,,,,,,,,,,,,magenta,hexagon
61.0,5.0,1.0,1.0,3.0,3.0,489.2072439997719,3.0,1.0,part_1,,,,,,,,,,,,,magenta,hexagon
405.0,4.0,4.0,0.0,4.0,4.0,512.8915279997273,3.0,1.0,part_1,,,,,,,,,,,,,white,I
26.0,5.0,1.0,1.0,2.0,2.0,464.9279909999677,3.0,1.0,part_1,,,,,,,,,,,,,magenta,hexagon
59.0,5.0,1.0,1.0,2.0,2.0,475.4921580001792,3.0,1.0,part_1,,,,,,,,,,,,,magenta,hexagon
209.0,7.0,3.0,1.0,2.0,2.0,419.2477540000254,3.0,1.0,part_1,,,,,,,,,,,,,yellow,flipped triangle
58.0,5.0,1.0,1.0,4.0,4.0,409.1490920000069,3.0,1.0,part_1,,,,,,,,,,,,,magenta,hexagon
68.0,5.0,1.0,1.0,3.0,3.0,402.279733999876,3.0,1.0,part_1,,,,,,,,,,,,,magenta,hexagon
70.0,5.0,1.0,1.0,1.0,1.0,544.5724000001064,3.0,1.0,part_1,,,,,,,,,,,,,magenta,hexagon
181.0,7.0,3.0,1.0,1.0,1.0,503.9150980001068,3.0,1.0,part_1,,,,,,,,,,,,,yellow,flipped triangle
404.0,4.0,4.0,0.0,3.0,3.0,473.6968659999547,3.0,1.0,part_1,,,,,,,,,,,,,white,I
392.0,4.0,4.0,0.0,1.0,1.0,460.9971320001023,3.0,1.0,part_1,,,,,,,,,,,,,white,I
95.0,6.0,2.0,1.0,3.0,3.0,453.7261929999658,3.0,1.0,part_1,,,,,,,,,,,,,orange,cross
53.0,1.0,1.0,0.0,3.0,3.0,354.8027769998043,3.0,1.0,part_1,,,,,,,,,,,,,cyan,square
81.0,6.0,2.0,1.0,3.0,3.0,453.2761049999863,3.0,1.0,part_1,,,,,,,,,,,,,orange,cross
100.0,2.0,2.0,0.0,1.0,1.0,348.4307180001451,3.0,1.0,part_1,,,,,,,,,,,,,blue,diamond
0.0,2.0,0.0,0.0,3.0,3.0,350.8796400001301,3.0,1.0,part_1,,,,,,,,,,,,,blue,diamond
0.0,7.0,0.0,1.0,3.0,3.0,303.495039000154,3.0,1.0,part_1,,,,,,,,,,,,,yellow,flipped triangle
411.0,4.0,4.0,0.0,1.0,1.0,418.4731979999014,3.0,1.0,part_1,,,,,,,,,,,,,white,I
34.0,1.0,1.0,0.0,2.0,2.0,495.5450990000827,3.0,1.0,part_1,,,,,,,,,,,,,cyan,square
0.0,2.0,0.0,0.0,1.0,1.0,506.5235849997407,3.0,1.0,part_1,,,,,,,,,,,,,blue,diamond
106.0,2.0,2.0,0.0,2.0,2.0,471.3128829998823,3.0,1.0,part_1,,,,,,,,,,,,,blue,diamond
0.0,6.0,0.0,1.0,2.0,2.0,451.3921169996138,3.0,1.0,part_1,,,,,,,,,,,,,orange,cross
0.0,6.0,0.0,1.0,1.0,1.0,472.2745130002295,3.0,1.0,part_1,,,,,,,,,,,,,orange,cross
424.0,4.0,4.0,0.0,3.0,3.0,451.0712030000832,3.0,1.0,part_1,,,,,,,,,,,,,white,I
0.0,4.0,0.0,0.0,2.0,2.0,401.778103000197,3.0,1.0,part_1,,,,,,,,,,,,,white,I
61.0,1.0,1.0,0.0,2.0,2.0,387.5208029999157,3.0,1.0,part_1,,,,,,,,,,,,,cyan,square
188.0,3.0,3.0,0.0,3.0,3.0,553.9854500002548,3.0,1.0,part_1,,,,,,,,,,,,,green,triangle
73.0,5.0,1.0,1.0,2.0,2.0,497.1373620001031,3.0,1.0,part_1,,,,,,,,,,,,,magenta,hexagon
222.0,3.0,3.0,0.0,2.0,2.0,475.0433569997767,3.0,1.0,part_1,,,,,,,,,,,,,green,triangle
377.0,8.0,4.0,1.0,2.0,2.0,453.4078100000442,3.0,1.0,part_1,,,,,,,,,,,,,gray,circle
407.0,4.0,4.0,0.0,2.0,2.0,336.5856919999714,3.0,1.0,part_1,,,,,,,,,,,,,white,I
110.0,6.0,2.0,1.0,4.0,4.0,502.30931800024337,3.0,1.0,part_1,,,,,,,,,,,,,orange,cross
214.0,7.0,3.0,1.0,1.0,1.0,426.3491249998878,3.0,1.0,part_1,,,,,,,,,,,,,yellow,flipped triangle
87.0,2.0,2.0,0.0,4.0,4.0,507.0608870000797,3.0,1.0,part_1,,,,,,,,,,,,,blue,diamond
0.0,3.0,0.0,0.0,2.0,2.0,443.7802669999655,3.0,1.0,part_1,,,,,,,,,,,,,green,triangle
201.0,7.0,3.0,1.0,3.0,3.0,364.7519930000271,3.0,1.0,part_1,,,,,,,,,,,,,yellow,flipped triangle
380.0,4.0,4.0,0.0,3.0,3.0,596.4639190001435,3.0,1.0,part_1,,,,,,,,,,,,,white,I
209.0,3.0,3.0,0.0,2.0,2.0,474.6434009998665,3.0,2.0,part_1,,,,,,,,,,,,,green,triangle
0.0,5.0,0.0,1.0,1.0,1.0,619.1452850002861,3.0,1.0,part_1,,,,,,,,,,,,,magenta,hexagon
47.0,1.0,1.0,0.0,1.0,1.0,534.9405530000695,3.0,1.0,part_1,,,,,,,,,,,,,cyan,square
422.0,4.0,4.0,0.0,3.0,3.0,511.82169999992766,3.0,1.0,part_1,,,,,,,,,,,,,white,I
179.0,3.0,3.0,0.0,1.0,1.0,504.51434800015704,3.0,1.0,part_1,,,,,,,,,,,,,green,triangle
0.0,1.0,0.0,0.0,3.0,3.0,503.7106669997229,3.0,1.0,part_1,,,,,,,,,,,,,cyan,square
215.0,3.0,3.0,0.0,3.0,3.0,570.7775070000025,3.0,1.0,part_1,,,,,,,,,,,,,green,triangle
38.0,1.0,1.0,0.0,2.0,2.0,576.201704000141,3.0,1.0,part_1,,,,,,,,,,,,,cyan,square
0.0,4.0,0.0,0.0,1.0,1.0,524.9341319999985,3.0,1.0,part_1,,,,,,,,,,,,,white,I
387.0,4.0,4.0,0.0,1.0,1.0,473.4408119998079,3.0,1.0,part_1,,,,,,,,,,,,,white,I
112.0,2.0,2.0,0.0,3.0,3.0,550.7842470001378,3.0,1.0,part_1,,,,,,,,,,,,,blue,diamond
423.0,8.0,4.0,1.0,4.0,4.0,631.0385860001588,3.0,1.0,part_1,,,,,,,,,,,,,gray,circle
382.0,4.0,4.0,0.0,2.0,2.0,445.1599389999501,3.0,1.0,part_1,,,,,,,,,,,,,white,I
109.0,6.0,2.0,1.0,2.0,2.0,532.1582309998121,3.0,2.0,part_1,,,,,,,,,,,,,orange,cross
205.0,3.0,3.0,0.0,4.0,4.0,619.8538120002013,3.0,1.0,part_1,,,,,,,,,,,,,green,triangle
0.0,8.0,0.0,1.0,1.0,1.0,568.375844000002,3.0,1.0,part_1,,,,,,,,,,,,,gray,circle
215.0,7.0,3.0,1.0,4.0,4.0,606.0917930003598,3.0,1.0,part_1,,,,,,,,,,,,,yellow,flipped triangle
0.0,3.0,0.0,0.0,3.0,3.0,752.911739999945,3.0,1.0,part_1,,,,,,,,,,,,,green,triangle
0.0,5.0,0.0,1.0,1.0,1.0,669.7871639998993,3.0,1.0,part_1,,,,,,,,,,,,,magenta,hexagon
394.0,4.0,4.0,0.0,1.0,1.0,537.6285229999667,3.0,1.0,part_1,,,,,,,,,,,,,white,I
43.0,1.0,1.0,0.0,4.0,4.0,681.1299040000449,3.0,1.0,part_1,,,,,,,,,,,,,cyan,square
34.0,1.0,1.0,0.0,3.0,3.0,656.4166419998401,3.0,1.0,part_1,,,,,,,,,,,,,cyan,square
0.0,1.0,0.0,0.0,4.0,4.0,570.767373000308,3.0,1.0,part_1,,,,,,,,,,,,,cyan,square
43.0,5.0,1.0,1.0,2.0,2.0,547.483476999787,3.0,1.0,part_1,,,,,,,,,,,,,magenta,hexagon
41.0,1.0,1.0,0.0,4.0,4.0,568.1060609999804,3.0,1.0,part_1,,,,,,,,,,,,,cyan,square
214.0,3.0,3.0,0.0,3.0,3.0,506.20108399971286,3.0,1.0,part_1,,,,,,,,,,,,,green,triangle
224.0,3.0,3.0,0.0,4.0,4.0,649.4086289999359,3.0,1.0,part_1,,,,,,,,,,,,,green,triangle
118.0,6.0,2.0,1.0,3.0,3.0,436.0660769998503,3.0,1.0,part_1,,,,,,,,,,,,,orange,cross
43.0,1.0,1.0,0.0,4.0,4.0,467.2075319999749,3.0,1.0,part_1,,,,,,,,,,,,,cyan,square
214.0,3.0,3.0,0.0,3.0,3.0,462.1130740001717,3.0,1.0,part_1,,,,,,,,,,,,,green,triangle
123.0,2.0,2.0,0.0,4.0,4.0,471.1889670002165,3.0,1.0,part_1,,,,,,,,,,,,,blue,diamond
93.0,6.0,2.0,1.0,4.0,4.0,641.7324140002165,3.0,1.0,part_1,,,,,,,,,,,,,orange,cross
201.0,7.0,3.0,1.0,1.0,1.0,719.9700269998175,3.0,1.0,part_1,,,,,,,,,,,,,yellow,flipped triangle
396.0,8.0,4.0,1.0,3.0,3.0,520.2389229998516,3.0,1.0,part_1,,,,,,,,,,,,,gray,circle
175.0,3.0,3.0,0.0,4.0,4.0,611.4027140001781,3.0,1.0,part_1,,,,,,,,,,,,,green,triangle
388.0,8.0,4.0,1.0,1.0,1.0,571.8165399998725,3.0,1.0,part_1,,,,,,,,,,,,,gray,circle
0.0,1.0,0.0,0.0,4.0,4.0,585.0088689999211,3.0,1.0,part_1,,,,,,,,,,,,,cyan,square
54.0,5.0,1.0,1.0,1.0,1.0,556.6460870004448,3.0,1.0,part_1,,,,,,,,,,,,,magenta,hexagon
0.0,1.0,0.0,0.0,1.0,1.0,612.6736659998642,3.0,1.0,part_1,,,,,,,,,,,,,cyan,square
121.0,6.0,2.0,1.0,1.0,1.0,610.5157570000301,3.0,1.0,part_1,,,,,,,,,,,,,orange,cross
378.0,4.0,4.0,0.0,1.0,1.0,605.6963000000906,3.0,1.0,part_1,,,,,,,,,,,,,white,I
405.0,8.0,4.0,1.0,2.0,2.0,514.3349369996031,3.0,1.0,part_1,,,,,,,,,,,,,gray,circle
0.0,2.0,0.0,0.0,1.0,1.0,569.9478269998508,3.0,1.0,part_1,,,,,,,,,,,,,blue,diamond
187.0,3.0,3.0,0.0,2.0,2.0,576.301114999751,3.0,1.0,part_1,,,,,,,,,,,,,green,triangle
0.0,8.0,0.0,1.0,2.0,2.0,536.7284680000921,3.0,1.0,part_1,,,,,,,,,,,,,gray,circle
214.0,7.0,3.0,1.0,2.0,2.0,589.7103530001004,3.0,1.0,part_1,,,,,,,,,,,,,yellow,flipped triangle
177.0,3.0,3.0,0.0,3.0,3.0,567.9738300000281,3.0,1.0,part_1,,,,,,,,,,,,,green,triangle
184.0,7.0,3.0,1.0,3.0,3.0,470.8644820002519,3.0,1.0,part_1,,,,,,,,,,,,,yellow,flipped triangle
81.0,2.0,2.0,0.0,3.0,3.0,501.2665259996538,3.0,1.0,part_1,,,,,,,,,,,,,blue,diamond
380.0,4.0,4.0,0.0,4.0,4.0,620.9608929998467,3.0,1.0,part_1,,,,,,,,,,,,,white,I
0.0,8.0,0.0,1.0,4.0,4.0,507.70868200015684,3.0,1.0,part_1,,,,,,,,,,,,,gray,circle
81.0,2.0,2.0,0.0,4.0,4.0,426.4335450002363,3.0,1.0,part_1,,,,,,,,,,,,,blue,diamond
401.0,8.0,4.0,1.0,3.0,3.0,424.1560609998487,3.0,1.0,part_1,,,,,,,,,,,,,gray,circle
32.0,5.0,1.0,1.0,1.0,1.0,629.3848239997715,3.0,1.0,part_1,,,,,,,,,,,,,magenta,hexagon
207.0,3.0,3.0,0.0,1.0,1.0,705.3320290001466,3.0,1.0,part_1,,,,,,,,,,,,,green,triangle
41.0,5.0,1.0,1.0,3.0,3.0,581.8250409997745,3.0,1.0,part_1,,,,,,,,,,,,,magenta,hexagon
0.0,1.0,0.0,0.0,1.0,1.0,525.3542020000168,3.0,1.0,part_1,,,,,,,,,,,,,cyan,square
68.0,1.0,1.0,0.0,2.0,2.0,405.1389930000368,3.0,1.0,part_1,,,,,,,,,,,,,cyan,square
53.0,1.0,1.0,0.0,3.0,3.0,410.271296999781,3.0,1.0,part_1,,,,,,,,,,,,,cyan,square
424.0,8.0,4.0,1.0,4.0,4.0,521.2905070002307,3.0,1.0,part_1,,,,,,,,,,,,,gray,circle
412.0,4.0,4.0,0.0,4.0,4.0,513.8671250001607,3.0,1.0,part_1,,,,,,,,,,,,,white,I
42.0,1.0,1.0,0.0,4.0,4.0,605.128364000393,3.0,1.0,part_1,,,,,,,,,,,,,cyan,square
53.0,5.0,1.0,1.0,1.0,1.0,606.8329029999404,3.0,1.0,part_1,,,,,,,,,,,,,magenta,hexagon
394.0,8.0,4.0,1.0,4.0,4.0,647.9747680000401,4.0,1.0,part_1,,,,,,,,,,,,,gray,circle
0.0,8.0,0.0,1.0,2.0,2.0,473.8367250001829,4.0,1.0,part_1,,,,,,,,,,,,,gray,circle
412.0,8.0,4.0,1.0,1.0,1.0,486.7181139998138,4.0,1.0,part_1,,,,,,,,,,,,,gray,circle
0.0,7.0,0.0,1.0,4.0,4.0,463.0372860001444,4.0,1.0,part_1,,,,,,,,,,,,,yellow,flipped triangle
215.0,3.0,3.0,0.0,2.0,2.0,526.7459540000345,4.0,1.0,part_1,,,,,,,,,,,,,green,triangle
78.0,2.0,2.0,0.0,3.0,3.0,697.1626409999772,4.0,1.0,part_1,,,,,,,,,,,,,blue,diamond
194.0,7.0,3.0,1.0,4.0,4.0,617.6772720000372,4.0,1.0,part_1,,,,,,,,,,,,,yellow,flipped triangle
78.0,6.0,2.0,1.0,4.0,4.0,532.0963700000902,4.0,1.0,part_1,,,,,,,,,,,,,orange,cross
0.0,3.0,0.0,0.0,1.0,1.0,459.3596209997486,4.0,1.0,part_1,,,,,,,,,,,,,green,triangle
0.0,2.0,0.0,0.0,4.0,4.0,686.5119570002207,4.0,1.0,part_1,,,,,,,,,,,,,blue,diamond
394.0,4.0,4.0,0.0,2.0,2.0,563.7250949998815,4.0,1.0,part_1,,,,,,,,,,,,,white,I
99.0,2.0,2.0,0.0,1.0,1.0,493.3049070000379,4.0,1.0,part_1,,,,,,,,,,,,,blue,diamond
68.0,1.0,1.0,0.0,1.0,1.0,626.550891000079,4.0,1.0,part_1,,,,,,,,,,,,,cyan,square
381.0,8.0,4.0,1.0,4.0,4.0,572.2922640002253,4.0,1.0,part_1,,,,,,,,,,,,,gray,circle
205.0,7.0,3.0,1.0,2.0,2.0,649.1515869997784,4.0,1.0,part_1,,,,,,,,,,,,,yellow,flipped triangle
177.0,7.0,3.0,1.0,1.0,1.0,545.5768430001626,4.0,1.0,part_1,,,,,,,,,,,,,yellow,flipped triangle
0.0,8.0,0.0,1.0,2.0,2.0,497.1713259997159,4.0,1.0,part_1,,,,,,,,,,,,,gray,circle
59.0,1.0,1.0,0.0,1.0,1.0,407.5671179998608,4.0,1.0,part_1,,,,,,,,,,,,,cyan,square
44.0,5.0,1.0,1.0,4.0,4.0,328.1784650002919,4.0,1.0,part_1,,,,,,,,,,,,,magenta,hexagon
0.0,5.0,0.0,1.0,2.0,2.0,387.5479610001093,4.0,1.0,part_1,,,,,,,,,,,,,magenta,hexagon
99.0,6.0,2.0,1.0,1.0,1.0,580.954114999713,4.0,1.0,part_1,,,,,,,,,,,,,orange,cross
380.0,8.0,4.0,1.0,3.0,3.0,718.4275549998347,4.0,1.0,part_1,,,,,,,,,,,,,gray,circle
93.0,2.0,2.0,0.0,4.0,4.0,520.1350219999767,4.0,1.0,part_1,,,,,,,,,,,,,blue,diamond
0.0,5.0,0.0,1.0,2.0,2.0,443.51020299973237,4.0,1.0,part_1,,,,,,,,,,,,,magenta,hexagon
33.0,1.0,1.0,0.0,2.0,2.0,388.82069400006,4.0,1.0,part_1,,,,,,,,,,,,,cyan,square
36.0,5.0,1.0,1.0,3.0,3.0,597.4083840001185,4.0,1.0,part_1,,,,,,,,,,,,,magenta,hexagon
411.0,8.0,4.0,1.0,2.0,2.0,396.4439829996991,4.0,1.0,part_1,,,,,,,,,,,,,gray,circle
98.0,2.0,2.0,0.0,3.0,3.0,467.7969340000345,4.0,1.0,part_1,,,,,,,,,,,,,blue,diamond
42.0,5.0,1.0,1.0,4.0,4.0,539.5874099999673,4.0,1.0,part_1,,,,,,,,,,,,,magenta,hexagon
197.0,3.0,3.0,0.0,2.0,2.0,436.5302149999479,4.0,1.0,part_1,,,,,,,,,,,,,green,triangle
64.0,1.0,1.0,0.0,3.0,3.0,417.0683039997129,4.0,1.0,part_1,,,,,,,,,,,,,cyan,square
45.0,5.0,1.0,1.0,2.0,2.0,484.0607900000577,4.0,1.0,part_1,,,,,,,,,,,,,magenta,hexagon
206.0,3.0,3.0,0.0,1.0,1.0,370.3351609997298,4.0,1.0,part_1,,,,,,,,,,,,,green,triangle
0.0,4.0,0.0,0.0,2.0,2.0,447.4912980003864,4.0,1.0,part_1,,,,,,,,,,,,,white,I
111.0,2.0,2.0,0.0,4.0,4.0,620.4273440002908,4.0,1.0,part_1,,,,,,,,,,,,,blue,diamond
401.0,8.0,4.0,1.0,4.0,4.0,499.5413980000194,4.0,1.0,part_1,,,,,,,,,,,,,gray,circle
412.0,8.0,4.0,1.0,3.0,3.0,465.3723090000312,4.0,1.0,part_1,,,,,,,,,,,,,gray,circle
0.0,6.0,0.0,1.0,1.0,1.0,532.6816440001494,4.0,1.0,part_1,,,,,,,,,,,,,orange,cross
417.0,4.0,4.0,0.0,4.0,4.0,517.9459979999592,4.0,1.0,part_1,,,,,,,,,,,,,white,I
54.0,5.0,1.0,1.0,2.0,2.0,530.7081850000941,4.0,1.0,part_1,,,,,,,,,,,,,magenta,hexagon
190.0,3.0,3.0,0.0,4.0,4.0,616.703791999953,4.0,1.0,part_1,,,,,,,,,,,,,green,triangle
0.0,2.0,0.0,0.0,3.0,3.0,552.7060330000495,4.0,1.0,part_1,,,,,,,,,,,,,blue,diamond
184.0,3.0,3.0,0.0,3.0,3.0,703.9375510003083,4.0,1.0,part_1,,,,,,,,,,,,,green,triangle
63.0,1.0,1.0,0.0,3.0,3.0,547.5183700000343,4.0,1.0,part_1,,,,,,,,,,,,,cyan,square
0.0,6.0,0.0,1.0,2.0,2.0,514.2987350000112,4.0,1.0,part_1,,,,,,,,,,,,,orange,cross
100.0,6.0,2.0,1.0,2.0,2.0,458.807280000201,4.0,1.0,part_1,,,,,,,,,,,,,orange,cross
392.0,8.0,4.0,1.0,1.0,1.0,577.8132820000792,4.0,1.0,part_1,,,,,,,,,,,,,gray,circle
416.0,8.0,4.0,1.0,1.0,1.0,778.9539549999063,4.0,1.0,part_1,,,,,,,,,,,,,gray,circle
0.0,8.0,0.0,1.0,3.0,3.0,774.4109019999996,4.0,1.0,part_1,,,,,,,,,,,,,gray,circle
49.0,1.0,1.0,0.0,4.0,4.0,460.0779769998553,4.0,1.0,part_1,,,,,,,,,,,,,cyan,square
0.0,3.0,0.0,0.0,2.0,2.0,382.6202029999876,4.0,1.0,part_1,,,,,,,,,,,,,green,triangle
404.0,8.0,4.0,1.0,4.0,4.0,353.324075999808,4.0,1.0,part_1,,,,,,,,,,,,,gray,circle
0.0,5.0,0.0,1.0,2.0,2.0,325.2280429996972,4.0,1.0,part_1,,,,,,,,,,,,,magenta,hexagon
64.0,5.0,1.0,1.0,1.0,1.0,386.6165689996705,4.0,1.0,part_1,,,,,,,,,,,,,magenta,hexagon
39.0,1.0,1.0,0.0,1.0,1.0,460.3451510001832,4.0,1.0,part_1,,,,,,,,,,,,,cyan,square
405.0,8.0,4.0,1.0,2.0,2.0,469.8467100001835,4.0,1.0,part_1,,,,,,,,,,,,,gray,circle
219.0,7.0,3.0,1.0,1.0,1.0,412.2401529998569,4.0,1.0,part_1,,,,,,,,,,,,,yellow,flipped triangle
401.0,8.0,4.0,1.0,1.0,1.0,540.501076000055,4.0,1.0,part_1,,,,,,,,,,,,,gray,circle
123.0,6.0,2.0,1.0,4.0,4.0,581.495836999693,4.0,1.0,part_1,,,,,,,,,,,,,orange,cross
178.0,3.0,3.0,0.0,3.0,3.0,398.5938599998917,4.0,1.0,part_1,,,,,,,,,,,,,green,triangle
35.0,5.0,1.0,1.0,4.0,4.0,478.8449299999229,4.0,1.0,part_1,,,,,,,,,,,,,magenta,hexagon
0.0,2.0,0.0,0.0,2.0,2.0,498.6574790000304,4.0,1.0,part_1,,,,,,,,,,,,,blue,diamond
0.0,1.0,0.0,0.0,3.0,3.0,438.6598490000324,4.0,1.0,part_1,,,,,,,,,,,,,cyan,square
65.0,5.0,1.0,1.0,2.0,2.0,412.3176609996335,4.0,1.0,part_1,,,,,,,,,,,,,magenta,hexagon
33.0,5.0,1.0,1.0,1.0,1.0,396.7769159999079,4.0,1.0,part_1,,,,,,,,,,,,,magenta,hexagon
191.0,7.0,3.0,1.0,2.0,2.0,496.8300440000348,4.0,1.0,part_1,,,,,,,,,,,,,yellow,flipped triangle
199.0,7.0,3.0,1.0,3.0,3.0,495.5404060001456,4.0,1.0,part_1,,,,,,,,,,,,,yellow,flipped triangle
85.0,6.0,2.0,1.0,2.0,2.0,480.6267170001774,4.0,1.0,part_1,,,,,,,,,,,,,orange,cross
104.0,6.0,2.0,1.0,3.0,3.0,485.8724739997342,4.0,1.0,part_1,,,,,,,,,,,,,orange,cross
407.0,8.0,4.0,1.0,3.0,3.0,490.3902549999657,4.0,1.0,part_1,,,,,,,,,,,,,gray,circle
201.0,3.0,3.0,0.0,1.0,1.0,623.0970680003338,4.0,1.0,part_1,,,,,,,,,,,,,green,triangle
395.0,8.0,4.0,1.0,3.0,3.0,425.0888420001502,4.0,1.0,part_1,,,,,,,,,,,,,gray,circle
83.0,2.0,2.0,0.0,1.0,1.0,387.5759389998165,4.0,1.0,part_1,,,,,,,,,,,,,blue,diamond
72.0,5.0,1.0,1.0,2.0,2.0,504.6652229998472,4.0,1.0,part_1,,,,,,,,,,,,,magenta,hexagon
215.0,7.0,3.0,1.0,4.0,4.0,513.8448120001158,4.0,1.0,part_1,,,,,,,,,,,,,yellow,flipped triangle
197.0,7.0,3.0,1.0,1.0,1.0,459.9169359998996,4.0,1.0,part_1,,,,,,,,,,,,,yellow,flipped triangle
54.0,1.0,1.0,0.0,2.0,2.0,485.6719990002602,4.0,1.0,part_1,,,,,,,,,,,,,cyan,square
202.0,3.0,3.0,0.0,2.0,2.0,527.0390790001329,4.0,1.0,part_1,,,,,,,,,,,,,green,triangle
417.0,8.0,4.0,1.0,4.0,4.0,385.9380610001608,4.0,1.0,part_1,,,,,,,,,,,,,gray,circle
180.0,3.0,3.0,0.0,1.0,1.0,397.0448390000456,4.0,1.0,part_1,,,,,,,,,,,,,green,triangle
0.0,3.0,0.0,0.0,3.0,3.0,580.292424000163,4.0,1.0,part_1,,,,,,,,,,,,,green,triangle
408.0,8.0,4.0,1.0,3.0,3.0,478.7407359999633,4.0,1.0,part_1,,,,,,,,,,,,,gray,circle
0.0,6.0,0.0,1.0,1.0,1.0,446.2517060001119,4.0,1.0,part_1,,,,,,,,,,,,,orange,cross
72.0,1.0,1.0,0.0,3.0,3.0,562.4849860000722,4.0,1.0,part_1,,,,,,,,,,,,,cyan,square
65.0,1.0,1.0,0.0,2.0,2.0,389.9889940003049,4.0,1.0,part_1,,,,,,,,,,,,,cyan,square
201.0,3.0,3.0,0.0,3.0,3.0,489.0795969999999,4.0,1.0,part_1,,,,,,,,,,,,,green,triangle
57.0,5.0,1.0,1.0,2.0,2.0,409.204599000077,4.0,1.0,part_1,,,,,,,,,,,,,magenta,hexagon
190.0,3.0,3.0,0.0,4.0,4.0,428.2327679998161,4.0,1.0,part_1,,,,,,,,,,,,,green,triangle
0.0,7.0,0.0,1.0,3.0,3.0,470.4859680000481,4.0,1.0,part_1,,,,,,,,,,,,,yellow,flipped triangle
215.0,3.0,3.0,0.0,1.0,1.0,546.6353609999715,4.0,1.0,part_1,,,,,,,,,,,,,green,triangle
380.0,8.0,4.0,1.0,1.0,1.0,539.6809039998516,4.0,1.0,part_1,,,,,,,,,,,,,gray,circle
188.0,7.0,3.0,1.0,2.0,2.0,568.3906159997605,4.0,1.0,part_1,,,,,,,,,,,,,yellow,flipped triangle
196.0,7.0,3.0,1.0,3.0,3.0,453.2819870000821,4.0,1.0,part_1,,,,,,,,,,,,,yellow,flipped triangle
216.0,7.0,3.0,1.0,2.0,2.0,429.9866569999722,4.0,1.0,part_1,,,,,,,,,,,,,yellow,flipped triangle
0.0,3.0,0.0,0.0,4.0,4.0,542.2239930003343,4.0,1.0,part_1,,,,,,,,,,,,,green,triangle
87.0,2.0,2.0,0.0,2.0,2.0,484.9935780002852,4.0,1.0,part_1,,,,,,,,,,,,,blue,diamond
384.0,4.0,4.0,0.0,4.0,4.0,538.5619389999192,4.0,1.0,part_1,,,,,,,,,,,,,white,I
118.0,2.0,2.0,0.0,3.0,3.0,766.3795550001851,4.0,1.0,part_1,,,,,,,,,,,,,blue,diamond
104.0,2.0,2.0,0.0,2.0,2.0,639.1810639997857,4.0,1.0,part_1,,,,,,,,,,,,,blue,diamond
87.0,6.0,2.0,1.0,4.0,4.0,574.5058719999179,4.0,1.0,part_1,,,,,,,,,,,,,orange,cross
0.0,7.0,3.0,1.0,5.0,0.0,0.0,1.0,0.0,part_2,stop,250.0,250.0,4.0,,,,,,,,,yellow,flipped triangle
0.0,5.0,1.0,1.0,6.0,0.0,0.0,1.0,0.0,part_2,stop,300.0,250.0,4.0,,,,,,,,,magenta,hexagon
0.0,5.0,1.0,1.0,5.0,0.0,0.0,1.0,0.0,part_2,stop,300.0,300.0,4.0,,,,,,,,,magenta,hexagon
0.0,4.0,4.0,0.0,5.0,5.0,680.8235240000613,1.0,0.0,part_2,go,350.0,300.0,1.0,,,,,,,,,white,I
0.0,8.0,4.0,1.0,5.0,0.0,0.0,1.0,0.0,part_2,stop,350.0,300.0,4.0,,,,,,,,,gray,circle
0.0,4.0,4.0,0.0,6.0,6.0,862.4332170002162,1.0,0.0,part_2,go,400.0,300.0,1.0,,,,,,,,,white,I
0.0,2.0,2.0,0.0,5.0,5.0,851.0652270001628,1.0,0.0,part_2,go,400.0,300.0,1.0,,,,,,,,,blue,diamond
0.0,5.0,1.0,1.0,6.0,0.0,0.0,1.0,0.0,part_2,stop,400.0,300.0,4.0,,,,,,,,,magenta,hexagon
0.0,6.0,2.0,1.0,5.0,5.0,564.8811340001885,1.0,0.0,part_2,stop,400.0,350.0,3.0,,,,,,,,,orange,cross
0.0,6.0,2.0,1.0,5.0,5.0,842.760028000157,1.0,0.0,part_2,go,350.0,350.0,1.0,,,,,,,,,orange,cross
0.0,4.0,4.0,0.0,6.0,6.0,790.011474000039,1.0,0.0,part_2,go,350.0,350.0,1.0,,,,,,,,,white,I
0.0,4.0,4.0,0.0,6.0,6.0,786.8184320000182,1.0,0.0,part_2,go,350.0,350.0,1.0,,,,,,,,,white,I
0.0,8.0,4.0,1.0,6.0,0.0,0.0,1.0,0.0,part_2,stop,350.0,350.0,4.0,,,,,,,,,gray,circle
0.0,2.0,2.0,0.0,5.0,5.0,875.5953380000392,1.0,0.0,part_2,go,350.0,400.0,1.0,,,,,,,,,blue,diamond
0.0,2.0,2.0,0.0,5.0,5.0,729.2221130001053,1.0,0.0,part_2,go,350.0,400.0,1.0,,,,,,,,,blue,diamond
0.0,2.0,2.0,0.0,6.0,6.0,755.8827099996961,1.0,0.0,part_2,go,350.0,400.0,1.0,,,,,,,,,blue,diamond
0.0,6.0,2.0,1.0,5.0,0.0,0.0,1.0,0.0,part_2,stop,350.0,400.0,4.0,,,,,,,,,orange,cross
0.0,6.0,2.0,1.0,6.0,0.0,0.0,1.0,0.0,part_2,stop,400.0,400.0,4.0,,,,,,,,,orange,cross
0.0,4.0,4.0,0.0,6.0,6.0,606.580464000217,1.0,0.0,part_2,go,400.0,450.0,1.0,,,,,,,,,white,I
0.0,8.0,4.0,1.0,5.0,0.0,0.0,1.0,0.0,part_2,stop,400.0,450.0,4.0,,,,,,,,,gray,circle
0.0,4.0,4.0,0.0,5.0,5.0,776.7049990002306,1.0,0.0,part_2,go,450.0,450.0,1.0,,,,,,,,,white,I
0.0,3.0,3.0,0.0,6.0,6.0,781.4834379996682,1.0,0.0,part_2,go,450.0,450.0,1.0,,,,,,,,,green,triangle
0.0,1.0,1.0,0.0,6.0,6.0,921.0253030000786,1.0,0.0,part_2,go,450.0,450.0,1.0,,,,,,,,,cyan,square
0.0,2.0,2.0,0.0,5.0,5.0,958.2013330000336,1.0,0.0,part_2,go,450.0,450.0,1.0,,,,,,,,,blue,diamond
0.0,6.0,2.0,1.0,5.0,0.0,0.0,1.0,0.0,part_2,stop,450.0,450.0,4.0,,,,,,,,,orange,cross
0.0,3.0,3.0,0.0,5.0,5.0,930.0626650001504,1.0,0.0,part_2,go,500.0,450.0,1.0,,,,,,,,,green,triangle
0.0,6.0,2.0,1.0,5.0,0.0,0.0,1.0,0.0,part_2,stop,500.0,450.0,4.0,,,,,,,,,orange,cross
0.0,8.0,4.0,1.0,5.0,0.0,0.0,1.0,0.0,part_2,stop,550.0,450.0,4.0,,,,,,,,,gray,circle
0.0,3.0,3.0,0.0,6.0,6.0,886.7184000000634,1.0,0.0,part_2,go,600.0,450.0,1.0,,,,,,,,,green,triangle
0.0,3.0,3.0,0.0,6.0,6.0,956.1177790001238,1.0,0.0,part_2,go,600.0,450.0,1.0,,,,,,,,,green,triangle
0.0,4.0,4.0,0.0,5.0,5.0,809.0120510000816,1.0,0.0,part_2,go,600.0,450.0,1.0,,,,,,,,,white,I
0.0,7.0,3.0,1.0,5.0,0.0,0.0,1.0,0.0,part_2,stop,600.0,450.0,4.0,,,,,,,,,yellow,flipped triangle
0.0,2.0,2.0,0.0,5.0,5.0,933.6604180002724,1.0,0.0,part_2,go,650.0,450.0,1.0,,,,,,,,,blue,diamond
0.0,3.0,3.0,0.0,5.0,5.0,983.8795629998458,1.0,0.0,part_2,go,650.0,450.0,1.0,,,,,,,,,green,triangle
0.0,8.0,4.0,1.0,5.0,0.0,0.0,1.0,0.0,part_2,stop,650.0,450.0,4.0,,,,,,,,,gray,circle
0.0,6.0,2.0,1.0,6.0,6.0,1119.8738869998124,1.0,0.0,part_2,go,700.0,450.0,1.0,,,,,,,,,orange,cross
0.0,7.0,3.0,1.0,5.0,5.0,737.0697989999826,2.0,0.0,part_2,stop,700.0,450.0,3.0,,,,,,,,,yellow,flipped triangle
0.0,1.0,1.0,0.0,6.0,6.0,730.929470999854,2.0,0.0,part_2,go,650.0,450.0,1.0,,,,,,,,,cyan,square
0.0,1.0,1.0,0.0,6.0,6.0,857.972097000129,2.0,0.0,part_2,go,650.0,450.0,1.0,,,,,,,,,cyan,square
0.0,2.0,2.0,0.0,6.0,6.0,704.5241619998706,2.0,0.0,part_2,go,650.0,450.0,1.0,,,,,,,,,blue,diamond
0.0,2.0,2.0,0.0,6.0,6.0,1017.245948999971,2.0,0.0,part_2,go,650.0,450.0,1.0,,,,,,,,,blue,diamond
0.0,7.0,3.0,1.0,5.0,5.0,710.879627000395,2.0,0.0,part_2,stop,650.0,450.0,3.0,,,,,,,,,yellow,flipped triangle
0.0,3.0,3.0,0.0,5.0,5.0,822.2844809997696,2.0,0.0,part_2,go,600.0,450.0,1.0,,,,,,,,,green,triangle
0.0,4.0,4.0,0.0,6.0,6.0,755.5126869997366,2.0,0.0,part_2,go,600.0,450.0,1.0,,,,,,,,,white,I
0.0,6.0,2.0,1.0,6.0,6.0,778.6393159999534,2.0,0.0,part_2,go,600.0,450.0,1.0,,,,,,,,,orange,cross
0.0,8.0,4.0,1.0,6.0,0.0,0.0,2.0,0.0,part_2,stop,600.0,450.0,4.0,,,,,,,,,gray,circle
0.0,1.0,1.0,0.0,6.0,6.0,843.6333969998486,2.0,0.0,part_2,go,600.0,500.0,1.0,,,,,,,,,cyan,square
0.0,6.0,2.0,1.0,5.0,5.0,660.4135219999989,2.0,0.0,part_2,go,600.0,500.0,1.0,,,,,,,,,orange,cross
0.0,8.0,4.0,1.0,6.0,6.0,886.4822870000353,2.0,0.0,part_2,go,600.0,500.0,1.0,,,,,,,,,gray,circle
0.0,4.0,4.0,0.0,6.0,6.0,649.8753289997694,2.0,0.0,part_2,go,600.0,500.0,1.0,,,,,,,,,white,I
0.0,7.0,3.0,1.0,5.0,5.0,662.4451479997333,2.0,0.0,part_2,stop,600.0,500.0,3.0,,,,,,,,,yellow,flipped triangle
0.0,1.0,1.0,0.0,5.0,5.0,688.4298049999416,2.0,0.0,part_2,go,550.0,500.0,1.0,,,,,,,,,cyan,square
0.0,3.0,3.0,0.0,5.0,5.0,728.0072959997597,2.0,0.0,part_2,go,550.0,500.0,1.0,,,,,,,,,green,triangle
0.0,6.0,2.0,1.0,5.0,5.0,907.3280799998428,2.0,0.0,part_2,go,550.0,500.0,1.0,,,,,,,,,orange,cross
0.0,6.0,2.0,1.0,6.0,0.0,0.0,2.0,0.0,part_2,stop,550.0,500.0,4.0,,,,,,,,,orange,cross
0.0,3.0,3.0,0.0,5.0,5.0,806.9530880002276,2.0,0.0,part_2,go,550.0,550.0,1.0,,,,,,,,,green,triangle
0.0,7.0,3.0,1.0,6.0,6.0,612.9273869996723,2.0,0.0,part_2,stop,550.0,550.0,3.0,,,,,,,,,yellow,flipped triangle
0.0,8.0,4.0,1.0,5.0,5.0,1205.5562729997291,2.0,0.0,part_2,go,550.0,500.0,1.0,,,,,,,,,gray,circle
0.0,2.0,2.0,0.0,6.0,6.0,772.2989300000336,2.0,0.0,part_2,go,550.0,500.0,1.0,,,,,,,,,blue,diamond
0.0,6.0,2.0,1.0,5.0,0.0,0.0,2.0,0.0,part_2,stop,550.0,500.0,4.0,,,,,,,,,orange,cross
0.0,4.0,4.0,0.0,5.0,5.0,794.0796339998997,2.0,0.0,part_2,go,600.0,500.0,1.0,,,,,,,,,white,I
0.0,6.0,2.0,1.0,5.0,0.0,0.0,2.0,0.0,part_2,stop,600.0,500.0,4.0,,,,,,,,,orange,cross
0.0,5.0,1.0,1.0,6.0,0.0,0.0,2.0,0.0,part_2,stop,650.0,500.0,4.0,,,,,,,,,magenta,hexagon
0.0,1.0,1.0,0.0,5.0,5.0,731.2722930000746,2.0,0.0,part_2,go,650.0,550.0,1.0,,,,,,,,,cyan,square
0.0,7.0,3.0,1.0,6.0,6.0,969.8883279997972,2.0,0.0,part_2,go,650.0,550.0,1.0,,,,,,,,,yellow,flipped triangle
0.0,4.0,4.0,0.0,6.0,6.0,834.1516850000517,2.0,0.0,part_2,go,650.0,550.0,1.0,,,,,,,,,white,I
0.0,2.0,2.0,0.0,5.0,5.0,913.3772889999818,2.0,0.0,part_2,go,650.0,550.0,1.0,,,,,,,,,blue,diamond
0.0,2.0,2.0,0.0,6.0,6.0,873.8481250002224,2.0,0.0,part_2,go,650.0,550.0,1.0,,,,,,,,,blue,diamond
0.0,3.0,3.0,0.0,5.0,5.0,807.6168560000951,2.0,0.0,part_2,go,650.0,550.0,1.0,,,,,,,,,green,triangle
0.0,6.0,2.0,1.0,6.0,0.0,0.0,2.0,0.0,part_2,stop,650.0,550.0,4.0,,,,,,,,,orange,cross
0.0,7.0,3.0,1.0,6.0,0.0,0.0,2.0,0.0,part_2,stop,650.0,600.0,4.0,,,,,,,,,yellow,flipped triangle
0.0,4.0,4.0,0.0,6.0,6.0,630.4548339999201,2.0,0.0,part_2,go,650.0,650.0,1.0,,,,,,,,,white,I
0.0,6.0,2.0,1.0,5.0,0.0,0.0,3.0,0.0,part_2,stop,650.0,650.0,4.0,,,,,,,,,orange,cross
0.0,3.0,3.0,0.0,6.0,6.0,798.6178460000701,3.0,0.0,part_2,go,700.0,650.0,1.0,,,,,,,,,green,triangle
0.0,7.0,3.0,1.0,5.0,5.0,527.7920349999476,3.0,0.0,part_2,stop,700.0,650.0,3.0,,,,,,,,,yellow,flipped triangle
0.0,8.0,4.0,1.0,5.0,5.0,566.9887609997204,3.0,0.0,part_2,stop,650.0,650.0,3.0,,,,,,,,,gray,circle
0.0,8.0,4.0,1.0,6.0,0.0,0.0,3.0,0.0,part_2,stop,600.0,650.0,4.0,,,,,,,,,gray,circle
0.0,2.0,2.0,0.0,5.0,5.0,787.2479040001963,3.0,0.0,part_2,go,600.0,700.0,1.0,,,,,,,,,blue,diamond
0.0,1.0,1.0,0.0,5.0,5.0,949.444928000048,3.0,0.0,part_2,go,600.0,700.0,1.0,,,,,,,,,cyan,square
0.0,4.0,4.0,0.0,5.0,5.0,807.026765000046,3.0,0.0,part_2,go,600.0,700.0,1.0,,,,,,,,,white,I
0.0,1.0,1.0,0.0,5.0,5.0,871.1021789999904,3.0,0.0,part_2,go,600.0,700.0,1.0,,,,,,,,,cyan,square
0.0,1.0,1.0,0.0,6.0,6.0,701.1407060003876,3.0,0.0,part_2,go,600.0,700.0,1.0,,,,,,,,,cyan,square
0.0,5.0,1.0,1.0,5.0,0.0,0.0,3.0,0.0,part_2,stop,600.0,700.0,4.0,,,,,,,,,magenta,hexagon
0.0,3.0,3.0,0.0,6.0,6.0,831.0499379999783,3.0,0.0,part_2,go,650.0,700.0,1.0,,,,,,,,,green,triangle
0.0,4.0,4.0,0.0,6.0,6.0,630.0189710000268,3.0,0.0,part_2,go,650.0,700.0,1.0,,,,,,,,,white,I
0.0,6.0,2.0,1.0,6.0,0.0,0.0,3.0,0.0,part_2,stop,650.0,700.0,4.0,,,,,,,,,orange,cross
0.0,4.0,4.0,0.0,5.0,5.0,745.6358710001041,3.0,0.0,part_2,go,650.0,750.0,1.0,,,,,,,,,white,I
0.0,2.0,2.0,0.0,5.0,5.0,923.3156790000976,3.0,0.0,part_2,go,650.0,750.0,1.0,,,,,,,,,blue,diamond
0.0,5.0,1.0,1.0,5.0,0.0,0.0,3.0,0.0,part_2,stop,650.0,750.0,4.0,,,,,,,,,magenta,hexagon
0.0,7.0,3.0,1.0,6.0,6.0,823.5783000000083,3.0,0.0,part_2,stop,700.0,750.0,3.0,,,,,,,,,yellow,flipped triangle
0.0,2.0,2.0,0.0,6.0,6.0,743.4012050002821,3.0,0.0,part_2,go,700.0,700.0,1.0,,,,,,,,,blue,diamond
0.0,7.0,3.0,1.0,5.0,5.0,824.8566660004144,3.0,0.0,part_2,stop,700.0,700.0,3.0,,,,,,,,,yellow,flipped triangle
0.0,5.0,1.0,1.0,6.0,6.0,563.0633539999508,3.0,0.0,part_2,stop,650.0,700.0,3.0,,,,,,,,,magenta,hexagon
0.0,8.0,4.0,1.0,6.0,0.0,0.0,3.0,0.0,part_2,stop,650.0,650.0,4.0,,,,,,,,,gray,circle
0.0,4.0,4.0,0.0,5.0,5.0,1164.598341999863,3.0,0.0,part_2,go,650.0,700.0,1.0,,,,,,,,,white,I
0.0,1.0,1.0,0.0,6.0,6.0,988.3283620001748,3.0,0.0,part_2,go,650.0,700.0,1.0,,,,,,,,,cyan,square
0.0,1.0,1.0,0.0,6.0,6.0,927.8126160002104,3.0,0.0,part_2,go,650.0,700.0,1.0,,,,,,,,,cyan,square
0.0,6.0,2.0,1.0,5.0,0.0,0.0,3.0,0.0,part_2,stop,650.0,700.0,4.0,,,,,,,,,orange,cross
0.0,2.0,2.0,0.0,5.0,5.0,745.2353929998026,3.0,0.0,part_2,go,700.0,700.0,1.0,,,,,,,,,blue,diamond
0.0,7.0,3.0,1.0,6.0,0.0,0.0,3.0,0.0,part_2,stop,700.0,700.0,4.0,,,,,,,,,yellow,flipped triangle
0.0,3.0,3.0,0.0,6.0,6.0,738.2673079996493,3.0,0.0,part_2,go,700.0,750.0,1.0,,,,,,,,,green,triangle
0.0,5.0,1.0,1.0,6.0,0.0,0.0,3.0,0.0,part_2,stop,700.0,750.0,4.0,,,,,,,,,magenta,hexagon
0.0,8.0,4.0,1.0,5.0,5.0,853.2367069997235,3.0,0.0,part_2,go,700.0,800.0,1.0,,,,,,,,,gray,circle
0.0,3.0,3.0,0.0,5.0,5.0,946.544084999914,3.0,0.0,part_2,go,700.0,800.0,1.0,,,,,,,,,green,triangle
0.0,7.0,3.0,1.0,6.0,6.0,922.0927040000788,3.0,0.0,part_2,go,700.0,800.0,1.0,,,,,,,,,yellow,flipped triangle
0.0,3.0,3.0,0.0,5.0,5.0,1124.4556050000938,3.0,0.0,part_2,go,700.0,800.0,1.0,,,,,,,,,green,triangle
0.0,7.0,3.0,1.0,6.0,6.0,534.1618379998181,3.0,0.0,part_2,stop,700.0,800.0,3.0,,,,,,,,,yellow,flipped triangle
0.0,8.0,4.0,1.0,6.0,6.0,671.8284890002906,3.0,0.0,part_2,go,700.0,750.0,1.0,,,,,,,,,gray,circle
0.0,5.0,1.0,1.0,5.0,5.0,770.3437320001285,4.0,0.0,part_2,stop,700.0,750.0,3.0,,,,,,,,,magenta,hexagon
0.0,1.0,1.0,0.0,6.0,6.0,369.3214159998206,4.0,0.0,part_2,go,650.0,750.0,1.0,,,,,,,,,cyan,square
0.0,7.0,3.0,1.0,6.0,6.0,393.219150999812,4.0,0.0,part_2,stop,650.0,750.0,3.0,,,,,,,,,yellow,flipped triangle
0.0,3.0,3.0,0.0,5.0,5.0,500.1291929997933,4.0,0.0,part_2,go,650.0,700.0,1.0,,,,,,,,,green,triangle
0.0,3.0,3.0,0.0,6.0,6.0,468.163825999909,4.0,0.0,part_2,go,650.0,700.0,1.0,,,,,,,,,green,triangle
0.0,2.0,2.0,0.0,6.0,6.0,508.33125100007237,4.0,0.0,part_2,go,650.0,700.0,1.0,,,,,,,,,blue,diamond
0.0,1.0,1.0,0.0,6.0,6.0,834.2992790003336,4.0,0.0,part_2,go,650.0,700.0,1.0,,,,,,,,,cyan,square
0.0,5.0,1.0,1.0,5.0,5.0,472.3739440000827,4.0,0.0,part_2,go,650.0,700.0,1.0,,,,,,,,,magenta,hexagon
0.0,1.0,1.0,0.0,5.0,5.0,956.6073150003832,4.0,0.0,part_2,go,650.0,700.0,1.0,,,,,,,,,cyan,square
0.0,5.0,1.0,1.0,6.0,6.0,607.1457689999988,4.0,0.0,part_2,stop,650.0,700.0,3.0,,,,,,,,,magenta,hexagon
0.0,5.0,1.0,1.0,6.0,6.0,733.0206889996589,4.0,0.0,part_2,stop,650.0,650.0,3.0,,,,,,,,,magenta,hexagon
0.0,8.0,4.0,1.0,5.0,5.0,473.869446000208,4.0,0.0,part_2,stop,650.0,600.0,3.0,,,,,,,,,gray,circle
0.0,5.0,1.0,1.0,5.0,5.0,746.9627219998074,4.0,0.0,part_2,go,600.0,600.0,1.0,,,,,,,,,magenta,hexagon
0.0,4.0,4.0,0.0,5.0,5.0,880.9979160000694,4.0,0.0,part_2,go,600.0,600.0,1.0,,,,,,,,,white,I
0.0,3.0,3.0,0.0,5.0,5.0,689.5281380002416,4.0,0.0,part_2,go,600.0,600.0,1.0,,,,,,,,,green,triangle
0.0,8.0,4.0,1.0,5.0,5.0,730.9816339998179,4.0,0.0,part_2,stop,600.0,600.0,3.0,,,,,,,,,gray,circle
0.0,7.0,3.0,1.0,5.0,0.0,0.0,4.0,0.0,part_2,stop,550.0,600.0,4.0,,,,,,,,,yellow,flipped triangle
0.0,2.0,2.0,0.0,5.0,5.0,758.9876990000448,4.0,0.0,part_2,go,600.0,600.0,1.0,,,,,,,,,blue,diamond
0.0,7.0,3.0,1.0,6.0,0.0,0.0,4.0,0.0,part_2,stop,600.0,600.0,4.0,,,,,,,,,yellow,flipped triangle
0.0,7.0,3.0,1.0,6.0,6.0,852.1749020001153,4.0,0.0,part_2,go,600.0,650.0,1.0,,,,,,,,,yellow,flipped triangle
0.0,6.0,2.0,1.0,5.0,0.0,0.0,4.0,0.0,part_2,stop,600.0,650.0,4.0,,,,,,,,,orange,cross
0.0,1.0,1.0,0.0,6.0,6.0,538.8511589999325,4.0,0.0,part_2,go,650.0,650.0,1.0,,,,,,,,,cyan,square
0.0,1.0,1.0,0.0,5.0,5.0,928.8924910001696,4.0,0.0,part_2,go,650.0,650.0,1.0,,,,,,,,,cyan,square
0.0,2.0,2.0,0.0,6.0,6.0,781.2173699999221,4.0,0.0,part_2,go,650.0,650.0,1.0,,,,,,,,,blue,diamond
0.0,4.0,4.0,0.0,5.0,5.0,434.3320899997707,4.0,0.0,part_2,go,650.0,650.0,1.0,,,,,,,,,white,I
0.0,1.0,1.0,0.0,5.0,5.0,785.3017550000914,4.0,0.0,part_2,go,650.0,650.0,1.0,,,,,,,,,cyan,square
0.0,1.0,1.0,0.0,6.0,6.0,815.5449200003204,4.0,0.0,part_2,go,650.0,650.0,1.0,,,,,,,,,cyan,square
0.0,5.0,1.0,1.0,6.0,6.0,370.9676799999215,4.0,0.0,part_2,go,650.0,650.0,1.0,,,,,,,,,magenta,hexagon
0.0,4.0,4.0,0.0,6.0,6.0,609.57011399978,4.0,0.0,part_2,go,650.0,650.0,1.0,,,,,,,,,white,I
0.0,4.0,4.0,0.0,5.0,5.0,497.1200400000271,4.0,0.0,part_2,go,650.0,650.0,1.0,,,,,,,,,white,I
0.0,5.0,1.0,1.0,6.0,6.0,853.4813890000805,4.0,0.0,part_2,stop,650.0,650.0,3.0,,,,,,,,,magenta,hexagon
0.0,2.0,2.0,0.0,6.0,6.0,704.5536589998846,4.0,0.0,part_2,go,650.0,600.0,1.0,,,,,,,,,blue,diamond
0.0,8.0,4.0,1.0,5.0,5.0,440.8893049999278,4.0,0.0,part_2,go,650.0,600.0,1.0,,,,,,,,,gray,circle
0.0,2.0,2.0,0.0,5.0,5.0,428.568260999782,4.0,0.0,part_2,go,650.0,600.0,1.0,,,,,,,,,blue,diamond
0.0,6.0,2.0,1.0,5.0,0.0,0.0,4.0,0.0,part_2,stop,650.0,600.0,4.0,,,,,,,,,orange,cross
0.0,3.0,3.0,0.0,6.0,6.0,504.6137600002112,4.0,0.0,part_2,go,700.0,600.0,1.0,,,,,,,,,green,triangle
0.0,6.0,2.0,1.0,5.0,5.0,798.1111399999463,5.0,0.0,part_2,stop,700.0,600.0,3.0,,,,,,,,,orange,cross
0.0,1.0,1.0,0.0,6.0,6.0,909.295709000162,5.0,0.0,part_2,go,650.0,600.0,1.0,,,,,,,,,cyan,square
0.0,7.0,3.0,1.0,6.0,6.0,502.79756399959297,5.0,0.0,part_2,stop,650.0,600.0,3.0,,,,,,,,,yellow,flipped triangle
0.0,8.0,4.0,1.0,6.0,0.0,0.0,5.0,0.0,part_2,stop,650.0,550.0,4.0,,,,,,,,,gray,circle
0.0,3.0,3.0,0.0,5.0,5.0,646.7365590001464,5.0,0.0,part_2,go,650.0,600.0,1.0,,,,,,,,,green,triangle
0.0,8.0,4.0,1.0,6.0,6.0,786.436029000015,5.0,0.0,part_2,stop,650.0,600.0,3.0,,,,,,,,,gray,circle
0.0,3.0,3.0,0.0,6.0,6.0,1101.0342479999051,5.0,0.0,part_2,go,650.0,550.0,1.0,,,,,,,,,green,triangle
0.0,3.0,3.0,0.0,5.0,5.0,860.1284830001532,5.0,0.0,part_2,go,650.0,550.0,1.0,,,,,,,,,green,triangle
0.0,6.0,2.0,1.0,6.0,6.0,815.3967600001124,5.0,0.0,part_2,go,650.0,550.0,1.0,,,,,,,,,orange,cross
0.0,1.0,1.0,0.0,5.0,5.0,726.7232160002095,5.0,0.0,part_2,go,650.0,550.0,1.0,,,,,,,,,cyan,square
0.0,5.0,1.0,1.0,5.0,5.0,723.8851819997763,5.0,0.0,part_2,stop,650.0,550.0,3.0,,,,,,,,,magenta,hexagon
0.0,5.0,1.0,1.0,5.0,5.0,432.5556789999609,5.0,0.0,part_2,stop,600.0,550.0,3.0,,,,,,,,,magenta,hexagon
0.0,1.0,1.0,0.0,6.0,6.0,500.0675420001244,5.0,0.0,part_2,go,550.0,550.0,1.0,,,,,,,,,cyan,square
0.0,1.0,1.0,0.0,6.0,6.0,469.179621999956,5.0,0.0,part_2,go,550.0,550.0,1.0,,,,,,,,,cyan,square
0.0,7.0,3.0,1.0,5.0,0.0,0.0,5.0,0.0,part_2,stop,550.0,550.0,4.0,,,,,,,,,yellow,flipped triangle
0.0,2.0,2.0,0.0,6.0,6.0,628.4760250000545,5.0,0.0,part_2,go,600.0,550.0,1.0,,,,,,,,,blue,diamond
0.0,8.0,4.0,1.0,5.0,0.0,0.0,5.0,0.0,part_2,stop,600.0,550.0,4.0,,,,,,,,,gray,circle
0.0,5.0,1.0,1.0,6.0,6.0,431.17504099973297,5.0,0.0,part_2,stop,650.0,550.0,3.0,,,,,,,,,magenta,hexagon
0.0,5.0,1.0,1.0,6.0,6.0,489.8561230002087,5.0,0.0,part_2,stop,650.0,500.0,3.0,,,,,,,,,magenta,hexagon
0.0,4.0,4.0,0.0,6.0,6.0,686.6958880000311,5.0,0.0,part_2,go,650.0,450.0,1.0,,,,,,,,,white,I
0.0,7.0,3.0,1.0,6.0,0.0,0.0,5.0,0.0,part_2,stop,650.0,450.0,4.0,,,,,,,,,yellow,flipped triangle
0.0,6.0,2.0,1.0,5.0,0.0,0.0,5.0,0.0,part_2,stop,650.0,500.0,4.0,,,,,,,,,orange,cross
0.0,5.0,1.0,1.0,5.0,5.0,619.239220000054,5.0,0.0,part_2,go,700.0,500.0,1.0,,,,,,,,,magenta,hexagon
0.0,7.0,3.0,1.0,6.0,6.0,310.4089309999835,5.0,0.0,part_2,go,700.0,500.0,1.0,,,,,,,,,yellow,flipped triangle
0.0,4.0,4.0,0.0,6.0,6.0,753.2775210002001,5.0,0.0,part_2,go,700.0,500.0,1.0,,,,,,,,,white,I
0.0,6.0,2.0,1.0,5.0,0.0,0.0,5.0,0.0,part_2,stop,700.0,500.0,4.0,,,,,,,,,orange,cross
0.0,8.0,4.0,1.0,5.0,5.0,546.5624270000262,5.0,0.0,part_2,stop,750.0,500.0,3.0,,,,,,,,,gray,circle
0.0,1.0,1.0,0.0,5.0,5.0,1090.959994000059,5.0,0.0,part_2,go,700.0,500.0,1.0,,,,,,,,,cyan,square
0.0,5.0,1.0,1.0,5.0,5.0,899.6033379999062,5.0,0.0,part_2,go,700.0,500.0,1.0,,,,,,,,,magenta,hexagon
0.0,3.0,3.0,0.0,5.0,5.0,838.2856680000259,5.0,0.0,part_2,go,700.0,500.0,1.0,,,,,,,,,green,triangle
0.0,4.0,4.0,0.0,6.0,6.0,684.8267539999142,5.0,0.0,part_2,go,700.0,500.0,1.0,,,,,,,,,white,I
0.0,3.0,3.0,0.0,5.0,5.0,388.2581709999613,5.0,0.0,part_2,go,700.0,500.0,1.0,,,,,,,,,green,triangle
0.0,8.0,4.0,1.0,6.0,6.0,415.2471060001517,5.0,0.0,part_2,stop,700.0,500.0,3.0,,,,,,,,,gray,circle
0.0,8.0,4.0,1.0,6.0,6.0,742.20949499977,5.0,0.0,part_2,go,700.0,450.0,1.0,,,,,,,,,gray,circle
0.0,1.0,1.0,0.0,5.0,5.0,738.2214580002255,5.0,0.0,part_2,go,700.0,450.0,1.0,,,,,,,,,cyan,square
0.0,3.0,3.0,0.0,6.0,6.0,794.8141239999131,5.0,0.0,part_2,go,700.0,450.0,1.0,,,,,,,,,green,triangle
0.0,7.0,3.0,1.0,5.0,5.0,424.0476499999204,6.0,0.0,part_2,stop,700.0,450.0,3.0,,,,,,,,,yellow,flipped triangle
0.0,2.0,2.0,0.0,5.0,5.0,724.4556169998759,6.0,0.0,part_2,go,650.0,450.0,1.0,,,,,,,,,blue,diamond
0.0,1.0,1.0,0.0,5.0,5.0,830.7290900002045,6.0,0.0,part_2,go,650.0,450.0,1.0,,,,,,,,,cyan,square
0.0,2.0,2.0,0.0,6.0,6.0,931.3841670000328,6.0,0.0,part_2,go,650.0,450.0,1.0,,,,,,,,,blue,diamond
0.0,1.0,1.0,0.0,5.0,5.0,387.8892710004038,6.0,0.0,part_2,go,650.0,450.0,1.0,,,,,,,,,cyan,square
0.0,8.0,4.0,1.0,6.0,6.0,529.4130720003523,6.0,0.0,part_2,go,650.0,450.0,1.0,,,,,,,,,gray,circle
0.0,8.0,4.0,1.0,5.0,5.0,583.119287000045,6.0,0.0,part_2,stop,650.0,450.0,3.0,,,,,,,,,gray,circle
0.0,6.0,2.0,1.0,6.0,6.0,682.5732450001851,6.0,0.0,part_2,go,600.0,450.0,1.0,,,,,,,,,orange,cross
0.0,2.0,2.0,0.0,5.0,5.0,392.7718809995895,6.0,0.0,part_2,go,600.0,450.0,1.0,,,,,,,,,blue,diamond
0.0,4.0,4.0,0.0,5.0,5.0,576.2589450000632,6.0,0.0,part_2,go,600.0,450.0,1.0,,,,,,,,,white,I
0.0,5.0,1.0,1.0,6.0,6.0,709.850629000357,6.0,0.0,part_2,go,600.0,450.0,1.0,,,,,,,,,magenta,hexagon
0.0,5.0,1.0,1.0,6.0,0.0,0.0,6.0,0.0,part_2,stop,600.0,450.0,4.0,,,,,,,,,magenta,hexagon
0.0,6.0,2.0,1.0,6.0,0.0,0.0,6.0,0.0,part_2,stop,600.0,500.0,4.0,,,,,,,,,orange,cross
0.0,7.0,3.0,1.0,5.0,5.0,552.7300660000947,6.0,0.0,part_2,stop,600.0,550.0,3.0,,,,,,,,,yellow,flipped triangle
0.0,2.0,2.0,0.0,5.0,5.0,501.7272380000577,6.0,0.0,part_2,go,550.0,550.0,1.0,,,,,,,,,blue,diamond
0.0,7.0,3.0,1.0,6.0,6.0,568.0990920000113,6.0,0.0,part_2,go,550.0,550.0,1.0,,,,,,,,,yellow,flipped triangle
0.0,6.0,2.0,1.0,6.0,6.0,678.641584000161,6.0,0.0,part_2,stop,550.0,550.0,3.0,,,,,,,,,orange,cross
0.0,1.0,1.0,0.0,6.0,6.0,559.3599509998057,6.0,0.0,part_2,go,550.0,500.0,1.0,,,,,,,,,cyan,square
0.0,4.0,4.0,0.0,6.0,6.0,559.6673700001702,6.0,0.0,part_2,go,550.0,500.0,1.0,,,,,,,,,white,I
0.0,4.0,4.0,0.0,5.0,5.0,718.8898560002599,6.0,0.0,part_2,go,550.0,500.0,1.0,,,,,,,,,white,I
0.0,5.0,1.0,1.0,6.0,6.0,532.1284990000095,6.0,0.0,part_2,stop,550.0,500.0,3.0,,,,,,,,,magenta,hexagon
0.0,3.0,3.0,0.0,6.0,6.0,379.1926720000447,6.0,0.0,part_2,go,550.0,450.0,1.0,,,,,,,,,green,triangle
0.0,5.0,1.0,1.0,5.0,5.0,590.6313610003053,6.0,0.0,part_2,stop,550.0,450.0,3.0,,,,,,,,,magenta,hexagon
0.0,3.0,3.0,0.0,5.0,5.0,922.4077939998097,6.0,0.0,part_2,go,500.0,450.0,1.0,,,,,,,,,green,triangle
0.0,3.0,3.0,0.0,6.0,6.0,1076.2504220001574,6.0,0.0,part_2,go,500.0,450.0,1.0,,,,,,,,,green,triangle
0.0,3.0,3.0,0.0,6.0,6.0,785.7799900002647,6.0,0.0,part_2,go,500.0,450.0,1.0,,,,,,,,,green,triangle
0.0,5.0,1.0,1.0,5.0,0.0,0.0,6.0,0.0,part_2,stop,500.0,450.0,4.0,,,,,,,,,magenta,hexagon
0.0,8.0,4.0,1.0,5.0,5.0,589.0487100000428,6.0,0.0,part_2,stop,550.0,450.0,3.0,,,,,,,,,gray,circle
0.0,2.0,2.0,0.0,5.0,5.0,604.5507869998801,6.0,0.0,part_2,go,500.0,450.0,1.0,,,,,,,,,blue,diamond
0.0,7.0,3.0,1.0,5.0,5.0,401.611917000082,6.0,0.0,part_2,go,500.0,450.0,1.0,,,,,,,,,yellow,flipped triangle
0.0,8.0,4.0,1.0,6.0,6.0,570.6305600001542,6.0,0.0,part_2,stop,500.0,450.0,3.0,,,,,,,,,gray,circle
0.0,2.0,2.0,0.0,6.0,6.0,541.4248560000487,6.0,0.0,part_2,go,500.0,400.0,1.0,,,,,,,,,blue,diamond
0.0,7.0,3.0,1.0,6.0,6.0,382.9071129998738,6.0,0.0,part_2,go,500.0,400.0,1.0,,,,,,,,,yellow,flipped triangle
0.0,6.0,2.0,1.0,6.0,0.0,0.0,6.0,0.0,part_2,stop,500.0,400.0,4.0,,,,,,,,,orange,cross
0.0,2.0,2.0,0.0,6.0,6.0,603.830114000175,6.0,0.0,part_2,go,500.0,450.0,1.0,,,,,,,,,blue,diamond
0.0,4.0,4.0,0.0,5.0,5.0,403.4385780000775,6.0,0.0,part_2,go,500.0,450.0,1.0,,,,,,,,,white,I
0.0,3.0,3.0,0.0,5.0,5.0,399.0461309999773,7.0,0.0,part_2,go,500.0,450.0,1.0,,,,,,,,,green,triangle
0.0,1.0,1.0,0.0,5.0,5.0,729.5375839998997,7.0,0.0,part_2,go,500.0,450.0,1.0,,,,,,,,,cyan,square
0.0,7.0,3.0,1.0,6.0,0.0,0.0,7.0,0.0,part_2,stop,500.0,450.0,4.0,,,,,,,,,yellow,flipped triangle
0.0,4.0,4.0,0.0,5.0,5.0,545.2066319999176,7.0,0.0,part_2,go,500.0,500.0,1.0,,,,,,,,,white,I
0.0,6.0,2.0,1.0,6.0,0.0,0.0,7.0,0.0,part_2,stop,500.0,500.0,4.0,,,,,,,,,orange,cross
0.0,5.0,1.0,1.0,6.0,6.0,512.4817159999111,7.0,0.0,part_2,go,500.0,550.0,1.0,,,,,,,,,magenta,hexagon
0.0,3.0,3.0,0.0,6.0,6.0,850.5711600000723,7.0,0.0,part_2,go,500.0,550.0,1.0,,,,,,,,,green,triangle
0.0,8.0,4.0,1.0,6.0,6.0,655.2747780001482,7.0,0.0,part_2,stop,500.0,550.0,3.0,,,,,,,,,gray,circle
0.0,2.0,2.0,0.0,5.0,5.0,700.8470330001728,7.0,0.0,part_2,go,500.0,500.0,1.0,,,,,,,,,blue,diamond
0.0,8.0,4.0,1.0,6.0,0.0,0.0,7.0,0.0,part_2,stop,500.0,500.0,4.0,,,,,,,,,gray,circle
0.0,2.0,2.0,0.0,5.0,5.0,333.0133999997997,7.0,0.0,part_2,go,500.0,550.0,1.0,,,,,,,,,blue,diamond
0.0,4.0,4.0,0.0,5.0,5.0,619.8342790003153,7.0,0.0,part_2,go,500.0,550.0,1.0,,,,,,,,,white,I
0.0,4.0,4.0,0.0,6.0,6.0,1048.0623299999934,7.0,0.0,part_2,go,500.0,550.0,1.0,,,,,,,,,white,I
0.0,3.0,3.0,0.0,6.0,6.0,799.7535229997084,7.0,0.0,part_2,go,500.0,550.0,1.0,,,,,,,,,green,triangle
0.0,7.0,3.0,1.0,5.0,0.0,0.0,7.0,0.0,part_2,stop,500.0,550.0,4.0,,,,,,,,,yellow,flipped triangle
0.0,2.0,2.0,0.0,6.0,6.0,605.1789199996165,7.0,0.0,part_2,go,550.0,550.0,1.0,,,,,,,,,blue,diamond
0.0,2.0,2.0,0.0,5.0,5.0,700.9040830002959,7.0,0.0,part_2,go,550.0,550.0,1.0,,,,,,,,,blue,diamond
0.0,1.0,1.0,0.0,5.0,5.0,719.7683649997089,7.0,0.0,part_2,go,550.0,550.0,1.0,,,,,,,,,cyan,square
0.0,8.0,4.0,1.0,5.0,5.0,748.9024249998693,7.0,0.0,part_2,go,550.0,550.0,1.0,,,,,,,,,gray,circle
0.0,5.0,1.0,1.0,5.0,0.0,0.0,7.0,0.0,part_2,stop,550.0,550.0,4.0,,,,,,,,,magenta,hexagon
0.0,8.0,4.0,1.0,6.0,6.0,630.6990269999915,7.0,0.0,part_2,go,600.0,550.0,1.0,,,,,,,,,gray,circle
0.0,1.0,1.0,0.0,5.0,5.0,767.7158339997732,7.0,0.0,part_2,go,600.0,550.0,1.0,,,,,,,,,cyan,square
0.0,3.0,3.0,0.0,6.0,6.0,603.3500439998534,7.0,0.0,part_2,go,600.0,550.0,1.0,,,,,,,,,green,triangle
0.0,8.0,4.0,1.0,5.0,5.0,751.8582359998618,7.0,0.0,part_2,stop,600.0,550.0,3.0,,,,,,,,,gray,circle
0.0,6.0,2.0,1.0,5.0,0.0,0.0,7.0,0.0,part_2,stop,550.0,550.0,4.0,,,,,,,,,orange,cross
0.0,2.0,2.0,0.0,6.0,6.0,596.1297810003998,7.0,0.0,part_2,go,600.0,550.0,1.0,,,,,,,,,blue,diamond
0.0,4.0,4.0,0.0,5.0,5.0,435.1708799999869,7.0,0.0,part_2,go,600.0,550.0,1.0,,,,,,,,,white,I
0.0,8.0,4.0,1.0,5.0,0.0,0.0,7.0,0.0,part_2,stop,600.0,550.0,4.0,,,,,,,,,gray,circle
0.0,4.0,4.0,0.0,5.0,5.0,710.8211539998592,7.0,0.0,part_2,go,650.0,550.0,1.0,,,,,,,,,white,I
0.0,7.0,3.0,1.0,5.0,0.0,0.0,7.0,0.0,part_2,stop,650.0,550.0,4.0,,,,,,,,,yellow,flipped triangle
0.0,5.0,1.0,1.0,6.0,6.0,469.6983830003773,7.0,0.0,part_2,stop,700.0,550.0,3.0,,,,,,,,,magenta,hexagon
0.0,5.0,1.0,1.0,5.0,5.0,753.4915860001092,7.0,0.0,part_2,stop,700.0,500.0,3.0,,,,,,,,,magenta,hexagon
0.0,1.0,1.0,0.0,5.0,5.0,897.2747299999355,7.0,0.0,part_2,go,650.0,500.0,1.0,,,,,,,,,cyan,square
0.0,7.0,3.0,1.0,5.0,5.0,775.2340339998227,7.0,0.0,part_2,stop,650.0,500.0,3.0,,,,,,,,,yellow,flipped triangle
0.0,7.0,3.0,1.0,6.0,6.0,642.2287860000324,7.0,0.0,part_2,stop,600.0,500.0,3.0,,,,,,,,,yellow,flipped triangle
0.0,5.0,1.0,1.0,6.0,6.0,792.2540389999995,7.0,0.0,part_2,go,600.0,450.0,1.0,,,,,,,,,magenta,hexagon
0.0,4.0,4.0,0.0,6.0,6.0,435.7072139996489,8.0,0.0,part_2,go,600.0,450.0,1.0,,,,,,,,,white,I
0.0,6.0,2.0,1.0,6.0,6.0,876.0655989999577,8.0,0.0,part_2,go,600.0,450.0,1.0,,,,,,,,,orange,cross
0.0,3.0,3.0,0.0,5.0,5.0,950.3481689998808,8.0,0.0,part_2,go,600.0,450.0,1.0,,,,,,,,,green,triangle
0.0,7.0,3.0,1.0,5.0,5.0,729.0739679997387,8.0,0.0,part_2,go,600.0,450.0,1.0,,,,,,,,,yellow,flipped triangle
0.0,6.0,2.0,1.0,6.0,0.0,0.0,8.0,0.0,part_2,stop,600.0,450.0,4.0,,,,,,,,,orange,cross
0.0,2.0,2.0,0.0,6.0,6.0,1277.8841100002865,8.0,0.0,part_2,go,600.0,500.0,1.0,,,,,,,,,blue,diamond
0.0,5.0,1.0,1.0,5.0,5.0,750.7109319999472,8.0,0.0,part_2,stop,600.0,500.0,3.0,,,,,,,,,magenta,hexagon
0.0,4.0,4.0,0.0,6.0,6.0,826.3835789998666,8.0,0.0,part_2,go,550.0,500.0,1.0,,,,,,,,,white,I
0.0,8.0,4.0,1.0,5.0,0.0,0.0,8.0,0.0,part_2,stop,550.0,500.0,4.0,,,,,,,,,gray,circle
0.0,6.0,2.0,1.0,6.0,6.0,627.2635380000793,8.0,0.0,part_2,go,600.0,500.0,1.0,,,,,,,,,orange,cross
0.0,1.0,1.0,0.0,6.0,6.0,948.1306000002404,8.0,0.0,part_2,go,600.0,500.0,1.0,,,,,,,,,cyan,square
0.0,6.0,2.0,1.0,6.0,6.0,582.9876150000928,8.0,0.0,part_2,stop,600.0,500.0,3.0,,,,,,,,,orange,cross
0.0,1.0,1.0,0.0,6.0,6.0,543.3506580002359,8.0,0.0,part_2,go,600.0,450.0,1.0,,,,,,,,,cyan,square
0.0,7.0,3.0,1.0,6.0,6.0,926.138131999778,8.0,0.0,part_2,go,600.0,450.0,1.0,,,,,,,,,yellow,flipped triangle
0.0,3.0,3.0,0.0,6.0,6.0,763.9764300001843,8.0,0.0,part_2,go,600.0,450.0,1.0,,,,,,,,,green,triangle
0.0,5.0,1.0,1.0,5.0,5.0,817.6126280000062,8.0,0.0,part_2,go,600.0,450.0,1.0,,,,,,,,,magenta,hexagon
0.0,1.0,1.0,0.0,6.0,6.0,832.6416960003371,8.0,0.0,part_2,go,600.0,450.0,1.0,,,,,,,,,cyan,square
0.0,2.0,2.0,0.0,6.0,6.0,816.5171360001295,8.0,0.0,part_2,go,600.0,450.0,1.0,,,,,,,,,blue,diamond
0.0,3.0,3.0,0.0,6.0,6.0,847.3806669999249,8.0,0.0,part_2,go,600.0,450.0,1.0,,,,,,,,,green,triangle
0.0,6.0,2.0,1.0,5.0,0.0,0.0,8.0,0.0,part_2,stop,600.0,450.0,4.0,,,,,,,,,orange,cross
0.0,5.0,1.0,1.0,6.0,0.0,0.0,8.0,0.0,part_2,stop,650.0,450.0,4.0,,,,,,,,,magenta,hexagon
0.0,3.0,3.0,0.0,5.0,5.0,551.9648780000352,8.0,0.0,part_2,go,650.0,500.0,1.0,,,,,,,,,green,triangle
0.0,1.0,1.0,0.0,5.0,5.0,648.0067109996526,8.0,0.0,part_2,go,650.0,500.0,1.0,,,,,,,,,cyan,square
0.0,8.0,4.0,1.0,6.0,0.0,0.0,8.0,0.0,part_2,stop,650.0,500.0,4.0,,,,,,,,,gray,circle
0.0,5.0,1.0,1.0,5.0,5.0,559.4057749999592,8.0,0.0,part_2,stop,650.0,550.0,3.0,,,,,,,,,magenta,hexagon
0.0,4.0,4.0,0.0,6.0,6.0,518.7137859998074,8.0,0.0,part_2,go,600.0,550.0,1.0,,,,,,,,,white,I
0.0,8.0,4.0,1.0,6.0,6.0,587.7761149999969,8.0,0.0,part_2,stop,600.0,550.0,3.0,,,,,,,,,gray,circle
0.0,1.0,1.0,0.0,5.0,5.0,712.6754720002282,8.0,0.0,part_2,go,600.0,500.0,1.0,,,,,,,,,cyan,square
0.0,6.0,2.0,1.0,6.0,0.0,0.0,8.0,0.0,part_2,stop,600.0,500.0,4.0,,,,,,,,,orange,cross
0.0,4.0,4.0,0.0,5.0,5.0,588.3006180001757,8.0,0.0,part_2,go,600.0,550.0,1.0,,,,,,,,,white,I
0.0,8.0,4.0,1.0,6.0,0.0,0.0,8.0,0.0,part_2,stop,600.0,550.0,4.0,,,,,,,,,gray,circle
0.0,6.0,2.0,1.0,6.0,0.0,0.0,8.0,0.0,part_2,stop,600.0,600.0,4.0,,,,,,,,,orange,cross
0.0,2.0,2.0,0.0,6.0,6.0,659.4180510001024,8.0,0.0,part_2,go,600.0,650.0,1.0,,,,,,,,,blue,diamond
0.0,7.0,3.0,1.0,5.0,5.0,759.1551650002657,8.0,0.0,part_2,stop,600.0,650.0,3.0,,,,,,,,,yellow,flipped triangle
0.0,5.0,1.0,1.0,5.0,0.0,0.0,8.0,0.0,part_2,stop,550.0,650.0,4.0,,,,,,,,,magenta,hexagon
0.0,7.0,3.0,1.0,5.0,5.0,642.0636859993465,8.0,0.0,part_2,stop,600.0,650.0,3.0,,,,,,,,,yellow,flipped triangle
0.0,7.0,3.0,1.0,7.0,4.0,1338.2639060000656,1.0,2.0,part_3,go,0.0,0.0,0.0,270.0,5.0,324.0,108.0,162.0,270.0,216.0,54.0,yellow,flipped triangle
0.0,4.0,4.0,0.0,7.0,1.0,3302.131030000055,1.0,1.0,part_3,go,0.0,0.0,0.0,204.0,6.0,204.0,34.0,136.0,102.0,170.0,68.0,white,I
0.0,6.0,2.0,1.0,7.0,3.0,4768.129185000362,1.0,1.0,part_3,go,0.0,0.0,0.0,196.0,4.0,98.0,245.0,196.0,294.0,147.0,49.0,orange,cross
0.0,5.0,1.0,1.0,7.0,1.0,3930.6053059999617,1.0,1.0,part_3,go,0.0,0.0,0.0,270.0,5.0,270.0,162.0,324.0,216.0,108.0,54.0,magenta,hexagon
0.0,8.0,4.0,1.0,7.0,2.0,4499.767725000311,1.0,1.0,part_3,go,0.0,0.0,0.0,136.0,4.0,68.0,136.0,170.0,102.0,34.0,204.0,gray,circle
0.0,2.0,2.0,0.0,7.0,5.0,3570.053610999821,1.0,1.0,part_3,go,0.0,0.0,0.0,132.0,3.0,88.0,176.0,44.0,220.0,132.0,264.0,blue,diamond
0.0,8.0,4.0,1.0,7.0,4.0,3345.3429390001475,1.0,1.0,part_3,go,0.0,0.0,0.0,176.0,4.0,264.0,88.0,220.0,176.0,44.0,132.0,gray,circle
0.0,6.0,2.0,1.0,7.0,6.0,1091.1155889998554,1.0,2.0,part_3,go,0.0,0.0,0.0,234.0,6.0,195.0,156.0,117.0,78.0,39.0,234.0,orange,cross
0.0,3.0,3.0,0.0,7.0,4.0,2396.056612000393,1.0,1.0,part_3,go,0.0,0.0,0.0,216.0,4.0,54.0,162.0,108.0,216.0,270.0,324.0,green,triangle
0.0,8.0,4.0,1.0,7.0,5.0,2812.73449299988,1.0,1.0,part_3,go,0.0,0.0,0.0,117.0,3.0,39.0,78.0,234.0,156.0,117.0,195.0,gray,circle
0.0,3.0,3.0,0.0,7.0,2.0,3061.620041999958,1.0,1.0,part_3,go,0.0,0.0,0.0,132.0,3.0,264.0,132.0,44.0,88.0,176.0,220.0,green,triangle
0.0,5.0,1.0,1.0,7.0,3.0,3064.9312060004377,1.0,1.0,part_3,go,0.0,0.0,0.0,108.0,2.0,270.0,162.0,108.0,54.0,324.0,216.0,magenta,hexagon
0.0,5.0,1.0,1.0,7.0,3.0,2709.2965629999526,1.0,1.0,part_3,go,0.0,0.0,0.0,176.0,4.0,88.0,220.0,176.0,44.0,132.0,264.0,magenta,hexagon
0.0,4.0,4.0,0.0,7.0,5.0,2631.718796000314,1.0,1.0,part_3,go,0.0,0.0,0.0,195.0,5.0,234.0,39.0,78.0,156.0,195.0,117.0,white,I
0.0,1.0,1.0,0.0,7.0,2.0,2591.39402800065,1.0,1.0,part_3,go,0.0,0.0,0.0,98.0,2.0,294.0,98.0,196.0,147.0,49.0,245.0,cyan,square
0.0,8.0,4.0,1.0,7.0,5.0,4824.663921999672,1.0,1.0,part_3,go,0.0,0.0,0.0,220.0,5.0,44.0,132.0,88.0,264.0,220.0,176.0,gray,circle
0.0,2.0,2.0,0.0,7.0,1.0,3152.881007999895,1.0,1.0,part_3,go,0.0,0.0,0.0,245.0,5.0,245.0,147.0,294.0,49.0,196.0,98.0,blue,diamond
0.0,2.0,2.0,0.0,7.0,6.0,2952.482572000008,1.0,1.0,part_3,go,0.0,0.0,0.0,147.0,3.0,49.0,98.0,196.0,294.0,245.0,147.0,blue,diamond
0.0,8.0,4.0,1.0,7.0,6.0,1856.3809079996645,1.0,1.0,part_3,go,0.0,0.0,0.0,102.0,3.0,204.0,34.0,136.0,68.0,170.0,102.0,gray,circle
0.0,4.0,4.0,0.0,7.0,4.0,1921.637646999443,1.0,1.0,part_3,go,0.0,0.0,0.0,294.0,6.0,147.0,98.0,245.0,294.0,49.0,196.0,white,I
0.0,8.0,4.0,1.0,7.0,4.0,1358.722003999901,2.0,1.0,part_3,go,0.0,0.0,0.0,245.0,5.0,294.0,49.0,147.0,245.0,196.0,98.0,gray,circle
0.0,8.0,4.0,1.0,7.0,2.0,1652.531083000213,2.0,1.0,part_3,go,0.0,0.0,0.0,117.0,3.0,156.0,117.0,234.0,78.0,195.0,39.0,gray,circle
0.0,1.0,1.0,0.0,7.0,5.0,1227.4158469999747,2.0,1.0,part_3,go,0.0,0.0,0.0,216.0,4.0,54.0,108.0,270.0,324.0,216.0,162.0,cyan,square
0.0,1.0,1.0,0.0,7.0,2.0,1658.6118720006198,2.0,1.0,part_3,go,0.0,0.0,0.0,147.0,3.0,49.0,147.0,245.0,196.0,294.0,98.0,cyan,square
0.0,1.0,1.0,0.0,7.0,6.0,1874.9035229993751,2.0,1.0,part_3,go,0.0,0.0,0.0,88.0,2.0,176.0,220.0,44.0,132.0,264.0,88.0,cyan,square
0.0,5.0,1.0,1.0,7.0,4.0,2539.323119999608,2.0,1.0,part_3,go,0.0,0.0,0.0,147.0,3.0,98.0,294.0,245.0,147.0,196.0,49.0,magenta,hexagon
0.0,1.0,1.0,0.0,7.0,5.0,3248.3593059996565,2.0,1.0,part_3,go,0.0,0.0,0.0,132.0,3.0,176.0,264.0,44.0,220.0,132.0,88.0,cyan,square
0.0,6.0,2.0,1.0,7.0,2.0,2311.3119800000277,2.0,1.0,part_3,go,0.0,0.0,0.0,132.0,3.0,44.0,132.0,176.0,88.0,264.0,220.0,orange,cross
0.0,7.0,3.0,1.0,7.0,3.0,1750.523960999999,2.0,1.0,part_3,go,0.0,0.0,0.0,117.0,3.0,195.0,234.0,117.0,78.0,39.0,156.0,yellow,flipped triangle
0.0,5.0,1.0,1.0,7.0,5.0,1478.5257390003608,2.0,1.0,part_3,go,0.0,0.0,0.0,195.0,5.0,39.0,78.0,117.0,156.0,195.0,234.0,magenta,hexagon
0.0,1.0,1.0,0.0,7.0,4.0,1643.467978999979,2.0,1.0,part_3,go,0.0,0.0,0.0,270.0,5.0,162.0,108.0,54.0,270.0,324.0,216.0,cyan,square
0.0,6.0,2.0,1.0,7.0,5.0,1249.5842919997813,2.0,1.0,part_3,go,0.0,0.0,0.0,324.0,6.0,270.0,216.0,108.0,162.0,324.0,54.0,orange,cross
0.0,7.0,3.0,1.0,7.0,4.0,2853.1161170003543,2.0,1.0,part_3,go,0.0,0.0,0.0,204.0,6.0,136.0,34.0,68.0,204.0,170.0,102.0,yellow,flipped triangle
0.0,3.0,3.0,0.0,7.0,5.0,2425.624487999812,2.0,1.0,part_3,go,0.0,0.0,0.0,216.0,4.0,54.0,324.0,162.0,108.0,216.0,270.0,green,triangle
0.0,3.0,3.0,0.0,7.0,2.0,2011.6621460001625,2.0,1.0,part_3,go,0.0,0.0,0.0,117.0,3.0,234.0,117.0,39.0,78.0,156.0,195.0,green,triangle
0.0,4.0,4.0,0.0,7.0,1.0,1606.4974949995303,2.0,1.0,part_3,go,0.0,0.0,0.0,136.0,4.0,136.0,204.0,102.0,170.0,34.0,68.0,white,I
0.0,8.0,4.0,1.0,7.0,5.0,1473.5705630000666,2.0,1.0,part_3,go,0.0,0.0,0.0,324.0,6.0,216.0,108.0,270.0,54.0,324.0,162.0,gray,circle
0.0,4.0,4.0,0.0,7.0,5.0,1033.3370719999948,2.0,1.0,part_3,go,0.0,0.0,0.0,324.0,6.0,108.0,216.0,162.0,54.0,324.0,270.0,white,I
0.0,3.0,3.0,0.0,7.0,2.0,1921.02432899992,2.0,1.0,part_3,go,0.0,0.0,0.0,176.0,4.0,264.0,176.0,44.0,220.0,132.0,88.0,green,triangle
0.0,4.0,4.0,0.0,7.0,5.0,2378.902496000592,2.0,1.0,part_3,go,0.0,0.0,0.0,156.0,4.0,39.0,234.0,117.0,195.0,156.0,78.0,white,I
0.0,6.0,2.0,1.0,7.0,5.0,1871.7299010004351,3.0,1.0,part_3,go,0.0,0.0,0.0,204.0,6.0,68.0,170.0,136.0,102.0,204.0,34.0,orange,cross
0.0,1.0,1.0,0.0,7.0,2.0,3099.312809999901,3.0,1.0,part_3,go,0.0,0.0,0.0,195.0,5.0,117.0,195.0,78.0,156.0,234.0,39.0,cyan,square
0.0,3.0,3.0,0.0,7.0,4.0,1265.607221999744,3.0,1.0,part_3,go,0.0,0.0,0.0,136.0,4.0,102.0,170.0,68.0,136.0,204.0,34.0,green,triangle
0.0,6.0,2.0,1.0,7.0,6.0,1241.5184439996665,3.0,1.0,part_3,go,0.0,0.0,0.0,324.0,6.0,216.0,270.0,162.0,54.0,108.0,324.0,orange,cross
0.0,4.0,4.0,0.0,7.0,1.0,1265.4672670005311,3.0,1.0,part_3,go,0.0,0.0,0.0,98.0,2.0,98.0,245.0,196.0,49.0,147.0,294.0,white,I
0.0,2.0,2.0,0.0,7.0,3.0,2143.941627999993,3.0,1.0,part_3,go,0.0,0.0,0.0,54.0,1.0,216.0,108.0,54.0,270.0,324.0,162.0,blue,diamond
0.0,3.0,3.0,0.0,7.0,1.0,1340.574961999664,3.0,1.0,part_3,go,0.0,0.0,0.0,245.0,5.0,245.0,147.0,49.0,294.0,98.0,196.0,green,triangle
0.0,3.0,3.0,0.0,7.0,6.0,1820.760569000413,3.0,1.0,part_3,go,0.0,0.0,0.0,136.0,4.0,204.0,34.0,102.0,68.0,170.0,136.0,green,triangle
0.0,6.0,2.0,1.0,7.0,1.0,2145.0455880003574,3.0,1.0,part_3,go,0.0,0.0,0.0,117.0,3.0,117.0,78.0,195.0,234.0,156.0,39.0,orange,cross
0.0,5.0,1.0,1.0,7.0,6.0,2210.6922630000554,3.0,1.0,part_3,go,0.0,0.0,0.0,102.0,3.0,68.0,204.0,136.0,170.0,34.0,102.0,magenta,hexagon
0.0,1.0,1.0,0.0,7.0,5.0,2633.461081999485,3.0,1.0,part_3,go,0.0,0.0,0.0,39.0,1.0,78.0,195.0,117.0,234.0,39.0,156.0,cyan,square
0.0,2.0,2.0,0.0,7.0,2.0,1922.8204569999432,3.0,1.0,part_3,go,0.0,0.0,0.0,156.0,4.0,39.0,156.0,117.0,78.0,234.0,195.0,blue,diamond
0.0,5.0,1.0,1.0,7.0,6.0,1645.8075730006383,3.0,1.0,part_3,go,0.0,0.0,0.0,234.0,6.0,39.0,117.0,78.0,195.0,156.0,234.0,magenta,hexagon
0.0,6.0,2.0,1.0,7.0,5.0,1569.409266000548,3.0,1.0,part_3,go,0.0,0.0,0.0,170.0,5.0,102.0,34.0,136.0,204.0,170.0,68.0,orange,cross
0.0,8.0,4.0,1.0,7.0,1.0,1398.8438530004714,3.0,1.0,part_3,go,0.0,0.0,0.0,216.0,4.0,216.0,108.0,270.0,162.0,324.0,54.0,gray,circle
0.0,1.0,1.0,0.0,7.0,4.0,1675.8713680001165,3.0,1.0,part_3,go,0.0,0.0,0.0,136.0,4.0,102.0,204.0,34.0,136.0,68.0,170.0,cyan,square
0.0,2.0,2.0,0.0,7.0,1.0,2445.699156000046,3.0,1.0,part_3,go,0.0,0.0,0.0,54.0,1.0,54.0,270.0,108.0,324.0,216.0,162.0,blue,diamond
0.0,5.0,1.0,1.0,7.0,3.0,2186.2994049997724,3.0,1.0,part_3,go,0.0,0.0,0.0,245.0,5.0,294.0,147.0,245.0,49.0,196.0,98.0,magenta,hexagon
0.0,6.0,2.0,1.0,7.0,2.0,1421.367939999982,3.0,1.0,part_3,go,0.0,0.0,0.0,44.0,1.0,220.0,44.0,264.0,176.0,132.0,88.0,orange,cross
0.0,5.0,1.0,1.0,7.0,6.0,1585.4074979997677,3.0,1.0,part_3,go,0.0,0.0,0.0,204.0,6.0,136.0,34.0,170.0,102.0,68.0,204.0,magenta,hexagon
0.0,2.0,2.0,0.0,7.0,1.0,2339.3690600005357,4.0,1.0,part_3,go,0.0,0.0,0.0,68.0,2.0,68.0,204.0,136.0,102.0,34.0,170.0,blue,diamond
0.0,2.0,2.0,0.0,7.0,4.0,1288.14918199987,4.0,1.0,part_3,go,0.0,0.0,0.0,117.0,3.0,234.0,156.0,195.0,117.0,39.0,78.0,blue,diamond
0.0,2.0,2.0,0.0,7.0,3.0,1333.75358900048,4.0,1.0,part_3,go,0.0,0.0,0.0,220.0,5.0,88.0,176.0,220.0,132.0,264.0,44.0,blue,diamond
0.0,6.0,2.0,1.0,7.0,1.0,3455.520442999841,4.0,1.0,part_3,go,0.0,0.0,0.0,196.0,4.0,196.0,98.0,147.0,245.0,49.0,294.0,orange,cross
0.0,7.0,3.0,1.0,7.0,2.0,2257.726016000561,4.0,1.0,part_3,go,0.0,0.0,0.0,147.0,3.0,245.0,147.0,49.0,196.0,294.0,98.0,yellow,flipped triangle
0.0,7.0,3.0,1.0,7.0,2.0,2682.0876560004763,4.0,1.0,part_3,go,0.0,0.0,0.0,156.0,4.0,195.0,156.0,39.0,117.0,78.0,234.0,yellow,flipped triangle
0.0,7.0,3.0,1.0,7.0,5.0,1389.5656029999373,4.0,1.0,part_3,go,0.0,0.0,0.0,204.0,6.0,102.0,34.0,68.0,170.0,204.0,136.0,yellow,flipped triangle
0.0,2.0,2.0,0.0,7.0,1.0,2016.120217000207,4.0,1.0,part_3,go,0.0,0.0,0.0,170.0,5.0,170.0,204.0,136.0,34.0,102.0,68.0,blue,diamond
0.0,7.0,3.0,1.0,7.0,6.0,1421.1549029996604,4.0,1.0,part_3,go,0.0,0.0,0.0,220.0,5.0,88.0,264.0,132.0,176.0,44.0,220.0,yellow,flipped triangle
0.0,3.0,3.0,0.0,7.0,5.0,1306.3469060007264,4.0,1.0,part_3,go,0.0,0.0,0.0,196.0,4.0,294.0,49.0,245.0,147.0,196.0,98.0,green,triangle
0.0,7.0,3.0,1.0,7.0,4.0,1268.68173100047,4.0,1.0,part_3,go,0.0,0.0,0.0,132.0,3.0,44.0,176.0,88.0,132.0,264.0,220.0,yellow,flipped triangle
0.0,5.0,1.0,1.0,7.0,3.0,3348.7293779999163,4.0,1.0,part_3,go,0.0,0.0,0.0,220.0,5.0,88.0,44.0,220.0,132.0,264.0,176.0,magenta,hexagon
0.0,4.0,4.0,0.0,7.0,1.0,2443.189652000001,4.0,1.0,part_3,go,0.0,0.0,0.0,220.0,5.0,220.0,44.0,264.0,88.0,132.0,176.0,white,I
0.0,7.0,3.0,1.0,7.0,2.0,3457.0387800004028,4.0,1.0,part_3,go,0.0,0.0,0.0,245.0,5.0,147.0,245.0,49.0,98.0,196.0,294.0,yellow,flipped triangle
0.0,4.0,4.0,0.0,7.0,5.0,1704.9526439996043,4.0,1.0,part_3,go,0.0,0.0,0.0,324.0,6.0,216.0,54.0,270.0,108.0,324.0,162.0,white,I
0.0,1.0,1.0,0.0,7.0,5.0,3199.9917709999863,4.0,1.0,part_3,go,0.0,0.0,0.0,136.0,4.0,68.0,170.0,34.0,204.0,136.0,102.0,cyan,square
0.0,8.0,4.0,1.0,7.0,2.0,2600.2696690002267,4.0,1.0,part_3,go,0.0,0.0,0.0,245.0,5.0,294.0,245.0,49.0,147.0,98.0,196.0,gray,circle
0.0,7.0,3.0,1.0,7.0,3.0,2563.4675960000095,4.0,1.0,part_3,go,0.0,0.0,0.0,270.0,5.0,108.0,324.0,270.0,162.0,54.0,216.0,yellow,flipped triangle
0.0,3.0,3.0,0.0,7.0,6.0,1621.0363560003316,4.0,1.0,part_3,go,0.0,0.0,0.0,156.0,4.0,234.0,117.0,195.0,78.0,39.0,156.0,green,triangle
0.0,4.0,4.0,0.0,7.0,5.0,1920.1944510004976,4.0,1.0,part_3,go,0.0,0.0,0.0,44.0,1.0,88.0,176.0,132.0,220.0,44.0,264.0,white,I
