raw_reward_magnitude,stim_reward,stepwise_reward_magnitude,paired_with_stopping,quadrant,response,reaction_time,block,num_trial_presentations,which_part,stop_signal_trial_type,left_SSD,right_SSD,accuracy,chosen_bidding_amount,chosen_bidding_level,possible_bid_1,possible_bid_2,possible_bid_3,possible_bid_4,possible_bid_5,possible_bid_6,color_text,shape_text
59.0,1.0,1.0,0.0,2.0,2.0,391.3547770000605,1.0,2.0,part_1,,,,,,,,,,,,,cyan,hexagon
397.0,4.0,4.0,0.0,4.0,4.0,312.7329729998109,1.0,7.0,part_1,,,,,,,,,,,,,yellow,I
65.0,5.0,1.0,1.0,1.0,1.0,893.5021140000572,1.0,3.0,part_1,,,,,,,,,,,,,white,circle
383.0,4.0,4.0,0.0,1.0,1.0,502.18011900005877,1.0,1.0,part_1,,,,,,,,,,,,,yellow,I
83.0,6.0,2.0,1.0,1.0,1.0,487.1107459998711,1.0,1.0,part_1,,,,,,,,,,,,,green,diamond
42.0,1.0,1.0,0.0,3.0,3.0,219.8490569999194,1.0,3.0,part_1,,,,,,,,,,,,,cyan,hexagon
184.0,7.0,3.0,1.0,1.0,1.0,575.9630270001708,1.0,1.0,part_1,,,,,,,,,,,,,magenta,flipped triangle
0.0,4.0,0.0,0.0,3.0,3.0,377.3571110000375,1.0,1.0,part_1,,,,,,,,,,,,,yellow,I
68.0,5.0,1.0,1.0,4.0,4.0,285.007663999977,1.0,2.0,part_1,,,,,,,,,,,,,white,circle
0.0,8.0,0.0,1.0,1.0,1.0,460.8678570000393,1.0,1.0,part_1,,,,,,,,,,,,,blue,triangle
41.0,1.0,1.0,0.0,1.0,1.0,229.4751709998763,1.0,2.0,part_1,,,,,,,,,,,,,cyan,hexagon
120.0,2.0,2.0,0.0,4.0,4.0,329.9578870000914,1.0,2.0,part_1,,,,,,,,,,,,,gray,cross
26.0,5.0,1.0,1.0,4.0,4.0,360.8857080000689,1.0,2.0,part_1,,,,,,,,,,,,,white,circle
217.0,3.0,3.0,0.0,1.0,1.0,857.658673999822,1.0,1.0,part_1,,,,,,,,,,,,,orange,square
224.0,3.0,3.0,0.0,4.0,4.0,549.7258370000964,1.0,1.0,part_1,,,,,,,,,,,,,orange,square
31.0,1.0,1.0,0.0,4.0,4.0,458.1400649999523,1.0,1.0,part_1,,,,,,,,,,,,,cyan,hexagon
114.0,2.0,2.0,0.0,2.0,2.0,335.4628669999329,1.0,2.0,part_1,,,,,,,,,,,,,gray,cross
104.0,2.0,2.0,0.0,3.0,3.0,415.1295490000848,1.0,1.0,part_1,,,,,,,,,,,,,gray,cross
381.0,4.0,4.0,0.0,1.0,1.0,401.4023320000888,1.0,1.0,part_1,,,,,,,,,,,,,yellow,I
420.0,8.0,4.0,1.0,1.0,1.0,393.8813869999649,1.0,1.0,part_1,,,,,,,,,,,,,blue,triangle
63.0,5.0,1.0,1.0,2.0,2.0,262.4928679999811,1.0,1.0,part_1,,,,,,,,,,,,,white,circle
392.0,4.0,4.0,0.0,1.0,1.0,310.7556569998451,1.0,1.0,part_1,,,,,,,,,,,,,yellow,I
124.0,2.0,2.0,0.0,2.0,2.0,298.0578859999241,1.0,1.0,part_1,,,,,,,,,,,,,gray,cross
0.0,6.0,0.0,1.0,1.0,1.0,223.7912430000506,1.0,1.0,part_1,,,,,,,,,,,,,green,diamond
198.0,7.0,3.0,1.0,2.0,2.0,226.6448959999252,1.0,1.0,part_1,,,,,,,,,,,,,magenta,flipped triangle
0.0,6.0,0.0,1.0,4.0,4.0,450.3511130001243,1.0,1.0,part_1,,,,,,,,,,,,,green,diamond
0.0,3.0,0.0,0.0,1.0,1.0,505.36707099990963,1.0,1.0,part_1,,,,,,,,,,,,,orange,square
213.0,7.0,3.0,1.0,1.0,1.0,390.9414120000747,1.0,1.0,part_1,,,,,,,,,,,,,magenta,flipped triangle
388.0,8.0,4.0,1.0,3.0,3.0,465.484447000108,1.0,2.0,part_1,,,,,,,,,,,,,blue,triangle
0.0,7.0,0.0,1.0,4.0,4.0,438.0918249999013,1.0,1.0,part_1,,,,,,,,,,,,,magenta,flipped triangle
115.0,2.0,2.0,0.0,1.0,1.0,849.3701830000191,1.0,1.0,part_1,,,,,,,,,,,,,gray,cross
0.0,2.0,0.0,0.0,4.0,4.0,520.1194300000225,1.0,3.0,part_1,,,,,,,,,,,,,gray,cross
409.0,4.0,4.0,0.0,1.0,1.0,416.0685409999587,1.0,1.0,part_1,,,,,,,,,,,,,yellow,I
30.0,5.0,1.0,1.0,1.0,1.0,638.429386000098,1.0,1.0,part_1,,,,,,,,,,,,,white,circle
419.0,4.0,4.0,0.0,1.0,1.0,734.5090440001059,1.0,1.0,part_1,,,,,,,,,,,,,yellow,I
83.0,2.0,2.0,0.0,3.0,3.0,426.6749170001276,1.0,1.0,part_1,,,,,,,,,,,,,gray,cross
106.0,6.0,2.0,1.0,2.0,2.0,448.5945180001636,1.0,1.0,part_1,,,,,,,,,,,,,green,diamond
382.0,4.0,4.0,0.0,1.0,1.0,359.9226769999859,1.0,1.0,part_1,,,,,,,,,,,,,yellow,I
421.0,8.0,4.0,1.0,3.0,3.0,330.5858900000658,1.0,2.0,part_1,,,,,,,,,,,,,blue,triangle
88.0,2.0,2.0,0.0,2.0,2.0,486.6073630000755,1.0,1.0,part_1,,,,,,,,,,,,,gray,cross
400.0,8.0,4.0,1.0,4.0,4.0,530.3791979999914,1.0,1.0,part_1,,,,,,,,,,,,,blue,triangle
411.0,8.0,4.0,1.0,2.0,2.0,373.1591329999446,1.0,2.0,part_1,,,,,,,,,,,,,blue,triangle
179.0,3.0,3.0,0.0,2.0,2.0,393.5136069999316,1.0,1.0,part_1,,,,,,,,,,,,,orange,square
89.0,2.0,2.0,0.0,2.0,2.0,326.924518000169,1.0,1.0,part_1,,,,,,,,,,,,,gray,cross
416.0,8.0,4.0,1.0,3.0,3.0,364.8871400000644,1.0,2.0,part_1,,,,,,,,,,,,,blue,triangle
195.0,3.0,3.0,0.0,1.0,1.0,515.2488080000239,1.0,2.0,part_1,,,,,,,,,,,,,orange,square
382.0,8.0,4.0,1.0,1.0,1.0,441.4522679999209,1.0,1.0,part_1,,,,,,,,,,,,,blue,triangle
418.0,8.0,4.0,1.0,2.0,2.0,379.9201519998405,1.0,1.0,part_1,,,,,,,,,,,,,blue,triangle
189.0,3.0,3.0,0.0,3.0,3.0,498.0609979998007,1.0,1.0,part_1,,,,,,,,,,,,,orange,square
423.0,4.0,4.0,0.0,3.0,3.0,502.36326699996425,1.0,2.0,part_1,,,,,,,,,,,,,yellow,I
209.0,3.0,3.0,0.0,4.0,4.0,514.3216619999293,1.0,1.0,part_1,,,,,,,,,,,,,orange,square
195.0,7.0,3.0,1.0,1.0,1.0,437.2753450002165,1.0,1.0,part_1,,,,,,,,,,,,,magenta,flipped triangle
0.0,1.0,0.0,0.0,2.0,2.0,310.6780630000685,1.0,1.0,part_1,,,,,,,,,,,,,cyan,hexagon
41.0,5.0,1.0,1.0,4.0,4.0,334.1466990000299,1.0,2.0,part_1,,,,,,,,,,,,,white,circle
0.0,5.0,0.0,1.0,3.0,3.0,445.4469080001217,1.0,1.0,part_1,,,,,,,,,,,,,white,circle
397.0,8.0,4.0,1.0,4.0,4.0,367.6856790000329,1.0,1.0,part_1,,,,,,,,,,,,,blue,triangle
382.0,4.0,4.0,0.0,4.0,4.0,460.1709169999139,1.0,1.0,part_1,,,,,,,,,,,,,yellow,I
394.0,4.0,4.0,0.0,4.0,4.0,375.3007660000094,1.0,1.0,part_1,,,,,,,,,,,,,yellow,I
91.0,2.0,2.0,0.0,1.0,1.0,553.2648129999416,1.0,1.0,part_1,,,,,,,,,,,,,gray,cross
190.0,3.0,3.0,0.0,3.0,3.0,460.729936000007,1.0,1.0,part_1,,,,,,,,,,,,,orange,square
0.0,3.0,0.0,0.0,3.0,3.0,484.7291019998465,1.0,1.0,part_1,,,,,,,,,,,,,orange,square
110.0,2.0,2.0,0.0,2.0,2.0,497.8130520000832,1.0,1.0,part_1,,,,,,,,,,,,,gray,cross
414.0,4.0,4.0,0.0,3.0,3.0,385.7772759999989,1.0,1.0,part_1,,,,,,,,,,,,,yellow,I
208.0,7.0,3.0,1.0,2.0,2.0,368.2592419997945,1.0,1.0,part_1,,,,,,,,,,,,,magenta,flipped triangle
0.0,4.0,0.0,0.0,3.0,3.0,376.2964249999641,1.0,1.0,part_1,,,,,,,,,,,,,yellow,I
42.0,5.0,1.0,1.0,2.0,2.0,414.3527159999394,1.0,2.0,part_1,,,,,,,,,,,,,white,circle
223.0,3.0,3.0,0.0,1.0,1.0,515.8852879999358,1.0,2.0,part_1,,,,,,,,,,,,,orange,square
0.0,4.0,0.0,0.0,3.0,3.0,425.434093999911,1.0,1.0,part_1,,,,,,,,,,,,,yellow,I
401.0,4.0,4.0,0.0,4.0,4.0,428.2245849999526,1.0,1.0,part_1,,,,,,,,,,,,,yellow,I
0.0,6.0,0.0,1.0,3.0,3.0,448.0412230000183,1.0,1.0,part_1,,,,,,,,,,,,,green,diamond
179.0,3.0,3.0,0.0,3.0,3.0,404.6980670000266,1.0,1.0,part_1,,,,,,,,,,,,,orange,square
190.0,3.0,3.0,0.0,2.0,2.0,422.6781170000322,1.0,1.0,part_1,,,,,,,,,,,,,orange,square
71.0,5.0,1.0,1.0,1.0,1.0,505.05745500004195,1.0,1.0,part_1,,,,,,,,,,,,,white,circle
394.0,4.0,4.0,0.0,1.0,1.0,322.1322570000211,1.0,1.0,part_1,,,,,,,,,,,,,yellow,I
0.0,1.0,0.0,0.0,3.0,3.0,283.9342129998385,1.0,1.0,part_1,,,,,,,,,,,,,cyan,hexagon
398.0,4.0,4.0,0.0,3.0,3.0,539.5496080000157,1.0,1.0,part_1,,,,,,,,,,,,,yellow,I
51.0,5.0,1.0,1.0,4.0,4.0,490.8849759999611,1.0,1.0,part_1,,,,,,,,,,,,,white,circle
212.0,7.0,3.0,1.0,4.0,4.0,324.5054889998755,1.0,1.0,part_1,,,,,,,,,,,,,magenta,flipped triangle
176.0,3.0,3.0,0.0,4.0,4.0,509.1076610001437,1.0,1.0,part_1,,,,,,,,,,,,,orange,square
0.0,2.0,0.0,0.0,4.0,4.0,337.645805999955,1.0,1.0,part_1,,,,,,,,,,,,,gray,cross
0.0,2.0,0.0,0.0,3.0,3.0,299.4645189999119,1.0,1.0,part_1,,,,,,,,,,,,,gray,cross
93.0,6.0,2.0,1.0,4.0,4.0,364.7456180001427,1.0,1.0,part_1,,,,,,,,,,,,,green,diamond
419.0,8.0,4.0,1.0,2.0,2.0,284.5251460000781,1.0,2.0,part_1,,,,,,,,,,,,,blue,triangle
27.0,5.0,1.0,1.0,4.0,4.0,386.5341859998352,1.0,1.0,part_1,,,,,,,,,,,,,white,circle
0.0,5.0,0.0,1.0,2.0,2.0,332.9846030001135,1.0,1.0,part_1,,,,,,,,,,,,,white,circle
394.0,8.0,4.0,1.0,1.0,1.0,281.306197000049,1.0,2.0,part_1,,,,,,,,,,,,,blue,triangle
208.0,3.0,3.0,0.0,4.0,4.0,346.1293420000402,1.0,1.0,part_1,,,,,,,,,,,,,orange,square
118.0,2.0,2.0,0.0,3.0,3.0,256.6316560000814,1.0,2.0,part_1,,,,,,,,,,,,,gray,cross
409.0,8.0,4.0,1.0,4.0,4.0,399.3802800000594,1.0,2.0,part_1,,,,,,,,,,,,,blue,triangle
75.0,5.0,1.0,1.0,2.0,2.0,359.238839999989,1.0,1.0,part_1,,,,,,,,,,,,,white,circle
382.0,8.0,4.0,1.0,1.0,1.0,393.4755059999588,1.0,1.0,part_1,,,,,,,,,,,,,blue,triangle
124.0,6.0,2.0,1.0,3.0,3.0,474.3472220000058,1.0,1.0,part_1,,,,,,,,,,,,,green,diamond
64.0,5.0,1.0,1.0,2.0,2.0,281.041913999843,1.0,1.0,part_1,,,,,,,,,,,,,white,circle
401.0,8.0,4.0,1.0,1.0,1.0,347.7830509998512,1.0,1.0,part_1,,,,,,,,,,,,,blue,triangle
29.0,1.0,1.0,0.0,2.0,2.0,380.1001980000364,1.0,1.0,part_1,,,,,,,,,,,,,cyan,hexagon
89.0,6.0,2.0,1.0,2.0,2.0,302.1901650001837,1.0,1.0,part_1,,,,,,,,,,,,,green,diamond
72.0,1.0,1.0,0.0,2.0,2.0,255.5493489999207,1.0,1.0,part_1,,,,,,,,,,,,,cyan,hexagon
0.0,4.0,0.0,0.0,3.0,3.0,304.3689959999938,1.0,2.0,part_1,,,,,,,,,,,,,yellow,I
0.0,6.0,0.0,1.0,2.0,2.0,349.9574610000309,1.0,1.0,part_1,,,,,,,,,,,,,green,diamond
211.0,3.0,3.0,0.0,1.0,1.0,343.4724090000145,1.0,1.0,part_1,,,,,,,,,,,,,orange,square
403.0,4.0,4.0,0.0,2.0,2.0,714.4240640000135,2.0,3.0,part_1,,,,,,,,,,,,,yellow,I
48.0,5.0,1.0,1.0,4.0,4.0,491.028267000047,2.0,1.0,part_1,,,,,,,,,,,,,white,circle
42.0,1.0,1.0,0.0,3.0,3.0,618.1577999998353,2.0,1.0,part_1,,,,,,,,,,,,,cyan,hexagon
60.0,5.0,1.0,1.0,2.0,2.0,375.6421620000765,2.0,1.0,part_1,,,,,,,,,,,,,white,circle
397.0,4.0,4.0,0.0,4.0,4.0,611.6044450000118,2.0,1.0,part_1,,,,,,,,,,,,,yellow,I
0.0,6.0,0.0,1.0,2.0,2.0,450.5000449998988,2.0,1.0,part_1,,,,,,,,,,,,,green,diamond
0.0,2.0,0.0,0.0,4.0,4.0,505.58107500000915,2.0,1.0,part_1,,,,,,,,,,,,,gray,cross
0.0,5.0,0.0,1.0,4.0,4.0,328.0566230000659,2.0,1.0,part_1,,,,,,,,,,,,,white,circle
57.0,5.0,1.0,1.0,1.0,1.0,337.3166679998576,2.0,2.0,part_1,,,,,,,,,,,,,white,circle
99.0,6.0,2.0,1.0,1.0,1.0,338.4554680001201,2.0,1.0,part_1,,,,,,,,,,,,,green,diamond
202.0,7.0,3.0,1.0,1.0,1.0,305.5092159997912,2.0,1.0,part_1,,,,,,,,,,,,,magenta,flipped triangle
39.0,1.0,1.0,0.0,4.0,4.0,442.6841529998455,2.0,1.0,part_1,,,,,,,,,,,,,cyan,hexagon
0.0,8.0,0.0,1.0,2.0,2.0,521.7826040002365,2.0,1.0,part_1,,,,,,,,,,,,,blue,triangle
420.0,4.0,4.0,0.0,3.0,3.0,410.2182980000179,2.0,1.0,part_1,,,,,,,,,,,,,yellow,I
37.0,1.0,1.0,0.0,4.0,4.0,329.6980759996586,2.0,2.0,part_1,,,,,,,,,,,,,cyan,hexagon
0.0,4.0,0.0,0.0,3.0,3.0,355.3765850001582,2.0,2.0,part_1,,,,,,,,,,,,,yellow,I
213.0,3.0,3.0,0.0,2.0,2.0,573.3103530001245,2.0,1.0,part_1,,,,,,,,,,,,,orange,square
112.0,6.0,2.0,1.0,3.0,3.0,514.7018820002813,2.0,1.0,part_1,,,,,,,,,,,,,green,diamond
59.0,5.0,1.0,1.0,3.0,3.0,401.5788820001944,2.0,1.0,part_1,,,,,,,,,,,,,white,circle
79.0,2.0,2.0,0.0,4.0,4.0,355.8658519996243,2.0,1.0,part_1,,,,,,,,,,,,,gray,cross
0.0,7.0,0.0,1.0,2.0,2.0,329.107460999694,2.0,2.0,part_1,,,,,,,,,,,,,magenta,flipped triangle
0.0,6.0,0.0,1.0,3.0,3.0,445.8180179999544,2.0,1.0,part_1,,,,,,,,,,,,,green,diamond
123.0,2.0,2.0,0.0,1.0,1.0,308.150034999926,2.0,1.0,part_1,,,,,,,,,,,,,gray,cross
0.0,1.0,0.0,0.0,4.0,4.0,412.3378369999955,2.0,1.0,part_1,,,,,,,,,,,,,cyan,hexagon
0.0,8.0,0.0,1.0,3.0,3.0,363.9765350003472,2.0,1.0,part_1,,,,,,,,,,,,,blue,triangle
103.0,6.0,2.0,1.0,2.0,2.0,356.396795999899,2.0,1.0,part_1,,,,,,,,,,,,,green,diamond
0.0,3.0,0.0,0.0,2.0,2.0,350.7944749999296,2.0,1.0,part_1,,,,,,,,,,,,,orange,square
63.0,1.0,1.0,0.0,3.0,3.0,398.9270300003227,2.0,1.0,part_1,,,,,,,,,,,,,cyan,hexagon
0.0,4.0,0.0,0.0,3.0,3.0,378.8639169997623,2.0,1.0,part_1,,,,,,,,,,,,,yellow,I
379.0,8.0,4.0,1.0,4.0,4.0,271.7543490002754,2.0,2.0,part_1,,,,,,,,,,,,,blue,triangle
223.0,7.0,3.0,1.0,3.0,3.0,427.9102179998517,2.0,1.0,part_1,,,,,,,,,,,,,magenta,flipped triangle
59.0,1.0,1.0,0.0,3.0,3.0,324.6697969998422,2.0,1.0,part_1,,,,,,,,,,,,,cyan,hexagon
0.0,5.0,0.0,1.0,2.0,2.0,457.4113040002885,2.0,1.0,part_1,,,,,,,,,,,,,white,circle
416.0,4.0,4.0,0.0,1.0,1.0,356.8030749997888,2.0,1.0,part_1,,,,,,,,,,,,,yellow,I
0.0,7.0,0.0,1.0,3.0,3.0,381.8049209999117,2.0,1.0,part_1,,,,,,,,,,,,,magenta,flipped triangle
190.0,7.0,3.0,1.0,1.0,1.0,326.4691449999191,2.0,1.0,part_1,,,,,,,,,,,,,magenta,flipped triangle
51.0,1.0,1.0,0.0,2.0,2.0,393.2809839998299,2.0,1.0,part_1,,,,,,,,,,,,,cyan,hexagon
411.0,8.0,4.0,1.0,2.0,2.0,322.0039689999794,2.0,1.0,part_1,,,,,,,,,,,,,blue,triangle
418.0,4.0,4.0,0.0,4.0,4.0,418.4670219997315,2.0,1.0,part_1,,,,,,,,,,,,,yellow,I
110.0,6.0,2.0,1.0,2.0,2.0,332.3454639998999,2.0,1.0,part_1,,,,,,,,,,,,,green,diamond
379.0,4.0,4.0,0.0,4.0,4.0,471.1758630000986,2.0,2.0,part_1,,,,,,,,,,,,,yellow,I
209.0,7.0,3.0,1.0,3.0,3.0,333.1319840003743,2.0,1.0,part_1,,,,,,,,,,,,,magenta,flipped triangle
0.0,7.0,0.0,1.0,1.0,1.0,436.4117589998386,2.0,1.0,part_1,,,,,,,,,,,,,magenta,flipped triangle
73.0,1.0,1.0,0.0,1.0,1.0,334.2365920002521,2.0,1.0,part_1,,,,,,,,,,,,,cyan,hexagon
0.0,3.0,0.0,0.0,1.0,1.0,344.8041780002313,2.0,1.0,part_1,,,,,,,,,,,,,orange,square
110.0,2.0,2.0,0.0,3.0,3.0,490.1257359997544,2.0,1.0,part_1,,,,,,,,,,,,,gray,cross
416.0,4.0,4.0,0.0,4.0,4.0,503.09007799978644,2.0,1.0,part_1,,,,,,,,,,,,,yellow,I
215.0,3.0,3.0,0.0,4.0,4.0,419.5855299999493,2.0,1.0,part_1,,,,,,,,,,,,,orange,square
76.0,2.0,2.0,0.0,1.0,1.0,365.7637030000842,2.0,1.0,part_1,,,,,,,,,,,,,gray,cross
47.0,1.0,1.0,0.0,3.0,3.0,387.0566969999345,2.0,1.0,part_1,,,,,,,,,,,,,cyan,hexagon
416.0,8.0,4.0,1.0,3.0,3.0,283.8659340000049,2.0,2.0,part_1,,,,,,,,,,,,,blue,triangle
0.0,3.0,0.0,0.0,3.0,3.0,349.7240229999079,2.0,1.0,part_1,,,,,,,,,,,,,orange,square
93.0,2.0,2.0,0.0,4.0,4.0,484.1927289999148,2.0,1.0,part_1,,,,,,,,,,,,,gray,cross
224.0,7.0,3.0,1.0,4.0,4.0,451.0775690000628,2.0,1.0,part_1,,,,,,,,,,,,,magenta,flipped triangle
41.0,5.0,1.0,1.0,1.0,1.0,505.04728600026283,2.0,1.0,part_1,,,,,,,,,,,,,white,circle
71.0,1.0,1.0,0.0,1.0,1.0,501.253418000033,2.0,1.0,part_1,,,,,,,,,,,,,cyan,hexagon
398.0,8.0,4.0,1.0,3.0,3.0,332.0243799998934,2.0,1.0,part_1,,,,,,,,,,,,,blue,triangle
378.0,4.0,4.0,0.0,2.0,2.0,458.1028450002122,2.0,1.0,part_1,,,,,,,,,,,,,yellow,I
216.0,3.0,3.0,0.0,3.0,3.0,384.1427649999787,2.0,1.0,part_1,,,,,,,,,,,,,orange,square
103.0,2.0,2.0,0.0,3.0,3.0,314.5619469996745,2.0,2.0,part_1,,,,,,,,,,,,,gray,cross
34.0,1.0,1.0,0.0,1.0,1.0,341.0537129998374,2.0,1.0,part_1,,,,,,,,,,,,,cyan,hexagon
26.0,1.0,1.0,0.0,3.0,3.0,889.0057700000398,2.0,1.0,part_1,,,,,,,,,,,,,cyan,hexagon
63.0,5.0,1.0,1.0,3.0,3.0,371.0058629999366,2.0,1.0,part_1,,,,,,,,,,,,,white,circle
384.0,4.0,4.0,0.0,2.0,2.0,479.4864069999676,2.0,1.0,part_1,,,,,,,,,,,,,yellow,I
190.0,7.0,3.0,1.0,3.0,3.0,474.2189140001756,2.0,1.0,part_1,,,,,,,,,,,,,magenta,flipped triangle
120.0,6.0,2.0,1.0,1.0,1.0,490.5101549998107,2.0,1.0,part_1,,,,,,,,,,,,,green,diamond
0.0,1.0,0.0,0.0,2.0,2.0,364.7097069997471,2.0,1.0,part_1,,,,,,,,,,,,,cyan,hexagon
407.0,4.0,4.0,0.0,2.0,2.0,362.2514920002686,2.0,1.0,part_1,,,,,,,,,,,,,yellow,I
0.0,7.0,0.0,1.0,4.0,4.0,356.7652769997949,2.0,1.0,part_1,,,,,,,,,,,,,magenta,flipped triangle
0.0,7.0,0.0,1.0,2.0,2.0,302.760113000204,2.0,1.0,part_1,,,,,,,,,,,,,magenta,flipped triangle
73.0,5.0,1.0,1.0,4.0,4.0,297.3253029999796,2.0,2.0,part_1,,,,,,,,,,,,,white,circle
0.0,7.0,0.0,1.0,4.0,4.0,350.4098199996406,2.0,1.0,part_1,,,,,,,,,,,,,magenta,flipped triangle
82.0,2.0,2.0,0.0,1.0,1.0,447.5158969999029,2.0,1.0,part_1,,,,,,,,,,,,,gray,cross
401.0,8.0,4.0,1.0,4.0,4.0,413.9111879999291,2.0,1.0,part_1,,,,,,,,,,,,,blue,triangle
210.0,3.0,3.0,0.0,2.0,2.0,281.5642630002912,2.0,1.0,part_1,,,,,,,,,,,,,orange,square
100.0,6.0,2.0,1.0,2.0,2.0,346.3386969997373,2.0,1.0,part_1,,,,,,,,,,,,,green,diamond
0.0,5.0,0.0,1.0,4.0,4.0,471.2907190000805,2.0,1.0,part_1,,,,,,,,,,,,,white,circle
29.0,5.0,1.0,1.0,3.0,3.0,428.9905820000967,2.0,1.0,part_1,,,,,,,,,,,,,white,circle
189.0,7.0,3.0,1.0,4.0,4.0,360.1493849996586,2.0,2.0,part_1,,,,,,,,,,,,,magenta,flipped triangle
92.0,2.0,2.0,0.0,1.0,1.0,416.0420860002887,2.0,1.0,part_1,,,,,,,,,,,,,gray,cross
175.0,3.0,3.0,0.0,4.0,4.0,509.3456160002461,2.0,1.0,part_1,,,,,,,,,,,,,orange,square
92.0,6.0,2.0,1.0,3.0,3.0,341.9175130002259,2.0,2.0,part_1,,,,,,,,,,,,,green,diamond
97.0,2.0,2.0,0.0,2.0,2.0,362.9747269997097,2.0,1.0,part_1,,,,,,,,,,,,,gray,cross
63.0,1.0,1.0,0.0,4.0,4.0,418.0853949997072,2.0,1.0,part_1,,,,,,,,,,,,,cyan,hexagon
0.0,8.0,0.0,1.0,2.0,2.0,408.6341790002734,2.0,1.0,part_1,,,,,,,,,,,,,blue,triangle
378.0,8.0,4.0,1.0,1.0,1.0,351.0299700001269,2.0,1.0,part_1,,,,,,,,,,,,,blue,triangle
0.0,3.0,0.0,0.0,1.0,1.0,396.5676420002637,2.0,1.0,part_1,,,,,,,,,,,,,orange,square
0.0,2.0,0.0,0.0,1.0,1.0,352.4077060001218,2.0,1.0,part_1,,,,,,,,,,,,,gray,cross
215.0,7.0,3.0,1.0,2.0,2.0,349.1255479998472,2.0,1.0,part_1,,,,,,,,,,,,,magenta,flipped triangle
82.0,6.0,2.0,1.0,3.0,3.0,473.2708299998194,2.0,1.0,part_1,,,,,,,,,,,,,green,diamond
115.0,2.0,2.0,0.0,3.0,3.0,549.8907339997459,2.0,1.0,part_1,,,,,,,,,,,,,gray,cross
398.0,4.0,4.0,0.0,4.0,4.0,263.7143040001319,2.0,2.0,part_1,,,,,,,,,,,,,yellow,I
390.0,4.0,4.0,0.0,2.0,2.0,331.3538150000568,2.0,1.0,part_1,,,,,,,,,,,,,yellow,I
210.0,7.0,3.0,1.0,1.0,1.0,388.3637389999421,2.0,1.0,part_1,,,,,,,,,,,,,magenta,flipped triangle
0.0,1.0,0.0,0.0,4.0,4.0,368.8782839999476,2.0,1.0,part_1,,,,,,,,,,,,,cyan,hexagon
0.0,7.0,0.0,1.0,3.0,3.0,445.4981909998423,2.0,1.0,part_1,,,,,,,,,,,,,magenta,flipped triangle
411.0,4.0,4.0,0.0,3.0,3.0,527.58920999986,2.0,1.0,part_1,,,,,,,,,,,,,yellow,I
115.0,2.0,2.0,0.0,4.0,4.0,468.9275210002961,2.0,1.0,part_1,,,,,,,,,,,,,gray,cross
118.0,6.0,2.0,1.0,3.0,3.0,435.7366029998957,2.0,1.0,part_1,,,,,,,,,,,,,green,diamond
0.0,2.0,0.0,0.0,3.0,3.0,352.8372910000144,2.0,1.0,part_1,,,,,,,,,,,,,gray,cross
108.0,6.0,2.0,1.0,2.0,2.0,364.7021960000529,3.0,2.0,part_1,,,,,,,,,,,,,green,diamond
212.0,3.0,3.0,0.0,3.0,3.0,501.3332270000319,3.0,1.0,part_1,,,,,,,,,,,,,orange,square
407.0,8.0,4.0,1.0,2.0,2.0,437.2885019997738,3.0,1.0,part_1,,,,,,,,,,,,,blue,triangle
87.0,6.0,2.0,1.0,4.0,4.0,353.5022690002734,3.0,1.0,part_1,,,,,,,,,,,,,green,diamond
99.0,2.0,2.0,0.0,4.0,4.0,336.3921079999272,3.0,1.0,part_1,,,,,,,,,,,,,gray,cross
27.0,5.0,1.0,1.0,3.0,3.0,491.0130799999024,3.0,1.0,part_1,,,,,,,,,,,,,white,circle
177.0,7.0,3.0,1.0,4.0,4.0,311.4683009998771,3.0,1.0,part_1,,,,,,,,,,,,,magenta,flipped triangle
106.0,2.0,2.0,0.0,1.0,1.0,521.606034999877,3.0,1.0,part_1,,,,,,,,,,,,,gray,cross
185.0,7.0,3.0,1.0,4.0,4.0,318.8258879999921,3.0,1.0,part_1,,,,,,,,,,,,,magenta,flipped triangle
0.0,1.0,0.0,0.0,1.0,1.0,319.9904419998347,3.0,1.0,part_1,,,,,,,,,,,,,cyan,hexagon
0.0,6.0,0.0,1.0,4.0,4.0,358.465926000008,3.0,1.0,part_1,,,,,,,,,,,,,green,diamond
0.0,8.0,0.0,1.0,3.0,3.0,464.4680230003359,3.0,1.0,part_1,,,,,,,,,,,,,blue,triangle
394.0,8.0,4.0,1.0,3.0,3.0,357.2530139999799,3.0,1.0,part_1,,,,,,,,,,,,,blue,triangle
190.0,3.0,3.0,0.0,1.0,1.0,462.7551529997618,3.0,1.0,part_1,,,,,,,,,,,,,orange,square
414.0,8.0,4.0,1.0,3.0,3.0,368.3265910003683,3.0,1.0,part_1,,,,,,,,,,,,,blue,triangle
0.0,6.0,0.0,1.0,2.0,2.0,412.6198929998281,3.0,1.0,part_1,,,,,,,,,,,,,green,diamond
0.0,2.0,0.0,0.0,2.0,2.0,416.4601870002116,3.0,1.0,part_1,,,,,,,,,,,,,gray,cross
98.0,6.0,2.0,1.0,3.0,3.0,367.7540329999829,3.0,1.0,part_1,,,,,,,,,,,,,green,diamond
182.0,3.0,3.0,0.0,3.0,3.0,289.2329569999674,3.0,2.0,part_1,,,,,,,,,,,,,orange,square
399.0,4.0,4.0,0.0,3.0,3.0,268.0023929997333,3.0,1.0,part_1,,,,,,,,,,,,,yellow,I
0.0,5.0,0.0,1.0,2.0,2.0,288.2298119998268,3.0,2.0,part_1,,,,,,,,,,,,,white,circle
120.0,2.0,2.0,0.0,2.0,2.0,360.2576670000417,3.0,1.0,part_1,,,,,,,,,,,,,gray,cross
63.0,5.0,1.0,1.0,3.0,3.0,297.721711000122,3.0,2.0,part_1,,,,,,,,,,,,,white,circle
36.0,1.0,1.0,0.0,4.0,4.0,301.06422200015,3.0,2.0,part_1,,,,,,,,,,,,,cyan,hexagon
97.0,6.0,2.0,1.0,1.0,1.0,410.5717190000177,3.0,1.0,part_1,,,,,,,,,,,,,green,diamond
0.0,6.0,0.0,1.0,2.0,2.0,432.4636889996327,3.0,1.0,part_1,,,,,,,,,,,,,green,diamond
0.0,1.0,0.0,0.0,2.0,2.0,380.6938710004033,3.0,1.0,part_1,,,,,,,,,,,,,cyan,hexagon
216.0,7.0,3.0,1.0,2.0,2.0,363.5475780001798,3.0,1.0,part_1,,,,,,,,,,,,,magenta,flipped triangle
106.0,6.0,2.0,1.0,2.0,2.0,347.8431720000117,3.0,1.0,part_1,,,,,,,,,,,,,green,diamond
176.0,7.0,3.0,1.0,4.0,4.0,455.7734299996809,3.0,1.0,part_1,,,,,,,,,,,,,magenta,flipped triangle
403.0,8.0,4.0,1.0,2.0,2.0,349.5408930002668,3.0,1.0,part_1,,,,,,,,,,,,,blue,triangle
202.0,3.0,3.0,0.0,3.0,3.0,466.4253260002624,3.0,1.0,part_1,,,,,,,,,,,,,orange,square
223.0,3.0,3.0,0.0,2.0,2.0,284.5271900000625,3.0,1.0,part_1,,,,,,,,,,,,,orange,square
100.0,2.0,2.0,0.0,4.0,4.0,400.9329040000011,3.0,2.0,part_1,,,,,,,,,,,,,gray,cross
82.0,2.0,2.0,0.0,3.0,3.0,389.9395020002885,3.0,1.0,part_1,,,,,,,,,,,,,gray,cross
27.0,1.0,1.0,0.0,2.0,2.0,467.3444430000018,3.0,1.0,part_1,,,,,,,,,,,,,cyan,hexagon
34.0,1.0,1.0,0.0,4.0,4.0,384.9270079999769,3.0,1.0,part_1,,,,,,,,,,,,,cyan,hexagon
32.0,5.0,1.0,1.0,3.0,3.0,441.4784249997865,3.0,1.0,part_1,,,,,,,,,,,,,white,circle
392.0,8.0,4.0,1.0,2.0,2.0,331.3772179999432,3.0,1.0,part_1,,,,,,,,,,,,,blue,triangle
0.0,1.0,0.0,0.0,2.0,2.0,342.9186559997106,3.0,2.0,part_1,,,,,,,,,,,,,cyan,hexagon
29.0,1.0,1.0,0.0,4.0,4.0,295.0807550000718,3.0,1.0,part_1,,,,,,,,,,,,,cyan,hexagon
223.0,7.0,3.0,1.0,3.0,3.0,293.5289309998552,3.0,2.0,part_1,,,,,,,,,,,,,magenta,flipped triangle
221.0,7.0,3.0,1.0,4.0,4.0,385.9092980001151,3.0,1.0,part_1,,,,,,,,,,,,,magenta,flipped triangle
0.0,8.0,0.0,1.0,4.0,4.0,356.655690000025,3.0,1.0,part_1,,,,,,,,,,,,,blue,triangle
399.0,8.0,4.0,1.0,4.0,4.0,329.8606160001327,3.0,1.0,part_1,,,,,,,,,,,,,blue,triangle
202.0,7.0,3.0,1.0,2.0,2.0,350.400880000052,3.0,2.0,part_1,,,,,,,,,,,,,magenta,flipped triangle
39.0,5.0,1.0,1.0,2.0,2.0,386.2840619999588,3.0,1.0,part_1,,,,,,,,,,,,,white,circle
196.0,3.0,3.0,0.0,3.0,3.0,288.123318000089,3.0,2.0,part_1,,,,,,,,,,,,,orange,square
115.0,6.0,2.0,1.0,2.0,2.0,368.3539849998851,3.0,1.0,part_1,,,,,,,,,,,,,green,diamond
53.0,1.0,1.0,0.0,4.0,4.0,472.2052929996607,3.0,1.0,part_1,,,,,,,,,,,,,cyan,hexagon
0.0,8.0,0.0,1.0,1.0,1.0,439.7469400000773,3.0,1.0,part_1,,,,,,,,,,,,,blue,triangle
401.0,8.0,4.0,1.0,3.0,3.0,370.7518629998958,3.0,1.0,part_1,,,,,,,,,,,,,blue,triangle
411.0,4.0,4.0,0.0,3.0,3.0,399.9871129999519,3.0,1.0,part_1,,,,,,,,,,,,,yellow,I
180.0,7.0,3.0,1.0,1.0,1.0,402.5401720000445,3.0,1.0,part_1,,,,,,,,,,,,,magenta,flipped triangle
0.0,8.0,0.0,1.0,1.0,1.0,573.5884419996182,3.0,1.0,part_1,,,,,,,,,,,,,blue,triangle
190.0,7.0,3.0,1.0,1.0,1.0,517.6044920003733,3.0,1.0,part_1,,,,,,,,,,,,,magenta,flipped triangle
175.0,7.0,3.0,1.0,3.0,3.0,281.5363469999283,3.0,1.0,part_1,,,,,,,,,,,,,magenta,flipped triangle
0.0,4.0,0.0,0.0,2.0,2.0,359.3712800002322,3.0,1.0,part_1,,,,,,,,,,,,,yellow,I
87.0,2.0,2.0,0.0,3.0,3.0,468.2020820000616,3.0,1.0,part_1,,,,,,,,,,,,,gray,cross
120.0,6.0,2.0,1.0,3.0,3.0,379.0818029997354,3.0,1.0,part_1,,,,,,,,,,,,,green,diamond
0.0,5.0,0.0,1.0,4.0,4.0,568.7431940000351,3.0,1.0,part_1,,,,,,,,,,,,,white,circle
401.0,4.0,4.0,0.0,2.0,2.0,502.3634750000383,3.0,1.0,part_1,,,,,,,,,,,,,yellow,I
189.0,7.0,3.0,1.0,3.0,3.0,330.3750340000988,3.0,1.0,part_1,,,,,,,,,,,,,magenta,flipped triangle
0.0,5.0,0.0,1.0,4.0,4.0,347.7459780001481,3.0,1.0,part_1,,,,,,,,,,,,,white,circle
208.0,3.0,3.0,0.0,2.0,2.0,449.4536150000385,3.0,1.0,part_1,,,,,,,,,,,,,orange,square
88.0,6.0,2.0,1.0,4.0,4.0,431.3908819999597,3.0,1.0,part_1,,,,,,,,,,,,,green,diamond
202.0,3.0,3.0,0.0,3.0,3.0,396.1008910000601,3.0,1.0,part_1,,,,,,,,,,,,,orange,square
177.0,3.0,3.0,0.0,2.0,2.0,371.6241940001055,3.0,1.0,part_1,,,,,,,,,,,,,orange,square
411.0,8.0,4.0,1.0,2.0,2.0,344.9706019996483,3.0,2.0,part_1,,,,,,,,,,,,,blue,triangle
381.0,8.0,4.0,1.0,2.0,2.0,339.3603989998155,3.0,1.0,part_1,,,,,,,,,,,,,blue,triangle
390.0,8.0,4.0,1.0,1.0,1.0,462.6550670000142,3.0,1.0,part_1,,,,,,,,,,,,,blue,triangle
394.0,8.0,4.0,1.0,2.0,2.0,558.9263970000502,3.0,1.0,part_1,,,,,,,,,,,,,blue,triangle
104.0,6.0,2.0,1.0,1.0,1.0,348.4160289999636,3.0,1.0,part_1,,,,,,,,,,,,,green,diamond
411.0,4.0,4.0,0.0,3.0,3.0,392.8310470000724,3.0,1.0,part_1,,,,,,,,,,,,,yellow,I
379.0,4.0,4.0,0.0,2.0,2.0,354.0143909999642,3.0,1.0,part_1,,,,,,,,,,,,,yellow,I
53.0,5.0,1.0,1.0,1.0,1.0,430.8887800002594,3.0,1.0,part_1,,,,,,,,,,,,,white,circle
42.0,5.0,1.0,1.0,2.0,2.0,342.6783090003482,3.0,1.0,part_1,,,,,,,,,,,,,white,circle
36.0,5.0,1.0,1.0,2.0,2.0,343.1001740000283,3.0,1.0,part_1,,,,,,,,,,,,,white,circle
0.0,3.0,0.0,0.0,4.0,4.0,426.1485980000543,3.0,1.0,part_1,,,,,,,,,,,,,orange,square
401.0,4.0,4.0,0.0,2.0,2.0,314.5285069999772,3.0,1.0,part_1,,,,,,,,,,,,,yellow,I
176.0,7.0,3.0,1.0,4.0,4.0,427.0513309998023,3.0,1.0,part_1,,,,,,,,,,,,,magenta,flipped triangle
0.0,2.0,0.0,0.0,2.0,2.0,339.3289010000444,3.0,1.0,part_1,,,,,,,,,,,,,gray,cross
409.0,4.0,4.0,0.0,4.0,4.0,341.0239849999925,3.0,1.0,part_1,,,,,,,,,,,,,yellow,I
82.0,2.0,2.0,0.0,1.0,1.0,504.7298940003202,3.0,1.0,part_1,,,,,,,,,,,,,gray,cross
0.0,1.0,0.0,0.0,3.0,3.0,314.7420489999604,3.0,1.0,part_1,,,,,,,,,,,,,cyan,hexagon
420.0,8.0,4.0,1.0,3.0,3.0,428.582914999879,3.0,1.0,part_1,,,,,,,,,,,,,blue,triangle
421.0,4.0,4.0,0.0,3.0,3.0,341.0554500001126,3.0,2.0,part_1,,,,,,,,,,,,,yellow,I
224.0,7.0,3.0,1.0,1.0,1.0,411.0008190000371,3.0,1.0,part_1,,,,,,,,,,,,,magenta,flipped triangle
60.0,1.0,1.0,0.0,1.0,1.0,297.9303769998296,3.0,1.0,part_1,,,,,,,,,,,,,cyan,hexagon
0.0,2.0,0.0,0.0,4.0,4.0,480.2830499997981,3.0,1.0,part_1,,,,,,,,,,,,,gray,cross
96.0,2.0,2.0,0.0,4.0,4.0,314.8490209996453,3.0,1.0,part_1,,,,,,,,,,,,,gray,cross
184.0,3.0,3.0,0.0,1.0,1.0,288.3298410001771,3.0,2.0,part_1,,,,,,,,,,,,,orange,square
79.0,6.0,2.0,1.0,1.0,1.0,317.9134309998517,3.0,1.0,part_1,,,,,,,,,,,,,green,diamond
420.0,4.0,4.0,0.0,1.0,1.0,474.4239369997558,3.0,1.0,part_1,,,,,,,,,,,,,yellow,I
397.0,8.0,4.0,1.0,1.0,1.0,425.1412919998074,3.0,1.0,part_1,,,,,,,,,,,,,blue,triangle
0.0,3.0,0.0,0.0,4.0,4.0,515.2526360002412,3.0,1.0,part_1,,,,,,,,,,,,,orange,square
0.0,7.0,0.0,1.0,4.0,4.0,391.185822999887,3.0,1.0,part_1,,,,,,,,,,,,,magenta,flipped triangle
41.0,1.0,1.0,0.0,1.0,1.0,373.1709099997715,3.0,1.0,part_1,,,,,,,,,,,,,cyan,hexagon
115.0,6.0,2.0,1.0,1.0,1.0,434.3756180001037,3.0,1.0,part_1,,,,,,,,,,,,,green,diamond
59.0,5.0,1.0,1.0,3.0,3.0,357.3695059999409,3.0,1.0,part_1,,,,,,,,,,,,,white,circle
0.0,3.0,0.0,0.0,1.0,1.0,345.3161709999222,4.0,2.0,part_1,,,,,,,,,,,,,orange,square
68.0,1.0,1.0,0.0,4.0,4.0,507.22275899988745,4.0,1.0,part_1,,,,,,,,,,,,,cyan,hexagon
82.0,6.0,2.0,1.0,1.0,1.0,405.0496400000156,4.0,1.0,part_1,,,,,,,,,,,,,green,diamond
185.0,3.0,3.0,0.0,4.0,4.0,525.141944999632,4.0,1.0,part_1,,,,,,,,,,,,,orange,square
179.0,7.0,3.0,1.0,2.0,2.0,349.787779000053,4.0,1.0,part_1,,,,,,,,,,,,,magenta,flipped triangle
95.0,6.0,2.0,1.0,4.0,4.0,607.7417429996785,4.0,1.0,part_1,,,,,,,,,,,,,green,diamond
384.0,8.0,4.0,1.0,4.0,4.0,481.9803640002646,4.0,1.0,part_1,,,,,,,,,,,,,blue,triangle
31.0,5.0,1.0,1.0,1.0,1.0,659.6442620002563,4.0,1.0,part_1,,,,,,,,,,,,,white,circle
93.0,6.0,2.0,1.0,4.0,4.0,410.0976489999084,4.0,1.0,part_1,,,,,,,,,,,,,green,diamond
208.0,7.0,3.0,1.0,3.0,3.0,397.1062790001269,4.0,2.0,part_1,,,,,,,,,,,,,magenta,flipped triangle
400.0,4.0,4.0,0.0,3.0,3.0,595.1727389997359,4.0,1.0,part_1,,,,,,,,,,,,,yellow,I
221.0,7.0,3.0,1.0,4.0,4.0,516.6745789997549,4.0,1.0,part_1,,,,,,,,,,,,,magenta,flipped triangle
409.0,8.0,4.0,1.0,3.0,3.0,434.0018490001966,4.0,1.0,part_1,,,,,,,,,,,,,blue,triangle
75.0,1.0,1.0,0.0,2.0,2.0,470.581379000123,4.0,1.0,part_1,,,,,,,,,,,,,cyan,hexagon
196.0,7.0,3.0,1.0,4.0,4.0,343.6299509999116,4.0,1.0,part_1,,,,,,,,,,,,,magenta,flipped triangle
0.0,1.0,0.0,0.0,1.0,1.0,328.4412520001751,4.0,1.0,part_1,,,,,,,,,,,,,cyan,hexagon
123.0,2.0,2.0,0.0,1.0,1.0,428.4633659999599,4.0,2.0,part_1,,,,,,,,,,,,,gray,cross
198.0,3.0,3.0,0.0,4.0,4.0,426.2598080003954,4.0,1.0,part_1,,,,,,,,,,,,,orange,square
106.0,2.0,2.0,0.0,3.0,3.0,499.5330719998492,4.0,1.0,part_1,,,,,,,,,,,,,gray,cross
71.0,5.0,1.0,1.0,1.0,1.0,355.4801830000542,4.0,1.0,part_1,,,,,,,,,,,,,white,circle
0.0,4.0,0.0,0.0,4.0,4.0,333.0776179996064,4.0,1.0,part_1,,,,,,,,,,,,,yellow,I
74.0,5.0,1.0,1.0,4.0,4.0,400.392174999979,4.0,2.0,part_1,,,,,,,,,,,,,white,circle
196.0,3.0,3.0,0.0,2.0,2.0,481.2171989997296,4.0,1.0,part_1,,,,,,,,,,,,,orange,square
53.0,5.0,1.0,1.0,4.0,4.0,518.4179800003221,4.0,1.0,part_1,,,,,,,,,,,,,white,circle
394.0,4.0,4.0,0.0,2.0,2.0,423.1492750000143,4.0,1.0,part_1,,,,,,,,,,,,,yellow,I
72.0,5.0,1.0,1.0,2.0,2.0,322.8073059999587,4.0,1.0,part_1,,,,,,,,,,,,,white,circle
95.0,2.0,2.0,0.0,3.0,3.0,460.0108280001223,4.0,1.0,part_1,,,,,,,,,,,,,gray,cross
114.0,6.0,2.0,1.0,2.0,2.0,370.1994949997242,4.0,1.0,part_1,,,,,,,,,,,,,green,diamond
221.0,3.0,3.0,0.0,2.0,2.0,372.3247490001995,4.0,1.0,part_1,,,,,,,,,,,,,orange,square
82.0,6.0,2.0,1.0,2.0,2.0,365.8215839996046,4.0,1.0,part_1,,,,,,,,,,,,,green,diamond
0.0,8.0,0.0,1.0,2.0,2.0,326.35725799991627,4.0,1.0,part_1,,,,,,,,,,,,,blue,triangle
112.0,2.0,2.0,0.0,4.0,4.0,553.470309000204,4.0,1.0,part_1,,,,,,,,,,,,,gray,cross
0.0,4.0,0.0,0.0,3.0,3.0,414.9377769999773,4.0,2.0,part_1,,,,,,,,,,,,,yellow,I
123.0,6.0,2.0,1.0,3.0,3.0,354.0703229996325,4.0,1.0,part_1,,,,,,,,,,,,,green,diamond
34.0,5.0,1.0,1.0,3.0,3.0,456.4142509998419,4.0,1.0,part_1,,,,,,,,,,,,,white,circle
87.0,2.0,2.0,0.0,1.0,1.0,334.9217519999001,4.0,2.0,part_1,,,,,,,,,,,,,gray,cross
176.0,3.0,3.0,0.0,4.0,4.0,388.9146999999866,4.0,1.0,part_1,,,,,,,,,,,,,orange,square
189.0,3.0,3.0,0.0,4.0,4.0,641.5074940000522,4.0,1.0,part_1,,,,,,,,,,,,,orange,square
180.0,3.0,3.0,0.0,2.0,2.0,593.4448630000588,4.0,1.0,part_1,,,,,,,,,,,,,orange,square
398.0,8.0,4.0,1.0,4.0,4.0,458.9947680001387,4.0,1.0,part_1,,,,,,,,,,,,,blue,triangle
190.0,3.0,3.0,0.0,1.0,1.0,369.6760890002224,4.0,1.0,part_1,,,,,,,,,,,,,orange,square
89.0,6.0,2.0,1.0,4.0,4.0,297.6427930002501,4.0,1.0,part_1,,,,,,,,,,,,,green,diamond
388.0,4.0,4.0,0.0,2.0,2.0,385.3606729999228,4.0,1.0,part_1,,,,,,,,,,,,,yellow,I
123.0,6.0,2.0,1.0,4.0,4.0,410.4238889999578,4.0,1.0,part_1,,,,,,,,,,,,,green,diamond
48.0,1.0,1.0,0.0,1.0,1.0,414.1465819998302,4.0,1.0,part_1,,,,,,,,,,,,,cyan,hexagon
57.0,1.0,1.0,0.0,1.0,1.0,288.3989889996883,4.0,1.0,part_1,,,,,,,,,,,,,cyan,hexagon
190.0,7.0,3.0,1.0,3.0,3.0,464.1314679997776,4.0,1.0,part_1,,,,,,,,,,,,,magenta,flipped triangle
53.0,1.0,1.0,0.0,2.0,2.0,305.8431489998838,4.0,1.0,part_1,,,,,,,,,,,,,cyan,hexagon
89.0,2.0,2.0,0.0,2.0,2.0,387.5930499998503,4.0,1.0,part_1,,,,,,,,,,,,,gray,cross
182.0,7.0,3.0,1.0,2.0,2.0,382.9966359999162,4.0,1.0,part_1,,,,,,,,,,,,,magenta,flipped triangle
34.0,5.0,1.0,1.0,1.0,1.0,338.2712990000982,4.0,1.0,part_1,,,,,,,,,,,,,white,circle
0.0,8.0,0.0,1.0,2.0,2.0,347.7141080002184,4.0,1.0,part_1,,,,,,,,,,,,,blue,triangle
87.0,6.0,2.0,1.0,4.0,4.0,474.7948809999798,4.0,1.0,part_1,,,,,,,,,,,,,green,diamond
0.0,4.0,0.0,0.0,1.0,1.0,357.4610010000469,4.0,1.0,part_1,,,,,,,,,,,,,yellow,I
212.0,3.0,3.0,0.0,3.0,3.0,497.9415160000826,4.0,1.0,part_1,,,,,,,,,,,,,orange,square
0.0,2.0,0.0,0.0,4.0,4.0,491.4870080001492,4.0,1.0,part_1,,,,,,,,,,,,,gray,cross
65.0,1.0,1.0,0.0,1.0,1.0,346.8332649999865,4.0,1.0,part_1,,,,,,,,,,,,,cyan,hexagon
224.0,3.0,3.0,0.0,1.0,1.0,354.3858130001354,4.0,1.0,part_1,,,,,,,,,,,,,orange,square
59.0,1.0,1.0,0.0,2.0,2.0,323.9070919998994,4.0,1.0,part_1,,,,,,,,,,,,,cyan,hexagon
71.0,1.0,1.0,0.0,3.0,3.0,361.8776719999914,4.0,1.0,part_1,,,,,,,,,,,,,cyan,hexagon
27.0,1.0,1.0,0.0,2.0,2.0,284.3187959997522,4.0,1.0,part_1,,,,,,,,,,,,,cyan,hexagon
0.0,7.0,0.0,1.0,3.0,3.0,415.3850879997662,4.0,1.0,part_1,,,,,,,,,,,,,magenta,flipped triangle
74.0,1.0,1.0,0.0,3.0,3.0,438.0148190002728,4.0,1.0,part_1,,,,,,,,,,,,,cyan,hexagon
212.0,7.0,3.0,1.0,2.0,2.0,349.0370990002702,4.0,1.0,part_1,,,,,,,,,,,,,magenta,flipped triangle
221.0,3.0,3.0,0.0,1.0,1.0,384.7003559999393,4.0,1.0,part_1,,,,,,,,,,,,,orange,square
95.0,6.0,2.0,1.0,1.0,1.0,316.066765999949,4.0,1.0,part_1,,,,,,,,,,,,,green,diamond
382.0,4.0,4.0,0.0,1.0,1.0,345.2312330000495,4.0,1.0,part_1,,,,,,,,,,,,,yellow,I
0.0,5.0,0.0,1.0,2.0,2.0,336.4805600003819,4.0,1.0,part_1,,,,,,,,,,,,,white,circle
29.0,5.0,1.0,1.0,3.0,3.0,404.7737430000779,4.0,1.0,part_1,,,,,,,,,,,,,white,circle
98.0,2.0,2.0,0.0,4.0,4.0,377.3909619999358,4.0,1.0,part_1,,,,,,,,,,,,,gray,cross
382.0,8.0,4.0,1.0,1.0,1.0,390.2854940001816,4.0,1.0,part_1,,,,,,,,,,,,,blue,triangle
201.0,3.0,3.0,0.0,1.0,1.0,390.6813479998163,4.0,1.0,part_1,,,,,,,,,,,,,orange,square
196.0,7.0,3.0,1.0,2.0,2.0,272.3627130003478,4.0,1.0,part_1,,,,,,,,,,,,,magenta,flipped triangle
96.0,6.0,2.0,1.0,1.0,1.0,402.4762220001321,4.0,1.0,part_1,,,,,,,,,,,,,green,diamond
47.0,5.0,1.0,1.0,1.0,1.0,334.8947699996643,4.0,1.0,part_1,,,,,,,,,,,,,white,circle
93.0,2.0,2.0,0.0,2.0,2.0,278.0950800001847,4.0,1.0,part_1,,,,,,,,,,,,,gray,cross
110.0,6.0,2.0,1.0,4.0,4.0,355.0771479999639,4.0,1.0,part_1,,,,,,,,,,,,,green,diamond
0.0,6.0,0.0,1.0,2.0,2.0,272.027855000033,4.0,1.0,part_1,,,,,,,,,,,,,green,diamond
37.0,5.0,1.0,1.0,2.0,2.0,339.4279650001408,4.0,1.0,part_1,,,,,,,,,,,,,white,circle
201.0,7.0,3.0,1.0,2.0,2.0,297.4554679999528,4.0,1.0,part_1,,,,,,,,,,,,,magenta,flipped triangle
211.0,7.0,3.0,1.0,3.0,3.0,418.5731500001566,4.0,1.0,part_1,,,,,,,,,,,,,magenta,flipped triangle
68.0,5.0,1.0,1.0,4.0,4.0,467.3627820002366,4.0,1.0,part_1,,,,,,,,,,,,,white,circle
63.0,1.0,1.0,0.0,3.0,3.0,485.5961920002301,4.0,1.0,part_1,,,,,,,,,,,,,cyan,hexagon
59.0,5.0,1.0,1.0,3.0,3.0,360.6598579999627,4.0,1.0,part_1,,,,,,,,,,,,,white,circle
379.0,8.0,4.0,1.0,1.0,1.0,387.4861089998376,4.0,1.0,part_1,,,,,,,,,,,,,blue,triangle
30.0,1.0,1.0,0.0,1.0,1.0,310.2756419998513,4.0,1.0,part_1,,,,,,,,,,,,,cyan,hexagon
64.0,1.0,1.0,0.0,3.0,3.0,343.9707769998676,4.0,1.0,part_1,,,,,,,,,,,,,cyan,hexagon
32.0,1.0,1.0,0.0,2.0,2.0,335.1234760002626,4.0,1.0,part_1,,,,,,,,,,,,,cyan,hexagon
0.0,5.0,0.0,1.0,3.0,3.0,360.050972999943,4.0,1.0,part_1,,,,,,,,,,,,,white,circle
91.0,6.0,2.0,1.0,3.0,3.0,302.7786510001533,4.0,1.0,part_1,,,,,,,,,,,,,green,diamond
76.0,6.0,2.0,1.0,3.0,3.0,326.8154890001824,4.0,1.0,part_1,,,,,,,,,,,,,green,diamond
0.0,3.0,0.0,0.0,1.0,1.0,310.0829640002303,4.0,1.0,part_1,,,,,,,,,,,,,orange,square
217.0,7.0,3.0,1.0,3.0,3.0,336.5202200002386,4.0,1.0,part_1,,,,,,,,,,,,,magenta,flipped triangle
383.0,8.0,4.0,1.0,4.0,4.0,530.9148629999072,4.0,1.0,part_1,,,,,,,,,,,,,blue,triangle
68.0,1.0,1.0,0.0,4.0,4.0,428.335873999913,4.0,1.0,part_1,,,,,,,,,,,,,cyan,hexagon
179.0,7.0,3.0,1.0,1.0,1.0,456.9898229997307,4.0,1.0,part_1,,,,,,,,,,,,,magenta,flipped triangle
423.0,8.0,4.0,1.0,4.0,4.0,353.175629999896,4.0,1.0,part_1,,,,,,,,,,,,,blue,triangle
115.0,6.0,2.0,1.0,4.0,4.0,453.2136029997673,4.0,1.0,part_1,,,,,,,,,,,,,green,diamond
108.0,2.0,2.0,0.0,4.0,4.0,401.658519999728,4.0,1.0,part_1,,,,,,,,,,,,,gray,cross
95.0,2.0,2.0,0.0,2.0,2.0,597.9833020001024,4.0,1.0,part_1,,,,,,,,,,,,,gray,cross
0.0,6.0,2.0,1.0,5.0,5.0,691.4545330000692,1.0,0.0,part_2,stop,250.0,250.0,3.0,,,,,,,,,green,diamond
0.0,8.0,4.0,1.0,6.0,6.0,314.9926099999902,1.0,0.0,part_2,go,200.0,250.0,1.0,,,,,,,,,blue,triangle
0.0,3.0,3.0,0.0,6.0,6.0,283.2060549999369,1.0,0.0,part_2,go,200.0,250.0,1.0,,,,,,,,,orange,square
0.0,4.0,4.0,0.0,5.0,5.0,227.0362949998343,1.0,0.0,part_2,go,200.0,250.0,1.0,,,,,,,,,yellow,I
0.0,4.0,4.0,0.0,6.0,6.0,288.9039159999811,1.0,0.0,part_2,go,200.0,250.0,1.0,,,,,,,,,yellow,I
0.0,7.0,3.0,1.0,5.0,5.0,251.11882300006982,1.0,0.0,part_2,stop,200.0,250.0,3.0,,,,,,,,,magenta,flipped triangle
0.0,8.0,4.0,1.0,6.0,6.0,318.9111240003512,1.0,0.0,part_2,go,150.0,250.0,1.0,,,,,,,,,blue,triangle
0.0,8.0,4.0,1.0,5.0,5.0,299.4700449999072,1.0,0.0,part_2,stop,150.0,250.0,3.0,,,,,,,,,blue,triangle
0.0,6.0,2.0,1.0,5.0,5.0,428.7672149998798,1.0,0.0,part_2,go,100.0,250.0,1.0,,,,,,,,,green,diamond
0.0,4.0,4.0,0.0,5.0,5.0,310.6780220000473,1.0,0.0,part_2,go,100.0,250.0,1.0,,,,,,,,,yellow,I
0.0,6.0,2.0,1.0,6.0,6.0,263.0367330002627,1.0,0.0,part_2,go,100.0,250.0,1.0,,,,,,,,,green,diamond
0.0,7.0,3.0,1.0,5.0,5.0,273.834701999931,1.0,0.0,part_2,stop,100.0,250.0,3.0,,,,,,,,,magenta,flipped triangle
0.0,3.0,3.0,0.0,5.0,5.0,409.5308269997986,1.0,0.0,part_2,go,50.0,250.0,1.0,,,,,,,,,orange,square
0.0,5.0,1.0,1.0,6.0,6.0,287.7434769998217,1.0,0.0,part_2,stop,50.0,250.0,3.0,,,,,,,,,white,circle
0.0,3.0,3.0,0.0,6.0,6.0,314.1872820001481,1.0,0.0,part_2,go,50.0,200.0,1.0,,,,,,,,,orange,square
0.0,8.0,4.0,1.0,6.0,6.0,340.7050839996373,1.0,0.0,part_2,go,50.0,200.0,1.0,,,,,,,,,blue,triangle
0.0,7.0,3.0,1.0,5.0,5.0,327.3644189998776,1.0,0.0,part_2,stop,50.0,200.0,3.0,,,,,,,,,magenta,flipped triangle
0.0,6.0,2.0,1.0,5.0,5.0,307.67688800006,1.0,0.0,part_2,stop,0.0,200.0,3.0,,,,,,,,,green,diamond
0.0,4.0,4.0,0.0,6.0,6.0,365.9392250001474,1.0,0.0,part_2,go,0.0,200.0,1.0,,,,,,,,,yellow,I
0.0,8.0,4.0,1.0,6.0,6.0,382.4905899996338,1.0,0.0,part_2,stop,0.0,200.0,3.0,,,,,,,,,blue,triangle
0.0,4.0,4.0,0.0,6.0,6.0,696.6092190000381,1.0,0.0,part_2,go,0.0,150.0,1.0,,,,,,,,,yellow,I
0.0,5.0,1.0,1.0,5.0,5.0,462.6142289998824,1.0,0.0,part_2,go,0.0,150.0,1.0,,,,,,,,,white,circle
0.0,6.0,2.0,1.0,6.0,6.0,454.6862750003129,1.0,0.0,part_2,go,0.0,150.0,1.0,,,,,,,,,green,diamond
0.0,6.0,2.0,1.0,6.0,6.0,220.081489000222,1.0,0.0,part_2,stop,0.0,150.0,3.0,,,,,,,,,green,diamond
0.0,5.0,1.0,1.0,6.0,6.0,405.2233399997931,1.0,0.0,part_2,stop,0.0,100.0,3.0,,,,,,,,,white,circle
0.0,5.0,1.0,1.0,5.0,5.0,783.7874840001859,1.0,0.0,part_2,stop,0.0,50.0,3.0,,,,,,,,,white,circle
0.0,2.0,2.0,0.0,5.0,6.0,1247.0170120000148,1.0,0.0,part_2,go,0.0,50.0,2.0,,,,,,,,,gray,cross
0.0,3.0,3.0,0.0,6.0,6.0,941.9351239998832,1.0,0.0,part_2,go,0.0,50.0,1.0,,,,,,,,,orange,square
0.0,5.0,1.0,1.0,5.0,5.0,1072.953657999733,1.0,0.0,part_2,go,0.0,50.0,1.0,,,,,,,,,white,circle
0.0,2.0,2.0,0.0,6.0,6.0,755.0707819996205,1.0,0.0,part_2,go,0.0,50.0,1.0,,,,,,,,,gray,cross
0.0,1.0,1.0,0.0,5.0,5.0,910.4267870002332,1.0,0.0,part_2,go,0.0,50.0,1.0,,,,,,,,,cyan,hexagon
0.0,6.0,2.0,1.0,5.0,5.0,391.2206579998383,1.0,0.0,part_2,stop,0.0,50.0,3.0,,,,,,,,,green,diamond
0.0,8.0,4.0,1.0,6.0,6.0,639.7038209997845,1.0,0.0,part_2,stop,0.0,50.0,3.0,,,,,,,,,blue,triangle
0.0,1.0,1.0,0.0,5.0,5.0,290.1418040000862,1.0,0.0,part_2,go,0.0,0.0,1.0,,,,,,,,,cyan,hexagon
0.0,6.0,2.0,1.0,6.0,6.0,262.6348640001197,1.0,0.0,part_2,stop,0.0,0.0,3.0,,,,,,,,,green,diamond
0.0,5.0,1.0,1.0,5.0,5.0,895.3045480002402,1.0,0.0,part_2,go,0.0,0.0,1.0,,,,,,,,,white,circle
0.0,2.0,2.0,0.0,6.0,0.0,0.0,2.0,0.0,part_2,go,0.0,0.0,5.0,,,,,,,,,gray,cross
0.0,8.0,4.0,1.0,6.0,6.0,509.4860289996177,2.0,0.0,part_2,stop,0.0,0.0,3.0,,,,,,,,,blue,triangle
0.0,3.0,3.0,0.0,5.0,5.0,509.14745199997924,2.0,0.0,part_2,go,0.0,0.0,1.0,,,,,,,,,orange,square
0.0,2.0,2.0,0.0,5.0,5.0,409.4498880003812,2.0,0.0,part_2,go,0.0,0.0,1.0,,,,,,,,,gray,cross
0.0,3.0,3.0,0.0,6.0,6.0,330.4059759998381,2.0,0.0,part_2,go,0.0,0.0,1.0,,,,,,,,,orange,square
0.0,8.0,4.0,1.0,6.0,5.0,334.3142359999547,2.0,0.0,part_2,stop,0.0,0.0,3.0,,,,,,,,,blue,triangle
0.0,7.0,3.0,1.0,6.0,6.0,317.8902219997326,2.0,0.0,part_2,stop,0.0,0.0,3.0,,,,,,,,,magenta,flipped triangle
0.0,5.0,1.0,1.0,5.0,0.0,0.0,2.0,0.0,part_2,stop,0.0,0.0,4.0,,,,,,,,,white,circle
0.0,2.0,2.0,0.0,5.0,5.0,331.6024249998008,2.0,0.0,part_2,go,50.0,0.0,1.0,,,,,,,,,gray,cross
0.0,6.0,2.0,1.0,6.0,0.0,0.0,2.0,0.0,part_2,stop,50.0,0.0,4.0,,,,,,,,,green,diamond
0.0,4.0,4.0,0.0,5.0,5.0,333.8287890001084,2.0,0.0,part_2,go,50.0,50.0,1.0,,,,,,,,,yellow,I
0.0,3.0,3.0,0.0,6.0,6.0,666.0885460000827,2.0,0.0,part_2,go,50.0,50.0,1.0,,,,,,,,,orange,square
0.0,2.0,2.0,0.0,5.0,5.0,727.1221870000772,2.0,0.0,part_2,go,50.0,50.0,1.0,,,,,,,,,gray,cross
0.0,2.0,2.0,0.0,5.0,5.0,412.8887000001668,2.0,0.0,part_2,go,50.0,50.0,1.0,,,,,,,,,gray,cross
0.0,3.0,3.0,0.0,6.0,6.0,506.32510700006605,2.0,0.0,part_2,go,50.0,50.0,1.0,,,,,,,,,orange,square
0.0,8.0,4.0,1.0,6.0,6.0,416.1529220000375,2.0,0.0,part_2,stop,50.0,50.0,3.0,,,,,,,,,blue,triangle
0.0,2.0,2.0,0.0,5.0,5.0,932.63135899997,2.0,0.0,part_2,go,50.0,0.0,1.0,,,,,,,,,gray,cross
0.0,1.0,1.0,0.0,6.0,6.0,321.5723230000549,2.0,0.0,part_2,go,50.0,0.0,1.0,,,,,,,,,cyan,hexagon
0.0,8.0,4.0,1.0,5.0,5.0,457.3080659997686,2.0,0.0,part_2,stop,50.0,0.0,3.0,,,,,,,,,blue,triangle
0.0,8.0,4.0,1.0,5.0,0.0,0.0,2.0,0.0,part_2,stop,0.0,0.0,4.0,,,,,,,,,blue,triangle
0.0,3.0,3.0,0.0,5.0,5.0,612.9688500000157,2.0,0.0,part_2,go,50.0,0.0,1.0,,,,,,,,,orange,square
0.0,7.0,3.0,1.0,6.0,6.0,363.1160400000226,2.0,0.0,part_2,stop,50.0,0.0,3.0,,,,,,,,,magenta,flipped triangle
0.0,1.0,1.0,0.0,6.0,6.0,1375.535606000085,2.0,0.0,part_2,go,50.0,0.0,1.0,,,,,,,,,cyan,hexagon
0.0,8.0,4.0,1.0,6.0,6.0,712.5117059999866,2.0,0.0,part_2,go,50.0,0.0,1.0,,,,,,,,,blue,triangle
0.0,8.0,4.0,1.0,6.0,6.0,271.537766000165,2.0,0.0,part_2,stop,50.0,0.0,3.0,,,,,,,,,blue,triangle
0.0,3.0,3.0,0.0,5.0,5.0,980.0867530002506,2.0,0.0,part_2,go,50.0,0.0,1.0,,,,,,,,,orange,square
0.0,4.0,4.0,0.0,5.0,5.0,449.4482969998898,2.0,0.0,part_2,go,50.0,0.0,1.0,,,,,,,,,yellow,I
0.0,3.0,3.0,0.0,5.0,5.0,644.1051730002982,2.0,0.0,part_2,go,50.0,0.0,1.0,,,,,,,,,orange,square
0.0,7.0,3.0,1.0,6.0,6.0,576.3100180001857,2.0,0.0,part_2,stop,50.0,0.0,3.0,,,,,,,,,magenta,flipped triangle
0.0,1.0,1.0,0.0,5.0,5.0,851.8384509998214,2.0,0.0,part_2,go,50.0,0.0,1.0,,,,,,,,,cyan,hexagon
0.0,1.0,1.0,0.0,6.0,6.0,340.9574980000798,2.0,0.0,part_2,go,50.0,0.0,1.0,,,,,,,,,cyan,hexagon
0.0,5.0,1.0,1.0,6.0,6.0,358.455178999975,2.0,0.0,part_2,stop,50.0,0.0,3.0,,,,,,,,,white,circle
0.0,2.0,2.0,0.0,6.0,6.0,1086.0616380000463,2.0,0.0,part_2,go,50.0,0.0,1.0,,,,,,,,,gray,cross
0.0,8.0,4.0,1.0,5.0,0.0,0.0,2.0,0.0,part_2,stop,50.0,0.0,4.0,,,,,,,,,blue,triangle
0.0,3.0,3.0,0.0,6.0,6.0,358.8887109999632,2.0,0.0,part_2,go,100.0,0.0,1.0,,,,,,,,,orange,square
0.0,7.0,3.0,1.0,5.0,0.0,0.0,2.0,0.0,part_2,stop,100.0,0.0,4.0,,,,,,,,,magenta,flipped triangle
0.0,8.0,4.0,1.0,5.0,5.0,960.9805539998888,3.0,0.0,part_2,stop,150.0,0.0,3.0,,,,,,,,,blue,triangle
0.0,6.0,2.0,1.0,5.0,5.0,641.9359830001667,3.0,0.0,part_2,go,100.0,0.0,1.0,,,,,,,,,green,diamond
0.0,3.0,3.0,0.0,5.0,5.0,287.0550180000464,3.0,0.0,part_2,go,100.0,0.0,1.0,,,,,,,,,orange,square
0.0,1.0,1.0,0.0,5.0,5.0,228.7961400002132,3.0,0.0,part_2,go,100.0,0.0,1.0,,,,,,,,,cyan,hexagon
0.0,7.0,3.0,1.0,6.0,6.0,355.9403009999187,3.0,0.0,part_2,go,100.0,0.0,1.0,,,,,,,,,magenta,flipped triangle
0.0,5.0,1.0,1.0,6.0,6.0,197.9095140000026,3.0,0.0,part_2,stop,100.0,0.0,3.0,,,,,,,,,white,circle
0.0,1.0,1.0,0.0,5.0,5.0,315.8575679999558,3.0,0.0,part_2,go,100.0,0.0,1.0,,,,,,,,,cyan,hexagon
0.0,5.0,1.0,1.0,6.0,6.0,286.5823189999901,3.0,0.0,part_2,go,100.0,0.0,1.0,,,,,,,,,white,circle
0.0,3.0,3.0,0.0,5.0,5.0,239.4535510002242,3.0,0.0,part_2,go,100.0,0.0,1.0,,,,,,,,,orange,square
0.0,1.0,1.0,0.0,5.0,5.0,212.6154600000518,3.0,0.0,part_2,go,100.0,0.0,1.0,,,,,,,,,cyan,hexagon
0.0,6.0,2.0,1.0,6.0,5.0,225.8690260000548,3.0,0.0,part_2,stop,100.0,0.0,3.0,,,,,,,,,green,diamond
0.0,4.0,4.0,0.0,5.0,5.0,269.6415099999285,3.0,0.0,part_2,go,100.0,0.0,1.0,,,,,,,,,yellow,I
0.0,8.0,4.0,1.0,5.0,5.0,278.8240840000071,3.0,0.0,part_2,stop,100.0,0.0,3.0,,,,,,,,,blue,triangle
0.0,8.0,4.0,1.0,6.0,5.0,210.6496689998493,3.0,0.0,part_2,stop,50.0,0.0,3.0,,,,,,,,,blue,triangle
0.0,4.0,4.0,0.0,5.0,5.0,219.9378149998665,3.0,0.0,part_2,go,50.0,0.0,1.0,,,,,,,,,yellow,I
0.0,7.0,3.0,1.0,6.0,6.0,348.2479809999859,3.0,0.0,part_2,go,50.0,0.0,1.0,,,,,,,,,magenta,flipped triangle
0.0,1.0,1.0,0.0,5.0,5.0,264.9476190003952,3.0,0.0,part_2,go,50.0,0.0,1.0,,,,,,,,,cyan,hexagon
0.0,4.0,4.0,0.0,6.0,6.0,232.3585270000876,3.0,0.0,part_2,go,50.0,0.0,1.0,,,,,,,,,yellow,I
0.0,8.0,4.0,1.0,6.0,6.0,218.5421839999435,3.0,0.0,part_2,stop,50.0,0.0,3.0,,,,,,,,,blue,triangle
0.0,1.0,1.0,0.0,5.0,5.0,323.5647290002816,3.0,0.0,part_2,go,50.0,0.0,1.0,,,,,,,,,cyan,hexagon
0.0,8.0,4.0,1.0,6.0,6.0,358.146153999769,3.0,0.0,part_2,go,50.0,0.0,1.0,,,,,,,,,blue,triangle
0.0,7.0,3.0,1.0,5.0,5.0,238.3272179999949,3.0,0.0,part_2,stop,50.0,0.0,3.0,,,,,,,,,magenta,flipped triangle
0.0,1.0,1.0,0.0,5.0,5.0,760.6890950000889,3.0,0.0,part_2,go,0.0,0.0,1.0,,,,,,,,,cyan,hexagon
0.0,7.0,3.0,1.0,6.0,6.0,264.7268689997872,3.0,0.0,part_2,stop,0.0,0.0,3.0,,,,,,,,,magenta,flipped triangle
0.0,3.0,3.0,0.0,6.0,6.0,656.0964459999923,3.0,0.0,part_2,go,0.0,0.0,1.0,,,,,,,,,orange,square
0.0,7.0,3.0,1.0,5.0,5.0,315.0834060002125,3.0,0.0,part_2,go,0.0,0.0,1.0,,,,,,,,,magenta,flipped triangle
0.0,6.0,2.0,1.0,5.0,0.0,0.0,3.0,0.0,part_2,stop,0.0,0.0,4.0,,,,,,,,,green,diamond
0.0,3.0,3.0,0.0,5.0,6.0,376.2924779998684,3.0,0.0,part_2,go,50.0,0.0,2.0,,,,,,,,,orange,square
0.0,1.0,1.0,0.0,5.0,5.0,301.9488830000227,3.0,0.0,part_2,go,50.0,0.0,1.0,,,,,,,,,cyan,hexagon
0.0,1.0,1.0,0.0,6.0,6.0,275.766097000087,3.0,0.0,part_2,go,50.0,0.0,1.0,,,,,,,,,cyan,hexagon
0.0,2.0,2.0,0.0,6.0,6.0,303.0824359998405,3.0,0.0,part_2,go,50.0,0.0,1.0,,,,,,,,,gray,cross
0.0,7.0,3.0,1.0,5.0,5.0,355.4451899999549,3.0,0.0,part_2,stop,50.0,0.0,3.0,,,,,,,,,magenta,flipped triangle
0.0,3.0,3.0,0.0,6.0,6.0,372.4557089999507,3.0,0.0,part_2,go,0.0,0.0,1.0,,,,,,,,,orange,square
0.0,7.0,3.0,1.0,6.0,6.0,222.372709999945,3.0,0.0,part_2,stop,0.0,0.0,3.0,,,,,,,,,magenta,flipped triangle
0.0,7.0,3.0,1.0,6.0,6.0,353.1887129997813,3.0,0.0,part_2,go,0.0,0.0,1.0,,,,,,,,,magenta,flipped triangle
0.0,8.0,4.0,1.0,6.0,6.0,390.9843340002226,3.0,0.0,part_2,go,0.0,0.0,1.0,,,,,,,,,blue,triangle
0.0,4.0,4.0,0.0,6.0,0.0,0.0,4.0,0.0,part_2,go,0.0,0.0,5.0,,,,,,,,,yellow,I
0.0,7.0,3.0,1.0,5.0,5.0,1246.70465600002,4.0,0.0,part_2,stop,0.0,0.0,3.0,,,,,,,,,magenta,flipped triangle
0.0,1.0,1.0,0.0,5.0,5.0,1314.1531199999008,4.0,0.0,part_2,go,0.0,0.0,1.0,,,,,,,,,cyan,hexagon
0.0,7.0,3.0,1.0,6.0,6.0,504.52358600023217,4.0,0.0,part_2,stop,0.0,0.0,3.0,,,,,,,,,magenta,flipped triangle
0.0,7.0,3.0,1.0,5.0,5.0,745.9584130001531,4.0,0.0,part_2,go,0.0,0.0,1.0,,,,,,,,,magenta,flipped triangle
0.0,2.0,2.0,0.0,5.0,5.0,776.4657289999377,4.0,0.0,part_2,go,0.0,0.0,1.0,,,,,,,,,gray,cross
0.0,3.0,3.0,0.0,5.0,5.0,421.7872029998943,4.0,0.0,part_2,go,0.0,0.0,1.0,,,,,,,,,orange,square
0.0,7.0,3.0,1.0,5.0,5.0,374.1714750003666,4.0,0.0,part_2,go,0.0,0.0,1.0,,,,,,,,,magenta,flipped triangle
0.0,6.0,2.0,1.0,5.0,0.0,0.0,4.0,0.0,part_2,stop,0.0,0.0,4.0,,,,,,,,,green,diamond
0.0,8.0,4.0,1.0,5.0,5.0,1013.0487409996931,4.0,0.0,part_2,stop,50.0,0.0,3.0,,,,,,,,,blue,triangle
0.0,3.0,3.0,0.0,6.0,6.0,719.0748469997743,4.0,0.0,part_2,go,0.0,0.0,1.0,,,,,,,,,orange,square
0.0,5.0,1.0,1.0,5.0,5.0,347.844986000382,4.0,0.0,part_2,stop,0.0,0.0,3.0,,,,,,,,,white,circle
0.0,6.0,2.0,1.0,6.0,0.0,0.0,4.0,0.0,part_2,stop,0.0,0.0,4.0,,,,,,,,,green,diamond
0.0,4.0,4.0,0.0,5.0,5.0,714.9904559996685,4.0,0.0,part_2,go,0.0,50.0,1.0,,,,,,,,,yellow,I
0.0,6.0,2.0,1.0,6.0,0.0,0.0,4.0,0.0,part_2,stop,0.0,50.0,4.0,,,,,,,,,green,diamond
0.0,2.0,2.0,0.0,5.0,5.0,795.7208259999788,4.0,0.0,part_2,go,0.0,100.0,1.0,,,,,,,,,gray,cross
0.0,2.0,2.0,0.0,5.0,5.0,550.4554489998554,4.0,0.0,part_2,go,0.0,100.0,1.0,,,,,,,,,gray,cross
0.0,4.0,4.0,0.0,5.0,5.0,755.4910869998821,4.0,0.0,part_2,go,0.0,100.0,1.0,,,,,,,,,yellow,I
0.0,6.0,2.0,1.0,6.0,6.0,305.0156369999968,4.0,0.0,part_2,stop,0.0,100.0,3.0,,,,,,,,,green,diamond
0.0,8.0,4.0,1.0,5.0,0.0,0.0,4.0,0.0,part_2,stop,0.0,50.0,4.0,,,,,,,,,blue,triangle
0.0,3.0,3.0,0.0,6.0,6.0,581.5831500003696,4.0,0.0,part_2,go,50.0,50.0,1.0,,,,,,,,,orange,square
0.0,5.0,1.0,1.0,6.0,6.0,999.782838000101,4.0,0.0,part_2,go,50.0,50.0,1.0,,,,,,,,,white,circle
0.0,2.0,2.0,0.0,6.0,6.0,678.5285549999571,4.0,0.0,part_2,go,50.0,50.0,1.0,,,,,,,,,gray,cross
0.0,5.0,1.0,1.0,6.0,0.0,0.0,4.0,0.0,part_2,stop,50.0,50.0,4.0,,,,,,,,,white,circle
0.0,5.0,1.0,1.0,5.0,0.0,0.0,4.0,0.0,part_2,stop,50.0,100.0,4.0,,,,,,,,,white,circle
0.0,2.0,2.0,0.0,5.0,5.0,1176.6841500002556,4.0,0.0,part_2,go,100.0,100.0,1.0,,,,,,,,,gray,cross
0.0,2.0,2.0,0.0,6.0,6.0,670.2786990003915,4.0,0.0,part_2,go,100.0,100.0,1.0,,,,,,,,,gray,cross
0.0,8.0,4.0,1.0,5.0,5.0,445.681243999843,4.0,0.0,part_2,stop,100.0,100.0,3.0,,,,,,,,,blue,triangle
0.0,5.0,1.0,1.0,5.0,5.0,1022.944515999825,4.0,0.0,part_2,go,50.0,100.0,1.0,,,,,,,,,white,circle
0.0,4.0,4.0,0.0,6.0,6.0,360.3096980000373,4.0,0.0,part_2,go,50.0,100.0,1.0,,,,,,,,,yellow,I
0.0,3.0,3.0,0.0,5.0,5.0,1000.6986320004216,4.0,0.0,part_2,go,50.0,100.0,1.0,,,,,,,,,orange,square
0.0,5.0,1.0,1.0,6.0,6.0,540.9123949998502,4.0,0.0,part_2,stop,50.0,100.0,3.0,,,,,,,,,white,circle
0.0,6.0,2.0,1.0,5.0,5.0,902.76904700022,4.0,0.0,part_2,go,50.0,50.0,1.0,,,,,,,,,green,diamond
0.0,4.0,4.0,0.0,6.0,6.0,437.9533720002655,4.0,0.0,part_2,go,50.0,50.0,1.0,,,,,,,,,yellow,I
0.0,2.0,2.0,0.0,6.0,6.0,924.6719210000264,4.0,0.0,part_2,go,50.0,50.0,1.0,,,,,,,,,gray,cross
0.0,5.0,1.0,1.0,6.0,0.0,0.0,4.0,0.0,part_2,stop,50.0,50.0,4.0,,,,,,,,,white,circle
0.0,8.0,4.0,1.0,5.0,0.0,0.0,5.0,0.0,part_2,stop,50.0,100.0,4.0,,,,,,,,,blue,triangle
0.0,6.0,2.0,1.0,5.0,5.0,663.8643589999447,5.0,0.0,part_2,go,100.0,100.0,1.0,,,,,,,,,green,diamond
0.0,8.0,4.0,1.0,6.0,6.0,329.012573,5.0,0.0,part_2,stop,100.0,100.0,3.0,,,,,,,,,blue,triangle
0.0,7.0,3.0,1.0,6.0,0.0,0.0,5.0,0.0,part_2,stop,100.0,50.0,4.0,,,,,,,,,magenta,flipped triangle
0.0,1.0,1.0,0.0,6.0,6.0,433.8432259996807,5.0,0.0,part_2,go,100.0,100.0,1.0,,,,,,,,,cyan,hexagon
0.0,7.0,3.0,1.0,5.0,5.0,329.4081660001211,5.0,0.0,part_2,stop,100.0,100.0,3.0,,,,,,,,,magenta,flipped triangle
0.0,4.0,4.0,0.0,6.0,6.0,522.5211699998908,5.0,0.0,part_2,go,50.0,100.0,1.0,,,,,,,,,yellow,I
0.0,3.0,3.0,0.0,6.0,6.0,459.6232220001184,5.0,0.0,part_2,go,50.0,100.0,1.0,,,,,,,,,orange,square
0.0,2.0,2.0,0.0,6.0,6.0,346.9251029996485,5.0,0.0,part_2,go,50.0,100.0,1.0,,,,,,,,,gray,cross
0.0,6.0,2.0,1.0,6.0,6.0,353.131833000134,5.0,0.0,part_2,stop,50.0,100.0,3.0,,,,,,,,,green,diamond
0.0,8.0,4.0,1.0,6.0,6.0,364.9525330001779,5.0,0.0,part_2,stop,50.0,50.0,3.0,,,,,,,,,blue,triangle
0.0,4.0,4.0,0.0,5.0,5.0,827.3863659997005,5.0,0.0,part_2,go,50.0,0.0,1.0,,,,,,,,,yellow,I
0.0,7.0,3.0,1.0,6.0,6.0,344.8243419998107,5.0,0.0,part_2,stop,50.0,0.0,3.0,,,,,,,,,magenta,flipped triangle
0.0,2.0,2.0,0.0,6.0,6.0,546.8045089996849,5.0,0.0,part_2,go,50.0,0.0,1.0,,,,,,,,,gray,cross
0.0,2.0,2.0,0.0,5.0,5.0,473.0200050003077,5.0,0.0,part_2,go,50.0,0.0,1.0,,,,,,,,,gray,cross
0.0,4.0,4.0,0.0,5.0,5.0,381.2243779998425,5.0,0.0,part_2,go,50.0,0.0,1.0,,,,,,,,,yellow,I
0.0,1.0,1.0,0.0,6.0,6.0,319.9155919996883,5.0,0.0,part_2,go,50.0,0.0,1.0,,,,,,,,,cyan,hexagon
0.0,4.0,4.0,0.0,6.0,6.0,351.0258490000524,5.0,0.0,part_2,go,50.0,0.0,1.0,,,,,,,,,yellow,I
0.0,5.0,1.0,1.0,5.0,0.0,0.0,5.0,0.0,part_2,stop,50.0,0.0,4.0,,,,,,,,,white,circle
0.0,4.0,4.0,0.0,5.0,5.0,429.7530669996376,5.0,0.0,part_2,go,100.0,0.0,1.0,,,,,,,,,yellow,I
0.0,4.0,4.0,0.0,6.0,6.0,312.7311640000698,5.0,0.0,part_2,go,100.0,0.0,1.0,,,,,,,,,yellow,I
0.0,8.0,4.0,1.0,6.0,6.0,307.4505820000013,5.0,0.0,part_2,stop,100.0,0.0,3.0,,,,,,,,,blue,triangle
0.0,8.0,4.0,1.0,5.0,0.0,0.0,5.0,0.0,part_2,go,100.0,0.0,5.0,,,,,,,,,blue,triangle
0.0,6.0,2.0,1.0,6.0,6.0,357.220094999775,5.0,0.0,part_2,stop,100.0,0.0,3.0,,,,,,,,,green,diamond
0.0,3.0,3.0,0.0,6.0,6.0,415.3448480001316,5.0,0.0,part_2,go,100.0,0.0,1.0,,,,,,,,,orange,square
0.0,7.0,3.0,1.0,6.0,6.0,393.2518480000908,5.0,0.0,part_2,stop,100.0,0.0,3.0,,,,,,,,,magenta,flipped triangle
0.0,2.0,2.0,0.0,6.0,6.0,484.2336120000254,5.0,0.0,part_2,go,100.0,0.0,1.0,,,,,,,,,gray,cross
0.0,6.0,2.0,1.0,6.0,6.0,432.0113039998432,5.0,0.0,part_2,go,100.0,0.0,1.0,,,,,,,,,green,diamond
0.0,6.0,2.0,1.0,5.0,0.0,0.0,5.0,0.0,part_2,stop,100.0,0.0,4.0,,,,,,,,,green,diamond
0.0,1.0,1.0,0.0,5.0,5.0,585.8085660001962,5.0,0.0,part_2,go,150.0,0.0,1.0,,,,,,,,,cyan,hexagon
0.0,5.0,1.0,1.0,5.0,5.0,462.8480090000266,5.0,0.0,part_2,stop,150.0,0.0,3.0,,,,,,,,,white,circle
0.0,5.0,1.0,1.0,6.0,0.0,0.0,5.0,0.0,part_2,stop,100.0,0.0,4.0,,,,,,,,,white,circle
0.0,2.0,2.0,0.0,6.0,6.0,467.9751150001721,5.0,0.0,part_2,go,100.0,50.0,1.0,,,,,,,,,gray,cross
0.0,6.0,2.0,1.0,5.0,0.0,0.0,5.0,0.0,part_2,stop,100.0,50.0,4.0,,,,,,,,,green,diamond
0.0,7.0,3.0,1.0,5.0,0.0,0.0,5.0,0.0,part_2,stop,150.0,50.0,4.0,,,,,,,,,magenta,flipped triangle
0.0,7.0,3.0,1.0,5.0,0.0,0.0,5.0,0.0,part_2,stop,200.0,50.0,4.0,,,,,,,,,magenta,flipped triangle
0.0,1.0,1.0,0.0,6.0,0.0,0.0,6.0,0.0,part_2,go,250.0,50.0,5.0,,,,,,,,,cyan,hexagon
0.0,4.0,4.0,0.0,6.0,6.0,443.7764859999333,6.0,0.0,part_2,go,250.0,50.0,1.0,,,,,,,,,yellow,I
0.0,7.0,3.0,1.0,6.0,6.0,402.3069699996995,6.0,0.0,part_2,go,250.0,50.0,1.0,,,,,,,,,magenta,flipped triangle
0.0,1.0,1.0,0.0,6.0,6.0,335.6698839997989,6.0,0.0,part_2,go,250.0,50.0,1.0,,,,,,,,,cyan,hexagon
0.0,2.0,2.0,0.0,6.0,6.0,385.9822730000815,6.0,0.0,part_2,go,250.0,50.0,1.0,,,,,,,,,gray,cross
0.0,6.0,2.0,1.0,5.0,0.0,0.0,6.0,0.0,part_2,stop,250.0,50.0,4.0,,,,,,,,,green,diamond
0.0,2.0,2.0,0.0,5.0,5.0,500.00216800026465,6.0,0.0,part_2,go,300.0,50.0,1.0,,,,,,,,,gray,cross
0.0,8.0,4.0,1.0,5.0,5.0,419.922998000402,6.0,0.0,part_2,stop,300.0,50.0,3.0,,,,,,,,,blue,triangle
0.0,4.0,4.0,0.0,5.0,5.0,611.5343450001092,6.0,0.0,part_2,go,250.0,50.0,1.0,,,,,,,,,yellow,I
0.0,4.0,4.0,0.0,6.0,6.0,542.0876969997153,6.0,0.0,part_2,go,250.0,50.0,1.0,,,,,,,,,yellow,I
0.0,7.0,3.0,1.0,6.0,0.0,0.0,6.0,0.0,part_2,stop,250.0,50.0,4.0,,,,,,,,,magenta,flipped triangle
0.0,1.0,1.0,0.0,5.0,5.0,969.974557000114,6.0,0.0,part_2,go,250.0,100.0,1.0,,,,,,,,,cyan,hexagon
0.0,1.0,1.0,0.0,5.0,5.0,586.2418359997719,6.0,0.0,part_2,go,250.0,100.0,1.0,,,,,,,,,cyan,hexagon
0.0,7.0,3.0,1.0,5.0,5.0,766.3013559999854,6.0,0.0,part_2,go,250.0,100.0,1.0,,,,,,,,,magenta,flipped triangle
0.0,4.0,4.0,0.0,6.0,6.0,296.3415819999682,6.0,0.0,part_2,go,250.0,100.0,1.0,,,,,,,,,yellow,I
0.0,6.0,2.0,1.0,5.0,0.0,0.0,6.0,0.0,part_2,stop,250.0,100.0,4.0,,,,,,,,,green,diamond
0.0,1.0,1.0,0.0,6.0,6.0,587.113710000267,6.0,0.0,part_2,go,300.0,100.0,1.0,,,,,,,,,cyan,hexagon
0.0,3.0,3.0,0.0,6.0,6.0,532.8439869999784,6.0,0.0,part_2,go,300.0,100.0,1.0,,,,,,,,,orange,square
0.0,2.0,2.0,0.0,6.0,6.0,514.5784129999811,6.0,0.0,part_2,go,300.0,100.0,1.0,,,,,,,,,gray,cross
0.0,6.0,2.0,1.0,5.0,5.0,789.3912330000603,6.0,0.0,part_2,stop,300.0,100.0,3.0,,,,,,,,,green,diamond
0.0,6.0,2.0,1.0,5.0,5.0,548.1344470003933,6.0,0.0,part_2,stop,250.0,100.0,3.0,,,,,,,,,green,diamond
0.0,7.0,3.0,1.0,6.0,6.0,379.2750349998641,6.0,0.0,part_2,stop,200.0,100.0,3.0,,,,,,,,,magenta,flipped triangle
0.0,1.0,1.0,0.0,5.0,5.0,1006.0728339999514,6.0,0.0,part_2,go,200.0,50.0,1.0,,,,,,,,,cyan,hexagon
0.0,1.0,1.0,0.0,5.0,5.0,1006.2439520002044,6.0,0.0,part_2,go,200.0,50.0,1.0,,,,,,,,,cyan,hexagon
0.0,4.0,4.0,0.0,6.0,6.0,449.5253539998884,6.0,0.0,part_2,go,200.0,50.0,1.0,,,,,,,,,yellow,I
0.0,3.0,3.0,0.0,5.0,5.0,661.1675320000359,6.0,0.0,part_2,go,200.0,50.0,1.0,,,,,,,,,orange,square
0.0,6.0,2.0,1.0,5.0,5.0,742.6219099997979,6.0,0.0,part_2,go,200.0,50.0,1.0,,,,,,,,,green,diamond
0.0,5.0,1.0,1.0,6.0,6.0,391.6983459998846,6.0,0.0,part_2,stop,200.0,50.0,3.0,,,,,,,,,white,circle
0.0,4.0,4.0,0.0,5.0,5.0,517.507046999981,6.0,0.0,part_2,go,200.0,0.0,1.0,,,,,,,,,yellow,I
0.0,3.0,3.0,0.0,6.0,6.0,362.4601460001031,6.0,0.0,part_2,go,200.0,0.0,1.0,,,,,,,,,orange,square
0.0,8.0,4.0,1.0,5.0,5.0,406.7911670003923,6.0,0.0,part_2,stop,200.0,0.0,3.0,,,,,,,,,blue,triangle
0.0,5.0,1.0,1.0,6.0,6.0,459.3076909995943,6.0,0.0,part_2,go,150.0,0.0,1.0,,,,,,,,,white,circle
0.0,6.0,2.0,1.0,6.0,6.0,314.07671199986,6.0,0.0,part_2,stop,150.0,0.0,3.0,,,,,,,,,green,diamond
0.0,5.0,1.0,1.0,5.0,5.0,400.057862000267,6.0,0.0,part_2,stop,150.0,0.0,3.0,,,,,,,,,white,circle
0.0,5.0,1.0,1.0,5.0,0.0,0.0,6.0,0.0,part_2,stop,100.0,0.0,4.0,,,,,,,,,white,circle
0.0,3.0,3.0,0.0,5.0,5.0,824.8459110000113,6.0,0.0,part_2,go,150.0,0.0,1.0,,,,,,,,,orange,square
0.0,4.0,4.0,0.0,5.0,5.0,1332.49671700014,7.0,0.0,part_2,go,150.0,0.0,1.0,,,,,,,,,yellow,I
0.0,4.0,4.0,0.0,6.0,6.0,334.9116479998884,7.0,0.0,part_2,go,150.0,0.0,1.0,,,,,,,,,yellow,I
0.0,8.0,4.0,1.0,5.0,5.0,303.6155630002213,7.0,0.0,part_2,stop,150.0,0.0,3.0,,,,,,,,,blue,triangle
0.0,1.0,1.0,0.0,6.0,6.0,433.9587099998425,7.0,0.0,part_2,go,100.0,0.0,1.0,,,,,,,,,cyan,hexagon
0.0,6.0,2.0,1.0,5.0,5.0,479.982401000143,7.0,0.0,part_2,go,100.0,0.0,1.0,,,,,,,,,green,diamond
0.0,3.0,3.0,0.0,5.0,5.0,412.6227860001563,7.0,0.0,part_2,go,100.0,0.0,1.0,,,,,,,,,orange,square
0.0,3.0,3.0,0.0,5.0,5.0,431.8386939999072,7.0,0.0,part_2,go,100.0,0.0,1.0,,,,,,,,,orange,square
0.0,2.0,2.0,0.0,5.0,5.0,419.5409479998488,7.0,0.0,part_2,go,100.0,0.0,1.0,,,,,,,,,gray,cross
0.0,1.0,1.0,0.0,6.0,6.0,314.1631950002193,7.0,0.0,part_2,go,100.0,0.0,1.0,,,,,,,,,cyan,hexagon
0.0,5.0,1.0,1.0,6.0,5.0,319.5194780000747,7.0,0.0,part_2,stop,100.0,0.0,3.0,,,,,,,,,white,circle
0.0,2.0,2.0,0.0,5.0,5.0,1066.8575119998422,7.0,0.0,part_2,go,100.0,0.0,1.0,,,,,,,,,gray,cross
0.0,5.0,1.0,1.0,6.0,6.0,436.3443940001161,7.0,0.0,part_2,stop,100.0,0.0,3.0,,,,,,,,,white,circle
0.0,4.0,4.0,0.0,5.0,5.0,668.3103099999244,7.0,0.0,part_2,go,100.0,0.0,1.0,,,,,,,,,yellow,I
0.0,3.0,3.0,0.0,5.0,5.0,720.0859119998313,7.0,0.0,part_2,go,100.0,0.0,1.0,,,,,,,,,orange,square
0.0,7.0,3.0,1.0,5.0,0.0,0.0,7.0,0.0,part_2,stop,100.0,0.0,4.0,,,,,,,,,magenta,flipped triangle
0.0,2.0,2.0,0.0,6.0,6.0,617.2993059999499,7.0,0.0,part_2,go,150.0,0.0,1.0,,,,,,,,,gray,cross
0.0,7.0,3.0,1.0,5.0,0.0,0.0,7.0,0.0,part_2,stop,150.0,0.0,4.0,,,,,,,,,magenta,flipped triangle
0.0,7.0,3.0,1.0,5.0,5.0,1390.2255880002483,7.0,0.0,part_2,go,200.0,0.0,1.0,,,,,,,,,magenta,flipped triangle
0.0,7.0,3.0,1.0,5.0,0.0,0.0,7.0,0.0,part_2,stop,200.0,0.0,4.0,,,,,,,,,magenta,flipped triangle
0.0,4.0,4.0,0.0,5.0,5.0,872.6617970000916,7.0,0.0,part_2,go,250.0,0.0,1.0,,,,,,,,,yellow,I
0.0,6.0,2.0,1.0,6.0,6.0,355.7299190006233,7.0,0.0,part_2,stop,250.0,0.0,3.0,,,,,,,,,green,diamond
0.0,1.0,1.0,0.0,6.0,6.0,565.0751379998837,7.0,0.0,part_2,go,250.0,0.0,1.0,,,,,,,,,cyan,hexagon
0.0,2.0,2.0,0.0,5.0,5.0,534.2212209998252,7.0,0.0,part_2,go,250.0,0.0,1.0,,,,,,,,,gray,cross
0.0,4.0,4.0,0.0,6.0,6.0,498.3253099999274,7.0,0.0,part_2,go,250.0,0.0,1.0,,,,,,,,,yellow,I
0.0,6.0,2.0,1.0,6.0,6.0,336.6914640000686,7.0,0.0,part_2,stop,250.0,0.0,3.0,,,,,,,,,green,diamond
0.0,5.0,1.0,1.0,6.0,6.0,394.2060499994113,7.0,0.0,part_2,stop,250.0,0.0,3.0,,,,,,,,,white,circle
0.0,7.0,3.0,1.0,6.0,0.0,0.0,7.0,0.0,part_2,stop,250.0,0.0,4.0,,,,,,,,,magenta,flipped triangle
0.0,4.0,4.0,0.0,5.0,5.0,903.8273160003882,7.0,0.0,part_2,go,250.0,50.0,1.0,,,,,,,,,yellow,I
0.0,1.0,1.0,0.0,5.0,5.0,794.0687420004906,7.0,0.0,part_2,go,250.0,50.0,1.0,,,,,,,,,cyan,hexagon
0.0,6.0,2.0,1.0,6.0,0.0,0.0,7.0,0.0,part_2,stop,250.0,50.0,4.0,,,,,,,,,green,diamond
0.0,8.0,4.0,1.0,6.0,0.0,0.0,7.0,0.0,part_2,stop,250.0,100.0,4.0,,,,,,,,,blue,triangle
0.0,4.0,4.0,0.0,6.0,6.0,598.6902820004616,7.0,0.0,part_2,go,250.0,150.0,1.0,,,,,,,,,yellow,I
0.0,5.0,1.0,1.0,6.0,6.0,323.141048999787,7.0,0.0,part_2,stop,250.0,150.0,3.0,,,,,,,,,white,circle
0.0,1.0,1.0,0.0,5.0,5.0,292.4066699997638,7.0,0.0,part_2,go,250.0,100.0,1.0,,,,,,,,,cyan,hexagon
0.0,5.0,1.0,1.0,5.0,0.0,0.0,7.0,0.0,part_2,stop,250.0,100.0,4.0,,,,,,,,,white,circle
0.0,1.0,1.0,0.0,6.0,6.0,486.7764159998842,7.0,0.0,part_2,go,300.0,100.0,1.0,,,,,,,,,cyan,hexagon
0.0,3.0,3.0,0.0,5.0,5.0,1233.2568859992534,8.0,0.0,part_2,go,300.0,100.0,1.0,,,,,,,,,orange,square
0.0,1.0,1.0,0.0,6.0,6.0,456.74730599967,8.0,0.0,part_2,go,300.0,100.0,1.0,,,,,,,,,cyan,hexagon
0.0,5.0,1.0,1.0,5.0,5.0,482.0467409999764,8.0,0.0,part_2,stop,300.0,100.0,3.0,,,,,,,,,white,circle
0.0,8.0,4.0,1.0,5.0,0.0,0.0,8.0,0.0,part_2,stop,250.0,100.0,4.0,,,,,,,,,blue,triangle
0.0,4.0,4.0,0.0,5.0,5.0,500.58714100032375,8.0,0.0,part_2,go,300.0,100.0,1.0,,,,,,,,,yellow,I
0.0,2.0,2.0,0.0,6.0,6.0,527.7859499992701,8.0,0.0,part_2,go,300.0,100.0,1.0,,,,,,,,,gray,cross
0.0,3.0,3.0,0.0,6.0,6.0,479.5840810002119,8.0,0.0,part_2,go,300.0,100.0,1.0,,,,,,,,,orange,square
0.0,6.0,2.0,1.0,6.0,0.0,0.0,8.0,0.0,part_2,stop,300.0,100.0,4.0,,,,,,,,,green,diamond
0.0,3.0,3.0,0.0,6.0,6.0,1458.132593999835,8.0,0.0,part_2,go,300.0,150.0,1.0,,,,,,,,,orange,square
0.0,1.0,1.0,0.0,6.0,6.0,394.6288289998847,8.0,0.0,part_2,go,300.0,150.0,1.0,,,,,,,,,cyan,hexagon
0.0,1.0,1.0,0.0,6.0,6.0,326.9138139994538,8.0,0.0,part_2,go,300.0,150.0,1.0,,,,,,,,,cyan,hexagon
0.0,6.0,2.0,1.0,6.0,6.0,319.7288500005015,8.0,0.0,part_2,stop,300.0,150.0,3.0,,,,,,,,,green,diamond
0.0,8.0,4.0,1.0,5.0,5.0,677.0057379999344,8.0,0.0,part_2,go,300.0,100.0,1.0,,,,,,,,,blue,triangle
0.0,2.0,2.0,0.0,6.0,6.0,372.3369460003596,8.0,0.0,part_2,go,300.0,100.0,1.0,,,,,,,,,gray,cross
0.0,2.0,2.0,0.0,6.0,6.0,420.0316709993785,8.0,0.0,part_2,go,300.0,100.0,1.0,,,,,,,,,gray,cross
0.0,5.0,1.0,1.0,5.0,5.0,470.8578890003991,8.0,0.0,part_2,stop,300.0,100.0,3.0,,,,,,,,,white,circle
0.0,3.0,3.0,0.0,6.0,6.0,474.3365190006443,8.0,0.0,part_2,go,250.0,100.0,1.0,,,,,,,,,orange,square
0.0,3.0,3.0,0.0,5.0,5.0,342.7983800002039,8.0,0.0,part_2,go,250.0,100.0,1.0,,,,,,,,,orange,square
0.0,5.0,1.0,1.0,6.0,6.0,386.3481899998078,8.0,0.0,part_2,stop,250.0,100.0,3.0,,,,,,,,,white,circle
0.0,2.0,2.0,0.0,5.0,5.0,760.902865999924,8.0,0.0,part_2,go,250.0,50.0,1.0,,,,,,,,,gray,cross
0.0,2.0,2.0,0.0,6.0,6.0,356.7484979994333,8.0,0.0,part_2,go,250.0,50.0,1.0,,,,,,,,,gray,cross
0.0,2.0,2.0,0.0,5.0,5.0,404.5720519998212,8.0,0.0,part_2,go,250.0,50.0,1.0,,,,,,,,,gray,cross
0.0,8.0,4.0,1.0,5.0,0.0,0.0,8.0,0.0,part_2,stop,250.0,50.0,4.0,,,,,,,,,blue,triangle
0.0,6.0,2.0,1.0,5.0,5.0,514.5572860001266,8.0,0.0,part_2,stop,300.0,50.0,3.0,,,,,,,,,green,diamond
0.0,7.0,3.0,1.0,6.0,0.0,0.0,8.0,0.0,part_2,stop,250.0,50.0,4.0,,,,,,,,,magenta,flipped triangle
0.0,1.0,1.0,0.0,6.0,6.0,528.7236539998048,8.0,0.0,part_2,go,250.0,100.0,1.0,,,,,,,,,cyan,hexagon
0.0,2.0,2.0,0.0,5.0,5.0,480.4165399991689,8.0,0.0,part_2,go,250.0,100.0,1.0,,,,,,,,,gray,cross
0.0,5.0,1.0,1.0,6.0,6.0,412.386814000456,8.0,0.0,part_2,go,250.0,100.0,1.0,,,,,,,,,white,circle
0.0,3.0,3.0,0.0,5.0,5.0,804.8185739999099,8.0,0.0,part_2,go,250.0,100.0,1.0,,,,,,,,,orange,square
0.0,1.0,1.0,0.0,6.0,6.0,350.0356139993528,8.0,0.0,part_2,go,250.0,100.0,1.0,,,,,,,,,cyan,hexagon
0.0,5.0,1.0,1.0,5.0,5.0,481.573027000195,8.0,0.0,part_2,go,250.0,100.0,1.0,,,,,,,,,white,circle
0.0,5.0,1.0,1.0,5.0,0.0,0.0,8.0,0.0,part_2,stop,250.0,100.0,4.0,,,,,,,,,white,circle
0.0,7.0,3.0,1.0,6.0,0.0,0.0,8.0,0.0,part_2,stop,300.0,100.0,4.0,,,,,,,,,magenta,flipped triangle
0.0,4.0,4.0,0.0,6.0,6.0,532.7349729996058,8.0,0.0,part_2,go,300.0,150.0,1.0,,,,,,,,,yellow,I
0.0,8.0,4.0,1.0,5.0,5.0,470.3139089997421,8.0,0.0,part_2,go,300.0,150.0,1.0,,,,,,,,,blue,triangle
0.0,5.0,1.0,1.0,5.0,5.0,491.2862299997869,8.0,0.0,part_2,stop,300.0,150.0,3.0,,,,,,,,,white,circle
0.0,7.0,3.0,1.0,7.0,3.0,2863.466906999747,1.0,2.0,part_3,go,0.0,0.0,0.0,156.0,4.0,39.0,195.0,156.0,234.0,78.0,117.0,magenta,flipped triangle
0.0,8.0,4.0,1.0,7.0,2.0,2557.366619000277,1.0,1.0,part_3,go,0.0,0.0,0.0,102.0,3.0,204.0,102.0,136.0,68.0,170.0,34.0,blue,triangle
0.0,1.0,1.0,0.0,7.0,6.0,2378.317433999655,1.0,1.0,part_3,go,0.0,0.0,0.0,49.0,1.0,147.0,196.0,294.0,245.0,98.0,49.0,cyan,hexagon
0.0,8.0,4.0,1.0,7.0,3.0,1993.6558039999,1.0,1.0,part_3,go,0.0,0.0,0.0,270.0,5.0,324.0,216.0,270.0,162.0,54.0,108.0,blue,triangle
0.0,1.0,1.0,0.0,7.0,3.0,2046.042216999922,1.0,1.0,part_3,go,0.0,0.0,0.0,270.0,5.0,54.0,162.0,270.0,324.0,216.0,108.0,cyan,hexagon
0.0,2.0,2.0,0.0,7.0,4.0,3885.3267599997703,1.0,1.0,part_3,go,0.0,0.0,0.0,136.0,4.0,68.0,34.0,170.0,136.0,102.0,204.0,gray,cross
0.0,5.0,1.0,1.0,7.0,4.0,2871.5141209995636,1.0,2.0,part_3,go,0.0,0.0,0.0,176.0,4.0,264.0,220.0,88.0,176.0,44.0,132.0,white,circle
0.0,8.0,4.0,1.0,7.0,4.0,2599.68644699984,1.0,1.0,part_3,go,0.0,0.0,0.0,324.0,6.0,54.0,162.0,270.0,324.0,216.0,108.0,blue,triangle
0.0,7.0,3.0,1.0,7.0,4.0,3675.633642999855,1.0,1.0,part_3,go,0.0,0.0,0.0,270.0,5.0,54.0,324.0,216.0,270.0,162.0,108.0,magenta,flipped triangle
0.0,2.0,2.0,0.0,7.0,2.0,3499.5308679999653,1.0,1.0,part_3,go,0.0,0.0,0.0,136.0,4.0,170.0,136.0,34.0,68.0,102.0,204.0,gray,cross
0.0,5.0,1.0,1.0,7.0,5.0,2696.260435000113,1.0,1.0,part_3,go,0.0,0.0,0.0,245.0,5.0,196.0,147.0,98.0,294.0,245.0,49.0,white,circle
0.0,5.0,1.0,1.0,7.0,4.0,2536.6750319999483,1.0,1.0,part_3,go,0.0,0.0,0.0,102.0,3.0,136.0,68.0,34.0,102.0,204.0,170.0,white,circle
0.0,3.0,3.0,0.0,7.0,4.0,2296.177641000213,1.0,1.0,part_3,go,0.0,0.0,0.0,195.0,5.0,156.0,39.0,117.0,195.0,234.0,78.0,orange,square
0.0,1.0,1.0,0.0,7.0,2.0,2802.111566000349,1.0,1.0,part_3,go,0.0,0.0,0.0,204.0,6.0,102.0,204.0,34.0,68.0,170.0,136.0,cyan,hexagon
0.0,6.0,2.0,1.0,7.0,6.0,2293.47723400042,1.0,1.0,part_3,go,0.0,0.0,0.0,136.0,4.0,204.0,34.0,68.0,170.0,102.0,136.0,green,diamond
0.0,8.0,4.0,1.0,7.0,4.0,2157.560986000135,1.0,1.0,part_3,go,0.0,0.0,0.0,234.0,6.0,156.0,39.0,78.0,234.0,117.0,195.0,blue,triangle
0.0,2.0,2.0,0.0,7.0,2.0,2020.7117869995272,1.0,1.0,part_3,go,0.0,0.0,0.0,245.0,5.0,147.0,245.0,49.0,294.0,196.0,98.0,gray,cross
0.0,5.0,1.0,1.0,7.0,4.0,2022.4153149993072,1.0,1.0,part_3,go,0.0,0.0,0.0,68.0,2.0,102.0,136.0,170.0,68.0,204.0,34.0,white,circle
0.0,4.0,4.0,0.0,7.0,3.0,1701.5302410000004,1.0,1.0,part_3,go,0.0,0.0,0.0,108.0,2.0,216.0,162.0,108.0,270.0,54.0,324.0,yellow,I
0.0,7.0,3.0,1.0,7.0,6.0,2304.43572600052,1.0,1.0,part_3,go,0.0,0.0,0.0,117.0,3.0,156.0,195.0,234.0,39.0,78.0,117.0,magenta,flipped triangle
0.0,6.0,2.0,1.0,7.0,4.0,1483.1660230001944,2.0,1.0,part_3,go,0.0,0.0,0.0,245.0,5.0,147.0,196.0,49.0,245.0,98.0,294.0,green,diamond
0.0,6.0,2.0,1.0,7.0,3.0,2268.4676420003602,2.0,1.0,part_3,go,0.0,0.0,0.0,264.0,6.0,44.0,176.0,264.0,220.0,88.0,132.0,green,diamond
0.0,6.0,2.0,1.0,7.0,4.0,1255.8305270003984,2.0,1.0,part_3,go,0.0,0.0,0.0,195.0,5.0,234.0,39.0,117.0,195.0,78.0,156.0,green,diamond
0.0,3.0,3.0,0.0,7.0,6.0,248.6978580000141,2.0,1.0,part_3,go,0.0,0.0,0.0,98.0,2.0,196.0,147.0,49.0,294.0,245.0,98.0,orange,square
0.0,5.0,1.0,1.0,7.0,3.0,530.1381529998253,2.0,1.0,part_3,go,0.0,0.0,0.0,39.0,1.0,156.0,78.0,39.0,234.0,117.0,195.0,white,circle
0.0,4.0,4.0,0.0,7.0,3.0,845.2799849992516,2.0,1.0,part_3,go,0.0,0.0,0.0,147.0,3.0,98.0,196.0,147.0,245.0,49.0,294.0,yellow,I
0.0,8.0,4.0,1.0,7.0,4.0,1859.292899999673,2.0,1.0,part_3,go,0.0,0.0,0.0,294.0,6.0,49.0,98.0,196.0,294.0,245.0,147.0,blue,triangle
0.0,8.0,4.0,1.0,7.0,4.0,868.078991999937,2.0,1.0,part_3,go,0.0,0.0,0.0,49.0,1.0,147.0,196.0,294.0,49.0,98.0,245.0,blue,triangle
0.0,3.0,3.0,0.0,7.0,6.0,1177.6124420002816,2.0,1.0,part_3,go,0.0,0.0,0.0,220.0,5.0,44.0,264.0,88.0,176.0,132.0,220.0,orange,square
0.0,3.0,3.0,0.0,7.0,4.0,1481.4196439992884,2.0,1.0,part_3,go,0.0,0.0,0.0,216.0,4.0,270.0,324.0,108.0,216.0,162.0,54.0,orange,square
0.0,1.0,1.0,0.0,7.0,4.0,788.8706739995541,2.0,1.0,part_3,go,0.0,0.0,0.0,196.0,4.0,98.0,294.0,49.0,196.0,245.0,147.0,cyan,hexagon
0.0,4.0,4.0,0.0,7.0,3.0,1563.6557850002646,2.0,1.0,part_3,go,0.0,0.0,0.0,54.0,1.0,216.0,324.0,54.0,162.0,108.0,270.0,yellow,I
0.0,5.0,1.0,1.0,7.0,2.0,2758.690194000337,2.0,1.0,part_3,go,0.0,0.0,0.0,162.0,3.0,270.0,162.0,216.0,324.0,108.0,54.0,white,circle
0.0,5.0,1.0,1.0,7.0,2.0,2074.052359000234,2.0,1.0,part_3,go,0.0,0.0,0.0,88.0,2.0,220.0,88.0,264.0,176.0,132.0,44.0,white,circle
0.0,1.0,1.0,0.0,7.0,3.0,1540.783468999507,2.0,1.0,part_3,go,0.0,0.0,0.0,220.0,5.0,264.0,88.0,220.0,132.0,176.0,44.0,cyan,hexagon
0.0,2.0,2.0,0.0,7.0,3.0,1741.5044910003417,2.0,1.0,part_3,go,0.0,0.0,0.0,324.0,6.0,108.0,54.0,324.0,216.0,270.0,162.0,gray,cross
0.0,4.0,4.0,0.0,7.0,3.0,1409.5845079991705,2.0,1.0,part_3,go,0.0,0.0,0.0,264.0,6.0,132.0,176.0,264.0,44.0,88.0,220.0,yellow,I
0.0,4.0,4.0,0.0,7.0,3.0,2766.420984999968,2.0,1.0,part_3,go,0.0,0.0,0.0,147.0,3.0,245.0,196.0,147.0,98.0,49.0,294.0,yellow,I
0.0,4.0,4.0,0.0,7.0,3.0,1416.9174670005305,2.0,1.0,part_3,go,0.0,0.0,0.0,117.0,3.0,78.0,39.0,117.0,156.0,195.0,234.0,yellow,I
0.0,6.0,2.0,1.0,7.0,4.0,1620.6745270001193,2.0,1.0,part_3,go,0.0,0.0,0.0,294.0,6.0,147.0,49.0,245.0,294.0,98.0,196.0,green,diamond
0.0,1.0,1.0,0.0,7.0,4.0,1465.047376000257,3.0,1.0,part_3,go,0.0,0.0,0.0,270.0,5.0,324.0,54.0,162.0,270.0,216.0,108.0,cyan,hexagon
0.0,6.0,2.0,1.0,7.0,3.0,1612.9869220003457,3.0,1.0,part_3,go,0.0,0.0,0.0,204.0,6.0,68.0,34.0,204.0,170.0,102.0,136.0,green,diamond
0.0,2.0,2.0,0.0,7.0,2.0,2038.5981030003677,3.0,1.0,part_3,go,0.0,0.0,0.0,117.0,3.0,156.0,117.0,39.0,78.0,195.0,234.0,gray,cross
0.0,1.0,1.0,0.0,7.0,3.0,2167.8529159999016,3.0,1.0,part_3,go,0.0,0.0,0.0,132.0,3.0,44.0,88.0,132.0,220.0,264.0,176.0,cyan,hexagon
0.0,8.0,4.0,1.0,7.0,5.0,1342.8374779996377,3.0,1.0,part_3,go,0.0,0.0,0.0,102.0,3.0,170.0,34.0,204.0,136.0,102.0,68.0,blue,triangle
0.0,7.0,3.0,1.0,7.0,3.0,2079.1303939995487,3.0,1.0,part_3,go,0.0,0.0,0.0,102.0,3.0,204.0,170.0,102.0,68.0,136.0,34.0,magenta,flipped triangle
0.0,2.0,2.0,0.0,7.0,3.0,895.3820189999533,3.0,1.0,part_3,go,0.0,0.0,0.0,88.0,2.0,176.0,132.0,88.0,264.0,44.0,220.0,gray,cross
0.0,5.0,1.0,1.0,7.0,5.0,1698.1370980001884,3.0,1.0,part_3,go,0.0,0.0,0.0,147.0,3.0,245.0,196.0,294.0,98.0,147.0,49.0,white,circle
0.0,3.0,3.0,0.0,7.0,4.0,1496.3023950003844,3.0,1.0,part_3,go,0.0,0.0,0.0,204.0,6.0,136.0,102.0,170.0,204.0,34.0,68.0,orange,square
0.0,2.0,2.0,0.0,7.0,4.0,1459.6611330007363,3.0,1.0,part_3,go,0.0,0.0,0.0,324.0,6.0,270.0,162.0,54.0,324.0,108.0,216.0,gray,cross
0.0,3.0,3.0,0.0,7.0,6.0,2199.489421999715,3.0,1.0,part_3,go,0.0,0.0,0.0,196.0,4.0,245.0,147.0,49.0,98.0,294.0,196.0,orange,square
0.0,3.0,3.0,0.0,7.0,3.0,1759.969761999855,3.0,1.0,part_3,go,0.0,0.0,0.0,270.0,5.0,108.0,324.0,270.0,162.0,54.0,216.0,orange,square
0.0,4.0,4.0,0.0,7.0,3.0,836.0427159996107,3.0,1.0,part_3,go,0.0,0.0,0.0,170.0,5.0,204.0,136.0,170.0,34.0,68.0,102.0,yellow,I
0.0,3.0,3.0,0.0,7.0,6.0,2017.101084999922,3.0,1.0,part_3,go,0.0,0.0,0.0,136.0,4.0,170.0,102.0,68.0,34.0,204.0,136.0,orange,square
0.0,3.0,3.0,0.0,7.0,4.0,1614.9932419994002,3.0,1.0,part_3,go,0.0,0.0,0.0,156.0,4.0,234.0,39.0,78.0,156.0,195.0,117.0,orange,square
0.0,6.0,2.0,1.0,7.0,4.0,885.9389939998437,3.0,1.0,part_3,go,0.0,0.0,0.0,216.0,4.0,162.0,108.0,54.0,216.0,270.0,324.0,green,diamond
0.0,2.0,2.0,0.0,7.0,4.0,1104.4396460001735,3.0,1.0,part_3,go,0.0,0.0,0.0,195.0,5.0,156.0,78.0,39.0,195.0,117.0,234.0,gray,cross
0.0,1.0,1.0,0.0,7.0,5.0,1816.8385320004743,3.0,1.0,part_3,go,0.0,0.0,0.0,204.0,6.0,170.0,34.0,68.0,136.0,204.0,102.0,cyan,hexagon
0.0,2.0,2.0,0.0,7.0,3.0,1603.1063190002897,3.0,1.0,part_3,go,0.0,0.0,0.0,220.0,5.0,132.0,44.0,220.0,176.0,88.0,264.0,gray,cross
0.0,1.0,1.0,0.0,7.0,3.0,834.4477929995264,3.0,1.0,part_3,go,0.0,0.0,0.0,195.0,5.0,39.0,156.0,195.0,117.0,234.0,78.0,cyan,hexagon
0.0,3.0,3.0,0.0,7.0,3.0,1682.5380829995993,4.0,1.0,part_3,go,0.0,0.0,0.0,264.0,6.0,132.0,176.0,264.0,220.0,44.0,88.0,orange,square
0.0,2.0,2.0,0.0,7.0,2.0,2665.0155919996905,4.0,1.0,part_3,go,0.0,0.0,0.0,196.0,4.0,245.0,196.0,49.0,98.0,147.0,294.0,gray,cross
0.0,6.0,2.0,1.0,7.0,4.0,1420.9782600000835,4.0,1.0,part_3,go,0.0,0.0,0.0,132.0,3.0,264.0,220.0,176.0,132.0,88.0,44.0,green,diamond
0.0,6.0,2.0,1.0,7.0,4.0,1087.5114680002298,4.0,1.0,part_3,go,0.0,0.0,0.0,234.0,6.0,39.0,117.0,78.0,234.0,195.0,156.0,green,diamond
0.0,7.0,3.0,1.0,7.0,4.0,829.7110679995967,4.0,1.0,part_3,go,0.0,0.0,0.0,196.0,4.0,245.0,147.0,294.0,196.0,98.0,49.0,magenta,flipped triangle
0.0,4.0,4.0,0.0,7.0,4.0,1039.0078289992744,4.0,1.0,part_3,go,0.0,0.0,0.0,234.0,6.0,156.0,78.0,117.0,234.0,39.0,195.0,yellow,I
0.0,5.0,1.0,1.0,7.0,6.0,1663.4048580008312,4.0,1.0,part_3,go,0.0,0.0,0.0,195.0,5.0,234.0,117.0,156.0,78.0,39.0,195.0,white,circle
0.0,8.0,4.0,1.0,7.0,5.0,2430.531176999466,4.0,1.0,part_3,go,0.0,0.0,0.0,195.0,5.0,156.0,117.0,234.0,39.0,195.0,78.0,blue,triangle
0.0,4.0,4.0,0.0,7.0,6.0,2504.3599680002444,4.0,1.0,part_3,go,0.0,0.0,0.0,220.0,5.0,264.0,88.0,132.0,176.0,44.0,220.0,yellow,I
0.0,1.0,1.0,0.0,7.0,3.0,2169.969646000027,4.0,1.0,part_3,go,0.0,0.0,0.0,195.0,5.0,78.0,234.0,195.0,117.0,39.0,156.0,cyan,hexagon
0.0,6.0,2.0,1.0,7.0,3.0,1706.5382560003854,4.0,1.0,part_3,go,0.0,0.0,0.0,216.0,4.0,162.0,270.0,216.0,54.0,108.0,324.0,green,diamond
0.0,4.0,4.0,0.0,7.0,3.0,3292.018673999337,4.0,1.0,part_3,go,0.0,0.0,0.0,102.0,3.0,136.0,204.0,102.0,68.0,34.0,170.0,yellow,I
0.0,8.0,4.0,1.0,7.0,6.0,3670.6556870003624,4.0,1.0,part_3,go,0.0,0.0,0.0,176.0,4.0,220.0,132.0,44.0,264.0,88.0,176.0,blue,triangle
0.0,7.0,3.0,1.0,7.0,3.0,2081.9658030004575,4.0,1.0,part_3,go,0.0,0.0,0.0,196.0,4.0,98.0,294.0,196.0,49.0,147.0,245.0,magenta,flipped triangle
0.0,7.0,3.0,1.0,7.0,4.0,3047.3853989997224,4.0,1.0,part_3,go,0.0,0.0,0.0,220.0,5.0,176.0,264.0,88.0,220.0,44.0,132.0,magenta,flipped triangle
0.0,5.0,1.0,1.0,7.0,3.0,2662.5481840001157,4.0,1.0,part_3,go,0.0,0.0,0.0,216.0,4.0,324.0,270.0,216.0,162.0,54.0,108.0,white,circle
0.0,8.0,4.0,1.0,7.0,2.0,2997.65898700025,4.0,1.0,part_3,go,0.0,0.0,0.0,220.0,5.0,88.0,220.0,264.0,44.0,176.0,132.0,blue,triangle
0.0,7.0,3.0,1.0,7.0,4.0,3596.1994939998476,4.0,1.0,part_3,go,0.0,0.0,0.0,204.0,6.0,34.0,68.0,136.0,204.0,170.0,102.0,magenta,flipped triangle
0.0,7.0,3.0,1.0,7.0,4.0,2142.3432069996124,4.0,1.0,part_3,go,0.0,0.0,0.0,216.0,4.0,270.0,324.0,108.0,216.0,162.0,54.0,magenta,flipped triangle
0.0,7.0,3.0,1.0,7.0,6.0,1954.1443819998676,4.0,1.0,part_3,go,0.0,0.0,0.0,176.0,4.0,88.0,220.0,44.0,264.0,132.0,176.0,magenta,flipped triangle
