raw_reward_magnitude,stim_reward,stepwise_reward_magnitude,paired_with_stopping,quadrant,response,reaction_time,block,num_trial_presentations,which_part,stop_signal_trial_type,left_SSD,right_SSD,accuracy,chosen_bidding_amount,chosen_bidding_level,possible_bid_1,possible_bid_2,possible_bid_3,possible_bid_4,possible_bid_5,possible_bid_6,color_text,shape_text
401.0,8.0,4.0,1.0,1.0,1.0,345.5140040000515,1.0,1.0,part_1,,,,,,,,,,,,,white,square
65.0,5.0,1.0,1.0,1.0,1.0,566.3133049999942,1.0,1.0,part_1,,,,,,,,,,,,,yellow,I
183.0,3.0,3.0,0.0,3.0,3.0,520.4727579998689,1.0,1.0,part_1,,,,,,,,,,,,,gray,cross
91.0,6.0,2.0,1.0,2.0,2.0,438.7127449999752,1.0,1.0,part_1,,,,,,,,,,,,,cyan,circle
196.0,7.0,3.0,1.0,3.0,3.0,707.8958279998915,1.0,1.0,part_1,,,,,,,,,,,,,orange,triangle
75.0,2.0,2.0,0.0,3.0,3.0,669.2741199999546,1.0,1.0,part_1,,,,,,,,,,,,,green,flipped triangle
82.0,2.0,2.0,0.0,1.0,1.0,454.4646740000644,1.0,1.0,part_1,,,,,,,,,,,,,green,flipped triangle
121.0,2.0,2.0,0.0,4.0,4.0,422.1337069998299,1.0,1.0,part_1,,,,,,,,,,,,,green,flipped triangle
79.0,6.0,2.0,1.0,1.0,1.0,477.1537120000175,1.0,1.0,part_1,,,,,,,,,,,,,cyan,circle
33.0,1.0,1.0,0.0,2.0,2.0,526.3522129998819,1.0,1.0,part_1,,,,,,,,,,,,,blue,diamond
0.0,3.0,0.0,0.0,2.0,2.0,532.2120050000194,1.0,1.0,part_1,,,,,,,,,,,,,gray,cross
30.0,1.0,1.0,0.0,3.0,3.0,452.2852469999634,1.0,1.0,part_1,,,,,,,,,,,,,blue,diamond
405.0,8.0,4.0,1.0,3.0,3.0,615.5065729999478,1.0,1.0,part_1,,,,,,,,,,,,,white,square
110.0,2.0,2.0,0.0,3.0,3.0,751.9926899999518,1.0,1.0,part_1,,,,,,,,,,,,,green,flipped triangle
0.0,2.0,0.0,0.0,1.0,1.0,392.2675769999841,1.0,1.0,part_1,,,,,,,,,,,,,green,flipped triangle
394.0,8.0,4.0,1.0,4.0,4.0,389.4440890001078,1.0,1.0,part_1,,,,,,,,,,,,,white,square
51.0,1.0,1.0,0.0,1.0,1.0,586.944818999882,1.0,1.0,part_1,,,,,,,,,,,,,blue,diamond
195.0,3.0,3.0,0.0,1.0,1.0,426.9202310001674,1.0,1.0,part_1,,,,,,,,,,,,,gray,cross
0.0,1.0,0.0,0.0,4.0,4.0,484.2158919998383,1.0,1.0,part_1,,,,,,,,,,,,,blue,diamond
98.0,2.0,2.0,0.0,4.0,4.0,423.9428759999555,1.0,1.0,part_1,,,,,,,,,,,,,green,flipped triangle
114.0,2.0,2.0,0.0,3.0,3.0,637.1920320000299,1.0,1.0,part_1,,,,,,,,,,,,,green,flipped triangle
33.0,5.0,1.0,1.0,3.0,3.0,588.8504929998817,1.0,1.0,part_1,,,,,,,,,,,,,yellow,I
118.0,6.0,2.0,1.0,1.0,1.0,449.617691999947,1.0,1.0,part_1,,,,,,,,,,,,,cyan,circle
0.0,2.0,0.0,0.0,2.0,2.0,679.969033999896,1.0,2.0,part_1,,,,,,,,,,,,,green,flipped triangle
42.0,1.0,1.0,0.0,2.0,2.0,581.0333029999128,1.0,1.0,part_1,,,,,,,,,,,,,blue,diamond
85.0,6.0,2.0,1.0,3.0,3.0,646.2356770000497,1.0,1.0,part_1,,,,,,,,,,,,,cyan,circle
98.0,6.0,2.0,1.0,3.0,3.0,454.5293139999558,1.0,1.0,part_1,,,,,,,,,,,,,cyan,circle
99.0,2.0,2.0,0.0,2.0,2.0,431.7453700000442,1.0,1.0,part_1,,,,,,,,,,,,,green,flipped triangle
212.0,3.0,3.0,0.0,2.0,2.0,532.5849270000163,1.0,1.0,part_1,,,,,,,,,,,,,gray,cross
0.0,2.0,0.0,0.0,1.0,1.0,499.9440260000938,1.0,1.0,part_1,,,,,,,,,,,,,green,flipped triangle
0.0,4.0,0.0,0.0,2.0,2.0,462.2936939999817,1.0,1.0,part_1,,,,,,,,,,,,,magenta,hexagon
79.0,2.0,2.0,0.0,3.0,3.0,501.5729529998225,1.0,1.0,part_1,,,,,,,,,,,,,green,flipped triangle
0.0,1.0,0.0,0.0,3.0,3.0,716.8456229999265,1.0,1.0,part_1,,,,,,,,,,,,,blue,diamond
61.0,5.0,1.0,1.0,1.0,1.0,452.6829260000795,1.0,1.0,part_1,,,,,,,,,,,,,yellow,I
0.0,6.0,0.0,1.0,4.0,4.0,374.6613660000548,1.0,1.0,part_1,,,,,,,,,,,,,cyan,circle
205.0,7.0,3.0,1.0,3.0,3.0,476.2897059999886,1.0,1.0,part_1,,,,,,,,,,,,,orange,triangle
206.0,3.0,3.0,0.0,1.0,1.0,409.5424939998793,1.0,1.0,part_1,,,,,,,,,,,,,gray,cross
383.0,8.0,4.0,1.0,4.0,4.0,336.7774640000789,1.0,1.0,part_1,,,,,,,,,,,,,white,square
176.0,3.0,3.0,0.0,1.0,1.0,571.9619740000326,1.0,1.0,part_1,,,,,,,,,,,,,gray,cross
404.0,4.0,4.0,0.0,1.0,1.0,484.0917180001725,1.0,1.0,part_1,,,,,,,,,,,,,magenta,hexagon
412.0,8.0,4.0,1.0,1.0,1.0,530.0258550000763,1.0,1.0,part_1,,,,,,,,,,,,,white,square
99.0,6.0,2.0,1.0,3.0,3.0,631.0909080000329,1.0,1.0,part_1,,,,,,,,,,,,,cyan,circle
418.0,8.0,4.0,1.0,4.0,4.0,480.8123680002154,1.0,1.0,part_1,,,,,,,,,,,,,white,square
79.0,2.0,2.0,0.0,1.0,1.0,363.489816000083,1.0,1.0,part_1,,,,,,,,,,,,,green,flipped triangle
213.0,3.0,3.0,0.0,1.0,1.0,521.4487829998689,1.0,1.0,part_1,,,,,,,,,,,,,gray,cross
414.0,4.0,4.0,0.0,3.0,3.0,530.6101280000348,1.0,1.0,part_1,,,,,,,,,,,,,magenta,hexagon
180.0,7.0,3.0,1.0,4.0,4.0,436.1261620001642,1.0,1.0,part_1,,,,,,,,,,,,,orange,triangle
0.0,6.0,0.0,1.0,2.0,2.0,401.4898359998824,1.0,1.0,part_1,,,,,,,,,,,,,cyan,circle
420.0,8.0,4.0,1.0,1.0,1.0,407.7298779998273,1.0,1.0,part_1,,,,,,,,,,,,,white,square
420.0,4.0,4.0,0.0,4.0,4.0,374.7683490000781,1.0,1.0,part_1,,,,,,,,,,,,,magenta,hexagon
206.0,7.0,3.0,1.0,1.0,1.0,455.6508640000629,1.0,1.0,part_1,,,,,,,,,,,,,orange,triangle
200.0,7.0,3.0,1.0,4.0,4.0,455.1633160001529,1.0,1.0,part_1,,,,,,,,,,,,,orange,triangle
186.0,7.0,3.0,1.0,3.0,3.0,589.5957029999863,1.0,1.0,part_1,,,,,,,,,,,,,orange,triangle
378.0,8.0,4.0,1.0,4.0,4.0,444.7744660001262,1.0,1.0,part_1,,,,,,,,,,,,,white,square
399.0,4.0,4.0,0.0,2.0,2.0,378.7161099999139,1.0,1.0,part_1,,,,,,,,,,,,,magenta,hexagon
90.0,2.0,2.0,0.0,1.0,1.0,360.530103000201,1.0,1.0,part_1,,,,,,,,,,,,,green,flipped triangle
61.0,1.0,1.0,0.0,2.0,2.0,495.9253509998689,1.0,1.0,part_1,,,,,,,,,,,,,blue,diamond
0.0,2.0,0.0,0.0,1.0,1.0,410.0100480000037,1.0,1.0,part_1,,,,,,,,,,,,,green,flipped triangle
176.0,3.0,3.0,0.0,3.0,3.0,439.2844999999852,1.0,1.0,part_1,,,,,,,,,,,,,gray,cross
56.0,5.0,1.0,1.0,3.0,3.0,725.6807870001012,1.0,1.0,part_1,,,,,,,,,,,,,yellow,I
0.0,5.0,0.0,1.0,4.0,4.0,457.3574459998326,1.0,1.0,part_1,,,,,,,,,,,,,yellow,I
376.0,8.0,4.0,1.0,1.0,1.0,389.4715769999948,1.0,1.0,part_1,,,,,,,,,,,,,white,square
117.0,6.0,2.0,1.0,3.0,3.0,565.4634350000833,1.0,1.0,part_1,,,,,,,,,,,,,cyan,circle
99.0,2.0,2.0,0.0,2.0,2.0,407.5852199998735,1.0,1.0,part_1,,,,,,,,,,,,,green,flipped triangle
36.0,5.0,1.0,1.0,1.0,1.0,342.0732950000911,1.0,1.0,part_1,,,,,,,,,,,,,yellow,I
213.0,7.0,3.0,1.0,1.0,1.0,428.4656720001294,1.0,1.0,part_1,,,,,,,,,,,,,orange,triangle
415.0,4.0,4.0,0.0,4.0,4.0,319.5970849999412,1.0,1.0,part_1,,,,,,,,,,,,,magenta,hexagon
0.0,6.0,0.0,1.0,1.0,1.0,416.8261979998533,1.0,2.0,part_1,,,,,,,,,,,,,cyan,circle
210.0,3.0,3.0,0.0,4.0,4.0,503.8734779998322,1.0,1.0,part_1,,,,,,,,,,,,,gray,cross
0.0,6.0,0.0,1.0,4.0,4.0,462.4686049999127,1.0,1.0,part_1,,,,,,,,,,,,,cyan,circle
403.0,8.0,4.0,1.0,2.0,2.0,450.7574570000088,1.0,1.0,part_1,,,,,,,,,,,,,white,square
0.0,5.0,0.0,1.0,2.0,2.0,520.4353540000284,1.0,1.0,part_1,,,,,,,,,,,,,yellow,I
219.0,7.0,3.0,1.0,3.0,3.0,423.6113869999371,1.0,1.0,part_1,,,,,,,,,,,,,orange,triangle
113.0,2.0,2.0,0.0,2.0,2.0,571.7100259998915,1.0,1.0,part_1,,,,,,,,,,,,,green,flipped triangle
0.0,1.0,0.0,0.0,3.0,3.0,453.1814649999433,1.0,1.0,part_1,,,,,,,,,,,,,blue,diamond
76.0,2.0,2.0,0.0,2.0,2.0,434.2410579999978,1.0,1.0,part_1,,,,,,,,,,,,,green,flipped triangle
176.0,7.0,3.0,1.0,4.0,4.0,457.9308239999591,1.0,1.0,part_1,,,,,,,,,,,,,orange,triangle
0.0,5.0,0.0,1.0,3.0,3.0,639.4357229999059,1.0,1.0,part_1,,,,,,,,,,,,,yellow,I
56.0,1.0,1.0,0.0,1.0,1.0,431.9763949999924,1.0,1.0,part_1,,,,,,,,,,,,,blue,diamond
72.0,5.0,1.0,1.0,4.0,4.0,466.5003210000122,1.0,1.0,part_1,,,,,,,,,,,,,yellow,I
0.0,3.0,0.0,0.0,2.0,2.0,330.8957280000868,1.0,1.0,part_1,,,,,,,,,,,,,gray,cross
412.0,4.0,4.0,0.0,1.0,1.0,386.1589919999915,1.0,1.0,part_1,,,,,,,,,,,,,magenta,hexagon
42.0,5.0,1.0,1.0,2.0,2.0,523.4836320000795,1.0,1.0,part_1,,,,,,,,,,,,,yellow,I
410.0,4.0,4.0,0.0,4.0,4.0,483.7956629999098,1.0,1.0,part_1,,,,,,,,,,,,,magenta,hexagon
183.0,7.0,3.0,1.0,2.0,2.0,313.2428730000356,1.0,1.0,part_1,,,,,,,,,,,,,orange,triangle
391.0,4.0,4.0,0.0,3.0,3.0,457.1098789999723,1.0,1.0,part_1,,,,,,,,,,,,,magenta,hexagon
214.0,3.0,3.0,0.0,4.0,4.0,459.6703639999759,1.0,1.0,part_1,,,,,,,,,,,,,gray,cross
206.0,3.0,3.0,0.0,4.0,4.0,403.3191329999681,1.0,1.0,part_1,,,,,,,,,,,,,gray,cross
43.0,1.0,1.0,0.0,1.0,1.0,397.9830470000252,1.0,1.0,part_1,,,,,,,,,,,,,blue,diamond
0.0,4.0,0.0,0.0,1.0,1.0,382.2226779998345,1.0,1.0,part_1,,,,,,,,,,,,,magenta,hexagon
0.0,4.0,0.0,0.0,1.0,1.0,450.7262470001478,1.0,1.0,part_1,,,,,,,,,,,,,magenta,hexagon
207.0,3.0,3.0,0.0,4.0,4.0,458.7628179999683,1.0,1.0,part_1,,,,,,,,,,,,,gray,cross
223.0,7.0,3.0,1.0,2.0,2.0,426.9024909999643,1.0,1.0,part_1,,,,,,,,,,,,,orange,triangle
56.0,1.0,1.0,0.0,3.0,3.0,487.5926820000131,1.0,1.0,part_1,,,,,,,,,,,,,blue,diamond
405.0,4.0,4.0,0.0,3.0,3.0,634.2177230001198,1.0,1.0,part_1,,,,,,,,,,,,,magenta,hexagon
56.0,5.0,1.0,1.0,2.0,2.0,515.0060720000056,1.0,1.0,part_1,,,,,,,,,,,,,yellow,I
84.0,6.0,2.0,1.0,1.0,1.0,322.3025969998616,1.0,1.0,part_1,,,,,,,,,,,,,cyan,circle
104.0,6.0,2.0,1.0,2.0,2.0,427.0883880001292,1.0,1.0,part_1,,,,,,,,,,,,,cyan,circle
0.0,7.0,0.0,1.0,3.0,3.0,353.0044780000025,1.0,1.0,part_1,,,,,,,,,,,,,orange,triangle
406.0,4.0,4.0,0.0,3.0,3.0,801.1056599998483,1.0,1.0,part_1,,,,,,,,,,,,,magenta,hexagon
221.0,7.0,3.0,1.0,4.0,4.0,484.2880400001377,2.0,1.0,part_1,,,,,,,,,,,,,orange,triangle
380.0,8.0,4.0,1.0,2.0,2.0,424.70038500005097,2.0,1.0,part_1,,,,,,,,,,,,,white,square
387.0,4.0,4.0,0.0,4.0,4.0,475.8432809999249,2.0,1.0,part_1,,,,,,,,,,,,,magenta,hexagon
0.0,5.0,0.0,1.0,4.0,4.0,464.2052960002729,2.0,1.0,part_1,,,,,,,,,,,,,yellow,I
35.0,5.0,1.0,1.0,1.0,1.0,506.649852999999,2.0,1.0,part_1,,,,,,,,,,,,,yellow,I
394.0,4.0,4.0,0.0,1.0,1.0,414.9129570000696,2.0,1.0,part_1,,,,,,,,,,,,,magenta,hexagon
35.0,1.0,1.0,0.0,4.0,4.0,432.9259669998464,2.0,1.0,part_1,,,,,,,,,,,,,blue,diamond
82.0,2.0,2.0,0.0,1.0,1.0,449.1549009999289,2.0,1.0,part_1,,,,,,,,,,,,,green,flipped triangle
0.0,5.0,0.0,1.0,2.0,2.0,344.474739999896,2.0,1.0,part_1,,,,,,,,,,,,,yellow,I
410.0,8.0,4.0,1.0,1.0,1.0,340.7954880003672,2.0,1.0,part_1,,,,,,,,,,,,,white,square
38.0,1.0,1.0,0.0,4.0,4.0,378.0487410003843,2.0,1.0,part_1,,,,,,,,,,,,,blue,diamond
82.0,2.0,2.0,0.0,3.0,3.0,457.2738849997222,2.0,1.0,part_1,,,,,,,,,,,,,green,flipped triangle
383.0,4.0,4.0,0.0,3.0,3.0,396.9822120002391,2.0,1.0,part_1,,,,,,,,,,,,,magenta,hexagon
108.0,2.0,2.0,0.0,4.0,4.0,361.4030290000301,2.0,1.0,part_1,,,,,,,,,,,,,green,flipped triangle
51.0,5.0,1.0,1.0,4.0,4.0,421.6019339996819,2.0,1.0,part_1,,,,,,,,,,,,,yellow,I
0.0,4.0,0.0,0.0,2.0,2.0,359.84297899995,2.0,1.0,part_1,,,,,,,,,,,,,magenta,hexagon
182.0,7.0,3.0,1.0,4.0,4.0,311.7725779998181,2.0,1.0,part_1,,,,,,,,,,,,,orange,triangle
391.0,8.0,4.0,1.0,3.0,3.0,440.9484369998608,2.0,1.0,part_1,,,,,,,,,,,,,white,square
0.0,1.0,0.0,0.0,2.0,2.0,395.4893220002304,2.0,1.0,part_1,,,,,,,,,,,,,blue,diamond
70.0,5.0,1.0,1.0,1.0,1.0,333.9570849998381,2.0,1.0,part_1,,,,,,,,,,,,,yellow,I
387.0,4.0,4.0,0.0,4.0,4.0,294.4939250000971,2.0,1.0,part_1,,,,,,,,,,,,,magenta,hexagon
44.0,1.0,1.0,0.0,4.0,4.0,411.6986149997501,2.0,1.0,part_1,,,,,,,,,,,,,blue,diamond
66.0,5.0,1.0,1.0,1.0,1.0,318.7007559999983,2.0,1.0,part_1,,,,,,,,,,,,,yellow,I
95.0,2.0,2.0,0.0,4.0,4.0,341.2512419999984,2.0,1.0,part_1,,,,,,,,,,,,,green,flipped triangle
0.0,6.0,0.0,1.0,1.0,1.0,437.8292500000498,2.0,1.0,part_1,,,,,,,,,,,,,cyan,circle
75.0,6.0,2.0,1.0,2.0,2.0,378.6468390003392,2.0,1.0,part_1,,,,,,,,,,,,,cyan,circle
219.0,7.0,3.0,1.0,3.0,3.0,331.6248749997612,2.0,1.0,part_1,,,,,,,,,,,,,orange,triangle
0.0,4.0,0.0,0.0,1.0,1.0,281.4635700001417,2.0,1.0,part_1,,,,,,,,,,,,,magenta,hexagon
416.0,8.0,4.0,1.0,4.0,4.0,334.5401740002671,2.0,1.0,part_1,,,,,,,,,,,,,white,square
201.0,7.0,3.0,1.0,1.0,1.0,634.1130099999646,2.0,1.0,part_1,,,,,,,,,,,,,orange,triangle
0.0,1.0,0.0,0.0,1.0,1.0,421.7852890001268,2.0,1.0,part_1,,,,,,,,,,,,,blue,diamond
196.0,3.0,3.0,0.0,3.0,3.0,734.3834610001068,2.0,1.0,part_1,,,,,,,,,,,,,gray,cross
26.0,1.0,1.0,0.0,2.0,2.0,550.5037860002631,2.0,1.0,part_1,,,,,,,,,,,,,blue,diamond
43.0,5.0,1.0,1.0,2.0,2.0,448.8781349996316,2.0,1.0,part_1,,,,,,,,,,,,,yellow,I
66.0,5.0,1.0,1.0,2.0,2.0,411.613879000015,2.0,1.0,part_1,,,,,,,,,,,,,yellow,I
28.0,1.0,1.0,0.0,3.0,3.0,383.9435489999232,2.0,1.0,part_1,,,,,,,,,,,,,blue,diamond
180.0,3.0,3.0,0.0,3.0,3.0,432.0976500002871,2.0,1.0,part_1,,,,,,,,,,,,,gray,cross
0.0,6.0,0.0,1.0,1.0,1.0,481.7474659998879,2.0,1.0,part_1,,,,,,,,,,,,,cyan,circle
399.0,8.0,4.0,1.0,4.0,4.0,434.9298080001063,2.0,1.0,part_1,,,,,,,,,,,,,white,square
398.0,4.0,4.0,0.0,1.0,1.0,526.9044480000957,2.0,1.0,part_1,,,,,,,,,,,,,magenta,hexagon
193.0,3.0,3.0,0.0,3.0,3.0,400.6816119999712,2.0,1.0,part_1,,,,,,,,,,,,,gray,cross
214.0,3.0,3.0,0.0,1.0,1.0,503.2737599999564,2.0,1.0,part_1,,,,,,,,,,,,,gray,cross
0.0,1.0,0.0,0.0,1.0,1.0,499.902425000073,2.0,1.0,part_1,,,,,,,,,,,,,blue,diamond
390.0,4.0,4.0,0.0,3.0,3.0,565.7784179998089,2.0,1.0,part_1,,,,,,,,,,,,,magenta,hexagon
190.0,7.0,3.0,1.0,3.0,3.0,584.1768769996634,2.0,1.0,part_1,,,,,,,,,,,,,orange,triangle
82.0,2.0,2.0,0.0,2.0,2.0,444.7759399999995,2.0,1.0,part_1,,,,,,,,,,,,,green,flipped triangle
397.0,8.0,4.0,1.0,3.0,3.0,815.6583810000484,2.0,1.0,part_1,,,,,,,,,,,,,white,square
0.0,3.0,0.0,0.0,1.0,1.0,398.0403620003017,2.0,1.0,part_1,,,,,,,,,,,,,gray,cross
376.0,4.0,4.0,0.0,4.0,4.0,312.2646750002786,2.0,1.0,part_1,,,,,,,,,,,,,magenta,hexagon
63.0,5.0,1.0,1.0,4.0,4.0,406.1886839999715,2.0,1.0,part_1,,,,,,,,,,,,,yellow,I
0.0,4.0,0.0,0.0,2.0,2.0,348.5130710000703,2.0,1.0,part_1,,,,,,,,,,,,,magenta,hexagon
88.0,2.0,2.0,0.0,4.0,4.0,455.2357520001351,2.0,1.0,part_1,,,,,,,,,,,,,green,flipped triangle
416.0,4.0,4.0,0.0,1.0,1.0,364.0488860000914,2.0,1.0,part_1,,,,,,,,,,,,,magenta,hexagon
204.0,3.0,3.0,0.0,1.0,1.0,361.5857130002951,2.0,1.0,part_1,,,,,,,,,,,,,gray,cross
95.0,6.0,2.0,1.0,1.0,1.0,304.8549340001045,2.0,1.0,part_1,,,,,,,,,,,,,cyan,circle
0.0,5.0,0.0,1.0,2.0,2.0,450.6955130000278,2.0,1.0,part_1,,,,,,,,,,,,,yellow,I
118.0,2.0,2.0,0.0,4.0,4.0,346.792615999675,2.0,1.0,part_1,,,,,,,,,,,,,green,flipped triangle
199.0,3.0,3.0,0.0,3.0,3.0,584.5382760003304,2.0,1.0,part_1,,,,,,,,,,,,,gray,cross
97.0,2.0,2.0,0.0,4.0,4.0,491.1705189997519,2.0,1.0,part_1,,,,,,,,,,,,,green,flipped triangle
90.0,6.0,2.0,1.0,3.0,3.0,527.5283930000114,2.0,1.0,part_1,,,,,,,,,,,,,cyan,circle
0.0,3.0,0.0,0.0,1.0,1.0,350.4599849998158,2.0,1.0,part_1,,,,,,,,,,,,,gray,cross
104.0,2.0,2.0,0.0,2.0,2.0,412.9812400001356,2.0,1.0,part_1,,,,,,,,,,,,,green,flipped triangle
114.0,6.0,2.0,1.0,4.0,4.0,319.3143540001983,2.0,1.0,part_1,,,,,,,,,,,,,cyan,circle
75.0,1.0,1.0,0.0,2.0,2.0,401.0072410001157,2.0,1.0,part_1,,,,,,,,,,,,,blue,diamond
214.0,7.0,3.0,1.0,4.0,4.0,360.8853390001059,2.0,1.0,part_1,,,,,,,,,,,,,orange,triangle
113.0,6.0,2.0,1.0,2.0,2.0,447.782393000125,2.0,1.0,part_1,,,,,,,,,,,,,cyan,circle
392.0,8.0,4.0,1.0,4.0,4.0,349.9883969998336,2.0,1.0,part_1,,,,,,,,,,,,,white,square
380.0,8.0,4.0,1.0,2.0,2.0,359.8639589999948,2.0,1.0,part_1,,,,,,,,,,,,,white,square
404.0,8.0,4.0,1.0,2.0,2.0,599.9334199996156,2.0,1.0,part_1,,,,,,,,,,,,,white,square
0.0,1.0,0.0,0.0,1.0,1.0,575.7513060002566,2.0,1.0,part_1,,,,,,,,,,,,,blue,diamond
201.0,3.0,3.0,0.0,2.0,2.0,396.9413489999169,2.0,1.0,part_1,,,,,,,,,,,,,gray,cross
63.0,1.0,1.0,0.0,3.0,3.0,331.6958430000341,2.0,1.0,part_1,,,,,,,,,,,,,blue,diamond
200.0,3.0,3.0,0.0,4.0,4.0,514.0620690003743,2.0,1.0,part_1,,,,,,,,,,,,,gray,cross
193.0,7.0,3.0,1.0,2.0,2.0,414.2117249998591,2.0,1.0,part_1,,,,,,,,,,,,,orange,triangle
425.0,8.0,4.0,1.0,4.0,4.0,461.8945809997967,2.0,1.0,part_1,,,,,,,,,,,,,white,square
91.0,2.0,2.0,0.0,1.0,1.0,303.1415870000273,2.0,1.0,part_1,,,,,,,,,,,,,green,flipped triangle
209.0,7.0,3.0,1.0,2.0,2.0,446.4323229999536,2.0,1.0,part_1,,,,,,,,,,,,,orange,triangle
0.0,7.0,0.0,1.0,3.0,3.0,418.5859710000841,2.0,1.0,part_1,,,,,,,,,,,,,orange,triangle
401.0,4.0,4.0,0.0,2.0,2.0,553.4662969998863,2.0,1.0,part_1,,,,,,,,,,,,,magenta,hexagon
376.0,8.0,4.0,1.0,1.0,1.0,365.76536199982,2.0,1.0,part_1,,,,,,,,,,,,,white,square
82.0,6.0,2.0,1.0,1.0,1.0,524.9194799998804,2.0,1.0,part_1,,,,,,,,,,,,,cyan,circle
376.0,4.0,4.0,0.0,3.0,3.0,676.8253609998283,2.0,1.0,part_1,,,,,,,,,,,,,magenta,hexagon
225.0,7.0,3.0,1.0,3.0,3.0,520.7403109998268,2.0,1.0,part_1,,,,,,,,,,,,,orange,triangle
200.0,7.0,3.0,1.0,2.0,2.0,436.5922329998284,2.0,1.0,part_1,,,,,,,,,,,,,orange,triangle
390.0,8.0,4.0,1.0,3.0,3.0,489.1429180001978,2.0,1.0,part_1,,,,,,,,,,,,,white,square
223.0,3.0,3.0,0.0,1.0,1.0,436.9840120002664,2.0,1.0,part_1,,,,,,,,,,,,,gray,cross
221.0,3.0,3.0,0.0,2.0,2.0,437.8516239999044,2.0,1.0,part_1,,,,,,,,,,,,,gray,cross
178.0,7.0,3.0,1.0,4.0,4.0,288.7834959997235,2.0,1.0,part_1,,,,,,,,,,,,,orange,triangle
383.0,8.0,4.0,1.0,1.0,1.0,362.9267930000424,2.0,1.0,part_1,,,,,,,,,,,,,white,square
0.0,3.0,0.0,0.0,4.0,4.0,435.8740039997428,2.0,1.0,part_1,,,,,,,,,,,,,gray,cross
44.0,5.0,1.0,1.0,4.0,4.0,377.5012699998115,2.0,1.0,part_1,,,,,,,,,,,,,yellow,I
207.0,7.0,3.0,1.0,1.0,1.0,385.4209309997713,2.0,1.0,part_1,,,,,,,,,,,,,orange,triangle
97.0,6.0,2.0,1.0,4.0,4.0,418.0407910002941,2.0,1.0,part_1,,,,,,,,,,,,,cyan,circle
0.0,5.0,0.0,1.0,1.0,1.0,395.7683200001156,2.0,1.0,part_1,,,,,,,,,,,,,yellow,I
48.0,5.0,1.0,1.0,2.0,2.0,490.9657270000025,2.0,1.0,part_1,,,,,,,,,,,,,yellow,I
377.0,8.0,4.0,1.0,4.0,4.0,404.8517239998546,2.0,1.0,part_1,,,,,,,,,,,,,white,square
193.0,3.0,3.0,0.0,2.0,2.0,409.68660699991227,2.0,1.0,part_1,,,,,,,,,,,,,gray,cross
47.0,5.0,1.0,1.0,3.0,3.0,354.0358979998927,2.0,1.0,part_1,,,,,,,,,,,,,yellow,I
0.0,7.0,0.0,1.0,4.0,4.0,474.7172399997907,2.0,1.0,part_1,,,,,,,,,,,,,orange,triangle
93.0,6.0,2.0,1.0,4.0,4.0,502.87325900035285,2.0,1.0,part_1,,,,,,,,,,,,,cyan,circle
109.0,2.0,2.0,0.0,3.0,3.0,370.7627759999923,3.0,1.0,part_1,,,,,,,,,,,,,green,flipped triangle
61.0,5.0,1.0,1.0,4.0,4.0,441.9388840001375,3.0,1.0,part_1,,,,,,,,,,,,,yellow,I
223.0,3.0,3.0,0.0,2.0,2.0,473.2490159999543,3.0,1.0,part_1,,,,,,,,,,,,,gray,cross
398.0,8.0,4.0,1.0,1.0,1.0,471.5814880000835,3.0,1.0,part_1,,,,,,,,,,,,,white,square
91.0,2.0,2.0,0.0,1.0,1.0,471.7705620000743,3.0,1.0,part_1,,,,,,,,,,,,,green,flipped triangle
0.0,5.0,0.0,1.0,3.0,3.0,455.5833589997746,3.0,1.0,part_1,,,,,,,,,,,,,yellow,I
0.0,8.0,0.0,1.0,4.0,4.0,447.0435050002379,3.0,1.0,part_1,,,,,,,,,,,,,white,square
412.0,8.0,4.0,1.0,3.0,3.0,561.8042669998431,3.0,1.0,part_1,,,,,,,,,,,,,white,square
394.0,8.0,4.0,1.0,3.0,3.0,476.4250460002586,3.0,1.0,part_1,,,,,,,,,,,,,white,square
0.0,2.0,0.0,0.0,1.0,1.0,397.3814440000751,3.0,1.0,part_1,,,,,,,,,,,,,green,flipped triangle
387.0,8.0,4.0,1.0,2.0,2.0,431.8719029997737,3.0,1.0,part_1,,,,,,,,,,,,,white,square
0.0,3.0,0.0,0.0,3.0,3.0,302.3414389999743,3.0,1.0,part_1,,,,,,,,,,,,,gray,cross
425.0,4.0,4.0,0.0,1.0,1.0,414.5879440002318,3.0,1.0,part_1,,,,,,,,,,,,,magenta,hexagon
114.0,6.0,2.0,1.0,3.0,3.0,365.8956869999201,3.0,2.0,part_1,,,,,,,,,,,,,cyan,circle
0.0,7.0,0.0,1.0,4.0,4.0,446.4196480003011,3.0,1.0,part_1,,,,,,,,,,,,,orange,triangle
0.0,7.0,0.0,1.0,2.0,2.0,378.4701630002018,3.0,1.0,part_1,,,,,,,,,,,,,orange,triangle
120.0,2.0,2.0,0.0,4.0,4.0,494.4927629999256,3.0,1.0,part_1,,,,,,,,,,,,,green,flipped triangle
380.0,4.0,4.0,0.0,3.0,3.0,542.8091629996743,3.0,1.0,part_1,,,,,,,,,,,,,magenta,hexagon
199.0,7.0,3.0,1.0,1.0,1.0,424.1217750000032,3.0,1.0,part_1,,,,,,,,,,,,,orange,triangle
397.0,4.0,4.0,0.0,3.0,3.0,626.8740509999589,3.0,1.0,part_1,,,,,,,,,,,,,magenta,hexagon
186.0,3.0,3.0,0.0,4.0,4.0,476.3561570002821,3.0,1.0,part_1,,,,,,,,,,,,,gray,cross
38.0,5.0,1.0,1.0,1.0,1.0,329.6850169999743,3.0,1.0,part_1,,,,,,,,,,,,,yellow,I
378.0,4.0,4.0,0.0,4.0,4.0,386.5743350002049,3.0,1.0,part_1,,,,,,,,,,,,,magenta,hexagon
402.0,4.0,4.0,0.0,2.0,2.0,389.6916859998782,3.0,1.0,part_1,,,,,,,,,,,,,magenta,hexagon
412.0,4.0,4.0,0.0,2.0,2.0,485.225053999784,3.0,1.0,part_1,,,,,,,,,,,,,magenta,hexagon
193.0,7.0,3.0,1.0,1.0,1.0,399.986999000248,3.0,1.0,part_1,,,,,,,,,,,,,orange,triangle
65.0,1.0,1.0,0.0,2.0,2.0,469.5735450000029,3.0,1.0,part_1,,,,,,,,,,,,,blue,diamond
387.0,8.0,4.0,1.0,4.0,4.0,496.7823339998176,3.0,1.0,part_1,,,,,,,,,,,,,white,square
0.0,7.0,0.0,1.0,3.0,3.0,490.4642460001014,3.0,1.0,part_1,,,,,,,,,,,,,orange,triangle
89.0,6.0,2.0,1.0,2.0,2.0,400.3753680003683,3.0,1.0,part_1,,,,,,,,,,,,,cyan,circle
59.0,1.0,1.0,0.0,4.0,4.0,371.5929920003873,3.0,1.0,part_1,,,,,,,,,,,,,blue,diamond
82.0,6.0,2.0,1.0,2.0,2.0,411.7423500001678,3.0,1.0,part_1,,,,,,,,,,,,,cyan,circle
89.0,2.0,2.0,0.0,1.0,1.0,588.0932379996011,3.0,1.0,part_1,,,,,,,,,,,,,green,flipped triangle
209.0,3.0,3.0,0.0,3.0,3.0,673.9679279999109,3.0,1.0,part_1,,,,,,,,,,,,,gray,cross
0.0,3.0,0.0,0.0,4.0,4.0,356.3015770000675,3.0,1.0,part_1,,,,,,,,,,,,,gray,cross
209.0,3.0,3.0,0.0,1.0,1.0,395.6396099997619,3.0,1.0,part_1,,,,,,,,,,,,,gray,cross
71.0,1.0,1.0,0.0,2.0,2.0,337.4494449999474,3.0,1.0,part_1,,,,,,,,,,,,,blue,diamond
118.0,2.0,2.0,0.0,2.0,2.0,475.8434640002633,3.0,1.0,part_1,,,,,,,,,,,,,green,flipped triangle
91.0,6.0,2.0,1.0,4.0,4.0,460.5362809998041,3.0,1.0,part_1,,,,,,,,,,,,,cyan,circle
204.0,7.0,3.0,1.0,4.0,4.0,508.18695199996,3.0,1.0,part_1,,,,,,,,,,,,,orange,triangle
125.0,2.0,2.0,0.0,1.0,1.0,480.8086680000087,3.0,1.0,part_1,,,,,,,,,,,,,green,flipped triangle
118.0,2.0,2.0,0.0,1.0,1.0,468.3910759999889,3.0,1.0,part_1,,,,,,,,,,,,,green,flipped triangle
0.0,8.0,0.0,1.0,1.0,1.0,425.2587290002338,3.0,1.0,part_1,,,,,,,,,,,,,white,square
0.0,8.0,0.0,1.0,2.0,2.0,443.7281229998007,3.0,1.0,part_1,,,,,,,,,,,,,white,square
0.0,4.0,0.0,0.0,2.0,2.0,561.3535010002124,3.0,1.0,part_1,,,,,,,,,,,,,magenta,hexagon
209.0,7.0,3.0,1.0,2.0,2.0,608.1486279999808,3.0,1.0,part_1,,,,,,,,,,,,,orange,triangle
118.0,6.0,2.0,1.0,2.0,2.0,547.1831520003434,3.0,1.0,part_1,,,,,,,,,,,,,cyan,circle
27.0,5.0,1.0,1.0,4.0,4.0,430.1687189999938,3.0,1.0,part_1,,,,,,,,,,,,,yellow,I
50.0,1.0,1.0,0.0,3.0,3.0,526.3372399999753,3.0,1.0,part_1,,,,,,,,,,,,,blue,diamond
66.0,1.0,1.0,0.0,4.0,4.0,543.6542370002826,3.0,1.0,part_1,,,,,,,,,,,,,blue,diamond
214.0,7.0,3.0,1.0,4.0,4.0,524.5261119998759,3.0,1.0,part_1,,,,,,,,,,,,,orange,triangle
27.0,1.0,1.0,0.0,3.0,3.0,540.2854540002409,3.0,1.0,part_1,,,,,,,,,,,,,blue,diamond
0.0,6.0,0.0,1.0,1.0,1.0,369.2305050003597,3.0,1.0,part_1,,,,,,,,,,,,,cyan,circle
219.0,3.0,3.0,0.0,4.0,4.0,446.8553950000569,3.0,1.0,part_1,,,,,,,,,,,,,gray,cross
26.0,5.0,1.0,1.0,1.0,1.0,486.0713220000434,3.0,1.0,part_1,,,,,,,,,,,,,yellow,I
0.0,6.0,0.0,1.0,3.0,3.0,649.6152590002566,3.0,1.0,part_1,,,,,,,,,,,,,cyan,circle
51.0,5.0,1.0,1.0,4.0,4.0,439.9963460000435,3.0,1.0,part_1,,,,,,,,,,,,,yellow,I
185.0,3.0,3.0,0.0,4.0,4.0,462.3817219999182,3.0,1.0,part_1,,,,,,,,,,,,,gray,cross
402.0,8.0,4.0,1.0,3.0,3.0,697.2809049998432,3.0,1.0,part_1,,,,,,,,,,,,,white,square
188.0,7.0,3.0,1.0,1.0,1.0,438.0183829998714,3.0,1.0,part_1,,,,,,,,,,,,,orange,triangle
121.0,6.0,2.0,1.0,1.0,1.0,507.9261629998655,3.0,1.0,part_1,,,,,,,,,,,,,cyan,circle
420.0,4.0,4.0,0.0,1.0,1.0,432.5850209997952,3.0,1.0,part_1,,,,,,,,,,,,,magenta,hexagon
417.0,4.0,4.0,0.0,2.0,2.0,392.602610999802,3.0,1.0,part_1,,,,,,,,,,,,,magenta,hexagon
30.0,5.0,1.0,1.0,2.0,2.0,408.4813810000014,3.0,1.0,part_1,,,,,,,,,,,,,yellow,I
396.0,4.0,4.0,0.0,4.0,4.0,382.8275659998326,3.0,1.0,part_1,,,,,,,,,,,,,magenta,hexagon
72.0,5.0,1.0,1.0,2.0,2.0,332.5916429998869,3.0,1.0,part_1,,,,,,,,,,,,,yellow,I
0.0,4.0,0.0,0.0,3.0,3.0,389.4601909996709,3.0,1.0,part_1,,,,,,,,,,,,,magenta,hexagon
28.0,5.0,1.0,1.0,3.0,3.0,420.5636309998226,3.0,1.0,part_1,,,,,,,,,,,,,yellow,I
403.0,4.0,4.0,0.0,2.0,2.0,350.4389569998238,3.0,1.0,part_1,,,,,,,,,,,,,magenta,hexagon
195.0,7.0,3.0,1.0,3.0,3.0,397.6788329996452,3.0,1.0,part_1,,,,,,,,,,,,,orange,triangle
396.0,8.0,4.0,1.0,3.0,3.0,594.2384279996986,3.0,1.0,part_1,,,,,,,,,,,,,white,square
0.0,4.0,0.0,0.0,1.0,1.0,464.5783340001799,3.0,1.0,part_1,,,,,,,,,,,,,magenta,hexagon
392.0,4.0,4.0,0.0,4.0,4.0,328.8199479998184,3.0,1.0,part_1,,,,,,,,,,,,,magenta,hexagon
225.0,3.0,3.0,0.0,3.0,3.0,541.4843200001087,3.0,1.0,part_1,,,,,,,,,,,,,gray,cross
0.0,8.0,0.0,1.0,2.0,2.0,365.8689929998218,3.0,1.0,part_1,,,,,,,,,,,,,white,square
0.0,7.0,0.0,1.0,1.0,1.0,350.2968419998069,3.0,1.0,part_1,,,,,,,,,,,,,orange,triangle
108.0,2.0,2.0,0.0,2.0,2.0,597.6781389999815,3.0,1.0,part_1,,,,,,,,,,,,,green,flipped triangle
72.0,1.0,1.0,0.0,2.0,2.0,412.7542040000662,3.0,1.0,part_1,,,,,,,,,,,,,blue,diamond
190.0,3.0,3.0,0.0,1.0,1.0,554.8229219998575,3.0,1.0,part_1,,,,,,,,,,,,,gray,cross
35.0,5.0,1.0,1.0,2.0,2.0,392.5164760003099,3.0,1.0,part_1,,,,,,,,,,,,,yellow,I
0.0,5.0,0.0,1.0,1.0,1.0,462.5114099999337,3.0,1.0,part_1,,,,,,,,,,,,,yellow,I
59.0,5.0,1.0,1.0,1.0,1.0,415.0581940002666,3.0,1.0,part_1,,,,,,,,,,,,,yellow,I
419.0,8.0,4.0,1.0,2.0,2.0,379.2992560001949,3.0,1.0,part_1,,,,,,,,,,,,,white,square
45.0,5.0,1.0,1.0,4.0,4.0,560.4252070002076,3.0,1.0,part_1,,,,,,,,,,,,,yellow,I
0.0,8.0,0.0,1.0,2.0,2.0,339.4039549998524,3.0,1.0,part_1,,,,,,,,,,,,,white,square
0.0,8.0,0.0,1.0,3.0,3.0,393.2848959998409,3.0,1.0,part_1,,,,,,,,,,,,,white,square
201.0,3.0,3.0,0.0,2.0,2.0,457.6438750000307,3.0,1.0,part_1,,,,,,,,,,,,,gray,cross
417.0,8.0,4.0,1.0,2.0,2.0,480.6618940001499,3.0,1.0,part_1,,,,,,,,,,,,,white,square
31.0,5.0,1.0,1.0,3.0,3.0,483.221883999704,3.0,1.0,part_1,,,,,,,,,,,,,yellow,I
99.0,6.0,2.0,1.0,4.0,4.0,579.9566860000596,3.0,1.0,part_1,,,,,,,,,,,,,cyan,circle
205.0,3.0,3.0,0.0,2.0,2.0,436.3118490000488,3.0,1.0,part_1,,,,,,,,,,,,,gray,cross
0.0,6.0,0.0,1.0,4.0,4.0,405.6076229999235,3.0,1.0,part_1,,,,,,,,,,,,,cyan,circle
31.0,1.0,1.0,0.0,3.0,3.0,517.5224699996761,3.0,2.0,part_1,,,,,,,,,,,,,blue,diamond
383.0,4.0,4.0,0.0,1.0,1.0,434.273476999806,3.0,1.0,part_1,,,,,,,,,,,,,magenta,hexagon
121.0,2.0,2.0,0.0,4.0,4.0,533.9835429999766,3.0,1.0,part_1,,,,,,,,,,,,,green,flipped triangle
51.0,1.0,1.0,0.0,2.0,2.0,491.7221169998811,3.0,1.0,part_1,,,,,,,,,,,,,blue,diamond
110.0,6.0,2.0,1.0,3.0,3.0,412.6951079997525,3.0,1.0,part_1,,,,,,,,,,,,,cyan,circle
109.0,6.0,2.0,1.0,2.0,2.0,458.1792799999675,3.0,1.0,part_1,,,,,,,,,,,,,cyan,circle
66.0,1.0,1.0,0.0,1.0,1.0,467.0887010001934,3.0,1.0,part_1,,,,,,,,,,,,,blue,diamond
88.0,6.0,2.0,1.0,1.0,1.0,527.9739269999482,3.0,1.0,part_1,,,,,,,,,,,,,cyan,circle
94.0,6.0,2.0,1.0,1.0,1.0,310.2058880003824,4.0,1.0,part_1,,,,,,,,,,,,,cyan,circle
85.0,2.0,2.0,0.0,3.0,3.0,721.8359260000398,4.0,1.0,part_1,,,,,,,,,,,,,green,flipped triangle
0.0,1.0,0.0,0.0,4.0,4.0,322.1485150002081,4.0,1.0,part_1,,,,,,,,,,,,,blue,diamond
183.0,3.0,3.0,0.0,1.0,1.0,351.5807069998118,4.0,1.0,part_1,,,,,,,,,,,,,gray,cross
0.0,3.0,0.0,0.0,2.0,2.0,441.0318979998919,4.0,1.0,part_1,,,,,,,,,,,,,gray,cross
35.0,1.0,1.0,0.0,4.0,4.0,342.7829389997896,4.0,1.0,part_1,,,,,,,,,,,,,blue,diamond
117.0,2.0,2.0,0.0,3.0,3.0,514.4306780002807,4.0,1.0,part_1,,,,,,,,,,,,,green,flipped triangle
406.0,8.0,4.0,1.0,3.0,3.0,436.2476659998719,4.0,1.0,part_1,,,,,,,,,,,,,white,square
419.0,4.0,4.0,0.0,3.0,3.0,376.5578389998154,4.0,1.0,part_1,,,,,,,,,,,,,magenta,hexagon
108.0,6.0,2.0,1.0,1.0,1.0,320.5044340002132,4.0,1.0,part_1,,,,,,,,,,,,,cyan,circle
409.0,8.0,4.0,1.0,1.0,1.0,341.5152210000087,4.0,1.0,part_1,,,,,,,,,,,,,white,square
381.0,4.0,4.0,0.0,2.0,2.0,489.1355889999431,4.0,1.0,part_1,,,,,,,,,,,,,magenta,hexagon
420.0,8.0,4.0,1.0,2.0,2.0,612.4116589999176,4.0,1.0,part_1,,,,,,,,,,,,,white,square
72.0,1.0,1.0,0.0,1.0,1.0,603.4612349999406,4.0,1.0,part_1,,,,,,,,,,,,,blue,diamond
212.0,7.0,3.0,1.0,1.0,1.0,450.0773519998802,4.0,1.0,part_1,,,,,,,,,,,,,orange,triangle
0.0,2.0,0.0,0.0,3.0,3.0,479.4137320000118,4.0,1.0,part_1,,,,,,,,,,,,,green,flipped triangle
121.0,6.0,2.0,1.0,3.0,3.0,458.0694930000391,4.0,1.0,part_1,,,,,,,,,,,,,cyan,circle
82.0,6.0,2.0,1.0,4.0,4.0,626.9437769997239,4.0,1.0,part_1,,,,,,,,,,,,,cyan,circle
0.0,3.0,0.0,0.0,3.0,3.0,463.0734529996516,4.0,1.0,part_1,,,,,,,,,,,,,gray,cross
38.0,1.0,1.0,0.0,4.0,4.0,649.32890900036,4.0,1.0,part_1,,,,,,,,,,,,,blue,diamond
70.0,1.0,1.0,0.0,3.0,3.0,497.1383300003253,4.0,1.0,part_1,,,,,,,,,,,,,blue,diamond
51.0,5.0,1.0,1.0,3.0,3.0,434.8625080001511,4.0,1.0,part_1,,,,,,,,,,,,,yellow,I
120.0,6.0,2.0,1.0,3.0,3.0,402.5337339999169,4.0,1.0,part_1,,,,,,,,,,,,,cyan,circle
76.0,6.0,2.0,1.0,1.0,1.0,606.2400000000707,4.0,1.0,part_1,,,,,,,,,,,,,cyan,circle
56.0,1.0,1.0,0.0,2.0,2.0,711.8781019999005,4.0,1.0,part_1,,,,,,,,,,,,,blue,diamond
190.0,7.0,3.0,1.0,1.0,1.0,449.1864780002288,4.0,1.0,part_1,,,,,,,,,,,,,orange,triangle
56.0,5.0,1.0,1.0,2.0,2.0,499.4264850001855,4.0,1.0,part_1,,,,,,,,,,,,,yellow,I
118.0,6.0,2.0,1.0,3.0,3.0,441.5814039998622,4.0,1.0,part_1,,,,,,,,,,,,,cyan,circle
118.0,2.0,2.0,0.0,3.0,3.0,407.5180590002674,4.0,1.0,part_1,,,,,,,,,,,,,green,flipped triangle
118.0,6.0,2.0,1.0,4.0,4.0,392.7759400003197,4.0,1.0,part_1,,,,,,,,,,,,,cyan,circle
178.0,3.0,3.0,0.0,2.0,2.0,361.6672329999346,4.0,1.0,part_1,,,,,,,,,,,,,gray,cross
39.0,5.0,1.0,1.0,4.0,4.0,296.9829829999071,4.0,1.0,part_1,,,,,,,,,,,,,yellow,I
79.0,6.0,2.0,1.0,2.0,2.0,407.7473380002629,4.0,1.0,part_1,,,,,,,,,,,,,cyan,circle
94.0,2.0,2.0,0.0,1.0,1.0,403.4998350002752,4.0,1.0,part_1,,,,,,,,,,,,,green,flipped triangle
75.0,5.0,1.0,1.0,3.0,3.0,665.2099759999146,4.0,1.0,part_1,,,,,,,,,,,,,yellow,I
50.0,5.0,1.0,1.0,4.0,4.0,414.2144200000075,4.0,1.0,part_1,,,,,,,,,,,,,yellow,I
125.0,6.0,2.0,1.0,4.0,4.0,376.1730050000551,4.0,1.0,part_1,,,,,,,,,,,,,cyan,circle
36.0,1.0,1.0,0.0,4.0,4.0,390.5471379998744,4.0,1.0,part_1,,,,,,,,,,,,,blue,diamond
223.0,7.0,3.0,1.0,2.0,2.0,427.1846090000508,4.0,1.0,part_1,,,,,,,,,,,,,orange,triangle
415.0,8.0,4.0,1.0,1.0,1.0,348.5766870003317,4.0,1.0,part_1,,,,,,,,,,,,,white,square
108.0,6.0,2.0,1.0,4.0,4.0,304.8326640000596,4.0,1.0,part_1,,,,,,,,,,,,,cyan,circle
182.0,3.0,3.0,0.0,2.0,2.0,378.3374229997207,4.0,1.0,part_1,,,,,,,,,,,,,gray,cross
0.0,4.0,0.0,0.0,2.0,2.0,376.1731800000234,4.0,1.0,part_1,,,,,,,,,,,,,magenta,hexagon
0.0,1.0,0.0,0.0,2.0,2.0,425.9586329999365,4.0,1.0,part_1,,,,,,,,,,,,,blue,diamond
114.0,2.0,2.0,0.0,4.0,4.0,401.5229030001137,4.0,1.0,part_1,,,,,,,,,,,,,green,flipped triangle
189.0,7.0,3.0,1.0,2.0,2.0,324.0421430000424,4.0,1.0,part_1,,,,,,,,,,,,,orange,triangle
418.0,4.0,4.0,0.0,2.0,2.0,522.3088620000453,4.0,1.0,part_1,,,,,,,,,,,,,magenta,hexagon
0.0,3.0,0.0,0.0,2.0,2.0,474.7620309999547,4.0,1.0,part_1,,,,,,,,,,,,,gray,cross
93.0,2.0,2.0,0.0,2.0,2.0,508.6009449996709,4.0,1.0,part_1,,,,,,,,,,,,,green,flipped triangle
0.0,8.0,0.0,1.0,2.0,2.0,491.5694579999581,4.0,1.0,part_1,,,,,,,,,,,,,white,square
418.0,8.0,4.0,1.0,2.0,2.0,411.655621999671,4.0,1.0,part_1,,,,,,,,,,,,,white,square
28.0,1.0,1.0,0.0,1.0,1.0,414.005497999824,4.0,1.0,part_1,,,,,,,,,,,,,blue,diamond
38.0,5.0,1.0,1.0,3.0,3.0,562.3611529999835,4.0,1.0,part_1,,,,,,,,,,,,,yellow,I
0.0,1.0,0.0,0.0,1.0,1.0,481.1520199996266,4.0,1.0,part_1,,,,,,,,,,,,,blue,diamond
185.0,7.0,3.0,1.0,2.0,2.0,337.37944999984387,4.0,1.0,part_1,,,,,,,,,,,,,orange,triangle
84.0,2.0,2.0,0.0,2.0,2.0,410.7794179999473,4.0,1.0,part_1,,,,,,,,,,,,,green,flipped triangle
409.0,4.0,4.0,0.0,1.0,1.0,428.7560949996987,4.0,1.0,part_1,,,,,,,,,,,,,magenta,hexagon
48.0,1.0,1.0,0.0,1.0,1.0,404.1907179998816,4.0,1.0,part_1,,,,,,,,,,,,,blue,diamond
82.0,6.0,2.0,1.0,4.0,4.0,345.1129550003315,4.0,1.0,part_1,,,,,,,,,,,,,cyan,circle
47.0,1.0,1.0,0.0,4.0,4.0,437.3528269998132,4.0,1.0,part_1,,,,,,,,,,,,,blue,diamond
57.0,1.0,1.0,0.0,1.0,1.0,434.0307029997348,4.0,1.0,part_1,,,,,,,,,,,,,blue,diamond
189.0,3.0,3.0,0.0,3.0,3.0,588.5731950002082,4.0,1.0,part_1,,,,,,,,,,,,,gray,cross
381.0,8.0,4.0,1.0,2.0,2.0,373.5964580000654,4.0,1.0,part_1,,,,,,,,,,,,,white,square
394.0,4.0,4.0,0.0,2.0,2.0,450.4908409999189,4.0,1.0,part_1,,,,,,,,,,,,,magenta,hexagon
71.0,5.0,1.0,1.0,1.0,1.0,351.0594290000881,4.0,1.0,part_1,,,,,,,,,,,,,yellow,I
219.0,3.0,3.0,0.0,4.0,4.0,449.5172150000144,4.0,1.0,part_1,,,,,,,,,,,,,gray,cross
45.0,1.0,1.0,0.0,1.0,1.0,428.9867329998742,4.0,1.0,part_1,,,,,,,,,,,,,blue,diamond
0.0,2.0,0.0,0.0,3.0,3.0,405.049651000354,4.0,1.0,part_1,,,,,,,,,,,,,green,flipped triangle
183.0,7.0,3.0,1.0,3.0,3.0,516.9360310001139,4.0,1.0,part_1,,,,,,,,,,,,,orange,triangle
176.0,7.0,3.0,1.0,4.0,4.0,372.9257400000278,4.0,1.0,part_1,,,,,,,,,,,,,orange,triangle
380.0,4.0,4.0,0.0,2.0,2.0,488.0626780000057,4.0,1.0,part_1,,,,,,,,,,,,,magenta,hexagon
0.0,2.0,0.0,0.0,4.0,4.0,400.2966449997984,4.0,1.0,part_1,,,,,,,,,,,,,green,flipped triangle
0.0,7.0,0.0,1.0,2.0,2.0,404.2056110001795,4.0,1.0,part_1,,,,,,,,,,,,,orange,triangle
28.0,5.0,1.0,1.0,3.0,3.0,384.453060999931,4.0,1.0,part_1,,,,,,,,,,,,,yellow,I
188.0,3.0,3.0,0.0,2.0,2.0,403.2693999997718,4.0,1.0,part_1,,,,,,,,,,,,,gray,cross
0.0,8.0,0.0,1.0,4.0,4.0,352.6190239999778,4.0,1.0,part_1,,,,,,,,,,,,,white,square
39.0,1.0,1.0,0.0,1.0,1.0,347.4852849999479,4.0,1.0,part_1,,,,,,,,,,,,,blue,diamond
0.0,2.0,0.0,0.0,1.0,1.0,389.0492169998651,4.0,2.0,part_1,,,,,,,,,,,,,green,flipped triangle
61.0,1.0,1.0,0.0,3.0,3.0,695.59610899978,4.0,1.0,part_1,,,,,,,,,,,,,blue,diamond
0.0,6.0,0.0,1.0,3.0,3.0,555.9022249999543,4.0,1.0,part_1,,,,,,,,,,,,,cyan,circle
0.0,8.0,0.0,1.0,2.0,2.0,395.708308000394,4.0,1.0,part_1,,,,,,,,,,,,,white,square
0.0,7.0,0.0,1.0,2.0,2.0,513.8552819998949,4.0,1.0,part_1,,,,,,,,,,,,,orange,triangle
200.0,3.0,3.0,0.0,3.0,3.0,442.1760449999965,4.0,1.0,part_1,,,,,,,,,,,,,gray,cross
0.0,7.0,0.0,1.0,4.0,4.0,457.2315830000661,4.0,1.0,part_1,,,,,,,,,,,,,orange,triangle
65.0,5.0,1.0,1.0,3.0,3.0,458.1338809998669,4.0,1.0,part_1,,,,,,,,,,,,,yellow,I
210.0,7.0,3.0,1.0,1.0,1.0,479.2844640001021,4.0,1.0,part_1,,,,,,,,,,,,,orange,triangle
51.0,1.0,1.0,0.0,3.0,3.0,476.12871299998,4.0,1.0,part_1,,,,,,,,,,,,,blue,diamond
0.0,2.0,0.0,0.0,1.0,1.0,450.2630869997119,4.0,1.0,part_1,,,,,,,,,,,,,green,flipped triangle
206.0,7.0,3.0,1.0,2.0,2.0,378.0203070000425,4.0,1.0,part_1,,,,,,,,,,,,,orange,triangle
414.0,8.0,4.0,1.0,3.0,3.0,439.2629060002946,4.0,1.0,part_1,,,,,,,,,,,,,white,square
0.0,5.0,0.0,1.0,4.0,4.0,477.5273420000303,4.0,1.0,part_1,,,,,,,,,,,,,yellow,I
0.0,8.0,0.0,1.0,1.0,1.0,355.6982629997947,4.0,1.0,part_1,,,,,,,,,,,,,white,square
418.0,4.0,4.0,0.0,4.0,4.0,408.0732720003652,4.0,1.0,part_1,,,,,,,,,,,,,magenta,hexagon
94.0,6.0,2.0,1.0,2.0,2.0,385.7941260002917,4.0,1.0,part_1,,,,,,,,,,,,,cyan,circle
94.0,2.0,2.0,0.0,3.0,3.0,451.8729070000518,4.0,1.0,part_1,,,,,,,,,,,,,green,flipped triangle
190.0,3.0,3.0,0.0,4.0,4.0,547.5748959997873,4.0,1.0,part_1,,,,,,,,,,,,,gray,cross
57.0,5.0,1.0,1.0,2.0,2.0,411.9004280000808,4.0,1.0,part_1,,,,,,,,,,,,,yellow,I
65.0,1.0,1.0,0.0,4.0,4.0,556.0710980003023,4.0,1.0,part_1,,,,,,,,,,,,,blue,diamond
201.0,7.0,3.0,1.0,3.0,3.0,575.7497089998651,4.0,1.0,part_1,,,,,,,,,,,,,orange,triangle
377.0,4.0,4.0,0.0,1.0,1.0,443.9531170000919,4.0,1.0,part_1,,,,,,,,,,,,,magenta,hexagon
0.0,8.0,4.0,1.0,6.0,6.0,877.0968630001335,1.0,0.0,part_2,stop,250.0,250.0,3.0,,,,,,,,,white,square
0.0,8.0,4.0,1.0,5.0,5.0,1162.7933089998803,1.0,0.0,part_2,go,250.0,200.0,1.0,,,,,,,,,white,square
0.0,7.0,3.0,1.0,5.0,0.0,0.0,1.0,0.0,part_2,stop,250.0,200.0,4.0,,,,,,,,,orange,triangle
0.0,3.0,3.0,0.0,6.0,6.0,583.8468520000788,1.0,0.0,part_2,go,300.0,200.0,1.0,,,,,,,,,gray,cross
0.0,7.0,3.0,1.0,5.0,0.0,0.0,1.0,0.0,part_2,stop,300.0,200.0,4.0,,,,,,,,,orange,triangle
0.0,7.0,3.0,1.0,6.0,6.0,412.4899150001511,1.0,0.0,part_2,stop,350.0,200.0,3.0,,,,,,,,,orange,triangle
0.0,2.0,2.0,0.0,6.0,6.0,1156.9144000000051,1.0,0.0,part_2,go,350.0,150.0,1.0,,,,,,,,,green,flipped triangle
0.0,7.0,3.0,1.0,6.0,0.0,0.0,1.0,0.0,part_2,stop,350.0,150.0,4.0,,,,,,,,,orange,triangle
0.0,4.0,4.0,0.0,5.0,5.0,469.2729829998825,1.0,0.0,part_2,go,350.0,200.0,1.0,,,,,,,,,magenta,hexagon
0.0,6.0,2.0,1.0,6.0,0.0,0.0,1.0,0.0,part_2,stop,350.0,200.0,4.0,,,,,,,,,cyan,circle
0.0,6.0,2.0,1.0,5.0,5.0,412.916308000149,1.0,0.0,part_2,stop,350.0,250.0,3.0,,,,,,,,,cyan,circle
0.0,1.0,1.0,0.0,5.0,5.0,536.1672860003637,1.0,0.0,part_2,go,300.0,250.0,1.0,,,,,,,,,blue,diamond
0.0,4.0,4.0,0.0,5.0,5.0,731.0397000001103,1.0,0.0,part_2,go,300.0,250.0,1.0,,,,,,,,,magenta,hexagon
0.0,3.0,3.0,0.0,6.0,6.0,745.434461000059,1.0,0.0,part_2,go,300.0,250.0,1.0,,,,,,,,,gray,cross
0.0,6.0,2.0,1.0,5.0,0.0,0.0,1.0,0.0,part_2,stop,300.0,250.0,4.0,,,,,,,,,cyan,circle
0.0,5.0,1.0,1.0,6.0,6.0,450.6755319998774,1.0,0.0,part_2,go,350.0,250.0,1.0,,,,,,,,,yellow,I
0.0,8.0,4.0,1.0,5.0,0.0,0.0,1.0,0.0,part_2,stop,350.0,250.0,4.0,,,,,,,,,white,square
0.0,1.0,1.0,0.0,5.0,5.0,781.889608000256,1.0,0.0,part_2,go,400.0,250.0,1.0,,,,,,,,,blue,diamond
0.0,2.0,2.0,0.0,5.0,5.0,517.6296110003022,1.0,0.0,part_2,go,400.0,250.0,1.0,,,,,,,,,green,flipped triangle
0.0,8.0,4.0,1.0,6.0,6.0,479.0871559998777,1.0,0.0,part_2,go,400.0,250.0,1.0,,,,,,,,,white,square
0.0,7.0,3.0,1.0,6.0,0.0,0.0,1.0,0.0,part_2,stop,400.0,250.0,4.0,,,,,,,,,orange,triangle
0.0,7.0,3.0,1.0,5.0,5.0,504.1287510002803,1.0,0.0,part_2,stop,400.0,300.0,3.0,,,,,,,,,orange,triangle
0.0,6.0,2.0,1.0,6.0,6.0,485.9079200000451,1.0,0.0,part_2,go,350.0,300.0,1.0,,,,,,,,,cyan,circle
0.0,5.0,1.0,1.0,6.0,6.0,587.9983429999811,1.0,0.0,part_2,go,350.0,300.0,1.0,,,,,,,,,yellow,I
0.0,2.0,2.0,0.0,5.0,5.0,326.4926560000276,1.0,0.0,part_2,go,350.0,300.0,1.0,,,,,,,,,green,flipped triangle
0.0,7.0,3.0,1.0,6.0,6.0,417.4919140000384,1.0,0.0,part_2,stop,350.0,300.0,3.0,,,,,,,,,orange,triangle
0.0,8.0,4.0,1.0,5.0,5.0,673.2373419999931,1.0,0.0,part_2,go,350.0,250.0,1.0,,,,,,,,,white,square
0.0,5.0,1.0,1.0,5.0,5.0,407.8010220000578,1.0,0.0,part_2,stop,350.0,250.0,3.0,,,,,,,,,yellow,I
0.0,7.0,3.0,1.0,5.0,0.0,0.0,1.0,0.0,part_2,stop,300.0,250.0,4.0,,,,,,,,,orange,triangle
0.0,8.0,4.0,1.0,6.0,6.0,355.3836810001485,1.0,0.0,part_2,stop,350.0,250.0,3.0,,,,,,,,,white,square
0.0,2.0,2.0,0.0,6.0,6.0,744.4268259996534,1.0,0.0,part_2,go,350.0,200.0,1.0,,,,,,,,,green,flipped triangle
0.0,1.0,1.0,0.0,6.0,6.0,483.0720969998765,1.0,0.0,part_2,go,350.0,200.0,1.0,,,,,,,,,blue,diamond
0.0,8.0,4.0,1.0,5.0,0.0,0.0,1.0,0.0,part_2,stop,350.0,200.0,4.0,,,,,,,,,white,square
0.0,1.0,1.0,0.0,6.0,6.0,545.9689289996277,1.0,0.0,part_2,go,400.0,200.0,1.0,,,,,,,,,blue,diamond
0.0,3.0,3.0,0.0,5.0,5.0,572.8161370002454,1.0,0.0,part_2,go,400.0,200.0,1.0,,,,,,,,,gray,cross
0.0,8.0,4.0,1.0,5.0,5.0,415.816740000082,1.0,0.0,part_2,go,400.0,200.0,1.0,,,,,,,,,white,square
0.0,8.0,4.0,1.0,6.0,0.0,0.0,2.0,0.0,part_2,stop,400.0,200.0,4.0,,,,,,,,,white,square
0.0,7.0,3.0,1.0,5.0,5.0,277.1476130001247,2.0,0.0,part_2,stop,400.0,250.0,3.0,,,,,,,,,orange,triangle
0.0,5.0,1.0,1.0,5.0,5.0,459.1921080000247,2.0,0.0,part_2,go,350.0,250.0,1.0,,,,,,,,,yellow,I
0.0,2.0,2.0,0.0,6.0,6.0,415.3422029999092,2.0,0.0,part_2,go,350.0,250.0,1.0,,,,,,,,,green,flipped triangle
0.0,1.0,1.0,0.0,5.0,5.0,413.253977000295,2.0,0.0,part_2,go,350.0,250.0,1.0,,,,,,,,,blue,diamond
0.0,2.0,2.0,0.0,6.0,6.0,461.2519129996144,2.0,0.0,part_2,go,350.0,250.0,1.0,,,,,,,,,green,flipped triangle
0.0,5.0,1.0,1.0,5.0,5.0,443.584871999974,2.0,0.0,part_2,stop,350.0,250.0,3.0,,,,,,,,,yellow,I
0.0,7.0,3.0,1.0,5.0,5.0,435.1837389999673,2.0,0.0,part_2,stop,300.0,250.0,3.0,,,,,,,,,orange,triangle
0.0,4.0,4.0,0.0,6.0,6.0,497.7288639997823,2.0,0.0,part_2,go,250.0,250.0,1.0,,,,,,,,,magenta,hexagon
0.0,6.0,2.0,1.0,5.0,5.0,452.5724340001034,2.0,0.0,part_2,stop,250.0,250.0,3.0,,,,,,,,,cyan,circle
0.0,6.0,2.0,1.0,6.0,6.0,418.6868490000961,2.0,0.0,part_2,stop,200.0,250.0,3.0,,,,,,,,,cyan,circle
0.0,2.0,2.0,0.0,6.0,6.0,486.3333180001064,2.0,0.0,part_2,go,200.0,200.0,1.0,,,,,,,,,green,flipped triangle
0.0,5.0,1.0,1.0,6.0,0.0,0.0,2.0,0.0,part_2,stop,200.0,200.0,4.0,,,,,,,,,yellow,I
0.0,7.0,3.0,1.0,6.0,0.0,0.0,2.0,0.0,part_2,stop,200.0,250.0,4.0,,,,,,,,,orange,triangle
0.0,5.0,1.0,1.0,5.0,5.0,285.7550849998915,2.0,0.0,part_2,stop,200.0,300.0,3.0,,,,,,,,,yellow,I
0.0,2.0,2.0,0.0,5.0,5.0,429.806095999993,2.0,0.0,part_2,go,150.0,300.0,1.0,,,,,,,,,green,flipped triangle
0.0,7.0,3.0,1.0,6.0,6.0,250.83867100011048,2.0,0.0,part_2,go,150.0,300.0,1.0,,,,,,,,,orange,triangle
0.0,1.0,1.0,0.0,6.0,6.0,331.4147850001063,2.0,0.0,part_2,go,150.0,300.0,1.0,,,,,,,,,blue,diamond
0.0,7.0,3.0,1.0,6.0,6.0,372.534652000013,2.0,0.0,part_2,stop,150.0,300.0,3.0,,,,,,,,,orange,triangle
0.0,5.0,1.0,1.0,5.0,0.0,0.0,2.0,0.0,part_2,stop,150.0,250.0,4.0,,,,,,,,,yellow,I
0.0,2.0,2.0,0.0,5.0,5.0,310.3152310000041,2.0,0.0,part_2,go,200.0,250.0,1.0,,,,,,,,,green,flipped triangle
0.0,4.0,4.0,0.0,5.0,5.0,269.5528680001189,2.0,0.0,part_2,go,200.0,250.0,1.0,,,,,,,,,magenta,hexagon
0.0,4.0,4.0,0.0,6.0,6.0,255.43983999978082,2.0,0.0,part_2,go,200.0,250.0,1.0,,,,,,,,,magenta,hexagon
0.0,4.0,4.0,0.0,5.0,5.0,456.9047609998051,2.0,0.0,part_2,go,200.0,250.0,1.0,,,,,,,,,magenta,hexagon
0.0,1.0,1.0,0.0,5.0,5.0,354.752026999904,2.0,0.0,part_2,go,200.0,250.0,1.0,,,,,,,,,blue,diamond
0.0,7.0,3.0,1.0,6.0,6.0,317.1089180000308,2.0,0.0,part_2,stop,200.0,250.0,3.0,,,,,,,,,orange,triangle
0.0,7.0,3.0,1.0,6.0,6.0,452.2661790001621,2.0,0.0,part_2,go,200.0,200.0,1.0,,,,,,,,,orange,triangle
0.0,6.0,2.0,1.0,5.0,5.0,283.7066729998696,2.0,0.0,part_2,stop,200.0,200.0,3.0,,,,,,,,,cyan,circle
0.0,7.0,3.0,1.0,6.0,6.0,273.5472130002563,2.0,0.0,part_2,stop,150.0,200.0,3.0,,,,,,,,,orange,triangle
0.0,4.0,4.0,0.0,6.0,6.0,632.669961999909,2.0,0.0,part_2,go,150.0,150.0,1.0,,,,,,,,,magenta,hexagon
0.0,3.0,3.0,0.0,6.0,6.0,822.699355000168,2.0,0.0,part_2,go,150.0,150.0,1.0,,,,,,,,,gray,cross
0.0,1.0,1.0,0.0,6.0,6.0,286.5488639999967,2.0,0.0,part_2,go,150.0,150.0,1.0,,,,,,,,,blue,diamond
0.0,2.0,2.0,0.0,6.0,6.0,363.9766219998819,2.0,0.0,part_2,go,150.0,150.0,1.0,,,,,,,,,green,flipped triangle
0.0,5.0,1.0,1.0,5.0,0.0,0.0,2.0,0.0,part_2,stop,150.0,150.0,4.0,,,,,,,,,yellow,I
0.0,4.0,4.0,0.0,6.0,6.0,239.1507080001247,2.0,0.0,part_2,go,200.0,150.0,1.0,,,,,,,,,magenta,hexagon
0.0,2.0,2.0,0.0,6.0,6.0,311.7648359998384,2.0,0.0,part_2,go,200.0,150.0,1.0,,,,,,,,,green,flipped triangle
0.0,4.0,4.0,0.0,5.0,5.0,1276.552953999726,3.0,0.0,part_2,go,200.0,150.0,1.0,,,,,,,,,magenta,hexagon
0.0,6.0,2.0,1.0,6.0,6.0,267.5337320001745,3.0,0.0,part_2,stop,200.0,150.0,3.0,,,,,,,,,cyan,circle
0.0,1.0,1.0,0.0,5.0,5.0,424.8006099996928,3.0,0.0,part_2,go,200.0,100.0,1.0,,,,,,,,,blue,diamond
0.0,1.0,1.0,0.0,6.0,6.0,558.7976580000031,3.0,0.0,part_2,go,200.0,100.0,1.0,,,,,,,,,blue,diamond
0.0,1.0,1.0,0.0,6.0,6.0,388.3890510001038,3.0,0.0,part_2,go,200.0,100.0,1.0,,,,,,,,,blue,diamond
0.0,3.0,3.0,0.0,5.0,5.0,462.6407410000865,3.0,0.0,part_2,go,200.0,100.0,1.0,,,,,,,,,gray,cross
0.0,1.0,1.0,0.0,6.0,6.0,460.3080150000096,3.0,0.0,part_2,go,200.0,100.0,1.0,,,,,,,,,blue,diamond
0.0,8.0,4.0,1.0,5.0,5.0,420.5310889997236,3.0,0.0,part_2,stop,200.0,100.0,3.0,,,,,,,,,white,square
0.0,8.0,4.0,1.0,5.0,0.0,0.0,3.0,0.0,part_2,stop,150.0,100.0,4.0,,,,,,,,,white,square
0.0,7.0,3.0,1.0,6.0,6.0,438.069440000163,3.0,0.0,part_2,go,200.0,100.0,1.0,,,,,,,,,orange,triangle
0.0,3.0,3.0,0.0,6.0,6.0,527.0028289996844,3.0,0.0,part_2,go,200.0,100.0,1.0,,,,,,,,,gray,cross
0.0,1.0,1.0,0.0,5.0,5.0,523.001264999948,3.0,0.0,part_2,go,200.0,100.0,1.0,,,,,,,,,blue,diamond
0.0,3.0,3.0,0.0,6.0,6.0,502.0834929996454,3.0,0.0,part_2,go,200.0,100.0,1.0,,,,,,,,,gray,cross
0.0,5.0,1.0,1.0,5.0,0.0,0.0,3.0,0.0,part_2,stop,200.0,100.0,4.0,,,,,,,,,yellow,I
0.0,3.0,3.0,0.0,5.0,5.0,544.0486080001392,3.0,0.0,part_2,go,250.0,100.0,1.0,,,,,,,,,gray,cross
0.0,4.0,4.0,0.0,6.0,6.0,273.5271709998415,3.0,0.0,part_2,go,250.0,100.0,1.0,,,,,,,,,magenta,hexagon
0.0,3.0,3.0,0.0,6.0,6.0,445.4729599997336,3.0,0.0,part_2,go,250.0,100.0,1.0,,,,,,,,,gray,cross
0.0,6.0,2.0,1.0,5.0,0.0,0.0,3.0,0.0,part_2,stop,250.0,100.0,4.0,,,,,,,,,cyan,circle
0.0,8.0,4.0,1.0,5.0,5.0,469.5176600002924,3.0,0.0,part_2,stop,300.0,100.0,3.0,,,,,,,,,white,square
0.0,2.0,2.0,0.0,6.0,6.0,385.1229570000214,3.0,0.0,part_2,go,250.0,100.0,1.0,,,,,,,,,green,flipped triangle
0.0,1.0,1.0,0.0,5.0,5.0,465.2976630000012,3.0,0.0,part_2,go,250.0,100.0,1.0,,,,,,,,,blue,diamond
0.0,8.0,4.0,1.0,5.0,0.0,0.0,3.0,0.0,part_2,stop,250.0,100.0,4.0,,,,,,,,,white,square
0.0,8.0,4.0,1.0,6.0,6.0,277.0274209997296,3.0,0.0,part_2,stop,300.0,100.0,3.0,,,,,,,,,white,square
0.0,3.0,3.0,0.0,6.0,6.0,524.787576000108,3.0,0.0,part_2,go,300.0,50.0,1.0,,,,,,,,,gray,cross
0.0,2.0,2.0,0.0,6.0,6.0,432.7805279999666,3.0,0.0,part_2,go,300.0,50.0,1.0,,,,,,,,,green,flipped triangle
0.0,4.0,4.0,0.0,6.0,6.0,312.2805110001536,3.0,0.0,part_2,go,300.0,50.0,1.0,,,,,,,,,magenta,hexagon
0.0,1.0,1.0,0.0,5.0,5.0,304.5809159998498,3.0,0.0,part_2,go,300.0,50.0,1.0,,,,,,,,,blue,diamond
0.0,2.0,2.0,0.0,5.0,5.0,370.5072819998349,3.0,0.0,part_2,go,300.0,50.0,1.0,,,,,,,,,green,flipped triangle
0.0,6.0,2.0,1.0,5.0,5.0,330.1815340000757,3.0,0.0,part_2,stop,300.0,50.0,3.0,,,,,,,,,cyan,circle
0.0,7.0,3.0,1.0,5.0,0.0,0.0,3.0,0.0,part_2,stop,250.0,50.0,4.0,,,,,,,,,orange,triangle
0.0,3.0,3.0,0.0,6.0,6.0,277.343514000222,3.0,0.0,part_2,go,300.0,50.0,1.0,,,,,,,,,gray,cross
0.0,6.0,2.0,1.0,6.0,0.0,0.0,3.0,0.0,part_2,stop,300.0,50.0,4.0,,,,,,,,,cyan,circle
0.0,1.0,1.0,0.0,6.0,6.0,504.7084369998629,3.0,0.0,part_2,go,300.0,100.0,1.0,,,,,,,,,blue,diamond
0.0,5.0,1.0,1.0,5.0,5.0,525.9938939998392,3.0,0.0,part_2,go,300.0,100.0,1.0,,,,,,,,,yellow,I
0.0,5.0,1.0,1.0,6.0,6.0,459.3918539999322,3.0,0.0,part_2,go,300.0,100.0,1.0,,,,,,,,,yellow,I
0.0,1.0,1.0,0.0,5.0,5.0,759.992167999826,3.0,0.0,part_2,go,300.0,100.0,1.0,,,,,,,,,blue,diamond
0.0,6.0,2.0,1.0,5.0,0.0,0.0,4.0,0.0,part_2,stop,300.0,100.0,4.0,,,,,,,,,cyan,circle
0.0,8.0,4.0,1.0,5.0,5.0,645.9571759996834,4.0,0.0,part_2,go,350.0,100.0,1.0,,,,,,,,,white,square
0.0,3.0,3.0,0.0,5.0,5.0,347.37904099984,4.0,0.0,part_2,go,350.0,100.0,1.0,,,,,,,,,gray,cross
0.0,7.0,3.0,1.0,5.0,5.0,339.1161700001248,4.0,0.0,part_2,stop,350.0,100.0,3.0,,,,,,,,,orange,triangle
0.0,1.0,1.0,0.0,5.0,5.0,551.0680200000024,4.0,0.0,part_2,go,300.0,100.0,1.0,,,,,,,,,blue,diamond
0.0,3.0,3.0,0.0,6.0,6.0,324.9026950002189,4.0,0.0,part_2,go,300.0,100.0,1.0,,,,,,,,,gray,cross
0.0,8.0,4.0,1.0,5.0,5.0,275.1724919999105,4.0,0.0,part_2,stop,300.0,100.0,3.0,,,,,,,,,white,square
0.0,5.0,1.0,1.0,5.0,5.0,638.6063110003306,4.0,0.0,part_2,go,250.0,100.0,1.0,,,,,,,,,yellow,I
0.0,5.0,1.0,1.0,6.0,6.0,297.6869960002659,4.0,0.0,part_2,stop,250.0,100.0,3.0,,,,,,,,,yellow,I
0.0,8.0,4.0,1.0,6.0,0.0,0.0,4.0,0.0,part_2,stop,250.0,50.0,4.0,,,,,,,,,white,square
0.0,7.0,3.0,1.0,6.0,6.0,498.859098000139,4.0,0.0,part_2,go,250.0,100.0,1.0,,,,,,,,,orange,triangle
0.0,4.0,4.0,0.0,6.0,6.0,354.4639099995947,4.0,0.0,part_2,go,250.0,100.0,1.0,,,,,,,,,magenta,hexagon
0.0,4.0,4.0,0.0,6.0,6.0,326.7144090000329,4.0,0.0,part_2,go,250.0,100.0,1.0,,,,,,,,,magenta,hexagon
0.0,2.0,2.0,0.0,5.0,5.0,556.9568500000059,4.0,0.0,part_2,go,250.0,100.0,1.0,,,,,,,,,green,flipped triangle
0.0,4.0,4.0,0.0,6.0,6.0,311.6771099998914,4.0,0.0,part_2,go,250.0,100.0,1.0,,,,,,,,,magenta,hexagon
0.0,4.0,4.0,0.0,5.0,5.0,317.8332119996412,4.0,0.0,part_2,go,250.0,100.0,1.0,,,,,,,,,magenta,hexagon
0.0,1.0,1.0,0.0,6.0,6.0,442.1899970002414,4.0,0.0,part_2,go,250.0,100.0,1.0,,,,,,,,,blue,diamond
0.0,3.0,3.0,0.0,6.0,6.0,343.9449840002453,4.0,0.0,part_2,go,250.0,100.0,1.0,,,,,,,,,gray,cross
0.0,6.0,2.0,1.0,6.0,6.0,265.7794149999972,4.0,0.0,part_2,stop,250.0,100.0,3.0,,,,,,,,,cyan,circle
0.0,1.0,1.0,0.0,5.0,5.0,251.5856659997553,4.0,0.0,part_2,go,250.0,50.0,1.0,,,,,,,,,blue,diamond
0.0,7.0,3.0,1.0,5.0,5.0,303.7829340000826,4.0,0.0,part_2,go,250.0,50.0,1.0,,,,,,,,,orange,triangle
0.0,8.0,4.0,1.0,6.0,6.0,281.6645499997321,4.0,0.0,part_2,go,250.0,50.0,1.0,,,,,,,,,white,square
0.0,6.0,2.0,1.0,5.0,0.0,0.0,4.0,0.0,part_2,stop,250.0,50.0,4.0,,,,,,,,,cyan,circle
0.0,3.0,3.0,0.0,6.0,6.0,287.2341150000466,4.0,0.0,part_2,go,300.0,50.0,1.0,,,,,,,,,gray,cross
0.0,6.0,2.0,1.0,6.0,0.0,0.0,4.0,0.0,part_2,stop,300.0,50.0,4.0,,,,,,,,,cyan,circle
0.0,7.0,3.0,1.0,5.0,5.0,273.2747519999066,4.0,0.0,part_2,go,300.0,100.0,1.0,,,,,,,,,orange,triangle
0.0,2.0,2.0,0.0,5.0,5.0,323.2468390001486,4.0,0.0,part_2,go,300.0,100.0,1.0,,,,,,,,,green,flipped triangle
0.0,3.0,3.0,0.0,6.0,6.0,534.1115179999179,4.0,0.0,part_2,go,300.0,100.0,1.0,,,,,,,,,gray,cross
0.0,7.0,3.0,1.0,5.0,5.0,330.1521520002097,4.0,0.0,part_2,stop,300.0,100.0,3.0,,,,,,,,,orange,triangle
0.0,4.0,4.0,0.0,5.0,5.0,697.040764999656,4.0,0.0,part_2,go,250.0,100.0,1.0,,,,,,,,,magenta,hexagon
0.0,2.0,2.0,0.0,5.0,5.0,498.3137130002433,4.0,0.0,part_2,go,250.0,100.0,1.0,,,,,,,,,green,flipped triangle
0.0,1.0,1.0,0.0,6.0,6.0,403.9193209996483,4.0,0.0,part_2,go,250.0,100.0,1.0,,,,,,,,,blue,diamond
0.0,6.0,2.0,1.0,6.0,6.0,412.9897540001366,4.0,0.0,part_2,stop,250.0,100.0,3.0,,,,,,,,,cyan,circle
0.0,8.0,4.0,1.0,6.0,0.0,0.0,4.0,0.0,part_2,stop,250.0,50.0,4.0,,,,,,,,,white,square
0.0,4.0,4.0,0.0,6.0,6.0,392.9260790000626,4.0,0.0,part_2,go,250.0,100.0,1.0,,,,,,,,,magenta,hexagon
0.0,2.0,2.0,0.0,5.0,5.0,314.1461459999846,4.0,0.0,part_2,go,250.0,100.0,1.0,,,,,,,,,green,flipped triangle
0.0,5.0,1.0,1.0,6.0,6.0,381.1303069996938,5.0,0.0,part_2,stop,250.0,100.0,3.0,,,,,,,,,yellow,I
0.0,2.0,2.0,0.0,5.0,5.0,540.8626569997068,5.0,0.0,part_2,go,250.0,50.0,1.0,,,,,,,,,green,flipped triangle
0.0,7.0,3.0,1.0,6.0,0.0,0.0,5.0,0.0,part_2,stop,250.0,50.0,4.0,,,,,,,,,orange,triangle
0.0,5.0,1.0,1.0,6.0,6.0,372.0378680000067,5.0,0.0,part_2,stop,250.0,100.0,3.0,,,,,,,,,yellow,I
0.0,1.0,1.0,0.0,5.0,5.0,466.4666249996116,5.0,0.0,part_2,go,250.0,50.0,1.0,,,,,,,,,blue,diamond
0.0,8.0,4.0,1.0,5.0,5.0,405.1642360000187,5.0,0.0,part_2,go,250.0,50.0,1.0,,,,,,,,,white,square
0.0,6.0,2.0,1.0,5.0,0.0,0.0,5.0,0.0,part_2,stop,250.0,50.0,4.0,,,,,,,,,cyan,circle
0.0,1.0,1.0,0.0,5.0,5.0,618.0331430000479,5.0,0.0,part_2,go,300.0,50.0,1.0,,,,,,,,,blue,diamond
0.0,6.0,2.0,1.0,5.0,0.0,0.0,5.0,0.0,part_2,stop,300.0,50.0,4.0,,,,,,,,,cyan,circle
0.0,6.0,2.0,1.0,5.0,0.0,0.0,5.0,0.0,part_2,stop,350.0,50.0,4.0,,,,,,,,,cyan,circle
0.0,5.0,1.0,1.0,5.0,5.0,508.5978749998503,5.0,0.0,part_2,stop,400.0,50.0,3.0,,,,,,,,,yellow,I
0.0,4.0,4.0,0.0,6.0,6.0,438.8610490000246,5.0,0.0,part_2,go,350.0,50.0,1.0,,,,,,,,,magenta,hexagon
0.0,8.0,4.0,1.0,6.0,0.0,0.0,5.0,0.0,part_2,stop,350.0,50.0,4.0,,,,,,,,,white,square
0.0,5.0,1.0,1.0,6.0,6.0,548.8983919999555,5.0,0.0,part_2,go,350.0,100.0,1.0,,,,,,,,,yellow,I
0.0,5.0,1.0,1.0,5.0,0.0,0.0,5.0,0.0,part_2,stop,350.0,100.0,4.0,,,,,,,,,yellow,I
0.0,4.0,4.0,0.0,5.0,5.0,579.599553999742,5.0,0.0,part_2,go,400.0,100.0,1.0,,,,,,,,,magenta,hexagon
0.0,6.0,2.0,1.0,5.0,5.0,562.1425680001266,5.0,0.0,part_2,stop,400.0,100.0,3.0,,,,,,,,,cyan,circle
0.0,2.0,2.0,0.0,5.0,5.0,813.6791719998655,5.0,0.0,part_2,go,350.0,100.0,1.0,,,,,,,,,green,flipped triangle
0.0,8.0,4.0,1.0,6.0,0.0,0.0,5.0,0.0,part_2,stop,350.0,100.0,4.0,,,,,,,,,white,square
0.0,6.0,2.0,1.0,6.0,0.0,0.0,5.0,0.0,part_2,stop,350.0,150.0,4.0,,,,,,,,,cyan,circle
0.0,8.0,4.0,1.0,5.0,0.0,0.0,5.0,0.0,part_2,stop,350.0,200.0,4.0,,,,,,,,,white,square
0.0,1.0,1.0,0.0,6.0,6.0,377.4054579998847,5.0,0.0,part_2,go,400.0,200.0,1.0,,,,,,,,,blue,diamond
0.0,1.0,1.0,0.0,5.0,5.0,644.0583130001869,5.0,0.0,part_2,go,400.0,200.0,1.0,,,,,,,,,blue,diamond
0.0,4.0,4.0,0.0,5.0,5.0,579.3189099999836,5.0,0.0,part_2,go,400.0,200.0,1.0,,,,,,,,,magenta,hexagon
0.0,2.0,2.0,0.0,6.0,6.0,267.1150040000611,5.0,0.0,part_2,go,400.0,200.0,1.0,,,,,,,,,green,flipped triangle
0.0,3.0,3.0,0.0,6.0,6.0,440.0947819999601,5.0,0.0,part_2,go,400.0,200.0,1.0,,,,,,,,,gray,cross
0.0,2.0,2.0,0.0,6.0,6.0,484.6340449998934,5.0,0.0,part_2,go,400.0,200.0,1.0,,,,,,,,,green,flipped triangle
0.0,3.0,3.0,0.0,5.0,5.0,588.6159259998749,5.0,0.0,part_2,go,400.0,200.0,1.0,,,,,,,,,gray,cross
0.0,7.0,3.0,1.0,6.0,6.0,741.4809490001062,5.0,0.0,part_2,go,400.0,200.0,1.0,,,,,,,,,orange,triangle
0.0,1.0,1.0,0.0,6.0,6.0,745.3681279998818,5.0,0.0,part_2,go,400.0,200.0,1.0,,,,,,,,,blue,diamond
0.0,5.0,1.0,1.0,6.0,6.0,433.3654759998353,5.0,0.0,part_2,stop,400.0,200.0,3.0,,,,,,,,,yellow,I
0.0,2.0,2.0,0.0,6.0,6.0,555.414208000002,5.0,0.0,part_2,go,400.0,150.0,1.0,,,,,,,,,green,flipped triangle
0.0,2.0,2.0,0.0,5.0,5.0,562.1188800000709,5.0,0.0,part_2,go,400.0,150.0,1.0,,,,,,,,,green,flipped triangle
0.0,4.0,4.0,0.0,5.0,5.0,439.4135499996991,5.0,0.0,part_2,go,400.0,150.0,1.0,,,,,,,,,magenta,hexagon
0.0,5.0,1.0,1.0,5.0,5.0,488.7052940002832,5.0,0.0,part_2,stop,400.0,150.0,3.0,,,,,,,,,yellow,I
0.0,6.0,2.0,1.0,6.0,6.0,478.6896580003486,5.0,0.0,part_2,go,350.0,150.0,1.0,,,,,,,,,cyan,circle
0.0,2.0,2.0,0.0,5.0,5.0,779.7101119999752,6.0,0.0,part_2,go,350.0,150.0,1.0,,,,,,,,,green,flipped triangle
0.0,6.0,2.0,1.0,6.0,6.0,369.0676359997269,6.0,0.0,part_2,go,350.0,150.0,1.0,,,,,,,,,cyan,circle
0.0,1.0,1.0,0.0,5.0,5.0,295.1870319998306,6.0,0.0,part_2,go,350.0,150.0,1.0,,,,,,,,,blue,diamond
0.0,4.0,4.0,0.0,6.0,6.0,451.0198769999078,6.0,0.0,part_2,go,350.0,150.0,1.0,,,,,,,,,magenta,hexagon
0.0,5.0,1.0,1.0,6.0,0.0,0.0,6.0,0.0,part_2,stop,350.0,150.0,4.0,,,,,,,,,yellow,I
0.0,3.0,3.0,0.0,5.0,5.0,507.3383339999964,6.0,0.0,part_2,go,350.0,200.0,1.0,,,,,,,,,gray,cross
0.0,8.0,4.0,1.0,6.0,6.0,295.2038069997797,6.0,0.0,part_2,stop,350.0,200.0,3.0,,,,,,,,,white,square
0.0,8.0,4.0,1.0,6.0,0.0,0.0,6.0,0.0,part_2,stop,350.0,150.0,4.0,,,,,,,,,white,square
0.0,8.0,4.0,1.0,5.0,5.0,466.3025879999622,6.0,0.0,part_2,stop,350.0,200.0,3.0,,,,,,,,,white,square
0.0,4.0,4.0,0.0,5.0,5.0,489.4642770000246,6.0,0.0,part_2,go,300.0,200.0,1.0,,,,,,,,,magenta,hexagon
0.0,2.0,2.0,0.0,5.0,5.0,481.1370239999633,6.0,0.0,part_2,go,300.0,200.0,1.0,,,,,,,,,green,flipped triangle
0.0,2.0,2.0,0.0,5.0,5.0,618.2736939999813,6.0,0.0,part_2,go,300.0,200.0,1.0,,,,,,,,,green,flipped triangle
0.0,3.0,3.0,0.0,5.0,5.0,528.1201839998175,6.0,0.0,part_2,go,300.0,200.0,1.0,,,,,,,,,gray,cross
0.0,7.0,3.0,1.0,6.0,0.0,0.0,6.0,0.0,part_2,stop,300.0,200.0,4.0,,,,,,,,,orange,triangle
0.0,3.0,3.0,0.0,5.0,5.0,472.3046780000004,6.0,0.0,part_2,go,300.0,250.0,1.0,,,,,,,,,gray,cross
0.0,5.0,1.0,1.0,5.0,5.0,501.9548569998733,6.0,0.0,part_2,go,300.0,250.0,1.0,,,,,,,,,yellow,I
0.0,6.0,2.0,1.0,5.0,5.0,504.07885100003114,6.0,0.0,part_2,go,300.0,250.0,1.0,,,,,,,,,cyan,circle
0.0,6.0,2.0,1.0,6.0,0.0,0.0,6.0,0.0,part_2,stop,300.0,250.0,4.0,,,,,,,,,cyan,circle
0.0,8.0,4.0,1.0,6.0,0.0,0.0,6.0,0.0,part_2,stop,300.0,300.0,4.0,,,,,,,,,white,square
0.0,2.0,2.0,0.0,6.0,6.0,532.5384249999843,6.0,0.0,part_2,go,300.0,350.0,1.0,,,,,,,,,green,flipped triangle
0.0,5.0,1.0,1.0,5.0,0.0,0.0,6.0,0.0,part_2,stop,300.0,350.0,4.0,,,,,,,,,yellow,I
0.0,3.0,3.0,0.0,5.0,5.0,453.5342350000064,6.0,0.0,part_2,go,350.0,350.0,1.0,,,,,,,,,gray,cross
0.0,6.0,2.0,1.0,5.0,0.0,0.0,6.0,0.0,part_2,stop,350.0,350.0,4.0,,,,,,,,,cyan,circle
0.0,3.0,3.0,0.0,5.0,5.0,483.6544830000093,6.0,0.0,part_2,go,400.0,350.0,1.0,,,,,,,,,gray,cross
0.0,4.0,4.0,0.0,5.0,5.0,826.5799260002495,6.0,0.0,part_2,go,400.0,350.0,1.0,,,,,,,,,magenta,hexagon
0.0,2.0,2.0,0.0,5.0,5.0,340.2921580000111,6.0,0.0,part_2,go,400.0,350.0,1.0,,,,,,,,,green,flipped triangle
0.0,5.0,1.0,1.0,6.0,6.0,331.1037520002173,6.0,0.0,part_2,stop,400.0,350.0,3.0,,,,,,,,,yellow,I
0.0,1.0,1.0,0.0,6.0,6.0,387.5340169997798,6.0,0.0,part_2,go,400.0,300.0,1.0,,,,,,,,,blue,diamond
0.0,1.0,1.0,0.0,5.0,5.0,476.3800530004118,6.0,0.0,part_2,go,400.0,300.0,1.0,,,,,,,,,blue,diamond
0.0,7.0,3.0,1.0,6.0,6.0,291.5196250000917,6.0,0.0,part_2,stop,400.0,300.0,3.0,,,,,,,,,orange,triangle
0.0,3.0,3.0,0.0,5.0,5.0,565.4142090002097,6.0,0.0,part_2,go,400.0,250.0,1.0,,,,,,,,,gray,cross
0.0,5.0,1.0,1.0,5.0,0.0,0.0,6.0,0.0,part_2,stop,400.0,250.0,4.0,,,,,,,,,yellow,I
0.0,6.0,2.0,1.0,6.0,6.0,442.1203990000322,6.0,0.0,part_2,stop,450.0,250.0,3.0,,,,,,,,,cyan,circle
0.0,8.0,4.0,1.0,6.0,6.0,590.2243700002145,6.0,0.0,part_2,go,450.0,200.0,1.0,,,,,,,,,white,square
0.0,6.0,2.0,1.0,5.0,5.0,280.3892049996648,6.0,0.0,part_2,go,450.0,200.0,1.0,,,,,,,,,cyan,circle
0.0,4.0,4.0,0.0,5.0,5.0,591.5315249999367,6.0,0.0,part_2,go,450.0,200.0,1.0,,,,,,,,,magenta,hexagon
0.0,2.0,2.0,0.0,6.0,6.0,983.0536619997474,7.0,0.0,part_2,go,450.0,200.0,1.0,,,,,,,,,green,flipped triangle
0.0,3.0,3.0,0.0,5.0,5.0,528.9624840002034,7.0,0.0,part_2,go,450.0,200.0,1.0,,,,,,,,,gray,cross
0.0,4.0,4.0,0.0,5.0,5.0,333.8966669998626,7.0,0.0,part_2,go,450.0,200.0,1.0,,,,,,,,,magenta,hexagon
0.0,7.0,3.0,1.0,5.0,5.0,487.8041990000383,7.0,0.0,part_2,stop,450.0,200.0,3.0,,,,,,,,,orange,triangle
0.0,6.0,2.0,1.0,5.0,5.0,506.31792999956815,7.0,0.0,part_2,go,400.0,200.0,1.0,,,,,,,,,cyan,circle
0.0,5.0,1.0,1.0,6.0,0.0,0.0,7.0,0.0,part_2,stop,400.0,200.0,4.0,,,,,,,,,yellow,I
0.0,4.0,4.0,0.0,6.0,6.0,463.2672660000025,7.0,0.0,part_2,go,400.0,250.0,1.0,,,,,,,,,magenta,hexagon
0.0,5.0,1.0,1.0,5.0,5.0,308.2775590000892,7.0,0.0,part_2,stop,400.0,250.0,3.0,,,,,,,,,yellow,I
0.0,4.0,4.0,0.0,5.0,5.0,457.0532359998651,7.0,0.0,part_2,go,350.0,250.0,1.0,,,,,,,,,magenta,hexagon
0.0,6.0,2.0,1.0,6.0,6.0,652.8945689997272,7.0,0.0,part_2,go,350.0,250.0,1.0,,,,,,,,,cyan,circle
0.0,7.0,3.0,1.0,6.0,0.0,0.0,7.0,0.0,part_2,stop,350.0,250.0,4.0,,,,,,,,,orange,triangle
0.0,1.0,1.0,0.0,6.0,6.0,521.7113200001222,7.0,0.0,part_2,go,350.0,300.0,1.0,,,,,,,,,blue,diamond
0.0,7.0,3.0,1.0,5.0,5.0,488.4663739999269,7.0,0.0,part_2,stop,350.0,300.0,3.0,,,,,,,,,orange,triangle
0.0,8.0,4.0,1.0,5.0,0.0,0.0,7.0,0.0,part_2,stop,300.0,300.0,4.0,,,,,,,,,white,square
0.0,3.0,3.0,0.0,6.0,6.0,513.3201410003494,7.0,0.0,part_2,go,350.0,300.0,1.0,,,,,,,,,gray,cross
0.0,8.0,4.0,1.0,5.0,5.0,614.434756999799,7.0,0.0,part_2,go,350.0,300.0,1.0,,,,,,,,,white,square
0.0,3.0,3.0,0.0,6.0,6.0,510.4033860002346,7.0,0.0,part_2,go,350.0,300.0,1.0,,,,,,,,,gray,cross
0.0,1.0,1.0,0.0,5.0,5.0,274.6819349999896,7.0,0.0,part_2,go,350.0,300.0,1.0,,,,,,,,,blue,diamond
0.0,3.0,3.0,0.0,6.0,6.0,389.6156450000489,7.0,0.0,part_2,go,350.0,300.0,1.0,,,,,,,,,gray,cross
0.0,3.0,3.0,0.0,6.0,6.0,484.7696189999624,7.0,0.0,part_2,go,350.0,300.0,1.0,,,,,,,,,gray,cross
0.0,8.0,4.0,1.0,6.0,0.0,0.0,7.0,0.0,part_2,stop,350.0,300.0,4.0,,,,,,,,,white,square
0.0,2.0,2.0,0.0,6.0,6.0,538.8475039999321,7.0,0.0,part_2,go,350.0,350.0,1.0,,,,,,,,,green,flipped triangle
0.0,7.0,3.0,1.0,5.0,0.0,0.0,7.0,0.0,part_2,stop,350.0,350.0,4.0,,,,,,,,,orange,triangle
0.0,5.0,1.0,1.0,5.0,5.0,398.2874170001196,7.0,0.0,part_2,go,400.0,350.0,1.0,,,,,,,,,yellow,I
0.0,7.0,3.0,1.0,6.0,6.0,416.2381280002591,7.0,0.0,part_2,stop,400.0,350.0,3.0,,,,,,,,,orange,triangle
0.0,3.0,3.0,0.0,5.0,5.0,382.4496649999673,7.0,0.0,part_2,go,400.0,300.0,1.0,,,,,,,,,gray,cross
0.0,5.0,1.0,1.0,6.0,0.0,0.0,7.0,0.0,part_2,stop,400.0,300.0,4.0,,,,,,,,,yellow,I
0.0,2.0,2.0,0.0,5.0,5.0,313.5696379999899,7.0,0.0,part_2,go,400.0,350.0,1.0,,,,,,,,,green,flipped triangle
0.0,6.0,2.0,1.0,6.0,6.0,438.9523889999509,7.0,0.0,part_2,stop,400.0,350.0,3.0,,,,,,,,,cyan,circle
0.0,3.0,3.0,0.0,6.0,6.0,599.8222650000571,7.0,0.0,part_2,go,400.0,300.0,1.0,,,,,,,,,gray,cross
0.0,7.0,3.0,1.0,5.0,5.0,340.5968349998147,7.0,0.0,part_2,stop,400.0,300.0,3.0,,,,,,,,,orange,triangle
0.0,1.0,1.0,0.0,5.0,5.0,458.1681669997124,7.0,0.0,part_2,go,350.0,300.0,1.0,,,,,,,,,blue,diamond
0.0,5.0,1.0,1.0,6.0,0.0,0.0,7.0,0.0,part_2,stop,350.0,300.0,4.0,,,,,,,,,yellow,I
0.0,2.0,2.0,0.0,6.0,6.0,545.2671279999777,7.0,0.0,part_2,go,350.0,350.0,1.0,,,,,,,,,green,flipped triangle
0.0,1.0,1.0,0.0,6.0,6.0,505.0427760002094,7.0,0.0,part_2,go,350.0,350.0,1.0,,,,,,,,,blue,diamond
0.0,3.0,3.0,0.0,5.0,5.0,644.0509030003341,7.0,0.0,part_2,go,350.0,350.0,1.0,,,,,,,,,gray,cross
0.0,2.0,2.0,0.0,6.0,6.0,413.6607839996031,8.0,0.0,part_2,go,350.0,350.0,1.0,,,,,,,,,green,flipped triangle
0.0,8.0,4.0,1.0,6.0,6.0,468.7267720000818,8.0,0.0,part_2,stop,350.0,350.0,3.0,,,,,,,,,white,square
0.0,8.0,4.0,1.0,6.0,0.0,0.0,8.0,0.0,part_2,stop,350.0,300.0,4.0,,,,,,,,,white,square
0.0,4.0,4.0,0.0,6.0,6.0,630.1910089996454,8.0,0.0,part_2,go,350.0,350.0,1.0,,,,,,,,,magenta,hexagon
0.0,3.0,3.0,0.0,5.0,5.0,336.8836700001338,8.0,0.0,part_2,go,350.0,350.0,1.0,,,,,,,,,gray,cross
0.0,1.0,1.0,0.0,6.0,6.0,261.0742890001347,8.0,0.0,part_2,go,350.0,350.0,1.0,,,,,,,,,blue,diamond
0.0,7.0,3.0,1.0,5.0,5.0,383.73647500066,8.0,0.0,part_2,stop,350.0,350.0,3.0,,,,,,,,,orange,triangle
0.0,6.0,2.0,1.0,5.0,5.0,409.3252720003875,8.0,0.0,part_2,stop,300.0,350.0,3.0,,,,,,,,,cyan,circle
0.0,2.0,2.0,0.0,6.0,6.0,363.1054179995772,8.0,0.0,part_2,go,250.0,350.0,1.0,,,,,,,,,green,flipped triangle
0.0,5.0,1.0,1.0,6.0,6.0,478.5943919996498,8.0,0.0,part_2,stop,250.0,350.0,3.0,,,,,,,,,yellow,I
0.0,6.0,2.0,1.0,6.0,6.0,555.8651350002037,8.0,0.0,part_2,go,250.0,300.0,1.0,,,,,,,,,cyan,circle
0.0,4.0,4.0,0.0,6.0,6.0,506.47729100001015,8.0,0.0,part_2,go,250.0,300.0,1.0,,,,,,,,,magenta,hexagon
0.0,3.0,3.0,0.0,5.0,5.0,455.7993090002128,8.0,0.0,part_2,go,250.0,300.0,1.0,,,,,,,,,gray,cross
0.0,5.0,1.0,1.0,5.0,0.0,0.0,8.0,0.0,part_2,stop,250.0,300.0,4.0,,,,,,,,,yellow,I
0.0,3.0,3.0,0.0,5.0,5.0,508.8544569998703,8.0,0.0,part_2,go,300.0,300.0,1.0,,,,,,,,,gray,cross
0.0,7.0,3.0,1.0,5.0,5.0,670.6605759991362,8.0,0.0,part_2,go,300.0,300.0,1.0,,,,,,,,,orange,triangle
0.0,1.0,1.0,0.0,6.0,6.0,592.0118070007447,8.0,0.0,part_2,go,300.0,300.0,1.0,,,,,,,,,blue,diamond
0.0,4.0,4.0,0.0,5.0,5.0,585.9789249998357,8.0,0.0,part_2,go,300.0,300.0,1.0,,,,,,,,,magenta,hexagon
0.0,2.0,2.0,0.0,5.0,5.0,613.8773660004517,8.0,0.0,part_2,go,300.0,300.0,1.0,,,,,,,,,green,flipped triangle
0.0,6.0,2.0,1.0,6.0,0.0,0.0,8.0,0.0,part_2,stop,300.0,300.0,4.0,,,,,,,,,cyan,circle
0.0,4.0,4.0,0.0,6.0,6.0,551.333512000383,8.0,0.0,part_2,go,300.0,350.0,1.0,,,,,,,,,magenta,hexagon
0.0,8.0,4.0,1.0,5.0,5.0,334.9496509999881,8.0,0.0,part_2,stop,300.0,350.0,3.0,,,,,,,,,white,square
0.0,5.0,1.0,1.0,6.0,0.0,0.0,8.0,0.0,part_2,stop,250.0,350.0,4.0,,,,,,,,,yellow,I
0.0,3.0,3.0,0.0,5.0,5.0,275.8473710000544,8.0,0.0,part_2,go,250.0,400.0,1.0,,,,,,,,,gray,cross
0.0,5.0,1.0,1.0,6.0,6.0,582.8852389995518,8.0,0.0,part_2,stop,250.0,400.0,3.0,,,,,,,,,yellow,I
0.0,8.0,4.0,1.0,6.0,0.0,0.0,8.0,0.0,part_2,stop,250.0,350.0,4.0,,,,,,,,,white,square
0.0,4.0,4.0,0.0,6.0,6.0,528.5890039995138,8.0,0.0,part_2,go,250.0,400.0,1.0,,,,,,,,,magenta,hexagon
0.0,8.0,4.0,1.0,5.0,5.0,328.3980360001806,8.0,0.0,part_2,stop,250.0,400.0,3.0,,,,,,,,,white,square
0.0,4.0,4.0,0.0,5.0,5.0,567.0867230001022,8.0,0.0,part_2,go,200.0,400.0,1.0,,,,,,,,,magenta,hexagon
0.0,4.0,4.0,0.0,5.0,5.0,463.3307110007081,8.0,0.0,part_2,go,200.0,400.0,1.0,,,,,,,,,magenta,hexagon
0.0,1.0,1.0,0.0,6.0,6.0,584.5792660002189,8.0,0.0,part_2,go,200.0,400.0,1.0,,,,,,,,,blue,diamond
0.0,7.0,3.0,1.0,5.0,5.0,345.3267180002513,8.0,0.0,part_2,go,200.0,400.0,1.0,,,,,,,,,orange,triangle
0.0,5.0,1.0,1.0,6.0,6.0,436.1012469998968,8.0,0.0,part_2,stop,200.0,400.0,3.0,,,,,,,,,yellow,I
0.0,6.0,2.0,1.0,6.0,6.0,600.8155549998264,8.0,0.0,part_2,go,200.0,350.0,1.0,,,,,,,,,cyan,circle
0.0,4.0,4.0,0.0,6.0,6.0,431.6726560000461,8.0,0.0,part_2,go,200.0,350.0,1.0,,,,,,,,,magenta,hexagon
0.0,6.0,2.0,1.0,5.0,0.0,0.0,8.0,0.0,part_2,stop,200.0,350.0,4.0,,,,,,,,,cyan,circle
0.0,3.0,3.0,0.0,7.0,3.0,2284.734154999569,1.0,1.0,part_3,go,0.0,0.0,0.0,117.0,3.0,195.0,156.0,117.0,78.0,39.0,234.0,gray,cross
0.0,2.0,2.0,0.0,7.0,2.0,2748.664802000349,1.0,1.0,part_3,go,0.0,0.0,0.0,162.0,3.0,270.0,162.0,324.0,216.0,54.0,108.0,green,flipped triangle
0.0,8.0,4.0,1.0,7.0,1.0,2356.138632000693,1.0,1.0,part_3,go,0.0,0.0,0.0,102.0,3.0,102.0,170.0,68.0,204.0,34.0,136.0,white,square
0.0,4.0,4.0,0.0,7.0,5.0,3528.054376,1.0,1.0,part_3,go,0.0,0.0,0.0,195.0,5.0,156.0,39.0,117.0,78.0,195.0,234.0,magenta,hexagon
0.0,4.0,4.0,0.0,7.0,2.0,2079.7733360004713,1.0,1.0,part_3,go,0.0,0.0,0.0,294.0,6.0,196.0,294.0,49.0,98.0,245.0,147.0,magenta,hexagon
0.0,7.0,3.0,1.0,7.0,4.0,1948.854375999872,1.0,1.0,part_3,go,0.0,0.0,0.0,220.0,5.0,44.0,176.0,132.0,220.0,264.0,88.0,orange,triangle
0.0,1.0,1.0,0.0,7.0,2.0,2460.884071999317,1.0,1.0,part_3,go,0.0,0.0,0.0,176.0,4.0,88.0,176.0,132.0,220.0,264.0,44.0,blue,diamond
0.0,2.0,2.0,0.0,7.0,4.0,3330.116008999539,1.0,1.0,part_3,go,0.0,0.0,0.0,170.0,5.0,102.0,204.0,34.0,170.0,68.0,136.0,green,flipped triangle
0.0,5.0,1.0,1.0,7.0,3.0,1768.9123989994189,1.0,1.0,part_3,go,0.0,0.0,0.0,170.0,5.0,102.0,136.0,170.0,68.0,204.0,34.0,yellow,I
0.0,2.0,2.0,0.0,7.0,4.0,2554.2756109998663,1.0,1.0,part_3,go,0.0,0.0,0.0,132.0,3.0,264.0,44.0,220.0,132.0,88.0,176.0,green,flipped triangle
0.0,5.0,1.0,1.0,7.0,3.0,1898.4534350001925,1.0,1.0,part_3,go,0.0,0.0,0.0,264.0,6.0,132.0,44.0,264.0,220.0,88.0,176.0,yellow,I
0.0,1.0,1.0,0.0,7.0,5.0,1820.1881099994353,1.0,1.0,part_3,go,0.0,0.0,0.0,117.0,3.0,156.0,39.0,78.0,195.0,117.0,234.0,blue,diamond
0.0,2.0,2.0,0.0,7.0,6.0,3470.4979099997217,1.0,1.0,part_3,go,0.0,0.0,0.0,162.0,3.0,270.0,216.0,324.0,108.0,54.0,162.0,green,flipped triangle
0.0,5.0,1.0,1.0,7.0,5.0,3067.479436999747,1.0,1.0,part_3,go,0.0,0.0,0.0,102.0,3.0,68.0,136.0,170.0,34.0,102.0,204.0,yellow,I
0.0,7.0,3.0,1.0,7.0,4.0,1323.8627239998095,1.0,1.0,part_3,go,0.0,0.0,0.0,102.0,3.0,204.0,170.0,34.0,102.0,68.0,136.0,orange,triangle
0.0,5.0,1.0,1.0,7.0,3.0,2768.8927219996913,1.0,1.0,part_3,go,0.0,0.0,0.0,156.0,4.0,234.0,39.0,156.0,78.0,195.0,117.0,yellow,I
0.0,8.0,4.0,1.0,7.0,6.0,1795.404082999994,1.0,1.0,part_3,go,0.0,0.0,0.0,102.0,3.0,204.0,34.0,68.0,136.0,170.0,102.0,white,square
0.0,4.0,4.0,0.0,7.0,3.0,3216.0347250000996,1.0,1.0,part_3,go,0.0,0.0,0.0,156.0,4.0,78.0,39.0,156.0,234.0,117.0,195.0,magenta,hexagon
0.0,7.0,3.0,1.0,7.0,4.0,2701.6774720004832,1.0,1.0,part_3,go,0.0,0.0,0.0,156.0,4.0,117.0,78.0,234.0,156.0,39.0,195.0,orange,triangle
0.0,8.0,4.0,1.0,7.0,3.0,1434.1368850000435,1.0,1.0,part_3,go,0.0,0.0,0.0,117.0,3.0,234.0,195.0,117.0,39.0,156.0,78.0,white,square
0.0,1.0,1.0,0.0,7.0,2.0,1750.9585400002834,2.0,1.0,part_3,go,0.0,0.0,0.0,195.0,5.0,39.0,195.0,78.0,234.0,117.0,156.0,blue,diamond
0.0,6.0,2.0,1.0,7.0,3.0,3421.0905079999065,2.0,1.0,part_3,go,0.0,0.0,0.0,216.0,4.0,108.0,162.0,216.0,54.0,270.0,324.0,cyan,circle
0.0,5.0,1.0,1.0,7.0,1.0,2935.4557509996084,2.0,1.0,part_3,go,0.0,0.0,0.0,147.0,3.0,147.0,294.0,196.0,49.0,245.0,98.0,yellow,I
0.0,5.0,1.0,1.0,7.0,4.0,1915.8813450003436,2.0,1.0,part_3,go,0.0,0.0,0.0,324.0,6.0,216.0,108.0,54.0,324.0,270.0,162.0,yellow,I
0.0,6.0,2.0,1.0,7.0,4.0,1550.5350550001822,2.0,1.0,part_3,go,0.0,0.0,0.0,196.0,4.0,98.0,147.0,294.0,196.0,49.0,245.0,cyan,circle
0.0,4.0,4.0,0.0,7.0,4.0,1951.9128860001729,2.0,1.0,part_3,go,0.0,0.0,0.0,136.0,4.0,170.0,34.0,68.0,136.0,204.0,102.0,magenta,hexagon
0.0,1.0,1.0,0.0,7.0,6.0,1838.6580480000705,2.0,1.0,part_3,go,0.0,0.0,0.0,196.0,4.0,98.0,49.0,245.0,147.0,294.0,196.0,blue,diamond
0.0,8.0,4.0,1.0,7.0,5.0,2203.504998000426,2.0,1.0,part_3,go,0.0,0.0,0.0,196.0,4.0,49.0,147.0,294.0,245.0,196.0,98.0,white,square
0.0,7.0,3.0,1.0,7.0,3.0,1772.2262819997925,2.0,1.0,part_3,go,0.0,0.0,0.0,147.0,3.0,49.0,245.0,147.0,196.0,294.0,98.0,orange,triangle
0.0,5.0,1.0,1.0,7.0,1.0,2005.5571900002178,2.0,1.0,part_3,go,0.0,0.0,0.0,264.0,6.0,264.0,44.0,220.0,132.0,88.0,176.0,yellow,I
0.0,2.0,2.0,0.0,7.0,5.0,1280.1316989998668,2.0,1.0,part_3,go,0.0,0.0,0.0,156.0,4.0,234.0,117.0,39.0,78.0,156.0,195.0,green,flipped triangle
0.0,6.0,2.0,1.0,7.0,2.0,2065.5362620000233,2.0,1.0,part_3,go,0.0,0.0,0.0,216.0,4.0,54.0,216.0,324.0,108.0,162.0,270.0,cyan,circle
0.0,8.0,4.0,1.0,7.0,5.0,2016.929720999542,2.0,1.0,part_3,go,0.0,0.0,0.0,117.0,3.0,39.0,195.0,78.0,156.0,117.0,234.0,white,square
0.0,6.0,2.0,1.0,7.0,4.0,2380.0563670001793,2.0,1.0,part_3,go,0.0,0.0,0.0,147.0,3.0,196.0,49.0,98.0,147.0,294.0,245.0,cyan,circle
0.0,1.0,1.0,0.0,7.0,2.0,1338.326653999502,2.0,1.0,part_3,go,0.0,0.0,0.0,204.0,6.0,68.0,204.0,102.0,136.0,34.0,170.0,blue,diamond
0.0,3.0,3.0,0.0,7.0,6.0,1003.6788150000575,2.0,1.0,part_3,go,0.0,0.0,0.0,147.0,3.0,294.0,245.0,49.0,196.0,98.0,147.0,gray,cross
0.0,4.0,4.0,0.0,7.0,3.0,1130.1357499996811,2.0,1.0,part_3,go,0.0,0.0,0.0,162.0,3.0,216.0,270.0,162.0,54.0,108.0,324.0,magenta,hexagon
0.0,2.0,2.0,0.0,7.0,4.0,1251.6027700003178,2.0,1.0,part_3,go,0.0,0.0,0.0,195.0,5.0,78.0,234.0,39.0,195.0,156.0,117.0,green,flipped triangle
0.0,3.0,3.0,0.0,7.0,6.0,1921.6729210002088,2.0,1.0,part_3,go,0.0,0.0,0.0,108.0,2.0,162.0,54.0,324.0,270.0,216.0,108.0,gray,cross
0.0,7.0,3.0,1.0,7.0,4.0,1622.980164999717,2.0,1.0,part_3,go,0.0,0.0,0.0,170.0,5.0,102.0,136.0,204.0,170.0,68.0,34.0,orange,triangle
0.0,7.0,3.0,1.0,7.0,3.0,925.0722330007192,3.0,1.0,part_3,go,0.0,0.0,0.0,195.0,5.0,78.0,117.0,195.0,156.0,39.0,234.0,orange,triangle
0.0,1.0,1.0,0.0,7.0,4.0,1242.4728930000128,3.0,1.0,part_3,go,0.0,0.0,0.0,136.0,4.0,204.0,170.0,102.0,136.0,34.0,68.0,blue,diamond
0.0,4.0,4.0,0.0,7.0,4.0,2261.8168939998213,3.0,1.0,part_3,go,0.0,0.0,0.0,220.0,5.0,176.0,44.0,132.0,220.0,264.0,88.0,magenta,hexagon
0.0,8.0,4.0,1.0,7.0,6.0,1340.4453309995006,3.0,1.0,part_3,go,0.0,0.0,0.0,176.0,4.0,88.0,132.0,220.0,264.0,44.0,176.0,white,square
0.0,8.0,4.0,1.0,7.0,1.0,1861.048994000157,3.0,1.0,part_3,go,0.0,0.0,0.0,216.0,4.0,216.0,270.0,162.0,54.0,108.0,324.0,white,square
0.0,3.0,3.0,0.0,7.0,5.0,1931.955375999678,3.0,1.0,part_3,go,0.0,0.0,0.0,195.0,5.0,117.0,78.0,234.0,156.0,195.0,39.0,gray,cross
0.0,1.0,1.0,0.0,7.0,3.0,1983.71066800064,3.0,1.0,part_3,go,0.0,0.0,0.0,216.0,4.0,54.0,108.0,216.0,162.0,324.0,270.0,blue,diamond
0.0,7.0,3.0,1.0,7.0,6.0,1222.7012530001955,3.0,1.0,part_3,go,0.0,0.0,0.0,98.0,2.0,294.0,196.0,147.0,49.0,245.0,98.0,orange,triangle
0.0,2.0,2.0,0.0,7.0,1.0,4529.385286999968,3.0,1.0,part_3,go,0.0,0.0,0.0,245.0,5.0,245.0,49.0,98.0,294.0,147.0,196.0,green,flipped triangle
0.0,3.0,3.0,0.0,7.0,5.0,2391.9773130000976,3.0,1.0,part_3,go,0.0,0.0,0.0,170.0,5.0,102.0,34.0,204.0,136.0,170.0,68.0,gray,cross
0.0,2.0,2.0,0.0,7.0,2.0,1757.130512999538,3.0,1.0,part_3,go,0.0,0.0,0.0,196.0,4.0,245.0,196.0,294.0,98.0,49.0,147.0,green,flipped triangle
0.0,1.0,1.0,0.0,7.0,6.0,1327.4094409998725,3.0,1.0,part_3,go,0.0,0.0,0.0,98.0,2.0,245.0,147.0,49.0,294.0,196.0,98.0,blue,diamond
0.0,3.0,3.0,0.0,7.0,4.0,1254.7366079998028,3.0,1.0,part_3,go,0.0,0.0,0.0,136.0,4.0,170.0,102.0,34.0,136.0,68.0,204.0,gray,cross
0.0,6.0,2.0,1.0,7.0,6.0,1220.397932999731,3.0,1.0,part_3,go,0.0,0.0,0.0,117.0,3.0,78.0,195.0,39.0,156.0,234.0,117.0,cyan,circle
0.0,6.0,2.0,1.0,7.0,1.0,1593.8040769997317,3.0,1.0,part_3,go,0.0,0.0,0.0,117.0,3.0,117.0,39.0,78.0,156.0,195.0,234.0,cyan,circle
0.0,5.0,1.0,1.0,7.0,2.0,3188.8601290002043,3.0,1.0,part_3,go,0.0,0.0,0.0,108.0,2.0,324.0,108.0,162.0,216.0,270.0,54.0,yellow,I
0.0,8.0,4.0,1.0,7.0,4.0,2122.13245500061,3.0,1.0,part_3,go,0.0,0.0,0.0,132.0,3.0,220.0,176.0,264.0,132.0,44.0,88.0,white,square
0.0,4.0,4.0,0.0,7.0,2.0,2098.4988029995293,3.0,1.0,part_3,go,0.0,0.0,0.0,196.0,4.0,245.0,196.0,98.0,147.0,49.0,294.0,magenta,hexagon
0.0,2.0,2.0,0.0,7.0,3.0,2807.7409560000888,3.0,1.0,part_3,go,0.0,0.0,0.0,176.0,4.0,88.0,44.0,176.0,220.0,264.0,132.0,green,flipped triangle
0.0,6.0,2.0,1.0,7.0,6.0,1881.888310999784,3.0,1.0,part_3,go,0.0,0.0,0.0,136.0,4.0,204.0,34.0,102.0,68.0,170.0,136.0,cyan,circle
0.0,7.0,3.0,1.0,7.0,2.0,2315.288308000163,4.0,1.0,part_3,go,0.0,0.0,0.0,162.0,3.0,216.0,162.0,324.0,54.0,270.0,108.0,orange,triangle
0.0,8.0,4.0,1.0,7.0,5.0,2424.899151000318,4.0,1.0,part_3,go,0.0,0.0,0.0,162.0,3.0,54.0,108.0,324.0,270.0,162.0,216.0,white,square
0.0,1.0,1.0,0.0,7.0,1.0,1955.398466000588,4.0,1.0,part_3,go,0.0,0.0,0.0,176.0,4.0,176.0,132.0,44.0,88.0,220.0,264.0,blue,diamond
0.0,1.0,1.0,0.0,7.0,6.0,2456.832346999363,4.0,1.0,part_3,go,0.0,0.0,0.0,216.0,4.0,108.0,162.0,270.0,54.0,324.0,216.0,blue,diamond
0.0,5.0,1.0,1.0,7.0,1.0,2476.520487000016,4.0,1.0,part_3,go,0.0,0.0,0.0,156.0,4.0,156.0,39.0,78.0,195.0,117.0,234.0,yellow,I
0.0,5.0,1.0,1.0,7.0,2.0,1925.897907000035,4.0,1.0,part_3,go,0.0,0.0,0.0,245.0,5.0,196.0,245.0,49.0,147.0,294.0,98.0,yellow,I
0.0,6.0,2.0,1.0,7.0,4.0,1756.7855890001738,4.0,1.0,part_3,go,0.0,0.0,0.0,204.0,6.0,136.0,34.0,170.0,204.0,102.0,68.0,cyan,circle
0.0,2.0,2.0,0.0,7.0,1.0,1460.8185679999224,4.0,1.0,part_3,go,0.0,0.0,0.0,170.0,5.0,170.0,68.0,204.0,136.0,34.0,102.0,green,flipped triangle
0.0,4.0,4.0,0.0,7.0,6.0,1860.3138660000695,4.0,1.0,part_3,go,0.0,0.0,0.0,170.0,5.0,68.0,136.0,34.0,204.0,102.0,170.0,magenta,hexagon
0.0,3.0,3.0,0.0,7.0,4.0,2213.4607950001737,4.0,1.0,part_3,go,0.0,0.0,0.0,196.0,4.0,49.0,98.0,147.0,196.0,245.0,294.0,gray,cross
0.0,6.0,2.0,1.0,7.0,1.0,1767.8969569997207,4.0,1.0,part_3,go,0.0,0.0,0.0,176.0,4.0,176.0,132.0,44.0,264.0,88.0,220.0,cyan,circle
0.0,7.0,3.0,1.0,7.0,3.0,2360.9719109999787,4.0,1.0,part_3,go,0.0,0.0,0.0,216.0,4.0,108.0,162.0,216.0,324.0,270.0,54.0,orange,triangle
0.0,4.0,4.0,0.0,7.0,5.0,1520.2044009993188,4.0,1.0,part_3,go,0.0,0.0,0.0,270.0,5.0,108.0,54.0,216.0,324.0,270.0,162.0,magenta,hexagon
0.0,7.0,3.0,1.0,7.0,1.0,2513.1788770004277,4.0,1.0,part_3,go,0.0,0.0,0.0,220.0,5.0,220.0,176.0,88.0,264.0,44.0,132.0,orange,triangle
0.0,8.0,4.0,1.0,7.0,3.0,2127.895184999943,4.0,1.0,part_3,go,0.0,0.0,0.0,294.0,6.0,196.0,49.0,294.0,147.0,98.0,245.0,white,square
0.0,3.0,3.0,0.0,7.0,2.0,2759.0892480002367,4.0,1.0,part_3,go,0.0,0.0,0.0,176.0,4.0,132.0,176.0,88.0,44.0,264.0,220.0,gray,cross
0.0,3.0,3.0,0.0,7.0,4.0,3032.471739000357,4.0,1.0,part_3,go,0.0,0.0,0.0,132.0,3.0,220.0,44.0,264.0,132.0,176.0,88.0,gray,cross
0.0,6.0,2.0,1.0,7.0,6.0,4421.718556000087,4.0,1.0,part_3,go,0.0,0.0,0.0,264.0,6.0,176.0,220.0,132.0,44.0,88.0,264.0,cyan,circle
0.0,3.0,3.0,0.0,7.0,2.0,2976.47657699963,4.0,1.0,part_3,go,0.0,0.0,0.0,54.0,1.0,270.0,54.0,162.0,216.0,324.0,108.0,gray,cross
0.0,4.0,4.0,0.0,7.0,2.0,625.38101500013,4.0,1.0,part_3,go,0.0,0.0,0.0,132.0,3.0,44.0,132.0,88.0,220.0,176.0,264.0,magenta,hexagon
