raw_reward_magnitude,stim_reward,stepwise_reward_magnitude,paired_with_stopping,quadrant,response,reaction_time,block,num_trial_presentations,which_part,stop_signal_trial_type,left_SSD,right_SSD,accuracy,chosen_bidding_amount,chosen_bidding_level,possible_bid_1,possible_bid_2,possible_bid_3,possible_bid_4,possible_bid_5,possible_bid_6,color_text,shape_text
0.0,4.0,0.0,0.0,3.0,3.0,458.6416250000411,1.0,1.0,part_1,,,,,,,,,,,,,blue,square
183.0,7.0,3.0,1.0,3.0,3.0,397.7176540000755,1.0,1.0,part_1,,,,,,,,,,,,,cyan,circle
36.0,1.0,1.0,0.0,1.0,1.0,381.3235759999998,1.0,1.0,part_1,,,,,,,,,,,,,magenta,flipped triangle
125.0,2.0,2.0,0.0,2.0,2.0,313.3388300000206,1.0,1.0,part_1,,,,,,,,,,,,,green,I
89.0,2.0,2.0,0.0,4.0,4.0,324.3847690000621,1.0,1.0,part_1,,,,,,,,,,,,,green,I
118.0,2.0,2.0,0.0,1.0,1.0,291.4645380000138,1.0,1.0,part_1,,,,,,,,,,,,,green,I
106.0,6.0,2.0,1.0,2.0,2.0,307.3453599999993,1.0,1.0,part_1,,,,,,,,,,,,,white,cross
45.0,1.0,1.0,0.0,4.0,4.0,278.8047589999678,1.0,1.0,part_1,,,,,,,,,,,,,magenta,flipped triangle
414.0,8.0,4.0,1.0,3.0,3.0,335.3183990000161,1.0,1.0,part_1,,,,,,,,,,,,,gray,diamond
45.0,5.0,1.0,1.0,1.0,1.0,247.83202399999018,1.0,1.0,part_1,,,,,,,,,,,,,orange,hexagon
382.0,4.0,4.0,0.0,2.0,2.0,284.8076039999796,1.0,1.0,part_1,,,,,,,,,,,,,blue,square
66.0,1.0,1.0,0.0,1.0,1.0,281.9282659997952,1.0,1.0,part_1,,,,,,,,,,,,,magenta,flipped triangle
89.0,6.0,2.0,1.0,1.0,1.0,347.9303060000802,1.0,1.0,part_1,,,,,,,,,,,,,white,cross
206.0,7.0,3.0,1.0,1.0,1.0,287.7609919999031,1.0,1.0,part_1,,,,,,,,,,,,,cyan,circle
28.0,5.0,1.0,1.0,4.0,4.0,263.6554789999081,1.0,1.0,part_1,,,,,,,,,,,,,orange,hexagon
222.0,3.0,3.0,0.0,1.0,1.0,247.0414150000124,1.0,1.0,part_1,,,,,,,,,,,,,yellow,triangle
31.0,1.0,1.0,0.0,3.0,3.0,328.6954109998987,1.0,1.0,part_1,,,,,,,,,,,,,magenta,flipped triangle
38.0,5.0,1.0,1.0,3.0,3.0,312.0367229998919,1.0,1.0,part_1,,,,,,,,,,,,,orange,hexagon
25.0,1.0,1.0,0.0,4.0,4.0,362.5403399998959,1.0,1.0,part_1,,,,,,,,,,,,,magenta,flipped triangle
195.0,7.0,3.0,1.0,2.0,2.0,319.8573920001308,1.0,1.0,part_1,,,,,,,,,,,,,cyan,circle
0.0,4.0,0.0,0.0,1.0,1.0,281.7955279999751,1.0,1.0,part_1,,,,,,,,,,,,,blue,square
62.0,1.0,1.0,0.0,2.0,2.0,297.3887879998074,1.0,1.0,part_1,,,,,,,,,,,,,magenta,flipped triangle
383.0,8.0,4.0,1.0,4.0,4.0,312.4693550000756,1.0,1.0,part_1,,,,,,,,,,,,,gray,diamond
99.0,2.0,2.0,0.0,4.0,4.0,322.8287490001094,1.0,1.0,part_1,,,,,,,,,,,,,green,I
89.0,6.0,2.0,1.0,4.0,4.0,334.0511060000608,1.0,1.0,part_1,,,,,,,,,,,,,white,cross
45.0,1.0,1.0,0.0,3.0,3.0,301.2451649999548,1.0,1.0,part_1,,,,,,,,,,,,,magenta,flipped triangle
223.0,3.0,3.0,0.0,2.0,2.0,356.3882240000566,1.0,1.0,part_1,,,,,,,,,,,,,yellow,triangle
0.0,1.0,0.0,0.0,3.0,3.0,298.3625079998546,1.0,1.0,part_1,,,,,,,,,,,,,magenta,flipped triangle
204.0,3.0,3.0,0.0,2.0,2.0,304.0843040000709,1.0,1.0,part_1,,,,,,,,,,,,,yellow,triangle
211.0,7.0,3.0,1.0,2.0,2.0,294.4527720001133,1.0,1.0,part_1,,,,,,,,,,,,,cyan,circle
38.0,5.0,1.0,1.0,3.0,3.0,306.065277000016,1.0,1.0,part_1,,,,,,,,,,,,,orange,hexagon
0.0,4.0,0.0,0.0,4.0,4.0,250.45590699983222,1.0,1.0,part_1,,,,,,,,,,,,,blue,square
80.0,6.0,2.0,1.0,3.0,3.0,355.5838319998656,1.0,1.0,part_1,,,,,,,,,,,,,white,cross
198.0,3.0,3.0,0.0,4.0,4.0,321.8843209999704,1.0,1.0,part_1,,,,,,,,,,,,,yellow,triangle
197.0,3.0,3.0,0.0,1.0,1.0,248.8153429999329,1.0,1.0,part_1,,,,,,,,,,,,,yellow,triangle
36.0,5.0,1.0,1.0,1.0,1.0,272.8957980000359,1.0,1.0,part_1,,,,,,,,,,,,,orange,hexagon
71.0,1.0,1.0,0.0,3.0,3.0,259.9497260000589,1.0,1.0,part_1,,,,,,,,,,,,,magenta,flipped triangle
0.0,7.0,0.0,1.0,3.0,3.0,297.1521800000118,1.0,1.0,part_1,,,,,,,,,,,,,cyan,circle
0.0,4.0,0.0,0.0,3.0,3.0,290.7608549999168,1.0,1.0,part_1,,,,,,,,,,,,,blue,square
0.0,8.0,0.0,1.0,1.0,1.0,330.0043479998749,1.0,1.0,part_1,,,,,,,,,,,,,gray,diamond
124.0,6.0,2.0,1.0,4.0,4.0,304.3840169998475,1.0,1.0,part_1,,,,,,,,,,,,,white,cross
85.0,2.0,2.0,0.0,3.0,3.0,376.6931160000695,1.0,1.0,part_1,,,,,,,,,,,,,green,I
80.0,6.0,2.0,1.0,2.0,2.0,279.9111999997876,1.0,1.0,part_1,,,,,,,,,,,,,white,cross
0.0,2.0,0.0,0.0,1.0,1.0,279.5649790000425,1.0,1.0,part_1,,,,,,,,,,,,,green,I
206.0,3.0,3.0,0.0,3.0,3.0,323.9869730000464,1.0,1.0,part_1,,,,,,,,,,,,,yellow,triangle
28.0,1.0,1.0,0.0,4.0,4.0,330.1173600000311,1.0,1.0,part_1,,,,,,,,,,,,,magenta,flipped triangle
0.0,3.0,0.0,0.0,2.0,2.0,308.1675819998963,1.0,1.0,part_1,,,,,,,,,,,,,yellow,triangle
52.0,5.0,1.0,1.0,3.0,3.0,345.721426999944,1.0,1.0,part_1,,,,,,,,,,,,,orange,hexagon
79.0,2.0,2.0,0.0,4.0,4.0,368.9012770000772,1.0,1.0,part_1,,,,,,,,,,,,,green,I
197.0,7.0,3.0,1.0,4.0,4.0,338.7698180001735,1.0,1.0,part_1,,,,,,,,,,,,,cyan,circle
112.0,6.0,2.0,1.0,2.0,2.0,313.1560399999671,1.0,1.0,part_1,,,,,,,,,,,,,white,cross
112.0,2.0,2.0,0.0,3.0,3.0,297.5234579998869,1.0,1.0,part_1,,,,,,,,,,,,,green,I
414.0,4.0,4.0,0.0,4.0,4.0,306.7865059999803,1.0,1.0,part_1,,,,,,,,,,,,,blue,square
380.0,8.0,4.0,1.0,3.0,3.0,320.5369190000056,1.0,1.0,part_1,,,,,,,,,,,,,gray,diamond
198.0,3.0,3.0,0.0,3.0,3.0,308.1782700000985,1.0,1.0,part_1,,,,,,,,,,,,,yellow,triangle
416.0,4.0,4.0,0.0,1.0,1.0,381.1094839998077,1.0,1.0,part_1,,,,,,,,,,,,,blue,square
424.0,4.0,4.0,0.0,4.0,4.0,297.7463100000932,1.0,1.0,part_1,,,,,,,,,,,,,blue,square
407.0,8.0,4.0,1.0,3.0,3.0,304.6537820000594,1.0,1.0,part_1,,,,,,,,,,,,,gray,diamond
88.0,6.0,2.0,1.0,1.0,1.0,354.3564470001001,1.0,1.0,part_1,,,,,,,,,,,,,white,cross
88.0,2.0,2.0,0.0,3.0,3.0,282.8179099999488,1.0,1.0,part_1,,,,,,,,,,,,,green,I
0.0,6.0,0.0,1.0,4.0,4.0,397.2703639999508,1.0,1.0,part_1,,,,,,,,,,,,,white,cross
118.0,2.0,2.0,0.0,3.0,3.0,278.6128069999449,1.0,1.0,part_1,,,,,,,,,,,,,green,I
405.0,4.0,4.0,0.0,3.0,3.0,277.5115800000094,1.0,1.0,part_1,,,,,,,,,,,,,blue,square
56.0,5.0,1.0,1.0,1.0,1.0,268.8133149999885,1.0,1.0,part_1,,,,,,,,,,,,,orange,hexagon
91.0,6.0,2.0,1.0,1.0,1.0,255.3793519998635,1.0,1.0,part_1,,,,,,,,,,,,,white,cross
400.0,4.0,4.0,0.0,2.0,2.0,263.370784000017,1.0,1.0,part_1,,,,,,,,,,,,,blue,square
0.0,6.0,0.0,1.0,3.0,3.0,363.2441039999321,1.0,1.0,part_1,,,,,,,,,,,,,white,cross
124.0,2.0,2.0,0.0,1.0,1.0,288.7511820001691,1.0,1.0,part_1,,,,,,,,,,,,,green,I
106.0,6.0,2.0,1.0,2.0,2.0,329.9756680000882,1.0,1.0,part_1,,,,,,,,,,,,,white,cross
0.0,8.0,0.0,1.0,1.0,1.0,350.4750540000714,1.0,1.0,part_1,,,,,,,,,,,,,gray,diamond
205.0,7.0,3.0,1.0,3.0,3.0,327.7083089999451,1.0,1.0,part_1,,,,,,,,,,,,,cyan,circle
113.0,6.0,2.0,1.0,4.0,4.0,210.311430000047,1.0,1.0,part_1,,,,,,,,,,,,,white,cross
194.0,3.0,3.0,0.0,2.0,2.0,284.3212750001385,1.0,1.0,part_1,,,,,,,,,,,,,yellow,triangle
409.0,8.0,4.0,1.0,4.0,4.0,255.03430499998098,1.0,1.0,part_1,,,,,,,,,,,,,gray,diamond
56.0,5.0,1.0,1.0,3.0,3.0,240.1470560000689,1.0,1.0,part_1,,,,,,,,,,,,,orange,hexagon
384.0,4.0,4.0,0.0,3.0,3.0,266.4511230000244,1.0,1.0,part_1,,,,,,,,,,,,,blue,square
90.0,2.0,2.0,0.0,1.0,1.0,278.4523230000104,1.0,1.0,part_1,,,,,,,,,,,,,green,I
399.0,8.0,4.0,1.0,3.0,3.0,330.6338879999657,1.0,1.0,part_1,,,,,,,,,,,,,gray,diamond
80.0,2.0,2.0,0.0,2.0,2.0,336.409316000072,1.0,1.0,part_1,,,,,,,,,,,,,green,I
178.0,3.0,3.0,0.0,3.0,3.0,290.1477089999389,1.0,1.0,part_1,,,,,,,,,,,,,yellow,triangle
182.0,3.0,3.0,0.0,4.0,4.0,290.9782159999849,1.0,1.0,part_1,,,,,,,,,,,,,yellow,triangle
382.0,8.0,4.0,1.0,4.0,4.0,311.7188409999016,1.0,1.0,part_1,,,,,,,,,,,,,gray,diamond
118.0,2.0,2.0,0.0,2.0,2.0,281.8029990000923,1.0,1.0,part_1,,,,,,,,,,,,,green,I
404.0,4.0,4.0,0.0,2.0,2.0,334.6374389998345,1.0,1.0,part_1,,,,,,,,,,,,,blue,square
37.0,5.0,1.0,1.0,4.0,4.0,327.9745209999873,1.0,1.0,part_1,,,,,,,,,,,,,orange,hexagon
394.0,4.0,4.0,0.0,4.0,4.0,323.6596120000286,1.0,1.0,part_1,,,,,,,,,,,,,blue,square
419.0,8.0,4.0,1.0,2.0,2.0,306.5969209999366,1.0,1.0,part_1,,,,,,,,,,,,,gray,diamond
53.0,5.0,1.0,1.0,1.0,1.0,298.2683730001554,1.0,1.0,part_1,,,,,,,,,,,,,orange,hexagon
385.0,8.0,4.0,1.0,2.0,2.0,251.8365559999438,1.0,1.0,part_1,,,,,,,,,,,,,gray,diamond
423.0,8.0,4.0,1.0,3.0,3.0,350.5496149998635,1.0,1.0,part_1,,,,,,,,,,,,,gray,diamond
30.0,5.0,1.0,1.0,2.0,2.0,307.8515280001284,1.0,1.0,part_1,,,,,,,,,,,,,orange,hexagon
62.0,5.0,1.0,1.0,2.0,2.0,299.6670210000047,1.0,1.0,part_1,,,,,,,,,,,,,orange,hexagon
404.0,8.0,4.0,1.0,4.0,4.0,277.8637589999562,1.0,1.0,part_1,,,,,,,,,,,,,gray,diamond
75.0,2.0,2.0,0.0,3.0,3.0,254.8232690000986,1.0,1.0,part_1,,,,,,,,,,,,,green,I
38.0,1.0,1.0,0.0,1.0,1.0,258.3865200001582,1.0,1.0,part_1,,,,,,,,,,,,,magenta,flipped triangle
222.0,7.0,3.0,1.0,3.0,3.0,233.7230900000122,1.0,1.0,part_1,,,,,,,,,,,,,cyan,circle
0.0,2.0,0.0,0.0,2.0,2.0,275.9470890000557,1.0,1.0,part_1,,,,,,,,,,,,,green,I
74.0,5.0,1.0,1.0,2.0,2.0,320.9369699998206,1.0,1.0,part_1,,,,,,,,,,,,,orange,hexagon
399.0,4.0,4.0,0.0,2.0,2.0,274.8296069999014,1.0,1.0,part_1,,,,,,,,,,,,,blue,square
116.0,2.0,2.0,0.0,2.0,2.0,271.2060809999457,1.0,1.0,part_1,,,,,,,,,,,,,green,I
205.0,3.0,3.0,0.0,1.0,1.0,252.99007099988557,2.0,1.0,part_1,,,,,,,,,,,,,yellow,triangle
66.0,5.0,1.0,1.0,3.0,3.0,271.3536700000531,2.0,1.0,part_1,,,,,,,,,,,,,orange,hexagon
0.0,1.0,0.0,0.0,4.0,4.0,266.129994999801,2.0,1.0,part_1,,,,,,,,,,,,,magenta,flipped triangle
30.0,1.0,1.0,0.0,3.0,3.0,266.6317109999454,2.0,1.0,part_1,,,,,,,,,,,,,magenta,flipped triangle
0.0,1.0,0.0,0.0,1.0,1.0,246.6770900000483,2.0,1.0,part_1,,,,,,,,,,,,,magenta,flipped triangle
222.0,7.0,3.0,1.0,1.0,1.0,298.7044389999482,2.0,1.0,part_1,,,,,,,,,,,,,cyan,circle
389.0,4.0,4.0,0.0,2.0,2.0,296.2848919999032,2.0,1.0,part_1,,,,,,,,,,,,,blue,square
422.0,4.0,4.0,0.0,1.0,1.0,232.7118839998547,2.0,1.0,part_1,,,,,,,,,,,,,blue,square
75.0,6.0,2.0,1.0,4.0,4.0,319.9963529998513,2.0,1.0,part_1,,,,,,,,,,,,,white,cross
400.0,8.0,4.0,1.0,1.0,1.0,303.7314680000236,2.0,2.0,part_1,,,,,,,,,,,,,gray,diamond
59.0,5.0,1.0,1.0,4.0,4.0,307.9103869999926,2.0,1.0,part_1,,,,,,,,,,,,,orange,hexagon
0.0,6.0,0.0,1.0,3.0,3.0,331.3351879999118,2.0,1.0,part_1,,,,,,,,,,,,,white,cross
178.0,3.0,3.0,0.0,1.0,1.0,316.0156270000698,2.0,1.0,part_1,,,,,,,,,,,,,yellow,triangle
109.0,6.0,2.0,1.0,4.0,4.0,339.0106979998109,2.0,1.0,part_1,,,,,,,,,,,,,white,cross
70.0,5.0,1.0,1.0,3.0,3.0,325.7628390001628,2.0,1.0,part_1,,,,,,,,,,,,,orange,hexagon
0.0,7.0,0.0,1.0,1.0,1.0,322.1712689999094,2.0,1.0,part_1,,,,,,,,,,,,,cyan,circle
0.0,7.0,0.0,1.0,3.0,3.0,361.9159090001176,2.0,1.0,part_1,,,,,,,,,,,,,cyan,circle
175.0,3.0,3.0,0.0,4.0,4.0,361.7839589999221,2.0,1.0,part_1,,,,,,,,,,,,,yellow,triangle
0.0,6.0,0.0,1.0,1.0,1.0,355.5336179999813,2.0,1.0,part_1,,,,,,,,,,,,,white,cross
72.0,5.0,1.0,1.0,1.0,1.0,341.5470370000548,2.0,1.0,part_1,,,,,,,,,,,,,orange,hexagon
37.0,1.0,1.0,0.0,3.0,3.0,305.7888480000201,2.0,1.0,part_1,,,,,,,,,,,,,magenta,flipped triangle
407.0,4.0,4.0,0.0,1.0,1.0,311.2862499999664,2.0,1.0,part_1,,,,,,,,,,,,,blue,square
99.0,2.0,2.0,0.0,4.0,4.0,336.4467750000131,2.0,1.0,part_1,,,,,,,,,,,,,green,I
56.0,1.0,1.0,0.0,1.0,1.0,341.5830449998793,2.0,1.0,part_1,,,,,,,,,,,,,magenta,flipped triangle
0.0,1.0,0.0,0.0,1.0,1.0,379.2178159999366,2.0,1.0,part_1,,,,,,,,,,,,,magenta,flipped triangle
49.0,1.0,1.0,0.0,2.0,2.0,348.1610050000654,2.0,1.0,part_1,,,,,,,,,,,,,magenta,flipped triangle
68.0,1.0,1.0,0.0,3.0,3.0,308.7676670002111,2.0,1.0,part_1,,,,,,,,,,,,,magenta,flipped triangle
187.0,7.0,3.0,1.0,4.0,4.0,307.1123380000244,2.0,1.0,part_1,,,,,,,,,,,,,cyan,circle
79.0,6.0,2.0,1.0,3.0,3.0,328.2006809999984,2.0,1.0,part_1,,,,,,,,,,,,,white,cross
412.0,8.0,4.0,1.0,1.0,1.0,293.2508230001076,2.0,1.0,part_1,,,,,,,,,,,,,gray,diamond
38.0,1.0,1.0,0.0,4.0,4.0,305.6827020000128,2.0,1.0,part_1,,,,,,,,,,,,,magenta,flipped triangle
121.0,2.0,2.0,0.0,2.0,2.0,339.3360620000294,2.0,1.0,part_1,,,,,,,,,,,,,green,I
0.0,5.0,0.0,1.0,2.0,2.0,356.8360929998562,2.0,1.0,part_1,,,,,,,,,,,,,orange,hexagon
88.0,6.0,2.0,1.0,1.0,1.0,307.7259990000129,2.0,1.0,part_1,,,,,,,,,,,,,white,cross
45.0,1.0,1.0,0.0,4.0,4.0,343.3893639999041,2.0,1.0,part_1,,,,,,,,,,,,,magenta,flipped triangle
46.0,5.0,1.0,1.0,4.0,4.0,327.1961739999369,2.0,1.0,part_1,,,,,,,,,,,,,orange,hexagon
0.0,3.0,0.0,0.0,3.0,3.0,274.7204559998408,2.0,1.0,part_1,,,,,,,,,,,,,yellow,triangle
399.0,4.0,4.0,0.0,2.0,2.0,215.831239000181,2.0,1.0,part_1,,,,,,,,,,,,,blue,square
380.0,8.0,4.0,1.0,2.0,2.0,331.4569520000532,2.0,1.0,part_1,,,,,,,,,,,,,gray,diamond
0.0,1.0,0.0,0.0,4.0,4.0,290.4862899999898,2.0,1.0,part_1,,,,,,,,,,,,,magenta,flipped triangle
196.0,7.0,3.0,1.0,4.0,4.0,244.426814999997,2.0,1.0,part_1,,,,,,,,,,,,,cyan,circle
0.0,8.0,0.0,1.0,2.0,2.0,250.5939950001448,2.0,1.0,part_1,,,,,,,,,,,,,gray,diamond
46.0,1.0,1.0,0.0,4.0,4.0,328.4747479999623,2.0,1.0,part_1,,,,,,,,,,,,,magenta,flipped triangle
0.0,1.0,0.0,0.0,3.0,3.0,305.0638499998968,2.0,1.0,part_1,,,,,,,,,,,,,magenta,flipped triangle
82.0,6.0,2.0,1.0,1.0,1.0,290.5132830001093,2.0,1.0,part_1,,,,,,,,,,,,,white,cross
384.0,8.0,4.0,1.0,4.0,4.0,302.1744750001289,2.0,1.0,part_1,,,,,,,,,,,,,gray,diamond
0.0,6.0,0.0,1.0,1.0,1.0,306.334753000101,2.0,1.0,part_1,,,,,,,,,,,,,white,cross
0.0,7.0,0.0,1.0,1.0,1.0,290.8290210000359,2.0,1.0,part_1,,,,,,,,,,,,,cyan,circle
377.0,8.0,4.0,1.0,3.0,3.0,303.2629720000841,2.0,1.0,part_1,,,,,,,,,,,,,gray,diamond
189.0,7.0,3.0,1.0,4.0,4.0,310.0876369999241,2.0,1.0,part_1,,,,,,,,,,,,,cyan,circle
199.0,7.0,3.0,1.0,2.0,2.0,314.9037739999585,2.0,1.0,part_1,,,,,,,,,,,,,cyan,circle
50.0,1.0,1.0,0.0,2.0,2.0,327.0659469999373,2.0,1.0,part_1,,,,,,,,,,,,,magenta,flipped triangle
41.0,1.0,1.0,0.0,4.0,4.0,308.8504449999618,2.0,1.0,part_1,,,,,,,,,,,,,magenta,flipped triangle
58.0,1.0,1.0,0.0,2.0,2.0,258.0966139998963,2.0,1.0,part_1,,,,,,,,,,,,,magenta,flipped triangle
197.0,7.0,3.0,1.0,1.0,1.0,379.0426980001484,2.0,1.0,part_1,,,,,,,,,,,,,cyan,circle
118.0,6.0,2.0,1.0,3.0,3.0,298.9202960000057,2.0,1.0,part_1,,,,,,,,,,,,,white,cross
204.0,3.0,3.0,0.0,3.0,3.0,342.4563829998988,2.0,1.0,part_1,,,,,,,,,,,,,yellow,triangle
409.0,8.0,4.0,1.0,2.0,2.0,330.2724519999174,2.0,1.0,part_1,,,,,,,,,,,,,gray,diamond
49.0,5.0,1.0,1.0,1.0,1.0,350.4472859999623,2.0,1.0,part_1,,,,,,,,,,,,,orange,hexagon
191.0,7.0,3.0,1.0,4.0,4.0,308.160657000144,2.0,1.0,part_1,,,,,,,,,,,,,cyan,circle
0.0,7.0,0.0,1.0,3.0,3.0,282.9531720001341,2.0,1.0,part_1,,,,,,,,,,,,,cyan,circle
116.0,6.0,2.0,1.0,4.0,4.0,307.3412500000358,2.0,1.0,part_1,,,,,,,,,,,,,white,cross
204.0,7.0,3.0,1.0,4.0,4.0,309.4360100001267,2.0,1.0,part_1,,,,,,,,,,,,,cyan,circle
113.0,2.0,2.0,0.0,3.0,3.0,321.7277109999941,2.0,1.0,part_1,,,,,,,,,,,,,green,I
41.0,1.0,1.0,0.0,2.0,2.0,311.7946170000323,2.0,1.0,part_1,,,,,,,,,,,,,magenta,flipped triangle
52.0,1.0,1.0,0.0,2.0,2.0,380.1998450001065,2.0,1.0,part_1,,,,,,,,,,,,,magenta,flipped triangle
219.0,3.0,3.0,0.0,2.0,2.0,313.5820840000178,2.0,2.0,part_1,,,,,,,,,,,,,yellow,triangle
224.0,7.0,3.0,1.0,3.0,3.0,354.0380649999406,2.0,1.0,part_1,,,,,,,,,,,,,cyan,circle
59.0,1.0,1.0,0.0,1.0,1.0,362.1338929999638,2.0,1.0,part_1,,,,,,,,,,,,,magenta,flipped triangle
0.0,2.0,0.0,0.0,1.0,1.0,356.4186149999386,2.0,1.0,part_1,,,,,,,,,,,,,green,I
210.0,7.0,3.0,1.0,4.0,4.0,310.26511999994,2.0,1.0,part_1,,,,,,,,,,,,,cyan,circle
118.0,6.0,2.0,1.0,1.0,1.0,374.7961020001185,2.0,1.0,part_1,,,,,,,,,,,,,white,cross
389.0,4.0,4.0,0.0,1.0,1.0,357.1206470001016,2.0,1.0,part_1,,,,,,,,,,,,,blue,square
62.0,5.0,1.0,1.0,2.0,2.0,479.8111659999904,2.0,1.0,part_1,,,,,,,,,,,,,orange,hexagon
45.0,5.0,1.0,1.0,4.0,4.0,332.3733439999614,2.0,1.0,part_1,,,,,,,,,,,,,orange,hexagon
185.0,3.0,3.0,0.0,2.0,2.0,396.385347999967,2.0,1.0,part_1,,,,,,,,,,,,,yellow,triangle
0.0,3.0,0.0,0.0,3.0,3.0,416.2638369998603,2.0,1.0,part_1,,,,,,,,,,,,,yellow,triangle
0.0,5.0,0.0,1.0,4.0,4.0,291.9964559998789,2.0,1.0,part_1,,,,,,,,,,,,,orange,hexagon
82.0,2.0,2.0,0.0,1.0,1.0,291.4067570000043,2.0,1.0,part_1,,,,,,,,,,,,,green,I
0.0,7.0,0.0,1.0,3.0,3.0,302.5202259998423,2.0,1.0,part_1,,,,,,,,,,,,,cyan,circle
58.0,5.0,1.0,1.0,3.0,3.0,357.1201770000698,2.0,1.0,part_1,,,,,,,,,,,,,orange,hexagon
191.0,3.0,3.0,0.0,4.0,4.0,328.0551269999705,2.0,1.0,part_1,,,,,,,,,,,,,yellow,triangle
0.0,2.0,0.0,0.0,1.0,1.0,370.4987739999978,2.0,1.0,part_1,,,,,,,,,,,,,green,I
409.0,8.0,4.0,1.0,2.0,2.0,347.3196630000075,2.0,1.0,part_1,,,,,,,,,,,,,gray,diamond
207.0,3.0,3.0,0.0,4.0,4.0,386.381849999907,2.0,1.0,part_1,,,,,,,,,,,,,yellow,triangle
94.0,2.0,2.0,0.0,2.0,2.0,338.3598509999501,2.0,1.0,part_1,,,,,,,,,,,,,green,I
0.0,4.0,0.0,0.0,1.0,1.0,391.9820359999448,2.0,1.0,part_1,,,,,,,,,,,,,blue,square
66.0,1.0,1.0,0.0,2.0,2.0,352.4406899998666,2.0,1.0,part_1,,,,,,,,,,,,,magenta,flipped triangle
389.0,8.0,4.0,1.0,3.0,3.0,377.470262000088,2.0,1.0,part_1,,,,,,,,,,,,,gray,diamond
101.0,6.0,2.0,1.0,3.0,3.0,350.7345319999331,2.0,1.0,part_1,,,,,,,,,,,,,white,cross
0.0,5.0,0.0,1.0,2.0,2.0,296.8396229998689,2.0,1.0,part_1,,,,,,,,,,,,,orange,hexagon
25.0,5.0,1.0,1.0,2.0,2.0,333.0672209999648,2.0,1.0,part_1,,,,,,,,,,,,,orange,hexagon
186.0,7.0,3.0,1.0,2.0,2.0,348.87023400006,2.0,1.0,part_1,,,,,,,,,,,,,cyan,circle
399.0,8.0,4.0,1.0,1.0,1.0,319.7973599999386,2.0,1.0,part_1,,,,,,,,,,,,,gray,diamond
0.0,8.0,0.0,1.0,1.0,1.0,299.4403220000095,2.0,1.0,part_1,,,,,,,,,,,,,gray,diamond
79.0,6.0,2.0,1.0,4.0,4.0,328.1202030000258,2.0,1.0,part_1,,,,,,,,,,,,,white,cross
0.0,3.0,0.0,0.0,1.0,1.0,370.9369180000976,2.0,1.0,part_1,,,,,,,,,,,,,yellow,triangle
405.0,8.0,4.0,1.0,1.0,1.0,389.9605900001006,2.0,1.0,part_1,,,,,,,,,,,,,gray,diamond
46.0,5.0,1.0,1.0,4.0,4.0,339.1512749999492,2.0,1.0,part_1,,,,,,,,,,,,,orange,hexagon
0.0,5.0,0.0,1.0,3.0,3.0,403.1890989999738,2.0,1.0,part_1,,,,,,,,,,,,,orange,hexagon
118.0,6.0,2.0,1.0,1.0,1.0,450.6116329998804,3.0,1.0,part_1,,,,,,,,,,,,,white,cross
377.0,4.0,4.0,0.0,2.0,2.0,354.4496150000213,3.0,1.0,part_1,,,,,,,,,,,,,blue,square
424.0,8.0,4.0,1.0,1.0,1.0,363.1681859999389,3.0,1.0,part_1,,,,,,,,,,,,,gray,diamond
399.0,4.0,4.0,0.0,2.0,2.0,293.6869630000274,3.0,1.0,part_1,,,,,,,,,,,,,blue,square
385.0,4.0,4.0,0.0,4.0,4.0,347.4931139999171,3.0,1.0,part_1,,,,,,,,,,,,,blue,square
0.0,1.0,0.0,0.0,4.0,4.0,385.9633649999523,3.0,1.0,part_1,,,,,,,,,,,,,magenta,flipped triangle
80.0,2.0,2.0,0.0,1.0,1.0,424.0244430000075,3.0,1.0,part_1,,,,,,,,,,,,,green,I
0.0,8.0,0.0,1.0,3.0,3.0,328.81733599992907,3.0,1.0,part_1,,,,,,,,,,,,,gray,diamond
407.0,8.0,4.0,1.0,1.0,1.0,416.7667780000101,3.0,1.0,part_1,,,,,,,,,,,,,gray,diamond
79.0,2.0,2.0,0.0,4.0,4.0,377.6091189999988,3.0,1.0,part_1,,,,,,,,,,,,,green,I
409.0,4.0,4.0,0.0,3.0,3.0,314.1628160001346,3.0,1.0,part_1,,,,,,,,,,,,,blue,square
0.0,4.0,0.0,0.0,2.0,2.0,334.3909370000801,3.0,1.0,part_1,,,,,,,,,,,,,blue,square
185.0,7.0,3.0,1.0,3.0,3.0,359.7185219998664,3.0,1.0,part_1,,,,,,,,,,,,,cyan,circle
50.0,5.0,1.0,1.0,1.0,1.0,324.0541000000121,3.0,1.0,part_1,,,,,,,,,,,,,orange,hexagon
209.0,7.0,3.0,1.0,1.0,1.0,382.0582349999313,3.0,1.0,part_1,,,,,,,,,,,,,cyan,circle
419.0,8.0,4.0,1.0,4.0,4.0,504.23414200008665,3.0,1.0,part_1,,,,,,,,,,,,,gray,diamond
194.0,7.0,3.0,1.0,1.0,1.0,342.8543620000255,3.0,1.0,part_1,,,,,,,,,,,,,cyan,circle
411.0,4.0,4.0,0.0,4.0,4.0,371.6323139999531,3.0,1.0,part_1,,,,,,,,,,,,,blue,square
0.0,1.0,0.0,0.0,4.0,4.0,337.9767169999468,3.0,1.0,part_1,,,,,,,,,,,,,magenta,flipped triangle
0.0,1.0,0.0,0.0,1.0,1.0,310.3073009999662,3.0,1.0,part_1,,,,,,,,,,,,,magenta,flipped triangle
407.0,4.0,4.0,0.0,2.0,2.0,300.9681399998953,3.0,1.0,part_1,,,,,,,,,,,,,blue,square
59.0,5.0,1.0,1.0,4.0,4.0,303.19346099986427,3.0,1.0,part_1,,,,,,,,,,,,,orange,hexagon
412.0,4.0,4.0,0.0,4.0,4.0,402.3238970000875,3.0,1.0,part_1,,,,,,,,,,,,,blue,square
88.0,2.0,2.0,0.0,3.0,3.0,301.808766999784,3.0,1.0,part_1,,,,,,,,,,,,,green,I
68.0,1.0,1.0,0.0,3.0,3.0,361.384482999938,3.0,1.0,part_1,,,,,,,,,,,,,magenta,flipped triangle
0.0,6.0,0.0,1.0,4.0,4.0,343.7320220000401,3.0,1.0,part_1,,,,,,,,,,,,,white,cross
0.0,8.0,0.0,1.0,4.0,4.0,303.7438979999933,3.0,1.0,part_1,,,,,,,,,,,,,gray,diamond
81.0,6.0,2.0,1.0,4.0,4.0,312.2720720000416,3.0,1.0,part_1,,,,,,,,,,,,,white,cross
102.0,2.0,2.0,0.0,1.0,1.0,376.3123849998919,3.0,1.0,part_1,,,,,,,,,,,,,green,I
0.0,8.0,0.0,1.0,4.0,4.0,309.7908920001373,3.0,1.0,part_1,,,,,,,,,,,,,gray,diamond
67.0,1.0,1.0,0.0,4.0,4.0,245.0835649999589,3.0,1.0,part_1,,,,,,,,,,,,,magenta,flipped triangle
424.0,8.0,4.0,1.0,4.0,4.0,310.0695470000119,3.0,1.0,part_1,,,,,,,,,,,,,gray,diamond
0.0,7.0,0.0,1.0,2.0,2.0,329.4687319998957,3.0,1.0,part_1,,,,,,,,,,,,,cyan,circle
0.0,5.0,0.0,1.0,2.0,2.0,269.155574000024,3.0,1.0,part_1,,,,,,,,,,,,,orange,hexagon
201.0,7.0,3.0,1.0,1.0,1.0,354.573185999925,3.0,1.0,part_1,,,,,,,,,,,,,cyan,circle
56.0,1.0,1.0,0.0,1.0,1.0,294.4203479999032,3.0,1.0,part_1,,,,,,,,,,,,,magenta,flipped triangle
109.0,2.0,2.0,0.0,2.0,2.0,323.7523990001136,3.0,1.0,part_1,,,,,,,,,,,,,green,I
70.0,1.0,1.0,0.0,4.0,4.0,345.0741879998986,3.0,2.0,part_1,,,,,,,,,,,,,magenta,flipped triangle
197.0,3.0,3.0,0.0,1.0,1.0,282.3704159998215,3.0,1.0,part_1,,,,,,,,,,,,,yellow,triangle
67.0,5.0,1.0,1.0,4.0,4.0,318.5596829998758,3.0,1.0,part_1,,,,,,,,,,,,,orange,hexagon
0.0,6.0,0.0,1.0,3.0,3.0,325.2144639998278,3.0,1.0,part_1,,,,,,,,,,,,,white,cross
46.0,1.0,1.0,0.0,1.0,1.0,381.0981939998328,3.0,1.0,part_1,,,,,,,,,,,,,magenta,flipped triangle
107.0,2.0,2.0,0.0,1.0,1.0,345.9861179999279,3.0,1.0,part_1,,,,,,,,,,,,,green,I
180.0,3.0,3.0,0.0,2.0,2.0,373.8816750001206,3.0,1.0,part_1,,,,,,,,,,,,,yellow,triangle
423.0,4.0,4.0,0.0,3.0,3.0,313.3224919999975,3.0,1.0,part_1,,,,,,,,,,,,,blue,square
416.0,8.0,4.0,1.0,1.0,1.0,350.4807669999081,3.0,1.0,part_1,,,,,,,,,,,,,gray,diamond
0.0,5.0,0.0,1.0,2.0,2.0,314.66850899983,3.0,1.0,part_1,,,,,,,,,,,,,orange,hexagon
124.0,6.0,2.0,1.0,3.0,3.0,376.9202309999855,3.0,1.0,part_1,,,,,,,,,,,,,white,cross
424.0,4.0,4.0,0.0,2.0,2.0,325.7203010000467,3.0,1.0,part_1,,,,,,,,,,,,,blue,square
380.0,4.0,4.0,0.0,4.0,4.0,315.5126910000945,3.0,1.0,part_1,,,,,,,,,,,,,blue,square
106.0,2.0,2.0,0.0,3.0,3.0,371.9157590001032,3.0,1.0,part_1,,,,,,,,,,,,,green,I
0.0,5.0,0.0,1.0,4.0,4.0,393.0878809999285,3.0,1.0,part_1,,,,,,,,,,,,,orange,hexagon
216.0,3.0,3.0,0.0,3.0,3.0,304.6117849999064,3.0,1.0,part_1,,,,,,,,,,,,,yellow,triangle
406.0,8.0,4.0,1.0,1.0,1.0,333.4288910000396,3.0,1.0,part_1,,,,,,,,,,,,,gray,diamond
0.0,4.0,0.0,0.0,2.0,2.0,308.1537390000903,3.0,1.0,part_1,,,,,,,,,,,,,blue,square
183.0,7.0,3.0,1.0,2.0,2.0,390.9032159999697,3.0,2.0,part_1,,,,,,,,,,,,,cyan,circle
115.0,2.0,2.0,0.0,1.0,1.0,360.2688399998897,3.0,1.0,part_1,,,,,,,,,,,,,green,I
419.0,4.0,4.0,0.0,3.0,3.0,356.1788920001163,3.0,1.0,part_1,,,,,,,,,,,,,blue,square
211.0,3.0,3.0,0.0,4.0,4.0,363.5587399999167,3.0,1.0,part_1,,,,,,,,,,,,,yellow,triangle
71.0,5.0,1.0,1.0,3.0,3.0,314.5412390001638,3.0,1.0,part_1,,,,,,,,,,,,,orange,hexagon
115.0,6.0,2.0,1.0,4.0,4.0,354.0670889999546,3.0,1.0,part_1,,,,,,,,,,,,,white,cross
196.0,3.0,3.0,0.0,4.0,4.0,335.3469319999931,3.0,1.0,part_1,,,,,,,,,,,,,yellow,triangle
391.0,4.0,4.0,0.0,3.0,3.0,378.8622419999683,3.0,1.0,part_1,,,,,,,,,,,,,blue,square
85.0,6.0,2.0,1.0,3.0,3.0,336.364341000035,3.0,1.0,part_1,,,,,,,,,,,,,white,cross
224.0,3.0,3.0,0.0,1.0,1.0,477.3455209999611,3.0,1.0,part_1,,,,,,,,,,,,,yellow,triangle
0.0,5.0,0.0,1.0,1.0,1.0,331.3225449999208,3.0,1.0,part_1,,,,,,,,,,,,,orange,hexagon
124.0,2.0,2.0,0.0,2.0,2.0,329.0972110000894,3.0,1.0,part_1,,,,,,,,,,,,,green,I
411.0,8.0,4.0,1.0,2.0,2.0,389.8672140001054,3.0,1.0,part_1,,,,,,,,,,,,,gray,diamond
102.0,6.0,2.0,1.0,2.0,2.0,316.0019470001316,3.0,1.0,part_1,,,,,,,,,,,,,white,cross
101.0,2.0,2.0,0.0,2.0,2.0,282.0159420000436,3.0,1.0,part_1,,,,,,,,,,,,,green,I
45.0,5.0,1.0,1.0,2.0,2.0,300.3486400000383,3.0,1.0,part_1,,,,,,,,,,,,,orange,hexagon
0.0,8.0,0.0,1.0,2.0,2.0,245.9486849998029,3.0,1.0,part_1,,,,,,,,,,,,,gray,diamond
210.0,3.0,3.0,0.0,4.0,4.0,372.4871019999227,3.0,1.0,part_1,,,,,,,,,,,,,yellow,triangle
89.0,2.0,2.0,0.0,1.0,1.0,368.6897969998881,3.0,1.0,part_1,,,,,,,,,,,,,green,I
187.0,3.0,3.0,0.0,1.0,1.0,265.9361959999842,3.0,1.0,part_1,,,,,,,,,,,,,yellow,triangle
106.0,2.0,2.0,0.0,4.0,4.0,377.3369069999717,3.0,1.0,part_1,,,,,,,,,,,,,green,I
178.0,7.0,3.0,1.0,1.0,1.0,365.2853239998421,3.0,1.0,part_1,,,,,,,,,,,,,cyan,circle
195.0,3.0,3.0,0.0,3.0,3.0,355.1513089998934,3.0,1.0,part_1,,,,,,,,,,,,,yellow,triangle
0.0,2.0,0.0,0.0,4.0,4.0,319.254993999948,3.0,1.0,part_1,,,,,,,,,,,,,green,I
198.0,7.0,3.0,1.0,2.0,2.0,296.4620220000142,3.0,1.0,part_1,,,,,,,,,,,,,cyan,circle
0.0,3.0,0.0,0.0,1.0,1.0,342.3432949998641,3.0,1.0,part_1,,,,,,,,,,,,,yellow,triangle
209.0,3.0,3.0,0.0,4.0,4.0,292.2680489998583,3.0,1.0,part_1,,,,,,,,,,,,,yellow,triangle
111.0,6.0,2.0,1.0,2.0,2.0,290.9052140000767,3.0,1.0,part_1,,,,,,,,,,,,,white,cross
216.0,7.0,3.0,1.0,4.0,4.0,305.1498600000286,3.0,1.0,part_1,,,,,,,,,,,,,cyan,circle
219.0,7.0,3.0,1.0,4.0,4.0,300.0451939999493,3.0,1.0,part_1,,,,,,,,,,,,,cyan,circle
189.0,3.0,3.0,0.0,3.0,3.0,317.1854849999818,3.0,1.0,part_1,,,,,,,,,,,,,yellow,triangle
178.0,7.0,3.0,1.0,3.0,3.0,314.7337999998854,3.0,1.0,part_1,,,,,,,,,,,,,cyan,circle
393.0,8.0,4.0,1.0,4.0,4.0,343.0375380000896,3.0,1.0,part_1,,,,,,,,,,,,,gray,diamond
125.0,6.0,2.0,1.0,2.0,2.0,308.5430589999305,3.0,1.0,part_1,,,,,,,,,,,,,white,cross
108.0,2.0,2.0,0.0,4.0,4.0,311.0287409999728,3.0,1.0,part_1,,,,,,,,,,,,,green,I
41.0,5.0,1.0,1.0,4.0,4.0,325.3365989999111,3.0,1.0,part_1,,,,,,,,,,,,,orange,hexagon
204.0,7.0,3.0,1.0,4.0,4.0,312.2916130000703,3.0,1.0,part_1,,,,,,,,,,,,,cyan,circle
99.0,6.0,2.0,1.0,3.0,3.0,366.1017609999817,3.0,1.0,part_1,,,,,,,,,,,,,white,cross
59.0,1.0,1.0,0.0,1.0,1.0,338.9933079999991,3.0,1.0,part_1,,,,,,,,,,,,,magenta,flipped triangle
0.0,4.0,0.0,0.0,2.0,2.0,345.8347000000685,3.0,1.0,part_1,,,,,,,,,,,,,blue,square
183.0,3.0,3.0,0.0,3.0,3.0,345.4776780001793,3.0,1.0,part_1,,,,,,,,,,,,,yellow,triangle
383.0,4.0,4.0,0.0,3.0,3.0,339.3933160000415,3.0,1.0,part_1,,,,,,,,,,,,,blue,square
204.0,3.0,3.0,0.0,2.0,2.0,291.8122409998887,3.0,1.0,part_1,,,,,,,,,,,,,yellow,triangle
61.0,1.0,1.0,0.0,2.0,2.0,380.4611919999843,3.0,1.0,part_1,,,,,,,,,,,,,magenta,flipped triangle
94.0,6.0,2.0,1.0,2.0,2.0,290.4359320000367,3.0,1.0,part_1,,,,,,,,,,,,,white,cross
180.0,7.0,3.0,1.0,2.0,2.0,301.7823079999289,4.0,1.0,part_1,,,,,,,,,,,,,cyan,circle
0.0,5.0,0.0,1.0,1.0,1.0,335.792696999988,4.0,1.0,part_1,,,,,,,,,,,,,orange,hexagon
25.0,5.0,1.0,1.0,3.0,3.0,325.9199410001656,4.0,1.0,part_1,,,,,,,,,,,,,orange,hexagon
68.0,5.0,1.0,1.0,4.0,4.0,323.8564789999145,4.0,1.0,part_1,,,,,,,,,,,,,orange,hexagon
222.0,3.0,3.0,0.0,4.0,4.0,336.836521999885,4.0,1.0,part_1,,,,,,,,,,,,,yellow,triangle
61.0,5.0,1.0,1.0,3.0,3.0,318.7236629999006,4.0,1.0,part_1,,,,,,,,,,,,,orange,hexagon
419.0,8.0,4.0,1.0,3.0,3.0,331.6512589999547,4.0,1.0,part_1,,,,,,,,,,,,,gray,diamond
391.0,8.0,4.0,1.0,4.0,4.0,321.0523399998237,4.0,1.0,part_1,,,,,,,,,,,,,gray,diamond
81.0,2.0,2.0,0.0,3.0,3.0,286.6651540000475,4.0,1.0,part_1,,,,,,,,,,,,,green,I
111.0,2.0,2.0,0.0,4.0,4.0,296.2392510000882,4.0,1.0,part_1,,,,,,,,,,,,,green,I
107.0,6.0,2.0,1.0,1.0,1.0,333.5288729999774,4.0,1.0,part_1,,,,,,,,,,,,,white,cross
51.0,5.0,1.0,1.0,2.0,2.0,322.5892499999645,4.0,1.0,part_1,,,,,,,,,,,,,orange,hexagon
394.0,4.0,4.0,0.0,1.0,1.0,262.2111729999687,4.0,1.0,part_1,,,,,,,,,,,,,blue,square
0.0,2.0,0.0,0.0,3.0,3.0,311.9317539999429,4.0,1.0,part_1,,,,,,,,,,,,,green,I
27.0,5.0,1.0,1.0,1.0,1.0,320.5901429998903,4.0,1.0,part_1,,,,,,,,,,,,,orange,hexagon
386.0,4.0,4.0,0.0,3.0,3.0,353.0998149999504,4.0,1.0,part_1,,,,,,,,,,,,,blue,square
386.0,8.0,4.0,1.0,4.0,4.0,327.3318960000324,4.0,1.0,part_1,,,,,,,,,,,,,gray,diamond
201.0,3.0,3.0,0.0,2.0,2.0,259.0860010000142,4.0,1.0,part_1,,,,,,,,,,,,,yellow,triangle
66.0,5.0,1.0,1.0,2.0,2.0,311.1309920000167,4.0,1.0,part_1,,,,,,,,,,,,,orange,hexagon
0.0,2.0,0.0,0.0,2.0,2.0,347.0346750000317,4.0,1.0,part_1,,,,,,,,,,,,,green,I
380.0,4.0,4.0,0.0,1.0,1.0,274.8049570002422,4.0,1.0,part_1,,,,,,,,,,,,,blue,square
400.0,8.0,4.0,1.0,1.0,1.0,354.0701410001929,4.0,1.0,part_1,,,,,,,,,,,,,gray,diamond
222.0,3.0,3.0,0.0,1.0,1.0,305.8233940000718,4.0,1.0,part_1,,,,,,,,,,,,,yellow,triangle
419.0,4.0,4.0,0.0,4.0,4.0,384.8751669997909,4.0,1.0,part_1,,,,,,,,,,,,,blue,square
406.0,4.0,4.0,0.0,1.0,1.0,320.3313760000128,4.0,1.0,part_1,,,,,,,,,,,,,blue,square
0.0,7.0,0.0,1.0,4.0,4.0,343.3227670002452,4.0,1.0,part_1,,,,,,,,,,,,,cyan,circle
377.0,4.0,4.0,0.0,4.0,4.0,335.5496409999432,4.0,1.0,part_1,,,,,,,,,,,,,blue,square
68.0,5.0,1.0,1.0,1.0,1.0,302.8349390001494,4.0,1.0,part_1,,,,,,,,,,,,,orange,hexagon
389.0,8.0,4.0,1.0,2.0,2.0,387.8875380000863,4.0,1.0,part_1,,,,,,,,,,,,,gray,diamond
25.0,1.0,1.0,0.0,4.0,4.0,314.8858320000727,4.0,1.0,part_1,,,,,,,,,,,,,magenta,flipped triangle
204.0,7.0,3.0,1.0,3.0,3.0,290.6008270001621,4.0,1.0,part_1,,,,,,,,,,,,,cyan,circle
31.0,5.0,1.0,1.0,1.0,1.0,282.5296599999092,4.0,1.0,part_1,,,,,,,,,,,,,orange,hexagon
399.0,8.0,4.0,1.0,3.0,3.0,324.4629670002723,4.0,1.0,part_1,,,,,,,,,,,,,gray,diamond
36.0,1.0,1.0,0.0,1.0,1.0,372.9390130001775,4.0,1.0,part_1,,,,,,,,,,,,,magenta,flipped triangle
377.0,8.0,4.0,1.0,2.0,2.0,337.5607349998972,4.0,1.0,part_1,,,,,,,,,,,,,gray,diamond
99.0,6.0,2.0,1.0,4.0,4.0,360.4964860001018,4.0,1.0,part_1,,,,,,,,,,,,,white,cross
90.0,6.0,2.0,1.0,3.0,3.0,307.873870000094,4.0,1.0,part_1,,,,,,,,,,,,,white,cross
77.0,6.0,2.0,1.0,1.0,1.0,325.1233070000126,4.0,1.0,part_1,,,,,,,,,,,,,white,cross
36.0,5.0,1.0,1.0,2.0,2.0,295.7031000000825,4.0,1.0,part_1,,,,,,,,,,,,,orange,hexagon
393.0,4.0,4.0,0.0,3.0,3.0,382.6630860003206,4.0,1.0,part_1,,,,,,,,,,,,,blue,square
91.0,2.0,2.0,0.0,2.0,2.0,311.9677290001164,4.0,1.0,part_1,,,,,,,,,,,,,green,I
112.0,2.0,2.0,0.0,4.0,4.0,390.0711219998811,4.0,1.0,part_1,,,,,,,,,,,,,green,I
175.0,7.0,3.0,1.0,1.0,1.0,321.0031249996063,4.0,1.0,part_1,,,,,,,,,,,,,cyan,circle
112.0,6.0,2.0,1.0,1.0,1.0,336.8861549997746,4.0,1.0,part_1,,,,,,,,,,,,,white,cross
400.0,4.0,4.0,0.0,3.0,3.0,331.5546720000384,4.0,1.0,part_1,,,,,,,,,,,,,blue,square
200.0,3.0,3.0,0.0,3.0,3.0,336.0755180001433,4.0,1.0,part_1,,,,,,,,,,,,,yellow,triangle
419.0,4.0,4.0,0.0,1.0,1.0,316.192394999689,4.0,1.0,part_1,,,,,,,,,,,,,blue,square
0.0,3.0,0.0,0.0,4.0,4.0,328.6131059999206,4.0,1.0,part_1,,,,,,,,,,,,,yellow,triangle
0.0,3.0,0.0,0.0,1.0,1.0,305.8203579998917,4.0,1.0,part_1,,,,,,,,,,,,,yellow,triangle
210.0,7.0,3.0,1.0,2.0,2.0,290.6244149999111,4.0,1.0,part_1,,,,,,,,,,,,,cyan,circle
0.0,8.0,0.0,1.0,4.0,4.0,361.0399509998387,4.0,1.0,part_1,,,,,,,,,,,,,gray,diamond
0.0,2.0,0.0,0.0,2.0,2.0,318.7543950002691,4.0,1.0,part_1,,,,,,,,,,,,,green,I
84.0,2.0,2.0,0.0,4.0,4.0,351.0647290004272,4.0,1.0,part_1,,,,,,,,,,,,,green,I
0.0,2.0,0.0,0.0,2.0,2.0,331.4841510000406,4.0,1.0,part_1,,,,,,,,,,,,,green,I
0.0,8.0,0.0,1.0,2.0,2.0,292.6093030000629,4.0,1.0,part_1,,,,,,,,,,,,,gray,diamond
378.0,4.0,4.0,0.0,1.0,1.0,332.7230470003997,4.0,1.0,part_1,,,,,,,,,,,,,blue,square
199.0,3.0,3.0,0.0,3.0,3.0,369.1941130000487,4.0,1.0,part_1,,,,,,,,,,,,,yellow,triangle
53.0,1.0,1.0,0.0,1.0,1.0,305.4773089997979,4.0,1.0,part_1,,,,,,,,,,,,,magenta,flipped triangle
0.0,6.0,0.0,1.0,3.0,3.0,318.3754420001605,4.0,1.0,part_1,,,,,,,,,,,,,white,cross
394.0,8.0,4.0,1.0,3.0,3.0,304.7665349999988,4.0,1.0,part_1,,,,,,,,,,,,,gray,diamond
84.0,6.0,2.0,1.0,2.0,2.0,295.3376030000072,4.0,1.0,part_1,,,,,,,,,,,,,white,cross
0.0,3.0,0.0,0.0,4.0,4.0,366.540150000219,4.0,1.0,part_1,,,,,,,,,,,,,yellow,triangle
0.0,5.0,0.0,1.0,1.0,1.0,331.7508669997551,4.0,1.0,part_1,,,,,,,,,,,,,orange,hexagon
422.0,8.0,4.0,1.0,2.0,2.0,277.1073610001622,4.0,1.0,part_1,,,,,,,,,,,,,gray,diamond
0.0,7.0,0.0,1.0,2.0,2.0,338.3590739999818,4.0,1.0,part_1,,,,,,,,,,,,,cyan,circle
0.0,2.0,0.0,0.0,1.0,1.0,284.004257000106,4.0,1.0,part_1,,,,,,,,,,,,,green,I
72.0,1.0,1.0,0.0,3.0,3.0,395.3619159997288,4.0,1.0,part_1,,,,,,,,,,,,,magenta,flipped triangle
198.0,7.0,3.0,1.0,2.0,2.0,265.2635340000415,4.0,1.0,part_1,,,,,,,,,,,,,cyan,circle
207.0,7.0,3.0,1.0,2.0,2.0,329.5301509997443,4.0,1.0,part_1,,,,,,,,,,,,,cyan,circle
0.0,4.0,0.0,0.0,2.0,2.0,276.1492240001644,4.0,1.0,part_1,,,,,,,,,,,,,blue,square
378.0,8.0,4.0,1.0,1.0,1.0,327.4137029998201,4.0,1.0,part_1,,,,,,,,,,,,,gray,diamond
74.0,1.0,1.0,0.0,3.0,3.0,321.5521869997246,4.0,1.0,part_1,,,,,,,,,,,,,magenta,flipped triangle
210.0,3.0,3.0,0.0,1.0,1.0,389.2627650002396,4.0,1.0,part_1,,,,,,,,,,,,,yellow,triangle
186.0,3.0,3.0,0.0,1.0,1.0,427.3378069997307,4.0,1.0,part_1,,,,,,,,,,,,,yellow,triangle
0.0,3.0,0.0,0.0,4.0,4.0,369.939434999651,4.0,1.0,part_1,,,,,,,,,,,,,yellow,triangle
108.0,6.0,2.0,1.0,2.0,2.0,296.2359380003363,4.0,1.0,part_1,,,,,,,,,,,,,white,cross
223.0,7.0,3.0,1.0,3.0,3.0,343.8309279999885,4.0,1.0,part_1,,,,,,,,,,,,,cyan,circle
409.0,4.0,4.0,0.0,1.0,1.0,308.5321190001195,4.0,1.0,part_1,,,,,,,,,,,,,blue,square
62.0,1.0,1.0,0.0,3.0,3.0,484.3845620002867,4.0,1.0,part_1,,,,,,,,,,,,,magenta,flipped triangle
182.0,7.0,3.0,1.0,3.0,3.0,373.6377330001232,4.0,1.0,part_1,,,,,,,,,,,,,cyan,circle
394.0,8.0,4.0,1.0,2.0,2.0,283.6311360001673,4.0,1.0,part_1,,,,,,,,,,,,,gray,diamond
51.0,1.0,1.0,0.0,2.0,2.0,249.5964750000894,4.0,1.0,part_1,,,,,,,,,,,,,magenta,flipped triangle
222.0,7.0,3.0,1.0,1.0,1.0,347.0449989999906,4.0,1.0,part_1,,,,,,,,,,,,,cyan,circle
0.0,7.0,0.0,1.0,1.0,1.0,345.3507239996725,4.0,1.0,part_1,,,,,,,,,,,,,cyan,circle
77.0,2.0,2.0,0.0,3.0,3.0,335.2186170000095,4.0,1.0,part_1,,,,,,,,,,,,,green,I
200.0,7.0,3.0,1.0,1.0,1.0,334.479827999985,4.0,1.0,part_1,,,,,,,,,,,,,cyan,circle
27.0,1.0,1.0,0.0,2.0,2.0,344.1092409998418,4.0,1.0,part_1,,,,,,,,,,,,,magenta,flipped triangle
409.0,4.0,4.0,0.0,4.0,4.0,361.9831209998665,4.0,1.0,part_1,,,,,,,,,,,,,blue,square
214.0,3.0,3.0,0.0,2.0,2.0,358.7830169999506,4.0,1.0,part_1,,,,,,,,,,,,,yellow,triangle
88.0,6.0,2.0,1.0,3.0,3.0,375.9911769998325,4.0,1.0,part_1,,,,,,,,,,,,,white,cross
0.0,6.0,0.0,1.0,4.0,4.0,424.3545570002425,4.0,1.0,part_1,,,,,,,,,,,,,white,cross
0.0,6.0,0.0,1.0,3.0,3.0,346.0047900002791,4.0,1.0,part_1,,,,,,,,,,,,,white,cross
0.0,3.0,0.0,0.0,3.0,3.0,340.077403000123,4.0,1.0,part_1,,,,,,,,,,,,,yellow,triangle
121.0,6.0,2.0,1.0,3.0,3.0,367.4378810001144,4.0,1.0,part_1,,,,,,,,,,,,,white,cross
0.0,1.0,0.0,0.0,1.0,1.0,510.91650299986213,4.0,1.0,part_1,,,,,,,,,,,,,magenta,flipped triangle
88.0,2.0,2.0,0.0,1.0,1.0,408.8815019999856,4.0,1.0,part_1,,,,,,,,,,,,,green,I
41.0,5.0,1.0,1.0,2.0,2.0,353.1606649999048,4.0,1.0,part_1,,,,,,,,,,,,,orange,hexagon
183.0,3.0,3.0,0.0,2.0,2.0,374.8769670000911,4.0,1.0,part_1,,,,,,,,,,,,,yellow,triangle
214.0,7.0,3.0,1.0,3.0,3.0,375.4450460000953,4.0,1.0,part_1,,,,,,,,,,,,,cyan,circle
0.0,4.0,0.0,0.0,3.0,3.0,352.5080750000597,4.0,1.0,part_1,,,,,,,,,,,,,blue,square
0.0,6.0,2.0,1.0,5.0,5.0,457.1763439998904,1.0,0.0,part_2,stop,250.0,250.0,3.0,,,,,,,,,white,cross
0.0,2.0,2.0,0.0,5.0,5.0,485.1887979998537,1.0,0.0,part_2,go,200.0,250.0,1.0,,,,,,,,,green,I
0.0,5.0,1.0,1.0,6.0,6.0,382.0841719998498,1.0,0.0,part_2,stop,200.0,250.0,3.0,,,,,,,,,orange,hexagon
0.0,8.0,4.0,1.0,6.0,6.0,595.164988000306,1.0,0.0,part_2,go,200.0,200.0,1.0,,,,,,,,,gray,diamond
0.0,1.0,1.0,0.0,5.0,5.0,608.0071029996361,1.0,0.0,part_2,go,200.0,200.0,1.0,,,,,,,,,magenta,flipped triangle
0.0,1.0,1.0,0.0,6.0,6.0,484.0564119999726,1.0,0.0,part_2,go,200.0,200.0,1.0,,,,,,,,,magenta,flipped triangle
0.0,3.0,3.0,0.0,5.0,5.0,793.8686469997265,1.0,0.0,part_2,go,200.0,200.0,1.0,,,,,,,,,yellow,triangle
0.0,7.0,3.0,1.0,5.0,5.0,534.0854260002743,1.0,0.0,part_2,stop,200.0,200.0,3.0,,,,,,,,,cyan,circle
0.0,1.0,1.0,0.0,6.0,6.0,553.6491660000138,1.0,0.0,part_2,go,150.0,200.0,1.0,,,,,,,,,magenta,flipped triangle
0.0,2.0,2.0,0.0,6.0,6.0,759.0464360000624,1.0,0.0,part_2,go,150.0,200.0,1.0,,,,,,,,,green,I
0.0,5.0,1.0,1.0,5.0,0.0,0.0,1.0,0.0,part_2,stop,150.0,200.0,4.0,,,,,,,,,orange,hexagon
0.0,4.0,4.0,0.0,5.0,5.0,822.6378409999597,1.0,0.0,part_2,go,200.0,200.0,1.0,,,,,,,,,blue,square
0.0,7.0,3.0,1.0,6.0,0.0,0.0,1.0,0.0,part_2,stop,200.0,200.0,4.0,,,,,,,,,cyan,circle
0.0,3.0,3.0,0.0,6.0,6.0,357.1361640001669,1.0,0.0,part_2,go,200.0,250.0,1.0,,,,,,,,,yellow,triangle
0.0,3.0,3.0,0.0,5.0,5.0,697.1869760000118,1.0,0.0,part_2,go,200.0,250.0,1.0,,,,,,,,,yellow,triangle
0.0,2.0,2.0,0.0,6.0,6.0,536.9420219999483,1.0,0.0,part_2,go,200.0,250.0,1.0,,,,,,,,,green,I
0.0,4.0,4.0,0.0,5.0,5.0,574.301781000031,1.0,0.0,part_2,go,200.0,250.0,1.0,,,,,,,,,blue,square
0.0,4.0,4.0,0.0,5.0,5.0,585.7062280001628,1.0,0.0,part_2,go,200.0,250.0,1.0,,,,,,,,,blue,square
0.0,7.0,3.0,1.0,6.0,0.0,0.0,1.0,0.0,part_2,stop,200.0,250.0,4.0,,,,,,,,,cyan,circle
0.0,6.0,2.0,1.0,6.0,0.0,0.0,1.0,0.0,part_2,stop,200.0,300.0,4.0,,,,,,,,,white,cross
0.0,1.0,1.0,0.0,6.0,6.0,525.3968060001171,1.0,0.0,part_2,go,200.0,350.0,1.0,,,,,,,,,magenta,flipped triangle
0.0,5.0,1.0,1.0,6.0,6.0,320.2251039997463,1.0,0.0,part_2,stop,200.0,350.0,3.0,,,,,,,,,orange,hexagon
0.0,3.0,3.0,0.0,6.0,6.0,590.5031000002054,1.0,0.0,part_2,go,200.0,300.0,1.0,,,,,,,,,yellow,triangle
0.0,3.0,3.0,0.0,6.0,6.0,785.840650999944,1.0,0.0,part_2,go,200.0,300.0,1.0,,,,,,,,,yellow,triangle
0.0,5.0,1.0,1.0,5.0,0.0,0.0,1.0,0.0,part_2,stop,200.0,300.0,4.0,,,,,,,,,orange,hexagon
0.0,6.0,2.0,1.0,5.0,5.0,358.8516489999165,1.0,0.0,part_2,go,250.0,300.0,1.0,,,,,,,,,white,cross
0.0,7.0,3.0,1.0,5.0,0.0,0.0,1.0,0.0,part_2,stop,250.0,300.0,4.0,,,,,,,,,cyan,circle
0.0,3.0,3.0,0.0,6.0,6.0,567.8479170001083,1.0,0.0,part_2,go,300.0,300.0,1.0,,,,,,,,,yellow,triangle
0.0,6.0,2.0,1.0,5.0,0.0,0.0,1.0,0.0,part_2,stop,300.0,300.0,4.0,,,,,,,,,white,cross
0.0,3.0,3.0,0.0,5.0,5.0,901.1663869996482,1.0,0.0,part_2,go,350.0,300.0,1.0,,,,,,,,,yellow,triangle
0.0,1.0,1.0,0.0,6.0,6.0,311.6433550003421,1.0,0.0,part_2,go,350.0,300.0,1.0,,,,,,,,,magenta,flipped triangle
0.0,2.0,2.0,0.0,6.0,6.0,549.9566610001239,1.0,0.0,part_2,go,350.0,300.0,1.0,,,,,,,,,green,I
0.0,7.0,3.0,1.0,5.0,5.0,460.1268709998294,1.0,0.0,part_2,stop,350.0,300.0,3.0,,,,,,,,,cyan,circle
0.0,2.0,2.0,0.0,6.0,6.0,473.7097780002841,1.0,0.0,part_2,go,300.0,300.0,1.0,,,,,,,,,green,I
0.0,6.0,2.0,1.0,5.0,0.0,0.0,1.0,0.0,part_2,stop,300.0,300.0,4.0,,,,,,,,,white,cross
0.0,5.0,1.0,1.0,6.0,6.0,637.2186210001018,1.0,0.0,part_2,go,350.0,300.0,1.0,,,,,,,,,orange,hexagon
0.0,5.0,1.0,1.0,5.0,0.0,0.0,2.0,0.0,part_2,stop,350.0,300.0,4.0,,,,,,,,,orange,hexagon
0.0,2.0,2.0,0.0,5.0,5.0,918.0101530000684,2.0,0.0,part_2,go,400.0,300.0,1.0,,,,,,,,,green,I
0.0,2.0,2.0,0.0,6.0,6.0,690.9180890002062,2.0,0.0,part_2,go,400.0,300.0,1.0,,,,,,,,,green,I
0.0,1.0,1.0,0.0,6.0,6.0,386.1874369999896,2.0,0.0,part_2,go,400.0,300.0,1.0,,,,,,,,,magenta,flipped triangle
0.0,1.0,1.0,0.0,6.0,6.0,398.9144080001097,2.0,0.0,part_2,go,400.0,300.0,1.0,,,,,,,,,magenta,flipped triangle
0.0,4.0,4.0,0.0,6.0,6.0,401.1976690003394,2.0,0.0,part_2,go,400.0,300.0,1.0,,,,,,,,,blue,square
0.0,4.0,4.0,0.0,5.0,5.0,585.7621999998628,2.0,0.0,part_2,go,400.0,300.0,1.0,,,,,,,,,blue,square
0.0,3.0,3.0,0.0,6.0,6.0,657.2691400001531,2.0,0.0,part_2,go,400.0,300.0,1.0,,,,,,,,,yellow,triangle
0.0,8.0,4.0,1.0,5.0,0.0,0.0,2.0,0.0,part_2,stop,400.0,300.0,4.0,,,,,,,,,gray,diamond
0.0,8.0,4.0,1.0,6.0,6.0,367.3361870000917,2.0,0.0,part_2,stop,450.0,300.0,3.0,,,,,,,,,gray,diamond
0.0,4.0,4.0,0.0,6.0,6.0,670.5836080000154,2.0,0.0,part_2,go,450.0,250.0,1.0,,,,,,,,,blue,square
0.0,2.0,2.0,0.0,5.0,5.0,804.6062369999163,2.0,0.0,part_2,go,450.0,250.0,1.0,,,,,,,,,green,I
0.0,8.0,4.0,1.0,6.0,0.0,0.0,2.0,0.0,part_2,stop,450.0,250.0,4.0,,,,,,,,,gray,diamond
0.0,6.0,2.0,1.0,6.0,0.0,0.0,2.0,0.0,part_2,stop,450.0,300.0,4.0,,,,,,,,,white,cross
0.0,2.0,2.0,0.0,5.0,5.0,528.6898320000546,2.0,0.0,part_2,go,450.0,350.0,1.0,,,,,,,,,green,I
0.0,1.0,1.0,0.0,5.0,5.0,512.3447280002438,2.0,0.0,part_2,go,450.0,350.0,1.0,,,,,,,,,magenta,flipped triangle
0.0,7.0,3.0,1.0,6.0,0.0,0.0,2.0,0.0,part_2,stop,450.0,350.0,4.0,,,,,,,,,cyan,circle
0.0,3.0,3.0,0.0,6.0,6.0,632.3020929999075,2.0,0.0,part_2,go,450.0,400.0,1.0,,,,,,,,,yellow,triangle
0.0,2.0,2.0,0.0,5.0,5.0,706.7426949997753,2.0,0.0,part_2,go,450.0,400.0,1.0,,,,,,,,,green,I
0.0,5.0,1.0,1.0,6.0,0.0,0.0,2.0,0.0,part_2,stop,450.0,400.0,4.0,,,,,,,,,orange,hexagon
0.0,4.0,4.0,0.0,5.0,5.0,946.1132290002752,2.0,0.0,part_2,go,450.0,450.0,1.0,,,,,,,,,blue,square
0.0,5.0,1.0,1.0,5.0,0.0,0.0,2.0,0.0,part_2,stop,450.0,450.0,4.0,,,,,,,,,orange,hexagon
0.0,6.0,2.0,1.0,5.0,5.0,820.3842609996173,2.0,0.0,part_2,go,500.0,450.0,1.0,,,,,,,,,white,cross
0.0,8.0,4.0,1.0,5.0,0.0,0.0,2.0,0.0,part_2,stop,500.0,450.0,4.0,,,,,,,,,gray,diamond
0.0,6.0,2.0,1.0,6.0,0.0,0.0,2.0,0.0,part_2,stop,550.0,450.0,4.0,,,,,,,,,white,cross
0.0,8.0,4.0,1.0,5.0,5.0,623.3753399997113,2.0,0.0,part_2,stop,550.0,500.0,3.0,,,,,,,,,gray,diamond
0.0,3.0,3.0,0.0,6.0,6.0,1051.5828950001378,2.0,0.0,part_2,go,500.0,500.0,1.0,,,,,,,,,yellow,triangle
0.0,5.0,1.0,1.0,6.0,6.0,919.3188290000762,2.0,0.0,part_2,go,500.0,500.0,1.0,,,,,,,,,orange,hexagon
0.0,1.0,1.0,0.0,5.0,5.0,717.9793959999188,2.0,0.0,part_2,go,500.0,500.0,1.0,,,,,,,,,magenta,flipped triangle
0.0,4.0,4.0,0.0,6.0,6.0,828.959550000036,2.0,0.0,part_2,go,500.0,500.0,1.0,,,,,,,,,blue,square
0.0,7.0,3.0,1.0,6.0,6.0,527.2703310001816,2.0,0.0,part_2,go,500.0,500.0,1.0,,,,,,,,,cyan,circle
0.0,1.0,1.0,0.0,6.0,6.0,761.4440460001788,2.0,0.0,part_2,go,500.0,500.0,1.0,,,,,,,,,magenta,flipped triangle
0.0,1.0,1.0,0.0,6.0,6.0,502.68441500020344,2.0,0.0,part_2,go,500.0,500.0,1.0,,,,,,,,,magenta,flipped triangle
0.0,8.0,4.0,1.0,5.0,5.0,725.3426110000873,2.0,0.0,part_2,go,500.0,500.0,1.0,,,,,,,,,gray,diamond
0.0,7.0,3.0,1.0,5.0,5.0,539.4673199998579,2.0,0.0,part_2,stop,500.0,500.0,3.0,,,,,,,,,cyan,circle
0.0,3.0,3.0,0.0,6.0,6.0,774.3201150001369,2.0,0.0,part_2,go,450.0,500.0,1.0,,,,,,,,,yellow,triangle
0.0,8.0,4.0,1.0,5.0,5.0,596.9777929999509,3.0,0.0,part_2,go,450.0,500.0,1.0,,,,,,,,,gray,diamond
0.0,4.0,4.0,0.0,5.0,5.0,255.20450100020747,3.0,0.0,part_2,go,450.0,500.0,1.0,,,,,,,,,blue,square
0.0,8.0,4.0,1.0,5.0,5.0,242.6998099999764,3.0,0.0,part_2,stop,450.0,500.0,3.0,,,,,,,,,gray,diamond
0.0,2.0,2.0,0.0,6.0,6.0,270.617630000288,3.0,0.0,part_2,go,400.0,500.0,1.0,,,,,,,,,green,I
0.0,7.0,3.0,1.0,6.0,6.0,239.3334580001465,3.0,0.0,part_2,go,400.0,500.0,1.0,,,,,,,,,cyan,circle
0.0,8.0,4.0,1.0,6.0,6.0,293.3608880002794,3.0,0.0,part_2,stop,400.0,500.0,3.0,,,,,,,,,gray,diamond
0.0,5.0,1.0,1.0,5.0,5.0,330.0056190000759,3.0,0.0,part_2,go,400.0,450.0,1.0,,,,,,,,,orange,hexagon
0.0,6.0,2.0,1.0,5.0,5.0,450.9751860000506,3.0,0.0,part_2,stop,400.0,450.0,3.0,,,,,,,,,white,cross
0.0,7.0,3.0,1.0,6.0,6.0,537.6714639996862,3.0,0.0,part_2,go,350.0,450.0,1.0,,,,,,,,,cyan,circle
0.0,7.0,3.0,1.0,5.0,0.0,0.0,3.0,0.0,part_2,stop,350.0,450.0,4.0,,,,,,,,,cyan,circle
0.0,8.0,4.0,1.0,5.0,5.0,304.9289159998807,3.0,0.0,part_2,stop,400.0,450.0,3.0,,,,,,,,,gray,diamond
0.0,8.0,4.0,1.0,5.0,5.0,269.1696580000098,3.0,0.0,part_2,stop,350.0,450.0,3.0,,,,,,,,,gray,diamond
0.0,3.0,3.0,0.0,5.0,5.0,468.9391739998427,3.0,0.0,part_2,go,300.0,450.0,1.0,,,,,,,,,yellow,triangle
0.0,4.0,4.0,0.0,6.0,6.0,415.4901400002018,3.0,0.0,part_2,go,300.0,450.0,1.0,,,,,,,,,blue,square
0.0,7.0,3.0,1.0,6.0,6.0,390.5635440000878,3.0,0.0,part_2,stop,300.0,450.0,3.0,,,,,,,,,cyan,circle
0.0,2.0,2.0,0.0,6.0,6.0,699.3118820000745,3.0,0.0,part_2,go,300.0,400.0,1.0,,,,,,,,,green,I
0.0,3.0,3.0,0.0,6.0,6.0,486.5220370002134,3.0,0.0,part_2,go,300.0,400.0,1.0,,,,,,,,,yellow,triangle
0.0,7.0,3.0,1.0,6.0,6.0,300.6803149996813,3.0,0.0,part_2,go,300.0,400.0,1.0,,,,,,,,,cyan,circle
0.0,2.0,2.0,0.0,5.0,5.0,596.5353470000991,3.0,0.0,part_2,go,300.0,400.0,1.0,,,,,,,,,green,I
0.0,3.0,3.0,0.0,6.0,6.0,342.7829259999271,3.0,0.0,part_2,go,300.0,400.0,1.0,,,,,,,,,yellow,triangle
0.0,7.0,3.0,1.0,6.0,6.0,300.1775570000973,3.0,0.0,part_2,stop,300.0,400.0,3.0,,,,,,,,,cyan,circle
0.0,6.0,2.0,1.0,5.0,5.0,370.2468860001318,3.0,0.0,part_2,stop,300.0,350.0,3.0,,,,,,,,,white,cross
0.0,4.0,4.0,0.0,5.0,5.0,494.7913020000669,3.0,0.0,part_2,go,250.0,350.0,1.0,,,,,,,,,blue,square
0.0,6.0,2.0,1.0,6.0,0.0,0.0,3.0,0.0,part_2,stop,250.0,350.0,4.0,,,,,,,,,white,cross
0.0,4.0,4.0,0.0,5.0,5.0,630.4167469997992,3.0,0.0,part_2,go,250.0,400.0,1.0,,,,,,,,,blue,square
0.0,5.0,1.0,1.0,6.0,0.0,0.0,3.0,0.0,part_2,stop,250.0,400.0,4.0,,,,,,,,,orange,hexagon
0.0,5.0,1.0,1.0,6.0,6.0,295.5627780002032,3.0,0.0,part_2,go,250.0,450.0,1.0,,,,,,,,,orange,hexagon
0.0,2.0,2.0,0.0,6.0,6.0,430.8031800001117,3.0,0.0,part_2,go,250.0,450.0,1.0,,,,,,,,,green,I
0.0,7.0,3.0,1.0,6.0,6.0,341.1596900000404,3.0,0.0,part_2,stop,250.0,450.0,3.0,,,,,,,,,cyan,circle
0.0,3.0,3.0,0.0,6.0,6.0,567.1072019999883,3.0,0.0,part_2,go,250.0,400.0,1.0,,,,,,,,,yellow,triangle
0.0,4.0,4.0,0.0,6.0,6.0,541.2379100002909,3.0,0.0,part_2,go,250.0,400.0,1.0,,,,,,,,,blue,square
0.0,8.0,4.0,1.0,5.0,5.0,477.5921720001861,3.0,0.0,part_2,go,250.0,400.0,1.0,,,,,,,,,gray,diamond
0.0,1.0,1.0,0.0,5.0,5.0,573.6325460002263,3.0,0.0,part_2,go,250.0,400.0,1.0,,,,,,,,,magenta,flipped triangle
0.0,6.0,2.0,1.0,6.0,6.0,305.8492679997471,3.0,0.0,part_2,go,250.0,400.0,1.0,,,,,,,,,white,cross
0.0,3.0,3.0,0.0,6.0,6.0,354.6159960001205,3.0,0.0,part_2,go,250.0,400.0,1.0,,,,,,,,,yellow,triangle
0.0,8.0,4.0,1.0,6.0,6.0,470.0520409996898,3.0,0.0,part_2,stop,250.0,400.0,3.0,,,,,,,,,gray,diamond
0.0,4.0,4.0,0.0,6.0,6.0,402.492021999933,4.0,0.0,part_2,go,250.0,350.0,1.0,,,,,,,,,blue,square
0.0,8.0,4.0,1.0,5.0,5.0,259.2277979997561,4.0,0.0,part_2,go,250.0,350.0,1.0,,,,,,,,,gray,diamond
0.0,3.0,3.0,0.0,5.0,5.0,387.2145450000062,4.0,0.0,part_2,go,250.0,350.0,1.0,,,,,,,,,yellow,triangle
0.0,2.0,2.0,0.0,5.0,5.0,362.4525629998061,4.0,0.0,part_2,go,250.0,350.0,1.0,,,,,,,,,green,I
0.0,7.0,3.0,1.0,5.0,5.0,290.4398410000794,4.0,0.0,part_2,stop,250.0,350.0,3.0,,,,,,,,,cyan,circle
0.0,2.0,2.0,0.0,5.0,5.0,304.3965460001345,4.0,0.0,part_2,go,200.0,350.0,1.0,,,,,,,,,green,I
0.0,4.0,4.0,0.0,5.0,5.0,427.5958560001527,4.0,0.0,part_2,go,200.0,350.0,1.0,,,,,,,,,blue,square
0.0,4.0,4.0,0.0,6.0,6.0,336.1263050001071,4.0,0.0,part_2,go,200.0,350.0,1.0,,,,,,,,,blue,square
0.0,8.0,4.0,1.0,6.0,6.0,434.5045050004046,4.0,0.0,part_2,stop,200.0,350.0,3.0,,,,,,,,,gray,diamond
0.0,3.0,3.0,0.0,6.0,6.0,493.167011999958,4.0,0.0,part_2,go,200.0,300.0,1.0,,,,,,,,,yellow,triangle
0.0,5.0,1.0,1.0,6.0,6.0,425.5536350001421,4.0,0.0,part_2,stop,200.0,300.0,3.0,,,,,,,,,orange,hexagon
0.0,6.0,2.0,1.0,6.0,6.0,298.3959489997687,4.0,0.0,part_2,stop,200.0,250.0,3.0,,,,,,,,,white,cross
0.0,5.0,1.0,1.0,5.0,5.0,282.589874000223,4.0,0.0,part_2,stop,200.0,200.0,3.0,,,,,,,,,orange,hexagon
0.0,8.0,4.0,1.0,6.0,6.0,614.2509179999252,4.0,0.0,part_2,go,150.0,200.0,1.0,,,,,,,,,gray,diamond
0.0,7.0,3.0,1.0,5.0,5.0,691.3173879997885,4.0,0.0,part_2,go,150.0,200.0,1.0,,,,,,,,,cyan,circle
0.0,8.0,4.0,1.0,5.0,0.0,0.0,4.0,0.0,part_2,stop,150.0,200.0,4.0,,,,,,,,,gray,diamond
0.0,2.0,2.0,0.0,6.0,6.0,465.00177300004,4.0,0.0,part_2,go,200.0,200.0,1.0,,,,,,,,,green,I
0.0,5.0,1.0,1.0,5.0,0.0,0.0,4.0,0.0,part_2,stop,200.0,200.0,4.0,,,,,,,,,orange,hexagon
0.0,2.0,2.0,0.0,6.0,6.0,695.4662110001664,4.0,0.0,part_2,go,250.0,200.0,1.0,,,,,,,,,green,I
0.0,3.0,3.0,0.0,5.0,5.0,385.6705000002876,4.0,0.0,part_2,go,250.0,200.0,1.0,,,,,,,,,yellow,triangle
0.0,4.0,4.0,0.0,5.0,5.0,357.2524790001807,4.0,0.0,part_2,go,250.0,200.0,1.0,,,,,,,,,blue,square
0.0,1.0,1.0,0.0,5.0,5.0,507.4081009997826,4.0,0.0,part_2,go,250.0,200.0,1.0,,,,,,,,,magenta,flipped triangle
0.0,1.0,1.0,0.0,5.0,5.0,523.7633820001975,4.0,0.0,part_2,go,250.0,200.0,1.0,,,,,,,,,magenta,flipped triangle
0.0,5.0,1.0,1.0,6.0,0.0,0.0,4.0,0.0,part_2,stop,250.0,200.0,4.0,,,,,,,,,orange,hexagon
0.0,5.0,1.0,1.0,5.0,5.0,516.5515400003642,4.0,0.0,part_2,go,250.0,250.0,1.0,,,,,,,,,orange,hexagon
0.0,8.0,4.0,1.0,5.0,5.0,399.3547770000987,4.0,0.0,part_2,stop,250.0,250.0,3.0,,,,,,,,,gray,diamond
0.0,2.0,2.0,0.0,5.0,5.0,540.4688159997022,4.0,0.0,part_2,go,200.0,250.0,1.0,,,,,,,,,green,I
0.0,2.0,2.0,0.0,5.0,5.0,538.7366949998977,4.0,0.0,part_2,go,200.0,250.0,1.0,,,,,,,,,green,I
0.0,3.0,3.0,0.0,6.0,6.0,642.8653920002034,4.0,0.0,part_2,go,200.0,250.0,1.0,,,,,,,,,yellow,triangle
0.0,8.0,4.0,1.0,5.0,0.0,0.0,4.0,0.0,part_2,stop,200.0,250.0,4.0,,,,,,,,,gray,diamond
0.0,2.0,2.0,0.0,6.0,6.0,581.467063999753,4.0,0.0,part_2,go,250.0,250.0,1.0,,,,,,,,,green,I
0.0,1.0,1.0,0.0,5.0,5.0,566.5380609998465,4.0,0.0,part_2,go,250.0,250.0,1.0,,,,,,,,,magenta,flipped triangle
0.0,1.0,1.0,0.0,5.0,5.0,443.9554189998489,4.0,0.0,part_2,go,250.0,250.0,1.0,,,,,,,,,magenta,flipped triangle
0.0,4.0,4.0,0.0,5.0,5.0,447.07366800003,4.0,0.0,part_2,go,250.0,250.0,1.0,,,,,,,,,blue,square
0.0,4.0,4.0,0.0,5.0,5.0,562.7438689998598,4.0,0.0,part_2,go,250.0,250.0,1.0,,,,,,,,,blue,square
0.0,7.0,3.0,1.0,6.0,0.0,0.0,4.0,0.0,part_2,stop,250.0,250.0,4.0,,,,,,,,,cyan,circle
0.0,3.0,3.0,0.0,5.0,5.0,433.0621939998309,5.0,0.0,part_2,go,250.0,300.0,1.0,,,,,,,,,yellow,triangle
0.0,6.0,2.0,1.0,6.0,6.0,331.0878130000674,5.0,0.0,part_2,stop,250.0,300.0,3.0,,,,,,,,,white,cross
0.0,8.0,4.0,1.0,5.0,5.0,428.4380770000098,5.0,0.0,part_2,stop,250.0,250.0,3.0,,,,,,,,,gray,diamond
0.0,2.0,2.0,0.0,5.0,5.0,572.2780739997688,5.0,0.0,part_2,go,200.0,250.0,1.0,,,,,,,,,green,I
0.0,6.0,2.0,1.0,5.0,5.0,366.7688949999501,5.0,0.0,part_2,stop,200.0,250.0,3.0,,,,,,,,,white,cross
0.0,6.0,2.0,1.0,5.0,0.0,0.0,5.0,0.0,part_2,stop,150.0,250.0,4.0,,,,,,,,,white,cross
0.0,3.0,3.0,0.0,5.0,5.0,603.7702039998294,5.0,0.0,part_2,go,200.0,250.0,1.0,,,,,,,,,yellow,triangle
0.0,6.0,2.0,1.0,5.0,0.0,0.0,5.0,0.0,part_2,stop,200.0,250.0,4.0,,,,,,,,,white,cross
0.0,7.0,3.0,1.0,5.0,5.0,430.0042999998368,5.0,0.0,part_2,stop,250.0,250.0,3.0,,,,,,,,,cyan,circle
0.0,4.0,4.0,0.0,6.0,6.0,376.2062950004292,5.0,0.0,part_2,go,200.0,250.0,1.0,,,,,,,,,blue,square
0.0,7.0,3.0,1.0,5.0,5.0,362.9840980001972,5.0,0.0,part_2,stop,200.0,250.0,3.0,,,,,,,,,cyan,circle
0.0,1.0,1.0,0.0,5.0,5.0,701.028770999983,5.0,0.0,part_2,go,150.0,250.0,1.0,,,,,,,,,magenta,flipped triangle
0.0,5.0,1.0,1.0,6.0,6.0,361.6915960001279,5.0,0.0,part_2,stop,150.0,250.0,3.0,,,,,,,,,orange,hexagon
0.0,8.0,4.0,1.0,6.0,6.0,457.6496209997458,5.0,0.0,part_2,go,150.0,200.0,1.0,,,,,,,,,gray,diamond
0.0,5.0,1.0,1.0,5.0,0.0,0.0,5.0,0.0,part_2,stop,150.0,200.0,4.0,,,,,,,,,orange,hexagon
0.0,7.0,3.0,1.0,6.0,0.0,0.0,5.0,0.0,part_2,stop,200.0,200.0,4.0,,,,,,,,,cyan,circle
0.0,1.0,1.0,0.0,6.0,6.0,819.7156940000241,5.0,0.0,part_2,go,200.0,250.0,1.0,,,,,,,,,magenta,flipped triangle
0.0,2.0,2.0,0.0,5.0,5.0,757.5481889998628,5.0,0.0,part_2,go,200.0,250.0,1.0,,,,,,,,,green,I
0.0,4.0,4.0,0.0,5.0,5.0,307.0389790000263,5.0,0.0,part_2,go,200.0,250.0,1.0,,,,,,,,,blue,square
0.0,7.0,3.0,1.0,6.0,6.0,608.1933440000284,5.0,0.0,part_2,go,200.0,250.0,1.0,,,,,,,,,cyan,circle
0.0,1.0,1.0,0.0,6.0,6.0,451.0159239998756,5.0,0.0,part_2,go,200.0,250.0,1.0,,,,,,,,,magenta,flipped triangle
0.0,4.0,4.0,0.0,6.0,6.0,527.1014780000769,5.0,0.0,part_2,go,200.0,250.0,1.0,,,,,,,,,blue,square
0.0,4.0,4.0,0.0,5.0,5.0,649.3855849998909,5.0,0.0,part_2,go,200.0,250.0,1.0,,,,,,,,,blue,square
0.0,4.0,4.0,0.0,6.0,6.0,370.6523680002647,5.0,0.0,part_2,go,200.0,250.0,1.0,,,,,,,,,blue,square
0.0,6.0,2.0,1.0,6.0,0.0,0.0,5.0,0.0,part_2,stop,200.0,250.0,4.0,,,,,,,,,white,cross
0.0,1.0,1.0,0.0,5.0,5.0,513.0454299996927,5.0,0.0,part_2,go,200.0,300.0,1.0,,,,,,,,,magenta,flipped triangle
0.0,7.0,3.0,1.0,5.0,0.0,0.0,5.0,0.0,part_2,stop,200.0,300.0,4.0,,,,,,,,,cyan,circle
0.0,8.0,4.0,1.0,6.0,0.0,0.0,5.0,0.0,part_2,stop,250.0,300.0,4.0,,,,,,,,,gray,diamond
0.0,4.0,4.0,0.0,6.0,6.0,650.8291469999676,5.0,0.0,part_2,go,250.0,350.0,1.0,,,,,,,,,blue,square
0.0,1.0,1.0,0.0,6.0,6.0,556.7412830000649,5.0,0.0,part_2,go,250.0,350.0,1.0,,,,,,,,,magenta,flipped triangle
0.0,6.0,2.0,1.0,5.0,0.0,0.0,5.0,0.0,part_2,stop,250.0,350.0,4.0,,,,,,,,,white,cross
0.0,7.0,3.0,1.0,6.0,6.0,333.1056540000645,5.0,0.0,part_2,stop,300.0,350.0,3.0,,,,,,,,,cyan,circle
0.0,8.0,4.0,1.0,6.0,0.0,0.0,5.0,0.0,part_2,stop,300.0,300.0,4.0,,,,,,,,,gray,diamond
0.0,6.0,2.0,1.0,5.0,5.0,611.7869029999383,5.0,0.0,part_2,go,300.0,350.0,1.0,,,,,,,,,white,cross
0.0,4.0,4.0,0.0,5.0,5.0,678.0507480002598,5.0,0.0,part_2,go,300.0,350.0,1.0,,,,,,,,,blue,square
0.0,6.0,2.0,1.0,5.0,0.0,0.0,5.0,0.0,part_2,stop,300.0,350.0,4.0,,,,,,,,,white,cross
0.0,1.0,1.0,0.0,6.0,6.0,362.9978369999662,6.0,0.0,part_2,go,350.0,350.0,1.0,,,,,,,,,magenta,flipped triangle
0.0,8.0,4.0,1.0,5.0,5.0,387.6684550000391,6.0,0.0,part_2,stop,350.0,350.0,3.0,,,,,,,,,gray,diamond
0.0,2.0,2.0,0.0,5.0,5.0,494.0144049996888,6.0,0.0,part_2,go,300.0,350.0,1.0,,,,,,,,,green,I
0.0,6.0,2.0,1.0,6.0,6.0,585.960822999823,6.0,0.0,part_2,go,300.0,350.0,1.0,,,,,,,,,white,cross
0.0,4.0,4.0,0.0,6.0,6.0,495.5285799997,6.0,0.0,part_2,go,300.0,350.0,1.0,,,,,,,,,blue,square
0.0,5.0,1.0,1.0,5.0,5.0,544.066212999951,6.0,0.0,part_2,stop,300.0,350.0,3.0,,,,,,,,,orange,hexagon
0.0,1.0,1.0,0.0,5.0,5.0,780.8957420002116,6.0,0.0,part_2,go,250.0,350.0,1.0,,,,,,,,,magenta,flipped triangle
0.0,6.0,2.0,1.0,5.0,5.0,586.7574109997804,6.0,0.0,part_2,go,250.0,350.0,1.0,,,,,,,,,white,cross
0.0,3.0,3.0,0.0,5.0,5.0,282.0961100001113,6.0,0.0,part_2,go,250.0,350.0,1.0,,,,,,,,,yellow,triangle
0.0,6.0,2.0,1.0,5.0,5.0,429.4430380000449,6.0,0.0,part_2,stop,250.0,350.0,3.0,,,,,,,,,white,cross
0.0,6.0,2.0,1.0,6.0,6.0,341.3778400004048,6.0,0.0,part_2,stop,200.0,350.0,3.0,,,,,,,,,white,cross
0.0,2.0,2.0,0.0,6.0,6.0,527.1956490000775,6.0,0.0,part_2,go,200.0,300.0,1.0,,,,,,,,,green,I
0.0,8.0,4.0,1.0,6.0,0.0,0.0,6.0,0.0,part_2,stop,200.0,300.0,4.0,,,,,,,,,gray,diamond
0.0,5.0,1.0,1.0,6.0,6.0,390.4091139997945,6.0,0.0,part_2,stop,200.0,350.0,3.0,,,,,,,,,orange,hexagon
0.0,7.0,3.0,1.0,6.0,6.0,486.1611169999378,6.0,0.0,part_2,stop,200.0,300.0,3.0,,,,,,,,,cyan,circle
0.0,3.0,3.0,0.0,5.0,5.0,617.6267609998831,6.0,0.0,part_2,go,200.0,250.0,1.0,,,,,,,,,yellow,triangle
0.0,8.0,4.0,1.0,6.0,0.0,0.0,6.0,0.0,part_2,stop,200.0,250.0,4.0,,,,,,,,,gray,diamond
0.0,3.0,3.0,0.0,6.0,6.0,473.8503239996134,6.0,0.0,part_2,go,200.0,300.0,1.0,,,,,,,,,yellow,triangle
0.0,6.0,2.0,1.0,6.0,6.0,480.2745609999874,6.0,0.0,part_2,stop,200.0,300.0,3.0,,,,,,,,,white,cross
0.0,5.0,1.0,1.0,6.0,0.0,0.0,6.0,0.0,part_2,stop,200.0,250.0,4.0,,,,,,,,,orange,hexagon
0.0,1.0,1.0,0.0,5.0,5.0,605.4974540002149,6.0,0.0,part_2,go,200.0,300.0,1.0,,,,,,,,,magenta,flipped triangle
0.0,5.0,1.0,1.0,6.0,6.0,441.4261659999283,6.0,0.0,part_2,go,200.0,300.0,1.0,,,,,,,,,orange,hexagon
0.0,1.0,1.0,0.0,5.0,5.0,423.7851189996036,6.0,0.0,part_2,go,200.0,300.0,1.0,,,,,,,,,magenta,flipped triangle
0.0,7.0,3.0,1.0,5.0,5.0,453.2603800003016,6.0,0.0,part_2,go,200.0,300.0,1.0,,,,,,,,,cyan,circle
0.0,7.0,3.0,1.0,6.0,0.0,0.0,6.0,0.0,part_2,stop,200.0,300.0,4.0,,,,,,,,,cyan,circle
0.0,6.0,2.0,1.0,6.0,6.0,648.0426349999107,6.0,0.0,part_2,go,200.0,350.0,1.0,,,,,,,,,white,cross
0.0,3.0,3.0,0.0,5.0,5.0,473.748846000035,6.0,0.0,part_2,go,200.0,350.0,1.0,,,,,,,,,yellow,triangle
0.0,3.0,3.0,0.0,5.0,5.0,278.709051000078,6.0,0.0,part_2,go,200.0,350.0,1.0,,,,,,,,,yellow,triangle
0.0,2.0,2.0,0.0,6.0,6.0,723.467330999938,6.0,0.0,part_2,go,200.0,350.0,1.0,,,,,,,,,green,I
0.0,3.0,3.0,0.0,5.0,5.0,304.5564740000372,6.0,0.0,part_2,go,200.0,350.0,1.0,,,,,,,,,yellow,triangle
0.0,1.0,1.0,0.0,5.0,5.0,336.2726790001034,6.0,0.0,part_2,go,200.0,350.0,1.0,,,,,,,,,magenta,flipped triangle
0.0,8.0,4.0,1.0,6.0,0.0,0.0,6.0,0.0,part_2,stop,200.0,350.0,4.0,,,,,,,,,gray,diamond
0.0,2.0,2.0,0.0,5.0,5.0,580.6033769999885,6.0,0.0,part_2,go,200.0,400.0,1.0,,,,,,,,,green,I
0.0,7.0,3.0,1.0,5.0,5.0,295.1064039998528,6.0,0.0,part_2,stop,200.0,400.0,3.0,,,,,,,,,cyan,circle
0.0,8.0,4.0,1.0,6.0,6.0,555.0338640000518,6.0,0.0,part_2,stop,150.0,400.0,3.0,,,,,,,,,gray,diamond
0.0,2.0,2.0,0.0,5.0,5.0,624.2569770001865,6.0,0.0,part_2,go,150.0,350.0,1.0,,,,,,,,,green,I
0.0,2.0,2.0,0.0,5.0,5.0,523.11876199974,7.0,0.0,part_2,go,150.0,350.0,1.0,,,,,,,,,green,I
0.0,5.0,1.0,1.0,6.0,6.0,357.1724420003193,7.0,0.0,part_2,go,150.0,350.0,1.0,,,,,,,,,orange,hexagon
0.0,5.0,1.0,1.0,6.0,6.0,332.1892390003995,7.0,0.0,part_2,stop,150.0,350.0,3.0,,,,,,,,,orange,hexagon
0.0,4.0,4.0,0.0,6.0,6.0,525.7657160000235,7.0,0.0,part_2,go,150.0,300.0,1.0,,,,,,,,,blue,square
0.0,5.0,1.0,1.0,5.0,5.0,543.3499179998762,7.0,0.0,part_2,go,150.0,300.0,1.0,,,,,,,,,orange,hexagon
0.0,4.0,4.0,0.0,6.0,6.0,217.6385349998781,7.0,0.0,part_2,go,150.0,300.0,1.0,,,,,,,,,blue,square
0.0,3.0,3.0,0.0,6.0,6.0,448.7203819999195,7.0,0.0,part_2,go,150.0,300.0,1.0,,,,,,,,,yellow,triangle
0.0,5.0,1.0,1.0,5.0,5.0,254.1838749998533,7.0,0.0,part_2,stop,150.0,300.0,3.0,,,,,,,,,orange,hexagon
0.0,2.0,2.0,0.0,6.0,6.0,523.4591509997699,7.0,0.0,part_2,go,100.0,300.0,1.0,,,,,,,,,green,I
0.0,8.0,4.0,1.0,6.0,6.0,379.7601690002921,7.0,0.0,part_2,stop,100.0,300.0,3.0,,,,,,,,,gray,diamond
0.0,8.0,4.0,1.0,6.0,6.0,291.3596690000304,7.0,0.0,part_2,stop,100.0,250.0,3.0,,,,,,,,,gray,diamond
0.0,4.0,4.0,0.0,5.0,5.0,438.7651429997277,7.0,0.0,part_2,go,100.0,200.0,1.0,,,,,,,,,blue,square
0.0,4.0,4.0,0.0,5.0,5.0,381.96240199977177,7.0,0.0,part_2,go,100.0,200.0,1.0,,,,,,,,,blue,square
0.0,6.0,2.0,1.0,6.0,6.0,269.1455240001232,7.0,0.0,part_2,stop,100.0,200.0,3.0,,,,,,,,,white,cross
0.0,4.0,4.0,0.0,6.0,6.0,509.031751999828,7.0,0.0,part_2,go,100.0,150.0,1.0,,,,,,,,,blue,square
0.0,5.0,1.0,1.0,5.0,0.0,0.0,7.0,0.0,part_2,stop,100.0,150.0,4.0,,,,,,,,,orange,hexagon
0.0,8.0,4.0,1.0,5.0,0.0,0.0,7.0,0.0,part_2,stop,150.0,150.0,4.0,,,,,,,,,gray,diamond
0.0,2.0,2.0,0.0,5.0,5.0,368.6195340001177,7.0,0.0,part_2,go,200.0,150.0,1.0,,,,,,,,,green,I
0.0,6.0,2.0,1.0,6.0,6.0,426.1615760001405,7.0,0.0,part_2,go,200.0,150.0,1.0,,,,,,,,,white,cross
0.0,7.0,3.0,1.0,6.0,6.0,414.2751229996975,7.0,0.0,part_2,go,200.0,150.0,1.0,,,,,,,,,cyan,circle
0.0,7.0,3.0,1.0,5.0,5.0,405.7610830000158,7.0,0.0,part_2,stop,200.0,150.0,3.0,,,,,,,,,cyan,circle
0.0,5.0,1.0,1.0,5.0,0.0,0.0,7.0,0.0,part_2,stop,150.0,150.0,4.0,,,,,,,,,orange,hexagon
0.0,4.0,4.0,0.0,6.0,6.0,459.751931000028,7.0,0.0,part_2,go,200.0,150.0,1.0,,,,,,,,,blue,square
0.0,8.0,4.0,1.0,5.0,0.0,0.0,7.0,0.0,part_2,stop,200.0,150.0,4.0,,,,,,,,,gray,diamond
0.0,3.0,3.0,0.0,5.0,5.0,602.7008189998924,7.0,0.0,part_2,go,250.0,150.0,1.0,,,,,,,,,yellow,triangle
0.0,4.0,4.0,0.0,6.0,6.0,373.7592950001271,7.0,0.0,part_2,go,250.0,150.0,1.0,,,,,,,,,blue,square
0.0,5.0,1.0,1.0,5.0,5.0,392.0706289995905,7.0,0.0,part_2,stop,250.0,150.0,3.0,,,,,,,,,orange,hexagon
0.0,2.0,2.0,0.0,6.0,6.0,507.36406600026385,7.0,0.0,part_2,go,200.0,150.0,1.0,,,,,,,,,green,I
0.0,7.0,3.0,1.0,5.0,0.0,0.0,7.0,0.0,part_2,stop,200.0,150.0,4.0,,,,,,,,,cyan,circle
0.0,7.0,3.0,1.0,6.0,6.0,507.0464969999193,7.0,0.0,part_2,stop,250.0,150.0,3.0,,,,,,,,,cyan,circle
0.0,2.0,2.0,0.0,5.0,5.0,535.7101650001823,7.0,0.0,part_2,go,250.0,100.0,1.0,,,,,,,,,green,I
0.0,6.0,2.0,1.0,6.0,0.0,0.0,7.0,0.0,part_2,stop,250.0,100.0,4.0,,,,,,,,,white,cross
0.0,6.0,2.0,1.0,5.0,0.0,0.0,7.0,0.0,part_2,stop,250.0,150.0,4.0,,,,,,,,,white,cross
0.0,2.0,2.0,0.0,6.0,6.0,524.090686999898,7.0,0.0,part_2,go,300.0,150.0,1.0,,,,,,,,,green,I
0.0,6.0,2.0,1.0,6.0,6.0,285.8744350000961,7.0,0.0,part_2,stop,300.0,150.0,3.0,,,,,,,,,white,cross
0.0,5.0,1.0,1.0,6.0,6.0,620.1750840000386,7.0,0.0,part_2,go,300.0,100.0,1.0,,,,,,,,,orange,hexagon
0.0,3.0,3.0,0.0,6.0,6.0,356.8062800000007,8.0,0.0,part_2,go,300.0,100.0,1.0,,,,,,,,,yellow,triangle
0.0,8.0,4.0,1.0,5.0,5.0,336.8778850003764,8.0,0.0,part_2,stop,300.0,100.0,3.0,,,,,,,,,gray,diamond
0.0,7.0,3.0,1.0,5.0,0.0,0.0,8.0,0.0,part_2,stop,250.0,100.0,4.0,,,,,,,,,cyan,circle
0.0,4.0,4.0,0.0,5.0,5.0,642.7874010000778,8.0,0.0,part_2,go,300.0,100.0,1.0,,,,,,,,,blue,square
0.0,3.0,3.0,0.0,5.0,5.0,470.0233960002151,8.0,0.0,part_2,go,300.0,100.0,1.0,,,,,,,,,yellow,triangle
0.0,1.0,1.0,0.0,6.0,6.0,342.8399769995849,8.0,0.0,part_2,go,300.0,100.0,1.0,,,,,,,,,magenta,flipped triangle
0.0,3.0,3.0,0.0,5.0,5.0,375.7273549999809,8.0,0.0,part_2,go,300.0,100.0,1.0,,,,,,,,,yellow,triangle
0.0,6.0,2.0,1.0,5.0,5.0,452.8098629998567,8.0,0.0,part_2,stop,300.0,100.0,3.0,,,,,,,,,white,cross
0.0,1.0,1.0,0.0,5.0,5.0,434.1365020000012,8.0,0.0,part_2,go,250.0,100.0,1.0,,,,,,,,,magenta,flipped triangle
0.0,8.0,4.0,1.0,6.0,6.0,517.3954689998936,8.0,0.0,part_2,go,250.0,100.0,1.0,,,,,,,,,gray,diamond
0.0,5.0,1.0,1.0,5.0,0.0,0.0,8.0,0.0,part_2,stop,250.0,100.0,4.0,,,,,,,,,orange,hexagon
0.0,1.0,1.0,0.0,6.0,6.0,485.4579490001924,8.0,0.0,part_2,go,300.0,100.0,1.0,,,,,,,,,magenta,flipped triangle
0.0,1.0,1.0,0.0,6.0,6.0,480.8775689998583,8.0,0.0,part_2,go,300.0,100.0,1.0,,,,,,,,,magenta,flipped triangle
0.0,1.0,1.0,0.0,6.0,6.0,485.5579859995487,8.0,0.0,part_2,go,300.0,100.0,1.0,,,,,,,,,magenta,flipped triangle
0.0,7.0,3.0,1.0,5.0,0.0,0.0,8.0,0.0,part_2,stop,300.0,100.0,4.0,,,,,,,,,cyan,circle
0.0,1.0,1.0,0.0,5.0,5.0,647.5065969998468,8.0,0.0,part_2,go,350.0,100.0,1.0,,,,,,,,,magenta,flipped triangle
0.0,4.0,4.0,0.0,6.0,6.0,690.2393840000514,8.0,0.0,part_2,go,350.0,100.0,1.0,,,,,,,,,blue,square
0.0,2.0,2.0,0.0,6.0,6.0,411.5339469999526,8.0,0.0,part_2,go,350.0,100.0,1.0,,,,,,,,,green,I
0.0,1.0,1.0,0.0,5.0,5.0,566.7576569999255,8.0,0.0,part_2,go,350.0,100.0,1.0,,,,,,,,,magenta,flipped triangle
0.0,6.0,2.0,1.0,5.0,0.0,0.0,8.0,0.0,part_2,stop,350.0,100.0,4.0,,,,,,,,,white,cross
0.0,7.0,3.0,1.0,5.0,0.0,0.0,8.0,0.0,part_2,stop,400.0,100.0,4.0,,,,,,,,,cyan,circle
0.0,3.0,3.0,0.0,5.0,5.0,602.8128819998528,8.0,0.0,part_2,go,450.0,100.0,1.0,,,,,,,,,yellow,triangle
0.0,3.0,3.0,0.0,6.0,6.0,660.7174350001515,8.0,0.0,part_2,go,450.0,100.0,1.0,,,,,,,,,yellow,triangle
0.0,8.0,4.0,1.0,6.0,6.0,441.9788479999624,8.0,0.0,part_2,go,450.0,100.0,1.0,,,,,,,,,gray,diamond
0.0,5.0,1.0,1.0,6.0,0.0,0.0,8.0,0.0,part_2,stop,450.0,100.0,4.0,,,,,,,,,orange,hexagon
0.0,6.0,2.0,1.0,6.0,6.0,609.2878110002857,8.0,0.0,part_2,go,450.0,150.0,1.0,,,,,,,,,white,cross
0.0,2.0,2.0,0.0,6.0,6.0,528.6876219997794,8.0,0.0,part_2,go,450.0,150.0,1.0,,,,,,,,,green,I
0.0,7.0,3.0,1.0,5.0,5.0,501.80857399982415,8.0,0.0,part_2,go,450.0,150.0,1.0,,,,,,,,,cyan,circle
0.0,1.0,1.0,0.0,5.0,5.0,543.1017189998784,8.0,0.0,part_2,go,450.0,150.0,1.0,,,,,,,,,magenta,flipped triangle
0.0,5.0,1.0,1.0,5.0,5.0,412.8736099996786,8.0,0.0,part_2,stop,450.0,150.0,3.0,,,,,,,,,orange,hexagon
0.0,1.0,1.0,0.0,6.0,6.0,471.3608580000255,8.0,0.0,part_2,go,400.0,150.0,1.0,,,,,,,,,magenta,flipped triangle
0.0,6.0,2.0,1.0,6.0,0.0,0.0,8.0,0.0,part_2,stop,400.0,150.0,4.0,,,,,,,,,white,cross
0.0,5.0,1.0,1.0,5.0,0.0,0.0,8.0,0.0,part_2,stop,400.0,200.0,4.0,,,,,,,,,orange,hexagon
0.0,3.0,3.0,0.0,5.0,5.0,538.5599559999719,8.0,0.0,part_2,go,450.0,200.0,1.0,,,,,,,,,yellow,triangle
0.0,1.0,1.0,0.0,6.0,6.0,414.3863889999011,8.0,0.0,part_2,go,450.0,200.0,1.0,,,,,,,,,magenta,flipped triangle
0.0,5.0,1.0,1.0,6.0,6.0,319.4747550001011,8.0,0.0,part_2,stop,450.0,200.0,3.0,,,,,,,,,orange,hexagon
0.0,4.0,4.0,0.0,7.0,4.0,24.6808669999154,1.0,1.0,part_3,go,0.0,0.0,0.0,39.0,1.0,156.0,78.0,195.0,39.0,117.0,234.0,blue,square
0.0,5.0,1.0,1.0,7.0,5.0,791.6812080002273,1.0,1.0,part_3,go,0.0,0.0,0.0,44.0,1.0,132.0,220.0,176.0,88.0,44.0,264.0,orange,hexagon
0.0,2.0,2.0,0.0,7.0,2.0,934.5653649997984,1.0,1.0,part_3,go,0.0,0.0,0.0,264.0,6.0,132.0,264.0,220.0,88.0,176.0,44.0,green,I
0.0,3.0,3.0,0.0,7.0,6.0,1437.680558000011,1.0,1.0,part_3,go,0.0,0.0,0.0,78.0,2.0,156.0,39.0,117.0,195.0,234.0,78.0,yellow,triangle
0.0,4.0,4.0,0.0,7.0,4.0,1082.9345600000124,1.0,1.0,part_3,go,0.0,0.0,0.0,176.0,4.0,264.0,132.0,88.0,176.0,44.0,220.0,blue,square
0.0,5.0,1.0,1.0,7.0,2.0,1901.4623949997256,1.0,1.0,part_3,go,0.0,0.0,0.0,324.0,6.0,216.0,324.0,54.0,270.0,108.0,162.0,orange,hexagon
0.0,2.0,2.0,0.0,7.0,4.0,2104.529419999835,1.0,1.0,part_3,go,0.0,0.0,0.0,245.0,5.0,49.0,98.0,147.0,245.0,294.0,196.0,green,I
0.0,1.0,1.0,0.0,7.0,2.0,1753.2880849998946,1.0,1.0,part_3,go,0.0,0.0,0.0,147.0,3.0,245.0,147.0,98.0,294.0,196.0,49.0,magenta,flipped triangle
0.0,4.0,4.0,0.0,7.0,5.0,551.9342210000104,1.0,1.0,part_3,go,0.0,0.0,0.0,117.0,3.0,78.0,234.0,156.0,39.0,117.0,195.0,blue,square
0.0,3.0,3.0,0.0,7.0,2.0,2399.935667000136,1.0,1.0,part_3,go,0.0,0.0,0.0,162.0,3.0,270.0,162.0,324.0,216.0,108.0,54.0,yellow,triangle
0.0,8.0,4.0,1.0,7.0,4.0,1175.7889199998317,1.0,1.0,part_3,go,0.0,0.0,0.0,117.0,3.0,234.0,78.0,39.0,117.0,156.0,195.0,gray,diamond
0.0,6.0,2.0,1.0,7.0,2.0,866.6256280002926,1.0,1.0,part_3,go,0.0,0.0,0.0,78.0,2.0,117.0,78.0,195.0,39.0,234.0,156.0,white,cross
0.0,2.0,2.0,0.0,7.0,6.0,1042.0444470000805,1.0,1.0,part_3,go,0.0,0.0,0.0,170.0,5.0,102.0,204.0,34.0,136.0,68.0,170.0,green,I
0.0,7.0,3.0,1.0,7.0,2.0,335.1489609999589,1.0,1.0,part_3,go,0.0,0.0,0.0,117.0,3.0,39.0,117.0,195.0,234.0,156.0,78.0,cyan,circle
0.0,6.0,2.0,1.0,7.0,4.0,1624.897090000104,1.0,1.0,part_3,go,0.0,0.0,0.0,108.0,2.0,270.0,162.0,324.0,108.0,54.0,216.0,white,cross
0.0,1.0,1.0,0.0,7.0,3.0,940.6274839998332,1.0,1.0,part_3,go,0.0,0.0,0.0,234.0,6.0,39.0,78.0,234.0,117.0,195.0,156.0,magenta,flipped triangle
0.0,3.0,3.0,0.0,7.0,5.0,592.0664400000533,1.0,1.0,part_3,go,0.0,0.0,0.0,147.0,3.0,245.0,98.0,196.0,294.0,147.0,49.0,yellow,triangle
0.0,7.0,3.0,1.0,7.0,3.0,1082.794955000281,1.0,1.0,part_3,go,0.0,0.0,0.0,162.0,3.0,108.0,324.0,162.0,54.0,270.0,216.0,cyan,circle
0.0,5.0,1.0,1.0,7.0,5.0,1357.9151869998896,1.0,1.0,part_3,go,0.0,0.0,0.0,147.0,3.0,245.0,196.0,98.0,49.0,147.0,294.0,orange,hexagon
0.0,8.0,4.0,1.0,7.0,6.0,1628.940400999909,1.0,1.0,part_3,go,0.0,0.0,0.0,176.0,4.0,132.0,44.0,264.0,220.0,88.0,176.0,gray,diamond
0.0,3.0,3.0,0.0,7.0,4.0,975.066194000192,2.0,1.0,part_3,go,0.0,0.0,0.0,270.0,5.0,108.0,324.0,162.0,270.0,54.0,216.0,yellow,triangle
0.0,1.0,1.0,0.0,7.0,2.0,2650.8751890000894,2.0,1.0,part_3,go,0.0,0.0,0.0,108.0,2.0,324.0,108.0,270.0,162.0,216.0,54.0,magenta,flipped triangle
0.0,4.0,4.0,0.0,7.0,5.0,1041.885426000135,2.0,1.0,part_3,go,0.0,0.0,0.0,162.0,3.0,324.0,108.0,270.0,54.0,162.0,216.0,blue,square
0.0,8.0,4.0,1.0,7.0,3.0,678.1138790001933,2.0,1.0,part_3,go,0.0,0.0,0.0,102.0,3.0,136.0,204.0,102.0,68.0,170.0,34.0,gray,diamond
0.0,1.0,1.0,0.0,7.0,5.0,917.4148310003148,2.0,1.0,part_3,go,0.0,0.0,0.0,102.0,3.0,170.0,136.0,34.0,204.0,102.0,68.0,magenta,flipped triangle
0.0,7.0,3.0,1.0,7.0,2.0,243.073008000465,2.0,1.0,part_3,go,0.0,0.0,0.0,88.0,2.0,132.0,88.0,44.0,176.0,220.0,264.0,cyan,circle
0.0,6.0,2.0,1.0,7.0,5.0,1348.3141480000995,2.0,1.0,part_3,go,0.0,0.0,0.0,68.0,2.0,204.0,170.0,34.0,136.0,68.0,102.0,white,cross
0.0,5.0,1.0,1.0,7.0,2.0,351.3499390001016,2.0,1.0,part_3,go,0.0,0.0,0.0,117.0,3.0,195.0,117.0,156.0,39.0,234.0,78.0,orange,hexagon
0.0,1.0,1.0,0.0,7.0,5.0,1201.614819000497,2.0,1.0,part_3,go,0.0,0.0,0.0,132.0,3.0,176.0,88.0,220.0,44.0,132.0,264.0,magenta,flipped triangle
0.0,7.0,3.0,1.0,7.0,2.0,481.951506999394,2.0,1.0,part_3,go,0.0,0.0,0.0,245.0,5.0,147.0,245.0,98.0,294.0,196.0,49.0,cyan,circle
0.0,3.0,3.0,0.0,7.0,4.0,1881.7632919999596,2.0,1.0,part_3,go,0.0,0.0,0.0,136.0,4.0,204.0,34.0,68.0,136.0,170.0,102.0,yellow,triangle
0.0,5.0,1.0,1.0,7.0,2.0,1917.8865949998,2.0,1.0,part_3,go,0.0,0.0,0.0,176.0,4.0,44.0,176.0,264.0,132.0,220.0,88.0,orange,hexagon
0.0,4.0,4.0,0.0,7.0,4.0,1389.4972050002252,2.0,1.0,part_3,go,0.0,0.0,0.0,170.0,5.0,136.0,68.0,204.0,170.0,102.0,34.0,blue,square
0.0,6.0,2.0,1.0,7.0,3.0,1656.0869220002132,2.0,1.0,part_3,go,0.0,0.0,0.0,54.0,1.0,162.0,270.0,54.0,216.0,324.0,108.0,white,cross
0.0,6.0,2.0,1.0,7.0,5.0,1386.7150229998515,2.0,1.0,part_3,go,0.0,0.0,0.0,49.0,1.0,147.0,98.0,245.0,196.0,49.0,294.0,white,cross
0.0,8.0,4.0,1.0,7.0,4.0,1983.575046000624,2.0,1.0,part_3,go,0.0,0.0,0.0,147.0,3.0,245.0,49.0,294.0,147.0,196.0,98.0,gray,diamond
0.0,3.0,3.0,0.0,7.0,4.0,2254.126692999307,2.0,1.0,part_3,go,0.0,0.0,0.0,245.0,5.0,49.0,294.0,147.0,245.0,196.0,98.0,yellow,triangle
0.0,8.0,4.0,1.0,7.0,2.0,982.4327910000648,2.0,1.0,part_3,go,0.0,0.0,0.0,102.0,3.0,170.0,102.0,68.0,204.0,136.0,34.0,gray,diamond
0.0,6.0,2.0,1.0,7.0,3.0,1238.7861830002294,2.0,1.0,part_3,go,0.0,0.0,0.0,44.0,1.0,220.0,176.0,44.0,264.0,88.0,132.0,white,cross
0.0,5.0,1.0,1.0,7.0,2.0,841.8989199999487,2.0,1.0,part_3,go,0.0,0.0,0.0,136.0,4.0,170.0,136.0,102.0,68.0,34.0,204.0,orange,hexagon
0.0,7.0,3.0,1.0,7.0,5.0,1199.8229509999874,3.0,1.0,part_3,go,0.0,0.0,0.0,294.0,6.0,98.0,147.0,196.0,49.0,294.0,245.0,cyan,circle
0.0,7.0,3.0,1.0,7.0,5.0,1143.181696999818,3.0,1.0,part_3,go,0.0,0.0,0.0,204.0,6.0,34.0,68.0,136.0,102.0,204.0,170.0,cyan,circle
0.0,4.0,4.0,0.0,7.0,5.0,1735.70122000001,3.0,1.0,part_3,go,0.0,0.0,0.0,88.0,2.0,132.0,264.0,176.0,44.0,88.0,220.0,blue,square
0.0,1.0,1.0,0.0,7.0,3.0,1115.9644299996216,3.0,1.0,part_3,go,0.0,0.0,0.0,132.0,3.0,88.0,44.0,132.0,220.0,264.0,176.0,magenta,flipped triangle
0.0,2.0,2.0,0.0,7.0,5.0,1748.8795989993378,3.0,1.0,part_3,go,0.0,0.0,0.0,162.0,3.0,216.0,270.0,54.0,108.0,162.0,324.0,green,I
0.0,1.0,1.0,0.0,7.0,1.0,1151.7827919997217,3.0,1.0,part_3,go,0.0,0.0,0.0,196.0,4.0,196.0,245.0,98.0,49.0,147.0,294.0,magenta,flipped triangle
0.0,5.0,1.0,1.0,7.0,2.0,384.7775660005936,3.0,1.0,part_3,go,0.0,0.0,0.0,136.0,4.0,102.0,136.0,170.0,68.0,204.0,34.0,orange,hexagon
0.0,2.0,2.0,0.0,7.0,5.0,875.0732309999876,3.0,1.0,part_3,go,0.0,0.0,0.0,34.0,1.0,170.0,204.0,136.0,102.0,34.0,68.0,green,I
0.0,2.0,2.0,0.0,7.0,2.0,1657.3767830004726,3.0,1.0,part_3,go,0.0,0.0,0.0,108.0,2.0,216.0,108.0,162.0,270.0,54.0,324.0,green,I
0.0,1.0,1.0,0.0,7.0,3.0,2511.949996999647,3.0,1.0,part_3,go,0.0,0.0,0.0,117.0,3.0,195.0,78.0,117.0,39.0,234.0,156.0,magenta,flipped triangle
0.0,6.0,2.0,1.0,7.0,2.0,2829.352511000252,3.0,1.0,part_3,go,0.0,0.0,0.0,156.0,4.0,78.0,156.0,117.0,234.0,195.0,39.0,white,cross
0.0,2.0,2.0,0.0,7.0,1.0,1352.77869499987,3.0,1.0,part_3,go,0.0,0.0,0.0,78.0,2.0,78.0,234.0,39.0,156.0,117.0,195.0,green,I
0.0,8.0,4.0,1.0,7.0,2.0,838.6461800000689,3.0,1.0,part_3,go,0.0,0.0,0.0,195.0,5.0,39.0,195.0,117.0,234.0,78.0,156.0,gray,diamond
0.0,2.0,2.0,0.0,7.0,5.0,1071.609346000514,3.0,1.0,part_3,go,0.0,0.0,0.0,78.0,2.0,156.0,39.0,234.0,117.0,78.0,195.0,green,I
0.0,8.0,4.0,1.0,7.0,2.0,2490.293433000261,3.0,1.0,part_3,go,0.0,0.0,0.0,132.0,3.0,220.0,132.0,176.0,88.0,44.0,264.0,gray,diamond
0.0,4.0,4.0,0.0,7.0,6.0,2143.414023999867,3.0,1.0,part_3,go,0.0,0.0,0.0,294.0,6.0,245.0,98.0,49.0,196.0,147.0,294.0,blue,square
0.0,6.0,2.0,1.0,7.0,2.0,2293.8865070000247,3.0,1.0,part_3,go,0.0,0.0,0.0,136.0,4.0,102.0,136.0,68.0,170.0,204.0,34.0,white,cross
0.0,5.0,1.0,1.0,7.0,1.0,634.5259600002464,3.0,1.0,part_3,go,0.0,0.0,0.0,147.0,3.0,147.0,245.0,196.0,98.0,294.0,49.0,orange,hexagon
0.0,1.0,1.0,0.0,7.0,2.0,882.4369309995745,3.0,1.0,part_3,go,0.0,0.0,0.0,216.0,4.0,270.0,216.0,108.0,162.0,324.0,54.0,magenta,flipped triangle
0.0,4.0,4.0,0.0,7.0,2.0,834.1828109996641,3.0,1.0,part_3,go,0.0,0.0,0.0,324.0,6.0,270.0,324.0,54.0,216.0,162.0,108.0,blue,square
0.0,1.0,1.0,0.0,7.0,2.0,3032.956189000288,4.0,1.0,part_3,go,0.0,0.0,0.0,204.0,6.0,102.0,204.0,136.0,34.0,68.0,170.0,magenta,flipped triangle
0.0,4.0,4.0,0.0,7.0,4.0,1076.3301879997016,4.0,1.0,part_3,go,0.0,0.0,0.0,196.0,4.0,49.0,147.0,294.0,196.0,98.0,245.0,blue,square
0.0,4.0,4.0,0.0,7.0,4.0,1025.3633889997218,4.0,1.0,part_3,go,0.0,0.0,0.0,204.0,6.0,68.0,136.0,34.0,204.0,102.0,170.0,blue,square
0.0,7.0,3.0,1.0,7.0,4.0,1631.4805940000952,4.0,1.0,part_3,go,0.0,0.0,0.0,88.0,2.0,176.0,132.0,264.0,88.0,220.0,44.0,cyan,circle
0.0,2.0,2.0,0.0,7.0,2.0,1580.1056410000456,4.0,1.0,part_3,go,0.0,0.0,0.0,49.0,1.0,294.0,49.0,147.0,196.0,245.0,98.0,green,I
0.0,3.0,3.0,0.0,7.0,6.0,1172.8711509995264,4.0,1.0,part_3,go,0.0,0.0,0.0,204.0,6.0,170.0,68.0,102.0,136.0,34.0,204.0,yellow,triangle
0.0,5.0,1.0,1.0,7.0,2.0,1115.9401969998726,4.0,1.0,part_3,go,0.0,0.0,0.0,108.0,2.0,54.0,108.0,216.0,324.0,270.0,162.0,orange,hexagon
0.0,6.0,2.0,1.0,7.0,2.0,1091.0612440002296,4.0,1.0,part_3,go,0.0,0.0,0.0,88.0,2.0,264.0,88.0,220.0,132.0,176.0,44.0,white,cross
0.0,2.0,2.0,0.0,7.0,6.0,2212.849231999826,4.0,1.0,part_3,go,0.0,0.0,0.0,44.0,1.0,220.0,88.0,132.0,264.0,176.0,44.0,green,I
0.0,8.0,4.0,1.0,7.0,1.0,2265.9757549999995,4.0,1.0,part_3,go,0.0,0.0,0.0,147.0,3.0,147.0,294.0,196.0,49.0,98.0,245.0,gray,diamond
0.0,5.0,1.0,1.0,7.0,2.0,685.6136309997964,4.0,1.0,part_3,go,0.0,0.0,0.0,195.0,5.0,156.0,195.0,234.0,117.0,39.0,78.0,orange,hexagon
0.0,3.0,3.0,0.0,7.0,6.0,843.9568439998766,4.0,1.0,part_3,go,0.0,0.0,0.0,44.0,1.0,88.0,176.0,264.0,220.0,132.0,44.0,yellow,triangle
0.0,7.0,3.0,1.0,7.0,2.0,1821.589153999412,4.0,1.0,part_3,go,0.0,0.0,0.0,102.0,3.0,34.0,102.0,204.0,68.0,170.0,136.0,cyan,circle
0.0,7.0,3.0,1.0,7.0,1.0,1971.8455120000729,4.0,1.0,part_3,go,0.0,0.0,0.0,78.0,2.0,78.0,195.0,39.0,117.0,156.0,234.0,cyan,circle
0.0,8.0,4.0,1.0,7.0,4.0,956.7691620004553,4.0,1.0,part_3,go,0.0,0.0,0.0,324.0,6.0,216.0,162.0,270.0,324.0,54.0,108.0,gray,diamond
0.0,6.0,2.0,1.0,7.0,5.0,1249.4788269996209,4.0,1.0,part_3,go,0.0,0.0,0.0,49.0,1.0,196.0,245.0,147.0,294.0,49.0,98.0,white,cross
0.0,3.0,3.0,0.0,7.0,2.0,671.3291359992581,4.0,1.0,part_3,go,0.0,0.0,0.0,234.0,6.0,78.0,234.0,117.0,195.0,39.0,156.0,yellow,triangle
0.0,3.0,3.0,0.0,7.0,5.0,890.587226000207,4.0,1.0,part_3,go,0.0,0.0,0.0,220.0,5.0,176.0,132.0,264.0,88.0,220.0,44.0,yellow,triangle
0.0,7.0,3.0,1.0,7.0,6.0,1358.7399259995436,4.0,1.0,part_3,go,0.0,0.0,0.0,108.0,2.0,54.0,216.0,270.0,324.0,162.0,108.0,cyan,circle
0.0,8.0,4.0,1.0,7.0,6.0,1550.936797999384,4.0,1.0,part_3,go,0.0,0.0,0.0,108.0,2.0,324.0,270.0,216.0,162.0,54.0,108.0,gray,diamond
