raw_reward_magnitude,stim_reward,stepwise_reward_magnitude,paired_with_stopping,stim_location,response,reaction_time,block,num_trial_presentations,which_phase,stop_signal_trial_type,left_SSD,right_SSD,accuracy,chosen_bidding_amount,chosen_bidding_level,possible_bid_1,possible_bid_2,possible_bid_3,possible_bid_4,possible_bid_5,possible_bid_6,color_text,shape_text
212.0,7.0,3.0,1.0,1.0,1.0,400.8616169994639,1.0,1.0,phase_1,,,,,,,,,,,,,gray,cross
68.0,5.0,1.0,1.0,1.0,1.0,284.5456289978756,1.0,1.0,phase_1,,,,,,,,,,,,,green,circle
38.0,1.0,1.0,0.0,3.0,3.0,295.1581110028201,1.0,1.0,phase_1,,,,,,,,,,,,,blue,flipped triangle
184.0,7.0,3.0,1.0,3.0,3.0,349.8493400002189,1.0,1.0,phase_1,,,,,,,,,,,,,gray,cross
101.0,6.0,2.0,1.0,3.0,3.0,313.1676630000584,1.0,1.0,phase_1,,,,,,,,,,,,,yellow,square
0.0,1.0,0.0,0.0,2.0,2.0,439.5564000005834,1.0,1.0,phase_1,,,,,,,,,,,,,blue,flipped triangle
209.0,3.0,3.0,0.0,2.0,2.0,358.997144998284,1.0,1.0,phase_1,,,,,,,,,,,,,cyan,I
399.0,4.0,4.0,0.0,4.0,4.0,418.6087429989129,1.0,1.0,phase_1,,,,,,,,,,,,,magenta,triangle
80.0,2.0,2.0,0.0,3.0,3.0,410.389505999774,1.0,1.0,phase_1,,,,,,,,,,,,,white,hexagon
380.0,8.0,4.0,1.0,2.0,2.0,439.8974350006028,1.0,1.0,phase_1,,,,,,,,,,,,,orange,diamond
221.0,7.0,3.0,1.0,3.0,3.0,300.6375289987772,1.0,1.0,phase_1,,,,,,,,,,,,,gray,cross
220.0,3.0,3.0,0.0,3.0,3.0,327.6524100001552,1.0,1.0,phase_1,,,,,,,,,,,,,cyan,I
175.0,7.0,3.0,1.0,4.0,4.0,566.0762950028584,1.0,1.0,phase_1,,,,,,,,,,,,,gray,cross
120.0,6.0,2.0,1.0,2.0,2.0,374.3643410016375,1.0,1.0,phase_1,,,,,,,,,,,,,yellow,square
204.0,7.0,3.0,1.0,1.0,1.0,392.5764270024956,1.0,1.0,phase_1,,,,,,,,,,,,,gray,cross
86.0,2.0,2.0,0.0,4.0,4.0,282.1528410022438,1.0,1.0,phase_1,,,,,,,,,,,,,white,hexagon
85.0,2.0,2.0,0.0,2.0,2.0,268.5714939980244,1.0,1.0,phase_1,,,,,,,,,,,,,white,hexagon
51.0,1.0,1.0,0.0,2.0,2.0,288.801840000815,1.0,1.0,phase_1,,,,,,,,,,,,,blue,flipped triangle
410.0,8.0,4.0,1.0,1.0,1.0,330.8599190022505,1.0,1.0,phase_1,,,,,,,,,,,,,orange,diamond
77.0,2.0,2.0,0.0,1.0,1.0,282.1670650009764,1.0,1.0,phase_1,,,,,,,,,,,,,white,hexagon
410.0,4.0,4.0,0.0,2.0,2.0,257.8389320005954,1.0,1.0,phase_1,,,,,,,,,,,,,magenta,triangle
73.0,1.0,1.0,0.0,4.0,4.0,307.9313239977637,1.0,1.0,phase_1,,,,,,,,,,,,,blue,flipped triangle
74.0,5.0,1.0,1.0,4.0,4.0,316.4803069994377,1.0,1.0,phase_1,,,,,,,,,,,,,green,circle
0.0,5.0,0.0,1.0,3.0,3.0,312.11595700006,1.0,1.0,phase_1,,,,,,,,,,,,,green,circle
0.0,6.0,0.0,1.0,3.0,3.0,334.6841450002102,1.0,1.0,phase_1,,,,,,,,,,,,,yellow,square
74.0,1.0,1.0,0.0,2.0,2.0,365.974118001759,1.0,1.0,phase_1,,,,,,,,,,,,,blue,flipped triangle
219.0,7.0,3.0,1.0,4.0,4.0,435.3791829998954,1.0,1.0,phase_1,,,,,,,,,,,,,gray,cross
0.0,6.0,0.0,1.0,1.0,1.0,354.9338709999574,1.0,1.0,phase_1,,,,,,,,,,,,,yellow,square
181.0,3.0,3.0,0.0,2.0,2.0,358.097139000165,1.0,1.0,phase_1,,,,,,,,,,,,,cyan,I
420.0,4.0,4.0,0.0,1.0,1.0,282.7593889996933,1.0,1.0,phase_1,,,,,,,,,,,,,magenta,triangle
77.0,6.0,2.0,1.0,4.0,4.0,323.2470369985094,1.0,1.0,phase_1,,,,,,,,,,,,,yellow,square
379.0,8.0,4.0,1.0,1.0,1.0,319.7423099991283,1.0,1.0,phase_1,,,,,,,,,,,,,orange,diamond
175.0,7.0,3.0,1.0,2.0,2.0,323.8801160005096,1.0,1.0,phase_1,,,,,,,,,,,,,gray,cross
386.0,4.0,4.0,0.0,1.0,1.0,307.2989079992112,1.0,1.0,phase_1,,,,,,,,,,,,,magenta,triangle
98.0,2.0,2.0,0.0,4.0,4.0,388.4761799999978,1.0,1.0,phase_1,,,,,,,,,,,,,white,hexagon
122.0,2.0,2.0,0.0,3.0,3.0,377.3636540026928,1.0,1.0,phase_1,,,,,,,,,,,,,white,hexagon
209.0,3.0,3.0,0.0,4.0,4.0,437.4319329981517,1.0,1.0,phase_1,,,,,,,,,,,,,cyan,I
41.0,1.0,1.0,0.0,1.0,1.0,334.6761789980519,1.0,1.0,phase_1,,,,,,,,,,,,,blue,flipped triangle
209.0,7.0,3.0,1.0,2.0,2.0,281.7303590018127,1.0,1.0,phase_1,,,,,,,,,,,,,gray,cross
25.0,1.0,1.0,0.0,3.0,3.0,285.1272850020905,1.0,1.0,phase_1,,,,,,,,,,,,,blue,flipped triangle
201.0,3.0,3.0,0.0,1.0,1.0,273.2804070001293,1.0,1.0,phase_1,,,,,,,,,,,,,cyan,I
60.0,1.0,1.0,0.0,3.0,3.0,288.5430790011014,1.0,1.0,phase_1,,,,,,,,,,,,,blue,flipped triangle
57.0,5.0,1.0,1.0,1.0,1.0,305.8590039981936,1.0,1.0,phase_1,,,,,,,,,,,,,green,circle
53.0,5.0,1.0,1.0,4.0,4.0,330.2425100009714,1.0,1.0,phase_1,,,,,,,,,,,,,green,circle
0.0,4.0,0.0,0.0,4.0,4.0,289.6697430005588,1.0,1.0,phase_1,,,,,,,,,,,,,magenta,triangle
406.0,4.0,4.0,0.0,3.0,3.0,304.75625300096,1.0,1.0,phase_1,,,,,,,,,,,,,magenta,triangle
424.0,4.0,4.0,0.0,1.0,1.0,244.2029939993517,1.0,1.0,phase_1,,,,,,,,,,,,,magenta,triangle
0.0,8.0,0.0,1.0,2.0,2.0,294.8264959995867,1.0,1.0,phase_1,,,,,,,,,,,,,orange,diamond
0.0,3.0,0.0,0.0,2.0,2.0,261.0742530014249,1.0,1.0,phase_1,,,,,,,,,,,,,cyan,I
80.0,6.0,2.0,1.0,1.0,1.0,350.4183730001386,1.0,1.0,phase_1,,,,,,,,,,,,,yellow,square
394.0,8.0,4.0,1.0,3.0,3.0,333.6539349984377,1.0,1.0,phase_1,,,,,,,,,,,,,orange,diamond
0.0,5.0,0.0,1.0,4.0,4.0,379.827793000004,1.0,1.0,phase_1,,,,,,,,,,,,,green,circle
382.0,4.0,4.0,0.0,3.0,3.0,250.39751800068188,1.0,1.0,phase_1,,,,,,,,,,,,,magenta,triangle
122.0,6.0,2.0,1.0,3.0,3.0,243.6326979986915,1.0,1.0,phase_1,,,,,,,,,,,,,yellow,square
399.0,8.0,4.0,1.0,2.0,2.0,272.3638860006758,1.0,1.0,phase_1,,,,,,,,,,,,,orange,diamond
202.0,3.0,3.0,0.0,1.0,1.0,300.1019110015477,1.0,1.0,phase_1,,,,,,,,,,,,,cyan,I
43.0,1.0,1.0,0.0,4.0,4.0,318.2630890005384,1.0,1.0,phase_1,,,,,,,,,,,,,blue,flipped triangle
0.0,7.0,0.0,1.0,1.0,1.0,304.99410399716,1.0,1.0,phase_1,,,,,,,,,,,,,gray,cross
99.0,6.0,2.0,1.0,1.0,1.0,321.3498210025136,1.0,1.0,phase_1,,,,,,,,,,,,,yellow,square
119.0,2.0,2.0,0.0,2.0,2.0,321.8520290029119,1.0,1.0,phase_1,,,,,,,,,,,,,white,hexagon
95.0,2.0,2.0,0.0,4.0,4.0,664.5334530003311,1.0,1.0,phase_1,,,,,,,,,,,,,white,hexagon
99.0,6.0,2.0,1.0,3.0,3.0,884.7172419991693,1.0,1.0,phase_1,,,,,,,,,,,,,yellow,square
74.0,5.0,1.0,1.0,3.0,3.0,892.5966179995157,1.0,1.0,phase_1,,,,,,,,,,,,,green,circle
125.0,6.0,2.0,1.0,3.0,3.0,392.0063739969919,1.0,1.0,phase_1,,,,,,,,,,,,,yellow,square
47.0,1.0,1.0,0.0,1.0,1.0,360.2633199989213,1.0,1.0,phase_1,,,,,,,,,,,,,blue,flipped triangle
41.0,5.0,1.0,1.0,3.0,3.0,259.047259001818,1.0,1.0,phase_1,,,,,,,,,,,,,green,circle
206.0,3.0,3.0,0.0,2.0,2.0,296.7672269987815,1.0,1.0,phase_1,,,,,,,,,,,,,cyan,I
0.0,7.0,0.0,1.0,4.0,4.0,419.8524669991457,1.0,1.0,phase_1,,,,,,,,,,,,,gray,cross
111.0,2.0,2.0,0.0,1.0,1.0,502.03882299683755,1.0,1.0,phase_1,,,,,,,,,,,,,white,hexagon
415.0,8.0,4.0,1.0,3.0,3.0,272.5227339979028,1.0,1.0,phase_1,,,,,,,,,,,,,orange,diamond
183.0,3.0,3.0,0.0,2.0,2.0,221.7896840011235,1.0,1.0,phase_1,,,,,,,,,,,,,cyan,I
414.0,4.0,4.0,0.0,3.0,3.0,260.4367070016451,1.0,1.0,phase_1,,,,,,,,,,,,,magenta,triangle
66.0,1.0,1.0,0.0,1.0,1.0,284.617238001374,1.0,1.0,phase_1,,,,,,,,,,,,,blue,flipped triangle
67.0,5.0,1.0,1.0,1.0,1.0,297.9112829998485,1.0,1.0,phase_1,,,,,,,,,,,,,green,circle
0.0,7.0,0.0,1.0,2.0,2.0,283.919423000043,1.0,1.0,phase_1,,,,,,,,,,,,,gray,cross
61.0,1.0,1.0,0.0,4.0,4.0,294.1669450010522,1.0,1.0,phase_1,,,,,,,,,,,,,blue,flipped triangle
111.0,2.0,2.0,0.0,4.0,4.0,354.6745450003072,1.0,1.0,phase_1,,,,,,,,,,,,,white,hexagon
395.0,8.0,4.0,1.0,3.0,3.0,283.0740849967696,1.0,1.0,phase_1,,,,,,,,,,,,,orange,diamond
224.0,3.0,3.0,0.0,3.0,3.0,324.12831700276,1.0,1.0,phase_1,,,,,,,,,,,,,cyan,I
0.0,2.0,0.0,0.0,1.0,1.0,276.724284998636,1.0,1.0,phase_1,,,,,,,,,,,,,white,hexagon
204.0,7.0,3.0,1.0,1.0,1.0,285.8776100001705,1.0,1.0,phase_1,,,,,,,,,,,,,gray,cross
0.0,3.0,0.0,0.0,1.0,1.0,270.9418039994489,1.0,1.0,phase_1,,,,,,,,,,,,,cyan,I
68.0,5.0,1.0,1.0,3.0,3.0,254.3305609979143,1.0,1.0,phase_1,,,,,,,,,,,,,green,circle
385.0,8.0,4.0,1.0,1.0,1.0,236.9279200029268,1.0,1.0,phase_1,,,,,,,,,,,,,orange,diamond
108.0,6.0,2.0,1.0,4.0,4.0,319.4240010016074,1.0,1.0,phase_1,,,,,,,,,,,,,yellow,square
192.0,7.0,3.0,1.0,1.0,1.0,307.352821000677,1.0,1.0,phase_1,,,,,,,,,,,,,gray,cross
25.0,1.0,1.0,0.0,2.0,2.0,439.4424319980317,1.0,1.0,phase_1,,,,,,,,,,,,,blue,flipped triangle
0.0,7.0,0.0,1.0,3.0,3.0,342.6669920008862,1.0,1.0,phase_1,,,,,,,,,,,,,gray,cross
377.0,4.0,4.0,0.0,2.0,2.0,313.8084659985907,1.0,1.0,phase_1,,,,,,,,,,,,,magenta,triangle
0.0,3.0,0.0,0.0,3.0,3.0,324.4909850000113,1.0,1.0,phase_1,,,,,,,,,,,,,cyan,I
53.0,1.0,1.0,0.0,3.0,3.0,289.541639998788,1.0,1.0,phase_1,,,,,,,,,,,,,blue,flipped triangle
191.0,3.0,3.0,0.0,3.0,3.0,284.7780720003356,1.0,1.0,phase_1,,,,,,,,,,,,,cyan,I
206.0,7.0,3.0,1.0,4.0,4.0,286.5062090022547,1.0,1.0,phase_1,,,,,,,,,,,,,gray,cross
415.0,4.0,4.0,0.0,1.0,1.0,276.636081001925,1.0,1.0,phase_1,,,,,,,,,,,,,magenta,triangle
104.0,2.0,2.0,0.0,4.0,4.0,496.7018509996705,1.0,1.0,phase_1,,,,,,,,,,,,,white,hexagon
48.0,1.0,1.0,0.0,3.0,3.0,296.7399150002165,1.0,1.0,phase_1,,,,,,,,,,,,,blue,flipped triangle
25.0,1.0,1.0,0.0,2.0,2.0,285.8520739973755,1.0,1.0,phase_1,,,,,,,,,,,,,blue,flipped triangle
210.0,7.0,3.0,1.0,3.0,3.0,304.5033269991108,1.0,1.0,phase_1,,,,,,,,,,,,,gray,cross
47.0,5.0,1.0,1.0,3.0,3.0,322.3116030021629,1.0,1.0,phase_1,,,,,,,,,,,,,green,circle
194.0,3.0,3.0,0.0,4.0,4.0,419.9155019996397,1.0,1.0,phase_1,,,,,,,,,,,,,cyan,I
195.0,7.0,3.0,1.0,2.0,2.0,354.4390600000042,2.0,1.0,phase_1,,,,,,,,,,,,,gray,cross
181.0,7.0,3.0,1.0,2.0,2.0,271.0968070023227,2.0,1.0,phase_1,,,,,,,,,,,,,gray,cross
384.0,4.0,4.0,0.0,4.0,4.0,277.1480840019649,2.0,1.0,phase_1,,,,,,,,,,,,,magenta,triangle
400.0,4.0,4.0,0.0,2.0,2.0,259.2272689980746,2.0,1.0,phase_1,,,,,,,,,,,,,magenta,triangle
74.0,1.0,1.0,0.0,4.0,4.0,273.7090800001169,2.0,1.0,phase_1,,,,,,,,,,,,,blue,flipped triangle
186.0,3.0,3.0,0.0,1.0,1.0,332.4234930005332,2.0,1.0,phase_1,,,,,,,,,,,,,cyan,I
401.0,4.0,4.0,0.0,3.0,3.0,282.62458100289217,2.0,1.0,phase_1,,,,,,,,,,,,,magenta,triangle
91.0,6.0,2.0,1.0,1.0,1.0,301.201761001721,2.0,1.0,phase_1,,,,,,,,,,,,,yellow,square
0.0,3.0,0.0,0.0,4.0,4.0,281.9762170001922,2.0,1.0,phase_1,,,,,,,,,,,,,cyan,I
0.0,7.0,0.0,1.0,4.0,4.0,285.7616770015738,2.0,1.0,phase_1,,,,,,,,,,,,,gray,cross
221.0,3.0,3.0,0.0,2.0,2.0,283.4779559998424,2.0,1.0,phase_1,,,,,,,,,,,,,cyan,I
47.0,1.0,1.0,0.0,1.0,1.0,316.5494929999113,2.0,1.0,phase_1,,,,,,,,,,,,,blue,flipped triangle
0.0,5.0,0.0,1.0,3.0,3.0,302.6691420018323,2.0,1.0,phase_1,,,,,,,,,,,,,green,circle
407.0,8.0,4.0,1.0,2.0,2.0,273.0615500004205,2.0,1.0,phase_1,,,,,,,,,,,,,orange,diamond
0.0,8.0,0.0,1.0,4.0,4.0,272.4639829975785,2.0,1.0,phase_1,,,,,,,,,,,,,orange,diamond
0.0,1.0,0.0,0.0,1.0,1.0,286.9837329999427,2.0,1.0,phase_1,,,,,,,,,,,,,blue,flipped triangle
0.0,2.0,0.0,0.0,1.0,1.0,282.7430569996068,2.0,1.0,phase_1,,,,,,,,,,,,,white,hexagon
0.0,4.0,0.0,0.0,4.0,4.0,274.2144570001983,2.0,1.0,phase_1,,,,,,,,,,,,,magenta,triangle
76.0,6.0,2.0,1.0,2.0,2.0,274.8549400021147,2.0,1.0,phase_1,,,,,,,,,,,,,yellow,square
181.0,3.0,3.0,0.0,3.0,3.0,315.8275419991696,2.0,1.0,phase_1,,,,,,,,,,,,,cyan,I
123.0,2.0,2.0,0.0,2.0,2.0,233.7737439993361,2.0,1.0,phase_1,,,,,,,,,,,,,white,hexagon
204.0,3.0,3.0,0.0,2.0,2.0,250.6478570030594,2.0,1.0,phase_1,,,,,,,,,,,,,cyan,I
101.0,2.0,2.0,0.0,2.0,2.0,278.3828259998699,2.0,1.0,phase_1,,,,,,,,,,,,,white,hexagon
43.0,1.0,1.0,0.0,4.0,4.0,310.8529359997192,2.0,1.0,phase_1,,,,,,,,,,,,,blue,flipped triangle
0.0,6.0,0.0,1.0,3.0,3.0,284.063299997797,2.0,2.0,phase_1,,,,,,,,,,,,,yellow,square
0.0,8.0,0.0,1.0,4.0,4.0,339.7243549989071,2.0,1.0,phase_1,,,,,,,,,,,,,orange,diamond
0.0,7.0,0.0,1.0,1.0,1.0,315.7211290017585,2.0,1.0,phase_1,,,,,,,,,,,,,gray,cross
0.0,7.0,0.0,1.0,3.0,3.0,323.1300299994473,2.0,1.0,phase_1,,,,,,,,,,,,,gray,cross
91.0,2.0,2.0,0.0,2.0,2.0,323.6743479974393,2.0,2.0,phase_1,,,,,,,,,,,,,white,hexagon
38.0,5.0,1.0,1.0,2.0,2.0,323.8071810010297,2.0,1.0,phase_1,,,,,,,,,,,,,green,circle
406.0,8.0,4.0,1.0,1.0,1.0,326.3855010009138,2.0,1.0,phase_1,,,,,,,,,,,,,orange,diamond
41.0,5.0,1.0,1.0,3.0,3.0,300.8159580022038,2.0,1.0,phase_1,,,,,,,,,,,,,green,circle
68.0,1.0,1.0,0.0,3.0,3.0,301.919302000897,2.0,1.0,phase_1,,,,,,,,,,,,,blue,flipped triangle
99.0,2.0,2.0,0.0,2.0,2.0,315.0278289976995,2.0,1.0,phase_1,,,,,,,,,,,,,white,hexagon
0.0,4.0,0.0,0.0,2.0,2.0,352.8362840006593,2.0,1.0,phase_1,,,,,,,,,,,,,magenta,triangle
196.0,7.0,3.0,1.0,4.0,4.0,296.9660560011107,2.0,1.0,phase_1,,,,,,,,,,,,,gray,cross
45.0,1.0,1.0,0.0,1.0,1.0,296.4985780017741,2.0,1.0,phase_1,,,,,,,,,,,,,blue,flipped triangle
187.0,7.0,3.0,1.0,1.0,1.0,341.9141109989141,2.0,1.0,phase_1,,,,,,,,,,,,,gray,cross
92.0,6.0,2.0,1.0,3.0,3.0,398.7849000004644,2.0,1.0,phase_1,,,,,,,,,,,,,yellow,square
0.0,8.0,0.0,1.0,3.0,3.0,366.6321749988128,2.0,1.0,phase_1,,,,,,,,,,,,,orange,diamond
56.0,5.0,1.0,1.0,3.0,3.0,308.5207240001182,2.0,1.0,phase_1,,,,,,,,,,,,,green,circle
0.0,7.0,0.0,1.0,4.0,4.0,356.4475660023163,2.0,1.0,phase_1,,,,,,,,,,,,,gray,cross
385.0,4.0,4.0,0.0,3.0,3.0,304.7935620015778,2.0,1.0,phase_1,,,,,,,,,,,,,magenta,triangle
403.0,4.0,4.0,0.0,3.0,3.0,276.1536699981661,2.0,1.0,phase_1,,,,,,,,,,,,,magenta,triangle
90.0,2.0,2.0,0.0,3.0,3.0,299.9135919999389,2.0,1.0,phase_1,,,,,,,,,,,,,white,hexagon
92.0,2.0,2.0,0.0,1.0,1.0,278.5099550019367,2.0,1.0,phase_1,,,,,,,,,,,,,white,hexagon
99.0,6.0,2.0,1.0,1.0,1.0,317.0289340014278,2.0,1.0,phase_1,,,,,,,,,,,,,yellow,square
391.0,4.0,4.0,0.0,4.0,4.0,322.797705000994,2.0,1.0,phase_1,,,,,,,,,,,,,magenta,triangle
0.0,2.0,0.0,0.0,2.0,2.0,315.5116749985609,2.0,1.0,phase_1,,,,,,,,,,,,,white,hexagon
77.0,2.0,2.0,0.0,2.0,2.0,324.2858819976391,2.0,1.0,phase_1,,,,,,,,,,,,,white,hexagon
45.0,1.0,1.0,0.0,2.0,2.0,317.4423279997427,2.0,1.0,phase_1,,,,,,,,,,,,,blue,flipped triangle
212.0,7.0,3.0,1.0,3.0,3.0,331.7913120008597,2.0,1.0,phase_1,,,,,,,,,,,,,gray,cross
124.0,2.0,2.0,0.0,4.0,4.0,351.5809310010809,2.0,1.0,phase_1,,,,,,,,,,,,,white,hexagon
418.0,4.0,4.0,0.0,2.0,2.0,329.1704009970999,2.0,1.0,phase_1,,,,,,,,,,,,,magenta,triangle
26.0,1.0,1.0,0.0,2.0,2.0,324.1875369967602,2.0,1.0,phase_1,,,,,,,,,,,,,blue,flipped triangle
387.0,8.0,4.0,1.0,4.0,4.0,359.7771099994133,2.0,1.0,phase_1,,,,,,,,,,,,,orange,diamond
184.0,3.0,3.0,0.0,4.0,4.0,284.8663549993944,2.0,1.0,phase_1,,,,,,,,,,,,,cyan,I
382.0,8.0,4.0,1.0,4.0,4.0,292.891545999737,2.0,1.0,phase_1,,,,,,,,,,,,,orange,diamond
39.0,5.0,1.0,1.0,4.0,4.0,321.9822669998393,2.0,1.0,phase_1,,,,,,,,,,,,,green,circle
120.0,2.0,2.0,0.0,3.0,3.0,318.2854650003719,2.0,1.0,phase_1,,,,,,,,,,,,,white,hexagon
106.0,6.0,2.0,1.0,4.0,4.0,319.3971629989391,2.0,1.0,phase_1,,,,,,,,,,,,,yellow,square
392.0,4.0,4.0,0.0,4.0,4.0,285.6336170007125,2.0,1.0,phase_1,,,,,,,,,,,,,magenta,triangle
423.0,4.0,4.0,0.0,2.0,2.0,275.9751730009157,2.0,1.0,phase_1,,,,,,,,,,,,,magenta,triangle
215.0,3.0,3.0,0.0,1.0,1.0,382.7085379998607,2.0,1.0,phase_1,,,,,,,,,,,,,cyan,I
394.0,4.0,4.0,0.0,2.0,2.0,327.0620489965949,2.0,1.0,phase_1,,,,,,,,,,,,,magenta,triangle
411.0,8.0,4.0,1.0,2.0,2.0,324.6505749993957,2.0,1.0,phase_1,,,,,,,,,,,,,orange,diamond
61.0,5.0,1.0,1.0,4.0,4.0,326.7774949999875,2.0,1.0,phase_1,,,,,,,,,,,,,green,circle
416.0,8.0,4.0,1.0,4.0,4.0,332.4519640009384,2.0,1.0,phase_1,,,,,,,,,,,,,orange,diamond
84.0,6.0,2.0,1.0,2.0,2.0,311.9343979997211,2.0,1.0,phase_1,,,,,,,,,,,,,yellow,square
0.0,6.0,0.0,1.0,2.0,2.0,263.0899239993596,2.0,1.0,phase_1,,,,,,,,,,,,,yellow,square
0.0,8.0,0.0,1.0,1.0,1.0,320.7165040003019,2.0,1.0,phase_1,,,,,,,,,,,,,orange,diamond
68.0,1.0,1.0,0.0,1.0,1.0,305.1710119980271,2.0,1.0,phase_1,,,,,,,,,,,,,blue,flipped triangle
105.0,2.0,2.0,0.0,1.0,1.0,310.3876390014193,2.0,1.0,phase_1,,,,,,,,,,,,,white,hexagon
204.0,3.0,3.0,0.0,4.0,4.0,330.9625959991535,2.0,1.0,phase_1,,,,,,,,,,,,,cyan,I
0.0,1.0,0.0,0.0,2.0,2.0,279.817078000633,2.0,1.0,phase_1,,,,,,,,,,,,,blue,flipped triangle
0.0,8.0,0.0,1.0,1.0,1.0,303.1564060001983,2.0,1.0,phase_1,,,,,,,,,,,,,orange,diamond
76.0,2.0,2.0,0.0,4.0,4.0,285.6330390022776,2.0,1.0,phase_1,,,,,,,,,,,,,white,hexagon
125.0,2.0,2.0,0.0,1.0,1.0,291.0542880017601,2.0,1.0,phase_1,,,,,,,,,,,,,white,hexagon
0.0,3.0,0.0,0.0,1.0,1.0,278.3574550012417,2.0,1.0,phase_1,,,,,,,,,,,,,cyan,I
25.0,5.0,1.0,1.0,3.0,3.0,350.7487919996492,2.0,2.0,phase_1,,,,,,,,,,,,,green,circle
391.0,8.0,4.0,1.0,2.0,2.0,341.8634640001983,2.0,1.0,phase_1,,,,,,,,,,,,,orange,diamond
385.0,4.0,4.0,0.0,1.0,1.0,264.9515490011254,2.0,1.0,phase_1,,,,,,,,,,,,,magenta,triangle
0.0,2.0,0.0,0.0,3.0,3.0,338.6851260002004,2.0,1.0,phase_1,,,,,,,,,,,,,white,hexagon
418.0,8.0,4.0,1.0,2.0,2.0,341.4775090022885,2.0,1.0,phase_1,,,,,,,,,,,,,orange,diamond
0.0,3.0,0.0,0.0,2.0,2.0,322.2544780001044,2.0,1.0,phase_1,,,,,,,,,,,,,cyan,I
423.0,8.0,4.0,1.0,3.0,3.0,366.7533839980024,2.0,1.0,phase_1,,,,,,,,,,,,,orange,diamond
0.0,2.0,0.0,0.0,4.0,4.0,338.6725570017006,2.0,1.0,phase_1,,,,,,,,,,,,,white,hexagon
96.0,2.0,2.0,0.0,3.0,3.0,292.8941150021273,2.0,1.0,phase_1,,,,,,,,,,,,,white,hexagon
381.0,4.0,4.0,0.0,3.0,3.0,587.3746760007634,2.0,1.0,phase_1,,,,,,,,,,,,,magenta,triangle
407.0,4.0,4.0,0.0,2.0,2.0,320.6966420002572,2.0,1.0,phase_1,,,,,,,,,,,,,magenta,triangle
207.0,7.0,3.0,1.0,1.0,1.0,327.7900799985218,2.0,1.0,phase_1,,,,,,,,,,,,,gray,cross
391.0,4.0,4.0,0.0,4.0,4.0,374.5070329969167,2.0,1.0,phase_1,,,,,,,,,,,,,magenta,triangle
0.0,4.0,0.0,0.0,1.0,1.0,323.9211830004933,2.0,1.0,phase_1,,,,,,,,,,,,,magenta,triangle
0.0,8.0,0.0,1.0,4.0,4.0,312.5099360004242,2.0,1.0,phase_1,,,,,,,,,,,,,orange,diamond
60.0,5.0,1.0,1.0,1.0,1.0,294.7737590002361,2.0,1.0,phase_1,,,,,,,,,,,,,green,circle
56.0,1.0,1.0,0.0,4.0,4.0,326.9847869996738,2.0,1.0,phase_1,,,,,,,,,,,,,blue,flipped triangle
187.0,3.0,3.0,0.0,1.0,1.0,288.656393000565,2.0,1.0,phase_1,,,,,,,,,,,,,cyan,I
74.0,5.0,1.0,1.0,2.0,2.0,305.7011250020878,2.0,1.0,phase_1,,,,,,,,,,,,,green,circle
0.0,1.0,0.0,0.0,1.0,1.0,306.0607279985561,2.0,1.0,phase_1,,,,,,,,,,,,,blue,flipped triangle
52.0,1.0,1.0,0.0,2.0,2.0,265.8273849992838,2.0,1.0,phase_1,,,,,,,,,,,,,blue,flipped triangle
385.0,8.0,4.0,1.0,3.0,3.0,416.5164690020901,3.0,1.0,phase_1,,,,,,,,,,,,,orange,diamond
203.0,7.0,3.0,1.0,1.0,1.0,248.1301970001368,3.0,1.0,phase_1,,,,,,,,,,,,,gray,cross
31.0,5.0,1.0,1.0,3.0,3.0,243.1505649983592,3.0,1.0,phase_1,,,,,,,,,,,,,green,circle
38.0,5.0,1.0,1.0,2.0,2.0,272.7837319980608,3.0,1.0,phase_1,,,,,,,,,,,,,green,circle
181.0,7.0,3.0,1.0,3.0,3.0,304.4554459993378,3.0,1.0,phase_1,,,,,,,,,,,,,gray,cross
220.0,7.0,3.0,1.0,4.0,4.0,300.1908130027004,3.0,1.0,phase_1,,,,,,,,,,,,,gray,cross
0.0,1.0,0.0,0.0,4.0,4.0,295.3317390019947,3.0,1.0,phase_1,,,,,,,,,,,,,blue,flipped triangle
0.0,3.0,0.0,0.0,2.0,2.0,357.8846370000974,3.0,1.0,phase_1,,,,,,,,,,,,,cyan,I
410.0,8.0,4.0,1.0,3.0,3.0,297.1640619980462,3.0,1.0,phase_1,,,,,,,,,,,,,orange,diamond
0.0,5.0,0.0,1.0,1.0,1.0,268.6624859998119,3.0,1.0,phase_1,,,,,,,,,,,,,green,circle
0.0,5.0,0.0,1.0,1.0,1.0,300.5052279986557,3.0,1.0,phase_1,,,,,,,,,,,,,green,circle
48.0,5.0,1.0,1.0,1.0,1.0,238.2081499999913,3.0,1.0,phase_1,,,,,,,,,,,,,green,circle
0.0,5.0,0.0,1.0,1.0,1.0,257.4893799974234,3.0,1.0,phase_1,,,,,,,,,,,,,green,circle
410.0,4.0,4.0,0.0,1.0,1.0,290.6128309987252,3.0,1.0,phase_1,,,,,,,,,,,,,magenta,triangle
48.0,1.0,1.0,0.0,3.0,3.0,328.1750070018461,3.0,1.0,phase_1,,,,,,,,,,,,,blue,flipped triangle
0.0,2.0,0.0,0.0,3.0,3.0,283.1247790018096,3.0,1.0,phase_1,,,,,,,,,,,,,white,hexagon
221.0,7.0,3.0,1.0,4.0,4.0,281.4409130005515,3.0,2.0,phase_1,,,,,,,,,,,,,gray,cross
383.0,8.0,4.0,1.0,3.0,3.0,304.3429819990706,3.0,1.0,phase_1,,,,,,,,,,,,,orange,diamond
411.0,4.0,4.0,0.0,4.0,4.0,321.1601340008201,3.0,1.0,phase_1,,,,,,,,,,,,,magenta,triangle
219.0,3.0,3.0,0.0,4.0,4.0,300.9471089972066,3.0,1.0,phase_1,,,,,,,,,,,,,cyan,I
379.0,4.0,4.0,0.0,1.0,1.0,345.2553189999889,3.0,1.0,phase_1,,,,,,,,,,,,,magenta,triangle
38.0,1.0,1.0,0.0,1.0,1.0,292.4375750008039,3.0,1.0,phase_1,,,,,,,,,,,,,blue,flipped triangle
213.0,7.0,3.0,1.0,2.0,2.0,271.5278949981439,3.0,1.0,phase_1,,,,,,,,,,,,,gray,cross
380.0,4.0,4.0,0.0,2.0,2.0,257.7631489984924,3.0,1.0,phase_1,,,,,,,,,,,,,magenta,triangle
81.0,2.0,2.0,0.0,1.0,1.0,229.2784650016983,3.0,1.0,phase_1,,,,,,,,,,,,,white,hexagon
0.0,8.0,0.0,1.0,1.0,1.0,253.21586299833137,3.0,1.0,phase_1,,,,,,,,,,,,,orange,diamond
181.0,3.0,3.0,0.0,2.0,2.0,236.495337998349,3.0,1.0,phase_1,,,,,,,,,,,,,cyan,I
194.0,7.0,3.0,1.0,3.0,3.0,273.9815210006782,3.0,2.0,phase_1,,,,,,,,,,,,,gray,cross
66.0,5.0,1.0,1.0,2.0,2.0,272.0444019978458,3.0,1.0,phase_1,,,,,,,,,,,,,green,circle
215.0,3.0,3.0,0.0,4.0,4.0,297.7152489984291,3.0,1.0,phase_1,,,,,,,,,,,,,cyan,I
203.0,3.0,3.0,0.0,3.0,3.0,447.5604330000351,3.0,1.0,phase_1,,,,,,,,,,,,,cyan,I
119.0,6.0,2.0,1.0,1.0,1.0,316.1275829988881,3.0,1.0,phase_1,,,,,,,,,,,,,yellow,square
400.0,8.0,4.0,1.0,4.0,4.0,279.9707589983882,3.0,1.0,phase_1,,,,,,,,,,,,,orange,diamond
120.0,6.0,2.0,1.0,1.0,1.0,305.3745629986224,3.0,1.0,phase_1,,,,,,,,,,,,,yellow,square
60.0,1.0,1.0,0.0,2.0,2.0,320.731510000769,3.0,1.0,phase_1,,,,,,,,,,,,,blue,flipped triangle
392.0,8.0,4.0,1.0,3.0,3.0,357.2434349989635,3.0,1.0,phase_1,,,,,,,,,,,,,orange,diamond
101.0,2.0,2.0,0.0,1.0,1.0,245.7436990007409,3.0,1.0,phase_1,,,,,,,,,,,,,white,hexagon
181.0,7.0,3.0,1.0,2.0,2.0,306.5449669993541,3.0,1.0,phase_1,,,,,,,,,,,,,gray,cross
41.0,1.0,1.0,0.0,2.0,2.0,265.8311880004476,3.0,1.0,phase_1,,,,,,,,,,,,,blue,flipped triangle
0.0,3.0,0.0,0.0,1.0,1.0,245.8370979984465,3.0,1.0,phase_1,,,,,,,,,,,,,cyan,I
395.0,4.0,4.0,0.0,4.0,4.0,338.6129370010167,3.0,1.0,phase_1,,,,,,,,,,,,,magenta,triangle
43.0,5.0,1.0,1.0,1.0,1.0,248.2472919982683,3.0,1.0,phase_1,,,,,,,,,,,,,green,circle
52.0,5.0,1.0,1.0,1.0,1.0,247.730978000618,3.0,1.0,phase_1,,,,,,,,,,,,,green,circle
0.0,2.0,0.0,0.0,1.0,1.0,275.1261039993551,3.0,1.0,phase_1,,,,,,,,,,,,,white,hexagon
97.0,6.0,2.0,1.0,1.0,1.0,263.0455780017655,3.0,1.0,phase_1,,,,,,,,,,,,,yellow,square
0.0,7.0,0.0,1.0,2.0,2.0,347.1832770010223,3.0,1.0,phase_1,,,,,,,,,,,,,gray,cross
25.0,5.0,1.0,1.0,2.0,2.0,288.0561999991187,3.0,1.0,phase_1,,,,,,,,,,,,,green,circle
408.0,4.0,4.0,0.0,4.0,4.0,398.480614003347,3.0,1.0,phase_1,,,,,,,,,,,,,magenta,triangle
391.0,8.0,4.0,1.0,2.0,2.0,474.5101480002631,3.0,1.0,phase_1,,,,,,,,,,,,,orange,diamond
194.0,3.0,3.0,0.0,3.0,3.0,325.61615700251417,3.0,1.0,phase_1,,,,,,,,,,,,,cyan,I
0.0,1.0,0.0,0.0,3.0,3.0,288.4179159991618,3.0,1.0,phase_1,,,,,,,,,,,,,blue,flipped triangle
217.0,3.0,3.0,0.0,2.0,2.0,227.3888679992524,3.0,1.0,phase_1,,,,,,,,,,,,,cyan,I
85.0,6.0,2.0,1.0,4.0,4.0,275.7112370018149,3.0,1.0,phase_1,,,,,,,,,,,,,yellow,square
415.0,4.0,4.0,0.0,3.0,3.0,358.3357259994955,3.0,1.0,phase_1,,,,,,,,,,,,,magenta,triangle
0.0,4.0,0.0,0.0,4.0,4.0,299.9842520002858,3.0,1.0,phase_1,,,,,,,,,,,,,magenta,triangle
41.0,1.0,1.0,0.0,4.0,4.0,272.2994489995471,3.0,1.0,phase_1,,,,,,,,,,,,,blue,flipped triangle
0.0,4.0,0.0,0.0,1.0,1.0,314.9729579999984,3.0,1.0,phase_1,,,,,,,,,,,,,magenta,triangle
98.0,6.0,2.0,1.0,4.0,4.0,310.9638229980191,3.0,1.0,phase_1,,,,,,,,,,,,,yellow,square
416.0,4.0,4.0,0.0,3.0,3.0,372.782732003543,3.0,1.0,phase_1,,,,,,,,,,,,,magenta,triangle
43.0,5.0,1.0,1.0,3.0,3.0,266.5847419993952,3.0,1.0,phase_1,,,,,,,,,,,,,green,circle
79.0,2.0,2.0,0.0,3.0,3.0,297.3334849993989,3.0,1.0,phase_1,,,,,,,,,,,,,white,hexagon
99.0,2.0,2.0,0.0,2.0,2.0,348.5843689995818,3.0,1.0,phase_1,,,,,,,,,,,,,white,hexagon
420.0,4.0,4.0,0.0,1.0,1.0,309.9930879980093,3.0,1.0,phase_1,,,,,,,,,,,,,magenta,triangle
106.0,2.0,2.0,0.0,4.0,4.0,293.4296899984474,3.0,1.0,phase_1,,,,,,,,,,,,,white,hexagon
110.0,2.0,2.0,0.0,2.0,2.0,271.2163799988047,3.0,1.0,phase_1,,,,,,,,,,,,,white,hexagon
39.0,1.0,1.0,0.0,4.0,4.0,330.9990100024151,3.0,1.0,phase_1,,,,,,,,,,,,,blue,flipped triangle
100.0,2.0,2.0,0.0,3.0,3.0,272.1309619992098,3.0,1.0,phase_1,,,,,,,,,,,,,white,hexagon
52.0,5.0,1.0,1.0,4.0,4.0,299.6956700008013,3.0,1.0,phase_1,,,,,,,,,,,,,green,circle
28.0,1.0,1.0,0.0,1.0,1.0,349.3891229991277,3.0,1.0,phase_1,,,,,,,,,,,,,blue,flipped triangle
56.0,1.0,1.0,0.0,3.0,3.0,275.3064009993977,3.0,1.0,phase_1,,,,,,,,,,,,,blue,flipped triangle
57.0,1.0,1.0,0.0,4.0,4.0,282.8117789977113,3.0,1.0,phase_1,,,,,,,,,,,,,blue,flipped triangle
45.0,5.0,1.0,1.0,2.0,2.0,284.3037749989889,3.0,1.0,phase_1,,,,,,,,,,,,,green,circle
0.0,6.0,0.0,1.0,1.0,1.0,297.642266999901,3.0,1.0,phase_1,,,,,,,,,,,,,yellow,square
0.0,5.0,0.0,1.0,4.0,4.0,304.2274429972167,3.0,1.0,phase_1,,,,,,,,,,,,,green,circle
224.0,7.0,3.0,1.0,4.0,4.0,319.8921850016631,3.0,1.0,phase_1,,,,,,,,,,,,,gray,cross
409.0,4.0,4.0,0.0,3.0,3.0,272.1823069987295,3.0,1.0,phase_1,,,,,,,,,,,,,magenta,triangle
61.0,1.0,1.0,0.0,3.0,3.0,296.5803570004937,3.0,1.0,phase_1,,,,,,,,,,,,,blue,flipped triangle
392.0,4.0,4.0,0.0,4.0,4.0,313.0093190011394,3.0,1.0,phase_1,,,,,,,,,,,,,magenta,triangle
201.0,7.0,3.0,1.0,3.0,3.0,272.106045998953,3.0,1.0,phase_1,,,,,,,,,,,,,gray,cross
381.0,8.0,4.0,1.0,4.0,4.0,275.1193270014482,3.0,1.0,phase_1,,,,,,,,,,,,,orange,diamond
48.0,5.0,1.0,1.0,1.0,1.0,340.4253509979753,3.0,1.0,phase_1,,,,,,,,,,,,,green,circle
409.0,8.0,4.0,1.0,1.0,1.0,332.7816589990107,3.0,1.0,phase_1,,,,,,,,,,,,,orange,diamond
0.0,4.0,0.0,0.0,3.0,3.0,318.5104500007583,3.0,1.0,phase_1,,,,,,,,,,,,,magenta,triangle
215.0,7.0,3.0,1.0,2.0,2.0,291.7541739989246,3.0,1.0,phase_1,,,,,,,,,,,,,gray,cross
192.0,3.0,3.0,0.0,3.0,3.0,322.2002129987231,3.0,1.0,phase_1,,,,,,,,,,,,,cyan,I
207.0,3.0,3.0,0.0,2.0,2.0,291.361281000718,3.0,1.0,phase_1,,,,,,,,,,,,,cyan,I
196.0,3.0,3.0,0.0,3.0,3.0,263.0913259999943,3.0,1.0,phase_1,,,,,,,,,,,,,cyan,I
60.0,5.0,1.0,1.0,2.0,2.0,315.3952200009371,3.0,1.0,phase_1,,,,,,,,,,,,,green,circle
31.0,1.0,1.0,0.0,1.0,1.0,290.3312359994743,3.0,1.0,phase_1,,,,,,,,,,,,,blue,flipped triangle
0.0,3.0,0.0,0.0,2.0,2.0,301.1622919984802,3.0,1.0,phase_1,,,,,,,,,,,,,cyan,I
96.0,6.0,2.0,1.0,3.0,3.0,276.0851290004211,3.0,1.0,phase_1,,,,,,,,,,,,,yellow,square
408.0,8.0,4.0,1.0,4.0,4.0,280.2638590001152,3.0,1.0,phase_1,,,,,,,,,,,,,orange,diamond
25.0,5.0,1.0,1.0,4.0,4.0,324.9791119997098,3.0,1.0,phase_1,,,,,,,,,,,,,green,circle
414.0,8.0,4.0,1.0,1.0,1.0,313.1898579995322,3.0,1.0,phase_1,,,,,,,,,,,,,orange,diamond
386.0,8.0,4.0,1.0,1.0,1.0,298.752622999018,3.0,1.0,phase_1,,,,,,,,,,,,,orange,diamond
105.0,6.0,2.0,1.0,4.0,4.0,328.9168539995444,3.0,1.0,phase_1,,,,,,,,,,,,,yellow,square
0.0,5.0,0.0,1.0,4.0,4.0,292.3770620000141,3.0,1.0,phase_1,,,,,,,,,,,,,green,circle
414.0,8.0,4.0,1.0,1.0,1.0,292.1526419995643,3.0,1.0,phase_1,,,,,,,,,,,,,orange,diamond
0.0,1.0,0.0,0.0,2.0,2.0,382.104555999831,3.0,1.0,phase_1,,,,,,,,,,,,,blue,flipped triangle
67.0,1.0,1.0,0.0,1.0,1.0,332.4363669999002,3.0,1.0,phase_1,,,,,,,,,,,,,blue,flipped triangle
41.0,5.0,1.0,1.0,1.0,1.0,293.9845309992961,4.0,1.0,phase_1,,,,,,,,,,,,,green,circle
187.0,3.0,3.0,0.0,1.0,1.0,240.0369060014782,4.0,1.0,phase_1,,,,,,,,,,,,,cyan,I
0.0,6.0,0.0,1.0,4.0,4.0,301.924052000686,4.0,1.0,phase_1,,,,,,,,,,,,,yellow,square
0.0,6.0,0.0,1.0,3.0,3.0,251.7763360010576,4.0,1.0,phase_1,,,,,,,,,,,,,yellow,square
100.0,6.0,2.0,1.0,4.0,4.0,280.7109550012683,4.0,1.0,phase_1,,,,,,,,,,,,,yellow,square
74.0,1.0,1.0,0.0,4.0,4.0,284.2454700003145,4.0,1.0,phase_1,,,,,,,,,,,,,blue,flipped triangle
81.0,6.0,2.0,1.0,2.0,2.0,329.4672759984678,4.0,1.0,phase_1,,,,,,,,,,,,,yellow,square
209.0,7.0,3.0,1.0,1.0,1.0,295.7929889998922,4.0,1.0,phase_1,,,,,,,,,,,,,gray,cross
99.0,2.0,2.0,0.0,4.0,4.0,267.0807220019924,4.0,1.0,phase_1,,,,,,,,,,,,,white,hexagon
119.0,2.0,2.0,0.0,4.0,4.0,267.1766870007559,4.0,1.0,phase_1,,,,,,,,,,,,,white,hexagon
84.0,2.0,2.0,0.0,3.0,3.0,264.9318629992194,4.0,1.0,phase_1,,,,,,,,,,,,,white,hexagon
212.0,3.0,3.0,0.0,1.0,1.0,228.7427789997309,4.0,1.0,phase_1,,,,,,,,,,,,,cyan,I
403.0,8.0,4.0,1.0,4.0,4.0,243.557157999021,4.0,1.0,phase_1,,,,,,,,,,,,,orange,diamond
401.0,8.0,4.0,1.0,2.0,2.0,280.2715630023158,4.0,1.0,phase_1,,,,,,,,,,,,,orange,diamond
414.0,4.0,4.0,0.0,2.0,2.0,311.9022350001614,4.0,1.0,phase_1,,,,,,,,,,,,,magenta,triangle
207.0,3.0,3.0,0.0,3.0,3.0,299.0360609983327,4.0,1.0,phase_1,,,,,,,,,,,,,cyan,I
108.0,2.0,2.0,0.0,1.0,1.0,280.6137600018701,4.0,1.0,phase_1,,,,,,,,,,,,,white,hexagon
111.0,6.0,2.0,1.0,2.0,2.0,295.4850880014419,4.0,1.0,phase_1,,,,,,,,,,,,,yellow,square
0.0,6.0,0.0,1.0,3.0,3.0,280.6058880014461,4.0,1.0,phase_1,,,,,,,,,,,,,yellow,square
73.0,5.0,1.0,1.0,4.0,4.0,295.7820890005678,4.0,1.0,phase_1,,,,,,,,,,,,,green,circle
111.0,6.0,2.0,1.0,2.0,2.0,275.9053829977347,4.0,1.0,phase_1,,,,,,,,,,,,,yellow,square
92.0,6.0,2.0,1.0,3.0,3.0,301.1862040002597,4.0,1.0,phase_1,,,,,,,,,,,,,yellow,square
0.0,2.0,0.0,0.0,4.0,4.0,297.4196309987746,4.0,1.0,phase_1,,,,,,,,,,,,,white,hexagon
119.0,6.0,2.0,1.0,4.0,4.0,459.5245650016295,4.0,1.0,phase_1,,,,,,,,,,,,,yellow,square
64.0,5.0,1.0,1.0,3.0,3.0,297.3566599976038,4.0,1.0,phase_1,,,,,,,,,,,,,green,circle
213.0,3.0,3.0,0.0,4.0,4.0,315.6183159990178,4.0,1.0,phase_1,,,,,,,,,,,,,cyan,I
403.0,4.0,4.0,0.0,4.0,4.0,292.9280190001009,4.0,1.0,phase_1,,,,,,,,,,,,,magenta,triangle
183.0,7.0,3.0,1.0,2.0,2.0,332.7974239982723,4.0,1.0,phase_1,,,,,,,,,,,,,gray,cross
195.0,3.0,3.0,0.0,1.0,1.0,280.8308580024459,4.0,1.0,phase_1,,,,,,,,,,,,,cyan,I
212.0,3.0,3.0,0.0,1.0,1.0,297.19622599805,4.0,1.0,phase_1,,,,,,,,,,,,,cyan,I
97.0,2.0,2.0,0.0,1.0,1.0,308.2595449996006,4.0,1.0,phase_1,,,,,,,,,,,,,white,hexagon
104.0,6.0,2.0,1.0,1.0,1.0,234.6280519996071,4.0,1.0,phase_1,,,,,,,,,,,,,yellow,square
382.0,8.0,4.0,1.0,2.0,2.0,292.266770000424,4.0,1.0,phase_1,,,,,,,,,,,,,orange,diamond
79.0,6.0,2.0,1.0,2.0,2.0,331.1332169978414,4.0,1.0,phase_1,,,,,,,,,,,,,yellow,square
184.0,7.0,3.0,1.0,1.0,1.0,264.70626700029237,4.0,1.0,phase_1,,,,,,,,,,,,,gray,cross
0.0,5.0,0.0,1.0,3.0,3.0,289.0677100003813,4.0,1.0,phase_1,,,,,,,,,,,,,green,circle
184.0,3.0,3.0,0.0,1.0,1.0,254.00296899897512,4.0,1.0,phase_1,,,,,,,,,,,,,cyan,I
201.0,7.0,3.0,1.0,1.0,1.0,269.3718779992196,4.0,1.0,phase_1,,,,,,,,,,,,,gray,cross
377.0,8.0,4.0,1.0,2.0,2.0,271.5166899979522,4.0,1.0,phase_1,,,,,,,,,,,,,orange,diamond
0.0,8.0,0.0,1.0,2.0,2.0,264.4756930021685,4.0,1.0,phase_1,,,,,,,,,,,,,orange,diamond
215.0,7.0,3.0,1.0,4.0,4.0,285.6939670018619,4.0,1.0,phase_1,,,,,,,,,,,,,gray,cross
95.0,6.0,2.0,1.0,2.0,2.0,235.256775002199,4.0,1.0,phase_1,,,,,,,,,,,,,yellow,square
175.0,3.0,3.0,0.0,2.0,2.0,301.4198830023815,4.0,1.0,phase_1,,,,,,,,,,,,,cyan,I
0.0,6.0,0.0,1.0,2.0,2.0,251.7762829993444,4.0,1.0,phase_1,,,,,,,,,,,,,yellow,square
26.0,5.0,1.0,1.0,4.0,4.0,269.83571500022657,4.0,1.0,phase_1,,,,,,,,,,,,,green,circle
0.0,2.0,0.0,0.0,2.0,2.0,233.8523629987321,4.0,1.0,phase_1,,,,,,,,,,,,,white,hexagon
186.0,7.0,3.0,1.0,3.0,3.0,286.0912260002806,4.0,1.0,phase_1,,,,,,,,,,,,,gray,cross
120.0,2.0,2.0,0.0,1.0,1.0,282.9696810003952,4.0,1.0,phase_1,,,,,,,,,,,,,white,hexagon
217.0,7.0,3.0,1.0,2.0,2.0,273.6002519995963,4.0,1.0,phase_1,,,,,,,,,,,,,gray,cross
0.0,4.0,0.0,0.0,4.0,4.0,253.46671299848822,4.0,1.0,phase_1,,,,,,,,,,,,,magenta,triangle
0.0,5.0,0.0,1.0,1.0,1.0,283.0230530016706,4.0,1.0,phase_1,,,,,,,,,,,,,green,circle
191.0,7.0,3.0,1.0,3.0,3.0,276.5765029980684,4.0,1.0,phase_1,,,,,,,,,,,,,gray,cross
420.0,8.0,4.0,1.0,1.0,1.0,240.3700110007776,4.0,1.0,phase_1,,,,,,,,,,,,,orange,diamond
106.0,6.0,2.0,1.0,2.0,2.0,239.2654030008998,4.0,1.0,phase_1,,,,,,,,,,,,,yellow,square
202.0,7.0,3.0,1.0,4.0,4.0,238.1666830005997,4.0,1.0,phase_1,,,,,,,,,,,,,gray,cross
89.0,2.0,2.0,0.0,2.0,2.0,329.6724270003324,4.0,1.0,phase_1,,,,,,,,,,,,,white,hexagon
61.0,5.0,1.0,1.0,4.0,4.0,284.2899739989661,4.0,1.0,phase_1,,,,,,,,,,,,,green,circle
110.0,6.0,2.0,1.0,4.0,4.0,348.52417699949,4.0,1.0,phase_1,,,,,,,,,,,,,yellow,square
384.0,8.0,4.0,1.0,3.0,3.0,266.4544500003103,4.0,1.0,phase_1,,,,,,,,,,,,,orange,diamond
89.0,6.0,2.0,1.0,1.0,1.0,316.3322120017255,4.0,1.0,phase_1,,,,,,,,,,,,,yellow,square
420.0,8.0,4.0,1.0,4.0,4.0,254.7972079992178,4.0,1.0,phase_1,,,,,,,,,,,,,orange,diamond
0.0,4.0,0.0,0.0,3.0,3.0,310.1848309997876,4.0,1.0,phase_1,,,,,,,,,,,,,magenta,triangle
403.0,8.0,4.0,1.0,1.0,1.0,274.9572899992927,4.0,1.0,phase_1,,,,,,,,,,,,,orange,diamond
0.0,1.0,0.0,0.0,3.0,3.0,298.265834000631,4.0,1.0,phase_1,,,,,,,,,,,,,blue,flipped triangle
92.0,2.0,2.0,0.0,3.0,3.0,285.3330569996615,4.0,1.0,phase_1,,,,,,,,,,,,,white,hexagon
201.0,3.0,3.0,0.0,4.0,4.0,263.2580309982586,4.0,1.0,phase_1,,,,,,,,,,,,,cyan,I
392.0,8.0,4.0,1.0,4.0,4.0,281.2427610006125,4.0,1.0,phase_1,,,,,,,,,,,,,orange,diamond
0.0,1.0,0.0,0.0,4.0,4.0,287.0335999978124,4.0,1.0,phase_1,,,,,,,,,,,,,blue,flipped triangle
207.0,7.0,3.0,1.0,2.0,2.0,375.8555109998269,4.0,1.0,phase_1,,,,,,,,,,,,,gray,cross
28.0,5.0,1.0,1.0,2.0,2.0,310.8058100006019,4.0,1.0,phase_1,,,,,,,,,,,,,green,circle
194.0,7.0,3.0,1.0,4.0,4.0,276.3781900030153,4.0,1.0,phase_1,,,,,,,,,,,,,gray,cross
187.0,7.0,3.0,1.0,3.0,3.0,319.644122999307,4.0,1.0,phase_1,,,,,,,,,,,,,gray,cross
0.0,3.0,0.0,0.0,2.0,2.0,313.2344949990511,4.0,1.0,phase_1,,,,,,,,,,,,,cyan,I
0.0,4.0,0.0,0.0,3.0,3.0,321.5846809980576,4.0,1.0,phase_1,,,,,,,,,,,,,magenta,triangle
0.0,6.0,0.0,1.0,3.0,3.0,284.6060119991307,4.0,1.0,phase_1,,,,,,,,,,,,,yellow,square
382.0,4.0,4.0,0.0,1.0,1.0,318.7906439998187,4.0,1.0,phase_1,,,,,,,,,,,,,magenta,triangle
175.0,3.0,3.0,0.0,4.0,4.0,290.0191790031385,4.0,1.0,phase_1,,,,,,,,,,,,,cyan,I
51.0,5.0,1.0,1.0,2.0,2.0,243.1012529996223,4.0,1.0,phase_1,,,,,,,,,,,,,green,circle
0.0,8.0,0.0,1.0,1.0,1.0,350.9701160000986,4.0,1.0,phase_1,,,,,,,,,,,,,orange,diamond
383.0,4.0,4.0,0.0,2.0,2.0,306.7293979984242,4.0,1.0,phase_1,,,,,,,,,,,,,magenta,triangle
45.0,5.0,1.0,1.0,1.0,1.0,336.4069540002674,4.0,1.0,phase_1,,,,,,,,,,,,,green,circle
52.0,1.0,1.0,0.0,3.0,3.0,293.1701730012719,4.0,1.0,phase_1,,,,,,,,,,,,,blue,flipped triangle
221.0,3.0,3.0,0.0,4.0,4.0,293.1099259985785,4.0,1.0,phase_1,,,,,,,,,,,,,cyan,I
56.0,5.0,1.0,1.0,2.0,2.0,291.2649360005162,4.0,1.0,phase_1,,,,,,,,,,,,,green,circle
47.0,5.0,1.0,1.0,4.0,4.0,287.1217040010378,4.0,1.0,phase_1,,,,,,,,,,,,,green,circle
77.0,6.0,2.0,1.0,2.0,2.0,273.7584169990441,4.0,1.0,phase_1,,,,,,,,,,,,,yellow,square
424.0,8.0,4.0,1.0,3.0,3.0,266.0011389998544,4.0,1.0,phase_1,,,,,,,,,,,,,orange,diamond
124.0,6.0,2.0,1.0,3.0,3.0,285.3262790013104,4.0,1.0,phase_1,,,,,,,,,,,,,yellow,square
90.0,6.0,2.0,1.0,1.0,1.0,267.3968590024742,4.0,1.0,phase_1,,,,,,,,,,,,,yellow,square
123.0,6.0,2.0,1.0,4.0,4.0,248.4459459992649,4.0,1.0,phase_1,,,,,,,,,,,,,yellow,square
0.0,2.0,0.0,0.0,3.0,3.0,267.8421589989739,4.0,1.0,phase_1,,,,,,,,,,,,,white,hexagon
64.0,1.0,1.0,0.0,2.0,2.0,291.3083340026787,4.0,1.0,phase_1,,,,,,,,,,,,,blue,flipped triangle
415.0,8.0,4.0,1.0,4.0,4.0,285.9325780009385,4.0,1.0,phase_1,,,,,,,,,,,,,orange,diamond
387.0,4.0,4.0,0.0,1.0,1.0,288.8992020016303,4.0,1.0,phase_1,,,,,,,,,,,,,magenta,triangle
86.0,6.0,2.0,1.0,3.0,3.0,281.3471779991232,4.0,1.0,phase_1,,,,,,,,,,,,,yellow,square
210.0,3.0,3.0,0.0,3.0,3.0,287.0310610014712,4.0,1.0,phase_1,,,,,,,,,,,,,cyan,I
0.0,1.0,0.0,0.0,4.0,4.0,293.4428730004583,4.0,1.0,phase_1,,,,,,,,,,,,,blue,flipped triangle
0.0,7.0,0.0,1.0,3.0,3.0,258.5175410022202,4.0,1.0,phase_1,,,,,,,,,,,,,gray,cross
101.0,6.0,2.0,1.0,3.0,3.0,257.0485420001205,4.0,1.0,phase_1,,,,,,,,,,,,,yellow,square
106.0,2.0,2.0,0.0,3.0,3.0,269.4213430004311,4.0,1.0,phase_1,,,,,,,,,,,,,white,hexagon
0.0,2.0,2.0,0.0,5.0,5.0,345.2035019981849,1.0,1.0,phase_2,go,250.0,250.0,1.0,,,,,,,,,white,hexagon
0.0,2.0,2.0,0.0,6.0,6.0,456.5264449993265,1.0,1.0,phase_2,go,250.0,250.0,1.0,,,,,,,,,white,hexagon
0.0,8.0,4.0,1.0,5.0,5.0,400.1582689998031,1.0,1.0,phase_2,stop,250.0,250.0,3.0,,,,,,,,,orange,diamond
0.0,2.0,2.0,0.0,6.0,6.0,300.0959809978667,1.0,1.0,phase_2,go,200.0,250.0,1.0,,,,,,,,,white,hexagon
0.0,7.0,3.0,1.0,5.0,5.0,411.7305419968033,1.0,1.0,phase_2,stop,200.0,250.0,3.0,,,,,,,,,gray,cross
0.0,1.0,1.0,0.0,6.0,6.0,624.4054049966508,1.0,1.0,phase_2,go,150.0,250.0,1.0,,,,,,,,,blue,flipped triangle
0.0,7.0,3.0,1.0,6.0,6.0,380.7023730005312,1.0,1.0,phase_2,go,150.0,250.0,1.0,,,,,,,,,gray,cross
0.0,7.0,3.0,1.0,5.0,0.0,0.0,1.0,1.0,phase_2,stop,150.0,250.0,4.0,,,,,,,,,gray,cross
0.0,1.0,1.0,0.0,5.0,5.0,477.6016639989393,1.0,1.0,phase_2,go,200.0,250.0,1.0,,,,,,,,,blue,flipped triangle
0.0,7.0,3.0,1.0,5.0,0.0,0.0,1.0,1.0,phase_2,stop,200.0,250.0,4.0,,,,,,,,,gray,cross
0.0,6.0,2.0,1.0,5.0,0.0,0.0,1.0,1.0,phase_2,stop,250.0,250.0,4.0,,,,,,,,,yellow,square
0.0,1.0,1.0,0.0,5.0,5.0,406.4562460007437,1.0,1.0,phase_2,go,300.0,250.0,1.0,,,,,,,,,blue,flipped triangle
0.0,6.0,2.0,1.0,6.0,0.0,0.0,1.0,1.0,phase_2,stop,300.0,250.0,4.0,,,,,,,,,yellow,square
0.0,7.0,3.0,1.0,5.0,5.0,462.6804049985367,1.0,1.0,phase_2,stop,300.0,300.0,3.0,,,,,,,,,gray,cross
0.0,1.0,1.0,0.0,5.0,5.0,620.4194219972123,1.0,1.0,phase_2,go,250.0,300.0,1.0,,,,,,,,,blue,flipped triangle
0.0,1.0,1.0,0.0,5.0,5.0,731.6898379976919,1.0,1.0,phase_2,go,250.0,300.0,1.0,,,,,,,,,blue,flipped triangle
0.0,4.0,4.0,0.0,5.0,5.0,774.7996539983433,1.0,1.0,phase_2,go,250.0,300.0,1.0,,,,,,,,,magenta,triangle
0.0,6.0,2.0,1.0,5.0,0.0,0.0,1.0,1.0,phase_2,stop,250.0,300.0,4.0,,,,,,,,,yellow,square
0.0,2.0,2.0,0.0,5.0,5.0,559.8274590010988,1.0,1.0,phase_2,go,300.0,300.0,1.0,,,,,,,,,white,hexagon
0.0,2.0,2.0,0.0,5.0,5.0,581.1306680006965,1.0,1.0,phase_2,go,300.0,300.0,1.0,,,,,,,,,white,hexagon
0.0,2.0,2.0,0.0,5.0,5.0,558.2275949964242,1.0,1.0,phase_2,go,300.0,300.0,1.0,,,,,,,,,white,hexagon
0.0,5.0,1.0,1.0,5.0,0.0,0.0,1.0,1.0,phase_2,stop,300.0,300.0,4.0,,,,,,,,,green,circle
0.0,3.0,3.0,0.0,5.0,5.0,536.1789929993392,1.0,1.0,phase_2,go,350.0,300.0,1.0,,,,,,,,,cyan,I
0.0,3.0,3.0,0.0,6.0,6.0,534.1207769997709,1.0,1.0,phase_2,go,350.0,300.0,1.0,,,,,,,,,cyan,I
0.0,3.0,3.0,0.0,5.0,5.0,513.7521020005806,1.0,1.0,phase_2,go,350.0,300.0,1.0,,,,,,,,,cyan,I
0.0,8.0,4.0,1.0,5.0,5.0,460.3578909991483,1.0,1.0,phase_2,stop,350.0,300.0,3.0,,,,,,,,,orange,diamond
0.0,1.0,1.0,0.0,6.0,6.0,571.2929209985305,1.0,1.0,phase_2,go,300.0,300.0,1.0,,,,,,,,,blue,flipped triangle
0.0,2.0,2.0,0.0,6.0,6.0,641.5941650011519,1.0,1.0,phase_2,go,300.0,300.0,1.0,,,,,,,,,white,hexagon
0.0,8.0,4.0,1.0,5.0,0.0,0.0,1.0,1.0,phase_2,stop,300.0,300.0,4.0,,,,,,,,,orange,diamond
0.0,6.0,2.0,1.0,6.0,0.0,0.0,1.0,1.0,phase_2,stop,350.0,300.0,4.0,,,,,,,,,yellow,square
0.0,3.0,3.0,0.0,6.0,6.0,581.3129960006336,1.0,1.0,phase_2,go,350.0,350.0,1.0,,,,,,,,,cyan,I
0.0,1.0,1.0,0.0,6.0,6.0,848.4205399981875,1.0,1.0,phase_2,go,350.0,350.0,1.0,,,,,,,,,blue,flipped triangle
0.0,1.0,1.0,0.0,6.0,6.0,730.5824400027632,1.0,1.0,phase_2,go,350.0,350.0,1.0,,,,,,,,,blue,flipped triangle
0.0,6.0,2.0,1.0,5.0,5.0,462.8424170005019,1.0,1.0,phase_2,stop,350.0,350.0,3.0,,,,,,,,,yellow,square
0.0,4.0,4.0,0.0,6.0,6.0,508.70025499898475,1.0,1.0,phase_2,go,300.0,350.0,1.0,,,,,,,,,magenta,triangle
0.0,8.0,4.0,1.0,6.0,0.0,0.0,1.0,1.0,phase_2,stop,300.0,350.0,4.0,,,,,,,,,orange,diamond
0.0,5.0,1.0,1.0,5.0,5.0,667.2380489981151,2.0,1.0,phase_2,stop,300.0,400.0,3.0,,,,,,,,,green,circle
0.0,6.0,2.0,1.0,6.0,0.0,0.0,2.0,1.0,phase_2,stop,250.0,400.0,4.0,,,,,,,,,yellow,square
0.0,1.0,1.0,0.0,5.0,5.0,445.9391059972404,2.0,1.0,phase_2,go,250.0,450.0,1.0,,,,,,,,,blue,flipped triangle
0.0,8.0,4.0,1.0,5.0,0.0,0.0,2.0,1.0,phase_2,stop,250.0,450.0,4.0,,,,,,,,,orange,diamond
0.0,7.0,3.0,1.0,6.0,6.0,429.5655509995413,2.0,1.0,phase_2,stop,300.0,450.0,3.0,,,,,,,,,gray,cross
0.0,1.0,1.0,0.0,5.0,5.0,574.4558410005993,2.0,1.0,phase_2,go,300.0,400.0,1.0,,,,,,,,,blue,flipped triangle
0.0,8.0,4.0,1.0,6.0,6.0,704.9254419980571,2.0,1.0,phase_2,go,300.0,400.0,1.0,,,,,,,,,orange,diamond
0.0,8.0,4.0,1.0,5.0,5.0,516.2809190005646,2.0,1.0,phase_2,go,300.0,400.0,1.0,,,,,,,,,orange,diamond
0.0,6.0,2.0,1.0,6.0,6.0,453.2198870001593,2.0,1.0,phase_2,go,300.0,400.0,1.0,,,,,,,,,yellow,square
0.0,4.0,4.0,0.0,6.0,6.0,358.460595998622,2.0,1.0,phase_2,go,300.0,400.0,1.0,,,,,,,,,magenta,triangle
0.0,8.0,4.0,1.0,6.0,6.0,395.575861002726,2.0,1.0,phase_2,stop,300.0,400.0,3.0,,,,,,,,,orange,diamond
0.0,2.0,2.0,0.0,5.0,5.0,594.1747870019753,2.0,1.0,phase_2,go,300.0,350.0,1.0,,,,,,,,,white,hexagon
0.0,8.0,4.0,1.0,6.0,6.0,443.6919559993839,2.0,1.0,phase_2,stop,300.0,350.0,3.0,,,,,,,,,orange,diamond
0.0,4.0,4.0,0.0,5.0,5.0,621.3080599991372,2.0,1.0,phase_2,go,300.0,300.0,1.0,,,,,,,,,magenta,triangle
0.0,4.0,4.0,0.0,6.0,6.0,576.8153790013457,2.0,1.0,phase_2,go,300.0,300.0,1.0,,,,,,,,,magenta,triangle
0.0,3.0,3.0,0.0,6.0,6.0,658.4348929973203,2.0,1.0,phase_2,go,300.0,300.0,1.0,,,,,,,,,cyan,I
0.0,2.0,2.0,0.0,5.0,5.0,585.8892040014325,2.0,1.0,phase_2,go,300.0,300.0,1.0,,,,,,,,,white,hexagon
0.0,5.0,1.0,1.0,6.0,6.0,437.4971489996824,2.0,1.0,phase_2,go,300.0,300.0,1.0,,,,,,,,,green,circle
0.0,4.0,4.0,0.0,5.0,5.0,586.5231349998794,2.0,1.0,phase_2,go,300.0,300.0,1.0,,,,,,,,,magenta,triangle
0.0,5.0,1.0,1.0,5.0,5.0,721.6357309989689,2.0,1.0,phase_2,go,300.0,300.0,1.0,,,,,,,,,green,circle
0.0,4.0,4.0,0.0,5.0,5.0,571.9954580017657,2.0,1.0,phase_2,go,300.0,300.0,1.0,,,,,,,,,magenta,triangle
0.0,5.0,1.0,1.0,6.0,0.0,0.0,2.0,1.0,phase_2,stop,300.0,300.0,4.0,,,,,,,,,green,circle
0.0,7.0,3.0,1.0,6.0,0.0,0.0,2.0,1.0,phase_2,stop,300.0,350.0,4.0,,,,,,,,,gray,cross
0.0,4.0,4.0,0.0,5.0,5.0,474.661277999985,2.0,1.0,phase_2,go,300.0,400.0,1.0,,,,,,,,,magenta,triangle
0.0,8.0,4.0,1.0,5.0,5.0,420.7883939998282,2.0,1.0,phase_2,stop,300.0,400.0,3.0,,,,,,,,,orange,diamond
0.0,6.0,2.0,1.0,5.0,0.0,0.0,2.0,1.0,phase_2,stop,250.0,400.0,4.0,,,,,,,,,yellow,square
0.0,3.0,3.0,0.0,5.0,5.0,718.9282619983715,2.0,1.0,phase_2,go,300.0,400.0,1.0,,,,,,,,,cyan,I
0.0,1.0,1.0,0.0,6.0,6.0,622.1374189990456,2.0,1.0,phase_2,go,300.0,400.0,1.0,,,,,,,,,blue,flipped triangle
0.0,4.0,4.0,0.0,6.0,6.0,609.8456409999926,2.0,1.0,phase_2,go,300.0,400.0,1.0,,,,,,,,,magenta,triangle
0.0,8.0,4.0,1.0,5.0,0.0,0.0,2.0,1.0,phase_2,stop,300.0,400.0,4.0,,,,,,,,,orange,diamond
0.0,1.0,1.0,0.0,6.0,6.0,365.298619002715,2.0,1.0,phase_2,go,350.0,400.0,1.0,,,,,,,,,blue,flipped triangle
0.0,8.0,4.0,1.0,6.0,0.0,0.0,2.0,1.0,phase_2,stop,350.0,400.0,4.0,,,,,,,,,orange,diamond
0.0,1.0,1.0,0.0,5.0,5.0,640.3450819998397,2.0,1.0,phase_2,go,350.0,450.0,1.0,,,,,,,,,blue,flipped triangle
0.0,7.0,3.0,1.0,6.0,0.0,0.0,2.0,1.0,phase_2,stop,350.0,450.0,4.0,,,,,,,,,gray,cross
0.0,2.0,2.0,0.0,6.0,6.0,901.2157370016212,2.0,1.0,phase_2,go,350.0,500.0,1.0,,,,,,,,,white,hexagon
0.0,6.0,2.0,1.0,5.0,0.0,0.0,2.0,1.0,phase_2,stop,350.0,500.0,4.0,,,,,,,,,yellow,square
0.0,4.0,4.0,0.0,5.0,5.0,582.7739749984175,3.0,1.0,phase_2,go,400.0,500.0,1.0,,,,,,,,,magenta,triangle
0.0,6.0,2.0,1.0,5.0,0.0,0.0,3.0,1.0,phase_2,stop,400.0,500.0,4.0,,,,,,,,,yellow,square
0.0,7.0,3.0,1.0,5.0,5.0,933.2929590018466,3.0,1.0,phase_2,go,450.0,500.0,1.0,,,,,,,,,gray,cross
0.0,6.0,2.0,1.0,5.0,5.0,785.6361140002264,3.0,1.0,phase_2,go,450.0,500.0,1.0,,,,,,,,,yellow,square
0.0,3.0,3.0,0.0,6.0,6.0,725.4010120013845,3.0,1.0,phase_2,go,450.0,500.0,1.0,,,,,,,,,cyan,I
0.0,8.0,4.0,1.0,6.0,6.0,308.8155600016762,3.0,1.0,phase_2,stop,450.0,500.0,3.0,,,,,,,,,orange,diamond
0.0,5.0,1.0,1.0,5.0,5.0,338.5027959993749,3.0,1.0,phase_2,go,450.0,450.0,1.0,,,,,,,,,green,circle
0.0,6.0,2.0,1.0,6.0,0.0,0.0,3.0,1.0,phase_2,stop,450.0,450.0,4.0,,,,,,,,,yellow,square
0.0,3.0,3.0,0.0,5.0,5.0,531.0393730032956,3.0,1.0,phase_2,go,450.0,500.0,1.0,,,,,,,,,cyan,I
0.0,2.0,2.0,0.0,5.0,5.0,593.4786739999254,3.0,1.0,phase_2,go,450.0,500.0,1.0,,,,,,,,,white,hexagon
0.0,6.0,2.0,1.0,6.0,6.0,324.5435870012443,3.0,1.0,phase_2,stop,450.0,500.0,3.0,,,,,,,,,yellow,square
0.0,5.0,1.0,1.0,6.0,6.0,634.6545809974486,3.0,1.0,phase_2,go,450.0,450.0,1.0,,,,,,,,,green,circle
0.0,7.0,3.0,1.0,5.0,5.0,590.3246939997189,3.0,1.0,phase_2,stop,450.0,450.0,3.0,,,,,,,,,gray,cross
0.0,6.0,2.0,1.0,6.0,0.0,0.0,3.0,1.0,phase_2,stop,400.0,450.0,4.0,,,,,,,,,yellow,square
0.0,3.0,3.0,0.0,6.0,6.0,653.45296599844,3.0,1.0,phase_2,go,400.0,500.0,1.0,,,,,,,,,cyan,I
0.0,1.0,1.0,0.0,6.0,6.0,592.8843210022023,3.0,1.0,phase_2,go,400.0,500.0,1.0,,,,,,,,,blue,flipped triangle
0.0,7.0,3.0,1.0,6.0,0.0,0.0,3.0,1.0,phase_2,stop,400.0,500.0,4.0,,,,,,,,,gray,cross
0.0,7.0,3.0,1.0,6.0,0.0,0.0,3.0,1.0,phase_2,stop,400.0,550.0,4.0,,,,,,,,,gray,cross
0.0,3.0,3.0,0.0,5.0,5.0,554.7123219985224,3.0,1.0,phase_2,go,400.0,600.0,1.0,,,,,,,,,cyan,I
0.0,5.0,1.0,1.0,5.0,0.0,0.0,3.0,1.0,phase_2,stop,400.0,600.0,4.0,,,,,,,,,green,circle
0.0,5.0,1.0,1.0,6.0,0.0,0.0,3.0,1.0,phase_2,stop,450.0,600.0,4.0,,,,,,,,,green,circle
0.0,2.0,2.0,0.0,6.0,6.0,631.8577589991037,3.0,1.0,phase_2,go,450.0,650.0,1.0,,,,,,,,,white,hexagon
0.0,7.0,3.0,1.0,6.0,0.0,0.0,3.0,1.0,phase_2,stop,450.0,650.0,4.0,,,,,,,,,gray,cross
0.0,1.0,1.0,0.0,5.0,5.0,501.747730999341,3.0,1.0,phase_2,go,450.0,700.0,1.0,,,,,,,,,blue,flipped triangle
0.0,3.0,3.0,0.0,6.0,6.0,540.3504480018455,3.0,1.0,phase_2,go,450.0,700.0,1.0,,,,,,,,,cyan,I
0.0,6.0,2.0,1.0,5.0,0.0,0.0,3.0,1.0,phase_2,stop,450.0,700.0,4.0,,,,,,,,,yellow,square
0.0,8.0,4.0,1.0,5.0,0.0,0.0,3.0,1.0,phase_2,stop,500.0,700.0,4.0,,,,,,,,,orange,diamond
0.0,5.0,1.0,1.0,5.0,0.0,0.0,3.0,1.0,phase_2,stop,550.0,700.0,4.0,,,,,,,,,green,circle
0.0,7.0,3.0,1.0,6.0,6.0,1145.8389139988867,3.0,1.0,phase_2,go,600.0,700.0,1.0,,,,,,,,,gray,cross
0.0,3.0,3.0,0.0,5.0,5.0,547.9193470018799,3.0,1.0,phase_2,go,600.0,700.0,1.0,,,,,,,,,cyan,I
0.0,3.0,3.0,0.0,6.0,6.0,544.8259110016807,3.0,1.0,phase_2,go,600.0,700.0,1.0,,,,,,,,,cyan,I
0.0,7.0,3.0,1.0,6.0,6.0,786.0423130005074,3.0,1.0,phase_2,stop,600.0,700.0,3.0,,,,,,,,,gray,cross
0.0,5.0,1.0,1.0,5.0,5.0,1007.4052290001418,3.0,1.0,phase_2,go,600.0,650.0,1.0,,,,,,,,,green,circle
0.0,5.0,1.0,1.0,6.0,6.0,770.260822999262,3.0,1.0,phase_2,go,600.0,650.0,1.0,,,,,,,,,green,circle
0.0,5.0,1.0,1.0,5.0,5.0,760.0274230026116,3.0,1.0,phase_2,stop,600.0,650.0,3.0,,,,,,,,,green,circle
0.0,3.0,3.0,0.0,5.0,5.0,536.8485969993344,3.0,1.0,phase_2,go,550.0,650.0,1.0,,,,,,,,,cyan,I
0.0,1.0,1.0,0.0,6.0,6.0,395.82896499996417,4.0,1.0,phase_2,go,550.0,650.0,1.0,,,,,,,,,blue,flipped triangle
0.0,1.0,1.0,0.0,5.0,5.0,458.1334159993275,4.0,1.0,phase_2,go,550.0,650.0,1.0,,,,,,,,,blue,flipped triangle
0.0,2.0,2.0,0.0,6.0,6.0,456.5173080009117,4.0,1.0,phase_2,go,550.0,650.0,1.0,,,,,,,,,white,hexagon
0.0,1.0,1.0,0.0,6.0,6.0,302.6325889986765,4.0,1.0,phase_2,go,550.0,650.0,1.0,,,,,,,,,blue,flipped triangle
0.0,8.0,4.0,1.0,5.0,5.0,544.8933320003562,4.0,1.0,phase_2,go,550.0,650.0,1.0,,,,,,,,,orange,diamond
0.0,4.0,4.0,0.0,6.0,6.0,573.8934729997709,4.0,1.0,phase_2,go,550.0,650.0,1.0,,,,,,,,,magenta,triangle
0.0,3.0,3.0,0.0,5.0,5.0,414.8758310002449,4.0,1.0,phase_2,go,550.0,650.0,1.0,,,,,,,,,cyan,I
0.0,6.0,2.0,1.0,6.0,6.0,514.9724469993089,4.0,1.0,phase_2,stop,550.0,650.0,3.0,,,,,,,,,yellow,square
0.0,7.0,3.0,1.0,5.0,5.0,656.2239439990663,4.0,1.0,phase_2,stop,550.0,600.0,3.0,,,,,,,,,gray,cross
0.0,8.0,4.0,1.0,6.0,6.0,634.0429930023674,4.0,1.0,phase_2,go,500.0,600.0,1.0,,,,,,,,,orange,diamond
0.0,1.0,1.0,0.0,5.0,5.0,604.7896079981001,4.0,1.0,phase_2,go,500.0,600.0,1.0,,,,,,,,,blue,flipped triangle
0.0,5.0,1.0,1.0,6.0,0.0,0.0,4.0,1.0,phase_2,stop,500.0,600.0,4.0,,,,,,,,,green,circle
0.0,7.0,3.0,1.0,6.0,6.0,690.8708840019244,4.0,1.0,phase_2,go,500.0,650.0,1.0,,,,,,,,,gray,cross
0.0,5.0,1.0,1.0,6.0,6.0,768.2798940004432,4.0,1.0,phase_2,stop,500.0,650.0,3.0,,,,,,,,,green,circle
0.0,6.0,2.0,1.0,6.0,6.0,833.386801998131,4.0,1.0,phase_2,go,500.0,600.0,1.0,,,,,,,,,yellow,square
0.0,4.0,4.0,0.0,6.0,6.0,344.4527610008663,4.0,1.0,phase_2,go,500.0,600.0,1.0,,,,,,,,,magenta,triangle
0.0,8.0,4.0,1.0,5.0,5.0,657.7211330004502,4.0,1.0,phase_2,go,500.0,600.0,1.0,,,,,,,,,orange,diamond
0.0,3.0,3.0,0.0,5.0,5.0,428.2278509999742,4.0,1.0,phase_2,go,500.0,600.0,1.0,,,,,,,,,cyan,I
0.0,6.0,2.0,1.0,5.0,5.0,538.3035089980694,4.0,1.0,phase_2,stop,500.0,600.0,3.0,,,,,,,,,yellow,square
0.0,7.0,3.0,1.0,5.0,0.0,0.0,4.0,1.0,phase_2,stop,450.0,600.0,4.0,,,,,,,,,gray,cross
0.0,2.0,2.0,0.0,5.0,5.0,476.9304699984786,4.0,1.0,phase_2,go,500.0,600.0,1.0,,,,,,,,,white,hexagon
0.0,1.0,1.0,0.0,5.0,5.0,445.3473720022884,4.0,1.0,phase_2,go,500.0,600.0,1.0,,,,,,,,,blue,flipped triangle
0.0,8.0,4.0,1.0,6.0,6.0,632.1963090013014,4.0,1.0,phase_2,stop,500.0,600.0,3.0,,,,,,,,,orange,diamond
0.0,1.0,1.0,0.0,6.0,6.0,466.8348289997084,4.0,1.0,phase_2,go,500.0,550.0,1.0,,,,,,,,,blue,flipped triangle
0.0,4.0,4.0,0.0,6.0,6.0,579.7697180023533,4.0,1.0,phase_2,go,500.0,550.0,1.0,,,,,,,,,magenta,triangle
0.0,8.0,4.0,1.0,6.0,0.0,0.0,4.0,1.0,phase_2,stop,500.0,550.0,4.0,,,,,,,,,orange,diamond
0.0,4.0,4.0,0.0,5.0,5.0,619.1047979991708,4.0,1.0,phase_2,go,500.0,600.0,1.0,,,,,,,,,magenta,triangle
0.0,6.0,2.0,1.0,5.0,0.0,0.0,4.0,1.0,phase_2,stop,500.0,600.0,4.0,,,,,,,,,yellow,square
0.0,2.0,2.0,0.0,5.0,5.0,504.1834059993562,4.0,1.0,phase_2,go,550.0,600.0,1.0,,,,,,,,,white,hexagon
0.0,1.0,1.0,0.0,5.0,5.0,513.8429580001684,4.0,1.0,phase_2,go,550.0,600.0,1.0,,,,,,,,,blue,flipped triangle
0.0,2.0,2.0,0.0,5.0,5.0,445.052309998573,4.0,1.0,phase_2,go,550.0,600.0,1.0,,,,,,,,,white,hexagon
0.0,1.0,1.0,0.0,5.0,5.0,403.2833509991178,4.0,1.0,phase_2,go,550.0,600.0,1.0,,,,,,,,,blue,flipped triangle
0.0,5.0,1.0,1.0,6.0,6.0,741.3687610023771,4.0,1.0,phase_2,stop,550.0,600.0,3.0,,,,,,,,,green,circle
0.0,8.0,4.0,1.0,6.0,6.0,605.7166950013197,4.0,1.0,phase_2,stop,550.0,550.0,3.0,,,,,,,,,orange,diamond
0.0,1.0,1.0,0.0,6.0,6.0,502.56269599776715,4.0,1.0,phase_2,go,550.0,500.0,1.0,,,,,,,,,blue,flipped triangle
0.0,8.0,4.0,1.0,6.0,6.0,920.4784110006584,4.0,1.0,phase_2,go,550.0,500.0,1.0,,,,,,,,,orange,diamond
0.0,2.0,2.0,0.0,5.0,5.0,1042.5057339998602,5.0,1.0,phase_2,go,550.0,500.0,1.0,,,,,,,,,white,hexagon
0.0,5.0,1.0,1.0,5.0,5.0,305.842660000053,5.0,1.0,phase_2,stop,550.0,500.0,3.0,,,,,,,,,green,circle
0.0,7.0,3.0,1.0,6.0,6.0,747.4247790014488,5.0,1.0,phase_2,go,500.0,500.0,1.0,,,,,,,,,gray,cross
0.0,8.0,4.0,1.0,5.0,5.0,541.6368980004336,5.0,1.0,phase_2,stop,500.0,500.0,3.0,,,,,,,,,orange,diamond
0.0,1.0,1.0,0.0,5.0,5.0,416.5734830021392,5.0,1.0,phase_2,go,450.0,500.0,1.0,,,,,,,,,blue,flipped triangle
0.0,7.0,3.0,1.0,6.0,6.0,599.1467959975125,5.0,1.0,phase_2,stop,450.0,500.0,3.0,,,,,,,,,gray,cross
0.0,7.0,3.0,1.0,6.0,6.0,484.2738030019973,5.0,1.0,phase_2,go,450.0,450.0,1.0,,,,,,,,,gray,cross
0.0,3.0,3.0,0.0,5.0,5.0,488.3320519984409,5.0,1.0,phase_2,go,450.0,450.0,1.0,,,,,,,,,cyan,I
0.0,2.0,2.0,0.0,6.0,6.0,373.3064970001578,5.0,1.0,phase_2,go,450.0,450.0,1.0,,,,,,,,,white,hexagon
0.0,2.0,2.0,0.0,5.0,5.0,477.8381070027535,5.0,1.0,phase_2,go,450.0,450.0,1.0,,,,,,,,,white,hexagon
0.0,7.0,3.0,1.0,5.0,5.0,352.1933709998848,5.0,1.0,phase_2,stop,450.0,450.0,3.0,,,,,,,,,gray,cross
0.0,2.0,2.0,0.0,5.0,5.0,447.6145429980533,5.0,1.0,phase_2,go,400.0,450.0,1.0,,,,,,,,,white,hexagon
0.0,8.0,4.0,1.0,6.0,6.0,801.235506998637,5.0,1.0,phase_2,go,400.0,450.0,1.0,,,,,,,,,orange,diamond
0.0,6.0,2.0,1.0,6.0,6.0,403.3140179999464,5.0,1.0,phase_2,go,400.0,450.0,1.0,,,,,,,,,yellow,square
0.0,8.0,4.0,1.0,6.0,6.0,568.1241829988721,5.0,1.0,phase_2,go,400.0,450.0,1.0,,,,,,,,,orange,diamond
0.0,5.0,1.0,1.0,5.0,5.0,354.7533429991745,5.0,1.0,phase_2,stop,400.0,450.0,3.0,,,,,,,,,green,circle
0.0,5.0,1.0,1.0,6.0,6.0,523.9945590001298,5.0,1.0,phase_2,stop,350.0,450.0,3.0,,,,,,,,,green,circle
0.0,6.0,2.0,1.0,6.0,0.0,0.0,5.0,1.0,phase_2,stop,350.0,400.0,4.0,,,,,,,,,yellow,square
0.0,6.0,2.0,1.0,5.0,5.0,801.266400001623,5.0,1.0,phase_2,go,350.0,450.0,1.0,,,,,,,,,yellow,square
0.0,6.0,2.0,1.0,6.0,0.0,0.0,5.0,1.0,phase_2,stop,350.0,450.0,4.0,,,,,,,,,yellow,square
0.0,3.0,3.0,0.0,5.0,5.0,477.1633769996697,5.0,1.0,phase_2,go,350.0,500.0,1.0,,,,,,,,,cyan,I
0.0,1.0,1.0,0.0,6.0,6.0,543.2385819985939,5.0,1.0,phase_2,go,350.0,500.0,1.0,,,,,,,,,blue,flipped triangle
0.0,3.0,3.0,0.0,6.0,6.0,332.2759770017001,5.0,1.0,phase_2,go,350.0,500.0,1.0,,,,,,,,,cyan,I
0.0,5.0,1.0,1.0,5.0,0.0,0.0,5.0,1.0,phase_2,stop,350.0,500.0,4.0,,,,,,,,,green,circle
0.0,3.0,3.0,0.0,6.0,6.0,425.6087859976105,5.0,1.0,phase_2,go,400.0,500.0,1.0,,,,,,,,,cyan,I
0.0,8.0,4.0,1.0,5.0,5.0,480.32927299937,5.0,1.0,phase_2,stop,400.0,500.0,3.0,,,,,,,,,orange,diamond
0.0,5.0,1.0,1.0,6.0,0.0,0.0,5.0,1.0,phase_2,stop,350.0,500.0,4.0,,,,,,,,,green,circle
0.0,2.0,2.0,0.0,5.0,5.0,483.7701119977282,5.0,1.0,phase_2,go,350.0,550.0,1.0,,,,,,,,,white,hexagon
0.0,7.0,3.0,1.0,6.0,0.0,0.0,5.0,1.0,phase_2,stop,350.0,550.0,4.0,,,,,,,,,gray,cross
0.0,7.0,3.0,1.0,5.0,5.0,716.7689300003985,5.0,1.0,phase_2,go,350.0,600.0,1.0,,,,,,,,,gray,cross
0.0,5.0,1.0,1.0,5.0,0.0,0.0,5.0,1.0,phase_2,stop,350.0,600.0,4.0,,,,,,,,,green,circle
0.0,2.0,2.0,0.0,5.0,5.0,381.8005479988642,5.0,1.0,phase_2,go,400.0,600.0,1.0,,,,,,,,,white,hexagon
0.0,8.0,4.0,1.0,5.0,5.0,337.0041440030036,5.0,1.0,phase_2,stop,400.0,600.0,3.0,,,,,,,,,orange,diamond
0.0,6.0,2.0,1.0,6.0,6.0,781.1601820030774,5.0,1.0,phase_2,go,350.0,600.0,1.0,,,,,,,,,yellow,square
0.0,8.0,4.0,1.0,6.0,6.0,635.843855998246,5.0,1.0,phase_2,stop,350.0,600.0,3.0,,,,,,,,,orange,diamond
0.0,5.0,1.0,1.0,5.0,5.0,309.6697660002974,5.0,1.0,phase_2,stop,350.0,550.0,3.0,,,,,,,,,green,circle
0.0,2.0,2.0,0.0,6.0,6.0,498.283906999859,6.0,1.0,phase_2,go,300.0,550.0,1.0,,,,,,,,,white,hexagon
0.0,7.0,3.0,1.0,6.0,0.0,0.0,6.0,1.0,phase_2,stop,300.0,550.0,4.0,,,,,,,,,gray,cross
0.0,1.0,1.0,0.0,6.0,6.0,552.6149150027777,6.0,1.0,phase_2,go,300.0,600.0,1.0,,,,,,,,,blue,flipped triangle
0.0,2.0,2.0,0.0,6.0,6.0,400.5923050026467,6.0,1.0,phase_2,go,300.0,600.0,1.0,,,,,,,,,white,hexagon
0.0,2.0,2.0,0.0,6.0,6.0,390.7354140028474,6.0,1.0,phase_2,go,300.0,600.0,1.0,,,,,,,,,white,hexagon
0.0,7.0,3.0,1.0,5.0,5.0,576.4111050011707,6.0,1.0,phase_2,go,300.0,600.0,1.0,,,,,,,,,gray,cross
0.0,8.0,4.0,1.0,6.0,6.0,512.6637209978071,6.0,1.0,phase_2,stop,300.0,600.0,3.0,,,,,,,,,orange,diamond
0.0,4.0,4.0,0.0,5.0,5.0,356.3412289986445,6.0,1.0,phase_2,go,300.0,550.0,1.0,,,,,,,,,magenta,triangle
0.0,4.0,4.0,0.0,5.0,5.0,434.0501810002024,6.0,1.0,phase_2,go,300.0,550.0,1.0,,,,,,,,,magenta,triangle
0.0,4.0,4.0,0.0,6.0,6.0,576.0731650007074,6.0,1.0,phase_2,go,300.0,550.0,1.0,,,,,,,,,magenta,triangle
0.0,3.0,3.0,0.0,6.0,6.0,432.5440380016516,6.0,1.0,phase_2,go,300.0,550.0,1.0,,,,,,,,,cyan,I
0.0,2.0,2.0,0.0,6.0,6.0,451.0818990020198,6.0,1.0,phase_2,go,300.0,550.0,1.0,,,,,,,,,white,hexagon
0.0,4.0,4.0,0.0,6.0,6.0,403.2549020012084,6.0,1.0,phase_2,go,300.0,550.0,1.0,,,,,,,,,magenta,triangle
0.0,1.0,1.0,0.0,5.0,5.0,431.5571059996728,6.0,1.0,phase_2,go,300.0,550.0,1.0,,,,,,,,,blue,flipped triangle
0.0,5.0,1.0,1.0,5.0,0.0,0.0,6.0,1.0,phase_2,stop,300.0,550.0,4.0,,,,,,,,,green,circle
0.0,7.0,3.0,1.0,5.0,0.0,0.0,6.0,1.0,phase_2,stop,350.0,550.0,4.0,,,,,,,,,gray,cross
0.0,7.0,3.0,1.0,6.0,6.0,632.8741149991401,6.0,1.0,phase_2,stop,400.0,550.0,3.0,,,,,,,,,gray,cross
0.0,4.0,4.0,0.0,5.0,5.0,445.0918990005448,6.0,1.0,phase_2,go,400.0,500.0,1.0,,,,,,,,,magenta,triangle
0.0,8.0,4.0,1.0,5.0,0.0,0.0,6.0,1.0,phase_2,stop,400.0,500.0,4.0,,,,,,,,,orange,diamond
0.0,3.0,3.0,0.0,5.0,5.0,466.012082000816,6.0,1.0,phase_2,go,450.0,500.0,1.0,,,,,,,,,cyan,I
0.0,5.0,1.0,1.0,6.0,0.0,0.0,6.0,1.0,phase_2,stop,450.0,500.0,4.0,,,,,,,,,green,circle
0.0,6.0,2.0,1.0,6.0,6.0,843.4080719998747,6.0,1.0,phase_2,go,450.0,550.0,1.0,,,,,,,,,yellow,square
0.0,6.0,2.0,1.0,6.0,0.0,0.0,6.0,1.0,phase_2,stop,450.0,550.0,4.0,,,,,,,,,yellow,square
0.0,2.0,2.0,0.0,6.0,6.0,481.6918619981152,6.0,1.0,phase_2,go,450.0,600.0,1.0,,,,,,,,,white,hexagon
0.0,5.0,1.0,1.0,5.0,0.0,0.0,6.0,1.0,phase_2,stop,450.0,600.0,4.0,,,,,,,,,green,circle
0.0,1.0,1.0,0.0,6.0,6.0,522.0296550032799,6.0,1.0,phase_2,go,500.0,600.0,1.0,,,,,,,,,blue,flipped triangle
0.0,2.0,2.0,0.0,5.0,5.0,427.8347369981929,6.0,1.0,phase_2,go,500.0,600.0,1.0,,,,,,,,,white,hexagon
0.0,3.0,3.0,0.0,5.0,5.0,378.7321049967431,6.0,1.0,phase_2,go,500.0,600.0,1.0,,,,,,,,,cyan,I
0.0,4.0,4.0,0.0,6.0,6.0,464.3679490000068,6.0,1.0,phase_2,go,500.0,600.0,1.0,,,,,,,,,magenta,triangle
0.0,4.0,4.0,0.0,5.0,5.0,433.4670509997522,6.0,1.0,phase_2,go,500.0,600.0,1.0,,,,,,,,,magenta,triangle
0.0,7.0,3.0,1.0,5.0,0.0,0.0,6.0,1.0,phase_2,stop,500.0,600.0,4.0,,,,,,,,,gray,cross
0.0,4.0,4.0,0.0,6.0,6.0,520.2440479988582,6.0,1.0,phase_2,go,550.0,600.0,1.0,,,,,,,,,magenta,triangle
0.0,8.0,4.0,1.0,6.0,6.0,692.534098001488,6.0,1.0,phase_2,stop,550.0,600.0,3.0,,,,,,,,,orange,diamond
0.0,3.0,3.0,0.0,6.0,6.0,495.3262759991048,6.0,1.0,phase_2,go,550.0,550.0,1.0,,,,,,,,,cyan,I
0.0,5.0,1.0,1.0,6.0,0.0,0.0,6.0,1.0,phase_2,stop,550.0,550.0,4.0,,,,,,,,,green,circle
0.0,1.0,1.0,0.0,5.0,5.0,403.6280760010413,6.0,1.0,phase_2,go,550.0,600.0,1.0,,,,,,,,,blue,flipped triangle
0.0,2.0,2.0,0.0,5.0,5.0,447.5064879989077,7.0,1.0,phase_2,go,550.0,600.0,1.0,,,,,,,,,white,hexagon
0.0,6.0,2.0,1.0,6.0,6.0,666.2767189991428,7.0,1.0,phase_2,stop,550.0,600.0,3.0,,,,,,,,,yellow,square
0.0,4.0,4.0,0.0,6.0,6.0,485.7911799990688,7.0,1.0,phase_2,go,550.0,550.0,1.0,,,,,,,,,magenta,triangle
0.0,5.0,1.0,1.0,6.0,6.0,863.2275900017703,7.0,1.0,phase_2,go,550.0,550.0,1.0,,,,,,,,,green,circle
0.0,8.0,4.0,1.0,5.0,5.0,514.3233490016428,7.0,1.0,phase_2,stop,550.0,550.0,3.0,,,,,,,,,orange,diamond
0.0,5.0,1.0,1.0,5.0,5.0,585.2518869978667,7.0,1.0,phase_2,go,500.0,550.0,1.0,,,,,,,,,green,circle
0.0,1.0,1.0,0.0,6.0,6.0,514.9728289979976,7.0,1.0,phase_2,go,500.0,550.0,1.0,,,,,,,,,blue,flipped triangle
0.0,4.0,4.0,0.0,6.0,6.0,367.8421490003529,7.0,1.0,phase_2,go,500.0,550.0,1.0,,,,,,,,,magenta,triangle
0.0,6.0,2.0,1.0,5.0,5.0,537.0622989976255,7.0,1.0,phase_2,stop,500.0,550.0,3.0,,,,,,,,,yellow,square
0.0,7.0,3.0,1.0,5.0,0.0,0.0,7.0,1.0,phase_2,stop,450.0,550.0,4.0,,,,,,,,,gray,cross
0.0,4.0,4.0,0.0,5.0,5.0,657.205146002525,7.0,1.0,phase_2,go,500.0,550.0,1.0,,,,,,,,,magenta,triangle
0.0,4.0,4.0,0.0,5.0,5.0,451.4475300020422,7.0,1.0,phase_2,go,500.0,550.0,1.0,,,,,,,,,magenta,triangle
0.0,4.0,4.0,0.0,6.0,6.0,483.8282409982639,7.0,1.0,phase_2,go,500.0,550.0,1.0,,,,,,,,,magenta,triangle
0.0,3.0,3.0,0.0,5.0,5.0,399.4944939986453,7.0,1.0,phase_2,go,500.0,550.0,1.0,,,,,,,,,cyan,I
0.0,6.0,2.0,1.0,5.0,5.0,349.01493300276337,7.0,1.0,phase_2,stop,500.0,550.0,3.0,,,,,,,,,yellow,square
0.0,2.0,2.0,0.0,6.0,6.0,440.564219999942,7.0,1.0,phase_2,go,450.0,550.0,1.0,,,,,,,,,white,hexagon
0.0,4.0,4.0,0.0,5.0,5.0,404.4941899992409,7.0,1.0,phase_2,go,450.0,550.0,1.0,,,,,,,,,magenta,triangle
0.0,8.0,4.0,1.0,5.0,5.0,498.4600370007683,7.0,1.0,phase_2,stop,450.0,550.0,3.0,,,,,,,,,orange,diamond
0.0,5.0,1.0,1.0,6.0,6.0,415.1488810020964,7.0,1.0,phase_2,stop,400.0,550.0,3.0,,,,,,,,,green,circle
0.0,2.0,2.0,0.0,6.0,6.0,352.9594569990877,7.0,1.0,phase_2,go,400.0,500.0,1.0,,,,,,,,,white,hexagon
0.0,3.0,3.0,0.0,5.0,5.0,512.1952219997183,7.0,1.0,phase_2,go,400.0,500.0,1.0,,,,,,,,,cyan,I
0.0,8.0,4.0,1.0,6.0,0.0,0.0,7.0,1.0,phase_2,stop,400.0,500.0,4.0,,,,,,,,,orange,diamond
0.0,5.0,1.0,1.0,5.0,0.0,0.0,7.0,1.0,phase_2,stop,400.0,550.0,4.0,,,,,,,,,green,circle
0.0,5.0,1.0,1.0,6.0,0.0,0.0,7.0,1.0,phase_2,stop,450.0,550.0,4.0,,,,,,,,,green,circle
0.0,8.0,4.0,1.0,5.0,5.0,800.0363589999324,7.0,1.0,phase_2,go,450.0,600.0,1.0,,,,,,,,,orange,diamond
0.0,3.0,3.0,0.0,6.0,6.0,486.1685120013135,7.0,1.0,phase_2,go,450.0,600.0,1.0,,,,,,,,,cyan,I
0.0,1.0,1.0,0.0,6.0,6.0,444.7254229999089,7.0,1.0,phase_2,go,450.0,600.0,1.0,,,,,,,,,blue,flipped triangle
0.0,4.0,4.0,0.0,6.0,6.0,620.4602949983382,7.0,1.0,phase_2,go,450.0,600.0,1.0,,,,,,,,,magenta,triangle
0.0,3.0,3.0,0.0,6.0,6.0,356.5300929985824,7.0,1.0,phase_2,go,450.0,600.0,1.0,,,,,,,,,cyan,I
0.0,5.0,1.0,1.0,6.0,6.0,948.4854330003144,7.0,1.0,phase_2,go,450.0,600.0,1.0,,,,,,,,,green,circle
0.0,2.0,2.0,0.0,6.0,6.0,392.8690459979407,7.0,1.0,phase_2,go,450.0,600.0,1.0,,,,,,,,,white,hexagon
0.0,5.0,1.0,1.0,5.0,5.0,570.4551889975846,7.0,1.0,phase_2,stop,450.0,600.0,3.0,,,,,,,,,green,circle
0.0,3.0,3.0,0.0,6.0,6.0,359.0574689987988,7.0,1.0,phase_2,go,400.0,600.0,1.0,,,,,,,,,cyan,I
0.0,6.0,2.0,1.0,5.0,0.0,0.0,7.0,1.0,phase_2,stop,400.0,600.0,4.0,,,,,,,,,yellow,square
0.0,3.0,3.0,0.0,6.0,6.0,392.3945989990898,7.0,1.0,phase_2,go,450.0,600.0,1.0,,,,,,,,,cyan,I
0.0,3.0,3.0,0.0,6.0,6.0,343.9416519977385,7.0,1.0,phase_2,go,450.0,600.0,1.0,,,,,,,,,cyan,I
0.0,4.0,4.0,0.0,6.0,6.0,445.0634010026988,8.0,1.0,phase_2,go,450.0,600.0,1.0,,,,,,,,,magenta,triangle
0.0,6.0,2.0,1.0,6.0,6.0,827.0465550012887,8.0,1.0,phase_2,go,450.0,600.0,1.0,,,,,,,,,yellow,square
0.0,5.0,1.0,1.0,6.0,6.0,731.6786279989174,8.0,1.0,phase_2,stop,450.0,600.0,3.0,,,,,,,,,green,circle
0.0,7.0,3.0,1.0,5.0,0.0,0.0,8.0,1.0,phase_2,stop,450.0,550.0,4.0,,,,,,,,,gray,cross
0.0,4.0,4.0,0.0,6.0,6.0,393.8665690002381,8.0,1.0,phase_2,go,500.0,550.0,1.0,,,,,,,,,magenta,triangle
0.0,6.0,2.0,1.0,5.0,5.0,668.8559750000422,8.0,1.0,phase_2,go,500.0,550.0,1.0,,,,,,,,,yellow,square
0.0,4.0,4.0,0.0,6.0,6.0,412.7760399969702,8.0,1.0,phase_2,go,500.0,550.0,1.0,,,,,,,,,magenta,triangle
0.0,4.0,4.0,0.0,5.0,5.0,365.3947339989827,8.0,1.0,phase_2,go,500.0,550.0,1.0,,,,,,,,,magenta,triangle
0.0,6.0,2.0,1.0,6.0,6.0,588.9526229984767,8.0,1.0,phase_2,stop,500.0,550.0,3.0,,,,,,,,,yellow,square
0.0,7.0,3.0,1.0,5.0,5.0,753.5745370005316,8.0,1.0,phase_2,go,500.0,500.0,1.0,,,,,,,,,gray,cross
0.0,4.0,4.0,0.0,5.0,5.0,553.5855339985574,8.0,1.0,phase_2,go,500.0,500.0,1.0,,,,,,,,,magenta,triangle
0.0,2.0,2.0,0.0,6.0,6.0,440.2142189974256,8.0,1.0,phase_2,go,500.0,500.0,1.0,,,,,,,,,white,hexagon
0.0,1.0,1.0,0.0,5.0,5.0,464.6866330003831,8.0,1.0,phase_2,go,500.0,500.0,1.0,,,,,,,,,blue,flipped triangle
0.0,3.0,3.0,0.0,6.0,6.0,363.25675799889717,8.0,1.0,phase_2,go,500.0,500.0,1.0,,,,,,,,,cyan,I
0.0,4.0,4.0,0.0,5.0,5.0,424.1115629993146,8.0,1.0,phase_2,go,500.0,500.0,1.0,,,,,,,,,magenta,triangle
0.0,1.0,1.0,0.0,5.0,5.0,297.2339010011637,8.0,1.0,phase_2,go,500.0,500.0,1.0,,,,,,,,,blue,flipped triangle
0.0,3.0,3.0,0.0,5.0,5.0,402.3300369990465,8.0,1.0,phase_2,go,500.0,500.0,1.0,,,,,,,,,cyan,I
0.0,1.0,1.0,0.0,6.0,6.0,314.3959930021083,8.0,1.0,phase_2,go,500.0,500.0,1.0,,,,,,,,,blue,flipped triangle
0.0,7.0,3.0,1.0,5.0,0.0,0.0,8.0,1.0,phase_2,stop,500.0,500.0,4.0,,,,,,,,,gray,cross
0.0,6.0,2.0,1.0,5.0,5.0,729.5967989994097,8.0,1.0,phase_2,stop,550.0,500.0,3.0,,,,,,,,,yellow,square
0.0,4.0,4.0,0.0,5.0,5.0,383.9259509986732,8.0,1.0,phase_2,go,500.0,500.0,1.0,,,,,,,,,magenta,triangle
0.0,2.0,2.0,0.0,6.0,6.0,530.9523059986532,8.0,1.0,phase_2,go,500.0,500.0,1.0,,,,,,,,,white,hexagon
0.0,2.0,2.0,0.0,5.0,5.0,348.3593099990685,8.0,1.0,phase_2,go,500.0,500.0,1.0,,,,,,,,,white,hexagon
0.0,6.0,2.0,1.0,5.0,0.0,0.0,8.0,1.0,phase_2,stop,500.0,500.0,4.0,,,,,,,,,yellow,square
0.0,7.0,3.0,1.0,5.0,5.0,376.3978440001665,8.0,1.0,phase_2,stop,550.0,500.0,3.0,,,,,,,,,gray,cross
0.0,5.0,1.0,1.0,6.0,0.0,0.0,8.0,1.0,phase_2,stop,500.0,500.0,4.0,,,,,,,,,green,circle
0.0,3.0,3.0,0.0,5.0,5.0,501.39665599999717,8.0,1.0,phase_2,go,500.0,550.0,1.0,,,,,,,,,cyan,I
0.0,6.0,2.0,1.0,5.0,0.0,0.0,8.0,1.0,phase_2,stop,500.0,550.0,4.0,,,,,,,,,yellow,square
0.0,2.0,2.0,0.0,6.0,6.0,482.9564680003386,8.0,1.0,phase_2,go,550.0,550.0,1.0,,,,,,,,,white,hexagon
0.0,7.0,3.0,1.0,6.0,0.0,0.0,8.0,1.0,phase_2,stop,550.0,550.0,4.0,,,,,,,,,gray,cross
0.0,1.0,1.0,0.0,6.0,6.0,429.528198998014,8.0,1.0,phase_2,go,550.0,600.0,1.0,,,,,,,,,blue,flipped triangle
0.0,3.0,3.0,0.0,6.0,6.0,398.7373249983648,8.0,1.0,phase_2,go,550.0,600.0,1.0,,,,,,,,,cyan,I
0.0,8.0,4.0,1.0,5.0,5.0,582.8562140013673,8.0,1.0,phase_2,stop,550.0,600.0,3.0,,,,,,,,,orange,diamond
0.0,3.0,3.0,0.0,5.0,5.0,403.1131829979131,8.0,1.0,phase_2,go,500.0,600.0,1.0,,,,,,,,,cyan,I
0.0,7.0,3.0,1.0,6.0,0.0,0.0,8.0,1.0,phase_2,stop,500.0,600.0,4.0,,,,,,,,,gray,cross
0.0,8.0,4.0,1.0,6.0,6.0,817.518891999498,8.0,1.0,phase_2,stop,500.0,650.0,3.0,,,,,,,,,orange,diamond
0.0,4.0,4.0,0.0,7.0,2.0,3948.255788000097,1.0,1.0,phase_3,,,,,170.0,5.0,204.0,170.0,68.0,136.0,102.0,34.0,magenta,triangle
0.0,2.0,2.0,0.0,7.0,2.0,3202.243760999409,1.0,1.0,phase_3,,,,,54.0,1.0,216.0,54.0,324.0,162.0,108.0,270.0,white,hexagon
0.0,2.0,2.0,0.0,7.0,1.0,2629.456898997887,1.0,1.0,phase_3,,,,,88.0,2.0,88.0,176.0,132.0,220.0,264.0,44.0,white,hexagon
0.0,6.0,2.0,1.0,7.0,5.0,1947.4679960003411,1.0,1.0,phase_3,,,,,54.0,1.0,270.0,216.0,162.0,108.0,54.0,324.0,yellow,square
0.0,5.0,1.0,1.0,7.0,2.0,2118.408662001457,1.0,1.0,phase_3,,,,,54.0,1.0,216.0,54.0,324.0,270.0,162.0,108.0,green,circle
0.0,3.0,3.0,0.0,7.0,3.0,3055.300758998783,1.0,1.0,phase_3,,,,,234.0,6.0,156.0,39.0,234.0,195.0,78.0,117.0,cyan,I
0.0,5.0,1.0,1.0,7.0,5.0,1597.0657959987875,1.0,1.0,phase_3,,,,,39.0,1.0,234.0,78.0,156.0,117.0,39.0,195.0,green,circle
0.0,3.0,3.0,0.0,7.0,5.0,3049.884154002939,1.0,1.0,phase_3,,,,,234.0,6.0,78.0,39.0,156.0,195.0,234.0,117.0,cyan,I
0.0,2.0,2.0,0.0,7.0,5.0,2406.7840579991757,1.0,1.0,phase_3,,,,,78.0,2.0,195.0,234.0,156.0,39.0,78.0,117.0,white,hexagon
0.0,7.0,3.0,1.0,7.0,5.0,2463.8585040011094,1.0,1.0,phase_3,,,,,176.0,4.0,88.0,220.0,44.0,132.0,176.0,264.0,gray,cross
0.0,4.0,4.0,0.0,7.0,1.0,3895.700175002276,1.0,1.0,phase_3,,,,,270.0,5.0,270.0,108.0,162.0,216.0,324.0,54.0,magenta,triangle
0.0,6.0,2.0,1.0,7.0,4.0,1384.4353039967243,1.0,1.0,phase_3,,,,,98.0,2.0,196.0,294.0,147.0,98.0,245.0,49.0,yellow,square
0.0,4.0,4.0,0.0,7.0,4.0,3206.141094000486,1.0,1.0,phase_3,,,,,245.0,5.0,147.0,196.0,49.0,245.0,294.0,98.0,magenta,triangle
0.0,8.0,4.0,1.0,7.0,4.0,2227.274298998964,1.0,1.0,phase_3,,,,,234.0,6.0,78.0,39.0,195.0,234.0,156.0,117.0,orange,diamond
0.0,7.0,3.0,1.0,7.0,5.0,2514.101295997534,1.0,1.0,phase_3,,,,,108.0,2.0,324.0,270.0,162.0,54.0,108.0,216.0,gray,cross
0.0,5.0,1.0,1.0,7.0,6.0,2417.906161997962,1.0,1.0,phase_3,,,,,54.0,1.0,270.0,216.0,162.0,324.0,108.0,54.0,green,circle
0.0,7.0,3.0,1.0,7.0,5.0,3232.063530998857,1.0,1.0,phase_3,,,,,204.0,6.0,102.0,34.0,68.0,136.0,204.0,170.0,gray,cross
0.0,7.0,3.0,1.0,7.0,6.0,2953.9235820011527,1.0,1.0,phase_3,,,,,195.0,5.0,117.0,234.0,39.0,78.0,156.0,195.0,gray,cross
0.0,8.0,4.0,1.0,7.0,2.0,2867.7678749991173,1.0,1.0,phase_3,,,,,294.0,6.0,147.0,294.0,49.0,245.0,98.0,196.0,orange,diamond
0.0,2.0,2.0,0.0,7.0,3.0,3409.4552809983725,1.0,1.0,phase_3,,,,,88.0,2.0,132.0,264.0,88.0,220.0,176.0,44.0,white,hexagon
0.0,6.0,2.0,1.0,7.0,6.0,2068.306925997604,2.0,1.0,phase_3,,,,,44.0,1.0,88.0,176.0,132.0,220.0,264.0,44.0,yellow,square
0.0,1.0,1.0,0.0,7.0,6.0,2596.82957500263,2.0,1.0,phase_3,,,,,220.0,5.0,132.0,176.0,264.0,88.0,44.0,220.0,blue,flipped triangle
0.0,7.0,3.0,1.0,7.0,2.0,1669.360100000631,2.0,1.0,phase_3,,,,,176.0,4.0,88.0,176.0,220.0,264.0,44.0,132.0,gray,cross
0.0,4.0,4.0,0.0,7.0,1.0,3465.8699020001222,2.0,1.0,phase_3,,,,,204.0,6.0,204.0,170.0,102.0,136.0,68.0,34.0,magenta,triangle
0.0,3.0,3.0,0.0,7.0,3.0,2716.41465400171,2.0,1.0,phase_3,,,,,204.0,6.0,34.0,102.0,204.0,68.0,136.0,170.0,cyan,I
0.0,3.0,3.0,0.0,7.0,4.0,2957.076493999921,2.0,1.0,phase_3,,,,,216.0,4.0,162.0,108.0,54.0,216.0,270.0,324.0,cyan,I
0.0,4.0,4.0,0.0,7.0,3.0,3364.5293430017773,2.0,1.0,phase_3,,,,,220.0,5.0,264.0,132.0,220.0,176.0,88.0,44.0,magenta,triangle
0.0,5.0,1.0,1.0,7.0,1.0,1640.044797000883,2.0,1.0,phase_3,,,,,49.0,1.0,49.0,294.0,147.0,245.0,98.0,196.0,green,circle
0.0,7.0,3.0,1.0,7.0,6.0,2325.931418003165,2.0,1.0,phase_3,,,,,170.0,5.0,204.0,34.0,102.0,136.0,68.0,170.0,gray,cross
0.0,6.0,2.0,1.0,7.0,3.0,3204.941201998736,2.0,1.0,phase_3,,,,,54.0,1.0,270.0,162.0,54.0,324.0,108.0,216.0,yellow,square
0.0,4.0,4.0,0.0,7.0,4.0,2870.272676998866,2.0,1.0,phase_3,,,,,245.0,5.0,147.0,294.0,196.0,245.0,49.0,98.0,magenta,triangle
0.0,1.0,1.0,0.0,7.0,5.0,4422.243304001313,2.0,1.0,phase_3,,,,,216.0,4.0,108.0,162.0,270.0,324.0,216.0,54.0,blue,flipped triangle
0.0,8.0,4.0,1.0,7.0,2.0,3406.0322389996145,2.0,1.0,phase_3,,,,,204.0,6.0,34.0,204.0,102.0,136.0,68.0,170.0,orange,diamond
0.0,1.0,1.0,0.0,7.0,5.0,4080.409738999151,2.0,1.0,phase_3,,,,,245.0,5.0,98.0,147.0,294.0,196.0,245.0,49.0,blue,flipped triangle
0.0,8.0,4.0,1.0,7.0,4.0,2389.2160969990077,2.0,1.0,phase_3,,,,,294.0,6.0,147.0,196.0,98.0,294.0,49.0,245.0,orange,diamond
0.0,4.0,4.0,0.0,7.0,6.0,3661.84124800202,2.0,1.0,phase_3,,,,,220.0,5.0,44.0,132.0,176.0,264.0,88.0,220.0,magenta,triangle
0.0,5.0,1.0,1.0,7.0,4.0,1970.3634750003405,2.0,1.0,phase_3,,,,,34.0,1.0,170.0,136.0,204.0,34.0,102.0,68.0,green,circle
0.0,8.0,4.0,1.0,7.0,1.0,2505.566376999923,2.0,1.0,phase_3,,,,,264.0,6.0,264.0,88.0,220.0,44.0,176.0,132.0,orange,diamond
0.0,6.0,2.0,1.0,7.0,4.0,2600.893189999624,2.0,1.0,phase_3,,,,,39.0,1.0,156.0,234.0,117.0,39.0,78.0,195.0,yellow,square
0.0,7.0,3.0,1.0,7.0,2.0,3692.969023999467,2.0,1.0,phase_3,,,,,156.0,4.0,234.0,156.0,117.0,195.0,78.0,39.0,gray,cross
0.0,6.0,2.0,1.0,7.0,3.0,2136.674737001158,3.0,1.0,phase_3,,,,,102.0,3.0,204.0,34.0,102.0,68.0,136.0,170.0,yellow,square
0.0,8.0,4.0,1.0,7.0,2.0,3763.0794899996554,3.0,1.0,phase_3,,,,,270.0,5.0,54.0,270.0,108.0,324.0,162.0,216.0,orange,diamond
0.0,4.0,4.0,0.0,7.0,5.0,2585.989905001042,3.0,1.0,phase_3,,,,,195.0,5.0,156.0,78.0,117.0,39.0,195.0,234.0,magenta,triangle
0.0,3.0,3.0,0.0,7.0,5.0,1703.9509349997388,3.0,1.0,phase_3,,,,,220.0,5.0,132.0,44.0,176.0,88.0,220.0,264.0,cyan,I
0.0,3.0,3.0,0.0,7.0,4.0,3243.054957998538,3.0,1.0,phase_3,,,,,204.0,6.0,68.0,102.0,34.0,204.0,170.0,136.0,cyan,I
0.0,2.0,2.0,0.0,7.0,5.0,2750.026910998713,3.0,1.0,phase_3,,,,,78.0,2.0,234.0,117.0,156.0,195.0,78.0,39.0,white,hexagon
0.0,7.0,3.0,1.0,7.0,6.0,3665.722892001213,3.0,1.0,phase_3,,,,,98.0,2.0,147.0,196.0,49.0,245.0,294.0,98.0,gray,cross
0.0,3.0,3.0,0.0,7.0,4.0,2646.762151998701,3.0,1.0,phase_3,,,,,245.0,5.0,147.0,49.0,294.0,245.0,98.0,196.0,cyan,I
0.0,1.0,1.0,0.0,7.0,1.0,996.0319999991044,3.0,2.0,phase_3,,,,,220.0,5.0,220.0,44.0,132.0,264.0,88.0,176.0,blue,flipped triangle
0.0,2.0,2.0,0.0,7.0,4.0,2035.5999200000952,3.0,1.0,phase_3,,,,,98.0,2.0,49.0,245.0,294.0,98.0,147.0,196.0,white,hexagon
0.0,8.0,4.0,1.0,7.0,4.0,2339.8715799994534,3.0,1.0,phase_3,,,,,204.0,6.0,34.0,68.0,102.0,204.0,170.0,136.0,orange,diamond
0.0,6.0,2.0,1.0,7.0,6.0,3931.166834001488,3.0,1.0,phase_3,,,,,39.0,1.0,117.0,78.0,195.0,234.0,156.0,39.0,yellow,square
0.0,8.0,4.0,1.0,7.0,3.0,1907.2843249996367,3.0,1.0,phase_3,,,,,234.0,6.0,39.0,156.0,234.0,117.0,195.0,78.0,orange,diamond
0.0,1.0,1.0,0.0,7.0,6.0,2857.501739999861,3.0,1.0,phase_3,,,,,195.0,5.0,117.0,234.0,156.0,39.0,78.0,195.0,blue,flipped triangle
0.0,7.0,3.0,1.0,7.0,1.0,2755.5769689970475,3.0,1.0,phase_3,,,,,162.0,3.0,162.0,324.0,54.0,108.0,216.0,270.0,gray,cross
0.0,7.0,3.0,1.0,7.0,2.0,2653.820812000049,3.0,1.0,phase_3,,,,,147.0,3.0,245.0,147.0,196.0,98.0,49.0,294.0,gray,cross
0.0,3.0,3.0,0.0,7.0,2.0,2820.448128000862,3.0,1.0,phase_3,,,,,216.0,4.0,162.0,216.0,270.0,324.0,54.0,108.0,cyan,I
0.0,5.0,1.0,1.0,7.0,2.0,1660.5018869995547,3.0,1.0,phase_3,,,,,34.0,1.0,204.0,34.0,102.0,170.0,136.0,68.0,green,circle
0.0,1.0,1.0,0.0,7.0,4.0,1711.0847020012443,3.0,1.0,phase_3,,,,,245.0,5.0,196.0,294.0,147.0,245.0,98.0,49.0,blue,flipped triangle
0.0,3.0,3.0,0.0,7.0,3.0,1411.6915550002886,3.0,1.0,phase_3,,,,,220.0,5.0,88.0,264.0,220.0,132.0,44.0,176.0,cyan,I
0.0,2.0,2.0,0.0,7.0,3.0,2567.444883999997,4.0,1.0,phase_3,,,,,136.0,4.0,34.0,204.0,136.0,68.0,102.0,170.0,white,hexagon
0.0,2.0,2.0,0.0,7.0,1.0,1493.897188000119,4.0,1.0,phase_3,,,,,136.0,4.0,136.0,170.0,34.0,204.0,68.0,102.0,white,hexagon
0.0,2.0,2.0,0.0,7.0,6.0,2333.9768080004437,4.0,1.0,phase_3,,,,,147.0,3.0,98.0,294.0,196.0,245.0,49.0,147.0,white,hexagon
0.0,2.0,2.0,0.0,7.0,3.0,4009.5983399987754,4.0,1.0,phase_3,,,,,108.0,2.0,270.0,162.0,108.0,54.0,216.0,324.0,white,hexagon
0.0,4.0,4.0,0.0,7.0,3.0,2204.5298730008653,4.0,1.0,phase_3,,,,,216.0,4.0,54.0,270.0,216.0,108.0,162.0,324.0,magenta,triangle
0.0,5.0,1.0,1.0,7.0,4.0,1420.6020229976275,4.0,1.0,phase_3,,,,,39.0,1.0,195.0,78.0,156.0,39.0,117.0,234.0,green,circle
0.0,5.0,1.0,1.0,7.0,2.0,1636.3757630024338,4.0,1.0,phase_3,,,,,49.0,1.0,98.0,49.0,147.0,245.0,294.0,196.0,green,circle
0.0,8.0,4.0,1.0,7.0,3.0,2508.646721998957,4.0,1.0,phase_3,,,,,264.0,6.0,176.0,88.0,264.0,220.0,44.0,132.0,orange,diamond
0.0,6.0,2.0,1.0,7.0,4.0,3869.877706998522,4.0,1.0,phase_3,,,,,88.0,2.0,176.0,264.0,44.0,88.0,132.0,220.0,yellow,square
0.0,1.0,1.0,0.0,7.0,6.0,2431.1937230013427,4.0,1.0,phase_3,,,,,216.0,4.0,54.0,108.0,270.0,324.0,162.0,216.0,blue,flipped triangle
0.0,3.0,3.0,0.0,7.0,5.0,3676.6606969977142,4.0,1.0,phase_3,,,,,245.0,5.0,294.0,147.0,49.0,98.0,245.0,196.0,cyan,I
0.0,6.0,2.0,1.0,7.0,1.0,1419.6921050024685,4.0,1.0,phase_3,,,,,98.0,2.0,98.0,294.0,49.0,245.0,147.0,196.0,yellow,square
0.0,5.0,1.0,1.0,7.0,2.0,1810.6364799969012,4.0,1.0,phase_3,,,,,44.0,1.0,220.0,44.0,264.0,88.0,132.0,176.0,green,circle
0.0,4.0,4.0,0.0,7.0,6.0,2237.786487003177,4.0,1.0,phase_3,,,,,195.0,5.0,117.0,156.0,78.0,234.0,39.0,195.0,magenta,triangle
0.0,1.0,1.0,0.0,7.0,2.0,2695.3040359985607,4.0,1.0,phase_3,,,,,204.0,6.0,68.0,204.0,34.0,136.0,170.0,102.0,blue,flipped triangle
0.0,1.0,1.0,0.0,7.0,6.0,2334.7099970014824,4.0,1.0,phase_3,,,,,234.0,6.0,195.0,117.0,39.0,78.0,156.0,234.0,blue,flipped triangle
0.0,1.0,1.0,0.0,7.0,4.0,2622.302136998769,4.0,1.0,phase_3,,,,,204.0,6.0,170.0,34.0,68.0,204.0,102.0,136.0,blue,flipped triangle
0.0,8.0,4.0,1.0,7.0,4.0,3460.56035500078,4.0,1.0,phase_3,,,,,270.0,5.0,108.0,324.0,54.0,270.0,162.0,216.0,orange,diamond
0.0,6.0,2.0,1.0,7.0,4.0,2466.3274889971945,4.0,1.0,phase_3,,,,,102.0,3.0,68.0,170.0,34.0,102.0,136.0,204.0,yellow,square
0.0,5.0,1.0,1.0,7.0,2.0,3666.612285000156,4.0,1.0,phase_3,,,,,88.0,2.0,132.0,88.0,220.0,44.0,264.0,176.0,green,circle
