raw_reward_magnitude,stim_reward,stepwise_reward_magnitude,paired_with_stopping,stim_location,response,reaction_time,block,num_trial_presentations,which_phase,stop_signal_trial_type,left_SSD,right_SSD,accuracy,chosen_bidding_amount,chosen_bidding_level,possible_bid_1,possible_bid_2,possible_bid_3,possible_bid_4,possible_bid_5,possible_bid_6,color_text,shape_text
217.0,7.0,3.0,1.0,1.0,1.0,619.6767330002331,1.0,1.0,phase_1,,,,,,,,,,,,,gray,cross
420.0,8.0,4.0,1.0,1.0,1.0,463.2142299997213,1.0,1.0,phase_1,,,,,,,,,,,,,blue,diamond
415.0,4.0,4.0,0.0,3.0,3.0,535.4887829998916,1.0,1.0,phase_1,,,,,,,,,,,,,cyan,triangle
0.0,1.0,0.0,0.0,2.0,2.0,410.3792090008937,1.0,1.0,phase_1,,,,,,,,,,,,,green,circle
0.0,2.0,0.0,0.0,4.0,4.0,558.1444780000311,1.0,1.0,phase_1,,,,,,,,,,,,,magenta,I
377.0,4.0,4.0,0.0,3.0,3.0,489.635284000542,1.0,1.0,phase_1,,,,,,,,,,,,,cyan,triangle
377.0,8.0,4.0,1.0,1.0,1.0,357.1354969990352,1.0,1.0,phase_1,,,,,,,,,,,,,blue,diamond
56.0,5.0,1.0,1.0,1.0,1.0,441.5820960002747,1.0,1.0,phase_1,,,,,,,,,,,,,white,flipped triangle
377.0,4.0,4.0,0.0,3.0,3.0,398.8667410012567,1.0,1.0,phase_1,,,,,,,,,,,,,cyan,triangle
181.0,3.0,3.0,0.0,3.0,3.0,401.619373998983,1.0,1.0,phase_1,,,,,,,,,,,,,yellow,square
203.0,7.0,3.0,1.0,4.0,4.0,444.3136420013616,1.0,1.0,phase_1,,,,,,,,,,,,,gray,cross
66.0,5.0,1.0,1.0,3.0,3.0,423.918477999905,1.0,1.0,phase_1,,,,,,,,,,,,,white,flipped triangle
203.0,3.0,3.0,0.0,3.0,3.0,377.4442270005238,1.0,1.0,phase_1,,,,,,,,,,,,,yellow,square
115.0,6.0,2.0,1.0,1.0,1.0,442.3789619995659,1.0,1.0,phase_1,,,,,,,,,,,,,orange,hexagon
391.0,8.0,4.0,1.0,3.0,3.0,411.0117229993193,1.0,1.0,phase_1,,,,,,,,,,,,,blue,diamond
115.0,6.0,2.0,1.0,1.0,1.0,440.1024969993159,1.0,1.0,phase_1,,,,,,,,,,,,,orange,hexagon
69.0,5.0,1.0,1.0,4.0,4.0,363.6127570007375,1.0,1.0,phase_1,,,,,,,,,,,,,white,flipped triangle
0.0,5.0,0.0,1.0,4.0,4.0,320.5486909992032,1.0,1.0,phase_1,,,,,,,,,,,,,white,flipped triangle
0.0,5.0,0.0,1.0,1.0,1.0,951.636416000838,1.0,1.0,phase_1,,,,,,,,,,,,,white,flipped triangle
115.0,2.0,2.0,0.0,4.0,4.0,447.7189270000963,1.0,1.0,phase_1,,,,,,,,,,,,,magenta,I
47.0,5.0,1.0,1.0,2.0,2.0,488.2393329990009,1.0,1.0,phase_1,,,,,,,,,,,,,white,flipped triangle
51.0,5.0,1.0,1.0,3.0,3.0,316.3681049991282,1.0,1.0,phase_1,,,,,,,,,,,,,white,flipped triangle
62.0,5.0,1.0,1.0,2.0,2.0,340.7075889990665,1.0,1.0,phase_1,,,,,,,,,,,,,white,flipped triangle
413.0,8.0,4.0,1.0,2.0,2.0,348.7342589996842,1.0,1.0,phase_1,,,,,,,,,,,,,blue,diamond
391.0,4.0,4.0,0.0,4.0,4.0,457.6540870002645,1.0,1.0,phase_1,,,,,,,,,,,,,cyan,triangle
66.0,1.0,1.0,0.0,3.0,3.0,387.4536650000664,1.0,2.0,phase_1,,,,,,,,,,,,,green,circle
415.0,8.0,4.0,1.0,4.0,4.0,397.4259039987373,1.0,1.0,phase_1,,,,,,,,,,,,,blue,diamond
99.0,2.0,2.0,0.0,1.0,1.0,486.0459729989088,1.0,1.0,phase_1,,,,,,,,,,,,,magenta,I
77.0,6.0,2.0,1.0,2.0,2.0,393.1330840005103,1.0,1.0,phase_1,,,,,,,,,,,,,orange,hexagon
92.0,2.0,2.0,0.0,2.0,2.0,379.9483689999761,1.0,1.0,phase_1,,,,,,,,,,,,,magenta,I
194.0,7.0,3.0,1.0,3.0,3.0,419.8955709998699,1.0,1.0,phase_1,,,,,,,,,,,,,gray,cross
0.0,6.0,0.0,1.0,1.0,1.0,411.4557270004297,1.0,1.0,phase_1,,,,,,,,,,,,,orange,hexagon
382.0,8.0,4.0,1.0,4.0,4.0,384.1266380004526,1.0,1.0,phase_1,,,,,,,,,,,,,blue,diamond
29.0,5.0,1.0,1.0,2.0,2.0,426.4740739999979,1.0,1.0,phase_1,,,,,,,,,,,,,white,flipped triangle
0.0,6.0,0.0,1.0,2.0,2.0,405.7034809993638,1.0,1.0,phase_1,,,,,,,,,,,,,orange,hexagon
92.0,2.0,2.0,0.0,1.0,1.0,404.8595909989672,1.0,1.0,phase_1,,,,,,,,,,,,,magenta,I
35.0,5.0,1.0,1.0,4.0,4.0,370.1838990000397,1.0,1.0,phase_1,,,,,,,,,,,,,white,flipped triangle
104.0,2.0,2.0,0.0,3.0,3.0,411.1324179993971,1.0,1.0,phase_1,,,,,,,,,,,,,magenta,I
45.0,1.0,1.0,0.0,3.0,3.0,428.9604010009498,1.0,1.0,phase_1,,,,,,,,,,,,,green,circle
115.0,2.0,2.0,0.0,2.0,2.0,431.5306930002407,1.0,1.0,phase_1,,,,,,,,,,,,,magenta,I
40.0,1.0,1.0,0.0,1.0,1.0,341.7674920001445,1.0,1.0,phase_1,,,,,,,,,,,,,green,circle
67.0,1.0,1.0,0.0,1.0,1.0,505.6174219989771,1.0,1.0,phase_1,,,,,,,,,,,,,green,circle
67.0,5.0,1.0,1.0,2.0,2.0,332.5724160004029,1.0,1.0,phase_1,,,,,,,,,,,,,white,flipped triangle
80.0,2.0,2.0,0.0,3.0,3.0,306.6723070005537,1.0,1.0,phase_1,,,,,,,,,,,,,magenta,I
225.0,3.0,3.0,0.0,1.0,1.0,330.6346459994529,1.0,1.0,phase_1,,,,,,,,,,,,,yellow,square
84.0,2.0,2.0,0.0,3.0,3.0,288.9332180002384,1.0,1.0,phase_1,,,,,,,,,,,,,magenta,I
213.0,7.0,3.0,1.0,4.0,4.0,364.3079320008837,1.0,1.0,phase_1,,,,,,,,,,,,,gray,cross
0.0,2.0,0.0,0.0,3.0,3.0,482.5805500004207,1.0,1.0,phase_1,,,,,,,,,,,,,magenta,I
386.0,4.0,4.0,0.0,3.0,3.0,455.6619369996042,1.0,1.0,phase_1,,,,,,,,,,,,,cyan,triangle
377.0,4.0,4.0,0.0,1.0,1.0,493.1963549988722,1.0,1.0,phase_1,,,,,,,,,,,,,cyan,triangle
391.0,4.0,4.0,0.0,3.0,3.0,406.066613000803,1.0,1.0,phase_1,,,,,,,,,,,,,cyan,triangle
101.0,2.0,2.0,0.0,3.0,3.0,452.677641000264,1.0,1.0,phase_1,,,,,,,,,,,,,magenta,I
0.0,8.0,0.0,1.0,1.0,1.0,371.1374449994764,1.0,1.0,phase_1,,,,,,,,,,,,,blue,diamond
44.0,5.0,1.0,1.0,2.0,2.0,432.8078729995468,1.0,1.0,phase_1,,,,,,,,,,,,,white,flipped triangle
56.0,5.0,1.0,1.0,2.0,2.0,381.97910999952,1.0,1.0,phase_1,,,,,,,,,,,,,white,flipped triangle
35.0,5.0,1.0,1.0,3.0,3.0,375.323293999827,1.0,1.0,phase_1,,,,,,,,,,,,,white,flipped triangle
0.0,7.0,0.0,1.0,4.0,4.0,407.5723300011304,1.0,1.0,phase_1,,,,,,,,,,,,,gray,cross
34.0,5.0,1.0,1.0,1.0,1.0,353.6669810000603,1.0,1.0,phase_1,,,,,,,,,,,,,white,flipped triangle
208.0,7.0,3.0,1.0,2.0,2.0,426.3114919995132,1.0,1.0,phase_1,,,,,,,,,,,,,gray,cross
194.0,3.0,3.0,0.0,4.0,4.0,416.5820479993272,1.0,1.0,phase_1,,,,,,,,,,,,,yellow,square
418.0,8.0,4.0,1.0,3.0,3.0,416.4813589995901,1.0,1.0,phase_1,,,,,,,,,,,,,blue,diamond
204.0,3.0,3.0,0.0,3.0,3.0,401.2348649994237,1.0,1.0,phase_1,,,,,,,,,,,,,yellow,square
202.0,7.0,3.0,1.0,1.0,1.0,567.3618379987602,1.0,1.0,phase_1,,,,,,,,,,,,,gray,cross
38.0,5.0,1.0,1.0,1.0,1.0,427.5241559989808,1.0,1.0,phase_1,,,,,,,,,,,,,white,flipped triangle
191.0,7.0,3.0,1.0,4.0,4.0,449.8553930006892,1.0,1.0,phase_1,,,,,,,,,,,,,gray,cross
213.0,3.0,3.0,0.0,3.0,3.0,468.7504590001481,1.0,1.0,phase_1,,,,,,,,,,,,,yellow,square
0.0,7.0,0.0,1.0,4.0,4.0,404.4751040000847,1.0,1.0,phase_1,,,,,,,,,,,,,gray,cross
65.0,1.0,1.0,0.0,3.0,3.0,426.1807299990323,1.0,1.0,phase_1,,,,,,,,,,,,,green,circle
112.0,2.0,2.0,0.0,2.0,2.0,391.7937999995047,1.0,1.0,phase_1,,,,,,,,,,,,,magenta,I
217.0,7.0,3.0,1.0,1.0,1.0,464.1176080003788,1.0,1.0,phase_1,,,,,,,,,,,,,gray,cross
220.0,3.0,3.0,0.0,4.0,4.0,418.0105859995819,1.0,1.0,phase_1,,,,,,,,,,,,,yellow,square
31.0,5.0,1.0,1.0,4.0,4.0,359.6881670000584,1.0,1.0,phase_1,,,,,,,,,,,,,white,flipped triangle
120.0,2.0,2.0,0.0,1.0,1.0,414.8861020003096,1.0,1.0,phase_1,,,,,,,,,,,,,magenta,I
110.0,2.0,2.0,0.0,2.0,2.0,502.0172710010229,1.0,1.0,phase_1,,,,,,,,,,,,,magenta,I
80.0,6.0,2.0,1.0,4.0,4.0,387.2003659998881,1.0,1.0,phase_1,,,,,,,,,,,,,orange,hexagon
115.0,2.0,2.0,0.0,1.0,1.0,416.7598149997502,1.0,1.0,phase_1,,,,,,,,,,,,,magenta,I
381.0,4.0,4.0,0.0,4.0,4.0,389.9699180001335,1.0,1.0,phase_1,,,,,,,,,,,,,cyan,triangle
0.0,4.0,0.0,0.0,4.0,4.0,413.7401899988617,1.0,1.0,phase_1,,,,,,,,,,,,,cyan,triangle
0.0,7.0,0.0,1.0,1.0,1.0,454.360812998857,1.0,1.0,phase_1,,,,,,,,,,,,,gray,cross
76.0,6.0,2.0,1.0,3.0,3.0,441.7633100001694,1.0,1.0,phase_1,,,,,,,,,,,,,orange,hexagon
95.0,6.0,2.0,1.0,2.0,2.0,433.136215999184,1.0,1.0,phase_1,,,,,,,,,,,,,orange,hexagon
57.0,1.0,1.0,0.0,2.0,2.0,483.3063170008245,1.0,1.0,phase_1,,,,,,,,,,,,,green,circle
0.0,4.0,0.0,0.0,1.0,1.0,463.2438139997248,1.0,1.0,phase_1,,,,,,,,,,,,,cyan,triangle
181.0,7.0,3.0,1.0,4.0,4.0,386.4914169989788,1.0,1.0,phase_1,,,,,,,,,,,,,gray,cross
0.0,3.0,0.0,0.0,1.0,1.0,471.3057049993949,1.0,1.0,phase_1,,,,,,,,,,,,,yellow,square
0.0,6.0,0.0,1.0,3.0,3.0,397.6700519997393,1.0,1.0,phase_1,,,,,,,,,,,,,orange,hexagon
120.0,6.0,2.0,1.0,1.0,1.0,393.8045779996173,1.0,1.0,phase_1,,,,,,,,,,,,,orange,hexagon
391.0,8.0,4.0,1.0,3.0,3.0,437.2432769996521,1.0,1.0,phase_1,,,,,,,,,,,,,blue,diamond
199.0,3.0,3.0,0.0,2.0,2.0,392.0458539996616,1.0,1.0,phase_1,,,,,,,,,,,,,yellow,square
27.0,1.0,1.0,0.0,2.0,2.0,396.3857250000728,1.0,1.0,phase_1,,,,,,,,,,,,,green,circle
54.0,1.0,1.0,0.0,3.0,3.0,469.0089039995655,1.0,1.0,phase_1,,,,,,,,,,,,,green,circle
194.0,7.0,3.0,1.0,3.0,3.0,465.7387730003393,1.0,1.0,phase_1,,,,,,,,,,,,,gray,cross
417.0,4.0,4.0,0.0,2.0,2.0,415.5471800004306,1.0,1.0,phase_1,,,,,,,,,,,,,cyan,triangle
87.0,6.0,2.0,1.0,1.0,1.0,524.554256000556,1.0,1.0,phase_1,,,,,,,,,,,,,orange,hexagon
40.0,1.0,1.0,0.0,2.0,2.0,526.0884889994486,1.0,1.0,phase_1,,,,,,,,,,,,,green,circle
0.0,3.0,0.0,0.0,3.0,3.0,386.5189030002511,1.0,1.0,phase_1,,,,,,,,,,,,,yellow,square
58.0,1.0,1.0,0.0,3.0,3.0,344.4425289999344,1.0,1.0,phase_1,,,,,,,,,,,,,green,circle
63.0,5.0,1.0,1.0,3.0,3.0,464.9815760003548,1.0,1.0,phase_1,,,,,,,,,,,,,white,flipped triangle
91.0,2.0,2.0,0.0,1.0,1.0,420.7906709998497,1.0,1.0,phase_1,,,,,,,,,,,,,magenta,I
194.0,3.0,3.0,0.0,3.0,3.0,490.6094139987544,1.0,1.0,phase_1,,,,,,,,,,,,,yellow,square
0.0,2.0,0.0,0.0,1.0,1.0,467.8691169992817,2.0,1.0,phase_1,,,,,,,,,,,,,magenta,I
0.0,4.0,0.0,0.0,4.0,4.0,395.9536540005501,2.0,1.0,phase_1,,,,,,,,,,,,,cyan,triangle
0.0,1.0,0.0,0.0,2.0,2.0,355.1294730004883,2.0,1.0,phase_1,,,,,,,,,,,,,green,circle
0.0,8.0,0.0,1.0,4.0,4.0,326.3666229995579,2.0,1.0,phase_1,,,,,,,,,,,,,blue,diamond
180.0,7.0,3.0,1.0,3.0,3.0,333.9217859993368,2.0,1.0,phase_1,,,,,,,,,,,,,gray,cross
71.0,5.0,1.0,1.0,2.0,2.0,489.7358729995176,2.0,1.0,phase_1,,,,,,,,,,,,,white,flipped triangle
92.0,6.0,2.0,1.0,2.0,2.0,408.6809620002896,2.0,1.0,phase_1,,,,,,,,,,,,,orange,hexagon
25.0,5.0,1.0,1.0,3.0,3.0,344.9188690010487,2.0,1.0,phase_1,,,,,,,,,,,,,white,flipped triangle
99.0,6.0,2.0,1.0,4.0,4.0,304.1186039990862,2.0,1.0,phase_1,,,,,,,,,,,,,orange,hexagon
191.0,3.0,3.0,0.0,2.0,2.0,303.2567729987931,2.0,1.0,phase_1,,,,,,,,,,,,,yellow,square
409.0,8.0,4.0,1.0,4.0,4.0,327.0462470009079,2.0,1.0,phase_1,,,,,,,,,,,,,blue,diamond
203.0,3.0,3.0,0.0,1.0,1.0,329.1536130000168,2.0,1.0,phase_1,,,,,,,,,,,,,yellow,square
210.0,7.0,3.0,1.0,1.0,1.0,326.8235540017485,2.0,1.0,phase_1,,,,,,,,,,,,,gray,cross
95.0,2.0,2.0,0.0,2.0,2.0,391.2374560004537,2.0,1.0,phase_1,,,,,,,,,,,,,magenta,I
215.0,3.0,3.0,0.0,1.0,1.0,422.6785459995881,2.0,1.0,phase_1,,,,,,,,,,,,,yellow,square
404.0,4.0,4.0,0.0,2.0,2.0,380.7752339998842,2.0,1.0,phase_1,,,,,,,,,,,,,cyan,triangle
201.0,7.0,3.0,1.0,4.0,4.0,338.83243299897,2.0,1.0,phase_1,,,,,,,,,,,,,gray,cross
212.0,3.0,3.0,0.0,4.0,4.0,421.1114120007551,2.0,1.0,phase_1,,,,,,,,,,,,,yellow,square
186.0,3.0,3.0,0.0,4.0,4.0,370.84707800022437,2.0,1.0,phase_1,,,,,,,,,,,,,yellow,square
395.0,4.0,4.0,0.0,2.0,2.0,368.051617000674,2.0,1.0,phase_1,,,,,,,,,,,,,cyan,triangle
180.0,3.0,3.0,0.0,3.0,3.0,396.0711319996335,2.0,1.0,phase_1,,,,,,,,,,,,,yellow,square
416.0,4.0,4.0,0.0,2.0,2.0,367.5347389998933,2.0,1.0,phase_1,,,,,,,,,,,,,cyan,triangle
395.0,4.0,4.0,0.0,3.0,3.0,633.2908580006915,2.0,1.0,phase_1,,,,,,,,,,,,,cyan,triangle
112.0,2.0,2.0,0.0,4.0,4.0,482.22430199894,2.0,1.0,phase_1,,,,,,,,,,,,,magenta,I
119.0,2.0,2.0,0.0,2.0,2.0,560.3777969990915,2.0,1.0,phase_1,,,,,,,,,,,,,magenta,I
47.0,1.0,1.0,0.0,3.0,3.0,356.4254979992256,2.0,1.0,phase_1,,,,,,,,,,,,,green,circle
0.0,5.0,0.0,1.0,2.0,2.0,392.9680219989677,2.0,1.0,phase_1,,,,,,,,,,,,,white,flipped triangle
66.0,1.0,1.0,0.0,3.0,3.0,367.0407589997921,2.0,1.0,phase_1,,,,,,,,,,,,,green,circle
418.0,4.0,4.0,0.0,1.0,1.0,405.8312580000347,2.0,1.0,phase_1,,,,,,,,,,,,,cyan,triangle
0.0,7.0,0.0,1.0,3.0,3.0,364.6234190000541,2.0,1.0,phase_1,,,,,,,,,,,,,gray,cross
70.0,5.0,1.0,1.0,1.0,1.0,428.7169369999901,2.0,1.0,phase_1,,,,,,,,,,,,,white,flipped triangle
69.0,1.0,1.0,0.0,2.0,2.0,527.3186349986645,2.0,1.0,phase_1,,,,,,,,,,,,,green,circle
0.0,2.0,0.0,0.0,2.0,2.0,493.6002520007605,2.0,1.0,phase_1,,,,,,,,,,,,,magenta,I
0.0,6.0,0.0,1.0,2.0,2.0,441.2558329986495,2.0,1.0,phase_1,,,,,,,,,,,,,orange,hexagon
89.0,6.0,2.0,1.0,3.0,3.0,360.0880620015232,2.0,1.0,phase_1,,,,,,,,,,,,,orange,hexagon
29.0,5.0,1.0,1.0,1.0,1.0,385.3081030010798,2.0,1.0,phase_1,,,,,,,,,,,,,white,flipped triangle
79.0,6.0,2.0,1.0,2.0,2.0,391.4288569994824,2.0,1.0,phase_1,,,,,,,,,,,,,orange,hexagon
388.0,4.0,4.0,0.0,1.0,1.0,455.0570689989399,2.0,1.0,phase_1,,,,,,,,,,,,,cyan,triangle
0.0,4.0,0.0,0.0,1.0,1.0,413.75352400064,2.0,1.0,phase_1,,,,,,,,,,,,,cyan,triangle
0.0,5.0,0.0,1.0,1.0,1.0,477.4651429997902,2.0,1.0,phase_1,,,,,,,,,,,,,white,flipped triangle
0.0,6.0,0.0,1.0,2.0,2.0,479.5667260004848,2.0,1.0,phase_1,,,,,,,,,,,,,orange,hexagon
0.0,4.0,0.0,0.0,1.0,1.0,400.7194990008429,2.0,1.0,phase_1,,,,,,,,,,,,,cyan,triangle
0.0,6.0,0.0,1.0,1.0,1.0,397.5554529988585,2.0,1.0,phase_1,,,,,,,,,,,,,orange,hexagon
180.0,3.0,3.0,0.0,3.0,3.0,331.2281470007292,2.0,1.0,phase_1,,,,,,,,,,,,,yellow,square
118.0,6.0,2.0,1.0,3.0,3.0,459.008032001293,2.0,1.0,phase_1,,,,,,,,,,,,,orange,hexagon
76.0,2.0,2.0,0.0,3.0,3.0,368.6395950007863,2.0,1.0,phase_1,,,,,,,,,,,,,magenta,I
0.0,8.0,0.0,1.0,4.0,4.0,355.2016670000739,2.0,1.0,phase_1,,,,,,,,,,,,,blue,diamond
186.0,7.0,3.0,1.0,3.0,3.0,360.2301879982406,2.0,1.0,phase_1,,,,,,,,,,,,,gray,cross
101.0,6.0,2.0,1.0,4.0,4.0,406.5624149989162,2.0,1.0,phase_1,,,,,,,,,,,,,orange,hexagon
198.0,3.0,3.0,0.0,2.0,2.0,346.1961009998049,2.0,1.0,phase_1,,,,,,,,,,,,,yellow,square
0.0,6.0,0.0,1.0,3.0,3.0,432.2098150005331,2.0,1.0,phase_1,,,,,,,,,,,,,orange,hexagon
420.0,8.0,4.0,1.0,1.0,1.0,410.4624869996769,2.0,1.0,phase_1,,,,,,,,,,,,,blue,diamond
0.0,1.0,0.0,0.0,4.0,4.0,446.7730830001528,2.0,1.0,phase_1,,,,,,,,,,,,,green,circle
107.0,2.0,2.0,0.0,2.0,2.0,399.915937001424,2.0,1.0,phase_1,,,,,,,,,,,,,magenta,I
204.0,7.0,3.0,1.0,3.0,3.0,462.6785560012649,2.0,1.0,phase_1,,,,,,,,,,,,,gray,cross
210.0,7.0,3.0,1.0,2.0,2.0,439.642064000509,2.0,1.0,phase_1,,,,,,,,,,,,,gray,cross
107.0,2.0,2.0,0.0,3.0,3.0,474.7372440015169,2.0,1.0,phase_1,,,,,,,,,,,,,magenta,I
404.0,4.0,4.0,0.0,3.0,3.0,382.4755200002983,2.0,1.0,phase_1,,,,,,,,,,,,,cyan,triangle
201.0,3.0,3.0,0.0,2.0,2.0,401.9749939998291,2.0,2.0,phase_1,,,,,,,,,,,,,yellow,square
208.0,3.0,3.0,0.0,1.0,1.0,406.3328609991004,2.0,1.0,phase_1,,,,,,,,,,,,,yellow,square
73.0,5.0,1.0,1.0,1.0,1.0,459.9622179994185,2.0,1.0,phase_1,,,,,,,,,,,,,white,flipped triangle
395.0,8.0,4.0,1.0,4.0,4.0,709.1415289996803,2.0,1.0,phase_1,,,,,,,,,,,,,blue,diamond
220.0,7.0,3.0,1.0,2.0,2.0,457.9714720002812,2.0,1.0,phase_1,,,,,,,,,,,,,gray,cross
114.0,6.0,2.0,1.0,1.0,1.0,418.202664999626,2.0,1.0,phase_1,,,,,,,,,,,,,orange,hexagon
77.0,2.0,2.0,0.0,2.0,2.0,499.5918839995283,2.0,1.0,phase_1,,,,,,,,,,,,,magenta,I
54.0,5.0,1.0,1.0,4.0,4.0,392.6206539999839,2.0,1.0,phase_1,,,,,,,,,,,,,white,flipped triangle
225.0,7.0,3.0,1.0,3.0,3.0,582.7684309988399,2.0,1.0,phase_1,,,,,,,,,,,,,gray,cross
395.0,8.0,4.0,1.0,2.0,2.0,529.1148550004436,2.0,1.0,phase_1,,,,,,,,,,,,,blue,diamond
52.0,1.0,1.0,0.0,4.0,4.0,489.7095309988799,2.0,1.0,phase_1,,,,,,,,,,,,,green,circle
417.0,8.0,4.0,1.0,3.0,3.0,469.1634889986744,2.0,1.0,phase_1,,,,,,,,,,,,,blue,diamond
397.0,4.0,4.0,0.0,2.0,2.0,370.6700820002879,2.0,1.0,phase_1,,,,,,,,,,,,,cyan,triangle
82.0,2.0,2.0,0.0,3.0,3.0,377.2794430005888,2.0,1.0,phase_1,,,,,,,,,,,,,magenta,I
0.0,3.0,0.0,0.0,4.0,4.0,385.3430679992016,2.0,1.0,phase_1,,,,,,,,,,,,,yellow,square
0.0,7.0,0.0,1.0,1.0,1.0,519.6811960013292,2.0,1.0,phase_1,,,,,,,,,,,,,gray,cross
87.0,2.0,2.0,0.0,1.0,1.0,458.7158649992489,2.0,1.0,phase_1,,,,,,,,,,,,,magenta,I
420.0,4.0,4.0,0.0,1.0,1.0,415.3006809992803,2.0,1.0,phase_1,,,,,,,,,,,,,cyan,triangle
377.0,8.0,4.0,1.0,4.0,4.0,360.5433669999911,2.0,1.0,phase_1,,,,,,,,,,,,,blue,diamond
108.0,6.0,2.0,1.0,2.0,2.0,368.5443740014307,2.0,1.0,phase_1,,,,,,,,,,,,,orange,hexagon
405.0,8.0,4.0,1.0,2.0,2.0,347.3842090006656,2.0,1.0,phase_1,,,,,,,,,,,,,blue,diamond
0.0,8.0,0.0,1.0,2.0,2.0,373.8587419993564,2.0,1.0,phase_1,,,,,,,,,,,,,blue,diamond
40.0,5.0,1.0,1.0,4.0,4.0,676.3124570006767,2.0,1.0,phase_1,,,,,,,,,,,,,white,flipped triangle
0.0,6.0,0.0,1.0,1.0,1.0,450.0092799989943,2.0,1.0,phase_1,,,,,,,,,,,,,orange,hexagon
0.0,2.0,0.0,0.0,2.0,2.0,523.3672190006473,2.0,1.0,phase_1,,,,,,,,,,,,,magenta,I
26.0,5.0,1.0,1.0,1.0,1.0,408.3924149999802,2.0,1.0,phase_1,,,,,,,,,,,,,white,flipped triangle
41.0,1.0,1.0,0.0,4.0,4.0,382.0564449997619,2.0,1.0,phase_1,,,,,,,,,,,,,green,circle
194.0,7.0,3.0,1.0,3.0,3.0,501.6789029996289,2.0,1.0,phase_1,,,,,,,,,,,,,gray,cross
0.0,5.0,0.0,1.0,3.0,3.0,414.5152360015345,2.0,1.0,phase_1,,,,,,,,,,,,,white,flipped triangle
413.0,4.0,4.0,0.0,4.0,4.0,444.207804999678,2.0,1.0,phase_1,,,,,,,,,,,,,cyan,triangle
79.0,2.0,2.0,0.0,3.0,3.0,463.843868999902,2.0,1.0,phase_1,,,,,,,,,,,,,magenta,I
217.0,3.0,3.0,0.0,4.0,4.0,440.9994720008399,2.0,1.0,phase_1,,,,,,,,,,,,,yellow,square
194.0,3.0,3.0,0.0,2.0,2.0,380.9647340003721,2.0,1.0,phase_1,,,,,,,,,,,,,yellow,square
123.0,6.0,2.0,1.0,3.0,3.0,301.1746920001314,2.0,1.0,phase_1,,,,,,,,,,,,,orange,hexagon
74.0,5.0,1.0,1.0,4.0,4.0,424.5559529990714,2.0,1.0,phase_1,,,,,,,,,,,,,white,flipped triangle
181.0,3.0,3.0,0.0,1.0,1.0,452.6299450008082,2.0,1.0,phase_1,,,,,,,,,,,,,yellow,square
0.0,8.0,0.0,1.0,2.0,2.0,336.1381220001931,2.0,1.0,phase_1,,,,,,,,,,,,,blue,diamond
80.0,6.0,2.0,1.0,1.0,1.0,350.5589050000708,2.0,1.0,phase_1,,,,,,,,,,,,,orange,hexagon
0.0,5.0,0.0,1.0,4.0,4.0,341.8069549989013,2.0,1.0,phase_1,,,,,,,,,,,,,white,flipped triangle
0.0,8.0,0.0,1.0,4.0,4.0,398.7136910000117,2.0,1.0,phase_1,,,,,,,,,,,,,blue,diamond
0.0,3.0,0.0,0.0,1.0,1.0,450.4440770015208,2.0,1.0,phase_1,,,,,,,,,,,,,yellow,square
0.0,7.0,0.0,1.0,3.0,3.0,533.1790620002721,2.0,1.0,phase_1,,,,,,,,,,,,,gray,cross
95.0,2.0,2.0,0.0,1.0,1.0,608.8675130013144,3.0,1.0,phase_1,,,,,,,,,,,,,magenta,I
0.0,4.0,0.0,0.0,1.0,1.0,416.4574049991643,3.0,1.0,phase_1,,,,,,,,,,,,,cyan,triangle
0.0,7.0,0.0,1.0,4.0,4.0,343.1555690003733,3.0,1.0,phase_1,,,,,,,,,,,,,gray,cross
122.0,6.0,2.0,1.0,1.0,1.0,346.0348649987281,3.0,1.0,phase_1,,,,,,,,,,,,,orange,hexagon
217.0,3.0,3.0,0.0,1.0,1.0,358.4813980014587,3.0,1.0,phase_1,,,,,,,,,,,,,yellow,square
80.0,2.0,2.0,0.0,3.0,3.0,420.5326209994382,3.0,1.0,phase_1,,,,,,,,,,,,,magenta,I
413.0,8.0,4.0,1.0,3.0,3.0,374.3017720007628,3.0,1.0,phase_1,,,,,,,,,,,,,blue,diamond
0.0,3.0,0.0,0.0,4.0,4.0,358.7258669995208,3.0,1.0,phase_1,,,,,,,,,,,,,yellow,square
64.0,1.0,1.0,0.0,2.0,2.0,360.2601290003804,3.0,1.0,phase_1,,,,,,,,,,,,,green,circle
29.0,1.0,1.0,0.0,2.0,2.0,348.4342660012771,3.0,1.0,phase_1,,,,,,,,,,,,,green,circle
110.0,6.0,2.0,1.0,2.0,2.0,391.8402909985161,3.0,1.0,phase_1,,,,,,,,,,,,,orange,hexagon
220.0,7.0,3.0,1.0,3.0,3.0,500.5671569997503,3.0,1.0,phase_1,,,,,,,,,,,,,gray,cross
185.0,7.0,3.0,1.0,2.0,2.0,487.2747179997532,3.0,1.0,phase_1,,,,,,,,,,,,,gray,cross
418.0,8.0,4.0,1.0,3.0,3.0,470.7809810006438,3.0,1.0,phase_1,,,,,,,,,,,,,blue,diamond
377.0,8.0,4.0,1.0,2.0,2.0,448.847895999279,3.0,1.0,phase_1,,,,,,,,,,,,,blue,diamond
77.0,2.0,2.0,0.0,1.0,1.0,433.3629499997187,3.0,1.0,phase_1,,,,,,,,,,,,,magenta,I
0.0,1.0,0.0,0.0,3.0,3.0,434.1050630009704,3.0,1.0,phase_1,,,,,,,,,,,,,green,circle
0.0,7.0,0.0,1.0,1.0,1.0,399.5507960007671,3.0,1.0,phase_1,,,,,,,,,,,,,gray,cross
123.0,2.0,2.0,0.0,4.0,4.0,391.2600020012178,3.0,1.0,phase_1,,,,,,,,,,,,,magenta,I
382.0,8.0,4.0,1.0,2.0,2.0,390.4251629992359,3.0,1.0,phase_1,,,,,,,,,,,,,blue,diamond
196.0,7.0,3.0,1.0,4.0,4.0,398.5360450005828,3.0,1.0,phase_1,,,,,,,,,,,,,gray,cross
52.0,5.0,1.0,1.0,3.0,3.0,426.7688640011329,3.0,1.0,phase_1,,,,,,,,,,,,,white,flipped triangle
0.0,1.0,0.0,0.0,2.0,2.0,386.369873998774,3.0,1.0,phase_1,,,,,,,,,,,,,green,circle
417.0,4.0,4.0,0.0,4.0,4.0,440.2610699999059,3.0,1.0,phase_1,,,,,,,,,,,,,cyan,triangle
0.0,5.0,0.0,1.0,4.0,4.0,368.0781139992177,3.0,1.0,phase_1,,,,,,,,,,,,,white,flipped triangle
35.0,1.0,1.0,0.0,1.0,1.0,380.5550670003867,3.0,1.0,phase_1,,,,,,,,,,,,,green,circle
34.0,1.0,1.0,0.0,2.0,2.0,391.1791660011658,3.0,1.0,phase_1,,,,,,,,,,,,,green,circle
44.0,1.0,1.0,0.0,4.0,4.0,399.9968770003761,3.0,1.0,phase_1,,,,,,,,,,,,,green,circle
0.0,5.0,0.0,1.0,2.0,2.0,401.109804999578,3.0,1.0,phase_1,,,,,,,,,,,,,white,flipped triangle
0.0,3.0,0.0,0.0,1.0,1.0,414.4952509996074,3.0,1.0,phase_1,,,,,,,,,,,,,yellow,square
220.0,3.0,3.0,0.0,4.0,4.0,535.8033760003309,3.0,1.0,phase_1,,,,,,,,,,,,,yellow,square
0.0,1.0,0.0,0.0,2.0,2.0,414.3753730004391,3.0,1.0,phase_1,,,,,,,,,,,,,green,circle
388.0,4.0,4.0,0.0,1.0,1.0,436.3197059992671,3.0,1.0,phase_1,,,,,,,,,,,,,cyan,triangle
180.0,7.0,3.0,1.0,4.0,4.0,505.8310859985795,3.0,1.0,phase_1,,,,,,,,,,,,,gray,cross
413.0,4.0,4.0,0.0,1.0,1.0,375.0171530009538,3.0,1.0,phase_1,,,,,,,,,,,,,cyan,triangle
57.0,5.0,1.0,1.0,3.0,3.0,503.91469500027597,3.0,1.0,phase_1,,,,,,,,,,,,,white,flipped triangle
382.0,4.0,4.0,0.0,4.0,4.0,441.2605810011882,3.0,1.0,phase_1,,,,,,,,,,,,,cyan,triangle
51.0,1.0,1.0,0.0,1.0,1.0,574.5915009993041,3.0,1.0,phase_1,,,,,,,,,,,,,green,circle
104.0,6.0,2.0,1.0,4.0,4.0,390.8579079998162,3.0,1.0,phase_1,,,,,,,,,,,,,orange,hexagon
223.0,3.0,3.0,0.0,1.0,1.0,398.3897790003539,3.0,1.0,phase_1,,,,,,,,,,,,,yellow,square
121.0,2.0,2.0,0.0,4.0,4.0,435.5939240012958,3.0,1.0,phase_1,,,,,,,,,,,,,magenta,I
409.0,4.0,4.0,0.0,1.0,1.0,377.0024619989272,3.0,1.0,phase_1,,,,,,,,,,,,,cyan,triangle
0.0,3.0,0.0,0.0,2.0,2.0,442.7363430004334,3.0,1.0,phase_1,,,,,,,,,,,,,yellow,square
0.0,4.0,0.0,0.0,2.0,2.0,467.0417340003041,3.0,1.0,phase_1,,,,,,,,,,,,,cyan,triangle
0.0,2.0,0.0,0.0,2.0,2.0,424.5500600009109,3.0,1.0,phase_1,,,,,,,,,,,,,magenta,I
182.0,3.0,3.0,0.0,2.0,2.0,500.826462999612,3.0,1.0,phase_1,,,,,,,,,,,,,yellow,square
114.0,2.0,2.0,0.0,4.0,4.0,405.1686990005692,3.0,1.0,phase_1,,,,,,,,,,,,,magenta,I
62.0,1.0,1.0,0.0,2.0,2.0,564.8206090008898,3.0,1.0,phase_1,,,,,,,,,,,,,green,circle
401.0,8.0,4.0,1.0,4.0,4.0,454.7147120010777,3.0,1.0,phase_1,,,,,,,,,,,,,blue,diamond
377.0,4.0,4.0,0.0,3.0,3.0,612.1526299994002,3.0,1.0,phase_1,,,,,,,,,,,,,cyan,triangle
45.0,5.0,1.0,1.0,1.0,1.0,416.2556840001343,3.0,1.0,phase_1,,,,,,,,,,,,,white,flipped triangle
95.0,6.0,2.0,1.0,3.0,3.0,413.6196029994607,3.0,1.0,phase_1,,,,,,,,,,,,,orange,hexagon
186.0,7.0,3.0,1.0,4.0,4.0,469.8844089998601,3.0,1.0,phase_1,,,,,,,,,,,,,gray,cross
177.0,7.0,3.0,1.0,1.0,1.0,462.1007980003924,3.0,1.0,phase_1,,,,,,,,,,,,,gray,cross
189.0,3.0,3.0,0.0,3.0,3.0,413.0506809997314,3.0,1.0,phase_1,,,,,,,,,,,,,yellow,square
401.0,4.0,4.0,0.0,3.0,3.0,447.9428190006729,3.0,1.0,phase_1,,,,,,,,,,,,,cyan,triangle
27.0,5.0,1.0,1.0,2.0,2.0,474.7333670002263,3.0,1.0,phase_1,,,,,,,,,,,,,white,flipped triangle
189.0,7.0,3.0,1.0,1.0,1.0,365.860216999863,3.0,1.0,phase_1,,,,,,,,,,,,,gray,cross
176.0,7.0,3.0,1.0,1.0,1.0,520.952357999704,3.0,1.0,phase_1,,,,,,,,,,,,,gray,cross
77.0,6.0,2.0,1.0,2.0,2.0,402.3723780010186,3.0,1.0,phase_1,,,,,,,,,,,,,orange,hexagon
222.0,7.0,3.0,1.0,1.0,1.0,585.3738650002924,3.0,1.0,phase_1,,,,,,,,,,,,,gray,cross
403.0,8.0,4.0,1.0,4.0,4.0,573.1732429994736,3.0,1.0,phase_1,,,,,,,,,,,,,blue,diamond
119.0,6.0,2.0,1.0,1.0,1.0,426.2206579987833,3.0,1.0,phase_1,,,,,,,,,,,,,orange,hexagon
212.0,7.0,3.0,1.0,3.0,3.0,513.2920690011815,3.0,1.0,phase_1,,,,,,,,,,,,,gray,cross
198.0,7.0,3.0,1.0,2.0,2.0,482.1888899987243,3.0,1.0,phase_1,,,,,,,,,,,,,gray,cross
38.0,1.0,1.0,0.0,3.0,3.0,487.4678230007703,3.0,1.0,phase_1,,,,,,,,,,,,,green,circle
42.0,1.0,1.0,0.0,1.0,1.0,472.8312810002535,3.0,1.0,phase_1,,,,,,,,,,,,,green,circle
112.0,6.0,2.0,1.0,4.0,4.0,374.5395109999663,3.0,1.0,phase_1,,,,,,,,,,,,,orange,hexagon
0.0,4.0,0.0,0.0,3.0,3.0,492.8234919989336,3.0,1.0,phase_1,,,,,,,,,,,,,cyan,triangle
91.0,6.0,2.0,1.0,3.0,3.0,427.1310059993993,3.0,1.0,phase_1,,,,,,,,,,,,,orange,hexagon
35.0,1.0,1.0,0.0,4.0,4.0,423.5008920004475,3.0,1.0,phase_1,,,,,,,,,,,,,green,circle
402.0,4.0,4.0,0.0,2.0,2.0,409.069826000632,3.0,1.0,phase_1,,,,,,,,,,,,,cyan,triangle
63.0,1.0,1.0,0.0,1.0,1.0,378.7113569997018,3.0,1.0,phase_1,,,,,,,,,,,,,green,circle
56.0,1.0,1.0,0.0,4.0,4.0,401.6252569999778,3.0,1.0,phase_1,,,,,,,,,,,,,green,circle
188.0,7.0,3.0,1.0,1.0,1.0,407.2762860014336,3.0,1.0,phase_1,,,,,,,,,,,,,gray,cross
121.0,6.0,2.0,1.0,2.0,2.0,405.7466960002784,3.0,1.0,phase_1,,,,,,,,,,,,,orange,hexagon
186.0,3.0,3.0,0.0,4.0,4.0,398.0419290001009,3.0,1.0,phase_1,,,,,,,,,,,,,yellow,square
378.0,4.0,4.0,0.0,4.0,4.0,419.6645190004346,3.0,1.0,phase_1,,,,,,,,,,,,,cyan,triangle
182.0,7.0,3.0,1.0,2.0,2.0,462.8106300006038,3.0,1.0,phase_1,,,,,,,,,,,,,gray,cross
89.0,2.0,2.0,0.0,4.0,4.0,457.7526010016299,3.0,1.0,phase_1,,,,,,,,,,,,,magenta,I
177.0,3.0,3.0,0.0,4.0,4.0,459.83689000058797,3.0,1.0,phase_1,,,,,,,,,,,,,yellow,square
188.0,3.0,3.0,0.0,2.0,2.0,817.9929939997237,3.0,1.0,phase_1,,,,,,,,,,,,,yellow,square
31.0,1.0,1.0,0.0,4.0,4.0,523.9823270003399,3.0,1.0,phase_1,,,,,,,,,,,,,green,circle
425.0,8.0,4.0,1.0,4.0,4.0,461.6443049999361,3.0,1.0,phase_1,,,,,,,,,,,,,blue,diamond
0.0,2.0,0.0,0.0,2.0,2.0,635.8550270015257,3.0,1.0,phase_1,,,,,,,,,,,,,magenta,I
82.0,6.0,2.0,1.0,2.0,2.0,592.843222000738,3.0,1.0,phase_1,,,,,,,,,,,,,orange,hexagon
425.0,8.0,4.0,1.0,3.0,3.0,504.25187799919513,3.0,1.0,phase_1,,,,,,,,,,,,,blue,diamond
35.0,5.0,1.0,1.0,1.0,1.0,392.9262359997665,3.0,1.0,phase_1,,,,,,,,,,,,,white,flipped triangle
40.0,5.0,1.0,1.0,3.0,3.0,450.1088890010578,3.0,1.0,phase_1,,,,,,,,,,,,,white,flipped triangle
389.0,8.0,4.0,1.0,1.0,1.0,484.529613999257,3.0,1.0,phase_1,,,,,,,,,,,,,blue,diamond
391.0,8.0,4.0,1.0,3.0,3.0,594.1105700003391,3.0,1.0,phase_1,,,,,,,,,,,,,blue,diamond
386.0,8.0,4.0,1.0,4.0,4.0,511.16926899885584,3.0,1.0,phase_1,,,,,,,,,,,,,blue,diamond
112.0,6.0,2.0,1.0,4.0,4.0,485.3232890000072,3.0,1.0,phase_1,,,,,,,,,,,,,orange,hexagon
92.0,6.0,2.0,1.0,4.0,4.0,389.8442879999493,3.0,1.0,phase_1,,,,,,,,,,,,,orange,hexagon
417.0,8.0,4.0,1.0,3.0,3.0,484.6547590004775,3.0,1.0,phase_1,,,,,,,,,,,,,blue,diamond
411.0,8.0,4.0,1.0,1.0,1.0,528.5563280012866,3.0,1.0,phase_1,,,,,,,,,,,,,blue,diamond
416.0,8.0,4.0,1.0,1.0,1.0,542.7945650008041,3.0,1.0,phase_1,,,,,,,,,,,,,blue,diamond
181.0,7.0,3.0,1.0,2.0,2.0,490.916789000039,3.0,1.0,phase_1,,,,,,,,,,,,,gray,cross
92.0,6.0,2.0,1.0,1.0,1.0,501.5628299988748,3.0,1.0,phase_1,,,,,,,,,,,,,orange,hexagon
223.0,7.0,3.0,1.0,2.0,2.0,516.032567998991,3.0,1.0,phase_1,,,,,,,,,,,,,gray,cross
398.0,8.0,4.0,1.0,1.0,1.0,426.0384760000306,4.0,1.0,phase_1,,,,,,,,,,,,,blue,diamond
26.0,1.0,1.0,0.0,2.0,2.0,398.3434679994388,4.0,1.0,phase_1,,,,,,,,,,,,,green,circle
73.0,1.0,1.0,0.0,4.0,4.0,307.3476420013321,4.0,1.0,phase_1,,,,,,,,,,,,,green,circle
66.0,5.0,1.0,1.0,3.0,3.0,316.3566650000575,4.0,1.0,phase_1,,,,,,,,,,,,,white,flipped triangle
74.0,1.0,1.0,0.0,1.0,1.0,365.716035999867,4.0,1.0,phase_1,,,,,,,,,,,,,green,circle
425.0,4.0,4.0,0.0,4.0,4.0,343.0563780002558,4.0,1.0,phase_1,,,,,,,,,,,,,cyan,triangle
0.0,7.0,0.0,1.0,4.0,4.0,447.61625999854,4.0,1.0,phase_1,,,,,,,,,,,,,gray,cross
391.0,4.0,4.0,0.0,4.0,4.0,444.6585749992664,4.0,1.0,phase_1,,,,,,,,,,,,,cyan,triangle
108.0,2.0,2.0,0.0,2.0,2.0,379.4479489988589,4.0,1.0,phase_1,,,,,,,,,,,,,magenta,I
35.0,1.0,1.0,0.0,2.0,2.0,479.0179209994676,4.0,1.0,phase_1,,,,,,,,,,,,,green,circle
377.0,8.0,4.0,1.0,1.0,1.0,378.0562129995815,4.0,1.0,phase_1,,,,,,,,,,,,,blue,diamond
391.0,4.0,4.0,0.0,2.0,2.0,391.486201000589,4.0,1.0,phase_1,,,,,,,,,,,,,cyan,triangle
398.0,4.0,4.0,0.0,4.0,4.0,430.6040569990728,4.0,1.0,phase_1,,,,,,,,,,,,,cyan,triangle
397.0,8.0,4.0,1.0,2.0,2.0,427.7929220006626,4.0,1.0,phase_1,,,,,,,,,,,,,blue,diamond
0.0,6.0,0.0,1.0,3.0,3.0,492.7542719997291,4.0,1.0,phase_1,,,,,,,,,,,,,orange,hexagon
404.0,8.0,4.0,1.0,2.0,2.0,421.5853819987387,4.0,1.0,phase_1,,,,,,,,,,,,,blue,diamond
205.0,3.0,3.0,0.0,1.0,1.0,501.8253250000271,4.0,1.0,phase_1,,,,,,,,,,,,,yellow,square
0.0,3.0,0.0,0.0,2.0,2.0,472.5874010000552,4.0,1.0,phase_1,,,,,,,,,,,,,yellow,square
71.0,5.0,1.0,1.0,1.0,1.0,379.2864420011028,4.0,1.0,phase_1,,,,,,,,,,,,,white,flipped triangle
110.0,2.0,2.0,0.0,2.0,2.0,385.3561889991397,4.0,1.0,phase_1,,,,,,,,,,,,,magenta,I
411.0,4.0,4.0,0.0,2.0,2.0,644.6691940000164,4.0,1.0,phase_1,,,,,,,,,,,,,cyan,triangle
0.0,8.0,0.0,1.0,3.0,3.0,502.75821600007475,4.0,1.0,phase_1,,,,,,,,,,,,,blue,diamond
65.0,5.0,1.0,1.0,4.0,4.0,601.7402390007192,4.0,1.0,phase_1,,,,,,,,,,,,,white,flipped triangle
0.0,3.0,0.0,0.0,2.0,2.0,379.9308379984722,4.0,1.0,phase_1,,,,,,,,,,,,,yellow,square
210.0,3.0,3.0,0.0,4.0,4.0,440.780029999587,4.0,1.0,phase_1,,,,,,,,,,,,,yellow,square
84.0,6.0,2.0,1.0,4.0,4.0,524.2377949998627,4.0,1.0,phase_1,,,,,,,,,,,,,orange,hexagon
47.0,1.0,1.0,0.0,3.0,3.0,452.249035000932,4.0,1.0,phase_1,,,,,,,,,,,,,green,circle
0.0,6.0,0.0,1.0,1.0,1.0,424.9782700007927,4.0,1.0,phase_1,,,,,,,,,,,,,orange,hexagon
41.0,5.0,1.0,1.0,2.0,2.0,375.2519220015529,4.0,1.0,phase_1,,,,,,,,,,,,,white,flipped triangle
29.0,1.0,1.0,0.0,1.0,1.0,632.1339639998769,4.0,1.0,phase_1,,,,,,,,,,,,,green,circle
418.0,4.0,4.0,0.0,2.0,2.0,422.0931729996664,4.0,1.0,phase_1,,,,,,,,,,,,,cyan,triangle
0.0,2.0,0.0,0.0,1.0,1.0,369.7593689994392,4.0,1.0,phase_1,,,,,,,,,,,,,magenta,I
0.0,4.0,0.0,0.0,1.0,1.0,424.0645760000916,4.0,1.0,phase_1,,,,,,,,,,,,,cyan,triangle
83.0,6.0,2.0,1.0,3.0,3.0,479.4375000001309,4.0,1.0,phase_1,,,,,,,,,,,,,orange,hexagon
47.0,5.0,1.0,1.0,2.0,2.0,515.3897149994009,4.0,1.0,phase_1,,,,,,,,,,,,,white,flipped triangle
199.0,7.0,3.0,1.0,2.0,2.0,478.2109360003233,4.0,1.0,phase_1,,,,,,,,,,,,,gray,cross
42.0,5.0,1.0,1.0,3.0,3.0,483.0413740000949,4.0,1.0,phase_1,,,,,,,,,,,,,white,flipped triangle
402.0,8.0,4.0,1.0,4.0,4.0,451.3994740009366,4.0,2.0,phase_1,,,,,,,,,,,,,blue,diamond
205.0,7.0,3.0,1.0,4.0,4.0,406.1750540004141,4.0,1.0,phase_1,,,,,,,,,,,,,gray,cross
176.0,3.0,3.0,0.0,2.0,2.0,410.2954890004184,4.0,1.0,phase_1,,,,,,,,,,,,,yellow,square
177.0,7.0,3.0,1.0,1.0,1.0,494.4306110010075,4.0,1.0,phase_1,,,,,,,,,,,,,gray,cross
0.0,2.0,0.0,0.0,4.0,4.0,510.8638019992213,4.0,1.0,phase_1,,,,,,,,,,,,,magenta,I
405.0,4.0,4.0,0.0,1.0,1.0,421.5367139986483,4.0,1.0,phase_1,,,,,,,,,,,,,cyan,triangle
0.0,8.0,0.0,1.0,2.0,2.0,502.74717999855056,4.0,1.0,phase_1,,,,,,,,,,,,,blue,diamond
403.0,4.0,4.0,0.0,2.0,2.0,573.7716510011523,4.0,1.0,phase_1,,,,,,,,,,,,,cyan,triangle
0.0,8.0,0.0,1.0,2.0,2.0,383.1698289995984,4.0,1.0,phase_1,,,,,,,,,,,,,blue,diamond
70.0,1.0,1.0,0.0,4.0,4.0,505.9110399997735,4.0,1.0,phase_1,,,,,,,,,,,,,green,circle
92.0,2.0,2.0,0.0,4.0,4.0,497.2964080006932,4.0,2.0,phase_1,,,,,,,,,,,,,magenta,I
115.0,6.0,2.0,1.0,4.0,4.0,747.6572300001862,4.0,1.0,phase_1,,,,,,,,,,,,,orange,hexagon
222.0,3.0,3.0,0.0,1.0,1.0,516.6620989984949,4.0,1.0,phase_1,,,,,,,,,,,,,yellow,square
203.0,7.0,3.0,1.0,3.0,3.0,564.6520650007005,4.0,1.0,phase_1,,,,,,,,,,,,,gray,cross
220.0,3.0,3.0,0.0,2.0,2.0,599.9821589994099,4.0,1.0,phase_1,,,,,,,,,,,,,yellow,square
0.0,1.0,0.0,0.0,2.0,2.0,627.8242839998711,4.0,1.0,phase_1,,,,,,,,,,,,,green,circle
378.0,8.0,4.0,1.0,1.0,1.0,599.4020580001234,4.0,1.0,phase_1,,,,,,,,,,,,,blue,diamond
121.0,2.0,2.0,0.0,3.0,3.0,425.7418479992338,4.0,1.0,phase_1,,,,,,,,,,,,,magenta,I
0.0,3.0,0.0,0.0,1.0,1.0,529.4789590006985,4.0,1.0,phase_1,,,,,,,,,,,,,yellow,square
0.0,1.0,0.0,0.0,2.0,2.0,427.1144609992916,4.0,1.0,phase_1,,,,,,,,,,,,,green,circle
420.0,4.0,4.0,0.0,1.0,1.0,460.1303649997135,4.0,1.0,phase_1,,,,,,,,,,,,,cyan,triangle
121.0,6.0,2.0,1.0,1.0,1.0,513.0051159994764,4.0,1.0,phase_1,,,,,,,,,,,,,orange,hexagon
122.0,2.0,2.0,0.0,1.0,1.0,482.5815260010131,4.0,1.0,phase_1,,,,,,,,,,,,,magenta,I
83.0,2.0,2.0,0.0,4.0,4.0,425.2485260003595,4.0,1.0,phase_1,,,,,,,,,,,,,magenta,I
0.0,7.0,0.0,1.0,1.0,1.0,462.2254599998996,4.0,1.0,phase_1,,,,,,,,,,,,,gray,cross
118.0,2.0,2.0,0.0,4.0,4.0,581.2201009994169,4.0,1.0,phase_1,,,,,,,,,,,,,magenta,I
58.0,5.0,1.0,1.0,4.0,4.0,527.7975360004348,4.0,1.0,phase_1,,,,,,,,,,,,,white,flipped triangle
202.0,3.0,3.0,0.0,1.0,1.0,604.5655669986445,4.0,1.0,phase_1,,,,,,,,,,,,,yellow,square
107.0,6.0,2.0,1.0,2.0,2.0,558.2181780009705,4.0,1.0,phase_1,,,,,,,,,,,,,orange,hexagon
91.0,2.0,2.0,0.0,4.0,4.0,364.1056069991464,4.0,1.0,phase_1,,,,,,,,,,,,,magenta,I
0.0,5.0,0.0,1.0,1.0,1.0,472.5005219988816,4.0,1.0,phase_1,,,,,,,,,,,,,white,flipped triangle
389.0,4.0,4.0,0.0,1.0,1.0,464.2654199997196,4.0,1.0,phase_1,,,,,,,,,,,,,cyan,triangle
71.0,1.0,1.0,0.0,1.0,1.0,521.4139349991456,4.0,1.0,phase_1,,,,,,,,,,,,,green,circle
388.0,8.0,4.0,1.0,1.0,1.0,513.2269919995451,4.0,1.0,phase_1,,,,,,,,,,,,,blue,diamond
382.0,4.0,4.0,0.0,3.0,3.0,375.9383109991177,4.0,1.0,phase_1,,,,,,,,,,,,,cyan,triangle
0.0,4.0,0.0,0.0,3.0,3.0,454.0197440001066,4.0,1.0,phase_1,,,,,,,,,,,,,cyan,triangle
39.0,5.0,1.0,1.0,4.0,4.0,400.0360460013326,4.0,1.0,phase_1,,,,,,,,,,,,,white,flipped triangle
107.0,6.0,2.0,1.0,4.0,4.0,419.1864120002719,4.0,1.0,phase_1,,,,,,,,,,,,,orange,hexagon
110.0,6.0,2.0,1.0,3.0,3.0,801.4623760009272,4.0,1.0,phase_1,,,,,,,,,,,,,orange,hexagon
77.0,2.0,2.0,0.0,1.0,1.0,469.8611719995824,4.0,1.0,phase_1,,,,,,,,,,,,,magenta,I
64.0,5.0,1.0,1.0,4.0,4.0,911.6988919995492,4.0,1.0,phase_1,,,,,,,,,,,,,white,flipped triangle
0.0,2.0,0.0,0.0,3.0,3.0,545.6315289993654,4.0,1.0,phase_1,,,,,,,,,,,,,magenta,I
0.0,1.0,0.0,0.0,2.0,2.0,591.4537669996207,4.0,1.0,phase_1,,,,,,,,,,,,,green,circle
391.0,8.0,4.0,1.0,2.0,2.0,522.4127279998356,4.0,1.0,phase_1,,,,,,,,,,,,,blue,diamond
177.0,3.0,3.0,0.0,3.0,3.0,442.3641589983162,4.0,1.0,phase_1,,,,,,,,,,,,,yellow,square
185.0,3.0,3.0,0.0,3.0,3.0,495.7519649997266,4.0,1.0,phase_1,,,,,,,,,,,,,yellow,square
425.0,4.0,4.0,0.0,4.0,4.0,465.8241200013435,4.0,1.0,phase_1,,,,,,,,,,,,,cyan,triangle
39.0,1.0,1.0,0.0,4.0,4.0,422.1298570009821,4.0,1.0,phase_1,,,,,,,,,,,,,green,circle
0.0,1.0,0.0,0.0,2.0,2.0,600.1180820003356,4.0,1.0,phase_1,,,,,,,,,,,,,green,circle
388.0,8.0,4.0,1.0,2.0,2.0,511.7016259991942,4.0,1.0,phase_1,,,,,,,,,,,,,blue,diamond
91.0,6.0,2.0,1.0,3.0,3.0,447.8035980009736,4.0,1.0,phase_1,,,,,,,,,,,,,orange,hexagon
56.0,1.0,1.0,0.0,1.0,1.0,584.8701520008035,4.0,1.0,phase_1,,,,,,,,,,,,,green,circle
0.0,5.0,0.0,1.0,1.0,1.0,867.3484499995538,4.0,1.0,phase_1,,,,,,,,,,,,,white,flipped triangle
196.0,3.0,3.0,0.0,4.0,4.0,550.5495849993167,4.0,1.0,phase_1,,,,,,,,,,,,,yellow,square
71.0,1.0,1.0,0.0,3.0,3.0,843.7404970009084,4.0,1.0,phase_1,,,,,,,,,,,,,green,circle
220.0,7.0,3.0,1.0,4.0,4.0,537.6873599998362,4.0,1.0,phase_1,,,,,,,,,,,,,gray,cross
381.0,8.0,4.0,1.0,2.0,2.0,854.5207009992737,4.0,2.0,phase_1,,,,,,,,,,,,,blue,diamond
25.0,1.0,1.0,0.0,4.0,4.0,379.004223001175,4.0,1.0,phase_1,,,,,,,,,,,,,green,circle
215.0,7.0,3.0,1.0,2.0,2.0,538.9919829995051,4.0,1.0,phase_1,,,,,,,,,,,,,gray,cross
404.0,8.0,4.0,1.0,3.0,3.0,490.3235300007509,4.0,1.0,phase_1,,,,,,,,,,,,,blue,diamond
0.0,8.0,0.0,1.0,4.0,4.0,376.0152600007131,4.0,1.0,phase_1,,,,,,,,,,,,,blue,diamond
210.0,3.0,3.0,0.0,2.0,2.0,380.3062030001456,4.0,1.0,phase_1,,,,,,,,,,,,,yellow,square
77.0,6.0,2.0,1.0,3.0,3.0,460.1743500006705,4.0,1.0,phase_1,,,,,,,,,,,,,orange,hexagon
0.0,7.0,3.0,1.0,6.0,6.0,618.9838249993045,1.0,1.0,phase_2,stop,250.0,250.0,3.0,,,,,,,,,gray,cross
0.0,3.0,3.0,0.0,6.0,6.0,394.1617350010347,1.0,1.0,phase_2,go,250.0,200.0,1.0,,,,,,,,,yellow,square
0.0,6.0,2.0,1.0,5.0,0.0,0.0,1.0,1.0,phase_2,stop,250.0,200.0,4.0,,,,,,,,,orange,hexagon
0.0,6.0,2.0,1.0,6.0,6.0,411.5629480002098,1.0,1.0,phase_2,go,300.0,200.0,1.0,,,,,,,,,orange,hexagon
0.0,2.0,2.0,0.0,6.0,6.0,520.4092060012044,1.0,1.0,phase_2,go,300.0,200.0,1.0,,,,,,,,,magenta,I
0.0,2.0,2.0,0.0,6.0,6.0,600.5882499994186,1.0,1.0,phase_2,go,300.0,200.0,1.0,,,,,,,,,magenta,I
0.0,3.0,3.0,0.0,6.0,6.0,388.0295990002196,1.0,1.0,phase_2,go,300.0,200.0,1.0,,,,,,,,,yellow,square
0.0,6.0,2.0,1.0,5.0,5.0,506.7896560012741,1.0,1.0,phase_2,stop,300.0,200.0,3.0,,,,,,,,,orange,hexagon
0.0,5.0,1.0,1.0,5.0,0.0,0.0,1.0,1.0,phase_2,stop,250.0,200.0,4.0,,,,,,,,,white,flipped triangle
0.0,2.0,2.0,0.0,5.0,5.0,617.0086860001902,1.0,1.0,phase_2,go,300.0,200.0,1.0,,,,,,,,,magenta,I
0.0,5.0,1.0,1.0,5.0,0.0,0.0,1.0,1.0,phase_2,stop,300.0,200.0,4.0,,,,,,,,,white,flipped triangle
0.0,5.0,1.0,1.0,5.0,5.0,515.3343530000711,1.0,1.0,phase_2,stop,350.0,200.0,3.0,,,,,,,,,white,flipped triangle
0.0,4.0,4.0,0.0,5.0,5.0,629.9136910001835,1.0,1.0,phase_2,go,300.0,200.0,1.0,,,,,,,,,cyan,triangle
0.0,2.0,2.0,0.0,6.0,6.0,481.742949999898,1.0,1.0,phase_2,go,300.0,200.0,1.0,,,,,,,,,magenta,I
0.0,5.0,1.0,1.0,5.0,5.0,825.1952579994395,1.0,1.0,phase_2,go,300.0,200.0,1.0,,,,,,,,,white,flipped triangle
0.0,8.0,4.0,1.0,5.0,0.0,0.0,1.0,1.0,phase_2,stop,300.0,200.0,4.0,,,,,,,,,blue,diamond
0.0,6.0,2.0,1.0,5.0,0.0,0.0,1.0,1.0,phase_2,stop,350.0,200.0,4.0,,,,,,,,,orange,hexagon
0.0,4.0,4.0,0.0,5.0,5.0,706.0280130008323,1.0,1.0,phase_2,go,400.0,200.0,1.0,,,,,,,,,cyan,triangle
0.0,3.0,3.0,0.0,5.0,5.0,528.4655110008316,1.0,1.0,phase_2,go,400.0,200.0,1.0,,,,,,,,,yellow,square
0.0,3.0,3.0,0.0,5.0,5.0,457.1026309986337,1.0,1.0,phase_2,go,400.0,200.0,1.0,,,,,,,,,yellow,square
0.0,3.0,3.0,0.0,6.0,6.0,571.6438079998625,1.0,1.0,phase_2,go,400.0,200.0,1.0,,,,,,,,,yellow,square
0.0,4.0,4.0,0.0,6.0,6.0,694.692908999059,1.0,1.0,phase_2,go,400.0,200.0,1.0,,,,,,,,,cyan,triangle
0.0,6.0,2.0,1.0,6.0,0.0,0.0,1.0,1.0,phase_2,stop,400.0,200.0,4.0,,,,,,,,,orange,hexagon
0.0,2.0,2.0,0.0,6.0,6.0,543.4253050007101,1.0,1.0,phase_2,go,400.0,250.0,1.0,,,,,,,,,magenta,I
0.0,5.0,1.0,1.0,6.0,6.0,366.5783519991237,1.0,1.0,phase_2,stop,400.0,250.0,3.0,,,,,,,,,white,flipped triangle
0.0,4.0,4.0,0.0,5.0,5.0,600.375055000768,1.0,1.0,phase_2,go,400.0,200.0,1.0,,,,,,,,,cyan,triangle
0.0,8.0,4.0,1.0,5.0,5.0,499.4947299983323,1.0,1.0,phase_2,stop,400.0,200.0,3.0,,,,,,,,,blue,diamond
0.0,5.0,1.0,1.0,6.0,0.0,0.0,1.0,1.0,phase_2,stop,350.0,200.0,4.0,,,,,,,,,white,flipped triangle
0.0,1.0,1.0,0.0,5.0,5.0,462.5991729990346,1.0,1.0,phase_2,go,350.0,250.0,1.0,,,,,,,,,green,circle
0.0,1.0,1.0,0.0,5.0,5.0,563.5154369992961,1.0,1.0,phase_2,go,350.0,250.0,1.0,,,,,,,,,green,circle
0.0,8.0,4.0,1.0,5.0,5.0,559.2981800000416,1.0,1.0,phase_2,stop,350.0,250.0,3.0,,,,,,,,,blue,diamond
0.0,8.0,4.0,1.0,6.0,6.0,523.0470020014764,1.0,1.0,phase_2,go,300.0,250.0,1.0,,,,,,,,,blue,diamond
0.0,1.0,1.0,0.0,5.0,5.0,536.5627199989831,1.0,1.0,phase_2,go,300.0,250.0,1.0,,,,,,,,,green,circle
0.0,5.0,1.0,1.0,5.0,0.0,0.0,1.0,1.0,phase_2,stop,300.0,250.0,4.0,,,,,,,,,white,flipped triangle
0.0,8.0,4.0,1.0,5.0,0.0,0.0,1.0,1.0,phase_2,stop,350.0,250.0,4.0,,,,,,,,,blue,diamond
0.0,7.0,3.0,1.0,5.0,5.0,562.3428830003832,1.0,1.0,phase_2,go,400.0,250.0,1.0,,,,,,,,,gray,cross
0.0,7.0,3.0,1.0,5.0,5.0,1221.435579000172,2.0,1.0,phase_2,stop,400.0,250.0,3.0,,,,,,,,,gray,cross
0.0,8.0,4.0,1.0,5.0,0.0,0.0,2.0,1.0,phase_2,stop,350.0,250.0,4.0,,,,,,,,,blue,diamond
0.0,3.0,3.0,0.0,5.0,5.0,668.8432089995331,2.0,1.0,phase_2,go,400.0,250.0,1.0,,,,,,,,,yellow,square
0.0,7.0,3.0,1.0,6.0,0.0,0.0,2.0,1.0,phase_2,stop,400.0,250.0,4.0,,,,,,,,,gray,cross
0.0,7.0,3.0,1.0,6.0,0.0,0.0,2.0,1.0,phase_2,stop,400.0,300.0,4.0,,,,,,,,,gray,cross
0.0,1.0,1.0,0.0,6.0,6.0,558.0786390000867,2.0,1.0,phase_2,go,400.0,350.0,1.0,,,,,,,,,green,circle
0.0,4.0,4.0,0.0,5.0,5.0,506.19017200006056,2.0,1.0,phase_2,go,400.0,350.0,1.0,,,,,,,,,cyan,triangle
0.0,8.0,4.0,1.0,5.0,5.0,735.9572040004423,2.0,1.0,phase_2,go,400.0,350.0,1.0,,,,,,,,,blue,diamond
0.0,4.0,4.0,0.0,6.0,6.0,529.1960499998822,2.0,1.0,phase_2,go,400.0,350.0,1.0,,,,,,,,,cyan,triangle
0.0,2.0,2.0,0.0,6.0,6.0,495.5446269996173,2.0,1.0,phase_2,go,400.0,350.0,1.0,,,,,,,,,magenta,I
0.0,6.0,2.0,1.0,5.0,5.0,514.9172009987524,2.0,1.0,phase_2,stop,400.0,350.0,3.0,,,,,,,,,orange,hexagon
0.0,3.0,3.0,0.0,5.0,5.0,581.6135169989138,2.0,1.0,phase_2,go,350.0,350.0,1.0,,,,,,,,,yellow,square
0.0,6.0,2.0,1.0,6.0,6.0,533.6235640006635,2.0,1.0,phase_2,stop,350.0,350.0,3.0,,,,,,,,,orange,hexagon
0.0,3.0,3.0,0.0,5.0,5.0,627.2003329995641,2.0,1.0,phase_2,go,350.0,300.0,1.0,,,,,,,,,yellow,square
0.0,8.0,4.0,1.0,6.0,6.0,671.5636179997091,2.0,1.0,phase_2,go,350.0,300.0,1.0,,,,,,,,,blue,diamond
0.0,3.0,3.0,0.0,6.0,6.0,610.2823090004676,2.0,1.0,phase_2,go,350.0,300.0,1.0,,,,,,,,,yellow,square
0.0,5.0,1.0,1.0,6.0,0.0,0.0,2.0,1.0,phase_2,stop,350.0,300.0,4.0,,,,,,,,,white,flipped triangle
0.0,4.0,4.0,0.0,5.0,5.0,757.7751720000379,2.0,1.0,phase_2,go,350.0,350.0,1.0,,,,,,,,,cyan,triangle
0.0,3.0,3.0,0.0,5.0,5.0,503.10030999935407,2.0,1.0,phase_2,go,350.0,350.0,1.0,,,,,,,,,yellow,square
0.0,8.0,4.0,1.0,5.0,5.0,515.7934529997874,2.0,1.0,phase_2,go,350.0,350.0,1.0,,,,,,,,,blue,diamond
0.0,5.0,1.0,1.0,5.0,0.0,0.0,2.0,1.0,phase_2,stop,350.0,350.0,4.0,,,,,,,,,white,flipped triangle
0.0,5.0,1.0,1.0,6.0,0.0,0.0,2.0,1.0,phase_2,stop,400.0,350.0,4.0,,,,,,,,,white,flipped triangle
0.0,7.0,3.0,1.0,5.0,0.0,0.0,2.0,1.0,phase_2,stop,400.0,400.0,4.0,,,,,,,,,gray,cross
0.0,2.0,2.0,0.0,5.0,5.0,567.2822739998082,2.0,1.0,phase_2,go,450.0,400.0,1.0,,,,,,,,,magenta,I
0.0,1.0,1.0,0.0,6.0,6.0,608.2520380005008,2.0,1.0,phase_2,go,450.0,400.0,1.0,,,,,,,,,green,circle
0.0,4.0,4.0,0.0,5.0,5.0,558.9605570003187,2.0,1.0,phase_2,go,450.0,400.0,1.0,,,,,,,,,cyan,triangle
0.0,7.0,3.0,1.0,5.0,5.0,506.75924999995914,2.0,1.0,phase_2,stop,450.0,400.0,3.0,,,,,,,,,gray,cross
0.0,6.0,2.0,1.0,5.0,5.0,636.1933539992606,2.0,1.0,phase_2,go,400.0,400.0,1.0,,,,,,,,,orange,hexagon
0.0,7.0,3.0,1.0,6.0,6.0,440.920848001042,2.0,1.0,phase_2,stop,400.0,400.0,3.0,,,,,,,,,gray,cross
0.0,8.0,4.0,1.0,6.0,0.0,0.0,2.0,1.0,phase_2,stop,400.0,350.0,4.0,,,,,,,,,blue,diamond
0.0,4.0,4.0,0.0,6.0,6.0,660.8588920007605,2.0,1.0,phase_2,go,400.0,400.0,1.0,,,,,,,,,cyan,triangle
0.0,7.0,3.0,1.0,6.0,0.0,0.0,2.0,1.0,phase_2,stop,400.0,400.0,4.0,,,,,,,,,gray,cross
0.0,8.0,4.0,1.0,6.0,0.0,0.0,2.0,1.0,phase_2,stop,400.0,450.0,4.0,,,,,,,,,blue,diamond
0.0,1.0,1.0,0.0,5.0,5.0,757.9097560010268,2.0,1.0,phase_2,go,400.0,500.0,1.0,,,,,,,,,green,circle
0.0,8.0,4.0,1.0,6.0,6.0,390.5684239998663,2.0,1.0,phase_2,stop,400.0,500.0,3.0,,,,,,,,,blue,diamond
0.0,6.0,2.0,1.0,5.0,5.0,717.3789640000905,2.0,1.0,phase_2,go,400.0,450.0,1.0,,,,,,,,,orange,hexagon
0.0,7.0,3.0,1.0,5.0,5.0,938.7210420009068,3.0,1.0,phase_2,go,400.0,450.0,1.0,,,,,,,,,gray,cross
0.0,8.0,4.0,1.0,6.0,6.0,491.9239899991225,3.0,1.0,phase_2,stop,400.0,450.0,3.0,,,,,,,,,blue,diamond
0.0,7.0,3.0,1.0,5.0,0.0,0.0,3.0,1.0,phase_2,stop,400.0,400.0,4.0,,,,,,,,,gray,cross
0.0,2.0,2.0,0.0,5.0,5.0,628.2515219991183,3.0,1.0,phase_2,go,450.0,400.0,1.0,,,,,,,,,magenta,I
0.0,5.0,1.0,1.0,5.0,0.0,0.0,3.0,1.0,phase_2,stop,450.0,400.0,4.0,,,,,,,,,white,flipped triangle
0.0,1.0,1.0,0.0,5.0,5.0,788.8287780006067,3.0,1.0,phase_2,go,500.0,400.0,1.0,,,,,,,,,green,circle
0.0,7.0,3.0,1.0,5.0,0.0,0.0,3.0,1.0,phase_2,stop,500.0,400.0,4.0,,,,,,,,,gray,cross
0.0,7.0,3.0,1.0,6.0,6.0,650.110570999459,3.0,1.0,phase_2,go,550.0,400.0,1.0,,,,,,,,,gray,cross
0.0,1.0,1.0,0.0,6.0,6.0,653.379205001329,3.0,1.0,phase_2,go,550.0,400.0,1.0,,,,,,,,,green,circle
0.0,2.0,2.0,0.0,5.0,5.0,581.0980949991063,3.0,1.0,phase_2,go,550.0,400.0,1.0,,,,,,,,,magenta,I
0.0,6.0,2.0,1.0,6.0,6.0,554.443781998998,3.0,1.0,phase_2,go,550.0,400.0,1.0,,,,,,,,,orange,hexagon
0.0,8.0,4.0,1.0,5.0,5.0,488.4135379998042,3.0,1.0,phase_2,stop,550.0,400.0,3.0,,,,,,,,,blue,diamond
0.0,1.0,1.0,0.0,6.0,6.0,824.7610250000434,3.0,1.0,phase_2,go,500.0,400.0,1.0,,,,,,,,,green,circle
0.0,3.0,3.0,0.0,6.0,6.0,812.1529140007624,3.0,1.0,phase_2,go,500.0,400.0,1.0,,,,,,,,,yellow,square
0.0,5.0,1.0,1.0,5.0,5.0,866.2776490000397,3.0,1.0,phase_2,go,500.0,400.0,1.0,,,,,,,,,white,flipped triangle
0.0,6.0,2.0,1.0,5.0,5.0,529.977558999235,3.0,1.0,phase_2,stop,500.0,400.0,3.0,,,,,,,,,orange,hexagon
0.0,7.0,3.0,1.0,6.0,6.0,493.0975890001718,3.0,1.0,phase_2,go,450.0,400.0,1.0,,,,,,,,,gray,cross
0.0,7.0,3.0,1.0,5.0,5.0,606.096751998848,3.0,1.0,phase_2,stop,450.0,400.0,3.0,,,,,,,,,gray,cross
0.0,6.0,2.0,1.0,6.0,0.0,0.0,3.0,1.0,phase_2,stop,400.0,400.0,4.0,,,,,,,,,orange,hexagon
0.0,1.0,1.0,0.0,5.0,5.0,824.4678339997336,3.0,1.0,phase_2,go,400.0,450.0,1.0,,,,,,,,,green,circle
0.0,1.0,1.0,0.0,6.0,6.0,372.0387640005356,3.0,1.0,phase_2,go,400.0,450.0,1.0,,,,,,,,,green,circle
0.0,5.0,1.0,1.0,5.0,5.0,438.4825640008785,3.0,1.0,phase_2,stop,400.0,450.0,3.0,,,,,,,,,white,flipped triangle
0.0,4.0,4.0,0.0,6.0,6.0,741.0344930012798,3.0,1.0,phase_2,go,350.0,450.0,1.0,,,,,,,,,cyan,triangle
0.0,4.0,4.0,0.0,5.0,5.0,633.3094419987901,3.0,1.0,phase_2,go,350.0,450.0,1.0,,,,,,,,,cyan,triangle
0.0,3.0,3.0,0.0,6.0,6.0,670.963173999553,3.0,1.0,phase_2,go,350.0,450.0,1.0,,,,,,,,,yellow,square
0.0,3.0,3.0,0.0,5.0,5.0,578.9348510006675,3.0,1.0,phase_2,go,350.0,450.0,1.0,,,,,,,,,yellow,square
0.0,1.0,1.0,0.0,5.0,5.0,664.5196739991661,3.0,1.0,phase_2,go,350.0,450.0,1.0,,,,,,,,,green,circle
0.0,4.0,4.0,0.0,5.0,5.0,457.6120789988636,3.0,1.0,phase_2,go,350.0,450.0,1.0,,,,,,,,,cyan,triangle
0.0,8.0,4.0,1.0,6.0,6.0,558.2811200001743,3.0,1.0,phase_2,go,350.0,450.0,1.0,,,,,,,,,blue,diamond
0.0,8.0,4.0,1.0,6.0,0.0,0.0,3.0,1.0,phase_2,stop,350.0,450.0,4.0,,,,,,,,,blue,diamond
0.0,2.0,2.0,0.0,6.0,6.0,591.47156400104,3.0,1.0,phase_2,go,350.0,500.0,1.0,,,,,,,,,magenta,I
0.0,3.0,3.0,0.0,5.0,5.0,546.0789010012377,3.0,1.0,phase_2,go,350.0,500.0,1.0,,,,,,,,,yellow,square
0.0,2.0,2.0,0.0,6.0,6.0,412.7202700001362,3.0,1.0,phase_2,go,350.0,500.0,1.0,,,,,,,,,magenta,I
0.0,8.0,4.0,1.0,5.0,5.0,350.2973210015625,3.0,1.0,phase_2,go,350.0,500.0,1.0,,,,,,,,,blue,diamond
0.0,2.0,2.0,0.0,5.0,5.0,413.7709539991192,3.0,1.0,phase_2,go,350.0,500.0,1.0,,,,,,,,,magenta,I
0.0,6.0,2.0,1.0,5.0,5.0,508.5909410008753,3.0,1.0,phase_2,stop,350.0,500.0,3.0,,,,,,,,,orange,hexagon
0.0,8.0,4.0,1.0,5.0,0.0,0.0,4.0,1.0,phase_2,stop,300.0,500.0,4.0,,,,,,,,,blue,diamond
0.0,6.0,2.0,1.0,6.0,6.0,477.8423509997083,4.0,1.0,phase_2,stop,350.0,500.0,3.0,,,,,,,,,orange,hexagon
0.0,3.0,3.0,0.0,6.0,6.0,1118.700497001555,4.0,1.0,phase_2,go,350.0,450.0,1.0,,,,,,,,,yellow,square
0.0,3.0,3.0,0.0,6.0,6.0,504.7328060009022,4.0,1.0,phase_2,go,350.0,450.0,1.0,,,,,,,,,yellow,square
0.0,7.0,3.0,1.0,5.0,5.0,445.8419359998515,4.0,1.0,phase_2,stop,350.0,450.0,3.0,,,,,,,,,gray,cross
0.0,2.0,2.0,0.0,5.0,5.0,667.014755999844,4.0,1.0,phase_2,go,300.0,450.0,1.0,,,,,,,,,magenta,I
0.0,5.0,1.0,1.0,6.0,6.0,512.6249689983524,4.0,1.0,phase_2,stop,300.0,450.0,3.0,,,,,,,,,white,flipped triangle
0.0,1.0,1.0,0.0,6.0,6.0,579.1848949993437,4.0,1.0,phase_2,go,300.0,400.0,1.0,,,,,,,,,green,circle
0.0,1.0,1.0,0.0,6.0,6.0,524.5490460001747,4.0,1.0,phase_2,go,300.0,400.0,1.0,,,,,,,,,green,circle
0.0,8.0,4.0,1.0,6.0,6.0,434.2741509990446,4.0,1.0,phase_2,stop,300.0,400.0,3.0,,,,,,,,,blue,diamond
0.0,5.0,1.0,1.0,6.0,6.0,586.3830569996935,4.0,1.0,phase_2,go,300.0,350.0,1.0,,,,,,,,,white,flipped triangle
0.0,5.0,1.0,1.0,6.0,6.0,472.4100210005417,4.0,1.0,phase_2,stop,300.0,350.0,3.0,,,,,,,,,white,flipped triangle
0.0,6.0,2.0,1.0,6.0,0.0,0.0,4.0,1.0,phase_2,stop,300.0,300.0,4.0,,,,,,,,,orange,hexagon
0.0,4.0,4.0,0.0,5.0,5.0,655.9238780009764,4.0,1.0,phase_2,go,300.0,350.0,1.0,,,,,,,,,cyan,triangle
0.0,3.0,3.0,0.0,6.0,6.0,431.5039659995818,4.0,1.0,phase_2,go,300.0,350.0,1.0,,,,,,,,,yellow,square
0.0,8.0,4.0,1.0,5.0,5.0,554.6398250007769,4.0,1.0,phase_2,go,300.0,350.0,1.0,,,,,,,,,blue,diamond
0.0,2.0,2.0,0.0,5.0,5.0,556.9055949999893,4.0,1.0,phase_2,go,300.0,350.0,1.0,,,,,,,,,magenta,I
0.0,3.0,3.0,0.0,6.0,6.0,393.1475049994333,4.0,1.0,phase_2,go,300.0,350.0,1.0,,,,,,,,,yellow,square
0.0,6.0,2.0,1.0,5.0,5.0,431.5297480006848,4.0,1.0,phase_2,stop,300.0,350.0,3.0,,,,,,,,,orange,hexagon
0.0,5.0,1.0,1.0,5.0,0.0,0.0,4.0,1.0,phase_2,stop,250.0,350.0,4.0,,,,,,,,,white,flipped triangle
0.0,2.0,2.0,0.0,6.0,6.0,407.7497939997556,4.0,1.0,phase_2,go,300.0,350.0,1.0,,,,,,,,,magenta,I
0.0,8.0,4.0,1.0,6.0,0.0,0.0,4.0,1.0,phase_2,stop,300.0,350.0,4.0,,,,,,,,,blue,diamond
0.0,4.0,4.0,0.0,5.0,5.0,422.3987900004431,4.0,1.0,phase_2,go,300.0,400.0,1.0,,,,,,,,,cyan,triangle
0.0,4.0,4.0,0.0,6.0,6.0,377.1063809999759,4.0,1.0,phase_2,go,300.0,400.0,1.0,,,,,,,,,cyan,triangle
0.0,5.0,1.0,1.0,6.0,6.0,403.0716919987753,4.0,1.0,phase_2,go,300.0,400.0,1.0,,,,,,,,,white,flipped triangle
0.0,7.0,3.0,1.0,6.0,0.0,0.0,4.0,1.0,phase_2,stop,300.0,400.0,4.0,,,,,,,,,gray,cross
0.0,2.0,2.0,0.0,5.0,5.0,600.7639979998203,4.0,1.0,phase_2,go,300.0,450.0,1.0,,,,,,,,,magenta,I
0.0,1.0,1.0,0.0,6.0,6.0,548.5824620009225,4.0,1.0,phase_2,go,300.0,450.0,1.0,,,,,,,,,green,circle
0.0,7.0,3.0,1.0,5.0,0.0,0.0,4.0,1.0,phase_2,stop,300.0,450.0,4.0,,,,,,,,,gray,cross
0.0,8.0,4.0,1.0,6.0,6.0,535.1771030000236,4.0,1.0,phase_2,stop,350.0,450.0,3.0,,,,,,,,,blue,diamond
0.0,4.0,4.0,0.0,6.0,6.0,675.7250460013893,4.0,1.0,phase_2,go,350.0,400.0,1.0,,,,,,,,,cyan,triangle
0.0,6.0,2.0,1.0,6.0,6.0,560.5208960005257,4.0,1.0,phase_2,go,350.0,400.0,1.0,,,,,,,,,orange,hexagon
0.0,2.0,2.0,0.0,6.0,6.0,705.8160180004052,4.0,1.0,phase_2,go,350.0,400.0,1.0,,,,,,,,,magenta,I
0.0,5.0,1.0,1.0,6.0,0.0,0.0,4.0,1.0,phase_2,stop,350.0,400.0,4.0,,,,,,,,,white,flipped triangle
0.0,1.0,1.0,0.0,5.0,5.0,533.0291959999158,4.0,1.0,phase_2,go,350.0,450.0,1.0,,,,,,,,,green,circle
0.0,7.0,3.0,1.0,6.0,6.0,552.8631739998673,4.0,1.0,phase_2,stop,350.0,450.0,3.0,,,,,,,,,gray,cross
0.0,3.0,3.0,0.0,6.0,6.0,637.5888030015631,5.0,1.0,phase_2,go,350.0,400.0,1.0,,,,,,,,,yellow,square
0.0,2.0,2.0,0.0,5.0,5.0,795.6816719997732,5.0,1.0,phase_2,go,350.0,400.0,1.0,,,,,,,,,magenta,I
0.0,8.0,4.0,1.0,5.0,5.0,457.6033650009776,5.0,1.0,phase_2,stop,350.0,400.0,3.0,,,,,,,,,blue,diamond
0.0,4.0,4.0,0.0,6.0,6.0,430.6581629989523,5.0,1.0,phase_2,go,300.0,400.0,1.0,,,,,,,,,cyan,triangle
0.0,8.0,4.0,1.0,5.0,0.0,0.0,5.0,1.0,phase_2,stop,300.0,400.0,4.0,,,,,,,,,blue,diamond
0.0,4.0,4.0,0.0,6.0,6.0,500.4356259996712,5.0,1.0,phase_2,go,350.0,400.0,1.0,,,,,,,,,cyan,triangle
0.0,8.0,4.0,1.0,5.0,0.0,0.0,5.0,1.0,phase_2,stop,350.0,400.0,4.0,,,,,,,,,blue,diamond
0.0,6.0,2.0,1.0,6.0,0.0,0.0,5.0,1.0,phase_2,stop,400.0,400.0,4.0,,,,,,,,,orange,hexagon
0.0,6.0,2.0,1.0,6.0,6.0,767.6115310005116,5.0,1.0,phase_2,go,400.0,450.0,1.0,,,,,,,,,orange,hexagon
0.0,6.0,2.0,1.0,6.0,6.0,580.5737549999321,5.0,1.0,phase_2,stop,400.0,450.0,3.0,,,,,,,,,orange,hexagon
0.0,5.0,1.0,1.0,6.0,0.0,0.0,5.0,1.0,phase_2,stop,400.0,400.0,4.0,,,,,,,,,white,flipped triangle
0.0,4.0,4.0,0.0,6.0,6.0,885.28931700057,5.0,1.0,phase_2,go,400.0,450.0,1.0,,,,,,,,,cyan,triangle
0.0,1.0,1.0,0.0,5.0,5.0,664.768495998942,5.0,1.0,phase_2,go,400.0,450.0,1.0,,,,,,,,,green,circle
0.0,3.0,3.0,0.0,5.0,5.0,704.2542729996057,5.0,1.0,phase_2,go,400.0,450.0,1.0,,,,,,,,,yellow,square
0.0,1.0,1.0,0.0,5.0,5.0,541.2141999986488,5.0,1.0,phase_2,go,400.0,450.0,1.0,,,,,,,,,green,circle
0.0,7.0,3.0,1.0,5.0,5.0,494.5561849999649,5.0,1.0,phase_2,stop,400.0,450.0,3.0,,,,,,,,,gray,cross
0.0,6.0,2.0,1.0,6.0,0.0,0.0,5.0,1.0,phase_2,stop,350.0,450.0,4.0,,,,,,,,,orange,hexagon
0.0,2.0,2.0,0.0,5.0,5.0,673.4606820009503,5.0,1.0,phase_2,go,350.0,500.0,1.0,,,,,,,,,magenta,I
0.0,1.0,1.0,0.0,5.0,5.0,571.7561140008911,5.0,1.0,phase_2,go,350.0,500.0,1.0,,,,,,,,,green,circle
0.0,6.0,2.0,1.0,6.0,6.0,632.4021399996127,5.0,1.0,phase_2,stop,350.0,500.0,3.0,,,,,,,,,orange,hexagon
0.0,1.0,1.0,0.0,6.0,6.0,760.8488169989869,5.0,1.0,phase_2,go,350.0,450.0,1.0,,,,,,,,,green,circle
0.0,3.0,3.0,0.0,6.0,6.0,572.2624499994708,5.0,1.0,phase_2,go,350.0,450.0,1.0,,,,,,,,,yellow,square
0.0,3.0,3.0,0.0,5.0,5.0,687.6496120003139,5.0,1.0,phase_2,go,350.0,450.0,1.0,,,,,,,,,yellow,square
0.0,5.0,1.0,1.0,5.0,0.0,0.0,5.0,1.0,phase_2,stop,350.0,450.0,4.0,,,,,,,,,white,flipped triangle
0.0,1.0,1.0,0.0,5.0,5.0,867.7221319994715,5.0,1.0,phase_2,go,400.0,450.0,1.0,,,,,,,,,green,circle
0.0,5.0,1.0,1.0,6.0,6.0,548.3463830005348,5.0,1.0,phase_2,go,400.0,450.0,1.0,,,,,,,,,white,flipped triangle
0.0,3.0,3.0,0.0,5.0,5.0,508.88609499997983,5.0,1.0,phase_2,go,400.0,450.0,1.0,,,,,,,,,yellow,square
0.0,4.0,4.0,0.0,6.0,6.0,464.779333999104,5.0,1.0,phase_2,go,400.0,450.0,1.0,,,,,,,,,cyan,triangle
0.0,4.0,4.0,0.0,6.0,6.0,515.1259570011462,5.0,1.0,phase_2,go,400.0,450.0,1.0,,,,,,,,,cyan,triangle
0.0,1.0,1.0,0.0,5.0,5.0,386.4989880003122,5.0,1.0,phase_2,go,400.0,450.0,1.0,,,,,,,,,green,circle
0.0,4.0,4.0,0.0,6.0,6.0,555.1622160000989,5.0,1.0,phase_2,go,400.0,450.0,1.0,,,,,,,,,cyan,triangle
0.0,3.0,3.0,0.0,6.0,6.0,460.4524099995615,5.0,1.0,phase_2,go,400.0,450.0,1.0,,,,,,,,,yellow,square
0.0,4.0,4.0,0.0,6.0,6.0,516.3002150002285,5.0,1.0,phase_2,go,400.0,450.0,1.0,,,,,,,,,cyan,triangle
0.0,8.0,4.0,1.0,6.0,6.0,505.08455599992885,5.0,1.0,phase_2,stop,400.0,450.0,3.0,,,,,,,,,blue,diamond
0.0,3.0,3.0,0.0,6.0,6.0,830.149846000495,5.0,1.0,phase_2,go,400.0,400.0,1.0,,,,,,,,,yellow,square
0.0,6.0,2.0,1.0,6.0,6.0,832.5392839997221,5.0,1.0,phase_2,go,400.0,400.0,1.0,,,,,,,,,orange,hexagon
0.0,5.0,1.0,1.0,5.0,5.0,603.1943779998983,6.0,1.0,phase_2,go,400.0,400.0,1.0,,,,,,,,,white,flipped triangle
0.0,1.0,1.0,0.0,5.0,5.0,523.1359070003236,6.0,1.0,phase_2,go,400.0,400.0,1.0,,,,,,,,,green,circle
0.0,7.0,3.0,1.0,6.0,6.0,472.2662009990017,6.0,1.0,phase_2,go,400.0,400.0,1.0,,,,,,,,,gray,cross
0.0,6.0,2.0,1.0,5.0,5.0,296.9867219999287,6.0,1.0,phase_2,stop,400.0,400.0,3.0,,,,,,,,,orange,hexagon
0.0,4.0,4.0,0.0,5.0,5.0,587.0355849983753,6.0,1.0,phase_2,go,350.0,400.0,1.0,,,,,,,,,cyan,triangle
0.0,3.0,3.0,0.0,5.0,5.0,450.9721220001665,6.0,1.0,phase_2,go,350.0,400.0,1.0,,,,,,,,,yellow,square
0.0,3.0,3.0,0.0,6.0,6.0,504.49975399897085,6.0,1.0,phase_2,go,350.0,400.0,1.0,,,,,,,,,yellow,square
0.0,6.0,2.0,1.0,5.0,0.0,0.0,6.0,1.0,phase_2,stop,350.0,400.0,4.0,,,,,,,,,orange,hexagon
0.0,4.0,4.0,0.0,6.0,6.0,637.2956769992015,6.0,1.0,phase_2,go,400.0,400.0,1.0,,,,,,,,,cyan,triangle
0.0,5.0,1.0,1.0,5.0,0.0,0.0,6.0,1.0,phase_2,stop,400.0,400.0,4.0,,,,,,,,,white,flipped triangle
0.0,6.0,2.0,1.0,6.0,0.0,0.0,6.0,1.0,phase_2,stop,450.0,400.0,4.0,,,,,,,,,orange,hexagon
0.0,5.0,1.0,1.0,6.0,6.0,681.4539129991317,6.0,1.0,phase_2,go,450.0,450.0,1.0,,,,,,,,,white,flipped triangle
0.0,1.0,1.0,0.0,5.0,5.0,445.7780239990825,6.0,1.0,phase_2,go,450.0,450.0,1.0,,,,,,,,,green,circle
0.0,3.0,3.0,0.0,6.0,6.0,430.7217830009904,6.0,1.0,phase_2,go,450.0,450.0,1.0,,,,,,,,,yellow,square
0.0,2.0,2.0,0.0,6.0,6.0,578.2888880003156,6.0,1.0,phase_2,go,450.0,450.0,1.0,,,,,,,,,magenta,I
0.0,4.0,4.0,0.0,6.0,6.0,468.343474998619,6.0,1.0,phase_2,go,450.0,450.0,1.0,,,,,,,,,cyan,triangle
0.0,2.0,2.0,0.0,6.0,6.0,476.9097480002529,6.0,1.0,phase_2,go,450.0,450.0,1.0,,,,,,,,,magenta,I
0.0,2.0,2.0,0.0,5.0,5.0,657.8078339989588,6.0,1.0,phase_2,go,450.0,450.0,1.0,,,,,,,,,magenta,I
0.0,5.0,1.0,1.0,6.0,6.0,488.5896099985984,6.0,1.0,phase_2,stop,450.0,450.0,3.0,,,,,,,,,white,flipped triangle
0.0,1.0,1.0,0.0,6.0,6.0,842.7501839996694,6.0,1.0,phase_2,go,450.0,400.0,1.0,,,,,,,,,green,circle
0.0,7.0,3.0,1.0,5.0,0.0,0.0,6.0,1.0,phase_2,stop,450.0,400.0,4.0,,,,,,,,,gray,cross
0.0,5.0,1.0,1.0,5.0,0.0,0.0,6.0,1.0,phase_2,stop,500.0,400.0,4.0,,,,,,,,,white,flipped triangle
0.0,1.0,1.0,0.0,6.0,6.0,602.9386810005235,6.0,1.0,phase_2,go,550.0,400.0,1.0,,,,,,,,,green,circle
0.0,1.0,1.0,0.0,6.0,6.0,622.3000310001225,6.0,1.0,phase_2,go,550.0,400.0,1.0,,,,,,,,,green,circle
0.0,2.0,2.0,0.0,5.0,5.0,520.3031029996055,6.0,1.0,phase_2,go,550.0,400.0,1.0,,,,,,,,,magenta,I
0.0,8.0,4.0,1.0,6.0,6.0,543.2268540007499,6.0,1.0,phase_2,stop,550.0,400.0,3.0,,,,,,,,,blue,diamond
0.0,6.0,2.0,1.0,6.0,0.0,0.0,6.0,1.0,phase_2,stop,550.0,350.0,4.0,,,,,,,,,orange,hexagon
0.0,2.0,2.0,0.0,5.0,5.0,703.0150849986967,6.0,1.0,phase_2,go,550.0,400.0,1.0,,,,,,,,,magenta,I
0.0,1.0,1.0,0.0,6.0,6.0,687.772474000667,6.0,1.0,phase_2,go,550.0,400.0,1.0,,,,,,,,,green,circle
0.0,2.0,2.0,0.0,5.0,5.0,574.8292640000727,6.0,1.0,phase_2,go,550.0,400.0,1.0,,,,,,,,,magenta,I
0.0,5.0,1.0,1.0,5.0,5.0,623.8154600014241,6.0,1.0,phase_2,stop,550.0,400.0,3.0,,,,,,,,,white,flipped triangle
0.0,2.0,2.0,0.0,6.0,6.0,691.9684160002362,6.0,1.0,phase_2,go,500.0,400.0,1.0,,,,,,,,,magenta,I
0.0,7.0,3.0,1.0,5.0,5.0,606.957665999289,6.0,1.0,phase_2,stop,500.0,400.0,3.0,,,,,,,,,gray,cross
0.0,4.0,4.0,0.0,6.0,6.0,755.811122000523,6.0,1.0,phase_2,go,450.0,400.0,1.0,,,,,,,,,cyan,triangle
0.0,1.0,1.0,0.0,6.0,6.0,678.8380920006603,6.0,1.0,phase_2,go,450.0,400.0,1.0,,,,,,,,,green,circle
0.0,1.0,1.0,0.0,6.0,6.0,744.4571089999954,6.0,1.0,phase_2,go,450.0,400.0,1.0,,,,,,,,,green,circle
0.0,2.0,2.0,0.0,6.0,0.0,0.0,7.0,1.0,phase_2,go,450.0,400.0,5.0,,,,,,,,,magenta,I
0.0,3.0,3.0,0.0,6.0,6.0,1234.701675000906,7.0,1.0,phase_2,go,450.0,400.0,1.0,,,,,,,,,yellow,square
0.0,8.0,4.0,1.0,6.0,6.0,494.7364199997537,7.0,1.0,phase_2,stop,450.0,400.0,3.0,,,,,,,,,blue,diamond
0.0,2.0,2.0,0.0,5.0,5.0,511.28691700068885,7.0,1.0,phase_2,go,450.0,350.0,1.0,,,,,,,,,magenta,I
0.0,3.0,3.0,0.0,6.0,6.0,385.657838998668,7.0,1.0,phase_2,go,450.0,350.0,1.0,,,,,,,,,yellow,square
0.0,8.0,4.0,1.0,5.0,5.0,493.1059640002786,7.0,1.0,phase_2,stop,450.0,350.0,3.0,,,,,,,,,blue,diamond
0.0,4.0,4.0,0.0,5.0,5.0,553.5567389997595,7.0,1.0,phase_2,go,400.0,350.0,1.0,,,,,,,,,cyan,triangle
0.0,5.0,1.0,1.0,6.0,6.0,509.46529700013343,7.0,1.0,phase_2,stop,400.0,350.0,3.0,,,,,,,,,white,flipped triangle
0.0,7.0,3.0,1.0,6.0,0.0,0.0,7.0,1.0,phase_2,stop,400.0,300.0,4.0,,,,,,,,,gray,cross
0.0,3.0,3.0,0.0,5.0,5.0,639.2771000009816,7.0,1.0,phase_2,go,400.0,350.0,1.0,,,,,,,,,yellow,square
0.0,8.0,4.0,1.0,6.0,0.0,0.0,7.0,1.0,phase_2,stop,400.0,350.0,4.0,,,,,,,,,blue,diamond
0.0,5.0,1.0,1.0,5.0,5.0,791.7395330005093,7.0,1.0,phase_2,go,400.0,400.0,1.0,,,,,,,,,white,flipped triangle
0.0,1.0,1.0,0.0,5.0,5.0,526.0467940006492,7.0,1.0,phase_2,go,400.0,400.0,1.0,,,,,,,,,green,circle
0.0,1.0,1.0,0.0,6.0,6.0,443.4818480003741,7.0,1.0,phase_2,go,400.0,400.0,1.0,,,,,,,,,green,circle
0.0,6.0,2.0,1.0,5.0,5.0,545.7393380002031,7.0,1.0,phase_2,stop,400.0,400.0,3.0,,,,,,,,,orange,hexagon
0.0,3.0,3.0,0.0,5.0,5.0,735.1622719997977,7.0,1.0,phase_2,go,350.0,400.0,1.0,,,,,,,,,yellow,square
0.0,1.0,1.0,0.0,5.0,5.0,549.5524489997479,7.0,1.0,phase_2,go,350.0,400.0,1.0,,,,,,,,,green,circle
0.0,7.0,3.0,1.0,5.0,0.0,0.0,7.0,1.0,phase_2,stop,350.0,400.0,4.0,,,,,,,,,gray,cross
0.0,6.0,2.0,1.0,5.0,0.0,0.0,7.0,1.0,phase_2,stop,400.0,400.0,4.0,,,,,,,,,orange,hexagon
0.0,5.0,1.0,1.0,6.0,0.0,0.0,7.0,1.0,phase_2,stop,450.0,400.0,4.0,,,,,,,,,white,flipped triangle
0.0,7.0,3.0,1.0,5.0,5.0,556.6410539995559,7.0,1.0,phase_2,go,450.0,450.0,1.0,,,,,,,,,gray,cross
0.0,7.0,3.0,1.0,6.0,6.0,597.0734139991691,7.0,1.0,phase_2,go,450.0,450.0,1.0,,,,,,,,,gray,cross
0.0,8.0,4.0,1.0,6.0,6.0,701.320948999637,7.0,1.0,phase_2,go,450.0,450.0,1.0,,,,,,,,,blue,diamond
0.0,8.0,4.0,1.0,5.0,0.0,0.0,7.0,1.0,phase_2,stop,450.0,450.0,4.0,,,,,,,,,blue,diamond
0.0,5.0,1.0,1.0,6.0,0.0,0.0,7.0,1.0,phase_2,stop,500.0,450.0,4.0,,,,,,,,,white,flipped triangle
0.0,7.0,3.0,1.0,6.0,0.0,0.0,7.0,1.0,phase_2,stop,500.0,500.0,4.0,,,,,,,,,gray,cross
0.0,7.0,3.0,1.0,6.0,6.0,783.5906759992213,7.0,1.0,phase_2,go,500.0,550.0,1.0,,,,,,,,,gray,cross
0.0,8.0,4.0,1.0,6.0,0.0,0.0,7.0,1.0,phase_2,stop,500.0,550.0,4.0,,,,,,,,,blue,diamond
0.0,6.0,2.0,1.0,5.0,5.0,997.6702340009068,7.0,1.0,phase_2,go,500.0,600.0,1.0,,,,,,,,,orange,hexagon
0.0,4.0,4.0,0.0,6.0,6.0,965.5220719996578,7.0,1.0,phase_2,go,500.0,600.0,1.0,,,,,,,,,cyan,triangle
0.0,4.0,4.0,0.0,6.0,6.0,620.3710559984756,7.0,1.0,phase_2,go,500.0,600.0,1.0,,,,,,,,,cyan,triangle
0.0,4.0,4.0,0.0,5.0,5.0,839.342145000046,7.0,1.0,phase_2,go,500.0,600.0,1.0,,,,,,,,,cyan,triangle
0.0,5.0,1.0,1.0,6.0,6.0,632.6722169997083,7.0,1.0,phase_2,stop,500.0,600.0,3.0,,,,,,,,,white,flipped triangle
0.0,3.0,3.0,0.0,5.0,5.0,693.3475100013311,7.0,1.0,phase_2,go,500.0,550.0,1.0,,,,,,,,,yellow,square
0.0,2.0,2.0,0.0,6.0,6.0,426.8240370001877,7.0,1.0,phase_2,go,500.0,550.0,1.0,,,,,,,,,magenta,I
0.0,6.0,2.0,1.0,6.0,6.0,461.5094660002796,7.0,1.0,phase_2,stop,500.0,550.0,3.0,,,,,,,,,orange,hexagon
0.0,2.0,2.0,0.0,5.0,5.0,620.0038030001451,8.0,1.0,phase_2,go,500.0,500.0,1.0,,,,,,,,,magenta,I
0.0,2.0,2.0,0.0,6.0,6.0,474.6057960001053,8.0,1.0,phase_2,go,500.0,500.0,1.0,,,,,,,,,magenta,I
0.0,7.0,3.0,1.0,6.0,6.0,589.9360330004129,8.0,1.0,phase_2,stop,500.0,500.0,3.0,,,,,,,,,gray,cross
0.0,7.0,3.0,1.0,6.0,0.0,0.0,8.0,1.0,phase_2,stop,500.0,450.0,4.0,,,,,,,,,gray,cross
0.0,6.0,2.0,1.0,5.0,5.0,611.6381409992755,8.0,1.0,phase_2,stop,500.0,500.0,3.0,,,,,,,,,orange,hexagon
0.0,7.0,3.0,1.0,5.0,0.0,0.0,8.0,1.0,phase_2,go,450.0,500.0,5.0,,,,,,,,,gray,cross
0.0,2.0,2.0,0.0,5.0,5.0,620.9202089994506,8.0,1.0,phase_2,go,450.0,500.0,1.0,,,,,,,,,magenta,I
0.0,5.0,1.0,1.0,6.0,6.0,477.5960140013922,8.0,1.0,phase_2,stop,450.0,500.0,3.0,,,,,,,,,white,flipped triangle
0.0,4.0,4.0,0.0,5.0,5.0,653.6973080001189,8.0,1.0,phase_2,go,450.0,450.0,1.0,,,,,,,,,cyan,triangle
0.0,3.0,3.0,0.0,5.0,5.0,789.1608580011962,8.0,1.0,phase_2,go,450.0,450.0,1.0,,,,,,,,,yellow,square
0.0,2.0,2.0,0.0,5.0,5.0,533.3371199994872,8.0,1.0,phase_2,go,450.0,450.0,1.0,,,,,,,,,magenta,I
0.0,5.0,1.0,1.0,5.0,0.0,0.0,8.0,1.0,phase_2,stop,450.0,450.0,4.0,,,,,,,,,white,flipped triangle
0.0,2.0,2.0,0.0,6.0,6.0,801.2819739997212,8.0,1.0,phase_2,go,500.0,450.0,1.0,,,,,,,,,magenta,I
0.0,8.0,4.0,1.0,6.0,6.0,499.568883999018,8.0,1.0,phase_2,go,500.0,450.0,1.0,,,,,,,,,blue,diamond
0.0,6.0,2.0,1.0,5.0,0.0,0.0,8.0,1.0,phase_2,stop,500.0,450.0,4.0,,,,,,,,,orange,hexagon
0.0,3.0,3.0,0.0,5.0,5.0,786.508627999865,8.0,1.0,phase_2,go,550.0,450.0,1.0,,,,,,,,,yellow,square
0.0,7.0,3.0,1.0,5.0,5.0,586.9614599996567,8.0,1.0,phase_2,stop,550.0,450.0,3.0,,,,,,,,,gray,cross
0.0,2.0,2.0,0.0,6.0,6.0,579.0764539997326,8.0,1.0,phase_2,go,500.0,450.0,1.0,,,,,,,,,magenta,I
0.0,3.0,3.0,0.0,5.0,5.0,562.3853280012554,8.0,1.0,phase_2,go,500.0,450.0,1.0,,,,,,,,,yellow,square
0.0,5.0,1.0,1.0,5.0,5.0,485.6031149993214,8.0,1.0,phase_2,go,500.0,450.0,1.0,,,,,,,,,white,flipped triangle
0.0,8.0,4.0,1.0,5.0,5.0,477.2162179997394,8.0,1.0,phase_2,stop,500.0,450.0,3.0,,,,,,,,,blue,diamond
0.0,4.0,4.0,0.0,5.0,5.0,666.9374159992003,8.0,1.0,phase_2,go,450.0,450.0,1.0,,,,,,,,,cyan,triangle
0.0,6.0,2.0,1.0,5.0,5.0,506.2733529994148,8.0,1.0,phase_2,stop,450.0,450.0,3.0,,,,,,,,,orange,hexagon
0.0,4.0,4.0,0.0,5.0,5.0,730.2756949993636,8.0,1.0,phase_2,go,400.0,450.0,1.0,,,,,,,,,cyan,triangle
0.0,4.0,4.0,0.0,5.0,5.0,559.7825710010511,8.0,1.0,phase_2,go,400.0,450.0,1.0,,,,,,,,,cyan,triangle
0.0,1.0,1.0,0.0,5.0,5.0,522.2725069997978,8.0,1.0,phase_2,go,400.0,450.0,1.0,,,,,,,,,green,circle
0.0,4.0,4.0,0.0,5.0,5.0,403.5546750001231,8.0,1.0,phase_2,go,400.0,450.0,1.0,,,,,,,,,cyan,triangle
0.0,8.0,4.0,1.0,5.0,5.0,343.4600060008961,8.0,1.0,phase_2,stop,400.0,450.0,3.0,,,,,,,,,blue,diamond
0.0,7.0,3.0,1.0,6.0,6.0,485.2017510002042,8.0,1.0,phase_2,stop,350.0,450.0,3.0,,,,,,,,,gray,cross
0.0,1.0,1.0,0.0,6.0,6.0,637.5142919987411,8.0,1.0,phase_2,go,350.0,400.0,1.0,,,,,,,,,green,circle
0.0,7.0,3.0,1.0,6.0,0.0,0.0,8.0,1.0,phase_2,stop,350.0,400.0,4.0,,,,,,,,,gray,cross
0.0,7.0,3.0,1.0,5.0,0.0,0.0,8.0,1.0,phase_2,stop,350.0,450.0,4.0,,,,,,,,,gray,cross
0.0,1.0,1.0,0.0,6.0,6.0,588.5339460000978,8.0,1.0,phase_2,go,400.0,450.0,1.0,,,,,,,,,green,circle
0.0,6.0,2.0,1.0,6.0,6.0,544.7098629992979,8.0,1.0,phase_2,stop,400.0,450.0,3.0,,,,,,,,,orange,hexagon
0.0,6.0,2.0,1.0,5.0,5.0,705.0649280008656,8.0,1.0,phase_2,go,400.0,400.0,1.0,,,,,,,,,orange,hexagon
0.0,2.0,2.0,0.0,6.0,6.0,621.6662990009354,8.0,1.0,phase_2,go,400.0,400.0,1.0,,,,,,,,,magenta,I
0.0,1.0,1.0,0.0,7.0,3.0,2918.788536000648,1.0,1.0,phase_3,,,,,102.0,3.0,136.0,34.0,102.0,170.0,68.0,204.0,green,circle
0.0,3.0,3.0,0.0,7.0,2.0,2685.647416999928,1.0,1.0,phase_3,,,,,176.0,4.0,88.0,176.0,264.0,44.0,132.0,220.0,yellow,square
0.0,4.0,4.0,0.0,7.0,5.0,2989.962854000624,1.0,1.0,phase_3,,,,,98.0,2.0,294.0,245.0,196.0,147.0,98.0,49.0,cyan,triangle
0.0,4.0,4.0,0.0,7.0,1.0,2486.8769330005307,1.0,1.0,phase_3,,,,,176.0,4.0,176.0,220.0,44.0,88.0,264.0,132.0,cyan,triangle
0.0,8.0,4.0,1.0,7.0,6.0,2083.970431000125,1.0,1.0,phase_3,,,,,117.0,3.0,156.0,78.0,39.0,195.0,234.0,117.0,blue,diamond
0.0,7.0,3.0,1.0,7.0,3.0,1629.3491249998624,1.0,1.0,phase_3,,,,,117.0,3.0,234.0,156.0,117.0,195.0,39.0,78.0,gray,cross
0.0,3.0,3.0,0.0,7.0,3.0,2531.898037999781,1.0,1.0,phase_3,,,,,156.0,4.0,117.0,78.0,156.0,195.0,39.0,234.0,yellow,square
0.0,7.0,3.0,1.0,7.0,1.0,2929.5479339998565,1.0,1.0,phase_3,,,,,136.0,4.0,136.0,102.0,204.0,34.0,68.0,170.0,gray,cross
0.0,7.0,3.0,1.0,7.0,5.0,2037.6381629994285,1.0,1.0,phase_3,,,,,196.0,4.0,245.0,294.0,147.0,49.0,196.0,98.0,gray,cross
0.0,8.0,4.0,1.0,7.0,5.0,2459.0314439992653,1.0,1.0,phase_3,,,,,270.0,5.0,162.0,216.0,108.0,324.0,270.0,54.0,blue,diamond
0.0,4.0,4.0,0.0,7.0,2.0,1608.2076979982958,1.0,1.0,phase_3,,,,,156.0,4.0,117.0,156.0,78.0,195.0,39.0,234.0,cyan,triangle
0.0,7.0,3.0,1.0,7.0,4.0,2175.202452001031,1.0,1.0,phase_3,,,,,78.0,2.0,39.0,195.0,234.0,78.0,117.0,156.0,gray,cross
0.0,8.0,4.0,1.0,7.0,3.0,1869.596766999166,1.0,1.0,phase_3,,,,,147.0,3.0,245.0,196.0,147.0,294.0,49.0,98.0,blue,diamond
0.0,6.0,2.0,1.0,7.0,1.0,2361.706776000574,1.0,1.0,phase_3,,,,,170.0,5.0,170.0,68.0,102.0,136.0,34.0,204.0,orange,hexagon
0.0,5.0,1.0,1.0,7.0,2.0,2696.3184760006698,1.0,1.0,phase_3,,,,,156.0,4.0,195.0,156.0,117.0,39.0,78.0,234.0,white,flipped triangle
0.0,2.0,2.0,0.0,7.0,2.0,2180.244908999157,1.0,1.0,phase_3,,,,,132.0,3.0,88.0,132.0,44.0,176.0,264.0,220.0,magenta,I
0.0,3.0,3.0,0.0,7.0,4.0,2034.7941720010567,1.0,1.0,phase_3,,,,,147.0,3.0,196.0,98.0,294.0,147.0,245.0,49.0,yellow,square
0.0,8.0,4.0,1.0,7.0,2.0,1875.7292610007423,1.0,1.0,phase_3,,,,,132.0,3.0,44.0,132.0,88.0,264.0,220.0,176.0,blue,diamond
0.0,3.0,3.0,0.0,7.0,1.0,1668.7782570006675,1.0,1.0,phase_3,,,,,44.0,1.0,44.0,220.0,132.0,264.0,176.0,88.0,yellow,square
0.0,6.0,2.0,1.0,7.0,5.0,2173.3278899992,1.0,1.0,phase_3,,,,,88.0,2.0,176.0,220.0,132.0,264.0,88.0,44.0,orange,hexagon
0.0,6.0,2.0,1.0,7.0,1.0,2508.864456000083,2.0,1.0,phase_3,,,,,102.0,3.0,102.0,204.0,136.0,34.0,170.0,68.0,orange,hexagon
0.0,2.0,2.0,0.0,7.0,5.0,1528.9508279984148,2.0,1.0,phase_3,,,,,147.0,3.0,196.0,294.0,98.0,245.0,147.0,49.0,magenta,I
0.0,5.0,1.0,1.0,7.0,2.0,1823.4800240006732,2.0,1.0,phase_3,,,,,195.0,5.0,156.0,195.0,78.0,234.0,39.0,117.0,white,flipped triangle
0.0,5.0,1.0,1.0,7.0,5.0,1576.704131999577,2.0,1.0,phase_3,,,,,147.0,3.0,196.0,294.0,98.0,49.0,147.0,245.0,white,flipped triangle
0.0,2.0,2.0,0.0,7.0,1.0,1805.230173000382,2.0,1.0,phase_3,,,,,132.0,3.0,132.0,88.0,264.0,176.0,44.0,220.0,magenta,I
0.0,3.0,3.0,0.0,7.0,6.0,1461.3856680007302,2.0,1.0,phase_3,,,,,147.0,3.0,98.0,245.0,49.0,196.0,294.0,147.0,yellow,square
0.0,1.0,1.0,0.0,7.0,2.0,1579.0585699996882,2.0,1.0,phase_3,,,,,54.0,1.0,270.0,54.0,162.0,324.0,108.0,216.0,green,circle
0.0,4.0,4.0,0.0,7.0,2.0,1243.7044660000538,2.0,1.0,phase_3,,,,,117.0,3.0,234.0,117.0,39.0,195.0,78.0,156.0,cyan,triangle
0.0,2.0,2.0,0.0,7.0,1.0,1480.0708920010948,2.0,1.0,phase_3,,,,,78.0,2.0,78.0,117.0,156.0,39.0,195.0,234.0,magenta,I
0.0,1.0,1.0,0.0,7.0,3.0,1526.687037998272,2.0,1.0,phase_3,,,,,102.0,3.0,170.0,68.0,102.0,34.0,204.0,136.0,green,circle
0.0,6.0,2.0,1.0,7.0,4.0,1644.9541479996697,2.0,1.0,phase_3,,,,,147.0,3.0,98.0,245.0,49.0,147.0,196.0,294.0,orange,hexagon
0.0,3.0,3.0,0.0,7.0,5.0,1049.8407619998034,2.0,1.0,phase_3,,,,,156.0,4.0,39.0,78.0,117.0,234.0,156.0,195.0,yellow,square
0.0,1.0,1.0,0.0,7.0,3.0,1379.8668540002836,2.0,1.0,phase_3,,,,,176.0,4.0,264.0,88.0,176.0,132.0,220.0,44.0,green,circle
0.0,7.0,3.0,1.0,7.0,3.0,1313.3032850000743,2.0,1.0,phase_3,,,,,98.0,2.0,196.0,245.0,98.0,147.0,49.0,294.0,gray,cross
0.0,5.0,1.0,1.0,7.0,4.0,1697.845591999794,2.0,1.0,phase_3,,,,,34.0,1.0,68.0,204.0,136.0,34.0,170.0,102.0,white,flipped triangle
0.0,4.0,4.0,0.0,7.0,5.0,1224.1809779989126,2.0,1.0,phase_3,,,,,108.0,2.0,216.0,324.0,162.0,270.0,108.0,54.0,cyan,triangle
0.0,3.0,3.0,0.0,7.0,2.0,1275.634452000304,2.0,1.0,phase_3,,,,,270.0,5.0,162.0,270.0,54.0,324.0,216.0,108.0,yellow,square
0.0,2.0,2.0,0.0,7.0,3.0,1502.6110759990845,2.0,1.0,phase_3,,,,,170.0,5.0,136.0,102.0,170.0,34.0,204.0,68.0,magenta,I
0.0,1.0,1.0,0.0,7.0,1.0,1601.2587469995196,2.0,1.0,phase_3,,,,,132.0,3.0,132.0,44.0,220.0,88.0,264.0,176.0,green,circle
0.0,8.0,4.0,1.0,7.0,6.0,946.706701999574,2.0,1.0,phase_3,,,,,136.0,4.0,170.0,68.0,34.0,204.0,102.0,136.0,blue,diamond
0.0,8.0,4.0,1.0,7.0,6.0,900.3244069990615,3.0,1.0,phase_3,,,,,78.0,2.0,195.0,39.0,234.0,156.0,117.0,78.0,blue,diamond
0.0,2.0,2.0,0.0,7.0,5.0,1235.6282260006992,3.0,1.0,phase_3,,,,,34.0,1.0,68.0,136.0,170.0,204.0,34.0,102.0,magenta,I
0.0,3.0,3.0,0.0,7.0,4.0,1017.0109440005035,3.0,1.0,phase_3,,,,,170.0,5.0,204.0,102.0,34.0,170.0,136.0,68.0,yellow,square
0.0,8.0,4.0,1.0,7.0,1.0,1692.315057000087,3.0,1.0,phase_3,,,,,204.0,6.0,204.0,68.0,102.0,136.0,34.0,170.0,blue,diamond
0.0,2.0,2.0,0.0,7.0,2.0,1471.1850349995077,3.0,1.0,phase_3,,,,,294.0,6.0,49.0,294.0,196.0,245.0,147.0,98.0,magenta,I
0.0,4.0,4.0,0.0,7.0,5.0,1128.7778499990964,3.0,1.0,phase_3,,,,,204.0,6.0,170.0,34.0,136.0,102.0,204.0,68.0,cyan,triangle
0.0,6.0,2.0,1.0,7.0,2.0,1858.93300799944,3.0,1.0,phase_3,,,,,88.0,2.0,264.0,88.0,220.0,44.0,176.0,132.0,orange,hexagon
0.0,7.0,3.0,1.0,7.0,5.0,1083.6112670003786,3.0,1.0,phase_3,,,,,108.0,2.0,54.0,162.0,324.0,216.0,108.0,270.0,gray,cross
0.0,6.0,2.0,1.0,7.0,2.0,1216.8774060010037,3.0,1.0,phase_3,,,,,117.0,3.0,39.0,117.0,195.0,78.0,234.0,156.0,orange,hexagon
0.0,5.0,1.0,1.0,7.0,2.0,1264.1262139986793,3.0,1.0,phase_3,,,,,49.0,1.0,98.0,49.0,245.0,294.0,196.0,147.0,white,flipped triangle
0.0,4.0,4.0,0.0,7.0,6.0,1368.9396759982628,3.0,1.0,phase_3,,,,,176.0,4.0,88.0,220.0,264.0,44.0,132.0,176.0,cyan,triangle
0.0,1.0,1.0,0.0,7.0,1.0,1194.6919319998417,3.0,1.0,phase_3,,,,,108.0,2.0,108.0,270.0,216.0,162.0,324.0,54.0,green,circle
0.0,6.0,2.0,1.0,7.0,2.0,1074.2018319997442,3.0,1.0,phase_3,,,,,216.0,4.0,324.0,216.0,108.0,54.0,270.0,162.0,orange,hexagon
0.0,4.0,4.0,0.0,7.0,3.0,1102.8707589994156,3.0,1.0,phase_3,,,,,170.0,5.0,102.0,34.0,170.0,136.0,204.0,68.0,cyan,triangle
0.0,7.0,3.0,1.0,7.0,4.0,1156.3856430002488,3.0,1.0,phase_3,,,,,108.0,2.0,324.0,162.0,54.0,108.0,216.0,270.0,gray,cross
0.0,5.0,1.0,1.0,7.0,3.0,1677.6452970007083,3.0,1.0,phase_3,,,,,176.0,4.0,88.0,44.0,176.0,220.0,264.0,132.0,white,flipped triangle
0.0,8.0,4.0,1.0,7.0,4.0,1183.973409999453,3.0,1.0,phase_3,,,,,147.0,3.0,245.0,196.0,98.0,147.0,294.0,49.0,blue,diamond
0.0,2.0,2.0,0.0,7.0,4.0,1428.8975079998636,3.0,1.0,phase_3,,,,,162.0,3.0,324.0,108.0,54.0,162.0,270.0,216.0,magenta,I
0.0,6.0,2.0,1.0,7.0,3.0,1184.0913359992555,3.0,1.0,phase_3,,,,,117.0,3.0,39.0,78.0,117.0,156.0,195.0,234.0,orange,hexagon
0.0,1.0,1.0,0.0,7.0,5.0,790.5746469987207,3.0,1.0,phase_3,,,,,156.0,4.0,234.0,195.0,39.0,117.0,156.0,78.0,green,circle
0.0,6.0,2.0,1.0,7.0,3.0,1481.5576170003624,4.0,1.0,phase_3,,,,,245.0,5.0,294.0,98.0,245.0,49.0,196.0,147.0,orange,hexagon
0.0,5.0,1.0,1.0,7.0,6.0,1076.0367860002589,4.0,1.0,phase_3,,,,,162.0,3.0,54.0,216.0,108.0,324.0,270.0,162.0,white,flipped triangle
0.0,4.0,4.0,0.0,7.0,2.0,2196.8051549993106,4.0,1.0,phase_3,,,,,216.0,4.0,324.0,216.0,162.0,108.0,54.0,270.0,cyan,triangle
0.0,8.0,4.0,1.0,7.0,3.0,1765.952471001583,4.0,1.0,phase_3,,,,,162.0,3.0,270.0,216.0,162.0,54.0,324.0,108.0,blue,diamond
0.0,7.0,3.0,1.0,7.0,1.0,1356.7093490000843,4.0,1.0,phase_3,,,,,132.0,3.0,132.0,44.0,264.0,176.0,220.0,88.0,gray,cross
0.0,3.0,3.0,0.0,7.0,4.0,1458.5462390004975,4.0,1.0,phase_3,,,,,170.0,5.0,34.0,102.0,68.0,170.0,136.0,204.0,yellow,square
0.0,5.0,1.0,1.0,7.0,5.0,1841.5482960008376,4.0,1.0,phase_3,,,,,136.0,4.0,102.0,204.0,170.0,34.0,136.0,68.0,white,flipped triangle
0.0,1.0,1.0,0.0,7.0,6.0,986.4677269997628,4.0,1.0,phase_3,,,,,234.0,6.0,78.0,117.0,156.0,195.0,39.0,234.0,green,circle
0.0,4.0,4.0,0.0,7.0,4.0,1637.863843001469,4.0,1.0,phase_3,,,,,147.0,3.0,245.0,49.0,196.0,147.0,294.0,98.0,cyan,triangle
0.0,2.0,2.0,0.0,7.0,5.0,1038.895951000086,4.0,1.0,phase_3,,,,,108.0,2.0,324.0,270.0,54.0,162.0,108.0,216.0,magenta,I
0.0,3.0,3.0,0.0,7.0,1.0,1279.722323999522,4.0,1.0,phase_3,,,,,108.0,2.0,108.0,216.0,54.0,162.0,324.0,270.0,yellow,square
0.0,5.0,1.0,1.0,7.0,2.0,1511.0154819994932,4.0,1.0,phase_3,,,,,162.0,3.0,54.0,162.0,108.0,216.0,324.0,270.0,white,flipped triangle
0.0,7.0,3.0,1.0,7.0,6.0,1043.7684650023584,4.0,1.0,phase_3,,,,,136.0,4.0,68.0,102.0,170.0,204.0,34.0,136.0,gray,cross
0.0,7.0,3.0,1.0,7.0,6.0,1401.4560359973984,4.0,1.0,phase_3,,,,,132.0,3.0,220.0,88.0,44.0,264.0,176.0,132.0,gray,cross
0.0,1.0,1.0,0.0,7.0,5.0,1055.0336990017968,4.0,1.0,phase_3,,,,,147.0,3.0,245.0,196.0,98.0,49.0,147.0,294.0,green,circle
0.0,6.0,2.0,1.0,7.0,2.0,1769.508081000822,4.0,1.0,phase_3,,,,,162.0,3.0,324.0,162.0,270.0,108.0,216.0,54.0,orange,hexagon
0.0,1.0,1.0,0.0,7.0,4.0,1204.7430349994102,4.0,1.0,phase_3,,,,,49.0,1.0,245.0,147.0,196.0,49.0,294.0,98.0,green,circle
0.0,5.0,1.0,1.0,7.0,6.0,1117.7901480004948,4.0,1.0,phase_3,,,,,44.0,1.0,264.0,88.0,220.0,176.0,132.0,44.0,white,flipped triangle
0.0,8.0,4.0,1.0,7.0,5.0,1370.0634369997715,4.0,1.0,phase_3,,,,,88.0,2.0,220.0,176.0,132.0,44.0,88.0,264.0,blue,diamond
0.0,2.0,2.0,0.0,7.0,3.0,1514.1580939998676,4.0,1.0,phase_3,,,,,117.0,3.0,195.0,39.0,117.0,78.0,234.0,156.0,magenta,I
