raw_reward_magnitude,stim_reward,stepwise_reward_magnitude,paired_with_stopping,stim_location,response,reaction_time,block,num_trial_presentations,which_phase,stop_signal_trial_type,left_SSD,right_SSD,accuracy,chosen_bidding_amount,chosen_bidding_level,possible_bid_1,possible_bid_2,possible_bid_3,possible_bid_4,possible_bid_5,possible_bid_6,color_text,shape_text
70.0,5.0,1.0,1.0,4.0,4.0,547.8370849996281,1.0,1.0,phase_1,,,,,,,,,,,,,orange,triangle
70.0,1.0,1.0,0.0,3.0,3.0,391.4648109966947,1.0,1.0,phase_1,,,,,,,,,,,,,white,flipped triangle
0.0,6.0,0.0,1.0,3.0,3.0,450.7600600009027,1.0,1.0,phase_1,,,,,,,,,,,,,cyan,diamond
110.0,2.0,2.0,0.0,2.0,2.0,425.0068370020017,1.0,1.0,phase_1,,,,,,,,,,,,,blue,square
0.0,5.0,0.0,1.0,1.0,1.0,280.5158299997856,1.0,1.0,phase_1,,,,,,,,,,,,,orange,triangle
405.0,8.0,4.0,1.0,2.0,2.0,336.8129779992159,1.0,1.0,phase_1,,,,,,,,,,,,,green,cross
91.0,6.0,2.0,1.0,4.0,4.0,276.70465600022,1.0,1.0,phase_1,,,,,,,,,,,,,cyan,diamond
86.0,6.0,2.0,1.0,4.0,4.0,600.1705339986074,1.0,1.0,phase_1,,,,,,,,,,,,,cyan,diamond
92.0,2.0,2.0,0.0,2.0,2.0,276.6360109999368,1.0,1.0,phase_1,,,,,,,,,,,,,blue,square
182.0,7.0,3.0,1.0,1.0,1.0,480.921213998954,1.0,1.0,phase_1,,,,,,,,,,,,,gray,hexagon
112.0,6.0,2.0,1.0,3.0,3.0,310.3688310002326,1.0,1.0,phase_1,,,,,,,,,,,,,cyan,diamond
119.0,2.0,2.0,0.0,3.0,3.0,464.7737199993571,1.0,1.0,phase_1,,,,,,,,,,,,,blue,square
199.0,3.0,3.0,0.0,4.0,4.0,386.4938669976254,1.0,1.0,phase_1,,,,,,,,,,,,,yellow,circle
211.0,3.0,3.0,0.0,1.0,1.0,388.0358370006433,1.0,1.0,phase_1,,,,,,,,,,,,,yellow,circle
64.0,1.0,1.0,0.0,1.0,1.0,490.6032039980346,1.0,1.0,phase_1,,,,,,,,,,,,,white,flipped triangle
98.0,2.0,2.0,0.0,4.0,4.0,321.5876280009979,1.0,1.0,phase_1,,,,,,,,,,,,,blue,square
44.0,1.0,1.0,0.0,4.0,4.0,310.7028089980304,1.0,1.0,phase_1,,,,,,,,,,,,,white,flipped triangle
178.0,7.0,3.0,1.0,3.0,3.0,284.8478810010419,1.0,1.0,phase_1,,,,,,,,,,,,,gray,hexagon
65.0,1.0,1.0,0.0,4.0,4.0,371.5048329977435,1.0,1.0,phase_1,,,,,,,,,,,,,white,flipped triangle
0.0,5.0,0.0,1.0,4.0,4.0,307.343264001247,1.0,1.0,phase_1,,,,,,,,,,,,,orange,triangle
35.0,5.0,1.0,1.0,1.0,1.0,493.5209010000108,1.0,1.0,phase_1,,,,,,,,,,,,,orange,triangle
403.0,4.0,4.0,0.0,4.0,4.0,400.7174090002081,1.0,1.0,phase_1,,,,,,,,,,,,,magenta,I
0.0,8.0,0.0,1.0,2.0,2.0,271.7063529998995,1.0,1.0,phase_1,,,,,,,,,,,,,green,cross
0.0,1.0,0.0,0.0,2.0,2.0,306.8692280030518,1.0,1.0,phase_1,,,,,,,,,,,,,white,flipped triangle
382.0,8.0,4.0,1.0,4.0,4.0,256.969548001507,1.0,1.0,phase_1,,,,,,,,,,,,,green,cross
108.0,2.0,2.0,0.0,1.0,1.0,352.1560270019108,1.0,1.0,phase_1,,,,,,,,,,,,,blue,square
178.0,3.0,3.0,0.0,3.0,3.0,275.4809059988474,1.0,1.0,phase_1,,,,,,,,,,,,,yellow,circle
124.0,2.0,2.0,0.0,1.0,1.0,384.1408290027175,1.0,1.0,phase_1,,,,,,,,,,,,,blue,square
404.0,4.0,4.0,0.0,3.0,3.0,584.126230001857,1.0,1.0,phase_1,,,,,,,,,,,,,magenta,I
421.0,4.0,4.0,0.0,2.0,2.0,274.3281410002964,1.0,1.0,phase_1,,,,,,,,,,,,,magenta,I
49.0,1.0,1.0,0.0,4.0,4.0,310.5164680018788,1.0,1.0,phase_1,,,,,,,,,,,,,white,flipped triangle
390.0,8.0,4.0,1.0,3.0,3.0,414.7398360000807,1.0,1.0,phase_1,,,,,,,,,,,,,green,cross
404.0,4.0,4.0,0.0,3.0,3.0,346.0603969979274,1.0,1.0,phase_1,,,,,,,,,,,,,magenta,I
421.0,8.0,4.0,1.0,4.0,4.0,427.8314389994193,1.0,1.0,phase_1,,,,,,,,,,,,,green,cross
98.0,6.0,2.0,1.0,2.0,2.0,315.5759490000491,1.0,1.0,phase_1,,,,,,,,,,,,,cyan,diamond
77.0,2.0,2.0,0.0,1.0,1.0,304.0321769985894,1.0,1.0,phase_1,,,,,,,,,,,,,blue,square
407.0,8.0,4.0,1.0,3.0,3.0,329.7612020032829,1.0,1.0,phase_1,,,,,,,,,,,,,green,cross
209.0,3.0,3.0,0.0,4.0,4.0,268.4560950001469,1.0,1.0,phase_1,,,,,,,,,,,,,yellow,circle
207.0,7.0,3.0,1.0,3.0,3.0,405.1342289967579,1.0,1.0,phase_1,,,,,,,,,,,,,gray,hexagon
405.0,8.0,4.0,1.0,3.0,3.0,318.9912689995253,1.0,1.0,phase_1,,,,,,,,,,,,,green,cross
124.0,6.0,2.0,1.0,3.0,3.0,302.1358229998441,1.0,1.0,phase_1,,,,,,,,,,,,,cyan,diamond
109.0,2.0,2.0,0.0,1.0,1.0,412.7438810028252,1.0,1.0,phase_1,,,,,,,,,,,,,blue,square
54.0,5.0,1.0,1.0,4.0,4.0,294.6771560018533,1.0,1.0,phase_1,,,,,,,,,,,,,orange,triangle
414.0,4.0,4.0,0.0,2.0,2.0,241.6124429983028,1.0,1.0,phase_1,,,,,,,,,,,,,magenta,I
0.0,1.0,0.0,0.0,1.0,1.0,386.3145729992538,1.0,1.0,phase_1,,,,,,,,,,,,,white,flipped triangle
0.0,5.0,0.0,1.0,2.0,2.0,427.6478169995243,1.0,1.0,phase_1,,,,,,,,,,,,,orange,triangle
213.0,7.0,3.0,1.0,4.0,4.0,287.1942060010042,1.0,1.0,phase_1,,,,,,,,,,,,,gray,hexagon
220.0,7.0,3.0,1.0,2.0,2.0,360.6699949996255,1.0,1.0,phase_1,,,,,,,,,,,,,gray,hexagon
220.0,7.0,3.0,1.0,1.0,1.0,356.8379380012629,1.0,1.0,phase_1,,,,,,,,,,,,,gray,hexagon
0.0,2.0,0.0,0.0,2.0,2.0,299.5375460013747,1.0,1.0,phase_1,,,,,,,,,,,,,blue,square
185.0,3.0,3.0,0.0,4.0,4.0,398.7893199991958,1.0,1.0,phase_1,,,,,,,,,,,,,yellow,circle
208.0,7.0,3.0,1.0,3.0,3.0,264.4736170004762,1.0,1.0,phase_1,,,,,,,,,,,,,gray,hexagon
180.0,3.0,3.0,0.0,4.0,4.0,379.2219899987685,1.0,1.0,phase_1,,,,,,,,,,,,,yellow,circle
407.0,8.0,4.0,1.0,3.0,3.0,370.5388089983898,1.0,1.0,phase_1,,,,,,,,,,,,,green,cross
209.0,7.0,3.0,1.0,1.0,1.0,280.5529459983518,1.0,1.0,phase_1,,,,,,,,,,,,,gray,hexagon
210.0,7.0,3.0,1.0,1.0,1.0,377.5546450015099,1.0,1.0,phase_1,,,,,,,,,,,,,gray,hexagon
0.0,8.0,0.0,1.0,2.0,2.0,244.4380380002258,1.0,1.0,phase_1,,,,,,,,,,,,,green,cross
213.0,3.0,3.0,0.0,4.0,4.0,290.898315000959,1.0,1.0,phase_1,,,,,,,,,,,,,yellow,circle
123.0,2.0,2.0,0.0,3.0,3.0,305.1183150018914,1.0,1.0,phase_1,,,,,,,,,,,,,blue,square
180.0,3.0,3.0,0.0,4.0,4.0,352.637831998436,1.0,1.0,phase_1,,,,,,,,,,,,,yellow,circle
199.0,7.0,3.0,1.0,3.0,3.0,335.9337660003803,1.0,1.0,phase_1,,,,,,,,,,,,,gray,hexagon
404.0,8.0,4.0,1.0,4.0,4.0,303.3302260009805,1.0,1.0,phase_1,,,,,,,,,,,,,green,cross
0.0,4.0,0.0,0.0,1.0,1.0,449.2095669993432,1.0,1.0,phase_1,,,,,,,,,,,,,magenta,I
0.0,8.0,0.0,1.0,1.0,1.0,439.3151859985664,1.0,1.0,phase_1,,,,,,,,,,,,,green,cross
88.0,2.0,2.0,0.0,3.0,3.0,352.9643139991094,1.0,1.0,phase_1,,,,,,,,,,,,,blue,square
203.0,3.0,3.0,0.0,1.0,1.0,344.289030002983,1.0,1.0,phase_1,,,,,,,,,,,,,yellow,circle
96.0,2.0,2.0,0.0,2.0,2.0,267.2016190008435,1.0,1.0,phase_1,,,,,,,,,,,,,blue,square
64.0,5.0,1.0,1.0,3.0,3.0,276.8830039967724,1.0,1.0,phase_1,,,,,,,,,,,,,orange,triangle
220.0,3.0,3.0,0.0,3.0,3.0,495.7612129983317,1.0,1.0,phase_1,,,,,,,,,,,,,yellow,circle
0.0,6.0,0.0,1.0,2.0,2.0,336.7294179988676,1.0,1.0,phase_1,,,,,,,,,,,,,cyan,diamond
77.0,6.0,2.0,1.0,2.0,2.0,334.8330310000165,1.0,1.0,phase_1,,,,,,,,,,,,,cyan,diamond
42.0,1.0,1.0,0.0,3.0,3.0,301.3489559998561,1.0,1.0,phase_1,,,,,,,,,,,,,white,flipped triangle
69.0,1.0,1.0,0.0,4.0,4.0,331.1867029988207,1.0,1.0,phase_1,,,,,,,,,,,,,white,flipped triangle
0.0,1.0,0.0,0.0,4.0,4.0,381.5170669986401,1.0,1.0,phase_1,,,,,,,,,,,,,white,flipped triangle
414.0,8.0,4.0,1.0,3.0,3.0,284.2657680012053,1.0,1.0,phase_1,,,,,,,,,,,,,green,cross
29.0,1.0,1.0,0.0,4.0,4.0,305.0568029975693,1.0,1.0,phase_1,,,,,,,,,,,,,white,flipped triangle
386.0,4.0,4.0,0.0,4.0,4.0,345.9945530012192,1.0,1.0,phase_1,,,,,,,,,,,,,magenta,I
418.0,4.0,4.0,0.0,2.0,2.0,319.6250010005315,1.0,1.0,phase_1,,,,,,,,,,,,,magenta,I
406.0,4.0,4.0,0.0,3.0,3.0,308.8407469986123,1.0,1.0,phase_1,,,,,,,,,,,,,magenta,I
0.0,7.0,0.0,1.0,3.0,3.0,311.044361002132,1.0,1.0,phase_1,,,,,,,,,,,,,gray,hexagon
55.0,1.0,1.0,0.0,2.0,2.0,320.1477489965327,1.0,1.0,phase_1,,,,,,,,,,,,,white,flipped triangle
44.0,1.0,1.0,0.0,1.0,1.0,363.607717998093,1.0,1.0,phase_1,,,,,,,,,,,,,white,flipped triangle
211.0,7.0,3.0,1.0,1.0,1.0,436.4179599979252,1.0,1.0,phase_1,,,,,,,,,,,,,gray,hexagon
83.0,2.0,2.0,0.0,4.0,4.0,333.9952030000859,1.0,1.0,phase_1,,,,,,,,,,,,,blue,square
0.0,2.0,0.0,0.0,2.0,2.0,252.70916199951898,1.0,1.0,phase_1,,,,,,,,,,,,,blue,square
28.0,1.0,1.0,0.0,1.0,1.0,393.5008070002368,1.0,1.0,phase_1,,,,,,,,,,,,,white,flipped triangle
405.0,4.0,4.0,0.0,1.0,1.0,386.9592390001344,1.0,1.0,phase_1,,,,,,,,,,,,,magenta,I
0.0,3.0,0.0,0.0,3.0,3.0,445.5015570019895,1.0,1.0,phase_1,,,,,,,,,,,,,yellow,circle
0.0,5.0,0.0,1.0,4.0,4.0,330.4032989981351,1.0,1.0,phase_1,,,,,,,,,,,,,orange,triangle
101.0,6.0,2.0,1.0,2.0,2.0,273.5240960028022,1.0,1.0,phase_1,,,,,,,,,,,,,cyan,diamond
0.0,3.0,0.0,0.0,4.0,4.0,342.9250230001344,1.0,1.0,phase_1,,,,,,,,,,,,,yellow,circle
66.0,5.0,1.0,1.0,4.0,4.0,293.1396839994704,1.0,1.0,phase_1,,,,,,,,,,,,,orange,triangle
0.0,4.0,0.0,0.0,1.0,1.0,333.6924970026302,1.0,1.0,phase_1,,,,,,,,,,,,,magenta,I
0.0,7.0,0.0,1.0,2.0,2.0,384.7653470002115,1.0,2.0,phase_1,,,,,,,,,,,,,gray,hexagon
73.0,1.0,1.0,0.0,3.0,3.0,365.2339719992596,1.0,1.0,phase_1,,,,,,,,,,,,,white,flipped triangle
56.0,1.0,1.0,0.0,1.0,1.0,271.1921570007689,1.0,1.0,phase_1,,,,,,,,,,,,,white,flipped triangle
0.0,1.0,0.0,0.0,3.0,3.0,563.5679709994292,1.0,1.0,phase_1,,,,,,,,,,,,,white,flipped triangle
34.0,1.0,1.0,0.0,3.0,3.0,451.4560319985321,1.0,2.0,phase_1,,,,,,,,,,,,,white,flipped triangle
0.0,1.0,0.0,0.0,4.0,4.0,363.8763929993729,1.0,1.0,phase_1,,,,,,,,,,,,,white,flipped triangle
389.0,8.0,4.0,1.0,2.0,2.0,368.6250630016729,1.0,1.0,phase_1,,,,,,,,,,,,,green,cross
86.0,2.0,2.0,0.0,4.0,4.0,409.1309769974032,2.0,1.0,phase_1,,,,,,,,,,,,,blue,square
55.0,5.0,1.0,1.0,4.0,4.0,422.7270539995515,2.0,1.0,phase_1,,,,,,,,,,,,,orange,triangle
194.0,3.0,3.0,0.0,1.0,1.0,440.0466819970461,2.0,1.0,phase_1,,,,,,,,,,,,,yellow,circle
175.0,3.0,3.0,0.0,1.0,1.0,462.640145997284,2.0,1.0,phase_1,,,,,,,,,,,,,yellow,circle
29.0,5.0,1.0,1.0,2.0,2.0,346.2633679991995,2.0,1.0,phase_1,,,,,,,,,,,,,orange,triangle
194.0,7.0,3.0,1.0,2.0,2.0,323.3557040002779,2.0,1.0,phase_1,,,,,,,,,,,,,gray,hexagon
57.0,1.0,1.0,0.0,2.0,2.0,321.5784549975069,2.0,1.0,phase_1,,,,,,,,,,,,,white,flipped triangle
0.0,2.0,0.0,0.0,1.0,1.0,336.8055449973326,2.0,1.0,phase_1,,,,,,,,,,,,,blue,square
45.0,5.0,1.0,1.0,1.0,1.0,378.8592409982811,2.0,1.0,phase_1,,,,,,,,,,,,,orange,triangle
411.0,4.0,4.0,0.0,4.0,4.0,326.8242019985337,2.0,1.0,phase_1,,,,,,,,,,,,,magenta,I
89.0,6.0,2.0,1.0,2.0,2.0,319.2018200024904,2.0,1.0,phase_1,,,,,,,,,,,,,cyan,diamond
119.0,2.0,2.0,0.0,2.0,2.0,306.8355450013769,2.0,1.0,phase_1,,,,,,,,,,,,,blue,square
407.0,4.0,4.0,0.0,1.0,1.0,384.8835610006063,2.0,1.0,phase_1,,,,,,,,,,,,,magenta,I
68.0,1.0,1.0,0.0,4.0,4.0,288.7409620016115,2.0,1.0,phase_1,,,,,,,,,,,,,white,flipped triangle
103.0,2.0,2.0,0.0,1.0,1.0,375.1978959990083,2.0,1.0,phase_1,,,,,,,,,,,,,blue,square
185.0,7.0,3.0,1.0,1.0,1.0,294.1974319983274,2.0,1.0,phase_1,,,,,,,,,,,,,gray,hexagon
178.0,3.0,3.0,0.0,3.0,3.0,364.7606390004512,2.0,1.0,phase_1,,,,,,,,,,,,,yellow,circle
0.0,6.0,0.0,1.0,3.0,3.0,284.4175749996793,2.0,1.0,phase_1,,,,,,,,,,,,,cyan,diamond
386.0,8.0,4.0,1.0,1.0,1.0,469.2458169993188,2.0,1.0,phase_1,,,,,,,,,,,,,green,cross
41.0,1.0,1.0,0.0,3.0,3.0,348.2270679996873,2.0,1.0,phase_1,,,,,,,,,,,,,white,flipped triangle
99.0,6.0,2.0,1.0,3.0,3.0,349.4143380012247,2.0,1.0,phase_1,,,,,,,,,,,,,cyan,diamond
103.0,6.0,2.0,1.0,4.0,4.0,356.2396220004302,2.0,1.0,phase_1,,,,,,,,,,,,,cyan,diamond
93.0,2.0,2.0,0.0,2.0,2.0,373.9237650006544,2.0,1.0,phase_1,,,,,,,,,,,,,blue,square
122.0,6.0,2.0,1.0,4.0,4.0,340.5415269990044,2.0,1.0,phase_1,,,,,,,,,,,,,cyan,diamond
207.0,3.0,3.0,0.0,3.0,3.0,318.7744800015935,2.0,1.0,phase_1,,,,,,,,,,,,,yellow,circle
0.0,4.0,0.0,0.0,2.0,2.0,401.7953849979676,2.0,1.0,phase_1,,,,,,,,,,,,,magenta,I
0.0,2.0,0.0,0.0,1.0,1.0,317.007272002229,2.0,1.0,phase_1,,,,,,,,,,,,,blue,square
64.0,5.0,1.0,1.0,4.0,4.0,303.5331009996298,2.0,1.0,phase_1,,,,,,,,,,,,,orange,triangle
401.0,8.0,4.0,1.0,1.0,1.0,340.2073460019892,2.0,1.0,phase_1,,,,,,,,,,,,,green,cross
0.0,4.0,0.0,0.0,4.0,4.0,318.2403620012337,2.0,1.0,phase_1,,,,,,,,,,,,,magenta,I
69.0,5.0,1.0,1.0,3.0,3.0,266.2344149975979,2.0,1.0,phase_1,,,,,,,,,,,,,orange,triangle
95.0,2.0,2.0,0.0,2.0,2.0,300.1355240012344,2.0,1.0,phase_1,,,,,,,,,,,,,blue,square
185.0,7.0,3.0,1.0,4.0,4.0,297.0456530019874,2.0,1.0,phase_1,,,,,,,,,,,,,gray,hexagon
42.0,5.0,1.0,1.0,3.0,3.0,369.6767389992601,2.0,1.0,phase_1,,,,,,,,,,,,,orange,triangle
0.0,1.0,0.0,0.0,1.0,1.0,407.6061220002884,2.0,1.0,phase_1,,,,,,,,,,,,,white,flipped triangle
185.0,3.0,3.0,0.0,1.0,1.0,401.5957750016241,2.0,1.0,phase_1,,,,,,,,,,,,,yellow,circle
376.0,4.0,4.0,0.0,2.0,2.0,369.9914120006724,2.0,1.0,phase_1,,,,,,,,,,,,,magenta,I
196.0,7.0,3.0,1.0,3.0,3.0,584.3923089996679,2.0,1.0,phase_1,,,,,,,,,,,,,gray,hexagon
388.0,4.0,4.0,0.0,1.0,1.0,406.9872460022452,2.0,1.0,phase_1,,,,,,,,,,,,,magenta,I
0.0,7.0,0.0,1.0,4.0,4.0,324.5163610008603,2.0,1.0,phase_1,,,,,,,,,,,,,gray,hexagon
83.0,2.0,2.0,0.0,3.0,3.0,354.9393800021789,2.0,1.0,phase_1,,,,,,,,,,,,,blue,square
0.0,5.0,0.0,1.0,1.0,1.0,352.2191470001417,2.0,1.0,phase_1,,,,,,,,,,,,,orange,triangle
221.0,7.0,3.0,1.0,2.0,2.0,377.3115820004022,2.0,1.0,phase_1,,,,,,,,,,,,,gray,hexagon
0.0,8.0,0.0,1.0,3.0,3.0,328.817332003382,2.0,1.0,phase_1,,,,,,,,,,,,,green,cross
0.0,3.0,0.0,0.0,3.0,3.0,391.3268440010142,2.0,2.0,phase_1,,,,,,,,,,,,,yellow,circle
203.0,7.0,3.0,1.0,2.0,2.0,433.8376519990561,2.0,1.0,phase_1,,,,,,,,,,,,,gray,hexagon
0.0,1.0,0.0,0.0,3.0,3.0,448.2461299994611,2.0,1.0,phase_1,,,,,,,,,,,,,white,flipped triangle
111.0,2.0,2.0,0.0,4.0,4.0,383.3654640002351,2.0,1.0,phase_1,,,,,,,,,,,,,blue,square
0.0,5.0,0.0,1.0,2.0,2.0,440.6927210002322,2.0,1.0,phase_1,,,,,,,,,,,,,orange,triangle
95.0,6.0,2.0,1.0,3.0,3.0,409.7718020020693,2.0,1.0,phase_1,,,,,,,,,,,,,cyan,diamond
0.0,6.0,0.0,1.0,1.0,1.0,459.0024419994734,2.0,1.0,phase_1,,,,,,,,,,,,,cyan,diamond
420.0,8.0,4.0,1.0,2.0,2.0,424.3658510022214,2.0,1.0,phase_1,,,,,,,,,,,,,green,cross
55.0,5.0,1.0,1.0,3.0,3.0,336.0575220031023,2.0,1.0,phase_1,,,,,,,,,,,,,orange,triangle
51.0,1.0,1.0,0.0,1.0,1.0,398.4653520019492,2.0,1.0,phase_1,,,,,,,,,,,,,white,flipped triangle
34.0,5.0,1.0,1.0,3.0,3.0,433.8833910005633,2.0,1.0,phase_1,,,,,,,,,,,,,orange,triangle
188.0,3.0,3.0,0.0,1.0,1.0,510.6485190008243,2.0,1.0,phase_1,,,,,,,,,,,,,yellow,circle
83.0,6.0,2.0,1.0,2.0,2.0,361.6828539998096,2.0,1.0,phase_1,,,,,,,,,,,,,cyan,diamond
211.0,7.0,3.0,1.0,4.0,4.0,496.6682909980591,2.0,1.0,phase_1,,,,,,,,,,,,,gray,hexagon
0.0,7.0,0.0,1.0,2.0,2.0,324.4456239990541,2.0,1.0,phase_1,,,,,,,,,,,,,gray,hexagon
397.0,4.0,4.0,0.0,4.0,4.0,361.615066001832,2.0,1.0,phase_1,,,,,,,,,,,,,magenta,I
187.0,3.0,3.0,0.0,2.0,2.0,305.6191680007032,2.0,1.0,phase_1,,,,,,,,,,,,,yellow,circle
105.0,6.0,2.0,1.0,4.0,4.0,303.1599080022715,2.0,1.0,phase_1,,,,,,,,,,,,,cyan,diamond
0.0,8.0,0.0,1.0,1.0,1.0,379.0424199978588,2.0,1.0,phase_1,,,,,,,,,,,,,green,cross
425.0,4.0,4.0,0.0,2.0,2.0,262.6132229997893,2.0,1.0,phase_1,,,,,,,,,,,,,magenta,I
215.0,3.0,3.0,0.0,4.0,4.0,377.860561999114,2.0,1.0,phase_1,,,,,,,,,,,,,yellow,circle
99.0,2.0,2.0,0.0,1.0,1.0,465.3413520027243,2.0,1.0,phase_1,,,,,,,,,,,,,blue,square
101.0,2.0,2.0,0.0,3.0,3.0,278.1981130028725,2.0,1.0,phase_1,,,,,,,,,,,,,blue,square
78.0,2.0,2.0,0.0,4.0,4.0,440.5856730008963,2.0,1.0,phase_1,,,,,,,,,,,,,blue,square
38.0,1.0,1.0,0.0,1.0,1.0,489.6969299988996,2.0,1.0,phase_1,,,,,,,,,,,,,white,flipped triangle
403.0,8.0,4.0,1.0,1.0,1.0,335.1914710001438,2.0,1.0,phase_1,,,,,,,,,,,,,green,cross
0.0,7.0,0.0,1.0,1.0,1.0,328.6118639989581,2.0,1.0,phase_1,,,,,,,,,,,,,gray,hexagon
389.0,8.0,4.0,1.0,1.0,1.0,421.8939849997696,2.0,1.0,phase_1,,,,,,,,,,,,,green,cross
31.0,1.0,1.0,0.0,1.0,1.0,399.2629530002887,2.0,1.0,phase_1,,,,,,,,,,,,,white,flipped triangle
208.0,3.0,3.0,0.0,3.0,3.0,377.9204899983597,2.0,1.0,phase_1,,,,,,,,,,,,,yellow,circle
0.0,7.0,0.0,1.0,2.0,2.0,371.4427159975457,2.0,1.0,phase_1,,,,,,,,,,,,,gray,hexagon
122.0,2.0,2.0,0.0,3.0,3.0,335.809498999879,2.0,1.0,phase_1,,,,,,,,,,,,,blue,square
194.0,3.0,3.0,0.0,1.0,1.0,324.835372997768,2.0,1.0,phase_1,,,,,,,,,,,,,yellow,circle
56.0,5.0,1.0,1.0,4.0,4.0,366.3676530013617,2.0,1.0,phase_1,,,,,,,,,,,,,orange,triangle
415.0,4.0,4.0,0.0,2.0,2.0,308.0760209995787,2.0,1.0,phase_1,,,,,,,,,,,,,magenta,I
378.0,8.0,4.0,1.0,2.0,2.0,300.4798410001967,2.0,1.0,phase_1,,,,,,,,,,,,,green,cross
221.0,7.0,3.0,1.0,1.0,1.0,377.5877490006678,2.0,1.0,phase_1,,,,,,,,,,,,,gray,hexagon
112.0,2.0,2.0,0.0,3.0,3.0,340.2322309993906,2.0,1.0,phase_1,,,,,,,,,,,,,blue,square
30.0,5.0,1.0,1.0,2.0,2.0,330.6518110002798,2.0,1.0,phase_1,,,,,,,,,,,,,orange,triangle
124.0,6.0,2.0,1.0,4.0,4.0,382.180860000517,2.0,1.0,phase_1,,,,,,,,,,,,,cyan,diamond
179.0,7.0,3.0,1.0,4.0,4.0,499.2713569990883,2.0,1.0,phase_1,,,,,,,,,,,,,gray,hexagon
179.0,3.0,3.0,0.0,2.0,2.0,287.3058389996004,2.0,1.0,phase_1,,,,,,,,,,,,,yellow,circle
77.0,2.0,2.0,0.0,1.0,1.0,419.9535810002999,2.0,1.0,phase_1,,,,,,,,,,,,,blue,square
0.0,3.0,0.0,0.0,1.0,1.0,396.4709270003368,2.0,1.0,phase_1,,,,,,,,,,,,,yellow,circle
44.0,5.0,1.0,1.0,2.0,2.0,391.5716539995628,2.0,1.0,phase_1,,,,,,,,,,,,,orange,triangle
0.0,6.0,0.0,1.0,2.0,2.0,343.2623089975095,2.0,1.0,phase_1,,,,,,,,,,,,,cyan,diamond
376.0,8.0,4.0,1.0,2.0,2.0,333.5451129969442,2.0,1.0,phase_1,,,,,,,,,,,,,green,cross
64.0,1.0,1.0,0.0,3.0,3.0,478.8701319994288,2.0,1.0,phase_1,,,,,,,,,,,,,white,flipped triangle
34.0,1.0,1.0,0.0,4.0,4.0,302.1362389990827,2.0,1.0,phase_1,,,,,,,,,,,,,white,flipped triangle
49.0,5.0,1.0,1.0,2.0,2.0,409.0826979991107,2.0,1.0,phase_1,,,,,,,,,,,,,orange,triangle
0.0,3.0,0.0,0.0,3.0,3.0,468.1745189991488,2.0,1.0,phase_1,,,,,,,,,,,,,yellow,circle
35.0,5.0,1.0,1.0,2.0,2.0,319.0983280001092,2.0,1.0,phase_1,,,,,,,,,,,,,orange,triangle
0.0,2.0,0.0,0.0,3.0,3.0,383.0304889997933,2.0,1.0,phase_1,,,,,,,,,,,,,blue,square
395.0,4.0,4.0,0.0,3.0,3.0,507.37316899903817,2.0,1.0,phase_1,,,,,,,,,,,,,magenta,I
382.0,4.0,4.0,0.0,2.0,2.0,307.1265509970544,2.0,1.0,phase_1,,,,,,,,,,,,,magenta,I
93.0,6.0,2.0,1.0,3.0,3.0,317.3301890019502,2.0,1.0,phase_1,,,,,,,,,,,,,cyan,diamond
221.0,3.0,3.0,0.0,2.0,2.0,397.1817180026846,3.0,1.0,phase_1,,,,,,,,,,,,,yellow,circle
110.0,6.0,2.0,1.0,3.0,3.0,345.1047800008382,3.0,1.0,phase_1,,,,,,,,,,,,,cyan,diamond
0.0,4.0,0.0,0.0,2.0,2.0,365.5584090010961,3.0,1.0,phase_1,,,,,,,,,,,,,magenta,I
0.0,8.0,0.0,1.0,1.0,1.0,413.2233130003442,3.0,1.0,phase_1,,,,,,,,,,,,,green,cross
194.0,7.0,3.0,1.0,4.0,4.0,401.6414559991972,3.0,1.0,phase_1,,,,,,,,,,,,,gray,hexagon
0.0,8.0,0.0,1.0,1.0,1.0,339.4706580002093,3.0,1.0,phase_1,,,,,,,,,,,,,green,cross
389.0,4.0,4.0,0.0,3.0,3.0,368.7457980013278,3.0,1.0,phase_1,,,,,,,,,,,,,magenta,I
407.0,8.0,4.0,1.0,2.0,2.0,299.9818219977896,3.0,1.0,phase_1,,,,,,,,,,,,,green,cross
380.0,8.0,4.0,1.0,4.0,4.0,353.7040060000436,3.0,1.0,phase_1,,,,,,,,,,,,,green,cross
62.0,1.0,1.0,0.0,2.0,2.0,331.5227040002355,3.0,1.0,phase_1,,,,,,,,,,,,,white,flipped triangle
0.0,2.0,0.0,0.0,3.0,3.0,302.6296589996491,3.0,1.0,phase_1,,,,,,,,,,,,,blue,square
65.0,1.0,1.0,0.0,2.0,2.0,348.5754890025418,3.0,1.0,phase_1,,,,,,,,,,,,,white,flipped triangle
92.0,2.0,2.0,0.0,2.0,2.0,312.2040529997321,3.0,1.0,phase_1,,,,,,,,,,,,,blue,square
196.0,3.0,3.0,0.0,1.0,1.0,333.8508890010416,3.0,1.0,phase_1,,,,,,,,,,,,,yellow,circle
0.0,6.0,0.0,1.0,4.0,4.0,391.1745209989021,3.0,1.0,phase_1,,,,,,,,,,,,,cyan,diamond
0.0,5.0,0.0,1.0,4.0,4.0,313.9665039998363,3.0,1.0,phase_1,,,,,,,,,,,,,orange,triangle
407.0,4.0,4.0,0.0,1.0,1.0,368.7717100001464,3.0,1.0,phase_1,,,,,,,,,,,,,magenta,I
44.0,1.0,1.0,0.0,2.0,2.0,340.2355700018233,3.0,1.0,phase_1,,,,,,,,,,,,,white,flipped triangle
390.0,4.0,4.0,0.0,1.0,1.0,478.7689609984227,3.0,1.0,phase_1,,,,,,,,,,,,,magenta,I
68.0,5.0,1.0,1.0,3.0,3.0,302.4155069979315,3.0,1.0,phase_1,,,,,,,,,,,,,orange,triangle
420.0,4.0,4.0,0.0,3.0,3.0,399.5648000018263,3.0,1.0,phase_1,,,,,,,,,,,,,magenta,I
123.0,2.0,2.0,0.0,4.0,4.0,320.8864480002376,3.0,1.0,phase_1,,,,,,,,,,,,,blue,square
60.0,1.0,1.0,0.0,4.0,4.0,260.42733900249,3.0,1.0,phase_1,,,,,,,,,,,,,white,flipped triangle
88.0,6.0,2.0,1.0,2.0,2.0,340.8963739966566,3.0,1.0,phase_1,,,,,,,,,,,,,cyan,diamond
0.0,1.0,0.0,0.0,4.0,4.0,296.2483289993542,3.0,1.0,phase_1,,,,,,,,,,,,,white,flipped triangle
217.0,7.0,3.0,1.0,3.0,3.0,373.4120330009318,3.0,1.0,phase_1,,,,,,,,,,,,,gray,hexagon
111.0,6.0,2.0,1.0,3.0,3.0,322.5756329993601,3.0,1.0,phase_1,,,,,,,,,,,,,cyan,diamond
199.0,3.0,3.0,0.0,3.0,3.0,376.6220440011238,3.0,1.0,phase_1,,,,,,,,,,,,,yellow,circle
61.0,1.0,1.0,0.0,3.0,3.0,271.4219380031863,3.0,1.0,phase_1,,,,,,,,,,,,,white,flipped triangle
211.0,7.0,3.0,1.0,4.0,4.0,553.0152669998643,3.0,1.0,phase_1,,,,,,,,,,,,,gray,hexagon
382.0,8.0,4.0,1.0,1.0,1.0,394.734976998734,3.0,1.0,phase_1,,,,,,,,,,,,,green,cross
0.0,4.0,0.0,0.0,1.0,1.0,462.309072001517,3.0,1.0,phase_1,,,,,,,,,,,,,magenta,I
211.0,3.0,3.0,0.0,2.0,2.0,274.3229909974616,3.0,1.0,phase_1,,,,,,,,,,,,,yellow,circle
34.0,5.0,1.0,1.0,1.0,1.0,431.3365059970238,3.0,1.0,phase_1,,,,,,,,,,,,,orange,triangle
77.0,6.0,2.0,1.0,1.0,1.0,386.7842059989925,3.0,1.0,phase_1,,,,,,,,,,,,,cyan,diamond
419.0,4.0,4.0,0.0,4.0,4.0,398.2971309997083,3.0,1.0,phase_1,,,,,,,,,,,,,magenta,I
0.0,2.0,0.0,0.0,2.0,2.0,274.9880090013903,3.0,1.0,phase_1,,,,,,,,,,,,,blue,square
195.0,7.0,3.0,1.0,4.0,4.0,575.4542449976725,3.0,1.0,phase_1,,,,,,,,,,,,,gray,hexagon
115.0,2.0,2.0,0.0,4.0,4.0,330.0504860017099,3.0,1.0,phase_1,,,,,,,,,,,,,blue,square
189.0,3.0,3.0,0.0,2.0,2.0,344.8012840017327,3.0,1.0,phase_1,,,,,,,,,,,,,yellow,circle
388.0,8.0,4.0,1.0,1.0,1.0,478.5470189999614,3.0,1.0,phase_1,,,,,,,,,,,,,green,cross
0.0,6.0,0.0,1.0,2.0,2.0,439.0621249985997,3.0,1.0,phase_1,,,,,,,,,,,,,cyan,diamond
189.0,7.0,3.0,1.0,1.0,1.0,381.2615899987577,3.0,1.0,phase_1,,,,,,,,,,,,,gray,hexagon
86.0,6.0,2.0,1.0,1.0,1.0,345.1250580001215,3.0,1.0,phase_1,,,,,,,,,,,,,cyan,diamond
108.0,6.0,2.0,1.0,1.0,1.0,338.4079219977138,3.0,1.0,phase_1,,,,,,,,,,,,,cyan,diamond
88.0,2.0,2.0,0.0,3.0,3.0,413.591054999415,3.0,1.0,phase_1,,,,,,,,,,,,,blue,square
0.0,7.0,0.0,1.0,2.0,2.0,351.0960829989926,3.0,1.0,phase_1,,,,,,,,,,,,,gray,hexagon
54.0,5.0,1.0,1.0,2.0,2.0,349.9098040010722,3.0,1.0,phase_1,,,,,,,,,,,,,orange,triangle
421.0,4.0,4.0,0.0,4.0,4.0,415.444591002597,3.0,1.0,phase_1,,,,,,,,,,,,,magenta,I
411.0,8.0,4.0,1.0,1.0,1.0,349.6355540009972,3.0,1.0,phase_1,,,,,,,,,,,,,green,cross
0.0,3.0,0.0,0.0,1.0,1.0,315.5341460005729,3.0,1.0,phase_1,,,,,,,,,,,,,yellow,circle
180.0,7.0,3.0,1.0,4.0,4.0,516.5540929992858,3.0,1.0,phase_1,,,,,,,,,,,,,gray,hexagon
411.0,8.0,4.0,1.0,2.0,2.0,293.0488739984866,3.0,1.0,phase_1,,,,,,,,,,,,,green,cross
85.0,6.0,2.0,1.0,2.0,2.0,286.7721290022018,3.0,1.0,phase_1,,,,,,,,,,,,,cyan,diamond
378.0,4.0,4.0,0.0,4.0,4.0,413.0260669990093,3.0,1.0,phase_1,,,,,,,,,,,,,magenta,I
403.0,4.0,4.0,0.0,1.0,1.0,503.8563730013266,3.0,1.0,phase_1,,,,,,,,,,,,,magenta,I
60.0,1.0,1.0,0.0,2.0,2.0,303.369791003206,3.0,1.0,phase_1,,,,,,,,,,,,,white,flipped triangle
60.0,5.0,1.0,1.0,2.0,2.0,368.4278079999785,3.0,1.0,phase_1,,,,,,,,,,,,,orange,triangle
92.0,6.0,2.0,1.0,1.0,1.0,399.6806049981387,3.0,1.0,phase_1,,,,,,,,,,,,,cyan,diamond
62.0,5.0,1.0,1.0,4.0,4.0,393.1957710010465,3.0,1.0,phase_1,,,,,,,,,,,,,orange,triangle
0.0,1.0,0.0,0.0,1.0,1.0,375.8652950018586,3.0,1.0,phase_1,,,,,,,,,,,,,white,flipped triangle
90.0,2.0,2.0,0.0,2.0,2.0,343.2127089981804,3.0,1.0,phase_1,,,,,,,,,,,,,blue,square
380.0,4.0,4.0,0.0,3.0,3.0,476.8332980020204,3.0,1.0,phase_1,,,,,,,,,,,,,magenta,I
216.0,7.0,3.0,1.0,3.0,3.0,750.6296880019363,3.0,1.0,phase_1,,,,,,,,,,,,,gray,hexagon
178.0,7.0,3.0,1.0,1.0,1.0,526.0516250018554,3.0,1.0,phase_1,,,,,,,,,,,,,gray,hexagon
176.0,3.0,3.0,0.0,3.0,3.0,437.189099000534,3.0,1.0,phase_1,,,,,,,,,,,,,yellow,circle
185.0,7.0,3.0,1.0,3.0,3.0,339.9491930031217,3.0,1.0,phase_1,,,,,,,,,,,,,gray,hexagon
407.0,4.0,4.0,0.0,2.0,2.0,304.046148998168,3.0,1.0,phase_1,,,,,,,,,,,,,magenta,I
43.0,1.0,1.0,0.0,3.0,3.0,420.7547460027854,3.0,1.0,phase_1,,,,,,,,,,,,,white,flipped triangle
210.0,3.0,3.0,0.0,1.0,1.0,423.5867259994847,3.0,1.0,phase_1,,,,,,,,,,,,,yellow,circle
83.0,6.0,2.0,1.0,4.0,4.0,281.4302529986889,3.0,1.0,phase_1,,,,,,,,,,,,,cyan,diamond
105.0,2.0,2.0,0.0,4.0,4.0,361.7028100015886,3.0,1.0,phase_1,,,,,,,,,,,,,blue,square
380.0,4.0,4.0,0.0,4.0,4.0,350.1463210013753,3.0,1.0,phase_1,,,,,,,,,,,,,magenta,I
0.0,3.0,0.0,0.0,4.0,4.0,294.3150709979818,3.0,1.0,phase_1,,,,,,,,,,,,,yellow,circle
0.0,8.0,0.0,1.0,2.0,2.0,329.2450539993297,3.0,1.0,phase_1,,,,,,,,,,,,,green,cross
390.0,4.0,4.0,0.0,1.0,1.0,371.4749579994532,3.0,1.0,phase_1,,,,,,,,,,,,,magenta,I
49.0,5.0,1.0,1.0,3.0,3.0,410.6382019999728,3.0,1.0,phase_1,,,,,,,,,,,,,orange,triangle
50.0,5.0,1.0,1.0,3.0,3.0,340.7034929987276,3.0,1.0,phase_1,,,,,,,,,,,,,orange,triangle
101.0,2.0,2.0,0.0,2.0,2.0,314.439981997566,3.0,1.0,phase_1,,,,,,,,,,,,,blue,square
57.0,5.0,1.0,1.0,4.0,4.0,422.6721209997777,3.0,1.0,phase_1,,,,,,,,,,,,,orange,triangle
30.0,1.0,1.0,0.0,4.0,4.0,368.3425849994819,3.0,1.0,phase_1,,,,,,,,,,,,,white,flipped triangle
411.0,4.0,4.0,0.0,1.0,1.0,391.4834409988543,3.0,1.0,phase_1,,,,,,,,,,,,,magenta,I
86.0,2.0,2.0,0.0,4.0,4.0,307.1741230014595,3.0,1.0,phase_1,,,,,,,,,,,,,blue,square
419.0,8.0,4.0,1.0,4.0,4.0,315.9797400003299,3.0,1.0,phase_1,,,,,,,,,,,,,green,cross
395.0,8.0,4.0,1.0,3.0,3.0,468.2911840027373,3.0,1.0,phase_1,,,,,,,,,,,,,green,cross
405.0,4.0,4.0,0.0,3.0,3.0,330.9030019991041,3.0,1.0,phase_1,,,,,,,,,,,,,magenta,I
49.0,1.0,1.0,0.0,1.0,1.0,406.93522699803,3.0,2.0,phase_1,,,,,,,,,,,,,white,flipped triangle
390.0,8.0,4.0,1.0,1.0,1.0,401.7147080012364,3.0,1.0,phase_1,,,,,,,,,,,,,green,cross
0.0,4.0,0.0,0.0,4.0,4.0,408.1744860013714,3.0,1.0,phase_1,,,,,,,,,,,,,magenta,I
0.0,3.0,0.0,0.0,1.0,1.0,458.4061149980698,3.0,1.0,phase_1,,,,,,,,,,,,,yellow,circle
215.0,7.0,3.0,1.0,2.0,2.0,379.1872590009006,3.0,1.0,phase_1,,,,,,,,,,,,,gray,hexagon
90.0,6.0,2.0,1.0,4.0,4.0,427.8484690003097,3.0,1.0,phase_1,,,,,,,,,,,,,cyan,diamond
0.0,4.0,0.0,0.0,4.0,4.0,554.9616559983406,3.0,1.0,phase_1,,,,,,,,,,,,,magenta,I
0.0,3.0,0.0,0.0,4.0,4.0,460.3527660001418,3.0,1.0,phase_1,,,,,,,,,,,,,yellow,circle
96.0,6.0,2.0,1.0,3.0,3.0,464.9135139989084,3.0,1.0,phase_1,,,,,,,,,,,,,cyan,diamond
199.0,7.0,3.0,1.0,2.0,2.0,382.222135001939,3.0,1.0,phase_1,,,,,,,,,,,,,gray,hexagon
195.0,3.0,3.0,0.0,1.0,1.0,332.433845000196,3.0,1.0,phase_1,,,,,,,,,,,,,yellow,circle
389.0,4.0,4.0,0.0,4.0,4.0,329.5729459969152,3.0,1.0,phase_1,,,,,,,,,,,,,magenta,I
0.0,5.0,0.0,1.0,1.0,1.0,401.0721119993832,3.0,1.0,phase_1,,,,,,,,,,,,,orange,triangle
35.0,1.0,1.0,0.0,2.0,2.0,293.9484800008358,3.0,1.0,phase_1,,,,,,,,,,,,,white,flipped triangle
124.0,2.0,2.0,0.0,2.0,2.0,386.5146649986855,4.0,1.0,phase_1,,,,,,,,,,,,,blue,square
0.0,8.0,0.0,1.0,3.0,3.0,392.6131030020769,4.0,1.0,phase_1,,,,,,,,,,,,,green,cross
0.0,4.0,0.0,0.0,4.0,4.0,332.5542249986029,4.0,1.0,phase_1,,,,,,,,,,,,,magenta,I
88.0,6.0,2.0,1.0,1.0,1.0,287.8372250015673,4.0,1.0,phase_1,,,,,,,,,,,,,cyan,diamond
38.0,5.0,1.0,1.0,3.0,3.0,397.4156059994129,4.0,1.0,phase_1,,,,,,,,,,,,,orange,triangle
0.0,4.0,0.0,0.0,1.0,1.0,362.7652709983522,4.0,1.0,phase_1,,,,,,,,,,,,,magenta,I
92.0,6.0,2.0,1.0,1.0,1.0,369.019756999478,4.0,1.0,phase_1,,,,,,,,,,,,,cyan,diamond
403.0,8.0,4.0,1.0,4.0,4.0,393.0752020023647,4.0,1.0,phase_1,,,,,,,,,,,,,green,cross
44.0,5.0,1.0,1.0,1.0,1.0,447.9488290016888,4.0,1.0,phase_1,,,,,,,,,,,,,orange,triangle
50.0,1.0,1.0,0.0,4.0,4.0,419.0514429974428,4.0,1.0,phase_1,,,,,,,,,,,,,white,flipped triangle
54.0,1.0,1.0,0.0,2.0,2.0,334.5574850027333,4.0,1.0,phase_1,,,,,,,,,,,,,white,flipped triangle
121.0,2.0,2.0,0.0,3.0,3.0,303.1878799993137,4.0,1.0,phase_1,,,,,,,,,,,,,blue,square
395.0,4.0,4.0,0.0,4.0,4.0,359.5591810008045,4.0,1.0,phase_1,,,,,,,,,,,,,magenta,I
89.0,2.0,2.0,0.0,4.0,4.0,345.6331970010069,4.0,1.0,phase_1,,,,,,,,,,,,,blue,square
101.0,6.0,2.0,1.0,3.0,3.0,374.5390179974492,4.0,1.0,phase_1,,,,,,,,,,,,,cyan,diamond
400.0,8.0,4.0,1.0,3.0,3.0,293.7072450004052,4.0,1.0,phase_1,,,,,,,,,,,,,green,cross
382.0,4.0,4.0,0.0,3.0,3.0,331.0611029992287,4.0,1.0,phase_1,,,,,,,,,,,,,magenta,I
51.0,5.0,1.0,1.0,2.0,2.0,386.6333430014492,4.0,1.0,phase_1,,,,,,,,,,,,,orange,triangle
34.0,5.0,1.0,1.0,1.0,1.0,509.5284550006909,4.0,1.0,phase_1,,,,,,,,,,,,,orange,triangle
390.0,8.0,4.0,1.0,3.0,3.0,347.1914239999023,4.0,1.0,phase_1,,,,,,,,,,,,,green,cross
41.0,5.0,1.0,1.0,1.0,1.0,467.7752959978534,4.0,1.0,phase_1,,,,,,,,,,,,,orange,triangle
109.0,6.0,2.0,1.0,2.0,2.0,359.5986130021629,4.0,1.0,phase_1,,,,,,,,,,,,,cyan,diamond
390.0,4.0,4.0,0.0,1.0,1.0,430.0894110019726,4.0,1.0,phase_1,,,,,,,,,,,,,magenta,I
211.0,3.0,3.0,0.0,2.0,2.0,352.7653849996568,4.0,1.0,phase_1,,,,,,,,,,,,,yellow,circle
224.0,3.0,3.0,0.0,4.0,4.0,380.826345000969,4.0,1.0,phase_1,,,,,,,,,,,,,yellow,circle
55.0,1.0,1.0,0.0,2.0,2.0,337.7962279992061,4.0,1.0,phase_1,,,,,,,,,,,,,white,flipped triangle
28.0,5.0,1.0,1.0,1.0,1.0,382.9899890006345,4.0,1.0,phase_1,,,,,,,,,,,,,orange,triangle
0.0,2.0,0.0,0.0,4.0,4.0,334.7464030011906,4.0,1.0,phase_1,,,,,,,,,,,,,blue,square
216.0,3.0,3.0,0.0,4.0,4.0,363.9663489993836,4.0,1.0,phase_1,,,,,,,,,,,,,yellow,circle
0.0,7.0,0.0,1.0,3.0,3.0,332.4003779998747,4.0,1.0,phase_1,,,,,,,,,,,,,gray,hexagon
100.0,2.0,2.0,0.0,1.0,1.0,371.6605349982274,4.0,1.0,phase_1,,,,,,,,,,,,,blue,square
188.0,7.0,3.0,1.0,3.0,3.0,416.8636129979859,4.0,1.0,phase_1,,,,,,,,,,,,,gray,hexagon
182.0,3.0,3.0,0.0,2.0,2.0,290.8335460015223,4.0,1.0,phase_1,,,,,,,,,,,,,yellow,circle
175.0,7.0,3.0,1.0,3.0,3.0,457.3860140008037,4.0,1.0,phase_1,,,,,,,,,,,,,gray,hexagon
404.0,8.0,4.0,1.0,4.0,4.0,358.1779939995613,4.0,1.0,phase_1,,,,,,,,,,,,,green,cross
0.0,2.0,0.0,0.0,4.0,4.0,387.8699230008351,4.0,1.0,phase_1,,,,,,,,,,,,,blue,square
45.0,1.0,1.0,0.0,1.0,1.0,486.69154399976827,4.0,1.0,phase_1,,,,,,,,,,,,,white,flipped triangle
91.0,2.0,2.0,0.0,3.0,3.0,464.9393250001594,4.0,1.0,phase_1,,,,,,,,,,,,,blue,square
65.0,5.0,1.0,1.0,4.0,4.0,379.2391939969093,4.0,1.0,phase_1,,,,,,,,,,,,,orange,triangle
0.0,2.0,0.0,0.0,3.0,3.0,599.3481589976,4.0,1.0,phase_1,,,,,,,,,,,,,blue,square
425.0,8.0,4.0,1.0,4.0,4.0,476.4739989986992,4.0,1.0,phase_1,,,,,,,,,,,,,green,cross
191.0,7.0,3.0,1.0,2.0,2.0,334.2318130016792,4.0,1.0,phase_1,,,,,,,,,,,,,gray,hexagon
78.0,6.0,2.0,1.0,4.0,4.0,310.3039130000979,4.0,1.0,phase_1,,,,,,,,,,,,,cyan,diamond
119.0,6.0,2.0,1.0,1.0,1.0,310.4066660016542,4.0,1.0,phase_1,,,,,,,,,,,,,cyan,diamond
377.0,8.0,4.0,1.0,4.0,4.0,323.9424750026956,4.0,1.0,phase_1,,,,,,,,,,,,,green,cross
91.0,2.0,2.0,0.0,1.0,1.0,499.592448999465,4.0,2.0,phase_1,,,,,,,,,,,,,blue,square
217.0,7.0,3.0,1.0,4.0,4.0,556.0987040007603,4.0,1.0,phase_1,,,,,,,,,,,,,gray,hexagon
0.0,7.0,0.0,1.0,1.0,1.0,576.6796829993837,4.0,1.0,phase_1,,,,,,,,,,,,,gray,hexagon
411.0,4.0,4.0,0.0,2.0,2.0,310.4826349990617,4.0,1.0,phase_1,,,,,,,,,,,,,magenta,I
0.0,6.0,0.0,1.0,2.0,2.0,425.8344150002813,4.0,1.0,phase_1,,,,,,,,,,,,,cyan,diamond
65.0,5.0,1.0,1.0,2.0,2.0,385.7622759969672,4.0,1.0,phase_1,,,,,,,,,,,,,orange,triangle
418.0,8.0,4.0,1.0,4.0,4.0,655.3972150031768,4.0,1.0,phase_1,,,,,,,,,,,,,green,cross
401.0,4.0,4.0,0.0,3.0,3.0,423.2507609995082,4.0,1.0,phase_1,,,,,,,,,,,,,magenta,I
217.0,3.0,3.0,0.0,3.0,3.0,408.8802240003133,4.0,1.0,phase_1,,,,,,,,,,,,,yellow,circle
415.0,8.0,4.0,1.0,2.0,2.0,293.1550700013758,4.0,1.0,phase_1,,,,,,,,,,,,,green,cross
411.0,8.0,4.0,1.0,3.0,3.0,394.9073170006159,4.0,1.0,phase_1,,,,,,,,,,,,,green,cross
215.0,3.0,3.0,0.0,2.0,2.0,354.2294010003388,4.0,1.0,phase_1,,,,,,,,,,,,,yellow,circle
221.0,3.0,3.0,0.0,3.0,3.0,488.2836020005925,4.0,1.0,phase_1,,,,,,,,,,,,,yellow,circle
91.0,6.0,2.0,1.0,1.0,1.0,333.7988660023256,4.0,1.0,phase_1,,,,,,,,,,,,,cyan,diamond
0.0,6.0,0.0,1.0,1.0,1.0,463.1992380018346,4.0,1.0,phase_1,,,,,,,,,,,,,cyan,diamond
123.0,6.0,2.0,1.0,2.0,2.0,390.8651319979981,4.0,1.0,phase_1,,,,,,,,,,,,,cyan,diamond
180.0,7.0,3.0,1.0,2.0,2.0,378.8577979976253,4.0,1.0,phase_1,,,,,,,,,,,,,gray,hexagon
115.0,6.0,2.0,1.0,1.0,1.0,385.7858920018771,4.0,1.0,phase_1,,,,,,,,,,,,,cyan,diamond
187.0,7.0,3.0,1.0,2.0,2.0,375.8261840011982,4.0,1.0,phase_1,,,,,,,,,,,,,gray,hexagon
73.0,5.0,1.0,1.0,4.0,4.0,384.8974370012001,4.0,1.0,phase_1,,,,,,,,,,,,,orange,triangle
400.0,4.0,4.0,0.0,1.0,1.0,524.7713999997359,4.0,1.0,phase_1,,,,,,,,,,,,,magenta,I
0.0,3.0,0.0,0.0,2.0,2.0,279.4208019986399,4.0,1.0,phase_1,,,,,,,,,,,,,yellow,circle
0.0,8.0,0.0,1.0,1.0,1.0,403.8625659995887,4.0,1.0,phase_1,,,,,,,,,,,,,green,cross
35.0,1.0,1.0,0.0,2.0,2.0,287.8484850007226,4.0,1.0,phase_1,,,,,,,,,,,,,white,flipped triangle
43.0,5.0,1.0,1.0,1.0,1.0,377.7149430025019,4.0,1.0,phase_1,,,,,,,,,,,,,orange,triangle
406.0,8.0,4.0,1.0,3.0,3.0,640.2104529988719,4.0,1.0,phase_1,,,,,,,,,,,,,green,cross
54.0,1.0,1.0,0.0,1.0,1.0,474.7730519993638,4.0,1.0,phase_1,,,,,,,,,,,,,white,flipped triangle
185.0,3.0,3.0,0.0,2.0,2.0,311.9350629967812,4.0,1.0,phase_1,,,,,,,,,,,,,yellow,circle
100.0,6.0,2.0,1.0,2.0,2.0,362.4275879992638,4.0,1.0,phase_1,,,,,,,,,,,,,cyan,diamond
60.0,5.0,1.0,1.0,2.0,2.0,305.9088739973958,4.0,1.0,phase_1,,,,,,,,,,,,,orange,triangle
176.0,7.0,3.0,1.0,4.0,4.0,386.1058119982772,4.0,1.0,phase_1,,,,,,,,,,,,,gray,hexagon
0.0,1.0,0.0,0.0,4.0,4.0,344.7962539976288,4.0,1.0,phase_1,,,,,,,,,,,,,white,flipped triangle
191.0,3.0,3.0,0.0,3.0,3.0,350.9180330001982,4.0,2.0,phase_1,,,,,,,,,,,,,yellow,circle
119.0,6.0,2.0,1.0,3.0,3.0,461.322562998248,4.0,1.0,phase_1,,,,,,,,,,,,,cyan,diamond
224.0,7.0,3.0,1.0,1.0,1.0,569.9309299998276,4.0,1.0,phase_1,,,,,,,,,,,,,gray,hexagon
397.0,8.0,4.0,1.0,1.0,1.0,423.5402810008963,4.0,1.0,phase_1,,,,,,,,,,,,,green,cross
31.0,5.0,1.0,1.0,1.0,1.0,340.1337199975387,4.0,1.0,phase_1,,,,,,,,,,,,,orange,triangle
220.0,3.0,3.0,0.0,2.0,2.0,353.9885549980681,4.0,1.0,phase_1,,,,,,,,,,,,,yellow,circle
421.0,8.0,4.0,1.0,2.0,2.0,480.5945670013898,4.0,1.0,phase_1,,,,,,,,,,,,,green,cross
217.0,3.0,3.0,0.0,4.0,4.0,589.49191800275,4.0,1.0,phase_1,,,,,,,,,,,,,yellow,circle
123.0,6.0,2.0,1.0,1.0,1.0,396.390556001279,4.0,1.0,phase_1,,,,,,,,,,,,,cyan,diamond
61.0,5.0,1.0,1.0,1.0,1.0,469.3271200012532,4.0,1.0,phase_1,,,,,,,,,,,,,orange,triangle
66.0,1.0,1.0,0.0,3.0,3.0,516.9272019993514,4.0,1.0,phase_1,,,,,,,,,,,,,white,flipped triangle
121.0,6.0,2.0,1.0,4.0,4.0,528.7177370009886,4.0,1.0,phase_1,,,,,,,,,,,,,cyan,diamond
44.0,5.0,1.0,1.0,3.0,3.0,524.2460770023172,4.0,1.0,phase_1,,,,,,,,,,,,,orange,triangle
0.0,6.0,0.0,1.0,3.0,3.0,406.6234460005944,4.0,1.0,phase_1,,,,,,,,,,,,,cyan,diamond
380.0,8.0,4.0,1.0,2.0,2.0,468.7032099973294,4.0,1.0,phase_1,,,,,,,,,,,,,green,cross
85.0,2.0,2.0,0.0,1.0,1.0,352.2407500022382,4.0,1.0,phase_1,,,,,,,,,,,,,blue,square
0.0,5.0,0.0,1.0,4.0,4.0,388.139943999704,4.0,1.0,phase_1,,,,,,,,,,,,,orange,triangle
34.0,1.0,1.0,0.0,3.0,3.0,380.7583330017223,4.0,1.0,phase_1,,,,,,,,,,,,,white,flipped triangle
377.0,4.0,4.0,0.0,2.0,2.0,324.4550920026086,4.0,1.0,phase_1,,,,,,,,,,,,,magenta,I
395.0,8.0,4.0,1.0,1.0,1.0,315.9993310000573,4.0,1.0,phase_1,,,,,,,,,,,,,green,cross
215.0,7.0,3.0,1.0,2.0,2.0,307.9358850009157,4.0,1.0,phase_1,,,,,,,,,,,,,gray,hexagon
0.0,7.0,0.0,1.0,3.0,3.0,479.5897750009317,4.0,1.0,phase_1,,,,,,,,,,,,,gray,hexagon
0.0,5.0,0.0,1.0,4.0,4.0,353.7408319971291,4.0,1.0,phase_1,,,,,,,,,,,,,orange,triangle
0.0,7.0,3.0,1.0,6.0,6.0,571.6947549990437,1.0,1.0,phase_2,stop,250.0,250.0,3.0,,,,,,,,,gray,hexagon
0.0,1.0,1.0,0.0,5.0,5.0,569.028325000545,1.0,1.0,phase_2,go,250.0,200.0,1.0,,,,,,,,,white,flipped triangle
0.0,4.0,4.0,0.0,5.0,5.0,532.0262210007058,1.0,1.0,phase_2,go,250.0,200.0,1.0,,,,,,,,,magenta,I
0.0,5.0,1.0,1.0,5.0,0.0,0.0,1.0,1.0,phase_2,stop,250.0,200.0,4.0,,,,,,,,,orange,triangle
0.0,2.0,2.0,0.0,5.0,5.0,864.5120940018387,1.0,1.0,phase_2,go,300.0,200.0,1.0,,,,,,,,,blue,square
0.0,2.0,2.0,0.0,5.0,5.0,682.703026002855,1.0,1.0,phase_2,go,300.0,200.0,1.0,,,,,,,,,blue,square
0.0,2.0,2.0,0.0,6.0,6.0,687.2285440003907,1.0,1.0,phase_2,go,300.0,200.0,1.0,,,,,,,,,blue,square
0.0,1.0,1.0,0.0,5.0,5.0,522.6525139987643,1.0,1.0,phase_2,go,300.0,200.0,1.0,,,,,,,,,white,flipped triangle
0.0,1.0,1.0,0.0,6.0,6.0,264.9971060018288,1.0,1.0,phase_2,go,300.0,200.0,1.0,,,,,,,,,white,flipped triangle
0.0,6.0,2.0,1.0,5.0,5.0,338.7254109984496,1.0,1.0,phase_2,go,300.0,200.0,1.0,,,,,,,,,cyan,diamond
0.0,1.0,1.0,0.0,6.0,6.0,309.867051000765,1.0,1.0,phase_2,go,300.0,200.0,1.0,,,,,,,,,white,flipped triangle
0.0,5.0,1.0,1.0,6.0,6.0,752.7459480006655,1.0,1.0,phase_2,go,300.0,200.0,1.0,,,,,,,,,orange,triangle
0.0,6.0,2.0,1.0,6.0,0.0,0.0,1.0,1.0,phase_2,stop,300.0,200.0,4.0,,,,,,,,,cyan,diamond
0.0,3.0,3.0,0.0,5.0,5.0,670.1578289976169,1.0,1.0,phase_2,go,300.0,250.0,1.0,,,,,,,,,yellow,circle
0.0,7.0,3.0,1.0,6.0,0.0,0.0,1.0,1.0,phase_2,stop,300.0,250.0,4.0,,,,,,,,,gray,hexagon
0.0,6.0,2.0,1.0,6.0,6.0,580.1949859996967,1.0,1.0,phase_2,go,300.0,300.0,1.0,,,,,,,,,cyan,diamond
0.0,1.0,1.0,0.0,5.0,5.0,608.8836270027969,1.0,1.0,phase_2,go,300.0,300.0,1.0,,,,,,,,,white,flipped triangle
0.0,6.0,2.0,1.0,6.0,0.0,0.0,1.0,1.0,phase_2,stop,300.0,300.0,4.0,,,,,,,,,cyan,diamond
0.0,8.0,4.0,1.0,6.0,0.0,0.0,1.0,1.0,phase_2,stop,300.0,350.0,4.0,,,,,,,,,green,cross
0.0,8.0,4.0,1.0,6.0,0.0,0.0,1.0,1.0,phase_2,stop,300.0,400.0,4.0,,,,,,,,,green,cross
0.0,4.0,4.0,0.0,5.0,5.0,805.6531510010245,1.0,1.0,phase_2,go,300.0,450.0,1.0,,,,,,,,,magenta,I
0.0,4.0,4.0,0.0,6.0,6.0,696.0916540010658,1.0,1.0,phase_2,go,300.0,450.0,1.0,,,,,,,,,magenta,I
0.0,5.0,1.0,1.0,5.0,0.0,0.0,1.0,1.0,phase_2,stop,300.0,450.0,4.0,,,,,,,,,orange,triangle
0.0,2.0,2.0,0.0,6.0,6.0,682.5903959979769,1.0,1.0,phase_2,go,350.0,450.0,1.0,,,,,,,,,blue,square
0.0,1.0,1.0,0.0,5.0,5.0,709.245452999312,1.0,1.0,phase_2,go,350.0,450.0,1.0,,,,,,,,,white,flipped triangle
0.0,1.0,1.0,0.0,6.0,6.0,492.2495320024609,1.0,1.0,phase_2,go,350.0,450.0,1.0,,,,,,,,,white,flipped triangle
0.0,4.0,4.0,0.0,6.0,6.0,502.53746200178284,1.0,1.0,phase_2,go,350.0,450.0,1.0,,,,,,,,,magenta,I
0.0,6.0,2.0,1.0,6.0,6.0,359.5428669977991,1.0,1.0,phase_2,go,350.0,450.0,1.0,,,,,,,,,cyan,diamond
0.0,1.0,1.0,0.0,6.0,6.0,383.7845669986564,1.0,1.0,phase_2,go,350.0,450.0,1.0,,,,,,,,,white,flipped triangle
0.0,6.0,2.0,1.0,5.0,5.0,325.4329970004619,1.0,1.0,phase_2,stop,350.0,450.0,3.0,,,,,,,,,cyan,diamond
0.0,8.0,4.0,1.0,5.0,0.0,0.0,1.0,1.0,phase_2,stop,300.0,450.0,4.0,,,,,,,,,green,cross
0.0,7.0,3.0,1.0,6.0,6.0,526.2347489988315,1.0,1.0,phase_2,stop,350.0,450.0,3.0,,,,,,,,,gray,hexagon
0.0,4.0,4.0,0.0,6.0,6.0,872.5098260001687,1.0,1.0,phase_2,go,350.0,400.0,1.0,,,,,,,,,magenta,I
0.0,5.0,1.0,1.0,6.0,6.0,1018.9010009999038,1.0,1.0,phase_2,go,350.0,400.0,1.0,,,,,,,,,orange,triangle
0.0,4.0,4.0,0.0,5.0,5.0,979.725524000969,1.0,1.0,phase_2,go,350.0,400.0,1.0,,,,,,,,,magenta,I
0.0,6.0,2.0,1.0,5.0,5.0,700.6411009970179,1.0,1.0,phase_2,go,350.0,400.0,1.0,,,,,,,,,cyan,diamond
0.0,8.0,4.0,1.0,5.0,5.0,350.374688001466,2.0,1.0,phase_2,go,350.0,400.0,1.0,,,,,,,,,green,cross
0.0,8.0,4.0,1.0,5.0,5.0,417.9817629992612,2.0,1.0,phase_2,stop,350.0,400.0,3.0,,,,,,,,,green,cross
0.0,3.0,3.0,0.0,5.0,5.0,657.4410740031453,2.0,1.0,phase_2,go,300.0,400.0,1.0,,,,,,,,,yellow,circle
0.0,7.0,3.0,1.0,5.0,0.0,0.0,2.0,1.0,phase_2,stop,300.0,400.0,4.0,,,,,,,,,gray,hexagon
0.0,7.0,3.0,1.0,5.0,0.0,0.0,2.0,1.0,phase_2,stop,350.0,400.0,4.0,,,,,,,,,gray,hexagon
0.0,4.0,4.0,0.0,6.0,6.0,497.7475960004085,2.0,1.0,phase_2,go,400.0,400.0,1.0,,,,,,,,,magenta,I
0.0,8.0,4.0,1.0,6.0,0.0,0.0,2.0,1.0,phase_2,stop,400.0,400.0,4.0,,,,,,,,,green,cross
0.0,1.0,1.0,0.0,5.0,5.0,728.8585220012465,2.0,1.0,phase_2,go,400.0,450.0,1.0,,,,,,,,,white,flipped triangle
0.0,1.0,1.0,0.0,5.0,5.0,397.0775140005571,2.0,1.0,phase_2,go,400.0,450.0,1.0,,,,,,,,,white,flipped triangle
0.0,8.0,4.0,1.0,5.0,5.0,383.1430390018795,2.0,1.0,phase_2,go,400.0,450.0,1.0,,,,,,,,,green,cross
0.0,2.0,2.0,0.0,5.0,5.0,574.5747149994713,2.0,1.0,phase_2,go,400.0,450.0,1.0,,,,,,,,,blue,square
0.0,8.0,4.0,1.0,5.0,5.0,311.293069000385,2.0,1.0,phase_2,stop,400.0,450.0,3.0,,,,,,,,,green,cross
0.0,2.0,2.0,0.0,6.0,6.0,625.9696850029286,2.0,1.0,phase_2,go,350.0,450.0,1.0,,,,,,,,,blue,square
0.0,8.0,4.0,1.0,6.0,6.0,295.9123930013447,2.0,1.0,phase_2,stop,350.0,450.0,3.0,,,,,,,,,green,cross
0.0,5.0,1.0,1.0,6.0,0.0,0.0,2.0,1.0,phase_2,stop,350.0,400.0,4.0,,,,,,,,,orange,triangle
0.0,7.0,3.0,1.0,6.0,0.0,0.0,2.0,1.0,phase_2,stop,350.0,450.0,4.0,,,,,,,,,gray,hexagon
0.0,3.0,3.0,0.0,5.0,5.0,655.5919109996466,2.0,1.0,phase_2,go,350.0,500.0,1.0,,,,,,,,,yellow,circle
0.0,4.0,4.0,0.0,5.0,5.0,657.8784429984808,2.0,1.0,phase_2,go,350.0,500.0,1.0,,,,,,,,,magenta,I
0.0,4.0,4.0,0.0,6.0,6.0,527.9206100021838,2.0,1.0,phase_2,go,350.0,500.0,1.0,,,,,,,,,magenta,I
0.0,8.0,4.0,1.0,5.0,5.0,478.5288960010803,2.0,1.0,phase_2,stop,350.0,500.0,3.0,,,,,,,,,green,cross
0.0,8.0,4.0,1.0,5.0,0.0,0.0,2.0,1.0,phase_2,stop,300.0,500.0,4.0,,,,,,,,,green,cross
0.0,7.0,3.0,1.0,5.0,0.0,0.0,2.0,1.0,phase_2,stop,350.0,500.0,4.0,,,,,,,,,gray,hexagon
0.0,1.0,1.0,0.0,5.0,5.0,1009.5053020013438,2.0,1.0,phase_2,go,400.0,500.0,1.0,,,,,,,,,white,flipped triangle
0.0,4.0,4.0,0.0,5.0,5.0,778.7499149999348,2.0,1.0,phase_2,go,400.0,500.0,1.0,,,,,,,,,magenta,I
0.0,1.0,1.0,0.0,5.0,5.0,266.8062199991254,2.0,1.0,phase_2,go,400.0,500.0,1.0,,,,,,,,,white,flipped triangle
0.0,3.0,3.0,0.0,6.0,6.0,371.079312000802,2.0,1.0,phase_2,go,400.0,500.0,1.0,,,,,,,,,yellow,circle
0.0,3.0,3.0,0.0,6.0,6.0,499.6191030004411,2.0,1.0,phase_2,go,400.0,500.0,1.0,,,,,,,,,yellow,circle
0.0,2.0,2.0,0.0,6.0,6.0,441.2904220007476,2.0,1.0,phase_2,go,400.0,500.0,1.0,,,,,,,,,blue,square
0.0,4.0,4.0,0.0,5.0,5.0,550.8478150004521,2.0,1.0,phase_2,go,400.0,500.0,1.0,,,,,,,,,magenta,I
0.0,2.0,2.0,0.0,6.0,6.0,344.9794730004214,2.0,1.0,phase_2,go,400.0,500.0,1.0,,,,,,,,,blue,square
0.0,7.0,3.0,1.0,5.0,0.0,0.0,2.0,1.0,phase_2,stop,400.0,500.0,4.0,,,,,,,,,gray,hexagon
0.0,2.0,2.0,0.0,5.0,5.0,638.9784300008614,2.0,1.0,phase_2,go,450.0,500.0,1.0,,,,,,,,,blue,square
0.0,5.0,1.0,1.0,6.0,6.0,596.4172329986468,2.0,1.0,phase_2,stop,450.0,500.0,3.0,,,,,,,,,orange,triangle
0.0,8.0,4.0,1.0,6.0,6.0,1223.4293450019322,2.0,1.0,phase_2,go,450.0,450.0,1.0,,,,,,,,,green,cross
0.0,2.0,2.0,0.0,6.0,6.0,741.0677910011145,2.0,1.0,phase_2,go,450.0,450.0,1.0,,,,,,,,,blue,square
0.0,4.0,4.0,0.0,5.0,5.0,529.4619420019444,2.0,1.0,phase_2,go,450.0,450.0,1.0,,,,,,,,,magenta,I
0.0,6.0,2.0,1.0,6.0,6.0,417.0084550023603,3.0,1.0,phase_2,stop,450.0,450.0,3.0,,,,,,,,,cyan,diamond
0.0,3.0,3.0,0.0,6.0,6.0,767.8837470011786,3.0,1.0,phase_2,go,450.0,400.0,1.0,,,,,,,,,yellow,circle
0.0,2.0,2.0,0.0,6.0,6.0,730.7863179994456,3.0,1.0,phase_2,go,450.0,400.0,1.0,,,,,,,,,blue,square
0.0,1.0,1.0,0.0,6.0,6.0,638.711190000322,3.0,1.0,phase_2,go,450.0,400.0,1.0,,,,,,,,,white,flipped triangle
0.0,4.0,4.0,0.0,5.0,5.0,314.3679159984458,3.0,1.0,phase_2,go,450.0,400.0,1.0,,,,,,,,,magenta,I
0.0,2.0,2.0,0.0,6.0,6.0,462.2783560007519,3.0,1.0,phase_2,go,450.0,400.0,1.0,,,,,,,,,blue,square
0.0,8.0,4.0,1.0,6.0,6.0,488.7458190023608,3.0,1.0,phase_2,go,450.0,400.0,1.0,,,,,,,,,green,cross
0.0,3.0,3.0,0.0,6.0,6.0,367.2265929999412,3.0,1.0,phase_2,go,450.0,400.0,1.0,,,,,,,,,yellow,circle
0.0,8.0,4.0,1.0,5.0,5.0,589.3352599996433,3.0,1.0,phase_2,stop,450.0,400.0,3.0,,,,,,,,,green,cross
0.0,2.0,2.0,0.0,5.0,5.0,848.7126809995971,3.0,1.0,phase_2,go,400.0,400.0,1.0,,,,,,,,,blue,square
0.0,2.0,2.0,0.0,6.0,6.0,569.3131430016365,3.0,1.0,phase_2,go,400.0,400.0,1.0,,,,,,,,,blue,square
0.0,1.0,1.0,0.0,5.0,5.0,616.8638860035571,3.0,1.0,phase_2,go,400.0,400.0,1.0,,,,,,,,,white,flipped triangle
0.0,4.0,4.0,0.0,6.0,6.0,540.0754239999515,3.0,1.0,phase_2,go,400.0,400.0,1.0,,,,,,,,,magenta,I
0.0,2.0,2.0,0.0,5.0,5.0,579.0804360003676,3.0,1.0,phase_2,go,400.0,400.0,1.0,,,,,,,,,blue,square
0.0,7.0,3.0,1.0,5.0,5.0,514.325774001918,3.0,1.0,phase_2,stop,400.0,400.0,3.0,,,,,,,,,gray,hexagon
0.0,8.0,4.0,1.0,6.0,0.0,0.0,3.0,1.0,phase_2,stop,350.0,400.0,4.0,,,,,,,,,green,cross
0.0,4.0,4.0,0.0,5.0,5.0,598.8672669991502,3.0,1.0,phase_2,go,350.0,450.0,1.0,,,,,,,,,magenta,I
0.0,7.0,3.0,1.0,5.0,0.0,0.0,3.0,1.0,phase_2,stop,350.0,450.0,4.0,,,,,,,,,gray,hexagon
0.0,4.0,4.0,0.0,6.0,6.0,621.777813998051,3.0,1.0,phase_2,go,400.0,450.0,1.0,,,,,,,,,magenta,I
0.0,2.0,2.0,0.0,5.0,5.0,525.3651940001873,3.0,1.0,phase_2,go,400.0,450.0,1.0,,,,,,,,,blue,square
0.0,8.0,4.0,1.0,5.0,5.0,518.6446670013538,3.0,1.0,phase_2,go,400.0,450.0,1.0,,,,,,,,,green,cross
0.0,8.0,4.0,1.0,6.0,6.0,332.9181160006556,3.0,1.0,phase_2,stop,400.0,450.0,3.0,,,,,,,,,green,cross
0.0,5.0,1.0,1.0,5.0,0.0,0.0,3.0,1.0,phase_2,stop,400.0,400.0,4.0,,,,,,,,,orange,triangle
0.0,1.0,1.0,0.0,6.0,6.0,611.5854710005806,3.0,1.0,phase_2,go,450.0,400.0,1.0,,,,,,,,,white,flipped triangle
0.0,5.0,1.0,1.0,5.0,5.0,752.4877630021365,3.0,1.0,phase_2,go,450.0,400.0,1.0,,,,,,,,,orange,triangle
0.0,4.0,4.0,0.0,6.0,6.0,417.8011379990494,3.0,1.0,phase_2,go,450.0,400.0,1.0,,,,,,,,,magenta,I
0.0,6.0,2.0,1.0,5.0,5.0,618.0847910000011,3.0,1.0,phase_2,go,450.0,400.0,1.0,,,,,,,,,cyan,diamond
0.0,1.0,1.0,0.0,6.0,6.0,298.1523080015904,3.0,1.0,phase_2,go,450.0,400.0,1.0,,,,,,,,,white,flipped triangle
0.0,6.0,2.0,1.0,6.0,6.0,383.0872159996943,3.0,1.0,phase_2,go,450.0,400.0,1.0,,,,,,,,,cyan,diamond
0.0,8.0,4.0,1.0,6.0,6.0,381.4111730025615,3.0,1.0,phase_2,go,450.0,400.0,1.0,,,,,,,,,green,cross
0.0,3.0,3.0,0.0,6.0,6.0,392.1622220004792,3.0,1.0,phase_2,go,450.0,400.0,1.0,,,,,,,,,yellow,circle
0.0,7.0,3.0,1.0,5.0,0.0,0.0,3.0,1.0,phase_2,stop,450.0,400.0,4.0,,,,,,,,,gray,hexagon
0.0,2.0,2.0,0.0,5.0,5.0,541.4324939993094,3.0,1.0,phase_2,go,500.0,400.0,1.0,,,,,,,,,blue,square
0.0,4.0,4.0,0.0,6.0,6.0,558.0946500012942,3.0,1.0,phase_2,go,500.0,400.0,1.0,,,,,,,,,magenta,I
0.0,5.0,1.0,1.0,5.0,5.0,672.511550001218,3.0,1.0,phase_2,stop,500.0,400.0,3.0,,,,,,,,,orange,triangle
0.0,2.0,2.0,0.0,5.0,5.0,894.0535180008737,3.0,1.0,phase_2,go,450.0,400.0,1.0,,,,,,,,,blue,square
0.0,5.0,1.0,1.0,6.0,6.0,767.8866089991061,4.0,1.0,phase_2,go,450.0,400.0,1.0,,,,,,,,,orange,triangle
0.0,8.0,4.0,1.0,5.0,5.0,317.7937679975002,4.0,1.0,phase_2,go,450.0,400.0,1.0,,,,,,,,,green,cross
0.0,8.0,4.0,1.0,5.0,5.0,369.6482639970782,4.0,1.0,phase_2,stop,450.0,400.0,3.0,,,,,,,,,green,cross
0.0,3.0,3.0,0.0,6.0,6.0,741.068045997963,4.0,1.0,phase_2,go,400.0,400.0,1.0,,,,,,,,,yellow,circle
0.0,8.0,4.0,1.0,6.0,6.0,549.7815140006423,4.0,1.0,phase_2,stop,400.0,400.0,3.0,,,,,,,,,green,cross
0.0,6.0,2.0,1.0,6.0,0.0,0.0,4.0,1.0,phase_2,stop,400.0,350.0,4.0,,,,,,,,,cyan,diamond
0.0,1.0,1.0,0.0,5.0,5.0,593.2426360013778,4.0,1.0,phase_2,go,400.0,400.0,1.0,,,,,,,,,white,flipped triangle
0.0,4.0,4.0,0.0,6.0,6.0,595.7037709995348,4.0,1.0,phase_2,go,400.0,400.0,1.0,,,,,,,,,magenta,I
0.0,5.0,1.0,1.0,5.0,5.0,591.5064920009172,4.0,1.0,phase_2,go,400.0,400.0,1.0,,,,,,,,,orange,triangle
0.0,5.0,1.0,1.0,5.0,0.0,0.0,4.0,1.0,phase_2,stop,400.0,400.0,4.0,,,,,,,,,orange,triangle
0.0,1.0,1.0,0.0,5.0,5.0,958.519353000156,4.0,1.0,phase_2,go,450.0,400.0,1.0,,,,,,,,,white,flipped triangle
0.0,5.0,1.0,1.0,6.0,0.0,0.0,4.0,1.0,phase_2,stop,450.0,400.0,4.0,,,,,,,,,orange,triangle
0.0,7.0,3.0,1.0,6.0,6.0,724.0421120004612,4.0,1.0,phase_2,go,450.0,450.0,1.0,,,,,,,,,gray,hexagon
0.0,6.0,2.0,1.0,5.0,5.0,511.80088100227294,4.0,1.0,phase_2,stop,450.0,450.0,3.0,,,,,,,,,cyan,diamond
0.0,7.0,3.0,1.0,6.0,0.0,0.0,4.0,1.0,phase_2,stop,400.0,450.0,4.0,,,,,,,,,gray,hexagon
0.0,5.0,1.0,1.0,6.0,0.0,0.0,4.0,1.0,phase_2,stop,400.0,500.0,4.0,,,,,,,,,orange,triangle
0.0,7.0,3.0,1.0,6.0,6.0,880.4964090013527,4.0,1.0,phase_2,go,400.0,550.0,1.0,,,,,,,,,gray,hexagon
0.0,6.0,2.0,1.0,6.0,0.0,0.0,4.0,1.0,phase_2,stop,400.0,550.0,4.0,,,,,,,,,cyan,diamond
0.0,3.0,3.0,0.0,6.0,6.0,1032.67835600127,4.0,1.0,phase_2,go,400.0,600.0,1.0,,,,,,,,,yellow,circle
0.0,6.0,2.0,1.0,6.0,0.0,0.0,4.0,1.0,phase_2,stop,400.0,600.0,4.0,,,,,,,,,cyan,diamond
0.0,5.0,1.0,1.0,6.0,6.0,949.2167120006344,4.0,1.0,phase_2,go,400.0,650.0,1.0,,,,,,,,,orange,triangle
0.0,1.0,1.0,0.0,6.0,6.0,931.6598330005944,4.0,1.0,phase_2,go,400.0,650.0,1.0,,,,,,,,,white,flipped triangle
0.0,1.0,1.0,0.0,6.0,6.0,740.9554420009954,4.0,1.0,phase_2,go,400.0,650.0,1.0,,,,,,,,,white,flipped triangle
0.0,3.0,3.0,0.0,5.0,5.0,875.1446259993827,4.0,1.0,phase_2,go,400.0,650.0,1.0,,,,,,,,,yellow,circle
0.0,2.0,2.0,0.0,5.0,5.0,590.3440389993193,4.0,1.0,phase_2,go,400.0,650.0,1.0,,,,,,,,,blue,square
0.0,5.0,1.0,1.0,6.0,6.0,397.0653260003018,4.0,1.0,phase_2,stop,400.0,650.0,3.0,,,,,,,,,orange,triangle
0.0,1.0,1.0,0.0,6.0,6.0,1025.2292879995366,4.0,1.0,phase_2,go,400.0,600.0,1.0,,,,,,,,,white,flipped triangle
0.0,7.0,3.0,1.0,5.0,5.0,807.4844679977105,4.0,1.0,phase_2,go,400.0,600.0,1.0,,,,,,,,,gray,hexagon
0.0,4.0,4.0,0.0,5.0,5.0,916.2293759982276,4.0,1.0,phase_2,go,400.0,600.0,1.0,,,,,,,,,magenta,I
0.0,3.0,3.0,0.0,5.0,5.0,704.6408240021265,4.0,1.0,phase_2,go,400.0,600.0,1.0,,,,,,,,,yellow,circle
0.0,3.0,3.0,0.0,5.0,5.0,530.5348379988573,4.0,1.0,phase_2,go,400.0,600.0,1.0,,,,,,,,,yellow,circle
0.0,6.0,2.0,1.0,6.0,0.0,0.0,4.0,1.0,phase_2,stop,400.0,600.0,4.0,,,,,,,,,cyan,diamond
0.0,3.0,3.0,0.0,6.0,6.0,840.9160230003181,4.0,1.0,phase_2,go,400.0,650.0,1.0,,,,,,,,,yellow,circle
0.0,6.0,2.0,1.0,5.0,5.0,986.0499820024417,4.0,1.0,phase_2,go,400.0,650.0,1.0,,,,,,,,,cyan,diamond
0.0,7.0,3.0,1.0,6.0,6.0,574.9940760033496,4.0,1.0,phase_2,stop,400.0,650.0,3.0,,,,,,,,,gray,hexagon
0.0,7.0,3.0,1.0,5.0,5.0,981.064906998654,4.0,1.0,phase_2,go,400.0,600.0,1.0,,,,,,,,,gray,hexagon
0.0,2.0,2.0,0.0,5.0,5.0,423.8719579989265,5.0,1.0,phase_2,go,400.0,600.0,1.0,,,,,,,,,blue,square
0.0,7.0,3.0,1.0,5.0,5.0,330.4433379998954,5.0,1.0,phase_2,stop,400.0,600.0,3.0,,,,,,,,,gray,hexagon
0.0,3.0,3.0,0.0,5.0,5.0,427.0448349998332,5.0,1.0,phase_2,go,350.0,600.0,1.0,,,,,,,,,yellow,circle
0.0,5.0,1.0,1.0,5.0,5.0,732.6955659991654,5.0,1.0,phase_2,go,350.0,600.0,1.0,,,,,,,,,orange,triangle
0.0,6.0,2.0,1.0,5.0,5.0,311.2893950019497,5.0,1.0,phase_2,stop,350.0,600.0,3.0,,,,,,,,,cyan,diamond
0.0,3.0,3.0,0.0,6.0,6.0,585.3186670028663,5.0,1.0,phase_2,go,300.0,600.0,1.0,,,,,,,,,yellow,circle
0.0,6.0,2.0,1.0,6.0,6.0,368.1785459993989,5.0,1.0,phase_2,stop,300.0,600.0,3.0,,,,,,,,,cyan,diamond
0.0,1.0,1.0,0.0,5.0,5.0,643.2332250005857,5.0,1.0,phase_2,go,300.0,550.0,1.0,,,,,,,,,white,flipped triangle
0.0,4.0,4.0,0.0,5.0,5.0,584.525157999451,5.0,1.0,phase_2,go,300.0,550.0,1.0,,,,,,,,,magenta,I
0.0,1.0,1.0,0.0,6.0,6.0,585.5546320017311,5.0,1.0,phase_2,go,300.0,550.0,1.0,,,,,,,,,white,flipped triangle
0.0,8.0,4.0,1.0,5.0,0.0,0.0,5.0,1.0,phase_2,stop,300.0,550.0,4.0,,,,,,,,,green,cross
0.0,5.0,1.0,1.0,5.0,0.0,0.0,5.0,1.0,phase_2,stop,350.0,550.0,4.0,,,,,,,,,orange,triangle
0.0,7.0,3.0,1.0,6.0,6.0,669.8585729973274,5.0,1.0,phase_2,stop,400.0,550.0,3.0,,,,,,,,,gray,hexagon
0.0,7.0,3.0,1.0,5.0,5.0,1118.0865099995572,5.0,1.0,phase_2,go,400.0,500.0,1.0,,,,,,,,,gray,hexagon
0.0,7.0,3.0,1.0,5.0,5.0,776.1628980006208,5.0,1.0,phase_2,go,400.0,500.0,1.0,,,,,,,,,gray,hexagon
0.0,3.0,3.0,0.0,5.0,5.0,602.6913019995845,5.0,1.0,phase_2,go,400.0,500.0,1.0,,,,,,,,,yellow,circle
0.0,1.0,1.0,0.0,5.0,5.0,679.8600959991745,5.0,1.0,phase_2,go,400.0,500.0,1.0,,,,,,,,,white,flipped triangle
0.0,2.0,2.0,0.0,5.0,5.0,552.5242319999961,5.0,1.0,phase_2,go,400.0,500.0,1.0,,,,,,,,,blue,square
0.0,3.0,3.0,0.0,6.0,6.0,317.5240800010215,5.0,1.0,phase_2,go,400.0,500.0,1.0,,,,,,,,,yellow,circle
0.0,5.0,1.0,1.0,6.0,6.0,535.4151959982119,5.0,1.0,phase_2,stop,400.0,500.0,3.0,,,,,,,,,orange,triangle
0.0,1.0,1.0,0.0,6.0,6.0,780.5736370028171,5.0,1.0,phase_2,go,400.0,450.0,1.0,,,,,,,,,white,flipped triangle
0.0,6.0,2.0,1.0,5.0,0.0,0.0,5.0,1.0,phase_2,stop,400.0,450.0,4.0,,,,,,,,,cyan,diamond
0.0,8.0,4.0,1.0,5.0,0.0,0.0,5.0,1.0,phase_2,stop,450.0,450.0,4.0,,,,,,,,,green,cross
0.0,6.0,2.0,1.0,5.0,0.0,0.0,5.0,1.0,phase_2,stop,500.0,450.0,4.0,,,,,,,,,cyan,diamond
0.0,2.0,2.0,0.0,6.0,6.0,385.7432149998203,5.0,1.0,phase_2,go,550.0,450.0,1.0,,,,,,,,,blue,square
0.0,2.0,2.0,0.0,5.0,5.0,552.7423229978012,5.0,1.0,phase_2,go,550.0,450.0,1.0,,,,,,,,,blue,square
0.0,7.0,3.0,1.0,6.0,6.0,297.4025260009512,5.0,1.0,phase_2,stop,550.0,450.0,3.0,,,,,,,,,gray,hexagon
0.0,8.0,4.0,1.0,5.0,0.0,0.0,5.0,1.0,phase_2,stop,550.0,400.0,4.0,,,,,,,,,green,cross
0.0,6.0,2.0,1.0,6.0,6.0,787.9050900010043,5.0,1.0,phase_2,go,600.0,400.0,1.0,,,,,,,,,cyan,diamond
0.0,7.0,3.0,1.0,5.0,0.0,0.0,5.0,1.0,phase_2,stop,600.0,400.0,4.0,,,,,,,,,gray,hexagon
0.0,3.0,3.0,0.0,5.0,5.0,760.2397170012409,5.0,1.0,phase_2,go,650.0,400.0,1.0,,,,,,,,,yellow,circle
0.0,1.0,1.0,0.0,5.0,5.0,708.91347900033,5.0,1.0,phase_2,go,650.0,400.0,1.0,,,,,,,,,white,flipped triangle
0.0,6.0,2.0,1.0,6.0,6.0,320.4047170002013,5.0,1.0,phase_2,stop,650.0,400.0,3.0,,,,,,,,,cyan,diamond
0.0,8.0,4.0,1.0,6.0,0.0,0.0,5.0,1.0,phase_2,stop,650.0,350.0,4.0,,,,,,,,,green,cross
0.0,7.0,3.0,1.0,5.0,5.0,646.2885239998286,5.0,1.0,phase_2,go,650.0,400.0,1.0,,,,,,,,,gray,hexagon
0.0,8.0,4.0,1.0,6.0,0.0,0.0,5.0,1.0,phase_2,stop,650.0,400.0,4.0,,,,,,,,,green,cross
0.0,5.0,1.0,1.0,5.0,5.0,424.5658149993687,6.0,1.0,phase_2,stop,650.0,450.0,3.0,,,,,,,,,orange,triangle
0.0,4.0,4.0,0.0,6.0,6.0,671.9072960004269,6.0,1.0,phase_2,go,600.0,450.0,1.0,,,,,,,,,magenta,I
0.0,3.0,3.0,0.0,5.0,5.0,641.7707660002634,6.0,1.0,phase_2,go,600.0,450.0,1.0,,,,,,,,,yellow,circle
0.0,7.0,3.0,1.0,5.0,5.0,521.1195660012891,6.0,1.0,phase_2,stop,600.0,450.0,3.0,,,,,,,,,gray,hexagon
0.0,3.0,3.0,0.0,6.0,6.0,866.8065210003988,6.0,1.0,phase_2,go,550.0,450.0,1.0,,,,,,,,,yellow,circle
0.0,7.0,3.0,1.0,6.0,0.0,0.0,6.0,1.0,phase_2,stop,550.0,450.0,4.0,,,,,,,,,gray,hexagon
0.0,4.0,4.0,0.0,6.0,6.0,666.1962600010156,6.0,1.0,phase_2,go,550.0,500.0,1.0,,,,,,,,,magenta,I
0.0,8.0,4.0,1.0,6.0,6.0,538.6821719985164,6.0,1.0,phase_2,stop,550.0,500.0,3.0,,,,,,,,,green,cross
0.0,3.0,3.0,0.0,5.0,5.0,943.4216359986748,6.0,1.0,phase_2,go,550.0,450.0,1.0,,,,,,,,,yellow,circle
0.0,5.0,1.0,1.0,6.0,0.0,0.0,6.0,1.0,phase_2,stop,550.0,450.0,4.0,,,,,,,,,orange,triangle
0.0,4.0,4.0,0.0,6.0,6.0,940.067089002696,6.0,1.0,phase_2,go,550.0,500.0,1.0,,,,,,,,,magenta,I
0.0,6.0,2.0,1.0,5.0,5.0,636.9161470029212,6.0,1.0,phase_2,stop,550.0,500.0,3.0,,,,,,,,,cyan,diamond
0.0,5.0,1.0,1.0,5.0,0.0,0.0,6.0,1.0,phase_2,stop,500.0,500.0,4.0,,,,,,,,,orange,triangle
0.0,4.0,4.0,0.0,5.0,5.0,897.6279480011726,6.0,1.0,phase_2,go,550.0,500.0,1.0,,,,,,,,,magenta,I
0.0,3.0,3.0,0.0,6.0,6.0,803.0981869997049,6.0,1.0,phase_2,go,550.0,500.0,1.0,,,,,,,,,yellow,circle
0.0,6.0,2.0,1.0,5.0,5.0,710.3056509986345,6.0,1.0,phase_2,stop,550.0,500.0,3.0,,,,,,,,,cyan,diamond
0.0,7.0,3.0,1.0,6.0,0.0,0.0,6.0,1.0,phase_2,stop,500.0,500.0,4.0,,,,,,,,,gray,hexagon
0.0,4.0,4.0,0.0,5.0,5.0,1007.9761230008444,6.0,1.0,phase_2,go,500.0,550.0,1.0,,,,,,,,,magenta,I
0.0,5.0,1.0,1.0,6.0,6.0,941.883109000628,6.0,1.0,phase_2,go,500.0,550.0,1.0,,,,,,,,,orange,triangle
0.0,4.0,4.0,0.0,5.0,5.0,862.2409670024354,6.0,1.0,phase_2,go,500.0,550.0,1.0,,,,,,,,,magenta,I
0.0,2.0,2.0,0.0,6.0,6.0,744.9295810001786,6.0,1.0,phase_2,go,500.0,550.0,1.0,,,,,,,,,blue,square
0.0,8.0,4.0,1.0,5.0,0.0,0.0,6.0,1.0,phase_2,stop,500.0,550.0,4.0,,,,,,,,,green,cross
0.0,1.0,1.0,0.0,5.0,5.0,909.695477999776,6.0,1.0,phase_2,go,550.0,550.0,1.0,,,,,,,,,white,flipped triangle
0.0,6.0,2.0,1.0,5.0,5.0,362.7222280010755,6.0,1.0,phase_2,stop,550.0,550.0,3.0,,,,,,,,,cyan,diamond
0.0,7.0,3.0,1.0,6.0,6.0,947.5927530002082,6.0,1.0,phase_2,go,500.0,550.0,1.0,,,,,,,,,gray,hexagon
0.0,5.0,1.0,1.0,6.0,0.0,0.0,6.0,1.0,phase_2,stop,500.0,550.0,4.0,,,,,,,,,orange,triangle
0.0,5.0,1.0,1.0,5.0,0.0,0.0,6.0,1.0,phase_2,stop,500.0,600.0,4.0,,,,,,,,,orange,triangle
0.0,1.0,1.0,0.0,6.0,6.0,640.5150270002196,6.0,1.0,phase_2,go,550.0,600.0,1.0,,,,,,,,,white,flipped triangle
0.0,6.0,2.0,1.0,5.0,0.0,0.0,6.0,1.0,phase_2,stop,550.0,600.0,4.0,,,,,,,,,cyan,diamond
0.0,1.0,1.0,0.0,6.0,6.0,910.7573760011292,6.0,1.0,phase_2,go,600.0,600.0,1.0,,,,,,,,,white,flipped triangle
0.0,3.0,3.0,0.0,5.0,5.0,735.3127450005559,6.0,1.0,phase_2,go,600.0,600.0,1.0,,,,,,,,,yellow,circle
0.0,7.0,3.0,1.0,6.0,0.0,0.0,6.0,1.0,phase_2,stop,600.0,600.0,4.0,,,,,,,,,gray,hexagon
0.0,5.0,1.0,1.0,5.0,5.0,740.5394419984077,6.0,1.0,phase_2,stop,600.0,650.0,3.0,,,,,,,,,orange,triangle
0.0,5.0,1.0,1.0,5.0,0.0,0.0,6.0,1.0,phase_2,stop,550.0,650.0,4.0,,,,,,,,,orange,triangle
0.0,3.0,3.0,0.0,6.0,6.0,865.445888000977,6.0,1.0,phase_2,go,600.0,650.0,1.0,,,,,,,,,yellow,circle
0.0,3.0,3.0,0.0,6.0,6.0,766.9391980016371,6.0,1.0,phase_2,go,600.0,650.0,1.0,,,,,,,,,yellow,circle
0.0,4.0,4.0,0.0,6.0,6.0,640.7809390002512,7.0,1.0,phase_2,go,600.0,650.0,1.0,,,,,,,,,magenta,I
0.0,1.0,1.0,0.0,5.0,5.0,722.3452539983555,7.0,1.0,phase_2,go,600.0,650.0,1.0,,,,,,,,,white,flipped triangle
0.0,2.0,2.0,0.0,6.0,6.0,338.966890998563,7.0,1.0,phase_2,go,600.0,650.0,1.0,,,,,,,,,blue,square
0.0,5.0,1.0,1.0,6.0,6.0,269.2750860005617,7.0,1.0,phase_2,stop,600.0,650.0,3.0,,,,,,,,,orange,triangle
0.0,8.0,4.0,1.0,6.0,6.0,733.5104230005527,7.0,1.0,phase_2,stop,600.0,600.0,3.0,,,,,,,,,green,cross
0.0,7.0,3.0,1.0,6.0,0.0,0.0,7.0,1.0,phase_2,stop,600.0,550.0,4.0,,,,,,,,,gray,hexagon
0.0,8.0,4.0,1.0,5.0,5.0,1103.538250001293,7.0,1.0,phase_2,go,600.0,600.0,1.0,,,,,,,,,green,cross
0.0,2.0,2.0,0.0,5.0,5.0,749.2083370016189,7.0,1.0,phase_2,go,600.0,600.0,1.0,,,,,,,,,blue,square
0.0,3.0,3.0,0.0,5.0,5.0,653.1794509974134,7.0,1.0,phase_2,go,600.0,600.0,1.0,,,,,,,,,yellow,circle
0.0,2.0,2.0,0.0,6.0,6.0,719.4195390002278,7.0,1.0,phase_2,go,600.0,600.0,1.0,,,,,,,,,blue,square
0.0,3.0,3.0,0.0,5.0,5.0,709.3768960003217,7.0,1.0,phase_2,go,600.0,600.0,1.0,,,,,,,,,yellow,circle
0.0,6.0,2.0,1.0,6.0,0.0,0.0,7.0,1.0,phase_2,stop,600.0,600.0,4.0,,,,,,,,,cyan,diamond
0.0,3.0,3.0,0.0,5.0,5.0,893.2792310006334,7.0,1.0,phase_2,go,600.0,650.0,1.0,,,,,,,,,yellow,circle
0.0,2.0,2.0,0.0,5.0,5.0,743.7604589977127,7.0,1.0,phase_2,go,600.0,650.0,1.0,,,,,,,,,blue,square
0.0,5.0,1.0,1.0,5.0,0.0,0.0,7.0,1.0,phase_2,stop,600.0,650.0,4.0,,,,,,,,,orange,triangle
0.0,1.0,1.0,0.0,6.0,6.0,923.5440359989298,7.0,1.0,phase_2,go,650.0,650.0,1.0,,,,,,,,,white,flipped triangle
0.0,6.0,2.0,1.0,6.0,6.0,642.7790590023506,7.0,1.0,phase_2,stop,650.0,650.0,3.0,,,,,,,,,cyan,diamond
0.0,3.0,3.0,0.0,5.0,5.0,930.1965150007164,7.0,1.0,phase_2,go,650.0,600.0,1.0,,,,,,,,,yellow,circle
0.0,1.0,1.0,0.0,5.0,5.0,767.6781819973257,7.0,1.0,phase_2,go,650.0,600.0,1.0,,,,,,,,,white,flipped triangle
0.0,5.0,1.0,1.0,6.0,6.0,885.9760129998904,7.0,1.0,phase_2,go,650.0,600.0,1.0,,,,,,,,,orange,triangle
0.0,7.0,3.0,1.0,6.0,6.0,647.8039719986555,7.0,1.0,phase_2,stop,650.0,600.0,3.0,,,,,,,,,gray,hexagon
0.0,6.0,2.0,1.0,5.0,0.0,0.0,7.0,1.0,phase_2,stop,650.0,550.0,4.0,,,,,,,,,cyan,diamond
0.0,2.0,2.0,0.0,6.0,6.0,900.9825280008954,7.0,1.0,phase_2,go,700.0,550.0,1.0,,,,,,,,,blue,square
0.0,2.0,2.0,0.0,5.0,5.0,874.920493002719,7.0,1.0,phase_2,go,700.0,550.0,1.0,,,,,,,,,blue,square
0.0,7.0,3.0,1.0,6.0,0.0,0.0,7.0,1.0,phase_2,stop,700.0,550.0,4.0,,,,,,,,,gray,hexagon
0.0,4.0,4.0,0.0,5.0,5.0,529.9814170030004,7.0,1.0,phase_2,go,700.0,600.0,1.0,,,,,,,,,magenta,I
0.0,5.0,1.0,1.0,5.0,5.0,637.8002269993885,7.0,1.0,phase_2,stop,700.0,600.0,3.0,,,,,,,,,orange,triangle
0.0,8.0,4.0,1.0,5.0,0.0,0.0,7.0,1.0,phase_2,stop,650.0,600.0,4.0,,,,,,,,,green,cross
0.0,4.0,4.0,0.0,5.0,5.0,1000.4794119995497,7.0,1.0,phase_2,go,700.0,600.0,1.0,,,,,,,,,magenta,I
0.0,4.0,4.0,0.0,5.0,5.0,947.7268040027412,7.0,1.0,phase_2,go,700.0,600.0,1.0,,,,,,,,,magenta,I
0.0,5.0,1.0,1.0,6.0,0.0,0.0,7.0,1.0,phase_2,stop,700.0,600.0,4.0,,,,,,,,,orange,triangle
0.0,8.0,4.0,1.0,5.0,0.0,0.0,7.0,1.0,phase_2,stop,700.0,650.0,4.0,,,,,,,,,green,cross
0.0,4.0,4.0,0.0,5.0,5.0,879.8038079985417,7.0,1.0,phase_2,go,750.0,650.0,1.0,,,,,,,,,magenta,I
0.0,2.0,2.0,0.0,5.0,5.0,862.7315599987924,7.0,1.0,phase_2,go,750.0,650.0,1.0,,,,,,,,,blue,square
0.0,3.0,3.0,0.0,6.0,6.0,908.9226230025816,7.0,1.0,phase_2,go,750.0,650.0,1.0,,,,,,,,,yellow,circle
0.0,6.0,2.0,1.0,6.0,0.0,0.0,7.0,1.0,phase_2,stop,750.0,650.0,4.0,,,,,,,,,cyan,diamond
0.0,8.0,4.0,1.0,6.0,6.0,539.4218500005081,8.0,1.0,phase_2,stop,750.0,700.0,3.0,,,,,,,,,green,cross
0.0,4.0,4.0,0.0,6.0,6.0,686.3270850008121,8.0,1.0,phase_2,go,750.0,650.0,1.0,,,,,,,,,magenta,I
0.0,8.0,4.0,1.0,6.0,6.0,611.833482998918,8.0,1.0,phase_2,go,750.0,650.0,1.0,,,,,,,,,green,cross
0.0,3.0,3.0,0.0,5.0,5.0,260.6246969990025,8.0,1.0,phase_2,go,750.0,650.0,1.0,,,,,,,,,yellow,circle
0.0,6.0,2.0,1.0,5.0,5.0,513.6091439999291,8.0,1.0,phase_2,stop,750.0,650.0,3.0,,,,,,,,,cyan,diamond
0.0,2.0,2.0,0.0,6.0,6.0,662.5789330028056,8.0,1.0,phase_2,go,700.0,650.0,1.0,,,,,,,,,blue,square
0.0,2.0,2.0,0.0,6.0,6.0,481.1278939996555,8.0,1.0,phase_2,go,700.0,650.0,1.0,,,,,,,,,blue,square
0.0,2.0,2.0,0.0,6.0,6.0,562.4942149988783,8.0,1.0,phase_2,go,700.0,650.0,1.0,,,,,,,,,blue,square
0.0,1.0,1.0,0.0,6.0,6.0,384.0436860009504,8.0,1.0,phase_2,go,700.0,650.0,1.0,,,,,,,,,white,flipped triangle
0.0,3.0,3.0,0.0,6.0,6.0,612.5716289971024,8.0,1.0,phase_2,go,700.0,650.0,1.0,,,,,,,,,yellow,circle
0.0,4.0,4.0,0.0,6.0,6.0,628.8076460004959,8.0,1.0,phase_2,go,700.0,650.0,1.0,,,,,,,,,magenta,I
0.0,4.0,4.0,0.0,6.0,6.0,647.0495670000673,8.0,1.0,phase_2,go,700.0,650.0,1.0,,,,,,,,,magenta,I
0.0,5.0,1.0,1.0,6.0,6.0,505.54671899953973,8.0,1.0,phase_2,stop,700.0,650.0,3.0,,,,,,,,,orange,triangle
0.0,1.0,1.0,0.0,6.0,6.0,327.224043001479,8.0,1.0,phase_2,go,700.0,600.0,1.0,,,,,,,,,white,flipped triangle
0.0,6.0,2.0,1.0,5.0,5.0,631.2826369976392,8.0,1.0,phase_2,stop,700.0,600.0,3.0,,,,,,,,,cyan,diamond
0.0,7.0,3.0,1.0,5.0,0.0,0.0,8.0,1.0,phase_2,stop,650.0,600.0,4.0,,,,,,,,,gray,hexagon
0.0,1.0,1.0,0.0,6.0,6.0,606.0411309990741,8.0,1.0,phase_2,go,700.0,600.0,1.0,,,,,,,,,white,flipped triangle
0.0,3.0,3.0,0.0,5.0,5.0,592.58719099671,8.0,1.0,phase_2,go,700.0,600.0,1.0,,,,,,,,,yellow,circle
0.0,6.0,2.0,1.0,6.0,6.0,580.45820299958,8.0,1.0,phase_2,stop,700.0,600.0,3.0,,,,,,,,,cyan,diamond
0.0,8.0,4.0,1.0,6.0,0.0,0.0,8.0,1.0,phase_2,stop,700.0,550.0,4.0,,,,,,,,,green,cross
0.0,4.0,4.0,0.0,6.0,6.0,891.244310001639,8.0,1.0,phase_2,go,700.0,600.0,1.0,,,,,,,,,magenta,I
0.0,2.0,2.0,0.0,6.0,6.0,662.9452609995496,8.0,1.0,phase_2,go,700.0,600.0,1.0,,,,,,,,,blue,square
0.0,6.0,2.0,1.0,5.0,5.0,517.0852639967052,8.0,1.0,phase_2,stop,700.0,600.0,3.0,,,,,,,,,cyan,diamond
0.0,3.0,3.0,0.0,6.0,6.0,700.0979889999144,8.0,1.0,phase_2,go,650.0,600.0,1.0,,,,,,,,,yellow,circle
0.0,6.0,2.0,1.0,5.0,5.0,719.8244550017989,8.0,1.0,phase_2,go,650.0,600.0,1.0,,,,,,,,,cyan,diamond
0.0,5.0,1.0,1.0,6.0,6.0,645.998526000767,8.0,1.0,phase_2,stop,650.0,600.0,3.0,,,,,,,,,orange,triangle
0.0,1.0,1.0,0.0,5.0,5.0,772.0416029987973,8.0,1.0,phase_2,go,650.0,550.0,1.0,,,,,,,,,white,flipped triangle
0.0,5.0,1.0,1.0,5.0,5.0,690.4477249991032,8.0,1.0,phase_2,stop,650.0,550.0,3.0,,,,,,,,,orange,triangle
0.0,3.0,3.0,0.0,6.0,6.0,941.331720998278,8.0,1.0,phase_2,go,600.0,550.0,1.0,,,,,,,,,yellow,circle
0.0,2.0,2.0,0.0,5.0,5.0,912.5074009971286,8.0,1.0,phase_2,go,600.0,550.0,1.0,,,,,,,,,blue,square
0.0,5.0,1.0,1.0,5.0,0.0,0.0,8.0,1.0,phase_2,stop,600.0,550.0,4.0,,,,,,,,,orange,triangle
0.0,8.0,4.0,1.0,6.0,0.0,0.0,8.0,1.0,phase_2,stop,650.0,550.0,4.0,,,,,,,,,green,cross
0.0,6.0,2.0,1.0,6.0,6.0,724.4615899981,8.0,1.0,phase_2,stop,650.0,600.0,3.0,,,,,,,,,cyan,diamond
0.0,7.0,3.0,1.0,5.0,5.0,815.2070989999629,8.0,1.0,phase_2,go,650.0,550.0,1.0,,,,,,,,,gray,hexagon
0.0,7.0,3.0,1.0,5.0,5.0,782.2453590015357,8.0,1.0,phase_2,stop,650.0,550.0,3.0,,,,,,,,,gray,hexagon
0.0,7.0,3.0,1.0,6.0,0.0,0.0,8.0,1.0,phase_2,stop,600.0,550.0,4.0,,,,,,,,,gray,hexagon
0.0,6.0,2.0,1.0,7.0,3.0,3851.2519409996457,1.0,1.0,phase_3,,,,,49.0,1.0,196.0,98.0,49.0,294.0,245.0,147.0,cyan,diamond
0.0,2.0,2.0,0.0,7.0,4.0,2647.532372000569,1.0,1.0,phase_3,,,,,264.0,6.0,88.0,132.0,44.0,264.0,220.0,176.0,blue,square
0.0,6.0,2.0,1.0,7.0,2.0,2066.680289000942,1.0,1.0,phase_3,,,,,156.0,4.0,234.0,156.0,39.0,117.0,78.0,195.0,cyan,diamond
0.0,2.0,2.0,0.0,7.0,5.0,4727.365686998382,1.0,1.0,phase_3,,,,,49.0,1.0,147.0,294.0,196.0,98.0,49.0,245.0,blue,square
0.0,4.0,4.0,0.0,7.0,1.0,2859.355286000209,1.0,1.0,phase_3,,,,,170.0,5.0,170.0,68.0,102.0,34.0,136.0,204.0,magenta,I
0.0,7.0,3.0,1.0,7.0,4.0,2992.258733000199,1.0,1.0,phase_3,,,,,220.0,5.0,88.0,264.0,44.0,220.0,176.0,132.0,gray,hexagon
0.0,2.0,2.0,0.0,7.0,6.0,1955.919238000206,1.0,1.0,phase_3,,,,,294.0,6.0,49.0,245.0,147.0,98.0,196.0,294.0,blue,square
0.0,5.0,1.0,1.0,7.0,3.0,3220.4162400012137,1.0,1.0,phase_3,,,,,234.0,6.0,117.0,78.0,234.0,39.0,156.0,195.0,orange,triangle
0.0,7.0,3.0,1.0,7.0,5.0,905.8445020018552,1.0,1.0,phase_3,,,,,324.0,6.0,270.0,54.0,162.0,108.0,324.0,216.0,gray,hexagon
0.0,3.0,3.0,0.0,7.0,1.0,1319.1409179999027,1.0,1.0,phase_3,,,,,54.0,1.0,54.0,162.0,270.0,108.0,324.0,216.0,yellow,circle
0.0,4.0,4.0,0.0,7.0,2.0,958.9147770020644,1.0,1.0,phase_3,,,,,196.0,4.0,147.0,196.0,49.0,294.0,245.0,98.0,magenta,I
0.0,7.0,3.0,1.0,7.0,3.0,2773.372704999929,1.0,1.0,phase_3,,,,,270.0,5.0,324.0,54.0,270.0,216.0,108.0,162.0,gray,hexagon
0.0,4.0,4.0,0.0,7.0,5.0,3179.5980889983184,1.0,1.0,phase_3,,,,,39.0,1.0,117.0,78.0,195.0,156.0,39.0,234.0,magenta,I
0.0,5.0,1.0,1.0,7.0,4.0,4304.394499999034,1.0,1.0,phase_3,,,,,294.0,6.0,49.0,147.0,245.0,294.0,98.0,196.0,orange,triangle
0.0,1.0,1.0,0.0,7.0,2.0,2578.5762220002653,1.0,1.0,phase_3,,,,,324.0,6.0,270.0,324.0,54.0,216.0,108.0,162.0,white,flipped triangle
0.0,6.0,2.0,1.0,7.0,3.0,3829.944428001909,1.0,1.0,phase_3,,,,,136.0,4.0,204.0,68.0,136.0,34.0,102.0,170.0,cyan,diamond
0.0,8.0,4.0,1.0,7.0,5.0,1539.8027039991575,1.0,1.0,phase_3,,,,,196.0,4.0,49.0,294.0,98.0,147.0,196.0,245.0,green,cross
0.0,8.0,4.0,1.0,7.0,5.0,1557.4974609990022,1.0,1.0,phase_3,,,,,204.0,6.0,136.0,102.0,34.0,68.0,204.0,170.0,green,cross
0.0,3.0,3.0,0.0,7.0,2.0,3113.822203999007,1.0,1.0,phase_3,,,,,294.0,6.0,196.0,294.0,98.0,147.0,49.0,245.0,yellow,circle
0.0,6.0,2.0,1.0,7.0,5.0,3196.3586489982845,1.0,1.0,phase_3,,,,,216.0,4.0,54.0,162.0,324.0,270.0,216.0,108.0,cyan,diamond
0.0,5.0,1.0,1.0,7.0,4.0,1644.9834289996943,2.0,1.0,phase_3,,,,,54.0,1.0,270.0,216.0,108.0,54.0,162.0,324.0,orange,triangle
0.0,3.0,3.0,0.0,7.0,5.0,1773.7051340009202,2.0,1.0,phase_3,,,,,220.0,5.0,132.0,176.0,44.0,264.0,220.0,88.0,yellow,circle
0.0,3.0,3.0,0.0,7.0,2.0,2391.5989699999045,2.0,1.0,phase_3,,,,,294.0,6.0,98.0,294.0,147.0,196.0,245.0,49.0,yellow,circle
0.0,3.0,3.0,0.0,7.0,6.0,2622.64531099936,2.0,1.0,phase_3,,,,,136.0,4.0,102.0,204.0,170.0,34.0,68.0,136.0,yellow,circle
0.0,3.0,3.0,0.0,7.0,1.0,2801.387692001299,2.0,1.0,phase_3,,,,,204.0,6.0,204.0,102.0,136.0,170.0,34.0,68.0,yellow,circle
0.0,1.0,1.0,0.0,7.0,4.0,2453.730049001024,2.0,1.0,phase_3,,,,,156.0,4.0,78.0,234.0,39.0,156.0,117.0,195.0,white,flipped triangle
0.0,4.0,4.0,0.0,7.0,5.0,2977.073655998538,2.0,1.0,phase_3,,,,,39.0,1.0,117.0,78.0,156.0,195.0,39.0,234.0,magenta,I
0.0,1.0,1.0,0.0,7.0,2.0,2585.8185550023336,2.0,1.0,phase_3,,,,,264.0,6.0,44.0,264.0,176.0,88.0,132.0,220.0,white,flipped triangle
0.0,5.0,1.0,1.0,7.0,3.0,2164.516126998933,2.0,1.0,phase_3,,,,,195.0,5.0,117.0,78.0,195.0,156.0,39.0,234.0,orange,triangle
0.0,8.0,4.0,1.0,7.0,5.0,2895.641490998969,2.0,1.0,phase_3,,,,,204.0,6.0,170.0,102.0,136.0,68.0,204.0,34.0,green,cross
0.0,6.0,2.0,1.0,7.0,2.0,1889.3020219984464,2.0,1.0,phase_3,,,,,98.0,2.0,245.0,98.0,196.0,49.0,147.0,294.0,cyan,diamond
0.0,3.0,3.0,0.0,7.0,5.0,3630.671156999597,2.0,1.0,phase_3,,,,,234.0,6.0,195.0,78.0,39.0,117.0,234.0,156.0,yellow,circle
0.0,8.0,4.0,1.0,7.0,4.0,2919.844375999673,2.0,1.0,phase_3,,,,,264.0,6.0,88.0,132.0,176.0,264.0,220.0,44.0,green,cross
0.0,4.0,4.0,0.0,7.0,2.0,3200.1593069981027,2.0,1.0,phase_3,,,,,245.0,5.0,147.0,245.0,294.0,196.0,49.0,98.0,magenta,I
0.0,2.0,2.0,0.0,7.0,3.0,1951.7380059987768,2.0,1.0,phase_3,,,,,68.0,2.0,170.0,34.0,68.0,204.0,136.0,102.0,blue,square
0.0,4.0,4.0,0.0,7.0,5.0,3629.176972001005,2.0,1.0,phase_3,,,,,34.0,1.0,68.0,170.0,102.0,136.0,34.0,204.0,magenta,I
0.0,2.0,2.0,0.0,7.0,2.0,2286.414419999346,2.0,1.0,phase_3,,,,,324.0,6.0,54.0,324.0,108.0,216.0,162.0,270.0,blue,square
0.0,8.0,4.0,1.0,7.0,4.0,3188.0913830027566,2.0,1.0,phase_3,,,,,245.0,5.0,147.0,49.0,294.0,245.0,196.0,98.0,green,cross
0.0,4.0,4.0,0.0,7.0,4.0,1436.6331880009966,2.0,1.0,phase_3,,,,,44.0,1.0,264.0,220.0,176.0,44.0,132.0,88.0,magenta,I
0.0,1.0,1.0,0.0,7.0,3.0,2630.8880530013994,2.0,1.0,phase_3,,,,,34.0,1.0,136.0,102.0,34.0,170.0,204.0,68.0,white,flipped triangle
0.0,5.0,1.0,1.0,7.0,4.0,1208.0855409985816,3.0,1.0,phase_3,,,,,204.0,6.0,170.0,68.0,136.0,204.0,102.0,34.0,orange,triangle
0.0,8.0,4.0,1.0,7.0,2.0,1465.3471799974795,3.0,1.0,phase_3,,,,,117.0,3.0,234.0,117.0,156.0,195.0,39.0,78.0,green,cross
0.0,4.0,4.0,0.0,7.0,5.0,1921.430849000899,3.0,1.0,phase_3,,,,,44.0,1.0,88.0,220.0,176.0,264.0,44.0,132.0,magenta,I
0.0,3.0,3.0,0.0,7.0,4.0,3105.257792001794,3.0,1.0,phase_3,,,,,132.0,3.0,88.0,264.0,220.0,132.0,44.0,176.0,yellow,circle
0.0,6.0,2.0,1.0,7.0,5.0,3339.164487999369,3.0,1.0,phase_3,,,,,156.0,4.0,117.0,78.0,234.0,39.0,156.0,195.0,cyan,diamond
0.0,7.0,3.0,1.0,7.0,2.0,1563.1076760000724,3.0,1.0,phase_3,,,,,34.0,1.0,204.0,34.0,102.0,68.0,170.0,136.0,gray,hexagon
0.0,1.0,1.0,0.0,7.0,4.0,2087.8451710013906,3.0,1.0,phase_3,,,,,176.0,4.0,44.0,220.0,88.0,176.0,264.0,132.0,white,flipped triangle
0.0,5.0,1.0,1.0,7.0,2.0,3024.768977000349,3.0,1.0,phase_3,,,,,220.0,5.0,176.0,220.0,132.0,264.0,88.0,44.0,orange,triangle
0.0,6.0,2.0,1.0,7.0,4.0,1672.5397199988947,3.0,1.0,phase_3,,,,,270.0,5.0,108.0,324.0,162.0,270.0,54.0,216.0,cyan,diamond
0.0,8.0,4.0,1.0,7.0,2.0,3352.3189110019302,3.0,1.0,phase_3,,,,,216.0,4.0,54.0,216.0,324.0,270.0,108.0,162.0,green,cross
0.0,2.0,2.0,0.0,7.0,5.0,3714.973924998049,3.0,1.0,phase_3,,,,,162.0,3.0,108.0,270.0,216.0,324.0,162.0,54.0,blue,square
0.0,1.0,1.0,0.0,7.0,1.0,2391.739527000027,3.0,1.0,phase_3,,,,,195.0,5.0,195.0,234.0,117.0,39.0,156.0,78.0,white,flipped triangle
0.0,2.0,2.0,0.0,7.0,5.0,3080.5660900005023,3.0,1.0,phase_3,,,,,176.0,4.0,132.0,44.0,220.0,88.0,176.0,264.0,blue,square
0.0,4.0,4.0,0.0,7.0,2.0,1789.5369430007122,3.0,1.0,phase_3,,,,,270.0,5.0,162.0,270.0,108.0,54.0,324.0,216.0,magenta,I
0.0,5.0,1.0,1.0,7.0,3.0,1467.406118998042,3.0,1.0,phase_3,,,,,68.0,2.0,136.0,204.0,68.0,34.0,170.0,102.0,orange,triangle
0.0,1.0,1.0,0.0,7.0,2.0,3228.755195999838,3.0,1.0,phase_3,,,,,245.0,5.0,49.0,245.0,98.0,294.0,147.0,196.0,white,flipped triangle
0.0,6.0,2.0,1.0,7.0,4.0,2837.2338119988854,3.0,1.0,phase_3,,,,,220.0,5.0,176.0,88.0,132.0,220.0,44.0,264.0,cyan,diamond
0.0,6.0,2.0,1.0,7.0,2.0,2509.0653320003184,3.0,1.0,phase_3,,,,,264.0,6.0,132.0,264.0,88.0,220.0,44.0,176.0,cyan,diamond
0.0,2.0,2.0,0.0,7.0,5.0,2637.7980050019687,3.0,1.0,phase_3,,,,,170.0,5.0,102.0,204.0,68.0,34.0,170.0,136.0,blue,square
0.0,3.0,3.0,0.0,7.0,2.0,3287.657450000552,3.0,1.0,phase_3,,,,,324.0,6.0,162.0,324.0,270.0,108.0,54.0,216.0,yellow,circle
0.0,2.0,2.0,0.0,7.0,2.0,1476.7403229998308,4.0,1.0,phase_3,,,,,156.0,4.0,78.0,156.0,117.0,39.0,195.0,234.0,blue,square
0.0,1.0,1.0,0.0,7.0,3.0,1766.8968469988613,4.0,1.0,phase_3,,,,,204.0,6.0,102.0,68.0,204.0,136.0,170.0,34.0,white,flipped triangle
0.0,7.0,3.0,1.0,7.0,5.0,3175.83369500062,4.0,1.0,phase_3,,,,,245.0,5.0,196.0,294.0,98.0,147.0,245.0,49.0,gray,hexagon
0.0,8.0,4.0,1.0,7.0,2.0,3493.732740997075,4.0,1.0,phase_3,,,,,195.0,5.0,234.0,195.0,78.0,156.0,117.0,39.0,green,cross
0.0,8.0,4.0,1.0,7.0,5.0,4524.422215999948,4.0,1.0,phase_3,,,,,216.0,4.0,54.0,324.0,162.0,270.0,216.0,108.0,green,cross
0.0,7.0,3.0,1.0,7.0,3.0,2300.5515100012417,4.0,1.0,phase_3,,,,,156.0,4.0,234.0,117.0,156.0,195.0,39.0,78.0,gray,hexagon
0.0,8.0,4.0,1.0,7.0,5.0,2521.689999000955,4.0,1.0,phase_3,,,,,44.0,1.0,220.0,88.0,176.0,132.0,44.0,264.0,green,cross
0.0,4.0,4.0,0.0,7.0,2.0,2322.4870689991803,4.0,1.0,phase_3,,,,,108.0,2.0,270.0,108.0,162.0,324.0,216.0,54.0,magenta,I
0.0,3.0,3.0,0.0,7.0,4.0,2629.4727269996656,4.0,1.0,phase_3,,,,,234.0,6.0,39.0,117.0,156.0,234.0,78.0,195.0,yellow,circle
0.0,7.0,3.0,1.0,7.0,3.0,2650.774794001336,4.0,1.0,phase_3,,,,,68.0,2.0,102.0,204.0,68.0,170.0,136.0,34.0,gray,hexagon
0.0,7.0,3.0,1.0,7.0,3.0,3136.628872998699,4.0,1.0,phase_3,,,,,78.0,2.0,156.0,39.0,78.0,234.0,195.0,117.0,gray,hexagon
0.0,7.0,3.0,1.0,7.0,6.0,2836.786060001032,4.0,1.0,phase_3,,,,,98.0,2.0,196.0,294.0,49.0,245.0,147.0,98.0,gray,hexagon
0.0,5.0,1.0,1.0,7.0,5.0,3183.875642000203,4.0,1.0,phase_3,,,,,196.0,4.0,98.0,147.0,49.0,245.0,196.0,294.0,orange,triangle
0.0,5.0,1.0,1.0,7.0,1.0,3531.7447490015184,4.0,1.0,phase_3,,,,,162.0,3.0,162.0,324.0,54.0,270.0,216.0,108.0,orange,triangle
0.0,1.0,1.0,0.0,7.0,3.0,2251.740895000694,4.0,1.0,phase_3,,,,,294.0,6.0,147.0,49.0,294.0,98.0,196.0,245.0,white,flipped triangle
0.0,5.0,1.0,1.0,7.0,6.0,2065.669245999743,4.0,1.0,phase_3,,,,,88.0,2.0,132.0,176.0,220.0,44.0,264.0,88.0,orange,triangle
0.0,7.0,3.0,1.0,7.0,3.0,3016.731133997382,4.0,1.0,phase_3,,,,,176.0,4.0,264.0,132.0,176.0,88.0,44.0,220.0,gray,hexagon
0.0,2.0,2.0,0.0,7.0,4.0,2491.226693000499,4.0,1.0,phase_3,,,,,156.0,4.0,234.0,39.0,78.0,156.0,195.0,117.0,blue,square
0.0,6.0,2.0,1.0,7.0,5.0,1529.7729350022564,4.0,1.0,phase_3,,,,,68.0,2.0,204.0,170.0,136.0,102.0,68.0,34.0,cyan,diamond
0.0,1.0,1.0,0.0,7.0,2.0,1331.0016060022465,4.0,1.0,phase_3,,,,,216.0,4.0,162.0,216.0,270.0,108.0,324.0,54.0,white,flipped triangle
