raw_reward_magnitude,stim_reward,stepwise_reward_magnitude,paired_with_stopping,quadrant,response,reaction_time,block,num_trial_presentations,which_part,stop_signal_trial_type,left_SSD,right_SSD,accuracy,chosen_bidding_amount,chosen_bidding_level,possible_bid_1,possible_bid_2,possible_bid_3,possible_bid_4,possible_bid_5,possible_bid_6,color_text,shape_text
408.0,8.0,4.0,1.0,3.0,3.0,479.4288729990512,1.0,1.0,part_1,,,,,,,,,,,,,blue,I
415.0,4.0,4.0,0.0,4.0,4.0,427.7701570008503,1.0,1.0,part_1,,,,,,,,,,,,,white,diamond
206.0,3.0,3.0,0.0,4.0,4.0,435.1521120006509,1.0,1.0,part_1,,,,,,,,,,,,,gray,circle
0.0,8.0,0.0,1.0,2.0,2.0,361.9079220006824,1.0,1.0,part_1,,,,,,,,,,,,,blue,I
190.0,3.0,3.0,0.0,4.0,4.0,442.3151170012716,1.0,1.0,part_1,,,,,,,,,,,,,gray,circle
214.0,3.0,3.0,0.0,3.0,3.0,356.1157720014307,1.0,1.0,part_1,,,,,,,,,,,,,gray,circle
105.0,6.0,2.0,1.0,2.0,2.0,425.82529199899,1.0,1.0,part_1,,,,,,,,,,,,,magenta,cross
186.0,3.0,3.0,0.0,3.0,3.0,361.140709999745,1.0,1.0,part_1,,,,,,,,,,,,,gray,circle
182.0,7.0,3.0,1.0,1.0,1.0,436.6452089998347,1.0,1.0,part_1,,,,,,,,,,,,,orange,triangle
221.0,7.0,3.0,1.0,3.0,3.0,336.24843600046,1.0,1.0,part_1,,,,,,,,,,,,,orange,triangle
42.0,1.0,1.0,0.0,3.0,3.0,351.1863769999763,1.0,1.0,part_1,,,,,,,,,,,,,green,hexagon
392.0,8.0,4.0,1.0,2.0,2.0,369.1266650002944,1.0,1.0,part_1,,,,,,,,,,,,,blue,I
401.0,8.0,4.0,1.0,2.0,2.0,385.0079829990136,1.0,1.0,part_1,,,,,,,,,,,,,blue,I
29.0,1.0,1.0,0.0,1.0,1.0,422.4746090003464,1.0,1.0,part_1,,,,,,,,,,,,,green,hexagon
398.0,4.0,4.0,0.0,3.0,3.0,348.3968279997498,1.0,1.0,part_1,,,,,,,,,,,,,white,diamond
0.0,3.0,0.0,0.0,1.0,1.0,358.8726369998767,1.0,1.0,part_1,,,,,,,,,,,,,gray,circle
0.0,7.0,0.0,1.0,2.0,2.0,413.0391159997089,1.0,1.0,part_1,,,,,,,,,,,,,orange,triangle
36.0,1.0,1.0,0.0,4.0,4.0,371.7447830003948,1.0,1.0,part_1,,,,,,,,,,,,,green,hexagon
35.0,1.0,1.0,0.0,4.0,4.0,345.0940940001601,1.0,1.0,part_1,,,,,,,,,,,,,green,hexagon
117.0,6.0,2.0,1.0,2.0,2.0,356.2787749997369,1.0,1.0,part_1,,,,,,,,,,,,,magenta,cross
125.0,2.0,2.0,0.0,1.0,1.0,274.5258800005103,1.0,1.0,part_1,,,,,,,,,,,,,yellow,flipped triangle
389.0,4.0,4.0,0.0,3.0,3.0,334.7071819989651,1.0,1.0,part_1,,,,,,,,,,,,,white,diamond
0.0,6.0,0.0,1.0,2.0,2.0,326.1554040000192,1.0,1.0,part_1,,,,,,,,,,,,,magenta,cross
410.0,4.0,4.0,0.0,1.0,1.0,334.6447160001844,1.0,1.0,part_1,,,,,,,,,,,,,white,diamond
186.0,3.0,3.0,0.0,2.0,2.0,331.3362400003825,1.0,1.0,part_1,,,,,,,,,,,,,gray,circle
0.0,4.0,0.0,0.0,1.0,1.0,385.2600959999108,1.0,1.0,part_1,,,,,,,,,,,,,white,diamond
395.0,4.0,4.0,0.0,3.0,3.0,333.7306140001601,1.0,1.0,part_1,,,,,,,,,,,,,white,diamond
415.0,8.0,4.0,1.0,1.0,1.0,379.707841999334,1.0,1.0,part_1,,,,,,,,,,,,,blue,I
68.0,1.0,1.0,0.0,4.0,4.0,356.7597550008941,1.0,1.0,part_1,,,,,,,,,,,,,green,hexagon
408.0,4.0,4.0,0.0,2.0,2.0,353.9908239999931,1.0,1.0,part_1,,,,,,,,,,,,,white,diamond
202.0,3.0,3.0,0.0,4.0,4.0,331.6048880005837,1.0,1.0,part_1,,,,,,,,,,,,,gray,circle
99.0,6.0,2.0,1.0,4.0,4.0,390.4172319998906,1.0,1.0,part_1,,,,,,,,,,,,,magenta,cross
37.0,1.0,1.0,0.0,2.0,2.0,296.4283540004544,1.0,1.0,part_1,,,,,,,,,,,,,green,hexagon
186.0,7.0,3.0,1.0,1.0,1.0,338.1852750007965,1.0,1.0,part_1,,,,,,,,,,,,,orange,triangle
56.0,1.0,1.0,0.0,3.0,3.0,320.6966430007014,1.0,1.0,part_1,,,,,,,,,,,,,green,hexagon
0.0,3.0,0.0,0.0,1.0,1.0,335.0945760012109,1.0,1.0,part_1,,,,,,,,,,,,,gray,circle
410.0,8.0,4.0,1.0,4.0,4.0,374.334167001507,1.0,1.0,part_1,,,,,,,,,,,,,blue,I
0.0,2.0,0.0,0.0,1.0,1.0,317.6854389985237,1.0,1.0,part_1,,,,,,,,,,,,,yellow,flipped triangle
85.0,6.0,2.0,1.0,1.0,1.0,379.5981969997228,1.0,1.0,part_1,,,,,,,,,,,,,magenta,cross
70.0,1.0,1.0,0.0,3.0,3.0,432.5921919989923,1.0,1.0,part_1,,,,,,,,,,,,,green,hexagon
184.0,7.0,3.0,1.0,2.0,2.0,337.982605000434,1.0,1.0,part_1,,,,,,,,,,,,,orange,triangle
81.0,6.0,2.0,1.0,1.0,1.0,317.5830290001613,1.0,1.0,part_1,,,,,,,,,,,,,magenta,cross
54.0,5.0,1.0,1.0,3.0,3.0,367.2967140009859,1.0,1.0,part_1,,,,,,,,,,,,,cyan,square
27.0,1.0,1.0,0.0,2.0,2.0,340.5503369995131,1.0,1.0,part_1,,,,,,,,,,,,,green,hexagon
61.0,5.0,1.0,1.0,2.0,2.0,379.3827330009662,1.0,1.0,part_1,,,,,,,,,,,,,cyan,square
0.0,4.0,0.0,0.0,4.0,4.0,341.0549180007365,1.0,1.0,part_1,,,,,,,,,,,,,white,diamond
0.0,6.0,0.0,1.0,3.0,3.0,460.9188100002939,1.0,1.0,part_1,,,,,,,,,,,,,magenta,cross
53.0,1.0,1.0,0.0,2.0,2.0,403.3870630009915,1.0,1.0,part_1,,,,,,,,,,,,,green,hexagon
66.0,1.0,1.0,0.0,2.0,2.0,399.4234940000751,1.0,1.0,part_1,,,,,,,,,,,,,green,hexagon
0.0,8.0,0.0,1.0,1.0,1.0,339.2352539995045,1.0,1.0,part_1,,,,,,,,,,,,,blue,I
191.0,3.0,3.0,0.0,2.0,2.0,394.217334998757,1.0,2.0,part_1,,,,,,,,,,,,,gray,circle
393.0,4.0,4.0,0.0,1.0,1.0,398.2994400012103,1.0,1.0,part_1,,,,,,,,,,,,,white,diamond
37.0,5.0,1.0,1.0,3.0,3.0,379.5176200001151,1.0,1.0,part_1,,,,,,,,,,,,,cyan,square
216.0,3.0,3.0,0.0,3.0,3.0,375.6588380001631,1.0,1.0,part_1,,,,,,,,,,,,,gray,circle
113.0,6.0,2.0,1.0,4.0,4.0,379.5624880003743,1.0,1.0,part_1,,,,,,,,,,,,,magenta,cross
105.0,2.0,2.0,0.0,1.0,1.0,371.5816460007772,1.0,1.0,part_1,,,,,,,,,,,,,yellow,flipped triangle
75.0,6.0,2.0,1.0,3.0,3.0,306.5138290003233,1.0,1.0,part_1,,,,,,,,,,,,,magenta,cross
0.0,5.0,0.0,1.0,1.0,1.0,365.948008999112,1.0,1.0,part_1,,,,,,,,,,,,,cyan,square
49.0,1.0,1.0,0.0,2.0,2.0,413.6893380000401,1.0,1.0,part_1,,,,,,,,,,,,,green,hexagon
202.0,7.0,3.0,1.0,3.0,3.0,335.1937099996576,1.0,1.0,part_1,,,,,,,,,,,,,orange,triangle
224.0,3.0,3.0,0.0,3.0,3.0,355.5991039993387,1.0,1.0,part_1,,,,,,,,,,,,,gray,circle
40.0,1.0,1.0,0.0,1.0,1.0,565.9631460002856,1.0,2.0,part_1,,,,,,,,,,,,,green,hexagon
61.0,1.0,1.0,0.0,2.0,2.0,418.4059580002213,1.0,1.0,part_1,,,,,,,,,,,,,green,hexagon
95.0,6.0,2.0,1.0,3.0,3.0,409.5883779991709,1.0,1.0,part_1,,,,,,,,,,,,,magenta,cross
384.0,8.0,4.0,1.0,1.0,1.0,445.1791369992861,1.0,1.0,part_1,,,,,,,,,,,,,blue,I
192.0,3.0,3.0,0.0,3.0,3.0,327.7829750004457,1.0,1.0,part_1,,,,,,,,,,,,,gray,circle
41.0,5.0,1.0,1.0,3.0,3.0,356.2710559999686,1.0,1.0,part_1,,,,,,,,,,,,,cyan,square
412.0,8.0,4.0,1.0,1.0,1.0,345.1134799997817,1.0,1.0,part_1,,,,,,,,,,,,,blue,I
186.0,7.0,3.0,1.0,2.0,2.0,389.1072789992904,1.0,1.0,part_1,,,,,,,,,,,,,orange,triangle
70.0,5.0,1.0,1.0,4.0,4.0,356.5341389985406,1.0,1.0,part_1,,,,,,,,,,,,,cyan,square
44.0,1.0,1.0,0.0,1.0,1.0,326.8090500005201,1.0,1.0,part_1,,,,,,,,,,,,,green,hexagon
0.0,5.0,0.0,1.0,4.0,4.0,402.8897859989229,1.0,1.0,part_1,,,,,,,,,,,,,cyan,square
120.0,6.0,2.0,1.0,2.0,2.0,385.7851310003752,1.0,1.0,part_1,,,,,,,,,,,,,magenta,cross
115.0,2.0,2.0,0.0,1.0,1.0,319.9105099993176,1.0,1.0,part_1,,,,,,,,,,,,,yellow,flipped triangle
54.0,1.0,1.0,0.0,1.0,1.0,303.3041700000467,1.0,1.0,part_1,,,,,,,,,,,,,green,hexagon
186.0,3.0,3.0,0.0,3.0,3.0,352.2143809987028,1.0,1.0,part_1,,,,,,,,,,,,,gray,circle
184.0,7.0,3.0,1.0,4.0,4.0,327.1682430004148,1.0,1.0,part_1,,,,,,,,,,,,,orange,triangle
34.0,5.0,1.0,1.0,4.0,4.0,481.9191610004054,1.0,1.0,part_1,,,,,,,,,,,,,cyan,square
0.0,2.0,0.0,0.0,3.0,3.0,448.197503999836,1.0,1.0,part_1,,,,,,,,,,,,,yellow,flipped triangle
40.0,1.0,1.0,0.0,3.0,3.0,409.2781170002126,1.0,1.0,part_1,,,,,,,,,,,,,green,hexagon
64.0,1.0,1.0,0.0,1.0,1.0,386.7174759998306,1.0,1.0,part_1,,,,,,,,,,,,,green,hexagon
45.0,1.0,1.0,0.0,3.0,3.0,374.6239770007378,1.0,1.0,part_1,,,,,,,,,,,,,green,hexagon
99.0,2.0,2.0,0.0,3.0,3.0,375.6108119996497,1.0,1.0,part_1,,,,,,,,,,,,,yellow,flipped triangle
178.0,3.0,3.0,0.0,2.0,2.0,431.095607998941,1.0,1.0,part_1,,,,,,,,,,,,,gray,circle
417.0,8.0,4.0,1.0,2.0,2.0,393.0388059998222,1.0,1.0,part_1,,,,,,,,,,,,,blue,I
0.0,8.0,0.0,1.0,4.0,4.0,362.6586579994182,1.0,1.0,part_1,,,,,,,,,,,,,blue,I
0.0,8.0,0.0,1.0,4.0,4.0,379.8226059989247,1.0,1.0,part_1,,,,,,,,,,,,,blue,I
0.0,1.0,0.0,0.0,1.0,1.0,400.5658360001689,1.0,1.0,part_1,,,,,,,,,,,,,green,hexagon
109.0,6.0,2.0,1.0,3.0,3.0,356.2590349993115,1.0,1.0,part_1,,,,,,,,,,,,,magenta,cross
419.0,8.0,4.0,1.0,1.0,1.0,327.4694899992028,1.0,1.0,part_1,,,,,,,,,,,,,blue,I
191.0,3.0,3.0,0.0,2.0,2.0,379.6336039995367,1.0,1.0,part_1,,,,,,,,,,,,,gray,circle
53.0,1.0,1.0,0.0,2.0,2.0,396.8525109994516,1.0,1.0,part_1,,,,,,,,,,,,,green,hexagon
36.0,5.0,1.0,1.0,1.0,1.0,379.5264069995028,1.0,1.0,part_1,,,,,,,,,,,,,cyan,square
392.0,4.0,4.0,0.0,2.0,2.0,409.1601849995641,1.0,1.0,part_1,,,,,,,,,,,,,white,diamond
0.0,1.0,0.0,0.0,2.0,2.0,387.2830260006594,1.0,1.0,part_1,,,,,,,,,,,,,green,hexagon
0.0,2.0,0.0,0.0,3.0,3.0,378.9577260013175,1.0,1.0,part_1,,,,,,,,,,,,,yellow,flipped triangle
186.0,7.0,3.0,1.0,1.0,1.0,455.1373690010223,1.0,1.0,part_1,,,,,,,,,,,,,orange,triangle
421.0,4.0,4.0,0.0,2.0,2.0,345.0459169998794,1.0,1.0,part_1,,,,,,,,,,,,,white,diamond
206.0,3.0,3.0,0.0,4.0,4.0,371.7248809989542,1.0,1.0,part_1,,,,,,,,,,,,,gray,circle
47.0,1.0,1.0,0.0,2.0,2.0,331.5308870005538,1.0,1.0,part_1,,,,,,,,,,,,,green,hexagon
210.0,7.0,3.0,1.0,4.0,4.0,438.3659869999974,2.0,1.0,part_1,,,,,,,,,,,,,orange,triangle
122.0,6.0,2.0,1.0,4.0,4.0,393.1713490001129,2.0,1.0,part_1,,,,,,,,,,,,,magenta,cross
191.0,7.0,3.0,1.0,1.0,1.0,356.607988000178,2.0,1.0,part_1,,,,,,,,,,,,,orange,triangle
0.0,1.0,0.0,0.0,3.0,3.0,357.8728310003498,2.0,1.0,part_1,,,,,,,,,,,,,green,hexagon
408.0,4.0,4.0,0.0,4.0,4.0,358.2069619988033,2.0,1.0,part_1,,,,,,,,,,,,,white,diamond
0.0,3.0,0.0,0.0,2.0,2.0,450.1272390007216,2.0,1.0,part_1,,,,,,,,,,,,,gray,circle
408.0,8.0,4.0,1.0,1.0,1.0,377.3614599995198,2.0,1.0,part_1,,,,,,,,,,,,,blue,I
49.0,5.0,1.0,1.0,2.0,2.0,413.2603380003274,2.0,1.0,part_1,,,,,,,,,,,,,cyan,square
56.0,1.0,1.0,0.0,4.0,4.0,476.8476680001186,2.0,1.0,part_1,,,,,,,,,,,,,green,hexagon
183.0,7.0,3.0,1.0,1.0,1.0,360.4823519999627,2.0,1.0,part_1,,,,,,,,,,,,,orange,triangle
83.0,2.0,2.0,0.0,2.0,2.0,360.1305299998785,2.0,1.0,part_1,,,,,,,,,,,,,yellow,flipped triangle
191.0,7.0,3.0,1.0,4.0,4.0,313.3107369994832,2.0,1.0,part_1,,,,,,,,,,,,,orange,triangle
120.0,2.0,2.0,0.0,3.0,3.0,407.2354859999905,2.0,1.0,part_1,,,,,,,,,,,,,yellow,flipped triangle
394.0,4.0,4.0,0.0,1.0,1.0,314.2760369992174,2.0,1.0,part_1,,,,,,,,,,,,,white,diamond
200.0,3.0,3.0,0.0,1.0,1.0,438.0706989995815,2.0,1.0,part_1,,,,,,,,,,,,,gray,circle
77.0,2.0,2.0,0.0,2.0,2.0,378.3136629990622,2.0,1.0,part_1,,,,,,,,,,,,,yellow,flipped triangle
195.0,3.0,3.0,0.0,4.0,4.0,377.4058030012384,2.0,1.0,part_1,,,,,,,,,,,,,gray,circle
35.0,1.0,1.0,0.0,3.0,3.0,379.8390730007668,2.0,1.0,part_1,,,,,,,,,,,,,green,hexagon
113.0,2.0,2.0,0.0,3.0,3.0,461.4214559987886,2.0,1.0,part_1,,,,,,,,,,,,,yellow,flipped triangle
100.0,6.0,2.0,1.0,2.0,2.0,409.028476999083,2.0,1.0,part_1,,,,,,,,,,,,,magenta,cross
389.0,8.0,4.0,1.0,3.0,3.0,341.1927399993146,2.0,1.0,part_1,,,,,,,,,,,,,blue,I
206.0,7.0,3.0,1.0,3.0,3.0,361.9876489992748,2.0,1.0,part_1,,,,,,,,,,,,,orange,triangle
201.0,3.0,3.0,0.0,3.0,3.0,350.2266870000312,2.0,1.0,part_1,,,,,,,,,,,,,gray,circle
72.0,5.0,1.0,1.0,3.0,3.0,279.2709579989605,2.0,1.0,part_1,,,,,,,,,,,,,cyan,square
0.0,7.0,0.0,1.0,4.0,4.0,336.3700150002842,2.0,1.0,part_1,,,,,,,,,,,,,orange,triangle
0.0,5.0,0.0,1.0,3.0,3.0,295.484636000765,2.0,1.0,part_1,,,,,,,,,,,,,cyan,square
40.0,5.0,1.0,1.0,3.0,3.0,271.9199569983175,2.0,1.0,part_1,,,,,,,,,,,,,cyan,square
27.0,5.0,1.0,1.0,2.0,2.0,377.6605020011629,2.0,1.0,part_1,,,,,,,,,,,,,cyan,square
209.0,3.0,3.0,0.0,1.0,1.0,419.7166400008427,2.0,1.0,part_1,,,,,,,,,,,,,gray,circle
91.0,6.0,2.0,1.0,2.0,2.0,350.328250999155,2.0,1.0,part_1,,,,,,,,,,,,,magenta,cross
405.0,8.0,4.0,1.0,2.0,2.0,374.5252779990551,2.0,1.0,part_1,,,,,,,,,,,,,blue,I
79.0,6.0,2.0,1.0,2.0,2.0,360.8322790005331,2.0,1.0,part_1,,,,,,,,,,,,,magenta,cross
56.0,5.0,1.0,1.0,1.0,1.0,381.7280230014148,2.0,1.0,part_1,,,,,,,,,,,,,cyan,square
0.0,3.0,0.0,0.0,2.0,2.0,372.7142600000661,2.0,1.0,part_1,,,,,,,,,,,,,gray,circle
46.0,5.0,1.0,1.0,3.0,3.0,330.8072680010809,2.0,1.0,part_1,,,,,,,,,,,,,cyan,square
380.0,4.0,4.0,0.0,4.0,4.0,379.8477359996468,2.0,1.0,part_1,,,,,,,,,,,,,white,diamond
34.0,1.0,1.0,0.0,3.0,3.0,409.4969909983774,2.0,1.0,part_1,,,,,,,,,,,,,green,hexagon
30.0,1.0,1.0,0.0,2.0,2.0,281.01631999925297,2.0,1.0,part_1,,,,,,,,,,,,,green,hexagon
215.0,3.0,3.0,0.0,3.0,3.0,376.634614998693,2.0,1.0,part_1,,,,,,,,,,,,,gray,circle
87.0,6.0,2.0,1.0,1.0,1.0,417.5614790001418,2.0,1.0,part_1,,,,,,,,,,,,,magenta,cross
64.0,5.0,1.0,1.0,2.0,2.0,480.976904000272,2.0,1.0,part_1,,,,,,,,,,,,,cyan,square
213.0,3.0,3.0,0.0,1.0,1.0,317.2402159998455,2.0,1.0,part_1,,,,,,,,,,,,,gray,circle
387.0,4.0,4.0,0.0,1.0,1.0,338.8569210001151,2.0,1.0,part_1,,,,,,,,,,,,,white,diamond
0.0,4.0,0.0,0.0,1.0,1.0,366.0847289993398,2.0,1.0,part_1,,,,,,,,,,,,,white,diamond
0.0,7.0,0.0,1.0,2.0,2.0,354.9505559985846,2.0,1.0,part_1,,,,,,,,,,,,,orange,triangle
216.0,7.0,3.0,1.0,2.0,2.0,330.7057759993768,2.0,1.0,part_1,,,,,,,,,,,,,orange,triangle
421.0,8.0,4.0,1.0,3.0,3.0,395.2418059998308,2.0,1.0,part_1,,,,,,,,,,,,,blue,I
213.0,7.0,3.0,1.0,3.0,3.0,367.0889210006862,2.0,1.0,part_1,,,,,,,,,,,,,orange,triangle
200.0,7.0,3.0,1.0,2.0,2.0,355.1323339997907,2.0,1.0,part_1,,,,,,,,,,,,,orange,triangle
0.0,1.0,0.0,0.0,3.0,3.0,420.7094960001996,2.0,1.0,part_1,,,,,,,,,,,,,green,hexagon
113.0,2.0,2.0,0.0,2.0,2.0,303.371961999801,2.0,1.0,part_1,,,,,,,,,,,,,yellow,flipped triangle
96.0,2.0,2.0,0.0,3.0,3.0,314.9596650000603,2.0,1.0,part_1,,,,,,,,,,,,,yellow,flipped triangle
382.0,8.0,4.0,1.0,2.0,2.0,317.8227219996188,2.0,1.0,part_1,,,,,,,,,,,,,blue,I
91.0,6.0,2.0,1.0,3.0,3.0,363.843483999517,2.0,1.0,part_1,,,,,,,,,,,,,magenta,cross
75.0,5.0,1.0,1.0,2.0,2.0,214.7996599996986,2.0,1.0,part_1,,,,,,,,,,,,,cyan,square
214.0,3.0,3.0,0.0,1.0,1.0,407.2157269984018,2.0,1.0,part_1,,,,,,,,,,,,,gray,circle
0.0,8.0,0.0,1.0,1.0,1.0,384.342622000986,2.0,1.0,part_1,,,,,,,,,,,,,blue,I
382.0,4.0,4.0,0.0,1.0,1.0,308.4297080004035,2.0,1.0,part_1,,,,,,,,,,,,,white,diamond
42.0,5.0,1.0,1.0,3.0,3.0,334.7363740012952,2.0,1.0,part_1,,,,,,,,,,,,,cyan,square
120.0,2.0,2.0,0.0,2.0,2.0,333.8589199993294,2.0,1.0,part_1,,,,,,,,,,,,,yellow,flipped triangle
113.0,6.0,2.0,1.0,4.0,4.0,303.0382719989575,2.0,1.0,part_1,,,,,,,,,,,,,magenta,cross
0.0,1.0,0.0,0.0,4.0,4.0,428.3121660009783,2.0,1.0,part_1,,,,,,,,,,,,,green,hexagon
411.0,8.0,4.0,1.0,4.0,4.0,293.5122979997686,2.0,1.0,part_1,,,,,,,,,,,,,blue,I
120.0,6.0,2.0,1.0,3.0,3.0,414.9994460003654,2.0,1.0,part_1,,,,,,,,,,,,,magenta,cross
0.0,3.0,0.0,0.0,3.0,3.0,378.4355759999016,2.0,1.0,part_1,,,,,,,,,,,,,gray,circle
107.0,2.0,2.0,0.0,2.0,2.0,326.1230300013267,2.0,1.0,part_1,,,,,,,,,,,,,yellow,flipped triangle
216.0,3.0,3.0,0.0,4.0,4.0,411.745477000295,2.0,1.0,part_1,,,,,,,,,,,,,gray,circle
178.0,7.0,3.0,1.0,2.0,2.0,334.6711699996376,2.0,2.0,part_1,,,,,,,,,,,,,orange,triangle
0.0,2.0,0.0,0.0,1.0,1.0,370.1457689985545,2.0,1.0,part_1,,,,,,,,,,,,,yellow,flipped triangle
122.0,2.0,2.0,0.0,2.0,2.0,403.3059480007068,2.0,1.0,part_1,,,,,,,,,,,,,yellow,flipped triangle
424.0,4.0,4.0,0.0,4.0,4.0,322.2288800006936,2.0,1.0,part_1,,,,,,,,,,,,,white,diamond
0.0,7.0,0.0,1.0,2.0,2.0,252.0638310015783,2.0,1.0,part_1,,,,,,,,,,,,,orange,triangle
0.0,2.0,0.0,0.0,1.0,1.0,358.7157570000272,2.0,1.0,part_1,,,,,,,,,,,,,yellow,flipped triangle
57.0,5.0,1.0,1.0,3.0,3.0,346.5564679991075,2.0,1.0,part_1,,,,,,,,,,,,,cyan,square
207.0,3.0,3.0,0.0,1.0,1.0,306.3619340009609,2.0,1.0,part_1,,,,,,,,,,,,,gray,circle
86.0,2.0,2.0,0.0,4.0,4.0,303.3020980001311,2.0,1.0,part_1,,,,,,,,,,,,,yellow,flipped triangle
417.0,8.0,4.0,1.0,2.0,2.0,238.7531920012406,2.0,1.0,part_1,,,,,,,,,,,,,blue,I
184.0,3.0,3.0,0.0,2.0,2.0,436.4865549996466,2.0,1.0,part_1,,,,,,,,,,,,,gray,circle
33.0,5.0,1.0,1.0,4.0,4.0,329.7597050004697,2.0,2.0,part_1,,,,,,,,,,,,,cyan,square
378.0,8.0,4.0,1.0,4.0,4.0,382.1268980009336,2.0,1.0,part_1,,,,,,,,,,,,,blue,I
115.0,2.0,2.0,0.0,4.0,4.0,345.5331189998105,2.0,1.0,part_1,,,,,,,,,,,,,yellow,flipped triangle
201.0,7.0,3.0,1.0,2.0,2.0,409.7619539988955,2.0,1.0,part_1,,,,,,,,,,,,,orange,triangle
412.0,4.0,4.0,0.0,3.0,3.0,365.2349089989002,2.0,1.0,part_1,,,,,,,,,,,,,white,diamond
56.0,5.0,1.0,1.0,4.0,4.0,372.1039789998031,2.0,1.0,part_1,,,,,,,,,,,,,cyan,square
53.0,5.0,1.0,1.0,4.0,4.0,333.5666550010501,2.0,1.0,part_1,,,,,,,,,,,,,cyan,square
393.0,8.0,4.0,1.0,3.0,3.0,364.6615500001644,2.0,1.0,part_1,,,,,,,,,,,,,blue,I
386.0,4.0,4.0,0.0,1.0,1.0,437.3389650008903,2.0,1.0,part_1,,,,,,,,,,,,,white,diamond
186.0,7.0,3.0,1.0,3.0,3.0,376.8246350009576,2.0,1.0,part_1,,,,,,,,,,,,,orange,triangle
398.0,8.0,4.0,1.0,2.0,2.0,363.6515130001498,2.0,1.0,part_1,,,,,,,,,,,,,blue,I
0.0,6.0,0.0,1.0,2.0,2.0,405.5021990006935,2.0,1.0,part_1,,,,,,,,,,,,,magenta,cross
0.0,8.0,0.0,1.0,4.0,4.0,362.3000190000311,2.0,1.0,part_1,,,,,,,,,,,,,blue,I
216.0,7.0,3.0,1.0,2.0,2.0,305.170564999571,2.0,1.0,part_1,,,,,,,,,,,,,orange,triangle
422.0,8.0,4.0,1.0,3.0,3.0,391.2816070005647,2.0,1.0,part_1,,,,,,,,,,,,,blue,I
75.0,1.0,1.0,0.0,4.0,4.0,345.5727950004075,2.0,1.0,part_1,,,,,,,,,,,,,green,hexagon
415.0,8.0,4.0,1.0,2.0,2.0,283.8881480001873,2.0,1.0,part_1,,,,,,,,,,,,,blue,I
214.0,7.0,3.0,1.0,2.0,2.0,406.2910450011259,2.0,1.0,part_1,,,,,,,,,,,,,orange,triangle
422.0,4.0,4.0,0.0,3.0,3.0,355.5090560003009,2.0,1.0,part_1,,,,,,,,,,,,,white,diamond
409.0,8.0,4.0,1.0,4.0,4.0,306.0132449991215,2.0,1.0,part_1,,,,,,,,,,,,,blue,I
35.0,5.0,1.0,1.0,1.0,1.0,329.3477340012032,2.0,1.0,part_1,,,,,,,,,,,,,cyan,square
0.0,7.0,0.0,1.0,1.0,1.0,322.4474170001485,2.0,1.0,part_1,,,,,,,,,,,,,orange,triangle
72.0,1.0,1.0,0.0,1.0,1.0,435.9006640006555,3.0,1.0,part_1,,,,,,,,,,,,,green,hexagon
0.0,4.0,0.0,0.0,4.0,4.0,342.6077410003927,3.0,1.0,part_1,,,,,,,,,,,,,white,diamond
194.0,7.0,3.0,1.0,3.0,3.0,347.8884500000276,3.0,1.0,part_1,,,,,,,,,,,,,orange,triangle
376.0,4.0,4.0,0.0,4.0,4.0,374.4597870008874,3.0,1.0,part_1,,,,,,,,,,,,,white,diamond
0.0,1.0,0.0,0.0,1.0,1.0,319.5778879999125,3.0,1.0,part_1,,,,,,,,,,,,,green,hexagon
79.0,2.0,2.0,0.0,1.0,1.0,345.2187210004922,3.0,1.0,part_1,,,,,,,,,,,,,yellow,flipped triangle
408.0,8.0,4.0,1.0,1.0,1.0,292.7843839988782,3.0,1.0,part_1,,,,,,,,,,,,,blue,I
66.0,1.0,1.0,0.0,4.0,4.0,341.9288400000368,3.0,1.0,part_1,,,,,,,,,,,,,green,hexagon
0.0,5.0,0.0,1.0,2.0,2.0,372.7881310005614,3.0,1.0,part_1,,,,,,,,,,,,,cyan,square
199.0,3.0,3.0,0.0,1.0,1.0,343.6006159990938,3.0,1.0,part_1,,,,,,,,,,,,,gray,circle
0.0,6.0,0.0,1.0,2.0,2.0,366.8761320004705,3.0,1.0,part_1,,,,,,,,,,,,,magenta,cross
0.0,7.0,0.0,1.0,4.0,4.0,305.8716870000353,3.0,1.0,part_1,,,,,,,,,,,,,orange,triangle
395.0,8.0,4.0,1.0,3.0,3.0,421.6299589988921,3.0,1.0,part_1,,,,,,,,,,,,,blue,I
378.0,4.0,4.0,0.0,2.0,2.0,252.942274999441,3.0,1.0,part_1,,,,,,,,,,,,,white,diamond
78.0,6.0,2.0,1.0,4.0,4.0,333.0464620012208,3.0,1.0,part_1,,,,,,,,,,,,,magenta,cross
78.0,2.0,2.0,0.0,3.0,3.0,341.7994620012905,3.0,1.0,part_1,,,,,,,,,,,,,yellow,flipped triangle
393.0,8.0,4.0,1.0,3.0,3.0,402.5862329999654,3.0,1.0,part_1,,,,,,,,,,,,,blue,I
82.0,2.0,2.0,0.0,1.0,1.0,326.6151219995663,3.0,1.0,part_1,,,,,,,,,,,,,yellow,flipped triangle
211.0,7.0,3.0,1.0,4.0,4.0,273.8317560015275,3.0,1.0,part_1,,,,,,,,,,,,,orange,triangle
211.0,3.0,3.0,0.0,1.0,1.0,354.6682229989528,3.0,1.0,part_1,,,,,,,,,,,,,gray,circle
66.0,5.0,1.0,1.0,2.0,2.0,427.1794569995109,3.0,1.0,part_1,,,,,,,,,,,,,cyan,square
0.0,3.0,0.0,0.0,4.0,4.0,320.7990449991484,3.0,1.0,part_1,,,,,,,,,,,,,gray,circle
0.0,5.0,0.0,1.0,4.0,4.0,395.8661699998629,3.0,1.0,part_1,,,,,,,,,,,,,cyan,square
0.0,6.0,0.0,1.0,3.0,3.0,386.0049979994073,3.0,1.0,part_1,,,,,,,,,,,,,magenta,cross
99.0,2.0,2.0,0.0,3.0,3.0,349.9006410002039,3.0,1.0,part_1,,,,,,,,,,,,,yellow,flipped triangle
66.0,5.0,1.0,1.0,2.0,2.0,390.3649109997786,3.0,1.0,part_1,,,,,,,,,,,,,cyan,square
68.0,1.0,1.0,0.0,4.0,4.0,401.8524140010413,3.0,1.0,part_1,,,,,,,,,,,,,green,hexagon
405.0,4.0,4.0,0.0,2.0,2.0,386.3617759998305,3.0,1.0,part_1,,,,,,,,,,,,,white,diamond
192.0,7.0,3.0,1.0,4.0,4.0,340.3621749985177,3.0,1.0,part_1,,,,,,,,,,,,,orange,triangle
96.0,6.0,2.0,1.0,4.0,4.0,357.9520990006131,3.0,1.0,part_1,,,,,,,,,,,,,magenta,cross
107.0,6.0,2.0,1.0,2.0,2.0,355.5247869990126,3.0,2.0,part_1,,,,,,,,,,,,,magenta,cross
0.0,5.0,0.0,1.0,1.0,1.0,564.6150789998501,3.0,1.0,part_1,,,,,,,,,,,,,cyan,square
424.0,8.0,4.0,1.0,4.0,4.0,367.3099830011779,3.0,1.0,part_1,,,,,,,,,,,,,blue,I
378.0,8.0,4.0,1.0,4.0,4.0,465.9017350004433,3.0,1.0,part_1,,,,,,,,,,,,,blue,I
114.0,6.0,2.0,1.0,3.0,3.0,383.0362580010842,3.0,1.0,part_1,,,,,,,,,,,,,magenta,cross
222.0,7.0,3.0,1.0,1.0,1.0,306.6776320010831,3.0,1.0,part_1,,,,,,,,,,,,,orange,triangle
61.0,1.0,1.0,0.0,3.0,3.0,383.9782420000119,3.0,1.0,part_1,,,,,,,,,,,,,green,hexagon
98.0,2.0,2.0,0.0,4.0,4.0,419.7026370002277,3.0,1.0,part_1,,,,,,,,,,,,,yellow,flipped triangle
190.0,7.0,3.0,1.0,4.0,4.0,316.7082609998033,3.0,1.0,part_1,,,,,,,,,,,,,orange,triangle
384.0,8.0,4.0,1.0,1.0,1.0,328.8361420000001,3.0,1.0,part_1,,,,,,,,,,,,,blue,I
81.0,2.0,2.0,0.0,4.0,4.0,324.376291999215,3.0,1.0,part_1,,,,,,,,,,,,,yellow,flipped triangle
209.0,7.0,3.0,1.0,1.0,1.0,292.05385800014477,3.0,1.0,part_1,,,,,,,,,,,,,orange,triangle
0.0,3.0,0.0,0.0,4.0,4.0,304.3763360001321,3.0,1.0,part_1,,,,,,,,,,,,,gray,circle
384.0,4.0,4.0,0.0,3.0,3.0,343.9988349982741,3.0,1.0,part_1,,,,,,,,,,,,,white,diamond
186.0,3.0,3.0,0.0,4.0,4.0,363.2846979999158,3.0,1.0,part_1,,,,,,,,,,,,,gray,circle
55.0,5.0,1.0,1.0,4.0,4.0,433.5353949991258,3.0,1.0,part_1,,,,,,,,,,,,,cyan,square
396.0,4.0,4.0,0.0,3.0,3.0,499.4997419998981,3.0,1.0,part_1,,,,,,,,,,,,,white,diamond
194.0,3.0,3.0,0.0,2.0,2.0,347.2376819991041,3.0,1.0,part_1,,,,,,,,,,,,,gray,circle
0.0,2.0,0.0,0.0,4.0,4.0,384.580496000126,3.0,1.0,part_1,,,,,,,,,,,,,yellow,flipped triangle
194.0,7.0,3.0,1.0,1.0,1.0,449.8790670004382,3.0,1.0,part_1,,,,,,,,,,,,,orange,triangle
98.0,6.0,2.0,1.0,3.0,3.0,368.6925950005388,3.0,1.0,part_1,,,,,,,,,,,,,magenta,cross
224.0,7.0,3.0,1.0,3.0,3.0,469.5781499995064,3.0,1.0,part_1,,,,,,,,,,,,,orange,triangle
0.0,1.0,0.0,0.0,3.0,3.0,519.9541239999235,3.0,1.0,part_1,,,,,,,,,,,,,green,hexagon
400.0,4.0,4.0,0.0,3.0,3.0,357.8188850005972,3.0,1.0,part_1,,,,,,,,,,,,,white,diamond
387.0,8.0,4.0,1.0,1.0,1.0,384.384275001139,3.0,1.0,part_1,,,,,,,,,,,,,blue,I
409.0,4.0,4.0,0.0,3.0,3.0,359.3544289997226,3.0,1.0,part_1,,,,,,,,,,,,,white,diamond
89.0,6.0,2.0,1.0,4.0,4.0,386.8346550007118,3.0,1.0,part_1,,,,,,,,,,,,,magenta,cross
220.0,3.0,3.0,0.0,3.0,3.0,413.2256319990119,3.0,1.0,part_1,,,,,,,,,,,,,gray,circle
105.0,2.0,2.0,0.0,1.0,1.0,428.5789220011793,3.0,1.0,part_1,,,,,,,,,,,,,yellow,flipped triangle
0.0,8.0,0.0,1.0,2.0,2.0,484.4197430011263,3.0,1.0,part_1,,,,,,,,,,,,,blue,I
0.0,6.0,0.0,1.0,4.0,4.0,335.1580600010493,3.0,1.0,part_1,,,,,,,,,,,,,magenta,cross
115.0,6.0,2.0,1.0,2.0,2.0,311.9493089998286,3.0,1.0,part_1,,,,,,,,,,,,,magenta,cross
183.0,3.0,3.0,0.0,2.0,2.0,353.2850169995072,3.0,1.0,part_1,,,,,,,,,,,,,gray,circle
91.0,6.0,2.0,1.0,4.0,4.0,350.7888500007539,3.0,1.0,part_1,,,,,,,,,,,,,magenta,cross
179.0,7.0,3.0,1.0,2.0,2.0,317.0423489991663,3.0,1.0,part_1,,,,,,,,,,,,,orange,triangle
35.0,5.0,1.0,1.0,1.0,1.0,366.888108999774,3.0,1.0,part_1,,,,,,,,,,,,,cyan,square
386.0,4.0,4.0,0.0,3.0,3.0,349.2150320016662,3.0,1.0,part_1,,,,,,,,,,,,,white,diamond
179.0,3.0,3.0,0.0,4.0,4.0,346.0147869991488,3.0,1.0,part_1,,,,,,,,,,,,,gray,circle
0.0,8.0,0.0,1.0,4.0,4.0,344.302189998416,3.0,1.0,part_1,,,,,,,,,,,,,blue,I
54.0,5.0,1.0,1.0,2.0,2.0,335.6651680005598,3.0,1.0,part_1,,,,,,,,,,,,,cyan,square
45.0,5.0,1.0,1.0,3.0,3.0,491.4841949994297,3.0,1.0,part_1,,,,,,,,,,,,,cyan,square
125.0,6.0,2.0,1.0,1.0,1.0,373.6173359993699,3.0,1.0,part_1,,,,,,,,,,,,,magenta,cross
386.0,8.0,4.0,1.0,1.0,1.0,387.9081440009031,3.0,1.0,part_1,,,,,,,,,,,,,blue,I
46.0,1.0,1.0,0.0,1.0,1.0,406.1534929987829,3.0,1.0,part_1,,,,,,,,,,,,,green,hexagon
109.0,2.0,2.0,0.0,1.0,1.0,366.1399890006578,3.0,1.0,part_1,,,,,,,,,,,,,yellow,flipped triangle
0.0,2.0,0.0,0.0,4.0,4.0,389.296571000159,3.0,1.0,part_1,,,,,,,,,,,,,yellow,flipped triangle
55.0,1.0,1.0,0.0,4.0,4.0,375.6927290014573,3.0,1.0,part_1,,,,,,,,,,,,,green,hexagon
45.0,5.0,1.0,1.0,4.0,4.0,365.6952850014932,3.0,1.0,part_1,,,,,,,,,,,,,cyan,square
99.0,6.0,2.0,1.0,3.0,3.0,653.9978639993933,3.0,1.0,part_1,,,,,,,,,,,,,magenta,cross
105.0,6.0,2.0,1.0,1.0,1.0,402.5502620006591,3.0,1.0,part_1,,,,,,,,,,,,,magenta,cross
395.0,4.0,4.0,0.0,2.0,2.0,405.49042800012097,3.0,1.0,part_1,,,,,,,,,,,,,white,diamond
85.0,2.0,2.0,0.0,4.0,4.0,388.0608809995465,3.0,1.0,part_1,,,,,,,,,,,,,yellow,flipped triangle
414.0,4.0,4.0,0.0,2.0,2.0,321.4927999997599,3.0,1.0,part_1,,,,,,,,,,,,,white,diamond
415.0,4.0,4.0,0.0,1.0,1.0,378.6874960005661,3.0,1.0,part_1,,,,,,,,,,,,,white,diamond
57.0,1.0,1.0,0.0,3.0,3.0,347.1167770003376,3.0,1.0,part_1,,,,,,,,,,,,,green,hexagon
415.0,4.0,4.0,0.0,2.0,2.0,389.7806010008935,3.0,1.0,part_1,,,,,,,,,,,,,white,diamond
91.0,2.0,2.0,0.0,2.0,2.0,315.7681800003047,3.0,1.0,part_1,,,,,,,,,,,,,yellow,flipped triangle
207.0,7.0,3.0,1.0,4.0,4.0,483.4798000010778,3.0,1.0,part_1,,,,,,,,,,,,,orange,triangle
215.0,7.0,3.0,1.0,2.0,2.0,293.5059179999371,3.0,1.0,part_1,,,,,,,,,,,,,orange,triangle
0.0,4.0,0.0,0.0,2.0,2.0,330.471449999095,3.0,1.0,part_1,,,,,,,,,,,,,white,diamond
26.0,1.0,1.0,0.0,1.0,1.0,323.4312719996524,3.0,1.0,part_1,,,,,,,,,,,,,green,hexagon
376.0,4.0,4.0,0.0,4.0,4.0,486.5373449993058,3.0,1.0,part_1,,,,,,,,,,,,,white,diamond
120.0,6.0,2.0,1.0,2.0,2.0,354.9352719983289,3.0,1.0,part_1,,,,,,,,,,,,,magenta,cross
101.0,6.0,2.0,1.0,4.0,4.0,314.4683350001287,3.0,1.0,part_1,,,,,,,,,,,,,magenta,cross
384.0,4.0,4.0,0.0,2.0,2.0,61.7769559994485,3.0,1.0,part_1,,,,,,,,,,,,,white,diamond
40.0,5.0,1.0,1.0,3.0,3.0,370.83759899906,3.0,1.0,part_1,,,,,,,,,,,,,cyan,square
53.0,5.0,1.0,1.0,2.0,2.0,300.9606739997252,3.0,1.0,part_1,,,,,,,,,,,,,cyan,square
83.0,6.0,2.0,1.0,1.0,1.0,432.472582999253,3.0,1.0,part_1,,,,,,,,,,,,,magenta,cross
380.0,8.0,4.0,1.0,3.0,3.0,489.7995960000116,3.0,1.0,part_1,,,,,,,,,,,,,blue,I
220.0,7.0,3.0,1.0,1.0,1.0,412.177812999289,3.0,1.0,part_1,,,,,,,,,,,,,orange,triangle
86.0,6.0,2.0,1.0,3.0,3.0,535.1870360009343,4.0,1.0,part_1,,,,,,,,,,,,,magenta,cross
0.0,2.0,0.0,0.0,4.0,4.0,308.1909499996982,4.0,1.0,part_1,,,,,,,,,,,,,yellow,flipped triangle
394.0,8.0,4.0,1.0,4.0,4.0,394.2794969989336,4.0,1.0,part_1,,,,,,,,,,,,,blue,I
0.0,4.0,0.0,0.0,2.0,2.0,273.5151020006015,4.0,1.0,part_1,,,,,,,,,,,,,white,diamond
0.0,4.0,0.0,0.0,4.0,4.0,318.0223429990292,4.0,1.0,part_1,,,,,,,,,,,,,white,diamond
87.0,2.0,2.0,0.0,4.0,4.0,360.8477100005984,4.0,1.0,part_1,,,,,,,,,,,,,yellow,flipped triangle
0.0,6.0,0.0,1.0,3.0,3.0,355.2498030003335,4.0,1.0,part_1,,,,,,,,,,,,,magenta,cross
45.0,1.0,1.0,0.0,1.0,1.0,363.9150199996948,4.0,1.0,part_1,,,,,,,,,,,,,green,hexagon
68.0,5.0,1.0,1.0,4.0,4.0,393.747957999949,4.0,1.0,part_1,,,,,,,,,,,,,cyan,square
209.0,7.0,3.0,1.0,3.0,3.0,356.8089670006884,4.0,1.0,part_1,,,,,,,,,,,,,orange,triangle
0.0,5.0,0.0,1.0,2.0,2.0,311.1608409999462,4.0,1.0,part_1,,,,,,,,,,,,,cyan,square
69.0,5.0,1.0,1.0,4.0,4.0,308.0756929994095,4.0,1.0,part_1,,,,,,,,,,,,,cyan,square
33.0,1.0,1.0,0.0,3.0,3.0,733.8472699993872,4.0,1.0,part_1,,,,,,,,,,,,,green,hexagon
104.0,2.0,2.0,0.0,1.0,1.0,542.5581430008606,4.0,1.0,part_1,,,,,,,,,,,,,yellow,flipped triangle
419.0,4.0,4.0,0.0,4.0,4.0,373.2674109996878,4.0,1.0,part_1,,,,,,,,,,,,,white,diamond
199.0,7.0,3.0,1.0,4.0,4.0,354.0555090003181,4.0,1.0,part_1,,,,,,,,,,,,,orange,triangle
82.0,6.0,2.0,1.0,1.0,1.0,384.5661909999762,4.0,1.0,part_1,,,,,,,,,,,,,magenta,cross
124.0,6.0,2.0,1.0,1.0,1.0,358.80258700126427,4.0,1.0,part_1,,,,,,,,,,,,,magenta,cross
396.0,8.0,4.0,1.0,1.0,1.0,394.7424400012096,4.0,1.0,part_1,,,,,,,,,,,,,blue,I
393.0,4.0,4.0,0.0,2.0,2.0,447.4703649993898,4.0,1.0,part_1,,,,,,,,,,,,,white,diamond
0.0,7.0,0.0,1.0,2.0,2.0,381.1589580000145,4.0,1.0,part_1,,,,,,,,,,,,,orange,triangle
95.0,6.0,2.0,1.0,2.0,2.0,343.6553209994599,4.0,1.0,part_1,,,,,,,,,,,,,magenta,cross
72.0,5.0,1.0,1.0,1.0,1.0,554.6735740008444,4.0,1.0,part_1,,,,,,,,,,,,,cyan,square
0.0,8.0,0.0,1.0,3.0,3.0,356.169298000168,4.0,1.0,part_1,,,,,,,,,,,,,blue,I
117.0,2.0,2.0,0.0,2.0,2.0,347.1857919994363,4.0,1.0,part_1,,,,,,,,,,,,,yellow,flipped triangle
0.0,6.0,0.0,1.0,2.0,2.0,280.046031000893,4.0,1.0,part_1,,,,,,,,,,,,,magenta,cross
26.0,5.0,1.0,1.0,1.0,1.0,333.6055960007797,4.0,1.0,part_1,,,,,,,,,,,,,cyan,square
0.0,4.0,0.0,0.0,1.0,1.0,570.2512779989775,4.0,1.0,part_1,,,,,,,,,,,,,white,diamond
30.0,5.0,1.0,1.0,1.0,1.0,390.3358280003886,4.0,1.0,part_1,,,,,,,,,,,,,cyan,square
376.0,8.0,4.0,1.0,4.0,4.0,371.9731669989414,4.0,1.0,part_1,,,,,,,,,,,,,blue,I
0.0,1.0,0.0,0.0,1.0,1.0,329.381107001609,4.0,1.0,part_1,,,,,,,,,,,,,green,hexagon
186.0,3.0,3.0,0.0,2.0,2.0,346.5181089995894,4.0,1.0,part_1,,,,,,,,,,,,,gray,circle
376.0,8.0,4.0,1.0,2.0,2.0,527.1685879997676,4.0,1.0,part_1,,,,,,,,,,,,,blue,I
114.0,2.0,2.0,0.0,2.0,2.0,355.5172769993078,4.0,1.0,part_1,,,,,,,,,,,,,yellow,flipped triangle
417.0,4.0,4.0,0.0,1.0,1.0,668.0479299993749,4.0,1.0,part_1,,,,,,,,,,,,,white,diamond
54.0,1.0,1.0,0.0,2.0,2.0,723.8813359999767,4.0,1.0,part_1,,,,,,,,,,,,,green,hexagon
395.0,8.0,4.0,1.0,4.0,4.0,317.6730739996856,4.0,1.0,part_1,,,,,,,,,,,,,blue,I
104.0,6.0,2.0,1.0,1.0,1.0,372.0615909987828,4.0,1.0,part_1,,,,,,,,,,,,,magenta,cross
75.0,2.0,2.0,0.0,4.0,4.0,476.5447299996594,4.0,1.0,part_1,,,,,,,,,,,,,yellow,flipped triangle
101.0,2.0,2.0,0.0,4.0,4.0,873.6681749996933,4.0,1.0,part_1,,,,,,,,,,,,,yellow,flipped triangle
89.0,2.0,2.0,0.0,3.0,3.0,443.3249829999113,4.0,2.0,part_1,,,,,,,,,,,,,yellow,flipped triangle
115.0,6.0,2.0,1.0,3.0,3.0,516.556620999836,4.0,1.0,part_1,,,,,,,,,,,,,magenta,cross
95.0,2.0,2.0,0.0,2.0,2.0,338.8153390005755,4.0,1.0,part_1,,,,,,,,,,,,,yellow,flipped triangle
61.0,5.0,1.0,1.0,2.0,2.0,361.766214000454,4.0,1.0,part_1,,,,,,,,,,,,,cyan,square
120.0,2.0,2.0,0.0,1.0,1.0,435.2959820007527,4.0,1.0,part_1,,,,,,,,,,,,,yellow,flipped triangle
408.0,4.0,4.0,0.0,4.0,4.0,342.7052989991352,4.0,1.0,part_1,,,,,,,,,,,,,white,diamond
41.0,1.0,1.0,0.0,4.0,4.0,497.9428780006856,4.0,1.0,part_1,,,,,,,,,,,,,green,hexagon
186.0,7.0,3.0,1.0,3.0,3.0,399.5806589991844,4.0,1.0,part_1,,,,,,,,,,,,,orange,triangle
0.0,6.0,0.0,1.0,4.0,4.0,391.903691999687,4.0,1.0,part_1,,,,,,,,,,,,,magenta,cross
0.0,5.0,0.0,1.0,1.0,1.0,377.779250000458,4.0,1.0,part_1,,,,,,,,,,,,,cyan,square
411.0,4.0,4.0,0.0,4.0,4.0,370.9893409995857,4.0,1.0,part_1,,,,,,,,,,,,,white,diamond
91.0,2.0,2.0,0.0,3.0,3.0,596.7608489991107,4.0,1.0,part_1,,,,,,,,,,,,,yellow,flipped triangle
415.0,8.0,4.0,1.0,2.0,2.0,360.2937390005536,4.0,1.0,part_1,,,,,,,,,,,,,blue,I
68.0,5.0,1.0,1.0,1.0,1.0,316.6388289992028,4.0,1.0,part_1,,,,,,,,,,,,,cyan,square
222.0,3.0,3.0,0.0,3.0,3.0,376.9569769992813,4.0,1.0,part_1,,,,,,,,,,,,,gray,circle
0.0,7.0,0.0,1.0,2.0,2.0,411.9859209986316,4.0,1.0,part_1,,,,,,,,,,,,,orange,triangle
77.0,6.0,2.0,1.0,4.0,4.0,372.8380969987483,4.0,1.0,part_1,,,,,,,,,,,,,magenta,cross
186.0,7.0,3.0,1.0,4.0,4.0,438.4546940000291,4.0,1.0,part_1,,,,,,,,,,,,,orange,triangle
124.0,2.0,2.0,0.0,4.0,4.0,362.5890149996849,4.0,1.0,part_1,,,,,,,,,,,,,yellow,flipped triangle
0.0,4.0,0.0,0.0,2.0,2.0,359.4690000008995,4.0,1.0,part_1,,,,,,,,,,,,,white,diamond
0.0,2.0,0.0,0.0,4.0,4.0,465.655946998595,4.0,1.0,part_1,,,,,,,,,,,,,yellow,flipped triangle
0.0,2.0,0.0,0.0,1.0,1.0,361.8185010000161,4.0,1.0,part_1,,,,,,,,,,,,,yellow,flipped triangle
0.0,3.0,0.0,0.0,2.0,2.0,493.393370999911,4.0,1.0,part_1,,,,,,,,,,,,,gray,circle
0.0,1.0,0.0,0.0,4.0,4.0,351.0970049992465,4.0,1.0,part_1,,,,,,,,,,,,,green,hexagon
105.0,6.0,2.0,1.0,1.0,1.0,312.020637000387,4.0,1.0,part_1,,,,,,,,,,,,,magenta,cross
186.0,3.0,3.0,0.0,1.0,1.0,356.6840450002928,4.0,1.0,part_1,,,,,,,,,,,,,gray,circle
0.0,7.0,0.0,1.0,2.0,2.0,334.9955540015799,4.0,1.0,part_1,,,,,,,,,,,,,orange,triangle
210.0,3.0,3.0,0.0,4.0,4.0,342.3304980005923,4.0,1.0,part_1,,,,,,,,,,,,,gray,circle
105.0,2.0,2.0,0.0,4.0,4.0,464.7945470005652,4.0,1.0,part_1,,,,,,,,,,,,,yellow,flipped triangle
401.0,4.0,4.0,0.0,1.0,1.0,295.5839389996981,4.0,1.0,part_1,,,,,,,,,,,,,white,diamond
0.0,1.0,0.0,0.0,1.0,1.0,343.5260160003963,4.0,1.0,part_1,,,,,,,,,,,,,green,hexagon
400.0,8.0,4.0,1.0,3.0,3.0,445.9449700007099,4.0,1.0,part_1,,,,,,,,,,,,,blue,I
378.0,4.0,4.0,0.0,4.0,4.0,350.6227409998246,4.0,1.0,part_1,,,,,,,,,,,,,white,diamond
29.0,5.0,1.0,1.0,1.0,1.0,302.4333670000487,4.0,1.0,part_1,,,,,,,,,,,,,cyan,square
182.0,3.0,3.0,0.0,4.0,4.0,348.1579050003347,4.0,1.0,part_1,,,,,,,,,,,,,gray,circle
72.0,1.0,1.0,0.0,4.0,4.0,366.29587599964,4.0,1.0,part_1,,,,,,,,,,,,,green,hexagon
0.0,5.0,0.0,1.0,4.0,4.0,541.3555970008019,4.0,1.0,part_1,,,,,,,,,,,,,cyan,square
91.0,2.0,2.0,0.0,1.0,1.0,338.1469169999036,4.0,1.0,part_1,,,,,,,,,,,,,yellow,flipped triangle
44.0,5.0,1.0,1.0,4.0,4.0,323.4941360005905,4.0,1.0,part_1,,,,,,,,,,,,,cyan,square
417.0,4.0,4.0,0.0,1.0,1.0,426.312230001713,4.0,1.0,part_1,,,,,,,,,,,,,white,diamond
386.0,8.0,4.0,1.0,4.0,4.0,475.7974509993801,4.0,1.0,part_1,,,,,,,,,,,,,blue,I
69.0,1.0,1.0,0.0,1.0,1.0,323.0916779994004,4.0,1.0,part_1,,,,,,,,,,,,,green,hexagon
184.0,3.0,3.0,0.0,2.0,2.0,451.7480499998783,4.0,1.0,part_1,,,,,,,,,,,,,gray,circle
95.0,2.0,2.0,0.0,3.0,3.0,523.6479659997713,4.0,1.0,part_1,,,,,,,,,,,,,yellow,flipped triangle
0.0,5.0,0.0,1.0,1.0,1.0,357.8043329998763,4.0,1.0,part_1,,,,,,,,,,,,,cyan,square
0.0,3.0,0.0,0.0,4.0,4.0,267.4480139994557,4.0,1.0,part_1,,,,,,,,,,,,,gray,circle
0.0,4.0,0.0,0.0,2.0,2.0,311.3560340007097,4.0,1.0,part_1,,,,,,,,,,,,,white,diamond
194.0,3.0,3.0,0.0,2.0,2.0,390.2498959996592,4.0,1.0,part_1,,,,,,,,,,,,,gray,circle
206.0,7.0,3.0,1.0,1.0,1.0,380.0062949994753,4.0,1.0,part_1,,,,,,,,,,,,,orange,triangle
414.0,8.0,4.0,1.0,3.0,3.0,415.3044449994922,4.0,1.0,part_1,,,,,,,,,,,,,blue,I
214.0,7.0,3.0,1.0,4.0,4.0,728.6961770005291,4.0,1.0,part_1,,,,,,,,,,,,,orange,triangle
100.0,2.0,2.0,0.0,3.0,3.0,689.430717000505,4.0,1.0,part_1,,,,,,,,,,,,,yellow,flipped triangle
0.0,8.0,0.0,1.0,2.0,2.0,597.0723540012841,4.0,1.0,part_1,,,,,,,,,,,,,blue,I
195.0,7.0,3.0,1.0,3.0,3.0,440.1706919998105,4.0,1.0,part_1,,,,,,,,,,,,,orange,triangle
0.0,7.0,0.0,1.0,3.0,3.0,414.5636709999962,4.0,1.0,part_1,,,,,,,,,,,,,orange,triangle
47.0,5.0,1.0,1.0,1.0,1.0,386.9831470001372,4.0,1.0,part_1,,,,,,,,,,,,,cyan,square
0.0,6.0,0.0,1.0,4.0,4.0,361.5459329994337,4.0,1.0,part_1,,,,,,,,,,,,,magenta,cross
209.0,3.0,3.0,0.0,1.0,1.0,328.354932998991,4.0,1.0,part_1,,,,,,,,,,,,,gray,circle
0.0,3.0,0.0,0.0,3.0,3.0,407.9748669992113,4.0,1.0,part_1,,,,,,,,,,,,,gray,circle
221.0,3.0,3.0,0.0,1.0,1.0,372.1077099999093,4.0,1.0,part_1,,,,,,,,,,,,,gray,circle
0.0,1.0,1.0,0.0,5.0,5.0,611.5306970004895,1.0,0.0,part_2,go,250.0,250.0,1.0,,,,,,,,,green,hexagon
0.0,8.0,4.0,1.0,5.0,5.0,611.9268420006847,1.0,0.0,part_2,stop,250.0,250.0,3.0,,,,,,,,,blue,I
0.0,7.0,3.0,1.0,5.0,0.0,0.0,1.0,0.0,part_2,stop,200.0,250.0,4.0,,,,,,,,,orange,triangle
0.0,3.0,3.0,0.0,5.0,5.0,732.8395749991614,1.0,0.0,part_2,go,250.0,250.0,1.0,,,,,,,,,gray,circle
0.0,1.0,1.0,0.0,5.0,5.0,1015.75975599917,1.0,0.0,part_2,go,250.0,250.0,1.0,,,,,,,,,green,hexagon
0.0,3.0,3.0,0.0,5.0,5.0,754.4381200004864,1.0,0.0,part_2,go,250.0,250.0,1.0,,,,,,,,,gray,circle
0.0,4.0,4.0,0.0,5.0,5.0,718.4960510003293,1.0,0.0,part_2,go,250.0,250.0,1.0,,,,,,,,,white,diamond
0.0,2.0,2.0,0.0,6.0,6.0,894.1794549991755,1.0,0.0,part_2,go,250.0,250.0,1.0,,,,,,,,,yellow,flipped triangle
0.0,5.0,1.0,1.0,6.0,6.0,553.2519580010558,1.0,0.0,part_2,go,250.0,250.0,1.0,,,,,,,,,cyan,square
0.0,8.0,4.0,1.0,6.0,0.0,0.0,1.0,0.0,part_2,stop,250.0,250.0,4.0,,,,,,,,,blue,I
0.0,5.0,1.0,1.0,5.0,5.0,650.2559310010838,1.0,0.0,part_2,go,250.0,300.0,1.0,,,,,,,,,cyan,square
0.0,2.0,2.0,0.0,5.0,5.0,758.0594350001775,1.0,0.0,part_2,go,250.0,300.0,1.0,,,,,,,,,yellow,flipped triangle
0.0,7.0,3.0,1.0,5.0,0.0,0.0,1.0,0.0,part_2,stop,250.0,300.0,4.0,,,,,,,,,orange,triangle
0.0,3.0,3.0,0.0,6.0,6.0,835.1966979989811,1.0,0.0,part_2,go,300.0,300.0,1.0,,,,,,,,,gray,circle
0.0,2.0,2.0,0.0,5.0,5.0,764.9666460001754,1.0,0.0,part_2,go,300.0,300.0,1.0,,,,,,,,,yellow,flipped triangle
0.0,6.0,2.0,1.0,6.0,0.0,0.0,1.0,0.0,part_2,stop,300.0,300.0,4.0,,,,,,,,,magenta,cross
0.0,2.0,2.0,0.0,6.0,6.0,708.0051739994815,1.0,0.0,part_2,go,300.0,350.0,1.0,,,,,,,,,yellow,flipped triangle
0.0,8.0,4.0,1.0,6.0,6.0,566.815468000641,1.0,0.0,part_2,go,300.0,350.0,1.0,,,,,,,,,blue,I
0.0,5.0,1.0,1.0,6.0,0.0,0.0,1.0,0.0,part_2,stop,300.0,350.0,4.0,,,,,,,,,cyan,square
0.0,2.0,2.0,0.0,6.0,6.0,933.4888800003682,1.0,0.0,part_2,go,300.0,400.0,1.0,,,,,,,,,yellow,flipped triangle
0.0,5.0,1.0,1.0,5.0,5.0,1129.5031709996692,1.0,0.0,part_2,stop,300.0,400.0,3.0,,,,,,,,,cyan,square
0.0,4.0,4.0,0.0,5.0,5.0,1241.983635998622,1.0,0.0,part_2,go,250.0,400.0,1.0,,,,,,,,,white,diamond
0.0,1.0,1.0,0.0,6.0,6.0,765.4997680001543,1.0,0.0,part_2,go,250.0,400.0,1.0,,,,,,,,,green,hexagon
0.0,1.0,1.0,0.0,5.0,5.0,823.7479859999439,1.0,0.0,part_2,go,250.0,400.0,1.0,,,,,,,,,green,hexagon
0.0,6.0,2.0,1.0,5.0,0.0,0.0,1.0,0.0,part_2,stop,250.0,400.0,4.0,,,,,,,,,magenta,cross
0.0,5.0,1.0,1.0,5.0,0.0,0.0,1.0,0.0,part_2,stop,300.0,400.0,4.0,,,,,,,,,cyan,square
0.0,6.0,2.0,1.0,6.0,6.0,550.5878269996174,1.0,0.0,part_2,stop,350.0,400.0,3.0,,,,,,,,,magenta,cross
0.0,3.0,3.0,0.0,6.0,6.0,638.323005001439,1.0,0.0,part_2,go,350.0,350.0,1.0,,,,,,,,,gray,circle
0.0,2.0,2.0,0.0,5.0,5.0,546.1430020004627,1.0,0.0,part_2,go,350.0,350.0,1.0,,,,,,,,,yellow,flipped triangle
0.0,3.0,3.0,0.0,5.0,5.0,670.2623299988772,1.0,0.0,part_2,go,350.0,350.0,1.0,,,,,,,,,gray,circle
0.0,4.0,4.0,0.0,5.0,5.0,1053.8586500006204,1.0,0.0,part_2,go,350.0,350.0,1.0,,,,,,,,,white,diamond
0.0,5.0,1.0,1.0,5.0,5.0,387.7178039983846,1.0,0.0,part_2,stop,350.0,350.0,3.0,,,,,,,,,cyan,square
0.0,3.0,3.0,0.0,6.0,6.0,518.8306289983302,1.0,0.0,part_2,go,300.0,350.0,1.0,,,,,,,,,gray,circle
0.0,4.0,4.0,0.0,6.0,6.0,660.0346250015718,1.0,0.0,part_2,go,300.0,350.0,1.0,,,,,,,,,white,diamond
0.0,6.0,2.0,1.0,5.0,0.0,0.0,1.0,0.0,part_2,stop,300.0,350.0,4.0,,,,,,,,,magenta,cross
0.0,6.0,2.0,1.0,5.0,0.0,0.0,1.0,0.0,part_2,stop,350.0,350.0,4.0,,,,,,,,,magenta,cross
0.0,7.0,3.0,1.0,5.0,5.0,572.9904340005305,2.0,0.0,part_2,stop,400.0,350.0,3.0,,,,,,,,,orange,triangle
0.0,4.0,4.0,0.0,5.0,5.0,775.1589879990206,2.0,0.0,part_2,go,350.0,350.0,1.0,,,,,,,,,white,diamond
0.0,3.0,3.0,0.0,6.0,6.0,293.6931660005939,2.0,0.0,part_2,go,350.0,350.0,1.0,,,,,,,,,gray,circle
0.0,1.0,1.0,0.0,6.0,6.0,402.6215200010483,2.0,0.0,part_2,go,350.0,350.0,1.0,,,,,,,,,green,hexagon
0.0,2.0,2.0,0.0,5.0,5.0,499.5156200002384,2.0,0.0,part_2,go,350.0,350.0,1.0,,,,,,,,,yellow,flipped triangle
0.0,3.0,3.0,0.0,5.0,5.0,536.3698880009906,2.0,0.0,part_2,go,350.0,350.0,1.0,,,,,,,,,gray,circle
0.0,4.0,4.0,0.0,5.0,5.0,460.2326939984777,2.0,0.0,part_2,go,350.0,350.0,1.0,,,,,,,,,white,diamond
0.0,7.0,3.0,1.0,5.0,5.0,338.7036420008371,2.0,0.0,part_2,stop,350.0,350.0,3.0,,,,,,,,,orange,triangle
0.0,6.0,2.0,1.0,5.0,0.0,0.0,2.0,0.0,part_2,stop,300.0,350.0,4.0,,,,,,,,,magenta,cross
0.0,1.0,1.0,0.0,5.0,5.0,508.64590699893597,2.0,0.0,part_2,go,350.0,350.0,1.0,,,,,,,,,green,hexagon
0.0,2.0,2.0,0.0,6.0,6.0,539.7537289991305,2.0,0.0,part_2,go,350.0,350.0,1.0,,,,,,,,,yellow,flipped triangle
0.0,1.0,1.0,0.0,6.0,6.0,633.186574001229,2.0,0.0,part_2,go,350.0,350.0,1.0,,,,,,,,,green,hexagon
0.0,2.0,2.0,0.0,6.0,6.0,422.9049119985575,2.0,0.0,part_2,go,350.0,350.0,1.0,,,,,,,,,yellow,flipped triangle
0.0,7.0,3.0,1.0,5.0,0.0,0.0,2.0,0.0,part_2,stop,350.0,350.0,4.0,,,,,,,,,orange,triangle
0.0,3.0,3.0,0.0,6.0,6.0,465.3465749997849,2.0,0.0,part_2,go,400.0,350.0,1.0,,,,,,,,,gray,circle
0.0,5.0,1.0,1.0,6.0,6.0,588.7700120001682,2.0,0.0,part_2,go,400.0,350.0,1.0,,,,,,,,,cyan,square
0.0,5.0,1.0,1.0,5.0,5.0,292.7926960001059,2.0,0.0,part_2,stop,400.0,350.0,3.0,,,,,,,,,cyan,square
0.0,6.0,2.0,1.0,5.0,5.0,883.9534180006012,2.0,0.0,part_2,go,350.0,350.0,1.0,,,,,,,,,magenta,cross
0.0,1.0,1.0,0.0,6.0,6.0,256.9934290004312,2.0,0.0,part_2,go,350.0,350.0,1.0,,,,,,,,,green,hexagon
0.0,6.0,2.0,1.0,5.0,0.0,0.0,2.0,0.0,part_2,stop,350.0,350.0,4.0,,,,,,,,,magenta,cross
0.0,8.0,4.0,1.0,6.0,6.0,517.5832099994295,2.0,0.0,part_2,stop,400.0,350.0,3.0,,,,,,,,,blue,I
0.0,7.0,3.0,1.0,6.0,6.0,643.6517820002337,2.0,0.0,part_2,go,400.0,300.0,1.0,,,,,,,,,orange,triangle
0.0,3.0,3.0,0.0,5.0,5.0,539.5416950013896,2.0,0.0,part_2,go,400.0,300.0,1.0,,,,,,,,,gray,circle
0.0,6.0,2.0,1.0,6.0,6.0,521.99514700078,2.0,0.0,part_2,go,400.0,300.0,1.0,,,,,,,,,magenta,cross
0.0,4.0,4.0,0.0,6.0,6.0,546.0250619998988,2.0,0.0,part_2,go,400.0,300.0,1.0,,,,,,,,,white,diamond
0.0,8.0,4.0,1.0,5.0,5.0,521.469741999681,2.0,0.0,part_2,stop,400.0,300.0,3.0,,,,,,,,,blue,I
0.0,6.0,2.0,1.0,6.0,6.0,554.2296709991206,2.0,0.0,part_2,go,350.0,300.0,1.0,,,,,,,,,magenta,cross
0.0,8.0,4.0,1.0,5.0,0.0,0.0,2.0,0.0,part_2,stop,350.0,300.0,4.0,,,,,,,,,blue,I
0.0,2.0,2.0,0.0,6.0,6.0,472.4280400005227,2.0,0.0,part_2,go,400.0,300.0,1.0,,,,,,,,,yellow,flipped triangle
0.0,2.0,2.0,0.0,6.0,6.0,374.7866470002918,2.0,0.0,part_2,go,400.0,300.0,1.0,,,,,,,,,yellow,flipped triangle
0.0,5.0,1.0,1.0,5.0,5.0,379.9440740003774,2.0,0.0,part_2,go,400.0,300.0,1.0,,,,,,,,,cyan,square
0.0,8.0,4.0,1.0,5.0,5.0,517.1783360001427,2.0,0.0,part_2,stop,400.0,300.0,3.0,,,,,,,,,blue,I
0.0,1.0,1.0,0.0,5.0,5.0,429.3164680002519,2.0,0.0,part_2,go,350.0,300.0,1.0,,,,,,,,,green,hexagon
0.0,2.0,2.0,0.0,5.0,5.0,550.6175329992402,2.0,0.0,part_2,go,350.0,300.0,1.0,,,,,,,,,yellow,flipped triangle
0.0,7.0,3.0,1.0,5.0,0.0,0.0,2.0,0.0,part_2,stop,350.0,300.0,4.0,,,,,,,,,orange,triangle
0.0,1.0,1.0,0.0,6.0,6.0,607.3772880008619,2.0,0.0,part_2,go,400.0,300.0,1.0,,,,,,,,,green,hexagon
0.0,6.0,2.0,1.0,5.0,0.0,0.0,3.0,0.0,part_2,stop,400.0,300.0,4.0,,,,,,,,,magenta,cross
0.0,3.0,3.0,0.0,5.0,5.0,473.7758850005775,3.0,0.0,part_2,go,450.0,300.0,1.0,,,,,,,,,gray,circle
0.0,1.0,1.0,0.0,5.0,5.0,453.2360030007112,3.0,0.0,part_2,go,450.0,300.0,1.0,,,,,,,,,green,hexagon
0.0,2.0,2.0,0.0,5.0,5.0,523.1321199989907,3.0,0.0,part_2,go,450.0,300.0,1.0,,,,,,,,,yellow,flipped triangle
0.0,8.0,4.0,1.0,6.0,6.0,781.3608569995267,3.0,0.0,part_2,go,450.0,300.0,1.0,,,,,,,,,blue,I
0.0,1.0,1.0,0.0,6.0,6.0,408.3201419998659,3.0,0.0,part_2,go,450.0,300.0,1.0,,,,,,,,,green,hexagon
0.0,6.0,2.0,1.0,5.0,5.0,562.643200999446,3.0,0.0,part_2,stop,450.0,300.0,3.0,,,,,,,,,magenta,cross
0.0,6.0,2.0,1.0,5.0,5.0,702.6351360000263,3.0,0.0,part_2,go,400.0,300.0,1.0,,,,,,,,,magenta,cross
0.0,5.0,1.0,1.0,6.0,6.0,376.3903969993407,3.0,0.0,part_2,go,400.0,300.0,1.0,,,,,,,,,cyan,square
0.0,1.0,1.0,0.0,6.0,6.0,430.808357999922,3.0,0.0,part_2,go,400.0,300.0,1.0,,,,,,,,,green,hexagon
0.0,4.0,4.0,0.0,6.0,6.0,351.4366199997312,3.0,0.0,part_2,go,400.0,300.0,1.0,,,,,,,,,white,diamond
0.0,4.0,4.0,0.0,5.0,5.0,416.9350029987981,3.0,0.0,part_2,go,400.0,300.0,1.0,,,,,,,,,white,diamond
0.0,2.0,2.0,0.0,5.0,5.0,583.3420560011291,3.0,0.0,part_2,go,400.0,300.0,1.0,,,,,,,,,yellow,flipped triangle
0.0,4.0,4.0,0.0,5.0,5.0,547.5373450008192,3.0,0.0,part_2,go,400.0,300.0,1.0,,,,,,,,,white,diamond
0.0,6.0,2.0,1.0,6.0,6.0,364.7155329999805,3.0,0.0,part_2,stop,400.0,300.0,3.0,,,,,,,,,magenta,cross
0.0,3.0,3.0,0.0,5.0,5.0,371.1597670007904,3.0,0.0,part_2,go,400.0,250.0,1.0,,,,,,,,,gray,circle
0.0,5.0,1.0,1.0,6.0,6.0,352.5819980004598,3.0,0.0,part_2,stop,400.0,250.0,3.0,,,,,,,,,cyan,square
0.0,2.0,2.0,0.0,6.0,6.0,582.3221169994213,3.0,0.0,part_2,go,400.0,200.0,1.0,,,,,,,,,yellow,flipped triangle
0.0,7.0,3.0,1.0,6.0,0.0,0.0,3.0,0.0,part_2,stop,400.0,200.0,4.0,,,,,,,,,orange,triangle
0.0,1.0,1.0,0.0,6.0,6.0,500.2526139996917,3.0,0.0,part_2,go,400.0,250.0,1.0,,,,,,,,,green,hexagon
0.0,6.0,2.0,1.0,5.0,5.0,535.080404000837,3.0,0.0,part_2,stop,400.0,250.0,3.0,,,,,,,,,magenta,cross
0.0,6.0,2.0,1.0,5.0,0.0,0.0,3.0,0.0,part_2,stop,350.0,250.0,4.0,,,,,,,,,magenta,cross
0.0,7.0,3.0,1.0,5.0,5.0,500.4644719992939,3.0,0.0,part_2,stop,400.0,250.0,3.0,,,,,,,,,orange,triangle
0.0,2.0,2.0,0.0,6.0,6.0,490.95774899979,3.0,0.0,part_2,go,350.0,250.0,1.0,,,,,,,,,yellow,flipped triangle
0.0,8.0,4.0,1.0,6.0,0.0,0.0,3.0,0.0,part_2,stop,350.0,250.0,4.0,,,,,,,,,blue,I
0.0,8.0,4.0,1.0,5.0,0.0,0.0,3.0,0.0,part_2,stop,350.0,300.0,4.0,,,,,,,,,blue,I
0.0,2.0,2.0,0.0,5.0,5.0,639.2506860011054,3.0,0.0,part_2,go,400.0,300.0,1.0,,,,,,,,,yellow,flipped triangle
0.0,4.0,4.0,0.0,6.0,6.0,714.1259290001472,3.0,0.0,part_2,go,400.0,300.0,1.0,,,,,,,,,white,diamond
0.0,5.0,1.0,1.0,6.0,6.0,407.7596289989742,3.0,0.0,part_2,stop,400.0,300.0,3.0,,,,,,,,,cyan,square
0.0,4.0,4.0,0.0,6.0,6.0,574.7000720002688,3.0,0.0,part_2,go,400.0,250.0,1.0,,,,,,,,,white,diamond
0.0,3.0,3.0,0.0,5.0,5.0,570.5787799997779,3.0,0.0,part_2,go,400.0,250.0,1.0,,,,,,,,,gray,circle
0.0,2.0,2.0,0.0,5.0,5.0,490.1540509999904,3.0,0.0,part_2,go,400.0,250.0,1.0,,,,,,,,,yellow,flipped triangle
0.0,4.0,4.0,0.0,6.0,6.0,570.3878169988457,3.0,0.0,part_2,go,400.0,250.0,1.0,,,,,,,,,white,diamond
0.0,7.0,3.0,1.0,6.0,0.0,0.0,3.0,0.0,part_2,stop,400.0,250.0,4.0,,,,,,,,,orange,triangle
0.0,4.0,4.0,0.0,6.0,6.0,440.548824999496,3.0,0.0,part_2,go,400.0,300.0,1.0,,,,,,,,,white,diamond
0.0,3.0,3.0,0.0,6.0,6.0,366.2384780000138,3.0,0.0,part_2,go,400.0,300.0,1.0,,,,,,,,,gray,circle
0.0,8.0,4.0,1.0,5.0,0.0,0.0,4.0,0.0,part_2,stop,400.0,300.0,4.0,,,,,,,,,blue,I
0.0,7.0,3.0,1.0,6.0,6.0,376.7864700002974,4.0,0.0,part_2,stop,450.0,300.0,3.0,,,,,,,,,orange,triangle
0.0,5.0,1.0,1.0,5.0,5.0,440.498355001182,4.0,0.0,part_2,stop,450.0,250.0,3.0,,,,,,,,,cyan,square
0.0,8.0,4.0,1.0,6.0,6.0,687.2524480004358,4.0,0.0,part_2,go,400.0,250.0,1.0,,,,,,,,,blue,I
0.0,6.0,2.0,1.0,5.0,0.0,0.0,4.0,0.0,part_2,stop,400.0,250.0,4.0,,,,,,,,,magenta,cross
0.0,2.0,2.0,0.0,6.0,6.0,621.0386679995281,4.0,0.0,part_2,go,450.0,250.0,1.0,,,,,,,,,yellow,flipped triangle
0.0,6.0,2.0,1.0,6.0,6.0,404.0178679988457,4.0,0.0,part_2,stop,450.0,250.0,3.0,,,,,,,,,magenta,cross
0.0,1.0,1.0,0.0,6.0,6.0,746.2358619995939,4.0,0.0,part_2,go,450.0,200.0,1.0,,,,,,,,,green,hexagon
0.0,2.0,2.0,0.0,6.0,6.0,424.8718000017106,4.0,0.0,part_2,go,450.0,200.0,1.0,,,,,,,,,yellow,flipped triangle
0.0,2.0,2.0,0.0,6.0,6.0,428.0141350009216,4.0,0.0,part_2,go,450.0,200.0,1.0,,,,,,,,,yellow,flipped triangle
0.0,8.0,4.0,1.0,5.0,0.0,0.0,4.0,0.0,part_2,stop,450.0,200.0,4.0,,,,,,,,,blue,I
0.0,5.0,1.0,1.0,6.0,0.0,0.0,4.0,0.0,part_2,stop,500.0,200.0,4.0,,,,,,,,,cyan,square
0.0,6.0,2.0,1.0,6.0,0.0,0.0,4.0,0.0,part_2,stop,500.0,250.0,4.0,,,,,,,,,magenta,cross
0.0,7.0,3.0,1.0,6.0,6.0,628.5090159999527,4.0,0.0,part_2,go,500.0,300.0,1.0,,,,,,,,,orange,triangle
0.0,8.0,4.0,1.0,5.0,0.0,0.0,4.0,0.0,part_2,stop,500.0,300.0,4.0,,,,,,,,,blue,I
0.0,8.0,4.0,1.0,5.0,5.0,750.963481999861,4.0,0.0,part_2,go,550.0,300.0,1.0,,,,,,,,,blue,I
0.0,2.0,2.0,0.0,6.0,6.0,593.5517119996803,4.0,0.0,part_2,go,550.0,300.0,1.0,,,,,,,,,yellow,flipped triangle
0.0,1.0,1.0,0.0,5.0,5.0,538.354440999683,4.0,0.0,part_2,go,550.0,300.0,1.0,,,,,,,,,green,hexagon
0.0,8.0,4.0,1.0,6.0,0.0,0.0,4.0,0.0,part_2,stop,550.0,300.0,4.0,,,,,,,,,blue,I
0.0,4.0,4.0,0.0,6.0,6.0,391.2756850004371,4.0,0.0,part_2,go,550.0,350.0,1.0,,,,,,,,,white,diamond
0.0,6.0,2.0,1.0,5.0,5.0,706.7739230005827,4.0,0.0,part_2,go,550.0,350.0,1.0,,,,,,,,,magenta,cross
0.0,7.0,3.0,1.0,5.0,0.0,0.0,4.0,0.0,part_2,stop,550.0,350.0,4.0,,,,,,,,,orange,triangle
0.0,7.0,3.0,1.0,6.0,6.0,380.9305980012141,4.0,0.0,part_2,stop,600.0,350.0,3.0,,,,,,,,,orange,triangle
0.0,4.0,4.0,0.0,6.0,6.0,537.0907819997228,4.0,0.0,part_2,go,600.0,300.0,1.0,,,,,,,,,white,diamond
0.0,8.0,4.0,1.0,5.0,5.0,680.590318999748,4.0,0.0,part_2,go,600.0,300.0,1.0,,,,,,,,,blue,I
0.0,5.0,1.0,1.0,5.0,0.0,0.0,4.0,0.0,part_2,stop,600.0,300.0,4.0,,,,,,,,,cyan,square
0.0,3.0,3.0,0.0,6.0,6.0,877.3066390003805,4.0,0.0,part_2,go,650.0,300.0,1.0,,,,,,,,,gray,circle
0.0,1.0,1.0,0.0,6.0,6.0,547.6116129993898,4.0,0.0,part_2,go,650.0,300.0,1.0,,,,,,,,,green,hexagon
0.0,7.0,3.0,1.0,5.0,5.0,372.9270219992031,4.0,0.0,part_2,stop,650.0,300.0,3.0,,,,,,,,,orange,triangle
0.0,2.0,2.0,0.0,5.0,5.0,674.2145099997288,4.0,0.0,part_2,go,600.0,300.0,1.0,,,,,,,,,yellow,flipped triangle
0.0,1.0,1.0,0.0,5.0,5.0,426.9495159987855,4.0,0.0,part_2,go,600.0,300.0,1.0,,,,,,,,,green,hexagon
0.0,3.0,3.0,0.0,5.0,5.0,439.6422850004455,4.0,0.0,part_2,go,600.0,300.0,1.0,,,,,,,,,gray,circle
0.0,7.0,3.0,1.0,6.0,6.0,526.7827860006946,4.0,0.0,part_2,go,600.0,300.0,1.0,,,,,,,,,orange,triangle
0.0,3.0,3.0,0.0,6.0,6.0,418.2193500000721,4.0,0.0,part_2,go,600.0,300.0,1.0,,,,,,,,,gray,circle
0.0,7.0,3.0,1.0,5.0,5.0,858.3544089997304,4.0,0.0,part_2,stop,600.0,300.0,3.0,,,,,,,,,orange,triangle
0.0,5.0,1.0,1.0,6.0,0.0,0.0,4.0,0.0,part_2,stop,550.0,300.0,4.0,,,,,,,,,cyan,square
0.0,6.0,2.0,1.0,5.0,5.0,679.34305900053,5.0,0.0,part_2,go,550.0,350.0,1.0,,,,,,,,,magenta,cross
0.0,2.0,2.0,0.0,5.0,5.0,447.8527740011486,5.0,0.0,part_2,go,550.0,350.0,1.0,,,,,,,,,yellow,flipped triangle
0.0,3.0,3.0,0.0,6.0,6.0,403.7462509986653,5.0,0.0,part_2,go,550.0,350.0,1.0,,,,,,,,,gray,circle
0.0,7.0,3.0,1.0,6.0,6.0,450.2063600011752,5.0,0.0,part_2,go,550.0,350.0,1.0,,,,,,,,,orange,triangle
0.0,5.0,1.0,1.0,6.0,6.0,432.7639690000069,5.0,0.0,part_2,stop,550.0,350.0,3.0,,,,,,,,,cyan,square
0.0,7.0,3.0,1.0,5.0,5.0,593.7872800004698,5.0,0.0,part_2,stop,550.0,300.0,3.0,,,,,,,,,orange,triangle
0.0,6.0,2.0,1.0,6.0,0.0,0.0,5.0,0.0,part_2,stop,500.0,300.0,4.0,,,,,,,,,magenta,cross
0.0,2.0,2.0,0.0,6.0,6.0,453.7028599988844,5.0,0.0,part_2,go,500.0,350.0,1.0,,,,,,,,,yellow,flipped triangle
0.0,5.0,1.0,1.0,5.0,5.0,701.792015999672,5.0,0.0,part_2,go,500.0,350.0,1.0,,,,,,,,,cyan,square
0.0,1.0,1.0,0.0,6.0,6.0,405.6513229988923,5.0,0.0,part_2,go,500.0,350.0,1.0,,,,,,,,,green,hexagon
0.0,3.0,3.0,0.0,5.0,5.0,374.2961110001488,5.0,0.0,part_2,go,500.0,350.0,1.0,,,,,,,,,gray,circle
0.0,6.0,2.0,1.0,6.0,6.0,914.6228179997706,5.0,0.0,part_2,go,500.0,350.0,1.0,,,,,,,,,magenta,cross
0.0,5.0,1.0,1.0,5.0,5.0,657.0975609993184,5.0,0.0,part_2,go,500.0,350.0,1.0,,,,,,,,,cyan,square
0.0,8.0,4.0,1.0,6.0,6.0,386.4234449993091,5.0,0.0,part_2,stop,500.0,350.0,3.0,,,,,,,,,blue,I
0.0,8.0,4.0,1.0,6.0,0.0,0.0,5.0,0.0,part_2,stop,500.0,300.0,4.0,,,,,,,,,blue,I
0.0,7.0,3.0,1.0,6.0,0.0,0.0,5.0,0.0,part_2,stop,500.0,350.0,4.0,,,,,,,,,orange,triangle
0.0,7.0,3.0,1.0,6.0,6.0,803.909329999442,5.0,0.0,part_2,go,500.0,400.0,1.0,,,,,,,,,orange,triangle
0.0,7.0,3.0,1.0,5.0,5.0,351.2079129995982,5.0,0.0,part_2,go,500.0,400.0,1.0,,,,,,,,,orange,triangle
0.0,8.0,4.0,1.0,5.0,5.0,910.8008180010074,5.0,0.0,part_2,go,500.0,400.0,1.0,,,,,,,,,blue,I
0.0,8.0,4.0,1.0,6.0,0.0,0.0,5.0,0.0,part_2,stop,500.0,400.0,4.0,,,,,,,,,blue,I
0.0,1.0,1.0,0.0,5.0,5.0,543.7270229995192,5.0,0.0,part_2,go,500.0,450.0,1.0,,,,,,,,,green,hexagon
0.0,2.0,2.0,0.0,6.0,6.0,590.8389319993148,5.0,0.0,part_2,go,500.0,450.0,1.0,,,,,,,,,yellow,flipped triangle
0.0,1.0,1.0,0.0,5.0,5.0,330.2387910007383,5.0,0.0,part_2,go,500.0,450.0,1.0,,,,,,,,,green,hexagon
0.0,4.0,4.0,0.0,5.0,5.0,510.6400510012463,5.0,0.0,part_2,go,500.0,450.0,1.0,,,,,,,,,white,diamond
0.0,5.0,1.0,1.0,6.0,6.0,519.2576240006019,5.0,0.0,part_2,stop,500.0,450.0,3.0,,,,,,,,,cyan,square
0.0,3.0,3.0,0.0,5.0,5.0,747.3041270004614,5.0,0.0,part_2,go,500.0,400.0,1.0,,,,,,,,,gray,circle
0.0,8.0,4.0,1.0,5.0,5.0,633.634321999125,5.0,0.0,part_2,stop,500.0,400.0,3.0,,,,,,,,,blue,I
0.0,3.0,3.0,0.0,6.0,6.0,484.6745689992531,5.0,0.0,part_2,go,450.0,400.0,1.0,,,,,,,,,gray,circle
0.0,7.0,3.0,1.0,6.0,6.0,447.4715480009763,5.0,0.0,part_2,stop,450.0,400.0,3.0,,,,,,,,,orange,triangle
0.0,7.0,3.0,1.0,6.0,0.0,0.0,5.0,0.0,part_2,stop,450.0,350.0,4.0,,,,,,,,,orange,triangle
0.0,7.0,3.0,1.0,5.0,5.0,549.6706029989582,5.0,0.0,part_2,go,450.0,400.0,1.0,,,,,,,,,orange,triangle
0.0,1.0,1.0,0.0,5.0,5.0,781.4850399990974,5.0,0.0,part_2,go,450.0,400.0,1.0,,,,,,,,,green,hexagon
0.0,4.0,4.0,0.0,6.0,6.0,402.549677000934,5.0,0.0,part_2,go,450.0,400.0,1.0,,,,,,,,,white,diamond
0.0,8.0,4.0,1.0,6.0,6.0,362.4976939991029,5.0,0.0,part_2,go,450.0,400.0,1.0,,,,,,,,,blue,I
0.0,1.0,1.0,0.0,6.0,6.0,416.4311839995207,5.0,0.0,part_2,go,450.0,400.0,1.0,,,,,,,,,green,hexagon
0.0,3.0,3.0,0.0,6.0,6.0,488.1345390003844,5.0,0.0,part_2,go,450.0,400.0,1.0,,,,,,,,,gray,circle
0.0,5.0,1.0,1.0,6.0,6.0,921.4914849999332,6.0,0.0,part_2,stop,450.0,400.0,3.0,,,,,,,,,cyan,square
0.0,6.0,2.0,1.0,6.0,6.0,349.1334400005144,6.0,0.0,part_2,stop,450.0,350.0,3.0,,,,,,,,,magenta,cross
0.0,5.0,1.0,1.0,5.0,5.0,641.4332040003501,6.0,0.0,part_2,stop,450.0,300.0,3.0,,,,,,,,,cyan,square
0.0,1.0,1.0,0.0,5.0,5.0,775.2200440008892,6.0,0.0,part_2,go,400.0,300.0,1.0,,,,,,,,,green,hexagon
0.0,8.0,4.0,1.0,6.0,0.0,0.0,6.0,0.0,part_2,stop,400.0,300.0,4.0,,,,,,,,,blue,I
0.0,4.0,4.0,0.0,5.0,5.0,607.3604630000773,6.0,0.0,part_2,go,400.0,350.0,1.0,,,,,,,,,white,diamond
0.0,4.0,4.0,0.0,6.0,6.0,736.0213800002384,6.0,0.0,part_2,go,400.0,350.0,1.0,,,,,,,,,white,diamond
0.0,8.0,4.0,1.0,6.0,0.0,0.0,6.0,0.0,part_2,stop,400.0,350.0,4.0,,,,,,,,,blue,I
0.0,3.0,3.0,0.0,5.0,5.0,597.7551089999906,6.0,0.0,part_2,go,400.0,400.0,1.0,,,,,,,,,gray,circle
0.0,8.0,4.0,1.0,5.0,0.0,0.0,6.0,0.0,part_2,stop,400.0,400.0,4.0,,,,,,,,,blue,I
0.0,8.0,4.0,1.0,6.0,0.0,0.0,6.0,0.0,part_2,stop,450.0,400.0,4.0,,,,,,,,,blue,I
0.0,5.0,1.0,1.0,6.0,0.0,0.0,6.0,0.0,part_2,stop,450.0,450.0,4.0,,,,,,,,,cyan,square
0.0,3.0,3.0,0.0,6.0,6.0,513.9134609999019,6.0,0.0,part_2,go,450.0,500.0,1.0,,,,,,,,,gray,circle
0.0,7.0,3.0,1.0,5.0,5.0,446.2208439999813,6.0,0.0,part_2,stop,450.0,500.0,3.0,,,,,,,,,orange,triangle
0.0,1.0,1.0,0.0,6.0,6.0,559.8681459996442,6.0,0.0,part_2,go,400.0,500.0,1.0,,,,,,,,,green,hexagon
0.0,4.0,4.0,0.0,6.0,6.0,513.8696700014407,6.0,0.0,part_2,go,400.0,500.0,1.0,,,,,,,,,white,diamond
0.0,8.0,4.0,1.0,5.0,0.0,0.0,6.0,0.0,part_2,stop,400.0,500.0,4.0,,,,,,,,,blue,I
0.0,7.0,3.0,1.0,5.0,0.0,0.0,6.0,0.0,part_2,stop,450.0,500.0,4.0,,,,,,,,,orange,triangle
0.0,3.0,3.0,0.0,5.0,5.0,727.7228380007728,6.0,0.0,part_2,go,500.0,500.0,1.0,,,,,,,,,gray,circle
0.0,7.0,3.0,1.0,6.0,6.0,684.468815999935,6.0,0.0,part_2,stop,500.0,500.0,3.0,,,,,,,,,orange,triangle
0.0,3.0,3.0,0.0,5.0,5.0,191.696623000098,6.0,0.0,part_2,go,500.0,450.0,1.0,,,,,,,,,gray,circle
0.0,4.0,4.0,0.0,6.0,6.0,391.2624650001817,6.0,0.0,part_2,go,500.0,450.0,1.0,,,,,,,,,white,diamond
0.0,2.0,2.0,0.0,5.0,5.0,504.5702370007348,6.0,0.0,part_2,go,500.0,450.0,1.0,,,,,,,,,yellow,flipped triangle
0.0,8.0,4.0,1.0,5.0,5.0,678.3772759990825,6.0,0.0,part_2,stop,500.0,450.0,3.0,,,,,,,,,blue,I
0.0,4.0,4.0,0.0,6.0,6.0,721.8118260007031,6.0,0.0,part_2,go,450.0,450.0,1.0,,,,,,,,,white,diamond
0.0,1.0,1.0,0.0,5.0,5.0,707.391877000191,6.0,0.0,part_2,go,450.0,450.0,1.0,,,,,,,,,green,hexagon
0.0,5.0,1.0,1.0,6.0,6.0,597.354910998547,6.0,0.0,part_2,stop,450.0,450.0,3.0,,,,,,,,,cyan,square
0.0,1.0,1.0,0.0,6.0,6.0,1038.6173000006238,6.0,0.0,part_2,go,450.0,400.0,1.0,,,,,,,,,green,hexagon
0.0,3.0,3.0,0.0,6.0,6.0,882.9824950007605,6.0,0.0,part_2,go,450.0,400.0,1.0,,,,,,,,,gray,circle
0.0,5.0,1.0,1.0,6.0,6.0,1011.0307630002353,6.0,0.0,part_2,go,450.0,400.0,1.0,,,,,,,,,cyan,square
0.0,5.0,1.0,1.0,6.0,0.0,0.0,6.0,0.0,part_2,stop,450.0,400.0,4.0,,,,,,,,,cyan,square
0.0,6.0,2.0,1.0,6.0,6.0,883.9132399989467,6.0,0.0,part_2,go,450.0,450.0,1.0,,,,,,,,,magenta,cross
0.0,8.0,4.0,1.0,6.0,0.0,0.0,6.0,0.0,part_2,stop,450.0,450.0,4.0,,,,,,,,,blue,I
0.0,6.0,2.0,1.0,6.0,0.0,0.0,6.0,0.0,part_2,stop,450.0,500.0,4.0,,,,,,,,,magenta,cross
0.0,8.0,4.0,1.0,6.0,0.0,0.0,6.0,0.0,part_2,stop,450.0,550.0,4.0,,,,,,,,,blue,I
0.0,2.0,2.0,0.0,6.0,6.0,455.1595369994174,6.0,0.0,part_2,go,450.0,600.0,1.0,,,,,,,,,yellow,flipped triangle
0.0,6.0,2.0,1.0,5.0,5.0,534.7451800007548,7.0,0.0,part_2,stop,450.0,600.0,3.0,,,,,,,,,magenta,cross
0.0,5.0,1.0,1.0,5.0,5.0,683.6604679992888,7.0,0.0,part_2,go,400.0,600.0,1.0,,,,,,,,,cyan,square
0.0,3.0,3.0,0.0,6.0,6.0,357.8197579990956,7.0,0.0,part_2,go,400.0,600.0,1.0,,,,,,,,,gray,circle
0.0,4.0,4.0,0.0,5.0,5.0,312.124471000061,7.0,0.0,part_2,go,400.0,600.0,1.0,,,,,,,,,white,diamond
0.0,3.0,3.0,0.0,5.0,5.0,520.7001250000758,7.0,0.0,part_2,go,400.0,600.0,1.0,,,,,,,,,gray,circle
0.0,1.0,1.0,0.0,6.0,6.0,314.8070629995345,7.0,0.0,part_2,go,400.0,600.0,1.0,,,,,,,,,green,hexagon
0.0,4.0,4.0,0.0,5.0,5.0,338.3655520010507,7.0,0.0,part_2,go,400.0,600.0,1.0,,,,,,,,,white,diamond
0.0,5.0,1.0,1.0,5.0,5.0,472.4662640001043,7.0,0.0,part_2,stop,400.0,600.0,3.0,,,,,,,,,cyan,square
0.0,3.0,3.0,0.0,5.0,5.0,545.5335129990999,7.0,0.0,part_2,go,350.0,600.0,1.0,,,,,,,,,gray,circle
0.0,4.0,4.0,0.0,5.0,5.0,591.3457959995867,7.0,0.0,part_2,go,350.0,600.0,1.0,,,,,,,,,white,diamond
0.0,3.0,3.0,0.0,5.0,5.0,372.7884020008787,7.0,0.0,part_2,go,350.0,600.0,1.0,,,,,,,,,gray,circle
0.0,3.0,3.0,0.0,6.0,6.0,374.4380669995735,7.0,0.0,part_2,go,350.0,600.0,1.0,,,,,,,,,gray,circle
0.0,4.0,4.0,0.0,5.0,5.0,310.3702049993444,7.0,0.0,part_2,go,350.0,600.0,1.0,,,,,,,,,white,diamond
0.0,6.0,2.0,1.0,6.0,6.0,233.5505859991826,7.0,0.0,part_2,stop,350.0,600.0,3.0,,,,,,,,,magenta,cross
0.0,8.0,4.0,1.0,6.0,6.0,406.6653850004513,7.0,0.0,part_2,stop,350.0,550.0,3.0,,,,,,,,,blue,I
0.0,7.0,3.0,1.0,6.0,6.0,330.0167249999504,7.0,0.0,part_2,stop,350.0,500.0,3.0,,,,,,,,,orange,triangle
0.0,3.0,3.0,0.0,6.0,6.0,391.516623998541,7.0,0.0,part_2,go,350.0,450.0,1.0,,,,,,,,,gray,circle
0.0,6.0,2.0,1.0,6.0,6.0,410.1714999997057,7.0,0.0,part_2,go,350.0,450.0,1.0,,,,,,,,,magenta,cross
0.0,4.0,4.0,0.0,5.0,5.0,515.8861969994177,7.0,0.0,part_2,go,350.0,450.0,1.0,,,,,,,,,white,diamond
0.0,5.0,1.0,1.0,6.0,6.0,380.8939379996445,7.0,0.0,part_2,stop,350.0,450.0,3.0,,,,,,,,,cyan,square
0.0,5.0,1.0,1.0,6.0,6.0,529.3714079998608,7.0,0.0,part_2,stop,350.0,400.0,3.0,,,,,,,,,cyan,square
0.0,7.0,3.0,1.0,5.0,0.0,0.0,7.0,0.0,part_2,stop,350.0,350.0,4.0,,,,,,,,,orange,triangle
0.0,4.0,4.0,0.0,6.0,6.0,338.1810459995904,7.0,0.0,part_2,go,400.0,350.0,1.0,,,,,,,,,white,diamond
0.0,4.0,4.0,0.0,6.0,6.0,348.8266460008162,7.0,0.0,part_2,go,400.0,350.0,1.0,,,,,,,,,white,diamond
0.0,1.0,1.0,0.0,5.0,5.0,651.8306489997485,7.0,0.0,part_2,go,400.0,350.0,1.0,,,,,,,,,green,hexagon
0.0,4.0,4.0,0.0,5.0,5.0,438.8442950003082,7.0,0.0,part_2,go,400.0,350.0,1.0,,,,,,,,,white,diamond
0.0,6.0,2.0,1.0,6.0,6.0,340.4218579998996,7.0,0.0,part_2,stop,400.0,350.0,3.0,,,,,,,,,magenta,cross
0.0,4.0,4.0,0.0,5.0,5.0,286.9220609991316,7.0,0.0,part_2,go,400.0,300.0,1.0,,,,,,,,,white,diamond
0.0,5.0,1.0,1.0,5.0,0.0,0.0,7.0,0.0,part_2,stop,400.0,300.0,4.0,,,,,,,,,cyan,square
0.0,8.0,4.0,1.0,5.0,0.0,0.0,7.0,0.0,part_2,stop,450.0,300.0,4.0,,,,,,,,,blue,I
0.0,5.0,1.0,1.0,5.0,5.0,476.835798999673,7.0,0.0,part_2,stop,500.0,300.0,3.0,,,,,,,,,cyan,square
0.0,3.0,3.0,0.0,6.0,6.0,493.1954250005219,7.0,0.0,part_2,go,450.0,300.0,1.0,,,,,,,,,gray,circle
0.0,5.0,1.0,1.0,5.0,0.0,0.0,7.0,0.0,part_2,stop,450.0,300.0,4.0,,,,,,,,,cyan,square
0.0,5.0,1.0,1.0,5.0,0.0,0.0,7.0,0.0,part_2,stop,500.0,300.0,4.0,,,,,,,,,cyan,square
0.0,2.0,2.0,0.0,5.0,5.0,580.9612439988996,7.0,0.0,part_2,go,550.0,300.0,1.0,,,,,,,,,yellow,flipped triangle
0.0,1.0,1.0,0.0,6.0,6.0,607.6012359990273,7.0,0.0,part_2,go,550.0,300.0,1.0,,,,,,,,,green,hexagon
0.0,6.0,2.0,1.0,6.0,6.0,371.55938000069,8.0,0.0,part_2,stop,550.0,300.0,3.0,,,,,,,,,magenta,cross
0.0,6.0,2.0,1.0,5.0,5.0,281.5598149991274,8.0,0.0,part_2,stop,550.0,250.0,3.0,,,,,,,,,magenta,cross
0.0,1.0,1.0,0.0,6.0,6.0,425.2050859995506,8.0,0.0,part_2,go,500.0,250.0,1.0,,,,,,,,,green,hexagon
0.0,2.0,2.0,0.0,6.0,6.0,354.1318679999676,8.0,0.0,part_2,go,500.0,250.0,1.0,,,,,,,,,yellow,flipped triangle
0.0,1.0,1.0,0.0,5.0,5.0,574.7524869984773,8.0,0.0,part_2,go,500.0,250.0,1.0,,,,,,,,,green,hexagon
0.0,4.0,4.0,0.0,6.0,6.0,259.564998001224,8.0,0.0,part_2,go,500.0,250.0,1.0,,,,,,,,,white,diamond
0.0,2.0,2.0,0.0,5.0,5.0,289.4550450000679,8.0,0.0,part_2,go,500.0,250.0,1.0,,,,,,,,,yellow,flipped triangle
0.0,7.0,3.0,1.0,5.0,5.0,454.3929880001087,8.0,0.0,part_2,stop,500.0,250.0,3.0,,,,,,,,,orange,triangle
0.0,6.0,2.0,1.0,6.0,0.0,0.0,8.0,0.0,part_2,stop,450.0,250.0,4.0,,,,,,,,,magenta,cross
0.0,1.0,1.0,0.0,6.0,6.0,300.6179720014188,8.0,0.0,part_2,go,450.0,300.0,1.0,,,,,,,,,green,hexagon
0.0,7.0,3.0,1.0,6.0,0.0,0.0,8.0,0.0,part_2,stop,450.0,300.0,4.0,,,,,,,,,orange,triangle
0.0,2.0,2.0,0.0,5.0,5.0,435.6652749993372,8.0,0.0,part_2,go,450.0,350.0,1.0,,,,,,,,,yellow,flipped triangle
0.0,5.0,1.0,1.0,5.0,5.0,416.7136409996601,8.0,0.0,part_2,stop,450.0,350.0,3.0,,,,,,,,,cyan,square
0.0,6.0,2.0,1.0,5.0,0.0,0.0,8.0,0.0,part_2,stop,400.0,350.0,4.0,,,,,,,,,magenta,cross
0.0,4.0,4.0,0.0,5.0,5.0,481.4644810012396,8.0,0.0,part_2,go,450.0,350.0,1.0,,,,,,,,,white,diamond
0.0,4.0,4.0,0.0,5.0,5.0,402.0782569987204,8.0,0.0,part_2,go,450.0,350.0,1.0,,,,,,,,,white,diamond
0.0,7.0,3.0,1.0,6.0,6.0,310.2559949984425,8.0,0.0,part_2,stop,450.0,350.0,3.0,,,,,,,,,orange,triangle
0.0,7.0,3.0,1.0,5.0,5.0,331.9008029993711,8.0,0.0,part_2,stop,450.0,300.0,3.0,,,,,,,,,orange,triangle
0.0,1.0,1.0,0.0,5.0,5.0,556.447498000125,8.0,0.0,part_2,go,400.0,300.0,1.0,,,,,,,,,green,hexagon
0.0,4.0,4.0,0.0,6.0,6.0,376.5738870006316,8.0,0.0,part_2,go,400.0,300.0,1.0,,,,,,,,,white,diamond
0.0,5.0,1.0,1.0,6.0,0.0,0.0,8.0,0.0,part_2,stop,400.0,300.0,4.0,,,,,,,,,cyan,square
0.0,8.0,4.0,1.0,5.0,5.0,491.0551000011764,8.0,0.0,part_2,stop,400.0,350.0,3.0,,,,,,,,,blue,I
0.0,8.0,4.0,1.0,6.0,6.0,792.4824609999632,8.0,0.0,part_2,go,350.0,350.0,1.0,,,,,,,,,blue,I
0.0,1.0,1.0,0.0,5.0,5.0,386.8517099999735,8.0,0.0,part_2,go,350.0,350.0,1.0,,,,,,,,,green,hexagon
0.0,2.0,2.0,0.0,5.0,5.0,545.6034979997639,8.0,0.0,part_2,go,350.0,350.0,1.0,,,,,,,,,yellow,flipped triangle
0.0,2.0,2.0,0.0,6.0,6.0,308.4352469995792,8.0,0.0,part_2,go,350.0,350.0,1.0,,,,,,,,,yellow,flipped triangle
0.0,6.0,2.0,1.0,5.0,0.0,0.0,8.0,0.0,part_2,stop,350.0,350.0,4.0,,,,,,,,,magenta,cross
0.0,3.0,3.0,0.0,5.0,5.0,588.528165999378,8.0,0.0,part_2,go,400.0,350.0,1.0,,,,,,,,,gray,circle
0.0,2.0,2.0,0.0,5.0,5.0,498.2154329991317,8.0,0.0,part_2,go,400.0,350.0,1.0,,,,,,,,,yellow,flipped triangle
0.0,6.0,2.0,1.0,6.0,0.0,0.0,8.0,0.0,part_2,stop,400.0,350.0,4.0,,,,,,,,,magenta,cross
0.0,7.0,3.0,1.0,6.0,6.0,450.1037079990055,8.0,0.0,part_2,go,400.0,400.0,1.0,,,,,,,,,orange,triangle
0.0,8.0,4.0,1.0,5.0,5.0,438.1812300016463,8.0,0.0,part_2,go,400.0,400.0,1.0,,,,,,,,,blue,I
0.0,1.0,1.0,0.0,5.0,5.0,555.1811730001646,8.0,0.0,part_2,go,400.0,400.0,1.0,,,,,,,,,green,hexagon
0.0,7.0,3.0,1.0,6.0,6.0,545.4674749998958,8.0,0.0,part_2,go,400.0,400.0,1.0,,,,,,,,,orange,triangle
0.0,2.0,2.0,0.0,5.0,5.0,519.8440960011794,8.0,0.0,part_2,go,400.0,400.0,1.0,,,,,,,,,yellow,flipped triangle
0.0,3.0,3.0,0.0,6.0,6.0,585.1698559999932,8.0,0.0,part_2,go,400.0,400.0,1.0,,,,,,,,,gray,circle
0.0,7.0,3.0,1.0,7.0,2.0,189.5107599993934,1.0,1.0,part_3,go,0.0,0.0,0.0,117.0,3.0,156.0,117.0,78.0,195.0,39.0,234.0,orange,triangle
0.0,5.0,1.0,1.0,7.0,1.0,3338.9626890002546,1.0,1.0,part_3,go,0.0,0.0,0.0,234.0,6.0,234.0,39.0,117.0,78.0,195.0,156.0,cyan,square
0.0,7.0,3.0,1.0,7.0,1.0,4097.4457370011805,1.0,1.0,part_3,go,0.0,0.0,0.0,162.0,3.0,162.0,108.0,54.0,270.0,216.0,324.0,orange,triangle
0.0,4.0,4.0,0.0,7.0,6.0,3146.150114000193,1.0,1.0,part_3,go,0.0,0.0,0.0,294.0,6.0,147.0,245.0,49.0,196.0,98.0,294.0,white,diamond
0.0,7.0,3.0,1.0,7.0,6.0,2825.714993001384,1.0,1.0,part_3,go,0.0,0.0,0.0,147.0,3.0,49.0,245.0,98.0,196.0,294.0,147.0,orange,triangle
0.0,7.0,3.0,1.0,7.0,1.0,2945.065335001346,1.0,1.0,part_3,go,0.0,0.0,0.0,162.0,3.0,162.0,324.0,54.0,216.0,108.0,270.0,orange,triangle
0.0,2.0,2.0,0.0,7.0,5.0,3140.147344998695,1.0,1.0,part_3,go,0.0,0.0,0.0,132.0,3.0,220.0,88.0,44.0,176.0,132.0,264.0,yellow,flipped triangle
0.0,2.0,2.0,0.0,7.0,4.0,3109.283203000814,1.0,1.0,part_3,go,0.0,0.0,0.0,98.0,2.0,147.0,196.0,49.0,98.0,245.0,294.0,yellow,flipped triangle
0.0,4.0,4.0,0.0,7.0,3.0,2593.3879490003164,1.0,1.0,part_3,go,0.0,0.0,0.0,270.0,5.0,108.0,54.0,270.0,216.0,162.0,324.0,white,diamond
0.0,1.0,1.0,0.0,7.0,2.0,1589.4794310006546,1.0,1.0,part_3,go,0.0,0.0,0.0,49.0,1.0,294.0,49.0,196.0,98.0,245.0,147.0,green,hexagon
0.0,7.0,3.0,1.0,7.0,3.0,3393.894635999459,1.0,1.0,part_3,go,0.0,0.0,0.0,132.0,3.0,44.0,88.0,132.0,220.0,264.0,176.0,orange,triangle
0.0,6.0,2.0,1.0,7.0,6.0,2162.6908119997097,1.0,1.0,part_3,go,0.0,0.0,0.0,78.0,2.0,39.0,117.0,195.0,156.0,234.0,78.0,magenta,cross
0.0,3.0,3.0,0.0,7.0,6.0,2596.050328998899,1.0,1.0,part_3,go,0.0,0.0,0.0,195.0,5.0,156.0,78.0,234.0,117.0,39.0,195.0,gray,circle
0.0,8.0,4.0,1.0,7.0,6.0,1506.1462079993362,1.0,1.0,part_3,go,0.0,0.0,0.0,264.0,6.0,44.0,220.0,88.0,132.0,176.0,264.0,blue,I
0.0,7.0,3.0,1.0,7.0,5.0,2511.092271999587,1.0,1.0,part_3,go,0.0,0.0,0.0,147.0,3.0,196.0,98.0,49.0,294.0,147.0,245.0,orange,triangle
0.0,6.0,2.0,1.0,7.0,6.0,3019.8730070005695,1.0,1.0,part_3,go,0.0,0.0,0.0,195.0,5.0,156.0,117.0,234.0,78.0,39.0,195.0,magenta,cross
0.0,3.0,3.0,0.0,7.0,3.0,2733.5414179997315,1.0,1.0,part_3,go,0.0,0.0,0.0,170.0,5.0,204.0,68.0,170.0,136.0,34.0,102.0,gray,circle
0.0,2.0,2.0,0.0,7.0,6.0,1772.481658999823,1.0,1.0,part_3,go,0.0,0.0,0.0,88.0,2.0,264.0,220.0,132.0,44.0,176.0,88.0,yellow,flipped triangle
0.0,5.0,1.0,1.0,7.0,6.0,2613.392010000098,1.0,1.0,part_3,go,0.0,0.0,0.0,108.0,2.0,54.0,216.0,162.0,324.0,270.0,108.0,cyan,square
0.0,2.0,2.0,0.0,7.0,3.0,2696.5962150006817,1.0,1.0,part_3,go,0.0,0.0,0.0,117.0,3.0,234.0,39.0,117.0,195.0,78.0,156.0,yellow,flipped triangle
0.0,6.0,2.0,1.0,7.0,6.0,2012.9128379994654,2.0,1.0,part_3,go,0.0,0.0,0.0,147.0,3.0,196.0,245.0,49.0,294.0,98.0,147.0,magenta,cross
0.0,4.0,4.0,0.0,7.0,4.0,3972.297561000232,2.0,1.0,part_3,go,0.0,0.0,0.0,264.0,6.0,88.0,176.0,132.0,264.0,44.0,220.0,white,diamond
0.0,1.0,1.0,0.0,7.0,3.0,3069.863497999904,2.0,1.0,part_3,go,0.0,0.0,0.0,54.0,1.0,270.0,324.0,54.0,108.0,162.0,216.0,green,hexagon
0.0,7.0,3.0,1.0,7.0,6.0,2610.01865399885,2.0,1.0,part_3,go,0.0,0.0,0.0,88.0,2.0,132.0,176.0,220.0,264.0,44.0,88.0,orange,triangle
0.0,1.0,1.0,0.0,7.0,5.0,1470.6001180002204,2.0,1.0,part_3,go,0.0,0.0,0.0,54.0,1.0,216.0,162.0,270.0,324.0,54.0,108.0,green,hexagon
0.0,8.0,4.0,1.0,7.0,3.0,2644.7364750001725,2.0,1.0,part_3,go,0.0,0.0,0.0,294.0,6.0,147.0,245.0,294.0,49.0,196.0,98.0,blue,I
0.0,5.0,1.0,1.0,7.0,5.0,3402.8862209997897,2.0,1.0,part_3,go,0.0,0.0,0.0,88.0,2.0,220.0,264.0,176.0,44.0,88.0,132.0,cyan,square
0.0,8.0,4.0,1.0,7.0,5.0,1881.2789160001555,2.0,1.0,part_3,go,0.0,0.0,0.0,264.0,6.0,220.0,44.0,176.0,88.0,264.0,132.0,blue,I
0.0,8.0,4.0,1.0,7.0,6.0,2599.193355999887,2.0,1.0,part_3,go,0.0,0.0,0.0,324.0,6.0,270.0,54.0,216.0,108.0,162.0,324.0,blue,I
0.0,4.0,4.0,0.0,7.0,3.0,3518.7077240007056,2.0,1.0,part_3,go,0.0,0.0,0.0,234.0,6.0,39.0,78.0,234.0,195.0,156.0,117.0,white,diamond
0.0,4.0,4.0,0.0,7.0,3.0,2124.203851000857,2.0,1.0,part_3,go,0.0,0.0,0.0,234.0,6.0,117.0,78.0,234.0,156.0,195.0,39.0,white,diamond
0.0,5.0,1.0,1.0,7.0,5.0,2432.220471999244,2.0,1.0,part_3,go,0.0,0.0,0.0,98.0,2.0,196.0,49.0,147.0,294.0,98.0,245.0,cyan,square
0.0,7.0,3.0,1.0,7.0,3.0,2590.345657999933,2.0,1.0,part_3,go,0.0,0.0,0.0,136.0,4.0,68.0,34.0,136.0,204.0,102.0,170.0,orange,triangle
0.0,3.0,3.0,0.0,7.0,5.0,2217.2481220004556,2.0,1.0,part_3,go,0.0,0.0,0.0,245.0,5.0,98.0,147.0,294.0,49.0,245.0,196.0,gray,circle
0.0,5.0,1.0,1.0,7.0,6.0,2004.2737490002764,2.0,1.0,part_3,go,0.0,0.0,0.0,68.0,2.0,136.0,34.0,170.0,204.0,102.0,68.0,cyan,square
0.0,8.0,4.0,1.0,7.0,4.0,2369.360103000872,2.0,1.0,part_3,go,0.0,0.0,0.0,204.0,6.0,170.0,136.0,102.0,204.0,34.0,68.0,blue,I
0.0,2.0,2.0,0.0,7.0,1.0,2690.424077998614,2.0,1.0,part_3,go,0.0,0.0,0.0,49.0,1.0,49.0,147.0,294.0,98.0,245.0,196.0,yellow,flipped triangle
0.0,1.0,1.0,0.0,7.0,6.0,2101.6963530000794,2.0,1.0,part_3,go,0.0,0.0,0.0,39.0,1.0,195.0,234.0,117.0,156.0,78.0,39.0,green,hexagon
0.0,6.0,2.0,1.0,7.0,3.0,2891.1549690001266,2.0,1.0,part_3,go,0.0,0.0,0.0,108.0,2.0,54.0,216.0,108.0,162.0,324.0,270.0,magenta,cross
0.0,4.0,4.0,0.0,7.0,1.0,2600.8005349995074,2.0,1.0,part_3,go,0.0,0.0,0.0,204.0,6.0,204.0,102.0,34.0,170.0,68.0,136.0,white,diamond
0.0,2.0,2.0,0.0,7.0,1.0,3263.7052409991156,3.0,1.0,part_3,go,0.0,0.0,0.0,102.0,3.0,102.0,170.0,204.0,136.0,34.0,68.0,yellow,flipped triangle
0.0,1.0,1.0,0.0,7.0,1.0,2075.7942410000396,3.0,1.0,part_3,go,0.0,0.0,0.0,88.0,2.0,88.0,220.0,132.0,264.0,44.0,176.0,green,hexagon
0.0,1.0,1.0,0.0,7.0,5.0,2623.503687000266,3.0,1.0,part_3,go,0.0,0.0,0.0,78.0,2.0,39.0,156.0,234.0,195.0,78.0,117.0,green,hexagon
0.0,8.0,4.0,1.0,7.0,5.0,1605.5336580011501,3.0,1.0,part_3,go,0.0,0.0,0.0,270.0,5.0,324.0,108.0,216.0,162.0,270.0,54.0,blue,I
0.0,1.0,1.0,0.0,7.0,6.0,2068.7481250006385,3.0,1.0,part_3,go,0.0,0.0,0.0,88.0,2.0,132.0,264.0,44.0,176.0,220.0,88.0,green,hexagon
0.0,6.0,2.0,1.0,7.0,6.0,3092.4433509990195,3.0,1.0,part_3,go,0.0,0.0,0.0,132.0,3.0,264.0,176.0,220.0,88.0,44.0,132.0,magenta,cross
0.0,6.0,2.0,1.0,7.0,3.0,2322.646809001526,3.0,1.0,part_3,go,0.0,0.0,0.0,147.0,3.0,49.0,245.0,147.0,294.0,98.0,196.0,magenta,cross
0.0,3.0,3.0,0.0,7.0,4.0,2097.8478550005093,3.0,1.0,part_3,go,0.0,0.0,0.0,195.0,5.0,78.0,117.0,156.0,195.0,39.0,234.0,gray,circle
0.0,4.0,4.0,0.0,7.0,4.0,3529.9662069992337,3.0,1.0,part_3,go,0.0,0.0,0.0,294.0,6.0,98.0,245.0,147.0,294.0,196.0,49.0,white,diamond
0.0,4.0,4.0,0.0,7.0,3.0,1660.3954579986748,3.0,1.0,part_3,go,0.0,0.0,0.0,270.0,5.0,54.0,216.0,270.0,162.0,324.0,108.0,white,diamond
0.0,2.0,2.0,0.0,7.0,4.0,2094.947913001306,3.0,1.0,part_3,go,0.0,0.0,0.0,78.0,2.0,156.0,39.0,117.0,78.0,234.0,195.0,yellow,flipped triangle
0.0,3.0,3.0,0.0,7.0,6.0,1580.6237100005092,3.0,2.0,part_3,go,0.0,0.0,0.0,216.0,4.0,108.0,162.0,54.0,324.0,270.0,216.0,gray,circle
0.0,8.0,4.0,1.0,7.0,5.0,2480.267594999532,3.0,1.0,part_3,go,0.0,0.0,0.0,204.0,6.0,68.0,102.0,136.0,34.0,204.0,170.0,blue,I
0.0,3.0,3.0,0.0,7.0,4.0,2817.580793000161,3.0,1.0,part_3,go,0.0,0.0,0.0,220.0,5.0,88.0,176.0,264.0,220.0,44.0,132.0,gray,circle
0.0,6.0,2.0,1.0,7.0,4.0,2956.9715359994007,3.0,1.0,part_3,go,0.0,0.0,0.0,102.0,3.0,34.0,68.0,204.0,102.0,136.0,170.0,magenta,cross
0.0,2.0,2.0,0.0,7.0,3.0,2185.968354000579,3.0,1.0,part_3,go,0.0,0.0,0.0,68.0,2.0,136.0,204.0,68.0,34.0,102.0,170.0,yellow,flipped triangle
0.0,6.0,2.0,1.0,7.0,6.0,3143.0605690002267,3.0,1.0,part_3,go,0.0,0.0,0.0,68.0,2.0,136.0,170.0,102.0,34.0,204.0,68.0,magenta,cross
0.0,2.0,2.0,0.0,7.0,6.0,1957.909930999449,3.0,1.0,part_3,go,0.0,0.0,0.0,108.0,2.0,324.0,54.0,162.0,216.0,270.0,108.0,yellow,flipped triangle
0.0,3.0,3.0,0.0,7.0,5.0,2391.5823259994795,3.0,1.0,part_3,go,0.0,0.0,0.0,220.0,5.0,176.0,44.0,264.0,88.0,220.0,132.0,gray,circle
0.0,3.0,3.0,0.0,7.0,2.0,2137.67064700005,3.0,1.0,part_3,go,0.0,0.0,0.0,170.0,5.0,204.0,170.0,68.0,34.0,102.0,136.0,gray,circle
0.0,3.0,3.0,0.0,7.0,3.0,2203.11278599911,4.0,1.0,part_3,go,0.0,0.0,0.0,216.0,4.0,108.0,54.0,216.0,270.0,162.0,324.0,gray,circle
0.0,8.0,4.0,1.0,7.0,2.0,1774.9064760009787,4.0,1.0,part_3,go,0.0,0.0,0.0,234.0,6.0,195.0,234.0,78.0,117.0,156.0,39.0,blue,I
0.0,5.0,1.0,1.0,7.0,4.0,3412.958811999488,4.0,1.0,part_3,go,0.0,0.0,0.0,54.0,1.0,108.0,270.0,162.0,54.0,324.0,216.0,cyan,square
0.0,7.0,3.0,1.0,7.0,6.0,2846.366481999212,4.0,1.0,part_3,go,0.0,0.0,0.0,156.0,4.0,78.0,195.0,117.0,234.0,39.0,156.0,orange,triangle
0.0,3.0,3.0,0.0,7.0,4.0,3261.828946000606,4.0,1.0,part_3,go,0.0,0.0,0.0,196.0,4.0,245.0,294.0,49.0,196.0,98.0,147.0,gray,circle
0.0,4.0,4.0,0.0,7.0,5.0,2653.3674960010103,4.0,1.0,part_3,go,0.0,0.0,0.0,204.0,6.0,170.0,102.0,68.0,136.0,204.0,34.0,white,diamond
0.0,8.0,4.0,1.0,7.0,5.0,2470.1406809999753,4.0,1.0,part_3,go,0.0,0.0,0.0,234.0,6.0,117.0,78.0,39.0,156.0,234.0,195.0,blue,I
0.0,8.0,4.0,1.0,7.0,1.0,3126.233740998942,4.0,1.0,part_3,go,0.0,0.0,0.0,294.0,6.0,294.0,98.0,196.0,147.0,49.0,245.0,blue,I
0.0,1.0,1.0,0.0,7.0,2.0,1462.2274690009365,4.0,1.0,part_3,go,0.0,0.0,0.0,34.0,1.0,102.0,34.0,136.0,170.0,204.0,68.0,green,hexagon
0.0,6.0,2.0,1.0,7.0,2.0,3928.4832459998142,4.0,1.0,part_3,go,0.0,0.0,0.0,108.0,2.0,324.0,108.0,54.0,216.0,162.0,270.0,magenta,cross
0.0,5.0,1.0,1.0,7.0,5.0,3165.7163219988433,4.0,1.0,part_3,go,0.0,0.0,0.0,132.0,3.0,264.0,176.0,220.0,44.0,132.0,88.0,cyan,square
0.0,1.0,1.0,0.0,7.0,4.0,3115.60756200015,4.0,1.0,part_3,go,0.0,0.0,0.0,98.0,2.0,245.0,49.0,196.0,98.0,294.0,147.0,green,hexagon
0.0,4.0,4.0,0.0,7.0,2.0,2782.271829999445,4.0,1.0,part_3,go,0.0,0.0,0.0,264.0,6.0,132.0,264.0,44.0,220.0,176.0,88.0,white,diamond
0.0,5.0,1.0,1.0,7.0,5.0,2695.402663001005,4.0,1.0,part_3,go,0.0,0.0,0.0,102.0,3.0,68.0,170.0,136.0,34.0,102.0,204.0,cyan,square
0.0,5.0,1.0,1.0,7.0,4.0,2848.439084000347,4.0,1.0,part_3,go,0.0,0.0,0.0,117.0,3.0,195.0,78.0,39.0,117.0,234.0,156.0,cyan,square
0.0,1.0,1.0,0.0,7.0,5.0,2214.0879500002484,4.0,1.0,part_3,go,0.0,0.0,0.0,68.0,2.0,136.0,204.0,34.0,170.0,68.0,102.0,green,hexagon
0.0,6.0,2.0,1.0,7.0,1.0,2582.1204589992703,4.0,1.0,part_3,go,0.0,0.0,0.0,88.0,2.0,88.0,44.0,176.0,220.0,264.0,132.0,magenta,cross
0.0,7.0,3.0,1.0,7.0,6.0,2985.4985490001127,4.0,1.0,part_3,go,0.0,0.0,0.0,102.0,3.0,204.0,34.0,68.0,170.0,136.0,102.0,orange,triangle
0.0,5.0,1.0,1.0,7.0,1.0,2673.755169000287,4.0,1.0,part_3,go,0.0,0.0,0.0,147.0,3.0,147.0,98.0,49.0,196.0,245.0,294.0,cyan,square
0.0,2.0,2.0,0.0,7.0,2.0,3260.842588999367,4.0,1.0,part_3,go,0.0,0.0,0.0,108.0,2.0,162.0,108.0,270.0,54.0,324.0,216.0,yellow,flipped triangle
