raw_reward_magnitude,stim_reward,stepwise_reward_magnitude,paired_with_stopping,stim_location,response,reaction_time,block,num_trial_presentations,which_phase,stop_signal_trial_type,left_SSD,right_SSD,accuracy,chosen_bidding_amount,chosen_bidding_level,possible_bid_1,possible_bid_2,possible_bid_3,possible_bid_4,possible_bid_5,possible_bid_6,color_text,shape_text
185.0,7.0,3.0,1.0,3.0,3.0,338.0877320000763,1.0,1.0,phase_1,,,,,,,,,,,,,blue,hexagon
393.0,8.0,4.0,1.0,2.0,2.0,357.598962000111,1.0,1.0,phase_1,,,,,,,,,,,,,orange,I
380.0,8.0,4.0,1.0,4.0,4.0,315.8180899999934,1.0,1.0,phase_1,,,,,,,,,,,,,orange,I
217.0,7.0,3.0,1.0,2.0,2.0,404.0986889999658,1.0,1.0,phase_1,,,,,,,,,,,,,blue,hexagon
0.0,3.0,0.0,0.0,2.0,2.0,378.9707160001399,1.0,1.0,phase_1,,,,,,,,,,,,,gray,flipped triangle
32.0,1.0,1.0,0.0,2.0,2.0,365.9824839999146,1.0,1.0,phase_1,,,,,,,,,,,,,yellow,circle
0.0,6.0,0.0,1.0,4.0,4.0,374.844135000103,1.0,1.0,phase_1,,,,,,,,,,,,,cyan,diamond
102.0,6.0,2.0,1.0,3.0,3.0,293.5662479999337,1.0,1.0,phase_1,,,,,,,,,,,,,cyan,diamond
0.0,8.0,0.0,1.0,3.0,3.0,313.8355500000216,1.0,1.0,phase_1,,,,,,,,,,,,,orange,I
0.0,2.0,0.0,0.0,2.0,2.0,287.6819409998461,1.0,1.0,phase_1,,,,,,,,,,,,,green,cross
186.0,3.0,3.0,0.0,3.0,3.0,335.7214369998473,1.0,1.0,phase_1,,,,,,,,,,,,,gray,flipped triangle
212.0,7.0,3.0,1.0,1.0,1.0,301.8263270000716,1.0,2.0,phase_1,,,,,,,,,,,,,blue,hexagon
74.0,5.0,1.0,1.0,4.0,4.0,339.7447559998454,1.0,1.0,phase_1,,,,,,,,,,,,,magenta,triangle
34.0,1.0,1.0,0.0,1.0,1.0,329.4605710000269,1.0,1.0,phase_1,,,,,,,,,,,,,yellow,circle
52.0,1.0,1.0,0.0,1.0,1.0,275.6130349998784,1.0,1.0,phase_1,,,,,,,,,,,,,yellow,circle
102.0,2.0,2.0,0.0,2.0,2.0,308.1428269999833,1.0,1.0,phase_1,,,,,,,,,,,,,green,cross
402.0,8.0,4.0,1.0,3.0,3.0,349.5470740001565,1.0,1.0,phase_1,,,,,,,,,,,,,orange,I
0.0,6.0,0.0,1.0,2.0,2.0,304.0266889997838,1.0,1.0,phase_1,,,,,,,,,,,,,cyan,diamond
400.0,4.0,4.0,0.0,1.0,1.0,349.9255899998843,1.0,1.0,phase_1,,,,,,,,,,,,,white,square
179.0,7.0,3.0,1.0,3.0,3.0,339.9025019998589,1.0,1.0,phase_1,,,,,,,,,,,,,blue,hexagon
105.0,2.0,2.0,0.0,1.0,1.0,318.9159739999923,1.0,1.0,phase_1,,,,,,,,,,,,,green,cross
0.0,2.0,0.0,0.0,3.0,3.0,368.6246699999174,1.0,1.0,phase_1,,,,,,,,,,,,,green,cross
121.0,2.0,2.0,0.0,1.0,1.0,304.6970670000064,1.0,1.0,phase_1,,,,,,,,,,,,,green,cross
116.0,6.0,2.0,1.0,2.0,2.0,289.2257040000459,1.0,1.0,phase_1,,,,,,,,,,,,,cyan,diamond
27.0,5.0,1.0,1.0,4.0,4.0,340.7892550001179,1.0,1.0,phase_1,,,,,,,,,,,,,magenta,triangle
408.0,4.0,4.0,0.0,4.0,4.0,434.1157620001468,1.0,1.0,phase_1,,,,,,,,,,,,,white,square
0.0,2.0,0.0,0.0,3.0,3.0,358.0572160001338,1.0,1.0,phase_1,,,,,,,,,,,,,green,cross
0.0,7.0,0.0,1.0,3.0,3.0,316.3280730000224,1.0,1.0,phase_1,,,,,,,,,,,,,blue,hexagon
382.0,8.0,4.0,1.0,4.0,4.0,338.2115169999906,1.0,1.0,phase_1,,,,,,,,,,,,,orange,I
83.0,2.0,2.0,0.0,1.0,1.0,370.6319499999608,1.0,1.0,phase_1,,,,,,,,,,,,,green,cross
37.0,1.0,1.0,0.0,2.0,2.0,348.3698009999898,1.0,1.0,phase_1,,,,,,,,,,,,,yellow,circle
0.0,2.0,0.0,0.0,3.0,3.0,317.4811419999059,1.0,1.0,phase_1,,,,,,,,,,,,,green,cross
67.0,1.0,1.0,0.0,2.0,2.0,354.1921720000118,1.0,1.0,phase_1,,,,,,,,,,,,,yellow,circle
47.0,1.0,1.0,0.0,1.0,1.0,254.803092999964,1.0,1.0,phase_1,,,,,,,,,,,,,yellow,circle
377.0,4.0,4.0,0.0,3.0,3.0,288.9726820001215,1.0,1.0,phase_1,,,,,,,,,,,,,white,square
76.0,6.0,2.0,1.0,4.0,4.0,368.5313429998587,1.0,1.0,phase_1,,,,,,,,,,,,,cyan,diamond
41.0,5.0,1.0,1.0,1.0,1.0,317.1321960001023,1.0,1.0,phase_1,,,,,,,,,,,,,magenta,triangle
0.0,5.0,0.0,1.0,3.0,3.0,345.6353139999919,1.0,1.0,phase_1,,,,,,,,,,,,,magenta,triangle
413.0,8.0,4.0,1.0,2.0,2.0,258.7258419998761,1.0,1.0,phase_1,,,,,,,,,,,,,orange,I
0.0,3.0,0.0,0.0,3.0,3.0,311.4351539998097,1.0,1.0,phase_1,,,,,,,,,,,,,gray,flipped triangle
0.0,4.0,0.0,0.0,3.0,3.0,383.9338269999643,1.0,1.0,phase_1,,,,,,,,,,,,,white,square
107.0,2.0,2.0,0.0,3.0,3.0,281.9620270001906,1.0,1.0,phase_1,,,,,,,,,,,,,green,cross
392.0,4.0,4.0,0.0,3.0,3.0,296.2469239998881,1.0,1.0,phase_1,,,,,,,,,,,,,white,square
400.0,8.0,4.0,1.0,2.0,2.0,409.7218699998848,1.0,1.0,phase_1,,,,,,,,,,,,,orange,I
222.0,7.0,3.0,1.0,2.0,2.0,378.9435180001419,1.0,1.0,phase_1,,,,,,,,,,,,,blue,hexagon
214.0,7.0,3.0,1.0,4.0,4.0,367.3550539999723,1.0,1.0,phase_1,,,,,,,,,,,,,blue,hexagon
120.0,2.0,2.0,0.0,1.0,1.0,381.8930649999856,1.0,1.0,phase_1,,,,,,,,,,,,,green,cross
224.0,3.0,3.0,0.0,3.0,3.0,293.0414939999082,1.0,1.0,phase_1,,,,,,,,,,,,,gray,flipped triangle
384.0,8.0,4.0,1.0,1.0,1.0,317.1661819999372,1.0,1.0,phase_1,,,,,,,,,,,,,orange,I
214.0,3.0,3.0,0.0,4.0,4.0,521.4437279998947,1.0,1.0,phase_1,,,,,,,,,,,,,gray,flipped triangle
120.0,6.0,2.0,1.0,3.0,3.0,393.291574999921,1.0,1.0,phase_1,,,,,,,,,,,,,cyan,diamond
218.0,3.0,3.0,0.0,3.0,3.0,328.9611960001366,1.0,1.0,phase_1,,,,,,,,,,,,,gray,flipped triangle
388.0,4.0,4.0,0.0,1.0,1.0,297.2232189999886,1.0,1.0,phase_1,,,,,,,,,,,,,white,square
75.0,1.0,1.0,0.0,3.0,3.0,299.5789579999837,1.0,1.0,phase_1,,,,,,,,,,,,,yellow,circle
63.0,5.0,1.0,1.0,2.0,2.0,300.8764200001224,1.0,1.0,phase_1,,,,,,,,,,,,,magenta,triangle
112.0,2.0,2.0,0.0,1.0,1.0,305.05135899989,1.0,1.0,phase_1,,,,,,,,,,,,,green,cross
388.0,4.0,4.0,0.0,4.0,4.0,357.5323339998704,1.0,1.0,phase_1,,,,,,,,,,,,,white,square
49.0,5.0,1.0,1.0,1.0,1.0,291.7730890001166,1.0,1.0,phase_1,,,,,,,,,,,,,magenta,triangle
407.0,8.0,4.0,1.0,4.0,4.0,320.8085819999269,1.0,1.0,phase_1,,,,,,,,,,,,,orange,I
75.0,5.0,1.0,1.0,2.0,2.0,332.1104789999936,1.0,1.0,phase_1,,,,,,,,,,,,,magenta,triangle
118.0,2.0,2.0,0.0,3.0,3.0,286.6959630000565,1.0,1.0,phase_1,,,,,,,,,,,,,green,cross
185.0,3.0,3.0,0.0,4.0,4.0,335.6847120001021,1.0,1.0,phase_1,,,,,,,,,,,,,gray,flipped triangle
0.0,1.0,0.0,0.0,1.0,1.0,316.2737990001005,1.0,1.0,phase_1,,,,,,,,,,,,,yellow,circle
41.0,1.0,1.0,0.0,3.0,3.0,269.292557999961,1.0,1.0,phase_1,,,,,,,,,,,,,yellow,circle
177.0,7.0,3.0,1.0,4.0,4.0,318.1990449998011,1.0,1.0,phase_1,,,,,,,,,,,,,blue,hexagon
121.0,6.0,2.0,1.0,3.0,3.0,314.1461329998947,1.0,1.0,phase_1,,,,,,,,,,,,,cyan,diamond
113.0,2.0,2.0,0.0,4.0,4.0,273.55181999996597,1.0,1.0,phase_1,,,,,,,,,,,,,green,cross
402.0,8.0,4.0,1.0,4.0,4.0,294.1739020000113,1.0,1.0,phase_1,,,,,,,,,,,,,orange,I
211.0,3.0,3.0,0.0,2.0,2.0,294.322652000119,1.0,1.0,phase_1,,,,,,,,,,,,,gray,flipped triangle
406.0,8.0,4.0,1.0,1.0,1.0,345.4815459999736,1.0,1.0,phase_1,,,,,,,,,,,,,orange,I
69.0,5.0,1.0,1.0,1.0,1.0,319.4999749998715,1.0,1.0,phase_1,,,,,,,,,,,,,magenta,triangle
116.0,6.0,2.0,1.0,1.0,1.0,347.9925579999872,1.0,1.0,phase_1,,,,,,,,,,,,,cyan,diamond
188.0,3.0,3.0,0.0,1.0,1.0,303.0347910000728,1.0,1.0,phase_1,,,,,,,,,,,,,gray,flipped triangle
201.0,3.0,3.0,0.0,2.0,2.0,359.196607000058,1.0,1.0,phase_1,,,,,,,,,,,,,gray,flipped triangle
91.0,2.0,2.0,0.0,3.0,3.0,302.5089919999573,1.0,1.0,phase_1,,,,,,,,,,,,,green,cross
41.0,5.0,1.0,1.0,3.0,3.0,288.7626280000859,1.0,1.0,phase_1,,,,,,,,,,,,,magenta,triangle
67.0,5.0,1.0,1.0,1.0,1.0,271.5103439998074,1.0,1.0,phase_1,,,,,,,,,,,,,magenta,triangle
116.0,2.0,2.0,0.0,3.0,3.0,294.8388310001064,1.0,1.0,phase_1,,,,,,,,,,,,,green,cross
27.0,1.0,1.0,0.0,1.0,1.0,274.0036299999246,1.0,1.0,phase_1,,,,,,,,,,,,,yellow,circle
0.0,2.0,0.0,0.0,2.0,2.0,317.3538700000335,1.0,1.0,phase_1,,,,,,,,,,,,,green,cross
176.0,3.0,3.0,0.0,3.0,3.0,323.6588180000126,1.0,1.0,phase_1,,,,,,,,,,,,,gray,flipped triangle
0.0,1.0,0.0,0.0,4.0,4.0,316.1318479999409,1.0,1.0,phase_1,,,,,,,,,,,,,yellow,circle
99.0,6.0,2.0,1.0,1.0,1.0,443.4216899999228,1.0,1.0,phase_1,,,,,,,,,,,,,cyan,diamond
52.0,5.0,1.0,1.0,2.0,2.0,303.8058530000853,1.0,1.0,phase_1,,,,,,,,,,,,,magenta,triangle
37.0,5.0,1.0,1.0,3.0,3.0,449.932414000159,1.0,1.0,phase_1,,,,,,,,,,,,,magenta,triangle
0.0,4.0,0.0,0.0,4.0,4.0,362.6834870001403,1.0,1.0,phase_1,,,,,,,,,,,,,white,square
34.0,1.0,1.0,0.0,2.0,2.0,266.78956799992187,1.0,1.0,phase_1,,,,,,,,,,,,,yellow,circle
179.0,3.0,3.0,0.0,1.0,1.0,298.3627309999974,1.0,1.0,phase_1,,,,,,,,,,,,,gray,flipped triangle
64.0,5.0,1.0,1.0,1.0,1.0,327.3952580000241,1.0,1.0,phase_1,,,,,,,,,,,,,magenta,triangle
211.0,7.0,3.0,1.0,1.0,1.0,320.8291379999082,1.0,1.0,phase_1,,,,,,,,,,,,,blue,hexagon
114.0,2.0,2.0,0.0,4.0,4.0,337.6600130000042,1.0,1.0,phase_1,,,,,,,,,,,,,green,cross
93.0,2.0,2.0,0.0,2.0,2.0,291.9291430000612,1.0,1.0,phase_1,,,,,,,,,,,,,green,cross
397.0,4.0,4.0,0.0,2.0,2.0,281.8548099999134,1.0,1.0,phase_1,,,,,,,,,,,,,white,square
400.0,4.0,4.0,0.0,3.0,3.0,322.3349129998496,1.0,1.0,phase_1,,,,,,,,,,,,,white,square
0.0,5.0,0.0,1.0,3.0,3.0,288.9674279999781,1.0,1.0,phase_1,,,,,,,,,,,,,magenta,triangle
80.0,6.0,2.0,1.0,3.0,3.0,293.2585959999869,1.0,1.0,phase_1,,,,,,,,,,,,,cyan,diamond
0.0,4.0,0.0,0.0,2.0,2.0,251.1436629999934,1.0,1.0,phase_1,,,,,,,,,,,,,white,square
177.0,3.0,3.0,0.0,2.0,2.0,409.3782670001928,1.0,1.0,phase_1,,,,,,,,,,,,,gray,flipped triangle
0.0,4.0,0.0,0.0,4.0,4.0,251.8097829999988,1.0,1.0,phase_1,,,,,,,,,,,,,white,square
221.0,3.0,3.0,0.0,1.0,1.0,325.0965639999776,1.0,1.0,phase_1,,,,,,,,,,,,,gray,flipped triangle
0.0,6.0,0.0,1.0,2.0,2.0,295.904524999969,2.0,1.0,phase_1,,,,,,,,,,,,,cyan,diamond
390.0,4.0,4.0,0.0,1.0,1.0,295.032312000103,2.0,1.0,phase_1,,,,,,,,,,,,,white,square
0.0,8.0,0.0,1.0,1.0,1.0,283.468947999836,2.0,1.0,phase_1,,,,,,,,,,,,,orange,I
207.0,7.0,3.0,1.0,4.0,4.0,384.2417260000275,2.0,1.0,phase_1,,,,,,,,,,,,,blue,hexagon
56.0,5.0,1.0,1.0,2.0,2.0,290.1268749999417,2.0,1.0,phase_1,,,,,,,,,,,,,magenta,triangle
407.0,4.0,4.0,0.0,4.0,4.0,295.9500130000378,2.0,1.0,phase_1,,,,,,,,,,,,,white,square
55.0,5.0,1.0,1.0,4.0,4.0,324.5000130000335,2.0,1.0,phase_1,,,,,,,,,,,,,magenta,triangle
423.0,4.0,4.0,0.0,3.0,3.0,335.72540199998,2.0,1.0,phase_1,,,,,,,,,,,,,white,square
214.0,3.0,3.0,0.0,1.0,1.0,280.6116159999874,2.0,1.0,phase_1,,,,,,,,,,,,,gray,flipped triangle
111.0,2.0,2.0,0.0,2.0,2.0,252.27852600005463,2.0,1.0,phase_1,,,,,,,,,,,,,green,cross
182.0,7.0,3.0,1.0,2.0,2.0,332.9189369999312,2.0,1.0,phase_1,,,,,,,,,,,,,blue,hexagon
113.0,6.0,2.0,1.0,4.0,4.0,335.1880310001434,2.0,1.0,phase_1,,,,,,,,,,,,,cyan,diamond
25.0,1.0,1.0,0.0,4.0,4.0,359.8605890001636,2.0,2.0,phase_1,,,,,,,,,,,,,yellow,circle
0.0,1.0,0.0,0.0,1.0,1.0,335.0018950000049,2.0,1.0,phase_1,,,,,,,,,,,,,yellow,circle
68.0,5.0,1.0,1.0,2.0,2.0,341.730914999971,2.0,1.0,phase_1,,,,,,,,,,,,,magenta,triangle
384.0,4.0,4.0,0.0,1.0,1.0,299.0015220000259,2.0,1.0,phase_1,,,,,,,,,,,,,white,square
177.0,3.0,3.0,0.0,2.0,2.0,368.2189670000753,2.0,1.0,phase_1,,,,,,,,,,,,,gray,flipped triangle
186.0,3.0,3.0,0.0,4.0,4.0,523.9945589999024,2.0,1.0,phase_1,,,,,,,,,,,,,gray,flipped triangle
0.0,8.0,0.0,1.0,3.0,3.0,345.599237999977,2.0,1.0,phase_1,,,,,,,,,,,,,orange,I
89.0,6.0,2.0,1.0,3.0,3.0,287.3193210000409,2.0,1.0,phase_1,,,,,,,,,,,,,cyan,diamond
411.0,8.0,4.0,1.0,2.0,2.0,282.4183879999964,2.0,1.0,phase_1,,,,,,,,,,,,,orange,I
421.0,8.0,4.0,1.0,4.0,4.0,324.4938770001226,2.0,1.0,phase_1,,,,,,,,,,,,,orange,I
388.0,8.0,4.0,1.0,1.0,1.0,351.8978940001034,2.0,1.0,phase_1,,,,,,,,,,,,,orange,I
197.0,3.0,3.0,0.0,3.0,3.0,348.5202719998597,2.0,1.0,phase_1,,,,,,,,,,,,,gray,flipped triangle
186.0,7.0,3.0,1.0,2.0,2.0,254.143939999949,2.0,1.0,phase_1,,,,,,,,,,,,,blue,hexagon
198.0,3.0,3.0,0.0,2.0,2.0,308.3686360000683,2.0,1.0,phase_1,,,,,,,,,,,,,gray,flipped triangle
188.0,7.0,3.0,1.0,4.0,4.0,345.5515199998444,2.0,1.0,phase_1,,,,,,,,,,,,,blue,hexagon
27.0,5.0,1.0,1.0,3.0,3.0,326.5972849999343,2.0,1.0,phase_1,,,,,,,,,,,,,magenta,triangle
195.0,7.0,3.0,1.0,3.0,3.0,295.6469019998167,2.0,1.0,phase_1,,,,,,,,,,,,,blue,hexagon
26.0,1.0,1.0,0.0,3.0,3.0,323.0941410001833,2.0,1.0,phase_1,,,,,,,,,,,,,yellow,circle
117.0,2.0,2.0,0.0,2.0,2.0,322.3473259999991,2.0,1.0,phase_1,,,,,,,,,,,,,green,cross
393.0,4.0,4.0,0.0,2.0,2.0,289.7694440000578,2.0,1.0,phase_1,,,,,,,,,,,,,white,square
27.0,1.0,1.0,0.0,4.0,4.0,282.2085909999714,2.0,1.0,phase_1,,,,,,,,,,,,,yellow,circle
104.0,2.0,2.0,0.0,4.0,4.0,362.1059689999129,2.0,1.0,phase_1,,,,,,,,,,,,,green,cross
196.0,3.0,3.0,0.0,4.0,4.0,325.0555749998511,2.0,1.0,phase_1,,,,,,,,,,,,,gray,flipped triangle
63.0,5.0,1.0,1.0,3.0,3.0,326.6180470000108,2.0,1.0,phase_1,,,,,,,,,,,,,magenta,triangle
116.0,2.0,2.0,0.0,4.0,4.0,305.9227679998457,2.0,1.0,phase_1,,,,,,,,,,,,,green,cross
93.0,6.0,2.0,1.0,1.0,1.0,324.4535269998323,2.0,1.0,phase_1,,,,,,,,,,,,,cyan,diamond
38.0,1.0,1.0,0.0,1.0,1.0,343.6520660000042,2.0,1.0,phase_1,,,,,,,,,,,,,yellow,circle
384.0,8.0,4.0,1.0,1.0,1.0,292.87566900006817,2.0,1.0,phase_1,,,,,,,,,,,,,orange,I
47.0,5.0,1.0,1.0,4.0,4.0,374.4499349998023,2.0,1.0,phase_1,,,,,,,,,,,,,magenta,triangle
0.0,1.0,0.0,0.0,4.0,4.0,288.6966839998877,2.0,1.0,phase_1,,,,,,,,,,,,,yellow,circle
58.0,1.0,1.0,0.0,2.0,2.0,269.2257460000746,2.0,1.0,phase_1,,,,,,,,,,,,,yellow,circle
41.0,1.0,1.0,0.0,4.0,4.0,295.4053509999994,2.0,1.0,phase_1,,,,,,,,,,,,,yellow,circle
399.0,8.0,4.0,1.0,1.0,1.0,341.14708700008117,2.0,1.0,phase_1,,,,,,,,,,,,,orange,I
47.0,1.0,1.0,0.0,1.0,1.0,251.3456140000016,2.0,1.0,phase_1,,,,,,,,,,,,,yellow,circle
218.0,7.0,3.0,1.0,2.0,2.0,300.9639689998948,2.0,1.0,phase_1,,,,,,,,,,,,,blue,hexagon
89.0,2.0,2.0,0.0,1.0,1.0,319.8515629999292,2.0,1.0,phase_1,,,,,,,,,,,,,green,cross
225.0,7.0,3.0,1.0,2.0,2.0,290.1454049999756,2.0,1.0,phase_1,,,,,,,,,,,,,blue,hexagon
0.0,3.0,0.0,0.0,2.0,2.0,352.3780059999808,2.0,1.0,phase_1,,,,,,,,,,,,,gray,flipped triangle
0.0,3.0,0.0,0.0,1.0,1.0,289.8513610000464,2.0,1.0,phase_1,,,,,,,,,,,,,gray,flipped triangle
385.0,8.0,4.0,1.0,4.0,4.0,343.6519589999989,2.0,1.0,phase_1,,,,,,,,,,,,,orange,I
55.0,5.0,1.0,1.0,3.0,3.0,336.1916979999932,2.0,1.0,phase_1,,,,,,,,,,,,,magenta,triangle
180.0,7.0,3.0,1.0,4.0,4.0,405.7690060001278,2.0,1.0,phase_1,,,,,,,,,,,,,blue,hexagon
182.0,3.0,3.0,0.0,4.0,4.0,355.7391389999793,2.0,1.0,phase_1,,,,,,,,,,,,,gray,flipped triangle
115.0,6.0,2.0,1.0,4.0,4.0,290.4750210000202,2.0,1.0,phase_1,,,,,,,,,,,,,cyan,diamond
0.0,5.0,0.0,1.0,2.0,2.0,297.7023220000774,2.0,1.0,phase_1,,,,,,,,,,,,,magenta,triangle
196.0,7.0,3.0,1.0,3.0,3.0,373.0053219999263,2.0,1.0,phase_1,,,,,,,,,,,,,blue,hexagon
387.0,4.0,4.0,0.0,1.0,1.0,405.3192330000001,2.0,1.0,phase_1,,,,,,,,,,,,,white,square
52.0,5.0,1.0,1.0,4.0,4.0,382.8034870000465,2.0,1.0,phase_1,,,,,,,,,,,,,magenta,triangle
80.0,6.0,2.0,1.0,4.0,4.0,321.2161369999649,2.0,1.0,phase_1,,,,,,,,,,,,,cyan,diamond
424.0,8.0,4.0,1.0,4.0,4.0,360.2177620000475,2.0,1.0,phase_1,,,,,,,,,,,,,orange,I
399.0,8.0,4.0,1.0,1.0,1.0,359.0264169999955,2.0,1.0,phase_1,,,,,,,,,,,,,orange,I
410.0,4.0,4.0,0.0,2.0,2.0,292.5409059998856,2.0,1.0,phase_1,,,,,,,,,,,,,white,square
47.0,5.0,1.0,1.0,1.0,1.0,303.2033900001352,2.0,1.0,phase_1,,,,,,,,,,,,,magenta,triangle
180.0,3.0,3.0,0.0,3.0,3.0,352.3169210000105,2.0,1.0,phase_1,,,,,,,,,,,,,gray,flipped triangle
0.0,2.0,0.0,0.0,1.0,1.0,237.7872229999411,2.0,1.0,phase_1,,,,,,,,,,,,,green,cross
91.0,2.0,2.0,0.0,4.0,4.0,364.5787119999113,2.0,1.0,phase_1,,,,,,,,,,,,,green,cross
0.0,1.0,0.0,0.0,2.0,2.0,291.669506000062,2.0,1.0,phase_1,,,,,,,,,,,,,yellow,circle
91.0,6.0,2.0,1.0,4.0,4.0,376.7853809999906,2.0,1.0,phase_1,,,,,,,,,,,,,cyan,diamond
93.0,2.0,2.0,0.0,4.0,4.0,369.6993300000031,2.0,1.0,phase_1,,,,,,,,,,,,,green,cross
86.0,2.0,2.0,0.0,1.0,1.0,356.0986509999111,2.0,1.0,phase_1,,,,,,,,,,,,,green,cross
385.0,4.0,4.0,0.0,4.0,4.0,373.5650129999612,2.0,1.0,phase_1,,,,,,,,,,,,,white,square
67.0,5.0,1.0,1.0,4.0,4.0,363.7650199998461,2.0,1.0,phase_1,,,,,,,,,,,,,magenta,triangle
223.0,3.0,3.0,0.0,4.0,4.0,357.6336609999089,2.0,1.0,phase_1,,,,,,,,,,,,,gray,flipped triangle
192.0,7.0,3.0,1.0,4.0,4.0,329.9155400000018,2.0,1.0,phase_1,,,,,,,,,,,,,blue,hexagon
410.0,8.0,4.0,1.0,4.0,4.0,373.2399860000441,2.0,1.0,phase_1,,,,,,,,,,,,,orange,I
197.0,7.0,3.0,1.0,1.0,1.0,343.0518919999485,2.0,1.0,phase_1,,,,,,,,,,,,,blue,hexagon
0.0,1.0,0.0,0.0,2.0,2.0,372.7907540001069,2.0,2.0,phase_1,,,,,,,,,,,,,yellow,circle
379.0,8.0,4.0,1.0,1.0,1.0,342.811354999867,2.0,1.0,phase_1,,,,,,,,,,,,,orange,I
120.0,2.0,2.0,0.0,4.0,4.0,302.4493380000876,2.0,1.0,phase_1,,,,,,,,,,,,,green,cross
84.0,6.0,2.0,1.0,4.0,4.0,365.3564590001679,2.0,1.0,phase_1,,,,,,,,,,,,,cyan,diamond
68.0,1.0,1.0,0.0,1.0,1.0,417.1669470001689,2.0,1.0,phase_1,,,,,,,,,,,,,yellow,circle
0.0,7.0,0.0,1.0,2.0,2.0,352.5604879998809,2.0,1.0,phase_1,,,,,,,,,,,,,blue,hexagon
379.0,4.0,4.0,0.0,1.0,1.0,308.6333259998355,2.0,1.0,phase_1,,,,,,,,,,,,,white,square
192.0,3.0,3.0,0.0,1.0,1.0,352.3228920000747,2.0,1.0,phase_1,,,,,,,,,,,,,gray,flipped triangle
115.0,2.0,2.0,0.0,1.0,1.0,284.3348330000026,2.0,1.0,phase_1,,,,,,,,,,,,,green,cross
54.0,1.0,1.0,0.0,4.0,4.0,264.0451860002031,2.0,2.0,phase_1,,,,,,,,,,,,,yellow,circle
0.0,5.0,0.0,1.0,1.0,1.0,343.2102520000626,2.0,1.0,phase_1,,,,,,,,,,,,,magenta,triangle
49.0,1.0,1.0,0.0,1.0,1.0,323.7648379999882,2.0,1.0,phase_1,,,,,,,,,,,,,yellow,circle
118.0,6.0,2.0,1.0,3.0,3.0,363.1857020000097,2.0,1.0,phase_1,,,,,,,,,,,,,cyan,diamond
0.0,8.0,0.0,1.0,2.0,2.0,328.2765149999704,2.0,1.0,phase_1,,,,,,,,,,,,,orange,I
203.0,3.0,3.0,0.0,3.0,3.0,349.598521000189,2.0,1.0,phase_1,,,,,,,,,,,,,gray,flipped triangle
91.0,2.0,2.0,0.0,2.0,2.0,303.4527960001014,2.0,1.0,phase_1,,,,,,,,,,,,,green,cross
222.0,3.0,3.0,0.0,1.0,1.0,283.7112209999759,2.0,1.0,phase_1,,,,,,,,,,,,,gray,flipped triangle
182.0,3.0,3.0,0.0,1.0,1.0,303.202715999987,2.0,1.0,phase_1,,,,,,,,,,,,,gray,flipped triangle
0.0,6.0,0.0,1.0,2.0,2.0,330.669779000118,2.0,1.0,phase_1,,,,,,,,,,,,,cyan,diamond
88.0,6.0,2.0,1.0,2.0,2.0,318.4454529998675,2.0,1.0,phase_1,,,,,,,,,,,,,cyan,diamond
104.0,6.0,2.0,1.0,2.0,2.0,325.3108080000402,2.0,1.0,phase_1,,,,,,,,,,,,,cyan,diamond
179.0,7.0,3.0,1.0,2.0,2.0,271.7330770001354,2.0,1.0,phase_1,,,,,,,,,,,,,blue,hexagon
0.0,2.0,0.0,0.0,2.0,2.0,261.6920100003881,3.0,1.0,phase_1,,,,,,,,,,,,,green,cross
0.0,1.0,0.0,0.0,1.0,1.0,261.2777260001167,3.0,1.0,phase_1,,,,,,,,,,,,,yellow,circle
117.0,6.0,2.0,1.0,2.0,2.0,259.8065310003221,3.0,1.0,phase_1,,,,,,,,,,,,,cyan,diamond
410.0,8.0,4.0,1.0,3.0,3.0,425.2131769999323,3.0,1.0,phase_1,,,,,,,,,,,,,orange,I
402.0,8.0,4.0,1.0,4.0,4.0,336.0676949996559,3.0,1.0,phase_1,,,,,,,,,,,,,orange,I
198.0,7.0,3.0,1.0,1.0,1.0,264.9827929999446,3.0,1.0,phase_1,,,,,,,,,,,,,blue,hexagon
96.0,6.0,2.0,1.0,3.0,3.0,316.2382840000646,3.0,1.0,phase_1,,,,,,,,,,,,,cyan,diamond
0.0,8.0,0.0,1.0,3.0,3.0,396.6563349999887,3.0,2.0,phase_1,,,,,,,,,,,,,orange,I
84.0,2.0,2.0,0.0,3.0,3.0,363.3559979998608,3.0,1.0,phase_1,,,,,,,,,,,,,green,cross
0.0,8.0,0.0,1.0,4.0,4.0,377.4133130000336,3.0,1.0,phase_1,,,,,,,,,,,,,orange,I
99.0,2.0,2.0,0.0,1.0,1.0,297.9433629998311,3.0,1.0,phase_1,,,,,,,,,,,,,green,cross
109.0,2.0,2.0,0.0,4.0,4.0,330.7422880002377,3.0,1.0,phase_1,,,,,,,,,,,,,green,cross
0.0,7.0,0.0,1.0,4.0,4.0,429.0763740000329,3.0,1.0,phase_1,,,,,,,,,,,,,blue,hexagon
93.0,6.0,2.0,1.0,1.0,1.0,367.2666699999354,3.0,1.0,phase_1,,,,,,,,,,,,,cyan,diamond
80.0,2.0,2.0,0.0,3.0,3.0,309.6670970003288,3.0,1.0,phase_1,,,,,,,,,,,,,green,cross
0.0,8.0,0.0,1.0,2.0,2.0,326.9451450000815,3.0,1.0,phase_1,,,,,,,,,,,,,orange,I
223.0,3.0,3.0,0.0,1.0,1.0,311.8629519999558,3.0,1.0,phase_1,,,,,,,,,,,,,gray,flipped triangle
63.0,1.0,1.0,0.0,4.0,4.0,247.8751519997786,3.0,1.0,phase_1,,,,,,,,,,,,,yellow,circle
206.0,7.0,3.0,1.0,2.0,2.0,302.79028999984797,3.0,1.0,phase_1,,,,,,,,,,,,,blue,hexagon
43.0,1.0,1.0,0.0,4.0,4.0,288.129852000111,3.0,1.0,phase_1,,,,,,,,,,,,,yellow,circle
413.0,4.0,4.0,0.0,3.0,3.0,308.5084249996725,3.0,1.0,phase_1,,,,,,,,,,,,,white,square
0.0,2.0,0.0,0.0,1.0,1.0,293.5040030001801,3.0,1.0,phase_1,,,,,,,,,,,,,green,cross
0.0,7.0,0.0,1.0,4.0,4.0,313.2842889999665,3.0,1.0,phase_1,,,,,,,,,,,,,blue,hexagon
423.0,8.0,4.0,1.0,2.0,2.0,281.3852839999526,3.0,1.0,phase_1,,,,,,,,,,,,,orange,I
62.0,5.0,1.0,1.0,1.0,1.0,329.9888110000211,3.0,1.0,phase_1,,,,,,,,,,,,,magenta,triangle
225.0,3.0,3.0,0.0,4.0,4.0,374.8113430001467,3.0,1.0,phase_1,,,,,,,,,,,,,gray,flipped triangle
86.0,2.0,2.0,0.0,3.0,3.0,319.9167470002066,3.0,1.0,phase_1,,,,,,,,,,,,,green,cross
388.0,8.0,4.0,1.0,3.0,3.0,370.9391840002354,3.0,1.0,phase_1,,,,,,,,,,,,,orange,I
0.0,7.0,0.0,1.0,1.0,1.0,339.0019479998045,3.0,1.0,phase_1,,,,,,,,,,,,,blue,hexagon
0.0,6.0,0.0,1.0,1.0,1.0,340.3137949999291,3.0,1.0,phase_1,,,,,,,,,,,,,cyan,diamond
0.0,5.0,0.0,1.0,1.0,1.0,284.6351800003504,3.0,1.0,phase_1,,,,,,,,,,,,,magenta,triangle
37.0,5.0,1.0,1.0,3.0,3.0,307.47318900012027,3.0,1.0,phase_1,,,,,,,,,,,,,magenta,triangle
189.0,7.0,3.0,1.0,2.0,2.0,321.8708590002279,3.0,1.0,phase_1,,,,,,,,,,,,,blue,hexagon
58.0,5.0,1.0,1.0,3.0,3.0,371.9690590000937,3.0,1.0,phase_1,,,,,,,,,,,,,magenta,triangle
30.0,1.0,1.0,0.0,2.0,2.0,400.6098790000578,3.0,1.0,phase_1,,,,,,,,,,,,,yellow,circle
182.0,7.0,3.0,1.0,3.0,3.0,281.4171019999776,3.0,1.0,phase_1,,,,,,,,,,,,,blue,hexagon
0.0,8.0,0.0,1.0,4.0,4.0,373.0784060003316,3.0,1.0,phase_1,,,,,,,,,,,,,orange,I
54.0,5.0,1.0,1.0,3.0,3.0,379.7374289997606,3.0,1.0,phase_1,,,,,,,,,,,,,magenta,triangle
205.0,7.0,3.0,1.0,1.0,1.0,263.7065189996974,3.0,1.0,phase_1,,,,,,,,,,,,,blue,hexagon
39.0,5.0,1.0,1.0,2.0,2.0,330.0057819997164,3.0,1.0,phase_1,,,,,,,,,,,,,magenta,triangle
221.0,7.0,3.0,1.0,3.0,3.0,282.5175640000452,3.0,1.0,phase_1,,,,,,,,,,,,,blue,hexagon
189.0,3.0,3.0,0.0,1.0,1.0,296.4141390002623,3.0,1.0,phase_1,,,,,,,,,,,,,gray,flipped triangle
69.0,5.0,1.0,1.0,3.0,3.0,323.2513429998107,3.0,1.0,phase_1,,,,,,,,,,,,,magenta,triangle
55.0,1.0,1.0,0.0,2.0,2.0,352.9962180000439,3.0,1.0,phase_1,,,,,,,,,,,,,yellow,circle
34.0,5.0,1.0,1.0,1.0,1.0,324.5471879999968,3.0,1.0,phase_1,,,,,,,,,,,,,magenta,triangle
34.0,5.0,1.0,1.0,1.0,1.0,344.9936709998837,3.0,1.0,phase_1,,,,,,,,,,,,,magenta,triangle
0.0,7.0,0.0,1.0,3.0,3.0,307.8633430000081,3.0,1.0,phase_1,,,,,,,,,,,,,blue,hexagon
111.0,6.0,2.0,1.0,1.0,1.0,282.4194389995682,3.0,1.0,phase_1,,,,,,,,,,,,,cyan,diamond
43.0,5.0,1.0,1.0,3.0,3.0,304.4471319999502,3.0,1.0,phase_1,,,,,,,,,,,,,magenta,triangle
0.0,7.0,0.0,1.0,1.0,1.0,254.9244470001213,3.0,1.0,phase_1,,,,,,,,,,,,,blue,hexagon
191.0,7.0,3.0,1.0,3.0,3.0,274.9704900002143,3.0,1.0,phase_1,,,,,,,,,,,,,blue,hexagon
424.0,4.0,4.0,0.0,2.0,2.0,304.2966769999111,3.0,1.0,phase_1,,,,,,,,,,,,,white,square
78.0,6.0,2.0,1.0,2.0,2.0,347.8085439996903,3.0,1.0,phase_1,,,,,,,,,,,,,cyan,diamond
37.0,1.0,1.0,0.0,2.0,2.0,270.3653739999936,3.0,1.0,phase_1,,,,,,,,,,,,,yellow,circle
0.0,6.0,0.0,1.0,2.0,2.0,336.6738800000348,3.0,1.0,phase_1,,,,,,,,,,,,,cyan,diamond
387.0,8.0,4.0,1.0,4.0,4.0,333.5036500002388,3.0,1.0,phase_1,,,,,,,,,,,,,orange,I
80.0,6.0,2.0,1.0,4.0,4.0,303.1304520000049,3.0,1.0,phase_1,,,,,,,,,,,,,cyan,diamond
212.0,3.0,3.0,0.0,2.0,2.0,318.8645059999544,3.0,1.0,phase_1,,,,,,,,,,,,,gray,flipped triangle
400.0,8.0,4.0,1.0,1.0,1.0,293.9036580000902,3.0,1.0,phase_1,,,,,,,,,,,,,orange,I
422.0,8.0,4.0,1.0,2.0,2.0,269.1054120000444,3.0,1.0,phase_1,,,,,,,,,,,,,orange,I
91.0,6.0,2.0,1.0,1.0,1.0,301.5159730002779,3.0,1.0,phase_1,,,,,,,,,,,,,cyan,diamond
376.0,8.0,4.0,1.0,3.0,3.0,386.6762870002276,3.0,1.0,phase_1,,,,,,,,,,,,,orange,I
424.0,8.0,4.0,1.0,3.0,3.0,336.2294569997175,3.0,1.0,phase_1,,,,,,,,,,,,,orange,I
123.0,6.0,2.0,1.0,3.0,3.0,344.1582780001226,3.0,1.0,phase_1,,,,,,,,,,,,,cyan,diamond
0.0,2.0,0.0,0.0,4.0,4.0,409.4783170003211,3.0,1.0,phase_1,,,,,,,,,,,,,green,cross
26.0,5.0,1.0,1.0,2.0,2.0,339.9397210000643,3.0,1.0,phase_1,,,,,,,,,,,,,magenta,triangle
109.0,6.0,2.0,1.0,3.0,3.0,320.7178109996675,3.0,1.0,phase_1,,,,,,,,,,,,,cyan,diamond
91.0,6.0,2.0,1.0,2.0,2.0,350.8159939997313,3.0,1.0,phase_1,,,,,,,,,,,,,cyan,diamond
380.0,4.0,4.0,0.0,4.0,4.0,590.106440999989,3.0,1.0,phase_1,,,,,,,,,,,,,white,square
55.0,1.0,1.0,0.0,4.0,4.0,379.2852649999076,3.0,1.0,phase_1,,,,,,,,,,,,,yellow,circle
33.0,1.0,1.0,0.0,3.0,3.0,338.5168210002121,3.0,1.0,phase_1,,,,,,,,,,,,,yellow,circle
376.0,4.0,4.0,0.0,3.0,3.0,309.5097380000879,3.0,1.0,phase_1,,,,,,,,,,,,,white,square
425.0,4.0,4.0,0.0,4.0,4.0,334.2173030000595,3.0,1.0,phase_1,,,,,,,,,,,,,white,square
0.0,3.0,0.0,0.0,2.0,2.0,279.3382190002376,3.0,1.0,phase_1,,,,,,,,,,,,,gray,flipped triangle
422.0,8.0,4.0,1.0,3.0,3.0,371.3371290000395,3.0,1.0,phase_1,,,,,,,,,,,,,orange,I
202.0,3.0,3.0,0.0,4.0,4.0,275.8720960000573,3.0,1.0,phase_1,,,,,,,,,,,,,gray,flipped triangle
25.0,5.0,1.0,1.0,4.0,4.0,288.4502429997155,3.0,1.0,phase_1,,,,,,,,,,,,,magenta,triangle
397.0,8.0,4.0,1.0,3.0,3.0,328.2141350000529,3.0,1.0,phase_1,,,,,,,,,,,,,orange,I
83.0,6.0,2.0,1.0,4.0,4.0,272.3699409998517,3.0,1.0,phase_1,,,,,,,,,,,,,cyan,diamond
197.0,3.0,3.0,0.0,4.0,4.0,287.5216030001866,3.0,1.0,phase_1,,,,,,,,,,,,,gray,flipped triangle
206.0,3.0,3.0,0.0,2.0,2.0,314.6278239996718,3.0,1.0,phase_1,,,,,,,,,,,,,gray,flipped triangle
424.0,4.0,4.0,0.0,2.0,2.0,338.8578250001046,3.0,1.0,phase_1,,,,,,,,,,,,,white,square
56.0,1.0,1.0,0.0,2.0,2.0,335.9540400001606,3.0,1.0,phase_1,,,,,,,,,,,,,yellow,circle
406.0,4.0,4.0,0.0,2.0,2.0,290.1895820000391,3.0,1.0,phase_1,,,,,,,,,,,,,white,square
75.0,5.0,1.0,1.0,1.0,1.0,412.1307479999814,3.0,1.0,phase_1,,,,,,,,,,,,,magenta,triangle
0.0,7.0,0.0,1.0,3.0,3.0,340.4249229997731,3.0,1.0,phase_1,,,,,,,,,,,,,blue,hexagon
422.0,4.0,4.0,0.0,3.0,3.0,360.3674390001288,3.0,1.0,phase_1,,,,,,,,,,,,,white,square
93.0,2.0,2.0,0.0,4.0,4.0,327.3514190000242,3.0,1.0,phase_1,,,,,,,,,,,,,green,cross
32.0,5.0,1.0,1.0,2.0,2.0,286.8242979998285,3.0,1.0,phase_1,,,,,,,,,,,,,magenta,triangle
0.0,4.0,0.0,0.0,1.0,1.0,325.9777199996279,3.0,1.0,phase_1,,,,,,,,,,,,,white,square
0.0,3.0,0.0,0.0,1.0,1.0,311.7834220001896,3.0,1.0,phase_1,,,,,,,,,,,,,gray,flipped triangle
112.0,6.0,2.0,1.0,1.0,1.0,259.062497999821,3.0,1.0,phase_1,,,,,,,,,,,,,cyan,diamond
62.0,1.0,1.0,0.0,4.0,4.0,321.5267909999966,3.0,1.0,phase_1,,,,,,,,,,,,,yellow,circle
406.0,4.0,4.0,0.0,1.0,1.0,293.1985060004081,3.0,1.0,phase_1,,,,,,,,,,,,,white,square
0.0,7.0,0.0,1.0,3.0,3.0,417.3230979999971,3.0,1.0,phase_1,,,,,,,,,,,,,blue,hexagon
68.0,5.0,1.0,1.0,4.0,4.0,345.4110860002402,3.0,1.0,phase_1,,,,,,,,,,,,,magenta,triangle
109.0,6.0,2.0,1.0,2.0,2.0,312.6066869999704,3.0,1.0,phase_1,,,,,,,,,,,,,cyan,diamond
0.0,4.0,0.0,0.0,4.0,4.0,362.1545130004051,3.0,1.0,phase_1,,,,,,,,,,,,,white,square
48.0,5.0,1.0,1.0,4.0,4.0,328.5741750000852,3.0,1.0,phase_1,,,,,,,,,,,,,magenta,triangle
107.0,6.0,2.0,1.0,1.0,1.0,360.9688490000735,3.0,1.0,phase_1,,,,,,,,,,,,,cyan,diamond
176.0,7.0,3.0,1.0,1.0,1.0,324.2908000001989,4.0,1.0,phase_1,,,,,,,,,,,,,blue,hexagon
223.0,7.0,3.0,1.0,3.0,3.0,324.6092310000676,4.0,1.0,phase_1,,,,,,,,,,,,,blue,hexagon
0.0,7.0,0.0,1.0,4.0,4.0,290.129848000106,4.0,1.0,phase_1,,,,,,,,,,,,,blue,hexagon
382.0,4.0,4.0,0.0,1.0,1.0,321.9439150002472,4.0,1.0,phase_1,,,,,,,,,,,,,white,square
75.0,1.0,1.0,0.0,1.0,1.0,288.4883110000373,4.0,1.0,phase_1,,,,,,,,,,,,,yellow,circle
88.0,2.0,2.0,0.0,3.0,3.0,294.7273509998922,4.0,1.0,phase_1,,,,,,,,,,,,,green,cross
109.0,2.0,2.0,0.0,1.0,1.0,334.6374379998451,4.0,1.0,phase_1,,,,,,,,,,,,,green,cross
419.0,4.0,4.0,0.0,2.0,2.0,284.5334489998095,4.0,1.0,phase_1,,,,,,,,,,,,,white,square
0.0,3.0,0.0,0.0,3.0,3.0,371.8981259999054,4.0,1.0,phase_1,,,,,,,,,,,,,gray,flipped triangle
186.0,7.0,3.0,1.0,4.0,4.0,370.3870280000956,4.0,1.0,phase_1,,,,,,,,,,,,,blue,hexagon
0.0,6.0,0.0,1.0,4.0,4.0,309.7063559998787,4.0,1.0,phase_1,,,,,,,,,,,,,cyan,diamond
177.0,7.0,3.0,1.0,4.0,4.0,323.5873270000411,4.0,1.0,phase_1,,,,,,,,,,,,,blue,hexagon
80.0,2.0,2.0,0.0,2.0,2.0,298.8188680001258,4.0,1.0,phase_1,,,,,,,,,,,,,green,cross
0.0,4.0,0.0,0.0,4.0,4.0,375.0639190002403,4.0,1.0,phase_1,,,,,,,,,,,,,white,square
213.0,7.0,3.0,1.0,4.0,4.0,294.7556809999696,4.0,1.0,phase_1,,,,,,,,,,,,,blue,hexagon
406.0,8.0,4.0,1.0,2.0,2.0,297.343015000024,4.0,1.0,phase_1,,,,,,,,,,,,,orange,I
0.0,6.0,0.0,1.0,3.0,3.0,301.9833349999317,4.0,1.0,phase_1,,,,,,,,,,,,,cyan,diamond
0.0,1.0,0.0,0.0,3.0,3.0,315.2992340001219,4.0,1.0,phase_1,,,,,,,,,,,,,yellow,circle
48.0,1.0,1.0,0.0,3.0,3.0,279.7443859999475,4.0,1.0,phase_1,,,,,,,,,,,,,yellow,circle
392.0,8.0,4.0,1.0,3.0,3.0,284.1430989997207,4.0,1.0,phase_1,,,,,,,,,,,,,orange,I
86.0,6.0,2.0,1.0,2.0,2.0,333.1248620002043,4.0,2.0,phase_1,,,,,,,,,,,,,cyan,diamond
202.0,7.0,3.0,1.0,4.0,4.0,335.8280999996168,4.0,1.0,phase_1,,,,,,,,,,,,,blue,hexagon
63.0,1.0,1.0,0.0,3.0,3.0,334.2643890000545,4.0,1.0,phase_1,,,,,,,,,,,,,yellow,circle
191.0,3.0,3.0,0.0,3.0,3.0,396.2235380004131,4.0,1.0,phase_1,,,,,,,,,,,,,gray,flipped triangle
390.0,8.0,4.0,1.0,2.0,2.0,353.1334939998487,4.0,1.0,phase_1,,,,,,,,,,,,,orange,I
224.0,7.0,3.0,1.0,2.0,2.0,323.8505700001042,4.0,1.0,phase_1,,,,,,,,,,,,,blue,hexagon
220.0,3.0,3.0,0.0,3.0,3.0,370.4865599997902,4.0,1.0,phase_1,,,,,,,,,,,,,gray,flipped triangle
399.0,4.0,4.0,0.0,2.0,2.0,305.5353619997731,4.0,1.0,phase_1,,,,,,,,,,,,,white,square
38.0,5.0,1.0,1.0,2.0,2.0,307.6717699996152,4.0,1.0,phase_1,,,,,,,,,,,,,magenta,triangle
0.0,5.0,0.0,1.0,1.0,1.0,313.225785999748,4.0,1.0,phase_1,,,,,,,,,,,,,magenta,triangle
425.0,8.0,4.0,1.0,2.0,2.0,283.1583189999946,4.0,1.0,phase_1,,,,,,,,,,,,,orange,I
220.0,7.0,3.0,1.0,1.0,1.0,311.7924459997994,4.0,1.0,phase_1,,,,,,,,,,,,,blue,hexagon
197.0,7.0,3.0,1.0,1.0,1.0,347.9085650001252,4.0,1.0,phase_1,,,,,,,,,,,,,blue,hexagon
0.0,3.0,0.0,0.0,3.0,3.0,317.7948899997318,4.0,1.0,phase_1,,,,,,,,,,,,,gray,flipped triangle
0.0,3.0,0.0,0.0,4.0,4.0,365.4616139997415,4.0,1.0,phase_1,,,,,,,,,,,,,gray,flipped triangle
30.0,5.0,1.0,1.0,4.0,4.0,376.6705929997442,4.0,2.0,phase_1,,,,,,,,,,,,,magenta,triangle
69.0,1.0,1.0,0.0,3.0,3.0,328.9360909998322,4.0,1.0,phase_1,,,,,,,,,,,,,yellow,circle
408.0,8.0,4.0,1.0,2.0,2.0,357.3530240000764,4.0,1.0,phase_1,,,,,,,,,,,,,orange,I
91.0,6.0,2.0,1.0,1.0,1.0,381.7956729999423,4.0,1.0,phase_1,,,,,,,,,,,,,cyan,diamond
422.0,4.0,4.0,0.0,3.0,3.0,286.0421479999786,4.0,1.0,phase_1,,,,,,,,,,,,,white,square
93.0,6.0,2.0,1.0,4.0,4.0,325.2591440000287,4.0,1.0,phase_1,,,,,,,,,,,,,cyan,diamond
402.0,4.0,4.0,0.0,1.0,1.0,628.4886759999608,4.0,1.0,phase_1,,,,,,,,,,,,,white,square
52.0,1.0,1.0,0.0,4.0,4.0,374.5301339999969,4.0,1.0,phase_1,,,,,,,,,,,,,yellow,circle
0.0,1.0,0.0,0.0,3.0,3.0,370.7534449999912,4.0,1.0,phase_1,,,,,,,,,,,,,yellow,circle
0.0,4.0,0.0,0.0,2.0,2.0,329.7544920001201,4.0,1.0,phase_1,,,,,,,,,,,,,white,square
201.0,7.0,3.0,1.0,1.0,1.0,288.2819080000445,4.0,1.0,phase_1,,,,,,,,,,,,,blue,hexagon
86.0,6.0,2.0,1.0,2.0,2.0,279.3188850000661,4.0,1.0,phase_1,,,,,,,,,,,,,cyan,diamond
68.0,1.0,1.0,0.0,1.0,1.0,297.4303450000661,4.0,1.0,phase_1,,,,,,,,,,,,,yellow,circle
411.0,4.0,4.0,0.0,4.0,4.0,329.1637209999862,4.0,1.0,phase_1,,,,,,,,,,,,,white,square
91.0,2.0,2.0,0.0,2.0,2.0,337.194522000118,4.0,1.0,phase_1,,,,,,,,,,,,,green,cross
74.0,1.0,1.0,0.0,3.0,3.0,291.449158999967,4.0,1.0,phase_1,,,,,,,,,,,,,yellow,circle
96.0,2.0,2.0,0.0,2.0,2.0,350.5724510000618,4.0,1.0,phase_1,,,,,,,,,,,,,green,cross
0.0,5.0,0.0,1.0,3.0,3.0,304.4008930000927,4.0,1.0,phase_1,,,,,,,,,,,,,magenta,triangle
195.0,3.0,3.0,0.0,2.0,2.0,353.8109670002995,4.0,1.0,phase_1,,,,,,,,,,,,,gray,flipped triangle
123.0,2.0,2.0,0.0,4.0,4.0,254.5398029997159,4.0,1.0,phase_1,,,,,,,,,,,,,green,cross
402.0,4.0,4.0,0.0,2.0,2.0,265.6678140001531,4.0,1.0,phase_1,,,,,,,,,,,,,white,square
64.0,1.0,1.0,0.0,2.0,2.0,362.2970699998404,4.0,1.0,phase_1,,,,,,,,,,,,,yellow,circle
0.0,8.0,0.0,1.0,4.0,4.0,375.51527499999787,4.0,1.0,phase_1,,,,,,,,,,,,,orange,I
384.0,4.0,4.0,0.0,1.0,1.0,292.3298749997229,4.0,1.0,phase_1,,,,,,,,,,,,,white,square
0.0,2.0,0.0,0.0,3.0,3.0,338.8947839998764,4.0,1.0,phase_1,,,,,,,,,,,,,green,cross
67.0,1.0,1.0,0.0,3.0,3.0,343.3867089997875,4.0,1.0,phase_1,,,,,,,,,,,,,yellow,circle
69.0,1.0,1.0,0.0,3.0,3.0,286.3464150000254,4.0,1.0,phase_1,,,,,,,,,,,,,yellow,circle
101.0,6.0,2.0,1.0,2.0,2.0,499.229853000088,4.0,1.0,phase_1,,,,,,,,,,,,,cyan,diamond
214.0,7.0,3.0,1.0,3.0,3.0,289.1817879999507,4.0,1.0,phase_1,,,,,,,,,,,,,blue,hexagon
207.0,3.0,3.0,0.0,2.0,2.0,298.6835589999828,4.0,1.0,phase_1,,,,,,,,,,,,,gray,flipped triangle
101.0,2.0,2.0,0.0,2.0,2.0,327.3909640001875,4.0,1.0,phase_1,,,,,,,,,,,,,green,cross
217.0,3.0,3.0,0.0,3.0,3.0,358.6065999998027,4.0,1.0,phase_1,,,,,,,,,,,,,gray,flipped triangle
0.0,3.0,0.0,0.0,4.0,4.0,361.6437559999212,4.0,1.0,phase_1,,,,,,,,,,,,,gray,flipped triangle
421.0,4.0,4.0,0.0,4.0,4.0,374.5390320000297,4.0,1.0,phase_1,,,,,,,,,,,,,white,square
419.0,8.0,4.0,1.0,3.0,3.0,382.7366579998852,4.0,1.0,phase_1,,,,,,,,,,,,,orange,I
410.0,4.0,4.0,0.0,4.0,4.0,305.2547669999512,4.0,1.0,phase_1,,,,,,,,,,,,,white,square
0.0,4.0,0.0,0.0,3.0,3.0,282.815993999975,4.0,1.0,phase_1,,,,,,,,,,,,,white,square
0.0,6.0,0.0,1.0,3.0,3.0,350.8198860004086,4.0,1.0,phase_1,,,,,,,,,,,,,cyan,diamond
80.0,2.0,2.0,0.0,2.0,2.0,305.8771609998985,4.0,1.0,phase_1,,,,,,,,,,,,,green,cross
377.0,8.0,4.0,1.0,1.0,1.0,372.4332259998846,4.0,1.0,phase_1,,,,,,,,,,,,,orange,I
205.0,3.0,3.0,0.0,1.0,1.0,390.1827960003174,4.0,1.0,phase_1,,,,,,,,,,,,,gray,flipped triangle
394.0,8.0,4.0,1.0,3.0,3.0,301.6822149998006,4.0,1.0,phase_1,,,,,,,,,,,,,orange,I
33.0,5.0,1.0,1.0,2.0,2.0,363.8096009999572,4.0,1.0,phase_1,,,,,,,,,,,,,magenta,triangle
386.0,8.0,4.0,1.0,1.0,1.0,312.8614970000853,4.0,1.0,phase_1,,,,,,,,,,,,,orange,I
114.0,6.0,2.0,1.0,1.0,1.0,334.5041910001782,4.0,1.0,phase_1,,,,,,,,,,,,,cyan,diamond
386.0,4.0,4.0,0.0,4.0,4.0,337.1676589999879,4.0,1.0,phase_1,,,,,,,,,,,,,white,square
203.0,7.0,3.0,1.0,3.0,3.0,388.3655780000481,4.0,1.0,phase_1,,,,,,,,,,,,,blue,hexagon
394.0,4.0,4.0,0.0,3.0,3.0,341.2725859998318,4.0,1.0,phase_1,,,,,,,,,,,,,white,square
0.0,4.0,0.0,0.0,3.0,3.0,371.9845649998206,4.0,1.0,phase_1,,,,,,,,,,,,,white,square
0.0,1.0,0.0,0.0,4.0,4.0,313.1170259998725,4.0,1.0,phase_1,,,,,,,,,,,,,yellow,circle
399.0,4.0,4.0,0.0,3.0,3.0,312.2459549999803,4.0,1.0,phase_1,,,,,,,,,,,,,white,square
402.0,4.0,4.0,0.0,2.0,2.0,332.0956980001028,4.0,1.0,phase_1,,,,,,,,,,,,,white,square
0.0,5.0,0.0,1.0,3.0,3.0,334.0946299999814,4.0,1.0,phase_1,,,,,,,,,,,,,magenta,triangle
223.0,7.0,3.0,1.0,1.0,1.0,305.7455369998934,4.0,1.0,phase_1,,,,,,,,,,,,,blue,hexagon
76.0,2.0,2.0,0.0,3.0,3.0,379.0061280001282,4.0,1.0,phase_1,,,,,,,,,,,,,green,cross
105.0,6.0,2.0,1.0,4.0,4.0,297.0400039998822,4.0,1.0,phase_1,,,,,,,,,,,,,cyan,diamond
120.0,6.0,2.0,1.0,3.0,3.0,376.3057389996902,4.0,1.0,phase_1,,,,,,,,,,,,,cyan,diamond
0.0,5.0,0.0,1.0,1.0,1.0,335.2661099997931,4.0,1.0,phase_1,,,,,,,,,,,,,magenta,triangle
0.0,5.0,0.0,1.0,4.0,4.0,330.2168149998579,4.0,2.0,phase_1,,,,,,,,,,,,,magenta,triangle
78.0,2.0,2.0,0.0,3.0,3.0,354.4454810003117,4.0,1.0,phase_1,,,,,,,,,,,,,green,cross
0.0,8.0,0.0,1.0,4.0,4.0,307.0642709999447,4.0,1.0,phase_1,,,,,,,,,,,,,orange,I
179.0,3.0,3.0,0.0,4.0,4.0,298.0935219998173,4.0,1.0,phase_1,,,,,,,,,,,,,gray,flipped triangle
39.0,1.0,1.0,0.0,4.0,4.0,257.7138499996181,4.0,1.0,phase_1,,,,,,,,,,,,,yellow,circle
0.0,6.0,0.0,1.0,4.0,4.0,252.82529900005102,4.0,1.0,phase_1,,,,,,,,,,,,,cyan,diamond
213.0,3.0,3.0,0.0,2.0,2.0,338.984130999961,4.0,1.0,phase_1,,,,,,,,,,,,,gray,flipped triangle
0.0,4.0,4.0,0.0,5.0,5.0,361.205105999943,1.0,1.0,phase_2,go,250.0,250.0,1.0,,,,,,,,,white,square
0.0,6.0,2.0,1.0,6.0,6.0,406.2517590000425,1.0,1.0,phase_2,stop,250.0,250.0,3.0,,,,,,,,,cyan,diamond
0.0,4.0,4.0,0.0,5.0,5.0,278.5001459997147,1.0,1.0,phase_2,go,250.0,200.0,1.0,,,,,,,,,white,square
0.0,4.0,4.0,0.0,6.0,6.0,496.3021529997604,1.0,1.0,phase_2,go,250.0,200.0,1.0,,,,,,,,,white,square
0.0,8.0,4.0,1.0,6.0,6.0,362.3962449996725,1.0,1.0,phase_2,stop,250.0,200.0,3.0,,,,,,,,,orange,I
0.0,8.0,4.0,1.0,6.0,6.0,914.6870760000638,1.0,1.0,phase_2,go,250.0,150.0,1.0,,,,,,,,,orange,I
0.0,6.0,2.0,1.0,5.0,0.0,0.0,1.0,1.0,phase_2,stop,250.0,150.0,4.0,,,,,,,,,cyan,diamond
0.0,2.0,2.0,0.0,5.0,5.0,691.3679439999214,1.0,1.0,phase_2,go,300.0,150.0,1.0,,,,,,,,,green,cross
0.0,7.0,3.0,1.0,6.0,6.0,368.3305620002102,1.0,1.0,phase_2,stop,300.0,150.0,3.0,,,,,,,,,blue,hexagon
0.0,7.0,3.0,1.0,6.0,0.0,0.0,1.0,1.0,phase_2,stop,300.0,100.0,4.0,,,,,,,,,blue,hexagon
0.0,3.0,3.0,0.0,5.0,5.0,669.1036339998391,1.0,1.0,phase_2,go,300.0,150.0,1.0,,,,,,,,,gray,flipped triangle
0.0,1.0,1.0,0.0,6.0,6.0,907.054731000244,1.0,1.0,phase_2,go,300.0,150.0,1.0,,,,,,,,,yellow,circle
0.0,2.0,2.0,0.0,5.0,5.0,714.8415020001266,1.0,1.0,phase_2,go,300.0,150.0,1.0,,,,,,,,,green,cross
0.0,6.0,2.0,1.0,6.0,0.0,0.0,1.0,1.0,phase_2,stop,300.0,150.0,4.0,,,,,,,,,cyan,diamond
0.0,6.0,2.0,1.0,5.0,0.0,0.0,1.0,1.0,phase_2,stop,300.0,200.0,4.0,,,,,,,,,cyan,diamond
0.0,6.0,2.0,1.0,6.0,0.0,0.0,1.0,1.0,phase_2,stop,350.0,200.0,4.0,,,,,,,,,cyan,diamond
0.0,5.0,1.0,1.0,5.0,5.0,646.6483720000724,1.0,1.0,phase_2,go,350.0,250.0,1.0,,,,,,,,,magenta,triangle
0.0,1.0,1.0,0.0,5.0,5.0,704.3437209999865,1.0,1.0,phase_2,go,350.0,250.0,1.0,,,,,,,,,yellow,circle
0.0,7.0,3.0,1.0,5.0,0.0,0.0,1.0,1.0,phase_2,stop,350.0,250.0,4.0,,,,,,,,,blue,hexagon
0.0,2.0,2.0,0.0,6.0,6.0,702.1587099998214,1.0,1.0,phase_2,go,400.0,250.0,1.0,,,,,,,,,green,cross
0.0,4.0,4.0,0.0,5.0,5.0,721.8831280001723,1.0,1.0,phase_2,go,400.0,250.0,1.0,,,,,,,,,white,square
0.0,2.0,2.0,0.0,6.0,6.0,628.0624149999312,1.0,1.0,phase_2,go,400.0,250.0,1.0,,,,,,,,,green,cross
0.0,7.0,3.0,1.0,6.0,0.0,0.0,1.0,1.0,phase_2,stop,400.0,250.0,4.0,,,,,,,,,blue,hexagon
0.0,6.0,2.0,1.0,5.0,5.0,433.0614670002433,1.0,1.0,phase_2,stop,400.0,300.0,3.0,,,,,,,,,cyan,diamond
0.0,7.0,3.0,1.0,6.0,6.0,845.5871709998064,1.0,1.0,phase_2,go,350.0,300.0,1.0,,,,,,,,,blue,hexagon
0.0,1.0,1.0,0.0,5.0,5.0,973.3429789998808,1.0,1.0,phase_2,go,350.0,300.0,1.0,,,,,,,,,yellow,circle
0.0,1.0,1.0,0.0,5.0,5.0,789.7896109998328,1.0,1.0,phase_2,go,350.0,300.0,1.0,,,,,,,,,yellow,circle
0.0,8.0,4.0,1.0,6.0,0.0,0.0,1.0,1.0,phase_2,stop,350.0,300.0,4.0,,,,,,,,,orange,I
0.0,5.0,1.0,1.0,6.0,0.0,0.0,1.0,1.0,phase_2,stop,350.0,350.0,4.0,,,,,,,,,magenta,triangle
0.0,1.0,1.0,0.0,6.0,6.0,639.6881860000576,1.0,1.0,phase_2,go,350.0,400.0,1.0,,,,,,,,,yellow,circle
0.0,4.0,4.0,0.0,6.0,6.0,872.6442890001636,1.0,1.0,phase_2,go,350.0,400.0,1.0,,,,,,,,,white,square
0.0,3.0,3.0,0.0,5.0,5.0,710.384528999839,1.0,1.0,phase_2,go,350.0,400.0,1.0,,,,,,,,,gray,flipped triangle
0.0,6.0,2.0,1.0,6.0,6.0,583.893074000116,1.0,1.0,phase_2,stop,350.0,400.0,3.0,,,,,,,,,cyan,diamond
0.0,2.0,2.0,0.0,6.0,6.0,744.6061119999285,1.0,1.0,phase_2,go,350.0,350.0,1.0,,,,,,,,,green,cross
0.0,6.0,2.0,1.0,5.0,0.0,0.0,1.0,1.0,phase_2,stop,350.0,350.0,4.0,,,,,,,,,cyan,diamond
0.0,1.0,1.0,0.0,6.0,6.0,771.8726279999828,1.0,1.0,phase_2,go,400.0,350.0,1.0,,,,,,,,,yellow,circle
0.0,6.0,2.0,1.0,6.0,0.0,0.0,2.0,1.0,phase_2,stop,400.0,350.0,4.0,,,,,,,,,cyan,diamond
0.0,1.0,1.0,0.0,5.0,5.0,359.1094079997674,2.0,1.0,phase_2,go,400.0,400.0,1.0,,,,,,,,,yellow,circle
0.0,7.0,3.0,1.0,6.0,6.0,485.1056520001293,2.0,1.0,phase_2,stop,400.0,400.0,3.0,,,,,,,,,blue,hexagon
0.0,4.0,4.0,0.0,6.0,6.0,553.5541720000765,2.0,1.0,phase_2,go,400.0,350.0,1.0,,,,,,,,,white,square
0.0,1.0,1.0,0.0,6.0,6.0,287.3113229998125,2.0,1.0,phase_2,go,400.0,350.0,1.0,,,,,,,,,yellow,circle
0.0,8.0,4.0,1.0,6.0,6.0,424.3255420001333,2.0,1.0,phase_2,stop,400.0,350.0,3.0,,,,,,,,,orange,I
0.0,2.0,2.0,0.0,5.0,5.0,732.0623450000312,2.0,1.0,phase_2,go,400.0,300.0,1.0,,,,,,,,,green,cross
0.0,3.0,3.0,0.0,6.0,6.0,493.6208849999275,2.0,1.0,phase_2,go,400.0,300.0,1.0,,,,,,,,,gray,flipped triangle
0.0,8.0,4.0,1.0,6.0,6.0,335.3176810001059,2.0,1.0,phase_2,stop,400.0,300.0,3.0,,,,,,,,,orange,I
0.0,5.0,1.0,1.0,6.0,0.0,0.0,2.0,1.0,phase_2,stop,400.0,250.0,4.0,,,,,,,,,magenta,triangle
0.0,6.0,2.0,1.0,6.0,0.0,0.0,2.0,1.0,phase_2,stop,400.0,300.0,4.0,,,,,,,,,cyan,diamond
0.0,1.0,1.0,0.0,6.0,6.0,353.18816299968597,2.0,1.0,phase_2,go,400.0,350.0,1.0,,,,,,,,,yellow,circle
0.0,2.0,2.0,0.0,6.0,6.0,297.9626970000026,2.0,1.0,phase_2,go,400.0,350.0,1.0,,,,,,,,,green,cross
0.0,7.0,3.0,1.0,5.0,5.0,446.9045139999252,2.0,1.0,phase_2,stop,400.0,350.0,3.0,,,,,,,,,blue,hexagon
0.0,6.0,2.0,1.0,5.0,0.0,0.0,2.0,1.0,phase_2,stop,350.0,350.0,4.0,,,,,,,,,cyan,diamond
0.0,7.0,3.0,1.0,5.0,0.0,0.0,2.0,1.0,phase_2,stop,400.0,350.0,4.0,,,,,,,,,blue,hexagon
0.0,3.0,3.0,0.0,5.0,5.0,547.4864849998085,2.0,1.0,phase_2,go,450.0,350.0,1.0,,,,,,,,,gray,flipped triangle
0.0,4.0,4.0,0.0,5.0,5.0,300.4640389999622,2.0,1.0,phase_2,go,450.0,350.0,1.0,,,,,,,,,white,square
0.0,2.0,2.0,0.0,6.0,6.0,306.1526519995823,2.0,1.0,phase_2,go,450.0,350.0,1.0,,,,,,,,,green,cross
0.0,5.0,1.0,1.0,6.0,6.0,385.6401349999032,2.0,1.0,phase_2,go,450.0,350.0,1.0,,,,,,,,,magenta,triangle
0.0,8.0,4.0,1.0,5.0,0.0,0.0,2.0,1.0,phase_2,stop,450.0,350.0,4.0,,,,,,,,,orange,I
0.0,8.0,4.0,1.0,6.0,0.0,0.0,2.0,1.0,phase_2,stop,500.0,350.0,4.0,,,,,,,,,orange,I
0.0,2.0,2.0,0.0,5.0,5.0,626.318344000083,2.0,1.0,phase_2,go,500.0,400.0,1.0,,,,,,,,,green,cross
0.0,6.0,2.0,1.0,6.0,6.0,743.8788129998102,2.0,1.0,phase_2,go,500.0,400.0,1.0,,,,,,,,,cyan,diamond
0.0,7.0,3.0,1.0,6.0,6.0,335.3899610001463,2.0,1.0,phase_2,stop,500.0,400.0,3.0,,,,,,,,,blue,hexagon
0.0,2.0,2.0,0.0,5.0,5.0,554.240903000391,2.0,1.0,phase_2,go,500.0,350.0,1.0,,,,,,,,,green,cross
0.0,5.0,1.0,1.0,5.0,5.0,320.215619999999,2.0,1.0,phase_2,go,500.0,350.0,1.0,,,,,,,,,magenta,triangle
0.0,7.0,3.0,1.0,6.0,6.0,335.5869990000428,2.0,1.0,phase_2,stop,500.0,350.0,3.0,,,,,,,,,blue,hexagon
0.0,3.0,3.0,0.0,6.0,6.0,615.8652859999165,2.0,1.0,phase_2,go,500.0,300.0,1.0,,,,,,,,,gray,flipped triangle
0.0,6.0,2.0,1.0,5.0,5.0,277.9849759999706,2.0,1.0,phase_2,go,500.0,300.0,1.0,,,,,,,,,cyan,diamond
0.0,5.0,1.0,1.0,5.0,5.0,283.2043029998203,2.0,1.0,phase_2,stop,500.0,300.0,3.0,,,,,,,,,magenta,triangle
0.0,7.0,3.0,1.0,5.0,5.0,664.6794240000418,2.0,1.0,phase_2,go,450.0,300.0,1.0,,,,,,,,,blue,hexagon
0.0,1.0,1.0,0.0,5.0,5.0,317.5613320004231,2.0,1.0,phase_2,go,450.0,300.0,1.0,,,,,,,,,yellow,circle
0.0,6.0,2.0,1.0,6.0,6.0,279.39913499994867,2.0,1.0,phase_2,stop,450.0,300.0,3.0,,,,,,,,,cyan,diamond
0.0,4.0,4.0,0.0,5.0,5.0,474.6553230002064,2.0,1.0,phase_2,go,450.0,250.0,1.0,,,,,,,,,white,square
0.0,2.0,2.0,0.0,6.0,6.0,451.6862720001882,2.0,1.0,phase_2,go,450.0,250.0,1.0,,,,,,,,,green,cross
0.0,3.0,3.0,0.0,5.0,5.0,480.6582769997476,3.0,1.0,phase_2,go,450.0,250.0,1.0,,,,,,,,,gray,flipped triangle
0.0,4.0,4.0,0.0,6.0,6.0,258.4169540000403,3.0,1.0,phase_2,go,450.0,250.0,1.0,,,,,,,,,white,square
0.0,8.0,4.0,1.0,6.0,6.0,314.0334900003836,3.0,1.0,phase_2,stop,450.0,250.0,3.0,,,,,,,,,orange,I
0.0,7.0,3.0,1.0,5.0,5.0,262.5722600000699,3.0,1.0,phase_2,stop,450.0,200.0,3.0,,,,,,,,,blue,hexagon
0.0,2.0,2.0,0.0,6.0,6.0,623.2073839996701,3.0,1.0,phase_2,go,400.0,200.0,1.0,,,,,,,,,green,cross
0.0,1.0,1.0,0.0,6.0,6.0,331.8083640001532,3.0,1.0,phase_2,go,400.0,200.0,1.0,,,,,,,,,yellow,circle
0.0,8.0,4.0,1.0,5.0,5.0,272.0484830001624,3.0,1.0,phase_2,stop,400.0,200.0,3.0,,,,,,,,,orange,I
0.0,6.0,2.0,1.0,5.0,0.0,0.0,3.0,1.0,phase_2,stop,350.0,200.0,4.0,,,,,,,,,cyan,diamond
0.0,5.0,1.0,1.0,6.0,6.0,438.2935910002743,3.0,1.0,phase_2,go,400.0,200.0,1.0,,,,,,,,,magenta,triangle
0.0,4.0,4.0,0.0,5.0,5.0,313.3996689998639,3.0,1.0,phase_2,go,400.0,200.0,1.0,,,,,,,,,white,square
0.0,3.0,3.0,0.0,5.0,5.0,357.2462719998839,3.0,1.0,phase_2,go,400.0,200.0,1.0,,,,,,,,,gray,flipped triangle
0.0,1.0,1.0,0.0,6.0,6.0,392.4686000000292,3.0,1.0,phase_2,go,400.0,200.0,1.0,,,,,,,,,yellow,circle
0.0,3.0,3.0,0.0,6.0,6.0,325.6394719996933,3.0,1.0,phase_2,go,400.0,200.0,1.0,,,,,,,,,gray,flipped triangle
0.0,5.0,1.0,1.0,5.0,5.0,551.0518790001697,3.0,1.0,phase_2,go,400.0,200.0,1.0,,,,,,,,,magenta,triangle
0.0,6.0,2.0,1.0,6.0,6.0,328.1787719997737,3.0,1.0,phase_2,stop,400.0,200.0,3.0,,,,,,,,,cyan,diamond
0.0,1.0,1.0,0.0,6.0,6.0,496.8672340000921,3.0,1.0,phase_2,go,400.0,150.0,1.0,,,,,,,,,yellow,circle
0.0,4.0,4.0,0.0,5.0,5.0,312.4339340001825,3.0,1.0,phase_2,go,400.0,150.0,1.0,,,,,,,,,white,square
0.0,5.0,1.0,1.0,6.0,6.0,275.2178020000428,3.0,1.0,phase_2,stop,400.0,150.0,3.0,,,,,,,,,magenta,triangle
0.0,4.0,4.0,0.0,6.0,6.0,730.0642059999518,3.0,1.0,phase_2,go,400.0,100.0,1.0,,,,,,,,,white,square
0.0,2.0,2.0,0.0,6.0,6.0,457.5567520000732,3.0,1.0,phase_2,go,400.0,100.0,1.0,,,,,,,,,green,cross
0.0,8.0,4.0,1.0,5.0,5.0,340.5933179997191,3.0,1.0,phase_2,stop,400.0,100.0,3.0,,,,,,,,,orange,I
0.0,3.0,3.0,0.0,5.0,5.0,525.9702439998364,3.0,1.0,phase_2,go,350.0,100.0,1.0,,,,,,,,,gray,flipped triangle
0.0,5.0,1.0,1.0,6.0,6.0,383.2647449999058,3.0,1.0,phase_2,stop,350.0,100.0,3.0,,,,,,,,,magenta,triangle
0.0,4.0,4.0,0.0,6.0,6.0,554.5801479997863,3.0,1.0,phase_2,go,350.0,50.0,1.0,,,,,,,,,white,square
0.0,3.0,3.0,0.0,6.0,6.0,422.8108389997942,3.0,1.0,phase_2,go,350.0,50.0,1.0,,,,,,,,,gray,flipped triangle
0.0,5.0,1.0,1.0,6.0,0.0,0.0,3.0,1.0,phase_2,stop,350.0,50.0,4.0,,,,,,,,,magenta,triangle
0.0,7.0,3.0,1.0,5.0,5.0,530.8107930000006,3.0,1.0,phase_2,go,350.0,100.0,1.0,,,,,,,,,blue,hexagon
0.0,4.0,4.0,0.0,6.0,6.0,347.6789770002142,3.0,1.0,phase_2,go,350.0,100.0,1.0,,,,,,,,,white,square
0.0,3.0,3.0,0.0,5.0,5.0,504.1034790001504,3.0,1.0,phase_2,go,350.0,100.0,1.0,,,,,,,,,gray,flipped triangle
0.0,8.0,4.0,1.0,5.0,5.0,389.8004229999969,3.0,1.0,phase_2,stop,350.0,100.0,3.0,,,,,,,,,orange,I
0.0,3.0,3.0,0.0,5.0,5.0,590.5996129999949,3.0,1.0,phase_2,go,300.0,100.0,1.0,,,,,,,,,gray,flipped triangle
0.0,6.0,2.0,1.0,6.0,0.0,0.0,3.0,1.0,phase_2,stop,300.0,100.0,4.0,,,,,,,,,cyan,diamond
0.0,3.0,3.0,0.0,6.0,6.0,572.7860530000726,3.0,1.0,phase_2,go,300.0,150.0,1.0,,,,,,,,,gray,flipped triangle
0.0,8.0,4.0,1.0,6.0,6.0,570.0580299999274,3.0,1.0,phase_2,go,300.0,150.0,1.0,,,,,,,,,orange,I
0.0,6.0,2.0,1.0,6.0,0.0,0.0,3.0,1.0,phase_2,stop,300.0,150.0,4.0,,,,,,,,,cyan,diamond
0.0,8.0,4.0,1.0,6.0,6.0,584.518492999905,3.0,1.0,phase_2,go,300.0,200.0,1.0,,,,,,,,,orange,I
0.0,1.0,1.0,0.0,6.0,6.0,428.5800190000373,4.0,1.0,phase_2,go,300.0,200.0,1.0,,,,,,,,,yellow,circle
0.0,3.0,3.0,0.0,6.0,6.0,429.1577930002859,4.0,1.0,phase_2,go,300.0,200.0,1.0,,,,,,,,,gray,flipped triangle
0.0,5.0,1.0,1.0,5.0,5.0,268.5817930000667,4.0,1.0,phase_2,stop,300.0,200.0,3.0,,,,,,,,,magenta,triangle
0.0,6.0,2.0,1.0,6.0,0.0,0.0,4.0,1.0,phase_2,stop,250.0,200.0,4.0,,,,,,,,,cyan,diamond
0.0,2.0,2.0,0.0,5.0,5.0,459.3775899998036,4.0,1.0,phase_2,go,250.0,250.0,1.0,,,,,,,,,green,cross
0.0,1.0,1.0,0.0,6.0,6.0,512.1737499998744,4.0,1.0,phase_2,go,250.0,250.0,1.0,,,,,,,,,yellow,circle
0.0,5.0,1.0,1.0,6.0,6.0,348.3873640002457,4.0,1.0,phase_2,stop,250.0,250.0,3.0,,,,,,,,,magenta,triangle
0.0,8.0,4.0,1.0,6.0,6.0,592.7643600002739,4.0,1.0,phase_2,go,250.0,200.0,1.0,,,,,,,,,orange,I
0.0,2.0,2.0,0.0,5.0,5.0,361.3694219998251,4.0,1.0,phase_2,go,250.0,200.0,1.0,,,,,,,,,green,cross
0.0,6.0,2.0,1.0,5.0,5.0,348.9893830001165,4.0,1.0,phase_2,go,250.0,200.0,1.0,,,,,,,,,cyan,diamond
0.0,4.0,4.0,0.0,6.0,6.0,343.6123050000788,4.0,1.0,phase_2,go,250.0,200.0,1.0,,,,,,,,,white,square
0.0,3.0,3.0,0.0,6.0,6.0,490.6294699999307,4.0,1.0,phase_2,go,250.0,200.0,1.0,,,,,,,,,gray,flipped triangle
0.0,6.0,2.0,1.0,5.0,5.0,340.5830789997708,4.0,1.0,phase_2,stop,250.0,200.0,3.0,,,,,,,,,cyan,diamond
0.0,3.0,3.0,0.0,6.0,6.0,548.5637899996618,4.0,1.0,phase_2,go,200.0,200.0,1.0,,,,,,,,,gray,flipped triangle
0.0,4.0,4.0,0.0,6.0,6.0,381.8821959998786,4.0,1.0,phase_2,go,200.0,200.0,1.0,,,,,,,,,white,square
0.0,5.0,1.0,1.0,5.0,5.0,302.8118020001784,4.0,1.0,phase_2,stop,200.0,200.0,3.0,,,,,,,,,magenta,triangle
0.0,7.0,3.0,1.0,5.0,0.0,0.0,4.0,1.0,phase_2,stop,150.0,200.0,4.0,,,,,,,,,blue,hexagon
0.0,8.0,4.0,1.0,5.0,5.0,549.8511390001113,4.0,1.0,phase_2,go,200.0,200.0,1.0,,,,,,,,,orange,I
0.0,1.0,1.0,0.0,5.0,5.0,551.5015979999589,4.0,1.0,phase_2,go,200.0,200.0,1.0,,,,,,,,,yellow,circle
0.0,2.0,2.0,0.0,6.0,6.0,597.9978089999349,4.0,1.0,phase_2,go,200.0,200.0,1.0,,,,,,,,,green,cross
0.0,7.0,3.0,1.0,6.0,6.0,742.5576780001393,4.0,1.0,phase_2,go,200.0,200.0,1.0,,,,,,,,,blue,hexagon
0.0,7.0,3.0,1.0,6.0,6.0,407.5686769997446,4.0,1.0,phase_2,stop,200.0,200.0,3.0,,,,,,,,,blue,hexagon
0.0,1.0,1.0,0.0,6.0,6.0,574.2496799998662,4.0,1.0,phase_2,go,200.0,150.0,1.0,,,,,,,,,yellow,circle
0.0,8.0,4.0,1.0,5.0,0.0,0.0,4.0,1.0,phase_2,stop,200.0,150.0,4.0,,,,,,,,,orange,I
0.0,3.0,3.0,0.0,5.0,5.0,728.5435089997918,4.0,1.0,phase_2,go,250.0,150.0,1.0,,,,,,,,,gray,flipped triangle
0.0,5.0,1.0,1.0,5.0,5.0,285.9289560001343,4.0,1.0,phase_2,go,250.0,150.0,1.0,,,,,,,,,magenta,triangle
0.0,5.0,1.0,1.0,6.0,0.0,0.0,4.0,1.0,phase_2,stop,250.0,150.0,4.0,,,,,,,,,magenta,triangle
0.0,6.0,2.0,1.0,5.0,5.0,414.0008250001301,4.0,1.0,phase_2,stop,250.0,200.0,3.0,,,,,,,,,cyan,diamond
0.0,2.0,2.0,0.0,5.0,5.0,573.5985800001799,4.0,1.0,phase_2,go,200.0,200.0,1.0,,,,,,,,,green,cross
0.0,5.0,1.0,1.0,5.0,0.0,0.0,4.0,1.0,phase_2,stop,200.0,200.0,4.0,,,,,,,,,magenta,triangle
0.0,4.0,4.0,0.0,6.0,6.0,662.1442370001205,4.0,1.0,phase_2,go,250.0,200.0,1.0,,,,,,,,,white,square
0.0,7.0,3.0,1.0,6.0,0.0,0.0,4.0,1.0,phase_2,stop,250.0,200.0,4.0,,,,,,,,,blue,hexagon
0.0,8.0,4.0,1.0,5.0,5.0,461.4244780000263,4.0,1.0,phase_2,stop,250.0,250.0,3.0,,,,,,,,,orange,I
0.0,3.0,3.0,0.0,6.0,6.0,652.4239680002211,4.0,1.0,phase_2,go,200.0,250.0,1.0,,,,,,,,,gray,flipped triangle
0.0,2.0,2.0,0.0,5.0,5.0,554.5749620000606,4.0,1.0,phase_2,go,200.0,250.0,1.0,,,,,,,,,green,cross
0.0,7.0,3.0,1.0,5.0,5.0,446.1547010000686,4.0,1.0,phase_2,stop,200.0,250.0,3.0,,,,,,,,,blue,hexagon
0.0,2.0,2.0,0.0,5.0,5.0,425.9016819996759,5.0,1.0,phase_2,go,150.0,250.0,1.0,,,,,,,,,green,cross
0.0,3.0,3.0,0.0,5.0,5.0,403.669925000031,5.0,1.0,phase_2,go,150.0,250.0,1.0,,,,,,,,,gray,flipped triangle
0.0,6.0,2.0,1.0,5.0,5.0,314.229768000132,5.0,1.0,phase_2,go,150.0,250.0,1.0,,,,,,,,,cyan,diamond
0.0,3.0,3.0,0.0,5.0,5.0,268.9502349999202,5.0,1.0,phase_2,go,150.0,250.0,1.0,,,,,,,,,gray,flipped triangle
0.0,8.0,4.0,1.0,5.0,5.0,285.1194469999427,5.0,1.0,phase_2,stop,150.0,250.0,3.0,,,,,,,,,orange,I
0.0,5.0,1.0,1.0,6.0,0.0,0.0,5.0,1.0,phase_2,stop,100.0,250.0,4.0,,,,,,,,,magenta,triangle
0.0,1.0,1.0,0.0,6.0,6.0,566.606320000119,5.0,1.0,phase_2,go,100.0,300.0,1.0,,,,,,,,,yellow,circle
0.0,5.0,1.0,1.0,5.0,0.0,0.0,5.0,1.0,phase_2,stop,100.0,300.0,4.0,,,,,,,,,magenta,triangle
0.0,3.0,3.0,0.0,6.0,6.0,565.8225259999199,5.0,1.0,phase_2,go,150.0,300.0,1.0,,,,,,,,,gray,flipped triangle
0.0,3.0,3.0,0.0,6.0,6.0,584.6338619999187,5.0,1.0,phase_2,go,150.0,300.0,1.0,,,,,,,,,gray,flipped triangle
0.0,1.0,1.0,0.0,6.0,6.0,550.457637999898,5.0,1.0,phase_2,go,150.0,300.0,1.0,,,,,,,,,yellow,circle
0.0,8.0,4.0,1.0,6.0,6.0,390.6136569999034,5.0,1.0,phase_2,stop,150.0,300.0,3.0,,,,,,,,,orange,I
0.0,5.0,1.0,1.0,5.0,0.0,0.0,5.0,1.0,phase_2,stop,150.0,250.0,4.0,,,,,,,,,magenta,triangle
0.0,3.0,3.0,0.0,5.0,5.0,522.7606260000357,5.0,1.0,phase_2,go,200.0,250.0,1.0,,,,,,,,,gray,flipped triangle
0.0,3.0,3.0,0.0,5.0,5.0,707.5304819995836,5.0,1.0,phase_2,go,200.0,250.0,1.0,,,,,,,,,gray,flipped triangle
0.0,7.0,3.0,1.0,5.0,0.0,0.0,5.0,1.0,phase_2,stop,200.0,250.0,4.0,,,,,,,,,blue,hexagon
0.0,6.0,2.0,1.0,6.0,0.0,0.0,5.0,1.0,phase_2,stop,250.0,250.0,4.0,,,,,,,,,cyan,diamond
0.0,1.0,1.0,0.0,5.0,5.0,647.3103600001195,5.0,1.0,phase_2,go,250.0,300.0,1.0,,,,,,,,,yellow,circle
0.0,4.0,4.0,0.0,5.0,5.0,376.4135679998617,5.0,1.0,phase_2,go,250.0,300.0,1.0,,,,,,,,,white,square
0.0,5.0,1.0,1.0,5.0,0.0,0.0,5.0,1.0,phase_2,stop,250.0,300.0,4.0,,,,,,,,,magenta,triangle
0.0,1.0,1.0,0.0,5.0,5.0,571.9318679998651,5.0,1.0,phase_2,go,300.0,300.0,1.0,,,,,,,,,yellow,circle
0.0,8.0,4.0,1.0,5.0,5.0,685.2861859997574,5.0,1.0,phase_2,go,300.0,300.0,1.0,,,,,,,,,orange,I
0.0,8.0,4.0,1.0,5.0,5.0,604.8393890000625,5.0,1.0,phase_2,go,300.0,300.0,1.0,,,,,,,,,orange,I
0.0,4.0,4.0,0.0,6.0,6.0,524.1293419999238,5.0,1.0,phase_2,go,300.0,300.0,1.0,,,,,,,,,white,square
0.0,8.0,4.0,1.0,6.0,0.0,0.0,5.0,1.0,phase_2,stop,300.0,300.0,4.0,,,,,,,,,orange,I
0.0,7.0,3.0,1.0,6.0,6.0,618.9339540001129,5.0,1.0,phase_2,go,300.0,350.0,1.0,,,,,,,,,blue,hexagon
0.0,8.0,4.0,1.0,6.0,6.0,502.98863100033486,5.0,1.0,phase_2,go,300.0,350.0,1.0,,,,,,,,,orange,I
0.0,1.0,1.0,0.0,6.0,6.0,691.723674000059,5.0,1.0,phase_2,go,300.0,350.0,1.0,,,,,,,,,yellow,circle
0.0,2.0,2.0,0.0,6.0,6.0,593.7668209999174,5.0,1.0,phase_2,go,300.0,350.0,1.0,,,,,,,,,green,cross
0.0,5.0,1.0,1.0,6.0,0.0,0.0,5.0,1.0,phase_2,stop,300.0,350.0,4.0,,,,,,,,,magenta,triangle
0.0,1.0,1.0,0.0,5.0,5.0,551.9649349998872,5.0,1.0,phase_2,go,300.0,400.0,1.0,,,,,,,,,yellow,circle
0.0,7.0,3.0,1.0,5.0,5.0,599.1232790001959,5.0,1.0,phase_2,go,300.0,400.0,1.0,,,,,,,,,blue,hexagon
0.0,6.0,2.0,1.0,5.0,0.0,0.0,5.0,1.0,phase_2,stop,300.0,400.0,4.0,,,,,,,,,cyan,diamond
0.0,1.0,1.0,0.0,5.0,5.0,564.6717260001424,5.0,1.0,phase_2,go,350.0,400.0,1.0,,,,,,,,,yellow,circle
0.0,1.0,1.0,0.0,5.0,5.0,391.5250719996948,5.0,1.0,phase_2,go,350.0,400.0,1.0,,,,,,,,,yellow,circle
0.0,3.0,3.0,0.0,6.0,6.0,467.6091609999275,5.0,1.0,phase_2,go,350.0,400.0,1.0,,,,,,,,,gray,flipped triangle
0.0,3.0,3.0,0.0,6.0,6.0,392.5589189998391,6.0,1.0,phase_2,go,350.0,400.0,1.0,,,,,,,,,gray,flipped triangle
0.0,7.0,3.0,1.0,6.0,6.0,526.3195269999414,6.0,1.0,phase_2,stop,350.0,400.0,3.0,,,,,,,,,blue,hexagon
0.0,2.0,2.0,0.0,5.0,5.0,527.2389630004,6.0,1.0,phase_2,go,350.0,350.0,1.0,,,,,,,,,green,cross
0.0,3.0,3.0,0.0,5.0,5.0,396.0490370000116,6.0,1.0,phase_2,go,350.0,350.0,1.0,,,,,,,,,gray,flipped triangle
0.0,5.0,1.0,1.0,6.0,6.0,325.9934630000316,6.0,1.0,phase_2,stop,350.0,350.0,3.0,,,,,,,,,magenta,triangle
0.0,2.0,2.0,0.0,5.0,5.0,603.1726979999803,6.0,1.0,phase_2,go,350.0,300.0,1.0,,,,,,,,,green,cross
0.0,5.0,1.0,1.0,5.0,5.0,388.2090950000929,6.0,1.0,phase_2,stop,350.0,300.0,3.0,,,,,,,,,magenta,triangle
0.0,2.0,2.0,0.0,6.0,6.0,704.5401420000417,6.0,1.0,phase_2,go,300.0,300.0,1.0,,,,,,,,,green,cross
0.0,2.0,2.0,0.0,6.0,6.0,545.6222509997133,6.0,1.0,phase_2,go,300.0,300.0,1.0,,,,,,,,,green,cross
0.0,8.0,4.0,1.0,6.0,0.0,0.0,6.0,1.0,phase_2,stop,300.0,300.0,4.0,,,,,,,,,orange,I
0.0,1.0,1.0,0.0,5.0,5.0,647.3277310001322,6.0,1.0,phase_2,go,300.0,350.0,1.0,,,,,,,,,yellow,circle
0.0,3.0,3.0,0.0,6.0,6.0,580.1949689998764,6.0,1.0,phase_2,go,300.0,350.0,1.0,,,,,,,,,gray,flipped triangle
0.0,3.0,3.0,0.0,5.0,5.0,402.5011270000505,6.0,1.0,phase_2,go,300.0,350.0,1.0,,,,,,,,,gray,flipped triangle
0.0,6.0,2.0,1.0,6.0,6.0,464.5720630001051,6.0,1.0,phase_2,stop,300.0,350.0,3.0,,,,,,,,,cyan,diamond
0.0,4.0,4.0,0.0,5.0,5.0,307.6312469997901,6.0,1.0,phase_2,go,300.0,300.0,1.0,,,,,,,,,white,square
0.0,5.0,1.0,1.0,5.0,5.0,412.0828519999122,6.0,1.0,phase_2,stop,300.0,300.0,3.0,,,,,,,,,magenta,triangle
0.0,7.0,3.0,1.0,6.0,0.0,0.0,6.0,1.0,phase_2,stop,250.0,300.0,4.0,,,,,,,,,blue,hexagon
0.0,2.0,2.0,0.0,6.0,6.0,587.5757109997721,6.0,1.0,phase_2,go,250.0,350.0,1.0,,,,,,,,,green,cross
0.0,6.0,2.0,1.0,6.0,0.0,0.0,6.0,1.0,phase_2,stop,250.0,350.0,4.0,,,,,,,,,cyan,diamond
0.0,3.0,3.0,0.0,5.0,5.0,664.1413990000729,6.0,1.0,phase_2,go,250.0,400.0,1.0,,,,,,,,,gray,flipped triangle
0.0,4.0,4.0,0.0,6.0,6.0,700.0921499998185,6.0,1.0,phase_2,go,250.0,400.0,1.0,,,,,,,,,white,square
0.0,4.0,4.0,0.0,6.0,6.0,410.6918810002753,6.0,1.0,phase_2,go,250.0,400.0,1.0,,,,,,,,,white,square
0.0,8.0,4.0,1.0,5.0,0.0,0.0,6.0,1.0,phase_2,stop,250.0,400.0,4.0,,,,,,,,,orange,I
0.0,4.0,4.0,0.0,5.0,5.0,536.8203530001665,6.0,1.0,phase_2,go,300.0,400.0,1.0,,,,,,,,,white,square
0.0,4.0,4.0,0.0,5.0,5.0,339.9656759997924,6.0,1.0,phase_2,go,300.0,400.0,1.0,,,,,,,,,white,square
0.0,8.0,4.0,1.0,6.0,6.0,535.7709959998829,6.0,1.0,phase_2,stop,300.0,400.0,3.0,,,,,,,,,orange,I
0.0,3.0,3.0,0.0,6.0,6.0,585.9335610002745,6.0,1.0,phase_2,go,300.0,350.0,1.0,,,,,,,,,gray,flipped triangle
0.0,4.0,4.0,0.0,5.0,5.0,564.4224970001233,6.0,1.0,phase_2,go,300.0,350.0,1.0,,,,,,,,,white,square
0.0,4.0,4.0,0.0,5.0,5.0,334.5690460000696,6.0,1.0,phase_2,go,300.0,350.0,1.0,,,,,,,,,white,square
0.0,1.0,1.0,0.0,6.0,6.0,567.3804070002006,6.0,1.0,phase_2,go,300.0,350.0,1.0,,,,,,,,,yellow,circle
0.0,8.0,4.0,1.0,5.0,5.0,422.1516190000329,6.0,1.0,phase_2,stop,300.0,350.0,3.0,,,,,,,,,orange,I
0.0,8.0,4.0,1.0,6.0,6.0,555.2851560000818,6.0,1.0,phase_2,go,250.0,350.0,1.0,,,,,,,,,orange,I
0.0,3.0,3.0,0.0,6.0,6.0,491.735117999724,6.0,1.0,phase_2,go,250.0,350.0,1.0,,,,,,,,,gray,flipped triangle
0.0,5.0,1.0,1.0,6.0,0.0,0.0,6.0,1.0,phase_2,stop,250.0,350.0,4.0,,,,,,,,,magenta,triangle
0.0,6.0,2.0,1.0,6.0,6.0,557.4767490002159,6.0,1.0,phase_2,go,250.0,400.0,1.0,,,,,,,,,cyan,diamond
0.0,7.0,3.0,1.0,5.0,0.0,0.0,6.0,1.0,phase_2,stop,250.0,400.0,4.0,,,,,,,,,blue,hexagon
0.0,4.0,4.0,0.0,5.0,5.0,398.406729999806,7.0,1.0,phase_2,go,300.0,400.0,1.0,,,,,,,,,white,square
0.0,1.0,1.0,0.0,6.0,6.0,519.7210690002976,7.0,1.0,phase_2,go,300.0,400.0,1.0,,,,,,,,,yellow,circle
0.0,6.0,2.0,1.0,5.0,0.0,0.0,7.0,1.0,phase_2,stop,300.0,400.0,4.0,,,,,,,,,cyan,diamond
0.0,4.0,4.0,0.0,6.0,6.0,441.3399259997277,7.0,1.0,phase_2,go,350.0,400.0,1.0,,,,,,,,,white,square
0.0,3.0,3.0,0.0,5.0,5.0,677.8296450002017,7.0,1.0,phase_2,go,350.0,400.0,1.0,,,,,,,,,gray,flipped triangle
0.0,8.0,4.0,1.0,6.0,0.0,0.0,7.0,1.0,phase_2,stop,350.0,400.0,4.0,,,,,,,,,orange,I
0.0,8.0,4.0,1.0,5.0,0.0,0.0,7.0,1.0,phase_2,stop,350.0,450.0,4.0,,,,,,,,,orange,I
0.0,4.0,4.0,0.0,5.0,5.0,493.4660600001734,7.0,1.0,phase_2,go,400.0,450.0,1.0,,,,,,,,,white,square
0.0,1.0,1.0,0.0,5.0,5.0,564.8451299998669,7.0,1.0,phase_2,go,400.0,450.0,1.0,,,,,,,,,yellow,circle
0.0,3.0,3.0,0.0,5.0,5.0,684.227374999864,7.0,1.0,phase_2,go,400.0,450.0,1.0,,,,,,,,,gray,flipped triangle
0.0,4.0,4.0,0.0,5.0,5.0,744.3397020001612,7.0,1.0,phase_2,go,400.0,450.0,1.0,,,,,,,,,white,square
0.0,1.0,1.0,0.0,5.0,5.0,639.4771669997681,7.0,1.0,phase_2,go,400.0,450.0,1.0,,,,,,,,,yellow,circle
0.0,6.0,2.0,1.0,6.0,6.0,542.711870000403,7.0,1.0,phase_2,stop,400.0,450.0,3.0,,,,,,,,,cyan,diamond
0.0,2.0,2.0,0.0,6.0,6.0,697.4857229997724,7.0,1.0,phase_2,go,400.0,400.0,1.0,,,,,,,,,green,cross
0.0,7.0,3.0,1.0,6.0,0.0,0.0,7.0,1.0,phase_2,stop,400.0,400.0,4.0,,,,,,,,,blue,hexagon
0.0,7.0,3.0,1.0,5.0,0.0,0.0,7.0,1.0,phase_2,stop,400.0,450.0,4.0,,,,,,,,,blue,hexagon
0.0,3.0,3.0,0.0,6.0,6.0,831.0392060002414,7.0,1.0,phase_2,go,450.0,450.0,1.0,,,,,,,,,gray,flipped triangle
0.0,5.0,1.0,1.0,5.0,5.0,709.6753050000189,7.0,1.0,phase_2,go,450.0,450.0,1.0,,,,,,,,,magenta,triangle
0.0,2.0,2.0,0.0,5.0,5.0,494.0177650000805,7.0,1.0,phase_2,go,450.0,450.0,1.0,,,,,,,,,green,cross
0.0,7.0,3.0,1.0,6.0,0.0,0.0,7.0,1.0,phase_2,stop,450.0,450.0,4.0,,,,,,,,,blue,hexagon
0.0,1.0,1.0,0.0,5.0,5.0,653.2102350001878,7.0,1.0,phase_2,go,450.0,500.0,1.0,,,,,,,,,yellow,circle
0.0,5.0,1.0,1.0,6.0,0.0,0.0,7.0,1.0,phase_2,stop,450.0,500.0,4.0,,,,,,,,,magenta,triangle
0.0,2.0,2.0,0.0,6.0,6.0,706.7605329998514,7.0,1.0,phase_2,go,450.0,550.0,1.0,,,,,,,,,green,cross
0.0,2.0,2.0,0.0,6.0,6.0,525.0452340001175,7.0,1.0,phase_2,go,450.0,550.0,1.0,,,,,,,,,green,cross
0.0,1.0,1.0,0.0,5.0,5.0,363.8118660001055,7.0,1.0,phase_2,go,450.0,550.0,1.0,,,,,,,,,yellow,circle
0.0,4.0,4.0,0.0,6.0,6.0,555.3511030002483,7.0,1.0,phase_2,go,450.0,550.0,1.0,,,,,,,,,white,square
0.0,8.0,4.0,1.0,5.0,0.0,0.0,7.0,1.0,phase_2,stop,450.0,550.0,4.0,,,,,,,,,orange,I
0.0,4.0,4.0,0.0,5.0,5.0,569.5155230000637,7.0,1.0,phase_2,go,500.0,550.0,1.0,,,,,,,,,white,square
0.0,6.0,2.0,1.0,6.0,6.0,390.4187129996899,7.0,1.0,phase_2,go,500.0,550.0,1.0,,,,,,,,,cyan,diamond
0.0,1.0,1.0,0.0,6.0,6.0,581.6611979998925,7.0,1.0,phase_2,go,500.0,550.0,1.0,,,,,,,,,yellow,circle
0.0,7.0,3.0,1.0,5.0,5.0,639.0443029999915,7.0,1.0,phase_2,stop,500.0,550.0,3.0,,,,,,,,,blue,hexagon
0.0,6.0,2.0,1.0,5.0,5.0,705.6891369998084,7.0,1.0,phase_2,go,450.0,550.0,1.0,,,,,,,,,cyan,diamond
0.0,4.0,4.0,0.0,5.0,5.0,371.8515400000797,7.0,1.0,phase_2,go,450.0,550.0,1.0,,,,,,,,,white,square
0.0,7.0,3.0,1.0,6.0,6.0,418.0437680001887,7.0,1.0,phase_2,go,450.0,550.0,1.0,,,,,,,,,blue,hexagon
0.0,7.0,3.0,1.0,5.0,0.0,0.0,7.0,1.0,phase_2,stop,450.0,550.0,4.0,,,,,,,,,blue,hexagon
0.0,4.0,4.0,0.0,6.0,6.0,699.2322999999487,7.0,1.0,phase_2,go,500.0,550.0,1.0,,,,,,,,,white,square
0.0,5.0,1.0,1.0,6.0,6.0,818.4405250003692,8.0,1.0,phase_2,go,500.0,550.0,1.0,,,,,,,,,magenta,triangle
0.0,8.0,4.0,1.0,5.0,5.0,342.5953270002537,8.0,1.0,phase_2,stop,500.0,550.0,3.0,,,,,,,,,orange,I
0.0,7.0,3.0,1.0,5.0,5.0,628.8159979999364,8.0,1.0,phase_2,stop,450.0,550.0,3.0,,,,,,,,,blue,hexagon
0.0,7.0,3.0,1.0,5.0,0.0,0.0,8.0,1.0,phase_2,stop,400.0,550.0,4.0,,,,,,,,,blue,hexagon
0.0,2.0,2.0,0.0,5.0,5.0,817.6251770000817,8.0,1.0,phase_2,go,450.0,550.0,1.0,,,,,,,,,green,cross
0.0,8.0,4.0,1.0,5.0,0.0,0.0,8.0,1.0,phase_2,stop,450.0,550.0,4.0,,,,,,,,,orange,I
0.0,5.0,1.0,1.0,5.0,5.0,1277.4799290000374,8.0,1.0,phase_2,go,500.0,550.0,1.0,,,,,,,,,magenta,triangle
0.0,2.0,2.0,0.0,6.0,6.0,357.1661969999695,8.0,1.0,phase_2,go,500.0,550.0,1.0,,,,,,,,,green,cross
0.0,4.0,4.0,0.0,6.0,6.0,505.34034000020256,8.0,1.0,phase_2,go,500.0,550.0,1.0,,,,,,,,,white,square
0.0,6.0,2.0,1.0,5.0,5.0,392.8931400000692,8.0,1.0,phase_2,stop,500.0,550.0,3.0,,,,,,,,,cyan,diamond
0.0,2.0,2.0,0.0,5.0,5.0,576.4790110001741,8.0,1.0,phase_2,go,450.0,550.0,1.0,,,,,,,,,green,cross
0.0,1.0,1.0,0.0,5.0,5.0,759.6309240002483,8.0,1.0,phase_2,go,450.0,550.0,1.0,,,,,,,,,yellow,circle
0.0,5.0,1.0,1.0,6.0,6.0,588.3542460001081,8.0,1.0,phase_2,stop,450.0,550.0,3.0,,,,,,,,,magenta,triangle
0.0,7.0,3.0,1.0,6.0,6.0,685.0007330003791,8.0,1.0,phase_2,go,450.0,500.0,1.0,,,,,,,,,blue,hexagon
0.0,2.0,2.0,0.0,5.0,5.0,545.8239790000334,8.0,1.0,phase_2,go,450.0,500.0,1.0,,,,,,,,,green,cross
0.0,5.0,1.0,1.0,5.0,5.0,633.7989109997579,8.0,1.0,phase_2,stop,450.0,500.0,3.0,,,,,,,,,magenta,triangle
0.0,8.0,4.0,1.0,5.0,0.0,0.0,8.0,1.0,phase_2,stop,400.0,500.0,4.0,,,,,,,,,orange,I
0.0,8.0,4.0,1.0,6.0,6.0,680.5625720003263,8.0,1.0,phase_2,stop,450.0,500.0,3.0,,,,,,,,,orange,I
0.0,6.0,2.0,1.0,5.0,5.0,586.9659560003129,8.0,1.0,phase_2,go,450.0,450.0,1.0,,,,,,,,,cyan,diamond
0.0,6.0,2.0,1.0,5.0,5.0,644.7527830000581,8.0,1.0,phase_2,go,450.0,450.0,1.0,,,,,,,,,cyan,diamond
0.0,7.0,3.0,1.0,6.0,6.0,831.3579050000044,8.0,1.0,phase_2,go,450.0,450.0,1.0,,,,,,,,,blue,hexagon
0.0,6.0,2.0,1.0,5.0,0.0,0.0,8.0,1.0,phase_2,stop,450.0,450.0,4.0,,,,,,,,,cyan,diamond
0.0,5.0,1.0,1.0,6.0,0.0,0.0,8.0,1.0,phase_2,stop,500.0,450.0,4.0,,,,,,,,,magenta,triangle
0.0,7.0,3.0,1.0,5.0,0.0,0.0,8.0,1.0,phase_2,stop,500.0,500.0,4.0,,,,,,,,,blue,hexagon
0.0,4.0,4.0,0.0,6.0,6.0,710.9905909996996,8.0,1.0,phase_2,go,550.0,500.0,1.0,,,,,,,,,white,square
0.0,8.0,4.0,1.0,5.0,0.0,0.0,8.0,1.0,phase_2,stop,550.0,500.0,4.0,,,,,,,,,orange,I
0.0,2.0,2.0,0.0,5.0,5.0,762.8883720003614,8.0,1.0,phase_2,go,600.0,500.0,1.0,,,,,,,,,green,cross
0.0,7.0,3.0,1.0,5.0,0.0,0.0,8.0,1.0,phase_2,stop,600.0,500.0,4.0,,,,,,,,,blue,hexagon
0.0,5.0,1.0,1.0,5.0,0.0,0.0,8.0,1.0,phase_2,stop,650.0,500.0,4.0,,,,,,,,,magenta,triangle
0.0,1.0,1.0,0.0,5.0,5.0,826.353177999863,8.0,1.0,phase_2,go,700.0,500.0,1.0,,,,,,,,,yellow,circle
0.0,3.0,3.0,0.0,6.0,6.0,737.9913140002827,8.0,1.0,phase_2,go,700.0,500.0,1.0,,,,,,,,,gray,flipped triangle
0.0,5.0,1.0,1.0,6.0,0.0,0.0,8.0,1.0,phase_2,stop,700.0,500.0,4.0,,,,,,,,,magenta,triangle
0.0,2.0,2.0,0.0,5.0,5.0,780.3863880003519,8.0,1.0,phase_2,go,700.0,550.0,1.0,,,,,,,,,green,cross
0.0,5.0,1.0,1.0,5.0,0.0,0.0,8.0,1.0,phase_2,stop,700.0,550.0,4.0,,,,,,,,,magenta,triangle
0.0,2.0,2.0,0.0,6.0,6.0,715.1537220006503,8.0,1.0,phase_2,go,750.0,550.0,1.0,,,,,,,,,green,cross
0.0,1.0,1.0,0.0,6.0,6.0,609.0678020000269,8.0,1.0,phase_2,go,750.0,550.0,1.0,,,,,,,,,yellow,circle
0.0,2.0,2.0,0.0,7.0,5.0,1651.8757699996058,1.0,1.0,phase_3,,,,,102.0,3.0,204.0,34.0,136.0,68.0,102.0,170.0,green,cross
0.0,3.0,3.0,0.0,7.0,2.0,1180.1681169999938,1.0,1.0,phase_3,,,,,204.0,6.0,68.0,204.0,102.0,34.0,170.0,136.0,gray,flipped triangle
0.0,7.0,3.0,1.0,7.0,3.0,1834.2494720000104,1.0,1.0,phase_3,,,,,204.0,6.0,136.0,170.0,204.0,34.0,102.0,68.0,blue,hexagon
0.0,2.0,2.0,0.0,7.0,2.0,870.9685649992025,1.0,1.0,phase_3,,,,,132.0,3.0,88.0,132.0,176.0,44.0,264.0,220.0,green,cross
0.0,8.0,4.0,1.0,7.0,1.0,2843.8595710003938,1.0,1.0,phase_3,,,,,102.0,3.0,102.0,170.0,136.0,68.0,204.0,34.0,orange,I
0.0,2.0,2.0,0.0,7.0,1.0,1826.914124000723,1.0,1.0,phase_3,,,,,147.0,3.0,147.0,49.0,196.0,98.0,245.0,294.0,green,cross
0.0,5.0,1.0,1.0,7.0,1.0,2665.8429199997045,1.0,1.0,phase_3,,,,,220.0,5.0,220.0,264.0,132.0,44.0,88.0,176.0,magenta,triangle
0.0,4.0,4.0,0.0,7.0,5.0,948.5316299997066,1.0,1.0,phase_3,,,,,245.0,5.0,294.0,196.0,49.0,147.0,245.0,98.0,white,square
0.0,1.0,1.0,0.0,7.0,2.0,1353.4269639994818,1.0,1.0,phase_3,,,,,132.0,3.0,176.0,132.0,220.0,44.0,264.0,88.0,yellow,circle
0.0,6.0,2.0,1.0,7.0,6.0,2132.891178999671,1.0,1.0,phase_3,,,,,216.0,4.0,54.0,108.0,270.0,324.0,162.0,216.0,cyan,diamond
0.0,8.0,4.0,1.0,7.0,2.0,2346.7972709995597,1.0,1.0,phase_3,,,,,162.0,3.0,216.0,162.0,54.0,324.0,108.0,270.0,orange,I
0.0,2.0,2.0,0.0,7.0,5.0,2789.2407380004443,1.0,1.0,phase_3,,,,,324.0,6.0,54.0,162.0,270.0,108.0,324.0,216.0,green,cross
0.0,7.0,3.0,1.0,7.0,1.0,1027.330823999364,1.0,1.0,phase_3,,,,,49.0,1.0,49.0,98.0,196.0,245.0,147.0,294.0,blue,hexagon
0.0,5.0,1.0,1.0,7.0,2.0,981.2924679999924,1.0,1.0,phase_3,,,,,78.0,2.0,234.0,78.0,117.0,195.0,156.0,39.0,magenta,triangle
0.0,1.0,1.0,0.0,7.0,2.0,2228.4450779998224,1.0,1.0,phase_3,,,,,68.0,2.0,102.0,68.0,136.0,204.0,34.0,170.0,yellow,circle
0.0,5.0,1.0,1.0,7.0,5.0,1189.713243999904,1.0,1.0,phase_3,,,,,68.0,2.0,170.0,136.0,102.0,34.0,68.0,204.0,magenta,triangle
0.0,8.0,4.0,1.0,7.0,4.0,1032.223146999968,1.0,1.0,phase_3,,,,,132.0,3.0,220.0,264.0,44.0,132.0,88.0,176.0,orange,I
0.0,8.0,4.0,1.0,7.0,4.0,704.3215339999733,1.0,1.0,phase_3,,,,,132.0,3.0,88.0,264.0,220.0,132.0,176.0,44.0,orange,I
0.0,6.0,2.0,1.0,7.0,2.0,2021.824816999469,1.0,1.0,phase_3,,,,,88.0,2.0,220.0,88.0,264.0,132.0,44.0,176.0,cyan,diamond
0.0,5.0,1.0,1.0,7.0,1.0,2105.234565000501,1.0,1.0,phase_3,,,,,49.0,1.0,49.0,294.0,245.0,98.0,196.0,147.0,magenta,triangle
0.0,1.0,1.0,0.0,7.0,2.0,650.6548959996508,2.0,1.0,phase_3,,,,,102.0,3.0,204.0,102.0,34.0,170.0,136.0,68.0,yellow,circle
0.0,1.0,1.0,0.0,7.0,2.0,1943.944111999372,2.0,1.0,phase_3,,,,,147.0,3.0,196.0,147.0,98.0,245.0,49.0,294.0,yellow,circle
0.0,1.0,1.0,0.0,7.0,4.0,1888.5206400000245,2.0,1.0,phase_3,,,,,156.0,4.0,78.0,234.0,195.0,156.0,39.0,117.0,yellow,circle
0.0,8.0,4.0,1.0,7.0,1.0,897.1207610002239,2.0,1.0,phase_3,,,,,54.0,1.0,54.0,162.0,324.0,108.0,270.0,216.0,orange,I
0.0,8.0,4.0,1.0,7.0,3.0,1983.986513999298,2.0,1.0,phase_3,,,,,78.0,2.0,234.0,156.0,78.0,39.0,117.0,195.0,orange,I
0.0,4.0,4.0,0.0,7.0,6.0,1141.513132,2.0,1.0,phase_3,,,,,324.0,6.0,108.0,54.0,216.0,162.0,270.0,324.0,white,square
0.0,3.0,3.0,0.0,7.0,5.0,1807.0284790001097,2.0,1.0,phase_3,,,,,234.0,6.0,156.0,78.0,39.0,195.0,234.0,117.0,gray,flipped triangle
0.0,4.0,4.0,0.0,7.0,1.0,1565.0102719991992,2.0,1.0,phase_3,,,,,136.0,4.0,136.0,34.0,170.0,102.0,68.0,204.0,white,square
0.0,3.0,3.0,0.0,7.0,4.0,1432.511572000294,2.0,1.0,phase_3,,,,,264.0,6.0,88.0,132.0,220.0,264.0,176.0,44.0,gray,flipped triangle
0.0,7.0,3.0,1.0,7.0,1.0,1744.2800489998262,2.0,1.0,phase_3,,,,,176.0,4.0,176.0,44.0,264.0,220.0,132.0,88.0,blue,hexagon
0.0,7.0,3.0,1.0,7.0,2.0,2128.3481130003565,2.0,1.0,phase_3,,,,,54.0,1.0,216.0,54.0,270.0,108.0,324.0,162.0,blue,hexagon
0.0,2.0,2.0,0.0,7.0,6.0,564.6596630003842,2.0,1.0,phase_3,,,,,294.0,6.0,245.0,147.0,98.0,49.0,196.0,294.0,green,cross
0.0,3.0,3.0,0.0,7.0,2.0,1326.0225740004898,2.0,1.0,phase_3,,,,,204.0,6.0,34.0,204.0,170.0,68.0,102.0,136.0,gray,flipped triangle
0.0,3.0,3.0,0.0,7.0,5.0,1750.561406000088,2.0,1.0,phase_3,,,,,147.0,3.0,245.0,196.0,49.0,294.0,147.0,98.0,gray,flipped triangle
0.0,3.0,3.0,0.0,7.0,2.0,2851.149869999972,2.0,1.0,phase_3,,,,,324.0,6.0,54.0,324.0,108.0,162.0,216.0,270.0,gray,flipped triangle
0.0,5.0,1.0,1.0,7.0,1.0,2245.8887880002294,2.0,1.0,phase_3,,,,,88.0,2.0,88.0,264.0,220.0,44.0,132.0,176.0,magenta,triangle
0.0,7.0,3.0,1.0,7.0,6.0,2090.5130900000586,2.0,1.0,phase_3,,,,,34.0,1.0,68.0,136.0,170.0,102.0,204.0,34.0,blue,hexagon
0.0,5.0,1.0,1.0,7.0,3.0,3997.428839999884,2.0,1.0,phase_3,,,,,170.0,5.0,136.0,68.0,170.0,34.0,102.0,204.0,magenta,triangle
0.0,6.0,2.0,1.0,7.0,5.0,1929.336793999937,2.0,1.0,phase_3,,,,,102.0,3.0,34.0,136.0,204.0,68.0,102.0,170.0,cyan,diamond
0.0,6.0,2.0,1.0,7.0,3.0,1989.0140930001508,2.0,1.0,phase_3,,,,,216.0,4.0,108.0,54.0,216.0,324.0,270.0,162.0,cyan,diamond
0.0,7.0,3.0,1.0,7.0,3.0,979.6581740001784,3.0,1.0,phase_3,,,,,98.0,2.0,147.0,245.0,98.0,294.0,49.0,196.0,blue,hexagon
0.0,4.0,4.0,0.0,7.0,2.0,792.6668079999217,3.0,1.0,phase_3,,,,,132.0,3.0,264.0,132.0,176.0,220.0,88.0,44.0,white,square
0.0,5.0,1.0,1.0,7.0,1.0,1685.7134800002314,3.0,1.0,phase_3,,,,,78.0,2.0,78.0,117.0,39.0,234.0,195.0,156.0,magenta,triangle
0.0,5.0,1.0,1.0,7.0,1.0,829.691511999954,3.0,1.0,phase_3,,,,,49.0,1.0,49.0,196.0,98.0,245.0,294.0,147.0,magenta,triangle
0.0,2.0,2.0,0.0,7.0,5.0,1541.560349000065,3.0,1.0,phase_3,,,,,44.0,1.0,176.0,88.0,264.0,220.0,44.0,132.0,green,cross
0.0,4.0,4.0,0.0,7.0,4.0,821.6453250006452,3.0,1.0,phase_3,,,,,156.0,4.0,195.0,39.0,78.0,156.0,117.0,234.0,white,square
0.0,3.0,3.0,0.0,7.0,6.0,1703.3884729999045,3.0,1.0,phase_3,,,,,216.0,4.0,108.0,54.0,270.0,324.0,162.0,216.0,gray,flipped triangle
0.0,1.0,1.0,0.0,7.0,5.0,1524.487453999427,3.0,1.0,phase_3,,,,,162.0,3.0,108.0,216.0,270.0,324.0,162.0,54.0,yellow,circle
0.0,4.0,4.0,0.0,7.0,5.0,1169.6486549999463,3.0,1.0,phase_3,,,,,176.0,4.0,88.0,132.0,220.0,44.0,176.0,264.0,white,square
0.0,8.0,4.0,1.0,7.0,5.0,1560.381641999811,3.0,1.0,phase_3,,,,,147.0,3.0,196.0,294.0,245.0,49.0,147.0,98.0,orange,I
0.0,4.0,4.0,0.0,7.0,3.0,1560.6695460000992,3.0,1.0,phase_3,,,,,156.0,4.0,117.0,234.0,156.0,195.0,39.0,78.0,white,square
0.0,6.0,2.0,1.0,7.0,2.0,1414.6530870002607,3.0,1.0,phase_3,,,,,147.0,3.0,98.0,147.0,245.0,49.0,196.0,294.0,cyan,diamond
0.0,7.0,3.0,1.0,7.0,6.0,678.7862270002734,3.0,1.0,phase_3,,,,,162.0,3.0,216.0,108.0,54.0,270.0,324.0,162.0,blue,hexagon
0.0,5.0,1.0,1.0,7.0,2.0,1176.08062599993,3.0,1.0,phase_3,,,,,162.0,3.0,54.0,162.0,108.0,270.0,324.0,216.0,magenta,triangle
0.0,4.0,4.0,0.0,7.0,2.0,1930.0548840001284,3.0,1.0,phase_3,,,,,136.0,4.0,170.0,136.0,68.0,204.0,34.0,102.0,white,square
0.0,2.0,2.0,0.0,7.0,5.0,1598.1557489994884,3.0,1.0,phase_3,,,,,117.0,3.0,195.0,39.0,156.0,78.0,117.0,234.0,green,cross
0.0,6.0,2.0,1.0,7.0,4.0,1051.0723620000135,3.0,1.0,phase_3,,,,,136.0,4.0,204.0,68.0,102.0,136.0,170.0,34.0,cyan,diamond
0.0,3.0,3.0,0.0,7.0,5.0,1178.2732729998315,3.0,1.0,phase_3,,,,,195.0,5.0,117.0,234.0,39.0,78.0,195.0,156.0,gray,flipped triangle
0.0,6.0,2.0,1.0,7.0,4.0,1012.3499020000963,3.0,1.0,phase_3,,,,,132.0,3.0,264.0,176.0,220.0,132.0,44.0,88.0,cyan,diamond
0.0,2.0,2.0,0.0,7.0,2.0,1837.5450880002973,3.0,1.0,phase_3,,,,,78.0,2.0,195.0,78.0,234.0,156.0,117.0,39.0,green,cross
0.0,7.0,3.0,1.0,7.0,3.0,1633.9812169999277,4.0,1.0,phase_3,,,,,234.0,6.0,195.0,78.0,234.0,156.0,117.0,39.0,blue,hexagon
0.0,1.0,1.0,0.0,7.0,4.0,2044.9407360001715,4.0,1.0,phase_3,,,,,220.0,5.0,88.0,176.0,264.0,220.0,132.0,44.0,yellow,circle
0.0,3.0,3.0,0.0,7.0,1.0,1831.011825999667,4.0,1.0,phase_3,,,,,264.0,6.0,264.0,220.0,132.0,44.0,88.0,176.0,gray,flipped triangle
0.0,2.0,2.0,0.0,7.0,5.0,791.1106340006882,4.0,1.0,phase_3,,,,,324.0,6.0,162.0,270.0,216.0,54.0,324.0,108.0,green,cross
0.0,1.0,1.0,0.0,7.0,2.0,1030.1685609993,4.0,1.0,phase_3,,,,,162.0,3.0,324.0,162.0,270.0,108.0,54.0,216.0,yellow,circle
0.0,1.0,1.0,0.0,7.0,4.0,767.123372000242,4.0,1.0,phase_3,,,,,147.0,3.0,294.0,49.0,196.0,147.0,245.0,98.0,yellow,circle
0.0,1.0,1.0,0.0,7.0,5.0,614.764588000071,4.0,1.0,phase_3,,,,,117.0,3.0,39.0,78.0,195.0,156.0,117.0,234.0,yellow,circle
0.0,4.0,4.0,0.0,7.0,6.0,753.9833890004957,4.0,1.0,phase_3,,,,,147.0,3.0,294.0,245.0,98.0,49.0,196.0,147.0,white,square
0.0,3.0,3.0,0.0,7.0,2.0,804.2932870002915,4.0,1.0,phase_3,,,,,147.0,3.0,49.0,147.0,98.0,196.0,245.0,294.0,gray,flipped triangle
0.0,5.0,1.0,1.0,7.0,5.0,1673.09251900042,4.0,1.0,phase_3,,,,,216.0,4.0,108.0,54.0,270.0,324.0,216.0,162.0,magenta,triangle
0.0,8.0,4.0,1.0,7.0,3.0,1492.8577950004185,4.0,1.0,phase_3,,,,,78.0,2.0,234.0,156.0,78.0,39.0,195.0,117.0,orange,I
0.0,6.0,2.0,1.0,7.0,5.0,1393.464538999979,4.0,1.0,phase_3,,,,,117.0,3.0,78.0,39.0,156.0,234.0,117.0,195.0,cyan,diamond
0.0,8.0,4.0,1.0,7.0,2.0,968.6966740000572,4.0,1.0,phase_3,,,,,136.0,4.0,170.0,136.0,204.0,34.0,68.0,102.0,orange,I
0.0,8.0,4.0,1.0,7.0,1.0,1625.5137500002093,4.0,1.0,phase_3,,,,,147.0,3.0,147.0,98.0,245.0,49.0,196.0,294.0,orange,I
0.0,6.0,2.0,1.0,7.0,4.0,1028.718753999783,4.0,1.0,phase_3,,,,,39.0,1.0,234.0,78.0,156.0,39.0,195.0,117.0,cyan,diamond
0.0,4.0,4.0,0.0,7.0,3.0,1798.344699000154,4.0,1.0,phase_3,,,,,324.0,6.0,162.0,108.0,324.0,216.0,54.0,270.0,white,square
0.0,7.0,3.0,1.0,7.0,5.0,1376.3542300002882,4.0,1.0,phase_3,,,,,220.0,5.0,44.0,132.0,176.0,88.0,220.0,264.0,blue,hexagon
0.0,6.0,2.0,1.0,7.0,2.0,1453.8614029997916,4.0,1.0,phase_3,,,,,196.0,4.0,49.0,196.0,98.0,245.0,294.0,147.0,cyan,diamond
0.0,7.0,3.0,1.0,7.0,5.0,1808.300704999965,4.0,1.0,phase_3,,,,,195.0,5.0,117.0,234.0,156.0,39.0,195.0,78.0,blue,hexagon
0.0,2.0,2.0,0.0,7.0,5.0,2018.9707110002928,4.0,1.0,phase_3,,,,,136.0,4.0,34.0,204.0,68.0,102.0,136.0,170.0,green,cross
