raw_reward_magnitude,stim_reward,stepwise_reward_magnitude,paired_with_stopping,stim_location,response,reaction_time,block,num_trial_presentations,which_phase,stop_signal_trial_type,left_SSD,right_SSD,accuracy,chosen_bidding_amount,chosen_bidding_level,possible_bid_1,possible_bid_2,possible_bid_3,possible_bid_4,possible_bid_5,possible_bid_6,color_text,shape_text
32.0,5.0,0.5,1.0,2.0,2.0,539.0271769999799,1.0,1.0,phase_1,,,,,,,,,,,,,magenta,diamond
0.0,5.0,0.0,1.0,1.0,1.0,495.5802279998806,1.0,1.0,phase_1,,,,,,,,,,,,,magenta,diamond
98.0,6.0,1.0,1.0,1.0,1.0,622.0195710000098,1.0,1.0,phase_1,,,,,,,,,,,,,green,I
200.0,7.0,2.0,1.0,4.0,4.0,552.965519000054,1.0,1.0,phase_1,,,,,,,,,,,,,cyan,hexagon
0.0,4.0,0.0,0.0,4.0,4.0,457.7788199999304,1.0,1.0,phase_1,,,,,,,,,,,,,orange,cross
63.0,1.0,0.5,0.0,3.0,3.0,440.3811490001317,1.0,1.0,phase_1,,,,,,,,,,,,,blue,flipped triangle
386.0,8.0,4.0,1.0,4.0,4.0,415.7172610000543,1.0,1.0,phase_1,,,,,,,,,,,,,white,circle
0.0,3.0,0.0,0.0,3.0,3.0,415.0114579999808,1.0,1.0,phase_1,,,,,,,,,,,,,yellow,triangle
47.0,1.0,0.5,0.0,1.0,1.0,483.4293809999508,1.0,1.0,phase_1,,,,,,,,,,,,,blue,flipped triangle
0.0,1.0,0.0,0.0,1.0,1.0,480.0627619999886,1.0,1.0,phase_1,,,,,,,,,,,,,blue,flipped triangle
64.0,5.0,0.5,1.0,3.0,3.0,398.3176250001179,1.0,1.0,phase_1,,,,,,,,,,,,,magenta,diamond
83.0,6.0,1.0,1.0,1.0,1.0,378.419249999979,1.0,1.0,phase_1,,,,,,,,,,,,,green,I
0.0,3.0,0.0,0.0,1.0,1.0,441.8412980000994,1.0,1.0,phase_1,,,,,,,,,,,,,yellow,triangle
182.0,7.0,2.0,1.0,2.0,2.0,403.5487300000113,1.0,1.0,phase_1,,,,,,,,,,,,,cyan,hexagon
104.0,6.0,1.0,1.0,4.0,4.0,505.94053999998323,1.0,1.0,phase_1,,,,,,,,,,,,,green,I
209.0,3.0,2.0,0.0,2.0,2.0,346.681824000143,1.0,1.0,phase_1,,,,,,,,,,,,,yellow,triangle
180.0,3.0,2.0,0.0,1.0,1.0,309.8969350000971,1.0,1.0,phase_1,,,,,,,,,,,,,yellow,triangle
31.0,5.0,0.5,1.0,3.0,3.0,439.0135029998419,1.0,1.0,phase_1,,,,,,,,,,,,,magenta,diamond
401.0,4.0,4.0,0.0,3.0,3.0,393.4242190000532,1.0,1.0,phase_1,,,,,,,,,,,,,orange,cross
401.0,4.0,4.0,0.0,4.0,4.0,456.6407890001756,1.0,1.0,phase_1,,,,,,,,,,,,,orange,cross
219.0,7.0,2.0,1.0,4.0,4.0,435.7231699998465,1.0,1.0,phase_1,,,,,,,,,,,,,cyan,hexagon
398.0,8.0,4.0,1.0,2.0,2.0,446.8060840001726,1.0,1.0,phase_1,,,,,,,,,,,,,white,circle
39.0,5.0,0.5,1.0,1.0,1.0,456.8027059999622,1.0,1.0,phase_1,,,,,,,,,,,,,magenta,diamond
84.0,6.0,1.0,1.0,2.0,2.0,458.9992389999224,1.0,1.0,phase_1,,,,,,,,,,,,,green,I
401.0,8.0,4.0,1.0,4.0,4.0,443.6514129999978,1.0,1.0,phase_1,,,,,,,,,,,,,white,circle
200.0,3.0,2.0,0.0,2.0,2.0,457.3569189999489,1.0,1.0,phase_1,,,,,,,,,,,,,yellow,triangle
121.0,2.0,1.0,0.0,3.0,3.0,430.8759479999935,1.0,1.0,phase_1,,,,,,,,,,,,,gray,square
381.0,8.0,4.0,1.0,1.0,1.0,519.1374109999742,1.0,1.0,phase_1,,,,,,,,,,,,,white,circle
74.0,5.0,0.5,1.0,3.0,3.0,515.2874519999386,1.0,1.0,phase_1,,,,,,,,,,,,,magenta,diamond
0.0,3.0,0.0,0.0,1.0,1.0,345.1933650001137,1.0,1.0,phase_1,,,,,,,,,,,,,yellow,triangle
191.0,7.0,2.0,1.0,1.0,1.0,414.3243089999942,1.0,1.0,phase_1,,,,,,,,,,,,,cyan,hexagon
0.0,2.0,0.0,0.0,4.0,4.0,447.4946110001383,1.0,1.0,phase_1,,,,,,,,,,,,,gray,square
61.0,1.0,0.5,0.0,1.0,1.0,533.0056110001351,1.0,1.0,phase_1,,,,,,,,,,,,,blue,flipped triangle
121.0,6.0,1.0,1.0,3.0,3.0,464.34787799989857,1.0,1.0,phase_1,,,,,,,,,,,,,green,I
108.0,6.0,1.0,1.0,2.0,2.0,530.9810720000314,1.0,1.0,phase_1,,,,,,,,,,,,,green,I
384.0,8.0,4.0,1.0,4.0,4.0,525.22405600007,1.0,1.0,phase_1,,,,,,,,,,,,,white,circle
109.0,6.0,1.0,1.0,3.0,3.0,621.6831469998851,1.0,1.0,phase_1,,,,,,,,,,,,,green,I
0.0,4.0,0.0,0.0,2.0,2.0,633.2085950000419,1.0,1.0,phase_1,,,,,,,,,,,,,orange,cross
41.0,5.0,0.5,1.0,4.0,4.0,407.3087130000203,1.0,1.0,phase_1,,,,,,,,,,,,,magenta,diamond
212.0,7.0,2.0,1.0,3.0,3.0,353.4130639998238,1.0,1.0,phase_1,,,,,,,,,,,,,cyan,hexagon
180.0,7.0,2.0,1.0,4.0,4.0,391.319944000088,1.0,1.0,phase_1,,,,,,,,,,,,,cyan,hexagon
0.0,3.0,0.0,0.0,4.0,4.0,384.8877679999987,1.0,1.0,phase_1,,,,,,,,,,,,,yellow,triangle
378.0,8.0,4.0,1.0,3.0,3.0,429.2625049999969,1.0,1.0,phase_1,,,,,,,,,,,,,white,circle
79.0,2.0,1.0,0.0,1.0,1.0,373.8249590001032,1.0,1.0,phase_1,,,,,,,,,,,,,gray,square
103.0,6.0,1.0,1.0,4.0,4.0,299.3147810000209,1.0,1.0,phase_1,,,,,,,,,,,,,green,I
0.0,4.0,0.0,0.0,2.0,2.0,344.8387609998917,1.0,1.0,phase_1,,,,,,,,,,,,,orange,cross
395.0,4.0,4.0,0.0,4.0,4.0,363.0008390000512,1.0,1.0,phase_1,,,,,,,,,,,,,orange,cross
0.0,1.0,0.0,0.0,2.0,2.0,394.0817390000575,1.0,1.0,phase_1,,,,,,,,,,,,,blue,flipped triangle
191.0,3.0,2.0,0.0,4.0,4.0,435.1822880000782,1.0,1.0,phase_1,,,,,,,,,,,,,yellow,triangle
0.0,3.0,0.0,0.0,4.0,4.0,358.6679679999633,1.0,1.0,phase_1,,,,,,,,,,,,,yellow,triangle
392.0,4.0,4.0,0.0,4.0,4.0,362.7394990000994,1.0,1.0,phase_1,,,,,,,,,,,,,orange,cross
71.0,1.0,0.5,0.0,4.0,4.0,317.852326999855,1.0,1.0,phase_1,,,,,,,,,,,,,blue,flipped triangle
392.0,4.0,4.0,0.0,1.0,1.0,355.3783379998094,1.0,1.0,phase_1,,,,,,,,,,,,,orange,cross
0.0,6.0,0.0,1.0,1.0,1.0,316.7520079996393,1.0,1.0,phase_1,,,,,,,,,,,,,green,I
116.0,6.0,1.0,1.0,2.0,2.0,395.4634950000582,1.0,1.0,phase_1,,,,,,,,,,,,,green,I
119.0,2.0,1.0,0.0,2.0,2.0,423.6673629998222,1.0,1.0,phase_1,,,,,,,,,,,,,gray,square
209.0,3.0,2.0,0.0,1.0,1.0,336.5113910003856,1.0,1.0,phase_1,,,,,,,,,,,,,yellow,triangle
98.0,2.0,1.0,0.0,4.0,4.0,371.4030730002378,1.0,1.0,phase_1,,,,,,,,,,,,,gray,square
182.0,3.0,2.0,0.0,4.0,4.0,351.8385970000963,1.0,1.0,phase_1,,,,,,,,,,,,,yellow,triangle
196.0,3.0,2.0,0.0,4.0,4.0,559.4333730000471,1.0,1.0,phase_1,,,,,,,,,,,,,yellow,triangle
93.0,2.0,1.0,0.0,2.0,2.0,342.3930379999547,1.0,1.0,phase_1,,,,,,,,,,,,,gray,square
27.0,1.0,0.5,0.0,2.0,2.0,577.4086559999887,1.0,1.0,phase_1,,,,,,,,,,,,,blue,flipped triangle
98.0,2.0,1.0,0.0,1.0,1.0,501.1774869999499,1.0,1.0,phase_1,,,,,,,,,,,,,gray,square
51.0,5.0,0.5,1.0,3.0,3.0,435.8676990000276,1.0,1.0,phase_1,,,,,,,,,,,,,magenta,diamond
123.0,2.0,1.0,0.0,2.0,2.0,313.7277939999876,1.0,1.0,phase_1,,,,,,,,,,,,,gray,square
0.0,4.0,0.0,0.0,4.0,4.0,323.6584109999967,1.0,1.0,phase_1,,,,,,,,,,,,,orange,cross
54.0,5.0,0.5,1.0,4.0,4.0,375.6277699999373,1.0,1.0,phase_1,,,,,,,,,,,,,magenta,diamond
382.0,4.0,4.0,0.0,3.0,3.0,439.7174309997353,1.0,1.0,phase_1,,,,,,,,,,,,,orange,cross
39.0,1.0,0.5,0.0,1.0,1.0,566.8413389998932,1.0,1.0,phase_1,,,,,,,,,,,,,blue,flipped triangle
405.0,8.0,4.0,1.0,1.0,1.0,529.1641219996563,1.0,1.0,phase_1,,,,,,,,,,,,,white,circle
382.0,8.0,4.0,1.0,1.0,1.0,409.7737540000707,1.0,1.0,phase_1,,,,,,,,,,,,,white,circle
83.0,2.0,1.0,0.0,3.0,3.0,377.5302909998572,1.0,1.0,phase_1,,,,,,,,,,,,,gray,square
412.0,4.0,4.0,0.0,2.0,2.0,436.1062120001406,1.0,1.0,phase_1,,,,,,,,,,,,,orange,cross
418.0,4.0,4.0,0.0,2.0,2.0,386.3900500000454,1.0,1.0,phase_1,,,,,,,,,,,,,orange,cross
204.0,3.0,2.0,0.0,2.0,2.0,336.5024760000779,1.0,1.0,phase_1,,,,,,,,,,,,,yellow,triangle
77.0,6.0,1.0,1.0,2.0,2.0,297.2361090000959,1.0,1.0,phase_1,,,,,,,,,,,,,green,I
0.0,8.0,0.0,1.0,3.0,3.0,319.6063509999476,1.0,1.0,phase_1,,,,,,,,,,,,,white,circle
121.0,6.0,1.0,1.0,3.0,3.0,374.2228920000343,1.0,1.0,phase_1,,,,,,,,,,,,,green,I
199.0,3.0,2.0,0.0,1.0,1.0,330.6764509998174,1.0,1.0,phase_1,,,,,,,,,,,,,yellow,triangle
421.0,8.0,4.0,1.0,2.0,2.0,276.3939909996225,1.0,1.0,phase_1,,,,,,,,,,,,,white,circle
0.0,6.0,0.0,1.0,4.0,4.0,402.013996000278,1.0,1.0,phase_1,,,,,,,,,,,,,green,I
203.0,7.0,2.0,1.0,3.0,3.0,333.5718399998768,1.0,1.0,phase_1,,,,,,,,,,,,,cyan,hexagon
123.0,6.0,1.0,1.0,3.0,3.0,521.2637770000583,1.0,1.0,phase_1,,,,,,,,,,,,,green,I
0.0,6.0,0.0,1.0,3.0,3.0,416.9105080000008,1.0,1.0,phase_1,,,,,,,,,,,,,green,I
45.0,1.0,0.5,0.0,3.0,3.0,359.422264999921,1.0,1.0,phase_1,,,,,,,,,,,,,blue,flipped triangle
0.0,5.0,0.0,1.0,1.0,1.0,393.5214590001124,1.0,1.0,phase_1,,,,,,,,,,,,,magenta,diamond
223.0,7.0,2.0,1.0,1.0,1.0,378.7182969999776,1.0,1.0,phase_1,,,,,,,,,,,,,cyan,hexagon
382.0,8.0,4.0,1.0,3.0,3.0,390.4327510003895,1.0,1.0,phase_1,,,,,,,,,,,,,white,circle
31.0,1.0,0.5,0.0,3.0,3.0,420.3276250000272,1.0,1.0,phase_1,,,,,,,,,,,,,blue,flipped triangle
88.0,2.0,1.0,0.0,4.0,4.0,645.5338259997916,1.0,1.0,phase_1,,,,,,,,,,,,,gray,square
112.0,6.0,1.0,1.0,4.0,4.0,480.6928160001007,1.0,1.0,phase_1,,,,,,,,,,,,,green,I
0.0,2.0,0.0,0.0,2.0,2.0,374.8829730002398,1.0,1.0,phase_1,,,,,,,,,,,,,gray,square
393.0,8.0,4.0,1.0,4.0,4.0,430.4060750000644,1.0,1.0,phase_1,,,,,,,,,,,,,white,circle
32.0,1.0,0.5,0.0,4.0,4.0,405.3167840002061,1.0,1.0,phase_1,,,,,,,,,,,,,blue,flipped triangle
416.0,4.0,4.0,0.0,4.0,4.0,359.1261669998857,1.0,1.0,phase_1,,,,,,,,,,,,,orange,cross
112.0,2.0,1.0,0.0,2.0,2.0,410.7017110000015,1.0,1.0,phase_1,,,,,,,,,,,,,gray,square
91.0,6.0,1.0,1.0,2.0,2.0,488.0909329999667,1.0,1.0,phase_1,,,,,,,,,,,,,green,I
0.0,7.0,0.0,1.0,2.0,2.0,667.9952559998128,1.0,1.0,phase_1,,,,,,,,,,,,,cyan,hexagon
41.0,5.0,0.5,1.0,4.0,4.0,385.446679999859,1.0,1.0,phase_1,,,,,,,,,,,,,magenta,diamond
420.0,8.0,4.0,1.0,1.0,1.0,442.6910699999098,1.0,1.0,phase_1,,,,,,,,,,,,,white,circle
205.0,7.0,2.0,1.0,4.0,4.0,367.6372729996728,2.0,1.0,phase_1,,,,,,,,,,,,,cyan,hexagon
55.0,5.0,0.5,1.0,3.0,3.0,372.410519999903,2.0,1.0,phase_1,,,,,,,,,,,,,magenta,diamond
385.0,8.0,4.0,1.0,2.0,2.0,356.5782199998466,2.0,1.0,phase_1,,,,,,,,,,,,,white,circle
391.0,4.0,4.0,0.0,4.0,4.0,382.1605849998377,2.0,1.0,phase_1,,,,,,,,,,,,,orange,cross
107.0,6.0,1.0,1.0,4.0,4.0,364.7984170002019,2.0,1.0,phase_1,,,,,,,,,,,,,green,I
124.0,2.0,1.0,0.0,2.0,2.0,404.4231309999304,2.0,1.0,phase_1,,,,,,,,,,,,,gray,square
116.0,2.0,1.0,0.0,4.0,4.0,368.1697970000641,2.0,1.0,phase_1,,,,,,,,,,,,,gray,square
0.0,7.0,0.0,1.0,1.0,1.0,388.1271959999139,2.0,1.0,phase_1,,,,,,,,,,,,,cyan,hexagon
0.0,2.0,0.0,0.0,2.0,2.0,340.9704979999333,2.0,1.0,phase_1,,,,,,,,,,,,,gray,square
0.0,8.0,0.0,1.0,2.0,2.0,337.1674770000936,2.0,1.0,phase_1,,,,,,,,,,,,,white,circle
197.0,7.0,2.0,1.0,2.0,2.0,317.7251849997446,2.0,1.0,phase_1,,,,,,,,,,,,,cyan,hexagon
192.0,3.0,2.0,0.0,3.0,3.0,397.1174230000542,2.0,1.0,phase_1,,,,,,,,,,,,,yellow,triangle
0.0,3.0,0.0,0.0,2.0,2.0,303.8844379998409,2.0,1.0,phase_1,,,,,,,,,,,,,yellow,triangle
0.0,2.0,0.0,0.0,1.0,1.0,368.3781850004379,2.0,1.0,phase_1,,,,,,,,,,,,,gray,square
183.0,7.0,2.0,1.0,2.0,2.0,338.5280439997586,2.0,1.0,phase_1,,,,,,,,,,,,,cyan,hexagon
67.0,5.0,0.5,1.0,2.0,2.0,409.7211260000222,2.0,1.0,phase_1,,,,,,,,,,,,,magenta,diamond
185.0,3.0,2.0,0.0,3.0,3.0,523.9665440003591,2.0,2.0,phase_1,,,,,,,,,,,,,yellow,triangle
223.0,7.0,2.0,1.0,1.0,1.0,409.6072319998711,2.0,1.0,phase_1,,,,,,,,,,,,,cyan,hexagon
201.0,7.0,2.0,1.0,1.0,1.0,466.3155319999532,2.0,1.0,phase_1,,,,,,,,,,,,,cyan,hexagon
412.0,8.0,4.0,1.0,1.0,1.0,424.6811370003343,2.0,1.0,phase_1,,,,,,,,,,,,,white,circle
225.0,3.0,2.0,0.0,1.0,1.0,392.5323899998147,2.0,1.0,phase_1,,,,,,,,,,,,,yellow,triangle
0.0,5.0,0.0,1.0,2.0,2.0,353.1378180000502,2.0,1.0,phase_1,,,,,,,,,,,,,magenta,diamond
114.0,2.0,1.0,0.0,3.0,3.0,412.8668910002488,2.0,1.0,phase_1,,,,,,,,,,,,,gray,square
66.0,1.0,0.5,0.0,2.0,2.0,418.9137129997107,2.0,1.0,phase_1,,,,,,,,,,,,,blue,flipped triangle
412.0,4.0,4.0,0.0,3.0,3.0,464.7813290002887,2.0,1.0,phase_1,,,,,,,,,,,,,orange,cross
185.0,7.0,2.0,1.0,1.0,1.0,395.9836159997394,2.0,1.0,phase_1,,,,,,,,,,,,,cyan,hexagon
49.0,5.0,0.5,1.0,1.0,1.0,453.0903800000487,2.0,1.0,phase_1,,,,,,,,,,,,,magenta,diamond
420.0,4.0,4.0,0.0,4.0,4.0,380.4585130001214,2.0,1.0,phase_1,,,,,,,,,,,,,orange,cross
212.0,3.0,2.0,0.0,4.0,4.0,343.5111409999081,2.0,1.0,phase_1,,,,,,,,,,,,,yellow,triangle
192.0,7.0,2.0,1.0,4.0,4.0,391.9433349997234,2.0,1.0,phase_1,,,,,,,,,,,,,cyan,hexagon
192.0,3.0,2.0,0.0,3.0,3.0,413.1177240001307,2.0,1.0,phase_1,,,,,,,,,,,,,yellow,triangle
119.0,2.0,1.0,0.0,3.0,3.0,374.3604199999026,2.0,1.0,phase_1,,,,,,,,,,,,,gray,square
34.0,1.0,0.5,0.0,2.0,2.0,410.9837779997178,2.0,1.0,phase_1,,,,,,,,,,,,,blue,flipped triangle
223.0,3.0,2.0,0.0,1.0,1.0,380.4628140001114,2.0,1.0,phase_1,,,,,,,,,,,,,yellow,triangle
28.0,5.0,0.5,1.0,2.0,2.0,351.2668850003138,2.0,1.0,phase_1,,,,,,,,,,,,,magenta,diamond
223.0,3.0,2.0,0.0,1.0,1.0,343.6384879996694,2.0,1.0,phase_1,,,,,,,,,,,,,yellow,triangle
31.0,5.0,0.5,1.0,1.0,1.0,487.2703770001862,2.0,1.0,phase_1,,,,,,,,,,,,,magenta,diamond
41.0,5.0,0.5,1.0,3.0,3.0,393.9754699999866,2.0,1.0,phase_1,,,,,,,,,,,,,magenta,diamond
218.0,3.0,2.0,0.0,2.0,2.0,356.3065419998565,2.0,1.0,phase_1,,,,,,,,,,,,,yellow,triangle
420.0,8.0,4.0,1.0,2.0,2.0,311.1776850000751,2.0,1.0,phase_1,,,,,,,,,,,,,white,circle
84.0,2.0,1.0,0.0,1.0,1.0,387.3567509999702,2.0,1.0,phase_1,,,,,,,,,,,,,gray,square
388.0,4.0,4.0,0.0,1.0,1.0,457.5547459999143,2.0,1.0,phase_1,,,,,,,,,,,,,orange,cross
47.0,5.0,0.5,1.0,3.0,3.0,411.1972319997221,2.0,1.0,phase_1,,,,,,,,,,,,,magenta,diamond
0.0,7.0,0.0,1.0,3.0,3.0,415.7013989997722,2.0,1.0,phase_1,,,,,,,,,,,,,cyan,hexagon
76.0,2.0,1.0,0.0,2.0,2.0,478.8537549998182,2.0,1.0,phase_1,,,,,,,,,,,,,gray,square
66.0,5.0,0.5,1.0,2.0,2.0,431.2728889999562,2.0,1.0,phase_1,,,,,,,,,,,,,magenta,diamond
0.0,5.0,0.0,1.0,4.0,4.0,484.7520170001189,2.0,1.0,phase_1,,,,,,,,,,,,,magenta,diamond
212.0,3.0,2.0,0.0,4.0,4.0,367.5195519999761,2.0,1.0,phase_1,,,,,,,,,,,,,yellow,triangle
401.0,8.0,4.0,1.0,1.0,1.0,401.1955800001487,2.0,1.0,phase_1,,,,,,,,,,,,,white,circle
58.0,5.0,0.5,1.0,4.0,4.0,348.3481459998074,2.0,1.0,phase_1,,,,,,,,,,,,,magenta,diamond
196.0,7.0,2.0,1.0,1.0,1.0,584.4212460001472,2.0,1.0,phase_1,,,,,,,,,,,,,cyan,hexagon
0.0,6.0,0.0,1.0,1.0,1.0,386.6856650001864,2.0,1.0,phase_1,,,,,,,,,,,,,green,I
85.0,6.0,1.0,1.0,1.0,1.0,362.5485340003251,2.0,1.0,phase_1,,,,,,,,,,,,,green,I
82.0,2.0,1.0,0.0,2.0,2.0,371.6458150001926,2.0,1.0,phase_1,,,,,,,,,,,,,gray,square
199.0,7.0,2.0,1.0,3.0,3.0,476.6947729999629,2.0,1.0,phase_1,,,,,,,,,,,,,cyan,hexagon
36.0,1.0,0.5,0.0,4.0,4.0,504.9059840002883,2.0,1.0,phase_1,,,,,,,,,,,,,blue,flipped triangle
392.0,8.0,4.0,1.0,1.0,1.0,359.8365160000867,2.0,1.0,phase_1,,,,,,,,,,,,,white,circle
61.0,5.0,0.5,1.0,3.0,3.0,483.350192999751,2.0,1.0,phase_1,,,,,,,,,,,,,magenta,diamond
218.0,7.0,2.0,1.0,4.0,4.0,441.1129490003986,2.0,1.0,phase_1,,,,,,,,,,,,,cyan,hexagon
379.0,8.0,4.0,1.0,3.0,3.0,441.6489330001241,2.0,1.0,phase_1,,,,,,,,,,,,,white,circle
0.0,4.0,0.0,0.0,3.0,3.0,424.4997550003972,2.0,1.0,phase_1,,,,,,,,,,,,,orange,cross
90.0,2.0,1.0,0.0,3.0,3.0,397.9684020000604,2.0,1.0,phase_1,,,,,,,,,,,,,gray,square
0.0,6.0,0.0,1.0,2.0,2.0,526.7339960000754,2.0,1.0,phase_1,,,,,,,,,,,,,green,I
175.0,7.0,2.0,1.0,4.0,4.0,408.0109989999982,2.0,1.0,phase_1,,,,,,,,,,,,,cyan,hexagon
119.0,6.0,1.0,1.0,2.0,2.0,342.1871329996975,2.0,1.0,phase_1,,,,,,,,,,,,,green,I
392.0,8.0,4.0,1.0,1.0,1.0,415.2934140001889,2.0,1.0,phase_1,,,,,,,,,,,,,white,circle
179.0,7.0,2.0,1.0,4.0,4.0,424.0212509998855,2.0,1.0,phase_1,,,,,,,,,,,,,cyan,hexagon
0.0,7.0,0.0,1.0,1.0,1.0,369.735252999817,2.0,1.0,phase_1,,,,,,,,,,,,,cyan,hexagon
0.0,5.0,0.0,1.0,4.0,4.0,406.698661000064,2.0,1.0,phase_1,,,,,,,,,,,,,magenta,diamond
414.0,8.0,4.0,1.0,3.0,3.0,531.2551779998103,2.0,1.0,phase_1,,,,,,,,,,,,,white,circle
54.0,1.0,0.5,0.0,2.0,2.0,609.3464210002821,2.0,1.0,phase_1,,,,,,,,,,,,,blue,flipped triangle
423.0,8.0,4.0,1.0,2.0,2.0,409.9580909996803,2.0,1.0,phase_1,,,,,,,,,,,,,white,circle
0.0,8.0,0.0,1.0,4.0,4.0,406.4654070002689,2.0,1.0,phase_1,,,,,,,,,,,,,white,circle
398.0,4.0,4.0,0.0,2.0,2.0,326.3387740003054,2.0,1.0,phase_1,,,,,,,,,,,,,orange,cross
90.0,2.0,1.0,0.0,1.0,1.0,345.8086499999808,2.0,1.0,phase_1,,,,,,,,,,,,,gray,square
61.0,5.0,0.5,1.0,1.0,1.0,560.0288460000229,2.0,1.0,phase_1,,,,,,,,,,,,,magenta,diamond
0.0,6.0,0.0,1.0,2.0,2.0,410.870640000212,2.0,1.0,phase_1,,,,,,,,,,,,,green,I
101.0,2.0,1.0,0.0,3.0,3.0,373.8748700002361,2.0,1.0,phase_1,,,,,,,,,,,,,gray,square
0.0,3.0,0.0,0.0,4.0,4.0,376.336688000265,2.0,1.0,phase_1,,,,,,,,,,,,,yellow,triangle
379.0,4.0,4.0,0.0,1.0,1.0,446.3054709999596,2.0,1.0,phase_1,,,,,,,,,,,,,orange,cross
418.0,4.0,4.0,0.0,4.0,4.0,395.8373410000604,2.0,1.0,phase_1,,,,,,,,,,,,,orange,cross
393.0,8.0,4.0,1.0,4.0,4.0,433.7853740003083,2.0,1.0,phase_1,,,,,,,,,,,,,white,circle
179.0,3.0,2.0,0.0,4.0,4.0,386.8100129998311,2.0,1.0,phase_1,,,,,,,,,,,,,yellow,triangle
37.0,1.0,0.5,0.0,4.0,4.0,351.5240970000377,2.0,1.0,phase_1,,,,,,,,,,,,,blue,flipped triangle
94.0,2.0,1.0,0.0,4.0,4.0,343.1077440000081,2.0,1.0,phase_1,,,,,,,,,,,,,gray,square
0.0,1.0,0.0,0.0,3.0,3.0,752.0777849999831,2.0,1.0,phase_1,,,,,,,,,,,,,blue,flipped triangle
180.0,3.0,2.0,0.0,1.0,1.0,371.0362050001095,2.0,1.0,phase_1,,,,,,,,,,,,,yellow,triangle
101.0,6.0,1.0,1.0,4.0,4.0,366.0544720000871,2.0,1.0,phase_1,,,,,,,,,,,,,green,I
175.0,3.0,2.0,0.0,1.0,1.0,433.7824219996946,2.0,1.0,phase_1,,,,,,,,,,,,,yellow,triangle
105.0,2.0,1.0,0.0,1.0,1.0,514.3891600000643,2.0,1.0,phase_1,,,,,,,,,,,,,gray,square
204.0,7.0,2.0,1.0,2.0,2.0,488.7789560002602,2.0,1.0,phase_1,,,,,,,,,,,,,cyan,hexagon
225.0,7.0,2.0,1.0,2.0,2.0,446.3915510000333,2.0,1.0,phase_1,,,,,,,,,,,,,cyan,hexagon
212.0,7.0,2.0,1.0,2.0,2.0,406.0070010000345,2.0,1.0,phase_1,,,,,,,,,,,,,cyan,hexagon
0.0,7.0,0.0,1.0,1.0,1.0,410.7215109997923,2.0,1.0,phase_1,,,,,,,,,,,,,cyan,hexagon
0.0,8.0,0.0,1.0,1.0,1.0,452.8791350003303,2.0,1.0,phase_1,,,,,,,,,,,,,white,circle
0.0,5.0,0.0,1.0,3.0,3.0,468.2604960003118,2.0,1.0,phase_1,,,,,,,,,,,,,magenta,diamond
41.0,1.0,0.5,0.0,1.0,1.0,368.3388949998516,2.0,1.0,phase_1,,,,,,,,,,,,,blue,flipped triangle
76.0,6.0,1.0,1.0,3.0,3.0,554.2495419999796,2.0,1.0,phase_1,,,,,,,,,,,,,green,I
34.0,5.0,0.5,1.0,1.0,1.0,363.5745439996753,2.0,1.0,phase_1,,,,,,,,,,,,,magenta,diamond
80.0,2.0,1.0,0.0,4.0,4.0,405.671644999984,2.0,1.0,phase_1,,,,,,,,,,,,,gray,square
203.0,3.0,2.0,0.0,2.0,2.0,427.3334180002166,3.0,1.0,phase_1,,,,,,,,,,,,,yellow,triangle
423.0,4.0,4.0,0.0,1.0,1.0,437.585425999714,3.0,1.0,phase_1,,,,,,,,,,,,,orange,cross
0.0,3.0,0.0,0.0,4.0,4.0,375.3476199999568,3.0,1.0,phase_1,,,,,,,,,,,,,yellow,triangle
64.0,1.0,0.5,0.0,4.0,4.0,409.5487169997795,3.0,1.0,phase_1,,,,,,,,,,,,,blue,flipped triangle
54.0,1.0,0.5,0.0,4.0,4.0,388.2601919999615,3.0,1.0,phase_1,,,,,,,,,,,,,blue,flipped triangle
58.0,1.0,0.5,0.0,2.0,2.0,367.5570739997056,3.0,1.0,phase_1,,,,,,,,,,,,,blue,flipped triangle
106.0,2.0,1.0,0.0,1.0,1.0,352.3900670002149,3.0,1.0,phase_1,,,,,,,,,,,,,gray,square
106.0,6.0,1.0,1.0,1.0,1.0,387.1904840002571,3.0,1.0,phase_1,,,,,,,,,,,,,green,I
114.0,6.0,1.0,1.0,1.0,1.0,377.4047619999692,3.0,1.0,phase_1,,,,,,,,,,,,,green,I
381.0,4.0,4.0,0.0,3.0,3.0,492.4163989999215,3.0,1.0,phase_1,,,,,,,,,,,,,orange,cross
41.0,1.0,0.5,0.0,3.0,3.0,414.8832299997593,3.0,1.0,phase_1,,,,,,,,,,,,,blue,flipped triangle
0.0,8.0,0.0,1.0,3.0,3.0,419.4079279996003,3.0,1.0,phase_1,,,,,,,,,,,,,white,circle
56.0,5.0,0.5,1.0,1.0,1.0,364.4718529999409,3.0,1.0,phase_1,,,,,,,,,,,,,magenta,diamond
0.0,5.0,0.0,1.0,2.0,2.0,429.8087409997606,3.0,1.0,phase_1,,,,,,,,,,,,,magenta,diamond
0.0,1.0,0.0,0.0,3.0,3.0,386.5991070001655,3.0,1.0,phase_1,,,,,,,,,,,,,blue,flipped triangle
59.0,1.0,0.5,0.0,1.0,1.0,432.2866120000981,3.0,1.0,phase_1,,,,,,,,,,,,,blue,flipped triangle
418.0,8.0,4.0,1.0,4.0,4.0,347.3837900000944,3.0,1.0,phase_1,,,,,,,,,,,,,white,circle
0.0,4.0,0.0,0.0,2.0,2.0,367.2470480000811,3.0,1.0,phase_1,,,,,,,,,,,,,orange,cross
197.0,3.0,2.0,0.0,4.0,4.0,463.6654949999865,3.0,1.0,phase_1,,,,,,,,,,,,,yellow,triangle
216.0,7.0,2.0,1.0,1.0,1.0,419.4733369999994,3.0,1.0,phase_1,,,,,,,,,,,,,cyan,hexagon
124.0,6.0,1.0,1.0,1.0,1.0,373.4631580000496,3.0,1.0,phase_1,,,,,,,,,,,,,green,I
388.0,4.0,4.0,0.0,3.0,3.0,446.0850080004093,3.0,1.0,phase_1,,,,,,,,,,,,,orange,cross
88.0,6.0,1.0,1.0,4.0,4.0,397.6469019999058,3.0,1.0,phase_1,,,,,,,,,,,,,green,I
386.0,4.0,4.0,0.0,1.0,1.0,326.7724450001878,3.0,1.0,phase_1,,,,,,,,,,,,,orange,cross
91.0,2.0,1.0,0.0,3.0,3.0,370.3982060001181,3.0,1.0,phase_1,,,,,,,,,,,,,gray,square
104.0,2.0,1.0,0.0,3.0,3.0,391.3591149998865,3.0,1.0,phase_1,,,,,,,,,,,,,gray,square
66.0,1.0,0.5,0.0,1.0,1.0,427.197065999735,3.0,1.0,phase_1,,,,,,,,,,,,,blue,flipped triangle
197.0,3.0,2.0,0.0,3.0,3.0,413.5520390000238,3.0,1.0,phase_1,,,,,,,,,,,,,yellow,triangle
0.0,6.0,0.0,1.0,2.0,2.0,492.9654659999869,3.0,1.0,phase_1,,,,,,,,,,,,,green,I
0.0,4.0,0.0,0.0,1.0,1.0,438.2399109999824,3.0,1.0,phase_1,,,,,,,,,,,,,orange,cross
421.0,4.0,4.0,0.0,2.0,2.0,421.6508680001425,3.0,1.0,phase_1,,,,,,,,,,,,,orange,cross
0.0,2.0,0.0,0.0,1.0,1.0,446.5256660000705,3.0,1.0,phase_1,,,,,,,,,,,,,gray,square
420.0,4.0,4.0,0.0,2.0,2.0,346.7463040001348,3.0,1.0,phase_1,,,,,,,,,,,,,orange,cross
98.0,6.0,1.0,1.0,3.0,3.0,525.486378000096,3.0,1.0,phase_1,,,,,,,,,,,,,green,I
192.0,3.0,2.0,0.0,2.0,2.0,390.4199170001448,3.0,1.0,phase_1,,,,,,,,,,,,,yellow,triangle
386.0,8.0,4.0,1.0,3.0,3.0,446.4052600001196,3.0,1.0,phase_1,,,,,,,,,,,,,white,circle
54.0,5.0,0.5,1.0,1.0,1.0,389.2702289999761,3.0,1.0,phase_1,,,,,,,,,,,,,magenta,diamond
418.0,8.0,4.0,1.0,3.0,3.0,380.8117389999097,3.0,1.0,phase_1,,,,,,,,,,,,,white,circle
375.0,8.0,4.0,1.0,3.0,3.0,388.3285120000437,3.0,1.0,phase_1,,,,,,,,,,,,,white,circle
43.0,1.0,0.5,0.0,1.0,1.0,465.2986030000647,3.0,1.0,phase_1,,,,,,,,,,,,,blue,flipped triangle
388.0,8.0,4.0,1.0,2.0,2.0,361.5211280002768,3.0,1.0,phase_1,,,,,,,,,,,,,white,circle
212.0,7.0,2.0,1.0,3.0,3.0,485.9409730001971,3.0,1.0,phase_1,,,,,,,,,,,,,cyan,hexagon
382.0,4.0,4.0,0.0,3.0,3.0,386.1912990000746,3.0,1.0,phase_1,,,,,,,,,,,,,orange,cross
27.0,5.0,0.5,1.0,2.0,2.0,367.9358750000574,3.0,1.0,phase_1,,,,,,,,,,,,,magenta,diamond
0.0,7.0,0.0,1.0,2.0,2.0,369.9306030002844,3.0,1.0,phase_1,,,,,,,,,,,,,cyan,hexagon
0.0,7.0,0.0,1.0,3.0,3.0,367.1944199995778,3.0,1.0,phase_1,,,,,,,,,,,,,cyan,hexagon
84.0,6.0,1.0,1.0,1.0,1.0,417.5885770000604,3.0,1.0,phase_1,,,,,,,,,,,,,green,I
386.0,4.0,4.0,0.0,1.0,1.0,417.7519009999741,3.0,1.0,phase_1,,,,,,,,,,,,,orange,cross
209.0,7.0,2.0,1.0,2.0,2.0,376.0404019999441,3.0,1.0,phase_1,,,,,,,,,,,,,cyan,hexagon
409.0,8.0,4.0,1.0,1.0,1.0,359.9889410002106,3.0,1.0,phase_1,,,,,,,,,,,,,white,circle
0.0,2.0,0.0,0.0,2.0,2.0,344.3847570001708,3.0,1.0,phase_1,,,,,,,,,,,,,gray,square
204.0,7.0,2.0,1.0,3.0,3.0,398.1601230002525,3.0,1.0,phase_1,,,,,,,,,,,,,cyan,hexagon
67.0,1.0,0.5,0.0,2.0,2.0,360.6008830001883,3.0,1.0,phase_1,,,,,,,,,,,,,blue,flipped triangle
225.0,3.0,2.0,0.0,4.0,4.0,434.6281250000174,3.0,1.0,phase_1,,,,,,,,,,,,,yellow,triangle
420.0,4.0,4.0,0.0,1.0,1.0,473.2886759998109,3.0,1.0,phase_1,,,,,,,,,,,,,orange,cross
393.0,4.0,4.0,0.0,2.0,2.0,342.9738989998441,3.0,1.0,phase_1,,,,,,,,,,,,,orange,cross
422.0,8.0,4.0,1.0,2.0,2.0,447.1628480000618,3.0,1.0,phase_1,,,,,,,,,,,,,white,circle
103.0,2.0,1.0,0.0,4.0,4.0,457.2123490002013,3.0,1.0,phase_1,,,,,,,,,,,,,gray,square
0.0,8.0,0.0,1.0,1.0,1.0,551.2322959998528,3.0,1.0,phase_1,,,,,,,,,,,,,white,circle
409.0,4.0,4.0,0.0,2.0,2.0,375.1032300001498,3.0,1.0,phase_1,,,,,,,,,,,,,orange,cross
0.0,1.0,0.0,0.0,2.0,2.0,459.1944820003846,3.0,1.0,phase_1,,,,,,,,,,,,,blue,flipped triangle
63.0,5.0,0.5,1.0,4.0,4.0,387.9930540001624,3.0,1.0,phase_1,,,,,,,,,,,,,magenta,diamond
79.0,6.0,1.0,1.0,3.0,3.0,503.51873799991154,3.0,1.0,phase_1,,,,,,,,,,,,,green,I
65.0,5.0,0.5,1.0,2.0,2.0,353.9162360002592,3.0,1.0,phase_1,,,,,,,,,,,,,magenta,diamond
211.0,7.0,2.0,1.0,1.0,1.0,428.1465450003452,3.0,1.0,phase_1,,,,,,,,,,,,,cyan,hexagon
0.0,5.0,0.0,1.0,2.0,2.0,350.0628339998002,3.0,1.0,phase_1,,,,,,,,,,,,,magenta,diamond
413.0,4.0,4.0,0.0,4.0,4.0,400.2210289995673,3.0,1.0,phase_1,,,,,,,,,,,,,orange,cross
225.0,7.0,2.0,1.0,4.0,4.0,429.2247349999343,3.0,1.0,phase_1,,,,,,,,,,,,,cyan,hexagon
88.0,2.0,1.0,0.0,4.0,4.0,404.7613689999707,3.0,1.0,phase_1,,,,,,,,,,,,,gray,square
212.0,3.0,2.0,0.0,3.0,3.0,451.7565340001965,3.0,1.0,phase_1,,,,,,,,,,,,,yellow,triangle
384.0,8.0,4.0,1.0,2.0,2.0,430.8768490000147,3.0,1.0,phase_1,,,,,,,,,,,,,white,circle
178.0,3.0,2.0,0.0,3.0,3.0,393.1460759999936,3.0,1.0,phase_1,,,,,,,,,,,,,yellow,triangle
192.0,7.0,2.0,1.0,2.0,2.0,326.2081719999514,3.0,1.0,phase_1,,,,,,,,,,,,,cyan,hexagon
414.0,4.0,4.0,0.0,2.0,2.0,363.9056689999052,3.0,1.0,phase_1,,,,,,,,,,,,,orange,cross
175.0,3.0,2.0,0.0,1.0,1.0,477.5398709998626,3.0,1.0,phase_1,,,,,,,,,,,,,yellow,triangle
0.0,7.0,0.0,1.0,2.0,2.0,333.7118409999675,3.0,1.0,phase_1,,,,,,,,,,,,,cyan,hexagon
209.0,3.0,2.0,0.0,3.0,3.0,451.4809379998041,3.0,1.0,phase_1,,,,,,,,,,,,,yellow,triangle
0.0,1.0,0.0,0.0,2.0,2.0,362.1761200001856,3.0,1.0,phase_1,,,,,,,,,,,,,blue,flipped triangle
412.0,8.0,4.0,1.0,3.0,3.0,362.4859830001696,3.0,1.0,phase_1,,,,,,,,,,,,,white,circle
388.0,8.0,4.0,1.0,4.0,4.0,434.4003199998951,3.0,1.0,phase_1,,,,,,,,,,,,,white,circle
200.0,3.0,2.0,0.0,2.0,2.0,369.9445809997996,3.0,1.0,phase_1,,,,,,,,,,,,,yellow,triangle
197.0,7.0,2.0,1.0,1.0,1.0,413.9616729999034,3.0,1.0,phase_1,,,,,,,,,,,,,cyan,hexagon
192.0,7.0,2.0,1.0,2.0,2.0,338.9344199999868,3.0,1.0,phase_1,,,,,,,,,,,,,cyan,hexagon
0.0,5.0,0.0,1.0,2.0,2.0,361.8822650000766,3.0,1.0,phase_1,,,,,,,,,,,,,magenta,diamond
42.0,5.0,0.5,1.0,2.0,2.0,351.9734340002287,3.0,1.0,phase_1,,,,,,,,,,,,,magenta,diamond
0.0,1.0,0.0,0.0,1.0,1.0,472.5759879997895,3.0,1.0,phase_1,,,,,,,,,,,,,blue,flipped triangle
384.0,4.0,4.0,0.0,4.0,4.0,434.1468009997697,3.0,1.0,phase_1,,,,,,,,,,,,,orange,cross
43.0,5.0,0.5,1.0,2.0,2.0,303.4744639999189,3.0,1.0,phase_1,,,,,,,,,,,,,magenta,diamond
0.0,8.0,0.0,1.0,1.0,1.0,457.0097290002195,3.0,1.0,phase_1,,,,,,,,,,,,,white,circle
0.0,2.0,0.0,0.0,2.0,2.0,354.9714139999196,3.0,1.0,phase_1,,,,,,,,,,,,,gray,square
88.0,6.0,1.0,1.0,2.0,2.0,368.71970600032,3.0,1.0,phase_1,,,,,,,,,,,,,green,I
211.0,3.0,2.0,0.0,2.0,2.0,345.4160159999446,3.0,1.0,phase_1,,,,,,,,,,,,,yellow,triangle
115.0,2.0,1.0,0.0,4.0,4.0,402.8250719998141,3.0,1.0,phase_1,,,,,,,,,,,,,gray,square
66.0,5.0,0.5,1.0,1.0,1.0,460.1801700000578,3.0,1.0,phase_1,,,,,,,,,,,,,magenta,diamond
45.0,5.0,0.5,1.0,3.0,3.0,574.4947309999588,3.0,1.0,phase_1,,,,,,,,,,,,,magenta,diamond
219.0,3.0,2.0,0.0,2.0,2.0,401.3805849999698,3.0,1.0,phase_1,,,,,,,,,,,,,yellow,triangle
393.0,4.0,4.0,0.0,2.0,2.0,431.4592879995871,3.0,1.0,phase_1,,,,,,,,,,,,,orange,cross
66.0,5.0,0.5,1.0,4.0,4.0,451.383523000004,3.0,1.0,phase_1,,,,,,,,,,,,,magenta,diamond
398.0,8.0,4.0,1.0,4.0,4.0,416.6079830001763,3.0,1.0,phase_1,,,,,,,,,,,,,white,circle
375.0,4.0,4.0,0.0,3.0,3.0,697.5708830000258,3.0,1.0,phase_1,,,,,,,,,,,,,orange,cross
37.0,5.0,0.5,1.0,1.0,1.0,433.992150999984,4.0,1.0,phase_1,,,,,,,,,,,,,magenta,diamond
121.0,2.0,1.0,0.0,1.0,1.0,449.6827559996745,4.0,1.0,phase_1,,,,,,,,,,,,,gray,square
395.0,8.0,4.0,1.0,2.0,2.0,493.2650230002764,4.0,1.0,phase_1,,,,,,,,,,,,,white,circle
42.0,1.0,0.5,0.0,1.0,1.0,403.2487660001607,4.0,1.0,phase_1,,,,,,,,,,,,,blue,flipped triangle
71.0,5.0,0.5,1.0,2.0,2.0,413.4381690000737,4.0,1.0,phase_1,,,,,,,,,,,,,magenta,diamond
0.0,4.0,0.0,0.0,3.0,3.0,404.1065760002311,4.0,1.0,phase_1,,,,,,,,,,,,,orange,cross
0.0,2.0,0.0,0.0,2.0,2.0,527.5636229998781,4.0,1.0,phase_1,,,,,,,,,,,,,gray,square
65.0,1.0,0.5,0.0,3.0,3.0,342.3069519999444,4.0,1.0,phase_1,,,,,,,,,,,,,blue,flipped triangle
80.0,6.0,1.0,1.0,1.0,1.0,398.545636000108,4.0,1.0,phase_1,,,,,,,,,,,,,green,I
66.0,1.0,0.5,0.0,2.0,2.0,377.1173829995859,4.0,1.0,phase_1,,,,,,,,,,,,,blue,flipped triangle
59.0,5.0,0.5,1.0,2.0,2.0,382.114035000086,4.0,1.0,phase_1,,,,,,,,,,,,,magenta,diamond
398.0,8.0,4.0,1.0,4.0,4.0,406.6968639999686,4.0,1.0,phase_1,,,,,,,,,,,,,white,circle
0.0,2.0,0.0,0.0,1.0,1.0,455.473209000047,4.0,1.0,phase_1,,,,,,,,,,,,,gray,square
88.0,6.0,1.0,1.0,4.0,4.0,450.8208880001803,4.0,1.0,phase_1,,,,,,,,,,,,,green,I
108.0,2.0,1.0,0.0,3.0,3.0,434.6009019996018,4.0,1.0,phase_1,,,,,,,,,,,,,gray,square
90.0,6.0,1.0,1.0,2.0,2.0,441.9650909999291,4.0,1.0,phase_1,,,,,,,,,,,,,green,I
90.0,6.0,1.0,1.0,3.0,3.0,451.6300919999594,4.0,1.0,phase_1,,,,,,,,,,,,,green,I
384.0,4.0,4.0,0.0,3.0,3.0,378.3059910001611,4.0,1.0,phase_1,,,,,,,,,,,,,orange,cross
0.0,8.0,0.0,1.0,1.0,1.0,418.5655429996586,4.0,1.0,phase_1,,,,,,,,,,,,,white,circle
64.0,1.0,0.5,0.0,1.0,1.0,420.323983000344,4.0,1.0,phase_1,,,,,,,,,,,,,blue,flipped triangle
64.0,5.0,0.5,1.0,3.0,3.0,401.6172849997019,4.0,1.0,phase_1,,,,,,,,,,,,,magenta,diamond
88.0,2.0,1.0,0.0,3.0,3.0,467.4897349996172,4.0,1.0,phase_1,,,,,,,,,,,,,gray,square
123.0,2.0,1.0,0.0,2.0,2.0,390.196627000023,4.0,1.0,phase_1,,,,,,,,,,,,,gray,square
0.0,6.0,0.0,1.0,1.0,1.0,441.8803439998555,4.0,1.0,phase_1,,,,,,,,,,,,,green,I
49.0,5.0,0.5,1.0,4.0,4.0,421.871259999989,4.0,1.0,phase_1,,,,,,,,,,,,,magenta,diamond
82.0,6.0,1.0,1.0,3.0,3.0,413.5488340002666,4.0,1.0,phase_1,,,,,,,,,,,,,green,I
398.0,4.0,4.0,0.0,1.0,1.0,390.5370759998732,4.0,1.0,phase_1,,,,,,,,,,,,,orange,cross
405.0,4.0,4.0,0.0,3.0,3.0,447.2583900001154,4.0,1.0,phase_1,,,,,,,,,,,,,orange,cross
77.0,2.0,1.0,0.0,2.0,2.0,442.8148120000514,4.0,1.0,phase_1,,,,,,,,,,,,,gray,square
115.0,6.0,1.0,1.0,3.0,3.0,400.8015239996894,4.0,1.0,phase_1,,,,,,,,,,,,,green,I
205.0,3.0,2.0,0.0,3.0,3.0,369.3986970001788,4.0,1.0,phase_1,,,,,,,,,,,,,yellow,triangle
84.0,2.0,1.0,0.0,1.0,1.0,385.8385660000749,4.0,1.0,phase_1,,,,,,,,,,,,,gray,square
51.0,1.0,0.5,0.0,4.0,4.0,416.6090129997428,4.0,1.0,phase_1,,,,,,,,,,,,,blue,flipped triangle
109.0,2.0,1.0,0.0,2.0,2.0,345.7463839999946,4.0,1.0,phase_1,,,,,,,,,,,,,gray,square
200.0,7.0,2.0,1.0,2.0,2.0,429.2255000000295,4.0,1.0,phase_1,,,,,,,,,,,,,cyan,hexagon
107.0,2.0,1.0,0.0,1.0,1.0,411.7360800000824,4.0,1.0,phase_1,,,,,,,,,,,,,gray,square
179.0,3.0,2.0,0.0,3.0,3.0,341.1264239998672,4.0,1.0,phase_1,,,,,,,,,,,,,yellow,triangle
180.0,7.0,2.0,1.0,3.0,3.0,357.9187860000274,4.0,1.0,phase_1,,,,,,,,,,,,,cyan,hexagon
94.0,6.0,1.0,1.0,2.0,2.0,401.0592769996037,4.0,1.0,phase_1,,,,,,,,,,,,,green,I
85.0,2.0,1.0,0.0,4.0,4.0,408.1622610001432,4.0,1.0,phase_1,,,,,,,,,,,,,gray,square
422.0,4.0,4.0,0.0,1.0,1.0,479.7111249999943,4.0,1.0,phase_1,,,,,,,,,,,,,orange,cross
0.0,4.0,0.0,0.0,1.0,1.0,514.4562709997444,4.0,1.0,phase_1,,,,,,,,,,,,,orange,cross
216.0,3.0,2.0,0.0,2.0,2.0,691.4680219997535,4.0,1.0,phase_1,,,,,,,,,,,,,yellow,triangle
408.0,4.0,4.0,0.0,4.0,4.0,639.2645870000706,4.0,1.0,phase_1,,,,,,,,,,,,,orange,cross
55.0,1.0,0.5,0.0,2.0,2.0,427.1473220001098,4.0,1.0,phase_1,,,,,,,,,,,,,blue,flipped triangle
0.0,3.0,0.0,0.0,2.0,2.0,505.78225700019175,4.0,1.0,phase_1,,,,,,,,,,,,,yellow,triangle
178.0,7.0,2.0,1.0,1.0,1.0,562.779288999991,4.0,1.0,phase_1,,,,,,,,,,,,,cyan,hexagon
183.0,3.0,2.0,0.0,3.0,3.0,554.2110229998798,4.0,1.0,phase_1,,,,,,,,,,,,,yellow,triangle
0.0,7.0,0.0,1.0,4.0,4.0,509.3312320000223,4.0,1.0,phase_1,,,,,,,,,,,,,cyan,hexagon
199.0,3.0,2.0,0.0,4.0,4.0,498.4584250000807,4.0,1.0,phase_1,,,,,,,,,,,,,yellow,triangle
117.0,6.0,1.0,1.0,1.0,1.0,526.6480670002238,4.0,1.0,phase_1,,,,,,,,,,,,,green,I
117.0,2.0,1.0,0.0,1.0,1.0,522.3883300000125,4.0,1.0,phase_1,,,,,,,,,,,,,gray,square
0.0,4.0,0.0,0.0,1.0,1.0,495.7193199998073,4.0,1.0,phase_1,,,,,,,,,,,,,orange,cross
201.0,3.0,2.0,0.0,4.0,4.0,467.2320810000201,4.0,1.0,phase_1,,,,,,,,,,,,,yellow,triangle
0.0,6.0,0.0,1.0,2.0,2.0,526.9896379995771,4.0,1.0,phase_1,,,,,,,,,,,,,green,I
119.0,6.0,1.0,1.0,1.0,1.0,447.7904790001048,4.0,1.0,phase_1,,,,,,,,,,,,,green,I
0.0,6.0,0.0,1.0,3.0,3.0,557.6878380002199,4.0,1.0,phase_1,,,,,,,,,,,,,green,I
413.0,8.0,4.0,1.0,3.0,3.0,542.5546960000247,4.0,1.0,phase_1,,,,,,,,,,,,,white,circle
74.0,1.0,0.5,0.0,1.0,1.0,451.0814330001267,4.0,1.0,phase_1,,,,,,,,,,,,,blue,flipped triangle
0.0,1.0,0.0,0.0,3.0,3.0,561.306218000027,4.0,1.0,phase_1,,,,,,,,,,,,,blue,flipped triangle
0.0,1.0,0.0,0.0,1.0,1.0,473.12501100032017,4.0,1.0,phase_1,,,,,,,,,,,,,blue,flipped triangle
36.0,5.0,0.5,1.0,4.0,4.0,478.4617720001733,4.0,1.0,phase_1,,,,,,,,,,,,,magenta,diamond
31.0,1.0,0.5,0.0,3.0,3.0,474.4523839999601,4.0,1.0,phase_1,,,,,,,,,,,,,blue,flipped triangle
204.0,3.0,2.0,0.0,1.0,1.0,480.6374590002633,4.0,1.0,phase_1,,,,,,,,,,,,,yellow,triangle
60.0,1.0,0.5,0.0,4.0,4.0,417.8424589999849,4.0,1.0,phase_1,,,,,,,,,,,,,blue,flipped triangle
49.0,1.0,0.5,0.0,3.0,3.0,413.130553999963,4.0,1.0,phase_1,,,,,,,,,,,,,blue,flipped triangle
416.0,8.0,4.0,1.0,1.0,1.0,414.6664079999027,4.0,1.0,phase_1,,,,,,,,,,,,,white,circle
0.0,8.0,0.0,1.0,4.0,4.0,359.8552940002264,4.0,1.0,phase_1,,,,,,,,,,,,,white,circle
175.0,7.0,2.0,1.0,3.0,3.0,496.1859330001061,4.0,1.0,phase_1,,,,,,,,,,,,,cyan,hexagon
0.0,1.0,0.0,0.0,4.0,4.0,379.8665250001249,4.0,1.0,phase_1,,,,,,,,,,,,,blue,flipped triangle
60.0,5.0,0.5,1.0,4.0,4.0,389.8952399999871,4.0,1.0,phase_1,,,,,,,,,,,,,magenta,diamond
105.0,6.0,1.0,1.0,4.0,4.0,363.3589099999881,4.0,1.0,phase_1,,,,,,,,,,,,,green,I
420.0,8.0,4.0,1.0,2.0,2.0,516.2303470001461,4.0,1.0,phase_1,,,,,,,,,,,,,white,circle
123.0,6.0,1.0,1.0,2.0,2.0,448.6670460000823,4.0,1.0,phase_1,,,,,,,,,,,,,green,I
209.0,7.0,2.0,1.0,4.0,4.0,375.2361830001973,4.0,1.0,phase_1,,,,,,,,,,,,,cyan,hexagon
0.0,8.0,0.0,1.0,4.0,4.0,393.7009379997107,4.0,1.0,phase_1,,,,,,,,,,,,,white,circle
391.0,8.0,4.0,1.0,4.0,4.0,387.3798680001528,4.0,1.0,phase_1,,,,,,,,,,,,,white,circle
34.0,5.0,0.5,1.0,4.0,4.0,348.3968139998978,4.0,1.0,phase_1,,,,,,,,,,,,,magenta,diamond
0.0,2.0,0.0,0.0,4.0,4.0,335.5910899999799,4.0,1.0,phase_1,,,,,,,,,,,,,gray,square
83.0,6.0,1.0,1.0,4.0,4.0,340.1709360000495,4.0,1.0,phase_1,,,,,,,,,,,,,green,I
209.0,7.0,2.0,1.0,3.0,3.0,417.827533000036,4.0,2.0,phase_1,,,,,,,,,,,,,cyan,hexagon
54.0,5.0,0.5,1.0,1.0,1.0,541.7661479996241,4.0,1.0,phase_1,,,,,,,,,,,,,magenta,diamond
179.0,7.0,2.0,1.0,3.0,3.0,509.16539700028807,4.0,1.0,phase_1,,,,,,,,,,,,,cyan,hexagon
93.0,6.0,1.0,1.0,4.0,4.0,418.9272110002093,4.0,1.0,phase_1,,,,,,,,,,,,,green,I
385.0,4.0,4.0,0.0,2.0,2.0,468.2046899997658,4.0,1.0,phase_1,,,,,,,,,,,,,orange,cross
34.0,1.0,0.5,0.0,2.0,2.0,441.0537519997888,4.0,1.0,phase_1,,,,,,,,,,,,,blue,flipped triangle
61.0,1.0,0.5,0.0,3.0,3.0,438.2503209999413,4.0,1.0,phase_1,,,,,,,,,,,,,blue,flipped triangle
0.0,3.0,0.0,0.0,3.0,3.0,555.6325759998799,4.0,1.0,phase_1,,,,,,,,,,,,,yellow,triangle
378.0,4.0,4.0,0.0,1.0,1.0,513.9192789997651,4.0,1.0,phase_1,,,,,,,,,,,,,orange,cross
49.0,1.0,0.5,0.0,4.0,4.0,424.4188739999117,4.0,1.0,phase_1,,,,,,,,,,,,,blue,flipped triangle
0.0,5.0,0.0,1.0,3.0,3.0,425.8866290001606,4.0,1.0,phase_1,,,,,,,,,,,,,magenta,diamond
56.0,1.0,0.5,0.0,3.0,3.0,399.6724720000202,4.0,1.0,phase_1,,,,,,,,,,,,,blue,flipped triangle
408.0,8.0,4.0,1.0,3.0,3.0,409.0706520000822,4.0,1.0,phase_1,,,,,,,,,,,,,white,circle
41.0,1.0,0.5,0.0,3.0,3.0,472.1843249999438,4.0,1.0,phase_1,,,,,,,,,,,,,blue,flipped triangle
199.0,7.0,2.0,1.0,3.0,3.0,360.887752999588,4.0,1.0,phase_1,,,,,,,,,,,,,cyan,hexagon
83.0,2.0,1.0,0.0,4.0,4.0,484.2471470001328,4.0,2.0,phase_1,,,,,,,,,,,,,gray,square
54.0,1.0,0.5,0.0,4.0,4.0,365.6379839999317,4.0,1.0,phase_1,,,,,,,,,,,,,blue,flipped triangle
0.0,7.0,0.0,1.0,4.0,4.0,390.6500499997491,4.0,1.0,phase_1,,,,,,,,,,,,,cyan,hexagon
398.0,4.0,4.0,0.0,3.0,3.0,710.3738390001126,4.0,1.0,phase_1,,,,,,,,,,,,,orange,cross
28.0,1.0,0.5,0.0,2.0,2.0,553.5285269997985,4.0,1.0,phase_1,,,,,,,,,,,,,blue,flipped triangle
0.0,4.0,4.0,0.0,5.0,5.0,377.9775849998259,1.0,1.0,phase_2,go,250.0,250.0,1.0,,,,,,,,,orange,cross
0.0,6.0,1.0,1.0,6.0,0.0,0.0,1.0,1.0,phase_2,stop,250.0,250.0,4.0,,,,,,,,,green,I
0.0,6.0,1.0,1.0,5.0,0.0,0.0,1.0,1.0,phase_2,stop,250.0,300.0,4.0,,,,,,,,,green,I
0.0,1.0,0.5,0.0,5.0,5.0,752.0790889998352,1.0,1.0,phase_2,go,300.0,300.0,1.0,,,,,,,,,blue,flipped triangle
0.0,4.0,4.0,0.0,6.0,6.0,920.2393079999638,1.0,1.0,phase_2,go,300.0,300.0,1.0,,,,,,,,,orange,cross
0.0,1.0,0.5,0.0,6.0,6.0,1033.4067469998445,1.0,1.0,phase_2,go,300.0,300.0,1.0,,,,,,,,,blue,flipped triangle
0.0,7.0,2.0,1.0,5.0,5.0,856.3898040001732,1.0,1.0,phase_2,go,300.0,300.0,1.0,,,,,,,,,cyan,hexagon
0.0,6.0,1.0,1.0,5.0,0.0,0.0,1.0,1.0,phase_2,stop,300.0,300.0,4.0,,,,,,,,,green,I
0.0,6.0,1.0,1.0,5.0,0.0,0.0,1.0,1.0,phase_2,stop,350.0,300.0,4.0,,,,,,,,,green,I
0.0,2.0,1.0,0.0,5.0,5.0,720.0138549997064,1.0,1.0,phase_2,go,400.0,300.0,1.0,,,,,,,,,gray,square
0.0,8.0,4.0,1.0,5.0,0.0,0.0,1.0,1.0,phase_2,stop,400.0,300.0,4.0,,,,,,,,,white,circle
0.0,2.0,1.0,0.0,5.0,5.0,943.308388999867,1.0,1.0,phase_2,go,450.0,300.0,1.0,,,,,,,,,gray,square
0.0,1.0,0.5,0.0,5.0,5.0,915.640027000336,1.0,1.0,phase_2,go,450.0,300.0,1.0,,,,,,,,,blue,flipped triangle
0.0,3.0,2.0,0.0,5.0,5.0,990.1848929998778,1.0,1.0,phase_2,go,450.0,300.0,1.0,,,,,,,,,yellow,triangle
0.0,2.0,1.0,0.0,5.0,5.0,917.3319939995964,1.0,1.0,phase_2,go,450.0,300.0,1.0,,,,,,,,,gray,square
0.0,7.0,2.0,1.0,5.0,0.0,0.0,1.0,1.0,phase_2,stop,450.0,300.0,4.0,,,,,,,,,cyan,hexagon
0.0,5.0,0.5,1.0,5.0,0.0,0.0,1.0,1.0,phase_2,stop,500.0,300.0,4.0,,,,,,,,,magenta,diamond
0.0,3.0,2.0,0.0,5.0,5.0,681.3442980001128,1.0,1.0,phase_2,go,550.0,300.0,1.0,,,,,,,,,yellow,triangle
0.0,7.0,2.0,1.0,5.0,0.0,0.0,1.0,1.0,phase_2,stop,550.0,300.0,4.0,,,,,,,,,cyan,hexagon
0.0,8.0,4.0,1.0,6.0,0.0,0.0,1.0,1.0,phase_2,stop,600.0,300.0,4.0,,,,,,,,,white,circle
0.0,2.0,1.0,0.0,5.0,5.0,979.724158999943,1.0,1.0,phase_2,go,600.0,350.0,1.0,,,,,,,,,gray,square
0.0,6.0,1.0,1.0,6.0,6.0,865.6783419996827,1.0,1.0,phase_2,go,600.0,350.0,1.0,,,,,,,,,green,I
0.0,3.0,2.0,0.0,6.0,6.0,944.2117140001756,1.0,1.0,phase_2,go,600.0,350.0,1.0,,,,,,,,,yellow,triangle
0.0,3.0,2.0,0.0,5.0,5.0,860.2159409997512,1.0,1.0,phase_2,go,600.0,350.0,1.0,,,,,,,,,yellow,triangle
0.0,6.0,1.0,1.0,5.0,5.0,727.7352579999388,1.0,1.0,phase_2,stop,600.0,350.0,3.0,,,,,,,,,green,I
0.0,8.0,4.0,1.0,5.0,0.0,0.0,1.0,1.0,phase_2,stop,550.0,350.0,4.0,,,,,,,,,white,circle
0.0,3.0,2.0,0.0,6.0,6.0,630.0339330000497,1.0,1.0,phase_2,go,600.0,350.0,1.0,,,,,,,,,yellow,triangle
0.0,4.0,4.0,0.0,6.0,6.0,1172.9794189996028,1.0,1.0,phase_2,go,600.0,350.0,1.0,,,,,,,,,orange,cross
0.0,4.0,4.0,0.0,6.0,6.0,845.4471210002339,1.0,1.0,phase_2,go,600.0,350.0,1.0,,,,,,,,,orange,cross
0.0,6.0,1.0,1.0,6.0,0.0,0.0,1.0,1.0,phase_2,stop,600.0,350.0,4.0,,,,,,,,,green,I
0.0,6.0,1.0,1.0,5.0,0.0,0.0,1.0,1.0,phase_2,stop,600.0,400.0,4.0,,,,,,,,,green,I
0.0,4.0,4.0,0.0,6.0,6.0,801.72701399988,1.0,1.0,phase_2,go,650.0,400.0,1.0,,,,,,,,,orange,cross
0.0,5.0,0.5,1.0,6.0,0.0,0.0,1.0,1.0,phase_2,stop,650.0,400.0,4.0,,,,,,,,,magenta,diamond
0.0,4.0,4.0,0.0,5.0,5.0,897.0040449999033,1.0,1.0,phase_2,go,650.0,450.0,1.0,,,,,,,,,orange,cross
0.0,7.0,2.0,1.0,6.0,0.0,0.0,1.0,1.0,phase_2,stop,650.0,450.0,4.0,,,,,,,,,cyan,hexagon
0.0,2.0,1.0,0.0,6.0,6.0,764.8018240001875,1.0,1.0,phase_2,go,650.0,500.0,1.0,,,,,,,,,gray,square
0.0,5.0,0.5,1.0,5.0,5.0,413.8648120001562,2.0,1.0,phase_2,go,650.0,500.0,1.0,,,,,,,,,magenta,diamond
0.0,4.0,4.0,0.0,5.0,5.0,324.0356639998936,2.0,1.0,phase_2,go,650.0,500.0,1.0,,,,,,,,,orange,cross
0.0,5.0,0.5,1.0,5.0,5.0,383.5226710002644,2.0,1.0,phase_2,go,650.0,500.0,1.0,,,,,,,,,magenta,diamond
0.0,7.0,2.0,1.0,5.0,5.0,311.7736640001567,2.0,1.0,phase_2,stop,650.0,500.0,3.0,,,,,,,,,cyan,hexagon
0.0,8.0,4.0,1.0,5.0,5.0,658.7369119997675,2.0,1.0,phase_2,stop,600.0,500.0,3.0,,,,,,,,,white,circle
0.0,1.0,0.5,0.0,6.0,6.0,340.0401310000234,2.0,1.0,phase_2,go,550.0,500.0,1.0,,,,,,,,,blue,flipped triangle
0.0,8.0,4.0,1.0,5.0,5.0,629.0267819999826,2.0,1.0,phase_2,stop,550.0,500.0,3.0,,,,,,,,,white,circle
0.0,4.0,4.0,0.0,5.0,5.0,716.9154690000141,2.0,1.0,phase_2,go,500.0,500.0,1.0,,,,,,,,,orange,cross
0.0,2.0,1.0,0.0,6.0,6.0,682.9133000001093,2.0,1.0,phase_2,go,500.0,500.0,1.0,,,,,,,,,gray,square
0.0,8.0,4.0,1.0,6.0,6.0,662.9296739997699,2.0,1.0,phase_2,go,500.0,500.0,1.0,,,,,,,,,white,circle
0.0,5.0,0.5,1.0,6.0,6.0,593.8174519997119,2.0,1.0,phase_2,stop,500.0,500.0,3.0,,,,,,,,,magenta,diamond
0.0,3.0,2.0,0.0,6.0,6.0,572.3897719999513,2.0,1.0,phase_2,go,500.0,450.0,1.0,,,,,,,,,yellow,triangle
0.0,8.0,4.0,1.0,5.0,5.0,612.7119640000274,2.0,1.0,phase_2,stop,500.0,450.0,3.0,,,,,,,,,white,circle
0.0,6.0,1.0,1.0,5.0,0.0,0.0,2.0,1.0,phase_2,stop,450.0,450.0,4.0,,,,,,,,,green,I
0.0,7.0,2.0,1.0,6.0,6.0,508.0478650002078,2.0,1.0,phase_2,go,500.0,450.0,1.0,,,,,,,,,cyan,hexagon
0.0,7.0,2.0,1.0,6.0,6.0,586.7417449999266,2.0,1.0,phase_2,stop,500.0,450.0,3.0,,,,,,,,,cyan,hexagon
0.0,3.0,2.0,0.0,5.0,5.0,570.2302899999268,2.0,1.0,phase_2,go,500.0,400.0,1.0,,,,,,,,,yellow,triangle
0.0,5.0,0.5,1.0,5.0,5.0,433.8796450001609,2.0,1.0,phase_2,go,500.0,400.0,1.0,,,,,,,,,magenta,diamond
0.0,4.0,4.0,0.0,5.0,5.0,404.9060259999351,2.0,1.0,phase_2,go,500.0,400.0,1.0,,,,,,,,,orange,cross
0.0,2.0,1.0,0.0,6.0,6.0,574.034980000306,2.0,1.0,phase_2,go,500.0,400.0,1.0,,,,,,,,,gray,square
0.0,2.0,1.0,0.0,5.0,5.0,534.4466649999049,2.0,1.0,phase_2,go,500.0,400.0,1.0,,,,,,,,,gray,square
0.0,8.0,4.0,1.0,6.0,6.0,441.8106019998049,2.0,1.0,phase_2,stop,500.0,400.0,3.0,,,,,,,,,white,circle
0.0,8.0,4.0,1.0,5.0,5.0,555.7457219997559,2.0,1.0,phase_2,go,500.0,350.0,1.0,,,,,,,,,white,circle
0.0,5.0,0.5,1.0,5.0,5.0,397.1481089997724,2.0,1.0,phase_2,stop,500.0,350.0,3.0,,,,,,,,,magenta,diamond
0.0,5.0,0.5,1.0,6.0,6.0,528.3454039999924,2.0,1.0,phase_2,stop,450.0,350.0,3.0,,,,,,,,,magenta,diamond
0.0,4.0,4.0,0.0,5.0,5.0,619.5975549999275,2.0,1.0,phase_2,go,450.0,300.0,1.0,,,,,,,,,orange,cross
0.0,6.0,1.0,1.0,5.0,0.0,0.0,2.0,1.0,phase_2,stop,450.0,300.0,4.0,,,,,,,,,green,I
0.0,7.0,2.0,1.0,5.0,5.0,385.2830200003154,2.0,1.0,phase_2,go,500.0,300.0,1.0,,,,,,,,,cyan,hexagon
0.0,5.0,0.5,1.0,6.0,0.0,0.0,2.0,1.0,phase_2,stop,500.0,300.0,4.0,,,,,,,,,magenta,diamond
0.0,1.0,0.5,0.0,5.0,5.0,707.9198490000636,2.0,1.0,phase_2,go,500.0,350.0,1.0,,,,,,,,,blue,flipped triangle
0.0,5.0,0.5,1.0,5.0,0.0,0.0,2.0,1.0,phase_2,stop,500.0,350.0,4.0,,,,,,,,,magenta,diamond
0.0,5.0,0.5,1.0,5.0,0.0,0.0,2.0,1.0,phase_2,stop,550.0,350.0,4.0,,,,,,,,,magenta,diamond
0.0,4.0,4.0,0.0,5.0,5.0,681.1384950001411,2.0,1.0,phase_2,go,600.0,350.0,1.0,,,,,,,,,orange,cross
0.0,3.0,2.0,0.0,6.0,6.0,417.9103589999613,2.0,1.0,phase_2,go,600.0,350.0,1.0,,,,,,,,,yellow,triangle
0.0,7.0,2.0,1.0,6.0,0.0,0.0,2.0,1.0,phase_2,stop,600.0,350.0,4.0,,,,,,,,,cyan,hexagon
0.0,6.0,1.0,1.0,5.0,5.0,642.376337999849,2.0,1.0,phase_2,stop,600.0,400.0,3.0,,,,,,,,,green,I
0.0,3.0,2.0,0.0,6.0,6.0,520.651660999647,3.0,1.0,phase_2,go,550.0,400.0,1.0,,,,,,,,,yellow,triangle
0.0,2.0,1.0,0.0,5.0,5.0,467.5823219999984,3.0,1.0,phase_2,go,550.0,400.0,1.0,,,,,,,,,gray,square
0.0,4.0,4.0,0.0,5.0,5.0,382.3367530003452,3.0,1.0,phase_2,go,550.0,400.0,1.0,,,,,,,,,orange,cross
0.0,5.0,0.5,1.0,6.0,6.0,528.294538999944,3.0,1.0,phase_2,stop,550.0,400.0,3.0,,,,,,,,,magenta,diamond
0.0,2.0,1.0,0.0,5.0,5.0,631.3241580000977,3.0,1.0,phase_2,go,550.0,350.0,1.0,,,,,,,,,gray,square
0.0,3.0,2.0,0.0,5.0,5.0,372.6732939999237,3.0,1.0,phase_2,go,550.0,350.0,1.0,,,,,,,,,yellow,triangle
0.0,1.0,0.5,0.0,5.0,5.0,597.8596689997175,3.0,1.0,phase_2,go,550.0,350.0,1.0,,,,,,,,,blue,flipped triangle
0.0,5.0,0.5,1.0,6.0,6.0,301.30580299965,3.0,1.0,phase_2,stop,550.0,350.0,3.0,,,,,,,,,magenta,diamond
0.0,8.0,4.0,1.0,6.0,0.0,0.0,3.0,1.0,phase_2,stop,550.0,300.0,4.0,,,,,,,,,white,circle
0.0,1.0,0.5,0.0,6.0,6.0,736.3835639998797,3.0,1.0,phase_2,go,550.0,350.0,1.0,,,,,,,,,blue,flipped triangle
0.0,1.0,0.5,0.0,5.0,5.0,337.3981720001211,3.0,1.0,phase_2,go,550.0,350.0,1.0,,,,,,,,,blue,flipped triangle
0.0,7.0,2.0,1.0,5.0,5.0,592.3426300000756,3.0,1.0,phase_2,stop,550.0,350.0,3.0,,,,,,,,,cyan,hexagon
0.0,2.0,1.0,0.0,6.0,6.0,664.0785469999173,3.0,1.0,phase_2,go,500.0,350.0,1.0,,,,,,,,,gray,square
0.0,3.0,2.0,0.0,5.0,5.0,578.4507860003032,3.0,1.0,phase_2,go,500.0,350.0,1.0,,,,,,,,,yellow,triangle
0.0,2.0,1.0,0.0,5.0,5.0,491.4523289999124,3.0,1.0,phase_2,go,500.0,350.0,1.0,,,,,,,,,gray,square
0.0,1.0,0.5,0.0,5.0,5.0,432.9457709995949,3.0,1.0,phase_2,go,500.0,350.0,1.0,,,,,,,,,blue,flipped triangle
0.0,4.0,4.0,0.0,6.0,6.0,339.7858739999719,3.0,1.0,phase_2,go,500.0,350.0,1.0,,,,,,,,,orange,cross
0.0,2.0,1.0,0.0,5.0,5.0,339.3933910001578,3.0,1.0,phase_2,go,500.0,350.0,1.0,,,,,,,,,gray,square
0.0,3.0,2.0,0.0,6.0,6.0,303.2518130003154,3.0,1.0,phase_2,go,500.0,350.0,1.0,,,,,,,,,yellow,triangle
0.0,5.0,0.5,1.0,6.0,6.0,567.7532019999489,3.0,1.0,phase_2,stop,500.0,350.0,3.0,,,,,,,,,magenta,diamond
0.0,7.0,2.0,1.0,6.0,6.0,399.4912829998611,3.0,1.0,phase_2,stop,500.0,300.0,3.0,,,,,,,,,cyan,hexagon
0.0,8.0,4.0,1.0,6.0,0.0,0.0,3.0,1.0,phase_2,stop,500.0,250.0,4.0,,,,,,,,,white,circle
0.0,8.0,4.0,1.0,5.0,5.0,637.7885709998736,3.0,1.0,phase_2,go,500.0,300.0,1.0,,,,,,,,,white,circle
0.0,5.0,0.5,1.0,5.0,5.0,389.0789150000273,3.0,1.0,phase_2,stop,500.0,300.0,3.0,,,,,,,,,magenta,diamond
0.0,5.0,0.5,1.0,6.0,0.0,0.0,3.0,1.0,phase_2,stop,450.0,300.0,4.0,,,,,,,,,magenta,diamond
0.0,4.0,4.0,0.0,5.0,5.0,661.0726489998342,3.0,1.0,phase_2,go,450.0,350.0,1.0,,,,,,,,,orange,cross
0.0,7.0,2.0,1.0,6.0,0.0,0.0,3.0,1.0,phase_2,stop,450.0,350.0,4.0,,,,,,,,,cyan,hexagon
0.0,8.0,4.0,1.0,5.0,0.0,0.0,3.0,1.0,phase_2,stop,450.0,400.0,4.0,,,,,,,,,white,circle
0.0,1.0,0.5,0.0,6.0,6.0,1052.935219000119,3.0,1.0,phase_2,go,500.0,400.0,1.0,,,,,,,,,blue,flipped triangle
0.0,1.0,0.5,0.0,5.0,5.0,678.9448990002711,3.0,1.0,phase_2,go,500.0,400.0,1.0,,,,,,,,,blue,flipped triangle
0.0,4.0,4.0,0.0,6.0,6.0,360.385504000078,3.0,1.0,phase_2,go,500.0,400.0,1.0,,,,,,,,,orange,cross
0.0,8.0,4.0,1.0,5.0,5.0,389.0357100003712,3.0,1.0,phase_2,stop,500.0,400.0,3.0,,,,,,,,,white,circle
0.0,2.0,1.0,0.0,5.0,5.0,571.2779780001256,3.0,1.0,phase_2,go,450.0,400.0,1.0,,,,,,,,,gray,square
0.0,6.0,1.0,1.0,6.0,6.0,372.9013470001519,3.0,1.0,phase_2,stop,450.0,400.0,3.0,,,,,,,,,green,I
0.0,8.0,4.0,1.0,5.0,0.0,0.0,3.0,1.0,phase_2,stop,450.0,350.0,4.0,,,,,,,,,white,circle
0.0,3.0,2.0,0.0,5.0,5.0,600.7459889997335,3.0,1.0,phase_2,go,500.0,350.0,1.0,,,,,,,,,yellow,triangle
0.0,5.0,0.5,1.0,6.0,6.0,1010.3660419999869,4.0,1.0,phase_2,go,500.0,350.0,1.0,,,,,,,,,magenta,diamond
0.0,5.0,0.5,1.0,6.0,6.0,389.8857359999965,4.0,1.0,phase_2,stop,500.0,350.0,3.0,,,,,,,,,magenta,diamond
0.0,4.0,4.0,0.0,6.0,6.0,385.0880690001759,4.0,1.0,phase_2,go,500.0,300.0,1.0,,,,,,,,,orange,cross
0.0,6.0,1.0,1.0,6.0,0.0,0.0,4.0,1.0,phase_2,stop,500.0,300.0,4.0,,,,,,,,,green,I
0.0,1.0,0.5,0.0,5.0,5.0,354.753590999735,4.0,1.0,phase_2,go,500.0,350.0,1.0,,,,,,,,,blue,flipped triangle
0.0,5.0,0.5,1.0,6.0,6.0,415.0866730001326,4.0,1.0,phase_2,stop,500.0,350.0,3.0,,,,,,,,,magenta,diamond
0.0,1.0,0.5,0.0,5.0,5.0,495.8180040002844,4.0,1.0,phase_2,go,500.0,300.0,1.0,,,,,,,,,blue,flipped triangle
0.0,7.0,2.0,1.0,5.0,5.0,396.4201769999818,4.0,1.0,phase_2,stop,500.0,300.0,3.0,,,,,,,,,cyan,hexagon
0.0,3.0,2.0,0.0,6.0,6.0,528.459569000006,4.0,1.0,phase_2,go,450.0,300.0,1.0,,,,,,,,,yellow,triangle
0.0,7.0,2.0,1.0,5.0,0.0,0.0,4.0,1.0,phase_2,stop,450.0,300.0,4.0,,,,,,,,,cyan,hexagon
0.0,6.0,1.0,1.0,6.0,0.0,0.0,4.0,1.0,phase_2,stop,500.0,300.0,4.0,,,,,,,,,green,I
0.0,6.0,1.0,1.0,5.0,0.0,0.0,4.0,1.0,phase_2,stop,500.0,350.0,4.0,,,,,,,,,green,I
0.0,6.0,1.0,1.0,6.0,6.0,850.6282220000685,4.0,1.0,phase_2,go,550.0,350.0,1.0,,,,,,,,,green,I
0.0,3.0,2.0,0.0,6.0,6.0,396.7474699998092,4.0,1.0,phase_2,go,550.0,350.0,1.0,,,,,,,,,yellow,triangle
0.0,4.0,4.0,0.0,6.0,6.0,729.0556379998634,4.0,1.0,phase_2,go,550.0,350.0,1.0,,,,,,,,,orange,cross
0.0,4.0,4.0,0.0,6.0,6.0,601.970256000186,4.0,1.0,phase_2,go,550.0,350.0,1.0,,,,,,,,,orange,cross
0.0,2.0,1.0,0.0,5.0,5.0,635.2615969999533,4.0,1.0,phase_2,go,550.0,350.0,1.0,,,,,,,,,gray,square
0.0,5.0,0.5,1.0,6.0,0.0,0.0,4.0,1.0,phase_2,stop,550.0,350.0,4.0,,,,,,,,,magenta,diamond
0.0,8.0,4.0,1.0,6.0,0.0,0.0,4.0,1.0,phase_2,stop,550.0,400.0,4.0,,,,,,,,,white,circle
0.0,7.0,2.0,1.0,5.0,5.0,725.2451940003084,4.0,1.0,phase_2,stop,550.0,450.0,3.0,,,,,,,,,cyan,hexagon
0.0,2.0,1.0,0.0,6.0,6.0,759.653456000251,4.0,1.0,phase_2,go,500.0,450.0,1.0,,,,,,,,,gray,square
0.0,3.0,2.0,0.0,5.0,5.0,647.584113999983,4.0,1.0,phase_2,go,500.0,450.0,1.0,,,,,,,,,yellow,triangle
0.0,1.0,0.5,0.0,5.0,5.0,684.1636899998775,4.0,1.0,phase_2,go,500.0,450.0,1.0,,,,,,,,,blue,flipped triangle
0.0,6.0,1.0,1.0,6.0,0.0,0.0,4.0,1.0,phase_2,stop,500.0,450.0,4.0,,,,,,,,,green,I
0.0,2.0,1.0,0.0,6.0,6.0,823.1906379996872,4.0,1.0,phase_2,go,500.0,500.0,1.0,,,,,,,,,gray,square
0.0,4.0,4.0,0.0,5.0,5.0,719.3527169997651,4.0,1.0,phase_2,go,500.0,500.0,1.0,,,,,,,,,orange,cross
0.0,1.0,0.5,0.0,5.0,5.0,796.003008000298,4.0,1.0,phase_2,go,500.0,500.0,1.0,,,,,,,,,blue,flipped triangle
0.0,3.0,2.0,0.0,5.0,5.0,710.4746540003362,4.0,1.0,phase_2,go,500.0,500.0,1.0,,,,,,,,,yellow,triangle
0.0,6.0,1.0,1.0,5.0,0.0,0.0,4.0,1.0,phase_2,stop,500.0,500.0,4.0,,,,,,,,,green,I
0.0,1.0,0.5,0.0,6.0,6.0,767.0975619998899,4.0,1.0,phase_2,go,550.0,500.0,1.0,,,,,,,,,blue,flipped triangle
0.0,8.0,4.0,1.0,6.0,0.0,0.0,4.0,1.0,phase_2,stop,550.0,500.0,4.0,,,,,,,,,white,circle
0.0,3.0,2.0,0.0,6.0,6.0,791.1049619997357,4.0,1.0,phase_2,go,550.0,550.0,1.0,,,,,,,,,yellow,triangle
0.0,2.0,1.0,0.0,5.0,5.0,444.1029829999934,4.0,1.0,phase_2,go,550.0,550.0,1.0,,,,,,,,,gray,square
0.0,6.0,1.0,1.0,6.0,6.0,573.3646250000675,4.0,1.0,phase_2,go,550.0,550.0,1.0,,,,,,,,,green,I
0.0,2.0,1.0,0.0,5.0,5.0,656.9563770003697,4.0,1.0,phase_2,go,550.0,550.0,1.0,,,,,,,,,gray,square
0.0,7.0,2.0,1.0,5.0,5.0,386.1558959997637,4.0,1.0,phase_2,stop,550.0,550.0,3.0,,,,,,,,,cyan,hexagon
0.0,1.0,0.5,0.0,5.0,5.0,412.2304880002048,5.0,1.0,phase_2,go,500.0,550.0,1.0,,,,,,,,,blue,flipped triangle
0.0,2.0,1.0,0.0,6.0,6.0,441.5173980000872,5.0,1.0,phase_2,go,500.0,550.0,1.0,,,,,,,,,gray,square
0.0,6.0,1.0,1.0,6.0,6.0,342.8801529998964,5.0,1.0,phase_2,go,500.0,550.0,1.0,,,,,,,,,green,I
0.0,3.0,2.0,0.0,6.0,6.0,612.9986509999981,5.0,1.0,phase_2,go,500.0,550.0,1.0,,,,,,,,,yellow,triangle
0.0,8.0,4.0,1.0,6.0,6.0,353.5705110002709,5.0,1.0,phase_2,stop,500.0,550.0,3.0,,,,,,,,,white,circle
0.0,3.0,2.0,0.0,6.0,6.0,328.1446490000235,5.0,1.0,phase_2,go,500.0,500.0,1.0,,,,,,,,,yellow,triangle
0.0,5.0,0.5,1.0,5.0,5.0,349.9221699998998,5.0,1.0,phase_2,stop,500.0,500.0,3.0,,,,,,,,,magenta,diamond
0.0,1.0,0.5,0.0,6.0,6.0,343.0754659998456,5.0,1.0,phase_2,go,450.0,500.0,1.0,,,,,,,,,blue,flipped triangle
0.0,2.0,1.0,0.0,5.0,5.0,422.2147400000722,5.0,1.0,phase_2,go,450.0,500.0,1.0,,,,,,,,,gray,square
0.0,3.0,2.0,0.0,5.0,5.0,728.8595489999352,5.0,1.0,phase_2,go,450.0,500.0,1.0,,,,,,,,,yellow,triangle
0.0,5.0,0.5,1.0,6.0,6.0,297.7294539996364,5.0,1.0,phase_2,stop,450.0,500.0,3.0,,,,,,,,,magenta,diamond
0.0,4.0,4.0,0.0,6.0,6.0,362.1739039999738,5.0,1.0,phase_2,go,450.0,450.0,1.0,,,,,,,,,orange,cross
0.0,1.0,0.5,0.0,6.0,6.0,375.5846689991813,5.0,1.0,phase_2,go,450.0,450.0,1.0,,,,,,,,,blue,flipped triangle
0.0,8.0,4.0,1.0,6.0,6.0,637.3004090000904,5.0,1.0,phase_2,stop,450.0,450.0,3.0,,,,,,,,,white,circle
0.0,2.0,1.0,0.0,6.0,6.0,581.3290650003182,5.0,1.0,phase_2,go,450.0,400.0,1.0,,,,,,,,,gray,square
0.0,8.0,4.0,1.0,6.0,0.0,0.0,5.0,1.0,phase_2,stop,450.0,400.0,4.0,,,,,,,,,white,circle
0.0,8.0,4.0,1.0,6.0,6.0,607.912746000693,5.0,1.0,phase_2,stop,450.0,450.0,3.0,,,,,,,,,white,circle
0.0,6.0,1.0,1.0,6.0,0.0,0.0,5.0,1.0,phase_2,stop,450.0,400.0,4.0,,,,,,,,,green,I
0.0,1.0,0.5,0.0,5.0,5.0,374.9083820002852,5.0,1.0,phase_2,go,450.0,450.0,1.0,,,,,,,,,blue,flipped triangle
0.0,3.0,2.0,0.0,6.0,6.0,662.9101280004761,5.0,1.0,phase_2,go,450.0,450.0,1.0,,,,,,,,,yellow,triangle
0.0,2.0,1.0,0.0,6.0,6.0,329.9350280003637,5.0,1.0,phase_2,go,450.0,450.0,1.0,,,,,,,,,gray,square
0.0,8.0,4.0,1.0,5.0,5.0,410.5274570001711,5.0,1.0,phase_2,go,450.0,450.0,1.0,,,,,,,,,white,circle
0.0,6.0,1.0,1.0,5.0,5.0,745.4974100000982,5.0,1.0,phase_2,go,450.0,450.0,1.0,,,,,,,,,green,I
0.0,7.0,2.0,1.0,5.0,5.0,367.0018459997664,5.0,1.0,phase_2,stop,450.0,450.0,3.0,,,,,,,,,cyan,hexagon
0.0,3.0,2.0,0.0,5.0,5.0,609.2195920000449,5.0,1.0,phase_2,go,400.0,450.0,1.0,,,,,,,,,yellow,triangle
0.0,3.0,2.0,0.0,6.0,6.0,622.7385350002805,5.0,1.0,phase_2,go,400.0,450.0,1.0,,,,,,,,,yellow,triangle
0.0,7.0,2.0,1.0,6.0,6.0,651.8783669998811,5.0,1.0,phase_2,stop,400.0,450.0,3.0,,,,,,,,,cyan,hexagon
0.0,1.0,0.5,0.0,6.0,6.0,670.3194960000474,5.0,1.0,phase_2,go,400.0,400.0,1.0,,,,,,,,,blue,flipped triangle
0.0,2.0,1.0,0.0,5.0,5.0,562.2739780001211,5.0,1.0,phase_2,go,400.0,400.0,1.0,,,,,,,,,gray,square
0.0,5.0,0.5,1.0,5.0,5.0,545.9070010001597,5.0,1.0,phase_2,stop,400.0,400.0,3.0,,,,,,,,,magenta,diamond
0.0,3.0,2.0,0.0,5.0,5.0,621.1802610005179,5.0,1.0,phase_2,go,350.0,400.0,1.0,,,,,,,,,yellow,triangle
0.0,1.0,0.5,0.0,5.0,5.0,669.1922290001457,5.0,1.0,phase_2,go,350.0,400.0,1.0,,,,,,,,,blue,flipped triangle
0.0,7.0,2.0,1.0,6.0,6.0,461.7628169999079,5.0,1.0,phase_2,go,350.0,400.0,1.0,,,,,,,,,cyan,hexagon
0.0,7.0,2.0,1.0,5.0,5.0,352.2410530003981,5.0,1.0,phase_2,go,350.0,400.0,1.0,,,,,,,,,cyan,hexagon
0.0,3.0,2.0,0.0,6.0,6.0,626.3274029997774,5.0,1.0,phase_2,go,350.0,400.0,1.0,,,,,,,,,yellow,triangle
0.0,8.0,4.0,1.0,6.0,6.0,600.7044600000881,5.0,1.0,phase_2,stop,350.0,400.0,3.0,,,,,,,,,white,circle
0.0,8.0,4.0,1.0,5.0,5.0,429.488689000209,6.0,1.0,phase_2,stop,350.0,350.0,3.0,,,,,,,,,white,circle
0.0,4.0,4.0,0.0,6.0,6.0,603.5154970004442,6.0,1.0,phase_2,go,300.0,350.0,1.0,,,,,,,,,orange,cross
0.0,8.0,4.0,1.0,5.0,5.0,580.4854100006196,6.0,1.0,phase_2,go,300.0,350.0,1.0,,,,,,,,,white,circle
0.0,8.0,4.0,1.0,5.0,5.0,382.0465649996549,6.0,1.0,phase_2,stop,300.0,350.0,3.0,,,,,,,,,white,circle
0.0,3.0,2.0,0.0,5.0,5.0,488.6188240006959,6.0,1.0,phase_2,go,250.0,350.0,1.0,,,,,,,,,yellow,triangle
0.0,1.0,0.5,0.0,6.0,6.0,609.8393680003937,6.0,1.0,phase_2,go,250.0,350.0,1.0,,,,,,,,,blue,flipped triangle
0.0,8.0,4.0,1.0,6.0,6.0,634.0008209999723,6.0,1.0,phase_2,go,250.0,350.0,1.0,,,,,,,,,white,circle
0.0,5.0,0.5,1.0,5.0,5.0,371.692124999754,6.0,1.0,phase_2,stop,250.0,350.0,3.0,,,,,,,,,magenta,diamond
0.0,4.0,4.0,0.0,5.0,5.0,691.2952190004944,6.0,1.0,phase_2,go,200.0,350.0,1.0,,,,,,,,,orange,cross
0.0,3.0,2.0,0.0,5.0,5.0,360.3597800001807,6.0,1.0,phase_2,go,200.0,350.0,1.0,,,,,,,,,yellow,triangle
0.0,2.0,1.0,0.0,6.0,6.0,422.018697000567,6.0,1.0,phase_2,go,200.0,350.0,1.0,,,,,,,,,gray,square
0.0,8.0,4.0,1.0,5.0,5.0,363.7655110005653,6.0,1.0,phase_2,stop,200.0,350.0,3.0,,,,,,,,,white,circle
0.0,6.0,1.0,1.0,5.0,0.0,0.0,6.0,1.0,phase_2,stop,150.0,350.0,4.0,,,,,,,,,green,I
0.0,6.0,1.0,1.0,5.0,5.0,805.4362819993912,6.0,1.0,phase_2,go,200.0,350.0,1.0,,,,,,,,,green,I
0.0,1.0,0.5,0.0,6.0,6.0,566.873108999971,6.0,1.0,phase_2,go,200.0,350.0,1.0,,,,,,,,,blue,flipped triangle
0.0,4.0,4.0,0.0,5.0,5.0,612.4674600005164,6.0,1.0,phase_2,go,200.0,350.0,1.0,,,,,,,,,orange,cross
0.0,3.0,2.0,0.0,5.0,5.0,580.7545679999748,6.0,1.0,phase_2,go,200.0,350.0,1.0,,,,,,,,,yellow,triangle
0.0,8.0,4.0,1.0,6.0,6.0,410.9803060000558,6.0,1.0,phase_2,stop,200.0,350.0,3.0,,,,,,,,,white,circle
0.0,7.0,2.0,1.0,6.0,0.0,0.0,6.0,1.0,phase_2,stop,200.0,300.0,4.0,,,,,,,,,cyan,hexagon
0.0,1.0,0.5,0.0,5.0,5.0,608.7202799999432,6.0,1.0,phase_2,go,200.0,350.0,1.0,,,,,,,,,blue,flipped triangle
0.0,5.0,0.5,1.0,6.0,6.0,645.4776289992878,6.0,1.0,phase_2,go,200.0,350.0,1.0,,,,,,,,,magenta,diamond
0.0,1.0,0.5,0.0,6.0,6.0,680.9008990003349,6.0,1.0,phase_2,go,200.0,350.0,1.0,,,,,,,,,blue,flipped triangle
0.0,2.0,1.0,0.0,6.0,6.0,884.2023819997848,6.0,1.0,phase_2,go,200.0,350.0,1.0,,,,,,,,,gray,square
0.0,2.0,1.0,0.0,5.0,5.0,692.9465230005007,6.0,1.0,phase_2,go,200.0,350.0,1.0,,,,,,,,,gray,square
0.0,4.0,4.0,0.0,5.0,5.0,756.9054810001035,6.0,1.0,phase_2,go,200.0,350.0,1.0,,,,,,,,,orange,cross
0.0,7.0,2.0,1.0,6.0,6.0,651.0415860002468,6.0,1.0,phase_2,go,200.0,350.0,1.0,,,,,,,,,cyan,hexagon
0.0,4.0,4.0,0.0,5.0,5.0,623.9256799999566,6.0,1.0,phase_2,go,200.0,350.0,1.0,,,,,,,,,orange,cross
0.0,6.0,1.0,1.0,6.0,6.0,462.693360999765,6.0,1.0,phase_2,stop,200.0,350.0,3.0,,,,,,,,,green,I
0.0,3.0,2.0,0.0,6.0,6.0,791.9263559997489,6.0,1.0,phase_2,go,200.0,300.0,1.0,,,,,,,,,yellow,triangle
0.0,2.0,1.0,0.0,6.0,6.0,794.4696080003268,6.0,1.0,phase_2,go,200.0,300.0,1.0,,,,,,,,,gray,square
0.0,5.0,0.5,1.0,6.0,0.0,0.0,6.0,1.0,phase_2,stop,200.0,300.0,4.0,,,,,,,,,magenta,diamond
0.0,5.0,0.5,1.0,6.0,0.0,0.0,6.0,1.0,phase_2,stop,200.0,350.0,4.0,,,,,,,,,magenta,diamond
0.0,4.0,4.0,0.0,5.0,5.0,593.3231069993781,6.0,1.0,phase_2,go,200.0,400.0,1.0,,,,,,,,,orange,cross
0.0,4.0,4.0,0.0,6.0,6.0,586.3206309995803,6.0,1.0,phase_2,go,200.0,400.0,1.0,,,,,,,,,orange,cross
0.0,7.0,2.0,1.0,5.0,0.0,0.0,6.0,1.0,phase_2,stop,200.0,400.0,4.0,,,,,,,,,cyan,hexagon
0.0,1.0,0.5,0.0,6.0,6.0,424.173449000591,6.0,1.0,phase_2,go,250.0,400.0,1.0,,,,,,,,,blue,flipped triangle
0.0,5.0,0.5,1.0,5.0,5.0,389.6087849998366,7.0,1.0,phase_2,stop,250.0,400.0,3.0,,,,,,,,,magenta,diamond
0.0,7.0,2.0,1.0,6.0,6.0,477.2970499998337,7.0,1.0,phase_2,stop,200.0,400.0,3.0,,,,,,,,,cyan,hexagon
0.0,3.0,2.0,0.0,6.0,6.0,659.9682100004429,7.0,1.0,phase_2,go,200.0,350.0,1.0,,,,,,,,,yellow,triangle
0.0,6.0,1.0,1.0,6.0,0.0,0.0,7.0,1.0,phase_2,stop,200.0,350.0,4.0,,,,,,,,,green,I
0.0,5.0,0.5,1.0,5.0,0.0,0.0,7.0,1.0,phase_2,stop,200.0,400.0,4.0,,,,,,,,,magenta,diamond
0.0,6.0,1.0,1.0,5.0,5.0,676.1840730005133,7.0,1.0,phase_2,go,250.0,400.0,1.0,,,,,,,,,green,I
0.0,6.0,1.0,1.0,5.0,0.0,0.0,7.0,1.0,phase_2,stop,250.0,400.0,4.0,,,,,,,,,green,I
0.0,6.0,1.0,1.0,6.0,0.0,0.0,7.0,1.0,phase_2,stop,300.0,400.0,4.0,,,,,,,,,green,I
0.0,4.0,4.0,0.0,6.0,6.0,745.4208330000256,7.0,1.0,phase_2,go,300.0,450.0,1.0,,,,,,,,,orange,cross
0.0,4.0,4.0,0.0,5.0,5.0,399.9574370000118,7.0,1.0,phase_2,go,300.0,450.0,1.0,,,,,,,,,orange,cross
0.0,2.0,1.0,0.0,6.0,6.0,622.2254189997329,7.0,1.0,phase_2,go,300.0,450.0,1.0,,,,,,,,,gray,square
0.0,7.0,2.0,1.0,6.0,6.0,699.6125949999623,7.0,1.0,phase_2,stop,300.0,450.0,3.0,,,,,,,,,cyan,hexagon
0.0,2.0,1.0,0.0,6.0,6.0,826.5042309994897,7.0,1.0,phase_2,go,300.0,400.0,1.0,,,,,,,,,gray,square
0.0,1.0,0.5,0.0,5.0,5.0,589.3767080006,7.0,1.0,phase_2,go,300.0,400.0,1.0,,,,,,,,,blue,flipped triangle
0.0,6.0,1.0,1.0,6.0,0.0,0.0,7.0,1.0,phase_2,stop,300.0,400.0,4.0,,,,,,,,,green,I
0.0,8.0,4.0,1.0,5.0,0.0,0.0,7.0,1.0,phase_2,stop,300.0,450.0,4.0,,,,,,,,,white,circle
0.0,8.0,4.0,1.0,6.0,6.0,738.6233699999138,7.0,1.0,phase_2,go,350.0,450.0,1.0,,,,,,,,,white,circle
0.0,1.0,0.5,0.0,5.0,5.0,680.4679259994373,7.0,1.0,phase_2,go,350.0,450.0,1.0,,,,,,,,,blue,flipped triangle
0.0,8.0,4.0,1.0,5.0,5.0,565.7100870002978,7.0,1.0,phase_2,go,350.0,450.0,1.0,,,,,,,,,white,circle
0.0,7.0,2.0,1.0,6.0,6.0,642.9685900002369,7.0,1.0,phase_2,stop,350.0,450.0,3.0,,,,,,,,,cyan,hexagon
0.0,5.0,0.5,1.0,5.0,0.0,0.0,7.0,1.0,phase_2,stop,350.0,400.0,4.0,,,,,,,,,magenta,diamond
0.0,2.0,1.0,0.0,5.0,5.0,643.2773370006544,7.0,1.0,phase_2,go,400.0,400.0,1.0,,,,,,,,,gray,square
0.0,6.0,1.0,1.0,6.0,6.0,728.4192739998616,7.0,1.0,phase_2,go,400.0,400.0,1.0,,,,,,,,,green,I
0.0,1.0,0.5,0.0,6.0,6.0,398.1565849999242,7.0,1.0,phase_2,go,400.0,400.0,1.0,,,,,,,,,blue,flipped triangle
0.0,5.0,0.5,1.0,6.0,6.0,453.3618330005993,7.0,1.0,phase_2,go,400.0,400.0,1.0,,,,,,,,,magenta,diamond
0.0,5.0,0.5,1.0,5.0,5.0,465.5570920003811,7.0,1.0,phase_2,stop,400.0,400.0,3.0,,,,,,,,,magenta,diamond
0.0,3.0,2.0,0.0,6.0,6.0,456.1013720003757,7.0,1.0,phase_2,go,350.0,400.0,1.0,,,,,,,,,yellow,triangle
0.0,3.0,2.0,0.0,5.0,5.0,405.0460700000258,7.0,1.0,phase_2,go,350.0,400.0,1.0,,,,,,,,,yellow,triangle
0.0,2.0,1.0,0.0,6.0,6.0,499.9022790007075,7.0,1.0,phase_2,go,350.0,400.0,1.0,,,,,,,,,gray,square
0.0,8.0,4.0,1.0,6.0,0.0,0.0,7.0,1.0,phase_2,stop,350.0,400.0,4.0,,,,,,,,,white,circle
0.0,4.0,4.0,0.0,5.0,5.0,572.8915780000534,7.0,1.0,phase_2,go,350.0,450.0,1.0,,,,,,,,,orange,cross
0.0,1.0,0.5,0.0,6.0,6.0,560.2219530001094,7.0,1.0,phase_2,go,350.0,450.0,1.0,,,,,,,,,blue,flipped triangle
0.0,3.0,2.0,0.0,5.0,5.0,372.6397059999726,7.0,1.0,phase_2,go,350.0,450.0,1.0,,,,,,,,,yellow,triangle
0.0,6.0,1.0,1.0,5.0,5.0,465.2280330001304,7.0,1.0,phase_2,go,350.0,450.0,1.0,,,,,,,,,green,I
0.0,7.0,2.0,1.0,6.0,6.0,567.5172060000477,7.0,1.0,phase_2,go,350.0,450.0,1.0,,,,,,,,,cyan,hexagon
0.0,5.0,0.5,1.0,5.0,5.0,651.7665929995928,7.0,1.0,phase_2,go,350.0,450.0,1.0,,,,,,,,,magenta,diamond
0.0,5.0,0.5,1.0,6.0,6.0,414.6843819999048,8.0,1.0,phase_2,stop,350.0,450.0,3.0,,,,,,,,,magenta,diamond
0.0,3.0,2.0,0.0,6.0,6.0,400.7775360005325,8.0,1.0,phase_2,go,350.0,400.0,1.0,,,,,,,,,yellow,triangle
0.0,2.0,1.0,0.0,6.0,6.0,427.893254999617,8.0,1.0,phase_2,go,350.0,400.0,1.0,,,,,,,,,gray,square
0.0,4.0,4.0,0.0,5.0,5.0,352.755101999719,8.0,1.0,phase_2,go,350.0,400.0,1.0,,,,,,,,,orange,cross
0.0,8.0,4.0,1.0,6.0,6.0,438.4539980001136,8.0,1.0,phase_2,stop,350.0,400.0,3.0,,,,,,,,,white,circle
0.0,2.0,1.0,0.0,6.0,6.0,616.790702999424,8.0,1.0,phase_2,go,350.0,350.0,1.0,,,,,,,,,gray,square
0.0,6.0,1.0,1.0,6.0,6.0,410.4314180003712,8.0,1.0,phase_2,stop,350.0,350.0,3.0,,,,,,,,,green,I
0.0,6.0,1.0,1.0,5.0,0.0,0.0,8.0,1.0,phase_2,stop,350.0,300.0,4.0,,,,,,,,,green,I
0.0,5.0,0.5,1.0,5.0,5.0,635.9420060007324,8.0,1.0,phase_2,go,400.0,300.0,1.0,,,,,,,,,magenta,diamond
0.0,1.0,0.5,0.0,6.0,6.0,665.3724699999657,8.0,1.0,phase_2,go,400.0,300.0,1.0,,,,,,,,,blue,flipped triangle
0.0,4.0,4.0,0.0,6.0,6.0,676.3784469994789,8.0,1.0,phase_2,go,400.0,300.0,1.0,,,,,,,,,orange,cross
0.0,7.0,2.0,1.0,6.0,0.0,0.0,8.0,1.0,phase_2,stop,400.0,300.0,4.0,,,,,,,,,cyan,hexagon
0.0,1.0,0.5,0.0,6.0,6.0,690.8797330006564,8.0,1.0,phase_2,go,400.0,350.0,1.0,,,,,,,,,blue,flipped triangle
0.0,2.0,1.0,0.0,6.0,6.0,775.2372550003201,8.0,1.0,phase_2,go,400.0,350.0,1.0,,,,,,,,,gray,square
0.0,4.0,4.0,0.0,6.0,6.0,785.9364779997122,8.0,1.0,phase_2,go,400.0,350.0,1.0,,,,,,,,,orange,cross
0.0,1.0,0.5,0.0,5.0,5.0,736.9760609999503,8.0,1.0,phase_2,go,400.0,350.0,1.0,,,,,,,,,blue,flipped triangle
0.0,4.0,4.0,0.0,6.0,6.0,454.9076539997259,8.0,1.0,phase_2,go,400.0,350.0,1.0,,,,,,,,,orange,cross
0.0,7.0,2.0,1.0,6.0,6.0,664.8913070002891,8.0,1.0,phase_2,go,400.0,350.0,1.0,,,,,,,,,cyan,hexagon
0.0,6.0,1.0,1.0,6.0,0.0,0.0,8.0,1.0,phase_2,stop,400.0,350.0,4.0,,,,,,,,,green,I
0.0,3.0,2.0,0.0,5.0,5.0,636.5624640002352,8.0,1.0,phase_2,go,400.0,400.0,1.0,,,,,,,,,yellow,triangle
0.0,4.0,4.0,0.0,6.0,6.0,721.9041270000162,8.0,1.0,phase_2,go,400.0,400.0,1.0,,,,,,,,,orange,cross
0.0,6.0,1.0,1.0,5.0,0.0,0.0,8.0,1.0,phase_2,stop,400.0,400.0,4.0,,,,,,,,,green,I
0.0,7.0,2.0,1.0,5.0,0.0,0.0,8.0,1.0,phase_2,stop,450.0,400.0,4.0,,,,,,,,,cyan,hexagon
0.0,7.0,2.0,1.0,6.0,0.0,0.0,8.0,1.0,phase_2,stop,500.0,400.0,4.0,,,,,,,,,cyan,hexagon
0.0,8.0,4.0,1.0,6.0,6.0,630.1884989998143,8.0,1.0,phase_2,go,500.0,450.0,1.0,,,,,,,,,white,circle
0.0,1.0,0.5,0.0,6.0,6.0,414.6618989998387,8.0,1.0,phase_2,go,500.0,450.0,1.0,,,,,,,,,blue,flipped triangle
0.0,7.0,2.0,1.0,6.0,6.0,586.7732839997188,8.0,1.0,phase_2,stop,500.0,450.0,3.0,,,,,,,,,cyan,hexagon
0.0,7.0,2.0,1.0,5.0,5.0,680.6681460002437,8.0,1.0,phase_2,stop,500.0,400.0,3.0,,,,,,,,,cyan,hexagon
0.0,7.0,2.0,1.0,5.0,0.0,0.0,8.0,1.0,phase_2,stop,450.0,400.0,4.0,,,,,,,,,cyan,hexagon
0.0,1.0,0.5,0.0,6.0,6.0,719.3170250002368,8.0,1.0,phase_2,go,500.0,400.0,1.0,,,,,,,,,blue,flipped triangle
0.0,4.0,4.0,0.0,6.0,6.0,612.6089750005121,8.0,1.0,phase_2,go,500.0,400.0,1.0,,,,,,,,,orange,cross
0.0,2.0,1.0,0.0,5.0,5.0,607.7700939995339,8.0,1.0,phase_2,go,500.0,400.0,1.0,,,,,,,,,gray,square
0.0,7.0,2.0,1.0,5.0,0.0,0.0,8.0,1.0,phase_2,stop,500.0,400.0,4.0,,,,,,,,,cyan,hexagon
0.0,5.0,0.5,1.0,5.0,5.0,777.5533770000038,8.0,1.0,phase_2,go,550.0,400.0,1.0,,,,,,,,,magenta,diamond
0.0,7.0,2.0,1.0,5.0,5.0,736.217234999458,8.0,1.0,phase_2,go,550.0,400.0,1.0,,,,,,,,,cyan,hexagon
0.0,8.0,4.0,1.0,5.0,5.0,590.6665709999288,8.0,1.0,phase_2,stop,550.0,400.0,3.0,,,,,,,,,white,circle
0.0,5.0,0.5,1.0,7.0,5.0,2924.561490000088,1.0,1.0,phase_3,,,,,196.0,4.0,49.0,147.0,245.0,98.0,196.0,294.0,magenta,diamond
0.0,3.0,2.0,0.0,7.0,4.0,1978.6429610003324,1.0,1.0,phase_3,,,,,54.0,1.0,162.0,216.0,270.0,54.0,108.0,324.0,yellow,triangle
0.0,1.0,0.5,0.0,7.0,6.0,1297.01815899989,1.0,1.0,phase_3,,,,,170.0,5.0,136.0,102.0,34.0,204.0,68.0,170.0,blue,flipped triangle
0.0,4.0,4.0,0.0,7.0,4.0,1385.5029349997494,1.0,1.0,phase_3,,,,,220.0,5.0,176.0,88.0,44.0,220.0,264.0,132.0,orange,cross
0.0,8.0,4.0,1.0,7.0,3.0,1667.950985999596,1.0,1.0,phase_3,,,,,176.0,4.0,44.0,88.0,176.0,132.0,264.0,220.0,white,circle
0.0,7.0,2.0,1.0,7.0,4.0,1615.1987429993824,1.0,1.0,phase_3,,,,,196.0,4.0,294.0,49.0,98.0,196.0,245.0,147.0,cyan,hexagon
0.0,6.0,1.0,1.0,7.0,3.0,1208.4468220000415,1.0,1.0,phase_3,,,,,294.0,6.0,196.0,147.0,294.0,49.0,98.0,245.0,green,I
0.0,5.0,0.5,1.0,7.0,2.0,1334.4179080004324,1.0,1.0,phase_3,,,,,195.0,5.0,78.0,195.0,156.0,39.0,117.0,234.0,magenta,diamond
0.0,6.0,1.0,1.0,7.0,3.0,1403.7606029996823,1.0,1.0,phase_3,,,,,245.0,5.0,196.0,294.0,245.0,49.0,98.0,147.0,green,I
0.0,8.0,4.0,1.0,7.0,5.0,1235.3069660002802,1.0,1.0,phase_3,,,,,78.0,2.0,39.0,195.0,234.0,156.0,78.0,117.0,white,circle
0.0,2.0,1.0,0.0,7.0,3.0,1277.8180610002892,1.0,1.0,phase_3,,,,,162.0,3.0,324.0,54.0,162.0,270.0,108.0,216.0,gray,square
0.0,7.0,2.0,1.0,7.0,6.0,956.4005520005594,1.0,1.0,phase_3,,,,,39.0,1.0,78.0,234.0,156.0,117.0,195.0,39.0,cyan,hexagon
0.0,8.0,4.0,1.0,7.0,5.0,832.0400009997684,1.0,1.0,phase_3,,,,,162.0,3.0,216.0,324.0,54.0,108.0,162.0,270.0,white,circle
0.0,6.0,1.0,1.0,7.0,3.0,1038.1086309998864,1.0,1.0,phase_3,,,,,324.0,6.0,54.0,108.0,324.0,270.0,162.0,216.0,green,I
0.0,4.0,4.0,0.0,7.0,2.0,660.3135149998707,1.0,1.0,phase_3,,,,,156.0,4.0,234.0,156.0,195.0,117.0,78.0,39.0,orange,cross
0.0,8.0,4.0,1.0,7.0,5.0,509.0441500005909,1.0,1.0,phase_3,,,,,117.0,3.0,195.0,234.0,78.0,39.0,117.0,156.0,white,circle
0.0,1.0,0.5,0.0,7.0,2.0,1155.0843770000938,1.0,1.0,phase_3,,,,,34.0,1.0,170.0,34.0,136.0,102.0,204.0,68.0,blue,flipped triangle
0.0,3.0,2.0,0.0,7.0,2.0,627.4793839993436,1.0,1.0,phase_3,,,,,245.0,5.0,49.0,245.0,294.0,147.0,98.0,196.0,yellow,triangle
0.0,2.0,1.0,0.0,7.0,1.0,431.6391230004228,1.0,1.0,phase_3,,,,,156.0,4.0,156.0,195.0,39.0,117.0,234.0,78.0,gray,square
0.0,3.0,2.0,0.0,7.0,5.0,441.1433639997995,1.0,1.0,phase_3,,,,,78.0,2.0,234.0,39.0,117.0,195.0,78.0,156.0,yellow,triangle
0.0,3.0,2.0,0.0,7.0,5.0,561.9912920001298,2.0,1.0,phase_3,,,,,216.0,4.0,270.0,54.0,108.0,324.0,216.0,162.0,yellow,triangle
0.0,5.0,0.5,1.0,7.0,2.0,604.148971999166,2.0,1.0,phase_3,,,,,88.0,2.0,220.0,88.0,264.0,132.0,176.0,44.0,magenta,diamond
0.0,1.0,0.5,0.0,7.0,4.0,616.3134989992614,2.0,1.0,phase_3,,,,,78.0,2.0,156.0,39.0,117.0,78.0,195.0,234.0,blue,flipped triangle
0.0,5.0,0.5,1.0,7.0,2.0,409.1776489995027,2.0,1.0,phase_3,,,,,324.0,6.0,162.0,324.0,216.0,270.0,54.0,108.0,magenta,diamond
0.0,1.0,0.5,0.0,7.0,6.0,1009.8805229999923,2.0,1.0,phase_3,,,,,147.0,3.0,245.0,294.0,49.0,98.0,196.0,147.0,blue,flipped triangle
0.0,4.0,4.0,0.0,7.0,2.0,417.5348879998637,2.0,1.0,phase_3,,,,,195.0,5.0,156.0,195.0,39.0,78.0,117.0,234.0,orange,cross
0.0,7.0,2.0,1.0,7.0,5.0,396.8122030000813,2.0,1.0,phase_3,,,,,117.0,3.0,39.0,78.0,234.0,195.0,117.0,156.0,cyan,hexagon
0.0,6.0,1.0,1.0,7.0,1.0,446.446842000114,2.0,1.0,phase_3,,,,,195.0,5.0,195.0,117.0,156.0,234.0,78.0,39.0,green,I
0.0,1.0,0.5,0.0,7.0,5.0,495.9303120003824,2.0,1.0,phase_3,,,,,220.0,5.0,44.0,176.0,132.0,88.0,220.0,264.0,blue,flipped triangle
0.0,2.0,1.0,0.0,7.0,6.0,381.9328379995568,2.0,1.0,phase_3,,,,,156.0,4.0,195.0,39.0,78.0,117.0,234.0,156.0,gray,square
0.0,4.0,4.0,0.0,7.0,2.0,382.9848400000628,2.0,1.0,phase_3,,,,,162.0,3.0,216.0,162.0,108.0,270.0,54.0,324.0,orange,cross
0.0,8.0,4.0,1.0,7.0,4.0,377.0553750000545,2.0,1.0,phase_3,,,,,216.0,4.0,108.0,54.0,270.0,216.0,324.0,162.0,white,circle
0.0,3.0,2.0,0.0,7.0,2.0,386.6166850002628,2.0,1.0,phase_3,,,,,39.0,1.0,195.0,39.0,234.0,117.0,78.0,156.0,yellow,triangle
0.0,7.0,2.0,1.0,7.0,6.0,329.7113930002524,2.0,1.0,phase_3,,,,,136.0,4.0,68.0,204.0,102.0,170.0,34.0,136.0,cyan,hexagon
0.0,7.0,2.0,1.0,7.0,2.0,386.7719070003659,2.0,1.0,phase_3,,,,,44.0,1.0,132.0,44.0,176.0,88.0,220.0,264.0,cyan,hexagon
0.0,3.0,2.0,0.0,7.0,5.0,473.9187400000446,2.0,1.0,phase_3,,,,,294.0,6.0,147.0,49.0,245.0,196.0,294.0,98.0,yellow,triangle
0.0,4.0,4.0,0.0,7.0,4.0,439.7530959995492,2.0,1.0,phase_3,,,,,44.0,1.0,220.0,132.0,264.0,44.0,88.0,176.0,orange,cross
0.0,2.0,1.0,0.0,7.0,3.0,187.7344169997741,2.0,1.0,phase_3,,,,,264.0,6.0,176.0,132.0,264.0,220.0,88.0,44.0,gray,square
0.0,1.0,0.5,0.0,7.0,2.0,546.6171810003289,2.0,1.0,phase_3,,,,,54.0,1.0,270.0,54.0,324.0,108.0,216.0,162.0,blue,flipped triangle
0.0,5.0,0.5,1.0,7.0,5.0,470.1273489999948,2.0,1.0,phase_3,,,,,68.0,2.0,204.0,136.0,34.0,170.0,68.0,102.0,magenta,diamond
0.0,6.0,1.0,1.0,7.0,5.0,473.7932269999874,3.0,1.0,phase_3,,,,,132.0,3.0,220.0,176.0,88.0,264.0,132.0,44.0,green,I
0.0,8.0,4.0,1.0,7.0,2.0,432.1605659997658,3.0,1.0,phase_3,,,,,147.0,3.0,245.0,147.0,294.0,196.0,98.0,49.0,white,circle
0.0,2.0,1.0,0.0,7.0,4.0,352.5313620002634,3.0,1.0,phase_3,,,,,68.0,2.0,34.0,204.0,102.0,68.0,170.0,136.0,gray,square
0.0,2.0,1.0,0.0,7.0,5.0,473.0133559996829,3.0,1.0,phase_3,,,,,98.0,2.0,147.0,196.0,245.0,294.0,98.0,49.0,gray,square
0.0,4.0,4.0,0.0,7.0,2.0,381.0928630000489,3.0,1.0,phase_3,,,,,196.0,4.0,147.0,196.0,98.0,49.0,294.0,245.0,orange,cross
0.0,6.0,1.0,1.0,7.0,3.0,360.3243380002823,3.0,1.0,phase_3,,,,,39.0,1.0,234.0,78.0,39.0,117.0,156.0,195.0,green,I
0.0,2.0,1.0,0.0,7.0,6.0,356.5570060000027,3.0,1.0,phase_3,,,,,245.0,5.0,147.0,196.0,98.0,294.0,49.0,245.0,gray,square
0.0,8.0,4.0,1.0,7.0,1.0,444.0552999994906,3.0,1.0,phase_3,,,,,88.0,2.0,88.0,44.0,264.0,132.0,220.0,176.0,white,circle
0.0,5.0,0.5,1.0,7.0,5.0,317.9805509998914,3.0,1.0,phase_3,,,,,170.0,5.0,102.0,68.0,34.0,204.0,170.0,136.0,magenta,diamond
0.0,4.0,4.0,0.0,7.0,2.0,354.8856010002055,3.0,1.0,phase_3,,,,,204.0,6.0,102.0,204.0,136.0,170.0,34.0,68.0,orange,cross
0.0,6.0,1.0,1.0,7.0,3.0,393.8630120001107,3.0,1.0,phase_3,,,,,176.0,4.0,88.0,44.0,176.0,132.0,264.0,220.0,green,I
0.0,7.0,2.0,1.0,7.0,6.0,359.5801470000879,3.0,1.0,phase_3,,,,,245.0,5.0,294.0,49.0,98.0,147.0,196.0,245.0,cyan,hexagon
0.0,4.0,4.0,0.0,7.0,2.0,352.6533340000242,3.0,1.0,phase_3,,,,,49.0,1.0,245.0,49.0,147.0,294.0,196.0,98.0,orange,cross
0.0,6.0,1.0,1.0,7.0,5.0,446.664588999738,3.0,1.0,phase_3,,,,,170.0,5.0,204.0,34.0,136.0,102.0,170.0,68.0,green,I
0.0,6.0,1.0,1.0,7.0,4.0,452.9256960004204,3.0,1.0,phase_3,,,,,216.0,4.0,162.0,324.0,54.0,216.0,108.0,270.0,green,I
0.0,3.0,2.0,0.0,7.0,2.0,395.7579919997442,3.0,1.0,phase_3,,,,,220.0,5.0,176.0,220.0,88.0,44.0,132.0,264.0,yellow,triangle
0.0,3.0,2.0,0.0,7.0,6.0,419.5787420003398,3.0,1.0,phase_3,,,,,44.0,1.0,132.0,264.0,176.0,88.0,220.0,44.0,yellow,triangle
0.0,1.0,0.5,0.0,7.0,5.0,348.8608429997839,3.0,1.0,phase_3,,,,,220.0,5.0,44.0,176.0,132.0,88.0,220.0,264.0,blue,flipped triangle
0.0,5.0,0.5,1.0,7.0,4.0,460.1968970000598,3.0,1.0,phase_3,,,,,132.0,3.0,44.0,176.0,220.0,132.0,264.0,88.0,magenta,diamond
0.0,6.0,1.0,1.0,7.0,3.0,372.5535660005334,3.0,1.0,phase_3,,,,,204.0,6.0,34.0,68.0,204.0,170.0,136.0,102.0,green,I
0.0,1.0,0.5,0.0,7.0,1.0,1181.5815660002045,4.0,1.0,phase_3,,,,,234.0,6.0,234.0,195.0,117.0,156.0,78.0,39.0,blue,flipped triangle
0.0,2.0,1.0,0.0,7.0,5.0,536.3786400002937,4.0,1.0,phase_3,,,,,204.0,6.0,170.0,68.0,136.0,102.0,204.0,34.0,gray,square
0.0,5.0,0.5,1.0,7.0,2.0,404.2460489999939,4.0,1.0,phase_3,,,,,162.0,3.0,108.0,162.0,54.0,324.0,270.0,216.0,magenta,diamond
0.0,7.0,2.0,1.0,7.0,4.0,373.692170999675,4.0,1.0,phase_3,,,,,270.0,5.0,324.0,108.0,54.0,270.0,216.0,162.0,cyan,hexagon
0.0,8.0,4.0,1.0,7.0,5.0,978.2558249999056,4.0,1.0,phase_3,,,,,136.0,4.0,102.0,34.0,68.0,204.0,136.0,170.0,white,circle
0.0,8.0,4.0,1.0,7.0,3.0,307.1203869994861,4.0,1.0,phase_3,,,,,294.0,6.0,196.0,245.0,294.0,147.0,49.0,98.0,white,circle
0.0,7.0,2.0,1.0,7.0,6.0,407.0187870001973,4.0,1.0,phase_3,,,,,34.0,1.0,136.0,102.0,204.0,170.0,68.0,34.0,cyan,hexagon
0.0,3.0,2.0,0.0,7.0,2.0,352.7042810001148,4.0,1.0,phase_3,,,,,136.0,4.0,170.0,136.0,68.0,34.0,204.0,102.0,yellow,triangle
0.0,2.0,1.0,0.0,7.0,4.0,371.1490510004296,4.0,1.0,phase_3,,,,,44.0,1.0,88.0,176.0,220.0,44.0,132.0,264.0,gray,square
0.0,5.0,0.5,1.0,7.0,3.0,0.3072370000154,4.0,1.0,phase_3,,,,,245.0,5.0,49.0,147.0,245.0,196.0,294.0,98.0,magenta,diamond
0.0,3.0,2.0,0.0,7.0,6.0,409.635820999938,4.0,1.0,phase_3,,,,,204.0,6.0,102.0,136.0,34.0,170.0,68.0,204.0,yellow,triangle
0.0,7.0,2.0,1.0,7.0,5.0,433.7915360001716,4.0,1.0,phase_3,,,,,216.0,4.0,108.0,162.0,54.0,270.0,216.0,324.0,cyan,hexagon
0.0,8.0,4.0,1.0,7.0,2.0,429.5891129995652,4.0,1.0,phase_3,,,,,170.0,5.0,204.0,170.0,68.0,102.0,136.0,34.0,white,circle
0.0,4.0,4.0,0.0,7.0,2.0,570.2168320003693,4.0,1.0,phase_3,,,,,170.0,5.0,136.0,170.0,102.0,34.0,204.0,68.0,orange,cross
0.0,2.0,1.0,0.0,7.0,5.0,422.4851609997131,4.0,1.0,phase_3,,,,,270.0,5.0,216.0,54.0,162.0,324.0,270.0,108.0,gray,square
0.0,5.0,0.5,1.0,7.0,6.0,345.0143250001929,4.0,1.0,phase_3,,,,,39.0,1.0,117.0,195.0,156.0,78.0,234.0,39.0,magenta,diamond
0.0,7.0,2.0,1.0,7.0,2.0,503.68254899967724,4.0,1.0,phase_3,,,,,176.0,4.0,264.0,176.0,44.0,220.0,88.0,132.0,cyan,hexagon
0.0,4.0,4.0,0.0,7.0,4.0,337.7653699999428,4.0,1.0,phase_3,,,,,324.0,6.0,216.0,270.0,54.0,324.0,162.0,108.0,orange,cross
0.0,1.0,0.5,0.0,7.0,5.0,425.5884289996174,4.0,1.0,phase_3,,,,,108.0,2.0,162.0,216.0,324.0,54.0,108.0,270.0,blue,flipped triangle
0.0,1.0,0.5,0.0,7.0,4.0,627.528756999709,4.0,1.0,phase_3,,,,,49.0,1.0,98.0,147.0,196.0,49.0,294.0,245.0,blue,flipped triangle
