raw_reward_magnitude,stim_reward,stepwise_reward_magnitude,paired_with_stopping,quadrant,response,reaction_time,block,num_trial_presentations,which_part,stop_signal_trial_type,left_SSD,right_SSD,accuracy,chosen_bidding_amount,chosen_bidding_level,possible_bid_1,possible_bid_2,possible_bid_3,possible_bid_4,possible_bid_5,possible_bid_6,color_text,shape_text
421.0,4.0,4.0,0.0,1.0,1.0,345.3196929999649,1.0,1.0,part_1,,,,,,,,,,,,,yellow,hexagon
0.0,7.0,0.0,1.0,1.0,1.0,304.0760260000752,1.0,1.0,part_1,,,,,,,,,,,,,blue,cross
95.0,6.0,2.0,1.0,2.0,2.0,274.8325829998066,1.0,1.0,part_1,,,,,,,,,,,,,cyan,triangle
186.0,7.0,3.0,1.0,1.0,1.0,198.7426320001759,1.0,1.0,part_1,,,,,,,,,,,,,blue,cross
49.0,5.0,1.0,1.0,1.0,1.0,248.5211830003209,1.0,1.0,part_1,,,,,,,,,,,,,green,square
124.0,6.0,2.0,1.0,3.0,3.0,296.3278080001146,1.0,1.0,part_1,,,,,,,,,,,,,cyan,triangle
186.0,3.0,3.0,0.0,2.0,2.0,258.7006650001058,1.0,1.0,part_1,,,,,,,,,,,,,magenta,diamond
41.0,1.0,1.0,0.0,3.0,3.0,346.5579909998268,1.0,1.0,part_1,,,,,,,,,,,,,white,circle
0.0,6.0,0.0,1.0,2.0,2.0,319.6247010000661,1.0,1.0,part_1,,,,,,,,,,,,,cyan,triangle
421.0,8.0,4.0,1.0,1.0,1.0,397.1217010002874,1.0,1.0,part_1,,,,,,,,,,,,,gray,I
82.0,2.0,2.0,0.0,4.0,4.0,299.2709820000527,1.0,1.0,part_1,,,,,,,,,,,,,orange,flipped triangle
380.0,8.0,4.0,1.0,1.0,1.0,287.3807669998314,1.0,1.0,part_1,,,,,,,,,,,,,gray,I
201.0,3.0,3.0,0.0,1.0,1.0,310.9087729999373,1.0,1.0,part_1,,,,,,,,,,,,,magenta,diamond
28.0,1.0,1.0,0.0,3.0,3.0,311.7556839997633,1.0,1.0,part_1,,,,,,,,,,,,,white,circle
402.0,8.0,4.0,1.0,1.0,1.0,308.0752079999911,1.0,1.0,part_1,,,,,,,,,,,,,gray,I
395.0,8.0,4.0,1.0,2.0,2.0,256.3457409996772,1.0,1.0,part_1,,,,,,,,,,,,,gray,I
110.0,2.0,2.0,0.0,3.0,3.0,287.6174160001028,1.0,1.0,part_1,,,,,,,,,,,,,orange,flipped triangle
75.0,6.0,2.0,1.0,1.0,1.0,475.9842250000474,1.0,1.0,part_1,,,,,,,,,,,,,cyan,triangle
212.0,7.0,3.0,1.0,4.0,4.0,313.7461379997148,1.0,1.0,part_1,,,,,,,,,,,,,blue,cross
81.0,6.0,2.0,1.0,1.0,1.0,266.103017000205,1.0,1.0,part_1,,,,,,,,,,,,,cyan,triangle
70.0,5.0,1.0,1.0,2.0,2.0,303.9305319998675,1.0,1.0,part_1,,,,,,,,,,,,,green,square
210.0,7.0,3.0,1.0,3.0,3.0,297.7667749996726,1.0,1.0,part_1,,,,,,,,,,,,,blue,cross
75.0,2.0,2.0,0.0,1.0,1.0,376.60813399998,1.0,1.0,part_1,,,,,,,,,,,,,orange,flipped triangle
378.0,4.0,4.0,0.0,4.0,4.0,310.1383379998879,1.0,1.0,part_1,,,,,,,,,,,,,yellow,hexagon
87.0,6.0,2.0,1.0,4.0,4.0,298.1601719998252,1.0,1.0,part_1,,,,,,,,,,,,,cyan,triangle
64.0,1.0,1.0,0.0,2.0,2.0,292.1724010002435,1.0,1.0,part_1,,,,,,,,,,,,,white,circle
52.0,5.0,1.0,1.0,2.0,2.0,332.2470590001103,1.0,1.0,part_1,,,,,,,,,,,,,green,square
94.0,6.0,2.0,1.0,3.0,3.0,324.9625339999511,1.0,1.0,part_1,,,,,,,,,,,,,cyan,triangle
28.0,5.0,1.0,1.0,4.0,4.0,353.2915619998675,1.0,1.0,part_1,,,,,,,,,,,,,green,square
406.0,8.0,4.0,1.0,4.0,4.0,328.9270800000849,1.0,1.0,part_1,,,,,,,,,,,,,gray,I
25.0,1.0,1.0,0.0,3.0,3.0,314.3494750001991,1.0,1.0,part_1,,,,,,,,,,,,,white,circle
216.0,7.0,3.0,1.0,3.0,3.0,355.346314000144,1.0,1.0,part_1,,,,,,,,,,,,,blue,cross
0.0,6.0,0.0,1.0,4.0,4.0,304.6574830000281,1.0,1.0,part_1,,,,,,,,,,,,,cyan,triangle
212.0,3.0,3.0,0.0,2.0,2.0,393.3240579999619,1.0,2.0,part_1,,,,,,,,,,,,,magenta,diamond
113.0,2.0,2.0,0.0,1.0,1.0,437.2345059996405,1.0,1.0,part_1,,,,,,,,,,,,,orange,flipped triangle
68.0,5.0,1.0,1.0,2.0,2.0,299.7217949996411,1.0,1.0,part_1,,,,,,,,,,,,,green,square
0.0,8.0,0.0,1.0,1.0,1.0,384.3347249999169,1.0,1.0,part_1,,,,,,,,,,,,,gray,I
84.0,6.0,2.0,1.0,2.0,2.0,281.3747939999302,1.0,1.0,part_1,,,,,,,,,,,,,cyan,triangle
103.0,6.0,2.0,1.0,4.0,4.0,311.7354620003425,1.0,1.0,part_1,,,,,,,,,,,,,cyan,triangle
32.0,1.0,1.0,0.0,1.0,1.0,348.1097909998425,1.0,1.0,part_1,,,,,,,,,,,,,white,circle
187.0,3.0,3.0,0.0,2.0,2.0,448.0187549997936,1.0,1.0,part_1,,,,,,,,,,,,,magenta,diamond
87.0,6.0,2.0,1.0,1.0,1.0,331.0470239998722,1.0,1.0,part_1,,,,,,,,,,,,,cyan,triangle
56.0,1.0,1.0,0.0,4.0,4.0,386.3240249997943,1.0,1.0,part_1,,,,,,,,,,,,,white,circle
192.0,3.0,3.0,0.0,3.0,3.0,368.1702640001276,1.0,1.0,part_1,,,,,,,,,,,,,magenta,diamond
115.0,6.0,2.0,1.0,2.0,2.0,276.930990999972,1.0,1.0,part_1,,,,,,,,,,,,,cyan,triangle
0.0,7.0,0.0,1.0,2.0,2.0,308.6133560000235,1.0,1.0,part_1,,,,,,,,,,,,,blue,cross
0.0,6.0,0.0,1.0,3.0,3.0,327.9238449999866,1.0,1.0,part_1,,,,,,,,,,,,,cyan,triangle
86.0,2.0,2.0,0.0,2.0,2.0,310.6295020002108,1.0,1.0,part_1,,,,,,,,,,,,,orange,flipped triangle
201.0,7.0,3.0,1.0,3.0,3.0,391.7683350000516,1.0,1.0,part_1,,,,,,,,,,,,,blue,cross
0.0,7.0,0.0,1.0,2.0,2.0,284.8605920003138,1.0,1.0,part_1,,,,,,,,,,,,,blue,cross
33.0,5.0,1.0,1.0,1.0,1.0,282.4040499999682,1.0,1.0,part_1,,,,,,,,,,,,,green,square
45.0,5.0,1.0,1.0,4.0,4.0,299.9183869997068,1.0,1.0,part_1,,,,,,,,,,,,,green,square
424.0,4.0,4.0,0.0,2.0,2.0,282.9391139998733,1.0,1.0,part_1,,,,,,,,,,,,,yellow,hexagon
117.0,2.0,2.0,0.0,1.0,1.0,297.5865920002434,1.0,1.0,part_1,,,,,,,,,,,,,orange,flipped triangle
52.0,1.0,1.0,0.0,4.0,4.0,310.2389410000796,1.0,1.0,part_1,,,,,,,,,,,,,white,circle
98.0,6.0,2.0,1.0,3.0,3.0,264.5181009997941,1.0,1.0,part_1,,,,,,,,,,,,,cyan,triangle
49.0,5.0,1.0,1.0,4.0,4.0,365.8565820001058,1.0,1.0,part_1,,,,,,,,,,,,,green,square
406.0,8.0,4.0,1.0,2.0,2.0,394.6957890002522,1.0,1.0,part_1,,,,,,,,,,,,,gray,I
54.0,1.0,1.0,0.0,4.0,4.0,391.7354570003226,1.0,1.0,part_1,,,,,,,,,,,,,white,circle
0.0,4.0,0.0,0.0,2.0,2.0,376.2579770000229,1.0,1.0,part_1,,,,,,,,,,,,,yellow,hexagon
398.0,4.0,4.0,0.0,4.0,4.0,322.1607100003893,1.0,1.0,part_1,,,,,,,,,,,,,yellow,hexagon
0.0,3.0,0.0,0.0,4.0,4.0,329.3021220001719,1.0,1.0,part_1,,,,,,,,,,,,,magenta,diamond
400.0,8.0,4.0,1.0,4.0,4.0,350.6821329997365,1.0,1.0,part_1,,,,,,,,,,,,,gray,I
73.0,5.0,1.0,1.0,1.0,1.0,395.8441259997016,1.0,1.0,part_1,,,,,,,,,,,,,green,square
410.0,4.0,4.0,0.0,3.0,3.0,366.7932749999636,1.0,1.0,part_1,,,,,,,,,,,,,yellow,hexagon
0.0,2.0,0.0,0.0,1.0,1.0,328.8218469997446,1.0,1.0,part_1,,,,,,,,,,,,,orange,flipped triangle
180.0,7.0,3.0,1.0,1.0,1.0,328.7666500000341,1.0,1.0,part_1,,,,,,,,,,,,,blue,cross
115.0,2.0,2.0,0.0,4.0,4.0,357.89058699992887,1.0,1.0,part_1,,,,,,,,,,,,,orange,flipped triangle
60.0,5.0,1.0,1.0,2.0,2.0,278.5728429998926,1.0,1.0,part_1,,,,,,,,,,,,,green,square
98.0,2.0,2.0,0.0,3.0,3.0,314.9065269999482,1.0,1.0,part_1,,,,,,,,,,,,,orange,flipped triangle
194.0,7.0,3.0,1.0,2.0,2.0,282.8556439999374,1.0,1.0,part_1,,,,,,,,,,,,,blue,cross
209.0,3.0,3.0,0.0,2.0,2.0,340.243403000386,1.0,1.0,part_1,,,,,,,,,,,,,magenta,diamond
45.0,1.0,1.0,0.0,1.0,1.0,311.4095989999441,1.0,1.0,part_1,,,,,,,,,,,,,white,circle
213.0,7.0,3.0,1.0,2.0,2.0,595.7864439997138,1.0,1.0,part_1,,,,,,,,,,,,,blue,cross
86.0,6.0,2.0,1.0,2.0,2.0,308.2433769995987,1.0,1.0,part_1,,,,,,,,,,,,,cyan,triangle
60.0,1.0,1.0,0.0,2.0,2.0,315.4084880002301,1.0,1.0,part_1,,,,,,,,,,,,,white,circle
0.0,6.0,0.0,1.0,3.0,3.0,348.2202889999826,1.0,1.0,part_1,,,,,,,,,,,,,cyan,triangle
215.0,7.0,3.0,1.0,2.0,2.0,316.6499680000925,1.0,1.0,part_1,,,,,,,,,,,,,blue,cross
382.0,4.0,4.0,0.0,1.0,1.0,291.9309939998129,1.0,1.0,part_1,,,,,,,,,,,,,yellow,hexagon
0.0,4.0,0.0,0.0,4.0,4.0,403.6137260000032,1.0,1.0,part_1,,,,,,,,,,,,,yellow,hexagon
46.0,5.0,1.0,1.0,3.0,3.0,300.5445539997708,1.0,1.0,part_1,,,,,,,,,,,,,green,square
179.0,7.0,3.0,1.0,1.0,1.0,275.4830240000956,1.0,1.0,part_1,,,,,,,,,,,,,blue,cross
0.0,8.0,0.0,1.0,4.0,4.0,302.9853800003366,1.0,1.0,part_1,,,,,,,,,,,,,gray,I
87.0,2.0,2.0,0.0,1.0,1.0,327.4069580002106,1.0,2.0,part_1,,,,,,,,,,,,,orange,flipped triangle
0.0,6.0,0.0,1.0,4.0,4.0,368.8048620001609,1.0,1.0,part_1,,,,,,,,,,,,,cyan,triangle
0.0,5.0,0.0,1.0,4.0,4.0,388.2417350000651,1.0,1.0,part_1,,,,,,,,,,,,,green,square
95.0,2.0,2.0,0.0,2.0,2.0,330.5785160000596,1.0,1.0,part_1,,,,,,,,,,,,,orange,flipped triangle
108.0,6.0,2.0,1.0,1.0,1.0,411.3122969997675,1.0,1.0,part_1,,,,,,,,,,,,,cyan,triangle
0.0,3.0,0.0,0.0,3.0,3.0,326.5954919997966,1.0,1.0,part_1,,,,,,,,,,,,,magenta,diamond
27.0,5.0,1.0,1.0,4.0,4.0,329.4783020000977,1.0,1.0,part_1,,,,,,,,,,,,,green,square
388.0,4.0,4.0,0.0,3.0,3.0,375.5468399999699,1.0,1.0,part_1,,,,,,,,,,,,,yellow,hexagon
216.0,3.0,3.0,0.0,1.0,1.0,381.7554930001279,1.0,1.0,part_1,,,,,,,,,,,,,magenta,diamond
117.0,6.0,2.0,1.0,4.0,4.0,341.6732720002073,1.0,1.0,part_1,,,,,,,,,,,,,cyan,triangle
405.0,4.0,4.0,0.0,1.0,1.0,354.9034309999115,1.0,1.0,part_1,,,,,,,,,,,,,yellow,hexagon
380.0,4.0,4.0,0.0,2.0,2.0,345.0647619997653,1.0,1.0,part_1,,,,,,,,,,,,,yellow,hexagon
33.0,5.0,1.0,1.0,2.0,2.0,385.970429000281,1.0,1.0,part_1,,,,,,,,,,,,,green,square
0.0,5.0,0.0,1.0,1.0,1.0,441.9204860000718,1.0,1.0,part_1,,,,,,,,,,,,,green,square
216.0,7.0,3.0,1.0,1.0,1.0,317.1357400001398,1.0,1.0,part_1,,,,,,,,,,,,,blue,cross
69.0,5.0,1.0,1.0,1.0,1.0,277.9489439999452,1.0,1.0,part_1,,,,,,,,,,,,,green,square
0.0,2.0,0.0,0.0,4.0,4.0,426.5432480001436,1.0,1.0,part_1,,,,,,,,,,,,,orange,flipped triangle
214.0,7.0,3.0,1.0,1.0,1.0,467.51717799998,2.0,2.0,part_1,,,,,,,,,,,,,blue,cross
76.0,6.0,2.0,1.0,2.0,2.0,342.1722190000764,2.0,1.0,part_1,,,,,,,,,,,,,cyan,triangle
44.0,5.0,1.0,1.0,2.0,2.0,342.5641049998376,2.0,1.0,part_1,,,,,,,,,,,,,green,square
0.0,6.0,0.0,1.0,1.0,1.0,291.8416940001407,2.0,1.0,part_1,,,,,,,,,,,,,cyan,triangle
32.0,5.0,1.0,1.0,1.0,1.0,334.3887359997097,2.0,1.0,part_1,,,,,,,,,,,,,green,square
380.0,8.0,4.0,1.0,2.0,2.0,440.5353600000126,2.0,1.0,part_1,,,,,,,,,,,,,gray,I
183.0,3.0,3.0,0.0,1.0,1.0,274.5890520000102,2.0,1.0,part_1,,,,,,,,,,,,,magenta,diamond
56.0,5.0,1.0,1.0,3.0,3.0,476.3819929999044,2.0,1.0,part_1,,,,,,,,,,,,,green,square
186.0,7.0,3.0,1.0,1.0,1.0,319.7222900002998,2.0,1.0,part_1,,,,,,,,,,,,,blue,cross
395.0,8.0,4.0,1.0,3.0,3.0,315.3991389999646,2.0,1.0,part_1,,,,,,,,,,,,,gray,I
82.0,6.0,2.0,1.0,2.0,2.0,300.18862899987647,2.0,1.0,part_1,,,,,,,,,,,,,cyan,triangle
177.0,3.0,3.0,0.0,3.0,3.0,286.7656660000648,2.0,1.0,part_1,,,,,,,,,,,,,magenta,diamond
413.0,4.0,4.0,0.0,1.0,1.0,279.8691540001528,2.0,1.0,part_1,,,,,,,,,,,,,yellow,hexagon
71.0,5.0,1.0,1.0,4.0,4.0,318.6576289999721,2.0,1.0,part_1,,,,,,,,,,,,,green,square
51.0,5.0,1.0,1.0,4.0,4.0,332.1020890002728,2.0,1.0,part_1,,,,,,,,,,,,,green,square
199.0,3.0,3.0,0.0,2.0,2.0,284.20755700017247,2.0,1.0,part_1,,,,,,,,,,,,,magenta,diamond
396.0,8.0,4.0,1.0,4.0,4.0,322.1605859998817,2.0,1.0,part_1,,,,,,,,,,,,,gray,I
0.0,7.0,0.0,1.0,2.0,2.0,298.4873880000123,2.0,1.0,part_1,,,,,,,,,,,,,blue,cross
124.0,2.0,2.0,0.0,4.0,4.0,554.4811360000494,2.0,1.0,part_1,,,,,,,,,,,,,orange,flipped triangle
0.0,4.0,0.0,0.0,2.0,2.0,290.4644820000612,2.0,1.0,part_1,,,,,,,,,,,,,yellow,hexagon
224.0,3.0,3.0,0.0,3.0,3.0,411.0793390000253,2.0,1.0,part_1,,,,,,,,,,,,,magenta,diamond
95.0,2.0,2.0,0.0,3.0,3.0,470.3588979996311,2.0,1.0,part_1,,,,,,,,,,,,,orange,flipped triangle
199.0,7.0,3.0,1.0,2.0,2.0,309.6009119999507,2.0,1.0,part_1,,,,,,,,,,,,,blue,cross
68.0,1.0,1.0,0.0,1.0,1.0,383.2884299999932,2.0,1.0,part_1,,,,,,,,,,,,,white,circle
178.0,3.0,3.0,0.0,2.0,2.0,293.7383110001974,2.0,1.0,part_1,,,,,,,,,,,,,magenta,diamond
0.0,3.0,0.0,0.0,3.0,3.0,375.2591739998934,2.0,1.0,part_1,,,,,,,,,,,,,magenta,diamond
87.0,2.0,2.0,0.0,2.0,2.0,346.5340640000249,2.0,1.0,part_1,,,,,,,,,,,,,orange,flipped triangle
0.0,2.0,0.0,0.0,1.0,1.0,318.5073639997426,2.0,1.0,part_1,,,,,,,,,,,,,orange,flipped triangle
221.0,7.0,3.0,1.0,2.0,2.0,531.6295679999712,2.0,1.0,part_1,,,,,,,,,,,,,blue,cross
60.0,1.0,1.0,0.0,2.0,2.0,291.6129909999654,2.0,1.0,part_1,,,,,,,,,,,,,white,circle
0.0,7.0,0.0,1.0,3.0,3.0,321.8438559997594,2.0,1.0,part_1,,,,,,,,,,,,,blue,cross
114.0,6.0,2.0,1.0,4.0,4.0,333.9893959996516,2.0,1.0,part_1,,,,,,,,,,,,,cyan,triangle
395.0,4.0,4.0,0.0,3.0,3.0,342.3520910000661,2.0,1.0,part_1,,,,,,,,,,,,,yellow,hexagon
0.0,8.0,0.0,1.0,3.0,3.0,390.3119900001002,2.0,1.0,part_1,,,,,,,,,,,,,gray,I
416.0,8.0,4.0,1.0,3.0,3.0,317.4998760000562,2.0,1.0,part_1,,,,,,,,,,,,,gray,I
48.0,5.0,1.0,1.0,4.0,4.0,335.0668839998434,2.0,1.0,part_1,,,,,,,,,,,,,green,square
0.0,7.0,0.0,1.0,4.0,4.0,403.1611999998858,2.0,1.0,part_1,,,,,,,,,,,,,blue,cross
55.0,5.0,1.0,1.0,3.0,3.0,374.031923000075,2.0,1.0,part_1,,,,,,,,,,,,,green,square
77.0,2.0,2.0,0.0,2.0,2.0,412.2450310001113,2.0,1.0,part_1,,,,,,,,,,,,,orange,flipped triangle
56.0,1.0,1.0,0.0,3.0,3.0,585.5695449999985,2.0,1.0,part_1,,,,,,,,,,,,,white,circle
385.0,4.0,4.0,0.0,3.0,3.0,319.7893950000434,2.0,1.0,part_1,,,,,,,,,,,,,yellow,hexagon
216.0,3.0,3.0,0.0,1.0,1.0,428.6439009997593,2.0,1.0,part_1,,,,,,,,,,,,,magenta,diamond
413.0,8.0,4.0,1.0,3.0,3.0,388.6702749996402,2.0,1.0,part_1,,,,,,,,,,,,,gray,I
103.0,2.0,2.0,0.0,3.0,3.0,333.6607890000778,2.0,1.0,part_1,,,,,,,,,,,,,orange,flipped triangle
89.0,2.0,2.0,0.0,2.0,2.0,337.5214950001464,2.0,1.0,part_1,,,,,,,,,,,,,orange,flipped triangle
95.0,6.0,2.0,1.0,2.0,2.0,328.3048799999051,2.0,1.0,part_1,,,,,,,,,,,,,cyan,triangle
0.0,8.0,0.0,1.0,1.0,1.0,414.5517329998256,2.0,1.0,part_1,,,,,,,,,,,,,gray,I
0.0,5.0,0.0,1.0,3.0,3.0,539.4492570003422,2.0,1.0,part_1,,,,,,,,,,,,,green,square
400.0,4.0,4.0,0.0,4.0,4.0,545.2305059998253,2.0,1.0,part_1,,,,,,,,,,,,,yellow,hexagon
0.0,4.0,0.0,0.0,3.0,3.0,355.1996290002535,2.0,1.0,part_1,,,,,,,,,,,,,yellow,hexagon
63.0,1.0,1.0,0.0,4.0,4.0,486.7817050003395,2.0,1.0,part_1,,,,,,,,,,,,,white,circle
180.0,3.0,3.0,0.0,1.0,1.0,485.6809589996373,2.0,1.0,part_1,,,,,,,,,,,,,magenta,diamond
381.0,8.0,4.0,1.0,1.0,1.0,321.4513399998395,2.0,1.0,part_1,,,,,,,,,,,,,gray,I
33.0,1.0,1.0,0.0,1.0,1.0,328.2357420002881,2.0,1.0,part_1,,,,,,,,,,,,,white,circle
0.0,4.0,0.0,0.0,4.0,4.0,349.2597079998631,2.0,1.0,part_1,,,,,,,,,,,,,yellow,hexagon
215.0,3.0,3.0,0.0,4.0,4.0,506.14326999993864,2.0,1.0,part_1,,,,,,,,,,,,,magenta,diamond
77.0,6.0,2.0,1.0,1.0,1.0,474.2875370002366,2.0,1.0,part_1,,,,,,,,,,,,,cyan,triangle
196.0,3.0,3.0,0.0,4.0,4.0,486.1198070002501,2.0,1.0,part_1,,,,,,,,,,,,,magenta,diamond
97.0,2.0,2.0,0.0,4.0,4.0,340.320225999676,2.0,1.0,part_1,,,,,,,,,,,,,orange,flipped triangle
37.0,1.0,1.0,0.0,2.0,2.0,345.1768720001382,2.0,1.0,part_1,,,,,,,,,,,,,white,circle
109.0,2.0,2.0,0.0,2.0,2.0,346.5772159997868,2.0,1.0,part_1,,,,,,,,,,,,,orange,flipped triangle
396.0,4.0,4.0,0.0,4.0,4.0,579.5143189998271,2.0,1.0,part_1,,,,,,,,,,,,,yellow,hexagon
0.0,3.0,0.0,0.0,1.0,1.0,310.2639620001355,2.0,1.0,part_1,,,,,,,,,,,,,magenta,diamond
103.0,2.0,2.0,0.0,3.0,3.0,356.3737419999597,2.0,1.0,part_1,,,,,,,,,,,,,orange,flipped triangle
388.0,8.0,4.0,1.0,1.0,1.0,299.9091110000336,2.0,1.0,part_1,,,,,,,,,,,,,gray,I
115.0,2.0,2.0,0.0,1.0,1.0,303.1894800001282,2.0,1.0,part_1,,,,,,,,,,,,,orange,flipped triangle
212.0,3.0,3.0,0.0,4.0,4.0,481.5963060000285,2.0,1.0,part_1,,,,,,,,,,,,,magenta,diamond
54.0,5.0,1.0,1.0,3.0,3.0,355.1916379997237,2.0,1.0,part_1,,,,,,,,,,,,,green,square
0.0,8.0,0.0,1.0,4.0,4.0,340.6407050001689,2.0,1.0,part_1,,,,,,,,,,,,,gray,I
98.0,2.0,2.0,0.0,3.0,3.0,304.037523000261,2.0,1.0,part_1,,,,,,,,,,,,,orange,flipped triangle
216.0,3.0,3.0,0.0,4.0,4.0,383.5779719997845,2.0,1.0,part_1,,,,,,,,,,,,,magenta,diamond
419.0,8.0,4.0,1.0,4.0,4.0,397.1423179996236,2.0,1.0,part_1,,,,,,,,,,,,,gray,I
51.0,1.0,1.0,0.0,3.0,3.0,294.7203759999866,2.0,1.0,part_1,,,,,,,,,,,,,white,circle
92.0,2.0,2.0,0.0,4.0,4.0,485.8037600001808,2.0,1.0,part_1,,,,,,,,,,,,,orange,flipped triangle
0.0,6.0,0.0,1.0,4.0,4.0,340.4658580002433,2.0,1.0,part_1,,,,,,,,,,,,,cyan,triangle
385.0,8.0,4.0,1.0,2.0,2.0,316.0329940001247,2.0,1.0,part_1,,,,,,,,,,,,,gray,I
0.0,8.0,0.0,1.0,4.0,4.0,358.0246219999026,2.0,1.0,part_1,,,,,,,,,,,,,gray,I
109.0,2.0,2.0,0.0,1.0,1.0,357.8657629996087,2.0,1.0,part_1,,,,,,,,,,,,,orange,flipped triangle
0.0,2.0,0.0,0.0,3.0,3.0,322.9976630000237,2.0,1.0,part_1,,,,,,,,,,,,,orange,flipped triangle
213.0,3.0,3.0,0.0,2.0,2.0,291.0817190004309,2.0,1.0,part_1,,,,,,,,,,,,,magenta,diamond
218.0,3.0,3.0,0.0,1.0,1.0,378.7165710000408,2.0,1.0,part_1,,,,,,,,,,,,,magenta,diamond
177.0,7.0,3.0,1.0,3.0,3.0,339.4399459998567,2.0,1.0,part_1,,,,,,,,,,,,,blue,cross
0.0,5.0,0.0,1.0,2.0,2.0,341.5103150000504,2.0,1.0,part_1,,,,,,,,,,,,,green,square
376.0,8.0,4.0,1.0,2.0,2.0,298.3484140004293,2.0,1.0,part_1,,,,,,,,,,,,,gray,I
0.0,4.0,0.0,0.0,4.0,4.0,455.1263899998048,2.0,2.0,part_1,,,,,,,,,,,,,yellow,hexagon
104.0,2.0,2.0,0.0,1.0,1.0,500.17450099994676,2.0,1.0,part_1,,,,,,,,,,,,,orange,flipped triangle
186.0,3.0,3.0,0.0,3.0,3.0,486.2172709999868,2.0,1.0,part_1,,,,,,,,,,,,,magenta,diamond
0.0,1.0,0.0,0.0,2.0,2.0,371.4211969995631,2.0,1.0,part_1,,,,,,,,,,,,,white,circle
63.0,5.0,1.0,1.0,2.0,2.0,386.5232329999344,2.0,1.0,part_1,,,,,,,,,,,,,green,square
391.0,4.0,4.0,0.0,1.0,1.0,374.7083450002719,2.0,1.0,part_1,,,,,,,,,,,,,yellow,hexagon
199.0,7.0,3.0,1.0,4.0,4.0,425.4493779999393,2.0,1.0,part_1,,,,,,,,,,,,,blue,cross
181.0,7.0,3.0,1.0,1.0,1.0,381.9192959999782,2.0,1.0,part_1,,,,,,,,,,,,,blue,cross
0.0,5.0,0.0,1.0,2.0,2.0,306.0763970001972,2.0,1.0,part_1,,,,,,,,,,,,,green,square
186.0,7.0,3.0,1.0,3.0,3.0,317.3178700003518,2.0,1.0,part_1,,,,,,,,,,,,,blue,cross
224.0,7.0,3.0,1.0,4.0,4.0,397.3319940000692,2.0,1.0,part_1,,,,,,,,,,,,,blue,cross
0.0,5.0,0.0,1.0,1.0,1.0,303.7379129996225,2.0,1.0,part_1,,,,,,,,,,,,,green,square
0.0,3.0,0.0,0.0,3.0,3.0,303.8286229998448,2.0,1.0,part_1,,,,,,,,,,,,,magenta,diamond
113.0,6.0,2.0,1.0,3.0,3.0,329.1791889996602,2.0,1.0,part_1,,,,,,,,,,,,,cyan,triangle
378.0,4.0,4.0,0.0,3.0,3.0,412.1702110001024,2.0,1.0,part_1,,,,,,,,,,,,,yellow,hexagon
97.0,6.0,2.0,1.0,1.0,1.0,455.1988469997923,2.0,1.0,part_1,,,,,,,,,,,,,cyan,triangle
203.0,7.0,3.0,1.0,4.0,4.0,413.8955749999695,3.0,1.0,part_1,,,,,,,,,,,,,blue,cross
411.0,4.0,4.0,0.0,2.0,2.0,313.9418599998862,3.0,1.0,part_1,,,,,,,,,,,,,yellow,hexagon
81.0,2.0,2.0,0.0,2.0,2.0,250.7873940003264,3.0,1.0,part_1,,,,,,,,,,,,,orange,flipped triangle
375.0,4.0,4.0,0.0,4.0,4.0,339.8274430001038,3.0,1.0,part_1,,,,,,,,,,,,,yellow,hexagon
50.0,1.0,1.0,0.0,1.0,1.0,305.4944599998634,3.0,1.0,part_1,,,,,,,,,,,,,white,circle
0.0,2.0,0.0,0.0,3.0,3.0,357.2040190001644,3.0,1.0,part_1,,,,,,,,,,,,,orange,flipped triangle
0.0,3.0,0.0,0.0,2.0,2.0,291.4390710002408,3.0,1.0,part_1,,,,,,,,,,,,,magenta,diamond
64.0,5.0,1.0,1.0,4.0,4.0,330.2027739996447,3.0,1.0,part_1,,,,,,,,,,,,,green,square
0.0,2.0,0.0,0.0,4.0,4.0,378.8901409998289,3.0,1.0,part_1,,,,,,,,,,,,,orange,flipped triangle
68.0,5.0,1.0,1.0,1.0,1.0,321.60832999989,3.0,1.0,part_1,,,,,,,,,,,,,green,square
388.0,8.0,4.0,1.0,3.0,3.0,343.4434060000058,3.0,1.0,part_1,,,,,,,,,,,,,gray,I
49.0,1.0,1.0,0.0,2.0,2.0,299.2280409998784,3.0,1.0,part_1,,,,,,,,,,,,,white,circle
177.0,3.0,3.0,0.0,3.0,3.0,321.0175620001791,3.0,1.0,part_1,,,,,,,,,,,,,magenta,diamond
0.0,8.0,0.0,1.0,2.0,2.0,408.4585109999352,3.0,1.0,part_1,,,,,,,,,,,,,gray,I
378.0,8.0,4.0,1.0,3.0,3.0,610.4258390000723,3.0,1.0,part_1,,,,,,,,,,,,,gray,I
0.0,7.0,0.0,1.0,1.0,1.0,376.6194830000131,3.0,1.0,part_1,,,,,,,,,,,,,blue,cross
175.0,3.0,3.0,0.0,2.0,2.0,291.0587520000263,3.0,1.0,part_1,,,,,,,,,,,,,magenta,diamond
0.0,7.0,0.0,1.0,4.0,4.0,279.9969059997238,3.0,1.0,part_1,,,,,,,,,,,,,blue,cross
378.0,8.0,4.0,1.0,3.0,3.0,308.5676830000921,3.0,1.0,part_1,,,,,,,,,,,,,gray,I
382.0,8.0,4.0,1.0,1.0,1.0,340.413376000015,3.0,1.0,part_1,,,,,,,,,,,,,gray,I
0.0,4.0,0.0,0.0,2.0,2.0,275.4899409997051,3.0,1.0,part_1,,,,,,,,,,,,,yellow,hexagon
94.0,2.0,2.0,0.0,2.0,2.0,330.1423949997115,3.0,1.0,part_1,,,,,,,,,,,,,orange,flipped triangle
220.0,3.0,3.0,0.0,3.0,3.0,414.2268529999455,3.0,1.0,part_1,,,,,,,,,,,,,magenta,diamond
0.0,7.0,0.0,1.0,4.0,4.0,357.4668280002697,3.0,1.0,part_1,,,,,,,,,,,,,blue,cross
175.0,7.0,3.0,1.0,4.0,4.0,374.3204970000988,3.0,1.0,part_1,,,,,,,,,,,,,blue,cross
210.0,3.0,3.0,0.0,4.0,4.0,368.7426669998785,3.0,1.0,part_1,,,,,,,,,,,,,magenta,diamond
76.0,2.0,2.0,0.0,3.0,3.0,302.7253300001575,3.0,1.0,part_1,,,,,,,,,,,,,orange,flipped triangle
0.0,7.0,0.0,1.0,4.0,4.0,362.5202910002372,3.0,1.0,part_1,,,,,,,,,,,,,blue,cross
65.0,5.0,1.0,1.0,1.0,1.0,407.0358300000407,3.0,1.0,part_1,,,,,,,,,,,,,green,square
110.0,6.0,2.0,1.0,4.0,4.0,393.9123860000109,3.0,1.0,part_1,,,,,,,,,,,,,cyan,triangle
28.0,1.0,1.0,0.0,3.0,3.0,367.9396590000579,3.0,1.0,part_1,,,,,,,,,,,,,white,circle
0.0,1.0,0.0,0.0,2.0,2.0,317.138624999643,3.0,1.0,part_1,,,,,,,,,,,,,white,circle
376.0,4.0,4.0,0.0,4.0,4.0,578.0493770002977,3.0,1.0,part_1,,,,,,,,,,,,,yellow,hexagon
105.0,6.0,2.0,1.0,1.0,1.0,497.2216799997113,3.0,1.0,part_1,,,,,,,,,,,,,cyan,triangle
196.0,7.0,3.0,1.0,3.0,3.0,364.2872860000352,3.0,1.0,part_1,,,,,,,,,,,,,blue,cross
0.0,4.0,0.0,0.0,3.0,3.0,321.3830780000535,3.0,1.0,part_1,,,,,,,,,,,,,yellow,hexagon
415.0,4.0,4.0,0.0,1.0,1.0,408.0158299998402,3.0,1.0,part_1,,,,,,,,,,,,,yellow,hexagon
49.0,1.0,1.0,0.0,2.0,2.0,332.3731579998821,3.0,1.0,part_1,,,,,,,,,,,,,white,circle
209.0,7.0,3.0,1.0,1.0,1.0,321.3579409998601,3.0,1.0,part_1,,,,,,,,,,,,,blue,cross
411.0,8.0,4.0,1.0,2.0,2.0,331.2927080000918,3.0,1.0,part_1,,,,,,,,,,,,,gray,I
410.0,8.0,4.0,1.0,3.0,3.0,392.7266359996793,3.0,1.0,part_1,,,,,,,,,,,,,gray,I
387.0,4.0,4.0,0.0,1.0,1.0,398.7894219999361,3.0,1.0,part_1,,,,,,,,,,,,,yellow,hexagon
0.0,5.0,0.0,1.0,2.0,2.0,288.1727630001478,3.0,1.0,part_1,,,,,,,,,,,,,green,square
183.0,7.0,3.0,1.0,3.0,3.0,338.0823419997796,3.0,1.0,part_1,,,,,,,,,,,,,blue,cross
112.0,6.0,2.0,1.0,3.0,3.0,292.9515369996807,3.0,1.0,part_1,,,,,,,,,,,,,cyan,triangle
59.0,1.0,1.0,0.0,1.0,1.0,327.706132000003,3.0,1.0,part_1,,,,,,,,,,,,,white,circle
398.0,8.0,4.0,1.0,2.0,2.0,329.3103579999297,3.0,1.0,part_1,,,,,,,,,,,,,gray,I
404.0,4.0,4.0,0.0,4.0,4.0,488.147766000111,3.0,1.0,part_1,,,,,,,,,,,,,yellow,hexagon
95.0,2.0,2.0,0.0,4.0,4.0,589.074501000141,3.0,1.0,part_1,,,,,,,,,,,,,orange,flipped triangle
0.0,5.0,0.0,1.0,3.0,3.0,336.6681339998649,3.0,1.0,part_1,,,,,,,,,,,,,green,square
425.0,4.0,4.0,0.0,4.0,4.0,351.9898539998394,3.0,1.0,part_1,,,,,,,,,,,,,yellow,hexagon
221.0,3.0,3.0,0.0,4.0,4.0,355.2397140001631,3.0,1.0,part_1,,,,,,,,,,,,,magenta,diamond
419.0,4.0,4.0,0.0,2.0,2.0,501.8426400001772,3.0,1.0,part_1,,,,,,,,,,,,,yellow,hexagon
92.0,6.0,2.0,1.0,1.0,1.0,337.3121550002906,3.0,1.0,part_1,,,,,,,,,,,,,cyan,triangle
114.0,2.0,2.0,0.0,4.0,4.0,336.0072979999131,3.0,1.0,part_1,,,,,,,,,,,,,orange,flipped triangle
109.0,6.0,2.0,1.0,1.0,1.0,424.2693979999785,3.0,1.0,part_1,,,,,,,,,,,,,cyan,triangle
413.0,4.0,4.0,0.0,3.0,3.0,389.7007069999745,3.0,1.0,part_1,,,,,,,,,,,,,yellow,hexagon
109.0,6.0,2.0,1.0,4.0,4.0,411.7636500000117,3.0,1.0,part_1,,,,,,,,,,,,,cyan,triangle
209.0,3.0,3.0,0.0,4.0,4.0,429.6740129998397,3.0,1.0,part_1,,,,,,,,,,,,,magenta,diamond
378.0,8.0,4.0,1.0,3.0,3.0,346.0730819997479,3.0,1.0,part_1,,,,,,,,,,,,,gray,I
0.0,3.0,0.0,0.0,1.0,1.0,330.3222549998281,3.0,1.0,part_1,,,,,,,,,,,,,magenta,diamond
106.0,2.0,2.0,0.0,3.0,3.0,408.0379140000332,3.0,1.0,part_1,,,,,,,,,,,,,orange,flipped triangle
387.0,8.0,4.0,1.0,4.0,4.0,312.3126059999777,3.0,1.0,part_1,,,,,,,,,,,,,gray,I
0.0,2.0,0.0,0.0,3.0,3.0,343.4445170000799,3.0,1.0,part_1,,,,,,,,,,,,,orange,flipped triangle
65.0,1.0,1.0,0.0,1.0,1.0,504.5016320000286,3.0,1.0,part_1,,,,,,,,,,,,,white,circle
378.0,4.0,4.0,0.0,3.0,3.0,306.1063879999892,3.0,1.0,part_1,,,,,,,,,,,,,yellow,hexagon
70.0,1.0,1.0,0.0,3.0,3.0,331.6425570001229,3.0,1.0,part_1,,,,,,,,,,,,,white,circle
50.0,5.0,1.0,1.0,1.0,1.0,333.4501319995979,3.0,1.0,part_1,,,,,,,,,,,,,green,square
406.0,4.0,4.0,0.0,2.0,2.0,369.4290960002035,3.0,1.0,part_1,,,,,,,,,,,,,yellow,hexagon
381.0,4.0,4.0,0.0,4.0,4.0,316.6963089997807,3.0,1.0,part_1,,,,,,,,,,,,,yellow,hexagon
199.0,3.0,3.0,0.0,4.0,4.0,330.4387230000429,3.0,1.0,part_1,,,,,,,,,,,,,magenta,diamond
375.0,8.0,4.0,1.0,3.0,3.0,332.2360260003734,3.0,1.0,part_1,,,,,,,,,,,,,gray,I
185.0,7.0,3.0,1.0,2.0,2.0,310.0435229998766,3.0,1.0,part_1,,,,,,,,,,,,,blue,cross
185.0,3.0,3.0,0.0,2.0,2.0,385.7056850001754,3.0,1.0,part_1,,,,,,,,,,,,,magenta,diamond
92.0,2.0,2.0,0.0,4.0,4.0,362.617130000217,3.0,1.0,part_1,,,,,,,,,,,,,orange,flipped triangle
46.0,1.0,1.0,0.0,3.0,3.0,295.5125129997213,3.0,1.0,part_1,,,,,,,,,,,,,white,circle
410.0,4.0,4.0,0.0,2.0,2.0,319.56774999980547,3.0,2.0,part_1,,,,,,,,,,,,,yellow,hexagon
181.0,3.0,3.0,0.0,3.0,3.0,495.1141790002111,3.0,1.0,part_1,,,,,,,,,,,,,magenta,diamond
178.0,7.0,3.0,1.0,4.0,4.0,441.3770020000811,3.0,1.0,part_1,,,,,,,,,,,,,blue,cross
186.0,3.0,3.0,0.0,1.0,1.0,581.1517930001173,3.0,1.0,part_1,,,,,,,,,,,,,magenta,diamond
406.0,4.0,4.0,0.0,4.0,4.0,369.0809400000034,3.0,1.0,part_1,,,,,,,,,,,,,yellow,hexagon
0.0,3.0,0.0,0.0,1.0,1.0,327.9580729999907,3.0,1.0,part_1,,,,,,,,,,,,,magenta,diamond
0.0,2.0,0.0,0.0,1.0,1.0,414.060038000116,3.0,1.0,part_1,,,,,,,,,,,,,orange,flipped triangle
388.0,4.0,4.0,0.0,3.0,3.0,312.3851159998594,3.0,1.0,part_1,,,,,,,,,,,,,yellow,hexagon
194.0,3.0,3.0,0.0,4.0,4.0,333.3454369999344,3.0,1.0,part_1,,,,,,,,,,,,,magenta,diamond
37.0,5.0,1.0,1.0,2.0,2.0,292.7465129996562,3.0,1.0,part_1,,,,,,,,,,,,,green,square
0.0,1.0,0.0,0.0,3.0,3.0,331.6825480001171,3.0,1.0,part_1,,,,,,,,,,,,,white,circle
419.0,8.0,4.0,1.0,4.0,4.0,328.310698000223,3.0,1.0,part_1,,,,,,,,,,,,,gray,I
401.0,8.0,4.0,1.0,2.0,2.0,304.7196309998981,3.0,1.0,part_1,,,,,,,,,,,,,gray,I
106.0,6.0,2.0,1.0,4.0,4.0,324.5244469999306,3.0,1.0,part_1,,,,,,,,,,,,,cyan,triangle
395.0,4.0,4.0,0.0,3.0,3.0,295.7468180002252,3.0,1.0,part_1,,,,,,,,,,,,,yellow,hexagon
120.0,6.0,2.0,1.0,2.0,2.0,324.2553079999197,3.0,1.0,part_1,,,,,,,,,,,,,cyan,triangle
417.0,4.0,4.0,0.0,3.0,3.0,324.7855620002156,3.0,1.0,part_1,,,,,,,,,,,,,yellow,hexagon
28.0,5.0,1.0,1.0,4.0,4.0,329.592957999921,3.0,1.0,part_1,,,,,,,,,,,,,green,square
84.0,2.0,2.0,0.0,4.0,4.0,351.117432999672,3.0,1.0,part_1,,,,,,,,,,,,,orange,flipped triangle
218.0,7.0,3.0,1.0,4.0,4.0,323.5207799998534,3.0,1.0,part_1,,,,,,,,,,,,,blue,cross
41.0,5.0,1.0,1.0,3.0,3.0,337.0450209999944,3.0,1.0,part_1,,,,,,,,,,,,,green,square
200.0,3.0,3.0,0.0,3.0,3.0,299.730933000319,3.0,1.0,part_1,,,,,,,,,,,,,magenta,diamond
0.0,4.0,0.0,0.0,2.0,2.0,322.1078209999177,3.0,2.0,part_1,,,,,,,,,,,,,yellow,hexagon
71.0,1.0,1.0,0.0,1.0,1.0,511.2959050002246,3.0,1.0,part_1,,,,,,,,,,,,,white,circle
56.0,5.0,1.0,1.0,3.0,3.0,334.5575600001211,4.0,1.0,part_1,,,,,,,,,,,,,green,square
121.0,2.0,2.0,0.0,4.0,4.0,417.5737370001116,4.0,1.0,part_1,,,,,,,,,,,,,orange,flipped triangle
0.0,2.0,0.0,0.0,1.0,1.0,317.4502390002089,4.0,1.0,part_1,,,,,,,,,,,,,orange,flipped triangle
212.0,3.0,3.0,0.0,4.0,4.0,357.3342079998838,4.0,1.0,part_1,,,,,,,,,,,,,magenta,diamond
56.0,1.0,1.0,0.0,1.0,1.0,486.6920260001279,4.0,1.0,part_1,,,,,,,,,,,,,white,circle
89.0,6.0,2.0,1.0,4.0,4.0,390.7233130003078,4.0,1.0,part_1,,,,,,,,,,,,,cyan,triangle
425.0,8.0,4.0,1.0,4.0,4.0,362.2228310000537,4.0,1.0,part_1,,,,,,,,,,,,,gray,I
417.0,8.0,4.0,1.0,2.0,2.0,313.3151020001605,4.0,1.0,part_1,,,,,,,,,,,,,gray,I
212.0,7.0,3.0,1.0,2.0,2.0,329.5798799999829,4.0,1.0,part_1,,,,,,,,,,,,,blue,cross
104.0,6.0,2.0,1.0,4.0,4.0,338.1833879998339,4.0,1.0,part_1,,,,,,,,,,,,,cyan,triangle
223.0,7.0,3.0,1.0,3.0,3.0,496.3610180002433,4.0,1.0,part_1,,,,,,,,,,,,,blue,cross
0.0,2.0,0.0,0.0,4.0,4.0,361.4082010003585,4.0,1.0,part_1,,,,,,,,,,,,,orange,flipped triangle
400.0,4.0,4.0,0.0,2.0,2.0,290.1750269998047,4.0,1.0,part_1,,,,,,,,,,,,,yellow,hexagon
187.0,7.0,3.0,1.0,1.0,1.0,360.7763429999977,4.0,1.0,part_1,,,,,,,,,,,,,blue,cross
209.0,7.0,3.0,1.0,4.0,4.0,621.2870509998538,4.0,1.0,part_1,,,,,,,,,,,,,blue,cross
49.0,1.0,1.0,0.0,2.0,2.0,313.8739470000473,4.0,1.0,part_1,,,,,,,,,,,,,white,circle
380.0,4.0,4.0,0.0,1.0,1.0,349.5960239997657,4.0,1.0,part_1,,,,,,,,,,,,,yellow,hexagon
117.0,6.0,2.0,1.0,1.0,1.0,386.046038999666,4.0,1.0,part_1,,,,,,,,,,,,,cyan,triangle
402.0,4.0,4.0,0.0,2.0,2.0,312.2183749992473,4.0,1.0,part_1,,,,,,,,,,,,,yellow,hexagon
35.0,1.0,1.0,0.0,1.0,1.0,295.3887189996749,4.0,1.0,part_1,,,,,,,,,,,,,white,circle
192.0,7.0,3.0,1.0,3.0,3.0,367.2029900008056,4.0,1.0,part_1,,,,,,,,,,,,,blue,cross
48.0,1.0,1.0,0.0,4.0,4.0,311.6618439999001,4.0,1.0,part_1,,,,,,,,,,,,,white,circle
200.0,7.0,3.0,1.0,3.0,3.0,361.0902589998659,4.0,1.0,part_1,,,,,,,,,,,,,blue,cross
175.0,3.0,3.0,0.0,3.0,3.0,352.7978160000202,4.0,1.0,part_1,,,,,,,,,,,,,magenta,diamond
0.0,6.0,0.0,1.0,3.0,3.0,313.9957700004743,4.0,1.0,part_1,,,,,,,,,,,,,cyan,triangle
417.0,4.0,4.0,0.0,1.0,1.0,312.4044260002847,4.0,1.0,part_1,,,,,,,,,,,,,yellow,hexagon
0.0,6.0,0.0,1.0,2.0,2.0,378.4260360007465,4.0,1.0,part_1,,,,,,,,,,,,,cyan,triangle
0.0,8.0,0.0,1.0,3.0,3.0,375.6221739995453,4.0,1.0,part_1,,,,,,,,,,,,,gray,I
95.0,2.0,2.0,0.0,1.0,1.0,387.5062500001149,4.0,1.0,part_1,,,,,,,,,,,,,orange,flipped triangle
0.0,1.0,0.0,0.0,3.0,3.0,296.7754589999458,4.0,1.0,part_1,,,,,,,,,,,,,white,circle
112.0,2.0,2.0,0.0,1.0,1.0,319.9690539995572,4.0,1.0,part_1,,,,,,,,,,,,,orange,flipped triangle
87.0,6.0,2.0,1.0,2.0,2.0,336.365723000199,4.0,1.0,part_1,,,,,,,,,,,,,cyan,triangle
68.0,1.0,1.0,0.0,4.0,4.0,371.7426459998023,4.0,1.0,part_1,,,,,,,,,,,,,white,circle
415.0,8.0,4.0,1.0,1.0,1.0,425.574544000483,4.0,1.0,part_1,,,,,,,,,,,,,gray,I
177.0,7.0,3.0,1.0,4.0,4.0,365.5762819998926,4.0,1.0,part_1,,,,,,,,,,,,,blue,cross
72.0,1.0,1.0,0.0,2.0,2.0,283.33855999972,4.0,1.0,part_1,,,,,,,,,,,,,white,circle
44.0,1.0,1.0,0.0,3.0,3.0,323.5772579992044,4.0,1.0,part_1,,,,,,,,,,,,,white,circle
405.0,8.0,4.0,1.0,4.0,4.0,300.4377950001071,4.0,1.0,part_1,,,,,,,,,,,,,gray,I
73.0,1.0,1.0,0.0,3.0,3.0,295.2421550007784,4.0,1.0,part_1,,,,,,,,,,,,,white,circle
179.0,3.0,3.0,0.0,2.0,2.0,312.0410069996069,4.0,1.0,part_1,,,,,,,,,,,,,magenta,diamond
0.0,8.0,0.0,1.0,1.0,1.0,393.4702830001697,4.0,1.0,part_1,,,,,,,,,,,,,gray,I
419.0,4.0,4.0,0.0,2.0,2.0,319.8112549998768,4.0,1.0,part_1,,,,,,,,,,,,,yellow,hexagon
0.0,1.0,0.0,0.0,1.0,1.0,332.1402059991669,4.0,1.0,part_1,,,,,,,,,,,,,white,circle
413.0,8.0,4.0,1.0,2.0,2.0,352.310581999518,4.0,1.0,part_1,,,,,,,,,,,,,gray,I
0.0,1.0,0.0,0.0,3.0,3.0,313.9240249993236,4.0,1.0,part_1,,,,,,,,,,,,,white,circle
0.0,4.0,0.0,0.0,3.0,3.0,361.7476819999865,4.0,1.0,part_1,,,,,,,,,,,,,yellow,hexagon
87.0,2.0,2.0,0.0,2.0,2.0,341.5033319997747,4.0,1.0,part_1,,,,,,,,,,,,,orange,flipped triangle
424.0,8.0,4.0,1.0,1.0,1.0,469.8845549992256,4.0,1.0,part_1,,,,,,,,,,,,,gray,I
50.0,1.0,1.0,0.0,4.0,4.0,373.032430999956,4.0,2.0,part_1,,,,,,,,,,,,,white,circle
27.0,1.0,1.0,0.0,4.0,4.0,323.3066479997433,4.0,1.0,part_1,,,,,,,,,,,,,white,circle
205.0,3.0,3.0,0.0,1.0,1.0,447.9589960001249,4.0,1.0,part_1,,,,,,,,,,,,,magenta,diamond
0.0,6.0,0.0,1.0,2.0,2.0,374.1253769994728,4.0,1.0,part_1,,,,,,,,,,,,,cyan,triangle
205.0,7.0,3.0,1.0,1.0,1.0,395.7227809996766,4.0,1.0,part_1,,,,,,,,,,,,,blue,cross
0.0,1.0,0.0,0.0,4.0,4.0,502.76433500039275,4.0,1.0,part_1,,,,,,,,,,,,,white,circle
404.0,8.0,4.0,1.0,4.0,4.0,369.375871999182,4.0,1.0,part_1,,,,,,,,,,,,,gray,I
56.0,5.0,1.0,1.0,2.0,2.0,365.0139450001006,4.0,1.0,part_1,,,,,,,,,,,,,green,square
216.0,7.0,3.0,1.0,4.0,4.0,445.2113090001148,4.0,1.0,part_1,,,,,,,,,,,,,blue,cross
50.0,5.0,1.0,1.0,3.0,3.0,324.8213480001141,4.0,1.0,part_1,,,,,,,,,,,,,green,square
25.0,5.0,1.0,1.0,3.0,3.0,382.1906980001586,4.0,1.0,part_1,,,,,,,,,,,,,green,square
95.0,6.0,2.0,1.0,2.0,2.0,362.7231950003988,4.0,1.0,part_1,,,,,,,,,,,,,cyan,triangle
416.0,4.0,4.0,0.0,2.0,2.0,340.1920830001472,4.0,1.0,part_1,,,,,,,,,,,,,yellow,hexagon
212.0,7.0,3.0,1.0,2.0,2.0,336.3095419999808,4.0,1.0,part_1,,,,,,,,,,,,,blue,cross
203.0,3.0,3.0,0.0,1.0,1.0,318.3059949997187,4.0,1.0,part_1,,,,,,,,,,,,,magenta,diamond
28.0,5.0,1.0,1.0,3.0,3.0,305.1265469994177,4.0,1.0,part_1,,,,,,,,,,,,,green,square
60.0,5.0,1.0,1.0,1.0,1.0,296.7592580007476,4.0,1.0,part_1,,,,,,,,,,,,,green,square
0.0,5.0,0.0,1.0,1.0,1.0,325.3020049996848,4.0,1.0,part_1,,,,,,,,,,,,,green,square
417.0,8.0,4.0,1.0,3.0,3.0,344.2208789992946,4.0,1.0,part_1,,,,,,,,,,,,,gray,I
0.0,3.0,0.0,0.0,1.0,1.0,301.66848799945,4.0,1.0,part_1,,,,,,,,,,,,,magenta,diamond
28.0,1.0,1.0,0.0,4.0,4.0,374.8400459999175,4.0,1.0,part_1,,,,,,,,,,,,,white,circle
401.0,4.0,4.0,0.0,1.0,1.0,332.2567740005979,4.0,1.0,part_1,,,,,,,,,,,,,yellow,hexagon
59.0,5.0,1.0,1.0,3.0,3.0,340.7554800005528,4.0,1.0,part_1,,,,,,,,,,,,,green,square
98.0,6.0,2.0,1.0,4.0,4.0,515.1246309997077,4.0,1.0,part_1,,,,,,,,,,,,,cyan,triangle
115.0,6.0,2.0,1.0,3.0,3.0,558.8692849996733,4.0,1.0,part_1,,,,,,,,,,,,,cyan,triangle
223.0,3.0,3.0,0.0,3.0,3.0,378.5135319994879,4.0,1.0,part_1,,,,,,,,,,,,,magenta,diamond
33.0,1.0,1.0,0.0,2.0,2.0,326.7334769998342,4.0,2.0,part_1,,,,,,,,,,,,,white,circle
72.0,5.0,1.0,1.0,2.0,2.0,346.807152999645,4.0,1.0,part_1,,,,,,,,,,,,,green,square
0.0,1.0,0.0,0.0,2.0,2.0,320.8302100001674,4.0,1.0,part_1,,,,,,,,,,,,,white,circle
175.0,7.0,3.0,1.0,2.0,2.0,352.6193529996817,4.0,1.0,part_1,,,,,,,,,,,,,blue,cross
0.0,8.0,0.0,1.0,3.0,3.0,402.1327289992769,4.0,1.0,part_1,,,,,,,,,,,,,gray,I
120.0,2.0,2.0,0.0,3.0,3.0,454.7966649997761,4.0,1.0,part_1,,,,,,,,,,,,,orange,flipped triangle
0.0,1.0,0.0,0.0,3.0,3.0,305.9791250007038,4.0,1.0,part_1,,,,,,,,,,,,,white,circle
103.0,6.0,2.0,1.0,3.0,3.0,298.635524999554,4.0,1.0,part_1,,,,,,,,,,,,,cyan,triangle
121.0,6.0,2.0,1.0,3.0,3.0,358.0101649995413,4.0,1.0,part_1,,,,,,,,,,,,,cyan,triangle
0.0,5.0,0.0,1.0,1.0,1.0,419.0291419999994,4.0,1.0,part_1,,,,,,,,,,,,,green,square
391.0,8.0,4.0,1.0,1.0,1.0,533.2740719995854,4.0,1.0,part_1,,,,,,,,,,,,,gray,I
49.0,5.0,1.0,1.0,4.0,4.0,474.4299399999363,4.0,1.0,part_1,,,,,,,,,,,,,green,square
220.0,7.0,3.0,1.0,2.0,2.0,306.0519470000145,4.0,1.0,part_1,,,,,,,,,,,,,blue,cross
400.0,8.0,4.0,1.0,4.0,4.0,379.7213439993356,4.0,1.0,part_1,,,,,,,,,,,,,gray,I
105.0,2.0,2.0,0.0,2.0,2.0,398.5762819993397,4.0,2.0,part_1,,,,,,,,,,,,,orange,flipped triangle
95.0,6.0,2.0,1.0,3.0,3.0,416.0294349994728,4.0,1.0,part_1,,,,,,,,,,,,,cyan,triangle
55.0,1.0,1.0,0.0,2.0,2.0,403.8634089993138,4.0,1.0,part_1,,,,,,,,,,,,,white,circle
69.0,1.0,1.0,0.0,4.0,4.0,334.6322190000137,4.0,1.0,part_1,,,,,,,,,,,,,white,circle
0.0,1.0,0.0,0.0,4.0,4.0,476.5957929994329,4.0,1.0,part_1,,,,,,,,,,,,,white,circle
35.0,5.0,1.0,1.0,1.0,1.0,601.7496409995147,4.0,1.0,part_1,,,,,,,,,,,,,green,square
92.0,6.0,2.0,1.0,3.0,3.0,380.6261110003106,4.0,1.0,part_1,,,,,,,,,,,,,cyan,triangle
410.0,8.0,4.0,1.0,1.0,1.0,466.344124999523,4.0,1.0,part_1,,,,,,,,,,,,,gray,I
117.0,2.0,2.0,0.0,3.0,3.0,389.6327169995857,4.0,1.0,part_1,,,,,,,,,,,,,orange,flipped triangle
214.0,3.0,3.0,0.0,1.0,1.0,466.1527369999021,4.0,1.0,part_1,,,,,,,,,,,,,magenta,diamond
108.0,2.0,2.0,0.0,1.0,1.0,323.0018169997493,4.0,1.0,part_1,,,,,,,,,,,,,orange,flipped triangle
0.0,3.0,0.0,0.0,4.0,4.0,551.8595739995362,4.0,1.0,part_1,,,,,,,,,,,,,magenta,diamond
0.0,2.0,2.0,0.0,5.0,5.0,740.2729999994335,1.0,0.0,part_2,go,250.0,250.0,1.0,,,,,,,,,orange,flipped triangle
0.0,7.0,3.0,1.0,6.0,6.0,404.5518579996496,1.0,0.0,part_2,stop,250.0,250.0,3.0,,,,,,,,,blue,cross
0.0,7.0,3.0,1.0,5.0,5.0,436.6761930004941,1.0,0.0,part_2,stop,250.0,200.0,3.0,,,,,,,,,blue,cross
0.0,6.0,2.0,1.0,5.0,0.0,0.0,1.0,0.0,part_2,stop,200.0,200.0,4.0,,,,,,,,,cyan,triangle
0.0,3.0,3.0,0.0,5.0,5.0,350.2344279995668,1.0,0.0,part_2,go,250.0,200.0,1.0,,,,,,,,,magenta,diamond
0.0,2.0,2.0,0.0,5.0,5.0,583.8666820000071,1.0,0.0,part_2,go,250.0,200.0,1.0,,,,,,,,,orange,flipped triangle
0.0,2.0,2.0,0.0,5.0,5.0,555.3311740004574,1.0,0.0,part_2,go,250.0,200.0,1.0,,,,,,,,,orange,flipped triangle
0.0,3.0,3.0,0.0,5.0,5.0,507.6498280004671,1.0,0.0,part_2,go,250.0,200.0,1.0,,,,,,,,,magenta,diamond
0.0,2.0,2.0,0.0,6.0,6.0,320.675181000297,1.0,0.0,part_2,go,250.0,200.0,1.0,,,,,,,,,orange,flipped triangle
0.0,1.0,1.0,0.0,5.0,5.0,249.2851169999994,1.0,0.0,part_2,go,250.0,200.0,1.0,,,,,,,,,white,circle
0.0,7.0,3.0,1.0,6.0,6.0,314.2985619997489,1.0,0.0,part_2,stop,250.0,200.0,3.0,,,,,,,,,blue,cross
0.0,3.0,3.0,0.0,5.0,5.0,321.8520820000776,1.0,0.0,part_2,go,250.0,150.0,1.0,,,,,,,,,magenta,diamond
0.0,6.0,2.0,1.0,6.0,6.0,325.3597149996494,1.0,0.0,part_2,stop,250.0,150.0,3.0,,,,,,,,,cyan,triangle
0.0,3.0,3.0,0.0,6.0,6.0,577.47537799969,1.0,0.0,part_2,go,250.0,100.0,1.0,,,,,,,,,magenta,diamond
0.0,7.0,3.0,1.0,6.0,0.0,0.0,1.0,0.0,part_2,stop,250.0,100.0,4.0,,,,,,,,,blue,cross
0.0,4.0,4.0,0.0,6.0,6.0,581.5659989993947,1.0,0.0,part_2,go,250.0,150.0,1.0,,,,,,,,,yellow,hexagon
0.0,2.0,2.0,0.0,6.0,6.0,546.5593590006392,1.0,0.0,part_2,go,250.0,150.0,1.0,,,,,,,,,orange,flipped triangle
0.0,6.0,2.0,1.0,5.0,0.0,0.0,1.0,0.0,part_2,stop,250.0,150.0,4.0,,,,,,,,,cyan,triangle
0.0,5.0,1.0,1.0,6.0,0.0,0.0,1.0,0.0,part_2,stop,300.0,150.0,4.0,,,,,,,,,green,square
0.0,7.0,3.0,1.0,5.0,0.0,0.0,1.0,0.0,part_2,stop,300.0,200.0,4.0,,,,,,,,,blue,cross
0.0,2.0,2.0,0.0,6.0,6.0,591.0875720001059,1.0,0.0,part_2,go,350.0,200.0,1.0,,,,,,,,,orange,flipped triangle
0.0,4.0,4.0,0.0,5.0,5.0,580.8068319993254,1.0,0.0,part_2,go,350.0,200.0,1.0,,,,,,,,,yellow,hexagon
0.0,6.0,2.0,1.0,6.0,0.0,0.0,1.0,0.0,part_2,stop,350.0,200.0,4.0,,,,,,,,,cyan,triangle
0.0,5.0,1.0,1.0,5.0,0.0,0.0,1.0,0.0,part_2,stop,350.0,250.0,4.0,,,,,,,,,green,square
0.0,4.0,4.0,0.0,5.0,5.0,598.8605210004607,1.0,0.0,part_2,go,400.0,250.0,1.0,,,,,,,,,yellow,hexagon
0.0,5.0,1.0,1.0,5.0,0.0,0.0,1.0,0.0,part_2,stop,400.0,250.0,4.0,,,,,,,,,green,square
0.0,5.0,1.0,1.0,5.0,0.0,0.0,1.0,0.0,part_2,stop,450.0,250.0,4.0,,,,,,,,,green,square
0.0,5.0,1.0,1.0,6.0,0.0,0.0,1.0,0.0,part_2,stop,500.0,250.0,4.0,,,,,,,,,green,square
0.0,4.0,4.0,0.0,6.0,6.0,591.370692000055,1.0,0.0,part_2,go,500.0,300.0,1.0,,,,,,,,,yellow,hexagon
0.0,6.0,2.0,1.0,6.0,6.0,709.4463099992936,1.0,0.0,part_2,go,500.0,300.0,1.0,,,,,,,,,cyan,triangle
0.0,4.0,4.0,0.0,6.0,6.0,612.6021029995172,1.0,0.0,part_2,go,500.0,300.0,1.0,,,,,,,,,yellow,hexagon
0.0,8.0,4.0,1.0,6.0,6.0,618.2545450001271,1.0,0.0,part_2,go,500.0,300.0,1.0,,,,,,,,,gray,I
0.0,7.0,3.0,1.0,5.0,5.0,600.3442519995588,1.0,0.0,part_2,go,500.0,300.0,1.0,,,,,,,,,blue,cross
0.0,5.0,1.0,1.0,5.0,5.0,471.159570999589,1.0,0.0,part_2,go,500.0,300.0,1.0,,,,,,,,,green,square
0.0,5.0,1.0,1.0,5.0,5.0,350.2073390000078,1.0,0.0,part_2,stop,500.0,300.0,3.0,,,,,,,,,green,square
0.0,4.0,4.0,0.0,5.0,5.0,807.0919410001807,1.0,0.0,part_2,go,450.0,300.0,1.0,,,,,,,,,yellow,hexagon
0.0,1.0,1.0,0.0,6.0,6.0,1045.0781570007166,2.0,0.0,part_2,go,450.0,300.0,1.0,,,,,,,,,white,circle
0.0,1.0,1.0,0.0,5.0,5.0,503.16175100033433,2.0,0.0,part_2,go,450.0,300.0,1.0,,,,,,,,,white,circle
0.0,8.0,4.0,1.0,6.0,6.0,510.68604000010964,2.0,0.0,part_2,go,450.0,300.0,1.0,,,,,,,,,gray,I
0.0,6.0,2.0,1.0,5.0,5.0,527.6746950003144,2.0,0.0,part_2,go,450.0,300.0,1.0,,,,,,,,,cyan,triangle
0.0,2.0,2.0,0.0,6.0,6.0,288.6391940000976,2.0,0.0,part_2,go,450.0,300.0,1.0,,,,,,,,,orange,flipped triangle
0.0,3.0,3.0,0.0,6.0,6.0,402.4582350002674,2.0,0.0,part_2,go,450.0,300.0,1.0,,,,,,,,,magenta,diamond
0.0,2.0,2.0,0.0,5.0,5.0,562.3409099998753,2.0,0.0,part_2,go,450.0,300.0,1.0,,,,,,,,,orange,flipped triangle
0.0,4.0,4.0,0.0,6.0,6.0,442.4848119997477,2.0,0.0,part_2,go,450.0,300.0,1.0,,,,,,,,,yellow,hexagon
0.0,6.0,2.0,1.0,5.0,5.0,366.8764210005975,2.0,0.0,part_2,stop,450.0,300.0,3.0,,,,,,,,,cyan,triangle
0.0,8.0,4.0,1.0,6.0,6.0,431.1132420007197,2.0,0.0,part_2,go,400.0,300.0,1.0,,,,,,,,,gray,I
0.0,4.0,4.0,0.0,6.0,6.0,464.6801369999593,2.0,0.0,part_2,go,400.0,300.0,1.0,,,,,,,,,yellow,hexagon
0.0,3.0,3.0,0.0,5.0,5.0,543.4578279991911,2.0,0.0,part_2,go,400.0,300.0,1.0,,,,,,,,,magenta,diamond
0.0,6.0,2.0,1.0,6.0,6.0,337.0237219996852,2.0,0.0,part_2,stop,400.0,300.0,3.0,,,,,,,,,cyan,triangle
0.0,3.0,3.0,0.0,5.0,5.0,403.8330319999659,2.0,0.0,part_2,go,400.0,250.0,1.0,,,,,,,,,magenta,diamond
0.0,1.0,1.0,0.0,5.0,5.0,516.1655089996202,2.0,0.0,part_2,go,400.0,250.0,1.0,,,,,,,,,white,circle
0.0,1.0,1.0,0.0,5.0,5.0,434.9101649995646,2.0,0.0,part_2,go,400.0,250.0,1.0,,,,,,,,,white,circle
0.0,4.0,4.0,0.0,5.0,5.0,367.2751459998835,2.0,0.0,part_2,go,400.0,250.0,1.0,,,,,,,,,yellow,hexagon
0.0,3.0,3.0,0.0,6.0,6.0,343.5897169993041,2.0,0.0,part_2,go,400.0,250.0,1.0,,,,,,,,,magenta,diamond
0.0,5.0,1.0,1.0,6.0,6.0,350.1336589997663,2.0,0.0,part_2,stop,400.0,250.0,3.0,,,,,,,,,green,square
0.0,3.0,3.0,0.0,5.0,5.0,484.1218720002871,2.0,0.0,part_2,go,400.0,200.0,1.0,,,,,,,,,magenta,diamond
0.0,2.0,2.0,0.0,5.0,5.0,541.030684999896,2.0,0.0,part_2,go,400.0,200.0,1.0,,,,,,,,,orange,flipped triangle
0.0,3.0,3.0,0.0,5.0,5.0,363.8208590000431,2.0,0.0,part_2,go,400.0,200.0,1.0,,,,,,,,,magenta,diamond
0.0,7.0,3.0,1.0,6.0,6.0,338.8708579996091,2.0,0.0,part_2,stop,400.0,200.0,3.0,,,,,,,,,blue,cross
0.0,3.0,3.0,0.0,5.0,5.0,307.401328999731,2.0,0.0,part_2,go,400.0,150.0,1.0,,,,,,,,,magenta,diamond
0.0,4.0,4.0,0.0,5.0,5.0,781.537524999294,2.0,0.0,part_2,go,400.0,150.0,1.0,,,,,,,,,yellow,hexagon
0.0,2.0,2.0,0.0,6.0,6.0,548.6765099994955,2.0,0.0,part_2,go,400.0,150.0,1.0,,,,,,,,,orange,flipped triangle
0.0,2.0,2.0,0.0,6.0,6.0,452.9750560004686,2.0,0.0,part_2,go,400.0,150.0,1.0,,,,,,,,,orange,flipped triangle
0.0,6.0,2.0,1.0,6.0,6.0,706.3150910007607,2.0,0.0,part_2,go,400.0,150.0,1.0,,,,,,,,,cyan,triangle
0.0,7.0,3.0,1.0,6.0,0.0,0.0,2.0,0.0,part_2,stop,400.0,150.0,4.0,,,,,,,,,blue,cross
0.0,2.0,2.0,0.0,5.0,5.0,496.1781450001581,2.0,0.0,part_2,go,400.0,200.0,1.0,,,,,,,,,orange,flipped triangle
0.0,3.0,3.0,0.0,6.0,6.0,529.7727809993376,2.0,0.0,part_2,go,400.0,200.0,1.0,,,,,,,,,magenta,diamond
0.0,5.0,1.0,1.0,6.0,6.0,366.7531789997156,2.0,0.0,part_2,go,400.0,200.0,1.0,,,,,,,,,green,square
0.0,6.0,2.0,1.0,5.0,5.0,331.4907620006124,2.0,0.0,part_2,stop,400.0,200.0,3.0,,,,,,,,,cyan,triangle
0.0,3.0,3.0,0.0,5.0,5.0,559.6924470000886,2.0,0.0,part_2,go,350.0,200.0,1.0,,,,,,,,,magenta,diamond
0.0,5.0,1.0,1.0,5.0,5.0,446.5706999999383,2.0,0.0,part_2,stop,350.0,200.0,3.0,,,,,,,,,green,square
0.0,7.0,3.0,1.0,6.0,0.0,0.0,2.0,0.0,part_2,stop,300.0,200.0,4.0,,,,,,,,,blue,cross
0.0,6.0,2.0,1.0,5.0,5.0,459.3907190001118,3.0,0.0,part_2,stop,300.0,250.0,3.0,,,,,,,,,cyan,triangle
0.0,3.0,3.0,0.0,5.0,5.0,435.5544780000855,3.0,0.0,part_2,go,250.0,250.0,1.0,,,,,,,,,magenta,diamond
0.0,6.0,2.0,1.0,5.0,5.0,341.9665269993857,3.0,0.0,part_2,stop,250.0,250.0,3.0,,,,,,,,,cyan,triangle
0.0,8.0,4.0,1.0,6.0,0.0,0.0,3.0,0.0,part_2,stop,200.0,250.0,4.0,,,,,,,,,gray,I
0.0,8.0,4.0,1.0,5.0,0.0,0.0,3.0,0.0,part_2,stop,200.0,300.0,4.0,,,,,,,,,gray,I
0.0,2.0,2.0,0.0,6.0,6.0,633.7030340000638,3.0,0.0,part_2,go,250.0,300.0,1.0,,,,,,,,,orange,flipped triangle
0.0,3.0,3.0,0.0,5.0,5.0,520.0819090005098,3.0,0.0,part_2,go,250.0,300.0,1.0,,,,,,,,,magenta,diamond
0.0,3.0,3.0,0.0,6.0,6.0,488.9659350001238,3.0,0.0,part_2,go,250.0,300.0,1.0,,,,,,,,,magenta,diamond
0.0,8.0,4.0,1.0,6.0,0.0,0.0,3.0,0.0,part_2,stop,250.0,300.0,4.0,,,,,,,,,gray,I
0.0,8.0,4.0,1.0,6.0,6.0,592.7377319994775,3.0,0.0,part_2,go,250.0,350.0,1.0,,,,,,,,,gray,I
0.0,3.0,3.0,0.0,6.0,6.0,498.937104000106,3.0,0.0,part_2,go,250.0,350.0,1.0,,,,,,,,,magenta,diamond
0.0,5.0,1.0,1.0,5.0,0.0,0.0,3.0,0.0,part_2,stop,250.0,350.0,4.0,,,,,,,,,green,square
0.0,1.0,1.0,0.0,6.0,6.0,574.6160680000685,3.0,0.0,part_2,go,300.0,350.0,1.0,,,,,,,,,white,circle
0.0,2.0,2.0,0.0,6.0,6.0,347.4477569998271,3.0,0.0,part_2,go,300.0,350.0,1.0,,,,,,,,,orange,flipped triangle
0.0,6.0,2.0,1.0,6.0,6.0,340.8040969998183,3.0,0.0,part_2,stop,300.0,350.0,3.0,,,,,,,,,cyan,triangle
0.0,5.0,1.0,1.0,5.0,5.0,411.8751140003951,3.0,0.0,part_2,stop,300.0,300.0,3.0,,,,,,,,,green,square
0.0,8.0,4.0,1.0,5.0,0.0,0.0,3.0,0.0,part_2,stop,250.0,300.0,4.0,,,,,,,,,gray,I
0.0,2.0,2.0,0.0,5.0,5.0,949.7317400000612,3.0,0.0,part_2,go,300.0,300.0,1.0,,,,,,,,,orange,flipped triangle
0.0,4.0,4.0,0.0,6.0,6.0,517.0034359998681,3.0,0.0,part_2,go,300.0,300.0,1.0,,,,,,,,,yellow,hexagon
0.0,8.0,4.0,1.0,5.0,5.0,526.7087740003262,3.0,0.0,part_2,go,300.0,300.0,1.0,,,,,,,,,gray,I
0.0,5.0,1.0,1.0,6.0,6.0,459.3255179997868,3.0,0.0,part_2,stop,300.0,300.0,3.0,,,,,,,,,green,square
0.0,5.0,1.0,1.0,6.0,6.0,435.3478110006108,3.0,0.0,part_2,go,300.0,250.0,1.0,,,,,,,,,green,square
0.0,2.0,2.0,0.0,5.0,5.0,539.0999410001314,3.0,0.0,part_2,go,300.0,250.0,1.0,,,,,,,,,orange,flipped triangle
0.0,1.0,1.0,0.0,5.0,5.0,457.0587990001513,3.0,0.0,part_2,go,300.0,250.0,1.0,,,,,,,,,white,circle
0.0,1.0,1.0,0.0,5.0,5.0,427.1811779999552,3.0,0.0,part_2,go,300.0,250.0,1.0,,,,,,,,,white,circle
0.0,5.0,1.0,1.0,6.0,6.0,365.4099539999151,3.0,0.0,part_2,stop,300.0,250.0,3.0,,,,,,,,,green,square
0.0,5.0,1.0,1.0,6.0,0.0,0.0,3.0,0.0,part_2,stop,300.0,200.0,4.0,,,,,,,,,green,square
0.0,1.0,1.0,0.0,6.0,6.0,530.2725729998201,3.0,0.0,part_2,go,300.0,250.0,1.0,,,,,,,,,white,circle
0.0,7.0,3.0,1.0,5.0,5.0,400.4260770007022,3.0,0.0,part_2,go,300.0,250.0,1.0,,,,,,,,,blue,cross
0.0,7.0,3.0,1.0,6.0,6.0,409.7115939994182,3.0,0.0,part_2,stop,300.0,250.0,3.0,,,,,,,,,blue,cross
0.0,8.0,4.0,1.0,5.0,0.0,0.0,3.0,0.0,part_2,stop,300.0,200.0,4.0,,,,,,,,,gray,I
0.0,3.0,3.0,0.0,6.0,6.0,688.424660000237,3.0,0.0,part_2,go,350.0,200.0,1.0,,,,,,,,,magenta,diamond
0.0,4.0,4.0,0.0,5.0,5.0,380.5929630007085,3.0,0.0,part_2,go,350.0,200.0,1.0,,,,,,,,,yellow,hexagon
0.0,6.0,2.0,1.0,6.0,6.0,403.163148999738,3.0,0.0,part_2,go,350.0,200.0,1.0,,,,,,,,,cyan,triangle
0.0,6.0,2.0,1.0,6.0,0.0,0.0,3.0,0.0,part_2,stop,350.0,200.0,4.0,,,,,,,,,cyan,triangle
0.0,5.0,1.0,1.0,5.0,5.0,528.4528029997091,3.0,0.0,part_2,go,350.0,250.0,1.0,,,,,,,,,green,square
0.0,1.0,1.0,0.0,5.0,5.0,822.9133240001829,4.0,0.0,part_2,go,350.0,250.0,1.0,,,,,,,,,white,circle
0.0,3.0,3.0,0.0,6.0,6.0,470.1014069996745,4.0,0.0,part_2,go,350.0,250.0,1.0,,,,,,,,,magenta,diamond
0.0,4.0,4.0,0.0,6.0,6.0,588.5982669997247,4.0,0.0,part_2,go,350.0,250.0,1.0,,,,,,,,,yellow,hexagon
0.0,7.0,3.0,1.0,6.0,6.0,357.8352570002607,4.0,0.0,part_2,go,350.0,250.0,1.0,,,,,,,,,blue,cross
0.0,2.0,2.0,0.0,5.0,5.0,306.0273029996097,4.0,0.0,part_2,go,350.0,250.0,1.0,,,,,,,,,orange,flipped triangle
0.0,7.0,3.0,1.0,6.0,6.0,289.1724950004573,4.0,0.0,part_2,stop,350.0,250.0,3.0,,,,,,,,,blue,cross
0.0,7.0,3.0,1.0,6.0,0.0,0.0,4.0,0.0,part_2,stop,350.0,200.0,4.0,,,,,,,,,blue,cross
0.0,3.0,3.0,0.0,5.0,5.0,327.6070069996422,4.0,0.0,part_2,go,350.0,250.0,1.0,,,,,,,,,magenta,diamond
0.0,4.0,4.0,0.0,5.0,5.0,372.2640640007739,4.0,0.0,part_2,go,350.0,250.0,1.0,,,,,,,,,yellow,hexagon
0.0,8.0,4.0,1.0,5.0,5.0,327.5113820000115,4.0,0.0,part_2,go,350.0,250.0,1.0,,,,,,,,,gray,I
0.0,1.0,1.0,0.0,6.0,6.0,524.8416900003576,4.0,0.0,part_2,go,350.0,250.0,1.0,,,,,,,,,white,circle
0.0,2.0,2.0,0.0,6.0,6.0,322.6649119997091,4.0,0.0,part_2,go,350.0,250.0,1.0,,,,,,,,,orange,flipped triangle
0.0,3.0,3.0,0.0,6.0,6.0,319.0564679998715,4.0,0.0,part_2,go,350.0,250.0,1.0,,,,,,,,,magenta,diamond
0.0,4.0,4.0,0.0,6.0,6.0,376.2063700005456,4.0,0.0,part_2,go,350.0,250.0,1.0,,,,,,,,,yellow,hexagon
0.0,7.0,3.0,1.0,5.0,5.0,345.8350929995504,4.0,0.0,part_2,stop,350.0,250.0,3.0,,,,,,,,,blue,cross
0.0,8.0,4.0,1.0,5.0,5.0,398.5016980004729,4.0,0.0,part_2,stop,300.0,250.0,3.0,,,,,,,,,gray,I
0.0,7.0,3.0,1.0,6.0,0.0,0.0,4.0,0.0,part_2,stop,250.0,250.0,4.0,,,,,,,,,blue,cross
0.0,1.0,1.0,0.0,5.0,5.0,531.8989449997389,4.0,0.0,part_2,go,250.0,300.0,1.0,,,,,,,,,white,circle
0.0,2.0,2.0,0.0,5.0,5.0,345.0532520000706,4.0,0.0,part_2,go,250.0,300.0,1.0,,,,,,,,,orange,flipped triangle
0.0,2.0,2.0,0.0,6.0,6.0,343.732488000569,4.0,0.0,part_2,go,250.0,300.0,1.0,,,,,,,,,orange,flipped triangle
0.0,3.0,3.0,0.0,6.0,6.0,348.6486989995683,4.0,0.0,part_2,go,250.0,300.0,1.0,,,,,,,,,magenta,diamond
0.0,6.0,2.0,1.0,5.0,5.0,329.9071889996412,4.0,0.0,part_2,stop,250.0,300.0,3.0,,,,,,,,,cyan,triangle
0.0,8.0,4.0,1.0,5.0,5.0,452.1478830001797,4.0,0.0,part_2,go,200.0,300.0,1.0,,,,,,,,,gray,I
0.0,5.0,1.0,1.0,6.0,6.0,287.6571570004671,4.0,0.0,part_2,go,200.0,300.0,1.0,,,,,,,,,green,square
0.0,5.0,1.0,1.0,5.0,5.0,298.1742749998375,4.0,0.0,part_2,go,200.0,300.0,1.0,,,,,,,,,green,square
0.0,3.0,3.0,0.0,6.0,6.0,309.82764899999887,4.0,0.0,part_2,go,200.0,300.0,1.0,,,,,,,,,magenta,diamond
0.0,7.0,3.0,1.0,5.0,5.0,328.1040620004205,4.0,0.0,part_2,go,200.0,300.0,1.0,,,,,,,,,blue,cross
0.0,1.0,1.0,0.0,6.0,6.0,296.1724970000432,4.0,0.0,part_2,go,200.0,300.0,1.0,,,,,,,,,white,circle
0.0,6.0,2.0,1.0,6.0,6.0,366.8234249998932,4.0,0.0,part_2,stop,200.0,300.0,3.0,,,,,,,,,cyan,triangle
0.0,8.0,4.0,1.0,6.0,6.0,395.6609710003249,4.0,0.0,part_2,stop,200.0,250.0,3.0,,,,,,,,,gray,I
0.0,2.0,2.0,0.0,5.0,5.0,314.9027049994402,4.0,0.0,part_2,go,200.0,200.0,1.0,,,,,,,,,orange,flipped triangle
0.0,2.0,2.0,0.0,5.0,5.0,403.330504999758,4.0,0.0,part_2,go,200.0,200.0,1.0,,,,,,,,,orange,flipped triangle
0.0,3.0,3.0,0.0,5.0,5.0,399.6826639995561,4.0,0.0,part_2,go,200.0,200.0,1.0,,,,,,,,,magenta,diamond
0.0,1.0,1.0,0.0,5.0,5.0,482.4926989995219,4.0,0.0,part_2,go,200.0,200.0,1.0,,,,,,,,,white,circle
0.0,3.0,3.0,0.0,5.0,5.0,631.6531570000734,4.0,0.0,part_2,go,200.0,200.0,1.0,,,,,,,,,magenta,diamond
0.0,1.0,1.0,0.0,5.0,5.0,341.1375330006194,4.0,0.0,part_2,go,200.0,200.0,1.0,,,,,,,,,white,circle
0.0,4.0,4.0,0.0,5.0,5.0,591.779575000146,5.0,0.0,part_2,go,200.0,200.0,1.0,,,,,,,,,yellow,hexagon
0.0,8.0,4.0,1.0,6.0,6.0,413.3214220000809,5.0,0.0,part_2,stop,200.0,200.0,3.0,,,,,,,,,gray,I
0.0,4.0,4.0,0.0,6.0,6.0,308.4405399995376,5.0,0.0,part_2,go,200.0,150.0,1.0,,,,,,,,,yellow,hexagon
0.0,2.0,2.0,0.0,5.0,5.0,382.16168500002817,5.0,0.0,part_2,go,200.0,150.0,1.0,,,,,,,,,orange,flipped triangle
0.0,7.0,3.0,1.0,5.0,0.0,0.0,5.0,0.0,part_2,stop,200.0,150.0,4.0,,,,,,,,,blue,cross
0.0,6.0,2.0,1.0,5.0,5.0,613.0962450006336,5.0,0.0,part_2,go,250.0,150.0,1.0,,,,,,,,,cyan,triangle
0.0,7.0,3.0,1.0,5.0,5.0,370.4277730003014,5.0,0.0,part_2,stop,250.0,150.0,3.0,,,,,,,,,blue,cross
0.0,1.0,1.0,0.0,5.0,5.0,399.676410000211,5.0,0.0,part_2,go,200.0,150.0,1.0,,,,,,,,,white,circle
0.0,4.0,4.0,0.0,5.0,5.0,503.4665479997784,5.0,0.0,part_2,go,200.0,150.0,1.0,,,,,,,,,yellow,hexagon
0.0,5.0,1.0,1.0,6.0,6.0,324.8473629992077,5.0,0.0,part_2,go,200.0,150.0,1.0,,,,,,,,,green,square
0.0,8.0,4.0,1.0,6.0,0.0,0.0,5.0,0.0,part_2,stop,200.0,150.0,4.0,,,,,,,,,gray,I
0.0,8.0,4.0,1.0,5.0,0.0,0.0,5.0,0.0,part_2,stop,200.0,200.0,4.0,,,,,,,,,gray,I
0.0,4.0,4.0,0.0,5.0,5.0,647.3935089998122,5.0,0.0,part_2,go,250.0,200.0,1.0,,,,,,,,,yellow,hexagon
0.0,5.0,1.0,1.0,6.0,6.0,284.8780589993112,5.0,0.0,part_2,stop,250.0,200.0,3.0,,,,,,,,,green,square
0.0,5.0,1.0,1.0,5.0,0.0,0.0,5.0,0.0,part_2,stop,250.0,150.0,4.0,,,,,,,,,green,square
0.0,1.0,1.0,0.0,6.0,6.0,377.7986459999738,5.0,0.0,part_2,go,300.0,150.0,1.0,,,,,,,,,white,circle
0.0,5.0,1.0,1.0,5.0,0.0,0.0,5.0,0.0,part_2,stop,300.0,150.0,4.0,,,,,,,,,green,square
0.0,1.0,1.0,0.0,5.0,5.0,446.0718790005558,5.0,0.0,part_2,go,350.0,150.0,1.0,,,,,,,,,white,circle
0.0,1.0,1.0,0.0,5.0,5.0,441.2887010003032,5.0,0.0,part_2,go,350.0,150.0,1.0,,,,,,,,,white,circle
0.0,7.0,3.0,1.0,6.0,0.0,0.0,5.0,0.0,part_2,stop,350.0,150.0,4.0,,,,,,,,,blue,cross
0.0,8.0,4.0,1.0,5.0,5.0,471.364113999698,5.0,0.0,part_2,go,350.0,200.0,1.0,,,,,,,,,gray,I
0.0,3.0,3.0,0.0,5.0,5.0,395.0257570004396,5.0,0.0,part_2,go,350.0,200.0,1.0,,,,,,,,,magenta,diamond
0.0,7.0,3.0,1.0,6.0,6.0,360.295780999877,5.0,0.0,part_2,stop,350.0,200.0,3.0,,,,,,,,,blue,cross
0.0,8.0,4.0,1.0,6.0,0.0,0.0,5.0,0.0,part_2,stop,350.0,150.0,4.0,,,,,,,,,gray,I
0.0,8.0,4.0,1.0,6.0,0.0,0.0,5.0,0.0,part_2,stop,350.0,200.0,4.0,,,,,,,,,gray,I
0.0,6.0,2.0,1.0,5.0,5.0,561.4632280003207,5.0,0.0,part_2,go,350.0,250.0,1.0,,,,,,,,,cyan,triangle
0.0,4.0,4.0,0.0,6.0,6.0,494.18826300006907,5.0,0.0,part_2,go,350.0,250.0,1.0,,,,,,,,,yellow,hexagon
0.0,7.0,3.0,1.0,6.0,6.0,473.8836509995963,5.0,0.0,part_2,go,350.0,250.0,1.0,,,,,,,,,blue,cross
0.0,5.0,1.0,1.0,5.0,5.0,337.70387200002,5.0,0.0,part_2,stop,350.0,250.0,3.0,,,,,,,,,green,square
0.0,6.0,2.0,1.0,6.0,6.0,335.581307999746,5.0,0.0,part_2,go,300.0,250.0,1.0,,,,,,,,,cyan,triangle
0.0,3.0,3.0,0.0,6.0,6.0,344.4456189999982,5.0,0.0,part_2,go,300.0,250.0,1.0,,,,,,,,,magenta,diamond
0.0,7.0,3.0,1.0,5.0,5.0,455.7913399994504,5.0,0.0,part_2,go,300.0,250.0,1.0,,,,,,,,,blue,cross
0.0,8.0,4.0,1.0,5.0,5.0,405.8637930002078,5.0,0.0,part_2,stop,300.0,250.0,3.0,,,,,,,,,gray,I
0.0,2.0,2.0,0.0,6.0,6.0,455.8190799998556,5.0,0.0,part_2,go,250.0,250.0,1.0,,,,,,,,,orange,flipped triangle
0.0,7.0,3.0,1.0,5.0,0.0,0.0,5.0,0.0,part_2,stop,250.0,250.0,4.0,,,,,,,,,blue,cross
0.0,6.0,2.0,1.0,5.0,5.0,389.7031579999748,5.0,0.0,part_2,go,300.0,250.0,1.0,,,,,,,,,cyan,triangle
0.0,3.0,3.0,0.0,6.0,6.0,409.5712980006283,6.0,0.0,part_2,go,300.0,250.0,1.0,,,,,,,,,magenta,diamond
0.0,3.0,3.0,0.0,6.0,6.0,324.8317679999672,6.0,0.0,part_2,go,300.0,250.0,1.0,,,,,,,,,magenta,diamond
0.0,2.0,2.0,0.0,6.0,6.0,271.8819060000896,6.0,0.0,part_2,go,300.0,250.0,1.0,,,,,,,,,orange,flipped triangle
0.0,5.0,1.0,1.0,6.0,6.0,288.0711569996492,6.0,0.0,part_2,stop,300.0,250.0,3.0,,,,,,,,,green,square
0.0,2.0,2.0,0.0,5.0,5.0,376.6900849996091,6.0,0.0,part_2,go,300.0,200.0,1.0,,,,,,,,,orange,flipped triangle
0.0,8.0,4.0,1.0,6.0,6.0,321.722714000316,6.0,0.0,part_2,stop,300.0,200.0,3.0,,,,,,,,,gray,I
0.0,6.0,2.0,1.0,5.0,5.0,444.4161729998086,6.0,0.0,part_2,stop,300.0,150.0,3.0,,,,,,,,,cyan,triangle
0.0,4.0,4.0,0.0,5.0,5.0,582.2054049995131,6.0,0.0,part_2,go,250.0,150.0,1.0,,,,,,,,,yellow,hexagon
0.0,1.0,1.0,0.0,6.0,6.0,336.380201000793,6.0,0.0,part_2,go,250.0,150.0,1.0,,,,,,,,,white,circle
0.0,5.0,1.0,1.0,6.0,0.0,0.0,6.0,0.0,part_2,stop,250.0,150.0,4.0,,,,,,,,,green,square
0.0,5.0,1.0,1.0,5.0,5.0,490.148900999884,6.0,0.0,part_2,stop,250.0,200.0,3.0,,,,,,,,,green,square
0.0,7.0,3.0,1.0,5.0,5.0,522.1161219997157,6.0,0.0,part_2,go,200.0,200.0,1.0,,,,,,,,,blue,cross
0.0,4.0,4.0,0.0,6.0,6.0,519.3985599998996,6.0,0.0,part_2,go,200.0,200.0,1.0,,,,,,,,,yellow,hexagon
0.0,8.0,4.0,1.0,6.0,0.0,0.0,6.0,0.0,part_2,stop,200.0,200.0,4.0,,,,,,,,,gray,I
0.0,6.0,2.0,1.0,6.0,0.0,0.0,6.0,0.0,part_2,stop,200.0,250.0,4.0,,,,,,,,,cyan,triangle
0.0,1.0,1.0,0.0,6.0,6.0,525.2983339996717,6.0,0.0,part_2,go,200.0,300.0,1.0,,,,,,,,,white,circle
0.0,3.0,3.0,0.0,6.0,6.0,705.7040250001592,6.0,0.0,part_2,go,200.0,300.0,1.0,,,,,,,,,magenta,diamond
0.0,6.0,2.0,1.0,6.0,6.0,386.3965010004904,6.0,0.0,part_2,stop,200.0,300.0,3.0,,,,,,,,,cyan,triangle
0.0,5.0,1.0,1.0,6.0,6.0,537.8879140007484,6.0,0.0,part_2,go,200.0,250.0,1.0,,,,,,,,,green,square
0.0,8.0,4.0,1.0,5.0,0.0,0.0,6.0,0.0,part_2,stop,200.0,250.0,4.0,,,,,,,,,gray,I
0.0,1.0,1.0,0.0,6.0,6.0,321.4206250004281,6.0,0.0,part_2,go,250.0,250.0,1.0,,,,,,,,,white,circle
0.0,6.0,2.0,1.0,5.0,0.0,0.0,6.0,0.0,part_2,stop,250.0,250.0,4.0,,,,,,,,,cyan,triangle
0.0,7.0,3.0,1.0,5.0,0.0,0.0,6.0,0.0,part_2,stop,300.0,250.0,4.0,,,,,,,,,blue,cross
0.0,7.0,3.0,1.0,6.0,0.0,0.0,6.0,0.0,part_2,stop,350.0,250.0,4.0,,,,,,,,,blue,cross
0.0,1.0,1.0,0.0,6.0,6.0,523.6348970001927,6.0,0.0,part_2,go,350.0,300.0,1.0,,,,,,,,,white,circle
0.0,2.0,2.0,0.0,6.0,6.0,442.6625219994093,6.0,0.0,part_2,go,350.0,300.0,1.0,,,,,,,,,orange,flipped triangle
0.0,1.0,1.0,0.0,5.0,5.0,406.5742440006943,6.0,0.0,part_2,go,350.0,300.0,1.0,,,,,,,,,white,circle
0.0,5.0,1.0,1.0,6.0,6.0,313.8317499997356,6.0,0.0,part_2,go,350.0,300.0,1.0,,,,,,,,,green,square
0.0,2.0,2.0,0.0,5.0,5.0,356.3343420000819,6.0,0.0,part_2,go,350.0,300.0,1.0,,,,,,,,,orange,flipped triangle
0.0,6.0,2.0,1.0,6.0,6.0,351.1113690001366,6.0,0.0,part_2,stop,350.0,300.0,3.0,,,,,,,,,cyan,triangle
0.0,6.0,2.0,1.0,6.0,0.0,0.0,6.0,0.0,part_2,stop,350.0,250.0,4.0,,,,,,,,,cyan,triangle
0.0,2.0,2.0,0.0,6.0,6.0,418.5547199995199,6.0,0.0,part_2,go,350.0,300.0,1.0,,,,,,,,,orange,flipped triangle
0.0,1.0,1.0,0.0,6.0,6.0,510.6045439997615,6.0,0.0,part_2,go,350.0,300.0,1.0,,,,,,,,,white,circle
0.0,7.0,3.0,1.0,5.0,0.0,0.0,6.0,0.0,part_2,stop,350.0,300.0,4.0,,,,,,,,,blue,cross
0.0,4.0,4.0,0.0,6.0,6.0,435.1900109995767,6.0,0.0,part_2,go,400.0,300.0,1.0,,,,,,,,,yellow,hexagon
0.0,3.0,3.0,0.0,6.0,6.0,331.3661040001534,6.0,0.0,part_2,go,400.0,300.0,1.0,,,,,,,,,magenta,diamond
0.0,4.0,4.0,0.0,6.0,6.0,364.9209650002376,7.0,0.0,part_2,go,400.0,300.0,1.0,,,,,,,,,yellow,hexagon
0.0,5.0,1.0,1.0,5.0,5.0,325.0715060003131,7.0,0.0,part_2,stop,400.0,300.0,3.0,,,,,,,,,green,square
0.0,7.0,3.0,1.0,6.0,6.0,320.6742540005507,7.0,0.0,part_2,go,350.0,300.0,1.0,,,,,,,,,blue,cross
0.0,6.0,2.0,1.0,6.0,6.0,347.0239150001362,7.0,0.0,part_2,stop,350.0,300.0,3.0,,,,,,,,,cyan,triangle
0.0,7.0,3.0,1.0,6.0,0.0,0.0,7.0,0.0,part_2,stop,350.0,250.0,4.0,,,,,,,,,blue,cross
0.0,8.0,4.0,1.0,6.0,6.0,639.8506330006057,7.0,0.0,part_2,go,350.0,300.0,1.0,,,,,,,,,gray,I
0.0,6.0,2.0,1.0,6.0,6.0,340.0509370003419,7.0,0.0,part_2,stop,350.0,300.0,3.0,,,,,,,,,cyan,triangle
0.0,1.0,1.0,0.0,6.0,6.0,354.868403999717,7.0,0.0,part_2,go,350.0,250.0,1.0,,,,,,,,,white,circle
0.0,2.0,2.0,0.0,6.0,6.0,481.0764390003896,7.0,0.0,part_2,go,350.0,250.0,1.0,,,,,,,,,orange,flipped triangle
0.0,7.0,3.0,1.0,5.0,5.0,404.8184860002948,7.0,0.0,part_2,stop,350.0,250.0,3.0,,,,,,,,,blue,cross
0.0,1.0,1.0,0.0,6.0,6.0,327.2906449992661,7.0,0.0,part_2,go,300.0,250.0,1.0,,,,,,,,,white,circle
0.0,4.0,4.0,0.0,6.0,6.0,354.8348260001148,7.0,0.0,part_2,go,300.0,250.0,1.0,,,,,,,,,yellow,hexagon
0.0,6.0,2.0,1.0,6.0,6.0,365.0065530000574,7.0,0.0,part_2,stop,300.0,250.0,3.0,,,,,,,,,cyan,triangle
0.0,2.0,2.0,0.0,5.0,5.0,390.0993560000643,7.0,0.0,part_2,go,300.0,200.0,1.0,,,,,,,,,orange,flipped triangle
0.0,8.0,4.0,1.0,5.0,5.0,438.8251589998617,7.0,0.0,part_2,stop,300.0,200.0,3.0,,,,,,,,,gray,I
0.0,5.0,1.0,1.0,5.0,0.0,0.0,7.0,0.0,part_2,stop,250.0,200.0,4.0,,,,,,,,,green,square
0.0,3.0,3.0,0.0,5.0,5.0,638.6883369996212,7.0,0.0,part_2,go,300.0,200.0,1.0,,,,,,,,,magenta,diamond
0.0,8.0,4.0,1.0,5.0,0.0,0.0,7.0,0.0,part_2,stop,300.0,200.0,4.0,,,,,,,,,gray,I
0.0,3.0,3.0,0.0,5.0,5.0,801.4226839995899,7.0,0.0,part_2,go,350.0,200.0,1.0,,,,,,,,,magenta,diamond
0.0,2.0,2.0,0.0,5.0,5.0,587.4144050003451,7.0,0.0,part_2,go,350.0,200.0,1.0,,,,,,,,,orange,flipped triangle
0.0,1.0,1.0,0.0,5.0,5.0,433.8870339997811,7.0,0.0,part_2,go,350.0,200.0,1.0,,,,,,,,,white,circle
0.0,8.0,4.0,1.0,5.0,5.0,384.1094600002179,7.0,0.0,part_2,stop,350.0,200.0,3.0,,,,,,,,,gray,I
0.0,7.0,3.0,1.0,5.0,0.0,0.0,7.0,0.0,part_2,stop,300.0,200.0,4.0,,,,,,,,,blue,cross
0.0,1.0,1.0,0.0,6.0,6.0,475.3343880001921,7.0,0.0,part_2,go,350.0,200.0,1.0,,,,,,,,,white,circle
0.0,2.0,2.0,0.0,6.0,6.0,447.960114000125,7.0,0.0,part_2,go,350.0,200.0,1.0,,,,,,,,,orange,flipped triangle
0.0,8.0,4.0,1.0,5.0,5.0,402.823088000332,7.0,0.0,part_2,stop,350.0,200.0,3.0,,,,,,,,,gray,I
0.0,1.0,1.0,0.0,6.0,6.0,501.5408989993375,7.0,0.0,part_2,go,300.0,200.0,1.0,,,,,,,,,white,circle
0.0,4.0,4.0,0.0,5.0,5.0,348.0491279997295,7.0,0.0,part_2,go,300.0,200.0,1.0,,,,,,,,,yellow,hexagon
0.0,8.0,4.0,1.0,6.0,6.0,360.5421709999064,7.0,0.0,part_2,stop,300.0,200.0,3.0,,,,,,,,,gray,I
0.0,2.0,2.0,0.0,6.0,6.0,426.5972509992934,7.0,0.0,part_2,go,300.0,150.0,1.0,,,,,,,,,orange,flipped triangle
0.0,8.0,4.0,1.0,5.0,0.0,0.0,7.0,0.0,part_2,stop,300.0,150.0,4.0,,,,,,,,,gray,I
0.0,5.0,1.0,1.0,5.0,5.0,480.3273340003215,7.0,0.0,part_2,stop,350.0,150.0,3.0,,,,,,,,,green,square
0.0,5.0,1.0,1.0,6.0,0.0,0.0,7.0,0.0,part_2,stop,300.0,150.0,4.0,,,,,,,,,green,square
0.0,1.0,1.0,0.0,6.0,6.0,513.6721200005923,7.0,0.0,part_2,go,300.0,200.0,1.0,,,,,,,,,white,circle
0.0,7.0,3.0,1.0,5.0,5.0,509.58533599987277,7.0,0.0,part_2,go,300.0,200.0,1.0,,,,,,,,,blue,cross
0.0,1.0,1.0,0.0,6.0,6.0,326.5623549996235,7.0,0.0,part_2,go,300.0,200.0,1.0,,,,,,,,,white,circle
0.0,7.0,3.0,1.0,5.0,5.0,508.55425099962304,8.0,0.0,part_2,stop,300.0,200.0,3.0,,,,,,,,,blue,cross
0.0,6.0,2.0,1.0,5.0,0.0,0.0,8.0,0.0,part_2,stop,250.0,200.0,4.0,,,,,,,,,cyan,triangle
0.0,2.0,2.0,0.0,6.0,6.0,523.9553930005059,8.0,0.0,part_2,go,300.0,200.0,1.0,,,,,,,,,orange,flipped triangle
0.0,5.0,1.0,1.0,6.0,6.0,303.6993110008552,8.0,0.0,part_2,stop,300.0,200.0,3.0,,,,,,,,,green,square
0.0,2.0,2.0,0.0,5.0,5.0,627.3184020001281,8.0,0.0,part_2,go,300.0,150.0,1.0,,,,,,,,,orange,flipped triangle
0.0,3.0,3.0,0.0,5.0,5.0,436.3544989992078,8.0,0.0,part_2,go,300.0,150.0,1.0,,,,,,,,,magenta,diamond
0.0,7.0,3.0,1.0,6.0,0.0,0.0,8.0,0.0,part_2,stop,300.0,150.0,4.0,,,,,,,,,blue,cross
0.0,8.0,4.0,1.0,5.0,5.0,391.4167900002212,8.0,0.0,part_2,stop,300.0,200.0,3.0,,,,,,,,,gray,I
0.0,1.0,1.0,0.0,5.0,5.0,543.6090459998013,8.0,0.0,part_2,go,250.0,200.0,1.0,,,,,,,,,white,circle
0.0,6.0,2.0,1.0,5.0,0.0,0.0,8.0,0.0,part_2,stop,250.0,200.0,4.0,,,,,,,,,cyan,triangle
0.0,6.0,2.0,1.0,5.0,5.0,422.7870909999183,8.0,0.0,part_2,stop,300.0,200.0,3.0,,,,,,,,,cyan,triangle
0.0,4.0,4.0,0.0,5.0,5.0,560.6003270004294,8.0,0.0,part_2,go,250.0,200.0,1.0,,,,,,,,,yellow,hexagon
0.0,7.0,3.0,1.0,5.0,0.0,0.0,8.0,0.0,part_2,stop,250.0,200.0,4.0,,,,,,,,,blue,cross
0.0,4.0,4.0,0.0,5.0,5.0,548.3294160003425,8.0,0.0,part_2,go,300.0,200.0,1.0,,,,,,,,,yellow,hexagon
0.0,4.0,4.0,0.0,6.0,6.0,370.7189120004841,8.0,0.0,part_2,go,300.0,200.0,1.0,,,,,,,,,yellow,hexagon
0.0,6.0,2.0,1.0,5.0,0.0,0.0,8.0,0.0,part_2,stop,300.0,200.0,4.0,,,,,,,,,cyan,triangle
0.0,5.0,1.0,1.0,5.0,0.0,0.0,8.0,0.0,part_2,stop,350.0,200.0,4.0,,,,,,,,,green,square
0.0,1.0,1.0,0.0,5.0,5.0,666.5182890001233,8.0,0.0,part_2,go,400.0,200.0,1.0,,,,,,,,,white,circle
0.0,6.0,2.0,1.0,6.0,6.0,362.4394039998151,8.0,0.0,part_2,go,400.0,200.0,1.0,,,,,,,,,cyan,triangle
0.0,4.0,4.0,0.0,5.0,5.0,371.4498840008673,8.0,0.0,part_2,go,400.0,200.0,1.0,,,,,,,,,yellow,hexagon
0.0,4.0,4.0,0.0,5.0,5.0,404.545173999395,8.0,0.0,part_2,go,400.0,200.0,1.0,,,,,,,,,yellow,hexagon
0.0,4.0,4.0,0.0,6.0,6.0,291.5624159995786,8.0,0.0,part_2,go,400.0,200.0,1.0,,,,,,,,,yellow,hexagon
0.0,5.0,1.0,1.0,6.0,6.0,363.9582340001652,8.0,0.0,part_2,stop,400.0,200.0,3.0,,,,,,,,,green,square
0.0,1.0,1.0,0.0,5.0,5.0,369.1505560000223,8.0,0.0,part_2,go,400.0,150.0,1.0,,,,,,,,,white,circle
0.0,8.0,4.0,1.0,5.0,5.0,432.2813850003513,8.0,0.0,part_2,stop,400.0,150.0,3.0,,,,,,,,,gray,I
0.0,4.0,4.0,0.0,6.0,6.0,334.0833029997156,8.0,0.0,part_2,go,350.0,150.0,1.0,,,,,,,,,yellow,hexagon
0.0,8.0,4.0,1.0,6.0,0.0,0.0,8.0,0.0,part_2,stop,350.0,150.0,4.0,,,,,,,,,gray,I
0.0,3.0,3.0,0.0,6.0,6.0,583.1441420004921,8.0,0.0,part_2,go,350.0,200.0,1.0,,,,,,,,,magenta,diamond
0.0,6.0,2.0,1.0,5.0,0.0,0.0,8.0,0.0,part_2,stop,350.0,200.0,4.0,,,,,,,,,cyan,triangle
0.0,4.0,4.0,0.0,6.0,6.0,417.7305260000139,8.0,0.0,part_2,go,400.0,200.0,1.0,,,,,,,,,yellow,hexagon
0.0,3.0,3.0,0.0,6.0,6.0,398.1663730000946,8.0,0.0,part_2,go,400.0,200.0,1.0,,,,,,,,,magenta,diamond
0.0,4.0,4.0,0.0,5.0,5.0,357.646133000344,8.0,0.0,part_2,go,400.0,200.0,1.0,,,,,,,,,yellow,hexagon
0.0,8.0,4.0,1.0,6.0,6.0,303.4897609995823,8.0,0.0,part_2,stop,400.0,200.0,3.0,,,,,,,,,gray,I
0.0,4.0,4.0,0.0,5.0,5.0,440.7078209997053,8.0,0.0,part_2,go,400.0,150.0,1.0,,,,,,,,,yellow,hexagon
0.0,8.0,4.0,1.0,6.0,0.0,0.0,8.0,0.0,part_2,stop,400.0,150.0,4.0,,,,,,,,,gray,I
0.0,1.0,1.0,0.0,6.0,6.0,354.9716120005541,8.0,0.0,part_2,go,400.0,200.0,1.0,,,,,,,,,white,circle
0.0,1.0,1.0,0.0,7.0,4.0,4624.8048260004,1.0,1.0,part_3,go,0.0,0.0,0.0,170.0,5.0,102.0,136.0,68.0,170.0,34.0,204.0,white,circle
0.0,6.0,2.0,1.0,7.0,1.0,4771.119005000401,1.0,1.0,part_3,go,0.0,0.0,0.0,136.0,4.0,136.0,170.0,34.0,204.0,68.0,102.0,cyan,triangle
0.0,2.0,2.0,0.0,7.0,5.0,3588.1076489995394,1.0,1.0,part_3,go,0.0,0.0,0.0,176.0,4.0,220.0,88.0,264.0,132.0,176.0,44.0,orange,flipped triangle
0.0,2.0,2.0,0.0,7.0,2.0,3777.9666160004126,1.0,1.0,part_3,go,0.0,0.0,0.0,170.0,5.0,136.0,170.0,204.0,68.0,102.0,34.0,orange,flipped triangle
0.0,1.0,1.0,0.0,7.0,4.0,4466.729787999611,1.0,1.0,part_3,go,0.0,0.0,0.0,68.0,2.0,204.0,102.0,170.0,68.0,34.0,136.0,white,circle
0.0,2.0,2.0,0.0,7.0,2.0,3510.64504399983,1.0,1.0,part_3,go,0.0,0.0,0.0,195.0,5.0,78.0,195.0,234.0,156.0,39.0,117.0,orange,flipped triangle
0.0,6.0,2.0,1.0,7.0,1.0,2054.9939299999096,1.0,1.0,part_3,go,0.0,0.0,0.0,264.0,6.0,264.0,132.0,176.0,44.0,220.0,88.0,cyan,triangle
0.0,4.0,4.0,0.0,7.0,2.0,2783.688344999973,1.0,1.0,part_3,go,0.0,0.0,0.0,108.0,2.0,324.0,108.0,216.0,54.0,162.0,270.0,yellow,hexagon
0.0,4.0,4.0,0.0,7.0,1.0,4880.94240800001,1.0,1.0,part_3,go,0.0,0.0,0.0,132.0,3.0,132.0,44.0,264.0,88.0,176.0,220.0,yellow,hexagon
0.0,4.0,4.0,0.0,7.0,2.0,3823.7122910004473,1.0,1.0,part_3,go,0.0,0.0,0.0,147.0,3.0,245.0,147.0,196.0,294.0,49.0,98.0,yellow,hexagon
0.0,3.0,3.0,0.0,7.0,4.0,2741.256464999424,1.0,1.0,part_3,go,0.0,0.0,0.0,136.0,4.0,170.0,34.0,68.0,136.0,204.0,102.0,magenta,diamond
0.0,5.0,1.0,1.0,7.0,4.0,3098.0804000000717,1.0,1.0,part_3,go,0.0,0.0,0.0,204.0,6.0,68.0,34.0,170.0,204.0,102.0,136.0,green,square
0.0,8.0,4.0,1.0,7.0,3.0,2398.0513229998905,1.0,1.0,part_3,go,0.0,0.0,0.0,264.0,6.0,220.0,176.0,264.0,88.0,44.0,132.0,gray,I
0.0,3.0,3.0,0.0,7.0,1.0,2909.787212000083,1.0,1.0,part_3,go,0.0,0.0,0.0,136.0,4.0,136.0,170.0,204.0,102.0,68.0,34.0,magenta,diamond
0.0,1.0,1.0,0.0,7.0,6.0,1989.7399379997296,1.0,1.0,part_3,go,0.0,0.0,0.0,78.0,2.0,195.0,234.0,117.0,156.0,39.0,78.0,white,circle
0.0,4.0,4.0,0.0,7.0,2.0,4569.273406999855,1.0,1.0,part_3,go,0.0,0.0,0.0,108.0,2.0,270.0,108.0,216.0,324.0,162.0,54.0,yellow,hexagon
0.0,1.0,1.0,0.0,7.0,5.0,2189.4665420004458,1.0,1.0,part_3,go,0.0,0.0,0.0,98.0,2.0,49.0,245.0,147.0,294.0,98.0,196.0,white,circle
0.0,5.0,1.0,1.0,7.0,1.0,4261.747915000342,1.0,1.0,part_3,go,0.0,0.0,0.0,216.0,4.0,216.0,324.0,270.0,108.0,54.0,162.0,green,square
0.0,8.0,4.0,1.0,7.0,5.0,3249.1939310002635,1.0,1.0,part_3,go,0.0,0.0,0.0,170.0,5.0,68.0,34.0,102.0,136.0,170.0,204.0,gray,I
0.0,1.0,1.0,0.0,7.0,1.0,2000.8696889999555,1.0,1.0,part_3,go,0.0,0.0,0.0,54.0,1.0,54.0,162.0,324.0,216.0,270.0,108.0,white,circle
0.0,8.0,4.0,1.0,7.0,2.0,1534.7029629992903,2.0,1.0,part_3,go,0.0,0.0,0.0,204.0,6.0,68.0,204.0,136.0,170.0,34.0,102.0,gray,I
0.0,6.0,2.0,1.0,7.0,4.0,2817.0672159994865,2.0,1.0,part_3,go,0.0,0.0,0.0,147.0,3.0,196.0,98.0,245.0,147.0,294.0,49.0,cyan,triangle
0.0,1.0,1.0,0.0,7.0,5.0,2344.7688090000156,2.0,1.0,part_3,go,0.0,0.0,0.0,98.0,2.0,245.0,49.0,294.0,196.0,98.0,147.0,white,circle
0.0,6.0,2.0,1.0,7.0,1.0,4954.633481000201,2.0,1.0,part_3,go,0.0,0.0,0.0,176.0,4.0,176.0,88.0,220.0,132.0,264.0,44.0,cyan,triangle
0.0,2.0,2.0,0.0,7.0,6.0,3274.597991999144,2.0,1.0,part_3,go,0.0,0.0,0.0,162.0,3.0,54.0,108.0,324.0,270.0,216.0,162.0,orange,flipped triangle
0.0,2.0,2.0,0.0,7.0,5.0,2313.77036899994,2.0,1.0,part_3,go,0.0,0.0,0.0,170.0,5.0,68.0,102.0,136.0,34.0,170.0,204.0,orange,flipped triangle
0.0,8.0,4.0,1.0,7.0,3.0,3257.2772479998093,2.0,1.0,part_3,go,0.0,0.0,0.0,294.0,6.0,147.0,49.0,294.0,98.0,196.0,245.0,gray,I
0.0,6.0,2.0,1.0,7.0,1.0,2342.9304210003465,2.0,1.0,part_3,go,0.0,0.0,0.0,156.0,4.0,156.0,39.0,234.0,78.0,195.0,117.0,cyan,triangle
0.0,7.0,3.0,1.0,7.0,2.0,3450.4763350005305,2.0,1.0,part_3,go,0.0,0.0,0.0,34.0,1.0,170.0,34.0,68.0,204.0,136.0,102.0,blue,cross
0.0,5.0,1.0,1.0,7.0,1.0,1570.4449949998889,2.0,1.0,part_3,go,0.0,0.0,0.0,102.0,3.0,102.0,68.0,204.0,170.0,136.0,34.0,green,square
0.0,8.0,4.0,1.0,7.0,4.0,1689.8489609993703,2.0,1.0,part_3,go,0.0,0.0,0.0,270.0,5.0,162.0,108.0,54.0,270.0,324.0,216.0,gray,I
0.0,6.0,2.0,1.0,7.0,3.0,2216.6568669999833,2.0,1.0,part_3,go,0.0,0.0,0.0,204.0,6.0,34.0,136.0,204.0,68.0,102.0,170.0,cyan,triangle
0.0,4.0,4.0,0.0,7.0,2.0,2825.6923139997525,2.0,1.0,part_3,go,0.0,0.0,0.0,117.0,3.0,195.0,117.0,78.0,39.0,156.0,234.0,yellow,hexagon
0.0,5.0,1.0,1.0,7.0,5.0,1743.7617340001452,2.0,1.0,part_3,go,0.0,0.0,0.0,176.0,4.0,220.0,88.0,264.0,44.0,176.0,132.0,green,square
0.0,8.0,4.0,1.0,7.0,5.0,2449.669559999166,2.0,1.0,part_3,go,0.0,0.0,0.0,270.0,5.0,108.0,324.0,54.0,162.0,270.0,216.0,gray,I
0.0,5.0,1.0,1.0,7.0,4.0,3752.505249000023,2.0,1.0,part_3,go,0.0,0.0,0.0,147.0,3.0,294.0,245.0,49.0,147.0,98.0,196.0,green,square
0.0,3.0,3.0,0.0,7.0,3.0,3453.049697000097,2.0,1.0,part_3,go,0.0,0.0,0.0,108.0,2.0,54.0,324.0,108.0,162.0,270.0,216.0,magenta,diamond
0.0,7.0,3.0,1.0,7.0,3.0,2440.052174999437,2.0,1.0,part_3,go,0.0,0.0,0.0,39.0,1.0,234.0,195.0,39.0,117.0,78.0,156.0,blue,cross
0.0,7.0,3.0,1.0,7.0,2.0,1350.7545020002,2.0,1.0,part_3,go,0.0,0.0,0.0,54.0,1.0,324.0,54.0,108.0,270.0,162.0,216.0,blue,cross
0.0,1.0,1.0,0.0,7.0,2.0,1273.089109000466,2.0,1.0,part_3,go,0.0,0.0,0.0,54.0,1.0,216.0,54.0,162.0,270.0,108.0,324.0,white,circle
0.0,3.0,3.0,0.0,7.0,6.0,2333.9461010000377,3.0,1.0,part_3,go,0.0,0.0,0.0,108.0,2.0,162.0,54.0,216.0,270.0,324.0,108.0,magenta,diamond
0.0,5.0,1.0,1.0,7.0,5.0,1872.0238099995183,3.0,1.0,part_3,go,0.0,0.0,0.0,117.0,3.0,78.0,195.0,39.0,234.0,117.0,156.0,green,square
0.0,8.0,4.0,1.0,7.0,3.0,2325.0028120000934,3.0,1.0,part_3,go,0.0,0.0,0.0,264.0,6.0,88.0,220.0,264.0,176.0,44.0,132.0,gray,I
0.0,7.0,3.0,1.0,7.0,6.0,1915.908121999564,3.0,1.0,part_3,go,0.0,0.0,0.0,44.0,1.0,132.0,264.0,176.0,88.0,220.0,44.0,blue,cross
0.0,5.0,1.0,1.0,7.0,2.0,2345.4951740004617,3.0,1.0,part_3,go,0.0,0.0,0.0,176.0,4.0,88.0,176.0,132.0,264.0,44.0,220.0,green,square
0.0,3.0,3.0,0.0,7.0,5.0,2089.9866689997,3.0,1.0,part_3,go,0.0,0.0,0.0,156.0,4.0,78.0,39.0,117.0,234.0,156.0,195.0,magenta,diamond
0.0,5.0,1.0,1.0,7.0,6.0,3145.8980090001205,3.0,1.0,part_3,go,0.0,0.0,0.0,147.0,3.0,294.0,245.0,98.0,49.0,196.0,147.0,green,square
0.0,8.0,4.0,1.0,7.0,4.0,3728.256717000477,3.0,1.0,part_3,go,0.0,0.0,0.0,234.0,6.0,117.0,156.0,195.0,234.0,78.0,39.0,gray,I
0.0,2.0,2.0,0.0,7.0,2.0,2556.8488830003844,3.0,1.0,part_3,go,0.0,0.0,0.0,132.0,3.0,44.0,132.0,220.0,176.0,88.0,264.0,orange,flipped triangle
0.0,4.0,4.0,0.0,7.0,5.0,1069.752440999764,3.0,1.0,part_3,go,0.0,0.0,0.0,78.0,2.0,234.0,156.0,195.0,39.0,78.0,117.0,yellow,hexagon
0.0,3.0,3.0,0.0,7.0,3.0,1069.7015699997792,3.0,2.0,part_3,go,0.0,0.0,0.0,117.0,3.0,234.0,156.0,117.0,39.0,195.0,78.0,magenta,diamond
0.0,8.0,4.0,1.0,7.0,2.0,1538.279514000351,3.0,1.0,part_3,go,0.0,0.0,0.0,294.0,6.0,245.0,294.0,98.0,196.0,49.0,147.0,gray,I
0.0,7.0,3.0,1.0,7.0,2.0,2282.7889489999507,3.0,1.0,part_3,go,0.0,0.0,0.0,54.0,1.0,162.0,54.0,324.0,270.0,216.0,108.0,blue,cross
0.0,7.0,3.0,1.0,7.0,1.0,1711.5104710001106,3.0,1.0,part_3,go,0.0,0.0,0.0,49.0,1.0,49.0,294.0,196.0,98.0,147.0,245.0,blue,cross
0.0,5.0,1.0,1.0,7.0,3.0,2022.9201210004248,3.0,1.0,part_3,go,0.0,0.0,0.0,78.0,2.0,39.0,156.0,78.0,195.0,234.0,117.0,green,square
0.0,3.0,3.0,0.0,7.0,1.0,1933.8484439995227,3.0,1.0,part_3,go,0.0,0.0,0.0,49.0,1.0,49.0,147.0,294.0,196.0,98.0,245.0,magenta,diamond
0.0,4.0,4.0,0.0,7.0,3.0,1711.2675050002508,3.0,1.0,part_3,go,0.0,0.0,0.0,49.0,1.0,245.0,196.0,49.0,98.0,147.0,294.0,yellow,hexagon
0.0,1.0,1.0,0.0,7.0,1.0,1225.1026079993608,3.0,1.0,part_3,go,0.0,0.0,0.0,39.0,1.0,39.0,234.0,156.0,78.0,117.0,195.0,white,circle
0.0,2.0,2.0,0.0,7.0,1.0,2237.5719339997886,3.0,1.0,part_3,go,0.0,0.0,0.0,108.0,2.0,108.0,324.0,216.0,270.0,162.0,54.0,orange,flipped triangle
0.0,2.0,2.0,0.0,7.0,1.0,3086.2872110001263,3.0,1.0,part_3,go,0.0,0.0,0.0,98.0,2.0,98.0,294.0,245.0,49.0,147.0,196.0,orange,flipped triangle
0.0,2.0,2.0,0.0,7.0,1.0,1795.9763449998718,4.0,1.0,part_3,go,0.0,0.0,0.0,98.0,2.0,98.0,196.0,294.0,245.0,147.0,49.0,orange,flipped triangle
0.0,1.0,1.0,0.0,7.0,6.0,1999.8416309999811,4.0,1.0,part_3,go,0.0,0.0,0.0,44.0,1.0,220.0,176.0,264.0,132.0,88.0,44.0,white,circle
0.0,2.0,2.0,0.0,7.0,2.0,1730.4025109997383,4.0,1.0,part_3,go,0.0,0.0,0.0,117.0,3.0,156.0,117.0,195.0,78.0,234.0,39.0,orange,flipped triangle
0.0,3.0,3.0,0.0,7.0,4.0,2206.63918199989,4.0,1.0,part_3,go,0.0,0.0,0.0,132.0,3.0,88.0,264.0,220.0,132.0,176.0,44.0,magenta,diamond
0.0,6.0,2.0,1.0,7.0,6.0,2453.7808610002685,4.0,1.0,part_3,go,0.0,0.0,0.0,162.0,3.0,54.0,270.0,108.0,324.0,216.0,162.0,cyan,triangle
0.0,4.0,4.0,0.0,7.0,4.0,1987.7272099993208,4.0,1.0,part_3,go,0.0,0.0,0.0,34.0,1.0,170.0,68.0,102.0,34.0,204.0,136.0,yellow,hexagon
0.0,7.0,3.0,1.0,7.0,4.0,2258.9154480001525,4.0,1.0,part_3,go,0.0,0.0,0.0,34.0,1.0,102.0,136.0,204.0,34.0,68.0,170.0,blue,cross
0.0,6.0,2.0,1.0,7.0,3.0,2544.0897119997317,4.0,1.0,part_3,go,0.0,0.0,0.0,196.0,4.0,245.0,49.0,196.0,294.0,147.0,98.0,cyan,triangle
0.0,3.0,3.0,0.0,7.0,3.0,2446.282120999967,4.0,1.0,part_3,go,0.0,0.0,0.0,220.0,5.0,264.0,44.0,220.0,88.0,176.0,132.0,magenta,diamond
0.0,8.0,4.0,1.0,7.0,5.0,2772.2976369996104,4.0,1.0,part_3,go,0.0,0.0,0.0,234.0,6.0,156.0,195.0,78.0,117.0,234.0,39.0,gray,I
0.0,7.0,3.0,1.0,7.0,2.0,2005.6439840000166,4.0,1.0,part_3,go,0.0,0.0,0.0,49.0,1.0,294.0,49.0,245.0,98.0,196.0,147.0,blue,cross
0.0,4.0,4.0,0.0,7.0,2.0,1951.492450999467,4.0,1.0,part_3,go,0.0,0.0,0.0,88.0,2.0,220.0,88.0,176.0,264.0,132.0,44.0,yellow,hexagon
0.0,6.0,2.0,1.0,7.0,2.0,1919.4852880000328,4.0,1.0,part_3,go,0.0,0.0,0.0,162.0,3.0,216.0,162.0,54.0,108.0,324.0,270.0,cyan,triangle
0.0,5.0,1.0,1.0,7.0,5.0,2315.6956040002115,4.0,1.0,part_3,go,0.0,0.0,0.0,108.0,2.0,162.0,216.0,54.0,324.0,108.0,270.0,green,square
0.0,3.0,3.0,0.0,7.0,3.0,2757.64147999962,4.0,1.0,part_3,go,0.0,0.0,0.0,98.0,2.0,196.0,147.0,98.0,245.0,294.0,49.0,magenta,diamond
0.0,6.0,2.0,1.0,7.0,2.0,1536.8945869995514,4.0,1.0,part_3,go,0.0,0.0,0.0,195.0,5.0,78.0,195.0,39.0,156.0,234.0,117.0,cyan,triangle
0.0,1.0,1.0,0.0,7.0,6.0,2095.5685020007877,4.0,1.0,part_3,go,0.0,0.0,0.0,44.0,1.0,220.0,176.0,88.0,132.0,264.0,44.0,white,circle
0.0,7.0,3.0,1.0,7.0,3.0,1819.838446000176,4.0,1.0,part_3,go,0.0,0.0,0.0,88.0,2.0,132.0,220.0,88.0,44.0,176.0,264.0,blue,cross
0.0,7.0,3.0,1.0,7.0,6.0,2670.5489429996305,4.0,1.0,part_3,go,0.0,0.0,0.0,78.0,2.0,117.0,234.0,156.0,195.0,39.0,78.0,blue,cross
0.0,4.0,4.0,0.0,7.0,1.0,2133.7642340004095,4.0,1.0,part_3,go,0.0,0.0,0.0,68.0,2.0,68.0,170.0,34.0,136.0,204.0,102.0,yellow,hexagon
