raw_reward_magnitude,stim_reward,stepwise_reward_magnitude,paired_with_stopping,quadrant,response,reaction_time,block,num_trial_presentations,which_part,stop_signal_trial_type,left_SSD,right_SSD,accuracy,chosen_bidding_amount,chosen_bidding_level,possible_bid_1,possible_bid_2,possible_bid_3,possible_bid_4,possible_bid_5,possible_bid_6,color_text,shape_text
99.0,6.0,2.0,1.0,4.0,4.0,389.8930200002724,1.0,1.0,part_1,,,,,,,,,,,,,gray,square
0.0,8.0,0.0,1.0,4.0,4.0,405.8150460000433,1.0,1.0,part_1,,,,,,,,,,,,,green,flipped triangle
88.0,6.0,2.0,1.0,4.0,4.0,362.4992019999808,1.0,1.0,part_1,,,,,,,,,,,,,gray,square
407.0,8.0,4.0,1.0,4.0,4.0,354.0112030000273,1.0,1.0,part_1,,,,,,,,,,,,,green,flipped triangle
60.0,1.0,1.0,0.0,1.0,1.0,328.1036129997119,1.0,1.0,part_1,,,,,,,,,,,,,white,triangle
83.0,6.0,2.0,1.0,3.0,3.0,307.8583269998489,1.0,1.0,part_1,,,,,,,,,,,,,gray,square
217.0,3.0,3.0,0.0,4.0,4.0,310.8297369999491,1.0,1.0,part_1,,,,,,,,,,,,,magenta,diamond
0.0,7.0,0.0,1.0,4.0,4.0,302.3876909996943,1.0,1.0,part_1,,,,,,,,,,,,,orange,cross
0.0,7.0,0.0,1.0,4.0,4.0,353.4461839999494,1.0,1.0,part_1,,,,,,,,,,,,,orange,cross
180.0,7.0,3.0,1.0,2.0,2.0,313.7695450000137,1.0,1.0,part_1,,,,,,,,,,,,,orange,cross
220.0,3.0,3.0,0.0,4.0,4.0,297.7590509999572,1.0,1.0,part_1,,,,,,,,,,,,,magenta,diamond
394.0,8.0,4.0,1.0,4.0,4.0,345.7544100001541,1.0,1.0,part_1,,,,,,,,,,,,,green,flipped triangle
0.0,4.0,0.0,0.0,4.0,4.0,321.7731659997298,1.0,1.0,part_1,,,,,,,,,,,,,cyan,hexagon
211.0,3.0,3.0,0.0,4.0,4.0,307.0486540000274,1.0,1.0,part_1,,,,,,,,,,,,,magenta,diamond
77.0,2.0,2.0,0.0,3.0,3.0,341.1517260001346,1.0,1.0,part_1,,,,,,,,,,,,,blue,circle
386.0,4.0,4.0,0.0,3.0,3.0,346.693129000414,1.0,1.0,part_1,,,,,,,,,,,,,cyan,hexagon
208.0,3.0,3.0,0.0,3.0,3.0,297.1220829999765,1.0,1.0,part_1,,,,,,,,,,,,,magenta,diamond
124.0,2.0,2.0,0.0,3.0,3.0,305.4104609996102,1.0,1.0,part_1,,,,,,,,,,,,,blue,circle
400.0,8.0,4.0,1.0,4.0,4.0,302.4388399999225,1.0,1.0,part_1,,,,,,,,,,,,,green,flipped triangle
55.0,5.0,1.0,1.0,4.0,4.0,320.1448770000752,1.0,1.0,part_1,,,,,,,,,,,,,yellow,I
377.0,8.0,4.0,1.0,1.0,1.0,342.8982230002475,1.0,1.0,part_1,,,,,,,,,,,,,green,flipped triangle
0.0,6.0,0.0,1.0,3.0,3.0,436.8785699998625,1.0,1.0,part_1,,,,,,,,,,,,,gray,square
76.0,6.0,2.0,1.0,1.0,1.0,484.8563010000362,1.0,1.0,part_1,,,,,,,,,,,,,gray,square
75.0,2.0,2.0,0.0,4.0,4.0,307.4869709998893,1.0,1.0,part_1,,,,,,,,,,,,,blue,circle
386.0,8.0,4.0,1.0,3.0,3.0,351.6574259997469,1.0,1.0,part_1,,,,,,,,,,,,,green,flipped triangle
400.0,8.0,4.0,1.0,3.0,3.0,299.1864489999898,1.0,1.0,part_1,,,,,,,,,,,,,green,flipped triangle
0.0,5.0,0.0,1.0,4.0,4.0,339.5201500002258,1.0,1.0,part_1,,,,,,,,,,,,,yellow,I
387.0,8.0,4.0,1.0,3.0,3.0,280.1006539998525,1.0,1.0,part_1,,,,,,,,,,,,,green,flipped triangle
0.0,2.0,0.0,0.0,1.0,1.0,373.5249219998877,1.0,2.0,part_1,,,,,,,,,,,,,blue,circle
0.0,3.0,0.0,0.0,3.0,3.0,342.4391369999284,1.0,1.0,part_1,,,,,,,,,,,,,magenta,diamond
195.0,7.0,3.0,1.0,1.0,1.0,327.2703689999616,1.0,1.0,part_1,,,,,,,,,,,,,orange,cross
0.0,6.0,0.0,1.0,1.0,1.0,515.0518370001009,1.0,1.0,part_1,,,,,,,,,,,,,gray,square
86.0,6.0,2.0,1.0,3.0,3.0,643.521015999795,1.0,1.0,part_1,,,,,,,,,,,,,gray,square
182.0,7.0,3.0,1.0,1.0,1.0,315.4425210000227,1.0,1.0,part_1,,,,,,,,,,,,,orange,cross
42.0,1.0,1.0,0.0,4.0,4.0,319.3287330000203,1.0,1.0,part_1,,,,,,,,,,,,,white,triangle
0.0,2.0,0.0,0.0,2.0,2.0,320.5564549998598,1.0,1.0,part_1,,,,,,,,,,,,,blue,circle
0.0,1.0,0.0,0.0,2.0,2.0,376.5438959999301,1.0,1.0,part_1,,,,,,,,,,,,,white,triangle
177.0,7.0,3.0,1.0,4.0,4.0,317.8919580000183,1.0,1.0,part_1,,,,,,,,,,,,,orange,cross
42.0,5.0,1.0,1.0,1.0,1.0,340.3713779998725,1.0,1.0,part_1,,,,,,,,,,,,,yellow,I
211.0,7.0,3.0,1.0,4.0,4.0,368.1257459998051,1.0,1.0,part_1,,,,,,,,,,,,,orange,cross
124.0,2.0,2.0,0.0,4.0,4.0,354.3389980000029,1.0,1.0,part_1,,,,,,,,,,,,,blue,circle
0.0,8.0,0.0,1.0,2.0,2.0,349.5810780000283,1.0,1.0,part_1,,,,,,,,,,,,,green,flipped triangle
381.0,4.0,4.0,0.0,1.0,1.0,426.09805099982617,1.0,1.0,part_1,,,,,,,,,,,,,cyan,hexagon
0.0,1.0,0.0,0.0,2.0,2.0,419.5244739998998,1.0,1.0,part_1,,,,,,,,,,,,,white,triangle
0.0,6.0,0.0,1.0,2.0,2.0,316.5781770003377,1.0,1.0,part_1,,,,,,,,,,,,,gray,square
386.0,8.0,4.0,1.0,1.0,1.0,330.8769599998413,1.0,1.0,part_1,,,,,,,,,,,,,green,flipped triangle
177.0,7.0,3.0,1.0,1.0,1.0,308.9755589999186,1.0,1.0,part_1,,,,,,,,,,,,,orange,cross
34.0,1.0,1.0,0.0,2.0,2.0,323.8699120001911,1.0,1.0,part_1,,,,,,,,,,,,,white,triangle
210.0,7.0,3.0,1.0,1.0,1.0,308.5011699999995,1.0,1.0,part_1,,,,,,,,,,,,,orange,cross
31.0,1.0,1.0,0.0,3.0,3.0,341.1577910001142,1.0,1.0,part_1,,,,,,,,,,,,,white,triangle
401.0,8.0,4.0,1.0,3.0,3.0,334.6901680001792,1.0,1.0,part_1,,,,,,,,,,,,,green,flipped triangle
396.0,8.0,4.0,1.0,3.0,3.0,349.6524679999311,1.0,1.0,part_1,,,,,,,,,,,,,green,flipped triangle
401.0,4.0,4.0,0.0,3.0,3.0,337.986045999969,1.0,1.0,part_1,,,,,,,,,,,,,cyan,hexagon
79.0,2.0,2.0,0.0,1.0,1.0,320.8422220000102,1.0,1.0,part_1,,,,,,,,,,,,,blue,circle
394.0,4.0,4.0,0.0,2.0,2.0,307.8579220000392,1.0,1.0,part_1,,,,,,,,,,,,,cyan,hexagon
201.0,3.0,3.0,0.0,2.0,2.0,328.2411820000561,1.0,1.0,part_1,,,,,,,,,,,,,magenta,diamond
198.0,3.0,3.0,0.0,2.0,2.0,367.4807140000666,1.0,1.0,part_1,,,,,,,,,,,,,magenta,diamond
59.0,1.0,1.0,0.0,1.0,1.0,355.0641339998037,1.0,1.0,part_1,,,,,,,,,,,,,white,triangle
0.0,4.0,0.0,0.0,4.0,4.0,361.3943289997223,1.0,1.0,part_1,,,,,,,,,,,,,cyan,hexagon
0.0,2.0,0.0,0.0,4.0,4.0,374.2242210000768,1.0,1.0,part_1,,,,,,,,,,,,,blue,circle
0.0,2.0,0.0,0.0,1.0,1.0,336.3283990001946,1.0,1.0,part_1,,,,,,,,,,,,,blue,circle
0.0,5.0,0.0,1.0,3.0,3.0,346.5306209996015,1.0,1.0,part_1,,,,,,,,,,,,,yellow,I
101.0,6.0,2.0,1.0,3.0,3.0,344.8789700000816,1.0,1.0,part_1,,,,,,,,,,,,,gray,square
0.0,2.0,0.0,0.0,3.0,3.0,325.7028060002085,1.0,1.0,part_1,,,,,,,,,,,,,blue,circle
389.0,4.0,4.0,0.0,1.0,1.0,301.9560380002986,1.0,1.0,part_1,,,,,,,,,,,,,cyan,hexagon
0.0,3.0,0.0,0.0,4.0,4.0,345.2613660001589,1.0,1.0,part_1,,,,,,,,,,,,,magenta,diamond
34.0,1.0,1.0,0.0,3.0,3.0,355.6797569999617,1.0,1.0,part_1,,,,,,,,,,,,,white,triangle
60.0,5.0,1.0,1.0,4.0,4.0,340.2984429999378,1.0,1.0,part_1,,,,,,,,,,,,,yellow,I
58.0,5.0,1.0,1.0,2.0,2.0,347.1334109999588,1.0,1.0,part_1,,,,,,,,,,,,,yellow,I
47.0,5.0,1.0,1.0,1.0,1.0,365.4972039998938,1.0,1.0,part_1,,,,,,,,,,,,,yellow,I
223.0,7.0,3.0,1.0,3.0,3.0,309.5146989999193,1.0,1.0,part_1,,,,,,,,,,,,,orange,cross
0.0,7.0,0.0,1.0,3.0,3.0,374.0513120001196,1.0,1.0,part_1,,,,,,,,,,,,,orange,cross
0.0,6.0,0.0,1.0,1.0,1.0,395.4840779997539,1.0,1.0,part_1,,,,,,,,,,,,,gray,square
70.0,5.0,1.0,1.0,4.0,4.0,350.3883550001774,1.0,1.0,part_1,,,,,,,,,,,,,yellow,I
0.0,4.0,0.0,0.0,4.0,4.0,410.8492280001883,1.0,1.0,part_1,,,,,,,,,,,,,cyan,hexagon
219.0,7.0,3.0,1.0,3.0,3.0,348.4809860001405,1.0,1.0,part_1,,,,,,,,,,,,,orange,cross
405.0,4.0,4.0,0.0,2.0,2.0,397.7224700001898,1.0,1.0,part_1,,,,,,,,,,,,,cyan,hexagon
38.0,5.0,1.0,1.0,2.0,2.0,344.7932409999339,1.0,1.0,part_1,,,,,,,,,,,,,yellow,I
0.0,1.0,0.0,0.0,1.0,1.0,323.6233440002252,1.0,1.0,part_1,,,,,,,,,,,,,white,triangle
403.0,4.0,4.0,0.0,3.0,3.0,360.3772430001299,1.0,1.0,part_1,,,,,,,,,,,,,cyan,hexagon
43.0,5.0,1.0,1.0,4.0,4.0,329.1120700000647,1.0,1.0,part_1,,,,,,,,,,,,,yellow,I
0.0,8.0,0.0,1.0,3.0,3.0,350.4248730000654,1.0,1.0,part_1,,,,,,,,,,,,,green,flipped triangle
71.0,5.0,1.0,1.0,2.0,2.0,348.9387219997297,1.0,1.0,part_1,,,,,,,,,,,,,yellow,I
220.0,3.0,3.0,0.0,1.0,1.0,359.0087940001467,1.0,1.0,part_1,,,,,,,,,,,,,magenta,diamond
27.0,5.0,1.0,1.0,2.0,2.0,355.6740980002359,1.0,1.0,part_1,,,,,,,,,,,,,yellow,I
91.0,2.0,2.0,0.0,3.0,3.0,362.5035110003409,1.0,1.0,part_1,,,,,,,,,,,,,blue,circle
407.0,8.0,4.0,1.0,2.0,2.0,365.6125479997172,1.0,1.0,part_1,,,,,,,,,,,,,green,flipped triangle
71.0,1.0,1.0,0.0,4.0,4.0,323.6778559999038,1.0,1.0,part_1,,,,,,,,,,,,,white,triangle
71.0,1.0,1.0,0.0,4.0,4.0,349.2916879999939,1.0,1.0,part_1,,,,,,,,,,,,,white,triangle
190.0,3.0,3.0,0.0,3.0,3.0,356.1240990002261,1.0,1.0,part_1,,,,,,,,,,,,,magenta,diamond
99.0,6.0,2.0,1.0,2.0,2.0,354.8150170004192,1.0,1.0,part_1,,,,,,,,,,,,,gray,square
35.0,1.0,1.0,0.0,1.0,1.0,363.5651949998646,1.0,1.0,part_1,,,,,,,,,,,,,white,triangle
122.0,6.0,2.0,1.0,3.0,3.0,341.7294539999602,1.0,1.0,part_1,,,,,,,,,,,,,gray,square
404.0,8.0,4.0,1.0,3.0,3.0,335.4407829997399,1.0,1.0,part_1,,,,,,,,,,,,,green,flipped triangle
0.0,4.0,0.0,0.0,4.0,4.0,308.5360520003632,1.0,1.0,part_1,,,,,,,,,,,,,cyan,hexagon
212.0,3.0,3.0,0.0,2.0,2.0,355.4256020001958,1.0,1.0,part_1,,,,,,,,,,,,,magenta,diamond
412.0,8.0,4.0,1.0,3.0,3.0,295.1632149997749,1.0,1.0,part_1,,,,,,,,,,,,,green,flipped triangle
55.0,5.0,1.0,1.0,1.0,1.0,353.4600510001837,1.0,1.0,part_1,,,,,,,,,,,,,yellow,I
395.0,4.0,4.0,0.0,4.0,4.0,318.172446999597,1.0,1.0,part_1,,,,,,,,,,,,,cyan,hexagon
182.0,7.0,3.0,1.0,1.0,1.0,364.8596709999765,1.0,1.0,part_1,,,,,,,,,,,,,orange,cross
182.0,3.0,3.0,0.0,4.0,4.0,330.9571620002316,2.0,1.0,part_1,,,,,,,,,,,,,magenta,diamond
194.0,7.0,3.0,1.0,1.0,1.0,301.7623220002861,2.0,1.0,part_1,,,,,,,,,,,,,orange,cross
383.0,4.0,4.0,0.0,2.0,2.0,391.520875000424,2.0,1.0,part_1,,,,,,,,,,,,,cyan,hexagon
194.0,3.0,3.0,0.0,1.0,1.0,339.2084550000618,2.0,1.0,part_1,,,,,,,,,,,,,magenta,diamond
27.0,1.0,1.0,0.0,4.0,4.0,332.3016710000956,2.0,1.0,part_1,,,,,,,,,,,,,white,triangle
421.0,8.0,4.0,1.0,3.0,3.0,484.1743470001347,2.0,1.0,part_1,,,,,,,,,,,,,green,flipped triangle
85.0,2.0,2.0,0.0,1.0,1.0,353.7565720002931,2.0,1.0,part_1,,,,,,,,,,,,,blue,circle
189.0,7.0,3.0,1.0,4.0,4.0,289.9633550000544,2.0,1.0,part_1,,,,,,,,,,,,,orange,cross
52.0,5.0,1.0,1.0,3.0,3.0,435.2569100001346,2.0,1.0,part_1,,,,,,,,,,,,,yellow,I
43.0,5.0,1.0,1.0,2.0,2.0,332.3474849999002,2.0,1.0,part_1,,,,,,,,,,,,,yellow,I
101.0,2.0,2.0,0.0,3.0,3.0,332.128417000149,2.0,1.0,part_1,,,,,,,,,,,,,blue,circle
192.0,3.0,3.0,0.0,2.0,2.0,364.6364910000557,2.0,1.0,part_1,,,,,,,,,,,,,magenta,diamond
28.0,1.0,1.0,0.0,2.0,2.0,367.3036740001407,2.0,1.0,part_1,,,,,,,,,,,,,white,triangle
124.0,6.0,2.0,1.0,1.0,1.0,339.7570030001589,2.0,1.0,part_1,,,,,,,,,,,,,gray,square
186.0,3.0,3.0,0.0,2.0,2.0,319.8574110001573,2.0,1.0,part_1,,,,,,,,,,,,,magenta,diamond
208.0,7.0,3.0,1.0,1.0,1.0,373.1485120001707,2.0,1.0,part_1,,,,,,,,,,,,,orange,cross
0.0,4.0,0.0,0.0,4.0,4.0,329.2773699999998,2.0,1.0,part_1,,,,,,,,,,,,,cyan,hexagon
0.0,4.0,0.0,0.0,3.0,3.0,374.530858000071,2.0,1.0,part_1,,,,,,,,,,,,,cyan,hexagon
399.0,8.0,4.0,1.0,4.0,4.0,337.1342220002589,2.0,1.0,part_1,,,,,,,,,,,,,green,flipped triangle
403.0,8.0,4.0,1.0,4.0,4.0,319.4364669998322,2.0,1.0,part_1,,,,,,,,,,,,,green,flipped triangle
106.0,6.0,2.0,1.0,3.0,3.0,301.2738789998366,2.0,1.0,part_1,,,,,,,,,,,,,gray,square
0.0,1.0,0.0,0.0,2.0,2.0,353.1734289999804,2.0,1.0,part_1,,,,,,,,,,,,,white,triangle
51.0,1.0,1.0,0.0,1.0,1.0,356.3821529996858,2.0,1.0,part_1,,,,,,,,,,,,,white,triangle
83.0,2.0,2.0,0.0,3.0,3.0,289.7852659998534,2.0,1.0,part_1,,,,,,,,,,,,,blue,circle
0.0,3.0,0.0,0.0,3.0,3.0,329.7352869999486,2.0,1.0,part_1,,,,,,,,,,,,,magenta,diamond
0.0,7.0,0.0,1.0,2.0,2.0,364.405239000007,2.0,1.0,part_1,,,,,,,,,,,,,orange,cross
124.0,6.0,2.0,1.0,2.0,2.0,315.7439430001432,2.0,1.0,part_1,,,,,,,,,,,,,gray,square
78.0,6.0,2.0,1.0,2.0,2.0,312.806996999825,2.0,1.0,part_1,,,,,,,,,,,,,gray,square
120.0,2.0,2.0,0.0,2.0,2.0,303.5948950000602,2.0,1.0,part_1,,,,,,,,,,,,,blue,circle
224.0,7.0,3.0,1.0,3.0,3.0,305.9763080000266,2.0,1.0,part_1,,,,,,,,,,,,,orange,cross
66.0,5.0,1.0,1.0,3.0,3.0,325.1161690000117,2.0,1.0,part_1,,,,,,,,,,,,,yellow,I
422.0,4.0,4.0,0.0,2.0,2.0,298.9781739997852,2.0,1.0,part_1,,,,,,,,,,,,,cyan,hexagon
99.0,2.0,2.0,0.0,1.0,1.0,337.9814810000425,2.0,1.0,part_1,,,,,,,,,,,,,blue,circle
52.0,1.0,1.0,0.0,1.0,1.0,307.2370959998807,2.0,1.0,part_1,,,,,,,,,,,,,white,triangle
71.0,5.0,1.0,1.0,3.0,3.0,321.4937449997705,2.0,1.0,part_1,,,,,,,,,,,,,yellow,I
113.0,2.0,2.0,0.0,2.0,2.0,317.2228140001607,2.0,1.0,part_1,,,,,,,,,,,,,blue,circle
66.0,1.0,1.0,0.0,4.0,4.0,284.9116789998334,2.0,1.0,part_1,,,,,,,,,,,,,white,triangle
423.0,4.0,4.0,0.0,2.0,2.0,291.9721870002831,2.0,1.0,part_1,,,,,,,,,,,,,cyan,hexagon
79.0,6.0,2.0,1.0,3.0,3.0,326.828000000205,2.0,1.0,part_1,,,,,,,,,,,,,gray,square
196.0,7.0,3.0,1.0,1.0,1.0,363.6298839996925,2.0,1.0,part_1,,,,,,,,,,,,,orange,cross
220.0,7.0,3.0,1.0,3.0,3.0,299.4138199996996,2.0,1.0,part_1,,,,,,,,,,,,,orange,cross
194.0,7.0,3.0,1.0,4.0,4.0,269.3287369997961,2.0,1.0,part_1,,,,,,,,,,,,,orange,cross
66.0,5.0,1.0,1.0,4.0,4.0,305.7038460001422,2.0,1.0,part_1,,,,,,,,,,,,,yellow,I
99.0,2.0,2.0,0.0,2.0,2.0,301.842869000211,2.0,1.0,part_1,,,,,,,,,,,,,blue,circle
58.0,1.0,1.0,0.0,2.0,2.0,306.9414780002262,2.0,1.0,part_1,,,,,,,,,,,,,white,triangle
61.0,1.0,1.0,0.0,1.0,1.0,393.4006630001931,2.0,1.0,part_1,,,,,,,,,,,,,white,triangle
78.0,2.0,2.0,0.0,1.0,1.0,364.6303870000338,2.0,1.0,part_1,,,,,,,,,,,,,blue,circle
416.0,8.0,4.0,1.0,4.0,4.0,309.7028349998254,2.0,1.0,part_1,,,,,,,,,,,,,green,flipped triangle
76.0,2.0,2.0,0.0,3.0,3.0,351.6064570003436,2.0,1.0,part_1,,,,,,,,,,,,,blue,circle
47.0,1.0,1.0,0.0,3.0,3.0,315.3294869998717,2.0,1.0,part_1,,,,,,,,,,,,,white,triangle
122.0,2.0,2.0,0.0,1.0,1.0,290.3772380000191,2.0,1.0,part_1,,,,,,,,,,,,,blue,circle
0.0,3.0,0.0,0.0,4.0,4.0,313.3109159998639,2.0,1.0,part_1,,,,,,,,,,,,,magenta,diamond
421.0,4.0,4.0,0.0,2.0,2.0,300.4029310000078,2.0,1.0,part_1,,,,,,,,,,,,,cyan,hexagon
41.0,1.0,1.0,0.0,1.0,1.0,532.0396969996182,2.0,1.0,part_1,,,,,,,,,,,,,white,triangle
397.0,4.0,4.0,0.0,4.0,4.0,348.2919530001709,2.0,1.0,part_1,,,,,,,,,,,,,cyan,hexagon
117.0,2.0,2.0,0.0,4.0,4.0,352.6426959997479,2.0,1.0,part_1,,,,,,,,,,,,,blue,circle
0.0,4.0,0.0,0.0,3.0,3.0,347.4458499999855,2.0,2.0,part_1,,,,,,,,,,,,,cyan,hexagon
40.0,5.0,1.0,1.0,2.0,2.0,325.1560999997309,2.0,1.0,part_1,,,,,,,,,,,,,yellow,I
124.0,2.0,2.0,0.0,4.0,4.0,334.3709599998874,2.0,1.0,part_1,,,,,,,,,,,,,blue,circle
70.0,5.0,1.0,1.0,3.0,3.0,330.3116729998692,2.0,1.0,part_1,,,,,,,,,,,,,yellow,I
70.0,1.0,1.0,0.0,2.0,2.0,322.7708280001025,2.0,1.0,part_1,,,,,,,,,,,,,white,triangle
383.0,8.0,4.0,1.0,4.0,4.0,394.9999550000029,2.0,1.0,part_1,,,,,,,,,,,,,green,flipped triangle
405.0,4.0,4.0,0.0,4.0,4.0,333.7261449996731,2.0,1.0,part_1,,,,,,,,,,,,,cyan,hexagon
52.0,1.0,1.0,0.0,1.0,1.0,380.1696369996534,2.0,1.0,part_1,,,,,,,,,,,,,white,triangle
387.0,4.0,4.0,0.0,3.0,3.0,353.109915999994,2.0,1.0,part_1,,,,,,,,,,,,,cyan,hexagon
377.0,4.0,4.0,0.0,4.0,4.0,381.438481999794,2.0,1.0,part_1,,,,,,,,,,,,,cyan,hexagon
60.0,1.0,1.0,0.0,3.0,3.0,393.6832959998355,2.0,1.0,part_1,,,,,,,,,,,,,white,triangle
404.0,4.0,4.0,0.0,4.0,4.0,318.4875699998883,2.0,1.0,part_1,,,,,,,,,,,,,cyan,hexagon
210.0,3.0,3.0,0.0,3.0,3.0,392.3231300000225,2.0,1.0,part_1,,,,,,,,,,,,,magenta,diamond
63.0,5.0,1.0,1.0,3.0,3.0,398.9806589997897,2.0,1.0,part_1,,,,,,,,,,,,,yellow,I
391.0,4.0,4.0,0.0,3.0,3.0,340.3988989998652,2.0,1.0,part_1,,,,,,,,,,,,,cyan,hexagon
119.0,2.0,2.0,0.0,2.0,2.0,412.4651059996722,2.0,1.0,part_1,,,,,,,,,,,,,blue,circle
179.0,7.0,3.0,1.0,3.0,3.0,366.7175499999757,2.0,1.0,part_1,,,,,,,,,,,,,orange,cross
207.0,3.0,3.0,0.0,3.0,3.0,481.5614919998552,2.0,1.0,part_1,,,,,,,,,,,,,magenta,diamond
203.0,3.0,3.0,0.0,1.0,1.0,462.3468110003159,2.0,1.0,part_1,,,,,,,,,,,,,magenta,diamond
42.0,5.0,1.0,1.0,1.0,1.0,344.8194140000851,2.0,1.0,part_1,,,,,,,,,,,,,yellow,I
0.0,7.0,0.0,1.0,3.0,3.0,359.5686270000442,2.0,1.0,part_1,,,,,,,,,,,,,orange,cross
417.0,4.0,4.0,0.0,4.0,4.0,392.7182420002282,2.0,1.0,part_1,,,,,,,,,,,,,cyan,hexagon
399.0,4.0,4.0,0.0,1.0,1.0,395.5755920001138,2.0,1.0,part_1,,,,,,,,,,,,,cyan,hexagon
400.0,4.0,4.0,0.0,2.0,2.0,390.5494499999804,2.0,1.0,part_1,,,,,,,,,,,,,cyan,hexagon
179.0,3.0,3.0,0.0,3.0,3.0,357.5835669998923,2.0,1.0,part_1,,,,,,,,,,,,,magenta,diamond
66.0,1.0,1.0,0.0,4.0,4.0,393.3829669999795,2.0,1.0,part_1,,,,,,,,,,,,,white,triangle
412.0,4.0,4.0,0.0,2.0,2.0,373.8078139999743,2.0,1.0,part_1,,,,,,,,,,,,,cyan,hexagon
0.0,8.0,0.0,1.0,3.0,3.0,377.2852060001241,2.0,1.0,part_1,,,,,,,,,,,,,green,flipped triangle
395.0,8.0,4.0,1.0,1.0,1.0,334.0818959995886,2.0,1.0,part_1,,,,,,,,,,,,,green,flipped triangle
117.0,6.0,2.0,1.0,3.0,3.0,548.5962600000676,2.0,1.0,part_1,,,,,,,,,,,,,gray,square
196.0,3.0,3.0,0.0,1.0,1.0,425.9361399999761,2.0,1.0,part_1,,,,,,,,,,,,,magenta,diamond
26.0,1.0,1.0,0.0,4.0,4.0,437.6218360002895,2.0,1.0,part_1,,,,,,,,,,,,,white,triangle
58.0,1.0,1.0,0.0,2.0,2.0,423.3698579996598,2.0,1.0,part_1,,,,,,,,,,,,,white,triangle
0.0,7.0,0.0,1.0,1.0,1.0,354.9671119999402,2.0,1.0,part_1,,,,,,,,,,,,,orange,cross
111.0,2.0,2.0,0.0,2.0,2.0,425.6721579999976,2.0,1.0,part_1,,,,,,,,,,,,,blue,circle
85.0,2.0,2.0,0.0,2.0,2.0,393.1390629995803,2.0,1.0,part_1,,,,,,,,,,,,,blue,circle
0.0,3.0,0.0,0.0,2.0,2.0,374.2101970001386,2.0,1.0,part_1,,,,,,,,,,,,,magenta,diamond
113.0,6.0,2.0,1.0,3.0,3.0,413.0105570002342,2.0,1.0,part_1,,,,,,,,,,,,,gray,square
180.0,3.0,3.0,0.0,3.0,3.0,405.7482629996229,2.0,1.0,part_1,,,,,,,,,,,,,magenta,diamond
120.0,6.0,2.0,1.0,4.0,4.0,473.9124920001814,2.0,1.0,part_1,,,,,,,,,,,,,gray,square
393.0,4.0,4.0,0.0,4.0,4.0,381.5852079997057,2.0,1.0,part_1,,,,,,,,,,,,,cyan,hexagon
199.0,3.0,3.0,0.0,1.0,1.0,400.7380769999145,2.0,1.0,part_1,,,,,,,,,,,,,magenta,diamond
199.0,7.0,3.0,1.0,2.0,2.0,401.9309889999931,2.0,1.0,part_1,,,,,,,,,,,,,orange,cross
223.0,3.0,3.0,0.0,1.0,1.0,385.7414480003172,2.0,1.0,part_1,,,,,,,,,,,,,magenta,diamond
0.0,8.0,0.0,1.0,4.0,4.0,372.3059220001232,3.0,1.0,part_1,,,,,,,,,,,,,green,flipped triangle
191.0,7.0,3.0,1.0,4.0,4.0,339.5225969998137,3.0,1.0,part_1,,,,,,,,,,,,,orange,cross
213.0,3.0,3.0,0.0,1.0,1.0,309.95852100022597,3.0,1.0,part_1,,,,,,,,,,,,,magenta,diamond
0.0,7.0,0.0,1.0,4.0,4.0,301.5272820002792,3.0,1.0,part_1,,,,,,,,,,,,,orange,cross
0.0,2.0,0.0,0.0,3.0,3.0,366.6986900002484,3.0,1.0,part_1,,,,,,,,,,,,,blue,circle
211.0,3.0,3.0,0.0,4.0,4.0,426.2523140000667,3.0,1.0,part_1,,,,,,,,,,,,,magenta,diamond
43.0,1.0,1.0,0.0,2.0,2.0,536.86046599978,3.0,1.0,part_1,,,,,,,,,,,,,white,triangle
203.0,7.0,3.0,1.0,1.0,1.0,366.1338490001071,3.0,1.0,part_1,,,,,,,,,,,,,orange,cross
55.0,1.0,1.0,0.0,2.0,2.0,403.2486490000337,3.0,1.0,part_1,,,,,,,,,,,,,white,triangle
195.0,3.0,3.0,0.0,3.0,3.0,775.0591050003095,3.0,1.0,part_1,,,,,,,,,,,,,magenta,diamond
107.0,6.0,2.0,1.0,1.0,1.0,368.7749170003371,3.0,1.0,part_1,,,,,,,,,,,,,gray,square
392.0,8.0,4.0,1.0,1.0,1.0,324.9485999999706,3.0,1.0,part_1,,,,,,,,,,,,,green,flipped triangle
0.0,6.0,0.0,1.0,2.0,2.0,325.2025240003604,3.0,1.0,part_1,,,,,,,,,,,,,gray,square
0.0,5.0,0.0,1.0,2.0,2.0,332.1393840001292,3.0,1.0,part_1,,,,,,,,,,,,,yellow,I
41.0,5.0,1.0,1.0,4.0,4.0,446.9415359999402,3.0,1.0,part_1,,,,,,,,,,,,,yellow,I
0.0,8.0,0.0,1.0,2.0,2.0,433.299039999838,3.0,1.0,part_1,,,,,,,,,,,,,green,flipped triangle
0.0,3.0,0.0,0.0,1.0,1.0,398.970601000201,3.0,1.0,part_1,,,,,,,,,,,,,magenta,diamond
0.0,5.0,0.0,1.0,3.0,3.0,475.9938459997102,3.0,1.0,part_1,,,,,,,,,,,,,yellow,I
124.0,2.0,2.0,0.0,3.0,3.0,386.9276300001729,3.0,1.0,part_1,,,,,,,,,,,,,blue,circle
408.0,4.0,4.0,0.0,4.0,4.0,378.0270140000539,3.0,1.0,part_1,,,,,,,,,,,,,cyan,hexagon
47.0,5.0,1.0,1.0,3.0,3.0,422.8333589999238,3.0,1.0,part_1,,,,,,,,,,,,,yellow,I
60.0,5.0,1.0,1.0,1.0,1.0,429.7134399998867,3.0,1.0,part_1,,,,,,,,,,,,,yellow,I
0.0,5.0,0.0,1.0,1.0,1.0,491.2764400000924,3.0,1.0,part_1,,,,,,,,,,,,,yellow,I
377.0,4.0,4.0,0.0,3.0,3.0,360.7403000000886,3.0,1.0,part_1,,,,,,,,,,,,,cyan,hexagon
28.0,5.0,1.0,1.0,2.0,2.0,353.7872699998843,3.0,1.0,part_1,,,,,,,,,,,,,yellow,I
194.0,3.0,3.0,0.0,2.0,2.0,362.612903000354,3.0,1.0,part_1,,,,,,,,,,,,,magenta,diamond
176.0,3.0,3.0,0.0,2.0,2.0,384.1452730002856,3.0,1.0,part_1,,,,,,,,,,,,,magenta,diamond
124.0,6.0,2.0,1.0,4.0,4.0,386.765650000143,3.0,1.0,part_1,,,,,,,,,,,,,gray,square
0.0,6.0,0.0,1.0,1.0,1.0,387.4293160001798,3.0,1.0,part_1,,,,,,,,,,,,,gray,square
0.0,1.0,0.0,0.0,3.0,3.0,349.6747059998597,3.0,1.0,part_1,,,,,,,,,,,,,white,triangle
70.0,1.0,1.0,0.0,2.0,2.0,334.3065330000172,3.0,1.0,part_1,,,,,,,,,,,,,white,triangle
389.0,8.0,4.0,1.0,2.0,2.0,318.8187780001499,3.0,1.0,part_1,,,,,,,,,,,,,green,flipped triangle
400.0,4.0,4.0,0.0,3.0,3.0,329.0149429999474,3.0,1.0,part_1,,,,,,,,,,,,,cyan,hexagon
52.0,5.0,1.0,1.0,2.0,2.0,324.6527649998825,3.0,1.0,part_1,,,,,,,,,,,,,yellow,I
0.0,2.0,0.0,0.0,2.0,2.0,346.320771000137,3.0,1.0,part_1,,,,,,,,,,,,,blue,circle
176.0,7.0,3.0,1.0,3.0,3.0,317.5408679999236,3.0,1.0,part_1,,,,,,,,,,,,,orange,cross
0.0,2.0,0.0,0.0,2.0,2.0,314.5743469999615,3.0,1.0,part_1,,,,,,,,,,,,,blue,circle
82.0,2.0,2.0,0.0,1.0,1.0,412.3931270000867,3.0,1.0,part_1,,,,,,,,,,,,,blue,circle
203.0,7.0,3.0,1.0,4.0,4.0,384.1727709996121,3.0,1.0,part_1,,,,,,,,,,,,,orange,cross
190.0,7.0,3.0,1.0,2.0,2.0,395.0468080001883,3.0,1.0,part_1,,,,,,,,,,,,,orange,cross
0.0,8.0,0.0,1.0,4.0,4.0,422.7013340000667,3.0,1.0,part_1,,,,,,,,,,,,,green,flipped triangle
0.0,1.0,0.0,0.0,1.0,1.0,412.0097309996708,3.0,1.0,part_1,,,,,,,,,,,,,white,triangle
88.0,2.0,2.0,0.0,1.0,1.0,404.9860269997225,3.0,1.0,part_1,,,,,,,,,,,,,blue,circle
203.0,3.0,3.0,0.0,1.0,1.0,366.5253899998788,3.0,1.0,part_1,,,,,,,,,,,,,magenta,diamond
85.0,6.0,2.0,1.0,1.0,1.0,381.2124500000209,3.0,1.0,part_1,,,,,,,,,,,,,gray,square
203.0,7.0,3.0,1.0,2.0,2.0,411.5753370001584,3.0,1.0,part_1,,,,,,,,,,,,,orange,cross
91.0,2.0,2.0,0.0,2.0,2.0,328.7340709998716,3.0,1.0,part_1,,,,,,,,,,,,,blue,circle
105.0,6.0,2.0,1.0,1.0,1.0,393.1932469999992,3.0,1.0,part_1,,,,,,,,,,,,,gray,square
0.0,8.0,0.0,1.0,3.0,3.0,309.3928099997356,3.0,1.0,part_1,,,,,,,,,,,,,green,flipped triangle
0.0,7.0,0.0,1.0,2.0,2.0,316.1431139997148,3.0,1.0,part_1,,,,,,,,,,,,,orange,cross
408.0,8.0,4.0,1.0,2.0,2.0,320.413113000086,3.0,1.0,part_1,,,,,,,,,,,,,green,flipped triangle
70.0,5.0,1.0,1.0,3.0,3.0,384.7288000001754,3.0,1.0,part_1,,,,,,,,,,,,,yellow,I
224.0,3.0,3.0,0.0,2.0,2.0,332.1471730000667,3.0,1.0,part_1,,,,,,,,,,,,,magenta,diamond
51.0,1.0,1.0,0.0,4.0,4.0,341.1050509998858,3.0,1.0,part_1,,,,,,,,,,,,,white,triangle
376.0,4.0,4.0,0.0,1.0,1.0,397.8614980001111,3.0,1.0,part_1,,,,,,,,,,,,,cyan,hexagon
217.0,7.0,3.0,1.0,3.0,3.0,316.9319570001789,3.0,1.0,part_1,,,,,,,,,,,,,orange,cross
422.0,8.0,4.0,1.0,3.0,3.0,342.5332430001617,3.0,1.0,part_1,,,,,,,,,,,,,green,flipped triangle
117.0,2.0,2.0,0.0,2.0,2.0,308.1639429997267,3.0,1.0,part_1,,,,,,,,,,,,,blue,circle
119.0,6.0,2.0,1.0,1.0,1.0,332.7326860003268,3.0,1.0,part_1,,,,,,,,,,,,,gray,square
213.0,7.0,3.0,1.0,2.0,2.0,366.3883489998625,3.0,1.0,part_1,,,,,,,,,,,,,orange,cross
201.0,7.0,3.0,1.0,3.0,3.0,306.9659340003454,3.0,1.0,part_1,,,,,,,,,,,,,orange,cross
415.0,8.0,4.0,1.0,2.0,2.0,314.0144549997785,3.0,1.0,part_1,,,,,,,,,,,,,green,flipped triangle
0.0,4.0,0.0,0.0,4.0,4.0,385.668046000319,3.0,1.0,part_1,,,,,,,,,,,,,cyan,hexagon
34.0,5.0,1.0,1.0,1.0,1.0,386.4267839999229,3.0,1.0,part_1,,,,,,,,,,,,,yellow,I
381.0,8.0,4.0,1.0,2.0,2.0,343.6462820000088,3.0,1.0,part_1,,,,,,,,,,,,,green,flipped triangle
376.0,8.0,4.0,1.0,1.0,1.0,377.6071160000356,3.0,1.0,part_1,,,,,,,,,,,,,green,flipped triangle
94.0,2.0,2.0,0.0,4.0,4.0,360.0409149998995,3.0,1.0,part_1,,,,,,,,,,,,,blue,circle
386.0,4.0,4.0,0.0,1.0,1.0,345.798874999673,3.0,1.0,part_1,,,,,,,,,,,,,cyan,hexagon
47.0,1.0,1.0,0.0,1.0,1.0,392.7525560002323,3.0,1.0,part_1,,,,,,,,,,,,,white,triangle
0.0,5.0,0.0,1.0,2.0,2.0,305.1111690001562,3.0,1.0,part_1,,,,,,,,,,,,,yellow,I
0.0,8.0,0.0,1.0,3.0,3.0,380.1568150001913,3.0,1.0,part_1,,,,,,,,,,,,,green,flipped triangle
0.0,6.0,0.0,1.0,4.0,4.0,366.7828669999835,3.0,1.0,part_1,,,,,,,,,,,,,gray,square
75.0,6.0,2.0,1.0,4.0,4.0,384.618663999845,3.0,1.0,part_1,,,,,,,,,,,,,gray,square
94.0,6.0,2.0,1.0,3.0,3.0,335.9885660001964,3.0,1.0,part_1,,,,,,,,,,,,,gray,square
0.0,3.0,0.0,0.0,3.0,3.0,376.9167369996467,3.0,1.0,part_1,,,,,,,,,,,,,magenta,diamond
0.0,2.0,0.0,0.0,1.0,1.0,328.0126800000289,3.0,1.0,part_1,,,,,,,,,,,,,blue,circle
415.0,4.0,4.0,0.0,4.0,4.0,366.4252600001418,3.0,1.0,part_1,,,,,,,,,,,,,cyan,hexagon
65.0,1.0,1.0,0.0,3.0,3.0,362.0742640000571,3.0,1.0,part_1,,,,,,,,,,,,,white,triangle
393.0,4.0,4.0,0.0,4.0,4.0,349.5330969999486,3.0,1.0,part_1,,,,,,,,,,,,,cyan,hexagon
63.0,1.0,1.0,0.0,3.0,3.0,353.5579320000579,3.0,1.0,part_1,,,,,,,,,,,,,white,triangle
407.0,4.0,4.0,0.0,1.0,1.0,374.3421099998159,3.0,1.0,part_1,,,,,,,,,,,,,cyan,hexagon
405.0,8.0,4.0,1.0,1.0,1.0,349.3487790001381,3.0,1.0,part_1,,,,,,,,,,,,,green,flipped triangle
42.0,1.0,1.0,0.0,1.0,1.0,344.458331000169,3.0,1.0,part_1,,,,,,,,,,,,,white,triangle
86.0,2.0,2.0,0.0,1.0,1.0,355.7942930001445,3.0,1.0,part_1,,,,,,,,,,,,,blue,circle
65.0,5.0,1.0,1.0,4.0,4.0,367.7719029997206,3.0,1.0,part_1,,,,,,,,,,,,,yellow,I
223.0,3.0,3.0,0.0,4.0,4.0,307.9256369996983,3.0,1.0,part_1,,,,,,,,,,,,,magenta,diamond
40.0,1.0,1.0,0.0,2.0,2.0,341.2533830000939,3.0,1.0,part_1,,,,,,,,,,,,,white,triangle
415.0,4.0,4.0,0.0,1.0,1.0,379.1040129999601,3.0,1.0,part_1,,,,,,,,,,,,,cyan,hexagon
88.0,2.0,2.0,0.0,4.0,4.0,305.410221999864,3.0,1.0,part_1,,,,,,,,,,,,,blue,circle
192.0,7.0,3.0,1.0,1.0,1.0,362.07570400029,3.0,1.0,part_1,,,,,,,,,,,,,orange,cross
0.0,4.0,0.0,0.0,4.0,4.0,315.2887170003851,3.0,1.0,part_1,,,,,,,,,,,,,cyan,hexagon
182.0,3.0,3.0,0.0,4.0,4.0,361.5704389999337,3.0,1.0,part_1,,,,,,,,,,,,,magenta,diamond
0.0,5.0,0.0,1.0,1.0,1.0,453.8883159998477,3.0,1.0,part_1,,,,,,,,,,,,,yellow,I
94.0,2.0,2.0,0.0,2.0,2.0,371.4805970002999,3.0,1.0,part_1,,,,,,,,,,,,,blue,circle
223.0,3.0,3.0,0.0,1.0,1.0,345.0986900002135,3.0,1.0,part_1,,,,,,,,,,,,,magenta,diamond
0.0,1.0,0.0,0.0,2.0,2.0,353.9310420001129,3.0,1.0,part_1,,,,,,,,,,,,,white,triangle
393.0,8.0,4.0,1.0,4.0,4.0,346.8965699998989,3.0,1.0,part_1,,,,,,,,,,,,,green,flipped triangle
99.0,6.0,2.0,1.0,4.0,4.0,394.079815999703,3.0,1.0,part_1,,,,,,,,,,,,,gray,square
396.0,4.0,4.0,0.0,1.0,1.0,348.4417580002628,3.0,1.0,part_1,,,,,,,,,,,,,cyan,hexagon
211.0,7.0,3.0,1.0,4.0,4.0,511.90982200023427,3.0,1.0,part_1,,,,,,,,,,,,,orange,cross
404.0,8.0,4.0,1.0,1.0,1.0,404.7826749997512,4.0,1.0,part_1,,,,,,,,,,,,,green,flipped triangle
420.0,8.0,4.0,1.0,4.0,4.0,312.8001280001626,4.0,1.0,part_1,,,,,,,,,,,,,green,flipped triangle
35.0,5.0,1.0,1.0,2.0,2.0,368.4563990000242,4.0,1.0,part_1,,,,,,,,,,,,,yellow,I
220.0,7.0,3.0,1.0,2.0,2.0,550.5639039997732,4.0,1.0,part_1,,,,,,,,,,,,,orange,cross
59.0,5.0,1.0,1.0,1.0,1.0,298.0188569999882,4.0,1.0,part_1,,,,,,,,,,,,,yellow,I
31.0,5.0,1.0,1.0,4.0,4.0,312.6623010002731,4.0,1.0,part_1,,,,,,,,,,,,,yellow,I
410.0,8.0,4.0,1.0,3.0,3.0,390.4383869999037,4.0,1.0,part_1,,,,,,,,,,,,,green,flipped triangle
417.0,8.0,4.0,1.0,2.0,2.0,320.2024170000186,4.0,1.0,part_1,,,,,,,,,,,,,green,flipped triangle
58.0,5.0,1.0,1.0,1.0,1.0,418.3003329999337,4.0,1.0,part_1,,,,,,,,,,,,,yellow,I
198.0,7.0,3.0,1.0,3.0,3.0,500.4421960002219,4.0,1.0,part_1,,,,,,,,,,,,,orange,cross
393.0,8.0,4.0,1.0,2.0,2.0,348.669745999814,4.0,1.0,part_1,,,,,,,,,,,,,green,flipped triangle
84.0,6.0,2.0,1.0,1.0,1.0,362.8325200002109,4.0,1.0,part_1,,,,,,,,,,,,,gray,square
0.0,1.0,0.0,0.0,3.0,3.0,272.4762809998537,4.0,1.0,part_1,,,,,,,,,,,,,white,triangle
391.0,8.0,4.0,1.0,2.0,2.0,292.8090069999598,4.0,1.0,part_1,,,,,,,,,,,,,green,flipped triangle
0.0,3.0,0.0,0.0,2.0,2.0,324.4070509999801,4.0,1.0,part_1,,,,,,,,,,,,,magenta,diamond
0.0,4.0,0.0,0.0,3.0,3.0,375.8452770002805,4.0,1.0,part_1,,,,,,,,,,,,,cyan,hexagon
104.0,6.0,2.0,1.0,4.0,4.0,381.3295110003309,4.0,1.0,part_1,,,,,,,,,,,,,gray,square
65.0,1.0,1.0,0.0,4.0,4.0,420.5882930000371,4.0,1.0,part_1,,,,,,,,,,,,,white,triangle
120.0,6.0,2.0,1.0,1.0,1.0,316.4605039996786,4.0,1.0,part_1,,,,,,,,,,,,,gray,square
111.0,2.0,2.0,0.0,4.0,4.0,335.6151790003423,4.0,1.0,part_1,,,,,,,,,,,,,blue,circle
0.0,2.0,0.0,0.0,2.0,2.0,321.7172059999029,4.0,1.0,part_1,,,,,,,,,,,,,blue,circle
176.0,3.0,3.0,0.0,1.0,1.0,360.7259709997379,4.0,1.0,part_1,,,,,,,,,,,,,magenta,diamond
51.0,5.0,1.0,1.0,4.0,4.0,385.8449039998959,4.0,1.0,part_1,,,,,,,,,,,,,yellow,I
189.0,3.0,3.0,0.0,3.0,3.0,343.3658180001657,4.0,1.0,part_1,,,,,,,,,,,,,magenta,diamond
0.0,3.0,0.0,0.0,1.0,1.0,314.0923240002848,4.0,1.0,part_1,,,,,,,,,,,,,magenta,diamond
177.0,3.0,3.0,0.0,4.0,4.0,330.8629289999771,4.0,1.0,part_1,,,,,,,,,,,,,magenta,diamond
0.0,1.0,0.0,0.0,3.0,3.0,383.3057860001645,4.0,1.0,part_1,,,,,,,,,,,,,white,triangle
195.0,3.0,3.0,0.0,2.0,2.0,388.9870540001539,4.0,1.0,part_1,,,,,,,,,,,,,magenta,diamond
91.0,6.0,2.0,1.0,1.0,1.0,350.4811590000827,4.0,1.0,part_1,,,,,,,,,,,,,gray,square
120.0,2.0,2.0,0.0,4.0,4.0,351.5767869998853,4.0,1.0,part_1,,,,,,,,,,,,,blue,circle
61.0,5.0,1.0,1.0,2.0,2.0,359.915563999948,4.0,1.0,part_1,,,,,,,,,,,,,yellow,I
34.0,5.0,1.0,1.0,3.0,3.0,475.2822149998792,4.0,1.0,part_1,,,,,,,,,,,,,yellow,I
105.0,2.0,2.0,0.0,2.0,2.0,397.2578840002825,4.0,1.0,part_1,,,,,,,,,,,,,blue,circle
55.0,1.0,1.0,0.0,3.0,3.0,395.3112800004419,4.0,1.0,part_1,,,,,,,,,,,,,white,triangle
26.0,5.0,1.0,1.0,4.0,4.0,345.8785309999257,4.0,1.0,part_1,,,,,,,,,,,,,yellow,I
223.0,7.0,3.0,1.0,4.0,4.0,508.1968889999189,4.0,1.0,part_1,,,,,,,,,,,,,orange,cross
0.0,7.0,0.0,1.0,2.0,2.0,436.9245200000478,4.0,1.0,part_1,,,,,,,,,,,,,orange,cross
88.0,6.0,2.0,1.0,3.0,3.0,462.7803660000609,4.0,1.0,part_1,,,,,,,,,,,,,gray,square
191.0,3.0,3.0,0.0,2.0,2.0,442.8895490000286,4.0,1.0,part_1,,,,,,,,,,,,,magenta,diamond
101.0,6.0,2.0,1.0,4.0,4.0,346.4193609997892,4.0,1.0,part_1,,,,,,,,,,,,,gray,square
107.0,2.0,2.0,0.0,4.0,4.0,472.3126529997898,4.0,1.0,part_1,,,,,,,,,,,,,blue,circle
0.0,5.0,0.0,1.0,4.0,4.0,389.9240069999905,4.0,1.0,part_1,,,,,,,,,,,,,yellow,I
91.0,6.0,2.0,1.0,2.0,2.0,393.5689640002238,4.0,1.0,part_1,,,,,,,,,,,,,gray,square
70.0,1.0,1.0,0.0,3.0,3.0,490.9089729999323,4.0,1.0,part_1,,,,,,,,,,,,,white,triangle
104.0,2.0,2.0,0.0,1.0,1.0,349.3213990000186,4.0,1.0,part_1,,,,,,,,,,,,,blue,circle
410.0,4.0,4.0,0.0,2.0,2.0,603.0952490000345,4.0,1.0,part_1,,,,,,,,,,,,,cyan,hexagon
94.0,6.0,2.0,1.0,4.0,4.0,339.9316229997566,4.0,1.0,part_1,,,,,,,,,,,,,gray,square
203.0,3.0,3.0,0.0,3.0,3.0,409.9275080002371,4.0,1.0,part_1,,,,,,,,,,,,,magenta,diamond
101.0,2.0,2.0,0.0,4.0,4.0,420.0675130000491,4.0,1.0,part_1,,,,,,,,,,,,,blue,circle
43.0,1.0,1.0,0.0,3.0,3.0,380.5717169998388,4.0,1.0,part_1,,,,,,,,,,,,,white,triangle
195.0,7.0,3.0,1.0,4.0,4.0,317.9545839998354,4.0,1.0,part_1,,,,,,,,,,,,,orange,cross
111.0,6.0,2.0,1.0,2.0,2.0,433.9649829998961,4.0,1.0,part_1,,,,,,,,,,,,,gray,square
65.0,5.0,1.0,1.0,3.0,3.0,434.6279900000809,4.0,1.0,part_1,,,,,,,,,,,,,yellow,I
82.0,6.0,2.0,1.0,2.0,2.0,299.5517219997055,4.0,1.0,part_1,,,,,,,,,,,,,gray,square
176.0,7.0,3.0,1.0,2.0,2.0,353.8958939998338,4.0,1.0,part_1,,,,,,,,,,,,,orange,cross
0.0,6.0,0.0,1.0,2.0,2.0,383.6390870001196,4.0,1.0,part_1,,,,,,,,,,,,,gray,square
99.0,2.0,2.0,0.0,3.0,3.0,340.9778879999976,4.0,1.0,part_1,,,,,,,,,,,,,blue,circle
28.0,5.0,1.0,1.0,1.0,1.0,330.622446000234,4.0,1.0,part_1,,,,,,,,,,,,,yellow,I
404.0,8.0,4.0,1.0,4.0,4.0,388.0620350000754,4.0,1.0,part_1,,,,,,,,,,,,,green,flipped triangle
416.0,4.0,4.0,0.0,3.0,3.0,359.0979669997978,4.0,1.0,part_1,,,,,,,,,,,,,cyan,hexagon
0.0,7.0,0.0,1.0,2.0,2.0,326.1733079998521,4.0,1.0,part_1,,,,,,,,,,,,,orange,cross
177.0,3.0,3.0,0.0,3.0,3.0,359.1214950001813,4.0,1.0,part_1,,,,,,,,,,,,,magenta,diamond
397.0,8.0,4.0,1.0,1.0,1.0,370.7723269999405,4.0,1.0,part_1,,,,,,,,,,,,,green,flipped triangle
38.0,1.0,1.0,0.0,3.0,3.0,396.0828570002377,4.0,1.0,part_1,,,,,,,,,,,,,white,triangle
223.0,7.0,3.0,1.0,2.0,2.0,399.6386569997412,4.0,1.0,part_1,,,,,,,,,,,,,orange,cross
106.0,2.0,2.0,0.0,3.0,3.0,526.34802700004,4.0,1.0,part_1,,,,,,,,,,,,,blue,circle
207.0,7.0,3.0,1.0,2.0,2.0,361.2223469999662,4.0,1.0,part_1,,,,,,,,,,,,,orange,cross
111.0,6.0,2.0,1.0,4.0,4.0,389.5948869999301,4.0,1.0,part_1,,,,,,,,,,,,,gray,square
404.0,4.0,4.0,0.0,3.0,3.0,437.9114039998057,4.0,1.0,part_1,,,,,,,,,,,,,cyan,hexagon
392.0,4.0,4.0,0.0,2.0,2.0,336.8695479998678,4.0,1.0,part_1,,,,,,,,,,,,,cyan,hexagon
186.0,7.0,3.0,1.0,4.0,4.0,396.8400870003279,4.0,1.0,part_1,,,,,,,,,,,,,orange,cross
189.0,7.0,3.0,1.0,2.0,2.0,452.2624880000876,4.0,1.0,part_1,,,,,,,,,,,,,orange,cross
0.0,5.0,0.0,1.0,1.0,1.0,364.8772280002959,4.0,1.0,part_1,,,,,,,,,,,,,yellow,I
219.0,3.0,3.0,0.0,4.0,4.0,346.7656409998199,4.0,1.0,part_1,,,,,,,,,,,,,magenta,diamond
0.0,8.0,0.0,1.0,1.0,1.0,573.0303999998796,4.0,1.0,part_1,,,,,,,,,,,,,green,flipped triangle
117.0,6.0,2.0,1.0,2.0,2.0,361.1647340003401,4.0,1.0,part_1,,,,,,,,,,,,,gray,square
0.0,5.0,0.0,1.0,4.0,4.0,559.0125290000287,4.0,1.0,part_1,,,,,,,,,,,,,yellow,I
404.0,4.0,4.0,0.0,1.0,1.0,711.7622239998127,4.0,1.0,part_1,,,,,,,,,,,,,cyan,hexagon
77.0,6.0,2.0,1.0,2.0,2.0,396.5702599998622,4.0,1.0,part_1,,,,,,,,,,,,,gray,square
104.0,2.0,2.0,0.0,1.0,1.0,347.3483570001008,4.0,1.0,part_1,,,,,,,,,,,,,blue,circle
0.0,1.0,0.0,0.0,3.0,3.0,350.9411049999471,4.0,1.0,part_1,,,,,,,,,,,,,white,triangle
407.0,4.0,4.0,0.0,1.0,1.0,305.4430269999102,4.0,1.0,part_1,,,,,,,,,,,,,cyan,hexagon
420.0,4.0,4.0,0.0,3.0,3.0,370.4307490002065,4.0,1.0,part_1,,,,,,,,,,,,,cyan,hexagon
28.0,1.0,1.0,0.0,4.0,4.0,355.3202590001092,4.0,1.0,part_1,,,,,,,,,,,,,white,triangle
0.0,6.0,0.0,1.0,4.0,4.0,383.0550809998385,4.0,1.0,part_1,,,,,,,,,,,,,gray,square
84.0,2.0,2.0,0.0,3.0,3.0,371.7014429998926,4.0,1.0,part_1,,,,,,,,,,,,,blue,circle
377.0,8.0,4.0,1.0,2.0,2.0,387.411954000072,4.0,1.0,part_1,,,,,,,,,,,,,green,flipped triangle
124.0,6.0,2.0,1.0,1.0,1.0,408.1539300000258,4.0,1.0,part_1,,,,,,,,,,,,,gray,square
415.0,8.0,4.0,1.0,1.0,1.0,430.6016359996647,4.0,1.0,part_1,,,,,,,,,,,,,green,flipped triangle
0.0,3.0,0.0,0.0,4.0,4.0,415.024908000305,4.0,1.0,part_1,,,,,,,,,,,,,magenta,diamond
44.0,1.0,1.0,0.0,2.0,2.0,383.2056639998882,4.0,1.0,part_1,,,,,,,,,,,,,white,triangle
44.0,5.0,1.0,1.0,3.0,3.0,399.5166219997372,4.0,1.0,part_1,,,,,,,,,,,,,yellow,I
423.0,8.0,4.0,1.0,2.0,2.0,418.0748969997694,4.0,1.0,part_1,,,,,,,,,,,,,green,flipped triangle
85.0,6.0,2.0,1.0,2.0,2.0,445.7553080001162,4.0,1.0,part_1,,,,,,,,,,,,,gray,square
212.0,7.0,3.0,1.0,3.0,3.0,318.182144000275,4.0,1.0,part_1,,,,,,,,,,,,,orange,cross
405.0,8.0,4.0,1.0,1.0,1.0,350.7202310001958,4.0,1.0,part_1,,,,,,,,,,,,,green,flipped triangle
189.0,3.0,3.0,0.0,4.0,4.0,486.8600589998095,4.0,1.0,part_1,,,,,,,,,,,,,magenta,diamond
51.0,5.0,1.0,1.0,1.0,1.0,359.439876000124,4.0,1.0,part_1,,,,,,,,,,,,,yellow,I
0.0,6.0,0.0,1.0,4.0,4.0,322.7252460001182,4.0,1.0,part_1,,,,,,,,,,,,,gray,square
104.0,6.0,2.0,1.0,2.0,2.0,348.2743739996294,4.0,1.0,part_1,,,,,,,,,,,,,gray,square
0.0,2.0,2.0,0.0,5.0,5.0,437.7005510000344,1.0,0.0,part_2,go,250.0,250.0,1.0,,,,,,,,,blue,circle
0.0,3.0,3.0,0.0,6.0,6.0,321.8973830003051,1.0,0.0,part_2,go,250.0,250.0,1.0,,,,,,,,,magenta,diamond
0.0,3.0,3.0,0.0,5.0,5.0,422.8976389999843,1.0,0.0,part_2,go,250.0,250.0,1.0,,,,,,,,,magenta,diamond
0.0,8.0,4.0,1.0,6.0,6.0,430.0696749996859,1.0,0.0,part_2,go,250.0,250.0,1.0,,,,,,,,,green,flipped triangle
0.0,8.0,4.0,1.0,6.0,0.0,0.0,1.0,0.0,part_2,stop,250.0,250.0,4.0,,,,,,,,,green,flipped triangle
0.0,8.0,4.0,1.0,5.0,5.0,394.7405539997817,1.0,0.0,part_2,stop,250.0,300.0,3.0,,,,,,,,,green,flipped triangle
0.0,4.0,4.0,0.0,6.0,6.0,571.2403129996346,1.0,0.0,part_2,go,200.0,300.0,1.0,,,,,,,,,cyan,hexagon
0.0,4.0,4.0,0.0,5.0,5.0,653.7671890000638,1.0,0.0,part_2,go,200.0,300.0,1.0,,,,,,,,,cyan,hexagon
0.0,8.0,4.0,1.0,5.0,5.0,842.6876419998734,1.0,0.0,part_2,go,200.0,300.0,1.0,,,,,,,,,green,flipped triangle
0.0,7.0,3.0,1.0,5.0,0.0,0.0,1.0,0.0,part_2,stop,200.0,300.0,4.0,,,,,,,,,orange,cross
0.0,4.0,4.0,0.0,6.0,6.0,872.1246640002391,1.0,0.0,part_2,go,250.0,300.0,1.0,,,,,,,,,cyan,hexagon
0.0,7.0,3.0,1.0,6.0,0.0,0.0,1.0,0.0,part_2,stop,250.0,300.0,4.0,,,,,,,,,orange,cross
0.0,4.0,4.0,0.0,6.0,6.0,917.060802999913,1.0,0.0,part_2,go,250.0,350.0,1.0,,,,,,,,,cyan,hexagon
0.0,1.0,1.0,0.0,5.0,5.0,822.4724120000246,1.0,0.0,part_2,go,250.0,350.0,1.0,,,,,,,,,white,triangle
0.0,8.0,4.0,1.0,6.0,0.0,0.0,1.0,0.0,part_2,stop,250.0,350.0,4.0,,,,,,,,,green,flipped triangle
0.0,5.0,1.0,1.0,5.0,0.0,0.0,1.0,0.0,part_2,stop,250.0,400.0,4.0,,,,,,,,,yellow,I
0.0,4.0,4.0,0.0,5.0,5.0,927.7146730000824,1.0,0.0,part_2,go,300.0,400.0,1.0,,,,,,,,,cyan,hexagon
0.0,8.0,4.0,1.0,6.0,0.0,0.0,1.0,0.0,part_2,stop,300.0,400.0,4.0,,,,,,,,,green,flipped triangle
0.0,2.0,2.0,0.0,6.0,6.0,1140.6327970003076,1.0,0.0,part_2,go,300.0,450.0,1.0,,,,,,,,,blue,circle
0.0,6.0,2.0,1.0,5.0,0.0,0.0,1.0,0.0,part_2,stop,300.0,450.0,4.0,,,,,,,,,gray,square
0.0,2.0,2.0,0.0,6.0,6.0,1001.9073090002166,1.0,0.0,part_2,go,350.0,450.0,1.0,,,,,,,,,blue,circle
0.0,6.0,2.0,1.0,5.0,0.0,0.0,1.0,0.0,part_2,stop,350.0,450.0,4.0,,,,,,,,,gray,square
0.0,1.0,1.0,0.0,5.0,5.0,1055.6160510000154,1.0,0.0,part_2,go,400.0,450.0,1.0,,,,,,,,,white,triangle
0.0,1.0,1.0,0.0,5.0,5.0,818.8267870000345,1.0,0.0,part_2,go,400.0,450.0,1.0,,,,,,,,,white,triangle
0.0,1.0,1.0,0.0,6.0,6.0,952.1637610000652,1.0,0.0,part_2,go,400.0,450.0,1.0,,,,,,,,,white,triangle
0.0,5.0,1.0,1.0,5.0,0.0,0.0,1.0,0.0,part_2,stop,400.0,450.0,4.0,,,,,,,,,yellow,I
0.0,3.0,3.0,0.0,5.0,5.0,742.6987859998917,1.0,0.0,part_2,go,450.0,450.0,1.0,,,,,,,,,magenta,diamond
0.0,4.0,4.0,0.0,6.0,6.0,928.8199419997908,1.0,0.0,part_2,go,450.0,450.0,1.0,,,,,,,,,cyan,hexagon
0.0,5.0,1.0,1.0,5.0,5.0,927.2278939997703,1.0,0.0,part_2,go,450.0,450.0,1.0,,,,,,,,,yellow,I
0.0,7.0,3.0,1.0,5.0,0.0,0.0,1.0,0.0,part_2,stop,450.0,450.0,4.0,,,,,,,,,orange,cross
0.0,4.0,4.0,0.0,6.0,6.0,1309.1702010001427,1.0,0.0,part_2,go,500.0,450.0,1.0,,,,,,,,,cyan,hexagon
0.0,6.0,2.0,1.0,5.0,0.0,0.0,1.0,0.0,part_2,stop,500.0,450.0,4.0,,,,,,,,,gray,square
0.0,4.0,4.0,0.0,6.0,6.0,753.6206990002938,1.0,0.0,part_2,go,550.0,450.0,1.0,,,,,,,,,cyan,hexagon
0.0,6.0,2.0,1.0,6.0,0.0,0.0,1.0,0.0,part_2,stop,550.0,450.0,4.0,,,,,,,,,gray,square
0.0,3.0,3.0,0.0,6.0,6.0,814.5542990000649,1.0,0.0,part_2,go,550.0,500.0,1.0,,,,,,,,,magenta,diamond
0.0,2.0,2.0,0.0,6.0,6.0,886.9319449995601,1.0,0.0,part_2,go,550.0,500.0,1.0,,,,,,,,,blue,circle
0.0,2.0,2.0,0.0,5.0,5.0,614.8468460000913,2.0,0.0,part_2,go,550.0,500.0,1.0,,,,,,,,,blue,circle
0.0,1.0,1.0,0.0,6.0,6.0,534.2056979998233,2.0,0.0,part_2,go,550.0,500.0,1.0,,,,,,,,,white,triangle
0.0,7.0,3.0,1.0,6.0,6.0,624.044405999939,2.0,0.0,part_2,go,550.0,500.0,1.0,,,,,,,,,orange,cross
0.0,3.0,3.0,0.0,5.0,5.0,548.357956000018,2.0,0.0,part_2,go,550.0,500.0,1.0,,,,,,,,,magenta,diamond
0.0,2.0,2.0,0.0,5.0,5.0,581.5819649997138,2.0,0.0,part_2,go,550.0,500.0,1.0,,,,,,,,,blue,circle
0.0,1.0,1.0,0.0,5.0,5.0,464.8460590001377,2.0,0.0,part_2,go,550.0,500.0,1.0,,,,,,,,,white,triangle
0.0,7.0,3.0,1.0,5.0,5.0,365.7618699999148,2.0,0.0,part_2,stop,550.0,500.0,3.0,,,,,,,,,orange,cross
0.0,6.0,2.0,1.0,5.0,0.0,0.0,2.0,0.0,part_2,stop,500.0,500.0,4.0,,,,,,,,,gray,square
0.0,3.0,3.0,0.0,5.0,5.0,840.0196809998306,2.0,0.0,part_2,go,550.0,500.0,1.0,,,,,,,,,magenta,diamond
0.0,4.0,4.0,0.0,5.0,5.0,785.0699000000532,2.0,0.0,part_2,go,550.0,500.0,1.0,,,,,,,,,cyan,hexagon
0.0,7.0,3.0,1.0,5.0,5.0,658.3779990000949,2.0,0.0,part_2,stop,550.0,500.0,3.0,,,,,,,,,orange,cross
0.0,4.0,4.0,0.0,5.0,5.0,971.1695860000872,2.0,0.0,part_2,go,500.0,500.0,1.0,,,,,,,,,cyan,hexagon
0.0,8.0,4.0,1.0,5.0,5.0,725.2789039998788,2.0,0.0,part_2,go,500.0,500.0,1.0,,,,,,,,,green,flipped triangle
0.0,8.0,4.0,1.0,6.0,6.0,605.5929700000888,2.0,0.0,part_2,stop,500.0,500.0,3.0,,,,,,,,,green,flipped triangle
0.0,7.0,3.0,1.0,6.0,6.0,812.0578389998627,2.0,0.0,part_2,go,500.0,450.0,1.0,,,,,,,,,orange,cross
0.0,8.0,4.0,1.0,6.0,0.0,0.0,2.0,0.0,part_2,stop,500.0,450.0,4.0,,,,,,,,,green,flipped triangle
0.0,1.0,1.0,0.0,5.0,5.0,733.9878109996789,2.0,0.0,part_2,go,500.0,500.0,1.0,,,,,,,,,white,triangle
0.0,6.0,2.0,1.0,5.0,0.0,0.0,2.0,0.0,part_2,stop,500.0,500.0,4.0,,,,,,,,,gray,square
0.0,5.0,1.0,1.0,6.0,6.0,681.4651340000637,2.0,0.0,part_2,go,550.0,500.0,1.0,,,,,,,,,yellow,I
0.0,5.0,1.0,1.0,5.0,0.0,0.0,2.0,0.0,part_2,stop,550.0,500.0,4.0,,,,,,,,,yellow,I
0.0,1.0,1.0,0.0,6.0,6.0,788.7892399999146,2.0,0.0,part_2,go,600.0,500.0,1.0,,,,,,,,,white,triangle
0.0,4.0,4.0,0.0,6.0,6.0,865.2157329997863,2.0,0.0,part_2,go,600.0,500.0,1.0,,,,,,,,,cyan,hexagon
0.0,6.0,2.0,1.0,6.0,6.0,747.3300790002213,2.0,0.0,part_2,go,600.0,500.0,1.0,,,,,,,,,gray,square
0.0,7.0,3.0,1.0,6.0,0.0,0.0,2.0,0.0,part_2,stop,600.0,500.0,4.0,,,,,,,,,orange,cross
0.0,7.0,3.0,1.0,5.0,5.0,767.2788560003028,2.0,0.0,part_2,go,600.0,550.0,1.0,,,,,,,,,orange,cross
0.0,2.0,2.0,0.0,6.0,6.0,718.8012609999532,2.0,0.0,part_2,go,600.0,550.0,1.0,,,,,,,,,blue,circle
0.0,7.0,3.0,1.0,6.0,6.0,749.1488549999303,2.0,0.0,part_2,go,600.0,550.0,1.0,,,,,,,,,orange,cross
0.0,5.0,1.0,1.0,5.0,5.0,581.8300949999866,2.0,0.0,part_2,stop,600.0,550.0,3.0,,,,,,,,,yellow,I
0.0,2.0,2.0,0.0,5.0,5.0,859.5445070000096,2.0,0.0,part_2,go,550.0,550.0,1.0,,,,,,,,,blue,circle
0.0,4.0,4.0,0.0,6.0,6.0,1021.3167410001915,2.0,0.0,part_2,go,550.0,550.0,1.0,,,,,,,,,cyan,hexagon
0.0,8.0,4.0,1.0,6.0,0.0,0.0,2.0,0.0,part_2,stop,550.0,550.0,4.0,,,,,,,,,green,flipped triangle
0.0,8.0,4.0,1.0,5.0,5.0,614.3883600002482,2.0,0.0,part_2,stop,550.0,600.0,3.0,,,,,,,,,green,flipped triangle
0.0,4.0,4.0,0.0,6.0,6.0,1063.7095639999643,2.0,0.0,part_2,go,500.0,600.0,1.0,,,,,,,,,cyan,hexagon
0.0,8.0,4.0,1.0,5.0,0.0,0.0,2.0,0.0,part_2,stop,500.0,600.0,4.0,,,,,,,,,green,flipped triangle
0.0,5.0,1.0,1.0,5.0,0.0,0.0,2.0,0.0,part_2,stop,550.0,600.0,4.0,,,,,,,,,yellow,I
0.0,1.0,1.0,0.0,6.0,6.0,847.9537130001518,2.0,0.0,part_2,go,600.0,600.0,1.0,,,,,,,,,white,triangle
0.0,7.0,3.0,1.0,5.0,5.0,945.6408470000496,3.0,0.0,part_2,go,600.0,600.0,1.0,,,,,,,,,orange,cross
0.0,6.0,2.0,1.0,6.0,0.0,0.0,3.0,0.0,part_2,stop,600.0,600.0,4.0,,,,,,,,,gray,square
0.0,8.0,4.0,1.0,6.0,0.0,0.0,3.0,0.0,part_2,stop,600.0,650.0,4.0,,,,,,,,,green,flipped triangle
0.0,3.0,3.0,0.0,6.0,6.0,795.3876110000238,3.0,0.0,part_2,go,600.0,700.0,1.0,,,,,,,,,magenta,diamond
0.0,1.0,1.0,0.0,6.0,6.0,817.6103999999214,3.0,0.0,part_2,go,600.0,700.0,1.0,,,,,,,,,white,triangle
0.0,7.0,3.0,1.0,6.0,6.0,826.4381349999894,3.0,0.0,part_2,stop,600.0,700.0,3.0,,,,,,,,,orange,cross
0.0,1.0,1.0,0.0,6.0,6.0,913.9142280000668,3.0,0.0,part_2,go,600.0,650.0,1.0,,,,,,,,,white,triangle
0.0,4.0,4.0,0.0,5.0,5.0,857.9216990001441,3.0,0.0,part_2,go,600.0,650.0,1.0,,,,,,,,,cyan,hexagon
0.0,5.0,1.0,1.0,6.0,0.0,0.0,3.0,0.0,part_2,stop,600.0,650.0,4.0,,,,,,,,,yellow,I
0.0,2.0,2.0,0.0,5.0,5.0,785.9476040002846,3.0,0.0,part_2,go,600.0,700.0,1.0,,,,,,,,,blue,circle
0.0,6.0,2.0,1.0,6.0,0.0,0.0,3.0,0.0,part_2,stop,600.0,700.0,4.0,,,,,,,,,gray,square
0.0,5.0,1.0,1.0,6.0,0.0,0.0,3.0,0.0,part_2,stop,600.0,750.0,4.0,,,,,,,,,yellow,I
0.0,3.0,3.0,0.0,6.0,6.0,996.9227390001834,3.0,0.0,part_2,go,600.0,800.0,1.0,,,,,,,,,magenta,diamond
0.0,1.0,1.0,0.0,6.0,6.0,1054.3838220000907,3.0,0.0,part_2,go,600.0,800.0,1.0,,,,,,,,,white,triangle
0.0,8.0,4.0,1.0,6.0,6.0,922.5668040003256,3.0,0.0,part_2,go,600.0,800.0,1.0,,,,,,,,,green,flipped triangle
0.0,3.0,3.0,0.0,5.0,5.0,812.6778690002538,3.0,0.0,part_2,go,600.0,800.0,1.0,,,,,,,,,magenta,diamond
0.0,4.0,4.0,0.0,5.0,5.0,641.4635090000047,3.0,0.0,part_2,go,600.0,800.0,1.0,,,,,,,,,cyan,hexagon
0.0,3.0,3.0,0.0,5.0,5.0,549.8966269997254,3.0,0.0,part_2,go,600.0,800.0,1.0,,,,,,,,,magenta,diamond
0.0,4.0,4.0,0.0,5.0,5.0,510.03425699991567,3.0,0.0,part_2,go,600.0,800.0,1.0,,,,,,,,,cyan,hexagon
0.0,8.0,4.0,1.0,5.0,5.0,345.3271019998283,3.0,0.0,part_2,stop,600.0,800.0,3.0,,,,,,,,,green,flipped triangle
0.0,5.0,1.0,1.0,5.0,0.0,0.0,3.0,0.0,part_2,stop,550.0,800.0,4.0,,,,,,,,,yellow,I
0.0,8.0,4.0,1.0,5.0,0.0,0.0,3.0,0.0,part_2,stop,600.0,800.0,4.0,,,,,,,,,green,flipped triangle
0.0,4.0,4.0,0.0,5.0,5.0,970.0218269999824,3.0,0.0,part_2,go,650.0,800.0,1.0,,,,,,,,,cyan,hexagon
0.0,6.0,2.0,1.0,5.0,5.0,886.7755430001125,3.0,0.0,part_2,go,650.0,800.0,1.0,,,,,,,,,gray,square
0.0,6.0,2.0,1.0,5.0,0.0,0.0,3.0,0.0,part_2,stop,650.0,800.0,4.0,,,,,,,,,gray,square
0.0,8.0,4.0,1.0,5.0,0.0,0.0,3.0,0.0,part_2,stop,700.0,800.0,4.0,,,,,,,,,green,flipped triangle
0.0,1.0,1.0,0.0,5.0,5.0,777.481742999953,3.0,0.0,part_2,go,750.0,800.0,1.0,,,,,,,,,white,triangle
0.0,6.0,2.0,1.0,6.0,0.0,0.0,3.0,0.0,part_2,stop,750.0,800.0,4.0,,,,,,,,,gray,square
0.0,3.0,3.0,0.0,5.0,5.0,1380.4004009998607,3.0,0.0,part_2,go,750.0,850.0,1.0,,,,,,,,,magenta,diamond
0.0,1.0,1.0,0.0,5.0,5.0,1274.9083940002492,3.0,0.0,part_2,go,750.0,850.0,1.0,,,,,,,,,white,triangle
0.0,1.0,1.0,0.0,6.0,6.0,895.7793979998314,3.0,0.0,part_2,go,750.0,850.0,1.0,,,,,,,,,white,triangle
0.0,2.0,2.0,0.0,6.0,6.0,728.865154000232,3.0,0.0,part_2,go,750.0,850.0,1.0,,,,,,,,,blue,circle
0.0,2.0,2.0,0.0,5.0,5.0,759.8958730000049,3.0,0.0,part_2,go,750.0,850.0,1.0,,,,,,,,,blue,circle
0.0,2.0,2.0,0.0,6.0,6.0,762.0768229999157,3.0,0.0,part_2,go,750.0,850.0,1.0,,,,,,,,,blue,circle
0.0,7.0,3.0,1.0,5.0,5.0,746.4612300000226,3.0,0.0,part_2,stop,750.0,850.0,3.0,,,,,,,,,orange,cross
0.0,6.0,2.0,1.0,5.0,0.0,0.0,3.0,0.0,part_2,stop,700.0,850.0,4.0,,,,,,,,,gray,square
0.0,3.0,3.0,0.0,6.0,6.0,609.4968190000145,4.0,0.0,part_2,go,750.0,850.0,1.0,,,,,,,,,magenta,diamond
0.0,2.0,2.0,0.0,6.0,6.0,541.1177900000439,4.0,0.0,part_2,go,750.0,850.0,1.0,,,,,,,,,blue,circle
0.0,6.0,2.0,1.0,5.0,5.0,439.9925429997893,4.0,0.0,part_2,stop,750.0,850.0,3.0,,,,,,,,,gray,square
0.0,6.0,2.0,1.0,5.0,5.0,314.8652619997847,4.0,0.0,part_2,stop,700.0,850.0,3.0,,,,,,,,,gray,square
0.0,4.0,4.0,0.0,6.0,6.0,285.086618999685,4.0,0.0,part_2,go,650.0,850.0,1.0,,,,,,,,,cyan,hexagon
0.0,7.0,3.0,1.0,6.0,6.0,323.2412950001162,4.0,0.0,part_2,stop,650.0,850.0,3.0,,,,,,,,,orange,cross
0.0,3.0,3.0,0.0,6.0,6.0,761.6293430000951,4.0,0.0,part_2,go,650.0,800.0,1.0,,,,,,,,,magenta,diamond
0.0,2.0,2.0,0.0,6.0,6.0,635.4678150000836,4.0,0.0,part_2,go,650.0,800.0,1.0,,,,,,,,,blue,circle
0.0,6.0,2.0,1.0,6.0,6.0,538.828120999824,4.0,0.0,part_2,stop,650.0,800.0,3.0,,,,,,,,,gray,square
0.0,1.0,1.0,0.0,6.0,6.0,622.6608439997108,4.0,0.0,part_2,go,650.0,750.0,1.0,,,,,,,,,white,triangle
0.0,2.0,2.0,0.0,5.0,5.0,506.68511100002434,4.0,0.0,part_2,go,650.0,750.0,1.0,,,,,,,,,blue,circle
0.0,6.0,2.0,1.0,6.0,6.0,565.3769049999937,4.0,0.0,part_2,stop,650.0,750.0,3.0,,,,,,,,,gray,square
0.0,1.0,1.0,0.0,6.0,6.0,708.9836639997884,4.0,0.0,part_2,go,650.0,700.0,1.0,,,,,,,,,white,triangle
0.0,5.0,1.0,1.0,6.0,6.0,271.0246190004,4.0,0.0,part_2,stop,650.0,700.0,3.0,,,,,,,,,yellow,I
0.0,1.0,1.0,0.0,5.0,5.0,389.8509509999712,4.0,0.0,part_2,go,650.0,650.0,1.0,,,,,,,,,white,triangle
0.0,1.0,1.0,0.0,5.0,5.0,524.485626999649,4.0,0.0,part_2,go,650.0,650.0,1.0,,,,,,,,,white,triangle
0.0,5.0,1.0,1.0,6.0,6.0,539.0612900000633,4.0,0.0,part_2,stop,650.0,650.0,3.0,,,,,,,,,yellow,I
0.0,1.0,1.0,0.0,6.0,6.0,993.0906160002452,4.0,0.0,part_2,go,650.0,600.0,1.0,,,,,,,,,white,triangle
0.0,7.0,3.0,1.0,6.0,6.0,710.1487089998955,4.0,0.0,part_2,stop,650.0,600.0,3.0,,,,,,,,,orange,cross
0.0,5.0,1.0,1.0,5.0,0.0,0.0,4.0,0.0,part_2,stop,650.0,550.0,4.0,,,,,,,,,yellow,I
0.0,7.0,3.0,1.0,6.0,0.0,0.0,4.0,0.0,part_2,stop,700.0,550.0,4.0,,,,,,,,,orange,cross
0.0,4.0,4.0,0.0,5.0,5.0,1086.1907050002628,4.0,0.0,part_2,go,700.0,600.0,1.0,,,,,,,,,cyan,hexagon
0.0,3.0,3.0,0.0,6.0,6.0,871.5412560004552,4.0,0.0,part_2,go,700.0,600.0,1.0,,,,,,,,,magenta,diamond
0.0,5.0,1.0,1.0,5.0,5.0,588.8376339999013,4.0,0.0,part_2,stop,700.0,600.0,3.0,,,,,,,,,yellow,I
0.0,3.0,3.0,0.0,5.0,5.0,572.0803340000202,4.0,0.0,part_2,go,650.0,600.0,1.0,,,,,,,,,magenta,diamond
0.0,2.0,2.0,0.0,5.0,5.0,749.974394999299,4.0,0.0,part_2,go,650.0,600.0,1.0,,,,,,,,,blue,circle
0.0,7.0,3.0,1.0,6.0,6.0,334.3905330002599,4.0,0.0,part_2,stop,650.0,600.0,3.0,,,,,,,,,orange,cross
0.0,6.0,2.0,1.0,6.0,0.0,0.0,4.0,0.0,part_2,stop,650.0,550.0,4.0,,,,,,,,,gray,square
0.0,5.0,1.0,1.0,6.0,6.0,616.7928639997626,4.0,0.0,part_2,go,650.0,600.0,1.0,,,,,,,,,yellow,I
0.0,2.0,2.0,0.0,5.0,5.0,694.9340159999338,4.0,0.0,part_2,go,650.0,600.0,1.0,,,,,,,,,blue,circle
0.0,6.0,2.0,1.0,6.0,6.0,803.3832669998446,4.0,0.0,part_2,go,650.0,600.0,1.0,,,,,,,,,gray,square
0.0,7.0,3.0,1.0,5.0,5.0,546.2619760000962,4.0,0.0,part_2,stop,650.0,600.0,3.0,,,,,,,,,orange,cross
0.0,1.0,1.0,0.0,6.0,6.0,871.5609210003095,4.0,0.0,part_2,go,600.0,600.0,1.0,,,,,,,,,white,triangle
0.0,2.0,2.0,0.0,6.0,6.0,878.8546890000362,4.0,0.0,part_2,go,600.0,600.0,1.0,,,,,,,,,blue,circle
0.0,7.0,3.0,1.0,6.0,6.0,560.6698689998666,4.0,0.0,part_2,stop,600.0,600.0,3.0,,,,,,,,,orange,cross
0.0,2.0,2.0,0.0,5.0,5.0,923.226773999886,4.0,0.0,part_2,go,600.0,550.0,1.0,,,,,,,,,blue,circle
0.0,1.0,1.0,0.0,6.0,6.0,512.8851610006677,5.0,0.0,part_2,go,600.0,550.0,1.0,,,,,,,,,white,triangle
0.0,6.0,2.0,1.0,6.0,6.0,519.2976939997607,5.0,0.0,part_2,stop,600.0,550.0,3.0,,,,,,,,,gray,square
0.0,7.0,3.0,1.0,6.0,6.0,610.7741670002724,5.0,0.0,part_2,stop,600.0,500.0,3.0,,,,,,,,,orange,cross
0.0,5.0,1.0,1.0,5.0,5.0,742.1198649999496,5.0,0.0,part_2,stop,600.0,450.0,3.0,,,,,,,,,yellow,I
0.0,3.0,3.0,0.0,5.0,5.0,848.3775109998533,5.0,0.0,part_2,go,550.0,450.0,1.0,,,,,,,,,magenta,diamond
0.0,4.0,4.0,0.0,5.0,5.0,733.7707830001818,5.0,0.0,part_2,go,550.0,450.0,1.0,,,,,,,,,cyan,hexagon
0.0,5.0,1.0,1.0,6.0,6.0,579.7665420004705,5.0,0.0,part_2,go,550.0,450.0,1.0,,,,,,,,,yellow,I
0.0,6.0,2.0,1.0,5.0,0.0,0.0,5.0,0.0,part_2,stop,550.0,450.0,4.0,,,,,,,,,gray,square
0.0,2.0,2.0,0.0,5.0,5.0,574.1791400005241,5.0,0.0,part_2,go,600.0,450.0,1.0,,,,,,,,,blue,circle
0.0,4.0,4.0,0.0,5.0,5.0,763.0627250000543,5.0,0.0,part_2,go,600.0,450.0,1.0,,,,,,,,,cyan,hexagon
0.0,7.0,3.0,1.0,5.0,5.0,689.3584469999041,5.0,0.0,part_2,go,600.0,450.0,1.0,,,,,,,,,orange,cross
0.0,6.0,2.0,1.0,5.0,5.0,591.3059310005337,5.0,0.0,part_2,go,600.0,450.0,1.0,,,,,,,,,gray,square
0.0,8.0,4.0,1.0,5.0,5.0,329.3337940003766,5.0,0.0,part_2,stop,600.0,450.0,3.0,,,,,,,,,green,flipped triangle
0.0,3.0,3.0,0.0,6.0,6.0,952.1768210006484,5.0,0.0,part_2,go,550.0,450.0,1.0,,,,,,,,,magenta,diamond
0.0,8.0,4.0,1.0,6.0,6.0,409.428081000442,5.0,0.0,part_2,stop,550.0,450.0,3.0,,,,,,,,,green,flipped triangle
0.0,4.0,4.0,0.0,5.0,5.0,454.3394729998908,5.0,0.0,part_2,go,550.0,400.0,1.0,,,,,,,,,cyan,hexagon
0.0,5.0,1.0,1.0,5.0,5.0,798.8660410001103,5.0,0.0,part_2,go,550.0,400.0,1.0,,,,,,,,,yellow,I
0.0,5.0,1.0,1.0,5.0,5.0,712.5199640004212,5.0,0.0,part_2,stop,550.0,400.0,3.0,,,,,,,,,yellow,I
0.0,5.0,1.0,1.0,6.0,6.0,778.9430100001482,5.0,0.0,part_2,go,500.0,400.0,1.0,,,,,,,,,yellow,I
0.0,6.0,2.0,1.0,6.0,0.0,0.0,5.0,0.0,part_2,stop,500.0,400.0,4.0,,,,,,,,,gray,square
0.0,5.0,1.0,1.0,6.0,0.0,0.0,5.0,0.0,part_2,stop,500.0,450.0,4.0,,,,,,,,,yellow,I
0.0,5.0,1.0,1.0,5.0,0.0,0.0,5.0,0.0,part_2,stop,500.0,500.0,4.0,,,,,,,,,yellow,I
0.0,8.0,4.0,1.0,5.0,5.0,585.9214049996808,5.0,0.0,part_2,go,550.0,500.0,1.0,,,,,,,,,green,flipped triangle
0.0,2.0,2.0,0.0,6.0,6.0,704.1464370004178,5.0,0.0,part_2,go,550.0,500.0,1.0,,,,,,,,,blue,circle
0.0,2.0,2.0,0.0,5.0,5.0,866.9793859999118,5.0,0.0,part_2,go,550.0,500.0,1.0,,,,,,,,,blue,circle
0.0,6.0,2.0,1.0,5.0,5.0,319.6302859996649,5.0,0.0,part_2,stop,550.0,500.0,3.0,,,,,,,,,gray,square
0.0,8.0,4.0,1.0,6.0,6.0,781.8537940001988,5.0,0.0,part_2,go,500.0,500.0,1.0,,,,,,,,,green,flipped triangle
0.0,7.0,3.0,1.0,6.0,6.0,566.4059419996192,5.0,0.0,part_2,go,500.0,500.0,1.0,,,,,,,,,orange,cross
0.0,8.0,4.0,1.0,6.0,6.0,633.4792719999314,5.0,0.0,part_2,stop,500.0,500.0,3.0,,,,,,,,,green,flipped triangle
0.0,4.0,4.0,0.0,6.0,6.0,536.1473700004353,5.0,0.0,part_2,go,500.0,450.0,1.0,,,,,,,,,cyan,hexagon
0.0,6.0,2.0,1.0,6.0,0.0,0.0,5.0,0.0,part_2,stop,500.0,450.0,4.0,,,,,,,,,gray,square
0.0,1.0,1.0,0.0,6.0,6.0,597.6038049993804,5.0,0.0,part_2,go,500.0,500.0,1.0,,,,,,,,,white,triangle
0.0,5.0,1.0,1.0,6.0,6.0,671.0198379996655,5.0,0.0,part_2,go,500.0,500.0,1.0,,,,,,,,,yellow,I
0.0,8.0,4.0,1.0,6.0,6.0,672.7028140003313,5.0,0.0,part_2,go,500.0,500.0,1.0,,,,,,,,,green,flipped triangle
0.0,3.0,3.0,0.0,6.0,6.0,622.6735559994268,5.0,0.0,part_2,go,500.0,500.0,1.0,,,,,,,,,magenta,diamond
0.0,5.0,1.0,1.0,6.0,0.0,0.0,5.0,0.0,part_2,stop,500.0,500.0,4.0,,,,,,,,,yellow,I
0.0,3.0,3.0,0.0,5.0,5.0,617.1197639996535,6.0,0.0,part_2,go,500.0,550.0,1.0,,,,,,,,,magenta,diamond
0.0,2.0,2.0,0.0,6.0,6.0,780.9087510004247,6.0,0.0,part_2,go,500.0,550.0,1.0,,,,,,,,,blue,circle
0.0,1.0,1.0,0.0,6.0,6.0,648.5570209997604,6.0,0.0,part_2,go,500.0,550.0,1.0,,,,,,,,,white,triangle
0.0,1.0,1.0,0.0,5.0,5.0,587.2643419997985,6.0,0.0,part_2,go,500.0,550.0,1.0,,,,,,,,,white,triangle
0.0,3.0,3.0,0.0,5.0,5.0,545.5499220006459,6.0,0.0,part_2,go,500.0,550.0,1.0,,,,,,,,,magenta,diamond
0.0,4.0,4.0,0.0,5.0,5.0,363.0562810003539,6.0,0.0,part_2,go,500.0,550.0,1.0,,,,,,,,,cyan,hexagon
0.0,8.0,4.0,1.0,5.0,5.0,538.3321760000399,6.0,0.0,part_2,stop,500.0,550.0,3.0,,,,,,,,,green,flipped triangle
0.0,3.0,3.0,0.0,6.0,6.0,694.143929999882,6.0,0.0,part_2,go,450.0,550.0,1.0,,,,,,,,,magenta,diamond
0.0,7.0,3.0,1.0,5.0,0.0,0.0,6.0,0.0,part_2,stop,450.0,550.0,4.0,,,,,,,,,orange,cross
0.0,7.0,3.0,1.0,5.0,5.0,617.3282170002494,6.0,0.0,part_2,stop,500.0,550.0,3.0,,,,,,,,,orange,cross
0.0,4.0,4.0,0.0,5.0,5.0,875.1407159998053,6.0,0.0,part_2,go,450.0,550.0,1.0,,,,,,,,,cyan,hexagon
0.0,5.0,1.0,1.0,6.0,6.0,674.4912860003751,6.0,0.0,part_2,stop,450.0,550.0,3.0,,,,,,,,,yellow,I
0.0,5.0,1.0,1.0,6.0,6.0,869.0354600003047,6.0,0.0,part_2,go,450.0,500.0,1.0,,,,,,,,,yellow,I
0.0,7.0,3.0,1.0,5.0,5.0,677.8322749996732,6.0,0.0,part_2,go,450.0,500.0,1.0,,,,,,,,,orange,cross
0.0,6.0,2.0,1.0,6.0,6.0,678.7769920001665,6.0,0.0,part_2,go,450.0,500.0,1.0,,,,,,,,,gray,square
0.0,3.0,3.0,0.0,6.0,6.0,677.8251210007511,6.0,0.0,part_2,go,450.0,500.0,1.0,,,,,,,,,magenta,diamond
0.0,2.0,2.0,0.0,6.0,6.0,732.0437369999127,6.0,0.0,part_2,go,450.0,500.0,1.0,,,,,,,,,blue,circle
0.0,5.0,1.0,1.0,6.0,6.0,669.6660919997157,6.0,0.0,part_2,stop,450.0,500.0,3.0,,,,,,,,,yellow,I
0.0,3.0,3.0,0.0,5.0,5.0,566.3252969998211,6.0,0.0,part_2,go,450.0,450.0,1.0,,,,,,,,,magenta,diamond
0.0,5.0,1.0,1.0,6.0,0.0,0.0,6.0,0.0,part_2,stop,450.0,450.0,4.0,,,,,,,,,yellow,I
0.0,2.0,2.0,0.0,6.0,6.0,729.3469779997395,6.0,0.0,part_2,go,450.0,500.0,1.0,,,,,,,,,blue,circle
0.0,3.0,3.0,0.0,5.0,5.0,667.611322999619,6.0,0.0,part_2,go,450.0,500.0,1.0,,,,,,,,,magenta,diamond
0.0,4.0,4.0,0.0,6.0,6.0,690.3075830005037,6.0,0.0,part_2,go,450.0,500.0,1.0,,,,,,,,,cyan,hexagon
0.0,6.0,2.0,1.0,5.0,5.0,708.8692610004728,6.0,0.0,part_2,go,450.0,500.0,1.0,,,,,,,,,gray,square
0.0,6.0,2.0,1.0,6.0,6.0,536.4166469998963,6.0,0.0,part_2,stop,450.0,500.0,3.0,,,,,,,,,gray,square
0.0,4.0,4.0,0.0,6.0,6.0,717.8200529997412,6.0,0.0,part_2,go,450.0,450.0,1.0,,,,,,,,,cyan,hexagon
0.0,4.0,4.0,0.0,6.0,6.0,724.9719809997259,6.0,0.0,part_2,go,450.0,450.0,1.0,,,,,,,,,cyan,hexagon
0.0,8.0,4.0,1.0,5.0,0.0,0.0,6.0,0.0,part_2,stop,450.0,450.0,4.0,,,,,,,,,green,flipped triangle
0.0,5.0,1.0,1.0,5.0,0.0,0.0,6.0,0.0,part_2,stop,500.0,450.0,4.0,,,,,,,,,yellow,I
0.0,1.0,1.0,0.0,6.0,6.0,882.8259439997055,6.0,0.0,part_2,go,550.0,450.0,1.0,,,,,,,,,white,triangle
0.0,7.0,3.0,1.0,5.0,0.0,0.0,6.0,0.0,part_2,stop,550.0,450.0,4.0,,,,,,,,,orange,cross
0.0,7.0,3.0,1.0,6.0,0.0,0.0,6.0,0.0,part_2,stop,600.0,450.0,4.0,,,,,,,,,orange,cross
0.0,1.0,1.0,0.0,6.0,6.0,845.9105790007015,6.0,0.0,part_2,go,600.0,500.0,1.0,,,,,,,,,white,triangle
0.0,7.0,3.0,1.0,6.0,0.0,0.0,6.0,0.0,part_2,stop,600.0,500.0,4.0,,,,,,,,,orange,cross
0.0,7.0,3.0,1.0,6.0,6.0,623.4858440002427,6.0,0.0,part_2,go,600.0,550.0,1.0,,,,,,,,,orange,cross
0.0,4.0,4.0,0.0,6.0,6.0,744.1516070002763,6.0,0.0,part_2,go,600.0,550.0,1.0,,,,,,,,,cyan,hexagon
0.0,2.0,2.0,0.0,6.0,6.0,720.128764999572,7.0,0.0,part_2,go,600.0,550.0,1.0,,,,,,,,,blue,circle
0.0,7.0,3.0,1.0,6.0,6.0,691.5193280001404,7.0,0.0,part_2,stop,600.0,550.0,3.0,,,,,,,,,orange,cross
0.0,6.0,2.0,1.0,6.0,6.0,855.7388230001379,7.0,0.0,part_2,go,600.0,500.0,1.0,,,,,,,,,gray,square
0.0,8.0,4.0,1.0,6.0,0.0,0.0,7.0,0.0,part_2,stop,600.0,500.0,4.0,,,,,,,,,green,flipped triangle
0.0,2.0,2.0,0.0,5.0,5.0,804.3450479999592,7.0,0.0,part_2,go,600.0,550.0,1.0,,,,,,,,,blue,circle
0.0,7.0,3.0,1.0,6.0,0.0,0.0,7.0,0.0,part_2,stop,600.0,550.0,4.0,,,,,,,,,orange,cross
0.0,8.0,4.0,1.0,5.0,5.0,673.9624729998468,7.0,0.0,part_2,stop,600.0,600.0,3.0,,,,,,,,,green,flipped triangle
0.0,2.0,2.0,0.0,5.0,5.0,1108.5827649994826,7.0,0.0,part_2,go,550.0,600.0,1.0,,,,,,,,,blue,circle
0.0,3.0,3.0,0.0,6.0,6.0,908.5573430002114,7.0,0.0,part_2,go,550.0,600.0,1.0,,,,,,,,,magenta,diamond
0.0,5.0,1.0,1.0,5.0,5.0,621.8782810001358,7.0,0.0,part_2,stop,550.0,600.0,3.0,,,,,,,,,yellow,I
0.0,6.0,2.0,1.0,6.0,0.0,0.0,7.0,0.0,part_2,stop,500.0,600.0,4.0,,,,,,,,,gray,square
0.0,4.0,4.0,0.0,5.0,5.0,794.1468370008806,7.0,0.0,part_2,go,500.0,650.0,1.0,,,,,,,,,cyan,hexagon
0.0,7.0,3.0,1.0,5.0,0.0,0.0,7.0,0.0,part_2,stop,500.0,650.0,4.0,,,,,,,,,orange,cross
0.0,7.0,3.0,1.0,5.0,0.0,0.0,7.0,0.0,part_2,stop,550.0,650.0,4.0,,,,,,,,,orange,cross
0.0,2.0,2.0,0.0,5.0,5.0,912.7044890001343,7.0,0.0,part_2,go,600.0,650.0,1.0,,,,,,,,,blue,circle
0.0,4.0,4.0,0.0,6.0,6.0,725.0679230000969,7.0,0.0,part_2,go,600.0,650.0,1.0,,,,,,,,,cyan,hexagon
0.0,5.0,1.0,1.0,6.0,6.0,815.6451580007342,7.0,0.0,part_2,stop,600.0,650.0,3.0,,,,,,,,,yellow,I
0.0,4.0,4.0,0.0,6.0,6.0,773.1695080001373,7.0,0.0,part_2,go,600.0,600.0,1.0,,,,,,,,,cyan,hexagon
0.0,4.0,4.0,0.0,5.0,5.0,725.069774000076,7.0,0.0,part_2,go,600.0,600.0,1.0,,,,,,,,,cyan,hexagon
0.0,3.0,3.0,0.0,5.0,5.0,626.6876229992704,7.0,0.0,part_2,go,600.0,600.0,1.0,,,,,,,,,magenta,diamond
0.0,8.0,4.0,1.0,6.0,6.0,739.1100499999084,7.0,0.0,part_2,go,600.0,600.0,1.0,,,,,,,,,green,flipped triangle
0.0,7.0,3.0,1.0,5.0,5.0,754.3099940003231,7.0,0.0,part_2,stop,600.0,600.0,3.0,,,,,,,,,orange,cross
0.0,3.0,3.0,0.0,5.0,5.0,741.5745139996943,7.0,0.0,part_2,go,550.0,600.0,1.0,,,,,,,,,magenta,diamond
0.0,2.0,2.0,0.0,6.0,6.0,837.6974189995963,7.0,0.0,part_2,go,550.0,600.0,1.0,,,,,,,,,blue,circle
0.0,8.0,4.0,1.0,5.0,5.0,767.7814239996223,7.0,0.0,part_2,go,550.0,600.0,1.0,,,,,,,,,green,flipped triangle
0.0,8.0,4.0,1.0,5.0,5.0,675.4663799993068,7.0,0.0,part_2,stop,550.0,600.0,3.0,,,,,,,,,green,flipped triangle
0.0,6.0,2.0,1.0,5.0,0.0,0.0,7.0,0.0,part_2,stop,500.0,600.0,4.0,,,,,,,,,gray,square
0.0,1.0,1.0,0.0,5.0,5.0,826.8943570001284,7.0,0.0,part_2,go,550.0,600.0,1.0,,,,,,,,,white,triangle
0.0,2.0,2.0,0.0,6.0,6.0,643.8242120002542,7.0,0.0,part_2,go,550.0,600.0,1.0,,,,,,,,,blue,circle
0.0,8.0,4.0,1.0,5.0,0.0,0.0,7.0,0.0,part_2,stop,550.0,600.0,4.0,,,,,,,,,green,flipped triangle
0.0,8.0,4.0,1.0,6.0,6.0,708.2957900001929,7.0,0.0,part_2,stop,600.0,600.0,3.0,,,,,,,,,green,flipped triangle
0.0,2.0,2.0,0.0,6.0,6.0,756.4030119992822,7.0,0.0,part_2,go,600.0,550.0,1.0,,,,,,,,,blue,circle
0.0,8.0,4.0,1.0,5.0,0.0,0.0,7.0,0.0,part_2,stop,600.0,550.0,4.0,,,,,,,,,green,flipped triangle
0.0,3.0,3.0,0.0,5.0,5.0,720.3787580001517,7.0,0.0,part_2,go,650.0,550.0,1.0,,,,,,,,,magenta,diamond
0.0,2.0,2.0,0.0,5.0,5.0,797.5327590002053,7.0,0.0,part_2,go,650.0,550.0,1.0,,,,,,,,,blue,circle
0.0,6.0,2.0,1.0,6.0,0.0,0.0,7.0,0.0,part_2,stop,650.0,550.0,4.0,,,,,,,,,gray,square
0.0,8.0,4.0,1.0,6.0,6.0,499.3302359998779,8.0,0.0,part_2,stop,650.0,600.0,3.0,,,,,,,,,green,flipped triangle
0.0,1.0,1.0,0.0,5.0,5.0,574.2556060004063,8.0,0.0,part_2,go,650.0,550.0,1.0,,,,,,,,,white,triangle
0.0,5.0,1.0,1.0,5.0,5.0,643.6430650001057,8.0,0.0,part_2,go,650.0,550.0,1.0,,,,,,,,,yellow,I
0.0,5.0,1.0,1.0,5.0,5.0,627.7396270006648,8.0,0.0,part_2,stop,650.0,550.0,3.0,,,,,,,,,yellow,I
0.0,5.0,1.0,1.0,5.0,5.0,738.7827969996579,8.0,0.0,part_2,stop,600.0,550.0,3.0,,,,,,,,,yellow,I
0.0,1.0,1.0,0.0,5.0,5.0,645.1966330005234,8.0,0.0,part_2,go,550.0,550.0,1.0,,,,,,,,,white,triangle
0.0,2.0,2.0,0.0,6.0,6.0,618.5863430000609,8.0,0.0,part_2,go,550.0,550.0,1.0,,,,,,,,,blue,circle
0.0,3.0,3.0,0.0,6.0,6.0,753.4083119999195,8.0,0.0,part_2,go,550.0,550.0,1.0,,,,,,,,,magenta,diamond
0.0,3.0,3.0,0.0,6.0,6.0,664.3048739997539,8.0,0.0,part_2,go,550.0,550.0,1.0,,,,,,,,,magenta,diamond
0.0,1.0,1.0,0.0,5.0,5.0,597.2938429995338,8.0,0.0,part_2,go,550.0,550.0,1.0,,,,,,,,,white,triangle
0.0,3.0,3.0,0.0,5.0,5.0,644.5070919999125,8.0,0.0,part_2,go,550.0,550.0,1.0,,,,,,,,,magenta,diamond
0.0,5.0,1.0,1.0,6.0,6.0,764.973270000155,8.0,0.0,part_2,stop,550.0,550.0,3.0,,,,,,,,,yellow,I
0.0,3.0,3.0,0.0,6.0,6.0,684.9006490001557,8.0,0.0,part_2,go,550.0,500.0,1.0,,,,,,,,,magenta,diamond
0.0,7.0,3.0,1.0,5.0,0.0,0.0,8.0,0.0,part_2,stop,550.0,500.0,4.0,,,,,,,,,orange,cross
0.0,3.0,3.0,0.0,6.0,6.0,746.3297009999224,8.0,0.0,part_2,go,600.0,500.0,1.0,,,,,,,,,magenta,diamond
0.0,5.0,1.0,1.0,6.0,0.0,0.0,8.0,0.0,part_2,stop,600.0,500.0,4.0,,,,,,,,,yellow,I
0.0,8.0,4.0,1.0,6.0,0.0,0.0,8.0,0.0,part_2,stop,600.0,550.0,4.0,,,,,,,,,green,flipped triangle
0.0,4.0,4.0,0.0,5.0,5.0,746.1904389992924,8.0,0.0,part_2,go,600.0,600.0,1.0,,,,,,,,,cyan,hexagon
0.0,6.0,2.0,1.0,5.0,5.0,873.5164059999079,8.0,0.0,part_2,go,600.0,600.0,1.0,,,,,,,,,gray,square
0.0,1.0,1.0,0.0,5.0,5.0,645.0520349999351,8.0,0.0,part_2,go,600.0,600.0,1.0,,,,,,,,,white,triangle
0.0,2.0,2.0,0.0,5.0,5.0,395.8659179997994,8.0,0.0,part_2,go,600.0,600.0,1.0,,,,,,,,,blue,circle
0.0,4.0,4.0,0.0,6.0,6.0,391.7822439998417,8.0,0.0,part_2,go,600.0,600.0,1.0,,,,,,,,,cyan,hexagon
0.0,1.0,1.0,0.0,5.0,5.0,693.2647429994176,8.0,0.0,part_2,go,600.0,600.0,1.0,,,,,,,,,white,triangle
0.0,3.0,3.0,0.0,6.0,6.0,795.5962300002284,8.0,0.0,part_2,go,600.0,600.0,1.0,,,,,,,,,magenta,diamond
0.0,6.0,2.0,1.0,6.0,6.0,635.6161150006301,8.0,0.0,part_2,stop,600.0,600.0,3.0,,,,,,,,,gray,square
0.0,3.0,3.0,0.0,6.0,6.0,669.2381139991994,8.0,0.0,part_2,go,600.0,550.0,1.0,,,,,,,,,magenta,diamond
0.0,1.0,1.0,0.0,5.0,5.0,682.4928099995304,8.0,0.0,part_2,go,600.0,550.0,1.0,,,,,,,,,white,triangle
0.0,7.0,3.0,1.0,5.0,5.0,690.1640919995771,8.0,0.0,part_2,stop,600.0,550.0,3.0,,,,,,,,,orange,cross
0.0,2.0,2.0,0.0,5.0,5.0,656.3101619994995,8.0,0.0,part_2,go,550.0,550.0,1.0,,,,,,,,,blue,circle
0.0,8.0,4.0,1.0,5.0,0.0,0.0,8.0,0.0,part_2,stop,550.0,550.0,4.0,,,,,,,,,green,flipped triangle
0.0,6.0,2.0,1.0,5.0,0.0,0.0,8.0,0.0,part_2,stop,600.0,550.0,4.0,,,,,,,,,gray,square
0.0,6.0,2.0,1.0,5.0,5.0,942.1664000001329,8.0,0.0,part_2,go,650.0,550.0,1.0,,,,,,,,,gray,square
0.0,4.0,4.0,0.0,5.0,5.0,850.9580549998645,8.0,0.0,part_2,go,650.0,550.0,1.0,,,,,,,,,cyan,hexagon
0.0,1.0,1.0,0.0,6.0,6.0,739.171475999683,8.0,0.0,part_2,go,650.0,550.0,1.0,,,,,,,,,white,triangle
0.0,3.0,3.0,0.0,5.0,5.0,784.5869009997841,8.0,0.0,part_2,go,650.0,550.0,1.0,,,,,,,,,magenta,diamond
0.0,1.0,1.0,0.0,5.0,5.0,643.0285810001806,8.0,0.0,part_2,go,650.0,550.0,1.0,,,,,,,,,white,triangle
0.0,2.0,2.0,0.0,7.0,2.0,4217.784287000541,1.0,1.0,part_3,go,0.0,0.0,0.0,220.0,5.0,264.0,220.0,44.0,132.0,88.0,176.0,blue,circle
0.0,3.0,3.0,0.0,7.0,3.0,3280.0532580004074,1.0,1.0,part_3,go,0.0,0.0,0.0,78.0,2.0,39.0,156.0,78.0,117.0,234.0,195.0,magenta,diamond
0.0,7.0,3.0,1.0,7.0,4.0,1776.2955170001078,1.0,1.0,part_3,go,0.0,0.0,0.0,294.0,6.0,147.0,49.0,245.0,294.0,196.0,98.0,orange,cross
0.0,5.0,1.0,1.0,7.0,3.0,2740.015117000439,1.0,1.0,part_3,go,0.0,0.0,0.0,245.0,5.0,49.0,196.0,245.0,98.0,294.0,147.0,yellow,I
0.0,1.0,1.0,0.0,7.0,3.0,2596.5093899994827,1.0,1.0,part_3,go,0.0,0.0,0.0,49.0,1.0,147.0,98.0,49.0,294.0,245.0,196.0,white,triangle
0.0,7.0,3.0,1.0,7.0,6.0,2968.2204149994504,1.0,1.0,part_3,go,0.0,0.0,0.0,195.0,5.0,117.0,156.0,39.0,234.0,78.0,195.0,orange,cross
0.0,3.0,3.0,0.0,7.0,4.0,4030.289967000499,1.0,1.0,part_3,go,0.0,0.0,0.0,108.0,2.0,324.0,54.0,216.0,108.0,270.0,162.0,magenta,diamond
0.0,4.0,4.0,0.0,7.0,5.0,2182.552627999939,1.0,1.0,part_3,go,0.0,0.0,0.0,216.0,4.0,54.0,108.0,324.0,162.0,216.0,270.0,cyan,hexagon
0.0,2.0,2.0,0.0,7.0,3.0,1220.345754999471,1.0,1.0,part_3,go,0.0,0.0,0.0,54.0,1.0,270.0,216.0,54.0,162.0,108.0,324.0,blue,circle
0.0,4.0,4.0,0.0,7.0,5.0,1224.02779299955,1.0,1.0,part_3,go,0.0,0.0,0.0,204.0,6.0,170.0,102.0,136.0,34.0,204.0,68.0,cyan,hexagon
0.0,3.0,3.0,0.0,7.0,2.0,1631.6216089999216,1.0,1.0,part_3,go,0.0,0.0,0.0,136.0,4.0,170.0,136.0,34.0,204.0,102.0,68.0,magenta,diamond
0.0,8.0,4.0,1.0,7.0,6.0,4142.6097230005325,1.0,1.0,part_3,go,0.0,0.0,0.0,34.0,1.0,136.0,204.0,102.0,68.0,170.0,34.0,green,flipped triangle
0.0,8.0,4.0,1.0,7.0,2.0,1755.0116769998567,1.0,1.0,part_3,go,0.0,0.0,0.0,34.0,1.0,204.0,34.0,170.0,136.0,68.0,102.0,green,flipped triangle
0.0,1.0,1.0,0.0,7.0,1.0,1561.809350000658,1.0,1.0,part_3,go,0.0,0.0,0.0,54.0,1.0,54.0,216.0,108.0,162.0,270.0,324.0,white,triangle
0.0,5.0,1.0,1.0,7.0,3.0,1790.5292750001536,1.0,1.0,part_3,go,0.0,0.0,0.0,220.0,5.0,88.0,264.0,220.0,132.0,176.0,44.0,yellow,I
0.0,5.0,1.0,1.0,7.0,4.0,2138.146762999895,1.0,1.0,part_3,go,0.0,0.0,0.0,234.0,6.0,78.0,195.0,39.0,234.0,156.0,117.0,yellow,I
0.0,4.0,4.0,0.0,7.0,2.0,2021.1141160007173,1.0,1.0,part_3,go,0.0,0.0,0.0,245.0,5.0,196.0,245.0,98.0,147.0,49.0,294.0,cyan,hexagon
0.0,3.0,3.0,0.0,7.0,4.0,1603.1959000001734,1.0,1.0,part_3,go,0.0,0.0,0.0,68.0,2.0,170.0,136.0,102.0,68.0,34.0,204.0,magenta,diamond
0.0,7.0,3.0,1.0,7.0,6.0,2742.786827999226,1.0,1.0,part_3,go,0.0,0.0,0.0,204.0,6.0,102.0,68.0,170.0,136.0,34.0,204.0,orange,cross
0.0,8.0,4.0,1.0,7.0,4.0,1109.3212569994648,1.0,1.0,part_3,go,0.0,0.0,0.0,49.0,1.0,245.0,147.0,294.0,49.0,98.0,196.0,green,flipped triangle
0.0,2.0,2.0,0.0,7.0,1.0,1558.5382529998242,2.0,1.0,part_3,go,0.0,0.0,0.0,44.0,1.0,44.0,88.0,264.0,220.0,176.0,132.0,blue,circle
0.0,1.0,1.0,0.0,7.0,5.0,2865.898197000206,2.0,1.0,part_3,go,0.0,0.0,0.0,39.0,1.0,195.0,234.0,117.0,78.0,39.0,156.0,white,triangle
0.0,6.0,2.0,1.0,7.0,5.0,2391.428786999313,2.0,1.0,part_3,go,0.0,0.0,0.0,98.0,2.0,147.0,294.0,49.0,196.0,98.0,245.0,gray,square
0.0,2.0,2.0,0.0,7.0,4.0,1563.9878739993949,2.0,1.0,part_3,go,0.0,0.0,0.0,39.0,1.0,156.0,234.0,195.0,39.0,117.0,78.0,blue,circle
0.0,1.0,1.0,0.0,7.0,6.0,2911.0182799995528,2.0,1.0,part_3,go,0.0,0.0,0.0,88.0,2.0,132.0,264.0,176.0,44.0,220.0,88.0,white,triangle
0.0,3.0,3.0,0.0,7.0,4.0,3891.1262949995944,2.0,1.0,part_3,go,0.0,0.0,0.0,147.0,3.0,98.0,245.0,196.0,147.0,294.0,49.0,magenta,diamond
0.0,3.0,3.0,0.0,7.0,4.0,2711.4737160000004,2.0,1.0,part_3,go,0.0,0.0,0.0,156.0,4.0,195.0,117.0,39.0,156.0,234.0,78.0,magenta,diamond
0.0,6.0,2.0,1.0,7.0,6.0,2139.6362219993534,2.0,1.0,part_3,go,0.0,0.0,0.0,136.0,4.0,170.0,102.0,204.0,68.0,34.0,136.0,gray,square
0.0,1.0,1.0,0.0,7.0,3.0,2012.2762450000664,2.0,1.0,part_3,go,0.0,0.0,0.0,68.0,2.0,136.0,170.0,68.0,102.0,204.0,34.0,white,triangle
0.0,6.0,2.0,1.0,7.0,3.0,3816.989893000027,2.0,1.0,part_3,go,0.0,0.0,0.0,162.0,3.0,270.0,108.0,162.0,324.0,54.0,216.0,gray,square
0.0,2.0,2.0,0.0,7.0,5.0,2891.9374590004736,2.0,1.0,part_3,go,0.0,0.0,0.0,54.0,1.0,216.0,162.0,324.0,270.0,54.0,108.0,blue,circle
0.0,3.0,3.0,0.0,7.0,3.0,1536.978230999921,2.0,1.0,part_3,go,0.0,0.0,0.0,264.0,6.0,88.0,220.0,264.0,44.0,176.0,132.0,magenta,diamond
0.0,4.0,4.0,0.0,7.0,5.0,1525.6371920004312,2.0,1.0,part_3,go,0.0,0.0,0.0,264.0,6.0,176.0,220.0,88.0,132.0,264.0,44.0,cyan,hexagon
0.0,4.0,4.0,0.0,7.0,5.0,1746.3963740001418,2.0,1.0,part_3,go,0.0,0.0,0.0,234.0,6.0,195.0,156.0,117.0,78.0,234.0,39.0,cyan,hexagon
0.0,8.0,4.0,1.0,7.0,4.0,3038.2202540004073,2.0,1.0,part_3,go,0.0,0.0,0.0,54.0,1.0,108.0,216.0,270.0,54.0,162.0,324.0,green,flipped triangle
0.0,7.0,3.0,1.0,7.0,5.0,2517.9812900005345,2.0,1.0,part_3,go,0.0,0.0,0.0,196.0,4.0,49.0,245.0,98.0,294.0,196.0,147.0,orange,cross
0.0,1.0,1.0,0.0,7.0,6.0,2535.9176019992447,2.0,1.0,part_3,go,0.0,0.0,0.0,54.0,1.0,324.0,162.0,108.0,270.0,216.0,54.0,white,triangle
0.0,5.0,1.0,1.0,7.0,4.0,1797.2072530001242,2.0,1.0,part_3,go,0.0,0.0,0.0,196.0,4.0,49.0,245.0,294.0,196.0,98.0,147.0,yellow,I
0.0,5.0,1.0,1.0,7.0,3.0,2520.5209149999064,2.0,1.0,part_3,go,0.0,0.0,0.0,216.0,4.0,108.0,54.0,216.0,162.0,324.0,270.0,yellow,I
0.0,7.0,3.0,1.0,7.0,3.0,2547.0161079992977,2.0,1.0,part_3,go,0.0,0.0,0.0,220.0,5.0,132.0,88.0,220.0,44.0,176.0,264.0,orange,cross
0.0,6.0,2.0,1.0,7.0,4.0,1818.34867499947,3.0,1.0,part_3,go,0.0,0.0,0.0,88.0,2.0,176.0,264.0,44.0,88.0,132.0,220.0,gray,square
0.0,5.0,1.0,1.0,7.0,2.0,3309.479517,3.0,1.0,part_3,go,0.0,0.0,0.0,117.0,3.0,156.0,117.0,78.0,195.0,234.0,39.0,yellow,I
0.0,5.0,1.0,1.0,7.0,2.0,2227.407504000439,3.0,1.0,part_3,go,0.0,0.0,0.0,102.0,3.0,136.0,102.0,34.0,204.0,170.0,68.0,yellow,I
0.0,8.0,4.0,1.0,7.0,6.0,1841.4766540008711,3.0,1.0,part_3,go,0.0,0.0,0.0,49.0,1.0,294.0,98.0,147.0,245.0,196.0,49.0,green,flipped triangle
0.0,4.0,4.0,0.0,7.0,4.0,1043.373880999752,3.0,1.0,part_3,go,0.0,0.0,0.0,220.0,5.0,264.0,132.0,176.0,220.0,88.0,44.0,cyan,hexagon
0.0,4.0,4.0,0.0,7.0,5.0,1450.7973730005688,3.0,1.0,part_3,go,0.0,0.0,0.0,245.0,5.0,98.0,49.0,294.0,147.0,245.0,196.0,cyan,hexagon
0.0,5.0,1.0,1.0,7.0,3.0,2020.288564999646,3.0,1.0,part_3,go,0.0,0.0,0.0,132.0,3.0,264.0,176.0,132.0,88.0,220.0,44.0,yellow,I
0.0,2.0,2.0,0.0,7.0,3.0,1205.898533000436,3.0,1.0,part_3,go,0.0,0.0,0.0,34.0,1.0,170.0,204.0,34.0,68.0,102.0,136.0,blue,circle
0.0,6.0,2.0,1.0,7.0,4.0,3159.4845509998777,3.0,1.0,part_3,go,0.0,0.0,0.0,68.0,2.0,136.0,102.0,170.0,68.0,204.0,34.0,gray,square
0.0,6.0,2.0,1.0,7.0,2.0,1481.3735139996425,3.0,1.0,part_3,go,0.0,0.0,0.0,78.0,2.0,117.0,78.0,234.0,195.0,156.0,39.0,gray,square
0.0,2.0,2.0,0.0,7.0,5.0,922.0565810001062,3.0,1.0,part_3,go,0.0,0.0,0.0,34.0,1.0,136.0,170.0,68.0,102.0,34.0,204.0,blue,circle
0.0,6.0,2.0,1.0,7.0,4.0,1506.3501410004392,3.0,1.0,part_3,go,0.0,0.0,0.0,54.0,1.0,162.0,270.0,216.0,54.0,108.0,324.0,gray,square
0.0,1.0,1.0,0.0,7.0,5.0,1576.433356999587,3.0,1.0,part_3,go,0.0,0.0,0.0,39.0,1.0,195.0,117.0,78.0,234.0,39.0,156.0,white,triangle
0.0,1.0,1.0,0.0,7.0,6.0,1738.1481630000053,3.0,1.0,part_3,go,0.0,0.0,0.0,98.0,2.0,147.0,196.0,245.0,294.0,49.0,98.0,white,triangle
0.0,8.0,4.0,1.0,7.0,2.0,1840.8365999994205,3.0,1.0,part_3,go,0.0,0.0,0.0,78.0,2.0,156.0,78.0,234.0,195.0,117.0,39.0,green,flipped triangle
0.0,2.0,2.0,0.0,7.0,1.0,1502.8100609997637,3.0,1.0,part_3,go,0.0,0.0,0.0,49.0,1.0,49.0,245.0,196.0,294.0,147.0,98.0,blue,circle
0.0,7.0,3.0,1.0,7.0,2.0,2631.1475989996325,3.0,1.0,part_3,go,0.0,0.0,0.0,216.0,4.0,324.0,216.0,108.0,270.0,162.0,54.0,orange,cross
0.0,4.0,4.0,0.0,7.0,4.0,4075.1306320007643,3.0,1.0,part_3,go,0.0,0.0,0.0,195.0,5.0,78.0,117.0,39.0,195.0,156.0,234.0,cyan,hexagon
0.0,3.0,3.0,0.0,7.0,5.0,2221.3073049997547,3.0,1.0,part_3,go,0.0,0.0,0.0,270.0,5.0,216.0,54.0,108.0,324.0,270.0,162.0,magenta,diamond
0.0,6.0,2.0,1.0,7.0,5.0,1437.0394140005374,3.0,1.0,part_3,go,0.0,0.0,0.0,78.0,2.0,117.0,195.0,234.0,39.0,78.0,156.0,gray,square
0.0,4.0,4.0,0.0,7.0,4.0,1595.4615969994848,4.0,1.0,part_3,go,0.0,0.0,0.0,136.0,4.0,102.0,204.0,170.0,136.0,68.0,34.0,cyan,hexagon
0.0,8.0,4.0,1.0,7.0,6.0,3863.804919999893,4.0,1.0,part_3,go,0.0,0.0,0.0,88.0,2.0,220.0,176.0,132.0,44.0,264.0,88.0,green,flipped triangle
0.0,5.0,1.0,1.0,7.0,3.0,1456.0817419996963,4.0,1.0,part_3,go,0.0,0.0,0.0,170.0,5.0,136.0,34.0,170.0,68.0,204.0,102.0,yellow,I
0.0,8.0,4.0,1.0,7.0,3.0,1859.8091599997133,4.0,1.0,part_3,go,0.0,0.0,0.0,88.0,2.0,264.0,220.0,88.0,132.0,176.0,44.0,green,flipped triangle
0.0,1.0,1.0,0.0,7.0,4.0,1338.1238889996894,4.0,1.0,part_3,go,0.0,0.0,0.0,88.0,2.0,220.0,132.0,176.0,88.0,264.0,44.0,white,triangle
0.0,6.0,2.0,1.0,7.0,3.0,2428.589517999171,4.0,1.0,part_3,go,0.0,0.0,0.0,88.0,2.0,220.0,44.0,88.0,132.0,264.0,176.0,gray,square
0.0,8.0,4.0,1.0,7.0,5.0,2797.28621599952,4.0,1.0,part_3,go,0.0,0.0,0.0,108.0,2.0,216.0,162.0,54.0,270.0,108.0,324.0,green,flipped triangle
0.0,2.0,2.0,0.0,7.0,1.0,1467.1167989999958,4.0,1.0,part_3,go,0.0,0.0,0.0,49.0,1.0,49.0,98.0,294.0,245.0,196.0,147.0,blue,circle
0.0,3.0,3.0,0.0,7.0,4.0,1466.4992190000703,4.0,1.0,part_3,go,0.0,0.0,0.0,294.0,6.0,49.0,196.0,98.0,294.0,245.0,147.0,magenta,diamond
0.0,5.0,1.0,1.0,7.0,4.0,2705.6999909991646,4.0,1.0,part_3,go,0.0,0.0,0.0,108.0,2.0,216.0,162.0,54.0,108.0,324.0,270.0,yellow,I
0.0,1.0,1.0,0.0,7.0,1.0,2528.347297000437,4.0,1.0,part_3,go,0.0,0.0,0.0,68.0,2.0,68.0,136.0,102.0,204.0,170.0,34.0,white,triangle
0.0,8.0,4.0,1.0,7.0,1.0,1915.8058379998693,4.0,1.0,part_3,go,0.0,0.0,0.0,78.0,2.0,78.0,117.0,156.0,195.0,39.0,234.0,green,flipped triangle
0.0,3.0,3.0,0.0,7.0,3.0,2002.8867589999209,4.0,1.0,part_3,go,0.0,0.0,0.0,264.0,6.0,176.0,132.0,264.0,88.0,44.0,220.0,magenta,diamond
0.0,6.0,2.0,1.0,7.0,4.0,1258.1470539998918,4.0,1.0,part_3,go,0.0,0.0,0.0,98.0,2.0,294.0,245.0,49.0,98.0,196.0,147.0,gray,square
0.0,7.0,3.0,1.0,7.0,3.0,1711.0058349999235,4.0,1.0,part_3,go,0.0,0.0,0.0,220.0,5.0,132.0,44.0,220.0,264.0,176.0,88.0,orange,cross
0.0,7.0,3.0,1.0,7.0,3.0,1335.6376780002392,4.0,1.0,part_3,go,0.0,0.0,0.0,234.0,6.0,195.0,39.0,234.0,117.0,78.0,156.0,orange,cross
0.0,2.0,2.0,0.0,7.0,1.0,1321.2757319997763,4.0,1.0,part_3,go,0.0,0.0,0.0,39.0,1.0,39.0,78.0,195.0,117.0,156.0,234.0,blue,circle
0.0,7.0,3.0,1.0,7.0,2.0,2664.1185449998375,4.0,1.0,part_3,go,0.0,0.0,0.0,216.0,4.0,54.0,216.0,270.0,324.0,162.0,108.0,orange,cross
0.0,4.0,4.0,0.0,7.0,5.0,2926.3462520002577,4.0,1.0,part_3,go,0.0,0.0,0.0,270.0,5.0,108.0,216.0,324.0,54.0,270.0,162.0,cyan,hexagon
0.0,7.0,3.0,1.0,7.0,5.0,1483.8354519997663,4.0,1.0,part_3,go,0.0,0.0,0.0,204.0,6.0,170.0,102.0,68.0,136.0,204.0,34.0,orange,cross
