raw_reward_magnitude,stim_reward,stepwise_reward_magnitude,paired_with_stopping,stim_location,response,reaction_time,block,num_trial_presentations,which_phase,stop_signal_trial_type,left_SSD,right_SSD,accuracy,chosen_bidding_amount,chosen_bidding_level,possible_bid_1,possible_bid_2,possible_bid_3,possible_bid_4,possible_bid_5,possible_bid_6,color_text,shape_text
44.0,5.0,1.0,1.0,4.0,4.0,388.5555889999068,1.0,1.0,phase_1,,,,,,,,,,,,,white,hexagon
52.0,1.0,1.0,0.0,1.0,1.0,318.5932589999538,1.0,1.0,phase_1,,,,,,,,,,,,,gray,I
178.0,3.0,3.0,0.0,4.0,4.0,296.383397999989,1.0,1.0,phase_1,,,,,,,,,,,,,green,cross
391.0,8.0,4.0,1.0,4.0,4.0,291.3817950000066,1.0,1.0,phase_1,,,,,,,,,,,,,cyan,triangle
0.0,7.0,0.0,1.0,3.0,3.0,323.7620149998292,1.0,1.0,phase_1,,,,,,,,,,,,,blue,flipped triangle
220.0,3.0,3.0,0.0,1.0,1.0,465.5398089998925,1.0,1.0,phase_1,,,,,,,,,,,,,green,cross
218.0,3.0,3.0,0.0,4.0,4.0,286.455923999938,1.0,1.0,phase_1,,,,,,,,,,,,,green,cross
0.0,4.0,0.0,0.0,3.0,3.0,351.0263370001212,1.0,1.0,phase_1,,,,,,,,,,,,,yellow,circle
377.0,8.0,4.0,1.0,3.0,3.0,310.3607420000571,1.0,1.0,phase_1,,,,,,,,,,,,,cyan,triangle
59.0,5.0,1.0,1.0,1.0,1.0,298.2120599999689,1.0,1.0,phase_1,,,,,,,,,,,,,white,hexagon
0.0,8.0,0.0,1.0,1.0,1.0,285.2295600000616,1.0,1.0,phase_1,,,,,,,,,,,,,cyan,triangle
379.0,4.0,4.0,0.0,2.0,2.0,250.5097600001136,1.0,1.0,phase_1,,,,,,,,,,,,,yellow,circle
213.0,3.0,3.0,0.0,2.0,2.0,314.095411000153,1.0,1.0,phase_1,,,,,,,,,,,,,green,cross
425.0,4.0,4.0,0.0,3.0,3.0,299.6298080001907,1.0,1.0,phase_1,,,,,,,,,,,,,yellow,circle
192.0,7.0,3.0,1.0,2.0,2.0,314.5971460000965,1.0,1.0,phase_1,,,,,,,,,,,,,blue,flipped triangle
0.0,7.0,0.0,1.0,1.0,1.0,300.7874029999584,1.0,1.0,phase_1,,,,,,,,,,,,,blue,flipped triangle
0.0,6.0,0.0,1.0,2.0,2.0,262.0951910000713,1.0,1.0,phase_1,,,,,,,,,,,,,magenta,diamond
420.0,4.0,4.0,0.0,3.0,3.0,237.1724669999366,1.0,1.0,phase_1,,,,,,,,,,,,,yellow,circle
0.0,4.0,0.0,0.0,4.0,4.0,260.856768999929,1.0,1.0,phase_1,,,,,,,,,,,,,yellow,circle
89.0,2.0,2.0,0.0,2.0,2.0,252.9586699999981,1.0,1.0,phase_1,,,,,,,,,,,,,orange,square
35.0,5.0,1.0,1.0,1.0,1.0,249.4486999999026,1.0,1.0,phase_1,,,,,,,,,,,,,white,hexagon
420.0,8.0,4.0,1.0,3.0,3.0,275.24406800012,1.0,1.0,phase_1,,,,,,,,,,,,,cyan,triangle
0.0,3.0,0.0,0.0,1.0,1.0,231.4468270001271,1.0,1.0,phase_1,,,,,,,,,,,,,green,cross
0.0,1.0,0.0,0.0,3.0,3.0,296.1016030001246,1.0,1.0,phase_1,,,,,,,,,,,,,gray,I
406.0,4.0,4.0,0.0,4.0,4.0,270.0346340000124,1.0,1.0,phase_1,,,,,,,,,,,,,yellow,circle
0.0,2.0,0.0,0.0,1.0,1.0,268.6723019999135,1.0,1.0,phase_1,,,,,,,,,,,,,orange,square
190.0,3.0,3.0,0.0,2.0,2.0,290.6694729999799,1.0,1.0,phase_1,,,,,,,,,,,,,green,cross
90.0,2.0,2.0,0.0,1.0,1.0,321.0323400001016,1.0,1.0,phase_1,,,,,,,,,,,,,orange,square
100.0,6.0,2.0,1.0,4.0,4.0,266.3092319999123,1.0,1.0,phase_1,,,,,,,,,,,,,magenta,diamond
118.0,2.0,2.0,0.0,4.0,4.0,322.1662910000304,1.0,1.0,phase_1,,,,,,,,,,,,,orange,square
385.0,8.0,4.0,1.0,4.0,4.0,276.3639229999626,1.0,1.0,phase_1,,,,,,,,,,,,,cyan,triangle
206.0,7.0,3.0,1.0,3.0,3.0,319.0732100001696,1.0,1.0,phase_1,,,,,,,,,,,,,blue,flipped triangle
377.0,8.0,4.0,1.0,3.0,3.0,280.3139100001317,1.0,1.0,phase_1,,,,,,,,,,,,,cyan,triangle
90.0,6.0,2.0,1.0,2.0,2.0,317.8826390001177,1.0,1.0,phase_1,,,,,,,,,,,,,magenta,diamond
385.0,8.0,4.0,1.0,4.0,4.0,274.4410689999768,1.0,1.0,phase_1,,,,,,,,,,,,,cyan,triangle
417.0,8.0,4.0,1.0,1.0,1.0,236.0203700000056,1.0,1.0,phase_1,,,,,,,,,,,,,cyan,triangle
0.0,7.0,0.0,1.0,3.0,3.0,226.1486740001146,1.0,1.0,phase_1,,,,,,,,,,,,,blue,flipped triangle
80.0,6.0,2.0,1.0,2.0,2.0,334.3686559999241,1.0,1.0,phase_1,,,,,,,,,,,,,magenta,diamond
35.0,5.0,1.0,1.0,1.0,1.0,252.25574899991437,1.0,1.0,phase_1,,,,,,,,,,,,,white,hexagon
112.0,6.0,2.0,1.0,3.0,3.0,266.8912080000609,1.0,1.0,phase_1,,,,,,,,,,,,,magenta,diamond
42.0,1.0,1.0,0.0,1.0,1.0,315.8039400000234,1.0,1.0,phase_1,,,,,,,,,,,,,gray,I
28.0,5.0,1.0,1.0,1.0,1.0,341.3191750000806,1.0,1.0,phase_1,,,,,,,,,,,,,white,hexagon
396.0,8.0,4.0,1.0,2.0,2.0,273.8697869999669,1.0,1.0,phase_1,,,,,,,,,,,,,cyan,triangle
39.0,1.0,1.0,0.0,2.0,2.0,299.6924920000765,1.0,1.0,phase_1,,,,,,,,,,,,,gray,I
179.0,3.0,3.0,0.0,4.0,4.0,271.7537369999263,1.0,1.0,phase_1,,,,,,,,,,,,,green,cross
107.0,6.0,2.0,1.0,1.0,1.0,303.8640400000076,1.0,1.0,phase_1,,,,,,,,,,,,,magenta,diamond
54.0,5.0,1.0,1.0,3.0,3.0,243.8345680000111,1.0,1.0,phase_1,,,,,,,,,,,,,white,hexagon
196.0,3.0,3.0,0.0,3.0,3.0,295.7185939999363,1.0,1.0,phase_1,,,,,,,,,,,,,green,cross
0.0,8.0,0.0,1.0,2.0,2.0,351.6921069999625,1.0,1.0,phase_1,,,,,,,,,,,,,cyan,triangle
182.0,3.0,3.0,0.0,2.0,2.0,298.6593020000327,1.0,1.0,phase_1,,,,,,,,,,,,,green,cross
396.0,4.0,4.0,0.0,2.0,2.0,458.0900789999305,1.0,1.0,phase_1,,,,,,,,,,,,,yellow,circle
0.0,3.0,0.0,0.0,1.0,1.0,406.6320049998921,1.0,1.0,phase_1,,,,,,,,,,,,,green,cross
177.0,3.0,3.0,0.0,1.0,1.0,287.3897889999171,1.0,1.0,phase_1,,,,,,,,,,,,,green,cross
88.0,2.0,2.0,0.0,4.0,4.0,346.1861060000046,1.0,1.0,phase_1,,,,,,,,,,,,,orange,square
0.0,8.0,0.0,1.0,4.0,4.0,277.5921969998762,1.0,1.0,phase_1,,,,,,,,,,,,,cyan,triangle
186.0,3.0,3.0,0.0,3.0,3.0,280.9277230001044,1.0,1.0,phase_1,,,,,,,,,,,,,green,cross
61.0,1.0,1.0,0.0,4.0,4.0,338.3727190000627,1.0,1.0,phase_1,,,,,,,,,,,,,gray,I
0.0,2.0,0.0,0.0,3.0,3.0,300.4231449999679,1.0,1.0,phase_1,,,,,,,,,,,,,orange,square
177.0,7.0,3.0,1.0,3.0,3.0,279.9828030001663,1.0,1.0,phase_1,,,,,,,,,,,,,blue,flipped triangle
179.0,7.0,3.0,1.0,2.0,2.0,323.3714330001476,1.0,1.0,phase_1,,,,,,,,,,,,,blue,flipped triangle
0.0,3.0,0.0,0.0,3.0,3.0,312.4658340000223,1.0,1.0,phase_1,,,,,,,,,,,,,green,cross
190.0,3.0,3.0,0.0,2.0,2.0,484.60764800006467,1.0,1.0,phase_1,,,,,,,,,,,,,green,cross
0.0,2.0,0.0,0.0,2.0,2.0,301.9980800002031,1.0,1.0,phase_1,,,,,,,,,,,,,orange,square
113.0,2.0,2.0,0.0,4.0,4.0,228.7898290001067,1.0,1.0,phase_1,,,,,,,,,,,,,orange,square
28.0,1.0,1.0,0.0,3.0,3.0,374.6165669999755,1.0,1.0,phase_1,,,,,,,,,,,,,gray,I
0.0,5.0,0.0,1.0,2.0,2.0,280.7247390001066,1.0,1.0,phase_1,,,,,,,,,,,,,white,hexagon
100.0,6.0,2.0,1.0,4.0,4.0,249.1692950000015,1.0,1.0,phase_1,,,,,,,,,,,,,magenta,diamond
96.0,2.0,2.0,0.0,2.0,2.0,322.3190290000275,1.0,2.0,phase_1,,,,,,,,,,,,,orange,square
0.0,4.0,0.0,0.0,3.0,3.0,280.0155470001755,1.0,1.0,phase_1,,,,,,,,,,,,,yellow,circle
0.0,6.0,0.0,1.0,2.0,2.0,333.4388749999561,1.0,1.0,phase_1,,,,,,,,,,,,,magenta,diamond
377.0,4.0,4.0,0.0,1.0,1.0,244.0374280001833,1.0,1.0,phase_1,,,,,,,,,,,,,yellow,circle
190.0,7.0,3.0,1.0,3.0,3.0,351.6747859998759,1.0,1.0,phase_1,,,,,,,,,,,,,blue,flipped triangle
90.0,2.0,2.0,0.0,4.0,4.0,312.2215959999721,1.0,1.0,phase_1,,,,,,,,,,,,,orange,square
0.0,1.0,0.0,0.0,1.0,1.0,296.6404119999879,1.0,2.0,phase_1,,,,,,,,,,,,,gray,I
0.0,7.0,0.0,1.0,3.0,3.0,319.1891960000248,1.0,1.0,phase_1,,,,,,,,,,,,,blue,flipped triangle
0.0,7.0,0.0,1.0,1.0,1.0,300.0689580001108,1.0,1.0,phase_1,,,,,,,,,,,,,blue,flipped triangle
0.0,7.0,0.0,1.0,2.0,2.0,324.773653999955,1.0,1.0,phase_1,,,,,,,,,,,,,blue,flipped triangle
125.0,6.0,2.0,1.0,2.0,2.0,315.2155129998846,1.0,1.0,phase_1,,,,,,,,,,,,,magenta,diamond
103.0,2.0,2.0,0.0,3.0,3.0,287.0827159999862,1.0,1.0,phase_1,,,,,,,,,,,,,orange,square
419.0,8.0,4.0,1.0,3.0,3.0,304.6068699998159,1.0,1.0,phase_1,,,,,,,,,,,,,cyan,triangle
73.0,1.0,1.0,0.0,2.0,2.0,269.3689479999648,1.0,1.0,phase_1,,,,,,,,,,,,,gray,I
183.0,3.0,3.0,0.0,4.0,4.0,283.979649999992,1.0,1.0,phase_1,,,,,,,,,,,,,green,cross
0.0,2.0,0.0,0.0,1.0,1.0,282.7977119998195,1.0,1.0,phase_1,,,,,,,,,,,,,orange,square
185.0,3.0,3.0,0.0,2.0,2.0,274.6673139999984,1.0,1.0,phase_1,,,,,,,,,,,,,green,cross
113.0,2.0,2.0,0.0,1.0,1.0,348.8193789999059,1.0,1.0,phase_1,,,,,,,,,,,,,orange,square
417.0,8.0,4.0,1.0,2.0,2.0,276.8431409999721,1.0,1.0,phase_1,,,,,,,,,,,,,cyan,triangle
393.0,8.0,4.0,1.0,1.0,1.0,302.3882400000275,1.0,1.0,phase_1,,,,,,,,,,,,,cyan,triangle
195.0,3.0,3.0,0.0,1.0,1.0,342.5105659998735,1.0,1.0,phase_1,,,,,,,,,,,,,green,cross
63.0,5.0,1.0,1.0,1.0,1.0,418.3777920000011,1.0,1.0,phase_1,,,,,,,,,,,,,white,hexagon
68.0,1.0,1.0,0.0,4.0,4.0,382.5231199998598,1.0,1.0,phase_1,,,,,,,,,,,,,gray,I
402.0,8.0,4.0,1.0,2.0,2.0,282.253811000146,1.0,1.0,phase_1,,,,,,,,,,,,,cyan,triangle
402.0,4.0,4.0,0.0,1.0,1.0,302.5490889999673,1.0,1.0,phase_1,,,,,,,,,,,,,yellow,circle
0.0,1.0,0.0,0.0,2.0,2.0,302.1032060000834,1.0,1.0,phase_1,,,,,,,,,,,,,gray,I
44.0,1.0,1.0,0.0,2.0,2.0,254.6439140000984,1.0,1.0,phase_1,,,,,,,,,,,,,gray,I
0.0,6.0,0.0,1.0,3.0,3.0,324.7774100000242,1.0,1.0,phase_1,,,,,,,,,,,,,magenta,diamond
72.0,5.0,1.0,1.0,3.0,3.0,358.0301060001147,1.0,1.0,phase_1,,,,,,,,,,,,,white,hexagon
0.0,5.0,0.0,1.0,2.0,2.0,292.1407199999066,1.0,1.0,phase_1,,,,,,,,,,,,,white,hexagon
401.0,4.0,4.0,0.0,1.0,1.0,211.6766319998078,1.0,1.0,phase_1,,,,,,,,,,,,,yellow,circle
110.0,6.0,2.0,1.0,2.0,2.0,375.1683609998508,1.0,1.0,phase_1,,,,,,,,,,,,,magenta,diamond
0.0,1.0,0.0,0.0,3.0,3.0,330.3196429999389,1.0,1.0,phase_1,,,,,,,,,,,,,gray,I
393.0,4.0,4.0,0.0,1.0,1.0,310.5263620000187,2.0,1.0,phase_1,,,,,,,,,,,,,yellow,circle
88.0,2.0,2.0,0.0,2.0,2.0,268.8857739999548,2.0,1.0,phase_1,,,,,,,,,,,,,orange,square
175.0,3.0,3.0,0.0,1.0,1.0,257.1450479999839,2.0,1.0,phase_1,,,,,,,,,,,,,green,cross
390.0,4.0,4.0,0.0,1.0,1.0,439.1105520001019,2.0,1.0,phase_1,,,,,,,,,,,,,yellow,circle
425.0,8.0,4.0,1.0,4.0,4.0,297.7373020000868,2.0,1.0,phase_1,,,,,,,,,,,,,cyan,triangle
377.0,4.0,4.0,0.0,2.0,2.0,235.3673039999648,2.0,1.0,phase_1,,,,,,,,,,,,,yellow,circle
110.0,2.0,2.0,0.0,3.0,3.0,274.65730300014,2.0,1.0,phase_1,,,,,,,,,,,,,orange,square
206.0,3.0,3.0,0.0,4.0,4.0,532.5314659999094,2.0,1.0,phase_1,,,,,,,,,,,,,green,cross
422.0,8.0,4.0,1.0,1.0,1.0,253.26387099994457,2.0,1.0,phase_1,,,,,,,,,,,,,cyan,triangle
0.0,2.0,0.0,0.0,2.0,2.0,251.6394730000684,2.0,1.0,phase_1,,,,,,,,,,,,,orange,square
90.0,6.0,2.0,1.0,1.0,1.0,292.884266000101,2.0,1.0,phase_1,,,,,,,,,,,,,magenta,diamond
414.0,8.0,4.0,1.0,4.0,4.0,301.0920939998414,2.0,1.0,phase_1,,,,,,,,,,,,,cyan,triangle
32.0,1.0,1.0,0.0,1.0,1.0,318.0857230001948,2.0,1.0,phase_1,,,,,,,,,,,,,gray,I
0.0,8.0,0.0,1.0,1.0,1.0,286.5236509999249,2.0,1.0,phase_1,,,,,,,,,,,,,cyan,triangle
81.0,6.0,2.0,1.0,4.0,4.0,278.1852479999998,2.0,1.0,phase_1,,,,,,,,,,,,,magenta,diamond
0.0,4.0,0.0,0.0,4.0,4.0,312.2191100001146,2.0,1.0,phase_1,,,,,,,,,,,,,yellow,circle
417.0,4.0,4.0,0.0,3.0,3.0,326.8739200000254,2.0,1.0,phase_1,,,,,,,,,,,,,yellow,circle
92.0,2.0,2.0,0.0,2.0,2.0,266.4775939999799,2.0,1.0,phase_1,,,,,,,,,,,,,orange,square
0.0,3.0,0.0,0.0,1.0,1.0,258.5541149999244,2.0,1.0,phase_1,,,,,,,,,,,,,green,cross
196.0,3.0,3.0,0.0,1.0,1.0,286.0678039999129,2.0,1.0,phase_1,,,,,,,,,,,,,green,cross
32.0,5.0,1.0,1.0,2.0,2.0,263.9708389999669,2.0,1.0,phase_1,,,,,,,,,,,,,white,hexagon
0.0,3.0,0.0,0.0,4.0,4.0,240.1982569999745,2.0,1.0,phase_1,,,,,,,,,,,,,green,cross
186.0,7.0,3.0,1.0,1.0,1.0,288.9855290000014,2.0,1.0,phase_1,,,,,,,,,,,,,blue,flipped triangle
213.0,7.0,3.0,1.0,3.0,3.0,314.0497680001317,2.0,1.0,phase_1,,,,,,,,,,,,,blue,flipped triangle
101.0,2.0,2.0,0.0,3.0,3.0,311.0174539999661,2.0,1.0,phase_1,,,,,,,,,,,,,orange,square
0.0,8.0,0.0,1.0,4.0,4.0,286.819128000161,2.0,1.0,phase_1,,,,,,,,,,,,,cyan,triangle
419.0,4.0,4.0,0.0,3.0,3.0,410.2422939999997,2.0,1.0,phase_1,,,,,,,,,,,,,yellow,circle
0.0,2.0,0.0,0.0,4.0,4.0,301.1132940000607,2.0,1.0,phase_1,,,,,,,,,,,,,orange,square
410.0,8.0,4.0,1.0,4.0,4.0,296.4506559999336,2.0,1.0,phase_1,,,,,,,,,,,,,cyan,triangle
37.0,1.0,1.0,0.0,2.0,2.0,285.6293720001304,2.0,1.0,phase_1,,,,,,,,,,,,,gray,I
0.0,3.0,0.0,0.0,2.0,2.0,273.3072490000268,2.0,1.0,phase_1,,,,,,,,,,,,,green,cross
181.0,7.0,3.0,1.0,4.0,4.0,274.218737999945,2.0,1.0,phase_1,,,,,,,,,,,,,blue,flipped triangle
43.0,5.0,1.0,1.0,4.0,4.0,249.3992580000394,2.0,1.0,phase_1,,,,,,,,,,,,,white,hexagon
0.0,4.0,0.0,0.0,3.0,3.0,314.6734100000685,2.0,1.0,phase_1,,,,,,,,,,,,,yellow,circle
424.0,8.0,4.0,1.0,1.0,1.0,238.7984360000246,2.0,1.0,phase_1,,,,,,,,,,,,,cyan,triangle
0.0,4.0,0.0,0.0,2.0,2.0,291.8860129998393,2.0,1.0,phase_1,,,,,,,,,,,,,yellow,circle
196.0,7.0,3.0,1.0,2.0,2.0,300.2858550000837,2.0,1.0,phase_1,,,,,,,,,,,,,blue,flipped triangle
68.0,5.0,1.0,1.0,3.0,3.0,459.6799620001093,2.0,1.0,phase_1,,,,,,,,,,,,,white,hexagon
123.0,2.0,2.0,0.0,1.0,1.0,274.1921870001533,2.0,1.0,phase_1,,,,,,,,,,,,,orange,square
0.0,8.0,0.0,1.0,3.0,3.0,308.3794879999004,2.0,1.0,phase_1,,,,,,,,,,,,,cyan,triangle
73.0,5.0,1.0,1.0,4.0,4.0,270.3136719999293,2.0,1.0,phase_1,,,,,,,,,,,,,white,hexagon
0.0,5.0,0.0,1.0,3.0,3.0,352.2529720000875,2.0,1.0,phase_1,,,,,,,,,,,,,white,hexagon
196.0,7.0,3.0,1.0,3.0,3.0,306.1404249999668,2.0,1.0,phase_1,,,,,,,,,,,,,blue,flipped triangle
223.0,3.0,3.0,0.0,3.0,3.0,279.1654299999209,2.0,1.0,phase_1,,,,,,,,,,,,,green,cross
401.0,8.0,4.0,1.0,2.0,2.0,293.3069609998711,2.0,1.0,phase_1,,,,,,,,,,,,,cyan,triangle
63.0,1.0,1.0,0.0,1.0,1.0,267.9879300001175,2.0,1.0,phase_1,,,,,,,,,,,,,gray,I
37.0,5.0,1.0,1.0,3.0,3.0,308.3065769999393,2.0,1.0,phase_1,,,,,,,,,,,,,white,hexagon
88.0,6.0,2.0,1.0,1.0,1.0,335.0683900000604,2.0,1.0,phase_1,,,,,,,,,,,,,magenta,diamond
384.0,8.0,4.0,1.0,1.0,1.0,313.6630169999534,2.0,1.0,phase_1,,,,,,,,,,,,,cyan,triangle
113.0,6.0,2.0,1.0,4.0,4.0,275.5246550000265,2.0,1.0,phase_1,,,,,,,,,,,,,magenta,diamond
0.0,1.0,0.0,0.0,2.0,2.0,282.9489250000279,2.0,1.0,phase_1,,,,,,,,,,,,,gray,I
214.0,7.0,3.0,1.0,4.0,4.0,292.7604940000492,2.0,1.0,phase_1,,,,,,,,,,,,,blue,flipped triangle
0.0,4.0,0.0,0.0,4.0,4.0,284.0655800000604,2.0,1.0,phase_1,,,,,,,,,,,,,yellow,circle
106.0,6.0,2.0,1.0,3.0,3.0,291.1391520001416,2.0,1.0,phase_1,,,,,,,,,,,,,magenta,diamond
0.0,7.0,0.0,1.0,1.0,1.0,343.0972150003981,2.0,1.0,phase_1,,,,,,,,,,,,,blue,flipped triangle
112.0,2.0,2.0,0.0,3.0,3.0,291.2057570001707,2.0,1.0,phase_1,,,,,,,,,,,,,orange,square
109.0,6.0,2.0,1.0,2.0,2.0,224.057098999765,2.0,1.0,phase_1,,,,,,,,,,,,,magenta,diamond
180.0,3.0,3.0,0.0,4.0,4.0,225.2976819995638,2.0,1.0,phase_1,,,,,,,,,,,,,green,cross
0.0,7.0,0.0,1.0,3.0,3.0,305.029124000157,2.0,2.0,phase_1,,,,,,,,,,,,,blue,flipped triangle
29.0,5.0,1.0,1.0,2.0,2.0,358.828399000231,2.0,1.0,phase_1,,,,,,,,,,,,,white,hexagon
94.0,6.0,2.0,1.0,3.0,3.0,287.5377960003789,2.0,1.0,phase_1,,,,,,,,,,,,,magenta,diamond
186.0,3.0,3.0,0.0,2.0,2.0,281.1966250001205,2.0,1.0,phase_1,,,,,,,,,,,,,green,cross
385.0,4.0,4.0,0.0,4.0,4.0,315.1828980003301,2.0,1.0,phase_1,,,,,,,,,,,,,yellow,circle
210.0,3.0,3.0,0.0,2.0,2.0,340.6622960001186,2.0,1.0,phase_1,,,,,,,,,,,,,green,cross
60.0,1.0,1.0,0.0,3.0,3.0,316.4722579999761,2.0,1.0,phase_1,,,,,,,,,,,,,gray,I
0.0,4.0,0.0,0.0,2.0,2.0,307.6680139997734,2.0,1.0,phase_1,,,,,,,,,,,,,yellow,circle
77.0,2.0,2.0,0.0,1.0,1.0,288.8022819997786,2.0,1.0,phase_1,,,,,,,,,,,,,orange,square
183.0,7.0,3.0,1.0,1.0,1.0,314.2104300000028,2.0,1.0,phase_1,,,,,,,,,,,,,blue,flipped triangle
0.0,5.0,0.0,1.0,3.0,3.0,314.0800990004209,2.0,1.0,phase_1,,,,,,,,,,,,,white,hexagon
0.0,6.0,0.0,1.0,2.0,2.0,278.5025059997679,2.0,1.0,phase_1,,,,,,,,,,,,,magenta,diamond
121.0,6.0,2.0,1.0,1.0,1.0,260.7977980001124,2.0,1.0,phase_1,,,,,,,,,,,,,magenta,diamond
25.0,1.0,1.0,0.0,2.0,2.0,340.1616760002071,2.0,1.0,phase_1,,,,,,,,,,,,,gray,I
402.0,8.0,4.0,1.0,2.0,2.0,350.0017119999938,2.0,1.0,phase_1,,,,,,,,,,,,,cyan,triangle
96.0,6.0,2.0,1.0,3.0,3.0,323.8032859999293,2.0,1.0,phase_1,,,,,,,,,,,,,magenta,diamond
0.0,8.0,0.0,1.0,1.0,1.0,311.1016050002035,2.0,1.0,phase_1,,,,,,,,,,,,,cyan,triangle
65.0,1.0,1.0,0.0,3.0,3.0,344.9316580004051,2.0,1.0,phase_1,,,,,,,,,,,,,gray,I
109.0,2.0,2.0,0.0,4.0,4.0,330.6584139995721,2.0,1.0,phase_1,,,,,,,,,,,,,orange,square
377.0,4.0,4.0,0.0,1.0,1.0,286.7304769997645,2.0,1.0,phase_1,,,,,,,,,,,,,yellow,circle
61.0,5.0,1.0,1.0,2.0,2.0,329.7851000002083,2.0,1.0,phase_1,,,,,,,,,,,,,white,hexagon
54.0,1.0,1.0,0.0,1.0,1.0,281.6194750002978,2.0,1.0,phase_1,,,,,,,,,,,,,gray,I
0.0,1.0,0.0,0.0,1.0,1.0,303.8246699998126,2.0,1.0,phase_1,,,,,,,,,,,,,gray,I
0.0,5.0,0.0,1.0,1.0,1.0,286.9103590001032,2.0,1.0,phase_1,,,,,,,,,,,,,white,hexagon
65.0,5.0,1.0,1.0,2.0,2.0,301.1485380002341,2.0,1.0,phase_1,,,,,,,,,,,,,white,hexagon
0.0,7.0,0.0,1.0,1.0,1.0,275.0004810000064,2.0,1.0,phase_1,,,,,,,,,,,,,blue,flipped triangle
50.0,5.0,1.0,1.0,2.0,2.0,267.6529140003367,2.0,1.0,phase_1,,,,,,,,,,,,,white,hexagon
56.0,1.0,1.0,0.0,3.0,3.0,304.1141670000797,2.0,1.0,phase_1,,,,,,,,,,,,,gray,I
0.0,7.0,0.0,1.0,3.0,3.0,373.1309700001475,2.0,1.0,phase_1,,,,,,,,,,,,,blue,flipped triangle
53.0,5.0,1.0,1.0,2.0,2.0,402.0197820000248,2.0,1.0,phase_1,,,,,,,,,,,,,white,hexagon
388.0,4.0,4.0,0.0,4.0,4.0,340.8326100002341,2.0,1.0,phase_1,,,,,,,,,,,,,yellow,circle
196.0,3.0,3.0,0.0,3.0,3.0,322.8258220001407,2.0,1.0,phase_1,,,,,,,,,,,,,green,cross
218.0,7.0,3.0,1.0,1.0,1.0,241.8892069999856,2.0,1.0,phase_1,,,,,,,,,,,,,blue,flipped triangle
107.0,2.0,2.0,0.0,1.0,1.0,288.5495099999389,2.0,1.0,phase_1,,,,,,,,,,,,,orange,square
83.0,6.0,2.0,1.0,2.0,2.0,249.515920000249,2.0,1.0,phase_1,,,,,,,,,,,,,magenta,diamond
222.0,7.0,3.0,1.0,4.0,4.0,295.059460000175,2.0,1.0,phase_1,,,,,,,,,,,,,blue,flipped triangle
82.0,2.0,2.0,0.0,1.0,1.0,276.6144379997968,2.0,1.0,phase_1,,,,,,,,,,,,,orange,square
103.0,6.0,2.0,1.0,1.0,1.0,275.4924760001813,2.0,1.0,phase_1,,,,,,,,,,,,,magenta,diamond
409.0,4.0,4.0,0.0,1.0,1.0,263.5219400003734,2.0,1.0,phase_1,,,,,,,,,,,,,yellow,circle
28.0,5.0,1.0,1.0,3.0,3.0,316.3094379997346,2.0,1.0,phase_1,,,,,,,,,,,,,white,hexagon
59.0,1.0,1.0,0.0,1.0,1.0,294.8009400001865,2.0,1.0,phase_1,,,,,,,,,,,,,gray,I
92.0,6.0,2.0,1.0,1.0,1.0,281.2255369999548,2.0,1.0,phase_1,,,,,,,,,,,,,magenta,diamond
414.0,4.0,4.0,0.0,2.0,2.0,271.9441670001288,3.0,1.0,phase_1,,,,,,,,,,,,,yellow,circle
85.0,6.0,2.0,1.0,4.0,4.0,300.8209509998778,3.0,1.0,phase_1,,,,,,,,,,,,,magenta,diamond
0.0,2.0,0.0,0.0,2.0,2.0,245.7736169999407,3.0,1.0,phase_1,,,,,,,,,,,,,orange,square
30.0,5.0,1.0,1.0,4.0,4.0,289.7266310001214,3.0,1.0,phase_1,,,,,,,,,,,,,white,hexagon
39.0,5.0,1.0,1.0,4.0,4.0,295.741831000214,3.0,1.0,phase_1,,,,,,,,,,,,,white,hexagon
414.0,8.0,4.0,1.0,4.0,4.0,292.8627100000085,3.0,1.0,phase_1,,,,,,,,,,,,,cyan,triangle
100.0,2.0,2.0,0.0,2.0,2.0,395.8658330002436,3.0,1.0,phase_1,,,,,,,,,,,,,orange,square
385.0,4.0,4.0,0.0,4.0,4.0,372.8326949999427,3.0,1.0,phase_1,,,,,,,,,,,,,yellow,circle
28.0,1.0,1.0,0.0,4.0,4.0,312.5772909997977,3.0,1.0,phase_1,,,,,,,,,,,,,gray,I
0.0,1.0,0.0,0.0,3.0,3.0,327.6540130000285,3.0,1.0,phase_1,,,,,,,,,,,,,gray,I
385.0,8.0,4.0,1.0,3.0,3.0,293.5657019997961,3.0,1.0,phase_1,,,,,,,,,,,,,cyan,triangle
192.0,3.0,3.0,0.0,2.0,2.0,243.619351000234,3.0,1.0,phase_1,,,,,,,,,,,,,green,cross
107.0,2.0,2.0,0.0,4.0,4.0,279.3170049999389,3.0,1.0,phase_1,,,,,,,,,,,,,orange,square
60.0,5.0,1.0,1.0,3.0,3.0,395.6776879999779,3.0,1.0,phase_1,,,,,,,,,,,,,white,hexagon
95.0,2.0,2.0,0.0,3.0,3.0,316.4302929999394,3.0,1.0,phase_1,,,,,,,,,,,,,orange,square
100.0,2.0,2.0,0.0,3.0,3.0,571.4355639997848,3.0,1.0,phase_1,,,,,,,,,,,,,orange,square
34.0,5.0,1.0,1.0,1.0,1.0,250.6207729998095,3.0,1.0,phase_1,,,,,,,,,,,,,white,hexagon
123.0,2.0,2.0,0.0,1.0,1.0,325.6532499999593,3.0,1.0,phase_1,,,,,,,,,,,,,orange,square
123.0,6.0,2.0,1.0,3.0,3.0,291.9340379999084,3.0,1.0,phase_1,,,,,,,,,,,,,magenta,diamond
204.0,7.0,3.0,1.0,4.0,4.0,300.6091170000218,3.0,1.0,phase_1,,,,,,,,,,,,,blue,flipped triangle
390.0,4.0,4.0,0.0,4.0,4.0,286.1234480001258,3.0,1.0,phase_1,,,,,,,,,,,,,yellow,circle
189.0,7.0,3.0,1.0,3.0,3.0,285.9270009998909,3.0,1.0,phase_1,,,,,,,,,,,,,blue,flipped triangle
419.0,4.0,4.0,0.0,4.0,4.0,296.7068439998002,3.0,1.0,phase_1,,,,,,,,,,,,,yellow,circle
224.0,7.0,3.0,1.0,2.0,2.0,283.5815789999287,3.0,1.0,phase_1,,,,,,,,,,,,,blue,flipped triangle
49.0,1.0,1.0,0.0,4.0,4.0,271.1791960000482,3.0,1.0,phase_1,,,,,,,,,,,,,gray,I
182.0,7.0,3.0,1.0,4.0,4.0,299.1612400001031,3.0,1.0,phase_1,,,,,,,,,,,,,blue,flipped triangle
29.0,1.0,1.0,0.0,1.0,1.0,300.4673410000578,3.0,1.0,phase_1,,,,,,,,,,,,,gray,I
79.0,2.0,2.0,0.0,3.0,3.0,288.795028000095,3.0,1.0,phase_1,,,,,,,,,,,,,orange,square
388.0,8.0,4.0,1.0,2.0,2.0,303.9059159996213,3.0,1.0,phase_1,,,,,,,,,,,,,cyan,triangle
220.0,7.0,3.0,1.0,1.0,1.0,281.5914050001993,3.0,1.0,phase_1,,,,,,,,,,,,,blue,flipped triangle
410.0,4.0,4.0,0.0,3.0,3.0,349.9773969997477,3.0,1.0,phase_1,,,,,,,,,,,,,yellow,circle
395.0,8.0,4.0,1.0,4.0,4.0,269.6603970002798,3.0,1.0,phase_1,,,,,,,,,,,,,cyan,triangle
194.0,3.0,3.0,0.0,4.0,4.0,354.1232719999243,3.0,1.0,phase_1,,,,,,,,,,,,,green,cross
215.0,7.0,3.0,1.0,4.0,4.0,317.4246870003117,3.0,1.0,phase_1,,,,,,,,,,,,,blue,flipped triangle
0.0,8.0,0.0,1.0,3.0,3.0,286.3398959998449,3.0,1.0,phase_1,,,,,,,,,,,,,cyan,triangle
85.0,2.0,2.0,0.0,2.0,2.0,340.6410409997988,3.0,1.0,phase_1,,,,,,,,,,,,,orange,square
103.0,2.0,2.0,0.0,4.0,4.0,282.5461200000063,3.0,1.0,phase_1,,,,,,,,,,,,,orange,square
80.0,2.0,2.0,0.0,3.0,3.0,281.7897869999797,3.0,1.0,phase_1,,,,,,,,,,,,,orange,square
224.0,3.0,3.0,0.0,1.0,1.0,267.0093309998265,3.0,1.0,phase_1,,,,,,,,,,,,,green,cross
422.0,4.0,4.0,0.0,3.0,3.0,300.6492919998891,3.0,1.0,phase_1,,,,,,,,,,,,,yellow,circle
210.0,7.0,3.0,1.0,2.0,2.0,277.3093779996998,3.0,1.0,phase_1,,,,,,,,,,,,,blue,flipped triangle
225.0,7.0,3.0,1.0,3.0,3.0,304.7582940002939,3.0,1.0,phase_1,,,,,,,,,,,,,blue,flipped triangle
103.0,6.0,2.0,1.0,1.0,1.0,483.3713369998804,3.0,1.0,phase_1,,,,,,,,,,,,,magenta,diamond
194.0,7.0,3.0,1.0,4.0,4.0,310.3788619996521,3.0,1.0,phase_1,,,,,,,,,,,,,blue,flipped triangle
396.0,4.0,4.0,0.0,3.0,3.0,289.3751280003016,3.0,1.0,phase_1,,,,,,,,,,,,,yellow,circle
209.0,3.0,3.0,0.0,1.0,1.0,252.9795479999848,3.0,1.0,phase_1,,,,,,,,,,,,,green,cross
74.0,1.0,1.0,0.0,3.0,3.0,246.9404419998682,3.0,1.0,phase_1,,,,,,,,,,,,,gray,I
424.0,4.0,4.0,0.0,1.0,1.0,270.2829429999838,3.0,1.0,phase_1,,,,,,,,,,,,,yellow,circle
400.0,8.0,4.0,1.0,3.0,3.0,272.586598000089,3.0,1.0,phase_1,,,,,,,,,,,,,cyan,triangle
107.0,6.0,2.0,1.0,4.0,4.0,316.4618249998057,3.0,1.0,phase_1,,,,,,,,,,,,,magenta,diamond
181.0,3.0,3.0,0.0,3.0,3.0,277.3222890000397,3.0,1.0,phase_1,,,,,,,,,,,,,green,cross
216.0,3.0,3.0,0.0,4.0,4.0,297.744898000019,3.0,1.0,phase_1,,,,,,,,,,,,,green,cross
402.0,4.0,4.0,0.0,2.0,2.0,255.76736699986208,3.0,1.0,phase_1,,,,,,,,,,,,,yellow,circle
381.0,8.0,4.0,1.0,3.0,3.0,270.2976949999538,3.0,1.0,phase_1,,,,,,,,,,,,,cyan,triangle
190.0,7.0,3.0,1.0,3.0,3.0,309.7153869998692,3.0,1.0,phase_1,,,,,,,,,,,,,blue,flipped triangle
225.0,3.0,3.0,0.0,1.0,1.0,267.8936479996991,3.0,1.0,phase_1,,,,,,,,,,,,,green,cross
69.0,5.0,1.0,1.0,4.0,4.0,315.5263230000855,3.0,1.0,phase_1,,,,,,,,,,,,,white,hexagon
178.0,7.0,3.0,1.0,4.0,4.0,317.573309999716,3.0,1.0,phase_1,,,,,,,,,,,,,blue,flipped triangle
400.0,4.0,4.0,0.0,2.0,2.0,267.7505559995552,3.0,1.0,phase_1,,,,,,,,,,,,,yellow,circle
0.0,5.0,0.0,1.0,4.0,4.0,289.1447089996291,3.0,1.0,phase_1,,,,,,,,,,,,,white,hexagon
30.0,5.0,1.0,1.0,2.0,2.0,303.9944900001501,3.0,1.0,phase_1,,,,,,,,,,,,,white,hexagon
209.0,7.0,3.0,1.0,2.0,2.0,329.2205110001305,3.0,1.0,phase_1,,,,,,,,,,,,,blue,flipped triangle
65.0,5.0,1.0,1.0,3.0,3.0,289.7981720002462,3.0,1.0,phase_1,,,,,,,,,,,,,white,hexagon
189.0,3.0,3.0,0.0,3.0,3.0,301.9367539995983,3.0,1.0,phase_1,,,,,,,,,,,,,green,cross
0.0,8.0,0.0,1.0,2.0,2.0,298.2932009999786,3.0,1.0,phase_1,,,,,,,,,,,,,cyan,triangle
414.0,4.0,4.0,0.0,2.0,2.0,290.7135599998582,3.0,1.0,phase_1,,,,,,,,,,,,,yellow,circle
0.0,2.0,0.0,0.0,1.0,1.0,322.3254770000494,3.0,1.0,phase_1,,,,,,,,,,,,,orange,square
60.0,1.0,1.0,0.0,4.0,4.0,369.603050999558,3.0,1.0,phase_1,,,,,,,,,,,,,gray,I
71.0,5.0,1.0,1.0,3.0,3.0,309.452918000261,3.0,1.0,phase_1,,,,,,,,,,,,,white,hexagon
386.0,8.0,4.0,1.0,1.0,1.0,305.5967089999285,3.0,1.0,phase_1,,,,,,,,,,,,,cyan,triangle
0.0,5.0,0.0,1.0,2.0,2.0,292.0345630000156,3.0,1.0,phase_1,,,,,,,,,,,,,white,hexagon
49.0,5.0,1.0,1.0,1.0,1.0,322.0870380000633,3.0,1.0,phase_1,,,,,,,,,,,,,white,hexagon
125.0,2.0,2.0,0.0,1.0,1.0,286.8877890000476,3.0,1.0,phase_1,,,,,,,,,,,,,orange,square
0.0,3.0,0.0,0.0,3.0,3.0,312.0278409996899,3.0,1.0,phase_1,,,,,,,,,,,,,green,cross
0.0,6.0,0.0,1.0,4.0,4.0,325.475292000192,3.0,1.0,phase_1,,,,,,,,,,,,,magenta,diamond
204.0,3.0,3.0,0.0,2.0,2.0,318.2825990002129,3.0,1.0,phase_1,,,,,,,,,,,,,green,cross
402.0,4.0,4.0,0.0,4.0,4.0,312.2375329999158,3.0,1.0,phase_1,,,,,,,,,,,,,yellow,circle
83.0,6.0,2.0,1.0,3.0,3.0,338.109784000153,3.0,1.0,phase_1,,,,,,,,,,,,,magenta,diamond
377.0,8.0,4.0,1.0,1.0,1.0,228.2779459997073,3.0,1.0,phase_1,,,,,,,,,,,,,cyan,triangle
34.0,1.0,1.0,0.0,1.0,1.0,295.3128809999725,3.0,1.0,phase_1,,,,,,,,,,,,,gray,I
32.0,1.0,1.0,0.0,2.0,2.0,254.579270999784,3.0,1.0,phase_1,,,,,,,,,,,,,gray,I
213.0,3.0,3.0,0.0,3.0,3.0,346.7058219998762,3.0,1.0,phase_1,,,,,,,,,,,,,green,cross
0.0,5.0,0.0,1.0,4.0,4.0,293.2068749996688,3.0,1.0,phase_1,,,,,,,,,,,,,white,hexagon
417.0,4.0,4.0,0.0,2.0,2.0,361.6628100003254,3.0,1.0,phase_1,,,,,,,,,,,,,yellow,circle
385.0,4.0,4.0,0.0,3.0,3.0,344.7579049998239,3.0,1.0,phase_1,,,,,,,,,,,,,yellow,circle
50.0,1.0,1.0,0.0,4.0,4.0,295.5936309999742,3.0,1.0,phase_1,,,,,,,,,,,,,gray,I
44.0,5.0,1.0,1.0,2.0,2.0,586.6002679999838,3.0,1.0,phase_1,,,,,,,,,,,,,white,hexagon
123.0,6.0,2.0,1.0,1.0,1.0,309.2744450000282,3.0,1.0,phase_1,,,,,,,,,,,,,magenta,diamond
83.0,2.0,2.0,0.0,4.0,4.0,310.1762950000193,3.0,1.0,phase_1,,,,,,,,,,,,,orange,square
74.0,5.0,1.0,1.0,4.0,4.0,301.6744789997574,3.0,1.0,phase_1,,,,,,,,,,,,,white,hexagon
0.0,2.0,0.0,0.0,3.0,3.0,352.0381419998557,3.0,1.0,phase_1,,,,,,,,,,,,,orange,square
417.0,8.0,4.0,1.0,1.0,1.0,245.9285380000437,3.0,1.0,phase_1,,,,,,,,,,,,,cyan,triangle
118.0,6.0,2.0,1.0,1.0,1.0,308.5382330000357,3.0,1.0,phase_1,,,,,,,,,,,,,magenta,diamond
0.0,3.0,0.0,0.0,3.0,3.0,336.0068800002409,3.0,1.0,phase_1,,,,,,,,,,,,,green,cross
395.0,4.0,4.0,0.0,3.0,3.0,307.8043909999906,3.0,1.0,phase_1,,,,,,,,,,,,,yellow,circle
99.0,6.0,2.0,1.0,4.0,4.0,287.2298090001095,3.0,1.0,phase_1,,,,,,,,,,,,,magenta,diamond
213.0,7.0,3.0,1.0,1.0,1.0,357.74828600006,3.0,1.0,phase_1,,,,,,,,,,,,,blue,flipped triangle
35.0,1.0,1.0,0.0,3.0,3.0,312.6598690000719,3.0,1.0,phase_1,,,,,,,,,,,,,gray,I
223.0,7.0,3.0,1.0,4.0,4.0,298.5903220001091,3.0,1.0,phase_1,,,,,,,,,,,,,blue,flipped triangle
99.0,2.0,2.0,0.0,4.0,4.0,320.3203620000749,3.0,1.0,phase_1,,,,,,,,,,,,,orange,square
30.0,1.0,1.0,0.0,3.0,3.0,323.6201370000344,4.0,1.0,phase_1,,,,,,,,,,,,,gray,I
52.0,1.0,1.0,0.0,3.0,3.0,357.0784880002975,4.0,1.0,phase_1,,,,,,,,,,,,,gray,I
82.0,6.0,2.0,1.0,2.0,2.0,264.1936200002419,4.0,1.0,phase_1,,,,,,,,,,,,,magenta,diamond
68.0,1.0,1.0,0.0,3.0,3.0,303.0355959999724,4.0,1.0,phase_1,,,,,,,,,,,,,gray,I
63.0,1.0,1.0,0.0,1.0,1.0,294.2809030000717,4.0,1.0,phase_1,,,,,,,,,,,,,gray,I
214.0,3.0,3.0,0.0,3.0,3.0,319.7567900001559,4.0,1.0,phase_1,,,,,,,,,,,,,green,cross
0.0,1.0,0.0,0.0,4.0,4.0,321.5173789999426,4.0,1.0,phase_1,,,,,,,,,,,,,gray,I
407.0,8.0,4.0,1.0,2.0,2.0,259.5662220001031,4.0,1.0,phase_1,,,,,,,,,,,,,cyan,triangle
63.0,5.0,1.0,1.0,4.0,4.0,269.5673920002264,4.0,1.0,phase_1,,,,,,,,,,,,,white,hexagon
402.0,8.0,4.0,1.0,3.0,3.0,286.330062000161,4.0,1.0,phase_1,,,,,,,,,,,,,cyan,triangle
0.0,6.0,0.0,1.0,2.0,2.0,292.5563490002787,4.0,1.0,phase_1,,,,,,,,,,,,,magenta,diamond
0.0,8.0,0.0,1.0,2.0,2.0,280.1261820000036,4.0,1.0,phase_1,,,,,,,,,,,,,cyan,triangle
101.0,6.0,2.0,1.0,2.0,2.0,272.0744480002395,4.0,1.0,phase_1,,,,,,,,,,,,,magenta,diamond
43.0,1.0,1.0,0.0,4.0,4.0,275.4007359999377,4.0,1.0,phase_1,,,,,,,,,,,,,gray,I
384.0,4.0,4.0,0.0,4.0,4.0,298.7535819997902,4.0,1.0,phase_1,,,,,,,,,,,,,yellow,circle
32.0,5.0,1.0,1.0,1.0,1.0,275.4206800000247,4.0,1.0,phase_1,,,,,,,,,,,,,white,hexagon
0.0,6.0,0.0,1.0,1.0,1.0,296.1103970001204,4.0,2.0,phase_1,,,,,,,,,,,,,magenta,diamond
93.0,2.0,2.0,0.0,2.0,2.0,304.7853959997155,4.0,1.0,phase_1,,,,,,,,,,,,,orange,square
0.0,3.0,0.0,0.0,4.0,4.0,294.6655809996628,4.0,1.0,phase_1,,,,,,,,,,,,,green,cross
386.0,4.0,4.0,0.0,1.0,1.0,266.3664629999402,4.0,1.0,phase_1,,,,,,,,,,,,,yellow,circle
121.0,2.0,2.0,0.0,3.0,3.0,295.1898950000213,4.0,1.0,phase_1,,,,,,,,,,,,,orange,square
68.0,5.0,1.0,1.0,3.0,3.0,289.4356379997589,4.0,1.0,phase_1,,,,,,,,,,,,,white,hexagon
217.0,7.0,3.0,1.0,1.0,1.0,243.1553530000201,4.0,1.0,phase_1,,,,,,,,,,,,,blue,flipped triangle
0.0,4.0,0.0,0.0,2.0,2.0,272.7338540003075,4.0,1.0,phase_1,,,,,,,,,,,,,yellow,circle
223.0,3.0,3.0,0.0,4.0,4.0,305.6437239997649,4.0,1.0,phase_1,,,,,,,,,,,,,green,cross
190.0,7.0,3.0,1.0,1.0,1.0,233.3904860001894,4.0,1.0,phase_1,,,,,,,,,,,,,blue,flipped triangle
53.0,1.0,1.0,0.0,4.0,4.0,341.8434410000373,4.0,1.0,phase_1,,,,,,,,,,,,,gray,I
402.0,4.0,4.0,0.0,2.0,2.0,240.4886680001254,4.0,1.0,phase_1,,,,,,,,,,,,,yellow,circle
210.0,3.0,3.0,0.0,1.0,1.0,250.23351699974228,4.0,1.0,phase_1,,,,,,,,,,,,,green,cross
180.0,7.0,3.0,1.0,4.0,4.0,250.66855900013252,4.0,1.0,phase_1,,,,,,,,,,,,,blue,flipped triangle
190.0,3.0,3.0,0.0,3.0,3.0,248.7786359997699,4.0,1.0,phase_1,,,,,,,,,,,,,green,cross
396.0,8.0,4.0,1.0,2.0,2.0,239.966631000243,4.0,1.0,phase_1,,,,,,,,,,,,,cyan,triangle
65.0,1.0,1.0,0.0,4.0,4.0,262.635751000289,4.0,1.0,phase_1,,,,,,,,,,,,,gray,I
407.0,4.0,4.0,0.0,3.0,3.0,256.121973000063,4.0,1.0,phase_1,,,,,,,,,,,,,yellow,circle
83.0,2.0,2.0,0.0,3.0,3.0,331.3152979999358,4.0,1.0,phase_1,,,,,,,,,,,,,orange,square
419.0,8.0,4.0,1.0,2.0,2.0,261.8478849999519,4.0,1.0,phase_1,,,,,,,,,,,,,cyan,triangle
88.0,6.0,2.0,1.0,3.0,3.0,260.6084990002273,4.0,1.0,phase_1,,,,,,,,,,,,,magenta,diamond
379.0,8.0,4.0,1.0,3.0,3.0,253.16681200001761,4.0,1.0,phase_1,,,,,,,,,,,,,cyan,triangle
216.0,7.0,3.0,1.0,2.0,2.0,300.9268970004086,4.0,1.0,phase_1,,,,,,,,,,,,,blue,flipped triangle
0.0,1.0,0.0,0.0,3.0,3.0,261.0082139999576,4.0,1.0,phase_1,,,,,,,,,,,,,gray,I
42.0,5.0,1.0,1.0,2.0,2.0,244.9973819998376,4.0,1.0,phase_1,,,,,,,,,,,,,white,hexagon
417.0,4.0,4.0,0.0,4.0,4.0,264.5811970000977,4.0,1.0,phase_1,,,,,,,,,,,,,yellow,circle
72.0,1.0,1.0,0.0,2.0,2.0,282.0929730000898,4.0,1.0,phase_1,,,,,,,,,,,,,gray,I
77.0,6.0,2.0,1.0,2.0,2.0,486.2136480001027,4.0,1.0,phase_1,,,,,,,,,,,,,magenta,diamond
0.0,6.0,0.0,1.0,2.0,2.0,275.172990000101,4.0,1.0,phase_1,,,,,,,,,,,,,magenta,diamond
123.0,2.0,2.0,0.0,2.0,2.0,294.5078870002362,4.0,1.0,phase_1,,,,,,,,,,,,,orange,square
60.0,5.0,1.0,1.0,3.0,3.0,329.674936000174,4.0,1.0,phase_1,,,,,,,,,,,,,white,hexagon
110.0,2.0,2.0,0.0,1.0,1.0,255.3488999997171,4.0,1.0,phase_1,,,,,,,,,,,,,orange,square
0.0,1.0,0.0,0.0,1.0,1.0,315.6621289999748,4.0,1.0,phase_1,,,,,,,,,,,,,gray,I
110.0,6.0,2.0,1.0,3.0,3.0,341.0947429997577,4.0,1.0,phase_1,,,,,,,,,,,,,magenta,diamond
123.0,6.0,2.0,1.0,4.0,4.0,323.674156999914,4.0,1.0,phase_1,,,,,,,,,,,,,magenta,diamond
37.0,1.0,1.0,0.0,2.0,2.0,263.3698630002072,4.0,1.0,phase_1,,,,,,,,,,,,,gray,I
52.0,5.0,1.0,1.0,4.0,4.0,341.1022589998538,4.0,1.0,phase_1,,,,,,,,,,,,,white,hexagon
69.0,1.0,1.0,0.0,2.0,2.0,310.5880709999837,4.0,1.0,phase_1,,,,,,,,,,,,,gray,I
175.0,7.0,3.0,1.0,3.0,3.0,257.717230000253,4.0,1.0,phase_1,,,,,,,,,,,,,blue,flipped triangle
210.0,7.0,3.0,1.0,1.0,1.0,282.3998879998726,4.0,2.0,phase_1,,,,,,,,,,,,,blue,flipped triangle
93.0,6.0,2.0,1.0,3.0,3.0,326.045724999858,4.0,1.0,phase_1,,,,,,,,,,,,,magenta,diamond
94.0,2.0,2.0,0.0,1.0,1.0,249.4123669998771,4.0,1.0,phase_1,,,,,,,,,,,,,orange,square
402.0,8.0,4.0,1.0,4.0,4.0,324.9572160002572,4.0,1.0,phase_1,,,,,,,,,,,,,cyan,triangle
414.0,4.0,4.0,0.0,2.0,2.0,299.7232319999057,4.0,1.0,phase_1,,,,,,,,,,,,,yellow,circle
25.0,5.0,1.0,1.0,1.0,1.0,256.0045719997106,4.0,1.0,phase_1,,,,,,,,,,,,,white,hexagon
37.0,5.0,1.0,1.0,1.0,1.0,293.8775369998438,4.0,2.0,phase_1,,,,,,,,,,,,,white,hexagon
71.0,1.0,1.0,0.0,1.0,1.0,291.0749200000282,4.0,1.0,phase_1,,,,,,,,,,,,,gray,I
186.0,7.0,3.0,1.0,3.0,3.0,280.6865630000175,4.0,1.0,phase_1,,,,,,,,,,,,,blue,flipped triangle
223.0,7.0,3.0,1.0,1.0,1.0,252.69004199981282,4.0,1.0,phase_1,,,,,,,,,,,,,blue,flipped triangle
222.0,3.0,3.0,0.0,1.0,1.0,311.8921340001179,4.0,1.0,phase_1,,,,,,,,,,,,,green,cross
89.0,6.0,2.0,1.0,1.0,1.0,269.5103979999658,4.0,1.0,phase_1,,,,,,,,,,,,,magenta,diamond
79.0,6.0,2.0,1.0,4.0,4.0,326.1427759998696,4.0,1.0,phase_1,,,,,,,,,,,,,magenta,diamond
0.0,3.0,0.0,0.0,1.0,1.0,271.4070710003398,4.0,1.0,phase_1,,,,,,,,,,,,,green,cross
110.0,2.0,2.0,0.0,2.0,2.0,330.1647110001795,4.0,1.0,phase_1,,,,,,,,,,,,,orange,square
52.0,5.0,1.0,1.0,4.0,4.0,276.5821779998987,4.0,1.0,phase_1,,,,,,,,,,,,,white,hexagon
95.0,6.0,2.0,1.0,3.0,3.0,301.6524159997971,4.0,1.0,phase_1,,,,,,,,,,,,,magenta,diamond
0.0,6.0,0.0,1.0,3.0,3.0,332.1663729998363,4.0,1.0,phase_1,,,,,,,,,,,,,magenta,diamond
35.0,1.0,1.0,0.0,3.0,3.0,327.655138999944,4.0,1.0,phase_1,,,,,,,,,,,,,gray,I
190.0,7.0,3.0,1.0,2.0,2.0,299.7563489998356,4.0,2.0,phase_1,,,,,,,,,,,,,blue,flipped triangle
381.0,4.0,4.0,0.0,1.0,1.0,259.3349850003505,4.0,1.0,phase_1,,,,,,,,,,,,,yellow,circle
185.0,7.0,3.0,1.0,1.0,1.0,257.876942999701,4.0,1.0,phase_1,,,,,,,,,,,,,blue,flipped triangle
0.0,4.0,0.0,0.0,4.0,4.0,308.7171880001733,4.0,1.0,phase_1,,,,,,,,,,,,,yellow,circle
113.0,6.0,2.0,1.0,4.0,4.0,313.0339740000636,4.0,1.0,phase_1,,,,,,,,,,,,,magenta,diamond
30.0,1.0,1.0,0.0,2.0,2.0,297.466256000007,4.0,1.0,phase_1,,,,,,,,,,,,,gray,I
217.0,3.0,3.0,0.0,3.0,3.0,353.4396619998006,4.0,1.0,phase_1,,,,,,,,,,,,,green,cross
406.0,8.0,4.0,1.0,1.0,1.0,264.9630589999106,4.0,1.0,phase_1,,,,,,,,,,,,,cyan,triangle
81.0,2.0,2.0,0.0,2.0,2.0,286.3784030000715,4.0,1.0,phase_1,,,,,,,,,,,,,orange,square
0.0,5.0,0.0,1.0,3.0,3.0,303.9373720002913,4.0,1.0,phase_1,,,,,,,,,,,,,white,hexagon
106.0,2.0,2.0,0.0,4.0,4.0,302.1026749997872,4.0,2.0,phase_1,,,,,,,,,,,,,orange,square
44.0,1.0,1.0,0.0,4.0,4.0,311.6022340000199,4.0,1.0,phase_1,,,,,,,,,,,,,gray,I
414.0,8.0,4.0,1.0,1.0,1.0,326.8040559996734,4.0,1.0,phase_1,,,,,,,,,,,,,cyan,triangle
56.0,5.0,1.0,1.0,2.0,2.0,299.8356709999825,4.0,1.0,phase_1,,,,,,,,,,,,,white,hexagon
110.0,6.0,2.0,1.0,2.0,2.0,279.4094830001086,4.0,1.0,phase_1,,,,,,,,,,,,,magenta,diamond
215.0,3.0,3.0,0.0,2.0,2.0,345.1118379998661,4.0,1.0,phase_1,,,,,,,,,,,,,green,cross
0.0,5.0,0.0,1.0,3.0,3.0,304.8920420001195,4.0,1.0,phase_1,,,,,,,,,,,,,white,hexagon
0.0,2.0,0.0,0.0,3.0,3.0,359.4857130001401,4.0,1.0,phase_1,,,,,,,,,,,,,orange,square
196.0,7.0,3.0,1.0,2.0,2.0,307.580180000059,4.0,1.0,phase_1,,,,,,,,,,,,,blue,flipped triangle
190.0,3.0,3.0,0.0,4.0,4.0,313.5058170000775,4.0,1.0,phase_1,,,,,,,,,,,,,green,cross
195.0,7.0,3.0,1.0,2.0,2.0,304.1845259999718,4.0,1.0,phase_1,,,,,,,,,,,,,blue,flipped triangle
390.0,8.0,4.0,1.0,2.0,2.0,354.6775259997048,4.0,1.0,phase_1,,,,,,,,,,,,,cyan,triangle
390.0,8.0,4.0,1.0,4.0,4.0,317.5576639996507,4.0,1.0,phase_1,,,,,,,,,,,,,cyan,triangle
0.0,6.0,0.0,1.0,1.0,1.0,271.055465000245,4.0,1.0,phase_1,,,,,,,,,,,,,magenta,diamond
391.0,4.0,4.0,0.0,4.0,4.0,326.7128200000115,4.0,1.0,phase_1,,,,,,,,,,,,,yellow,circle
409.0,8.0,4.0,1.0,3.0,3.0,315.6378419998873,4.0,1.0,phase_1,,,,,,,,,,,,,cyan,triangle
0.0,5.0,1.0,1.0,5.0,5.0,397.4599269999999,1.0,1.0,phase_2,stop,250.0,250.0,3.0,,,,,,,,,white,hexagon
0.0,1.0,1.0,0.0,6.0,6.0,391.2539529997048,1.0,1.0,phase_2,go,200.0,250.0,1.0,,,,,,,,,gray,I
0.0,2.0,2.0,0.0,6.0,6.0,427.9995860001691,1.0,1.0,phase_2,go,200.0,250.0,1.0,,,,,,,,,orange,square
0.0,1.0,1.0,0.0,6.0,6.0,323.5206270001072,1.0,1.0,phase_2,go,200.0,250.0,1.0,,,,,,,,,gray,I
0.0,6.0,2.0,1.0,5.0,5.0,528.7709969998104,1.0,1.0,phase_2,go,200.0,250.0,1.0,,,,,,,,,magenta,diamond
0.0,7.0,3.0,1.0,6.0,0.0,0.0,1.0,1.0,phase_2,stop,200.0,250.0,4.0,,,,,,,,,blue,flipped triangle
0.0,8.0,4.0,1.0,5.0,5.0,249.6069369999531,1.0,1.0,phase_2,stop,200.0,300.0,3.0,,,,,,,,,cyan,triangle
0.0,1.0,1.0,0.0,6.0,6.0,510.79340499973114,1.0,1.0,phase_2,go,150.0,300.0,1.0,,,,,,,,,gray,I
0.0,7.0,3.0,1.0,6.0,6.0,339.7600140001486,1.0,1.0,phase_2,stop,150.0,300.0,3.0,,,,,,,,,blue,flipped triangle
0.0,1.0,1.0,0.0,5.0,5.0,452.7745770001274,1.0,1.0,phase_2,go,150.0,250.0,1.0,,,,,,,,,gray,I
0.0,8.0,4.0,1.0,6.0,6.0,457.0490320002136,1.0,1.0,phase_2,go,150.0,250.0,1.0,,,,,,,,,cyan,triangle
0.0,5.0,1.0,1.0,5.0,0.0,0.0,1.0,1.0,phase_2,stop,150.0,250.0,4.0,,,,,,,,,white,hexagon
0.0,5.0,1.0,1.0,6.0,6.0,347.6982960000896,1.0,1.0,phase_2,stop,200.0,250.0,3.0,,,,,,,,,white,hexagon
0.0,2.0,2.0,0.0,5.0,5.0,463.387856999816,1.0,1.0,phase_2,go,200.0,200.0,1.0,,,,,,,,,orange,square
0.0,5.0,1.0,1.0,5.0,0.0,0.0,1.0,1.0,phase_2,stop,200.0,200.0,4.0,,,,,,,,,white,hexagon
0.0,7.0,3.0,1.0,6.0,0.0,0.0,1.0,1.0,phase_2,stop,250.0,200.0,4.0,,,,,,,,,blue,flipped triangle
0.0,5.0,1.0,1.0,6.0,0.0,0.0,1.0,1.0,phase_2,stop,250.0,250.0,4.0,,,,,,,,,white,hexagon
0.0,4.0,4.0,0.0,6.0,6.0,332.1150769997985,1.0,1.0,phase_2,go,250.0,300.0,1.0,,,,,,,,,yellow,circle
0.0,8.0,4.0,1.0,6.0,6.0,482.6600490000601,1.0,1.0,phase_2,go,250.0,300.0,1.0,,,,,,,,,cyan,triangle
0.0,7.0,3.0,1.0,6.0,6.0,324.2927379997127,1.0,1.0,phase_2,go,250.0,300.0,1.0,,,,,,,,,blue,flipped triangle
0.0,7.0,3.0,1.0,5.0,5.0,388.574869000422,1.0,1.0,phase_2,go,250.0,300.0,1.0,,,,,,,,,blue,flipped triangle
0.0,4.0,4.0,0.0,6.0,6.0,412.2820420002426,1.0,1.0,phase_2,go,250.0,300.0,1.0,,,,,,,,,yellow,circle
0.0,7.0,3.0,1.0,5.0,5.0,285.040860999743,1.0,1.0,phase_2,stop,250.0,300.0,3.0,,,,,,,,,blue,flipped triangle
0.0,3.0,3.0,0.0,6.0,6.0,426.7185880003126,1.0,1.0,phase_2,go,200.0,300.0,1.0,,,,,,,,,green,cross
0.0,4.0,4.0,0.0,6.0,6.0,286.901016000229,1.0,1.0,phase_2,go,200.0,300.0,1.0,,,,,,,,,yellow,circle
0.0,8.0,4.0,1.0,6.0,0.0,0.0,1.0,1.0,phase_2,stop,200.0,300.0,4.0,,,,,,,,,cyan,triangle
0.0,2.0,2.0,0.0,6.0,6.0,513.8154129999748,1.0,1.0,phase_2,go,200.0,350.0,1.0,,,,,,,,,orange,square
0.0,3.0,3.0,0.0,6.0,6.0,298.8007740000284,1.0,1.0,phase_2,go,200.0,350.0,1.0,,,,,,,,,green,cross
0.0,3.0,3.0,0.0,6.0,6.0,321.5695449998748,1.0,1.0,phase_2,go,200.0,350.0,1.0,,,,,,,,,green,cross
0.0,5.0,1.0,1.0,5.0,5.0,298.8513899999816,1.0,1.0,phase_2,stop,200.0,350.0,3.0,,,,,,,,,white,hexagon
0.0,4.0,4.0,0.0,5.0,5.0,464.9906260001444,1.0,1.0,phase_2,go,150.0,350.0,1.0,,,,,,,,,yellow,circle
0.0,3.0,3.0,0.0,5.0,5.0,312.7672010000424,1.0,1.0,phase_2,go,150.0,350.0,1.0,,,,,,,,,green,cross
0.0,2.0,2.0,0.0,6.0,6.0,597.1476680001615,1.0,1.0,phase_2,go,150.0,350.0,1.0,,,,,,,,,orange,square
0.0,7.0,3.0,1.0,5.0,0.0,0.0,1.0,1.0,phase_2,stop,150.0,350.0,4.0,,,,,,,,,blue,flipped triangle
0.0,2.0,2.0,0.0,5.0,5.0,453.7228850003885,1.0,1.0,phase_2,go,200.0,350.0,1.0,,,,,,,,,orange,square
0.0,2.0,2.0,0.0,6.0,6.0,329.2953099999067,1.0,1.0,phase_2,go,200.0,350.0,1.0,,,,,,,,,orange,square
0.0,1.0,1.0,0.0,6.0,6.0,418.9700739998443,2.0,1.0,phase_2,go,200.0,350.0,1.0,,,,,,,,,gray,I
0.0,1.0,1.0,0.0,5.0,5.0,281.495982999786,2.0,1.0,phase_2,go,200.0,350.0,1.0,,,,,,,,,gray,I
0.0,6.0,2.0,1.0,6.0,6.0,309.3349199998556,2.0,1.0,phase_2,go,200.0,350.0,1.0,,,,,,,,,magenta,diamond
0.0,8.0,4.0,1.0,5.0,5.0,251.8499529996916,2.0,1.0,phase_2,stop,200.0,350.0,3.0,,,,,,,,,cyan,triangle
0.0,6.0,2.0,1.0,5.0,0.0,0.0,2.0,1.0,phase_2,stop,150.0,350.0,4.0,,,,,,,,,magenta,diamond
0.0,2.0,2.0,0.0,5.0,5.0,443.6255219998202,2.0,1.0,phase_2,go,200.0,350.0,1.0,,,,,,,,,orange,square
0.0,2.0,2.0,0.0,5.0,5.0,432.7082019999579,2.0,1.0,phase_2,go,200.0,350.0,1.0,,,,,,,,,orange,square
0.0,3.0,3.0,0.0,6.0,6.0,281.430716000159,2.0,1.0,phase_2,go,200.0,350.0,1.0,,,,,,,,,green,cross
0.0,8.0,4.0,1.0,5.0,5.0,254.15662900013558,2.0,1.0,phase_2,stop,200.0,350.0,3.0,,,,,,,,,cyan,triangle
0.0,7.0,3.0,1.0,5.0,5.0,373.4178119998432,2.0,1.0,phase_2,go,150.0,350.0,1.0,,,,,,,,,blue,flipped triangle
0.0,1.0,1.0,0.0,5.0,5.0,372.7701430002526,2.0,1.0,phase_2,go,150.0,350.0,1.0,,,,,,,,,gray,I
0.0,5.0,1.0,1.0,5.0,0.0,0.0,2.0,1.0,phase_2,stop,150.0,350.0,4.0,,,,,,,,,white,hexagon
0.0,3.0,3.0,0.0,6.0,6.0,469.4412899998497,2.0,1.0,phase_2,go,200.0,350.0,1.0,,,,,,,,,green,cross
0.0,6.0,2.0,1.0,6.0,6.0,384.8720629998752,2.0,1.0,phase_2,stop,200.0,350.0,3.0,,,,,,,,,magenta,diamond
0.0,1.0,1.0,0.0,5.0,5.0,326.3542330000746,2.0,1.0,phase_2,go,200.0,300.0,1.0,,,,,,,,,gray,I
0.0,1.0,1.0,0.0,6.0,6.0,343.3417090000148,2.0,1.0,phase_2,go,200.0,300.0,1.0,,,,,,,,,gray,I
0.0,1.0,1.0,0.0,6.0,6.0,441.3084920001893,2.0,1.0,phase_2,go,200.0,300.0,1.0,,,,,,,,,gray,I
0.0,3.0,3.0,0.0,5.0,5.0,392.1781779999946,2.0,1.0,phase_2,go,200.0,300.0,1.0,,,,,,,,,green,cross
0.0,8.0,4.0,1.0,6.0,6.0,348.4786630001508,2.0,1.0,phase_2,stop,200.0,300.0,3.0,,,,,,,,,cyan,triangle
0.0,5.0,1.0,1.0,6.0,6.0,459.6925400001055,2.0,1.0,phase_2,go,200.0,250.0,1.0,,,,,,,,,white,hexagon
0.0,1.0,1.0,0.0,6.0,6.0,466.3111800000479,2.0,1.0,phase_2,go,200.0,250.0,1.0,,,,,,,,,gray,I
0.0,1.0,1.0,0.0,5.0,5.0,539.1006810000363,2.0,1.0,phase_2,go,200.0,250.0,1.0,,,,,,,,,gray,I
0.0,8.0,4.0,1.0,6.0,6.0,308.3290350000425,2.0,1.0,phase_2,stop,200.0,250.0,3.0,,,,,,,,,cyan,triangle
0.0,1.0,1.0,0.0,5.0,5.0,383.6788359999445,2.0,1.0,phase_2,go,200.0,200.0,1.0,,,,,,,,,gray,I
0.0,2.0,2.0,0.0,5.0,5.0,494.5276610001201,2.0,1.0,phase_2,go,200.0,200.0,1.0,,,,,,,,,orange,square
0.0,7.0,3.0,1.0,5.0,5.0,305.2095950001785,2.0,1.0,phase_2,stop,200.0,200.0,3.0,,,,,,,,,blue,flipped triangle
0.0,6.0,2.0,1.0,5.0,5.0,399.5180389997586,2.0,1.0,phase_2,go,150.0,200.0,1.0,,,,,,,,,magenta,diamond
0.0,5.0,1.0,1.0,6.0,0.0,0.0,2.0,1.0,phase_2,stop,150.0,200.0,4.0,,,,,,,,,white,hexagon
0.0,3.0,3.0,0.0,6.0,6.0,507.4016359999405,2.0,1.0,phase_2,go,150.0,250.0,1.0,,,,,,,,,green,cross
0.0,7.0,3.0,1.0,5.0,0.0,0.0,2.0,1.0,phase_2,stop,150.0,250.0,4.0,,,,,,,,,blue,flipped triangle
0.0,4.0,4.0,0.0,6.0,6.0,338.3111699999972,2.0,1.0,phase_2,go,200.0,250.0,1.0,,,,,,,,,yellow,circle
0.0,2.0,2.0,0.0,6.0,6.0,345.5547209996439,2.0,1.0,phase_2,go,200.0,250.0,1.0,,,,,,,,,orange,square
0.0,5.0,1.0,1.0,5.0,0.0,0.0,2.0,1.0,phase_2,stop,200.0,250.0,4.0,,,,,,,,,white,hexagon
0.0,3.0,3.0,0.0,5.0,5.0,425.6097510001382,2.0,1.0,phase_2,go,250.0,250.0,1.0,,,,,,,,,green,cross
0.0,8.0,4.0,1.0,5.0,5.0,345.4422310001064,2.0,1.0,phase_2,stop,250.0,250.0,3.0,,,,,,,,,cyan,triangle
0.0,1.0,1.0,0.0,6.0,6.0,392.3800800002937,2.0,1.0,phase_2,go,200.0,250.0,1.0,,,,,,,,,gray,I
0.0,3.0,3.0,0.0,6.0,6.0,410.2473920002012,3.0,1.0,phase_2,go,200.0,250.0,1.0,,,,,,,,,green,cross
0.0,4.0,4.0,0.0,6.0,6.0,274.2753970001104,3.0,1.0,phase_2,go,200.0,250.0,1.0,,,,,,,,,yellow,circle
0.0,8.0,4.0,1.0,6.0,0.0,0.0,3.0,1.0,phase_2,stop,200.0,250.0,4.0,,,,,,,,,cyan,triangle
0.0,2.0,2.0,0.0,5.0,5.0,388.9570250003089,3.0,1.0,phase_2,go,200.0,300.0,1.0,,,,,,,,,orange,square
0.0,7.0,3.0,1.0,5.0,0.0,0.0,3.0,1.0,phase_2,stop,200.0,300.0,4.0,,,,,,,,,blue,flipped triangle
0.0,8.0,4.0,1.0,5.0,5.0,354.6197900000152,3.0,1.0,phase_2,stop,250.0,300.0,3.0,,,,,,,,,cyan,triangle
0.0,8.0,4.0,1.0,6.0,6.0,299.9208900000667,3.0,1.0,phase_2,stop,200.0,300.0,3.0,,,,,,,,,cyan,triangle
0.0,8.0,4.0,1.0,5.0,5.0,276.904469999863,3.0,1.0,phase_2,go,200.0,250.0,1.0,,,,,,,,,cyan,triangle
0.0,1.0,1.0,0.0,5.0,5.0,291.83364599975897,3.0,1.0,phase_2,go,200.0,250.0,1.0,,,,,,,,,gray,I
0.0,2.0,2.0,0.0,6.0,6.0,295.116648000203,3.0,1.0,phase_2,go,200.0,250.0,1.0,,,,,,,,,orange,square
0.0,8.0,4.0,1.0,6.0,6.0,308.2034349999958,3.0,1.0,phase_2,go,200.0,250.0,1.0,,,,,,,,,cyan,triangle
0.0,2.0,2.0,0.0,6.0,6.0,506.86228399990796,3.0,1.0,phase_2,go,200.0,250.0,1.0,,,,,,,,,orange,square
0.0,2.0,2.0,0.0,5.0,5.0,278.8277710001239,3.0,1.0,phase_2,go,200.0,250.0,1.0,,,,,,,,,orange,square
0.0,7.0,3.0,1.0,5.0,5.0,345.5014179999125,3.0,1.0,phase_2,stop,200.0,250.0,3.0,,,,,,,,,blue,flipped triangle
0.0,5.0,1.0,1.0,6.0,6.0,288.5506110001188,3.0,1.0,phase_2,stop,150.0,250.0,3.0,,,,,,,,,white,hexagon
0.0,6.0,2.0,1.0,6.0,0.0,0.0,3.0,1.0,phase_2,stop,150.0,200.0,4.0,,,,,,,,,magenta,diamond
0.0,6.0,2.0,1.0,5.0,5.0,426.8017239996879,3.0,1.0,phase_2,go,150.0,250.0,1.0,,,,,,,,,magenta,diamond
0.0,1.0,1.0,0.0,5.0,5.0,411.1593279999397,3.0,1.0,phase_2,go,150.0,250.0,1.0,,,,,,,,,gray,I
0.0,3.0,3.0,0.0,5.0,5.0,299.5949539999856,3.0,1.0,phase_2,go,150.0,250.0,1.0,,,,,,,,,green,cross
0.0,5.0,1.0,1.0,5.0,0.0,0.0,3.0,1.0,phase_2,stop,150.0,250.0,4.0,,,,,,,,,white,hexagon
0.0,8.0,4.0,1.0,5.0,0.0,0.0,3.0,1.0,phase_2,stop,200.0,250.0,4.0,,,,,,,,,cyan,triangle
0.0,2.0,2.0,0.0,5.0,5.0,426.7002619999402,3.0,1.0,phase_2,go,250.0,250.0,1.0,,,,,,,,,orange,square
0.0,6.0,2.0,1.0,5.0,5.0,440.5012450001777,3.0,1.0,phase_2,stop,250.0,250.0,3.0,,,,,,,,,magenta,diamond
0.0,1.0,1.0,0.0,6.0,6.0,448.2940600000802,3.0,1.0,phase_2,go,200.0,250.0,1.0,,,,,,,,,gray,I
0.0,6.0,2.0,1.0,5.0,0.0,0.0,3.0,1.0,phase_2,stop,200.0,250.0,4.0,,,,,,,,,magenta,diamond
0.0,5.0,1.0,1.0,5.0,0.0,0.0,3.0,1.0,phase_2,stop,250.0,250.0,4.0,,,,,,,,,white,hexagon
0.0,8.0,4.0,1.0,6.0,6.0,422.5043950000327,3.0,1.0,phase_2,go,300.0,250.0,1.0,,,,,,,,,cyan,triangle
0.0,2.0,2.0,0.0,6.0,6.0,404.9539030002052,3.0,1.0,phase_2,go,300.0,250.0,1.0,,,,,,,,,orange,square
0.0,8.0,4.0,1.0,5.0,0.0,0.0,3.0,1.0,phase_2,stop,300.0,250.0,4.0,,,,,,,,,cyan,triangle
0.0,5.0,1.0,1.0,6.0,6.0,444.3740049996449,3.0,1.0,phase_2,stop,350.0,250.0,3.0,,,,,,,,,white,hexagon
0.0,4.0,4.0,0.0,5.0,5.0,769.4409790001373,3.0,1.0,phase_2,go,350.0,200.0,1.0,,,,,,,,,yellow,circle
0.0,5.0,1.0,1.0,6.0,0.0,0.0,3.0,1.0,phase_2,stop,350.0,200.0,4.0,,,,,,,,,white,hexagon
0.0,8.0,4.0,1.0,6.0,6.0,574.156622999908,3.0,1.0,phase_2,go,350.0,250.0,1.0,,,,,,,,,cyan,triangle
0.0,2.0,2.0,0.0,5.0,5.0,500.2612430002955,3.0,1.0,phase_2,go,350.0,250.0,1.0,,,,,,,,,orange,square
0.0,2.0,2.0,0.0,6.0,6.0,358.9454509997267,3.0,1.0,phase_2,go,350.0,250.0,1.0,,,,,,,,,orange,square
0.0,6.0,2.0,1.0,6.0,0.0,0.0,3.0,1.0,phase_2,stop,350.0,250.0,4.0,,,,,,,,,magenta,diamond
0.0,8.0,4.0,1.0,5.0,0.0,0.0,4.0,1.0,phase_2,stop,350.0,300.0,4.0,,,,,,,,,cyan,triangle
0.0,8.0,4.0,1.0,5.0,5.0,435.6890060003024,4.0,1.0,phase_2,stop,400.0,300.0,3.0,,,,,,,,,cyan,triangle
0.0,7.0,3.0,1.0,6.0,6.0,436.1317289999533,4.0,1.0,phase_2,go,350.0,300.0,1.0,,,,,,,,,blue,flipped triangle
0.0,8.0,4.0,1.0,5.0,5.0,389.6701740000026,4.0,1.0,phase_2,stop,350.0,300.0,3.0,,,,,,,,,cyan,triangle
0.0,8.0,4.0,1.0,6.0,0.0,0.0,4.0,1.0,phase_2,stop,300.0,300.0,4.0,,,,,,,,,cyan,triangle
0.0,4.0,4.0,0.0,6.0,6.0,551.59699800015,4.0,1.0,phase_2,go,300.0,350.0,1.0,,,,,,,,,yellow,circle
0.0,4.0,4.0,0.0,6.0,6.0,643.3690610001577,4.0,1.0,phase_2,go,300.0,350.0,1.0,,,,,,,,,yellow,circle
0.0,6.0,2.0,1.0,6.0,6.0,307.5008670002717,4.0,1.0,phase_2,stop,300.0,350.0,3.0,,,,,,,,,magenta,diamond
0.0,5.0,1.0,1.0,5.0,5.0,527.026873000068,4.0,1.0,phase_2,go,300.0,300.0,1.0,,,,,,,,,white,hexagon
0.0,3.0,3.0,0.0,6.0,6.0,301.5821700000742,4.0,1.0,phase_2,go,300.0,300.0,1.0,,,,,,,,,green,cross
0.0,1.0,1.0,0.0,6.0,6.0,307.6126440000735,4.0,1.0,phase_2,go,300.0,300.0,1.0,,,,,,,,,gray,I
0.0,5.0,1.0,1.0,6.0,6.0,299.8888040001475,4.0,1.0,phase_2,stop,300.0,300.0,3.0,,,,,,,,,white,hexagon
0.0,7.0,3.0,1.0,6.0,6.0,429.6888730000319,4.0,1.0,phase_2,stop,300.0,250.0,3.0,,,,,,,,,blue,flipped triangle
0.0,6.0,2.0,1.0,5.0,0.0,0.0,4.0,1.0,phase_2,stop,300.0,200.0,4.0,,,,,,,,,magenta,diamond
0.0,6.0,2.0,1.0,6.0,6.0,399.109769000006,4.0,1.0,phase_2,go,350.0,200.0,1.0,,,,,,,,,magenta,diamond
0.0,1.0,1.0,0.0,6.0,6.0,451.1655690002953,4.0,1.0,phase_2,go,350.0,200.0,1.0,,,,,,,,,gray,I
0.0,2.0,2.0,0.0,6.0,6.0,450.740918000065,4.0,1.0,phase_2,go,350.0,200.0,1.0,,,,,,,,,orange,square
0.0,4.0,4.0,0.0,6.0,6.0,263.9459570000326,4.0,1.0,phase_2,go,350.0,200.0,1.0,,,,,,,,,yellow,circle
0.0,1.0,1.0,0.0,5.0,5.0,516.7170099998657,4.0,1.0,phase_2,go,350.0,200.0,1.0,,,,,,,,,gray,I
0.0,5.0,1.0,1.0,5.0,5.0,335.7969849998881,4.0,1.0,phase_2,go,350.0,200.0,1.0,,,,,,,,,white,hexagon
0.0,5.0,1.0,1.0,6.0,6.0,369.0848209998876,4.0,1.0,phase_2,stop,350.0,200.0,3.0,,,,,,,,,white,hexagon
0.0,3.0,3.0,0.0,5.0,5.0,562.408341000264,4.0,1.0,phase_2,go,350.0,150.0,1.0,,,,,,,,,green,cross
0.0,3.0,3.0,0.0,6.0,6.0,556.5293360000396,4.0,1.0,phase_2,go,350.0,150.0,1.0,,,,,,,,,green,cross
0.0,1.0,1.0,0.0,6.0,6.0,369.5788139998512,4.0,1.0,phase_2,go,350.0,150.0,1.0,,,,,,,,,gray,I
0.0,4.0,4.0,0.0,5.0,5.0,346.2338650001584,4.0,1.0,phase_2,go,350.0,150.0,1.0,,,,,,,,,yellow,circle
0.0,3.0,3.0,0.0,5.0,5.0,374.2094849999375,4.0,1.0,phase_2,go,350.0,150.0,1.0,,,,,,,,,green,cross
0.0,3.0,3.0,0.0,5.0,5.0,337.9979299998012,4.0,1.0,phase_2,go,350.0,150.0,1.0,,,,,,,,,green,cross
0.0,6.0,2.0,1.0,6.0,6.0,301.9038520001231,4.0,1.0,phase_2,stop,350.0,150.0,3.0,,,,,,,,,magenta,diamond
0.0,7.0,3.0,1.0,6.0,0.0,0.0,4.0,1.0,phase_2,stop,350.0,100.0,4.0,,,,,,,,,blue,flipped triangle
0.0,6.0,2.0,1.0,5.0,5.0,384.0482760001578,4.0,1.0,phase_2,stop,350.0,150.0,3.0,,,,,,,,,magenta,diamond
0.0,4.0,4.0,0.0,5.0,5.0,411.5512040002613,4.0,1.0,phase_2,go,300.0,150.0,1.0,,,,,,,,,yellow,circle
0.0,3.0,3.0,0.0,6.0,6.0,255.5235529998754,4.0,1.0,phase_2,go,300.0,150.0,1.0,,,,,,,,,green,cross
0.0,7.0,3.0,1.0,6.0,0.0,0.0,4.0,1.0,phase_2,stop,300.0,150.0,4.0,,,,,,,,,blue,flipped triangle
0.0,7.0,3.0,1.0,5.0,5.0,390.94985400015497,4.0,1.0,phase_2,go,300.0,200.0,1.0,,,,,,,,,blue,flipped triangle
0.0,4.0,4.0,0.0,6.0,6.0,407.1246889998292,4.0,1.0,phase_2,go,300.0,200.0,1.0,,,,,,,,,yellow,circle
0.0,1.0,1.0,0.0,5.0,5.0,251.0672710000108,4.0,1.0,phase_2,go,300.0,200.0,1.0,,,,,,,,,gray,I
0.0,3.0,3.0,0.0,5.0,5.0,414.3461479998223,5.0,1.0,phase_2,go,300.0,200.0,1.0,,,,,,,,,green,cross
0.0,6.0,2.0,1.0,5.0,5.0,265.5030000000806,5.0,1.0,phase_2,stop,300.0,200.0,3.0,,,,,,,,,magenta,diamond
0.0,5.0,1.0,1.0,6.0,6.0,257.5105079999957,5.0,1.0,phase_2,stop,250.0,200.0,3.0,,,,,,,,,white,hexagon
0.0,2.0,2.0,0.0,5.0,5.0,319.0641889996186,5.0,1.0,phase_2,go,250.0,150.0,1.0,,,,,,,,,orange,square
0.0,8.0,4.0,1.0,6.0,6.0,256.4052129996526,5.0,1.0,phase_2,stop,250.0,150.0,3.0,,,,,,,,,cyan,triangle
0.0,3.0,3.0,0.0,6.0,6.0,610.0570090002293,5.0,1.0,phase_2,go,250.0,100.0,1.0,,,,,,,,,green,cross
0.0,1.0,1.0,0.0,6.0,6.0,480.9094330003063,5.0,1.0,phase_2,go,250.0,100.0,1.0,,,,,,,,,gray,I
0.0,8.0,4.0,1.0,6.0,6.0,577.3022160001346,5.0,1.0,phase_2,go,250.0,100.0,1.0,,,,,,,,,cyan,triangle
0.0,1.0,1.0,0.0,6.0,6.0,316.8815200001518,5.0,1.0,phase_2,go,250.0,100.0,1.0,,,,,,,,,gray,I
0.0,6.0,2.0,1.0,5.0,5.0,327.5066589999369,5.0,1.0,phase_2,stop,250.0,100.0,3.0,,,,,,,,,magenta,diamond
0.0,4.0,4.0,0.0,5.0,5.0,546.7354839997824,5.0,1.0,phase_2,go,200.0,100.0,1.0,,,,,,,,,yellow,circle
0.0,8.0,4.0,1.0,6.0,6.0,319.1222669997842,5.0,1.0,phase_2,stop,200.0,100.0,3.0,,,,,,,,,cyan,triangle
0.0,4.0,4.0,0.0,5.0,5.0,493.5413230000449,5.0,1.0,phase_2,go,200.0,50.0,1.0,,,,,,,,,yellow,circle
0.0,7.0,3.0,1.0,6.0,0.0,0.0,5.0,1.0,phase_2,stop,200.0,50.0,4.0,,,,,,,,,blue,flipped triangle
0.0,7.0,3.0,1.0,6.0,0.0,0.0,5.0,1.0,phase_2,stop,200.0,100.0,4.0,,,,,,,,,blue,flipped triangle
0.0,3.0,3.0,0.0,5.0,5.0,495.4187849998561,5.0,1.0,phase_2,go,200.0,150.0,1.0,,,,,,,,,green,cross
0.0,8.0,4.0,1.0,5.0,0.0,0.0,5.0,1.0,phase_2,stop,200.0,150.0,4.0,,,,,,,,,cyan,triangle
0.0,2.0,2.0,0.0,6.0,6.0,318.4169599999222,5.0,1.0,phase_2,go,250.0,150.0,1.0,,,,,,,,,orange,square
0.0,4.0,4.0,0.0,5.0,5.0,353.700521999599,5.0,1.0,phase_2,go,250.0,150.0,1.0,,,,,,,,,yellow,circle
0.0,6.0,2.0,1.0,6.0,0.0,0.0,5.0,1.0,phase_2,stop,250.0,150.0,4.0,,,,,,,,,magenta,diamond
0.0,7.0,3.0,1.0,5.0,5.0,355.522521000239,5.0,1.0,phase_2,stop,250.0,200.0,3.0,,,,,,,,,blue,flipped triangle
0.0,6.0,2.0,1.0,5.0,0.0,0.0,5.0,1.0,phase_2,stop,200.0,200.0,4.0,,,,,,,,,magenta,diamond
0.0,3.0,3.0,0.0,5.0,5.0,509.6471839997321,5.0,1.0,phase_2,go,250.0,200.0,1.0,,,,,,,,,green,cross
0.0,3.0,3.0,0.0,5.0,5.0,363.7572460002047,5.0,1.0,phase_2,go,250.0,200.0,1.0,,,,,,,,,green,cross
0.0,3.0,3.0,0.0,6.0,6.0,382.6114479998068,5.0,1.0,phase_2,go,250.0,200.0,1.0,,,,,,,,,green,cross
0.0,7.0,3.0,1.0,6.0,0.0,0.0,5.0,1.0,phase_2,stop,250.0,200.0,4.0,,,,,,,,,blue,flipped triangle
0.0,4.0,4.0,0.0,6.0,6.0,439.2026420000547,5.0,1.0,phase_2,go,250.0,250.0,1.0,,,,,,,,,yellow,circle
0.0,5.0,1.0,1.0,6.0,6.0,394.7813580007278,5.0,1.0,phase_2,go,250.0,250.0,1.0,,,,,,,,,white,hexagon
0.0,6.0,2.0,1.0,5.0,5.0,474.0464599999541,5.0,1.0,phase_2,go,250.0,250.0,1.0,,,,,,,,,magenta,diamond
0.0,5.0,1.0,1.0,6.0,0.0,0.0,5.0,1.0,phase_2,stop,250.0,250.0,4.0,,,,,,,,,white,hexagon
0.0,7.0,3.0,1.0,6.0,0.0,0.0,5.0,1.0,phase_2,stop,250.0,300.0,4.0,,,,,,,,,blue,flipped triangle
0.0,2.0,2.0,0.0,5.0,5.0,431.8135649991745,5.0,1.0,phase_2,go,250.0,350.0,1.0,,,,,,,,,orange,square
0.0,7.0,3.0,1.0,5.0,0.0,0.0,5.0,1.0,phase_2,stop,250.0,350.0,4.0,,,,,,,,,blue,flipped triangle
0.0,2.0,2.0,0.0,6.0,6.0,380.6244589995913,5.0,1.0,phase_2,go,300.0,350.0,1.0,,,,,,,,,orange,square
0.0,5.0,1.0,1.0,5.0,5.0,471.3105729997551,5.0,1.0,phase_2,go,300.0,350.0,1.0,,,,,,,,,white,hexagon
0.0,8.0,4.0,1.0,6.0,6.0,685.84122700031,5.0,1.0,phase_2,stop,300.0,350.0,3.0,,,,,,,,,cyan,triangle
0.0,3.0,3.0,0.0,6.0,6.0,480.9524550000787,6.0,1.0,phase_2,go,300.0,300.0,1.0,,,,,,,,,green,cross
0.0,3.0,3.0,0.0,5.0,5.0,349.1473300000507,6.0,1.0,phase_2,go,300.0,300.0,1.0,,,,,,,,,green,cross
0.0,8.0,4.0,1.0,6.0,0.0,0.0,6.0,1.0,phase_2,stop,300.0,300.0,4.0,,,,,,,,,cyan,triangle
0.0,4.0,4.0,0.0,5.0,5.0,364.9861439998858,6.0,1.0,phase_2,go,300.0,350.0,1.0,,,,,,,,,yellow,circle
0.0,3.0,3.0,0.0,6.0,6.0,414.6553279997533,6.0,1.0,phase_2,go,300.0,350.0,1.0,,,,,,,,,green,cross
0.0,6.0,2.0,1.0,6.0,6.0,403.8397419999455,6.0,1.0,phase_2,go,300.0,350.0,1.0,,,,,,,,,magenta,diamond
0.0,2.0,2.0,0.0,6.0,6.0,434.7870350002267,6.0,1.0,phase_2,go,300.0,350.0,1.0,,,,,,,,,orange,square
0.0,4.0,4.0,0.0,5.0,5.0,375.4101690001334,6.0,1.0,phase_2,go,300.0,350.0,1.0,,,,,,,,,yellow,circle
0.0,1.0,1.0,0.0,6.0,6.0,421.1897839995799,6.0,1.0,phase_2,go,300.0,350.0,1.0,,,,,,,,,gray,I
0.0,2.0,2.0,0.0,5.0,5.0,464.7740300006262,6.0,1.0,phase_2,go,300.0,350.0,1.0,,,,,,,,,orange,square
0.0,7.0,3.0,1.0,5.0,0.0,0.0,6.0,1.0,phase_2,stop,300.0,350.0,4.0,,,,,,,,,blue,flipped triangle
0.0,3.0,3.0,0.0,6.0,6.0,312.4808530001246,6.0,1.0,phase_2,go,350.0,350.0,1.0,,,,,,,,,green,cross
0.0,8.0,4.0,1.0,6.0,0.0,0.0,6.0,1.0,phase_2,stop,350.0,350.0,4.0,,,,,,,,,cyan,triangle
0.0,3.0,3.0,0.0,5.0,5.0,343.4889979998843,6.0,1.0,phase_2,go,350.0,400.0,1.0,,,,,,,,,green,cross
0.0,4.0,4.0,0.0,5.0,5.0,307.5002469995525,6.0,1.0,phase_2,go,350.0,400.0,1.0,,,,,,,,,yellow,circle
0.0,8.0,4.0,1.0,5.0,0.0,0.0,6.0,1.0,phase_2,stop,350.0,400.0,4.0,,,,,,,,,cyan,triangle
0.0,3.0,3.0,0.0,5.0,5.0,379.4069839996155,6.0,1.0,phase_2,go,400.0,400.0,1.0,,,,,,,,,green,cross
0.0,2.0,2.0,0.0,6.0,6.0,307.4171339994791,6.0,1.0,phase_2,go,400.0,400.0,1.0,,,,,,,,,orange,square
0.0,3.0,3.0,0.0,6.0,6.0,379.2372799998702,6.0,1.0,phase_2,go,400.0,400.0,1.0,,,,,,,,,green,cross
0.0,4.0,4.0,0.0,5.0,5.0,407.47370400004,6.0,1.0,phase_2,go,400.0,400.0,1.0,,,,,,,,,yellow,circle
0.0,7.0,3.0,1.0,5.0,5.0,814.8453230005543,6.0,1.0,phase_2,go,400.0,400.0,1.0,,,,,,,,,blue,flipped triangle
0.0,7.0,3.0,1.0,5.0,5.0,635.7448549997571,6.0,1.0,phase_2,stop,400.0,400.0,3.0,,,,,,,,,blue,flipped triangle
0.0,4.0,4.0,0.0,5.0,5.0,377.9197949997979,6.0,1.0,phase_2,go,350.0,400.0,1.0,,,,,,,,,yellow,circle
0.0,1.0,1.0,0.0,5.0,5.0,397.8262990003713,6.0,1.0,phase_2,go,350.0,400.0,1.0,,,,,,,,,gray,I
0.0,5.0,1.0,1.0,5.0,5.0,330.9015430004365,6.0,1.0,phase_2,stop,350.0,400.0,3.0,,,,,,,,,white,hexagon
0.0,8.0,4.0,1.0,5.0,5.0,864.1074739998658,6.0,1.0,phase_2,go,300.0,400.0,1.0,,,,,,,,,cyan,triangle
0.0,3.0,3.0,0.0,5.0,5.0,352.193165999779,6.0,1.0,phase_2,go,300.0,400.0,1.0,,,,,,,,,green,cross
0.0,2.0,2.0,0.0,5.0,5.0,341.0524520004401,6.0,1.0,phase_2,go,300.0,400.0,1.0,,,,,,,,,orange,square
0.0,8.0,4.0,1.0,6.0,0.0,0.0,6.0,1.0,phase_2,stop,300.0,400.0,4.0,,,,,,,,,cyan,triangle
0.0,4.0,4.0,0.0,6.0,6.0,383.7972560004346,6.0,1.0,phase_2,go,300.0,450.0,1.0,,,,,,,,,yellow,circle
0.0,5.0,1.0,1.0,5.0,5.0,335.7070590000148,6.0,1.0,phase_2,stop,300.0,450.0,3.0,,,,,,,,,white,hexagon
0.0,8.0,4.0,1.0,5.0,5.0,817.4215899998671,6.0,1.0,phase_2,go,250.0,450.0,1.0,,,,,,,,,cyan,triangle
0.0,6.0,2.0,1.0,6.0,6.0,552.3253580004166,6.0,1.0,phase_2,stop,250.0,450.0,3.0,,,,,,,,,magenta,diamond
0.0,5.0,1.0,1.0,5.0,0.0,0.0,6.0,1.0,phase_2,stop,250.0,400.0,4.0,,,,,,,,,white,hexagon
0.0,8.0,4.0,1.0,5.0,0.0,0.0,6.0,1.0,phase_2,stop,300.0,400.0,4.0,,,,,,,,,cyan,triangle
0.0,5.0,1.0,1.0,6.0,6.0,840.8936440000616,6.0,1.0,phase_2,go,350.0,400.0,1.0,,,,,,,,,white,hexagon
0.0,6.0,2.0,1.0,6.0,6.0,469.1955990001588,7.0,1.0,phase_2,go,350.0,400.0,1.0,,,,,,,,,magenta,diamond
0.0,2.0,2.0,0.0,6.0,6.0,348.4311919992251,7.0,1.0,phase_2,go,350.0,400.0,1.0,,,,,,,,,orange,square
0.0,6.0,2.0,1.0,6.0,6.0,476.8479360000128,7.0,1.0,phase_2,stop,350.0,400.0,3.0,,,,,,,,,magenta,diamond
0.0,4.0,4.0,0.0,6.0,6.0,375.4372019993752,7.0,1.0,phase_2,go,350.0,350.0,1.0,,,,,,,,,yellow,circle
0.0,7.0,3.0,1.0,5.0,5.0,398.4174800007167,7.0,1.0,phase_2,stop,350.0,350.0,3.0,,,,,,,,,blue,flipped triangle
0.0,1.0,1.0,0.0,5.0,5.0,499.5765639996534,7.0,1.0,phase_2,go,300.0,350.0,1.0,,,,,,,,,gray,I
0.0,7.0,3.0,1.0,6.0,6.0,664.3606019997605,7.0,1.0,phase_2,go,300.0,350.0,1.0,,,,,,,,,blue,flipped triangle
0.0,5.0,1.0,1.0,6.0,6.0,451.1594759997024,7.0,1.0,phase_2,go,300.0,350.0,1.0,,,,,,,,,white,hexagon
0.0,5.0,1.0,1.0,6.0,6.0,330.9379100001024,7.0,1.0,phase_2,stop,300.0,350.0,3.0,,,,,,,,,white,hexagon
0.0,2.0,2.0,0.0,6.0,6.0,608.139783000297,7.0,1.0,phase_2,go,300.0,300.0,1.0,,,,,,,,,orange,square
0.0,3.0,3.0,0.0,5.0,5.0,504.2157710004176,7.0,1.0,phase_2,go,300.0,300.0,1.0,,,,,,,,,green,cross
0.0,6.0,2.0,1.0,5.0,0.0,0.0,7.0,1.0,phase_2,stop,300.0,300.0,4.0,,,,,,,,,magenta,diamond
0.0,4.0,4.0,0.0,5.0,5.0,365.7368430003771,7.0,1.0,phase_2,go,350.0,300.0,1.0,,,,,,,,,yellow,circle
0.0,4.0,4.0,0.0,6.0,6.0,398.3392370000729,7.0,1.0,phase_2,go,350.0,300.0,1.0,,,,,,,,,yellow,circle
0.0,2.0,2.0,0.0,5.0,5.0,500.0040929999159,7.0,1.0,phase_2,go,350.0,300.0,1.0,,,,,,,,,orange,square
0.0,5.0,1.0,1.0,5.0,5.0,470.2568840002641,7.0,1.0,phase_2,go,350.0,300.0,1.0,,,,,,,,,white,hexagon
0.0,3.0,3.0,0.0,5.0,5.0,417.4445489998106,7.0,1.0,phase_2,go,350.0,300.0,1.0,,,,,,,,,green,cross
0.0,6.0,2.0,1.0,6.0,0.0,0.0,7.0,1.0,phase_2,stop,350.0,300.0,4.0,,,,,,,,,magenta,diamond
0.0,3.0,3.0,0.0,5.0,5.0,377.3393550000037,7.0,1.0,phase_2,go,350.0,350.0,1.0,,,,,,,,,green,cross
0.0,5.0,1.0,1.0,5.0,5.0,447.278906000065,7.0,1.0,phase_2,stop,350.0,350.0,3.0,,,,,,,,,white,hexagon
0.0,4.0,4.0,0.0,5.0,5.0,361.279344999275,7.0,1.0,phase_2,go,300.0,350.0,1.0,,,,,,,,,yellow,circle
0.0,7.0,3.0,1.0,6.0,6.0,271.8765789995814,7.0,1.0,phase_2,stop,300.0,350.0,3.0,,,,,,,,,blue,flipped triangle
0.0,6.0,2.0,1.0,6.0,0.0,0.0,7.0,1.0,phase_2,stop,300.0,300.0,4.0,,,,,,,,,magenta,diamond
0.0,7.0,3.0,1.0,6.0,6.0,534.4250380003359,7.0,1.0,phase_2,stop,300.0,350.0,3.0,,,,,,,,,blue,flipped triangle
0.0,2.0,2.0,0.0,6.0,6.0,359.7625359998346,7.0,1.0,phase_2,go,300.0,300.0,1.0,,,,,,,,,orange,square
0.0,7.0,3.0,1.0,6.0,0.0,0.0,7.0,1.0,phase_2,stop,300.0,300.0,4.0,,,,,,,,,blue,flipped triangle
0.0,4.0,4.0,0.0,6.0,6.0,478.5570469994127,7.0,1.0,phase_2,go,300.0,350.0,1.0,,,,,,,,,yellow,circle
0.0,5.0,1.0,1.0,5.0,0.0,0.0,7.0,1.0,phase_2,stop,300.0,350.0,4.0,,,,,,,,,white,hexagon
0.0,5.0,1.0,1.0,6.0,0.0,0.0,7.0,1.0,phase_2,stop,350.0,350.0,4.0,,,,,,,,,white,hexagon
0.0,1.0,1.0,0.0,6.0,6.0,620.0517119996221,7.0,1.0,phase_2,go,350.0,400.0,1.0,,,,,,,,,gray,I
0.0,6.0,2.0,1.0,6.0,0.0,0.0,7.0,1.0,phase_2,stop,350.0,400.0,4.0,,,,,,,,,magenta,diamond
0.0,1.0,1.0,0.0,5.0,5.0,558.7402749997636,7.0,1.0,phase_2,go,350.0,450.0,1.0,,,,,,,,,gray,I
0.0,1.0,1.0,0.0,5.0,5.0,615.6940789996952,7.0,1.0,phase_2,go,350.0,450.0,1.0,,,,,,,,,gray,I
0.0,2.0,2.0,0.0,5.0,5.0,948.0570769992482,7.0,1.0,phase_2,go,350.0,450.0,1.0,,,,,,,,,orange,square
0.0,6.0,2.0,1.0,6.0,0.0,0.0,7.0,1.0,phase_2,stop,350.0,450.0,4.0,,,,,,,,,magenta,diamond
0.0,6.0,2.0,1.0,5.0,5.0,450.3142499997921,7.0,1.0,phase_2,stop,350.0,500.0,3.0,,,,,,,,,magenta,diamond
0.0,4.0,4.0,0.0,6.0,6.0,507.9827389999991,8.0,1.0,phase_2,go,300.0,500.0,1.0,,,,,,,,,yellow,circle
0.0,1.0,1.0,0.0,5.0,5.0,276.7849530000603,8.0,1.0,phase_2,go,300.0,500.0,1.0,,,,,,,,,gray,I
0.0,6.0,2.0,1.0,6.0,6.0,280.8460890000788,8.0,1.0,phase_2,stop,300.0,500.0,3.0,,,,,,,,,magenta,diamond
0.0,4.0,4.0,0.0,5.0,5.0,351.219666000361,8.0,1.0,phase_2,go,300.0,450.0,1.0,,,,,,,,,yellow,circle
0.0,7.0,3.0,1.0,5.0,5.0,333.2889249995787,8.0,1.0,phase_2,stop,300.0,450.0,3.0,,,,,,,,,blue,flipped triangle
0.0,2.0,2.0,0.0,5.0,5.0,304.4313560003502,8.0,1.0,phase_2,go,250.0,450.0,1.0,,,,,,,,,orange,square
0.0,1.0,1.0,0.0,6.0,6.0,253.75133699981228,8.0,1.0,phase_2,go,250.0,450.0,1.0,,,,,,,,,gray,I
0.0,2.0,2.0,0.0,6.0,6.0,290.0110700002187,8.0,1.0,phase_2,go,250.0,450.0,1.0,,,,,,,,,orange,square
0.0,7.0,3.0,1.0,6.0,6.0,258.3993850003026,8.0,1.0,phase_2,stop,250.0,450.0,3.0,,,,,,,,,blue,flipped triangle
0.0,7.0,3.0,1.0,5.0,0.0,0.0,8.0,1.0,phase_2,stop,250.0,400.0,4.0,,,,,,,,,blue,flipped triangle
0.0,6.0,2.0,1.0,5.0,5.0,462.3935930003426,8.0,1.0,phase_2,stop,300.0,400.0,3.0,,,,,,,,,magenta,diamond
0.0,1.0,1.0,0.0,5.0,5.0,491.8109979998917,8.0,1.0,phase_2,go,250.0,400.0,1.0,,,,,,,,,gray,I
0.0,5.0,1.0,1.0,6.0,6.0,345.3912610002589,8.0,1.0,phase_2,stop,250.0,400.0,3.0,,,,,,,,,white,hexagon
0.0,4.0,4.0,0.0,6.0,6.0,658.8331470002231,8.0,1.0,phase_2,go,250.0,350.0,1.0,,,,,,,,,yellow,circle
0.0,2.0,2.0,0.0,5.0,5.0,274.3276560004233,8.0,1.0,phase_2,go,250.0,350.0,1.0,,,,,,,,,orange,square
0.0,4.0,4.0,0.0,5.0,5.0,340.4199169999629,8.0,1.0,phase_2,go,250.0,350.0,1.0,,,,,,,,,yellow,circle
0.0,1.0,1.0,0.0,5.0,5.0,361.7487280007481,8.0,1.0,phase_2,go,250.0,350.0,1.0,,,,,,,,,gray,I
0.0,4.0,4.0,0.0,5.0,5.0,320.3834399992047,8.0,1.0,phase_2,go,250.0,350.0,1.0,,,,,,,,,yellow,circle
0.0,8.0,4.0,1.0,5.0,5.0,331.0692559998642,8.0,1.0,phase_2,stop,250.0,350.0,3.0,,,,,,,,,cyan,triangle
0.0,6.0,2.0,1.0,5.0,5.0,390.2662630007398,8.0,1.0,phase_2,go,200.0,350.0,1.0,,,,,,,,,magenta,diamond
0.0,6.0,2.0,1.0,6.0,6.0,333.5850120001851,8.0,1.0,phase_2,stop,200.0,350.0,3.0,,,,,,,,,magenta,diamond
0.0,3.0,3.0,0.0,6.0,6.0,852.3040229993057,8.0,1.0,phase_2,go,200.0,300.0,1.0,,,,,,,,,green,cross
0.0,4.0,4.0,0.0,6.0,6.0,317.6773949999187,8.0,1.0,phase_2,go,200.0,300.0,1.0,,,,,,,,,yellow,circle
0.0,4.0,4.0,0.0,5.0,5.0,1164.422744000149,8.0,1.0,phase_2,go,200.0,300.0,1.0,,,,,,,,,yellow,circle
0.0,8.0,4.0,1.0,5.0,0.0,0.0,8.0,1.0,phase_2,stop,200.0,300.0,4.0,,,,,,,,,cyan,triangle
0.0,1.0,1.0,0.0,6.0,6.0,462.1217399999295,8.0,1.0,phase_2,go,250.0,300.0,1.0,,,,,,,,,gray,I
0.0,6.0,2.0,1.0,5.0,5.0,313.5563700006969,8.0,1.0,phase_2,stop,250.0,300.0,3.0,,,,,,,,,magenta,diamond
0.0,7.0,3.0,1.0,6.0,6.0,705.2973649997512,8.0,1.0,phase_2,go,200.0,300.0,1.0,,,,,,,,,blue,flipped triangle
0.0,6.0,2.0,1.0,5.0,0.0,0.0,8.0,1.0,phase_2,stop,200.0,300.0,4.0,,,,,,,,,magenta,diamond
0.0,5.0,1.0,1.0,6.0,6.0,333.2251100000576,8.0,1.0,phase_2,stop,250.0,300.0,3.0,,,,,,,,,white,hexagon
0.0,2.0,2.0,0.0,5.0,5.0,342.9922599998463,8.0,1.0,phase_2,go,250.0,250.0,1.0,,,,,,,,,orange,square
0.0,1.0,1.0,0.0,5.0,5.0,390.7192070000747,8.0,1.0,phase_2,go,250.0,250.0,1.0,,,,,,,,,gray,I
0.0,5.0,1.0,1.0,5.0,5.0,324.4856399996934,8.0,1.0,phase_2,go,250.0,250.0,1.0,,,,,,,,,white,hexagon
0.0,7.0,3.0,1.0,5.0,5.0,316.4468110007874,8.0,1.0,phase_2,go,250.0,250.0,1.0,,,,,,,,,blue,flipped triangle
0.0,4.0,4.0,0.0,6.0,6.0,264.1288599998006,8.0,1.0,phase_2,go,250.0,250.0,1.0,,,,,,,,,yellow,circle
0.0,3.0,3.0,0.0,6.0,6.0,312.6473220008847,8.0,1.0,phase_2,go,250.0,250.0,1.0,,,,,,,,,green,cross
0.0,3.0,3.0,0.0,7.0,3.0,2893.8604510003643,1.0,1.0,phase_3,,,,,147.0,3.0,245.0,98.0,147.0,196.0,49.0,294.0,green,cross
0.0,4.0,4.0,0.0,7.0,5.0,1919.542224999532,1.0,1.0,phase_3,,,,,39.0,1.0,234.0,117.0,195.0,156.0,39.0,78.0,yellow,circle
0.0,3.0,3.0,0.0,7.0,4.0,1485.2820759997485,1.0,1.0,phase_3,,,,,147.0,3.0,98.0,196.0,245.0,147.0,294.0,49.0,green,cross
0.0,7.0,3.0,1.0,7.0,1.0,1574.8725069997818,1.0,1.0,phase_3,,,,,234.0,6.0,234.0,156.0,78.0,117.0,195.0,39.0,blue,flipped triangle
0.0,5.0,1.0,1.0,7.0,2.0,1299.6212580001156,1.0,1.0,phase_3,,,,,39.0,1.0,234.0,39.0,195.0,117.0,156.0,78.0,white,hexagon
0.0,6.0,2.0,1.0,7.0,4.0,1568.7993640003697,1.0,1.0,phase_3,,,,,88.0,2.0,264.0,44.0,132.0,88.0,176.0,220.0,magenta,diamond
0.0,8.0,4.0,1.0,7.0,6.0,1214.471718999448,1.0,1.0,phase_3,,,,,294.0,6.0,98.0,49.0,147.0,196.0,245.0,294.0,cyan,triangle
0.0,8.0,4.0,1.0,7.0,4.0,1184.2415450000772,1.0,1.0,phase_3,,,,,270.0,5.0,54.0,162.0,324.0,270.0,216.0,108.0,cyan,triangle
0.0,1.0,1.0,0.0,7.0,4.0,1023.2898800004475,1.0,1.0,phase_3,,,,,39.0,1.0,117.0,234.0,195.0,39.0,156.0,78.0,gray,I
0.0,1.0,1.0,0.0,7.0,3.0,1383.140318000187,1.0,1.0,phase_3,,,,,39.0,1.0,234.0,156.0,39.0,117.0,195.0,78.0,gray,I
0.0,8.0,4.0,1.0,7.0,3.0,1908.5331870001028,1.0,1.0,phase_3,,,,,264.0,6.0,44.0,176.0,264.0,88.0,132.0,220.0,cyan,triangle
0.0,2.0,2.0,0.0,7.0,2.0,2775.3185530000337,1.0,1.0,phase_3,,,,,117.0,3.0,156.0,117.0,234.0,195.0,78.0,39.0,orange,square
0.0,4.0,4.0,0.0,7.0,5.0,1662.0097219993113,1.0,1.0,phase_3,,,,,136.0,4.0,68.0,102.0,34.0,204.0,136.0,170.0,yellow,circle
0.0,7.0,3.0,1.0,7.0,5.0,2238.4773980002137,1.0,1.0,phase_3,,,,,270.0,5.0,108.0,216.0,54.0,162.0,270.0,324.0,blue,flipped triangle
0.0,5.0,1.0,1.0,7.0,3.0,1488.6142479999762,1.0,1.0,phase_3,,,,,34.0,1.0,136.0,102.0,34.0,68.0,170.0,204.0,white,hexagon
0.0,8.0,4.0,1.0,7.0,3.0,2131.4649500000087,1.0,1.0,phase_3,,,,,220.0,5.0,44.0,264.0,220.0,88.0,176.0,132.0,cyan,triangle
0.0,2.0,2.0,0.0,7.0,3.0,2780.820981000033,1.0,1.0,phase_3,,,,,108.0,2.0,54.0,324.0,108.0,162.0,270.0,216.0,orange,square
0.0,3.0,3.0,0.0,7.0,2.0,1896.824667999681,1.0,1.0,phase_3,,,,,108.0,2.0,324.0,108.0,54.0,216.0,270.0,162.0,green,cross
0.0,2.0,2.0,0.0,7.0,4.0,1329.6685049999724,1.0,1.0,phase_3,,,,,132.0,3.0,264.0,88.0,176.0,132.0,220.0,44.0,orange,square
0.0,7.0,3.0,1.0,7.0,6.0,1597.7346250001574,1.0,1.0,phase_3,,,,,245.0,5.0,294.0,147.0,196.0,98.0,49.0,245.0,blue,flipped triangle
0.0,7.0,3.0,1.0,7.0,3.0,2892.441422000047,2.0,1.0,phase_3,,,,,204.0,6.0,102.0,136.0,204.0,170.0,68.0,34.0,blue,flipped triangle
0.0,5.0,1.0,1.0,7.0,1.0,1287.2795100001897,2.0,1.0,phase_3,,,,,54.0,1.0,54.0,270.0,108.0,324.0,162.0,216.0,white,hexagon
0.0,5.0,1.0,1.0,7.0,1.0,935.618902999522,2.0,1.0,phase_3,,,,,49.0,1.0,49.0,196.0,98.0,245.0,147.0,294.0,white,hexagon
0.0,1.0,1.0,0.0,7.0,4.0,970.2677209998,2.0,1.0,phase_3,,,,,88.0,2.0,132.0,220.0,44.0,88.0,264.0,176.0,gray,I
0.0,4.0,4.0,0.0,7.0,1.0,1113.4622789995774,2.0,1.0,phase_3,,,,,88.0,2.0,88.0,220.0,44.0,176.0,132.0,264.0,yellow,circle
0.0,5.0,1.0,1.0,7.0,1.0,682.5856149998799,2.0,1.0,phase_3,,,,,245.0,5.0,245.0,49.0,294.0,98.0,196.0,147.0,white,hexagon
0.0,6.0,2.0,1.0,7.0,6.0,2338.671485999839,2.0,1.0,phase_3,,,,,162.0,3.0,108.0,324.0,270.0,54.0,216.0,162.0,magenta,diamond
0.0,8.0,4.0,1.0,7.0,1.0,1734.8764630005462,2.0,1.0,phase_3,,,,,234.0,6.0,234.0,195.0,156.0,39.0,117.0,78.0,cyan,triangle
0.0,3.0,3.0,0.0,7.0,5.0,1580.0315289998252,2.0,1.0,phase_3,,,,,68.0,2.0,204.0,102.0,136.0,34.0,68.0,170.0,green,cross
0.0,4.0,4.0,0.0,7.0,3.0,1186.5848489997006,2.0,1.0,phase_3,,,,,170.0,5.0,68.0,136.0,170.0,34.0,102.0,204.0,yellow,circle
0.0,6.0,2.0,1.0,7.0,1.0,705.5312100001174,2.0,1.0,phase_3,,,,,117.0,3.0,117.0,234.0,195.0,78.0,39.0,156.0,magenta,diamond
0.0,1.0,1.0,0.0,7.0,6.0,841.2146539994865,2.0,1.0,phase_3,,,,,54.0,1.0,162.0,108.0,270.0,324.0,216.0,54.0,gray,I
0.0,6.0,2.0,1.0,7.0,1.0,696.7322370001057,2.0,1.0,phase_3,,,,,108.0,2.0,108.0,324.0,216.0,54.0,162.0,270.0,magenta,diamond
0.0,6.0,2.0,1.0,7.0,2.0,1296.8091039992942,2.0,1.0,phase_3,,,,,147.0,3.0,196.0,147.0,245.0,98.0,49.0,294.0,magenta,diamond
0.0,7.0,3.0,1.0,7.0,6.0,1784.954110000399,2.0,1.0,phase_3,,,,,264.0,6.0,220.0,44.0,88.0,132.0,176.0,264.0,blue,flipped triangle
0.0,1.0,1.0,0.0,7.0,3.0,1895.0598109995556,2.0,1.0,phase_3,,,,,54.0,1.0,270.0,108.0,54.0,216.0,324.0,162.0,gray,I
0.0,4.0,4.0,0.0,7.0,4.0,1788.3566939999582,2.0,1.0,phase_3,,,,,147.0,3.0,49.0,196.0,98.0,147.0,245.0,294.0,yellow,circle
0.0,8.0,4.0,1.0,7.0,5.0,1306.608089999827,2.0,1.0,phase_3,,,,,204.0,6.0,170.0,34.0,136.0,68.0,204.0,102.0,cyan,triangle
0.0,1.0,1.0,0.0,7.0,5.0,1143.7492850000126,2.0,1.0,phase_3,,,,,44.0,1.0,88.0,132.0,176.0,264.0,44.0,220.0,gray,I
0.0,7.0,3.0,1.0,7.0,1.0,3481.357611999556,2.0,1.0,phase_3,,,,,264.0,6.0,264.0,176.0,132.0,220.0,44.0,88.0,blue,flipped triangle
0.0,3.0,3.0,0.0,7.0,4.0,1401.809449999746,3.0,1.0,phase_3,,,,,176.0,4.0,132.0,264.0,44.0,176.0,220.0,88.0,green,cross
0.0,1.0,1.0,0.0,7.0,1.0,1440.8619679998085,3.0,1.0,phase_3,,,,,98.0,2.0,98.0,196.0,294.0,147.0,245.0,49.0,gray,I
0.0,7.0,3.0,1.0,7.0,6.0,1159.5229840004322,3.0,1.0,phase_3,,,,,234.0,6.0,195.0,78.0,39.0,156.0,117.0,234.0,blue,flipped triangle
0.0,6.0,2.0,1.0,7.0,1.0,1915.042386000096,3.0,1.0,phase_3,,,,,170.0,5.0,170.0,136.0,204.0,102.0,34.0,68.0,magenta,diamond
0.0,5.0,1.0,1.0,7.0,1.0,1511.0519589998148,3.0,1.0,phase_3,,,,,39.0,1.0,39.0,195.0,78.0,156.0,117.0,234.0,white,hexagon
0.0,8.0,4.0,1.0,7.0,5.0,2053.3668309999484,3.0,1.0,phase_3,,,,,170.0,5.0,204.0,136.0,102.0,34.0,170.0,68.0,cyan,triangle
0.0,4.0,4.0,0.0,7.0,2.0,2812.475357999574,3.0,1.0,phase_3,,,,,108.0,2.0,54.0,108.0,270.0,216.0,162.0,324.0,yellow,circle
0.0,5.0,1.0,1.0,7.0,2.0,2622.8715099996407,3.0,1.0,phase_3,,,,,102.0,3.0,68.0,102.0,34.0,136.0,204.0,170.0,white,hexagon
0.0,2.0,2.0,0.0,7.0,6.0,1760.606142999677,3.0,1.0,phase_3,,,,,196.0,4.0,98.0,49.0,294.0,147.0,245.0,196.0,orange,square
0.0,8.0,4.0,1.0,7.0,4.0,1307.7799329994375,3.0,1.0,phase_3,,,,,49.0,1.0,294.0,245.0,196.0,49.0,98.0,147.0,cyan,triangle
0.0,2.0,2.0,0.0,7.0,2.0,1580.2076280006077,3.0,1.0,phase_3,,,,,88.0,2.0,220.0,88.0,132.0,264.0,44.0,176.0,orange,square
0.0,6.0,2.0,1.0,7.0,2.0,1301.950759999272,3.0,1.0,phase_3,,,,,176.0,4.0,264.0,176.0,88.0,132.0,220.0,44.0,magenta,diamond
0.0,4.0,4.0,0.0,7.0,5.0,2128.6738749995493,3.0,1.0,phase_3,,,,,98.0,2.0,245.0,294.0,147.0,196.0,98.0,49.0,yellow,circle
0.0,1.0,1.0,0.0,7.0,3.0,1448.8365759998487,3.0,1.0,phase_3,,,,,34.0,1.0,170.0,68.0,34.0,136.0,204.0,102.0,gray,I
0.0,7.0,3.0,1.0,7.0,6.0,2113.0093560004752,3.0,1.0,phase_3,,,,,324.0,6.0,216.0,54.0,108.0,270.0,162.0,324.0,blue,flipped triangle
0.0,6.0,2.0,1.0,7.0,4.0,1632.4946310005544,3.0,1.0,phase_3,,,,,196.0,4.0,147.0,49.0,98.0,196.0,245.0,294.0,magenta,diamond
0.0,2.0,2.0,0.0,7.0,5.0,1630.3521999998338,3.0,1.0,phase_3,,,,,54.0,1.0,324.0,270.0,216.0,108.0,54.0,162.0,orange,square
0.0,2.0,2.0,0.0,7.0,4.0,1174.7865580000507,3.0,1.0,phase_3,,,,,68.0,2.0,102.0,170.0,136.0,68.0,204.0,34.0,orange,square
0.0,8.0,4.0,1.0,7.0,1.0,1627.4448419999317,3.0,1.0,phase_3,,,,,324.0,6.0,324.0,54.0,108.0,270.0,162.0,216.0,cyan,triangle
0.0,5.0,1.0,1.0,7.0,6.0,1054.8863179992622,3.0,1.0,phase_3,,,,,44.0,1.0,132.0,220.0,176.0,88.0,264.0,44.0,white,hexagon
0.0,3.0,3.0,0.0,7.0,4.0,1836.9872059993213,4.0,1.0,phase_3,,,,,234.0,6.0,39.0,78.0,156.0,234.0,195.0,117.0,green,cross
0.0,3.0,3.0,0.0,7.0,5.0,2327.553875000376,4.0,1.0,phase_3,,,,,324.0,6.0,162.0,108.0,54.0,216.0,324.0,270.0,green,cross
0.0,1.0,1.0,0.0,7.0,5.0,1944.842134999817,4.0,1.0,phase_3,,,,,49.0,1.0,147.0,98.0,294.0,196.0,49.0,245.0,gray,I
0.0,6.0,2.0,1.0,7.0,3.0,3272.759545999179,4.0,1.0,phase_3,,,,,136.0,4.0,170.0,102.0,136.0,68.0,34.0,204.0,magenta,diamond
0.0,1.0,1.0,0.0,7.0,3.0,2126.813273999687,4.0,1.0,phase_3,,,,,34.0,1.0,102.0,204.0,34.0,136.0,68.0,170.0,gray,I
0.0,7.0,3.0,1.0,7.0,1.0,2086.824365999746,4.0,1.0,phase_3,,,,,204.0,6.0,204.0,136.0,102.0,34.0,68.0,170.0,blue,flipped triangle
0.0,3.0,3.0,0.0,7.0,6.0,1613.6399490005715,4.0,1.0,phase_3,,,,,234.0,6.0,156.0,195.0,78.0,39.0,117.0,234.0,green,cross
0.0,3.0,3.0,0.0,7.0,5.0,2276.6179140007807,4.0,1.0,phase_3,,,,,264.0,6.0,88.0,176.0,220.0,44.0,264.0,132.0,green,cross
0.0,8.0,4.0,1.0,7.0,5.0,2367.291270999885,4.0,1.0,phase_3,,,,,234.0,6.0,117.0,39.0,195.0,156.0,234.0,78.0,cyan,triangle
0.0,4.0,4.0,0.0,7.0,6.0,3235.914538000543,4.0,1.0,phase_3,,,,,88.0,2.0,132.0,44.0,176.0,220.0,264.0,88.0,yellow,circle
0.0,2.0,2.0,0.0,7.0,3.0,1491.2399770000777,4.0,1.0,phase_3,,,,,147.0,3.0,196.0,245.0,147.0,294.0,49.0,98.0,orange,square
0.0,5.0,1.0,1.0,7.0,1.0,593.8351909999255,4.0,1.0,phase_3,,,,,44.0,1.0,44.0,88.0,176.0,264.0,132.0,220.0,white,hexagon
0.0,4.0,4.0,0.0,7.0,5.0,1109.8846759996377,4.0,1.0,phase_3,,,,,54.0,1.0,270.0,108.0,324.0,162.0,54.0,216.0,yellow,circle
0.0,3.0,3.0,0.0,7.0,2.0,3354.63764799988,4.0,1.0,phase_3,,,,,204.0,6.0,136.0,204.0,170.0,68.0,34.0,102.0,green,cross
0.0,2.0,2.0,0.0,7.0,3.0,1532.0714599993153,4.0,1.0,phase_3,,,,,102.0,3.0,136.0,68.0,102.0,170.0,204.0,34.0,orange,square
0.0,5.0,1.0,1.0,7.0,3.0,2307.671751000271,4.0,1.0,phase_3,,,,,54.0,1.0,108.0,162.0,54.0,270.0,324.0,216.0,white,hexagon
0.0,2.0,2.0,0.0,7.0,2.0,1075.5049720000898,4.0,1.0,phase_3,,,,,117.0,3.0,156.0,117.0,195.0,78.0,234.0,39.0,orange,square
0.0,6.0,2.0,1.0,7.0,4.0,1384.0888589993483,4.0,1.0,phase_3,,,,,117.0,3.0,156.0,39.0,195.0,117.0,234.0,78.0,magenta,diamond
0.0,4.0,4.0,0.0,7.0,3.0,1098.4698299998854,4.0,1.0,phase_3,,,,,78.0,2.0,117.0,156.0,78.0,234.0,195.0,39.0,yellow,circle
0.0,7.0,3.0,1.0,7.0,6.0,2249.901588999819,4.0,1.0,phase_3,,,,,98.0,2.0,49.0,245.0,294.0,196.0,147.0,98.0,blue,flipped triangle
