raw_reward_magnitude,stim_reward,stepwise_reward_magnitude,paired_with_stopping,quadrant,response,reaction_time,block,num_trial_presentations,which_part,stop_signal_trial_type,left_SSD,right_SSD,accuracy,chosen_bidding_amount,chosen_bidding_level,possible_bid_1,possible_bid_2,possible_bid_3,possible_bid_4,possible_bid_5,possible_bid_6,color_text,shape_text
0.0,2.0,0.0,0.0,2.0,2.0,390.7570400001532,1.0,1.0,part_1,,,,,,,,,,,,,green,hexagon
203.0,3.0,3.0,0.0,4.0,4.0,383.3866800000578,1.0,1.0,part_1,,,,,,,,,,,,,orange,I
182.0,3.0,3.0,0.0,1.0,1.0,291.7615339999884,1.0,1.0,part_1,,,,,,,,,,,,,orange,I
0.0,5.0,0.0,1.0,3.0,3.0,297.1267210000405,1.0,1.0,part_1,,,,,,,,,,,,,magenta,triangle
66.0,5.0,1.0,1.0,1.0,1.0,413.7166589998742,1.0,1.0,part_1,,,,,,,,,,,,,magenta,triangle
84.0,6.0,2.0,1.0,3.0,3.0,279.7331250001207,1.0,1.0,part_1,,,,,,,,,,,,,cyan,square
400.0,8.0,4.0,1.0,2.0,2.0,296.1507600000459,1.0,1.0,part_1,,,,,,,,,,,,,yellow,flipped triangle
188.0,7.0,3.0,1.0,1.0,1.0,255.69785699985908,1.0,1.0,part_1,,,,,,,,,,,,,white,circle
91.0,6.0,2.0,1.0,4.0,4.0,301.7268020000756,1.0,1.0,part_1,,,,,,,,,,,,,cyan,square
29.0,1.0,1.0,0.0,4.0,4.0,318.5420429999794,1.0,2.0,part_1,,,,,,,,,,,,,blue,diamond
0.0,6.0,0.0,1.0,3.0,3.0,343.56947399987797,1.0,1.0,part_1,,,,,,,,,,,,,cyan,square
0.0,2.0,0.0,0.0,4.0,4.0,336.4254549999259,1.0,1.0,part_1,,,,,,,,,,,,,green,hexagon
32.0,1.0,1.0,0.0,3.0,3.0,294.6750219998648,1.0,1.0,part_1,,,,,,,,,,,,,blue,diamond
180.0,3.0,3.0,0.0,1.0,1.0,261.7781129999912,1.0,1.0,part_1,,,,,,,,,,,,,orange,I
390.0,4.0,4.0,0.0,4.0,4.0,296.3833639998938,1.0,1.0,part_1,,,,,,,,,,,,,gray,cross
423.0,4.0,4.0,0.0,4.0,4.0,263.1265400000302,1.0,1.0,part_1,,,,,,,,,,,,,gray,cross
36.0,5.0,1.0,1.0,4.0,4.0,275.8372480000162,1.0,1.0,part_1,,,,,,,,,,,,,magenta,triangle
208.0,7.0,3.0,1.0,4.0,4.0,283.782851000069,1.0,1.0,part_1,,,,,,,,,,,,,white,circle
386.0,8.0,4.0,1.0,3.0,3.0,261.2245259999781,1.0,1.0,part_1,,,,,,,,,,,,,yellow,flipped triangle
116.0,6.0,2.0,1.0,4.0,4.0,237.4277500000516,1.0,1.0,part_1,,,,,,,,,,,,,cyan,square
106.0,2.0,2.0,0.0,4.0,4.0,241.2162250000165,1.0,1.0,part_1,,,,,,,,,,,,,green,hexagon
0.0,1.0,0.0,0.0,2.0,2.0,292.1649820000311,1.0,2.0,part_1,,,,,,,,,,,,,blue,diamond
99.0,6.0,2.0,1.0,4.0,4.0,280.1211589999184,1.0,1.0,part_1,,,,,,,,,,,,,cyan,square
210.0,3.0,3.0,0.0,2.0,2.0,272.7689490000102,1.0,1.0,part_1,,,,,,,,,,,,,orange,I
220.0,3.0,3.0,0.0,4.0,4.0,256.4040940001177,1.0,1.0,part_1,,,,,,,,,,,,,orange,I
71.0,5.0,1.0,1.0,1.0,1.0,240.7155599998987,1.0,1.0,part_1,,,,,,,,,,,,,magenta,triangle
0.0,3.0,0.0,0.0,3.0,3.0,362.4997669999175,1.0,1.0,part_1,,,,,,,,,,,,,orange,I
64.0,5.0,1.0,1.0,1.0,1.0,298.2013460000416,1.0,1.0,part_1,,,,,,,,,,,,,magenta,triangle
0.0,6.0,0.0,1.0,1.0,1.0,360.0591939998594,1.0,1.0,part_1,,,,,,,,,,,,,cyan,square
193.0,7.0,3.0,1.0,3.0,3.0,307.3067540001375,1.0,1.0,part_1,,,,,,,,,,,,,white,circle
182.0,7.0,3.0,1.0,3.0,3.0,320.9875160000592,1.0,1.0,part_1,,,,,,,,,,,,,white,circle
45.0,1.0,1.0,0.0,4.0,4.0,291.1933719999524,1.0,1.0,part_1,,,,,,,,,,,,,blue,diamond
102.0,6.0,2.0,1.0,1.0,1.0,282.6735600001484,1.0,1.0,part_1,,,,,,,,,,,,,cyan,square
398.0,8.0,4.0,1.0,3.0,3.0,305.8978870001283,1.0,1.0,part_1,,,,,,,,,,,,,yellow,flipped triangle
106.0,6.0,2.0,1.0,4.0,4.0,307.9131910001251,1.0,1.0,part_1,,,,,,,,,,,,,cyan,square
424.0,8.0,4.0,1.0,4.0,4.0,276.2374260000797,1.0,1.0,part_1,,,,,,,,,,,,,yellow,flipped triangle
121.0,6.0,2.0,1.0,2.0,2.0,239.6539979999943,1.0,1.0,part_1,,,,,,,,,,,,,cyan,square
187.0,7.0,3.0,1.0,1.0,1.0,318.2757959998525,1.0,1.0,part_1,,,,,,,,,,,,,white,circle
0.0,1.0,0.0,0.0,4.0,4.0,395.0665469999421,1.0,1.0,part_1,,,,,,,,,,,,,blue,diamond
393.0,8.0,4.0,1.0,2.0,2.0,299.7064259998296,1.0,1.0,part_1,,,,,,,,,,,,,yellow,flipped triangle
417.0,8.0,4.0,1.0,3.0,3.0,295.3408819998913,1.0,1.0,part_1,,,,,,,,,,,,,yellow,flipped triangle
397.0,8.0,4.0,1.0,4.0,4.0,328.6044530000254,1.0,1.0,part_1,,,,,,,,,,,,,yellow,flipped triangle
0.0,6.0,0.0,1.0,2.0,2.0,280.9020889999374,1.0,1.0,part_1,,,,,,,,,,,,,cyan,square
417.0,8.0,4.0,1.0,2.0,2.0,309.3117549999533,1.0,1.0,part_1,,,,,,,,,,,,,yellow,flipped triangle
0.0,2.0,0.0,0.0,2.0,2.0,293.8083630001529,1.0,1.0,part_1,,,,,,,,,,,,,green,hexagon
37.0,1.0,1.0,0.0,3.0,3.0,303.6897009999393,1.0,1.0,part_1,,,,,,,,,,,,,blue,diamond
206.0,3.0,3.0,0.0,3.0,3.0,346.7904909998651,1.0,1.0,part_1,,,,,,,,,,,,,orange,I
219.0,7.0,3.0,1.0,2.0,2.0,289.411900999994,1.0,1.0,part_1,,,,,,,,,,,,,white,circle
124.0,6.0,2.0,1.0,2.0,2.0,305.8540580000226,1.0,1.0,part_1,,,,,,,,,,,,,cyan,square
46.0,5.0,1.0,1.0,1.0,1.0,309.6992040000259,1.0,1.0,part_1,,,,,,,,,,,,,magenta,triangle
66.0,1.0,1.0,0.0,3.0,3.0,288.8674670000455,1.0,1.0,part_1,,,,,,,,,,,,,blue,diamond
108.0,6.0,2.0,1.0,2.0,2.0,301.8665540000711,1.0,1.0,part_1,,,,,,,,,,,,,cyan,square
109.0,2.0,2.0,0.0,1.0,1.0,314.6237389998987,1.0,1.0,part_1,,,,,,,,,,,,,green,hexagon
0.0,7.0,0.0,1.0,2.0,2.0,282.5618390002091,1.0,1.0,part_1,,,,,,,,,,,,,white,circle
0.0,6.0,0.0,1.0,2.0,2.0,281.9653440001275,1.0,1.0,part_1,,,,,,,,,,,,,cyan,square
120.0,6.0,2.0,1.0,1.0,1.0,326.5989589999662,1.0,1.0,part_1,,,,,,,,,,,,,cyan,square
111.0,2.0,2.0,0.0,3.0,3.0,318.3513859999038,1.0,1.0,part_1,,,,,,,,,,,,,green,hexagon
108.0,6.0,2.0,1.0,4.0,4.0,326.198813000019,1.0,1.0,part_1,,,,,,,,,,,,,cyan,square
415.0,8.0,4.0,1.0,4.0,4.0,353.3104359999015,1.0,1.0,part_1,,,,,,,,,,,,,yellow,flipped triangle
0.0,4.0,0.0,0.0,2.0,2.0,242.6613449999877,1.0,1.0,part_1,,,,,,,,,,,,,gray,cross
0.0,7.0,0.0,1.0,3.0,3.0,257.9479449998416,1.0,1.0,part_1,,,,,,,,,,,,,white,circle
72.0,1.0,1.0,0.0,1.0,1.0,279.0181369998663,1.0,1.0,part_1,,,,,,,,,,,,,blue,diamond
398.0,4.0,4.0,0.0,4.0,4.0,309.8171189999448,1.0,1.0,part_1,,,,,,,,,,,,,gray,cross
207.0,3.0,3.0,0.0,1.0,1.0,324.822825999945,1.0,1.0,part_1,,,,,,,,,,,,,orange,I
213.0,3.0,3.0,0.0,3.0,3.0,230.2507599999899,1.0,1.0,part_1,,,,,,,,,,,,,orange,I
0.0,3.0,0.0,0.0,2.0,2.0,247.0871890000125,1.0,1.0,part_1,,,,,,,,,,,,,orange,I
178.0,7.0,3.0,1.0,1.0,1.0,264.3785679999837,1.0,1.0,part_1,,,,,,,,,,,,,white,circle
88.0,2.0,2.0,0.0,1.0,1.0,273.8045060000331,1.0,1.0,part_1,,,,,,,,,,,,,green,hexagon
216.0,3.0,3.0,0.0,4.0,4.0,260.5540950000886,1.0,1.0,part_1,,,,,,,,,,,,,orange,I
396.0,4.0,4.0,0.0,4.0,4.0,329.0750319999915,1.0,1.0,part_1,,,,,,,,,,,,,gray,cross
71.0,1.0,1.0,0.0,1.0,1.0,262.30191500008,1.0,1.0,part_1,,,,,,,,,,,,,blue,diamond
410.0,4.0,4.0,0.0,1.0,1.0,255.2506070001072,1.0,1.0,part_1,,,,,,,,,,,,,gray,cross
108.0,6.0,2.0,1.0,2.0,2.0,292.1078530000613,1.0,1.0,part_1,,,,,,,,,,,,,cyan,square
405.0,8.0,4.0,1.0,4.0,4.0,283.9411530001143,1.0,1.0,part_1,,,,,,,,,,,,,yellow,flipped triangle
0.0,6.0,0.0,1.0,1.0,1.0,231.3826429999608,1.0,1.0,part_1,,,,,,,,,,,,,cyan,square
77.0,6.0,2.0,1.0,4.0,4.0,299.0634400000544,1.0,1.0,part_1,,,,,,,,,,,,,cyan,square
180.0,7.0,3.0,1.0,2.0,2.0,232.9114730000583,1.0,1.0,part_1,,,,,,,,,,,,,white,circle
397.0,8.0,4.0,1.0,4.0,4.0,368.6205609999433,1.0,1.0,part_1,,,,,,,,,,,,,yellow,flipped triangle
43.0,1.0,1.0,0.0,2.0,2.0,295.6709239999782,1.0,1.0,part_1,,,,,,,,,,,,,blue,diamond
0.0,5.0,0.0,1.0,1.0,1.0,263.1157299999813,1.0,1.0,part_1,,,,,,,,,,,,,magenta,triangle
195.0,7.0,3.0,1.0,4.0,4.0,296.1548920000041,1.0,1.0,part_1,,,,,,,,,,,,,white,circle
387.0,4.0,4.0,0.0,2.0,2.0,237.5549839998711,1.0,1.0,part_1,,,,,,,,,,,,,gray,cross
56.0,5.0,1.0,1.0,4.0,4.0,287.2309499998664,1.0,2.0,part_1,,,,,,,,,,,,,magenta,triangle
0.0,4.0,0.0,0.0,1.0,1.0,288.6042990000987,1.0,1.0,part_1,,,,,,,,,,,,,gray,cross
0.0,1.0,0.0,0.0,3.0,3.0,375.3614810000272,1.0,1.0,part_1,,,,,,,,,,,,,blue,diamond
0.0,7.0,0.0,1.0,4.0,4.0,274.7195049998936,1.0,1.0,part_1,,,,,,,,,,,,,white,circle
422.0,4.0,4.0,0.0,3.0,3.0,267.3730320000231,1.0,1.0,part_1,,,,,,,,,,,,,gray,cross
121.0,2.0,2.0,0.0,2.0,2.0,262.1067770000991,1.0,1.0,part_1,,,,,,,,,,,,,green,hexagon
425.0,8.0,4.0,1.0,4.0,4.0,370.5301710001549,1.0,1.0,part_1,,,,,,,,,,,,,yellow,flipped triangle
221.0,7.0,3.0,1.0,1.0,1.0,285.9752920001028,1.0,1.0,part_1,,,,,,,,,,,,,white,circle
175.0,3.0,3.0,0.0,3.0,3.0,259.1196989999389,1.0,1.0,part_1,,,,,,,,,,,,,orange,I
382.0,8.0,4.0,1.0,1.0,1.0,270.1144610000483,1.0,2.0,part_1,,,,,,,,,,,,,yellow,flipped triangle
406.0,8.0,4.0,1.0,2.0,2.0,288.2719509998424,1.0,1.0,part_1,,,,,,,,,,,,,yellow,flipped triangle
194.0,3.0,3.0,0.0,4.0,4.0,275.9954480000033,1.0,1.0,part_1,,,,,,,,,,,,,orange,I
221.0,7.0,3.0,1.0,1.0,1.0,274.873806999949,1.0,1.0,part_1,,,,,,,,,,,,,white,circle
108.0,2.0,2.0,0.0,3.0,3.0,328.421993999882,1.0,1.0,part_1,,,,,,,,,,,,,green,hexagon
180.0,7.0,3.0,1.0,3.0,3.0,316.5094430000863,1.0,1.0,part_1,,,,,,,,,,,,,white,circle
396.0,8.0,4.0,1.0,1.0,1.0,319.4941500000823,1.0,1.0,part_1,,,,,,,,,,,,,yellow,flipped triangle
124.0,2.0,2.0,0.0,4.0,4.0,275.4041299999699,1.0,1.0,part_1,,,,,,,,,,,,,green,hexagon
118.0,6.0,2.0,1.0,2.0,2.0,298.4720140000263,1.0,1.0,part_1,,,,,,,,,,,,,cyan,square
0.0,5.0,0.0,1.0,3.0,3.0,335.0660930000231,2.0,1.0,part_1,,,,,,,,,,,,,magenta,triangle
221.0,7.0,3.0,1.0,2.0,2.0,319.5775020001292,2.0,1.0,part_1,,,,,,,,,,,,,white,circle
72.0,5.0,1.0,1.0,3.0,3.0,269.3932509998831,2.0,1.0,part_1,,,,,,,,,,,,,magenta,triangle
57.0,5.0,1.0,1.0,4.0,4.0,279.7216419999131,2.0,1.0,part_1,,,,,,,,,,,,,magenta,triangle
407.0,8.0,4.0,1.0,2.0,2.0,245.7085309999911,2.0,1.0,part_1,,,,,,,,,,,,,yellow,flipped triangle
0.0,4.0,0.0,0.0,4.0,4.0,286.4756689998557,2.0,1.0,part_1,,,,,,,,,,,,,gray,cross
63.0,1.0,1.0,0.0,1.0,1.0,282.9639660001248,2.0,1.0,part_1,,,,,,,,,,,,,blue,diamond
183.0,7.0,3.0,1.0,1.0,1.0,292.8703959998984,2.0,1.0,part_1,,,,,,,,,,,,,white,circle
0.0,6.0,0.0,1.0,4.0,4.0,272.7626220000729,2.0,1.0,part_1,,,,,,,,,,,,,cyan,square
0.0,2.0,0.0,0.0,2.0,2.0,274.9656349999441,2.0,1.0,part_1,,,,,,,,,,,,,green,hexagon
182.0,7.0,3.0,1.0,1.0,1.0,274.2152790001455,2.0,1.0,part_1,,,,,,,,,,,,,white,circle
0.0,4.0,0.0,0.0,1.0,1.0,317.4229509997985,2.0,2.0,part_1,,,,,,,,,,,,,gray,cross
101.0,6.0,2.0,1.0,3.0,3.0,248.8883600001372,2.0,1.0,part_1,,,,,,,,,,,,,cyan,square
178.0,3.0,3.0,0.0,2.0,2.0,284.8215939998226,2.0,1.0,part_1,,,,,,,,,,,,,orange,I
405.0,8.0,4.0,1.0,3.0,3.0,246.9525139999859,2.0,1.0,part_1,,,,,,,,,,,,,yellow,flipped triangle
99.0,2.0,2.0,0.0,4.0,4.0,250.48378900009988,2.0,1.0,part_1,,,,,,,,,,,,,green,hexagon
91.0,2.0,2.0,0.0,3.0,3.0,299.496199000032,2.0,1.0,part_1,,,,,,,,,,,,,green,hexagon
0.0,2.0,0.0,0.0,2.0,2.0,245.3074469999592,2.0,1.0,part_1,,,,,,,,,,,,,green,hexagon
219.0,3.0,3.0,0.0,1.0,1.0,384.0640050000274,2.0,1.0,part_1,,,,,,,,,,,,,orange,I
178.0,7.0,3.0,1.0,4.0,4.0,337.5752049998937,2.0,1.0,part_1,,,,,,,,,,,,,white,circle
410.0,4.0,4.0,0.0,2.0,2.0,289.1962359999525,2.0,1.0,part_1,,,,,,,,,,,,,gray,cross
46.0,1.0,1.0,0.0,4.0,4.0,328.0434109999532,2.0,1.0,part_1,,,,,,,,,,,,,blue,diamond
76.0,6.0,2.0,1.0,1.0,1.0,321.7870039998161,2.0,1.0,part_1,,,,,,,,,,,,,cyan,square
0.0,3.0,0.0,0.0,4.0,4.0,312.0525980000366,2.0,1.0,part_1,,,,,,,,,,,,,orange,I
101.0,2.0,2.0,0.0,3.0,3.0,312.1051819998683,2.0,1.0,part_1,,,,,,,,,,,,,green,hexagon
399.0,4.0,4.0,0.0,3.0,3.0,316.7755399999805,2.0,1.0,part_1,,,,,,,,,,,,,gray,cross
0.0,8.0,0.0,1.0,3.0,3.0,334.7863500000585,2.0,1.0,part_1,,,,,,,,,,,,,yellow,flipped triangle
180.0,3.0,3.0,0.0,2.0,2.0,256.3789459998133,2.0,1.0,part_1,,,,,,,,,,,,,orange,I
115.0,2.0,2.0,0.0,2.0,2.0,333.2991160000347,2.0,1.0,part_1,,,,,,,,,,,,,green,hexagon
84.0,6.0,2.0,1.0,3.0,3.0,259.4007919999512,2.0,1.0,part_1,,,,,,,,,,,,,cyan,square
47.0,5.0,1.0,1.0,2.0,2.0,253.8076769999406,2.0,1.0,part_1,,,,,,,,,,,,,magenta,triangle
91.0,6.0,2.0,1.0,4.0,4.0,365.1551669997843,2.0,1.0,part_1,,,,,,,,,,,,,cyan,square
406.0,4.0,4.0,0.0,1.0,1.0,307.7166240000224,2.0,1.0,part_1,,,,,,,,,,,,,gray,cross
48.0,1.0,1.0,0.0,2.0,2.0,298.4369949999745,2.0,1.0,part_1,,,,,,,,,,,,,blue,diamond
203.0,7.0,3.0,1.0,4.0,4.0,297.0432829999936,2.0,1.0,part_1,,,,,,,,,,,,,white,circle
375.0,4.0,4.0,0.0,1.0,1.0,283.5466690000885,2.0,1.0,part_1,,,,,,,,,,,,,gray,cross
26.0,5.0,1.0,1.0,3.0,3.0,255.8707660000436,2.0,1.0,part_1,,,,,,,,,,,,,magenta,triangle
391.0,4.0,4.0,0.0,1.0,1.0,256.2500809999619,2.0,1.0,part_1,,,,,,,,,,,,,gray,cross
64.0,1.0,1.0,0.0,2.0,2.0,280.6649690000995,2.0,1.0,part_1,,,,,,,,,,,,,blue,diamond
375.0,8.0,4.0,1.0,1.0,1.0,286.9350149999263,2.0,1.0,part_1,,,,,,,,,,,,,yellow,flipped triangle
221.0,3.0,3.0,0.0,1.0,1.0,305.7970249999471,2.0,1.0,part_1,,,,,,,,,,,,,orange,I
403.0,8.0,4.0,1.0,2.0,2.0,246.7564159999256,2.0,1.0,part_1,,,,,,,,,,,,,yellow,flipped triangle
0.0,3.0,0.0,0.0,2.0,2.0,301.424298000029,2.0,1.0,part_1,,,,,,,,,,,,,orange,I
102.0,2.0,2.0,0.0,3.0,3.0,294.466046000025,2.0,1.0,part_1,,,,,,,,,,,,,green,hexagon
108.0,2.0,2.0,0.0,2.0,2.0,280.5945699999483,2.0,1.0,part_1,,,,,,,,,,,,,green,hexagon
0.0,8.0,0.0,1.0,1.0,1.0,276.2056289998327,2.0,1.0,part_1,,,,,,,,,,,,,yellow,flipped triangle
121.0,2.0,2.0,0.0,4.0,4.0,287.9750220001824,2.0,1.0,part_1,,,,,,,,,,,,,green,hexagon
47.0,5.0,1.0,1.0,2.0,2.0,283.9823770000294,2.0,1.0,part_1,,,,,,,,,,,,,magenta,triangle
52.0,1.0,1.0,0.0,4.0,4.0,247.6930749999155,2.0,1.0,part_1,,,,,,,,,,,,,blue,diamond
422.0,4.0,4.0,0.0,3.0,3.0,348.0700680001973,2.0,1.0,part_1,,,,,,,,,,,,,gray,cross
0.0,4.0,0.0,0.0,3.0,3.0,307.407780999938,2.0,1.0,part_1,,,,,,,,,,,,,gray,cross
207.0,7.0,3.0,1.0,2.0,2.0,257.2459169998637,2.0,1.0,part_1,,,,,,,,,,,,,white,circle
0.0,3.0,0.0,0.0,3.0,3.0,264.0410030001021,2.0,1.0,part_1,,,,,,,,,,,,,orange,I
97.0,6.0,2.0,1.0,4.0,4.0,285.7597339998392,2.0,1.0,part_1,,,,,,,,,,,,,cyan,square
207.0,3.0,3.0,0.0,2.0,2.0,292.2209970001859,2.0,2.0,part_1,,,,,,,,,,,,,orange,I
0.0,4.0,0.0,0.0,3.0,3.0,285.5102769999575,2.0,1.0,part_1,,,,,,,,,,,,,gray,cross
0.0,6.0,0.0,1.0,1.0,1.0,249.89558700008268,2.0,1.0,part_1,,,,,,,,,,,,,cyan,square
214.0,3.0,3.0,0.0,3.0,3.0,330.6205070000487,2.0,2.0,part_1,,,,,,,,,,,,,orange,I
0.0,4.0,0.0,0.0,2.0,2.0,294.4133769999553,2.0,1.0,part_1,,,,,,,,,,,,,gray,cross
396.0,4.0,4.0,0.0,3.0,3.0,259.121389000029,2.0,1.0,part_1,,,,,,,,,,,,,gray,cross
97.0,2.0,2.0,0.0,1.0,1.0,283.7645890001568,2.0,1.0,part_1,,,,,,,,,,,,,green,hexagon
108.0,2.0,2.0,0.0,4.0,4.0,237.1061669998653,2.0,1.0,part_1,,,,,,,,,,,,,green,hexagon
79.0,6.0,2.0,1.0,2.0,2.0,242.4315980001665,2.0,1.0,part_1,,,,,,,,,,,,,cyan,square
48.0,5.0,1.0,1.0,1.0,1.0,255.7678420000684,2.0,1.0,part_1,,,,,,,,,,,,,magenta,triangle
44.0,5.0,1.0,1.0,4.0,4.0,295.9422509998148,2.0,1.0,part_1,,,,,,,,,,,,,magenta,triangle
0.0,1.0,0.0,0.0,1.0,1.0,277.269097999806,2.0,1.0,part_1,,,,,,,,,,,,,blue,diamond
388.0,4.0,4.0,0.0,2.0,2.0,265.958560999934,2.0,1.0,part_1,,,,,,,,,,,,,gray,cross
43.0,1.0,1.0,0.0,2.0,2.0,321.1090269999204,2.0,1.0,part_1,,,,,,,,,,,,,blue,diamond
0.0,8.0,0.0,1.0,3.0,3.0,290.1392759999908,2.0,2.0,part_1,,,,,,,,,,,,,yellow,flipped triangle
177.0,3.0,3.0,0.0,3.0,3.0,333.2452269999066,2.0,1.0,part_1,,,,,,,,,,,,,orange,I
116.0,2.0,2.0,0.0,1.0,1.0,354.7244430001228,2.0,1.0,part_1,,,,,,,,,,,,,green,hexagon
0.0,6.0,0.0,1.0,3.0,3.0,283.6961089999477,2.0,1.0,part_1,,,,,,,,,,,,,cyan,square
0.0,5.0,0.0,1.0,4.0,4.0,317.3621870000715,2.0,1.0,part_1,,,,,,,,,,,,,magenta,triangle
219.0,3.0,3.0,0.0,3.0,3.0,297.13187799984547,2.0,1.0,part_1,,,,,,,,,,,,,orange,I
0.0,5.0,0.0,1.0,3.0,3.0,265.1702539999405,2.0,1.0,part_1,,,,,,,,,,,,,magenta,triangle
0.0,8.0,0.0,1.0,1.0,1.0,330.4933189999701,2.0,1.0,part_1,,,,,,,,,,,,,yellow,flipped triangle
63.0,1.0,1.0,0.0,2.0,2.0,317.8551600001356,2.0,1.0,part_1,,,,,,,,,,,,,blue,diamond
43.0,5.0,1.0,1.0,1.0,1.0,278.9626339999813,2.0,1.0,part_1,,,,,,,,,,,,,magenta,triangle
47.0,1.0,1.0,0.0,3.0,3.0,286.9050229999175,2.0,1.0,part_1,,,,,,,,,,,,,blue,diamond
213.0,7.0,3.0,1.0,4.0,4.0,265.7256340000913,2.0,1.0,part_1,,,,,,,,,,,,,white,circle
0.0,7.0,0.0,1.0,3.0,3.0,320.318866999969,2.0,1.0,part_1,,,,,,,,,,,,,white,circle
183.0,3.0,3.0,0.0,4.0,4.0,273.3246210000288,2.0,1.0,part_1,,,,,,,,,,,,,orange,I
400.0,8.0,4.0,1.0,3.0,3.0,277.1235449999949,2.0,1.0,part_1,,,,,,,,,,,,,yellow,flipped triangle
202.0,7.0,3.0,1.0,2.0,2.0,209.2991660001644,2.0,1.0,part_1,,,,,,,,,,,,,white,circle
207.0,7.0,3.0,1.0,3.0,3.0,265.3538110002955,2.0,1.0,part_1,,,,,,,,,,,,,white,circle
98.0,6.0,2.0,1.0,1.0,1.0,268.7611830001515,2.0,1.0,part_1,,,,,,,,,,,,,cyan,square
188.0,3.0,3.0,0.0,2.0,2.0,241.1881580001136,2.0,1.0,part_1,,,,,,,,,,,,,orange,I
391.0,8.0,4.0,1.0,2.0,2.0,281.7116589999386,2.0,1.0,part_1,,,,,,,,,,,,,yellow,flipped triangle
37.0,1.0,1.0,0.0,3.0,3.0,223.5697570004049,2.0,1.0,part_1,,,,,,,,,,,,,blue,diamond
59.0,1.0,1.0,0.0,4.0,4.0,299.2829859999801,2.0,1.0,part_1,,,,,,,,,,,,,blue,diamond
204.0,7.0,3.0,1.0,2.0,2.0,252.56645899980867,2.0,1.0,part_1,,,,,,,,,,,,,white,circle
183.0,7.0,3.0,1.0,2.0,2.0,283.0940879998707,2.0,1.0,part_1,,,,,,,,,,,,,white,circle
384.0,8.0,4.0,1.0,4.0,4.0,307.3546509999687,2.0,2.0,part_1,,,,,,,,,,,,,yellow,flipped triangle
88.0,6.0,2.0,1.0,3.0,3.0,341.7038839997985,2.0,1.0,part_1,,,,,,,,,,,,,cyan,square
417.0,4.0,4.0,0.0,2.0,2.0,275.8208099999137,2.0,1.0,part_1,,,,,,,,,,,,,gray,cross
178.0,7.0,3.0,1.0,4.0,4.0,245.2047970000421,2.0,1.0,part_1,,,,,,,,,,,,,white,circle
0.0,1.0,0.0,0.0,4.0,4.0,311.9908159997067,2.0,1.0,part_1,,,,,,,,,,,,,blue,diamond
78.0,2.0,2.0,0.0,1.0,1.0,297.7840650000871,2.0,1.0,part_1,,,,,,,,,,,,,green,hexagon
204.0,3.0,3.0,0.0,1.0,1.0,315.1823230000445,2.0,2.0,part_1,,,,,,,,,,,,,orange,I
31.0,1.0,1.0,0.0,2.0,2.0,289.0296700002182,2.0,1.0,part_1,,,,,,,,,,,,,blue,diamond
0.0,7.0,0.0,1.0,2.0,2.0,277.8835099998105,3.0,1.0,part_1,,,,,,,,,,,,,white,circle
0.0,5.0,0.0,1.0,3.0,3.0,255.2819560000898,3.0,1.0,part_1,,,,,,,,,,,,,magenta,triangle
0.0,8.0,0.0,1.0,4.0,4.0,260.487677999663,3.0,1.0,part_1,,,,,,,,,,,,,yellow,flipped triangle
203.0,7.0,3.0,1.0,3.0,3.0,278.5579209999014,3.0,1.0,part_1,,,,,,,,,,,,,white,circle
27.0,5.0,1.0,1.0,1.0,1.0,266.1343189997751,3.0,1.0,part_1,,,,,,,,,,,,,magenta,triangle
27.0,1.0,1.0,0.0,4.0,4.0,282.9626430002463,3.0,1.0,part_1,,,,,,,,,,,,,blue,diamond
38.0,1.0,1.0,0.0,2.0,2.0,250.4577790000439,3.0,1.0,part_1,,,,,,,,,,,,,blue,diamond
0.0,1.0,0.0,0.0,1.0,1.0,226.8963840001561,3.0,1.0,part_1,,,,,,,,,,,,,blue,diamond
84.0,2.0,2.0,0.0,3.0,3.0,262.6837800003159,3.0,1.0,part_1,,,,,,,,,,,,,green,hexagon
391.0,4.0,4.0,0.0,1.0,1.0,273.4798659998887,3.0,1.0,part_1,,,,,,,,,,,,,gray,cross
406.0,4.0,4.0,0.0,2.0,2.0,266.0961810001936,3.0,1.0,part_1,,,,,,,,,,,,,gray,cross
380.0,8.0,4.0,1.0,1.0,1.0,281.3001780000377,3.0,2.0,part_1,,,,,,,,,,,,,yellow,flipped triangle
37.0,5.0,1.0,1.0,3.0,3.0,301.7473340000833,3.0,1.0,part_1,,,,,,,,,,,,,magenta,triangle
57.0,1.0,1.0,0.0,1.0,1.0,265.9825880000426,3.0,1.0,part_1,,,,,,,,,,,,,blue,diamond
118.0,2.0,2.0,0.0,2.0,2.0,263.4208529998432,3.0,1.0,part_1,,,,,,,,,,,,,green,hexagon
199.0,3.0,3.0,0.0,4.0,4.0,441.3689999996677,3.0,1.0,part_1,,,,,,,,,,,,,orange,I
50.0,5.0,1.0,1.0,2.0,2.0,246.8012200001794,3.0,1.0,part_1,,,,,,,,,,,,,magenta,triangle
75.0,5.0,1.0,1.0,4.0,4.0,302.5138610000795,3.0,1.0,part_1,,,,,,,,,,,,,magenta,triangle
0.0,4.0,0.0,0.0,4.0,4.0,406.8328309999742,3.0,1.0,part_1,,,,,,,,,,,,,gray,cross
379.0,4.0,4.0,0.0,2.0,2.0,284.0948809998735,3.0,1.0,part_1,,,,,,,,,,,,,gray,cross
102.0,2.0,2.0,0.0,3.0,3.0,304.3650250001519,3.0,1.0,part_1,,,,,,,,,,,,,green,hexagon
72.0,1.0,1.0,0.0,4.0,4.0,283.7080830004197,3.0,1.0,part_1,,,,,,,,,,,,,blue,diamond
0.0,7.0,0.0,1.0,4.0,4.0,282.6244130001214,3.0,1.0,part_1,,,,,,,,,,,,,white,circle
112.0,6.0,2.0,1.0,2.0,2.0,291.426408999996,3.0,1.0,part_1,,,,,,,,,,,,,cyan,square
0.0,6.0,0.0,1.0,4.0,4.0,422.8447740001684,3.0,1.0,part_1,,,,,,,,,,,,,cyan,square
0.0,2.0,0.0,0.0,1.0,1.0,312.4305460000869,3.0,1.0,part_1,,,,,,,,,,,,,green,hexagon
52.0,5.0,1.0,1.0,3.0,3.0,255.7954730000347,3.0,1.0,part_1,,,,,,,,,,,,,magenta,triangle
0.0,6.0,0.0,1.0,3.0,3.0,264.4689359999574,3.0,1.0,part_1,,,,,,,,,,,,,cyan,square
77.0,2.0,2.0,0.0,4.0,4.0,275.8981010001662,3.0,1.0,part_1,,,,,,,,,,,,,green,hexagon
220.0,7.0,3.0,1.0,2.0,2.0,248.2450640000024,3.0,1.0,part_1,,,,,,,,,,,,,white,circle
0.0,8.0,0.0,1.0,4.0,4.0,222.3401830001421,3.0,1.0,part_1,,,,,,,,,,,,,yellow,flipped triangle
50.0,1.0,1.0,0.0,2.0,2.0,293.4639729996888,3.0,1.0,part_1,,,,,,,,,,,,,blue,diamond
194.0,7.0,3.0,1.0,2.0,2.0,269.0468300002067,3.0,1.0,part_1,,,,,,,,,,,,,white,circle
88.0,6.0,2.0,1.0,3.0,3.0,293.5418110000682,3.0,1.0,part_1,,,,,,,,,,,,,cyan,square
390.0,8.0,4.0,1.0,3.0,3.0,306.6044829997736,3.0,1.0,part_1,,,,,,,,,,,,,yellow,flipped triangle
219.0,7.0,3.0,1.0,4.0,4.0,234.22379900011939,3.0,1.0,part_1,,,,,,,,,,,,,white,circle
199.0,7.0,3.0,1.0,3.0,3.0,303.031558999919,3.0,1.0,part_1,,,,,,,,,,,,,white,circle
56.0,1.0,1.0,0.0,1.0,1.0,369.5322809999197,3.0,1.0,part_1,,,,,,,,,,,,,blue,diamond
400.0,4.0,4.0,0.0,2.0,2.0,310.5467860000317,3.0,1.0,part_1,,,,,,,,,,,,,gray,cross
112.0,2.0,2.0,0.0,4.0,4.0,260.1546350001626,3.0,1.0,part_1,,,,,,,,,,,,,green,hexagon
68.0,5.0,1.0,1.0,3.0,3.0,260.2366070000244,3.0,1.0,part_1,,,,,,,,,,,,,magenta,triangle
0.0,4.0,0.0,0.0,2.0,2.0,248.6231789998783,3.0,1.0,part_1,,,,,,,,,,,,,gray,cross
382.0,4.0,4.0,0.0,3.0,3.0,294.4111860001612,3.0,1.0,part_1,,,,,,,,,,,,,gray,cross
31.0,1.0,1.0,0.0,3.0,3.0,257.4452349999774,3.0,1.0,part_1,,,,,,,,,,,,,blue,diamond
51.0,1.0,1.0,0.0,1.0,1.0,271.7418870001893,3.0,1.0,part_1,,,,,,,,,,,,,blue,diamond
63.0,5.0,1.0,1.0,3.0,3.0,274.1185750001023,3.0,1.0,part_1,,,,,,,,,,,,,magenta,triangle
34.0,5.0,1.0,1.0,3.0,3.0,309.1090779998922,3.0,1.0,part_1,,,,,,,,,,,,,magenta,triangle
44.0,5.0,1.0,1.0,2.0,2.0,278.4990520003703,3.0,1.0,part_1,,,,,,,,,,,,,magenta,triangle
0.0,2.0,0.0,0.0,3.0,3.0,199.9570170000879,3.0,1.0,part_1,,,,,,,,,,,,,green,hexagon
98.0,2.0,2.0,0.0,1.0,1.0,262.1161339998252,3.0,1.0,part_1,,,,,,,,,,,,,green,hexagon
407.0,4.0,4.0,0.0,3.0,3.0,288.3141719999003,3.0,1.0,part_1,,,,,,,,,,,,,gray,cross
196.0,7.0,3.0,1.0,3.0,3.0,239.327219000188,3.0,1.0,part_1,,,,,,,,,,,,,white,circle
196.0,3.0,3.0,0.0,4.0,4.0,231.9802379997781,3.0,1.0,part_1,,,,,,,,,,,,,orange,I
405.0,4.0,4.0,0.0,4.0,4.0,289.9458850001792,3.0,1.0,part_1,,,,,,,,,,,,,gray,cross
47.0,1.0,1.0,0.0,3.0,3.0,276.039925999612,3.0,1.0,part_1,,,,,,,,,,,,,blue,diamond
206.0,7.0,3.0,1.0,4.0,4.0,284.2221860000791,3.0,1.0,part_1,,,,,,,,,,,,,white,circle
400.0,4.0,4.0,0.0,1.0,1.0,283.7891069998477,3.0,1.0,part_1,,,,,,,,,,,,,gray,cross
203.0,3.0,3.0,0.0,2.0,2.0,286.1229279997133,3.0,1.0,part_1,,,,,,,,,,,,,orange,I
61.0,5.0,1.0,1.0,3.0,3.0,275.4675299997871,3.0,1.0,part_1,,,,,,,,,,,,,magenta,triangle
123.0,6.0,2.0,1.0,3.0,3.0,296.4359790003072,3.0,1.0,part_1,,,,,,,,,,,,,cyan,square
77.0,6.0,2.0,1.0,1.0,1.0,319.2554649999692,3.0,1.0,part_1,,,,,,,,,,,,,cyan,square
390.0,8.0,4.0,1.0,2.0,2.0,346.4466929999616,3.0,1.0,part_1,,,,,,,,,,,,,yellow,flipped triangle
37.0,5.0,1.0,1.0,1.0,1.0,296.6934470000524,3.0,1.0,part_1,,,,,,,,,,,,,magenta,triangle
88.0,2.0,2.0,0.0,2.0,2.0,286.2103899997237,3.0,1.0,part_1,,,,,,,,,,,,,green,hexagon
422.0,8.0,4.0,1.0,1.0,1.0,333.4682639997481,3.0,1.0,part_1,,,,,,,,,,,,,yellow,flipped triangle
106.0,6.0,2.0,1.0,4.0,4.0,295.6505680003829,3.0,1.0,part_1,,,,,,,,,,,,,cyan,square
387.0,4.0,4.0,0.0,4.0,4.0,316.6448240003774,3.0,1.0,part_1,,,,,,,,,,,,,gray,cross
111.0,6.0,2.0,1.0,1.0,1.0,333.674881999741,3.0,1.0,part_1,,,,,,,,,,,,,cyan,square
221.0,3.0,3.0,0.0,4.0,4.0,303.1189189996439,3.0,1.0,part_1,,,,,,,,,,,,,orange,I
31.0,5.0,1.0,1.0,4.0,4.0,317.7512110000862,3.0,1.0,part_1,,,,,,,,,,,,,magenta,triangle
216.0,7.0,3.0,1.0,4.0,4.0,238.372311999683,3.0,1.0,part_1,,,,,,,,,,,,,white,circle
396.0,8.0,4.0,1.0,3.0,3.0,257.1416440000575,3.0,1.0,part_1,,,,,,,,,,,,,yellow,flipped triangle
0.0,8.0,0.0,1.0,2.0,2.0,272.47063599998,3.0,1.0,part_1,,,,,,,,,,,,,yellow,flipped triangle
195.0,3.0,3.0,0.0,2.0,2.0,288.4042460000273,3.0,1.0,part_1,,,,,,,,,,,,,orange,I
48.0,5.0,1.0,1.0,1.0,1.0,317.3738539999249,3.0,1.0,part_1,,,,,,,,,,,,,magenta,triangle
215.0,3.0,3.0,0.0,4.0,4.0,282.7215160000378,3.0,1.0,part_1,,,,,,,,,,,,,orange,I
410.0,8.0,4.0,1.0,4.0,4.0,266.9753999998647,3.0,1.0,part_1,,,,,,,,,,,,,yellow,flipped triangle
397.0,4.0,4.0,0.0,2.0,2.0,234.0541630001098,3.0,1.0,part_1,,,,,,,,,,,,,gray,cross
208.0,3.0,3.0,0.0,3.0,3.0,281.5418759996646,3.0,1.0,part_1,,,,,,,,,,,,,orange,I
72.0,5.0,1.0,1.0,2.0,2.0,243.7816430001476,3.0,1.0,part_1,,,,,,,,,,,,,magenta,triangle
410.0,8.0,4.0,1.0,2.0,2.0,247.3447519996625,3.0,1.0,part_1,,,,,,,,,,,,,yellow,flipped triangle
417.0,4.0,4.0,0.0,1.0,1.0,314.2197150000356,3.0,1.0,part_1,,,,,,,,,,,,,gray,cross
414.0,4.0,4.0,0.0,1.0,1.0,281.6825650002101,3.0,2.0,part_1,,,,,,,,,,,,,gray,cross
51.0,5.0,1.0,1.0,2.0,2.0,243.1882579999182,3.0,1.0,part_1,,,,,,,,,,,,,magenta,triangle
29.0,5.0,1.0,1.0,3.0,3.0,249.9351360002037,3.0,1.0,part_1,,,,,,,,,,,,,magenta,triangle
123.0,2.0,2.0,0.0,2.0,2.0,292.8954449998855,3.0,2.0,part_1,,,,,,,,,,,,,green,hexagon
83.0,2.0,2.0,0.0,2.0,2.0,279.053716999897,3.0,1.0,part_1,,,,,,,,,,,,,green,hexagon
387.0,8.0,4.0,1.0,4.0,4.0,302.8179869997984,3.0,1.0,part_1,,,,,,,,,,,,,yellow,flipped triangle
406.0,8.0,4.0,1.0,1.0,1.0,298.4412880000491,3.0,1.0,part_1,,,,,,,,,,,,,yellow,flipped triangle
75.0,1.0,1.0,0.0,4.0,4.0,312.6272800000151,3.0,1.0,part_1,,,,,,,,,,,,,blue,diamond
0.0,3.0,0.0,0.0,2.0,2.0,288.442606999979,3.0,1.0,part_1,,,,,,,,,,,,,orange,I
215.0,3.0,3.0,0.0,3.0,3.0,307.3107730001538,3.0,1.0,part_1,,,,,,,,,,,,,orange,I
224.0,3.0,3.0,0.0,3.0,3.0,306.0760249995837,3.0,1.0,part_1,,,,,,,,,,,,,orange,I
0.0,1.0,0.0,0.0,3.0,3.0,298.3858049997252,3.0,1.0,part_1,,,,,,,,,,,,,blue,diamond
424.0,4.0,4.0,0.0,4.0,4.0,333.0691579999438,3.0,1.0,part_1,,,,,,,,,,,,,gray,cross
121.0,6.0,2.0,1.0,4.0,4.0,291.8457529999614,3.0,1.0,part_1,,,,,,,,,,,,,cyan,square
44.0,1.0,1.0,0.0,3.0,3.0,329.7429849999389,3.0,1.0,part_1,,,,,,,,,,,,,blue,diamond
0.0,2.0,0.0,0.0,2.0,2.0,269.5905659998061,3.0,1.0,part_1,,,,,,,,,,,,,green,hexagon
175.0,7.0,3.0,1.0,2.0,2.0,310.7800570001018,3.0,1.0,part_1,,,,,,,,,,,,,white,circle
91.0,2.0,2.0,0.0,1.0,1.0,264.9591919998784,3.0,1.0,part_1,,,,,,,,,,,,,green,hexagon
112.0,2.0,2.0,0.0,4.0,4.0,420.8320149996325,4.0,1.0,part_1,,,,,,,,,,,,,green,hexagon
0.0,7.0,0.0,1.0,4.0,4.0,315.2937640002164,4.0,1.0,part_1,,,,,,,,,,,,,white,circle
396.0,8.0,4.0,1.0,2.0,2.0,275.9074289997443,4.0,1.0,part_1,,,,,,,,,,,,,yellow,flipped triangle
42.0,5.0,1.0,1.0,4.0,4.0,262.5661749998471,4.0,1.0,part_1,,,,,,,,,,,,,magenta,triangle
80.0,2.0,2.0,0.0,1.0,1.0,300.3176899997015,4.0,1.0,part_1,,,,,,,,,,,,,green,hexagon
423.0,8.0,4.0,1.0,1.0,1.0,290.2972630004115,4.0,2.0,part_1,,,,,,,,,,,,,yellow,flipped triangle
0.0,7.0,0.0,1.0,3.0,3.0,279.00878099990217,4.0,1.0,part_1,,,,,,,,,,,,,white,circle
425.0,4.0,4.0,0.0,3.0,3.0,355.99990899982,4.0,1.0,part_1,,,,,,,,,,,,,gray,cross
64.0,1.0,1.0,0.0,2.0,2.0,341.9553980002092,4.0,1.0,part_1,,,,,,,,,,,,,blue,diamond
187.0,3.0,3.0,0.0,3.0,3.0,340.7554340001297,4.0,1.0,part_1,,,,,,,,,,,,,orange,I
0.0,3.0,0.0,0.0,2.0,2.0,237.8124140000181,4.0,1.0,part_1,,,,,,,,,,,,,orange,I
42.0,1.0,1.0,0.0,2.0,2.0,261.7649270000584,4.0,1.0,part_1,,,,,,,,,,,,,blue,diamond
31.0,5.0,1.0,1.0,2.0,2.0,265.0894789999256,4.0,1.0,part_1,,,,,,,,,,,,,magenta,triangle
67.0,5.0,1.0,1.0,4.0,4.0,334.1114949998882,4.0,1.0,part_1,,,,,,,,,,,,,magenta,triangle
45.0,5.0,1.0,1.0,4.0,4.0,345.1880880002136,4.0,1.0,part_1,,,,,,,,,,,,,magenta,triangle
414.0,8.0,4.0,1.0,3.0,3.0,285.6743299998925,4.0,1.0,part_1,,,,,,,,,,,,,yellow,flipped triangle
0.0,2.0,0.0,0.0,4.0,4.0,276.447226000073,4.0,1.0,part_1,,,,,,,,,,,,,green,hexagon
0.0,8.0,0.0,1.0,2.0,2.0,274.593028000254,4.0,1.0,part_1,,,,,,,,,,,,,yellow,flipped triangle
0.0,8.0,0.0,1.0,3.0,3.0,264.6732969997174,4.0,1.0,part_1,,,,,,,,,,,,,yellow,flipped triangle
183.0,3.0,3.0,0.0,1.0,1.0,252.3903210003482,4.0,1.0,part_1,,,,,,,,,,,,,orange,I
405.0,4.0,4.0,0.0,2.0,2.0,308.1366129999878,4.0,1.0,part_1,,,,,,,,,,,,,gray,cross
422.0,8.0,4.0,1.0,4.0,4.0,251.7054550003195,4.0,1.0,part_1,,,,,,,,,,,,,yellow,flipped triangle
97.0,2.0,2.0,0.0,4.0,4.0,286.8722789999083,4.0,1.0,part_1,,,,,,,,,,,,,green,hexagon
0.0,3.0,0.0,0.0,4.0,4.0,289.3096139996487,4.0,1.0,part_1,,,,,,,,,,,,,orange,I
396.0,4.0,4.0,0.0,4.0,4.0,307.5357230000008,4.0,1.0,part_1,,,,,,,,,,,,,gray,cross
206.0,3.0,3.0,0.0,4.0,4.0,285.9633459997894,4.0,1.0,part_1,,,,,,,,,,,,,orange,I
107.0,6.0,2.0,1.0,1.0,1.0,276.5472399996724,4.0,1.0,part_1,,,,,,,,,,,,,cyan,square
0.0,1.0,0.0,0.0,2.0,2.0,253.2246979999399,4.0,1.0,part_1,,,,,,,,,,,,,blue,diamond
390.0,4.0,4.0,0.0,3.0,3.0,293.4258880000016,4.0,1.0,part_1,,,,,,,,,,,,,gray,cross
393.0,4.0,4.0,0.0,1.0,1.0,229.1716400000041,4.0,1.0,part_1,,,,,,,,,,,,,gray,cross
214.0,7.0,3.0,1.0,1.0,1.0,284.9389339999106,4.0,1.0,part_1,,,,,,,,,,,,,white,circle
0.0,3.0,0.0,0.0,1.0,1.0,250.8314659999087,4.0,1.0,part_1,,,,,,,,,,,,,orange,I
59.0,5.0,1.0,1.0,4.0,4.0,268.0772500002604,4.0,1.0,part_1,,,,,,,,,,,,,magenta,triangle
76.0,2.0,2.0,0.0,4.0,4.0,297.0738119997804,4.0,2.0,part_1,,,,,,,,,,,,,green,hexagon
0.0,5.0,0.0,1.0,4.0,4.0,286.1338980001164,4.0,1.0,part_1,,,,,,,,,,,,,magenta,triangle
178.0,3.0,3.0,0.0,1.0,1.0,292.9561749997447,4.0,1.0,part_1,,,,,,,,,,,,,orange,I
38.0,5.0,1.0,1.0,3.0,3.0,317.7486310000859,4.0,1.0,part_1,,,,,,,,,,,,,magenta,triangle
32.0,5.0,1.0,1.0,2.0,2.0,261.0820410000087,4.0,1.0,part_1,,,,,,,,,,,,,magenta,triangle
384.0,4.0,4.0,0.0,3.0,3.0,283.9063719998194,4.0,2.0,part_1,,,,,,,,,,,,,gray,cross
380.0,4.0,4.0,0.0,2.0,2.0,320.7493670001895,4.0,1.0,part_1,,,,,,,,,,,,,gray,cross
97.0,6.0,2.0,1.0,2.0,2.0,305.3205270002763,4.0,1.0,part_1,,,,,,,,,,,,,cyan,square
224.0,7.0,3.0,1.0,1.0,1.0,344.4851509998443,4.0,1.0,part_1,,,,,,,,,,,,,white,circle
80.0,6.0,2.0,1.0,3.0,3.0,356.5724459999728,4.0,1.0,part_1,,,,,,,,,,,,,cyan,square
206.0,7.0,3.0,1.0,3.0,3.0,301.3201009998738,4.0,1.0,part_1,,,,,,,,,,,,,white,circle
78.0,6.0,2.0,1.0,3.0,3.0,314.4888920000994,4.0,1.0,part_1,,,,,,,,,,,,,cyan,square
101.0,2.0,2.0,0.0,3.0,3.0,297.5171429998227,4.0,1.0,part_1,,,,,,,,,,,,,green,hexagon
34.0,1.0,1.0,0.0,1.0,1.0,297.9995649998272,4.0,1.0,part_1,,,,,,,,,,,,,blue,diamond
44.0,1.0,1.0,0.0,3.0,3.0,272.0542080000996,4.0,1.0,part_1,,,,,,,,,,,,,blue,diamond
63.0,5.0,1.0,1.0,1.0,1.0,283.051111000077,4.0,1.0,part_1,,,,,,,,,,,,,magenta,triangle
0.0,5.0,0.0,1.0,4.0,4.0,284.7267749998536,4.0,1.0,part_1,,,,,,,,,,,,,magenta,triangle
379.0,8.0,4.0,1.0,1.0,1.0,262.8704270000526,4.0,1.0,part_1,,,,,,,,,,,,,yellow,flipped triangle
0.0,1.0,0.0,0.0,1.0,1.0,269.2800370000441,4.0,1.0,part_1,,,,,,,,,,,,,blue,diamond
0.0,7.0,0.0,1.0,4.0,4.0,417.4002580002707,4.0,1.0,part_1,,,,,,,,,,,,,white,circle
0.0,5.0,0.0,1.0,1.0,1.0,257.4796550002247,4.0,1.0,part_1,,,,,,,,,,,,,magenta,triangle
0.0,3.0,0.0,0.0,2.0,2.0,274.3764909996571,4.0,1.0,part_1,,,,,,,,,,,,,orange,I
106.0,2.0,2.0,0.0,3.0,3.0,277.3920730001009,4.0,1.0,part_1,,,,,,,,,,,,,green,hexagon
221.0,3.0,3.0,0.0,2.0,2.0,254.3431289996078,4.0,1.0,part_1,,,,,,,,,,,,,orange,I
84.0,2.0,2.0,0.0,1.0,1.0,297.2085070000503,4.0,1.0,part_1,,,,,,,,,,,,,green,hexagon
387.0,8.0,4.0,1.0,3.0,3.0,302.9632839998157,4.0,1.0,part_1,,,,,,,,,,,,,yellow,flipped triangle
178.0,3.0,3.0,0.0,1.0,1.0,228.922576000059,4.0,1.0,part_1,,,,,,,,,,,,,orange,I
112.0,6.0,2.0,1.0,3.0,3.0,257.5820419997399,4.0,1.0,part_1,,,,,,,,,,,,,cyan,square
177.0,7.0,3.0,1.0,4.0,4.0,320.4877580001266,4.0,1.0,part_1,,,,,,,,,,,,,white,circle
48.0,1.0,1.0,0.0,4.0,4.0,332.0005270002184,4.0,1.0,part_1,,,,,,,,,,,,,blue,diamond
210.0,7.0,3.0,1.0,3.0,3.0,332.1810150000601,4.0,1.0,part_1,,,,,,,,,,,,,white,circle
83.0,6.0,2.0,1.0,1.0,1.0,230.8786240000699,4.0,1.0,part_1,,,,,,,,,,,,,cyan,square
415.0,4.0,4.0,0.0,3.0,3.0,268.1605260004289,4.0,1.0,part_1,,,,,,,,,,,,,gray,cross
109.0,6.0,2.0,1.0,2.0,2.0,224.4215040000199,4.0,1.0,part_1,,,,,,,,,,,,,cyan,square
0.0,8.0,0.0,1.0,4.0,4.0,286.8690059999608,4.0,1.0,part_1,,,,,,,,,,,,,yellow,flipped triangle
215.0,7.0,3.0,1.0,3.0,3.0,298.749990000033,4.0,1.0,part_1,,,,,,,,,,,,,white,circle
0.0,1.0,0.0,0.0,2.0,2.0,256.063364000056,4.0,1.0,part_1,,,,,,,,,,,,,blue,diamond
36.0,1.0,1.0,0.0,3.0,3.0,276.7405260001396,4.0,1.0,part_1,,,,,,,,,,,,,blue,diamond
102.0,6.0,2.0,1.0,1.0,1.0,219.043701999908,4.0,1.0,part_1,,,,,,,,,,,,,cyan,square
120.0,2.0,2.0,0.0,1.0,1.0,285.5838079999557,4.0,1.0,part_1,,,,,,,,,,,,,green,hexagon
391.0,8.0,4.0,1.0,1.0,1.0,271.5246709999519,4.0,1.0,part_1,,,,,,,,,,,,,yellow,flipped triangle
0.0,2.0,0.0,0.0,4.0,4.0,285.4192559998409,4.0,1.0,part_1,,,,,,,,,,,,,green,hexagon
107.0,2.0,2.0,0.0,3.0,3.0,269.7491590001846,4.0,1.0,part_1,,,,,,,,,,,,,green,hexagon
182.0,3.0,3.0,0.0,2.0,2.0,257.5919699997939,4.0,1.0,part_1,,,,,,,,,,,,,orange,I
64.0,5.0,1.0,1.0,2.0,2.0,275.14947100007697,4.0,1.0,part_1,,,,,,,,,,,,,magenta,triangle
399.0,8.0,4.0,1.0,1.0,1.0,234.1512849998253,4.0,1.0,part_1,,,,,,,,,,,,,yellow,flipped triangle
202.0,3.0,3.0,0.0,2.0,2.0,247.7791480000633,4.0,1.0,part_1,,,,,,,,,,,,,orange,I
77.0,2.0,2.0,0.0,2.0,2.0,294.1768030000276,4.0,1.0,part_1,,,,,,,,,,,,,green,hexagon
215.0,7.0,3.0,1.0,1.0,1.0,250.7260940001288,4.0,1.0,part_1,,,,,,,,,,,,,white,circle
68.0,1.0,1.0,0.0,4.0,4.0,327.9290609998497,4.0,1.0,part_1,,,,,,,,,,,,,blue,diamond
0.0,5.0,0.0,1.0,1.0,1.0,281.9767230002981,4.0,1.0,part_1,,,,,,,,,,,,,magenta,triangle
0.0,4.0,0.0,0.0,1.0,1.0,267.3814480003784,4.0,1.0,part_1,,,,,,,,,,,,,gray,cross
397.0,4.0,4.0,0.0,1.0,1.0,241.6250549999858,4.0,1.0,part_1,,,,,,,,,,,,,gray,cross
26.0,1.0,1.0,0.0,1.0,1.0,255.0529229997664,4.0,1.0,part_1,,,,,,,,,,,,,blue,diamond
43.0,5.0,1.0,1.0,2.0,2.0,293.6019270000543,4.0,1.0,part_1,,,,,,,,,,,,,magenta,triangle
0.0,7.0,0.0,1.0,2.0,2.0,244.9953549999008,4.0,1.0,part_1,,,,,,,,,,,,,white,circle
388.0,8.0,4.0,1.0,3.0,3.0,324.4682249996913,4.0,1.0,part_1,,,,,,,,,,,,,yellow,flipped triangle
193.0,3.0,3.0,0.0,1.0,1.0,248.1207639998501,4.0,1.0,part_1,,,,,,,,,,,,,orange,I
101.0,6.0,2.0,1.0,3.0,3.0,293.6830139997255,4.0,2.0,part_1,,,,,,,,,,,,,cyan,square
86.0,2.0,2.0,0.0,2.0,2.0,232.9160230001434,4.0,1.0,part_1,,,,,,,,,,,,,green,hexagon
61.0,1.0,1.0,0.0,1.0,1.0,273.3008969998991,4.0,1.0,part_1,,,,,,,,,,,,,blue,diamond
86.0,6.0,2.0,1.0,1.0,1.0,247.5417570003628,4.0,1.0,part_1,,,,,,,,,,,,,cyan,square
79.0,2.0,2.0,0.0,2.0,2.0,269.6676479999951,4.0,1.0,part_1,,,,,,,,,,,,,green,hexagon
403.0,4.0,4.0,0.0,4.0,4.0,359.0007870002409,4.0,1.0,part_1,,,,,,,,,,,,,gray,cross
115.0,6.0,2.0,1.0,2.0,2.0,267.8953859999637,4.0,1.0,part_1,,,,,,,,,,,,,cyan,square
67.0,1.0,1.0,0.0,1.0,1.0,269.3149390001963,4.0,1.0,part_1,,,,,,,,,,,,,blue,diamond
386.0,4.0,4.0,0.0,4.0,4.0,301.8626869998115,4.0,1.0,part_1,,,,,,,,,,,,,gray,cross
0.0,1.0,1.0,0.0,5.0,5.0,424.4236429999546,1.0,0.0,part_2,go,250.0,250.0,1.0,,,,,,,,,blue,diamond
0.0,8.0,4.0,1.0,5.0,5.0,296.6010390000519,1.0,0.0,part_2,go,250.0,250.0,1.0,,,,,,,,,yellow,flipped triangle
0.0,4.0,4.0,0.0,5.0,5.0,274.650732000282,1.0,0.0,part_2,go,250.0,250.0,1.0,,,,,,,,,gray,cross
0.0,7.0,3.0,1.0,6.0,0.0,0.0,1.0,0.0,part_2,stop,250.0,250.0,4.0,,,,,,,,,white,circle
0.0,4.0,4.0,0.0,5.0,5.0,460.9089360001235,1.0,0.0,part_2,go,250.0,300.0,1.0,,,,,,,,,gray,cross
0.0,7.0,3.0,1.0,6.0,6.0,330.532576999758,1.0,0.0,part_2,stop,250.0,300.0,3.0,,,,,,,,,white,circle
0.0,3.0,3.0,0.0,5.0,5.0,433.0486450003263,1.0,0.0,part_2,go,250.0,250.0,1.0,,,,,,,,,orange,I
0.0,1.0,1.0,0.0,5.0,5.0,429.4647349997831,1.0,0.0,part_2,go,250.0,250.0,1.0,,,,,,,,,blue,diamond
0.0,2.0,2.0,0.0,6.0,6.0,454.9624979999862,1.0,0.0,part_2,go,250.0,250.0,1.0,,,,,,,,,green,hexagon
0.0,2.0,2.0,0.0,5.0,5.0,374.5154250000269,1.0,0.0,part_2,go,250.0,250.0,1.0,,,,,,,,,green,hexagon
0.0,1.0,1.0,0.0,5.0,5.0,283.0781560001014,1.0,0.0,part_2,go,250.0,250.0,1.0,,,,,,,,,blue,diamond
0.0,7.0,3.0,1.0,5.0,5.0,338.8523809999242,1.0,0.0,part_2,stop,250.0,250.0,3.0,,,,,,,,,white,circle
0.0,6.0,2.0,1.0,5.0,5.0,547.3691289998897,1.0,0.0,part_2,go,200.0,250.0,1.0,,,,,,,,,cyan,square
0.0,4.0,4.0,0.0,5.0,5.0,333.9342959998248,1.0,0.0,part_2,go,200.0,250.0,1.0,,,,,,,,,gray,cross
0.0,8.0,4.0,1.0,6.0,6.0,454.8850629998924,1.0,0.0,part_2,stop,200.0,250.0,3.0,,,,,,,,,yellow,flipped triangle
0.0,1.0,1.0,0.0,5.0,5.0,312.2867219999534,1.0,0.0,part_2,go,200.0,200.0,1.0,,,,,,,,,blue,diamond
0.0,7.0,3.0,1.0,6.0,0.0,0.0,1.0,0.0,part_2,stop,200.0,200.0,4.0,,,,,,,,,white,circle
0.0,5.0,1.0,1.0,5.0,0.0,0.0,1.0,0.0,part_2,stop,200.0,250.0,4.0,,,,,,,,,magenta,triangle
0.0,7.0,3.0,1.0,5.0,5.0,526.7881869999655,1.0,0.0,part_2,go,250.0,250.0,1.0,,,,,,,,,white,circle
0.0,6.0,2.0,1.0,6.0,6.0,598.625357000401,1.0,0.0,part_2,go,250.0,250.0,1.0,,,,,,,,,cyan,square
0.0,7.0,3.0,1.0,5.0,0.0,0.0,1.0,0.0,part_2,stop,250.0,250.0,4.0,,,,,,,,,white,circle
0.0,3.0,3.0,0.0,6.0,6.0,595.6147849997251,1.0,0.0,part_2,go,300.0,250.0,1.0,,,,,,,,,orange,I
0.0,5.0,1.0,1.0,6.0,0.0,0.0,1.0,0.0,part_2,stop,300.0,250.0,4.0,,,,,,,,,magenta,triangle
0.0,7.0,3.0,1.0,5.0,5.0,590.5324260002089,1.0,0.0,part_2,go,300.0,300.0,1.0,,,,,,,,,white,circle
0.0,8.0,4.0,1.0,6.0,0.0,0.0,1.0,0.0,part_2,stop,300.0,300.0,4.0,,,,,,,,,yellow,flipped triangle
0.0,8.0,4.0,1.0,6.0,0.0,0.0,1.0,0.0,part_2,stop,300.0,350.0,4.0,,,,,,,,,yellow,flipped triangle
0.0,6.0,2.0,1.0,5.0,5.0,401.0716560001128,1.0,0.0,part_2,stop,300.0,400.0,3.0,,,,,,,,,cyan,square
0.0,2.0,2.0,0.0,6.0,6.0,562.752778000231,1.0,0.0,part_2,go,250.0,400.0,1.0,,,,,,,,,green,hexagon
0.0,1.0,1.0,0.0,6.0,6.0,700.4760189997796,1.0,0.0,part_2,go,250.0,400.0,1.0,,,,,,,,,blue,diamond
0.0,3.0,3.0,0.0,6.0,6.0,600.8790240002782,1.0,0.0,part_2,go,250.0,400.0,1.0,,,,,,,,,orange,I
0.0,2.0,2.0,0.0,6.0,6.0,667.8366239998468,1.0,0.0,part_2,go,250.0,400.0,1.0,,,,,,,,,green,hexagon
0.0,5.0,1.0,1.0,5.0,5.0,375.800548999905,1.0,0.0,part_2,go,250.0,400.0,1.0,,,,,,,,,magenta,triangle
0.0,3.0,3.0,0.0,6.0,6.0,505.1572219999798,1.0,0.0,part_2,go,250.0,400.0,1.0,,,,,,,,,orange,I
0.0,8.0,4.0,1.0,5.0,0.0,0.0,1.0,0.0,part_2,stop,250.0,400.0,4.0,,,,,,,,,yellow,flipped triangle
0.0,5.0,1.0,1.0,5.0,0.0,0.0,1.0,0.0,part_2,stop,300.0,400.0,4.0,,,,,,,,,magenta,triangle
0.0,8.0,4.0,1.0,5.0,0.0,0.0,1.0,0.0,part_2,stop,350.0,400.0,4.0,,,,,,,,,yellow,flipped triangle
0.0,4.0,4.0,0.0,6.0,6.0,522.9077760000109,2.0,0.0,part_2,go,400.0,400.0,1.0,,,,,,,,,gray,cross
0.0,8.0,4.0,1.0,6.0,6.0,394.1076989999601,2.0,0.0,part_2,stop,400.0,400.0,3.0,,,,,,,,,yellow,flipped triangle
0.0,2.0,2.0,0.0,5.0,5.0,566.2582989998555,2.0,0.0,part_2,go,400.0,350.0,1.0,,,,,,,,,green,hexagon
0.0,7.0,3.0,1.0,5.0,0.0,0.0,2.0,0.0,part_2,stop,400.0,350.0,4.0,,,,,,,,,white,circle
0.0,2.0,2.0,0.0,6.0,6.0,416.7217579997668,2.0,0.0,part_2,go,450.0,350.0,1.0,,,,,,,,,green,hexagon
0.0,1.0,1.0,0.0,5.0,5.0,703.633701000399,2.0,0.0,part_2,go,450.0,350.0,1.0,,,,,,,,,blue,diamond
0.0,5.0,1.0,1.0,5.0,0.0,0.0,2.0,0.0,part_2,stop,450.0,350.0,4.0,,,,,,,,,magenta,triangle
0.0,4.0,4.0,0.0,5.0,5.0,537.9981199998838,2.0,0.0,part_2,go,500.0,350.0,1.0,,,,,,,,,gray,cross
0.0,7.0,3.0,1.0,5.0,5.0,564.6594630002255,2.0,0.0,part_2,go,500.0,350.0,1.0,,,,,,,,,white,circle
0.0,3.0,3.0,0.0,5.0,5.0,529.99602600039,2.0,0.0,part_2,go,500.0,350.0,1.0,,,,,,,,,orange,I
0.0,7.0,3.0,1.0,6.0,0.0,0.0,2.0,0.0,part_2,stop,500.0,350.0,4.0,,,,,,,,,white,circle
0.0,2.0,2.0,0.0,6.0,6.0,617.3661319999155,2.0,0.0,part_2,go,500.0,400.0,1.0,,,,,,,,,green,hexagon
0.0,5.0,1.0,1.0,6.0,0.0,0.0,2.0,0.0,part_2,stop,500.0,400.0,4.0,,,,,,,,,magenta,triangle
0.0,4.0,4.0,0.0,6.0,6.0,569.2609140000968,2.0,0.0,part_2,go,500.0,450.0,1.0,,,,,,,,,gray,cross
0.0,5.0,1.0,1.0,5.0,5.0,349.9663419997887,2.0,0.0,part_2,stop,500.0,450.0,3.0,,,,,,,,,magenta,triangle
0.0,8.0,4.0,1.0,5.0,0.0,0.0,2.0,0.0,part_2,stop,450.0,450.0,4.0,,,,,,,,,yellow,flipped triangle
0.0,2.0,2.0,0.0,6.0,6.0,660.7852510001067,2.0,0.0,part_2,go,500.0,450.0,1.0,,,,,,,,,green,hexagon
0.0,1.0,1.0,0.0,6.0,6.0,455.1854749997801,2.0,0.0,part_2,go,500.0,450.0,1.0,,,,,,,,,blue,diamond
0.0,2.0,2.0,0.0,5.0,5.0,536.1255480002001,2.0,0.0,part_2,go,500.0,450.0,1.0,,,,,,,,,green,hexagon
0.0,6.0,2.0,1.0,6.0,6.0,440.8514030001242,2.0,0.0,part_2,stop,500.0,450.0,3.0,,,,,,,,,cyan,square
0.0,7.0,3.0,1.0,5.0,5.0,600.5056889998741,2.0,0.0,part_2,stop,500.0,400.0,3.0,,,,,,,,,white,circle
0.0,6.0,2.0,1.0,5.0,5.0,487.6594960001057,2.0,0.0,part_2,stop,450.0,400.0,3.0,,,,,,,,,cyan,square
0.0,4.0,4.0,0.0,6.0,6.0,505.0383669999974,2.0,0.0,part_2,go,400.0,400.0,1.0,,,,,,,,,gray,cross
0.0,7.0,3.0,1.0,6.0,0.0,0.0,2.0,0.0,part_2,stop,400.0,400.0,4.0,,,,,,,,,white,circle
0.0,4.0,4.0,0.0,6.0,6.0,576.3351900000089,2.0,0.0,part_2,go,400.0,450.0,1.0,,,,,,,,,gray,cross
0.0,1.0,1.0,0.0,5.0,5.0,779.4872050003505,2.0,0.0,part_2,go,400.0,450.0,1.0,,,,,,,,,blue,diamond
0.0,8.0,4.0,1.0,5.0,5.0,506.20361900018906,2.0,0.0,part_2,stop,400.0,450.0,3.0,,,,,,,,,yellow,flipped triangle
0.0,8.0,4.0,1.0,6.0,0.0,0.0,2.0,0.0,part_2,stop,350.0,450.0,4.0,,,,,,,,,yellow,flipped triangle
0.0,8.0,4.0,1.0,5.0,5.0,632.6091189998806,2.0,0.0,part_2,go,350.0,500.0,1.0,,,,,,,,,yellow,flipped triangle
0.0,3.0,3.0,0.0,6.0,6.0,611.2814019998041,2.0,0.0,part_2,go,350.0,500.0,1.0,,,,,,,,,orange,I
0.0,1.0,1.0,0.0,6.0,6.0,553.2977010002469,2.0,0.0,part_2,go,350.0,500.0,1.0,,,,,,,,,blue,diamond
0.0,3.0,3.0,0.0,5.0,5.0,516.7623659999663,2.0,0.0,part_2,go,350.0,500.0,1.0,,,,,,,,,orange,I
0.0,1.0,1.0,0.0,6.0,6.0,497.4159929997768,2.0,0.0,part_2,go,350.0,500.0,1.0,,,,,,,,,blue,diamond
0.0,8.0,4.0,1.0,5.0,5.0,345.3844010000466,2.0,0.0,part_2,stop,350.0,500.0,3.0,,,,,,,,,yellow,flipped triangle
0.0,1.0,1.0,0.0,6.0,6.0,669.304533000286,2.0,0.0,part_2,go,300.0,500.0,1.0,,,,,,,,,blue,diamond
0.0,5.0,1.0,1.0,6.0,6.0,597.5264479998259,2.0,0.0,part_2,stop,300.0,500.0,3.0,,,,,,,,,magenta,triangle
0.0,2.0,2.0,0.0,6.0,6.0,426.6085909998764,3.0,0.0,part_2,go,300.0,450.0,1.0,,,,,,,,,green,hexagon
0.0,1.0,1.0,0.0,6.0,6.0,360.6218889999582,3.0,0.0,part_2,go,300.0,450.0,1.0,,,,,,,,,blue,diamond
0.0,1.0,1.0,0.0,5.0,5.0,282.8025729995715,3.0,0.0,part_2,go,300.0,450.0,1.0,,,,,,,,,blue,diamond
0.0,2.0,2.0,0.0,5.0,5.0,519.378362000225,3.0,0.0,part_2,go,300.0,450.0,1.0,,,,,,,,,green,hexagon
0.0,3.0,3.0,0.0,6.0,6.0,607.6408439998886,3.0,0.0,part_2,go,300.0,450.0,1.0,,,,,,,,,orange,I
0.0,4.0,4.0,0.0,6.0,6.0,613.2809310001903,3.0,0.0,part_2,go,300.0,450.0,1.0,,,,,,,,,gray,cross
0.0,3.0,3.0,0.0,5.0,5.0,457.1335000000545,3.0,0.0,part_2,go,300.0,450.0,1.0,,,,,,,,,orange,I
0.0,6.0,2.0,1.0,5.0,0.0,0.0,3.0,0.0,part_2,stop,300.0,450.0,4.0,,,,,,,,,cyan,square
0.0,4.0,4.0,0.0,5.0,5.0,439.0140959999371,3.0,0.0,part_2,go,350.0,450.0,1.0,,,,,,,,,gray,cross
0.0,4.0,4.0,0.0,5.0,5.0,497.656834999816,3.0,0.0,part_2,go,350.0,450.0,1.0,,,,,,,,,gray,cross
0.0,3.0,3.0,0.0,5.0,5.0,315.0111290001405,3.0,0.0,part_2,go,350.0,450.0,1.0,,,,,,,,,orange,I
0.0,8.0,4.0,1.0,6.0,6.0,491.4681660002316,3.0,0.0,part_2,stop,350.0,450.0,3.0,,,,,,,,,yellow,flipped triangle
0.0,5.0,1.0,1.0,6.0,0.0,0.0,3.0,0.0,part_2,stop,350.0,400.0,4.0,,,,,,,,,magenta,triangle
0.0,4.0,4.0,0.0,6.0,6.0,616.3013890000002,3.0,0.0,part_2,go,350.0,450.0,1.0,,,,,,,,,gray,cross
0.0,6.0,2.0,1.0,5.0,5.0,567.6541960001487,3.0,0.0,part_2,go,350.0,450.0,1.0,,,,,,,,,cyan,square
0.0,7.0,3.0,1.0,5.0,0.0,0.0,3.0,0.0,part_2,stop,350.0,450.0,4.0,,,,,,,,,white,circle
0.0,2.0,2.0,0.0,6.0,6.0,615.3775610000594,3.0,0.0,part_2,go,400.0,450.0,1.0,,,,,,,,,green,hexagon
0.0,4.0,4.0,0.0,5.0,5.0,460.2318180000111,3.0,0.0,part_2,go,400.0,450.0,1.0,,,,,,,,,gray,cross
0.0,7.0,3.0,1.0,5.0,5.0,515.8040880000954,3.0,0.0,part_2,stop,400.0,450.0,3.0,,,,,,,,,white,circle
0.0,5.0,1.0,1.0,5.0,0.0,0.0,3.0,0.0,part_2,stop,350.0,450.0,4.0,,,,,,,,,magenta,triangle
0.0,6.0,2.0,1.0,5.0,5.0,566.608406999876,3.0,0.0,part_2,go,400.0,450.0,1.0,,,,,,,,,cyan,square
0.0,2.0,2.0,0.0,6.0,6.0,516.8191389998356,3.0,0.0,part_2,go,400.0,450.0,1.0,,,,,,,,,green,hexagon
0.0,7.0,3.0,1.0,5.0,5.0,605.1496750001206,3.0,0.0,part_2,go,400.0,450.0,1.0,,,,,,,,,white,circle
0.0,7.0,3.0,1.0,6.0,0.0,0.0,3.0,0.0,part_2,stop,400.0,450.0,4.0,,,,,,,,,white,circle
0.0,4.0,4.0,0.0,5.0,5.0,457.3651870000503,3.0,0.0,part_2,go,400.0,500.0,1.0,,,,,,,,,gray,cross
0.0,5.0,1.0,1.0,6.0,6.0,562.5699699999132,3.0,0.0,part_2,stop,400.0,500.0,3.0,,,,,,,,,magenta,triangle
0.0,5.0,1.0,1.0,5.0,0.0,0.0,3.0,0.0,part_2,stop,400.0,450.0,4.0,,,,,,,,,magenta,triangle
0.0,3.0,3.0,0.0,5.0,5.0,585.8975459996145,3.0,0.0,part_2,go,450.0,450.0,1.0,,,,,,,,,orange,I
0.0,6.0,2.0,1.0,5.0,0.0,0.0,3.0,0.0,part_2,stop,450.0,450.0,4.0,,,,,,,,,cyan,square
0.0,4.0,4.0,0.0,6.0,6.0,650.046796999959,3.0,0.0,part_2,go,500.0,450.0,1.0,,,,,,,,,gray,cross
0.0,3.0,3.0,0.0,6.0,6.0,657.4584529998901,3.0,0.0,part_2,go,500.0,450.0,1.0,,,,,,,,,orange,I
0.0,4.0,4.0,0.0,5.0,5.0,629.4372480001584,3.0,0.0,part_2,go,500.0,450.0,1.0,,,,,,,,,gray,cross
0.0,2.0,2.0,0.0,5.0,5.0,485.8184589998018,3.0,0.0,part_2,go,500.0,450.0,1.0,,,,,,,,,green,hexagon
0.0,8.0,4.0,1.0,6.0,6.0,327.6356610003859,3.0,0.0,part_2,stop,500.0,450.0,3.0,,,,,,,,,yellow,flipped triangle
0.0,1.0,1.0,0.0,5.0,5.0,650.8615550001196,3.0,0.0,part_2,go,500.0,400.0,1.0,,,,,,,,,blue,diamond
0.0,5.0,1.0,1.0,6.0,0.0,0.0,3.0,0.0,part_2,stop,500.0,400.0,4.0,,,,,,,,,magenta,triangle
0.0,2.0,2.0,0.0,5.0,5.0,412.759000999813,4.0,0.0,part_2,go,500.0,450.0,1.0,,,,,,,,,green,hexagon
0.0,2.0,2.0,0.0,5.0,5.0,302.8771229996891,4.0,0.0,part_2,go,500.0,450.0,1.0,,,,,,,,,green,hexagon
0.0,1.0,1.0,0.0,5.0,5.0,335.8653300001606,4.0,0.0,part_2,go,500.0,450.0,1.0,,,,,,,,,blue,diamond
0.0,4.0,4.0,0.0,6.0,6.0,508.44238499985295,4.0,0.0,part_2,go,500.0,450.0,1.0,,,,,,,,,gray,cross
0.0,5.0,1.0,1.0,5.0,5.0,537.0314649999273,4.0,0.0,part_2,stop,500.0,450.0,3.0,,,,,,,,,magenta,triangle
0.0,6.0,2.0,1.0,6.0,6.0,612.4384539998573,4.0,0.0,part_2,stop,450.0,450.0,3.0,,,,,,,,,cyan,square
0.0,2.0,2.0,0.0,5.0,5.0,735.5460140001924,4.0,0.0,part_2,go,450.0,400.0,1.0,,,,,,,,,green,hexagon
0.0,1.0,1.0,0.0,6.0,6.0,663.6623710001004,4.0,0.0,part_2,go,450.0,400.0,1.0,,,,,,,,,blue,diamond
0.0,6.0,2.0,1.0,5.0,0.0,0.0,4.0,0.0,part_2,stop,450.0,400.0,4.0,,,,,,,,,cyan,square
0.0,7.0,3.0,1.0,5.0,5.0,607.6008709997041,4.0,0.0,part_2,stop,500.0,400.0,3.0,,,,,,,,,white,circle
0.0,3.0,3.0,0.0,6.0,6.0,618.4970019999128,4.0,0.0,part_2,go,450.0,400.0,1.0,,,,,,,,,orange,I
0.0,3.0,3.0,0.0,5.0,5.0,725.6080060001295,4.0,0.0,part_2,go,450.0,400.0,1.0,,,,,,,,,orange,I
0.0,6.0,2.0,1.0,6.0,0.0,0.0,4.0,0.0,part_2,stop,450.0,400.0,4.0,,,,,,,,,cyan,square
0.0,1.0,1.0,0.0,5.0,5.0,717.1877730002052,4.0,0.0,part_2,go,450.0,450.0,1.0,,,,,,,,,blue,diamond
0.0,5.0,1.0,1.0,6.0,0.0,0.0,4.0,0.0,part_2,stop,450.0,450.0,4.0,,,,,,,,,magenta,triangle
0.0,8.0,4.0,1.0,6.0,0.0,0.0,4.0,0.0,part_2,stop,450.0,500.0,4.0,,,,,,,,,yellow,flipped triangle
0.0,7.0,3.0,1.0,6.0,6.0,628.5328230001141,4.0,0.0,part_2,stop,450.0,550.0,3.0,,,,,,,,,white,circle
0.0,2.0,2.0,0.0,5.0,5.0,633.8001169997369,4.0,0.0,part_2,go,450.0,500.0,1.0,,,,,,,,,green,hexagon
0.0,8.0,4.0,1.0,5.0,0.0,0.0,4.0,0.0,part_2,stop,450.0,500.0,4.0,,,,,,,,,yellow,flipped triangle
0.0,8.0,4.0,1.0,5.0,5.0,644.9283789997935,4.0,0.0,part_2,stop,500.0,500.0,3.0,,,,,,,,,yellow,flipped triangle
0.0,5.0,1.0,1.0,6.0,0.0,0.0,4.0,0.0,part_2,stop,450.0,500.0,4.0,,,,,,,,,magenta,triangle
0.0,4.0,4.0,0.0,5.0,5.0,793.4181700002227,4.0,0.0,part_2,go,450.0,550.0,1.0,,,,,,,,,gray,cross
0.0,1.0,1.0,0.0,6.0,6.0,696.4797259997795,4.0,0.0,part_2,go,450.0,550.0,1.0,,,,,,,,,blue,diamond
0.0,5.0,1.0,1.0,6.0,6.0,548.2862230001047,4.0,0.0,part_2,go,450.0,550.0,1.0,,,,,,,,,magenta,triangle
0.0,1.0,1.0,0.0,5.0,5.0,534.9396809997415,4.0,0.0,part_2,go,450.0,550.0,1.0,,,,,,,,,blue,diamond
0.0,7.0,3.0,1.0,6.0,6.0,306.0765830000491,4.0,0.0,part_2,stop,450.0,550.0,3.0,,,,,,,,,white,circle
0.0,4.0,4.0,0.0,6.0,6.0,611.9016420002481,4.0,0.0,part_2,go,450.0,500.0,1.0,,,,,,,,,gray,cross
0.0,2.0,2.0,0.0,6.0,6.0,550.5655340002704,4.0,0.0,part_2,go,450.0,500.0,1.0,,,,,,,,,green,hexagon
0.0,5.0,1.0,1.0,5.0,5.0,561.6735970002082,4.0,0.0,part_2,go,450.0,500.0,1.0,,,,,,,,,magenta,triangle
0.0,4.0,4.0,0.0,5.0,5.0,515.7889280003474,4.0,0.0,part_2,go,450.0,500.0,1.0,,,,,,,,,gray,cross
0.0,1.0,1.0,0.0,6.0,6.0,545.0100960001691,4.0,0.0,part_2,go,450.0,500.0,1.0,,,,,,,,,blue,diamond
0.0,8.0,4.0,1.0,6.0,0.0,0.0,4.0,0.0,part_2,stop,450.0,500.0,4.0,,,,,,,,,yellow,flipped triangle
0.0,7.0,3.0,1.0,6.0,6.0,601.6458629997032,4.0,0.0,part_2,stop,450.0,550.0,3.0,,,,,,,,,white,circle
0.0,2.0,2.0,0.0,5.0,5.0,774.3408140004249,4.0,0.0,part_2,go,450.0,500.0,1.0,,,,,,,,,green,hexagon
0.0,8.0,4.0,1.0,5.0,0.0,0.0,4.0,0.0,part_2,stop,450.0,500.0,4.0,,,,,,,,,yellow,flipped triangle
0.0,3.0,3.0,0.0,6.0,6.0,712.2439989998384,4.0,0.0,part_2,go,500.0,500.0,1.0,,,,,,,,,orange,I
0.0,6.0,2.0,1.0,5.0,5.0,382.7884659999654,5.0,0.0,part_2,stop,500.0,500.0,3.0,,,,,,,,,cyan,square
0.0,8.0,4.0,1.0,6.0,6.0,539.2132059996584,5.0,0.0,part_2,stop,450.0,500.0,3.0,,,,,,,,,yellow,flipped triangle
0.0,6.0,2.0,1.0,5.0,5.0,593.064050999601,5.0,0.0,part_2,go,450.0,450.0,1.0,,,,,,,,,cyan,square
0.0,5.0,1.0,1.0,5.0,0.0,0.0,5.0,0.0,part_2,stop,450.0,450.0,4.0,,,,,,,,,magenta,triangle
0.0,4.0,4.0,0.0,6.0,6.0,559.7837370000889,5.0,0.0,part_2,go,500.0,450.0,1.0,,,,,,,,,gray,cross
0.0,5.0,1.0,1.0,6.0,0.0,0.0,5.0,0.0,part_2,stop,500.0,450.0,4.0,,,,,,,,,magenta,triangle
0.0,3.0,3.0,0.0,6.0,6.0,802.8250970000954,5.0,0.0,part_2,go,500.0,500.0,1.0,,,,,,,,,orange,I
0.0,4.0,4.0,0.0,5.0,5.0,614.405232000081,5.0,0.0,part_2,go,500.0,500.0,1.0,,,,,,,,,gray,cross
0.0,7.0,3.0,1.0,6.0,6.0,579.9058250004236,5.0,0.0,part_2,go,500.0,500.0,1.0,,,,,,,,,white,circle
0.0,2.0,2.0,0.0,6.0,6.0,619.816290000017,5.0,0.0,part_2,go,500.0,500.0,1.0,,,,,,,,,green,hexagon
0.0,4.0,4.0,0.0,6.0,6.0,696.0397729999386,5.0,0.0,part_2,go,500.0,500.0,1.0,,,,,,,,,gray,cross
0.0,5.0,1.0,1.0,6.0,6.0,579.6410210000431,5.0,0.0,part_2,go,500.0,500.0,1.0,,,,,,,,,magenta,triangle
0.0,5.0,1.0,1.0,5.0,5.0,759.7004039998865,5.0,0.0,part_2,go,500.0,500.0,1.0,,,,,,,,,magenta,triangle
0.0,8.0,4.0,1.0,5.0,5.0,661.9276530000207,5.0,0.0,part_2,stop,500.0,500.0,3.0,,,,,,,,,yellow,flipped triangle
0.0,2.0,2.0,0.0,6.0,6.0,784.7296789996108,5.0,0.0,part_2,go,450.0,500.0,1.0,,,,,,,,,green,hexagon
0.0,2.0,2.0,0.0,6.0,6.0,586.1171150004338,5.0,0.0,part_2,go,450.0,500.0,1.0,,,,,,,,,green,hexagon
0.0,1.0,1.0,0.0,5.0,5.0,758.9020609998443,5.0,0.0,part_2,go,450.0,500.0,1.0,,,,,,,,,blue,diamond
0.0,7.0,3.0,1.0,6.0,6.0,531.3214579996384,5.0,0.0,part_2,stop,450.0,500.0,3.0,,,,,,,,,white,circle
0.0,7.0,3.0,1.0,6.0,6.0,721.7840889998115,5.0,0.0,part_2,go,450.0,450.0,1.0,,,,,,,,,white,circle
0.0,3.0,3.0,0.0,6.0,6.0,739.5997610001359,5.0,0.0,part_2,go,450.0,450.0,1.0,,,,,,,,,orange,I
0.0,7.0,3.0,1.0,6.0,0.0,0.0,5.0,0.0,part_2,stop,450.0,450.0,4.0,,,,,,,,,white,circle
0.0,1.0,1.0,0.0,6.0,6.0,667.7781970001888,5.0,0.0,part_2,go,450.0,500.0,1.0,,,,,,,,,blue,diamond
0.0,5.0,1.0,1.0,6.0,6.0,614.3346399999245,5.0,0.0,part_2,go,450.0,500.0,1.0,,,,,,,,,magenta,triangle
0.0,6.0,2.0,1.0,5.0,5.0,310.9867919997668,5.0,0.0,part_2,stop,450.0,500.0,3.0,,,,,,,,,cyan,square
0.0,2.0,2.0,0.0,6.0,6.0,805.7012479998775,5.0,0.0,part_2,go,400.0,500.0,1.0,,,,,,,,,green,hexagon
0.0,2.0,2.0,0.0,6.0,6.0,549.6467739999389,5.0,0.0,part_2,go,400.0,500.0,1.0,,,,,,,,,green,hexagon
0.0,6.0,2.0,1.0,5.0,0.0,0.0,5.0,0.0,part_2,stop,400.0,500.0,4.0,,,,,,,,,cyan,square
0.0,8.0,4.0,1.0,5.0,5.0,872.3764409996875,5.0,0.0,part_2,go,450.0,500.0,1.0,,,,,,,,,yellow,flipped triangle
0.0,5.0,1.0,1.0,5.0,5.0,816.2910480000392,5.0,0.0,part_2,go,450.0,500.0,1.0,,,,,,,,,magenta,triangle
0.0,2.0,2.0,0.0,5.0,5.0,667.5186779998512,5.0,0.0,part_2,go,450.0,500.0,1.0,,,,,,,,,green,hexagon
0.0,3.0,3.0,0.0,6.0,6.0,612.8170169999976,5.0,0.0,part_2,go,450.0,500.0,1.0,,,,,,,,,orange,I
0.0,3.0,3.0,0.0,5.0,5.0,564.3746519999695,5.0,0.0,part_2,go,450.0,500.0,1.0,,,,,,,,,orange,I
0.0,6.0,2.0,1.0,5.0,5.0,874.7393799999372,5.0,0.0,part_2,go,450.0,500.0,1.0,,,,,,,,,cyan,square
0.0,6.0,2.0,1.0,6.0,0.0,0.0,5.0,0.0,part_2,stop,450.0,500.0,4.0,,,,,,,,,cyan,square
0.0,8.0,4.0,1.0,6.0,6.0,671.8639109999458,5.0,0.0,part_2,stop,450.0,550.0,3.0,,,,,,,,,yellow,flipped triangle
0.0,1.0,1.0,0.0,5.0,5.0,587.0338069998979,5.0,0.0,part_2,go,450.0,500.0,1.0,,,,,,,,,blue,diamond
0.0,6.0,2.0,1.0,6.0,6.0,462.796210000306,6.0,0.0,part_2,stop,450.0,500.0,3.0,,,,,,,,,cyan,square
0.0,4.0,4.0,0.0,6.0,6.0,601.0493329999917,6.0,0.0,part_2,go,450.0,450.0,1.0,,,,,,,,,gray,cross
0.0,4.0,4.0,0.0,6.0,6.0,338.4829719998379,6.0,0.0,part_2,go,450.0,450.0,1.0,,,,,,,,,gray,cross
0.0,8.0,4.0,1.0,5.0,5.0,287.5849379997817,6.0,0.0,part_2,stop,450.0,450.0,3.0,,,,,,,,,yellow,flipped triangle
0.0,3.0,3.0,0.0,6.0,6.0,555.5730340001901,6.0,0.0,part_2,go,400.0,450.0,1.0,,,,,,,,,orange,I
0.0,5.0,1.0,1.0,6.0,6.0,272.893780999766,6.0,0.0,part_2,stop,400.0,450.0,3.0,,,,,,,,,magenta,triangle
0.0,8.0,4.0,1.0,5.0,5.0,495.6552690000535,6.0,0.0,part_2,stop,400.0,400.0,3.0,,,,,,,,,yellow,flipped triangle
0.0,1.0,1.0,0.0,5.0,5.0,650.5858239997906,6.0,0.0,part_2,go,350.0,400.0,1.0,,,,,,,,,blue,diamond
0.0,7.0,3.0,1.0,5.0,5.0,519.9027110002135,6.0,0.0,part_2,stop,350.0,400.0,3.0,,,,,,,,,white,circle
0.0,1.0,1.0,0.0,5.0,5.0,376.478543000303,6.0,0.0,part_2,go,300.0,400.0,1.0,,,,,,,,,blue,diamond
0.0,1.0,1.0,0.0,5.0,5.0,360.3258040002401,6.0,0.0,part_2,go,300.0,400.0,1.0,,,,,,,,,blue,diamond
0.0,7.0,3.0,1.0,6.0,6.0,569.294334999995,6.0,0.0,part_2,stop,300.0,400.0,3.0,,,,,,,,,white,circle
0.0,6.0,2.0,1.0,6.0,0.0,0.0,6.0,0.0,part_2,stop,300.0,350.0,4.0,,,,,,,,,cyan,square
0.0,1.0,1.0,0.0,6.0,6.0,367.4422770000092,6.0,0.0,part_2,go,300.0,400.0,1.0,,,,,,,,,blue,diamond
0.0,3.0,3.0,0.0,5.0,5.0,506.4646089999769,6.0,0.0,part_2,go,300.0,400.0,1.0,,,,,,,,,orange,I
0.0,4.0,4.0,0.0,6.0,6.0,312.0445079998717,6.0,0.0,part_2,go,300.0,400.0,1.0,,,,,,,,,gray,cross
0.0,3.0,3.0,0.0,6.0,6.0,450.1012569999147,6.0,0.0,part_2,go,300.0,400.0,1.0,,,,,,,,,orange,I
0.0,1.0,1.0,0.0,6.0,6.0,438.0703820002054,6.0,0.0,part_2,go,300.0,400.0,1.0,,,,,,,,,blue,diamond
0.0,7.0,3.0,1.0,5.0,5.0,276.632938000148,6.0,0.0,part_2,stop,300.0,400.0,3.0,,,,,,,,,white,circle
0.0,5.0,1.0,1.0,5.0,5.0,382.4516250001579,6.0,0.0,part_2,stop,250.0,400.0,3.0,,,,,,,,,magenta,triangle
0.0,3.0,3.0,0.0,6.0,6.0,473.1874490003065,6.0,0.0,part_2,go,200.0,400.0,1.0,,,,,,,,,orange,I
0.0,3.0,3.0,0.0,5.0,5.0,406.907105999835,6.0,0.0,part_2,go,200.0,400.0,1.0,,,,,,,,,orange,I
0.0,6.0,2.0,1.0,5.0,0.0,0.0,6.0,0.0,part_2,stop,200.0,400.0,4.0,,,,,,,,,cyan,square
0.0,3.0,3.0,0.0,5.0,5.0,513.141246000032,6.0,0.0,part_2,go,250.0,400.0,1.0,,,,,,,,,orange,I
0.0,4.0,4.0,0.0,6.0,6.0,358.4587420000389,6.0,0.0,part_2,go,250.0,400.0,1.0,,,,,,,,,gray,cross
0.0,8.0,4.0,1.0,5.0,5.0,392.3400730000139,6.0,0.0,part_2,go,250.0,400.0,1.0,,,,,,,,,yellow,flipped triangle
0.0,6.0,2.0,1.0,6.0,6.0,295.9297009997499,6.0,0.0,part_2,go,250.0,400.0,1.0,,,,,,,,,cyan,square
0.0,3.0,3.0,0.0,5.0,5.0,232.0896710002671,6.0,0.0,part_2,go,250.0,400.0,1.0,,,,,,,,,orange,I
0.0,3.0,3.0,0.0,6.0,6.0,279.5515439997871,6.0,0.0,part_2,go,250.0,400.0,1.0,,,,,,,,,orange,I
0.0,2.0,2.0,0.0,5.0,5.0,254.20372799999308,6.0,0.0,part_2,go,250.0,400.0,1.0,,,,,,,,,green,hexagon
0.0,6.0,2.0,1.0,6.0,6.0,224.2669950001072,6.0,0.0,part_2,go,250.0,400.0,1.0,,,,,,,,,cyan,square
0.0,6.0,2.0,1.0,6.0,6.0,269.1336620000584,6.0,0.0,part_2,stop,250.0,400.0,3.0,,,,,,,,,cyan,square
0.0,1.0,1.0,0.0,6.0,6.0,557.4338110000099,6.0,0.0,part_2,go,250.0,350.0,1.0,,,,,,,,,blue,diamond
0.0,1.0,1.0,0.0,6.0,6.0,345.2894950000882,6.0,0.0,part_2,go,250.0,350.0,1.0,,,,,,,,,blue,diamond
0.0,2.0,2.0,0.0,5.0,5.0,279.705579000165,6.0,0.0,part_2,go,250.0,350.0,1.0,,,,,,,,,green,hexagon
0.0,3.0,3.0,0.0,6.0,6.0,272.8200400001697,6.0,0.0,part_2,go,250.0,350.0,1.0,,,,,,,,,orange,I
0.0,3.0,3.0,0.0,5.0,5.0,619.8094020001008,7.0,0.0,part_2,go,250.0,350.0,1.0,,,,,,,,,orange,I
0.0,4.0,4.0,0.0,5.0,5.0,284.8835029999463,7.0,0.0,part_2,go,250.0,350.0,1.0,,,,,,,,,gray,cross
0.0,6.0,2.0,1.0,6.0,6.0,242.3776259997794,7.0,0.0,part_2,stop,250.0,350.0,3.0,,,,,,,,,cyan,square
0.0,3.0,3.0,0.0,5.0,5.0,392.5491700001657,7.0,0.0,part_2,go,250.0,300.0,1.0,,,,,,,,,orange,I
0.0,6.0,2.0,1.0,6.0,6.0,273.9360850000594,7.0,0.0,part_2,stop,250.0,300.0,3.0,,,,,,,,,cyan,square
0.0,4.0,4.0,0.0,5.0,5.0,608.9943070001027,7.0,0.0,part_2,go,250.0,250.0,1.0,,,,,,,,,gray,cross
0.0,2.0,2.0,0.0,5.0,5.0,304.0252760001749,7.0,0.0,part_2,go,250.0,250.0,1.0,,,,,,,,,green,hexagon
0.0,7.0,3.0,1.0,5.0,5.0,313.64914400001,7.0,0.0,part_2,stop,250.0,250.0,3.0,,,,,,,,,white,circle
0.0,7.0,3.0,1.0,6.0,6.0,287.5808479998341,7.0,0.0,part_2,stop,200.0,250.0,3.0,,,,,,,,,white,circle
0.0,4.0,4.0,0.0,6.0,6.0,424.6035390001452,7.0,0.0,part_2,go,200.0,200.0,1.0,,,,,,,,,gray,cross
0.0,6.0,2.0,1.0,6.0,0.0,0.0,7.0,0.0,part_2,stop,200.0,200.0,4.0,,,,,,,,,cyan,square
0.0,2.0,2.0,0.0,5.0,5.0,479.8680590001822,7.0,0.0,part_2,go,200.0,250.0,1.0,,,,,,,,,green,hexagon
0.0,6.0,2.0,1.0,6.0,6.0,421.1655540002539,7.0,0.0,part_2,stop,200.0,250.0,3.0,,,,,,,,,cyan,square
0.0,6.0,2.0,1.0,5.0,0.0,0.0,7.0,0.0,part_2,stop,200.0,200.0,4.0,,,,,,,,,cyan,square
0.0,5.0,1.0,1.0,5.0,0.0,0.0,7.0,0.0,part_2,stop,250.0,200.0,4.0,,,,,,,,,magenta,triangle
0.0,4.0,4.0,0.0,6.0,6.0,306.1643010000807,7.0,0.0,part_2,go,300.0,200.0,1.0,,,,,,,,,gray,cross
0.0,7.0,3.0,1.0,6.0,6.0,335.7604359998731,7.0,0.0,part_2,stop,300.0,200.0,3.0,,,,,,,,,white,circle
0.0,2.0,2.0,0.0,5.0,5.0,619.4845740001256,7.0,0.0,part_2,go,300.0,150.0,1.0,,,,,,,,,green,hexagon
0.0,8.0,4.0,1.0,5.0,0.0,0.0,7.0,0.0,part_2,stop,300.0,150.0,4.0,,,,,,,,,yellow,flipped triangle
0.0,7.0,3.0,1.0,5.0,5.0,467.5513990000581,7.0,0.0,part_2,go,350.0,150.0,1.0,,,,,,,,,white,circle
0.0,5.0,1.0,1.0,6.0,6.0,567.5235560001965,7.0,0.0,part_2,go,350.0,150.0,1.0,,,,,,,,,magenta,triangle
0.0,8.0,4.0,1.0,5.0,5.0,238.5828189999301,7.0,0.0,part_2,stop,350.0,150.0,3.0,,,,,,,,,yellow,flipped triangle
0.0,8.0,4.0,1.0,6.0,6.0,597.5125340000886,7.0,0.0,part_2,go,300.0,150.0,1.0,,,,,,,,,yellow,flipped triangle
0.0,4.0,4.0,0.0,5.0,5.0,419.4611459997759,7.0,0.0,part_2,go,300.0,150.0,1.0,,,,,,,,,gray,cross
0.0,2.0,2.0,0.0,5.0,5.0,295.9147950000442,7.0,0.0,part_2,go,300.0,150.0,1.0,,,,,,,,,green,hexagon
0.0,6.0,2.0,1.0,6.0,0.0,0.0,7.0,0.0,part_2,stop,300.0,150.0,4.0,,,,,,,,,cyan,square
0.0,1.0,1.0,0.0,5.0,5.0,455.3912500000479,7.0,0.0,part_2,go,300.0,200.0,1.0,,,,,,,,,blue,diamond
0.0,3.0,3.0,0.0,5.0,5.0,478.2217429997217,7.0,0.0,part_2,go,300.0,200.0,1.0,,,,,,,,,orange,I
0.0,5.0,1.0,1.0,5.0,5.0,412.9076989997884,7.0,0.0,part_2,stop,300.0,200.0,3.0,,,,,,,,,magenta,triangle
0.0,8.0,4.0,1.0,6.0,0.0,0.0,7.0,0.0,part_2,stop,250.0,200.0,4.0,,,,,,,,,yellow,flipped triangle
0.0,8.0,4.0,1.0,6.0,6.0,341.4232430000083,7.0,0.0,part_2,go,250.0,250.0,1.0,,,,,,,,,yellow,flipped triangle
0.0,2.0,2.0,0.0,6.0,6.0,398.6521560000255,7.0,0.0,part_2,go,250.0,250.0,1.0,,,,,,,,,green,hexagon
0.0,6.0,2.0,1.0,6.0,6.0,327.9423010003484,7.0,0.0,part_2,stop,250.0,250.0,3.0,,,,,,,,,cyan,square
0.0,4.0,4.0,0.0,5.0,5.0,533.8602460001312,7.0,0.0,part_2,go,250.0,200.0,1.0,,,,,,,,,gray,cross
0.0,1.0,1.0,0.0,5.0,5.0,473.2544339999549,7.0,0.0,part_2,go,250.0,200.0,1.0,,,,,,,,,blue,diamond
0.0,5.0,1.0,1.0,6.0,0.0,0.0,7.0,0.0,part_2,stop,250.0,200.0,4.0,,,,,,,,,magenta,triangle
0.0,8.0,4.0,1.0,6.0,6.0,409.140128999752,8.0,0.0,part_2,go,250.0,250.0,1.0,,,,,,,,,yellow,flipped triangle
0.0,1.0,1.0,0.0,6.0,6.0,355.8550150000883,8.0,0.0,part_2,go,250.0,250.0,1.0,,,,,,,,,blue,diamond
0.0,4.0,4.0,0.0,5.0,5.0,446.3540910001029,8.0,0.0,part_2,go,250.0,250.0,1.0,,,,,,,,,gray,cross
0.0,2.0,2.0,0.0,5.0,5.0,466.4847760000157,8.0,0.0,part_2,go,250.0,250.0,1.0,,,,,,,,,green,hexagon
0.0,1.0,1.0,0.0,6.0,6.0,514.6628829998008,8.0,0.0,part_2,go,250.0,250.0,1.0,,,,,,,,,blue,diamond
0.0,2.0,2.0,0.0,6.0,6.0,304.3105579999974,8.0,0.0,part_2,go,250.0,250.0,1.0,,,,,,,,,green,hexagon
0.0,3.0,3.0,0.0,5.0,5.0,328.2951139999568,8.0,0.0,part_2,go,250.0,250.0,1.0,,,,,,,,,orange,I
0.0,3.0,3.0,0.0,5.0,5.0,352.330565000102,8.0,0.0,part_2,go,250.0,250.0,1.0,,,,,,,,,orange,I
0.0,5.0,1.0,1.0,6.0,6.0,346.5772829999878,8.0,0.0,part_2,stop,250.0,250.0,3.0,,,,,,,,,magenta,triangle
0.0,7.0,3.0,1.0,5.0,5.0,388.0975219999527,8.0,0.0,part_2,go,250.0,200.0,1.0,,,,,,,,,white,circle
0.0,5.0,1.0,1.0,5.0,5.0,385.2125809999052,8.0,0.0,part_2,go,250.0,200.0,1.0,,,,,,,,,magenta,triangle
0.0,6.0,2.0,1.0,6.0,6.0,332.6710299998012,8.0,0.0,part_2,stop,250.0,200.0,3.0,,,,,,,,,cyan,square
0.0,3.0,3.0,0.0,6.0,6.0,579.7696479999104,8.0,0.0,part_2,go,250.0,150.0,1.0,,,,,,,,,orange,I
0.0,3.0,3.0,0.0,6.0,6.0,403.307329999734,8.0,0.0,part_2,go,250.0,150.0,1.0,,,,,,,,,orange,I
0.0,7.0,3.0,1.0,5.0,0.0,0.0,8.0,0.0,part_2,stop,250.0,150.0,4.0,,,,,,,,,white,circle
0.0,7.0,3.0,1.0,5.0,0.0,0.0,8.0,0.0,part_2,stop,300.0,150.0,4.0,,,,,,,,,white,circle
0.0,5.0,1.0,1.0,5.0,5.0,390.1991500001713,8.0,0.0,part_2,stop,350.0,150.0,3.0,,,,,,,,,magenta,triangle
0.0,1.0,1.0,0.0,6.0,6.0,515.9160939997491,8.0,0.0,part_2,go,300.0,150.0,1.0,,,,,,,,,blue,diamond
0.0,6.0,2.0,1.0,5.0,0.0,0.0,8.0,0.0,part_2,stop,300.0,150.0,4.0,,,,,,,,,cyan,square
0.0,8.0,4.0,1.0,5.0,5.0,553.6505680001937,8.0,0.0,part_2,go,350.0,150.0,1.0,,,,,,,,,yellow,flipped triangle
0.0,8.0,4.0,1.0,6.0,0.0,0.0,8.0,0.0,part_2,stop,350.0,150.0,4.0,,,,,,,,,yellow,flipped triangle
0.0,5.0,1.0,1.0,6.0,0.0,0.0,8.0,0.0,part_2,stop,350.0,200.0,4.0,,,,,,,,,magenta,triangle
0.0,4.0,4.0,0.0,6.0,6.0,528.7242079998578,8.0,0.0,part_2,go,350.0,250.0,1.0,,,,,,,,,gray,cross
0.0,4.0,4.0,0.0,5.0,5.0,546.3149810002506,8.0,0.0,part_2,go,350.0,250.0,1.0,,,,,,,,,gray,cross
0.0,6.0,2.0,1.0,5.0,5.0,427.1579769997515,8.0,0.0,part_2,go,350.0,250.0,1.0,,,,,,,,,cyan,square
0.0,6.0,2.0,1.0,6.0,0.0,0.0,8.0,0.0,part_2,stop,350.0,250.0,4.0,,,,,,,,,cyan,square
0.0,8.0,4.0,1.0,6.0,6.0,541.0431029999927,8.0,0.0,part_2,go,350.0,300.0,1.0,,,,,,,,,yellow,flipped triangle
0.0,6.0,2.0,1.0,5.0,5.0,465.232302000004,8.0,0.0,part_2,stop,350.0,300.0,3.0,,,,,,,,,cyan,square
0.0,7.0,3.0,1.0,6.0,6.0,444.1546289999678,8.0,0.0,part_2,go,300.0,300.0,1.0,,,,,,,,,white,circle
0.0,1.0,1.0,0.0,6.0,6.0,434.7648139996636,8.0,0.0,part_2,go,300.0,300.0,1.0,,,,,,,,,blue,diamond
0.0,7.0,3.0,1.0,6.0,0.0,0.0,8.0,0.0,part_2,stop,300.0,300.0,4.0,,,,,,,,,white,circle
0.0,5.0,1.0,1.0,5.0,0.0,0.0,8.0,0.0,part_2,stop,300.0,350.0,4.0,,,,,,,,,magenta,triangle
0.0,2.0,2.0,0.0,6.0,6.0,531.7890289998104,8.0,0.0,part_2,go,350.0,350.0,1.0,,,,,,,,,green,hexagon
0.0,3.0,3.0,0.0,5.0,5.0,502.8639919996749,8.0,0.0,part_2,go,350.0,350.0,1.0,,,,,,,,,orange,I
0.0,8.0,4.0,1.0,6.0,6.0,491.4486280003984,8.0,0.0,part_2,stop,350.0,350.0,3.0,,,,,,,,,yellow,flipped triangle
0.0,5.0,1.0,1.0,6.0,0.0,0.0,8.0,0.0,part_2,stop,350.0,300.0,4.0,,,,,,,,,magenta,triangle
0.0,4.0,4.0,0.0,7.0,4.0,3337.674082000376,1.0,1.0,part_3,go,0.0,0.0,0.0,216.0,4.0,324.0,54.0,108.0,216.0,162.0,270.0,gray,cross
0.0,5.0,1.0,1.0,7.0,1.0,3070.8182729995315,1.0,1.0,part_3,go,0.0,0.0,0.0,234.0,6.0,234.0,78.0,39.0,117.0,195.0,156.0,magenta,triangle
0.0,6.0,2.0,1.0,7.0,6.0,1443.7747279998805,1.0,1.0,part_3,go,0.0,0.0,0.0,196.0,4.0,98.0,49.0,294.0,245.0,147.0,196.0,cyan,square
0.0,7.0,3.0,1.0,7.0,5.0,3012.4514389999604,1.0,1.0,part_3,go,0.0,0.0,0.0,195.0,5.0,39.0,78.0,156.0,117.0,195.0,234.0,white,circle
0.0,4.0,4.0,0.0,7.0,2.0,2406.1739509998006,1.0,1.0,part_3,go,0.0,0.0,0.0,68.0,2.0,102.0,68.0,136.0,170.0,34.0,204.0,gray,cross
0.0,6.0,2.0,1.0,7.0,3.0,2570.6508499997653,1.0,1.0,part_3,go,0.0,0.0,0.0,156.0,4.0,195.0,78.0,156.0,39.0,234.0,117.0,cyan,square
0.0,3.0,3.0,0.0,7.0,5.0,1870.1008780008124,1.0,1.0,part_3,go,0.0,0.0,0.0,270.0,5.0,324.0,216.0,54.0,162.0,270.0,108.0,orange,I
0.0,6.0,2.0,1.0,7.0,3.0,2163.9036919996215,1.0,1.0,part_3,go,0.0,0.0,0.0,162.0,3.0,270.0,54.0,162.0,324.0,108.0,216.0,cyan,square
0.0,7.0,3.0,1.0,7.0,5.0,2780.798792999122,1.0,1.0,part_3,go,0.0,0.0,0.0,196.0,4.0,294.0,245.0,147.0,49.0,196.0,98.0,white,circle
0.0,5.0,1.0,1.0,7.0,1.0,1303.2084140004372,1.0,1.0,part_3,go,0.0,0.0,0.0,98.0,2.0,98.0,245.0,196.0,147.0,294.0,49.0,magenta,triangle
0.0,7.0,3.0,1.0,7.0,4.0,1412.9389540003103,1.0,1.0,part_3,go,0.0,0.0,0.0,132.0,3.0,176.0,44.0,88.0,132.0,220.0,264.0,white,circle
0.0,2.0,2.0,0.0,7.0,5.0,1459.860538000612,1.0,1.0,part_3,go,0.0,0.0,0.0,294.0,6.0,196.0,147.0,49.0,98.0,294.0,245.0,green,hexagon
0.0,5.0,1.0,1.0,7.0,3.0,1697.8374170003008,1.0,1.0,part_3,go,0.0,0.0,0.0,54.0,1.0,324.0,216.0,54.0,162.0,270.0,108.0,magenta,triangle
0.0,4.0,4.0,0.0,7.0,4.0,2400.382241999978,1.0,1.0,part_3,go,0.0,0.0,0.0,117.0,3.0,234.0,78.0,156.0,117.0,39.0,195.0,gray,cross
0.0,5.0,1.0,1.0,7.0,1.0,1780.2129519996015,1.0,1.0,part_3,go,0.0,0.0,0.0,39.0,1.0,39.0,117.0,195.0,156.0,78.0,234.0,magenta,triangle
0.0,3.0,3.0,0.0,7.0,4.0,2174.4732010001826,1.0,1.0,part_3,go,0.0,0.0,0.0,324.0,6.0,216.0,162.0,54.0,324.0,270.0,108.0,orange,I
0.0,1.0,1.0,0.0,7.0,5.0,1926.2191909992907,1.0,1.0,part_3,go,0.0,0.0,0.0,234.0,6.0,117.0,39.0,195.0,156.0,234.0,78.0,blue,diamond
0.0,1.0,1.0,0.0,7.0,3.0,2305.289326000093,1.0,1.0,part_3,go,0.0,0.0,0.0,216.0,4.0,108.0,270.0,216.0,162.0,54.0,324.0,blue,diamond
0.0,5.0,1.0,1.0,7.0,6.0,1553.6845659999017,1.0,1.0,part_3,go,0.0,0.0,0.0,44.0,1.0,220.0,264.0,88.0,176.0,132.0,44.0,magenta,triangle
0.0,4.0,4.0,0.0,7.0,1.0,2667.3255669993523,1.0,1.0,part_3,go,0.0,0.0,0.0,136.0,4.0,136.0,170.0,204.0,68.0,34.0,102.0,gray,cross
0.0,1.0,1.0,0.0,7.0,3.0,2323.602995999863,2.0,1.0,part_3,go,0.0,0.0,0.0,270.0,5.0,324.0,108.0,270.0,216.0,54.0,162.0,blue,diamond
0.0,2.0,2.0,0.0,7.0,6.0,1531.1541169994598,2.0,1.0,part_3,go,0.0,0.0,0.0,54.0,1.0,270.0,108.0,216.0,324.0,162.0,54.0,green,hexagon
0.0,5.0,1.0,1.0,7.0,1.0,2130.657170999257,2.0,1.0,part_3,go,0.0,0.0,0.0,204.0,6.0,204.0,34.0,68.0,102.0,136.0,170.0,magenta,triangle
0.0,6.0,2.0,1.0,7.0,3.0,1959.2848439997397,2.0,2.0,part_3,go,0.0,0.0,0.0,204.0,6.0,136.0,34.0,204.0,170.0,68.0,102.0,cyan,square
0.0,1.0,1.0,0.0,7.0,1.0,1288.808638999399,2.0,1.0,part_3,go,0.0,0.0,0.0,156.0,4.0,156.0,195.0,78.0,117.0,234.0,39.0,blue,diamond
0.0,3.0,3.0,0.0,7.0,4.0,1194.4177059995127,2.0,1.0,part_3,go,0.0,0.0,0.0,132.0,3.0,44.0,264.0,88.0,132.0,176.0,220.0,orange,I
0.0,2.0,2.0,0.0,7.0,6.0,1430.899848000081,2.0,1.0,part_3,go,0.0,0.0,0.0,102.0,3.0,136.0,204.0,34.0,68.0,170.0,102.0,green,hexagon
0.0,6.0,2.0,1.0,7.0,5.0,1422.6494229997115,2.0,1.0,part_3,go,0.0,0.0,0.0,220.0,5.0,264.0,176.0,44.0,88.0,220.0,132.0,cyan,square
0.0,2.0,2.0,0.0,7.0,4.0,1117.5588910000442,2.0,1.0,part_3,go,0.0,0.0,0.0,39.0,1.0,195.0,156.0,117.0,39.0,234.0,78.0,green,hexagon
0.0,1.0,1.0,0.0,7.0,3.0,1587.117242999739,2.0,1.0,part_3,go,0.0,0.0,0.0,98.0,2.0,294.0,245.0,98.0,196.0,49.0,147.0,blue,diamond
0.0,4.0,4.0,0.0,7.0,1.0,1848.9900659997147,2.0,1.0,part_3,go,0.0,0.0,0.0,234.0,6.0,234.0,195.0,39.0,117.0,78.0,156.0,gray,cross
0.0,4.0,4.0,0.0,7.0,3.0,3333.375604000139,2.0,1.0,part_3,go,0.0,0.0,0.0,196.0,4.0,294.0,147.0,196.0,49.0,98.0,245.0,gray,cross
0.0,8.0,4.0,1.0,7.0,5.0,2194.596912999259,2.0,1.0,part_3,go,0.0,0.0,0.0,68.0,2.0,34.0,136.0,102.0,170.0,68.0,204.0,yellow,flipped triangle
0.0,7.0,3.0,1.0,7.0,1.0,1479.1960250004197,2.0,1.0,part_3,go,0.0,0.0,0.0,108.0,2.0,108.0,270.0,54.0,324.0,162.0,216.0,white,circle
0.0,6.0,2.0,1.0,7.0,3.0,1791.6055960004087,2.0,1.0,part_3,go,0.0,0.0,0.0,147.0,3.0,196.0,294.0,147.0,245.0,98.0,49.0,cyan,square
0.0,4.0,4.0,0.0,7.0,2.0,1764.8287209995033,2.0,1.0,part_3,go,0.0,0.0,0.0,176.0,4.0,264.0,176.0,44.0,132.0,88.0,220.0,gray,cross
0.0,2.0,2.0,0.0,7.0,5.0,1274.4690299996364,2.0,1.0,part_3,go,0.0,0.0,0.0,204.0,6.0,170.0,34.0,68.0,102.0,204.0,136.0,green,hexagon
0.0,6.0,2.0,1.0,7.0,4.0,1095.6594170002063,2.0,1.0,part_3,go,0.0,0.0,0.0,54.0,1.0,108.0,162.0,216.0,54.0,270.0,324.0,cyan,square
0.0,6.0,2.0,1.0,7.0,5.0,1496.325041000091,2.0,1.0,part_3,go,0.0,0.0,0.0,34.0,1.0,102.0,136.0,68.0,204.0,34.0,170.0,cyan,square
0.0,3.0,3.0,0.0,7.0,1.0,2148.9947899999606,2.0,1.0,part_3,go,0.0,0.0,0.0,132.0,3.0,132.0,264.0,176.0,44.0,88.0,220.0,orange,I
0.0,5.0,1.0,1.0,7.0,5.0,1640.9419349993186,3.0,1.0,part_3,go,0.0,0.0,0.0,204.0,6.0,34.0,170.0,68.0,136.0,204.0,102.0,magenta,triangle
0.0,1.0,1.0,0.0,7.0,4.0,2091.598595000505,3.0,1.0,part_3,go,0.0,0.0,0.0,147.0,3.0,245.0,49.0,196.0,147.0,98.0,294.0,blue,diamond
0.0,5.0,1.0,1.0,7.0,4.0,2371.194516000287,3.0,1.0,part_3,go,0.0,0.0,0.0,216.0,4.0,54.0,162.0,108.0,216.0,324.0,270.0,magenta,triangle
0.0,6.0,2.0,1.0,7.0,1.0,1496.952288999637,3.0,1.0,part_3,go,0.0,0.0,0.0,117.0,3.0,117.0,156.0,234.0,195.0,39.0,78.0,cyan,square
0.0,7.0,3.0,1.0,7.0,1.0,1544.4914319996317,3.0,1.0,part_3,go,0.0,0.0,0.0,196.0,4.0,196.0,294.0,49.0,98.0,147.0,245.0,white,circle
0.0,8.0,4.0,1.0,7.0,2.0,2253.8277670000753,3.0,1.0,part_3,go,0.0,0.0,0.0,98.0,2.0,294.0,98.0,49.0,147.0,245.0,196.0,yellow,flipped triangle
0.0,1.0,1.0,0.0,7.0,3.0,2498.143087999779,3.0,1.0,part_3,go,0.0,0.0,0.0,204.0,6.0,102.0,68.0,204.0,34.0,136.0,170.0,blue,diamond
0.0,8.0,4.0,1.0,7.0,5.0,1638.8218640004195,3.0,1.0,part_3,go,0.0,0.0,0.0,162.0,3.0,270.0,216.0,108.0,54.0,162.0,324.0,yellow,flipped triangle
0.0,4.0,4.0,0.0,7.0,3.0,1545.3644680001162,3.0,1.0,part_3,go,0.0,0.0,0.0,132.0,3.0,88.0,44.0,132.0,176.0,264.0,220.0,gray,cross
0.0,3.0,3.0,0.0,7.0,3.0,1481.5754159999417,3.0,1.0,part_3,go,0.0,0.0,0.0,102.0,3.0,204.0,68.0,102.0,34.0,136.0,170.0,orange,I
0.0,2.0,2.0,0.0,7.0,6.0,1822.4022940003124,3.0,1.0,part_3,go,0.0,0.0,0.0,324.0,6.0,54.0,108.0,270.0,216.0,162.0,324.0,green,hexagon
0.0,8.0,4.0,1.0,7.0,2.0,1368.503409999903,3.0,1.0,part_3,go,0.0,0.0,0.0,204.0,6.0,34.0,204.0,102.0,170.0,136.0,68.0,yellow,flipped triangle
0.0,2.0,2.0,0.0,7.0,1.0,1428.500948999499,3.0,1.0,part_3,go,0.0,0.0,0.0,88.0,2.0,88.0,44.0,220.0,132.0,264.0,176.0,green,hexagon
0.0,4.0,4.0,0.0,7.0,1.0,2089.209483000559,3.0,1.0,part_3,go,0.0,0.0,0.0,162.0,3.0,162.0,108.0,270.0,324.0,216.0,54.0,gray,cross
0.0,6.0,2.0,1.0,7.0,5.0,1565.6004279999252,3.0,1.0,part_3,go,0.0,0.0,0.0,176.0,4.0,88.0,220.0,132.0,44.0,176.0,264.0,cyan,square
0.0,4.0,4.0,0.0,7.0,5.0,2004.2676889997892,3.0,1.0,part_3,go,0.0,0.0,0.0,245.0,5.0,98.0,147.0,49.0,196.0,245.0,294.0,gray,cross
0.0,8.0,4.0,1.0,7.0,3.0,1331.816591000461,3.0,1.0,part_3,go,0.0,0.0,0.0,162.0,3.0,216.0,270.0,162.0,108.0,324.0,54.0,yellow,flipped triangle
0.0,3.0,3.0,0.0,7.0,6.0,1145.8856310000556,3.0,1.0,part_3,go,0.0,0.0,0.0,49.0,1.0,196.0,294.0,245.0,147.0,98.0,49.0,orange,I
0.0,8.0,4.0,1.0,7.0,5.0,1321.0920309993526,3.0,1.0,part_3,go,0.0,0.0,0.0,245.0,5.0,98.0,294.0,49.0,147.0,245.0,196.0,yellow,flipped triangle
0.0,3.0,3.0,0.0,7.0,1.0,1111.5833509993536,3.0,1.0,part_3,go,0.0,0.0,0.0,204.0,6.0,204.0,136.0,68.0,102.0,170.0,34.0,orange,I
0.0,8.0,4.0,1.0,7.0,5.0,1426.5360680001322,4.0,1.0,part_3,go,0.0,0.0,0.0,195.0,5.0,78.0,234.0,39.0,156.0,195.0,117.0,yellow,flipped triangle
0.0,7.0,3.0,1.0,7.0,1.0,1043.1226829996376,4.0,1.0,part_3,go,0.0,0.0,0.0,234.0,6.0,234.0,117.0,156.0,195.0,39.0,78.0,white,circle
0.0,8.0,4.0,1.0,7.0,3.0,1606.4185610002824,4.0,1.0,part_3,go,0.0,0.0,0.0,132.0,3.0,220.0,264.0,132.0,176.0,44.0,88.0,yellow,flipped triangle
0.0,1.0,1.0,0.0,7.0,2.0,1165.397337000286,4.0,1.0,part_3,go,0.0,0.0,0.0,68.0,2.0,204.0,68.0,136.0,34.0,102.0,170.0,blue,diamond
0.0,2.0,2.0,0.0,7.0,6.0,1168.794213000183,4.0,1.0,part_3,go,0.0,0.0,0.0,147.0,3.0,245.0,49.0,294.0,98.0,196.0,147.0,green,hexagon
0.0,7.0,3.0,1.0,7.0,4.0,1093.7788410001303,4.0,1.0,part_3,go,0.0,0.0,0.0,204.0,6.0,34.0,68.0,170.0,204.0,136.0,102.0,white,circle
0.0,8.0,4.0,1.0,7.0,5.0,871.3861860005636,4.0,1.0,part_3,go,0.0,0.0,0.0,44.0,1.0,88.0,132.0,264.0,176.0,44.0,220.0,yellow,flipped triangle
0.0,3.0,3.0,0.0,7.0,2.0,1019.5672780000675,4.0,1.0,part_3,go,0.0,0.0,0.0,195.0,5.0,39.0,195.0,117.0,156.0,234.0,78.0,orange,I
0.0,7.0,3.0,1.0,7.0,1.0,1011.2832419999904,4.0,1.0,part_3,go,0.0,0.0,0.0,204.0,6.0,204.0,136.0,34.0,170.0,68.0,102.0,white,circle
0.0,2.0,2.0,0.0,7.0,3.0,1421.8393410001229,4.0,1.0,part_3,go,0.0,0.0,0.0,195.0,5.0,117.0,39.0,195.0,78.0,156.0,234.0,green,hexagon
0.0,2.0,2.0,0.0,7.0,2.0,973.617005000051,4.0,1.0,part_3,go,0.0,0.0,0.0,176.0,4.0,44.0,176.0,220.0,264.0,132.0,88.0,green,hexagon
0.0,3.0,3.0,0.0,7.0,4.0,1038.0923090006036,4.0,1.0,part_3,go,0.0,0.0,0.0,245.0,5.0,49.0,294.0,147.0,245.0,196.0,98.0,orange,I
0.0,7.0,3.0,1.0,7.0,4.0,2217.6584669996373,4.0,1.0,part_3,go,0.0,0.0,0.0,162.0,3.0,216.0,54.0,324.0,162.0,270.0,108.0,white,circle
0.0,5.0,1.0,1.0,7.0,2.0,1396.0201589998178,4.0,1.0,part_3,go,0.0,0.0,0.0,294.0,6.0,147.0,294.0,98.0,49.0,245.0,196.0,magenta,triangle
0.0,7.0,3.0,1.0,7.0,5.0,903.4142500004236,4.0,1.0,part_3,go,0.0,0.0,0.0,44.0,1.0,132.0,88.0,220.0,264.0,44.0,176.0,white,circle
0.0,5.0,1.0,1.0,7.0,2.0,1380.2479849991869,4.0,1.0,part_3,go,0.0,0.0,0.0,132.0,3.0,44.0,132.0,220.0,264.0,88.0,176.0,magenta,triangle
0.0,3.0,3.0,0.0,7.0,4.0,928.6179450000418,4.0,1.0,part_3,go,0.0,0.0,0.0,234.0,6.0,195.0,78.0,117.0,234.0,156.0,39.0,orange,I
0.0,8.0,4.0,1.0,7.0,1.0,928.0430200005868,4.0,1.0,part_3,go,0.0,0.0,0.0,156.0,4.0,156.0,234.0,195.0,117.0,39.0,78.0,yellow,flipped triangle
0.0,1.0,1.0,0.0,7.0,4.0,1188.1303430000116,4.0,1.0,part_3,go,0.0,0.0,0.0,176.0,4.0,88.0,264.0,220.0,176.0,132.0,44.0,blue,diamond
0.0,1.0,1.0,0.0,7.0,2.0,1148.4021259993824,4.0,1.0,part_3,go,0.0,0.0,0.0,220.0,5.0,132.0,220.0,44.0,88.0,264.0,176.0,blue,diamond
