raw_reward_magnitude,stim_reward,stepwise_reward_magnitude,paired_with_stopping,stim_location,response,reaction_time,block,num_trial_presentations,which_phase,stop_signal_trial_type,left_SSD,right_SSD,accuracy,chosen_bidding_amount,chosen_bidding_level,possible_bid_1,possible_bid_2,possible_bid_3,possible_bid_4,possible_bid_5,possible_bid_6,color_text,shape_text
26.0,1.0,1.0,0.0,3.0,3.0,466.5511599996534,1.0,1.0,phase_1,,,,,,,,,,,,,magenta,circle
0.0,3.0,0.0,0.0,3.0,3.0,500.50529899999674,1.0,1.0,phase_1,,,,,,,,,,,,,orange,triangle
89.0,6.0,2.0,1.0,2.0,2.0,499.8860069999864,1.0,1.0,phase_1,,,,,,,,,,,,,white,diamond
119.0,2.0,2.0,0.0,2.0,2.0,543.1355109999458,1.0,1.0,phase_1,,,,,,,,,,,,,green,cross
197.0,3.0,3.0,0.0,4.0,4.0,529.5299700001124,1.0,1.0,phase_1,,,,,,,,,,,,,orange,triangle
218.0,7.0,3.0,1.0,3.0,3.0,452.7364529999431,1.0,1.0,phase_1,,,,,,,,,,,,,cyan,I
396.0,8.0,4.0,1.0,4.0,4.0,447.5680330001523,1.0,1.0,phase_1,,,,,,,,,,,,,yellow,flipped triangle
417.0,8.0,4.0,1.0,3.0,3.0,452.0565699999679,1.0,1.0,phase_1,,,,,,,,,,,,,yellow,flipped triangle
71.0,1.0,1.0,0.0,3.0,3.0,424.7701519998372,1.0,1.0,phase_1,,,,,,,,,,,,,magenta,circle
401.0,4.0,4.0,0.0,3.0,3.0,457.1194750001268,1.0,1.0,phase_1,,,,,,,,,,,,,gray,hexagon
405.0,8.0,4.0,1.0,3.0,3.0,478.249477999725,1.0,1.0,phase_1,,,,,,,,,,,,,yellow,flipped triangle
198.0,7.0,3.0,1.0,3.0,3.0,568.5278380001364,1.0,1.0,phase_1,,,,,,,,,,,,,cyan,I
0.0,3.0,0.0,0.0,1.0,1.0,690.1454889998604,1.0,1.0,phase_1,,,,,,,,,,,,,orange,triangle
90.0,6.0,2.0,1.0,4.0,4.0,561.0827819996302,1.0,1.0,phase_1,,,,,,,,,,,,,white,diamond
54.0,5.0,1.0,1.0,4.0,4.0,540.6468860001041,1.0,1.0,phase_1,,,,,,,,,,,,,blue,square
210.0,7.0,3.0,1.0,3.0,3.0,599.0658900000199,1.0,1.0,phase_1,,,,,,,,,,,,,cyan,I
101.0,2.0,2.0,0.0,2.0,2.0,440.4935880002085,1.0,1.0,phase_1,,,,,,,,,,,,,green,cross
213.0,3.0,3.0,0.0,2.0,2.0,576.2082470000678,1.0,1.0,phase_1,,,,,,,,,,,,,orange,triangle
86.0,6.0,2.0,1.0,4.0,4.0,497.1860979999292,1.0,1.0,phase_1,,,,,,,,,,,,,white,diamond
388.0,8.0,4.0,1.0,2.0,2.0,478.3511340001496,1.0,1.0,phase_1,,,,,,,,,,,,,yellow,flipped triangle
418.0,8.0,4.0,1.0,1.0,1.0,491.668985999695,1.0,1.0,phase_1,,,,,,,,,,,,,yellow,flipped triangle
89.0,6.0,2.0,1.0,4.0,4.0,477.3531149999144,1.0,1.0,phase_1,,,,,,,,,,,,,white,diamond
101.0,2.0,2.0,0.0,1.0,1.0,500.46989500015115,1.0,1.0,phase_1,,,,,,,,,,,,,green,cross
0.0,6.0,0.0,1.0,1.0,1.0,536.5453379999963,1.0,1.0,phase_1,,,,,,,,,,,,,white,diamond
218.0,3.0,3.0,0.0,3.0,3.0,655.7892440000614,1.0,1.0,phase_1,,,,,,,,,,,,,orange,triangle
57.0,1.0,1.0,0.0,1.0,1.0,449.369726000441,1.0,1.0,phase_1,,,,,,,,,,,,,magenta,circle
90.0,6.0,2.0,1.0,2.0,2.0,429.8664889997781,1.0,1.0,phase_1,,,,,,,,,,,,,white,diamond
60.0,5.0,1.0,1.0,2.0,2.0,706.5883119998944,1.0,1.0,phase_1,,,,,,,,,,,,,blue,square
41.0,1.0,1.0,0.0,2.0,2.0,521.7727500003093,1.0,1.0,phase_1,,,,,,,,,,,,,magenta,circle
103.0,2.0,2.0,0.0,3.0,3.0,551.6031590000239,1.0,1.0,phase_1,,,,,,,,,,,,,green,cross
180.0,3.0,3.0,0.0,3.0,3.0,574.4604169999548,1.0,1.0,phase_1,,,,,,,,,,,,,orange,triangle
0.0,1.0,0.0,0.0,2.0,2.0,412.0671440000478,1.0,1.0,phase_1,,,,,,,,,,,,,magenta,circle
0.0,6.0,0.0,1.0,4.0,4.0,485.73405299976,1.0,1.0,phase_1,,,,,,,,,,,,,white,diamond
0.0,2.0,0.0,0.0,1.0,1.0,436.2840829999186,1.0,1.0,phase_1,,,,,,,,,,,,,green,cross
51.0,1.0,1.0,0.0,4.0,4.0,491.7376810003588,1.0,1.0,phase_1,,,,,,,,,,,,,magenta,circle
198.0,7.0,3.0,1.0,4.0,4.0,433.8891819998025,1.0,1.0,phase_1,,,,,,,,,,,,,cyan,I
209.0,7.0,3.0,1.0,1.0,1.0,397.5235449997853,1.0,1.0,phase_1,,,,,,,,,,,,,cyan,I
105.0,6.0,2.0,1.0,2.0,2.0,473.6303899999257,1.0,1.0,phase_1,,,,,,,,,,,,,white,diamond
376.0,4.0,4.0,0.0,4.0,4.0,402.5176720001582,1.0,1.0,phase_1,,,,,,,,,,,,,gray,hexagon
380.0,4.0,4.0,0.0,1.0,1.0,404.3348949999199,1.0,1.0,phase_1,,,,,,,,,,,,,gray,hexagon
94.0,6.0,2.0,1.0,4.0,4.0,515.4796700003317,1.0,1.0,phase_1,,,,,,,,,,,,,white,diamond
0.0,5.0,0.0,1.0,1.0,1.0,520.9563220000746,1.0,1.0,phase_1,,,,,,,,,,,,,blue,square
415.0,4.0,4.0,0.0,4.0,4.0,363.8452590002998,1.0,1.0,phase_1,,,,,,,,,,,,,gray,hexagon
423.0,8.0,4.0,1.0,1.0,1.0,461.6265039999234,1.0,1.0,phase_1,,,,,,,,,,,,,yellow,flipped triangle
32.0,1.0,1.0,0.0,2.0,2.0,385.9508710002046,1.0,1.0,phase_1,,,,,,,,,,,,,magenta,circle
0.0,2.0,0.0,0.0,4.0,4.0,424.0053909998096,1.0,1.0,phase_1,,,,,,,,,,,,,green,cross
0.0,6.0,0.0,1.0,1.0,1.0,391.4432520000446,1.0,1.0,phase_1,,,,,,,,,,,,,white,diamond
0.0,2.0,0.0,0.0,1.0,1.0,506.79465899975185,1.0,1.0,phase_1,,,,,,,,,,,,,green,cross
416.0,4.0,4.0,0.0,4.0,4.0,414.8389060001136,1.0,1.0,phase_1,,,,,,,,,,,,,gray,hexagon
73.0,5.0,1.0,1.0,2.0,2.0,418.7540319999243,1.0,1.0,phase_1,,,,,,,,,,,,,blue,square
379.0,8.0,4.0,1.0,3.0,3.0,470.162344000073,1.0,1.0,phase_1,,,,,,,,,,,,,yellow,flipped triangle
0.0,6.0,0.0,1.0,1.0,1.0,419.9070109998501,1.0,1.0,phase_1,,,,,,,,,,,,,white,diamond
0.0,4.0,0.0,0.0,1.0,1.0,564.9053860001914,1.0,1.0,phase_1,,,,,,,,,,,,,gray,hexagon
0.0,2.0,0.0,0.0,4.0,4.0,431.4325190002819,1.0,1.0,phase_1,,,,,,,,,,,,,green,cross
33.0,5.0,1.0,1.0,3.0,3.0,501.9457409998722,1.0,1.0,phase_1,,,,,,,,,,,,,blue,square
423.0,4.0,4.0,0.0,4.0,4.0,404.3904400000429,1.0,1.0,phase_1,,,,,,,,,,,,,gray,hexagon
0.0,1.0,0.0,0.0,3.0,3.0,490.5183490000127,1.0,1.0,phase_1,,,,,,,,,,,,,magenta,circle
393.0,8.0,4.0,1.0,1.0,1.0,393.1878630000938,1.0,1.0,phase_1,,,,,,,,,,,,,yellow,flipped triangle
72.0,5.0,1.0,1.0,1.0,1.0,378.6737559998983,1.0,1.0,phase_1,,,,,,,,,,,,,blue,square
0.0,7.0,0.0,1.0,4.0,4.0,432.8455350000695,1.0,1.0,phase_1,,,,,,,,,,,,,cyan,I
213.0,7.0,3.0,1.0,4.0,4.0,370.4768829998102,1.0,1.0,phase_1,,,,,,,,,,,,,cyan,I
386.0,4.0,4.0,0.0,1.0,1.0,464.9113020000186,1.0,1.0,phase_1,,,,,,,,,,,,,gray,hexagon
0.0,4.0,0.0,0.0,4.0,4.0,431.087583000135,1.0,1.0,phase_1,,,,,,,,,,,,,gray,hexagon
63.0,5.0,1.0,1.0,2.0,2.0,865.2449659998638,1.0,1.0,phase_1,,,,,,,,,,,,,blue,square
198.0,7.0,3.0,1.0,4.0,4.0,382.4509209998723,1.0,1.0,phase_1,,,,,,,,,,,,,cyan,I
49.0,5.0,1.0,1.0,3.0,3.0,464.4702529999449,1.0,1.0,phase_1,,,,,,,,,,,,,blue,square
388.0,4.0,4.0,0.0,3.0,3.0,477.7354080001714,1.0,1.0,phase_1,,,,,,,,,,,,,gray,hexagon
0.0,6.0,0.0,1.0,1.0,1.0,474.1002319997278,1.0,1.0,phase_1,,,,,,,,,,,,,white,diamond
199.0,3.0,3.0,0.0,4.0,4.0,425.2920260000792,1.0,1.0,phase_1,,,,,,,,,,,,,orange,triangle
411.0,8.0,4.0,1.0,2.0,2.0,505.2437449999161,1.0,1.0,phase_1,,,,,,,,,,,,,yellow,flipped triangle
0.0,2.0,0.0,0.0,3.0,3.0,538.9720590001161,1.0,1.0,phase_1,,,,,,,,,,,,,green,cross
57.0,5.0,1.0,1.0,3.0,3.0,386.9988940000439,1.0,1.0,phase_1,,,,,,,,,,,,,blue,square
422.0,8.0,4.0,1.0,2.0,2.0,573.5672690002502,1.0,1.0,phase_1,,,,,,,,,,,,,yellow,flipped triangle
108.0,6.0,2.0,1.0,4.0,4.0,419.7514150000643,1.0,1.0,phase_1,,,,,,,,,,,,,white,diamond
0.0,1.0,0.0,0.0,3.0,3.0,529.4905239998116,1.0,1.0,phase_1,,,,,,,,,,,,,magenta,circle
125.0,2.0,2.0,0.0,2.0,2.0,664.6430999999211,1.0,1.0,phase_1,,,,,,,,,,,,,green,cross
54.0,1.0,1.0,0.0,3.0,3.0,446.0159139998723,1.0,1.0,phase_1,,,,,,,,,,,,,magenta,circle
109.0,6.0,2.0,1.0,3.0,3.0,454.354265999882,1.0,1.0,phase_1,,,,,,,,,,,,,white,diamond
98.0,2.0,2.0,0.0,1.0,1.0,450.7597340002576,1.0,1.0,phase_1,,,,,,,,,,,,,green,cross
176.0,3.0,3.0,0.0,4.0,4.0,378.2053960003395,1.0,1.0,phase_1,,,,,,,,,,,,,orange,triangle
380.0,8.0,4.0,1.0,2.0,2.0,396.2429709999924,1.0,1.0,phase_1,,,,,,,,,,,,,yellow,flipped triangle
382.0,8.0,4.0,1.0,2.0,2.0,495.631837000019,1.0,1.0,phase_1,,,,,,,,,,,,,yellow,flipped triangle
393.0,8.0,4.0,1.0,3.0,3.0,409.1209019998132,1.0,1.0,phase_1,,,,,,,,,,,,,yellow,flipped triangle
57.0,1.0,1.0,0.0,4.0,4.0,451.90313699959,1.0,1.0,phase_1,,,,,,,,,,,,,magenta,circle
51.0,1.0,1.0,0.0,2.0,2.0,387.3338660000627,1.0,1.0,phase_1,,,,,,,,,,,,,magenta,circle
110.0,2.0,2.0,0.0,4.0,4.0,376.4807589996053,1.0,1.0,phase_1,,,,,,,,,,,,,green,cross
0.0,1.0,0.0,0.0,1.0,1.0,334.10092000031,1.0,1.0,phase_1,,,,,,,,,,,,,magenta,circle
46.0,5.0,1.0,1.0,3.0,3.0,498.185999999805,1.0,1.0,phase_1,,,,,,,,,,,,,blue,square
81.0,2.0,2.0,0.0,2.0,2.0,395.2645540002777,1.0,1.0,phase_1,,,,,,,,,,,,,green,cross
27.0,5.0,1.0,1.0,1.0,1.0,379.7329469998658,1.0,1.0,phase_1,,,,,,,,,,,,,blue,square
203.0,3.0,3.0,0.0,2.0,2.0,380.9402169999885,1.0,1.0,phase_1,,,,,,,,,,,,,orange,triangle
396.0,4.0,4.0,0.0,1.0,1.0,456.5178359998754,1.0,1.0,phase_1,,,,,,,,,,,,,gray,hexagon
35.0,5.0,1.0,1.0,2.0,2.0,350.882490999993,1.0,1.0,phase_1,,,,,,,,,,,,,blue,square
57.0,5.0,1.0,1.0,1.0,1.0,422.6537589997861,1.0,1.0,phase_1,,,,,,,,,,,,,blue,square
209.0,3.0,3.0,0.0,2.0,2.0,298.4005550001711,1.0,1.0,phase_1,,,,,,,,,,,,,orange,triangle
0.0,3.0,0.0,0.0,4.0,4.0,443.3053940001628,1.0,1.0,phase_1,,,,,,,,,,,,,orange,triangle
386.0,8.0,4.0,1.0,3.0,3.0,568.7724009999329,1.0,1.0,phase_1,,,,,,,,,,,,,yellow,flipped triangle
205.0,3.0,3.0,0.0,4.0,4.0,448.9706549998118,1.0,1.0,phase_1,,,,,,,,,,,,,orange,triangle
219.0,3.0,3.0,0.0,3.0,3.0,432.758713000112,1.0,1.0,phase_1,,,,,,,,,,,,,orange,triangle
0.0,6.0,0.0,1.0,3.0,3.0,492.3933430000033,1.0,1.0,phase_1,,,,,,,,,,,,,white,diamond
199.0,7.0,3.0,1.0,3.0,3.0,458.8139810002758,2.0,1.0,phase_1,,,,,,,,,,,,,cyan,I
41.0,1.0,1.0,0.0,2.0,2.0,474.3885689999843,2.0,1.0,phase_1,,,,,,,,,,,,,magenta,circle
0.0,7.0,0.0,1.0,3.0,3.0,440.5698580003445,2.0,1.0,phase_1,,,,,,,,,,,,,cyan,I
35.0,1.0,1.0,0.0,3.0,3.0,419.8835070001223,2.0,1.0,phase_1,,,,,,,,,,,,,magenta,circle
203.0,7.0,3.0,1.0,2.0,2.0,560.6770340000367,2.0,1.0,phase_1,,,,,,,,,,,,,cyan,I
32.0,5.0,1.0,1.0,1.0,1.0,524.8485980000623,2.0,1.0,phase_1,,,,,,,,,,,,,blue,square
0.0,7.0,0.0,1.0,2.0,2.0,427.3605289999977,2.0,1.0,phase_1,,,,,,,,,,,,,cyan,I
411.0,8.0,4.0,1.0,1.0,1.0,347.9993930000091,2.0,1.0,phase_1,,,,,,,,,,,,,yellow,flipped triangle
178.0,3.0,3.0,0.0,1.0,1.0,379.7203270000864,2.0,1.0,phase_1,,,,,,,,,,,,,orange,triangle
0.0,4.0,0.0,0.0,2.0,2.0,362.1486690003621,2.0,1.0,phase_1,,,,,,,,,,,,,gray,hexagon
189.0,7.0,3.0,1.0,4.0,4.0,334.1628039997886,2.0,1.0,phase_1,,,,,,,,,,,,,cyan,I
189.0,3.0,3.0,0.0,2.0,2.0,464.7948739998355,2.0,1.0,phase_1,,,,,,,,,,,,,orange,triangle
222.0,3.0,3.0,0.0,1.0,1.0,371.7733949997637,2.0,1.0,phase_1,,,,,,,,,,,,,orange,triangle
51.0,5.0,1.0,1.0,4.0,4.0,356.3067140003113,2.0,1.0,phase_1,,,,,,,,,,,,,blue,square
119.0,6.0,2.0,1.0,1.0,1.0,397.552528000233,2.0,1.0,phase_1,,,,,,,,,,,,,white,diamond
401.0,8.0,4.0,1.0,3.0,3.0,531.9162609998784,2.0,1.0,phase_1,,,,,,,,,,,,,yellow,flipped triangle
118.0,6.0,2.0,1.0,3.0,3.0,429.8097769997184,2.0,1.0,phase_1,,,,,,,,,,,,,white,diamond
199.0,7.0,3.0,1.0,1.0,1.0,379.9496289998387,2.0,1.0,phase_1,,,,,,,,,,,,,cyan,I
204.0,3.0,3.0,0.0,2.0,2.0,400.2910879999035,2.0,1.0,phase_1,,,,,,,,,,,,,orange,triangle
206.0,3.0,3.0,0.0,4.0,4.0,338.3502669998961,2.0,1.0,phase_1,,,,,,,,,,,,,orange,triangle
219.0,7.0,3.0,1.0,2.0,2.0,354.8345789999985,2.0,1.0,phase_1,,,,,,,,,,,,,cyan,I
0.0,5.0,0.0,1.0,3.0,3.0,501.88061100016057,2.0,1.0,phase_1,,,,,,,,,,,,,blue,square
74.0,5.0,1.0,1.0,2.0,2.0,666.4764570000443,2.0,1.0,phase_1,,,,,,,,,,,,,blue,square
181.0,3.0,3.0,0.0,1.0,1.0,457.3280669997075,2.0,1.0,phase_1,,,,,,,,,,,,,orange,triangle
194.0,3.0,3.0,0.0,4.0,4.0,490.005181000015,2.0,1.0,phase_1,,,,,,,,,,,,,orange,triangle
35.0,5.0,1.0,1.0,4.0,4.0,418.7347189999855,2.0,1.0,phase_1,,,,,,,,,,,,,blue,square
220.0,7.0,3.0,1.0,2.0,2.0,375.4369890002635,2.0,1.0,phase_1,,,,,,,,,,,,,cyan,I
213.0,7.0,3.0,1.0,4.0,4.0,593.4015469997576,2.0,1.0,phase_1,,,,,,,,,,,,,cyan,I
118.0,2.0,2.0,0.0,1.0,1.0,467.0202859997516,2.0,1.0,phase_1,,,,,,,,,,,,,green,cross
84.0,6.0,2.0,1.0,1.0,1.0,448.1218119999539,2.0,1.0,phase_1,,,,,,,,,,,,,white,diamond
118.0,2.0,2.0,0.0,2.0,2.0,529.2589430000589,2.0,1.0,phase_1,,,,,,,,,,,,,green,cross
218.0,7.0,3.0,1.0,4.0,4.0,502.71519600028114,2.0,1.0,phase_1,,,,,,,,,,,,,cyan,I
0.0,7.0,0.0,1.0,1.0,1.0,380.3884080002717,2.0,1.0,phase_1,,,,,,,,,,,,,cyan,I
398.0,4.0,4.0,0.0,1.0,1.0,432.973807000053,2.0,1.0,phase_1,,,,,,,,,,,,,gray,hexagon
125.0,6.0,2.0,1.0,2.0,2.0,488.2095309999386,2.0,1.0,phase_1,,,,,,,,,,,,,white,diamond
110.0,6.0,2.0,1.0,3.0,3.0,521.8790849999095,2.0,1.0,phase_1,,,,,,,,,,,,,white,diamond
77.0,6.0,2.0,1.0,3.0,3.0,550.653001000228,2.0,1.0,phase_1,,,,,,,,,,,,,white,diamond
421.0,8.0,4.0,1.0,4.0,4.0,492.3382140000285,2.0,1.0,phase_1,,,,,,,,,,,,,yellow,flipped triangle
0.0,2.0,0.0,0.0,3.0,3.0,410.2397080000628,2.0,1.0,phase_1,,,,,,,,,,,,,green,cross
41.0,5.0,1.0,1.0,4.0,4.0,459.350746000382,2.0,1.0,phase_1,,,,,,,,,,,,,blue,square
0.0,8.0,0.0,1.0,4.0,4.0,478.0479800001558,2.0,1.0,phase_1,,,,,,,,,,,,,yellow,flipped triangle
121.0,6.0,2.0,1.0,3.0,3.0,650.6081130000894,2.0,1.0,phase_1,,,,,,,,,,,,,white,diamond
387.0,4.0,4.0,0.0,4.0,4.0,452.5576639998689,2.0,1.0,phase_1,,,,,,,,,,,,,gray,hexagon
416.0,8.0,4.0,1.0,4.0,4.0,500.3965920000155,2.0,1.0,phase_1,,,,,,,,,,,,,yellow,flipped triangle
32.0,1.0,1.0,0.0,4.0,4.0,498.5875729998952,2.0,1.0,phase_1,,,,,,,,,,,,,magenta,circle
215.0,7.0,3.0,1.0,1.0,1.0,449.5036580001397,2.0,1.0,phase_1,,,,,,,,,,,,,cyan,I
176.0,7.0,3.0,1.0,1.0,1.0,412.1018129999356,2.0,1.0,phase_1,,,,,,,,,,,,,cyan,I
101.0,6.0,2.0,1.0,1.0,1.0,390.5476009999802,2.0,1.0,phase_1,,,,,,,,,,,,,white,diamond
398.0,8.0,4.0,1.0,1.0,1.0,395.7200130003002,2.0,1.0,phase_1,,,,,,,,,,,,,yellow,flipped triangle
392.0,8.0,4.0,1.0,3.0,3.0,402.9850670003725,2.0,1.0,phase_1,,,,,,,,,,,,,yellow,flipped triangle
40.0,5.0,1.0,1.0,4.0,4.0,530.4678909997165,2.0,1.0,phase_1,,,,,,,,,,,,,blue,square
0.0,5.0,0.0,1.0,4.0,4.0,505.4574649998358,2.0,1.0,phase_1,,,,,,,,,,,,,blue,square
26.0,5.0,1.0,1.0,3.0,3.0,412.5548540000636,2.0,1.0,phase_1,,,,,,,,,,,,,blue,square
397.0,8.0,4.0,1.0,4.0,4.0,361.7229429996769,2.0,1.0,phase_1,,,,,,,,,,,,,yellow,flipped triangle
0.0,1.0,0.0,0.0,3.0,3.0,394.8495350000485,2.0,1.0,phase_1,,,,,,,,,,,,,magenta,circle
398.0,4.0,4.0,0.0,2.0,2.0,426.4867030001369,2.0,1.0,phase_1,,,,,,,,,,,,,gray,hexagon
75.0,2.0,2.0,0.0,4.0,4.0,387.5097969998933,2.0,1.0,phase_1,,,,,,,,,,,,,green,cross
121.0,2.0,2.0,0.0,1.0,1.0,409.2472669999552,2.0,1.0,phase_1,,,,,,,,,,,,,green,cross
415.0,8.0,4.0,1.0,2.0,2.0,438.5877230001824,2.0,1.0,phase_1,,,,,,,,,,,,,yellow,flipped triangle
0.0,5.0,0.0,1.0,4.0,4.0,407.9606479999711,2.0,1.0,phase_1,,,,,,,,,,,,,blue,square
92.0,6.0,2.0,1.0,1.0,1.0,362.1758750000481,2.0,1.0,phase_1,,,,,,,,,,,,,white,diamond
73.0,1.0,1.0,0.0,2.0,2.0,325.7769570000164,2.0,1.0,phase_1,,,,,,,,,,,,,magenta,circle
0.0,4.0,0.0,0.0,1.0,1.0,525.2978380003697,2.0,1.0,phase_1,,,,,,,,,,,,,gray,hexagon
97.0,2.0,2.0,0.0,3.0,3.0,457.3649509998176,2.0,1.0,phase_1,,,,,,,,,,,,,green,cross
425.0,8.0,4.0,1.0,1.0,1.0,256.0378180000953,2.0,1.0,phase_1,,,,,,,,,,,,,yellow,flipped triangle
43.0,1.0,1.0,0.0,2.0,2.0,331.6610659999242,2.0,1.0,phase_1,,,,,,,,,,,,,magenta,circle
41.0,5.0,1.0,1.0,2.0,2.0,471.2510699996528,2.0,1.0,phase_1,,,,,,,,,,,,,blue,square
0.0,8.0,0.0,1.0,2.0,2.0,481.1650960000406,2.0,1.0,phase_1,,,,,,,,,,,,,yellow,flipped triangle
69.0,1.0,1.0,0.0,1.0,1.0,409.689212000103,2.0,1.0,phase_1,,,,,,,,,,,,,magenta,circle
194.0,7.0,3.0,1.0,3.0,3.0,351.5230050002174,2.0,1.0,phase_1,,,,,,,,,,,,,cyan,I
423.0,4.0,4.0,0.0,4.0,4.0,464.8970490002284,2.0,1.0,phase_1,,,,,,,,,,,,,gray,hexagon
35.0,1.0,1.0,0.0,1.0,1.0,434.2418419996647,2.0,1.0,phase_1,,,,,,,,,,,,,magenta,circle
0.0,3.0,0.0,0.0,2.0,2.0,584.7916759998952,2.0,1.0,phase_1,,,,,,,,,,,,,orange,triangle
0.0,7.0,0.0,1.0,2.0,2.0,574.7177289999854,2.0,1.0,phase_1,,,,,,,,,,,,,cyan,I
392.0,8.0,4.0,1.0,1.0,1.0,581.427468000129,2.0,1.0,phase_1,,,,,,,,,,,,,yellow,flipped triangle
421.0,4.0,4.0,0.0,2.0,2.0,524.7543079999559,2.0,1.0,phase_1,,,,,,,,,,,,,gray,hexagon
392.0,4.0,4.0,0.0,4.0,4.0,393.8790110000809,2.0,1.0,phase_1,,,,,,,,,,,,,gray,hexagon
0.0,3.0,0.0,0.0,4.0,4.0,508.6290409999492,2.0,1.0,phase_1,,,,,,,,,,,,,orange,triangle
103.0,2.0,2.0,0.0,2.0,2.0,428.0477090001113,2.0,1.0,phase_1,,,,,,,,,,,,,green,cross
107.0,2.0,2.0,0.0,3.0,3.0,455.934062000324,2.0,1.0,phase_1,,,,,,,,,,,,,green,cross
382.0,4.0,4.0,0.0,1.0,1.0,376.0109849999935,2.0,1.0,phase_1,,,,,,,,,,,,,gray,hexagon
220.0,3.0,3.0,0.0,1.0,1.0,526.3327769998796,2.0,1.0,phase_1,,,,,,,,,,,,,orange,triangle
119.0,6.0,2.0,1.0,1.0,1.0,493.5330110001814,2.0,1.0,phase_1,,,,,,,,,,,,,white,diamond
392.0,8.0,4.0,1.0,3.0,3.0,540.459404000103,2.0,1.0,phase_1,,,,,,,,,,,,,yellow,flipped triangle
383.0,8.0,4.0,1.0,4.0,4.0,470.9773039999163,2.0,1.0,phase_1,,,,,,,,,,,,,yellow,flipped triangle
98.0,6.0,2.0,1.0,3.0,3.0,382.5313049997021,2.0,1.0,phase_1,,,,,,,,,,,,,white,diamond
0.0,4.0,0.0,0.0,3.0,3.0,553.3775139997488,2.0,1.0,phase_1,,,,,,,,,,,,,gray,hexagon
66.0,1.0,1.0,0.0,4.0,4.0,550.7523320002292,2.0,1.0,phase_1,,,,,,,,,,,,,magenta,circle
425.0,4.0,4.0,0.0,1.0,1.0,489.9601060001259,2.0,1.0,phase_1,,,,,,,,,,,,,gray,hexagon
84.0,6.0,2.0,1.0,4.0,4.0,420.7380719999491,2.0,1.0,phase_1,,,,,,,,,,,,,white,diamond
414.0,4.0,4.0,0.0,2.0,2.0,452.8819799998018,2.0,1.0,phase_1,,,,,,,,,,,,,gray,hexagon
193.0,7.0,3.0,1.0,1.0,1.0,376.9984870000371,2.0,1.0,phase_1,,,,,,,,,,,,,cyan,I
0.0,1.0,0.0,0.0,1.0,1.0,530.353715000274,2.0,1.0,phase_1,,,,,,,,,,,,,magenta,circle
0.0,8.0,0.0,1.0,4.0,4.0,348.3063650000986,2.0,1.0,phase_1,,,,,,,,,,,,,yellow,flipped triangle
190.0,3.0,3.0,0.0,2.0,2.0,350.7294650003132,2.0,1.0,phase_1,,,,,,,,,,,,,orange,triangle
64.0,5.0,1.0,1.0,3.0,3.0,396.3226719997692,2.0,1.0,phase_1,,,,,,,,,,,,,blue,square
0.0,5.0,0.0,1.0,1.0,1.0,327.8139369999735,2.0,1.0,phase_1,,,,,,,,,,,,,blue,square
26.0,1.0,1.0,0.0,4.0,4.0,404.3943000001491,2.0,1.0,phase_1,,,,,,,,,,,,,magenta,circle
382.0,4.0,4.0,0.0,2.0,2.0,388.8459850004437,2.0,1.0,phase_1,,,,,,,,,,,,,gray,hexagon
118.0,6.0,2.0,1.0,1.0,1.0,375.7198600001175,2.0,1.0,phase_1,,,,,,,,,,,,,white,diamond
212.0,3.0,3.0,0.0,2.0,2.0,494.5518909999009,3.0,1.0,phase_1,,,,,,,,,,,,,orange,triangle
382.0,8.0,4.0,1.0,1.0,1.0,342.2463850001804,3.0,1.0,phase_1,,,,,,,,,,,,,yellow,flipped triangle
80.0,6.0,2.0,1.0,3.0,3.0,391.9192350003868,3.0,1.0,phase_1,,,,,,,,,,,,,white,diamond
123.0,2.0,2.0,0.0,4.0,4.0,432.5158950000514,3.0,1.0,phase_1,,,,,,,,,,,,,green,cross
179.0,7.0,3.0,1.0,2.0,2.0,475.4446930000995,3.0,1.0,phase_1,,,,,,,,,,,,,cyan,I
55.0,5.0,1.0,1.0,1.0,1.0,335.6352410000909,3.0,1.0,phase_1,,,,,,,,,,,,,blue,square
85.0,6.0,2.0,1.0,2.0,2.0,404.7048059996996,3.0,1.0,phase_1,,,,,,,,,,,,,white,diamond
108.0,2.0,2.0,0.0,4.0,4.0,515.1712480001152,3.0,1.0,phase_1,,,,,,,,,,,,,green,cross
379.0,4.0,4.0,0.0,2.0,2.0,527.1367660002397,3.0,1.0,phase_1,,,,,,,,,,,,,gray,hexagon
423.0,8.0,4.0,1.0,2.0,2.0,479.5979280002029,3.0,1.0,phase_1,,,,,,,,,,,,,yellow,flipped triangle
0.0,5.0,0.0,1.0,3.0,3.0,429.9936089996663,3.0,1.0,phase_1,,,,,,,,,,,,,blue,square
218.0,3.0,3.0,0.0,3.0,3.0,421.1859070001083,3.0,1.0,phase_1,,,,,,,,,,,,,orange,triangle
376.0,8.0,4.0,1.0,2.0,2.0,517.752467000264,3.0,1.0,phase_1,,,,,,,,,,,,,yellow,flipped triangle
417.0,4.0,4.0,0.0,1.0,1.0,431.9157390000328,3.0,1.0,phase_1,,,,,,,,,,,,,gray,hexagon
0.0,4.0,0.0,0.0,2.0,2.0,536.0294229999454,3.0,1.0,phase_1,,,,,,,,,,,,,gray,hexagon
411.0,4.0,4.0,0.0,1.0,1.0,438.6337230002937,3.0,1.0,phase_1,,,,,,,,,,,,,gray,hexagon
72.0,5.0,1.0,1.0,4.0,4.0,407.7520910000203,3.0,1.0,phase_1,,,,,,,,,,,,,blue,square
203.0,3.0,3.0,0.0,3.0,3.0,406.5309499997056,3.0,1.0,phase_1,,,,,,,,,,,,,orange,triangle
0.0,1.0,0.0,0.0,1.0,1.0,501.0325120001653,3.0,1.0,phase_1,,,,,,,,,,,,,magenta,circle
55.0,5.0,1.0,1.0,1.0,1.0,552.6519299996835,3.0,1.0,phase_1,,,,,,,,,,,,,blue,square
209.0,3.0,3.0,0.0,2.0,2.0,409.6199609998621,3.0,1.0,phase_1,,,,,,,,,,,,,orange,triangle
81.0,6.0,2.0,1.0,1.0,1.0,344.1680330001873,3.0,1.0,phase_1,,,,,,,,,,,,,white,diamond
86.0,2.0,2.0,0.0,1.0,1.0,521.6828230004467,3.0,1.0,phase_1,,,,,,,,,,,,,green,cross
382.0,4.0,4.0,0.0,2.0,2.0,416.8883560000722,3.0,1.0,phase_1,,,,,,,,,,,,,gray,hexagon
0.0,8.0,0.0,1.0,2.0,2.0,506.6381379997438,3.0,1.0,phase_1,,,,,,,,,,,,,yellow,flipped triangle
183.0,7.0,3.0,1.0,4.0,4.0,479.1954729998906,3.0,1.0,phase_1,,,,,,,,,,,,,cyan,I
104.0,6.0,2.0,1.0,4.0,4.0,446.4426540002932,3.0,1.0,phase_1,,,,,,,,,,,,,white,diamond
105.0,2.0,2.0,0.0,4.0,4.0,452.0778129999598,3.0,1.0,phase_1,,,,,,,,,,,,,green,cross
398.0,8.0,4.0,1.0,1.0,1.0,612.9313020001064,3.0,1.0,phase_1,,,,,,,,,,,,,yellow,flipped triangle
212.0,7.0,3.0,1.0,2.0,2.0,441.708779000237,3.0,1.0,phase_1,,,,,,,,,,,,,cyan,I
26.0,5.0,1.0,1.0,2.0,2.0,468.307913999979,3.0,1.0,phase_1,,,,,,,,,,,,,blue,square
43.0,5.0,1.0,1.0,3.0,3.0,530.4239440001766,3.0,1.0,phase_1,,,,,,,,,,,,,blue,square
417.0,8.0,4.0,1.0,4.0,4.0,381.8195700000615,3.0,1.0,phase_1,,,,,,,,,,,,,yellow,flipped triangle
183.0,3.0,3.0,0.0,4.0,4.0,582.1758089996365,3.0,1.0,phase_1,,,,,,,,,,,,,orange,triangle
0.0,8.0,0.0,1.0,4.0,4.0,504.1719659998307,3.0,1.0,phase_1,,,,,,,,,,,,,yellow,flipped triangle
397.0,4.0,4.0,0.0,3.0,3.0,402.0181910000246,3.0,1.0,phase_1,,,,,,,,,,,,,gray,hexagon
0.0,4.0,0.0,0.0,1.0,1.0,392.4603460000071,3.0,1.0,phase_1,,,,,,,,,,,,,gray,hexagon
103.0,6.0,2.0,1.0,2.0,2.0,536.6684959999475,3.0,1.0,phase_1,,,,,,,,,,,,,white,diamond
0.0,8.0,0.0,1.0,1.0,1.0,537.8026299999874,3.0,1.0,phase_1,,,,,,,,,,,,,yellow,flipped triangle
186.0,3.0,3.0,0.0,1.0,1.0,421.3100880001548,3.0,1.0,phase_1,,,,,,,,,,,,,orange,triangle
213.0,3.0,3.0,0.0,2.0,2.0,377.9064889999972,3.0,1.0,phase_1,,,,,,,,,,,,,orange,triangle
0.0,4.0,0.0,0.0,2.0,2.0,482.8799810002238,3.0,1.0,phase_1,,,,,,,,,,,,,gray,hexagon
210.0,3.0,3.0,0.0,2.0,2.0,557.8826089999893,3.0,1.0,phase_1,,,,,,,,,,,,,orange,triangle
74.0,1.0,1.0,0.0,3.0,3.0,509.1970630001015,3.0,1.0,phase_1,,,,,,,,,,,,,magenta,circle
113.0,2.0,2.0,0.0,3.0,3.0,429.9087730000792,3.0,1.0,phase_1,,,,,,,,,,,,,green,cross
387.0,8.0,4.0,1.0,2.0,2.0,530.3501210000832,3.0,1.0,phase_1,,,,,,,,,,,,,yellow,flipped triangle
55.0,1.0,1.0,0.0,1.0,1.0,395.1916220003113,3.0,1.0,phase_1,,,,,,,,,,,,,magenta,circle
181.0,7.0,3.0,1.0,2.0,2.0,416.6086669997639,3.0,1.0,phase_1,,,,,,,,,,,,,cyan,I
89.0,2.0,2.0,0.0,2.0,2.0,418.5280100000454,3.0,1.0,phase_1,,,,,,,,,,,,,green,cross
55.0,1.0,1.0,0.0,4.0,4.0,553.4932630002913,3.0,1.0,phase_1,,,,,,,,,,,,,magenta,circle
0.0,7.0,0.0,1.0,2.0,2.0,387.7047669998319,3.0,1.0,phase_1,,,,,,,,,,,,,cyan,I
0.0,3.0,0.0,0.0,2.0,2.0,598.4509370000524,3.0,1.0,phase_1,,,,,,,,,,,,,orange,triangle
401.0,4.0,4.0,0.0,3.0,3.0,507.90661200016984,3.0,1.0,phase_1,,,,,,,,,,,,,gray,hexagon
97.0,6.0,2.0,1.0,4.0,4.0,437.9796719999831,3.0,1.0,phase_1,,,,,,,,,,,,,white,diamond
84.0,2.0,2.0,0.0,4.0,4.0,527.4250299999039,3.0,1.0,phase_1,,,,,,,,,,,,,green,cross
405.0,4.0,4.0,0.0,1.0,1.0,430.8849240001109,3.0,1.0,phase_1,,,,,,,,,,,,,gray,hexagon
44.0,5.0,1.0,1.0,3.0,3.0,383.685468999829,3.0,1.0,phase_1,,,,,,,,,,,,,blue,square
0.0,1.0,0.0,0.0,4.0,4.0,401.5545679999377,3.0,1.0,phase_1,,,,,,,,,,,,,magenta,circle
84.0,6.0,2.0,1.0,4.0,4.0,453.4409210000376,3.0,1.0,phase_1,,,,,,,,,,,,,white,diamond
0.0,5.0,0.0,1.0,1.0,1.0,513.7149530000897,3.0,1.0,phase_1,,,,,,,,,,,,,blue,square
405.0,8.0,4.0,1.0,4.0,4.0,569.2958489999,3.0,1.0,phase_1,,,,,,,,,,,,,yellow,flipped triangle
107.0,6.0,2.0,1.0,1.0,1.0,383.6117760001798,3.0,1.0,phase_1,,,,,,,,,,,,,white,diamond
105.0,6.0,2.0,1.0,2.0,2.0,371.378107000055,3.0,1.0,phase_1,,,,,,,,,,,,,white,diamond
187.0,7.0,3.0,1.0,2.0,2.0,362.8517329998431,3.0,1.0,phase_1,,,,,,,,,,,,,cyan,I
191.0,3.0,3.0,0.0,3.0,3.0,369.8078430002169,3.0,1.0,phase_1,,,,,,,,,,,,,orange,triangle
414.0,8.0,4.0,1.0,1.0,1.0,356.6110110000409,3.0,1.0,phase_1,,,,,,,,,,,,,yellow,flipped triangle
392.0,4.0,4.0,0.0,3.0,3.0,363.188578000063,3.0,1.0,phase_1,,,,,,,,,,,,,gray,hexagon
84.0,2.0,2.0,0.0,4.0,4.0,463.5055359999569,3.0,1.0,phase_1,,,,,,,,,,,,,green,cross
63.0,5.0,1.0,1.0,2.0,2.0,357.3518550001608,3.0,1.0,phase_1,,,,,,,,,,,,,blue,square
120.0,6.0,2.0,1.0,2.0,2.0,359.8907630002941,3.0,1.0,phase_1,,,,,,,,,,,,,white,diamond
63.0,1.0,1.0,0.0,3.0,3.0,376.306841999849,3.0,1.0,phase_1,,,,,,,,,,,,,magenta,circle
0.0,7.0,0.0,1.0,2.0,2.0,421.458566000183,3.0,1.0,phase_1,,,,,,,,,,,,,cyan,I
0.0,5.0,0.0,1.0,3.0,3.0,528.1708100001197,3.0,1.0,phase_1,,,,,,,,,,,,,blue,square
92.0,2.0,2.0,0.0,4.0,4.0,477.5108310000178,3.0,1.0,phase_1,,,,,,,,,,,,,green,cross
63.0,1.0,1.0,0.0,4.0,4.0,433.8801900003091,3.0,1.0,phase_1,,,,,,,,,,,,,magenta,circle
390.0,4.0,4.0,0.0,1.0,1.0,404.3148679998012,3.0,1.0,phase_1,,,,,,,,,,,,,gray,hexagon
0.0,3.0,0.0,0.0,3.0,3.0,505.82477999978437,3.0,1.0,phase_1,,,,,,,,,,,,,orange,triangle
176.0,7.0,3.0,1.0,3.0,3.0,497.345543999927,3.0,1.0,phase_1,,,,,,,,,,,,,cyan,I
198.0,3.0,3.0,0.0,3.0,3.0,498.6906260000978,3.0,1.0,phase_1,,,,,,,,,,,,,orange,triangle
193.0,3.0,3.0,0.0,3.0,3.0,380.4619100001218,3.0,1.0,phase_1,,,,,,,,,,,,,orange,triangle
392.0,4.0,4.0,0.0,4.0,4.0,446.4307759999428,3.0,1.0,phase_1,,,,,,,,,,,,,gray,hexagon
57.0,5.0,1.0,1.0,2.0,2.0,470.2295440001762,3.0,1.0,phase_1,,,,,,,,,,,,,blue,square
198.0,3.0,3.0,0.0,1.0,1.0,374.7926070000176,3.0,1.0,phase_1,,,,,,,,,,,,,orange,triangle
411.0,4.0,4.0,0.0,3.0,3.0,524.4623869998577,3.0,1.0,phase_1,,,,,,,,,,,,,gray,hexagon
90.0,2.0,2.0,0.0,1.0,1.0,342.3197890001574,3.0,1.0,phase_1,,,,,,,,,,,,,green,cross
0.0,6.0,0.0,1.0,2.0,2.0,413.3820570000353,3.0,1.0,phase_1,,,,,,,,,,,,,white,diamond
60.0,1.0,1.0,0.0,3.0,3.0,372.2983779998685,3.0,1.0,phase_1,,,,,,,,,,,,,magenta,circle
186.0,7.0,3.0,1.0,3.0,3.0,391.1945820000255,3.0,1.0,phase_1,,,,,,,,,,,,,cyan,I
205.0,7.0,3.0,1.0,4.0,4.0,372.7142699999604,3.0,1.0,phase_1,,,,,,,,,,,,,cyan,I
206.0,7.0,3.0,1.0,4.0,4.0,349.6579150000798,3.0,1.0,phase_1,,,,,,,,,,,,,cyan,I
199.0,3.0,3.0,0.0,1.0,1.0,454.9985140001809,3.0,1.0,phase_1,,,,,,,,,,,,,orange,triangle
0.0,1.0,0.0,0.0,1.0,1.0,361.9275860000925,3.0,1.0,phase_1,,,,,,,,,,,,,magenta,circle
417.0,4.0,4.0,0.0,2.0,2.0,445.7622429999901,3.0,1.0,phase_1,,,,,,,,,,,,,gray,hexagon
75.0,6.0,2.0,1.0,1.0,1.0,448.3012890000282,3.0,1.0,phase_1,,,,,,,,,,,,,white,diamond
101.0,6.0,2.0,1.0,3.0,3.0,420.496605000153,3.0,1.0,phase_1,,,,,,,,,,,,,white,diamond
46.0,1.0,1.0,0.0,1.0,1.0,419.347124000069,3.0,1.0,phase_1,,,,,,,,,,,,,magenta,circle
412.0,4.0,4.0,0.0,2.0,2.0,464.863441000034,3.0,1.0,phase_1,,,,,,,,,,,,,gray,hexagon
26.0,5.0,1.0,1.0,4.0,4.0,470.9724169997571,3.0,1.0,phase_1,,,,,,,,,,,,,blue,square
66.0,5.0,1.0,1.0,1.0,1.0,354.5187219997388,3.0,1.0,phase_1,,,,,,,,,,,,,blue,square
0.0,8.0,0.0,1.0,2.0,2.0,346.2554749999071,3.0,1.0,phase_1,,,,,,,,,,,,,yellow,flipped triangle
0.0,7.0,0.0,1.0,2.0,2.0,427.1338809999179,4.0,1.0,phase_1,,,,,,,,,,,,,cyan,I
0.0,8.0,0.0,1.0,1.0,1.0,417.5251649999154,4.0,1.0,phase_1,,,,,,,,,,,,,yellow,flipped triangle
221.0,3.0,3.0,0.0,1.0,1.0,473.0877199999668,4.0,1.0,phase_1,,,,,,,,,,,,,orange,triangle
0.0,2.0,0.0,0.0,1.0,1.0,472.8033910000704,4.0,1.0,phase_1,,,,,,,,,,,,,green,cross
0.0,1.0,0.0,0.0,1.0,1.0,433.9617640002871,4.0,1.0,phase_1,,,,,,,,,,,,,magenta,circle
40.0,1.0,1.0,0.0,1.0,1.0,412.8037959999346,4.0,1.0,phase_1,,,,,,,,,,,,,magenta,circle
412.0,8.0,4.0,1.0,4.0,4.0,493.8516679999338,4.0,1.0,phase_1,,,,,,,,,,,,,yellow,flipped triangle
390.0,8.0,4.0,1.0,2.0,2.0,450.6094940002185,4.0,1.0,phase_1,,,,,,,,,,,,,yellow,flipped triangle
0.0,8.0,0.0,1.0,2.0,2.0,374.7129019998283,4.0,1.0,phase_1,,,,,,,,,,,,,yellow,flipped triangle
393.0,4.0,4.0,0.0,3.0,3.0,546.2417879998611,4.0,1.0,phase_1,,,,,,,,,,,,,gray,hexagon
113.0,6.0,2.0,1.0,2.0,2.0,471.457110999836,4.0,1.0,phase_1,,,,,,,,,,,,,white,diamond
104.0,2.0,2.0,0.0,1.0,1.0,486.1362619999454,4.0,1.0,phase_1,,,,,,,,,,,,,green,cross
388.0,8.0,4.0,1.0,4.0,4.0,520.3025309997429,4.0,1.0,phase_1,,,,,,,,,,,,,yellow,flipped triangle
112.0,2.0,2.0,0.0,3.0,3.0,544.0722540001843,4.0,1.0,phase_1,,,,,,,,,,,,,green,cross
0.0,2.0,0.0,0.0,4.0,4.0,642.9909980001867,4.0,1.0,phase_1,,,,,,,,,,,,,green,cross
119.0,2.0,2.0,0.0,3.0,3.0,411.3080410002112,4.0,1.0,phase_1,,,,,,,,,,,,,green,cross
0.0,2.0,0.0,0.0,1.0,1.0,403.0602830002863,4.0,1.0,phase_1,,,,,,,,,,,,,green,cross
0.0,3.0,0.0,0.0,1.0,1.0,444.5323980003195,4.0,1.0,phase_1,,,,,,,,,,,,,orange,triangle
418.0,4.0,4.0,0.0,3.0,3.0,354.0293089999977,4.0,1.0,phase_1,,,,,,,,,,,,,gray,hexagon
84.0,2.0,2.0,0.0,1.0,1.0,380.4902609999772,4.0,1.0,phase_1,,,,,,,,,,,,,green,cross
190.0,7.0,3.0,1.0,2.0,2.0,358.8580700002239,4.0,1.0,phase_1,,,,,,,,,,,,,cyan,I
398.0,4.0,4.0,0.0,3.0,3.0,405.8119400001487,4.0,1.0,phase_1,,,,,,,,,,,,,gray,hexagon
64.0,1.0,1.0,0.0,2.0,2.0,377.2946590001993,4.0,1.0,phase_1,,,,,,,,,,,,,magenta,circle
221.0,7.0,3.0,1.0,1.0,1.0,459.3183319998388,4.0,1.0,phase_1,,,,,,,,,,,,,cyan,I
209.0,7.0,3.0,1.0,1.0,1.0,684.6713529998851,4.0,1.0,phase_1,,,,,,,,,,,,,cyan,I
222.0,7.0,3.0,1.0,2.0,2.0,406.1449789996914,4.0,1.0,phase_1,,,,,,,,,,,,,cyan,I
422.0,4.0,4.0,0.0,3.0,3.0,424.5556839996425,4.0,1.0,phase_1,,,,,,,,,,,,,gray,hexagon
0.0,7.0,0.0,1.0,1.0,1.0,436.2307229998805,4.0,1.0,phase_1,,,,,,,,,,,,,cyan,I
85.0,2.0,2.0,0.0,3.0,3.0,446.2615850002294,4.0,1.0,phase_1,,,,,,,,,,,,,green,cross
49.0,1.0,1.0,0.0,4.0,4.0,437.9899390000901,4.0,1.0,phase_1,,,,,,,,,,,,,magenta,circle
0.0,3.0,0.0,0.0,2.0,2.0,393.4408270001768,4.0,1.0,phase_1,,,,,,,,,,,,,orange,triangle
0.0,2.0,0.0,0.0,2.0,2.0,468.4713229999033,4.0,1.0,phase_1,,,,,,,,,,,,,green,cross
44.0,1.0,1.0,0.0,2.0,2.0,412.2013049995985,4.0,1.0,phase_1,,,,,,,,,,,,,magenta,circle
178.0,7.0,3.0,1.0,3.0,3.0,416.7417439998644,4.0,1.0,phase_1,,,,,,,,,,,,,cyan,I
123.0,6.0,2.0,1.0,3.0,3.0,387.1911999999611,4.0,1.0,phase_1,,,,,,,,,,,,,white,diamond
35.0,5.0,1.0,1.0,2.0,2.0,426.2510050002674,4.0,1.0,phase_1,,,,,,,,,,,,,blue,square
214.0,7.0,3.0,1.0,3.0,3.0,414.9534950001907,4.0,1.0,phase_1,,,,,,,,,,,,,cyan,I
0.0,8.0,0.0,1.0,4.0,4.0,448.4263119998104,4.0,1.0,phase_1,,,,,,,,,,,,,yellow,flipped triangle
33.0,1.0,1.0,0.0,4.0,4.0,402.7335309997397,4.0,1.0,phase_1,,,,,,,,,,,,,magenta,circle
77.0,6.0,2.0,1.0,3.0,3.0,350.3654129999631,4.0,1.0,phase_1,,,,,,,,,,,,,white,diamond
190.0,7.0,3.0,1.0,3.0,3.0,352.4384239999563,4.0,1.0,phase_1,,,,,,,,,,,,,cyan,I
90.0,2.0,2.0,0.0,1.0,1.0,442.5898690001304,4.0,1.0,phase_1,,,,,,,,,,,,,green,cross
109.0,2.0,2.0,0.0,4.0,4.0,502.4181859998862,4.0,1.0,phase_1,,,,,,,,,,,,,green,cross
89.0,6.0,2.0,1.0,4.0,4.0,415.4400029997305,4.0,1.0,phase_1,,,,,,,,,,,,,white,diamond
191.0,7.0,3.0,1.0,1.0,1.0,395.1106810000055,4.0,1.0,phase_1,,,,,,,,,,,,,cyan,I
383.0,4.0,4.0,0.0,4.0,4.0,472.0130609998705,4.0,1.0,phase_1,,,,,,,,,,,,,gray,hexagon
0.0,5.0,0.0,1.0,2.0,2.0,559.2641440002808,4.0,1.0,phase_1,,,,,,,,,,,,,blue,square
180.0,7.0,3.0,1.0,4.0,4.0,439.9321149999196,4.0,1.0,phase_1,,,,,,,,,,,,,cyan,I
398.0,8.0,4.0,1.0,3.0,3.0,400.8547439998438,4.0,1.0,phase_1,,,,,,,,,,,,,yellow,flipped triangle
103.0,6.0,2.0,1.0,2.0,2.0,400.2755629999228,4.0,1.0,phase_1,,,,,,,,,,,,,white,diamond
197.0,7.0,3.0,1.0,2.0,2.0,378.7543729999925,4.0,1.0,phase_1,,,,,,,,,,,,,cyan,I
382.0,8.0,4.0,1.0,3.0,3.0,466.2056850002045,4.0,1.0,phase_1,,,,,,,,,,,,,yellow,flipped triangle
94.0,2.0,2.0,0.0,3.0,3.0,438.6630349999905,4.0,1.0,phase_1,,,,,,,,,,,,,green,cross
0.0,6.0,0.0,1.0,4.0,4.0,393.6334740001257,4.0,1.0,phase_1,,,,,,,,,,,,,white,diamond
0.0,6.0,0.0,1.0,2.0,2.0,389.2323719996966,4.0,1.0,phase_1,,,,,,,,,,,,,white,diamond
0.0,5.0,0.0,1.0,1.0,1.0,716.1742869998307,4.0,1.0,phase_1,,,,,,,,,,,,,blue,square
176.0,3.0,3.0,0.0,4.0,4.0,430.3616120000697,4.0,1.0,phase_1,,,,,,,,,,,,,orange,triangle
214.0,3.0,3.0,0.0,4.0,4.0,410.7386420000694,4.0,1.0,phase_1,,,,,,,,,,,,,orange,triangle
69.0,5.0,1.0,1.0,1.0,1.0,451.7205699999067,4.0,1.0,phase_1,,,,,,,,,,,,,blue,square
60.0,5.0,1.0,1.0,4.0,4.0,477.5024850000591,4.0,1.0,phase_1,,,,,,,,,,,,,blue,square
198.0,3.0,3.0,0.0,1.0,1.0,403.2541680003305,4.0,1.0,phase_1,,,,,,,,,,,,,orange,triangle
49.0,1.0,1.0,0.0,4.0,4.0,365.081874000225,4.0,1.0,phase_1,,,,,,,,,,,,,magenta,circle
112.0,6.0,2.0,1.0,1.0,1.0,387.2912320002797,4.0,1.0,phase_1,,,,,,,,,,,,,white,diamond
0.0,6.0,0.0,1.0,3.0,3.0,348.3340520001547,4.0,1.0,phase_1,,,,,,,,,,,,,white,diamond
80.0,2.0,2.0,0.0,1.0,1.0,354.0325869998924,4.0,1.0,phase_1,,,,,,,,,,,,,green,cross
401.0,8.0,4.0,1.0,4.0,4.0,494.8655220000546,4.0,1.0,phase_1,,,,,,,,,,,,,yellow,flipped triangle
44.0,5.0,1.0,1.0,1.0,1.0,390.180311000222,4.0,1.0,phase_1,,,,,,,,,,,,,blue,square
51.0,5.0,1.0,1.0,3.0,3.0,396.2876179998602,4.0,1.0,phase_1,,,,,,,,,,,,,blue,square
57.0,1.0,1.0,0.0,2.0,2.0,452.8894770000988,4.0,1.0,phase_1,,,,,,,,,,,,,magenta,circle
0.0,7.0,0.0,1.0,1.0,1.0,550.7859179997467,4.0,1.0,phase_1,,,,,,,,,,,,,cyan,I
35.0,1.0,1.0,0.0,1.0,1.0,602.0646160000069,4.0,1.0,phase_1,,,,,,,,,,,,,magenta,circle
0.0,4.0,0.0,0.0,4.0,4.0,437.9337840000517,4.0,1.0,phase_1,,,,,,,,,,,,,gray,hexagon
40.0,1.0,1.0,0.0,3.0,3.0,658.2291190002252,4.0,1.0,phase_1,,,,,,,,,,,,,magenta,circle
204.0,7.0,3.0,1.0,1.0,1.0,388.9665619999505,4.0,1.0,phase_1,,,,,,,,,,,,,cyan,I
32.0,5.0,1.0,1.0,1.0,1.0,384.39116799963807,4.0,1.0,phase_1,,,,,,,,,,,,,blue,square
215.0,3.0,3.0,0.0,1.0,1.0,385.2249070000653,4.0,1.0,phase_1,,,,,,,,,,,,,orange,triangle
89.0,2.0,2.0,0.0,3.0,3.0,565.3460730000006,4.0,1.0,phase_1,,,,,,,,,,,,,green,cross
72.0,1.0,1.0,0.0,1.0,1.0,444.3109189996903,4.0,1.0,phase_1,,,,,,,,,,,,,magenta,circle
190.0,3.0,3.0,0.0,4.0,4.0,435.7262899998204,4.0,1.0,phase_1,,,,,,,,,,,,,orange,triangle
72.0,1.0,1.0,0.0,3.0,3.0,377.3443669997505,4.0,1.0,phase_1,,,,,,,,,,,,,magenta,circle
187.0,3.0,3.0,0.0,3.0,3.0,435.8612350001749,4.0,1.0,phase_1,,,,,,,,,,,,,orange,triangle
393.0,4.0,4.0,0.0,2.0,2.0,435.0525229997402,4.0,1.0,phase_1,,,,,,,,,,,,,gray,hexagon
26.0,1.0,1.0,0.0,3.0,3.0,336.0339729997577,4.0,1.0,phase_1,,,,,,,,,,,,,magenta,circle
89.0,2.0,2.0,0.0,2.0,2.0,451.3275360000079,4.0,1.0,phase_1,,,,,,,,,,,,,green,cross
77.0,2.0,2.0,0.0,3.0,3.0,381.5838609998536,4.0,1.0,phase_1,,,,,,,,,,,,,green,cross
0.0,4.0,0.0,0.0,4.0,4.0,491.9829489999756,4.0,1.0,phase_1,,,,,,,,,,,,,gray,hexagon
0.0,3.0,0.0,0.0,2.0,2.0,363.5170389998166,4.0,1.0,phase_1,,,,,,,,,,,,,orange,triangle
77.0,2.0,2.0,0.0,4.0,4.0,413.7812620001568,4.0,1.0,phase_1,,,,,,,,,,,,,green,cross
105.0,2.0,2.0,0.0,2.0,2.0,356.6400889999386,4.0,1.0,phase_1,,,,,,,,,,,,,green,cross
120.0,2.0,2.0,0.0,2.0,2.0,319.4635069999094,4.0,1.0,phase_1,,,,,,,,,,,,,green,cross
405.0,4.0,4.0,0.0,2.0,2.0,424.3633650003175,4.0,1.0,phase_1,,,,,,,,,,,,,gray,hexagon
27.0,1.0,1.0,0.0,1.0,1.0,592.8995449999093,4.0,1.0,phase_1,,,,,,,,,,,,,magenta,circle
203.0,7.0,3.0,1.0,1.0,1.0,652.378728000258,4.0,1.0,phase_1,,,,,,,,,,,,,cyan,I
179.0,3.0,3.0,0.0,3.0,3.0,569.1464669998823,4.0,1.0,phase_1,,,,,,,,,,,,,orange,triangle
60.0,1.0,1.0,0.0,1.0,1.0,702.3730920000162,4.0,1.0,phase_1,,,,,,,,,,,,,magenta,circle
49.0,5.0,1.0,1.0,4.0,4.0,561.7945690000852,4.0,1.0,phase_1,,,,,,,,,,,,,blue,square
40.0,5.0,1.0,1.0,4.0,4.0,755.0572400000419,4.0,1.0,phase_1,,,,,,,,,,,,,blue,square
388.0,4.0,4.0,0.0,4.0,4.0,886.7800830003034,4.0,1.0,phase_1,,,,,,,,,,,,,gray,hexagon
71.0,5.0,1.0,1.0,3.0,3.0,544.3385799999305,4.0,1.0,phase_1,,,,,,,,,,,,,blue,square
44.0,1.0,1.0,0.0,2.0,2.0,398.2027649999509,4.0,1.0,phase_1,,,,,,,,,,,,,magenta,circle
0.0,1.0,1.0,0.0,6.0,6.0,687.0966300002692,1.0,1.0,phase_2,go,250.0,250.0,1.0,,,,,,,,,magenta,circle
0.0,1.0,1.0,0.0,5.0,5.0,677.3771460002536,1.0,1.0,phase_2,go,250.0,250.0,1.0,,,,,,,,,magenta,circle
0.0,6.0,2.0,1.0,6.0,0.0,0.0,1.0,1.0,phase_2,stop,250.0,250.0,4.0,,,,,,,,,white,diamond
0.0,2.0,2.0,0.0,6.0,6.0,720.5023649994473,1.0,1.0,phase_2,go,250.0,300.0,1.0,,,,,,,,,green,cross
0.0,1.0,1.0,0.0,5.0,5.0,827.0302359997004,1.0,1.0,phase_2,go,250.0,300.0,1.0,,,,,,,,,magenta,circle
0.0,5.0,1.0,1.0,6.0,6.0,841.2624780003171,1.0,1.0,phase_2,go,250.0,300.0,1.0,,,,,,,,,blue,square
0.0,7.0,3.0,1.0,5.0,0.0,0.0,1.0,1.0,phase_2,stop,250.0,300.0,4.0,,,,,,,,,cyan,I
0.0,5.0,1.0,1.0,5.0,0.0,0.0,1.0,1.0,phase_2,stop,300.0,300.0,4.0,,,,,,,,,blue,square
0.0,3.0,3.0,0.0,5.0,5.0,760.0699939994229,1.0,1.0,phase_2,go,350.0,300.0,1.0,,,,,,,,,orange,triangle
0.0,5.0,1.0,1.0,6.0,0.0,0.0,1.0,1.0,phase_2,stop,350.0,300.0,4.0,,,,,,,,,blue,square
0.0,4.0,4.0,0.0,6.0,6.0,760.075128000608,1.0,1.0,phase_2,go,350.0,350.0,1.0,,,,,,,,,gray,hexagon
0.0,5.0,1.0,1.0,5.0,0.0,0.0,1.0,1.0,phase_2,stop,350.0,350.0,4.0,,,,,,,,,blue,square
0.0,1.0,1.0,0.0,6.0,6.0,763.5744780000095,1.0,1.0,phase_2,go,400.0,350.0,1.0,,,,,,,,,magenta,circle
0.0,2.0,2.0,0.0,5.0,5.0,727.1788910002215,1.0,1.0,phase_2,go,400.0,350.0,1.0,,,,,,,,,green,cross
0.0,7.0,3.0,1.0,6.0,0.0,0.0,1.0,1.0,phase_2,stop,400.0,350.0,4.0,,,,,,,,,cyan,I
0.0,8.0,4.0,1.0,5.0,0.0,0.0,1.0,1.0,phase_2,stop,400.0,400.0,4.0,,,,,,,,,yellow,flipped triangle
0.0,4.0,4.0,0.0,5.0,5.0,863.5774109998238,1.0,1.0,phase_2,go,450.0,400.0,1.0,,,,,,,,,gray,hexagon
0.0,8.0,4.0,1.0,6.0,0.0,0.0,1.0,1.0,phase_2,stop,450.0,400.0,4.0,,,,,,,,,yellow,flipped triangle
0.0,3.0,3.0,0.0,5.0,5.0,835.0582900002337,1.0,1.0,phase_2,go,450.0,450.0,1.0,,,,,,,,,orange,triangle
0.0,2.0,2.0,0.0,6.0,6.0,883.3169689996794,1.0,1.0,phase_2,go,450.0,450.0,1.0,,,,,,,,,green,cross
0.0,1.0,1.0,0.0,6.0,6.0,991.5210109993496,1.0,1.0,phase_2,go,450.0,450.0,1.0,,,,,,,,,magenta,circle
0.0,2.0,2.0,0.0,5.0,5.0,717.5758679995852,1.0,1.0,phase_2,go,450.0,450.0,1.0,,,,,,,,,green,cross
0.0,8.0,4.0,1.0,6.0,0.0,0.0,1.0,1.0,phase_2,stop,450.0,450.0,4.0,,,,,,,,,yellow,flipped triangle
0.0,1.0,1.0,0.0,6.0,6.0,927.1999399998094,1.0,1.0,phase_2,go,450.0,500.0,1.0,,,,,,,,,magenta,circle
0.0,8.0,4.0,1.0,5.0,0.0,0.0,1.0,1.0,phase_2,stop,450.0,500.0,4.0,,,,,,,,,yellow,flipped triangle
0.0,7.0,3.0,1.0,5.0,0.0,0.0,1.0,1.0,phase_2,stop,500.0,500.0,4.0,,,,,,,,,cyan,I
0.0,3.0,3.0,0.0,5.0,5.0,888.8807120001729,1.0,1.0,phase_2,go,550.0,500.0,1.0,,,,,,,,,orange,triangle
0.0,8.0,4.0,1.0,5.0,0.0,0.0,1.0,1.0,phase_2,stop,550.0,500.0,4.0,,,,,,,,,yellow,flipped triangle
0.0,7.0,3.0,1.0,6.0,0.0,0.0,1.0,1.0,phase_2,stop,600.0,500.0,4.0,,,,,,,,,cyan,I
0.0,4.0,4.0,0.0,5.0,5.0,871.6889810002613,1.0,1.0,phase_2,go,600.0,550.0,1.0,,,,,,,,,gray,hexagon
0.0,6.0,2.0,1.0,5.0,5.0,1029.216460000498,1.0,1.0,phase_2,go,600.0,550.0,1.0,,,,,,,,,white,diamond
0.0,5.0,1.0,1.0,6.0,0.0,0.0,1.0,1.0,phase_2,stop,600.0,550.0,4.0,,,,,,,,,blue,square
0.0,2.0,2.0,0.0,6.0,6.0,905.8830969997872,1.0,1.0,phase_2,go,600.0,600.0,1.0,,,,,,,,,green,cross
0.0,5.0,1.0,1.0,5.0,0.0,0.0,1.0,1.0,phase_2,stop,600.0,600.0,4.0,,,,,,,,,blue,square
0.0,7.0,3.0,1.0,6.0,0.0,0.0,1.0,1.0,phase_2,stop,650.0,600.0,4.0,,,,,,,,,cyan,I
0.0,7.0,3.0,1.0,6.0,0.0,0.0,1.0,1.0,phase_2,stop,650.0,650.0,4.0,,,,,,,,,cyan,I
0.0,2.0,2.0,0.0,6.0,6.0,760.9394680002879,2.0,1.0,phase_2,go,650.0,700.0,1.0,,,,,,,,,green,cross
0.0,2.0,2.0,0.0,5.0,5.0,896.6720660000647,2.0,1.0,phase_2,go,650.0,700.0,1.0,,,,,,,,,green,cross
0.0,3.0,3.0,0.0,6.0,6.0,798.0167240002629,2.0,1.0,phase_2,go,650.0,700.0,1.0,,,,,,,,,orange,triangle
0.0,3.0,3.0,0.0,6.0,6.0,1033.5698149992822,2.0,1.0,phase_2,go,650.0,700.0,1.0,,,,,,,,,orange,triangle
0.0,5.0,1.0,1.0,5.0,0.0,0.0,2.0,1.0,phase_2,stop,650.0,700.0,4.0,,,,,,,,,blue,square
0.0,6.0,2.0,1.0,6.0,6.0,751.0235929994451,2.0,1.0,phase_2,stop,700.0,700.0,3.0,,,,,,,,,white,diamond
0.0,2.0,2.0,0.0,6.0,6.0,937.0137109999632,2.0,1.0,phase_2,go,700.0,650.0,1.0,,,,,,,,,green,cross
0.0,4.0,4.0,0.0,5.0,5.0,850.9436710000955,2.0,1.0,phase_2,go,700.0,650.0,1.0,,,,,,,,,gray,hexagon
0.0,4.0,4.0,0.0,6.0,6.0,934.9962959995536,2.0,1.0,phase_2,go,700.0,650.0,1.0,,,,,,,,,gray,hexagon
0.0,3.0,3.0,0.0,6.0,6.0,890.8017379999364,2.0,1.0,phase_2,go,700.0,650.0,1.0,,,,,,,,,orange,triangle
0.0,4.0,4.0,0.0,5.0,5.0,738.8664230002178,2.0,1.0,phase_2,go,700.0,650.0,1.0,,,,,,,,,gray,hexagon
0.0,8.0,4.0,1.0,6.0,0.0,0.0,2.0,1.0,phase_2,stop,700.0,650.0,4.0,,,,,,,,,yellow,flipped triangle
0.0,4.0,4.0,0.0,5.0,5.0,848.9795470004537,2.0,1.0,phase_2,go,700.0,700.0,1.0,,,,,,,,,gray,hexagon
0.0,6.0,2.0,1.0,6.0,0.0,0.0,2.0,1.0,phase_2,stop,700.0,700.0,4.0,,,,,,,,,white,diamond
0.0,7.0,3.0,1.0,5.0,0.0,0.0,2.0,1.0,phase_2,stop,700.0,750.0,4.0,,,,,,,,,cyan,I
0.0,4.0,4.0,0.0,5.0,5.0,1102.3193379996885,2.0,1.0,phase_2,go,750.0,750.0,1.0,,,,,,,,,gray,hexagon
0.0,6.0,2.0,1.0,5.0,0.0,0.0,2.0,1.0,phase_2,stop,750.0,750.0,4.0,,,,,,,,,white,diamond
0.0,3.0,3.0,0.0,6.0,6.0,1110.7633319998058,2.0,1.0,phase_2,go,800.0,750.0,1.0,,,,,,,,,orange,triangle
0.0,8.0,4.0,1.0,6.0,0.0,0.0,2.0,1.0,phase_2,stop,800.0,750.0,4.0,,,,,,,,,yellow,flipped triangle
0.0,5.0,1.0,1.0,5.0,5.0,876.7292519996772,2.0,1.0,phase_2,stop,800.0,800.0,3.0,,,,,,,,,blue,square
0.0,1.0,1.0,0.0,6.0,6.0,1196.1701139998695,2.0,1.0,phase_2,go,750.0,800.0,1.0,,,,,,,,,magenta,circle
0.0,1.0,1.0,0.0,6.0,6.0,939.5050940001966,2.0,1.0,phase_2,go,750.0,800.0,1.0,,,,,,,,,magenta,circle
0.0,8.0,4.0,1.0,5.0,5.0,1056.5362530005586,2.0,1.0,phase_2,go,750.0,800.0,1.0,,,,,,,,,yellow,flipped triangle
0.0,5.0,1.0,1.0,6.0,6.0,908.3292479999728,2.0,1.0,phase_2,stop,750.0,800.0,3.0,,,,,,,,,blue,square
0.0,8.0,4.0,1.0,6.0,6.0,1082.1563409999726,2.0,1.0,phase_2,go,750.0,750.0,1.0,,,,,,,,,yellow,flipped triangle
0.0,5.0,1.0,1.0,5.0,0.0,0.0,2.0,1.0,phase_2,stop,750.0,750.0,4.0,,,,,,,,,blue,square
0.0,1.0,1.0,0.0,6.0,6.0,943.6177469997348,2.0,1.0,phase_2,go,800.0,750.0,1.0,,,,,,,,,magenta,circle
0.0,8.0,4.0,1.0,6.0,0.0,0.0,2.0,1.0,phase_2,stop,800.0,750.0,4.0,,,,,,,,,yellow,flipped triangle
0.0,7.0,3.0,1.0,6.0,6.0,1246.06723099987,2.0,1.0,phase_2,go,800.0,800.0,1.0,,,,,,,,,cyan,I
0.0,4.0,4.0,0.0,5.0,5.0,1385.7500650001384,2.0,1.0,phase_2,go,800.0,800.0,1.0,,,,,,,,,gray,hexagon
0.0,3.0,3.0,0.0,5.0,5.0,1222.0984379991933,2.0,1.0,phase_2,go,800.0,800.0,1.0,,,,,,,,,orange,triangle
0.0,1.0,1.0,0.0,5.0,5.0,845.3705040001296,2.0,1.0,phase_2,go,800.0,800.0,1.0,,,,,,,,,magenta,circle
0.0,7.0,3.0,1.0,6.0,0.0,0.0,2.0,1.0,phase_2,stop,800.0,800.0,4.0,,,,,,,,,cyan,I
0.0,4.0,4.0,0.0,5.0,5.0,724.2974790005974,2.0,1.0,phase_2,go,800.0,850.0,1.0,,,,,,,,,gray,hexagon
0.0,6.0,2.0,1.0,5.0,0.0,0.0,2.0,1.0,phase_2,stop,800.0,850.0,4.0,,,,,,,,,white,diamond
0.0,6.0,2.0,1.0,6.0,6.0,971.3939319999554,2.0,1.0,phase_2,go,850.0,850.0,1.0,,,,,,,,,white,diamond
0.0,2.0,2.0,0.0,6.0,6.0,431.3355660005982,3.0,1.0,phase_2,go,850.0,850.0,1.0,,,,,,,,,green,cross
0.0,3.0,3.0,0.0,5.0,5.0,283.4467070006212,3.0,1.0,phase_2,go,850.0,850.0,1.0,,,,,,,,,orange,triangle
0.0,7.0,3.0,1.0,5.0,5.0,320.7939579997401,3.0,1.0,phase_2,stop,850.0,850.0,3.0,,,,,,,,,cyan,I
0.0,8.0,4.0,1.0,5.0,5.0,319.8271789997307,3.0,1.0,phase_2,stop,800.0,850.0,3.0,,,,,,,,,yellow,flipped triangle
0.0,1.0,1.0,0.0,5.0,5.0,526.9421570001214,3.0,1.0,phase_2,go,750.0,850.0,1.0,,,,,,,,,magenta,circle
0.0,8.0,4.0,1.0,5.0,5.0,410.0726169999689,3.0,1.0,phase_2,stop,750.0,850.0,3.0,,,,,,,,,yellow,flipped triangle
0.0,2.0,2.0,0.0,5.0,5.0,300.6011079996824,3.0,1.0,phase_2,go,700.0,850.0,1.0,,,,,,,,,green,cross
0.0,2.0,2.0,0.0,6.0,6.0,293.8930479995179,3.0,1.0,phase_2,go,700.0,850.0,1.0,,,,,,,,,green,cross
0.0,8.0,4.0,1.0,6.0,6.0,584.170097000424,3.0,1.0,phase_2,go,700.0,850.0,1.0,,,,,,,,,yellow,flipped triangle
0.0,2.0,2.0,0.0,5.0,5.0,326.5132239994273,3.0,1.0,phase_2,go,700.0,850.0,1.0,,,,,,,,,green,cross
0.0,8.0,4.0,1.0,6.0,6.0,320.4761559991311,3.0,1.0,phase_2,stop,700.0,850.0,3.0,,,,,,,,,yellow,flipped triangle
0.0,6.0,2.0,1.0,6.0,6.0,636.1315390004165,3.0,1.0,phase_2,stop,700.0,800.0,3.0,,,,,,,,,white,diamond
0.0,2.0,2.0,0.0,5.0,5.0,281.639128000279,3.0,1.0,phase_2,go,700.0,750.0,1.0,,,,,,,,,green,cross
0.0,8.0,4.0,1.0,5.0,5.0,674.4435869995868,3.0,1.0,phase_2,stop,700.0,750.0,3.0,,,,,,,,,yellow,flipped triangle
0.0,4.0,4.0,0.0,6.0,6.0,786.0956370004715,3.0,1.0,phase_2,go,650.0,750.0,1.0,,,,,,,,,gray,hexagon
0.0,2.0,2.0,0.0,5.0,5.0,878.9887149996503,3.0,1.0,phase_2,go,650.0,750.0,1.0,,,,,,,,,green,cross
0.0,8.0,4.0,1.0,6.0,6.0,715.2523830000064,3.0,1.0,phase_2,go,650.0,750.0,1.0,,,,,,,,,yellow,flipped triangle
0.0,1.0,1.0,0.0,6.0,6.0,440.2369950003049,3.0,1.0,phase_2,go,650.0,750.0,1.0,,,,,,,,,magenta,circle
0.0,2.0,2.0,0.0,6.0,6.0,718.5013399994205,3.0,1.0,phase_2,go,650.0,750.0,1.0,,,,,,,,,green,cross
0.0,4.0,4.0,0.0,6.0,6.0,374.8216909998518,3.0,1.0,phase_2,go,650.0,750.0,1.0,,,,,,,,,gray,hexagon
0.0,6.0,2.0,1.0,6.0,6.0,343.70862000014307,3.0,1.0,phase_2,stop,650.0,750.0,3.0,,,,,,,,,white,diamond
0.0,3.0,3.0,0.0,6.0,6.0,503.2204049994107,3.0,1.0,phase_2,go,650.0,700.0,1.0,,,,,,,,,orange,triangle
0.0,1.0,1.0,0.0,5.0,5.0,624.2497829998683,3.0,1.0,phase_2,go,650.0,700.0,1.0,,,,,,,,,magenta,circle
0.0,8.0,4.0,1.0,6.0,6.0,274.2336440005601,3.0,1.0,phase_2,stop,650.0,700.0,3.0,,,,,,,,,yellow,flipped triangle
0.0,6.0,2.0,1.0,5.0,5.0,300.4450089993042,3.0,1.0,phase_2,stop,650.0,650.0,3.0,,,,,,,,,white,diamond
0.0,1.0,1.0,0.0,5.0,5.0,604.9541229995157,3.0,1.0,phase_2,go,600.0,650.0,1.0,,,,,,,,,magenta,circle
0.0,7.0,3.0,1.0,6.0,6.0,469.8111809993861,3.0,1.0,phase_2,stop,600.0,650.0,3.0,,,,,,,,,cyan,I
0.0,6.0,2.0,1.0,5.0,5.0,685.1082900002439,3.0,1.0,phase_2,stop,600.0,600.0,3.0,,,,,,,,,white,diamond
0.0,3.0,3.0,0.0,6.0,6.0,780.5217920003997,3.0,1.0,phase_2,go,550.0,600.0,1.0,,,,,,,,,orange,triangle
0.0,1.0,1.0,0.0,6.0,6.0,364.6827559996382,3.0,1.0,phase_2,go,550.0,600.0,1.0,,,,,,,,,magenta,circle
0.0,4.0,4.0,0.0,6.0,6.0,426.7121020002378,3.0,1.0,phase_2,go,550.0,600.0,1.0,,,,,,,,,gray,hexagon
0.0,3.0,3.0,0.0,6.0,6.0,695.5377060003229,3.0,1.0,phase_2,go,550.0,600.0,1.0,,,,,,,,,orange,triangle
0.0,7.0,3.0,1.0,5.0,5.0,705.6271100000231,3.0,1.0,phase_2,stop,550.0,600.0,3.0,,,,,,,,,cyan,I
0.0,7.0,3.0,1.0,5.0,0.0,0.0,3.0,1.0,phase_2,stop,500.0,600.0,4.0,,,,,,,,,cyan,I
0.0,2.0,2.0,0.0,5.0,5.0,646.8024209998475,3.0,1.0,phase_2,go,550.0,600.0,1.0,,,,,,,,,green,cross
0.0,2.0,2.0,0.0,6.0,6.0,260.5351820002397,3.0,1.0,phase_2,go,550.0,600.0,1.0,,,,,,,,,green,cross
0.0,6.0,2.0,1.0,6.0,6.0,529.9346640003932,4.0,1.0,phase_2,stop,550.0,600.0,3.0,,,,,,,,,white,diamond
0.0,1.0,1.0,0.0,5.0,5.0,306.1053569999785,4.0,1.0,phase_2,go,550.0,550.0,1.0,,,,,,,,,magenta,circle
0.0,4.0,4.0,0.0,6.0,6.0,325.4438209996806,4.0,1.0,phase_2,go,550.0,550.0,1.0,,,,,,,,,gray,hexagon
0.0,2.0,2.0,0.0,6.0,6.0,321.7689449993486,4.0,1.0,phase_2,go,550.0,550.0,1.0,,,,,,,,,green,cross
0.0,3.0,3.0,0.0,5.0,5.0,761.7294199999378,4.0,1.0,phase_2,go,550.0,550.0,1.0,,,,,,,,,orange,triangle
0.0,5.0,1.0,1.0,6.0,6.0,273.2280840000385,4.0,1.0,phase_2,go,550.0,550.0,1.0,,,,,,,,,blue,square
0.0,7.0,3.0,1.0,6.0,6.0,293.5482590000902,4.0,1.0,phase_2,stop,550.0,550.0,3.0,,,,,,,,,cyan,I
0.0,3.0,3.0,0.0,5.0,5.0,326.9177579995812,4.0,1.0,phase_2,go,550.0,500.0,1.0,,,,,,,,,orange,triangle
0.0,4.0,4.0,0.0,6.0,6.0,628.987705000327,4.0,1.0,phase_2,go,550.0,500.0,1.0,,,,,,,,,gray,hexagon
0.0,4.0,4.0,0.0,5.0,5.0,377.3559000001114,4.0,1.0,phase_2,go,550.0,500.0,1.0,,,,,,,,,gray,hexagon
0.0,4.0,4.0,0.0,5.0,5.0,320.7899600001838,4.0,1.0,phase_2,go,550.0,500.0,1.0,,,,,,,,,gray,hexagon
0.0,8.0,4.0,1.0,5.0,5.0,421.9696569998632,4.0,1.0,phase_2,stop,550.0,500.0,3.0,,,,,,,,,yellow,flipped triangle
0.0,3.0,3.0,0.0,5.0,5.0,416.9839390006018,4.0,1.0,phase_2,go,500.0,500.0,1.0,,,,,,,,,orange,triangle
0.0,1.0,1.0,0.0,5.0,5.0,328.7327380003262,4.0,1.0,phase_2,go,500.0,500.0,1.0,,,,,,,,,magenta,circle
0.0,6.0,2.0,1.0,5.0,5.0,331.0908530002052,4.0,1.0,phase_2,go,500.0,500.0,1.0,,,,,,,,,white,diamond
0.0,5.0,1.0,1.0,5.0,5.0,375.1812760001485,4.0,1.0,phase_2,go,500.0,500.0,1.0,,,,,,,,,blue,square
0.0,4.0,4.0,0.0,6.0,6.0,286.4090399998531,4.0,1.0,phase_2,go,500.0,500.0,1.0,,,,,,,,,gray,hexagon
0.0,8.0,4.0,1.0,6.0,6.0,320.3279760000441,4.0,1.0,phase_2,stop,500.0,500.0,3.0,,,,,,,,,yellow,flipped triangle
0.0,7.0,3.0,1.0,5.0,5.0,288.6841110002933,4.0,1.0,phase_2,go,500.0,450.0,1.0,,,,,,,,,cyan,I
0.0,5.0,1.0,1.0,6.0,6.0,575.4352650001238,4.0,1.0,phase_2,stop,500.0,450.0,3.0,,,,,,,,,blue,square
0.0,8.0,4.0,1.0,5.0,5.0,595.5556200005958,4.0,1.0,phase_2,go,500.0,400.0,1.0,,,,,,,,,yellow,flipped triangle
0.0,5.0,1.0,1.0,6.0,6.0,706.4111620002222,4.0,1.0,phase_2,go,500.0,400.0,1.0,,,,,,,,,blue,square
0.0,7.0,3.0,1.0,6.0,6.0,395.8956349997606,4.0,1.0,phase_2,stop,500.0,400.0,3.0,,,,,,,,,cyan,I
0.0,6.0,2.0,1.0,6.0,6.0,600.3184210003383,4.0,1.0,phase_2,go,500.0,350.0,1.0,,,,,,,,,white,diamond
0.0,3.0,3.0,0.0,6.0,6.0,633.501760999934,4.0,1.0,phase_2,go,500.0,350.0,1.0,,,,,,,,,orange,triangle
0.0,8.0,4.0,1.0,5.0,5.0,323.7622950000514,4.0,1.0,phase_2,stop,500.0,350.0,3.0,,,,,,,,,yellow,flipped triangle
0.0,4.0,4.0,0.0,6.0,6.0,394.1902770002343,4.0,1.0,phase_2,go,450.0,350.0,1.0,,,,,,,,,gray,hexagon
0.0,2.0,2.0,0.0,6.0,6.0,324.8633880002671,4.0,1.0,phase_2,go,450.0,350.0,1.0,,,,,,,,,green,cross
0.0,8.0,4.0,1.0,5.0,5.0,304.5603740001752,4.0,1.0,phase_2,stop,450.0,350.0,3.0,,,,,,,,,yellow,flipped triangle
0.0,2.0,2.0,0.0,6.0,6.0,356.9811369998206,4.0,1.0,phase_2,go,400.0,350.0,1.0,,,,,,,,,green,cross
0.0,3.0,3.0,0.0,6.0,6.0,493.7450239995087,4.0,1.0,phase_2,go,400.0,350.0,1.0,,,,,,,,,orange,triangle
0.0,8.0,4.0,1.0,5.0,5.0,527.1137500003533,4.0,1.0,phase_2,stop,400.0,350.0,3.0,,,,,,,,,yellow,flipped triangle
0.0,4.0,4.0,0.0,5.0,5.0,398.2635279999158,4.0,1.0,phase_2,go,350.0,350.0,1.0,,,,,,,,,gray,hexagon
0.0,7.0,3.0,1.0,5.0,0.0,0.0,4.0,1.0,phase_2,stop,350.0,350.0,4.0,,,,,,,,,cyan,I
0.0,3.0,3.0,0.0,5.0,5.0,929.5127690002118,4.0,1.0,phase_2,go,400.0,350.0,1.0,,,,,,,,,orange,triangle
0.0,7.0,3.0,1.0,5.0,0.0,0.0,4.0,1.0,phase_2,stop,400.0,350.0,4.0,,,,,,,,,cyan,I
0.0,7.0,3.0,1.0,5.0,5.0,611.4894150005057,5.0,1.0,phase_2,stop,450.0,350.0,3.0,,,,,,,,,cyan,I
0.0,6.0,2.0,1.0,6.0,6.0,310.3177450002476,5.0,1.0,phase_2,stop,400.0,350.0,3.0,,,,,,,,,white,diamond
0.0,3.0,3.0,0.0,5.0,5.0,652.6032179999675,5.0,1.0,phase_2,go,400.0,300.0,1.0,,,,,,,,,orange,triangle
0.0,4.0,4.0,0.0,6.0,6.0,289.4021849997443,5.0,1.0,phase_2,go,400.0,300.0,1.0,,,,,,,,,gray,hexagon
0.0,6.0,2.0,1.0,6.0,0.0,0.0,5.0,1.0,phase_2,stop,400.0,300.0,4.0,,,,,,,,,white,diamond
0.0,3.0,3.0,0.0,6.0,6.0,509.2653950005115,5.0,1.0,phase_2,go,400.0,350.0,1.0,,,,,,,,,orange,triangle
0.0,5.0,1.0,1.0,6.0,6.0,307.9844869998851,5.0,1.0,phase_2,stop,400.0,350.0,3.0,,,,,,,,,blue,square
0.0,7.0,3.0,1.0,6.0,6.0,603.8572199995542,5.0,1.0,phase_2,go,400.0,300.0,1.0,,,,,,,,,cyan,I
0.0,6.0,2.0,1.0,5.0,5.0,307.548429000235,5.0,1.0,phase_2,stop,400.0,300.0,3.0,,,,,,,,,white,diamond
0.0,7.0,3.0,1.0,6.0,6.0,568.0499469999631,5.0,1.0,phase_2,go,350.0,300.0,1.0,,,,,,,,,cyan,I
0.0,1.0,1.0,0.0,6.0,6.0,298.61309599982627,5.0,1.0,phase_2,go,350.0,300.0,1.0,,,,,,,,,magenta,circle
0.0,8.0,4.0,1.0,5.0,0.0,0.0,5.0,1.0,phase_2,stop,350.0,300.0,4.0,,,,,,,,,yellow,flipped triangle
0.0,3.0,3.0,0.0,6.0,6.0,264.9181389997466,5.0,1.0,phase_2,go,400.0,300.0,1.0,,,,,,,,,orange,triangle
0.0,5.0,1.0,1.0,6.0,6.0,672.5479299993822,5.0,1.0,phase_2,go,400.0,300.0,1.0,,,,,,,,,blue,square
0.0,5.0,1.0,1.0,6.0,6.0,363.6726679997082,5.0,1.0,phase_2,stop,400.0,300.0,3.0,,,,,,,,,blue,square
0.0,4.0,4.0,0.0,6.0,6.0,276.6763549998359,5.0,1.0,phase_2,go,400.0,250.0,1.0,,,,,,,,,gray,hexagon
0.0,2.0,2.0,0.0,5.0,5.0,201.9228720000683,5.0,1.0,phase_2,go,400.0,250.0,1.0,,,,,,,,,green,cross
0.0,8.0,4.0,1.0,5.0,5.0,336.9589929998255,5.0,1.0,phase_2,stop,400.0,250.0,3.0,,,,,,,,,yellow,flipped triangle
0.0,2.0,2.0,0.0,5.0,5.0,284.4562509999377,5.0,1.0,phase_2,go,350.0,250.0,1.0,,,,,,,,,green,cross
0.0,8.0,4.0,1.0,6.0,6.0,282.9809459999524,5.0,1.0,phase_2,stop,350.0,250.0,3.0,,,,,,,,,yellow,flipped triangle
0.0,6.0,2.0,1.0,6.0,0.0,0.0,5.0,1.0,phase_2,stop,350.0,200.0,4.0,,,,,,,,,white,diamond
0.0,6.0,2.0,1.0,6.0,6.0,607.978892000574,5.0,1.0,phase_2,go,350.0,250.0,1.0,,,,,,,,,white,diamond
0.0,1.0,1.0,0.0,6.0,6.0,505.477239999891,5.0,1.0,phase_2,go,350.0,250.0,1.0,,,,,,,,,magenta,circle
0.0,6.0,2.0,1.0,5.0,0.0,0.0,5.0,1.0,phase_2,stop,350.0,250.0,4.0,,,,,,,,,white,diamond
0.0,6.0,2.0,1.0,5.0,5.0,376.3803450001433,5.0,1.0,phase_2,go,400.0,250.0,1.0,,,,,,,,,white,diamond
0.0,8.0,4.0,1.0,6.0,6.0,293.402784999671,5.0,1.0,phase_2,stop,400.0,250.0,3.0,,,,,,,,,yellow,flipped triangle
0.0,1.0,1.0,0.0,5.0,5.0,279.4768230005502,5.0,1.0,phase_2,go,400.0,200.0,1.0,,,,,,,,,magenta,circle
0.0,2.0,2.0,0.0,5.0,5.0,460.9430959999372,5.0,1.0,phase_2,go,400.0,200.0,1.0,,,,,,,,,green,cross
0.0,6.0,2.0,1.0,6.0,6.0,483.388431000094,5.0,1.0,phase_2,go,400.0,200.0,1.0,,,,,,,,,white,diamond
0.0,5.0,1.0,1.0,5.0,5.0,292.0353119998253,5.0,1.0,phase_2,stop,400.0,200.0,3.0,,,,,,,,,blue,square
0.0,1.0,1.0,0.0,5.0,5.0,527.661518000059,5.0,1.0,phase_2,go,350.0,200.0,1.0,,,,,,,,,magenta,circle
0.0,3.0,3.0,0.0,5.0,5.0,319.3655599998237,5.0,1.0,phase_2,go,350.0,200.0,1.0,,,,,,,,,orange,triangle
0.0,3.0,3.0,0.0,6.0,6.0,511.57466899985593,5.0,1.0,phase_2,go,350.0,200.0,1.0,,,,,,,,,orange,triangle
0.0,3.0,3.0,0.0,5.0,5.0,634.7710139998526,5.0,1.0,phase_2,go,350.0,200.0,1.0,,,,,,,,,orange,triangle
0.0,8.0,4.0,1.0,6.0,6.0,254.2481659993427,5.0,1.0,phase_2,stop,350.0,200.0,3.0,,,,,,,,,yellow,flipped triangle
0.0,5.0,1.0,1.0,5.0,5.0,348.2106749997911,5.0,1.0,phase_2,stop,350.0,150.0,3.0,,,,,,,,,blue,square
0.0,2.0,2.0,0.0,5.0,5.0,505.9491069996511,6.0,1.0,phase_2,go,300.0,150.0,1.0,,,,,,,,,green,cross
0.0,6.0,2.0,1.0,6.0,6.0,609.0462580004896,6.0,1.0,phase_2,stop,300.0,150.0,3.0,,,,,,,,,white,diamond
0.0,6.0,2.0,1.0,6.0,6.0,488.0357009997169,6.0,1.0,phase_2,stop,300.0,100.0,3.0,,,,,,,,,white,diamond
0.0,5.0,1.0,1.0,6.0,0.0,0.0,6.0,1.0,phase_2,stop,300.0,50.0,4.0,,,,,,,,,blue,square
0.0,3.0,3.0,0.0,5.0,5.0,425.7528710004408,6.0,1.0,phase_2,go,300.0,100.0,1.0,,,,,,,,,orange,triangle
0.0,6.0,2.0,1.0,6.0,0.0,0.0,6.0,1.0,phase_2,stop,300.0,100.0,4.0,,,,,,,,,white,diamond
0.0,3.0,3.0,0.0,6.0,6.0,544.7757100000672,6.0,1.0,phase_2,go,300.0,150.0,1.0,,,,,,,,,orange,triangle
0.0,6.0,2.0,1.0,5.0,0.0,0.0,6.0,1.0,phase_2,stop,300.0,150.0,4.0,,,,,,,,,white,diamond
0.0,5.0,1.0,1.0,6.0,0.0,0.0,6.0,1.0,phase_2,stop,350.0,150.0,4.0,,,,,,,,,blue,square
0.0,1.0,1.0,0.0,5.0,5.0,486.678657000084,6.0,1.0,phase_2,go,350.0,200.0,1.0,,,,,,,,,magenta,circle
0.0,2.0,2.0,0.0,6.0,6.0,389.0735020004285,6.0,1.0,phase_2,go,350.0,200.0,1.0,,,,,,,,,green,cross
0.0,8.0,4.0,1.0,6.0,6.0,316.4309840003625,6.0,1.0,phase_2,stop,350.0,200.0,3.0,,,,,,,,,yellow,flipped triangle
0.0,3.0,3.0,0.0,6.0,6.0,502.0798490004381,6.0,1.0,phase_2,go,350.0,150.0,1.0,,,,,,,,,orange,triangle
0.0,7.0,3.0,1.0,5.0,5.0,337.0909589993971,6.0,1.0,phase_2,stop,350.0,150.0,3.0,,,,,,,,,cyan,I
0.0,6.0,2.0,1.0,5.0,0.0,0.0,6.0,1.0,phase_2,stop,300.0,150.0,4.0,,,,,,,,,white,diamond
0.0,2.0,2.0,0.0,6.0,6.0,427.1732000006523,6.0,1.0,phase_2,go,350.0,150.0,1.0,,,,,,,,,green,cross
0.0,5.0,1.0,1.0,5.0,5.0,324.0180370003145,6.0,1.0,phase_2,stop,350.0,150.0,3.0,,,,,,,,,blue,square
0.0,3.0,3.0,0.0,6.0,6.0,284.202462000394,6.0,1.0,phase_2,go,300.0,150.0,1.0,,,,,,,,,orange,triangle
0.0,5.0,1.0,1.0,6.0,6.0,253.07797699952062,6.0,1.0,phase_2,stop,300.0,150.0,3.0,,,,,,,,,blue,square
0.0,4.0,4.0,0.0,5.0,5.0,600.1056819995938,6.0,1.0,phase_2,go,300.0,100.0,1.0,,,,,,,,,gray,hexagon
0.0,8.0,4.0,1.0,5.0,5.0,522.1998239994718,6.0,1.0,phase_2,go,300.0,100.0,1.0,,,,,,,,,yellow,flipped triangle
0.0,5.0,1.0,1.0,6.0,0.0,0.0,6.0,1.0,phase_2,stop,300.0,100.0,4.0,,,,,,,,,blue,square
0.0,6.0,2.0,1.0,5.0,5.0,437.4336490000132,6.0,1.0,phase_2,stop,300.0,150.0,3.0,,,,,,,,,white,diamond
0.0,2.0,2.0,0.0,5.0,5.0,494.0791560002253,6.0,1.0,phase_2,go,250.0,150.0,1.0,,,,,,,,,green,cross
0.0,7.0,3.0,1.0,6.0,6.0,323.886520999622,6.0,1.0,phase_2,go,250.0,150.0,1.0,,,,,,,,,cyan,I
0.0,8.0,4.0,1.0,6.0,6.0,321.8864379996375,6.0,1.0,phase_2,go,250.0,150.0,1.0,,,,,,,,,yellow,flipped triangle
0.0,1.0,1.0,0.0,6.0,6.0,319.0434729995104,6.0,1.0,phase_2,go,250.0,150.0,1.0,,,,,,,,,magenta,circle
0.0,7.0,3.0,1.0,6.0,6.0,564.3406580002193,6.0,1.0,phase_2,stop,250.0,150.0,3.0,,,,,,,,,cyan,I
0.0,4.0,4.0,0.0,6.0,6.0,786.0362100000202,6.0,1.0,phase_2,go,250.0,100.0,1.0,,,,,,,,,gray,hexagon
0.0,4.0,4.0,0.0,5.0,5.0,611.4007980004317,6.0,1.0,phase_2,go,250.0,100.0,1.0,,,,,,,,,gray,hexagon
0.0,5.0,1.0,1.0,5.0,5.0,658.2575020001968,6.0,1.0,phase_2,go,250.0,100.0,1.0,,,,,,,,,blue,square
0.0,4.0,4.0,0.0,5.0,5.0,679.3455930001073,6.0,1.0,phase_2,go,250.0,100.0,1.0,,,,,,,,,gray,hexagon
0.0,7.0,3.0,1.0,5.0,5.0,423.3269660007863,6.0,1.0,phase_2,go,250.0,100.0,1.0,,,,,,,,,cyan,I
0.0,4.0,4.0,0.0,6.0,6.0,288.6965819998295,6.0,1.0,phase_2,go,250.0,100.0,1.0,,,,,,,,,gray,hexagon
0.0,5.0,1.0,1.0,6.0,6.0,388.4178719999909,6.0,1.0,phase_2,stop,250.0,100.0,3.0,,,,,,,,,blue,square
0.0,4.0,4.0,0.0,5.0,5.0,225.1185159993838,6.0,1.0,phase_2,go,250.0,50.0,1.0,,,,,,,,,gray,hexagon
0.0,5.0,1.0,1.0,5.0,0.0,0.0,7.0,1.0,phase_2,stop,250.0,50.0,4.0,,,,,,,,,blue,square
0.0,1.0,1.0,0.0,5.0,5.0,391.2365590003901,7.0,1.0,phase_2,go,300.0,50.0,1.0,,,,,,,,,magenta,circle
0.0,5.0,1.0,1.0,5.0,5.0,258.4142340001563,7.0,1.0,phase_2,stop,300.0,50.0,3.0,,,,,,,,,blue,square
0.0,7.0,3.0,1.0,5.0,5.0,322.6083310000831,7.0,1.0,phase_2,stop,250.0,50.0,3.0,,,,,,,,,cyan,I
0.0,2.0,2.0,0.0,5.0,5.0,456.8094259993813,7.0,1.0,phase_2,go,200.0,50.0,1.0,,,,,,,,,green,cross
0.0,6.0,2.0,1.0,5.0,5.0,290.4686609999771,7.0,1.0,phase_2,stop,200.0,50.0,3.0,,,,,,,,,white,diamond
0.0,2.0,2.0,0.0,5.0,5.0,593.7491470003806,7.0,1.0,phase_2,go,150.0,50.0,1.0,,,,,,,,,green,cross
0.0,7.0,3.0,1.0,5.0,0.0,0.0,7.0,1.0,phase_2,stop,150.0,50.0,4.0,,,,,,,,,cyan,I
0.0,8.0,4.0,1.0,6.0,6.0,316.2852240002394,7.0,1.0,phase_2,go,200.0,50.0,1.0,,,,,,,,,yellow,flipped triangle
0.0,7.0,3.0,1.0,6.0,6.0,265.140512000471,7.0,1.0,phase_2,stop,200.0,50.0,3.0,,,,,,,,,cyan,I
0.0,1.0,1.0,0.0,6.0,6.0,307.7450589998989,7.0,1.0,phase_2,go,200.0,0.0,1.0,,,,,,,,,magenta,circle
0.0,4.0,4.0,0.0,6.0,6.0,324.7053430004598,7.0,1.0,phase_2,go,200.0,0.0,1.0,,,,,,,,,gray,hexagon
0.0,7.0,3.0,1.0,5.0,5.0,255.04891399941698,7.0,1.0,phase_2,go,200.0,0.0,1.0,,,,,,,,,cyan,I
0.0,4.0,4.0,0.0,6.0,6.0,260.2629160001015,7.0,1.0,phase_2,go,200.0,0.0,1.0,,,,,,,,,gray,hexagon
0.0,4.0,4.0,0.0,5.0,5.0,343.2297760000438,7.0,1.0,phase_2,go,200.0,0.0,1.0,,,,,,,,,gray,hexagon
0.0,1.0,1.0,0.0,5.0,5.0,292.4313729999994,7.0,1.0,phase_2,go,200.0,0.0,1.0,,,,,,,,,magenta,circle
0.0,1.0,1.0,0.0,5.0,5.0,487.4129660001927,7.0,1.0,phase_2,go,200.0,0.0,1.0,,,,,,,,,magenta,circle
0.0,1.0,1.0,0.0,6.0,6.0,222.0099079995634,7.0,1.0,phase_2,go,200.0,0.0,1.0,,,,,,,,,magenta,circle
0.0,5.0,1.0,1.0,6.0,0.0,0.0,7.0,1.0,phase_2,stop,200.0,0.0,4.0,,,,,,,,,blue,square
0.0,6.0,2.0,1.0,6.0,0.0,0.0,7.0,1.0,phase_2,stop,200.0,50.0,4.0,,,,,,,,,white,diamond
0.0,8.0,4.0,1.0,5.0,5.0,311.4800119992651,7.0,1.0,phase_2,go,200.0,100.0,1.0,,,,,,,,,yellow,flipped triangle
0.0,2.0,2.0,0.0,5.0,5.0,326.674961000208,7.0,1.0,phase_2,go,200.0,100.0,1.0,,,,,,,,,green,cross
0.0,4.0,4.0,0.0,6.0,6.0,326.1821819996839,7.0,1.0,phase_2,go,200.0,100.0,1.0,,,,,,,,,gray,hexagon
0.0,1.0,1.0,0.0,5.0,5.0,233.2578499999726,7.0,1.0,phase_2,go,200.0,100.0,1.0,,,,,,,,,magenta,circle
0.0,8.0,4.0,1.0,6.0,6.0,473.3864290001293,7.0,1.0,phase_2,stop,200.0,100.0,3.0,,,,,,,,,yellow,flipped triangle
0.0,1.0,1.0,0.0,6.0,6.0,342.4566860003324,7.0,1.0,phase_2,go,200.0,50.0,1.0,,,,,,,,,magenta,circle
0.0,4.0,4.0,0.0,6.0,6.0,333.9818409995132,7.0,1.0,phase_2,go,200.0,50.0,1.0,,,,,,,,,gray,hexagon
0.0,2.0,2.0,0.0,5.0,5.0,350.147633999768,7.0,1.0,phase_2,go,200.0,50.0,1.0,,,,,,,,,green,cross
0.0,5.0,1.0,1.0,5.0,5.0,376.3639870003317,7.0,1.0,phase_2,stop,200.0,50.0,3.0,,,,,,,,,blue,square
0.0,7.0,3.0,1.0,6.0,0.0,0.0,7.0,1.0,phase_2,stop,150.0,50.0,4.0,,,,,,,,,cyan,I
0.0,2.0,2.0,0.0,6.0,6.0,372.4286250007935,7.0,1.0,phase_2,go,150.0,100.0,1.0,,,,,,,,,green,cross
0.0,5.0,1.0,1.0,5.0,5.0,297.019134999573,7.0,1.0,phase_2,stop,150.0,100.0,3.0,,,,,,,,,blue,square
0.0,7.0,3.0,1.0,6.0,6.0,575.6745959997716,7.0,1.0,phase_2,go,100.0,100.0,1.0,,,,,,,,,cyan,I
0.0,6.0,2.0,1.0,6.0,6.0,443.2507719993737,7.0,1.0,phase_2,go,100.0,100.0,1.0,,,,,,,,,white,diamond
0.0,4.0,4.0,0.0,5.0,5.0,367.1430959993813,7.0,1.0,phase_2,go,100.0,100.0,1.0,,,,,,,,,gray,hexagon
0.0,7.0,3.0,1.0,5.0,0.0,0.0,7.0,1.0,phase_2,stop,100.0,100.0,4.0,,,,,,,,,cyan,I
0.0,2.0,2.0,0.0,6.0,6.0,668.2913240001653,8.0,1.0,phase_2,go,150.0,100.0,1.0,,,,,,,,,green,cross
0.0,6.0,2.0,1.0,5.0,0.0,0.0,8.0,1.0,phase_2,stop,150.0,100.0,4.0,,,,,,,,,white,diamond
0.0,2.0,2.0,0.0,6.0,6.0,326.7325099996014,8.0,1.0,phase_2,go,200.0,100.0,1.0,,,,,,,,,green,cross
0.0,1.0,1.0,0.0,6.0,6.0,330.6634730006408,8.0,1.0,phase_2,go,200.0,100.0,1.0,,,,,,,,,magenta,circle
0.0,3.0,3.0,0.0,6.0,6.0,302.9527449998568,8.0,1.0,phase_2,go,200.0,100.0,1.0,,,,,,,,,orange,triangle
0.0,3.0,3.0,0.0,5.0,5.0,284.415903000081,8.0,1.0,phase_2,go,200.0,100.0,1.0,,,,,,,,,orange,triangle
0.0,7.0,3.0,1.0,6.0,0.0,0.0,8.0,1.0,phase_2,stop,200.0,100.0,4.0,,,,,,,,,cyan,I
0.0,3.0,3.0,0.0,5.0,5.0,263.199158000134,8.0,1.0,phase_2,go,200.0,150.0,1.0,,,,,,,,,orange,triangle
0.0,4.0,4.0,0.0,5.0,5.0,300.7130589994631,8.0,1.0,phase_2,go,200.0,150.0,1.0,,,,,,,,,gray,hexagon
0.0,2.0,2.0,0.0,6.0,6.0,264.448474999881,8.0,1.0,phase_2,go,200.0,150.0,1.0,,,,,,,,,green,cross
0.0,6.0,2.0,1.0,5.0,5.0,239.392788999794,8.0,1.0,phase_2,stop,200.0,150.0,3.0,,,,,,,,,white,diamond
0.0,3.0,3.0,0.0,5.0,5.0,283.7296229999992,8.0,1.0,phase_2,go,150.0,150.0,1.0,,,,,,,,,orange,triangle
0.0,7.0,3.0,1.0,6.0,6.0,250.62060900017968,8.0,1.0,phase_2,go,150.0,150.0,1.0,,,,,,,,,cyan,I
0.0,3.0,3.0,0.0,6.0,6.0,283.9498989997082,8.0,1.0,phase_2,go,150.0,150.0,1.0,,,,,,,,,orange,triangle
0.0,5.0,1.0,1.0,5.0,5.0,262.5868579998496,8.0,1.0,phase_2,go,150.0,150.0,1.0,,,,,,,,,blue,square
0.0,5.0,1.0,1.0,5.0,5.0,263.0002389996662,8.0,1.0,phase_2,go,150.0,150.0,1.0,,,,,,,,,blue,square
0.0,7.0,3.0,1.0,5.0,5.0,313.8973649993204,8.0,1.0,phase_2,stop,150.0,150.0,3.0,,,,,,,,,cyan,I
0.0,1.0,1.0,0.0,5.0,5.0,430.3226360007102,8.0,1.0,phase_2,go,100.0,150.0,1.0,,,,,,,,,magenta,circle
0.0,8.0,4.0,1.0,5.0,0.0,0.0,8.0,1.0,phase_2,stop,100.0,150.0,4.0,,,,,,,,,yellow,flipped triangle
0.0,1.0,1.0,0.0,6.0,6.0,301.9774599997618,8.0,1.0,phase_2,go,150.0,150.0,1.0,,,,,,,,,magenta,circle
0.0,1.0,1.0,0.0,5.0,5.0,292.94326800027187,8.0,1.0,phase_2,go,150.0,150.0,1.0,,,,,,,,,magenta,circle
0.0,6.0,2.0,1.0,5.0,5.0,307.7334910003628,8.0,1.0,phase_2,go,150.0,150.0,1.0,,,,,,,,,white,diamond
0.0,6.0,2.0,1.0,5.0,5.0,253.8097699998616,8.0,1.0,phase_2,stop,150.0,150.0,3.0,,,,,,,,,white,diamond
0.0,4.0,4.0,0.0,6.0,6.0,310.4219460001332,8.0,1.0,phase_2,go,100.0,150.0,1.0,,,,,,,,,gray,hexagon
0.0,1.0,1.0,0.0,6.0,6.0,242.6784849994874,8.0,1.0,phase_2,go,100.0,150.0,1.0,,,,,,,,,magenta,circle
0.0,1.0,1.0,0.0,5.0,5.0,231.233283999245,8.0,1.0,phase_2,go,100.0,150.0,1.0,,,,,,,,,magenta,circle
0.0,7.0,3.0,1.0,5.0,5.0,321.1938730000838,8.0,1.0,phase_2,stop,100.0,150.0,3.0,,,,,,,,,cyan,I
0.0,8.0,4.0,1.0,5.0,0.0,0.0,8.0,1.0,phase_2,stop,50.0,150.0,4.0,,,,,,,,,yellow,flipped triangle
0.0,3.0,3.0,0.0,5.0,5.0,421.5565130007235,8.0,1.0,phase_2,go,100.0,150.0,1.0,,,,,,,,,orange,triangle
0.0,2.0,2.0,0.0,5.0,5.0,288.914740999644,8.0,1.0,phase_2,go,100.0,150.0,1.0,,,,,,,,,green,cross
0.0,5.0,1.0,1.0,6.0,6.0,290.5269409993707,8.0,1.0,phase_2,go,100.0,150.0,1.0,,,,,,,,,blue,square
0.0,3.0,3.0,0.0,6.0,6.0,252.96708699988812,8.0,1.0,phase_2,go,100.0,150.0,1.0,,,,,,,,,orange,triangle
0.0,5.0,1.0,1.0,5.0,5.0,283.1967249994704,8.0,1.0,phase_2,stop,100.0,150.0,3.0,,,,,,,,,blue,square
0.0,5.0,1.0,1.0,6.0,6.0,309.5003959997484,8.0,1.0,phase_2,stop,50.0,150.0,3.0,,,,,,,,,blue,square
0.0,3.0,3.0,0.0,5.0,5.0,276.8115279995982,8.0,1.0,phase_2,go,50.0,100.0,1.0,,,,,,,,,orange,triangle
0.0,6.0,2.0,1.0,5.0,0.0,0.0,8.0,1.0,phase_2,stop,50.0,100.0,4.0,,,,,,,,,white,diamond
0.0,8.0,4.0,1.0,7.0,2.0,3495.466143000158,1.0,1.0,phase_3,,,,,132.0,3.0,88.0,132.0,44.0,264.0,220.0,176.0,yellow,flipped triangle
0.0,8.0,4.0,1.0,7.0,5.0,2035.3583890000664,1.0,1.0,phase_3,,,,,220.0,5.0,44.0,132.0,176.0,88.0,220.0,264.0,yellow,flipped triangle
0.0,4.0,4.0,0.0,7.0,6.0,2593.370665999828,1.0,1.0,phase_3,,,,,195.0,5.0,39.0,78.0,234.0,156.0,117.0,195.0,gray,hexagon
0.0,2.0,2.0,0.0,7.0,1.0,1872.6931780001903,1.0,1.0,phase_3,,,,,108.0,2.0,108.0,54.0,216.0,324.0,270.0,162.0,green,cross
0.0,3.0,3.0,0.0,7.0,4.0,2175.1527040005385,1.0,1.0,phase_3,,,,,162.0,3.0,108.0,324.0,270.0,162.0,54.0,216.0,orange,triangle
0.0,5.0,1.0,1.0,7.0,5.0,1689.7048669998185,1.0,1.0,phase_3,,,,,220.0,5.0,264.0,44.0,176.0,132.0,220.0,88.0,blue,square
0.0,1.0,1.0,0.0,7.0,2.0,1139.0967639999872,1.0,1.0,phase_3,,,,,132.0,3.0,44.0,132.0,88.0,264.0,220.0,176.0,magenta,circle
0.0,6.0,2.0,1.0,7.0,1.0,1461.3539020001554,1.0,1.0,phase_3,,,,,39.0,1.0,39.0,117.0,195.0,156.0,234.0,78.0,white,diamond
0.0,1.0,1.0,0.0,7.0,5.0,1998.7841290003416,1.0,1.0,phase_3,,,,,98.0,2.0,147.0,49.0,245.0,294.0,98.0,196.0,magenta,circle
0.0,6.0,2.0,1.0,7.0,3.0,1026.665083999433,1.0,1.0,phase_3,,,,,102.0,3.0,136.0,204.0,102.0,170.0,34.0,68.0,white,diamond
0.0,8.0,4.0,1.0,7.0,4.0,1820.436379000057,1.0,1.0,phase_3,,,,,156.0,4.0,39.0,78.0,117.0,156.0,234.0,195.0,yellow,flipped triangle
0.0,4.0,4.0,0.0,7.0,5.0,1747.5512549999619,1.0,1.0,phase_3,,,,,68.0,2.0,136.0,34.0,102.0,204.0,68.0,170.0,gray,hexagon
0.0,3.0,3.0,0.0,7.0,2.0,1691.740473000209,1.0,1.0,phase_3,,,,,270.0,5.0,216.0,270.0,162.0,54.0,108.0,324.0,orange,triangle
0.0,2.0,2.0,0.0,7.0,1.0,1201.8862719996832,1.0,1.0,phase_3,,,,,136.0,4.0,136.0,204.0,102.0,170.0,34.0,68.0,green,cross
0.0,1.0,1.0,0.0,7.0,5.0,1687.175371999729,1.0,1.0,phase_3,,,,,102.0,3.0,136.0,204.0,170.0,68.0,102.0,34.0,magenta,circle
0.0,3.0,3.0,0.0,7.0,6.0,1018.2950979997258,1.0,1.0,phase_3,,,,,156.0,4.0,78.0,234.0,195.0,117.0,39.0,156.0,orange,triangle
0.0,5.0,1.0,1.0,7.0,3.0,1504.2577289996188,1.0,1.0,phase_3,,,,,204.0,6.0,102.0,68.0,204.0,136.0,34.0,170.0,blue,square
0.0,6.0,2.0,1.0,7.0,5.0,1304.8693420005293,1.0,1.0,phase_3,,,,,54.0,1.0,270.0,324.0,162.0,216.0,54.0,108.0,white,diamond
0.0,6.0,2.0,1.0,7.0,2.0,1566.511530999378,1.0,1.0,phase_3,,,,,324.0,6.0,108.0,324.0,216.0,54.0,162.0,270.0,white,diamond
0.0,3.0,3.0,0.0,7.0,3.0,1489.623862999906,1.0,1.0,phase_3,,,,,117.0,3.0,195.0,156.0,117.0,234.0,78.0,39.0,orange,triangle
0.0,8.0,4.0,1.0,7.0,5.0,1748.1686040000568,2.0,1.0,phase_3,,,,,162.0,3.0,54.0,216.0,270.0,324.0,162.0,108.0,yellow,flipped triangle
0.0,8.0,4.0,1.0,7.0,1.0,1475.2464650000547,2.0,1.0,phase_3,,,,,170.0,5.0,170.0,204.0,68.0,136.0,102.0,34.0,yellow,flipped triangle
0.0,7.0,3.0,1.0,7.0,2.0,2142.288338999606,2.0,1.0,phase_3,,,,,220.0,5.0,44.0,220.0,264.0,132.0,88.0,176.0,cyan,I
0.0,2.0,2.0,0.0,7.0,4.0,1163.224480000281,2.0,1.0,phase_3,,,,,78.0,2.0,234.0,39.0,117.0,78.0,195.0,156.0,green,cross
0.0,5.0,1.0,1.0,7.0,5.0,1777.835775999847,2.0,1.0,phase_3,,,,,170.0,5.0,204.0,34.0,136.0,102.0,170.0,68.0,blue,square
0.0,7.0,3.0,1.0,7.0,3.0,1351.3680709993423,2.0,1.0,phase_3,,,,,147.0,3.0,49.0,196.0,147.0,98.0,294.0,245.0,cyan,I
0.0,8.0,4.0,1.0,7.0,4.0,1530.5153859999336,2.0,1.0,phase_3,,,,,195.0,5.0,78.0,234.0,156.0,195.0,117.0,39.0,yellow,flipped triangle
0.0,2.0,2.0,0.0,7.0,5.0,1599.2585129997678,2.0,1.0,phase_3,,,,,39.0,1.0,117.0,234.0,78.0,156.0,39.0,195.0,green,cross
0.0,5.0,1.0,1.0,7.0,1.0,1362.607038000533,2.0,1.0,phase_3,,,,,49.0,1.0,49.0,245.0,196.0,98.0,294.0,147.0,blue,square
0.0,2.0,2.0,0.0,7.0,2.0,1202.821968000535,2.0,1.0,phase_3,,,,,220.0,5.0,264.0,220.0,132.0,176.0,88.0,44.0,green,cross
0.0,3.0,3.0,0.0,7.0,4.0,1409.0621630002715,2.0,1.0,phase_3,,,,,44.0,1.0,220.0,264.0,176.0,44.0,132.0,88.0,orange,triangle
0.0,5.0,1.0,1.0,7.0,2.0,1301.3211540001066,2.0,1.0,phase_3,,,,,156.0,4.0,234.0,156.0,39.0,78.0,117.0,195.0,blue,square
0.0,7.0,3.0,1.0,7.0,5.0,1246.7343709995475,2.0,1.0,phase_3,,,,,195.0,5.0,156.0,234.0,78.0,39.0,195.0,117.0,cyan,I
0.0,2.0,2.0,0.0,7.0,3.0,1246.3672739995673,2.0,1.0,phase_3,,,,,270.0,5.0,162.0,54.0,270.0,324.0,216.0,108.0,green,cross
0.0,7.0,3.0,1.0,7.0,6.0,1209.7587079997538,2.0,1.0,phase_3,,,,,270.0,5.0,216.0,324.0,108.0,54.0,162.0,270.0,cyan,I
0.0,1.0,1.0,0.0,7.0,2.0,1074.5591619997867,2.0,1.0,phase_3,,,,,204.0,6.0,34.0,204.0,102.0,170.0,136.0,68.0,magenta,circle
0.0,1.0,1.0,0.0,7.0,5.0,1793.953992000752,2.0,1.0,phase_3,,,,,245.0,5.0,196.0,294.0,49.0,147.0,245.0,98.0,magenta,circle
0.0,5.0,1.0,1.0,7.0,3.0,2094.475894000425,2.0,1.0,phase_3,,,,,234.0,6.0,156.0,195.0,234.0,78.0,39.0,117.0,blue,square
0.0,6.0,2.0,1.0,7.0,6.0,1137.341503999778,2.0,1.0,phase_3,,,,,39.0,1.0,195.0,78.0,117.0,234.0,156.0,39.0,white,diamond
0.0,4.0,4.0,0.0,7.0,3.0,1397.5306049997016,2.0,1.0,phase_3,,,,,34.0,1.0,136.0,102.0,34.0,204.0,68.0,170.0,gray,hexagon
0.0,1.0,1.0,0.0,7.0,3.0,1696.3844330002755,3.0,1.0,phase_3,,,,,78.0,2.0,195.0,39.0,78.0,156.0,234.0,117.0,magenta,circle
0.0,3.0,3.0,0.0,7.0,4.0,1545.724206000159,3.0,1.0,phase_3,,,,,196.0,4.0,147.0,245.0,294.0,196.0,49.0,98.0,orange,triangle
0.0,7.0,3.0,1.0,7.0,2.0,1428.1944829999702,3.0,1.0,phase_3,,,,,324.0,6.0,216.0,324.0,270.0,162.0,108.0,54.0,cyan,I
0.0,8.0,4.0,1.0,7.0,6.0,1641.0377780002818,3.0,1.0,phase_3,,,,,170.0,5.0,136.0,68.0,204.0,102.0,34.0,170.0,yellow,flipped triangle
0.0,7.0,3.0,1.0,7.0,4.0,1156.280751999475,3.0,1.0,phase_3,,,,,234.0,6.0,78.0,39.0,117.0,234.0,195.0,156.0,cyan,I
0.0,4.0,4.0,0.0,7.0,3.0,1298.2099159999052,3.0,1.0,phase_3,,,,,54.0,1.0,108.0,270.0,54.0,324.0,216.0,162.0,gray,hexagon
0.0,6.0,2.0,1.0,7.0,4.0,1212.9018440000436,3.0,1.0,phase_3,,,,,49.0,1.0,147.0,196.0,98.0,49.0,245.0,294.0,white,diamond
0.0,4.0,4.0,0.0,7.0,2.0,1175.139027000114,3.0,1.0,phase_3,,,,,44.0,1.0,132.0,44.0,264.0,176.0,88.0,220.0,gray,hexagon
0.0,4.0,4.0,0.0,7.0,5.0,1260.820299000443,3.0,1.0,phase_3,,,,,88.0,2.0,44.0,176.0,264.0,132.0,88.0,220.0,gray,hexagon
0.0,7.0,3.0,1.0,7.0,1.0,1654.6599650000644,3.0,1.0,phase_3,,,,,176.0,4.0,176.0,264.0,88.0,132.0,44.0,220.0,cyan,I
0.0,7.0,3.0,1.0,7.0,4.0,1793.55669799952,3.0,1.0,phase_3,,,,,170.0,5.0,102.0,204.0,68.0,170.0,34.0,136.0,cyan,I
0.0,5.0,1.0,1.0,7.0,3.0,1970.879294000042,3.0,1.0,phase_3,,,,,245.0,5.0,49.0,294.0,245.0,196.0,98.0,147.0,blue,square
0.0,4.0,4.0,0.0,7.0,6.0,1473.2313470003646,3.0,1.0,phase_3,,,,,98.0,2.0,245.0,196.0,49.0,147.0,294.0,98.0,gray,hexagon
0.0,6.0,2.0,1.0,7.0,3.0,1331.187554999815,3.0,1.0,phase_3,,,,,49.0,1.0,98.0,147.0,49.0,196.0,245.0,294.0,white,diamond
0.0,1.0,1.0,0.0,7.0,4.0,1623.9194839999982,3.0,1.0,phase_3,,,,,220.0,5.0,132.0,88.0,44.0,220.0,264.0,176.0,magenta,circle
0.0,6.0,2.0,1.0,7.0,1.0,1190.6179030002022,3.0,1.0,phase_3,,,,,132.0,3.0,132.0,44.0,220.0,176.0,88.0,264.0,white,diamond
0.0,3.0,3.0,0.0,7.0,4.0,1399.8913089999403,3.0,1.0,phase_3,,,,,294.0,6.0,147.0,196.0,245.0,294.0,49.0,98.0,orange,triangle
0.0,4.0,4.0,0.0,7.0,5.0,1147.1487680000791,3.0,1.0,phase_3,,,,,270.0,5.0,216.0,108.0,324.0,162.0,270.0,54.0,gray,hexagon
0.0,3.0,3.0,0.0,7.0,2.0,1196.005828000125,3.0,1.0,phase_3,,,,,136.0,4.0,102.0,136.0,204.0,170.0,68.0,34.0,orange,triangle
0.0,6.0,2.0,1.0,7.0,6.0,1085.8196899998802,3.0,1.0,phase_3,,,,,136.0,4.0,170.0,102.0,204.0,34.0,68.0,136.0,white,diamond
0.0,8.0,4.0,1.0,7.0,3.0,1388.6719829997674,4.0,1.0,phase_3,,,,,196.0,4.0,98.0,294.0,196.0,147.0,49.0,245.0,yellow,flipped triangle
0.0,8.0,4.0,1.0,7.0,3.0,1114.8343989998466,4.0,1.0,phase_3,,,,,196.0,4.0,49.0,98.0,196.0,294.0,245.0,147.0,yellow,flipped triangle
0.0,5.0,1.0,1.0,7.0,4.0,1612.8911010000593,4.0,1.0,phase_3,,,,,324.0,6.0,54.0,270.0,162.0,324.0,216.0,108.0,blue,square
0.0,2.0,2.0,0.0,7.0,1.0,1722.9077769998185,4.0,1.0,phase_3,,,,,204.0,6.0,204.0,170.0,136.0,34.0,68.0,102.0,green,cross
0.0,1.0,1.0,0.0,7.0,5.0,2135.3276840000035,4.0,1.0,phase_3,,,,,234.0,6.0,195.0,156.0,39.0,78.0,234.0,117.0,magenta,circle
0.0,7.0,3.0,1.0,7.0,6.0,1326.967459000116,4.0,1.0,phase_3,,,,,147.0,3.0,294.0,245.0,49.0,196.0,98.0,147.0,cyan,I
0.0,3.0,3.0,0.0,7.0,2.0,1167.85318500024,4.0,1.0,phase_3,,,,,220.0,5.0,264.0,220.0,176.0,44.0,132.0,88.0,orange,triangle
0.0,2.0,2.0,0.0,7.0,4.0,1429.7191059995384,4.0,1.0,phase_3,,,,,264.0,6.0,88.0,132.0,176.0,264.0,220.0,44.0,green,cross
0.0,5.0,1.0,1.0,7.0,1.0,1044.9535890002153,4.0,1.0,phase_3,,,,,132.0,3.0,132.0,88.0,220.0,176.0,264.0,44.0,blue,square
0.0,7.0,3.0,1.0,7.0,5.0,1143.066244000693,4.0,1.0,phase_3,,,,,204.0,6.0,102.0,170.0,34.0,136.0,204.0,68.0,cyan,I
0.0,1.0,1.0,0.0,7.0,5.0,1324.110561999987,4.0,1.0,phase_3,,,,,270.0,5.0,324.0,162.0,54.0,108.0,270.0,216.0,magenta,circle
0.0,4.0,4.0,0.0,7.0,3.0,1488.1056390004233,4.0,1.0,phase_3,,,,,78.0,2.0,234.0,156.0,78.0,117.0,39.0,195.0,gray,hexagon
0.0,6.0,2.0,1.0,7.0,4.0,1881.6130949999208,4.0,1.0,phase_3,,,,,220.0,5.0,176.0,44.0,132.0,220.0,88.0,264.0,white,diamond
0.0,2.0,2.0,0.0,7.0,5.0,1290.013306000219,4.0,1.0,phase_3,,,,,49.0,1.0,147.0,196.0,98.0,245.0,49.0,294.0,green,cross
0.0,5.0,1.0,1.0,7.0,2.0,1376.790266000171,4.0,1.0,phase_3,,,,,108.0,2.0,54.0,108.0,216.0,324.0,270.0,162.0,blue,square
0.0,1.0,1.0,0.0,7.0,6.0,1411.137905999567,4.0,1.0,phase_3,,,,,108.0,2.0,162.0,54.0,324.0,216.0,270.0,108.0,magenta,circle
0.0,3.0,3.0,0.0,7.0,2.0,1030.7290490000014,4.0,1.0,phase_3,,,,,170.0,5.0,102.0,170.0,136.0,204.0,68.0,34.0,orange,triangle
0.0,4.0,4.0,0.0,7.0,1.0,1451.3728559995798,4.0,1.0,phase_3,,,,,49.0,1.0,49.0,294.0,98.0,245.0,196.0,147.0,gray,hexagon
0.0,2.0,2.0,0.0,7.0,5.0,1403.303825999501,4.0,1.0,phase_3,,,,,294.0,6.0,147.0,245.0,196.0,49.0,294.0,98.0,green,cross
0.0,8.0,4.0,1.0,7.0,3.0,1109.882335000293,4.0,1.0,phase_3,,,,,324.0,6.0,162.0,216.0,324.0,270.0,54.0,108.0,yellow,flipped triangle
