raw_reward_magnitude,stim_reward,stepwise_reward_magnitude,paired_with_stopping,quadrant,response,reaction_time,block,num_trial_presentations,which_part,stop_signal_trial_type,left_SSD,right_SSD,accuracy,chosen_bidding_amount,chosen_bidding_level,possible_bid_1,possible_bid_2,possible_bid_3,possible_bid_4,possible_bid_5,possible_bid_6,color_text,shape_text
79.0,6.0,2.0,1.0,1.0,1.0,327.9027579999365,1.0,1.0,part_1,,,,,,,,,,,,,gray,flipped triangle
401.0,8.0,4.0,1.0,3.0,3.0,398.1291479999527,1.0,1.0,part_1,,,,,,,,,,,,,blue,circle
49.0,1.0,1.0,0.0,3.0,3.0,336.8060410000453,1.0,1.0,part_1,,,,,,,,,,,,,orange,square
79.0,6.0,2.0,1.0,2.0,2.0,273.7133820000963,1.0,1.0,part_1,,,,,,,,,,,,,gray,flipped triangle
186.0,7.0,3.0,1.0,1.0,1.0,402.4086910001188,1.0,1.0,part_1,,,,,,,,,,,,,yellow,cross
101.0,2.0,2.0,0.0,3.0,3.0,301.1335510000208,1.0,1.0,part_1,,,,,,,,,,,,,cyan,diamond
0.0,8.0,0.0,1.0,1.0,1.0,367.6829969999744,1.0,1.0,part_1,,,,,,,,,,,,,blue,circle
84.0,6.0,2.0,1.0,2.0,2.0,330.0909020001654,1.0,1.0,part_1,,,,,,,,,,,,,gray,flipped triangle
117.0,2.0,2.0,0.0,1.0,1.0,304.789459000176,1.0,1.0,part_1,,,,,,,,,,,,,cyan,diamond
0.0,1.0,0.0,0.0,2.0,2.0,425.8318479999161,1.0,1.0,part_1,,,,,,,,,,,,,orange,square
95.0,2.0,2.0,0.0,4.0,4.0,234.7955759998967,1.0,1.0,part_1,,,,,,,,,,,,,cyan,diamond
216.0,7.0,3.0,1.0,3.0,3.0,283.4421919999386,1.0,1.0,part_1,,,,,,,,,,,,,yellow,cross
79.0,2.0,2.0,0.0,1.0,1.0,293.6314159999256,1.0,1.0,part_1,,,,,,,,,,,,,cyan,diamond
182.0,7.0,3.0,1.0,1.0,1.0,297.2126810000191,1.0,1.0,part_1,,,,,,,,,,,,,yellow,cross
118.0,6.0,2.0,1.0,1.0,1.0,313.4899789999963,1.0,1.0,part_1,,,,,,,,,,,,,gray,flipped triangle
0.0,8.0,0.0,1.0,4.0,4.0,418.4815300000082,1.0,1.0,part_1,,,,,,,,,,,,,blue,circle
98.0,2.0,2.0,0.0,2.0,2.0,402.0594280000296,1.0,1.0,part_1,,,,,,,,,,,,,cyan,diamond
86.0,6.0,2.0,1.0,3.0,3.0,282.0418510000309,1.0,1.0,part_1,,,,,,,,,,,,,gray,flipped triangle
0.0,8.0,0.0,1.0,1.0,1.0,262.8166119998241,1.0,1.0,part_1,,,,,,,,,,,,,blue,circle
68.0,1.0,1.0,0.0,4.0,4.0,253.76025300010951,1.0,1.0,part_1,,,,,,,,,,,,,orange,square
92.0,6.0,2.0,1.0,4.0,4.0,348.7230269997781,1.0,1.0,part_1,,,,,,,,,,,,,gray,flipped triangle
379.0,8.0,4.0,1.0,1.0,1.0,299.3955770000411,1.0,1.0,part_1,,,,,,,,,,,,,blue,circle
224.0,3.0,3.0,0.0,1.0,1.0,286.7750319999231,1.0,1.0,part_1,,,,,,,,,,,,,green,triangle
95.0,6.0,2.0,1.0,4.0,4.0,273.3197470001869,1.0,1.0,part_1,,,,,,,,,,,,,gray,flipped triangle
82.0,2.0,2.0,0.0,4.0,4.0,361.4229489999161,1.0,2.0,part_1,,,,,,,,,,,,,cyan,diamond
99.0,2.0,2.0,0.0,4.0,4.0,310.3800940000383,1.0,1.0,part_1,,,,,,,,,,,,,cyan,diamond
0.0,2.0,0.0,0.0,3.0,3.0,305.961113999956,1.0,1.0,part_1,,,,,,,,,,,,,cyan,diamond
196.0,7.0,3.0,1.0,2.0,2.0,242.7815789999385,1.0,1.0,part_1,,,,,,,,,,,,,yellow,cross
409.0,4.0,4.0,0.0,2.0,2.0,288.9464410000073,1.0,1.0,part_1,,,,,,,,,,,,,white,I
40.0,5.0,1.0,1.0,2.0,2.0,266.7080090000127,1.0,1.0,part_1,,,,,,,,,,,,,magenta,hexagon
98.0,6.0,2.0,1.0,3.0,3.0,281.1009750000721,1.0,1.0,part_1,,,,,,,,,,,,,gray,flipped triangle
66.0,1.0,1.0,0.0,2.0,2.0,300.6466799999998,1.0,1.0,part_1,,,,,,,,,,,,,orange,square
100.0,6.0,2.0,1.0,1.0,1.0,355.1109770000948,1.0,2.0,part_1,,,,,,,,,,,,,gray,flipped triangle
56.0,1.0,1.0,0.0,4.0,4.0,353.9246650000223,1.0,2.0,part_1,,,,,,,,,,,,,orange,square
86.0,2.0,2.0,0.0,3.0,3.0,346.6600610001933,1.0,1.0,part_1,,,,,,,,,,,,,cyan,diamond
52.0,5.0,1.0,1.0,1.0,1.0,391.4626480000152,1.0,1.0,part_1,,,,,,,,,,,,,magenta,hexagon
187.0,3.0,3.0,0.0,4.0,4.0,433.7143210000249,1.0,1.0,part_1,,,,,,,,,,,,,green,triangle
422.0,4.0,4.0,0.0,4.0,4.0,394.2714810000325,1.0,1.0,part_1,,,,,,,,,,,,,white,I
412.0,8.0,4.0,1.0,1.0,1.0,302.6421069998832,1.0,1.0,part_1,,,,,,,,,,,,,blue,circle
185.0,7.0,3.0,1.0,1.0,1.0,590.3700740000204,1.0,1.0,part_1,,,,,,,,,,,,,yellow,cross
110.0,6.0,2.0,1.0,2.0,2.0,346.5981250001277,1.0,1.0,part_1,,,,,,,,,,,,,gray,flipped triangle
383.0,4.0,4.0,0.0,2.0,2.0,351.3428960000055,1.0,1.0,part_1,,,,,,,,,,,,,white,I
48.0,1.0,1.0,0.0,2.0,2.0,319.9332440001399,1.0,1.0,part_1,,,,,,,,,,,,,orange,square
0.0,6.0,0.0,1.0,4.0,4.0,355.1359639998281,1.0,1.0,part_1,,,,,,,,,,,,,gray,flipped triangle
0.0,5.0,0.0,1.0,2.0,2.0,332.3422429998572,1.0,1.0,part_1,,,,,,,,,,,,,magenta,hexagon
0.0,3.0,0.0,0.0,2.0,2.0,287.0245870001326,1.0,1.0,part_1,,,,,,,,,,,,,green,triangle
402.0,4.0,4.0,0.0,3.0,3.0,427.381306999905,1.0,1.0,part_1,,,,,,,,,,,,,white,I
49.0,5.0,1.0,1.0,4.0,4.0,375.7990980000159,1.0,1.0,part_1,,,,,,,,,,,,,magenta,hexagon
0.0,1.0,0.0,0.0,1.0,1.0,323.0462910000824,1.0,1.0,part_1,,,,,,,,,,,,,orange,square
209.0,7.0,3.0,1.0,1.0,1.0,592.580395999903,1.0,1.0,part_1,,,,,,,,,,,,,yellow,cross
0.0,2.0,0.0,0.0,4.0,4.0,425.4252999999153,1.0,1.0,part_1,,,,,,,,,,,,,cyan,diamond
90.0,6.0,2.0,1.0,4.0,4.0,408.7693720000516,1.0,1.0,part_1,,,,,,,,,,,,,gray,flipped triangle
197.0,7.0,3.0,1.0,1.0,1.0,394.2509419998714,1.0,1.0,part_1,,,,,,,,,,,,,yellow,cross
200.0,7.0,3.0,1.0,3.0,3.0,325.289673999805,1.0,1.0,part_1,,,,,,,,,,,,,yellow,cross
120.0,6.0,2.0,1.0,1.0,1.0,362.3448010000629,1.0,1.0,part_1,,,,,,,,,,,,,gray,flipped triangle
70.0,5.0,1.0,1.0,3.0,3.0,362.5714770000741,1.0,1.0,part_1,,,,,,,,,,,,,magenta,hexagon
0.0,3.0,0.0,0.0,1.0,1.0,362.7017100000103,1.0,1.0,part_1,,,,,,,,,,,,,green,triangle
211.0,7.0,3.0,1.0,2.0,2.0,262.1529460000147,1.0,1.0,part_1,,,,,,,,,,,,,yellow,cross
110.0,6.0,2.0,1.0,3.0,3.0,645.9539689999474,1.0,1.0,part_1,,,,,,,,,,,,,gray,flipped triangle
42.0,1.0,1.0,0.0,1.0,1.0,305.1434700000754,1.0,1.0,part_1,,,,,,,,,,,,,orange,square
412.0,8.0,4.0,1.0,4.0,4.0,409.960933000093,1.0,1.0,part_1,,,,,,,,,,,,,blue,circle
421.0,8.0,4.0,1.0,4.0,4.0,377.9228620001049,1.0,1.0,part_1,,,,,,,,,,,,,blue,circle
0.0,6.0,0.0,1.0,3.0,3.0,376.1194090000117,1.0,1.0,part_1,,,,,,,,,,,,,gray,flipped triangle
88.0,6.0,2.0,1.0,3.0,3.0,379.3473599998833,1.0,1.0,part_1,,,,,,,,,,,,,gray,flipped triangle
0.0,7.0,0.0,1.0,4.0,4.0,391.4157019999038,1.0,1.0,part_1,,,,,,,,,,,,,yellow,cross
79.0,2.0,2.0,0.0,3.0,3.0,304.3592300000455,1.0,1.0,part_1,,,,,,,,,,,,,cyan,diamond
111.0,6.0,2.0,1.0,3.0,3.0,403.6423379998268,1.0,1.0,part_1,,,,,,,,,,,,,gray,flipped triangle
34.0,1.0,1.0,0.0,4.0,4.0,336.6623929998695,1.0,1.0,part_1,,,,,,,,,,,,,orange,square
390.0,4.0,4.0,0.0,2.0,2.0,537.8899740001089,1.0,1.0,part_1,,,,,,,,,,,,,white,I
200.0,7.0,3.0,1.0,1.0,1.0,338.1716169999436,1.0,1.0,part_1,,,,,,,,,,,,,yellow,cross
409.0,4.0,4.0,0.0,2.0,2.0,374.496241000088,1.0,1.0,part_1,,,,,,,,,,,,,white,I
409.0,4.0,4.0,0.0,1.0,1.0,277.9032759999609,1.0,1.0,part_1,,,,,,,,,,,,,white,I
389.0,8.0,4.0,1.0,4.0,4.0,334.3524120000438,1.0,1.0,part_1,,,,,,,,,,,,,blue,circle
0.0,7.0,0.0,1.0,2.0,2.0,386.5767869999672,1.0,1.0,part_1,,,,,,,,,,,,,yellow,cross
120.0,6.0,2.0,1.0,2.0,2.0,300.4025910001928,1.0,1.0,part_1,,,,,,,,,,,,,gray,flipped triangle
91.0,6.0,2.0,1.0,2.0,2.0,336.0028029999284,1.0,1.0,part_1,,,,,,,,,,,,,gray,flipped triangle
120.0,6.0,2.0,1.0,1.0,1.0,305.3050910000365,1.0,1.0,part_1,,,,,,,,,,,,,gray,flipped triangle
0.0,5.0,0.0,1.0,3.0,3.0,284.0144300000702,1.0,1.0,part_1,,,,,,,,,,,,,magenta,hexagon
204.0,3.0,3.0,0.0,3.0,3.0,500.78979599993545,1.0,2.0,part_1,,,,,,,,,,,,,green,triangle
380.0,8.0,4.0,1.0,4.0,4.0,350.0860839999404,1.0,1.0,part_1,,,,,,,,,,,,,blue,circle
183.0,7.0,3.0,1.0,4.0,4.0,343.136548000075,1.0,1.0,part_1,,,,,,,,,,,,,yellow,cross
384.0,4.0,4.0,0.0,1.0,1.0,303.0763820001994,1.0,1.0,part_1,,,,,,,,,,,,,white,I
197.0,7.0,3.0,1.0,3.0,3.0,322.2626540000419,1.0,1.0,part_1,,,,,,,,,,,,,yellow,cross
35.0,1.0,1.0,0.0,3.0,3.0,399.8366030000397,1.0,1.0,part_1,,,,,,,,,,,,,orange,square
84.0,6.0,2.0,1.0,4.0,4.0,405.9356860000207,1.0,1.0,part_1,,,,,,,,,,,,,gray,flipped triangle
404.0,4.0,4.0,0.0,3.0,3.0,362.1088400000189,1.0,1.0,part_1,,,,,,,,,,,,,white,I
99.0,6.0,2.0,1.0,4.0,4.0,269.3916440000521,1.0,1.0,part_1,,,,,,,,,,,,,gray,flipped triangle
108.0,2.0,2.0,0.0,4.0,4.0,285.9993629999735,1.0,1.0,part_1,,,,,,,,,,,,,cyan,diamond
196.0,3.0,3.0,0.0,4.0,4.0,288.1788999998207,1.0,1.0,part_1,,,,,,,,,,,,,green,triangle
52.0,1.0,1.0,0.0,1.0,1.0,387.1771770000123,1.0,1.0,part_1,,,,,,,,,,,,,orange,square
187.0,3.0,3.0,0.0,1.0,1.0,320.6824899998537,1.0,1.0,part_1,,,,,,,,,,,,,green,triangle
0.0,7.0,0.0,1.0,2.0,2.0,326.7635359998166,1.0,1.0,part_1,,,,,,,,,,,,,yellow,cross
0.0,3.0,0.0,0.0,4.0,4.0,362.4729329999354,1.0,1.0,part_1,,,,,,,,,,,,,green,triangle
0.0,7.0,0.0,1.0,4.0,4.0,343.3869180000783,1.0,1.0,part_1,,,,,,,,,,,,,yellow,cross
216.0,3.0,3.0,0.0,4.0,4.0,286.5298940000684,1.0,1.0,part_1,,,,,,,,,,,,,green,triangle
60.0,1.0,1.0,0.0,2.0,2.0,311.0749109998778,1.0,1.0,part_1,,,,,,,,,,,,,orange,square
389.0,4.0,4.0,0.0,3.0,3.0,330.1083750000089,1.0,1.0,part_1,,,,,,,,,,,,,white,I
187.0,7.0,3.0,1.0,4.0,4.0,530.360107999968,1.0,2.0,part_1,,,,,,,,,,,,,yellow,cross
183.0,3.0,3.0,0.0,4.0,4.0,418.5676339998281,1.0,1.0,part_1,,,,,,,,,,,,,green,triangle
0.0,2.0,0.0,0.0,3.0,3.0,548.8161079999827,1.0,1.0,part_1,,,,,,,,,,,,,cyan,diamond
111.0,6.0,2.0,1.0,2.0,2.0,339.7041190000891,2.0,1.0,part_1,,,,,,,,,,,,,gray,flipped triangle
201.0,7.0,3.0,1.0,3.0,3.0,381.4675179999085,2.0,1.0,part_1,,,,,,,,,,,,,yellow,cross
120.0,2.0,2.0,0.0,2.0,2.0,425.3182819998073,2.0,1.0,part_1,,,,,,,,,,,,,cyan,diamond
118.0,2.0,2.0,0.0,1.0,1.0,339.5920189998378,2.0,1.0,part_1,,,,,,,,,,,,,cyan,diamond
179.0,3.0,3.0,0.0,2.0,2.0,322.7336420000029,2.0,1.0,part_1,,,,,,,,,,,,,green,triangle
218.0,7.0,3.0,1.0,3.0,3.0,327.9484009999578,2.0,1.0,part_1,,,,,,,,,,,,,yellow,cross
413.0,4.0,4.0,0.0,1.0,1.0,285.982494999871,2.0,1.0,part_1,,,,,,,,,,,,,white,I
101.0,6.0,2.0,1.0,4.0,4.0,333.787071000188,2.0,1.0,part_1,,,,,,,,,,,,,gray,flipped triangle
53.0,5.0,1.0,1.0,1.0,1.0,282.8208709997852,2.0,1.0,part_1,,,,,,,,,,,,,magenta,hexagon
215.0,7.0,3.0,1.0,2.0,2.0,366.6765380000925,2.0,1.0,part_1,,,,,,,,,,,,,yellow,cross
53.0,1.0,1.0,0.0,4.0,4.0,415.9907830000975,2.0,1.0,part_1,,,,,,,,,,,,,orange,square
27.0,1.0,1.0,0.0,3.0,3.0,342.1163939999587,2.0,1.0,part_1,,,,,,,,,,,,,orange,square
45.0,1.0,1.0,0.0,3.0,3.0,344.3996470000456,2.0,1.0,part_1,,,,,,,,,,,,,orange,square
84.0,2.0,2.0,0.0,3.0,3.0,391.5140039998732,2.0,1.0,part_1,,,,,,,,,,,,,cyan,diamond
49.0,5.0,1.0,1.0,3.0,3.0,404.3308119998983,2.0,1.0,part_1,,,,,,,,,,,,,magenta,hexagon
30.0,1.0,1.0,0.0,3.0,3.0,376.2424919998466,2.0,1.0,part_1,,,,,,,,,,,,,orange,square
206.0,7.0,3.0,1.0,4.0,4.0,332.270397000002,2.0,1.0,part_1,,,,,,,,,,,,,yellow,cross
224.0,3.0,3.0,0.0,2.0,2.0,322.2408270000869,2.0,1.0,part_1,,,,,,,,,,,,,green,triangle
0.0,6.0,0.0,1.0,3.0,3.0,376.0765669999273,2.0,1.0,part_1,,,,,,,,,,,,,gray,flipped triangle
82.0,6.0,2.0,1.0,3.0,3.0,356.9321459999628,2.0,1.0,part_1,,,,,,,,,,,,,gray,flipped triangle
423.0,4.0,4.0,0.0,1.0,1.0,440.3010549999635,2.0,2.0,part_1,,,,,,,,,,,,,white,I
39.0,1.0,1.0,0.0,1.0,1.0,377.9741270000158,2.0,1.0,part_1,,,,,,,,,,,,,orange,square
79.0,2.0,2.0,0.0,4.0,4.0,342.7834720000646,2.0,1.0,part_1,,,,,,,,,,,,,cyan,diamond
92.0,2.0,2.0,0.0,2.0,2.0,364.9868249999599,2.0,1.0,part_1,,,,,,,,,,,,,cyan,diamond
409.0,8.0,4.0,1.0,2.0,2.0,436.6950109999834,2.0,1.0,part_1,,,,,,,,,,,,,blue,circle
89.0,6.0,2.0,1.0,1.0,1.0,510.722966000003,2.0,1.0,part_1,,,,,,,,,,,,,gray,flipped triangle
0.0,1.0,0.0,0.0,4.0,4.0,440.1943939999455,2.0,2.0,part_1,,,,,,,,,,,,,orange,square
79.0,6.0,2.0,1.0,3.0,3.0,405.3684840000642,2.0,1.0,part_1,,,,,,,,,,,,,gray,flipped triangle
0.0,3.0,0.0,0.0,2.0,2.0,430.0059060001331,2.0,1.0,part_1,,,,,,,,,,,,,green,triangle
395.0,8.0,4.0,1.0,4.0,4.0,418.6813989997517,2.0,1.0,part_1,,,,,,,,,,,,,blue,circle
197.0,3.0,3.0,0.0,1.0,1.0,366.3739020003049,2.0,1.0,part_1,,,,,,,,,,,,,green,triangle
0.0,4.0,0.0,0.0,1.0,1.0,436.1666370000421,2.0,1.0,part_1,,,,,,,,,,,,,white,I
0.0,8.0,0.0,1.0,1.0,1.0,359.5135269997627,2.0,1.0,part_1,,,,,,,,,,,,,blue,circle
415.0,4.0,4.0,0.0,1.0,1.0,325.2095249999911,2.0,1.0,part_1,,,,,,,,,,,,,white,I
61.0,5.0,1.0,1.0,2.0,2.0,369.0165409998371,2.0,1.0,part_1,,,,,,,,,,,,,magenta,hexagon
401.0,8.0,4.0,1.0,4.0,4.0,337.0279339997069,2.0,1.0,part_1,,,,,,,,,,,,,blue,circle
383.0,8.0,4.0,1.0,2.0,2.0,417.3717869998654,2.0,1.0,part_1,,,,,,,,,,,,,blue,circle
397.0,8.0,4.0,1.0,3.0,3.0,365.0449850001678,2.0,1.0,part_1,,,,,,,,,,,,,blue,circle
375.0,8.0,4.0,1.0,4.0,4.0,397.3752110000532,2.0,1.0,part_1,,,,,,,,,,,,,blue,circle
111.0,2.0,2.0,0.0,4.0,4.0,446.239450000121,2.0,2.0,part_1,,,,,,,,,,,,,cyan,diamond
194.0,7.0,3.0,1.0,2.0,2.0,337.984631999916,2.0,1.0,part_1,,,,,,,,,,,,,yellow,cross
0.0,1.0,0.0,0.0,1.0,1.0,348.3359840001867,2.0,1.0,part_1,,,,,,,,,,,,,orange,square
410.0,8.0,4.0,1.0,4.0,4.0,594.6065200000703,2.0,1.0,part_1,,,,,,,,,,,,,blue,circle
121.0,2.0,2.0,0.0,1.0,1.0,576.0080559998642,2.0,1.0,part_1,,,,,,,,,,,,,cyan,diamond
48.0,5.0,1.0,1.0,1.0,1.0,414.6468320000167,2.0,1.0,part_1,,,,,,,,,,,,,magenta,hexagon
42.0,1.0,1.0,0.0,2.0,2.0,598.6058170001343,2.0,1.0,part_1,,,,,,,,,,,,,orange,square
0.0,6.0,0.0,1.0,1.0,1.0,448.4591830000681,2.0,1.0,part_1,,,,,,,,,,,,,gray,flipped triangle
59.0,1.0,1.0,0.0,4.0,4.0,681.613655000092,2.0,1.0,part_1,,,,,,,,,,,,,orange,square
425.0,4.0,4.0,0.0,3.0,3.0,592.4114009999357,2.0,1.0,part_1,,,,,,,,,,,,,white,I
404.0,8.0,4.0,1.0,3.0,3.0,395.0402039999972,2.0,1.0,part_1,,,,,,,,,,,,,blue,circle
0.0,4.0,0.0,0.0,4.0,4.0,611.0068520001732,2.0,1.0,part_1,,,,,,,,,,,,,white,I
395.0,8.0,4.0,1.0,2.0,2.0,434.2378270002882,2.0,2.0,part_1,,,,,,,,,,,,,blue,circle
412.0,8.0,4.0,1.0,2.0,2.0,398.2898499998555,2.0,1.0,part_1,,,,,,,,,,,,,blue,circle
34.0,5.0,1.0,1.0,1.0,1.0,370.8407210001496,2.0,1.0,part_1,,,,,,,,,,,,,magenta,hexagon
204.0,7.0,3.0,1.0,4.0,4.0,446.0507809999399,2.0,1.0,part_1,,,,,,,,,,,,,yellow,cross
389.0,4.0,4.0,0.0,3.0,3.0,458.793673999935,2.0,1.0,part_1,,,,,,,,,,,,,white,I
0.0,4.0,0.0,0.0,3.0,3.0,443.179758000042,2.0,1.0,part_1,,,,,,,,,,,,,white,I
210.0,3.0,3.0,0.0,1.0,1.0,365.1755470000353,2.0,1.0,part_1,,,,,,,,,,,,,green,triangle
43.0,5.0,1.0,1.0,2.0,2.0,395.0429930000609,2.0,1.0,part_1,,,,,,,,,,,,,magenta,hexagon
379.0,4.0,4.0,0.0,4.0,4.0,404.8809199998686,2.0,1.0,part_1,,,,,,,,,,,,,white,I
214.0,7.0,3.0,1.0,1.0,1.0,514.2958710002858,2.0,1.0,part_1,,,,,,,,,,,,,yellow,cross
224.0,7.0,3.0,1.0,4.0,4.0,431.269833999977,2.0,1.0,part_1,,,,,,,,,,,,,yellow,cross
209.0,3.0,3.0,0.0,2.0,2.0,327.9823749999195,2.0,1.0,part_1,,,,,,,,,,,,,green,triangle
0.0,4.0,0.0,0.0,1.0,1.0,351.4020300003722,2.0,1.0,part_1,,,,,,,,,,,,,white,I
0.0,3.0,0.0,0.0,4.0,4.0,347.0915040002182,2.0,1.0,part_1,,,,,,,,,,,,,green,triangle
30.0,5.0,1.0,1.0,4.0,4.0,423.3147009999811,2.0,1.0,part_1,,,,,,,,,,,,,magenta,hexagon
200.0,3.0,3.0,0.0,2.0,2.0,440.0518520001242,2.0,1.0,part_1,,,,,,,,,,,,,green,triangle
206.0,3.0,3.0,0.0,1.0,1.0,397.205386999758,2.0,1.0,part_1,,,,,,,,,,,,,green,triangle
390.0,4.0,4.0,0.0,4.0,4.0,375.3581920000215,2.0,1.0,part_1,,,,,,,,,,,,,white,I
89.0,2.0,2.0,0.0,3.0,3.0,392.2877159998279,2.0,1.0,part_1,,,,,,,,,,,,,cyan,diamond
200.0,3.0,3.0,0.0,3.0,3.0,398.612014000264,2.0,1.0,part_1,,,,,,,,,,,,,green,triangle
51.0,1.0,1.0,0.0,2.0,2.0,410.4069169998183,2.0,1.0,part_1,,,,,,,,,,,,,orange,square
65.0,5.0,1.0,1.0,1.0,1.0,395.448953000141,2.0,1.0,part_1,,,,,,,,,,,,,magenta,hexagon
187.0,7.0,3.0,1.0,1.0,1.0,460.1452030001383,2.0,1.0,part_1,,,,,,,,,,,,,yellow,cross
379.0,8.0,4.0,1.0,4.0,4.0,381.3480759999947,2.0,1.0,part_1,,,,,,,,,,,,,blue,circle
30.0,5.0,1.0,1.0,3.0,3.0,377.3311069999181,2.0,1.0,part_1,,,,,,,,,,,,,magenta,hexagon
111.0,2.0,2.0,0.0,1.0,1.0,408.1334150000657,2.0,1.0,part_1,,,,,,,,,,,,,cyan,diamond
0.0,8.0,0.0,1.0,3.0,3.0,524.6066590002556,2.0,1.0,part_1,,,,,,,,,,,,,blue,circle
401.0,8.0,4.0,1.0,2.0,2.0,375.1450300001124,2.0,1.0,part_1,,,,,,,,,,,,,blue,circle
36.0,1.0,1.0,0.0,3.0,3.0,342.3104720000083,2.0,1.0,part_1,,,,,,,,,,,,,orange,square
410.0,4.0,4.0,0.0,1.0,1.0,355.7046850000915,2.0,1.0,part_1,,,,,,,,,,,,,white,I
0.0,6.0,0.0,1.0,2.0,2.0,374.17018799988,2.0,1.0,part_1,,,,,,,,,,,,,gray,flipped triangle
390.0,4.0,4.0,0.0,4.0,4.0,380.5782350000299,2.0,1.0,part_1,,,,,,,,,,,,,white,I
0.0,7.0,0.0,1.0,3.0,3.0,323.2491670000854,2.0,1.0,part_1,,,,,,,,,,,,,yellow,cross
35.0,1.0,1.0,0.0,1.0,1.0,327.1165870000914,2.0,1.0,part_1,,,,,,,,,,,,,orange,square
70.0,5.0,1.0,1.0,4.0,4.0,352.4449229998936,2.0,1.0,part_1,,,,,,,,,,,,,magenta,hexagon
215.0,3.0,3.0,0.0,3.0,3.0,311.5287089999583,2.0,1.0,part_1,,,,,,,,,,,,,green,triangle
409.0,8.0,4.0,1.0,1.0,1.0,351.2825359998714,2.0,1.0,part_1,,,,,,,,,,,,,blue,circle
179.0,7.0,3.0,1.0,4.0,4.0,357.6031329998841,2.0,1.0,part_1,,,,,,,,,,,,,yellow,cross
222.0,3.0,3.0,0.0,3.0,3.0,319.8821420000968,2.0,1.0,part_1,,,,,,,,,,,,,green,triangle
73.0,5.0,1.0,1.0,1.0,1.0,387.1769949996633,2.0,1.0,part_1,,,,,,,,,,,,,magenta,hexagon
51.0,5.0,1.0,1.0,4.0,4.0,357.3528150000129,2.0,2.0,part_1,,,,,,,,,,,,,magenta,hexagon
401.0,4.0,4.0,0.0,4.0,4.0,332.5933830001304,2.0,1.0,part_1,,,,,,,,,,,,,white,I
27.0,5.0,1.0,1.0,1.0,1.0,333.4156399996573,2.0,1.0,part_1,,,,,,,,,,,,,magenta,hexagon
0.0,1.0,0.0,0.0,3.0,3.0,559.2176250002012,2.0,1.0,part_1,,,,,,,,,,,,,orange,square
111.0,6.0,2.0,1.0,2.0,2.0,328.853694999907,2.0,1.0,part_1,,,,,,,,,,,,,gray,flipped triangle
198.0,7.0,3.0,1.0,1.0,1.0,397.7568819996122,2.0,1.0,part_1,,,,,,,,,,,,,yellow,cross
55.0,1.0,1.0,0.0,1.0,1.0,342.6563450002504,2.0,1.0,part_1,,,,,,,,,,,,,orange,square
102.0,2.0,2.0,0.0,4.0,4.0,331.4330600001085,2.0,1.0,part_1,,,,,,,,,,,,,cyan,diamond
0.0,6.0,0.0,1.0,2.0,2.0,415.8570409999811,2.0,1.0,part_1,,,,,,,,,,,,,gray,flipped triangle
49.0,5.0,1.0,1.0,2.0,2.0,280.7898149999346,3.0,1.0,part_1,,,,,,,,,,,,,magenta,hexagon
71.0,5.0,1.0,1.0,4.0,4.0,383.4192320000511,3.0,1.0,part_1,,,,,,,,,,,,,magenta,hexagon
419.0,8.0,4.0,1.0,1.0,1.0,292.2984020001422,3.0,1.0,part_1,,,,,,,,,,,,,blue,circle
0.0,3.0,0.0,0.0,3.0,3.0,375.206254999739,3.0,1.0,part_1,,,,,,,,,,,,,green,triangle
0.0,8.0,0.0,1.0,1.0,1.0,450.7086779999554,3.0,1.0,part_1,,,,,,,,,,,,,blue,circle
117.0,6.0,2.0,1.0,4.0,4.0,262.1691389999796,3.0,1.0,part_1,,,,,,,,,,,,,gray,flipped triangle
78.0,2.0,2.0,0.0,1.0,1.0,363.1281410002884,3.0,1.0,part_1,,,,,,,,,,,,,cyan,diamond
89.0,2.0,2.0,0.0,3.0,3.0,339.5396330001858,3.0,1.0,part_1,,,,,,,,,,,,,cyan,diamond
49.0,1.0,1.0,0.0,3.0,3.0,433.1748730000981,3.0,1.0,part_1,,,,,,,,,,,,,orange,square
409.0,8.0,4.0,1.0,1.0,1.0,340.3551729998071,3.0,1.0,part_1,,,,,,,,,,,,,blue,circle
0.0,5.0,0.0,1.0,1.0,1.0,343.6273970000911,3.0,1.0,part_1,,,,,,,,,,,,,magenta,hexagon
70.0,1.0,1.0,0.0,1.0,1.0,286.2243119998311,3.0,1.0,part_1,,,,,,,,,,,,,orange,square
66.0,5.0,1.0,1.0,1.0,1.0,321.8920290000824,3.0,1.0,part_1,,,,,,,,,,,,,magenta,hexagon
210.0,7.0,3.0,1.0,3.0,3.0,481.7701590000069,3.0,3.0,part_1,,,,,,,,,,,,,yellow,cross
94.0,2.0,2.0,0.0,2.0,2.0,561.5290449995882,3.0,1.0,part_1,,,,,,,,,,,,,cyan,diamond
0.0,6.0,0.0,1.0,2.0,2.0,484.0219089996935,3.0,1.0,part_1,,,,,,,,,,,,,gray,flipped triangle
196.0,3.0,3.0,0.0,2.0,2.0,414.8247289999744,3.0,1.0,part_1,,,,,,,,,,,,,green,triangle
35.0,5.0,1.0,1.0,2.0,2.0,401.5703009999924,3.0,1.0,part_1,,,,,,,,,,,,,magenta,hexagon
94.0,6.0,2.0,1.0,4.0,4.0,470.7590710004297,3.0,1.0,part_1,,,,,,,,,,,,,gray,flipped triangle
0.0,6.0,0.0,1.0,4.0,4.0,387.9407239996908,3.0,1.0,part_1,,,,,,,,,,,,,gray,flipped triangle
179.0,3.0,3.0,0.0,3.0,3.0,408.930882000277,3.0,1.0,part_1,,,,,,,,,,,,,green,triangle
71.0,1.0,1.0,0.0,2.0,2.0,306.341982000049,3.0,1.0,part_1,,,,,,,,,,,,,orange,square
0.0,5.0,0.0,1.0,4.0,4.0,370.5567279998831,3.0,1.0,part_1,,,,,,,,,,,,,magenta,hexagon
84.0,2.0,2.0,0.0,4.0,4.0,325.849912999729,3.0,1.0,part_1,,,,,,,,,,,,,cyan,diamond
0.0,8.0,0.0,1.0,1.0,1.0,407.8798479999932,3.0,1.0,part_1,,,,,,,,,,,,,blue,circle
91.0,2.0,2.0,0.0,1.0,1.0,445.7124550003755,3.0,1.0,part_1,,,,,,,,,,,,,cyan,diamond
52.0,1.0,1.0,0.0,1.0,1.0,341.4995850002924,3.0,1.0,part_1,,,,,,,,,,,,,orange,square
222.0,7.0,3.0,1.0,2.0,2.0,382.7321140001913,3.0,1.0,part_1,,,,,,,,,,,,,yellow,cross
78.0,6.0,2.0,1.0,3.0,3.0,579.8808540002938,3.0,1.0,part_1,,,,,,,,,,,,,gray,flipped triangle
412.0,4.0,4.0,0.0,3.0,3.0,434.194579999712,3.0,1.0,part_1,,,,,,,,,,,,,white,I
390.0,8.0,4.0,1.0,2.0,2.0,507.8013629999987,3.0,1.0,part_1,,,,,,,,,,,,,blue,circle
425.0,8.0,4.0,1.0,3.0,3.0,494.0091690000372,3.0,1.0,part_1,,,,,,,,,,,,,blue,circle
0.0,8.0,0.0,1.0,1.0,1.0,441.0935089999839,3.0,1.0,part_1,,,,,,,,,,,,,blue,circle
397.0,4.0,4.0,0.0,4.0,4.0,368.7167140001293,3.0,1.0,part_1,,,,,,,,,,,,,white,I
0.0,5.0,0.0,1.0,1.0,1.0,342.610139000044,3.0,1.0,part_1,,,,,,,,,,,,,magenta,hexagon
60.0,5.0,1.0,1.0,4.0,4.0,347.4625119997654,3.0,1.0,part_1,,,,,,,,,,,,,magenta,hexagon
0.0,7.0,0.0,1.0,2.0,2.0,303.6760499999218,3.0,1.0,part_1,,,,,,,,,,,,,yellow,cross
390.0,4.0,4.0,0.0,4.0,4.0,355.2329230001305,3.0,1.0,part_1,,,,,,,,,,,,,white,I
380.0,4.0,4.0,0.0,1.0,1.0,348.4261419998802,3.0,1.0,part_1,,,,,,,,,,,,,white,I
0.0,2.0,0.0,0.0,2.0,2.0,389.9211850002757,3.0,1.0,part_1,,,,,,,,,,,,,cyan,diamond
401.0,4.0,4.0,0.0,4.0,4.0,370.5555999999887,3.0,1.0,part_1,,,,,,,,,,,,,white,I
181.0,7.0,3.0,1.0,4.0,4.0,431.4008720002675,3.0,1.0,part_1,,,,,,,,,,,,,yellow,cross
395.0,4.0,4.0,0.0,3.0,3.0,389.030781999736,3.0,1.0,part_1,,,,,,,,,,,,,white,I
390.0,8.0,4.0,1.0,3.0,3.0,551.4896109998517,3.0,1.0,part_1,,,,,,,,,,,,,blue,circle
67.0,5.0,1.0,1.0,4.0,4.0,325.5899929999941,3.0,1.0,part_1,,,,,,,,,,,,,magenta,hexagon
204.0,7.0,3.0,1.0,4.0,4.0,383.6236060001283,3.0,1.0,part_1,,,,,,,,,,,,,yellow,cross
179.0,7.0,3.0,1.0,2.0,2.0,402.9027070000666,3.0,1.0,part_1,,,,,,,,,,,,,yellow,cross
100.0,2.0,2.0,0.0,2.0,2.0,321.1608409997097,3.0,1.0,part_1,,,,,,,,,,,,,cyan,diamond
35.0,1.0,1.0,0.0,4.0,4.0,548.7210070000401,3.0,1.0,part_1,,,,,,,,,,,,,orange,square
382.0,4.0,4.0,0.0,3.0,3.0,631.559758000094,3.0,1.0,part_1,,,,,,,,,,,,,white,I
200.0,3.0,3.0,0.0,2.0,2.0,593.6186950002593,3.0,1.0,part_1,,,,,,,,,,,,,green,triangle
110.0,2.0,2.0,0.0,3.0,3.0,554.7847510001702,3.0,1.0,part_1,,,,,,,,,,,,,cyan,diamond
401.0,4.0,4.0,0.0,1.0,1.0,547.3785670001234,3.0,1.0,part_1,,,,,,,,,,,,,white,I
415.0,8.0,4.0,1.0,2.0,2.0,445.3241240003081,3.0,1.0,part_1,,,,,,,,,,,,,blue,circle
110.0,2.0,2.0,0.0,3.0,3.0,329.0188549999584,3.0,1.0,part_1,,,,,,,,,,,,,cyan,diamond
0.0,7.0,0.0,1.0,3.0,3.0,368.8617249999879,3.0,1.0,part_1,,,,,,,,,,,,,yellow,cross
403.0,4.0,4.0,0.0,4.0,4.0,456.6049479999492,3.0,1.0,part_1,,,,,,,,,,,,,white,I
59.0,5.0,1.0,1.0,2.0,2.0,314.6900789997744,3.0,1.0,part_1,,,,,,,,,,,,,magenta,hexagon
0.0,3.0,0.0,0.0,1.0,1.0,467.7964530001191,3.0,1.0,part_1,,,,,,,,,,,,,green,triangle
175.0,3.0,3.0,0.0,1.0,1.0,416.9899599996824,3.0,1.0,part_1,,,,,,,,,,,,,green,triangle
58.0,1.0,1.0,0.0,4.0,4.0,450.1798609999241,3.0,1.0,part_1,,,,,,,,,,,,,orange,square
192.0,3.0,3.0,0.0,2.0,2.0,328.1639699998777,3.0,1.0,part_1,,,,,,,,,,,,,green,triangle
89.0,6.0,2.0,1.0,2.0,2.0,479.2090559999451,3.0,1.0,part_1,,,,,,,,,,,,,gray,flipped triangle
55.0,5.0,1.0,1.0,3.0,3.0,362.462048999987,3.0,1.0,part_1,,,,,,,,,,,,,magenta,hexagon
375.0,4.0,4.0,0.0,1.0,1.0,333.0428510003003,3.0,1.0,part_1,,,,,,,,,,,,,white,I
0.0,3.0,0.0,0.0,4.0,4.0,283.0741510001644,3.0,1.0,part_1,,,,,,,,,,,,,green,triangle
186.0,3.0,3.0,0.0,1.0,1.0,315.9045469997181,3.0,1.0,part_1,,,,,,,,,,,,,green,triangle
379.0,4.0,4.0,0.0,4.0,4.0,364.6644089999427,3.0,1.0,part_1,,,,,,,,,,,,,white,I
67.0,1.0,1.0,0.0,3.0,3.0,430.5474970001341,3.0,2.0,part_1,,,,,,,,,,,,,orange,square
108.0,6.0,2.0,1.0,3.0,3.0,378.5495570000421,3.0,1.0,part_1,,,,,,,,,,,,,gray,flipped triangle
396.0,8.0,4.0,1.0,2.0,2.0,417.9953959996965,3.0,1.0,part_1,,,,,,,,,,,,,blue,circle
40.0,1.0,1.0,0.0,2.0,2.0,324.8322909998933,3.0,1.0,part_1,,,,,,,,,,,,,orange,square
0.0,2.0,0.0,0.0,3.0,3.0,538.7333630001194,3.0,1.0,part_1,,,,,,,,,,,,,cyan,diamond
0.0,8.0,0.0,1.0,4.0,4.0,384.3966250001358,3.0,1.0,part_1,,,,,,,,,,,,,blue,circle
70.0,1.0,1.0,0.0,1.0,1.0,328.503739000098,3.0,1.0,part_1,,,,,,,,,,,,,orange,square
43.0,5.0,1.0,1.0,1.0,1.0,331.868373999896,3.0,1.0,part_1,,,,,,,,,,,,,magenta,hexagon
35.0,5.0,1.0,1.0,2.0,2.0,384.865740999885,3.0,1.0,part_1,,,,,,,,,,,,,magenta,hexagon
42.0,5.0,1.0,1.0,4.0,4.0,326.5957309999976,3.0,1.0,part_1,,,,,,,,,,,,,magenta,hexagon
0.0,4.0,0.0,0.0,3.0,3.0,493.163228999947,3.0,1.0,part_1,,,,,,,,,,,,,white,I
49.0,1.0,1.0,0.0,2.0,2.0,317.97704399969,3.0,1.0,part_1,,,,,,,,,,,,,orange,square
0.0,7.0,0.0,1.0,3.0,3.0,291.0209299998314,3.0,1.0,part_1,,,,,,,,,,,,,yellow,cross
0.0,2.0,0.0,0.0,2.0,2.0,359.0743859999747,3.0,1.0,part_1,,,,,,,,,,,,,cyan,diamond
68.0,5.0,1.0,1.0,3.0,3.0,372.9819260001932,3.0,1.0,part_1,,,,,,,,,,,,,magenta,hexagon
0.0,5.0,0.0,1.0,3.0,3.0,340.8999289999883,3.0,1.0,part_1,,,,,,,,,,,,,magenta,hexagon
61.0,1.0,1.0,0.0,3.0,3.0,389.4746770001802,3.0,1.0,part_1,,,,,,,,,,,,,orange,square
198.0,3.0,3.0,0.0,4.0,4.0,316.2414939997688,3.0,1.0,part_1,,,,,,,,,,,,,green,triangle
0.0,4.0,0.0,0.0,3.0,3.0,475.6015050002133,3.0,1.0,part_1,,,,,,,,,,,,,white,I
384.0,8.0,4.0,1.0,3.0,3.0,325.9911189998092,3.0,1.0,part_1,,,,,,,,,,,,,blue,circle
25.0,5.0,1.0,1.0,3.0,3.0,390.7836299999871,3.0,1.0,part_1,,,,,,,,,,,,,magenta,hexagon
386.0,4.0,4.0,0.0,2.0,2.0,359.9671140000282,3.0,1.0,part_1,,,,,,,,,,,,,white,I
58.0,5.0,1.0,1.0,3.0,3.0,352.6469990001715,3.0,1.0,part_1,,,,,,,,,,,,,magenta,hexagon
215.0,3.0,3.0,0.0,1.0,1.0,237.3073380003916,3.0,1.0,part_1,,,,,,,,,,,,,green,triangle
175.0,7.0,3.0,1.0,4.0,4.0,302.5545209998199,3.0,1.0,part_1,,,,,,,,,,,,,yellow,cross
73.0,1.0,1.0,0.0,4.0,4.0,325.7506200002353,3.0,1.0,part_1,,,,,,,,,,,,,orange,square
35.0,5.0,1.0,1.0,4.0,4.0,398.7371419998453,3.0,1.0,part_1,,,,,,,,,,,,,magenta,hexagon
402.0,8.0,4.0,1.0,3.0,3.0,381.9682069997725,3.0,1.0,part_1,,,,,,,,,,,,,blue,circle
421.0,4.0,4.0,0.0,2.0,2.0,298.4523820000504,3.0,1.0,part_1,,,,,,,,,,,,,white,I
218.0,3.0,3.0,0.0,3.0,3.0,340.6977720001123,3.0,1.0,part_1,,,,,,,,,,,,,green,triangle
194.0,3.0,3.0,0.0,1.0,1.0,310.6829449998258,3.0,1.0,part_1,,,,,,,,,,,,,green,triangle
386.0,8.0,4.0,1.0,1.0,1.0,377.7600140001595,3.0,1.0,part_1,,,,,,,,,,,,,blue,circle
119.0,2.0,2.0,0.0,1.0,1.0,319.3031929999961,4.0,1.0,part_1,,,,,,,,,,,,,cyan,diamond
0.0,2.0,0.0,0.0,3.0,3.0,307.1345100001963,4.0,1.0,part_1,,,,,,,,,,,,,cyan,diamond
208.0,7.0,3.0,1.0,2.0,2.0,287.321731999782,4.0,1.0,part_1,,,,,,,,,,,,,yellow,cross
111.0,6.0,2.0,1.0,4.0,4.0,411.9736410002588,4.0,1.0,part_1,,,,,,,,,,,,,gray,flipped triangle
181.0,3.0,3.0,0.0,4.0,4.0,320.7575699998415,4.0,1.0,part_1,,,,,,,,,,,,,green,triangle
111.0,2.0,2.0,0.0,3.0,3.0,348.6718219996874,4.0,1.0,part_1,,,,,,,,,,,,,cyan,diamond
36.0,5.0,1.0,1.0,2.0,2.0,255.2095000000918,4.0,1.0,part_1,,,,,,,,,,,,,magenta,hexagon
211.0,3.0,3.0,0.0,2.0,2.0,496.2167860003319,4.0,1.0,part_1,,,,,,,,,,,,,green,triangle
39.0,5.0,1.0,1.0,4.0,4.0,339.428332999887,4.0,1.0,part_1,,,,,,,,,,,,,magenta,hexagon
0.0,4.0,0.0,0.0,1.0,1.0,370.2363480001622,4.0,1.0,part_1,,,,,,,,,,,,,white,I
0.0,5.0,0.0,1.0,3.0,3.0,355.8281339996938,4.0,1.0,part_1,,,,,,,,,,,,,magenta,hexagon
224.0,7.0,3.0,1.0,2.0,2.0,480.7561749998967,4.0,1.0,part_1,,,,,,,,,,,,,yellow,cross
121.0,6.0,2.0,1.0,4.0,4.0,386.6914140003246,4.0,2.0,part_1,,,,,,,,,,,,,gray,flipped triangle
197.0,3.0,3.0,0.0,1.0,1.0,550.4851210002926,4.0,1.0,part_1,,,,,,,,,,,,,green,triangle
0.0,3.0,0.0,0.0,4.0,4.0,842.7204089998668,4.0,1.0,part_1,,,,,,,,,,,,,green,triangle
108.0,2.0,2.0,0.0,3.0,3.0,328.9135810000516,4.0,1.0,part_1,,,,,,,,,,,,,cyan,diamond
192.0,7.0,3.0,1.0,2.0,2.0,364.1393879997849,4.0,1.0,part_1,,,,,,,,,,,,,yellow,cross
120.0,6.0,2.0,1.0,1.0,1.0,309.1954640003678,4.0,1.0,part_1,,,,,,,,,,,,,gray,flipped triangle
58.0,5.0,1.0,1.0,2.0,2.0,303.4877919999417,4.0,1.0,part_1,,,,,,,,,,,,,magenta,hexagon
396.0,4.0,4.0,0.0,2.0,2.0,279.4389209998371,4.0,1.0,part_1,,,,,,,,,,,,,white,I
88.0,2.0,2.0,0.0,2.0,2.0,307.8073490000861,4.0,1.0,part_1,,,,,,,,,,,,,cyan,diamond
0.0,1.0,0.0,0.0,4.0,4.0,371.8873309999253,4.0,1.0,part_1,,,,,,,,,,,,,orange,square
109.0,6.0,2.0,1.0,1.0,1.0,345.4942880002818,4.0,1.0,part_1,,,,,,,,,,,,,gray,flipped triangle
0.0,5.0,0.0,1.0,4.0,4.0,307.8391449998889,4.0,1.0,part_1,,,,,,,,,,,,,magenta,hexagon
43.0,1.0,1.0,0.0,1.0,1.0,254.23171099964748,4.0,1.0,part_1,,,,,,,,,,,,,orange,square
25.0,1.0,1.0,0.0,1.0,1.0,415.261227999963,4.0,1.0,part_1,,,,,,,,,,,,,orange,square
120.0,2.0,2.0,0.0,4.0,4.0,279.8044849996586,4.0,1.0,part_1,,,,,,,,,,,,,cyan,diamond
119.0,6.0,2.0,1.0,1.0,1.0,293.5824020000837,4.0,1.0,part_1,,,,,,,,,,,,,gray,flipped triangle
0.0,7.0,0.0,1.0,1.0,1.0,316.3586330001635,4.0,2.0,part_1,,,,,,,,,,,,,yellow,cross
108.0,6.0,2.0,1.0,2.0,2.0,579.4021420001627,4.0,1.0,part_1,,,,,,,,,,,,,gray,flipped triangle
111.0,2.0,2.0,0.0,1.0,1.0,325.1078110001799,4.0,1.0,part_1,,,,,,,,,,,,,cyan,diamond
390.0,8.0,4.0,1.0,3.0,3.0,379.1512440002407,4.0,1.0,part_1,,,,,,,,,,,,,blue,circle
412.0,4.0,4.0,0.0,2.0,2.0,366.8549600001825,4.0,1.0,part_1,,,,,,,,,,,,,white,I
0.0,2.0,0.0,0.0,2.0,2.0,377.0016469998154,4.0,1.0,part_1,,,,,,,,,,,,,cyan,diamond
0.0,1.0,0.0,0.0,4.0,4.0,372.0643430001473,4.0,2.0,part_1,,,,,,,,,,,,,orange,square
407.0,8.0,4.0,1.0,2.0,2.0,333.9746380001998,4.0,1.0,part_1,,,,,,,,,,,,,blue,circle
89.0,2.0,2.0,0.0,4.0,4.0,308.2687129999613,4.0,1.0,part_1,,,,,,,,,,,,,cyan,diamond
407.0,4.0,4.0,0.0,1.0,1.0,425.7653009999558,4.0,1.0,part_1,,,,,,,,,,,,,white,I
41.0,5.0,1.0,1.0,3.0,3.0,390.6265919999896,4.0,2.0,part_1,,,,,,,,,,,,,magenta,hexagon
419.0,4.0,4.0,0.0,3.0,3.0,439.5502500001385,4.0,1.0,part_1,,,,,,,,,,,,,white,I
390.0,8.0,4.0,1.0,1.0,1.0,404.8252959996716,4.0,1.0,part_1,,,,,,,,,,,,,blue,circle
52.0,5.0,1.0,1.0,3.0,3.0,335.9836939998786,4.0,1.0,part_1,,,,,,,,,,,,,magenta,hexagon
206.0,7.0,3.0,1.0,3.0,3.0,395.8237850001751,4.0,1.0,part_1,,,,,,,,,,,,,yellow,cross
56.0,5.0,1.0,1.0,3.0,3.0,384.6383610002704,4.0,1.0,part_1,,,,,,,,,,,,,magenta,hexagon
215.0,7.0,3.0,1.0,3.0,3.0,353.7479139999959,4.0,1.0,part_1,,,,,,,,,,,,,yellow,cross
196.0,7.0,3.0,1.0,1.0,1.0,514.1255470002761,4.0,1.0,part_1,,,,,,,,,,,,,yellow,cross
43.0,1.0,1.0,0.0,2.0,2.0,377.1000199999434,4.0,1.0,part_1,,,,,,,,,,,,,orange,square
208.0,3.0,3.0,0.0,3.0,3.0,318.4875350002585,4.0,1.0,part_1,,,,,,,,,,,,,green,triangle
206.0,3.0,3.0,0.0,4.0,4.0,337.5544809996427,4.0,1.0,part_1,,,,,,,,,,,,,green,triangle
412.0,4.0,4.0,0.0,2.0,2.0,342.991451999751,4.0,1.0,part_1,,,,,,,,,,,,,white,I
0.0,1.0,0.0,0.0,1.0,1.0,317.700190999858,4.0,1.0,part_1,,,,,,,,,,,,,orange,square
195.0,3.0,3.0,0.0,2.0,2.0,333.8815460001569,4.0,1.0,part_1,,,,,,,,,,,,,green,triangle
0.0,4.0,0.0,0.0,1.0,1.0,271.1056260000077,4.0,1.0,part_1,,,,,,,,,,,,,white,I
410.0,4.0,4.0,0.0,2.0,2.0,334.1546870001366,4.0,1.0,part_1,,,,,,,,,,,,,white,I
120.0,2.0,2.0,0.0,2.0,2.0,371.6733239998575,4.0,1.0,part_1,,,,,,,,,,,,,cyan,diamond
58.0,1.0,1.0,0.0,2.0,2.0,311.3416930000312,4.0,1.0,part_1,,,,,,,,,,,,,orange,square
0.0,1.0,0.0,0.0,3.0,3.0,401.0390630000984,4.0,1.0,part_1,,,,,,,,,,,,,orange,square
89.0,6.0,2.0,1.0,3.0,3.0,322.0112300000437,4.0,1.0,part_1,,,,,,,,,,,,,gray,flipped triangle
195.0,7.0,3.0,1.0,3.0,3.0,374.3661620001148,4.0,1.0,part_1,,,,,,,,,,,,,yellow,cross
413.0,8.0,4.0,1.0,2.0,2.0,337.4703710001085,4.0,1.0,part_1,,,,,,,,,,,,,blue,circle
214.0,3.0,3.0,0.0,3.0,3.0,325.0977019997663,4.0,1.0,part_1,,,,,,,,,,,,,green,triangle
0.0,4.0,0.0,0.0,3.0,3.0,314.933407999888,4.0,1.0,part_1,,,,,,,,,,,,,white,I
200.0,7.0,3.0,1.0,4.0,4.0,324.6352050000496,4.0,1.0,part_1,,,,,,,,,,,,,yellow,cross
403.0,8.0,4.0,1.0,3.0,3.0,358.7494800003696,4.0,1.0,part_1,,,,,,,,,,,,,blue,circle
0.0,3.0,0.0,0.0,3.0,3.0,304.9797680000665,4.0,1.0,part_1,,,,,,,,,,,,,green,triangle
90.0,2.0,2.0,0.0,2.0,2.0,357.9708350002875,4.0,1.0,part_1,,,,,,,,,,,,,cyan,diamond
89.0,2.0,2.0,0.0,2.0,2.0,325.7297390000531,4.0,1.0,part_1,,,,,,,,,,,,,cyan,diamond
109.0,2.0,2.0,0.0,2.0,2.0,336.8311979997997,4.0,2.0,part_1,,,,,,,,,,,,,cyan,diamond
423.0,8.0,4.0,1.0,1.0,1.0,364.872545000253,4.0,1.0,part_1,,,,,,,,,,,,,blue,circle
0.0,2.0,0.0,0.0,1.0,1.0,378.1213649999699,4.0,1.0,part_1,,,,,,,,,,,,,cyan,diamond
207.0,7.0,3.0,1.0,3.0,3.0,322.7447710000888,4.0,1.0,part_1,,,,,,,,,,,,,yellow,cross
102.0,6.0,2.0,1.0,1.0,1.0,318.2100249996438,4.0,1.0,part_1,,,,,,,,,,,,,gray,flipped triangle
410.0,8.0,4.0,1.0,1.0,1.0,340.1670250000279,4.0,1.0,part_1,,,,,,,,,,,,,blue,circle
0.0,7.0,0.0,1.0,3.0,3.0,336.0551609998765,4.0,1.0,part_1,,,,,,,,,,,,,yellow,cross
89.0,6.0,2.0,1.0,2.0,2.0,552.805817999797,4.0,1.0,part_1,,,,,,,,,,,,,gray,flipped triangle
422.0,8.0,4.0,1.0,1.0,1.0,380.4956779999884,4.0,2.0,part_1,,,,,,,,,,,,,blue,circle
45.0,5.0,1.0,1.0,2.0,2.0,340.8378069998434,4.0,1.0,part_1,,,,,,,,,,,,,magenta,hexagon
207.0,3.0,3.0,0.0,4.0,4.0,395.6264949997603,4.0,1.0,part_1,,,,,,,,,,,,,green,triangle
204.0,3.0,3.0,0.0,3.0,3.0,348.5840690000259,4.0,1.0,part_1,,,,,,,,,,,,,green,triangle
65.0,1.0,1.0,0.0,3.0,3.0,523.3486759998414,4.0,1.0,part_1,,,,,,,,,,,,,orange,square
216.0,7.0,3.0,1.0,2.0,2.0,439.7534309996445,4.0,1.0,part_1,,,,,,,,,,,,,yellow,cross
41.0,1.0,1.0,0.0,4.0,4.0,371.453955999641,4.0,1.0,part_1,,,,,,,,,,,,,orange,square
0.0,8.0,0.0,1.0,3.0,3.0,261.6662260002158,4.0,1.0,part_1,,,,,,,,,,,,,blue,circle
0.0,6.0,0.0,1.0,4.0,4.0,580.8260479998353,4.0,1.0,part_1,,,,,,,,,,,,,gray,flipped triangle
0.0,4.0,0.0,0.0,1.0,1.0,424.5093109998379,4.0,1.0,part_1,,,,,,,,,,,,,white,I
0.0,2.0,0.0,0.0,1.0,1.0,351.3753840002209,4.0,1.0,part_1,,,,,,,,,,,,,cyan,diamond
0.0,1.0,0.0,0.0,4.0,4.0,370.9389940004257,4.0,1.0,part_1,,,,,,,,,,,,,orange,square
395.0,4.0,4.0,0.0,3.0,3.0,343.6149570002271,4.0,1.0,part_1,,,,,,,,,,,,,white,I
216.0,3.0,3.0,0.0,4.0,4.0,407.2163190003266,4.0,1.0,part_1,,,,,,,,,,,,,green,triangle
389.0,8.0,4.0,1.0,4.0,4.0,338.4459369999604,4.0,1.0,part_1,,,,,,,,,,,,,blue,circle
30.0,1.0,1.0,0.0,4.0,4.0,352.5857390000055,4.0,1.0,part_1,,,,,,,,,,,,,orange,square
120.0,2.0,2.0,0.0,1.0,1.0,397.1724150001137,4.0,2.0,part_1,,,,,,,,,,,,,cyan,diamond
0.0,5.0,0.0,1.0,2.0,2.0,441.7497859999457,4.0,1.0,part_1,,,,,,,,,,,,,magenta,hexagon
0.0,5.0,0.0,1.0,4.0,4.0,378.7707390001742,4.0,1.0,part_1,,,,,,,,,,,,,magenta,hexagon
185.0,3.0,3.0,0.0,4.0,4.0,350.9401220003383,4.0,1.0,part_1,,,,,,,,,,,,,green,triangle
182.0,3.0,3.0,0.0,2.0,2.0,320.5329089996667,4.0,1.0,part_1,,,,,,,,,,,,,green,triangle
201.0,3.0,3.0,0.0,3.0,3.0,380.0949679998666,4.0,1.0,part_1,,,,,,,,,,,,,green,triangle
382.0,8.0,4.0,1.0,3.0,3.0,374.2245690000345,4.0,1.0,part_1,,,,,,,,,,,,,blue,circle
42.0,5.0,1.0,1.0,1.0,1.0,304.9553660002857,4.0,1.0,part_1,,,,,,,,,,,,,magenta,hexagon
0.0,6.0,0.0,1.0,3.0,3.0,355.5902949997289,4.0,1.0,part_1,,,,,,,,,,,,,gray,flipped triangle
0.0,2.0,2.0,0.0,6.0,6.0,326.6357460001927,1.0,0.0,part_2,go,250.0,250.0,1.0,,,,,,,,,cyan,diamond
0.0,2.0,2.0,0.0,6.0,6.0,348.2176309998976,1.0,0.0,part_2,go,250.0,250.0,1.0,,,,,,,,,cyan,diamond
0.0,5.0,1.0,1.0,5.0,0.0,0.0,1.0,0.0,part_2,stop,250.0,250.0,4.0,,,,,,,,,magenta,hexagon
0.0,8.0,4.0,1.0,5.0,5.0,380.5268549999709,1.0,0.0,part_2,stop,300.0,250.0,3.0,,,,,,,,,blue,circle
0.0,5.0,1.0,1.0,6.0,6.0,345.1170719999936,1.0,0.0,part_2,stop,250.0,250.0,3.0,,,,,,,,,magenta,hexagon
0.0,2.0,2.0,0.0,6.0,6.0,510.2355340000031,1.0,0.0,part_2,go,250.0,200.0,1.0,,,,,,,,,cyan,diamond
0.0,1.0,1.0,0.0,5.0,5.0,683.7727020001694,1.0,0.0,part_2,go,250.0,200.0,1.0,,,,,,,,,orange,square
0.0,6.0,2.0,1.0,5.0,5.0,450.1662210000177,1.0,0.0,part_2,go,250.0,200.0,1.0,,,,,,,,,gray,flipped triangle
0.0,4.0,4.0,0.0,6.0,6.0,448.2382559999678,1.0,0.0,part_2,go,250.0,200.0,1.0,,,,,,,,,white,I
0.0,2.0,2.0,0.0,5.0,5.0,462.5253139997767,1.0,0.0,part_2,go,250.0,200.0,1.0,,,,,,,,,cyan,diamond
0.0,6.0,2.0,1.0,6.0,6.0,380.7819109997581,1.0,0.0,part_2,stop,250.0,200.0,3.0,,,,,,,,,gray,flipped triangle
0.0,8.0,4.0,1.0,5.0,0.0,0.0,1.0,0.0,part_2,stop,250.0,150.0,4.0,,,,,,,,,blue,circle
0.0,1.0,1.0,0.0,5.0,5.0,584.3905000001541,1.0,0.0,part_2,go,300.0,150.0,1.0,,,,,,,,,orange,square
0.0,5.0,1.0,1.0,6.0,0.0,0.0,1.0,0.0,part_2,stop,300.0,150.0,4.0,,,,,,,,,magenta,hexagon
0.0,6.0,2.0,1.0,5.0,0.0,0.0,1.0,0.0,part_2,stop,300.0,200.0,4.0,,,,,,,,,gray,flipped triangle
0.0,1.0,1.0,0.0,5.0,5.0,1153.6985660000028,1.0,0.0,part_2,go,350.0,200.0,1.0,,,,,,,,,orange,square
0.0,3.0,3.0,0.0,5.0,5.0,639.9314410000443,1.0,0.0,part_2,go,350.0,200.0,1.0,,,,,,,,,green,triangle
0.0,2.0,2.0,0.0,5.0,5.0,422.0424589998401,1.0,0.0,part_2,go,350.0,200.0,1.0,,,,,,,,,cyan,diamond
0.0,8.0,4.0,1.0,5.0,0.0,0.0,1.0,0.0,part_2,stop,350.0,200.0,4.0,,,,,,,,,blue,circle
0.0,2.0,2.0,0.0,5.0,5.0,720.6353419996958,1.0,0.0,part_2,go,400.0,200.0,1.0,,,,,,,,,cyan,diamond
0.0,1.0,1.0,0.0,6.0,6.0,690.5146960002639,1.0,0.0,part_2,go,400.0,200.0,1.0,,,,,,,,,orange,square
0.0,7.0,3.0,1.0,5.0,5.0,489.00593999997,1.0,0.0,part_2,stop,400.0,200.0,3.0,,,,,,,,,yellow,cross
0.0,5.0,1.0,1.0,5.0,0.0,0.0,1.0,0.0,part_2,stop,350.0,200.0,4.0,,,,,,,,,magenta,hexagon
0.0,3.0,3.0,0.0,6.0,6.0,790.8204840000508,1.0,0.0,part_2,go,400.0,200.0,1.0,,,,,,,,,green,triangle
0.0,3.0,3.0,0.0,6.0,6.0,705.340809000063,1.0,0.0,part_2,go,400.0,200.0,1.0,,,,,,,,,green,triangle
0.0,4.0,4.0,0.0,5.0,5.0,541.4154749996669,1.0,0.0,part_2,go,400.0,200.0,1.0,,,,,,,,,white,I
0.0,3.0,3.0,0.0,6.0,6.0,586.625912999807,1.0,0.0,part_2,go,400.0,200.0,1.0,,,,,,,,,green,triangle
0.0,5.0,1.0,1.0,6.0,0.0,0.0,1.0,0.0,part_2,stop,400.0,200.0,4.0,,,,,,,,,magenta,hexagon
0.0,8.0,4.0,1.0,6.0,0.0,0.0,1.0,0.0,part_2,stop,400.0,250.0,4.0,,,,,,,,,blue,circle
0.0,5.0,1.0,1.0,5.0,0.0,0.0,1.0,0.0,part_2,stop,400.0,300.0,4.0,,,,,,,,,magenta,hexagon
0.0,4.0,4.0,0.0,6.0,6.0,686.3613280002028,1.0,0.0,part_2,go,450.0,300.0,1.0,,,,,,,,,white,I
0.0,5.0,1.0,1.0,5.0,5.0,765.0296690003415,1.0,0.0,part_2,go,450.0,300.0,1.0,,,,,,,,,magenta,hexagon
0.0,4.0,4.0,0.0,5.0,5.0,563.8149939995856,1.0,0.0,part_2,go,450.0,300.0,1.0,,,,,,,,,white,I
0.0,2.0,2.0,0.0,6.0,6.0,1043.1590510002025,1.0,0.0,part_2,go,450.0,300.0,1.0,,,,,,,,,cyan,diamond
0.0,3.0,3.0,0.0,6.0,6.0,635.2580220000164,1.0,0.0,part_2,go,450.0,300.0,1.0,,,,,,,,,green,triangle
0.0,6.0,2.0,1.0,5.0,0.0,0.0,1.0,0.0,part_2,stop,450.0,300.0,4.0,,,,,,,,,gray,flipped triangle
0.0,6.0,2.0,1.0,5.0,0.0,0.0,2.0,0.0,part_2,stop,500.0,300.0,4.0,,,,,,,,,gray,flipped triangle
0.0,3.0,3.0,0.0,5.0,5.0,753.977828999723,2.0,0.0,part_2,go,550.0,300.0,1.0,,,,,,,,,green,triangle
0.0,5.0,1.0,1.0,6.0,0.0,0.0,2.0,0.0,part_2,stop,550.0,300.0,4.0,,,,,,,,,magenta,hexagon
0.0,1.0,1.0,0.0,5.0,5.0,661.8210800002089,2.0,0.0,part_2,go,550.0,350.0,1.0,,,,,,,,,orange,square
0.0,1.0,1.0,0.0,5.0,5.0,459.6627149999222,2.0,0.0,part_2,go,550.0,350.0,1.0,,,,,,,,,orange,square
0.0,8.0,4.0,1.0,5.0,5.0,407.2276239999155,2.0,0.0,part_2,stop,550.0,350.0,3.0,,,,,,,,,blue,circle
0.0,7.0,3.0,1.0,6.0,0.0,0.0,2.0,0.0,part_2,stop,500.0,350.0,4.0,,,,,,,,,yellow,cross
0.0,6.0,2.0,1.0,6.0,0.0,0.0,2.0,0.0,part_2,stop,500.0,400.0,4.0,,,,,,,,,gray,flipped triangle
0.0,2.0,2.0,0.0,5.0,5.0,572.5104890002513,2.0,0.0,part_2,go,500.0,450.0,1.0,,,,,,,,,cyan,diamond
0.0,6.0,2.0,1.0,5.0,5.0,430.8958360002179,2.0,0.0,part_2,stop,500.0,450.0,3.0,,,,,,,,,gray,flipped triangle
0.0,3.0,3.0,0.0,5.0,5.0,700.6272730000092,2.0,0.0,part_2,go,450.0,450.0,1.0,,,,,,,,,green,triangle
0.0,5.0,1.0,1.0,6.0,6.0,539.6229210000456,2.0,0.0,part_2,stop,450.0,450.0,3.0,,,,,,,,,magenta,hexagon
0.0,2.0,2.0,0.0,6.0,6.0,690.445999000076,2.0,0.0,part_2,go,450.0,400.0,1.0,,,,,,,,,cyan,diamond
0.0,6.0,2.0,1.0,6.0,0.0,0.0,2.0,0.0,part_2,stop,450.0,400.0,4.0,,,,,,,,,gray,flipped triangle
0.0,7.0,3.0,1.0,6.0,6.0,1042.9326490002495,2.0,0.0,part_2,go,450.0,450.0,1.0,,,,,,,,,yellow,cross
0.0,3.0,3.0,0.0,6.0,6.0,1080.834288999995,2.0,0.0,part_2,go,450.0,450.0,1.0,,,,,,,,,green,triangle
0.0,3.0,3.0,0.0,5.0,5.0,1031.8020480003725,2.0,0.0,part_2,go,450.0,450.0,1.0,,,,,,,,,green,triangle
0.0,2.0,2.0,0.0,5.0,5.0,474.7110020002765,2.0,0.0,part_2,go,450.0,450.0,1.0,,,,,,,,,cyan,diamond
0.0,4.0,4.0,0.0,6.0,6.0,380.5518910003229,2.0,0.0,part_2,go,450.0,450.0,1.0,,,,,,,,,white,I
0.0,1.0,1.0,0.0,6.0,6.0,700.5798959999083,2.0,0.0,part_2,go,450.0,450.0,1.0,,,,,,,,,orange,square
0.0,6.0,2.0,1.0,6.0,6.0,339.0737999998237,2.0,0.0,part_2,stop,450.0,450.0,3.0,,,,,,,,,gray,flipped triangle
0.0,3.0,3.0,0.0,6.0,6.0,688.0925830000706,2.0,0.0,part_2,go,450.0,400.0,1.0,,,,,,,,,green,triangle
0.0,7.0,3.0,1.0,5.0,0.0,0.0,2.0,0.0,part_2,stop,450.0,400.0,4.0,,,,,,,,,yellow,cross
0.0,8.0,4.0,1.0,6.0,0.0,0.0,2.0,0.0,part_2,stop,500.0,400.0,4.0,,,,,,,,,blue,circle
0.0,6.0,2.0,1.0,6.0,0.0,0.0,2.0,0.0,part_2,stop,500.0,450.0,4.0,,,,,,,,,gray,flipped triangle
0.0,1.0,1.0,0.0,5.0,5.0,592.0132159999412,2.0,0.0,part_2,go,500.0,500.0,1.0,,,,,,,,,orange,square
0.0,3.0,3.0,0.0,5.0,5.0,607.8258070001539,2.0,0.0,part_2,go,500.0,500.0,1.0,,,,,,,,,green,triangle
0.0,7.0,3.0,1.0,6.0,0.0,0.0,2.0,0.0,part_2,stop,500.0,500.0,4.0,,,,,,,,,yellow,cross
0.0,2.0,2.0,0.0,6.0,6.0,745.8900470001026,2.0,0.0,part_2,go,500.0,550.0,1.0,,,,,,,,,cyan,diamond
0.0,6.0,2.0,1.0,5.0,0.0,0.0,2.0,0.0,part_2,stop,500.0,550.0,4.0,,,,,,,,,gray,flipped triangle
0.0,2.0,2.0,0.0,6.0,6.0,638.8807490002364,2.0,0.0,part_2,go,550.0,550.0,1.0,,,,,,,,,cyan,diamond
0.0,8.0,4.0,1.0,6.0,6.0,657.3508649998985,2.0,0.0,part_2,stop,550.0,550.0,3.0,,,,,,,,,blue,circle
0.0,7.0,3.0,1.0,5.0,5.0,583.7876890000189,2.0,0.0,part_2,stop,550.0,500.0,3.0,,,,,,,,,yellow,cross
0.0,3.0,3.0,0.0,6.0,6.0,638.1861079998998,2.0,0.0,part_2,go,500.0,500.0,1.0,,,,,,,,,green,triangle
0.0,8.0,4.0,1.0,6.0,0.0,0.0,2.0,0.0,part_2,stop,500.0,500.0,4.0,,,,,,,,,blue,circle
0.0,5.0,1.0,1.0,6.0,0.0,0.0,2.0,0.0,part_2,stop,500.0,550.0,4.0,,,,,,,,,magenta,hexagon
0.0,1.0,1.0,0.0,6.0,6.0,905.8452809999836,3.0,0.0,part_2,go,500.0,600.0,1.0,,,,,,,,,orange,square
0.0,1.0,1.0,0.0,6.0,6.0,697.5248029998511,3.0,0.0,part_2,go,500.0,600.0,1.0,,,,,,,,,orange,square
0.0,5.0,1.0,1.0,5.0,5.0,324.6228860002702,3.0,0.0,part_2,stop,500.0,600.0,3.0,,,,,,,,,magenta,hexagon
0.0,2.0,2.0,0.0,5.0,5.0,568.888847999915,3.0,0.0,part_2,go,450.0,600.0,1.0,,,,,,,,,cyan,diamond
0.0,7.0,3.0,1.0,5.0,5.0,305.1025160002609,3.0,0.0,part_2,stop,450.0,600.0,3.0,,,,,,,,,yellow,cross
0.0,5.0,1.0,1.0,6.0,6.0,663.9597789999243,3.0,0.0,part_2,go,400.0,600.0,1.0,,,,,,,,,magenta,hexagon
0.0,3.0,3.0,0.0,5.0,5.0,657.7659509998739,3.0,0.0,part_2,go,400.0,600.0,1.0,,,,,,,,,green,triangle
0.0,1.0,1.0,0.0,5.0,5.0,661.2581179997505,3.0,0.0,part_2,go,400.0,600.0,1.0,,,,,,,,,orange,square
0.0,8.0,4.0,1.0,6.0,6.0,511.345768999945,3.0,0.0,part_2,go,400.0,600.0,1.0,,,,,,,,,blue,circle
0.0,1.0,1.0,0.0,6.0,6.0,349.4031949999225,3.0,0.0,part_2,go,400.0,600.0,1.0,,,,,,,,,orange,square
0.0,1.0,1.0,0.0,5.0,5.0,390.3071710001313,3.0,0.0,part_2,go,400.0,600.0,1.0,,,,,,,,,orange,square
0.0,1.0,1.0,0.0,5.0,5.0,429.4732859998476,3.0,0.0,part_2,go,400.0,600.0,1.0,,,,,,,,,orange,square
0.0,7.0,3.0,1.0,6.0,6.0,323.0570260002423,3.0,0.0,part_2,stop,400.0,600.0,3.0,,,,,,,,,yellow,cross
0.0,4.0,4.0,0.0,6.0,6.0,510.3094589999273,3.0,0.0,part_2,go,400.0,550.0,1.0,,,,,,,,,white,I
0.0,2.0,2.0,0.0,5.0,5.0,542.196974000035,3.0,0.0,part_2,go,400.0,550.0,1.0,,,,,,,,,cyan,diamond
0.0,7.0,3.0,1.0,5.0,5.0,395.4896519999238,3.0,0.0,part_2,go,400.0,550.0,1.0,,,,,,,,,yellow,cross
0.0,4.0,4.0,0.0,6.0,6.0,354.5498469998165,3.0,0.0,part_2,go,400.0,550.0,1.0,,,,,,,,,white,I
0.0,1.0,1.0,0.0,6.0,6.0,697.7428860000146,3.0,0.0,part_2,go,400.0,550.0,1.0,,,,,,,,,orange,square
0.0,6.0,2.0,1.0,5.0,5.0,543.7787550004032,3.0,0.0,part_2,stop,400.0,550.0,3.0,,,,,,,,,gray,flipped triangle
0.0,8.0,4.0,1.0,5.0,0.0,0.0,3.0,0.0,part_2,stop,350.0,550.0,4.0,,,,,,,,,blue,circle
0.0,7.0,3.0,1.0,5.0,5.0,936.642498999845,3.0,0.0,part_2,go,400.0,550.0,1.0,,,,,,,,,yellow,cross
0.0,2.0,2.0,0.0,5.0,5.0,513.8246100000288,3.0,0.0,part_2,go,400.0,550.0,1.0,,,,,,,,,cyan,diamond
0.0,7.0,3.0,1.0,5.0,5.0,354.2711810000583,3.0,0.0,part_2,stop,400.0,550.0,3.0,,,,,,,,,yellow,cross
0.0,2.0,2.0,0.0,5.0,5.0,360.4773239999304,3.0,0.0,part_2,go,350.0,550.0,1.0,,,,,,,,,cyan,diamond
0.0,4.0,4.0,0.0,5.0,5.0,351.404748999812,3.0,0.0,part_2,go,350.0,550.0,1.0,,,,,,,,,white,I
0.0,4.0,4.0,0.0,5.0,5.0,350.5084660000648,3.0,0.0,part_2,go,350.0,550.0,1.0,,,,,,,,,white,I
0.0,8.0,4.0,1.0,6.0,6.0,376.855493000221,3.0,0.0,part_2,stop,350.0,550.0,3.0,,,,,,,,,blue,circle
0.0,8.0,4.0,1.0,5.0,5.0,662.76453699993,3.0,0.0,part_2,go,350.0,500.0,1.0,,,,,,,,,blue,circle
0.0,4.0,4.0,0.0,5.0,5.0,514.7344890001477,3.0,0.0,part_2,go,350.0,500.0,1.0,,,,,,,,,white,I
0.0,6.0,2.0,1.0,5.0,0.0,0.0,3.0,0.0,part_2,stop,350.0,500.0,4.0,,,,,,,,,gray,flipped triangle
0.0,4.0,4.0,0.0,5.0,5.0,640.7713080002395,3.0,0.0,part_2,go,400.0,500.0,1.0,,,,,,,,,white,I
0.0,5.0,1.0,1.0,5.0,0.0,0.0,3.0,0.0,part_2,stop,400.0,500.0,4.0,,,,,,,,,magenta,hexagon
0.0,8.0,4.0,1.0,5.0,5.0,519.0873110000211,3.0,0.0,part_2,stop,450.0,500.0,3.0,,,,,,,,,blue,circle
0.0,3.0,3.0,0.0,5.0,5.0,605.0818769999751,3.0,0.0,part_2,go,400.0,500.0,1.0,,,,,,,,,green,triangle
0.0,2.0,2.0,0.0,6.0,6.0,772.3946900000556,3.0,0.0,part_2,go,400.0,500.0,1.0,,,,,,,,,cyan,diamond
0.0,5.0,1.0,1.0,6.0,6.0,589.1404419999162,3.0,0.0,part_2,stop,400.0,500.0,3.0,,,,,,,,,magenta,hexagon
0.0,7.0,3.0,1.0,5.0,0.0,0.0,4.0,0.0,part_2,stop,400.0,450.0,4.0,,,,,,,,,yellow,cross
0.0,3.0,3.0,0.0,6.0,6.0,629.8821139998836,4.0,0.0,part_2,go,450.0,450.0,1.0,,,,,,,,,green,triangle
0.0,5.0,1.0,1.0,5.0,0.0,0.0,4.0,0.0,part_2,stop,450.0,450.0,4.0,,,,,,,,,magenta,hexagon
0.0,4.0,4.0,0.0,5.0,5.0,1094.9744839999769,4.0,0.0,part_2,go,500.0,450.0,1.0,,,,,,,,,white,I
0.0,4.0,4.0,0.0,5.0,5.0,641.4800679999644,4.0,0.0,part_2,go,500.0,450.0,1.0,,,,,,,,,white,I
0.0,6.0,2.0,1.0,5.0,5.0,731.3948940000046,4.0,0.0,part_2,go,500.0,450.0,1.0,,,,,,,,,gray,flipped triangle
0.0,7.0,3.0,1.0,6.0,6.0,639.047887000288,4.0,0.0,part_2,stop,500.0,450.0,3.0,,,,,,,,,yellow,cross
0.0,7.0,3.0,1.0,5.0,0.0,0.0,4.0,0.0,part_2,stop,500.0,400.0,4.0,,,,,,,,,yellow,cross
0.0,5.0,1.0,1.0,5.0,5.0,716.9042420000551,4.0,0.0,part_2,go,550.0,400.0,1.0,,,,,,,,,magenta,hexagon
0.0,2.0,2.0,0.0,6.0,6.0,386.230357000386,4.0,0.0,part_2,go,550.0,400.0,1.0,,,,,,,,,cyan,diamond
0.0,8.0,4.0,1.0,6.0,6.0,583.3951720001096,4.0,0.0,part_2,go,550.0,400.0,1.0,,,,,,,,,blue,circle
0.0,7.0,3.0,1.0,6.0,6.0,364.8928610000439,4.0,0.0,part_2,stop,550.0,400.0,3.0,,,,,,,,,yellow,cross
0.0,1.0,1.0,0.0,5.0,5.0,910.949965999862,4.0,0.0,part_2,go,550.0,350.0,1.0,,,,,,,,,orange,square
0.0,1.0,1.0,0.0,5.0,5.0,357.4934389998816,4.0,0.0,part_2,go,550.0,350.0,1.0,,,,,,,,,orange,square
0.0,1.0,1.0,0.0,5.0,5.0,390.9439470003235,4.0,0.0,part_2,go,550.0,350.0,1.0,,,,,,,,,orange,square
0.0,6.0,2.0,1.0,5.0,5.0,346.9067080000059,4.0,0.0,part_2,stop,550.0,350.0,3.0,,,,,,,,,gray,flipped triangle
0.0,6.0,2.0,1.0,5.0,5.0,657.8065939997941,4.0,0.0,part_2,go,500.0,350.0,1.0,,,,,,,,,gray,flipped triangle
0.0,3.0,3.0,0.0,6.0,6.0,270.6850469999153,4.0,0.0,part_2,go,500.0,350.0,1.0,,,,,,,,,green,triangle
0.0,4.0,4.0,0.0,6.0,6.0,407.7149250001639,4.0,0.0,part_2,go,500.0,350.0,1.0,,,,,,,,,white,I
0.0,8.0,4.0,1.0,5.0,5.0,291.1311160000878,4.0,0.0,part_2,go,500.0,350.0,1.0,,,,,,,,,blue,circle
0.0,3.0,3.0,0.0,5.0,5.0,305.6111989999408,4.0,0.0,part_2,go,500.0,350.0,1.0,,,,,,,,,green,triangle
0.0,2.0,2.0,0.0,5.0,5.0,249.5273130002715,4.0,0.0,part_2,go,500.0,350.0,1.0,,,,,,,,,cyan,diamond
0.0,2.0,2.0,0.0,5.0,5.0,291.8309269998644,4.0,0.0,part_2,go,500.0,350.0,1.0,,,,,,,,,cyan,diamond
0.0,8.0,4.0,1.0,6.0,6.0,327.0414950002305,4.0,0.0,part_2,stop,500.0,350.0,3.0,,,,,,,,,blue,circle
0.0,8.0,4.0,1.0,6.0,0.0,0.0,4.0,0.0,part_2,stop,500.0,300.0,4.0,,,,,,,,,blue,circle
0.0,4.0,4.0,0.0,6.0,6.0,773.32653700023,4.0,0.0,part_2,go,500.0,350.0,1.0,,,,,,,,,white,I
0.0,4.0,4.0,0.0,5.0,5.0,780.6564259999504,4.0,0.0,part_2,go,500.0,350.0,1.0,,,,,,,,,white,I
0.0,3.0,3.0,0.0,5.0,5.0,392.7330980000079,4.0,0.0,part_2,go,500.0,350.0,1.0,,,,,,,,,green,triangle
0.0,6.0,2.0,1.0,5.0,0.0,0.0,4.0,0.0,part_2,stop,500.0,350.0,4.0,,,,,,,,,gray,flipped triangle
0.0,7.0,3.0,1.0,5.0,5.0,510.1984339999035,4.0,0.0,part_2,stop,550.0,350.0,3.0,,,,,,,,,yellow,cross
0.0,7.0,3.0,1.0,5.0,5.0,499.7969679998277,4.0,0.0,part_2,stop,500.0,350.0,3.0,,,,,,,,,yellow,cross
0.0,7.0,3.0,1.0,6.0,6.0,554.5043830002214,4.0,0.0,part_2,go,450.0,350.0,1.0,,,,,,,,,yellow,cross
0.0,2.0,2.0,0.0,5.0,5.0,433.8540019998618,4.0,0.0,part_2,go,450.0,350.0,1.0,,,,,,,,,cyan,diamond
0.0,3.0,3.0,0.0,6.0,6.0,400.6427630001781,4.0,0.0,part_2,go,450.0,350.0,1.0,,,,,,,,,green,triangle
0.0,8.0,4.0,1.0,5.0,5.0,308.5560630001964,4.0,0.0,part_2,stop,450.0,350.0,3.0,,,,,,,,,blue,circle
0.0,3.0,3.0,0.0,5.0,5.0,821.5923969996766,4.0,0.0,part_2,go,400.0,350.0,1.0,,,,,,,,,green,triangle
0.0,5.0,1.0,1.0,6.0,6.0,504.33469999961744,5.0,0.0,part_2,go,400.0,350.0,1.0,,,,,,,,,magenta,hexagon
0.0,1.0,1.0,0.0,6.0,6.0,439.6635500002048,5.0,0.0,part_2,go,400.0,350.0,1.0,,,,,,,,,orange,square
0.0,8.0,4.0,1.0,5.0,5.0,362.4587770000289,5.0,0.0,part_2,stop,400.0,350.0,3.0,,,,,,,,,blue,circle
0.0,4.0,4.0,0.0,6.0,6.0,323.8998140000149,5.0,0.0,part_2,go,350.0,350.0,1.0,,,,,,,,,white,I
0.0,2.0,2.0,0.0,6.0,6.0,417.6425179998659,5.0,0.0,part_2,go,350.0,350.0,1.0,,,,,,,,,cyan,diamond
0.0,5.0,1.0,1.0,6.0,6.0,327.6608420001139,5.0,0.0,part_2,stop,350.0,350.0,3.0,,,,,,,,,magenta,hexagon
0.0,4.0,4.0,0.0,6.0,6.0,567.2045869996509,5.0,0.0,part_2,go,350.0,300.0,1.0,,,,,,,,,white,I
0.0,6.0,2.0,1.0,6.0,6.0,347.0642070001304,5.0,0.0,part_2,stop,350.0,300.0,3.0,,,,,,,,,gray,flipped triangle
0.0,1.0,1.0,0.0,6.0,6.0,679.1357550000612,5.0,0.0,part_2,go,350.0,250.0,1.0,,,,,,,,,orange,square
0.0,3.0,3.0,0.0,5.0,5.0,323.6020790000111,5.0,0.0,part_2,go,350.0,250.0,1.0,,,,,,,,,green,triangle
0.0,3.0,3.0,0.0,6.0,6.0,318.4832960000676,5.0,0.0,part_2,go,350.0,250.0,1.0,,,,,,,,,green,triangle
0.0,6.0,2.0,1.0,6.0,6.0,376.9787000001088,5.0,0.0,part_2,stop,350.0,250.0,3.0,,,,,,,,,gray,flipped triangle
0.0,4.0,4.0,0.0,5.0,5.0,379.5306959996196,5.0,0.0,part_2,go,350.0,200.0,1.0,,,,,,,,,white,I
0.0,2.0,2.0,0.0,5.0,5.0,325.87513999988,5.0,0.0,part_2,go,350.0,200.0,1.0,,,,,,,,,cyan,diamond
0.0,5.0,1.0,1.0,5.0,5.0,319.3260309999459,5.0,0.0,part_2,stop,350.0,200.0,3.0,,,,,,,,,magenta,hexagon
0.0,2.0,2.0,0.0,5.0,5.0,625.2463849996275,5.0,0.0,part_2,go,300.0,200.0,1.0,,,,,,,,,cyan,diamond
0.0,1.0,1.0,0.0,6.0,6.0,410.9621570000854,5.0,0.0,part_2,go,300.0,200.0,1.0,,,,,,,,,orange,square
0.0,8.0,4.0,1.0,5.0,5.0,360.5643050000253,5.0,0.0,part_2,stop,300.0,200.0,3.0,,,,,,,,,blue,circle
0.0,4.0,4.0,0.0,6.0,6.0,854.1520649996528,5.0,0.0,part_2,go,250.0,200.0,1.0,,,,,,,,,white,I
0.0,8.0,4.0,1.0,5.0,0.0,0.0,5.0,0.0,part_2,stop,250.0,200.0,4.0,,,,,,,,,blue,circle
0.0,2.0,2.0,0.0,5.0,5.0,639.9717409999539,5.0,0.0,part_2,go,300.0,200.0,1.0,,,,,,,,,cyan,diamond
0.0,6.0,2.0,1.0,6.0,0.0,0.0,5.0,0.0,part_2,stop,300.0,200.0,4.0,,,,,,,,,gray,flipped triangle
0.0,5.0,1.0,1.0,5.0,0.0,0.0,5.0,0.0,part_2,stop,300.0,250.0,4.0,,,,,,,,,magenta,hexagon
0.0,4.0,4.0,0.0,6.0,6.0,736.5600900002391,5.0,0.0,part_2,go,350.0,250.0,1.0,,,,,,,,,white,I
0.0,6.0,2.0,1.0,6.0,0.0,0.0,5.0,0.0,part_2,stop,350.0,250.0,4.0,,,,,,,,,gray,flipped triangle
0.0,4.0,4.0,0.0,5.0,5.0,554.8110909999195,5.0,0.0,part_2,go,350.0,300.0,1.0,,,,,,,,,white,I
0.0,8.0,4.0,1.0,6.0,6.0,336.6904270001214,5.0,0.0,part_2,stop,350.0,300.0,3.0,,,,,,,,,blue,circle
0.0,1.0,1.0,0.0,6.0,6.0,555.2276819998951,5.0,0.0,part_2,go,350.0,250.0,1.0,,,,,,,,,orange,square
0.0,7.0,3.0,1.0,6.0,6.0,331.28430700026,5.0,0.0,part_2,stop,350.0,250.0,3.0,,,,,,,,,yellow,cross
0.0,6.0,2.0,1.0,6.0,0.0,0.0,5.0,0.0,part_2,stop,350.0,200.0,4.0,,,,,,,,,gray,flipped triangle
0.0,2.0,2.0,0.0,6.0,6.0,971.7445979999866,5.0,0.0,part_2,go,350.0,250.0,1.0,,,,,,,,,cyan,diamond
0.0,3.0,3.0,0.0,5.0,5.0,450.2017459999479,5.0,0.0,part_2,go,350.0,250.0,1.0,,,,,,,,,green,triangle
0.0,6.0,2.0,1.0,6.0,6.0,364.9272100001326,5.0,0.0,part_2,go,350.0,250.0,1.0,,,,,,,,,gray,flipped triangle
0.0,3.0,3.0,0.0,5.0,5.0,310.3921150000133,5.0,0.0,part_2,go,350.0,250.0,1.0,,,,,,,,,green,triangle
0.0,1.0,1.0,0.0,6.0,6.0,438.3275969998976,5.0,0.0,part_2,go,350.0,250.0,1.0,,,,,,,,,orange,square
0.0,4.0,4.0,0.0,6.0,6.0,305.4805499996291,5.0,0.0,part_2,go,350.0,250.0,1.0,,,,,,,,,white,I
0.0,1.0,1.0,0.0,5.0,5.0,399.8417909997442,6.0,0.0,part_2,go,350.0,250.0,1.0,,,,,,,,,orange,square
0.0,6.0,2.0,1.0,6.0,0.0,0.0,6.0,0.0,part_2,stop,350.0,250.0,4.0,,,,,,,,,gray,flipped triangle
0.0,8.0,4.0,1.0,6.0,6.0,431.5083669998785,6.0,0.0,part_2,stop,350.0,300.0,3.0,,,,,,,,,blue,circle
0.0,1.0,1.0,0.0,6.0,6.0,528.2700530001421,6.0,0.0,part_2,go,350.0,250.0,1.0,,,,,,,,,orange,square
0.0,2.0,2.0,0.0,6.0,6.0,347.6129360001323,6.0,0.0,part_2,go,350.0,250.0,1.0,,,,,,,,,cyan,diamond
0.0,4.0,4.0,0.0,5.0,5.0,333.6790890002703,6.0,0.0,part_2,go,350.0,250.0,1.0,,,,,,,,,white,I
0.0,1.0,1.0,0.0,6.0,6.0,338.4657999999945,6.0,0.0,part_2,go,350.0,250.0,1.0,,,,,,,,,orange,square
0.0,7.0,3.0,1.0,5.0,5.0,256.9369560001178,6.0,0.0,part_2,stop,350.0,250.0,3.0,,,,,,,,,yellow,cross
0.0,8.0,4.0,1.0,6.0,0.0,0.0,6.0,0.0,part_2,stop,300.0,250.0,4.0,,,,,,,,,blue,circle
0.0,6.0,2.0,1.0,5.0,5.0,534.6800709999115,6.0,0.0,part_2,go,300.0,300.0,1.0,,,,,,,,,gray,flipped triangle
0.0,1.0,1.0,0.0,6.0,6.0,372.3421919999055,6.0,0.0,part_2,go,300.0,300.0,1.0,,,,,,,,,orange,square
0.0,8.0,4.0,1.0,6.0,6.0,422.3943550000513,6.0,0.0,part_2,go,300.0,300.0,1.0,,,,,,,,,blue,circle
0.0,4.0,4.0,0.0,5.0,5.0,362.9206109999359,6.0,0.0,part_2,go,300.0,300.0,1.0,,,,,,,,,white,I
0.0,4.0,4.0,0.0,5.0,5.0,347.8167610001037,6.0,0.0,part_2,go,300.0,300.0,1.0,,,,,,,,,white,I
0.0,3.0,3.0,0.0,6.0,6.0,295.5508449999797,6.0,0.0,part_2,go,300.0,300.0,1.0,,,,,,,,,green,triangle
0.0,4.0,4.0,0.0,6.0,6.0,358.0489570003919,6.0,0.0,part_2,go,300.0,300.0,1.0,,,,,,,,,white,I
0.0,1.0,1.0,0.0,5.0,5.0,306.2947399998847,6.0,0.0,part_2,go,300.0,300.0,1.0,,,,,,,,,orange,square
0.0,2.0,2.0,0.0,5.0,5.0,403.1281399998079,6.0,0.0,part_2,go,300.0,300.0,1.0,,,,,,,,,cyan,diamond
0.0,8.0,4.0,1.0,6.0,6.0,352.6085480002621,6.0,0.0,part_2,stop,300.0,300.0,3.0,,,,,,,,,blue,circle
0.0,8.0,4.0,1.0,5.0,5.0,513.5027090000222,6.0,0.0,part_2,go,300.0,250.0,1.0,,,,,,,,,blue,circle
0.0,6.0,2.0,1.0,6.0,6.0,336.5123220000896,6.0,0.0,part_2,go,300.0,250.0,1.0,,,,,,,,,gray,flipped triangle
0.0,3.0,3.0,0.0,6.0,6.0,332.6778509999712,6.0,0.0,part_2,go,300.0,250.0,1.0,,,,,,,,,green,triangle
0.0,1.0,1.0,0.0,6.0,6.0,550.4094739999346,6.0,0.0,part_2,go,300.0,250.0,1.0,,,,,,,,,orange,square
0.0,1.0,1.0,0.0,5.0,5.0,312.496020999788,6.0,0.0,part_2,go,300.0,250.0,1.0,,,,,,,,,orange,square
0.0,3.0,3.0,0.0,5.0,5.0,294.3672590004098,6.0,0.0,part_2,go,300.0,250.0,1.0,,,,,,,,,green,triangle
0.0,8.0,4.0,1.0,5.0,5.0,372.6387370002157,6.0,0.0,part_2,stop,300.0,250.0,3.0,,,,,,,,,blue,circle
0.0,2.0,2.0,0.0,6.0,6.0,346.8998139996984,6.0,0.0,part_2,go,250.0,250.0,1.0,,,,,,,,,cyan,diamond
0.0,8.0,4.0,1.0,6.0,6.0,322.7789190000294,6.0,0.0,part_2,go,250.0,250.0,1.0,,,,,,,,,blue,circle
0.0,5.0,1.0,1.0,6.0,6.0,323.4676410002066,6.0,0.0,part_2,go,250.0,250.0,1.0,,,,,,,,,magenta,hexagon
0.0,6.0,2.0,1.0,6.0,6.0,345.7399909998457,6.0,0.0,part_2,go,250.0,250.0,1.0,,,,,,,,,gray,flipped triangle
0.0,7.0,3.0,1.0,5.0,5.0,356.7806359997121,6.0,0.0,part_2,go,250.0,250.0,1.0,,,,,,,,,yellow,cross
0.0,5.0,1.0,1.0,6.0,6.0,306.5169949995834,6.0,0.0,part_2,stop,250.0,250.0,3.0,,,,,,,,,magenta,hexagon
0.0,7.0,3.0,1.0,6.0,0.0,0.0,6.0,0.0,part_2,stop,250.0,200.0,4.0,,,,,,,,,yellow,cross
0.0,7.0,3.0,1.0,5.0,5.0,355.5744360000972,6.0,0.0,part_2,stop,250.0,250.0,3.0,,,,,,,,,yellow,cross
0.0,2.0,2.0,0.0,6.0,6.0,583.2946089999496,6.0,0.0,part_2,go,200.0,250.0,1.0,,,,,,,,,cyan,diamond
0.0,6.0,2.0,1.0,6.0,0.0,0.0,6.0,0.0,part_2,stop,200.0,250.0,4.0,,,,,,,,,gray,flipped triangle
0.0,4.0,4.0,0.0,6.0,6.0,545.6536350002352,7.0,0.0,part_2,go,200.0,300.0,1.0,,,,,,,,,white,I
0.0,4.0,4.0,0.0,5.0,5.0,639.9942060002104,7.0,0.0,part_2,go,200.0,300.0,1.0,,,,,,,,,white,I
0.0,3.0,3.0,0.0,5.0,5.0,357.5231840000015,7.0,0.0,part_2,go,200.0,300.0,1.0,,,,,,,,,green,triangle
0.0,4.0,4.0,0.0,5.0,5.0,342.6088999999592,7.0,0.0,part_2,go,200.0,300.0,1.0,,,,,,,,,white,I
0.0,1.0,1.0,0.0,6.0,6.0,288.6904609999874,7.0,0.0,part_2,go,200.0,300.0,1.0,,,,,,,,,orange,square
0.0,6.0,2.0,1.0,6.0,6.0,334.6926750000421,7.0,0.0,part_2,stop,200.0,300.0,3.0,,,,,,,,,gray,flipped triangle
0.0,3.0,3.0,0.0,5.0,5.0,529.8556269999608,7.0,0.0,part_2,go,200.0,250.0,1.0,,,,,,,,,green,triangle
0.0,1.0,1.0,0.0,6.0,6.0,434.0747470000679,7.0,0.0,part_2,go,200.0,250.0,1.0,,,,,,,,,orange,square
0.0,7.0,3.0,1.0,6.0,6.0,366.3098789998003,7.0,0.0,part_2,stop,200.0,250.0,3.0,,,,,,,,,yellow,cross
0.0,5.0,1.0,1.0,5.0,5.0,600.7182029998148,7.0,0.0,part_2,go,200.0,200.0,1.0,,,,,,,,,magenta,hexagon
0.0,2.0,2.0,0.0,5.0,5.0,484.2534599997634,7.0,0.0,part_2,go,200.0,200.0,1.0,,,,,,,,,cyan,diamond
0.0,5.0,1.0,1.0,5.0,5.0,358.1062009998277,7.0,0.0,part_2,stop,200.0,200.0,3.0,,,,,,,,,magenta,hexagon
0.0,6.0,2.0,1.0,5.0,0.0,0.0,7.0,0.0,part_2,stop,150.0,200.0,4.0,,,,,,,,,gray,flipped triangle
0.0,7.0,3.0,1.0,5.0,0.0,0.0,7.0,0.0,part_2,stop,200.0,200.0,4.0,,,,,,,,,yellow,cross
0.0,6.0,2.0,1.0,6.0,6.0,548.0500849998862,7.0,0.0,part_2,go,250.0,200.0,1.0,,,,,,,,,gray,flipped triangle
0.0,2.0,2.0,0.0,6.0,6.0,617.6376230000642,7.0,0.0,part_2,go,250.0,200.0,1.0,,,,,,,,,cyan,diamond
0.0,5.0,1.0,1.0,6.0,0.0,0.0,7.0,0.0,part_2,stop,250.0,200.0,4.0,,,,,,,,,magenta,hexagon
0.0,8.0,4.0,1.0,6.0,0.0,0.0,7.0,0.0,part_2,stop,250.0,250.0,4.0,,,,,,,,,blue,circle
0.0,4.0,4.0,0.0,6.0,6.0,625.8359529997506,7.0,0.0,part_2,go,250.0,300.0,1.0,,,,,,,,,white,I
0.0,5.0,1.0,1.0,6.0,0.0,0.0,7.0,0.0,part_2,stop,250.0,300.0,4.0,,,,,,,,,magenta,hexagon
0.0,5.0,1.0,1.0,5.0,0.0,0.0,7.0,0.0,part_2,stop,250.0,350.0,4.0,,,,,,,,,magenta,hexagon
0.0,6.0,2.0,1.0,5.0,0.0,0.0,7.0,0.0,part_2,stop,300.0,350.0,4.0,,,,,,,,,gray,flipped triangle
0.0,1.0,1.0,0.0,5.0,5.0,406.1528799998086,7.0,0.0,part_2,go,350.0,350.0,1.0,,,,,,,,,orange,square
0.0,2.0,2.0,0.0,6.0,6.0,319.0548659999876,7.0,0.0,part_2,go,350.0,350.0,1.0,,,,,,,,,cyan,diamond
0.0,7.0,3.0,1.0,6.0,6.0,545.682023000154,7.0,0.0,part_2,go,350.0,350.0,1.0,,,,,,,,,yellow,cross
0.0,5.0,1.0,1.0,6.0,6.0,385.6164990002071,7.0,0.0,part_2,stop,350.0,350.0,3.0,,,,,,,,,magenta,hexagon
0.0,5.0,1.0,1.0,5.0,5.0,628.4785860002557,7.0,0.0,part_2,go,350.0,300.0,1.0,,,,,,,,,magenta,hexagon
0.0,3.0,3.0,0.0,6.0,6.0,590.8132009999463,7.0,0.0,part_2,go,350.0,300.0,1.0,,,,,,,,,green,triangle
0.0,3.0,3.0,0.0,5.0,5.0,751.4514709996547,7.0,0.0,part_2,go,350.0,300.0,1.0,,,,,,,,,green,triangle
0.0,5.0,1.0,1.0,5.0,5.0,425.2162699999644,7.0,0.0,part_2,go,350.0,300.0,1.0,,,,,,,,,magenta,hexagon
0.0,1.0,1.0,0.0,6.0,6.0,343.2539989998986,7.0,0.0,part_2,go,350.0,300.0,1.0,,,,,,,,,orange,square
0.0,8.0,4.0,1.0,5.0,5.0,441.6413180001655,7.0,0.0,part_2,go,350.0,300.0,1.0,,,,,,,,,blue,circle
0.0,7.0,3.0,1.0,5.0,0.0,0.0,7.0,0.0,part_2,stop,350.0,300.0,4.0,,,,,,,,,yellow,cross
0.0,4.0,4.0,0.0,6.0,6.0,576.4384750000318,7.0,0.0,part_2,go,400.0,300.0,1.0,,,,,,,,,white,I
0.0,2.0,2.0,0.0,5.0,5.0,503.34301800012327,7.0,0.0,part_2,go,400.0,300.0,1.0,,,,,,,,,cyan,diamond
0.0,1.0,1.0,0.0,5.0,5.0,384.6271219999835,7.0,0.0,part_2,go,400.0,300.0,1.0,,,,,,,,,orange,square
0.0,5.0,1.0,1.0,5.0,0.0,0.0,8.0,0.0,part_2,stop,400.0,300.0,4.0,,,,,,,,,magenta,hexagon
0.0,6.0,2.0,1.0,5.0,5.0,368.6457339999833,8.0,0.0,part_2,go,450.0,300.0,1.0,,,,,,,,,gray,flipped triangle
0.0,7.0,3.0,1.0,6.0,6.0,341.7891300000519,8.0,0.0,part_2,stop,450.0,300.0,3.0,,,,,,,,,yellow,cross
0.0,5.0,1.0,1.0,5.0,5.0,513.4723239998493,8.0,0.0,part_2,stop,450.0,250.0,3.0,,,,,,,,,magenta,hexagon
0.0,3.0,3.0,0.0,6.0,6.0,564.2609490000723,8.0,0.0,part_2,go,400.0,250.0,1.0,,,,,,,,,green,triangle
0.0,8.0,4.0,1.0,5.0,5.0,501.6737790001571,8.0,0.0,part_2,stop,400.0,250.0,3.0,,,,,,,,,blue,circle
0.0,7.0,3.0,1.0,6.0,0.0,0.0,8.0,0.0,part_2,stop,350.0,250.0,4.0,,,,,,,,,yellow,cross
0.0,5.0,1.0,1.0,6.0,6.0,410.4910219998601,8.0,0.0,part_2,stop,350.0,300.0,3.0,,,,,,,,,magenta,hexagon
0.0,4.0,4.0,0.0,6.0,6.0,775.3363120000358,8.0,0.0,part_2,go,350.0,250.0,1.0,,,,,,,,,white,I
0.0,8.0,4.0,1.0,6.0,0.0,0.0,8.0,0.0,part_2,stop,350.0,250.0,4.0,,,,,,,,,blue,circle
0.0,5.0,1.0,1.0,6.0,0.0,0.0,8.0,0.0,part_2,stop,350.0,300.0,4.0,,,,,,,,,magenta,hexagon
0.0,7.0,3.0,1.0,6.0,6.0,423.2278069998756,8.0,0.0,part_2,go,350.0,350.0,1.0,,,,,,,,,yellow,cross
0.0,1.0,1.0,0.0,5.0,5.0,890.7605619997412,8.0,0.0,part_2,go,350.0,350.0,1.0,,,,,,,,,orange,square
0.0,6.0,2.0,1.0,5.0,5.0,488.9657570001873,8.0,0.0,part_2,stop,350.0,350.0,3.0,,,,,,,,,gray,flipped triangle
0.0,8.0,4.0,1.0,5.0,5.0,807.4308820000624,8.0,0.0,part_2,go,300.0,350.0,1.0,,,,,,,,,blue,circle
0.0,8.0,4.0,1.0,6.0,0.0,0.0,8.0,0.0,part_2,stop,300.0,350.0,4.0,,,,,,,,,blue,circle
0.0,3.0,3.0,0.0,6.0,6.0,703.2859369992366,8.0,0.0,part_2,go,300.0,400.0,1.0,,,,,,,,,green,triangle
0.0,2.0,2.0,0.0,6.0,6.0,820.6423820001874,8.0,0.0,part_2,go,300.0,400.0,1.0,,,,,,,,,cyan,diamond
0.0,2.0,2.0,0.0,6.0,6.0,608.1802310000057,8.0,0.0,part_2,go,300.0,400.0,1.0,,,,,,,,,cyan,diamond
0.0,3.0,3.0,0.0,6.0,6.0,634.4728990006843,8.0,0.0,part_2,go,300.0,400.0,1.0,,,,,,,,,green,triangle
0.0,4.0,4.0,0.0,5.0,5.0,653.1100419997529,8.0,0.0,part_2,go,300.0,400.0,1.0,,,,,,,,,white,I
0.0,4.0,4.0,0.0,6.0,6.0,591.7700150002929,8.0,0.0,part_2,go,300.0,400.0,1.0,,,,,,,,,white,I
0.0,5.0,1.0,1.0,6.0,0.0,0.0,8.0,0.0,part_2,stop,300.0,400.0,4.0,,,,,,,,,magenta,hexagon
0.0,7.0,3.0,1.0,6.0,6.0,620.9044830002313,8.0,0.0,part_2,stop,300.0,450.0,3.0,,,,,,,,,yellow,cross
0.0,8.0,4.0,1.0,5.0,0.0,0.0,8.0,0.0,part_2,stop,300.0,400.0,4.0,,,,,,,,,blue,circle
0.0,7.0,3.0,1.0,6.0,6.0,723.5063160005666,8.0,0.0,part_2,go,350.0,400.0,1.0,,,,,,,,,yellow,cross
0.0,7.0,3.0,1.0,5.0,5.0,546.2836059996334,8.0,0.0,part_2,go,350.0,400.0,1.0,,,,,,,,,yellow,cross
0.0,5.0,1.0,1.0,5.0,5.0,497.100758999295,8.0,0.0,part_2,go,350.0,400.0,1.0,,,,,,,,,magenta,hexagon
0.0,7.0,3.0,1.0,6.0,6.0,349.6899319998192,8.0,0.0,part_2,stop,350.0,400.0,3.0,,,,,,,,,yellow,cross
0.0,7.0,3.0,1.0,5.0,0.0,0.0,8.0,0.0,part_2,stop,350.0,350.0,4.0,,,,,,,,,yellow,cross
0.0,6.0,2.0,1.0,5.0,0.0,0.0,8.0,0.0,part_2,stop,400.0,350.0,4.0,,,,,,,,,gray,flipped triangle
0.0,3.0,3.0,0.0,5.0,5.0,879.6156859998518,8.0,0.0,part_2,go,450.0,350.0,1.0,,,,,,,,,green,triangle
0.0,7.0,3.0,1.0,6.0,0.0,0.0,8.0,0.0,part_2,stop,450.0,350.0,4.0,,,,,,,,,yellow,cross
0.0,3.0,3.0,0.0,6.0,6.0,1167.4743679996027,8.0,0.0,part_2,go,450.0,400.0,1.0,,,,,,,,,green,triangle
0.0,6.0,2.0,1.0,6.0,0.0,0.0,8.0,0.0,part_2,stop,450.0,400.0,4.0,,,,,,,,,gray,flipped triangle
0.0,4.0,4.0,0.0,5.0,5.0,635.145244999876,8.0,0.0,part_2,go,450.0,450.0,1.0,,,,,,,,,white,I
0.0,2.0,2.0,0.0,7.0,4.0,3719.495649999771,1.0,1.0,part_3,go,0.0,0.0,0.0,156.0,4.0,234.0,117.0,195.0,156.0,78.0,39.0,cyan,diamond
0.0,3.0,3.0,0.0,7.0,5.0,3599.9356449992774,1.0,1.0,part_3,go,0.0,0.0,0.0,132.0,3.0,44.0,88.0,176.0,220.0,132.0,264.0,green,triangle
0.0,2.0,2.0,0.0,7.0,1.0,4844.890307999776,1.0,1.0,part_3,go,0.0,0.0,0.0,132.0,3.0,132.0,88.0,264.0,176.0,44.0,220.0,cyan,diamond
0.0,2.0,2.0,0.0,7.0,6.0,3092.032974000176,1.0,1.0,part_3,go,0.0,0.0,0.0,162.0,3.0,270.0,54.0,324.0,216.0,108.0,162.0,cyan,diamond
0.0,6.0,2.0,1.0,7.0,5.0,4513.9875690001645,1.0,1.0,part_3,go,0.0,0.0,0.0,147.0,3.0,196.0,98.0,294.0,245.0,147.0,49.0,gray,flipped triangle
0.0,1.0,1.0,0.0,7.0,4.0,3246.239918000356,1.0,1.0,part_3,go,0.0,0.0,0.0,108.0,2.0,54.0,162.0,270.0,108.0,324.0,216.0,orange,square
0.0,3.0,3.0,0.0,7.0,1.0,3540.8067389998905,1.0,1.0,part_3,go,0.0,0.0,0.0,136.0,4.0,136.0,34.0,68.0,204.0,170.0,102.0,green,triangle
0.0,7.0,3.0,1.0,7.0,1.0,3816.383095000674,1.0,1.0,part_3,go,0.0,0.0,0.0,117.0,3.0,117.0,78.0,195.0,234.0,156.0,39.0,yellow,cross
0.0,7.0,3.0,1.0,7.0,1.0,1736.2605110001823,1.0,1.0,part_3,go,0.0,0.0,0.0,132.0,3.0,132.0,264.0,88.0,176.0,44.0,220.0,yellow,cross
0.0,1.0,1.0,0.0,7.0,1.0,4469.269541000358,1.0,1.0,part_3,go,0.0,0.0,0.0,117.0,3.0,117.0,39.0,195.0,156.0,78.0,234.0,orange,square
0.0,7.0,3.0,1.0,7.0,5.0,3088.8687990000108,1.0,1.0,part_3,go,0.0,0.0,0.0,108.0,2.0,216.0,324.0,162.0,270.0,108.0,54.0,yellow,cross
0.0,5.0,1.0,1.0,7.0,2.0,3455.1684409998416,1.0,1.0,part_3,go,0.0,0.0,0.0,132.0,3.0,264.0,132.0,176.0,44.0,88.0,220.0,magenta,hexagon
0.0,6.0,2.0,1.0,7.0,3.0,2919.1921860001457,1.0,1.0,part_3,go,0.0,0.0,0.0,136.0,4.0,102.0,68.0,136.0,204.0,34.0,170.0,gray,flipped triangle
0.0,4.0,4.0,0.0,7.0,4.0,2686.778360000062,1.0,1.0,part_3,go,0.0,0.0,0.0,147.0,3.0,245.0,294.0,98.0,147.0,49.0,196.0,white,I
0.0,5.0,1.0,1.0,7.0,6.0,2540.340789999391,1.0,1.0,part_3,go,0.0,0.0,0.0,132.0,3.0,88.0,176.0,220.0,44.0,264.0,132.0,magenta,hexagon
0.0,2.0,2.0,0.0,7.0,5.0,3419.888807999996,1.0,1.0,part_3,go,0.0,0.0,0.0,147.0,3.0,49.0,98.0,245.0,294.0,147.0,196.0,cyan,diamond
0.0,7.0,3.0,1.0,7.0,2.0,3479.58438599926,1.0,1.0,part_3,go,0.0,0.0,0.0,108.0,2.0,54.0,108.0,270.0,324.0,216.0,162.0,yellow,cross
0.0,3.0,3.0,0.0,7.0,3.0,3031.922819999636,1.0,1.0,part_3,go,0.0,0.0,0.0,132.0,3.0,220.0,264.0,132.0,88.0,176.0,44.0,green,triangle
0.0,8.0,4.0,1.0,7.0,1.0,2308.6272000000463,1.0,1.0,part_3,go,0.0,0.0,0.0,132.0,3.0,132.0,44.0,88.0,220.0,176.0,264.0,blue,circle
0.0,1.0,1.0,0.0,7.0,6.0,2409.8145870002554,1.0,1.0,part_3,go,0.0,0.0,0.0,147.0,3.0,196.0,49.0,98.0,294.0,245.0,147.0,orange,square
0.0,5.0,1.0,1.0,7.0,4.0,2673.888985999838,2.0,1.0,part_3,go,0.0,0.0,0.0,108.0,2.0,54.0,216.0,162.0,108.0,324.0,270.0,magenta,hexagon
0.0,1.0,1.0,0.0,7.0,6.0,2482.3788800003967,2.0,1.0,part_3,go,0.0,0.0,0.0,147.0,3.0,196.0,294.0,98.0,245.0,49.0,147.0,orange,square
0.0,2.0,2.0,0.0,7.0,3.0,2361.51423299998,2.0,1.0,part_3,go,0.0,0.0,0.0,117.0,3.0,78.0,156.0,117.0,234.0,195.0,39.0,cyan,diamond
0.0,7.0,3.0,1.0,7.0,1.0,1990.9028840002063,2.0,1.0,part_3,go,0.0,0.0,0.0,132.0,3.0,132.0,88.0,176.0,220.0,44.0,264.0,yellow,cross
0.0,4.0,4.0,0.0,7.0,3.0,1805.629475999922,2.0,1.0,part_3,go,0.0,0.0,0.0,147.0,3.0,294.0,245.0,147.0,98.0,196.0,49.0,white,I
0.0,3.0,3.0,0.0,7.0,5.0,2789.2272509998293,2.0,1.0,part_3,go,0.0,0.0,0.0,117.0,3.0,195.0,39.0,234.0,156.0,117.0,78.0,green,triangle
0.0,1.0,1.0,0.0,7.0,4.0,2578.7538049999057,2.0,1.0,part_3,go,0.0,0.0,0.0,132.0,3.0,88.0,220.0,176.0,132.0,44.0,264.0,orange,square
0.0,8.0,4.0,1.0,7.0,6.0,3348.3476729998074,2.0,1.0,part_3,go,0.0,0.0,0.0,136.0,4.0,34.0,170.0,204.0,68.0,102.0,136.0,blue,circle
0.0,3.0,3.0,0.0,7.0,2.0,2704.9698419996275,2.0,1.0,part_3,go,0.0,0.0,0.0,147.0,3.0,294.0,147.0,98.0,49.0,245.0,196.0,green,triangle
0.0,4.0,4.0,0.0,7.0,2.0,2637.680756000009,2.0,1.0,part_3,go,0.0,0.0,0.0,102.0,3.0,136.0,102.0,204.0,34.0,68.0,170.0,white,I
0.0,4.0,4.0,0.0,7.0,5.0,4979.477302000305,2.0,1.0,part_3,go,0.0,0.0,0.0,117.0,3.0,39.0,78.0,195.0,234.0,117.0,156.0,white,I
0.0,1.0,1.0,0.0,7.0,5.0,1679.191689999243,2.0,2.0,part_3,go,0.0,0.0,0.0,136.0,4.0,102.0,34.0,204.0,68.0,136.0,170.0,orange,square
0.0,2.0,2.0,0.0,7.0,2.0,1554.1189109999325,2.0,1.0,part_3,go,0.0,0.0,0.0,136.0,4.0,102.0,136.0,34.0,68.0,204.0,170.0,cyan,diamond
0.0,8.0,4.0,1.0,7.0,3.0,1472.923780000201,2.0,1.0,part_3,go,0.0,0.0,0.0,132.0,3.0,264.0,44.0,132.0,220.0,88.0,176.0,blue,circle
0.0,6.0,2.0,1.0,7.0,2.0,1408.47994700016,2.0,1.0,part_3,go,0.0,0.0,0.0,132.0,3.0,220.0,132.0,264.0,176.0,44.0,88.0,gray,flipped triangle
0.0,7.0,3.0,1.0,7.0,1.0,3095.759196000472,2.0,1.0,part_3,go,0.0,0.0,0.0,136.0,4.0,136.0,204.0,34.0,102.0,170.0,68.0,yellow,cross
0.0,7.0,3.0,1.0,7.0,3.0,1472.2171530002015,2.0,1.0,part_3,go,0.0,0.0,0.0,136.0,4.0,102.0,204.0,136.0,68.0,34.0,170.0,yellow,cross
0.0,3.0,3.0,0.0,7.0,1.0,2785.2987330006727,2.0,1.0,part_3,go,0.0,0.0,0.0,108.0,2.0,108.0,270.0,216.0,54.0,324.0,162.0,green,triangle
0.0,6.0,2.0,1.0,7.0,3.0,2380.997684999784,2.0,1.0,part_3,go,0.0,0.0,0.0,108.0,2.0,216.0,270.0,108.0,54.0,162.0,324.0,gray,flipped triangle
0.0,1.0,1.0,0.0,7.0,6.0,1649.184324000089,2.0,1.0,part_3,go,0.0,0.0,0.0,136.0,4.0,204.0,170.0,102.0,34.0,68.0,136.0,orange,square
0.0,8.0,4.0,1.0,7.0,3.0,3020.59459100019,3.0,1.0,part_3,go,0.0,0.0,0.0,147.0,3.0,196.0,49.0,147.0,98.0,294.0,245.0,blue,circle
0.0,2.0,2.0,0.0,7.0,6.0,1982.5070659999255,3.0,1.0,part_3,go,0.0,0.0,0.0,132.0,3.0,176.0,220.0,44.0,264.0,88.0,132.0,cyan,diamond
0.0,4.0,4.0,0.0,7.0,2.0,1620.5070229998455,3.0,1.0,part_3,go,0.0,0.0,0.0,117.0,3.0,195.0,117.0,156.0,39.0,234.0,78.0,white,I
0.0,3.0,3.0,0.0,7.0,1.0,2372.7550079993307,3.0,1.0,part_3,go,0.0,0.0,0.0,117.0,3.0,117.0,39.0,78.0,195.0,234.0,156.0,green,triangle
0.0,4.0,4.0,0.0,7.0,3.0,1685.7109989996388,3.0,1.0,part_3,go,0.0,0.0,0.0,136.0,4.0,34.0,170.0,136.0,204.0,68.0,102.0,white,I
0.0,5.0,1.0,1.0,7.0,2.0,1194.5361830003094,3.0,1.0,part_3,go,0.0,0.0,0.0,136.0,4.0,204.0,136.0,34.0,68.0,170.0,102.0,magenta,hexagon
0.0,3.0,3.0,0.0,7.0,3.0,1966.035495000142,3.0,1.0,part_3,go,0.0,0.0,0.0,147.0,3.0,294.0,245.0,147.0,98.0,49.0,196.0,green,triangle
0.0,1.0,1.0,0.0,7.0,2.0,1328.4083770004145,3.0,1.0,part_3,go,0.0,0.0,0.0,132.0,3.0,264.0,132.0,88.0,44.0,220.0,176.0,orange,square
0.0,3.0,3.0,0.0,7.0,4.0,2457.79968899933,3.0,1.0,part_3,go,0.0,0.0,0.0,162.0,3.0,108.0,270.0,216.0,162.0,54.0,324.0,green,triangle
0.0,5.0,1.0,1.0,7.0,3.0,3408.882674999404,3.0,1.0,part_3,go,0.0,0.0,0.0,147.0,3.0,98.0,196.0,147.0,294.0,49.0,245.0,magenta,hexagon
0.0,8.0,4.0,1.0,7.0,5.0,1474.3753760003528,3.0,1.0,part_3,go,0.0,0.0,0.0,136.0,4.0,68.0,170.0,34.0,102.0,136.0,204.0,blue,circle
0.0,8.0,4.0,1.0,7.0,4.0,1666.9613710000704,3.0,1.0,part_3,go,0.0,0.0,0.0,117.0,3.0,234.0,156.0,39.0,117.0,78.0,195.0,blue,circle
0.0,1.0,1.0,0.0,7.0,2.0,1587.7432919996863,3.0,1.0,part_3,go,0.0,0.0,0.0,117.0,3.0,195.0,117.0,39.0,234.0,156.0,78.0,orange,square
0.0,7.0,3.0,1.0,7.0,1.0,2622.2993129995302,3.0,1.0,part_3,go,0.0,0.0,0.0,147.0,3.0,147.0,294.0,245.0,196.0,98.0,49.0,yellow,cross
0.0,8.0,4.0,1.0,7.0,1.0,2947.767957999531,3.0,1.0,part_3,go,0.0,0.0,0.0,108.0,2.0,108.0,162.0,270.0,324.0,216.0,54.0,blue,circle
0.0,3.0,3.0,0.0,7.0,3.0,1401.43712400004,3.0,1.0,part_3,go,0.0,0.0,0.0,136.0,4.0,34.0,204.0,136.0,68.0,102.0,170.0,green,triangle
0.0,5.0,1.0,1.0,7.0,1.0,2367.6489529998435,3.0,1.0,part_3,go,0.0,0.0,0.0,117.0,3.0,117.0,234.0,78.0,156.0,195.0,39.0,magenta,hexagon
0.0,2.0,2.0,0.0,7.0,2.0,2633.6129000001165,3.0,1.0,part_3,go,0.0,0.0,0.0,136.0,4.0,170.0,136.0,34.0,204.0,68.0,102.0,cyan,diamond
0.0,6.0,2.0,1.0,7.0,6.0,3068.4268779996273,3.0,1.0,part_3,go,0.0,0.0,0.0,108.0,2.0,162.0,54.0,270.0,216.0,324.0,108.0,gray,flipped triangle
0.0,7.0,3.0,1.0,7.0,2.0,2459.1455989993847,3.0,1.0,part_3,go,0.0,0.0,0.0,147.0,3.0,98.0,147.0,294.0,245.0,49.0,196.0,yellow,cross
0.0,6.0,2.0,1.0,7.0,5.0,3028.289973000028,4.0,1.0,part_3,go,0.0,0.0,0.0,147.0,3.0,294.0,196.0,49.0,98.0,147.0,245.0,gray,flipped triangle
0.0,5.0,1.0,1.0,7.0,5.0,1434.071705999486,4.0,1.0,part_3,go,0.0,0.0,0.0,136.0,4.0,170.0,102.0,204.0,68.0,136.0,34.0,magenta,hexagon
0.0,6.0,2.0,1.0,7.0,1.0,1633.351202000085,4.0,1.0,part_3,go,0.0,0.0,0.0,132.0,3.0,132.0,264.0,176.0,88.0,220.0,44.0,gray,flipped triangle
0.0,5.0,1.0,1.0,7.0,2.0,2785.2054599998155,4.0,1.0,part_3,go,0.0,0.0,0.0,108.0,2.0,54.0,108.0,270.0,162.0,216.0,324.0,magenta,hexagon
0.0,4.0,4.0,0.0,7.0,4.0,1643.1238510003825,4.0,1.0,part_3,go,0.0,0.0,0.0,132.0,3.0,44.0,220.0,176.0,132.0,264.0,88.0,white,I
0.0,4.0,4.0,0.0,7.0,1.0,3130.0787559994205,4.0,1.0,part_3,go,0.0,0.0,0.0,108.0,2.0,108.0,324.0,54.0,270.0,216.0,162.0,white,I
0.0,6.0,2.0,1.0,7.0,1.0,1677.7619470003629,4.0,1.0,part_3,go,0.0,0.0,0.0,136.0,4.0,136.0,170.0,34.0,68.0,102.0,204.0,gray,flipped triangle
0.0,8.0,4.0,1.0,7.0,1.0,1400.6746819995897,4.0,1.0,part_3,go,0.0,0.0,0.0,108.0,2.0,108.0,54.0,270.0,324.0,216.0,162.0,blue,circle
0.0,6.0,2.0,1.0,7.0,3.0,3802.093223999691,4.0,1.0,part_3,go,0.0,0.0,0.0,117.0,3.0,78.0,234.0,117.0,39.0,156.0,195.0,gray,flipped triangle
0.0,8.0,4.0,1.0,7.0,3.0,2179.830131000017,4.0,1.0,part_3,go,0.0,0.0,0.0,147.0,3.0,98.0,245.0,147.0,49.0,196.0,294.0,blue,circle
0.0,8.0,4.0,1.0,7.0,6.0,2082.607824000661,4.0,1.0,part_3,go,0.0,0.0,0.0,117.0,3.0,234.0,39.0,195.0,78.0,156.0,117.0,blue,circle
0.0,2.0,2.0,0.0,7.0,5.0,2547.83531799967,4.0,1.0,part_3,go,0.0,0.0,0.0,108.0,2.0,216.0,162.0,324.0,54.0,108.0,270.0,cyan,diamond
0.0,6.0,2.0,1.0,7.0,1.0,2366.408382999907,4.0,1.0,part_3,go,0.0,0.0,0.0,117.0,3.0,117.0,39.0,234.0,78.0,195.0,156.0,gray,flipped triangle
0.0,4.0,4.0,0.0,7.0,1.0,1908.8862329999756,4.0,1.0,part_3,go,0.0,0.0,0.0,132.0,3.0,132.0,88.0,176.0,220.0,264.0,44.0,white,I
0.0,2.0,2.0,0.0,7.0,4.0,1853.860098000041,4.0,1.0,part_3,go,0.0,0.0,0.0,147.0,3.0,196.0,294.0,98.0,147.0,49.0,245.0,cyan,diamond
0.0,5.0,1.0,1.0,7.0,4.0,2237.961670999539,4.0,1.0,part_3,go,0.0,0.0,0.0,147.0,3.0,294.0,98.0,49.0,147.0,196.0,245.0,magenta,hexagon
0.0,5.0,1.0,1.0,7.0,3.0,1239.125533999868,4.0,1.0,part_3,go,0.0,0.0,0.0,117.0,3.0,78.0,234.0,117.0,39.0,195.0,156.0,magenta,hexagon
0.0,7.0,3.0,1.0,7.0,2.0,1445.9976039997855,4.0,1.0,part_3,go,0.0,0.0,0.0,117.0,3.0,234.0,117.0,39.0,78.0,195.0,156.0,yellow,cross
0.0,1.0,1.0,0.0,7.0,2.0,2694.214127000123,4.0,1.0,part_3,go,0.0,0.0,0.0,108.0,2.0,162.0,108.0,270.0,54.0,216.0,324.0,orange,square
0.0,4.0,4.0,0.0,7.0,1.0,2072.3908469999515,4.0,1.0,part_3,go,0.0,0.0,0.0,108.0,2.0,108.0,270.0,324.0,54.0,216.0,162.0,white,I
