raw_reward_magnitude,stim_reward,stepwise_reward_magnitude,paired_with_stopping,quadrant,response,reaction_time,block,num_trial_presentations,which_part,stop_signal_trial_type,left_SSD,right_SSD,accuracy,chosen_bidding_amount,chosen_bidding_level,possible_bid_1,possible_bid_2,possible_bid_3,possible_bid_4,possible_bid_5,possible_bid_6,color_text,shape_text
411.0,4.0,4.0,0.0,3.0,3.0,413.4646979998706,1.0,1.0,part_1,,,,,,,,,,,,,magenta,square
0.0,2.0,0.0,0.0,3.0,3.0,436.0446030000275,1.0,1.0,part_1,,,,,,,,,,,,,yellow,flipped triangle
392.0,4.0,4.0,0.0,3.0,3.0,410.3376299999581,1.0,1.0,part_1,,,,,,,,,,,,,magenta,square
413.0,4.0,4.0,0.0,1.0,1.0,523.3478879999893,1.0,1.0,part_1,,,,,,,,,,,,,magenta,square
208.0,7.0,3.0,1.0,1.0,1.0,468.3525049999844,1.0,1.0,part_1,,,,,,,,,,,,,green,diamond
36.0,5.0,1.0,1.0,2.0,2.0,448.0578800000785,1.0,1.0,part_1,,,,,,,,,,,,,cyan,I
98.0,6.0,2.0,1.0,2.0,2.0,327.483963999839,1.0,1.0,part_1,,,,,,,,,,,,,white,triangle
86.0,6.0,2.0,1.0,1.0,1.0,370.1004199999715,1.0,1.0,part_1,,,,,,,,,,,,,white,triangle
116.0,2.0,2.0,0.0,2.0,2.0,321.4941159999398,1.0,1.0,part_1,,,,,,,,,,,,,yellow,flipped triangle
188.0,3.0,3.0,0.0,2.0,2.0,342.3262599999361,1.0,1.0,part_1,,,,,,,,,,,,,gray,circle
411.0,4.0,4.0,0.0,4.0,4.0,372.3408690000269,1.0,1.0,part_1,,,,,,,,,,,,,magenta,square
99.0,2.0,2.0,0.0,3.0,3.0,420.4333029999816,1.0,1.0,part_1,,,,,,,,,,,,,yellow,flipped triangle
178.0,7.0,3.0,1.0,1.0,1.0,288.3723540001028,1.0,1.0,part_1,,,,,,,,,,,,,green,diamond
0.0,7.0,0.0,1.0,4.0,4.0,319.0514499999608,1.0,1.0,part_1,,,,,,,,,,,,,green,diamond
76.0,2.0,2.0,0.0,3.0,3.0,385.2783130000716,1.0,1.0,part_1,,,,,,,,,,,,,yellow,flipped triangle
38.0,5.0,1.0,1.0,2.0,2.0,531.0417149999012,1.0,1.0,part_1,,,,,,,,,,,,,cyan,I
0.0,1.0,0.0,0.0,2.0,2.0,430.6743750000805,1.0,1.0,part_1,,,,,,,,,,,,,blue,hexagon
209.0,3.0,3.0,0.0,3.0,3.0,402.15205100003,1.0,1.0,part_1,,,,,,,,,,,,,gray,circle
0.0,4.0,0.0,0.0,3.0,3.0,359.8680319998948,1.0,1.0,part_1,,,,,,,,,,,,,magenta,square
179.0,3.0,3.0,0.0,3.0,3.0,347.3636339999757,1.0,1.0,part_1,,,,,,,,,,,,,gray,circle
211.0,7.0,3.0,1.0,3.0,3.0,408.6589170001389,1.0,1.0,part_1,,,,,,,,,,,,,green,diamond
48.0,1.0,1.0,0.0,1.0,1.0,359.8119030000362,1.0,1.0,part_1,,,,,,,,,,,,,blue,hexagon
0.0,5.0,0.0,1.0,1.0,1.0,383.2124660000318,1.0,1.0,part_1,,,,,,,,,,,,,cyan,I
218.0,3.0,3.0,0.0,3.0,3.0,350.6247489999623,1.0,1.0,part_1,,,,,,,,,,,,,gray,circle
82.0,6.0,2.0,1.0,4.0,4.0,422.77811200006,1.0,1.0,part_1,,,,,,,,,,,,,white,triangle
72.0,1.0,1.0,0.0,1.0,1.0,349.9956990001465,1.0,1.0,part_1,,,,,,,,,,,,,blue,hexagon
216.0,7.0,3.0,1.0,4.0,4.0,456.5102659998956,1.0,1.0,part_1,,,,,,,,,,,,,green,diamond
408.0,4.0,4.0,0.0,2.0,2.0,326.7007199999625,1.0,1.0,part_1,,,,,,,,,,,,,magenta,square
84.0,2.0,2.0,0.0,3.0,3.0,342.1015540000098,1.0,1.0,part_1,,,,,,,,,,,,,yellow,flipped triangle
0.0,7.0,0.0,1.0,4.0,4.0,341.142432999959,1.0,1.0,part_1,,,,,,,,,,,,,green,diamond
61.0,1.0,1.0,0.0,3.0,3.0,380.6156929999815,1.0,1.0,part_1,,,,,,,,,,,,,blue,hexagon
196.0,7.0,3.0,1.0,2.0,2.0,347.7733600000192,1.0,1.0,part_1,,,,,,,,,,,,,green,diamond
38.0,1.0,1.0,0.0,2.0,2.0,392.3496090001208,1.0,1.0,part_1,,,,,,,,,,,,,blue,hexagon
41.0,1.0,1.0,0.0,4.0,4.0,367.4436789999618,1.0,1.0,part_1,,,,,,,,,,,,,blue,hexagon
0.0,6.0,0.0,1.0,1.0,1.0,334.4646360001206,1.0,1.0,part_1,,,,,,,,,,,,,white,triangle
200.0,3.0,3.0,0.0,4.0,4.0,525.5762189999587,1.0,1.0,part_1,,,,,,,,,,,,,gray,circle
0.0,4.0,0.0,0.0,2.0,2.0,335.4946459999155,1.0,1.0,part_1,,,,,,,,,,,,,magenta,square
34.0,5.0,1.0,1.0,1.0,1.0,336.7309430000205,1.0,1.0,part_1,,,,,,,,,,,,,cyan,I
73.0,1.0,1.0,0.0,4.0,4.0,452.2042030000648,1.0,1.0,part_1,,,,,,,,,,,,,blue,hexagon
0.0,3.0,0.0,0.0,3.0,3.0,464.7234990000015,1.0,1.0,part_1,,,,,,,,,,,,,gray,circle
62.0,5.0,1.0,1.0,4.0,4.0,404.8630969998612,1.0,1.0,part_1,,,,,,,,,,,,,cyan,I
99.0,2.0,2.0,0.0,2.0,2.0,361.4459820000775,1.0,1.0,part_1,,,,,,,,,,,,,yellow,flipped triangle
0.0,1.0,0.0,0.0,3.0,3.0,305.232167999975,1.0,1.0,part_1,,,,,,,,,,,,,blue,hexagon
35.0,5.0,1.0,1.0,1.0,1.0,364.7388419999515,1.0,1.0,part_1,,,,,,,,,,,,,cyan,I
0.0,1.0,0.0,0.0,2.0,2.0,428.8068809999004,1.0,1.0,part_1,,,,,,,,,,,,,blue,hexagon
101.0,6.0,2.0,1.0,2.0,2.0,352.6221889999306,1.0,1.0,part_1,,,,,,,,,,,,,white,triangle
0.0,2.0,0.0,0.0,1.0,1.0,360.3541699999368,1.0,1.0,part_1,,,,,,,,,,,,,yellow,flipped triangle
83.0,2.0,2.0,0.0,3.0,3.0,331.966446000024,1.0,1.0,part_1,,,,,,,,,,,,,yellow,flipped triangle
35.0,1.0,1.0,0.0,2.0,2.0,339.4141979999858,1.0,1.0,part_1,,,,,,,,,,,,,blue,hexagon
218.0,3.0,3.0,0.0,1.0,1.0,402.0947330000126,1.0,1.0,part_1,,,,,,,,,,,,,gray,circle
196.0,3.0,3.0,0.0,2.0,2.0,294.5771449999483,1.0,1.0,part_1,,,,,,,,,,,,,gray,circle
93.0,2.0,2.0,0.0,1.0,1.0,350.9618149998914,1.0,1.0,part_1,,,,,,,,,,,,,yellow,flipped triangle
389.0,4.0,4.0,0.0,1.0,1.0,352.0537130000321,1.0,1.0,part_1,,,,,,,,,,,,,magenta,square
400.0,4.0,4.0,0.0,4.0,4.0,392.9719299999306,1.0,1.0,part_1,,,,,,,,,,,,,magenta,square
377.0,4.0,4.0,0.0,4.0,4.0,345.6063549999726,1.0,1.0,part_1,,,,,,,,,,,,,magenta,square
122.0,6.0,2.0,1.0,1.0,1.0,331.5722029999506,1.0,1.0,part_1,,,,,,,,,,,,,white,triangle
196.0,7.0,3.0,1.0,2.0,2.0,280.7720690000224,1.0,1.0,part_1,,,,,,,,,,,,,green,diamond
53.0,1.0,1.0,0.0,4.0,4.0,522.6027109999904,1.0,1.0,part_1,,,,,,,,,,,,,blue,hexagon
63.0,1.0,1.0,0.0,1.0,1.0,328.1800229999589,1.0,1.0,part_1,,,,,,,,,,,,,blue,hexagon
178.0,7.0,3.0,1.0,2.0,2.0,314.3734990001121,1.0,1.0,part_1,,,,,,,,,,,,,green,diamond
68.0,1.0,1.0,0.0,3.0,3.0,371.2258740001743,1.0,1.0,part_1,,,,,,,,,,,,,blue,hexagon
61.0,5.0,1.0,1.0,3.0,3.0,375.7119029999103,1.0,1.0,part_1,,,,,,,,,,,,,cyan,I
122.0,6.0,2.0,1.0,1.0,1.0,382.0864100000563,1.0,1.0,part_1,,,,,,,,,,,,,white,triangle
0.0,4.0,0.0,0.0,4.0,4.0,345.58446799997,1.0,1.0,part_1,,,,,,,,,,,,,magenta,square
93.0,6.0,2.0,1.0,2.0,2.0,372.0950839999659,1.0,1.0,part_1,,,,,,,,,,,,,white,triangle
34.0,1.0,1.0,0.0,3.0,3.0,431.6931769999428,1.0,1.0,part_1,,,,,,,,,,,,,blue,hexagon
59.0,1.0,1.0,0.0,4.0,4.0,333.242650000102,1.0,1.0,part_1,,,,,,,,,,,,,blue,hexagon
393.0,8.0,4.0,1.0,4.0,4.0,366.4330199999313,1.0,1.0,part_1,,,,,,,,,,,,,orange,cross
0.0,3.0,0.0,0.0,3.0,3.0,364.8668840000937,1.0,1.0,part_1,,,,,,,,,,,,,gray,circle
34.0,5.0,1.0,1.0,4.0,4.0,330.0439289998849,1.0,1.0,part_1,,,,,,,,,,,,,cyan,I
396.0,4.0,4.0,0.0,3.0,3.0,391.1485849998826,1.0,1.0,part_1,,,,,,,,,,,,,magenta,square
93.0,6.0,2.0,1.0,4.0,4.0,374.7507130001395,1.0,1.0,part_1,,,,,,,,,,,,,white,triangle
120.0,6.0,2.0,1.0,2.0,2.0,280.6470769999123,1.0,1.0,part_1,,,,,,,,,,,,,white,triangle
0.0,6.0,0.0,1.0,2.0,2.0,393.4984299999087,1.0,1.0,part_1,,,,,,,,,,,,,white,triangle
41.0,5.0,1.0,1.0,1.0,1.0,379.3996690001222,1.0,1.0,part_1,,,,,,,,,,,,,cyan,I
68.0,5.0,1.0,1.0,4.0,4.0,381.1355249999906,1.0,1.0,part_1,,,,,,,,,,,,,cyan,I
45.0,1.0,1.0,0.0,2.0,2.0,372.6080769999953,1.0,1.0,part_1,,,,,,,,,,,,,blue,hexagon
0.0,4.0,0.0,0.0,1.0,1.0,364.0586609999445,1.0,1.0,part_1,,,,,,,,,,,,,magenta,square
45.0,5.0,1.0,1.0,4.0,4.0,399.4529339997825,1.0,1.0,part_1,,,,,,,,,,,,,cyan,I
409.0,4.0,4.0,0.0,1.0,1.0,469.1378790000726,1.0,1.0,part_1,,,,,,,,,,,,,magenta,square
400.0,8.0,4.0,1.0,4.0,4.0,519.1481289998592,1.0,1.0,part_1,,,,,,,,,,,,,orange,cross
203.0,3.0,3.0,0.0,4.0,4.0,412.2393669999837,1.0,1.0,part_1,,,,,,,,,,,,,gray,circle
191.0,3.0,3.0,0.0,1.0,1.0,400.7782189999034,1.0,1.0,part_1,,,,,,,,,,,,,gray,circle
199.0,3.0,3.0,0.0,1.0,1.0,397.1956499999578,1.0,1.0,part_1,,,,,,,,,,,,,gray,circle
51.0,5.0,1.0,1.0,2.0,2.0,295.0559299999895,1.0,1.0,part_1,,,,,,,,,,,,,cyan,I
394.0,8.0,4.0,1.0,3.0,3.0,394.1925920000813,1.0,1.0,part_1,,,,,,,,,,,,,orange,cross
109.0,6.0,2.0,1.0,3.0,3.0,368.2841429999826,1.0,1.0,part_1,,,,,,,,,,,,,white,triangle
0.0,8.0,0.0,1.0,2.0,2.0,391.2095050000062,1.0,1.0,part_1,,,,,,,,,,,,,orange,cross
424.0,4.0,4.0,0.0,1.0,1.0,295.1120230000015,1.0,1.0,part_1,,,,,,,,,,,,,magenta,square
183.0,3.0,3.0,0.0,2.0,2.0,330.764272000124,1.0,1.0,part_1,,,,,,,,,,,,,gray,circle
192.0,3.0,3.0,0.0,1.0,1.0,374.8710429999846,1.0,1.0,part_1,,,,,,,,,,,,,gray,circle
196.0,7.0,3.0,1.0,1.0,1.0,332.0967130000554,1.0,1.0,part_1,,,,,,,,,,,,,green,diamond
0.0,5.0,0.0,1.0,4.0,4.0,374.0123779998612,1.0,1.0,part_1,,,,,,,,,,,,,cyan,I
213.0,7.0,3.0,1.0,2.0,2.0,428.9953239999704,1.0,1.0,part_1,,,,,,,,,,,,,green,diamond
72.0,5.0,1.0,1.0,4.0,4.0,481.1235759998453,1.0,1.0,part_1,,,,,,,,,,,,,cyan,I
376.0,8.0,4.0,1.0,2.0,2.0,289.5938690001003,1.0,1.0,part_1,,,,,,,,,,,,,orange,cross
424.0,8.0,4.0,1.0,3.0,3.0,367.0459059999302,1.0,1.0,part_1,,,,,,,,,,,,,orange,cross
99.0,6.0,2.0,1.0,1.0,1.0,325.9699540001293,1.0,1.0,part_1,,,,,,,,,,,,,white,triangle
216.0,3.0,3.0,0.0,3.0,3.0,395.1038630000312,1.0,1.0,part_1,,,,,,,,,,,,,gray,circle
0.0,1.0,0.0,0.0,4.0,4.0,394.2655079999895,1.0,1.0,part_1,,,,,,,,,,,,,blue,hexagon
0.0,2.0,0.0,0.0,4.0,4.0,395.026739000059,2.0,1.0,part_1,,,,,,,,,,,,,yellow,flipped triangle
42.0,1.0,1.0,0.0,2.0,2.0,388.5162909998598,2.0,1.0,part_1,,,,,,,,,,,,,blue,hexagon
389.0,4.0,4.0,0.0,3.0,3.0,361.0599030000685,2.0,1.0,part_1,,,,,,,,,,,,,magenta,square
56.0,1.0,1.0,0.0,4.0,4.0,380.7009859999652,2.0,1.0,part_1,,,,,,,,,,,,,blue,hexagon
0.0,5.0,0.0,1.0,1.0,1.0,347.3351519999141,2.0,1.0,part_1,,,,,,,,,,,,,cyan,I
85.0,2.0,2.0,0.0,1.0,1.0,437.5480830001379,2.0,1.0,part_1,,,,,,,,,,,,,yellow,flipped triangle
0.0,3.0,0.0,0.0,1.0,1.0,352.6400289999856,2.0,1.0,part_1,,,,,,,,,,,,,gray,circle
60.0,1.0,1.0,0.0,1.0,1.0,366.7456569999103,2.0,1.0,part_1,,,,,,,,,,,,,blue,hexagon
189.0,3.0,3.0,0.0,4.0,4.0,410.3190460000405,2.0,1.0,part_1,,,,,,,,,,,,,gray,circle
218.0,7.0,3.0,1.0,3.0,3.0,336.781258999963,2.0,1.0,part_1,,,,,,,,,,,,,green,diamond
111.0,6.0,2.0,1.0,2.0,2.0,291.1785619999136,2.0,1.0,part_1,,,,,,,,,,,,,white,triangle
223.0,7.0,3.0,1.0,2.0,2.0,456.3911870000083,2.0,1.0,part_1,,,,,,,,,,,,,green,diamond
27.0,1.0,1.0,0.0,3.0,3.0,459.8870800000441,2.0,1.0,part_1,,,,,,,,,,,,,blue,hexagon
418.0,4.0,4.0,0.0,4.0,4.0,315.4251519999889,2.0,1.0,part_1,,,,,,,,,,,,,magenta,square
66.0,5.0,1.0,1.0,1.0,1.0,425.2416110000467,2.0,1.0,part_1,,,,,,,,,,,,,cyan,I
199.0,7.0,3.0,1.0,4.0,4.0,255.8343320001768,2.0,1.0,part_1,,,,,,,,,,,,,green,diamond
0.0,2.0,0.0,0.0,3.0,3.0,391.5387080000982,2.0,1.0,part_1,,,,,,,,,,,,,yellow,flipped triangle
89.0,6.0,2.0,1.0,3.0,3.0,387.7359040000101,2.0,1.0,part_1,,,,,,,,,,,,,white,triangle
206.0,7.0,3.0,1.0,2.0,2.0,344.3170240000199,2.0,1.0,part_1,,,,,,,,,,,,,green,diamond
119.0,6.0,2.0,1.0,2.0,2.0,336.9847149999714,2.0,1.0,part_1,,,,,,,,,,,,,white,triangle
179.0,7.0,3.0,1.0,1.0,1.0,366.3816980001684,2.0,1.0,part_1,,,,,,,,,,,,,green,diamond
0.0,6.0,0.0,1.0,3.0,3.0,323.6171470000499,2.0,1.0,part_1,,,,,,,,,,,,,white,triangle
48.0,1.0,1.0,0.0,2.0,2.0,359.1681529999277,2.0,1.0,part_1,,,,,,,,,,,,,blue,hexagon
58.0,5.0,1.0,1.0,4.0,4.0,568.0360059998293,2.0,1.0,part_1,,,,,,,,,,,,,cyan,I
0.0,6.0,0.0,1.0,4.0,4.0,487.9935740000292,2.0,1.0,part_1,,,,,,,,,,,,,white,triangle
84.0,6.0,2.0,1.0,4.0,4.0,426.5806129999419,2.0,1.0,part_1,,,,,,,,,,,,,white,triangle
75.0,1.0,1.0,0.0,4.0,4.0,481.9939030001023,2.0,1.0,part_1,,,,,,,,,,,,,blue,hexagon
402.0,4.0,4.0,0.0,2.0,2.0,424.1594490001716,2.0,1.0,part_1,,,,,,,,,,,,,magenta,square
63.0,5.0,1.0,1.0,4.0,4.0,314.9933029999374,2.0,1.0,part_1,,,,,,,,,,,,,cyan,I
408.0,8.0,4.0,1.0,3.0,3.0,379.3531730000268,2.0,1.0,part_1,,,,,,,,,,,,,orange,cross
408.0,8.0,4.0,1.0,3.0,3.0,374.0873440001451,2.0,1.0,part_1,,,,,,,,,,,,,orange,cross
376.0,4.0,4.0,0.0,4.0,4.0,414.8496840000462,2.0,1.0,part_1,,,,,,,,,,,,,magenta,square
28.0,5.0,1.0,1.0,2.0,2.0,397.618034000061,2.0,1.0,part_1,,,,,,,,,,,,,cyan,I
32.0,5.0,1.0,1.0,3.0,3.0,458.6540719999448,2.0,1.0,part_1,,,,,,,,,,,,,cyan,I
209.0,7.0,3.0,1.0,3.0,3.0,350.5107309999857,2.0,1.0,part_1,,,,,,,,,,,,,green,diamond
211.0,3.0,3.0,0.0,3.0,3.0,372.2059629999421,2.0,1.0,part_1,,,,,,,,,,,,,gray,circle
392.0,4.0,4.0,0.0,1.0,1.0,343.6982009998246,2.0,1.0,part_1,,,,,,,,,,,,,magenta,square
0.0,1.0,0.0,0.0,3.0,3.0,345.3705839999657,2.0,1.0,part_1,,,,,,,,,,,,,blue,hexagon
83.0,2.0,2.0,0.0,3.0,3.0,359.9272429999018,2.0,1.0,part_1,,,,,,,,,,,,,yellow,flipped triangle
104.0,6.0,2.0,1.0,1.0,1.0,408.5694709999643,2.0,1.0,part_1,,,,,,,,,,,,,white,triangle
47.0,5.0,1.0,1.0,1.0,1.0,415.5201430000943,2.0,1.0,part_1,,,,,,,,,,,,,cyan,I
424.0,8.0,4.0,1.0,1.0,1.0,328.8852870000482,2.0,1.0,part_1,,,,,,,,,,,,,orange,cross
413.0,8.0,4.0,1.0,3.0,3.0,333.8476480000736,2.0,1.0,part_1,,,,,,,,,,,,,orange,cross
124.0,6.0,2.0,1.0,4.0,4.0,486.7527970000083,2.0,1.0,part_1,,,,,,,,,,,,,white,triangle
37.0,5.0,1.0,1.0,1.0,1.0,378.8582910001423,2.0,1.0,part_1,,,,,,,,,,,,,cyan,I
203.0,3.0,3.0,0.0,1.0,1.0,434.1413919999013,2.0,1.0,part_1,,,,,,,,,,,,,gray,circle
383.0,4.0,4.0,0.0,2.0,2.0,424.3958330000623,2.0,2.0,part_1,,,,,,,,,,,,,magenta,square
0.0,6.0,0.0,1.0,4.0,4.0,588.11747499999,2.0,1.0,part_1,,,,,,,,,,,,,white,triangle
387.0,4.0,4.0,0.0,1.0,1.0,465.0846120000551,2.0,1.0,part_1,,,,,,,,,,,,,magenta,square
385.0,8.0,4.0,1.0,2.0,2.0,467.9291259999445,2.0,1.0,part_1,,,,,,,,,,,,,orange,cross
107.0,6.0,2.0,1.0,1.0,1.0,418.6767639998834,2.0,1.0,part_1,,,,,,,,,,,,,white,triangle
224.0,7.0,3.0,1.0,3.0,3.0,445.711731999836,2.0,1.0,part_1,,,,,,,,,,,,,green,diamond
196.0,7.0,3.0,1.0,3.0,3.0,379.4403819999843,2.0,1.0,part_1,,,,,,,,,,,,,green,diamond
34.0,1.0,1.0,0.0,1.0,1.0,343.2286849999855,2.0,1.0,part_1,,,,,,,,,,,,,blue,hexagon
99.0,6.0,2.0,1.0,3.0,3.0,358.4361890000309,2.0,1.0,part_1,,,,,,,,,,,,,white,triangle
395.0,8.0,4.0,1.0,1.0,1.0,374.40824600003,2.0,1.0,part_1,,,,,,,,,,,,,orange,cross
402.0,8.0,4.0,1.0,2.0,2.0,445.3176819999953,2.0,1.0,part_1,,,,,,,,,,,,,orange,cross
413.0,8.0,4.0,1.0,3.0,3.0,472.4479879998853,2.0,1.0,part_1,,,,,,,,,,,,,orange,cross
51.0,1.0,1.0,0.0,1.0,1.0,414.5659460000388,2.0,1.0,part_1,,,,,,,,,,,,,blue,hexagon
116.0,6.0,2.0,1.0,2.0,2.0,434.3625879998853,2.0,1.0,part_1,,,,,,,,,,,,,white,triangle
70.0,1.0,1.0,0.0,2.0,2.0,393.4597810000468,2.0,1.0,part_1,,,,,,,,,,,,,blue,hexagon
90.0,6.0,2.0,1.0,3.0,3.0,506.3118520001808,2.0,1.0,part_1,,,,,,,,,,,,,white,triangle
424.0,8.0,4.0,1.0,4.0,4.0,382.9069969999636,2.0,1.0,part_1,,,,,,,,,,,,,orange,cross
424.0,4.0,4.0,0.0,2.0,2.0,328.014388000156,2.0,1.0,part_1,,,,,,,,,,,,,magenta,square
380.0,4.0,4.0,0.0,2.0,2.0,381.4512750000176,2.0,1.0,part_1,,,,,,,,,,,,,magenta,square
48.0,5.0,1.0,1.0,1.0,1.0,400.0558239999918,2.0,1.0,part_1,,,,,,,,,,,,,cyan,I
0.0,7.0,0.0,1.0,4.0,4.0,401.0703599999488,2.0,1.0,part_1,,,,,,,,,,,,,green,diamond
397.0,8.0,4.0,1.0,4.0,4.0,365.9187700000075,2.0,1.0,part_1,,,,,,,,,,,,,orange,cross
185.0,3.0,3.0,0.0,3.0,3.0,437.0133169998098,2.0,1.0,part_1,,,,,,,,,,,,,gray,circle
225.0,7.0,3.0,1.0,4.0,4.0,575.9538769998471,2.0,1.0,part_1,,,,,,,,,,,,,green,diamond
377.0,8.0,4.0,1.0,4.0,4.0,458.6803619999955,2.0,1.0,part_1,,,,,,,,,,,,,orange,cross
395.0,4.0,4.0,0.0,3.0,3.0,358.8061079999534,2.0,1.0,part_1,,,,,,,,,,,,,magenta,square
122.0,2.0,2.0,0.0,2.0,2.0,436.6141610000795,2.0,1.0,part_1,,,,,,,,,,,,,yellow,flipped triangle
0.0,6.0,0.0,1.0,2.0,2.0,356.9925969998166,2.0,1.0,part_1,,,,,,,,,,,,,white,triangle
55.0,1.0,1.0,0.0,1.0,1.0,515.6629190000785,2.0,1.0,part_1,,,,,,,,,,,,,blue,hexagon
56.0,5.0,1.0,1.0,2.0,2.0,366.0056500000337,2.0,1.0,part_1,,,,,,,,,,,,,cyan,I
86.0,2.0,2.0,0.0,3.0,3.0,473.0859359999613,2.0,1.0,part_1,,,,,,,,,,,,,yellow,flipped triangle
70.0,5.0,1.0,1.0,2.0,2.0,388.3151390000421,2.0,1.0,part_1,,,,,,,,,,,,,cyan,I
222.0,3.0,3.0,0.0,1.0,1.0,313.0714830001579,2.0,1.0,part_1,,,,,,,,,,,,,gray,circle
403.0,4.0,4.0,0.0,4.0,4.0,399.9554700001226,2.0,1.0,part_1,,,,,,,,,,,,,magenta,square
0.0,5.0,0.0,1.0,4.0,4.0,385.2501999999731,2.0,1.0,part_1,,,,,,,,,,,,,cyan,I
0.0,4.0,0.0,0.0,2.0,2.0,412.7636939999775,2.0,1.0,part_1,,,,,,,,,,,,,magenta,square
177.0,3.0,3.0,0.0,1.0,1.0,384.2806759998893,2.0,1.0,part_1,,,,,,,,,,,,,gray,circle
93.0,2.0,2.0,0.0,1.0,1.0,439.3132889999833,2.0,1.0,part_1,,,,,,,,,,,,,yellow,flipped triangle
90.0,2.0,2.0,0.0,2.0,2.0,387.6811869999983,2.0,1.0,part_1,,,,,,,,,,,,,yellow,flipped triangle
33.0,5.0,1.0,1.0,4.0,4.0,349.7555689998535,2.0,1.0,part_1,,,,,,,,,,,,,cyan,I
189.0,7.0,3.0,1.0,3.0,3.0,390.0294559998656,2.0,1.0,part_1,,,,,,,,,,,,,green,diamond
0.0,6.0,0.0,1.0,4.0,4.0,456.2852499998371,2.0,1.0,part_1,,,,,,,,,,,,,white,triangle
223.0,3.0,3.0,0.0,3.0,3.0,376.1121809998258,2.0,1.0,part_1,,,,,,,,,,,,,gray,circle
179.0,3.0,3.0,0.0,2.0,2.0,435.8968409999306,2.0,1.0,part_1,,,,,,,,,,,,,gray,circle
82.0,2.0,2.0,0.0,1.0,1.0,443.1261540000832,2.0,1.0,part_1,,,,,,,,,,,,,yellow,flipped triangle
0.0,4.0,0.0,0.0,2.0,2.0,327.7538540000932,2.0,1.0,part_1,,,,,,,,,,,,,magenta,square
0.0,7.0,0.0,1.0,2.0,2.0,413.4993879999911,2.0,1.0,part_1,,,,,,,,,,,,,green,diamond
0.0,2.0,0.0,0.0,3.0,3.0,322.3353040000347,2.0,1.0,part_1,,,,,,,,,,,,,yellow,flipped triangle
375.0,8.0,4.0,1.0,1.0,1.0,427.4440869999125,2.0,1.0,part_1,,,,,,,,,,,,,orange,cross
196.0,3.0,3.0,0.0,2.0,2.0,384.2265700000098,2.0,1.0,part_1,,,,,,,,,,,,,gray,circle
0.0,5.0,0.0,1.0,3.0,3.0,388.1130039999334,2.0,1.0,part_1,,,,,,,,,,,,,cyan,I
404.0,4.0,4.0,0.0,3.0,3.0,374.299585000017,2.0,1.0,part_1,,,,,,,,,,,,,magenta,square
106.0,6.0,2.0,1.0,4.0,4.0,477.9265239999404,2.0,1.0,part_1,,,,,,,,,,,,,white,triangle
183.0,3.0,3.0,0.0,4.0,4.0,397.7701140001954,2.0,1.0,part_1,,,,,,,,,,,,,gray,circle
0.0,8.0,0.0,1.0,3.0,3.0,442.6491839999471,3.0,1.0,part_1,,,,,,,,,,,,,orange,cross
424.0,8.0,4.0,1.0,1.0,1.0,364.4793830003436,3.0,1.0,part_1,,,,,,,,,,,,,orange,cross
424.0,4.0,4.0,0.0,2.0,2.0,384.0655519998108,3.0,1.0,part_1,,,,,,,,,,,,,magenta,square
409.0,8.0,4.0,1.0,4.0,4.0,512.0571970001038,3.0,1.0,part_1,,,,,,,,,,,,,orange,cross
185.0,3.0,3.0,0.0,3.0,3.0,389.5757459999913,3.0,1.0,part_1,,,,,,,,,,,,,gray,circle
404.0,8.0,4.0,1.0,4.0,4.0,414.2722000001413,3.0,1.0,part_1,,,,,,,,,,,,,orange,cross
63.0,5.0,1.0,1.0,2.0,2.0,299.5909599999322,3.0,1.0,part_1,,,,,,,,,,,,,cyan,I
0.0,8.0,0.0,1.0,2.0,2.0,357.3509429998012,3.0,1.0,part_1,,,,,,,,,,,,,orange,cross
0.0,6.0,0.0,1.0,3.0,3.0,352.7169970002433,3.0,1.0,part_1,,,,,,,,,,,,,white,triangle
397.0,4.0,4.0,0.0,1.0,1.0,365.4961940001158,3.0,1.0,part_1,,,,,,,,,,,,,magenta,square
0.0,3.0,0.0,0.0,4.0,4.0,453.9665819997935,3.0,1.0,part_1,,,,,,,,,,,,,gray,circle
191.0,3.0,3.0,0.0,4.0,4.0,388.9276340000833,3.0,1.0,part_1,,,,,,,,,,,,,gray,circle
206.0,3.0,3.0,0.0,2.0,2.0,398.0356689999098,3.0,1.0,part_1,,,,,,,,,,,,,gray,circle
0.0,1.0,0.0,0.0,3.0,3.0,320.349171000089,3.0,1.0,part_1,,,,,,,,,,,,,blue,hexagon
187.0,7.0,3.0,1.0,3.0,3.0,396.2738400000489,3.0,1.0,part_1,,,,,,,,,,,,,green,diamond
32.0,1.0,1.0,0.0,3.0,3.0,380.8740280001075,3.0,1.0,part_1,,,,,,,,,,,,,blue,hexagon
39.0,5.0,1.0,1.0,3.0,3.0,390.9850969998842,3.0,1.0,part_1,,,,,,,,,,,,,cyan,I
63.0,1.0,1.0,0.0,3.0,3.0,303.8279430002149,3.0,1.0,part_1,,,,,,,,,,,,,blue,hexagon
62.0,1.0,1.0,0.0,1.0,1.0,481.8733639999664,3.0,1.0,part_1,,,,,,,,,,,,,blue,hexagon
196.0,3.0,3.0,0.0,2.0,2.0,412.6091729999643,3.0,1.0,part_1,,,,,,,,,,,,,gray,circle
120.0,2.0,2.0,0.0,4.0,4.0,565.5196489997252,3.0,1.0,part_1,,,,,,,,,,,,,yellow,flipped triangle
120.0,2.0,2.0,0.0,2.0,2.0,454.843713000173,3.0,1.0,part_1,,,,,,,,,,,,,yellow,flipped triangle
0.0,7.0,0.0,1.0,2.0,2.0,313.6768720000873,3.0,1.0,part_1,,,,,,,,,,,,,green,diamond
101.0,2.0,2.0,0.0,2.0,2.0,375.6599149996873,3.0,1.0,part_1,,,,,,,,,,,,,yellow,flipped triangle
385.0,4.0,4.0,0.0,3.0,3.0,453.6444139998821,3.0,1.0,part_1,,,,,,,,,,,,,magenta,square
0.0,4.0,0.0,0.0,3.0,3.0,444.0413199999966,3.0,1.0,part_1,,,,,,,,,,,,,magenta,square
0.0,8.0,0.0,1.0,1.0,1.0,381.6204909999214,3.0,1.0,part_1,,,,,,,,,,,,,orange,cross
110.0,2.0,2.0,0.0,2.0,2.0,674.1854080000849,3.0,1.0,part_1,,,,,,,,,,,,,yellow,flipped triangle
196.0,3.0,3.0,0.0,4.0,4.0,676.8472469998414,3.0,1.0,part_1,,,,,,,,,,,,,gray,circle
424.0,8.0,4.0,1.0,3.0,3.0,460.2203949998511,3.0,1.0,part_1,,,,,,,,,,,,,orange,cross
424.0,4.0,4.0,0.0,3.0,3.0,462.0392670003639,3.0,1.0,part_1,,,,,,,,,,,,,magenta,square
217.0,7.0,3.0,1.0,1.0,1.0,480.998978000116,3.0,1.0,part_1,,,,,,,,,,,,,green,diamond
0.0,5.0,0.0,1.0,4.0,4.0,371.1539000000812,3.0,1.0,part_1,,,,,,,,,,,,,cyan,I
109.0,2.0,2.0,0.0,1.0,1.0,432.154404999892,3.0,1.0,part_1,,,,,,,,,,,,,yellow,flipped triangle
68.0,1.0,1.0,0.0,3.0,3.0,338.8322730002073,3.0,1.0,part_1,,,,,,,,,,,,,blue,hexagon
424.0,8.0,4.0,1.0,1.0,1.0,358.832841000094,3.0,1.0,part_1,,,,,,,,,,,,,orange,cross
0.0,3.0,0.0,0.0,3.0,3.0,391.1233349999747,3.0,1.0,part_1,,,,,,,,,,,,,gray,circle
36.0,1.0,1.0,0.0,4.0,4.0,653.343520999897,3.0,1.0,part_1,,,,,,,,,,,,,blue,hexagon
188.0,7.0,3.0,1.0,4.0,4.0,548.6736259999816,3.0,1.0,part_1,,,,,,,,,,,,,green,diamond
413.0,8.0,4.0,1.0,3.0,3.0,421.6093889999683,3.0,1.0,part_1,,,,,,,,,,,,,orange,cross
101.0,6.0,2.0,1.0,3.0,3.0,403.0746559997169,3.0,1.0,part_1,,,,,,,,,,,,,white,triangle
392.0,8.0,4.0,1.0,1.0,1.0,547.5375849996453,3.0,1.0,part_1,,,,,,,,,,,,,orange,cross
119.0,6.0,2.0,1.0,2.0,2.0,645.1594289997047,3.0,1.0,part_1,,,,,,,,,,,,,white,triangle
58.0,1.0,1.0,0.0,3.0,3.0,393.5005019998243,3.0,1.0,part_1,,,,,,,,,,,,,blue,hexagon
418.0,8.0,4.0,1.0,2.0,2.0,395.7536200000504,3.0,1.0,part_1,,,,,,,,,,,,,orange,cross
383.0,8.0,4.0,1.0,4.0,4.0,616.0742669999308,3.0,1.0,part_1,,,,,,,,,,,,,orange,cross
413.0,4.0,4.0,0.0,2.0,2.0,329.171019000114,3.0,1.0,part_1,,,,,,,,,,,,,magenta,square
27.0,5.0,1.0,1.0,1.0,1.0,397.2436530002596,3.0,1.0,part_1,,,,,,,,,,,,,cyan,I
76.0,6.0,2.0,1.0,4.0,4.0,588.8818110001921,3.0,1.0,part_1,,,,,,,,,,,,,white,triangle
179.0,7.0,3.0,1.0,3.0,3.0,401.0996040001373,3.0,1.0,part_1,,,,,,,,,,,,,green,diamond
217.0,3.0,3.0,0.0,4.0,4.0,571.872226999858,3.0,1.0,part_1,,,,,,,,,,,,,gray,circle
106.0,2.0,2.0,0.0,1.0,1.0,322.0858260001478,3.0,1.0,part_1,,,,,,,,,,,,,yellow,flipped triangle
93.0,6.0,2.0,1.0,4.0,4.0,441.2421550000545,3.0,1.0,part_1,,,,,,,,,,,,,white,triangle
0.0,4.0,0.0,0.0,2.0,2.0,352.7853719997438,3.0,1.0,part_1,,,,,,,,,,,,,magenta,square
0.0,5.0,0.0,1.0,2.0,2.0,348.3488010001565,3.0,1.0,part_1,,,,,,,,,,,,,cyan,I
389.0,8.0,4.0,1.0,1.0,1.0,568.5842679999951,3.0,1.0,part_1,,,,,,,,,,,,,orange,cross
36.0,1.0,1.0,0.0,2.0,2.0,348.9493879997098,3.0,1.0,part_1,,,,,,,,,,,,,blue,hexagon
28.0,1.0,1.0,0.0,1.0,1.0,373.6673850003171,3.0,1.0,part_1,,,,,,,,,,,,,blue,hexagon
119.0,2.0,2.0,0.0,4.0,4.0,390.7244319998426,3.0,1.0,part_1,,,,,,,,,,,,,yellow,flipped triangle
179.0,7.0,3.0,1.0,1.0,1.0,407.1058310000808,3.0,1.0,part_1,,,,,,,,,,,,,green,diamond
377.0,4.0,4.0,0.0,3.0,3.0,364.1503579997334,3.0,1.0,part_1,,,,,,,,,,,,,magenta,square
30.0,5.0,1.0,1.0,3.0,3.0,420.0555039997198,3.0,1.0,part_1,,,,,,,,,,,,,cyan,I
0.0,7.0,0.0,1.0,1.0,1.0,391.1884740000459,3.0,1.0,part_1,,,,,,,,,,,,,green,diamond
101.0,2.0,2.0,0.0,4.0,4.0,360.1196949998666,3.0,1.0,part_1,,,,,,,,,,,,,yellow,flipped triangle
222.0,7.0,3.0,1.0,2.0,2.0,337.9093779999493,3.0,1.0,part_1,,,,,,,,,,,,,green,diamond
402.0,4.0,4.0,0.0,1.0,1.0,459.2407200002526,3.0,1.0,part_1,,,,,,,,,,,,,magenta,square
90.0,2.0,2.0,0.0,3.0,3.0,394.6213420003914,3.0,1.0,part_1,,,,,,,,,,,,,yellow,flipped triangle
224.0,3.0,3.0,0.0,1.0,1.0,307.3275429997011,3.0,1.0,part_1,,,,,,,,,,,,,gray,circle
394.0,4.0,4.0,0.0,1.0,1.0,402.3480849996304,3.0,1.0,part_1,,,,,,,,,,,,,magenta,square
387.0,8.0,4.0,1.0,2.0,2.0,477.0033730001159,3.0,1.0,part_1,,,,,,,,,,,,,orange,cross
89.0,2.0,2.0,0.0,1.0,1.0,340.7279010002639,3.0,2.0,part_1,,,,,,,,,,,,,yellow,flipped triangle
179.0,3.0,3.0,0.0,4.0,4.0,389.0097889998287,3.0,1.0,part_1,,,,,,,,,,,,,gray,circle
178.0,3.0,3.0,0.0,4.0,4.0,390.3013340000143,3.0,1.0,part_1,,,,,,,,,,,,,gray,circle
191.0,7.0,3.0,1.0,4.0,4.0,457.1296069998425,3.0,1.0,part_1,,,,,,,,,,,,,green,diamond
90.0,6.0,2.0,1.0,4.0,4.0,319.3036859997846,3.0,1.0,part_1,,,,,,,,,,,,,white,triangle
388.0,8.0,4.0,1.0,3.0,3.0,408.9355639998757,3.0,1.0,part_1,,,,,,,,,,,,,orange,cross
0.0,3.0,0.0,0.0,2.0,2.0,319.161756000085,3.0,1.0,part_1,,,,,,,,,,,,,gray,circle
203.0,7.0,3.0,1.0,2.0,2.0,300.7753320002848,3.0,1.0,part_1,,,,,,,,,,,,,green,diamond
375.0,4.0,4.0,0.0,2.0,2.0,288.22535900008,3.0,1.0,part_1,,,,,,,,,,,,,magenta,square
392.0,8.0,4.0,1.0,2.0,2.0,369.9205399998391,3.0,1.0,part_1,,,,,,,,,,,,,orange,cross
51.0,1.0,1.0,0.0,2.0,2.0,320.2450509998016,3.0,1.0,part_1,,,,,,,,,,,,,blue,hexagon
389.0,8.0,4.0,1.0,2.0,2.0,326.0196720002568,3.0,1.0,part_1,,,,,,,,,,,,,orange,cross
0.0,8.0,0.0,1.0,2.0,2.0,276.7359169997689,3.0,1.0,part_1,,,,,,,,,,,,,orange,cross
42.0,5.0,1.0,1.0,3.0,3.0,436.9881370002986,3.0,1.0,part_1,,,,,,,,,,,,,cyan,I
121.0,6.0,2.0,1.0,3.0,3.0,339.4679009998071,3.0,1.0,part_1,,,,,,,,,,,,,white,triangle
78.0,2.0,2.0,0.0,2.0,2.0,346.8089409998356,3.0,1.0,part_1,,,,,,,,,,,,,yellow,flipped triangle
0.0,5.0,0.0,1.0,1.0,1.0,478.1203300003653,3.0,1.0,part_1,,,,,,,,,,,,,cyan,I
85.0,6.0,2.0,1.0,4.0,4.0,471.9560369999271,3.0,1.0,part_1,,,,,,,,,,,,,white,triangle
93.0,2.0,2.0,0.0,4.0,4.0,619.4647830002395,3.0,1.0,part_1,,,,,,,,,,,,,yellow,flipped triangle
122.0,2.0,2.0,0.0,1.0,1.0,392.0668020000448,3.0,1.0,part_1,,,,,,,,,,,,,yellow,flipped triangle
78.0,6.0,2.0,1.0,3.0,3.0,507.5727530002041,3.0,1.0,part_1,,,,,,,,,,,,,white,triangle
82.0,2.0,2.0,0.0,4.0,4.0,382.9682509999657,3.0,2.0,part_1,,,,,,,,,,,,,yellow,flipped triangle
110.0,6.0,2.0,1.0,3.0,3.0,351.4789549999477,3.0,1.0,part_1,,,,,,,,,,,,,white,triangle
177.0,7.0,3.0,1.0,4.0,4.0,401.0200369998529,3.0,1.0,part_1,,,,,,,,,,,,,green,diamond
0.0,2.0,0.0,0.0,4.0,4.0,365.1776780002365,3.0,1.0,part_1,,,,,,,,,,,,,yellow,flipped triangle
0.0,4.0,0.0,0.0,3.0,3.0,433.0206899999211,3.0,1.0,part_1,,,,,,,,,,,,,magenta,square
33.0,1.0,1.0,0.0,2.0,2.0,435.5943809996461,3.0,1.0,part_1,,,,,,,,,,,,,blue,hexagon
0.0,5.0,0.0,1.0,4.0,4.0,486.6080500000862,3.0,1.0,part_1,,,,,,,,,,,,,cyan,I
381.0,8.0,4.0,1.0,1.0,1.0,405.0772979999237,3.0,1.0,part_1,,,,,,,,,,,,,orange,cross
402.0,8.0,4.0,1.0,4.0,4.0,449.8450720002438,3.0,1.0,part_1,,,,,,,,,,,,,orange,cross
0.0,2.0,0.0,0.0,4.0,4.0,387.6852739999776,4.0,1.0,part_1,,,,,,,,,,,,,yellow,flipped triangle
103.0,2.0,2.0,0.0,4.0,4.0,273.8017869996838,4.0,1.0,part_1,,,,,,,,,,,,,yellow,flipped triangle
0.0,1.0,0.0,0.0,1.0,1.0,389.3534340004407,4.0,1.0,part_1,,,,,,,,,,,,,blue,hexagon
0.0,3.0,0.0,0.0,2.0,2.0,328.4227899998768,4.0,1.0,part_1,,,,,,,,,,,,,gray,circle
36.0,5.0,1.0,1.0,1.0,1.0,319.7259160001522,4.0,1.0,part_1,,,,,,,,,,,,,cyan,I
0.0,2.0,0.0,0.0,1.0,1.0,340.4053270000986,4.0,1.0,part_1,,,,,,,,,,,,,yellow,flipped triangle
104.0,2.0,2.0,0.0,2.0,2.0,339.3494110000574,4.0,1.0,part_1,,,,,,,,,,,,,yellow,flipped triangle
0.0,1.0,0.0,0.0,3.0,3.0,357.8171710000788,4.0,1.0,part_1,,,,,,,,,,,,,blue,hexagon
68.0,5.0,1.0,1.0,3.0,3.0,470.3840269999091,4.0,1.0,part_1,,,,,,,,,,,,,cyan,I
214.0,3.0,3.0,0.0,1.0,1.0,376.9724069998119,4.0,1.0,part_1,,,,,,,,,,,,,gray,circle
377.0,8.0,4.0,1.0,1.0,1.0,366.6073830004279,4.0,1.0,part_1,,,,,,,,,,,,,orange,cross
0.0,7.0,0.0,1.0,2.0,2.0,319.9484080000729,4.0,1.0,part_1,,,,,,,,,,,,,green,diamond
0.0,8.0,0.0,1.0,1.0,1.0,294.2358290001721,4.0,1.0,part_1,,,,,,,,,,,,,orange,cross
424.0,4.0,4.0,0.0,3.0,3.0,418.1895890001215,4.0,1.0,part_1,,,,,,,,,,,,,magenta,square
0.0,5.0,0.0,1.0,2.0,2.0,327.7120859997922,4.0,1.0,part_1,,,,,,,,,,,,,cyan,I
60.0,5.0,1.0,1.0,3.0,3.0,372.2359020002841,4.0,1.0,part_1,,,,,,,,,,,,,cyan,I
380.0,8.0,4.0,1.0,2.0,2.0,410.3199559999666,4.0,1.0,part_1,,,,,,,,,,,,,orange,cross
83.0,6.0,2.0,1.0,1.0,1.0,422.6064469999073,4.0,1.0,part_1,,,,,,,,,,,,,white,triangle
424.0,4.0,4.0,0.0,4.0,4.0,470.0143380000554,4.0,1.0,part_1,,,,,,,,,,,,,magenta,square
0.0,3.0,0.0,0.0,4.0,4.0,586.4513909996276,4.0,1.0,part_1,,,,,,,,,,,,,gray,circle
98.0,2.0,2.0,0.0,4.0,4.0,366.0612840003523,4.0,1.0,part_1,,,,,,,,,,,,,yellow,flipped triangle
0.0,2.0,0.0,0.0,4.0,4.0,330.679988999691,4.0,1.0,part_1,,,,,,,,,,,,,yellow,flipped triangle
183.0,7.0,3.0,1.0,4.0,4.0,376.0770959997899,4.0,1.0,part_1,,,,,,,,,,,,,green,diamond
0.0,6.0,0.0,1.0,1.0,1.0,393.1499569998777,4.0,1.0,part_1,,,,,,,,,,,,,white,triangle
377.0,4.0,4.0,0.0,2.0,2.0,345.0617669996063,4.0,1.0,part_1,,,,,,,,,,,,,magenta,square
411.0,8.0,4.0,1.0,2.0,2.0,482.8119290000359,4.0,1.0,part_1,,,,,,,,,,,,,orange,cross
95.0,2.0,2.0,0.0,3.0,3.0,420.5854990000262,4.0,1.0,part_1,,,,,,,,,,,,,yellow,flipped triangle
121.0,2.0,2.0,0.0,1.0,1.0,495.8051970002088,4.0,1.0,part_1,,,,,,,,,,,,,yellow,flipped triangle
43.0,1.0,1.0,0.0,4.0,4.0,330.6150230000639,4.0,1.0,part_1,,,,,,,,,,,,,blue,hexagon
225.0,3.0,3.0,0.0,4.0,4.0,549.3742240000756,4.0,1.0,part_1,,,,,,,,,,,,,gray,circle
66.0,1.0,1.0,0.0,2.0,2.0,391.2495479999052,4.0,1.0,part_1,,,,,,,,,,,,,blue,hexagon
393.0,4.0,4.0,0.0,4.0,4.0,297.4950780003382,4.0,1.0,part_1,,,,,,,,,,,,,magenta,square
111.0,2.0,2.0,0.0,3.0,3.0,363.65126300006517,4.0,1.0,part_1,,,,,,,,,,,,,yellow,flipped triangle
88.0,2.0,2.0,0.0,1.0,1.0,396.7111980000481,4.0,1.0,part_1,,,,,,,,,,,,,yellow,flipped triangle
0.0,8.0,0.0,1.0,1.0,1.0,416.5448850003486,4.0,1.0,part_1,,,,,,,,,,,,,orange,cross
191.0,7.0,3.0,1.0,3.0,3.0,344.9397910003426,4.0,1.0,part_1,,,,,,,,,,,,,green,diamond
185.0,7.0,3.0,1.0,1.0,1.0,348.5563630001707,4.0,1.0,part_1,,,,,,,,,,,,,green,diamond
83.0,6.0,2.0,1.0,1.0,1.0,416.710332999628,4.0,1.0,part_1,,,,,,,,,,,,,white,triangle
0.0,8.0,0.0,1.0,3.0,3.0,378.5170350001863,4.0,1.0,part_1,,,,,,,,,,,,,orange,cross
85.0,6.0,2.0,1.0,2.0,2.0,354.9060840000493,4.0,1.0,part_1,,,,,,,,,,,,,white,triangle
187.0,3.0,3.0,0.0,2.0,2.0,319.8013380001612,4.0,1.0,part_1,,,,,,,,,,,,,gray,circle
222.0,7.0,3.0,1.0,4.0,4.0,491.4024209997478,4.0,1.0,part_1,,,,,,,,,,,,,green,diamond
200.0,7.0,3.0,1.0,1.0,1.0,587.5660249998873,4.0,1.0,part_1,,,,,,,,,,,,,green,diamond
178.0,3.0,3.0,0.0,1.0,1.0,330.1050680001935,4.0,1.0,part_1,,,,,,,,,,,,,gray,circle
0.0,6.0,0.0,1.0,3.0,3.0,400.859176999802,4.0,1.0,part_1,,,,,,,,,,,,,white,triangle
95.0,6.0,2.0,1.0,3.0,3.0,415.3617359997952,4.0,1.0,part_1,,,,,,,,,,,,,white,triangle
413.0,4.0,4.0,0.0,1.0,1.0,439.6983279998494,4.0,1.0,part_1,,,,,,,,,,,,,magenta,square
0.0,7.0,0.0,1.0,1.0,1.0,339.0588389997901,4.0,1.0,part_1,,,,,,,,,,,,,green,diamond
85.0,2.0,2.0,0.0,4.0,4.0,436.2606160002542,4.0,1.0,part_1,,,,,,,,,,,,,yellow,flipped triangle
222.0,7.0,3.0,1.0,4.0,4.0,469.2216680000456,4.0,1.0,part_1,,,,,,,,,,,,,green,diamond
203.0,7.0,3.0,1.0,4.0,4.0,412.4159269999836,4.0,1.0,part_1,,,,,,,,,,,,,green,diamond
0.0,3.0,0.0,0.0,1.0,1.0,433.5671229996478,4.0,1.0,part_1,,,,,,,,,,,,,gray,circle
411.0,8.0,4.0,1.0,3.0,3.0,672.0514949997778,4.0,1.0,part_1,,,,,,,,,,,,,orange,cross
0.0,1.0,0.0,0.0,4.0,4.0,371.8770999998924,4.0,1.0,part_1,,,,,,,,,,,,,blue,hexagon
43.0,5.0,1.0,1.0,1.0,1.0,331.8155279998791,4.0,1.0,part_1,,,,,,,,,,,,,cyan,I
0.0,7.0,0.0,1.0,3.0,3.0,417.327760000262,4.0,1.0,part_1,,,,,,,,,,,,,green,diamond
53.0,5.0,1.0,1.0,2.0,2.0,538.2529749999776,4.0,1.0,part_1,,,,,,,,,,,,,cyan,I
222.0,3.0,3.0,0.0,2.0,2.0,413.8102730003083,4.0,1.0,part_1,,,,,,,,,,,,,gray,circle
396.0,8.0,4.0,1.0,1.0,1.0,548.8234320000629,4.0,1.0,part_1,,,,,,,,,,,,,orange,cross
51.0,5.0,1.0,1.0,4.0,4.0,292.9970490004052,4.0,1.0,part_1,,,,,,,,,,,,,cyan,I
208.0,3.0,3.0,0.0,3.0,3.0,331.5685279999343,4.0,1.0,part_1,,,,,,,,,,,,,gray,circle
39.0,1.0,1.0,0.0,4.0,4.0,335.73283800024,4.0,1.0,part_1,,,,,,,,,,,,,blue,hexagon
192.0,7.0,3.0,1.0,1.0,1.0,330.5733709999003,4.0,1.0,part_1,,,,,,,,,,,,,green,diamond
0.0,7.0,0.0,1.0,2.0,2.0,386.0922019998725,4.0,1.0,part_1,,,,,,,,,,,,,green,diamond
218.0,7.0,3.0,1.0,3.0,3.0,415.5716899999788,4.0,1.0,part_1,,,,,,,,,,,,,green,diamond
55.0,5.0,1.0,1.0,2.0,2.0,410.2268470001036,4.0,1.0,part_1,,,,,,,,,,,,,cyan,I
0.0,3.0,0.0,0.0,4.0,4.0,373.2566310000038,4.0,1.0,part_1,,,,,,,,,,,,,gray,circle
30.0,1.0,1.0,0.0,1.0,1.0,383.3718010000666,4.0,1.0,part_1,,,,,,,,,,,,,blue,hexagon
101.0,2.0,2.0,0.0,4.0,4.0,670.2985209999497,4.0,1.0,part_1,,,,,,,,,,,,,yellow,flipped triangle
377.0,8.0,4.0,1.0,2.0,2.0,467.830808999679,4.0,1.0,part_1,,,,,,,,,,,,,orange,cross
107.0,2.0,2.0,0.0,4.0,4.0,390.3892039998027,4.0,1.0,part_1,,,,,,,,,,,,,yellow,flipped triangle
403.0,8.0,4.0,1.0,4.0,4.0,443.7527499999305,4.0,1.0,part_1,,,,,,,,,,,,,orange,cross
0.0,8.0,0.0,1.0,4.0,4.0,322.1350889998575,4.0,1.0,part_1,,,,,,,,,,,,,orange,cross
120.0,6.0,2.0,1.0,1.0,1.0,403.3728129998053,4.0,1.0,part_1,,,,,,,,,,,,,white,triangle
82.0,6.0,2.0,1.0,1.0,1.0,345.048682000197,4.0,1.0,part_1,,,,,,,,,,,,,white,triangle
119.0,2.0,2.0,0.0,3.0,3.0,437.2565139997277,4.0,1.0,part_1,,,,,,,,,,,,,yellow,flipped triangle
388.0,4.0,4.0,0.0,4.0,4.0,350.0660949998746,4.0,2.0,part_1,,,,,,,,,,,,,magenta,square
183.0,7.0,3.0,1.0,2.0,2.0,519.1904789999171,4.0,1.0,part_1,,,,,,,,,,,,,green,diamond
88.0,6.0,2.0,1.0,4.0,4.0,463.5146430000532,4.0,1.0,part_1,,,,,,,,,,,,,white,triangle
37.0,1.0,1.0,0.0,4.0,4.0,380.0306120001551,4.0,1.0,part_1,,,,,,,,,,,,,blue,hexagon
222.0,3.0,3.0,0.0,3.0,3.0,436.6219069997896,4.0,1.0,part_1,,,,,,,,,,,,,gray,circle
48.0,5.0,1.0,1.0,3.0,3.0,351.1018760000297,4.0,1.0,part_1,,,,,,,,,,,,,cyan,I
73.0,5.0,1.0,1.0,2.0,2.0,411.8241739997756,4.0,1.0,part_1,,,,,,,,,,,,,cyan,I
75.0,5.0,1.0,1.0,4.0,4.0,443.7247730002127,4.0,1.0,part_1,,,,,,,,,,,,,cyan,I
381.0,4.0,4.0,0.0,4.0,4.0,467.190488000142,4.0,1.0,part_1,,,,,,,,,,,,,magenta,square
103.0,6.0,2.0,1.0,3.0,3.0,332.0317210000212,4.0,1.0,part_1,,,,,,,,,,,,,white,triangle
124.0,2.0,2.0,0.0,2.0,2.0,523.7131629996838,4.0,1.0,part_1,,,,,,,,,,,,,yellow,flipped triangle
0.0,8.0,0.0,1.0,2.0,2.0,574.997768999765,4.0,1.0,part_1,,,,,,,,,,,,,orange,cross
73.0,1.0,1.0,0.0,3.0,3.0,814.3415690001348,4.0,1.0,part_1,,,,,,,,,,,,,blue,hexagon
101.0,6.0,2.0,1.0,2.0,2.0,336.5411720001248,4.0,1.0,part_1,,,,,,,,,,,,,white,triangle
0.0,2.0,0.0,0.0,3.0,3.0,431.7542419998972,4.0,1.0,part_1,,,,,,,,,,,,,yellow,flipped triangle
213.0,3.0,3.0,0.0,2.0,2.0,384.9858919998041,4.0,1.0,part_1,,,,,,,,,,,,,gray,circle
408.0,4.0,4.0,0.0,2.0,2.0,560.1493500003016,4.0,1.0,part_1,,,,,,,,,,,,,magenta,square
73.0,5.0,1.0,1.0,3.0,3.0,457.6082429998678,4.0,1.0,part_1,,,,,,,,,,,,,cyan,I
0.0,4.0,0.0,0.0,4.0,4.0,395.1185190003343,4.0,1.0,part_1,,,,,,,,,,,,,magenta,square
0.0,1.0,0.0,0.0,1.0,1.0,550.3169120001985,4.0,1.0,part_1,,,,,,,,,,,,,blue,hexagon
185.0,7.0,3.0,1.0,2.0,2.0,351.4338850000058,4.0,1.0,part_1,,,,,,,,,,,,,green,diamond
47.0,1.0,1.0,0.0,3.0,3.0,410.9190499998476,4.0,1.0,part_1,,,,,,,,,,,,,blue,hexagon
214.0,7.0,3.0,1.0,1.0,1.0,279.542560000209,4.0,1.0,part_1,,,,,,,,,,,,,green,diamond
59.0,5.0,1.0,1.0,3.0,3.0,368.1776380003612,4.0,1.0,part_1,,,,,,,,,,,,,cyan,I
0.0,3.0,3.0,0.0,6.0,6.0,655.2422579998165,1.0,0.0,part_2,go,250.0,250.0,1.0,,,,,,,,,gray,circle
0.0,4.0,4.0,0.0,6.0,6.0,401.1135160003505,1.0,0.0,part_2,go,250.0,250.0,1.0,,,,,,,,,magenta,square
0.0,8.0,4.0,1.0,5.0,5.0,380.8496110000305,1.0,0.0,part_2,go,250.0,250.0,1.0,,,,,,,,,orange,cross
0.0,8.0,4.0,1.0,6.0,6.0,400.7125439998162,1.0,0.0,part_2,stop,250.0,250.0,3.0,,,,,,,,,orange,cross
0.0,3.0,3.0,0.0,5.0,5.0,533.0686990000686,1.0,0.0,part_2,go,250.0,200.0,1.0,,,,,,,,,gray,circle
0.0,2.0,2.0,0.0,6.0,6.0,778.8930450001317,1.0,0.0,part_2,go,250.0,200.0,1.0,,,,,,,,,yellow,flipped triangle
0.0,8.0,4.0,1.0,5.0,0.0,0.0,1.0,0.0,part_2,stop,250.0,200.0,4.0,,,,,,,,,orange,cross
0.0,6.0,2.0,1.0,5.0,0.0,0.0,1.0,0.0,part_2,stop,300.0,200.0,4.0,,,,,,,,,white,triangle
0.0,7.0,3.0,1.0,5.0,0.0,0.0,1.0,0.0,part_2,stop,350.0,200.0,4.0,,,,,,,,,green,diamond
0.0,3.0,3.0,0.0,5.0,5.0,783.3992840000974,1.0,0.0,part_2,go,400.0,200.0,1.0,,,,,,,,,gray,circle
0.0,8.0,4.0,1.0,5.0,0.0,0.0,1.0,0.0,part_2,stop,400.0,200.0,4.0,,,,,,,,,orange,cross
0.0,1.0,1.0,0.0,5.0,5.0,997.7934920002554,1.0,0.0,part_2,go,450.0,200.0,1.0,,,,,,,,,blue,hexagon
0.0,6.0,2.0,1.0,6.0,0.0,0.0,1.0,0.0,part_2,stop,450.0,200.0,4.0,,,,,,,,,white,triangle
0.0,7.0,3.0,1.0,5.0,0.0,0.0,1.0,0.0,part_2,stop,450.0,250.0,4.0,,,,,,,,,green,diamond
0.0,1.0,1.0,0.0,6.0,6.0,705.8024079997267,1.0,0.0,part_2,go,500.0,250.0,1.0,,,,,,,,,blue,hexagon
0.0,8.0,4.0,1.0,5.0,0.0,0.0,1.0,0.0,part_2,stop,500.0,250.0,4.0,,,,,,,,,orange,cross
0.0,8.0,4.0,1.0,5.0,0.0,0.0,1.0,0.0,part_2,stop,550.0,250.0,4.0,,,,,,,,,orange,cross
0.0,3.0,3.0,0.0,5.0,5.0,1065.0568799997018,1.0,0.0,part_2,go,600.0,250.0,1.0,,,,,,,,,gray,circle
0.0,5.0,1.0,1.0,6.0,6.0,919.7100100000172,1.0,0.0,part_2,go,600.0,250.0,1.0,,,,,,,,,cyan,I
0.0,5.0,1.0,1.0,6.0,0.0,0.0,1.0,0.0,part_2,stop,600.0,250.0,4.0,,,,,,,,,cyan,I
0.0,5.0,1.0,1.0,5.0,0.0,0.0,1.0,0.0,part_2,stop,600.0,300.0,4.0,,,,,,,,,cyan,I
0.0,7.0,3.0,1.0,6.0,6.0,1155.9770410003694,1.0,0.0,part_2,go,650.0,300.0,1.0,,,,,,,,,green,diamond
0.0,4.0,4.0,0.0,6.0,6.0,931.7224429996712,1.0,0.0,part_2,go,650.0,300.0,1.0,,,,,,,,,magenta,square
0.0,1.0,1.0,0.0,5.0,5.0,1005.8683849997578,1.0,0.0,part_2,go,650.0,300.0,1.0,,,,,,,,,blue,hexagon
0.0,8.0,4.0,1.0,5.0,5.0,1057.2888130000138,1.0,0.0,part_2,go,650.0,300.0,1.0,,,,,,,,,orange,cross
0.0,3.0,3.0,0.0,5.0,5.0,1430.4549670000597,1.0,0.0,part_2,go,650.0,300.0,1.0,,,,,,,,,gray,circle
0.0,2.0,2.0,0.0,6.0,6.0,738.9169159996527,1.0,0.0,part_2,go,650.0,300.0,1.0,,,,,,,,,yellow,flipped triangle
0.0,2.0,2.0,0.0,5.0,5.0,734.7674220000044,1.0,0.0,part_2,go,650.0,300.0,1.0,,,,,,,,,yellow,flipped triangle
0.0,3.0,3.0,0.0,5.0,5.0,962.7692969997952,1.0,0.0,part_2,go,650.0,300.0,1.0,,,,,,,,,gray,circle
0.0,8.0,4.0,1.0,6.0,0.0,0.0,1.0,0.0,part_2,stop,650.0,300.0,4.0,,,,,,,,,orange,cross
0.0,1.0,1.0,0.0,6.0,6.0,916.6978869998276,1.0,0.0,part_2,go,650.0,350.0,1.0,,,,,,,,,blue,hexagon
0.0,8.0,4.0,1.0,6.0,0.0,0.0,1.0,0.0,part_2,stop,650.0,350.0,4.0,,,,,,,,,orange,cross
0.0,7.0,3.0,1.0,6.0,0.0,0.0,1.0,0.0,part_2,stop,650.0,400.0,4.0,,,,,,,,,green,diamond
0.0,4.0,4.0,0.0,5.0,5.0,918.6469960000068,1.0,0.0,part_2,go,650.0,450.0,1.0,,,,,,,,,magenta,square
0.0,1.0,1.0,0.0,5.0,5.0,412.7634659998875,1.0,0.0,part_2,go,650.0,450.0,1.0,,,,,,,,,blue,hexagon
0.0,6.0,2.0,1.0,5.0,0.0,0.0,1.0,0.0,part_2,stop,650.0,450.0,4.0,,,,,,,,,white,triangle
0.0,6.0,2.0,1.0,6.0,6.0,402.8370460000587,2.0,0.0,part_2,go,700.0,450.0,1.0,,,,,,,,,white,triangle
0.0,1.0,1.0,0.0,5.0,5.0,369.4363139998131,2.0,0.0,part_2,go,700.0,450.0,1.0,,,,,,,,,blue,hexagon
0.0,3.0,3.0,0.0,6.0,6.0,488.4406830001353,2.0,0.0,part_2,go,700.0,450.0,1.0,,,,,,,,,gray,circle
0.0,5.0,1.0,1.0,5.0,5.0,365.2978229997643,2.0,0.0,part_2,go,700.0,450.0,1.0,,,,,,,,,cyan,I
0.0,1.0,1.0,0.0,6.0,6.0,379.4514219998746,2.0,0.0,part_2,go,700.0,450.0,1.0,,,,,,,,,blue,hexagon
0.0,1.0,1.0,0.0,6.0,6.0,517.4666860002617,2.0,0.0,part_2,go,700.0,450.0,1.0,,,,,,,,,blue,hexagon
0.0,3.0,3.0,0.0,6.0,6.0,441.6386660000171,2.0,0.0,part_2,go,700.0,450.0,1.0,,,,,,,,,gray,circle
0.0,8.0,4.0,1.0,6.0,6.0,605.2566379999007,2.0,0.0,part_2,stop,700.0,450.0,3.0,,,,,,,,,orange,cross
0.0,2.0,2.0,0.0,6.0,6.0,685.2223020000565,2.0,0.0,part_2,go,700.0,400.0,1.0,,,,,,,,,yellow,flipped triangle
0.0,3.0,3.0,0.0,5.0,5.0,264.9706760003028,2.0,0.0,part_2,go,700.0,400.0,1.0,,,,,,,,,gray,circle
0.0,6.0,2.0,1.0,6.0,6.0,602.8810309999244,2.0,0.0,part_2,stop,700.0,400.0,3.0,,,,,,,,,white,triangle
0.0,4.0,4.0,0.0,5.0,5.0,778.6822580001171,2.0,0.0,part_2,go,700.0,350.0,1.0,,,,,,,,,magenta,square
0.0,7.0,3.0,1.0,5.0,5.0,736.2042909999218,2.0,0.0,part_2,stop,700.0,350.0,3.0,,,,,,,,,green,diamond
0.0,4.0,4.0,0.0,5.0,5.0,695.9082070002296,2.0,0.0,part_2,go,650.0,350.0,1.0,,,,,,,,,magenta,square
0.0,3.0,3.0,0.0,5.0,5.0,1092.0558440002424,2.0,0.0,part_2,go,650.0,350.0,1.0,,,,,,,,,gray,circle
0.0,2.0,2.0,0.0,5.0,5.0,849.8940200001925,2.0,0.0,part_2,go,650.0,350.0,1.0,,,,,,,,,yellow,flipped triangle
0.0,6.0,2.0,1.0,6.0,0.0,0.0,2.0,0.0,part_2,stop,650.0,350.0,4.0,,,,,,,,,white,triangle
0.0,1.0,1.0,0.0,6.0,6.0,674.6088060003785,2.0,0.0,part_2,go,650.0,400.0,1.0,,,,,,,,,blue,hexagon
0.0,3.0,3.0,0.0,5.0,5.0,681.8409970001085,2.0,0.0,part_2,go,650.0,400.0,1.0,,,,,,,,,gray,circle
0.0,3.0,3.0,0.0,6.0,6.0,748.3662729996468,2.0,0.0,part_2,go,650.0,400.0,1.0,,,,,,,,,gray,circle
0.0,2.0,2.0,0.0,5.0,5.0,449.3095200000425,2.0,0.0,part_2,go,650.0,400.0,1.0,,,,,,,,,yellow,flipped triangle
0.0,1.0,1.0,0.0,6.0,6.0,561.0343090002061,2.0,0.0,part_2,go,650.0,400.0,1.0,,,,,,,,,blue,hexagon
0.0,4.0,4.0,0.0,5.0,5.0,465.7372370002122,2.0,0.0,part_2,go,650.0,400.0,1.0,,,,,,,,,magenta,square
0.0,5.0,1.0,1.0,6.0,6.0,546.740810999836,2.0,0.0,part_2,stop,650.0,400.0,3.0,,,,,,,,,cyan,I
0.0,2.0,2.0,0.0,6.0,6.0,647.8159190000952,2.0,0.0,part_2,go,650.0,350.0,1.0,,,,,,,,,yellow,flipped triangle
0.0,3.0,3.0,0.0,5.0,5.0,682.622924000043,2.0,0.0,part_2,go,650.0,350.0,1.0,,,,,,,,,gray,circle
0.0,5.0,1.0,1.0,5.0,5.0,766.9368189999659,2.0,0.0,part_2,stop,650.0,350.0,3.0,,,,,,,,,cyan,I
0.0,4.0,4.0,0.0,6.0,6.0,731.1883789998319,2.0,0.0,part_2,go,600.0,350.0,1.0,,,,,,,,,magenta,square
0.0,1.0,1.0,0.0,5.0,5.0,717.113387000154,2.0,0.0,part_2,go,600.0,350.0,1.0,,,,,,,,,blue,hexagon
0.0,6.0,2.0,1.0,6.0,6.0,485.7616889999008,2.0,0.0,part_2,stop,600.0,350.0,3.0,,,,,,,,,white,triangle
0.0,6.0,2.0,1.0,5.0,5.0,635.8896460001233,2.0,0.0,part_2,stop,600.0,300.0,3.0,,,,,,,,,white,triangle
0.0,2.0,2.0,0.0,6.0,6.0,762.4140789998819,2.0,0.0,part_2,go,550.0,300.0,1.0,,,,,,,,,yellow,flipped triangle
0.0,4.0,4.0,0.0,6.0,6.0,744.4548230000692,2.0,0.0,part_2,go,550.0,300.0,1.0,,,,,,,,,magenta,square
0.0,5.0,1.0,1.0,6.0,0.0,0.0,2.0,0.0,part_2,stop,550.0,300.0,4.0,,,,,,,,,cyan,I
0.0,7.0,3.0,1.0,5.0,5.0,735.4038080002283,2.0,0.0,part_2,stop,550.0,350.0,3.0,,,,,,,,,green,diamond
0.0,5.0,1.0,1.0,6.0,6.0,1026.202979000118,2.0,0.0,part_2,go,500.0,350.0,1.0,,,,,,,,,cyan,I
0.0,3.0,3.0,0.0,6.0,6.0,658.0476369999815,3.0,0.0,part_2,go,500.0,350.0,1.0,,,,,,,,,gray,circle
0.0,3.0,3.0,0.0,5.0,5.0,657.3165949998838,3.0,0.0,part_2,go,500.0,350.0,1.0,,,,,,,,,gray,circle
0.0,6.0,2.0,1.0,6.0,6.0,319.0410189999966,3.0,0.0,part_2,go,500.0,350.0,1.0,,,,,,,,,white,triangle
0.0,5.0,1.0,1.0,5.0,5.0,612.217304999831,3.0,0.0,part_2,stop,500.0,350.0,3.0,,,,,,,,,cyan,I
0.0,8.0,4.0,1.0,6.0,0.0,0.0,3.0,0.0,part_2,stop,450.0,350.0,4.0,,,,,,,,,orange,cross
0.0,3.0,3.0,0.0,6.0,6.0,696.0020189999341,3.0,0.0,part_2,go,450.0,400.0,1.0,,,,,,,,,gray,circle
0.0,7.0,3.0,1.0,5.0,0.0,0.0,3.0,0.0,part_2,stop,450.0,400.0,4.0,,,,,,,,,green,diamond
0.0,2.0,2.0,0.0,6.0,6.0,793.8671580000118,3.0,0.0,part_2,go,500.0,400.0,1.0,,,,,,,,,yellow,flipped triangle
0.0,1.0,1.0,0.0,6.0,6.0,795.8047060001263,3.0,0.0,part_2,go,500.0,400.0,1.0,,,,,,,,,blue,hexagon
0.0,5.0,1.0,1.0,6.0,0.0,0.0,3.0,0.0,part_2,stop,500.0,400.0,4.0,,,,,,,,,cyan,I
0.0,1.0,1.0,0.0,5.0,5.0,793.0890410002576,3.0,0.0,part_2,go,500.0,450.0,1.0,,,,,,,,,blue,hexagon
0.0,4.0,4.0,0.0,5.0,5.0,658.5843890002252,3.0,0.0,part_2,go,500.0,450.0,1.0,,,,,,,,,magenta,square
0.0,8.0,4.0,1.0,5.0,0.0,0.0,3.0,0.0,part_2,stop,500.0,450.0,4.0,,,,,,,,,orange,cross
0.0,6.0,2.0,1.0,6.0,0.0,0.0,3.0,0.0,part_2,stop,550.0,450.0,4.0,,,,,,,,,white,triangle
0.0,6.0,2.0,1.0,6.0,0.0,0.0,3.0,0.0,part_2,stop,550.0,500.0,4.0,,,,,,,,,white,triangle
0.0,4.0,4.0,0.0,5.0,5.0,726.5660099997149,3.0,0.0,part_2,go,550.0,550.0,1.0,,,,,,,,,magenta,square
0.0,6.0,2.0,1.0,6.0,0.0,0.0,3.0,0.0,part_2,stop,550.0,550.0,4.0,,,,,,,,,white,triangle
0.0,1.0,1.0,0.0,6.0,6.0,1016.8927119998443,3.0,0.0,part_2,go,550.0,600.0,1.0,,,,,,,,,blue,hexagon
0.0,8.0,4.0,1.0,5.0,0.0,0.0,3.0,0.0,part_2,stop,550.0,600.0,4.0,,,,,,,,,orange,cross
0.0,1.0,1.0,0.0,5.0,5.0,853.2332649997443,3.0,0.0,part_2,go,600.0,600.0,1.0,,,,,,,,,blue,hexagon
0.0,2.0,2.0,0.0,6.0,6.0,486.3496859998122,3.0,0.0,part_2,go,600.0,600.0,1.0,,,,,,,,,yellow,flipped triangle
0.0,7.0,3.0,1.0,6.0,6.0,648.1606510001257,3.0,0.0,part_2,go,600.0,600.0,1.0,,,,,,,,,green,diamond
0.0,5.0,1.0,1.0,5.0,0.0,0.0,3.0,0.0,part_2,stop,600.0,600.0,4.0,,,,,,,,,cyan,I
0.0,2.0,2.0,0.0,5.0,5.0,939.6520199998122,3.0,0.0,part_2,go,650.0,600.0,1.0,,,,,,,,,yellow,flipped triangle
0.0,3.0,3.0,0.0,6.0,6.0,748.7087519998568,3.0,0.0,part_2,go,650.0,600.0,1.0,,,,,,,,,gray,circle
0.0,1.0,1.0,0.0,5.0,5.0,638.497907999863,3.0,0.0,part_2,go,650.0,600.0,1.0,,,,,,,,,blue,hexagon
0.0,8.0,4.0,1.0,6.0,6.0,833.8549800000692,3.0,0.0,part_2,go,650.0,600.0,1.0,,,,,,,,,orange,cross
0.0,4.0,4.0,0.0,5.0,5.0,381.7205539999122,3.0,0.0,part_2,go,650.0,600.0,1.0,,,,,,,,,magenta,square
0.0,1.0,1.0,0.0,6.0,6.0,808.8010669998766,3.0,0.0,part_2,go,650.0,600.0,1.0,,,,,,,,,blue,hexagon
0.0,5.0,1.0,1.0,6.0,6.0,702.6878489996307,3.0,0.0,part_2,stop,650.0,600.0,3.0,,,,,,,,,cyan,I
0.0,4.0,4.0,0.0,5.0,5.0,716.7862649998824,3.0,0.0,part_2,go,650.0,550.0,1.0,,,,,,,,,magenta,square
0.0,3.0,3.0,0.0,5.0,5.0,838.2907010000054,3.0,0.0,part_2,go,650.0,550.0,1.0,,,,,,,,,gray,circle
0.0,6.0,2.0,1.0,6.0,0.0,0.0,3.0,0.0,part_2,stop,650.0,550.0,4.0,,,,,,,,,white,triangle
0.0,4.0,4.0,0.0,5.0,5.0,786.8933340000694,3.0,0.0,part_2,go,650.0,600.0,1.0,,,,,,,,,magenta,square
0.0,7.0,3.0,1.0,6.0,6.0,646.4096319996315,3.0,0.0,part_2,stop,650.0,600.0,3.0,,,,,,,,,green,diamond
0.0,5.0,1.0,1.0,6.0,6.0,529.8328969997783,3.0,0.0,part_2,go,650.0,550.0,1.0,,,,,,,,,cyan,I
0.0,5.0,1.0,1.0,5.0,5.0,432.0192430000134,4.0,0.0,part_2,stop,650.0,550.0,3.0,,,,,,,,,cyan,I
0.0,4.0,4.0,0.0,6.0,6.0,544.9938120000297,4.0,0.0,part_2,go,600.0,550.0,1.0,,,,,,,,,magenta,square
0.0,8.0,4.0,1.0,6.0,6.0,361.0042059999614,4.0,0.0,part_2,go,600.0,550.0,1.0,,,,,,,,,orange,cross
0.0,1.0,1.0,0.0,5.0,5.0,346.8036950002897,4.0,0.0,part_2,go,600.0,550.0,1.0,,,,,,,,,blue,hexagon
0.0,7.0,3.0,1.0,5.0,5.0,696.4288409999426,4.0,0.0,part_2,stop,600.0,550.0,3.0,,,,,,,,,green,diamond
0.0,1.0,1.0,0.0,6.0,6.0,748.3971749998091,4.0,0.0,part_2,go,550.0,550.0,1.0,,,,,,,,,blue,hexagon
0.0,6.0,2.0,1.0,6.0,6.0,726.7560559998856,4.0,0.0,part_2,go,550.0,550.0,1.0,,,,,,,,,white,triangle
0.0,8.0,4.0,1.0,5.0,5.0,470.458850000341,4.0,0.0,part_2,stop,550.0,550.0,3.0,,,,,,,,,orange,cross
0.0,2.0,2.0,0.0,5.0,5.0,385.8194629997342,4.0,0.0,part_2,go,500.0,550.0,1.0,,,,,,,,,yellow,flipped triangle
0.0,6.0,2.0,1.0,5.0,5.0,309.2417699999714,4.0,0.0,part_2,stop,500.0,550.0,3.0,,,,,,,,,white,triangle
0.0,8.0,4.0,1.0,5.0,5.0,464.3658750001123,4.0,0.0,part_2,go,450.0,550.0,1.0,,,,,,,,,orange,cross
0.0,6.0,2.0,1.0,5.0,5.0,319.9281909996898,4.0,0.0,part_2,stop,450.0,550.0,3.0,,,,,,,,,white,triangle
0.0,7.0,3.0,1.0,6.0,6.0,475.791283000035,4.0,0.0,part_2,go,400.0,550.0,1.0,,,,,,,,,green,diamond
0.0,1.0,1.0,0.0,6.0,6.0,461.997551999957,4.0,0.0,part_2,go,400.0,550.0,1.0,,,,,,,,,blue,hexagon
0.0,1.0,1.0,0.0,5.0,5.0,772.7218500003801,4.0,0.0,part_2,go,400.0,550.0,1.0,,,,,,,,,blue,hexagon
0.0,4.0,4.0,0.0,6.0,6.0,660.4600230002688,4.0,0.0,part_2,go,400.0,550.0,1.0,,,,,,,,,magenta,square
0.0,3.0,3.0,0.0,5.0,5.0,704.1927700001906,4.0,0.0,part_2,go,400.0,550.0,1.0,,,,,,,,,gray,circle
0.0,1.0,1.0,0.0,5.0,5.0,678.7540919999628,4.0,0.0,part_2,go,400.0,550.0,1.0,,,,,,,,,blue,hexagon
0.0,5.0,1.0,1.0,6.0,6.0,499.3493160000071,4.0,0.0,part_2,stop,400.0,550.0,3.0,,,,,,,,,cyan,I
0.0,2.0,2.0,0.0,5.0,5.0,361.6683680002097,4.0,0.0,part_2,go,400.0,500.0,1.0,,,,,,,,,yellow,flipped triangle
0.0,8.0,4.0,1.0,6.0,6.0,620.1599089999945,4.0,0.0,part_2,stop,400.0,500.0,3.0,,,,,,,,,orange,cross
0.0,2.0,2.0,0.0,6.0,6.0,682.4307249999038,4.0,0.0,part_2,go,400.0,450.0,1.0,,,,,,,,,yellow,flipped triangle
0.0,5.0,1.0,1.0,5.0,5.0,524.6985120002137,4.0,0.0,part_2,stop,400.0,450.0,3.0,,,,,,,,,cyan,I
0.0,6.0,2.0,1.0,5.0,5.0,757.8129879998414,4.0,0.0,part_2,go,350.0,450.0,1.0,,,,,,,,,white,triangle
0.0,6.0,2.0,1.0,6.0,6.0,521.2776880002821,4.0,0.0,part_2,go,350.0,450.0,1.0,,,,,,,,,white,triangle
0.0,7.0,3.0,1.0,6.0,6.0,486.8538340001578,4.0,0.0,part_2,stop,350.0,450.0,3.0,,,,,,,,,green,diamond
0.0,6.0,2.0,1.0,5.0,0.0,0.0,4.0,0.0,part_2,stop,350.0,400.0,4.0,,,,,,,,,white,triangle
0.0,2.0,2.0,0.0,6.0,6.0,652.2074849999626,4.0,0.0,part_2,go,400.0,400.0,1.0,,,,,,,,,yellow,flipped triangle
0.0,3.0,3.0,0.0,5.0,5.0,681.4145479997933,4.0,0.0,part_2,go,400.0,400.0,1.0,,,,,,,,,gray,circle
0.0,4.0,4.0,0.0,5.0,5.0,557.2288419998586,4.0,0.0,part_2,go,400.0,400.0,1.0,,,,,,,,,magenta,square
0.0,5.0,1.0,1.0,6.0,0.0,0.0,4.0,0.0,part_2,stop,400.0,400.0,4.0,,,,,,,,,cyan,I
0.0,8.0,4.0,1.0,6.0,6.0,497.6339349996124,4.0,0.0,part_2,go,400.0,450.0,1.0,,,,,,,,,orange,cross
0.0,4.0,4.0,0.0,6.0,6.0,726.8512109999392,4.0,0.0,part_2,go,400.0,450.0,1.0,,,,,,,,,magenta,square
0.0,1.0,1.0,0.0,6.0,6.0,328.8833909996356,4.0,0.0,part_2,go,400.0,450.0,1.0,,,,,,,,,blue,hexagon
0.0,7.0,3.0,1.0,6.0,0.0,0.0,4.0,0.0,part_2,stop,400.0,450.0,4.0,,,,,,,,,green,diamond
0.0,2.0,2.0,0.0,5.0,5.0,748.0969479997839,4.0,0.0,part_2,go,400.0,500.0,1.0,,,,,,,,,yellow,flipped triangle
0.0,5.0,1.0,1.0,5.0,5.0,449.6018889999504,5.0,0.0,part_2,stop,400.0,500.0,3.0,,,,,,,,,cyan,I
0.0,3.0,3.0,0.0,6.0,6.0,424.7454179999295,5.0,0.0,part_2,go,350.0,500.0,1.0,,,,,,,,,gray,circle
0.0,5.0,1.0,1.0,5.0,5.0,397.9799920002733,5.0,0.0,part_2,stop,350.0,500.0,3.0,,,,,,,,,cyan,I
0.0,3.0,3.0,0.0,6.0,6.0,414.3070039999657,5.0,0.0,part_2,go,300.0,500.0,1.0,,,,,,,,,gray,circle
0.0,5.0,1.0,1.0,5.0,5.0,444.31498799986,5.0,0.0,part_2,stop,300.0,500.0,3.0,,,,,,,,,cyan,I
0.0,7.0,3.0,1.0,6.0,6.0,702.5078570000005,5.0,0.0,part_2,stop,250.0,500.0,3.0,,,,,,,,,green,diamond
0.0,5.0,1.0,1.0,5.0,5.0,462.4325790000512,5.0,0.0,part_2,go,250.0,450.0,1.0,,,,,,,,,cyan,I
0.0,5.0,1.0,1.0,5.0,0.0,0.0,5.0,0.0,part_2,stop,250.0,450.0,4.0,,,,,,,,,cyan,I
0.0,7.0,3.0,1.0,5.0,5.0,545.5992450001759,5.0,0.0,part_2,stop,300.0,450.0,3.0,,,,,,,,,green,diamond
0.0,8.0,4.0,1.0,6.0,0.0,0.0,5.0,0.0,part_2,stop,250.0,450.0,4.0,,,,,,,,,orange,cross
0.0,2.0,2.0,0.0,5.0,5.0,582.4343660001432,5.0,0.0,part_2,go,250.0,500.0,1.0,,,,,,,,,yellow,flipped triangle
0.0,7.0,3.0,1.0,6.0,6.0,665.0054669999008,5.0,0.0,part_2,stop,250.0,500.0,3.0,,,,,,,,,green,diamond
0.0,6.0,2.0,1.0,5.0,5.0,1067.198357000052,5.0,0.0,part_2,go,250.0,450.0,1.0,,,,,,,,,white,triangle
0.0,1.0,1.0,0.0,6.0,6.0,459.8248459997194,5.0,0.0,part_2,go,250.0,450.0,1.0,,,,,,,,,blue,hexagon
0.0,4.0,4.0,0.0,6.0,6.0,606.1896579999484,5.0,0.0,part_2,go,250.0,450.0,1.0,,,,,,,,,magenta,square
0.0,3.0,3.0,0.0,6.0,6.0,714.2601299997295,5.0,0.0,part_2,go,250.0,450.0,1.0,,,,,,,,,gray,circle
0.0,3.0,3.0,0.0,6.0,6.0,419.8925580003561,5.0,0.0,part_2,go,250.0,450.0,1.0,,,,,,,,,gray,circle
0.0,7.0,3.0,1.0,6.0,0.0,0.0,5.0,0.0,part_2,stop,250.0,450.0,4.0,,,,,,,,,green,diamond
0.0,5.0,1.0,1.0,6.0,6.0,639.898470999924,5.0,0.0,part_2,go,250.0,500.0,1.0,,,,,,,,,cyan,I
0.0,4.0,4.0,0.0,6.0,6.0,819.3336919998728,5.0,0.0,part_2,go,250.0,500.0,1.0,,,,,,,,,magenta,square
0.0,6.0,2.0,1.0,6.0,6.0,676.8737729998975,5.0,0.0,part_2,go,250.0,500.0,1.0,,,,,,,,,white,triangle
0.0,4.0,4.0,0.0,6.0,6.0,601.1701279999215,5.0,0.0,part_2,go,250.0,500.0,1.0,,,,,,,,,magenta,square
0.0,4.0,4.0,0.0,5.0,5.0,349.2684830002872,5.0,0.0,part_2,go,250.0,500.0,1.0,,,,,,,,,magenta,square
0.0,7.0,3.0,1.0,5.0,5.0,417.0332849998885,5.0,0.0,part_2,stop,250.0,500.0,3.0,,,,,,,,,green,diamond
0.0,5.0,1.0,1.0,5.0,5.0,410.4760969999006,5.0,0.0,part_2,go,200.0,500.0,1.0,,,,,,,,,cyan,I
0.0,8.0,4.0,1.0,6.0,6.0,702.6316179999412,5.0,0.0,part_2,stop,200.0,500.0,3.0,,,,,,,,,orange,cross
0.0,6.0,2.0,1.0,6.0,6.0,345.2105100000153,5.0,0.0,part_2,stop,200.0,450.0,3.0,,,,,,,,,white,triangle
0.0,3.0,3.0,0.0,6.0,6.0,611.6471579998688,5.0,0.0,part_2,go,200.0,400.0,1.0,,,,,,,,,gray,circle
0.0,3.0,3.0,0.0,5.0,5.0,335.5661169998711,5.0,0.0,part_2,go,200.0,400.0,1.0,,,,,,,,,gray,circle
0.0,8.0,4.0,1.0,5.0,0.0,0.0,5.0,0.0,part_2,stop,200.0,400.0,4.0,,,,,,,,,orange,cross
0.0,4.0,4.0,0.0,6.0,6.0,599.6701559997746,5.0,0.0,part_2,go,250.0,400.0,1.0,,,,,,,,,magenta,square
0.0,5.0,1.0,1.0,6.0,0.0,0.0,5.0,0.0,part_2,stop,250.0,400.0,4.0,,,,,,,,,cyan,I
0.0,6.0,2.0,1.0,6.0,6.0,536.7172760002177,5.0,0.0,part_2,stop,250.0,450.0,3.0,,,,,,,,,white,triangle
0.0,4.0,4.0,0.0,5.0,5.0,660.3304639997987,5.0,0.0,part_2,go,250.0,400.0,1.0,,,,,,,,,magenta,square
0.0,7.0,3.0,1.0,6.0,6.0,348.9103619999696,5.0,0.0,part_2,go,250.0,400.0,1.0,,,,,,,,,green,diamond
0.0,5.0,1.0,1.0,5.0,0.0,0.0,5.0,0.0,part_2,stop,250.0,400.0,4.0,,,,,,,,,cyan,I
0.0,4.0,4.0,0.0,6.0,6.0,330.3872589999628,6.0,0.0,part_2,go,300.0,400.0,1.0,,,,,,,,,magenta,square
0.0,6.0,2.0,1.0,5.0,5.0,336.2982849998843,6.0,0.0,part_2,stop,300.0,400.0,3.0,,,,,,,,,white,triangle
0.0,8.0,4.0,1.0,5.0,5.0,460.7118640001317,6.0,0.0,part_2,go,250.0,400.0,1.0,,,,,,,,,orange,cross
0.0,6.0,2.0,1.0,6.0,6.0,330.3190189999441,6.0,0.0,part_2,stop,250.0,400.0,3.0,,,,,,,,,white,triangle
0.0,3.0,3.0,0.0,6.0,6.0,306.4865289998124,6.0,0.0,part_2,go,250.0,350.0,1.0,,,,,,,,,gray,circle
0.0,8.0,4.0,1.0,5.0,0.0,0.0,6.0,0.0,part_2,stop,250.0,350.0,4.0,,,,,,,,,orange,cross
0.0,2.0,2.0,0.0,5.0,5.0,507.6338170001691,6.0,0.0,part_2,go,300.0,350.0,1.0,,,,,,,,,yellow,flipped triangle
0.0,8.0,4.0,1.0,6.0,6.0,490.1525660002335,6.0,0.0,part_2,stop,300.0,350.0,3.0,,,,,,,,,orange,cross
0.0,8.0,4.0,1.0,6.0,0.0,0.0,6.0,0.0,part_2,stop,300.0,300.0,4.0,,,,,,,,,orange,cross
0.0,4.0,4.0,0.0,6.0,6.0,426.29620299976517,6.0,0.0,part_2,go,300.0,350.0,1.0,,,,,,,,,magenta,square
0.0,8.0,4.0,1.0,6.0,0.0,0.0,6.0,0.0,part_2,stop,300.0,350.0,4.0,,,,,,,,,orange,cross
0.0,2.0,2.0,0.0,5.0,5.0,575.1838370001678,6.0,0.0,part_2,go,300.0,400.0,1.0,,,,,,,,,yellow,flipped triangle
0.0,2.0,2.0,0.0,6.0,6.0,593.68682000013,6.0,0.0,part_2,go,300.0,400.0,1.0,,,,,,,,,yellow,flipped triangle
0.0,7.0,3.0,1.0,5.0,5.0,667.1672950001266,6.0,0.0,part_2,go,300.0,400.0,1.0,,,,,,,,,green,diamond
0.0,8.0,4.0,1.0,6.0,0.0,0.0,6.0,0.0,part_2,stop,300.0,400.0,4.0,,,,,,,,,orange,cross
0.0,2.0,2.0,0.0,6.0,6.0,346.1679920001188,6.0,0.0,part_2,go,300.0,450.0,1.0,,,,,,,,,yellow,flipped triangle
0.0,1.0,1.0,0.0,5.0,5.0,469.28414399963,6.0,0.0,part_2,go,300.0,450.0,1.0,,,,,,,,,blue,hexagon
0.0,7.0,3.0,1.0,6.0,6.0,412.1596469999531,6.0,0.0,part_2,stop,300.0,450.0,3.0,,,,,,,,,green,diamond
0.0,6.0,2.0,1.0,5.0,5.0,334.3834780002908,6.0,0.0,part_2,stop,300.0,400.0,3.0,,,,,,,,,white,triangle
0.0,3.0,3.0,0.0,5.0,5.0,515.7057710002846,6.0,0.0,part_2,go,250.0,400.0,1.0,,,,,,,,,gray,circle
0.0,3.0,3.0,0.0,6.0,6.0,386.7205070000636,6.0,0.0,part_2,go,250.0,400.0,1.0,,,,,,,,,gray,circle
0.0,6.0,2.0,1.0,5.0,0.0,0.0,6.0,0.0,part_2,stop,250.0,400.0,4.0,,,,,,,,,white,triangle
0.0,6.0,2.0,1.0,5.0,5.0,404.8301790003279,6.0,0.0,part_2,stop,300.0,400.0,3.0,,,,,,,,,white,triangle
0.0,7.0,3.0,1.0,6.0,6.0,559.8782329998357,6.0,0.0,part_2,go,250.0,400.0,1.0,,,,,,,,,green,diamond
0.0,5.0,1.0,1.0,6.0,0.0,0.0,6.0,0.0,part_2,stop,250.0,400.0,4.0,,,,,,,,,cyan,I
0.0,1.0,1.0,0.0,6.0,6.0,656.381318000058,6.0,0.0,part_2,go,250.0,450.0,1.0,,,,,,,,,blue,hexagon
0.0,2.0,2.0,0.0,6.0,6.0,719.0105780000522,6.0,0.0,part_2,go,250.0,450.0,1.0,,,,,,,,,yellow,flipped triangle
0.0,6.0,2.0,1.0,5.0,5.0,536.6985760001626,6.0,0.0,part_2,go,250.0,450.0,1.0,,,,,,,,,white,triangle
0.0,6.0,2.0,1.0,6.0,6.0,330.4455150000649,6.0,0.0,part_2,stop,250.0,450.0,3.0,,,,,,,,,white,triangle
0.0,7.0,3.0,1.0,5.0,5.0,387.3884810000163,6.0,0.0,part_2,stop,250.0,400.0,3.0,,,,,,,,,green,diamond
0.0,4.0,4.0,0.0,5.0,5.0,427.461091999703,6.0,0.0,part_2,go,200.0,400.0,1.0,,,,,,,,,magenta,square
0.0,7.0,3.0,1.0,6.0,6.0,565.44889099996,6.0,0.0,part_2,stop,200.0,400.0,3.0,,,,,,,,,green,diamond
0.0,2.0,2.0,0.0,5.0,5.0,438.5250790001009,6.0,0.0,part_2,go,200.0,350.0,1.0,,,,,,,,,yellow,flipped triangle
0.0,3.0,3.0,0.0,6.0,6.0,522.78962399987,6.0,0.0,part_2,go,200.0,350.0,1.0,,,,,,,,,gray,circle
0.0,7.0,3.0,1.0,6.0,6.0,456.0648780002339,6.0,0.0,part_2,stop,200.0,350.0,3.0,,,,,,,,,green,diamond
0.0,6.0,2.0,1.0,5.0,5.0,310.2445569998053,6.0,0.0,part_2,stop,200.0,300.0,3.0,,,,,,,,,white,triangle
0.0,2.0,2.0,0.0,5.0,5.0,445.6107559999509,7.0,0.0,part_2,go,150.0,300.0,1.0,,,,,,,,,yellow,flipped triangle
0.0,6.0,2.0,1.0,5.0,5.0,309.4887629999903,7.0,0.0,part_2,stop,150.0,300.0,3.0,,,,,,,,,white,triangle
0.0,2.0,2.0,0.0,6.0,6.0,312.5925000003917,7.0,0.0,part_2,go,100.0,300.0,1.0,,,,,,,,,yellow,flipped triangle
0.0,3.0,3.0,0.0,5.0,5.0,525.9577340002579,7.0,0.0,part_2,go,100.0,300.0,1.0,,,,,,,,,gray,circle
0.0,7.0,3.0,1.0,5.0,5.0,395.6657799999448,7.0,0.0,part_2,go,100.0,300.0,1.0,,,,,,,,,green,diamond
0.0,4.0,4.0,0.0,6.0,6.0,539.1340090000085,7.0,0.0,part_2,go,100.0,300.0,1.0,,,,,,,,,magenta,square
0.0,2.0,2.0,0.0,5.0,5.0,526.9412009997723,7.0,0.0,part_2,go,100.0,300.0,1.0,,,,,,,,,yellow,flipped triangle
0.0,3.0,3.0,0.0,5.0,5.0,533.2993570000326,7.0,0.0,part_2,go,100.0,300.0,1.0,,,,,,,,,gray,circle
0.0,7.0,3.0,1.0,5.0,5.0,281.1490540002523,7.0,0.0,part_2,stop,100.0,300.0,3.0,,,,,,,,,green,diamond
0.0,1.0,1.0,0.0,6.0,6.0,554.5788670001457,7.0,0.0,part_2,go,50.0,300.0,1.0,,,,,,,,,blue,hexagon
0.0,2.0,2.0,0.0,5.0,5.0,495.0447249998433,7.0,0.0,part_2,go,50.0,300.0,1.0,,,,,,,,,yellow,flipped triangle
0.0,7.0,3.0,1.0,5.0,0.0,0.0,7.0,0.0,part_2,stop,50.0,300.0,4.0,,,,,,,,,green,diamond
0.0,6.0,2.0,1.0,5.0,0.0,0.0,7.0,0.0,part_2,stop,100.0,300.0,4.0,,,,,,,,,white,triangle
0.0,1.0,1.0,0.0,6.0,6.0,543.947788999958,7.0,0.0,part_2,go,150.0,300.0,1.0,,,,,,,,,blue,hexagon
0.0,4.0,4.0,0.0,6.0,6.0,588.8612640001156,7.0,0.0,part_2,go,150.0,300.0,1.0,,,,,,,,,magenta,square
0.0,5.0,1.0,1.0,6.0,0.0,0.0,7.0,0.0,part_2,stop,150.0,300.0,4.0,,,,,,,,,cyan,I
0.0,8.0,4.0,1.0,6.0,0.0,0.0,7.0,0.0,part_2,stop,150.0,350.0,4.0,,,,,,,,,orange,cross
0.0,4.0,4.0,0.0,5.0,5.0,341.4457599997149,7.0,0.0,part_2,go,150.0,400.0,1.0,,,,,,,,,magenta,square
0.0,2.0,2.0,0.0,5.0,5.0,390.8084739996411,7.0,0.0,part_2,go,150.0,400.0,1.0,,,,,,,,,yellow,flipped triangle
0.0,4.0,4.0,0.0,6.0,6.0,412.3671580000518,7.0,0.0,part_2,go,150.0,400.0,1.0,,,,,,,,,magenta,square
0.0,7.0,3.0,1.0,6.0,6.0,428.6107840002842,7.0,0.0,part_2,go,150.0,400.0,1.0,,,,,,,,,green,diamond
0.0,6.0,2.0,1.0,6.0,6.0,328.78970999991,7.0,0.0,part_2,stop,150.0,400.0,3.0,,,,,,,,,white,triangle
0.0,5.0,1.0,1.0,6.0,6.0,518.9640329999747,7.0,0.0,part_2,stop,150.0,350.0,3.0,,,,,,,,,cyan,I
0.0,2.0,2.0,0.0,6.0,6.0,421.5528450004058,7.0,0.0,part_2,go,150.0,300.0,1.0,,,,,,,,,yellow,flipped triangle
0.0,2.0,2.0,0.0,5.0,5.0,480.5014799999298,7.0,0.0,part_2,go,150.0,300.0,1.0,,,,,,,,,yellow,flipped triangle
0.0,8.0,4.0,1.0,5.0,5.0,505.8710120001706,7.0,0.0,part_2,go,150.0,300.0,1.0,,,,,,,,,orange,cross
0.0,7.0,3.0,1.0,6.0,0.0,0.0,7.0,0.0,part_2,stop,150.0,300.0,4.0,,,,,,,,,green,diamond
0.0,5.0,1.0,1.0,6.0,6.0,671.7412630000581,7.0,0.0,part_2,go,150.0,350.0,1.0,,,,,,,,,cyan,I
0.0,6.0,2.0,1.0,5.0,5.0,529.5824280001398,7.0,0.0,part_2,go,150.0,350.0,1.0,,,,,,,,,white,triangle
0.0,1.0,1.0,0.0,5.0,5.0,588.774512999862,7.0,0.0,part_2,go,150.0,350.0,1.0,,,,,,,,,blue,hexagon
0.0,5.0,1.0,1.0,5.0,0.0,0.0,7.0,0.0,part_2,stop,150.0,350.0,4.0,,,,,,,,,cyan,I
0.0,8.0,4.0,1.0,5.0,0.0,0.0,7.0,0.0,part_2,stop,200.0,350.0,4.0,,,,,,,,,orange,cross
0.0,2.0,2.0,0.0,6.0,6.0,436.0283949999939,7.0,0.0,part_2,go,250.0,350.0,1.0,,,,,,,,,yellow,flipped triangle
0.0,8.0,4.0,1.0,5.0,5.0,359.7896450000917,7.0,0.0,part_2,stop,250.0,350.0,3.0,,,,,,,,,orange,cross
0.0,1.0,1.0,0.0,5.0,5.0,664.6049139999377,7.0,0.0,part_2,go,200.0,350.0,1.0,,,,,,,,,blue,hexagon
0.0,5.0,1.0,1.0,6.0,6.0,320.3820000003361,7.0,0.0,part_2,stop,200.0,350.0,3.0,,,,,,,,,cyan,I
0.0,5.0,1.0,1.0,5.0,5.0,364.6299450001606,8.0,0.0,part_2,stop,200.0,300.0,3.0,,,,,,,,,cyan,I
0.0,4.0,4.0,0.0,6.0,6.0,533.801338000103,8.0,0.0,part_2,go,150.0,300.0,1.0,,,,,,,,,magenta,square
0.0,3.0,3.0,0.0,6.0,6.0,477.1510739997211,8.0,0.0,part_2,go,150.0,300.0,1.0,,,,,,,,,gray,circle
0.0,8.0,4.0,1.0,6.0,6.0,378.8105460002953,8.0,0.0,part_2,stop,150.0,300.0,3.0,,,,,,,,,orange,cross
0.0,1.0,1.0,0.0,5.0,5.0,448.5448280001947,8.0,0.0,part_2,go,150.0,250.0,1.0,,,,,,,,,blue,hexagon
0.0,4.0,4.0,0.0,5.0,5.0,680.908928000008,8.0,0.0,part_2,go,150.0,250.0,1.0,,,,,,,,,magenta,square
0.0,6.0,2.0,1.0,5.0,0.0,0.0,8.0,0.0,part_2,stop,150.0,250.0,4.0,,,,,,,,,white,triangle
0.0,1.0,1.0,0.0,5.0,5.0,445.3161859996726,8.0,0.0,part_2,go,200.0,250.0,1.0,,,,,,,,,blue,hexagon
0.0,7.0,3.0,1.0,5.0,5.0,390.5247049997342,8.0,0.0,part_2,stop,200.0,250.0,3.0,,,,,,,,,green,diamond
0.0,7.0,3.0,1.0,5.0,0.0,0.0,8.0,0.0,part_2,stop,150.0,250.0,4.0,,,,,,,,,green,diamond
0.0,4.0,4.0,0.0,5.0,5.0,524.7698790003597,8.0,0.0,part_2,go,200.0,250.0,1.0,,,,,,,,,magenta,square
0.0,7.0,3.0,1.0,5.0,5.0,342.8031170001304,8.0,0.0,part_2,stop,200.0,250.0,3.0,,,,,,,,,green,diamond
0.0,5.0,1.0,1.0,6.0,0.0,0.0,8.0,0.0,part_2,stop,150.0,250.0,4.0,,,,,,,,,cyan,I
0.0,4.0,4.0,0.0,5.0,5.0,353.4192460001577,8.0,0.0,part_2,go,150.0,300.0,1.0,,,,,,,,,magenta,square
0.0,7.0,3.0,1.0,5.0,0.0,0.0,8.0,0.0,part_2,stop,150.0,300.0,4.0,,,,,,,,,green,diamond
0.0,2.0,2.0,0.0,6.0,6.0,547.3612619998676,8.0,0.0,part_2,go,200.0,300.0,1.0,,,,,,,,,yellow,flipped triangle
0.0,7.0,3.0,1.0,5.0,5.0,345.3577129998848,8.0,0.0,part_2,stop,200.0,300.0,3.0,,,,,,,,,green,diamond
0.0,2.0,2.0,0.0,5.0,5.0,438.0702560001737,8.0,0.0,part_2,go,150.0,300.0,1.0,,,,,,,,,yellow,flipped triangle
0.0,2.0,2.0,0.0,5.0,5.0,370.1204490002965,8.0,0.0,part_2,go,150.0,300.0,1.0,,,,,,,,,yellow,flipped triangle
0.0,1.0,1.0,0.0,6.0,6.0,638.8726739996855,8.0,0.0,part_2,go,150.0,300.0,1.0,,,,,,,,,blue,hexagon
0.0,8.0,4.0,1.0,6.0,6.0,550.2481200001057,8.0,0.0,part_2,go,150.0,300.0,1.0,,,,,,,,,orange,cross
0.0,8.0,4.0,1.0,5.0,0.0,0.0,8.0,0.0,part_2,stop,150.0,300.0,4.0,,,,,,,,,orange,cross
0.0,3.0,3.0,0.0,5.0,5.0,580.8523499999865,8.0,0.0,part_2,go,200.0,300.0,1.0,,,,,,,,,gray,circle
0.0,2.0,2.0,0.0,6.0,6.0,389.6707110002353,8.0,0.0,part_2,go,200.0,300.0,1.0,,,,,,,,,yellow,flipped triangle
0.0,7.0,3.0,1.0,6.0,6.0,607.3741800000789,8.0,0.0,part_2,go,200.0,300.0,1.0,,,,,,,,,green,diamond
0.0,5.0,1.0,1.0,5.0,0.0,0.0,8.0,0.0,part_2,stop,200.0,300.0,4.0,,,,,,,,,cyan,I
0.0,3.0,3.0,0.0,6.0,6.0,389.2998710002757,8.0,0.0,part_2,go,250.0,300.0,1.0,,,,,,,,,gray,circle
0.0,1.0,1.0,0.0,6.0,6.0,341.7842629996812,8.0,0.0,part_2,go,250.0,300.0,1.0,,,,,,,,,blue,hexagon
0.0,8.0,4.0,1.0,5.0,5.0,308.5987449999265,8.0,0.0,part_2,stop,250.0,300.0,3.0,,,,,,,,,orange,cross
0.0,5.0,1.0,1.0,5.0,5.0,621.7169540000214,8.0,0.0,part_2,go,200.0,300.0,1.0,,,,,,,,,cyan,I
0.0,1.0,1.0,0.0,5.0,5.0,400.7659650001187,8.0,0.0,part_2,go,200.0,300.0,1.0,,,,,,,,,blue,hexagon
0.0,3.0,3.0,0.0,6.0,6.0,488.7379130000227,8.0,0.0,part_2,go,200.0,300.0,1.0,,,,,,,,,gray,circle
0.0,2.0,2.0,0.0,6.0,6.0,403.136619000179,8.0,0.0,part_2,go,200.0,300.0,1.0,,,,,,,,,yellow,flipped triangle
0.0,4.0,4.0,0.0,5.0,5.0,308.3242689999679,8.0,0.0,part_2,go,200.0,300.0,1.0,,,,,,,,,magenta,square
0.0,4.0,4.0,0.0,6.0,6.0,351.1181870003383,8.0,0.0,part_2,go,200.0,300.0,1.0,,,,,,,,,magenta,square
0.0,1.0,1.0,0.0,5.0,5.0,288.6831949999759,8.0,0.0,part_2,go,200.0,300.0,1.0,,,,,,,,,blue,hexagon
0.0,2.0,2.0,0.0,7.0,2.0,2456.1980480002603,1.0,1.0,part_3,go,0.0,0.0,0.0,294.0,6.0,196.0,294.0,49.0,147.0,98.0,245.0,yellow,flipped triangle
0.0,7.0,3.0,1.0,7.0,3.0,1532.6815069993245,1.0,1.0,part_3,go,0.0,0.0,0.0,136.0,4.0,68.0,34.0,136.0,204.0,170.0,102.0,green,diamond
0.0,8.0,4.0,1.0,7.0,4.0,1245.7771280005543,1.0,1.0,part_3,go,0.0,0.0,0.0,102.0,3.0,204.0,170.0,34.0,102.0,68.0,136.0,orange,cross
0.0,4.0,4.0,0.0,7.0,6.0,1903.019423999467,1.0,1.0,part_3,go,0.0,0.0,0.0,234.0,6.0,156.0,78.0,195.0,117.0,39.0,234.0,magenta,square
0.0,3.0,3.0,0.0,7.0,1.0,2159.538098999292,1.0,1.0,part_3,go,0.0,0.0,0.0,264.0,6.0,264.0,220.0,88.0,176.0,44.0,132.0,gray,circle
0.0,1.0,1.0,0.0,7.0,5.0,3432.8509710003345,1.0,1.0,part_3,go,0.0,0.0,0.0,270.0,5.0,162.0,216.0,108.0,324.0,270.0,54.0,blue,hexagon
0.0,6.0,2.0,1.0,7.0,6.0,2987.634226999944,1.0,1.0,part_3,go,0.0,0.0,0.0,270.0,5.0,324.0,162.0,54.0,108.0,216.0,270.0,white,triangle
0.0,6.0,2.0,1.0,7.0,4.0,2177.3943709995365,1.0,1.0,part_3,go,0.0,0.0,0.0,220.0,5.0,44.0,176.0,88.0,220.0,264.0,132.0,white,triangle
0.0,4.0,4.0,0.0,7.0,2.0,3014.534316999743,1.0,1.0,part_3,go,0.0,0.0,0.0,270.0,5.0,324.0,270.0,216.0,54.0,108.0,162.0,magenta,square
0.0,1.0,1.0,0.0,7.0,4.0,2056.6703519998555,1.0,1.0,part_3,go,0.0,0.0,0.0,170.0,5.0,102.0,204.0,136.0,170.0,68.0,34.0,blue,hexagon
0.0,7.0,3.0,1.0,7.0,2.0,2255.9289340006217,1.0,1.0,part_3,go,0.0,0.0,0.0,245.0,5.0,147.0,245.0,294.0,49.0,98.0,196.0,green,diamond
0.0,7.0,3.0,1.0,7.0,6.0,3183.498593999502,1.0,1.0,part_3,go,0.0,0.0,0.0,220.0,5.0,264.0,88.0,44.0,132.0,176.0,220.0,green,diamond
0.0,3.0,3.0,0.0,7.0,4.0,2665.8294270000624,1.0,1.0,part_3,go,0.0,0.0,0.0,170.0,5.0,34.0,102.0,204.0,170.0,68.0,136.0,gray,circle
0.0,8.0,4.0,1.0,7.0,4.0,2509.1150469997956,1.0,1.0,part_3,go,0.0,0.0,0.0,270.0,5.0,162.0,324.0,54.0,270.0,108.0,216.0,orange,cross
0.0,4.0,4.0,0.0,7.0,1.0,2353.687931999957,1.0,1.0,part_3,go,0.0,0.0,0.0,195.0,5.0,195.0,156.0,78.0,39.0,234.0,117.0,magenta,square
0.0,2.0,2.0,0.0,7.0,6.0,3334.6068580003703,1.0,1.0,part_3,go,0.0,0.0,0.0,216.0,4.0,108.0,162.0,270.0,324.0,54.0,216.0,yellow,flipped triangle
0.0,6.0,2.0,1.0,7.0,1.0,2350.364007999815,1.0,1.0,part_3,go,0.0,0.0,0.0,195.0,5.0,195.0,156.0,78.0,39.0,117.0,234.0,white,triangle
0.0,3.0,3.0,0.0,7.0,2.0,3063.61499600007,1.0,1.0,part_3,go,0.0,0.0,0.0,245.0,5.0,49.0,245.0,147.0,294.0,196.0,98.0,gray,circle
0.0,8.0,4.0,1.0,7.0,1.0,2211.7288839999674,1.0,1.0,part_3,go,0.0,0.0,0.0,195.0,5.0,195.0,117.0,39.0,234.0,78.0,156.0,orange,cross
0.0,2.0,2.0,0.0,7.0,1.0,2100.1993600002606,1.0,1.0,part_3,go,0.0,0.0,0.0,170.0,5.0,170.0,204.0,34.0,136.0,68.0,102.0,yellow,flipped triangle
0.0,3.0,3.0,0.0,7.0,4.0,2567.56130300073,2.0,1.0,part_3,go,0.0,0.0,0.0,270.0,5.0,54.0,108.0,216.0,270.0,162.0,324.0,gray,circle
0.0,7.0,3.0,1.0,7.0,6.0,1686.9568309994063,2.0,1.0,part_3,go,0.0,0.0,0.0,220.0,5.0,44.0,132.0,88.0,176.0,264.0,220.0,green,diamond
0.0,3.0,3.0,0.0,7.0,2.0,2797.967995000363,2.0,1.0,part_3,go,0.0,0.0,0.0,170.0,5.0,204.0,170.0,34.0,102.0,136.0,68.0,gray,circle
0.0,4.0,4.0,0.0,7.0,1.0,2335.2305890002754,2.0,1.0,part_3,go,0.0,0.0,0.0,245.0,5.0,245.0,294.0,196.0,49.0,147.0,98.0,magenta,square
0.0,2.0,2.0,0.0,7.0,6.0,2284.540662000836,2.0,1.0,part_3,go,0.0,0.0,0.0,245.0,5.0,294.0,147.0,98.0,196.0,49.0,245.0,yellow,flipped triangle
0.0,2.0,2.0,0.0,7.0,4.0,2482.681509000031,2.0,1.0,part_3,go,0.0,0.0,0.0,220.0,5.0,88.0,132.0,264.0,220.0,176.0,44.0,yellow,flipped triangle
0.0,1.0,1.0,0.0,7.0,4.0,1954.3091530003949,2.0,1.0,part_3,go,0.0,0.0,0.0,195.0,5.0,117.0,78.0,156.0,195.0,234.0,39.0,blue,hexagon
0.0,5.0,1.0,1.0,7.0,1.0,4023.311924999689,2.0,1.0,part_3,go,0.0,0.0,0.0,270.0,5.0,270.0,54.0,162.0,216.0,324.0,108.0,cyan,I
0.0,5.0,1.0,1.0,7.0,5.0,2320.178051999392,2.0,1.0,part_3,go,0.0,0.0,0.0,54.0,1.0,162.0,108.0,324.0,270.0,54.0,216.0,cyan,I
0.0,6.0,2.0,1.0,7.0,2.0,2196.8491610005003,2.0,1.0,part_3,go,0.0,0.0,0.0,245.0,5.0,147.0,245.0,294.0,49.0,98.0,196.0,white,triangle
0.0,6.0,2.0,1.0,7.0,4.0,3023.869955999544,2.0,1.0,part_3,go,0.0,0.0,0.0,170.0,5.0,68.0,136.0,34.0,170.0,204.0,102.0,white,triangle
0.0,6.0,2.0,1.0,7.0,2.0,2309.4288759994015,2.0,1.0,part_3,go,0.0,0.0,0.0,270.0,5.0,324.0,270.0,108.0,216.0,162.0,54.0,white,triangle
0.0,8.0,4.0,1.0,7.0,6.0,2352.0103050004764,2.0,1.0,part_3,go,0.0,0.0,0.0,220.0,5.0,88.0,132.0,264.0,44.0,176.0,220.0,orange,cross
0.0,1.0,1.0,0.0,7.0,4.0,2949.0910950007674,2.0,1.0,part_3,go,0.0,0.0,0.0,220.0,5.0,132.0,176.0,44.0,220.0,88.0,264.0,blue,hexagon
0.0,7.0,3.0,1.0,7.0,4.0,2898.9182309996977,2.0,1.0,part_3,go,0.0,0.0,0.0,170.0,5.0,204.0,136.0,102.0,170.0,68.0,34.0,green,diamond
0.0,7.0,3.0,1.0,7.0,2.0,2145.616340999368,2.0,1.0,part_3,go,0.0,0.0,0.0,245.0,5.0,196.0,245.0,49.0,98.0,147.0,294.0,green,diamond
0.0,5.0,1.0,1.0,7.0,5.0,3798.5569980000946,2.0,1.0,part_3,go,0.0,0.0,0.0,195.0,5.0,117.0,78.0,156.0,234.0,195.0,39.0,cyan,I
0.0,4.0,4.0,0.0,7.0,3.0,2436.6024709997873,2.0,1.0,part_3,go,0.0,0.0,0.0,170.0,5.0,102.0,136.0,170.0,34.0,68.0,204.0,magenta,square
0.0,1.0,1.0,0.0,7.0,3.0,2461.3526370003456,2.0,1.0,part_3,go,0.0,0.0,0.0,270.0,5.0,108.0,54.0,270.0,324.0,162.0,216.0,blue,hexagon
0.0,5.0,1.0,1.0,7.0,4.0,2580.391944999974,2.0,1.0,part_3,go,0.0,0.0,0.0,170.0,5.0,68.0,204.0,102.0,170.0,34.0,136.0,cyan,I
0.0,2.0,2.0,0.0,7.0,1.0,2067.596751000565,3.0,1.0,part_3,go,0.0,0.0,0.0,170.0,5.0,170.0,204.0,136.0,102.0,34.0,68.0,yellow,flipped triangle
0.0,6.0,2.0,1.0,7.0,2.0,1848.2647519995223,3.0,1.0,part_3,go,0.0,0.0,0.0,245.0,5.0,294.0,245.0,196.0,49.0,147.0,98.0,white,triangle
0.0,3.0,3.0,0.0,7.0,2.0,2446.442976000071,3.0,1.0,part_3,go,0.0,0.0,0.0,270.0,5.0,216.0,270.0,108.0,54.0,162.0,324.0,gray,circle
0.0,1.0,1.0,0.0,7.0,3.0,2516.575343000113,3.0,1.0,part_3,go,0.0,0.0,0.0,170.0,5.0,34.0,102.0,170.0,68.0,204.0,136.0,blue,hexagon
0.0,5.0,1.0,1.0,7.0,3.0,3441.8771049995485,3.0,1.0,part_3,go,0.0,0.0,0.0,176.0,4.0,44.0,88.0,176.0,132.0,220.0,264.0,cyan,I
0.0,2.0,2.0,0.0,7.0,2.0,3484.250118000091,3.0,1.0,part_3,go,0.0,0.0,0.0,195.0,5.0,117.0,195.0,39.0,234.0,78.0,156.0,yellow,flipped triangle
0.0,1.0,1.0,0.0,7.0,1.0,2201.9527200000084,3.0,1.0,part_3,go,0.0,0.0,0.0,220.0,5.0,220.0,44.0,264.0,176.0,132.0,88.0,blue,hexagon
0.0,4.0,4.0,0.0,7.0,6.0,3040.699014999518,3.0,1.0,part_3,go,0.0,0.0,0.0,170.0,5.0,204.0,68.0,136.0,34.0,102.0,170.0,magenta,square
0.0,5.0,1.0,1.0,7.0,3.0,2298.321248999855,3.0,1.0,part_3,go,0.0,0.0,0.0,176.0,4.0,264.0,132.0,176.0,88.0,220.0,44.0,cyan,I
0.0,1.0,1.0,0.0,7.0,5.0,2354.0590630000224,3.0,1.0,part_3,go,0.0,0.0,0.0,196.0,4.0,294.0,49.0,98.0,245.0,196.0,147.0,blue,hexagon
0.0,3.0,3.0,0.0,7.0,5.0,1947.3679330003504,3.0,1.0,part_3,go,0.0,0.0,0.0,195.0,5.0,39.0,156.0,117.0,234.0,195.0,78.0,gray,circle
0.0,6.0,2.0,1.0,7.0,3.0,2771.5043339994736,3.0,1.0,part_3,go,0.0,0.0,0.0,170.0,5.0,102.0,204.0,170.0,68.0,136.0,34.0,white,triangle
0.0,4.0,4.0,0.0,7.0,2.0,1456.3838519998171,3.0,1.0,part_3,go,0.0,0.0,0.0,245.0,5.0,147.0,245.0,294.0,49.0,196.0,98.0,magenta,square
0.0,7.0,3.0,1.0,7.0,4.0,2062.895731000026,3.0,1.0,part_3,go,0.0,0.0,0.0,195.0,5.0,78.0,234.0,117.0,195.0,39.0,156.0,green,diamond
0.0,3.0,3.0,0.0,7.0,6.0,1852.4198200002504,3.0,1.0,part_3,go,0.0,0.0,0.0,220.0,5.0,88.0,176.0,44.0,132.0,264.0,220.0,gray,circle
0.0,7.0,3.0,1.0,7.0,5.0,2246.788524999829,3.0,1.0,part_3,go,0.0,0.0,0.0,270.0,5.0,216.0,162.0,54.0,324.0,270.0,108.0,green,diamond
0.0,4.0,4.0,0.0,7.0,4.0,2059.408557000097,3.0,1.0,part_3,go,0.0,0.0,0.0,220.0,5.0,44.0,264.0,176.0,220.0,132.0,88.0,magenta,square
0.0,3.0,3.0,0.0,7.0,5.0,2460.3575199998886,3.0,1.0,part_3,go,0.0,0.0,0.0,245.0,5.0,294.0,49.0,98.0,147.0,245.0,196.0,gray,circle
0.0,3.0,3.0,0.0,7.0,6.0,2163.3649409995996,3.0,1.0,part_3,go,0.0,0.0,0.0,195.0,5.0,78.0,156.0,39.0,117.0,234.0,195.0,gray,circle
0.0,8.0,4.0,1.0,7.0,6.0,2404.754027999843,3.0,1.0,part_3,go,0.0,0.0,0.0,245.0,5.0,294.0,98.0,147.0,196.0,49.0,245.0,orange,cross
0.0,8.0,4.0,1.0,7.0,4.0,2001.004276000458,4.0,1.0,part_3,go,0.0,0.0,0.0,156.0,4.0,78.0,39.0,195.0,156.0,234.0,117.0,orange,cross
0.0,2.0,2.0,0.0,7.0,4.0,2068.368690999705,4.0,1.0,part_3,go,0.0,0.0,0.0,195.0,5.0,78.0,39.0,234.0,195.0,117.0,156.0,yellow,flipped triangle
0.0,6.0,2.0,1.0,7.0,5.0,2842.2961139995095,4.0,1.0,part_3,go,0.0,0.0,0.0,195.0,5.0,234.0,156.0,39.0,78.0,195.0,117.0,white,triangle
0.0,6.0,2.0,1.0,7.0,1.0,2032.5334939998356,4.0,1.0,part_3,go,0.0,0.0,0.0,220.0,5.0,220.0,44.0,88.0,176.0,264.0,132.0,white,triangle
0.0,5.0,1.0,1.0,7.0,1.0,2530.9718700000303,4.0,1.0,part_3,go,0.0,0.0,0.0,245.0,5.0,245.0,98.0,147.0,196.0,294.0,49.0,cyan,I
0.0,5.0,1.0,1.0,7.0,2.0,2354.225285000211,4.0,1.0,part_3,go,0.0,0.0,0.0,195.0,5.0,234.0,195.0,78.0,156.0,117.0,39.0,cyan,I
0.0,8.0,4.0,1.0,7.0,1.0,3333.4453320003377,4.0,1.0,part_3,go,0.0,0.0,0.0,170.0,5.0,170.0,68.0,102.0,136.0,34.0,204.0,orange,cross
0.0,4.0,4.0,0.0,7.0,4.0,3246.4260540000396,4.0,1.0,part_3,go,0.0,0.0,0.0,270.0,5.0,324.0,216.0,54.0,270.0,162.0,108.0,magenta,square
0.0,1.0,1.0,0.0,7.0,3.0,2596.465915000408,4.0,1.0,part_3,go,0.0,0.0,0.0,195.0,5.0,78.0,117.0,195.0,234.0,156.0,39.0,blue,hexagon
0.0,8.0,4.0,1.0,7.0,4.0,2683.565131999785,4.0,1.0,part_3,go,0.0,0.0,0.0,220.0,5.0,44.0,176.0,88.0,220.0,264.0,132.0,orange,cross
0.0,7.0,3.0,1.0,7.0,3.0,2799.2238890001317,4.0,1.0,part_3,go,0.0,0.0,0.0,195.0,5.0,156.0,117.0,195.0,78.0,39.0,234.0,green,diamond
0.0,2.0,2.0,0.0,7.0,5.0,2963.4407399998963,4.0,1.0,part_3,go,0.0,0.0,0.0,220.0,5.0,88.0,176.0,132.0,44.0,220.0,264.0,yellow,flipped triangle
0.0,5.0,1.0,1.0,7.0,4.0,2455.973426000128,4.0,1.0,part_3,go,0.0,0.0,0.0,245.0,5.0,98.0,49.0,147.0,245.0,294.0,196.0,cyan,I
0.0,4.0,4.0,0.0,7.0,6.0,1604.5203670000774,4.0,1.0,part_3,go,0.0,0.0,0.0,220.0,5.0,44.0,176.0,132.0,264.0,88.0,220.0,magenta,square
0.0,7.0,3.0,1.0,7.0,5.0,3304.191922999962,4.0,1.0,part_3,go,0.0,0.0,0.0,324.0,6.0,162.0,216.0,270.0,108.0,324.0,54.0,green,diamond
0.0,1.0,1.0,0.0,7.0,6.0,2276.099712999894,4.0,1.0,part_3,go,0.0,0.0,0.0,245.0,5.0,294.0,49.0,98.0,196.0,147.0,245.0,blue,hexagon
0.0,8.0,4.0,1.0,7.0,4.0,2790.4860750004445,4.0,1.0,part_3,go,0.0,0.0,0.0,245.0,5.0,147.0,98.0,49.0,245.0,294.0,196.0,orange,cross
0.0,2.0,2.0,0.0,7.0,5.0,3037.472566999895,4.0,1.0,part_3,go,0.0,0.0,0.0,270.0,5.0,324.0,216.0,54.0,162.0,270.0,108.0,yellow,flipped triangle
0.0,8.0,4.0,1.0,7.0,2.0,2809.657299999344,4.0,1.0,part_3,go,0.0,0.0,0.0,270.0,5.0,108.0,270.0,162.0,324.0,54.0,216.0,orange,cross
0.0,5.0,1.0,1.0,7.0,5.0,2649.6699750005064,4.0,1.0,part_3,go,0.0,0.0,0.0,136.0,4.0,34.0,102.0,170.0,68.0,136.0,204.0,cyan,I
