raw_reward_magnitude,stim_reward,stepwise_reward_magnitude,paired_with_stopping,stim_location,response,reaction_time,block,num_trial_presentations,which_phase,stop_signal_trial_type,left_SSD,right_SSD,accuracy,chosen_bidding_amount,chosen_bidding_level,possible_bid_1,possible_bid_2,possible_bid_3,possible_bid_4,possible_bid_5,possible_bid_6,color_text,shape_text
390.0,4.0,4.0,0.0,2.0,2.0,395.6684429999768,1.0,1.0,phase_1,,,,,,,,,,,,,green,cross
77.0,6.0,2.0,1.0,3.0,3.0,362.9357940001227,1.0,1.0,phase_1,,,,,,,,,,,,,magenta,diamond
0.0,5.0,0.0,1.0,1.0,1.0,365.4666130000805,1.0,1.0,phase_1,,,,,,,,,,,,,blue,triangle
44.0,5.0,1.0,1.0,3.0,3.0,386.3943739997921,1.0,1.0,phase_1,,,,,,,,,,,,,blue,triangle
121.0,2.0,2.0,0.0,4.0,4.0,344.7503899999447,1.0,1.0,phase_1,,,,,,,,,,,,,orange,square
73.0,5.0,1.0,1.0,4.0,4.0,396.5354280001065,1.0,1.0,phase_1,,,,,,,,,,,,,blue,triangle
121.0,6.0,2.0,1.0,4.0,4.0,351.3777959999515,1.0,1.0,phase_1,,,,,,,,,,,,,magenta,diamond
0.0,1.0,0.0,0.0,1.0,1.0,339.5063800001026,1.0,1.0,phase_1,,,,,,,,,,,,,yellow,flipped triangle
401.0,8.0,4.0,1.0,1.0,1.0,305.2453010000135,1.0,1.0,phase_1,,,,,,,,,,,,,white,hexagon
30.0,5.0,1.0,1.0,2.0,2.0,308.3124330000828,1.0,1.0,phase_1,,,,,,,,,,,,,blue,triangle
208.0,3.0,3.0,0.0,3.0,3.0,336.7728869998245,1.0,1.0,phase_1,,,,,,,,,,,,,gray,I
45.0,5.0,1.0,1.0,2.0,2.0,316.1490530001174,1.0,1.0,phase_1,,,,,,,,,,,,,blue,triangle
68.0,5.0,1.0,1.0,1.0,1.0,298.9852869998231,1.0,1.0,phase_1,,,,,,,,,,,,,blue,triangle
98.0,6.0,2.0,1.0,2.0,2.0,302.6203599999917,1.0,1.0,phase_1,,,,,,,,,,,,,magenta,diamond
0.0,8.0,0.0,1.0,4.0,4.0,317.745584000022,1.0,1.0,phase_1,,,,,,,,,,,,,white,hexagon
210.0,7.0,3.0,1.0,4.0,4.0,319.3395109999528,1.0,1.0,phase_1,,,,,,,,,,,,,cyan,circle
91.0,2.0,2.0,0.0,1.0,1.0,298.0033880000974,1.0,1.0,phase_1,,,,,,,,,,,,,orange,square
51.0,1.0,1.0,0.0,1.0,1.0,306.8093690001205,1.0,1.0,phase_1,,,,,,,,,,,,,yellow,flipped triangle
389.0,8.0,4.0,1.0,2.0,2.0,309.935692999943,1.0,1.0,phase_1,,,,,,,,,,,,,white,hexagon
27.0,5.0,1.0,1.0,2.0,2.0,369.8329020000983,1.0,1.0,phase_1,,,,,,,,,,,,,blue,triangle
203.0,3.0,3.0,0.0,3.0,3.0,380.6189370000084,1.0,1.0,phase_1,,,,,,,,,,,,,gray,I
26.0,5.0,1.0,1.0,3.0,3.0,339.5748400000684,1.0,1.0,phase_1,,,,,,,,,,,,,blue,triangle
29.0,5.0,1.0,1.0,4.0,4.0,319.3872680001277,1.0,1.0,phase_1,,,,,,,,,,,,,blue,triangle
73.0,5.0,1.0,1.0,2.0,2.0,329.2218690000936,1.0,1.0,phase_1,,,,,,,,,,,,,blue,triangle
0.0,5.0,0.0,1.0,3.0,3.0,349.0982069999973,1.0,1.0,phase_1,,,,,,,,,,,,,blue,triangle
0.0,7.0,0.0,1.0,1.0,1.0,295.7054609998977,1.0,1.0,phase_1,,,,,,,,,,,,,cyan,circle
188.0,7.0,3.0,1.0,4.0,4.0,305.5728550000367,1.0,1.0,phase_1,,,,,,,,,,,,,cyan,circle
409.0,8.0,4.0,1.0,3.0,3.0,344.3292189999738,1.0,1.0,phase_1,,,,,,,,,,,,,white,hexagon
68.0,1.0,1.0,0.0,4.0,4.0,344.2855020000479,1.0,1.0,phase_1,,,,,,,,,,,,,yellow,flipped triangle
45.0,1.0,1.0,0.0,4.0,4.0,334.5779989999755,1.0,1.0,phase_1,,,,,,,,,,,,,yellow,flipped triangle
203.0,7.0,3.0,1.0,3.0,3.0,380.3826869998374,1.0,1.0,phase_1,,,,,,,,,,,,,cyan,circle
216.0,3.0,3.0,0.0,4.0,4.0,281.19128000003,1.0,1.0,phase_1,,,,,,,,,,,,,gray,I
85.0,6.0,2.0,1.0,4.0,4.0,315.3537289999804,1.0,1.0,phase_1,,,,,,,,,,,,,magenta,diamond
75.0,1.0,1.0,0.0,4.0,4.0,303.0045670000163,1.0,1.0,phase_1,,,,,,,,,,,,,yellow,flipped triangle
84.0,6.0,2.0,1.0,2.0,2.0,301.2927729998864,1.0,1.0,phase_1,,,,,,,,,,,,,magenta,diamond
30.0,1.0,1.0,0.0,1.0,1.0,316.9081400001232,1.0,1.0,phase_1,,,,,,,,,,,,,yellow,flipped triangle
387.0,4.0,4.0,0.0,2.0,2.0,286.5315369999734,1.0,1.0,phase_1,,,,,,,,,,,,,green,cross
413.0,4.0,4.0,0.0,2.0,2.0,297.0509180001954,1.0,1.0,phase_1,,,,,,,,,,,,,green,cross
0.0,4.0,0.0,0.0,2.0,2.0,298.4774419999212,1.0,1.0,phase_1,,,,,,,,,,,,,green,cross
399.0,4.0,4.0,0.0,1.0,1.0,266.2668729999495,1.0,1.0,phase_1,,,,,,,,,,,,,green,cross
401.0,4.0,4.0,0.0,3.0,3.0,283.1982750001316,1.0,1.0,phase_1,,,,,,,,,,,,,green,cross
98.0,2.0,2.0,0.0,1.0,1.0,269.1782140000214,1.0,1.0,phase_1,,,,,,,,,,,,,orange,square
209.0,7.0,3.0,1.0,1.0,1.0,283.8957080000455,1.0,1.0,phase_1,,,,,,,,,,,,,cyan,circle
201.0,7.0,3.0,1.0,2.0,2.0,310.5254619999869,1.0,1.0,phase_1,,,,,,,,,,,,,cyan,circle
203.0,7.0,3.0,1.0,2.0,2.0,331.2263910002002,1.0,1.0,phase_1,,,,,,,,,,,,,cyan,circle
382.0,8.0,4.0,1.0,3.0,3.0,329.7763129999111,1.0,1.0,phase_1,,,,,,,,,,,,,white,hexagon
26.0,1.0,1.0,0.0,3.0,3.0,316.97169999984,1.0,1.0,phase_1,,,,,,,,,,,,,yellow,flipped triangle
108.0,2.0,2.0,0.0,2.0,2.0,337.8660060000129,1.0,1.0,phase_1,,,,,,,,,,,,,orange,square
119.0,2.0,2.0,0.0,4.0,4.0,330.2297510001608,1.0,1.0,phase_1,,,,,,,,,,,,,orange,square
201.0,3.0,3.0,0.0,2.0,2.0,310.9449289997883,1.0,1.0,phase_1,,,,,,,,,,,,,gray,I
119.0,6.0,2.0,1.0,4.0,4.0,299.259801000062,1.0,1.0,phase_1,,,,,,,,,,,,,magenta,diamond
220.0,7.0,3.0,1.0,2.0,2.0,286.2213139999312,1.0,1.0,phase_1,,,,,,,,,,,,,cyan,circle
0.0,5.0,0.0,1.0,3.0,3.0,291.6969469999912,1.0,1.0,phase_1,,,,,,,,,,,,,blue,triangle
0.0,4.0,0.0,0.0,1.0,1.0,265.0826550000147,1.0,1.0,phase_1,,,,,,,,,,,,,green,cross
382.0,8.0,4.0,1.0,3.0,3.0,316.5098879999277,1.0,1.0,phase_1,,,,,,,,,,,,,white,hexagon
0.0,4.0,0.0,0.0,1.0,1.0,331.0896620000676,1.0,1.0,phase_1,,,,,,,,,,,,,green,cross
378.0,4.0,4.0,0.0,2.0,2.0,299.2460969999229,1.0,1.0,phase_1,,,,,,,,,,,,,green,cross
384.0,4.0,4.0,0.0,4.0,4.0,315.3099229998588,1.0,1.0,phase_1,,,,,,,,,,,,,green,cross
118.0,2.0,2.0,0.0,1.0,1.0,335.2528389998497,1.0,1.0,phase_1,,,,,,,,,,,,,orange,square
58.0,1.0,1.0,0.0,3.0,3.0,294.3952289999743,1.0,1.0,phase_1,,,,,,,,,,,,,yellow,flipped triangle
391.0,4.0,4.0,0.0,1.0,1.0,336.182995999934,1.0,1.0,phase_1,,,,,,,,,,,,,green,cross
0.0,5.0,0.0,1.0,3.0,3.0,266.0642859998461,1.0,1.0,phase_1,,,,,,,,,,,,,blue,triangle
81.0,2.0,2.0,0.0,1.0,1.0,276.2024929998006,1.0,1.0,phase_1,,,,,,,,,,,,,orange,square
423.0,8.0,4.0,1.0,4.0,4.0,312.7164170000469,1.0,1.0,phase_1,,,,,,,,,,,,,white,hexagon
382.0,4.0,4.0,0.0,4.0,4.0,312.9775909999353,1.0,1.0,phase_1,,,,,,,,,,,,,green,cross
100.0,2.0,2.0,0.0,3.0,3.0,305.8366449999994,1.0,1.0,phase_1,,,,,,,,,,,,,orange,square
113.0,2.0,2.0,0.0,2.0,2.0,316.8053989998043,1.0,1.0,phase_1,,,,,,,,,,,,,orange,square
212.0,3.0,3.0,0.0,4.0,4.0,502.3555810000744,1.0,1.0,phase_1,,,,,,,,,,,,,gray,I
390.0,8.0,4.0,1.0,3.0,3.0,284.2313910000484,1.0,1.0,phase_1,,,,,,,,,,,,,white,hexagon
0.0,1.0,0.0,0.0,1.0,1.0,267.1040850000281,1.0,1.0,phase_1,,,,,,,,,,,,,yellow,flipped triangle
399.0,8.0,4.0,1.0,3.0,3.0,278.8029759999517,1.0,1.0,phase_1,,,,,,,,,,,,,white,hexagon
107.0,2.0,2.0,0.0,1.0,1.0,293.3108520001042,1.0,1.0,phase_1,,,,,,,,,,,,,orange,square
389.0,8.0,4.0,1.0,4.0,4.0,289.8543399999198,1.0,1.0,phase_1,,,,,,,,,,,,,white,hexagon
397.0,4.0,4.0,0.0,2.0,2.0,331.7169369997828,1.0,1.0,phase_1,,,,,,,,,,,,,green,cross
73.0,5.0,1.0,1.0,3.0,3.0,310.2761799998461,1.0,1.0,phase_1,,,,,,,,,,,,,blue,triangle
25.0,1.0,1.0,0.0,4.0,4.0,311.1056560001088,1.0,1.0,phase_1,,,,,,,,,,,,,yellow,flipped triangle
413.0,8.0,4.0,1.0,1.0,1.0,272.5539320001644,1.0,1.0,phase_1,,,,,,,,,,,,,white,hexagon
220.0,7.0,3.0,1.0,4.0,4.0,286.9011490001867,1.0,1.0,phase_1,,,,,,,,,,,,,cyan,circle
68.0,1.0,1.0,0.0,2.0,2.0,324.061317999849,1.0,1.0,phase_1,,,,,,,,,,,,,yellow,flipped triangle
424.0,4.0,4.0,0.0,3.0,3.0,279.5137430000523,1.0,1.0,phase_1,,,,,,,,,,,,,green,cross
190.0,7.0,3.0,1.0,3.0,3.0,290.3951969999525,1.0,1.0,phase_1,,,,,,,,,,,,,cyan,circle
123.0,2.0,2.0,0.0,4.0,4.0,341.1733960001584,1.0,1.0,phase_1,,,,,,,,,,,,,orange,square
0.0,6.0,0.0,1.0,2.0,2.0,272.7125480000723,1.0,1.0,phase_1,,,,,,,,,,,,,magenta,diamond
85.0,6.0,2.0,1.0,1.0,1.0,255.96436000000722,1.0,1.0,phase_1,,,,,,,,,,,,,magenta,diamond
218.0,7.0,3.0,1.0,1.0,1.0,275.2498120000837,1.0,1.0,phase_1,,,,,,,,,,,,,cyan,circle
195.0,7.0,3.0,1.0,3.0,3.0,304.8593569999411,1.0,1.0,phase_1,,,,,,,,,,,,,cyan,circle
34.0,5.0,1.0,1.0,4.0,4.0,284.3240649999643,1.0,1.0,phase_1,,,,,,,,,,,,,blue,triangle
0.0,8.0,0.0,1.0,1.0,1.0,261.083077999956,1.0,1.0,phase_1,,,,,,,,,,,,,white,hexagon
179.0,3.0,3.0,0.0,4.0,4.0,307.8789029998461,1.0,1.0,phase_1,,,,,,,,,,,,,gray,I
70.0,5.0,1.0,1.0,2.0,2.0,323.0760330000066,1.0,1.0,phase_1,,,,,,,,,,,,,blue,triangle
79.0,6.0,2.0,1.0,4.0,4.0,327.6719989999037,1.0,1.0,phase_1,,,,,,,,,,,,,magenta,diamond
51.0,5.0,1.0,1.0,3.0,3.0,299.3801669999811,1.0,1.0,phase_1,,,,,,,,,,,,,blue,triangle
103.0,2.0,2.0,0.0,3.0,3.0,344.1946269999789,1.0,1.0,phase_1,,,,,,,,,,,,,orange,square
0.0,3.0,0.0,0.0,4.0,4.0,354.1698019998875,1.0,1.0,phase_1,,,,,,,,,,,,,gray,I
107.0,6.0,2.0,1.0,3.0,3.0,327.1753500000613,1.0,1.0,phase_1,,,,,,,,,,,,,magenta,diamond
214.0,3.0,3.0,0.0,2.0,2.0,311.5500119999979,1.0,1.0,phase_1,,,,,,,,,,,,,gray,I
70.0,1.0,1.0,0.0,1.0,1.0,290.7670209999651,1.0,1.0,phase_1,,,,,,,,,,,,,yellow,flipped triangle
91.0,6.0,2.0,1.0,4.0,4.0,283.455677999882,1.0,1.0,phase_1,,,,,,,,,,,,,magenta,diamond
425.0,4.0,4.0,0.0,3.0,3.0,301.3182740000957,1.0,1.0,phase_1,,,,,,,,,,,,,green,cross
43.0,5.0,1.0,1.0,1.0,1.0,300.5029440000726,1.0,1.0,phase_1,,,,,,,,,,,,,blue,triangle
397.0,8.0,4.0,1.0,2.0,2.0,305.0773280001522,2.0,1.0,phase_1,,,,,,,,,,,,,white,hexagon
212.0,7.0,3.0,1.0,1.0,1.0,345.996267999908,2.0,1.0,phase_1,,,,,,,,,,,,,cyan,circle
0.0,7.0,0.0,1.0,2.0,2.0,319.6138929999961,2.0,1.0,phase_1,,,,,,,,,,,,,cyan,circle
73.0,1.0,1.0,0.0,3.0,3.0,329.3198189999202,2.0,1.0,phase_1,,,,,,,,,,,,,yellow,flipped triangle
192.0,3.0,3.0,0.0,1.0,1.0,323.2255989998975,2.0,1.0,phase_1,,,,,,,,,,,,,gray,I
0.0,4.0,0.0,0.0,3.0,3.0,350.806238999894,2.0,1.0,phase_1,,,,,,,,,,,,,green,cross
182.0,7.0,3.0,1.0,4.0,4.0,317.5546660002055,2.0,1.0,phase_1,,,,,,,,,,,,,cyan,circle
0.0,5.0,0.0,1.0,2.0,2.0,314.296941999828,2.0,1.0,phase_1,,,,,,,,,,,,,blue,triangle
43.0,5.0,1.0,1.0,4.0,4.0,329.5404689999941,2.0,1.0,phase_1,,,,,,,,,,,,,blue,triangle
93.0,6.0,2.0,1.0,1.0,1.0,292.6459450000038,2.0,1.0,phase_1,,,,,,,,,,,,,magenta,diamond
0.0,2.0,0.0,0.0,1.0,1.0,297.3764490000121,2.0,1.0,phase_1,,,,,,,,,,,,,orange,square
0.0,7.0,0.0,1.0,1.0,1.0,288.010616000065,2.0,1.0,phase_1,,,,,,,,,,,,,cyan,circle
30.0,1.0,1.0,0.0,4.0,4.0,330.0261109998246,2.0,1.0,phase_1,,,,,,,,,,,,,yellow,flipped triangle
192.0,7.0,3.0,1.0,1.0,1.0,282.1836779999103,2.0,1.0,phase_1,,,,,,,,,,,,,cyan,circle
214.0,7.0,3.0,1.0,2.0,2.0,319.0163619999566,2.0,1.0,phase_1,,,,,,,,,,,,,cyan,circle
417.0,8.0,4.0,1.0,1.0,1.0,257.9440030001478,2.0,1.0,phase_1,,,,,,,,,,,,,white,hexagon
216.0,3.0,3.0,0.0,1.0,1.0,298.4444799999437,2.0,1.0,phase_1,,,,,,,,,,,,,gray,I
56.0,1.0,1.0,0.0,1.0,1.0,313.1510339999295,2.0,1.0,phase_1,,,,,,,,,,,,,yellow,flipped triangle
97.0,6.0,2.0,1.0,4.0,4.0,332.654421999905,2.0,1.0,phase_1,,,,,,,,,,,,,magenta,diamond
75.0,5.0,1.0,1.0,2.0,2.0,337.5884829999904,2.0,1.0,phase_1,,,,,,,,,,,,,blue,triangle
36.0,5.0,1.0,1.0,1.0,1.0,284.8459599999842,2.0,1.0,phase_1,,,,,,,,,,,,,blue,triangle
0.0,2.0,0.0,0.0,4.0,4.0,278.3140270000785,2.0,1.0,phase_1,,,,,,,,,,,,,orange,square
175.0,3.0,3.0,0.0,3.0,3.0,398.4782210000048,2.0,1.0,phase_1,,,,,,,,,,,,,gray,I
0.0,8.0,0.0,1.0,4.0,4.0,269.4029259998842,2.0,1.0,phase_1,,,,,,,,,,,,,white,hexagon
116.0,6.0,2.0,1.0,1.0,1.0,252.7735219998703,2.0,1.0,phase_1,,,,,,,,,,,,,magenta,diamond
25.0,5.0,1.0,1.0,3.0,3.0,298.8220869999622,2.0,1.0,phase_1,,,,,,,,,,,,,blue,triangle
413.0,4.0,4.0,0.0,4.0,4.0,335.5221270001038,2.0,1.0,phase_1,,,,,,,,,,,,,green,cross
91.0,6.0,2.0,1.0,4.0,4.0,298.9825510001083,2.0,1.0,phase_1,,,,,,,,,,,,,magenta,diamond
66.0,1.0,1.0,0.0,2.0,2.0,296.5326930000174,2.0,1.0,phase_1,,,,,,,,,,,,,yellow,flipped triangle
107.0,2.0,2.0,0.0,3.0,3.0,276.7504589999134,2.0,1.0,phase_1,,,,,,,,,,,,,orange,square
114.0,6.0,2.0,1.0,3.0,3.0,260.8504969998648,2.0,1.0,phase_1,,,,,,,,,,,,,magenta,diamond
175.0,7.0,3.0,1.0,4.0,4.0,306.9097029999739,2.0,1.0,phase_1,,,,,,,,,,,,,cyan,circle
106.0,6.0,2.0,1.0,4.0,4.0,267.704182999978,2.0,1.0,phase_1,,,,,,,,,,,,,magenta,diamond
382.0,4.0,4.0,0.0,4.0,4.0,286.9179949998397,2.0,1.0,phase_1,,,,,,,,,,,,,green,cross
409.0,4.0,4.0,0.0,3.0,3.0,355.5965570001262,2.0,1.0,phase_1,,,,,,,,,,,,,green,cross
414.0,4.0,4.0,0.0,2.0,2.0,336.2319430000298,2.0,1.0,phase_1,,,,,,,,,,,,,green,cross
194.0,7.0,3.0,1.0,1.0,1.0,303.8233480001509,2.0,1.0,phase_1,,,,,,,,,,,,,cyan,circle
389.0,4.0,4.0,0.0,1.0,1.0,325.532585000019,2.0,1.0,phase_1,,,,,,,,,,,,,green,cross
44.0,1.0,1.0,0.0,1.0,1.0,298.7126870000338,2.0,1.0,phase_1,,,,,,,,,,,,,yellow,flipped triangle
0.0,6.0,0.0,1.0,4.0,4.0,321.8440580001243,2.0,1.0,phase_1,,,,,,,,,,,,,magenta,diamond
389.0,4.0,4.0,0.0,3.0,3.0,378.7652519999938,2.0,1.0,phase_1,,,,,,,,,,,,,green,cross
67.0,5.0,1.0,1.0,4.0,4.0,299.9354949999997,2.0,1.0,phase_1,,,,,,,,,,,,,blue,triangle
208.0,7.0,3.0,1.0,3.0,3.0,351.8402339998374,2.0,1.0,phase_1,,,,,,,,,,,,,cyan,circle
93.0,2.0,2.0,0.0,1.0,1.0,429.4035509999503,2.0,1.0,phase_1,,,,,,,,,,,,,orange,square
0.0,3.0,0.0,0.0,3.0,3.0,287.5356569998075,2.0,1.0,phase_1,,,,,,,,,,,,,gray,I
409.0,4.0,4.0,0.0,3.0,3.0,380.9121430001596,2.0,1.0,phase_1,,,,,,,,,,,,,green,cross
415.0,8.0,4.0,1.0,4.0,4.0,377.4604149998595,2.0,1.0,phase_1,,,,,,,,,,,,,white,hexagon
413.0,8.0,4.0,1.0,1.0,1.0,314.3946099999084,2.0,1.0,phase_1,,,,,,,,,,,,,white,hexagon
220.0,3.0,3.0,0.0,4.0,4.0,317.1152460001849,2.0,1.0,phase_1,,,,,,,,,,,,,gray,I
403.0,4.0,4.0,0.0,4.0,4.0,335.881486000062,2.0,1.0,phase_1,,,,,,,,,,,,,green,cross
423.0,4.0,4.0,0.0,4.0,4.0,341.4885820000108,2.0,1.0,phase_1,,,,,,,,,,,,,green,cross
108.0,2.0,2.0,0.0,4.0,4.0,333.7092760000359,2.0,1.0,phase_1,,,,,,,,,,,,,orange,square
0.0,7.0,0.0,1.0,3.0,3.0,326.8399610001324,2.0,1.0,phase_1,,,,,,,,,,,,,cyan,circle
210.0,3.0,3.0,0.0,4.0,4.0,313.2362970000031,2.0,1.0,phase_1,,,,,,,,,,,,,gray,I
0.0,2.0,0.0,0.0,2.0,2.0,274.4284840000546,2.0,1.0,phase_1,,,,,,,,,,,,,orange,square
25.0,1.0,1.0,0.0,2.0,2.0,298.4353290000854,2.0,1.0,phase_1,,,,,,,,,,,,,yellow,flipped triangle
70.0,5.0,1.0,1.0,3.0,3.0,296.3726810000935,2.0,1.0,phase_1,,,,,,,,,,,,,blue,triangle
412.0,8.0,4.0,1.0,2.0,2.0,451.605852000057,2.0,1.0,phase_1,,,,,,,,,,,,,white,hexagon
0.0,1.0,0.0,0.0,4.0,4.0,279.02570600008397,2.0,1.0,phase_1,,,,,,,,,,,,,yellow,flipped triangle
208.0,7.0,3.0,1.0,1.0,1.0,345.0197610000032,2.0,2.0,phase_1,,,,,,,,,,,,,cyan,circle
376.0,4.0,4.0,0.0,4.0,4.0,328.0427750000854,2.0,1.0,phase_1,,,,,,,,,,,,,green,cross
59.0,1.0,1.0,0.0,3.0,3.0,303.4956550000061,2.0,1.0,phase_1,,,,,,,,,,,,,yellow,flipped triangle
216.0,7.0,3.0,1.0,1.0,1.0,283.3353480000369,2.0,1.0,phase_1,,,,,,,,,,,,,cyan,circle
106.0,2.0,2.0,0.0,3.0,3.0,333.8189609999062,2.0,1.0,phase_1,,,,,,,,,,,,,orange,square
0.0,8.0,0.0,1.0,4.0,4.0,360.517327000025,2.0,1.0,phase_1,,,,,,,,,,,,,white,hexagon
181.0,3.0,3.0,0.0,2.0,2.0,353.0293979999896,2.0,1.0,phase_1,,,,,,,,,,,,,gray,I
116.0,2.0,2.0,0.0,1.0,1.0,312.8885369999352,2.0,1.0,phase_1,,,,,,,,,,,,,orange,square
0.0,1.0,0.0,0.0,2.0,2.0,324.0601199997854,2.0,1.0,phase_1,,,,,,,,,,,,,yellow,flipped triangle
90.0,2.0,2.0,0.0,4.0,4.0,357.1243110000068,2.0,1.0,phase_1,,,,,,,,,,,,,orange,square
70.0,1.0,1.0,0.0,1.0,1.0,338.6501699999371,2.0,1.0,phase_1,,,,,,,,,,,,,yellow,flipped triangle
0.0,1.0,0.0,0.0,1.0,1.0,321.468558000106,2.0,1.0,phase_1,,,,,,,,,,,,,yellow,flipped triangle
81.0,2.0,2.0,0.0,2.0,2.0,320.3038589999778,2.0,1.0,phase_1,,,,,,,,,,,,,orange,square
98.0,2.0,2.0,0.0,1.0,1.0,276.651104000166,2.0,1.0,phase_1,,,,,,,,,,,,,orange,square
58.0,5.0,1.0,1.0,4.0,4.0,303.4576659999857,2.0,1.0,phase_1,,,,,,,,,,,,,blue,triangle
104.0,2.0,2.0,0.0,3.0,3.0,315.2739390000079,2.0,1.0,phase_1,,,,,,,,,,,,,orange,square
409.0,8.0,4.0,1.0,3.0,3.0,336.5413840001565,2.0,1.0,phase_1,,,,,,,,,,,,,white,hexagon
108.0,6.0,2.0,1.0,3.0,3.0,329.4672340000488,2.0,1.0,phase_1,,,,,,,,,,,,,magenta,diamond
61.0,1.0,1.0,0.0,4.0,4.0,346.1947430000691,2.0,1.0,phase_1,,,,,,,,,,,,,yellow,flipped triangle
45.0,5.0,1.0,1.0,2.0,2.0,302.0580329998665,2.0,1.0,phase_1,,,,,,,,,,,,,blue,triangle
0.0,6.0,0.0,1.0,1.0,1.0,322.1010879999539,2.0,1.0,phase_1,,,,,,,,,,,,,magenta,diamond
379.0,4.0,4.0,0.0,4.0,4.0,328.5489280001457,2.0,1.0,phase_1,,,,,,,,,,,,,green,cross
34.0,1.0,1.0,0.0,3.0,3.0,320.3249170001072,2.0,1.0,phase_1,,,,,,,,,,,,,yellow,flipped triangle
193.0,3.0,3.0,0.0,3.0,3.0,330.2286370001184,2.0,1.0,phase_1,,,,,,,,,,,,,gray,I
103.0,6.0,2.0,1.0,1.0,1.0,307.6871140001458,2.0,1.0,phase_1,,,,,,,,,,,,,magenta,diamond
393.0,8.0,4.0,1.0,2.0,2.0,327.6577940000607,2.0,1.0,phase_1,,,,,,,,,,,,,white,hexagon
0.0,8.0,0.0,1.0,3.0,3.0,290.0009740001223,2.0,1.0,phase_1,,,,,,,,,,,,,white,hexagon
73.0,1.0,1.0,0.0,2.0,2.0,327.6242800000091,2.0,1.0,phase_1,,,,,,,,,,,,,yellow,flipped triangle
389.0,4.0,4.0,0.0,2.0,2.0,278.2105860001138,2.0,1.0,phase_1,,,,,,,,,,,,,green,cross
43.0,1.0,1.0,0.0,2.0,2.0,332.8334880000057,2.0,1.0,phase_1,,,,,,,,,,,,,yellow,flipped triangle
384.0,8.0,4.0,1.0,3.0,3.0,329.4255299999804,2.0,1.0,phase_1,,,,,,,,,,,,,white,hexagon
376.0,8.0,4.0,1.0,1.0,1.0,344.5316219999768,2.0,1.0,phase_1,,,,,,,,,,,,,white,hexagon
0.0,5.0,0.0,1.0,1.0,1.0,349.2332509999869,2.0,1.0,phase_1,,,,,,,,,,,,,blue,triangle
0.0,3.0,0.0,0.0,1.0,1.0,368.3079899999484,2.0,1.0,phase_1,,,,,,,,,,,,,gray,I
32.0,1.0,1.0,0.0,1.0,1.0,292.2798029999285,2.0,1.0,phase_1,,,,,,,,,,,,,yellow,flipped triangle
415.0,4.0,4.0,0.0,2.0,2.0,336.2049259999367,2.0,1.0,phase_1,,,,,,,,,,,,,green,cross
175.0,3.0,3.0,0.0,1.0,1.0,373.1718250000995,2.0,1.0,phase_1,,,,,,,,,,,,,gray,I
118.0,6.0,2.0,1.0,1.0,1.0,324.6653779999633,2.0,1.0,phase_1,,,,,,,,,,,,,magenta,diamond
0.0,7.0,0.0,1.0,4.0,4.0,392.1219490000567,2.0,1.0,phase_1,,,,,,,,,,,,,cyan,circle
0.0,2.0,0.0,0.0,4.0,4.0,305.8257120001144,2.0,1.0,phase_1,,,,,,,,,,,,,orange,square
188.0,3.0,3.0,0.0,1.0,1.0,349.7905940000692,2.0,1.0,phase_1,,,,,,,,,,,,,gray,I
402.0,8.0,4.0,1.0,1.0,1.0,351.5577830000893,3.0,1.0,phase_1,,,,,,,,,,,,,white,hexagon
36.0,1.0,1.0,0.0,3.0,3.0,332.2924149999835,3.0,1.0,phase_1,,,,,,,,,,,,,yellow,flipped triangle
425.0,4.0,4.0,0.0,1.0,1.0,312.6154740000402,3.0,1.0,phase_1,,,,,,,,,,,,,green,cross
119.0,6.0,2.0,1.0,1.0,1.0,339.9214010000833,3.0,1.0,phase_1,,,,,,,,,,,,,magenta,diamond
0.0,4.0,0.0,0.0,3.0,3.0,326.9557250000616,3.0,1.0,phase_1,,,,,,,,,,,,,green,cross
175.0,7.0,3.0,1.0,2.0,2.0,323.5759389999657,3.0,1.0,phase_1,,,,,,,,,,,,,cyan,circle
103.0,2.0,2.0,0.0,3.0,3.0,315.5103159999726,3.0,1.0,phase_1,,,,,,,,,,,,,orange,square
0.0,3.0,0.0,0.0,4.0,4.0,323.3593329996438,3.0,2.0,phase_1,,,,,,,,,,,,,gray,I
214.0,7.0,3.0,1.0,3.0,3.0,316.9084480000492,3.0,1.0,phase_1,,,,,,,,,,,,,cyan,circle
378.0,8.0,4.0,1.0,4.0,4.0,326.9456489997537,3.0,1.0,phase_1,,,,,,,,,,,,,white,hexagon
98.0,6.0,2.0,1.0,1.0,1.0,430.6890899997597,3.0,1.0,phase_1,,,,,,,,,,,,,magenta,diamond
190.0,3.0,3.0,0.0,3.0,3.0,403.5572940001657,3.0,1.0,phase_1,,,,,,,,,,,,,gray,I
424.0,8.0,4.0,1.0,4.0,4.0,408.7245349996919,3.0,1.0,phase_1,,,,,,,,,,,,,white,hexagon
67.0,1.0,1.0,0.0,3.0,3.0,362.9045379998388,3.0,1.0,phase_1,,,,,,,,,,,,,yellow,flipped triangle
0.0,2.0,0.0,0.0,3.0,3.0,371.8029930000739,3.0,1.0,phase_1,,,,,,,,,,,,,orange,square
188.0,3.0,3.0,0.0,1.0,1.0,492.52468999975457,3.0,1.0,phase_1,,,,,,,,,,,,,gray,I
30.0,1.0,1.0,0.0,2.0,2.0,391.4659239999309,3.0,1.0,phase_1,,,,,,,,,,,,,yellow,flipped triangle
0.0,8.0,0.0,1.0,3.0,3.0,383.2729289997587,3.0,1.0,phase_1,,,,,,,,,,,,,white,hexagon
214.0,3.0,3.0,0.0,2.0,2.0,352.3124070002268,3.0,1.0,phase_1,,,,,,,,,,,,,gray,I
194.0,3.0,3.0,0.0,2.0,2.0,351.5483189999031,3.0,1.0,phase_1,,,,,,,,,,,,,gray,I
217.0,7.0,3.0,1.0,2.0,2.0,326.7408159999831,3.0,1.0,phase_1,,,,,,,,,,,,,cyan,circle
387.0,8.0,4.0,1.0,2.0,2.0,369.8510879999048,3.0,1.0,phase_1,,,,,,,,,,,,,white,hexagon
213.0,3.0,3.0,0.0,1.0,1.0,331.5357230003428,3.0,1.0,phase_1,,,,,,,,,,,,,gray,I
216.0,3.0,3.0,0.0,2.0,2.0,334.8150560000249,3.0,1.0,phase_1,,,,,,,,,,,,,gray,I
0.0,5.0,0.0,1.0,4.0,4.0,376.8111379999936,3.0,1.0,phase_1,,,,,,,,,,,,,blue,triangle
79.0,2.0,2.0,0.0,4.0,4.0,356.8714650000402,3.0,1.0,phase_1,,,,,,,,,,,,,orange,square
211.0,7.0,3.0,1.0,4.0,4.0,368.5923450002519,3.0,1.0,phase_1,,,,,,,,,,,,,cyan,circle
417.0,4.0,4.0,0.0,3.0,3.0,341.5180460001465,3.0,1.0,phase_1,,,,,,,,,,,,,green,cross
59.0,5.0,1.0,1.0,3.0,3.0,424.9838689997887,3.0,1.0,phase_1,,,,,,,,,,,,,blue,triangle
0.0,4.0,0.0,0.0,3.0,3.0,313.9433619999181,3.0,1.0,phase_1,,,,,,,,,,,,,green,cross
100.0,2.0,2.0,0.0,2.0,2.0,376.8527160000303,3.0,1.0,phase_1,,,,,,,,,,,,,orange,square
98.0,2.0,2.0,0.0,2.0,2.0,526.4130639998257,3.0,1.0,phase_1,,,,,,,,,,,,,orange,square
64.0,1.0,1.0,0.0,4.0,4.0,422.7895270000772,3.0,1.0,phase_1,,,,,,,,,,,,,yellow,flipped triangle
56.0,5.0,1.0,1.0,1.0,1.0,354.1906179998477,3.0,1.0,phase_1,,,,,,,,,,,,,blue,triangle
64.0,5.0,1.0,1.0,2.0,2.0,414.0930759999719,3.0,1.0,phase_1,,,,,,,,,,,,,blue,triangle
425.0,8.0,4.0,1.0,3.0,3.0,350.7939680002891,3.0,1.0,phase_1,,,,,,,,,,,,,white,hexagon
118.0,6.0,2.0,1.0,1.0,1.0,394.5763640003861,3.0,1.0,phase_1,,,,,,,,,,,,,magenta,diamond
190.0,3.0,3.0,0.0,4.0,4.0,356.7928010002106,3.0,1.0,phase_1,,,,,,,,,,,,,gray,I
118.0,2.0,2.0,0.0,3.0,3.0,321.8654629999946,3.0,1.0,phase_1,,,,,,,,,,,,,orange,square
0.0,7.0,0.0,1.0,2.0,2.0,324.4185409998863,3.0,1.0,phase_1,,,,,,,,,,,,,cyan,circle
0.0,8.0,0.0,1.0,3.0,3.0,443.2354900000064,3.0,1.0,phase_1,,,,,,,,,,,,,white,hexagon
99.0,2.0,2.0,0.0,2.0,2.0,362.2925230001783,3.0,1.0,phase_1,,,,,,,,,,,,,orange,square
112.0,2.0,2.0,0.0,1.0,1.0,325.5831730002683,3.0,1.0,phase_1,,,,,,,,,,,,,orange,square
216.0,7.0,3.0,1.0,4.0,4.0,360.2602599999045,3.0,1.0,phase_1,,,,,,,,,,,,,cyan,circle
391.0,8.0,4.0,1.0,4.0,4.0,322.2901620001721,3.0,1.0,phase_1,,,,,,,,,,,,,white,hexagon
0.0,4.0,0.0,0.0,4.0,4.0,316.3145389999044,3.0,1.0,phase_1,,,,,,,,,,,,,green,cross
0.0,2.0,0.0,0.0,1.0,1.0,358.0954590001965,3.0,1.0,phase_1,,,,,,,,,,,,,orange,square
384.0,4.0,4.0,0.0,1.0,1.0,362.3938460000317,3.0,1.0,phase_1,,,,,,,,,,,,,green,cross
0.0,6.0,0.0,1.0,4.0,4.0,381.8265900004007,3.0,1.0,phase_1,,,,,,,,,,,,,magenta,diamond
78.0,2.0,2.0,0.0,4.0,4.0,309.5758319996093,3.0,1.0,phase_1,,,,,,,,,,,,,orange,square
97.0,2.0,2.0,0.0,4.0,4.0,315.2917449997403,3.0,1.0,phase_1,,,,,,,,,,,,,orange,square
48.0,5.0,1.0,1.0,4.0,4.0,369.3857029998071,3.0,1.0,phase_1,,,,,,,,,,,,,blue,triangle
114.0,2.0,2.0,0.0,3.0,3.0,339.9420119999377,3.0,1.0,phase_1,,,,,,,,,,,,,orange,square
0.0,7.0,0.0,1.0,3.0,3.0,357.4200909997671,3.0,1.0,phase_1,,,,,,,,,,,,,cyan,circle
181.0,7.0,3.0,1.0,1.0,1.0,597.6901710000675,3.0,1.0,phase_1,,,,,,,,,,,,,cyan,circle
36.0,5.0,1.0,1.0,4.0,4.0,328.1301759998314,3.0,1.0,phase_1,,,,,,,,,,,,,blue,triangle
405.0,8.0,4.0,1.0,1.0,1.0,393.3106180002141,3.0,1.0,phase_1,,,,,,,,,,,,,white,hexagon
203.0,7.0,3.0,1.0,2.0,2.0,355.3686799996285,3.0,1.0,phase_1,,,,,,,,,,,,,cyan,circle
217.0,3.0,3.0,0.0,1.0,1.0,350.3807950000919,3.0,1.0,phase_1,,,,,,,,,,,,,gray,I
0.0,8.0,0.0,1.0,2.0,2.0,354.1668319999189,3.0,1.0,phase_1,,,,,,,,,,,,,white,hexagon
85.0,2.0,2.0,0.0,2.0,2.0,333.3273490002284,3.0,1.0,phase_1,,,,,,,,,,,,,orange,square
98.0,6.0,2.0,1.0,2.0,2.0,332.4273779999203,3.0,1.0,phase_1,,,,,,,,,,,,,magenta,diamond
421.0,4.0,4.0,0.0,1.0,1.0,314.2969890000131,3.0,1.0,phase_1,,,,,,,,,,,,,green,cross
179.0,7.0,3.0,1.0,2.0,2.0,269.4718870002361,3.0,1.0,phase_1,,,,,,,,,,,,,cyan,circle
86.0,2.0,2.0,0.0,2.0,2.0,326.3052940001216,3.0,1.0,phase_1,,,,,,,,,,,,,orange,square
389.0,8.0,4.0,1.0,1.0,1.0,364.7412459999941,3.0,1.0,phase_1,,,,,,,,,,,,,white,hexagon
0.0,5.0,0.0,1.0,3.0,3.0,330.3918500000691,3.0,1.0,phase_1,,,,,,,,,,,,,blue,triangle
66.0,5.0,1.0,1.0,1.0,1.0,292.53912500007567,3.0,1.0,phase_1,,,,,,,,,,,,,blue,triangle
0.0,5.0,0.0,1.0,2.0,2.0,311.0596440001245,3.0,1.0,phase_1,,,,,,,,,,,,,blue,triangle
412.0,4.0,4.0,0.0,4.0,4.0,387.4694710002586,3.0,1.0,phase_1,,,,,,,,,,,,,green,cross
32.0,5.0,1.0,1.0,1.0,1.0,362.41682400032,3.0,1.0,phase_1,,,,,,,,,,,,,blue,triangle
195.0,3.0,3.0,0.0,4.0,4.0,323.1089640003119,3.0,1.0,phase_1,,,,,,,,,,,,,gray,I
61.0,5.0,1.0,1.0,2.0,2.0,353.877268999895,3.0,1.0,phase_1,,,,,,,,,,,,,blue,triangle
111.0,6.0,2.0,1.0,2.0,2.0,331.2551610001719,3.0,1.0,phase_1,,,,,,,,,,,,,magenta,diamond
44.0,5.0,1.0,1.0,3.0,3.0,364.9056969998128,3.0,1.0,phase_1,,,,,,,,,,,,,blue,triangle
203.0,3.0,3.0,0.0,3.0,3.0,458.3125700000892,3.0,1.0,phase_1,,,,,,,,,,,,,gray,I
186.0,7.0,3.0,1.0,4.0,4.0,340.5785740001192,3.0,1.0,phase_1,,,,,,,,,,,,,cyan,circle
0.0,2.0,0.0,0.0,3.0,3.0,618.5645149998891,3.0,1.0,phase_1,,,,,,,,,,,,,orange,square
200.0,3.0,3.0,0.0,4.0,4.0,381.9885949997115,3.0,1.0,phase_1,,,,,,,,,,,,,gray,I
0.0,2.0,0.0,0.0,3.0,3.0,423.0449759998009,3.0,1.0,phase_1,,,,,,,,,,,,,orange,square
181.0,7.0,3.0,1.0,3.0,3.0,371.3387210000292,3.0,1.0,phase_1,,,,,,,,,,,,,cyan,circle
0.0,3.0,0.0,0.0,4.0,4.0,347.753967999779,3.0,1.0,phase_1,,,,,,,,,,,,,gray,I
421.0,8.0,4.0,1.0,2.0,2.0,369.9142290001873,3.0,1.0,phase_1,,,,,,,,,,,,,white,hexagon
0.0,2.0,0.0,0.0,4.0,4.0,406.1769600002662,3.0,1.0,phase_1,,,,,,,,,,,,,orange,square
220.0,3.0,3.0,0.0,1.0,1.0,420.6993959996907,3.0,1.0,phase_1,,,,,,,,,,,,,gray,I
0.0,1.0,0.0,0.0,1.0,1.0,366.1306649996731,3.0,1.0,phase_1,,,,,,,,,,,,,yellow,flipped triangle
78.0,6.0,2.0,1.0,1.0,1.0,325.494234999951,3.0,1.0,phase_1,,,,,,,,,,,,,magenta,diamond
0.0,7.0,0.0,1.0,3.0,3.0,355.391260000033,3.0,1.0,phase_1,,,,,,,,,,,,,cyan,circle
185.0,3.0,3.0,0.0,1.0,1.0,401.1295570003312,3.0,1.0,phase_1,,,,,,,,,,,,,gray,I
0.0,6.0,0.0,1.0,4.0,4.0,353.1553859997984,3.0,1.0,phase_1,,,,,,,,,,,,,magenta,diamond
43.0,1.0,1.0,0.0,3.0,3.0,331.001568999909,3.0,1.0,phase_1,,,,,,,,,,,,,yellow,flipped triangle
0.0,4.0,0.0,0.0,2.0,2.0,387.7761610001471,3.0,1.0,phase_1,,,,,,,,,,,,,green,cross
200.0,7.0,3.0,1.0,1.0,1.0,343.627835999996,3.0,1.0,phase_1,,,,,,,,,,,,,cyan,circle
0.0,3.0,0.0,0.0,4.0,4.0,312.2828969999318,3.0,1.0,phase_1,,,,,,,,,,,,,gray,I
32.0,1.0,1.0,0.0,1.0,1.0,418.8875079998979,3.0,1.0,phase_1,,,,,,,,,,,,,yellow,flipped triangle
81.0,6.0,2.0,1.0,1.0,1.0,383.7077449998105,3.0,1.0,phase_1,,,,,,,,,,,,,magenta,diamond
119.0,2.0,2.0,0.0,2.0,2.0,312.9590999997163,3.0,1.0,phase_1,,,,,,,,,,,,,orange,square
0.0,3.0,0.0,0.0,3.0,3.0,352.9916460001914,3.0,1.0,phase_1,,,,,,,,,,,,,gray,I
178.0,7.0,3.0,1.0,1.0,1.0,333.9795799997773,3.0,1.0,phase_1,,,,,,,,,,,,,cyan,circle
223.0,7.0,3.0,1.0,3.0,3.0,325.4690160001701,3.0,1.0,phase_1,,,,,,,,,,,,,cyan,circle
386.0,4.0,4.0,0.0,1.0,1.0,327.5419849996979,4.0,1.0,phase_1,,,,,,,,,,,,,green,cross
0.0,3.0,0.0,0.0,2.0,2.0,357.8085560002364,4.0,1.0,phase_1,,,,,,,,,,,,,gray,I
0.0,7.0,0.0,1.0,4.0,4.0,408.0478959999709,4.0,1.0,phase_1,,,,,,,,,,,,,cyan,circle
182.0,3.0,3.0,0.0,4.0,4.0,391.9742299999598,4.0,1.0,phase_1,,,,,,,,,,,,,gray,I
86.0,6.0,2.0,1.0,3.0,3.0,381.3142690000859,4.0,1.0,phase_1,,,,,,,,,,,,,magenta,diamond
190.0,7.0,3.0,1.0,4.0,4.0,353.1270939997739,4.0,1.0,phase_1,,,,,,,,,,,,,cyan,circle
184.0,7.0,3.0,1.0,3.0,3.0,357.4792529998376,4.0,1.0,phase_1,,,,,,,,,,,,,cyan,circle
56.0,1.0,1.0,0.0,2.0,2.0,380.175178999707,4.0,1.0,phase_1,,,,,,,,,,,,,yellow,flipped triangle
389.0,4.0,4.0,0.0,3.0,3.0,337.89792299967297,4.0,1.0,phase_1,,,,,,,,,,,,,green,cross
27.0,1.0,1.0,0.0,4.0,4.0,314.1620589999547,4.0,1.0,phase_1,,,,,,,,,,,,,yellow,flipped triangle
100.0,6.0,2.0,1.0,3.0,3.0,307.9657240000415,4.0,1.0,phase_1,,,,,,,,,,,,,magenta,diamond
0.0,7.0,0.0,1.0,3.0,3.0,379.1951749999498,4.0,1.0,phase_1,,,,,,,,,,,,,cyan,circle
30.0,5.0,1.0,1.0,3.0,3.0,301.4665700002297,4.0,1.0,phase_1,,,,,,,,,,,,,blue,triangle
213.0,7.0,3.0,1.0,3.0,3.0,311.4563639996959,4.0,1.0,phase_1,,,,,,,,,,,,,cyan,circle
425.0,8.0,4.0,1.0,1.0,1.0,405.4421050000201,4.0,1.0,phase_1,,,,,,,,,,,,,white,hexagon
0.0,6.0,0.0,1.0,2.0,2.0,333.4219319999647,4.0,1.0,phase_1,,,,,,,,,,,,,magenta,diamond
45.0,1.0,1.0,0.0,1.0,1.0,319.5094689999678,4.0,1.0,phase_1,,,,,,,,,,,,,yellow,flipped triangle
386.0,8.0,4.0,1.0,4.0,4.0,314.3096550002155,4.0,1.0,phase_1,,,,,,,,,,,,,white,hexagon
68.0,5.0,1.0,1.0,1.0,1.0,319.8547960000724,4.0,1.0,phase_1,,,,,,,,,,,,,blue,triangle
77.0,2.0,2.0,0.0,2.0,2.0,306.531570000061,4.0,1.0,phase_1,,,,,,,,,,,,,orange,square
389.0,8.0,4.0,1.0,1.0,1.0,329.0888860001359,4.0,1.0,phase_1,,,,,,,,,,,,,white,hexagon
403.0,8.0,4.0,1.0,2.0,2.0,328.7275900001987,4.0,1.0,phase_1,,,,,,,,,,,,,white,hexagon
108.0,6.0,2.0,1.0,3.0,3.0,331.8958260001636,4.0,1.0,phase_1,,,,,,,,,,,,,magenta,diamond
29.0,1.0,1.0,0.0,2.0,2.0,338.896952000141,4.0,1.0,phase_1,,,,,,,,,,,,,yellow,flipped triangle
73.0,1.0,1.0,0.0,3.0,3.0,324.2677969997203,4.0,1.0,phase_1,,,,,,,,,,,,,yellow,flipped triangle
211.0,3.0,3.0,0.0,1.0,1.0,299.7843239995745,4.0,1.0,phase_1,,,,,,,,,,,,,gray,I
36.0,1.0,1.0,0.0,1.0,1.0,299.3105159998777,4.0,1.0,phase_1,,,,,,,,,,,,,yellow,flipped triangle
0.0,3.0,0.0,0.0,4.0,4.0,678.3953770000153,4.0,1.0,phase_1,,,,,,,,,,,,,gray,I
56.0,5.0,1.0,1.0,4.0,4.0,426.3795369997751,4.0,1.0,phase_1,,,,,,,,,,,,,blue,triangle
48.0,1.0,1.0,0.0,2.0,2.0,306.4014399997177,4.0,1.0,phase_1,,,,,,,,,,,,,yellow,flipped triangle
0.0,2.0,0.0,0.0,2.0,2.0,350.1386599996294,4.0,1.0,phase_1,,,,,,,,,,,,,orange,square
421.0,8.0,4.0,1.0,4.0,4.0,338.3373820001907,4.0,1.0,phase_1,,,,,,,,,,,,,white,hexagon
91.0,2.0,2.0,0.0,3.0,3.0,398.2090619997507,4.0,1.0,phase_1,,,,,,,,,,,,,orange,square
376.0,4.0,4.0,0.0,3.0,3.0,298.6741640002037,4.0,1.0,phase_1,,,,,,,,,,,,,green,cross
107.0,6.0,2.0,1.0,2.0,2.0,324.6537760001047,4.0,1.0,phase_1,,,,,,,,,,,,,magenta,diamond
32.0,5.0,1.0,1.0,2.0,2.0,336.490381999738,4.0,1.0,phase_1,,,,,,,,,,,,,blue,triangle
209.0,3.0,3.0,0.0,3.0,3.0,349.5366520000971,4.0,1.0,phase_1,,,,,,,,,,,,,gray,I
0.0,1.0,0.0,0.0,2.0,2.0,308.551517000069,4.0,1.0,phase_1,,,,,,,,,,,,,yellow,flipped triangle
398.0,8.0,4.0,1.0,2.0,2.0,323.9188399998056,4.0,1.0,phase_1,,,,,,,,,,,,,white,hexagon
81.0,6.0,2.0,1.0,3.0,3.0,418.39187100003977,4.0,1.0,phase_1,,,,,,,,,,,,,magenta,diamond
393.0,4.0,4.0,0.0,2.0,2.0,280.9225669998341,4.0,1.0,phase_1,,,,,,,,,,,,,green,cross
216.0,7.0,3.0,1.0,4.0,4.0,305.5600669999876,4.0,1.0,phase_1,,,,,,,,,,,,,cyan,circle
60.0,5.0,1.0,1.0,4.0,4.0,326.3610409999273,4.0,1.0,phase_1,,,,,,,,,,,,,blue,triangle
0.0,8.0,0.0,1.0,3.0,3.0,315.5462560002888,4.0,1.0,phase_1,,,,,,,,,,,,,white,hexagon
421.0,4.0,4.0,0.0,2.0,2.0,403.3414980003726,4.0,1.0,phase_1,,,,,,,,,,,,,green,cross
208.0,3.0,3.0,0.0,2.0,2.0,536.734811000315,4.0,1.0,phase_1,,,,,,,,,,,,,gray,I
0.0,4.0,0.0,0.0,1.0,1.0,347.5039479999395,4.0,1.0,phase_1,,,,,,,,,,,,,green,cross
178.0,3.0,3.0,0.0,3.0,3.0,333.6592480000035,4.0,1.0,phase_1,,,,,,,,,,,,,gray,I
104.0,6.0,2.0,1.0,2.0,2.0,283.2880719997774,4.0,1.0,phase_1,,,,,,,,,,,,,magenta,diamond
85.0,2.0,2.0,0.0,1.0,1.0,405.4546920001485,4.0,1.0,phase_1,,,,,,,,,,,,,orange,square
111.0,2.0,2.0,0.0,4.0,4.0,323.7824989996625,4.0,1.0,phase_1,,,,,,,,,,,,,orange,square
70.0,5.0,1.0,1.0,3.0,3.0,392.2765250003976,4.0,1.0,phase_1,,,,,,,,,,,,,blue,triangle
99.0,6.0,2.0,1.0,2.0,2.0,319.9846619995696,4.0,1.0,phase_1,,,,,,,,,,,,,magenta,diamond
60.0,1.0,1.0,0.0,4.0,4.0,362.3494670000582,4.0,1.0,phase_1,,,,,,,,,,,,,yellow,flipped triangle
52.0,1.0,1.0,0.0,4.0,4.0,327.0780050002031,4.0,1.0,phase_1,,,,,,,,,,,,,yellow,flipped triangle
188.0,7.0,3.0,1.0,2.0,2.0,378.3980599996539,4.0,1.0,phase_1,,,,,,,,,,,,,cyan,circle
52.0,5.0,1.0,1.0,1.0,1.0,311.9549510001889,4.0,1.0,phase_1,,,,,,,,,,,,,blue,triangle
123.0,6.0,2.0,1.0,4.0,4.0,344.3898790001185,4.0,1.0,phase_1,,,,,,,,,,,,,magenta,diamond
0.0,6.0,0.0,1.0,4.0,4.0,311.0880449999058,4.0,1.0,phase_1,,,,,,,,,,,,,magenta,diamond
90.0,6.0,2.0,1.0,3.0,3.0,333.4757779998654,4.0,1.0,phase_1,,,,,,,,,,,,,magenta,diamond
376.0,8.0,4.0,1.0,3.0,3.0,314.5679360000031,4.0,1.0,phase_1,,,,,,,,,,,,,white,hexagon
424.0,8.0,4.0,1.0,2.0,2.0,319.8709240000426,4.0,1.0,phase_1,,,,,,,,,,,,,white,hexagon
0.0,1.0,0.0,0.0,2.0,2.0,346.764979999989,4.0,1.0,phase_1,,,,,,,,,,,,,yellow,flipped triangle
379.0,8.0,4.0,1.0,4.0,4.0,329.4469639999988,4.0,1.0,phase_1,,,,,,,,,,,,,white,hexagon
0.0,1.0,0.0,0.0,4.0,4.0,271.6614930000105,4.0,1.0,phase_1,,,,,,,,,,,,,yellow,flipped triangle
398.0,4.0,4.0,0.0,1.0,1.0,262.2341619999133,4.0,1.0,phase_1,,,,,,,,,,,,,green,cross
203.0,3.0,3.0,0.0,3.0,3.0,294.4647670001359,4.0,1.0,phase_1,,,,,,,,,,,,,gray,I
30.0,5.0,1.0,1.0,1.0,1.0,325.3638060000412,4.0,1.0,phase_1,,,,,,,,,,,,,blue,triangle
103.0,6.0,2.0,1.0,2.0,2.0,342.6731360000303,4.0,1.0,phase_1,,,,,,,,,,,,,magenta,diamond
405.0,4.0,4.0,0.0,4.0,4.0,326.7344070000035,4.0,1.0,phase_1,,,,,,,,,,,,,green,cross
0.0,1.0,0.0,0.0,1.0,1.0,302.2413409998989,4.0,1.0,phase_1,,,,,,,,,,,,,yellow,flipped triangle
424.0,4.0,4.0,0.0,3.0,3.0,392.2964159996809,4.0,1.0,phase_1,,,,,,,,,,,,,green,cross
112.0,6.0,2.0,1.0,4.0,4.0,609.7932319999018,4.0,1.0,phase_1,,,,,,,,,,,,,magenta,diamond
193.0,7.0,3.0,1.0,2.0,2.0,449.6097470000677,4.0,1.0,phase_1,,,,,,,,,,,,,cyan,circle
218.0,3.0,3.0,0.0,3.0,3.0,458.6906310000813,4.0,1.0,phase_1,,,,,,,,,,,,,gray,I
223.0,3.0,3.0,0.0,2.0,2.0,358.2565579999937,4.0,1.0,phase_1,,,,,,,,,,,,,gray,I
403.0,8.0,4.0,1.0,3.0,3.0,305.6209540000054,4.0,1.0,phase_1,,,,,,,,,,,,,white,hexagon
90.0,2.0,2.0,0.0,4.0,4.0,351.7065149999325,4.0,1.0,phase_1,,,,,,,,,,,,,orange,square
0.0,6.0,0.0,1.0,1.0,1.0,449.4628360002934,4.0,1.0,phase_1,,,,,,,,,,,,,magenta,diamond
0.0,6.0,0.0,1.0,2.0,2.0,345.7165270001496,4.0,1.0,phase_1,,,,,,,,,,,,,magenta,diamond
186.0,3.0,3.0,0.0,2.0,2.0,359.8841739999443,4.0,1.0,phase_1,,,,,,,,,,,,,gray,I
414.0,8.0,4.0,1.0,2.0,2.0,362.1930879999127,4.0,1.0,phase_1,,,,,,,,,,,,,white,hexagon
70.0,1.0,1.0,0.0,2.0,2.0,302.8842209996583,4.0,1.0,phase_1,,,,,,,,,,,,,yellow,flipped triangle
403.0,4.0,4.0,0.0,1.0,1.0,307.8766280000309,4.0,1.0,phase_1,,,,,,,,,,,,,green,cross
25.0,5.0,1.0,1.0,1.0,1.0,352.8163109999696,4.0,1.0,phase_1,,,,,,,,,,,,,blue,triangle
84.0,2.0,2.0,0.0,3.0,3.0,427.3740400003589,4.0,1.0,phase_1,,,,,,,,,,,,,orange,square
0.0,8.0,0.0,1.0,2.0,2.0,329.3734130002121,4.0,1.0,phase_1,,,,,,,,,,,,,white,hexagon
0.0,5.0,0.0,1.0,2.0,2.0,363.8895210001465,4.0,1.0,phase_1,,,,,,,,,,,,,blue,triangle
0.0,4.0,0.0,0.0,1.0,1.0,362.8049120002288,4.0,1.0,phase_1,,,,,,,,,,,,,green,cross
44.0,1.0,1.0,0.0,3.0,3.0,338.5399309995591,4.0,1.0,phase_1,,,,,,,,,,,,,yellow,flipped triangle
181.0,3.0,3.0,0.0,4.0,4.0,347.7131619997635,4.0,1.0,phase_1,,,,,,,,,,,,,gray,I
113.0,6.0,2.0,1.0,2.0,2.0,404.2641790001653,4.0,1.0,phase_1,,,,,,,,,,,,,magenta,diamond
185.0,7.0,3.0,1.0,3.0,3.0,349.5382940000127,4.0,1.0,phase_1,,,,,,,,,,,,,cyan,circle
384.0,8.0,4.0,1.0,4.0,4.0,453.9976469995963,4.0,1.0,phase_1,,,,,,,,,,,,,white,hexagon
184.0,3.0,3.0,0.0,2.0,2.0,393.990432999999,4.0,1.0,phase_1,,,,,,,,,,,,,gray,I
0.0,3.0,0.0,0.0,2.0,2.0,364.8731090002002,4.0,1.0,phase_1,,,,,,,,,,,,,gray,I
100.0,6.0,2.0,1.0,3.0,3.0,310.1064299999052,4.0,1.0,phase_1,,,,,,,,,,,,,magenta,diamond
90.0,6.0,2.0,1.0,2.0,2.0,360.3675609997481,4.0,1.0,phase_1,,,,,,,,,,,,,magenta,diamond
402.0,4.0,4.0,0.0,1.0,1.0,349.9197289997937,4.0,1.0,phase_1,,,,,,,,,,,,,green,cross
0.0,6.0,0.0,1.0,1.0,1.0,344.1925719998835,4.0,1.0,phase_1,,,,,,,,,,,,,magenta,diamond
0.0,7.0,3.0,1.0,5.0,5.0,353.1715340000119,1.0,1.0,phase_2,go,250.0,250.0,1.0,,,,,,,,,cyan,circle
0.0,4.0,4.0,0.0,5.0,5.0,614.1243709998889,1.0,1.0,phase_2,go,250.0,250.0,1.0,,,,,,,,,green,cross
0.0,3.0,3.0,0.0,5.0,5.0,370.1809469998807,1.0,1.0,phase_2,go,250.0,250.0,1.0,,,,,,,,,gray,I
0.0,1.0,1.0,0.0,5.0,5.0,431.2840550001056,1.0,1.0,phase_2,go,250.0,250.0,1.0,,,,,,,,,yellow,flipped triangle
0.0,4.0,4.0,0.0,6.0,6.0,653.2282770003803,1.0,1.0,phase_2,go,250.0,250.0,1.0,,,,,,,,,green,cross
0.0,7.0,3.0,1.0,6.0,6.0,358.5511139999653,1.0,1.0,phase_2,go,250.0,250.0,1.0,,,,,,,,,cyan,circle
0.0,4.0,4.0,0.0,6.0,6.0,351.2580070000695,1.0,1.0,phase_2,go,250.0,250.0,1.0,,,,,,,,,green,cross
0.0,6.0,2.0,1.0,5.0,5.0,517.0080890002282,1.0,1.0,phase_2,stop,250.0,250.0,3.0,,,,,,,,,magenta,diamond
0.0,5.0,1.0,1.0,6.0,0.0,0.0,1.0,1.0,phase_2,stop,200.0,250.0,4.0,,,,,,,,,blue,triangle
0.0,1.0,1.0,0.0,5.0,5.0,643.6320910001996,1.0,1.0,phase_2,go,200.0,300.0,1.0,,,,,,,,,yellow,flipped triangle
0.0,7.0,3.0,1.0,6.0,6.0,424.1878120001274,1.0,1.0,phase_2,go,200.0,300.0,1.0,,,,,,,,,cyan,circle
0.0,6.0,2.0,1.0,5.0,0.0,0.0,1.0,1.0,phase_2,stop,200.0,300.0,4.0,,,,,,,,,magenta,diamond
0.0,8.0,4.0,1.0,5.0,0.0,0.0,1.0,1.0,phase_2,stop,250.0,300.0,4.0,,,,,,,,,white,hexagon
0.0,7.0,3.0,1.0,6.0,0.0,0.0,1.0,1.0,phase_2,stop,300.0,300.0,4.0,,,,,,,,,cyan,circle
0.0,4.0,4.0,0.0,5.0,5.0,746.1518160002925,1.0,1.0,phase_2,go,300.0,350.0,1.0,,,,,,,,,green,cross
0.0,6.0,2.0,1.0,5.0,0.0,0.0,1.0,1.0,phase_2,stop,300.0,350.0,4.0,,,,,,,,,magenta,diamond
0.0,2.0,2.0,0.0,6.0,6.0,589.2834690002928,1.0,1.0,phase_2,go,350.0,350.0,1.0,,,,,,,,,orange,square
0.0,2.0,2.0,0.0,5.0,5.0,734.5377100000405,1.0,1.0,phase_2,go,350.0,350.0,1.0,,,,,,,,,orange,square
0.0,7.0,3.0,1.0,6.0,0.0,0.0,1.0,1.0,phase_2,stop,350.0,350.0,4.0,,,,,,,,,cyan,circle
0.0,4.0,4.0,0.0,5.0,5.0,655.5324659998405,1.0,1.0,phase_2,go,350.0,400.0,1.0,,,,,,,,,green,cross
0.0,7.0,3.0,1.0,5.0,0.0,0.0,1.0,1.0,phase_2,stop,350.0,400.0,4.0,,,,,,,,,cyan,circle
0.0,1.0,1.0,0.0,6.0,6.0,670.3186479999204,1.0,1.0,phase_2,go,400.0,400.0,1.0,,,,,,,,,yellow,flipped triangle
0.0,5.0,1.0,1.0,5.0,5.0,781.6278989998864,1.0,1.0,phase_2,go,400.0,400.0,1.0,,,,,,,,,blue,triangle
0.0,4.0,4.0,0.0,6.0,6.0,560.5293720000191,1.0,1.0,phase_2,go,400.0,400.0,1.0,,,,,,,,,green,cross
0.0,6.0,2.0,1.0,5.0,5.0,313.9165189995765,1.0,1.0,phase_2,stop,400.0,400.0,3.0,,,,,,,,,magenta,diamond
0.0,5.0,1.0,1.0,5.0,5.0,800.9465759996601,1.0,1.0,phase_2,go,350.0,400.0,1.0,,,,,,,,,blue,triangle
0.0,1.0,1.0,0.0,6.0,6.0,824.4255470003736,1.0,1.0,phase_2,go,350.0,400.0,1.0,,,,,,,,,yellow,flipped triangle
0.0,1.0,1.0,0.0,5.0,5.0,667.1829140000227,1.0,1.0,phase_2,go,350.0,400.0,1.0,,,,,,,,,yellow,flipped triangle
0.0,8.0,4.0,1.0,5.0,5.0,343.4028120000221,1.0,1.0,phase_2,go,350.0,400.0,1.0,,,,,,,,,white,hexagon
0.0,5.0,1.0,1.0,5.0,5.0,589.160544999686,1.0,1.0,phase_2,go,350.0,400.0,1.0,,,,,,,,,blue,triangle
0.0,7.0,3.0,1.0,5.0,0.0,0.0,1.0,1.0,phase_2,stop,350.0,400.0,4.0,,,,,,,,,cyan,circle
0.0,1.0,1.0,0.0,6.0,6.0,495.9990160000416,1.0,1.0,phase_2,go,400.0,400.0,1.0,,,,,,,,,yellow,flipped triangle
0.0,2.0,2.0,0.0,5.0,5.0,860.490303000006,1.0,1.0,phase_2,go,400.0,400.0,1.0,,,,,,,,,orange,square
0.0,2.0,2.0,0.0,5.0,5.0,717.3669659996449,1.0,1.0,phase_2,go,400.0,400.0,1.0,,,,,,,,,orange,square
0.0,6.0,2.0,1.0,6.0,6.0,678.7110200002644,1.0,1.0,phase_2,go,400.0,400.0,1.0,,,,,,,,,magenta,diamond
0.0,8.0,4.0,1.0,5.0,0.0,0.0,1.0,1.0,phase_2,stop,400.0,400.0,4.0,,,,,,,,,white,hexagon
0.0,6.0,2.0,1.0,6.0,6.0,439.1613390002931,2.0,1.0,phase_2,stop,450.0,400.0,3.0,,,,,,,,,magenta,diamond
0.0,5.0,1.0,1.0,5.0,5.0,646.7749050002567,2.0,1.0,phase_2,go,450.0,350.0,1.0,,,,,,,,,blue,triangle
0.0,5.0,1.0,1.0,6.0,6.0,775.4654430000301,2.0,1.0,phase_2,go,450.0,350.0,1.0,,,,,,,,,blue,triangle
0.0,3.0,3.0,0.0,6.0,6.0,569.1607130002012,2.0,1.0,phase_2,go,450.0,350.0,1.0,,,,,,,,,gray,I
0.0,5.0,1.0,1.0,5.0,0.0,0.0,2.0,1.0,phase_2,stop,450.0,350.0,4.0,,,,,,,,,blue,triangle
0.0,1.0,1.0,0.0,6.0,6.0,788.7267510000129,2.0,1.0,phase_2,go,500.0,350.0,1.0,,,,,,,,,yellow,flipped triangle
0.0,4.0,4.0,0.0,6.0,6.0,454.2063769999913,2.0,1.0,phase_2,go,500.0,350.0,1.0,,,,,,,,,green,cross
0.0,8.0,4.0,1.0,5.0,5.0,608.6062889999084,2.0,1.0,phase_2,stop,500.0,350.0,3.0,,,,,,,,,white,hexagon
0.0,4.0,4.0,0.0,6.0,6.0,835.9149130001242,2.0,1.0,phase_2,go,450.0,350.0,1.0,,,,,,,,,green,cross
0.0,3.0,3.0,0.0,5.0,5.0,655.5052149997209,2.0,1.0,phase_2,go,450.0,350.0,1.0,,,,,,,,,gray,I
0.0,8.0,4.0,1.0,6.0,6.0,914.0036029998556,2.0,1.0,phase_2,go,450.0,350.0,1.0,,,,,,,,,white,hexagon
0.0,2.0,2.0,0.0,5.0,5.0,667.4584769998546,2.0,1.0,phase_2,go,450.0,350.0,1.0,,,,,,,,,orange,square
0.0,4.0,4.0,0.0,6.0,6.0,463.166074000128,2.0,1.0,phase_2,go,450.0,350.0,1.0,,,,,,,,,green,cross
0.0,7.0,3.0,1.0,5.0,0.0,0.0,2.0,1.0,phase_2,stop,450.0,350.0,4.0,,,,,,,,,cyan,circle
0.0,3.0,3.0,0.0,6.0,6.0,644.8048480001489,2.0,1.0,phase_2,go,500.0,350.0,1.0,,,,,,,,,gray,I
0.0,4.0,4.0,0.0,6.0,6.0,560.5763839998872,2.0,1.0,phase_2,go,500.0,350.0,1.0,,,,,,,,,green,cross
0.0,5.0,1.0,1.0,6.0,0.0,0.0,2.0,1.0,phase_2,stop,500.0,350.0,4.0,,,,,,,,,blue,triangle
0.0,2.0,2.0,0.0,6.0,6.0,716.7723370002932,2.0,1.0,phase_2,go,500.0,400.0,1.0,,,,,,,,,orange,square
0.0,7.0,3.0,1.0,5.0,5.0,923.8816389997736,2.0,1.0,phase_2,go,500.0,400.0,1.0,,,,,,,,,cyan,circle
0.0,1.0,1.0,0.0,5.0,5.0,674.1625909999129,2.0,1.0,phase_2,go,500.0,400.0,1.0,,,,,,,,,yellow,flipped triangle
0.0,5.0,1.0,1.0,5.0,5.0,482.0429440001135,2.0,1.0,phase_2,go,500.0,400.0,1.0,,,,,,,,,blue,triangle
0.0,1.0,1.0,0.0,6.0,6.0,701.6168000000107,2.0,1.0,phase_2,go,500.0,400.0,1.0,,,,,,,,,yellow,flipped triangle
0.0,4.0,4.0,0.0,5.0,5.0,544.0101799999866,2.0,1.0,phase_2,go,500.0,400.0,1.0,,,,,,,,,green,cross
0.0,3.0,3.0,0.0,6.0,6.0,479.3173100001695,2.0,1.0,phase_2,go,500.0,400.0,1.0,,,,,,,,,gray,I
0.0,5.0,1.0,1.0,5.0,5.0,626.2087309996787,2.0,1.0,phase_2,stop,500.0,400.0,3.0,,,,,,,,,blue,triangle
0.0,7.0,3.0,1.0,5.0,5.0,735.3458540001157,2.0,1.0,phase_2,go,450.0,400.0,1.0,,,,,,,,,cyan,circle
0.0,7.0,3.0,1.0,5.0,5.0,633.9926649998233,2.0,1.0,phase_2,go,450.0,400.0,1.0,,,,,,,,,cyan,circle
0.0,1.0,1.0,0.0,6.0,6.0,705.9227419999843,2.0,1.0,phase_2,go,450.0,400.0,1.0,,,,,,,,,yellow,flipped triangle
0.0,8.0,4.0,1.0,6.0,6.0,531.8619499998931,2.0,1.0,phase_2,stop,450.0,400.0,3.0,,,,,,,,,white,hexagon
0.0,8.0,4.0,1.0,6.0,0.0,0.0,2.0,1.0,phase_2,stop,450.0,350.0,4.0,,,,,,,,,white,hexagon
0.0,7.0,3.0,1.0,5.0,0.0,0.0,2.0,1.0,phase_2,stop,450.0,400.0,4.0,,,,,,,,,cyan,circle
0.0,5.0,1.0,1.0,6.0,6.0,1064.362372999767,2.0,1.0,phase_2,go,500.0,400.0,1.0,,,,,,,,,blue,triangle
0.0,3.0,3.0,0.0,5.0,5.0,649.7582100000727,2.0,1.0,phase_2,go,500.0,400.0,1.0,,,,,,,,,gray,I
0.0,8.0,4.0,1.0,5.0,0.0,0.0,2.0,1.0,phase_2,stop,500.0,400.0,4.0,,,,,,,,,white,hexagon
0.0,1.0,1.0,0.0,5.0,5.0,931.6525340000226,2.0,1.0,phase_2,go,550.0,400.0,1.0,,,,,,,,,yellow,flipped triangle
0.0,7.0,3.0,1.0,5.0,5.0,395.2249089998076,2.0,1.0,phase_2,stop,550.0,400.0,3.0,,,,,,,,,cyan,circle
0.0,8.0,4.0,1.0,6.0,6.0,436.7627320002611,3.0,1.0,phase_2,go,500.0,400.0,1.0,,,,,,,,,white,hexagon
0.0,1.0,1.0,0.0,5.0,5.0,624.1969180000524,3.0,1.0,phase_2,go,500.0,400.0,1.0,,,,,,,,,yellow,flipped triangle
0.0,8.0,4.0,1.0,5.0,5.0,612.6740059999065,3.0,1.0,phase_2,go,500.0,400.0,1.0,,,,,,,,,white,hexagon
0.0,1.0,1.0,0.0,6.0,6.0,539.8386449996906,3.0,1.0,phase_2,go,500.0,400.0,1.0,,,,,,,,,yellow,flipped triangle
0.0,1.0,1.0,0.0,5.0,5.0,713.014850000036,3.0,1.0,phase_2,go,500.0,400.0,1.0,,,,,,,,,yellow,flipped triangle
0.0,2.0,2.0,0.0,6.0,6.0,436.3425480000842,3.0,1.0,phase_2,go,500.0,400.0,1.0,,,,,,,,,orange,square
0.0,7.0,3.0,1.0,6.0,6.0,437.9373950000627,3.0,1.0,phase_2,stop,500.0,400.0,3.0,,,,,,,,,cyan,circle
0.0,3.0,3.0,0.0,6.0,6.0,599.6958910000103,3.0,1.0,phase_2,go,500.0,350.0,1.0,,,,,,,,,gray,I
0.0,6.0,2.0,1.0,5.0,0.0,0.0,3.0,1.0,phase_2,stop,500.0,350.0,4.0,,,,,,,,,magenta,diamond
0.0,3.0,3.0,0.0,5.0,5.0,853.2694430000447,3.0,1.0,phase_2,go,550.0,350.0,1.0,,,,,,,,,gray,I
0.0,4.0,4.0,0.0,5.0,5.0,872.1527830002742,3.0,1.0,phase_2,go,550.0,350.0,1.0,,,,,,,,,green,cross
0.0,6.0,2.0,1.0,5.0,0.0,0.0,3.0,1.0,phase_2,stop,550.0,350.0,4.0,,,,,,,,,magenta,diamond
0.0,6.0,2.0,1.0,5.0,5.0,757.3457150001559,3.0,1.0,phase_2,stop,600.0,350.0,3.0,,,,,,,,,magenta,diamond
0.0,5.0,1.0,1.0,5.0,0.0,0.0,3.0,1.0,phase_2,stop,550.0,350.0,4.0,,,,,,,,,blue,triangle
0.0,4.0,4.0,0.0,6.0,6.0,898.6036300002525,3.0,1.0,phase_2,go,600.0,350.0,1.0,,,,,,,,,green,cross
0.0,2.0,2.0,0.0,5.0,5.0,1266.9836869999926,3.0,1.0,phase_2,go,600.0,350.0,1.0,,,,,,,,,orange,square
0.0,7.0,3.0,1.0,5.0,0.0,0.0,3.0,1.0,phase_2,stop,600.0,350.0,4.0,,,,,,,,,cyan,circle
0.0,3.0,3.0,0.0,6.0,6.0,679.0270920000694,3.0,1.0,phase_2,go,650.0,350.0,1.0,,,,,,,,,gray,I
0.0,5.0,1.0,1.0,6.0,0.0,0.0,3.0,1.0,phase_2,stop,650.0,350.0,4.0,,,,,,,,,blue,triangle
0.0,7.0,3.0,1.0,6.0,0.0,0.0,3.0,1.0,phase_2,stop,650.0,400.0,4.0,,,,,,,,,cyan,circle
0.0,6.0,2.0,1.0,6.0,0.0,0.0,3.0,1.0,phase_2,stop,650.0,450.0,4.0,,,,,,,,,magenta,diamond
0.0,4.0,4.0,0.0,6.0,6.0,1045.4191250000804,3.0,1.0,phase_2,go,650.0,500.0,1.0,,,,,,,,,green,cross
0.0,6.0,2.0,1.0,6.0,6.0,964.4209499997488,3.0,1.0,phase_2,go,650.0,500.0,1.0,,,,,,,,,magenta,diamond
0.0,3.0,3.0,0.0,6.0,6.0,939.2275459999836,3.0,1.0,phase_2,go,650.0,500.0,1.0,,,,,,,,,gray,I
0.0,6.0,2.0,1.0,6.0,0.0,0.0,3.0,1.0,phase_2,stop,650.0,500.0,4.0,,,,,,,,,magenta,diamond
0.0,8.0,4.0,1.0,6.0,0.0,0.0,3.0,1.0,phase_2,stop,650.0,550.0,4.0,,,,,,,,,white,hexagon
0.0,8.0,4.0,1.0,5.0,5.0,758.1682169998203,3.0,1.0,phase_2,go,650.0,600.0,1.0,,,,,,,,,white,hexagon
0.0,3.0,3.0,0.0,5.0,5.0,779.1838430002826,3.0,1.0,phase_2,go,650.0,600.0,1.0,,,,,,,,,gray,I
0.0,6.0,2.0,1.0,5.0,5.0,873.1743469998037,3.0,1.0,phase_2,go,650.0,600.0,1.0,,,,,,,,,magenta,diamond
0.0,6.0,2.0,1.0,5.0,0.0,0.0,3.0,1.0,phase_2,stop,650.0,600.0,4.0,,,,,,,,,magenta,diamond
0.0,8.0,4.0,1.0,5.0,5.0,733.52873299973,3.0,1.0,phase_2,stop,700.0,600.0,3.0,,,,,,,,,white,hexagon
0.0,4.0,4.0,0.0,5.0,5.0,1011.3933749998978,3.0,1.0,phase_2,go,650.0,600.0,1.0,,,,,,,,,green,cross
0.0,1.0,1.0,0.0,6.0,6.0,1124.0495940000983,3.0,1.0,phase_2,go,650.0,600.0,1.0,,,,,,,,,yellow,flipped triangle
0.0,2.0,2.0,0.0,5.0,5.0,693.3777300000656,3.0,1.0,phase_2,go,650.0,600.0,1.0,,,,,,,,,orange,square
0.0,2.0,2.0,0.0,5.0,5.0,1126.9815890000243,3.0,1.0,phase_2,go,650.0,600.0,1.0,,,,,,,,,orange,square
0.0,6.0,2.0,1.0,5.0,0.0,0.0,3.0,1.0,phase_2,stop,650.0,600.0,4.0,,,,,,,,,magenta,diamond
0.0,1.0,1.0,0.0,5.0,5.0,542.682546999913,4.0,1.0,phase_2,go,700.0,600.0,1.0,,,,,,,,,yellow,flipped triangle
0.0,7.0,3.0,1.0,6.0,0.0,0.0,4.0,1.0,phase_2,stop,700.0,600.0,4.0,,,,,,,,,cyan,circle
0.0,8.0,4.0,1.0,6.0,0.0,0.0,4.0,1.0,phase_2,stop,700.0,650.0,4.0,,,,,,,,,white,hexagon
0.0,2.0,2.0,0.0,5.0,5.0,819.7893389997262,4.0,1.0,phase_2,go,700.0,700.0,1.0,,,,,,,,,orange,square
0.0,4.0,4.0,0.0,5.0,5.0,782.9752179995921,4.0,1.0,phase_2,go,700.0,700.0,1.0,,,,,,,,,green,cross
0.0,1.0,1.0,0.0,5.0,5.0,755.8955980002793,4.0,1.0,phase_2,go,700.0,700.0,1.0,,,,,,,,,yellow,flipped triangle
0.0,4.0,4.0,0.0,5.0,5.0,982.5171389998104,4.0,1.0,phase_2,go,700.0,700.0,1.0,,,,,,,,,green,cross
0.0,1.0,1.0,0.0,6.0,6.0,522.2707329999139,4.0,1.0,phase_2,go,700.0,700.0,1.0,,,,,,,,,yellow,flipped triangle
0.0,5.0,1.0,1.0,6.0,6.0,734.5874180000465,4.0,1.0,phase_2,stop,700.0,700.0,3.0,,,,,,,,,blue,triangle
0.0,3.0,3.0,0.0,6.0,6.0,592.7880450003613,4.0,1.0,phase_2,go,700.0,650.0,1.0,,,,,,,,,gray,I
0.0,1.0,1.0,0.0,5.0,5.0,520.2492349999375,4.0,1.0,phase_2,go,700.0,650.0,1.0,,,,,,,,,yellow,flipped triangle
0.0,5.0,1.0,1.0,6.0,6.0,509.4328210002459,4.0,1.0,phase_2,go,700.0,650.0,1.0,,,,,,,,,blue,triangle
0.0,4.0,4.0,0.0,5.0,5.0,605.3439040001649,4.0,1.0,phase_2,go,700.0,650.0,1.0,,,,,,,,,green,cross
0.0,2.0,2.0,0.0,6.0,6.0,472.1451360001083,4.0,1.0,phase_2,go,700.0,650.0,1.0,,,,,,,,,orange,square
0.0,3.0,3.0,0.0,5.0,5.0,452.4523529998987,4.0,1.0,phase_2,go,700.0,650.0,1.0,,,,,,,,,gray,I
0.0,2.0,2.0,0.0,5.0,5.0,429.1802410002674,4.0,1.0,phase_2,go,700.0,650.0,1.0,,,,,,,,,orange,square
0.0,2.0,2.0,0.0,5.0,5.0,377.768923000076,4.0,1.0,phase_2,go,700.0,650.0,1.0,,,,,,,,,orange,square
0.0,8.0,4.0,1.0,6.0,0.0,0.0,4.0,1.0,phase_2,stop,700.0,650.0,4.0,,,,,,,,,white,hexagon
0.0,1.0,1.0,0.0,5.0,5.0,483.7731509996956,4.0,1.0,phase_2,go,700.0,700.0,1.0,,,,,,,,,yellow,flipped triangle
0.0,3.0,3.0,0.0,6.0,6.0,793.4435410002152,4.0,1.0,phase_2,go,700.0,700.0,1.0,,,,,,,,,gray,I
0.0,4.0,4.0,0.0,6.0,6.0,930.0923689997944,4.0,1.0,phase_2,go,700.0,700.0,1.0,,,,,,,,,green,cross
0.0,1.0,1.0,0.0,5.0,5.0,727.057674000207,4.0,1.0,phase_2,go,700.0,700.0,1.0,,,,,,,,,yellow,flipped triangle
0.0,8.0,4.0,1.0,5.0,5.0,612.5033899998016,4.0,1.0,phase_2,go,700.0,700.0,1.0,,,,,,,,,white,hexagon
0.0,8.0,4.0,1.0,5.0,5.0,784.6349699998427,4.0,1.0,phase_2,stop,700.0,700.0,3.0,,,,,,,,,white,hexagon
0.0,3.0,3.0,0.0,6.0,6.0,912.3940599997696,4.0,1.0,phase_2,go,650.0,700.0,1.0,,,,,,,,,gray,I
0.0,3.0,3.0,0.0,5.0,5.0,811.8017669999062,4.0,1.0,phase_2,go,650.0,700.0,1.0,,,,,,,,,gray,I
0.0,7.0,3.0,1.0,6.0,0.0,0.0,4.0,1.0,phase_2,stop,650.0,700.0,4.0,,,,,,,,,cyan,circle
0.0,6.0,2.0,1.0,6.0,0.0,0.0,4.0,1.0,phase_2,stop,650.0,750.0,4.0,,,,,,,,,magenta,diamond
0.0,5.0,1.0,1.0,6.0,0.0,0.0,4.0,1.0,phase_2,stop,650.0,800.0,4.0,,,,,,,,,blue,triangle
0.0,2.0,2.0,0.0,6.0,6.0,967.2136159997536,4.0,1.0,phase_2,go,650.0,850.0,1.0,,,,,,,,,orange,square
0.0,3.0,3.0,0.0,5.0,5.0,902.309717999742,4.0,1.0,phase_2,go,650.0,850.0,1.0,,,,,,,,,gray,I
0.0,1.0,1.0,0.0,5.0,5.0,435.0430569998025,4.0,1.0,phase_2,go,650.0,850.0,1.0,,,,,,,,,yellow,flipped triangle
0.0,2.0,2.0,0.0,5.0,5.0,1039.6710260001782,4.0,1.0,phase_2,go,650.0,850.0,1.0,,,,,,,,,orange,square
0.0,8.0,4.0,1.0,5.0,0.0,0.0,4.0,1.0,phase_2,stop,650.0,850.0,4.0,,,,,,,,,white,hexagon
0.0,8.0,4.0,1.0,6.0,0.0,0.0,4.0,1.0,phase_2,stop,700.0,850.0,4.0,,,,,,,,,white,hexagon
0.0,1.0,1.0,0.0,6.0,6.0,1018.0595319998249,4.0,1.0,phase_2,go,700.0,900.0,1.0,,,,,,,,,yellow,flipped triangle
0.0,7.0,3.0,1.0,6.0,6.0,486.7220690002796,5.0,1.0,phase_2,stop,700.0,900.0,3.0,,,,,,,,,cyan,circle
0.0,2.0,2.0,0.0,5.0,5.0,717.3738389997197,5.0,1.0,phase_2,go,700.0,850.0,1.0,,,,,,,,,orange,square
0.0,7.0,3.0,1.0,6.0,6.0,746.1063729997477,5.0,1.0,phase_2,stop,700.0,850.0,3.0,,,,,,,,,cyan,circle
0.0,3.0,3.0,0.0,6.0,6.0,664.1662780002662,5.0,1.0,phase_2,go,700.0,800.0,1.0,,,,,,,,,gray,I
0.0,6.0,2.0,1.0,6.0,0.0,0.0,5.0,1.0,phase_2,stop,700.0,800.0,4.0,,,,,,,,,magenta,diamond
0.0,5.0,1.0,1.0,6.0,6.0,806.0396849996323,5.0,1.0,phase_2,stop,700.0,850.0,3.0,,,,,,,,,blue,triangle
0.0,2.0,2.0,0.0,6.0,0.0,0.0,5.0,1.0,phase_2,go,700.0,800.0,5.0,,,,,,,,,orange,square
0.0,3.0,3.0,0.0,6.0,6.0,839.0465249999579,5.0,1.0,phase_2,go,700.0,800.0,1.0,,,,,,,,,gray,I
0.0,7.0,3.0,1.0,6.0,6.0,519.919236000078,5.0,1.0,phase_2,stop,700.0,800.0,3.0,,,,,,,,,cyan,circle
0.0,4.0,4.0,0.0,5.0,5.0,583.8314699999501,5.0,1.0,phase_2,go,700.0,750.0,1.0,,,,,,,,,green,cross
0.0,4.0,4.0,0.0,6.0,6.0,1055.0831440000366,5.0,1.0,phase_2,go,700.0,750.0,1.0,,,,,,,,,green,cross
0.0,7.0,3.0,1.0,5.0,5.0,841.8871630001377,5.0,1.0,phase_2,stop,700.0,750.0,3.0,,,,,,,,,cyan,circle
0.0,6.0,2.0,1.0,6.0,0.0,0.0,5.0,1.0,phase_2,stop,650.0,750.0,4.0,,,,,,,,,magenta,diamond
0.0,5.0,1.0,1.0,5.0,0.0,0.0,5.0,1.0,phase_2,stop,650.0,800.0,4.0,,,,,,,,,blue,triangle
0.0,4.0,4.0,0.0,5.0,5.0,857.1063389999836,5.0,1.0,phase_2,go,700.0,800.0,1.0,,,,,,,,,green,cross
0.0,8.0,4.0,1.0,6.0,0.0,0.0,5.0,1.0,phase_2,stop,700.0,800.0,4.0,,,,,,,,,white,hexagon
0.0,4.0,4.0,0.0,5.0,5.0,967.5352369999928,5.0,1.0,phase_2,go,700.0,850.0,1.0,,,,,,,,,green,cross
0.0,6.0,2.0,1.0,5.0,0.0,0.0,5.0,1.0,phase_2,stop,700.0,850.0,4.0,,,,,,,,,magenta,diamond
0.0,8.0,4.0,1.0,6.0,0.0,0.0,5.0,1.0,phase_2,stop,750.0,850.0,4.0,,,,,,,,,white,hexagon
0.0,6.0,2.0,1.0,6.0,0.0,0.0,5.0,1.0,phase_2,stop,750.0,900.0,4.0,,,,,,,,,magenta,diamond
0.0,2.0,2.0,0.0,6.0,6.0,1224.6788369998285,5.0,1.0,phase_2,go,750.0,950.0,1.0,,,,,,,,,orange,square
0.0,1.0,1.0,0.0,5.0,5.0,876.4735750000909,5.0,1.0,phase_2,go,750.0,950.0,1.0,,,,,,,,,yellow,flipped triangle
0.0,7.0,3.0,1.0,5.0,5.0,721.5329989999191,5.0,1.0,phase_2,stop,750.0,950.0,3.0,,,,,,,,,cyan,circle
0.0,1.0,1.0,0.0,6.0,6.0,1131.9633490002159,5.0,1.0,phase_2,go,700.0,950.0,1.0,,,,,,,,,yellow,flipped triangle
0.0,3.0,3.0,0.0,6.0,6.0,763.8458240003274,5.0,1.0,phase_2,go,700.0,950.0,1.0,,,,,,,,,gray,I
0.0,5.0,1.0,1.0,6.0,0.0,0.0,5.0,1.0,phase_2,stop,700.0,950.0,4.0,,,,,,,,,blue,triangle
0.0,5.0,1.0,1.0,5.0,0.0,0.0,5.0,1.0,phase_2,stop,700.0,1000.0,4.0,,,,,,,,,blue,triangle
0.0,8.0,4.0,1.0,6.0,0.0,0.0,5.0,1.0,phase_2,stop,750.0,1000.0,4.0,,,,,,,,,white,hexagon
0.0,3.0,3.0,0.0,5.0,5.0,1335.3358959998332,5.0,1.0,phase_2,go,750.0,1050.0,1.0,,,,,,,,,gray,I
0.0,2.0,2.0,0.0,6.0,6.0,1153.569485999924,5.0,1.0,phase_2,go,750.0,1050.0,1.0,,,,,,,,,orange,square
0.0,4.0,4.0,0.0,6.0,6.0,1200.1827819999562,5.0,1.0,phase_2,go,750.0,1050.0,1.0,,,,,,,,,green,cross
0.0,4.0,4.0,0.0,5.0,5.0,1232.5925290001578,5.0,1.0,phase_2,go,750.0,1050.0,1.0,,,,,,,,,green,cross
0.0,5.0,1.0,1.0,5.0,0.0,0.0,5.0,1.0,phase_2,stop,750.0,1050.0,4.0,,,,,,,,,blue,triangle
0.0,2.0,2.0,0.0,5.0,0.0,0.0,5.0,1.0,phase_2,go,800.0,1050.0,5.0,,,,,,,,,orange,square
0.0,8.0,4.0,1.0,6.0,6.0,529.0251090000311,5.0,1.0,phase_2,stop,800.0,1050.0,3.0,,,,,,,,,white,hexagon
0.0,6.0,2.0,1.0,6.0,0.0,0.0,5.0,1.0,phase_2,stop,800.0,1000.0,4.0,,,,,,,,,magenta,diamond
0.0,6.0,2.0,1.0,6.0,6.0,622.7873069997258,6.0,1.0,phase_2,stop,800.0,1050.0,3.0,,,,,,,,,magenta,diamond
0.0,3.0,3.0,0.0,5.0,5.0,452.883921999728,6.0,1.0,phase_2,go,800.0,1000.0,1.0,,,,,,,,,gray,I
0.0,1.0,1.0,0.0,5.0,5.0,1048.0483040000763,6.0,1.0,phase_2,go,800.0,1000.0,1.0,,,,,,,,,yellow,flipped triangle
0.0,4.0,4.0,0.0,6.0,6.0,1027.849956999944,6.0,1.0,phase_2,go,800.0,1000.0,1.0,,,,,,,,,green,cross
0.0,5.0,1.0,1.0,5.0,5.0,771.4799269997457,6.0,1.0,phase_2,stop,800.0,1000.0,3.0,,,,,,,,,blue,triangle
0.0,3.0,3.0,0.0,6.0,6.0,855.5043790001946,6.0,1.0,phase_2,go,750.0,1000.0,1.0,,,,,,,,,gray,I
0.0,7.0,3.0,1.0,6.0,6.0,1121.1157349998755,6.0,1.0,phase_2,stop,750.0,1000.0,3.0,,,,,,,,,cyan,circle
0.0,7.0,3.0,1.0,6.0,6.0,1065.746806000334,6.0,1.0,phase_2,stop,750.0,950.0,3.0,,,,,,,,,cyan,circle
0.0,3.0,3.0,0.0,5.0,5.0,994.4317580002462,6.0,1.0,phase_2,go,750.0,900.0,1.0,,,,,,,,,gray,I
0.0,5.0,1.0,1.0,6.0,6.0,890.9844959998736,6.0,1.0,phase_2,go,750.0,900.0,1.0,,,,,,,,,blue,triangle
0.0,5.0,1.0,1.0,5.0,5.0,803.6237290002646,6.0,1.0,phase_2,stop,750.0,900.0,3.0,,,,,,,,,blue,triangle
0.0,1.0,1.0,0.0,6.0,6.0,1101.53534400024,6.0,1.0,phase_2,go,700.0,900.0,1.0,,,,,,,,,yellow,flipped triangle
0.0,8.0,4.0,1.0,6.0,0.0,0.0,6.0,1.0,phase_2,stop,700.0,900.0,4.0,,,,,,,,,white,hexagon
0.0,7.0,3.0,1.0,5.0,5.0,1378.2066959997792,6.0,1.0,phase_2,go,700.0,950.0,1.0,,,,,,,,,cyan,circle
0.0,8.0,4.0,1.0,5.0,5.0,1238.3312710003338,6.0,1.0,phase_2,go,700.0,950.0,1.0,,,,,,,,,white,hexagon
0.0,3.0,3.0,0.0,5.0,5.0,776.4871569997922,6.0,1.0,phase_2,go,700.0,950.0,1.0,,,,,,,,,gray,I
0.0,1.0,1.0,0.0,5.0,5.0,1059.695636000015,6.0,1.0,phase_2,go,700.0,950.0,1.0,,,,,,,,,yellow,flipped triangle
0.0,8.0,4.0,1.0,5.0,0.0,0.0,6.0,1.0,phase_2,stop,700.0,950.0,4.0,,,,,,,,,white,hexagon
0.0,3.0,3.0,0.0,5.0,5.0,1253.5267500002192,6.0,1.0,phase_2,go,750.0,950.0,1.0,,,,,,,,,gray,I
0.0,6.0,2.0,1.0,5.0,5.0,904.5141160004276,6.0,1.0,phase_2,stop,750.0,950.0,3.0,,,,,,,,,magenta,diamond
0.0,1.0,1.0,0.0,6.0,6.0,944.3901489999008,6.0,1.0,phase_2,go,700.0,950.0,1.0,,,,,,,,,yellow,flipped triangle
0.0,3.0,3.0,0.0,5.0,5.0,906.0586129999136,6.0,1.0,phase_2,go,700.0,950.0,1.0,,,,,,,,,gray,I
0.0,3.0,3.0,0.0,5.0,5.0,976.985392000188,6.0,1.0,phase_2,go,700.0,950.0,1.0,,,,,,,,,gray,I
0.0,2.0,2.0,0.0,5.0,5.0,938.96488900009,6.0,1.0,phase_2,go,700.0,950.0,1.0,,,,,,,,,orange,square
0.0,7.0,3.0,1.0,6.0,6.0,989.2708400002448,6.0,1.0,phase_2,stop,700.0,950.0,3.0,,,,,,,,,cyan,circle
0.0,4.0,4.0,0.0,6.0,6.0,1109.4926820001092,6.0,1.0,phase_2,go,700.0,900.0,1.0,,,,,,,,,green,cross
0.0,2.0,2.0,0.0,6.0,6.0,1232.378716000312,6.0,1.0,phase_2,go,700.0,900.0,1.0,,,,,,,,,orange,square
0.0,4.0,4.0,0.0,5.0,5.0,787.2503220000908,6.0,1.0,phase_2,go,700.0,900.0,1.0,,,,,,,,,green,cross
0.0,5.0,1.0,1.0,6.0,6.0,595.2034010001626,6.0,1.0,phase_2,stop,700.0,900.0,3.0,,,,,,,,,blue,triangle
0.0,3.0,3.0,0.0,6.0,6.0,1090.7329149999896,6.0,1.0,phase_2,go,700.0,850.0,1.0,,,,,,,,,gray,I
0.0,6.0,2.0,1.0,5.0,0.0,0.0,6.0,1.0,phase_2,stop,700.0,850.0,4.0,,,,,,,,,magenta,diamond
0.0,7.0,3.0,1.0,6.0,0.0,0.0,6.0,1.0,phase_2,stop,750.0,850.0,4.0,,,,,,,,,cyan,circle
0.0,5.0,1.0,1.0,6.0,0.0,0.0,6.0,1.0,phase_2,stop,750.0,900.0,4.0,,,,,,,,,blue,triangle
0.0,2.0,2.0,0.0,6.0,6.0,1442.1192840000003,6.0,1.0,phase_2,go,750.0,950.0,1.0,,,,,,,,,orange,square
0.0,3.0,3.0,0.0,5.0,0.0,0.0,6.0,1.0,phase_2,go,750.0,950.0,5.0,,,,,,,,,gray,I
0.0,3.0,3.0,0.0,5.0,5.0,620.0303420000637,6.0,1.0,phase_2,go,750.0,950.0,1.0,,,,,,,,,gray,I
0.0,6.0,2.0,1.0,6.0,6.0,849.079047000032,7.0,1.0,phase_2,stop,750.0,950.0,3.0,,,,,,,,,magenta,diamond
0.0,7.0,3.0,1.0,5.0,0.0,0.0,7.0,1.0,phase_2,stop,750.0,900.0,4.0,,,,,,,,,cyan,circle
0.0,6.0,2.0,1.0,6.0,6.0,1146.5875620001498,7.0,1.0,phase_2,go,800.0,900.0,1.0,,,,,,,,,magenta,diamond
0.0,7.0,3.0,1.0,5.0,5.0,478.3234670003367,7.0,1.0,phase_2,go,800.0,900.0,1.0,,,,,,,,,cyan,circle
0.0,7.0,3.0,1.0,5.0,5.0,399.3621509998775,7.0,1.0,phase_2,go,800.0,900.0,1.0,,,,,,,,,cyan,circle
0.0,1.0,1.0,0.0,6.0,6.0,622.1658419999585,7.0,1.0,phase_2,go,800.0,900.0,1.0,,,,,,,,,yellow,flipped triangle
0.0,7.0,3.0,1.0,6.0,6.0,517.068339999696,7.0,1.0,phase_2,stop,800.0,900.0,3.0,,,,,,,,,cyan,circle
0.0,7.0,3.0,1.0,6.0,6.0,499.9835080002413,7.0,1.0,phase_2,stop,800.0,850.0,3.0,,,,,,,,,cyan,circle
0.0,2.0,2.0,0.0,5.0,5.0,600.6389869999111,7.0,1.0,phase_2,go,800.0,800.0,1.0,,,,,,,,,orange,square
0.0,1.0,1.0,0.0,5.0,5.0,639.8995079998713,7.0,1.0,phase_2,go,800.0,800.0,1.0,,,,,,,,,yellow,flipped triangle
0.0,5.0,1.0,1.0,5.0,0.0,0.0,7.0,1.0,phase_2,stop,800.0,800.0,4.0,,,,,,,,,blue,triangle
0.0,1.0,1.0,0.0,6.0,6.0,764.946683999824,7.0,1.0,phase_2,go,850.0,800.0,1.0,,,,,,,,,yellow,flipped triangle
0.0,2.0,2.0,0.0,5.0,5.0,948.8196420002168,7.0,1.0,phase_2,go,850.0,800.0,1.0,,,,,,,,,orange,square
0.0,8.0,4.0,1.0,6.0,0.0,0.0,7.0,1.0,phase_2,stop,850.0,800.0,4.0,,,,,,,,,white,hexagon
0.0,7.0,3.0,1.0,5.0,5.0,664.4563350000681,7.0,1.0,phase_2,stop,850.0,850.0,3.0,,,,,,,,,cyan,circle
0.0,4.0,4.0,0.0,6.0,6.0,798.4990560003098,7.0,1.0,phase_2,go,800.0,850.0,1.0,,,,,,,,,green,cross
0.0,6.0,2.0,1.0,5.0,0.0,0.0,7.0,1.0,phase_2,stop,800.0,850.0,4.0,,,,,,,,,magenta,diamond
0.0,1.0,1.0,0.0,6.0,6.0,658.7822750002488,7.0,1.0,phase_2,go,850.0,850.0,1.0,,,,,,,,,yellow,flipped triangle
0.0,2.0,2.0,0.0,6.0,6.0,594.0335029999915,7.0,1.0,phase_2,go,850.0,850.0,1.0,,,,,,,,,orange,square
0.0,5.0,1.0,1.0,5.0,5.0,596.1048059998575,7.0,1.0,phase_2,stop,850.0,850.0,3.0,,,,,,,,,blue,triangle
0.0,8.0,4.0,1.0,5.0,0.0,0.0,7.0,1.0,phase_2,stop,800.0,850.0,4.0,,,,,,,,,white,hexagon
0.0,8.0,4.0,1.0,5.0,0.0,0.0,7.0,1.0,phase_2,stop,850.0,850.0,4.0,,,,,,,,,white,hexagon
0.0,1.0,1.0,0.0,5.0,5.0,845.5235050000738,7.0,1.0,phase_2,go,900.0,850.0,1.0,,,,,,,,,yellow,flipped triangle
0.0,3.0,3.0,0.0,6.0,6.0,609.2367630003537,7.0,1.0,phase_2,go,900.0,850.0,1.0,,,,,,,,,gray,I
0.0,8.0,4.0,1.0,5.0,0.0,0.0,7.0,1.0,phase_2,stop,900.0,850.0,4.0,,,,,,,,,white,hexagon
0.0,4.0,4.0,0.0,6.0,6.0,1496.5427780002756,7.0,1.0,phase_2,go,950.0,850.0,1.0,,,,,,,,,green,cross
0.0,5.0,1.0,1.0,5.0,5.0,790.988164999817,7.0,1.0,phase_2,stop,950.0,850.0,3.0,,,,,,,,,blue,triangle
0.0,5.0,1.0,1.0,6.0,0.0,0.0,7.0,1.0,phase_2,stop,900.0,850.0,4.0,,,,,,,,,blue,triangle
0.0,6.0,2.0,1.0,5.0,5.0,815.4374490000009,7.0,1.0,phase_2,stop,900.0,900.0,3.0,,,,,,,,,magenta,diamond
0.0,3.0,3.0,0.0,6.0,6.0,690.2831509996759,7.0,1.0,phase_2,go,850.0,900.0,1.0,,,,,,,,,gray,I
0.0,6.0,2.0,1.0,6.0,6.0,1398.1068769999183,7.0,1.0,phase_2,go,850.0,900.0,1.0,,,,,,,,,magenta,diamond
0.0,5.0,1.0,1.0,5.0,5.0,835.1203769998392,7.0,1.0,phase_2,stop,850.0,900.0,3.0,,,,,,,,,blue,triangle
0.0,8.0,4.0,1.0,5.0,0.0,0.0,7.0,1.0,phase_2,stop,800.0,900.0,4.0,,,,,,,,,white,hexagon
0.0,1.0,1.0,0.0,6.0,6.0,651.181188999999,7.0,1.0,phase_2,go,850.0,900.0,1.0,,,,,,,,,yellow,flipped triangle
0.0,1.0,1.0,0.0,6.0,6.0,483.9854060001016,7.0,1.0,phase_2,go,850.0,900.0,1.0,,,,,,,,,yellow,flipped triangle
0.0,8.0,4.0,1.0,6.0,0.0,0.0,7.0,1.0,phase_2,stop,850.0,900.0,4.0,,,,,,,,,white,hexagon
0.0,8.0,4.0,1.0,6.0,0.0,0.0,8.0,1.0,phase_2,stop,850.0,950.0,4.0,,,,,,,,,white,hexagon
0.0,5.0,1.0,1.0,6.0,6.0,811.93035699971,8.0,1.0,phase_2,stop,850.0,1000.0,3.0,,,,,,,,,blue,triangle
0.0,3.0,3.0,0.0,6.0,6.0,583.3457080002518,8.0,1.0,phase_2,go,850.0,950.0,1.0,,,,,,,,,gray,I
0.0,2.0,2.0,0.0,6.0,6.0,825.2322089997506,8.0,1.0,phase_2,go,850.0,950.0,1.0,,,,,,,,,orange,square
0.0,8.0,4.0,1.0,6.0,6.0,1494.4477480003115,8.0,1.0,phase_2,go,850.0,950.0,1.0,,,,,,,,,white,hexagon
0.0,2.0,2.0,0.0,6.0,6.0,883.5325959998954,8.0,1.0,phase_2,go,850.0,950.0,1.0,,,,,,,,,orange,square
0.0,2.0,2.0,0.0,5.0,5.0,787.7641320001203,8.0,1.0,phase_2,go,850.0,950.0,1.0,,,,,,,,,orange,square
0.0,8.0,4.0,1.0,6.0,6.0,1005.7249669998782,8.0,1.0,phase_2,go,850.0,950.0,1.0,,,,,,,,,white,hexagon
0.0,4.0,4.0,0.0,5.0,5.0,769.2776910002976,8.0,1.0,phase_2,go,850.0,950.0,1.0,,,,,,,,,green,cross
0.0,6.0,2.0,1.0,5.0,5.0,599.9438849999024,8.0,1.0,phase_2,stop,850.0,950.0,3.0,,,,,,,,,magenta,diamond
0.0,4.0,4.0,0.0,6.0,6.0,922.6781940001274,8.0,1.0,phase_2,go,800.0,950.0,1.0,,,,,,,,,green,cross
0.0,6.0,2.0,1.0,5.0,5.0,1327.6565179999125,8.0,1.0,phase_2,go,800.0,950.0,1.0,,,,,,,,,magenta,diamond
0.0,4.0,4.0,0.0,5.0,5.0,799.9684050000724,8.0,1.0,phase_2,go,800.0,950.0,1.0,,,,,,,,,green,cross
0.0,2.0,2.0,0.0,6.0,6.0,812.7097049996337,8.0,1.0,phase_2,go,800.0,950.0,1.0,,,,,,,,,orange,square
0.0,8.0,4.0,1.0,5.0,0.0,0.0,8.0,1.0,phase_2,stop,800.0,950.0,4.0,,,,,,,,,white,hexagon
0.0,2.0,2.0,0.0,6.0,0.0,0.0,8.0,1.0,phase_2,go,850.0,950.0,5.0,,,,,,,,,orange,square
0.0,6.0,2.0,1.0,6.0,0.0,0.0,8.0,1.0,phase_2,stop,850.0,950.0,4.0,,,,,,,,,magenta,diamond
0.0,4.0,4.0,0.0,6.0,6.0,900.4896920000647,8.0,1.0,phase_2,go,850.0,1000.0,1.0,,,,,,,,,green,cross
0.0,6.0,2.0,1.0,6.0,6.0,1265.9812849997252,8.0,1.0,phase_2,go,850.0,1000.0,1.0,,,,,,,,,magenta,diamond
0.0,5.0,1.0,1.0,6.0,6.0,661.4226889996644,8.0,1.0,phase_2,stop,850.0,1000.0,3.0,,,,,,,,,blue,triangle
0.0,7.0,3.0,1.0,5.0,5.0,771.7606080000223,8.0,1.0,phase_2,stop,850.0,950.0,3.0,,,,,,,,,cyan,circle
0.0,6.0,2.0,1.0,6.0,6.0,864.9976349997814,8.0,1.0,phase_2,go,800.0,950.0,1.0,,,,,,,,,magenta,diamond
0.0,3.0,3.0,0.0,6.0,6.0,529.4480499997007,8.0,1.0,phase_2,go,800.0,950.0,1.0,,,,,,,,,gray,I
0.0,2.0,2.0,0.0,6.0,6.0,860.2806359999704,8.0,1.0,phase_2,go,800.0,950.0,1.0,,,,,,,,,orange,square
0.0,7.0,3.0,1.0,6.0,6.0,587.4449970001479,8.0,1.0,phase_2,stop,800.0,950.0,3.0,,,,,,,,,cyan,circle
0.0,5.0,1.0,1.0,6.0,6.0,725.6865579997793,8.0,1.0,phase_2,stop,800.0,900.0,3.0,,,,,,,,,blue,triangle
0.0,4.0,4.0,0.0,5.0,5.0,781.9918479999615,8.0,1.0,phase_2,go,800.0,850.0,1.0,,,,,,,,,green,cross
0.0,4.0,4.0,0.0,5.0,5.0,566.9531970002026,8.0,1.0,phase_2,go,800.0,850.0,1.0,,,,,,,,,green,cross
0.0,2.0,2.0,0.0,6.0,6.0,619.3684390000271,8.0,1.0,phase_2,go,800.0,850.0,1.0,,,,,,,,,orange,square
0.0,3.0,3.0,0.0,5.0,5.0,621.8736319997333,8.0,1.0,phase_2,go,800.0,850.0,1.0,,,,,,,,,gray,I
0.0,6.0,2.0,1.0,6.0,6.0,651.3742209999691,8.0,1.0,phase_2,go,800.0,850.0,1.0,,,,,,,,,magenta,diamond
0.0,6.0,2.0,1.0,5.0,5.0,578.7819659999514,8.0,1.0,phase_2,stop,800.0,850.0,3.0,,,,,,,,,magenta,diamond
0.0,2.0,2.0,0.0,5.0,5.0,598.722577999979,8.0,1.0,phase_2,go,750.0,850.0,1.0,,,,,,,,,orange,square
0.0,5.0,1.0,1.0,6.0,6.0,667.8107109996745,8.0,1.0,phase_2,stop,750.0,850.0,3.0,,,,,,,,,blue,triangle
0.0,2.0,2.0,0.0,6.0,6.0,714.3296780000128,8.0,1.0,phase_2,go,750.0,800.0,1.0,,,,,,,,,orange,square
0.0,5.0,1.0,1.0,5.0,5.0,850.1757809999617,8.0,1.0,phase_2,stop,750.0,800.0,3.0,,,,,,,,,blue,triangle
0.0,3.0,3.0,0.0,7.0,2.0,2327.8777919995264,1.0,1.0,phase_3,,,,,170.0,5.0,102.0,170.0,204.0,136.0,68.0,34.0,gray,I
0.0,1.0,1.0,0.0,7.0,1.0,2183.54182999974,1.0,1.0,phase_3,,,,,44.0,1.0,44.0,176.0,132.0,88.0,264.0,220.0,yellow,flipped triangle
0.0,2.0,2.0,0.0,7.0,6.0,2251.4664249993075,1.0,1.0,phase_3,,,,,132.0,3.0,220.0,176.0,88.0,264.0,44.0,132.0,orange,square
0.0,1.0,1.0,0.0,7.0,5.0,1525.727006000125,1.0,1.0,phase_3,,,,,49.0,1.0,245.0,98.0,147.0,196.0,49.0,294.0,yellow,flipped triangle
0.0,1.0,1.0,0.0,7.0,1.0,944.3564299999708,1.0,1.0,phase_3,,,,,54.0,1.0,54.0,108.0,270.0,324.0,216.0,162.0,yellow,flipped triangle
0.0,4.0,4.0,0.0,7.0,5.0,2383.742259000428,1.0,1.0,phase_3,,,,,132.0,3.0,176.0,88.0,220.0,264.0,132.0,44.0,green,cross
0.0,5.0,1.0,1.0,7.0,4.0,1876.614198000425,1.0,1.0,phase_3,,,,,196.0,4.0,49.0,98.0,294.0,196.0,245.0,147.0,blue,triangle
0.0,6.0,2.0,1.0,7.0,5.0,2170.976123999935,1.0,1.0,phase_3,,,,,162.0,3.0,216.0,54.0,108.0,324.0,162.0,270.0,magenta,diamond
0.0,7.0,3.0,1.0,7.0,6.0,2505.7453300005363,1.0,1.0,phase_3,,,,,170.0,5.0,68.0,136.0,102.0,34.0,204.0,170.0,cyan,circle
0.0,8.0,4.0,1.0,7.0,5.0,3719.926555999336,1.0,1.0,phase_3,,,,,216.0,4.0,108.0,54.0,270.0,324.0,216.0,162.0,white,hexagon
0.0,1.0,1.0,0.0,7.0,2.0,2264.832002999356,1.0,1.0,phase_3,,,,,156.0,4.0,234.0,156.0,195.0,117.0,78.0,39.0,yellow,flipped triangle
0.0,5.0,1.0,1.0,7.0,1.0,1395.990365000216,1.0,1.0,phase_3,,,,,176.0,4.0,176.0,132.0,44.0,264.0,88.0,220.0,blue,triangle
0.0,4.0,4.0,0.0,7.0,1.0,1398.8429890005136,1.0,1.0,phase_3,,,,,102.0,3.0,102.0,170.0,204.0,34.0,68.0,136.0,green,cross
0.0,8.0,4.0,1.0,7.0,5.0,4222.670113999811,1.0,1.0,phase_3,,,,,195.0,5.0,156.0,117.0,39.0,234.0,195.0,78.0,white,hexagon
0.0,1.0,1.0,0.0,7.0,3.0,1620.5794810002772,1.0,1.0,phase_3,,,,,98.0,2.0,49.0,196.0,98.0,147.0,294.0,245.0,yellow,flipped triangle
0.0,6.0,2.0,1.0,7.0,2.0,2922.448543000428,1.0,1.0,phase_3,,,,,78.0,2.0,234.0,78.0,117.0,195.0,39.0,156.0,magenta,diamond
0.0,4.0,4.0,0.0,7.0,3.0,3514.984005999395,1.0,1.0,phase_3,,,,,196.0,4.0,98.0,294.0,196.0,147.0,245.0,49.0,green,cross
0.0,2.0,2.0,0.0,7.0,2.0,1836.2217719995897,1.0,1.0,phase_3,,,,,108.0,2.0,324.0,108.0,270.0,216.0,162.0,54.0,orange,square
0.0,7.0,3.0,1.0,7.0,2.0,1833.3649289997995,1.0,1.0,phase_3,,,,,54.0,1.0,270.0,54.0,108.0,162.0,324.0,216.0,cyan,circle
0.0,8.0,4.0,1.0,7.0,3.0,3147.356036999554,1.0,1.0,phase_3,,,,,245.0,5.0,147.0,98.0,245.0,196.0,294.0,49.0,white,hexagon
0.0,8.0,4.0,1.0,7.0,2.0,1690.7577189995209,2.0,1.0,phase_3,,,,,264.0,6.0,44.0,264.0,88.0,220.0,176.0,132.0,white,hexagon
0.0,6.0,2.0,1.0,7.0,4.0,1483.3283960006156,2.0,1.0,phase_3,,,,,98.0,2.0,196.0,294.0,49.0,98.0,147.0,245.0,magenta,diamond
0.0,8.0,4.0,1.0,7.0,3.0,3713.4339990006993,2.0,1.0,phase_3,,,,,176.0,4.0,132.0,44.0,176.0,264.0,220.0,88.0,white,hexagon
0.0,2.0,2.0,0.0,7.0,6.0,874.5755229992938,2.0,1.0,phase_3,,,,,102.0,3.0,34.0,204.0,170.0,136.0,68.0,102.0,orange,square
0.0,6.0,2.0,1.0,7.0,1.0,1441.8880470002478,2.0,1.0,phase_3,,,,,170.0,5.0,170.0,68.0,136.0,204.0,102.0,34.0,magenta,diamond
0.0,1.0,1.0,0.0,7.0,2.0,1876.2424919996192,2.0,1.0,phase_3,,,,,34.0,1.0,136.0,34.0,68.0,170.0,204.0,102.0,yellow,flipped triangle
0.0,5.0,1.0,1.0,7.0,4.0,1253.0465690006167,2.0,1.0,phase_3,,,,,44.0,1.0,132.0,88.0,264.0,44.0,176.0,220.0,blue,triangle
0.0,8.0,4.0,1.0,7.0,4.0,3459.638536000057,2.0,1.0,phase_3,,,,,270.0,5.0,54.0,108.0,162.0,270.0,216.0,324.0,white,hexagon
0.0,6.0,2.0,1.0,7.0,5.0,2964.162477999708,2.0,1.0,phase_3,,,,,216.0,4.0,324.0,54.0,270.0,108.0,216.0,162.0,magenta,diamond
0.0,4.0,4.0,0.0,7.0,5.0,1185.1587520004614,2.0,1.0,phase_3,,,,,204.0,6.0,136.0,34.0,68.0,102.0,204.0,170.0,green,cross
0.0,6.0,2.0,1.0,7.0,2.0,776.6044410000177,2.0,1.0,phase_3,,,,,234.0,6.0,39.0,234.0,117.0,156.0,78.0,195.0,magenta,diamond
0.0,5.0,1.0,1.0,7.0,4.0,1605.510403000153,2.0,1.0,phase_3,,,,,102.0,3.0,170.0,68.0,136.0,102.0,204.0,34.0,blue,triangle
0.0,5.0,1.0,1.0,7.0,2.0,1550.0850210000865,2.0,1.0,phase_3,,,,,108.0,2.0,270.0,108.0,216.0,162.0,324.0,54.0,blue,triangle
0.0,7.0,3.0,1.0,7.0,6.0,1447.1346760001325,2.0,1.0,phase_3,,,,,98.0,2.0,49.0,147.0,245.0,196.0,294.0,98.0,cyan,circle
0.0,1.0,1.0,0.0,7.0,2.0,799.1369169994869,2.0,1.0,phase_3,,,,,44.0,1.0,220.0,44.0,88.0,264.0,132.0,176.0,yellow,flipped triangle
0.0,3.0,3.0,0.0,7.0,5.0,1464.5797799994398,2.0,1.0,phase_3,,,,,117.0,3.0,39.0,78.0,234.0,156.0,117.0,195.0,gray,I
0.0,8.0,4.0,1.0,7.0,5.0,1657.7397439996275,2.0,1.0,phase_3,,,,,195.0,5.0,156.0,117.0,234.0,39.0,195.0,78.0,white,hexagon
0.0,1.0,1.0,0.0,7.0,2.0,570.4359209994436,2.0,1.0,phase_3,,,,,117.0,3.0,39.0,117.0,234.0,195.0,78.0,156.0,yellow,flipped triangle
0.0,5.0,1.0,1.0,7.0,1.0,1599.1828209998855,2.0,1.0,phase_3,,,,,78.0,2.0,78.0,195.0,156.0,117.0,234.0,39.0,blue,triangle
0.0,8.0,4.0,1.0,7.0,1.0,957.57335899998,2.0,1.0,phase_3,,,,,294.0,6.0,294.0,196.0,147.0,49.0,98.0,245.0,white,hexagon
0.0,4.0,4.0,0.0,7.0,5.0,967.7371030002178,3.0,1.0,phase_3,,,,,196.0,4.0,294.0,98.0,49.0,147.0,196.0,245.0,green,cross
0.0,4.0,4.0,0.0,7.0,2.0,965.5588199993872,3.0,1.0,phase_3,,,,,176.0,4.0,88.0,176.0,220.0,132.0,44.0,264.0,green,cross
0.0,3.0,3.0,0.0,7.0,6.0,1146.8355269998938,3.0,1.0,phase_3,,,,,196.0,4.0,245.0,98.0,49.0,147.0,294.0,196.0,gray,I
0.0,1.0,1.0,0.0,7.0,1.0,1173.816552000062,3.0,1.0,phase_3,,,,,68.0,2.0,68.0,204.0,34.0,170.0,102.0,136.0,yellow,flipped triangle
0.0,7.0,3.0,1.0,7.0,1.0,993.6099569995348,3.0,1.0,phase_3,,,,,136.0,4.0,136.0,170.0,204.0,34.0,102.0,68.0,cyan,circle
0.0,5.0,1.0,1.0,7.0,4.0,1013.9487269998426,3.0,1.0,phase_3,,,,,49.0,1.0,245.0,147.0,294.0,49.0,98.0,196.0,blue,triangle
0.0,6.0,2.0,1.0,7.0,1.0,1208.7258689998637,3.0,1.0,phase_3,,,,,132.0,3.0,132.0,264.0,88.0,220.0,176.0,44.0,magenta,diamond
0.0,7.0,3.0,1.0,7.0,5.0,602.8800100002627,3.0,1.0,phase_3,,,,,78.0,2.0,234.0,195.0,156.0,39.0,78.0,117.0,cyan,circle
0.0,3.0,3.0,0.0,7.0,5.0,655.8031119993757,3.0,1.0,phase_3,,,,,117.0,3.0,156.0,39.0,78.0,234.0,117.0,195.0,gray,I
0.0,4.0,4.0,0.0,7.0,1.0,563.2682229997954,3.0,1.0,phase_3,,,,,78.0,2.0,78.0,156.0,234.0,39.0,195.0,117.0,green,cross
0.0,4.0,4.0,0.0,7.0,5.0,826.3548969998737,3.0,1.0,phase_3,,,,,162.0,3.0,108.0,270.0,216.0,324.0,162.0,54.0,green,cross
0.0,1.0,1.0,0.0,7.0,6.0,1411.0749890005536,3.0,1.0,phase_3,,,,,108.0,2.0,216.0,324.0,162.0,54.0,270.0,108.0,yellow,flipped triangle
0.0,3.0,3.0,0.0,7.0,6.0,1439.222381000036,3.0,1.0,phase_3,,,,,176.0,4.0,220.0,264.0,132.0,88.0,44.0,176.0,gray,I
0.0,2.0,2.0,0.0,7.0,1.0,861.1627430000226,3.0,1.0,phase_3,,,,,132.0,3.0,132.0,88.0,264.0,176.0,44.0,220.0,orange,square
0.0,7.0,3.0,1.0,7.0,5.0,1543.5314799997286,3.0,1.0,phase_3,,,,,162.0,3.0,270.0,54.0,108.0,216.0,162.0,324.0,cyan,circle
0.0,6.0,2.0,1.0,7.0,1.0,1297.9427440004656,3.0,1.0,phase_3,,,,,136.0,4.0,136.0,102.0,170.0,204.0,34.0,68.0,magenta,diamond
0.0,8.0,4.0,1.0,7.0,1.0,2309.0071220003665,3.0,1.0,phase_3,,,,,204.0,6.0,204.0,34.0,170.0,136.0,68.0,102.0,white,hexagon
0.0,5.0,1.0,1.0,7.0,5.0,686.16664900037,3.0,1.0,phase_3,,,,,39.0,1.0,156.0,78.0,195.0,234.0,39.0,117.0,blue,triangle
0.0,3.0,3.0,0.0,7.0,1.0,751.9691580000654,3.0,1.0,phase_3,,,,,196.0,4.0,196.0,245.0,147.0,49.0,98.0,294.0,gray,I
0.0,8.0,4.0,1.0,7.0,4.0,981.5158159999556,3.0,1.0,phase_3,,,,,204.0,6.0,170.0,68.0,34.0,204.0,102.0,136.0,white,hexagon
0.0,7.0,3.0,1.0,7.0,5.0,397.2008520004237,4.0,1.0,phase_3,,,,,49.0,1.0,294.0,196.0,147.0,98.0,49.0,245.0,cyan,circle
0.0,4.0,4.0,0.0,7.0,5.0,2102.600328000335,4.0,1.0,phase_3,,,,,216.0,4.0,108.0,324.0,162.0,270.0,216.0,54.0,green,cross
0.0,6.0,2.0,1.0,7.0,2.0,2172.76107700036,4.0,1.0,phase_3,,,,,44.0,1.0,264.0,44.0,88.0,132.0,176.0,220.0,magenta,diamond
0.0,5.0,1.0,1.0,7.0,5.0,1486.403447000157,4.0,1.0,phase_3,,,,,136.0,4.0,34.0,204.0,170.0,68.0,136.0,102.0,blue,triangle
0.0,3.0,3.0,0.0,7.0,5.0,1325.8349070001714,4.0,1.0,phase_3,,,,,132.0,3.0,220.0,88.0,176.0,44.0,132.0,264.0,gray,I
0.0,2.0,2.0,0.0,7.0,2.0,1801.4185079991876,4.0,1.0,phase_3,,,,,108.0,2.0,324.0,108.0,216.0,162.0,270.0,54.0,orange,square
0.0,7.0,3.0,1.0,7.0,5.0,938.5164970008192,4.0,1.0,phase_3,,,,,78.0,2.0,195.0,39.0,117.0,234.0,78.0,156.0,cyan,circle
0.0,5.0,1.0,1.0,7.0,2.0,1075.2553379998062,4.0,1.0,phase_3,,,,,108.0,2.0,216.0,108.0,270.0,162.0,324.0,54.0,blue,triangle
0.0,7.0,3.0,1.0,7.0,2.0,1139.3829529997674,4.0,1.0,phase_3,,,,,44.0,1.0,176.0,44.0,88.0,132.0,264.0,220.0,cyan,circle
0.0,2.0,2.0,0.0,7.0,6.0,1589.5882100003291,4.0,1.0,phase_3,,,,,49.0,1.0,294.0,98.0,147.0,196.0,245.0,49.0,orange,square
0.0,2.0,2.0,0.0,7.0,2.0,1004.6976829999039,4.0,1.0,phase_3,,,,,34.0,1.0,136.0,34.0,170.0,68.0,102.0,204.0,orange,square
0.0,3.0,3.0,0.0,7.0,1.0,2436.3264079993314,4.0,1.0,phase_3,,,,,170.0,5.0,170.0,34.0,102.0,204.0,136.0,68.0,gray,I
0.0,2.0,2.0,0.0,7.0,4.0,2001.375238000037,4.0,1.0,phase_3,,,,,156.0,4.0,39.0,195.0,234.0,156.0,78.0,117.0,orange,square
0.0,7.0,3.0,1.0,7.0,5.0,1531.6461189995607,4.0,1.0,phase_3,,,,,176.0,4.0,88.0,220.0,132.0,44.0,176.0,264.0,cyan,circle
0.0,2.0,2.0,0.0,7.0,1.0,1505.4777450004622,4.0,1.0,phase_3,,,,,147.0,3.0,147.0,98.0,49.0,196.0,294.0,245.0,orange,square
0.0,6.0,2.0,1.0,7.0,2.0,1734.5610070005932,4.0,1.0,phase_3,,,,,147.0,3.0,49.0,147.0,196.0,294.0,98.0,245.0,magenta,diamond
0.0,3.0,3.0,0.0,7.0,1.0,1185.923023000214,4.0,1.0,phase_3,,,,,162.0,3.0,162.0,216.0,324.0,270.0,108.0,54.0,gray,I
0.0,4.0,4.0,0.0,7.0,5.0,1453.0249159997766,4.0,1.0,phase_3,,,,,234.0,6.0,117.0,156.0,195.0,78.0,234.0,39.0,green,cross
0.0,3.0,3.0,0.0,7.0,1.0,1227.064333999806,4.0,1.0,phase_3,,,,,270.0,5.0,270.0,54.0,324.0,108.0,216.0,162.0,gray,I
0.0,2.0,2.0,0.0,7.0,4.0,1611.3306869992812,4.0,1.0,phase_3,,,,,156.0,4.0,117.0,78.0,39.0,156.0,195.0,234.0,orange,square
