raw_reward_magnitude,stim_reward,stepwise_reward_magnitude,paired_with_stopping,stim_location,response,reaction_time,block,num_trial_presentations,which_phase,stop_signal_trial_type,left_SSD,right_SSD,accuracy,chosen_bidding_amount,chosen_bidding_level,possible_bid_1,possible_bid_2,possible_bid_3,possible_bid_4,possible_bid_5,possible_bid_6,color_text,shape_text
53.0,1.0,1.0,0.0,3.0,3.0,417.9156569998667,1.0,1.0,phase_1,,,,,,,,,,,,,cyan,I
74.0,1.0,1.0,0.0,1.0,1.0,321.4189390000683,1.0,1.0,phase_1,,,,,,,,,,,,,cyan,I
0.0,7.0,0.0,1.0,1.0,1.0,256.6650329999902,1.0,1.0,phase_1,,,,,,,,,,,,,gray,diamond
112.0,2.0,2.0,0.0,1.0,1.0,370.6731600000239,1.0,1.0,phase_1,,,,,,,,,,,,,white,circle
33.0,1.0,1.0,0.0,3.0,3.0,336.0451550001926,1.0,1.0,phase_1,,,,,,,,,,,,,cyan,I
0.0,8.0,0.0,1.0,4.0,4.0,314.9971800003186,1.0,1.0,phase_1,,,,,,,,,,,,,green,square
183.0,7.0,3.0,1.0,1.0,1.0,294.8678429997926,1.0,1.0,phase_1,,,,,,,,,,,,,gray,diamond
0.0,6.0,0.0,1.0,1.0,1.0,332.2759490001772,1.0,1.0,phase_1,,,,,,,,,,,,,orange,triangle
175.0,7.0,3.0,1.0,4.0,4.0,443.5115630003565,1.0,1.0,phase_1,,,,,,,,,,,,,gray,diamond
0.0,2.0,0.0,0.0,3.0,3.0,417.2993329998462,1.0,1.0,phase_1,,,,,,,,,,,,,white,circle
385.0,4.0,4.0,0.0,4.0,4.0,309.1144539998822,1.0,1.0,phase_1,,,,,,,,,,,,,blue,flipped triangle
79.0,6.0,2.0,1.0,2.0,2.0,360.7040340002641,1.0,1.0,phase_1,,,,,,,,,,,,,orange,triangle
393.0,8.0,4.0,1.0,1.0,1.0,264.7538920000443,1.0,2.0,phase_1,,,,,,,,,,,,,green,square
67.0,5.0,1.0,1.0,2.0,2.0,348.6039559998062,1.0,1.0,phase_1,,,,,,,,,,,,,yellow,cross
0.0,2.0,0.0,0.0,3.0,3.0,383.6500719999094,1.0,1.0,phase_1,,,,,,,,,,,,,white,circle
0.0,4.0,0.0,0.0,1.0,1.0,273.6447090001093,1.0,1.0,phase_1,,,,,,,,,,,,,blue,flipped triangle
59.0,5.0,1.0,1.0,1.0,1.0,299.4271339998704,1.0,1.0,phase_1,,,,,,,,,,,,,yellow,cross
388.0,4.0,4.0,0.0,1.0,1.0,270.7716830000208,1.0,1.0,phase_1,,,,,,,,,,,,,blue,flipped triangle
36.0,1.0,1.0,0.0,3.0,3.0,496.4710089998334,1.0,1.0,phase_1,,,,,,,,,,,,,cyan,I
393.0,4.0,4.0,0.0,4.0,4.0,306.3300109997726,1.0,1.0,phase_1,,,,,,,,,,,,,blue,flipped triangle
416.0,8.0,4.0,1.0,1.0,1.0,251.29139599994232,1.0,1.0,phase_1,,,,,,,,,,,,,green,square
80.0,2.0,2.0,0.0,1.0,1.0,316.3728360000277,1.0,1.0,phase_1,,,,,,,,,,,,,white,circle
420.0,4.0,4.0,0.0,4.0,4.0,371.24468199999677,1.0,1.0,phase_1,,,,,,,,,,,,,blue,flipped triangle
0.0,4.0,0.0,0.0,2.0,2.0,278.0506949998198,1.0,1.0,phase_1,,,,,,,,,,,,,blue,flipped triangle
30.0,5.0,1.0,1.0,1.0,1.0,300.0308020000375,1.0,1.0,phase_1,,,,,,,,,,,,,yellow,cross
0.0,3.0,0.0,0.0,4.0,4.0,268.7991899997541,1.0,1.0,phase_1,,,,,,,,,,,,,magenta,hexagon
61.0,5.0,1.0,1.0,1.0,1.0,289.4153130000632,1.0,1.0,phase_1,,,,,,,,,,,,,yellow,cross
86.0,6.0,2.0,1.0,2.0,2.0,354.929815000105,1.0,1.0,phase_1,,,,,,,,,,,,,orange,triangle
110.0,2.0,2.0,0.0,4.0,4.0,297.1573189997798,1.0,1.0,phase_1,,,,,,,,,,,,,white,circle
0.0,4.0,0.0,0.0,1.0,1.0,211.6571330002443,1.0,1.0,phase_1,,,,,,,,,,,,,blue,flipped triangle
0.0,4.0,0.0,0.0,2.0,2.0,304.1210619999219,1.0,1.0,phase_1,,,,,,,,,,,,,blue,flipped triangle
0.0,5.0,0.0,1.0,1.0,1.0,322.7325689999816,1.0,1.0,phase_1,,,,,,,,,,,,,yellow,cross
27.0,1.0,1.0,0.0,1.0,1.0,265.133780999804,1.0,1.0,phase_1,,,,,,,,,,,,,cyan,I
67.0,1.0,1.0,0.0,4.0,4.0,302.4461589998282,1.0,1.0,phase_1,,,,,,,,,,,,,cyan,I
79.0,2.0,2.0,0.0,2.0,2.0,295.3297720000591,1.0,1.0,phase_1,,,,,,,,,,,,,white,circle
81.0,6.0,2.0,1.0,4.0,4.0,501.8085140000039,1.0,2.0,phase_1,,,,,,,,,,,,,orange,triangle
60.0,1.0,1.0,0.0,1.0,1.0,360.4596199998013,1.0,1.0,phase_1,,,,,,,,,,,,,cyan,I
404.0,8.0,4.0,1.0,1.0,1.0,325.8417140000347,1.0,1.0,phase_1,,,,,,,,,,,,,green,square
414.0,4.0,4.0,0.0,3.0,3.0,305.3138589998525,1.0,1.0,phase_1,,,,,,,,,,,,,blue,flipped triangle
197.0,3.0,3.0,0.0,4.0,4.0,375.1025719998324,1.0,1.0,phase_1,,,,,,,,,,,,,magenta,hexagon
0.0,3.0,0.0,0.0,1.0,1.0,316.7056719998982,1.0,1.0,phase_1,,,,,,,,,,,,,magenta,hexagon
389.0,4.0,4.0,0.0,2.0,2.0,350.0456459996712,1.0,1.0,phase_1,,,,,,,,,,,,,blue,flipped triangle
201.0,3.0,3.0,0.0,1.0,1.0,352.7752089999012,1.0,1.0,phase_1,,,,,,,,,,,,,magenta,hexagon
0.0,3.0,0.0,0.0,2.0,2.0,296.5350360000229,1.0,1.0,phase_1,,,,,,,,,,,,,magenta,hexagon
80.0,6.0,2.0,1.0,2.0,2.0,337.3182089999318,1.0,1.0,phase_1,,,,,,,,,,,,,orange,triangle
0.0,2.0,0.0,0.0,4.0,4.0,323.954305999905,1.0,1.0,phase_1,,,,,,,,,,,,,white,circle
103.0,6.0,2.0,1.0,4.0,4.0,339.8064680000061,1.0,2.0,phase_1,,,,,,,,,,,,,orange,triangle
180.0,7.0,3.0,1.0,3.0,3.0,400.3547009997419,1.0,1.0,phase_1,,,,,,,,,,,,,gray,diamond
32.0,1.0,1.0,0.0,4.0,4.0,347.7253390001351,1.0,1.0,phase_1,,,,,,,,,,,,,cyan,I
397.0,8.0,4.0,1.0,3.0,3.0,350.0692610000442,1.0,1.0,phase_1,,,,,,,,,,,,,green,square
106.0,2.0,2.0,0.0,3.0,3.0,368.7413520001428,1.0,1.0,phase_1,,,,,,,,,,,,,white,circle
201.0,3.0,3.0,0.0,2.0,2.0,470.759308000197,1.0,1.0,phase_1,,,,,,,,,,,,,magenta,hexagon
114.0,6.0,2.0,1.0,1.0,1.0,328.3139280001705,1.0,1.0,phase_1,,,,,,,,,,,,,orange,triangle
394.0,4.0,4.0,0.0,2.0,2.0,362.1548240002994,1.0,1.0,phase_1,,,,,,,,,,,,,blue,flipped triangle
189.0,7.0,3.0,1.0,2.0,2.0,347.9657799998676,1.0,1.0,phase_1,,,,,,,,,,,,,gray,diamond
53.0,5.0,1.0,1.0,1.0,1.0,274.0376169999763,1.0,1.0,phase_1,,,,,,,,,,,,,yellow,cross
62.0,1.0,1.0,0.0,3.0,3.0,326.0169139998652,1.0,1.0,phase_1,,,,,,,,,,,,,cyan,I
221.0,7.0,3.0,1.0,3.0,3.0,370.5534300002,1.0,1.0,phase_1,,,,,,,,,,,,,gray,diamond
393.0,8.0,4.0,1.0,3.0,3.0,329.1034079998098,1.0,1.0,phase_1,,,,,,,,,,,,,green,square
0.0,1.0,0.0,0.0,3.0,3.0,365.466897999795,1.0,1.0,phase_1,,,,,,,,,,,,,cyan,I
0.0,7.0,0.0,1.0,1.0,1.0,321.7577020000135,1.0,1.0,phase_1,,,,,,,,,,,,,gray,diamond
381.0,8.0,4.0,1.0,1.0,1.0,235.4577129999597,1.0,1.0,phase_1,,,,,,,,,,,,,green,square
0.0,1.0,0.0,0.0,1.0,1.0,321.8356990000757,1.0,1.0,phase_1,,,,,,,,,,,,,cyan,I
389.0,4.0,4.0,0.0,1.0,1.0,253.18749699999898,1.0,1.0,phase_1,,,,,,,,,,,,,blue,flipped triangle
0.0,6.0,0.0,1.0,3.0,3.0,308.2839170001534,1.0,1.0,phase_1,,,,,,,,,,,,,orange,triangle
45.0,1.0,1.0,0.0,1.0,1.0,281.9913230000566,1.0,1.0,phase_1,,,,,,,,,,,,,cyan,I
72.0,5.0,1.0,1.0,4.0,4.0,390.12334500012,1.0,2.0,phase_1,,,,,,,,,,,,,yellow,cross
0.0,6.0,0.0,1.0,4.0,4.0,395.6185689999074,1.0,1.0,phase_1,,,,,,,,,,,,,orange,triangle
0.0,2.0,0.0,0.0,4.0,4.0,337.725508999938,1.0,1.0,phase_1,,,,,,,,,,,,,white,circle
0.0,5.0,0.0,1.0,3.0,3.0,327.71806799974,1.0,1.0,phase_1,,,,,,,,,,,,,yellow,cross
215.0,3.0,3.0,0.0,4.0,4.0,356.1514729999544,1.0,1.0,phase_1,,,,,,,,,,,,,magenta,hexagon
386.0,8.0,4.0,1.0,2.0,2.0,326.4892890001647,1.0,1.0,phase_1,,,,,,,,,,,,,green,square
214.0,7.0,3.0,1.0,1.0,1.0,432.4252789997445,1.0,1.0,phase_1,,,,,,,,,,,,,gray,diamond
384.0,8.0,4.0,1.0,3.0,3.0,327.1292449999237,1.0,1.0,phase_1,,,,,,,,,,,,,green,square
0.0,1.0,0.0,0.0,1.0,1.0,368.760600999849,1.0,1.0,phase_1,,,,,,,,,,,,,cyan,I
389.0,8.0,4.0,1.0,4.0,4.0,392.7296009997008,1.0,1.0,phase_1,,,,,,,,,,,,,green,square
93.0,6.0,2.0,1.0,1.0,1.0,398.5798519997843,1.0,1.0,phase_1,,,,,,,,,,,,,orange,triangle
122.0,2.0,2.0,0.0,4.0,4.0,481.4367819999461,1.0,1.0,phase_1,,,,,,,,,,,,,white,circle
67.0,5.0,1.0,1.0,2.0,2.0,366.5081859999191,1.0,1.0,phase_1,,,,,,,,,,,,,yellow,cross
420.0,8.0,4.0,1.0,2.0,2.0,409.271937000085,1.0,1.0,phase_1,,,,,,,,,,,,,green,square
38.0,1.0,1.0,0.0,1.0,1.0,305.54494099988,1.0,1.0,phase_1,,,,,,,,,,,,,cyan,I
395.0,4.0,4.0,0.0,2.0,2.0,439.6896899997955,1.0,1.0,phase_1,,,,,,,,,,,,,blue,flipped triangle
67.0,1.0,1.0,0.0,1.0,1.0,367.7290509999693,1.0,1.0,phase_1,,,,,,,,,,,,,cyan,I
109.0,6.0,2.0,1.0,3.0,3.0,358.5859509998954,1.0,1.0,phase_1,,,,,,,,,,,,,orange,triangle
189.0,3.0,3.0,0.0,3.0,3.0,454.194427999937,1.0,1.0,phase_1,,,,,,,,,,,,,magenta,hexagon
48.0,1.0,1.0,0.0,2.0,2.0,332.514356000047,1.0,1.0,phase_1,,,,,,,,,,,,,cyan,I
207.0,3.0,3.0,0.0,3.0,3.0,481.9062619999386,1.0,1.0,phase_1,,,,,,,,,,,,,magenta,hexagon
107.0,2.0,2.0,0.0,3.0,3.0,308.6376960000052,1.0,1.0,phase_1,,,,,,,,,,,,,white,circle
182.0,3.0,3.0,0.0,4.0,4.0,355.3354010000475,1.0,1.0,phase_1,,,,,,,,,,,,,magenta,hexagon
219.0,3.0,3.0,0.0,3.0,3.0,323.2674249998126,1.0,1.0,phase_1,,,,,,,,,,,,,magenta,hexagon
214.0,3.0,3.0,0.0,3.0,3.0,316.8045379998148,1.0,1.0,phase_1,,,,,,,,,,,,,magenta,hexagon
97.0,2.0,2.0,0.0,4.0,4.0,490.9738070000458,1.0,1.0,phase_1,,,,,,,,,,,,,white,circle
392.0,8.0,4.0,1.0,2.0,2.0,344.0910750000512,1.0,1.0,phase_1,,,,,,,,,,,,,green,square
221.0,3.0,3.0,0.0,2.0,2.0,379.6786329999122,1.0,1.0,phase_1,,,,,,,,,,,,,magenta,hexagon
101.0,2.0,2.0,0.0,4.0,4.0,328.5635859997455,1.0,1.0,phase_1,,,,,,,,,,,,,white,circle
379.0,4.0,4.0,0.0,2.0,2.0,324.2541919998984,1.0,1.0,phase_1,,,,,,,,,,,,,blue,flipped triangle
222.0,7.0,3.0,1.0,3.0,3.0,361.3409419999698,1.0,1.0,phase_1,,,,,,,,,,,,,gray,diamond
43.0,1.0,1.0,0.0,3.0,3.0,401.5918239997518,1.0,1.0,phase_1,,,,,,,,,,,,,cyan,I
183.0,7.0,3.0,1.0,4.0,4.0,394.8138950004249,1.0,1.0,phase_1,,,,,,,,,,,,,gray,diamond
104.0,2.0,2.0,0.0,2.0,2.0,379.1559329997653,1.0,1.0,phase_1,,,,,,,,,,,,,white,circle
118.0,2.0,2.0,0.0,4.0,4.0,367.2270879997086,2.0,1.0,phase_1,,,,,,,,,,,,,white,circle
93.0,2.0,2.0,0.0,1.0,1.0,393.1067180001264,2.0,1.0,phase_1,,,,,,,,,,,,,white,circle
201.0,7.0,3.0,1.0,4.0,4.0,363.993525999831,2.0,1.0,phase_1,,,,,,,,,,,,,gray,diamond
0.0,7.0,0.0,1.0,1.0,1.0,356.8182760000127,2.0,1.0,phase_1,,,,,,,,,,,,,gray,diamond
78.0,6.0,2.0,1.0,2.0,2.0,327.5446429997828,2.0,1.0,phase_1,,,,,,,,,,,,,orange,triangle
0.0,7.0,0.0,1.0,4.0,4.0,304.6319129998664,2.0,1.0,phase_1,,,,,,,,,,,,,gray,diamond
222.0,3.0,3.0,0.0,4.0,4.0,353.1057029999829,2.0,1.0,phase_1,,,,,,,,,,,,,magenta,hexagon
200.0,7.0,3.0,1.0,2.0,2.0,378.5316650000823,2.0,1.0,phase_1,,,,,,,,,,,,,gray,diamond
213.0,3.0,3.0,0.0,3.0,3.0,328.2054230003268,2.0,1.0,phase_1,,,,,,,,,,,,,magenta,hexagon
27.0,5.0,1.0,1.0,4.0,4.0,375.1470340002925,2.0,1.0,phase_1,,,,,,,,,,,,,yellow,cross
0.0,5.0,0.0,1.0,3.0,3.0,333.7453059998552,2.0,1.0,phase_1,,,,,,,,,,,,,yellow,cross
188.0,7.0,3.0,1.0,4.0,4.0,351.3477699998475,2.0,1.0,phase_1,,,,,,,,,,,,,gray,diamond
205.0,3.0,3.0,0.0,1.0,1.0,313.8304590002008,2.0,1.0,phase_1,,,,,,,,,,,,,magenta,hexagon
219.0,7.0,3.0,1.0,2.0,2.0,324.9095480000505,2.0,1.0,phase_1,,,,,,,,,,,,,gray,diamond
98.0,2.0,2.0,0.0,2.0,2.0,447.2918729998127,2.0,1.0,phase_1,,,,,,,,,,,,,white,circle
56.0,5.0,1.0,1.0,4.0,4.0,319.6569049996469,2.0,1.0,phase_1,,,,,,,,,,,,,yellow,cross
0.0,5.0,0.0,1.0,2.0,2.0,333.690684999965,2.0,1.0,phase_1,,,,,,,,,,,,,yellow,cross
0.0,5.0,0.0,1.0,3.0,3.0,330.3722449995803,2.0,1.0,phase_1,,,,,,,,,,,,,yellow,cross
30.0,5.0,1.0,1.0,4.0,4.0,364.0369129998362,2.0,1.0,phase_1,,,,,,,,,,,,,yellow,cross
43.0,5.0,1.0,1.0,2.0,2.0,342.6339329998882,2.0,1.0,phase_1,,,,,,,,,,,,,yellow,cross
122.0,6.0,2.0,1.0,4.0,4.0,318.4166439996261,2.0,1.0,phase_1,,,,,,,,,,,,,orange,triangle
217.0,7.0,3.0,1.0,2.0,2.0,294.2587130000902,2.0,1.0,phase_1,,,,,,,,,,,,,gray,diamond
406.0,4.0,4.0,0.0,4.0,4.0,351.1629810000158,2.0,1.0,phase_1,,,,,,,,,,,,,blue,flipped triangle
412.0,4.0,4.0,0.0,3.0,3.0,315.8040899998013,2.0,1.0,phase_1,,,,,,,,,,,,,blue,flipped triangle
406.0,8.0,4.0,1.0,4.0,4.0,313.8990600000397,2.0,1.0,phase_1,,,,,,,,,,,,,green,square
384.0,4.0,4.0,0.0,2.0,2.0,265.4237310002827,2.0,1.0,phase_1,,,,,,,,,,,,,blue,flipped triangle
399.0,4.0,4.0,0.0,1.0,1.0,298.1570269998883,2.0,1.0,phase_1,,,,,,,,,,,,,blue,flipped triangle
106.0,2.0,2.0,0.0,2.0,2.0,368.4381590001067,2.0,1.0,phase_1,,,,,,,,,,,,,white,circle
0.0,1.0,0.0,0.0,4.0,4.0,416.2320489999729,2.0,2.0,phase_1,,,,,,,,,,,,,cyan,I
379.0,8.0,4.0,1.0,3.0,3.0,370.6956450000689,2.0,1.0,phase_1,,,,,,,,,,,,,green,square
97.0,6.0,2.0,1.0,1.0,1.0,435.4008489999614,2.0,1.0,phase_1,,,,,,,,,,,,,orange,triangle
0.0,7.0,0.0,1.0,3.0,3.0,335.8831180003108,2.0,1.0,phase_1,,,,,,,,,,,,,gray,diamond
64.0,1.0,1.0,0.0,2.0,2.0,354.4538799997099,2.0,1.0,phase_1,,,,,,,,,,,,,cyan,I
116.0,2.0,2.0,0.0,3.0,3.0,339.0964010000061,2.0,1.0,phase_1,,,,,,,,,,,,,white,circle
412.0,8.0,4.0,1.0,2.0,2.0,347.8770890001215,2.0,1.0,phase_1,,,,,,,,,,,,,green,square
0.0,3.0,0.0,0.0,3.0,3.0,366.908532999787,2.0,1.0,phase_1,,,,,,,,,,,,,magenta,hexagon
183.0,3.0,3.0,0.0,4.0,4.0,355.0480009998864,2.0,1.0,phase_1,,,,,,,,,,,,,magenta,hexagon
36.0,5.0,1.0,1.0,4.0,4.0,360.608817999946,2.0,1.0,phase_1,,,,,,,,,,,,,yellow,cross
33.0,5.0,1.0,1.0,2.0,2.0,331.1584660000335,2.0,1.0,phase_1,,,,,,,,,,,,,yellow,cross
38.0,5.0,1.0,1.0,4.0,4.0,329.6225540002524,2.0,1.0,phase_1,,,,,,,,,,,,,yellow,cross
0.0,8.0,0.0,1.0,3.0,3.0,341.6313769998851,2.0,1.0,phase_1,,,,,,,,,,,,,green,square
56.0,1.0,1.0,0.0,3.0,3.0,414.5891719999781,2.0,1.0,phase_1,,,,,,,,,,,,,cyan,I
219.0,3.0,3.0,0.0,1.0,1.0,264.9199080001381,2.0,1.0,phase_1,,,,,,,,,,,,,magenta,hexagon
107.0,2.0,2.0,0.0,1.0,1.0,330.4847959998369,2.0,1.0,phase_1,,,,,,,,,,,,,white,circle
410.0,4.0,4.0,0.0,1.0,1.0,342.9988949997096,2.0,1.0,phase_1,,,,,,,,,,,,,blue,flipped triangle
197.0,3.0,3.0,0.0,2.0,2.0,350.9709519998978,2.0,1.0,phase_1,,,,,,,,,,,,,magenta,hexagon
29.0,5.0,1.0,1.0,3.0,3.0,340.69317400008,2.0,1.0,phase_1,,,,,,,,,,,,,yellow,cross
205.0,7.0,3.0,1.0,4.0,4.0,306.0880489997544,2.0,1.0,phase_1,,,,,,,,,,,,,gray,diamond
122.0,2.0,2.0,0.0,2.0,2.0,292.4735159999727,2.0,1.0,phase_1,,,,,,,,,,,,,white,circle
424.0,4.0,4.0,0.0,4.0,4.0,363.1882989998303,2.0,1.0,phase_1,,,,,,,,,,,,,blue,flipped triangle
35.0,5.0,1.0,1.0,3.0,3.0,378.5519970001587,2.0,1.0,phase_1,,,,,,,,,,,,,yellow,cross
406.0,8.0,4.0,1.0,1.0,1.0,259.3144030001895,2.0,1.0,phase_1,,,,,,,,,,,,,green,square
43.0,5.0,1.0,1.0,1.0,1.0,317.8768080001646,2.0,1.0,phase_1,,,,,,,,,,,,,yellow,cross
197.0,7.0,3.0,1.0,1.0,1.0,297.6025240000126,2.0,1.0,phase_1,,,,,,,,,,,,,gray,diamond
0.0,6.0,0.0,1.0,4.0,4.0,474.104030000035,2.0,1.0,phase_1,,,,,,,,,,,,,orange,triangle
25.0,1.0,1.0,0.0,3.0,3.0,358.9672690000043,2.0,1.0,phase_1,,,,,,,,,,,,,cyan,I
97.0,2.0,2.0,0.0,3.0,3.0,353.3876699998473,2.0,1.0,phase_1,,,,,,,,,,,,,white,circle
197.0,7.0,3.0,1.0,2.0,2.0,362.9700340002273,2.0,1.0,phase_1,,,,,,,,,,,,,gray,diamond
76.0,2.0,2.0,0.0,4.0,4.0,337.987892000001,2.0,1.0,phase_1,,,,,,,,,,,,,white,circle
0.0,4.0,0.0,0.0,1.0,1.0,388.3368050001081,2.0,1.0,phase_1,,,,,,,,,,,,,blue,flipped triangle
0.0,7.0,0.0,1.0,2.0,2.0,400.4331780001848,2.0,1.0,phase_1,,,,,,,,,,,,,gray,diamond
0.0,6.0,0.0,1.0,3.0,3.0,425.8396610002819,2.0,1.0,phase_1,,,,,,,,,,,,,orange,triangle
393.0,8.0,4.0,1.0,4.0,4.0,509.2572440003096,2.0,1.0,phase_1,,,,,,,,,,,,,green,square
0.0,2.0,0.0,0.0,2.0,2.0,579.5559210000647,2.0,1.0,phase_1,,,,,,,,,,,,,white,circle
198.0,7.0,3.0,1.0,2.0,2.0,364.661760999752,2.0,1.0,phase_1,,,,,,,,,,,,,gray,diamond
416.0,4.0,4.0,0.0,2.0,2.0,421.7146989999492,2.0,1.0,phase_1,,,,,,,,,,,,,blue,flipped triangle
92.0,6.0,2.0,1.0,1.0,1.0,383.2294720000391,2.0,1.0,phase_1,,,,,,,,,,,,,orange,triangle
45.0,5.0,1.0,1.0,2.0,2.0,392.1982249999018,2.0,1.0,phase_1,,,,,,,,,,,,,yellow,cross
0.0,6.0,0.0,1.0,4.0,4.0,356.9353739999314,2.0,1.0,phase_1,,,,,,,,,,,,,orange,triangle
71.0,1.0,1.0,0.0,4.0,4.0,448.2711139999082,2.0,1.0,phase_1,,,,,,,,,,,,,cyan,I
207.0,7.0,3.0,1.0,3.0,3.0,431.0453739999502,2.0,1.0,phase_1,,,,,,,,,,,,,gray,diamond
201.0,7.0,3.0,1.0,3.0,3.0,370.281562999935,2.0,1.0,phase_1,,,,,,,,,,,,,gray,diamond
106.0,6.0,2.0,1.0,1.0,1.0,601.612730999932,2.0,1.0,phase_1,,,,,,,,,,,,,orange,triangle
0.0,1.0,0.0,0.0,3.0,3.0,399.681284000053,2.0,1.0,phase_1,,,,,,,,,,,,,cyan,I
192.0,7.0,3.0,1.0,1.0,1.0,560.4599260000214,2.0,1.0,phase_1,,,,,,,,,,,,,gray,diamond
175.0,3.0,3.0,0.0,2.0,2.0,400.840965000043,2.0,1.0,phase_1,,,,,,,,,,,,,magenta,hexagon
30.0,1.0,1.0,0.0,1.0,1.0,446.8879879996166,2.0,1.0,phase_1,,,,,,,,,,,,,cyan,I
0.0,3.0,0.0,0.0,4.0,4.0,700.5348950001462,2.0,1.0,phase_1,,,,,,,,,,,,,magenta,hexagon
210.0,7.0,3.0,1.0,4.0,4.0,569.0932299999076,2.0,1.0,phase_1,,,,,,,,,,,,,gray,diamond
179.0,7.0,3.0,1.0,1.0,1.0,429.9821810000139,2.0,1.0,phase_1,,,,,,,,,,,,,gray,diamond
0.0,5.0,0.0,1.0,4.0,4.0,385.8807139999953,2.0,1.0,phase_1,,,,,,,,,,,,,yellow,cross
106.0,6.0,2.0,1.0,2.0,2.0,376.6206079999392,2.0,1.0,phase_1,,,,,,,,,,,,,orange,triangle
49.0,1.0,1.0,0.0,4.0,4.0,370.6667369997376,2.0,1.0,phase_1,,,,,,,,,,,,,cyan,I
62.0,1.0,1.0,0.0,4.0,4.0,434.0755530001843,2.0,1.0,phase_1,,,,,,,,,,,,,cyan,I
219.0,3.0,3.0,0.0,4.0,4.0,618.761306000124,2.0,1.0,phase_1,,,,,,,,,,,,,magenta,hexagon
0.0,5.0,0.0,1.0,4.0,4.0,434.6011620000354,2.0,1.0,phase_1,,,,,,,,,,,,,yellow,cross
416.0,4.0,4.0,0.0,2.0,2.0,386.0078719999364,2.0,1.0,phase_1,,,,,,,,,,,,,blue,flipped triangle
86.0,2.0,2.0,0.0,4.0,4.0,390.241579999838,2.0,1.0,phase_1,,,,,,,,,,,,,white,circle
112.0,6.0,2.0,1.0,3.0,3.0,406.4470480002455,2.0,1.0,phase_1,,,,,,,,,,,,,orange,triangle
0.0,8.0,0.0,1.0,3.0,3.0,385.2379399995698,2.0,1.0,phase_1,,,,,,,,,,,,,green,square
205.0,7.0,3.0,1.0,3.0,3.0,381.1888340001133,2.0,1.0,phase_1,,,,,,,,,,,,,gray,diamond
71.0,5.0,1.0,1.0,3.0,3.0,365.7037170000876,2.0,1.0,phase_1,,,,,,,,,,,,,yellow,cross
0.0,4.0,0.0,0.0,3.0,3.0,464.665732999947,2.0,1.0,phase_1,,,,,,,,,,,,,blue,flipped triangle
116.0,2.0,2.0,0.0,1.0,1.0,602.4853099997927,2.0,1.0,phase_1,,,,,,,,,,,,,white,circle
384.0,4.0,4.0,0.0,1.0,1.0,607.9870749999827,2.0,1.0,phase_1,,,,,,,,,,,,,blue,flipped triangle
70.0,1.0,1.0,0.0,2.0,2.0,496.8208140003298,2.0,1.0,phase_1,,,,,,,,,,,,,cyan,I
29.0,1.0,1.0,0.0,2.0,2.0,361.3461449999704,2.0,1.0,phase_1,,,,,,,,,,,,,cyan,I
420.0,4.0,4.0,0.0,3.0,3.0,479.3448569998872,2.0,1.0,phase_1,,,,,,,,,,,,,blue,flipped triangle
62.0,5.0,1.0,1.0,4.0,4.0,544.2362759999924,2.0,1.0,phase_1,,,,,,,,,,,,,yellow,cross
0.0,6.0,0.0,1.0,2.0,2.0,382.1616959999119,2.0,1.0,phase_1,,,,,,,,,,,,,orange,triangle
87.0,2.0,2.0,0.0,3.0,3.0,395.955321999736,3.0,1.0,phase_1,,,,,,,,,,,,,white,circle
391.0,4.0,4.0,0.0,3.0,3.0,376.0041420000561,3.0,1.0,phase_1,,,,,,,,,,,,,blue,flipped triangle
192.0,3.0,3.0,0.0,2.0,2.0,385.2132380002331,3.0,1.0,phase_1,,,,,,,,,,,,,magenta,hexagon
0.0,5.0,0.0,1.0,4.0,4.0,308.791569999812,3.0,1.0,phase_1,,,,,,,,,,,,,yellow,cross
381.0,4.0,4.0,0.0,1.0,1.0,316.8097890002173,3.0,1.0,phase_1,,,,,,,,,,,,,blue,flipped triangle
378.0,4.0,4.0,0.0,2.0,2.0,370.3610210000079,3.0,1.0,phase_1,,,,,,,,,,,,,blue,flipped triangle
100.0,6.0,2.0,1.0,1.0,1.0,359.7680620000574,3.0,1.0,phase_1,,,,,,,,,,,,,orange,triangle
107.0,6.0,2.0,1.0,2.0,2.0,369.5963440000014,3.0,1.0,phase_1,,,,,,,,,,,,,orange,triangle
87.0,6.0,2.0,1.0,1.0,1.0,361.1606439999377,3.0,1.0,phase_1,,,,,,,,,,,,,orange,triangle
0.0,6.0,0.0,1.0,2.0,2.0,352.219247999983,3.0,1.0,phase_1,,,,,,,,,,,,,orange,triangle
392.0,4.0,4.0,0.0,3.0,3.0,662.8817629998593,3.0,1.0,phase_1,,,,,,,,,,,,,blue,flipped triangle
64.0,5.0,1.0,1.0,2.0,2.0,354.3786599998384,3.0,1.0,phase_1,,,,,,,,,,,,,yellow,cross
59.0,5.0,1.0,1.0,2.0,2.0,405.3675479999583,3.0,1.0,phase_1,,,,,,,,,,,,,yellow,cross
384.0,8.0,4.0,1.0,1.0,1.0,385.5650169998625,3.0,1.0,phase_1,,,,,,,,,,,,,green,square
184.0,3.0,3.0,0.0,2.0,2.0,311.6349990000344,3.0,1.0,phase_1,,,,,,,,,,,,,magenta,hexagon
385.0,8.0,4.0,1.0,1.0,1.0,412.8423769998335,3.0,1.0,phase_1,,,,,,,,,,,,,green,square
404.0,4.0,4.0,0.0,1.0,1.0,505.1943449998362,3.0,1.0,phase_1,,,,,,,,,,,,,blue,flipped triangle
0.0,4.0,0.0,0.0,4.0,4.0,525.730788999681,3.0,1.0,phase_1,,,,,,,,,,,,,blue,flipped triangle
389.0,8.0,4.0,1.0,1.0,1.0,520.2991900000598,3.0,1.0,phase_1,,,,,,,,,,,,,green,square
107.0,6.0,2.0,1.0,1.0,1.0,445.5574060002618,3.0,1.0,phase_1,,,,,,,,,,,,,orange,triangle
0.0,7.0,0.0,1.0,2.0,2.0,355.3385770001114,3.0,1.0,phase_1,,,,,,,,,,,,,gray,diamond
422.0,8.0,4.0,1.0,3.0,3.0,487.611232999825,3.0,1.0,phase_1,,,,,,,,,,,,,green,square
422.0,8.0,4.0,1.0,2.0,2.0,399.5323970002573,3.0,1.0,phase_1,,,,,,,,,,,,,green,square
213.0,7.0,3.0,1.0,1.0,1.0,373.0762599998343,3.0,1.0,phase_1,,,,,,,,,,,,,gray,diamond
103.0,2.0,2.0,0.0,2.0,2.0,374.8144280002634,3.0,1.0,phase_1,,,,,,,,,,,,,white,circle
422.0,4.0,4.0,0.0,2.0,2.0,388.3208830002331,3.0,1.0,phase_1,,,,,,,,,,,,,blue,flipped triangle
189.0,3.0,3.0,0.0,3.0,3.0,442.3211280000032,3.0,1.0,phase_1,,,,,,,,,,,,,magenta,hexagon
87.0,6.0,2.0,1.0,3.0,3.0,407.8586910000012,3.0,1.0,phase_1,,,,,,,,,,,,,orange,triangle
80.0,2.0,2.0,0.0,4.0,4.0,431.1530039999525,3.0,1.0,phase_1,,,,,,,,,,,,,white,circle
106.0,6.0,2.0,1.0,3.0,3.0,471.197690000281,3.0,1.0,phase_1,,,,,,,,,,,,,orange,triangle
35.0,1.0,1.0,0.0,2.0,2.0,431.1095070002011,3.0,1.0,phase_1,,,,,,,,,,,,,cyan,I
180.0,3.0,3.0,0.0,1.0,1.0,369.6965580002143,3.0,1.0,phase_1,,,,,,,,,,,,,magenta,hexagon
101.0,6.0,2.0,1.0,2.0,2.0,328.7555389997578,3.0,1.0,phase_1,,,,,,,,,,,,,orange,triangle
112.0,6.0,2.0,1.0,2.0,2.0,366.3934840001275,3.0,1.0,phase_1,,,,,,,,,,,,,orange,triangle
0.0,1.0,0.0,0.0,4.0,4.0,520.3630880000674,3.0,1.0,phase_1,,,,,,,,,,,,,cyan,I
72.0,1.0,1.0,0.0,2.0,2.0,403.2662580002579,3.0,1.0,phase_1,,,,,,,,,,,,,cyan,I
179.0,3.0,3.0,0.0,2.0,2.0,447.901168000044,3.0,1.0,phase_1,,,,,,,,,,,,,magenta,hexagon
30.0,1.0,1.0,0.0,1.0,1.0,346.7318559996784,3.0,1.0,phase_1,,,,,,,,,,,,,cyan,I
93.0,2.0,2.0,0.0,2.0,2.0,555.6001949998972,3.0,1.0,phase_1,,,,,,,,,,,,,white,circle
199.0,3.0,3.0,0.0,1.0,1.0,447.8067820000433,3.0,1.0,phase_1,,,,,,,,,,,,,magenta,hexagon
76.0,6.0,2.0,1.0,3.0,3.0,551.3619059997836,3.0,1.0,phase_1,,,,,,,,,,,,,orange,triangle
0.0,7.0,0.0,1.0,3.0,3.0,361.406081000041,3.0,1.0,phase_1,,,,,,,,,,,,,gray,diamond
183.0,3.0,3.0,0.0,1.0,1.0,431.035762999727,3.0,1.0,phase_1,,,,,,,,,,,,,magenta,hexagon
215.0,7.0,3.0,1.0,3.0,3.0,459.6575569999004,3.0,1.0,phase_1,,,,,,,,,,,,,gray,diamond
189.0,7.0,3.0,1.0,3.0,3.0,486.7541670000719,3.0,1.0,phase_1,,,,,,,,,,,,,gray,diamond
189.0,3.0,3.0,0.0,3.0,3.0,545.686919000218,3.0,1.0,phase_1,,,,,,,,,,,,,magenta,hexagon
61.0,1.0,1.0,0.0,1.0,1.0,386.1547490000703,3.0,1.0,phase_1,,,,,,,,,,,,,cyan,I
201.0,7.0,3.0,1.0,1.0,1.0,479.8013459999311,3.0,1.0,phase_1,,,,,,,,,,,,,gray,diamond
64.0,1.0,1.0,0.0,2.0,2.0,319.3668450003315,3.0,1.0,phase_1,,,,,,,,,,,,,cyan,I
100.0,2.0,2.0,0.0,4.0,4.0,388.1298199999037,3.0,1.0,phase_1,,,,,,,,,,,,,white,circle
0.0,5.0,0.0,1.0,3.0,3.0,478.5016430000723,3.0,1.0,phase_1,,,,,,,,,,,,,yellow,cross
219.0,7.0,3.0,1.0,2.0,2.0,408.6541439996836,3.0,1.0,phase_1,,,,,,,,,,,,,gray,diamond
52.0,5.0,1.0,1.0,3.0,3.0,445.3647979999005,3.0,1.0,phase_1,,,,,,,,,,,,,yellow,cross
0.0,2.0,0.0,0.0,1.0,1.0,461.0574859998451,3.0,1.0,phase_1,,,,,,,,,,,,,white,circle
96.0,2.0,2.0,0.0,3.0,3.0,381.0425309998209,3.0,1.0,phase_1,,,,,,,,,,,,,white,circle
221.0,3.0,3.0,0.0,4.0,4.0,584.0699750001477,3.0,1.0,phase_1,,,,,,,,,,,,,magenta,hexagon
67.0,5.0,1.0,1.0,3.0,3.0,336.1057879997133,3.0,1.0,phase_1,,,,,,,,,,,,,yellow,cross
32.0,5.0,1.0,1.0,3.0,3.0,411.4546589999008,3.0,1.0,phase_1,,,,,,,,,,,,,yellow,cross
378.0,8.0,4.0,1.0,4.0,4.0,665.8128330000181,3.0,1.0,phase_1,,,,,,,,,,,,,green,square
0.0,8.0,0.0,1.0,4.0,4.0,419.3908289998944,3.0,1.0,phase_1,,,,,,,,,,,,,green,square
402.0,8.0,4.0,1.0,2.0,2.0,387.4209270002211,3.0,1.0,phase_1,,,,,,,,,,,,,green,square
0.0,3.0,0.0,0.0,2.0,2.0,386.0718509999969,3.0,1.0,phase_1,,,,,,,,,,,,,magenta,hexagon
406.0,8.0,4.0,1.0,4.0,4.0,477.2404800000913,3.0,1.0,phase_1,,,,,,,,,,,,,green,square
201.0,7.0,3.0,1.0,2.0,2.0,383.9914500003942,3.0,1.0,phase_1,,,,,,,,,,,,,gray,diamond
210.0,3.0,3.0,0.0,4.0,4.0,565.9431399999448,3.0,1.0,phase_1,,,,,,,,,,,,,magenta,hexagon
30.0,1.0,1.0,0.0,2.0,2.0,321.04183499996,3.0,1.0,phase_1,,,,,,,,,,,,,cyan,I
25.0,5.0,1.0,1.0,1.0,1.0,414.5012239996504,3.0,1.0,phase_1,,,,,,,,,,,,,yellow,cross
188.0,3.0,3.0,0.0,2.0,2.0,349.9487610001779,3.0,1.0,phase_1,,,,,,,,,,,,,magenta,hexagon
30.0,5.0,1.0,1.0,1.0,1.0,366.6690959998959,3.0,1.0,phase_1,,,,,,,,,,,,,yellow,cross
43.0,1.0,1.0,0.0,4.0,4.0,585.0706019996323,3.0,1.0,phase_1,,,,,,,,,,,,,cyan,I
389.0,8.0,4.0,1.0,1.0,1.0,494.2759779996777,3.0,1.0,phase_1,,,,,,,,,,,,,green,square
56.0,1.0,1.0,0.0,4.0,4.0,563.0389809998633,3.0,1.0,phase_1,,,,,,,,,,,,,cyan,I
199.0,7.0,3.0,1.0,4.0,4.0,546.2408089997552,3.0,1.0,phase_1,,,,,,,,,,,,,gray,diamond
407.0,8.0,4.0,1.0,4.0,4.0,385.4635279999456,3.0,1.0,phase_1,,,,,,,,,,,,,green,square
111.0,2.0,2.0,0.0,3.0,3.0,392.3143560000426,3.0,1.0,phase_1,,,,,,,,,,,,,white,circle
41.0,1.0,1.0,0.0,2.0,2.0,392.3710710000705,3.0,1.0,phase_1,,,,,,,,,,,,,cyan,I
58.0,1.0,1.0,0.0,1.0,1.0,436.4405179999266,3.0,1.0,phase_1,,,,,,,,,,,,,cyan,I
424.0,8.0,4.0,1.0,2.0,2.0,323.6591679997218,3.0,1.0,phase_1,,,,,,,,,,,,,green,square
0.0,4.0,0.0,0.0,3.0,3.0,379.0097539999806,3.0,1.0,phase_1,,,,,,,,,,,,,blue,flipped triangle
54.0,5.0,1.0,1.0,4.0,4.0,523.0196889997387,3.0,1.0,phase_1,,,,,,,,,,,,,yellow,cross
116.0,6.0,2.0,1.0,4.0,4.0,435.7089250001991,3.0,1.0,phase_1,,,,,,,,,,,,,orange,triangle
412.0,4.0,4.0,0.0,1.0,1.0,384.4570840001324,3.0,1.0,phase_1,,,,,,,,,,,,,blue,flipped triangle
0.0,2.0,0.0,0.0,4.0,4.0,458.2379130001754,3.0,1.0,phase_1,,,,,,,,,,,,,white,circle
122.0,6.0,2.0,1.0,3.0,3.0,416.1654080003245,3.0,1.0,phase_1,,,,,,,,,,,,,orange,triangle
412.0,8.0,4.0,1.0,4.0,4.0,434.842512999694,3.0,1.0,phase_1,,,,,,,,,,,,,green,square
97.0,6.0,2.0,1.0,3.0,3.0,356.4027929996882,3.0,1.0,phase_1,,,,,,,,,,,,,orange,triangle
393.0,4.0,4.0,0.0,4.0,4.0,371.1037299999589,3.0,1.0,phase_1,,,,,,,,,,,,,blue,flipped triangle
0.0,5.0,0.0,1.0,2.0,2.0,332.9717769997842,3.0,1.0,phase_1,,,,,,,,,,,,,yellow,cross
93.0,6.0,2.0,1.0,4.0,4.0,439.5687750002253,3.0,1.0,phase_1,,,,,,,,,,,,,orange,triangle
412.0,8.0,4.0,1.0,3.0,3.0,403.0023349996554,3.0,1.0,phase_1,,,,,,,,,,,,,green,square
74.0,5.0,1.0,1.0,3.0,3.0,381.8356099995981,3.0,1.0,phase_1,,,,,,,,,,,,,yellow,cross
49.0,5.0,1.0,1.0,2.0,2.0,330.3788690000147,3.0,1.0,phase_1,,,,,,,,,,,,,yellow,cross
52.0,1.0,1.0,0.0,4.0,4.0,359.8371110001608,3.0,1.0,phase_1,,,,,,,,,,,,,cyan,I
393.0,4.0,4.0,0.0,4.0,4.0,359.6966469999643,3.0,1.0,phase_1,,,,,,,,,,,,,blue,flipped triangle
0.0,8.0,0.0,1.0,2.0,2.0,397.2501550001652,3.0,1.0,phase_1,,,,,,,,,,,,,green,square
78.0,2.0,2.0,0.0,4.0,4.0,393.1246020001708,3.0,1.0,phase_1,,,,,,,,,,,,,white,circle
422.0,4.0,4.0,0.0,1.0,1.0,443.3683480001491,3.0,1.0,phase_1,,,,,,,,,,,,,blue,flipped triangle
118.0,6.0,2.0,1.0,2.0,2.0,400.9553219998452,3.0,1.0,phase_1,,,,,,,,,,,,,orange,triangle
201.0,3.0,3.0,0.0,1.0,1.0,378.0994300000202,3.0,1.0,phase_1,,,,,,,,,,,,,magenta,hexagon
116.0,6.0,2.0,1.0,2.0,2.0,305.5793639996409,3.0,1.0,phase_1,,,,,,,,,,,,,orange,triangle
191.0,3.0,3.0,0.0,3.0,3.0,388.743439999871,4.0,1.0,phase_1,,,,,,,,,,,,,magenta,hexagon
0.0,3.0,0.0,0.0,4.0,4.0,325.5263329997433,4.0,1.0,phase_1,,,,,,,,,,,,,magenta,hexagon
103.0,6.0,2.0,1.0,4.0,4.0,413.7517399999524,4.0,1.0,phase_1,,,,,,,,,,,,,orange,triangle
58.0,5.0,1.0,1.0,4.0,4.0,440.4066609999972,4.0,1.0,phase_1,,,,,,,,,,,,,yellow,cross
193.0,7.0,3.0,1.0,3.0,3.0,410.892456000056,4.0,1.0,phase_1,,,,,,,,,,,,,gray,diamond
180.0,3.0,3.0,0.0,4.0,4.0,347.6738710000973,4.0,1.0,phase_1,,,,,,,,,,,,,magenta,hexagon
104.0,6.0,2.0,1.0,4.0,4.0,497.3397959997783,4.0,1.0,phase_1,,,,,,,,,,,,,orange,triangle
219.0,7.0,3.0,1.0,1.0,1.0,400.7149230001232,4.0,1.0,phase_1,,,,,,,,,,,,,gray,diamond
210.0,7.0,3.0,1.0,1.0,1.0,314.0017079999779,4.0,1.0,phase_1,,,,,,,,,,,,,gray,diamond
0.0,2.0,0.0,0.0,4.0,4.0,376.5261100002135,4.0,1.0,phase_1,,,,,,,,,,,,,white,circle
406.0,4.0,4.0,0.0,4.0,4.0,481.2927929997386,4.0,1.0,phase_1,,,,,,,,,,,,,blue,flipped triangle
95.0,2.0,2.0,0.0,2.0,2.0,328.1443440000657,4.0,1.0,phase_1,,,,,,,,,,,,,white,circle
419.0,8.0,4.0,1.0,1.0,1.0,362.7460370003064,4.0,1.0,phase_1,,,,,,,,,,,,,green,square
219.0,3.0,3.0,0.0,1.0,1.0,389.9140309999893,4.0,1.0,phase_1,,,,,,,,,,,,,magenta,hexagon
406.0,4.0,4.0,0.0,4.0,4.0,422.5702419998924,4.0,1.0,phase_1,,,,,,,,,,,,,blue,flipped triangle
98.0,6.0,2.0,1.0,3.0,3.0,377.5065309996535,4.0,1.0,phase_1,,,,,,,,,,,,,orange,triangle
111.0,6.0,2.0,1.0,3.0,3.0,379.451409000012,4.0,1.0,phase_1,,,,,,,,,,,,,orange,triangle
375.0,4.0,4.0,0.0,1.0,1.0,421.07367800008427,4.0,1.0,phase_1,,,,,,,,,,,,,blue,flipped triangle
80.0,6.0,2.0,1.0,4.0,4.0,402.9746040000646,4.0,1.0,phase_1,,,,,,,,,,,,,orange,triangle
0.0,4.0,0.0,0.0,3.0,3.0,406.1514929999248,4.0,1.0,phase_1,,,,,,,,,,,,,blue,flipped triangle
0.0,3.0,0.0,0.0,1.0,1.0,388.1240030000299,4.0,1.0,phase_1,,,,,,,,,,,,,magenta,hexagon
402.0,4.0,4.0,0.0,3.0,3.0,353.8080899998022,4.0,1.0,phase_1,,,,,,,,,,,,,blue,flipped triangle
59.0,1.0,1.0,0.0,3.0,3.0,404.64790899977737,4.0,1.0,phase_1,,,,,,,,,,,,,cyan,I
0.0,2.0,0.0,0.0,4.0,4.0,461.5168860000267,4.0,1.0,phase_1,,,,,,,,,,,,,white,circle
375.0,8.0,4.0,1.0,3.0,3.0,386.1483519999638,4.0,1.0,phase_1,,,,,,,,,,,,,green,square
182.0,7.0,3.0,1.0,3.0,3.0,476.6709209998225,4.0,1.0,phase_1,,,,,,,,,,,,,gray,diamond
0.0,1.0,0.0,0.0,2.0,2.0,388.5003649997998,4.0,1.0,phase_1,,,,,,,,,,,,,cyan,I
0.0,3.0,0.0,0.0,3.0,3.0,362.1613860000252,4.0,1.0,phase_1,,,,,,,,,,,,,magenta,hexagon
112.0,2.0,2.0,0.0,1.0,1.0,407.846907000021,4.0,1.0,phase_1,,,,,,,,,,,,,white,circle
205.0,3.0,3.0,0.0,1.0,1.0,351.9870049999554,4.0,1.0,phase_1,,,,,,,,,,,,,magenta,hexagon
52.0,1.0,1.0,0.0,3.0,3.0,377.6636080001481,4.0,1.0,phase_1,,,,,,,,,,,,,cyan,I
397.0,4.0,4.0,0.0,2.0,2.0,326.8510790003347,4.0,1.0,phase_1,,,,,,,,,,,,,blue,flipped triangle
0.0,8.0,0.0,1.0,3.0,3.0,334.6714639997117,4.0,1.0,phase_1,,,,,,,,,,,,,green,square
388.0,8.0,4.0,1.0,2.0,2.0,324.2538679996869,4.0,1.0,phase_1,,,,,,,,,,,,,green,square
0.0,1.0,0.0,0.0,3.0,3.0,402.1497180001461,4.0,1.0,phase_1,,,,,,,,,,,,,cyan,I
109.0,2.0,2.0,0.0,2.0,2.0,335.2733430001535,4.0,1.0,phase_1,,,,,,,,,,,,,white,circle
96.0,6.0,2.0,1.0,4.0,4.0,382.1237249999285,4.0,1.0,phase_1,,,,,,,,,,,,,orange,triangle
184.0,7.0,3.0,1.0,1.0,1.0,377.0990769999116,4.0,1.0,phase_1,,,,,,,,,,,,,gray,diamond
88.0,2.0,2.0,0.0,2.0,2.0,370.8101269999133,4.0,1.0,phase_1,,,,,,,,,,,,,white,circle
0.0,1.0,0.0,0.0,4.0,4.0,557.1494800001346,4.0,1.0,phase_1,,,,,,,,,,,,,cyan,I
193.0,3.0,3.0,0.0,2.0,2.0,345.1697149998836,4.0,1.0,phase_1,,,,,,,,,,,,,magenta,hexagon
32.0,1.0,1.0,0.0,2.0,2.0,342.0594649996928,4.0,1.0,phase_1,,,,,,,,,,,,,cyan,I
180.0,7.0,3.0,1.0,4.0,4.0,469.5819909998135,4.0,1.0,phase_1,,,,,,,,,,,,,gray,diamond
386.0,4.0,4.0,0.0,3.0,3.0,346.7111009999826,4.0,1.0,phase_1,,,,,,,,,,,,,blue,flipped triangle
81.0,2.0,2.0,0.0,3.0,3.0,410.9395220002625,4.0,1.0,phase_1,,,,,,,,,,,,,white,circle
414.0,8.0,4.0,1.0,4.0,4.0,407.7729700002237,4.0,1.0,phase_1,,,,,,,,,,,,,green,square
114.0,2.0,2.0,0.0,3.0,3.0,326.6679630000908,4.0,1.0,phase_1,,,,,,,,,,,,,white,circle
221.0,7.0,3.0,1.0,2.0,2.0,345.3867690000152,4.0,1.0,phase_1,,,,,,,,,,,,,gray,diamond
67.0,1.0,1.0,0.0,4.0,4.0,339.2326279999906,4.0,1.0,phase_1,,,,,,,,,,,,,cyan,I
191.0,7.0,3.0,1.0,2.0,2.0,304.8377689997323,4.0,1.0,phase_1,,,,,,,,,,,,,gray,diamond
0.0,2.0,0.0,0.0,2.0,2.0,304.6979159998955,4.0,1.0,phase_1,,,,,,,,,,,,,white,circle
114.0,2.0,2.0,0.0,1.0,1.0,357.9881079999722,4.0,1.0,phase_1,,,,,,,,,,,,,white,circle
0.0,7.0,0.0,1.0,1.0,1.0,435.6594469995798,4.0,1.0,phase_1,,,,,,,,,,,,,gray,diamond
0.0,3.0,0.0,0.0,3.0,3.0,377.2416070000872,4.0,1.0,phase_1,,,,,,,,,,,,,magenta,hexagon
419.0,4.0,4.0,0.0,3.0,3.0,331.6621499998291,4.0,1.0,phase_1,,,,,,,,,,,,,blue,flipped triangle
201.0,3.0,3.0,0.0,3.0,3.0,343.7220590003562,4.0,1.0,phase_1,,,,,,,,,,,,,magenta,hexagon
62.0,5.0,1.0,1.0,1.0,1.0,374.3784600001163,4.0,1.0,phase_1,,,,,,,,,,,,,yellow,cross
103.0,2.0,2.0,0.0,1.0,1.0,394.6021070000824,4.0,1.0,phase_1,,,,,,,,,,,,,white,circle
114.0,6.0,2.0,1.0,1.0,1.0,413.5272220000843,4.0,1.0,phase_1,,,,,,,,,,,,,orange,triangle
189.0,7.0,3.0,1.0,4.0,4.0,425.6383440001627,4.0,1.0,phase_1,,,,,,,,,,,,,gray,diamond
217.0,3.0,3.0,0.0,3.0,3.0,344.3032529999072,4.0,1.0,phase_1,,,,,,,,,,,,,magenta,hexagon
0.0,8.0,0.0,1.0,4.0,4.0,400.6062210000891,4.0,1.0,phase_1,,,,,,,,,,,,,green,square
60.0,5.0,1.0,1.0,1.0,1.0,366.8622489999507,4.0,1.0,phase_1,,,,,,,,,,,,,yellow,cross
0.0,8.0,0.0,1.0,4.0,4.0,341.3982480001323,4.0,1.0,phase_1,,,,,,,,,,,,,green,square
0.0,4.0,0.0,0.0,3.0,3.0,342.8915019999294,4.0,1.0,phase_1,,,,,,,,,,,,,blue,flipped triangle
110.0,6.0,2.0,1.0,1.0,1.0,441.1527269999169,4.0,1.0,phase_1,,,,,,,,,,,,,orange,triangle
92.0,2.0,2.0,0.0,1.0,1.0,389.133781000055,4.0,1.0,phase_1,,,,,,,,,,,,,white,circle
52.0,5.0,1.0,1.0,3.0,3.0,311.0388479999528,4.0,1.0,phase_1,,,,,,,,,,,,,yellow,cross
200.0,3.0,3.0,0.0,2.0,2.0,312.087707000046,4.0,1.0,phase_1,,,,,,,,,,,,,magenta,hexagon
106.0,2.0,2.0,0.0,3.0,3.0,325.0701980000485,4.0,1.0,phase_1,,,,,,,,,,,,,white,circle
412.0,4.0,4.0,0.0,4.0,4.0,375.797521000095,4.0,1.0,phase_1,,,,,,,,,,,,,blue,flipped triangle
54.0,1.0,1.0,0.0,3.0,3.0,386.4603470001384,4.0,1.0,phase_1,,,,,,,,,,,,,cyan,I
41.0,5.0,1.0,1.0,2.0,2.0,364.1598869999143,4.0,1.0,phase_1,,,,,,,,,,,,,yellow,cross
395.0,8.0,4.0,1.0,4.0,4.0,423.8905140000497,4.0,1.0,phase_1,,,,,,,,,,,,,green,square
48.0,5.0,1.0,1.0,4.0,4.0,472.0478239996737,4.0,1.0,phase_1,,,,,,,,,,,,,yellow,cross
389.0,4.0,4.0,0.0,3.0,3.0,473.3604429998195,4.0,1.0,phase_1,,,,,,,,,,,,,blue,flipped triangle
420.0,8.0,4.0,1.0,2.0,2.0,372.207779999826,4.0,1.0,phase_1,,,,,,,,,,,,,green,square
407.0,4.0,4.0,0.0,3.0,3.0,400.9019089999128,4.0,1.0,phase_1,,,,,,,,,,,,,blue,flipped triangle
0.0,6.0,0.0,1.0,4.0,4.0,396.6060620000462,4.0,1.0,phase_1,,,,,,,,,,,,,orange,triangle
0.0,1.0,0.0,0.0,2.0,2.0,332.6441089998297,4.0,1.0,phase_1,,,,,,,,,,,,,cyan,I
219.0,7.0,3.0,1.0,4.0,4.0,515.8546099996784,4.0,1.0,phase_1,,,,,,,,,,,,,gray,diamond
0.0,6.0,0.0,1.0,3.0,3.0,358.6040709997178,4.0,1.0,phase_1,,,,,,,,,,,,,orange,triangle
70.0,5.0,1.0,1.0,3.0,3.0,342.6760649999778,4.0,1.0,phase_1,,,,,,,,,,,,,yellow,cross
198.0,3.0,3.0,0.0,1.0,1.0,634.3303779999587,4.0,1.0,phase_1,,,,,,,,,,,,,magenta,hexagon
416.0,8.0,4.0,1.0,3.0,3.0,366.9156969999676,4.0,1.0,phase_1,,,,,,,,,,,,,green,square
88.0,6.0,2.0,1.0,4.0,4.0,352.2618219999458,4.0,1.0,phase_1,,,,,,,,,,,,,orange,triangle
59.0,1.0,1.0,0.0,4.0,4.0,377.2651829999631,4.0,1.0,phase_1,,,,,,,,,,,,,cyan,I
399.0,8.0,4.0,1.0,3.0,3.0,335.7266779999008,4.0,1.0,phase_1,,,,,,,,,,,,,green,square
0.0,8.0,0.0,1.0,2.0,2.0,487.9537520000667,4.0,1.0,phase_1,,,,,,,,,,,,,green,square
391.0,8.0,4.0,1.0,2.0,2.0,360.3314099996169,4.0,1.0,phase_1,,,,,,,,,,,,,green,square
0.0,7.0,0.0,1.0,2.0,2.0,433.1187299999328,4.0,1.0,phase_1,,,,,,,,,,,,,gray,diamond
210.0,3.0,3.0,0.0,4.0,4.0,396.973615999741,4.0,1.0,phase_1,,,,,,,,,,,,,magenta,hexagon
410.0,8.0,4.0,1.0,3.0,3.0,311.8152820002251,4.0,1.0,phase_1,,,,,,,,,,,,,green,square
87.0,2.0,2.0,0.0,1.0,1.0,305.6071140003951,4.0,1.0,phase_1,,,,,,,,,,,,,white,circle
64.0,5.0,1.0,1.0,1.0,1.0,374.3158540000877,4.0,1.0,phase_1,,,,,,,,,,,,,yellow,cross
0.0,8.0,0.0,1.0,3.0,3.0,377.8153569996902,4.0,1.0,phase_1,,,,,,,,,,,,,green,square
95.0,6.0,2.0,1.0,3.0,3.0,331.1966119999852,4.0,1.0,phase_1,,,,,,,,,,,,,orange,triangle
56.0,5.0,1.0,1.0,3.0,3.0,304.0813339998749,4.0,1.0,phase_1,,,,,,,,,,,,,yellow,cross
32.0,5.0,1.0,1.0,2.0,2.0,369.1438490000109,4.0,1.0,phase_1,,,,,,,,,,,,,yellow,cross
394.0,8.0,4.0,1.0,4.0,4.0,343.1145119998291,4.0,1.0,phase_1,,,,,,,,,,,,,green,square
0.0,2.0,2.0,0.0,6.0,6.0,388.9639530002569,1.0,1.0,phase_2,go,250.0,250.0,1.0,,,,,,,,,white,circle
0.0,1.0,1.0,0.0,5.0,5.0,544.526243999826,1.0,1.0,phase_2,go,250.0,250.0,1.0,,,,,,,,,cyan,I
0.0,8.0,4.0,1.0,5.0,5.0,448.3800349999001,1.0,1.0,phase_2,go,250.0,250.0,1.0,,,,,,,,,green,square
0.0,3.0,3.0,0.0,5.0,5.0,355.2563729999747,1.0,1.0,phase_2,go,250.0,250.0,1.0,,,,,,,,,magenta,hexagon
0.0,1.0,1.0,0.0,6.0,6.0,423.3192149999922,1.0,1.0,phase_2,go,250.0,250.0,1.0,,,,,,,,,cyan,I
0.0,1.0,1.0,0.0,6.0,6.0,387.0584530000087,1.0,1.0,phase_2,go,250.0,250.0,1.0,,,,,,,,,cyan,I
0.0,3.0,3.0,0.0,6.0,6.0,287.7616980003949,1.0,1.0,phase_2,go,250.0,250.0,1.0,,,,,,,,,magenta,hexagon
0.0,8.0,4.0,1.0,5.0,5.0,479.6389600001021,1.0,1.0,phase_2,stop,250.0,250.0,3.0,,,,,,,,,green,square
0.0,4.0,4.0,0.0,6.0,6.0,371.5710319997924,1.0,1.0,phase_2,go,200.0,250.0,1.0,,,,,,,,,blue,flipped triangle
0.0,2.0,2.0,0.0,5.0,5.0,524.3248179999682,1.0,1.0,phase_2,go,200.0,250.0,1.0,,,,,,,,,white,circle
0.0,5.0,1.0,1.0,6.0,0.0,0.0,1.0,1.0,phase_2,stop,200.0,250.0,4.0,,,,,,,,,yellow,cross
0.0,7.0,3.0,1.0,5.0,5.0,325.7302160000108,1.0,1.0,phase_2,go,200.0,300.0,1.0,,,,,,,,,gray,diamond
0.0,5.0,1.0,1.0,5.0,0.0,0.0,1.0,1.0,phase_2,stop,200.0,300.0,4.0,,,,,,,,,yellow,cross
0.0,6.0,2.0,1.0,6.0,0.0,0.0,1.0,1.0,phase_2,stop,250.0,300.0,4.0,,,,,,,,,orange,triangle
0.0,8.0,4.0,1.0,5.0,0.0,0.0,1.0,1.0,phase_2,stop,250.0,350.0,4.0,,,,,,,,,green,square
0.0,1.0,1.0,0.0,6.0,6.0,493.2772209999712,1.0,1.0,phase_2,go,300.0,350.0,1.0,,,,,,,,,cyan,I
0.0,4.0,4.0,0.0,5.0,5.0,607.2000510002908,1.0,1.0,phase_2,go,300.0,350.0,1.0,,,,,,,,,blue,flipped triangle
0.0,2.0,2.0,0.0,6.0,6.0,843.8964900001338,1.0,1.0,phase_2,go,300.0,350.0,1.0,,,,,,,,,white,circle
0.0,2.0,2.0,0.0,5.0,5.0,722.1517140001197,1.0,1.0,phase_2,go,300.0,350.0,1.0,,,,,,,,,white,circle
0.0,3.0,3.0,0.0,5.0,5.0,709.9499519999881,1.0,1.0,phase_2,go,300.0,350.0,1.0,,,,,,,,,magenta,hexagon
0.0,3.0,3.0,0.0,5.0,5.0,729.4932350000636,1.0,1.0,phase_2,go,300.0,350.0,1.0,,,,,,,,,magenta,hexagon
0.0,6.0,2.0,1.0,5.0,0.0,0.0,1.0,1.0,phase_2,stop,300.0,350.0,4.0,,,,,,,,,orange,triangle
0.0,7.0,3.0,1.0,5.0,5.0,1003.745359000277,1.0,1.0,phase_2,go,350.0,350.0,1.0,,,,,,,,,gray,diamond
0.0,3.0,3.0,0.0,6.0,6.0,953.833012999894,1.0,1.0,phase_2,go,350.0,350.0,1.0,,,,,,,,,magenta,hexagon
0.0,3.0,3.0,0.0,6.0,6.0,788.9566069998182,1.0,1.0,phase_2,go,350.0,350.0,1.0,,,,,,,,,magenta,hexagon
0.0,8.0,4.0,1.0,6.0,0.0,0.0,1.0,1.0,phase_2,stop,350.0,350.0,4.0,,,,,,,,,green,square
0.0,8.0,4.0,1.0,6.0,0.0,0.0,1.0,1.0,phase_2,stop,350.0,400.0,4.0,,,,,,,,,green,square
0.0,8.0,4.0,1.0,6.0,0.0,0.0,1.0,1.0,phase_2,stop,350.0,450.0,4.0,,,,,,,,,green,square
0.0,4.0,4.0,0.0,5.0,5.0,870.7520040002237,1.0,1.0,phase_2,go,350.0,500.0,1.0,,,,,,,,,blue,flipped triangle
0.0,6.0,2.0,1.0,6.0,0.0,0.0,1.0,1.0,phase_2,stop,350.0,500.0,4.0,,,,,,,,,orange,triangle
0.0,6.0,2.0,1.0,5.0,0.0,0.0,1.0,1.0,phase_2,stop,350.0,550.0,4.0,,,,,,,,,orange,triangle
0.0,3.0,3.0,0.0,5.0,5.0,742.9370989998461,1.0,1.0,phase_2,go,400.0,550.0,1.0,,,,,,,,,magenta,hexagon
0.0,8.0,4.0,1.0,6.0,0.0,0.0,1.0,1.0,phase_2,stop,400.0,550.0,4.0,,,,,,,,,green,square
0.0,4.0,4.0,0.0,6.0,6.0,810.8543410003222,1.0,1.0,phase_2,go,400.0,600.0,1.0,,,,,,,,,blue,flipped triangle
0.0,5.0,1.0,1.0,5.0,0.0,0.0,1.0,1.0,phase_2,stop,400.0,600.0,4.0,,,,,,,,,yellow,cross
0.0,4.0,4.0,0.0,6.0,6.0,1085.142494000138,1.0,1.0,phase_2,go,450.0,600.0,1.0,,,,,,,,,blue,flipped triangle
0.0,7.0,3.0,1.0,6.0,6.0,542.9617029999463,2.0,1.0,phase_2,stop,450.0,600.0,3.0,,,,,,,,,gray,diamond
0.0,5.0,1.0,1.0,5.0,5.0,562.3789649998798,2.0,1.0,phase_2,stop,450.0,550.0,3.0,,,,,,,,,yellow,cross
0.0,6.0,2.0,1.0,6.0,0.0,0.0,2.0,1.0,phase_2,stop,400.0,550.0,4.0,,,,,,,,,orange,triangle
0.0,1.0,1.0,0.0,5.0,5.0,690.1961100002154,2.0,1.0,phase_2,go,400.0,600.0,1.0,,,,,,,,,cyan,I
0.0,4.0,4.0,0.0,5.0,5.0,508.32266399993387,2.0,1.0,phase_2,go,400.0,600.0,1.0,,,,,,,,,blue,flipped triangle
0.0,2.0,2.0,0.0,6.0,6.0,816.557295000166,2.0,1.0,phase_2,go,400.0,600.0,1.0,,,,,,,,,white,circle
0.0,7.0,3.0,1.0,6.0,0.0,0.0,2.0,1.0,phase_2,stop,400.0,600.0,4.0,,,,,,,,,gray,diamond
0.0,7.0,3.0,1.0,6.0,0.0,0.0,2.0,1.0,phase_2,stop,400.0,650.0,4.0,,,,,,,,,gray,diamond
0.0,3.0,3.0,0.0,6.0,6.0,763.2829389999642,2.0,1.0,phase_2,go,400.0,700.0,1.0,,,,,,,,,magenta,hexagon
0.0,6.0,2.0,1.0,6.0,6.0,777.3805729998458,2.0,1.0,phase_2,stop,400.0,700.0,3.0,,,,,,,,,orange,triangle
0.0,1.0,1.0,0.0,5.0,5.0,899.2705470000146,2.0,1.0,phase_2,go,400.0,650.0,1.0,,,,,,,,,cyan,I
0.0,3.0,3.0,0.0,6.0,6.0,878.9448799998354,2.0,1.0,phase_2,go,400.0,650.0,1.0,,,,,,,,,magenta,hexagon
0.0,7.0,3.0,1.0,6.0,0.0,0.0,2.0,1.0,phase_2,stop,400.0,650.0,4.0,,,,,,,,,gray,diamond
0.0,1.0,1.0,0.0,5.0,5.0,788.5330399999475,2.0,1.0,phase_2,go,400.0,700.0,1.0,,,,,,,,,cyan,I
0.0,7.0,3.0,1.0,5.0,5.0,878.9155619997473,2.0,1.0,phase_2,go,400.0,700.0,1.0,,,,,,,,,gray,diamond
0.0,1.0,1.0,0.0,5.0,5.0,479.2094320000615,2.0,1.0,phase_2,go,400.0,700.0,1.0,,,,,,,,,cyan,I
0.0,6.0,2.0,1.0,5.0,5.0,561.3606199999595,2.0,1.0,phase_2,go,400.0,700.0,1.0,,,,,,,,,orange,triangle
0.0,6.0,2.0,1.0,6.0,0.0,0.0,2.0,1.0,phase_2,stop,400.0,700.0,4.0,,,,,,,,,orange,triangle
0.0,2.0,2.0,0.0,5.0,5.0,980.1556879997406,2.0,1.0,phase_2,go,400.0,750.0,1.0,,,,,,,,,white,circle
0.0,8.0,4.0,1.0,5.0,0.0,0.0,2.0,1.0,phase_2,stop,400.0,750.0,4.0,,,,,,,,,green,square
0.0,5.0,1.0,1.0,6.0,0.0,0.0,2.0,1.0,phase_2,stop,450.0,750.0,4.0,,,,,,,,,yellow,cross
0.0,6.0,2.0,1.0,6.0,6.0,981.5347369999472,2.0,1.0,phase_2,go,450.0,800.0,1.0,,,,,,,,,orange,triangle
0.0,2.0,2.0,0.0,5.0,5.0,1100.463218999721,2.0,1.0,phase_2,go,450.0,800.0,1.0,,,,,,,,,white,circle
0.0,3.0,3.0,0.0,6.0,6.0,1107.5229570001284,2.0,1.0,phase_2,go,450.0,800.0,1.0,,,,,,,,,magenta,hexagon
0.0,2.0,2.0,0.0,5.0,5.0,493.1436900001245,2.0,1.0,phase_2,go,450.0,800.0,1.0,,,,,,,,,white,circle
0.0,7.0,3.0,1.0,5.0,5.0,1014.1739149999012,2.0,1.0,phase_2,go,450.0,800.0,1.0,,,,,,,,,gray,diamond
0.0,5.0,1.0,1.0,5.0,5.0,1024.397736000083,2.0,1.0,phase_2,go,450.0,800.0,1.0,,,,,,,,,yellow,cross
0.0,8.0,4.0,1.0,5.0,5.0,584.0589049998925,2.0,1.0,phase_2,stop,450.0,800.0,3.0,,,,,,,,,green,square
0.0,1.0,1.0,0.0,6.0,6.0,743.2456089995867,2.0,1.0,phase_2,go,400.0,800.0,1.0,,,,,,,,,cyan,I
0.0,1.0,1.0,0.0,6.0,6.0,998.3964619996186,2.0,1.0,phase_2,go,400.0,800.0,1.0,,,,,,,,,cyan,I
0.0,1.0,1.0,0.0,5.0,5.0,1353.4407439997267,2.0,1.0,phase_2,go,400.0,800.0,1.0,,,,,,,,,cyan,I
0.0,8.0,4.0,1.0,5.0,5.0,1140.6097130002308,2.0,1.0,phase_2,go,400.0,800.0,1.0,,,,,,,,,green,square
0.0,5.0,1.0,1.0,5.0,0.0,0.0,2.0,1.0,phase_2,stop,400.0,800.0,4.0,,,,,,,,,yellow,cross
0.0,2.0,2.0,0.0,5.0,5.0,901.6911609996896,2.0,1.0,phase_2,go,450.0,800.0,1.0,,,,,,,,,white,circle
0.0,1.0,1.0,0.0,6.0,6.0,1005.1096339998369,2.0,1.0,phase_2,go,450.0,800.0,1.0,,,,,,,,,cyan,I
0.0,5.0,1.0,1.0,6.0,6.0,1070.6935829998656,2.0,1.0,phase_2,go,450.0,800.0,1.0,,,,,,,,,yellow,cross
0.0,5.0,1.0,1.0,5.0,5.0,547.282684000038,3.0,1.0,phase_2,go,450.0,800.0,1.0,,,,,,,,,yellow,cross
0.0,2.0,2.0,0.0,6.0,6.0,272.6391639998837,3.0,1.0,phase_2,go,450.0,800.0,1.0,,,,,,,,,white,circle
0.0,5.0,1.0,1.0,5.0,5.0,356.2758309999481,3.0,1.0,phase_2,stop,450.0,800.0,3.0,,,,,,,,,yellow,cross
0.0,4.0,4.0,0.0,6.0,6.0,463.4445289998439,3.0,1.0,phase_2,go,400.0,800.0,1.0,,,,,,,,,blue,flipped triangle
0.0,5.0,1.0,1.0,5.0,5.0,508.0522729999757,3.0,1.0,phase_2,go,400.0,800.0,1.0,,,,,,,,,yellow,cross
0.0,3.0,3.0,0.0,5.0,5.0,555.1999199997226,3.0,1.0,phase_2,go,400.0,800.0,1.0,,,,,,,,,magenta,hexagon
0.0,5.0,1.0,1.0,5.0,5.0,545.3354579999541,3.0,1.0,phase_2,stop,400.0,800.0,3.0,,,,,,,,,yellow,cross
0.0,6.0,2.0,1.0,6.0,6.0,545.4460270002528,3.0,1.0,phase_2,stop,350.0,800.0,3.0,,,,,,,,,orange,triangle
0.0,8.0,4.0,1.0,5.0,5.0,1041.038114999992,3.0,1.0,phase_2,go,350.0,750.0,1.0,,,,,,,,,green,square
0.0,5.0,1.0,1.0,6.0,0.0,0.0,3.0,1.0,phase_2,stop,350.0,750.0,4.0,,,,,,,,,yellow,cross
0.0,7.0,3.0,1.0,6.0,6.0,860.3452320003271,3.0,1.0,phase_2,stop,350.0,800.0,3.0,,,,,,,,,gray,diamond
0.0,2.0,2.0,0.0,6.0,6.0,1255.1503680001588,3.0,1.0,phase_2,go,350.0,750.0,1.0,,,,,,,,,white,circle
0.0,7.0,3.0,1.0,5.0,0.0,0.0,3.0,1.0,phase_2,stop,350.0,750.0,4.0,,,,,,,,,gray,diamond
0.0,4.0,4.0,0.0,5.0,5.0,830.8294299999943,3.0,1.0,phase_2,go,400.0,750.0,1.0,,,,,,,,,blue,flipped triangle
0.0,7.0,3.0,1.0,6.0,6.0,828.9664220001214,3.0,1.0,phase_2,stop,400.0,750.0,3.0,,,,,,,,,gray,diamond
0.0,2.0,2.0,0.0,5.0,5.0,559.9746380003126,3.0,1.0,phase_2,go,400.0,700.0,1.0,,,,,,,,,white,circle
0.0,1.0,1.0,0.0,6.0,6.0,801.6962130000138,3.0,1.0,phase_2,go,400.0,700.0,1.0,,,,,,,,,cyan,I
0.0,7.0,3.0,1.0,5.0,5.0,307.6417510001192,3.0,1.0,phase_2,stop,400.0,700.0,3.0,,,,,,,,,gray,diamond
0.0,5.0,1.0,1.0,5.0,0.0,0.0,3.0,1.0,phase_2,stop,350.0,700.0,4.0,,,,,,,,,yellow,cross
0.0,2.0,2.0,0.0,6.0,6.0,278.9864689998467,3.0,1.0,phase_2,go,400.0,700.0,1.0,,,,,,,,,white,circle
0.0,4.0,4.0,0.0,5.0,5.0,280.3328390000388,3.0,1.0,phase_2,go,400.0,700.0,1.0,,,,,,,,,blue,flipped triangle
0.0,3.0,3.0,0.0,5.0,5.0,350.5426380002063,3.0,1.0,phase_2,go,400.0,700.0,1.0,,,,,,,,,magenta,hexagon
0.0,2.0,2.0,0.0,6.0,6.0,324.0999570002714,3.0,1.0,phase_2,go,400.0,700.0,1.0,,,,,,,,,white,circle
0.0,4.0,4.0,0.0,6.0,6.0,495.18643600004,3.0,1.0,phase_2,go,400.0,700.0,1.0,,,,,,,,,blue,flipped triangle
0.0,8.0,4.0,1.0,5.0,5.0,804.7323130003861,3.0,1.0,phase_2,go,400.0,700.0,1.0,,,,,,,,,green,square
0.0,3.0,3.0,0.0,6.0,6.0,608.0756339997606,3.0,1.0,phase_2,go,400.0,700.0,1.0,,,,,,,,,magenta,hexagon
0.0,3.0,3.0,0.0,6.0,6.0,539.8291550000067,3.0,1.0,phase_2,go,400.0,700.0,1.0,,,,,,,,,magenta,hexagon
0.0,7.0,3.0,1.0,5.0,0.0,0.0,3.0,1.0,phase_2,stop,400.0,700.0,4.0,,,,,,,,,gray,diamond
0.0,6.0,2.0,1.0,5.0,0.0,0.0,3.0,1.0,phase_2,stop,450.0,700.0,4.0,,,,,,,,,orange,triangle
0.0,7.0,3.0,1.0,5.0,5.0,751.2469829998736,3.0,1.0,phase_2,go,500.0,700.0,1.0,,,,,,,,,gray,diamond
0.0,7.0,3.0,1.0,5.0,5.0,370.8930030002193,3.0,1.0,phase_2,stop,500.0,700.0,3.0,,,,,,,,,gray,diamond
0.0,3.0,3.0,0.0,5.0,5.0,858.3060910000313,3.0,1.0,phase_2,go,450.0,700.0,1.0,,,,,,,,,magenta,hexagon
0.0,4.0,4.0,0.0,6.0,6.0,287.8792540000177,3.0,1.0,phase_2,go,450.0,700.0,1.0,,,,,,,,,blue,flipped triangle
0.0,4.0,4.0,0.0,6.0,6.0,300.5239539998001,3.0,1.0,phase_2,go,450.0,700.0,1.0,,,,,,,,,blue,flipped triangle
0.0,7.0,3.0,1.0,5.0,5.0,302.7715100001842,3.0,1.0,phase_2,stop,450.0,700.0,3.0,,,,,,,,,gray,diamond
0.0,1.0,1.0,0.0,6.0,6.0,351.5328859994042,3.0,1.0,phase_2,go,400.0,700.0,1.0,,,,,,,,,cyan,I
0.0,3.0,3.0,0.0,6.0,6.0,817.6574939998318,4.0,1.0,phase_2,go,400.0,700.0,1.0,,,,,,,,,magenta,hexagon
0.0,7.0,3.0,1.0,6.0,6.0,300.3257410000515,4.0,1.0,phase_2,stop,400.0,700.0,3.0,,,,,,,,,gray,diamond
0.0,3.0,3.0,0.0,5.0,5.0,274.6464490001017,4.0,1.0,phase_2,go,400.0,650.0,1.0,,,,,,,,,magenta,hexagon
0.0,4.0,4.0,0.0,6.0,6.0,284.1358710002168,4.0,1.0,phase_2,go,400.0,650.0,1.0,,,,,,,,,blue,flipped triangle
0.0,8.0,4.0,1.0,6.0,6.0,298.2491569991907,4.0,1.0,phase_2,stop,400.0,650.0,3.0,,,,,,,,,green,square
0.0,1.0,1.0,0.0,5.0,5.0,388.3458340005745,4.0,1.0,phase_2,go,400.0,600.0,1.0,,,,,,,,,cyan,I
0.0,6.0,2.0,1.0,6.0,6.0,297.5075350004772,4.0,1.0,phase_2,stop,400.0,600.0,3.0,,,,,,,,,orange,triangle
0.0,2.0,2.0,0.0,5.0,5.0,294.7573820001707,4.0,1.0,phase_2,go,400.0,550.0,1.0,,,,,,,,,white,circle
0.0,7.0,3.0,1.0,6.0,6.0,520.0213749994873,4.0,1.0,phase_2,stop,400.0,550.0,3.0,,,,,,,,,gray,diamond
0.0,1.0,1.0,0.0,5.0,5.0,273.9860770006999,4.0,1.0,phase_2,go,400.0,500.0,1.0,,,,,,,,,cyan,I
0.0,5.0,1.0,1.0,5.0,5.0,557.705664000423,4.0,1.0,phase_2,stop,400.0,500.0,3.0,,,,,,,,,yellow,cross
0.0,4.0,4.0,0.0,5.0,5.0,467.7584700002626,4.0,1.0,phase_2,go,350.0,500.0,1.0,,,,,,,,,blue,flipped triangle
0.0,2.0,2.0,0.0,5.0,5.0,777.0066330003829,4.0,1.0,phase_2,go,350.0,500.0,1.0,,,,,,,,,white,circle
0.0,2.0,2.0,0.0,6.0,6.0,341.1254610000469,4.0,1.0,phase_2,go,350.0,500.0,1.0,,,,,,,,,white,circle
0.0,4.0,4.0,0.0,6.0,6.0,250.6867860001875,4.0,1.0,phase_2,go,350.0,500.0,1.0,,,,,,,,,blue,flipped triangle
0.0,2.0,2.0,0.0,6.0,6.0,277.0221359996867,4.0,1.0,phase_2,go,350.0,500.0,1.0,,,,,,,,,white,circle
0.0,4.0,4.0,0.0,6.0,6.0,247.214067000641,4.0,1.0,phase_2,go,350.0,500.0,1.0,,,,,,,,,blue,flipped triangle
0.0,6.0,2.0,1.0,5.0,5.0,432.6911869993637,4.0,1.0,phase_2,stop,350.0,500.0,3.0,,,,,,,,,orange,triangle
0.0,4.0,4.0,0.0,5.0,5.0,478.596805000052,4.0,1.0,phase_2,go,300.0,500.0,1.0,,,,,,,,,blue,flipped triangle
0.0,3.0,3.0,0.0,6.0,6.0,250.89489499987388,4.0,1.0,phase_2,go,300.0,500.0,1.0,,,,,,,,,magenta,hexagon
0.0,8.0,4.0,1.0,5.0,0.0,0.0,4.0,1.0,phase_2,stop,300.0,500.0,4.0,,,,,,,,,green,square
0.0,6.0,2.0,1.0,6.0,6.0,277.1472490003361,4.0,1.0,phase_2,go,350.0,500.0,1.0,,,,,,,,,orange,triangle
0.0,6.0,2.0,1.0,5.0,5.0,302.8010999996695,4.0,1.0,phase_2,stop,350.0,500.0,3.0,,,,,,,,,orange,triangle
0.0,3.0,3.0,0.0,5.0,5.0,349.8851229996944,4.0,1.0,phase_2,go,300.0,500.0,1.0,,,,,,,,,magenta,hexagon
0.0,4.0,4.0,0.0,5.0,5.0,423.2896969997455,4.0,1.0,phase_2,go,300.0,500.0,1.0,,,,,,,,,blue,flipped triangle
0.0,4.0,4.0,0.0,6.0,6.0,269.7035719993437,4.0,1.0,phase_2,go,300.0,500.0,1.0,,,,,,,,,blue,flipped triangle
0.0,8.0,4.0,1.0,5.0,5.0,323.4227510001801,4.0,1.0,phase_2,go,300.0,500.0,1.0,,,,,,,,,green,square
0.0,8.0,4.0,1.0,5.0,5.0,331.2271009999676,4.0,1.0,phase_2,go,300.0,500.0,1.0,,,,,,,,,green,square
0.0,8.0,4.0,1.0,6.0,6.0,272.1591069994247,4.0,1.0,phase_2,stop,300.0,500.0,3.0,,,,,,,,,green,square
0.0,6.0,2.0,1.0,5.0,5.0,400.2291950000654,4.0,1.0,phase_2,stop,300.0,450.0,3.0,,,,,,,,,orange,triangle
0.0,5.0,1.0,1.0,5.0,0.0,0.0,4.0,1.0,phase_2,stop,250.0,450.0,4.0,,,,,,,,,yellow,cross
0.0,1.0,1.0,0.0,6.0,6.0,554.1424069997447,4.0,1.0,phase_2,go,300.0,450.0,1.0,,,,,,,,,cyan,I
0.0,3.0,3.0,0.0,6.0,6.0,383.4770389994446,4.0,1.0,phase_2,go,300.0,450.0,1.0,,,,,,,,,magenta,hexagon
0.0,7.0,3.0,1.0,5.0,5.0,288.2041029997708,4.0,1.0,phase_2,stop,300.0,450.0,3.0,,,,,,,,,gray,diamond
0.0,1.0,1.0,0.0,5.0,5.0,541.7914220006423,4.0,1.0,phase_2,go,250.0,450.0,1.0,,,,,,,,,cyan,I
0.0,6.0,2.0,1.0,6.0,6.0,611.685345999831,4.0,1.0,phase_2,go,250.0,450.0,1.0,,,,,,,,,orange,triangle
0.0,5.0,1.0,1.0,6.0,6.0,693.8989170002969,5.0,1.0,phase_2,stop,250.0,450.0,3.0,,,,,,,,,yellow,cross
0.0,8.0,4.0,1.0,5.0,0.0,0.0,5.0,1.0,phase_2,stop,250.0,400.0,4.0,,,,,,,,,green,square
0.0,3.0,3.0,0.0,6.0,6.0,557.8506649999326,5.0,1.0,phase_2,go,300.0,400.0,1.0,,,,,,,,,magenta,hexagon
0.0,5.0,1.0,1.0,5.0,0.0,0.0,5.0,1.0,phase_2,stop,300.0,400.0,4.0,,,,,,,,,yellow,cross
0.0,6.0,2.0,1.0,6.0,6.0,534.4197040003564,5.0,1.0,phase_2,stop,350.0,400.0,3.0,,,,,,,,,orange,triangle
0.0,1.0,1.0,0.0,5.0,5.0,572.502553999584,5.0,1.0,phase_2,go,350.0,350.0,1.0,,,,,,,,,cyan,I
0.0,7.0,3.0,1.0,6.0,6.0,554.9669020001602,5.0,1.0,phase_2,stop,350.0,350.0,3.0,,,,,,,,,gray,diamond
0.0,5.0,1.0,1.0,6.0,0.0,0.0,5.0,1.0,phase_2,stop,350.0,300.0,4.0,,,,,,,,,yellow,cross
0.0,7.0,3.0,1.0,6.0,6.0,588.3578350003518,5.0,1.0,phase_2,go,350.0,350.0,1.0,,,,,,,,,gray,diamond
0.0,2.0,2.0,0.0,5.0,5.0,465.4583789997559,5.0,1.0,phase_2,go,350.0,350.0,1.0,,,,,,,,,white,circle
0.0,3.0,3.0,0.0,6.0,6.0,310.3715959996407,5.0,1.0,phase_2,go,350.0,350.0,1.0,,,,,,,,,magenta,hexagon
0.0,2.0,2.0,0.0,6.0,6.0,458.5125280000284,5.0,1.0,phase_2,go,350.0,350.0,1.0,,,,,,,,,white,circle
0.0,2.0,2.0,0.0,5.0,5.0,610.6372260001081,5.0,1.0,phase_2,go,350.0,350.0,1.0,,,,,,,,,white,circle
0.0,8.0,4.0,1.0,5.0,5.0,361.5424180006812,5.0,1.0,phase_2,go,350.0,350.0,1.0,,,,,,,,,green,square
0.0,3.0,3.0,0.0,6.0,6.0,503.4794619996319,5.0,1.0,phase_2,go,350.0,350.0,1.0,,,,,,,,,magenta,hexagon
0.0,5.0,1.0,1.0,5.0,0.0,0.0,5.0,1.0,phase_2,stop,350.0,350.0,4.0,,,,,,,,,yellow,cross
0.0,5.0,1.0,1.0,6.0,6.0,520.2729599996019,5.0,1.0,phase_2,go,400.0,350.0,1.0,,,,,,,,,yellow,cross
0.0,6.0,2.0,1.0,5.0,5.0,315.3201779996379,5.0,1.0,phase_2,stop,400.0,350.0,3.0,,,,,,,,,orange,triangle
0.0,8.0,4.0,1.0,6.0,0.0,0.0,5.0,1.0,phase_2,stop,350.0,350.0,4.0,,,,,,,,,green,square
0.0,6.0,2.0,1.0,5.0,5.0,572.5067499997749,5.0,1.0,phase_2,go,350.0,400.0,1.0,,,,,,,,,orange,triangle
0.0,8.0,4.0,1.0,6.0,6.0,446.6334750004535,5.0,1.0,phase_2,stop,350.0,400.0,3.0,,,,,,,,,green,square
0.0,7.0,3.0,1.0,6.0,0.0,0.0,5.0,1.0,phase_2,stop,350.0,350.0,4.0,,,,,,,,,gray,diamond
0.0,8.0,4.0,1.0,6.0,0.0,0.0,5.0,1.0,phase_2,stop,350.0,400.0,4.0,,,,,,,,,green,square
0.0,4.0,4.0,0.0,6.0,6.0,382.0886129997234,5.0,1.0,phase_2,go,350.0,450.0,1.0,,,,,,,,,blue,flipped triangle
0.0,8.0,4.0,1.0,6.0,6.0,470.1236049995714,5.0,1.0,phase_2,go,350.0,450.0,1.0,,,,,,,,,green,square
0.0,8.0,4.0,1.0,5.0,5.0,612.2416330008491,5.0,1.0,phase_2,go,350.0,450.0,1.0,,,,,,,,,green,square
0.0,6.0,2.0,1.0,5.0,5.0,603.2946989998891,5.0,1.0,phase_2,go,350.0,450.0,1.0,,,,,,,,,orange,triangle
0.0,1.0,1.0,0.0,5.0,5.0,390.4363730007389,5.0,1.0,phase_2,go,350.0,450.0,1.0,,,,,,,,,cyan,I
0.0,4.0,4.0,0.0,6.0,6.0,400.6643120001172,5.0,1.0,phase_2,go,350.0,450.0,1.0,,,,,,,,,blue,flipped triangle
0.0,5.0,1.0,1.0,6.0,0.0,0.0,5.0,1.0,phase_2,stop,350.0,450.0,4.0,,,,,,,,,yellow,cross
0.0,4.0,4.0,0.0,6.0,6.0,1165.238030999717,5.0,1.0,phase_2,go,350.0,500.0,1.0,,,,,,,,,blue,flipped triangle
0.0,1.0,1.0,0.0,5.0,5.0,347.4553480000395,5.0,1.0,phase_2,go,350.0,500.0,1.0,,,,,,,,,cyan,I
0.0,2.0,2.0,0.0,6.0,6.0,527.3576569998113,5.0,1.0,phase_2,go,350.0,500.0,1.0,,,,,,,,,white,circle
0.0,2.0,2.0,0.0,5.0,5.0,380.1086539997413,5.0,1.0,phase_2,go,350.0,500.0,1.0,,,,,,,,,white,circle
0.0,7.0,3.0,1.0,6.0,0.0,0.0,5.0,1.0,phase_2,stop,350.0,500.0,4.0,,,,,,,,,gray,diamond
0.0,7.0,3.0,1.0,6.0,0.0,0.0,5.0,1.0,phase_2,stop,350.0,550.0,4.0,,,,,,,,,gray,diamond
0.0,4.0,4.0,0.0,6.0,6.0,380.5848949996289,6.0,1.0,phase_2,go,350.0,600.0,1.0,,,,,,,,,blue,flipped triangle
0.0,6.0,2.0,1.0,5.0,5.0,264.8294740001802,6.0,1.0,phase_2,stop,350.0,600.0,3.0,,,,,,,,,orange,triangle
0.0,2.0,2.0,0.0,6.0,6.0,548.7385759997778,6.0,1.0,phase_2,go,300.0,600.0,1.0,,,,,,,,,white,circle
0.0,1.0,1.0,0.0,6.0,6.0,554.6275870001409,6.0,1.0,phase_2,go,300.0,600.0,1.0,,,,,,,,,cyan,I
0.0,1.0,1.0,0.0,5.0,5.0,823.3073119999972,6.0,1.0,phase_2,go,300.0,600.0,1.0,,,,,,,,,cyan,I
0.0,2.0,2.0,0.0,6.0,6.0,308.3246870000948,6.0,1.0,phase_2,go,300.0,600.0,1.0,,,,,,,,,white,circle
0.0,1.0,1.0,0.0,5.0,5.0,453.4875359995567,6.0,1.0,phase_2,go,300.0,600.0,1.0,,,,,,,,,cyan,I
0.0,4.0,4.0,0.0,5.0,5.0,335.5757169993012,6.0,1.0,phase_2,go,300.0,600.0,1.0,,,,,,,,,blue,flipped triangle
0.0,8.0,4.0,1.0,6.0,6.0,310.7907129997329,6.0,1.0,phase_2,stop,300.0,600.0,3.0,,,,,,,,,green,square
0.0,2.0,2.0,0.0,5.0,5.0,694.5032920002632,6.0,1.0,phase_2,go,300.0,550.0,1.0,,,,,,,,,white,circle
0.0,8.0,4.0,1.0,5.0,0.0,0.0,6.0,1.0,phase_2,stop,300.0,550.0,4.0,,,,,,,,,green,square
0.0,3.0,3.0,0.0,5.0,5.0,530.1926459997048,6.0,1.0,phase_2,go,350.0,550.0,1.0,,,,,,,,,magenta,hexagon
0.0,1.0,1.0,0.0,6.0,6.0,797.1992809998483,6.0,1.0,phase_2,go,350.0,550.0,1.0,,,,,,,,,cyan,I
0.0,3.0,3.0,0.0,5.0,5.0,559.3198169999596,6.0,1.0,phase_2,go,350.0,550.0,1.0,,,,,,,,,magenta,hexagon
0.0,2.0,2.0,0.0,5.0,5.0,736.8247229996996,6.0,1.0,phase_2,go,350.0,550.0,1.0,,,,,,,,,white,circle
0.0,6.0,2.0,1.0,5.0,5.0,895.225907999702,6.0,1.0,phase_2,go,350.0,550.0,1.0,,,,,,,,,orange,triangle
0.0,2.0,2.0,0.0,5.0,5.0,516.2096940002812,6.0,1.0,phase_2,go,350.0,550.0,1.0,,,,,,,,,white,circle
0.0,8.0,4.0,1.0,6.0,6.0,535.4831209997428,6.0,1.0,phase_2,stop,350.0,550.0,3.0,,,,,,,,,green,square
0.0,1.0,1.0,0.0,5.0,5.0,590.872808000313,6.0,1.0,phase_2,go,350.0,500.0,1.0,,,,,,,,,cyan,I
0.0,5.0,1.0,1.0,6.0,6.0,569.2807069999617,6.0,1.0,phase_2,stop,350.0,500.0,3.0,,,,,,,,,yellow,cross
0.0,4.0,4.0,0.0,5.0,5.0,281.7569629996796,6.0,1.0,phase_2,go,350.0,450.0,1.0,,,,,,,,,blue,flipped triangle
0.0,8.0,4.0,1.0,5.0,0.0,0.0,6.0,1.0,phase_2,stop,350.0,450.0,4.0,,,,,,,,,green,square
0.0,6.0,2.0,1.0,6.0,6.0,480.0637409998671,6.0,1.0,phase_2,stop,400.0,450.0,3.0,,,,,,,,,orange,triangle
0.0,2.0,2.0,0.0,5.0,5.0,679.5008630006123,6.0,1.0,phase_2,go,400.0,400.0,1.0,,,,,,,,,white,circle
0.0,7.0,3.0,1.0,6.0,0.0,0.0,6.0,1.0,phase_2,stop,400.0,400.0,4.0,,,,,,,,,gray,diamond
0.0,5.0,1.0,1.0,6.0,0.0,0.0,6.0,1.0,phase_2,stop,400.0,450.0,4.0,,,,,,,,,yellow,cross
0.0,3.0,3.0,0.0,6.0,6.0,734.873871999298,6.0,1.0,phase_2,go,400.0,500.0,1.0,,,,,,,,,magenta,hexagon
0.0,8.0,4.0,1.0,6.0,6.0,672.0365519995539,6.0,1.0,phase_2,stop,400.0,500.0,3.0,,,,,,,,,green,square
0.0,6.0,2.0,1.0,6.0,0.0,0.0,6.0,1.0,phase_2,stop,400.0,450.0,4.0,,,,,,,,,orange,triangle
0.0,4.0,4.0,0.0,6.0,6.0,705.403361000208,6.0,1.0,phase_2,go,400.0,500.0,1.0,,,,,,,,,blue,flipped triangle
0.0,1.0,1.0,0.0,6.0,6.0,678.9552290001666,6.0,1.0,phase_2,go,400.0,500.0,1.0,,,,,,,,,cyan,I
0.0,4.0,4.0,0.0,5.0,5.0,706.9298189999245,6.0,1.0,phase_2,go,400.0,500.0,1.0,,,,,,,,,blue,flipped triangle
0.0,5.0,1.0,1.0,6.0,6.0,286.2400590001925,6.0,1.0,phase_2,stop,400.0,500.0,3.0,,,,,,,,,yellow,cross
0.0,1.0,1.0,0.0,6.0,6.0,402.1719769998526,6.0,1.0,phase_2,go,400.0,450.0,1.0,,,,,,,,,cyan,I
0.0,2.0,2.0,0.0,6.0,6.0,360.86368100041,6.0,1.0,phase_2,go,400.0,450.0,1.0,,,,,,,,,white,circle
0.0,6.0,2.0,1.0,5.0,0.0,0.0,6.0,1.0,phase_2,stop,400.0,450.0,4.0,,,,,,,,,orange,triangle
0.0,7.0,3.0,1.0,5.0,5.0,578.8521640006365,7.0,1.0,phase_2,go,450.0,450.0,1.0,,,,,,,,,gray,diamond
0.0,5.0,1.0,1.0,6.0,0.0,0.0,7.0,1.0,phase_2,stop,450.0,450.0,4.0,,,,,,,,,yellow,cross
0.0,6.0,2.0,1.0,5.0,0.0,0.0,7.0,1.0,phase_2,stop,450.0,500.0,4.0,,,,,,,,,orange,triangle
0.0,7.0,3.0,1.0,6.0,0.0,0.0,7.0,1.0,phase_2,stop,500.0,500.0,4.0,,,,,,,,,gray,diamond
0.0,7.0,3.0,1.0,6.0,6.0,815.7858130007298,7.0,1.0,phase_2,go,500.0,550.0,1.0,,,,,,,,,gray,diamond
0.0,6.0,2.0,1.0,5.0,0.0,0.0,7.0,1.0,phase_2,stop,500.0,550.0,4.0,,,,,,,,,orange,triangle
0.0,2.0,2.0,0.0,6.0,6.0,746.721116000117,7.0,1.0,phase_2,go,550.0,550.0,1.0,,,,,,,,,white,circle
0.0,5.0,1.0,1.0,6.0,0.0,0.0,7.0,1.0,phase_2,stop,550.0,550.0,4.0,,,,,,,,,yellow,cross
0.0,1.0,1.0,0.0,5.0,5.0,510.6698099998539,7.0,1.0,phase_2,go,550.0,600.0,1.0,,,,,,,,,cyan,I
0.0,6.0,2.0,1.0,5.0,5.0,585.3038220002418,7.0,1.0,phase_2,stop,550.0,600.0,3.0,,,,,,,,,orange,triangle
0.0,8.0,4.0,1.0,5.0,0.0,0.0,7.0,1.0,phase_2,stop,500.0,600.0,4.0,,,,,,,,,green,square
0.0,5.0,1.0,1.0,6.0,6.0,667.0020639994618,7.0,1.0,phase_2,stop,550.0,600.0,3.0,,,,,,,,,yellow,cross
0.0,4.0,4.0,0.0,6.0,6.0,627.2995290000836,7.0,1.0,phase_2,go,550.0,550.0,1.0,,,,,,,,,blue,flipped triangle
0.0,2.0,2.0,0.0,6.0,6.0,889.1570499999943,7.0,1.0,phase_2,go,550.0,550.0,1.0,,,,,,,,,white,circle
0.0,5.0,1.0,1.0,5.0,5.0,765.3893340002469,7.0,1.0,phase_2,go,550.0,550.0,1.0,,,,,,,,,yellow,cross
0.0,1.0,1.0,0.0,6.0,6.0,299.7471210001095,7.0,1.0,phase_2,go,550.0,550.0,1.0,,,,,,,,,cyan,I
0.0,1.0,1.0,0.0,5.0,5.0,342.4949019999985,7.0,1.0,phase_2,go,550.0,550.0,1.0,,,,,,,,,cyan,I
0.0,3.0,3.0,0.0,5.0,5.0,382.2187959995062,7.0,1.0,phase_2,go,550.0,550.0,1.0,,,,,,,,,magenta,hexagon
0.0,8.0,4.0,1.0,6.0,6.0,276.127969999834,7.0,1.0,phase_2,stop,550.0,550.0,3.0,,,,,,,,,green,square
0.0,5.0,1.0,1.0,6.0,6.0,778.4065040004862,7.0,1.0,phase_2,go,550.0,500.0,1.0,,,,,,,,,yellow,cross
0.0,3.0,3.0,0.0,5.0,5.0,650.3722520001247,7.0,1.0,phase_2,go,550.0,500.0,1.0,,,,,,,,,magenta,hexagon
0.0,7.0,3.0,1.0,5.0,5.0,380.3719970001111,7.0,1.0,phase_2,stop,550.0,500.0,3.0,,,,,,,,,gray,diamond
0.0,1.0,1.0,0.0,6.0,6.0,299.0235789993676,7.0,1.0,phase_2,go,500.0,500.0,1.0,,,,,,,,,cyan,I
0.0,5.0,1.0,1.0,5.0,5.0,653.0932289997509,7.0,1.0,phase_2,go,500.0,500.0,1.0,,,,,,,,,yellow,cross
0.0,6.0,2.0,1.0,6.0,0.0,0.0,7.0,1.0,phase_2,stop,500.0,500.0,4.0,,,,,,,,,orange,triangle
0.0,4.0,4.0,0.0,6.0,6.0,667.4271510000835,7.0,1.0,phase_2,go,500.0,550.0,1.0,,,,,,,,,blue,flipped triangle
0.0,1.0,1.0,0.0,6.0,6.0,336.7863789999319,7.0,1.0,phase_2,go,500.0,550.0,1.0,,,,,,,,,cyan,I
0.0,3.0,3.0,0.0,5.0,5.0,890.1801199999682,7.0,1.0,phase_2,go,500.0,550.0,1.0,,,,,,,,,magenta,hexagon
0.0,2.0,2.0,0.0,5.0,5.0,357.1513669994601,7.0,1.0,phase_2,go,500.0,550.0,1.0,,,,,,,,,white,circle
0.0,5.0,1.0,1.0,6.0,0.0,0.0,7.0,1.0,phase_2,stop,500.0,550.0,4.0,,,,,,,,,yellow,cross
0.0,2.0,2.0,0.0,6.0,0.0,0.0,7.0,1.0,phase_2,go,500.0,600.0,5.0,,,,,,,,,white,circle
0.0,7.0,3.0,1.0,5.0,5.0,406.2322010004209,7.0,1.0,phase_2,stop,500.0,600.0,3.0,,,,,,,,,gray,diamond
0.0,4.0,4.0,0.0,5.0,5.0,467.3058700000183,7.0,1.0,phase_2,go,450.0,600.0,1.0,,,,,,,,,blue,flipped triangle
0.0,4.0,4.0,0.0,5.0,5.0,506.44738499977393,7.0,1.0,phase_2,go,450.0,600.0,1.0,,,,,,,,,blue,flipped triangle
0.0,5.0,1.0,1.0,5.0,5.0,387.8012280001712,7.0,1.0,phase_2,go,450.0,600.0,1.0,,,,,,,,,yellow,cross
0.0,8.0,4.0,1.0,6.0,6.0,350.2264499993544,7.0,1.0,phase_2,stop,450.0,600.0,3.0,,,,,,,,,green,square
0.0,6.0,2.0,1.0,6.0,6.0,287.8942840006857,8.0,1.0,phase_2,go,450.0,550.0,1.0,,,,,,,,,orange,triangle
0.0,7.0,3.0,1.0,5.0,5.0,349.0754869999364,8.0,1.0,phase_2,stop,450.0,550.0,3.0,,,,,,,,,gray,diamond
0.0,7.0,3.0,1.0,6.0,6.0,354.1116719998172,8.0,1.0,phase_2,go,400.0,550.0,1.0,,,,,,,,,gray,diamond
0.0,1.0,1.0,0.0,5.0,5.0,436.6308849994311,8.0,1.0,phase_2,go,400.0,550.0,1.0,,,,,,,,,cyan,I
0.0,4.0,4.0,0.0,5.0,5.0,421.733707000385,8.0,1.0,phase_2,go,400.0,550.0,1.0,,,,,,,,,blue,flipped triangle
0.0,4.0,4.0,0.0,5.0,5.0,321.1931890000414,8.0,1.0,phase_2,go,400.0,550.0,1.0,,,,,,,,,blue,flipped triangle
0.0,2.0,2.0,0.0,5.0,5.0,318.3119640007135,8.0,1.0,phase_2,go,400.0,550.0,1.0,,,,,,,,,white,circle
0.0,6.0,2.0,1.0,6.0,6.0,313.9313239998955,8.0,1.0,phase_2,stop,400.0,550.0,3.0,,,,,,,,,orange,triangle
0.0,6.0,2.0,1.0,6.0,0.0,0.0,8.0,1.0,phase_2,stop,400.0,500.0,4.0,,,,,,,,,orange,triangle
0.0,8.0,4.0,1.0,6.0,6.0,658.105957000771,8.0,1.0,phase_2,stop,400.0,550.0,3.0,,,,,,,,,green,square
0.0,3.0,3.0,0.0,5.0,5.0,481.5576070004681,8.0,1.0,phase_2,go,400.0,500.0,1.0,,,,,,,,,magenta,hexagon
0.0,1.0,1.0,0.0,6.0,6.0,781.589912000527,8.0,1.0,phase_2,go,400.0,500.0,1.0,,,,,,,,,cyan,I
0.0,6.0,2.0,1.0,6.0,6.0,410.5517299994972,8.0,1.0,phase_2,stop,400.0,500.0,3.0,,,,,,,,,orange,triangle
0.0,7.0,3.0,1.0,5.0,0.0,0.0,8.0,1.0,phase_2,stop,400.0,450.0,4.0,,,,,,,,,gray,diamond
0.0,5.0,1.0,1.0,6.0,0.0,0.0,8.0,1.0,phase_2,stop,450.0,450.0,4.0,,,,,,,,,yellow,cross
0.0,3.0,3.0,0.0,6.0,6.0,975.2157040002204,8.0,1.0,phase_2,go,450.0,500.0,1.0,,,,,,,,,magenta,hexagon
0.0,3.0,3.0,0.0,6.0,6.0,607.868760999736,8.0,1.0,phase_2,go,450.0,500.0,1.0,,,,,,,,,magenta,hexagon
0.0,1.0,1.0,0.0,6.0,6.0,1012.1618329994817,8.0,1.0,phase_2,go,450.0,500.0,1.0,,,,,,,,,cyan,I
0.0,8.0,4.0,1.0,6.0,6.0,402.5369829996634,8.0,1.0,phase_2,stop,450.0,500.0,3.0,,,,,,,,,green,square
0.0,7.0,3.0,1.0,5.0,0.0,0.0,8.0,1.0,phase_2,stop,450.0,450.0,4.0,,,,,,,,,gray,diamond
0.0,5.0,1.0,1.0,5.0,0.0,0.0,8.0,1.0,phase_2,stop,500.0,450.0,4.0,,,,,,,,,yellow,cross
0.0,2.0,2.0,0.0,6.0,6.0,784.4217970005047,8.0,1.0,phase_2,go,550.0,450.0,1.0,,,,,,,,,white,circle
0.0,3.0,3.0,0.0,5.0,5.0,1393.6339199999566,8.0,1.0,phase_2,go,550.0,450.0,1.0,,,,,,,,,magenta,hexagon
0.0,6.0,2.0,1.0,5.0,5.0,634.4944250004119,8.0,1.0,phase_2,go,550.0,450.0,1.0,,,,,,,,,orange,triangle
0.0,3.0,3.0,0.0,5.0,5.0,640.6177359995127,8.0,1.0,phase_2,go,550.0,450.0,1.0,,,,,,,,,magenta,hexagon
0.0,4.0,4.0,0.0,5.0,5.0,467.0781499999066,8.0,1.0,phase_2,go,550.0,450.0,1.0,,,,,,,,,blue,flipped triangle
0.0,8.0,4.0,1.0,6.0,0.0,0.0,8.0,1.0,phase_2,stop,550.0,450.0,4.0,,,,,,,,,green,square
0.0,3.0,3.0,0.0,5.0,5.0,627.0295080003052,8.0,1.0,phase_2,go,550.0,500.0,1.0,,,,,,,,,magenta,hexagon
0.0,5.0,1.0,1.0,6.0,0.0,0.0,8.0,1.0,phase_2,stop,550.0,500.0,4.0,,,,,,,,,yellow,cross
0.0,7.0,3.0,1.0,5.0,0.0,0.0,8.0,1.0,phase_2,stop,550.0,550.0,4.0,,,,,,,,,gray,diamond
0.0,7.0,3.0,1.0,6.0,6.0,656.4959560000716,8.0,1.0,phase_2,stop,600.0,550.0,3.0,,,,,,,,,gray,diamond
0.0,4.0,4.0,0.0,5.0,5.0,631.3724620003995,8.0,1.0,phase_2,go,600.0,500.0,1.0,,,,,,,,,blue,flipped triangle
0.0,8.0,4.0,1.0,5.0,5.0,696.0393099998328,8.0,1.0,phase_2,stop,600.0,500.0,3.0,,,,,,,,,green,square
0.0,6.0,2.0,1.0,5.0,0.0,0.0,8.0,1.0,phase_2,stop,550.0,500.0,4.0,,,,,,,,,orange,triangle
0.0,3.0,3.0,0.0,6.0,6.0,548.2380800003739,8.0,1.0,phase_2,go,600.0,500.0,1.0,,,,,,,,,magenta,hexagon
0.0,4.0,4.0,0.0,5.0,5.0,917.955214000358,8.0,1.0,phase_2,go,600.0,500.0,1.0,,,,,,,,,blue,flipped triangle
0.0,8.0,4.0,1.0,7.0,2.0,3440.228254999965,1.0,1.0,phase_3,,,,,34.0,1.0,102.0,34.0,136.0,68.0,204.0,170.0,green,square
0.0,2.0,2.0,0.0,7.0,5.0,3991.479100000106,1.0,1.0,phase_3,,,,,196.0,4.0,147.0,245.0,49.0,294.0,196.0,98.0,white,circle
0.0,8.0,4.0,1.0,7.0,4.0,4078.148143999897,1.0,1.0,phase_3,,,,,196.0,4.0,98.0,147.0,294.0,196.0,49.0,245.0,green,square
0.0,1.0,1.0,0.0,7.0,3.0,3266.3430290003816,1.0,1.0,phase_3,,,,,156.0,4.0,117.0,39.0,156.0,234.0,78.0,195.0,cyan,I
0.0,1.0,1.0,0.0,7.0,6.0,3117.531838999639,1.0,1.0,phase_3,,,,,44.0,1.0,88.0,264.0,132.0,176.0,220.0,44.0,cyan,I
0.0,5.0,1.0,1.0,7.0,1.0,3354.436674000681,1.0,1.0,phase_3,,,,,44.0,1.0,44.0,264.0,176.0,132.0,220.0,88.0,yellow,cross
0.0,4.0,4.0,0.0,7.0,5.0,2479.0559479997683,1.0,1.0,phase_3,,,,,196.0,4.0,147.0,245.0,98.0,49.0,196.0,294.0,blue,flipped triangle
0.0,6.0,2.0,1.0,7.0,4.0,2039.2381330002536,1.0,1.0,phase_3,,,,,264.0,6.0,132.0,176.0,220.0,264.0,88.0,44.0,orange,triangle
0.0,7.0,3.0,1.0,7.0,2.0,1535.9681289992295,1.0,1.0,phase_3,,,,,324.0,6.0,108.0,324.0,270.0,162.0,216.0,54.0,gray,diamond
0.0,4.0,4.0,0.0,7.0,6.0,2964.79715499936,1.0,1.0,phase_3,,,,,176.0,4.0,44.0,220.0,264.0,132.0,88.0,176.0,blue,flipped triangle
0.0,8.0,4.0,1.0,7.0,5.0,2111.179791999348,1.0,1.0,phase_3,,,,,216.0,4.0,54.0,162.0,270.0,324.0,216.0,108.0,green,square
0.0,1.0,1.0,0.0,7.0,3.0,2457.4269579998145,1.0,1.0,phase_3,,,,,108.0,2.0,270.0,324.0,108.0,216.0,54.0,162.0,cyan,I
0.0,2.0,2.0,0.0,7.0,5.0,4098.399309000342,1.0,1.0,phase_3,,,,,270.0,5.0,108.0,324.0,162.0,54.0,270.0,216.0,white,circle
0.0,3.0,3.0,0.0,7.0,1.0,2593.6559789997773,1.0,1.0,phase_3,,,,,216.0,4.0,216.0,324.0,162.0,108.0,54.0,270.0,magenta,hexagon
0.0,6.0,2.0,1.0,7.0,2.0,2561.586358000568,1.0,1.0,phase_3,,,,,39.0,1.0,117.0,39.0,234.0,156.0,78.0,195.0,orange,triangle
0.0,2.0,2.0,0.0,7.0,4.0,1610.316598999816,1.0,1.0,phase_3,,,,,220.0,5.0,132.0,264.0,176.0,220.0,44.0,88.0,white,circle
0.0,4.0,4.0,0.0,7.0,3.0,1301.2547670005006,1.0,1.0,phase_3,,,,,68.0,2.0,204.0,136.0,68.0,34.0,102.0,170.0,blue,flipped triangle
0.0,6.0,2.0,1.0,7.0,1.0,2521.619166000164,1.0,1.0,phase_3,,,,,270.0,5.0,270.0,54.0,162.0,216.0,324.0,108.0,orange,triangle
0.0,3.0,3.0,0.0,7.0,5.0,1513.6217010003747,1.0,1.0,phase_3,,,,,78.0,2.0,156.0,117.0,195.0,234.0,78.0,39.0,magenta,hexagon
0.0,8.0,4.0,1.0,7.0,4.0,1802.861957999994,1.0,1.0,phase_3,,,,,44.0,1.0,132.0,220.0,176.0,44.0,88.0,264.0,green,square
0.0,3.0,3.0,0.0,7.0,3.0,151.1103220000222,2.0,1.0,phase_3,,,,,216.0,4.0,108.0,324.0,216.0,270.0,162.0,54.0,magenta,hexagon
0.0,3.0,3.0,0.0,7.0,4.0,1195.937499000138,2.0,1.0,phase_3,,,,,245.0,5.0,294.0,196.0,98.0,245.0,147.0,49.0,magenta,hexagon
0.0,4.0,4.0,0.0,7.0,3.0,1268.9776950001033,2.0,1.0,phase_3,,,,,44.0,1.0,220.0,264.0,44.0,88.0,132.0,176.0,blue,flipped triangle
0.0,3.0,3.0,0.0,7.0,5.0,1205.647064999539,2.0,1.0,phase_3,,,,,220.0,5.0,132.0,264.0,176.0,44.0,220.0,88.0,magenta,hexagon
0.0,6.0,2.0,1.0,7.0,6.0,1217.1607890004452,2.0,1.0,phase_3,,,,,204.0,6.0,170.0,136.0,34.0,68.0,102.0,204.0,orange,triangle
0.0,1.0,1.0,0.0,7.0,2.0,1519.2175290003431,2.0,1.0,phase_3,,,,,147.0,3.0,49.0,147.0,245.0,196.0,294.0,98.0,cyan,I
0.0,5.0,1.0,1.0,7.0,3.0,2141.2799689996973,2.0,1.0,phase_3,,,,,294.0,6.0,245.0,49.0,294.0,147.0,98.0,196.0,yellow,cross
0.0,6.0,2.0,1.0,7.0,6.0,1420.6970029999866,2.0,1.0,phase_3,,,,,102.0,3.0,170.0,204.0,136.0,34.0,68.0,102.0,orange,triangle
0.0,8.0,4.0,1.0,7.0,3.0,1560.984441999608,2.0,1.0,phase_3,,,,,44.0,1.0,88.0,176.0,44.0,220.0,132.0,264.0,green,square
0.0,2.0,2.0,0.0,7.0,5.0,810.6135349999022,2.0,1.0,phase_3,,,,,44.0,1.0,176.0,132.0,264.0,220.0,44.0,88.0,white,circle
0.0,7.0,3.0,1.0,7.0,1.0,1038.9178810000883,2.0,1.0,phase_3,,,,,132.0,3.0,132.0,44.0,176.0,220.0,88.0,264.0,gray,diamond
0.0,3.0,3.0,0.0,7.0,6.0,873.297093000474,2.0,1.0,phase_3,,,,,68.0,2.0,102.0,34.0,170.0,204.0,136.0,68.0,magenta,hexagon
0.0,5.0,1.0,1.0,7.0,4.0,1174.053544000344,2.0,1.0,phase_3,,,,,245.0,5.0,294.0,196.0,147.0,245.0,49.0,98.0,yellow,cross
0.0,2.0,2.0,0.0,7.0,5.0,608.55844300022,2.0,1.0,phase_3,,,,,108.0,2.0,162.0,54.0,270.0,216.0,108.0,324.0,white,circle
0.0,7.0,3.0,1.0,7.0,2.0,2375.051011000324,2.0,1.0,phase_3,,,,,117.0,3.0,39.0,117.0,156.0,195.0,234.0,78.0,gray,diamond
0.0,5.0,1.0,1.0,7.0,1.0,1439.18698699963,2.0,1.0,phase_3,,,,,216.0,4.0,216.0,270.0,324.0,162.0,108.0,54.0,yellow,cross
0.0,1.0,1.0,0.0,7.0,6.0,1849.32434700022,2.0,1.0,phase_3,,,,,204.0,6.0,136.0,170.0,68.0,102.0,34.0,204.0,cyan,I
0.0,2.0,2.0,0.0,7.0,5.0,1141.3262309997665,2.0,1.0,phase_3,,,,,170.0,5.0,204.0,102.0,34.0,68.0,170.0,136.0,white,circle
0.0,6.0,2.0,1.0,7.0,4.0,740.4077920000418,2.0,1.0,phase_3,,,,,195.0,5.0,234.0,39.0,117.0,195.0,78.0,156.0,orange,triangle
0.0,4.0,4.0,0.0,7.0,3.0,886.1620669995318,2.0,1.0,phase_3,,,,,78.0,2.0,234.0,39.0,78.0,156.0,117.0,195.0,blue,flipped triangle
0.0,7.0,3.0,1.0,7.0,6.0,916.8544760004806,3.0,1.0,phase_3,,,,,204.0,6.0,170.0,102.0,68.0,34.0,136.0,204.0,gray,diamond
0.0,3.0,3.0,0.0,7.0,4.0,1397.257960999923,3.0,1.0,phase_3,,,,,147.0,3.0,49.0,98.0,245.0,147.0,196.0,294.0,magenta,hexagon
0.0,1.0,1.0,0.0,7.0,5.0,963.7495699998908,3.0,1.0,phase_3,,,,,44.0,1.0,264.0,176.0,220.0,132.0,44.0,88.0,cyan,I
0.0,4.0,4.0,0.0,7.0,3.0,109.1618250002284,3.0,1.0,phase_3,,,,,196.0,4.0,49.0,294.0,196.0,245.0,147.0,98.0,blue,flipped triangle
0.0,2.0,2.0,0.0,7.0,1.0,1079.7727700000903,3.0,1.0,phase_3,,,,,49.0,1.0,49.0,196.0,245.0,294.0,147.0,98.0,white,circle
0.0,6.0,2.0,1.0,7.0,2.0,1470.2304910006203,3.0,1.0,phase_3,,,,,49.0,1.0,147.0,49.0,98.0,294.0,196.0,245.0,orange,triangle
0.0,4.0,4.0,0.0,7.0,4.0,1015.9606859997441,3.0,1.0,phase_3,,,,,156.0,4.0,39.0,78.0,234.0,156.0,117.0,195.0,blue,flipped triangle
0.0,7.0,3.0,1.0,7.0,2.0,1243.7884709997888,3.0,1.0,phase_3,,,,,204.0,6.0,170.0,204.0,68.0,136.0,34.0,102.0,gray,diamond
0.0,7.0,3.0,1.0,7.0,6.0,987.0781409999836,3.0,1.0,phase_3,,,,,294.0,6.0,147.0,196.0,245.0,49.0,98.0,294.0,gray,diamond
0.0,5.0,1.0,1.0,7.0,5.0,906.369860000268,3.0,1.0,phase_3,,,,,39.0,1.0,195.0,78.0,117.0,156.0,39.0,234.0,yellow,cross
0.0,7.0,3.0,1.0,7.0,3.0,1488.2670879997022,3.0,1.0,phase_3,,,,,147.0,3.0,294.0,245.0,147.0,98.0,49.0,196.0,gray,diamond
0.0,3.0,3.0,0.0,7.0,4.0,832.1169490000102,3.0,1.0,phase_3,,,,,136.0,4.0,170.0,68.0,34.0,136.0,204.0,102.0,magenta,hexagon
0.0,1.0,1.0,0.0,7.0,2.0,649.9737479998657,3.0,1.0,phase_3,,,,,68.0,2.0,136.0,68.0,170.0,34.0,102.0,204.0,cyan,I
0.0,5.0,1.0,1.0,7.0,5.0,562.4433429993587,3.0,1.0,phase_3,,,,,54.0,1.0,324.0,162.0,108.0,270.0,54.0,216.0,yellow,cross
0.0,3.0,3.0,0.0,7.0,1.0,729.1720869998244,3.0,1.0,phase_3,,,,,264.0,6.0,264.0,176.0,220.0,44.0,88.0,132.0,magenta,hexagon
0.0,2.0,2.0,0.0,7.0,6.0,572.6229729998522,3.0,1.0,phase_3,,,,,234.0,6.0,39.0,117.0,78.0,195.0,156.0,234.0,white,circle
0.0,3.0,3.0,0.0,7.0,2.0,727.1722280001995,3.0,1.0,phase_3,,,,,78.0,2.0,234.0,78.0,195.0,117.0,39.0,156.0,magenta,hexagon
0.0,7.0,3.0,1.0,7.0,5.0,360.5385629998636,3.0,1.0,phase_3,,,,,264.0,6.0,220.0,132.0,88.0,176.0,264.0,44.0,gray,diamond
0.0,5.0,1.0,1.0,7.0,2.0,1140.3409229997123,3.0,1.0,phase_3,,,,,68.0,2.0,102.0,68.0,136.0,34.0,204.0,170.0,yellow,cross
0.0,1.0,1.0,0.0,7.0,5.0,756.1572699996759,3.0,1.0,phase_3,,,,,39.0,1.0,234.0,117.0,78.0,195.0,39.0,156.0,cyan,I
0.0,8.0,4.0,1.0,7.0,2.0,1256.0941900001126,4.0,1.0,phase_3,,,,,117.0,3.0,195.0,117.0,234.0,78.0,156.0,39.0,green,square
0.0,1.0,1.0,0.0,7.0,5.0,686.6798969995216,4.0,1.0,phase_3,,,,,49.0,1.0,245.0,196.0,147.0,294.0,49.0,98.0,cyan,I
0.0,6.0,2.0,1.0,7.0,2.0,544.0038159995311,4.0,1.0,phase_3,,,,,216.0,4.0,108.0,216.0,324.0,54.0,162.0,270.0,orange,triangle
0.0,8.0,4.0,1.0,7.0,2.0,1044.0831160003654,4.0,1.0,phase_3,,,,,54.0,1.0,324.0,54.0,216.0,162.0,270.0,108.0,green,square
0.0,5.0,1.0,1.0,7.0,3.0,673.5480119996282,4.0,1.0,phase_3,,,,,132.0,3.0,220.0,264.0,132.0,44.0,176.0,88.0,yellow,cross
0.0,8.0,4.0,1.0,7.0,2.0,569.8022920005315,4.0,1.0,phase_3,,,,,102.0,3.0,68.0,102.0,170.0,204.0,136.0,34.0,green,square
0.0,2.0,2.0,0.0,7.0,6.0,879.6020039999348,4.0,1.0,phase_3,,,,,68.0,2.0,102.0,34.0,204.0,170.0,136.0,68.0,white,circle
0.0,2.0,2.0,0.0,7.0,4.0,1033.2547059997523,4.0,1.0,phase_3,,,,,234.0,6.0,39.0,195.0,117.0,234.0,78.0,156.0,white,circle
0.0,8.0,4.0,1.0,7.0,1.0,649.6004950004135,4.0,1.0,phase_3,,,,,39.0,1.0,39.0,156.0,117.0,195.0,78.0,234.0,green,square
0.0,5.0,1.0,1.0,7.0,1.0,987.5289329993392,4.0,1.0,phase_3,,,,,117.0,3.0,117.0,195.0,234.0,156.0,78.0,39.0,yellow,cross
0.0,4.0,4.0,0.0,7.0,5.0,876.8986760005646,4.0,1.0,phase_3,,,,,136.0,4.0,170.0,102.0,34.0,204.0,136.0,68.0,blue,flipped triangle
0.0,6.0,2.0,1.0,7.0,6.0,384.480853000241,4.0,1.0,phase_3,,,,,176.0,4.0,264.0,220.0,132.0,88.0,44.0,176.0,orange,triangle
0.0,8.0,4.0,1.0,7.0,2.0,302.1393110002464,4.0,1.0,phase_3,,,,,49.0,1.0,294.0,49.0,147.0,196.0,245.0,98.0,green,square
0.0,7.0,3.0,1.0,7.0,3.0,1896.4044679996728,4.0,1.0,phase_3,,,,,270.0,5.0,162.0,54.0,270.0,324.0,108.0,216.0,gray,diamond
0.0,7.0,3.0,1.0,7.0,4.0,997.5034809995122,4.0,1.0,phase_3,,,,,117.0,3.0,156.0,195.0,234.0,117.0,78.0,39.0,gray,diamond
0.0,5.0,1.0,1.0,7.0,6.0,905.3897900002994,4.0,1.0,phase_3,,,,,170.0,5.0,204.0,136.0,68.0,34.0,102.0,170.0,yellow,cross
0.0,4.0,4.0,0.0,7.0,2.0,864.805551000245,4.0,1.0,phase_3,,,,,162.0,3.0,216.0,162.0,54.0,270.0,108.0,324.0,blue,flipped triangle
0.0,6.0,2.0,1.0,7.0,1.0,680.6679720002649,4.0,1.0,phase_3,,,,,294.0,6.0,294.0,147.0,49.0,245.0,196.0,98.0,orange,triangle
0.0,4.0,4.0,0.0,7.0,2.0,650.1824140004828,4.0,1.0,phase_3,,,,,108.0,2.0,54.0,108.0,216.0,324.0,162.0,270.0,blue,flipped triangle
0.0,1.0,1.0,0.0,7.0,5.0,767.4142670002766,4.0,1.0,phase_3,,,,,270.0,5.0,162.0,324.0,216.0,108.0,270.0,54.0,cyan,I
