raw_reward_magnitude,stim_reward,stepwise_reward_magnitude,paired_with_stopping,stim_location,response,reaction_time,block,num_trial_presentations,which_phase,stop_signal_trial_type,left_SSD,right_SSD,accuracy,chosen_bidding_amount,chosen_bidding_level,possible_bid_1,possible_bid_2,possible_bid_3,possible_bid_4,possible_bid_5,possible_bid_6,color_text,shape_text
41.0,1.0,0.5,0.0,1.0,1.0,362.3781680000775,1.0,1.0,phase_1,,,,,,,,,,,,,cyan,I
402.0,8.0,4.0,1.0,2.0,2.0,360.2699650000431,1.0,1.0,phase_1,,,,,,,,,,,,,white,circle
176.0,7.0,2.0,1.0,3.0,3.0,350.8566189998419,1.0,1.0,phase_1,,,,,,,,,,,,,yellow,triangle
418.0,8.0,4.0,1.0,3.0,3.0,375.7724899999175,1.0,2.0,phase_1,,,,,,,,,,,,,white,circle
0.0,1.0,0.0,0.0,4.0,4.0,407.7301360000547,1.0,1.0,phase_1,,,,,,,,,,,,,cyan,I
382.0,4.0,4.0,0.0,2.0,2.0,319.523381999943,1.0,1.0,phase_1,,,,,,,,,,,,,blue,square
96.0,2.0,1.0,0.0,1.0,1.0,368.9254449998316,1.0,1.0,phase_1,,,,,,,,,,,,,magenta,hexagon
383.0,8.0,4.0,1.0,1.0,1.0,360.0069589999748,1.0,1.0,phase_1,,,,,,,,,,,,,white,circle
195.0,7.0,2.0,1.0,2.0,2.0,351.559608999878,1.0,1.0,phase_1,,,,,,,,,,,,,yellow,triangle
48.0,5.0,0.5,1.0,1.0,1.0,366.7663439998705,1.0,1.0,phase_1,,,,,,,,,,,,,orange,diamond
0.0,3.0,0.0,0.0,3.0,3.0,318.0980779998208,1.0,1.0,phase_1,,,,,,,,,,,,,gray,cross
194.0,7.0,2.0,1.0,2.0,2.0,325.9782080001514,1.0,1.0,phase_1,,,,,,,,,,,,,yellow,triangle
118.0,6.0,1.0,1.0,3.0,3.0,339.7688879999805,1.0,1.0,phase_1,,,,,,,,,,,,,green,flipped triangle
40.0,5.0,0.5,1.0,1.0,1.0,257.9595940001127,1.0,1.0,phase_1,,,,,,,,,,,,,orange,diamond
0.0,6.0,0.0,1.0,3.0,3.0,292.6672160001544,1.0,1.0,phase_1,,,,,,,,,,,,,green,flipped triangle
124.0,2.0,1.0,0.0,3.0,3.0,336.3085549999596,1.0,1.0,phase_1,,,,,,,,,,,,,magenta,hexagon
206.0,3.0,2.0,0.0,1.0,1.0,307.5288229999842,1.0,1.0,phase_1,,,,,,,,,,,,,gray,cross
192.0,3.0,2.0,0.0,3.0,3.0,336.3540020000073,1.0,1.0,phase_1,,,,,,,,,,,,,gray,cross
183.0,7.0,2.0,1.0,3.0,3.0,338.6051499999212,1.0,1.0,phase_1,,,,,,,,,,,,,yellow,triangle
423.0,4.0,4.0,0.0,2.0,2.0,303.0227839999497,1.0,1.0,phase_1,,,,,,,,,,,,,blue,square
117.0,6.0,1.0,1.0,1.0,1.0,320.6671170000845,1.0,1.0,phase_1,,,,,,,,,,,,,green,flipped triangle
405.0,4.0,4.0,0.0,4.0,4.0,343.3442069999728,1.0,1.0,phase_1,,,,,,,,,,,,,blue,square
63.0,5.0,0.5,1.0,1.0,1.0,387.3574239999016,1.0,1.0,phase_1,,,,,,,,,,,,,orange,diamond
208.0,3.0,2.0,0.0,3.0,3.0,329.3811460000597,1.0,1.0,phase_1,,,,,,,,,,,,,gray,cross
405.0,8.0,4.0,1.0,1.0,1.0,295.8430119999775,1.0,1.0,phase_1,,,,,,,,,,,,,white,circle
107.0,6.0,1.0,1.0,3.0,3.0,321.2270269998498,1.0,1.0,phase_1,,,,,,,,,,,,,green,flipped triangle
405.0,4.0,4.0,0.0,1.0,1.0,272.2729500001151,1.0,1.0,phase_1,,,,,,,,,,,,,blue,square
45.0,5.0,0.5,1.0,4.0,4.0,344.2575760000181,1.0,1.0,phase_1,,,,,,,,,,,,,orange,diamond
77.0,6.0,1.0,1.0,2.0,2.0,273.4832859998732,1.0,1.0,phase_1,,,,,,,,,,,,,green,flipped triangle
0.0,2.0,0.0,0.0,3.0,3.0,264.8547380001673,1.0,1.0,phase_1,,,,,,,,,,,,,magenta,hexagon
110.0,2.0,1.0,0.0,4.0,4.0,356.9943739998962,1.0,1.0,phase_1,,,,,,,,,,,,,magenta,hexagon
217.0,3.0,2.0,0.0,2.0,2.0,307.2644750000108,1.0,1.0,phase_1,,,,,,,,,,,,,gray,cross
0.0,7.0,0.0,1.0,2.0,2.0,344.4304780000493,1.0,1.0,phase_1,,,,,,,,,,,,,yellow,triangle
85.0,2.0,1.0,0.0,2.0,2.0,315.6558749999476,1.0,1.0,phase_1,,,,,,,,,,,,,magenta,hexagon
395.0,8.0,4.0,1.0,1.0,1.0,270.3454130000864,1.0,1.0,phase_1,,,,,,,,,,,,,white,circle
98.0,2.0,1.0,0.0,3.0,3.0,379.5051999998122,1.0,1.0,phase_1,,,,,,,,,,,,,magenta,hexagon
85.0,6.0,1.0,1.0,1.0,1.0,315.1223319998735,1.0,1.0,phase_1,,,,,,,,,,,,,green,flipped triangle
111.0,6.0,1.0,1.0,1.0,1.0,324.2232679999688,1.0,1.0,phase_1,,,,,,,,,,,,,green,flipped triangle
387.0,8.0,4.0,1.0,3.0,3.0,393.682316999957,1.0,2.0,phase_1,,,,,,,,,,,,,white,circle
29.0,5.0,0.5,1.0,4.0,4.0,309.1315650001434,1.0,1.0,phase_1,,,,,,,,,,,,,orange,diamond
107.0,2.0,1.0,0.0,2.0,2.0,330.2587150001272,1.0,1.0,phase_1,,,,,,,,,,,,,magenta,hexagon
402.0,8.0,4.0,1.0,2.0,2.0,316.1797069999466,1.0,1.0,phase_1,,,,,,,,,,,,,white,circle
105.0,2.0,1.0,0.0,1.0,1.0,388.1229749999875,1.0,2.0,phase_1,,,,,,,,,,,,,magenta,hexagon
0.0,5.0,0.0,1.0,3.0,3.0,358.880198999941,1.0,1.0,phase_1,,,,,,,,,,,,,orange,diamond
207.0,3.0,2.0,0.0,2.0,2.0,324.7607690000222,1.0,1.0,phase_1,,,,,,,,,,,,,gray,cross
202.0,3.0,2.0,0.0,2.0,2.0,331.7925339999874,1.0,1.0,phase_1,,,,,,,,,,,,,gray,cross
413.0,8.0,4.0,1.0,4.0,4.0,295.457142000032,1.0,1.0,phase_1,,,,,,,,,,,,,white,circle
0.0,3.0,0.0,0.0,4.0,4.0,356.554947999939,1.0,1.0,phase_1,,,,,,,,,,,,,gray,cross
185.0,7.0,2.0,1.0,1.0,1.0,312.6222979999511,1.0,1.0,phase_1,,,,,,,,,,,,,yellow,triangle
411.0,4.0,4.0,0.0,1.0,1.0,332.1870669999498,1.0,1.0,phase_1,,,,,,,,,,,,,blue,square
0.0,8.0,0.0,1.0,1.0,1.0,333.1105810000281,1.0,1.0,phase_1,,,,,,,,,,,,,white,circle
101.0,2.0,1.0,0.0,2.0,2.0,396.9852350001019,1.0,1.0,phase_1,,,,,,,,,,,,,magenta,hexagon
0.0,8.0,0.0,1.0,2.0,2.0,345.0063089999275,1.0,1.0,phase_1,,,,,,,,,,,,,white,circle
28.0,1.0,0.5,0.0,4.0,4.0,321.5239550002025,1.0,1.0,phase_1,,,,,,,,,,,,,cyan,I
43.0,5.0,0.5,1.0,2.0,2.0,313.2074359998569,1.0,1.0,phase_1,,,,,,,,,,,,,orange,diamond
63.0,1.0,0.5,0.0,3.0,3.0,365.7970640001622,1.0,1.0,phase_1,,,,,,,,,,,,,cyan,I
221.0,7.0,2.0,1.0,2.0,2.0,319.2685649999021,1.0,1.0,phase_1,,,,,,,,,,,,,yellow,triangle
0.0,6.0,0.0,1.0,1.0,1.0,319.6564439999747,1.0,1.0,phase_1,,,,,,,,,,,,,green,flipped triangle
376.0,4.0,4.0,0.0,3.0,3.0,321.4501470001778,1.0,1.0,phase_1,,,,,,,,,,,,,blue,square
0.0,7.0,0.0,1.0,1.0,1.0,321.6305020000618,1.0,1.0,phase_1,,,,,,,,,,,,,yellow,triangle
94.0,6.0,1.0,1.0,1.0,1.0,359.6802469999147,1.0,1.0,phase_1,,,,,,,,,,,,,green,flipped triangle
423.0,8.0,4.0,1.0,2.0,2.0,344.0913249999084,1.0,1.0,phase_1,,,,,,,,,,,,,white,circle
213.0,3.0,2.0,0.0,2.0,2.0,338.1738579998909,1.0,1.0,phase_1,,,,,,,,,,,,,gray,cross
398.0,4.0,4.0,0.0,2.0,2.0,309.6902259999297,1.0,1.0,phase_1,,,,,,,,,,,,,blue,square
183.0,3.0,2.0,0.0,4.0,4.0,525.0949369997215,1.0,1.0,phase_1,,,,,,,,,,,,,gray,cross
40.0,5.0,0.5,1.0,3.0,3.0,444.5655360000273,1.0,1.0,phase_1,,,,,,,,,,,,,orange,diamond
110.0,2.0,1.0,0.0,2.0,2.0,343.6549650000415,1.0,1.0,phase_1,,,,,,,,,,,,,magenta,hexagon
0.0,7.0,0.0,1.0,1.0,1.0,398.7116769999375,1.0,1.0,phase_1,,,,,,,,,,,,,yellow,triangle
0.0,5.0,0.0,1.0,4.0,4.0,357.0213120001426,1.0,1.0,phase_1,,,,,,,,,,,,,orange,diamond
219.0,7.0,2.0,1.0,2.0,2.0,329.4243290001759,1.0,1.0,phase_1,,,,,,,,,,,,,yellow,triangle
391.0,4.0,4.0,0.0,2.0,2.0,327.1575690000645,1.0,1.0,phase_1,,,,,,,,,,,,,blue,square
409.0,4.0,4.0,0.0,1.0,1.0,317.5275839998903,1.0,1.0,phase_1,,,,,,,,,,,,,blue,square
413.0,4.0,4.0,0.0,3.0,3.0,344.9024129999998,1.0,1.0,phase_1,,,,,,,,,,,,,blue,square
51.0,1.0,0.5,0.0,4.0,4.0,312.7593620001789,1.0,1.0,phase_1,,,,,,,,,,,,,cyan,I
29.0,1.0,0.5,0.0,3.0,3.0,358.3780959997966,1.0,1.0,phase_1,,,,,,,,,,,,,cyan,I
82.0,2.0,1.0,0.0,4.0,4.0,351.73710700019,1.0,1.0,phase_1,,,,,,,,,,,,,magenta,hexagon
109.0,6.0,1.0,1.0,2.0,2.0,321.4167569999517,1.0,1.0,phase_1,,,,,,,,,,,,,green,flipped triangle
40.0,1.0,0.5,0.0,1.0,1.0,425.0939549997383,1.0,2.0,phase_1,,,,,,,,,,,,,cyan,I
400.0,4.0,4.0,0.0,1.0,1.0,378.2909550000113,1.0,1.0,phase_1,,,,,,,,,,,,,blue,square
66.0,5.0,0.5,1.0,4.0,4.0,379.4512940003187,1.0,1.0,phase_1,,,,,,,,,,,,,orange,diamond
58.0,5.0,0.5,1.0,2.0,2.0,303.9473489998272,1.0,1.0,phase_1,,,,,,,,,,,,,orange,diamond
0.0,6.0,0.0,1.0,3.0,3.0,312.5512469996465,1.0,1.0,phase_1,,,,,,,,,,,,,green,flipped triangle
79.0,2.0,1.0,0.0,1.0,1.0,389.5277189999433,1.0,1.0,phase_1,,,,,,,,,,,,,magenta,hexagon
213.0,3.0,2.0,0.0,1.0,1.0,324.5456169997851,1.0,1.0,phase_1,,,,,,,,,,,,,gray,cross
424.0,4.0,4.0,0.0,3.0,3.0,391.4397309999913,1.0,1.0,phase_1,,,,,,,,,,,,,blue,square
0.0,3.0,0.0,0.0,3.0,3.0,398.0387799997515,1.0,1.0,phase_1,,,,,,,,,,,,,gray,cross
384.0,8.0,4.0,1.0,4.0,4.0,393.2725290001144,1.0,1.0,phase_1,,,,,,,,,,,,,white,circle
32.0,5.0,0.5,1.0,3.0,3.0,407.1332019998408,1.0,1.0,phase_1,,,,,,,,,,,,,orange,diamond
0.0,7.0,0.0,1.0,2.0,2.0,359.6359979997032,1.0,1.0,phase_1,,,,,,,,,,,,,yellow,triangle
383.0,8.0,4.0,1.0,3.0,3.0,383.3741359999294,1.0,1.0,phase_1,,,,,,,,,,,,,white,circle
69.0,1.0,0.5,0.0,4.0,4.0,343.2787220003774,1.0,1.0,phase_1,,,,,,,,,,,,,cyan,I
69.0,5.0,0.5,1.0,1.0,1.0,348.8590160000058,1.0,1.0,phase_1,,,,,,,,,,,,,orange,diamond
196.0,3.0,2.0,0.0,2.0,2.0,372.1083350001208,1.0,1.0,phase_1,,,,,,,,,,,,,gray,cross
0.0,8.0,0.0,1.0,2.0,2.0,381.9150150002315,1.0,1.0,phase_1,,,,,,,,,,,,,white,circle
43.0,1.0,0.5,0.0,4.0,4.0,357.8550729998824,1.0,1.0,phase_1,,,,,,,,,,,,,cyan,I
74.0,5.0,0.5,1.0,3.0,3.0,386.4556109997465,1.0,1.0,phase_1,,,,,,,,,,,,,orange,diamond
0.0,1.0,0.0,0.0,1.0,1.0,379.075432999798,1.0,1.0,phase_1,,,,,,,,,,,,,cyan,I
405.0,8.0,4.0,1.0,2.0,2.0,317.6527569999052,1.0,1.0,phase_1,,,,,,,,,,,,,white,circle
77.0,2.0,1.0,0.0,2.0,2.0,333.5471329996835,1.0,1.0,phase_1,,,,,,,,,,,,,magenta,hexagon
69.0,5.0,0.5,1.0,2.0,2.0,382.7256679996935,1.0,1.0,phase_1,,,,,,,,,,,,,orange,diamond
40.0,1.0,0.5,0.0,3.0,3.0,382.796696999776,2.0,1.0,phase_1,,,,,,,,,,,,,cyan,I
0.0,4.0,0.0,0.0,3.0,3.0,345.4603339996538,2.0,1.0,phase_1,,,,,,,,,,,,,blue,square
391.0,8.0,4.0,1.0,3.0,3.0,305.7410930000515,2.0,1.0,phase_1,,,,,,,,,,,,,white,circle
201.0,3.0,2.0,0.0,1.0,1.0,353.2400479998614,2.0,1.0,phase_1,,,,,,,,,,,,,gray,cross
78.0,2.0,1.0,0.0,1.0,1.0,338.9439759998822,2.0,1.0,phase_1,,,,,,,,,,,,,magenta,hexagon
45.0,5.0,0.5,1.0,2.0,2.0,364.7432600000684,2.0,1.0,phase_1,,,,,,,,,,,,,orange,diamond
115.0,2.0,1.0,0.0,3.0,3.0,325.2421950001007,2.0,1.0,phase_1,,,,,,,,,,,,,magenta,hexagon
0.0,3.0,0.0,0.0,2.0,2.0,367.6642529999299,2.0,1.0,phase_1,,,,,,,,,,,,,gray,cross
73.0,5.0,0.5,1.0,2.0,2.0,370.9433280000667,2.0,1.0,phase_1,,,,,,,,,,,,,orange,diamond
0.0,8.0,0.0,1.0,1.0,1.0,366.0228510002525,2.0,1.0,phase_1,,,,,,,,,,,,,white,circle
184.0,3.0,2.0,0.0,2.0,2.0,343.2406410001931,2.0,1.0,phase_1,,,,,,,,,,,,,gray,cross
0.0,7.0,0.0,1.0,1.0,1.0,398.3507210000425,2.0,1.0,phase_1,,,,,,,,,,,,,yellow,triangle
115.0,6.0,1.0,1.0,3.0,3.0,385.7034289999319,2.0,1.0,phase_1,,,,,,,,,,,,,green,flipped triangle
39.0,1.0,0.5,0.0,2.0,2.0,391.0937350001404,2.0,1.0,phase_1,,,,,,,,,,,,,cyan,I
407.0,8.0,4.0,1.0,4.0,4.0,392.4883579998095,2.0,2.0,phase_1,,,,,,,,,,,,,white,circle
382.0,8.0,4.0,1.0,2.0,2.0,446.2535160000698,2.0,1.0,phase_1,,,,,,,,,,,,,white,circle
124.0,6.0,1.0,1.0,2.0,2.0,403.5437469997305,2.0,1.0,phase_1,,,,,,,,,,,,,green,flipped triangle
201.0,7.0,2.0,1.0,4.0,4.0,370.1180889997886,2.0,1.0,phase_1,,,,,,,,,,,,,yellow,triangle
75.0,5.0,0.5,1.0,4.0,4.0,405.1023609999902,2.0,1.0,phase_1,,,,,,,,,,,,,orange,diamond
96.0,6.0,1.0,1.0,2.0,2.0,414.8942329998135,2.0,1.0,phase_1,,,,,,,,,,,,,green,flipped triangle
125.0,6.0,1.0,1.0,2.0,2.0,366.8792640000902,2.0,1.0,phase_1,,,,,,,,,,,,,green,flipped triangle
62.0,1.0,0.5,0.0,2.0,2.0,348.1753190003473,2.0,1.0,phase_1,,,,,,,,,,,,,cyan,I
223.0,7.0,2.0,1.0,2.0,2.0,355.9141589998944,2.0,1.0,phase_1,,,,,,,,,,,,,yellow,triangle
0.0,6.0,0.0,1.0,3.0,3.0,402.2777810000661,2.0,1.0,phase_1,,,,,,,,,,,,,green,flipped triangle
0.0,1.0,0.0,0.0,1.0,1.0,419.9184260000947,2.0,1.0,phase_1,,,,,,,,,,,,,cyan,I
36.0,1.0,0.5,0.0,2.0,2.0,383.4300399998938,2.0,1.0,phase_1,,,,,,,,,,,,,cyan,I
196.0,7.0,2.0,1.0,4.0,4.0,389.0432540001711,2.0,1.0,phase_1,,,,,,,,,,,,,yellow,triangle
0.0,6.0,0.0,1.0,1.0,1.0,499.4615709997561,2.0,1.0,phase_1,,,,,,,,,,,,,green,flipped triangle
188.0,3.0,2.0,0.0,1.0,1.0,385.9976950002419,2.0,1.0,phase_1,,,,,,,,,,,,,gray,cross
188.0,7.0,2.0,1.0,4.0,4.0,360.2208030001748,2.0,1.0,phase_1,,,,,,,,,,,,,yellow,triangle
121.0,2.0,1.0,0.0,4.0,4.0,315.5164990002959,2.0,1.0,phase_1,,,,,,,,,,,,,magenta,hexagon
184.0,7.0,2.0,1.0,3.0,3.0,308.1063089998679,2.0,1.0,phase_1,,,,,,,,,,,,,yellow,triangle
211.0,7.0,2.0,1.0,4.0,4.0,399.4974980000734,2.0,1.0,phase_1,,,,,,,,,,,,,yellow,triangle
219.0,7.0,2.0,1.0,2.0,2.0,342.7002489997903,2.0,1.0,phase_1,,,,,,,,,,,,,yellow,triangle
219.0,3.0,2.0,0.0,4.0,4.0,385.9085930002948,2.0,1.0,phase_1,,,,,,,,,,,,,gray,cross
205.0,7.0,2.0,1.0,4.0,4.0,361.9964350000373,2.0,1.0,phase_1,,,,,,,,,,,,,yellow,triangle
0.0,7.0,0.0,1.0,2.0,2.0,300.9896009998556,2.0,1.0,phase_1,,,,,,,,,,,,,yellow,triangle
75.0,1.0,0.5,0.0,2.0,2.0,416.5494960002434,2.0,1.0,phase_1,,,,,,,,,,,,,cyan,I
0.0,6.0,0.0,1.0,3.0,3.0,326.9911630000024,2.0,1.0,phase_1,,,,,,,,,,,,,green,flipped triangle
49.0,1.0,0.5,0.0,3.0,3.0,371.4102469998579,2.0,1.0,phase_1,,,,,,,,,,,,,cyan,I
213.0,7.0,2.0,1.0,4.0,4.0,393.5885949999829,2.0,1.0,phase_1,,,,,,,,,,,,,yellow,triangle
409.0,8.0,4.0,1.0,1.0,1.0,364.2906270001731,2.0,1.0,phase_1,,,,,,,,,,,,,white,circle
217.0,7.0,2.0,1.0,3.0,3.0,340.7636709998769,2.0,1.0,phase_1,,,,,,,,,,,,,yellow,triangle
384.0,4.0,4.0,0.0,2.0,2.0,331.9949489996361,2.0,1.0,phase_1,,,,,,,,,,,,,blue,square
176.0,3.0,2.0,0.0,4.0,4.0,599.3415349998941,2.0,1.0,phase_1,,,,,,,,,,,,,gray,cross
389.0,8.0,4.0,1.0,4.0,4.0,376.442580999992,2.0,1.0,phase_1,,,,,,,,,,,,,white,circle
39.0,5.0,0.5,1.0,3.0,3.0,325.3931549998015,2.0,1.0,phase_1,,,,,,,,,,,,,orange,diamond
0.0,8.0,0.0,1.0,1.0,1.0,348.0347019999499,2.0,1.0,phase_1,,,,,,,,,,,,,white,circle
0.0,5.0,0.0,1.0,3.0,3.0,324.382653000157,2.0,1.0,phase_1,,,,,,,,,,,,,orange,diamond
0.0,1.0,0.0,0.0,4.0,4.0,353.5757300001023,2.0,1.0,phase_1,,,,,,,,,,,,,cyan,I
120.0,6.0,1.0,1.0,4.0,4.0,348.931609000374,2.0,1.0,phase_1,,,,,,,,,,,,,green,flipped triangle
206.0,7.0,2.0,1.0,4.0,4.0,339.1465929998958,2.0,1.0,phase_1,,,,,,,,,,,,,yellow,triangle
121.0,6.0,1.0,1.0,4.0,4.0,322.5883689997317,2.0,1.0,phase_1,,,,,,,,,,,,,green,flipped triangle
0.0,5.0,0.0,1.0,4.0,4.0,336.3789069999257,2.0,1.0,phase_1,,,,,,,,,,,,,orange,diamond
66.0,1.0,0.5,0.0,4.0,4.0,335.4827899997872,2.0,1.0,phase_1,,,,,,,,,,,,,cyan,I
402.0,4.0,4.0,0.0,4.0,4.0,331.1741259999508,2.0,1.0,phase_1,,,,,,,,,,,,,blue,square
48.0,1.0,0.5,0.0,4.0,4.0,332.8146419999029,2.0,1.0,phase_1,,,,,,,,,,,,,cyan,I
0.0,2.0,0.0,0.0,1.0,1.0,404.2166979998001,2.0,1.0,phase_1,,,,,,,,,,,,,magenta,hexagon
213.0,7.0,2.0,1.0,1.0,1.0,333.9747780000834,2.0,1.0,phase_1,,,,,,,,,,,,,yellow,triangle
191.0,3.0,2.0,0.0,2.0,2.0,387.0642719998614,2.0,1.0,phase_1,,,,,,,,,,,,,gray,cross
88.0,2.0,1.0,0.0,1.0,1.0,363.9839799998299,2.0,1.0,phase_1,,,,,,,,,,,,,magenta,hexagon
88.0,6.0,1.0,1.0,3.0,3.0,429.7090360000766,2.0,1.0,phase_1,,,,,,,,,,,,,green,flipped triangle
41.0,5.0,0.5,1.0,2.0,2.0,330.3295030000299,2.0,1.0,phase_1,,,,,,,,,,,,,orange,diamond
416.0,8.0,4.0,1.0,2.0,2.0,307.4790579998989,2.0,1.0,phase_1,,,,,,,,,,,,,white,circle
179.0,3.0,2.0,0.0,4.0,4.0,369.2936019997432,2.0,1.0,phase_1,,,,,,,,,,,,,gray,cross
213.0,7.0,2.0,1.0,2.0,2.0,342.5595900002918,2.0,1.0,phase_1,,,,,,,,,,,,,yellow,triangle
0.0,6.0,0.0,1.0,1.0,1.0,337.7734410000812,2.0,1.0,phase_1,,,,,,,,,,,,,green,flipped triangle
0.0,2.0,0.0,0.0,1.0,1.0,407.4880269999994,2.0,1.0,phase_1,,,,,,,,,,,,,magenta,hexagon
417.0,8.0,4.0,1.0,1.0,1.0,303.2156819999727,2.0,1.0,phase_1,,,,,,,,,,,,,white,circle
107.0,2.0,1.0,0.0,4.0,4.0,393.5136439999951,2.0,1.0,phase_1,,,,,,,,,,,,,magenta,hexagon
32.0,1.0,0.5,0.0,2.0,2.0,303.7143520000427,2.0,1.0,phase_1,,,,,,,,,,,,,cyan,I
0.0,2.0,0.0,0.0,2.0,2.0,321.6135229999963,2.0,1.0,phase_1,,,,,,,,,,,,,magenta,hexagon
29.0,1.0,0.5,0.0,1.0,1.0,334.2228120000072,2.0,1.0,phase_1,,,,,,,,,,,,,cyan,I
215.0,7.0,2.0,1.0,3.0,3.0,370.4092650000348,2.0,1.0,phase_1,,,,,,,,,,,,,yellow,triangle
0.0,3.0,0.0,0.0,3.0,3.0,379.9752820000321,2.0,1.0,phase_1,,,,,,,,,,,,,gray,cross
405.0,8.0,4.0,1.0,2.0,2.0,331.4099140002327,2.0,1.0,phase_1,,,,,,,,,,,,,white,circle
96.0,6.0,1.0,1.0,2.0,2.0,305.7714619999387,2.0,1.0,phase_1,,,,,,,,,,,,,green,flipped triangle
0.0,8.0,0.0,1.0,3.0,3.0,334.4682239999201,2.0,1.0,phase_1,,,,,,,,,,,,,white,circle
400.0,8.0,4.0,1.0,1.0,1.0,326.4683530001093,2.0,1.0,phase_1,,,,,,,,,,,,,white,circle
213.0,3.0,2.0,0.0,3.0,3.0,347.2066249996715,2.0,1.0,phase_1,,,,,,,,,,,,,gray,cross
101.0,6.0,1.0,1.0,1.0,1.0,310.8491550001417,2.0,1.0,phase_1,,,,,,,,,,,,,green,flipped triangle
189.0,7.0,2.0,1.0,4.0,4.0,403.6950830000023,2.0,1.0,phase_1,,,,,,,,,,,,,yellow,triangle
188.0,7.0,2.0,1.0,3.0,3.0,345.1015619998543,2.0,1.0,phase_1,,,,,,,,,,,,,yellow,triangle
45.0,5.0,0.5,1.0,3.0,3.0,346.530299999813,2.0,1.0,phase_1,,,,,,,,,,,,,orange,diamond
74.0,1.0,0.5,0.0,2.0,2.0,365.2976289999969,2.0,1.0,phase_1,,,,,,,,,,,,,cyan,I
113.0,2.0,1.0,0.0,2.0,2.0,323.661918000198,2.0,1.0,phase_1,,,,,,,,,,,,,magenta,hexagon
103.0,6.0,1.0,1.0,1.0,1.0,317.5217469997733,2.0,2.0,phase_1,,,,,,,,,,,,,green,flipped triangle
0.0,1.0,0.0,0.0,2.0,2.0,303.2594900000731,2.0,1.0,phase_1,,,,,,,,,,,,,cyan,I
53.0,1.0,0.5,0.0,1.0,1.0,289.4358170001396,2.0,1.0,phase_1,,,,,,,,,,,,,cyan,I
397.0,4.0,4.0,0.0,2.0,2.0,350.3749980000066,2.0,2.0,phase_1,,,,,,,,,,,,,blue,square
77.0,2.0,1.0,0.0,2.0,2.0,335.6215920002796,2.0,1.0,phase_1,,,,,,,,,,,,,magenta,hexagon
59.0,5.0,0.5,1.0,1.0,1.0,401.0011529999246,2.0,1.0,phase_1,,,,,,,,,,,,,orange,diamond
401.0,4.0,4.0,0.0,4.0,4.0,436.399194000387,2.0,1.0,phase_1,,,,,,,,,,,,,blue,square
43.0,5.0,0.5,1.0,2.0,2.0,360.4316179998932,2.0,1.0,phase_1,,,,,,,,,,,,,orange,diamond
191.0,7.0,2.0,1.0,1.0,1.0,371.9115379999493,2.0,1.0,phase_1,,,,,,,,,,,,,yellow,triangle
0.0,1.0,0.0,0.0,4.0,4.0,365.9449790002327,2.0,1.0,phase_1,,,,,,,,,,,,,cyan,I
27.0,1.0,0.5,0.0,4.0,4.0,426.0062930002277,2.0,1.0,phase_1,,,,,,,,,,,,,cyan,I
62.0,5.0,0.5,1.0,3.0,3.0,415.6902720001199,2.0,1.0,phase_1,,,,,,,,,,,,,orange,diamond
395.0,8.0,4.0,1.0,3.0,3.0,366.3722830001461,2.0,1.0,phase_1,,,,,,,,,,,,,white,circle
45.0,1.0,0.5,0.0,1.0,1.0,384.0411360001781,2.0,1.0,phase_1,,,,,,,,,,,,,cyan,I
39.0,1.0,0.5,0.0,3.0,3.0,401.9425840001531,3.0,1.0,phase_1,,,,,,,,,,,,,cyan,I
89.0,6.0,1.0,1.0,4.0,4.0,383.6820030001036,3.0,1.0,phase_1,,,,,,,,,,,,,green,flipped triangle
93.0,6.0,1.0,1.0,2.0,2.0,364.8457250001229,3.0,1.0,phase_1,,,,,,,,,,,,,green,flipped triangle
102.0,2.0,1.0,0.0,4.0,4.0,335.9039329998268,3.0,1.0,phase_1,,,,,,,,,,,,,magenta,hexagon
189.0,3.0,2.0,0.0,4.0,4.0,364.3743729999187,3.0,1.0,phase_1,,,,,,,,,,,,,gray,cross
0.0,4.0,0.0,0.0,3.0,3.0,349.7918760003813,3.0,1.0,phase_1,,,,,,,,,,,,,blue,square
93.0,2.0,1.0,0.0,2.0,2.0,360.1407950000066,3.0,1.0,phase_1,,,,,,,,,,,,,magenta,hexagon
0.0,6.0,0.0,1.0,4.0,4.0,335.4062789999261,3.0,1.0,phase_1,,,,,,,,,,,,,green,flipped triangle
424.0,4.0,4.0,0.0,3.0,3.0,376.2354310001683,3.0,1.0,phase_1,,,,,,,,,,,,,blue,square
0.0,2.0,0.0,0.0,3.0,3.0,355.3294299999834,3.0,1.0,phase_1,,,,,,,,,,,,,magenta,hexagon
59.0,1.0,0.5,0.0,4.0,4.0,377.717235000091,3.0,1.0,phase_1,,,,,,,,,,,,,cyan,I
114.0,2.0,1.0,0.0,3.0,3.0,354.9865939999108,3.0,1.0,phase_1,,,,,,,,,,,,,magenta,hexagon
109.0,6.0,1.0,1.0,4.0,4.0,384.6346939999421,3.0,1.0,phase_1,,,,,,,,,,,,,green,flipped triangle
0.0,5.0,0.0,1.0,4.0,4.0,356.5100740001981,3.0,1.0,phase_1,,,,,,,,,,,,,orange,diamond
79.0,6.0,1.0,1.0,2.0,2.0,351.9029359999877,3.0,1.0,phase_1,,,,,,,,,,,,,green,flipped triangle
39.0,5.0,0.5,1.0,4.0,4.0,395.0220280003123,3.0,1.0,phase_1,,,,,,,,,,,,,orange,diamond
205.0,7.0,2.0,1.0,1.0,1.0,460.1512220001496,3.0,1.0,phase_1,,,,,,,,,,,,,yellow,triangle
84.0,2.0,1.0,0.0,1.0,1.0,440.698448999683,3.0,1.0,phase_1,,,,,,,,,,,,,magenta,hexagon
424.0,8.0,4.0,1.0,4.0,4.0,358.1338809999579,3.0,1.0,phase_1,,,,,,,,,,,,,white,circle
415.0,4.0,4.0,0.0,3.0,3.0,379.1264109995609,3.0,1.0,phase_1,,,,,,,,,,,,,blue,square
208.0,7.0,2.0,1.0,3.0,3.0,361.0545240003375,3.0,1.0,phase_1,,,,,,,,,,,,,yellow,triangle
0.0,4.0,0.0,0.0,1.0,1.0,345.4373839999789,3.0,1.0,phase_1,,,,,,,,,,,,,blue,square
55.0,5.0,0.5,1.0,4.0,4.0,342.4289170002339,3.0,1.0,phase_1,,,,,,,,,,,,,orange,diamond
407.0,4.0,4.0,0.0,4.0,4.0,325.9088140002859,3.0,1.0,phase_1,,,,,,,,,,,,,blue,square
0.0,3.0,0.0,0.0,3.0,3.0,394.3476069998723,3.0,1.0,phase_1,,,,,,,,,,,,,gray,cross
76.0,2.0,1.0,0.0,3.0,3.0,347.0582479999393,3.0,1.0,phase_1,,,,,,,,,,,,,magenta,hexagon
118.0,2.0,1.0,0.0,1.0,1.0,312.6194209999084,3.0,1.0,phase_1,,,,,,,,,,,,,magenta,hexagon
424.0,4.0,4.0,0.0,1.0,1.0,431.4307100003134,3.0,1.0,phase_1,,,,,,,,,,,,,blue,square
119.0,6.0,1.0,1.0,3.0,3.0,350.886681999782,3.0,1.0,phase_1,,,,,,,,,,,,,green,flipped triangle
0.0,1.0,0.0,0.0,3.0,3.0,373.9287919997878,3.0,1.0,phase_1,,,,,,,,,,,,,cyan,I
397.0,8.0,4.0,1.0,4.0,4.0,340.9717859999546,3.0,1.0,phase_1,,,,,,,,,,,,,white,circle
416.0,4.0,4.0,0.0,2.0,2.0,422.2309020001376,3.0,1.0,phase_1,,,,,,,,,,,,,blue,square
0.0,8.0,0.0,1.0,1.0,1.0,440.89279700028777,3.0,1.0,phase_1,,,,,,,,,,,,,white,circle
85.0,2.0,1.0,0.0,3.0,3.0,340.2960179996626,3.0,1.0,phase_1,,,,,,,,,,,,,magenta,hexagon
39.0,5.0,0.5,1.0,3.0,3.0,380.3104250000615,3.0,1.0,phase_1,,,,,,,,,,,,,orange,diamond
51.0,1.0,0.5,0.0,4.0,4.0,363.8632209999741,3.0,1.0,phase_1,,,,,,,,,,,,,cyan,I
221.0,3.0,2.0,0.0,3.0,3.0,385.7891960001325,3.0,1.0,phase_1,,,,,,,,,,,,,gray,cross
385.0,4.0,4.0,0.0,1.0,1.0,308.0097199999727,3.0,1.0,phase_1,,,,,,,,,,,,,blue,square
377.0,4.0,4.0,0.0,4.0,4.0,388.8807710000037,3.0,1.0,phase_1,,,,,,,,,,,,,blue,square
109.0,2.0,1.0,0.0,4.0,4.0,406.103160999919,3.0,1.0,phase_1,,,,,,,,,,,,,magenta,hexagon
89.0,2.0,1.0,0.0,2.0,2.0,368.7603869998384,3.0,1.0,phase_1,,,,,,,,,,,,,magenta,hexagon
205.0,3.0,2.0,0.0,1.0,1.0,306.885677000082,3.0,1.0,phase_1,,,,,,,,,,,,,gray,cross
189.0,7.0,2.0,1.0,3.0,3.0,335.7593890000316,3.0,1.0,phase_1,,,,,,,,,,,,,yellow,triangle
36.0,5.0,0.5,1.0,2.0,2.0,379.1800399999374,3.0,1.0,phase_1,,,,,,,,,,,,,orange,diamond
207.0,7.0,2.0,1.0,2.0,2.0,369.2793840000377,3.0,1.0,phase_1,,,,,,,,,,,,,yellow,triangle
405.0,4.0,4.0,0.0,4.0,4.0,356.1167890002252,3.0,1.0,phase_1,,,,,,,,,,,,,blue,square
211.0,3.0,2.0,0.0,4.0,4.0,336.4072489998762,3.0,1.0,phase_1,,,,,,,,,,,,,gray,cross
66.0,1.0,0.5,0.0,3.0,3.0,457.3040700001911,3.0,1.0,phase_1,,,,,,,,,,,,,cyan,I
29.0,5.0,0.5,1.0,2.0,2.0,316.7516690000411,3.0,1.0,phase_1,,,,,,,,,,,,,orange,diamond
76.0,6.0,1.0,1.0,2.0,2.0,407.3276330000226,3.0,1.0,phase_1,,,,,,,,,,,,,green,flipped triangle
202.0,7.0,2.0,1.0,4.0,4.0,375.5527809998966,3.0,1.0,phase_1,,,,,,,,,,,,,yellow,triangle
0.0,7.0,0.0,1.0,4.0,4.0,376.04807300022,3.0,1.0,phase_1,,,,,,,,,,,,,yellow,triangle
0.0,3.0,0.0,0.0,4.0,4.0,371.5332100000523,3.0,1.0,phase_1,,,,,,,,,,,,,gray,cross
110.0,6.0,1.0,1.0,1.0,1.0,369.0448420002212,3.0,1.0,phase_1,,,,,,,,,,,,,green,flipped triangle
27.0,5.0,0.5,1.0,1.0,1.0,335.0192829998377,3.0,1.0,phase_1,,,,,,,,,,,,,orange,diamond
195.0,7.0,2.0,1.0,1.0,1.0,333.7705720000485,3.0,1.0,phase_1,,,,,,,,,,,,,yellow,triangle
375.0,8.0,4.0,1.0,1.0,1.0,345.5410599999595,3.0,1.0,phase_1,,,,,,,,,,,,,white,circle
391.0,8.0,4.0,1.0,4.0,4.0,390.0116220002019,3.0,1.0,phase_1,,,,,,,,,,,,,white,circle
376.0,8.0,4.0,1.0,3.0,3.0,402.0493930001976,3.0,1.0,phase_1,,,,,,,,,,,,,white,circle
29.0,5.0,0.5,1.0,4.0,4.0,375.0275860002148,3.0,1.0,phase_1,,,,,,,,,,,,,orange,diamond
102.0,6.0,1.0,1.0,4.0,4.0,521.8372529998305,3.0,1.0,phase_1,,,,,,,,,,,,,green,flipped triangle
0.0,5.0,0.0,1.0,4.0,4.0,424.0912290001688,3.0,1.0,phase_1,,,,,,,,,,,,,orange,diamond
398.0,8.0,4.0,1.0,3.0,3.0,341.0187520003092,3.0,1.0,phase_1,,,,,,,,,,,,,white,circle
408.0,4.0,4.0,0.0,1.0,1.0,327.3433399999703,3.0,1.0,phase_1,,,,,,,,,,,,,blue,square
375.0,4.0,4.0,0.0,4.0,4.0,399.3165760002739,3.0,1.0,phase_1,,,,,,,,,,,,,blue,square
84.0,6.0,1.0,1.0,4.0,4.0,338.7410599998475,3.0,1.0,phase_1,,,,,,,,,,,,,green,flipped triangle
223.0,3.0,2.0,0.0,3.0,3.0,385.5361780001658,3.0,1.0,phase_1,,,,,,,,,,,,,gray,cross
66.0,5.0,0.5,1.0,1.0,1.0,359.5027900000787,3.0,1.0,phase_1,,,,,,,,,,,,,orange,diamond
218.0,3.0,2.0,0.0,2.0,2.0,374.4070869997813,3.0,1.0,phase_1,,,,,,,,,,,,,gray,cross
417.0,4.0,4.0,0.0,2.0,2.0,451.945311000145,3.0,1.0,phase_1,,,,,,,,,,,,,blue,square
110.0,6.0,1.0,1.0,4.0,4.0,367.0706240000072,3.0,2.0,phase_1,,,,,,,,,,,,,green,flipped triangle
52.0,1.0,0.5,0.0,1.0,1.0,395.1515179996931,3.0,1.0,phase_1,,,,,,,,,,,,,cyan,I
113.0,6.0,1.0,1.0,4.0,4.0,362.8903819999323,3.0,1.0,phase_1,,,,,,,,,,,,,green,flipped triangle
98.0,6.0,1.0,1.0,2.0,2.0,414.292402999763,3.0,1.0,phase_1,,,,,,,,,,,,,green,flipped triangle
94.0,2.0,1.0,0.0,3.0,3.0,351.354485000229,3.0,1.0,phase_1,,,,,,,,,,,,,magenta,hexagon
191.0,7.0,2.0,1.0,2.0,2.0,398.5991459999241,3.0,1.0,phase_1,,,,,,,,,,,,,yellow,triangle
78.0,6.0,1.0,1.0,1.0,1.0,447.2299319995727,3.0,2.0,phase_1,,,,,,,,,,,,,green,flipped triangle
185.0,3.0,2.0,0.0,1.0,1.0,364.741734999825,3.0,1.0,phase_1,,,,,,,,,,,,,gray,cross
51.0,5.0,0.5,1.0,1.0,1.0,381.5646100001686,3.0,1.0,phase_1,,,,,,,,,,,,,orange,diamond
377.0,4.0,4.0,0.0,2.0,2.0,417.2013699999297,3.0,1.0,phase_1,,,,,,,,,,,,,blue,square
29.0,1.0,0.5,0.0,2.0,2.0,400.906723999924,3.0,1.0,phase_1,,,,,,,,,,,,,cyan,I
0.0,5.0,0.0,1.0,3.0,3.0,399.3523330000244,3.0,1.0,phase_1,,,,,,,,,,,,,orange,diamond
202.0,3.0,2.0,0.0,3.0,3.0,416.7814840002393,3.0,1.0,phase_1,,,,,,,,,,,,,gray,cross
117.0,2.0,1.0,0.0,3.0,3.0,353.7726879999354,3.0,1.0,phase_1,,,,,,,,,,,,,magenta,hexagon
52.0,5.0,0.5,1.0,1.0,1.0,311.800680000033,3.0,1.0,phase_1,,,,,,,,,,,,,orange,diamond
377.0,8.0,4.0,1.0,1.0,1.0,396.5727390000211,3.0,1.0,phase_1,,,,,,,,,,,,,white,circle
378.0,8.0,4.0,1.0,1.0,1.0,340.8557399998244,3.0,1.0,phase_1,,,,,,,,,,,,,white,circle
424.0,8.0,4.0,1.0,2.0,2.0,352.6542210001935,3.0,1.0,phase_1,,,,,,,,,,,,,white,circle
191.0,3.0,2.0,0.0,3.0,3.0,377.1506680000129,3.0,1.0,phase_1,,,,,,,,,,,,,gray,cross
177.0,3.0,2.0,0.0,3.0,3.0,323.2150839999121,3.0,1.0,phase_1,,,,,,,,,,,,,gray,cross
409.0,4.0,4.0,0.0,1.0,1.0,342.1192400001018,3.0,1.0,phase_1,,,,,,,,,,,,,blue,square
395.0,4.0,4.0,0.0,1.0,1.0,380.0002580001091,3.0,1.0,phase_1,,,,,,,,,,,,,blue,square
401.0,8.0,4.0,1.0,1.0,1.0,317.2051050000846,3.0,1.0,phase_1,,,,,,,,,,,,,white,circle
189.0,3.0,2.0,0.0,1.0,1.0,347.8309219999573,3.0,1.0,phase_1,,,,,,,,,,,,,gray,cross
57.0,1.0,0.5,0.0,1.0,1.0,346.7721669999264,3.0,1.0,phase_1,,,,,,,,,,,,,cyan,I
0.0,3.0,0.0,0.0,2.0,2.0,320.2106559997446,3.0,2.0,phase_1,,,,,,,,,,,,,gray,cross
177.0,7.0,2.0,1.0,2.0,2.0,360.1197540001521,3.0,1.0,phase_1,,,,,,,,,,,,,yellow,triangle
202.0,3.0,2.0,0.0,2.0,2.0,366.46485700021,3.0,1.0,phase_1,,,,,,,,,,,,,gray,cross
0.0,4.0,0.0,0.0,2.0,2.0,376.9692679998115,3.0,1.0,phase_1,,,,,,,,,,,,,blue,square
49.0,5.0,0.5,1.0,3.0,3.0,355.8442270000341,3.0,1.0,phase_1,,,,,,,,,,,,,orange,diamond
114.0,6.0,1.0,1.0,3.0,3.0,401.6722810001738,4.0,1.0,phase_1,,,,,,,,,,,,,green,flipped triangle
125.0,2.0,1.0,0.0,1.0,1.0,306.5723360000447,4.0,1.0,phase_1,,,,,,,,,,,,,magenta,hexagon
0.0,2.0,0.0,0.0,2.0,2.0,287.8123179998511,4.0,1.0,phase_1,,,,,,,,,,,,,magenta,hexagon
103.0,2.0,1.0,0.0,2.0,2.0,362.0921739998266,4.0,1.0,phase_1,,,,,,,,,,,,,magenta,hexagon
33.0,1.0,0.5,0.0,3.0,3.0,284.3868899999506,4.0,1.0,phase_1,,,,,,,,,,,,,cyan,I
58.0,1.0,0.5,0.0,1.0,1.0,303.2117650000145,4.0,1.0,phase_1,,,,,,,,,,,,,cyan,I
73.0,5.0,0.5,1.0,4.0,4.0,342.5655070000175,4.0,1.0,phase_1,,,,,,,,,,,,,orange,diamond
418.0,4.0,4.0,0.0,3.0,3.0,349.5037030002095,4.0,1.0,phase_1,,,,,,,,,,,,,blue,square
0.0,8.0,0.0,1.0,1.0,1.0,295.6218610001997,4.0,1.0,phase_1,,,,,,,,,,,,,white,circle
85.0,6.0,1.0,1.0,3.0,3.0,334.7760669998934,4.0,1.0,phase_1,,,,,,,,,,,,,green,flipped triangle
0.0,5.0,0.0,1.0,3.0,3.0,414.4719619998795,4.0,1.0,phase_1,,,,,,,,,,,,,orange,diamond
105.0,6.0,1.0,1.0,4.0,4.0,399.0192480000587,4.0,1.0,phase_1,,,,,,,,,,,,,green,flipped triangle
194.0,3.0,2.0,0.0,4.0,4.0,348.5598970000865,4.0,1.0,phase_1,,,,,,,,,,,,,gray,cross
188.0,3.0,2.0,0.0,2.0,2.0,355.4070350000984,4.0,1.0,phase_1,,,,,,,,,,,,,gray,cross
0.0,1.0,0.0,0.0,4.0,4.0,301.7968709996239,4.0,1.0,phase_1,,,,,,,,,,,,,cyan,I
424.0,8.0,4.0,1.0,3.0,3.0,334.0233459998671,4.0,1.0,phase_1,,,,,,,,,,,,,white,circle
0.0,1.0,0.0,0.0,2.0,2.0,345.8444660000168,4.0,1.0,phase_1,,,,,,,,,,,,,cyan,I
91.0,2.0,1.0,0.0,4.0,4.0,305.5705439996927,4.0,1.0,phase_1,,,,,,,,,,,,,magenta,hexagon
213.0,7.0,2.0,1.0,1.0,1.0,338.0734999996093,4.0,1.0,phase_1,,,,,,,,,,,,,yellow,triangle
51.0,5.0,0.5,1.0,4.0,4.0,358.6724259998846,4.0,1.0,phase_1,,,,,,,,,,,,,orange,diamond
391.0,4.0,4.0,0.0,3.0,3.0,331.3927770000191,4.0,1.0,phase_1,,,,,,,,,,,,,blue,square
383.0,4.0,4.0,0.0,3.0,3.0,308.7976070000877,4.0,1.0,phase_1,,,,,,,,,,,,,blue,square
91.0,6.0,1.0,1.0,3.0,3.0,322.7602799997839,4.0,1.0,phase_1,,,,,,,,,,,,,green,flipped triangle
378.0,4.0,4.0,0.0,3.0,3.0,343.2379969999601,4.0,1.0,phase_1,,,,,,,,,,,,,blue,square
0.0,6.0,0.0,1.0,2.0,2.0,301.7327570000816,4.0,1.0,phase_1,,,,,,,,,,,,,green,flipped triangle
411.0,8.0,4.0,1.0,4.0,4.0,316.846827000063,4.0,1.0,phase_1,,,,,,,,,,,,,white,circle
0.0,2.0,0.0,0.0,4.0,4.0,410.9344110001984,4.0,1.0,phase_1,,,,,,,,,,,,,magenta,hexagon
0.0,2.0,0.0,0.0,3.0,3.0,393.0973859996811,4.0,1.0,phase_1,,,,,,,,,,,,,magenta,hexagon
0.0,7.0,0.0,1.0,3.0,3.0,382.7897800001665,4.0,1.0,phase_1,,,,,,,,,,,,,yellow,triangle
176.0,7.0,2.0,1.0,1.0,1.0,337.3925699997926,4.0,1.0,phase_1,,,,,,,,,,,,,yellow,triangle
409.0,8.0,4.0,1.0,2.0,2.0,315.3231609999238,4.0,1.0,phase_1,,,,,,,,,,,,,white,circle
0.0,6.0,0.0,1.0,1.0,1.0,593.5335919998579,4.0,1.0,phase_1,,,,,,,,,,,,,green,flipped triangle
0.0,8.0,0.0,1.0,2.0,2.0,544.9838560002718,4.0,1.0,phase_1,,,,,,,,,,,,,white,circle
383.0,4.0,4.0,0.0,1.0,1.0,356.1815610000849,4.0,1.0,phase_1,,,,,,,,,,,,,blue,square
0.0,3.0,0.0,0.0,1.0,1.0,364.1511999999238,4.0,1.0,phase_1,,,,,,,,,,,,,gray,cross
53.0,5.0,0.5,1.0,4.0,4.0,378.6681179999505,4.0,1.0,phase_1,,,,,,,,,,,,,orange,diamond
0.0,4.0,0.0,0.0,4.0,4.0,362.6893999999083,4.0,1.0,phase_1,,,,,,,,,,,,,blue,square
96.0,2.0,1.0,0.0,1.0,1.0,394.2930030002571,4.0,1.0,phase_1,,,,,,,,,,,,,magenta,hexagon
43.0,1.0,0.5,0.0,3.0,3.0,399.0738740003507,4.0,1.0,phase_1,,,,,,,,,,,,,cyan,I
218.0,7.0,2.0,1.0,4.0,4.0,368.0371710001964,4.0,1.0,phase_1,,,,,,,,,,,,,yellow,triangle
0.0,4.0,0.0,0.0,1.0,1.0,313.1500740000774,4.0,1.0,phase_1,,,,,,,,,,,,,blue,square
120.0,2.0,1.0,0.0,4.0,4.0,355.172512000081,4.0,2.0,phase_1,,,,,,,,,,,,,magenta,hexagon
73.0,1.0,0.5,0.0,2.0,2.0,392.6904459999605,4.0,1.0,phase_1,,,,,,,,,,,,,cyan,I
45.0,1.0,0.5,0.0,2.0,2.0,353.1058029998348,4.0,1.0,phase_1,,,,,,,,,,,,,cyan,I
69.0,1.0,0.5,0.0,2.0,2.0,325.6550299997798,4.0,1.0,phase_1,,,,,,,,,,,,,cyan,I
415.0,8.0,4.0,1.0,3.0,3.0,360.0198200001614,4.0,1.0,phase_1,,,,,,,,,,,,,white,circle
111.0,2.0,1.0,0.0,3.0,3.0,298.3566970001448,4.0,1.0,phase_1,,,,,,,,,,,,,magenta,hexagon
377.0,8.0,4.0,1.0,4.0,4.0,391.8479900003149,4.0,1.0,phase_1,,,,,,,,,,,,,white,circle
39.0,1.0,0.5,0.0,3.0,3.0,404.2054770002323,4.0,1.0,phase_1,,,,,,,,,,,,,cyan,I
402.0,4.0,4.0,0.0,2.0,2.0,385.5207349997727,4.0,1.0,phase_1,,,,,,,,,,,,,blue,square
219.0,3.0,2.0,0.0,1.0,1.0,372.0769550000113,4.0,1.0,phase_1,,,,,,,,,,,,,gray,cross
0.0,1.0,0.0,0.0,4.0,4.0,495.3221010000561,4.0,1.0,phase_1,,,,,,,,,,,,,cyan,I
0.0,5.0,0.0,1.0,1.0,1.0,351.8677740003113,4.0,1.0,phase_1,,,,,,,,,,,,,orange,diamond
57.0,5.0,0.5,1.0,2.0,2.0,333.8824620000196,4.0,1.0,phase_1,,,,,,,,,,,,,orange,diamond
107.0,6.0,1.0,1.0,1.0,1.0,393.707453999923,4.0,1.0,phase_1,,,,,,,,,,,,,green,flipped triangle
57.0,5.0,0.5,1.0,3.0,3.0,510.620592000123,4.0,1.0,phase_1,,,,,,,,,,,,,orange,diamond
198.0,3.0,2.0,0.0,1.0,1.0,365.4323350001505,4.0,1.0,phase_1,,,,,,,,,,,,,gray,cross
389.0,4.0,4.0,0.0,3.0,3.0,339.4761249996918,4.0,1.0,phase_1,,,,,,,,,,,,,blue,square
202.0,7.0,2.0,1.0,3.0,3.0,352.765737000027,4.0,1.0,phase_1,,,,,,,,,,,,,yellow,triangle
0.0,7.0,0.0,1.0,3.0,3.0,324.1093189999446,4.0,1.0,phase_1,,,,,,,,,,,,,yellow,triangle
402.0,4.0,4.0,0.0,4.0,4.0,421.1378259997218,4.0,1.0,phase_1,,,,,,,,,,,,,blue,square
57.0,1.0,0.5,0.0,4.0,4.0,397.0098779996078,4.0,1.0,phase_1,,,,,,,,,,,,,cyan,I
215.0,3.0,2.0,0.0,4.0,4.0,308.3347019996836,4.0,1.0,phase_1,,,,,,,,,,,,,gray,cross
109.0,2.0,1.0,0.0,1.0,1.0,367.6579259999926,4.0,1.0,phase_1,,,,,,,,,,,,,magenta,hexagon
78.0,2.0,1.0,0.0,4.0,4.0,370.5069019997609,4.0,1.0,phase_1,,,,,,,,,,,,,magenta,hexagon
179.0,7.0,2.0,1.0,3.0,3.0,363.2131640001717,4.0,1.0,phase_1,,,,,,,,,,,,,yellow,triangle
85.0,6.0,1.0,1.0,4.0,4.0,331.253179000214,4.0,1.0,phase_1,,,,,,,,,,,,,green,flipped triangle
402.0,8.0,4.0,1.0,2.0,2.0,359.8102420000941,4.0,1.0,phase_1,,,,,,,,,,,,,white,circle
385.0,8.0,4.0,1.0,3.0,3.0,343.6769569998432,4.0,1.0,phase_1,,,,,,,,,,,,,white,circle
0.0,2.0,0.0,0.0,1.0,1.0,383.174372999747,4.0,1.0,phase_1,,,,,,,,,,,,,magenta,hexagon
387.0,4.0,4.0,0.0,4.0,4.0,348.046019999856,4.0,1.0,phase_1,,,,,,,,,,,,,blue,square
205.0,3.0,2.0,0.0,3.0,3.0,330.3907030003756,4.0,1.0,phase_1,,,,,,,,,,,,,gray,cross
0.0,4.0,0.0,0.0,4.0,4.0,578.9954010001566,4.0,1.0,phase_1,,,,,,,,,,,,,blue,square
198.0,7.0,2.0,1.0,1.0,1.0,345.3161309998904,4.0,1.0,phase_1,,,,,,,,,,,,,yellow,triangle
176.0,3.0,2.0,0.0,3.0,3.0,347.0512680000865,4.0,1.0,phase_1,,,,,,,,,,,,,gray,cross
77.0,6.0,1.0,1.0,3.0,3.0,354.3075610000414,4.0,1.0,phase_1,,,,,,,,,,,,,green,flipped triangle
55.0,1.0,0.5,0.0,1.0,1.0,354.7373049996167,4.0,1.0,phase_1,,,,,,,,,,,,,cyan,I
0.0,8.0,0.0,1.0,4.0,4.0,380.3014810000604,4.0,1.0,phase_1,,,,,,,,,,,,,white,circle
33.0,5.0,0.5,1.0,1.0,1.0,367.2606149998501,4.0,1.0,phase_1,,,,,,,,,,,,,orange,diamond
0.0,4.0,0.0,0.0,3.0,3.0,371.6837679999116,4.0,1.0,phase_1,,,,,,,,,,,,,blue,square
395.0,4.0,4.0,0.0,4.0,4.0,367.0651760003238,4.0,1.0,phase_1,,,,,,,,,,,,,blue,square
0.0,7.0,0.0,1.0,2.0,2.0,353.9220799998475,4.0,1.0,phase_1,,,,,,,,,,,,,yellow,triangle
0.0,5.0,0.0,1.0,3.0,3.0,379.0418920002594,4.0,1.0,phase_1,,,,,,,,,,,,,orange,diamond
0.0,4.0,0.0,0.0,4.0,4.0,374.47221299999,4.0,1.0,phase_1,,,,,,,,,,,,,blue,square
195.0,3.0,2.0,0.0,4.0,4.0,389.1816770001242,4.0,1.0,phase_1,,,,,,,,,,,,,gray,cross
78.0,6.0,1.0,1.0,3.0,3.0,339.7931280001103,4.0,1.0,phase_1,,,,,,,,,,,,,green,flipped triangle
202.0,7.0,2.0,1.0,1.0,1.0,348.2825340001909,4.0,1.0,phase_1,,,,,,,,,,,,,yellow,triangle
195.0,3.0,2.0,0.0,4.0,4.0,438.1913629999872,4.0,1.0,phase_1,,,,,,,,,,,,,gray,cross
119.0,2.0,1.0,0.0,4.0,4.0,382.7514839999821,4.0,1.0,phase_1,,,,,,,,,,,,,magenta,hexagon
408.0,8.0,4.0,1.0,4.0,4.0,359.7953569997116,4.0,1.0,phase_1,,,,,,,,,,,,,white,circle
0.0,3.0,0.0,0.0,3.0,3.0,319.6732389997123,4.0,1.0,phase_1,,,,,,,,,,,,,gray,cross
85.0,2.0,1.0,0.0,3.0,3.0,324.809090999679,4.0,1.0,phase_1,,,,,,,,,,,,,magenta,hexagon
0.0,2.0,0.0,0.0,4.0,4.0,317.2591879997526,4.0,1.0,phase_1,,,,,,,,,,,,,magenta,hexagon
45.0,1.0,0.5,0.0,1.0,1.0,345.4418500000429,4.0,1.0,phase_1,,,,,,,,,,,,,cyan,I
0.0,4.0,0.0,0.0,2.0,2.0,442.3873459995775,4.0,1.0,phase_1,,,,,,,,,,,,,blue,square
28.0,5.0,0.5,1.0,3.0,3.0,368.4694680000575,4.0,1.0,phase_1,,,,,,,,,,,,,orange,diamond
192.0,7.0,2.0,1.0,1.0,1.0,419.2964120002216,4.0,1.0,phase_1,,,,,,,,,,,,,yellow,triangle
213.0,3.0,2.0,0.0,1.0,1.0,334.8451060001025,4.0,1.0,phase_1,,,,,,,,,,,,,gray,cross
73.0,1.0,0.5,0.0,3.0,3.0,320.7596759998523,4.0,1.0,phase_1,,,,,,,,,,,,,cyan,I
82.0,6.0,1.0,1.0,1.0,1.0,338.1247020001865,4.0,1.0,phase_1,,,,,,,,,,,,,green,flipped triangle
0.0,6.0,1.0,1.0,5.0,5.0,537.6353000001473,1.0,1.0,phase_2,stop,250.0,250.0,3.0,,,,,,,,,green,flipped triangle
0.0,3.0,2.0,0.0,6.0,6.0,541.4169339996988,1.0,1.0,phase_2,go,200.0,250.0,1.0,,,,,,,,,gray,cross
0.0,8.0,4.0,1.0,6.0,6.0,395.7036560000233,1.0,1.0,phase_2,stop,200.0,250.0,3.0,,,,,,,,,white,circle
0.0,7.0,2.0,1.0,6.0,6.0,578.968335999889,1.0,1.0,phase_2,stop,200.0,200.0,3.0,,,,,,,,,yellow,triangle
0.0,6.0,1.0,1.0,5.0,0.0,0.0,1.0,1.0,phase_2,stop,200.0,150.0,4.0,,,,,,,,,green,flipped triangle
0.0,2.0,1.0,0.0,5.0,5.0,563.486013000329,1.0,1.0,phase_2,go,250.0,150.0,1.0,,,,,,,,,magenta,hexagon
0.0,1.0,0.5,0.0,5.0,5.0,750.3414840002733,1.0,1.0,phase_2,go,250.0,150.0,1.0,,,,,,,,,cyan,I
0.0,1.0,0.5,0.0,6.0,6.0,731.5346250002221,1.0,1.0,phase_2,go,250.0,150.0,1.0,,,,,,,,,cyan,I
0.0,7.0,2.0,1.0,5.0,0.0,0.0,1.0,1.0,phase_2,stop,250.0,150.0,4.0,,,,,,,,,yellow,triangle
0.0,8.0,4.0,1.0,6.0,0.0,0.0,1.0,1.0,phase_2,stop,300.0,150.0,4.0,,,,,,,,,white,circle
0.0,8.0,4.0,1.0,6.0,0.0,0.0,1.0,1.0,phase_2,stop,300.0,200.0,4.0,,,,,,,,,white,circle
0.0,3.0,2.0,0.0,6.0,6.0,641.3859959998263,1.0,1.0,phase_2,go,300.0,250.0,1.0,,,,,,,,,gray,cross
0.0,1.0,0.5,0.0,5.0,5.0,647.5034039999628,1.0,1.0,phase_2,go,300.0,250.0,1.0,,,,,,,,,cyan,I
0.0,4.0,4.0,0.0,6.0,6.0,674.1402530001324,1.0,1.0,phase_2,go,300.0,250.0,1.0,,,,,,,,,blue,square
0.0,8.0,4.0,1.0,5.0,5.0,410.6345620002685,1.0,1.0,phase_2,stop,300.0,250.0,3.0,,,,,,,,,white,circle
0.0,6.0,1.0,1.0,5.0,0.0,0.0,1.0,1.0,phase_2,stop,250.0,250.0,4.0,,,,,,,,,green,flipped triangle
0.0,2.0,1.0,0.0,5.0,5.0,610.3316200001245,1.0,1.0,phase_2,go,300.0,250.0,1.0,,,,,,,,,magenta,hexagon
0.0,5.0,0.5,1.0,6.0,0.0,0.0,1.0,1.0,phase_2,stop,300.0,250.0,4.0,,,,,,,,,orange,diamond
0.0,2.0,1.0,0.0,6.0,6.0,714.7304169998279,1.0,1.0,phase_2,go,300.0,300.0,1.0,,,,,,,,,magenta,hexagon
0.0,1.0,0.5,0.0,5.0,5.0,652.0948369998223,1.0,1.0,phase_2,go,300.0,300.0,1.0,,,,,,,,,cyan,I
0.0,1.0,0.5,0.0,6.0,6.0,629.5529980002357,1.0,1.0,phase_2,go,300.0,300.0,1.0,,,,,,,,,cyan,I
0.0,1.0,0.5,0.0,5.0,5.0,783.4238559998994,1.0,1.0,phase_2,go,300.0,300.0,1.0,,,,,,,,,cyan,I
0.0,8.0,4.0,1.0,6.0,6.0,549.8868399999992,1.0,1.0,phase_2,go,300.0,300.0,1.0,,,,,,,,,white,circle
0.0,2.0,1.0,0.0,5.0,5.0,774.9967390000165,1.0,1.0,phase_2,go,300.0,300.0,1.0,,,,,,,,,magenta,hexagon
0.0,1.0,0.5,0.0,5.0,5.0,662.4769710001601,1.0,1.0,phase_2,go,300.0,300.0,1.0,,,,,,,,,cyan,I
0.0,2.0,1.0,0.0,5.0,5.0,697.443614000349,1.0,1.0,phase_2,go,300.0,300.0,1.0,,,,,,,,,magenta,hexagon
0.0,6.0,1.0,1.0,6.0,0.0,0.0,1.0,1.0,phase_2,stop,300.0,300.0,4.0,,,,,,,,,green,flipped triangle
0.0,2.0,1.0,0.0,6.0,6.0,755.9385109998402,1.0,1.0,phase_2,go,300.0,350.0,1.0,,,,,,,,,magenta,hexagon
0.0,6.0,1.0,1.0,5.0,0.0,0.0,1.0,1.0,phase_2,stop,300.0,350.0,4.0,,,,,,,,,green,flipped triangle
0.0,2.0,1.0,0.0,6.0,6.0,636.279507999916,1.0,1.0,phase_2,go,350.0,350.0,1.0,,,,,,,,,magenta,hexagon
0.0,1.0,0.5,0.0,6.0,6.0,832.7974920002816,1.0,1.0,phase_2,go,350.0,350.0,1.0,,,,,,,,,cyan,I
0.0,6.0,1.0,1.0,6.0,0.0,0.0,1.0,1.0,phase_2,stop,350.0,350.0,4.0,,,,,,,,,green,flipped triangle
0.0,5.0,0.5,1.0,6.0,6.0,750.172399999883,1.0,1.0,phase_2,go,350.0,400.0,1.0,,,,,,,,,orange,diamond
0.0,3.0,2.0,0.0,5.0,5.0,578.7949700002173,1.0,1.0,phase_2,go,350.0,400.0,1.0,,,,,,,,,gray,cross
0.0,7.0,2.0,1.0,5.0,0.0,0.0,1.0,1.0,phase_2,stop,350.0,400.0,4.0,,,,,,,,,yellow,triangle
0.0,8.0,4.0,1.0,5.0,5.0,693.3472870000514,1.0,1.0,phase_2,go,400.0,400.0,1.0,,,,,,,,,white,circle
0.0,4.0,4.0,0.0,6.0,6.0,488.4847629996329,2.0,1.0,phase_2,go,400.0,400.0,1.0,,,,,,,,,blue,square
0.0,4.0,4.0,0.0,5.0,5.0,386.0067650002747,2.0,1.0,phase_2,go,400.0,400.0,1.0,,,,,,,,,blue,square
0.0,5.0,0.5,1.0,5.0,5.0,369.3334380000124,2.0,1.0,phase_2,stop,400.0,400.0,3.0,,,,,,,,,orange,diamond
0.0,4.0,4.0,0.0,5.0,5.0,525.1885770003355,2.0,1.0,phase_2,go,350.0,400.0,1.0,,,,,,,,,blue,square
0.0,2.0,1.0,0.0,6.0,6.0,390.1103559996954,2.0,1.0,phase_2,go,350.0,400.0,1.0,,,,,,,,,magenta,hexagon
0.0,1.0,0.5,0.0,6.0,6.0,339.6687690001272,2.0,1.0,phase_2,go,350.0,400.0,1.0,,,,,,,,,cyan,I
0.0,1.0,0.5,0.0,6.0,6.0,472.3249970002143,2.0,1.0,phase_2,go,350.0,400.0,1.0,,,,,,,,,cyan,I
0.0,1.0,0.5,0.0,6.0,6.0,334.1832549999708,2.0,1.0,phase_2,go,350.0,400.0,1.0,,,,,,,,,cyan,I
0.0,3.0,2.0,0.0,5.0,5.0,503.0559390002054,2.0,1.0,phase_2,go,350.0,400.0,1.0,,,,,,,,,gray,cross
0.0,5.0,0.5,1.0,6.0,6.0,279.3785009998828,2.0,1.0,phase_2,stop,350.0,400.0,3.0,,,,,,,,,orange,diamond
0.0,6.0,1.0,1.0,5.0,5.0,485.2251029997205,2.0,1.0,phase_2,go,350.0,350.0,1.0,,,,,,,,,green,flipped triangle
0.0,4.0,4.0,0.0,5.0,5.0,729.3461659996865,2.0,1.0,phase_2,go,350.0,350.0,1.0,,,,,,,,,blue,square
0.0,6.0,1.0,1.0,5.0,5.0,450.1522690002275,2.0,1.0,phase_2,stop,350.0,350.0,3.0,,,,,,,,,green,flipped triangle
0.0,2.0,1.0,0.0,6.0,6.0,492.0813010003257,2.0,1.0,phase_2,go,300.0,350.0,1.0,,,,,,,,,magenta,hexagon
0.0,6.0,1.0,1.0,6.0,0.0,0.0,2.0,1.0,phase_2,stop,300.0,350.0,4.0,,,,,,,,,green,flipped triangle
0.0,4.0,4.0,0.0,5.0,5.0,551.0434179996082,2.0,1.0,phase_2,go,300.0,400.0,1.0,,,,,,,,,blue,square
0.0,8.0,4.0,1.0,5.0,5.0,484.0777620001972,2.0,1.0,phase_2,go,300.0,400.0,1.0,,,,,,,,,white,circle
0.0,4.0,4.0,0.0,5.0,5.0,721.3292299998102,2.0,1.0,phase_2,go,300.0,400.0,1.0,,,,,,,,,blue,square
0.0,4.0,4.0,0.0,6.0,6.0,471.2431879997893,2.0,1.0,phase_2,go,300.0,400.0,1.0,,,,,,,,,blue,square
0.0,2.0,1.0,0.0,6.0,6.0,554.0854509999917,2.0,1.0,phase_2,go,300.0,400.0,1.0,,,,,,,,,magenta,hexagon
0.0,4.0,4.0,0.0,6.0,6.0,543.0887420002364,2.0,1.0,phase_2,go,300.0,400.0,1.0,,,,,,,,,blue,square
0.0,8.0,4.0,1.0,6.0,6.0,534.6961290001673,2.0,1.0,phase_2,stop,300.0,400.0,3.0,,,,,,,,,white,circle
0.0,1.0,0.5,0.0,6.0,6.0,531.9657000000007,2.0,1.0,phase_2,go,300.0,350.0,1.0,,,,,,,,,cyan,I
0.0,7.0,2.0,1.0,5.0,0.0,0.0,2.0,1.0,phase_2,stop,300.0,350.0,4.0,,,,,,,,,yellow,triangle
0.0,1.0,0.5,0.0,5.0,5.0,750.2161600000363,2.0,1.0,phase_2,go,350.0,350.0,1.0,,,,,,,,,cyan,I
0.0,3.0,2.0,0.0,6.0,6.0,605.8509360000244,2.0,1.0,phase_2,go,350.0,350.0,1.0,,,,,,,,,gray,cross
0.0,2.0,1.0,0.0,5.0,5.0,569.3772539998463,2.0,1.0,phase_2,go,350.0,350.0,1.0,,,,,,,,,magenta,hexagon
0.0,7.0,2.0,1.0,6.0,6.0,688.3782459999566,2.0,1.0,phase_2,go,350.0,350.0,1.0,,,,,,,,,yellow,triangle
0.0,5.0,0.5,1.0,5.0,0.0,0.0,2.0,1.0,phase_2,stop,350.0,350.0,4.0,,,,,,,,,orange,diamond
0.0,1.0,0.5,0.0,5.0,5.0,623.8212260000182,2.0,1.0,phase_2,go,400.0,350.0,1.0,,,,,,,,,cyan,I
0.0,7.0,2.0,1.0,6.0,6.0,431.5302469999551,2.0,1.0,phase_2,go,400.0,350.0,1.0,,,,,,,,,yellow,triangle
0.0,7.0,2.0,1.0,6.0,6.0,509.67478899974594,2.0,1.0,phase_2,stop,400.0,350.0,3.0,,,,,,,,,yellow,triangle
0.0,5.0,0.5,1.0,5.0,0.0,0.0,2.0,1.0,phase_2,stop,400.0,300.0,4.0,,,,,,,,,orange,diamond
0.0,3.0,2.0,0.0,5.0,5.0,570.8328280002206,2.0,1.0,phase_2,go,450.0,300.0,1.0,,,,,,,,,gray,cross
0.0,8.0,4.0,1.0,6.0,0.0,0.0,2.0,1.0,phase_2,stop,450.0,300.0,4.0,,,,,,,,,white,circle
0.0,2.0,1.0,0.0,6.0,6.0,732.0944500002042,2.0,1.0,phase_2,go,450.0,350.0,1.0,,,,,,,,,magenta,hexagon
0.0,3.0,2.0,0.0,5.0,5.0,537.8862600000502,3.0,1.0,phase_2,go,450.0,350.0,1.0,,,,,,,,,gray,cross
0.0,1.0,0.5,0.0,6.0,6.0,341.2239310000586,3.0,1.0,phase_2,go,450.0,350.0,1.0,,,,,,,,,cyan,I
0.0,1.0,0.5,0.0,6.0,6.0,463.9985369999522,3.0,1.0,phase_2,go,450.0,350.0,1.0,,,,,,,,,cyan,I
0.0,3.0,2.0,0.0,5.0,5.0,507.36102400014715,3.0,1.0,phase_2,go,450.0,350.0,1.0,,,,,,,,,gray,cross
0.0,7.0,2.0,1.0,5.0,5.0,418.0059990003428,3.0,1.0,phase_2,stop,450.0,350.0,3.0,,,,,,,,,yellow,triangle
0.0,8.0,4.0,1.0,5.0,5.0,619.9306749999778,3.0,1.0,phase_2,go,400.0,350.0,1.0,,,,,,,,,white,circle
0.0,1.0,0.5,0.0,5.0,5.0,560.8901659998082,3.0,1.0,phase_2,go,400.0,350.0,1.0,,,,,,,,,cyan,I
0.0,6.0,1.0,1.0,5.0,0.0,0.0,3.0,1.0,phase_2,stop,400.0,350.0,4.0,,,,,,,,,green,flipped triangle
0.0,2.0,1.0,0.0,6.0,6.0,633.8913980002872,3.0,1.0,phase_2,go,450.0,350.0,1.0,,,,,,,,,magenta,hexagon
0.0,8.0,4.0,1.0,6.0,6.0,707.9847999998492,3.0,1.0,phase_2,go,450.0,350.0,1.0,,,,,,,,,white,circle
0.0,3.0,2.0,0.0,5.0,5.0,508.4918919997108,3.0,1.0,phase_2,go,450.0,350.0,1.0,,,,,,,,,gray,cross
0.0,6.0,1.0,1.0,5.0,5.0,543.1098479998582,3.0,1.0,phase_2,stop,450.0,350.0,3.0,,,,,,,,,green,flipped triangle
0.0,4.0,4.0,0.0,5.0,5.0,604.1596499999287,3.0,1.0,phase_2,go,400.0,350.0,1.0,,,,,,,,,blue,square
0.0,3.0,2.0,0.0,6.0,6.0,487.0083710002291,3.0,1.0,phase_2,go,400.0,350.0,1.0,,,,,,,,,gray,cross
0.0,5.0,0.5,1.0,6.0,6.0,528.1676419999712,3.0,1.0,phase_2,go,400.0,350.0,1.0,,,,,,,,,orange,diamond
0.0,1.0,0.5,0.0,5.0,5.0,469.4856719997915,3.0,1.0,phase_2,go,400.0,350.0,1.0,,,,,,,,,cyan,I
0.0,8.0,4.0,1.0,5.0,5.0,319.7226629999932,3.0,1.0,phase_2,stop,400.0,350.0,3.0,,,,,,,,,white,circle
0.0,8.0,4.0,1.0,5.0,0.0,0.0,3.0,1.0,phase_2,stop,350.0,350.0,4.0,,,,,,,,,white,circle
0.0,4.0,4.0,0.0,5.0,5.0,579.0461450001203,3.0,1.0,phase_2,go,400.0,350.0,1.0,,,,,,,,,blue,square
0.0,1.0,0.5,0.0,5.0,5.0,656.3985059997322,3.0,1.0,phase_2,go,400.0,350.0,1.0,,,,,,,,,cyan,I
0.0,3.0,2.0,0.0,5.0,5.0,573.2607479999388,3.0,1.0,phase_2,go,400.0,350.0,1.0,,,,,,,,,gray,cross
0.0,6.0,1.0,1.0,5.0,5.0,377.9769579996355,3.0,1.0,phase_2,stop,400.0,350.0,3.0,,,,,,,,,green,flipped triangle
0.0,6.0,1.0,1.0,6.0,6.0,567.9243970002972,3.0,1.0,phase_2,go,350.0,350.0,1.0,,,,,,,,,green,flipped triangle
0.0,1.0,0.5,0.0,5.0,5.0,583.8634870001442,3.0,1.0,phase_2,go,350.0,350.0,1.0,,,,,,,,,cyan,I
0.0,4.0,4.0,0.0,6.0,6.0,369.3950040001255,3.0,1.0,phase_2,go,350.0,350.0,1.0,,,,,,,,,blue,square
0.0,7.0,2.0,1.0,6.0,0.0,0.0,3.0,1.0,phase_2,stop,350.0,350.0,4.0,,,,,,,,,yellow,triangle
0.0,4.0,4.0,0.0,6.0,6.0,530.9704229998715,3.0,1.0,phase_2,go,350.0,400.0,1.0,,,,,,,,,blue,square
0.0,2.0,1.0,0.0,6.0,6.0,608.1062580001344,3.0,1.0,phase_2,go,350.0,400.0,1.0,,,,,,,,,magenta,hexagon
0.0,5.0,0.5,1.0,6.0,6.0,389.1362160002245,3.0,1.0,phase_2,stop,350.0,400.0,3.0,,,,,,,,,orange,diamond
0.0,3.0,2.0,0.0,5.0,5.0,511.02852400026677,3.0,1.0,phase_2,go,350.0,350.0,1.0,,,,,,,,,gray,cross
0.0,3.0,2.0,0.0,5.0,5.0,480.4391850002503,3.0,1.0,phase_2,go,350.0,350.0,1.0,,,,,,,,,gray,cross
0.0,4.0,4.0,0.0,5.0,5.0,681.6979160003029,3.0,1.0,phase_2,go,350.0,350.0,1.0,,,,,,,,,blue,square
0.0,6.0,1.0,1.0,6.0,6.0,457.3434360004285,3.0,1.0,phase_2,stop,350.0,350.0,3.0,,,,,,,,,green,flipped triangle
0.0,3.0,2.0,0.0,5.0,5.0,493.1280129999322,3.0,1.0,phase_2,go,350.0,300.0,1.0,,,,,,,,,gray,cross
0.0,7.0,2.0,1.0,5.0,0.0,0.0,3.0,1.0,phase_2,stop,350.0,300.0,4.0,,,,,,,,,yellow,triangle
0.0,4.0,4.0,0.0,5.0,5.0,636.3881610000135,3.0,1.0,phase_2,go,400.0,300.0,1.0,,,,,,,,,blue,square
0.0,4.0,4.0,0.0,6.0,6.0,672.2854690001441,4.0,1.0,phase_2,go,400.0,300.0,1.0,,,,,,,,,blue,square
0.0,7.0,2.0,1.0,5.0,5.0,707.4046550001185,4.0,1.0,phase_2,go,400.0,300.0,1.0,,,,,,,,,yellow,triangle
0.0,7.0,2.0,1.0,5.0,5.0,431.0164680000525,4.0,1.0,phase_2,stop,400.0,300.0,3.0,,,,,,,,,yellow,triangle
0.0,8.0,4.0,1.0,6.0,0.0,0.0,4.0,1.0,phase_2,stop,350.0,300.0,4.0,,,,,,,,,white,circle
0.0,3.0,2.0,0.0,5.0,5.0,517.2222520000105,4.0,1.0,phase_2,go,350.0,350.0,1.0,,,,,,,,,gray,cross
0.0,2.0,1.0,0.0,5.0,5.0,451.8582450000394,4.0,1.0,phase_2,go,350.0,350.0,1.0,,,,,,,,,magenta,hexagon
0.0,8.0,4.0,1.0,6.0,6.0,424.7304049999911,4.0,1.0,phase_2,stop,350.0,350.0,3.0,,,,,,,,,white,circle
0.0,5.0,0.5,1.0,6.0,6.0,464.9502990000655,4.0,1.0,phase_2,stop,350.0,300.0,3.0,,,,,,,,,orange,diamond
0.0,7.0,2.0,1.0,6.0,0.0,0.0,4.0,1.0,phase_2,stop,350.0,250.0,4.0,,,,,,,,,yellow,triangle
0.0,2.0,1.0,0.0,5.0,5.0,528.813762000027,4.0,1.0,phase_2,go,350.0,300.0,1.0,,,,,,,,,magenta,hexagon
0.0,8.0,4.0,1.0,6.0,6.0,595.1287240000056,4.0,1.0,phase_2,go,350.0,300.0,1.0,,,,,,,,,white,circle
0.0,3.0,2.0,0.0,6.0,6.0,652.5059460000193,4.0,1.0,phase_2,go,350.0,300.0,1.0,,,,,,,,,gray,cross
0.0,5.0,0.5,1.0,6.0,0.0,0.0,4.0,1.0,phase_2,stop,350.0,300.0,4.0,,,,,,,,,orange,diamond
0.0,1.0,0.5,0.0,6.0,6.0,631.5092559998448,4.0,1.0,phase_2,go,350.0,350.0,1.0,,,,,,,,,cyan,I
0.0,7.0,2.0,1.0,6.0,6.0,436.0921469997265,4.0,1.0,phase_2,stop,350.0,350.0,3.0,,,,,,,,,yellow,triangle
0.0,1.0,0.5,0.0,5.0,5.0,453.6333370001557,4.0,1.0,phase_2,go,350.0,300.0,1.0,,,,,,,,,cyan,I
0.0,8.0,4.0,1.0,5.0,5.0,474.65328199996287,4.0,1.0,phase_2,stop,350.0,300.0,3.0,,,,,,,,,white,circle
0.0,1.0,0.5,0.0,6.0,6.0,467.0184940000581,4.0,1.0,phase_2,go,300.0,300.0,1.0,,,,,,,,,cyan,I
0.0,6.0,1.0,1.0,6.0,0.0,0.0,4.0,1.0,phase_2,stop,300.0,300.0,4.0,,,,,,,,,green,flipped triangle
0.0,5.0,0.5,1.0,5.0,0.0,0.0,4.0,1.0,phase_2,stop,300.0,350.0,4.0,,,,,,,,,orange,diamond
0.0,3.0,2.0,0.0,6.0,6.0,523.7571910001861,4.0,1.0,phase_2,go,350.0,350.0,1.0,,,,,,,,,gray,cross
0.0,5.0,0.5,1.0,6.0,0.0,0.0,4.0,1.0,phase_2,stop,350.0,350.0,4.0,,,,,,,,,orange,diamond
0.0,6.0,1.0,1.0,5.0,5.0,597.7305319997868,4.0,1.0,phase_2,go,350.0,400.0,1.0,,,,,,,,,green,flipped triangle
0.0,7.0,2.0,1.0,6.0,6.0,558.0990180001209,4.0,1.0,phase_2,stop,350.0,400.0,3.0,,,,,,,,,yellow,triangle
0.0,4.0,4.0,0.0,6.0,6.0,622.4387739998747,4.0,1.0,phase_2,go,350.0,350.0,1.0,,,,,,,,,blue,square
0.0,4.0,4.0,0.0,6.0,6.0,332.2085810000317,4.0,1.0,phase_2,go,350.0,350.0,1.0,,,,,,,,,blue,square
0.0,6.0,1.0,1.0,6.0,0.0,0.0,4.0,1.0,phase_2,stop,350.0,350.0,4.0,,,,,,,,,green,flipped triangle
0.0,3.0,2.0,0.0,6.0,6.0,655.5470480002441,4.0,1.0,phase_2,go,350.0,400.0,1.0,,,,,,,,,gray,cross
0.0,3.0,2.0,0.0,5.0,5.0,633.9555099998506,4.0,1.0,phase_2,go,350.0,400.0,1.0,,,,,,,,,gray,cross
0.0,5.0,0.5,1.0,5.0,0.0,0.0,4.0,1.0,phase_2,stop,350.0,400.0,4.0,,,,,,,,,orange,diamond
0.0,1.0,0.5,0.0,5.0,5.0,608.5640500000409,4.0,1.0,phase_2,go,400.0,400.0,1.0,,,,,,,,,cyan,I
0.0,7.0,2.0,1.0,6.0,6.0,592.9318710000189,4.0,1.0,phase_2,stop,400.0,400.0,3.0,,,,,,,,,yellow,triangle
0.0,3.0,2.0,0.0,5.0,5.0,567.076177999752,4.0,1.0,phase_2,go,400.0,350.0,1.0,,,,,,,,,gray,cross
0.0,4.0,4.0,0.0,5.0,5.0,747.1660749997682,4.0,1.0,phase_2,go,400.0,350.0,1.0,,,,,,,,,blue,square
0.0,1.0,0.5,0.0,6.0,6.0,552.6557720004348,4.0,1.0,phase_2,go,400.0,350.0,1.0,,,,,,,,,cyan,I
0.0,3.0,2.0,0.0,6.0,6.0,656.6621629999645,4.0,1.0,phase_2,go,400.0,350.0,1.0,,,,,,,,,gray,cross
0.0,2.0,1.0,0.0,5.0,5.0,384.6299550000367,5.0,1.0,phase_2,go,400.0,350.0,1.0,,,,,,,,,magenta,hexagon
0.0,8.0,4.0,1.0,5.0,5.0,359.8224960001062,5.0,1.0,phase_2,stop,400.0,350.0,3.0,,,,,,,,,white,circle
0.0,3.0,2.0,0.0,6.0,6.0,462.4686920001295,5.0,1.0,phase_2,go,350.0,350.0,1.0,,,,,,,,,gray,cross
0.0,8.0,4.0,1.0,5.0,5.0,505.1244219998807,5.0,1.0,phase_2,stop,350.0,350.0,3.0,,,,,,,,,white,circle
0.0,3.0,2.0,0.0,6.0,6.0,561.6796889999023,5.0,1.0,phase_2,go,300.0,350.0,1.0,,,,,,,,,gray,cross
0.0,2.0,1.0,0.0,6.0,6.0,533.0143149999458,5.0,1.0,phase_2,go,300.0,350.0,1.0,,,,,,,,,magenta,hexagon
0.0,4.0,4.0,0.0,6.0,6.0,459.614947999853,5.0,1.0,phase_2,go,300.0,350.0,1.0,,,,,,,,,blue,square
0.0,5.0,0.5,1.0,6.0,6.0,405.590458000006,5.0,1.0,phase_2,go,300.0,350.0,1.0,,,,,,,,,orange,diamond
0.0,2.0,1.0,0.0,6.0,6.0,560.1258629999393,5.0,1.0,phase_2,go,300.0,350.0,1.0,,,,,,,,,magenta,hexagon
0.0,6.0,1.0,1.0,6.0,0.0,0.0,5.0,1.0,phase_2,stop,300.0,350.0,4.0,,,,,,,,,green,flipped triangle
0.0,3.0,2.0,0.0,6.0,6.0,524.3990210001357,5.0,1.0,phase_2,go,300.0,400.0,1.0,,,,,,,,,gray,cross
0.0,6.0,1.0,1.0,5.0,0.0,0.0,5.0,1.0,phase_2,stop,300.0,400.0,4.0,,,,,,,,,green,flipped triangle
0.0,7.0,2.0,1.0,5.0,5.0,520.8407609998176,5.0,1.0,phase_2,stop,350.0,400.0,3.0,,,,,,,,,yellow,triangle
0.0,4.0,4.0,0.0,5.0,5.0,638.1138480001027,5.0,1.0,phase_2,go,300.0,400.0,1.0,,,,,,,,,blue,square
0.0,7.0,2.0,1.0,5.0,0.0,0.0,5.0,1.0,phase_2,stop,300.0,400.0,4.0,,,,,,,,,yellow,triangle
0.0,5.0,0.5,1.0,6.0,0.0,0.0,5.0,1.0,phase_2,stop,350.0,400.0,4.0,,,,,,,,,orange,diamond
0.0,3.0,2.0,0.0,6.0,6.0,539.1259510001873,5.0,1.0,phase_2,go,350.0,450.0,1.0,,,,,,,,,gray,cross
0.0,1.0,0.5,0.0,5.0,5.0,496.7146020003383,5.0,1.0,phase_2,go,350.0,450.0,1.0,,,,,,,,,cyan,I
0.0,7.0,2.0,1.0,6.0,6.0,591.3225469998906,5.0,1.0,phase_2,stop,350.0,450.0,3.0,,,,,,,,,yellow,triangle
0.0,6.0,1.0,1.0,5.0,5.0,519.1375640001752,5.0,1.0,phase_2,stop,350.0,400.0,3.0,,,,,,,,,green,flipped triangle
0.0,5.0,0.5,1.0,5.0,5.0,562.5663330001771,5.0,1.0,phase_2,go,300.0,400.0,1.0,,,,,,,,,orange,diamond
0.0,6.0,1.0,1.0,5.0,5.0,656.8472260000817,5.0,1.0,phase_2,go,300.0,400.0,1.0,,,,,,,,,green,flipped triangle
0.0,7.0,2.0,1.0,5.0,0.0,0.0,5.0,1.0,phase_2,stop,300.0,400.0,4.0,,,,,,,,,yellow,triangle
0.0,5.0,0.5,1.0,5.0,0.0,0.0,5.0,1.0,phase_2,stop,350.0,400.0,4.0,,,,,,,,,orange,diamond
0.0,3.0,2.0,0.0,5.0,5.0,632.8248720001284,5.0,1.0,phase_2,go,400.0,400.0,1.0,,,,,,,,,gray,cross
0.0,8.0,4.0,1.0,6.0,0.0,0.0,5.0,1.0,phase_2,stop,400.0,400.0,4.0,,,,,,,,,white,circle
0.0,4.0,4.0,0.0,6.0,6.0,831.3403090000975,5.0,1.0,phase_2,go,400.0,450.0,1.0,,,,,,,,,blue,square
0.0,8.0,4.0,1.0,5.0,0.0,0.0,5.0,1.0,phase_2,stop,400.0,450.0,4.0,,,,,,,,,white,circle
0.0,7.0,2.0,1.0,6.0,0.0,0.0,5.0,1.0,phase_2,stop,450.0,450.0,4.0,,,,,,,,,yellow,triangle
0.0,3.0,2.0,0.0,5.0,5.0,540.9665849997509,5.0,1.0,phase_2,go,450.0,500.0,1.0,,,,,,,,,gray,cross
0.0,4.0,4.0,0.0,5.0,5.0,648.1357389998266,5.0,1.0,phase_2,go,450.0,500.0,1.0,,,,,,,,,blue,square
0.0,8.0,4.0,1.0,5.0,0.0,0.0,5.0,1.0,phase_2,stop,450.0,500.0,4.0,,,,,,,,,white,circle
0.0,2.0,1.0,0.0,5.0,5.0,748.4015869999894,5.0,1.0,phase_2,go,500.0,500.0,1.0,,,,,,,,,magenta,hexagon
0.0,2.0,1.0,0.0,6.0,6.0,628.7046279999231,5.0,1.0,phase_2,go,500.0,500.0,1.0,,,,,,,,,magenta,hexagon
0.0,7.0,2.0,1.0,6.0,6.0,595.1207019998037,5.0,1.0,phase_2,go,500.0,500.0,1.0,,,,,,,,,yellow,triangle
0.0,5.0,0.5,1.0,5.0,5.0,558.4581909997723,5.0,1.0,phase_2,stop,500.0,500.0,3.0,,,,,,,,,orange,diamond
0.0,6.0,1.0,1.0,5.0,5.0,408.0411519998961,6.0,1.0,phase_2,stop,450.0,500.0,3.0,,,,,,,,,green,flipped triangle
0.0,8.0,4.0,1.0,5.0,5.0,587.7452109998558,6.0,1.0,phase_2,go,400.0,500.0,1.0,,,,,,,,,white,circle
0.0,2.0,1.0,0.0,5.0,5.0,658.4928199999922,6.0,1.0,phase_2,go,400.0,500.0,1.0,,,,,,,,,magenta,hexagon
0.0,6.0,1.0,1.0,6.0,6.0,547.4815400002626,6.0,1.0,phase_2,stop,400.0,500.0,3.0,,,,,,,,,green,flipped triangle
0.0,5.0,0.5,1.0,6.0,0.0,0.0,6.0,1.0,phase_2,stop,400.0,450.0,4.0,,,,,,,,,orange,diamond
0.0,6.0,1.0,1.0,5.0,5.0,709.5072679999248,6.0,1.0,phase_2,go,400.0,500.0,1.0,,,,,,,,,green,flipped triangle
0.0,5.0,0.5,1.0,5.0,0.0,0.0,6.0,1.0,phase_2,stop,400.0,500.0,4.0,,,,,,,,,orange,diamond
0.0,1.0,0.5,0.0,6.0,6.0,580.7519929999216,6.0,1.0,phase_2,go,450.0,500.0,1.0,,,,,,,,,cyan,I
0.0,1.0,0.5,0.0,5.0,5.0,549.5494669999061,6.0,1.0,phase_2,go,450.0,500.0,1.0,,,,,,,,,cyan,I
0.0,7.0,2.0,1.0,6.0,6.0,637.6885159997983,6.0,1.0,phase_2,stop,450.0,500.0,3.0,,,,,,,,,yellow,triangle
0.0,2.0,1.0,0.0,6.0,6.0,650.4888750000646,6.0,1.0,phase_2,go,450.0,450.0,1.0,,,,,,,,,magenta,hexagon
0.0,6.0,1.0,1.0,6.0,0.0,0.0,6.0,1.0,phase_2,stop,450.0,450.0,4.0,,,,,,,,,green,flipped triangle
0.0,1.0,0.5,0.0,6.0,6.0,630.8333670003776,6.0,1.0,phase_2,go,450.0,500.0,1.0,,,,,,,,,cyan,I
0.0,4.0,4.0,0.0,6.0,6.0,779.2032950001158,6.0,1.0,phase_2,go,450.0,500.0,1.0,,,,,,,,,blue,square
0.0,7.0,2.0,1.0,6.0,6.0,700.8575449999626,6.0,1.0,phase_2,go,450.0,500.0,1.0,,,,,,,,,yellow,triangle
0.0,3.0,2.0,0.0,6.0,6.0,581.7293130003236,6.0,1.0,phase_2,go,450.0,500.0,1.0,,,,,,,,,gray,cross
0.0,2.0,1.0,0.0,5.0,5.0,452.6465519998055,6.0,1.0,phase_2,go,450.0,500.0,1.0,,,,,,,,,magenta,hexagon
0.0,4.0,4.0,0.0,6.0,6.0,444.9367800002619,6.0,1.0,phase_2,go,450.0,500.0,1.0,,,,,,,,,blue,square
0.0,6.0,1.0,1.0,5.0,5.0,295.8287730002666,6.0,1.0,phase_2,stop,450.0,500.0,3.0,,,,,,,,,green,flipped triangle
0.0,7.0,2.0,1.0,5.0,0.0,0.0,6.0,1.0,phase_2,stop,400.0,500.0,4.0,,,,,,,,,yellow,triangle
0.0,2.0,1.0,0.0,5.0,5.0,499.8622620000787,6.0,1.0,phase_2,go,450.0,500.0,1.0,,,,,,,,,magenta,hexagon
0.0,5.0,0.5,1.0,6.0,6.0,720.9425330001977,6.0,1.0,phase_2,go,450.0,500.0,1.0,,,,,,,,,orange,diamond
0.0,8.0,4.0,1.0,6.0,6.0,530.3792450004039,6.0,1.0,phase_2,stop,450.0,500.0,3.0,,,,,,,,,white,circle
0.0,2.0,1.0,0.0,5.0,5.0,488.8768700002401,6.0,1.0,phase_2,go,450.0,450.0,1.0,,,,,,,,,magenta,hexagon
0.0,2.0,1.0,0.0,6.0,6.0,328.6273869994147,6.0,1.0,phase_2,go,450.0,450.0,1.0,,,,,,,,,magenta,hexagon
0.0,6.0,1.0,1.0,6.0,6.0,326.3425830000415,6.0,1.0,phase_2,go,450.0,450.0,1.0,,,,,,,,,green,flipped triangle
0.0,5.0,0.5,1.0,5.0,5.0,326.5637630001947,6.0,1.0,phase_2,stop,450.0,450.0,3.0,,,,,,,,,orange,diamond
0.0,2.0,1.0,0.0,5.0,5.0,498.7860080000246,6.0,1.0,phase_2,go,400.0,450.0,1.0,,,,,,,,,magenta,hexagon
0.0,5.0,0.5,1.0,5.0,5.0,442.02906099963,6.0,1.0,phase_2,stop,400.0,450.0,3.0,,,,,,,,,orange,diamond
0.0,4.0,4.0,0.0,5.0,5.0,601.213686999472,6.0,1.0,phase_2,go,350.0,450.0,1.0,,,,,,,,,blue,square
0.0,1.0,0.5,0.0,5.0,5.0,600.7575139992696,6.0,1.0,phase_2,go,350.0,450.0,1.0,,,,,,,,,cyan,I
0.0,5.0,0.5,1.0,5.0,5.0,687.0288780000919,6.0,1.0,phase_2,go,350.0,450.0,1.0,,,,,,,,,orange,diamond
0.0,5.0,0.5,1.0,6.0,6.0,569.9563970001691,6.0,1.0,phase_2,stop,350.0,450.0,3.0,,,,,,,,,orange,diamond
0.0,5.0,0.5,1.0,6.0,0.0,0.0,6.0,1.0,phase_2,stop,350.0,400.0,4.0,,,,,,,,,orange,diamond
0.0,8.0,4.0,1.0,5.0,0.0,0.0,6.0,1.0,phase_2,stop,350.0,450.0,4.0,,,,,,,,,white,circle
0.0,2.0,1.0,0.0,6.0,6.0,623.4486099992864,6.0,1.0,phase_2,go,400.0,450.0,1.0,,,,,,,,,magenta,hexagon
0.0,4.0,4.0,0.0,6.0,6.0,604.623274000005,7.0,1.0,phase_2,go,400.0,450.0,1.0,,,,,,,,,blue,square
0.0,6.0,1.0,1.0,6.0,6.0,574.3273779999072,7.0,1.0,phase_2,stop,400.0,450.0,3.0,,,,,,,,,green,flipped triangle
0.0,8.0,4.0,1.0,5.0,5.0,621.2188540002899,7.0,1.0,phase_2,stop,400.0,400.0,3.0,,,,,,,,,white,circle
0.0,3.0,2.0,0.0,6.0,6.0,476.4344939994771,7.0,1.0,phase_2,go,350.0,400.0,1.0,,,,,,,,,gray,cross
0.0,2.0,1.0,0.0,6.0,6.0,798.038699999779,7.0,1.0,phase_2,go,350.0,400.0,1.0,,,,,,,,,magenta,hexagon
0.0,4.0,4.0,0.0,6.0,6.0,403.2750139995187,7.0,1.0,phase_2,go,350.0,400.0,1.0,,,,,,,,,blue,square
0.0,2.0,1.0,0.0,5.0,5.0,611.7933929999708,7.0,1.0,phase_2,go,350.0,400.0,1.0,,,,,,,,,magenta,hexagon
0.0,2.0,1.0,0.0,6.0,6.0,427.802057000008,7.0,1.0,phase_2,go,350.0,400.0,1.0,,,,,,,,,magenta,hexagon
0.0,8.0,4.0,1.0,5.0,5.0,572.1255680000468,7.0,1.0,phase_2,stop,350.0,400.0,3.0,,,,,,,,,white,circle
0.0,3.0,2.0,0.0,6.0,6.0,641.4253650000319,7.0,1.0,phase_2,go,300.0,400.0,1.0,,,,,,,,,gray,cross
0.0,4.0,4.0,0.0,5.0,5.0,633.279290000246,7.0,1.0,phase_2,go,300.0,400.0,1.0,,,,,,,,,blue,square
0.0,8.0,4.0,1.0,6.0,6.0,439.2043429998011,7.0,1.0,phase_2,stop,300.0,400.0,3.0,,,,,,,,,white,circle
0.0,6.0,1.0,1.0,6.0,0.0,0.0,7.0,1.0,phase_2,stop,300.0,350.0,4.0,,,,,,,,,green,flipped triangle
0.0,2.0,1.0,0.0,5.0,5.0,557.936597000662,7.0,1.0,phase_2,go,300.0,400.0,1.0,,,,,,,,,magenta,hexagon
0.0,6.0,1.0,1.0,6.0,6.0,567.5616809994608,7.0,1.0,phase_2,go,300.0,400.0,1.0,,,,,,,,,green,flipped triangle
0.0,3.0,2.0,0.0,5.0,5.0,614.8788170003172,7.0,1.0,phase_2,go,300.0,400.0,1.0,,,,,,,,,gray,cross
0.0,2.0,1.0,0.0,6.0,6.0,603.0946009996114,7.0,1.0,phase_2,go,300.0,400.0,1.0,,,,,,,,,magenta,hexagon
0.0,7.0,2.0,1.0,6.0,6.0,488.8446320001094,7.0,1.0,phase_2,stop,300.0,400.0,3.0,,,,,,,,,yellow,triangle
0.0,5.0,0.5,1.0,5.0,5.0,663.8003469997784,7.0,1.0,phase_2,go,300.0,350.0,1.0,,,,,,,,,orange,diamond
0.0,7.0,2.0,1.0,6.0,0.0,0.0,7.0,1.0,phase_2,stop,300.0,350.0,4.0,,,,,,,,,yellow,triangle
0.0,5.0,0.5,1.0,6.0,0.0,0.0,7.0,1.0,phase_2,stop,300.0,400.0,4.0,,,,,,,,,orange,diamond
0.0,3.0,2.0,0.0,5.0,5.0,482.1507730002849,7.0,1.0,phase_2,go,300.0,450.0,1.0,,,,,,,,,gray,cross
0.0,8.0,4.0,1.0,6.0,6.0,550.3369970001586,7.0,1.0,phase_2,go,300.0,450.0,1.0,,,,,,,,,white,circle
0.0,3.0,2.0,0.0,6.0,6.0,569.302425999922,7.0,1.0,phase_2,go,300.0,450.0,1.0,,,,,,,,,gray,cross
0.0,1.0,0.5,0.0,5.0,5.0,612.2666579994984,7.0,1.0,phase_2,go,300.0,450.0,1.0,,,,,,,,,cyan,I
0.0,5.0,0.5,1.0,5.0,5.0,435.7516499994744,7.0,1.0,phase_2,stop,300.0,450.0,3.0,,,,,,,,,orange,diamond
0.0,3.0,2.0,0.0,6.0,6.0,489.3021249999947,7.0,1.0,phase_2,go,250.0,450.0,1.0,,,,,,,,,gray,cross
0.0,6.0,1.0,1.0,6.0,6.0,489.3285319994902,7.0,1.0,phase_2,stop,250.0,450.0,3.0,,,,,,,,,green,flipped triangle
0.0,5.0,0.5,1.0,5.0,0.0,0.0,7.0,1.0,phase_2,stop,250.0,400.0,4.0,,,,,,,,,orange,diamond
0.0,5.0,0.5,1.0,6.0,6.0,481.5322539998306,7.0,1.0,phase_2,stop,300.0,400.0,3.0,,,,,,,,,orange,diamond
0.0,1.0,0.5,0.0,6.0,6.0,618.0356189997838,7.0,1.0,phase_2,go,300.0,350.0,1.0,,,,,,,,,cyan,I
0.0,7.0,2.0,1.0,5.0,5.0,632.5277259993527,7.0,1.0,phase_2,go,300.0,350.0,1.0,,,,,,,,,yellow,triangle
0.0,4.0,4.0,0.0,6.0,6.0,475.0575520001803,7.0,1.0,phase_2,go,300.0,350.0,1.0,,,,,,,,,blue,square
0.0,5.0,0.5,1.0,6.0,6.0,386.2456109991399,7.0,1.0,phase_2,stop,300.0,350.0,3.0,,,,,,,,,orange,diamond
0.0,7.0,2.0,1.0,5.0,0.0,0.0,7.0,1.0,phase_2,stop,300.0,300.0,4.0,,,,,,,,,yellow,triangle
0.0,1.0,0.5,0.0,6.0,6.0,591.9853010000224,7.0,1.0,phase_2,go,350.0,300.0,1.0,,,,,,,,,cyan,I
0.0,4.0,4.0,0.0,5.0,5.0,482.4578919997293,8.0,1.0,phase_2,go,350.0,300.0,1.0,,,,,,,,,blue,square
0.0,2.0,1.0,0.0,5.0,5.0,508.6656760004189,8.0,1.0,phase_2,go,350.0,300.0,1.0,,,,,,,,,magenta,hexagon
0.0,4.0,4.0,0.0,5.0,5.0,341.7237960002239,8.0,1.0,phase_2,go,350.0,300.0,1.0,,,,,,,,,blue,square
0.0,5.0,0.5,1.0,5.0,5.0,400.0091140005679,8.0,1.0,phase_2,go,350.0,300.0,1.0,,,,,,,,,orange,diamond
0.0,5.0,0.5,1.0,5.0,5.0,495.1821049999125,8.0,1.0,phase_2,stop,350.0,300.0,3.0,,,,,,,,,orange,diamond
0.0,8.0,4.0,1.0,6.0,0.0,0.0,8.0,1.0,phase_2,stop,300.0,300.0,4.0,,,,,,,,,white,circle
0.0,7.0,2.0,1.0,5.0,5.0,680.3747339999973,8.0,1.0,phase_2,go,300.0,350.0,1.0,,,,,,,,,yellow,triangle
0.0,4.0,4.0,0.0,6.0,6.0,626.7030080007316,8.0,1.0,phase_2,go,300.0,350.0,1.0,,,,,,,,,blue,square
0.0,4.0,4.0,0.0,6.0,6.0,465.034107000065,8.0,1.0,phase_2,go,300.0,350.0,1.0,,,,,,,,,blue,square
0.0,6.0,1.0,1.0,6.0,6.0,598.5759739996865,8.0,1.0,phase_2,go,300.0,350.0,1.0,,,,,,,,,green,flipped triangle
0.0,8.0,4.0,1.0,5.0,5.0,398.9857650003614,8.0,1.0,phase_2,stop,300.0,350.0,3.0,,,,,,,,,white,circle
0.0,7.0,2.0,1.0,5.0,0.0,0.0,8.0,1.0,phase_2,stop,250.0,350.0,4.0,,,,,,,,,yellow,triangle
0.0,8.0,4.0,1.0,6.0,0.0,0.0,8.0,1.0,phase_2,stop,300.0,350.0,4.0,,,,,,,,,white,circle
0.0,1.0,0.5,0.0,6.0,6.0,650.7445040006132,8.0,1.0,phase_2,go,300.0,400.0,1.0,,,,,,,,,cyan,I
0.0,8.0,4.0,1.0,5.0,5.0,590.7340009998734,8.0,1.0,phase_2,go,300.0,400.0,1.0,,,,,,,,,white,circle
0.0,1.0,0.5,0.0,6.0,6.0,622.1424390005268,8.0,1.0,phase_2,go,300.0,400.0,1.0,,,,,,,,,cyan,I
0.0,6.0,1.0,1.0,6.0,6.0,482.3826519996146,8.0,1.0,phase_2,stop,300.0,400.0,3.0,,,,,,,,,green,flipped triangle
0.0,3.0,2.0,0.0,5.0,5.0,690.7262530003209,8.0,1.0,phase_2,go,300.0,350.0,1.0,,,,,,,,,gray,cross
0.0,8.0,4.0,1.0,6.0,0.0,0.0,8.0,1.0,phase_2,stop,300.0,350.0,4.0,,,,,,,,,white,circle
0.0,7.0,2.0,1.0,6.0,6.0,774.6845900001063,8.0,1.0,phase_2,go,300.0,400.0,1.0,,,,,,,,,yellow,triangle
0.0,6.0,1.0,1.0,6.0,0.0,0.0,8.0,1.0,phase_2,stop,300.0,400.0,4.0,,,,,,,,,green,flipped triangle
0.0,4.0,4.0,0.0,5.0,5.0,792.669104000197,8.0,1.0,phase_2,go,300.0,450.0,1.0,,,,,,,,,blue,square
0.0,5.0,0.5,1.0,6.0,0.0,0.0,8.0,1.0,phase_2,stop,300.0,450.0,4.0,,,,,,,,,orange,diamond
0.0,1.0,0.5,0.0,5.0,5.0,546.6930290003802,8.0,1.0,phase_2,go,300.0,500.0,1.0,,,,,,,,,cyan,I
0.0,6.0,1.0,1.0,5.0,0.0,0.0,8.0,1.0,phase_2,stop,300.0,500.0,4.0,,,,,,,,,green,flipped triangle
0.0,8.0,4.0,1.0,6.0,6.0,647.4050690003423,8.0,1.0,phase_2,stop,350.0,500.0,3.0,,,,,,,,,white,circle
0.0,7.0,2.0,1.0,5.0,5.0,745.4991320000772,8.0,1.0,phase_2,go,350.0,450.0,1.0,,,,,,,,,yellow,triangle
0.0,3.0,2.0,0.0,6.0,6.0,623.8924859999315,8.0,1.0,phase_2,go,350.0,450.0,1.0,,,,,,,,,gray,cross
0.0,6.0,1.0,1.0,5.0,5.0,593.3987469998101,8.0,1.0,phase_2,go,350.0,450.0,1.0,,,,,,,,,green,flipped triangle
0.0,5.0,0.5,1.0,5.0,5.0,639.0065859995957,8.0,1.0,phase_2,go,350.0,450.0,1.0,,,,,,,,,orange,diamond
0.0,7.0,2.0,1.0,5.0,0.0,0.0,8.0,1.0,phase_2,stop,350.0,450.0,4.0,,,,,,,,,yellow,triangle
0.0,2.0,1.0,0.0,5.0,5.0,624.5181550002599,8.0,1.0,phase_2,go,400.0,450.0,1.0,,,,,,,,,magenta,hexagon
0.0,7.0,2.0,1.0,5.0,0.0,0.0,8.0,1.0,phase_2,stop,400.0,450.0,4.0,,,,,,,,,yellow,triangle
0.0,7.0,2.0,1.0,6.0,0.0,0.0,8.0,1.0,phase_2,stop,450.0,450.0,4.0,,,,,,,,,yellow,triangle
0.0,8.0,4.0,1.0,5.0,0.0,0.0,8.0,1.0,phase_2,stop,450.0,500.0,4.0,,,,,,,,,white,circle
0.0,4.0,4.0,0.0,5.0,5.0,696.1097829998835,8.0,1.0,phase_2,go,500.0,500.0,1.0,,,,,,,,,blue,square
0.0,7.0,2.0,1.0,7.0,5.0,4783.253890000196,1.0,1.0,phase_3,,,,,195.0,5.0,117.0,78.0,39.0,234.0,195.0,156.0,yellow,triangle
0.0,3.0,2.0,0.0,7.0,2.0,3740.533338000205,1.0,1.0,phase_3,,,,,98.0,2.0,294.0,98.0,147.0,196.0,245.0,49.0,gray,cross
0.0,7.0,2.0,1.0,7.0,4.0,4190.404576000219,1.0,1.0,phase_3,,,,,102.0,3.0,68.0,204.0,170.0,102.0,136.0,34.0,yellow,triangle
0.0,2.0,1.0,0.0,7.0,2.0,4674.628732000201,1.0,1.0,phase_3,,,,,195.0,5.0,78.0,195.0,117.0,39.0,156.0,234.0,magenta,hexagon
0.0,3.0,2.0,0.0,7.0,4.0,4812.787025999569,1.0,1.0,phase_3,,,,,216.0,4.0,162.0,54.0,324.0,216.0,108.0,270.0,gray,cross
0.0,2.0,1.0,0.0,7.0,4.0,3353.308518000631,1.0,2.0,phase_3,,,,,195.0,5.0,234.0,117.0,156.0,195.0,78.0,39.0,magenta,hexagon
0.0,3.0,2.0,0.0,7.0,1.0,4487.648103000538,1.0,1.0,phase_3,,,,,136.0,4.0,136.0,34.0,68.0,102.0,204.0,170.0,gray,cross
0.0,7.0,2.0,1.0,7.0,3.0,3141.5996890000315,1.0,1.0,phase_3,,,,,245.0,5.0,49.0,294.0,245.0,196.0,147.0,98.0,yellow,triangle
0.0,2.0,1.0,0.0,7.0,6.0,3233.906436000325,1.0,1.0,phase_3,,,,,216.0,4.0,54.0,162.0,108.0,270.0,324.0,216.0,magenta,hexagon
0.0,8.0,4.0,1.0,7.0,3.0,4156.246004000423,1.0,1.0,phase_3,,,,,176.0,4.0,264.0,132.0,176.0,220.0,44.0,88.0,white,circle
0.0,5.0,0.5,1.0,7.0,5.0,4055.4977930005407,1.0,1.0,phase_3,,,,,136.0,4.0,68.0,34.0,170.0,102.0,136.0,204.0,orange,diamond
0.0,6.0,1.0,1.0,7.0,2.0,3798.7579889995686,1.0,1.0,phase_3,,,,,264.0,6.0,220.0,264.0,88.0,132.0,176.0,44.0,green,flipped triangle
0.0,2.0,1.0,0.0,7.0,4.0,3213.167883999631,1.0,1.0,phase_3,,,,,176.0,4.0,264.0,44.0,132.0,176.0,88.0,220.0,magenta,hexagon
0.0,4.0,4.0,0.0,7.0,5.0,3627.8234350002094,1.0,1.0,phase_3,,,,,132.0,3.0,220.0,44.0,88.0,176.0,132.0,264.0,blue,square
0.0,7.0,2.0,1.0,7.0,6.0,3734.5425319999777,1.0,1.0,phase_3,,,,,270.0,5.0,216.0,324.0,108.0,54.0,162.0,270.0,yellow,triangle
0.0,6.0,1.0,1.0,7.0,1.0,4180.416445000446,1.0,1.0,phase_3,,,,,156.0,4.0,156.0,234.0,117.0,78.0,195.0,39.0,green,flipped triangle
0.0,5.0,0.5,1.0,7.0,6.0,3329.343400999278,1.0,1.0,phase_3,,,,,195.0,5.0,234.0,117.0,156.0,39.0,78.0,195.0,orange,diamond
0.0,1.0,0.5,0.0,7.0,2.0,3068.350226999428,1.0,1.0,phase_3,,,,,170.0,5.0,68.0,170.0,102.0,34.0,204.0,136.0,cyan,I
0.0,6.0,1.0,1.0,7.0,4.0,2722.545124999669,1.0,1.0,phase_3,,,,,196.0,4.0,294.0,98.0,245.0,196.0,147.0,49.0,green,flipped triangle
0.0,5.0,0.5,1.0,7.0,3.0,3425.6025610002325,1.0,1.0,phase_3,,,,,196.0,4.0,294.0,98.0,196.0,245.0,49.0,147.0,orange,diamond
0.0,5.0,0.5,1.0,7.0,2.0,2403.755995999745,2.0,1.0,phase_3,,,,,176.0,4.0,132.0,176.0,44.0,220.0,264.0,88.0,orange,diamond
0.0,6.0,1.0,1.0,7.0,3.0,2071.7829599998367,2.0,1.0,phase_3,,,,,170.0,5.0,136.0,102.0,170.0,34.0,204.0,68.0,green,flipped triangle
0.0,7.0,2.0,1.0,7.0,5.0,2774.0449920001997,2.0,1.0,phase_3,,,,,220.0,5.0,88.0,132.0,44.0,264.0,220.0,176.0,yellow,triangle
0.0,4.0,4.0,0.0,7.0,5.0,2281.493434999902,2.0,1.0,phase_3,,,,,195.0,5.0,156.0,117.0,78.0,234.0,195.0,39.0,blue,square
0.0,6.0,1.0,1.0,7.0,2.0,2055.481018000137,2.0,1.0,phase_3,,,,,216.0,4.0,108.0,216.0,324.0,270.0,54.0,162.0,green,flipped triangle
0.0,4.0,4.0,0.0,7.0,5.0,2296.990996999739,2.0,1.0,phase_3,,,,,196.0,4.0,49.0,245.0,147.0,294.0,196.0,98.0,blue,square
0.0,2.0,1.0,0.0,7.0,4.0,2626.9050090004384,2.0,1.0,phase_3,,,,,196.0,4.0,49.0,245.0,294.0,196.0,147.0,98.0,magenta,hexagon
0.0,2.0,1.0,0.0,7.0,6.0,3866.591832000268,2.0,1.0,phase_3,,,,,102.0,3.0,170.0,68.0,136.0,204.0,34.0,102.0,magenta,hexagon
0.0,1.0,0.5,0.0,7.0,5.0,2627.473301000464,2.0,1.0,phase_3,,,,,132.0,3.0,264.0,176.0,88.0,44.0,132.0,220.0,cyan,I
0.0,1.0,0.5,0.0,7.0,6.0,3304.801261000648,2.0,1.0,phase_3,,,,,196.0,4.0,294.0,98.0,147.0,49.0,245.0,196.0,cyan,I
0.0,6.0,1.0,1.0,7.0,3.0,3315.538171999833,2.0,1.0,phase_3,,,,,132.0,3.0,44.0,264.0,132.0,88.0,176.0,220.0,green,flipped triangle
0.0,4.0,4.0,0.0,7.0,4.0,2580.2893850004693,2.0,1.0,phase_3,,,,,196.0,4.0,294.0,98.0,245.0,196.0,147.0,49.0,blue,square
0.0,4.0,4.0,0.0,7.0,4.0,2839.4421910006718,2.0,1.0,phase_3,,,,,136.0,4.0,102.0,34.0,204.0,136.0,170.0,68.0,blue,square
0.0,1.0,0.5,0.0,7.0,4.0,2613.666039999771,2.0,1.0,phase_3,,,,,147.0,3.0,245.0,196.0,294.0,147.0,49.0,98.0,cyan,I
0.0,4.0,4.0,0.0,7.0,1.0,3643.4989010003846,2.0,1.0,phase_3,,,,,176.0,4.0,176.0,220.0,44.0,132.0,264.0,88.0,blue,square
0.0,8.0,4.0,1.0,7.0,6.0,3609.8418049996326,2.0,1.0,phase_3,,,,,216.0,4.0,162.0,54.0,270.0,324.0,108.0,216.0,white,circle
0.0,7.0,2.0,1.0,7.0,4.0,2761.8948560002536,2.0,1.0,phase_3,,,,,156.0,4.0,78.0,117.0,234.0,156.0,39.0,195.0,yellow,triangle
0.0,2.0,1.0,0.0,7.0,2.0,3030.155914999341,2.0,1.0,phase_3,,,,,196.0,4.0,294.0,196.0,98.0,245.0,147.0,49.0,magenta,hexagon
0.0,4.0,4.0,0.0,7.0,3.0,3079.3835969998327,2.0,1.0,phase_3,,,,,136.0,4.0,68.0,170.0,136.0,204.0,34.0,102.0,blue,square
0.0,1.0,0.5,0.0,7.0,5.0,2573.226868999882,2.0,1.0,phase_3,,,,,136.0,4.0,170.0,34.0,68.0,204.0,136.0,102.0,cyan,I
0.0,3.0,2.0,0.0,7.0,4.0,1917.465233999792,3.0,1.0,phase_3,,,,,196.0,4.0,49.0,98.0,245.0,196.0,294.0,147.0,gray,cross
0.0,6.0,1.0,1.0,7.0,4.0,2041.08388900022,3.0,1.0,phase_3,,,,,196.0,4.0,49.0,98.0,147.0,196.0,245.0,294.0,green,flipped triangle
0.0,5.0,0.5,1.0,7.0,1.0,1890.863782999986,3.0,1.0,phase_3,,,,,162.0,3.0,162.0,108.0,270.0,54.0,324.0,216.0,orange,diamond
0.0,5.0,0.5,1.0,7.0,5.0,2463.954212000317,3.0,1.0,phase_3,,,,,170.0,5.0,204.0,102.0,136.0,68.0,170.0,34.0,orange,diamond
0.0,1.0,0.5,0.0,7.0,6.0,2218.0004600004395,3.0,1.0,phase_3,,,,,176.0,4.0,132.0,88.0,264.0,44.0,220.0,176.0,cyan,I
0.0,6.0,1.0,1.0,7.0,5.0,3192.518264999308,3.0,1.0,phase_3,,,,,156.0,4.0,78.0,195.0,234.0,117.0,156.0,39.0,green,flipped triangle
0.0,1.0,0.5,0.0,7.0,1.0,3538.221395999244,3.0,1.0,phase_3,,,,,270.0,5.0,270.0,162.0,108.0,216.0,324.0,54.0,cyan,I
0.0,8.0,4.0,1.0,7.0,2.0,3238.338685000599,3.0,1.0,phase_3,,,,,195.0,5.0,117.0,195.0,39.0,78.0,234.0,156.0,white,circle
0.0,4.0,4.0,0.0,7.0,4.0,3073.8670900000216,3.0,1.0,phase_3,,,,,162.0,3.0,216.0,324.0,270.0,162.0,54.0,108.0,blue,square
0.0,6.0,1.0,1.0,7.0,5.0,3268.452809000337,3.0,1.0,phase_3,,,,,136.0,4.0,34.0,170.0,102.0,204.0,136.0,68.0,green,flipped triangle
0.0,2.0,1.0,0.0,7.0,6.0,4147.58127299956,3.0,1.0,phase_3,,,,,162.0,3.0,324.0,54.0,270.0,216.0,108.0,162.0,magenta,hexagon
0.0,7.0,2.0,1.0,7.0,4.0,3617.907902999832,3.0,1.0,phase_3,,,,,196.0,4.0,294.0,245.0,49.0,196.0,147.0,98.0,yellow,triangle
0.0,1.0,0.5,0.0,7.0,5.0,4088.43479799998,3.0,1.0,phase_3,,,,,216.0,4.0,54.0,324.0,270.0,162.0,216.0,108.0,cyan,I
0.0,5.0,0.5,1.0,7.0,5.0,3344.6528330005094,3.0,1.0,phase_3,,,,,132.0,3.0,176.0,264.0,88.0,220.0,132.0,44.0,orange,diamond
0.0,8.0,4.0,1.0,7.0,4.0,3985.091890000149,3.0,1.0,phase_3,,,,,156.0,4.0,39.0,234.0,78.0,156.0,117.0,195.0,white,circle
0.0,8.0,4.0,1.0,7.0,5.0,3306.868031999329,3.0,1.0,phase_3,,,,,196.0,4.0,245.0,294.0,98.0,49.0,196.0,147.0,white,circle
0.0,4.0,4.0,0.0,7.0,2.0,3348.5637269996005,3.0,1.0,phase_3,,,,,162.0,3.0,270.0,162.0,108.0,54.0,324.0,216.0,blue,square
0.0,7.0,2.0,1.0,7.0,3.0,3424.60817600022,3.0,1.0,phase_3,,,,,170.0,5.0,204.0,102.0,170.0,34.0,136.0,68.0,yellow,triangle
0.0,2.0,1.0,0.0,7.0,4.0,2882.3094179997497,3.0,1.0,phase_3,,,,,132.0,3.0,176.0,44.0,264.0,132.0,88.0,220.0,magenta,hexagon
0.0,3.0,2.0,0.0,7.0,1.0,4517.679916999441,3.0,1.0,phase_3,,,,,136.0,4.0,136.0,170.0,102.0,68.0,34.0,204.0,gray,cross
0.0,7.0,2.0,1.0,7.0,2.0,3179.941694000263,4.0,1.0,phase_3,,,,,176.0,4.0,44.0,176.0,88.0,220.0,132.0,264.0,yellow,triangle
0.0,8.0,4.0,1.0,7.0,5.0,2313.115095000285,4.0,1.0,phase_3,,,,,170.0,5.0,204.0,68.0,136.0,102.0,170.0,34.0,white,circle
0.0,8.0,4.0,1.0,7.0,3.0,3780.763083000238,4.0,1.0,phase_3,,,,,216.0,4.0,108.0,162.0,216.0,324.0,54.0,270.0,white,circle
0.0,3.0,2.0,0.0,7.0,1.0,2945.440702999804,4.0,1.0,phase_3,,,,,176.0,4.0,176.0,44.0,88.0,220.0,264.0,132.0,gray,cross
0.0,3.0,2.0,0.0,7.0,4.0,3259.142634999989,4.0,1.0,phase_3,,,,,162.0,3.0,324.0,108.0,216.0,162.0,270.0,54.0,gray,cross
0.0,8.0,4.0,1.0,7.0,5.0,2606.0723029995643,4.0,1.0,phase_3,,,,,176.0,4.0,220.0,132.0,44.0,88.0,176.0,264.0,white,circle
0.0,2.0,1.0,0.0,7.0,6.0,3366.3800650001576,4.0,1.0,phase_3,,,,,170.0,5.0,34.0,136.0,204.0,102.0,68.0,170.0,magenta,hexagon
0.0,1.0,0.5,0.0,7.0,6.0,4583.160898000642,4.0,1.0,phase_3,,,,,156.0,4.0,117.0,39.0,78.0,234.0,195.0,156.0,cyan,I
0.0,6.0,1.0,1.0,7.0,5.0,3840.029269999832,4.0,1.0,phase_3,,,,,162.0,3.0,270.0,216.0,108.0,54.0,162.0,324.0,green,flipped triangle
0.0,3.0,2.0,0.0,7.0,1.0,4200.520069000049,4.0,1.0,phase_3,,,,,156.0,4.0,156.0,39.0,78.0,234.0,195.0,117.0,gray,cross
0.0,3.0,2.0,0.0,7.0,1.0,4147.930695000468,4.0,1.0,phase_3,,,,,176.0,4.0,176.0,88.0,264.0,220.0,132.0,44.0,gray,cross
0.0,5.0,0.5,1.0,7.0,4.0,4269.571365000047,4.0,1.0,phase_3,,,,,216.0,4.0,324.0,108.0,270.0,216.0,54.0,162.0,orange,diamond
0.0,1.0,0.5,0.0,7.0,5.0,4095.088934999694,4.0,1.0,phase_3,,,,,195.0,5.0,78.0,234.0,117.0,39.0,195.0,156.0,cyan,I
0.0,5.0,0.5,1.0,7.0,3.0,4153.194432999953,4.0,1.0,phase_3,,,,,156.0,4.0,234.0,117.0,156.0,78.0,195.0,39.0,orange,diamond
0.0,4.0,4.0,0.0,7.0,2.0,3513.867216000108,4.0,1.0,phase_3,,,,,156.0,4.0,195.0,156.0,117.0,39.0,78.0,234.0,blue,square
0.0,8.0,4.0,1.0,7.0,5.0,3082.805306999944,4.0,1.0,phase_3,,,,,170.0,5.0,136.0,68.0,102.0,204.0,170.0,34.0,white,circle
0.0,8.0,4.0,1.0,7.0,5.0,3565.6883909996395,4.0,1.0,phase_3,,,,,196.0,4.0,49.0,294.0,245.0,98.0,196.0,147.0,white,circle
0.0,5.0,0.5,1.0,7.0,3.0,4048.9342270002453,4.0,1.0,phase_3,,,,,196.0,4.0,294.0,98.0,196.0,147.0,49.0,245.0,orange,diamond
0.0,3.0,2.0,0.0,7.0,5.0,4218.284744999437,4.0,1.0,phase_3,,,,,156.0,4.0,195.0,117.0,39.0,234.0,156.0,78.0,gray,cross
0.0,7.0,2.0,1.0,7.0,3.0,3946.302631000435,4.0,2.0,phase_3,,,,,162.0,3.0,324.0,270.0,162.0,108.0,216.0,54.0,yellow,triangle
