raw_reward_magnitude,stim_reward,stepwise_reward_magnitude,paired_with_stopping,stim_location,response,reaction_time,block,num_trial_presentations,which_phase,stop_signal_trial_type,left_SSD,right_SSD,accuracy,chosen_bidding_amount,chosen_bidding_level,possible_bid_1,possible_bid_2,possible_bid_3,possible_bid_4,possible_bid_5,possible_bid_6,color_text,shape_text
379.0,4.0,4.0,0.0,4.0,4.0,502.41309800003364,1.0,1.0,phase_1,,,,,,,,,,,,,cyan,square
206.0,3.0,2.0,0.0,3.0,3.0,460.0323450003998,1.0,1.0,phase_1,,,,,,,,,,,,,gray,flipped triangle
0.0,2.0,0.0,0.0,4.0,4.0,330.1457040006426,1.0,1.0,phase_1,,,,,,,,,,,,,blue,triangle
195.0,3.0,2.0,0.0,4.0,4.0,418.4989139994286,1.0,1.0,phase_1,,,,,,,,,,,,,gray,flipped triangle
398.0,4.0,4.0,0.0,1.0,1.0,498.2172319996607,1.0,1.0,phase_1,,,,,,,,,,,,,cyan,square
380.0,8.0,4.0,1.0,4.0,4.0,354.4042469993655,1.0,1.0,phase_1,,,,,,,,,,,,,white,circle
400.0,8.0,4.0,1.0,1.0,1.0,416.9294490002357,1.0,1.0,phase_1,,,,,,,,,,,,,white,circle
0.0,7.0,0.0,1.0,4.0,4.0,317.4919419998332,1.0,1.0,phase_1,,,,,,,,,,,,,orange,hexagon
188.0,7.0,2.0,1.0,4.0,4.0,393.9174369998,1.0,1.0,phase_1,,,,,,,,,,,,,orange,hexagon
202.0,3.0,2.0,0.0,1.0,1.0,453.1260950006981,1.0,1.0,phase_1,,,,,,,,,,,,,gray,flipped triangle
411.0,4.0,4.0,0.0,2.0,2.0,342.2160480004095,1.0,1.0,phase_1,,,,,,,,,,,,,cyan,square
66.0,1.0,0.5,0.0,4.0,4.0,339.540081999985,1.0,1.0,phase_1,,,,,,,,,,,,,magenta,I
0.0,8.0,0.0,1.0,2.0,2.0,320.9991720004836,1.0,1.0,phase_1,,,,,,,,,,,,,white,circle
59.0,5.0,0.5,1.0,4.0,4.0,315.3282379998927,1.0,1.0,phase_1,,,,,,,,,,,,,yellow,diamond
0.0,2.0,0.0,0.0,4.0,4.0,324.0570139996634,1.0,1.0,phase_1,,,,,,,,,,,,,blue,triangle
386.0,8.0,4.0,1.0,3.0,3.0,345.2660079992711,1.0,1.0,phase_1,,,,,,,,,,,,,white,circle
187.0,3.0,2.0,0.0,3.0,3.0,354.8840169996765,1.0,1.0,phase_1,,,,,,,,,,,,,gray,flipped triangle
51.0,5.0,0.5,1.0,4.0,4.0,319.6225419997063,1.0,1.0,phase_1,,,,,,,,,,,,,yellow,diamond
111.0,6.0,1.0,1.0,1.0,1.0,363.5606399993776,1.0,1.0,phase_1,,,,,,,,,,,,,green,cross
201.0,7.0,2.0,1.0,3.0,3.0,312.026159999732,1.0,1.0,phase_1,,,,,,,,,,,,,orange,hexagon
105.0,6.0,1.0,1.0,1.0,1.0,359.0778289999434,1.0,1.0,phase_1,,,,,,,,,,,,,green,cross
76.0,6.0,1.0,1.0,3.0,3.0,312.7621660005388,1.0,1.0,phase_1,,,,,,,,,,,,,green,cross
78.0,6.0,1.0,1.0,2.0,2.0,326.1128270005429,1.0,1.0,phase_1,,,,,,,,,,,,,green,cross
0.0,1.0,0.0,0.0,4.0,4.0,327.2721580005964,1.0,1.0,phase_1,,,,,,,,,,,,,magenta,I
124.0,2.0,1.0,0.0,3.0,3.0,331.0825020007542,1.0,1.0,phase_1,,,,,,,,,,,,,blue,triangle
52.0,1.0,0.5,0.0,3.0,3.0,317.6646930005518,1.0,1.0,phase_1,,,,,,,,,,,,,magenta,I
416.0,4.0,4.0,0.0,4.0,4.0,291.5816240001732,1.0,1.0,phase_1,,,,,,,,,,,,,cyan,square
28.0,5.0,0.5,1.0,4.0,4.0,329.7745039999427,1.0,1.0,phase_1,,,,,,,,,,,,,yellow,diamond
202.0,7.0,2.0,1.0,3.0,3.0,362.6296460006415,1.0,1.0,phase_1,,,,,,,,,,,,,orange,hexagon
34.0,5.0,0.5,1.0,4.0,4.0,316.3676929998473,1.0,1.0,phase_1,,,,,,,,,,,,,yellow,diamond
76.0,2.0,1.0,0.0,1.0,1.0,360.90162399978,1.0,1.0,phase_1,,,,,,,,,,,,,blue,triangle
402.0,4.0,4.0,0.0,2.0,2.0,342.4697039999955,1.0,1.0,phase_1,,,,,,,,,,,,,cyan,square
89.0,6.0,1.0,1.0,4.0,4.0,336.6262320005262,1.0,1.0,phase_1,,,,,,,,,,,,,green,cross
195.0,3.0,2.0,0.0,2.0,2.0,326.4757959996132,1.0,1.0,phase_1,,,,,,,,,,,,,gray,flipped triangle
0.0,5.0,0.0,1.0,2.0,2.0,317.2923819993229,1.0,1.0,phase_1,,,,,,,,,,,,,yellow,diamond
210.0,7.0,2.0,1.0,2.0,2.0,319.4653830005336,1.0,1.0,phase_1,,,,,,,,,,,,,orange,hexagon
0.0,7.0,0.0,1.0,4.0,4.0,308.5798190004425,1.0,1.0,phase_1,,,,,,,,,,,,,orange,hexagon
104.0,2.0,1.0,0.0,4.0,4.0,361.8053239997607,1.0,1.0,phase_1,,,,,,,,,,,,,blue,triangle
413.0,8.0,4.0,1.0,1.0,1.0,324.6672919995035,1.0,1.0,phase_1,,,,,,,,,,,,,white,circle
191.0,3.0,2.0,0.0,3.0,3.0,324.3057219997354,1.0,1.0,phase_1,,,,,,,,,,,,,gray,flipped triangle
211.0,3.0,2.0,0.0,4.0,4.0,289.3836479997844,1.0,1.0,phase_1,,,,,,,,,,,,,gray,flipped triangle
112.0,2.0,1.0,0.0,1.0,1.0,358.2330310000543,1.0,1.0,phase_1,,,,,,,,,,,,,blue,triangle
116.0,2.0,1.0,0.0,4.0,4.0,324.183771999742,1.0,1.0,phase_1,,,,,,,,,,,,,blue,triangle
399.0,8.0,4.0,1.0,2.0,2.0,306.3363470000695,1.0,1.0,phase_1,,,,,,,,,,,,,white,circle
0.0,5.0,0.0,1.0,4.0,4.0,295.8701580000706,1.0,1.0,phase_1,,,,,,,,,,,,,yellow,diamond
0.0,4.0,0.0,0.0,2.0,2.0,293.3369909997054,1.0,1.0,phase_1,,,,,,,,,,,,,cyan,square
85.0,6.0,1.0,1.0,1.0,1.0,309.2550589999518,1.0,1.0,phase_1,,,,,,,,,,,,,green,cross
387.0,4.0,4.0,0.0,1.0,1.0,328.6787540000659,1.0,1.0,phase_1,,,,,,,,,,,,,cyan,square
39.0,5.0,0.5,1.0,2.0,2.0,308.2992359995842,1.0,1.0,phase_1,,,,,,,,,,,,,yellow,diamond
124.0,6.0,1.0,1.0,4.0,4.0,291.2442079996253,1.0,1.0,phase_1,,,,,,,,,,,,,green,cross
386.0,4.0,4.0,0.0,2.0,2.0,309.9115380000512,1.0,1.0,phase_1,,,,,,,,,,,,,cyan,square
0.0,5.0,0.0,1.0,3.0,3.0,303.3982960005232,1.0,1.0,phase_1,,,,,,,,,,,,,yellow,diamond
105.0,2.0,1.0,0.0,3.0,3.0,306.6587000002982,1.0,1.0,phase_1,,,,,,,,,,,,,blue,triangle
101.0,6.0,1.0,1.0,2.0,2.0,350.8489279993227,1.0,1.0,phase_1,,,,,,,,,,,,,green,cross
42.0,5.0,0.5,1.0,3.0,3.0,326.4877040001011,1.0,1.0,phase_1,,,,,,,,,,,,,yellow,diamond
112.0,6.0,1.0,1.0,4.0,4.0,292.7360919993589,1.0,1.0,phase_1,,,,,,,,,,,,,green,cross
179.0,3.0,2.0,0.0,4.0,4.0,354.5574489999126,1.0,1.0,phase_1,,,,,,,,,,,,,gray,flipped triangle
423.0,4.0,4.0,0.0,4.0,4.0,321.1718319998908,1.0,1.0,phase_1,,,,,,,,,,,,,cyan,square
0.0,7.0,0.0,1.0,1.0,1.0,352.8939070001797,1.0,1.0,phase_1,,,,,,,,,,,,,orange,hexagon
48.0,5.0,0.5,1.0,1.0,1.0,344.2530069996792,1.0,1.0,phase_1,,,,,,,,,,,,,yellow,diamond
423.0,8.0,4.0,1.0,2.0,2.0,266.3596490001509,1.0,1.0,phase_1,,,,,,,,,,,,,white,circle
183.0,7.0,2.0,1.0,1.0,1.0,314.0267720000338,1.0,1.0,phase_1,,,,,,,,,,,,,orange,hexagon
211.0,3.0,2.0,0.0,2.0,2.0,328.9583150008184,1.0,1.0,phase_1,,,,,,,,,,,,,gray,flipped triangle
111.0,2.0,1.0,0.0,3.0,3.0,321.2642880007479,1.0,1.0,phase_1,,,,,,,,,,,,,blue,triangle
416.0,8.0,4.0,1.0,4.0,4.0,292.0445669997207,1.0,1.0,phase_1,,,,,,,,,,,,,white,circle
30.0,5.0,0.5,1.0,1.0,1.0,303.1727150000733,1.0,1.0,phase_1,,,,,,,,,,,,,yellow,diamond
414.0,8.0,4.0,1.0,2.0,2.0,283.4603459996287,1.0,1.0,phase_1,,,,,,,,,,,,,white,circle
99.0,6.0,1.0,1.0,2.0,2.0,300.7644019999134,1.0,1.0,phase_1,,,,,,,,,,,,,green,cross
42.0,5.0,0.5,1.0,1.0,1.0,317.3394180003015,1.0,1.0,phase_1,,,,,,,,,,,,,yellow,diamond
0.0,8.0,0.0,1.0,3.0,3.0,325.1527450001958,1.0,1.0,phase_1,,,,,,,,,,,,,white,circle
0.0,4.0,0.0,0.0,1.0,1.0,327.3300630007725,1.0,1.0,phase_1,,,,,,,,,,,,,cyan,square
0.0,7.0,0.0,1.0,1.0,1.0,305.7332150001457,1.0,1.0,phase_1,,,,,,,,,,,,,orange,hexagon
79.0,2.0,1.0,0.0,1.0,1.0,300.7548529994892,1.0,1.0,phase_1,,,,,,,,,,,,,blue,triangle
117.0,6.0,1.0,1.0,4.0,4.0,402.5942410007701,1.0,1.0,phase_1,,,,,,,,,,,,,green,cross
184.0,3.0,2.0,0.0,3.0,3.0,326.4537149998432,1.0,1.0,phase_1,,,,,,,,,,,,,gray,flipped triangle
26.0,1.0,0.5,0.0,2.0,2.0,290.6548589999147,1.0,1.0,phase_1,,,,,,,,,,,,,magenta,I
0.0,8.0,0.0,1.0,2.0,2.0,317.7652310005214,1.0,1.0,phase_1,,,,,,,,,,,,,white,circle
77.0,2.0,1.0,0.0,2.0,2.0,333.882967000136,1.0,1.0,phase_1,,,,,,,,,,,,,blue,triangle
26.0,5.0,0.5,1.0,1.0,1.0,393.5520380000525,1.0,1.0,phase_1,,,,,,,,,,,,,yellow,diamond
0.0,7.0,0.0,1.0,4.0,4.0,315.2544920003493,1.0,1.0,phase_1,,,,,,,,,,,,,orange,hexagon
95.0,2.0,1.0,0.0,3.0,3.0,343.78534499956,1.0,1.0,phase_1,,,,,,,,,,,,,blue,triangle
383.0,4.0,4.0,0.0,2.0,2.0,298.5130540000682,1.0,1.0,phase_1,,,,,,,,,,,,,cyan,square
379.0,4.0,4.0,0.0,2.0,2.0,419.1877570001452,1.0,1.0,phase_1,,,,,,,,,,,,,cyan,square
73.0,1.0,0.5,0.0,1.0,1.0,367.8472910005439,1.0,1.0,phase_1,,,,,,,,,,,,,magenta,I
62.0,1.0,0.5,0.0,3.0,3.0,288.483375999931,1.0,1.0,phase_1,,,,,,,,,,,,,magenta,I
0.0,8.0,0.0,1.0,2.0,2.0,280.4889380004169,1.0,1.0,phase_1,,,,,,,,,,,,,white,circle
124.0,2.0,1.0,0.0,2.0,2.0,329.9099030000434,1.0,1.0,phase_1,,,,,,,,,,,,,blue,triangle
0.0,8.0,0.0,1.0,3.0,3.0,329.0043970000624,1.0,1.0,phase_1,,,,,,,,,,,,,white,circle
0.0,5.0,0.0,1.0,3.0,3.0,409.9100189996534,1.0,1.0,phase_1,,,,,,,,,,,,,yellow,diamond
120.0,2.0,1.0,0.0,1.0,1.0,315.1728289994935,1.0,1.0,phase_1,,,,,,,,,,,,,blue,triangle
61.0,5.0,0.5,1.0,3.0,3.0,325.580125999295,1.0,1.0,phase_1,,,,,,,,,,,,,yellow,diamond
94.0,2.0,1.0,0.0,1.0,1.0,298.1665260003865,1.0,1.0,phase_1,,,,,,,,,,,,,blue,triangle
202.0,3.0,2.0,0.0,4.0,4.0,328.564434999862,1.0,1.0,phase_1,,,,,,,,,,,,,gray,flipped triangle
95.0,2.0,1.0,0.0,4.0,4.0,339.2254529999263,1.0,1.0,phase_1,,,,,,,,,,,,,blue,triangle
53.0,5.0,0.5,1.0,2.0,2.0,380.783001999589,1.0,1.0,phase_1,,,,,,,,,,,,,yellow,diamond
115.0,6.0,1.0,1.0,3.0,3.0,322.8384840003855,1.0,1.0,phase_1,,,,,,,,,,,,,green,cross
381.0,8.0,4.0,1.0,1.0,1.0,368.7373840002692,1.0,1.0,phase_1,,,,,,,,,,,,,white,circle
211.0,7.0,2.0,1.0,4.0,4.0,364.7481239995613,1.0,1.0,phase_1,,,,,,,,,,,,,orange,hexagon
60.0,1.0,0.5,0.0,4.0,4.0,335.6828170008157,1.0,1.0,phase_1,,,,,,,,,,,,,magenta,I
0.0,2.0,0.0,0.0,1.0,1.0,339.7340530000292,1.0,1.0,phase_1,,,,,,,,,,,,,blue,triangle
79.0,2.0,1.0,0.0,3.0,3.0,386.7044540002098,2.0,1.0,phase_1,,,,,,,,,,,,,blue,triangle
394.0,8.0,4.0,1.0,2.0,2.0,311.6359310006373,2.0,1.0,phase_1,,,,,,,,,,,,,white,circle
183.0,3.0,2.0,0.0,3.0,3.0,323.505637999915,2.0,1.0,phase_1,,,,,,,,,,,,,gray,flipped triangle
201.0,7.0,2.0,1.0,4.0,4.0,346.5981580002335,2.0,1.0,phase_1,,,,,,,,,,,,,orange,hexagon
406.0,4.0,4.0,0.0,3.0,3.0,296.2964309999734,2.0,1.0,phase_1,,,,,,,,,,,,,cyan,square
34.0,1.0,0.5,0.0,4.0,4.0,357.1800469999289,2.0,1.0,phase_1,,,,,,,,,,,,,magenta,I
406.0,8.0,4.0,1.0,2.0,2.0,380.7151049995809,2.0,1.0,phase_1,,,,,,,,,,,,,white,circle
0.0,8.0,0.0,1.0,1.0,1.0,314.0691819999119,2.0,1.0,phase_1,,,,,,,,,,,,,white,circle
34.0,1.0,0.5,0.0,2.0,2.0,312.8961910006183,2.0,1.0,phase_1,,,,,,,,,,,,,magenta,I
394.0,4.0,4.0,0.0,2.0,2.0,313.4288379997088,2.0,1.0,phase_1,,,,,,,,,,,,,cyan,square
73.0,5.0,0.5,1.0,3.0,3.0,318.6191949998829,2.0,1.0,phase_1,,,,,,,,,,,,,yellow,diamond
29.0,1.0,0.5,0.0,1.0,1.0,352.9583540002932,2.0,1.0,phase_1,,,,,,,,,,,,,magenta,I
179.0,3.0,2.0,0.0,4.0,4.0,367.6076880001346,2.0,1.0,phase_1,,,,,,,,,,,,,gray,flipped triangle
69.0,1.0,0.5,0.0,3.0,3.0,374.1067709997878,2.0,1.0,phase_1,,,,,,,,,,,,,magenta,I
0.0,2.0,0.0,0.0,1.0,1.0,337.4233060003462,2.0,2.0,phase_1,,,,,,,,,,,,,blue,triangle
30.0,1.0,0.5,0.0,1.0,1.0,349.6589790001962,2.0,1.0,phase_1,,,,,,,,,,,,,magenta,I
179.0,7.0,2.0,1.0,2.0,2.0,582.3890049996407,2.0,1.0,phase_1,,,,,,,,,,,,,orange,hexagon
0.0,4.0,0.0,0.0,3.0,3.0,444.5872930000405,2.0,1.0,phase_1,,,,,,,,,,,,,cyan,square
387.0,8.0,4.0,1.0,4.0,4.0,364.9175099999411,2.0,1.0,phase_1,,,,,,,,,,,,,white,circle
207.0,3.0,2.0,0.0,4.0,4.0,360.248412999681,2.0,1.0,phase_1,,,,,,,,,,,,,gray,flipped triangle
178.0,7.0,2.0,1.0,1.0,1.0,398.7002089997986,2.0,1.0,phase_1,,,,,,,,,,,,,orange,hexagon
216.0,3.0,2.0,0.0,1.0,1.0,354.4030439998096,2.0,1.0,phase_1,,,,,,,,,,,,,gray,flipped triangle
118.0,6.0,1.0,1.0,4.0,4.0,367.0602069996675,2.0,1.0,phase_1,,,,,,,,,,,,,green,cross
30.0,5.0,0.5,1.0,3.0,3.0,377.1954009998808,2.0,1.0,phase_1,,,,,,,,,,,,,yellow,diamond
218.0,7.0,2.0,1.0,1.0,1.0,391.2122390001968,2.0,1.0,phase_1,,,,,,,,,,,,,orange,hexagon
383.0,4.0,4.0,0.0,2.0,2.0,321.1347819997172,2.0,1.0,phase_1,,,,,,,,,,,,,cyan,square
396.0,4.0,4.0,0.0,4.0,4.0,340.5105559995718,2.0,1.0,phase_1,,,,,,,,,,,,,cyan,square
392.0,4.0,4.0,0.0,2.0,2.0,352.4027020002904,2.0,1.0,phase_1,,,,,,,,,,,,,cyan,square
0.0,2.0,0.0,0.0,2.0,2.0,392.6659200005815,2.0,1.0,phase_1,,,,,,,,,,,,,blue,triangle
117.0,2.0,1.0,0.0,4.0,4.0,389.1560629999731,2.0,1.0,phase_1,,,,,,,,,,,,,blue,triangle
52.0,5.0,0.5,1.0,1.0,1.0,404.0198150005381,2.0,1.0,phase_1,,,,,,,,,,,,,yellow,diamond
421.0,4.0,4.0,0.0,3.0,3.0,505.2581609998015,2.0,1.0,phase_1,,,,,,,,,,,,,cyan,square
0.0,3.0,0.0,0.0,1.0,1.0,375.0609680000707,2.0,1.0,phase_1,,,,,,,,,,,,,gray,flipped triangle
213.0,3.0,2.0,0.0,2.0,2.0,461.8670370000473,2.0,1.0,phase_1,,,,,,,,,,,,,gray,flipped triangle
393.0,8.0,4.0,1.0,3.0,3.0,406.2043510002695,2.0,1.0,phase_1,,,,,,,,,,,,,white,circle
44.0,5.0,0.5,1.0,1.0,1.0,395.9217359997637,2.0,1.0,phase_1,,,,,,,,,,,,,yellow,diamond
43.0,5.0,0.5,1.0,2.0,2.0,373.0248809997647,2.0,1.0,phase_1,,,,,,,,,,,,,yellow,diamond
0.0,3.0,0.0,0.0,1.0,1.0,461.734981000518,2.0,1.0,phase_1,,,,,,,,,,,,,gray,flipped triangle
385.0,8.0,4.0,1.0,4.0,4.0,504.1664459995445,2.0,1.0,phase_1,,,,,,,,,,,,,white,circle
188.0,3.0,2.0,0.0,1.0,1.0,413.0713199992897,2.0,1.0,phase_1,,,,,,,,,,,,,gray,flipped triangle
0.0,6.0,0.0,1.0,2.0,2.0,373.5442659999535,2.0,1.0,phase_1,,,,,,,,,,,,,green,cross
0.0,5.0,0.0,1.0,3.0,3.0,451.7193029996633,2.0,1.0,phase_1,,,,,,,,,,,,,yellow,diamond
180.0,7.0,2.0,1.0,2.0,2.0,376.4506690004054,2.0,1.0,phase_1,,,,,,,,,,,,,orange,hexagon
0.0,6.0,0.0,1.0,4.0,4.0,401.3202040005126,2.0,1.0,phase_1,,,,,,,,,,,,,green,cross
412.0,4.0,4.0,0.0,4.0,4.0,431.4800930005731,2.0,1.0,phase_1,,,,,,,,,,,,,cyan,square
112.0,6.0,1.0,1.0,3.0,3.0,529.2094529995666,2.0,1.0,phase_1,,,,,,,,,,,,,green,cross
71.0,1.0,0.5,0.0,4.0,4.0,401.6826390006827,2.0,1.0,phase_1,,,,,,,,,,,,,magenta,I
89.0,2.0,1.0,0.0,4.0,4.0,439.2873380002129,2.0,1.0,phase_1,,,,,,,,,,,,,blue,triangle
0.0,2.0,0.0,0.0,1.0,1.0,424.9800380002853,2.0,1.0,phase_1,,,,,,,,,,,,,blue,triangle
383.0,8.0,4.0,1.0,4.0,4.0,350.8189349995518,2.0,1.0,phase_1,,,,,,,,,,,,,white,circle
81.0,6.0,1.0,1.0,4.0,4.0,353.9693709999483,2.0,1.0,phase_1,,,,,,,,,,,,,green,cross
377.0,4.0,4.0,0.0,3.0,3.0,367.88405100014637,2.0,1.0,phase_1,,,,,,,,,,,,,cyan,square
28.0,5.0,0.5,1.0,1.0,1.0,360.0746399997661,2.0,1.0,phase_1,,,,,,,,,,,,,yellow,diamond
218.0,3.0,2.0,0.0,3.0,3.0,374.8912289993313,2.0,1.0,phase_1,,,,,,,,,,,,,gray,flipped triangle
0.0,6.0,0.0,1.0,3.0,3.0,371.4995989994349,2.0,1.0,phase_1,,,,,,,,,,,,,green,cross
83.0,2.0,1.0,0.0,2.0,2.0,336.1824599996907,2.0,1.0,phase_1,,,,,,,,,,,,,blue,triangle
0.0,8.0,0.0,1.0,4.0,4.0,422.35342100048,2.0,1.0,phase_1,,,,,,,,,,,,,white,circle
39.0,1.0,0.5,0.0,1.0,1.0,390.7041390002632,2.0,1.0,phase_1,,,,,,,,,,,,,magenta,I
0.0,4.0,0.0,0.0,3.0,3.0,336.6182539994042,2.0,1.0,phase_1,,,,,,,,,,,,,cyan,square
73.0,5.0,0.5,1.0,2.0,2.0,353.2573260008576,2.0,1.0,phase_1,,,,,,,,,,,,,yellow,diamond
0.0,7.0,0.0,1.0,3.0,3.0,355.1104929993016,2.0,1.0,phase_1,,,,,,,,,,,,,orange,hexagon
101.0,2.0,1.0,0.0,3.0,3.0,350.1542050007629,2.0,1.0,phase_1,,,,,,,,,,,,,blue,triangle
217.0,3.0,2.0,0.0,4.0,4.0,441.0166709994882,2.0,1.0,phase_1,,,,,,,,,,,,,gray,flipped triangle
223.0,7.0,2.0,1.0,3.0,3.0,365.7281900004818,2.0,1.0,phase_1,,,,,,,,,,,,,orange,hexagon
42.0,1.0,0.5,0.0,2.0,2.0,359.4099239999195,2.0,1.0,phase_1,,,,,,,,,,,,,magenta,I
377.0,8.0,4.0,1.0,3.0,3.0,468.2738039991818,2.0,1.0,phase_1,,,,,,,,,,,,,white,circle
0.0,1.0,0.0,0.0,1.0,1.0,413.906832000066,2.0,1.0,phase_1,,,,,,,,,,,,,magenta,I
221.0,3.0,2.0,0.0,1.0,1.0,388.7578610001583,2.0,1.0,phase_1,,,,,,,,,,,,,gray,flipped triangle
184.0,7.0,2.0,1.0,2.0,2.0,398.8283130001946,2.0,1.0,phase_1,,,,,,,,,,,,,orange,hexagon
88.0,6.0,1.0,1.0,3.0,3.0,320.3455590000885,2.0,1.0,phase_1,,,,,,,,,,,,,green,cross
414.0,8.0,4.0,1.0,3.0,3.0,396.0981840000386,2.0,1.0,phase_1,,,,,,,,,,,,,white,circle
68.0,1.0,0.5,0.0,2.0,2.0,347.8882330000488,2.0,1.0,phase_1,,,,,,,,,,,,,magenta,I
117.0,6.0,1.0,1.0,1.0,1.0,382.4973410000893,2.0,1.0,phase_1,,,,,,,,,,,,,green,cross
108.0,2.0,1.0,0.0,1.0,1.0,442.9696030001651,2.0,1.0,phase_1,,,,,,,,,,,,,blue,triangle
54.0,1.0,0.5,0.0,2.0,2.0,346.7268350004815,2.0,1.0,phase_1,,,,,,,,,,,,,magenta,I
94.0,6.0,1.0,1.0,2.0,2.0,353.7337919997299,2.0,1.0,phase_1,,,,,,,,,,,,,green,cross
83.0,6.0,1.0,1.0,1.0,1.0,357.3783770007139,2.0,1.0,phase_1,,,,,,,,,,,,,green,cross
415.0,8.0,4.0,1.0,1.0,1.0,358.64826299985,2.0,1.0,phase_1,,,,,,,,,,,,,white,circle
199.0,7.0,2.0,1.0,3.0,3.0,426.8706689999817,2.0,1.0,phase_1,,,,,,,,,,,,,orange,hexagon
0.0,1.0,0.0,0.0,1.0,1.0,335.9884479996253,2.0,1.0,phase_1,,,,,,,,,,,,,magenta,I
399.0,8.0,4.0,1.0,1.0,1.0,341.250188000231,2.0,1.0,phase_1,,,,,,,,,,,,,white,circle
61.0,1.0,0.5,0.0,3.0,3.0,463.9580029997887,2.0,1.0,phase_1,,,,,,,,,,,,,magenta,I
395.0,4.0,4.0,0.0,1.0,1.0,376.1613289998422,2.0,1.0,phase_1,,,,,,,,,,,,,cyan,square
396.0,8.0,4.0,1.0,4.0,4.0,477.851487999942,2.0,1.0,phase_1,,,,,,,,,,,,,white,circle
382.0,8.0,4.0,1.0,4.0,4.0,425.9918890002154,2.0,1.0,phase_1,,,,,,,,,,,,,white,circle
415.0,4.0,4.0,0.0,3.0,3.0,369.8639570002342,2.0,1.0,phase_1,,,,,,,,,,,,,cyan,square
51.0,1.0,0.5,0.0,3.0,3.0,405.9068469996418,2.0,1.0,phase_1,,,,,,,,,,,,,magenta,I
0.0,4.0,0.0,0.0,3.0,3.0,373.0973579995407,2.0,1.0,phase_1,,,,,,,,,,,,,cyan,square
64.0,5.0,0.5,1.0,1.0,1.0,456.6540650002935,2.0,1.0,phase_1,,,,,,,,,,,,,yellow,diamond
421.0,8.0,4.0,1.0,4.0,4.0,413.707617,2.0,1.0,phase_1,,,,,,,,,,,,,white,circle
415.0,8.0,4.0,1.0,3.0,3.0,424.9137509996217,2.0,1.0,phase_1,,,,,,,,,,,,,white,circle
201.0,3.0,2.0,0.0,2.0,2.0,466.1799690002226,2.0,1.0,phase_1,,,,,,,,,,,,,gray,flipped triangle
192.0,3.0,2.0,0.0,2.0,2.0,664.2971399996895,2.0,1.0,phase_1,,,,,,,,,,,,,gray,flipped triangle
81.0,2.0,1.0,0.0,2.0,2.0,521.3773109999238,2.0,1.0,phase_1,,,,,,,,,,,,,blue,triangle
83.0,2.0,1.0,0.0,1.0,1.0,400.4817479999474,2.0,1.0,phase_1,,,,,,,,,,,,,blue,triangle
0.0,2.0,0.0,0.0,3.0,3.0,371.6875430000073,2.0,1.0,phase_1,,,,,,,,,,,,,blue,triangle
207.0,7.0,2.0,1.0,4.0,4.0,387.7657029997863,2.0,1.0,phase_1,,,,,,,,,,,,,orange,hexagon
215.0,3.0,2.0,0.0,2.0,2.0,364.3313820002731,2.0,1.0,phase_1,,,,,,,,,,,,,gray,flipped triangle
206.0,7.0,2.0,1.0,3.0,3.0,437.072124000224,2.0,1.0,phase_1,,,,,,,,,,,,,orange,hexagon
0.0,7.0,0.0,1.0,1.0,1.0,404.7283820000302,2.0,1.0,phase_1,,,,,,,,,,,,,orange,hexagon
64.0,1.0,0.5,0.0,2.0,2.0,442.7183489997333,3.0,1.0,phase_1,,,,,,,,,,,,,magenta,I
416.0,4.0,4.0,0.0,3.0,3.0,414.121604999309,3.0,1.0,phase_1,,,,,,,,,,,,,cyan,square
115.0,2.0,1.0,0.0,1.0,1.0,354.2824200003451,3.0,1.0,phase_1,,,,,,,,,,,,,blue,triangle
42.0,1.0,0.5,0.0,3.0,3.0,354.7089849998883,3.0,1.0,phase_1,,,,,,,,,,,,,magenta,I
192.0,7.0,2.0,1.0,4.0,4.0,377.3173949994088,3.0,1.0,phase_1,,,,,,,,,,,,,orange,hexagon
401.0,4.0,4.0,0.0,3.0,3.0,423.470747000465,3.0,1.0,phase_1,,,,,,,,,,,,,cyan,square
401.0,8.0,4.0,1.0,1.0,1.0,373.9462730000014,3.0,1.0,phase_1,,,,,,,,,,,,,white,circle
406.0,8.0,4.0,1.0,1.0,1.0,390.2613079999355,3.0,1.0,phase_1,,,,,,,,,,,,,white,circle
79.0,6.0,1.0,1.0,2.0,2.0,458.8101959998312,3.0,1.0,phase_1,,,,,,,,,,,,,green,cross
415.0,4.0,4.0,0.0,4.0,4.0,411.4506269997946,3.0,1.0,phase_1,,,,,,,,,,,,,cyan,square
59.0,1.0,0.5,0.0,3.0,3.0,380.5023439999786,3.0,1.0,phase_1,,,,,,,,,,,,,magenta,I
74.0,1.0,0.5,0.0,1.0,1.0,435.8040119996076,3.0,1.0,phase_1,,,,,,,,,,,,,magenta,I
88.0,2.0,1.0,0.0,1.0,1.0,417.7649250004833,3.0,1.0,phase_1,,,,,,,,,,,,,blue,triangle
0.0,5.0,0.0,1.0,4.0,4.0,576.084006000201,3.0,1.0,phase_1,,,,,,,,,,,,,yellow,diamond
400.0,4.0,4.0,0.0,4.0,4.0,525.0217479997445,3.0,1.0,phase_1,,,,,,,,,,,,,cyan,square
186.0,3.0,2.0,0.0,2.0,2.0,672.9637899998124,3.0,1.0,phase_1,,,,,,,,,,,,,gray,flipped triangle
204.0,7.0,2.0,1.0,3.0,3.0,434.0320370001791,3.0,1.0,phase_1,,,,,,,,,,,,,orange,hexagon
106.0,6.0,1.0,1.0,2.0,2.0,395.9341330000825,3.0,1.0,phase_1,,,,,,,,,,,,,green,cross
0.0,2.0,0.0,0.0,1.0,1.0,376.6937500004133,3.0,1.0,phase_1,,,,,,,,,,,,,blue,triangle
195.0,7.0,2.0,1.0,1.0,1.0,388.4522919997835,3.0,1.0,phase_1,,,,,,,,,,,,,orange,hexagon
103.0,6.0,1.0,1.0,1.0,1.0,451.0175380000873,3.0,1.0,phase_1,,,,,,,,,,,,,green,cross
399.0,4.0,4.0,0.0,3.0,3.0,442.2083869994822,3.0,1.0,phase_1,,,,,,,,,,,,,cyan,square
412.0,8.0,4.0,1.0,3.0,3.0,410.0348829997529,3.0,1.0,phase_1,,,,,,,,,,,,,white,circle
104.0,6.0,1.0,1.0,2.0,2.0,377.1365560005506,3.0,1.0,phase_1,,,,,,,,,,,,,green,cross
211.0,3.0,2.0,0.0,2.0,2.0,343.7955439994766,3.0,1.0,phase_1,,,,,,,,,,,,,gray,flipped triangle
56.0,5.0,0.5,1.0,1.0,1.0,378.5801109997919,3.0,1.0,phase_1,,,,,,,,,,,,,yellow,diamond
395.0,8.0,4.0,1.0,3.0,3.0,377.274110000144,3.0,1.0,phase_1,,,,,,,,,,,,,white,circle
205.0,7.0,2.0,1.0,2.0,2.0,423.9538029996765,3.0,1.0,phase_1,,,,,,,,,,,,,orange,hexagon
411.0,8.0,4.0,1.0,3.0,3.0,402.7224989995375,3.0,1.0,phase_1,,,,,,,,,,,,,white,circle
95.0,6.0,1.0,1.0,4.0,4.0,459.1336359999332,3.0,1.0,phase_1,,,,,,,,,,,,,green,cross
83.0,6.0,1.0,1.0,3.0,3.0,331.8607660003181,3.0,1.0,phase_1,,,,,,,,,,,,,green,cross
205.0,3.0,2.0,0.0,3.0,3.0,354.564317999575,3.0,1.0,phase_1,,,,,,,,,,,,,gray,flipped triangle
201.0,3.0,2.0,0.0,2.0,2.0,430.0315509999564,3.0,1.0,phase_1,,,,,,,,,,,,,gray,flipped triangle
0.0,2.0,0.0,0.0,1.0,1.0,427.5694930001918,3.0,1.0,phase_1,,,,,,,,,,,,,blue,triangle
94.0,6.0,1.0,1.0,3.0,3.0,380.3128589997868,3.0,1.0,phase_1,,,,,,,,,,,,,green,cross
54.0,5.0,0.5,1.0,3.0,3.0,363.1926779999048,3.0,1.0,phase_1,,,,,,,,,,,,,yellow,diamond
0.0,1.0,0.0,0.0,2.0,2.0,371.5655020005215,3.0,1.0,phase_1,,,,,,,,,,,,,magenta,I
423.0,8.0,4.0,1.0,4.0,4.0,415.2209050007514,3.0,1.0,phase_1,,,,,,,,,,,,,white,circle
66.0,5.0,0.5,1.0,3.0,3.0,350.6507540005259,3.0,1.0,phase_1,,,,,,,,,,,,,yellow,diamond
79.0,6.0,1.0,1.0,1.0,1.0,388.9622119995692,3.0,1.0,phase_1,,,,,,,,,,,,,green,cross
47.0,1.0,0.5,0.0,2.0,2.0,427.683031000015,3.0,1.0,phase_1,,,,,,,,,,,,,magenta,I
195.0,3.0,2.0,0.0,1.0,1.0,362.5382139998692,3.0,1.0,phase_1,,,,,,,,,,,,,gray,flipped triangle
62.0,5.0,0.5,1.0,3.0,3.0,473.5304980004002,3.0,1.0,phase_1,,,,,,,,,,,,,yellow,diamond
180.0,3.0,2.0,0.0,3.0,3.0,392.9781709994131,3.0,1.0,phase_1,,,,,,,,,,,,,gray,flipped triangle
106.0,2.0,1.0,0.0,3.0,3.0,379.8151450000659,3.0,1.0,phase_1,,,,,,,,,,,,,blue,triangle
0.0,1.0,0.0,0.0,1.0,1.0,429.994854999677,3.0,1.0,phase_1,,,,,,,,,,,,,magenta,I
49.0,5.0,0.5,1.0,4.0,4.0,535.895602999517,3.0,1.0,phase_1,,,,,,,,,,,,,yellow,diamond
99.0,2.0,1.0,0.0,3.0,3.0,618.1516560000091,3.0,1.0,phase_1,,,,,,,,,,,,,blue,triangle
0.0,4.0,0.0,0.0,1.0,1.0,488.2919219999166,3.0,1.0,phase_1,,,,,,,,,,,,,cyan,square
56.0,1.0,0.5,0.0,4.0,4.0,404.5330139997531,3.0,1.0,phase_1,,,,,,,,,,,,,magenta,I
53.0,1.0,0.5,0.0,3.0,3.0,407.9316790002849,3.0,1.0,phase_1,,,,,,,,,,,,,magenta,I
383.0,8.0,4.0,1.0,2.0,2.0,428.68129100043,3.0,1.0,phase_1,,,,,,,,,,,,,white,circle
0.0,7.0,0.0,1.0,3.0,3.0,398.5216770006445,3.0,1.0,phase_1,,,,,,,,,,,,,orange,hexagon
212.0,7.0,2.0,1.0,2.0,2.0,403.3285360001173,3.0,1.0,phase_1,,,,,,,,,,,,,orange,hexagon
385.0,4.0,4.0,0.0,4.0,4.0,560.9727760001988,3.0,1.0,phase_1,,,,,,,,,,,,,cyan,square
85.0,2.0,1.0,0.0,2.0,2.0,712.1884419993876,3.0,1.0,phase_1,,,,,,,,,,,,,blue,triangle
380.0,4.0,4.0,0.0,3.0,3.0,457.7974879994144,3.0,1.0,phase_1,,,,,,,,,,,,,cyan,square
0.0,5.0,0.0,1.0,1.0,1.0,541.4282839992666,3.0,1.0,phase_1,,,,,,,,,,,,,yellow,diamond
187.0,7.0,2.0,1.0,1.0,1.0,336.2920520003172,3.0,1.0,phase_1,,,,,,,,,,,,,orange,hexagon
0.0,4.0,0.0,0.0,3.0,3.0,336.0379939995255,3.0,1.0,phase_1,,,,,,,,,,,,,cyan,square
215.0,7.0,2.0,1.0,3.0,3.0,318.3437389998289,3.0,1.0,phase_1,,,,,,,,,,,,,orange,hexagon
406.0,4.0,4.0,0.0,1.0,1.0,321.9540540003436,3.0,1.0,phase_1,,,,,,,,,,,,,cyan,square
0.0,8.0,0.0,1.0,4.0,4.0,338.0601139997452,3.0,1.0,phase_1,,,,,,,,,,,,,white,circle
210.0,3.0,2.0,0.0,3.0,3.0,323.1085249999523,3.0,1.0,phase_1,,,,,,,,,,,,,gray,flipped triangle
0.0,4.0,0.0,0.0,2.0,2.0,325.5835270001626,3.0,1.0,phase_1,,,,,,,,,,,,,cyan,square
382.0,4.0,4.0,0.0,1.0,1.0,328.3820819997345,3.0,1.0,phase_1,,,,,,,,,,,,,cyan,square
180.0,7.0,2.0,1.0,1.0,1.0,297.2793890003231,3.0,1.0,phase_1,,,,,,,,,,,,,orange,hexagon
399.0,8.0,4.0,1.0,4.0,4.0,430.9512870004255,3.0,1.0,phase_1,,,,,,,,,,,,,white,circle
178.0,3.0,2.0,0.0,1.0,1.0,347.5777670000752,3.0,1.0,phase_1,,,,,,,,,,,,,gray,flipped triangle
103.0,6.0,1.0,1.0,3.0,3.0,327.5444099999731,3.0,1.0,phase_1,,,,,,,,,,,,,green,cross
63.0,5.0,0.5,1.0,4.0,4.0,345.5020860001241,3.0,1.0,phase_1,,,,,,,,,,,,,yellow,diamond
120.0,6.0,1.0,1.0,2.0,2.0,296.7903339995246,3.0,1.0,phase_1,,,,,,,,,,,,,green,cross
52.0,1.0,0.5,0.0,1.0,1.0,313.8321259993972,3.0,1.0,phase_1,,,,,,,,,,,,,magenta,I
108.0,6.0,1.0,1.0,4.0,4.0,362.2675920005349,3.0,1.0,phase_1,,,,,,,,,,,,,green,cross
399.0,4.0,4.0,0.0,4.0,4.0,334.7892969995882,3.0,1.0,phase_1,,,,,,,,,,,,,cyan,square
0.0,6.0,0.0,1.0,3.0,3.0,317.7535699996952,3.0,1.0,phase_1,,,,,,,,,,,,,green,cross
0.0,2.0,0.0,0.0,3.0,3.0,313.7796099999832,3.0,1.0,phase_1,,,,,,,,,,,,,blue,triangle
68.0,5.0,0.5,1.0,3.0,3.0,319.5296769999913,3.0,1.0,phase_1,,,,,,,,,,,,,yellow,diamond
112.0,2.0,1.0,0.0,2.0,2.0,306.8900549997124,3.0,1.0,phase_1,,,,,,,,,,,,,blue,triangle
191.0,7.0,2.0,1.0,2.0,2.0,271.3395729997501,3.0,1.0,phase_1,,,,,,,,,,,,,orange,hexagon
187.0,3.0,2.0,0.0,1.0,1.0,358.0438160006451,3.0,1.0,phase_1,,,,,,,,,,,,,gray,flipped triangle
195.0,7.0,2.0,1.0,3.0,3.0,309.6718110000438,3.0,1.0,phase_1,,,,,,,,,,,,,orange,hexagon
71.0,5.0,0.5,1.0,2.0,2.0,331.1725250005111,3.0,1.0,phase_1,,,,,,,,,,,,,yellow,diamond
50.0,1.0,0.5,0.0,2.0,2.0,336.0567219997392,3.0,1.0,phase_1,,,,,,,,,,,,,magenta,I
223.0,3.0,2.0,0.0,1.0,1.0,378.5966109999208,3.0,1.0,phase_1,,,,,,,,,,,,,gray,flipped triangle
0.0,8.0,0.0,1.0,2.0,2.0,541.7847869994148,3.0,1.0,phase_1,,,,,,,,,,,,,white,circle
60.0,5.0,0.5,1.0,3.0,3.0,349.7565479992772,3.0,1.0,phase_1,,,,,,,,,,,,,yellow,diamond
212.0,3.0,2.0,0.0,1.0,1.0,376.530485999865,3.0,1.0,phase_1,,,,,,,,,,,,,gray,flipped triangle
414.0,4.0,4.0,0.0,2.0,2.0,293.2586770002672,3.0,1.0,phase_1,,,,,,,,,,,,,cyan,square
0.0,3.0,0.0,0.0,4.0,4.0,358.6769109997476,3.0,1.0,phase_1,,,,,,,,,,,,,gray,flipped triangle
34.0,5.0,0.5,1.0,4.0,4.0,350.2916910001659,3.0,1.0,phase_1,,,,,,,,,,,,,yellow,diamond
0.0,6.0,0.0,1.0,4.0,4.0,312.7952260001621,3.0,1.0,phase_1,,,,,,,,,,,,,green,cross
88.0,2.0,1.0,0.0,4.0,4.0,312.3893800002406,3.0,1.0,phase_1,,,,,,,,,,,,,blue,triangle
0.0,1.0,0.0,0.0,4.0,4.0,355.9977069999149,3.0,1.0,phase_1,,,,,,,,,,,,,magenta,I
124.0,2.0,1.0,0.0,4.0,4.0,321.660432000499,3.0,1.0,phase_1,,,,,,,,,,,,,blue,triangle
402.0,8.0,4.0,1.0,3.0,3.0,359.6002419999422,3.0,1.0,phase_1,,,,,,,,,,,,,white,circle
28.0,1.0,0.5,0.0,1.0,1.0,397.9411239997716,3.0,1.0,phase_1,,,,,,,,,,,,,magenta,I
50.0,1.0,0.5,0.0,4.0,4.0,356.7858500000511,3.0,1.0,phase_1,,,,,,,,,,,,,magenta,I
413.0,4.0,4.0,0.0,1.0,1.0,365.1667410003938,3.0,1.0,phase_1,,,,,,,,,,,,,cyan,square
223.0,7.0,2.0,1.0,2.0,2.0,336.6110030001437,3.0,1.0,phase_1,,,,,,,,,,,,,orange,hexagon
44.0,1.0,0.5,0.0,2.0,2.0,401.4368439993632,4.0,1.0,phase_1,,,,,,,,,,,,,magenta,I
0.0,6.0,0.0,1.0,2.0,2.0,319.7385630001008,4.0,1.0,phase_1,,,,,,,,,,,,,green,cross
195.0,7.0,2.0,1.0,2.0,2.0,296.6364209996754,4.0,1.0,phase_1,,,,,,,,,,,,,orange,hexagon
415.0,8.0,4.0,1.0,2.0,2.0,271.1143830001674,4.0,1.0,phase_1,,,,,,,,,,,,,white,circle
47.0,5.0,0.5,1.0,4.0,4.0,350.4103929999473,4.0,1.0,phase_1,,,,,,,,,,,,,yellow,diamond
0.0,3.0,0.0,0.0,1.0,1.0,363.4317720006947,4.0,1.0,phase_1,,,,,,,,,,,,,gray,flipped triangle
223.0,3.0,2.0,0.0,2.0,2.0,308.9687949996005,4.0,1.0,phase_1,,,,,,,,,,,,,gray,flipped triangle
112.0,6.0,1.0,1.0,3.0,3.0,304.8994310001944,4.0,1.0,phase_1,,,,,,,,,,,,,green,cross
392.0,8.0,4.0,1.0,3.0,3.0,302.3015730004772,4.0,1.0,phase_1,,,,,,,,,,,,,white,circle
417.0,8.0,4.0,1.0,1.0,1.0,392.2687399999631,4.0,1.0,phase_1,,,,,,,,,,,,,white,circle
187.0,7.0,2.0,1.0,4.0,4.0,328.850058000171,4.0,1.0,phase_1,,,,,,,,,,,,,orange,hexagon
213.0,7.0,2.0,1.0,1.0,1.0,316.1559500003932,4.0,1.0,phase_1,,,,,,,,,,,,,orange,hexagon
69.0,5.0,0.5,1.0,3.0,3.0,319.5292489999701,4.0,1.0,phase_1,,,,,,,,,,,,,yellow,diamond
202.0,7.0,2.0,1.0,4.0,4.0,342.7637089998825,4.0,1.0,phase_1,,,,,,,,,,,,,orange,hexagon
74.0,5.0,0.5,1.0,2.0,2.0,338.5461119996762,4.0,1.0,phase_1,,,,,,,,,,,,,yellow,diamond
116.0,6.0,1.0,1.0,2.0,2.0,310.2568089998385,4.0,1.0,phase_1,,,,,,,,,,,,,green,cross
0.0,1.0,0.0,0.0,1.0,1.0,325.2011659997151,4.0,1.0,phase_1,,,,,,,,,,,,,magenta,I
43.0,1.0,0.5,0.0,4.0,4.0,315.7648859996698,4.0,1.0,phase_1,,,,,,,,,,,,,magenta,I
0.0,6.0,0.0,1.0,4.0,4.0,347.9113829998823,4.0,1.0,phase_1,,,,,,,,,,,,,green,cross
379.0,8.0,4.0,1.0,2.0,2.0,297.3146630001793,4.0,1.0,phase_1,,,,,,,,,,,,,white,circle
88.0,6.0,1.0,1.0,1.0,1.0,349.2216039994673,4.0,1.0,phase_1,,,,,,,,,,,,,green,cross
217.0,7.0,2.0,1.0,4.0,4.0,333.189888000561,4.0,1.0,phase_1,,,,,,,,,,,,,orange,hexagon
0.0,3.0,0.0,0.0,2.0,2.0,370.5770200003826,4.0,1.0,phase_1,,,,,,,,,,,,,gray,flipped triangle
48.0,1.0,0.5,0.0,2.0,2.0,303.2648070002324,4.0,1.0,phase_1,,,,,,,,,,,,,magenta,I
103.0,2.0,1.0,0.0,4.0,4.0,429.53254799977,4.0,1.0,phase_1,,,,,,,,,,,,,blue,triangle
0.0,6.0,0.0,1.0,4.0,4.0,363.7633139996978,4.0,1.0,phase_1,,,,,,,,,,,,,green,cross
204.0,3.0,2.0,0.0,4.0,4.0,388.0556300000535,4.0,1.0,phase_1,,,,,,,,,,,,,gray,flipped triangle
221.0,7.0,2.0,1.0,2.0,2.0,333.4588829993663,4.0,1.0,phase_1,,,,,,,,,,,,,orange,hexagon
179.0,7.0,2.0,1.0,3.0,3.0,315.0701509994178,4.0,1.0,phase_1,,,,,,,,,,,,,orange,hexagon
48.0,5.0,0.5,1.0,2.0,2.0,308.9441060001263,4.0,1.0,phase_1,,,,,,,,,,,,,yellow,diamond
398.0,8.0,4.0,1.0,2.0,2.0,314.3361689999437,4.0,1.0,phase_1,,,,,,,,,,,,,white,circle
0.0,3.0,0.0,0.0,3.0,3.0,334.59528900039,4.0,1.0,phase_1,,,,,,,,,,,,,gray,flipped triangle
0.0,3.0,0.0,0.0,2.0,2.0,351.212576000762,4.0,1.0,phase_1,,,,,,,,,,,,,gray,flipped triangle
191.0,3.0,2.0,0.0,3.0,3.0,320.0376889999461,4.0,1.0,phase_1,,,,,,,,,,,,,gray,flipped triangle
52.0,5.0,0.5,1.0,2.0,2.0,315.3064019998055,4.0,1.0,phase_1,,,,,,,,,,,,,yellow,diamond
183.0,3.0,2.0,0.0,1.0,1.0,417.9305110001223,4.0,1.0,phase_1,,,,,,,,,,,,,gray,flipped triangle
0.0,1.0,0.0,0.0,4.0,4.0,323.0262530005348,4.0,1.0,phase_1,,,,,,,,,,,,,magenta,I
39.0,1.0,0.5,0.0,1.0,1.0,354.3962479998299,4.0,1.0,phase_1,,,,,,,,,,,,,magenta,I
415.0,4.0,4.0,0.0,1.0,1.0,359.9262959996849,4.0,1.0,phase_1,,,,,,,,,,,,,cyan,square
39.0,5.0,0.5,1.0,4.0,4.0,328.5427579994575,4.0,1.0,phase_1,,,,,,,,,,,,,yellow,diamond
48.0,5.0,0.5,1.0,4.0,4.0,303.3749300002455,4.0,1.0,phase_1,,,,,,,,,,,,,yellow,diamond
0.0,7.0,0.0,1.0,1.0,1.0,352.1410299999843,4.0,1.0,phase_1,,,,,,,,,,,,,orange,hexagon
0.0,3.0,0.0,0.0,1.0,1.0,397.8171750004549,4.0,1.0,phase_1,,,,,,,,,,,,,gray,flipped triangle
186.0,7.0,2.0,1.0,1.0,1.0,313.7143410003773,4.0,1.0,phase_1,,,,,,,,,,,,,orange,hexagon
399.0,4.0,4.0,0.0,1.0,1.0,297.8652910005621,4.0,1.0,phase_1,,,,,,,,,,,,,cyan,square
211.0,7.0,2.0,1.0,4.0,4.0,380.2481599996099,4.0,1.0,phase_1,,,,,,,,,,,,,orange,hexagon
48.0,1.0,0.5,0.0,3.0,3.0,336.4049779993365,4.0,1.0,phase_1,,,,,,,,,,,,,magenta,I
48.0,1.0,0.5,0.0,4.0,4.0,348.3718039997256,4.0,1.0,phase_1,,,,,,,,,,,,,magenta,I
84.0,6.0,1.0,1.0,2.0,2.0,281.6637089999858,4.0,1.0,phase_1,,,,,,,,,,,,,green,cross
83.0,2.0,1.0,0.0,4.0,4.0,303.4255680004207,4.0,1.0,phase_1,,,,,,,,,,,,,blue,triangle
0.0,8.0,0.0,1.0,1.0,1.0,325.7276439999259,4.0,1.0,phase_1,,,,,,,,,,,,,white,circle
50.0,5.0,0.5,1.0,1.0,1.0,372.8465349995531,4.0,1.0,phase_1,,,,,,,,,,,,,yellow,diamond
381.0,4.0,4.0,0.0,1.0,1.0,308.6860399998841,4.0,1.0,phase_1,,,,,,,,,,,,,cyan,square
0.0,4.0,0.0,0.0,2.0,2.0,315.3101789994252,4.0,1.0,phase_1,,,,,,,,,,,,,cyan,square
83.0,6.0,1.0,1.0,4.0,4.0,322.2361340003772,4.0,1.0,phase_1,,,,,,,,,,,,,green,cross
414.0,4.0,4.0,0.0,2.0,2.0,308.1293299992467,4.0,1.0,phase_1,,,,,,,,,,,,,cyan,square
124.0,6.0,1.0,1.0,3.0,3.0,323.3681700003217,4.0,1.0,phase_1,,,,,,,,,,,,,green,cross
0.0,5.0,0.0,1.0,2.0,2.0,300.9379800005263,4.0,1.0,phase_1,,,,,,,,,,,,,yellow,diamond
0.0,3.0,0.0,0.0,4.0,4.0,323.3739709994552,4.0,1.0,phase_1,,,,,,,,,,,,,gray,flipped triangle
0.0,6.0,0.0,1.0,3.0,3.0,301.2040560006426,4.0,1.0,phase_1,,,,,,,,,,,,,green,cross
28.0,1.0,0.5,0.0,1.0,1.0,330.5884940000396,4.0,1.0,phase_1,,,,,,,,,,,,,magenta,I
0.0,7.0,0.0,1.0,3.0,3.0,316.1755659994014,4.0,1.0,phase_1,,,,,,,,,,,,,orange,hexagon
50.0,5.0,0.5,1.0,2.0,2.0,331.9726270001411,4.0,1.0,phase_1,,,,,,,,,,,,,yellow,diamond
0.0,3.0,0.0,0.0,2.0,2.0,312.2401809996518,4.0,1.0,phase_1,,,,,,,,,,,,,gray,flipped triangle
30.0,1.0,0.5,0.0,4.0,4.0,335.2430679997269,4.0,1.0,phase_1,,,,,,,,,,,,,magenta,I
29.0,5.0,0.5,1.0,2.0,2.0,273.4304690002318,4.0,1.0,phase_1,,,,,,,,,,,,,yellow,diamond
84.0,2.0,1.0,0.0,3.0,3.0,309.5149010005116,4.0,1.0,phase_1,,,,,,,,,,,,,blue,triangle
191.0,7.0,2.0,1.0,4.0,4.0,351.2474299996029,4.0,1.0,phase_1,,,,,,,,,,,,,orange,hexagon
118.0,2.0,1.0,0.0,1.0,1.0,337.3629529996833,4.0,1.0,phase_1,,,,,,,,,,,,,blue,triangle
199.0,3.0,2.0,0.0,4.0,4.0,343.0498460002127,4.0,1.0,phase_1,,,,,,,,,,,,,gray,flipped triangle
0.0,5.0,0.0,1.0,4.0,4.0,316.9402089997675,4.0,1.0,phase_1,,,,,,,,,,,,,yellow,diamond
103.0,2.0,1.0,0.0,2.0,2.0,316.8012639998778,4.0,1.0,phase_1,,,,,,,,,,,,,blue,triangle
116.0,6.0,1.0,1.0,4.0,4.0,372.0284949995402,4.0,1.0,phase_1,,,,,,,,,,,,,green,cross
124.0,6.0,1.0,1.0,3.0,3.0,312.4856019994695,4.0,1.0,phase_1,,,,,,,,,,,,,green,cross
49.0,1.0,0.5,0.0,1.0,1.0,353.005526000743,4.0,1.0,phase_1,,,,,,,,,,,,,magenta,I
63.0,1.0,0.5,0.0,4.0,4.0,423.544476000643,4.0,1.0,phase_1,,,,,,,,,,,,,magenta,I
216.0,7.0,2.0,1.0,1.0,1.0,380.4656669999531,4.0,1.0,phase_1,,,,,,,,,,,,,orange,hexagon
117.0,2.0,1.0,0.0,2.0,2.0,338.5057769992272,4.0,1.0,phase_1,,,,,,,,,,,,,blue,triangle
116.0,2.0,1.0,0.0,2.0,2.0,378.1444590003957,4.0,1.0,phase_1,,,,,,,,,,,,,blue,triangle
180.0,3.0,2.0,0.0,4.0,4.0,358.2624880000367,4.0,1.0,phase_1,,,,,,,,,,,,,gray,flipped triangle
112.0,2.0,1.0,0.0,3.0,3.0,324.2362669998329,4.0,1.0,phase_1,,,,,,,,,,,,,blue,triangle
393.0,4.0,4.0,0.0,3.0,3.0,486.0136549996241,4.0,1.0,phase_1,,,,,,,,,,,,,cyan,square
94.0,2.0,1.0,0.0,4.0,4.0,342.1652859997266,4.0,1.0,phase_1,,,,,,,,,,,,,blue,triangle
0.0,4.0,0.0,0.0,4.0,4.0,335.2410679999593,4.0,1.0,phase_1,,,,,,,,,,,,,cyan,square
416.0,8.0,4.0,1.0,2.0,2.0,337.1652929999982,4.0,1.0,phase_1,,,,,,,,,,,,,white,circle
78.0,2.0,1.0,0.0,2.0,2.0,333.1754310001997,4.0,1.0,phase_1,,,,,,,,,,,,,blue,triangle
417.0,4.0,4.0,0.0,1.0,1.0,341.478470999391,4.0,1.0,phase_1,,,,,,,,,,,,,cyan,square
0.0,6.0,0.0,1.0,1.0,1.0,363.4824190003201,4.0,1.0,phase_1,,,,,,,,,,,,,green,cross
73.0,1.0,0.5,0.0,3.0,3.0,392.1356049995665,4.0,1.0,phase_1,,,,,,,,,,,,,magenta,I
183.0,7.0,2.0,1.0,3.0,3.0,349.290175000533,4.0,1.0,phase_1,,,,,,,,,,,,,orange,hexagon
0.0,1.0,0.0,0.0,2.0,2.0,377.5481230004516,4.0,1.0,phase_1,,,,,,,,,,,,,magenta,I
95.0,6.0,1.0,1.0,1.0,1.0,374.0752639996572,4.0,1.0,phase_1,,,,,,,,,,,,,green,cross
77.0,6.0,1.0,1.0,1.0,1.0,335.9702670004481,4.0,1.0,phase_1,,,,,,,,,,,,,green,cross
0.0,1.0,0.0,0.0,4.0,4.0,319.1809039999498,4.0,1.0,phase_1,,,,,,,,,,,,,magenta,I
0.0,5.0,0.0,1.0,2.0,2.0,294.8855490003552,4.0,1.0,phase_1,,,,,,,,,,,,,yellow,diamond
379.0,8.0,4.0,1.0,1.0,1.0,301.1882109994985,4.0,1.0,phase_1,,,,,,,,,,,,,white,circle
379.0,8.0,4.0,1.0,1.0,1.0,350.1946710002812,4.0,1.0,phase_1,,,,,,,,,,,,,white,circle
379.0,4.0,4.0,0.0,3.0,3.0,325.3008149995366,4.0,1.0,phase_1,,,,,,,,,,,,,cyan,square
211.0,7.0,2.0,1.0,1.0,1.0,348.6405959993135,4.0,1.0,phase_1,,,,,,,,,,,,,orange,hexagon
423.0,4.0,4.0,0.0,4.0,4.0,358.6652410003808,4.0,1.0,phase_1,,,,,,,,,,,,,cyan,square
0.0,7.0,2.0,1.0,6.0,0.0,0.0,1.0,1.0,phase_2,stop,250.0,250.0,4.0,,,,,,,,,orange,hexagon
0.0,1.0,0.5,0.0,6.0,6.0,772.7848909999011,1.0,1.0,phase_2,go,250.0,300.0,1.0,,,,,,,,,magenta,I
0.0,7.0,2.0,1.0,5.0,0.0,0.0,1.0,1.0,phase_2,stop,250.0,300.0,4.0,,,,,,,,,orange,hexagon
0.0,3.0,2.0,0.0,5.0,5.0,836.0288019994186,1.0,1.0,phase_2,go,300.0,300.0,1.0,,,,,,,,,gray,flipped triangle
0.0,4.0,4.0,0.0,6.0,6.0,812.0348409993312,1.0,1.0,phase_2,go,300.0,300.0,1.0,,,,,,,,,cyan,square
0.0,6.0,1.0,1.0,6.0,0.0,0.0,1.0,1.0,phase_2,stop,300.0,300.0,4.0,,,,,,,,,green,cross
0.0,7.0,2.0,1.0,6.0,6.0,674.3299780000598,1.0,1.0,phase_2,go,300.0,350.0,1.0,,,,,,,,,orange,hexagon
0.0,1.0,0.5,0.0,5.0,5.0,888.0853450000359,1.0,1.0,phase_2,go,300.0,350.0,1.0,,,,,,,,,magenta,I
0.0,3.0,2.0,0.0,6.0,6.0,791.5157549996366,1.0,1.0,phase_2,go,300.0,350.0,1.0,,,,,,,,,gray,flipped triangle
0.0,6.0,1.0,1.0,5.0,0.0,0.0,1.0,1.0,phase_2,stop,300.0,350.0,4.0,,,,,,,,,green,cross
0.0,8.0,4.0,1.0,5.0,5.0,806.7205429997557,1.0,1.0,phase_2,go,350.0,350.0,1.0,,,,,,,,,white,circle
0.0,7.0,2.0,1.0,6.0,0.0,0.0,1.0,1.0,phase_2,stop,350.0,350.0,4.0,,,,,,,,,orange,hexagon
0.0,1.0,0.5,0.0,5.0,5.0,1009.35877899974,1.0,1.0,phase_2,go,350.0,400.0,1.0,,,,,,,,,magenta,I
0.0,8.0,4.0,1.0,6.0,0.0,0.0,1.0,1.0,phase_2,stop,350.0,400.0,4.0,,,,,,,,,white,circle
0.0,7.0,2.0,1.0,6.0,0.0,0.0,1.0,1.0,phase_2,stop,350.0,450.0,4.0,,,,,,,,,orange,hexagon
0.0,5.0,0.5,1.0,5.0,0.0,0.0,1.0,1.0,phase_2,stop,350.0,500.0,4.0,,,,,,,,,yellow,diamond
0.0,8.0,4.0,1.0,5.0,5.0,943.686630999764,1.0,1.0,phase_2,go,400.0,500.0,1.0,,,,,,,,,white,circle
0.0,4.0,4.0,0.0,5.0,5.0,880.4885710005692,1.0,1.0,phase_2,go,400.0,500.0,1.0,,,,,,,,,cyan,square
0.0,3.0,2.0,0.0,6.0,6.0,953.8499880000018,1.0,1.0,phase_2,go,400.0,500.0,1.0,,,,,,,,,gray,flipped triangle
0.0,7.0,2.0,1.0,5.0,5.0,1014.8701870002697,1.0,1.0,phase_2,go,400.0,500.0,1.0,,,,,,,,,orange,hexagon
0.0,8.0,4.0,1.0,6.0,0.0,0.0,1.0,1.0,phase_2,stop,400.0,500.0,4.0,,,,,,,,,white,circle
0.0,8.0,4.0,1.0,5.0,0.0,0.0,1.0,1.0,phase_2,stop,400.0,550.0,4.0,,,,,,,,,white,circle
0.0,7.0,2.0,1.0,5.0,0.0,0.0,1.0,1.0,phase_2,stop,450.0,550.0,4.0,,,,,,,,,orange,hexagon
0.0,2.0,1.0,0.0,6.0,6.0,852.7264349995676,1.0,1.0,phase_2,go,500.0,550.0,1.0,,,,,,,,,blue,triangle
0.0,6.0,1.0,1.0,6.0,0.0,0.0,1.0,1.0,phase_2,stop,500.0,550.0,4.0,,,,,,,,,green,cross
0.0,1.0,0.5,0.0,5.0,5.0,986.5478179999628,1.0,1.0,phase_2,go,500.0,600.0,1.0,,,,,,,,,magenta,I
0.0,4.0,4.0,0.0,5.0,5.0,1126.797737999368,1.0,1.0,phase_2,go,500.0,600.0,1.0,,,,,,,,,cyan,square
0.0,1.0,0.5,0.0,6.0,6.0,952.5117560006038,1.0,1.0,phase_2,go,500.0,600.0,1.0,,,,,,,,,magenta,I
0.0,1.0,0.5,0.0,6.0,6.0,1224.4234609997875,1.0,1.0,phase_2,go,500.0,600.0,1.0,,,,,,,,,magenta,I
0.0,4.0,4.0,0.0,6.0,6.0,1036.989891000303,1.0,1.0,phase_2,go,500.0,600.0,1.0,,,,,,,,,cyan,square
0.0,1.0,0.5,0.0,5.0,5.0,913.2365340001344,1.0,1.0,phase_2,go,500.0,600.0,1.0,,,,,,,,,magenta,I
0.0,3.0,2.0,0.0,6.0,6.0,961.1107430000628,1.0,1.0,phase_2,go,500.0,600.0,1.0,,,,,,,,,gray,flipped triangle
0.0,7.0,2.0,1.0,5.0,5.0,995.7745000001524,1.0,1.0,phase_2,go,500.0,600.0,1.0,,,,,,,,,orange,hexagon
0.0,8.0,4.0,1.0,5.0,0.0,0.0,1.0,1.0,phase_2,stop,500.0,600.0,4.0,,,,,,,,,white,circle
0.0,5.0,0.5,1.0,6.0,0.0,0.0,1.0,1.0,phase_2,stop,550.0,600.0,4.0,,,,,,,,,yellow,diamond
0.0,1.0,0.5,0.0,6.0,6.0,855.1790829997117,1.0,1.0,phase_2,go,550.0,650.0,1.0,,,,,,,,,magenta,I
0.0,1.0,0.5,0.0,6.0,6.0,510.9455909996541,2.0,1.0,phase_2,go,550.0,650.0,1.0,,,,,,,,,magenta,I
0.0,6.0,1.0,1.0,5.0,5.0,470.6114500004332,2.0,1.0,phase_2,go,550.0,650.0,1.0,,,,,,,,,green,cross
0.0,4.0,4.0,0.0,5.0,5.0,358.1698729994969,2.0,1.0,phase_2,go,550.0,650.0,1.0,,,,,,,,,cyan,square
0.0,7.0,2.0,1.0,6.0,6.0,569.3905909993191,2.0,1.0,phase_2,stop,550.0,650.0,3.0,,,,,,,,,orange,hexagon
0.0,2.0,1.0,0.0,6.0,6.0,619.8358550000194,2.0,1.0,phase_2,go,550.0,600.0,1.0,,,,,,,,,blue,triangle
0.0,2.0,1.0,0.0,5.0,5.0,490.6926359999488,2.0,1.0,phase_2,go,550.0,600.0,1.0,,,,,,,,,blue,triangle
0.0,3.0,2.0,0.0,6.0,6.0,354.8894230007136,2.0,1.0,phase_2,go,550.0,600.0,1.0,,,,,,,,,gray,flipped triangle
0.0,8.0,4.0,1.0,5.0,5.0,419.9645649996455,2.0,1.0,phase_2,stop,550.0,600.0,3.0,,,,,,,,,white,circle
0.0,5.0,0.5,1.0,5.0,0.0,0.0,2.0,1.0,phase_2,stop,500.0,600.0,4.0,,,,,,,,,yellow,diamond
0.0,4.0,4.0,0.0,5.0,5.0,641.2622569996529,2.0,1.0,phase_2,go,550.0,600.0,1.0,,,,,,,,,cyan,square
0.0,3.0,2.0,0.0,6.0,6.0,407.2489700001824,2.0,1.0,phase_2,go,550.0,600.0,1.0,,,,,,,,,gray,flipped triangle
0.0,8.0,4.0,1.0,6.0,6.0,638.7822950000555,2.0,1.0,phase_2,stop,550.0,600.0,3.0,,,,,,,,,white,circle
0.0,8.0,4.0,1.0,5.0,5.0,698.1831410002997,2.0,1.0,phase_2,go,550.0,550.0,1.0,,,,,,,,,white,circle
0.0,6.0,1.0,1.0,6.0,6.0,480.8035179994476,2.0,1.0,phase_2,stop,550.0,550.0,3.0,,,,,,,,,green,cross
0.0,2.0,1.0,0.0,5.0,5.0,574.575397999979,2.0,1.0,phase_2,go,550.0,500.0,1.0,,,,,,,,,blue,triangle
0.0,2.0,1.0,0.0,6.0,6.0,435.08404400017747,2.0,1.0,phase_2,go,550.0,500.0,1.0,,,,,,,,,blue,triangle
0.0,6.0,1.0,1.0,5.0,5.0,472.0765150004808,2.0,1.0,phase_2,stop,550.0,500.0,3.0,,,,,,,,,green,cross
0.0,5.0,0.5,1.0,6.0,6.0,638.4334829999716,2.0,1.0,phase_2,go,500.0,500.0,1.0,,,,,,,,,yellow,diamond
0.0,5.0,0.5,1.0,6.0,6.0,584.4468639998013,2.0,1.0,phase_2,go,500.0,500.0,1.0,,,,,,,,,yellow,diamond
0.0,5.0,0.5,1.0,6.0,6.0,643.0789470005038,2.0,1.0,phase_2,stop,500.0,500.0,3.0,,,,,,,,,yellow,diamond
0.0,2.0,1.0,0.0,5.0,5.0,713.0841899997904,2.0,1.0,phase_2,go,500.0,450.0,1.0,,,,,,,,,blue,triangle
0.0,5.0,0.5,1.0,5.0,0.0,0.0,2.0,1.0,phase_2,stop,500.0,450.0,4.0,,,,,,,,,yellow,diamond
0.0,7.0,2.0,1.0,6.0,0.0,0.0,2.0,1.0,phase_2,stop,550.0,450.0,4.0,,,,,,,,,orange,hexagon
0.0,8.0,4.0,1.0,6.0,0.0,0.0,2.0,1.0,phase_2,stop,550.0,500.0,4.0,,,,,,,,,white,circle
0.0,4.0,4.0,0.0,6.0,6.0,882.1014659997672,2.0,1.0,phase_2,go,550.0,550.0,1.0,,,,,,,,,cyan,square
0.0,2.0,1.0,0.0,5.0,5.0,793.5650580002402,2.0,1.0,phase_2,go,550.0,550.0,1.0,,,,,,,,,blue,triangle
0.0,1.0,0.5,0.0,5.0,5.0,811.6470539998772,2.0,1.0,phase_2,go,550.0,550.0,1.0,,,,,,,,,magenta,I
0.0,1.0,0.5,0.0,6.0,6.0,743.5667910003758,2.0,1.0,phase_2,go,550.0,550.0,1.0,,,,,,,,,magenta,I
0.0,6.0,1.0,1.0,5.0,0.0,0.0,2.0,1.0,phase_2,stop,550.0,550.0,4.0,,,,,,,,,green,cross
0.0,7.0,2.0,1.0,5.0,0.0,0.0,2.0,1.0,phase_2,stop,600.0,550.0,4.0,,,,,,,,,orange,hexagon
0.0,7.0,2.0,1.0,6.0,6.0,507.45824800014816,2.0,1.0,phase_2,stop,650.0,550.0,3.0,,,,,,,,,orange,hexagon
0.0,3.0,2.0,0.0,6.0,6.0,955.3955709998264,2.0,1.0,phase_2,go,650.0,500.0,1.0,,,,,,,,,gray,flipped triangle
0.0,5.0,0.5,1.0,5.0,0.0,0.0,2.0,1.0,phase_2,stop,650.0,500.0,4.0,,,,,,,,,yellow,diamond
0.0,6.0,1.0,1.0,5.0,0.0,0.0,2.0,1.0,phase_2,stop,700.0,500.0,4.0,,,,,,,,,green,cross
0.0,6.0,1.0,1.0,6.0,0.0,0.0,2.0,1.0,phase_2,stop,750.0,500.0,4.0,,,,,,,,,green,cross
0.0,4.0,4.0,0.0,5.0,5.0,859.7105729995747,2.0,1.0,phase_2,go,750.0,550.0,1.0,,,,,,,,,cyan,square
0.0,7.0,2.0,1.0,6.0,6.0,722.2957530002532,3.0,1.0,phase_2,go,750.0,550.0,1.0,,,,,,,,,orange,hexagon
0.0,8.0,4.0,1.0,5.0,5.0,643.4627680000631,3.0,1.0,phase_2,stop,750.0,550.0,3.0,,,,,,,,,white,circle
0.0,1.0,0.5,0.0,5.0,5.0,689.1252250006801,3.0,1.0,phase_2,go,700.0,550.0,1.0,,,,,,,,,magenta,I
0.0,7.0,2.0,1.0,6.0,6.0,723.2320949997302,3.0,1.0,phase_2,stop,700.0,550.0,3.0,,,,,,,,,orange,hexagon
0.0,8.0,4.0,1.0,5.0,5.0,735.9675190000416,3.0,1.0,phase_2,go,700.0,500.0,1.0,,,,,,,,,white,circle
0.0,5.0,0.5,1.0,5.0,5.0,686.4764649999415,3.0,1.0,phase_2,go,700.0,500.0,1.0,,,,,,,,,yellow,diamond
0.0,5.0,0.5,1.0,5.0,5.0,640.7413239994639,3.0,1.0,phase_2,stop,700.0,500.0,3.0,,,,,,,,,yellow,diamond
0.0,1.0,0.5,0.0,6.0,6.0,448.7030189993675,3.0,1.0,phase_2,go,650.0,500.0,1.0,,,,,,,,,magenta,I
0.0,5.0,0.5,1.0,6.0,6.0,665.3968110003916,3.0,1.0,phase_2,stop,650.0,500.0,3.0,,,,,,,,,yellow,diamond
0.0,1.0,0.5,0.0,6.0,6.0,844.0377220003938,3.0,1.0,phase_2,go,650.0,450.0,1.0,,,,,,,,,magenta,I
0.0,8.0,4.0,1.0,5.0,5.0,724.6186130005299,3.0,1.0,phase_2,stop,650.0,450.0,3.0,,,,,,,,,white,circle
0.0,6.0,1.0,1.0,5.0,0.0,0.0,3.0,1.0,phase_2,stop,600.0,450.0,4.0,,,,,,,,,green,cross
0.0,5.0,0.5,1.0,5.0,0.0,0.0,3.0,1.0,phase_2,stop,650.0,450.0,4.0,,,,,,,,,yellow,diamond
0.0,3.0,2.0,0.0,5.0,5.0,1001.1078990000897,3.0,1.0,phase_2,go,700.0,450.0,1.0,,,,,,,,,gray,flipped triangle
0.0,1.0,0.5,0.0,6.0,6.0,771.4884360002543,3.0,1.0,phase_2,go,700.0,450.0,1.0,,,,,,,,,magenta,I
0.0,3.0,2.0,0.0,6.0,6.0,778.742763000082,3.0,1.0,phase_2,go,700.0,450.0,1.0,,,,,,,,,gray,flipped triangle
0.0,4.0,4.0,0.0,5.0,5.0,938.8351159996092,3.0,1.0,phase_2,go,700.0,450.0,1.0,,,,,,,,,cyan,square
0.0,3.0,2.0,0.0,6.0,6.0,730.9260840002025,3.0,1.0,phase_2,go,700.0,450.0,1.0,,,,,,,,,gray,flipped triangle
0.0,1.0,0.5,0.0,5.0,5.0,788.2491339996704,3.0,1.0,phase_2,go,700.0,450.0,1.0,,,,,,,,,magenta,I
0.0,7.0,2.0,1.0,6.0,0.0,0.0,3.0,1.0,phase_2,stop,700.0,450.0,4.0,,,,,,,,,orange,hexagon
0.0,1.0,0.5,0.0,6.0,6.0,849.0412030005245,3.0,1.0,phase_2,go,700.0,500.0,1.0,,,,,,,,,magenta,I
0.0,2.0,1.0,0.0,5.0,5.0,852.7437349994216,3.0,1.0,phase_2,go,700.0,500.0,1.0,,,,,,,,,blue,triangle
0.0,2.0,1.0,0.0,5.0,5.0,948.8229219996356,3.0,1.0,phase_2,go,700.0,500.0,1.0,,,,,,,,,blue,triangle
0.0,8.0,4.0,1.0,5.0,5.0,840.016108000782,3.0,1.0,phase_2,go,700.0,500.0,1.0,,,,,,,,,white,circle
0.0,7.0,2.0,1.0,5.0,5.0,800.649269999667,3.0,1.0,phase_2,stop,700.0,500.0,3.0,,,,,,,,,orange,hexagon
0.0,7.0,2.0,1.0,6.0,6.0,902.4469750002028,3.0,1.0,phase_2,go,650.0,500.0,1.0,,,,,,,,,orange,hexagon
0.0,8.0,4.0,1.0,5.0,5.0,777.2786400000768,3.0,1.0,phase_2,stop,650.0,500.0,3.0,,,,,,,,,white,circle
0.0,5.0,0.5,1.0,5.0,0.0,0.0,3.0,1.0,phase_2,stop,600.0,500.0,4.0,,,,,,,,,yellow,diamond
0.0,4.0,4.0,0.0,5.0,5.0,890.8801150000727,3.0,1.0,phase_2,go,650.0,500.0,1.0,,,,,,,,,cyan,square
0.0,1.0,0.5,0.0,6.0,6.0,639.0199139996184,3.0,1.0,phase_2,go,650.0,500.0,1.0,,,,,,,,,magenta,I
0.0,1.0,0.5,0.0,6.0,6.0,552.3197319998872,3.0,1.0,phase_2,go,650.0,500.0,1.0,,,,,,,,,magenta,I
0.0,2.0,1.0,0.0,5.0,5.0,694.3922379996366,3.0,1.0,phase_2,go,650.0,500.0,1.0,,,,,,,,,blue,triangle
0.0,7.0,2.0,1.0,6.0,6.0,541.446330999861,3.0,1.0,phase_2,stop,650.0,500.0,3.0,,,,,,,,,orange,hexagon
0.0,4.0,4.0,0.0,5.0,5.0,520.5831500006752,3.0,1.0,phase_2,go,650.0,450.0,1.0,,,,,,,,,cyan,square
0.0,3.0,2.0,0.0,5.0,5.0,716.2281050004822,3.0,1.0,phase_2,go,650.0,450.0,1.0,,,,,,,,,gray,flipped triangle
0.0,2.0,1.0,0.0,5.0,5.0,377.40707000011747,3.0,1.0,phase_2,go,650.0,450.0,1.0,,,,,,,,,blue,triangle
0.0,5.0,0.5,1.0,5.0,5.0,452.0118670006923,4.0,1.0,phase_2,stop,650.0,450.0,3.0,,,,,,,,,yellow,diamond
0.0,8.0,4.0,1.0,6.0,6.0,607.6438610007244,4.0,1.0,phase_2,stop,600.0,450.0,3.0,,,,,,,,,white,circle
0.0,3.0,2.0,0.0,5.0,5.0,528.8186819998373,4.0,1.0,phase_2,go,600.0,400.0,1.0,,,,,,,,,gray,flipped triangle
0.0,5.0,0.5,1.0,5.0,5.0,546.3387500003591,4.0,1.0,phase_2,go,600.0,400.0,1.0,,,,,,,,,yellow,diamond
0.0,2.0,1.0,0.0,6.0,6.0,460.6445690005785,4.0,1.0,phase_2,go,600.0,400.0,1.0,,,,,,,,,blue,triangle
0.0,3.0,2.0,0.0,5.0,5.0,471.4017939995756,4.0,1.0,phase_2,go,600.0,400.0,1.0,,,,,,,,,gray,flipped triangle
0.0,4.0,4.0,0.0,6.0,6.0,447.6795780001339,4.0,1.0,phase_2,go,600.0,400.0,1.0,,,,,,,,,cyan,square
0.0,8.0,4.0,1.0,6.0,6.0,510.3026160004447,4.0,1.0,phase_2,stop,600.0,400.0,3.0,,,,,,,,,white,circle
0.0,7.0,2.0,1.0,5.0,5.0,540.441259000545,4.0,1.0,phase_2,stop,600.0,350.0,3.0,,,,,,,,,orange,hexagon
0.0,7.0,2.0,1.0,5.0,5.0,392.032712999935,4.0,1.0,phase_2,stop,550.0,350.0,3.0,,,,,,,,,orange,hexagon
0.0,2.0,1.0,0.0,6.0,6.0,555.2512470003421,4.0,1.0,phase_2,go,500.0,350.0,1.0,,,,,,,,,blue,triangle
0.0,3.0,2.0,0.0,6.0,6.0,394.0519810003025,4.0,1.0,phase_2,go,500.0,350.0,1.0,,,,,,,,,gray,flipped triangle
0.0,7.0,2.0,1.0,6.0,6.0,279.5357790000707,4.0,1.0,phase_2,stop,500.0,350.0,3.0,,,,,,,,,orange,hexagon
0.0,4.0,4.0,0.0,5.0,5.0,327.1220430005996,4.0,1.0,phase_2,go,500.0,300.0,1.0,,,,,,,,,cyan,square
0.0,4.0,4.0,0.0,6.0,6.0,257.6831110000057,4.0,1.0,phase_2,go,500.0,300.0,1.0,,,,,,,,,cyan,square
0.0,8.0,4.0,1.0,5.0,5.0,282.5736389995654,4.0,1.0,phase_2,stop,500.0,300.0,3.0,,,,,,,,,white,circle
0.0,1.0,0.5,0.0,6.0,6.0,200.2750569999989,4.0,1.0,phase_2,go,450.0,300.0,1.0,,,,,,,,,magenta,I
0.0,2.0,1.0,0.0,5.0,5.0,334.0966180003306,4.0,1.0,phase_2,go,450.0,300.0,1.0,,,,,,,,,blue,triangle
0.0,6.0,1.0,1.0,6.0,6.0,213.7752139997246,4.0,1.0,phase_2,stop,450.0,300.0,3.0,,,,,,,,,green,cross
0.0,8.0,4.0,1.0,5.0,5.0,240.5160059997797,4.0,1.0,phase_2,stop,450.0,250.0,3.0,,,,,,,,,white,circle
0.0,4.0,4.0,0.0,6.0,6.0,243.4191449992795,4.0,1.0,phase_2,go,400.0,250.0,1.0,,,,,,,,,cyan,square
0.0,3.0,2.0,0.0,6.0,6.0,344.5855059999303,4.0,1.0,phase_2,go,400.0,250.0,1.0,,,,,,,,,gray,flipped triangle
0.0,7.0,2.0,1.0,5.0,5.0,294.7211310001876,4.0,1.0,phase_2,stop,400.0,250.0,3.0,,,,,,,,,orange,hexagon
0.0,8.0,4.0,1.0,6.0,6.0,294.01731999951147,4.0,1.0,phase_2,stop,350.0,250.0,3.0,,,,,,,,,white,circle
0.0,7.0,2.0,1.0,5.0,5.0,295.3382409996266,4.0,1.0,phase_2,stop,350.0,200.0,3.0,,,,,,,,,orange,hexagon
0.0,1.0,0.5,0.0,5.0,5.0,357.182348000606,4.0,1.0,phase_2,go,300.0,200.0,1.0,,,,,,,,,magenta,I
0.0,6.0,1.0,1.0,5.0,5.0,341.0060070000327,4.0,1.0,phase_2,stop,300.0,200.0,3.0,,,,,,,,,green,cross
0.0,5.0,0.5,1.0,5.0,5.0,338.2538830001067,4.0,1.0,phase_2,stop,250.0,200.0,3.0,,,,,,,,,yellow,diamond
0.0,8.0,4.0,1.0,6.0,0.0,0.0,4.0,1.0,phase_2,stop,200.0,200.0,4.0,,,,,,,,,white,circle
0.0,2.0,1.0,0.0,5.0,5.0,341.196764000415,4.0,1.0,phase_2,go,200.0,250.0,1.0,,,,,,,,,blue,triangle
0.0,3.0,2.0,0.0,5.0,5.0,326.6921590002312,4.0,1.0,phase_2,go,200.0,250.0,1.0,,,,,,,,,gray,flipped triangle
0.0,2.0,1.0,0.0,6.0,6.0,368.7379190005231,4.0,1.0,phase_2,go,200.0,250.0,1.0,,,,,,,,,blue,triangle
0.0,4.0,4.0,0.0,6.0,6.0,432.7050789997884,4.0,1.0,phase_2,go,200.0,250.0,1.0,,,,,,,,,cyan,square
0.0,6.0,1.0,1.0,5.0,0.0,0.0,4.0,1.0,phase_2,stop,200.0,250.0,4.0,,,,,,,,,green,cross
0.0,1.0,0.5,0.0,5.0,5.0,457.4846139994406,4.0,1.0,phase_2,go,250.0,250.0,1.0,,,,,,,,,magenta,I
0.0,1.0,0.5,0.0,5.0,5.0,598.6491610001394,4.0,1.0,phase_2,go,250.0,250.0,1.0,,,,,,,,,magenta,I
0.0,5.0,0.5,1.0,5.0,5.0,337.5065660002292,5.0,1.0,phase_2,stop,250.0,250.0,3.0,,,,,,,,,yellow,diamond
0.0,8.0,4.0,1.0,6.0,6.0,221.8303749996266,5.0,1.0,phase_2,stop,200.0,250.0,3.0,,,,,,,,,white,circle
0.0,6.0,1.0,1.0,6.0,6.0,249.2657279999548,5.0,1.0,phase_2,stop,200.0,200.0,3.0,,,,,,,,,green,cross
0.0,3.0,2.0,0.0,6.0,6.0,343.1762850004816,5.0,1.0,phase_2,go,200.0,150.0,1.0,,,,,,,,,gray,flipped triangle
0.0,5.0,0.5,1.0,5.0,5.0,239.3290820000402,5.0,1.0,phase_2,stop,200.0,150.0,3.0,,,,,,,,,yellow,diamond
0.0,3.0,2.0,0.0,5.0,5.0,319.3533269995896,5.0,1.0,phase_2,go,150.0,150.0,1.0,,,,,,,,,gray,flipped triangle
0.0,6.0,1.0,1.0,5.0,5.0,323.6959719997685,5.0,1.0,phase_2,stop,150.0,150.0,3.0,,,,,,,,,green,cross
0.0,4.0,4.0,0.0,5.0,5.0,315.5850470002406,5.0,1.0,phase_2,go,100.0,150.0,1.0,,,,,,,,,cyan,square
0.0,4.0,4.0,0.0,5.0,5.0,342.7973899997596,5.0,1.0,phase_2,go,100.0,150.0,1.0,,,,,,,,,cyan,square
0.0,8.0,4.0,1.0,6.0,6.0,266.4594020006916,5.0,1.0,phase_2,stop,100.0,150.0,3.0,,,,,,,,,white,circle
0.0,1.0,0.5,0.0,5.0,5.0,401.1089200002971,5.0,1.0,phase_2,go,100.0,100.0,1.0,,,,,,,,,magenta,I
0.0,8.0,4.0,1.0,6.0,6.0,282.4352519992317,5.0,1.0,phase_2,go,100.0,100.0,1.0,,,,,,,,,white,circle
0.0,2.0,1.0,0.0,5.0,5.0,307.2177989997726,5.0,1.0,phase_2,go,100.0,100.0,1.0,,,,,,,,,blue,triangle
0.0,3.0,2.0,0.0,5.0,5.0,342.8837040000871,5.0,1.0,phase_2,go,100.0,100.0,1.0,,,,,,,,,gray,flipped triangle
0.0,2.0,1.0,0.0,5.0,5.0,309.4194040004367,5.0,1.0,phase_2,go,100.0,100.0,1.0,,,,,,,,,blue,triangle
0.0,8.0,4.0,1.0,5.0,5.0,353.9795589995265,5.0,1.0,phase_2,go,100.0,100.0,1.0,,,,,,,,,white,circle
0.0,5.0,0.5,1.0,6.0,0.0,0.0,5.0,1.0,phase_2,stop,100.0,100.0,4.0,,,,,,,,,yellow,diamond
0.0,5.0,0.5,1.0,6.0,0.0,0.0,5.0,1.0,phase_2,stop,100.0,150.0,4.0,,,,,,,,,yellow,diamond
0.0,2.0,1.0,0.0,6.0,6.0,315.0044989997695,5.0,1.0,phase_2,go,100.0,200.0,1.0,,,,,,,,,blue,triangle
0.0,6.0,1.0,1.0,5.0,5.0,352.3305810003876,5.0,1.0,phase_2,go,100.0,200.0,1.0,,,,,,,,,green,cross
0.0,6.0,1.0,1.0,5.0,0.0,0.0,5.0,1.0,phase_2,stop,100.0,200.0,4.0,,,,,,,,,green,cross
0.0,5.0,0.5,1.0,6.0,6.0,339.9520279999706,5.0,1.0,phase_2,stop,150.0,200.0,3.0,,,,,,,,,yellow,diamond
0.0,6.0,1.0,1.0,5.0,5.0,588.0238649997409,5.0,1.0,phase_2,go,150.0,150.0,1.0,,,,,,,,,green,cross
0.0,5.0,0.5,1.0,5.0,5.0,570.4392030002055,5.0,1.0,phase_2,go,150.0,150.0,1.0,,,,,,,,,yellow,diamond
0.0,6.0,1.0,1.0,5.0,5.0,681.1116419994505,5.0,1.0,phase_2,go,150.0,150.0,1.0,,,,,,,,,green,cross
0.0,3.0,2.0,0.0,5.0,5.0,692.7147320002405,5.0,1.0,phase_2,go,150.0,150.0,1.0,,,,,,,,,gray,flipped triangle
0.0,4.0,4.0,0.0,6.0,6.0,516.411870000411,5.0,1.0,phase_2,go,150.0,150.0,1.0,,,,,,,,,cyan,square
0.0,7.0,2.0,1.0,5.0,0.0,0.0,5.0,1.0,phase_2,stop,150.0,150.0,4.0,,,,,,,,,orange,hexagon
0.0,4.0,4.0,0.0,6.0,6.0,336.5672649997577,5.0,1.0,phase_2,go,200.0,150.0,1.0,,,,,,,,,cyan,square
0.0,4.0,4.0,0.0,5.0,5.0,445.7909450002262,5.0,1.0,phase_2,go,200.0,150.0,1.0,,,,,,,,,cyan,square
0.0,4.0,4.0,0.0,5.0,5.0,410.1700880000862,5.0,1.0,phase_2,go,200.0,150.0,1.0,,,,,,,,,cyan,square
0.0,5.0,0.5,1.0,6.0,0.0,0.0,5.0,1.0,phase_2,stop,200.0,150.0,4.0,,,,,,,,,yellow,diamond
0.0,6.0,1.0,1.0,5.0,0.0,0.0,5.0,1.0,phase_2,stop,200.0,200.0,4.0,,,,,,,,,green,cross
0.0,4.0,4.0,0.0,5.0,5.0,623.7124899998889,5.0,1.0,phase_2,go,250.0,200.0,1.0,,,,,,,,,cyan,square
0.0,7.0,2.0,1.0,6.0,0.0,0.0,5.0,1.0,phase_2,stop,250.0,200.0,4.0,,,,,,,,,orange,hexagon
0.0,7.0,2.0,1.0,5.0,5.0,800.5228379997789,5.0,1.0,phase_2,go,250.0,250.0,1.0,,,,,,,,,orange,hexagon
0.0,4.0,4.0,0.0,5.0,5.0,413.3379190006963,6.0,1.0,phase_2,go,250.0,250.0,1.0,,,,,,,,,cyan,square
0.0,5.0,0.5,1.0,6.0,6.0,333.6857389995202,6.0,1.0,phase_2,go,250.0,250.0,1.0,,,,,,,,,yellow,diamond
0.0,5.0,0.5,1.0,6.0,6.0,295.3342370001337,6.0,1.0,phase_2,go,250.0,250.0,1.0,,,,,,,,,yellow,diamond
0.0,3.0,2.0,0.0,5.0,5.0,391.0681199995451,6.0,1.0,phase_2,go,250.0,250.0,1.0,,,,,,,,,gray,flipped triangle
0.0,2.0,1.0,0.0,6.0,6.0,417.0762980002109,6.0,1.0,phase_2,go,250.0,250.0,1.0,,,,,,,,,blue,triangle
0.0,1.0,0.5,0.0,5.0,5.0,320.9927010002502,6.0,1.0,phase_2,go,250.0,250.0,1.0,,,,,,,,,magenta,I
0.0,3.0,2.0,0.0,6.0,6.0,291.4022730001306,6.0,1.0,phase_2,go,250.0,250.0,1.0,,,,,,,,,gray,flipped triangle
0.0,5.0,0.5,1.0,5.0,5.0,338.6775509998188,6.0,1.0,phase_2,stop,250.0,250.0,3.0,,,,,,,,,yellow,diamond
0.0,2.0,1.0,0.0,5.0,5.0,461.6707889999816,6.0,1.0,phase_2,go,200.0,250.0,1.0,,,,,,,,,blue,triangle
0.0,2.0,1.0,0.0,5.0,5.0,505.33977299983235,6.0,1.0,phase_2,go,200.0,250.0,1.0,,,,,,,,,blue,triangle
0.0,7.0,2.0,1.0,6.0,6.0,304.5728440001767,6.0,1.0,phase_2,stop,200.0,250.0,3.0,,,,,,,,,orange,hexagon
0.0,3.0,2.0,0.0,6.0,6.0,335.1485439998214,6.0,1.0,phase_2,go,200.0,200.0,1.0,,,,,,,,,gray,flipped triangle
0.0,6.0,1.0,1.0,6.0,6.0,341.4233150006112,6.0,1.0,phase_2,stop,200.0,200.0,3.0,,,,,,,,,green,cross
0.0,4.0,4.0,0.0,6.0,6.0,620.3445720002492,6.0,1.0,phase_2,go,200.0,150.0,1.0,,,,,,,,,cyan,square
0.0,2.0,1.0,0.0,5.0,5.0,382.2189630000139,6.0,1.0,phase_2,go,200.0,150.0,1.0,,,,,,,,,blue,triangle
0.0,1.0,0.5,0.0,6.0,6.0,339.3017439993855,6.0,1.0,phase_2,go,200.0,150.0,1.0,,,,,,,,,magenta,I
0.0,3.0,2.0,0.0,5.0,5.0,366.4011219998428,6.0,1.0,phase_2,go,200.0,150.0,1.0,,,,,,,,,gray,flipped triangle
0.0,6.0,1.0,1.0,6.0,6.0,258.446787000139,6.0,1.0,phase_2,go,200.0,150.0,1.0,,,,,,,,,green,cross
0.0,8.0,4.0,1.0,6.0,6.0,315.8608989997447,6.0,1.0,phase_2,stop,200.0,150.0,3.0,,,,,,,,,white,circle
0.0,4.0,4.0,0.0,6.0,6.0,319.5219110002654,6.0,1.0,phase_2,go,200.0,100.0,1.0,,,,,,,,,cyan,square
0.0,8.0,4.0,1.0,6.0,0.0,0.0,6.0,1.0,phase_2,stop,200.0,100.0,4.0,,,,,,,,,white,circle
0.0,6.0,1.0,1.0,6.0,6.0,373.9919110003029,6.0,1.0,phase_2,go,200.0,150.0,1.0,,,,,,,,,green,cross
0.0,2.0,1.0,0.0,6.0,6.0,331.5826099997139,6.0,1.0,phase_2,go,200.0,150.0,1.0,,,,,,,,,blue,triangle
0.0,5.0,0.5,1.0,6.0,0.0,0.0,6.0,1.0,phase_2,stop,200.0,150.0,4.0,,,,,,,,,yellow,diamond
0.0,3.0,2.0,0.0,6.0,6.0,732.0924599998762,6.0,1.0,phase_2,go,200.0,200.0,1.0,,,,,,,,,gray,flipped triangle
0.0,7.0,2.0,1.0,5.0,5.0,551.2631589999728,6.0,1.0,phase_2,go,200.0,200.0,1.0,,,,,,,,,orange,hexagon
0.0,4.0,4.0,0.0,5.0,5.0,645.682276000116,6.0,1.0,phase_2,go,200.0,200.0,1.0,,,,,,,,,cyan,square
0.0,6.0,1.0,1.0,5.0,0.0,0.0,6.0,1.0,phase_2,stop,200.0,200.0,4.0,,,,,,,,,green,cross
0.0,3.0,2.0,0.0,5.0,5.0,596.883053000056,6.0,1.0,phase_2,go,250.0,200.0,1.0,,,,,,,,,gray,flipped triangle
0.0,6.0,1.0,1.0,6.0,6.0,344.5035969998571,6.0,1.0,phase_2,go,250.0,200.0,1.0,,,,,,,,,green,cross
0.0,7.0,2.0,1.0,6.0,6.0,619.8918559994127,6.0,1.0,phase_2,stop,250.0,200.0,3.0,,,,,,,,,orange,hexagon
0.0,3.0,2.0,0.0,6.0,6.0,594.429644000229,6.0,1.0,phase_2,go,250.0,150.0,1.0,,,,,,,,,gray,flipped triangle
0.0,6.0,1.0,1.0,5.0,0.0,0.0,6.0,1.0,phase_2,stop,250.0,150.0,4.0,,,,,,,,,green,cross
0.0,7.0,2.0,1.0,6.0,6.0,273.86042299986,6.0,1.0,phase_2,stop,300.0,150.0,3.0,,,,,,,,,orange,hexagon
0.0,3.0,2.0,0.0,6.0,6.0,467.2091109996472,6.0,1.0,phase_2,go,300.0,100.0,1.0,,,,,,,,,gray,flipped triangle
0.0,2.0,1.0,0.0,5.0,5.0,267.0411640001475,6.0,1.0,phase_2,go,300.0,100.0,1.0,,,,,,,,,blue,triangle
0.0,8.0,4.0,1.0,6.0,6.0,340.2684000002409,7.0,1.0,phase_2,stop,300.0,100.0,3.0,,,,,,,,,white,circle
0.0,3.0,2.0,0.0,5.0,5.0,300.0324720005665,7.0,1.0,phase_2,go,300.0,50.0,1.0,,,,,,,,,gray,flipped triangle
0.0,1.0,0.5,0.0,5.0,5.0,345.4232260000935,7.0,1.0,phase_2,go,300.0,50.0,1.0,,,,,,,,,magenta,I
0.0,5.0,0.5,1.0,6.0,0.0,0.0,7.0,1.0,phase_2,stop,300.0,50.0,4.0,,,,,,,,,yellow,diamond
0.0,5.0,0.5,1.0,6.0,0.0,0.0,7.0,1.0,phase_2,stop,300.0,100.0,4.0,,,,,,,,,yellow,diamond
0.0,6.0,1.0,1.0,6.0,6.0,334.3606309999813,7.0,1.0,phase_2,go,300.0,150.0,1.0,,,,,,,,,green,cross
0.0,7.0,2.0,1.0,5.0,5.0,338.2153619995733,7.0,1.0,phase_2,stop,300.0,150.0,3.0,,,,,,,,,orange,hexagon
0.0,8.0,4.0,1.0,5.0,5.0,464.0280949997759,7.0,1.0,phase_2,stop,250.0,150.0,3.0,,,,,,,,,white,circle
0.0,1.0,0.5,0.0,5.0,5.0,488.8733300003878,7.0,1.0,phase_2,go,200.0,150.0,1.0,,,,,,,,,magenta,I
0.0,1.0,0.5,0.0,5.0,5.0,451.6059219995441,7.0,1.0,phase_2,go,200.0,150.0,1.0,,,,,,,,,magenta,I
0.0,3.0,2.0,0.0,5.0,5.0,653.5246189996542,7.0,1.0,phase_2,go,200.0,150.0,1.0,,,,,,,,,gray,flipped triangle
0.0,2.0,1.0,0.0,6.0,6.0,398.0472530001862,7.0,1.0,phase_2,go,200.0,150.0,1.0,,,,,,,,,blue,triangle
0.0,4.0,4.0,0.0,6.0,6.0,357.6993349997792,7.0,1.0,phase_2,go,200.0,150.0,1.0,,,,,,,,,cyan,square
0.0,2.0,1.0,0.0,6.0,6.0,398.3861709994016,7.0,1.0,phase_2,go,200.0,150.0,1.0,,,,,,,,,blue,triangle
0.0,2.0,1.0,0.0,6.0,6.0,326.1959809997279,7.0,1.0,phase_2,go,200.0,150.0,1.0,,,,,,,,,blue,triangle
0.0,8.0,4.0,1.0,6.0,0.0,0.0,7.0,1.0,phase_2,stop,200.0,150.0,4.0,,,,,,,,,white,circle
0.0,8.0,4.0,1.0,6.0,0.0,0.0,7.0,1.0,phase_2,stop,200.0,200.0,4.0,,,,,,,,,white,circle
0.0,8.0,4.0,1.0,6.0,6.0,554.7323569999207,7.0,1.0,phase_2,go,200.0,250.0,1.0,,,,,,,,,white,circle
0.0,2.0,1.0,0.0,6.0,6.0,588.990725000258,7.0,1.0,phase_2,go,200.0,250.0,1.0,,,,,,,,,blue,triangle
0.0,7.0,2.0,1.0,5.0,0.0,0.0,7.0,1.0,phase_2,stop,200.0,250.0,4.0,,,,,,,,,orange,hexagon
0.0,5.0,0.5,1.0,5.0,5.0,500.329409999722,7.0,1.0,phase_2,go,250.0,250.0,1.0,,,,,,,,,yellow,diamond
0.0,2.0,1.0,0.0,6.0,6.0,310.3125069992529,7.0,1.0,phase_2,go,250.0,250.0,1.0,,,,,,,,,blue,triangle
0.0,4.0,4.0,0.0,6.0,6.0,553.2753339994088,7.0,1.0,phase_2,go,250.0,250.0,1.0,,,,,,,,,cyan,square
0.0,5.0,0.5,1.0,6.0,0.0,0.0,7.0,1.0,phase_2,stop,250.0,250.0,4.0,,,,,,,,,yellow,diamond
0.0,1.0,0.5,0.0,6.0,6.0,636.481632000141,7.0,1.0,phase_2,go,250.0,300.0,1.0,,,,,,,,,magenta,I
0.0,4.0,4.0,0.0,6.0,6.0,309.8277870003585,7.0,1.0,phase_2,go,250.0,300.0,1.0,,,,,,,,,cyan,square
0.0,4.0,4.0,0.0,6.0,6.0,407.752070999777,7.0,1.0,phase_2,go,250.0,300.0,1.0,,,,,,,,,cyan,square
0.0,7.0,2.0,1.0,5.0,5.0,436.1630620005599,7.0,1.0,phase_2,go,250.0,300.0,1.0,,,,,,,,,orange,hexagon
0.0,6.0,1.0,1.0,6.0,6.0,398.6360409999179,7.0,1.0,phase_2,go,250.0,300.0,1.0,,,,,,,,,green,cross
0.0,2.0,1.0,0.0,6.0,6.0,304.0922499994849,7.0,1.0,phase_2,go,250.0,300.0,1.0,,,,,,,,,blue,triangle
0.0,5.0,0.5,1.0,5.0,5.0,458.8477239994972,7.0,1.0,phase_2,stop,250.0,300.0,3.0,,,,,,,,,yellow,diamond
0.0,6.0,1.0,1.0,5.0,0.0,0.0,7.0,1.0,phase_2,stop,200.0,300.0,4.0,,,,,,,,,green,cross
0.0,3.0,2.0,0.0,5.0,5.0,506.1803250000594,7.0,1.0,phase_2,go,250.0,300.0,1.0,,,,,,,,,gray,flipped triangle
0.0,3.0,2.0,0.0,5.0,5.0,346.1734359998445,7.0,1.0,phase_2,go,250.0,300.0,1.0,,,,,,,,,gray,flipped triangle
0.0,3.0,2.0,0.0,5.0,5.0,279.5973959991897,7.0,1.0,phase_2,go,250.0,300.0,1.0,,,,,,,,,gray,flipped triangle
0.0,7.0,2.0,1.0,5.0,5.0,359.7619100000884,7.0,1.0,phase_2,stop,250.0,300.0,3.0,,,,,,,,,orange,hexagon
0.0,6.0,1.0,1.0,6.0,6.0,483.0343820003691,8.0,1.0,phase_2,stop,200.0,300.0,3.0,,,,,,,,,green,cross
0.0,1.0,0.5,0.0,6.0,6.0,361.6432490007355,8.0,1.0,phase_2,go,200.0,250.0,1.0,,,,,,,,,magenta,I
0.0,6.0,1.0,1.0,6.0,6.0,297.528849999253,8.0,1.0,phase_2,stop,200.0,250.0,3.0,,,,,,,,,green,cross
0.0,6.0,1.0,1.0,6.0,0.0,0.0,8.0,1.0,phase_2,stop,200.0,200.0,4.0,,,,,,,,,green,cross
0.0,8.0,4.0,1.0,5.0,5.0,326.4558329992724,8.0,1.0,phase_2,stop,200.0,250.0,3.0,,,,,,,,,white,circle
0.0,1.0,0.5,0.0,6.0,6.0,293.9932830004181,8.0,1.0,phase_2,go,150.0,250.0,1.0,,,,,,,,,magenta,I
0.0,3.0,2.0,0.0,6.0,6.0,324.1838589992767,8.0,1.0,phase_2,go,150.0,250.0,1.0,,,,,,,,,gray,flipped triangle
0.0,7.0,2.0,1.0,6.0,6.0,322.2760250000647,8.0,1.0,phase_2,stop,150.0,250.0,3.0,,,,,,,,,orange,hexagon
0.0,4.0,4.0,0.0,6.0,6.0,324.6616229998835,8.0,1.0,phase_2,go,150.0,200.0,1.0,,,,,,,,,cyan,square
0.0,3.0,2.0,0.0,6.0,6.0,372.6917989997673,8.0,1.0,phase_2,go,150.0,200.0,1.0,,,,,,,,,gray,flipped triangle
0.0,8.0,4.0,1.0,5.0,0.0,0.0,8.0,1.0,phase_2,stop,150.0,200.0,4.0,,,,,,,,,white,circle
0.0,2.0,1.0,0.0,6.0,6.0,455.86628700039,8.0,1.0,phase_2,go,200.0,200.0,1.0,,,,,,,,,blue,triangle
0.0,4.0,4.0,0.0,6.0,6.0,455.7157079998433,8.0,1.0,phase_2,go,200.0,200.0,1.0,,,,,,,,,cyan,square
0.0,8.0,4.0,1.0,6.0,0.0,0.0,8.0,1.0,phase_2,stop,200.0,200.0,4.0,,,,,,,,,white,circle
0.0,6.0,1.0,1.0,6.0,0.0,0.0,8.0,1.0,phase_2,stop,200.0,250.0,4.0,,,,,,,,,green,cross
0.0,1.0,0.5,0.0,6.0,6.0,667.1329539994986,8.0,1.0,phase_2,go,200.0,300.0,1.0,,,,,,,,,magenta,I
0.0,2.0,1.0,0.0,6.0,6.0,433.7076350002462,8.0,1.0,phase_2,go,200.0,300.0,1.0,,,,,,,,,blue,triangle
0.0,4.0,4.0,0.0,5.0,5.0,386.4908610003112,8.0,1.0,phase_2,go,200.0,300.0,1.0,,,,,,,,,cyan,square
0.0,2.0,1.0,0.0,5.0,5.0,417.5755160003973,8.0,1.0,phase_2,go,200.0,300.0,1.0,,,,,,,,,blue,triangle
0.0,6.0,1.0,1.0,6.0,6.0,404.6879869993063,8.0,1.0,phase_2,stop,200.0,300.0,3.0,,,,,,,,,green,cross
0.0,5.0,0.5,1.0,6.0,0.0,0.0,8.0,1.0,phase_2,stop,200.0,250.0,4.0,,,,,,,,,yellow,diamond
0.0,8.0,4.0,1.0,5.0,5.0,630.1929170003859,8.0,1.0,phase_2,go,200.0,300.0,1.0,,,,,,,,,white,circle
0.0,1.0,0.5,0.0,5.0,5.0,556.7313640003704,8.0,1.0,phase_2,go,200.0,300.0,1.0,,,,,,,,,magenta,I
0.0,5.0,0.5,1.0,6.0,0.0,0.0,8.0,1.0,phase_2,stop,200.0,300.0,4.0,,,,,,,,,yellow,diamond
0.0,1.0,0.5,0.0,5.0,5.0,657.0935669997198,8.0,1.0,phase_2,go,200.0,350.0,1.0,,,,,,,,,magenta,I
0.0,3.0,2.0,0.0,5.0,5.0,556.265242000336,8.0,1.0,phase_2,go,200.0,350.0,1.0,,,,,,,,,gray,flipped triangle
0.0,5.0,0.5,1.0,5.0,0.0,0.0,8.0,1.0,phase_2,stop,200.0,350.0,4.0,,,,,,,,,yellow,diamond
0.0,2.0,1.0,0.0,5.0,5.0,677.8301899994403,8.0,1.0,phase_2,go,250.0,350.0,1.0,,,,,,,,,blue,triangle
0.0,4.0,4.0,0.0,6.0,6.0,954.8160650001593,8.0,1.0,phase_2,go,250.0,350.0,1.0,,,,,,,,,cyan,square
0.0,1.0,0.5,0.0,5.0,5.0,756.418167999982,8.0,1.0,phase_2,go,250.0,350.0,1.0,,,,,,,,,magenta,I
0.0,4.0,4.0,0.0,5.0,5.0,603.2823269997607,8.0,1.0,phase_2,go,250.0,350.0,1.0,,,,,,,,,cyan,square
0.0,5.0,0.5,1.0,6.0,6.0,602.9980119992615,8.0,1.0,phase_2,go,250.0,350.0,1.0,,,,,,,,,yellow,diamond
0.0,2.0,1.0,0.0,6.0,6.0,430.1624279996758,8.0,1.0,phase_2,go,250.0,350.0,1.0,,,,,,,,,blue,triangle
0.0,6.0,1.0,1.0,6.0,0.0,0.0,8.0,1.0,phase_2,stop,250.0,350.0,4.0,,,,,,,,,green,cross
0.0,6.0,1.0,1.0,5.0,0.0,0.0,8.0,1.0,phase_2,stop,250.0,400.0,4.0,,,,,,,,,green,cross
0.0,7.0,2.0,1.0,5.0,5.0,626.8443920007485,8.0,1.0,phase_2,go,300.0,400.0,1.0,,,,,,,,,orange,hexagon
0.0,4.0,4.0,0.0,7.0,3.0,2128.011560000232,1.0,2.0,phase_3,,,,,170.0,5.0,102.0,204.0,170.0,68.0,34.0,136.0,cyan,square
0.0,7.0,2.0,1.0,7.0,5.0,3298.0581609990622,1.0,1.0,phase_3,,,,,324.0,6.0,216.0,108.0,54.0,270.0,324.0,162.0,orange,hexagon
0.0,6.0,1.0,1.0,7.0,4.0,2877.7827949998027,1.0,1.0,phase_3,,,,,196.0,4.0,49.0,245.0,98.0,196.0,294.0,147.0,green,cross
0.0,8.0,4.0,1.0,7.0,5.0,3508.8683329995547,1.0,1.0,phase_3,,,,,102.0,3.0,204.0,170.0,68.0,136.0,102.0,34.0,white,circle
0.0,1.0,0.5,0.0,7.0,1.0,2438.572439999916,1.0,1.0,phase_3,,,,,162.0,3.0,162.0,54.0,324.0,216.0,108.0,270.0,magenta,I
0.0,6.0,1.0,1.0,7.0,4.0,3643.8303840004655,1.0,1.0,phase_3,,,,,39.0,1.0,117.0,78.0,234.0,39.0,195.0,156.0,green,cross
0.0,4.0,4.0,0.0,7.0,5.0,3171.479184000418,1.0,1.0,phase_3,,,,,294.0,6.0,196.0,49.0,98.0,245.0,294.0,147.0,cyan,square
0.0,5.0,0.5,1.0,7.0,2.0,2303.5375790004764,1.0,1.0,phase_3,,,,,204.0,6.0,34.0,204.0,68.0,136.0,102.0,170.0,yellow,diamond
0.0,6.0,1.0,1.0,7.0,4.0,2601.49417699904,1.0,1.0,phase_3,,,,,132.0,3.0,88.0,44.0,220.0,132.0,176.0,264.0,green,cross
0.0,3.0,2.0,0.0,7.0,3.0,3713.701791000858,1.0,1.0,phase_3,,,,,54.0,1.0,108.0,216.0,54.0,324.0,270.0,162.0,gray,flipped triangle
0.0,5.0,0.5,1.0,7.0,4.0,2251.5595570002915,1.0,1.0,phase_3,,,,,234.0,6.0,117.0,195.0,78.0,234.0,39.0,156.0,yellow,diamond
0.0,5.0,0.5,1.0,7.0,6.0,1815.1005460003944,1.0,1.0,phase_3,,,,,117.0,3.0,78.0,195.0,234.0,39.0,156.0,117.0,yellow,diamond
0.0,8.0,4.0,1.0,7.0,2.0,2224.707801000477,1.0,1.0,phase_3,,,,,88.0,2.0,176.0,88.0,220.0,264.0,44.0,132.0,white,circle
0.0,5.0,0.5,1.0,7.0,6.0,2730.136604999643,1.0,1.0,phase_3,,,,,216.0,4.0,162.0,270.0,108.0,324.0,54.0,216.0,yellow,diamond
0.0,4.0,4.0,0.0,7.0,1.0,2576.831447000586,1.0,1.0,phase_3,,,,,264.0,6.0,264.0,44.0,176.0,88.0,220.0,132.0,cyan,square
0.0,4.0,4.0,0.0,7.0,3.0,2184.860692001166,1.0,1.0,phase_3,,,,,147.0,3.0,294.0,49.0,147.0,245.0,196.0,98.0,cyan,square
0.0,5.0,0.5,1.0,7.0,5.0,3006.8909719993826,1.0,1.0,phase_3,,,,,132.0,3.0,264.0,44.0,220.0,176.0,132.0,88.0,yellow,diamond
0.0,1.0,0.5,0.0,7.0,6.0,3752.063478999844,1.0,1.0,phase_3,,,,,34.0,1.0,170.0,204.0,102.0,68.0,136.0,34.0,magenta,I
0.0,7.0,2.0,1.0,7.0,5.0,3096.798765998756,1.0,1.0,phase_3,,,,,68.0,2.0,170.0,204.0,136.0,34.0,68.0,102.0,orange,hexagon
0.0,2.0,1.0,0.0,7.0,6.0,3346.1901049995504,1.0,1.0,phase_3,,,,,216.0,4.0,324.0,162.0,270.0,54.0,108.0,216.0,blue,triangle
0.0,5.0,0.5,1.0,7.0,3.0,2326.255318999756,2.0,1.0,phase_3,,,,,102.0,3.0,34.0,136.0,102.0,204.0,170.0,68.0,yellow,diamond
0.0,1.0,0.5,0.0,7.0,5.0,1333.5094499998377,2.0,1.0,phase_3,,,,,220.0,5.0,44.0,88.0,264.0,176.0,220.0,132.0,magenta,I
0.0,3.0,2.0,0.0,7.0,3.0,1920.5135089996477,2.0,1.0,phase_3,,,,,54.0,1.0,108.0,324.0,54.0,270.0,162.0,216.0,gray,flipped triangle
0.0,8.0,4.0,1.0,7.0,2.0,528.720672999043,2.0,1.0,phase_3,,,,,136.0,4.0,34.0,136.0,170.0,68.0,204.0,102.0,white,circle
0.0,3.0,2.0,0.0,7.0,3.0,1668.660875999194,2.0,1.0,phase_3,,,,,170.0,5.0,136.0,102.0,170.0,34.0,204.0,68.0,gray,flipped triangle
0.0,6.0,1.0,1.0,7.0,2.0,2166.9911320004762,2.0,1.0,phase_3,,,,,245.0,5.0,49.0,245.0,147.0,98.0,196.0,294.0,green,cross
0.0,8.0,4.0,1.0,7.0,4.0,1944.7721769993225,2.0,1.0,phase_3,,,,,162.0,3.0,54.0,216.0,324.0,162.0,108.0,270.0,white,circle
0.0,6.0,1.0,1.0,7.0,3.0,2306.734873000096,2.0,1.0,phase_3,,,,,102.0,3.0,68.0,170.0,102.0,204.0,136.0,34.0,green,cross
0.0,7.0,2.0,1.0,7.0,6.0,1421.877053000571,2.0,1.0,phase_3,,,,,132.0,3.0,220.0,44.0,264.0,88.0,176.0,132.0,orange,hexagon
0.0,5.0,0.5,1.0,7.0,2.0,1454.545614999006,2.0,1.0,phase_3,,,,,147.0,3.0,98.0,147.0,245.0,49.0,196.0,294.0,yellow,diamond
0.0,2.0,1.0,0.0,7.0,3.0,2011.2405809995835,2.0,1.0,phase_3,,,,,270.0,5.0,108.0,54.0,270.0,162.0,216.0,324.0,blue,triangle
0.0,8.0,4.0,1.0,7.0,6.0,1270.263489001081,2.0,1.0,phase_3,,,,,98.0,2.0,196.0,147.0,245.0,294.0,49.0,98.0,white,circle
0.0,2.0,1.0,0.0,7.0,3.0,2112.359344000652,2.0,1.0,phase_3,,,,,156.0,4.0,195.0,39.0,156.0,78.0,234.0,117.0,blue,triangle
0.0,2.0,1.0,0.0,7.0,5.0,1280.3816060004465,2.0,1.0,phase_3,,,,,102.0,3.0,34.0,204.0,170.0,68.0,102.0,136.0,blue,triangle
0.0,7.0,2.0,1.0,7.0,5.0,1684.5792540007096,2.0,1.0,phase_3,,,,,117.0,3.0,234.0,78.0,195.0,156.0,117.0,39.0,orange,hexagon
0.0,7.0,2.0,1.0,7.0,1.0,1143.7500140000338,2.0,1.0,phase_3,,,,,216.0,4.0,216.0,54.0,270.0,108.0,324.0,162.0,orange,hexagon
0.0,4.0,4.0,0.0,7.0,2.0,2267.934929999683,2.0,1.0,phase_3,,,,,136.0,4.0,204.0,136.0,102.0,68.0,34.0,170.0,cyan,square
0.0,5.0,0.5,1.0,7.0,3.0,1980.5665130006676,2.0,1.0,phase_3,,,,,98.0,2.0,49.0,147.0,98.0,245.0,294.0,196.0,yellow,diamond
0.0,3.0,2.0,0.0,7.0,5.0,2029.967190999741,2.0,1.0,phase_3,,,,,39.0,1.0,234.0,195.0,78.0,117.0,39.0,156.0,gray,flipped triangle
0.0,6.0,1.0,1.0,7.0,3.0,1149.5461739996244,2.0,1.0,phase_3,,,,,204.0,6.0,170.0,102.0,204.0,34.0,68.0,136.0,green,cross
0.0,3.0,2.0,0.0,7.0,2.0,797.2481199994945,3.0,1.0,phase_3,,,,,88.0,2.0,44.0,88.0,176.0,132.0,220.0,264.0,gray,flipped triangle
0.0,8.0,4.0,1.0,7.0,5.0,1684.5147469994115,3.0,1.0,phase_3,,,,,195.0,5.0,234.0,117.0,78.0,156.0,195.0,39.0,white,circle
0.0,1.0,0.5,0.0,7.0,4.0,2060.1130119994195,3.0,1.0,phase_3,,,,,195.0,5.0,39.0,78.0,156.0,195.0,234.0,117.0,magenta,I
0.0,3.0,2.0,0.0,7.0,6.0,1377.2679640005665,3.0,1.0,phase_3,,,,,102.0,3.0,170.0,204.0,34.0,68.0,136.0,102.0,gray,flipped triangle
0.0,1.0,0.5,0.0,7.0,5.0,1302.8189819997351,3.0,1.0,phase_3,,,,,216.0,4.0,324.0,54.0,270.0,108.0,216.0,162.0,magenta,I
0.0,4.0,4.0,0.0,7.0,3.0,1648.995928999284,3.0,1.0,phase_3,,,,,220.0,5.0,88.0,132.0,220.0,44.0,176.0,264.0,cyan,square
0.0,6.0,1.0,1.0,7.0,2.0,1953.105583001161,3.0,1.0,phase_3,,,,,324.0,6.0,54.0,324.0,216.0,270.0,108.0,162.0,green,cross
0.0,8.0,4.0,1.0,7.0,5.0,1224.1535169996496,3.0,1.0,phase_3,,,,,147.0,3.0,98.0,245.0,49.0,294.0,147.0,196.0,white,circle
0.0,8.0,4.0,1.0,7.0,1.0,2418.1092899998475,3.0,1.0,phase_3,,,,,264.0,6.0,264.0,44.0,132.0,176.0,220.0,88.0,white,circle
0.0,7.0,2.0,1.0,7.0,5.0,1889.5175130001007,3.0,1.0,phase_3,,,,,170.0,5.0,136.0,102.0,34.0,68.0,170.0,204.0,orange,hexagon
0.0,3.0,2.0,0.0,7.0,3.0,896.5588219998608,3.0,1.0,phase_3,,,,,49.0,1.0,147.0,245.0,49.0,196.0,294.0,98.0,gray,flipped triangle
0.0,2.0,1.0,0.0,7.0,4.0,1903.274075999434,3.0,1.0,phase_3,,,,,204.0,6.0,34.0,68.0,102.0,204.0,136.0,170.0,blue,triangle
0.0,5.0,0.5,1.0,7.0,2.0,1805.4115809991345,3.0,1.0,phase_3,,,,,216.0,4.0,162.0,216.0,108.0,270.0,54.0,324.0,yellow,diamond
0.0,1.0,0.5,0.0,7.0,6.0,1253.3390270000382,3.0,1.0,phase_3,,,,,196.0,4.0,245.0,294.0,147.0,98.0,49.0,196.0,magenta,I
0.0,8.0,4.0,1.0,7.0,1.0,1724.8307270001533,3.0,1.0,phase_3,,,,,162.0,3.0,162.0,216.0,108.0,270.0,54.0,324.0,white,circle
0.0,5.0,0.5,1.0,7.0,6.0,1905.1645179988557,3.0,1.0,phase_3,,,,,132.0,3.0,176.0,88.0,264.0,220.0,44.0,132.0,yellow,diamond
0.0,1.0,0.5,0.0,7.0,1.0,1826.6182799998203,3.0,1.0,phase_3,,,,,245.0,5.0,245.0,147.0,98.0,294.0,49.0,196.0,magenta,I
0.0,7.0,2.0,1.0,7.0,6.0,1321.0226089995558,3.0,1.0,phase_3,,,,,147.0,3.0,49.0,294.0,245.0,98.0,196.0,147.0,orange,hexagon
0.0,6.0,1.0,1.0,7.0,1.0,1286.355091000587,3.0,1.0,phase_3,,,,,176.0,4.0,176.0,132.0,264.0,88.0,220.0,44.0,green,cross
0.0,3.0,2.0,0.0,7.0,5.0,1623.7957659996027,3.0,1.0,phase_3,,,,,195.0,5.0,234.0,156.0,117.0,78.0,195.0,39.0,gray,flipped triangle
0.0,4.0,4.0,0.0,7.0,4.0,1857.626436998544,4.0,1.0,phase_3,,,,,156.0,4.0,234.0,117.0,39.0,156.0,78.0,195.0,cyan,square
0.0,7.0,2.0,1.0,7.0,6.0,1617.8470949998882,4.0,1.0,phase_3,,,,,220.0,5.0,264.0,88.0,176.0,44.0,132.0,220.0,orange,hexagon
0.0,7.0,2.0,1.0,7.0,2.0,1563.712019000377,4.0,1.0,phase_3,,,,,195.0,5.0,39.0,195.0,156.0,78.0,234.0,117.0,orange,hexagon
0.0,4.0,4.0,0.0,7.0,4.0,2254.0235240012407,4.0,1.0,phase_3,,,,,324.0,6.0,54.0,216.0,108.0,324.0,162.0,270.0,cyan,square
0.0,6.0,1.0,1.0,7.0,6.0,2224.3359699987195,4.0,1.0,phase_3,,,,,216.0,4.0,108.0,162.0,324.0,270.0,54.0,216.0,green,cross
0.0,2.0,1.0,0.0,7.0,1.0,2888.356927000132,4.0,1.0,phase_3,,,,,220.0,5.0,220.0,44.0,132.0,264.0,88.0,176.0,blue,triangle
0.0,2.0,1.0,0.0,7.0,4.0,2489.5871410008112,4.0,1.0,phase_3,,,,,220.0,5.0,44.0,176.0,88.0,220.0,264.0,132.0,blue,triangle
0.0,4.0,4.0,0.0,7.0,4.0,1462.3392679986864,4.0,1.0,phase_3,,,,,156.0,4.0,78.0,117.0,39.0,156.0,234.0,195.0,cyan,square
0.0,3.0,2.0,0.0,7.0,6.0,1759.047045999978,4.0,1.0,phase_3,,,,,49.0,1.0,245.0,196.0,294.0,147.0,98.0,49.0,gray,flipped triangle
0.0,2.0,1.0,0.0,7.0,1.0,2024.3615099989256,4.0,1.0,phase_3,,,,,147.0,3.0,147.0,294.0,245.0,49.0,98.0,196.0,blue,triangle
0.0,2.0,1.0,0.0,7.0,6.0,2052.899901000273,4.0,1.0,phase_3,,,,,156.0,4.0,195.0,234.0,117.0,39.0,78.0,156.0,blue,triangle
0.0,6.0,1.0,1.0,7.0,2.0,1096.7325429992345,4.0,1.0,phase_3,,,,,78.0,2.0,156.0,78.0,117.0,39.0,195.0,234.0,green,cross
0.0,2.0,1.0,0.0,7.0,3.0,2862.890824000715,4.0,1.0,phase_3,,,,,196.0,4.0,49.0,245.0,196.0,98.0,147.0,294.0,blue,triangle
0.0,1.0,0.5,0.0,7.0,5.0,2542.5651489986194,4.0,1.0,phase_3,,,,,136.0,4.0,34.0,68.0,170.0,204.0,136.0,102.0,magenta,I
0.0,1.0,0.5,0.0,7.0,5.0,1689.0699679988757,4.0,1.0,phase_3,,,,,176.0,4.0,88.0,44.0,132.0,220.0,176.0,264.0,magenta,I
0.0,4.0,4.0,0.0,7.0,6.0,3095.309300999361,4.0,1.0,phase_3,,,,,108.0,2.0,162.0,270.0,216.0,324.0,54.0,108.0,cyan,square
0.0,1.0,0.5,0.0,7.0,1.0,1665.4984670003614,4.0,1.0,phase_3,,,,,195.0,5.0,195.0,39.0,78.0,156.0,234.0,117.0,magenta,I
0.0,3.0,2.0,0.0,7.0,5.0,926.9856549999532,4.0,1.0,phase_3,,,,,44.0,1.0,132.0,176.0,264.0,220.0,44.0,88.0,gray,flipped triangle
0.0,8.0,4.0,1.0,7.0,2.0,1846.1193120001556,4.0,1.0,phase_3,,,,,195.0,5.0,234.0,195.0,78.0,39.0,117.0,156.0,white,circle
0.0,7.0,2.0,1.0,7.0,4.0,2192.889854000896,4.0,1.0,phase_3,,,,,196.0,4.0,98.0,147.0,49.0,196.0,245.0,294.0,orange,hexagon
