raw_reward_magnitude,stim_reward,stepwise_reward_magnitude,paired_with_stopping,quadrant,response,reaction_time,block,num_trial_presentations,which_part,stop_signal_trial_type,left_SSD,right_SSD,accuracy,chosen_bidding_amount,chosen_bidding_level,possible_bid_1,possible_bid_2,possible_bid_3,possible_bid_4,possible_bid_5,possible_bid_6,color_text,shape_text
393.0,8.0,4.0,1.0,1.0,1.0,449.2675379999582,1.0,1.0,part_1,,,,,,,,,,,,,magenta,flipped triangle
124.0,2.0,2.0,0.0,2.0,2.0,417.2579050000422,1.0,1.0,part_1,,,,,,,,,,,,,blue,hexagon
79.0,6.0,2.0,1.0,2.0,2.0,413.9329729998735,1.0,1.0,part_1,,,,,,,,,,,,,white,circle
386.0,4.0,4.0,0.0,1.0,1.0,366.0920649999752,1.0,1.0,part_1,,,,,,,,,,,,,green,triangle
195.0,3.0,3.0,0.0,4.0,4.0,406.980823999902,1.0,1.0,part_1,,,,,,,,,,,,,cyan,cross
0.0,5.0,0.0,1.0,3.0,3.0,398.6375169999974,1.0,1.0,part_1,,,,,,,,,,,,,orange,I
124.0,6.0,2.0,1.0,2.0,2.0,422.3031490000721,1.0,1.0,part_1,,,,,,,,,,,,,white,circle
89.0,6.0,2.0,1.0,4.0,4.0,340.43143100007,1.0,1.0,part_1,,,,,,,,,,,,,white,circle
422.0,4.0,4.0,0.0,2.0,2.0,315.1855470000555,1.0,1.0,part_1,,,,,,,,,,,,,green,triangle
386.0,8.0,4.0,1.0,2.0,2.0,380.7245010000315,1.0,1.0,part_1,,,,,,,,,,,,,magenta,flipped triangle
42.0,1.0,1.0,0.0,3.0,3.0,320.5069699999967,1.0,1.0,part_1,,,,,,,,,,,,,gray,square
34.0,5.0,1.0,1.0,2.0,2.0,390.6510599999819,1.0,1.0,part_1,,,,,,,,,,,,,orange,I
406.0,4.0,4.0,0.0,3.0,3.0,387.5034669999877,1.0,1.0,part_1,,,,,,,,,,,,,green,triangle
0.0,5.0,0.0,1.0,1.0,1.0,325.5025439998462,1.0,1.0,part_1,,,,,,,,,,,,,orange,I
193.0,7.0,3.0,1.0,1.0,1.0,442.6247670000975,1.0,1.0,part_1,,,,,,,,,,,,,yellow,diamond
187.0,7.0,3.0,1.0,2.0,2.0,286.7323250000027,1.0,1.0,part_1,,,,,,,,,,,,,yellow,diamond
95.0,2.0,2.0,0.0,3.0,3.0,341.0525030001281,1.0,1.0,part_1,,,,,,,,,,,,,blue,hexagon
211.0,3.0,3.0,0.0,3.0,3.0,344.3326690000958,1.0,2.0,part_1,,,,,,,,,,,,,cyan,cross
379.0,8.0,4.0,1.0,4.0,4.0,313.5530719998769,1.0,1.0,part_1,,,,,,,,,,,,,magenta,flipped triangle
424.0,8.0,4.0,1.0,1.0,1.0,359.5515099998465,1.0,1.0,part_1,,,,,,,,,,,,,magenta,flipped triangle
0.0,7.0,0.0,1.0,4.0,4.0,335.8072920000268,1.0,1.0,part_1,,,,,,,,,,,,,yellow,diamond
0.0,7.0,0.0,1.0,2.0,2.0,371.1262189999615,1.0,1.0,part_1,,,,,,,,,,,,,yellow,diamond
64.0,1.0,1.0,0.0,2.0,2.0,345.692470999893,1.0,1.0,part_1,,,,,,,,,,,,,gray,square
377.0,4.0,4.0,0.0,1.0,1.0,287.3196850000568,1.0,1.0,part_1,,,,,,,,,,,,,green,triangle
0.0,6.0,0.0,1.0,2.0,2.0,292.2268389997953,1.0,1.0,part_1,,,,,,,,,,,,,white,circle
61.0,5.0,1.0,1.0,3.0,3.0,371.7763750000813,1.0,1.0,part_1,,,,,,,,,,,,,orange,I
78.0,2.0,2.0,0.0,4.0,4.0,300.2923330000158,1.0,1.0,part_1,,,,,,,,,,,,,blue,hexagon
48.0,1.0,1.0,0.0,3.0,3.0,411.2229290001323,1.0,1.0,part_1,,,,,,,,,,,,,gray,square
0.0,1.0,0.0,0.0,2.0,2.0,297.3150279999572,1.0,1.0,part_1,,,,,,,,,,,,,gray,square
384.0,4.0,4.0,0.0,2.0,2.0,345.6922459999987,1.0,1.0,part_1,,,,,,,,,,,,,green,triangle
105.0,6.0,2.0,1.0,4.0,4.0,351.1046829999031,1.0,1.0,part_1,,,,,,,,,,,,,white,circle
0.0,4.0,0.0,0.0,4.0,4.0,379.8908730000221,1.0,1.0,part_1,,,,,,,,,,,,,green,triangle
377.0,4.0,4.0,0.0,1.0,1.0,353.8337930001489,1.0,1.0,part_1,,,,,,,,,,,,,green,triangle
396.0,4.0,4.0,0.0,4.0,4.0,445.4345999999987,1.0,1.0,part_1,,,,,,,,,,,,,green,triangle
105.0,2.0,2.0,0.0,1.0,1.0,373.3034760000464,1.0,1.0,part_1,,,,,,,,,,,,,blue,hexagon
0.0,4.0,0.0,0.0,2.0,2.0,321.1182839997946,1.0,1.0,part_1,,,,,,,,,,,,,green,triangle
413.0,8.0,4.0,1.0,2.0,2.0,354.0187280000282,1.0,1.0,part_1,,,,,,,,,,,,,magenta,flipped triangle
123.0,6.0,2.0,1.0,1.0,1.0,348.7429549998069,1.0,1.0,part_1,,,,,,,,,,,,,white,circle
0.0,1.0,0.0,0.0,1.0,1.0,337.7395200000137,1.0,1.0,part_1,,,,,,,,,,,,,gray,square
182.0,7.0,3.0,1.0,2.0,2.0,293.0935410001893,1.0,1.0,part_1,,,,,,,,,,,,,yellow,diamond
414.0,8.0,4.0,1.0,3.0,3.0,298.7420649999421,1.0,1.0,part_1,,,,,,,,,,,,,magenta,flipped triangle
205.0,7.0,3.0,1.0,2.0,2.0,299.9294920000466,1.0,1.0,part_1,,,,,,,,,,,,,yellow,diamond
190.0,7.0,3.0,1.0,1.0,1.0,290.8358889999363,1.0,1.0,part_1,,,,,,,,,,,,,yellow,diamond
217.0,3.0,3.0,0.0,3.0,3.0,363.7146270000357,1.0,1.0,part_1,,,,,,,,,,,,,cyan,cross
111.0,2.0,2.0,0.0,4.0,4.0,277.2958369998832,1.0,1.0,part_1,,,,,,,,,,,,,blue,hexagon
26.0,1.0,1.0,0.0,1.0,1.0,408.483409999917,1.0,1.0,part_1,,,,,,,,,,,,,gray,square
195.0,7.0,3.0,1.0,3.0,3.0,509.40005099982955,1.0,1.0,part_1,,,,,,,,,,,,,yellow,diamond
400.0,8.0,4.0,1.0,4.0,4.0,364.6608449998894,1.0,1.0,part_1,,,,,,,,,,,,,magenta,flipped triangle
0.0,3.0,0.0,0.0,4.0,4.0,343.5790379999162,1.0,1.0,part_1,,,,,,,,,,,,,cyan,cross
123.0,2.0,2.0,0.0,2.0,2.0,292.7029989998573,1.0,1.0,part_1,,,,,,,,,,,,,blue,hexagon
176.0,7.0,3.0,1.0,3.0,3.0,337.8167220000705,1.0,1.0,part_1,,,,,,,,,,,,,yellow,diamond
38.0,1.0,1.0,0.0,1.0,1.0,276.4975319998939,1.0,1.0,part_1,,,,,,,,,,,,,gray,square
59.0,5.0,1.0,1.0,1.0,1.0,371.3072420000571,1.0,1.0,part_1,,,,,,,,,,,,,orange,I
418.0,4.0,4.0,0.0,4.0,4.0,342.1692270001131,1.0,1.0,part_1,,,,,,,,,,,,,green,triangle
101.0,2.0,2.0,0.0,3.0,3.0,331.8632630000593,1.0,1.0,part_1,,,,,,,,,,,,,blue,hexagon
40.0,5.0,1.0,1.0,3.0,3.0,378.0051609999191,1.0,1.0,part_1,,,,,,,,,,,,,orange,I
0.0,6.0,0.0,1.0,4.0,4.0,385.2689479999753,1.0,1.0,part_1,,,,,,,,,,,,,white,circle
0.0,6.0,0.0,1.0,3.0,3.0,327.6479539999855,1.0,1.0,part_1,,,,,,,,,,,,,white,circle
34.0,1.0,1.0,0.0,4.0,4.0,367.8453810000519,1.0,1.0,part_1,,,,,,,,,,,,,gray,square
40.0,1.0,1.0,0.0,1.0,1.0,355.103993000057,1.0,1.0,part_1,,,,,,,,,,,,,gray,square
200.0,7.0,3.0,1.0,3.0,3.0,331.6345680000268,1.0,1.0,part_1,,,,,,,,,,,,,yellow,diamond
125.0,6.0,2.0,1.0,2.0,2.0,272.3517490001086,1.0,1.0,part_1,,,,,,,,,,,,,white,circle
50.0,1.0,1.0,0.0,4.0,4.0,322.9774689998521,1.0,1.0,part_1,,,,,,,,,,,,,gray,square
0.0,4.0,0.0,0.0,1.0,1.0,269.4803990000309,1.0,1.0,part_1,,,,,,,,,,,,,green,triangle
221.0,7.0,3.0,1.0,4.0,4.0,349.7703030000139,1.0,1.0,part_1,,,,,,,,,,,,,yellow,diamond
80.0,6.0,2.0,1.0,3.0,3.0,388.9372690000527,1.0,1.0,part_1,,,,,,,,,,,,,white,circle
217.0,7.0,3.0,1.0,2.0,2.0,281.8754150000586,1.0,1.0,part_1,,,,,,,,,,,,,yellow,diamond
0.0,5.0,0.0,1.0,1.0,1.0,361.5422339998986,1.0,1.0,part_1,,,,,,,,,,,,,orange,I
400.0,4.0,4.0,0.0,3.0,3.0,307.4665110000296,1.0,1.0,part_1,,,,,,,,,,,,,green,triangle
89.0,2.0,2.0,0.0,1.0,1.0,323.1480100000681,1.0,1.0,part_1,,,,,,,,,,,,,blue,hexagon
120.0,6.0,2.0,1.0,3.0,3.0,370.3279090000251,1.0,1.0,part_1,,,,,,,,,,,,,white,circle
190.0,3.0,3.0,0.0,1.0,1.0,355.6032300000424,1.0,1.0,part_1,,,,,,,,,,,,,cyan,cross
32.0,1.0,1.0,0.0,2.0,2.0,323.958470999969,1.0,1.0,part_1,,,,,,,,,,,,,gray,square
0.0,2.0,0.0,0.0,1.0,1.0,396.6940929999509,1.0,1.0,part_1,,,,,,,,,,,,,blue,hexagon
123.0,6.0,2.0,1.0,3.0,3.0,292.2159509998892,1.0,1.0,part_1,,,,,,,,,,,,,white,circle
199.0,3.0,3.0,0.0,4.0,4.0,307.5975120000294,1.0,1.0,part_1,,,,,,,,,,,,,cyan,cross
384.0,8.0,4.0,1.0,4.0,4.0,416.1247179999918,1.0,1.0,part_1,,,,,,,,,,,,,magenta,flipped triangle
412.0,4.0,4.0,0.0,4.0,4.0,360.7337090002147,1.0,1.0,part_1,,,,,,,,,,,,,green,triangle
190.0,3.0,3.0,0.0,4.0,4.0,417.679969999881,1.0,1.0,part_1,,,,,,,,,,,,,cyan,cross
66.0,1.0,1.0,0.0,3.0,3.0,291.471318999811,1.0,1.0,part_1,,,,,,,,,,,,,gray,square
60.0,1.0,1.0,0.0,3.0,3.0,294.8833170003127,1.0,1.0,part_1,,,,,,,,,,,,,gray,square
0.0,3.0,0.0,0.0,2.0,2.0,325.51337800032337,1.0,1.0,part_1,,,,,,,,,,,,,cyan,cross
93.0,2.0,2.0,0.0,1.0,1.0,334.7940190001282,1.0,1.0,part_1,,,,,,,,,,,,,blue,hexagon
212.0,7.0,3.0,1.0,4.0,4.0,297.0175780001227,1.0,1.0,part_1,,,,,,,,,,,,,yellow,diamond
110.0,2.0,2.0,0.0,4.0,4.0,325.9219379997375,1.0,1.0,part_1,,,,,,,,,,,,,blue,hexagon
44.0,1.0,1.0,0.0,2.0,2.0,307.7050129995768,1.0,1.0,part_1,,,,,,,,,,,,,gray,square
109.0,6.0,2.0,1.0,4.0,4.0,323.5815849998289,1.0,1.0,part_1,,,,,,,,,,,,,white,circle
223.0,7.0,3.0,1.0,3.0,3.0,290.3730849998283,1.0,1.0,part_1,,,,,,,,,,,,,yellow,diamond
0.0,1.0,0.0,0.0,1.0,1.0,275.89603899969,1.0,1.0,part_1,,,,,,,,,,,,,gray,square
107.0,2.0,2.0,0.0,3.0,3.0,337.5985200000286,1.0,1.0,part_1,,,,,,,,,,,,,blue,hexagon
388.0,4.0,4.0,0.0,4.0,4.0,292.8699640001468,1.0,1.0,part_1,,,,,,,,,,,,,green,triangle
59.0,1.0,1.0,0.0,3.0,3.0,346.1174610001762,1.0,1.0,part_1,,,,,,,,,,,,,gray,square
0.0,6.0,0.0,1.0,1.0,1.0,282.91883699967,1.0,1.0,part_1,,,,,,,,,,,,,white,circle
108.0,2.0,2.0,0.0,1.0,1.0,385.1873389999127,1.0,2.0,part_1,,,,,,,,,,,,,blue,hexagon
48.0,5.0,1.0,1.0,4.0,4.0,350.7623099999364,1.0,1.0,part_1,,,,,,,,,,,,,orange,I
409.0,8.0,4.0,1.0,2.0,2.0,290.5820119999589,1.0,1.0,part_1,,,,,,,,,,,,,magenta,flipped triangle
190.0,7.0,3.0,1.0,4.0,4.0,290.3864039999462,1.0,2.0,part_1,,,,,,,,,,,,,yellow,diamond
409.0,8.0,4.0,1.0,3.0,3.0,350.0715149998541,1.0,1.0,part_1,,,,,,,,,,,,,magenta,flipped triangle
0.0,3.0,0.0,0.0,3.0,3.0,332.6349930002834,1.0,1.0,part_1,,,,,,,,,,,,,cyan,cross
89.0,2.0,2.0,0.0,1.0,1.0,391.1572079996404,1.0,1.0,part_1,,,,,,,,,,,,,blue,hexagon
99.0,6.0,2.0,1.0,3.0,3.0,467.8830119996746,2.0,1.0,part_1,,,,,,,,,,,,,white,circle
0.0,7.0,0.0,1.0,1.0,1.0,309.9018660000183,2.0,1.0,part_1,,,,,,,,,,,,,yellow,diamond
392.0,8.0,4.0,1.0,1.0,1.0,513.5452899999109,2.0,1.0,part_1,,,,,,,,,,,,,magenta,flipped triangle
69.0,5.0,1.0,1.0,3.0,3.0,330.5682760001218,2.0,1.0,part_1,,,,,,,,,,,,,orange,I
115.0,6.0,2.0,1.0,3.0,3.0,367.4215809996894,2.0,1.0,part_1,,,,,,,,,,,,,white,circle
62.0,5.0,1.0,1.0,2.0,2.0,319.3986250003036,2.0,1.0,part_1,,,,,,,,,,,,,orange,I
396.0,8.0,4.0,1.0,1.0,1.0,412.0845469997221,2.0,1.0,part_1,,,,,,,,,,,,,magenta,flipped triangle
78.0,6.0,2.0,1.0,1.0,1.0,434.0700820002894,2.0,1.0,part_1,,,,,,,,,,,,,white,circle
27.0,1.0,1.0,0.0,3.0,3.0,285.3773819997514,2.0,1.0,part_1,,,,,,,,,,,,,gray,square
79.0,2.0,2.0,0.0,3.0,3.0,283.833142000276,2.0,1.0,part_1,,,,,,,,,,,,,blue,hexagon
0.0,8.0,0.0,1.0,4.0,4.0,375.0408359996982,2.0,1.0,part_1,,,,,,,,,,,,,magenta,flipped triangle
404.0,8.0,4.0,1.0,2.0,2.0,292.4137629997858,2.0,1.0,part_1,,,,,,,,,,,,,magenta,flipped triangle
407.0,4.0,4.0,0.0,4.0,4.0,317.1196939997571,2.0,1.0,part_1,,,,,,,,,,,,,green,triangle
224.0,7.0,3.0,1.0,3.0,3.0,336.0082969998075,2.0,1.0,part_1,,,,,,,,,,,,,yellow,diamond
0.0,8.0,0.0,1.0,3.0,3.0,310.4200259999743,2.0,1.0,part_1,,,,,,,,,,,,,magenta,flipped triangle
176.0,3.0,3.0,0.0,2.0,2.0,269.2927379998764,2.0,1.0,part_1,,,,,,,,,,,,,cyan,cross
0.0,8.0,0.0,1.0,2.0,2.0,313.7568120000651,2.0,1.0,part_1,,,,,,,,,,,,,magenta,flipped triangle
400.0,8.0,4.0,1.0,2.0,2.0,364.8286439997719,2.0,1.0,part_1,,,,,,,,,,,,,magenta,flipped triangle
65.0,1.0,1.0,0.0,1.0,1.0,365.7505390001461,2.0,1.0,part_1,,,,,,,,,,,,,gray,square
183.0,7.0,3.0,1.0,4.0,4.0,324.4132619997799,2.0,1.0,part_1,,,,,,,,,,,,,yellow,diamond
399.0,8.0,4.0,1.0,3.0,3.0,397.0828169999549,2.0,1.0,part_1,,,,,,,,,,,,,magenta,flipped triangle
190.0,7.0,3.0,1.0,2.0,2.0,269.0700970001671,2.0,1.0,part_1,,,,,,,,,,,,,yellow,diamond
42.0,1.0,1.0,0.0,4.0,4.0,341.0995790000015,2.0,1.0,part_1,,,,,,,,,,,,,gray,square
208.0,3.0,3.0,0.0,2.0,2.0,319.2097380001542,2.0,1.0,part_1,,,,,,,,,,,,,cyan,cross
396.0,8.0,4.0,1.0,4.0,4.0,415.1729180002803,2.0,1.0,part_1,,,,,,,,,,,,,magenta,flipped triangle
0.0,2.0,0.0,0.0,1.0,1.0,309.2816919997858,2.0,1.0,part_1,,,,,,,,,,,,,blue,hexagon
412.0,4.0,4.0,0.0,4.0,4.0,478.1115750001845,2.0,1.0,part_1,,,,,,,,,,,,,green,triangle
83.0,2.0,2.0,0.0,2.0,2.0,332.9111359998933,2.0,1.0,part_1,,,,,,,,,,,,,blue,hexagon
187.0,3.0,3.0,0.0,1.0,1.0,331.3838320000286,2.0,1.0,part_1,,,,,,,,,,,,,cyan,cross
0.0,6.0,0.0,1.0,1.0,1.0,318.752995000068,2.0,1.0,part_1,,,,,,,,,,,,,white,circle
0.0,3.0,0.0,0.0,2.0,2.0,336.4561289999983,2.0,1.0,part_1,,,,,,,,,,,,,cyan,cross
71.0,5.0,1.0,1.0,1.0,1.0,416.4911130001201,2.0,1.0,part_1,,,,,,,,,,,,,orange,I
44.0,5.0,1.0,1.0,2.0,2.0,285.1428100002522,2.0,1.0,part_1,,,,,,,,,,,,,orange,I
413.0,4.0,4.0,0.0,2.0,2.0,350.7711679999374,2.0,1.0,part_1,,,,,,,,,,,,,green,triangle
193.0,3.0,3.0,0.0,4.0,4.0,297.095404999709,2.0,1.0,part_1,,,,,,,,,,,,,cyan,cross
202.0,3.0,3.0,0.0,1.0,1.0,303.8410690001001,2.0,1.0,part_1,,,,,,,,,,,,,cyan,cross
407.0,8.0,4.0,1.0,3.0,3.0,341.1986930000239,2.0,1.0,part_1,,,,,,,,,,,,,magenta,flipped triangle
108.0,6.0,2.0,1.0,2.0,2.0,296.3218990003042,2.0,1.0,part_1,,,,,,,,,,,,,white,circle
92.0,6.0,2.0,1.0,3.0,3.0,268.1229530003293,2.0,1.0,part_1,,,,,,,,,,,,,white,circle
66.0,5.0,1.0,1.0,2.0,2.0,331.1610480000126,2.0,1.0,part_1,,,,,,,,,,,,,orange,I
118.0,6.0,2.0,1.0,2.0,2.0,298.4820840001703,2.0,1.0,part_1,,,,,,,,,,,,,white,circle
378.0,8.0,4.0,1.0,1.0,1.0,327.080838999791,2.0,1.0,part_1,,,,,,,,,,,,,magenta,flipped triangle
117.0,6.0,2.0,1.0,2.0,2.0,313.692575999994,2.0,1.0,part_1,,,,,,,,,,,,,white,circle
409.0,4.0,4.0,0.0,4.0,4.0,277.0605099999557,2.0,1.0,part_1,,,,,,,,,,,,,green,triangle
377.0,8.0,4.0,1.0,2.0,2.0,314.3876169997384,2.0,1.0,part_1,,,,,,,,,,,,,magenta,flipped triangle
379.0,4.0,4.0,0.0,2.0,2.0,348.0232399997476,2.0,1.0,part_1,,,,,,,,,,,,,green,triangle
98.0,6.0,2.0,1.0,1.0,1.0,301.9291949999569,2.0,1.0,part_1,,,,,,,,,,,,,white,circle
75.0,2.0,2.0,0.0,4.0,4.0,406.5756780000811,2.0,1.0,part_1,,,,,,,,,,,,,blue,hexagon
103.0,2.0,2.0,0.0,3.0,3.0,279.4635790000939,2.0,1.0,part_1,,,,,,,,,,,,,blue,hexagon
412.0,8.0,4.0,1.0,4.0,4.0,339.1901220002182,2.0,1.0,part_1,,,,,,,,,,,,,magenta,flipped triangle
175.0,7.0,3.0,1.0,1.0,1.0,322.0609610002611,2.0,1.0,part_1,,,,,,,,,,,,,yellow,diamond
385.0,8.0,4.0,1.0,4.0,4.0,322.9387149999638,2.0,1.0,part_1,,,,,,,,,,,,,magenta,flipped triangle
0.0,3.0,0.0,0.0,2.0,2.0,329.9019450000742,2.0,1.0,part_1,,,,,,,,,,,,,cyan,cross
0.0,8.0,0.0,1.0,2.0,2.0,311.7547429997103,2.0,1.0,part_1,,,,,,,,,,,,,magenta,flipped triangle
71.0,1.0,1.0,0.0,4.0,4.0,314.9245970002994,2.0,1.0,part_1,,,,,,,,,,,,,gray,square
422.0,8.0,4.0,1.0,1.0,1.0,317.0936920000713,2.0,1.0,part_1,,,,,,,,,,,,,magenta,flipped triangle
56.0,5.0,1.0,1.0,1.0,1.0,367.9812969999148,2.0,1.0,part_1,,,,,,,,,,,,,orange,I
0.0,3.0,0.0,0.0,4.0,4.0,325.1177079996523,2.0,1.0,part_1,,,,,,,,,,,,,cyan,cross
0.0,8.0,0.0,1.0,2.0,2.0,294.6531830002641,2.0,1.0,part_1,,,,,,,,,,,,,magenta,flipped triangle
99.0,2.0,2.0,0.0,4.0,4.0,469.2250859998239,2.0,1.0,part_1,,,,,,,,,,,,,blue,hexagon
0.0,2.0,0.0,0.0,3.0,3.0,302.7627559999928,2.0,1.0,part_1,,,,,,,,,,,,,blue,hexagon
0.0,7.0,0.0,1.0,1.0,1.0,303.0790469997555,2.0,1.0,part_1,,,,,,,,,,,,,yellow,diamond
415.0,4.0,4.0,0.0,4.0,4.0,305.4485520001435,2.0,1.0,part_1,,,,,,,,,,,,,green,triangle
101.0,6.0,2.0,1.0,1.0,1.0,302.7456920003715,2.0,1.0,part_1,,,,,,,,,,,,,white,circle
178.0,3.0,3.0,0.0,2.0,2.0,283.0747490002068,2.0,1.0,part_1,,,,,,,,,,,,,cyan,cross
84.0,6.0,2.0,1.0,3.0,3.0,269.72316399997,2.0,1.0,part_1,,,,,,,,,,,,,white,circle
67.0,1.0,1.0,0.0,3.0,3.0,307.8974449999805,2.0,1.0,part_1,,,,,,,,,,,,,gray,square
118.0,2.0,2.0,0.0,3.0,3.0,333.1454240001221,2.0,1.0,part_1,,,,,,,,,,,,,blue,hexagon
0.0,4.0,0.0,0.0,3.0,3.0,349.1210629999841,2.0,1.0,part_1,,,,,,,,,,,,,green,triangle
404.0,4.0,4.0,0.0,2.0,2.0,274.408515000232,2.0,1.0,part_1,,,,,,,,,,,,,green,triangle
69.0,1.0,1.0,0.0,2.0,2.0,265.5948599999647,2.0,1.0,part_1,,,,,,,,,,,,,gray,square
0.0,5.0,0.0,1.0,4.0,4.0,347.9830069995842,2.0,2.0,part_1,,,,,,,,,,,,,orange,I
407.0,4.0,4.0,0.0,4.0,4.0,374.7397669999373,2.0,1.0,part_1,,,,,,,,,,,,,green,triangle
389.0,4.0,4.0,0.0,1.0,1.0,396.6723590001493,2.0,1.0,part_1,,,,,,,,,,,,,green,triangle
405.0,4.0,4.0,0.0,2.0,2.0,303.9883189999273,2.0,1.0,part_1,,,,,,,,,,,,,green,triangle
409.0,4.0,4.0,0.0,1.0,1.0,359.9329969997598,2.0,1.0,part_1,,,,,,,,,,,,,green,triangle
101.0,6.0,2.0,1.0,4.0,4.0,412.7345110000533,2.0,1.0,part_1,,,,,,,,,,,,,white,circle
27.0,5.0,1.0,1.0,4.0,4.0,389.3761300000733,2.0,1.0,part_1,,,,,,,,,,,,,orange,I
216.0,3.0,3.0,0.0,1.0,1.0,338.5827439997229,2.0,1.0,part_1,,,,,,,,,,,,,cyan,cross
72.0,5.0,1.0,1.0,2.0,2.0,338.0287759996463,2.0,1.0,part_1,,,,,,,,,,,,,orange,I
394.0,4.0,4.0,0.0,2.0,2.0,357.5776070001666,2.0,1.0,part_1,,,,,,,,,,,,,green,triangle
75.0,6.0,2.0,1.0,4.0,4.0,343.1394660001388,2.0,1.0,part_1,,,,,,,,,,,,,white,circle
80.0,2.0,2.0,0.0,2.0,2.0,321.6083930001332,2.0,1.0,part_1,,,,,,,,,,,,,blue,hexagon
26.0,5.0,1.0,1.0,3.0,3.0,311.8405420000272,2.0,1.0,part_1,,,,,,,,,,,,,orange,I
414.0,4.0,4.0,0.0,1.0,1.0,315.8526090001032,2.0,1.0,part_1,,,,,,,,,,,,,green,triangle
0.0,6.0,0.0,1.0,4.0,4.0,335.4664990001765,2.0,1.0,part_1,,,,,,,,,,,,,white,circle
0.0,1.0,0.0,0.0,1.0,1.0,326.8943729999591,2.0,1.0,part_1,,,,,,,,,,,,,gray,square
99.0,2.0,2.0,0.0,2.0,2.0,274.2993239999123,2.0,1.0,part_1,,,,,,,,,,,,,blue,hexagon
211.0,7.0,3.0,1.0,1.0,1.0,406.6391050000675,2.0,1.0,part_1,,,,,,,,,,,,,yellow,diamond
209.0,7.0,3.0,1.0,3.0,3.0,321.7678979999618,2.0,1.0,part_1,,,,,,,,,,,,,yellow,diamond
200.0,3.0,3.0,0.0,2.0,2.0,309.2111509999995,2.0,1.0,part_1,,,,,,,,,,,,,cyan,cross
377.0,8.0,4.0,1.0,4.0,4.0,333.541998000328,2.0,1.0,part_1,,,,,,,,,,,,,magenta,flipped triangle
0.0,6.0,0.0,1.0,4.0,4.0,365.1682489999075,2.0,1.0,part_1,,,,,,,,,,,,,white,circle
400.0,4.0,4.0,0.0,3.0,3.0,377.93744100008547,2.0,1.0,part_1,,,,,,,,,,,,,green,triangle
223.0,3.0,3.0,0.0,3.0,3.0,427.7340040002855,2.0,1.0,part_1,,,,,,,,,,,,,cyan,cross
219.0,3.0,3.0,0.0,4.0,4.0,566.3793070002612,2.0,1.0,part_1,,,,,,,,,,,,,cyan,cross
193.0,7.0,3.0,1.0,1.0,1.0,321.6953149999426,2.0,1.0,part_1,,,,,,,,,,,,,yellow,diamond
182.0,3.0,3.0,0.0,4.0,4.0,346.8105120000473,2.0,1.0,part_1,,,,,,,,,,,,,cyan,cross
0.0,7.0,0.0,1.0,1.0,1.0,318.7771789998805,2.0,1.0,part_1,,,,,,,,,,,,,yellow,diamond
69.0,5.0,1.0,1.0,4.0,4.0,358.0914119997942,2.0,1.0,part_1,,,,,,,,,,,,,orange,I
108.0,6.0,2.0,1.0,1.0,1.0,489.1234179999628,3.0,1.0,part_1,,,,,,,,,,,,,white,circle
64.0,5.0,1.0,1.0,4.0,4.0,342.7042059997802,3.0,1.0,part_1,,,,,,,,,,,,,orange,I
69.0,1.0,1.0,0.0,1.0,1.0,346.3329189999058,3.0,1.0,part_1,,,,,,,,,,,,,gray,square
380.0,8.0,4.0,1.0,2.0,2.0,293.9366020000307,3.0,1.0,part_1,,,,,,,,,,,,,magenta,flipped triangle
0.0,6.0,0.0,1.0,4.0,4.0,315.4943889999231,3.0,1.0,part_1,,,,,,,,,,,,,white,circle
190.0,3.0,3.0,0.0,3.0,3.0,357.71217399997107,3.0,1.0,part_1,,,,,,,,,,,,,cyan,cross
0.0,3.0,0.0,0.0,1.0,1.0,319.4634890000998,3.0,1.0,part_1,,,,,,,,,,,,,cyan,cross
0.0,4.0,0.0,0.0,4.0,4.0,318.9465289997315,3.0,1.0,part_1,,,,,,,,,,,,,green,triangle
390.0,4.0,4.0,0.0,3.0,3.0,350.6207689997609,3.0,1.0,part_1,,,,,,,,,,,,,green,triangle
66.0,5.0,1.0,1.0,1.0,1.0,310.849097999835,3.0,1.0,part_1,,,,,,,,,,,,,orange,I
75.0,2.0,2.0,0.0,2.0,2.0,298.9011030003894,3.0,1.0,part_1,,,,,,,,,,,,,blue,hexagon
68.0,1.0,1.0,0.0,4.0,4.0,365.153814000223,3.0,1.0,part_1,,,,,,,,,,,,,gray,square
56.0,1.0,1.0,0.0,4.0,4.0,434.145221000108,3.0,1.0,part_1,,,,,,,,,,,,,gray,square
212.0,3.0,3.0,0.0,1.0,1.0,332.7719349999825,3.0,1.0,part_1,,,,,,,,,,,,,cyan,cross
223.0,7.0,3.0,1.0,2.0,2.0,326.2749909999911,3.0,1.0,part_1,,,,,,,,,,,,,yellow,diamond
219.0,7.0,3.0,1.0,4.0,4.0,297.4244970000654,3.0,1.0,part_1,,,,,,,,,,,,,yellow,diamond
0.0,1.0,0.0,0.0,2.0,2.0,273.4791749999203,3.0,1.0,part_1,,,,,,,,,,,,,gray,square
37.0,5.0,1.0,1.0,1.0,1.0,298.2182589998956,3.0,1.0,part_1,,,,,,,,,,,,,orange,I
0.0,5.0,0.0,1.0,3.0,3.0,319.4701100001111,3.0,1.0,part_1,,,,,,,,,,,,,orange,I
199.0,7.0,3.0,1.0,3.0,3.0,329.3060680002782,3.0,1.0,part_1,,,,,,,,,,,,,yellow,diamond
216.0,7.0,3.0,1.0,2.0,2.0,275.9357320001072,3.0,1.0,part_1,,,,,,,,,,,,,yellow,diamond
424.0,8.0,4.0,1.0,3.0,3.0,301.9082910000179,3.0,1.0,part_1,,,,,,,,,,,,,magenta,flipped triangle
0.0,7.0,0.0,1.0,3.0,3.0,393.0765930003872,3.0,1.0,part_1,,,,,,,,,,,,,yellow,diamond
223.0,3.0,3.0,0.0,3.0,3.0,368.7071100002868,3.0,1.0,part_1,,,,,,,,,,,,,cyan,cross
223.0,7.0,3.0,1.0,3.0,3.0,277.3809139998775,3.0,1.0,part_1,,,,,,,,,,,,,yellow,diamond
191.0,3.0,3.0,0.0,2.0,2.0,322.408113000165,3.0,1.0,part_1,,,,,,,,,,,,,cyan,cross
67.0,5.0,1.0,1.0,1.0,1.0,273.5144660000514,3.0,1.0,part_1,,,,,,,,,,,,,orange,I
42.0,5.0,1.0,1.0,3.0,3.0,283.8791069998478,3.0,1.0,part_1,,,,,,,,,,,,,orange,I
0.0,2.0,0.0,0.0,4.0,4.0,233.3924039999146,3.0,2.0,part_1,,,,,,,,,,,,,blue,hexagon
72.0,1.0,1.0,0.0,3.0,3.0,321.9931449998512,3.0,1.0,part_1,,,,,,,,,,,,,gray,square
120.0,2.0,2.0,0.0,3.0,3.0,377.6344859998062,3.0,1.0,part_1,,,,,,,,,,,,,blue,hexagon
36.0,1.0,1.0,0.0,3.0,3.0,350.1622089997909,3.0,1.0,part_1,,,,,,,,,,,,,gray,square
206.0,7.0,3.0,1.0,2.0,2.0,322.0312260000355,3.0,1.0,part_1,,,,,,,,,,,,,yellow,diamond
0.0,1.0,0.0,0.0,2.0,2.0,438.1404849996215,3.0,1.0,part_1,,,,,,,,,,,,,gray,square
199.0,3.0,3.0,0.0,3.0,3.0,314.697636999881,3.0,1.0,part_1,,,,,,,,,,,,,cyan,cross
48.0,1.0,1.0,0.0,1.0,1.0,329.4140870002593,3.0,1.0,part_1,,,,,,,,,,,,,gray,square
176.0,3.0,3.0,0.0,3.0,3.0,396.1512870000661,3.0,1.0,part_1,,,,,,,,,,,,,cyan,cross
205.0,7.0,3.0,1.0,4.0,4.0,363.9203809998435,3.0,1.0,part_1,,,,,,,,,,,,,yellow,diamond
105.0,6.0,2.0,1.0,4.0,4.0,348.3661610002855,3.0,1.0,part_1,,,,,,,,,,,,,white,circle
0.0,5.0,0.0,1.0,3.0,3.0,544.4194309998238,3.0,1.0,part_1,,,,,,,,,,,,,orange,I
0.0,2.0,0.0,0.0,3.0,3.0,364.1362979997211,3.0,1.0,part_1,,,,,,,,,,,,,blue,hexagon
53.0,1.0,1.0,0.0,3.0,3.0,300.9305320001658,3.0,1.0,part_1,,,,,,,,,,,,,gray,square
418.0,8.0,4.0,1.0,3.0,3.0,295.1835889998619,3.0,1.0,part_1,,,,,,,,,,,,,magenta,flipped triangle
103.0,6.0,2.0,1.0,4.0,4.0,345.4509729999699,3.0,1.0,part_1,,,,,,,,,,,,,white,circle
381.0,4.0,4.0,0.0,4.0,4.0,318.6211870001898,3.0,1.0,part_1,,,,,,,,,,,,,green,triangle
0.0,8.0,0.0,1.0,4.0,4.0,337.157242000103,3.0,1.0,part_1,,,,,,,,,,,,,magenta,flipped triangle
76.0,6.0,2.0,1.0,1.0,1.0,333.8390059998346,3.0,1.0,part_1,,,,,,,,,,,,,white,circle
36.0,5.0,1.0,1.0,3.0,3.0,376.4332410000861,3.0,1.0,part_1,,,,,,,,,,,,,orange,I
406.0,8.0,4.0,1.0,2.0,2.0,311.3710259999607,3.0,1.0,part_1,,,,,,,,,,,,,magenta,flipped triangle
120.0,6.0,2.0,1.0,2.0,2.0,304.6596480003245,3.0,1.0,part_1,,,,,,,,,,,,,white,circle
0.0,3.0,0.0,0.0,1.0,1.0,327.9320729998289,3.0,1.0,part_1,,,,,,,,,,,,,cyan,cross
0.0,5.0,0.0,1.0,3.0,3.0,296.5513170001941,3.0,1.0,part_1,,,,,,,,,,,,,orange,I
202.0,7.0,3.0,1.0,4.0,4.0,337.1282129996871,3.0,1.0,part_1,,,,,,,,,,,,,yellow,diamond
111.0,6.0,2.0,1.0,1.0,1.0,298.3472809996783,3.0,1.0,part_1,,,,,,,,,,,,,white,circle
0.0,4.0,0.0,0.0,4.0,4.0,321.2940089997573,3.0,1.0,part_1,,,,,,,,,,,,,green,triangle
212.0,7.0,3.0,1.0,4.0,4.0,308.07640700004407,3.0,1.0,part_1,,,,,,,,,,,,,yellow,diamond
0.0,8.0,0.0,1.0,2.0,2.0,293.9461549999578,3.0,1.0,part_1,,,,,,,,,,,,,magenta,flipped triangle
394.0,8.0,4.0,1.0,3.0,3.0,286.587124000107,3.0,1.0,part_1,,,,,,,,,,,,,magenta,flipped triangle
0.0,1.0,0.0,0.0,4.0,4.0,369.231826000032,3.0,1.0,part_1,,,,,,,,,,,,,gray,square
377.0,4.0,4.0,0.0,1.0,1.0,312.6159099997494,3.0,1.0,part_1,,,,,,,,,,,,,green,triangle
27.0,1.0,1.0,0.0,4.0,4.0,320.565192000231,3.0,1.0,part_1,,,,,,,,,,,,,gray,square
60.0,1.0,1.0,0.0,2.0,2.0,315.5768730002819,3.0,1.0,part_1,,,,,,,,,,,,,gray,square
27.0,5.0,1.0,1.0,1.0,1.0,316.3083469999037,3.0,1.0,part_1,,,,,,,,,,,,,orange,I
194.0,7.0,3.0,1.0,1.0,1.0,384.9901500002488,3.0,1.0,part_1,,,,,,,,,,,,,yellow,diamond
48.0,5.0,1.0,1.0,3.0,3.0,414.9613340000542,3.0,1.0,part_1,,,,,,,,,,,,,orange,I
37.0,1.0,1.0,0.0,2.0,2.0,323.8427539999975,3.0,1.0,part_1,,,,,,,,,,,,,gray,square
223.0,3.0,3.0,0.0,2.0,2.0,277.2663629998533,3.0,1.0,part_1,,,,,,,,,,,,,cyan,cross
0.0,4.0,0.0,0.0,2.0,2.0,294.868977999613,3.0,1.0,part_1,,,,,,,,,,,,,green,triangle
176.0,7.0,3.0,1.0,1.0,1.0,303.9806890001273,3.0,1.0,part_1,,,,,,,,,,,,,yellow,diamond
0.0,2.0,0.0,0.0,1.0,1.0,309.7912909997831,3.0,1.0,part_1,,,,,,,,,,,,,blue,hexagon
0.0,7.0,0.0,1.0,4.0,4.0,292.6824380001562,3.0,1.0,part_1,,,,,,,,,,,,,yellow,diamond
0.0,4.0,0.0,0.0,1.0,1.0,381.1804440001651,3.0,1.0,part_1,,,,,,,,,,,,,green,triangle
105.0,2.0,2.0,0.0,2.0,2.0,350.5353730001843,3.0,1.0,part_1,,,,,,,,,,,,,blue,hexagon
415.0,8.0,4.0,1.0,1.0,1.0,317.8826099997422,3.0,1.0,part_1,,,,,,,,,,,,,magenta,flipped triangle
32.0,5.0,1.0,1.0,2.0,2.0,304.5283790002031,3.0,1.0,part_1,,,,,,,,,,,,,orange,I
117.0,2.0,2.0,0.0,4.0,4.0,331.3254039999265,3.0,1.0,part_1,,,,,,,,,,,,,blue,hexagon
62.0,1.0,1.0,0.0,2.0,2.0,360.9894769997481,3.0,1.0,part_1,,,,,,,,,,,,,gray,square
381.0,8.0,4.0,1.0,1.0,1.0,267.890274000365,3.0,1.0,part_1,,,,,,,,,,,,,magenta,flipped triangle
399.0,4.0,4.0,0.0,1.0,1.0,327.044510000178,3.0,1.0,part_1,,,,,,,,,,,,,green,triangle
85.0,2.0,2.0,0.0,1.0,1.0,293.0313750002824,3.0,1.0,part_1,,,,,,,,,,,,,blue,hexagon
70.0,5.0,1.0,1.0,4.0,4.0,333.7704780001331,3.0,1.0,part_1,,,,,,,,,,,,,orange,I
385.0,4.0,4.0,0.0,2.0,2.0,264.9905589996706,3.0,1.0,part_1,,,,,,,,,,,,,green,triangle
0.0,2.0,0.0,0.0,4.0,4.0,491.354420999869,3.0,1.0,part_1,,,,,,,,,,,,,blue,hexagon
66.0,1.0,1.0,0.0,1.0,1.0,319.9825679998866,3.0,1.0,part_1,,,,,,,,,,,,,gray,square
191.0,7.0,3.0,1.0,3.0,3.0,311.2498300001789,3.0,1.0,part_1,,,,,,,,,,,,,yellow,diamond
424.0,4.0,4.0,0.0,3.0,3.0,324.9324009998418,3.0,1.0,part_1,,,,,,,,,,,,,green,triangle
42.0,5.0,1.0,1.0,1.0,1.0,360.1155660003314,3.0,1.0,part_1,,,,,,,,,,,,,orange,I
109.0,2.0,2.0,0.0,4.0,4.0,316.3219739999476,3.0,1.0,part_1,,,,,,,,,,,,,blue,hexagon
389.0,8.0,4.0,1.0,4.0,4.0,406.5522410000994,3.0,1.0,part_1,,,,,,,,,,,,,magenta,flipped triangle
30.0,5.0,1.0,1.0,1.0,1.0,299.8812549999456,3.0,1.0,part_1,,,,,,,,,,,,,orange,I
125.0,2.0,2.0,0.0,1.0,1.0,322.1713509997244,3.0,1.0,part_1,,,,,,,,,,,,,blue,hexagon
187.0,3.0,3.0,0.0,2.0,2.0,279.240710999602,3.0,1.0,part_1,,,,,,,,,,,,,cyan,cross
0.0,3.0,0.0,0.0,4.0,4.0,343.534684000133,3.0,1.0,part_1,,,,,,,,,,,,,cyan,cross
380.0,4.0,4.0,0.0,3.0,3.0,293.5457489998043,3.0,1.0,part_1,,,,,,,,,,,,,green,triangle
0.0,8.0,0.0,1.0,4.0,4.0,349.686125000062,3.0,1.0,part_1,,,,,,,,,,,,,magenta,flipped triangle
202.0,7.0,3.0,1.0,1.0,1.0,292.65302299972967,3.0,1.0,part_1,,,,,,,,,,,,,yellow,diamond
0.0,1.0,0.0,0.0,2.0,2.0,255.732834000355,3.0,1.0,part_1,,,,,,,,,,,,,gray,square
194.0,3.0,3.0,0.0,2.0,2.0,324.0076289998796,3.0,1.0,part_1,,,,,,,,,,,,,cyan,cross
0.0,1.0,0.0,0.0,4.0,4.0,331.2215609998929,3.0,1.0,part_1,,,,,,,,,,,,,gray,square
89.0,6.0,2.0,1.0,4.0,4.0,364.4080100002611,3.0,1.0,part_1,,,,,,,,,,,,,white,circle
206.0,3.0,3.0,0.0,4.0,4.0,422.3024650000297,4.0,1.0,part_1,,,,,,,,,,,,,cyan,cross
0.0,8.0,0.0,1.0,3.0,3.0,306.7322210004022,4.0,1.0,part_1,,,,,,,,,,,,,magenta,flipped triangle
205.0,3.0,3.0,0.0,1.0,1.0,278.4821629998077,4.0,1.0,part_1,,,,,,,,,,,,,cyan,cross
107.0,6.0,2.0,1.0,4.0,4.0,371.8661580001026,4.0,1.0,part_1,,,,,,,,,,,,,white,circle
205.0,3.0,3.0,0.0,1.0,1.0,295.6360680000216,4.0,1.0,part_1,,,,,,,,,,,,,cyan,cross
57.0,5.0,1.0,1.0,3.0,3.0,339.4447629998467,4.0,1.0,part_1,,,,,,,,,,,,,orange,I
61.0,1.0,1.0,0.0,2.0,2.0,262.8338690001328,4.0,1.0,part_1,,,,,,,,,,,,,gray,square
378.0,4.0,4.0,0.0,2.0,2.0,264.9357450000025,4.0,1.0,part_1,,,,,,,,,,,,,green,triangle
0.0,7.0,0.0,1.0,3.0,3.0,268.6573840001074,4.0,1.0,part_1,,,,,,,,,,,,,yellow,diamond
92.0,6.0,2.0,1.0,1.0,1.0,312.3773590000382,4.0,1.0,part_1,,,,,,,,,,,,,white,circle
221.0,3.0,3.0,0.0,1.0,1.0,281.8011219997061,4.0,1.0,part_1,,,,,,,,,,,,,cyan,cross
390.0,8.0,4.0,1.0,3.0,3.0,329.8223329998109,4.0,1.0,part_1,,,,,,,,,,,,,magenta,flipped triangle
95.0,6.0,2.0,1.0,2.0,2.0,313.6759750000237,4.0,1.0,part_1,,,,,,,,,,,,,white,circle
0.0,7.0,0.0,1.0,1.0,1.0,376.6952549999587,4.0,1.0,part_1,,,,,,,,,,,,,yellow,diamond
26.0,5.0,1.0,1.0,2.0,2.0,345.9825309996631,4.0,1.0,part_1,,,,,,,,,,,,,orange,I
111.0,2.0,2.0,0.0,3.0,3.0,292.8094370004146,4.0,1.0,part_1,,,,,,,,,,,,,blue,hexagon
407.0,8.0,4.0,1.0,2.0,2.0,606.3810850000664,4.0,1.0,part_1,,,,,,,,,,,,,magenta,flipped triangle
410.0,4.0,4.0,0.0,3.0,3.0,341.1922340001183,4.0,1.0,part_1,,,,,,,,,,,,,green,triangle
94.0,2.0,2.0,0.0,1.0,1.0,329.7794509999221,4.0,1.0,part_1,,,,,,,,,,,,,blue,hexagon
175.0,3.0,3.0,0.0,3.0,3.0,313.8561910000135,4.0,1.0,part_1,,,,,,,,,,,,,cyan,cross
183.0,3.0,3.0,0.0,1.0,1.0,318.4289310001986,4.0,1.0,part_1,,,,,,,,,,,,,cyan,cross
92.0,2.0,2.0,0.0,4.0,4.0,305.8696340003735,4.0,1.0,part_1,,,,,,,,,,,,,blue,hexagon
377.0,8.0,4.0,1.0,4.0,4.0,282.9160569999658,4.0,1.0,part_1,,,,,,,,,,,,,magenta,flipped triangle
40.0,5.0,1.0,1.0,2.0,2.0,306.4179869998042,4.0,1.0,part_1,,,,,,,,,,,,,orange,I
83.0,6.0,2.0,1.0,2.0,2.0,364.2467609997766,4.0,1.0,part_1,,,,,,,,,,,,,white,circle
393.0,4.0,4.0,0.0,3.0,3.0,381.9699769996987,4.0,1.0,part_1,,,,,,,,,,,,,green,triangle
0.0,4.0,0.0,0.0,4.0,4.0,420.0376829999186,4.0,1.0,part_1,,,,,,,,,,,,,green,triangle
217.0,7.0,3.0,1.0,1.0,1.0,292.0380670002487,4.0,1.0,part_1,,,,,,,,,,,,,yellow,diamond
212.0,3.0,3.0,0.0,4.0,4.0,343.89914500025037,4.0,1.0,part_1,,,,,,,,,,,,,cyan,cross
178.0,7.0,3.0,1.0,1.0,1.0,382.7340650000224,4.0,1.0,part_1,,,,,,,,,,,,,yellow,diamond
224.0,3.0,3.0,0.0,2.0,2.0,329.157989000123,4.0,1.0,part_1,,,,,,,,,,,,,cyan,cross
120.0,2.0,2.0,0.0,1.0,1.0,339.3268380000336,4.0,1.0,part_1,,,,,,,,,,,,,blue,hexagon
27.0,5.0,1.0,1.0,1.0,1.0,373.4064269997361,4.0,1.0,part_1,,,,,,,,,,,,,orange,I
424.0,4.0,4.0,0.0,1.0,1.0,347.0720490004169,4.0,1.0,part_1,,,,,,,,,,,,,green,triangle
110.0,6.0,2.0,1.0,4.0,4.0,342.6979629998641,4.0,1.0,part_1,,,,,,,,,,,,,white,circle
418.0,8.0,4.0,1.0,3.0,3.0,337.7428170001622,4.0,1.0,part_1,,,,,,,,,,,,,magenta,flipped triangle
84.0,2.0,2.0,0.0,2.0,2.0,307.2428919999765,4.0,1.0,part_1,,,,,,,,,,,,,blue,hexagon
65.0,5.0,1.0,1.0,4.0,4.0,394.9885340002765,4.0,1.0,part_1,,,,,,,,,,,,,orange,I
0.0,7.0,0.0,1.0,1.0,1.0,326.1041890000342,4.0,1.0,part_1,,,,,,,,,,,,,yellow,diamond
50.0,5.0,1.0,1.0,4.0,4.0,369.628874999762,4.0,1.0,part_1,,,,,,,,,,,,,orange,I
111.0,6.0,2.0,1.0,1.0,1.0,335.0547760001063,4.0,1.0,part_1,,,,,,,,,,,,,white,circle
0.0,6.0,0.0,1.0,3.0,3.0,341.8595140001343,4.0,1.0,part_1,,,,,,,,,,,,,white,circle
57.0,1.0,1.0,0.0,4.0,4.0,407.3907759998292,4.0,1.0,part_1,,,,,,,,,,,,,gray,square
0.0,3.0,0.0,0.0,3.0,3.0,407.1820879998995,4.0,1.0,part_1,,,,,,,,,,,,,cyan,cross
60.0,5.0,1.0,1.0,4.0,4.0,376.8502849998185,4.0,1.0,part_1,,,,,,,,,,,,,orange,I
197.0,3.0,3.0,0.0,4.0,4.0,404.1271259998211,4.0,1.0,part_1,,,,,,,,,,,,,cyan,cross
52.0,1.0,1.0,0.0,4.0,4.0,359.6588740001607,4.0,1.0,part_1,,,,,,,,,,,,,gray,square
85.0,6.0,2.0,1.0,2.0,2.0,419.2525550001846,4.0,1.0,part_1,,,,,,,,,,,,,white,circle
209.0,3.0,3.0,0.0,2.0,2.0,367.9056270002547,4.0,1.0,part_1,,,,,,,,,,,,,cyan,cross
187.0,7.0,3.0,1.0,2.0,2.0,302.7762960000473,4.0,1.0,part_1,,,,,,,,,,,,,yellow,diamond
0.0,2.0,0.0,0.0,2.0,2.0,300.8132790000672,4.0,1.0,part_1,,,,,,,,,,,,,blue,hexagon
92.0,2.0,2.0,0.0,3.0,3.0,319.9544209996929,4.0,1.0,part_1,,,,,,,,,,,,,blue,hexagon
418.0,4.0,4.0,0.0,3.0,3.0,348.2862629998635,4.0,1.0,part_1,,,,,,,,,,,,,green,triangle
75.0,6.0,2.0,1.0,3.0,3.0,353.1954609998138,4.0,1.0,part_1,,,,,,,,,,,,,white,circle
70.0,1.0,1.0,0.0,2.0,2.0,338.524421999864,4.0,1.0,part_1,,,,,,,,,,,,,gray,square
108.0,2.0,2.0,0.0,2.0,2.0,317.7333100002215,4.0,1.0,part_1,,,,,,,,,,,,,blue,hexagon
60.0,5.0,1.0,1.0,3.0,3.0,383.8260749998881,4.0,1.0,part_1,,,,,,,,,,,,,orange,I
199.0,7.0,3.0,1.0,4.0,4.0,302.0412579999174,4.0,1.0,part_1,,,,,,,,,,,,,yellow,diamond
410.0,8.0,4.0,1.0,1.0,1.0,305.3817589998289,4.0,1.0,part_1,,,,,,,,,,,,,magenta,flipped triangle
0.0,8.0,0.0,1.0,1.0,1.0,316.7238769997311,4.0,1.0,part_1,,,,,,,,,,,,,magenta,flipped triangle
27.0,1.0,1.0,0.0,4.0,4.0,309.4329250002374,4.0,1.0,part_1,,,,,,,,,,,,,gray,square
202.0,3.0,3.0,0.0,3.0,3.0,344.2389970000477,4.0,1.0,part_1,,,,,,,,,,,,,cyan,cross
217.0,3.0,3.0,0.0,1.0,1.0,327.767440000116,4.0,1.0,part_1,,,,,,,,,,,,,cyan,cross
31.0,5.0,1.0,1.0,4.0,4.0,321.5750989998014,4.0,1.0,part_1,,,,,,,,,,,,,orange,I
0.0,1.0,0.0,0.0,2.0,2.0,286.7850220000036,4.0,1.0,part_1,,,,,,,,,,,,,gray,square
388.0,8.0,4.0,1.0,3.0,3.0,266.5466369999194,4.0,1.0,part_1,,,,,,,,,,,,,magenta,flipped triangle
123.0,2.0,2.0,0.0,3.0,3.0,306.7483590002666,4.0,1.0,part_1,,,,,,,,,,,,,blue,hexagon
0.0,5.0,0.0,1.0,1.0,1.0,285.0665850000951,4.0,1.0,part_1,,,,,,,,,,,,,orange,I
99.0,6.0,2.0,1.0,1.0,1.0,319.3629090001195,4.0,1.0,part_1,,,,,,,,,,,,,white,circle
76.0,2.0,2.0,0.0,4.0,4.0,274.8648270003286,4.0,1.0,part_1,,,,,,,,,,,,,blue,hexagon
396.0,4.0,4.0,0.0,3.0,3.0,321.7299640000419,4.0,1.0,part_1,,,,,,,,,,,,,green,triangle
115.0,2.0,2.0,0.0,4.0,4.0,331.8560680004339,4.0,1.0,part_1,,,,,,,,,,,,,blue,hexagon
0.0,4.0,0.0,0.0,1.0,1.0,316.8418280001788,4.0,1.0,part_1,,,,,,,,,,,,,green,triangle
208.0,7.0,3.0,1.0,3.0,3.0,290.4271820002577,4.0,1.0,part_1,,,,,,,,,,,,,yellow,diamond
68.0,5.0,1.0,1.0,4.0,4.0,370.0316140002542,4.0,1.0,part_1,,,,,,,,,,,,,orange,I
0.0,6.0,0.0,1.0,3.0,3.0,358.6184720002165,4.0,1.0,part_1,,,,,,,,,,,,,white,circle
405.0,8.0,4.0,1.0,1.0,1.0,309.7512939998523,4.0,1.0,part_1,,,,,,,,,,,,,magenta,flipped triangle
0.0,5.0,0.0,1.0,2.0,2.0,316.7046630001096,4.0,1.0,part_1,,,,,,,,,,,,,orange,I
52.0,5.0,1.0,1.0,2.0,2.0,374.6778720001202,4.0,1.0,part_1,,,,,,,,,,,,,orange,I
98.0,2.0,2.0,0.0,1.0,1.0,343.8731090000146,4.0,1.0,part_1,,,,,,,,,,,,,blue,hexagon
0.0,2.0,0.0,0.0,4.0,4.0,288.8362159997086,4.0,1.0,part_1,,,,,,,,,,,,,blue,hexagon
93.0,6.0,2.0,1.0,3.0,3.0,315.2249160002611,4.0,1.0,part_1,,,,,,,,,,,,,white,circle
412.0,8.0,4.0,1.0,2.0,2.0,317.4503410000397,4.0,1.0,part_1,,,,,,,,,,,,,magenta,flipped triangle
0.0,5.0,0.0,1.0,4.0,4.0,319.2096719999426,4.0,1.0,part_1,,,,,,,,,,,,,orange,I
392.0,4.0,4.0,0.0,1.0,1.0,293.9728729998023,4.0,1.0,part_1,,,,,,,,,,,,,green,triangle
182.0,7.0,3.0,1.0,4.0,4.0,321.8279640000219,4.0,1.0,part_1,,,,,,,,,,,,,yellow,diamond
31.0,1.0,1.0,0.0,1.0,1.0,301.1694860001626,4.0,1.0,part_1,,,,,,,,,,,,,gray,square
197.0,7.0,3.0,1.0,2.0,2.0,286.6404589999547,4.0,1.0,part_1,,,,,,,,,,,,,yellow,diamond
193.0,3.0,3.0,0.0,3.0,3.0,285.9976069998993,4.0,1.0,part_1,,,,,,,,,,,,,cyan,cross
182.0,3.0,3.0,0.0,4.0,4.0,362.7596430001176,4.0,1.0,part_1,,,,,,,,,,,,,cyan,cross
412.0,8.0,4.0,1.0,4.0,4.0,258.4303010003168,4.0,2.0,part_1,,,,,,,,,,,,,magenta,flipped triangle
94.0,6.0,2.0,1.0,3.0,3.0,333.0966540002009,4.0,1.0,part_1,,,,,,,,,,,,,white,circle
412.0,4.0,4.0,0.0,2.0,2.0,360.0910459999795,4.0,1.0,part_1,,,,,,,,,,,,,green,triangle
30.0,1.0,1.0,0.0,1.0,1.0,298.6364650000723,4.0,1.0,part_1,,,,,,,,,,,,,gray,square
26.0,1.0,1.0,0.0,2.0,2.0,326.2104159998671,4.0,1.0,part_1,,,,,,,,,,,,,gray,square
40.0,1.0,1.0,0.0,1.0,1.0,386.2053889997696,4.0,1.0,part_1,,,,,,,,,,,,,gray,square
0.0,2.0,0.0,0.0,2.0,2.0,279.3931589999374,4.0,1.0,part_1,,,,,,,,,,,,,blue,hexagon
101.0,2.0,2.0,0.0,2.0,2.0,391.0938180001722,4.0,1.0,part_1,,,,,,,,,,,,,blue,hexagon
53.0,5.0,1.0,1.0,3.0,3.0,346.57624700003,4.0,1.0,part_1,,,,,,,,,,,,,orange,I
38.0,5.0,1.0,1.0,2.0,2.0,322.0075149997683,4.0,1.0,part_1,,,,,,,,,,,,,orange,I
0.0,2.0,2.0,0.0,6.0,6.0,430.4632570001558,1.0,0.0,part_2,go,250.0,250.0,1.0,,,,,,,,,blue,hexagon
0.0,8.0,4.0,1.0,5.0,5.0,557.30554999991,1.0,0.0,part_2,stop,250.0,250.0,3.0,,,,,,,,,magenta,flipped triangle
0.0,8.0,4.0,1.0,5.0,0.0,0.0,1.0,0.0,part_2,stop,200.0,250.0,4.0,,,,,,,,,magenta,flipped triangle
0.0,2.0,2.0,0.0,5.0,5.0,736.3691259997722,1.0,0.0,part_2,go,250.0,250.0,1.0,,,,,,,,,blue,hexagon
0.0,2.0,2.0,0.0,5.0,5.0,903.9779419999832,1.0,0.0,part_2,go,250.0,250.0,1.0,,,,,,,,,blue,hexagon
0.0,3.0,3.0,0.0,6.0,6.0,922.4004170000626,1.0,0.0,part_2,go,250.0,250.0,1.0,,,,,,,,,cyan,cross
0.0,7.0,3.0,1.0,5.0,0.0,0.0,1.0,0.0,part_2,stop,250.0,250.0,4.0,,,,,,,,,yellow,diamond
0.0,1.0,1.0,0.0,6.0,6.0,864.8179329998129,1.0,0.0,part_2,go,300.0,250.0,1.0,,,,,,,,,gray,square
0.0,3.0,3.0,0.0,6.0,6.0,683.5130560002654,1.0,0.0,part_2,go,300.0,250.0,1.0,,,,,,,,,cyan,cross
0.0,4.0,4.0,0.0,5.0,5.0,689.9469160002809,1.0,0.0,part_2,go,300.0,250.0,1.0,,,,,,,,,green,triangle
0.0,3.0,3.0,0.0,5.0,5.0,711.3657090003471,1.0,0.0,part_2,go,300.0,250.0,1.0,,,,,,,,,cyan,cross
0.0,8.0,4.0,1.0,6.0,0.0,0.0,1.0,0.0,part_2,stop,300.0,250.0,4.0,,,,,,,,,magenta,flipped triangle
0.0,4.0,4.0,0.0,6.0,6.0,948.5192799998003,1.0,0.0,part_2,go,300.0,300.0,1.0,,,,,,,,,green,triangle
0.0,6.0,2.0,1.0,5.0,0.0,0.0,1.0,0.0,part_2,stop,300.0,300.0,4.0,,,,,,,,,white,circle
0.0,5.0,1.0,1.0,5.0,0.0,0.0,1.0,0.0,part_2,stop,350.0,300.0,4.0,,,,,,,,,orange,I
0.0,8.0,4.0,1.0,6.0,6.0,964.774724000108,1.0,0.0,part_2,go,400.0,300.0,1.0,,,,,,,,,magenta,flipped triangle
0.0,2.0,2.0,0.0,6.0,6.0,964.6394249998592,1.0,0.0,part_2,go,400.0,300.0,1.0,,,,,,,,,blue,hexagon
0.0,2.0,2.0,0.0,6.0,6.0,768.3453680001548,1.0,0.0,part_2,go,400.0,300.0,1.0,,,,,,,,,blue,hexagon
0.0,4.0,4.0,0.0,5.0,5.0,693.543727999895,1.0,0.0,part_2,go,400.0,300.0,1.0,,,,,,,,,green,triangle
0.0,7.0,3.0,1.0,6.0,0.0,0.0,1.0,0.0,part_2,stop,400.0,300.0,4.0,,,,,,,,,yellow,diamond
0.0,3.0,3.0,0.0,6.0,6.0,1016.3977469997008,1.0,0.0,part_2,go,400.0,350.0,1.0,,,,,,,,,cyan,cross
0.0,3.0,3.0,0.0,6.0,6.0,989.3347069996709,1.0,0.0,part_2,go,400.0,350.0,1.0,,,,,,,,,cyan,cross
0.0,3.0,3.0,0.0,5.0,5.0,869.2246329997033,1.0,0.0,part_2,go,400.0,350.0,1.0,,,,,,,,,cyan,cross
0.0,2.0,2.0,0.0,5.0,5.0,703.2596419999209,1.0,0.0,part_2,go,400.0,350.0,1.0,,,,,,,,,blue,hexagon
0.0,2.0,2.0,0.0,6.0,6.0,580.0749670002006,1.0,0.0,part_2,go,400.0,350.0,1.0,,,,,,,,,blue,hexagon
0.0,2.0,2.0,0.0,5.0,5.0,781.3173649997225,1.0,0.0,part_2,go,400.0,350.0,1.0,,,,,,,,,blue,hexagon
0.0,6.0,2.0,1.0,5.0,5.0,702.3535909997918,1.0,0.0,part_2,go,400.0,350.0,1.0,,,,,,,,,white,circle
0.0,4.0,4.0,0.0,6.0,6.0,674.6496569999181,1.0,0.0,part_2,go,400.0,350.0,1.0,,,,,,,,,green,triangle
0.0,5.0,1.0,1.0,5.0,5.0,710.7979690003958,1.0,0.0,part_2,go,400.0,350.0,1.0,,,,,,,,,orange,I
0.0,5.0,1.0,1.0,6.0,0.0,0.0,1.0,0.0,part_2,stop,400.0,350.0,4.0,,,,,,,,,orange,I
0.0,5.0,1.0,1.0,6.0,0.0,0.0,1.0,0.0,part_2,stop,400.0,400.0,4.0,,,,,,,,,orange,I
0.0,4.0,4.0,0.0,6.0,6.0,1007.0080330001474,1.0,0.0,part_2,go,400.0,450.0,1.0,,,,,,,,,green,triangle
0.0,8.0,4.0,1.0,6.0,6.0,909.8274510001828,1.0,0.0,part_2,go,400.0,450.0,1.0,,,,,,,,,magenta,flipped triangle
0.0,6.0,2.0,1.0,5.0,0.0,0.0,1.0,0.0,part_2,stop,400.0,450.0,4.0,,,,,,,,,white,circle
0.0,4.0,4.0,0.0,6.0,6.0,809.9076980001882,1.0,0.0,part_2,go,450.0,450.0,1.0,,,,,,,,,green,triangle
0.0,8.0,4.0,1.0,5.0,0.0,0.0,1.0,0.0,part_2,stop,450.0,450.0,4.0,,,,,,,,,magenta,flipped triangle
0.0,6.0,2.0,1.0,5.0,0.0,0.0,2.0,0.0,part_2,stop,500.0,450.0,4.0,,,,,,,,,white,circle
0.0,1.0,1.0,0.0,6.0,6.0,445.9122330003993,2.0,0.0,part_2,go,550.0,450.0,1.0,,,,,,,,,gray,square
0.0,2.0,2.0,0.0,6.0,6.0,691.4598150001439,2.0,0.0,part_2,go,550.0,450.0,1.0,,,,,,,,,blue,hexagon
0.0,2.0,2.0,0.0,6.0,6.0,343.4345399996346,2.0,0.0,part_2,go,550.0,450.0,1.0,,,,,,,,,blue,hexagon
0.0,8.0,4.0,1.0,6.0,0.0,0.0,2.0,0.0,part_2,stop,550.0,450.0,4.0,,,,,,,,,magenta,flipped triangle
0.0,3.0,3.0,0.0,6.0,6.0,667.5799310000912,2.0,0.0,part_2,go,550.0,500.0,1.0,,,,,,,,,cyan,cross
0.0,3.0,3.0,0.0,5.0,5.0,635.6829370001833,2.0,0.0,part_2,go,550.0,500.0,1.0,,,,,,,,,cyan,cross
0.0,2.0,2.0,0.0,6.0,6.0,628.9627239998481,2.0,0.0,part_2,go,550.0,500.0,1.0,,,,,,,,,blue,hexagon
0.0,7.0,3.0,1.0,6.0,6.0,541.1490780002168,2.0,0.0,part_2,stop,550.0,500.0,3.0,,,,,,,,,yellow,diamond
0.0,3.0,3.0,0.0,6.0,6.0,879.8386019998361,2.0,0.0,part_2,go,550.0,450.0,1.0,,,,,,,,,cyan,cross
0.0,4.0,4.0,0.0,5.0,5.0,543.1516390003708,2.0,0.0,part_2,go,550.0,450.0,1.0,,,,,,,,,green,triangle
0.0,4.0,4.0,0.0,5.0,5.0,577.3378590001812,2.0,0.0,part_2,go,550.0,450.0,1.0,,,,,,,,,green,triangle
0.0,2.0,2.0,0.0,6.0,6.0,468.8540519996422,2.0,0.0,part_2,go,550.0,450.0,1.0,,,,,,,,,blue,hexagon
0.0,5.0,1.0,1.0,5.0,5.0,517.9729460000999,2.0,0.0,part_2,stop,550.0,450.0,3.0,,,,,,,,,orange,I
0.0,3.0,3.0,0.0,5.0,5.0,1107.849245000125,2.0,0.0,part_2,go,500.0,450.0,1.0,,,,,,,,,cyan,cross
0.0,2.0,2.0,0.0,5.0,5.0,731.6125919996921,2.0,0.0,part_2,go,500.0,450.0,1.0,,,,,,,,,blue,hexagon
0.0,6.0,2.0,1.0,6.0,6.0,484.8507490000884,2.0,0.0,part_2,stop,500.0,450.0,3.0,,,,,,,,,white,circle
0.0,7.0,3.0,1.0,5.0,0.0,0.0,2.0,0.0,part_2,stop,500.0,400.0,4.0,,,,,,,,,yellow,diamond
0.0,4.0,4.0,0.0,6.0,6.0,843.4142749997591,2.0,0.0,part_2,go,550.0,400.0,1.0,,,,,,,,,green,triangle
0.0,8.0,4.0,1.0,5.0,0.0,0.0,2.0,0.0,part_2,stop,550.0,400.0,4.0,,,,,,,,,magenta,flipped triangle
0.0,6.0,2.0,1.0,5.0,0.0,0.0,2.0,0.0,part_2,stop,600.0,400.0,4.0,,,,,,,,,white,circle
0.0,8.0,4.0,1.0,6.0,0.0,0.0,2.0,0.0,part_2,stop,650.0,400.0,4.0,,,,,,,,,magenta,flipped triangle
0.0,8.0,4.0,1.0,5.0,5.0,618.6639339998692,2.0,0.0,part_2,go,650.0,450.0,1.0,,,,,,,,,magenta,flipped triangle
0.0,8.0,4.0,1.0,5.0,5.0,697.3629509998318,2.0,0.0,part_2,go,650.0,450.0,1.0,,,,,,,,,magenta,flipped triangle
0.0,6.0,2.0,1.0,6.0,0.0,0.0,2.0,0.0,part_2,stop,650.0,450.0,4.0,,,,,,,,,white,circle
0.0,6.0,2.0,1.0,6.0,6.0,755.5467460001637,2.0,0.0,part_2,go,650.0,500.0,1.0,,,,,,,,,white,circle
0.0,5.0,1.0,1.0,5.0,5.0,727.6427010001498,2.0,0.0,part_2,stop,650.0,500.0,3.0,,,,,,,,,orange,I
0.0,1.0,1.0,0.0,5.0,5.0,866.7322999999669,2.0,0.0,part_2,go,600.0,500.0,1.0,,,,,,,,,gray,square
0.0,7.0,3.0,1.0,5.0,5.0,761.3597919998938,2.0,0.0,part_2,stop,600.0,500.0,3.0,,,,,,,,,yellow,diamond
0.0,6.0,2.0,1.0,6.0,0.0,0.0,2.0,0.0,part_2,stop,550.0,500.0,4.0,,,,,,,,,white,circle
0.0,6.0,2.0,1.0,6.0,0.0,0.0,2.0,0.0,part_2,stop,550.0,550.0,4.0,,,,,,,,,white,circle
0.0,1.0,1.0,0.0,5.0,5.0,995.93870300032,2.0,0.0,part_2,go,550.0,600.0,1.0,,,,,,,,,gray,square
0.0,6.0,2.0,1.0,5.0,0.0,0.0,2.0,0.0,part_2,stop,550.0,600.0,4.0,,,,,,,,,white,circle
0.0,1.0,1.0,0.0,6.0,6.0,1016.5878339998926,2.0,0.0,part_2,go,600.0,600.0,1.0,,,,,,,,,gray,square
0.0,7.0,3.0,1.0,5.0,0.0,0.0,2.0,0.0,part_2,stop,600.0,600.0,4.0,,,,,,,,,yellow,diamond
0.0,3.0,3.0,0.0,5.0,5.0,1071.9502300003114,2.0,0.0,part_2,go,650.0,600.0,1.0,,,,,,,,,cyan,cross
0.0,4.0,4.0,0.0,5.0,1.0,790.152290000151,3.0,0.0,part_2,go,650.0,600.0,2.0,,,,,,,,,green,triangle
0.0,4.0,4.0,0.0,5.0,5.0,333.2959849999497,3.0,0.0,part_2,go,650.0,600.0,1.0,,,,,,,,,green,triangle
0.0,4.0,4.0,0.0,6.0,6.0,273.796860999937,3.0,0.0,part_2,go,650.0,600.0,1.0,,,,,,,,,green,triangle
0.0,5.0,1.0,1.0,5.0,5.0,383.853247999923,3.0,0.0,part_2,stop,650.0,600.0,3.0,,,,,,,,,orange,I
0.0,7.0,3.0,1.0,6.0,6.0,364.0687870001784,3.0,0.0,part_2,stop,600.0,600.0,3.0,,,,,,,,,yellow,diamond
0.0,4.0,4.0,0.0,6.0,6.0,595.3033450000476,3.0,0.0,part_2,go,600.0,550.0,1.0,,,,,,,,,green,triangle
0.0,3.0,3.0,0.0,5.0,5.0,777.2416239999984,3.0,0.0,part_2,go,600.0,550.0,1.0,,,,,,,,,cyan,cross
0.0,2.0,2.0,0.0,5.0,5.0,442.9361120000976,3.0,0.0,part_2,go,600.0,550.0,1.0,,,,,,,,,blue,hexagon
0.0,3.0,3.0,0.0,6.0,6.0,561.7554129999007,3.0,0.0,part_2,go,600.0,550.0,1.0,,,,,,,,,cyan,cross
0.0,8.0,4.0,1.0,5.0,5.0,528.1788039997082,3.0,0.0,part_2,stop,600.0,550.0,3.0,,,,,,,,,magenta,flipped triangle
0.0,4.0,4.0,0.0,6.0,6.0,342.3732760002167,3.0,0.0,part_2,go,550.0,550.0,1.0,,,,,,,,,green,triangle
0.0,1.0,1.0,0.0,6.0,6.0,414.7893159997693,3.0,0.0,part_2,go,550.0,550.0,1.0,,,,,,,,,gray,square
0.0,4.0,4.0,0.0,5.0,5.0,316.3495920002788,3.0,0.0,part_2,go,550.0,550.0,1.0,,,,,,,,,green,triangle
0.0,6.0,2.0,1.0,5.0,5.0,636.1389319999944,3.0,0.0,part_2,stop,550.0,550.0,3.0,,,,,,,,,white,circle
0.0,6.0,2.0,1.0,5.0,0.0,0.0,3.0,0.0,part_2,stop,500.0,550.0,4.0,,,,,,,,,white,circle
0.0,5.0,1.0,1.0,6.0,6.0,605.2110649998212,3.0,0.0,part_2,stop,550.0,550.0,3.0,,,,,,,,,orange,I
0.0,5.0,1.0,1.0,5.0,5.0,719.8038750002524,3.0,0.0,part_2,go,550.0,500.0,1.0,,,,,,,,,orange,I
0.0,6.0,2.0,1.0,6.0,0.0,0.0,3.0,0.0,part_2,stop,550.0,500.0,4.0,,,,,,,,,white,circle
0.0,1.0,1.0,0.0,5.0,5.0,685.2650780001568,3.0,0.0,part_2,go,550.0,550.0,1.0,,,,,,,,,gray,square
0.0,7.0,3.0,1.0,5.0,5.0,585.3670400001647,3.0,0.0,part_2,stop,550.0,550.0,3.0,,,,,,,,,yellow,diamond
0.0,2.0,2.0,0.0,5.0,5.0,733.5603780002202,3.0,0.0,part_2,go,500.0,550.0,1.0,,,,,,,,,blue,hexagon
0.0,4.0,4.0,0.0,6.0,6.0,636.0606349999216,3.0,0.0,part_2,go,500.0,550.0,1.0,,,,,,,,,green,triangle
0.0,7.0,3.0,1.0,5.0,5.0,462.3804780003411,3.0,0.0,part_2,go,500.0,550.0,1.0,,,,,,,,,yellow,diamond
0.0,4.0,4.0,0.0,6.0,6.0,722.0056690002821,3.0,0.0,part_2,go,500.0,550.0,1.0,,,,,,,,,green,triangle
0.0,1.0,1.0,0.0,5.0,5.0,284.1742640002849,3.0,0.0,part_2,go,500.0,550.0,1.0,,,,,,,,,gray,square
0.0,4.0,4.0,0.0,6.0,6.0,282.8389619999143,3.0,0.0,part_2,go,500.0,550.0,1.0,,,,,,,,,green,triangle
0.0,8.0,4.0,1.0,6.0,6.0,703.0436730001384,3.0,0.0,part_2,stop,500.0,550.0,3.0,,,,,,,,,magenta,flipped triangle
0.0,6.0,2.0,1.0,5.0,5.0,795.4394920002414,3.0,0.0,part_2,go,500.0,500.0,1.0,,,,,,,,,white,circle
0.0,7.0,3.0,1.0,5.0,0.0,0.0,3.0,0.0,part_2,stop,500.0,500.0,4.0,,,,,,,,,yellow,diamond
0.0,3.0,3.0,0.0,6.0,6.0,567.322138000236,3.0,0.0,part_2,go,550.0,500.0,1.0,,,,,,,,,cyan,cross
0.0,8.0,4.0,1.0,5.0,5.0,611.8042860002788,3.0,0.0,part_2,stop,550.0,500.0,3.0,,,,,,,,,magenta,flipped triangle
0.0,7.0,3.0,1.0,5.0,0.0,0.0,3.0,0.0,part_2,stop,500.0,500.0,4.0,,,,,,,,,yellow,diamond
0.0,6.0,2.0,1.0,5.0,5.0,731.5768710000157,3.0,0.0,part_2,stop,550.0,500.0,3.0,,,,,,,,,white,circle
0.0,2.0,2.0,0.0,5.0,5.0,577.08852199994,3.0,0.0,part_2,go,500.0,500.0,1.0,,,,,,,,,blue,hexagon
0.0,8.0,4.0,1.0,6.0,6.0,312.4348360001932,3.0,0.0,part_2,stop,500.0,500.0,3.0,,,,,,,,,magenta,flipped triangle
0.0,6.0,2.0,1.0,6.0,6.0,357.3438710000118,3.0,0.0,part_2,go,500.0,450.0,1.0,,,,,,,,,white,circle
0.0,5.0,1.0,1.0,5.0,5.0,354.2491600001085,4.0,0.0,part_2,stop,500.0,450.0,3.0,,,,,,,,,orange,I
0.0,6.0,2.0,1.0,6.0,6.0,277.3507540000537,4.0,0.0,part_2,go,450.0,450.0,1.0,,,,,,,,,white,circle
0.0,7.0,3.0,1.0,6.0,6.0,285.7205959999191,4.0,0.0,part_2,go,450.0,450.0,1.0,,,,,,,,,yellow,diamond
0.0,7.0,3.0,1.0,6.0,6.0,328.5281210000903,4.0,0.0,part_2,go,450.0,450.0,1.0,,,,,,,,,yellow,diamond
0.0,1.0,1.0,0.0,6.0,6.0,467.3351899996305,4.0,0.0,part_2,go,450.0,450.0,1.0,,,,,,,,,gray,square
0.0,4.0,4.0,0.0,5.0,5.0,328.288373000305,4.0,0.0,part_2,go,450.0,450.0,1.0,,,,,,,,,green,triangle
0.0,7.0,3.0,1.0,6.0,6.0,565.4102739999871,4.0,0.0,part_2,stop,450.0,450.0,3.0,,,,,,,,,yellow,diamond
0.0,2.0,2.0,0.0,5.0,5.0,287.0760050000172,4.0,0.0,part_2,go,450.0,400.0,1.0,,,,,,,,,blue,hexagon
0.0,5.0,1.0,1.0,5.0,5.0,387.3898909996569,4.0,0.0,part_2,stop,450.0,400.0,3.0,,,,,,,,,orange,I
0.0,7.0,3.0,1.0,6.0,6.0,400.0429759998951,4.0,0.0,part_2,go,400.0,400.0,1.0,,,,,,,,,yellow,diamond
0.0,7.0,3.0,1.0,5.0,5.0,548.0813029998899,4.0,0.0,part_2,go,400.0,400.0,1.0,,,,,,,,,yellow,diamond
0.0,6.0,2.0,1.0,5.0,5.0,348.5837690000153,4.0,0.0,part_2,stop,400.0,400.0,3.0,,,,,,,,,white,circle
0.0,2.0,2.0,0.0,6.0,6.0,493.7454810001327,4.0,0.0,part_2,go,350.0,400.0,1.0,,,,,,,,,blue,hexagon
0.0,7.0,3.0,1.0,5.0,0.0,0.0,4.0,0.0,part_2,stop,350.0,400.0,4.0,,,,,,,,,yellow,diamond
0.0,5.0,1.0,1.0,5.0,5.0,557.4987229997532,4.0,0.0,part_2,stop,400.0,400.0,3.0,,,,,,,,,orange,I
0.0,6.0,2.0,1.0,6.0,0.0,0.0,4.0,0.0,part_2,stop,350.0,400.0,4.0,,,,,,,,,white,circle
0.0,8.0,4.0,1.0,5.0,5.0,602.9145170000447,4.0,0.0,part_2,go,350.0,450.0,1.0,,,,,,,,,magenta,flipped triangle
0.0,4.0,4.0,0.0,5.0,5.0,386.1678940002093,4.0,0.0,part_2,go,350.0,450.0,1.0,,,,,,,,,green,triangle
0.0,7.0,3.0,1.0,6.0,6.0,274.0719200000967,4.0,0.0,part_2,stop,350.0,450.0,3.0,,,,,,,,,yellow,diamond
0.0,8.0,4.0,1.0,5.0,5.0,641.9574469996405,4.0,0.0,part_2,go,350.0,400.0,1.0,,,,,,,,,magenta,flipped triangle
0.0,2.0,2.0,0.0,5.0,5.0,318.8251550000132,4.0,0.0,part_2,go,350.0,400.0,1.0,,,,,,,,,blue,hexagon
0.0,2.0,2.0,0.0,6.0,6.0,306.9043660002535,4.0,0.0,part_2,go,350.0,400.0,1.0,,,,,,,,,blue,hexagon
0.0,7.0,3.0,1.0,6.0,6.0,374.607683999784,4.0,0.0,part_2,go,350.0,400.0,1.0,,,,,,,,,yellow,diamond
0.0,1.0,1.0,0.0,5.0,5.0,615.9419229998093,4.0,0.0,part_2,go,350.0,400.0,1.0,,,,,,,,,gray,square
0.0,2.0,2.0,0.0,5.0,5.0,408.6421659999359,4.0,0.0,part_2,go,350.0,400.0,1.0,,,,,,,,,blue,hexagon
0.0,8.0,4.0,1.0,6.0,6.0,290.9235839997564,4.0,0.0,part_2,stop,350.0,400.0,3.0,,,,,,,,,magenta,flipped triangle
0.0,2.0,2.0,0.0,5.0,5.0,553.399028000058,4.0,0.0,part_2,go,350.0,350.0,1.0,,,,,,,,,blue,hexagon
0.0,1.0,1.0,0.0,5.0,5.0,541.5907450001214,4.0,0.0,part_2,go,350.0,350.0,1.0,,,,,,,,,gray,square
0.0,1.0,1.0,0.0,6.0,6.0,455.9789800000544,4.0,0.0,part_2,go,350.0,350.0,1.0,,,,,,,,,gray,square
0.0,7.0,3.0,1.0,5.0,5.0,276.8631250000908,4.0,0.0,part_2,stop,350.0,350.0,3.0,,,,,,,,,yellow,diamond
0.0,5.0,1.0,1.0,6.0,0.0,0.0,4.0,0.0,part_2,stop,300.0,350.0,4.0,,,,,,,,,orange,I
0.0,3.0,3.0,0.0,6.0,6.0,289.942472000348,4.0,0.0,part_2,go,300.0,400.0,1.0,,,,,,,,,cyan,cross
0.0,4.0,4.0,0.0,6.0,6.0,331.3137159998405,4.0,0.0,part_2,go,300.0,400.0,1.0,,,,,,,,,green,triangle
0.0,5.0,1.0,1.0,5.0,5.0,360.9148900000036,4.0,0.0,part_2,stop,300.0,400.0,3.0,,,,,,,,,orange,I
0.0,4.0,4.0,0.0,6.0,6.0,409.316260000196,4.0,0.0,part_2,go,250.0,400.0,1.0,,,,,,,,,green,triangle
0.0,5.0,1.0,1.0,6.0,6.0,353.4870270000283,4.0,0.0,part_2,go,250.0,400.0,1.0,,,,,,,,,orange,I
0.0,8.0,4.0,1.0,5.0,5.0,333.9223929997388,5.0,0.0,part_2,stop,250.0,400.0,3.0,,,,,,,,,magenta,flipped triangle
0.0,8.0,4.0,1.0,6.0,6.0,253.0781149998802,5.0,0.0,part_2,stop,200.0,400.0,3.0,,,,,,,,,magenta,flipped triangle
0.0,1.0,1.0,0.0,6.0,6.0,446.2625500000285,5.0,0.0,part_2,go,200.0,350.0,1.0,,,,,,,,,gray,square
0.0,4.0,4.0,0.0,5.0,5.0,310.85194099978247,5.0,0.0,part_2,go,200.0,350.0,1.0,,,,,,,,,green,triangle
0.0,6.0,2.0,1.0,6.0,6.0,317.844882999907,5.0,0.0,part_2,stop,200.0,350.0,3.0,,,,,,,,,white,circle
0.0,4.0,4.0,0.0,5.0,5.0,292.8477380000913,5.0,0.0,part_2,go,200.0,300.0,1.0,,,,,,,,,green,triangle
0.0,8.0,4.0,1.0,5.0,5.0,353.0271509998783,5.0,0.0,part_2,stop,200.0,300.0,3.0,,,,,,,,,magenta,flipped triangle
0.0,8.0,4.0,1.0,5.0,0.0,0.0,5.0,0.0,part_2,stop,150.0,300.0,4.0,,,,,,,,,magenta,flipped triangle
0.0,1.0,1.0,0.0,5.0,5.0,623.488940000243,5.0,0.0,part_2,go,200.0,300.0,1.0,,,,,,,,,gray,square
0.0,7.0,3.0,1.0,6.0,6.0,388.6552970002412,5.0,0.0,part_2,go,200.0,300.0,1.0,,,,,,,,,yellow,diamond
0.0,1.0,1.0,0.0,5.0,5.0,471.1770419999084,5.0,0.0,part_2,go,200.0,300.0,1.0,,,,,,,,,gray,square
0.0,4.0,4.0,0.0,6.0,6.0,357.8812469995682,5.0,0.0,part_2,go,200.0,300.0,1.0,,,,,,,,,green,triangle
0.0,5.0,1.0,1.0,6.0,0.0,0.0,5.0,0.0,part_2,stop,200.0,300.0,4.0,,,,,,,,,orange,I
0.0,2.0,2.0,0.0,6.0,6.0,580.3096399999959,5.0,0.0,part_2,go,200.0,350.0,1.0,,,,,,,,,blue,hexagon
0.0,8.0,4.0,1.0,6.0,6.0,337.0164640000439,5.0,0.0,part_2,stop,200.0,350.0,3.0,,,,,,,,,magenta,flipped triangle
0.0,2.0,2.0,0.0,6.0,6.0,619.8350979998395,5.0,0.0,part_2,go,200.0,300.0,1.0,,,,,,,,,blue,hexagon
0.0,3.0,3.0,0.0,5.0,5.0,335.2047140001559,5.0,0.0,part_2,go,200.0,300.0,1.0,,,,,,,,,cyan,cross
0.0,8.0,4.0,1.0,5.0,0.0,0.0,5.0,0.0,part_2,stop,200.0,300.0,4.0,,,,,,,,,magenta,flipped triangle
0.0,1.0,1.0,0.0,6.0,6.0,567.3867559999053,5.0,0.0,part_2,go,250.0,300.0,1.0,,,,,,,,,gray,square
0.0,5.0,1.0,1.0,6.0,0.0,0.0,5.0,0.0,part_2,stop,250.0,300.0,4.0,,,,,,,,,orange,I
0.0,7.0,3.0,1.0,5.0,5.0,319.8826689999805,5.0,0.0,part_2,stop,250.0,350.0,3.0,,,,,,,,,yellow,diamond
0.0,2.0,2.0,0.0,5.0,5.0,431.5491319998727,5.0,0.0,part_2,go,200.0,350.0,1.0,,,,,,,,,blue,hexagon
0.0,3.0,3.0,0.0,6.0,6.0,290.8574270004465,5.0,0.0,part_2,go,200.0,350.0,1.0,,,,,,,,,cyan,cross
0.0,4.0,4.0,0.0,6.0,6.0,356.8502370003443,5.0,0.0,part_2,go,200.0,350.0,1.0,,,,,,,,,green,triangle
0.0,7.0,3.0,1.0,6.0,6.0,312.2378089997255,5.0,0.0,part_2,stop,200.0,350.0,3.0,,,,,,,,,yellow,diamond
0.0,8.0,4.0,1.0,6.0,6.0,503.3597719998397,5.0,0.0,part_2,go,200.0,300.0,1.0,,,,,,,,,magenta,flipped triangle
0.0,3.0,3.0,0.0,5.0,5.0,349.9088830003529,5.0,0.0,part_2,go,200.0,300.0,1.0,,,,,,,,,cyan,cross
0.0,6.0,2.0,1.0,6.0,6.0,317.6060089999737,5.0,0.0,part_2,go,200.0,300.0,1.0,,,,,,,,,white,circle
0.0,4.0,4.0,0.0,6.0,6.0,314.7379880001608,5.0,0.0,part_2,go,200.0,300.0,1.0,,,,,,,,,green,triangle
0.0,3.0,3.0,0.0,6.0,6.0,354.1812009998466,5.0,0.0,part_2,go,200.0,300.0,1.0,,,,,,,,,cyan,cross
0.0,8.0,4.0,1.0,6.0,0.0,0.0,5.0,0.0,part_2,stop,200.0,300.0,4.0,,,,,,,,,magenta,flipped triangle
0.0,7.0,3.0,1.0,5.0,5.0,366.3804859997981,5.0,0.0,part_2,stop,200.0,350.0,3.0,,,,,,,,,yellow,diamond
0.0,2.0,2.0,0.0,6.0,6.0,461.8526909998763,5.0,0.0,part_2,go,150.0,350.0,1.0,,,,,,,,,blue,hexagon
0.0,4.0,4.0,0.0,5.0,5.0,539.9342420000721,5.0,0.0,part_2,go,150.0,350.0,1.0,,,,,,,,,green,triangle
0.0,1.0,1.0,0.0,5.0,5.0,376.1940060003326,5.0,0.0,part_2,go,150.0,350.0,1.0,,,,,,,,,gray,square
0.0,8.0,4.0,1.0,5.0,5.0,372.4739899998894,5.0,0.0,part_2,go,150.0,350.0,1.0,,,,,,,,,magenta,flipped triangle
0.0,8.0,4.0,1.0,5.0,0.0,0.0,6.0,0.0,part_2,stop,150.0,350.0,4.0,,,,,,,,,magenta,flipped triangle
0.0,2.0,2.0,0.0,6.0,6.0,313.0475409998325,6.0,0.0,part_2,go,200.0,350.0,1.0,,,,,,,,,blue,hexagon
0.0,1.0,1.0,0.0,5.0,5.0,273.5449560000234,6.0,0.0,part_2,go,200.0,350.0,1.0,,,,,,,,,gray,square
0.0,5.0,1.0,1.0,5.0,0.0,0.0,6.0,0.0,part_2,stop,200.0,350.0,4.0,,,,,,,,,orange,I
0.0,1.0,1.0,0.0,6.0,6.0,404.2304869999498,6.0,0.0,part_2,go,250.0,350.0,1.0,,,,,,,,,gray,square
0.0,3.0,3.0,0.0,5.0,5.0,327.2275639997133,6.0,0.0,part_2,go,250.0,350.0,1.0,,,,,,,,,cyan,cross
0.0,5.0,1.0,1.0,6.0,6.0,400.2609859999211,6.0,0.0,part_2,stop,250.0,350.0,3.0,,,,,,,,,orange,I
0.0,3.0,3.0,0.0,5.0,5.0,512.3879249999845,6.0,0.0,part_2,go,250.0,300.0,1.0,,,,,,,,,cyan,cross
0.0,8.0,4.0,1.0,5.0,0.0,0.0,6.0,0.0,part_2,stop,250.0,300.0,4.0,,,,,,,,,magenta,flipped triangle
0.0,5.0,1.0,1.0,6.0,0.0,0.0,6.0,0.0,part_2,stop,300.0,300.0,4.0,,,,,,,,,orange,I
0.0,6.0,2.0,1.0,6.0,6.0,404.7475410002334,6.0,0.0,part_2,stop,300.0,350.0,3.0,,,,,,,,,white,circle
0.0,7.0,3.0,1.0,6.0,6.0,485.6256969997048,6.0,0.0,part_2,go,300.0,300.0,1.0,,,,,,,,,yellow,diamond
0.0,1.0,1.0,0.0,6.0,6.0,314.4449599999461,6.0,0.0,part_2,go,300.0,300.0,1.0,,,,,,,,,gray,square
0.0,5.0,1.0,1.0,5.0,5.0,295.3263479998895,6.0,0.0,part_2,go,300.0,300.0,1.0,,,,,,,,,orange,I
0.0,2.0,2.0,0.0,5.0,5.0,336.4434410000285,6.0,0.0,part_2,go,300.0,300.0,1.0,,,,,,,,,blue,hexagon
0.0,1.0,1.0,0.0,5.0,5.0,346.7566939998505,6.0,0.0,part_2,go,300.0,300.0,1.0,,,,,,,,,gray,square
0.0,1.0,1.0,0.0,6.0,6.0,464.9493189999703,6.0,0.0,part_2,go,300.0,300.0,1.0,,,,,,,,,gray,square
0.0,8.0,4.0,1.0,6.0,0.0,0.0,6.0,0.0,part_2,stop,300.0,300.0,4.0,,,,,,,,,magenta,flipped triangle
0.0,5.0,1.0,1.0,5.0,0.0,0.0,6.0,0.0,part_2,stop,300.0,350.0,4.0,,,,,,,,,orange,I
0.0,7.0,3.0,1.0,6.0,6.0,293.6056290000124,6.0,0.0,part_2,stop,350.0,350.0,3.0,,,,,,,,,yellow,diamond
0.0,5.0,1.0,1.0,6.0,6.0,517.5475119999646,6.0,0.0,part_2,go,350.0,300.0,1.0,,,,,,,,,orange,I
0.0,8.0,4.0,1.0,6.0,6.0,339.3748579997009,6.0,0.0,part_2,stop,350.0,300.0,3.0,,,,,,,,,magenta,flipped triangle
0.0,3.0,3.0,0.0,6.0,6.0,564.4361810000191,6.0,0.0,part_2,go,350.0,250.0,1.0,,,,,,,,,cyan,cross
0.0,6.0,2.0,1.0,6.0,6.0,302.0633320002162,6.0,0.0,part_2,stop,350.0,250.0,3.0,,,,,,,,,white,circle
0.0,6.0,2.0,1.0,5.0,5.0,392.2570449999512,6.0,0.0,part_2,stop,350.0,200.0,3.0,,,,,,,,,white,circle
0.0,6.0,2.0,1.0,5.0,0.0,0.0,6.0,0.0,part_2,stop,300.0,200.0,4.0,,,,,,,,,white,circle
0.0,1.0,1.0,0.0,6.0,6.0,409.4511629996304,6.0,0.0,part_2,go,350.0,200.0,1.0,,,,,,,,,gray,square
0.0,5.0,1.0,1.0,6.0,6.0,306.3696699996399,6.0,0.0,part_2,stop,350.0,200.0,3.0,,,,,,,,,orange,I
0.0,7.0,3.0,1.0,5.0,5.0,332.560937999915,6.0,0.0,part_2,stop,350.0,150.0,3.0,,,,,,,,,yellow,diamond
0.0,3.0,3.0,0.0,5.0,5.0,538.9127510002254,6.0,0.0,part_2,go,300.0,150.0,1.0,,,,,,,,,cyan,cross
0.0,3.0,3.0,0.0,5.0,5.0,340.5764580002142,6.0,0.0,part_2,go,300.0,150.0,1.0,,,,,,,,,cyan,cross
0.0,7.0,3.0,1.0,5.0,0.0,0.0,6.0,0.0,part_2,stop,300.0,150.0,4.0,,,,,,,,,yellow,diamond
0.0,7.0,3.0,1.0,6.0,6.0,444.7392850001961,6.0,0.0,part_2,go,350.0,150.0,1.0,,,,,,,,,yellow,diamond
0.0,6.0,2.0,1.0,5.0,5.0,341.5211239998825,6.0,0.0,part_2,go,350.0,150.0,1.0,,,,,,,,,white,circle
0.0,3.0,3.0,0.0,5.0,5.0,556.412802000068,6.0,0.0,part_2,go,350.0,150.0,1.0,,,,,,,,,cyan,cross
0.0,8.0,4.0,1.0,6.0,0.0,0.0,6.0,0.0,part_2,stop,350.0,150.0,4.0,,,,,,,,,magenta,flipped triangle
0.0,6.0,2.0,1.0,5.0,5.0,380.5145569999695,7.0,0.0,part_2,go,350.0,200.0,1.0,,,,,,,,,white,circle
0.0,7.0,3.0,1.0,5.0,5.0,385.885313000017,7.0,0.0,part_2,stop,350.0,200.0,3.0,,,,,,,,,yellow,diamond
0.0,5.0,1.0,1.0,6.0,6.0,571.7810099999951,7.0,0.0,part_2,go,300.0,200.0,1.0,,,,,,,,,orange,I
0.0,3.0,3.0,0.0,6.0,6.0,263.8395369999671,7.0,0.0,part_2,go,300.0,200.0,1.0,,,,,,,,,cyan,cross
0.0,1.0,1.0,0.0,5.0,5.0,333.0444100001841,7.0,0.0,part_2,go,300.0,200.0,1.0,,,,,,,,,gray,square
0.0,1.0,1.0,0.0,5.0,5.0,338.9569589999155,7.0,0.0,part_2,go,300.0,200.0,1.0,,,,,,,,,gray,square
0.0,1.0,1.0,0.0,6.0,6.0,326.9271240001217,7.0,0.0,part_2,go,300.0,200.0,1.0,,,,,,,,,gray,square
0.0,6.0,2.0,1.0,5.0,5.0,343.7196479999329,7.0,0.0,part_2,stop,300.0,200.0,3.0,,,,,,,,,white,circle
0.0,4.0,4.0,0.0,5.0,5.0,540.8131010003672,7.0,0.0,part_2,go,250.0,200.0,1.0,,,,,,,,,green,triangle
0.0,1.0,1.0,0.0,5.0,5.0,321.8506210000669,7.0,0.0,part_2,go,250.0,200.0,1.0,,,,,,,,,gray,square
0.0,3.0,3.0,0.0,5.0,5.0,337.4543809995884,7.0,0.0,part_2,go,250.0,200.0,1.0,,,,,,,,,cyan,cross
0.0,3.0,3.0,0.0,6.0,6.0,255.5433900001844,7.0,0.0,part_2,go,250.0,200.0,1.0,,,,,,,,,cyan,cross
0.0,4.0,4.0,0.0,5.0,5.0,380.7083130000137,7.0,0.0,part_2,go,250.0,200.0,1.0,,,,,,,,,green,triangle
0.0,1.0,1.0,0.0,6.0,6.0,296.7421799999101,7.0,0.0,part_2,go,250.0,200.0,1.0,,,,,,,,,gray,square
0.0,3.0,3.0,0.0,6.0,6.0,314.7084970000833,7.0,0.0,part_2,go,250.0,200.0,1.0,,,,,,,,,cyan,cross
0.0,1.0,1.0,0.0,5.0,5.0,417.194297000151,7.0,0.0,part_2,go,250.0,200.0,1.0,,,,,,,,,gray,square
0.0,6.0,2.0,1.0,5.0,0.0,0.0,7.0,0.0,part_2,stop,250.0,200.0,4.0,,,,,,,,,white,circle
0.0,5.0,1.0,1.0,5.0,0.0,0.0,7.0,0.0,part_2,stop,300.0,200.0,4.0,,,,,,,,,orange,I
0.0,2.0,2.0,0.0,5.0,5.0,456.5558290005356,7.0,0.0,part_2,go,350.0,200.0,1.0,,,,,,,,,blue,hexagon
0.0,6.0,2.0,1.0,6.0,6.0,312.5577359996896,7.0,0.0,part_2,go,350.0,200.0,1.0,,,,,,,,,white,circle
0.0,6.0,2.0,1.0,6.0,6.0,322.1097040004679,7.0,0.0,part_2,stop,350.0,200.0,3.0,,,,,,,,,white,circle
0.0,3.0,3.0,0.0,5.0,5.0,486.3738159992863,7.0,0.0,part_2,go,350.0,150.0,1.0,,,,,,,,,cyan,cross
0.0,5.0,1.0,1.0,6.0,6.0,348.7409290000869,7.0,0.0,part_2,stop,350.0,150.0,3.0,,,,,,,,,orange,I
0.0,2.0,2.0,0.0,6.0,6.0,405.1041359998635,7.0,0.0,part_2,go,350.0,100.0,1.0,,,,,,,,,blue,hexagon
0.0,5.0,1.0,1.0,6.0,6.0,333.7171339999258,7.0,0.0,part_2,stop,350.0,100.0,3.0,,,,,,,,,orange,I
0.0,1.0,1.0,0.0,6.0,6.0,552.5119890007772,7.0,0.0,part_2,go,350.0,50.0,1.0,,,,,,,,,gray,square
0.0,1.0,1.0,0.0,6.0,6.0,402.1614530001898,7.0,0.0,part_2,go,350.0,50.0,1.0,,,,,,,,,gray,square
0.0,6.0,2.0,1.0,5.0,5.0,285.5410920001304,7.0,0.0,part_2,stop,350.0,50.0,3.0,,,,,,,,,white,circle
0.0,5.0,1.0,1.0,6.0,6.0,311.3174280006205,7.0,0.0,part_2,go,300.0,50.0,1.0,,,,,,,,,orange,I
0.0,2.0,2.0,0.0,6.0,6.0,326.47014900067,7.0,0.0,part_2,go,300.0,50.0,1.0,,,,,,,,,blue,hexagon
0.0,3.0,3.0,0.0,6.0,6.0,293.5937969996303,7.0,0.0,part_2,go,300.0,50.0,1.0,,,,,,,,,cyan,cross
0.0,7.0,3.0,1.0,5.0,5.0,334.6720729996377,7.0,0.0,part_2,stop,300.0,50.0,3.0,,,,,,,,,yellow,diamond
0.0,6.0,2.0,1.0,6.0,0.0,0.0,7.0,0.0,part_2,stop,250.0,50.0,4.0,,,,,,,,,white,circle
0.0,2.0,2.0,0.0,6.0,6.0,538.4959369994249,7.0,0.0,part_2,go,250.0,100.0,1.0,,,,,,,,,blue,hexagon
0.0,7.0,3.0,1.0,6.0,6.0,298.7060630002816,7.0,0.0,part_2,stop,250.0,100.0,3.0,,,,,,,,,yellow,diamond
0.0,5.0,1.0,1.0,5.0,0.0,0.0,7.0,0.0,part_2,stop,250.0,50.0,4.0,,,,,,,,,orange,I
0.0,1.0,1.0,0.0,5.0,5.0,539.590094000232,8.0,0.0,part_2,go,300.0,50.0,1.0,,,,,,,,,gray,square
0.0,3.0,3.0,0.0,5.0,5.0,453.2349129995054,8.0,0.0,part_2,go,300.0,50.0,1.0,,,,,,,,,cyan,cross
0.0,2.0,2.0,0.0,5.0,5.0,502.3791479998181,8.0,0.0,part_2,go,300.0,50.0,1.0,,,,,,,,,blue,hexagon
0.0,8.0,4.0,1.0,5.0,5.0,643.9142720000746,8.0,0.0,part_2,go,300.0,50.0,1.0,,,,,,,,,magenta,flipped triangle
0.0,4.0,4.0,0.0,5.0,5.0,564.8672300003454,8.0,0.0,part_2,go,300.0,50.0,1.0,,,,,,,,,green,triangle
0.0,6.0,2.0,1.0,6.0,0.0,0.0,8.0,0.0,part_2,stop,300.0,50.0,4.0,,,,,,,,,white,circle
0.0,4.0,4.0,0.0,5.0,5.0,756.3415620006708,8.0,0.0,part_2,go,300.0,100.0,1.0,,,,,,,,,green,triangle
0.0,7.0,3.0,1.0,6.0,0.0,0.0,8.0,0.0,part_2,stop,300.0,100.0,4.0,,,,,,,,,yellow,diamond
0.0,5.0,1.0,1.0,5.0,0.0,0.0,8.0,0.0,part_2,stop,300.0,150.0,4.0,,,,,,,,,orange,I
0.0,1.0,1.0,0.0,6.0,6.0,849.0740390006977,8.0,0.0,part_2,go,350.0,150.0,1.0,,,,,,,,,gray,square
0.0,5.0,1.0,1.0,5.0,5.0,474.7546300004615,8.0,0.0,part_2,stop,350.0,150.0,3.0,,,,,,,,,orange,I
0.0,8.0,4.0,1.0,6.0,0.0,0.0,8.0,0.0,part_2,stop,300.0,150.0,4.0,,,,,,,,,magenta,flipped triangle
0.0,3.0,3.0,0.0,5.0,5.0,476.3925860006566,8.0,0.0,part_2,go,300.0,200.0,1.0,,,,,,,,,cyan,cross
0.0,7.0,3.0,1.0,5.0,0.0,0.0,8.0,0.0,part_2,stop,300.0,200.0,4.0,,,,,,,,,yellow,diamond
0.0,1.0,1.0,0.0,6.0,6.0,485.6372360000023,8.0,0.0,part_2,go,350.0,200.0,1.0,,,,,,,,,gray,square
0.0,7.0,3.0,1.0,6.0,0.0,0.0,8.0,0.0,part_2,stop,350.0,200.0,4.0,,,,,,,,,yellow,diamond
0.0,8.0,4.0,1.0,6.0,0.0,0.0,8.0,0.0,part_2,stop,350.0,250.0,4.0,,,,,,,,,magenta,flipped triangle
0.0,1.0,1.0,0.0,5.0,5.0,492.5087769997844,8.0,0.0,part_2,go,350.0,300.0,1.0,,,,,,,,,gray,square
0.0,4.0,4.0,0.0,6.0,6.0,523.2070430001841,8.0,0.0,part_2,go,350.0,300.0,1.0,,,,,,,,,green,triangle
0.0,3.0,3.0,0.0,6.0,6.0,586.9211279996307,8.0,0.0,part_2,go,350.0,300.0,1.0,,,,,,,,,cyan,cross
0.0,5.0,1.0,1.0,6.0,6.0,445.7593130000532,8.0,0.0,part_2,stop,350.0,300.0,3.0,,,,,,,,,orange,I
0.0,7.0,3.0,1.0,6.0,0.0,0.0,8.0,0.0,part_2,stop,350.0,250.0,4.0,,,,,,,,,yellow,diamond
0.0,2.0,2.0,0.0,5.0,5.0,568.6181080000097,8.0,0.0,part_2,go,350.0,300.0,1.0,,,,,,,,,blue,hexagon
0.0,8.0,4.0,1.0,6.0,0.0,0.0,8.0,0.0,part_2,stop,350.0,300.0,4.0,,,,,,,,,magenta,flipped triangle
0.0,5.0,1.0,1.0,6.0,6.0,603.5180020007829,8.0,0.0,part_2,go,350.0,350.0,1.0,,,,,,,,,orange,I
0.0,2.0,2.0,0.0,5.0,5.0,567.3658379992048,8.0,0.0,part_2,go,350.0,350.0,1.0,,,,,,,,,blue,hexagon
0.0,5.0,1.0,1.0,5.0,0.0,0.0,8.0,0.0,part_2,stop,350.0,350.0,4.0,,,,,,,,,orange,I
0.0,5.0,1.0,1.0,6.0,6.0,645.3665869994438,8.0,0.0,part_2,go,400.0,350.0,1.0,,,,,,,,,orange,I
0.0,4.0,4.0,0.0,5.0,5.0,508.1498270001248,8.0,0.0,part_2,go,400.0,350.0,1.0,,,,,,,,,green,triangle
0.0,2.0,2.0,0.0,6.0,6.0,442.5454230004106,8.0,0.0,part_2,go,400.0,350.0,1.0,,,,,,,,,blue,hexagon
0.0,4.0,4.0,0.0,6.0,6.0,515.2509959998497,8.0,0.0,part_2,go,400.0,350.0,1.0,,,,,,,,,green,triangle
0.0,4.0,4.0,0.0,5.0,5.0,359.9491869999838,8.0,0.0,part_2,go,400.0,350.0,1.0,,,,,,,,,green,triangle
0.0,3.0,3.0,0.0,6.0,6.0,490.355451999676,8.0,0.0,part_2,go,400.0,350.0,1.0,,,,,,,,,cyan,cross
0.0,3.0,3.0,0.0,5.0,5.0,403.727785999763,8.0,0.0,part_2,go,400.0,350.0,1.0,,,,,,,,,cyan,cross
0.0,1.0,1.0,0.0,5.0,5.0,585.4081469997254,8.0,0.0,part_2,go,400.0,350.0,1.0,,,,,,,,,gray,square
0.0,6.0,2.0,1.0,6.0,6.0,392.6389739999649,8.0,0.0,part_2,stop,400.0,350.0,3.0,,,,,,,,,white,circle
0.0,7.0,3.0,1.0,7.0,3.0,2774.8114480000368,1.0,1.0,part_3,go,0.0,0.0,0.0,234.0,6.0,78.0,195.0,234.0,156.0,117.0,39.0,yellow,diamond
0.0,4.0,4.0,0.0,7.0,5.0,3080.8136640007433,1.0,1.0,part_3,go,0.0,0.0,0.0,170.0,5.0,136.0,102.0,204.0,68.0,170.0,34.0,green,triangle
0.0,5.0,1.0,1.0,7.0,2.0,2707.93021100053,1.0,1.0,part_3,go,0.0,0.0,0.0,39.0,1.0,195.0,39.0,78.0,156.0,117.0,234.0,orange,I
0.0,1.0,1.0,0.0,7.0,3.0,4162.545936000242,1.0,1.0,part_3,go,0.0,0.0,0.0,108.0,2.0,270.0,54.0,108.0,162.0,324.0,216.0,gray,square
0.0,8.0,4.0,1.0,7.0,3.0,2599.2049080005017,1.0,1.0,part_3,go,0.0,0.0,0.0,220.0,5.0,44.0,264.0,220.0,88.0,176.0,132.0,magenta,flipped triangle
0.0,1.0,1.0,0.0,7.0,3.0,4122.266407000097,1.0,1.0,part_3,go,0.0,0.0,0.0,49.0,1.0,147.0,196.0,49.0,294.0,245.0,98.0,gray,square
0.0,3.0,3.0,0.0,7.0,5.0,1746.2212020000152,1.0,1.0,part_3,go,0.0,0.0,0.0,204.0,6.0,170.0,102.0,136.0,68.0,204.0,34.0,cyan,cross
0.0,1.0,1.0,0.0,7.0,6.0,3140.1834139996936,1.0,1.0,part_3,go,0.0,0.0,0.0,170.0,5.0,204.0,34.0,68.0,136.0,102.0,170.0,gray,square
0.0,3.0,3.0,0.0,7.0,2.0,3802.5837900004262,1.0,1.0,part_3,go,0.0,0.0,0.0,216.0,4.0,54.0,216.0,324.0,162.0,108.0,270.0,cyan,cross
0.0,5.0,1.0,1.0,7.0,1.0,1222.7567049994832,1.0,1.0,part_3,go,0.0,0.0,0.0,136.0,4.0,136.0,102.0,204.0,34.0,170.0,68.0,orange,I
0.0,2.0,2.0,0.0,7.0,6.0,1584.3322380005702,1.0,1.0,part_3,go,0.0,0.0,0.0,136.0,4.0,170.0,34.0,204.0,102.0,68.0,136.0,blue,hexagon
0.0,8.0,4.0,1.0,7.0,1.0,4599.140342999817,1.0,1.0,part_3,go,0.0,0.0,0.0,294.0,6.0,294.0,98.0,245.0,147.0,196.0,49.0,magenta,flipped triangle
0.0,2.0,2.0,0.0,7.0,1.0,3831.395569000051,1.0,1.0,part_3,go,0.0,0.0,0.0,234.0,6.0,234.0,156.0,195.0,39.0,117.0,78.0,blue,hexagon
0.0,3.0,3.0,0.0,7.0,6.0,4157.907374000388,1.0,1.0,part_3,go,0.0,0.0,0.0,54.0,1.0,108.0,216.0,324.0,270.0,162.0,54.0,cyan,cross
0.0,8.0,4.0,1.0,7.0,2.0,2392.576885000381,1.0,1.0,part_3,go,0.0,0.0,0.0,324.0,6.0,216.0,324.0,54.0,270.0,162.0,108.0,magenta,flipped triangle
0.0,1.0,1.0,0.0,7.0,6.0,1079.5668540004044,1.0,1.0,part_3,go,0.0,0.0,0.0,88.0,2.0,264.0,44.0,132.0,220.0,176.0,88.0,gray,square
0.0,3.0,3.0,0.0,7.0,5.0,4163.973618999989,1.0,1.0,part_3,go,0.0,0.0,0.0,220.0,5.0,264.0,44.0,176.0,88.0,220.0,132.0,cyan,cross
0.0,5.0,1.0,1.0,7.0,6.0,2246.971040000062,1.0,1.0,part_3,go,0.0,0.0,0.0,88.0,2.0,264.0,176.0,132.0,44.0,220.0,88.0,orange,I
0.0,1.0,1.0,0.0,7.0,2.0,2946.599810999942,1.0,1.0,part_3,go,0.0,0.0,0.0,147.0,3.0,196.0,147.0,98.0,294.0,245.0,49.0,gray,square
0.0,4.0,4.0,0.0,7.0,6.0,2318.395135999708,1.0,1.0,part_3,go,0.0,0.0,0.0,117.0,3.0,234.0,39.0,78.0,156.0,195.0,117.0,green,triangle
0.0,8.0,4.0,1.0,7.0,4.0,2070.525723999708,2.0,1.0,part_3,go,0.0,0.0,0.0,234.0,6.0,117.0,39.0,195.0,234.0,156.0,78.0,magenta,flipped triangle
0.0,2.0,2.0,0.0,7.0,1.0,1850.9548379997796,2.0,1.0,part_3,go,0.0,0.0,0.0,196.0,4.0,196.0,98.0,294.0,245.0,147.0,49.0,blue,hexagon
0.0,6.0,2.0,1.0,7.0,5.0,1998.5572809991936,2.0,1.0,part_3,go,0.0,0.0,0.0,44.0,1.0,176.0,264.0,88.0,132.0,44.0,220.0,white,circle
0.0,7.0,3.0,1.0,7.0,2.0,2353.4562069999083,2.0,1.0,part_3,go,0.0,0.0,0.0,147.0,3.0,98.0,147.0,196.0,49.0,245.0,294.0,yellow,diamond
0.0,8.0,4.0,1.0,7.0,6.0,1767.7563580000424,2.0,1.0,part_3,go,0.0,0.0,0.0,196.0,4.0,294.0,147.0,49.0,245.0,98.0,196.0,magenta,flipped triangle
0.0,6.0,2.0,1.0,7.0,5.0,1256.520754000121,2.0,1.0,part_3,go,0.0,0.0,0.0,78.0,2.0,39.0,195.0,156.0,234.0,78.0,117.0,white,circle
0.0,5.0,1.0,1.0,7.0,2.0,1506.0577909998756,2.0,1.0,part_3,go,0.0,0.0,0.0,147.0,3.0,294.0,147.0,49.0,245.0,98.0,196.0,orange,I
0.0,6.0,2.0,1.0,7.0,6.0,1830.6077380002537,2.0,1.0,part_3,go,0.0,0.0,0.0,204.0,6.0,170.0,68.0,102.0,34.0,136.0,204.0,white,circle
0.0,4.0,4.0,0.0,7.0,3.0,2296.980901000097,2.0,1.0,part_3,go,0.0,0.0,0.0,234.0,6.0,117.0,39.0,234.0,195.0,78.0,156.0,green,triangle
0.0,7.0,3.0,1.0,7.0,5.0,1925.5388850006057,2.0,1.0,part_3,go,0.0,0.0,0.0,162.0,3.0,108.0,54.0,324.0,216.0,162.0,270.0,yellow,diamond
0.0,3.0,3.0,0.0,7.0,1.0,1070.0217419998808,2.0,1.0,part_3,go,0.0,0.0,0.0,196.0,4.0,196.0,49.0,245.0,294.0,98.0,147.0,cyan,cross
0.0,1.0,1.0,0.0,7.0,5.0,1146.3981260003493,2.0,1.0,part_3,go,0.0,0.0,0.0,162.0,3.0,216.0,270.0,324.0,108.0,162.0,54.0,gray,square
0.0,3.0,3.0,0.0,7.0,3.0,1434.2849180002304,2.0,1.0,part_3,go,0.0,0.0,0.0,156.0,4.0,117.0,39.0,156.0,78.0,234.0,195.0,cyan,cross
0.0,4.0,4.0,0.0,7.0,2.0,2275.315502000012,2.0,1.0,part_3,go,0.0,0.0,0.0,147.0,3.0,98.0,147.0,294.0,245.0,49.0,196.0,green,triangle
0.0,6.0,2.0,1.0,7.0,4.0,1801.899154000239,2.0,1.0,part_3,go,0.0,0.0,0.0,98.0,2.0,49.0,245.0,147.0,98.0,196.0,294.0,white,circle
0.0,3.0,3.0,0.0,7.0,5.0,1213.2058510005663,2.0,1.0,part_3,go,0.0,0.0,0.0,170.0,5.0,136.0,204.0,102.0,34.0,170.0,68.0,cyan,cross
0.0,5.0,1.0,1.0,7.0,5.0,2830.3830120003113,2.0,1.0,part_3,go,0.0,0.0,0.0,68.0,2.0,170.0,136.0,34.0,204.0,68.0,102.0,orange,I
0.0,1.0,1.0,0.0,7.0,2.0,1700.1135640002758,2.0,1.0,part_3,go,0.0,0.0,0.0,88.0,2.0,176.0,88.0,44.0,132.0,264.0,220.0,gray,square
0.0,5.0,1.0,1.0,7.0,6.0,1085.6209180001315,2.0,1.0,part_3,go,0.0,0.0,0.0,98.0,2.0,147.0,196.0,49.0,294.0,245.0,98.0,orange,I
0.0,8.0,4.0,1.0,7.0,6.0,1629.078412999661,2.0,1.0,part_3,go,0.0,0.0,0.0,136.0,4.0,34.0,102.0,68.0,204.0,170.0,136.0,magenta,flipped triangle
0.0,1.0,1.0,0.0,7.0,3.0,2672.774027999367,3.0,1.0,part_3,go,0.0,0.0,0.0,195.0,5.0,117.0,156.0,195.0,234.0,78.0,39.0,gray,square
0.0,6.0,2.0,1.0,7.0,4.0,1917.719342000055,3.0,1.0,part_3,go,0.0,0.0,0.0,162.0,3.0,108.0,324.0,54.0,162.0,216.0,270.0,white,circle
0.0,8.0,4.0,1.0,7.0,5.0,1544.744081999852,3.0,1.0,part_3,go,0.0,0.0,0.0,136.0,4.0,204.0,68.0,170.0,102.0,136.0,34.0,magenta,flipped triangle
0.0,2.0,2.0,0.0,7.0,4.0,1964.848200999768,3.0,1.0,part_3,go,0.0,0.0,0.0,170.0,5.0,34.0,68.0,102.0,170.0,204.0,136.0,blue,hexagon
0.0,6.0,2.0,1.0,7.0,3.0,2440.5017409999346,3.0,1.0,part_3,go,0.0,0.0,0.0,136.0,4.0,204.0,34.0,136.0,170.0,68.0,102.0,white,circle
0.0,4.0,4.0,0.0,7.0,1.0,2271.492997000678,3.0,1.0,part_3,go,0.0,0.0,0.0,216.0,4.0,216.0,162.0,324.0,108.0,270.0,54.0,green,triangle
0.0,2.0,2.0,0.0,7.0,6.0,1540.7896389997404,3.0,1.0,part_3,go,0.0,0.0,0.0,108.0,2.0,162.0,270.0,54.0,216.0,324.0,108.0,blue,hexagon
0.0,4.0,4.0,0.0,7.0,4.0,2471.6464190005354,3.0,1.0,part_3,go,0.0,0.0,0.0,220.0,5.0,132.0,176.0,44.0,220.0,88.0,264.0,green,triangle
0.0,3.0,3.0,0.0,7.0,5.0,1361.4345480000338,3.0,1.0,part_3,go,0.0,0.0,0.0,156.0,4.0,234.0,39.0,78.0,195.0,156.0,117.0,cyan,cross
0.0,6.0,2.0,1.0,7.0,2.0,2915.4592740005683,3.0,1.0,part_3,go,0.0,0.0,0.0,176.0,4.0,220.0,176.0,264.0,44.0,132.0,88.0,white,circle
0.0,6.0,2.0,1.0,7.0,6.0,2966.184551999504,3.0,1.0,part_3,go,0.0,0.0,0.0,196.0,4.0,49.0,294.0,98.0,245.0,147.0,196.0,white,circle
0.0,4.0,4.0,0.0,7.0,3.0,3280.4339179992894,3.0,1.0,part_3,go,0.0,0.0,0.0,196.0,4.0,147.0,245.0,196.0,49.0,98.0,294.0,green,triangle
0.0,2.0,2.0,0.0,7.0,6.0,3377.9715909995502,3.0,1.0,part_3,go,0.0,0.0,0.0,176.0,4.0,44.0,220.0,132.0,264.0,88.0,176.0,blue,hexagon
0.0,5.0,1.0,1.0,7.0,1.0,3590.2593969994996,3.0,1.0,part_3,go,0.0,0.0,0.0,88.0,2.0,88.0,132.0,220.0,44.0,264.0,176.0,orange,I
0.0,2.0,2.0,0.0,7.0,6.0,1478.6395730006916,3.0,1.0,part_3,go,0.0,0.0,0.0,162.0,3.0,54.0,216.0,270.0,108.0,324.0,162.0,blue,hexagon
0.0,5.0,1.0,1.0,7.0,6.0,1238.0794390001029,3.0,1.0,part_3,go,0.0,0.0,0.0,162.0,3.0,324.0,108.0,270.0,54.0,216.0,162.0,orange,I
0.0,3.0,3.0,0.0,7.0,3.0,3045.10326000036,3.0,1.0,part_3,go,0.0,0.0,0.0,196.0,4.0,147.0,245.0,196.0,98.0,294.0,49.0,cyan,cross
0.0,5.0,1.0,1.0,7.0,6.0,1524.9125450000065,3.0,1.0,part_3,go,0.0,0.0,0.0,162.0,3.0,324.0,108.0,54.0,216.0,270.0,162.0,orange,I
0.0,7.0,3.0,1.0,7.0,5.0,2968.62028599935,3.0,1.0,part_3,go,0.0,0.0,0.0,176.0,4.0,44.0,132.0,88.0,220.0,176.0,264.0,yellow,diamond
0.0,7.0,3.0,1.0,7.0,1.0,1893.8007340002512,3.0,1.0,part_3,go,0.0,0.0,0.0,132.0,3.0,132.0,220.0,88.0,176.0,264.0,44.0,yellow,diamond
0.0,2.0,2.0,0.0,7.0,5.0,1860.71852600071,4.0,1.0,part_3,go,0.0,0.0,0.0,132.0,3.0,176.0,220.0,264.0,44.0,132.0,88.0,blue,hexagon
0.0,7.0,3.0,1.0,7.0,2.0,2606.189756000276,4.0,1.0,part_3,go,0.0,0.0,0.0,147.0,3.0,49.0,147.0,245.0,196.0,294.0,98.0,yellow,diamond
0.0,4.0,4.0,0.0,7.0,6.0,1377.603463000014,4.0,1.0,part_3,go,0.0,0.0,0.0,176.0,4.0,132.0,88.0,44.0,264.0,220.0,176.0,green,triangle
0.0,6.0,2.0,1.0,7.0,6.0,2704.602531999626,4.0,1.0,part_3,go,0.0,0.0,0.0,117.0,3.0,78.0,195.0,39.0,156.0,234.0,117.0,white,circle
0.0,8.0,4.0,1.0,7.0,6.0,1589.447098999699,4.0,1.0,part_3,go,0.0,0.0,0.0,195.0,5.0,117.0,78.0,156.0,39.0,234.0,195.0,magenta,flipped triangle
0.0,2.0,2.0,0.0,7.0,6.0,1943.970389999777,4.0,1.0,part_3,go,0.0,0.0,0.0,147.0,3.0,245.0,49.0,196.0,294.0,98.0,147.0,blue,hexagon
0.0,1.0,1.0,0.0,7.0,6.0,2396.987318000356,4.0,1.0,part_3,go,0.0,0.0,0.0,156.0,4.0,78.0,117.0,195.0,39.0,234.0,156.0,gray,square
0.0,7.0,3.0,1.0,7.0,1.0,1092.3683139999412,4.0,1.0,part_3,go,0.0,0.0,0.0,216.0,4.0,216.0,324.0,108.0,270.0,162.0,54.0,yellow,diamond
0.0,1.0,1.0,0.0,7.0,4.0,1584.0839759994196,4.0,1.0,part_3,go,0.0,0.0,0.0,136.0,4.0,68.0,34.0,102.0,136.0,204.0,170.0,gray,square
0.0,2.0,2.0,0.0,7.0,4.0,1708.1985770000756,4.0,1.0,part_3,go,0.0,0.0,0.0,195.0,5.0,234.0,39.0,156.0,195.0,117.0,78.0,blue,hexagon
0.0,7.0,3.0,1.0,7.0,6.0,2351.2333680000665,4.0,1.0,part_3,go,0.0,0.0,0.0,195.0,5.0,156.0,234.0,78.0,39.0,117.0,195.0,yellow,diamond
0.0,4.0,4.0,0.0,7.0,6.0,2075.5090700004075,4.0,1.0,part_3,go,0.0,0.0,0.0,216.0,4.0,108.0,162.0,324.0,54.0,270.0,216.0,green,triangle
0.0,6.0,2.0,1.0,7.0,3.0,2718.4492319993296,4.0,1.0,part_3,go,0.0,0.0,0.0,324.0,6.0,270.0,216.0,324.0,108.0,54.0,162.0,white,circle
0.0,3.0,3.0,0.0,7.0,2.0,2715.6272479996915,4.0,1.0,part_3,go,0.0,0.0,0.0,176.0,4.0,132.0,176.0,44.0,264.0,220.0,88.0,cyan,cross
0.0,4.0,4.0,0.0,7.0,6.0,1773.7036399994397,4.0,1.0,part_3,go,0.0,0.0,0.0,34.0,1.0,68.0,102.0,204.0,170.0,136.0,34.0,green,triangle
0.0,7.0,3.0,1.0,7.0,1.0,1043.3928160000503,4.0,1.0,part_3,go,0.0,0.0,0.0,102.0,3.0,102.0,68.0,204.0,34.0,136.0,170.0,yellow,diamond
0.0,5.0,1.0,1.0,7.0,6.0,1834.4236969996928,4.0,1.0,part_3,go,0.0,0.0,0.0,117.0,3.0,156.0,78.0,234.0,195.0,39.0,117.0,orange,I
0.0,8.0,4.0,1.0,7.0,6.0,1615.252626000256,4.0,1.0,part_3,go,0.0,0.0,0.0,216.0,4.0,54.0,270.0,324.0,162.0,108.0,216.0,magenta,flipped triangle
0.0,7.0,3.0,1.0,7.0,5.0,1734.3514969998068,4.0,1.0,part_3,go,0.0,0.0,0.0,136.0,4.0,102.0,204.0,34.0,68.0,136.0,170.0,yellow,diamond
0.0,8.0,4.0,1.0,7.0,6.0,1941.343532999781,4.0,1.0,part_3,go,0.0,0.0,0.0,132.0,3.0,220.0,44.0,88.0,264.0,176.0,132.0,magenta,flipped triangle
