raw_reward_magnitude,stim_reward,stepwise_reward_magnitude,paired_with_stopping,stim_location,response,reaction_time,block,num_trial_presentations,which_phase,stop_signal_trial_type,left_SSD,right_SSD,accuracy,chosen_bidding_amount,chosen_bidding_level,possible_bid_1,possible_bid_2,possible_bid_3,possible_bid_4,possible_bid_5,possible_bid_6,color_text,shape_text
118.0,6.0,2.0,1.0,3.0,3.0,448.2094769996365,1.0,1.0,phase_1,,,,,,,,,,,,,gray,I
78.0,6.0,2.0,1.0,2.0,2.0,353.5633849996884,1.0,1.0,phase_1,,,,,,,,,,,,,gray,I
176.0,7.0,3.0,1.0,3.0,3.0,389.8690679998253,1.0,1.0,phase_1,,,,,,,,,,,,,cyan,diamond
0.0,1.0,0.0,0.0,2.0,2.0,301.8360610003583,1.0,1.0,phase_1,,,,,,,,,,,,,white,square
407.0,4.0,4.0,0.0,1.0,1.0,322.5213149999035,1.0,1.0,phase_1,,,,,,,,,,,,,orange,hexagon
411.0,4.0,4.0,0.0,3.0,3.0,363.1214299998646,1.0,1.0,phase_1,,,,,,,,,,,,,orange,hexagon
198.0,7.0,3.0,1.0,4.0,4.0,490.7885540001189,1.0,1.0,phase_1,,,,,,,,,,,,,cyan,diamond
0.0,5.0,0.0,1.0,3.0,3.0,499.7323179995874,1.0,1.0,phase_1,,,,,,,,,,,,,yellow,flipped triangle
120.0,6.0,2.0,1.0,4.0,4.0,477.5049699996998,1.0,1.0,phase_1,,,,,,,,,,,,,gray,I
0.0,2.0,0.0,0.0,4.0,4.0,460.4066090000742,1.0,1.0,phase_1,,,,,,,,,,,,,magenta,triangle
208.0,3.0,3.0,0.0,1.0,1.0,324.0291880001678,1.0,1.0,phase_1,,,,,,,,,,,,,blue,circle
197.0,3.0,3.0,0.0,3.0,3.0,285.1357909999024,1.0,1.0,phase_1,,,,,,,,,,,,,blue,circle
391.0,8.0,4.0,1.0,2.0,2.0,386.2820160002229,1.0,1.0,phase_1,,,,,,,,,,,,,green,cross
197.0,7.0,3.0,1.0,4.0,4.0,438.9702349999425,1.0,1.0,phase_1,,,,,,,,,,,,,cyan,diamond
109.0,6.0,2.0,1.0,3.0,3.0,329.2356700003438,1.0,1.0,phase_1,,,,,,,,,,,,,gray,I
107.0,2.0,2.0,0.0,4.0,4.0,300.0091299995802,1.0,1.0,phase_1,,,,,,,,,,,,,magenta,triangle
118.0,2.0,2.0,0.0,2.0,2.0,377.1095369997965,1.0,1.0,phase_1,,,,,,,,,,,,,magenta,triangle
417.0,8.0,4.0,1.0,2.0,2.0,384.2791199999738,1.0,1.0,phase_1,,,,,,,,,,,,,green,cross
0.0,4.0,0.0,0.0,3.0,3.0,349.8348739999528,1.0,1.0,phase_1,,,,,,,,,,,,,orange,hexagon
120.0,2.0,2.0,0.0,3.0,3.0,336.839327999769,1.0,1.0,phase_1,,,,,,,,,,,,,magenta,triangle
222.0,3.0,3.0,0.0,2.0,2.0,331.1168939999334,1.0,1.0,phase_1,,,,,,,,,,,,,blue,circle
91.0,6.0,2.0,1.0,2.0,2.0,337.2741250000217,1.0,1.0,phase_1,,,,,,,,,,,,,gray,I
0.0,7.0,0.0,1.0,4.0,4.0,360.6850979999763,1.0,1.0,phase_1,,,,,,,,,,,,,cyan,diamond
0.0,7.0,0.0,1.0,4.0,4.0,331.6628760003368,1.0,1.0,phase_1,,,,,,,,,,,,,cyan,diamond
92.0,2.0,2.0,0.0,4.0,4.0,368.0499120000604,1.0,1.0,phase_1,,,,,,,,,,,,,magenta,triangle
410.0,8.0,4.0,1.0,3.0,3.0,359.2202159998123,1.0,1.0,phase_1,,,,,,,,,,,,,green,cross
400.0,8.0,4.0,1.0,1.0,1.0,508.6687759999222,1.0,1.0,phase_1,,,,,,,,,,,,,green,cross
51.0,1.0,1.0,0.0,1.0,1.0,441.3084309999249,1.0,2.0,phase_1,,,,,,,,,,,,,white,square
43.0,1.0,1.0,0.0,4.0,4.0,398.784199000147,1.0,1.0,phase_1,,,,,,,,,,,,,white,square
383.0,8.0,4.0,1.0,4.0,4.0,371.9840839999051,1.0,1.0,phase_1,,,,,,,,,,,,,green,cross
222.0,3.0,3.0,0.0,4.0,4.0,420.0005590000728,1.0,1.0,phase_1,,,,,,,,,,,,,blue,circle
198.0,3.0,3.0,0.0,3.0,3.0,411.34896199992,1.0,1.0,phase_1,,,,,,,,,,,,,blue,circle
194.0,7.0,3.0,1.0,3.0,3.0,345.4968519999966,1.0,1.0,phase_1,,,,,,,,,,,,,cyan,diamond
36.0,5.0,1.0,1.0,2.0,2.0,365.1004289999946,1.0,1.0,phase_1,,,,,,,,,,,,,yellow,flipped triangle
37.0,5.0,1.0,1.0,2.0,2.0,365.4227729998638,1.0,1.0,phase_1,,,,,,,,,,,,,yellow,flipped triangle
217.0,7.0,3.0,1.0,2.0,2.0,303.0669660001877,1.0,1.0,phase_1,,,,,,,,,,,,,cyan,diamond
0.0,8.0,0.0,1.0,3.0,3.0,425.8366649996787,1.0,1.0,phase_1,,,,,,,,,,,,,green,cross
225.0,7.0,3.0,1.0,2.0,2.0,367.8892200000518,1.0,1.0,phase_1,,,,,,,,,,,,,cyan,diamond
376.0,8.0,4.0,1.0,2.0,2.0,284.8476009999103,1.0,1.0,phase_1,,,,,,,,,,,,,green,cross
80.0,6.0,2.0,1.0,1.0,1.0,498.95601700018227,1.0,1.0,phase_1,,,,,,,,,,,,,gray,I
410.0,4.0,4.0,0.0,3.0,3.0,353.8104520002889,1.0,1.0,phase_1,,,,,,,,,,,,,orange,hexagon
68.0,5.0,1.0,1.0,3.0,3.0,473.5911009997835,1.0,1.0,phase_1,,,,,,,,,,,,,yellow,flipped triangle
217.0,3.0,3.0,0.0,1.0,1.0,347.1548180000354,1.0,1.0,phase_1,,,,,,,,,,,,,blue,circle
120.0,6.0,2.0,1.0,3.0,3.0,366.3671019999128,1.0,1.0,phase_1,,,,,,,,,,,,,gray,I
205.0,7.0,3.0,1.0,1.0,1.0,322.765537000123,1.0,1.0,phase_1,,,,,,,,,,,,,cyan,diamond
410.0,8.0,4.0,1.0,1.0,1.0,391.2225050003144,1.0,1.0,phase_1,,,,,,,,,,,,,green,cross
0.0,4.0,0.0,0.0,1.0,1.0,435.4007590000037,1.0,1.0,phase_1,,,,,,,,,,,,,orange,hexagon
0.0,6.0,0.0,1.0,3.0,3.0,359.3423229999644,1.0,1.0,phase_1,,,,,,,,,,,,,gray,I
44.0,1.0,1.0,0.0,2.0,2.0,438.7502380000114,1.0,1.0,phase_1,,,,,,,,,,,,,white,square
181.0,7.0,3.0,1.0,2.0,2.0,360.1664770003481,1.0,1.0,phase_1,,,,,,,,,,,,,cyan,diamond
62.0,1.0,1.0,0.0,2.0,2.0,563.9145740001368,1.0,1.0,phase_1,,,,,,,,,,,,,white,square
0.0,1.0,0.0,0.0,3.0,3.0,422.7634119997674,1.0,1.0,phase_1,,,,,,,,,,,,,white,square
416.0,4.0,4.0,0.0,2.0,2.0,350.3757120001864,1.0,1.0,phase_1,,,,,,,,,,,,,orange,hexagon
58.0,1.0,1.0,0.0,4.0,4.0,321.88452399987,1.0,1.0,phase_1,,,,,,,,,,,,,white,square
218.0,3.0,3.0,0.0,1.0,1.0,301.7316690002189,1.0,1.0,phase_1,,,,,,,,,,,,,blue,circle
95.0,6.0,2.0,1.0,2.0,2.0,297.3829290003777,1.0,1.0,phase_1,,,,,,,,,,,,,gray,I
407.0,8.0,4.0,1.0,3.0,3.0,289.7394050000912,1.0,1.0,phase_1,,,,,,,,,,,,,green,cross
0.0,5.0,0.0,1.0,4.0,4.0,410.8839330001501,1.0,1.0,phase_1,,,,,,,,,,,,,yellow,flipped triangle
203.0,7.0,3.0,1.0,2.0,2.0,336.1892249999982,1.0,1.0,phase_1,,,,,,,,,,,,,cyan,diamond
416.0,8.0,4.0,1.0,4.0,4.0,365.4179970003497,1.0,1.0,phase_1,,,,,,,,,,,,,green,cross
210.0,3.0,3.0,0.0,4.0,4.0,335.0614719997793,1.0,1.0,phase_1,,,,,,,,,,,,,blue,circle
109.0,2.0,2.0,0.0,2.0,2.0,335.9911080001438,1.0,1.0,phase_1,,,,,,,,,,,,,magenta,triangle
212.0,7.0,3.0,1.0,4.0,4.0,374.4606189998194,1.0,1.0,phase_1,,,,,,,,,,,,,cyan,diamond
28.0,5.0,1.0,1.0,1.0,1.0,417.2097529999519,1.0,1.0,phase_1,,,,,,,,,,,,,yellow,flipped triangle
0.0,5.0,0.0,1.0,4.0,4.0,395.4968279999775,1.0,2.0,phase_1,,,,,,,,,,,,,yellow,flipped triangle
424.0,8.0,4.0,1.0,2.0,2.0,369.9434340001062,1.0,1.0,phase_1,,,,,,,,,,,,,green,cross
44.0,1.0,1.0,0.0,1.0,1.0,471.523242999865,1.0,1.0,phase_1,,,,,,,,,,,,,white,square
0.0,4.0,0.0,0.0,4.0,4.0,471.8613200002437,1.0,1.0,phase_1,,,,,,,,,,,,,orange,hexagon
0.0,8.0,0.0,1.0,1.0,1.0,506.3804410001467,1.0,1.0,phase_1,,,,,,,,,,,,,green,cross
0.0,2.0,0.0,0.0,2.0,2.0,405.0035600002957,1.0,1.0,phase_1,,,,,,,,,,,,,magenta,triangle
0.0,3.0,0.0,0.0,2.0,2.0,489.7790320001149,1.0,1.0,phase_1,,,,,,,,,,,,,blue,circle
179.0,3.0,3.0,0.0,3.0,3.0,392.7699439996104,1.0,1.0,phase_1,,,,,,,,,,,,,blue,circle
402.0,8.0,4.0,1.0,3.0,3.0,480.6132700000489,1.0,1.0,phase_1,,,,,,,,,,,,,green,cross
56.0,1.0,1.0,0.0,3.0,3.0,448.5411249997924,1.0,1.0,phase_1,,,,,,,,,,,,,white,square
0.0,6.0,0.0,1.0,3.0,3.0,329.3837379997058,1.0,1.0,phase_1,,,,,,,,,,,,,gray,I
0.0,5.0,0.0,1.0,2.0,2.0,410.5414699997709,1.0,1.0,phase_1,,,,,,,,,,,,,yellow,flipped triangle
402.0,4.0,4.0,0.0,1.0,1.0,431.5489240002534,1.0,1.0,phase_1,,,,,,,,,,,,,orange,hexagon
175.0,7.0,3.0,1.0,1.0,1.0,351.6282119999232,1.0,1.0,phase_1,,,,,,,,,,,,,cyan,diamond
64.0,5.0,1.0,1.0,1.0,1.0,354.3690599999536,1.0,1.0,phase_1,,,,,,,,,,,,,yellow,flipped triangle
102.0,6.0,2.0,1.0,3.0,3.0,393.7774460000582,1.0,1.0,phase_1,,,,,,,,,,,,,gray,I
178.0,7.0,3.0,1.0,2.0,2.0,351.9185959999049,1.0,1.0,phase_1,,,,,,,,,,,,,cyan,diamond
401.0,8.0,4.0,1.0,2.0,2.0,422.4990799998522,1.0,1.0,phase_1,,,,,,,,,,,,,green,cross
400.0,4.0,4.0,0.0,4.0,4.0,378.4956919998876,1.0,1.0,phase_1,,,,,,,,,,,,,orange,hexagon
222.0,7.0,3.0,1.0,1.0,1.0,339.6037470001829,1.0,1.0,phase_1,,,,,,,,,,,,,cyan,diamond
0.0,2.0,0.0,0.0,1.0,1.0,312.4812169999131,1.0,1.0,phase_1,,,,,,,,,,,,,magenta,triangle
123.0,6.0,2.0,1.0,1.0,1.0,404.3774120000307,1.0,1.0,phase_1,,,,,,,,,,,,,gray,I
391.0,4.0,4.0,0.0,3.0,3.0,407.0878130000892,1.0,1.0,phase_1,,,,,,,,,,,,,orange,hexagon
89.0,2.0,2.0,0.0,2.0,2.0,323.046401999818,1.0,1.0,phase_1,,,,,,,,,,,,,magenta,triangle
39.0,1.0,1.0,0.0,4.0,4.0,399.6074289998432,1.0,1.0,phase_1,,,,,,,,,,,,,white,square
43.0,5.0,1.0,1.0,2.0,2.0,362.7683580002667,1.0,1.0,phase_1,,,,,,,,,,,,,yellow,flipped triangle
418.0,4.0,4.0,0.0,3.0,3.0,345.2906370002893,1.0,1.0,phase_1,,,,,,,,,,,,,orange,hexagon
209.0,3.0,3.0,0.0,2.0,2.0,312.8159760003655,1.0,1.0,phase_1,,,,,,,,,,,,,blue,circle
123.0,2.0,2.0,0.0,1.0,1.0,378.460964000169,1.0,1.0,phase_1,,,,,,,,,,,,,magenta,triangle
110.0,2.0,2.0,0.0,3.0,3.0,344.3489539999973,1.0,1.0,phase_1,,,,,,,,,,,,,magenta,triangle
36.0,5.0,1.0,1.0,4.0,4.0,455.6027399999038,1.0,1.0,phase_1,,,,,,,,,,,,,yellow,flipped triangle
0.0,3.0,0.0,0.0,1.0,1.0,426.6747249998843,1.0,1.0,phase_1,,,,,,,,,,,,,blue,circle
0.0,3.0,0.0,0.0,1.0,1.0,290.6347509997431,1.0,1.0,phase_1,,,,,,,,,,,,,blue,circle
67.0,5.0,1.0,1.0,3.0,3.0,347.1819010001127,1.0,1.0,phase_1,,,,,,,,,,,,,yellow,flipped triangle
410.0,4.0,4.0,0.0,4.0,4.0,439.2307540001638,1.0,1.0,phase_1,,,,,,,,,,,,,orange,hexagon
0.0,4.0,0.0,0.0,4.0,4.0,403.4688860001552,1.0,1.0,phase_1,,,,,,,,,,,,,orange,hexagon
94.0,6.0,2.0,1.0,2.0,2.0,387.1166639996772,2.0,1.0,phase_1,,,,,,,,,,,,,gray,I
112.0,6.0,2.0,1.0,3.0,3.0,401.8845260002308,2.0,1.0,phase_1,,,,,,,,,,,,,gray,I
412.0,4.0,4.0,0.0,4.0,4.0,411.5645799997764,2.0,1.0,phase_1,,,,,,,,,,,,,orange,hexagon
179.0,7.0,3.0,1.0,4.0,4.0,389.1334619997906,2.0,1.0,phase_1,,,,,,,,,,,,,cyan,diamond
124.0,2.0,2.0,0.0,3.0,3.0,434.5572860001994,2.0,2.0,phase_1,,,,,,,,,,,,,magenta,triangle
215.0,3.0,3.0,0.0,1.0,1.0,453.4913600000436,2.0,1.0,phase_1,,,,,,,,,,,,,blue,circle
175.0,3.0,3.0,0.0,1.0,1.0,436.8393680001645,2.0,1.0,phase_1,,,,,,,,,,,,,blue,circle
191.0,3.0,3.0,0.0,3.0,3.0,280.7114239999464,2.0,1.0,phase_1,,,,,,,,,,,,,blue,circle
113.0,6.0,2.0,1.0,2.0,2.0,531.4640830001736,2.0,1.0,phase_1,,,,,,,,,,,,,gray,I
382.0,8.0,4.0,1.0,4.0,4.0,386.4544080001906,2.0,1.0,phase_1,,,,,,,,,,,,,green,cross
0.0,8.0,0.0,1.0,1.0,1.0,327.3075689999132,2.0,1.0,phase_1,,,,,,,,,,,,,green,cross
0.0,1.0,0.0,0.0,2.0,2.0,317.1963059999143,2.0,1.0,phase_1,,,,,,,,,,,,,white,square
0.0,4.0,0.0,0.0,4.0,4.0,374.1553499999099,2.0,1.0,phase_1,,,,,,,,,,,,,orange,hexagon
210.0,3.0,3.0,0.0,1.0,1.0,274.5833819999461,2.0,1.0,phase_1,,,,,,,,,,,,,blue,circle
0.0,6.0,0.0,1.0,4.0,4.0,350.9717580000142,2.0,1.0,phase_1,,,,,,,,,,,,,gray,I
424.0,4.0,4.0,0.0,2.0,2.0,349.3573890000334,2.0,1.0,phase_1,,,,,,,,,,,,,orange,hexagon
41.0,1.0,1.0,0.0,1.0,1.0,298.3779009996397,2.0,1.0,phase_1,,,,,,,,,,,,,white,square
34.0,5.0,1.0,1.0,3.0,3.0,441.7258900002707,2.0,1.0,phase_1,,,,,,,,,,,,,yellow,flipped triangle
407.0,4.0,4.0,0.0,4.0,4.0,386.0112540000955,2.0,1.0,phase_1,,,,,,,,,,,,,orange,hexagon
0.0,3.0,0.0,0.0,3.0,3.0,461.7194150000614,2.0,1.0,phase_1,,,,,,,,,,,,,blue,circle
0.0,2.0,0.0,0.0,2.0,2.0,378.590794000047,2.0,1.0,phase_1,,,,,,,,,,,,,magenta,triangle
424.0,8.0,4.0,1.0,1.0,1.0,324.4123690001288,2.0,1.0,phase_1,,,,,,,,,,,,,green,cross
68.0,5.0,1.0,1.0,2.0,2.0,400.0622710000243,2.0,1.0,phase_1,,,,,,,,,,,,,yellow,flipped triangle
221.0,3.0,3.0,0.0,1.0,1.0,594.0743629998906,2.0,1.0,phase_1,,,,,,,,,,,,,blue,circle
379.0,4.0,4.0,0.0,2.0,2.0,568.1264800000463,2.0,1.0,phase_1,,,,,,,,,,,,,orange,hexagon
0.0,1.0,0.0,0.0,4.0,4.0,777.2003949999089,2.0,1.0,phase_1,,,,,,,,,,,,,white,square
0.0,4.0,0.0,0.0,2.0,2.0,480.4219729999204,2.0,1.0,phase_1,,,,,,,,,,,,,orange,hexagon
208.0,7.0,3.0,1.0,4.0,4.0,521.0279859998082,2.0,1.0,phase_1,,,,,,,,,,,,,cyan,diamond
222.0,7.0,3.0,1.0,1.0,1.0,428.5019460003241,2.0,1.0,phase_1,,,,,,,,,,,,,cyan,diamond
64.0,1.0,1.0,0.0,2.0,2.0,297.7791319999596,2.0,1.0,phase_1,,,,,,,,,,,,,white,square
398.0,4.0,4.0,0.0,3.0,3.0,382.4471830002949,2.0,1.0,phase_1,,,,,,,,,,,,,orange,hexagon
102.0,2.0,2.0,0.0,2.0,2.0,396.4903359997151,2.0,1.0,phase_1,,,,,,,,,,,,,magenta,triangle
28.0,1.0,1.0,0.0,4.0,4.0,435.7801999999537,2.0,1.0,phase_1,,,,,,,,,,,,,white,square
184.0,7.0,3.0,1.0,3.0,3.0,365.9166229999755,2.0,1.0,phase_1,,,,,,,,,,,,,cyan,diamond
44.0,5.0,1.0,1.0,4.0,4.0,444.2436219997034,2.0,1.0,phase_1,,,,,,,,,,,,,yellow,flipped triangle
0.0,3.0,0.0,0.0,2.0,2.0,374.1878040000301,2.0,1.0,phase_1,,,,,,,,,,,,,blue,circle
397.0,4.0,4.0,0.0,4.0,4.0,429.9142139998366,2.0,1.0,phase_1,,,,,,,,,,,,,orange,hexagon
377.0,8.0,4.0,1.0,1.0,1.0,319.1448160000618,2.0,1.0,phase_1,,,,,,,,,,,,,green,cross
181.0,7.0,3.0,1.0,1.0,1.0,335.9176219996698,2.0,1.0,phase_1,,,,,,,,,,,,,cyan,diamond
0.0,2.0,0.0,0.0,4.0,4.0,356.3583689997358,2.0,1.0,phase_1,,,,,,,,,,,,,magenta,triangle
92.0,6.0,2.0,1.0,4.0,4.0,314.9759689999882,2.0,1.0,phase_1,,,,,,,,,,,,,gray,I
0.0,8.0,0.0,1.0,1.0,1.0,307.6903400001356,2.0,1.0,phase_1,,,,,,,,,,,,,green,cross
35.0,1.0,1.0,0.0,4.0,4.0,319.0191809999305,2.0,1.0,phase_1,,,,,,,,,,,,,white,square
27.0,5.0,1.0,1.0,1.0,1.0,416.8149669999366,2.0,1.0,phase_1,,,,,,,,,,,,,yellow,flipped triangle
32.0,5.0,1.0,1.0,1.0,1.0,341.1744139998518,2.0,1.0,phase_1,,,,,,,,,,,,,yellow,flipped triangle
181.0,3.0,3.0,0.0,4.0,4.0,311.9030140001086,2.0,1.0,phase_1,,,,,,,,,,,,,blue,circle
112.0,2.0,2.0,0.0,1.0,1.0,390.4640639998433,2.0,1.0,phase_1,,,,,,,,,,,,,magenta,triangle
115.0,2.0,2.0,0.0,4.0,4.0,445.4466930001217,2.0,1.0,phase_1,,,,,,,,,,,,,magenta,triangle
113.0,2.0,2.0,0.0,4.0,4.0,388.3998380001685,2.0,1.0,phase_1,,,,,,,,,,,,,magenta,triangle
82.0,6.0,2.0,1.0,1.0,1.0,365.2517059999809,2.0,1.0,phase_1,,,,,,,,,,,,,gray,I
218.0,3.0,3.0,0.0,2.0,2.0,325.3743359996406,2.0,2.0,phase_1,,,,,,,,,,,,,blue,circle
398.0,4.0,4.0,0.0,1.0,1.0,490.2545029999601,2.0,1.0,phase_1,,,,,,,,,,,,,orange,hexagon
52.0,1.0,1.0,0.0,2.0,2.0,557.9395019999538,2.0,1.0,phase_1,,,,,,,,,,,,,white,square
209.0,3.0,3.0,0.0,2.0,2.0,494.3108329998722,2.0,1.0,phase_1,,,,,,,,,,,,,blue,circle
382.0,4.0,4.0,0.0,1.0,1.0,420.6572540001616,2.0,1.0,phase_1,,,,,,,,,,,,,orange,hexagon
80.0,2.0,2.0,0.0,2.0,2.0,400.38798400019,2.0,1.0,phase_1,,,,,,,,,,,,,magenta,triangle
0.0,1.0,0.0,0.0,2.0,2.0,455.188748999717,2.0,1.0,phase_1,,,,,,,,,,,,,white,square
420.0,4.0,4.0,0.0,3.0,3.0,412.515348999932,2.0,1.0,phase_1,,,,,,,,,,,,,orange,hexagon
0.0,2.0,0.0,0.0,4.0,4.0,513.5248569999931,2.0,1.0,phase_1,,,,,,,,,,,,,magenta,triangle
223.0,7.0,3.0,1.0,3.0,3.0,381.2895490000301,2.0,1.0,phase_1,,,,,,,,,,,,,cyan,diamond
36.0,1.0,1.0,0.0,3.0,3.0,418.5659939998913,2.0,1.0,phase_1,,,,,,,,,,,,,white,square
396.0,8.0,4.0,1.0,1.0,1.0,537.9898070000309,2.0,1.0,phase_1,,,,,,,,,,,,,green,cross
58.0,5.0,1.0,1.0,3.0,3.0,460.3605809998043,2.0,1.0,phase_1,,,,,,,,,,,,,yellow,flipped triangle
34.0,1.0,1.0,0.0,2.0,2.0,440.1702039999691,2.0,1.0,phase_1,,,,,,,,,,,,,white,square
41.0,5.0,1.0,1.0,2.0,2.0,492.9500980001648,2.0,1.0,phase_1,,,,,,,,,,,,,yellow,flipped triangle
392.0,4.0,4.0,0.0,4.0,4.0,417.7512960000058,2.0,1.0,phase_1,,,,,,,,,,,,,orange,hexagon
68.0,1.0,1.0,0.0,1.0,1.0,378.2018029996834,2.0,1.0,phase_1,,,,,,,,,,,,,white,square
50.0,1.0,1.0,0.0,3.0,3.0,358.8977259996682,2.0,1.0,phase_1,,,,,,,,,,,,,white,square
72.0,1.0,1.0,0.0,4.0,4.0,560.5209400000604,2.0,1.0,phase_1,,,,,,,,,,,,,white,square
74.0,5.0,1.0,1.0,1.0,1.0,364.354134000223,2.0,1.0,phase_1,,,,,,,,,,,,,yellow,flipped triangle
40.0,1.0,1.0,0.0,3.0,3.0,359.1006359997664,2.0,1.0,phase_1,,,,,,,,,,,,,white,square
44.0,5.0,1.0,1.0,4.0,4.0,393.2757299999139,2.0,1.0,phase_1,,,,,,,,,,,,,yellow,flipped triangle
0.0,2.0,0.0,0.0,2.0,2.0,370.192785999734,2.0,1.0,phase_1,,,,,,,,,,,,,magenta,triangle
194.0,3.0,3.0,0.0,4.0,4.0,417.914643000131,2.0,1.0,phase_1,,,,,,,,,,,,,blue,circle
49.0,1.0,1.0,0.0,1.0,1.0,316.8713610002669,2.0,1.0,phase_1,,,,,,,,,,,,,white,square
52.0,5.0,1.0,1.0,4.0,4.0,497.5741749999542,2.0,1.0,phase_1,,,,,,,,,,,,,yellow,flipped triangle
70.0,5.0,1.0,1.0,1.0,1.0,341.2727229997472,2.0,1.0,phase_1,,,,,,,,,,,,,yellow,flipped triangle
389.0,8.0,4.0,1.0,3.0,3.0,592.3235539999041,2.0,1.0,phase_1,,,,,,,,,,,,,green,cross
423.0,8.0,4.0,1.0,3.0,3.0,490.2583809998759,2.0,1.0,phase_1,,,,,,,,,,,,,green,cross
210.0,7.0,3.0,1.0,3.0,3.0,439.0785059999871,2.0,1.0,phase_1,,,,,,,,,,,,,cyan,diamond
119.0,6.0,2.0,1.0,2.0,2.0,460.1421330003177,2.0,1.0,phase_1,,,,,,,,,,,,,gray,I
205.0,3.0,3.0,0.0,2.0,2.0,490.2029859999857,2.0,1.0,phase_1,,,,,,,,,,,,,blue,circle
218.0,7.0,3.0,1.0,4.0,4.0,433.2250309998926,2.0,1.0,phase_1,,,,,,,,,,,,,cyan,diamond
0.0,6.0,0.0,1.0,4.0,4.0,407.0458279998092,2.0,1.0,phase_1,,,,,,,,,,,,,gray,I
379.0,8.0,4.0,1.0,4.0,4.0,338.6481510001431,2.0,1.0,phase_1,,,,,,,,,,,,,green,cross
52.0,1.0,1.0,0.0,1.0,1.0,343.0226999998922,2.0,1.0,phase_1,,,,,,,,,,,,,white,square
0.0,8.0,0.0,1.0,3.0,3.0,410.0464439998177,2.0,1.0,phase_1,,,,,,,,,,,,,green,cross
107.0,6.0,2.0,1.0,4.0,4.0,381.1675440001636,2.0,1.0,phase_1,,,,,,,,,,,,,gray,I
115.0,2.0,2.0,0.0,4.0,4.0,423.585761999675,2.0,1.0,phase_1,,,,,,,,,,,,,magenta,triangle
0.0,5.0,0.0,1.0,3.0,3.0,409.1856400000324,2.0,1.0,phase_1,,,,,,,,,,,,,yellow,flipped triangle
418.0,8.0,4.0,1.0,2.0,2.0,454.6185200001673,2.0,1.0,phase_1,,,,,,,,,,,,,green,cross
95.0,2.0,2.0,0.0,2.0,2.0,417.7867480002533,2.0,1.0,phase_1,,,,,,,,,,,,,magenta,triangle
0.0,7.0,0.0,1.0,4.0,4.0,458.9114420000442,2.0,1.0,phase_1,,,,,,,,,,,,,cyan,diamond
198.0,7.0,3.0,1.0,2.0,2.0,418.6878440000328,2.0,1.0,phase_1,,,,,,,,,,,,,cyan,diamond
209.0,7.0,3.0,1.0,1.0,1.0,477.0409839998137,2.0,1.0,phase_1,,,,,,,,,,,,,cyan,diamond
382.0,4.0,4.0,0.0,1.0,1.0,388.3387169998968,2.0,1.0,phase_1,,,,,,,,,,,,,orange,hexagon
67.0,1.0,1.0,0.0,1.0,1.0,351.4577939999981,2.0,1.0,phase_1,,,,,,,,,,,,,white,square
61.0,1.0,1.0,0.0,2.0,2.0,548.1571039999835,2.0,1.0,phase_1,,,,,,,,,,,,,white,square
0.0,2.0,0.0,0.0,3.0,3.0,430.5914699998538,2.0,1.0,phase_1,,,,,,,,,,,,,magenta,triangle
101.0,6.0,2.0,1.0,2.0,2.0,560.3229180001108,2.0,1.0,phase_1,,,,,,,,,,,,,gray,I
82.0,6.0,2.0,1.0,4.0,4.0,457.8020300000389,3.0,1.0,phase_1,,,,,,,,,,,,,gray,I
394.0,4.0,4.0,0.0,1.0,1.0,365.1337299997976,3.0,1.0,phase_1,,,,,,,,,,,,,orange,hexagon
0.0,3.0,0.0,0.0,1.0,1.0,308.9743519999501,3.0,1.0,phase_1,,,,,,,,,,,,,blue,circle
74.0,1.0,1.0,0.0,3.0,3.0,394.8841189999257,3.0,1.0,phase_1,,,,,,,,,,,,,white,square
0.0,7.0,0.0,1.0,4.0,4.0,306.3438019999012,3.0,1.0,phase_1,,,,,,,,,,,,,cyan,diamond
52.0,5.0,1.0,1.0,3.0,3.0,385.8104669998283,3.0,1.0,phase_1,,,,,,,,,,,,,yellow,flipped triangle
82.0,2.0,2.0,0.0,3.0,3.0,358.2544870000674,3.0,1.0,phase_1,,,,,,,,,,,,,magenta,triangle
72.0,1.0,1.0,0.0,2.0,2.0,496.1029259998213,3.0,1.0,phase_1,,,,,,,,,,,,,white,square
112.0,2.0,2.0,0.0,1.0,1.0,313.8428639999802,3.0,1.0,phase_1,,,,,,,,,,,,,magenta,triangle
0.0,6.0,0.0,1.0,4.0,4.0,471.1974609999743,3.0,1.0,phase_1,,,,,,,,,,,,,gray,I
411.0,8.0,4.0,1.0,4.0,4.0,402.8348799997729,3.0,1.0,phase_1,,,,,,,,,,,,,green,cross
213.0,7.0,3.0,1.0,4.0,4.0,450.5174189998797,3.0,1.0,phase_1,,,,,,,,,,,,,cyan,diamond
379.0,8.0,4.0,1.0,4.0,4.0,364.7832360002212,3.0,1.0,phase_1,,,,,,,,,,,,,green,cross
74.0,1.0,1.0,0.0,3.0,3.0,364.0828889997465,3.0,1.0,phase_1,,,,,,,,,,,,,white,square
80.0,6.0,2.0,1.0,4.0,4.0,357.225309000114,3.0,1.0,phase_1,,,,,,,,,,,,,gray,I
89.0,6.0,2.0,1.0,4.0,4.0,351.1028059997443,3.0,1.0,phase_1,,,,,,,,,,,,,gray,I
208.0,3.0,3.0,0.0,4.0,4.0,386.5655770000558,3.0,1.0,phase_1,,,,,,,,,,,,,blue,circle
0.0,6.0,0.0,1.0,2.0,2.0,461.3638659998287,3.0,1.0,phase_1,,,,,,,,,,,,,gray,I
33.0,1.0,1.0,0.0,4.0,4.0,397.8925049996178,3.0,1.0,phase_1,,,,,,,,,,,,,white,square
0.0,6.0,0.0,1.0,2.0,2.0,420.205241000076,3.0,1.0,phase_1,,,,,,,,,,,,,gray,I
115.0,6.0,2.0,1.0,3.0,3.0,437.722974999815,3.0,1.0,phase_1,,,,,,,,,,,,,gray,I
111.0,6.0,2.0,1.0,2.0,2.0,377.4856639997779,3.0,1.0,phase_1,,,,,,,,,,,,,gray,I
0.0,7.0,0.0,1.0,4.0,4.0,338.4401270000126,3.0,1.0,phase_1,,,,,,,,,,,,,cyan,diamond
194.0,7.0,3.0,1.0,3.0,3.0,374.3187690001832,3.0,1.0,phase_1,,,,,,,,,,,,,cyan,diamond
221.0,7.0,3.0,1.0,2.0,2.0,373.7536620001265,3.0,1.0,phase_1,,,,,,,,,,,,,cyan,diamond
178.0,3.0,3.0,0.0,3.0,3.0,363.9446440001848,3.0,1.0,phase_1,,,,,,,,,,,,,blue,circle
383.0,4.0,4.0,0.0,1.0,1.0,377.0467149997785,3.0,1.0,phase_1,,,,,,,,,,,,,orange,hexagon
82.0,2.0,2.0,0.0,2.0,2.0,355.0688760001321,3.0,1.0,phase_1,,,,,,,,,,,,,magenta,triangle
392.0,4.0,4.0,0.0,2.0,2.0,364.5553660003315,3.0,1.0,phase_1,,,,,,,,,,,,,orange,hexagon
43.0,5.0,1.0,1.0,4.0,4.0,389.8992919998818,3.0,1.0,phase_1,,,,,,,,,,,,,yellow,flipped triangle
120.0,2.0,2.0,0.0,3.0,3.0,355.4967889999716,3.0,1.0,phase_1,,,,,,,,,,,,,magenta,triangle
35.0,5.0,1.0,1.0,3.0,3.0,371.8270909998864,3.0,1.0,phase_1,,,,,,,,,,,,,yellow,flipped triangle
194.0,3.0,3.0,0.0,2.0,2.0,407.1663310000986,3.0,1.0,phase_1,,,,,,,,,,,,,blue,circle
183.0,3.0,3.0,0.0,1.0,1.0,354.1921179999008,3.0,1.0,phase_1,,,,,,,,,,,,,blue,circle
0.0,6.0,0.0,1.0,2.0,2.0,324.3096420001166,3.0,1.0,phase_1,,,,,,,,,,,,,gray,I
124.0,6.0,2.0,1.0,1.0,1.0,321.0218389999681,3.0,1.0,phase_1,,,,,,,,,,,,,gray,I
397.0,8.0,4.0,1.0,3.0,3.0,410.7099389998438,3.0,1.0,phase_1,,,,,,,,,,,,,green,cross
392.0,4.0,4.0,0.0,3.0,3.0,333.7330949998431,3.0,1.0,phase_1,,,,,,,,,,,,,orange,hexagon
420.0,8.0,4.0,1.0,1.0,1.0,488.8155479998204,3.0,1.0,phase_1,,,,,,,,,,,,,green,cross
94.0,2.0,2.0,0.0,1.0,1.0,360.1884539998536,3.0,1.0,phase_1,,,,,,,,,,,,,magenta,triangle
424.0,4.0,4.0,0.0,4.0,4.0,331.585874999746,3.0,1.0,phase_1,,,,,,,,,,,,,orange,hexagon
217.0,7.0,3.0,1.0,3.0,3.0,352.6636940000571,3.0,1.0,phase_1,,,,,,,,,,,,,cyan,diamond
176.0,3.0,3.0,0.0,2.0,2.0,393.4389629998804,3.0,1.0,phase_1,,,,,,,,,,,,,blue,circle
412.0,8.0,4.0,1.0,4.0,4.0,337.891383999704,3.0,1.0,phase_1,,,,,,,,,,,,,green,cross
0.0,4.0,0.0,0.0,1.0,1.0,309.7369730003265,3.0,1.0,phase_1,,,,,,,,,,,,,orange,hexagon
51.0,1.0,1.0,0.0,2.0,2.0,361.7229609999413,3.0,1.0,phase_1,,,,,,,,,,,,,white,square
68.0,1.0,1.0,0.0,1.0,1.0,330.3045500001644,3.0,1.0,phase_1,,,,,,,,,,,,,white,square
49.0,5.0,1.0,1.0,1.0,1.0,315.7446010000058,3.0,1.0,phase_1,,,,,,,,,,,,,yellow,flipped triangle
49.0,1.0,1.0,0.0,4.0,4.0,424.7700549999536,3.0,1.0,phase_1,,,,,,,,,,,,,white,square
392.0,8.0,4.0,1.0,2.0,2.0,373.751921999883,3.0,1.0,phase_1,,,,,,,,,,,,,green,cross
116.0,6.0,2.0,1.0,4.0,4.0,403.4591390000059,3.0,2.0,phase_1,,,,,,,,,,,,,gray,I
0.0,5.0,0.0,1.0,3.0,3.0,336.6640770000231,3.0,1.0,phase_1,,,,,,,,,,,,,yellow,flipped triangle
106.0,6.0,2.0,1.0,1.0,1.0,447.2810639999807,3.0,1.0,phase_1,,,,,,,,,,,,,gray,I
394.0,8.0,4.0,1.0,4.0,4.0,360.6803919997219,3.0,1.0,phase_1,,,,,,,,,,,,,green,cross
209.0,7.0,3.0,1.0,4.0,4.0,419.3949119999161,3.0,1.0,phase_1,,,,,,,,,,,,,cyan,diamond
0.0,5.0,0.0,1.0,1.0,1.0,495.9318070000336,3.0,1.0,phase_1,,,,,,,,,,,,,yellow,flipped triangle
0.0,3.0,0.0,0.0,4.0,4.0,480.7057680000071,3.0,1.0,phase_1,,,,,,,,,,,,,blue,circle
187.0,3.0,3.0,0.0,4.0,4.0,430.2317690003292,3.0,1.0,phase_1,,,,,,,,,,,,,blue,circle
33.0,5.0,1.0,1.0,1.0,1.0,509.74819800012483,3.0,1.0,phase_1,,,,,,,,,,,,,yellow,flipped triangle
93.0,6.0,2.0,1.0,3.0,3.0,508.3228649996272,3.0,1.0,phase_1,,,,,,,,,,,,,gray,I
0.0,5.0,0.0,1.0,4.0,4.0,545.4295919998913,3.0,1.0,phase_1,,,,,,,,,,,,,yellow,flipped triangle
62.0,5.0,1.0,1.0,2.0,2.0,315.1702799996201,3.0,1.0,phase_1,,,,,,,,,,,,,yellow,flipped triangle
72.0,5.0,1.0,1.0,1.0,1.0,356.8040850000216,3.0,1.0,phase_1,,,,,,,,,,,,,yellow,flipped triangle
36.0,5.0,1.0,1.0,2.0,2.0,323.3848849999958,3.0,1.0,phase_1,,,,,,,,,,,,,yellow,flipped triangle
407.0,8.0,4.0,1.0,3.0,3.0,338.484411999616,3.0,1.0,phase_1,,,,,,,,,,,,,green,cross
101.0,2.0,2.0,0.0,3.0,3.0,431.1597420000908,3.0,1.0,phase_1,,,,,,,,,,,,,magenta,triangle
0.0,7.0,0.0,1.0,4.0,4.0,375.8747239999138,3.0,1.0,phase_1,,,,,,,,,,,,,cyan,diamond
27.0,1.0,1.0,0.0,4.0,4.0,380.5033700000422,3.0,1.0,phase_1,,,,,,,,,,,,,white,square
179.0,3.0,3.0,0.0,3.0,3.0,374.3118620000132,3.0,1.0,phase_1,,,,,,,,,,,,,blue,circle
88.0,6.0,2.0,1.0,2.0,2.0,489.9959320000562,3.0,1.0,phase_1,,,,,,,,,,,,,gray,I
194.0,7.0,3.0,1.0,2.0,2.0,389.9565970000367,3.0,1.0,phase_1,,,,,,,,,,,,,cyan,diamond
217.0,3.0,3.0,0.0,4.0,4.0,558.4897599997021,3.0,1.0,phase_1,,,,,,,,,,,,,blue,circle
421.0,8.0,4.0,1.0,4.0,4.0,389.2585660000804,3.0,1.0,phase_1,,,,,,,,,,,,,green,cross
396.0,4.0,4.0,0.0,1.0,1.0,421.4169140000194,3.0,1.0,phase_1,,,,,,,,,,,,,orange,hexagon
389.0,4.0,4.0,0.0,2.0,2.0,359.3575410000085,3.0,1.0,phase_1,,,,,,,,,,,,,orange,hexagon
188.0,3.0,3.0,0.0,1.0,1.0,352.8286300002037,3.0,1.0,phase_1,,,,,,,,,,,,,blue,circle
400.0,4.0,4.0,0.0,1.0,1.0,526.5160819999437,3.0,1.0,phase_1,,,,,,,,,,,,,orange,hexagon
95.0,6.0,2.0,1.0,4.0,4.0,421.3472480000746,3.0,1.0,phase_1,,,,,,,,,,,,,gray,I
109.0,6.0,2.0,1.0,3.0,3.0,394.2384389997642,3.0,1.0,phase_1,,,,,,,,,,,,,gray,I
400.0,8.0,4.0,1.0,3.0,3.0,446.9241300002977,3.0,1.0,phase_1,,,,,,,,,,,,,green,cross
119.0,2.0,2.0,0.0,4.0,4.0,380.827538000176,3.0,1.0,phase_1,,,,,,,,,,,,,magenta,triangle
68.0,5.0,1.0,1.0,4.0,4.0,426.4821530000517,3.0,1.0,phase_1,,,,,,,,,,,,,yellow,flipped triangle
78.0,2.0,2.0,0.0,4.0,4.0,414.5363379998343,3.0,1.0,phase_1,,,,,,,,,,,,,magenta,triangle
36.0,1.0,1.0,0.0,2.0,2.0,559.0086410002186,3.0,1.0,phase_1,,,,,,,,,,,,,white,square
218.0,7.0,3.0,1.0,1.0,1.0,393.1154090000746,3.0,1.0,phase_1,,,,,,,,,,,,,cyan,diamond
213.0,3.0,3.0,0.0,3.0,3.0,310.66465899994,3.0,1.0,phase_1,,,,,,,,,,,,,blue,circle
37.0,1.0,1.0,0.0,3.0,3.0,372.5925569997343,3.0,1.0,phase_1,,,,,,,,,,,,,white,square
417.0,4.0,4.0,0.0,4.0,4.0,519.5636160001413,3.0,1.0,phase_1,,,,,,,,,,,,,orange,hexagon
0.0,7.0,0.0,1.0,3.0,3.0,405.3099630000361,3.0,1.0,phase_1,,,,,,,,,,,,,cyan,diamond
0.0,5.0,0.0,1.0,4.0,4.0,463.8763160000962,3.0,1.0,phase_1,,,,,,,,,,,,,yellow,flipped triangle
382.0,8.0,4.0,1.0,1.0,1.0,487.2486439999193,3.0,1.0,phase_1,,,,,,,,,,,,,green,cross
0.0,8.0,0.0,1.0,4.0,4.0,440.4879410003559,3.0,1.0,phase_1,,,,,,,,,,,,,green,cross
385.0,8.0,4.0,1.0,2.0,2.0,461.4982419998341,3.0,1.0,phase_1,,,,,,,,,,,,,green,cross
89.0,2.0,2.0,0.0,3.0,3.0,492.5674580003942,3.0,1.0,phase_1,,,,,,,,,,,,,magenta,triangle
188.0,7.0,3.0,1.0,4.0,4.0,384.4518199998674,3.0,1.0,phase_1,,,,,,,,,,,,,cyan,diamond
203.0,3.0,3.0,0.0,1.0,1.0,373.42614399995,3.0,1.0,phase_1,,,,,,,,,,,,,blue,circle
0.0,6.0,0.0,1.0,1.0,1.0,455.8350820002488,3.0,1.0,phase_1,,,,,,,,,,,,,gray,I
80.0,2.0,2.0,0.0,1.0,1.0,431.0086810000939,3.0,1.0,phase_1,,,,,,,,,,,,,magenta,triangle
57.0,5.0,1.0,1.0,4.0,4.0,445.3168030004235,3.0,1.0,phase_1,,,,,,,,,,,,,yellow,flipped triangle
56.0,5.0,1.0,1.0,3.0,3.0,461.0509990002356,3.0,1.0,phase_1,,,,,,,,,,,,,yellow,flipped triangle
91.0,2.0,2.0,0.0,1.0,1.0,440.8353950002492,4.0,1.0,phase_1,,,,,,,,,,,,,magenta,triangle
198.0,3.0,3.0,0.0,4.0,4.0,483.3566869997412,4.0,1.0,phase_1,,,,,,,,,,,,,blue,circle
0.0,8.0,0.0,1.0,2.0,2.0,515.7683100001123,4.0,1.0,phase_1,,,,,,,,,,,,,green,cross
51.0,5.0,1.0,1.0,3.0,3.0,366.8081419996269,4.0,1.0,phase_1,,,,,,,,,,,,,yellow,flipped triangle
385.0,4.0,4.0,0.0,4.0,4.0,343.5212219997083,4.0,1.0,phase_1,,,,,,,,,,,,,orange,hexagon
106.0,2.0,2.0,0.0,1.0,1.0,360.7177640001282,4.0,1.0,phase_1,,,,,,,,,,,,,magenta,triangle
87.0,2.0,2.0,0.0,1.0,1.0,329.6903330001441,4.0,1.0,phase_1,,,,,,,,,,,,,magenta,triangle
77.0,2.0,2.0,0.0,2.0,2.0,380.6965799999489,4.0,1.0,phase_1,,,,,,,,,,,,,magenta,triangle
50.0,5.0,1.0,1.0,2.0,2.0,373.481432999597,4.0,1.0,phase_1,,,,,,,,,,,,,yellow,flipped triangle
89.0,6.0,2.0,1.0,3.0,3.0,376.3399039999058,4.0,1.0,phase_1,,,,,,,,,,,,,gray,I
377.0,4.0,4.0,0.0,4.0,4.0,523.4708260004481,4.0,1.0,phase_1,,,,,,,,,,,,,orange,hexagon
401.0,4.0,4.0,0.0,2.0,2.0,328.285267999945,4.0,1.0,phase_1,,,,,,,,,,,,,orange,hexagon
423.0,4.0,4.0,0.0,2.0,2.0,353.7044300001071,4.0,1.0,phase_1,,,,,,,,,,,,,orange,hexagon
0.0,7.0,0.0,1.0,3.0,3.0,376.6637990001982,4.0,1.0,phase_1,,,,,,,,,,,,,cyan,diamond
411.0,8.0,4.0,1.0,2.0,2.0,439.6063369999865,4.0,2.0,phase_1,,,,,,,,,,,,,green,cross
61.0,5.0,1.0,1.0,4.0,4.0,434.37462699967,4.0,1.0,phase_1,,,,,,,,,,,,,yellow,flipped triangle
70.0,1.0,1.0,0.0,2.0,2.0,448.9057549999415,4.0,1.0,phase_1,,,,,,,,,,,,,white,square
49.0,5.0,1.0,1.0,1.0,1.0,427.5727910003297,4.0,1.0,phase_1,,,,,,,,,,,,,yellow,flipped triangle
225.0,3.0,3.0,0.0,4.0,4.0,387.551572999655,4.0,1.0,phase_1,,,,,,,,,,,,,blue,circle
40.0,5.0,1.0,1.0,3.0,3.0,456.1627220000446,4.0,1.0,phase_1,,,,,,,,,,,,,yellow,flipped triangle
194.0,3.0,3.0,0.0,2.0,2.0,487.4167490002037,4.0,1.0,phase_1,,,,,,,,,,,,,blue,circle
411.0,4.0,4.0,0.0,3.0,3.0,378.2680510003047,4.0,1.0,phase_1,,,,,,,,,,,,,orange,hexagon
398.0,8.0,4.0,1.0,3.0,3.0,448.8823940000657,4.0,1.0,phase_1,,,,,,,,,,,,,green,cross
80.0,6.0,2.0,1.0,2.0,2.0,374.1308730000128,4.0,1.0,phase_1,,,,,,,,,,,,,gray,I
379.0,4.0,4.0,0.0,3.0,3.0,364.600521000284,4.0,1.0,phase_1,,,,,,,,,,,,,orange,hexagon
0.0,4.0,0.0,0.0,4.0,4.0,316.8840610001098,4.0,1.0,phase_1,,,,,,,,,,,,,orange,hexagon
0.0,3.0,0.0,0.0,2.0,2.0,409.8458879998361,4.0,1.0,phase_1,,,,,,,,,,,,,blue,circle
223.0,3.0,3.0,0.0,2.0,2.0,364.5217939997565,4.0,1.0,phase_1,,,,,,,,,,,,,blue,circle
414.0,4.0,4.0,0.0,2.0,2.0,332.4196339999616,4.0,1.0,phase_1,,,,,,,,,,,,,orange,hexagon
87.0,6.0,2.0,1.0,1.0,1.0,436.1943510002675,4.0,1.0,phase_1,,,,,,,,,,,,,gray,I
88.0,6.0,2.0,1.0,1.0,1.0,379.2650189998312,4.0,1.0,phase_1,,,,,,,,,,,,,gray,I
0.0,1.0,0.0,0.0,4.0,4.0,490.0493310001366,4.0,1.0,phase_1,,,,,,,,,,,,,white,square
0.0,6.0,0.0,1.0,3.0,3.0,403.4408200000143,4.0,1.0,phase_1,,,,,,,,,,,,,gray,I
112.0,2.0,2.0,0.0,1.0,1.0,288.2030670002677,4.0,1.0,phase_1,,,,,,,,,,,,,magenta,triangle
68.0,1.0,1.0,0.0,3.0,3.0,399.9165119998906,4.0,1.0,phase_1,,,,,,,,,,,,,white,square
0.0,3.0,0.0,0.0,3.0,3.0,341.7474279999624,4.0,1.0,phase_1,,,,,,,,,,,,,blue,circle
76.0,2.0,2.0,0.0,2.0,2.0,392.5823680001485,4.0,1.0,phase_1,,,,,,,,,,,,,magenta,triangle
388.0,8.0,4.0,1.0,1.0,1.0,433.9357299995754,4.0,1.0,phase_1,,,,,,,,,,,,,green,cross
208.0,7.0,3.0,1.0,3.0,3.0,389.6903900003963,4.0,1.0,phase_1,,,,,,,,,,,,,cyan,diamond
116.0,2.0,2.0,0.0,3.0,3.0,380.3302549999898,4.0,1.0,phase_1,,,,,,,,,,,,,magenta,triangle
376.0,4.0,4.0,0.0,2.0,2.0,336.7569479996746,4.0,1.0,phase_1,,,,,,,,,,,,,orange,hexagon
0.0,1.0,0.0,0.0,2.0,2.0,324.1093120000187,4.0,1.0,phase_1,,,,,,,,,,,,,white,square
34.0,1.0,1.0,0.0,4.0,4.0,337.5087099998382,4.0,1.0,phase_1,,,,,,,,,,,,,white,square
183.0,3.0,3.0,0.0,3.0,3.0,337.2239510003965,4.0,1.0,phase_1,,,,,,,,,,,,,blue,circle
184.0,3.0,3.0,0.0,4.0,4.0,381.1362659998849,4.0,2.0,phase_1,,,,,,,,,,,,,blue,circle
112.0,6.0,2.0,1.0,4.0,4.0,410.2774130001307,4.0,1.0,phase_1,,,,,,,,,,,,,gray,I
0.0,7.0,0.0,1.0,4.0,4.0,349.5172800003274,4.0,1.0,phase_1,,,,,,,,,,,,,cyan,diamond
386.0,8.0,4.0,1.0,1.0,1.0,446.378495999852,4.0,1.0,phase_1,,,,,,,,,,,,,green,cross
386.0,4.0,4.0,0.0,3.0,3.0,361.9178889998693,4.0,1.0,phase_1,,,,,,,,,,,,,orange,hexagon
80.0,2.0,2.0,0.0,4.0,4.0,432.9168270000991,4.0,1.0,phase_1,,,,,,,,,,,,,magenta,triangle
0.0,8.0,0.0,1.0,1.0,1.0,474.745453000196,4.0,1.0,phase_1,,,,,,,,,,,,,green,cross
77.0,6.0,2.0,1.0,1.0,1.0,477.0014660002744,4.0,1.0,phase_1,,,,,,,,,,,,,gray,I
392.0,8.0,4.0,1.0,3.0,3.0,484.008686999914,4.0,1.0,phase_1,,,,,,,,,,,,,green,cross
0.0,3.0,0.0,0.0,3.0,3.0,463.3602129997598,4.0,1.0,phase_1,,,,,,,,,,,,,blue,circle
414.0,8.0,4.0,1.0,4.0,4.0,400.7628489998751,4.0,1.0,phase_1,,,,,,,,,,,,,green,cross
210.0,7.0,3.0,1.0,3.0,3.0,380.6098199997905,4.0,1.0,phase_1,,,,,,,,,,,,,cyan,diamond
109.0,2.0,2.0,0.0,3.0,3.0,372.174773000097,4.0,1.0,phase_1,,,,,,,,,,,,,magenta,triangle
76.0,6.0,2.0,1.0,1.0,1.0,458.241254999848,4.0,1.0,phase_1,,,,,,,,,,,,,gray,I
93.0,2.0,2.0,0.0,3.0,3.0,549.535257000116,4.0,1.0,phase_1,,,,,,,,,,,,,magenta,triangle
112.0,6.0,2.0,1.0,3.0,3.0,603.3552440003405,4.0,1.0,phase_1,,,,,,,,,,,,,gray,I
51.0,5.0,1.0,1.0,4.0,4.0,400.9681779998573,4.0,1.0,phase_1,,,,,,,,,,,,,yellow,flipped triangle
187.0,7.0,3.0,1.0,1.0,1.0,362.8348560000631,4.0,1.0,phase_1,,,,,,,,,,,,,cyan,diamond
191.0,7.0,3.0,1.0,2.0,2.0,436.6251599999486,4.0,1.0,phase_1,,,,,,,,,,,,,cyan,diamond
36.0,1.0,1.0,0.0,1.0,1.0,455.4251810000096,4.0,1.0,phase_1,,,,,,,,,,,,,white,square
421.0,4.0,4.0,0.0,1.0,1.0,364.070626999819,4.0,1.0,phase_1,,,,,,,,,,,,,orange,hexagon
179.0,7.0,3.0,1.0,1.0,1.0,382.5573879998956,4.0,1.0,phase_1,,,,,,,,,,,,,cyan,diamond
183.0,7.0,3.0,1.0,1.0,1.0,382.5719719998233,4.0,1.0,phase_1,,,,,,,,,,,,,cyan,diamond
0.0,1.0,0.0,0.0,2.0,2.0,410.1206539999111,4.0,1.0,phase_1,,,,,,,,,,,,,white,square
0.0,2.0,0.0,0.0,4.0,4.0,318.0056860001059,4.0,1.0,phase_1,,,,,,,,,,,,,magenta,triangle
0.0,7.0,0.0,1.0,2.0,2.0,508.942995000325,4.0,1.0,phase_1,,,,,,,,,,,,,cyan,diamond
0.0,8.0,0.0,1.0,4.0,4.0,429.2011809998257,4.0,1.0,phase_1,,,,,,,,,,,,,green,cross
88.0,2.0,2.0,0.0,4.0,4.0,351.3936660001491,4.0,1.0,phase_1,,,,,,,,,,,,,magenta,triangle
0.0,4.0,0.0,0.0,1.0,1.0,328.339306000089,4.0,1.0,phase_1,,,,,,,,,,,,,orange,hexagon
0.0,8.0,0.0,1.0,1.0,1.0,424.3737259998852,4.0,1.0,phase_1,,,,,,,,,,,,,green,cross
181.0,3.0,3.0,0.0,2.0,2.0,441.7431259998921,4.0,1.0,phase_1,,,,,,,,,,,,,blue,circle
88.0,2.0,2.0,0.0,4.0,4.0,351.2602079999851,4.0,1.0,phase_1,,,,,,,,,,,,,magenta,triangle
392.0,8.0,4.0,1.0,1.0,1.0,439.6893990001445,4.0,1.0,phase_1,,,,,,,,,,,,,green,cross
215.0,7.0,3.0,1.0,3.0,3.0,389.0052810002089,4.0,1.0,phase_1,,,,,,,,,,,,,cyan,diamond
34.0,5.0,1.0,1.0,2.0,2.0,359.1280529999494,4.0,1.0,phase_1,,,,,,,,,,,,,yellow,flipped triangle
0.0,1.0,0.0,0.0,1.0,1.0,352.7671439996993,4.0,1.0,phase_1,,,,,,,,,,,,,white,square
115.0,6.0,2.0,1.0,4.0,4.0,367.8492859999096,4.0,1.0,phase_1,,,,,,,,,,,,,gray,I
0.0,4.0,0.0,0.0,1.0,1.0,353.8026840001294,4.0,1.0,phase_1,,,,,,,,,,,,,orange,hexagon
111.0,2.0,2.0,0.0,1.0,1.0,351.2530409998362,4.0,1.0,phase_1,,,,,,,,,,,,,magenta,triangle
0.0,2.0,0.0,0.0,1.0,1.0,338.3150330000717,4.0,1.0,phase_1,,,,,,,,,,,,,magenta,triangle
43.0,1.0,1.0,0.0,3.0,3.0,454.0688170000067,4.0,1.0,phase_1,,,,,,,,,,,,,white,square
39.0,5.0,1.0,1.0,3.0,3.0,381.5263259998573,4.0,1.0,phase_1,,,,,,,,,,,,,yellow,flipped triangle
57.0,1.0,1.0,0.0,1.0,1.0,389.0958730003149,4.0,1.0,phase_1,,,,,,,,,,,,,white,square
212.0,3.0,3.0,0.0,3.0,3.0,364.2214719998264,4.0,1.0,phase_1,,,,,,,,,,,,,blue,circle
388.0,4.0,4.0,0.0,2.0,2.0,376.8473939999239,4.0,1.0,phase_1,,,,,,,,,,,,,orange,hexagon
95.0,2.0,2.0,0.0,2.0,2.0,382.8694809999433,4.0,1.0,phase_1,,,,,,,,,,,,,magenta,triangle
72.0,5.0,1.0,1.0,4.0,4.0,373.9188949998606,4.0,1.0,phase_1,,,,,,,,,,,,,yellow,flipped triangle
110.0,6.0,2.0,1.0,1.0,1.0,503.0555610001102,4.0,1.0,phase_1,,,,,,,,,,,,,gray,I
189.0,7.0,3.0,1.0,4.0,4.0,342.1015990002161,4.0,1.0,phase_1,,,,,,,,,,,,,cyan,diamond
398.0,8.0,4.0,1.0,2.0,2.0,417.0247989995914,4.0,1.0,phase_1,,,,,,,,,,,,,green,cross
74.0,5.0,1.0,1.0,2.0,2.0,326.5258430001267,4.0,1.0,phase_1,,,,,,,,,,,,,yellow,flipped triangle
0.0,1.0,0.0,0.0,2.0,2.0,321.6745949998767,4.0,1.0,phase_1,,,,,,,,,,,,,white,square
183.0,7.0,3.0,1.0,2.0,2.0,273.9107469997179,4.0,1.0,phase_1,,,,,,,,,,,,,cyan,diamond
189.0,3.0,3.0,0.0,3.0,3.0,369.4642290001866,4.0,1.0,phase_1,,,,,,,,,,,,,blue,circle
0.0,5.0,0.0,1.0,1.0,1.0,366.4181980002468,4.0,1.0,phase_1,,,,,,,,,,,,,yellow,flipped triangle
32.0,1.0,1.0,0.0,3.0,3.0,346.2291250002636,4.0,1.0,phase_1,,,,,,,,,,,,,white,square
0.0,6.0,2.0,1.0,6.0,6.0,404.6470789999148,1.0,1.0,phase_2,stop,250.0,250.0,3.0,,,,,,,,,gray,I
0.0,5.0,1.0,1.0,5.0,5.0,281.5253349999693,1.0,1.0,phase_2,stop,250.0,200.0,3.0,,,,,,,,,yellow,flipped triangle
0.0,6.0,2.0,1.0,6.0,6.0,268.8017370001034,1.0,1.0,phase_2,stop,200.0,200.0,3.0,,,,,,,,,gray,I
0.0,1.0,1.0,0.0,5.0,5.0,290.512857000067,1.0,1.0,phase_2,go,200.0,150.0,1.0,,,,,,,,,white,square
0.0,5.0,1.0,1.0,5.0,5.0,274.5845720000943,1.0,1.0,phase_2,go,200.0,150.0,1.0,,,,,,,,,yellow,flipped triangle
0.0,8.0,4.0,1.0,5.0,5.0,303.1057879998116,1.0,1.0,phase_2,stop,200.0,150.0,3.0,,,,,,,,,green,cross
0.0,1.0,1.0,0.0,6.0,6.0,280.9012129996517,1.0,1.0,phase_2,go,150.0,150.0,1.0,,,,,,,,,white,square
0.0,5.0,1.0,1.0,6.0,6.0,283.9005799996812,1.0,1.0,phase_2,stop,150.0,150.0,3.0,,,,,,,,,yellow,flipped triangle
0.0,1.0,1.0,0.0,5.0,5.0,207.5336380003136,1.0,1.0,phase_2,go,150.0,100.0,1.0,,,,,,,,,white,square
0.0,4.0,4.0,0.0,5.0,5.0,255.61318800009758,1.0,1.0,phase_2,go,150.0,100.0,1.0,,,,,,,,,orange,hexagon
0.0,3.0,3.0,0.0,6.0,6.0,255.7666650000101,1.0,1.0,phase_2,go,150.0,100.0,1.0,,,,,,,,,blue,circle
0.0,5.0,1.0,1.0,6.0,6.0,340.0754160002179,1.0,1.0,phase_2,stop,150.0,100.0,3.0,,,,,,,,,yellow,flipped triangle
0.0,7.0,3.0,1.0,6.0,6.0,294.9547670000356,1.0,1.0,phase_2,go,150.0,50.0,1.0,,,,,,,,,cyan,diamond
0.0,2.0,2.0,0.0,6.0,6.0,244.6942339997804,1.0,1.0,phase_2,go,150.0,50.0,1.0,,,,,,,,,magenta,triangle
0.0,5.0,1.0,1.0,5.0,5.0,233.657446000052,1.0,1.0,phase_2,stop,150.0,50.0,3.0,,,,,,,,,yellow,flipped triangle
0.0,6.0,2.0,1.0,6.0,6.0,243.0848139997579,1.0,1.0,phase_2,stop,100.0,50.0,3.0,,,,,,,,,gray,I
0.0,8.0,4.0,1.0,5.0,5.0,274.0248780000911,1.0,1.0,phase_2,stop,100.0,0.0,3.0,,,,,,,,,green,cross
0.0,4.0,4.0,0.0,5.0,5.0,332.1464520004156,1.0,1.0,phase_2,go,50.0,0.0,1.0,,,,,,,,,orange,hexagon
0.0,2.0,2.0,0.0,5.0,5.0,322.2218089999842,1.0,1.0,phase_2,go,50.0,0.0,1.0,,,,,,,,,magenta,triangle
0.0,5.0,1.0,1.0,5.0,0.0,0.0,1.0,1.0,phase_2,stop,50.0,0.0,4.0,,,,,,,,,yellow,flipped triangle
0.0,4.0,4.0,0.0,5.0,5.0,352.9801670001689,1.0,1.0,phase_2,go,100.0,0.0,1.0,,,,,,,,,orange,hexagon
0.0,2.0,2.0,0.0,6.0,6.0,440.7757839999249,1.0,1.0,phase_2,go,100.0,0.0,1.0,,,,,,,,,magenta,triangle
0.0,6.0,2.0,1.0,6.0,6.0,325.2378050001425,1.0,1.0,phase_2,go,100.0,0.0,1.0,,,,,,,,,gray,I
0.0,8.0,4.0,1.0,5.0,5.0,282.3223579998739,1.0,1.0,phase_2,go,100.0,0.0,1.0,,,,,,,,,green,cross
0.0,6.0,2.0,1.0,6.0,6.0,300.7227419998344,1.0,1.0,phase_2,go,100.0,0.0,1.0,,,,,,,,,gray,I
0.0,3.0,3.0,0.0,5.0,5.0,336.498634000236,1.0,1.0,phase_2,go,100.0,0.0,1.0,,,,,,,,,blue,circle
0.0,5.0,1.0,1.0,6.0,6.0,277.6781749998918,1.0,1.0,phase_2,go,100.0,0.0,1.0,,,,,,,,,yellow,flipped triangle
0.0,7.0,3.0,1.0,5.0,5.0,301.2115269998503,1.0,1.0,phase_2,stop,100.0,0.0,3.0,,,,,,,,,cyan,diamond
0.0,5.0,1.0,1.0,5.0,0.0,0.0,1.0,1.0,phase_2,stop,50.0,0.0,4.0,,,,,,,,,yellow,flipped triangle
0.0,3.0,3.0,0.0,6.0,6.0,295.7055560000299,1.0,1.0,phase_2,go,100.0,0.0,1.0,,,,,,,,,blue,circle
0.0,6.0,2.0,1.0,6.0,0.0,0.0,1.0,1.0,phase_2,stop,100.0,0.0,4.0,,,,,,,,,gray,I
0.0,1.0,1.0,0.0,6.0,6.0,287.5921669997296,1.0,1.0,phase_2,go,100.0,50.0,1.0,,,,,,,,,white,square
0.0,6.0,2.0,1.0,6.0,0.0,0.0,1.0,1.0,phase_2,stop,100.0,50.0,4.0,,,,,,,,,gray,I
0.0,8.0,4.0,1.0,6.0,0.0,0.0,1.0,1.0,phase_2,stop,100.0,100.0,4.0,,,,,,,,,green,cross
0.0,3.0,3.0,0.0,6.0,6.0,434.5362119997844,1.0,1.0,phase_2,go,100.0,150.0,1.0,,,,,,,,,blue,circle
0.0,3.0,3.0,0.0,6.0,6.0,272.3587230002522,1.0,1.0,phase_2,go,100.0,150.0,1.0,,,,,,,,,blue,circle
0.0,3.0,3.0,0.0,5.0,5.0,586.5602059998309,2.0,1.0,phase_2,go,100.0,150.0,1.0,,,,,,,,,blue,circle
0.0,5.0,1.0,1.0,6.0,0.0,0.0,2.0,1.0,phase_2,stop,100.0,150.0,4.0,,,,,,,,,yellow,flipped triangle
0.0,5.0,1.0,1.0,6.0,0.0,0.0,2.0,1.0,phase_2,stop,100.0,200.0,4.0,,,,,,,,,yellow,flipped triangle
0.0,8.0,4.0,1.0,5.0,0.0,0.0,2.0,1.0,phase_2,stop,100.0,250.0,4.0,,,,,,,,,green,cross
0.0,4.0,4.0,0.0,5.0,5.0,380.1650039999913,2.0,1.0,phase_2,go,150.0,250.0,1.0,,,,,,,,,orange,hexagon
0.0,4.0,4.0,0.0,5.0,5.0,371.2071119998654,2.0,1.0,phase_2,go,150.0,250.0,1.0,,,,,,,,,orange,hexagon
0.0,2.0,2.0,0.0,6.0,6.0,427.2419740000259,2.0,1.0,phase_2,go,150.0,250.0,1.0,,,,,,,,,magenta,triangle
0.0,2.0,2.0,0.0,5.0,5.0,274.4404620002569,2.0,1.0,phase_2,go,150.0,250.0,1.0,,,,,,,,,magenta,triangle
0.0,5.0,1.0,1.0,5.0,0.0,0.0,2.0,1.0,phase_2,stop,150.0,250.0,4.0,,,,,,,,,yellow,flipped triangle
0.0,5.0,1.0,1.0,6.0,6.0,406.703889000255,2.0,1.0,phase_2,stop,200.0,250.0,3.0,,,,,,,,,yellow,flipped triangle
0.0,4.0,4.0,0.0,6.0,6.0,609.8438720000559,2.0,1.0,phase_2,go,200.0,200.0,1.0,,,,,,,,,orange,hexagon
0.0,4.0,4.0,0.0,5.0,5.0,459.8426400002608,2.0,1.0,phase_2,go,200.0,200.0,1.0,,,,,,,,,orange,hexagon
0.0,6.0,2.0,1.0,6.0,6.0,352.3754999996527,2.0,1.0,phase_2,stop,200.0,200.0,3.0,,,,,,,,,gray,I
0.0,6.0,2.0,1.0,5.0,5.0,406.6034369998306,2.0,1.0,phase_2,stop,200.0,150.0,3.0,,,,,,,,,gray,I
0.0,5.0,1.0,1.0,6.0,6.0,400.0085769998804,2.0,1.0,phase_2,go,150.0,150.0,1.0,,,,,,,,,yellow,flipped triangle
0.0,5.0,1.0,1.0,5.0,0.0,0.0,2.0,1.0,phase_2,stop,150.0,150.0,4.0,,,,,,,,,yellow,flipped triangle
0.0,2.0,2.0,0.0,5.0,5.0,492.7412569995795,2.0,1.0,phase_2,go,200.0,150.0,1.0,,,,,,,,,magenta,triangle
0.0,8.0,4.0,1.0,5.0,0.0,0.0,2.0,1.0,phase_2,stop,200.0,150.0,4.0,,,,,,,,,green,cross
0.0,8.0,4.0,1.0,5.0,5.0,476.1493460000565,2.0,1.0,phase_2,stop,250.0,150.0,3.0,,,,,,,,,green,cross
0.0,2.0,2.0,0.0,6.0,6.0,548.3645600002092,2.0,1.0,phase_2,go,200.0,150.0,1.0,,,,,,,,,magenta,triangle
0.0,4.0,4.0,0.0,6.0,6.0,458.5491459997683,2.0,1.0,phase_2,go,200.0,150.0,1.0,,,,,,,,,orange,hexagon
0.0,8.0,4.0,1.0,5.0,5.0,514.5880549998765,2.0,1.0,phase_2,go,200.0,150.0,1.0,,,,,,,,,green,cross
0.0,1.0,1.0,0.0,5.0,5.0,515.3341889999865,2.0,1.0,phase_2,go,200.0,150.0,1.0,,,,,,,,,white,square
0.0,1.0,1.0,0.0,6.0,6.0,625.0891390000106,2.0,1.0,phase_2,go,200.0,150.0,1.0,,,,,,,,,white,square
0.0,4.0,4.0,0.0,5.0,5.0,499.9822989998392,2.0,1.0,phase_2,go,200.0,150.0,1.0,,,,,,,,,orange,hexagon
0.0,2.0,2.0,0.0,6.0,6.0,424.7488500000145,2.0,1.0,phase_2,go,200.0,150.0,1.0,,,,,,,,,magenta,triangle
0.0,3.0,3.0,0.0,5.0,5.0,420.0732270001026,2.0,1.0,phase_2,go,200.0,150.0,1.0,,,,,,,,,blue,circle
0.0,7.0,3.0,1.0,5.0,5.0,373.8310560001991,2.0,1.0,phase_2,stop,200.0,150.0,3.0,,,,,,,,,cyan,diamond
0.0,3.0,3.0,0.0,6.0,6.0,543.5624419997112,2.0,1.0,phase_2,go,150.0,150.0,1.0,,,,,,,,,blue,circle
0.0,3.0,3.0,0.0,6.0,6.0,517.9803290002383,2.0,1.0,phase_2,go,150.0,150.0,1.0,,,,,,,,,blue,circle
0.0,7.0,3.0,1.0,6.0,6.0,372.69079600036997,2.0,1.0,phase_2,stop,150.0,150.0,3.0,,,,,,,,,cyan,diamond
0.0,1.0,1.0,0.0,5.0,5.0,531.41757100002,2.0,1.0,phase_2,go,150.0,100.0,1.0,,,,,,,,,white,square
0.0,2.0,2.0,0.0,6.0,6.0,388.5213280000243,2.0,1.0,phase_2,go,150.0,100.0,1.0,,,,,,,,,magenta,triangle
0.0,4.0,4.0,0.0,5.0,5.0,502.42183299997123,2.0,1.0,phase_2,go,150.0,100.0,1.0,,,,,,,,,orange,hexagon
0.0,6.0,2.0,1.0,5.0,0.0,0.0,2.0,1.0,phase_2,stop,150.0,100.0,4.0,,,,,,,,,gray,I
0.0,8.0,4.0,1.0,6.0,0.0,0.0,2.0,1.0,phase_2,stop,200.0,100.0,4.0,,,,,,,,,green,cross
0.0,3.0,3.0,0.0,6.0,6.0,517.5456940000913,3.0,1.0,phase_2,go,200.0,150.0,1.0,,,,,,,,,blue,circle
0.0,4.0,4.0,0.0,5.0,5.0,493.421557000147,3.0,1.0,phase_2,go,200.0,150.0,1.0,,,,,,,,,orange,hexagon
0.0,8.0,4.0,1.0,5.0,5.0,387.9715319999377,3.0,1.0,phase_2,go,200.0,150.0,1.0,,,,,,,,,green,cross
0.0,1.0,1.0,0.0,5.0,5.0,381.4813929998308,3.0,1.0,phase_2,go,200.0,150.0,1.0,,,,,,,,,white,square
0.0,8.0,4.0,1.0,5.0,0.0,0.0,3.0,1.0,phase_2,stop,200.0,150.0,4.0,,,,,,,,,green,cross
0.0,6.0,2.0,1.0,5.0,0.0,0.0,3.0,1.0,phase_2,stop,250.0,150.0,4.0,,,,,,,,,gray,I
0.0,4.0,4.0,0.0,6.0,6.0,511.09977400028583,3.0,1.0,phase_2,go,300.0,150.0,1.0,,,,,,,,,orange,hexagon
0.0,4.0,4.0,0.0,5.0,5.0,525.9072100002413,3.0,1.0,phase_2,go,300.0,150.0,1.0,,,,,,,,,orange,hexagon
0.0,1.0,1.0,0.0,6.0,6.0,362.7976749999106,3.0,1.0,phase_2,go,300.0,150.0,1.0,,,,,,,,,white,square
0.0,5.0,1.0,1.0,5.0,5.0,355.9723359999225,3.0,1.0,phase_2,stop,300.0,150.0,3.0,,,,,,,,,yellow,flipped triangle
0.0,4.0,4.0,0.0,6.0,6.0,567.2375809999721,3.0,1.0,phase_2,go,250.0,150.0,1.0,,,,,,,,,orange,hexagon
0.0,2.0,2.0,0.0,5.0,5.0,427.070198000365,3.0,1.0,phase_2,go,250.0,150.0,1.0,,,,,,,,,magenta,triangle
0.0,2.0,2.0,0.0,5.0,5.0,500.5413059998318,3.0,1.0,phase_2,go,250.0,150.0,1.0,,,,,,,,,magenta,triangle
0.0,4.0,4.0,0.0,6.0,6.0,441.9097299996792,3.0,1.0,phase_2,go,250.0,150.0,1.0,,,,,,,,,orange,hexagon
0.0,2.0,2.0,0.0,6.0,6.0,381.7208099999334,3.0,1.0,phase_2,go,250.0,150.0,1.0,,,,,,,,,magenta,triangle
0.0,1.0,1.0,0.0,5.0,5.0,342.6707870003156,3.0,1.0,phase_2,go,250.0,150.0,1.0,,,,,,,,,white,square
0.0,8.0,4.0,1.0,6.0,0.0,0.0,3.0,1.0,phase_2,stop,250.0,150.0,4.0,,,,,,,,,green,cross
0.0,2.0,2.0,0.0,5.0,5.0,496.6288580003493,3.0,1.0,phase_2,go,250.0,200.0,1.0,,,,,,,,,magenta,triangle
0.0,6.0,2.0,1.0,5.0,5.0,310.0469860000885,3.0,1.0,phase_2,stop,250.0,200.0,3.0,,,,,,,,,gray,I
0.0,1.0,1.0,0.0,6.0,6.0,388.1357290001688,3.0,1.0,phase_2,go,200.0,200.0,1.0,,,,,,,,,white,square
0.0,7.0,3.0,1.0,6.0,0.0,0.0,3.0,1.0,phase_2,stop,200.0,200.0,4.0,,,,,,,,,cyan,diamond
0.0,8.0,4.0,1.0,6.0,0.0,0.0,3.0,1.0,phase_2,stop,200.0,250.0,4.0,,,,,,,,,green,cross
0.0,7.0,3.0,1.0,6.0,0.0,0.0,3.0,1.0,phase_2,stop,200.0,300.0,4.0,,,,,,,,,cyan,diamond
0.0,1.0,1.0,0.0,5.0,5.0,365.2026529998693,3.0,1.0,phase_2,go,200.0,350.0,1.0,,,,,,,,,white,square
0.0,4.0,4.0,0.0,5.0,5.0,446.0753080002178,3.0,1.0,phase_2,go,200.0,350.0,1.0,,,,,,,,,orange,hexagon
0.0,5.0,1.0,1.0,6.0,0.0,0.0,3.0,1.0,phase_2,stop,200.0,350.0,4.0,,,,,,,,,yellow,flipped triangle
0.0,8.0,4.0,1.0,5.0,0.0,0.0,3.0,1.0,phase_2,stop,200.0,400.0,4.0,,,,,,,,,green,cross
0.0,2.0,2.0,0.0,6.0,6.0,409.2013230001612,3.0,1.0,phase_2,go,250.0,400.0,1.0,,,,,,,,,magenta,triangle
0.0,7.0,3.0,1.0,6.0,6.0,381.9499330002145,3.0,1.0,phase_2,go,250.0,400.0,1.0,,,,,,,,,cyan,diamond
0.0,6.0,2.0,1.0,5.0,5.0,394.0844369999468,3.0,1.0,phase_2,stop,250.0,400.0,3.0,,,,,,,,,gray,I
0.0,3.0,3.0,0.0,5.0,5.0,491.9624250001106,3.0,1.0,phase_2,go,200.0,400.0,1.0,,,,,,,,,blue,circle
0.0,3.0,3.0,0.0,6.0,6.0,566.8556989999161,3.0,1.0,phase_2,go,200.0,400.0,1.0,,,,,,,,,blue,circle
0.0,6.0,2.0,1.0,5.0,5.0,413.3040679998885,3.0,1.0,phase_2,go,200.0,400.0,1.0,,,,,,,,,gray,I
0.0,1.0,1.0,0.0,6.0,6.0,402.1628680002322,3.0,1.0,phase_2,go,200.0,400.0,1.0,,,,,,,,,white,square
0.0,3.0,3.0,0.0,6.0,6.0,496.1633369998708,3.0,1.0,phase_2,go,200.0,400.0,1.0,,,,,,,,,blue,circle
0.0,4.0,4.0,0.0,6.0,6.0,345.1070330002039,3.0,1.0,phase_2,go,200.0,400.0,1.0,,,,,,,,,orange,hexagon
0.0,8.0,4.0,1.0,6.0,6.0,593.3695070002614,4.0,1.0,phase_2,go,200.0,400.0,1.0,,,,,,,,,green,cross
0.0,5.0,1.0,1.0,5.0,5.0,330.7385359998989,4.0,1.0,phase_2,go,200.0,400.0,1.0,,,,,,,,,yellow,flipped triangle
0.0,6.0,2.0,1.0,6.0,6.0,310.7270420000532,4.0,1.0,phase_2,stop,200.0,400.0,3.0,,,,,,,,,gray,I
0.0,4.0,4.0,0.0,5.0,5.0,469.9798499996177,4.0,1.0,phase_2,go,200.0,350.0,1.0,,,,,,,,,orange,hexagon
0.0,6.0,2.0,1.0,5.0,5.0,362.1311319998312,4.0,1.0,phase_2,go,200.0,350.0,1.0,,,,,,,,,gray,I
0.0,6.0,2.0,1.0,6.0,6.0,453.4578600000714,4.0,1.0,phase_2,stop,200.0,350.0,3.0,,,,,,,,,gray,I
0.0,3.0,3.0,0.0,5.0,5.0,457.490210999822,4.0,1.0,phase_2,go,200.0,300.0,1.0,,,,,,,,,blue,circle
0.0,7.0,3.0,1.0,5.0,0.0,0.0,4.0,1.0,phase_2,stop,200.0,300.0,4.0,,,,,,,,,cyan,diamond
0.0,5.0,1.0,1.0,5.0,0.0,0.0,4.0,1.0,phase_2,stop,250.0,300.0,4.0,,,,,,,,,yellow,flipped triangle
0.0,7.0,3.0,1.0,5.0,5.0,507.4395009996806,4.0,1.0,phase_2,go,300.0,300.0,1.0,,,,,,,,,cyan,diamond
0.0,7.0,3.0,1.0,6.0,6.0,390.5497539999487,4.0,1.0,phase_2,stop,300.0,300.0,3.0,,,,,,,,,cyan,diamond
0.0,3.0,3.0,0.0,5.0,5.0,468.5972190000029,4.0,1.0,phase_2,go,300.0,250.0,1.0,,,,,,,,,blue,circle
0.0,5.0,1.0,1.0,6.0,0.0,0.0,4.0,1.0,phase_2,stop,300.0,250.0,4.0,,,,,,,,,yellow,flipped triangle
0.0,6.0,2.0,1.0,5.0,5.0,436.7223020008168,4.0,1.0,phase_2,stop,300.0,300.0,3.0,,,,,,,,,gray,I
0.0,3.0,3.0,0.0,5.0,5.0,657.4608760001865,4.0,1.0,phase_2,go,250.0,300.0,1.0,,,,,,,,,blue,circle
0.0,2.0,2.0,0.0,6.0,6.0,636.466243000541,4.0,1.0,phase_2,go,250.0,300.0,1.0,,,,,,,,,magenta,triangle
0.0,5.0,1.0,1.0,5.0,0.0,0.0,4.0,1.0,phase_2,stop,250.0,300.0,4.0,,,,,,,,,yellow,flipped triangle
0.0,4.0,4.0,0.0,6.0,6.0,607.7887110004667,4.0,1.0,phase_2,go,300.0,300.0,1.0,,,,,,,,,orange,hexagon
0.0,6.0,2.0,1.0,6.0,6.0,635.0536129993998,4.0,1.0,phase_2,go,300.0,300.0,1.0,,,,,,,,,gray,I
0.0,3.0,3.0,0.0,5.0,5.0,656.927572999848,4.0,1.0,phase_2,go,300.0,300.0,1.0,,,,,,,,,blue,circle
0.0,2.0,2.0,0.0,5.0,5.0,689.0172450002865,4.0,1.0,phase_2,go,300.0,300.0,1.0,,,,,,,,,magenta,triangle
0.0,6.0,2.0,1.0,5.0,0.0,0.0,4.0,1.0,phase_2,stop,300.0,300.0,4.0,,,,,,,,,gray,I
0.0,4.0,4.0,0.0,5.0,5.0,750.5742909997934,4.0,1.0,phase_2,go,350.0,300.0,1.0,,,,,,,,,orange,hexagon
0.0,3.0,3.0,0.0,6.0,6.0,701.0687900001358,4.0,1.0,phase_2,go,350.0,300.0,1.0,,,,,,,,,blue,circle
0.0,6.0,2.0,1.0,5.0,0.0,0.0,4.0,1.0,phase_2,stop,350.0,300.0,4.0,,,,,,,,,gray,I
0.0,2.0,2.0,0.0,5.0,5.0,665.3709329993944,4.0,1.0,phase_2,go,400.0,300.0,1.0,,,,,,,,,magenta,triangle
0.0,2.0,2.0,0.0,5.0,5.0,866.7892439998468,4.0,1.0,phase_2,go,400.0,300.0,1.0,,,,,,,,,magenta,triangle
0.0,4.0,4.0,0.0,5.0,5.0,761.3515740004004,4.0,1.0,phase_2,go,400.0,300.0,1.0,,,,,,,,,orange,hexagon
0.0,7.0,3.0,1.0,5.0,5.0,688.2248230003825,4.0,1.0,phase_2,go,400.0,300.0,1.0,,,,,,,,,cyan,diamond
0.0,7.0,3.0,1.0,5.0,0.0,0.0,4.0,1.0,phase_2,stop,400.0,300.0,4.0,,,,,,,,,cyan,diamond
0.0,4.0,4.0,0.0,6.0,6.0,555.8744299996761,4.0,1.0,phase_2,go,450.0,300.0,1.0,,,,,,,,,orange,hexagon
0.0,8.0,4.0,1.0,6.0,0.0,0.0,4.0,1.0,phase_2,stop,450.0,300.0,4.0,,,,,,,,,green,cross
0.0,4.0,4.0,0.0,5.0,5.0,610.166100999777,4.0,1.0,phase_2,go,450.0,350.0,1.0,,,,,,,,,orange,hexagon
0.0,2.0,2.0,0.0,6.0,6.0,535.7902380001178,4.0,1.0,phase_2,go,450.0,350.0,1.0,,,,,,,,,magenta,triangle
0.0,8.0,4.0,1.0,5.0,5.0,482.035001999975,4.0,1.0,phase_2,stop,450.0,350.0,3.0,,,,,,,,,green,cross
0.0,8.0,4.0,1.0,5.0,0.0,0.0,4.0,1.0,phase_2,stop,400.0,350.0,4.0,,,,,,,,,green,cross
0.0,3.0,3.0,0.0,5.0,5.0,378.5726470005102,5.0,1.0,phase_2,go,450.0,350.0,1.0,,,,,,,,,blue,circle
0.0,4.0,4.0,0.0,6.0,6.0,387.5741300007576,5.0,1.0,phase_2,go,450.0,350.0,1.0,,,,,,,,,orange,hexagon
0.0,8.0,4.0,1.0,6.0,6.0,300.6407990005755,5.0,1.0,phase_2,stop,450.0,350.0,3.0,,,,,,,,,green,cross
0.0,7.0,3.0,1.0,6.0,6.0,460.491691000243,5.0,1.0,phase_2,stop,450.0,300.0,3.0,,,,,,,,,cyan,diamond
0.0,2.0,2.0,0.0,5.0,5.0,429.5542089994342,5.0,1.0,phase_2,go,450.0,250.0,1.0,,,,,,,,,magenta,triangle
0.0,2.0,2.0,0.0,5.0,5.0,372.1714250004879,5.0,1.0,phase_2,go,450.0,250.0,1.0,,,,,,,,,magenta,triangle
0.0,4.0,4.0,0.0,6.0,6.0,450.188892999904,5.0,1.0,phase_2,go,450.0,250.0,1.0,,,,,,,,,orange,hexagon
0.0,8.0,4.0,1.0,6.0,0.0,0.0,5.0,1.0,phase_2,stop,450.0,250.0,4.0,,,,,,,,,green,cross
0.0,4.0,4.0,0.0,6.0,6.0,596.0844560004261,5.0,1.0,phase_2,go,450.0,300.0,1.0,,,,,,,,,orange,hexagon
0.0,6.0,2.0,1.0,6.0,6.0,640.809177999472,5.0,1.0,phase_2,go,450.0,300.0,1.0,,,,,,,,,gray,I
0.0,8.0,4.0,1.0,5.0,5.0,438.628692999373,5.0,1.0,phase_2,stop,450.0,300.0,3.0,,,,,,,,,green,cross
0.0,1.0,1.0,0.0,6.0,6.0,392.2377939998114,5.0,1.0,phase_2,go,400.0,300.0,1.0,,,,,,,,,white,square
0.0,7.0,3.0,1.0,5.0,5.0,513.1251719994907,5.0,1.0,phase_2,stop,400.0,300.0,3.0,,,,,,,,,cyan,diamond
0.0,5.0,1.0,1.0,6.0,6.0,574.8949799999536,5.0,1.0,phase_2,go,350.0,300.0,1.0,,,,,,,,,yellow,flipped triangle
0.0,6.0,2.0,1.0,5.0,0.0,0.0,5.0,1.0,phase_2,stop,350.0,300.0,4.0,,,,,,,,,gray,I
0.0,4.0,4.0,0.0,6.0,6.0,479.34825899938,5.0,1.0,phase_2,go,400.0,300.0,1.0,,,,,,,,,orange,hexagon
0.0,6.0,2.0,1.0,5.0,5.0,439.0530829996351,5.0,1.0,phase_2,stop,400.0,300.0,3.0,,,,,,,,,gray,I
0.0,3.0,3.0,0.0,6.0,6.0,651.4283730002717,5.0,1.0,phase_2,go,350.0,300.0,1.0,,,,,,,,,blue,circle
0.0,8.0,4.0,1.0,6.0,0.0,0.0,5.0,1.0,phase_2,stop,350.0,300.0,4.0,,,,,,,,,green,cross
0.0,6.0,2.0,1.0,5.0,5.0,584.4228349997138,5.0,1.0,phase_2,go,350.0,350.0,1.0,,,,,,,,,gray,I
0.0,3.0,3.0,0.0,6.0,6.0,390.0226599998859,5.0,1.0,phase_2,go,350.0,350.0,1.0,,,,,,,,,blue,circle
0.0,6.0,2.0,1.0,6.0,6.0,602.8254869997909,5.0,1.0,phase_2,go,350.0,350.0,1.0,,,,,,,,,gray,I
0.0,2.0,2.0,0.0,5.0,5.0,378.3996130005107,5.0,1.0,phase_2,go,350.0,350.0,1.0,,,,,,,,,magenta,triangle
0.0,6.0,2.0,1.0,6.0,0.0,0.0,5.0,1.0,phase_2,stop,350.0,350.0,4.0,,,,,,,,,gray,I
0.0,8.0,4.0,1.0,6.0,6.0,555.7298969997646,5.0,1.0,phase_2,stop,350.0,400.0,3.0,,,,,,,,,green,cross
0.0,6.0,2.0,1.0,6.0,6.0,622.3114450003777,5.0,1.0,phase_2,go,350.0,350.0,1.0,,,,,,,,,gray,I
0.0,1.0,1.0,0.0,6.0,6.0,550.2093320001222,5.0,1.0,phase_2,go,350.0,350.0,1.0,,,,,,,,,white,square
0.0,5.0,1.0,1.0,6.0,6.0,493.1190750003225,5.0,1.0,phase_2,go,350.0,350.0,1.0,,,,,,,,,yellow,flipped triangle
0.0,1.0,1.0,0.0,6.0,6.0,336.2771279998924,5.0,1.0,phase_2,go,350.0,350.0,1.0,,,,,,,,,white,square
0.0,6.0,2.0,1.0,5.0,5.0,310.2019939997262,5.0,1.0,phase_2,stop,350.0,350.0,3.0,,,,,,,,,gray,I
0.0,2.0,2.0,0.0,5.0,5.0,577.2481970006993,5.0,1.0,phase_2,go,300.0,350.0,1.0,,,,,,,,,magenta,triangle
0.0,2.0,2.0,0.0,5.0,5.0,446.4511020005375,5.0,1.0,phase_2,go,300.0,350.0,1.0,,,,,,,,,magenta,triangle
0.0,7.0,3.0,1.0,6.0,0.0,0.0,5.0,1.0,phase_2,stop,300.0,350.0,4.0,,,,,,,,,cyan,diamond
0.0,1.0,1.0,0.0,6.0,6.0,586.256212999615,5.0,1.0,phase_2,go,300.0,400.0,1.0,,,,,,,,,white,square
0.0,7.0,3.0,1.0,6.0,6.0,553.8362979996236,5.0,1.0,phase_2,go,300.0,400.0,1.0,,,,,,,,,cyan,diamond
0.0,7.0,3.0,1.0,6.0,6.0,379.2740580001918,5.0,1.0,phase_2,stop,300.0,400.0,3.0,,,,,,,,,cyan,diamond
0.0,2.0,2.0,0.0,5.0,5.0,505.79658599963295,6.0,1.0,phase_2,go,300.0,350.0,1.0,,,,,,,,,magenta,triangle
0.0,2.0,2.0,0.0,6.0,6.0,329.1922500002329,6.0,1.0,phase_2,go,300.0,350.0,1.0,,,,,,,,,magenta,triangle
0.0,7.0,3.0,1.0,6.0,6.0,415.8518570002343,6.0,1.0,phase_2,stop,300.0,350.0,3.0,,,,,,,,,cyan,diamond
0.0,8.0,4.0,1.0,6.0,6.0,556.2744139997449,6.0,1.0,phase_2,go,300.0,300.0,1.0,,,,,,,,,green,cross
0.0,4.0,4.0,0.0,5.0,5.0,570.1584170001297,6.0,1.0,phase_2,go,300.0,300.0,1.0,,,,,,,,,orange,hexagon
0.0,1.0,1.0,0.0,5.0,5.0,403.4668449994569,6.0,1.0,phase_2,go,300.0,300.0,1.0,,,,,,,,,white,square
0.0,7.0,3.0,1.0,6.0,0.0,0.0,6.0,1.0,phase_2,stop,300.0,300.0,4.0,,,,,,,,,cyan,diamond
0.0,5.0,1.0,1.0,5.0,0.0,0.0,6.0,1.0,phase_2,stop,300.0,350.0,4.0,,,,,,,,,yellow,flipped triangle
0.0,1.0,1.0,0.0,6.0,6.0,493.7883859993235,6.0,1.0,phase_2,go,350.0,350.0,1.0,,,,,,,,,white,square
0.0,7.0,3.0,1.0,6.0,0.0,0.0,6.0,1.0,phase_2,stop,350.0,350.0,4.0,,,,,,,,,cyan,diamond
0.0,2.0,2.0,0.0,6.0,6.0,725.8276500006104,6.0,1.0,phase_2,go,350.0,400.0,1.0,,,,,,,,,magenta,triangle
0.0,6.0,2.0,1.0,5.0,0.0,0.0,6.0,1.0,phase_2,stop,350.0,400.0,4.0,,,,,,,,,gray,I
0.0,5.0,1.0,1.0,5.0,0.0,0.0,6.0,1.0,phase_2,stop,400.0,400.0,4.0,,,,,,,,,yellow,flipped triangle
0.0,7.0,3.0,1.0,5.0,5.0,305.4304710003634,6.0,1.0,phase_2,stop,450.0,400.0,3.0,,,,,,,,,cyan,diamond
0.0,1.0,1.0,0.0,6.0,6.0,667.9220410005655,6.0,1.0,phase_2,go,400.0,400.0,1.0,,,,,,,,,white,square
0.0,4.0,4.0,0.0,5.0,5.0,522.260888999881,6.0,1.0,phase_2,go,400.0,400.0,1.0,,,,,,,,,orange,hexagon
0.0,5.0,1.0,1.0,6.0,0.0,0.0,6.0,1.0,phase_2,stop,400.0,400.0,4.0,,,,,,,,,yellow,flipped triangle
0.0,1.0,1.0,0.0,5.0,5.0,608.9712610000788,6.0,1.0,phase_2,go,400.0,450.0,1.0,,,,,,,,,white,square
0.0,7.0,3.0,1.0,5.0,5.0,433.8850579997597,6.0,1.0,phase_2,stop,400.0,450.0,3.0,,,,,,,,,cyan,diamond
0.0,3.0,3.0,0.0,6.0,6.0,521.5195399996446,6.0,1.0,phase_2,go,350.0,450.0,1.0,,,,,,,,,blue,circle
0.0,6.0,2.0,1.0,6.0,0.0,0.0,6.0,1.0,phase_2,stop,350.0,450.0,4.0,,,,,,,,,gray,I
0.0,2.0,2.0,0.0,6.0,6.0,738.7498300004154,6.0,1.0,phase_2,go,350.0,500.0,1.0,,,,,,,,,magenta,triangle
0.0,8.0,4.0,1.0,6.0,0.0,0.0,6.0,1.0,phase_2,stop,350.0,500.0,4.0,,,,,,,,,green,cross
0.0,6.0,2.0,1.0,5.0,0.0,0.0,6.0,1.0,phase_2,stop,350.0,550.0,4.0,,,,,,,,,gray,I
0.0,1.0,1.0,0.0,5.0,5.0,767.9671949999829,6.0,1.0,phase_2,go,400.0,550.0,1.0,,,,,,,,,white,square
0.0,6.0,2.0,1.0,6.0,0.0,0.0,6.0,1.0,phase_2,stop,400.0,550.0,4.0,,,,,,,,,gray,I
0.0,7.0,3.0,1.0,6.0,0.0,0.0,6.0,1.0,phase_2,stop,400.0,600.0,4.0,,,,,,,,,cyan,diamond
0.0,8.0,4.0,1.0,5.0,5.0,722.0840870004395,6.0,1.0,phase_2,go,400.0,650.0,1.0,,,,,,,,,green,cross
0.0,8.0,4.0,1.0,6.0,6.0,504.8921050001809,6.0,1.0,phase_2,stop,400.0,650.0,3.0,,,,,,,,,green,cross
0.0,5.0,1.0,1.0,6.0,6.0,681.3692469995658,6.0,1.0,phase_2,stop,400.0,600.0,3.0,,,,,,,,,yellow,flipped triangle
0.0,3.0,3.0,0.0,5.0,5.0,588.4506020001936,6.0,1.0,phase_2,go,400.0,550.0,1.0,,,,,,,,,blue,circle
0.0,3.0,3.0,0.0,6.0,6.0,577.0692699998108,6.0,1.0,phase_2,go,400.0,550.0,1.0,,,,,,,,,blue,circle
0.0,5.0,1.0,1.0,6.0,6.0,674.5501529994726,6.0,1.0,phase_2,stop,400.0,550.0,3.0,,,,,,,,,yellow,flipped triangle
0.0,5.0,1.0,1.0,5.0,0.0,0.0,6.0,1.0,phase_2,stop,400.0,500.0,4.0,,,,,,,,,yellow,flipped triangle
0.0,1.0,1.0,0.0,5.0,5.0,412.5994969999738,6.0,1.0,phase_2,go,450.0,500.0,1.0,,,,,,,,,white,square
0.0,3.0,3.0,0.0,5.0,5.0,532.5695880001149,6.0,1.0,phase_2,go,450.0,500.0,1.0,,,,,,,,,blue,circle
0.0,1.0,1.0,0.0,5.0,5.0,543.0859719999717,7.0,1.0,phase_2,go,450.0,500.0,1.0,,,,,,,,,white,square
0.0,5.0,1.0,1.0,5.0,5.0,446.1943390006126,7.0,1.0,phase_2,stop,450.0,500.0,3.0,,,,,,,,,yellow,flipped triangle
0.0,7.0,3.0,1.0,5.0,5.0,526.5973360001226,7.0,1.0,phase_2,go,400.0,500.0,1.0,,,,,,,,,cyan,diamond
0.0,8.0,4.0,1.0,6.0,6.0,539.0780709994942,7.0,1.0,phase_2,stop,400.0,500.0,3.0,,,,,,,,,green,cross
0.0,4.0,4.0,0.0,6.0,6.0,781.6933830008566,7.0,1.0,phase_2,go,400.0,450.0,1.0,,,,,,,,,orange,hexagon
0.0,7.0,3.0,1.0,5.0,5.0,531.4932860001136,7.0,1.0,phase_2,stop,400.0,450.0,3.0,,,,,,,,,cyan,diamond
0.0,7.0,3.0,1.0,5.0,0.0,0.0,7.0,1.0,phase_2,stop,350.0,450.0,4.0,,,,,,,,,cyan,diamond
0.0,4.0,4.0,0.0,6.0,6.0,537.0571389994439,7.0,1.0,phase_2,go,400.0,450.0,1.0,,,,,,,,,orange,hexagon
0.0,3.0,3.0,0.0,6.0,6.0,662.9139839997151,7.0,1.0,phase_2,go,400.0,450.0,1.0,,,,,,,,,blue,circle
0.0,5.0,1.0,1.0,5.0,5.0,684.733660999882,7.0,1.0,phase_2,go,400.0,450.0,1.0,,,,,,,,,yellow,flipped triangle
0.0,3.0,3.0,0.0,5.0,5.0,591.5465749994837,7.0,1.0,phase_2,go,400.0,450.0,1.0,,,,,,,,,blue,circle
0.0,8.0,4.0,1.0,5.0,0.0,0.0,7.0,1.0,phase_2,stop,400.0,450.0,4.0,,,,,,,,,green,cross
0.0,1.0,1.0,0.0,5.0,5.0,772.552252999958,7.0,1.0,phase_2,go,450.0,450.0,1.0,,,,,,,,,white,square
0.0,1.0,1.0,0.0,5.0,5.0,770.7244339999306,7.0,1.0,phase_2,go,450.0,450.0,1.0,,,,,,,,,white,square
0.0,2.0,2.0,0.0,6.0,6.0,587.6187739995657,7.0,1.0,phase_2,go,450.0,450.0,1.0,,,,,,,,,magenta,triangle
0.0,3.0,3.0,0.0,5.0,5.0,591.9003669996528,7.0,1.0,phase_2,go,450.0,450.0,1.0,,,,,,,,,blue,circle
0.0,1.0,1.0,0.0,6.0,6.0,553.7314270004572,7.0,1.0,phase_2,go,450.0,450.0,1.0,,,,,,,,,white,square
0.0,3.0,3.0,0.0,5.0,5.0,381.1974239997653,7.0,1.0,phase_2,go,450.0,450.0,1.0,,,,,,,,,blue,circle
0.0,5.0,1.0,1.0,6.0,6.0,388.4931609991326,7.0,1.0,phase_2,stop,450.0,450.0,3.0,,,,,,,,,yellow,flipped triangle
0.0,2.0,2.0,0.0,6.0,6.0,674.4984910001222,7.0,1.0,phase_2,go,450.0,400.0,1.0,,,,,,,,,magenta,triangle
0.0,7.0,3.0,1.0,5.0,0.0,0.0,7.0,1.0,phase_2,stop,450.0,400.0,4.0,,,,,,,,,cyan,diamond
0.0,6.0,2.0,1.0,6.0,0.0,0.0,7.0,1.0,phase_2,stop,500.0,400.0,4.0,,,,,,,,,gray,I
0.0,1.0,1.0,0.0,6.0,6.0,869.8583980003605,7.0,1.0,phase_2,go,500.0,450.0,1.0,,,,,,,,,white,square
0.0,8.0,4.0,1.0,6.0,6.0,555.8628919998228,7.0,1.0,phase_2,stop,500.0,450.0,3.0,,,,,,,,,green,cross
0.0,1.0,1.0,0.0,6.0,6.0,1184.0118039999652,7.0,1.0,phase_2,go,500.0,400.0,1.0,,,,,,,,,white,square
0.0,7.0,3.0,1.0,5.0,5.0,316.7587939997247,7.0,1.0,phase_2,go,500.0,400.0,1.0,,,,,,,,,cyan,diamond
0.0,7.0,3.0,1.0,5.0,5.0,422.5687599991943,7.0,1.0,phase_2,stop,500.0,400.0,3.0,,,,,,,,,cyan,diamond
0.0,1.0,1.0,0.0,5.0,5.0,640.3700460004984,7.0,1.0,phase_2,go,450.0,400.0,1.0,,,,,,,,,white,square
0.0,8.0,4.0,1.0,6.0,6.0,457.1616949997406,7.0,1.0,phase_2,stop,450.0,400.0,3.0,,,,,,,,,green,cross
0.0,5.0,1.0,1.0,6.0,6.0,556.662459999643,7.0,1.0,phase_2,go,450.0,350.0,1.0,,,,,,,,,yellow,flipped triangle
0.0,1.0,1.0,0.0,6.0,6.0,358.035141000073,7.0,1.0,phase_2,go,450.0,350.0,1.0,,,,,,,,,white,square
0.0,4.0,4.0,0.0,6.0,6.0,429.9919029999728,7.0,1.0,phase_2,go,450.0,350.0,1.0,,,,,,,,,orange,hexagon
0.0,4.0,4.0,0.0,6.0,6.0,277.5783179995414,7.0,1.0,phase_2,go,450.0,350.0,1.0,,,,,,,,,orange,hexagon
0.0,7.0,3.0,1.0,6.0,6.0,389.5037839993165,7.0,1.0,phase_2,stop,450.0,350.0,3.0,,,,,,,,,cyan,diamond
0.0,5.0,1.0,1.0,5.0,5.0,511.1434990003545,7.0,1.0,phase_2,stop,450.0,300.0,3.0,,,,,,,,,yellow,flipped triangle
0.0,5.0,1.0,1.0,6.0,0.0,0.0,7.0,1.0,phase_2,stop,400.0,300.0,4.0,,,,,,,,,yellow,flipped triangle
0.0,4.0,4.0,0.0,6.0,6.0,368.0636239996602,8.0,1.0,phase_2,go,400.0,350.0,1.0,,,,,,,,,orange,hexagon
0.0,4.0,4.0,0.0,5.0,5.0,273.2096859999728,8.0,1.0,phase_2,go,400.0,350.0,1.0,,,,,,,,,orange,hexagon
0.0,8.0,4.0,1.0,5.0,5.0,281.644697000047,8.0,1.0,phase_2,go,400.0,350.0,1.0,,,,,,,,,green,cross
0.0,7.0,3.0,1.0,6.0,6.0,240.727140000672,8.0,1.0,phase_2,stop,400.0,350.0,3.0,,,,,,,,,cyan,diamond
0.0,8.0,4.0,1.0,5.0,5.0,523.2982460001949,8.0,1.0,phase_2,stop,400.0,300.0,3.0,,,,,,,,,green,cross
0.0,2.0,2.0,0.0,6.0,6.0,628.9691430001767,8.0,1.0,phase_2,go,350.0,300.0,1.0,,,,,,,,,magenta,triangle
0.0,4.0,4.0,0.0,6.0,6.0,589.0945440005453,8.0,1.0,phase_2,go,350.0,300.0,1.0,,,,,,,,,orange,hexagon
0.0,6.0,2.0,1.0,5.0,5.0,289.9338209999769,8.0,1.0,phase_2,stop,350.0,300.0,3.0,,,,,,,,,gray,I
0.0,2.0,2.0,0.0,5.0,5.0,568.8330789998872,8.0,1.0,phase_2,go,300.0,300.0,1.0,,,,,,,,,magenta,triangle
0.0,2.0,2.0,0.0,6.0,6.0,573.2403230003911,8.0,1.0,phase_2,go,300.0,300.0,1.0,,,,,,,,,magenta,triangle
0.0,1.0,1.0,0.0,5.0,5.0,611.032828000134,8.0,1.0,phase_2,go,300.0,300.0,1.0,,,,,,,,,white,square
0.0,2.0,2.0,0.0,5.0,5.0,338.3347690005394,8.0,1.0,phase_2,go,300.0,300.0,1.0,,,,,,,,,magenta,triangle
0.0,2.0,2.0,0.0,6.0,6.0,455.5381730006047,8.0,1.0,phase_2,go,300.0,300.0,1.0,,,,,,,,,magenta,triangle
0.0,8.0,4.0,1.0,6.0,0.0,0.0,8.0,1.0,phase_2,stop,300.0,300.0,4.0,,,,,,,,,green,cross
0.0,3.0,3.0,0.0,5.0,5.0,682.0964369999274,8.0,1.0,phase_2,go,300.0,350.0,1.0,,,,,,,,,blue,circle
0.0,2.0,2.0,0.0,5.0,5.0,444.9582289998943,8.0,1.0,phase_2,go,300.0,350.0,1.0,,,,,,,,,magenta,triangle
0.0,1.0,1.0,0.0,5.0,5.0,436.1994200007757,8.0,1.0,phase_2,go,300.0,350.0,1.0,,,,,,,,,white,square
0.0,3.0,3.0,0.0,5.0,5.0,416.5993549995619,8.0,1.0,phase_2,go,300.0,350.0,1.0,,,,,,,,,blue,circle
0.0,6.0,2.0,1.0,5.0,5.0,452.5323369998659,8.0,1.0,phase_2,stop,300.0,350.0,3.0,,,,,,,,,gray,I
0.0,3.0,3.0,0.0,5.0,5.0,640.9045430000333,8.0,1.0,phase_2,go,250.0,350.0,1.0,,,,,,,,,blue,circle
0.0,7.0,3.0,1.0,5.0,0.0,0.0,8.0,1.0,phase_2,stop,250.0,350.0,4.0,,,,,,,,,cyan,diamond
0.0,3.0,3.0,0.0,6.0,6.0,549.2298760000267,8.0,1.0,phase_2,go,300.0,350.0,1.0,,,,,,,,,blue,circle
0.0,7.0,3.0,1.0,6.0,6.0,488.2784480005284,8.0,1.0,phase_2,stop,300.0,350.0,3.0,,,,,,,,,cyan,diamond
0.0,5.0,1.0,1.0,6.0,6.0,572.2575200006759,8.0,1.0,phase_2,go,300.0,300.0,1.0,,,,,,,,,yellow,flipped triangle
0.0,3.0,3.0,0.0,5.0,5.0,658.629036000093,8.0,1.0,phase_2,go,300.0,300.0,1.0,,,,,,,,,blue,circle
0.0,8.0,4.0,1.0,5.0,5.0,659.0923429994291,8.0,1.0,phase_2,go,300.0,300.0,1.0,,,,,,,,,green,cross
0.0,3.0,3.0,0.0,6.0,6.0,557.0383060003223,8.0,1.0,phase_2,go,300.0,300.0,1.0,,,,,,,,,blue,circle
0.0,7.0,3.0,1.0,5.0,5.0,585.4146650008261,8.0,1.0,phase_2,go,300.0,300.0,1.0,,,,,,,,,cyan,diamond
0.0,7.0,3.0,1.0,6.0,6.0,617.2072999997908,8.0,1.0,phase_2,go,300.0,300.0,1.0,,,,,,,,,cyan,diamond
0.0,1.0,1.0,0.0,5.0,5.0,527.5366899995788,8.0,1.0,phase_2,go,300.0,300.0,1.0,,,,,,,,,white,square
0.0,5.0,1.0,1.0,5.0,0.0,0.0,8.0,1.0,phase_2,stop,300.0,300.0,4.0,,,,,,,,,yellow,flipped triangle
0.0,3.0,3.0,0.0,6.0,6.0,714.1271520004011,8.0,1.0,phase_2,go,350.0,300.0,1.0,,,,,,,,,blue,circle
0.0,1.0,1.0,0.0,6.0,6.0,452.5740700000824,8.0,1.0,phase_2,go,350.0,300.0,1.0,,,,,,,,,white,square
0.0,8.0,4.0,1.0,6.0,6.0,512.2223460002715,8.0,1.0,phase_2,go,350.0,300.0,1.0,,,,,,,,,green,cross
0.0,7.0,3.0,1.0,5.0,0.0,0.0,8.0,1.0,phase_2,stop,350.0,300.0,4.0,,,,,,,,,cyan,diamond
0.0,1.0,1.0,0.0,6.0,6.0,505.82428599955165,8.0,1.0,phase_2,go,400.0,300.0,1.0,,,,,,,,,white,square
0.0,1.0,1.0,0.0,7.0,3.0,3623.559409999871,1.0,1.0,phase_3,,,,,78.0,2.0,195.0,117.0,78.0,156.0,39.0,234.0,white,square
0.0,4.0,4.0,0.0,7.0,2.0,2793.936031000157,1.0,1.0,phase_3,,,,,270.0,5.0,162.0,270.0,216.0,108.0,324.0,54.0,orange,hexagon
0.0,7.0,3.0,1.0,7.0,1.0,4548.807268999553,1.0,1.0,phase_3,,,,,204.0,6.0,204.0,68.0,136.0,102.0,170.0,34.0,cyan,diamond
0.0,3.0,3.0,0.0,7.0,2.0,4200.859986000069,1.0,1.0,phase_3,,,,,108.0,2.0,270.0,108.0,162.0,54.0,216.0,324.0,blue,circle
0.0,7.0,3.0,1.0,7.0,6.0,2942.8671850000683,1.0,1.0,phase_3,,,,,176.0,4.0,132.0,264.0,44.0,220.0,88.0,176.0,cyan,diamond
0.0,2.0,2.0,0.0,7.0,4.0,1928.6029399991091,1.0,1.0,phase_3,,,,,220.0,5.0,264.0,44.0,132.0,220.0,88.0,176.0,magenta,triangle
0.0,4.0,4.0,0.0,7.0,2.0,1698.4346720000758,1.0,1.0,phase_3,,,,,196.0,4.0,49.0,196.0,245.0,294.0,98.0,147.0,orange,hexagon
0.0,4.0,4.0,0.0,7.0,1.0,2939.1047089993663,1.0,1.0,phase_3,,,,,176.0,4.0,176.0,88.0,132.0,264.0,44.0,220.0,orange,hexagon
0.0,8.0,4.0,1.0,7.0,5.0,2789.7764660001485,1.0,1.0,phase_3,,,,,170.0,5.0,34.0,102.0,136.0,68.0,170.0,204.0,green,cross
0.0,1.0,1.0,0.0,7.0,3.0,3632.36732400037,1.0,1.0,phase_3,,,,,54.0,1.0,108.0,162.0,54.0,270.0,324.0,216.0,white,square
0.0,6.0,2.0,1.0,7.0,4.0,1953.683892999834,1.0,1.0,phase_3,,,,,195.0,5.0,156.0,78.0,117.0,195.0,234.0,39.0,gray,I
0.0,1.0,1.0,0.0,7.0,1.0,2739.0509059996475,1.0,1.0,phase_3,,,,,88.0,2.0,88.0,264.0,132.0,176.0,220.0,44.0,white,square
0.0,2.0,2.0,0.0,7.0,5.0,1810.8294249996104,1.0,1.0,phase_3,,,,,102.0,3.0,136.0,34.0,170.0,204.0,102.0,68.0,magenta,triangle
0.0,5.0,1.0,1.0,7.0,6.0,2517.730054999447,1.0,1.0,phase_3,,,,,117.0,3.0,156.0,78.0,195.0,234.0,39.0,117.0,yellow,flipped triangle
0.0,6.0,2.0,1.0,7.0,3.0,2023.3465299997988,1.0,1.0,phase_3,,,,,162.0,3.0,216.0,54.0,162.0,108.0,270.0,324.0,gray,I
0.0,5.0,1.0,1.0,7.0,4.0,2661.626375999731,1.0,1.0,phase_3,,,,,132.0,3.0,88.0,176.0,264.0,132.0,220.0,44.0,yellow,flipped triangle
0.0,5.0,1.0,1.0,7.0,6.0,4105.145506000554,1.0,1.0,phase_3,,,,,156.0,4.0,39.0,78.0,234.0,195.0,117.0,156.0,yellow,flipped triangle
0.0,8.0,4.0,1.0,7.0,1.0,1681.1767949993737,1.0,1.0,phase_3,,,,,216.0,4.0,216.0,324.0,108.0,270.0,54.0,162.0,green,cross
0.0,6.0,2.0,1.0,7.0,3.0,3685.1410099998247,1.0,1.0,phase_3,,,,,49.0,1.0,98.0,294.0,49.0,245.0,196.0,147.0,gray,I
0.0,3.0,3.0,0.0,7.0,5.0,2969.8052490002738,1.0,1.0,phase_3,,,,,136.0,4.0,204.0,170.0,102.0,68.0,136.0,34.0,blue,circle
0.0,6.0,2.0,1.0,7.0,5.0,1320.6419569996797,2.0,1.0,phase_3,,,,,88.0,2.0,220.0,132.0,264.0,176.0,88.0,44.0,gray,I
0.0,2.0,2.0,0.0,7.0,1.0,1760.7918160001643,2.0,1.0,phase_3,,,,,196.0,4.0,196.0,294.0,245.0,147.0,49.0,98.0,magenta,triangle
0.0,4.0,4.0,0.0,7.0,5.0,1472.9410330000974,2.0,1.0,phase_3,,,,,264.0,6.0,220.0,88.0,44.0,132.0,264.0,176.0,orange,hexagon
0.0,5.0,1.0,1.0,7.0,2.0,1253.396907000024,2.0,1.0,phase_3,,,,,170.0,5.0,204.0,170.0,34.0,102.0,68.0,136.0,yellow,flipped triangle
0.0,6.0,2.0,1.0,7.0,1.0,1826.3727049998124,2.0,1.0,phase_3,,,,,68.0,2.0,68.0,170.0,204.0,136.0,34.0,102.0,gray,I
0.0,6.0,2.0,1.0,7.0,6.0,1832.929370999409,2.0,1.0,phase_3,,,,,88.0,2.0,220.0,44.0,264.0,176.0,132.0,88.0,gray,I
0.0,3.0,3.0,0.0,7.0,4.0,4559.246560000247,2.0,1.0,phase_3,,,,,147.0,3.0,294.0,49.0,245.0,147.0,196.0,98.0,blue,circle
0.0,5.0,1.0,1.0,7.0,3.0,1499.633778000316,2.0,1.0,phase_3,,,,,204.0,6.0,34.0,170.0,204.0,102.0,68.0,136.0,yellow,flipped triangle
0.0,4.0,4.0,0.0,7.0,2.0,2234.474902999864,2.0,1.0,phase_3,,,,,195.0,5.0,234.0,195.0,117.0,78.0,39.0,156.0,orange,hexagon
0.0,8.0,4.0,1.0,7.0,1.0,2527.8905200002555,2.0,1.0,phase_3,,,,,324.0,6.0,324.0,270.0,216.0,54.0,162.0,108.0,green,cross
0.0,4.0,4.0,0.0,7.0,3.0,1834.961083000053,2.0,1.0,phase_3,,,,,234.0,6.0,117.0,156.0,234.0,39.0,78.0,195.0,orange,hexagon
0.0,8.0,4.0,1.0,7.0,5.0,1414.9416749996817,2.0,1.0,phase_3,,,,,132.0,3.0,264.0,88.0,176.0,44.0,132.0,220.0,green,cross
0.0,6.0,2.0,1.0,7.0,3.0,1911.7565679998731,2.0,1.0,phase_3,,,,,68.0,2.0,102.0,204.0,68.0,34.0,170.0,136.0,gray,I
0.0,5.0,1.0,1.0,7.0,5.0,1532.0369550008763,2.0,1.0,phase_3,,,,,162.0,3.0,54.0,108.0,324.0,216.0,162.0,270.0,yellow,flipped triangle
0.0,8.0,4.0,1.0,7.0,4.0,2633.025297000131,2.0,1.0,phase_3,,,,,136.0,4.0,34.0,102.0,68.0,136.0,170.0,204.0,green,cross
0.0,7.0,3.0,1.0,7.0,1.0,1250.2285740001753,2.0,1.0,phase_3,,,,,195.0,5.0,195.0,156.0,39.0,117.0,234.0,78.0,cyan,diamond
0.0,1.0,1.0,0.0,7.0,5.0,1885.4657020001468,2.0,1.0,phase_3,,,,,39.0,1.0,195.0,234.0,117.0,156.0,39.0,78.0,white,square
0.0,8.0,4.0,1.0,7.0,3.0,2292.698606999693,2.0,1.0,phase_3,,,,,176.0,4.0,88.0,264.0,176.0,220.0,132.0,44.0,green,cross
0.0,7.0,3.0,1.0,7.0,4.0,1306.2007779999476,2.0,1.0,phase_3,,,,,204.0,6.0,34.0,170.0,68.0,204.0,136.0,102.0,cyan,diamond
0.0,1.0,1.0,0.0,7.0,4.0,2000.036882999666,2.0,1.0,phase_3,,,,,54.0,1.0,216.0,270.0,162.0,54.0,108.0,324.0,white,square
0.0,1.0,1.0,0.0,7.0,2.0,1850.1969139997527,3.0,1.0,phase_3,,,,,34.0,1.0,68.0,34.0,204.0,102.0,136.0,170.0,white,square
0.0,1.0,1.0,0.0,7.0,5.0,1739.14176100061,3.0,1.0,phase_3,,,,,49.0,1.0,98.0,196.0,147.0,245.0,49.0,294.0,white,square
0.0,7.0,3.0,1.0,7.0,2.0,1388.9221870003894,3.0,1.0,phase_3,,,,,245.0,5.0,49.0,245.0,196.0,147.0,98.0,294.0,cyan,diamond
0.0,4.0,4.0,0.0,7.0,3.0,1836.2949620004656,3.0,1.0,phase_3,,,,,204.0,6.0,68.0,170.0,204.0,136.0,34.0,102.0,orange,hexagon
0.0,6.0,2.0,1.0,7.0,1.0,3228.65915499915,3.0,1.0,phase_3,,,,,108.0,2.0,108.0,216.0,54.0,270.0,162.0,324.0,gray,I
0.0,5.0,1.0,1.0,7.0,3.0,3331.741666000198,3.0,1.0,phase_3,,,,,132.0,3.0,44.0,264.0,132.0,176.0,220.0,88.0,yellow,flipped triangle
0.0,7.0,3.0,1.0,7.0,1.0,2190.16724300036,3.0,1.0,phase_3,,,,,216.0,4.0,216.0,54.0,162.0,108.0,324.0,270.0,cyan,diamond
0.0,1.0,1.0,0.0,7.0,5.0,1422.0447289999356,3.0,1.0,phase_3,,,,,34.0,1.0,170.0,136.0,102.0,204.0,34.0,68.0,white,square
0.0,2.0,2.0,0.0,7.0,5.0,2578.9702689999103,3.0,1.0,phase_3,,,,,132.0,3.0,88.0,264.0,220.0,44.0,132.0,176.0,magenta,triangle
0.0,2.0,2.0,0.0,7.0,3.0,2534.4365259998085,3.0,1.0,phase_3,,,,,162.0,3.0,324.0,54.0,162.0,270.0,216.0,108.0,magenta,triangle
0.0,3.0,3.0,0.0,7.0,1.0,2481.6792390001865,3.0,1.0,phase_3,,,,,220.0,5.0,220.0,88.0,176.0,132.0,264.0,44.0,blue,circle
0.0,3.0,3.0,0.0,7.0,4.0,1816.7357410002296,3.0,1.0,phase_3,,,,,245.0,5.0,147.0,98.0,196.0,245.0,294.0,49.0,blue,circle
0.0,6.0,2.0,1.0,7.0,5.0,1753.8319959994624,3.0,1.0,phase_3,,,,,78.0,2.0,117.0,234.0,39.0,156.0,78.0,195.0,gray,I
0.0,2.0,2.0,0.0,7.0,3.0,1155.048359999455,3.0,1.0,phase_3,,,,,117.0,3.0,156.0,234.0,117.0,195.0,39.0,78.0,magenta,triangle
0.0,3.0,3.0,0.0,7.0,6.0,2463.475943000049,3.0,1.0,phase_3,,,,,220.0,5.0,264.0,88.0,132.0,176.0,44.0,220.0,blue,circle
0.0,3.0,3.0,0.0,7.0,2.0,2568.8340860006065,3.0,1.0,phase_3,,,,,204.0,6.0,170.0,204.0,68.0,136.0,34.0,102.0,blue,circle
0.0,6.0,2.0,1.0,7.0,3.0,2323.342175000107,3.0,1.0,phase_3,,,,,98.0,2.0,49.0,294.0,98.0,147.0,245.0,196.0,gray,I
0.0,2.0,2.0,0.0,7.0,2.0,1974.0351620002912,3.0,1.0,phase_3,,,,,170.0,5.0,136.0,170.0,34.0,204.0,68.0,102.0,magenta,triangle
0.0,1.0,1.0,0.0,7.0,4.0,1563.8882829998693,3.0,1.0,phase_3,,,,,44.0,1.0,264.0,132.0,176.0,44.0,220.0,88.0,white,square
0.0,4.0,4.0,0.0,7.0,4.0,1886.593866000112,3.0,1.0,phase_3,,,,,294.0,6.0,245.0,98.0,196.0,294.0,49.0,147.0,orange,hexagon
0.0,4.0,4.0,0.0,7.0,4.0,2518.6062570001013,4.0,1.0,phase_3,,,,,204.0,6.0,102.0,34.0,68.0,204.0,136.0,170.0,orange,hexagon
0.0,2.0,2.0,0.0,7.0,5.0,2568.17776600019,4.0,1.0,phase_3,,,,,108.0,2.0,54.0,162.0,270.0,216.0,108.0,324.0,magenta,triangle
0.0,7.0,3.0,1.0,7.0,4.0,2241.3903589995243,4.0,1.0,phase_3,,,,,108.0,2.0,270.0,54.0,324.0,108.0,216.0,162.0,cyan,diamond
0.0,5.0,1.0,1.0,7.0,6.0,2544.79555800026,4.0,1.0,phase_3,,,,,162.0,3.0,108.0,54.0,324.0,270.0,216.0,162.0,yellow,flipped triangle
0.0,4.0,4.0,0.0,7.0,3.0,1734.9571960003232,4.0,1.0,phase_3,,,,,324.0,6.0,270.0,216.0,324.0,162.0,54.0,108.0,orange,hexagon
0.0,8.0,4.0,1.0,7.0,5.0,1495.5445919995327,4.0,1.0,phase_3,,,,,98.0,2.0,196.0,49.0,294.0,147.0,98.0,245.0,green,cross
0.0,2.0,2.0,0.0,7.0,4.0,2041.1926659999158,4.0,1.0,phase_3,,,,,196.0,4.0,147.0,294.0,49.0,196.0,98.0,245.0,magenta,triangle
0.0,2.0,2.0,0.0,7.0,1.0,1359.1787519999343,4.0,1.0,phase_3,,,,,195.0,5.0,195.0,156.0,39.0,78.0,234.0,117.0,magenta,triangle
0.0,3.0,3.0,0.0,7.0,1.0,2089.2464569997173,4.0,1.0,phase_3,,,,,195.0,5.0,195.0,39.0,234.0,156.0,78.0,117.0,blue,circle
0.0,8.0,4.0,1.0,7.0,5.0,1795.657287999347,4.0,1.0,phase_3,,,,,245.0,5.0,98.0,49.0,294.0,196.0,245.0,147.0,green,cross
0.0,7.0,3.0,1.0,7.0,3.0,2244.3642499993075,4.0,1.0,phase_3,,,,,147.0,3.0,196.0,245.0,147.0,98.0,294.0,49.0,cyan,diamond
0.0,5.0,1.0,1.0,7.0,3.0,2703.7503319997995,4.0,1.0,phase_3,,,,,98.0,2.0,294.0,245.0,98.0,196.0,147.0,49.0,yellow,flipped triangle
0.0,1.0,1.0,0.0,7.0,2.0,1361.301538000589,4.0,1.0,phase_3,,,,,49.0,1.0,245.0,49.0,147.0,196.0,294.0,98.0,white,square
0.0,8.0,4.0,1.0,7.0,4.0,1304.6486539997204,4.0,1.0,phase_3,,,,,156.0,4.0,78.0,195.0,234.0,156.0,117.0,39.0,green,cross
0.0,3.0,3.0,0.0,7.0,2.0,2822.963618000358,4.0,1.0,phase_3,,,,,216.0,4.0,54.0,216.0,270.0,162.0,324.0,108.0,blue,circle
0.0,7.0,3.0,1.0,7.0,6.0,2039.8427660002199,4.0,1.0,phase_3,,,,,264.0,6.0,44.0,132.0,88.0,220.0,176.0,264.0,cyan,diamond
0.0,5.0,1.0,1.0,7.0,3.0,2384.0659210000013,4.0,1.0,phase_3,,,,,147.0,3.0,196.0,245.0,147.0,49.0,294.0,98.0,yellow,flipped triangle
0.0,3.0,3.0,0.0,7.0,5.0,1451.81088299978,4.0,1.0,phase_3,,,,,117.0,3.0,156.0,78.0,195.0,234.0,117.0,39.0,blue,circle
0.0,8.0,4.0,1.0,7.0,1.0,1718.4824999994817,4.0,1.0,phase_3,,,,,78.0,2.0,78.0,156.0,195.0,117.0,234.0,39.0,green,cross
0.0,7.0,3.0,1.0,7.0,1.0,1442.6302749998283,4.0,1.0,phase_3,,,,,78.0,2.0,78.0,156.0,195.0,234.0,39.0,117.0,cyan,diamond
