raw_reward_magnitude,stim_reward,stepwise_reward_magnitude,paired_with_stopping,stim_location,response,reaction_time,block,num_trial_presentations,which_phase,stop_signal_trial_type,left_SSD,right_SSD,accuracy,chosen_bidding_amount,chosen_bidding_level,possible_bid_1,possible_bid_2,possible_bid_3,possible_bid_4,possible_bid_5,possible_bid_6,color_text,shape_text
0.0,5.0,0.0,1.0,1.0,1.0,389.5793960000446,1.0,1.0,phase_1,,,,,,,,,,,,,gray,triangle
124.0,2.0,2.0,0.0,1.0,1.0,406.4461119999123,1.0,1.0,phase_1,,,,,,,,,,,,,yellow,cross
0.0,6.0,0.0,1.0,4.0,4.0,370.7592470000236,1.0,1.0,phase_1,,,,,,,,,,,,,blue,I
206.0,7.0,3.0,1.0,4.0,4.0,369.1362249999201,1.0,1.0,phase_1,,,,,,,,,,,,,cyan,flipped triangle
383.0,8.0,4.0,1.0,1.0,1.0,327.112020999948,1.0,1.0,phase_1,,,,,,,,,,,,,orange,square
33.0,1.0,1.0,0.0,3.0,3.0,390.2208940000946,1.0,1.0,phase_1,,,,,,,,,,,,,white,diamond
0.0,7.0,0.0,1.0,2.0,2.0,340.2424309999787,1.0,1.0,phase_1,,,,,,,,,,,,,cyan,flipped triangle
120.0,2.0,2.0,0.0,1.0,1.0,362.5937369999974,1.0,1.0,phase_1,,,,,,,,,,,,,yellow,cross
84.0,2.0,2.0,0.0,3.0,3.0,337.5818969998363,1.0,1.0,phase_1,,,,,,,,,,,,,yellow,cross
0.0,6.0,0.0,1.0,1.0,1.0,304.8351530001127,1.0,1.0,phase_1,,,,,,,,,,,,,blue,I
377.0,8.0,4.0,1.0,2.0,2.0,311.4753659999678,1.0,1.0,phase_1,,,,,,,,,,,,,orange,square
105.0,6.0,2.0,1.0,4.0,4.0,283.5669430000962,1.0,1.0,phase_1,,,,,,,,,,,,,blue,I
0.0,3.0,0.0,0.0,4.0,4.0,310.7739910001328,1.0,1.0,phase_1,,,,,,,,,,,,,green,circle
42.0,5.0,1.0,1.0,2.0,2.0,293.0125059999682,1.0,1.0,phase_1,,,,,,,,,,,,,gray,triangle
177.0,7.0,3.0,1.0,1.0,1.0,283.777973000042,1.0,1.0,phase_1,,,,,,,,,,,,,cyan,flipped triangle
106.0,2.0,2.0,0.0,1.0,1.0,309.0590469998915,1.0,1.0,phase_1,,,,,,,,,,,,,yellow,cross
0.0,5.0,0.0,1.0,1.0,1.0,291.9139969999378,1.0,1.0,phase_1,,,,,,,,,,,,,gray,triangle
90.0,2.0,2.0,0.0,2.0,2.0,349.7083830000065,1.0,1.0,phase_1,,,,,,,,,,,,,yellow,cross
123.0,6.0,2.0,1.0,3.0,3.0,506.31066400001146,1.0,2.0,phase_1,,,,,,,,,,,,,blue,I
0.0,7.0,0.0,1.0,4.0,4.0,364.8121260000607,1.0,1.0,phase_1,,,,,,,,,,,,,cyan,flipped triangle
103.0,2.0,2.0,0.0,4.0,4.0,286.5784939999685,1.0,1.0,phase_1,,,,,,,,,,,,,yellow,cross
0.0,5.0,0.0,1.0,4.0,4.0,327.4289129999488,1.0,1.0,phase_1,,,,,,,,,,,,,gray,triangle
0.0,1.0,0.0,0.0,2.0,2.0,346.2139079999815,1.0,1.0,phase_1,,,,,,,,,,,,,white,diamond
89.0,2.0,2.0,0.0,3.0,3.0,315.8401000000594,1.0,1.0,phase_1,,,,,,,,,,,,,yellow,cross
0.0,2.0,0.0,0.0,4.0,4.0,313.3507289999215,1.0,1.0,phase_1,,,,,,,,,,,,,yellow,cross
395.0,8.0,4.0,1.0,4.0,4.0,310.9850310002002,1.0,1.0,phase_1,,,,,,,,,,,,,orange,square
100.0,6.0,2.0,1.0,4.0,4.0,297.5191969999287,1.0,1.0,phase_1,,,,,,,,,,,,,blue,I
397.0,8.0,4.0,1.0,3.0,3.0,303.8200020000658,1.0,1.0,phase_1,,,,,,,,,,,,,orange,square
44.0,1.0,1.0,0.0,2.0,2.0,373.1407939999371,1.0,1.0,phase_1,,,,,,,,,,,,,white,diamond
419.0,4.0,4.0,0.0,1.0,1.0,357.0721989999583,1.0,1.0,phase_1,,,,,,,,,,,,,magenta,hexagon
58.0,1.0,1.0,0.0,2.0,2.0,339.0440979999312,1.0,1.0,phase_1,,,,,,,,,,,,,white,diamond
191.0,3.0,3.0,0.0,4.0,4.0,306.1727690001135,1.0,1.0,phase_1,,,,,,,,,,,,,green,circle
391.0,4.0,4.0,0.0,4.0,4.0,392.473930000051,1.0,1.0,phase_1,,,,,,,,,,,,,magenta,hexagon
394.0,8.0,4.0,1.0,2.0,2.0,322.1475309999277,1.0,1.0,phase_1,,,,,,,,,,,,,orange,square
395.0,4.0,4.0,0.0,3.0,3.0,322.2869849998915,1.0,1.0,phase_1,,,,,,,,,,,,,magenta,hexagon
63.0,5.0,1.0,1.0,1.0,1.0,402.0689129999937,1.0,1.0,phase_1,,,,,,,,,,,,,gray,triangle
87.0,2.0,2.0,0.0,2.0,2.0,310.0937270000941,1.0,1.0,phase_1,,,,,,,,,,,,,yellow,cross
93.0,6.0,2.0,1.0,1.0,1.0,300.7164339999235,1.0,1.0,phase_1,,,,,,,,,,,,,blue,I
0.0,6.0,0.0,1.0,4.0,4.0,309.0879450001011,1.0,1.0,phase_1,,,,,,,,,,,,,blue,I
390.0,4.0,4.0,0.0,1.0,1.0,279.4244070000786,1.0,1.0,phase_1,,,,,,,,,,,,,magenta,hexagon
52.0,1.0,1.0,0.0,4.0,4.0,310.623478000025,1.0,1.0,phase_1,,,,,,,,,,,,,white,diamond
222.0,3.0,3.0,0.0,4.0,4.0,387.9533570000149,1.0,1.0,phase_1,,,,,,,,,,,,,green,circle
220.0,3.0,3.0,0.0,2.0,2.0,385.7092129999273,1.0,1.0,phase_1,,,,,,,,,,,,,green,circle
184.0,3.0,3.0,0.0,2.0,2.0,354.1633239999555,1.0,1.0,phase_1,,,,,,,,,,,,,green,circle
403.0,8.0,4.0,1.0,1.0,1.0,363.355791999993,1.0,1.0,phase_1,,,,,,,,,,,,,orange,square
222.0,3.0,3.0,0.0,3.0,3.0,310.8074469998882,1.0,1.0,phase_1,,,,,,,,,,,,,green,circle
214.0,7.0,3.0,1.0,3.0,3.0,347.6626230001329,1.0,1.0,phase_1,,,,,,,,,,,,,cyan,flipped triangle
207.0,3.0,3.0,0.0,3.0,3.0,356.3206450000962,1.0,1.0,phase_1,,,,,,,,,,,,,green,circle
217.0,3.0,3.0,0.0,4.0,4.0,294.0479130002131,1.0,1.0,phase_1,,,,,,,,,,,,,green,circle
0.0,1.0,0.0,0.0,4.0,4.0,285.4857209999863,1.0,1.0,phase_1,,,,,,,,,,,,,white,diamond
0.0,6.0,0.0,1.0,2.0,2.0,320.2685799999472,1.0,1.0,phase_1,,,,,,,,,,,,,blue,I
191.0,7.0,3.0,1.0,4.0,4.0,343.4698349999507,1.0,1.0,phase_1,,,,,,,,,,,,,cyan,flipped triangle
185.0,7.0,3.0,1.0,1.0,1.0,462.4648770000021,1.0,1.0,phase_1,,,,,,,,,,,,,cyan,flipped triangle
50.0,1.0,1.0,0.0,2.0,2.0,436.8666620000567,1.0,1.0,phase_1,,,,,,,,,,,,,white,diamond
0.0,8.0,0.0,1.0,4.0,4.0,457.8612350001094,1.0,1.0,phase_1,,,,,,,,,,,,,orange,square
420.0,4.0,4.0,0.0,2.0,2.0,401.2049060002027,1.0,1.0,phase_1,,,,,,,,,,,,,magenta,hexagon
410.0,4.0,4.0,0.0,2.0,2.0,368.6950559999786,1.0,1.0,phase_1,,,,,,,,,,,,,magenta,hexagon
89.0,2.0,2.0,0.0,3.0,3.0,358.90584699996,1.0,1.0,phase_1,,,,,,,,,,,,,yellow,cross
417.0,4.0,4.0,0.0,4.0,4.0,375.1159429998552,1.0,1.0,phase_1,,,,,,,,,,,,,magenta,hexagon
179.0,3.0,3.0,0.0,2.0,2.0,361.2088239999593,1.0,1.0,phase_1,,,,,,,,,,,,,green,circle
0.0,2.0,0.0,0.0,3.0,3.0,291.2408660001802,1.0,1.0,phase_1,,,,,,,,,,,,,yellow,cross
220.0,7.0,3.0,1.0,2.0,2.0,286.495165000133,1.0,1.0,phase_1,,,,,,,,,,,,,cyan,flipped triangle
182.0,7.0,3.0,1.0,4.0,4.0,279.1894530000718,1.0,1.0,phase_1,,,,,,,,,,,,,cyan,flipped triangle
419.0,8.0,4.0,1.0,3.0,3.0,266.9704950001232,1.0,1.0,phase_1,,,,,,,,,,,,,orange,square
384.0,8.0,4.0,1.0,1.0,1.0,395.5458790001103,1.0,2.0,phase_1,,,,,,,,,,,,,orange,square
0.0,8.0,0.0,1.0,1.0,1.0,380.3467059999548,1.0,1.0,phase_1,,,,,,,,,,,,,orange,square
384.0,4.0,4.0,0.0,1.0,1.0,366.13010799987927,1.0,1.0,phase_1,,,,,,,,,,,,,magenta,hexagon
104.0,6.0,2.0,1.0,4.0,4.0,376.19804399992057,1.0,1.0,phase_1,,,,,,,,,,,,,blue,I
75.0,1.0,1.0,0.0,4.0,4.0,337.1679100000619,1.0,1.0,phase_1,,,,,,,,,,,,,white,diamond
72.0,5.0,1.0,1.0,1.0,1.0,475.5430309999156,1.0,1.0,phase_1,,,,,,,,,,,,,gray,triangle
56.0,1.0,1.0,0.0,4.0,4.0,315.1536079999459,1.0,1.0,phase_1,,,,,,,,,,,,,white,diamond
414.0,4.0,4.0,0.0,4.0,4.0,292.6656890001595,1.0,1.0,phase_1,,,,,,,,,,,,,magenta,hexagon
98.0,2.0,2.0,0.0,4.0,4.0,297.9180659999656,1.0,1.0,phase_1,,,,,,,,,,,,,yellow,cross
0.0,8.0,0.0,1.0,4.0,4.0,353.9795560000129,1.0,1.0,phase_1,,,,,,,,,,,,,orange,square
0.0,7.0,0.0,1.0,1.0,1.0,413.674735000086,1.0,1.0,phase_1,,,,,,,,,,,,,cyan,flipped triangle
185.0,3.0,3.0,0.0,3.0,3.0,363.8368790000186,1.0,1.0,phase_1,,,,,,,,,,,,,green,circle
196.0,3.0,3.0,0.0,1.0,1.0,294.84350600000647,1.0,1.0,phase_1,,,,,,,,,,,,,green,circle
50.0,1.0,1.0,0.0,4.0,4.0,405.5313720000413,1.0,1.0,phase_1,,,,,,,,,,,,,white,diamond
185.0,3.0,3.0,0.0,3.0,3.0,341.9282339998517,1.0,1.0,phase_1,,,,,,,,,,,,,green,circle
52.0,5.0,1.0,1.0,3.0,3.0,298.1860800000504,1.0,1.0,phase_1,,,,,,,,,,,,,gray,triangle
380.0,8.0,4.0,1.0,1.0,1.0,288.1283259998781,1.0,1.0,phase_1,,,,,,,,,,,,,orange,square
71.0,5.0,1.0,1.0,4.0,4.0,324.4991199999276,1.0,1.0,phase_1,,,,,,,,,,,,,gray,triangle
96.0,2.0,2.0,0.0,2.0,2.0,260.3876860000582,1.0,1.0,phase_1,,,,,,,,,,,,,yellow,cross
0.0,2.0,0.0,0.0,1.0,1.0,325.180471000067,1.0,1.0,phase_1,,,,,,,,,,,,,yellow,cross
410.0,8.0,4.0,1.0,2.0,2.0,352.5769779998882,1.0,1.0,phase_1,,,,,,,,,,,,,orange,square
113.0,2.0,2.0,0.0,2.0,2.0,311.159919000147,1.0,1.0,phase_1,,,,,,,,,,,,,yellow,cross
398.0,8.0,4.0,1.0,4.0,4.0,349.8845980000169,1.0,1.0,phase_1,,,,,,,,,,,,,orange,square
0.0,4.0,0.0,0.0,1.0,1.0,288.3655040000121,1.0,1.0,phase_1,,,,,,,,,,,,,magenta,hexagon
96.0,6.0,2.0,1.0,4.0,4.0,327.0454510000036,1.0,1.0,phase_1,,,,,,,,,,,,,blue,I
48.0,5.0,1.0,1.0,3.0,3.0,342.8638939999473,1.0,1.0,phase_1,,,,,,,,,,,,,gray,triangle
0.0,6.0,0.0,1.0,2.0,2.0,272.8312930000811,1.0,1.0,phase_1,,,,,,,,,,,,,blue,I
108.0,6.0,2.0,1.0,1.0,1.0,306.9649349999963,1.0,1.0,phase_1,,,,,,,,,,,,,blue,I
35.0,5.0,1.0,1.0,2.0,2.0,345.8874719999585,1.0,1.0,phase_1,,,,,,,,,,,,,gray,triangle
0.0,5.0,0.0,1.0,3.0,3.0,391.908844999989,1.0,1.0,phase_1,,,,,,,,,,,,,gray,triangle
390.0,8.0,4.0,1.0,4.0,4.0,328.6384699999871,1.0,1.0,phase_1,,,,,,,,,,,,,orange,square
390.0,4.0,4.0,0.0,2.0,2.0,287.0348700000704,1.0,1.0,phase_1,,,,,,,,,,,,,magenta,hexagon
104.0,6.0,2.0,1.0,3.0,3.0,312.7522340000723,1.0,1.0,phase_1,,,,,,,,,,,,,blue,I
383.0,4.0,4.0,0.0,1.0,1.0,390.3246259999378,1.0,1.0,phase_1,,,,,,,,,,,,,magenta,hexagon
42.0,5.0,1.0,1.0,4.0,4.0,288.0432030001429,1.0,1.0,phase_1,,,,,,,,,,,,,gray,triangle
397.0,4.0,4.0,0.0,2.0,2.0,359.2932709998422,1.0,1.0,phase_1,,,,,,,,,,,,,magenta,hexagon
398.0,4.0,4.0,0.0,4.0,4.0,325.1217739998537,2.0,1.0,phase_1,,,,,,,,,,,,,magenta,hexagon
67.0,1.0,1.0,0.0,4.0,4.0,293.5308069997973,2.0,1.0,phase_1,,,,,,,,,,,,,white,diamond
177.0,3.0,3.0,0.0,4.0,4.0,315.7091979999222,2.0,1.0,phase_1,,,,,,,,,,,,,green,circle
0.0,6.0,0.0,1.0,1.0,1.0,306.3214180001523,2.0,1.0,phase_1,,,,,,,,,,,,,blue,I
212.0,3.0,3.0,0.0,4.0,4.0,314.8638319999008,2.0,1.0,phase_1,,,,,,,,,,,,,green,circle
89.0,6.0,2.0,1.0,3.0,3.0,299.9469510000381,2.0,1.0,phase_1,,,,,,,,,,,,,blue,I
35.0,1.0,1.0,0.0,1.0,1.0,298.8107859998763,2.0,1.0,phase_1,,,,,,,,,,,,,white,diamond
0.0,8.0,0.0,1.0,2.0,2.0,346.4221520000592,2.0,1.0,phase_1,,,,,,,,,,,,,orange,square
38.0,1.0,1.0,0.0,2.0,2.0,475.1791020000837,2.0,1.0,phase_1,,,,,,,,,,,,,white,diamond
28.0,5.0,1.0,1.0,2.0,2.0,336.2648610000178,2.0,1.0,phase_1,,,,,,,,,,,,,gray,triangle
46.0,1.0,1.0,0.0,2.0,2.0,270.2390509998622,2.0,1.0,phase_1,,,,,,,,,,,,,white,diamond
402.0,8.0,4.0,1.0,2.0,2.0,268.5995970000476,2.0,1.0,phase_1,,,,,,,,,,,,,orange,square
56.0,5.0,1.0,1.0,1.0,1.0,323.8895969998339,2.0,1.0,phase_1,,,,,,,,,,,,,gray,triangle
67.0,1.0,1.0,0.0,2.0,2.0,327.2020219999376,2.0,1.0,phase_1,,,,,,,,,,,,,white,diamond
0.0,1.0,0.0,0.0,3.0,3.0,454.308175000051,2.0,2.0,phase_1,,,,,,,,,,,,,white,diamond
26.0,5.0,1.0,1.0,3.0,3.0,356.4328669999668,2.0,1.0,phase_1,,,,,,,,,,,,,gray,triangle
113.0,6.0,2.0,1.0,3.0,3.0,437.5085009999111,2.0,1.0,phase_1,,,,,,,,,,,,,blue,I
0.0,8.0,0.0,1.0,1.0,1.0,411.7372709999927,2.0,1.0,phase_1,,,,,,,,,,,,,orange,square
0.0,3.0,0.0,0.0,2.0,2.0,347.8357219998997,2.0,1.0,phase_1,,,,,,,,,,,,,green,circle
0.0,7.0,0.0,1.0,3.0,3.0,344.19037399993607,2.0,1.0,phase_1,,,,,,,,,,,,,cyan,flipped triangle
38.0,5.0,1.0,1.0,4.0,4.0,342.3503280000659,2.0,1.0,phase_1,,,,,,,,,,,,,gray,triangle
177.0,3.0,3.0,0.0,3.0,3.0,324.2481479999242,2.0,1.0,phase_1,,,,,,,,,,,,,green,circle
225.0,3.0,3.0,0.0,4.0,4.0,399.7737449999476,2.0,1.0,phase_1,,,,,,,,,,,,,green,circle
196.0,7.0,3.0,1.0,2.0,2.0,300.2457019999838,2.0,1.0,phase_1,,,,,,,,,,,,,cyan,flipped triangle
184.0,3.0,3.0,0.0,4.0,4.0,255.6725379999989,2.0,1.0,phase_1,,,,,,,,,,,,,green,circle
406.0,8.0,4.0,1.0,4.0,4.0,321.2162439999702,2.0,1.0,phase_1,,,,,,,,,,,,,orange,square
0.0,7.0,0.0,1.0,1.0,1.0,348.9694780000718,2.0,1.0,phase_1,,,,,,,,,,,,,cyan,flipped triangle
216.0,7.0,3.0,1.0,2.0,2.0,293.537785999888,2.0,1.0,phase_1,,,,,,,,,,,,,cyan,flipped triangle
377.0,4.0,4.0,0.0,1.0,1.0,473.0686249999962,2.0,1.0,phase_1,,,,,,,,,,,,,magenta,hexagon
194.0,7.0,3.0,1.0,1.0,1.0,437.9913620000479,2.0,1.0,phase_1,,,,,,,,,,,,,cyan,flipped triangle
206.0,3.0,3.0,0.0,2.0,2.0,565.3751639999882,2.0,1.0,phase_1,,,,,,,,,,,,,green,circle
42.0,1.0,1.0,0.0,3.0,3.0,397.4554639999041,2.0,2.0,phase_1,,,,,,,,,,,,,white,diamond
0.0,1.0,0.0,0.0,3.0,3.0,368.2988749999367,2.0,1.0,phase_1,,,,,,,,,,,,,white,diamond
97.0,6.0,2.0,1.0,1.0,1.0,451.0065880001548,2.0,1.0,phase_1,,,,,,,,,,,,,blue,I
423.0,4.0,4.0,0.0,3.0,3.0,385.8019179999701,2.0,1.0,phase_1,,,,,,,,,,,,,magenta,hexagon
104.0,2.0,2.0,0.0,3.0,3.0,330.1581810001153,2.0,1.0,phase_1,,,,,,,,,,,,,yellow,cross
103.0,6.0,2.0,1.0,3.0,3.0,385.9530640002049,2.0,1.0,phase_1,,,,,,,,,,,,,blue,I
398.0,8.0,4.0,1.0,1.0,1.0,372.8386570001021,2.0,1.0,phase_1,,,,,,,,,,,,,orange,square
390.0,8.0,4.0,1.0,3.0,3.0,386.2898389998008,2.0,1.0,phase_1,,,,,,,,,,,,,orange,square
382.0,4.0,4.0,0.0,3.0,3.0,412.5076299999364,2.0,1.0,phase_1,,,,,,,,,,,,,magenta,hexagon
56.0,1.0,1.0,0.0,3.0,3.0,414.550201999873,2.0,1.0,phase_1,,,,,,,,,,,,,white,diamond
0.0,5.0,0.0,1.0,3.0,3.0,304.0352630000598,2.0,1.0,phase_1,,,,,,,,,,,,,gray,triangle
93.0,2.0,2.0,0.0,1.0,1.0,395.5503600000156,2.0,1.0,phase_1,,,,,,,,,,,,,yellow,cross
375.0,4.0,4.0,0.0,1.0,1.0,315.4854540002816,2.0,1.0,phase_1,,,,,,,,,,,,,magenta,hexagon
179.0,7.0,3.0,1.0,2.0,2.0,407.903597999848,2.0,1.0,phase_1,,,,,,,,,,,,,cyan,flipped triangle
115.0,2.0,2.0,0.0,4.0,4.0,313.0300879997776,2.0,1.0,phase_1,,,,,,,,,,,,,yellow,cross
414.0,4.0,4.0,0.0,4.0,4.0,377.6002700001299,2.0,2.0,phase_1,,,,,,,,,,,,,magenta,hexagon
86.0,2.0,2.0,0.0,3.0,3.0,435.3489749996697,2.0,1.0,phase_1,,,,,,,,,,,,,yellow,cross
37.0,1.0,1.0,0.0,1.0,1.0,409.04839600034387,2.0,1.0,phase_1,,,,,,,,,,,,,white,diamond
225.0,7.0,3.0,1.0,1.0,1.0,383.5112249998929,2.0,1.0,phase_1,,,,,,,,,,,,,cyan,flipped triangle
116.0,6.0,2.0,1.0,2.0,2.0,334.0854279999803,2.0,1.0,phase_1,,,,,,,,,,,,,blue,I
100.0,2.0,2.0,0.0,2.0,2.0,302.3369759998786,2.0,1.0,phase_1,,,,,,,,,,,,,yellow,cross
77.0,6.0,2.0,1.0,1.0,1.0,363.5936199998468,2.0,1.0,phase_1,,,,,,,,,,,,,blue,I
74.0,5.0,1.0,1.0,4.0,4.0,319.9857459999293,2.0,1.0,phase_1,,,,,,,,,,,,,gray,triangle
67.0,5.0,1.0,1.0,2.0,2.0,477.0089610001378,2.0,1.0,phase_1,,,,,,,,,,,,,gray,triangle
42.0,1.0,1.0,0.0,1.0,1.0,416.1611290001019,2.0,1.0,phase_1,,,,,,,,,,,,,white,diamond
217.0,7.0,3.0,1.0,3.0,3.0,383.1094319998556,2.0,1.0,phase_1,,,,,,,,,,,,,cyan,flipped triangle
424.0,4.0,4.0,0.0,4.0,4.0,491.234292000172,2.0,1.0,phase_1,,,,,,,,,,,,,magenta,hexagon
424.0,8.0,4.0,1.0,2.0,2.0,346.1127820000911,2.0,1.0,phase_1,,,,,,,,,,,,,orange,square
225.0,3.0,3.0,0.0,4.0,4.0,367.046479000237,2.0,1.0,phase_1,,,,,,,,,,,,,green,circle
52.0,1.0,1.0,0.0,1.0,1.0,311.6618279996146,2.0,1.0,phase_1,,,,,,,,,,,,,white,diamond
0.0,7.0,0.0,1.0,3.0,3.0,357.7703729997665,2.0,1.0,phase_1,,,,,,,,,,,,,cyan,flipped triangle
92.0,6.0,2.0,1.0,2.0,2.0,291.4967609999621,2.0,1.0,phase_1,,,,,,,,,,,,,blue,I
0.0,2.0,0.0,0.0,4.0,4.0,296.0465380001551,2.0,1.0,phase_1,,,,,,,,,,,,,yellow,cross
0.0,4.0,0.0,0.0,2.0,2.0,302.0462859999497,2.0,1.0,phase_1,,,,,,,,,,,,,magenta,hexagon
184.0,7.0,3.0,1.0,2.0,2.0,353.2938519997515,2.0,1.0,phase_1,,,,,,,,,,,,,cyan,flipped triangle
389.0,8.0,4.0,1.0,4.0,4.0,330.8393420002176,2.0,1.0,phase_1,,,,,,,,,,,,,orange,square
402.0,4.0,4.0,0.0,4.0,4.0,331.9478290000006,2.0,1.0,phase_1,,,,,,,,,,,,,magenta,hexagon
123.0,2.0,2.0,0.0,2.0,2.0,302.7758349999203,2.0,1.0,phase_1,,,,,,,,,,,,,yellow,cross
74.0,5.0,1.0,1.0,1.0,1.0,523.1602270000622,2.0,1.0,phase_1,,,,,,,,,,,,,gray,triangle
197.0,7.0,3.0,1.0,1.0,1.0,397.9031820003911,2.0,1.0,phase_1,,,,,,,,,,,,,cyan,flipped triangle
122.0,2.0,2.0,0.0,4.0,4.0,352.1908669999902,2.0,1.0,phase_1,,,,,,,,,,,,,yellow,cross
380.0,4.0,4.0,0.0,2.0,2.0,286.4560170000914,2.0,1.0,phase_1,,,,,,,,,,,,,magenta,hexagon
383.0,8.0,4.0,1.0,2.0,2.0,366.7110770002182,2.0,1.0,phase_1,,,,,,,,,,,,,orange,square
0.0,2.0,0.0,0.0,4.0,4.0,407.6838510000016,2.0,1.0,phase_1,,,,,,,,,,,,,yellow,cross
382.0,8.0,4.0,1.0,4.0,4.0,424.36593299999,2.0,1.0,phase_1,,,,,,,,,,,,,orange,square
26.0,1.0,1.0,0.0,1.0,1.0,380.547819000185,2.0,1.0,phase_1,,,,,,,,,,,,,white,diamond
0.0,8.0,0.0,1.0,1.0,1.0,383.4723069999199,2.0,1.0,phase_1,,,,,,,,,,,,,orange,square
384.0,8.0,4.0,1.0,2.0,2.0,366.0703819996342,2.0,1.0,phase_1,,,,,,,,,,,,,orange,square
68.0,5.0,1.0,1.0,1.0,1.0,316.8159259998901,2.0,1.0,phase_1,,,,,,,,,,,,,gray,triangle
79.0,6.0,2.0,1.0,1.0,1.0,348.1335000001309,2.0,1.0,phase_1,,,,,,,,,,,,,blue,I
222.0,7.0,3.0,1.0,2.0,2.0,350.2422039996418,2.0,1.0,phase_1,,,,,,,,,,,,,cyan,flipped triangle
222.0,7.0,3.0,1.0,1.0,1.0,290.5248689999098,2.0,1.0,phase_1,,,,,,,,,,,,,cyan,flipped triangle
398.0,4.0,4.0,0.0,3.0,3.0,535.7765630001268,2.0,2.0,phase_1,,,,,,,,,,,,,magenta,hexagon
406.0,4.0,4.0,0.0,4.0,4.0,361.1364319999666,2.0,1.0,phase_1,,,,,,,,,,,,,magenta,hexagon
407.0,8.0,4.0,1.0,3.0,3.0,356.924715000332,2.0,1.0,phase_1,,,,,,,,,,,,,orange,square
0.0,7.0,0.0,1.0,2.0,2.0,345.0649849996807,2.0,1.0,phase_1,,,,,,,,,,,,,cyan,flipped triangle
118.0,6.0,2.0,1.0,3.0,3.0,307.9696449999574,2.0,1.0,phase_1,,,,,,,,,,,,,blue,I
120.0,6.0,2.0,1.0,2.0,2.0,333.1265480001093,2.0,1.0,phase_1,,,,,,,,,,,,,blue,I
206.0,7.0,3.0,1.0,1.0,1.0,360.2813560000868,2.0,1.0,phase_1,,,,,,,,,,,,,cyan,flipped triangle
217.0,3.0,3.0,0.0,3.0,3.0,312.8148100004182,2.0,1.0,phase_1,,,,,,,,,,,,,green,circle
0.0,2.0,0.0,0.0,3.0,3.0,321.9289219996426,2.0,1.0,phase_1,,,,,,,,,,,,,yellow,cross
38.0,1.0,1.0,0.0,4.0,4.0,315.3391760001796,2.0,1.0,phase_1,,,,,,,,,,,,,white,diamond
57.0,1.0,1.0,0.0,1.0,1.0,352.9472740001438,2.0,1.0,phase_1,,,,,,,,,,,,,white,diamond
0.0,6.0,0.0,1.0,2.0,2.0,358.4291799998027,2.0,1.0,phase_1,,,,,,,,,,,,,blue,I
196.0,3.0,3.0,0.0,2.0,2.0,328.9482000000134,2.0,1.0,phase_1,,,,,,,,,,,,,green,circle
402.0,4.0,4.0,0.0,3.0,3.0,383.4833359996992,2.0,2.0,phase_1,,,,,,,,,,,,,magenta,hexagon
225.0,7.0,3.0,1.0,3.0,3.0,399.9813300001733,2.0,1.0,phase_1,,,,,,,,,,,,,cyan,flipped triangle
85.0,6.0,2.0,1.0,3.0,3.0,377.703234999899,2.0,1.0,phase_1,,,,,,,,,,,,,blue,I
190.0,7.0,3.0,1.0,1.0,1.0,459.3167940001876,2.0,1.0,phase_1,,,,,,,,,,,,,cyan,flipped triangle
0.0,6.0,0.0,1.0,3.0,3.0,306.6492390003077,3.0,1.0,phase_1,,,,,,,,,,,,,blue,I
192.0,7.0,3.0,1.0,3.0,3.0,317.2136489997683,3.0,1.0,phase_1,,,,,,,,,,,,,cyan,flipped triangle
197.0,3.0,3.0,0.0,2.0,2.0,318.9795070002219,3.0,1.0,phase_1,,,,,,,,,,,,,green,circle
0.0,5.0,0.0,1.0,3.0,3.0,320.8677580000767,3.0,1.0,phase_1,,,,,,,,,,,,,gray,triangle
105.0,2.0,2.0,0.0,1.0,1.0,312.2266210002635,3.0,1.0,phase_1,,,,,,,,,,,,,yellow,cross
421.0,8.0,4.0,1.0,4.0,4.0,319.2898409997724,3.0,1.0,phase_1,,,,,,,,,,,,,orange,square
72.0,1.0,1.0,0.0,4.0,4.0,358.40528000017,3.0,1.0,phase_1,,,,,,,,,,,,,white,diamond
182.0,3.0,3.0,0.0,2.0,2.0,325.170340999648,3.0,1.0,phase_1,,,,,,,,,,,,,green,circle
30.0,5.0,1.0,1.0,1.0,1.0,318.4341249998397,3.0,1.0,phase_1,,,,,,,,,,,,,gray,triangle
0.0,5.0,0.0,1.0,4.0,4.0,323.5805989997971,3.0,1.0,phase_1,,,,,,,,,,,,,gray,triangle
415.0,4.0,4.0,0.0,2.0,2.0,407.5713009997344,3.0,1.0,phase_1,,,,,,,,,,,,,magenta,hexagon
53.0,5.0,1.0,1.0,1.0,1.0,435.9773959999984,3.0,1.0,phase_1,,,,,,,,,,,,,gray,triangle
221.0,3.0,3.0,0.0,1.0,1.0,341.0426410000582,3.0,1.0,phase_1,,,,,,,,,,,,,green,circle
413.0,4.0,4.0,0.0,1.0,1.0,293.1065820002914,3.0,1.0,phase_1,,,,,,,,,,,,,magenta,hexagon
420.0,8.0,4.0,1.0,4.0,4.0,371.3669149997258,3.0,1.0,phase_1,,,,,,,,,,,,,orange,square
67.0,1.0,1.0,0.0,4.0,4.0,291.2496470003134,3.0,1.0,phase_1,,,,,,,,,,,,,white,diamond
97.0,2.0,2.0,0.0,4.0,4.0,388.9001580000695,3.0,1.0,phase_1,,,,,,,,,,,,,yellow,cross
0.0,7.0,0.0,1.0,1.0,1.0,330.3287950002413,3.0,1.0,phase_1,,,,,,,,,,,,,cyan,flipped triangle
217.0,7.0,3.0,1.0,3.0,3.0,325.0719659999959,3.0,1.0,phase_1,,,,,,,,,,,,,cyan,flipped triangle
406.0,8.0,4.0,1.0,3.0,3.0,332.1203099999366,3.0,1.0,phase_1,,,,,,,,,,,,,orange,square
0.0,4.0,0.0,0.0,1.0,1.0,328.3276859997386,3.0,1.0,phase_1,,,,,,,,,,,,,magenta,hexagon
0.0,1.0,0.0,0.0,3.0,3.0,474.4450999996843,3.0,1.0,phase_1,,,,,,,,,,,,,white,diamond
197.0,7.0,3.0,1.0,2.0,2.0,353.0329170002915,3.0,1.0,phase_1,,,,,,,,,,,,,cyan,flipped triangle
214.0,7.0,3.0,1.0,3.0,3.0,342.0925820000775,3.0,1.0,phase_1,,,,,,,,,,,,,cyan,flipped triangle
182.0,3.0,3.0,0.0,3.0,3.0,410.7273710001209,3.0,1.0,phase_1,,,,,,,,,,,,,green,circle
30.0,1.0,1.0,0.0,4.0,4.0,392.5089869999283,3.0,2.0,phase_1,,,,,,,,,,,,,white,diamond
96.0,2.0,2.0,0.0,1.0,1.0,383.8005839998004,3.0,1.0,phase_1,,,,,,,,,,,,,yellow,cross
415.0,8.0,4.0,1.0,4.0,4.0,321.2027199997465,3.0,1.0,phase_1,,,,,,,,,,,,,orange,square
37.0,5.0,1.0,1.0,3.0,3.0,543.4114989998307,3.0,1.0,phase_1,,,,,,,,,,,,,gray,triangle
189.0,3.0,3.0,0.0,1.0,1.0,296.5413080000871,3.0,1.0,phase_1,,,,,,,,,,,,,green,circle
192.0,3.0,3.0,0.0,1.0,1.0,348.2654399999774,3.0,1.0,phase_1,,,,,,,,,,,,,green,circle
84.0,6.0,2.0,1.0,4.0,4.0,320.9624090000034,3.0,1.0,phase_1,,,,,,,,,,,,,blue,I
414.0,8.0,4.0,1.0,3.0,3.0,475.9582219999174,3.0,1.0,phase_1,,,,,,,,,,,,,orange,square
50.0,5.0,1.0,1.0,4.0,4.0,378.9145309997366,3.0,1.0,phase_1,,,,,,,,,,,,,gray,triangle
53.0,1.0,1.0,0.0,1.0,1.0,426.1316920001263,3.0,1.0,phase_1,,,,,,,,,,,,,white,diamond
185.0,7.0,3.0,1.0,4.0,4.0,338.6680589997013,3.0,1.0,phase_1,,,,,,,,,,,,,cyan,flipped triangle
0.0,8.0,0.0,1.0,2.0,2.0,403.0921049998142,3.0,1.0,phase_1,,,,,,,,,,,,,orange,square
383.0,4.0,4.0,0.0,4.0,4.0,283.0464640001082,3.0,1.0,phase_1,,,,,,,,,,,,,magenta,hexagon
401.0,4.0,4.0,0.0,3.0,3.0,370.0139819998185,3.0,1.0,phase_1,,,,,,,,,,,,,magenta,hexagon
124.0,6.0,2.0,1.0,3.0,3.0,367.663492000247,3.0,1.0,phase_1,,,,,,,,,,,,,blue,I
96.0,2.0,2.0,0.0,2.0,2.0,655.7503679996444,3.0,1.0,phase_1,,,,,,,,,,,,,yellow,cross
63.0,1.0,1.0,0.0,2.0,2.0,377.4605270000393,3.0,1.0,phase_1,,,,,,,,,,,,,white,diamond
0.0,2.0,0.0,0.0,2.0,2.0,434.6934949999195,3.0,1.0,phase_1,,,,,,,,,,,,,yellow,cross
382.0,4.0,4.0,0.0,1.0,1.0,387.9016910000246,3.0,1.0,phase_1,,,,,,,,,,,,,magenta,hexagon
0.0,1.0,0.0,0.0,2.0,2.0,333.5328309999568,3.0,1.0,phase_1,,,,,,,,,,,,,white,diamond
28.0,1.0,1.0,0.0,3.0,3.0,313.0395789999056,3.0,1.0,phase_1,,,,,,,,,,,,,white,diamond
98.0,6.0,2.0,1.0,1.0,1.0,283.2270419999076,3.0,1.0,phase_1,,,,,,,,,,,,,blue,I
194.0,3.0,3.0,0.0,3.0,3.0,570.8984100001544,3.0,1.0,phase_1,,,,,,,,,,,,,green,circle
74.0,1.0,1.0,0.0,3.0,3.0,335.0554740000007,3.0,1.0,phase_1,,,,,,,,,,,,,white,diamond
182.0,7.0,3.0,1.0,2.0,2.0,469.3614519997027,3.0,1.0,phase_1,,,,,,,,,,,,,cyan,flipped triangle
104.0,2.0,2.0,0.0,1.0,1.0,374.1527289998885,3.0,1.0,phase_1,,,,,,,,,,,,,yellow,cross
120.0,2.0,2.0,0.0,4.0,4.0,522.139851999782,3.0,1.0,phase_1,,,,,,,,,,,,,yellow,cross
0.0,2.0,0.0,0.0,3.0,3.0,415.2676069998051,3.0,1.0,phase_1,,,,,,,,,,,,,yellow,cross
177.0,7.0,3.0,1.0,4.0,4.0,358.7756299998546,3.0,1.0,phase_1,,,,,,,,,,,,,cyan,flipped triangle
196.0,7.0,3.0,1.0,4.0,4.0,393.9835480000511,3.0,1.0,phase_1,,,,,,,,,,,,,cyan,flipped triangle
84.0,2.0,2.0,0.0,1.0,1.0,520.5425620001733,3.0,1.0,phase_1,,,,,,,,,,,,,yellow,cross
47.0,5.0,1.0,1.0,4.0,4.0,343.9383669997369,3.0,1.0,phase_1,,,,,,,,,,,,,gray,triangle
0.0,8.0,0.0,1.0,4.0,4.0,365.0718099997903,3.0,1.0,phase_1,,,,,,,,,,,,,orange,square
92.0,2.0,2.0,0.0,3.0,3.0,518.1693070003348,3.0,1.0,phase_1,,,,,,,,,,,,,yellow,cross
0.0,4.0,0.0,0.0,4.0,4.0,457.7255439999135,3.0,1.0,phase_1,,,,,,,,,,,,,magenta,hexagon
85.0,2.0,2.0,0.0,2.0,2.0,357.581516999744,3.0,1.0,phase_1,,,,,,,,,,,,,yellow,cross
56.0,5.0,1.0,1.0,3.0,3.0,332.8067460001875,3.0,1.0,phase_1,,,,,,,,,,,,,gray,triangle
30.0,1.0,1.0,0.0,3.0,3.0,329.3406090001554,3.0,1.0,phase_1,,,,,,,,,,,,,white,diamond
49.0,5.0,1.0,1.0,1.0,1.0,491.8808439997519,3.0,1.0,phase_1,,,,,,,,,,,,,gray,triangle
38.0,5.0,1.0,1.0,1.0,1.0,424.6869419998802,3.0,1.0,phase_1,,,,,,,,,,,,,gray,triangle
0.0,7.0,0.0,1.0,4.0,4.0,438.4205609999299,3.0,1.0,phase_1,,,,,,,,,,,,,cyan,flipped triangle
93.0,2.0,2.0,0.0,4.0,4.0,365.7778369997686,3.0,1.0,phase_1,,,,,,,,,,,,,yellow,cross
176.0,3.0,3.0,0.0,4.0,4.0,356.1152319998655,3.0,1.0,phase_1,,,,,,,,,,,,,green,circle
96.0,6.0,2.0,1.0,1.0,1.0,831.8784730004154,3.0,1.0,phase_1,,,,,,,,,,,,,blue,I
413.0,8.0,4.0,1.0,3.0,3.0,356.5860849998898,3.0,1.0,phase_1,,,,,,,,,,,,,orange,square
39.0,5.0,1.0,1.0,3.0,3.0,307.04546600009047,3.0,1.0,phase_1,,,,,,,,,,,,,gray,triangle
197.0,3.0,3.0,0.0,2.0,2.0,290.4162280001401,3.0,1.0,phase_1,,,,,,,,,,,,,green,circle
0.0,8.0,0.0,1.0,2.0,2.0,342.744163000134,3.0,1.0,phase_1,,,,,,,,,,,,,orange,square
423.0,8.0,4.0,1.0,2.0,2.0,304.1011359996446,3.0,1.0,phase_1,,,,,,,,,,,,,orange,square
176.0,7.0,3.0,1.0,3.0,3.0,354.1699009997501,3.0,1.0,phase_1,,,,,,,,,,,,,cyan,flipped triangle
86.0,6.0,2.0,1.0,4.0,4.0,307.5057020000713,3.0,1.0,phase_1,,,,,,,,,,,,,blue,I
0.0,8.0,0.0,1.0,2.0,2.0,321.886775999701,3.0,1.0,phase_1,,,,,,,,,,,,,orange,square
395.0,4.0,4.0,0.0,2.0,2.0,367.0207220002339,3.0,1.0,phase_1,,,,,,,,,,,,,magenta,hexagon
57.0,5.0,1.0,1.0,2.0,2.0,359.1485529996134,3.0,1.0,phase_1,,,,,,,,,,,,,gray,triangle
0.0,1.0,0.0,0.0,4.0,4.0,371.363559999736,3.0,1.0,phase_1,,,,,,,,,,,,,white,diamond
222.0,7.0,3.0,1.0,4.0,4.0,365.0658259998636,3.0,1.0,phase_1,,,,,,,,,,,,,cyan,flipped triangle
58.0,1.0,1.0,0.0,2.0,2.0,282.1644470000137,3.0,1.0,phase_1,,,,,,,,,,,,,white,diamond
389.0,4.0,4.0,0.0,3.0,3.0,282.1519859999171,3.0,1.0,phase_1,,,,,,,,,,,,,magenta,hexagon
87.0,6.0,2.0,1.0,2.0,2.0,281.2743210001827,3.0,1.0,phase_1,,,,,,,,,,,,,blue,I
216.0,3.0,3.0,0.0,3.0,3.0,337.1278599997822,3.0,1.0,phase_1,,,,,,,,,,,,,green,circle
0.0,1.0,0.0,0.0,3.0,3.0,400.886077999985,3.0,2.0,phase_1,,,,,,,,,,,,,white,diamond
67.0,5.0,1.0,1.0,2.0,2.0,515.622680999968,3.0,1.0,phase_1,,,,,,,,,,,,,gray,triangle
384.0,4.0,4.0,0.0,2.0,2.0,456.5157219999491,3.0,1.0,phase_1,,,,,,,,,,,,,magenta,hexagon
420.0,8.0,4.0,1.0,1.0,1.0,457.4621960000513,3.0,1.0,phase_1,,,,,,,,,,,,,orange,square
0.0,3.0,0.0,0.0,3.0,3.0,352.6579869999295,3.0,1.0,phase_1,,,,,,,,,,,,,green,circle
394.0,4.0,4.0,0.0,3.0,3.0,385.1603419998355,3.0,1.0,phase_1,,,,,,,,,,,,,magenta,hexagon
120.0,6.0,2.0,1.0,2.0,2.0,344.7942990001138,3.0,1.0,phase_1,,,,,,,,,,,,,blue,I
407.0,4.0,4.0,0.0,3.0,3.0,300.1770910000232,3.0,1.0,phase_1,,,,,,,,,,,,,magenta,hexagon
116.0,2.0,2.0,0.0,4.0,4.0,313.7087179998161,3.0,1.0,phase_1,,,,,,,,,,,,,yellow,cross
108.0,2.0,2.0,0.0,4.0,4.0,361.0625090000212,3.0,1.0,phase_1,,,,,,,,,,,,,yellow,cross
0.0,5.0,0.0,1.0,3.0,3.0,414.3607790001624,3.0,1.0,phase_1,,,,,,,,,,,,,gray,triangle
84.0,6.0,2.0,1.0,3.0,3.0,294.2904110000199,3.0,1.0,phase_1,,,,,,,,,,,,,blue,I
207.0,7.0,3.0,1.0,3.0,3.0,282.2514160002356,3.0,1.0,phase_1,,,,,,,,,,,,,cyan,flipped triangle
0.0,5.0,0.0,1.0,1.0,1.0,350.274096999783,3.0,2.0,phase_1,,,,,,,,,,,,,gray,triangle
0.0,6.0,0.0,1.0,3.0,3.0,391.0430780001661,3.0,1.0,phase_1,,,,,,,,,,,,,blue,I
44.0,5.0,1.0,1.0,2.0,2.0,424.9393869999949,4.0,1.0,phase_1,,,,,,,,,,,,,gray,triangle
177.0,3.0,3.0,0.0,1.0,1.0,321.3505909998275,4.0,1.0,phase_1,,,,,,,,,,,,,green,circle
115.0,6.0,2.0,1.0,1.0,1.0,329.9916689998099,4.0,1.0,phase_1,,,,,,,,,,,,,blue,I
200.0,3.0,3.0,0.0,1.0,1.0,294.2784020001454,4.0,1.0,phase_1,,,,,,,,,,,,,green,circle
0.0,2.0,0.0,0.0,3.0,3.0,273.1109440001091,4.0,1.0,phase_1,,,,,,,,,,,,,yellow,cross
221.0,7.0,3.0,1.0,2.0,2.0,275.1061290000507,4.0,1.0,phase_1,,,,,,,,,,,,,cyan,flipped triangle
395.0,8.0,4.0,1.0,2.0,2.0,346.5239400002247,4.0,1.0,phase_1,,,,,,,,,,,,,orange,square
0.0,3.0,0.0,0.0,3.0,3.0,313.3752690000619,4.0,1.0,phase_1,,,,,,,,,,,,,green,circle
0.0,4.0,0.0,0.0,1.0,1.0,297.2206459999142,4.0,1.0,phase_1,,,,,,,,,,,,,magenta,hexagon
0.0,3.0,0.0,0.0,2.0,2.0,269.9699489999148,4.0,1.0,phase_1,,,,,,,,,,,,,green,circle
188.0,7.0,3.0,1.0,2.0,2.0,280.6811610003024,4.0,1.0,phase_1,,,,,,,,,,,,,cyan,flipped triangle
375.0,8.0,4.0,1.0,1.0,1.0,356.2538529999983,4.0,1.0,phase_1,,,,,,,,,,,,,orange,square
0.0,2.0,0.0,0.0,3.0,3.0,365.7917719997385,4.0,1.0,phase_1,,,,,,,,,,,,,yellow,cross
67.0,5.0,1.0,1.0,3.0,3.0,445.3718029999436,4.0,1.0,phase_1,,,,,,,,,,,,,gray,triangle
403.0,4.0,4.0,0.0,3.0,3.0,511.9338310000785,4.0,1.0,phase_1,,,,,,,,,,,,,magenta,hexagon
0.0,4.0,0.0,0.0,1.0,1.0,305.6830840000657,4.0,1.0,phase_1,,,,,,,,,,,,,magenta,hexagon
0.0,6.0,0.0,1.0,2.0,2.0,295.3252249999423,4.0,1.0,phase_1,,,,,,,,,,,,,blue,I
221.0,3.0,3.0,0.0,4.0,4.0,256.4855340001486,4.0,1.0,phase_1,,,,,,,,,,,,,green,circle
81.0,6.0,2.0,1.0,2.0,2.0,308.5854000000836,4.0,1.0,phase_1,,,,,,,,,,,,,blue,I
406.0,4.0,4.0,0.0,1.0,1.0,314.7246430003179,4.0,1.0,phase_1,,,,,,,,,,,,,magenta,hexagon
214.0,3.0,3.0,0.0,2.0,2.0,270.5873449999671,4.0,1.0,phase_1,,,,,,,,,,,,,green,circle
44.0,1.0,1.0,0.0,2.0,2.0,330.3904839999632,4.0,1.0,phase_1,,,,,,,,,,,,,white,diamond
35.0,1.0,1.0,0.0,1.0,1.0,286.493278999842,4.0,1.0,phase_1,,,,,,,,,,,,,white,diamond
96.0,6.0,2.0,1.0,3.0,3.0,426.6124860000673,4.0,1.0,phase_1,,,,,,,,,,,,,blue,I
75.0,5.0,1.0,1.0,2.0,2.0,533.2356969997818,4.0,1.0,phase_1,,,,,,,,,,,,,gray,triangle
0.0,4.0,0.0,0.0,2.0,2.0,409.5565689999603,4.0,1.0,phase_1,,,,,,,,,,,,,magenta,hexagon
44.0,1.0,1.0,0.0,3.0,3.0,335.12269799985,4.0,1.0,phase_1,,,,,,,,,,,,,white,diamond
0.0,3.0,0.0,0.0,3.0,3.0,344.5154529999854,4.0,2.0,phase_1,,,,,,,,,,,,,green,circle
35.0,5.0,1.0,1.0,3.0,3.0,489.078058999894,4.0,1.0,phase_1,,,,,,,,,,,,,gray,triangle
39.0,1.0,1.0,0.0,3.0,3.0,385.0810429999001,4.0,1.0,phase_1,,,,,,,,,,,,,white,diamond
0.0,7.0,0.0,1.0,1.0,1.0,325.8609670001533,4.0,1.0,phase_1,,,,,,,,,,,,,cyan,flipped triangle
200.0,7.0,3.0,1.0,3.0,3.0,450.8428340000137,4.0,1.0,phase_1,,,,,,,,,,,,,cyan,flipped triangle
46.0,5.0,1.0,1.0,4.0,4.0,365.1108980002391,4.0,1.0,phase_1,,,,,,,,,,,,,gray,triangle
386.0,4.0,4.0,0.0,2.0,2.0,433.6165019999498,4.0,1.0,phase_1,,,,,,,,,,,,,magenta,hexagon
105.0,6.0,2.0,1.0,2.0,2.0,369.1275559999667,4.0,1.0,phase_1,,,,,,,,,,,,,blue,I
408.0,4.0,4.0,0.0,1.0,1.0,361.5884399996503,4.0,1.0,phase_1,,,,,,,,,,,,,magenta,hexagon
0.0,5.0,0.0,1.0,1.0,1.0,402.5767070002075,4.0,1.0,phase_1,,,,,,,,,,,,,gray,triangle
108.0,6.0,2.0,1.0,1.0,1.0,283.5035640000569,4.0,1.0,phase_1,,,,,,,,,,,,,blue,I
0.0,3.0,0.0,0.0,2.0,2.0,311.024599999655,4.0,1.0,phase_1,,,,,,,,,,,,,green,circle
0.0,4.0,0.0,0.0,3.0,3.0,306.2094810002236,4.0,1.0,phase_1,,,,,,,,,,,,,magenta,hexagon
87.0,2.0,2.0,0.0,3.0,3.0,292.174925999916,4.0,1.0,phase_1,,,,,,,,,,,,,yellow,cross
44.0,5.0,1.0,1.0,1.0,1.0,379.1293500003121,4.0,1.0,phase_1,,,,,,,,,,,,,gray,triangle
177.0,7.0,3.0,1.0,4.0,4.0,396.8073249998269,4.0,2.0,phase_1,,,,,,,,,,,,,cyan,flipped triangle
386.0,8.0,4.0,1.0,3.0,3.0,293.1521170003179,4.0,2.0,phase_1,,,,,,,,,,,,,orange,square
74.0,1.0,1.0,0.0,1.0,1.0,335.4747630000929,4.0,1.0,phase_1,,,,,,,,,,,,,white,diamond
408.0,8.0,4.0,1.0,3.0,3.0,459.7651669996594,4.0,1.0,phase_1,,,,,,,,,,,,,orange,square
106.0,6.0,2.0,1.0,2.0,2.0,591.5363449998949,4.0,1.0,phase_1,,,,,,,,,,,,,blue,I
58.0,5.0,1.0,1.0,2.0,2.0,360.0325160000466,4.0,1.0,phase_1,,,,,,,,,,,,,gray,triangle
93.0,6.0,2.0,1.0,4.0,4.0,291.7562590000671,4.0,1.0,phase_1,,,,,,,,,,,,,blue,I
105.0,2.0,2.0,0.0,3.0,3.0,304.5656989997951,4.0,1.0,phase_1,,,,,,,,,,,,,yellow,cross
58.0,5.0,1.0,1.0,4.0,4.0,355.992199999946,4.0,1.0,phase_1,,,,,,,,,,,,,gray,triangle
44.0,5.0,1.0,1.0,4.0,4.0,321.4494379999451,4.0,1.0,phase_1,,,,,,,,,,,,,gray,triangle
47.0,1.0,1.0,0.0,4.0,4.0,357.8951280001092,4.0,1.0,phase_1,,,,,,,,,,,,,white,diamond
112.0,2.0,2.0,0.0,1.0,1.0,377.7399470000091,4.0,1.0,phase_1,,,,,,,,,,,,,yellow,cross
221.0,7.0,3.0,1.0,3.0,3.0,363.0350670000553,4.0,1.0,phase_1,,,,,,,,,,,,,cyan,flipped triangle
212.0,7.0,3.0,1.0,1.0,1.0,365.1710700000876,4.0,1.0,phase_1,,,,,,,,,,,,,cyan,flipped triangle
184.0,7.0,3.0,1.0,4.0,4.0,310.8005919998504,4.0,1.0,phase_1,,,,,,,,,,,,,cyan,flipped triangle
71.0,1.0,1.0,0.0,3.0,3.0,331.0902889998033,4.0,1.0,phase_1,,,,,,,,,,,,,white,diamond
185.0,7.0,3.0,1.0,1.0,1.0,327.2289709998404,4.0,1.0,phase_1,,,,,,,,,,,,,cyan,flipped triangle
122.0,6.0,2.0,1.0,1.0,1.0,357.493224999871,4.0,1.0,phase_1,,,,,,,,,,,,,blue,I
414.0,8.0,4.0,1.0,4.0,4.0,324.9629290003213,4.0,1.0,phase_1,,,,,,,,,,,,,orange,square
84.0,2.0,2.0,0.0,2.0,2.0,336.1864610001248,4.0,1.0,phase_1,,,,,,,,,,,,,yellow,cross
81.0,2.0,2.0,0.0,4.0,4.0,340.3142070001195,4.0,1.0,phase_1,,,,,,,,,,,,,yellow,cross
401.0,8.0,4.0,1.0,1.0,1.0,270.1372599999558,4.0,1.0,phase_1,,,,,,,,,,,,,orange,square
214.0,3.0,3.0,0.0,1.0,1.0,194.10575800020518,4.0,2.0,phase_1,,,,,,,,,,,,,green,circle
391.0,8.0,4.0,1.0,1.0,1.0,479.404801000328,4.0,1.0,phase_1,,,,,,,,,,,,,orange,square
90.0,6.0,2.0,1.0,4.0,4.0,455.8930510002028,4.0,1.0,phase_1,,,,,,,,,,,,,blue,I
421.0,4.0,4.0,0.0,4.0,4.0,346.832010000071,4.0,1.0,phase_1,,,,,,,,,,,,,magenta,hexagon
0.0,1.0,0.0,0.0,3.0,3.0,459.5523349998984,4.0,1.0,phase_1,,,,,,,,,,,,,white,diamond
52.0,5.0,1.0,1.0,3.0,3.0,401.7661100001533,4.0,1.0,phase_1,,,,,,,,,,,,,gray,triangle
417.0,8.0,4.0,1.0,1.0,1.0,343.6767519997374,4.0,1.0,phase_1,,,,,,,,,,,,,orange,square
118.0,2.0,2.0,0.0,2.0,2.0,291.73852599979,4.0,1.0,phase_1,,,,,,,,,,,,,yellow,cross
190.0,3.0,3.0,0.0,1.0,1.0,375.9904940002343,4.0,1.0,phase_1,,,,,,,,,,,,,green,circle
30.0,5.0,1.0,1.0,3.0,3.0,338.7919329998112,4.0,1.0,phase_1,,,,,,,,,,,,,gray,triangle
108.0,2.0,2.0,0.0,1.0,1.0,331.2993899999128,4.0,1.0,phase_1,,,,,,,,,,,,,yellow,cross
189.0,7.0,3.0,1.0,4.0,4.0,390.8613110002079,4.0,1.0,phase_1,,,,,,,,,,,,,cyan,flipped triangle
79.0,2.0,2.0,0.0,3.0,3.0,432.1912670002348,4.0,1.0,phase_1,,,,,,,,,,,,,yellow,cross
206.0,3.0,3.0,0.0,1.0,1.0,336.7912609996892,4.0,1.0,phase_1,,,,,,,,,,,,,green,circle
0.0,3.0,0.0,0.0,1.0,1.0,413.0069579996416,4.0,1.0,phase_1,,,,,,,,,,,,,green,circle
0.0,4.0,0.0,0.0,2.0,2.0,259.9976800001968,4.0,1.0,phase_1,,,,,,,,,,,,,magenta,hexagon
77.0,2.0,2.0,0.0,3.0,3.0,357.7971849999812,4.0,1.0,phase_1,,,,,,,,,,,,,yellow,cross
382.0,8.0,4.0,1.0,3.0,3.0,333.6253289999149,4.0,1.0,phase_1,,,,,,,,,,,,,orange,square
112.0,6.0,2.0,1.0,4.0,4.0,460.7305340000494,4.0,1.0,phase_1,,,,,,,,,,,,,blue,I
0.0,4.0,0.0,0.0,4.0,4.0,308.250876999864,4.0,1.0,phase_1,,,,,,,,,,,,,magenta,hexagon
0.0,1.0,0.0,0.0,1.0,1.0,343.7602979997791,4.0,1.0,phase_1,,,,,,,,,,,,,white,diamond
420.0,4.0,4.0,0.0,2.0,2.0,429.9498430000312,4.0,1.0,phase_1,,,,,,,,,,,,,magenta,hexagon
48.0,1.0,1.0,0.0,1.0,1.0,299.0821880002841,4.0,1.0,phase_1,,,,,,,,,,,,,white,diamond
50.0,5.0,1.0,1.0,2.0,2.0,405.0349099998129,4.0,1.0,phase_1,,,,,,,,,,,,,gray,triangle
49.0,1.0,1.0,0.0,2.0,2.0,389.5711809996101,4.0,1.0,phase_1,,,,,,,,,,,,,white,diamond
68.0,1.0,1.0,0.0,3.0,3.0,404.8791529999107,4.0,1.0,phase_1,,,,,,,,,,,,,white,diamond
84.0,6.0,2.0,1.0,4.0,4.0,302.7190809998501,4.0,1.0,phase_1,,,,,,,,,,,,,blue,I
33.0,5.0,1.0,1.0,4.0,4.0,322.537452999768,4.0,1.0,phase_1,,,,,,,,,,,,,gray,triangle
87.0,6.0,2.0,1.0,2.0,2.0,297.4862729997767,4.0,1.0,phase_1,,,,,,,,,,,,,blue,I
185.0,3.0,3.0,0.0,2.0,2.0,328.5591479998402,4.0,1.0,phase_1,,,,,,,,,,,,,green,circle
402.0,8.0,4.0,1.0,2.0,2.0,326.3182969999434,4.0,1.0,phase_1,,,,,,,,,,,,,orange,square
89.0,6.0,2.0,1.0,2.0,2.0,303.1653520001782,4.0,1.0,phase_1,,,,,,,,,,,,,blue,I
0.0,3.0,0.0,0.0,2.0,2.0,305.103999000039,4.0,1.0,phase_1,,,,,,,,,,,,,green,circle
0.0,3.0,0.0,0.0,2.0,2.0,278.7601790000735,4.0,1.0,phase_1,,,,,,,,,,,,,green,circle
188.0,3.0,3.0,0.0,3.0,3.0,415.0881580003442,4.0,1.0,phase_1,,,,,,,,,,,,,green,circle
222.0,3.0,3.0,0.0,1.0,1.0,339.2771430003449,4.0,1.0,phase_1,,,,,,,,,,,,,green,circle
0.0,5.0,1.0,1.0,6.0,0.0,0.0,1.0,1.0,phase_2,stop,250.0,250.0,4.0,,,,,,,,,gray,triangle
0.0,8.0,4.0,1.0,6.0,6.0,534.3811509997067,1.0,1.0,phase_2,go,250.0,300.0,1.0,,,,,,,,,orange,square
0.0,3.0,3.0,0.0,6.0,6.0,641.6244150000239,1.0,1.0,phase_2,go,250.0,300.0,1.0,,,,,,,,,green,circle
0.0,6.0,2.0,1.0,5.0,5.0,302.3228070001096,1.0,1.0,phase_2,stop,250.0,300.0,3.0,,,,,,,,,blue,I
0.0,6.0,2.0,1.0,5.0,5.0,693.7138080002114,1.0,1.0,phase_2,go,200.0,300.0,1.0,,,,,,,,,blue,I
0.0,8.0,4.0,1.0,6.0,6.0,516.9657699998425,1.0,1.0,phase_2,stop,200.0,300.0,3.0,,,,,,,,,orange,square
0.0,3.0,3.0,0.0,5.0,5.0,717.6810149999255,1.0,1.0,phase_2,go,200.0,250.0,1.0,,,,,,,,,green,circle
0.0,7.0,3.0,1.0,6.0,0.0,0.0,1.0,1.0,phase_2,stop,200.0,250.0,4.0,,,,,,,,,cyan,flipped triangle
0.0,1.0,1.0,0.0,6.0,6.0,752.7728119998756,1.0,1.0,phase_2,go,200.0,300.0,1.0,,,,,,,,,white,diamond
0.0,2.0,2.0,0.0,5.0,5.0,558.1459879999784,1.0,1.0,phase_2,go,200.0,300.0,1.0,,,,,,,,,yellow,cross
0.0,7.0,3.0,1.0,6.0,0.0,0.0,1.0,1.0,phase_2,stop,200.0,300.0,4.0,,,,,,,,,cyan,flipped triangle
0.0,3.0,3.0,0.0,5.0,5.0,377.6892720002252,1.0,1.0,phase_2,go,200.0,350.0,1.0,,,,,,,,,green,circle
0.0,6.0,2.0,1.0,5.0,0.0,0.0,1.0,1.0,phase_2,stop,200.0,350.0,4.0,,,,,,,,,blue,I
0.0,3.0,3.0,0.0,6.0,6.0,416.903413,1.0,1.0,phase_2,go,250.0,350.0,1.0,,,,,,,,,green,circle
0.0,2.0,2.0,0.0,5.0,5.0,982.2166619997006,1.0,1.0,phase_2,go,250.0,350.0,1.0,,,,,,,,,yellow,cross
0.0,7.0,3.0,1.0,5.0,5.0,773.986891000277,1.0,1.0,phase_2,go,250.0,350.0,1.0,,,,,,,,,cyan,flipped triangle
0.0,6.0,2.0,1.0,5.0,0.0,0.0,1.0,1.0,phase_2,stop,250.0,350.0,4.0,,,,,,,,,blue,I
0.0,2.0,2.0,0.0,5.0,5.0,722.9531299999508,1.0,1.0,phase_2,go,300.0,350.0,1.0,,,,,,,,,yellow,cross
0.0,6.0,2.0,1.0,5.0,0.0,0.0,1.0,1.0,phase_2,stop,300.0,350.0,4.0,,,,,,,,,blue,I
0.0,4.0,4.0,0.0,5.0,5.0,765.1098030000867,1.0,1.0,phase_2,go,350.0,350.0,1.0,,,,,,,,,magenta,hexagon
0.0,5.0,1.0,1.0,5.0,0.0,0.0,1.0,1.0,phase_2,stop,350.0,350.0,4.0,,,,,,,,,gray,triangle
0.0,5.0,1.0,1.0,6.0,0.0,0.0,1.0,1.0,phase_2,stop,400.0,350.0,4.0,,,,,,,,,gray,triangle
0.0,6.0,2.0,1.0,5.0,5.0,661.964216999877,1.0,1.0,phase_2,go,400.0,400.0,1.0,,,,,,,,,blue,I
0.0,1.0,1.0,0.0,6.0,6.0,853.2696120000764,1.0,1.0,phase_2,go,400.0,400.0,1.0,,,,,,,,,white,diamond
0.0,8.0,4.0,1.0,6.0,0.0,0.0,1.0,1.0,phase_2,stop,400.0,400.0,4.0,,,,,,,,,orange,square
0.0,1.0,1.0,0.0,5.0,5.0,785.663950000071,1.0,1.0,phase_2,go,400.0,450.0,1.0,,,,,,,,,white,diamond
0.0,1.0,1.0,0.0,6.0,6.0,626.80375500031,1.0,1.0,phase_2,go,400.0,450.0,1.0,,,,,,,,,white,diamond
0.0,4.0,4.0,0.0,5.0,5.0,588.4289380001064,1.0,1.0,phase_2,go,400.0,450.0,1.0,,,,,,,,,magenta,hexagon
0.0,1.0,1.0,0.0,5.0,5.0,697.6458940002885,1.0,1.0,phase_2,go,400.0,450.0,1.0,,,,,,,,,white,diamond
0.0,2.0,2.0,0.0,6.0,6.0,675.2930729999207,1.0,1.0,phase_2,go,400.0,450.0,1.0,,,,,,,,,yellow,cross
0.0,7.0,3.0,1.0,5.0,5.0,550.5823329999657,1.0,1.0,phase_2,go,400.0,450.0,1.0,,,,,,,,,cyan,flipped triangle
0.0,6.0,2.0,1.0,6.0,6.0,619.4080489999578,1.0,1.0,phase_2,stop,400.0,450.0,3.0,,,,,,,,,blue,I
0.0,7.0,3.0,1.0,5.0,0.0,0.0,1.0,1.0,phase_2,stop,400.0,400.0,4.0,,,,,,,,,cyan,flipped triangle
0.0,5.0,1.0,1.0,6.0,0.0,0.0,1.0,1.0,phase_2,stop,450.0,400.0,4.0,,,,,,,,,gray,triangle
0.0,2.0,2.0,0.0,5.0,5.0,498.1856620001963,1.0,1.0,phase_2,go,450.0,450.0,1.0,,,,,,,,,yellow,cross
0.0,5.0,1.0,1.0,6.0,0.0,0.0,1.0,1.0,phase_2,stop,450.0,450.0,4.0,,,,,,,,,gray,triangle
0.0,6.0,2.0,1.0,6.0,6.0,656.382757999836,2.0,1.0,phase_2,stop,450.0,500.0,3.0,,,,,,,,,blue,I
0.0,5.0,1.0,1.0,5.0,5.0,359.5463359997666,2.0,1.0,phase_2,stop,450.0,450.0,3.0,,,,,,,,,gray,triangle
0.0,4.0,4.0,0.0,5.0,5.0,588.6670609997964,2.0,1.0,phase_2,go,400.0,450.0,1.0,,,,,,,,,magenta,hexagon
0.0,6.0,2.0,1.0,6.0,6.0,630.4535350000151,2.0,1.0,phase_2,stop,400.0,450.0,3.0,,,,,,,,,blue,I
0.0,8.0,4.0,1.0,6.0,6.0,627.8583820003405,2.0,1.0,phase_2,go,400.0,400.0,1.0,,,,,,,,,orange,square
0.0,8.0,4.0,1.0,5.0,5.0,636.8836000001465,2.0,1.0,phase_2,go,400.0,400.0,1.0,,,,,,,,,orange,square
0.0,7.0,3.0,1.0,6.0,6.0,521.1509269997805,2.0,1.0,phase_2,stop,400.0,400.0,3.0,,,,,,,,,cyan,flipped triangle
0.0,8.0,4.0,1.0,5.0,0.0,0.0,2.0,1.0,phase_2,stop,400.0,350.0,4.0,,,,,,,,,orange,square
0.0,2.0,2.0,0.0,6.0,6.0,947.4744180001836,2.0,1.0,phase_2,go,450.0,350.0,1.0,,,,,,,,,yellow,cross
0.0,2.0,2.0,0.0,5.0,5.0,839.5440750000489,2.0,1.0,phase_2,go,450.0,350.0,1.0,,,,,,,,,yellow,cross
0.0,4.0,4.0,0.0,5.0,5.0,694.7891079998954,2.0,1.0,phase_2,go,450.0,350.0,1.0,,,,,,,,,magenta,hexagon
0.0,3.0,3.0,0.0,5.0,5.0,272.0054159999563,2.0,1.0,phase_2,go,450.0,350.0,1.0,,,,,,,,,green,circle
0.0,4.0,4.0,0.0,5.0,5.0,616.9954729998608,2.0,1.0,phase_2,go,450.0,350.0,1.0,,,,,,,,,magenta,hexagon
0.0,5.0,1.0,1.0,5.0,5.0,631.945851999717,2.0,1.0,phase_2,stop,450.0,350.0,3.0,,,,,,,,,gray,triangle
0.0,2.0,2.0,0.0,6.0,6.0,747.6957190001485,2.0,1.0,phase_2,go,400.0,350.0,1.0,,,,,,,,,yellow,cross
0.0,4.0,4.0,0.0,6.0,6.0,764.1652710003655,2.0,1.0,phase_2,go,400.0,350.0,1.0,,,,,,,,,magenta,hexagon
0.0,6.0,2.0,1.0,6.0,0.0,0.0,2.0,1.0,phase_2,stop,400.0,350.0,4.0,,,,,,,,,blue,I
0.0,7.0,3.0,1.0,5.0,0.0,0.0,2.0,1.0,phase_2,stop,400.0,400.0,4.0,,,,,,,,,cyan,flipped triangle
0.0,4.0,4.0,0.0,5.0,5.0,739.4071359999543,2.0,1.0,phase_2,go,450.0,400.0,1.0,,,,,,,,,magenta,hexagon
0.0,4.0,4.0,0.0,5.0,5.0,1062.3816690003878,2.0,1.0,phase_2,go,450.0,400.0,1.0,,,,,,,,,magenta,hexagon
0.0,5.0,1.0,1.0,6.0,0.0,0.0,2.0,1.0,phase_2,stop,450.0,400.0,4.0,,,,,,,,,gray,triangle
0.0,1.0,1.0,0.0,5.0,5.0,545.3861989999496,2.0,1.0,phase_2,go,450.0,450.0,1.0,,,,,,,,,white,diamond
0.0,5.0,1.0,1.0,5.0,5.0,693.4035360000053,2.0,1.0,phase_2,go,450.0,450.0,1.0,,,,,,,,,gray,triangle
0.0,3.0,3.0,0.0,5.0,5.0,716.3698239996847,2.0,1.0,phase_2,go,450.0,450.0,1.0,,,,,,,,,green,circle
0.0,7.0,3.0,1.0,6.0,0.0,0.0,2.0,1.0,phase_2,stop,450.0,450.0,4.0,,,,,,,,,cyan,flipped triangle
0.0,4.0,4.0,0.0,5.0,5.0,667.4523369997587,2.0,1.0,phase_2,go,450.0,500.0,1.0,,,,,,,,,magenta,hexagon
0.0,4.0,4.0,0.0,5.0,5.0,554.4890440000927,2.0,1.0,phase_2,go,450.0,500.0,1.0,,,,,,,,,magenta,hexagon
0.0,3.0,3.0,0.0,6.0,6.0,564.5771350000359,2.0,1.0,phase_2,go,450.0,500.0,1.0,,,,,,,,,green,circle
0.0,6.0,2.0,1.0,5.0,5.0,507.5503309999476,2.0,1.0,phase_2,stop,450.0,500.0,3.0,,,,,,,,,blue,I
0.0,8.0,4.0,1.0,5.0,5.0,512.7150700000129,2.0,1.0,phase_2,stop,400.0,500.0,3.0,,,,,,,,,orange,square
0.0,8.0,4.0,1.0,6.0,6.0,573.7405830000171,2.0,1.0,phase_2,stop,350.0,500.0,3.0,,,,,,,,,orange,square
0.0,3.0,3.0,0.0,5.0,5.0,737.0117280001978,2.0,1.0,phase_2,go,350.0,450.0,1.0,,,,,,,,,green,circle
0.0,5.0,1.0,1.0,6.0,0.0,0.0,2.0,1.0,phase_2,stop,350.0,450.0,4.0,,,,,,,,,gray,triangle
0.0,2.0,2.0,0.0,6.0,6.0,756.1029569997118,2.0,1.0,phase_2,go,350.0,500.0,1.0,,,,,,,,,yellow,cross
0.0,3.0,3.0,0.0,5.0,5.0,695.1937479998378,2.0,1.0,phase_2,go,350.0,500.0,1.0,,,,,,,,,green,circle
0.0,3.0,3.0,0.0,6.0,6.0,814.0168509999057,2.0,1.0,phase_2,go,350.0,500.0,1.0,,,,,,,,,green,circle
0.0,1.0,1.0,0.0,6.0,6.0,782.7288379999118,3.0,1.0,phase_2,go,350.0,500.0,1.0,,,,,,,,,white,diamond
0.0,8.0,4.0,1.0,5.0,0.0,0.0,3.0,1.0,phase_2,stop,350.0,500.0,4.0,,,,,,,,,orange,square
0.0,1.0,1.0,0.0,6.0,6.0,377.1814000001541,3.0,1.0,phase_2,go,400.0,500.0,1.0,,,,,,,,,white,diamond
0.0,6.0,2.0,1.0,6.0,6.0,709.932862000187,3.0,1.0,phase_2,go,400.0,500.0,1.0,,,,,,,,,blue,I
0.0,2.0,2.0,0.0,5.0,5.0,641.2163999998484,3.0,1.0,phase_2,go,400.0,500.0,1.0,,,,,,,,,yellow,cross
0.0,7.0,3.0,1.0,6.0,6.0,478.8584970001466,3.0,1.0,phase_2,stop,400.0,500.0,3.0,,,,,,,,,cyan,flipped triangle
0.0,6.0,2.0,1.0,5.0,0.0,0.0,3.0,1.0,phase_2,stop,400.0,450.0,4.0,,,,,,,,,blue,I
0.0,7.0,3.0,1.0,6.0,6.0,489.3155610002395,3.0,1.0,phase_2,stop,450.0,450.0,3.0,,,,,,,,,cyan,flipped triangle
0.0,4.0,4.0,0.0,6.0,6.0,444.2091969999637,3.0,1.0,phase_2,go,450.0,400.0,1.0,,,,,,,,,magenta,hexagon
0.0,6.0,2.0,1.0,6.0,6.0,431.7980850000822,3.0,1.0,phase_2,stop,450.0,400.0,3.0,,,,,,,,,blue,I
0.0,4.0,4.0,0.0,6.0,6.0,552.9685400001654,3.0,1.0,phase_2,go,450.0,350.0,1.0,,,,,,,,,magenta,hexagon
0.0,3.0,3.0,0.0,5.0,5.0,307.90978400000307,3.0,1.0,phase_2,go,450.0,350.0,1.0,,,,,,,,,green,circle
0.0,8.0,4.0,1.0,6.0,6.0,481.492094999794,3.0,1.0,phase_2,stop,450.0,350.0,3.0,,,,,,,,,orange,square
0.0,7.0,3.0,1.0,5.0,5.0,675.453175000257,3.0,1.0,phase_2,go,450.0,300.0,1.0,,,,,,,,,cyan,flipped triangle
0.0,3.0,3.0,0.0,6.0,6.0,600.1300869997976,3.0,1.0,phase_2,go,450.0,300.0,1.0,,,,,,,,,green,circle
0.0,3.0,3.0,0.0,5.0,5.0,306.1202300000332,3.0,1.0,phase_2,go,450.0,300.0,1.0,,,,,,,,,green,circle
0.0,6.0,2.0,1.0,5.0,5.0,440.9274849999747,3.0,1.0,phase_2,stop,450.0,300.0,3.0,,,,,,,,,blue,I
0.0,6.0,2.0,1.0,6.0,0.0,0.0,3.0,1.0,phase_2,stop,400.0,300.0,4.0,,,,,,,,,blue,I
0.0,5.0,1.0,1.0,6.0,6.0,595.5003479998595,3.0,1.0,phase_2,go,400.0,350.0,1.0,,,,,,,,,gray,triangle
0.0,8.0,4.0,1.0,6.0,6.0,426.7041100001734,3.0,1.0,phase_2,stop,400.0,350.0,3.0,,,,,,,,,orange,square
0.0,8.0,4.0,1.0,6.0,0.0,0.0,3.0,1.0,phase_2,stop,400.0,300.0,4.0,,,,,,,,,orange,square
0.0,2.0,2.0,0.0,6.0,6.0,401.949697999953,3.0,1.0,phase_2,go,400.0,350.0,1.0,,,,,,,,,yellow,cross
0.0,2.0,2.0,0.0,5.0,5.0,514.9942099997133,3.0,1.0,phase_2,go,400.0,350.0,1.0,,,,,,,,,yellow,cross
0.0,1.0,1.0,0.0,5.0,5.0,625.6915819999449,3.0,1.0,phase_2,go,400.0,350.0,1.0,,,,,,,,,white,diamond
0.0,2.0,2.0,0.0,5.0,5.0,335.8794750001834,3.0,1.0,phase_2,go,400.0,350.0,1.0,,,,,,,,,yellow,cross
0.0,8.0,4.0,1.0,6.0,6.0,412.202809000064,3.0,1.0,phase_2,go,400.0,350.0,1.0,,,,,,,,,orange,square
0.0,5.0,1.0,1.0,5.0,5.0,548.6192339999434,3.0,1.0,phase_2,go,400.0,350.0,1.0,,,,,,,,,gray,triangle
0.0,5.0,1.0,1.0,6.0,6.0,389.4786949999798,3.0,1.0,phase_2,stop,400.0,350.0,3.0,,,,,,,,,gray,triangle
0.0,8.0,4.0,1.0,6.0,0.0,0.0,3.0,1.0,phase_2,stop,400.0,300.0,4.0,,,,,,,,,orange,square
0.0,8.0,4.0,1.0,6.0,0.0,0.0,3.0,1.0,phase_2,stop,400.0,350.0,4.0,,,,,,,,,orange,square
0.0,1.0,1.0,0.0,6.0,6.0,339.7458219997133,3.0,1.0,phase_2,go,400.0,400.0,1.0,,,,,,,,,white,diamond
0.0,1.0,1.0,0.0,6.0,6.0,354.8497309998311,3.0,1.0,phase_2,go,400.0,400.0,1.0,,,,,,,,,white,diamond
0.0,7.0,3.0,1.0,5.0,5.0,348.5059790000377,3.0,1.0,phase_2,stop,400.0,400.0,3.0,,,,,,,,,cyan,flipped triangle
0.0,7.0,3.0,1.0,5.0,5.0,619.3163689999892,3.0,1.0,phase_2,go,350.0,400.0,1.0,,,,,,,,,cyan,flipped triangle
0.0,2.0,2.0,0.0,5.0,5.0,467.2131580000496,3.0,1.0,phase_2,go,350.0,400.0,1.0,,,,,,,,,yellow,cross
0.0,3.0,3.0,0.0,6.0,6.0,266.8648300000313,3.0,1.0,phase_2,go,350.0,400.0,1.0,,,,,,,,,green,circle
0.0,7.0,3.0,1.0,6.0,0.0,0.0,4.0,1.0,phase_2,stop,350.0,400.0,4.0,,,,,,,,,cyan,flipped triangle
0.0,4.0,4.0,0.0,5.0,5.0,326.9768350000959,4.0,1.0,phase_2,go,350.0,450.0,1.0,,,,,,,,,magenta,hexagon
0.0,8.0,4.0,1.0,5.0,5.0,390.0889150004332,4.0,1.0,phase_2,stop,350.0,450.0,3.0,,,,,,,,,orange,square
0.0,7.0,3.0,1.0,6.0,6.0,509.28918499994325,4.0,1.0,phase_2,stop,300.0,450.0,3.0,,,,,,,,,cyan,flipped triangle
0.0,8.0,4.0,1.0,5.0,5.0,770.0018879995696,4.0,1.0,phase_2,go,300.0,400.0,1.0,,,,,,,,,orange,square
0.0,3.0,3.0,0.0,6.0,6.0,275.905228999818,4.0,1.0,phase_2,go,300.0,400.0,1.0,,,,,,,,,green,circle
0.0,2.0,2.0,0.0,6.0,6.0,301.6382809996685,4.0,1.0,phase_2,go,300.0,400.0,1.0,,,,,,,,,yellow,cross
0.0,4.0,4.0,0.0,5.0,5.0,339.4641429999865,4.0,1.0,phase_2,go,300.0,400.0,1.0,,,,,,,,,magenta,hexagon
0.0,2.0,2.0,0.0,6.0,6.0,257.6344479998624,4.0,1.0,phase_2,go,300.0,400.0,1.0,,,,,,,,,yellow,cross
0.0,8.0,4.0,1.0,6.0,6.0,351.8227570002636,4.0,1.0,phase_2,stop,300.0,400.0,3.0,,,,,,,,,orange,square
0.0,5.0,1.0,1.0,5.0,5.0,336.5878669997073,4.0,1.0,phase_2,stop,300.0,350.0,3.0,,,,,,,,,gray,triangle
0.0,1.0,1.0,0.0,6.0,6.0,267.8409840000313,4.0,1.0,phase_2,go,250.0,350.0,1.0,,,,,,,,,white,diamond
0.0,6.0,2.0,1.0,5.0,5.0,364.720348999981,4.0,1.0,phase_2,stop,250.0,350.0,3.0,,,,,,,,,blue,I
0.0,2.0,2.0,0.0,6.0,6.0,472.27973300005027,4.0,1.0,phase_2,go,200.0,350.0,1.0,,,,,,,,,yellow,cross
0.0,5.0,1.0,1.0,5.0,5.0,592.4121479997666,4.0,1.0,phase_2,go,200.0,350.0,1.0,,,,,,,,,gray,triangle
0.0,8.0,4.0,1.0,5.0,5.0,350.6360549999954,4.0,1.0,phase_2,stop,200.0,350.0,3.0,,,,,,,,,orange,square
0.0,5.0,1.0,1.0,6.0,0.0,0.0,4.0,1.0,phase_2,stop,150.0,350.0,4.0,,,,,,,,,gray,triangle
0.0,5.0,1.0,1.0,6.0,6.0,583.3259569999427,4.0,1.0,phase_2,go,150.0,400.0,1.0,,,,,,,,,gray,triangle
0.0,5.0,1.0,1.0,6.0,6.0,569.7904740000013,4.0,1.0,phase_2,stop,150.0,400.0,3.0,,,,,,,,,gray,triangle
0.0,2.0,2.0,0.0,6.0,6.0,717.1885950001524,4.0,1.0,phase_2,go,150.0,350.0,1.0,,,,,,,,,yellow,cross
0.0,4.0,4.0,0.0,5.0,5.0,275.2287809998961,4.0,1.0,phase_2,go,150.0,350.0,1.0,,,,,,,,,magenta,hexagon
0.0,1.0,1.0,0.0,5.0,5.0,293.1152679998376,4.0,1.0,phase_2,go,150.0,350.0,1.0,,,,,,,,,white,diamond
0.0,7.0,3.0,1.0,5.0,5.0,302.9171620000852,4.0,1.0,phase_2,stop,150.0,350.0,3.0,,,,,,,,,cyan,flipped triangle
0.0,6.0,2.0,1.0,6.0,6.0,306.5879050000148,4.0,1.0,phase_2,go,100.0,350.0,1.0,,,,,,,,,blue,I
0.0,4.0,4.0,0.0,6.0,6.0,271.7715520002457,4.0,1.0,phase_2,go,100.0,350.0,1.0,,,,,,,,,magenta,hexagon
0.0,5.0,1.0,1.0,5.0,5.0,269.2806029999701,4.0,1.0,phase_2,stop,100.0,350.0,3.0,,,,,,,,,gray,triangle
0.0,3.0,3.0,0.0,6.0,6.0,323.8900430001195,4.0,1.0,phase_2,go,50.0,350.0,1.0,,,,,,,,,green,circle
0.0,2.0,2.0,0.0,6.0,6.0,380.2120189998277,4.0,1.0,phase_2,go,50.0,350.0,1.0,,,,,,,,,yellow,cross
0.0,1.0,1.0,0.0,5.0,5.0,293.1585019996419,4.0,1.0,phase_2,go,50.0,350.0,1.0,,,,,,,,,white,diamond
0.0,2.0,2.0,0.0,5.0,5.0,316.2393269999484,4.0,1.0,phase_2,go,50.0,350.0,1.0,,,,,,,,,yellow,cross
0.0,7.0,3.0,1.0,5.0,5.0,269.2891450001298,4.0,1.0,phase_2,stop,50.0,350.0,3.0,,,,,,,,,cyan,flipped triangle
0.0,4.0,4.0,0.0,6.0,6.0,273.7606900000173,4.0,1.0,phase_2,go,0.0,350.0,1.0,,,,,,,,,magenta,hexagon
0.0,6.0,2.0,1.0,6.0,6.0,263.9071180001338,4.0,1.0,phase_2,go,0.0,350.0,1.0,,,,,,,,,blue,I
0.0,2.0,2.0,0.0,5.0,5.0,277.9275589996359,4.0,1.0,phase_2,go,0.0,350.0,1.0,,,,,,,,,yellow,cross
0.0,6.0,2.0,1.0,6.0,6.0,464.4277760003206,4.0,1.0,phase_2,go,0.0,350.0,1.0,,,,,,,,,blue,I
0.0,8.0,4.0,1.0,6.0,6.0,451.6175889998521,4.0,1.0,phase_2,go,0.0,350.0,1.0,,,,,,,,,orange,square
0.0,3.0,3.0,0.0,6.0,6.0,720.6579509997937,5.0,1.0,phase_2,go,0.0,350.0,1.0,,,,,,,,,green,circle
0.0,4.0,4.0,0.0,6.0,6.0,235.2882089999184,5.0,1.0,phase_2,go,0.0,350.0,1.0,,,,,,,,,magenta,hexagon
0.0,7.0,3.0,1.0,6.0,6.0,251.661156999944,5.0,1.0,phase_2,go,0.0,350.0,1.0,,,,,,,,,cyan,flipped triangle
0.0,5.0,1.0,1.0,5.0,0.0,0.0,5.0,1.0,phase_2,stop,0.0,350.0,4.0,,,,,,,,,gray,triangle
0.0,5.0,1.0,1.0,6.0,6.0,256.0202869999557,5.0,1.0,phase_2,stop,50.0,350.0,3.0,,,,,,,,,gray,triangle
0.0,2.0,2.0,0.0,6.0,6.0,296.2170209998476,5.0,1.0,phase_2,go,50.0,300.0,1.0,,,,,,,,,yellow,cross
0.0,2.0,2.0,0.0,6.0,6.0,271.7864069995812,5.0,1.0,phase_2,go,50.0,300.0,1.0,,,,,,,,,yellow,cross
0.0,1.0,1.0,0.0,5.0,5.0,291.0411110001405,5.0,1.0,phase_2,go,50.0,300.0,1.0,,,,,,,,,white,diamond
0.0,3.0,3.0,0.0,5.0,5.0,257.5595240000439,5.0,1.0,phase_2,go,50.0,300.0,1.0,,,,,,,,,green,circle
0.0,2.0,2.0,0.0,6.0,6.0,252.60200799993981,5.0,1.0,phase_2,go,50.0,300.0,1.0,,,,,,,,,yellow,cross
0.0,5.0,1.0,1.0,6.0,6.0,278.9939439999216,5.0,1.0,phase_2,stop,50.0,300.0,3.0,,,,,,,,,gray,triangle
0.0,1.0,1.0,0.0,6.0,6.0,390.7501560001947,5.0,1.0,phase_2,go,50.0,250.0,1.0,,,,,,,,,white,diamond
0.0,2.0,2.0,0.0,6.0,6.0,631.2976270000945,5.0,1.0,phase_2,go,50.0,250.0,1.0,,,,,,,,,yellow,cross
0.0,1.0,1.0,0.0,6.0,6.0,350.9942099999534,5.0,1.0,phase_2,go,50.0,250.0,1.0,,,,,,,,,white,diamond
0.0,7.0,3.0,1.0,6.0,6.0,409.3998260000262,5.0,1.0,phase_2,stop,50.0,250.0,3.0,,,,,,,,,cyan,flipped triangle
0.0,6.0,2.0,1.0,6.0,6.0,330.1432069997645,5.0,1.0,phase_2,stop,50.0,200.0,3.0,,,,,,,,,blue,I
0.0,1.0,1.0,0.0,5.0,5.0,303.2138369999302,5.0,1.0,phase_2,go,50.0,150.0,1.0,,,,,,,,,white,diamond
0.0,2.0,2.0,0.0,6.0,6.0,276.1687369998071,5.0,1.0,phase_2,go,50.0,150.0,1.0,,,,,,,,,yellow,cross
0.0,8.0,4.0,1.0,6.0,6.0,321.4567390000411,5.0,1.0,phase_2,stop,50.0,150.0,3.0,,,,,,,,,orange,square
0.0,4.0,4.0,0.0,6.0,6.0,713.3587370003625,5.0,1.0,phase_2,go,50.0,100.0,1.0,,,,,,,,,magenta,hexagon
0.0,5.0,1.0,1.0,6.0,6.0,317.3149360000025,5.0,1.0,phase_2,go,50.0,100.0,1.0,,,,,,,,,gray,triangle
0.0,3.0,3.0,0.0,6.0,6.0,271.7350249999981,5.0,1.0,phase_2,go,50.0,100.0,1.0,,,,,,,,,green,circle
0.0,5.0,1.0,1.0,5.0,0.0,0.0,5.0,1.0,phase_2,stop,50.0,100.0,4.0,,,,,,,,,gray,triangle
0.0,6.0,2.0,1.0,6.0,6.0,340.7883979998587,5.0,1.0,phase_2,stop,100.0,100.0,3.0,,,,,,,,,blue,I
0.0,3.0,3.0,0.0,5.0,5.0,418.3586720000676,5.0,1.0,phase_2,go,100.0,50.0,1.0,,,,,,,,,green,circle
0.0,7.0,3.0,1.0,5.0,5.0,319.2424949997985,5.0,1.0,phase_2,stop,100.0,50.0,3.0,,,,,,,,,cyan,flipped triangle
0.0,1.0,1.0,0.0,5.0,5.0,567.9532389999622,5.0,1.0,phase_2,go,50.0,50.0,1.0,,,,,,,,,white,diamond
0.0,6.0,2.0,1.0,5.0,0.0,0.0,5.0,1.0,phase_2,stop,50.0,50.0,4.0,,,,,,,,,blue,I
0.0,5.0,1.0,1.0,5.0,0.0,0.0,5.0,1.0,phase_2,stop,100.0,50.0,4.0,,,,,,,,,gray,triangle
0.0,4.0,4.0,0.0,5.0,5.0,437.8755790003197,5.0,1.0,phase_2,go,150.0,50.0,1.0,,,,,,,,,magenta,hexagon
0.0,5.0,1.0,1.0,5.0,0.0,0.0,5.0,1.0,phase_2,stop,150.0,50.0,4.0,,,,,,,,,gray,triangle
0.0,4.0,4.0,0.0,6.0,6.0,274.4636410002385,5.0,1.0,phase_2,go,200.0,50.0,1.0,,,,,,,,,magenta,hexagon
0.0,4.0,4.0,0.0,6.0,6.0,519.4762839996656,5.0,1.0,phase_2,go,200.0,50.0,1.0,,,,,,,,,magenta,hexagon
0.0,3.0,3.0,0.0,5.0,5.0,328.6249289999432,5.0,1.0,phase_2,go,200.0,50.0,1.0,,,,,,,,,green,circle
0.0,7.0,3.0,1.0,6.0,6.0,372.96771299998,5.0,1.0,phase_2,stop,200.0,50.0,3.0,,,,,,,,,cyan,flipped triangle
0.0,6.0,2.0,1.0,6.0,0.0,0.0,5.0,1.0,phase_2,stop,200.0,0.0,4.0,,,,,,,,,blue,I
0.0,1.0,1.0,0.0,6.0,6.0,698.1200220002393,6.0,1.0,phase_2,go,200.0,50.0,1.0,,,,,,,,,white,diamond
0.0,8.0,4.0,1.0,6.0,6.0,300.0587039996389,6.0,1.0,phase_2,stop,200.0,50.0,3.0,,,,,,,,,orange,square
0.0,6.0,2.0,1.0,6.0,0.0,0.0,6.0,1.0,phase_2,stop,200.0,0.0,4.0,,,,,,,,,blue,I
0.0,2.0,2.0,0.0,5.0,5.0,337.6582650003001,6.0,1.0,phase_2,go,200.0,50.0,1.0,,,,,,,,,yellow,cross
0.0,3.0,3.0,0.0,5.0,5.0,302.4516169998605,6.0,1.0,phase_2,go,200.0,50.0,1.0,,,,,,,,,green,circle
0.0,5.0,1.0,1.0,5.0,5.0,276.0430079997604,6.0,1.0,phase_2,stop,200.0,50.0,3.0,,,,,,,,,gray,triangle
0.0,4.0,4.0,0.0,5.0,5.0,467.1179150000171,6.0,1.0,phase_2,go,150.0,50.0,1.0,,,,,,,,,magenta,hexagon
0.0,4.0,4.0,0.0,6.0,6.0,300.5809390001559,6.0,1.0,phase_2,go,150.0,50.0,1.0,,,,,,,,,magenta,hexagon
0.0,5.0,1.0,1.0,5.0,5.0,283.2937769999262,6.0,1.0,phase_2,stop,150.0,50.0,3.0,,,,,,,,,gray,triangle
0.0,7.0,3.0,1.0,6.0,0.0,0.0,6.0,1.0,phase_2,stop,100.0,50.0,4.0,,,,,,,,,cyan,flipped triangle
0.0,7.0,3.0,1.0,5.0,5.0,271.577931000138,6.0,1.0,phase_2,go,100.0,100.0,1.0,,,,,,,,,cyan,flipped triangle
0.0,4.0,4.0,0.0,5.0,5.0,350.2302520000739,6.0,1.0,phase_2,go,100.0,100.0,1.0,,,,,,,,,magenta,hexagon
0.0,3.0,3.0,0.0,5.0,5.0,269.658846999846,6.0,1.0,phase_2,go,100.0,100.0,1.0,,,,,,,,,green,circle
0.0,3.0,3.0,0.0,5.0,5.0,427.2824770000625,6.0,1.0,phase_2,go,100.0,100.0,1.0,,,,,,,,,green,circle
0.0,6.0,2.0,1.0,6.0,6.0,260.9340389999488,6.0,1.0,phase_2,stop,100.0,100.0,3.0,,,,,,,,,blue,I
0.0,5.0,1.0,1.0,5.0,5.0,250.10964199964292,6.0,1.0,phase_2,go,100.0,50.0,1.0,,,,,,,,,gray,triangle
0.0,4.0,4.0,0.0,6.0,6.0,340.7413449999694,6.0,1.0,phase_2,go,100.0,50.0,1.0,,,,,,,,,magenta,hexagon
0.0,1.0,1.0,0.0,6.0,6.0,335.1277070000833,6.0,1.0,phase_2,go,100.0,50.0,1.0,,,,,,,,,white,diamond
0.0,2.0,2.0,0.0,5.0,5.0,431.0404590000871,6.0,1.0,phase_2,go,100.0,50.0,1.0,,,,,,,,,yellow,cross
0.0,6.0,2.0,1.0,5.0,0.0,0.0,6.0,1.0,phase_2,stop,100.0,50.0,4.0,,,,,,,,,blue,I
0.0,8.0,4.0,1.0,6.0,0.0,0.0,6.0,1.0,phase_2,stop,150.0,50.0,4.0,,,,,,,,,orange,square
0.0,4.0,4.0,0.0,5.0,5.0,418.6142749999817,6.0,1.0,phase_2,go,150.0,100.0,1.0,,,,,,,,,magenta,hexagon
0.0,1.0,1.0,0.0,5.0,5.0,310.5592819997582,6.0,1.0,phase_2,go,150.0,100.0,1.0,,,,,,,,,white,diamond
0.0,6.0,2.0,1.0,5.0,5.0,718.4767920002741,6.0,1.0,phase_2,go,150.0,100.0,1.0,,,,,,,,,blue,I
0.0,3.0,3.0,0.0,6.0,6.0,271.6795380001713,6.0,1.0,phase_2,go,150.0,100.0,1.0,,,,,,,,,green,circle
0.0,3.0,3.0,0.0,6.0,6.0,347.4147490001087,6.0,1.0,phase_2,go,150.0,100.0,1.0,,,,,,,,,green,circle
0.0,2.0,2.0,0.0,6.0,6.0,242.2517719996904,6.0,1.0,phase_2,go,150.0,100.0,1.0,,,,,,,,,yellow,cross
0.0,8.0,4.0,1.0,5.0,5.0,233.1899060000068,6.0,1.0,phase_2,go,150.0,100.0,1.0,,,,,,,,,orange,square
0.0,6.0,2.0,1.0,6.0,0.0,0.0,6.0,1.0,phase_2,stop,150.0,100.0,4.0,,,,,,,,,blue,I
0.0,1.0,1.0,0.0,6.0,6.0,315.6985670002541,6.0,1.0,phase_2,go,150.0,150.0,1.0,,,,,,,,,white,diamond
0.0,4.0,4.0,0.0,6.0,6.0,581.1286469997867,6.0,1.0,phase_2,go,150.0,150.0,1.0,,,,,,,,,magenta,hexagon
0.0,2.0,2.0,0.0,5.0,5.0,312.9577200002131,6.0,1.0,phase_2,go,150.0,150.0,1.0,,,,,,,,,yellow,cross
0.0,1.0,1.0,0.0,5.0,5.0,311.1838269996951,6.0,1.0,phase_2,go,150.0,150.0,1.0,,,,,,,,,white,diamond
0.0,7.0,3.0,1.0,6.0,6.0,229.3639340000481,6.0,1.0,phase_2,stop,150.0,150.0,3.0,,,,,,,,,cyan,flipped triangle
0.0,2.0,2.0,0.0,5.0,5.0,295.0765900000078,6.0,1.0,phase_2,go,150.0,100.0,1.0,,,,,,,,,yellow,cross
0.0,1.0,1.0,0.0,6.0,6.0,287.001403999966,6.0,1.0,phase_2,go,150.0,100.0,1.0,,,,,,,,,white,diamond
0.0,7.0,3.0,1.0,5.0,5.0,334.165184000085,7.0,1.0,phase_2,stop,150.0,100.0,3.0,,,,,,,,,cyan,flipped triangle
0.0,7.0,3.0,1.0,5.0,5.0,446.2136560000544,7.0,1.0,phase_2,go,100.0,100.0,1.0,,,,,,,,,cyan,flipped triangle
0.0,1.0,1.0,0.0,5.0,5.0,401.1788319999141,7.0,1.0,phase_2,go,100.0,100.0,1.0,,,,,,,,,white,diamond
0.0,4.0,4.0,0.0,5.0,5.0,295.3436879997753,7.0,1.0,phase_2,go,100.0,100.0,1.0,,,,,,,,,magenta,hexagon
0.0,4.0,4.0,0.0,6.0,6.0,271.8091809997531,7.0,1.0,phase_2,go,100.0,100.0,1.0,,,,,,,,,magenta,hexagon
0.0,4.0,4.0,0.0,6.0,6.0,237.6062769999407,7.0,1.0,phase_2,go,100.0,100.0,1.0,,,,,,,,,magenta,hexagon
0.0,6.0,2.0,1.0,5.0,5.0,311.3453589999153,7.0,1.0,phase_2,go,100.0,100.0,1.0,,,,,,,,,blue,I
0.0,8.0,4.0,1.0,5.0,5.0,286.4083109998319,7.0,1.0,phase_2,go,100.0,100.0,1.0,,,,,,,,,orange,square
0.0,5.0,1.0,1.0,6.0,0.0,0.0,7.0,1.0,phase_2,stop,100.0,100.0,4.0,,,,,,,,,gray,triangle
0.0,7.0,3.0,1.0,5.0,0.0,0.0,7.0,1.0,phase_2,stop,100.0,150.0,4.0,,,,,,,,,cyan,flipped triangle
0.0,7.0,3.0,1.0,5.0,0.0,0.0,7.0,1.0,phase_2,stop,150.0,150.0,4.0,,,,,,,,,cyan,flipped triangle
0.0,1.0,1.0,0.0,6.0,6.0,250.8052250000219,7.0,1.0,phase_2,go,200.0,150.0,1.0,,,,,,,,,white,diamond
0.0,1.0,1.0,0.0,5.0,5.0,510.32712599999286,7.0,1.0,phase_2,go,200.0,150.0,1.0,,,,,,,,,white,diamond
0.0,4.0,4.0,0.0,6.0,6.0,479.1842720001114,7.0,1.0,phase_2,go,200.0,150.0,1.0,,,,,,,,,magenta,hexagon
0.0,1.0,1.0,0.0,6.0,6.0,313.901153000188,7.0,1.0,phase_2,go,200.0,150.0,1.0,,,,,,,,,white,diamond
0.0,5.0,1.0,1.0,5.0,5.0,298.4643830000095,7.0,1.0,phase_2,stop,200.0,150.0,3.0,,,,,,,,,gray,triangle
0.0,1.0,1.0,0.0,6.0,6.0,504.398339999625,7.0,1.0,phase_2,go,150.0,150.0,1.0,,,,,,,,,white,diamond
0.0,3.0,3.0,0.0,6.0,6.0,284.1430909998053,7.0,1.0,phase_2,go,150.0,150.0,1.0,,,,,,,,,green,circle
0.0,3.0,3.0,0.0,5.0,5.0,300.3527850000864,7.0,1.0,phase_2,go,150.0,150.0,1.0,,,,,,,,,green,circle
0.0,2.0,2.0,0.0,5.0,5.0,321.8453770000451,7.0,1.0,phase_2,go,150.0,150.0,1.0,,,,,,,,,yellow,cross
0.0,3.0,3.0,0.0,6.0,6.0,278.4801160000825,7.0,1.0,phase_2,go,150.0,150.0,1.0,,,,,,,,,green,circle
0.0,1.0,1.0,0.0,5.0,5.0,290.22554400035,7.0,1.0,phase_2,go,150.0,150.0,1.0,,,,,,,,,white,diamond
0.0,8.0,4.0,1.0,5.0,5.0,397.9037970002537,7.0,1.0,phase_2,stop,150.0,150.0,3.0,,,,,,,,,orange,square
0.0,8.0,4.0,1.0,6.0,0.0,0.0,7.0,1.0,phase_2,stop,100.0,150.0,4.0,,,,,,,,,orange,square
0.0,8.0,4.0,1.0,5.0,0.0,0.0,7.0,1.0,phase_2,stop,100.0,200.0,4.0,,,,,,,,,orange,square
0.0,3.0,3.0,0.0,5.0,5.0,533.9359499998864,7.0,1.0,phase_2,go,150.0,200.0,1.0,,,,,,,,,green,circle
0.0,8.0,4.0,1.0,5.0,0.0,0.0,7.0,1.0,phase_2,stop,150.0,200.0,4.0,,,,,,,,,orange,square
0.0,3.0,3.0,0.0,6.0,6.0,332.9079309996814,7.0,1.0,phase_2,go,200.0,200.0,1.0,,,,,,,,,green,circle
0.0,8.0,4.0,1.0,5.0,0.0,0.0,7.0,1.0,phase_2,stop,200.0,200.0,4.0,,,,,,,,,orange,square
0.0,8.0,4.0,1.0,5.0,5.0,493.4084189999339,7.0,1.0,phase_2,go,250.0,200.0,1.0,,,,,,,,,orange,square
0.0,3.0,3.0,0.0,6.0,6.0,684.6471849999034,7.0,1.0,phase_2,go,250.0,200.0,1.0,,,,,,,,,green,circle
0.0,4.0,4.0,0.0,6.0,6.0,645.5323949999183,7.0,1.0,phase_2,go,250.0,200.0,1.0,,,,,,,,,magenta,hexagon
0.0,7.0,3.0,1.0,6.0,6.0,640.4051120002805,7.0,1.0,phase_2,go,250.0,200.0,1.0,,,,,,,,,cyan,flipped triangle
0.0,3.0,3.0,0.0,5.0,5.0,591.4390960001583,7.0,1.0,phase_2,go,250.0,200.0,1.0,,,,,,,,,green,circle
0.0,6.0,2.0,1.0,5.0,5.0,322.1161609999399,7.0,1.0,phase_2,stop,250.0,200.0,3.0,,,,,,,,,blue,I
0.0,4.0,4.0,0.0,5.0,5.0,436.9050139998762,7.0,1.0,phase_2,go,200.0,200.0,1.0,,,,,,,,,magenta,hexagon
0.0,3.0,3.0,0.0,6.0,6.0,364.7028999998838,8.0,1.0,phase_2,go,200.0,200.0,1.0,,,,,,,,,green,circle
0.0,5.0,1.0,1.0,5.0,5.0,277.7743419997023,8.0,1.0,phase_2,go,200.0,200.0,1.0,,,,,,,,,gray,triangle
0.0,2.0,2.0,0.0,6.0,6.0,367.6364590000958,8.0,1.0,phase_2,go,200.0,200.0,1.0,,,,,,,,,yellow,cross
0.0,7.0,3.0,1.0,6.0,6.0,324.2776480001339,8.0,1.0,phase_2,stop,200.0,200.0,3.0,,,,,,,,,cyan,flipped triangle
0.0,3.0,3.0,0.0,6.0,6.0,465.5187469998054,8.0,1.0,phase_2,go,200.0,150.0,1.0,,,,,,,,,green,circle
0.0,1.0,1.0,0.0,5.0,5.0,330.4750339998463,8.0,1.0,phase_2,go,200.0,150.0,1.0,,,,,,,,,white,diamond
0.0,6.0,2.0,1.0,6.0,6.0,323.6687109997547,8.0,1.0,phase_2,stop,200.0,150.0,3.0,,,,,,,,,blue,I
0.0,8.0,4.0,1.0,5.0,0.0,0.0,8.0,1.0,phase_2,stop,200.0,100.0,4.0,,,,,,,,,orange,square
0.0,6.0,2.0,1.0,5.0,5.0,293.7254499997834,8.0,1.0,phase_2,stop,250.0,100.0,3.0,,,,,,,,,blue,I
0.0,1.0,1.0,0.0,5.0,5.0,484.0834269998595,8.0,1.0,phase_2,go,200.0,100.0,1.0,,,,,,,,,white,diamond
0.0,1.0,1.0,0.0,5.0,5.0,303.9985350001188,8.0,1.0,phase_2,go,200.0,100.0,1.0,,,,,,,,,white,diamond
0.0,2.0,2.0,0.0,5.0,5.0,480.6903230000898,8.0,1.0,phase_2,go,200.0,100.0,1.0,,,,,,,,,yellow,cross
0.0,5.0,1.0,1.0,6.0,6.0,259.9729200001093,8.0,1.0,phase_2,stop,200.0,100.0,3.0,,,,,,,,,gray,triangle
0.0,7.0,3.0,1.0,5.0,5.0,352.9398059999948,8.0,1.0,phase_2,stop,200.0,50.0,3.0,,,,,,,,,cyan,flipped triangle
0.0,5.0,1.0,1.0,5.0,5.0,490.2684250000675,8.0,1.0,phase_2,go,150.0,50.0,1.0,,,,,,,,,gray,triangle
0.0,7.0,3.0,1.0,6.0,0.0,0.0,8.0,1.0,phase_2,stop,150.0,50.0,4.0,,,,,,,,,cyan,flipped triangle
0.0,7.0,3.0,1.0,5.0,5.0,292.4812989999736,8.0,1.0,phase_2,stop,150.0,100.0,3.0,,,,,,,,,cyan,flipped triangle
0.0,6.0,2.0,1.0,6.0,6.0,701.0971439999594,8.0,1.0,phase_2,go,100.0,100.0,1.0,,,,,,,,,blue,I
0.0,8.0,4.0,1.0,5.0,0.0,0.0,8.0,1.0,phase_2,stop,100.0,100.0,4.0,,,,,,,,,orange,square
0.0,6.0,2.0,1.0,5.0,0.0,0.0,8.0,1.0,phase_2,stop,150.0,100.0,4.0,,,,,,,,,blue,I
0.0,3.0,3.0,0.0,5.0,5.0,408.6669900002562,8.0,1.0,phase_2,go,200.0,100.0,1.0,,,,,,,,,green,circle
0.0,8.0,4.0,1.0,5.0,0.0,0.0,8.0,1.0,phase_2,stop,200.0,100.0,4.0,,,,,,,,,orange,square
0.0,2.0,2.0,0.0,5.0,5.0,463.5700980002184,8.0,1.0,phase_2,go,250.0,100.0,1.0,,,,,,,,,yellow,cross
0.0,1.0,1.0,0.0,6.0,6.0,530.5833780003013,8.0,1.0,phase_2,go,250.0,100.0,1.0,,,,,,,,,white,diamond
0.0,1.0,1.0,0.0,5.0,5.0,397.7118420002625,8.0,1.0,phase_2,go,250.0,100.0,1.0,,,,,,,,,white,diamond
0.0,8.0,4.0,1.0,5.0,5.0,360.2500380002311,8.0,1.0,phase_2,stop,250.0,100.0,3.0,,,,,,,,,orange,square
0.0,2.0,2.0,0.0,6.0,6.0,567.0035590001135,8.0,1.0,phase_2,go,200.0,100.0,1.0,,,,,,,,,yellow,cross
0.0,6.0,2.0,1.0,5.0,0.0,0.0,8.0,1.0,phase_2,stop,200.0,100.0,4.0,,,,,,,,,blue,I
0.0,7.0,3.0,1.0,5.0,5.0,532.1092879999014,8.0,1.0,phase_2,stop,250.0,100.0,3.0,,,,,,,,,cyan,flipped triangle
0.0,4.0,4.0,0.0,6.0,6.0,744.2700149999837,8.0,1.0,phase_2,go,200.0,100.0,1.0,,,,,,,,,magenta,hexagon
0.0,5.0,1.0,1.0,6.0,0.0,0.0,8.0,1.0,phase_2,stop,200.0,100.0,4.0,,,,,,,,,gray,triangle
0.0,7.0,3.0,1.0,6.0,6.0,523.8891999997577,8.0,1.0,phase_2,go,200.0,150.0,1.0,,,,,,,,,cyan,flipped triangle
0.0,5.0,1.0,1.0,6.0,0.0,0.0,8.0,1.0,phase_2,stop,200.0,150.0,4.0,,,,,,,,,gray,triangle
0.0,8.0,4.0,1.0,6.0,0.0,0.0,8.0,1.0,phase_2,stop,200.0,200.0,4.0,,,,,,,,,orange,square
0.0,7.0,3.0,1.0,6.0,0.0,0.0,8.0,1.0,phase_2,stop,200.0,250.0,4.0,,,,,,,,,cyan,flipped triangle
0.0,4.0,4.0,0.0,6.0,6.0,920.3603060000204,8.0,1.0,phase_2,go,200.0,300.0,1.0,,,,,,,,,magenta,hexagon
0.0,5.0,1.0,1.0,7.0,3.0,2261.9342690004487,1.0,1.0,phase_3,,,,,294.0,6.0,147.0,196.0,294.0,245.0,49.0,98.0,gray,triangle
0.0,6.0,2.0,1.0,7.0,5.0,967.5875120001364,1.0,2.0,phase_3,,,,,108.0,2.0,162.0,54.0,270.0,216.0,108.0,324.0,blue,I
0.0,6.0,2.0,1.0,7.0,6.0,2588.3659009996336,1.0,1.0,phase_3,,,,,234.0,6.0,78.0,39.0,117.0,195.0,156.0,234.0,blue,I
0.0,3.0,3.0,0.0,7.0,1.0,2499.191810000412,1.0,1.0,phase_3,,,,,196.0,4.0,196.0,245.0,49.0,294.0,98.0,147.0,green,circle
0.0,5.0,1.0,1.0,7.0,3.0,2432.9490740001347,1.0,1.0,phase_3,,,,,324.0,6.0,216.0,162.0,324.0,108.0,270.0,54.0,gray,triangle
0.0,7.0,3.0,1.0,7.0,3.0,2935.1644960006524,1.0,1.0,phase_3,,,,,88.0,2.0,176.0,132.0,88.0,44.0,264.0,220.0,cyan,flipped triangle
0.0,4.0,4.0,0.0,7.0,5.0,2613.593574999868,1.0,1.0,phase_3,,,,,245.0,5.0,147.0,49.0,294.0,196.0,245.0,98.0,magenta,hexagon
0.0,8.0,4.0,1.0,7.0,3.0,2100.3261489995566,1.0,1.0,phase_3,,,,,220.0,5.0,132.0,44.0,220.0,88.0,264.0,176.0,orange,square
0.0,8.0,4.0,1.0,7.0,5.0,1562.181440999666,1.0,1.0,phase_3,,,,,270.0,5.0,162.0,324.0,54.0,216.0,270.0,108.0,orange,square
0.0,6.0,2.0,1.0,7.0,5.0,1442.685592000089,1.0,1.0,phase_3,,,,,78.0,2.0,234.0,117.0,156.0,195.0,78.0,39.0,blue,I
0.0,3.0,3.0,0.0,7.0,3.0,1173.4711240005709,1.0,1.0,phase_3,,,,,324.0,6.0,54.0,216.0,324.0,162.0,108.0,270.0,green,circle
0.0,3.0,3.0,0.0,7.0,5.0,944.8958789998868,1.0,1.0,phase_3,,,,,216.0,4.0,270.0,162.0,324.0,54.0,216.0,108.0,green,circle
0.0,7.0,3.0,1.0,7.0,1.0,1357.4092310000196,1.0,1.0,phase_3,,,,,132.0,3.0,132.0,88.0,264.0,44.0,220.0,176.0,cyan,flipped triangle
0.0,1.0,1.0,0.0,7.0,3.0,1378.303638000034,1.0,1.0,phase_3,,,,,294.0,6.0,245.0,49.0,294.0,196.0,147.0,98.0,white,diamond
0.0,3.0,3.0,0.0,7.0,3.0,2337.829791999866,1.0,1.0,phase_3,,,,,39.0,1.0,78.0,234.0,39.0,195.0,117.0,156.0,green,circle
0.0,4.0,4.0,0.0,7.0,4.0,1568.651556000077,1.0,1.0,phase_3,,,,,68.0,2.0,170.0,34.0,102.0,68.0,136.0,204.0,magenta,hexagon
0.0,5.0,1.0,1.0,7.0,3.0,867.2423299994989,1.0,1.0,phase_3,,,,,270.0,5.0,216.0,54.0,270.0,324.0,108.0,162.0,gray,triangle
0.0,8.0,4.0,1.0,7.0,4.0,2276.065619000292,1.0,1.0,phase_3,,,,,195.0,5.0,39.0,78.0,156.0,195.0,117.0,234.0,orange,square
0.0,2.0,2.0,0.0,7.0,1.0,2650.1704089996565,1.0,1.0,phase_3,,,,,294.0,6.0,294.0,196.0,98.0,147.0,49.0,245.0,yellow,cross
0.0,7.0,3.0,1.0,7.0,3.0,3539.1075279994766,1.0,1.0,phase_3,,,,,234.0,6.0,39.0,156.0,234.0,117.0,78.0,195.0,cyan,flipped triangle
0.0,7.0,3.0,1.0,7.0,4.0,1842.247715000667,2.0,1.0,phase_3,,,,,98.0,2.0,245.0,196.0,294.0,98.0,49.0,147.0,cyan,flipped triangle
0.0,3.0,3.0,0.0,7.0,2.0,973.536647000401,2.0,1.0,phase_3,,,,,34.0,1.0,204.0,34.0,102.0,136.0,68.0,170.0,green,circle
0.0,2.0,2.0,0.0,7.0,5.0,1382.2023289994831,2.0,1.0,phase_3,,,,,264.0,6.0,88.0,132.0,176.0,220.0,264.0,44.0,yellow,cross
0.0,6.0,2.0,1.0,7.0,6.0,1787.433810999573,2.0,1.0,phase_3,,,,,294.0,6.0,245.0,98.0,49.0,196.0,147.0,294.0,blue,I
0.0,2.0,2.0,0.0,7.0,2.0,1691.0533030004444,2.0,1.0,phase_3,,,,,78.0,2.0,39.0,78.0,234.0,195.0,117.0,156.0,yellow,cross
0.0,8.0,4.0,1.0,7.0,4.0,1343.6605750002857,2.0,1.0,phase_3,,,,,147.0,3.0,49.0,98.0,245.0,147.0,196.0,294.0,orange,square
0.0,5.0,1.0,1.0,7.0,6.0,1847.210582000116,2.0,1.0,phase_3,,,,,234.0,6.0,117.0,39.0,195.0,156.0,78.0,234.0,gray,triangle
0.0,8.0,4.0,1.0,7.0,2.0,767.7754760006792,2.0,1.0,phase_3,,,,,204.0,6.0,170.0,204.0,102.0,136.0,68.0,34.0,orange,square
0.0,7.0,3.0,1.0,7.0,2.0,1772.808227000496,2.0,1.0,phase_3,,,,,294.0,6.0,196.0,294.0,147.0,49.0,245.0,98.0,cyan,flipped triangle
0.0,4.0,4.0,0.0,7.0,3.0,554.6872439999788,2.0,1.0,phase_3,,,,,98.0,2.0,245.0,294.0,98.0,196.0,49.0,147.0,magenta,hexagon
0.0,1.0,1.0,0.0,7.0,5.0,1028.858403000413,2.0,1.0,phase_3,,,,,264.0,6.0,44.0,132.0,88.0,176.0,264.0,220.0,white,diamond
0.0,1.0,1.0,0.0,7.0,1.0,895.0115260004168,2.0,1.0,phase_3,,,,,234.0,6.0,234.0,195.0,78.0,117.0,39.0,156.0,white,diamond
0.0,8.0,4.0,1.0,7.0,1.0,812.8883890003635,2.0,1.0,phase_3,,,,,88.0,2.0,88.0,44.0,264.0,132.0,176.0,220.0,orange,square
0.0,1.0,1.0,0.0,7.0,4.0,2767.630188000112,2.0,1.0,phase_3,,,,,176.0,4.0,88.0,264.0,44.0,176.0,220.0,132.0,white,diamond
0.0,4.0,4.0,0.0,7.0,6.0,2106.523792000189,2.0,1.0,phase_3,,,,,234.0,6.0,78.0,117.0,156.0,195.0,39.0,234.0,magenta,hexagon
0.0,2.0,2.0,0.0,7.0,5.0,1979.5492479997847,2.0,1.0,phase_3,,,,,108.0,2.0,162.0,216.0,270.0,54.0,108.0,324.0,yellow,cross
0.0,4.0,4.0,0.0,7.0,2.0,1863.3410900001763,2.0,1.0,phase_3,,,,,220.0,5.0,44.0,220.0,88.0,264.0,132.0,176.0,magenta,hexagon
0.0,2.0,2.0,0.0,7.0,4.0,1295.309971000279,2.0,1.0,phase_3,,,,,245.0,5.0,196.0,147.0,49.0,245.0,98.0,294.0,yellow,cross
0.0,7.0,3.0,1.0,7.0,6.0,1191.758292000486,2.0,1.0,phase_3,,,,,54.0,1.0,216.0,108.0,324.0,270.0,162.0,54.0,cyan,flipped triangle
0.0,8.0,4.0,1.0,7.0,1.0,1177.527816000293,2.0,1.0,phase_3,,,,,102.0,3.0,102.0,136.0,34.0,170.0,204.0,68.0,orange,square
0.0,5.0,1.0,1.0,7.0,3.0,513.0421269996077,3.0,1.0,phase_3,,,,,234.0,6.0,156.0,195.0,234.0,78.0,39.0,117.0,gray,triangle
0.0,1.0,1.0,0.0,7.0,1.0,759.4307179997486,3.0,1.0,phase_3,,,,,102.0,3.0,102.0,68.0,170.0,204.0,34.0,136.0,white,diamond
0.0,4.0,4.0,0.0,7.0,4.0,537.8607430002376,3.0,1.0,phase_3,,,,,270.0,5.0,54.0,108.0,216.0,270.0,162.0,324.0,magenta,hexagon
0.0,2.0,2.0,0.0,7.0,1.0,1009.5056170002863,3.0,1.0,phase_3,,,,,108.0,2.0,108.0,162.0,216.0,54.0,270.0,324.0,yellow,cross
0.0,5.0,1.0,1.0,7.0,5.0,380.6523670000388,3.0,1.0,phase_3,,,,,176.0,4.0,264.0,132.0,44.0,88.0,176.0,220.0,gray,triangle
0.0,3.0,3.0,0.0,7.0,6.0,1235.4704949993902,3.0,1.0,phase_3,,,,,39.0,1.0,195.0,234.0,117.0,78.0,156.0,39.0,green,circle
0.0,6.0,2.0,1.0,7.0,2.0,771.5553160005584,3.0,1.0,phase_3,,,,,147.0,3.0,294.0,147.0,49.0,98.0,245.0,196.0,blue,I
0.0,5.0,1.0,1.0,7.0,5.0,1925.094327999432,3.0,1.0,phase_3,,,,,294.0,6.0,147.0,49.0,245.0,196.0,294.0,98.0,gray,triangle
0.0,8.0,4.0,1.0,7.0,4.0,949.3149230002018,3.0,1.0,phase_3,,,,,294.0,6.0,49.0,245.0,147.0,294.0,98.0,196.0,orange,square
0.0,7.0,3.0,1.0,7.0,2.0,822.6020919992152,3.0,1.0,phase_3,,,,,102.0,3.0,136.0,102.0,68.0,170.0,34.0,204.0,cyan,flipped triangle
0.0,4.0,4.0,0.0,7.0,2.0,732.9380890005268,3.0,1.0,phase_3,,,,,264.0,6.0,132.0,264.0,44.0,220.0,88.0,176.0,magenta,hexagon
0.0,5.0,1.0,1.0,7.0,3.0,1886.376023999219,3.0,1.0,phase_3,,,,,204.0,6.0,34.0,68.0,204.0,136.0,102.0,170.0,gray,triangle
0.0,4.0,4.0,0.0,7.0,1.0,514.5886600002996,3.0,1.0,phase_3,,,,,68.0,2.0,68.0,102.0,170.0,204.0,136.0,34.0,magenta,hexagon
0.0,6.0,2.0,1.0,7.0,5.0,644.5392989999164,3.0,1.0,phase_3,,,,,44.0,1.0,88.0,176.0,132.0,264.0,44.0,220.0,blue,I
0.0,6.0,2.0,1.0,7.0,2.0,821.8155489994388,3.0,1.0,phase_3,,,,,54.0,1.0,108.0,54.0,162.0,324.0,216.0,270.0,blue,I
0.0,1.0,1.0,0.0,7.0,2.0,1286.7374309998922,3.0,1.0,phase_3,,,,,234.0,6.0,195.0,234.0,156.0,39.0,117.0,78.0,white,diamond
0.0,3.0,3.0,0.0,7.0,5.0,943.366882999726,3.0,1.0,phase_3,,,,,44.0,1.0,264.0,88.0,176.0,132.0,44.0,220.0,green,circle
0.0,6.0,2.0,1.0,7.0,2.0,1414.2797099993911,3.0,1.0,phase_3,,,,,68.0,2.0,136.0,68.0,170.0,102.0,34.0,204.0,blue,I
0.0,1.0,1.0,0.0,7.0,2.0,1381.9937219996064,3.0,1.0,phase_3,,,,,270.0,5.0,324.0,270.0,162.0,54.0,108.0,216.0,white,diamond
0.0,2.0,2.0,0.0,7.0,3.0,1131.2271829992824,3.0,1.0,phase_3,,,,,34.0,1.0,204.0,136.0,34.0,102.0,170.0,68.0,yellow,cross
0.0,1.0,1.0,0.0,7.0,2.0,1651.2277319998248,4.0,1.0,phase_3,,,,,54.0,1.0,108.0,54.0,324.0,216.0,270.0,162.0,white,diamond
0.0,7.0,3.0,1.0,7.0,4.0,1009.8171190002176,4.0,1.0,phase_3,,,,,39.0,1.0,156.0,234.0,117.0,39.0,195.0,78.0,cyan,flipped triangle
0.0,1.0,1.0,0.0,7.0,3.0,1417.1087509994322,4.0,1.0,phase_3,,,,,204.0,6.0,136.0,34.0,204.0,68.0,102.0,170.0,white,diamond
0.0,7.0,3.0,1.0,7.0,2.0,1244.7475149992897,4.0,1.0,phase_3,,,,,68.0,2.0,34.0,68.0,170.0,102.0,136.0,204.0,cyan,flipped triangle
0.0,4.0,4.0,0.0,7.0,5.0,941.4002349994915,4.0,1.0,phase_3,,,,,54.0,1.0,270.0,216.0,324.0,108.0,54.0,162.0,magenta,hexagon
0.0,8.0,4.0,1.0,7.0,4.0,658.1270960004986,4.0,1.0,phase_3,,,,,54.0,1.0,108.0,324.0,162.0,54.0,270.0,216.0,orange,square
0.0,7.0,3.0,1.0,7.0,6.0,2231.046697000238,4.0,1.0,phase_3,,,,,54.0,1.0,324.0,108.0,270.0,216.0,162.0,54.0,cyan,flipped triangle
0.0,2.0,2.0,0.0,7.0,2.0,0.3433350002524,4.0,1.0,phase_3,,,,,204.0,6.0,102.0,204.0,68.0,136.0,34.0,170.0,yellow,cross
0.0,1.0,1.0,0.0,7.0,6.0,1920.26924000038,4.0,1.0,phase_3,,,,,294.0,6.0,98.0,49.0,245.0,196.0,147.0,294.0,white,diamond
0.0,3.0,3.0,0.0,7.0,1.0,1286.2509409997074,4.0,1.0,phase_3,,,,,34.0,1.0,34.0,68.0,204.0,136.0,170.0,102.0,green,circle
0.0,2.0,2.0,0.0,7.0,1.0,2141.6518189998897,4.0,1.0,phase_3,,,,,176.0,4.0,176.0,220.0,132.0,264.0,44.0,88.0,yellow,cross
0.0,6.0,2.0,1.0,7.0,2.0,1848.6257570002635,4.0,1.0,phase_3,,,,,34.0,1.0,204.0,34.0,102.0,136.0,170.0,68.0,blue,I
0.0,5.0,1.0,1.0,7.0,3.0,2158.790170999964,4.0,1.0,phase_3,,,,,44.0,1.0,220.0,88.0,44.0,132.0,264.0,176.0,gray,triangle
0.0,6.0,2.0,1.0,7.0,3.0,1170.394572999612,4.0,1.0,phase_3,,,,,44.0,1.0,132.0,220.0,44.0,176.0,264.0,88.0,blue,I
0.0,4.0,4.0,0.0,7.0,3.0,2193.1335400004173,4.0,1.0,phase_3,,,,,234.0,6.0,156.0,117.0,234.0,195.0,39.0,78.0,magenta,hexagon
0.0,3.0,3.0,0.0,7.0,6.0,1037.2080139995887,4.0,1.0,phase_3,,,,,44.0,1.0,88.0,220.0,176.0,264.0,132.0,44.0,green,circle
0.0,5.0,1.0,1.0,7.0,4.0,289.1306120000081,4.0,1.0,phase_3,,,,,204.0,6.0,102.0,136.0,170.0,204.0,34.0,68.0,gray,triangle
0.0,2.0,2.0,0.0,7.0,3.0,1532.5308960000257,4.0,1.0,phase_3,,,,,156.0,4.0,195.0,234.0,156.0,78.0,117.0,39.0,yellow,cross
0.0,8.0,4.0,1.0,7.0,5.0,2695.026160999987,4.0,1.0,phase_3,,,,,117.0,3.0,156.0,234.0,195.0,39.0,117.0,78.0,orange,square
0.0,3.0,3.0,0.0,7.0,2.0,786.8223509995005,4.0,1.0,phase_3,,,,,147.0,3.0,294.0,147.0,245.0,49.0,196.0,98.0,green,circle
