raw_reward_magnitude,stim_reward,stepwise_reward_magnitude,paired_with_stopping,stim_location,response,reaction_time,block,num_trial_presentations,which_phase,stop_signal_trial_type,left_SSD,right_SSD,accuracy,chosen_bidding_amount,chosen_bidding_level,possible_bid_1,possible_bid_2,possible_bid_3,possible_bid_4,possible_bid_5,possible_bid_6,color_text,shape_text
198.0,7.0,2.0,1.0,2.0,2.0,348.3014999999341,1.0,1.0,phase_1,,,,,,,,,,,,,orange,triangle
117.0,6.0,1.0,1.0,1.0,1.0,324.67573599979,1.0,1.0,phase_1,,,,,,,,,,,,,yellow,cross
0.0,6.0,0.0,1.0,3.0,3.0,780.2991140001723,1.0,1.0,phase_1,,,,,,,,,,,,,yellow,cross
0.0,4.0,0.0,0.0,4.0,4.0,378.3049270000447,1.0,1.0,phase_1,,,,,,,,,,,,,gray,I
111.0,2.0,1.0,0.0,4.0,4.0,302.9168889997891,1.0,1.0,phase_1,,,,,,,,,,,,,cyan,diamond
210.0,3.0,2.0,0.0,4.0,4.0,291.5870249998988,1.0,1.0,phase_1,,,,,,,,,,,,,green,circle
104.0,6.0,1.0,1.0,1.0,1.0,292.3474749998149,1.0,1.0,phase_1,,,,,,,,,,,,,yellow,cross
117.0,2.0,1.0,0.0,2.0,2.0,288.2621769999787,1.0,1.0,phase_1,,,,,,,,,,,,,cyan,diamond
88.0,6.0,1.0,1.0,4.0,4.0,237.2557440000946,1.0,1.0,phase_1,,,,,,,,,,,,,yellow,cross
0.0,6.0,0.0,1.0,2.0,2.0,245.4349820000061,1.0,1.0,phase_1,,,,,,,,,,,,,yellow,cross
121.0,6.0,1.0,1.0,2.0,2.0,268.4630679998463,1.0,1.0,phase_1,,,,,,,,,,,,,yellow,cross
73.0,5.0,0.5,1.0,2.0,2.0,258.4621349999452,1.0,1.0,phase_1,,,,,,,,,,,,,magenta,flipped triangle
220.0,3.0,2.0,0.0,3.0,3.0,280.1825710000685,1.0,1.0,phase_1,,,,,,,,,,,,,green,circle
0.0,1.0,0.0,0.0,3.0,3.0,362.1348309998211,1.0,1.0,phase_1,,,,,,,,,,,,,white,hexagon
0.0,4.0,0.0,0.0,2.0,2.0,308.9294900000823,1.0,1.0,phase_1,,,,,,,,,,,,,gray,I
210.0,3.0,2.0,0.0,1.0,1.0,297.2141629998077,1.0,1.0,phase_1,,,,,,,,,,,,,green,circle
29.0,5.0,0.5,1.0,1.0,1.0,304.8896969999077,1.0,1.0,phase_1,,,,,,,,,,,,,magenta,flipped triangle
99.0,2.0,1.0,0.0,4.0,4.0,265.760716999921,1.0,1.0,phase_1,,,,,,,,,,,,,cyan,diamond
403.0,4.0,4.0,0.0,4.0,4.0,276.7661160000898,1.0,1.0,phase_1,,,,,,,,,,,,,gray,I
181.0,3.0,2.0,0.0,2.0,2.0,329.0130089999366,1.0,1.0,phase_1,,,,,,,,,,,,,green,circle
215.0,7.0,2.0,1.0,1.0,1.0,273.0069149997689,1.0,1.0,phase_1,,,,,,,,,,,,,orange,triangle
80.0,2.0,1.0,0.0,4.0,4.0,278.9444649997676,1.0,1.0,phase_1,,,,,,,,,,,,,cyan,diamond
423.0,8.0,4.0,1.0,2.0,2.0,296.208633000333,1.0,1.0,phase_1,,,,,,,,,,,,,blue,square
194.0,7.0,2.0,1.0,4.0,4.0,306.6425019997041,1.0,1.0,phase_1,,,,,,,,,,,,,orange,triangle
177.0,7.0,2.0,1.0,3.0,3.0,314.8953689997142,1.0,1.0,phase_1,,,,,,,,,,,,,orange,triangle
84.0,6.0,1.0,1.0,1.0,1.0,263.9376870001797,1.0,1.0,phase_1,,,,,,,,,,,,,yellow,cross
179.0,7.0,2.0,1.0,2.0,2.0,325.5376120000619,1.0,1.0,phase_1,,,,,,,,,,,,,orange,triangle
207.0,7.0,2.0,1.0,2.0,2.0,300.6950970002435,1.0,1.0,phase_1,,,,,,,,,,,,,orange,triangle
0.0,1.0,0.0,0.0,4.0,4.0,272.8201239997361,1.0,1.0,phase_1,,,,,,,,,,,,,white,hexagon
52.0,1.0,0.5,0.0,2.0,2.0,303.6784680002711,1.0,1.0,phase_1,,,,,,,,,,,,,white,hexagon
0.0,7.0,0.0,1.0,4.0,4.0,369.82861100023,1.0,1.0,phase_1,,,,,,,,,,,,,orange,triangle
48.0,1.0,0.5,0.0,3.0,3.0,325.1570960001118,1.0,1.0,phase_1,,,,,,,,,,,,,white,hexagon
0.0,3.0,0.0,0.0,2.0,2.0,355.1323770002454,1.0,1.0,phase_1,,,,,,,,,,,,,green,circle
0.0,7.0,0.0,1.0,3.0,3.0,304.8314739999114,1.0,1.0,phase_1,,,,,,,,,,,,,orange,triangle
205.0,7.0,2.0,1.0,1.0,1.0,250.2749010000116,1.0,1.0,phase_1,,,,,,,,,,,,,orange,triangle
31.0,1.0,0.5,0.0,3.0,3.0,284.4265920002726,1.0,1.0,phase_1,,,,,,,,,,,,,white,hexagon
185.0,7.0,2.0,1.0,2.0,2.0,259.7114870000041,1.0,1.0,phase_1,,,,,,,,,,,,,orange,triangle
98.0,2.0,1.0,0.0,2.0,2.0,267.8953999998157,1.0,1.0,phase_1,,,,,,,,,,,,,cyan,diamond
0.0,5.0,0.0,1.0,4.0,4.0,277.6052499998513,1.0,1.0,phase_1,,,,,,,,,,,,,magenta,flipped triangle
206.0,3.0,2.0,0.0,3.0,3.0,276.426549000007,1.0,1.0,phase_1,,,,,,,,,,,,,green,circle
26.0,5.0,0.5,1.0,1.0,1.0,230.3881500001807,1.0,1.0,phase_1,,,,,,,,,,,,,magenta,flipped triangle
107.0,6.0,1.0,1.0,4.0,4.0,307.7722370003357,1.0,1.0,phase_1,,,,,,,,,,,,,yellow,cross
421.0,4.0,4.0,0.0,4.0,4.0,300.7531719999861,1.0,1.0,phase_1,,,,,,,,,,,,,gray,I
39.0,1.0,0.5,0.0,4.0,4.0,282.8920130000369,1.0,1.0,phase_1,,,,,,,,,,,,,white,hexagon
220.0,7.0,2.0,1.0,4.0,4.0,258.8840449998315,1.0,1.0,phase_1,,,,,,,,,,,,,orange,triangle
107.0,2.0,1.0,0.0,3.0,3.0,305.64647600022,1.0,1.0,phase_1,,,,,,,,,,,,,cyan,diamond
117.0,2.0,1.0,0.0,1.0,1.0,302.3381479997624,1.0,1.0,phase_1,,,,,,,,,,,,,cyan,diamond
111.0,6.0,1.0,1.0,3.0,3.0,296.3303530000303,1.0,1.0,phase_1,,,,,,,,,,,,,yellow,cross
30.0,5.0,0.5,1.0,2.0,2.0,307.9457510002612,1.0,1.0,phase_1,,,,,,,,,,,,,magenta,flipped triangle
0.0,4.0,0.0,0.0,3.0,3.0,307.5286819998837,1.0,1.0,phase_1,,,,,,,,,,,,,gray,I
191.0,7.0,2.0,1.0,3.0,3.0,293.0969909998566,1.0,1.0,phase_1,,,,,,,,,,,,,orange,triangle
210.0,7.0,2.0,1.0,1.0,1.0,285.3158769999027,1.0,1.0,phase_1,,,,,,,,,,,,,orange,triangle
0.0,5.0,0.0,1.0,2.0,2.0,280.8474290000049,1.0,1.0,phase_1,,,,,,,,,,,,,magenta,flipped triangle
94.0,2.0,1.0,0.0,1.0,1.0,323.7653930000306,1.0,1.0,phase_1,,,,,,,,,,,,,cyan,diamond
395.0,8.0,4.0,1.0,4.0,4.0,273.8054529995679,1.0,1.0,phase_1,,,,,,,,,,,,,blue,square
182.0,7.0,2.0,1.0,1.0,1.0,356.9092369998543,1.0,2.0,phase_1,,,,,,,,,,,,,orange,triangle
0.0,5.0,0.0,1.0,1.0,1.0,298.0065100000502,1.0,1.0,phase_1,,,,,,,,,,,,,magenta,flipped triangle
0.0,1.0,0.0,0.0,4.0,4.0,452.993159000016,1.0,2.0,phase_1,,,,,,,,,,,,,white,hexagon
84.0,2.0,1.0,0.0,2.0,2.0,322.3515950003275,1.0,1.0,phase_1,,,,,,,,,,,,,cyan,diamond
63.0,5.0,0.5,1.0,3.0,3.0,384.7962800000459,1.0,1.0,phase_1,,,,,,,,,,,,,magenta,flipped triangle
31.0,5.0,0.5,1.0,1.0,1.0,271.1199300001681,1.0,1.0,phase_1,,,,,,,,,,,,,magenta,flipped triangle
69.0,1.0,0.5,0.0,2.0,2.0,332.1625930002483,1.0,1.0,phase_1,,,,,,,,,,,,,white,hexagon
185.0,3.0,2.0,0.0,3.0,3.0,335.3309310000441,1.0,1.0,phase_1,,,,,,,,,,,,,green,circle
46.0,1.0,0.5,0.0,1.0,1.0,350.1061759998265,1.0,1.0,phase_1,,,,,,,,,,,,,white,hexagon
424.0,4.0,4.0,0.0,3.0,3.0,345.4155740000715,1.0,1.0,phase_1,,,,,,,,,,,,,gray,I
181.0,3.0,2.0,0.0,4.0,4.0,297.7705779999269,1.0,1.0,phase_1,,,,,,,,,,,,,green,circle
425.0,8.0,4.0,1.0,1.0,1.0,279.3039849998422,1.0,1.0,phase_1,,,,,,,,,,,,,blue,square
191.0,3.0,2.0,0.0,3.0,3.0,388.7580119999256,1.0,1.0,phase_1,,,,,,,,,,,,,green,circle
384.0,4.0,4.0,0.0,2.0,2.0,297.3414920002142,1.0,1.0,phase_1,,,,,,,,,,,,,gray,I
0.0,7.0,0.0,1.0,2.0,2.0,326.3152640001863,1.0,1.0,phase_1,,,,,,,,,,,,,orange,triangle
36.0,1.0,0.5,0.0,3.0,3.0,278.7430059997859,1.0,1.0,phase_1,,,,,,,,,,,,,white,hexagon
58.0,5.0,0.5,1.0,1.0,1.0,301.5691210002842,1.0,1.0,phase_1,,,,,,,,,,,,,magenta,flipped triangle
0.0,3.0,0.0,0.0,4.0,4.0,306.475429999864,1.0,1.0,phase_1,,,,,,,,,,,,,green,circle
208.0,7.0,2.0,1.0,3.0,3.0,319.3925900000067,1.0,1.0,phase_1,,,,,,,,,,,,,orange,triangle
108.0,6.0,1.0,1.0,3.0,3.0,325.6435640000745,1.0,1.0,phase_1,,,,,,,,,,,,,yellow,cross
390.0,8.0,4.0,1.0,3.0,3.0,358.186525000292,1.0,1.0,phase_1,,,,,,,,,,,,,blue,square
189.0,7.0,2.0,1.0,3.0,3.0,309.130584000286,1.0,1.0,phase_1,,,,,,,,,,,,,orange,triangle
0.0,3.0,0.0,0.0,4.0,4.0,309.2283930000121,1.0,1.0,phase_1,,,,,,,,,,,,,green,circle
30.0,1.0,0.5,0.0,3.0,3.0,286.8500499998845,1.0,1.0,phase_1,,,,,,,,,,,,,white,hexagon
63.0,1.0,0.5,0.0,1.0,1.0,362.9081280000719,1.0,1.0,phase_1,,,,,,,,,,,,,white,hexagon
0.0,4.0,0.0,0.0,1.0,1.0,341.9795180002438,1.0,1.0,phase_1,,,,,,,,,,,,,gray,I
384.0,8.0,4.0,1.0,1.0,1.0,318.1025509998108,1.0,1.0,phase_1,,,,,,,,,,,,,blue,square
198.0,3.0,2.0,0.0,1.0,1.0,295.0055880000946,1.0,1.0,phase_1,,,,,,,,,,,,,green,circle
73.0,1.0,0.5,0.0,4.0,4.0,315.1862310000979,1.0,1.0,phase_1,,,,,,,,,,,,,white,hexagon
82.0,6.0,1.0,1.0,1.0,1.0,300.8981969996966,1.0,1.0,phase_1,,,,,,,,,,,,,yellow,cross
220.0,7.0,2.0,1.0,4.0,4.0,383.5685059998468,1.0,1.0,phase_1,,,,,,,,,,,,,orange,triangle
25.0,5.0,0.5,1.0,4.0,4.0,382.3024509997594,1.0,1.0,phase_1,,,,,,,,,,,,,magenta,flipped triangle
103.0,2.0,1.0,0.0,3.0,3.0,332.0602700000563,1.0,1.0,phase_1,,,,,,,,,,,,,cyan,diamond
410.0,4.0,4.0,0.0,3.0,3.0,340.2356500000678,1.0,1.0,phase_1,,,,,,,,,,,,,gray,I
402.0,8.0,4.0,1.0,3.0,3.0,334.7591380002086,1.0,1.0,phase_1,,,,,,,,,,,,,blue,square
398.0,8.0,4.0,1.0,3.0,3.0,326.8659889999981,1.0,1.0,phase_1,,,,,,,,,,,,,blue,square
217.0,3.0,2.0,0.0,4.0,4.0,318.4166900000491,1.0,1.0,phase_1,,,,,,,,,,,,,green,circle
375.0,8.0,4.0,1.0,1.0,1.0,310.6958920002398,1.0,1.0,phase_1,,,,,,,,,,,,,blue,square
112.0,2.0,1.0,0.0,3.0,3.0,307.2990560003745,1.0,1.0,phase_1,,,,,,,,,,,,,cyan,diamond
0.0,7.0,0.0,1.0,2.0,2.0,356.1306239998885,1.0,1.0,phase_1,,,,,,,,,,,,,orange,triangle
40.0,5.0,0.5,1.0,4.0,4.0,372.5805170001877,1.0,1.0,phase_1,,,,,,,,,,,,,magenta,flipped triangle
394.0,8.0,4.0,1.0,1.0,1.0,262.8565899999557,1.0,1.0,phase_1,,,,,,,,,,,,,blue,square
0.0,2.0,0.0,0.0,1.0,1.0,312.4336079999921,1.0,1.0,phase_1,,,,,,,,,,,,,cyan,diamond
29.0,5.0,0.5,1.0,1.0,1.0,300.4640109998036,1.0,1.0,phase_1,,,,,,,,,,,,,magenta,flipped triangle
108.0,2.0,1.0,0.0,2.0,2.0,283.8066329995854,1.0,1.0,phase_1,,,,,,,,,,,,,cyan,diamond
83.0,2.0,1.0,0.0,1.0,1.0,275.9889439998915,2.0,1.0,phase_1,,,,,,,,,,,,,cyan,diamond
399.0,4.0,4.0,0.0,4.0,4.0,356.9520770001873,2.0,2.0,phase_1,,,,,,,,,,,,,gray,I
65.0,1.0,0.5,0.0,3.0,3.0,303.5302179996506,2.0,1.0,phase_1,,,,,,,,,,,,,white,hexagon
392.0,8.0,4.0,1.0,1.0,1.0,356.5165439999873,2.0,1.0,phase_1,,,,,,,,,,,,,blue,square
410.0,4.0,4.0,0.0,2.0,2.0,320.8194259996162,2.0,1.0,phase_1,,,,,,,,,,,,,gray,I
48.0,5.0,0.5,1.0,2.0,2.0,300.2982190000693,2.0,1.0,phase_1,,,,,,,,,,,,,magenta,flipped triangle
95.0,2.0,1.0,0.0,3.0,3.0,324.7359719998712,2.0,1.0,phase_1,,,,,,,,,,,,,cyan,diamond
420.0,8.0,4.0,1.0,2.0,2.0,304.0266100001645,2.0,1.0,phase_1,,,,,,,,,,,,,blue,square
197.0,7.0,2.0,1.0,3.0,3.0,302.6235170000291,2.0,1.0,phase_1,,,,,,,,,,,,,orange,triangle
32.0,1.0,0.5,0.0,3.0,3.0,321.0099200000513,2.0,1.0,phase_1,,,,,,,,,,,,,white,hexagon
391.0,4.0,4.0,0.0,1.0,1.0,287.2683020000295,2.0,1.0,phase_1,,,,,,,,,,,,,gray,I
36.0,5.0,0.5,1.0,2.0,2.0,285.7659569999669,2.0,1.0,phase_1,,,,,,,,,,,,,magenta,flipped triangle
33.0,5.0,0.5,1.0,4.0,4.0,353.3862790000057,2.0,1.0,phase_1,,,,,,,,,,,,,magenta,flipped triangle
206.0,7.0,2.0,1.0,1.0,1.0,335.2420810001604,2.0,1.0,phase_1,,,,,,,,,,,,,orange,triangle
56.0,1.0,0.5,0.0,1.0,1.0,364.2086909999307,2.0,1.0,phase_1,,,,,,,,,,,,,white,hexagon
39.0,5.0,0.5,1.0,3.0,3.0,307.732236999982,2.0,1.0,phase_1,,,,,,,,,,,,,magenta,flipped triangle
181.0,7.0,2.0,1.0,2.0,2.0,285.1629699998739,2.0,1.0,phase_1,,,,,,,,,,,,,orange,triangle
88.0,6.0,1.0,1.0,2.0,2.0,507.7282249999371,2.0,1.0,phase_1,,,,,,,,,,,,,yellow,cross
76.0,6.0,1.0,1.0,3.0,3.0,287.6918599999953,2.0,1.0,phase_1,,,,,,,,,,,,,yellow,cross
0.0,2.0,0.0,0.0,1.0,1.0,286.3273759999174,2.0,1.0,phase_1,,,,,,,,,,,,,cyan,diamond
112.0,2.0,1.0,0.0,3.0,3.0,471.1797340000885,2.0,1.0,phase_1,,,,,,,,,,,,,cyan,diamond
66.0,5.0,0.5,1.0,3.0,3.0,349.8883940001178,2.0,1.0,phase_1,,,,,,,,,,,,,magenta,flipped triangle
0.0,8.0,0.0,1.0,1.0,1.0,308.0959040003108,2.0,1.0,phase_1,,,,,,,,,,,,,blue,square
100.0,2.0,1.0,0.0,1.0,1.0,282.6713959998415,2.0,1.0,phase_1,,,,,,,,,,,,,cyan,diamond
189.0,3.0,2.0,0.0,2.0,2.0,235.662728999614,2.0,1.0,phase_1,,,,,,,,,,,,,green,circle
117.0,2.0,1.0,0.0,3.0,3.0,327.0267620000595,2.0,1.0,phase_1,,,,,,,,,,,,,cyan,diamond
0.0,8.0,0.0,1.0,1.0,1.0,283.345613000165,2.0,1.0,phase_1,,,,,,,,,,,,,blue,square
88.0,2.0,1.0,0.0,1.0,1.0,311.4432410002337,2.0,1.0,phase_1,,,,,,,,,,,,,cyan,diamond
0.0,5.0,0.0,1.0,2.0,2.0,268.4956329999295,2.0,1.0,phase_1,,,,,,,,,,,,,magenta,flipped triangle
392.0,8.0,4.0,1.0,2.0,2.0,274.117760000081,2.0,1.0,phase_1,,,,,,,,,,,,,blue,square
0.0,7.0,0.0,1.0,4.0,4.0,412.8222070003176,2.0,1.0,phase_1,,,,,,,,,,,,,orange,triangle
67.0,1.0,0.5,0.0,4.0,4.0,810.9248040000239,2.0,2.0,phase_1,,,,,,,,,,,,,white,hexagon
25.0,1.0,0.5,0.0,2.0,2.0,316.8993050003337,2.0,1.0,phase_1,,,,,,,,,,,,,white,hexagon
407.0,4.0,4.0,0.0,2.0,2.0,324.5674360000521,2.0,1.0,phase_1,,,,,,,,,,,,,gray,I
208.0,3.0,2.0,0.0,1.0,1.0,311.8473889999222,2.0,1.0,phase_1,,,,,,,,,,,,,green,circle
214.0,3.0,2.0,0.0,4.0,4.0,371.4036500000475,2.0,1.0,phase_1,,,,,,,,,,,,,green,circle
0.0,6.0,0.0,1.0,4.0,4.0,382.9892990002008,2.0,1.0,phase_1,,,,,,,,,,,,,yellow,cross
396.0,8.0,4.0,1.0,3.0,3.0,355.9294360002241,2.0,1.0,phase_1,,,,,,,,,,,,,blue,square
52.0,5.0,0.5,1.0,4.0,4.0,341.1163480000141,2.0,1.0,phase_1,,,,,,,,,,,,,magenta,flipped triangle
61.0,5.0,0.5,1.0,4.0,4.0,358.3124319998205,2.0,1.0,phase_1,,,,,,,,,,,,,magenta,flipped triangle
96.0,2.0,1.0,0.0,1.0,1.0,373.0355619995862,2.0,1.0,phase_1,,,,,,,,,,,,,cyan,diamond
181.0,7.0,2.0,1.0,3.0,3.0,339.6589590001895,2.0,1.0,phase_1,,,,,,,,,,,,,orange,triangle
0.0,6.0,0.0,1.0,3.0,3.0,327.4384960000134,2.0,1.0,phase_1,,,,,,,,,,,,,yellow,cross
375.0,4.0,4.0,0.0,4.0,4.0,308.4590939997724,2.0,1.0,phase_1,,,,,,,,,,,,,gray,I
182.0,7.0,2.0,1.0,4.0,4.0,302.5430550001147,2.0,1.0,phase_1,,,,,,,,,,,,,orange,triangle
0.0,7.0,0.0,1.0,4.0,4.0,330.4869969997526,2.0,1.0,phase_1,,,,,,,,,,,,,orange,triangle
0.0,3.0,0.0,0.0,1.0,1.0,298.3073199998216,2.0,1.0,phase_1,,,,,,,,,,,,,green,circle
82.0,2.0,1.0,0.0,2.0,2.0,352.1538979998695,2.0,1.0,phase_1,,,,,,,,,,,,,cyan,diamond
48.0,5.0,0.5,1.0,1.0,1.0,334.8645360001683,2.0,1.0,phase_1,,,,,,,,,,,,,magenta,flipped triangle
177.0,3.0,2.0,0.0,3.0,3.0,422.5617420001981,2.0,1.0,phase_1,,,,,,,,,,,,,green,circle
121.0,2.0,1.0,0.0,3.0,3.0,386.7385500002456,2.0,1.0,phase_1,,,,,,,,,,,,,cyan,diamond
0.0,6.0,0.0,1.0,4.0,4.0,381.2471420001202,2.0,1.0,phase_1,,,,,,,,,,,,,yellow,cross
79.0,2.0,1.0,0.0,3.0,3.0,335.4990670000006,2.0,1.0,phase_1,,,,,,,,,,,,,cyan,diamond
48.0,5.0,0.5,1.0,2.0,2.0,343.0218939997758,2.0,1.0,phase_1,,,,,,,,,,,,,magenta,flipped triangle
0.0,3.0,0.0,0.0,3.0,3.0,313.6384969998289,2.0,1.0,phase_1,,,,,,,,,,,,,green,circle
114.0,2.0,1.0,0.0,3.0,3.0,313.5560020000412,2.0,1.0,phase_1,,,,,,,,,,,,,cyan,diamond
0.0,2.0,0.0,0.0,4.0,4.0,349.2479860001367,2.0,1.0,phase_1,,,,,,,,,,,,,cyan,diamond
100.0,6.0,1.0,1.0,3.0,3.0,344.6791249998568,2.0,1.0,phase_1,,,,,,,,,,,,,yellow,cross
0.0,4.0,0.0,0.0,2.0,2.0,298.7155289997645,2.0,1.0,phase_1,,,,,,,,,,,,,gray,I
0.0,8.0,0.0,1.0,4.0,4.0,360.142882999753,2.0,1.0,phase_1,,,,,,,,,,,,,blue,square
99.0,6.0,1.0,1.0,1.0,1.0,491.2128320002011,2.0,1.0,phase_1,,,,,,,,,,,,,yellow,cross
210.0,7.0,2.0,1.0,4.0,4.0,442.4739370001589,2.0,1.0,phase_1,,,,,,,,,,,,,orange,triangle
0.0,6.0,0.0,1.0,2.0,2.0,296.2421570000515,2.0,1.0,phase_1,,,,,,,,,,,,,yellow,cross
109.0,6.0,1.0,1.0,4.0,4.0,402.6385159995698,2.0,1.0,phase_1,,,,,,,,,,,,,yellow,cross
377.0,8.0,4.0,1.0,4.0,4.0,362.9967150000084,2.0,1.0,phase_1,,,,,,,,,,,,,blue,square
0.0,6.0,0.0,1.0,1.0,1.0,331.6126800000347,2.0,1.0,phase_1,,,,,,,,,,,,,yellow,cross
103.0,6.0,1.0,1.0,4.0,4.0,369.4167889998425,2.0,1.0,phase_1,,,,,,,,,,,,,yellow,cross
0.0,6.0,0.0,1.0,4.0,4.0,324.6247179999955,2.0,1.0,phase_1,,,,,,,,,,,,,yellow,cross
59.0,1.0,0.5,0.0,3.0,3.0,324.0070099996046,2.0,1.0,phase_1,,,,,,,,,,,,,white,hexagon
109.0,2.0,1.0,0.0,4.0,4.0,319.5567200000369,2.0,1.0,phase_1,,,,,,,,,,,,,cyan,diamond
197.0,3.0,2.0,0.0,2.0,2.0,314.9740199996813,2.0,1.0,phase_1,,,,,,,,,,,,,green,circle
423.0,4.0,4.0,0.0,4.0,4.0,293.3744900001329,2.0,1.0,phase_1,,,,,,,,,,,,,gray,I
0.0,5.0,0.0,1.0,1.0,1.0,323.2496509999691,2.0,1.0,phase_1,,,,,,,,,,,,,magenta,flipped triangle
391.0,8.0,4.0,1.0,4.0,4.0,294.4359600001007,2.0,1.0,phase_1,,,,,,,,,,,,,blue,square
0.0,2.0,0.0,0.0,1.0,1.0,298.4052990000236,2.0,1.0,phase_1,,,,,,,,,,,,,cyan,diamond
38.0,1.0,0.5,0.0,3.0,3.0,314.4019179999304,2.0,1.0,phase_1,,,,,,,,,,,,,white,hexagon
108.0,6.0,1.0,1.0,3.0,3.0,325.2433720003864,2.0,1.0,phase_1,,,,,,,,,,,,,yellow,cross
47.0,5.0,0.5,1.0,3.0,3.0,323.9471039996715,2.0,1.0,phase_1,,,,,,,,,,,,,magenta,flipped triangle
387.0,4.0,4.0,0.0,1.0,1.0,369.1785390001314,2.0,1.0,phase_1,,,,,,,,,,,,,gray,I
111.0,2.0,1.0,0.0,2.0,2.0,373.3298789998116,2.0,1.0,phase_1,,,,,,,,,,,,,cyan,diamond
198.0,7.0,2.0,1.0,1.0,1.0,365.8112180000898,2.0,1.0,phase_1,,,,,,,,,,,,,orange,triangle
108.0,2.0,1.0,0.0,2.0,2.0,302.4140299999089,2.0,1.0,phase_1,,,,,,,,,,,,,cyan,diamond
223.0,3.0,2.0,0.0,4.0,4.0,426.0803090000991,2.0,1.0,phase_1,,,,,,,,,,,,,green,circle
396.0,4.0,4.0,0.0,3.0,3.0,333.1851490002009,2.0,1.0,phase_1,,,,,,,,,,,,,gray,I
88.0,6.0,1.0,1.0,4.0,4.0,340.6635880000976,2.0,1.0,phase_1,,,,,,,,,,,,,yellow,cross
399.0,8.0,4.0,1.0,1.0,1.0,346.4302570000654,2.0,1.0,phase_1,,,,,,,,,,,,,blue,square
0.0,8.0,0.0,1.0,1.0,1.0,301.9770870000684,2.0,1.0,phase_1,,,,,,,,,,,,,blue,square
29.0,1.0,0.5,0.0,4.0,4.0,342.9292139999234,2.0,1.0,phase_1,,,,,,,,,,,,,white,hexagon
112.0,6.0,1.0,1.0,2.0,2.0,285.5607500000587,2.0,1.0,phase_1,,,,,,,,,,,,,yellow,cross
210.0,7.0,2.0,1.0,2.0,2.0,327.0671800000855,2.0,1.0,phase_1,,,,,,,,,,,,,orange,triangle
48.0,1.0,0.5,0.0,4.0,4.0,360.1408689996788,2.0,1.0,phase_1,,,,,,,,,,,,,white,hexagon
406.0,8.0,4.0,1.0,2.0,2.0,286.8888599996353,2.0,1.0,phase_1,,,,,,,,,,,,,blue,square
107.0,6.0,1.0,1.0,4.0,4.0,279.6494249996613,2.0,1.0,phase_1,,,,,,,,,,,,,yellow,cross
56.0,5.0,0.5,1.0,2.0,2.0,286.0919279996778,2.0,1.0,phase_1,,,,,,,,,,,,,magenta,flipped triangle
198.0,3.0,2.0,0.0,4.0,4.0,302.93537200032,2.0,1.0,phase_1,,,,,,,,,,,,,green,circle
26.0,1.0,0.5,0.0,1.0,1.0,337.1881490002124,2.0,1.0,phase_1,,,,,,,,,,,,,white,hexagon
82.0,2.0,1.0,0.0,2.0,2.0,241.1617669999941,2.0,1.0,phase_1,,,,,,,,,,,,,cyan,diamond
207.0,3.0,2.0,0.0,4.0,4.0,322.5176790001569,2.0,1.0,phase_1,,,,,,,,,,,,,green,circle
0.0,1.0,0.0,0.0,4.0,4.0,331.2371150000217,2.0,1.0,phase_1,,,,,,,,,,,,,white,hexagon
198.0,3.0,2.0,0.0,1.0,1.0,294.8747460000049,2.0,1.0,phase_1,,,,,,,,,,,,,green,circle
216.0,7.0,2.0,1.0,4.0,4.0,460.7868199996119,3.0,1.0,phase_1,,,,,,,,,,,,,orange,triangle
403.0,8.0,4.0,1.0,4.0,4.0,328.865830000268,3.0,1.0,phase_1,,,,,,,,,,,,,blue,square
76.0,2.0,1.0,0.0,4.0,4.0,319.274143000257,3.0,1.0,phase_1,,,,,,,,,,,,,cyan,diamond
92.0,6.0,1.0,1.0,3.0,3.0,337.3019679997924,3.0,1.0,phase_1,,,,,,,,,,,,,yellow,cross
77.0,6.0,1.0,1.0,4.0,4.0,284.3235469999854,3.0,1.0,phase_1,,,,,,,,,,,,,yellow,cross
0.0,5.0,0.0,1.0,3.0,3.0,314.5089569998163,3.0,1.0,phase_1,,,,,,,,,,,,,magenta,flipped triangle
67.0,5.0,0.5,1.0,3.0,3.0,339.445521000016,3.0,1.0,phase_1,,,,,,,,,,,,,magenta,flipped triangle
176.0,3.0,2.0,0.0,1.0,1.0,320.1117569997223,3.0,1.0,phase_1,,,,,,,,,,,,,green,circle
58.0,1.0,0.5,0.0,1.0,1.0,322.2750619997896,3.0,1.0,phase_1,,,,,,,,,,,,,white,hexagon
52.0,1.0,0.5,0.0,4.0,4.0,352.4575050000749,3.0,1.0,phase_1,,,,,,,,,,,,,white,hexagon
180.0,7.0,2.0,1.0,1.0,1.0,317.5335640003141,3.0,1.0,phase_1,,,,,,,,,,,,,orange,triangle
0.0,2.0,0.0,0.0,4.0,4.0,319.1095520000999,3.0,1.0,phase_1,,,,,,,,,,,,,cyan,diamond
424.0,8.0,4.0,1.0,4.0,4.0,340.5248849999225,3.0,1.0,phase_1,,,,,,,,,,,,,blue,square
410.0,8.0,4.0,1.0,2.0,2.0,354.2904620003355,3.0,1.0,phase_1,,,,,,,,,,,,,blue,square
406.0,4.0,4.0,0.0,3.0,3.0,371.0431489998882,3.0,1.0,phase_1,,,,,,,,,,,,,gray,I
396.0,4.0,4.0,0.0,1.0,1.0,323.1612129998211,3.0,1.0,phase_1,,,,,,,,,,,,,gray,I
179.0,3.0,2.0,0.0,1.0,1.0,321.9811569997546,3.0,1.0,phase_1,,,,,,,,,,,,,green,circle
220.0,3.0,2.0,0.0,4.0,4.0,337.4493169999368,3.0,1.0,phase_1,,,,,,,,,,,,,green,circle
407.0,8.0,4.0,1.0,4.0,4.0,365.3024150003148,3.0,1.0,phase_1,,,,,,,,,,,,,blue,square
223.0,3.0,2.0,0.0,3.0,3.0,326.4398080000319,3.0,1.0,phase_1,,,,,,,,,,,,,green,circle
216.0,3.0,2.0,0.0,2.0,2.0,340.7810270000482,3.0,1.0,phase_1,,,,,,,,,,,,,green,circle
0.0,8.0,0.0,1.0,3.0,3.0,486.0253349997947,3.0,1.0,phase_1,,,,,,,,,,,,,blue,square
398.0,4.0,4.0,0.0,3.0,3.0,321.2900379999155,3.0,1.0,phase_1,,,,,,,,,,,,,gray,I
114.0,6.0,1.0,1.0,1.0,1.0,343.4386359999735,3.0,1.0,phase_1,,,,,,,,,,,,,yellow,cross
421.0,8.0,4.0,1.0,2.0,2.0,334.4272069998624,3.0,1.0,phase_1,,,,,,,,,,,,,blue,square
423.0,8.0,4.0,1.0,3.0,3.0,335.7673129999057,3.0,1.0,phase_1,,,,,,,,,,,,,blue,square
217.0,7.0,2.0,1.0,2.0,2.0,263.0891779999729,3.0,1.0,phase_1,,,,,,,,,,,,,orange,triangle
387.0,8.0,4.0,1.0,2.0,2.0,311.5888020001875,3.0,1.0,phase_1,,,,,,,,,,,,,blue,square
58.0,1.0,0.5,0.0,2.0,2.0,317.5128739999309,3.0,1.0,phase_1,,,,,,,,,,,,,white,hexagon
418.0,4.0,4.0,0.0,2.0,2.0,311.97204099999,3.0,1.0,phase_1,,,,,,,,,,,,,gray,I
411.0,8.0,4.0,1.0,4.0,4.0,441.2270210000315,3.0,1.0,phase_1,,,,,,,,,,,,,blue,square
375.0,4.0,4.0,0.0,4.0,4.0,370.2542319997519,3.0,1.0,phase_1,,,,,,,,,,,,,gray,I
400.0,8.0,4.0,1.0,3.0,3.0,329.5799679999618,3.0,1.0,phase_1,,,,,,,,,,,,,blue,square
377.0,4.0,4.0,0.0,3.0,3.0,331.2406289996943,3.0,1.0,phase_1,,,,,,,,,,,,,gray,I
0.0,5.0,0.0,1.0,2.0,2.0,258.4678509997502,3.0,1.0,phase_1,,,,,,,,,,,,,magenta,flipped triangle
409.0,8.0,4.0,1.0,3.0,3.0,327.9733640001723,3.0,1.0,phase_1,,,,,,,,,,,,,blue,square
383.0,4.0,4.0,0.0,1.0,1.0,337.0129029999589,3.0,1.0,phase_1,,,,,,,,,,,,,gray,I
382.0,8.0,4.0,1.0,3.0,3.0,458.5364250001476,3.0,1.0,phase_1,,,,,,,,,,,,,blue,square
73.0,5.0,0.5,1.0,4.0,4.0,329.8817169998074,3.0,1.0,phase_1,,,,,,,,,,,,,magenta,flipped triangle
92.0,2.0,1.0,0.0,2.0,2.0,284.0124280000964,3.0,1.0,phase_1,,,,,,,,,,,,,cyan,diamond
69.0,5.0,0.5,1.0,2.0,2.0,461.3541600001554,3.0,1.0,phase_1,,,,,,,,,,,,,magenta,flipped triangle
214.0,7.0,2.0,1.0,4.0,4.0,312.0958859999518,3.0,1.0,phase_1,,,,,,,,,,,,,orange,triangle
83.0,6.0,1.0,1.0,3.0,3.0,297.6673049997771,3.0,1.0,phase_1,,,,,,,,,,,,,yellow,cross
0.0,7.0,0.0,1.0,2.0,2.0,284.5444989998213,3.0,1.0,phase_1,,,,,,,,,,,,,orange,triangle
419.0,4.0,4.0,0.0,3.0,3.0,282.6276269997834,3.0,1.0,phase_1,,,,,,,,,,,,,gray,I
117.0,6.0,1.0,1.0,1.0,1.0,363.6728289998245,3.0,1.0,phase_1,,,,,,,,,,,,,yellow,cross
205.0,7.0,2.0,1.0,1.0,1.0,337.4813760001416,3.0,1.0,phase_1,,,,,,,,,,,,,orange,triangle
411.0,4.0,4.0,0.0,2.0,2.0,299.7549310002796,3.0,1.0,phase_1,,,,,,,,,,,,,gray,I
0.0,3.0,0.0,0.0,2.0,2.0,276.9144029998642,3.0,1.0,phase_1,,,,,,,,,,,,,green,circle
392.0,4.0,4.0,0.0,2.0,2.0,327.1941150001112,3.0,1.0,phase_1,,,,,,,,,,,,,gray,I
104.0,2.0,1.0,0.0,4.0,4.0,405.9989570000653,3.0,1.0,phase_1,,,,,,,,,,,,,cyan,diamond
121.0,6.0,1.0,1.0,1.0,1.0,337.2880120000445,3.0,1.0,phase_1,,,,,,,,,,,,,yellow,cross
184.0,3.0,2.0,0.0,2.0,2.0,281.5000790001249,3.0,1.0,phase_1,,,,,,,,,,,,,green,circle
394.0,4.0,4.0,0.0,2.0,2.0,326.4443559996834,3.0,1.0,phase_1,,,,,,,,,,,,,gray,I
117.0,6.0,1.0,1.0,3.0,3.0,372.6491170000372,3.0,1.0,phase_1,,,,,,,,,,,,,yellow,cross
0.0,2.0,0.0,0.0,2.0,2.0,271.3073830000212,3.0,1.0,phase_1,,,,,,,,,,,,,cyan,diamond
112.0,6.0,1.0,1.0,4.0,4.0,327.6253170001837,3.0,1.0,phase_1,,,,,,,,,,,,,yellow,cross
38.0,5.0,0.5,1.0,3.0,3.0,313.7144090001129,3.0,1.0,phase_1,,,,,,,,,,,,,magenta,flipped triangle
423.0,4.0,4.0,0.0,2.0,2.0,274.8202769998897,3.0,1.0,phase_1,,,,,,,,,,,,,gray,I
0.0,1.0,0.0,0.0,3.0,3.0,588.9903850002156,3.0,1.0,phase_1,,,,,,,,,,,,,white,hexagon
67.0,5.0,0.5,1.0,4.0,4.0,331.9338619999143,3.0,1.0,phase_1,,,,,,,,,,,,,magenta,flipped triangle
390.0,4.0,4.0,0.0,1.0,1.0,311.5877449999971,3.0,1.0,phase_1,,,,,,,,,,,,,gray,I
182.0,3.0,2.0,0.0,1.0,1.0,355.2173819998643,3.0,1.0,phase_1,,,,,,,,,,,,,green,circle
0.0,1.0,0.0,0.0,2.0,2.0,299.901342999874,3.0,1.0,phase_1,,,,,,,,,,,,,white,hexagon
58.0,1.0,0.5,0.0,2.0,2.0,337.4858010001844,3.0,1.0,phase_1,,,,,,,,,,,,,white,hexagon
97.0,2.0,1.0,0.0,1.0,1.0,334.718305000024,3.0,1.0,phase_1,,,,,,,,,,,,,cyan,diamond
72.0,5.0,0.5,1.0,1.0,1.0,282.7636060001168,3.0,1.0,phase_1,,,,,,,,,,,,,magenta,flipped triangle
53.0,1.0,0.5,0.0,1.0,1.0,285.4917489999025,3.0,1.0,phase_1,,,,,,,,,,,,,white,hexagon
0.0,5.0,0.0,1.0,1.0,1.0,265.9459559999959,3.0,1.0,phase_1,,,,,,,,,,,,,magenta,flipped triangle
0.0,8.0,0.0,1.0,3.0,3.0,324.5206560000042,3.0,1.0,phase_1,,,,,,,,,,,,,blue,square
117.0,6.0,1.0,1.0,4.0,4.0,327.22565999984,3.0,1.0,phase_1,,,,,,,,,,,,,yellow,cross
419.0,8.0,4.0,1.0,2.0,2.0,246.0099490003813,3.0,1.0,phase_1,,,,,,,,,,,,,blue,square
377.0,4.0,4.0,0.0,3.0,3.0,312.5584819999858,3.0,1.0,phase_1,,,,,,,,,,,,,gray,I
223.0,7.0,2.0,1.0,4.0,4.0,323.2855649998782,3.0,1.0,phase_1,,,,,,,,,,,,,orange,triangle
103.0,2.0,1.0,0.0,4.0,4.0,293.9131770003769,3.0,1.0,phase_1,,,,,,,,,,,,,cyan,diamond
216.0,7.0,2.0,1.0,3.0,3.0,275.1821639999434,3.0,1.0,phase_1,,,,,,,,,,,,,orange,triangle
383.0,8.0,4.0,1.0,1.0,1.0,312.3124589997132,3.0,1.0,phase_1,,,,,,,,,,,,,blue,square
419.0,8.0,4.0,1.0,1.0,1.0,306.9428179996976,3.0,1.0,phase_1,,,,,,,,,,,,,blue,square
215.0,3.0,2.0,0.0,3.0,3.0,284.942022999985,3.0,1.0,phase_1,,,,,,,,,,,,,green,circle
0.0,5.0,0.0,1.0,3.0,3.0,338.2423749999361,3.0,1.0,phase_1,,,,,,,,,,,,,magenta,flipped triangle
38.0,5.0,0.5,1.0,1.0,1.0,298.2078189997992,3.0,1.0,phase_1,,,,,,,,,,,,,magenta,flipped triangle
0.0,4.0,0.0,0.0,3.0,3.0,376.7982169997594,3.0,1.0,phase_1,,,,,,,,,,,,,gray,I
29.0,1.0,0.5,0.0,2.0,2.0,279.2402119998769,3.0,1.0,phase_1,,,,,,,,,,,,,white,hexagon
377.0,8.0,4.0,1.0,4.0,4.0,405.3606150000632,3.0,1.0,phase_1,,,,,,,,,,,,,blue,square
418.0,8.0,4.0,1.0,4.0,4.0,309.646450999935,3.0,1.0,phase_1,,,,,,,,,,,,,blue,square
98.0,6.0,1.0,1.0,4.0,4.0,331.8647700002657,3.0,1.0,phase_1,,,,,,,,,,,,,yellow,cross
201.0,7.0,2.0,1.0,4.0,4.0,299.6324759997151,3.0,1.0,phase_1,,,,,,,,,,,,,orange,triangle
222.0,3.0,2.0,0.0,1.0,1.0,293.193871999847,3.0,1.0,phase_1,,,,,,,,,,,,,green,circle
198.0,7.0,2.0,1.0,2.0,2.0,332.9595629998039,3.0,1.0,phase_1,,,,,,,,,,,,,orange,triangle
40.0,1.0,0.5,0.0,4.0,4.0,355.2019459998519,3.0,1.0,phase_1,,,,,,,,,,,,,white,hexagon
397.0,8.0,4.0,1.0,2.0,2.0,319.5416739999928,3.0,1.0,phase_1,,,,,,,,,,,,,blue,square
0.0,8.0,0.0,1.0,4.0,4.0,349.4704459999411,3.0,1.0,phase_1,,,,,,,,,,,,,blue,square
222.0,7.0,2.0,1.0,4.0,4.0,326.3602160000118,3.0,1.0,phase_1,,,,,,,,,,,,,orange,triangle
61.0,1.0,0.5,0.0,4.0,4.0,305.2520809997077,3.0,1.0,phase_1,,,,,,,,,,,,,white,hexagon
33.0,1.0,0.5,0.0,1.0,1.0,322.8964750001069,3.0,1.0,phase_1,,,,,,,,,,,,,white,hexagon
0.0,3.0,0.0,0.0,4.0,4.0,339.3221659998744,3.0,1.0,phase_1,,,,,,,,,,,,,green,circle
0.0,4.0,0.0,0.0,3.0,3.0,340.1786600002197,3.0,1.0,phase_1,,,,,,,,,,,,,gray,I
58.0,5.0,0.5,1.0,3.0,3.0,293.9375880000625,3.0,1.0,phase_1,,,,,,,,,,,,,magenta,flipped triangle
47.0,1.0,0.5,0.0,4.0,4.0,325.3051749998121,3.0,1.0,phase_1,,,,,,,,,,,,,white,hexagon
406.0,8.0,4.0,1.0,1.0,1.0,327.0370019999973,3.0,1.0,phase_1,,,,,,,,,,,,,blue,square
103.0,6.0,1.0,1.0,2.0,2.0,384.640533000038,4.0,1.0,phase_1,,,,,,,,,,,,,yellow,cross
111.0,6.0,1.0,1.0,1.0,1.0,263.3123959999466,4.0,1.0,phase_1,,,,,,,,,,,,,yellow,cross
194.0,3.0,2.0,0.0,2.0,2.0,279.2069329998412,4.0,1.0,phase_1,,,,,,,,,,,,,green,circle
223.0,7.0,2.0,1.0,3.0,3.0,351.2625800003661,4.0,1.0,phase_1,,,,,,,,,,,,,orange,triangle
0.0,2.0,0.0,0.0,1.0,1.0,399.8650890002864,4.0,1.0,phase_1,,,,,,,,,,,,,cyan,diamond
392.0,4.0,4.0,0.0,4.0,4.0,590.6918740001856,4.0,1.0,phase_1,,,,,,,,,,,,,gray,I
186.0,3.0,2.0,0.0,4.0,4.0,307.6641879997623,4.0,1.0,phase_1,,,,,,,,,,,,,green,circle
32.0,5.0,0.5,1.0,2.0,2.0,316.3244080001277,4.0,1.0,phase_1,,,,,,,,,,,,,magenta,flipped triangle
73.0,1.0,0.5,0.0,1.0,1.0,292.1288679999634,4.0,1.0,phase_1,,,,,,,,,,,,,white,hexagon
46.0,5.0,0.5,1.0,3.0,3.0,283.5064599998986,4.0,1.0,phase_1,,,,,,,,,,,,,magenta,flipped triangle
58.0,5.0,0.5,1.0,1.0,1.0,273.5214700001052,4.0,1.0,phase_1,,,,,,,,,,,,,magenta,flipped triangle
419.0,4.0,4.0,0.0,2.0,2.0,290.1781270002175,4.0,1.0,phase_1,,,,,,,,,,,,,gray,I
0.0,1.0,0.0,0.0,1.0,1.0,275.7689039999604,4.0,1.0,phase_1,,,,,,,,,,,,,white,hexagon
0.0,6.0,0.0,1.0,3.0,3.0,311.5829600001234,4.0,1.0,phase_1,,,,,,,,,,,,,yellow,cross
66.0,1.0,0.5,0.0,4.0,4.0,278.8320600002407,4.0,1.0,phase_1,,,,,,,,,,,,,white,hexagon
0.0,2.0,0.0,0.0,3.0,3.0,369.7708439999587,4.0,1.0,phase_1,,,,,,,,,,,,,cyan,diamond
0.0,2.0,0.0,0.0,2.0,2.0,268.9477760000045,4.0,1.0,phase_1,,,,,,,,,,,,,cyan,diamond
0.0,8.0,0.0,1.0,4.0,4.0,289.2294369999035,4.0,1.0,phase_1,,,,,,,,,,,,,blue,square
110.0,6.0,1.0,1.0,1.0,1.0,278.2383130002017,4.0,1.0,phase_1,,,,,,,,,,,,,yellow,cross
201.0,3.0,2.0,0.0,4.0,4.0,340.4781780000121,4.0,2.0,phase_1,,,,,,,,,,,,,green,circle
180.0,3.0,2.0,0.0,3.0,3.0,280.1339149996238,4.0,1.0,phase_1,,,,,,,,,,,,,green,circle
88.0,2.0,1.0,0.0,2.0,2.0,297.3216220002541,4.0,1.0,phase_1,,,,,,,,,,,,,cyan,diamond
0.0,1.0,0.0,0.0,4.0,4.0,282.3570540003857,4.0,1.0,phase_1,,,,,,,,,,,,,white,hexagon
195.0,7.0,2.0,1.0,1.0,1.0,316.8606200001704,4.0,1.0,phase_1,,,,,,,,,,,,,orange,triangle
205.0,3.0,2.0,0.0,3.0,3.0,312.1643370000129,4.0,1.0,phase_1,,,,,,,,,,,,,green,circle
41.0,5.0,0.5,1.0,4.0,4.0,374.186045999977,4.0,1.0,phase_1,,,,,,,,,,,,,magenta,flipped triangle
107.0,2.0,1.0,0.0,4.0,4.0,340.9684349999224,4.0,1.0,phase_1,,,,,,,,,,,,,cyan,diamond
0.0,7.0,0.0,1.0,1.0,1.0,280.757671000174,4.0,1.0,phase_1,,,,,,,,,,,,,orange,triangle
0.0,2.0,0.0,0.0,4.0,4.0,274.2236280000725,4.0,1.0,phase_1,,,,,,,,,,,,,cyan,diamond
100.0,6.0,1.0,1.0,2.0,2.0,307.4324180001895,4.0,1.0,phase_1,,,,,,,,,,,,,yellow,cross
80.0,6.0,1.0,1.0,2.0,2.0,323.9908320001632,4.0,1.0,phase_1,,,,,,,,,,,,,yellow,cross
52.0,5.0,0.5,1.0,3.0,3.0,310.2550500002508,4.0,1.0,phase_1,,,,,,,,,,,,,magenta,flipped triangle
117.0,2.0,1.0,0.0,1.0,1.0,302.7434900000116,4.0,1.0,phase_1,,,,,,,,,,,,,cyan,diamond
72.0,5.0,0.5,1.0,1.0,1.0,307.5511970000661,4.0,1.0,phase_1,,,,,,,,,,,,,magenta,flipped triangle
59.0,5.0,0.5,1.0,4.0,4.0,373.246533999918,4.0,1.0,phase_1,,,,,,,,,,,,,magenta,flipped triangle
420.0,4.0,4.0,0.0,3.0,3.0,338.2067929996992,4.0,1.0,phase_1,,,,,,,,,,,,,gray,I
82.0,6.0,1.0,1.0,2.0,2.0,419.0376340002331,4.0,1.0,phase_1,,,,,,,,,,,,,yellow,cross
67.0,1.0,0.5,0.0,2.0,2.0,309.8780590003116,4.0,1.0,phase_1,,,,,,,,,,,,,white,hexagon
100.0,2.0,1.0,0.0,3.0,3.0,288.230558000123,4.0,1.0,phase_1,,,,,,,,,,,,,cyan,diamond
216.0,3.0,2.0,0.0,1.0,1.0,314.7016269999767,4.0,1.0,phase_1,,,,,,,,,,,,,green,circle
409.0,4.0,4.0,0.0,1.0,1.0,330.8484070003032,4.0,1.0,phase_1,,,,,,,,,,,,,gray,I
0.0,3.0,0.0,0.0,2.0,2.0,282.3003299999982,4.0,1.0,phase_1,,,,,,,,,,,,,green,circle
31.0,1.0,0.5,0.0,2.0,2.0,271.5136609999717,4.0,1.0,phase_1,,,,,,,,,,,,,white,hexagon
0.0,3.0,0.0,0.0,3.0,3.0,258.2989319998887,4.0,1.0,phase_1,,,,,,,,,,,,,green,circle
382.0,8.0,4.0,1.0,3.0,3.0,328.0174609999449,4.0,1.0,phase_1,,,,,,,,,,,,,blue,square
199.0,3.0,2.0,0.0,2.0,2.0,338.5591010001008,4.0,1.0,phase_1,,,,,,,,,,,,,green,circle
53.0,1.0,0.5,0.0,3.0,3.0,309.1860430004089,4.0,1.0,phase_1,,,,,,,,,,,,,white,hexagon
0.0,8.0,0.0,1.0,2.0,2.0,258.907808999993,4.0,1.0,phase_1,,,,,,,,,,,,,blue,square
88.0,2.0,1.0,0.0,4.0,4.0,372.0726199999262,4.0,1.0,phase_1,,,,,,,,,,,,,cyan,diamond
396.0,8.0,4.0,1.0,1.0,1.0,367.3893410000346,4.0,1.0,phase_1,,,,,,,,,,,,,blue,square
0.0,1.0,0.0,0.0,4.0,4.0,333.6579210003947,4.0,1.0,phase_1,,,,,,,,,,,,,white,hexagon
72.0,1.0,0.5,0.0,1.0,1.0,322.0846150002217,4.0,1.0,phase_1,,,,,,,,,,,,,white,hexagon
382.0,4.0,4.0,0.0,1.0,1.0,333.4400459998505,4.0,1.0,phase_1,,,,,,,,,,,,,gray,I
184.0,7.0,2.0,1.0,3.0,3.0,326.4625519996116,4.0,1.0,phase_1,,,,,,,,,,,,,orange,triangle
0.0,1.0,0.0,0.0,1.0,1.0,309.7313040002518,4.0,1.0,phase_1,,,,,,,,,,,,,white,hexagon
410.0,8.0,4.0,1.0,4.0,4.0,326.0997219999808,4.0,1.0,phase_1,,,,,,,,,,,,,blue,square
400.0,4.0,4.0,0.0,3.0,3.0,329.6816410002066,4.0,1.0,phase_1,,,,,,,,,,,,,gray,I
200.0,7.0,2.0,1.0,2.0,2.0,293.942557000264,4.0,1.0,phase_1,,,,,,,,,,,,,orange,triangle
199.0,7.0,2.0,1.0,3.0,3.0,312.5676469999234,4.0,1.0,phase_1,,,,,,,,,,,,,orange,triangle
110.0,2.0,1.0,0.0,1.0,1.0,291.7959600003996,4.0,1.0,phase_1,,,,,,,,,,,,,cyan,diamond
0.0,4.0,0.0,0.0,2.0,2.0,280.683394999869,4.0,1.0,phase_1,,,,,,,,,,,,,gray,I
0.0,5.0,0.0,1.0,4.0,4.0,303.5107340001559,4.0,1.0,phase_1,,,,,,,,,,,,,magenta,flipped triangle
182.0,3.0,2.0,0.0,3.0,3.0,338.2086520000484,4.0,1.0,phase_1,,,,,,,,,,,,,green,circle
425.0,4.0,4.0,0.0,4.0,4.0,341.4445379999051,4.0,1.0,phase_1,,,,,,,,,,,,,gray,I
0.0,7.0,0.0,1.0,2.0,2.0,329.1195619999598,4.0,1.0,phase_1,,,,,,,,,,,,,orange,triangle
0.0,6.0,0.0,1.0,3.0,3.0,259.4862279997869,4.0,1.0,phase_1,,,,,,,,,,,,,yellow,cross
397.0,4.0,4.0,0.0,2.0,2.0,329.449502999978,4.0,1.0,phase_1,,,,,,,,,,,,,gray,I
121.0,2.0,1.0,0.0,1.0,1.0,328.935809000086,4.0,1.0,phase_1,,,,,,,,,,,,,cyan,diamond
195.0,3.0,2.0,0.0,2.0,2.0,292.4131830000078,4.0,1.0,phase_1,,,,,,,,,,,,,green,circle
48.0,1.0,0.5,0.0,3.0,3.0,246.8129629996838,4.0,1.0,phase_1,,,,,,,,,,,,,white,hexagon
53.0,5.0,0.5,1.0,2.0,2.0,286.118057999829,4.0,1.0,phase_1,,,,,,,,,,,,,magenta,flipped triangle
375.0,8.0,4.0,1.0,3.0,3.0,323.3006919999752,4.0,1.0,phase_1,,,,,,,,,,,,,blue,square
395.0,4.0,4.0,0.0,1.0,1.0,336.123741999927,4.0,1.0,phase_1,,,,,,,,,,,,,gray,I
0.0,8.0,0.0,1.0,1.0,1.0,340.3069020000657,4.0,1.0,phase_1,,,,,,,,,,,,,blue,square
0.0,4.0,0.0,0.0,3.0,3.0,488.1121070002336,4.0,1.0,phase_1,,,,,,,,,,,,,gray,I
176.0,7.0,2.0,1.0,2.0,2.0,273.7120470001173,4.0,1.0,phase_1,,,,,,,,,,,,,orange,triangle
0.0,3.0,0.0,0.0,3.0,3.0,278.9823830003115,4.0,1.0,phase_1,,,,,,,,,,,,,green,circle
402.0,4.0,4.0,0.0,4.0,4.0,359.1795470001671,4.0,1.0,phase_1,,,,,,,,,,,,,gray,I
210.0,3.0,2.0,0.0,1.0,1.0,344.8248390000117,4.0,1.0,phase_1,,,,,,,,,,,,,green,circle
79.0,6.0,1.0,1.0,2.0,2.0,275.5470050001349,4.0,1.0,phase_1,,,,,,,,,,,,,yellow,cross
382.0,4.0,4.0,0.0,1.0,1.0,323.7723999995978,4.0,1.0,phase_1,,,,,,,,,,,,,gray,I
94.0,6.0,1.0,1.0,2.0,2.0,285.7939509999596,4.0,1.0,phase_1,,,,,,,,,,,,,yellow,cross
400.0,8.0,4.0,1.0,2.0,2.0,317.3094089997903,4.0,1.0,phase_1,,,,,,,,,,,,,blue,square
200.0,3.0,2.0,0.0,2.0,2.0,335.8776689997285,4.0,1.0,phase_1,,,,,,,,,,,,,green,circle
65.0,5.0,0.5,1.0,3.0,3.0,284.8649279999335,4.0,1.0,phase_1,,,,,,,,,,,,,magenta,flipped triangle
96.0,6.0,1.0,1.0,3.0,3.0,321.7923480001445,4.0,1.0,phase_1,,,,,,,,,,,,,yellow,cross
400.0,4.0,4.0,0.0,1.0,1.0,340.4583520000415,4.0,1.0,phase_1,,,,,,,,,,,,,gray,I
0.0,4.0,0.0,0.0,1.0,1.0,354.0527779996409,4.0,1.0,phase_1,,,,,,,,,,,,,gray,I
72.0,1.0,0.5,0.0,2.0,2.0,264.7879460000695,4.0,1.0,phase_1,,,,,,,,,,,,,white,hexagon
41.0,1.0,0.5,0.0,2.0,2.0,291.3553250000404,4.0,1.0,phase_1,,,,,,,,,,,,,white,hexagon
95.0,6.0,1.0,1.0,2.0,2.0,296.4756979999947,4.0,1.0,phase_1,,,,,,,,,,,,,yellow,cross
53.0,5.0,0.5,1.0,4.0,4.0,498.5729420000098,4.0,1.0,phase_1,,,,,,,,,,,,,magenta,flipped triangle
205.0,3.0,2.0,0.0,2.0,2.0,365.1331199998822,4.0,1.0,phase_1,,,,,,,,,,,,,green,circle
31.0,5.0,0.5,1.0,2.0,2.0,315.4783600002702,4.0,1.0,phase_1,,,,,,,,,,,,,magenta,flipped triangle
38.0,1.0,0.5,0.0,1.0,1.0,327.0179439996354,4.0,1.0,phase_1,,,,,,,,,,,,,white,hexagon
97.0,6.0,1.0,1.0,3.0,3.0,356.0714430000189,4.0,1.0,phase_1,,,,,,,,,,,,,yellow,cross
186.0,7.0,2.0,1.0,1.0,1.0,348.1929800000216,4.0,1.0,phase_1,,,,,,,,,,,,,orange,triangle
0.0,7.0,0.0,1.0,1.0,1.0,325.2155899999707,4.0,1.0,phase_1,,,,,,,,,,,,,orange,triangle
406.0,4.0,4.0,0.0,4.0,4.0,423.330729999634,4.0,1.0,phase_1,,,,,,,,,,,,,gray,I
77.0,2.0,1.0,0.0,4.0,4.0,430.2045320000616,4.0,1.0,phase_1,,,,,,,,,,,,,cyan,diamond
0.0,7.0,2.0,1.0,6.0,0.0,0.0,1.0,1.0,phase_2,stop,250.0,250.0,4.0,,,,,,,,,orange,triangle
0.0,3.0,2.0,0.0,5.0,5.0,516.0862500001713,1.0,1.0,phase_2,go,250.0,300.0,1.0,,,,,,,,,green,circle
0.0,5.0,0.5,1.0,5.0,0.0,0.0,1.0,1.0,phase_2,stop,250.0,300.0,4.0,,,,,,,,,magenta,flipped triangle
0.0,2.0,1.0,0.0,5.0,5.0,517.1847139999954,1.0,1.0,phase_2,go,300.0,300.0,1.0,,,,,,,,,cyan,diamond
0.0,8.0,4.0,1.0,5.0,5.0,437.0537340000737,1.0,1.0,phase_2,stop,300.0,300.0,3.0,,,,,,,,,blue,square
0.0,5.0,0.5,1.0,5.0,5.0,678.4142970000175,1.0,1.0,phase_2,go,250.0,300.0,1.0,,,,,,,,,magenta,flipped triangle
0.0,7.0,2.0,1.0,6.0,0.0,0.0,1.0,1.0,phase_2,stop,250.0,300.0,4.0,,,,,,,,,orange,triangle
0.0,3.0,2.0,0.0,5.0,5.0,823.9470789999359,1.0,1.0,phase_2,go,250.0,350.0,1.0,,,,,,,,,green,circle
0.0,7.0,2.0,1.0,5.0,0.0,0.0,1.0,1.0,phase_2,stop,250.0,350.0,4.0,,,,,,,,,orange,triangle
0.0,8.0,4.0,1.0,6.0,0.0,0.0,1.0,1.0,phase_2,stop,300.0,350.0,4.0,,,,,,,,,blue,square
0.0,2.0,1.0,0.0,6.0,6.0,657.8549209998528,1.0,1.0,phase_2,go,300.0,400.0,1.0,,,,,,,,,cyan,diamond
0.0,6.0,1.0,1.0,6.0,6.0,779.5858679996854,1.0,1.0,phase_2,go,300.0,400.0,1.0,,,,,,,,,yellow,cross
0.0,1.0,0.5,0.0,5.0,5.0,643.4369569997216,1.0,1.0,phase_2,go,300.0,400.0,1.0,,,,,,,,,white,hexagon
0.0,3.0,2.0,0.0,6.0,6.0,741.4083920002668,1.0,1.0,phase_2,go,300.0,400.0,1.0,,,,,,,,,green,circle
0.0,7.0,2.0,1.0,5.0,5.0,747.5280510002449,1.0,1.0,phase_2,go,300.0,400.0,1.0,,,,,,,,,orange,triangle
0.0,7.0,2.0,1.0,5.0,0.0,0.0,1.0,1.0,phase_2,stop,300.0,400.0,4.0,,,,,,,,,orange,triangle
0.0,6.0,1.0,1.0,6.0,0.0,0.0,1.0,1.0,phase_2,stop,350.0,400.0,4.0,,,,,,,,,yellow,cross
0.0,8.0,4.0,1.0,6.0,0.0,0.0,1.0,1.0,phase_2,stop,350.0,450.0,4.0,,,,,,,,,blue,square
0.0,1.0,0.5,0.0,5.0,5.0,690.5784710002081,1.0,1.0,phase_2,go,350.0,500.0,1.0,,,,,,,,,white,hexagon
0.0,6.0,1.0,1.0,5.0,0.0,0.0,1.0,1.0,phase_2,stop,350.0,500.0,4.0,,,,,,,,,yellow,cross
0.0,5.0,0.5,1.0,6.0,6.0,610.2081669996551,1.0,1.0,phase_2,stop,400.0,500.0,3.0,,,,,,,,,magenta,flipped triangle
0.0,3.0,2.0,0.0,5.0,5.0,883.7139480001497,1.0,1.0,phase_2,go,400.0,450.0,1.0,,,,,,,,,green,circle
0.0,8.0,4.0,1.0,6.0,0.0,0.0,1.0,1.0,phase_2,stop,400.0,450.0,4.0,,,,,,,,,blue,square
0.0,3.0,2.0,0.0,5.0,5.0,727.9303710001841,1.0,1.0,phase_2,go,400.0,500.0,1.0,,,,,,,,,green,circle
0.0,4.0,4.0,0.0,5.0,5.0,765.4566860001069,1.0,1.0,phase_2,go,400.0,500.0,1.0,,,,,,,,,gray,I
0.0,2.0,1.0,0.0,5.0,5.0,865.0689490000332,1.0,1.0,phase_2,go,400.0,500.0,1.0,,,,,,,,,cyan,diamond
0.0,5.0,0.5,1.0,5.0,5.0,719.476081999801,1.0,1.0,phase_2,go,400.0,500.0,1.0,,,,,,,,,magenta,flipped triangle
0.0,6.0,1.0,1.0,6.0,0.0,0.0,1.0,1.0,phase_2,stop,400.0,500.0,4.0,,,,,,,,,yellow,cross
0.0,7.0,2.0,1.0,6.0,0.0,0.0,1.0,1.0,phase_2,stop,400.0,550.0,4.0,,,,,,,,,orange,triangle
0.0,2.0,1.0,0.0,5.0,5.0,728.506918000221,1.0,1.0,phase_2,go,400.0,600.0,1.0,,,,,,,,,cyan,diamond
0.0,1.0,0.5,0.0,5.0,5.0,683.7397079998482,1.0,1.0,phase_2,go,400.0,600.0,1.0,,,,,,,,,white,hexagon
0.0,3.0,2.0,0.0,5.0,5.0,904.752685999938,1.0,1.0,phase_2,go,400.0,600.0,1.0,,,,,,,,,green,circle
0.0,8.0,4.0,1.0,5.0,5.0,895.5928979999044,1.0,1.0,phase_2,go,400.0,600.0,1.0,,,,,,,,,blue,square
0.0,5.0,0.5,1.0,5.0,0.0,0.0,1.0,1.0,phase_2,stop,400.0,600.0,4.0,,,,,,,,,magenta,flipped triangle
0.0,5.0,0.5,1.0,6.0,6.0,960.4462399997828,1.0,1.0,phase_2,go,450.0,600.0,1.0,,,,,,,,,magenta,flipped triangle
0.0,6.0,1.0,1.0,6.0,6.0,1038.741779000247,1.0,1.0,phase_2,go,450.0,600.0,1.0,,,,,,,,,yellow,cross
0.0,4.0,4.0,0.0,5.0,5.0,747.2398099998827,2.0,1.0,phase_2,go,450.0,600.0,1.0,,,,,,,,,gray,I
0.0,3.0,2.0,0.0,6.0,6.0,511.69905599999765,2.0,1.0,phase_2,go,450.0,600.0,1.0,,,,,,,,,green,circle
0.0,5.0,0.5,1.0,5.0,5.0,488.4116449998146,2.0,1.0,phase_2,stop,450.0,600.0,3.0,,,,,,,,,magenta,flipped triangle
0.0,1.0,0.5,0.0,5.0,5.0,321.974143999796,2.0,1.0,phase_2,go,400.0,600.0,1.0,,,,,,,,,white,hexagon
0.0,5.0,0.5,1.0,6.0,6.0,534.1216090000671,2.0,1.0,phase_2,stop,400.0,600.0,3.0,,,,,,,,,magenta,flipped triangle
0.0,5.0,0.5,1.0,5.0,5.0,643.4233660002064,2.0,1.0,phase_2,go,400.0,550.0,1.0,,,,,,,,,magenta,flipped triangle
0.0,4.0,4.0,0.0,5.0,5.0,645.7373839998581,2.0,1.0,phase_2,go,400.0,550.0,1.0,,,,,,,,,gray,I
0.0,1.0,0.5,0.0,5.0,5.0,595.5420850000337,2.0,1.0,phase_2,go,400.0,550.0,1.0,,,,,,,,,white,hexagon
0.0,4.0,4.0,0.0,5.0,5.0,783.930521000002,2.0,1.0,phase_2,go,400.0,550.0,1.0,,,,,,,,,gray,I
0.0,8.0,4.0,1.0,6.0,6.0,460.1174969998283,2.0,1.0,phase_2,stop,400.0,550.0,3.0,,,,,,,,,blue,square
0.0,8.0,4.0,1.0,5.0,0.0,0.0,2.0,1.0,phase_2,stop,400.0,500.0,4.0,,,,,,,,,blue,square
0.0,4.0,4.0,0.0,5.0,5.0,641.430691000096,2.0,1.0,phase_2,go,450.0,500.0,1.0,,,,,,,,,gray,I
0.0,1.0,0.5,0.0,6.0,6.0,722.5559700000304,2.0,1.0,phase_2,go,450.0,500.0,1.0,,,,,,,,,white,hexagon
0.0,6.0,1.0,1.0,6.0,0.0,0.0,2.0,1.0,phase_2,stop,450.0,500.0,4.0,,,,,,,,,yellow,cross
0.0,5.0,0.5,1.0,6.0,6.0,636.7749319997529,2.0,1.0,phase_2,stop,450.0,550.0,3.0,,,,,,,,,magenta,flipped triangle
0.0,7.0,2.0,1.0,5.0,0.0,0.0,2.0,1.0,phase_2,stop,450.0,500.0,4.0,,,,,,,,,orange,triangle
0.0,2.0,1.0,0.0,5.0,5.0,325.0972249998085,2.0,1.0,phase_2,go,500.0,500.0,1.0,,,,,,,,,cyan,diamond
0.0,3.0,2.0,0.0,5.0,5.0,763.6797400000432,2.0,1.0,phase_2,go,500.0,500.0,1.0,,,,,,,,,green,circle
0.0,2.0,1.0,0.0,5.0,5.0,756.9135190001361,2.0,1.0,phase_2,go,500.0,500.0,1.0,,,,,,,,,cyan,diamond
0.0,8.0,4.0,1.0,6.0,0.0,0.0,2.0,1.0,phase_2,stop,500.0,500.0,4.0,,,,,,,,,blue,square
0.0,7.0,2.0,1.0,6.0,6.0,707.3551539997425,2.0,1.0,phase_2,go,500.0,550.0,1.0,,,,,,,,,orange,triangle
0.0,7.0,2.0,1.0,5.0,5.0,661.7043450000892,2.0,1.0,phase_2,go,500.0,550.0,1.0,,,,,,,,,orange,triangle
0.0,3.0,2.0,0.0,6.0,6.0,293.1610969999383,2.0,1.0,phase_2,go,500.0,550.0,1.0,,,,,,,,,green,circle
0.0,1.0,0.5,0.0,6.0,6.0,949.9394839999696,2.0,1.0,phase_2,go,500.0,550.0,1.0,,,,,,,,,white,hexagon
0.0,7.0,2.0,1.0,5.0,5.0,399.2384950001906,2.0,1.0,phase_2,stop,500.0,550.0,3.0,,,,,,,,,orange,triangle
0.0,6.0,1.0,1.0,6.0,6.0,668.9472969997041,2.0,1.0,phase_2,stop,450.0,550.0,3.0,,,,,,,,,yellow,cross
0.0,6.0,1.0,1.0,5.0,0.0,0.0,2.0,1.0,phase_2,stop,450.0,500.0,4.0,,,,,,,,,yellow,cross
0.0,1.0,0.5,0.0,6.0,6.0,793.9900770002168,2.0,1.0,phase_2,go,500.0,500.0,1.0,,,,,,,,,white,hexagon
0.0,2.0,1.0,0.0,6.0,6.0,729.1610269999182,2.0,1.0,phase_2,go,500.0,500.0,1.0,,,,,,,,,cyan,diamond
0.0,5.0,0.5,1.0,6.0,0.0,0.0,2.0,1.0,phase_2,stop,500.0,500.0,4.0,,,,,,,,,magenta,flipped triangle
0.0,1.0,0.5,0.0,6.0,6.0,812.6783840002645,2.0,1.0,phase_2,go,500.0,550.0,1.0,,,,,,,,,white,hexagon
0.0,6.0,1.0,1.0,5.0,5.0,774.9670600001082,2.0,1.0,phase_2,go,500.0,550.0,1.0,,,,,,,,,yellow,cross
0.0,8.0,4.0,1.0,6.0,0.0,0.0,2.0,1.0,phase_2,stop,500.0,550.0,4.0,,,,,,,,,blue,square
0.0,2.0,1.0,0.0,5.0,5.0,841.7651649997424,2.0,1.0,phase_2,go,500.0,600.0,1.0,,,,,,,,,cyan,diamond
0.0,8.0,4.0,1.0,6.0,0.0,0.0,2.0,1.0,phase_2,stop,500.0,600.0,4.0,,,,,,,,,blue,square
0.0,4.0,4.0,0.0,6.0,6.0,836.1955089999356,2.0,1.0,phase_2,go,500.0,650.0,1.0,,,,,,,,,gray,I
0.0,5.0,0.5,1.0,6.0,6.0,345.5762510002387,3.0,1.0,phase_2,go,500.0,650.0,1.0,,,,,,,,,magenta,flipped triangle
0.0,8.0,4.0,1.0,6.0,6.0,402.2521629999573,3.0,1.0,phase_2,stop,500.0,650.0,3.0,,,,,,,,,blue,square
0.0,7.0,2.0,1.0,5.0,5.0,307.3578900002758,3.0,1.0,phase_2,stop,500.0,600.0,3.0,,,,,,,,,orange,triangle
0.0,5.0,0.5,1.0,6.0,6.0,317.8800370001227,3.0,1.0,phase_2,go,450.0,600.0,1.0,,,,,,,,,magenta,flipped triangle
0.0,3.0,2.0,0.0,6.0,6.0,455.3700589999607,3.0,1.0,phase_2,go,450.0,600.0,1.0,,,,,,,,,green,circle
0.0,5.0,0.5,1.0,6.0,6.0,529.3203350001932,3.0,1.0,phase_2,stop,450.0,600.0,3.0,,,,,,,,,magenta,flipped triangle
0.0,5.0,0.5,1.0,5.0,5.0,484.532794000188,3.0,1.0,phase_2,stop,450.0,550.0,3.0,,,,,,,,,magenta,flipped triangle
0.0,4.0,4.0,0.0,5.0,5.0,639.1945310001574,3.0,1.0,phase_2,go,400.0,550.0,1.0,,,,,,,,,gray,I
0.0,1.0,0.5,0.0,5.0,5.0,638.2519310000134,3.0,1.0,phase_2,go,400.0,550.0,1.0,,,,,,,,,white,hexagon
0.0,6.0,1.0,1.0,5.0,0.0,0.0,3.0,1.0,phase_2,stop,400.0,550.0,4.0,,,,,,,,,yellow,cross
0.0,7.0,2.0,1.0,5.0,0.0,0.0,3.0,1.0,phase_2,stop,450.0,550.0,4.0,,,,,,,,,orange,triangle
0.0,4.0,4.0,0.0,5.0,5.0,469.5784089999506,3.0,1.0,phase_2,go,500.0,550.0,1.0,,,,,,,,,gray,I
0.0,1.0,0.5,0.0,6.0,6.0,738.1274140002461,3.0,1.0,phase_2,go,500.0,550.0,1.0,,,,,,,,,white,hexagon
0.0,8.0,4.0,1.0,5.0,0.0,0.0,3.0,1.0,phase_2,stop,500.0,550.0,4.0,,,,,,,,,blue,square
0.0,2.0,1.0,0.0,6.0,6.0,719.6895050001331,3.0,1.0,phase_2,go,550.0,550.0,1.0,,,,,,,,,cyan,diamond
0.0,6.0,1.0,1.0,5.0,0.0,0.0,3.0,1.0,phase_2,stop,550.0,550.0,4.0,,,,,,,,,yellow,cross
0.0,8.0,4.0,1.0,5.0,0.0,0.0,3.0,1.0,phase_2,stop,600.0,550.0,4.0,,,,,,,,,blue,square
0.0,4.0,4.0,0.0,6.0,6.0,898.5220280001158,3.0,1.0,phase_2,go,650.0,550.0,1.0,,,,,,,,,gray,I
0.0,3.0,2.0,0.0,5.0,5.0,775.4872969999269,3.0,1.0,phase_2,go,650.0,550.0,1.0,,,,,,,,,green,circle
0.0,7.0,2.0,1.0,5.0,0.0,0.0,3.0,1.0,phase_2,stop,650.0,550.0,4.0,,,,,,,,,orange,triangle
0.0,6.0,1.0,1.0,6.0,6.0,617.1042680002756,3.0,1.0,phase_2,stop,700.0,550.0,3.0,,,,,,,,,yellow,cross
0.0,6.0,1.0,1.0,6.0,0.0,0.0,3.0,1.0,phase_2,stop,700.0,500.0,4.0,,,,,,,,,yellow,cross
0.0,4.0,4.0,0.0,5.0,5.0,751.4345320000757,3.0,1.0,phase_2,go,700.0,550.0,1.0,,,,,,,,,gray,I
0.0,6.0,1.0,1.0,5.0,0.0,0.0,3.0,1.0,phase_2,stop,700.0,550.0,4.0,,,,,,,,,yellow,cross
0.0,3.0,2.0,0.0,5.0,5.0,749.2025920000742,3.0,1.0,phase_2,go,750.0,550.0,1.0,,,,,,,,,green,circle
0.0,1.0,0.5,0.0,6.0,6.0,750.294624000162,3.0,1.0,phase_2,go,750.0,550.0,1.0,,,,,,,,,white,hexagon
0.0,4.0,4.0,0.0,6.0,6.0,439.1755659999035,3.0,1.0,phase_2,go,750.0,550.0,1.0,,,,,,,,,gray,I
0.0,6.0,1.0,1.0,5.0,5.0,803.3754690000023,3.0,1.0,phase_2,stop,750.0,550.0,3.0,,,,,,,,,yellow,cross
0.0,8.0,4.0,1.0,5.0,5.0,668.2623920000879,3.0,1.0,phase_2,stop,700.0,550.0,3.0,,,,,,,,,blue,square
0.0,5.0,0.5,1.0,5.0,5.0,764.0534249999291,3.0,1.0,phase_2,stop,650.0,550.0,3.0,,,,,,,,,magenta,flipped triangle
0.0,1.0,0.5,0.0,6.0,6.0,746.1096689999067,3.0,1.0,phase_2,go,600.0,550.0,1.0,,,,,,,,,white,hexagon
0.0,2.0,1.0,0.0,6.0,6.0,977.1556880000388,3.0,1.0,phase_2,go,600.0,550.0,1.0,,,,,,,,,cyan,diamond
0.0,2.0,1.0,0.0,5.0,5.0,434.231071999875,3.0,1.0,phase_2,go,600.0,550.0,1.0,,,,,,,,,cyan,diamond
0.0,7.0,2.0,1.0,6.0,0.0,0.0,3.0,1.0,phase_2,stop,600.0,550.0,4.0,,,,,,,,,orange,triangle
0.0,4.0,4.0,0.0,6.0,6.0,816.3038709999455,3.0,1.0,phase_2,go,600.0,600.0,1.0,,,,,,,,,gray,I
0.0,4.0,4.0,0.0,6.0,6.0,829.2558589996588,3.0,1.0,phase_2,go,600.0,600.0,1.0,,,,,,,,,gray,I
0.0,8.0,4.0,1.0,6.0,6.0,456.8124329998682,4.0,1.0,phase_2,go,600.0,600.0,1.0,,,,,,,,,blue,square
0.0,7.0,2.0,1.0,6.0,6.0,679.2022730001008,4.0,1.0,phase_2,stop,600.0,600.0,3.0,,,,,,,,,orange,triangle
0.0,1.0,0.5,0.0,6.0,6.0,726.3004659998842,4.0,1.0,phase_2,go,600.0,550.0,1.0,,,,,,,,,white,hexagon
0.0,2.0,1.0,0.0,6.0,6.0,266.3923730001443,4.0,1.0,phase_2,go,600.0,550.0,1.0,,,,,,,,,cyan,diamond
0.0,6.0,1.0,1.0,5.0,5.0,399.2427579996729,4.0,1.0,phase_2,stop,600.0,550.0,3.0,,,,,,,,,yellow,cross
0.0,8.0,4.0,1.0,5.0,5.0,691.9053040001018,4.0,1.0,phase_2,stop,550.0,550.0,3.0,,,,,,,,,blue,square
0.0,6.0,1.0,1.0,6.0,6.0,717.2782870002266,4.0,1.0,phase_2,go,500.0,550.0,1.0,,,,,,,,,yellow,cross
0.0,2.0,1.0,0.0,5.0,5.0,660.5605600002491,4.0,1.0,phase_2,go,500.0,550.0,1.0,,,,,,,,,cyan,diamond
0.0,1.0,0.5,0.0,6.0,6.0,963.0751079998844,4.0,1.0,phase_2,go,500.0,550.0,1.0,,,,,,,,,white,hexagon
0.0,1.0,0.5,0.0,5.0,5.0,793.7082009998448,4.0,1.0,phase_2,go,500.0,550.0,1.0,,,,,,,,,white,hexagon
0.0,5.0,0.5,1.0,6.0,6.0,759.1921260000163,4.0,1.0,phase_2,go,500.0,550.0,1.0,,,,,,,,,magenta,flipped triangle
0.0,1.0,0.5,0.0,5.0,5.0,1159.6092820000194,4.0,1.0,phase_2,go,500.0,550.0,1.0,,,,,,,,,white,hexagon
0.0,2.0,1.0,0.0,6.0,6.0,876.6951759998847,4.0,1.0,phase_2,go,500.0,550.0,1.0,,,,,,,,,cyan,diamond
0.0,7.0,2.0,1.0,6.0,6.0,875.2395290002823,4.0,1.0,phase_2,go,500.0,550.0,1.0,,,,,,,,,orange,triangle
0.0,7.0,2.0,1.0,5.0,0.0,0.0,4.0,1.0,phase_2,stop,500.0,550.0,4.0,,,,,,,,,orange,triangle
0.0,5.0,0.5,1.0,5.0,0.0,0.0,4.0,1.0,phase_2,stop,550.0,550.0,4.0,,,,,,,,,magenta,flipped triangle
0.0,5.0,0.5,1.0,6.0,6.0,853.5998659999677,4.0,1.0,phase_2,go,600.0,550.0,1.0,,,,,,,,,magenta,flipped triangle
0.0,4.0,4.0,0.0,5.0,5.0,773.3125309996467,4.0,1.0,phase_2,go,600.0,550.0,1.0,,,,,,,,,gray,I
0.0,8.0,4.0,1.0,6.0,6.0,652.0297070001106,4.0,1.0,phase_2,stop,600.0,550.0,3.0,,,,,,,,,blue,square
0.0,1.0,0.5,0.0,6.0,6.0,814.0898130000096,4.0,1.0,phase_2,go,600.0,500.0,1.0,,,,,,,,,white,hexagon
0.0,8.0,4.0,1.0,6.0,0.0,0.0,4.0,1.0,phase_2,stop,600.0,500.0,4.0,,,,,,,,,blue,square
0.0,1.0,0.5,0.0,6.0,6.0,820.9092639999653,4.0,1.0,phase_2,go,600.0,550.0,1.0,,,,,,,,,white,hexagon
0.0,2.0,1.0,0.0,6.0,6.0,890.9167520000665,4.0,1.0,phase_2,go,600.0,550.0,1.0,,,,,,,,,cyan,diamond
0.0,6.0,1.0,1.0,5.0,5.0,740.7512089998818,4.0,1.0,phase_2,go,600.0,550.0,1.0,,,,,,,,,yellow,cross
0.0,4.0,4.0,0.0,6.0,6.0,768.858155000089,4.0,1.0,phase_2,go,600.0,550.0,1.0,,,,,,,,,gray,I
0.0,3.0,2.0,0.0,5.0,5.0,681.575298000098,4.0,1.0,phase_2,go,600.0,550.0,1.0,,,,,,,,,green,circle
0.0,6.0,1.0,1.0,6.0,0.0,0.0,4.0,1.0,phase_2,stop,600.0,550.0,4.0,,,,,,,,,yellow,cross
0.0,4.0,4.0,0.0,5.0,5.0,780.1635079999869,4.0,1.0,phase_2,go,600.0,600.0,1.0,,,,,,,,,gray,I
0.0,5.0,0.5,1.0,5.0,0.0,0.0,4.0,1.0,phase_2,stop,600.0,600.0,4.0,,,,,,,,,magenta,flipped triangle
0.0,1.0,0.5,0.0,6.0,6.0,308.6604949999127,4.0,1.0,phase_2,go,650.0,600.0,1.0,,,,,,,,,white,hexagon
0.0,3.0,2.0,0.0,6.0,6.0,933.9858910002476,4.0,1.0,phase_2,go,650.0,600.0,1.0,,,,,,,,,green,circle
0.0,5.0,0.5,1.0,6.0,0.0,0.0,4.0,1.0,phase_2,stop,650.0,600.0,4.0,,,,,,,,,magenta,flipped triangle
0.0,7.0,2.0,1.0,5.0,5.0,803.6091159997341,4.0,1.0,phase_2,stop,650.0,650.0,3.0,,,,,,,,,orange,triangle
0.0,3.0,2.0,0.0,5.0,5.0,898.5995480002202,4.0,1.0,phase_2,go,600.0,650.0,1.0,,,,,,,,,green,circle
0.0,5.0,0.5,1.0,6.0,0.0,0.0,4.0,1.0,phase_2,stop,600.0,650.0,4.0,,,,,,,,,magenta,flipped triangle
0.0,5.0,0.5,1.0,6.0,0.0,0.0,4.0,1.0,phase_2,stop,600.0,700.0,4.0,,,,,,,,,magenta,flipped triangle
0.0,2.0,1.0,0.0,5.0,5.0,318.9650440003788,5.0,1.0,phase_2,go,600.0,750.0,1.0,,,,,,,,,cyan,diamond
0.0,2.0,1.0,0.0,6.0,6.0,543.5574949997317,5.0,1.0,phase_2,go,600.0,750.0,1.0,,,,,,,,,cyan,diamond
0.0,6.0,1.0,1.0,6.0,6.0,321.5021870000782,5.0,1.0,phase_2,stop,600.0,750.0,3.0,,,,,,,,,yellow,cross
0.0,5.0,0.5,1.0,5.0,5.0,285.7684410000729,5.0,1.0,phase_2,stop,600.0,700.0,3.0,,,,,,,,,magenta,flipped triangle
0.0,2.0,1.0,0.0,6.0,6.0,206.606488000034,5.0,1.0,phase_2,go,550.0,700.0,1.0,,,,,,,,,cyan,diamond
0.0,5.0,0.5,1.0,6.0,6.0,306.8816139998489,5.0,1.0,phase_2,stop,550.0,700.0,3.0,,,,,,,,,magenta,flipped triangle
0.0,8.0,4.0,1.0,5.0,5.0,592.827171999943,5.0,1.0,phase_2,stop,550.0,650.0,3.0,,,,,,,,,blue,square
0.0,1.0,0.5,0.0,5.0,5.0,683.3003670003563,5.0,1.0,phase_2,go,500.0,650.0,1.0,,,,,,,,,white,hexagon
0.0,7.0,2.0,1.0,6.0,6.0,609.6854630000053,5.0,1.0,phase_2,stop,500.0,650.0,3.0,,,,,,,,,orange,triangle
0.0,2.0,1.0,0.0,6.0,6.0,609.5773279998866,5.0,1.0,phase_2,go,500.0,600.0,1.0,,,,,,,,,cyan,diamond
0.0,1.0,0.5,0.0,5.0,5.0,566.9137620002402,5.0,1.0,phase_2,go,500.0,600.0,1.0,,,,,,,,,white,hexagon
0.0,4.0,4.0,0.0,5.0,5.0,655.4196570000386,5.0,1.0,phase_2,go,500.0,600.0,1.0,,,,,,,,,gray,I
0.0,1.0,0.5,0.0,6.0,6.0,652.527636999821,5.0,1.0,phase_2,go,500.0,600.0,1.0,,,,,,,,,white,hexagon
0.0,4.0,4.0,0.0,6.0,6.0,448.6437179998574,5.0,1.0,phase_2,go,500.0,600.0,1.0,,,,,,,,,gray,I
0.0,6.0,1.0,1.0,6.0,0.0,0.0,5.0,1.0,phase_2,stop,500.0,600.0,4.0,,,,,,,,,yellow,cross
0.0,6.0,1.0,1.0,6.0,6.0,648.1855550000546,5.0,1.0,phase_2,stop,500.0,650.0,3.0,,,,,,,,,yellow,cross
0.0,8.0,4.0,1.0,5.0,5.0,413.2898200000454,5.0,1.0,phase_2,go,500.0,600.0,1.0,,,,,,,,,blue,square
0.0,7.0,2.0,1.0,6.0,0.0,0.0,5.0,1.0,phase_2,stop,500.0,600.0,4.0,,,,,,,,,orange,triangle
0.0,6.0,1.0,1.0,5.0,0.0,0.0,5.0,1.0,phase_2,stop,500.0,650.0,4.0,,,,,,,,,yellow,cross
0.0,4.0,4.0,0.0,5.0,5.0,805.6077989999721,5.0,1.0,phase_2,go,550.0,650.0,1.0,,,,,,,,,gray,I
0.0,6.0,1.0,1.0,6.0,0.0,0.0,5.0,1.0,phase_2,stop,550.0,650.0,4.0,,,,,,,,,yellow,cross
0.0,2.0,1.0,0.0,5.0,5.0,880.7109539998237,5.0,1.0,phase_2,go,550.0,700.0,1.0,,,,,,,,,cyan,diamond
0.0,6.0,1.0,1.0,5.0,0.0,0.0,5.0,1.0,phase_2,stop,550.0,700.0,4.0,,,,,,,,,yellow,cross
0.0,4.0,4.0,0.0,6.0,6.0,1150.6700609998006,5.0,1.0,phase_2,go,600.0,700.0,1.0,,,,,,,,,gray,I
0.0,1.0,0.5,0.0,5.0,5.0,914.8469440001464,5.0,1.0,phase_2,go,600.0,700.0,1.0,,,,,,,,,white,hexagon
0.0,3.0,2.0,0.0,6.0,6.0,882.1737289999874,5.0,1.0,phase_2,go,600.0,700.0,1.0,,,,,,,,,green,circle
0.0,3.0,2.0,0.0,5.0,5.0,688.8182029997552,5.0,1.0,phase_2,go,600.0,700.0,1.0,,,,,,,,,green,circle
0.0,2.0,1.0,0.0,5.0,5.0,714.5934740001394,5.0,1.0,phase_2,go,600.0,700.0,1.0,,,,,,,,,cyan,diamond
0.0,7.0,2.0,1.0,5.0,5.0,706.5088680001281,5.0,1.0,phase_2,stop,600.0,700.0,3.0,,,,,,,,,orange,triangle
0.0,4.0,4.0,0.0,6.0,6.0,873.6499179999555,5.0,1.0,phase_2,go,550.0,700.0,1.0,,,,,,,,,gray,I
0.0,8.0,4.0,1.0,5.0,5.0,766.3444750000963,5.0,1.0,phase_2,go,550.0,700.0,1.0,,,,,,,,,blue,square
0.0,4.0,4.0,0.0,6.0,6.0,759.3622619997404,5.0,1.0,phase_2,go,550.0,700.0,1.0,,,,,,,,,gray,I
0.0,2.0,1.0,0.0,6.0,6.0,742.8645439999855,5.0,1.0,phase_2,go,550.0,700.0,1.0,,,,,,,,,cyan,diamond
0.0,8.0,4.0,1.0,6.0,6.0,707.3026640000535,5.0,1.0,phase_2,go,550.0,700.0,1.0,,,,,,,,,blue,square
0.0,5.0,0.5,1.0,5.0,0.0,0.0,5.0,1.0,phase_2,stop,550.0,700.0,4.0,,,,,,,,,magenta,flipped triangle
0.0,1.0,0.5,0.0,5.0,5.0,856.9668489999458,5.0,1.0,phase_2,go,600.0,700.0,1.0,,,,,,,,,white,hexagon
0.0,6.0,1.0,1.0,6.0,6.0,261.1578010000812,6.0,1.0,phase_2,stop,600.0,700.0,3.0,,,,,,,,,yellow,cross
0.0,6.0,1.0,1.0,5.0,5.0,233.8108049998482,6.0,1.0,phase_2,go,600.0,650.0,1.0,,,,,,,,,yellow,cross
0.0,3.0,2.0,0.0,6.0,6.0,191.2476779998542,6.0,1.0,phase_2,go,600.0,650.0,1.0,,,,,,,,,green,circle
0.0,3.0,2.0,0.0,5.0,5.0,216.3505169992277,6.0,1.0,phase_2,go,600.0,650.0,1.0,,,,,,,,,green,circle
0.0,4.0,4.0,0.0,6.0,6.0,298.6095680007565,6.0,1.0,phase_2,go,600.0,650.0,1.0,,,,,,,,,gray,I
0.0,4.0,4.0,0.0,6.0,6.0,799.1656409994903,6.0,1.0,phase_2,go,600.0,650.0,1.0,,,,,,,,,gray,I
0.0,1.0,0.5,0.0,6.0,6.0,645.6095070006995,6.0,1.0,phase_2,go,600.0,650.0,1.0,,,,,,,,,white,hexagon
0.0,2.0,1.0,0.0,6.0,6.0,653.1224350001139,6.0,1.0,phase_2,go,600.0,650.0,1.0,,,,,,,,,cyan,diamond
0.0,2.0,1.0,0.0,5.0,5.0,531.4387110001917,6.0,1.0,phase_2,go,600.0,650.0,1.0,,,,,,,,,cyan,diamond
0.0,5.0,0.5,1.0,5.0,5.0,642.9152199998498,6.0,1.0,phase_2,stop,600.0,650.0,3.0,,,,,,,,,magenta,flipped triangle
0.0,2.0,1.0,0.0,6.0,6.0,697.9791430003388,6.0,1.0,phase_2,go,550.0,650.0,1.0,,,,,,,,,cyan,diamond
0.0,8.0,4.0,1.0,6.0,6.0,772.7860329996474,6.0,1.0,phase_2,go,550.0,650.0,1.0,,,,,,,,,blue,square
0.0,6.0,1.0,1.0,5.0,5.0,444.4606200004273,6.0,1.0,phase_2,stop,550.0,650.0,3.0,,,,,,,,,yellow,cross
0.0,8.0,4.0,1.0,5.0,0.0,0.0,6.0,1.0,phase_2,stop,500.0,650.0,4.0,,,,,,,,,blue,square
0.0,6.0,1.0,1.0,5.0,5.0,390.7372849998864,6.0,1.0,phase_2,go,550.0,650.0,1.0,,,,,,,,,yellow,cross
0.0,3.0,2.0,0.0,6.0,6.0,618.1430679998812,6.0,1.0,phase_2,go,550.0,650.0,1.0,,,,,,,,,green,circle
0.0,1.0,0.5,0.0,5.0,5.0,274.8935250001523,6.0,1.0,phase_2,go,550.0,650.0,1.0,,,,,,,,,white,hexagon
0.0,5.0,0.5,1.0,5.0,5.0,439.4684779999807,6.0,1.0,phase_2,stop,550.0,650.0,3.0,,,,,,,,,magenta,flipped triangle
0.0,4.0,4.0,0.0,5.0,5.0,283.2796409993534,6.0,1.0,phase_2,go,500.0,650.0,1.0,,,,,,,,,gray,I
0.0,8.0,4.0,1.0,6.0,6.0,769.7867609995228,6.0,1.0,phase_2,stop,500.0,650.0,3.0,,,,,,,,,blue,square
0.0,7.0,2.0,1.0,6.0,0.0,0.0,6.0,1.0,phase_2,stop,500.0,600.0,4.0,,,,,,,,,orange,triangle
0.0,7.0,2.0,1.0,6.0,6.0,811.2120010000581,6.0,1.0,phase_2,stop,500.0,650.0,3.0,,,,,,,,,orange,triangle
0.0,7.0,2.0,1.0,5.0,5.0,694.616698999198,6.0,1.0,phase_2,go,500.0,600.0,1.0,,,,,,,,,orange,triangle
0.0,8.0,4.0,1.0,5.0,0.0,0.0,6.0,1.0,phase_2,stop,500.0,600.0,4.0,,,,,,,,,blue,square
0.0,8.0,4.0,1.0,5.0,5.0,271.979606000059,6.0,1.0,phase_2,stop,550.0,600.0,3.0,,,,,,,,,blue,square
0.0,4.0,4.0,0.0,5.0,5.0,240.6231340000886,6.0,1.0,phase_2,go,500.0,600.0,1.0,,,,,,,,,gray,I
0.0,6.0,1.0,1.0,5.0,0.0,0.0,6.0,1.0,phase_2,stop,500.0,600.0,4.0,,,,,,,,,yellow,cross
0.0,3.0,2.0,0.0,6.0,6.0,848.927236000236,6.0,1.0,phase_2,go,550.0,600.0,1.0,,,,,,,,,green,circle
0.0,5.0,0.5,1.0,6.0,6.0,800.9657430002335,6.0,1.0,phase_2,stop,550.0,600.0,3.0,,,,,,,,,magenta,flipped triangle
0.0,8.0,4.0,1.0,6.0,6.0,537.1319100004257,6.0,1.0,phase_2,stop,550.0,550.0,3.0,,,,,,,,,blue,square
0.0,2.0,1.0,0.0,6.0,6.0,264.6299819998603,6.0,1.0,phase_2,go,550.0,500.0,1.0,,,,,,,,,cyan,diamond
0.0,7.0,2.0,1.0,5.0,5.0,312.0629570003075,6.0,1.0,phase_2,go,550.0,500.0,1.0,,,,,,,,,orange,triangle
0.0,3.0,2.0,0.0,6.0,6.0,563.5125620001418,6.0,1.0,phase_2,go,550.0,500.0,1.0,,,,,,,,,green,circle
0.0,3.0,2.0,0.0,6.0,6.0,334.7530109995205,6.0,1.0,phase_2,go,550.0,500.0,1.0,,,,,,,,,green,circle
0.0,2.0,1.0,0.0,5.0,5.0,739.2664330000116,6.0,1.0,phase_2,go,550.0,500.0,1.0,,,,,,,,,cyan,diamond
0.0,7.0,2.0,1.0,5.0,5.0,645.2602189992831,6.0,1.0,phase_2,go,550.0,500.0,1.0,,,,,,,,,orange,triangle
0.0,3.0,2.0,0.0,5.0,5.0,283.9856669997971,7.0,1.0,phase_2,go,550.0,500.0,1.0,,,,,,,,,green,circle
0.0,1.0,0.5,0.0,6.0,6.0,288.9882769995893,7.0,1.0,phase_2,go,550.0,500.0,1.0,,,,,,,,,white,hexagon
0.0,7.0,2.0,1.0,6.0,0.0,0.0,7.0,1.0,phase_2,stop,550.0,500.0,4.0,,,,,,,,,orange,triangle
0.0,1.0,0.5,0.0,6.0,6.0,726.4849889998004,7.0,1.0,phase_2,go,550.0,550.0,1.0,,,,,,,,,white,hexagon
0.0,5.0,0.5,1.0,6.0,6.0,697.495355000683,7.0,1.0,phase_2,stop,550.0,550.0,3.0,,,,,,,,,magenta,flipped triangle
0.0,8.0,4.0,1.0,6.0,0.0,0.0,7.0,1.0,phase_2,stop,550.0,500.0,4.0,,,,,,,,,blue,square
0.0,4.0,4.0,0.0,6.0,6.0,823.8212959995508,7.0,1.0,phase_2,go,550.0,550.0,1.0,,,,,,,,,gray,I
0.0,7.0,2.0,1.0,5.0,0.0,0.0,7.0,1.0,phase_2,stop,550.0,550.0,4.0,,,,,,,,,orange,triangle
0.0,7.0,2.0,1.0,5.0,5.0,743.8021670004673,7.0,1.0,phase_2,go,600.0,550.0,1.0,,,,,,,,,orange,triangle
0.0,8.0,4.0,1.0,5.0,5.0,895.5227309998008,7.0,1.0,phase_2,go,600.0,550.0,1.0,,,,,,,,,blue,square
0.0,2.0,1.0,0.0,6.0,6.0,232.4248799995985,7.0,1.0,phase_2,go,600.0,550.0,1.0,,,,,,,,,cyan,diamond
0.0,3.0,2.0,0.0,5.0,5.0,767.5480909992984,7.0,1.0,phase_2,go,600.0,550.0,1.0,,,,,,,,,green,circle
0.0,2.0,1.0,0.0,6.0,6.0,469.3281169993497,7.0,1.0,phase_2,go,600.0,550.0,1.0,,,,,,,,,cyan,diamond
0.0,7.0,2.0,1.0,6.0,0.0,0.0,7.0,1.0,phase_2,stop,600.0,550.0,4.0,,,,,,,,,orange,triangle
0.0,1.0,0.5,0.0,5.0,5.0,588.5921169992798,7.0,1.0,phase_2,go,600.0,600.0,1.0,,,,,,,,,white,hexagon
0.0,5.0,0.5,1.0,6.0,6.0,672.4566290004077,7.0,1.0,phase_2,stop,600.0,600.0,3.0,,,,,,,,,magenta,flipped triangle
0.0,5.0,0.5,1.0,5.0,5.0,733.2541430005222,7.0,1.0,phase_2,go,600.0,550.0,1.0,,,,,,,,,magenta,flipped triangle
0.0,3.0,2.0,0.0,5.0,5.0,735.5787460001011,7.0,1.0,phase_2,go,600.0,550.0,1.0,,,,,,,,,green,circle
0.0,1.0,0.5,0.0,6.0,6.0,860.8352940000259,7.0,1.0,phase_2,go,600.0,550.0,1.0,,,,,,,,,white,hexagon
0.0,2.0,1.0,0.0,6.0,6.0,546.961906999968,7.0,1.0,phase_2,go,600.0,550.0,1.0,,,,,,,,,cyan,diamond
0.0,7.0,2.0,1.0,6.0,6.0,736.4236190005613,7.0,1.0,phase_2,go,600.0,550.0,1.0,,,,,,,,,orange,triangle
0.0,7.0,2.0,1.0,5.0,5.0,551.0902010000791,7.0,1.0,phase_2,stop,600.0,550.0,3.0,,,,,,,,,orange,triangle
0.0,4.0,4.0,0.0,6.0,6.0,492.2079779998967,7.0,1.0,phase_2,go,550.0,550.0,1.0,,,,,,,,,gray,I
0.0,5.0,0.5,1.0,5.0,0.0,0.0,7.0,1.0,phase_2,stop,550.0,550.0,4.0,,,,,,,,,magenta,flipped triangle
0.0,4.0,4.0,0.0,5.0,5.0,838.912473000164,7.0,1.0,phase_2,go,600.0,550.0,1.0,,,,,,,,,gray,I
0.0,2.0,1.0,0.0,5.0,5.0,864.4025650000913,7.0,1.0,phase_2,go,600.0,550.0,1.0,,,,,,,,,cyan,diamond
0.0,7.0,2.0,1.0,6.0,6.0,463.9262159998907,7.0,1.0,phase_2,stop,600.0,550.0,3.0,,,,,,,,,orange,triangle
0.0,6.0,1.0,1.0,5.0,5.0,605.6712989993684,7.0,1.0,phase_2,go,600.0,500.0,1.0,,,,,,,,,yellow,cross
0.0,8.0,4.0,1.0,5.0,5.0,436.3574899998639,7.0,1.0,phase_2,stop,600.0,500.0,3.0,,,,,,,,,blue,square
0.0,6.0,1.0,1.0,6.0,6.0,266.994319999867,7.0,1.0,phase_2,stop,550.0,500.0,3.0,,,,,,,,,yellow,cross
0.0,3.0,2.0,0.0,6.0,6.0,526.6986930000712,7.0,1.0,phase_2,go,550.0,450.0,1.0,,,,,,,,,green,circle
0.0,1.0,0.5,0.0,5.0,5.0,690.2057349998358,7.0,1.0,phase_2,go,550.0,450.0,1.0,,,,,,,,,white,hexagon
0.0,4.0,4.0,0.0,5.0,5.0,469.6657089998552,7.0,1.0,phase_2,go,550.0,450.0,1.0,,,,,,,,,gray,I
0.0,1.0,0.5,0.0,5.0,5.0,318.7428069995803,7.0,1.0,phase_2,go,550.0,450.0,1.0,,,,,,,,,white,hexagon
0.0,7.0,2.0,1.0,6.0,6.0,324.3823239999983,7.0,1.0,phase_2,stop,550.0,450.0,3.0,,,,,,,,,orange,triangle
0.0,1.0,0.5,0.0,5.0,5.0,363.8682930004506,7.0,1.0,phase_2,go,550.0,400.0,1.0,,,,,,,,,white,hexagon
0.0,6.0,1.0,1.0,5.0,5.0,238.5302209995643,8.0,1.0,phase_2,stop,550.0,400.0,3.0,,,,,,,,,yellow,cross
0.0,2.0,1.0,0.0,5.0,5.0,285.845153000082,8.0,1.0,phase_2,go,500.0,400.0,1.0,,,,,,,,,cyan,diamond
0.0,5.0,0.5,1.0,6.0,6.0,307.0826670000315,8.0,1.0,phase_2,stop,500.0,400.0,3.0,,,,,,,,,magenta,flipped triangle
0.0,3.0,2.0,0.0,6.0,6.0,500.7620569995197,8.0,1.0,phase_2,go,500.0,350.0,1.0,,,,,,,,,green,circle
0.0,5.0,0.5,1.0,5.0,5.0,550.7209030001832,8.0,1.0,phase_2,stop,500.0,350.0,3.0,,,,,,,,,magenta,flipped triangle
0.0,3.0,2.0,0.0,6.0,6.0,623.8188450006419,8.0,1.0,phase_2,go,450.0,350.0,1.0,,,,,,,,,green,circle
0.0,4.0,4.0,0.0,5.0,5.0,353.6498549992757,8.0,1.0,phase_2,go,450.0,350.0,1.0,,,,,,,,,gray,I
0.0,1.0,0.5,0.0,5.0,5.0,533.8226829999257,8.0,1.0,phase_2,go,450.0,350.0,1.0,,,,,,,,,white,hexagon
0.0,3.0,2.0,0.0,5.0,6.0,732.1861000000354,8.0,1.0,phase_2,go,450.0,350.0,2.0,,,,,,,,,green,circle
0.0,6.0,1.0,1.0,6.0,6.0,388.535836000301,8.0,1.0,phase_2,go,450.0,350.0,1.0,,,,,,,,,yellow,cross
0.0,8.0,4.0,1.0,5.0,0.0,0.0,8.0,1.0,phase_2,stop,450.0,350.0,4.0,,,,,,,,,blue,square
0.0,1.0,0.5,0.0,6.0,6.0,659.3266400004723,8.0,1.0,phase_2,go,500.0,350.0,1.0,,,,,,,,,white,hexagon
0.0,4.0,4.0,0.0,6.0,6.0,568.2698599994183,8.0,1.0,phase_2,go,500.0,350.0,1.0,,,,,,,,,gray,I
0.0,2.0,1.0,0.0,5.0,5.0,701.0520849999011,8.0,1.0,phase_2,go,500.0,350.0,1.0,,,,,,,,,cyan,diamond
0.0,2.0,1.0,0.0,5.0,5.0,517.070825000701,8.0,1.0,phase_2,go,500.0,350.0,1.0,,,,,,,,,cyan,diamond
0.0,4.0,4.0,0.0,6.0,6.0,364.3190879993199,8.0,1.0,phase_2,go,500.0,350.0,1.0,,,,,,,,,gray,I
0.0,3.0,2.0,0.0,6.0,6.0,316.5806300003169,8.0,1.0,phase_2,go,500.0,350.0,1.0,,,,,,,,,green,circle
0.0,6.0,1.0,1.0,5.0,5.0,426.6638420003801,8.0,1.0,phase_2,stop,500.0,350.0,3.0,,,,,,,,,yellow,cross
0.0,3.0,2.0,0.0,6.0,6.0,208.2825170000433,8.0,1.0,phase_2,go,450.0,350.0,1.0,,,,,,,,,green,circle
0.0,2.0,1.0,0.0,6.0,6.0,285.5144559998734,8.0,1.0,phase_2,go,450.0,350.0,1.0,,,,,,,,,cyan,diamond
0.0,3.0,2.0,0.0,6.0,6.0,349.5876529996167,8.0,1.0,phase_2,go,450.0,350.0,1.0,,,,,,,,,green,circle
0.0,8.0,4.0,1.0,5.0,6.0,492.6590949999081,8.0,1.0,phase_2,go,450.0,350.0,2.0,,,,,,,,,blue,square
0.0,7.0,2.0,1.0,6.0,6.0,344.8217200002546,8.0,1.0,phase_2,stop,450.0,350.0,3.0,,,,,,,,,orange,triangle
0.0,3.0,2.0,0.0,5.0,5.0,569.634431999475,8.0,1.0,phase_2,go,450.0,300.0,1.0,,,,,,,,,green,circle
0.0,4.0,4.0,0.0,6.0,6.0,358.563972000411,8.0,1.0,phase_2,go,450.0,300.0,1.0,,,,,,,,,gray,I
0.0,3.0,2.0,0.0,5.0,5.0,459.1783690002557,8.0,1.0,phase_2,go,450.0,300.0,1.0,,,,,,,,,green,circle
0.0,7.0,2.0,1.0,6.0,6.0,447.3378749999028,8.0,1.0,phase_2,stop,450.0,300.0,3.0,,,,,,,,,orange,triangle
0.0,4.0,4.0,0.0,5.0,5.0,375.8327529994858,8.0,1.0,phase_2,go,450.0,250.0,1.0,,,,,,,,,gray,I
0.0,5.0,0.5,1.0,5.0,0.0,0.0,8.0,1.0,phase_2,stop,450.0,250.0,4.0,,,,,,,,,magenta,flipped triangle
0.0,6.0,1.0,1.0,6.0,0.0,0.0,8.0,1.0,phase_2,stop,500.0,250.0,4.0,,,,,,,,,yellow,cross
0.0,8.0,4.0,1.0,6.0,0.0,0.0,8.0,1.0,phase_2,stop,500.0,300.0,4.0,,,,,,,,,blue,square
0.0,3.0,2.0,0.0,6.0,6.0,827.2054770004615,8.0,1.0,phase_2,go,500.0,350.0,1.0,,,,,,,,,green,circle
0.0,8.0,4.0,1.0,5.0,5.0,888.1362010006342,8.0,1.0,phase_2,go,500.0,350.0,1.0,,,,,,,,,blue,square
0.0,8.0,4.0,1.0,6.0,0.0,0.0,8.0,1.0,phase_2,stop,500.0,350.0,4.0,,,,,,,,,blue,square
0.0,2.0,1.0,0.0,5.0,5.0,823.0226220002805,8.0,1.0,phase_2,go,500.0,400.0,1.0,,,,,,,,,cyan,diamond
0.0,4.0,4.0,0.0,6.0,6.0,702.6147030001084,8.0,1.0,phase_2,go,500.0,400.0,1.0,,,,,,,,,gray,I
0.0,3.0,2.0,0.0,7.0,3.0,1932.3786830000245,1.0,2.0,phase_3,,,,,216.0,4.0,54.0,108.0,216.0,270.0,324.0,162.0,green,circle
0.0,6.0,1.0,1.0,7.0,5.0,2400.5139390001204,1.0,1.0,phase_3,,,,,108.0,2.0,162.0,216.0,324.0,54.0,108.0,270.0,yellow,cross
0.0,2.0,1.0,0.0,7.0,4.0,2493.736328000523,1.0,1.0,phase_3,,,,,195.0,5.0,39.0,78.0,156.0,195.0,234.0,117.0,cyan,diamond
0.0,1.0,0.5,0.0,7.0,4.0,1987.7568669999164,1.0,1.0,phase_3,,,,,245.0,5.0,49.0,98.0,294.0,245.0,147.0,196.0,white,hexagon
0.0,1.0,0.5,0.0,7.0,5.0,1764.5326530000602,1.0,1.0,phase_3,,,,,294.0,6.0,245.0,98.0,49.0,147.0,294.0,196.0,white,hexagon
0.0,1.0,0.5,0.0,7.0,1.0,1193.865023999933,1.0,1.0,phase_3,,,,,108.0,2.0,108.0,324.0,216.0,162.0,54.0,270.0,white,hexagon
0.0,3.0,2.0,0.0,7.0,6.0,1701.4936609994038,1.0,1.0,phase_3,,,,,264.0,6.0,44.0,132.0,88.0,220.0,176.0,264.0,green,circle
0.0,6.0,1.0,1.0,7.0,2.0,1710.0601259999166,1.0,1.0,phase_3,,,,,324.0,6.0,216.0,324.0,108.0,270.0,162.0,54.0,yellow,cross
0.0,1.0,0.5,0.0,7.0,6.0,2419.790228000238,1.0,1.0,phase_3,,,,,204.0,6.0,102.0,68.0,170.0,34.0,136.0,204.0,white,hexagon
0.0,4.0,4.0,0.0,7.0,3.0,1699.919055000464,1.0,1.0,phase_3,,,,,294.0,6.0,49.0,245.0,294.0,196.0,147.0,98.0,gray,I
0.0,1.0,0.5,0.0,7.0,1.0,1310.894045999703,1.0,1.0,phase_3,,,,,264.0,6.0,264.0,88.0,44.0,176.0,132.0,220.0,white,hexagon
0.0,5.0,0.5,1.0,7.0,4.0,1077.9220160002296,1.0,1.0,phase_3,,,,,264.0,6.0,88.0,132.0,220.0,264.0,44.0,176.0,magenta,flipped triangle
0.0,7.0,2.0,1.0,7.0,1.0,2057.73084700013,1.0,1.0,phase_3,,,,,220.0,5.0,220.0,132.0,264.0,88.0,176.0,44.0,orange,triangle
0.0,5.0,0.5,1.0,7.0,4.0,1289.679227000306,1.0,1.0,phase_3,,,,,147.0,3.0,245.0,196.0,98.0,147.0,294.0,49.0,magenta,flipped triangle
0.0,2.0,1.0,0.0,7.0,1.0,1777.7618770005574,1.0,1.0,phase_3,,,,,264.0,6.0,264.0,88.0,176.0,44.0,220.0,132.0,cyan,diamond
0.0,6.0,1.0,1.0,7.0,5.0,1414.1243589992882,1.0,1.0,phase_3,,,,,294.0,6.0,98.0,147.0,245.0,49.0,294.0,196.0,yellow,cross
0.0,2.0,1.0,0.0,7.0,2.0,1308.8127900000472,1.0,1.0,phase_3,,,,,220.0,5.0,176.0,220.0,264.0,132.0,44.0,88.0,cyan,diamond
0.0,8.0,4.0,1.0,7.0,5.0,2080.9550530002525,1.0,1.0,phase_3,,,,,204.0,6.0,34.0,136.0,170.0,68.0,204.0,102.0,blue,square
0.0,6.0,1.0,1.0,7.0,2.0,1527.089423999314,1.0,1.0,phase_3,,,,,234.0,6.0,117.0,234.0,156.0,78.0,39.0,195.0,yellow,cross
0.0,5.0,0.5,1.0,7.0,3.0,1321.7569489997911,1.0,1.0,phase_3,,,,,270.0,5.0,324.0,162.0,270.0,54.0,216.0,108.0,magenta,flipped triangle
0.0,7.0,2.0,1.0,7.0,3.0,1163.489337000101,2.0,1.0,phase_3,,,,,234.0,6.0,117.0,195.0,234.0,156.0,39.0,78.0,orange,triangle
0.0,4.0,4.0,0.0,7.0,2.0,1632.0698050003557,2.0,1.0,phase_3,,,,,220.0,5.0,44.0,220.0,88.0,176.0,132.0,264.0,gray,I
0.0,5.0,0.5,1.0,7.0,5.0,1642.4294979997285,2.0,1.0,phase_3,,,,,220.0,5.0,176.0,132.0,264.0,44.0,220.0,88.0,magenta,flipped triangle
0.0,7.0,2.0,1.0,7.0,6.0,2224.841412999922,2.0,1.0,phase_3,,,,,264.0,6.0,220.0,88.0,44.0,132.0,176.0,264.0,orange,triangle
0.0,7.0,2.0,1.0,7.0,6.0,1081.0503319999043,2.0,1.0,phase_3,,,,,294.0,6.0,98.0,147.0,196.0,49.0,245.0,294.0,orange,triangle
0.0,2.0,1.0,0.0,7.0,6.0,1905.8861969997447,2.0,1.0,phase_3,,,,,234.0,6.0,117.0,39.0,156.0,195.0,78.0,234.0,cyan,diamond
0.0,4.0,4.0,0.0,7.0,4.0,1074.0374520000842,2.0,1.0,phase_3,,,,,220.0,5.0,44.0,88.0,264.0,220.0,176.0,132.0,gray,I
0.0,8.0,4.0,1.0,7.0,6.0,1646.1136469997657,2.0,1.0,phase_3,,,,,234.0,6.0,78.0,195.0,117.0,156.0,39.0,234.0,blue,square
0.0,2.0,1.0,0.0,7.0,4.0,1036.0316489995969,2.0,1.0,phase_3,,,,,294.0,6.0,98.0,196.0,49.0,294.0,147.0,245.0,cyan,diamond
0.0,3.0,2.0,0.0,7.0,4.0,1015.555353000309,2.0,1.0,phase_3,,,,,204.0,6.0,68.0,34.0,170.0,204.0,136.0,102.0,green,circle
0.0,4.0,4.0,0.0,7.0,4.0,1265.2682989992172,2.0,1.0,phase_3,,,,,216.0,4.0,54.0,162.0,108.0,216.0,324.0,270.0,gray,I
0.0,3.0,2.0,0.0,7.0,1.0,2275.430026000322,2.0,1.0,phase_3,,,,,170.0,5.0,170.0,34.0,204.0,68.0,102.0,136.0,green,circle
0.0,8.0,4.0,1.0,7.0,3.0,1259.8190429998797,2.0,1.0,phase_3,,,,,324.0,6.0,162.0,216.0,324.0,108.0,54.0,270.0,blue,square
0.0,3.0,2.0,0.0,7.0,4.0,1979.5889850001915,2.0,1.0,phase_3,,,,,264.0,6.0,132.0,88.0,220.0,264.0,176.0,44.0,green,circle
0.0,7.0,2.0,1.0,7.0,2.0,1108.5604070003685,2.0,1.0,phase_3,,,,,245.0,5.0,196.0,245.0,98.0,49.0,147.0,294.0,orange,triangle
0.0,8.0,4.0,1.0,7.0,1.0,856.1443700000382,2.0,1.0,phase_3,,,,,234.0,6.0,234.0,39.0,156.0,117.0,195.0,78.0,blue,square
0.0,8.0,4.0,1.0,7.0,3.0,1157.3477479996654,2.0,1.0,phase_3,,,,,220.0,5.0,264.0,132.0,220.0,44.0,176.0,88.0,blue,square
0.0,5.0,0.5,1.0,7.0,1.0,1069.964968000022,2.0,1.0,phase_3,,,,,136.0,4.0,136.0,204.0,34.0,102.0,170.0,68.0,magenta,flipped triangle
0.0,3.0,2.0,0.0,7.0,3.0,962.7790220001772,2.0,1.0,phase_3,,,,,294.0,6.0,245.0,49.0,294.0,147.0,196.0,98.0,green,circle
0.0,4.0,4.0,0.0,7.0,3.0,1077.0271829997,2.0,1.0,phase_3,,,,,234.0,6.0,39.0,156.0,234.0,78.0,195.0,117.0,gray,I
0.0,2.0,1.0,0.0,7.0,2.0,1196.1536779999733,3.0,1.0,phase_3,,,,,204.0,6.0,102.0,204.0,136.0,34.0,68.0,170.0,cyan,diamond
0.0,7.0,2.0,1.0,7.0,5.0,1495.962001000407,3.0,1.0,phase_3,,,,,204.0,6.0,170.0,68.0,34.0,102.0,204.0,136.0,orange,triangle
0.0,8.0,4.0,1.0,7.0,5.0,825.817207,3.0,1.0,phase_3,,,,,264.0,6.0,88.0,44.0,132.0,176.0,264.0,220.0,blue,square
0.0,2.0,1.0,0.0,7.0,4.0,913.82640700067,3.0,1.0,phase_3,,,,,245.0,5.0,147.0,49.0,294.0,245.0,196.0,98.0,cyan,diamond
0.0,8.0,4.0,1.0,7.0,5.0,818.5447510004451,3.0,1.0,phase_3,,,,,324.0,6.0,216.0,162.0,54.0,270.0,324.0,108.0,blue,square
0.0,4.0,4.0,0.0,7.0,1.0,935.3951990005952,3.0,1.0,phase_3,,,,,234.0,6.0,234.0,78.0,39.0,156.0,195.0,117.0,gray,I
0.0,6.0,1.0,1.0,7.0,2.0,1202.4485239999194,3.0,1.0,phase_3,,,,,264.0,6.0,88.0,264.0,176.0,220.0,132.0,44.0,yellow,cross
0.0,1.0,0.5,0.0,7.0,4.0,1334.1573059997245,3.0,1.0,phase_3,,,,,234.0,6.0,78.0,117.0,195.0,234.0,39.0,156.0,white,hexagon
0.0,7.0,2.0,1.0,7.0,2.0,2205.657698999857,3.0,1.0,phase_3,,,,,34.0,1.0,68.0,34.0,204.0,170.0,102.0,136.0,orange,triangle
0.0,4.0,4.0,0.0,7.0,4.0,964.8518470003182,3.0,1.0,phase_3,,,,,294.0,6.0,147.0,98.0,196.0,294.0,49.0,245.0,gray,I
0.0,6.0,1.0,1.0,7.0,4.0,1257.4031429994648,3.0,1.0,phase_3,,,,,245.0,5.0,294.0,147.0,98.0,245.0,196.0,49.0,yellow,cross
0.0,8.0,4.0,1.0,7.0,4.0,1247.2908740001003,3.0,1.0,phase_3,,,,,245.0,5.0,98.0,294.0,49.0,245.0,147.0,196.0,blue,square
0.0,5.0,0.5,1.0,7.0,2.0,1050.913553999635,3.0,1.0,phase_3,,,,,234.0,6.0,156.0,234.0,195.0,39.0,117.0,78.0,magenta,flipped triangle
0.0,1.0,0.5,0.0,7.0,1.0,1432.6174289999472,3.0,1.0,phase_3,,,,,234.0,6.0,234.0,156.0,78.0,39.0,117.0,195.0,white,hexagon
0.0,7.0,2.0,1.0,7.0,5.0,1140.1408339997945,3.0,1.0,phase_3,,,,,234.0,6.0,195.0,39.0,78.0,117.0,234.0,156.0,orange,triangle
0.0,3.0,2.0,0.0,7.0,2.0,884.2828970000483,3.0,1.0,phase_3,,,,,234.0,6.0,195.0,234.0,156.0,78.0,117.0,39.0,green,circle
0.0,6.0,1.0,1.0,7.0,2.0,972.7660270000342,3.0,1.0,phase_3,,,,,204.0,6.0,34.0,204.0,68.0,102.0,170.0,136.0,yellow,cross
0.0,6.0,1.0,1.0,7.0,4.0,1549.1213569994216,3.0,1.0,phase_3,,,,,234.0,6.0,78.0,39.0,156.0,234.0,117.0,195.0,yellow,cross
0.0,6.0,1.0,1.0,7.0,4.0,1124.8204410003382,3.0,1.0,phase_3,,,,,204.0,6.0,136.0,170.0,68.0,204.0,102.0,34.0,yellow,cross
0.0,5.0,0.5,1.0,7.0,6.0,1160.1121169996986,3.0,1.0,phase_3,,,,,294.0,6.0,98.0,49.0,147.0,196.0,245.0,294.0,magenta,flipped triangle
0.0,7.0,2.0,1.0,7.0,4.0,1637.264588000107,4.0,1.0,phase_3,,,,,324.0,6.0,162.0,270.0,108.0,324.0,216.0,54.0,orange,triangle
0.0,8.0,4.0,1.0,7.0,6.0,878.7654219995602,4.0,1.0,phase_3,,,,,294.0,6.0,147.0,245.0,98.0,196.0,49.0,294.0,blue,square
0.0,2.0,1.0,0.0,7.0,6.0,1145.6079339995997,4.0,1.0,phase_3,,,,,204.0,6.0,102.0,136.0,68.0,170.0,34.0,204.0,cyan,diamond
0.0,4.0,4.0,0.0,7.0,2.0,1618.3741260001625,4.0,1.0,phase_3,,,,,324.0,6.0,216.0,324.0,162.0,108.0,270.0,54.0,gray,I
0.0,1.0,0.5,0.0,7.0,2.0,1162.070966999636,4.0,1.0,phase_3,,,,,176.0,4.0,264.0,176.0,220.0,44.0,132.0,88.0,white,hexagon
0.0,5.0,0.5,1.0,7.0,6.0,1248.360059999868,4.0,1.0,phase_3,,,,,195.0,5.0,117.0,78.0,39.0,156.0,234.0,195.0,magenta,flipped triangle
0.0,2.0,1.0,0.0,7.0,5.0,678.2109289997607,4.0,1.0,phase_3,,,,,216.0,4.0,270.0,324.0,162.0,108.0,216.0,54.0,cyan,diamond
0.0,4.0,4.0,0.0,7.0,2.0,1463.042769999447,4.0,1.0,phase_3,,,,,204.0,6.0,68.0,204.0,102.0,34.0,170.0,136.0,gray,I
0.0,1.0,0.5,0.0,7.0,2.0,691.4108099999794,4.0,1.0,phase_3,,,,,136.0,4.0,170.0,136.0,204.0,102.0,34.0,68.0,white,hexagon
0.0,2.0,1.0,0.0,7.0,2.0,647.9546560003655,4.0,1.0,phase_3,,,,,270.0,5.0,162.0,270.0,216.0,54.0,324.0,108.0,cyan,diamond
0.0,5.0,0.5,1.0,7.0,3.0,1234.7003419999965,4.0,1.0,phase_3,,,,,324.0,6.0,270.0,54.0,324.0,162.0,216.0,108.0,magenta,flipped triangle
0.0,3.0,2.0,0.0,7.0,6.0,1429.2721859992523,4.0,1.0,phase_3,,,,,216.0,4.0,162.0,324.0,54.0,108.0,270.0,216.0,green,circle
0.0,4.0,4.0,0.0,7.0,1.0,1294.7872900003858,4.0,1.0,phase_3,,,,,204.0,6.0,204.0,102.0,170.0,136.0,34.0,68.0,gray,I
0.0,5.0,0.5,1.0,7.0,5.0,1335.7076570000572,4.0,1.0,phase_3,,,,,170.0,5.0,34.0,102.0,68.0,204.0,170.0,136.0,magenta,flipped triangle
0.0,7.0,2.0,1.0,7.0,2.0,954.7541140000247,4.0,1.0,phase_3,,,,,270.0,5.0,108.0,270.0,162.0,54.0,324.0,216.0,orange,triangle
0.0,1.0,0.5,0.0,7.0,1.0,850.6977840006584,4.0,1.0,phase_3,,,,,324.0,6.0,324.0,162.0,54.0,270.0,216.0,108.0,white,hexagon
0.0,6.0,1.0,1.0,7.0,5.0,736.6302749996976,4.0,1.0,phase_3,,,,,132.0,3.0,220.0,176.0,44.0,264.0,132.0,88.0,yellow,cross
0.0,3.0,2.0,0.0,7.0,4.0,780.0491750003857,4.0,1.0,phase_3,,,,,234.0,6.0,117.0,195.0,78.0,234.0,39.0,156.0,green,circle
0.0,3.0,2.0,0.0,7.0,1.0,998.6096980001092,4.0,1.0,phase_3,,,,,294.0,6.0,294.0,98.0,49.0,147.0,245.0,196.0,green,circle
0.0,8.0,4.0,1.0,7.0,6.0,1442.8602449997925,4.0,1.0,phase_3,,,,,204.0,6.0,68.0,34.0,170.0,102.0,136.0,204.0,blue,square
