raw_reward_magnitude,stim_reward,stepwise_reward_magnitude,paired_with_stopping,stim_location,response,reaction_time,block,num_trial_presentations,which_phase,stop_signal_trial_type,left_SSD,right_SSD,accuracy,chosen_bidding_amount,chosen_bidding_level,possible_bid_1,possible_bid_2,possible_bid_3,possible_bid_4,possible_bid_5,possible_bid_6,color_text,shape_text
0.0,2.0,0.0,0.0,1.0,1.0,873.7821889999395,1.0,1.0,phase_1,,,,,,,,,,,,,yellow,triangle
211.0,7.0,2.0,1.0,1.0,1.0,562.5275610000244,1.0,1.0,phase_1,,,,,,,,,,,,,cyan,diamond
208.0,7.0,2.0,1.0,4.0,4.0,515.6655219998356,1.0,1.0,phase_1,,,,,,,,,,,,,cyan,diamond
201.0,7.0,2.0,1.0,3.0,3.0,496.3966860000255,1.0,1.0,phase_1,,,,,,,,,,,,,cyan,diamond
72.0,5.0,0.5,1.0,3.0,3.0,503.9319150000665,1.0,1.0,phase_1,,,,,,,,,,,,,green,square
178.0,3.0,2.0,0.0,4.0,4.0,838.5644699997101,1.0,1.0,phase_1,,,,,,,,,,,,,white,hexagon
194.0,3.0,2.0,0.0,1.0,1.0,540.7251990000077,1.0,1.0,phase_1,,,,,,,,,,,,,white,hexagon
76.0,6.0,1.0,1.0,1.0,1.0,593.7827130001097,1.0,1.0,phase_1,,,,,,,,,,,,,gray,circle
59.0,1.0,0.5,0.0,4.0,4.0,324.5681769999464,1.0,1.0,phase_1,,,,,,,,,,,,,blue,flipped triangle
92.0,6.0,1.0,1.0,4.0,4.0,418.6290950001421,1.0,1.0,phase_1,,,,,,,,,,,,,gray,circle
214.0,3.0,2.0,0.0,3.0,3.0,487.7018649999627,1.0,1.0,phase_1,,,,,,,,,,,,,white,hexagon
407.0,4.0,4.0,0.0,3.0,3.0,558.0034869999508,1.0,1.0,phase_1,,,,,,,,,,,,,magenta,I
0.0,8.0,0.0,1.0,2.0,2.0,639.097331999892,1.0,1.0,phase_1,,,,,,,,,,,,,orange,cross
0.0,6.0,0.0,1.0,1.0,1.0,709.8357619997842,1.0,1.0,phase_1,,,,,,,,,,,,,gray,circle
415.0,4.0,4.0,0.0,4.0,4.0,484.6945869999217,1.0,2.0,phase_1,,,,,,,,,,,,,magenta,I
407.0,8.0,4.0,1.0,4.0,4.0,291.1854680000942,1.0,1.0,phase_1,,,,,,,,,,,,,orange,cross
124.0,6.0,1.0,1.0,4.0,4.0,365.2602380002463,1.0,1.0,phase_1,,,,,,,,,,,,,gray,circle
26.0,5.0,0.5,1.0,1.0,1.0,547.2075190000396,1.0,1.0,phase_1,,,,,,,,,,,,,green,square
221.0,3.0,2.0,0.0,2.0,2.0,533.803460999934,1.0,1.0,phase_1,,,,,,,,,,,,,white,hexagon
395.0,8.0,4.0,1.0,2.0,2.0,440.6892140000309,1.0,1.0,phase_1,,,,,,,,,,,,,orange,cross
381.0,4.0,4.0,0.0,3.0,3.0,439.3574639998405,1.0,1.0,phase_1,,,,,,,,,,,,,magenta,I
217.0,3.0,2.0,0.0,1.0,1.0,593.5555529999874,1.0,1.0,phase_1,,,,,,,,,,,,,white,hexagon
118.0,6.0,1.0,1.0,4.0,4.0,477.8127140002652,1.0,1.0,phase_1,,,,,,,,,,,,,gray,circle
0.0,7.0,0.0,1.0,1.0,1.0,571.7808100002912,1.0,1.0,phase_1,,,,,,,,,,,,,cyan,diamond
0.0,2.0,0.0,0.0,4.0,4.0,580.8896720000121,1.0,1.0,phase_1,,,,,,,,,,,,,yellow,triangle
34.0,5.0,0.5,1.0,1.0,1.0,388.6520490000293,1.0,1.0,phase_1,,,,,,,,,,,,,green,square
0.0,3.0,0.0,0.0,2.0,2.0,451.7511650001324,1.0,1.0,phase_1,,,,,,,,,,,,,white,hexagon
417.0,8.0,4.0,1.0,2.0,2.0,412.1431639996444,1.0,1.0,phase_1,,,,,,,,,,,,,orange,cross
201.0,3.0,2.0,0.0,1.0,1.0,570.578673,1.0,1.0,phase_1,,,,,,,,,,,,,white,hexagon
220.0,7.0,2.0,1.0,2.0,2.0,405.4953909999312,1.0,1.0,phase_1,,,,,,,,,,,,,cyan,diamond
193.0,3.0,2.0,0.0,4.0,4.0,508.29208000004655,1.0,1.0,phase_1,,,,,,,,,,,,,white,hexagon
219.0,3.0,2.0,0.0,1.0,1.0,547.2850770001969,1.0,1.0,phase_1,,,,,,,,,,,,,white,hexagon
196.0,3.0,2.0,0.0,2.0,2.0,448.88952600013,1.0,1.0,phase_1,,,,,,,,,,,,,white,hexagon
423.0,4.0,4.0,0.0,2.0,2.0,404.0526519997911,1.0,1.0,phase_1,,,,,,,,,,,,,magenta,I
209.0,7.0,2.0,1.0,4.0,4.0,529.1083179999987,1.0,1.0,phase_1,,,,,,,,,,,,,cyan,diamond
208.0,3.0,2.0,0.0,3.0,3.0,504.8069019999275,1.0,1.0,phase_1,,,,,,,,,,,,,white,hexagon
85.0,6.0,1.0,1.0,3.0,3.0,413.6619910000263,1.0,1.0,phase_1,,,,,,,,,,,,,gray,circle
0.0,3.0,0.0,0.0,1.0,1.0,304.5539149998149,1.0,1.0,phase_1,,,,,,,,,,,,,white,hexagon
388.0,4.0,4.0,0.0,2.0,2.0,819.4520179999927,1.0,1.0,phase_1,,,,,,,,,,,,,magenta,I
0.0,2.0,0.0,0.0,3.0,3.0,543.4718830001657,1.0,1.0,phase_1,,,,,,,,,,,,,yellow,triangle
119.0,2.0,1.0,0.0,2.0,2.0,579.1487639999104,1.0,1.0,phase_1,,,,,,,,,,,,,yellow,triangle
40.0,5.0,0.5,1.0,2.0,2.0,535.4379059999701,1.0,1.0,phase_1,,,,,,,,,,,,,green,square
177.0,7.0,2.0,1.0,1.0,1.0,360.7171060002656,1.0,1.0,phase_1,,,,,,,,,,,,,cyan,diamond
46.0,5.0,0.5,1.0,3.0,3.0,487.1812490000593,1.0,1.0,phase_1,,,,,,,,,,,,,green,square
68.0,5.0,0.5,1.0,3.0,3.0,530.048230000375,1.0,1.0,phase_1,,,,,,,,,,,,,green,square
0.0,2.0,0.0,0.0,1.0,1.0,370.5970930000148,1.0,1.0,phase_1,,,,,,,,,,,,,yellow,triangle
90.0,6.0,1.0,1.0,1.0,1.0,321.4551370001572,1.0,1.0,phase_1,,,,,,,,,,,,,gray,circle
0.0,3.0,0.0,0.0,1.0,1.0,300.3368140002749,1.0,1.0,phase_1,,,,,,,,,,,,,white,hexagon
85.0,2.0,1.0,0.0,4.0,4.0,491.2355730002673,1.0,1.0,phase_1,,,,,,,,,,,,,yellow,triangle
221.0,7.0,2.0,1.0,3.0,3.0,356.776558999627,1.0,1.0,phase_1,,,,,,,,,,,,,cyan,diamond
412.0,4.0,4.0,0.0,4.0,4.0,501.49871400026313,1.0,1.0,phase_1,,,,,,,,,,,,,magenta,I
33.0,5.0,0.5,1.0,4.0,4.0,393.0548480002471,1.0,1.0,phase_1,,,,,,,,,,,,,green,square
77.0,2.0,1.0,0.0,2.0,2.0,616.2700059999224,1.0,1.0,phase_1,,,,,,,,,,,,,yellow,triangle
0.0,6.0,0.0,1.0,1.0,1.0,527.9247650000798,1.0,1.0,phase_1,,,,,,,,,,,,,gray,circle
90.0,2.0,1.0,0.0,2.0,2.0,379.9510859998918,1.0,1.0,phase_1,,,,,,,,,,,,,yellow,triangle
50.0,5.0,0.5,1.0,2.0,2.0,491.5031049999925,1.0,1.0,phase_1,,,,,,,,,,,,,green,square
107.0,2.0,1.0,0.0,2.0,2.0,382.914730000266,1.0,1.0,phase_1,,,,,,,,,,,,,yellow,triangle
392.0,4.0,4.0,0.0,4.0,4.0,433.8942569997925,1.0,1.0,phase_1,,,,,,,,,,,,,magenta,I
412.0,4.0,4.0,0.0,2.0,2.0,342.5285499997699,1.0,1.0,phase_1,,,,,,,,,,,,,magenta,I
0.0,1.0,0.0,0.0,3.0,3.0,451.0479880000275,1.0,1.0,phase_1,,,,,,,,,,,,,blue,flipped triangle
380.0,8.0,4.0,1.0,1.0,1.0,520.1095429997622,1.0,1.0,phase_1,,,,,,,,,,,,,orange,cross
388.0,8.0,4.0,1.0,1.0,1.0,486.6794670001582,1.0,1.0,phase_1,,,,,,,,,,,,,orange,cross
0.0,4.0,0.0,0.0,3.0,3.0,483.7278149998383,1.0,1.0,phase_1,,,,,,,,,,,,,magenta,I
211.0,3.0,2.0,0.0,3.0,3.0,478.7453659996572,1.0,1.0,phase_1,,,,,,,,,,,,,white,hexagon
401.0,8.0,4.0,1.0,3.0,3.0,430.031708000115,1.0,1.0,phase_1,,,,,,,,,,,,,orange,cross
41.0,1.0,0.5,0.0,2.0,2.0,543.9711750000242,1.0,1.0,phase_1,,,,,,,,,,,,,blue,flipped triangle
34.0,1.0,0.5,0.0,4.0,4.0,711.3758010000311,1.0,1.0,phase_1,,,,,,,,,,,,,blue,flipped triangle
208.0,7.0,2.0,1.0,3.0,3.0,389.941025999633,1.0,1.0,phase_1,,,,,,,,,,,,,cyan,diamond
42.0,1.0,0.5,0.0,3.0,3.0,464.8389720000523,1.0,1.0,phase_1,,,,,,,,,,,,,blue,flipped triangle
186.0,3.0,2.0,0.0,3.0,3.0,442.6508890001059,1.0,1.0,phase_1,,,,,,,,,,,,,white,hexagon
216.0,7.0,2.0,1.0,1.0,1.0,379.0304429999196,1.0,1.0,phase_1,,,,,,,,,,,,,cyan,diamond
94.0,2.0,1.0,0.0,4.0,4.0,417.9894059998332,1.0,1.0,phase_1,,,,,,,,,,,,,yellow,triangle
58.0,5.0,0.5,1.0,1.0,1.0,417.4237259999245,1.0,1.0,phase_1,,,,,,,,,,,,,green,square
0.0,4.0,0.0,0.0,4.0,4.0,345.2527199997348,1.0,1.0,phase_1,,,,,,,,,,,,,magenta,I
0.0,8.0,0.0,1.0,4.0,4.0,397.7162569999564,1.0,1.0,phase_1,,,,,,,,,,,,,orange,cross
412.0,8.0,4.0,1.0,3.0,3.0,385.5672560002858,1.0,2.0,phase_1,,,,,,,,,,,,,orange,cross
117.0,6.0,1.0,1.0,2.0,2.0,431.7808549999427,1.0,1.0,phase_1,,,,,,,,,,,,,gray,circle
30.0,1.0,0.5,0.0,4.0,4.0,273.7884639996082,1.0,1.0,phase_1,,,,,,,,,,,,,blue,flipped triangle
219.0,7.0,2.0,1.0,3.0,3.0,389.3359929998041,1.0,1.0,phase_1,,,,,,,,,,,,,cyan,diamond
412.0,8.0,4.0,1.0,2.0,2.0,364.1378610000174,1.0,1.0,phase_1,,,,,,,,,,,,,orange,cross
423.0,8.0,4.0,1.0,3.0,3.0,393.4703430004447,1.0,1.0,phase_1,,,,,,,,,,,,,orange,cross
424.0,4.0,4.0,0.0,3.0,3.0,341.5105640001457,1.0,1.0,phase_1,,,,,,,,,,,,,magenta,I
413.0,4.0,4.0,0.0,4.0,4.0,327.3990460002096,1.0,1.0,phase_1,,,,,,,,,,,,,magenta,I
392.0,8.0,4.0,1.0,4.0,4.0,320.0569119999272,1.0,1.0,phase_1,,,,,,,,,,,,,orange,cross
217.0,7.0,2.0,1.0,1.0,1.0,464.0468890002012,1.0,1.0,phase_1,,,,,,,,,,,,,cyan,diamond
402.0,4.0,4.0,0.0,3.0,3.0,389.7714169997925,1.0,1.0,phase_1,,,,,,,,,,,,,magenta,I
122.0,6.0,1.0,1.0,1.0,1.0,376.415414999883,1.0,1.0,phase_1,,,,,,,,,,,,,gray,circle
102.0,2.0,1.0,0.0,3.0,3.0,540.3802939999878,1.0,1.0,phase_1,,,,,,,,,,,,,yellow,triangle
71.0,1.0,0.5,0.0,1.0,1.0,374.8843880002823,1.0,1.0,phase_1,,,,,,,,,,,,,blue,flipped triangle
0.0,8.0,0.0,1.0,1.0,1.0,358.1976330001453,1.0,1.0,phase_1,,,,,,,,,,,,,orange,cross
94.0,6.0,1.0,1.0,4.0,4.0,399.4910500000515,1.0,1.0,phase_1,,,,,,,,,,,,,gray,circle
211.0,7.0,2.0,1.0,1.0,1.0,433.4824570000819,1.0,1.0,phase_1,,,,,,,,,,,,,cyan,diamond
41.0,5.0,0.5,1.0,1.0,1.0,331.4403130002574,1.0,1.0,phase_1,,,,,,,,,,,,,green,square
424.0,8.0,4.0,1.0,3.0,3.0,450.6395610001164,1.0,1.0,phase_1,,,,,,,,,,,,,orange,cross
0.0,7.0,0.0,1.0,4.0,4.0,329.3643060001159,1.0,1.0,phase_1,,,,,,,,,,,,,cyan,diamond
193.0,7.0,2.0,1.0,4.0,4.0,360.3229010000177,1.0,1.0,phase_1,,,,,,,,,,,,,cyan,diamond
82.0,6.0,1.0,1.0,3.0,3.0,351.8286269995769,1.0,1.0,phase_1,,,,,,,,,,,,,gray,circle
101.0,2.0,1.0,0.0,1.0,1.0,372.1773669999493,1.0,1.0,phase_1,,,,,,,,,,,,,yellow,triangle
376.0,4.0,4.0,0.0,2.0,2.0,372.4363380001705,1.0,1.0,phase_1,,,,,,,,,,,,,magenta,I
376.0,8.0,4.0,1.0,4.0,4.0,284.5499559998643,1.0,1.0,phase_1,,,,,,,,,,,,,orange,cross
0.0,1.0,0.0,0.0,1.0,1.0,433.095762999983,2.0,1.0,phase_1,,,,,,,,,,,,,blue,flipped triangle
383.0,8.0,4.0,1.0,1.0,1.0,384.3786499996895,2.0,1.0,phase_1,,,,,,,,,,,,,orange,cross
71.0,5.0,0.5,1.0,4.0,4.0,352.5680779998765,2.0,1.0,phase_1,,,,,,,,,,,,,green,square
375.0,8.0,4.0,1.0,1.0,1.0,393.1332749998546,2.0,1.0,phase_1,,,,,,,,,,,,,orange,cross
0.0,2.0,0.0,0.0,4.0,4.0,382.3117009997077,2.0,1.0,phase_1,,,,,,,,,,,,,yellow,triangle
417.0,4.0,4.0,0.0,1.0,1.0,347.2068910000416,2.0,1.0,phase_1,,,,,,,,,,,,,magenta,I
26.0,1.0,0.5,0.0,3.0,3.0,370.1282000001811,2.0,1.0,phase_1,,,,,,,,,,,,,blue,flipped triangle
82.0,6.0,1.0,1.0,1.0,1.0,335.1052250000066,2.0,1.0,phase_1,,,,,,,,,,,,,gray,circle
67.0,1.0,0.5,0.0,2.0,2.0,279.690656999719,2.0,1.0,phase_1,,,,,,,,,,,,,blue,flipped triangle
90.0,6.0,1.0,1.0,1.0,1.0,323.7247090000892,2.0,1.0,phase_1,,,,,,,,,,,,,gray,circle
393.0,4.0,4.0,0.0,4.0,4.0,385.2665170002183,2.0,1.0,phase_1,,,,,,,,,,,,,magenta,I
0.0,5.0,0.0,1.0,4.0,4.0,391.4261290001377,2.0,1.0,phase_1,,,,,,,,,,,,,green,square
208.0,3.0,2.0,0.0,1.0,1.0,444.5981510002639,2.0,2.0,phase_1,,,,,,,,,,,,,white,hexagon
211.0,3.0,2.0,0.0,3.0,3.0,588.0598129997452,2.0,2.0,phase_1,,,,,,,,,,,,,white,hexagon
0.0,2.0,0.0,0.0,1.0,1.0,425.7739469999251,2.0,1.0,phase_1,,,,,,,,,,,,,yellow,triangle
94.0,6.0,1.0,1.0,2.0,2.0,483.4910959998524,2.0,1.0,phase_1,,,,,,,,,,,,,gray,circle
0.0,6.0,0.0,1.0,1.0,1.0,437.1957599996676,2.0,1.0,phase_1,,,,,,,,,,,,,gray,circle
408.0,8.0,4.0,1.0,2.0,2.0,394.72430900013927,2.0,1.0,phase_1,,,,,,,,,,,,,orange,cross
177.0,3.0,2.0,0.0,3.0,3.0,385.47296500019,2.0,1.0,phase_1,,,,,,,,,,,,,white,hexagon
112.0,6.0,1.0,1.0,1.0,1.0,328.3197020000443,2.0,1.0,phase_1,,,,,,,,,,,,,gray,circle
77.0,6.0,1.0,1.0,3.0,3.0,373.1172000002516,2.0,1.0,phase_1,,,,,,,,,,,,,gray,circle
186.0,7.0,2.0,1.0,4.0,4.0,424.3309140001656,2.0,1.0,phase_1,,,,,,,,,,,,,cyan,diamond
49.0,5.0,0.5,1.0,3.0,3.0,445.2823300002819,2.0,1.0,phase_1,,,,,,,,,,,,,green,square
383.0,8.0,4.0,1.0,2.0,2.0,425.2477740001268,2.0,1.0,phase_1,,,,,,,,,,,,,orange,cross
383.0,4.0,4.0,0.0,4.0,4.0,324.9871859998166,2.0,1.0,phase_1,,,,,,,,,,,,,magenta,I
0.0,7.0,0.0,1.0,1.0,1.0,651.704946999871,2.0,1.0,phase_1,,,,,,,,,,,,,cyan,diamond
73.0,5.0,0.5,1.0,2.0,2.0,487.5245109997195,2.0,1.0,phase_1,,,,,,,,,,,,,green,square
0.0,7.0,0.0,1.0,4.0,4.0,376.8730679998953,2.0,1.0,phase_1,,,,,,,,,,,,,cyan,diamond
38.0,1.0,0.5,0.0,4.0,4.0,434.0445020002335,2.0,1.0,phase_1,,,,,,,,,,,,,blue,flipped triangle
180.0,7.0,2.0,1.0,2.0,2.0,352.4480890000632,2.0,1.0,phase_1,,,,,,,,,,,,,cyan,diamond
196.0,3.0,2.0,0.0,1.0,1.0,320.6456160000925,2.0,1.0,phase_1,,,,,,,,,,,,,white,hexagon
0.0,8.0,0.0,1.0,2.0,2.0,360.51365800039997,2.0,1.0,phase_1,,,,,,,,,,,,,orange,cross
0.0,3.0,0.0,0.0,1.0,1.0,348.0106429997249,2.0,1.0,phase_1,,,,,,,,,,,,,white,hexagon
68.0,1.0,0.5,0.0,2.0,2.0,318.0296149998867,2.0,1.0,phase_1,,,,,,,,,,,,,blue,flipped triangle
0.0,8.0,0.0,1.0,4.0,4.0,630.1314719999027,2.0,1.0,phase_1,,,,,,,,,,,,,orange,cross
114.0,6.0,1.0,1.0,1.0,1.0,379.9501270000291,2.0,1.0,phase_1,,,,,,,,,,,,,gray,circle
53.0,5.0,0.5,1.0,3.0,3.0,489.1664170004333,2.0,1.0,phase_1,,,,,,,,,,,,,green,square
178.0,7.0,2.0,1.0,1.0,1.0,390.3248050000911,2.0,1.0,phase_1,,,,,,,,,,,,,cyan,diamond
0.0,4.0,0.0,0.0,4.0,4.0,413.4913190000588,2.0,1.0,phase_1,,,,,,,,,,,,,magenta,I
0.0,6.0,0.0,1.0,4.0,4.0,419.784379000248,2.0,1.0,phase_1,,,,,,,,,,,,,gray,circle
0.0,4.0,0.0,0.0,4.0,4.0,331.4719750001131,2.0,1.0,phase_1,,,,,,,,,,,,,magenta,I
176.0,7.0,2.0,1.0,3.0,3.0,333.5885920000692,2.0,1.0,phase_1,,,,,,,,,,,,,cyan,diamond
70.0,5.0,0.5,1.0,3.0,3.0,385.1043599997865,2.0,1.0,phase_1,,,,,,,,,,,,,green,square
415.0,8.0,4.0,1.0,1.0,1.0,478.4253230000104,2.0,1.0,phase_1,,,,,,,,,,,,,orange,cross
407.0,8.0,4.0,1.0,2.0,2.0,359.7874199999751,2.0,1.0,phase_1,,,,,,,,,,,,,orange,cross
92.0,6.0,1.0,1.0,3.0,3.0,719.493811999655,2.0,1.0,phase_1,,,,,,,,,,,,,gray,circle
97.0,2.0,1.0,0.0,1.0,1.0,869.5196439998654,2.0,1.0,phase_1,,,,,,,,,,,,,yellow,triangle
0.0,4.0,0.0,0.0,1.0,1.0,437.1101860001545,2.0,1.0,phase_1,,,,,,,,,,,,,magenta,I
393.0,8.0,4.0,1.0,2.0,2.0,357.9700959999172,2.0,1.0,phase_1,,,,,,,,,,,,,orange,cross
38.0,5.0,0.5,1.0,4.0,4.0,440.0785080001697,2.0,1.0,phase_1,,,,,,,,,,,,,green,square
417.0,8.0,4.0,1.0,1.0,1.0,468.3965009999156,2.0,1.0,phase_1,,,,,,,,,,,,,orange,cross
405.0,4.0,4.0,0.0,1.0,1.0,366.277030999754,2.0,1.0,phase_1,,,,,,,,,,,,,magenta,I
44.0,5.0,0.5,1.0,2.0,2.0,399.1979460001857,2.0,1.0,phase_1,,,,,,,,,,,,,green,square
393.0,8.0,4.0,1.0,3.0,3.0,584.4255599999997,2.0,1.0,phase_1,,,,,,,,,,,,,orange,cross
94.0,2.0,1.0,0.0,3.0,3.0,543.251908000002,2.0,1.0,phase_1,,,,,,,,,,,,,yellow,triangle
33.0,1.0,0.5,0.0,3.0,3.0,494.8733549999815,2.0,1.0,phase_1,,,,,,,,,,,,,blue,flipped triangle
106.0,2.0,1.0,0.0,1.0,1.0,302.9727379998803,2.0,1.0,phase_1,,,,,,,,,,,,,yellow,triangle
109.0,6.0,1.0,1.0,4.0,4.0,494.2562920000455,2.0,3.0,phase_1,,,,,,,,,,,,,gray,circle
117.0,2.0,1.0,0.0,3.0,3.0,632.8958509998301,2.0,1.0,phase_1,,,,,,,,,,,,,yellow,triangle
92.0,2.0,1.0,0.0,4.0,4.0,409.6478210003624,2.0,1.0,phase_1,,,,,,,,,,,,,yellow,triangle
0.0,2.0,0.0,0.0,2.0,2.0,416.582445000131,2.0,1.0,phase_1,,,,,,,,,,,,,yellow,triangle
382.0,8.0,4.0,1.0,1.0,1.0,417.0272750002368,2.0,1.0,phase_1,,,,,,,,,,,,,orange,cross
199.0,3.0,2.0,0.0,2.0,2.0,356.2287469999319,2.0,1.0,phase_1,,,,,,,,,,,,,white,hexagon
86.0,2.0,1.0,0.0,4.0,4.0,379.2207079995933,2.0,1.0,phase_1,,,,,,,,,,,,,yellow,triangle
107.0,6.0,1.0,1.0,2.0,2.0,280.4117199998472,2.0,1.0,phase_1,,,,,,,,,,,,,gray,circle
0.0,1.0,0.0,0.0,2.0,2.0,422.3251660000642,2.0,1.0,phase_1,,,,,,,,,,,,,blue,flipped triangle
383.0,4.0,4.0,0.0,1.0,1.0,404.6920499999942,2.0,1.0,phase_1,,,,,,,,,,,,,magenta,I
67.0,5.0,0.5,1.0,2.0,2.0,310.9716809999554,2.0,1.0,phase_1,,,,,,,,,,,,,green,square
376.0,4.0,4.0,0.0,2.0,2.0,404.419340000004,2.0,1.0,phase_1,,,,,,,,,,,,,magenta,I
49.0,5.0,0.5,1.0,4.0,4.0,464.3892120002419,2.0,1.0,phase_1,,,,,,,,,,,,,green,square
381.0,8.0,4.0,1.0,4.0,4.0,416.8812940001771,2.0,1.0,phase_1,,,,,,,,,,,,,orange,cross
0.0,3.0,0.0,0.0,4.0,4.0,500.93614700017497,2.0,1.0,phase_1,,,,,,,,,,,,,white,hexagon
28.0,5.0,0.5,1.0,2.0,2.0,378.4006440000667,2.0,1.0,phase_1,,,,,,,,,,,,,green,square
70.0,1.0,0.5,0.0,1.0,1.0,349.1558670002632,2.0,1.0,phase_1,,,,,,,,,,,,,blue,flipped triangle
0.0,7.0,0.0,1.0,4.0,4.0,436.2857400001303,2.0,1.0,phase_1,,,,,,,,,,,,,cyan,diamond
0.0,5.0,0.0,1.0,2.0,2.0,402.3178539996479,2.0,1.0,phase_1,,,,,,,,,,,,,green,square
49.0,1.0,0.5,0.0,1.0,1.0,419.9442359999921,2.0,1.0,phase_1,,,,,,,,,,,,,blue,flipped triangle
0.0,5.0,0.0,1.0,3.0,3.0,465.0897960000293,2.0,1.0,phase_1,,,,,,,,,,,,,green,square
28.0,1.0,0.5,0.0,4.0,4.0,471.4366610000979,2.0,1.0,phase_1,,,,,,,,,,,,,blue,flipped triangle
124.0,2.0,1.0,0.0,3.0,3.0,542.9093319999083,2.0,1.0,phase_1,,,,,,,,,,,,,yellow,triangle
92.0,2.0,1.0,0.0,2.0,2.0,343.3233329997165,2.0,1.0,phase_1,,,,,,,,,,,,,yellow,triangle
35.0,1.0,0.5,0.0,1.0,1.0,311.2804590000451,2.0,1.0,phase_1,,,,,,,,,,,,,blue,flipped triangle
417.0,4.0,4.0,0.0,4.0,4.0,587.8250050000133,2.0,1.0,phase_1,,,,,,,,,,,,,magenta,I
193.0,3.0,2.0,0.0,2.0,2.0,953.4539829996902,2.0,1.0,phase_1,,,,,,,,,,,,,white,hexagon
118.0,2.0,1.0,0.0,1.0,1.0,359.3257299999095,2.0,1.0,phase_1,,,,,,,,,,,,,yellow,triangle
223.0,7.0,2.0,1.0,1.0,1.0,325.1981570001589,2.0,1.0,phase_1,,,,,,,,,,,,,cyan,diamond
375.0,4.0,4.0,0.0,3.0,3.0,457.5703669997892,2.0,1.0,phase_1,,,,,,,,,,,,,magenta,I
199.0,3.0,2.0,0.0,2.0,2.0,333.591424000133,2.0,1.0,phase_1,,,,,,,,,,,,,white,hexagon
0.0,3.0,0.0,0.0,3.0,3.0,474.1292009998687,2.0,1.0,phase_1,,,,,,,,,,,,,white,hexagon
386.0,4.0,4.0,0.0,1.0,1.0,369.9167390000184,2.0,1.0,phase_1,,,,,,,,,,,,,magenta,I
90.0,2.0,1.0,0.0,1.0,1.0,394.7792310000295,2.0,1.0,phase_1,,,,,,,,,,,,,yellow,triangle
198.0,3.0,2.0,0.0,4.0,4.0,589.0851189997193,2.0,1.0,phase_1,,,,,,,,,,,,,white,hexagon
179.0,7.0,2.0,1.0,1.0,1.0,411.2149859997771,2.0,1.0,phase_1,,,,,,,,,,,,,cyan,diamond
386.0,8.0,4.0,1.0,1.0,1.0,425.2268899999762,2.0,1.0,phase_1,,,,,,,,,,,,,orange,cross
0.0,6.0,0.0,1.0,1.0,1.0,380.9955239998999,2.0,1.0,phase_1,,,,,,,,,,,,,gray,circle
403.0,8.0,4.0,1.0,3.0,3.0,505.22101100023065,2.0,1.0,phase_1,,,,,,,,,,,,,orange,cross
109.0,2.0,1.0,0.0,1.0,1.0,312.4047930000415,2.0,1.0,phase_1,,,,,,,,,,,,,yellow,triangle
61.0,5.0,0.5,1.0,2.0,2.0,346.6114970001399,2.0,1.0,phase_1,,,,,,,,,,,,,green,square
199.0,7.0,2.0,1.0,3.0,3.0,477.1846710000318,2.0,1.0,phase_1,,,,,,,,,,,,,cyan,diamond
0.0,5.0,0.0,1.0,4.0,4.0,465.3106309997383,2.0,1.0,phase_1,,,,,,,,,,,,,green,square
0.0,4.0,0.0,0.0,1.0,1.0,411.9996629997331,3.0,1.0,phase_1,,,,,,,,,,,,,magenta,I
405.0,4.0,4.0,0.0,1.0,1.0,332.506046999697,3.0,1.0,phase_1,,,,,,,,,,,,,magenta,I
53.0,1.0,0.5,0.0,2.0,2.0,361.2195780001457,3.0,1.0,phase_1,,,,,,,,,,,,,blue,flipped triangle
116.0,2.0,1.0,0.0,3.0,3.0,497.1670499999163,3.0,1.0,phase_1,,,,,,,,,,,,,yellow,triangle
180.0,7.0,2.0,1.0,1.0,1.0,516.2971639997522,3.0,1.0,phase_1,,,,,,,,,,,,,cyan,diamond
189.0,3.0,2.0,0.0,2.0,2.0,328.325789000246,3.0,1.0,phase_1,,,,,,,,,,,,,white,hexagon
189.0,7.0,2.0,1.0,4.0,4.0,399.4861549999768,3.0,1.0,phase_1,,,,,,,,,,,,,cyan,diamond
62.0,1.0,0.5,0.0,4.0,4.0,465.4033080000772,3.0,1.0,phase_1,,,,,,,,,,,,,blue,flipped triangle
113.0,6.0,1.0,1.0,3.0,3.0,569.3660590000036,3.0,1.0,phase_1,,,,,,,,,,,,,gray,circle
72.0,1.0,0.5,0.0,3.0,3.0,423.2704969999759,3.0,1.0,phase_1,,,,,,,,,,,,,blue,flipped triangle
68.0,5.0,0.5,1.0,2.0,2.0,454.7609810001631,3.0,1.0,phase_1,,,,,,,,,,,,,green,square
41.0,1.0,0.5,0.0,1.0,1.0,513.6183960003109,3.0,1.0,phase_1,,,,,,,,,,,,,blue,flipped triangle
405.0,8.0,4.0,1.0,4.0,4.0,379.3468889998621,3.0,1.0,phase_1,,,,,,,,,,,,,orange,cross
407.0,4.0,4.0,0.0,3.0,3.0,364.3255860001773,3.0,1.0,phase_1,,,,,,,,,,,,,magenta,I
423.0,8.0,4.0,1.0,4.0,4.0,399.3858100002398,3.0,1.0,phase_1,,,,,,,,,,,,,orange,cross
0.0,1.0,0.0,0.0,2.0,2.0,433.684235000328,3.0,1.0,phase_1,,,,,,,,,,,,,blue,flipped triangle
189.0,7.0,2.0,1.0,4.0,4.0,469.9007780000102,3.0,1.0,phase_1,,,,,,,,,,,,,cyan,diamond
29.0,5.0,0.5,1.0,1.0,1.0,420.8611210001436,3.0,1.0,phase_1,,,,,,,,,,,,,green,square
0.0,7.0,0.0,1.0,4.0,4.0,411.9902580000598,3.0,1.0,phase_1,,,,,,,,,,,,,cyan,diamond
0.0,6.0,0.0,1.0,2.0,2.0,402.8771140001481,3.0,1.0,phase_1,,,,,,,,,,,,,gray,circle
0.0,5.0,0.0,1.0,2.0,2.0,427.8374870000334,3.0,1.0,phase_1,,,,,,,,,,,,,green,square
0.0,4.0,0.0,0.0,4.0,4.0,382.9868610000631,3.0,1.0,phase_1,,,,,,,,,,,,,magenta,I
42.0,5.0,0.5,1.0,1.0,1.0,372.1482910000304,3.0,1.0,phase_1,,,,,,,,,,,,,green,square
0.0,1.0,0.0,0.0,3.0,3.0,455.2884119998452,3.0,1.0,phase_1,,,,,,,,,,,,,blue,flipped triangle
404.0,8.0,4.0,1.0,4.0,4.0,352.605265999955,3.0,1.0,phase_1,,,,,,,,,,,,,orange,cross
77.0,6.0,1.0,1.0,2.0,2.0,388.3039769998504,3.0,1.0,phase_1,,,,,,,,,,,,,gray,circle
110.0,2.0,1.0,0.0,2.0,2.0,477.4323380001988,3.0,1.0,phase_1,,,,,,,,,,,,,yellow,triangle
46.0,1.0,0.5,0.0,2.0,2.0,480.9596879999844,3.0,1.0,phase_1,,,,,,,,,,,,,blue,flipped triangle
180.0,3.0,2.0,0.0,3.0,3.0,521.438520999709,3.0,1.0,phase_1,,,,,,,,,,,,,white,hexagon
50.0,1.0,0.5,0.0,4.0,4.0,451.9413120001445,3.0,1.0,phase_1,,,,,,,,,,,,,blue,flipped triangle
60.0,1.0,0.5,0.0,3.0,3.0,393.8866869998492,3.0,1.0,phase_1,,,,,,,,,,,,,blue,flipped triangle
395.0,4.0,4.0,0.0,1.0,1.0,452.0358959998702,3.0,1.0,phase_1,,,,,,,,,,,,,magenta,I
219.0,7.0,2.0,1.0,3.0,3.0,456.2432340003397,3.0,1.0,phase_1,,,,,,,,,,,,,cyan,diamond
85.0,2.0,1.0,0.0,3.0,3.0,436.8155470001511,3.0,1.0,phase_1,,,,,,,,,,,,,yellow,triangle
0.0,7.0,0.0,1.0,4.0,4.0,331.4936310002849,3.0,1.0,phase_1,,,,,,,,,,,,,cyan,diamond
424.0,4.0,4.0,0.0,4.0,4.0,374.2847680000523,3.0,1.0,phase_1,,,,,,,,,,,,,magenta,I
0.0,8.0,0.0,1.0,2.0,2.0,500.0327220000145,3.0,1.0,phase_1,,,,,,,,,,,,,orange,cross
415.0,4.0,4.0,0.0,3.0,3.0,422.3623849998148,3.0,1.0,phase_1,,,,,,,,,,,,,magenta,I
110.0,6.0,1.0,1.0,4.0,4.0,432.6177779998943,3.0,1.0,phase_1,,,,,,,,,,,,,gray,circle
199.0,7.0,2.0,1.0,1.0,1.0,409.6681319997515,3.0,1.0,phase_1,,,,,,,,,,,,,cyan,diamond
403.0,4.0,4.0,0.0,3.0,3.0,365.2214929998081,3.0,1.0,phase_1,,,,,,,,,,,,,magenta,I
0.0,2.0,0.0,0.0,3.0,3.0,375.2377260002504,3.0,1.0,phase_1,,,,,,,,,,,,,yellow,triangle
0.0,3.0,0.0,0.0,1.0,1.0,375.4233039999235,3.0,1.0,phase_1,,,,,,,,,,,,,white,hexagon
105.0,6.0,1.0,1.0,2.0,2.0,388.6949129996537,3.0,1.0,phase_1,,,,,,,,,,,,,gray,circle
191.0,3.0,2.0,0.0,4.0,4.0,397.8658409996569,3.0,1.0,phase_1,,,,,,,,,,,,,white,hexagon
41.0,5.0,0.5,1.0,1.0,1.0,321.0738789998686,3.0,1.0,phase_1,,,,,,,,,,,,,green,square
176.0,7.0,2.0,1.0,4.0,4.0,369.3496179998874,3.0,1.0,phase_1,,,,,,,,,,,,,cyan,diamond
74.0,5.0,0.5,1.0,1.0,1.0,367.7781300002607,3.0,1.0,phase_1,,,,,,,,,,,,,green,square
423.0,4.0,4.0,0.0,2.0,2.0,482.0289819999743,3.0,1.0,phase_1,,,,,,,,,,,,,magenta,I
62.0,5.0,0.5,1.0,4.0,4.0,334.6810480002204,3.0,1.0,phase_1,,,,,,,,,,,,,green,square
76.0,2.0,1.0,0.0,4.0,4.0,427.9647170001226,3.0,1.0,phase_1,,,,,,,,,,,,,yellow,triangle
125.0,6.0,1.0,1.0,2.0,2.0,389.237428999877,3.0,1.0,phase_1,,,,,,,,,,,,,gray,circle
85.0,6.0,1.0,1.0,3.0,3.0,494.6302329999525,3.0,1.0,phase_1,,,,,,,,,,,,,gray,circle
54.0,5.0,0.5,1.0,1.0,1.0,339.715821000027,3.0,1.0,phase_1,,,,,,,,,,,,,green,square
0.0,1.0,0.0,0.0,1.0,1.0,420.8400399998027,3.0,1.0,phase_1,,,,,,,,,,,,,blue,flipped triangle
0.0,7.0,0.0,1.0,2.0,2.0,537.9161600003499,3.0,1.0,phase_1,,,,,,,,,,,,,cyan,diamond
61.0,1.0,0.5,0.0,1.0,1.0,292.7552480000486,3.0,1.0,phase_1,,,,,,,,,,,,,blue,flipped triangle
119.0,6.0,1.0,1.0,2.0,2.0,371.3898730002256,3.0,1.0,phase_1,,,,,,,,,,,,,gray,circle
34.0,5.0,0.5,1.0,2.0,2.0,419.6910729997398,3.0,1.0,phase_1,,,,,,,,,,,,,green,square
0.0,1.0,0.0,0.0,2.0,2.0,345.0822810000318,3.0,1.0,phase_1,,,,,,,,,,,,,blue,flipped triangle
0.0,3.0,0.0,0.0,2.0,2.0,354.6530420003364,3.0,1.0,phase_1,,,,,,,,,,,,,white,hexagon
0.0,6.0,0.0,1.0,4.0,4.0,348.7957269999242,3.0,1.0,phase_1,,,,,,,,,,,,,gray,circle
394.0,4.0,4.0,0.0,4.0,4.0,443.2390980000491,3.0,1.0,phase_1,,,,,,,,,,,,,magenta,I
216.0,3.0,2.0,0.0,2.0,2.0,342.2292870000092,3.0,1.0,phase_1,,,,,,,,,,,,,white,hexagon
61.0,1.0,0.5,0.0,2.0,2.0,406.4441209998222,3.0,1.0,phase_1,,,,,,,,,,,,,blue,flipped triangle
0.0,4.0,0.0,0.0,2.0,2.0,336.4177009998457,3.0,1.0,phase_1,,,,,,,,,,,,,magenta,I
81.0,2.0,1.0,0.0,3.0,3.0,562.4250639998536,3.0,1.0,phase_1,,,,,,,,,,,,,yellow,triangle
179.0,3.0,2.0,0.0,2.0,2.0,410.2832050002689,3.0,1.0,phase_1,,,,,,,,,,,,,white,hexagon
413.0,8.0,4.0,1.0,2.0,2.0,384.977938999782,3.0,1.0,phase_1,,,,,,,,,,,,,orange,cross
0.0,5.0,0.0,1.0,3.0,3.0,392.5774899998941,3.0,1.0,phase_1,,,,,,,,,,,,,green,square
196.0,7.0,2.0,1.0,2.0,2.0,483.5488640001131,3.0,1.0,phase_1,,,,,,,,,,,,,cyan,diamond
74.0,1.0,0.5,0.0,3.0,3.0,413.6399740000342,3.0,1.0,phase_1,,,,,,,,,,,,,blue,flipped triangle
44.0,1.0,0.5,0.0,4.0,4.0,377.2932499996386,3.0,1.0,phase_1,,,,,,,,,,,,,blue,flipped triangle
394.0,8.0,4.0,1.0,4.0,4.0,379.6338170000126,3.0,1.0,phase_1,,,,,,,,,,,,,orange,cross
113.0,2.0,1.0,0.0,3.0,3.0,454.3946179996965,3.0,1.0,phase_1,,,,,,,,,,,,,yellow,triangle
82.0,2.0,1.0,0.0,1.0,1.0,355.3719159999673,3.0,1.0,phase_1,,,,,,,,,,,,,yellow,triangle
59.0,5.0,0.5,1.0,4.0,4.0,428.8353199999619,3.0,1.0,phase_1,,,,,,,,,,,,,green,square
218.0,3.0,2.0,0.0,2.0,2.0,335.779716000161,3.0,1.0,phase_1,,,,,,,,,,,,,white,hexagon
204.0,7.0,2.0,1.0,2.0,2.0,526.0207669998636,3.0,1.0,phase_1,,,,,,,,,,,,,cyan,diamond
213.0,3.0,2.0,0.0,1.0,1.0,412.5827689999823,3.0,1.0,phase_1,,,,,,,,,,,,,white,hexagon
404.0,4.0,4.0,0.0,1.0,1.0,408.1324439998752,3.0,1.0,phase_1,,,,,,,,,,,,,magenta,I
68.0,1.0,0.5,0.0,2.0,2.0,372.7127610000025,3.0,1.0,phase_1,,,,,,,,,,,,,blue,flipped triangle
196.0,7.0,2.0,1.0,4.0,4.0,311.7801899998085,3.0,1.0,phase_1,,,,,,,,,,,,,cyan,diamond
88.0,2.0,1.0,0.0,4.0,4.0,457.6307669999551,3.0,1.0,phase_1,,,,,,,,,,,,,yellow,triangle
376.0,8.0,4.0,1.0,3.0,3.0,360.6646139996883,3.0,1.0,phase_1,,,,,,,,,,,,,orange,cross
187.0,7.0,2.0,1.0,3.0,3.0,437.5680830003148,3.0,1.0,phase_1,,,,,,,,,,,,,cyan,diamond
123.0,2.0,1.0,0.0,4.0,4.0,457.0095789999868,3.0,1.0,phase_1,,,,,,,,,,,,,yellow,triangle
420.0,8.0,4.0,1.0,2.0,2.0,447.1021439999276,3.0,1.0,phase_1,,,,,,,,,,,,,orange,cross
113.0,2.0,1.0,0.0,2.0,2.0,508.45643100001325,3.0,1.0,phase_1,,,,,,,,,,,,,yellow,triangle
81.0,6.0,1.0,1.0,1.0,1.0,377.5376720000167,3.0,1.0,phase_1,,,,,,,,,,,,,gray,circle
191.0,7.0,2.0,1.0,4.0,4.0,349.1976270001942,3.0,1.0,phase_1,,,,,,,,,,,,,cyan,diamond
209.0,3.0,2.0,0.0,4.0,4.0,326.7071069999474,3.0,1.0,phase_1,,,,,,,,,,,,,white,hexagon
113.0,6.0,1.0,1.0,3.0,3.0,423.2910680002533,3.0,1.0,phase_1,,,,,,,,,,,,,gray,circle
97.0,6.0,1.0,1.0,2.0,2.0,414.1990400003124,3.0,1.0,phase_1,,,,,,,,,,,,,gray,circle
187.0,3.0,2.0,0.0,4.0,4.0,304.9687149996316,3.0,1.0,phase_1,,,,,,,,,,,,,white,hexagon
60.0,5.0,0.5,1.0,4.0,4.0,346.0942570000043,3.0,1.0,phase_1,,,,,,,,,,,,,green,square
0.0,6.0,0.0,1.0,2.0,2.0,446.116284999789,3.0,1.0,phase_1,,,,,,,,,,,,,gray,circle
77.0,2.0,1.0,0.0,4.0,4.0,341.2321760001759,3.0,1.0,phase_1,,,,,,,,,,,,,yellow,triangle
0.0,2.0,0.0,0.0,1.0,1.0,476.8594959996335,3.0,1.0,phase_1,,,,,,,,,,,,,yellow,triangle
34.0,5.0,0.5,1.0,3.0,3.0,401.3826310001605,3.0,1.0,phase_1,,,,,,,,,,,,,green,square
401.0,4.0,4.0,0.0,3.0,3.0,391.3508069999807,4.0,1.0,phase_1,,,,,,,,,,,,,magenta,I
61.0,5.0,0.5,1.0,3.0,3.0,429.6193339996534,4.0,1.0,phase_1,,,,,,,,,,,,,green,square
61.0,5.0,0.5,1.0,2.0,2.0,537.7841550007361,4.0,1.0,phase_1,,,,,,,,,,,,,green,square
0.0,8.0,0.0,1.0,3.0,3.0,380.1605420003398,4.0,1.0,phase_1,,,,,,,,,,,,,orange,cross
39.0,1.0,0.5,0.0,3.0,3.0,404.3851529995663,4.0,1.0,phase_1,,,,,,,,,,,,,blue,flipped triangle
0.0,6.0,0.0,1.0,1.0,1.0,486.4281240006676,4.0,1.0,phase_1,,,,,,,,,,,,,gray,circle
219.0,3.0,2.0,0.0,1.0,1.0,318.8176739995469,4.0,1.0,phase_1,,,,,,,,,,,,,white,hexagon
77.0,6.0,1.0,1.0,4.0,4.0,448.7036829996214,4.0,1.0,phase_1,,,,,,,,,,,,,gray,circle
207.0,7.0,2.0,1.0,2.0,2.0,673.5511889992267,4.0,1.0,phase_1,,,,,,,,,,,,,cyan,diamond
217.0,7.0,2.0,1.0,2.0,2.0,497.1799160002774,4.0,1.0,phase_1,,,,,,,,,,,,,cyan,diamond
198.0,7.0,2.0,1.0,4.0,4.0,664.8085349997928,4.0,1.0,phase_1,,,,,,,,,,,,,cyan,diamond
217.0,3.0,2.0,0.0,3.0,3.0,403.3074689996283,4.0,1.0,phase_1,,,,,,,,,,,,,white,hexagon
0.0,8.0,0.0,1.0,2.0,2.0,536.624583000048,4.0,1.0,phase_1,,,,,,,,,,,,,orange,cross
223.0,3.0,2.0,0.0,4.0,4.0,524.5594139996683,4.0,1.0,phase_1,,,,,,,,,,,,,white,hexagon
0.0,8.0,0.0,1.0,2.0,2.0,500.0704530002622,4.0,1.0,phase_1,,,,,,,,,,,,,orange,cross
73.0,1.0,0.5,0.0,4.0,4.0,550.091885999791,4.0,1.0,phase_1,,,,,,,,,,,,,blue,flipped triangle
387.0,4.0,4.0,0.0,2.0,2.0,532.9894340002284,4.0,1.0,phase_1,,,,,,,,,,,,,magenta,I
0.0,5.0,0.0,1.0,2.0,2.0,440.0605250002627,4.0,1.0,phase_1,,,,,,,,,,,,,green,square
207.0,3.0,2.0,0.0,4.0,4.0,456.5530200006833,4.0,1.0,phase_1,,,,,,,,,,,,,white,hexagon
30.0,5.0,0.5,1.0,4.0,4.0,376.7149240002254,4.0,1.0,phase_1,,,,,,,,,,,,,green,square
408.0,4.0,4.0,0.0,1.0,1.0,377.3213499998746,4.0,1.0,phase_1,,,,,,,,,,,,,magenta,I
34.0,1.0,0.5,0.0,3.0,3.0,466.456539000319,4.0,1.0,phase_1,,,,,,,,,,,,,blue,flipped triangle
0.0,5.0,0.0,1.0,4.0,4.0,500.0306490001094,4.0,1.0,phase_1,,,,,,,,,,,,,green,square
0.0,4.0,0.0,0.0,1.0,1.0,406.8557250002413,4.0,1.0,phase_1,,,,,,,,,,,,,magenta,I
61.0,1.0,0.5,0.0,3.0,3.0,440.9062589993482,4.0,1.0,phase_1,,,,,,,,,,,,,blue,flipped triangle
125.0,2.0,1.0,0.0,4.0,4.0,541.5074219999951,4.0,1.0,phase_1,,,,,,,,,,,,,yellow,triangle
399.0,8.0,4.0,1.0,3.0,3.0,434.4029509993561,4.0,1.0,phase_1,,,,,,,,,,,,,orange,cross
62.0,1.0,0.5,0.0,2.0,2.0,613.4808839997277,4.0,1.0,phase_1,,,,,,,,,,,,,blue,flipped triangle
421.0,8.0,4.0,1.0,3.0,3.0,398.2324970002082,4.0,1.0,phase_1,,,,,,,,,,,,,orange,cross
77.0,6.0,1.0,1.0,3.0,3.0,435.2418640000906,4.0,1.0,phase_1,,,,,,,,,,,,,gray,circle
220.0,3.0,2.0,0.0,3.0,3.0,464.3740510000498,4.0,1.0,phase_1,,,,,,,,,,,,,white,hexagon
376.0,4.0,4.0,0.0,2.0,2.0,469.0486780000356,4.0,1.0,phase_1,,,,,,,,,,,,,magenta,I
0.0,3.0,0.0,0.0,3.0,3.0,345.162079000147,4.0,1.0,phase_1,,,,,,,,,,,,,white,hexagon
405.0,8.0,4.0,1.0,3.0,3.0,420.6093909997435,4.0,1.0,phase_1,,,,,,,,,,,,,orange,cross
421.0,4.0,4.0,0.0,1.0,1.0,355.8294740005294,4.0,1.0,phase_1,,,,,,,,,,,,,magenta,I
387.0,8.0,4.0,1.0,4.0,4.0,465.9709620000285,4.0,1.0,phase_1,,,,,,,,,,,,,orange,cross
424.0,8.0,4.0,1.0,1.0,1.0,514.9835329993948,4.0,1.0,phase_1,,,,,,,,,,,,,orange,cross
77.0,2.0,1.0,0.0,1.0,1.0,443.4974220002914,4.0,1.0,phase_1,,,,,,,,,,,,,yellow,triangle
0.0,1.0,0.0,0.0,4.0,4.0,386.3652299996829,4.0,1.0,phase_1,,,,,,,,,,,,,blue,flipped triangle
382.0,4.0,4.0,0.0,4.0,4.0,400.1243430002432,4.0,1.0,phase_1,,,,,,,,,,,,,magenta,I
112.0,2.0,1.0,0.0,3.0,3.0,371.6031129997645,4.0,1.0,phase_1,,,,,,,,,,,,,yellow,triangle
420.0,4.0,4.0,0.0,2.0,2.0,654.1852499995002,4.0,1.0,phase_1,,,,,,,,,,,,,magenta,I
37.0,1.0,0.5,0.0,3.0,3.0,367.2266599996874,4.0,1.0,phase_1,,,,,,,,,,,,,blue,flipped triangle
39.0,5.0,0.5,1.0,4.0,4.0,368.9939189998767,4.0,1.0,phase_1,,,,,,,,,,,,,green,square
86.0,6.0,1.0,1.0,2.0,2.0,544.3588280004406,4.0,1.0,phase_1,,,,,,,,,,,,,gray,circle
114.0,2.0,1.0,0.0,2.0,2.0,381.4248980006596,4.0,1.0,phase_1,,,,,,,,,,,,,yellow,triangle
0.0,6.0,0.0,1.0,2.0,2.0,509.64771100007056,4.0,1.0,phase_1,,,,,,,,,,,,,gray,circle
0.0,1.0,0.0,0.0,3.0,3.0,345.0619949999236,4.0,1.0,phase_1,,,,,,,,,,,,,blue,flipped triangle
116.0,6.0,1.0,1.0,4.0,4.0,522.3012579999704,4.0,1.0,phase_1,,,,,,,,,,,,,gray,circle
380.0,4.0,4.0,0.0,2.0,2.0,357.9423840001254,4.0,1.0,phase_1,,,,,,,,,,,,,magenta,I
120.0,2.0,1.0,0.0,4.0,4.0,364.1471169994474,4.0,1.0,phase_1,,,,,,,,,,,,,yellow,triangle
0.0,5.0,0.0,1.0,3.0,3.0,476.6913800003749,4.0,1.0,phase_1,,,,,,,,,,,,,green,square
218.0,7.0,2.0,1.0,2.0,2.0,517.296573000749,4.0,1.0,phase_1,,,,,,,,,,,,,cyan,diamond
54.0,1.0,0.5,0.0,1.0,1.0,564.8155030003181,4.0,1.0,phase_1,,,,,,,,,,,,,blue,flipped triangle
176.0,3.0,2.0,0.0,4.0,4.0,438.9759089999643,4.0,1.0,phase_1,,,,,,,,,,,,,white,hexagon
82.0,2.0,1.0,0.0,2.0,2.0,374.6520340000643,4.0,1.0,phase_1,,,,,,,,,,,,,yellow,triangle
0.0,8.0,0.0,1.0,2.0,2.0,410.9136859997306,4.0,1.0,phase_1,,,,,,,,,,,,,orange,cross
0.0,3.0,0.0,0.0,2.0,2.0,406.7002319998209,4.0,1.0,phase_1,,,,,,,,,,,,,white,hexagon
402.0,8.0,4.0,1.0,2.0,2.0,371.734135999759,4.0,1.0,phase_1,,,,,,,,,,,,,orange,cross
214.0,7.0,2.0,1.0,3.0,3.0,479.0480540004864,4.0,1.0,phase_1,,,,,,,,,,,,,cyan,diamond
34.0,1.0,0.5,0.0,1.0,1.0,497.0385329997953,4.0,1.0,phase_1,,,,,,,,,,,,,blue,flipped triangle
376.0,8.0,4.0,1.0,4.0,4.0,544.0390800004025,4.0,1.0,phase_1,,,,,,,,,,,,,orange,cross
213.0,7.0,2.0,1.0,2.0,2.0,370.1278489998003,4.0,1.0,phase_1,,,,,,,,,,,,,cyan,diamond
62.0,5.0,0.5,1.0,1.0,1.0,426.9132380004521,4.0,1.0,phase_1,,,,,,,,,,,,,green,square
189.0,3.0,2.0,0.0,1.0,1.0,418.1925370003228,4.0,1.0,phase_1,,,,,,,,,,,,,white,hexagon
61.0,5.0,0.5,1.0,3.0,3.0,399.4882599999982,4.0,1.0,phase_1,,,,,,,,,,,,,green,square
399.0,4.0,4.0,0.0,1.0,1.0,386.7676529998789,4.0,1.0,phase_1,,,,,,,,,,,,,magenta,I
194.0,7.0,2.0,1.0,2.0,2.0,403.3385849998012,4.0,1.0,phase_1,,,,,,,,,,,,,cyan,diamond
106.0,6.0,1.0,1.0,4.0,4.0,520.1987629998257,4.0,1.0,phase_1,,,,,,,,,,,,,gray,circle
40.0,1.0,0.5,0.0,1.0,1.0,449.6964959998877,4.0,1.0,phase_1,,,,,,,,,,,,,blue,flipped triangle
88.0,6.0,1.0,1.0,2.0,2.0,381.9009559992992,4.0,1.0,phase_1,,,,,,,,,,,,,gray,circle
58.0,1.0,0.5,0.0,1.0,1.0,415.8824940004706,4.0,1.0,phase_1,,,,,,,,,,,,,blue,flipped triangle
105.0,2.0,1.0,0.0,3.0,3.0,418.2839320001221,4.0,1.0,phase_1,,,,,,,,,,,,,yellow,triangle
393.0,4.0,4.0,0.0,3.0,3.0,441.6083269998125,4.0,1.0,phase_1,,,,,,,,,,,,,magenta,I
116.0,2.0,1.0,0.0,2.0,2.0,439.2555349995746,4.0,1.0,phase_1,,,,,,,,,,,,,yellow,triangle
77.0,2.0,1.0,0.0,1.0,1.0,453.2956299999569,4.0,1.0,phase_1,,,,,,,,,,,,,yellow,triangle
193.0,7.0,2.0,1.0,2.0,2.0,356.9813219992284,4.0,1.0,phase_1,,,,,,,,,,,,,cyan,diamond
102.0,6.0,1.0,1.0,3.0,3.0,518.4223920005024,4.0,1.0,phase_1,,,,,,,,,,,,,gray,circle
116.0,6.0,1.0,1.0,1.0,1.0,562.2319549993335,4.0,1.0,phase_1,,,,,,,,,,,,,gray,circle
176.0,3.0,2.0,0.0,2.0,2.0,425.9295120000388,4.0,1.0,phase_1,,,,,,,,,,,,,white,hexagon
182.0,3.0,2.0,0.0,1.0,1.0,311.1451189997751,4.0,1.0,phase_1,,,,,,,,,,,,,white,hexagon
0.0,1.0,0.0,0.0,4.0,4.0,496.4835410000887,4.0,1.0,phase_1,,,,,,,,,,,,,blue,flipped triangle
182.0,7.0,2.0,1.0,3.0,3.0,481.8545480002285,4.0,1.0,phase_1,,,,,,,,,,,,,cyan,diamond
122.0,2.0,1.0,0.0,1.0,1.0,353.7759579994599,4.0,1.0,phase_1,,,,,,,,,,,,,yellow,triangle
61.0,1.0,0.5,0.0,4.0,4.0,399.3614239998351,4.0,1.0,phase_1,,,,,,,,,,,,,blue,flipped triangle
0.0,7.0,0.0,1.0,4.0,4.0,368.0071049993785,4.0,1.0,phase_1,,,,,,,,,,,,,cyan,diamond
415.0,8.0,4.0,1.0,1.0,1.0,339.2087689999243,4.0,1.0,phase_1,,,,,,,,,,,,,orange,cross
0.0,5.0,0.0,1.0,4.0,4.0,457.2972409996509,4.0,1.0,phase_1,,,,,,,,,,,,,green,square
49.0,1.0,0.5,0.0,2.0,2.0,556.084691000251,4.0,1.0,phase_1,,,,,,,,,,,,,blue,flipped triangle
123.0,6.0,1.0,1.0,3.0,3.0,407.7066939998985,4.0,1.0,phase_1,,,,,,,,,,,,,gray,circle
0.0,4.0,0.0,0.0,4.0,4.0,490.88957999993,4.0,1.0,phase_1,,,,,,,,,,,,,magenta,I
101.0,6.0,1.0,1.0,1.0,1.0,529.6145239999532,4.0,1.0,phase_1,,,,,,,,,,,,,gray,circle
29.0,1.0,0.5,0.0,2.0,2.0,403.6017219996211,4.0,1.0,phase_1,,,,,,,,,,,,,blue,flipped triangle
204.0,3.0,2.0,0.0,3.0,3.0,491.721836000579,4.0,1.0,phase_1,,,,,,,,,,,,,white,hexagon
180.0,3.0,2.0,0.0,4.0,4.0,404.2124559991862,4.0,1.0,phase_1,,,,,,,,,,,,,white,hexagon
120.0,6.0,1.0,1.0,4.0,4.0,497.7017620003607,4.0,1.0,phase_1,,,,,,,,,,,,,gray,circle
37.0,5.0,0.5,1.0,4.0,4.0,363.1744069998603,4.0,1.0,phase_1,,,,,,,,,,,,,green,square
0.0,2.0,0.0,0.0,4.0,4.0,440.1932770006169,4.0,1.0,phase_1,,,,,,,,,,,,,yellow,triangle
0.0,7.0,0.0,1.0,4.0,4.0,345.4332510000313,4.0,1.0,phase_1,,,,,,,,,,,,,cyan,diamond
35.0,5.0,0.5,1.0,3.0,3.0,438.3386879999307,4.0,1.0,phase_1,,,,,,,,,,,,,green,square
0.0,7.0,2.0,1.0,6.0,6.0,472.2723009999754,1.0,1.0,phase_2,go,250.0,250.0,1.0,,,,,,,,,cyan,diamond
0.0,3.0,2.0,0.0,6.0,6.0,464.2673460002697,1.0,1.0,phase_2,go,250.0,250.0,1.0,,,,,,,,,white,hexagon
0.0,1.0,0.5,0.0,6.0,6.0,432.9691510001794,1.0,1.0,phase_2,go,250.0,250.0,1.0,,,,,,,,,blue,flipped triangle
0.0,1.0,0.5,0.0,6.0,6.0,567.8666769999836,1.0,1.0,phase_2,go,250.0,250.0,1.0,,,,,,,,,blue,flipped triangle
0.0,1.0,0.5,0.0,5.0,5.0,544.1926550001881,1.0,1.0,phase_2,go,250.0,250.0,1.0,,,,,,,,,blue,flipped triangle
0.0,7.0,2.0,1.0,6.0,6.0,453.4467290004613,1.0,1.0,phase_2,stop,250.0,250.0,3.0,,,,,,,,,cyan,diamond
0.0,2.0,1.0,0.0,5.0,5.0,790.323662999981,1.0,1.0,phase_2,go,250.0,200.0,1.0,,,,,,,,,yellow,triangle
0.0,4.0,4.0,0.0,5.0,5.0,834.4942409994474,1.0,1.0,phase_2,go,250.0,200.0,1.0,,,,,,,,,magenta,I
0.0,8.0,4.0,1.0,5.0,0.0,0.0,1.0,1.0,phase_2,stop,250.0,200.0,4.0,,,,,,,,,orange,cross
0.0,7.0,2.0,1.0,5.0,0.0,0.0,1.0,1.0,phase_2,stop,300.0,200.0,4.0,,,,,,,,,cyan,diamond
0.0,2.0,1.0,0.0,5.0,5.0,1055.076931000258,1.0,1.0,phase_2,go,350.0,200.0,1.0,,,,,,,,,yellow,triangle
0.0,8.0,4.0,1.0,6.0,0.0,0.0,1.0,1.0,phase_2,stop,350.0,200.0,4.0,,,,,,,,,orange,cross
0.0,7.0,2.0,1.0,5.0,0.0,0.0,1.0,1.0,phase_2,stop,350.0,250.0,4.0,,,,,,,,,cyan,diamond
0.0,4.0,4.0,0.0,5.0,5.0,849.0430319998268,1.0,1.0,phase_2,go,400.0,250.0,1.0,,,,,,,,,magenta,I
0.0,3.0,2.0,0.0,5.0,5.0,757.1501229995192,1.0,1.0,phase_2,go,400.0,250.0,1.0,,,,,,,,,white,hexagon
0.0,6.0,1.0,1.0,6.0,0.0,0.0,1.0,1.0,phase_2,stop,400.0,250.0,4.0,,,,,,,,,gray,circle
0.0,8.0,4.0,1.0,6.0,0.0,0.0,1.0,1.0,phase_2,stop,400.0,300.0,4.0,,,,,,,,,orange,cross
0.0,7.0,2.0,1.0,6.0,0.0,0.0,1.0,1.0,phase_2,stop,400.0,350.0,4.0,,,,,,,,,cyan,diamond
0.0,2.0,1.0,0.0,6.0,6.0,950.396954000098,1.0,1.0,phase_2,go,400.0,400.0,1.0,,,,,,,,,yellow,triangle
0.0,6.0,1.0,1.0,5.0,5.0,631.7443520001689,1.0,1.0,phase_2,go,400.0,400.0,1.0,,,,,,,,,gray,circle
0.0,5.0,0.5,1.0,6.0,6.0,836.9189199993343,1.0,1.0,phase_2,stop,400.0,400.0,3.0,,,,,,,,,green,square
0.0,8.0,4.0,1.0,5.0,0.0,0.0,1.0,1.0,phase_2,stop,400.0,350.0,4.0,,,,,,,,,orange,cross
0.0,6.0,1.0,1.0,6.0,0.0,0.0,1.0,1.0,phase_2,stop,450.0,350.0,4.0,,,,,,,,,gray,circle
0.0,2.0,1.0,0.0,6.0,6.0,1023.8679129997763,1.0,1.0,phase_2,go,450.0,400.0,1.0,,,,,,,,,yellow,triangle
0.0,6.0,1.0,1.0,6.0,6.0,1391.556999000386,1.0,1.0,phase_2,go,450.0,400.0,1.0,,,,,,,,,gray,circle
0.0,3.0,2.0,0.0,5.0,5.0,1236.7032310003196,1.0,1.0,phase_2,go,450.0,400.0,1.0,,,,,,,,,white,hexagon
0.0,4.0,4.0,0.0,5.0,5.0,968.2341739999174,1.0,1.0,phase_2,go,450.0,400.0,1.0,,,,,,,,,magenta,I
0.0,2.0,1.0,0.0,6.0,6.0,670.3651420002643,1.0,1.0,phase_2,go,450.0,400.0,1.0,,,,,,,,,yellow,triangle
0.0,5.0,0.5,1.0,6.0,6.0,371.000589999312,1.0,1.0,phase_2,stop,450.0,400.0,3.0,,,,,,,,,green,square
0.0,2.0,1.0,0.0,6.0,6.0,760.0398129998212,1.0,1.0,phase_2,go,450.0,350.0,1.0,,,,,,,,,yellow,triangle
0.0,7.0,2.0,1.0,6.0,0.0,0.0,1.0,1.0,phase_2,stop,450.0,350.0,4.0,,,,,,,,,cyan,diamond
0.0,5.0,0.5,1.0,6.0,6.0,710.5885139999373,1.0,1.0,phase_2,go,450.0,400.0,1.0,,,,,,,,,green,square
0.0,4.0,4.0,0.0,5.0,5.0,430.1234360000308,1.0,1.0,phase_2,go,450.0,400.0,1.0,,,,,,,,,magenta,I
0.0,1.0,0.5,0.0,6.0,6.0,839.2291989994192,1.0,1.0,phase_2,go,450.0,400.0,1.0,,,,,,,,,blue,flipped triangle
0.0,8.0,4.0,1.0,5.0,0.0,0.0,1.0,1.0,phase_2,stop,450.0,400.0,4.0,,,,,,,,,orange,cross
0.0,2.0,1.0,0.0,5.0,5.0,887.1862920004787,1.0,1.0,phase_2,go,500.0,400.0,1.0,,,,,,,,,yellow,triangle
0.0,2.0,1.0,0.0,5.0,5.0,705.912239999634,2.0,1.0,phase_2,go,500.0,400.0,1.0,,,,,,,,,yellow,triangle
0.0,2.0,1.0,0.0,5.0,5.0,395.8324450004511,2.0,1.0,phase_2,go,500.0,400.0,1.0,,,,,,,,,yellow,triangle
0.0,6.0,1.0,1.0,5.0,5.0,320.6163980003111,2.0,1.0,phase_2,go,500.0,400.0,1.0,,,,,,,,,gray,circle
0.0,3.0,2.0,0.0,5.0,5.0,357.8463980002198,2.0,1.0,phase_2,go,500.0,400.0,1.0,,,,,,,,,white,hexagon
0.0,8.0,4.0,1.0,6.0,6.0,315.9444920001988,2.0,1.0,phase_2,go,500.0,400.0,1.0,,,,,,,,,orange,cross
0.0,3.0,2.0,0.0,6.0,6.0,307.0317340007022,2.0,1.0,phase_2,go,500.0,400.0,1.0,,,,,,,,,white,hexagon
0.0,7.0,2.0,1.0,5.0,5.0,286.4086629997473,2.0,1.0,phase_2,stop,500.0,400.0,3.0,,,,,,,,,cyan,diamond
0.0,6.0,1.0,1.0,6.0,6.0,325.1236329997482,2.0,1.0,phase_2,stop,450.0,400.0,3.0,,,,,,,,,gray,circle
0.0,4.0,4.0,0.0,6.0,6.0,551.7001039997922,2.0,1.0,phase_2,go,450.0,350.0,1.0,,,,,,,,,magenta,I
0.0,8.0,4.0,1.0,5.0,5.0,319.5630680002068,2.0,1.0,phase_2,stop,450.0,350.0,3.0,,,,,,,,,orange,cross
0.0,5.0,0.5,1.0,5.0,5.0,451.5869390006628,2.0,1.0,phase_2,stop,400.0,350.0,3.0,,,,,,,,,green,square
0.0,1.0,0.5,0.0,5.0,5.0,557.0996980004566,2.0,1.0,phase_2,go,350.0,350.0,1.0,,,,,,,,,blue,flipped triangle
0.0,2.0,1.0,0.0,6.0,6.0,438.0499270000655,2.0,1.0,phase_2,go,350.0,350.0,1.0,,,,,,,,,yellow,triangle
0.0,1.0,0.5,0.0,5.0,5.0,676.0173950005992,2.0,1.0,phase_2,go,350.0,350.0,1.0,,,,,,,,,blue,flipped triangle
0.0,1.0,0.5,0.0,6.0,6.0,393.1855850005377,2.0,1.0,phase_2,go,350.0,350.0,1.0,,,,,,,,,blue,flipped triangle
0.0,7.0,2.0,1.0,5.0,5.0,382.6602020008067,2.0,1.0,phase_2,stop,350.0,350.0,3.0,,,,,,,,,cyan,diamond
0.0,6.0,1.0,1.0,5.0,0.0,0.0,2.0,1.0,phase_2,stop,300.0,350.0,4.0,,,,,,,,,gray,circle
0.0,2.0,1.0,0.0,6.0,6.0,823.4691119996569,2.0,1.0,phase_2,go,350.0,350.0,1.0,,,,,,,,,yellow,triangle
0.0,7.0,2.0,1.0,6.0,0.0,0.0,2.0,1.0,phase_2,stop,350.0,350.0,4.0,,,,,,,,,cyan,diamond
0.0,2.0,1.0,0.0,5.0,5.0,496.6862350001975,2.0,1.0,phase_2,go,350.0,400.0,1.0,,,,,,,,,yellow,triangle
0.0,4.0,4.0,0.0,6.0,6.0,795.4361299998709,2.0,1.0,phase_2,go,350.0,400.0,1.0,,,,,,,,,magenta,I
0.0,6.0,1.0,1.0,6.0,6.0,786.7276120005045,2.0,1.0,phase_2,go,350.0,400.0,1.0,,,,,,,,,gray,circle
0.0,1.0,0.5,0.0,6.0,6.0,419.8202190000302,2.0,1.0,phase_2,go,350.0,400.0,1.0,,,,,,,,,blue,flipped triangle
0.0,8.0,4.0,1.0,6.0,6.0,259.7623500005284,2.0,1.0,phase_2,stop,350.0,400.0,3.0,,,,,,,,,orange,cross
0.0,1.0,0.5,0.0,5.0,5.0,538.5906859992247,2.0,1.0,phase_2,go,350.0,350.0,1.0,,,,,,,,,blue,flipped triangle
0.0,5.0,0.5,1.0,6.0,6.0,384.8212039993086,2.0,1.0,phase_2,stop,350.0,350.0,3.0,,,,,,,,,green,square
0.0,6.0,1.0,1.0,5.0,5.0,697.9893579991767,2.0,1.0,phase_2,go,350.0,300.0,1.0,,,,,,,,,gray,circle
0.0,4.0,4.0,0.0,5.0,5.0,486.0049749995596,2.0,1.0,phase_2,go,350.0,300.0,1.0,,,,,,,,,magenta,I
0.0,2.0,1.0,0.0,5.0,5.0,1253.881495999849,2.0,1.0,phase_2,go,350.0,300.0,1.0,,,,,,,,,yellow,triangle
0.0,8.0,4.0,1.0,6.0,6.0,290.0053710000065,2.0,1.0,phase_2,stop,350.0,300.0,3.0,,,,,,,,,orange,cross
0.0,5.0,0.5,1.0,5.0,0.0,0.0,2.0,1.0,phase_2,stop,350.0,250.0,4.0,,,,,,,,,green,square
0.0,1.0,0.5,0.0,5.0,5.0,735.1008480000019,2.0,1.0,phase_2,go,400.0,250.0,1.0,,,,,,,,,blue,flipped triangle
0.0,4.0,4.0,0.0,6.0,6.0,390.3200039994772,2.0,1.0,phase_2,go,400.0,250.0,1.0,,,,,,,,,magenta,I
0.0,2.0,1.0,0.0,6.0,6.0,388.0960699998468,2.0,1.0,phase_2,go,400.0,250.0,1.0,,,,,,,,,yellow,triangle
0.0,7.0,2.0,1.0,5.0,0.0,0.0,2.0,1.0,phase_2,stop,400.0,250.0,4.0,,,,,,,,,cyan,diamond
0.0,2.0,1.0,0.0,5.0,5.0,857.7397120006935,2.0,1.0,phase_2,go,450.0,250.0,1.0,,,,,,,,,yellow,triangle
0.0,4.0,4.0,0.0,5.0,5.0,694.2465169995558,3.0,1.0,phase_2,go,450.0,250.0,1.0,,,,,,,,,magenta,I
0.0,4.0,4.0,0.0,6.0,6.0,264.7344599999996,3.0,1.0,phase_2,go,450.0,250.0,1.0,,,,,,,,,magenta,I
0.0,7.0,2.0,1.0,5.0,5.0,425.0607189997026,3.0,1.0,phase_2,stop,450.0,250.0,3.0,,,,,,,,,cyan,diamond
0.0,2.0,1.0,0.0,5.0,5.0,677.4284370003443,3.0,1.0,phase_2,go,400.0,250.0,1.0,,,,,,,,,yellow,triangle
0.0,8.0,4.0,1.0,5.0,0.0,0.0,3.0,1.0,phase_2,stop,400.0,250.0,4.0,,,,,,,,,orange,cross
0.0,4.0,4.0,0.0,6.0,6.0,558.7090930002887,3.0,1.0,phase_2,go,450.0,250.0,1.0,,,,,,,,,magenta,I
0.0,1.0,0.5,0.0,5.0,5.0,818.4485660003702,3.0,1.0,phase_2,go,450.0,250.0,1.0,,,,,,,,,blue,flipped triangle
0.0,8.0,4.0,1.0,5.0,5.0,790.8974580004724,3.0,1.0,phase_2,go,450.0,250.0,1.0,,,,,,,,,orange,cross
0.0,8.0,4.0,1.0,5.0,5.0,427.3498830007156,3.0,1.0,phase_2,stop,450.0,250.0,3.0,,,,,,,,,orange,cross
0.0,1.0,0.5,0.0,6.0,6.0,667.6684779995412,3.0,1.0,phase_2,go,400.0,250.0,1.0,,,,,,,,,blue,flipped triangle
0.0,7.0,2.0,1.0,6.0,0.0,0.0,3.0,1.0,phase_2,stop,400.0,250.0,4.0,,,,,,,,,cyan,diamond
0.0,4.0,4.0,0.0,6.0,6.0,517.3278680003932,3.0,1.0,phase_2,go,400.0,300.0,1.0,,,,,,,,,magenta,I
0.0,1.0,0.5,0.0,6.0,6.0,717.1383470004002,3.0,1.0,phase_2,go,400.0,300.0,1.0,,,,,,,,,blue,flipped triangle
0.0,7.0,2.0,1.0,6.0,0.0,0.0,3.0,1.0,phase_2,stop,400.0,300.0,4.0,,,,,,,,,cyan,diamond
0.0,6.0,1.0,1.0,6.0,6.0,505.9739799999079,3.0,1.0,phase_2,stop,400.0,350.0,3.0,,,,,,,,,gray,circle
0.0,3.0,2.0,0.0,6.0,6.0,818.0766619998394,3.0,1.0,phase_2,go,400.0,300.0,1.0,,,,,,,,,white,hexagon
0.0,4.0,4.0,0.0,5.0,5.0,870.3358300008404,3.0,1.0,phase_2,go,400.0,300.0,1.0,,,,,,,,,magenta,I
0.0,8.0,4.0,1.0,6.0,6.0,477.6171240000622,3.0,1.0,phase_2,stop,400.0,300.0,3.0,,,,,,,,,orange,cross
0.0,1.0,0.5,0.0,5.0,5.0,551.464870000018,3.0,1.0,phase_2,go,400.0,250.0,1.0,,,,,,,,,blue,flipped triangle
0.0,6.0,1.0,1.0,6.0,0.0,0.0,3.0,1.0,phase_2,stop,400.0,250.0,4.0,,,,,,,,,gray,circle
0.0,5.0,0.5,1.0,5.0,5.0,646.2495149999086,3.0,1.0,phase_2,go,400.0,300.0,1.0,,,,,,,,,green,square
0.0,4.0,4.0,0.0,6.0,6.0,519.6216679996724,3.0,1.0,phase_2,go,400.0,300.0,1.0,,,,,,,,,magenta,I
0.0,4.0,4.0,0.0,6.0,6.0,415.6323509996582,3.0,1.0,phase_2,go,400.0,300.0,1.0,,,,,,,,,magenta,I
0.0,7.0,2.0,1.0,5.0,5.0,386.0630160006622,3.0,1.0,phase_2,stop,400.0,300.0,3.0,,,,,,,,,cyan,diamond
0.0,8.0,4.0,1.0,6.0,0.0,0.0,3.0,1.0,phase_2,stop,350.0,300.0,4.0,,,,,,,,,orange,cross
0.0,7.0,2.0,1.0,5.0,0.0,0.0,3.0,1.0,phase_2,stop,350.0,350.0,4.0,,,,,,,,,cyan,diamond
0.0,5.0,0.5,1.0,6.0,6.0,750.4102029997739,3.0,1.0,phase_2,go,400.0,350.0,1.0,,,,,,,,,green,square
0.0,6.0,1.0,1.0,5.0,0.0,0.0,3.0,1.0,phase_2,stop,400.0,350.0,4.0,,,,,,,,,gray,circle
0.0,5.0,0.5,1.0,6.0,0.0,0.0,3.0,1.0,phase_2,stop,450.0,350.0,4.0,,,,,,,,,green,square
0.0,7.0,2.0,1.0,6.0,0.0,0.0,3.0,1.0,phase_2,stop,450.0,400.0,4.0,,,,,,,,,cyan,diamond
0.0,3.0,2.0,0.0,5.0,5.0,493.4401669997896,3.0,1.0,phase_2,go,450.0,450.0,1.0,,,,,,,,,white,hexagon
0.0,4.0,4.0,0.0,5.0,5.0,448.6988649996419,3.0,1.0,phase_2,go,450.0,450.0,1.0,,,,,,,,,magenta,I
0.0,7.0,2.0,1.0,5.0,5.0,364.1917470004046,3.0,1.0,phase_2,stop,450.0,450.0,3.0,,,,,,,,,cyan,diamond
0.0,2.0,1.0,0.0,5.0,5.0,435.7181689993012,3.0,1.0,phase_2,go,400.0,450.0,1.0,,,,,,,,,yellow,triangle
0.0,3.0,2.0,0.0,6.0,6.0,708.4403399994699,3.0,1.0,phase_2,go,400.0,450.0,1.0,,,,,,,,,white,hexagon
0.0,6.0,1.0,1.0,5.0,5.0,541.4935749995493,3.0,1.0,phase_2,go,400.0,450.0,1.0,,,,,,,,,gray,circle
0.0,8.0,4.0,1.0,5.0,6.0,932.7398209998136,4.0,1.0,phase_2,go,400.0,450.0,2.0,,,,,,,,,orange,cross
0.0,7.0,2.0,1.0,6.0,6.0,295.9451679998892,4.0,1.0,phase_2,stop,400.0,450.0,3.0,,,,,,,,,cyan,diamond
0.0,8.0,4.0,1.0,6.0,6.0,308.9634529997056,4.0,1.0,phase_2,stop,400.0,400.0,3.0,,,,,,,,,orange,cross
0.0,1.0,0.5,0.0,5.0,5.0,314.6641379998982,4.0,1.0,phase_2,go,400.0,350.0,1.0,,,,,,,,,blue,flipped triangle
0.0,8.0,4.0,1.0,5.0,5.0,322.039880000375,4.0,1.0,phase_2,stop,400.0,350.0,3.0,,,,,,,,,orange,cross
0.0,2.0,1.0,0.0,5.0,5.0,316.1398309994183,4.0,1.0,phase_2,go,350.0,350.0,1.0,,,,,,,,,yellow,triangle
0.0,6.0,1.0,1.0,5.0,5.0,362.1637340002053,4.0,1.0,phase_2,go,350.0,350.0,1.0,,,,,,,,,gray,circle
0.0,1.0,0.5,0.0,6.0,6.0,283.7518440001076,4.0,1.0,phase_2,go,350.0,350.0,1.0,,,,,,,,,blue,flipped triangle
0.0,6.0,1.0,1.0,5.0,5.0,383.8332099994659,4.0,1.0,phase_2,stop,350.0,350.0,3.0,,,,,,,,,gray,circle
0.0,3.0,2.0,0.0,5.0,5.0,532.1506539994516,4.0,1.0,phase_2,go,300.0,350.0,1.0,,,,,,,,,white,hexagon
0.0,5.0,0.5,1.0,5.0,5.0,390.6593879992215,4.0,1.0,phase_2,stop,300.0,350.0,3.0,,,,,,,,,green,square
0.0,2.0,1.0,0.0,6.0,6.0,313.9874950002195,4.0,1.0,phase_2,go,250.0,350.0,1.0,,,,,,,,,yellow,triangle
0.0,6.0,1.0,1.0,6.0,6.0,415.7015770006182,4.0,1.0,phase_2,go,250.0,350.0,1.0,,,,,,,,,gray,circle
0.0,3.0,2.0,0.0,6.0,6.0,488.8849839999238,4.0,1.0,phase_2,go,250.0,350.0,1.0,,,,,,,,,white,hexagon
0.0,8.0,4.0,1.0,5.0,5.0,409.0044580007088,4.0,1.0,phase_2,stop,250.0,350.0,3.0,,,,,,,,,orange,cross
0.0,7.0,2.0,1.0,5.0,0.0,0.0,4.0,1.0,phase_2,stop,200.0,350.0,4.0,,,,,,,,,cyan,diamond
0.0,5.0,0.5,1.0,5.0,0.0,0.0,4.0,1.0,phase_2,stop,250.0,350.0,4.0,,,,,,,,,green,square
0.0,2.0,1.0,0.0,6.0,6.0,289.4024140005058,4.0,1.0,phase_2,go,300.0,350.0,1.0,,,,,,,,,yellow,triangle
0.0,2.0,1.0,0.0,5.0,5.0,271.2954609996814,4.0,1.0,phase_2,go,300.0,350.0,1.0,,,,,,,,,yellow,triangle
0.0,4.0,4.0,0.0,5.0,5.0,399.0368649992888,4.0,1.0,phase_2,go,300.0,350.0,1.0,,,,,,,,,magenta,I
0.0,7.0,2.0,1.0,6.0,6.0,275.741239999661,4.0,1.0,phase_2,stop,300.0,350.0,3.0,,,,,,,,,cyan,diamond
0.0,7.0,2.0,1.0,6.0,5.0,334.4991280000613,4.0,1.0,phase_2,stop,300.0,300.0,3.0,,,,,,,,,cyan,diamond
0.0,2.0,1.0,0.0,6.0,6.0,344.9268129998017,4.0,1.0,phase_2,go,300.0,250.0,1.0,,,,,,,,,yellow,triangle
0.0,5.0,0.5,1.0,6.0,6.0,376.9795309999608,4.0,1.0,phase_2,stop,300.0,250.0,3.0,,,,,,,,,green,square
0.0,8.0,4.0,1.0,5.0,0.0,0.0,4.0,1.0,phase_2,stop,300.0,200.0,4.0,,,,,,,,,orange,cross
0.0,2.0,1.0,0.0,6.0,6.0,522.8208490007091,4.0,1.0,phase_2,go,350.0,200.0,1.0,,,,,,,,,yellow,triangle
0.0,7.0,2.0,1.0,5.0,5.0,370.7147099994472,4.0,1.0,phase_2,go,350.0,200.0,1.0,,,,,,,,,cyan,diamond
0.0,2.0,1.0,0.0,5.0,6.0,329.7588289997293,4.0,1.0,phase_2,go,350.0,200.0,2.0,,,,,,,,,yellow,triangle
0.0,5.0,0.5,1.0,5.0,5.0,457.5769149996631,4.0,1.0,phase_2,go,350.0,200.0,1.0,,,,,,,,,green,square
0.0,8.0,4.0,1.0,6.0,6.0,360.9802829996624,4.0,1.0,phase_2,stop,350.0,200.0,3.0,,,,,,,,,orange,cross
0.0,2.0,1.0,0.0,6.0,6.0,394.5254979998935,4.0,1.0,phase_2,go,350.0,150.0,1.0,,,,,,,,,yellow,triangle
0.0,6.0,1.0,1.0,5.0,5.0,338.0510970000614,4.0,1.0,phase_2,stop,350.0,150.0,3.0,,,,,,,,,gray,circle
0.0,4.0,4.0,0.0,6.0,6.0,331.42278000013897,4.0,1.0,phase_2,go,300.0,150.0,1.0,,,,,,,,,magenta,I
0.0,6.0,1.0,1.0,6.0,6.0,426.593154999864,4.0,1.0,phase_2,stop,300.0,150.0,3.0,,,,,,,,,gray,circle
0.0,4.0,4.0,0.0,5.0,5.0,338.9480729993011,4.0,1.0,phase_2,go,300.0,100.0,1.0,,,,,,,,,magenta,I
0.0,4.0,4.0,0.0,5.0,5.0,524.4124390001161,4.0,1.0,phase_2,go,300.0,100.0,1.0,,,,,,,,,magenta,I
0.0,5.0,0.5,1.0,6.0,6.0,794.4277870001315,5.0,1.0,phase_2,stop,300.0,100.0,3.0,,,,,,,,,green,square
0.0,6.0,1.0,1.0,5.0,0.0,0.0,5.0,1.0,phase_2,stop,300.0,50.0,4.0,,,,,,,,,gray,circle
0.0,5.0,0.5,1.0,5.0,0.0,0.0,5.0,1.0,phase_2,stop,350.0,50.0,4.0,,,,,,,,,green,square
0.0,2.0,1.0,0.0,6.0,6.0,395.8658629999263,5.0,1.0,phase_2,go,400.0,50.0,1.0,,,,,,,,,yellow,triangle
0.0,4.0,4.0,0.0,6.0,6.0,439.0297330000976,5.0,1.0,phase_2,go,400.0,50.0,1.0,,,,,,,,,magenta,I
0.0,1.0,0.5,0.0,5.0,5.0,352.9094450004777,5.0,1.0,phase_2,go,400.0,50.0,1.0,,,,,,,,,blue,flipped triangle
0.0,4.0,4.0,0.0,6.0,6.0,294.0043110002079,5.0,1.0,phase_2,go,400.0,50.0,1.0,,,,,,,,,magenta,I
0.0,2.0,1.0,0.0,6.0,6.0,414.5750500001668,5.0,1.0,phase_2,go,400.0,50.0,1.0,,,,,,,,,yellow,triangle
0.0,7.0,2.0,1.0,5.0,5.0,344.1119009994509,5.0,1.0,phase_2,stop,400.0,50.0,3.0,,,,,,,,,cyan,diamond
0.0,3.0,2.0,0.0,5.0,5.0,400.6632499995248,5.0,1.0,phase_2,go,350.0,50.0,1.0,,,,,,,,,white,hexagon
0.0,4.0,4.0,0.0,5.0,5.0,517.4622810000074,5.0,1.0,phase_2,go,350.0,50.0,1.0,,,,,,,,,magenta,I
0.0,3.0,2.0,0.0,5.0,5.0,396.1689960005969,5.0,1.0,phase_2,go,350.0,50.0,1.0,,,,,,,,,white,hexagon
0.0,3.0,2.0,0.0,6.0,6.0,328.1184839997877,5.0,1.0,phase_2,go,350.0,50.0,1.0,,,,,,,,,white,hexagon
0.0,2.0,1.0,0.0,5.0,5.0,323.8396439992357,5.0,1.0,phase_2,go,350.0,50.0,1.0,,,,,,,,,yellow,triangle
0.0,8.0,4.0,1.0,5.0,5.0,314.1264369996861,5.0,1.0,phase_2,stop,350.0,50.0,3.0,,,,,,,,,orange,cross
0.0,8.0,4.0,1.0,6.0,6.0,329.9529089999851,5.0,1.0,phase_2,stop,300.0,50.0,3.0,,,,,,,,,orange,cross
0.0,5.0,0.5,1.0,6.0,6.0,411.6488629997548,5.0,1.0,phase_2,go,300.0,0.0,1.0,,,,,,,,,green,square
0.0,2.0,1.0,0.0,6.0,6.0,403.0386759995963,5.0,1.0,phase_2,go,300.0,0.0,1.0,,,,,,,,,yellow,triangle
0.0,3.0,2.0,0.0,5.0,5.0,445.6101780006065,5.0,1.0,phase_2,go,300.0,0.0,1.0,,,,,,,,,white,hexagon
0.0,7.0,2.0,1.0,6.0,6.0,261.9069780002974,5.0,1.0,phase_2,go,300.0,0.0,1.0,,,,,,,,,cyan,diamond
0.0,3.0,2.0,0.0,5.0,5.0,367.7089100001467,5.0,1.0,phase_2,go,300.0,0.0,1.0,,,,,,,,,white,hexagon
0.0,1.0,0.5,0.0,5.0,5.0,476.6291719997753,5.0,1.0,phase_2,go,300.0,0.0,1.0,,,,,,,,,blue,flipped triangle
0.0,3.0,2.0,0.0,5.0,5.0,505.58131900015724,5.0,1.0,phase_2,go,300.0,0.0,1.0,,,,,,,,,white,hexagon
0.0,8.0,4.0,1.0,6.0,6.0,333.9567689999967,5.0,1.0,phase_2,stop,300.0,0.0,3.0,,,,,,,,,orange,cross
0.0,6.0,1.0,1.0,6.0,0.0,0.0,5.0,1.0,phase_2,stop,300.0,0.0,4.0,,,,,,,,,gray,circle
0.0,6.0,1.0,1.0,6.0,0.0,0.0,5.0,1.0,phase_2,stop,300.0,50.0,4.0,,,,,,,,,gray,circle
0.0,1.0,0.5,0.0,5.0,5.0,353.5447049998765,5.0,1.0,phase_2,go,300.0,100.0,1.0,,,,,,,,,blue,flipped triangle
0.0,5.0,0.5,1.0,6.0,0.0,0.0,5.0,1.0,phase_2,stop,300.0,100.0,4.0,,,,,,,,,green,square
0.0,3.0,2.0,0.0,6.0,6.0,362.7695420000236,5.0,1.0,phase_2,go,300.0,150.0,1.0,,,,,,,,,white,hexagon
0.0,8.0,4.0,1.0,6.0,6.0,365.1216650005153,5.0,1.0,phase_2,go,300.0,150.0,1.0,,,,,,,,,orange,cross
0.0,6.0,1.0,1.0,6.0,6.0,329.2554629997539,5.0,1.0,phase_2,stop,300.0,150.0,3.0,,,,,,,,,gray,circle
0.0,1.0,0.5,0.0,6.0,6.0,307.9508070004522,5.0,1.0,phase_2,go,300.0,100.0,1.0,,,,,,,,,blue,flipped triangle
0.0,5.0,0.5,1.0,5.0,5.0,369.959869000013,5.0,1.0,phase_2,go,300.0,100.0,1.0,,,,,,,,,green,square
0.0,3.0,2.0,0.0,6.0,6.0,436.0370650001641,5.0,1.0,phase_2,go,300.0,100.0,1.0,,,,,,,,,white,hexagon
0.0,1.0,0.5,0.0,6.0,6.0,379.5677620000788,5.0,1.0,phase_2,go,300.0,100.0,1.0,,,,,,,,,blue,flipped triangle
0.0,1.0,0.5,0.0,5.0,5.0,343.632033999711,5.0,1.0,phase_2,go,300.0,100.0,1.0,,,,,,,,,blue,flipped triangle
0.0,5.0,0.5,1.0,6.0,6.0,502.75702999988425,6.0,1.0,phase_2,go,300.0,100.0,1.0,,,,,,,,,green,square
0.0,6.0,1.0,1.0,5.0,5.0,292.4849130004077,6.0,1.0,phase_2,stop,300.0,100.0,3.0,,,,,,,,,gray,circle
0.0,8.0,4.0,1.0,6.0,6.0,300.2580990005299,6.0,1.0,phase_2,stop,250.0,100.0,3.0,,,,,,,,,orange,cross
0.0,7.0,2.0,1.0,5.0,5.0,289.2635309999605,6.0,1.0,phase_2,stop,250.0,50.0,3.0,,,,,,,,,cyan,diamond
0.0,1.0,0.5,0.0,5.0,5.0,358.1502799997906,6.0,1.0,phase_2,go,200.0,50.0,1.0,,,,,,,,,blue,flipped triangle
0.0,3.0,2.0,0.0,5.0,5.0,389.9102429995764,6.0,1.0,phase_2,go,200.0,50.0,1.0,,,,,,,,,white,hexagon
0.0,5.0,0.5,1.0,5.0,5.0,324.4194210001296,6.0,1.0,phase_2,stop,200.0,50.0,3.0,,,,,,,,,green,square
0.0,3.0,2.0,0.0,5.0,5.0,420.9519519999958,6.0,1.0,phase_2,go,150.0,50.0,1.0,,,,,,,,,white,hexagon
0.0,8.0,4.0,1.0,5.0,5.0,341.6385760001503,6.0,1.0,phase_2,stop,150.0,50.0,3.0,,,,,,,,,orange,cross
0.0,5.0,0.5,1.0,6.0,6.0,357.4433009998756,6.0,1.0,phase_2,stop,100.0,50.0,3.0,,,,,,,,,green,square
0.0,6.0,1.0,1.0,5.0,5.0,342.905432000407,6.0,1.0,phase_2,stop,100.0,0.0,3.0,,,,,,,,,gray,circle
0.0,2.0,1.0,0.0,5.0,5.0,624.7017140003663,6.0,1.0,phase_2,go,50.0,0.0,1.0,,,,,,,,,yellow,triangle
0.0,5.0,0.5,1.0,6.0,6.0,291.9535850005559,6.0,1.0,phase_2,stop,50.0,0.0,3.0,,,,,,,,,green,square
0.0,3.0,2.0,0.0,6.0,6.0,384.2943300005572,6.0,1.0,phase_2,go,50.0,0.0,1.0,,,,,,,,,white,hexagon
0.0,3.0,2.0,0.0,6.0,6.0,319.856148999861,6.0,1.0,phase_2,go,50.0,0.0,1.0,,,,,,,,,white,hexagon
0.0,6.0,1.0,1.0,6.0,6.0,281.3659000003099,6.0,1.0,phase_2,stop,50.0,0.0,3.0,,,,,,,,,gray,circle
0.0,3.0,2.0,0.0,6.0,6.0,344.384326999716,6.0,1.0,phase_2,go,50.0,0.0,1.0,,,,,,,,,white,hexagon
0.0,8.0,4.0,1.0,5.0,5.0,341.2858689998757,6.0,1.0,phase_2,go,50.0,0.0,1.0,,,,,,,,,orange,cross
0.0,5.0,0.5,1.0,5.0,5.0,337.0456519996878,6.0,1.0,phase_2,stop,50.0,0.0,3.0,,,,,,,,,green,square
0.0,5.0,0.5,1.0,5.0,0.0,0.0,6.0,1.0,phase_2,stop,0.0,0.0,4.0,,,,,,,,,green,square
0.0,8.0,4.0,1.0,5.0,0.0,0.0,6.0,1.0,phase_2,stop,50.0,0.0,4.0,,,,,,,,,orange,cross
0.0,3.0,2.0,0.0,6.0,6.0,311.4559440000448,6.0,1.0,phase_2,go,100.0,0.0,1.0,,,,,,,,,white,hexagon
0.0,1.0,0.5,0.0,5.0,5.0,337.9740899999888,6.0,1.0,phase_2,go,100.0,0.0,1.0,,,,,,,,,blue,flipped triangle
0.0,2.0,1.0,0.0,6.0,6.0,447.6289900003394,6.0,1.0,phase_2,go,100.0,0.0,1.0,,,,,,,,,yellow,triangle
0.0,7.0,2.0,1.0,5.0,5.0,311.6159039991544,6.0,1.0,phase_2,stop,100.0,0.0,3.0,,,,,,,,,cyan,diamond
0.0,6.0,1.0,1.0,5.0,5.0,516.6518629994243,6.0,1.0,phase_2,stop,50.0,0.0,3.0,,,,,,,,,gray,circle
0.0,5.0,0.5,1.0,6.0,6.0,341.8962260002445,6.0,1.0,phase_2,stop,0.0,0.0,3.0,,,,,,,,,green,square
0.0,4.0,4.0,0.0,6.0,6.0,537.9071799998201,6.0,1.0,phase_2,go,0.0,0.0,1.0,,,,,,,,,magenta,I
0.0,8.0,4.0,1.0,5.0,5.0,355.3711779995865,6.0,1.0,phase_2,stop,0.0,0.0,3.0,,,,,,,,,orange,cross
0.0,7.0,2.0,1.0,5.0,5.0,453.3373090007444,6.0,1.0,phase_2,go,0.0,0.0,1.0,,,,,,,,,cyan,diamond
0.0,5.0,0.5,1.0,5.0,5.0,481.4218540004731,6.0,1.0,phase_2,stop,0.0,0.0,3.0,,,,,,,,,green,square
0.0,4.0,4.0,0.0,5.0,5.0,313.9181709993863,6.0,1.0,phase_2,go,0.0,0.0,1.0,,,,,,,,,magenta,I
0.0,4.0,4.0,0.0,5.0,5.0,446.0703500008094,6.0,1.0,phase_2,go,0.0,0.0,1.0,,,,,,,,,magenta,I
0.0,3.0,2.0,0.0,6.0,6.0,318.7579859995821,6.0,1.0,phase_2,go,0.0,0.0,1.0,,,,,,,,,white,hexagon
0.0,6.0,1.0,1.0,6.0,6.0,305.4575529995418,6.0,1.0,phase_2,stop,0.0,0.0,3.0,,,,,,,,,gray,circle
0.0,3.0,2.0,0.0,6.0,6.0,324.2425109992837,6.0,1.0,phase_2,go,0.0,0.0,1.0,,,,,,,,,white,hexagon
0.0,3.0,2.0,0.0,5.0,5.0,913.0394130006608,7.0,1.0,phase_2,go,0.0,0.0,1.0,,,,,,,,,white,hexagon
0.0,6.0,1.0,1.0,5.0,5.0,358.365803000197,7.0,1.0,phase_2,stop,0.0,0.0,3.0,,,,,,,,,gray,circle
0.0,4.0,4.0,0.0,6.0,6.0,324.3061140001373,7.0,1.0,phase_2,go,0.0,0.0,1.0,,,,,,,,,magenta,I
0.0,6.0,1.0,1.0,6.0,6.0,290.6829339999603,7.0,1.0,phase_2,stop,0.0,0.0,3.0,,,,,,,,,gray,circle
0.0,7.0,2.0,1.0,6.0,0.0,0.0,7.0,1.0,phase_2,stop,0.0,0.0,4.0,,,,,,,,,cyan,diamond
0.0,1.0,0.5,0.0,6.0,6.0,1141.3087250002718,7.0,1.0,phase_2,go,0.0,50.0,1.0,,,,,,,,,blue,flipped triangle
0.0,4.0,4.0,0.0,6.0,6.0,369.6099240005424,7.0,1.0,phase_2,go,0.0,50.0,1.0,,,,,,,,,magenta,I
0.0,7.0,2.0,1.0,6.0,6.0,310.60153099952,7.0,1.0,phase_2,go,0.0,50.0,1.0,,,,,,,,,cyan,diamond
0.0,4.0,4.0,0.0,5.0,5.0,619.4257369998013,7.0,1.0,phase_2,go,0.0,50.0,1.0,,,,,,,,,magenta,I
0.0,4.0,4.0,0.0,5.0,5.0,318.3486560001256,7.0,1.0,phase_2,go,0.0,50.0,1.0,,,,,,,,,magenta,I
0.0,8.0,4.0,1.0,6.0,6.0,497.5770809996902,7.0,1.0,phase_2,go,0.0,50.0,1.0,,,,,,,,,orange,cross
0.0,1.0,0.5,0.0,6.0,6.0,532.3206570001275,7.0,1.0,phase_2,go,0.0,50.0,1.0,,,,,,,,,blue,flipped triangle
0.0,2.0,1.0,0.0,5.0,5.0,279.3115530002978,7.0,1.0,phase_2,go,0.0,50.0,1.0,,,,,,,,,yellow,triangle
0.0,7.0,2.0,1.0,6.0,6.0,403.2351099995139,7.0,1.0,phase_2,go,0.0,50.0,1.0,,,,,,,,,cyan,diamond
0.0,6.0,1.0,1.0,6.0,6.0,463.1106830001954,7.0,1.0,phase_2,stop,0.0,50.0,3.0,,,,,,,,,gray,circle
0.0,4.0,4.0,0.0,6.0,6.0,529.212720999567,7.0,1.0,phase_2,go,0.0,0.0,1.0,,,,,,,,,magenta,I
0.0,1.0,0.5,0.0,6.0,6.0,376.6860709993125,7.0,1.0,phase_2,go,0.0,0.0,1.0,,,,,,,,,blue,flipped triangle
0.0,5.0,0.5,1.0,5.0,5.0,277.4478019991875,7.0,1.0,phase_2,stop,0.0,0.0,3.0,,,,,,,,,green,square
0.0,2.0,1.0,0.0,6.0,6.0,258.582712000134,7.0,1.0,phase_2,go,0.0,0.0,1.0,,,,,,,,,yellow,triangle
0.0,1.0,0.5,0.0,5.0,5.0,327.6921430006041,7.0,1.0,phase_2,go,0.0,0.0,1.0,,,,,,,,,blue,flipped triangle
0.0,5.0,0.5,1.0,6.0,0.0,0.0,7.0,1.0,phase_2,stop,0.0,0.0,4.0,,,,,,,,,green,square
0.0,8.0,4.0,1.0,6.0,6.0,372.3971459994573,7.0,1.0,phase_2,go,0.0,50.0,1.0,,,,,,,,,orange,cross
0.0,8.0,4.0,1.0,6.0,6.0,430.8015119995616,7.0,1.0,phase_2,go,0.0,50.0,1.0,,,,,,,,,orange,cross
0.0,7.0,2.0,1.0,6.0,6.0,335.3558399994654,7.0,1.0,phase_2,go,0.0,50.0,1.0,,,,,,,,,cyan,diamond
0.0,6.0,1.0,1.0,5.0,5.0,303.2684199997675,7.0,1.0,phase_2,stop,0.0,50.0,3.0,,,,,,,,,gray,circle
0.0,7.0,2.0,1.0,6.0,6.0,349.6244989992192,7.0,1.0,phase_2,stop,0.0,50.0,3.0,,,,,,,,,cyan,diamond
0.0,1.0,0.5,0.0,5.0,5.0,374.9984949999998,7.0,1.0,phase_2,go,0.0,0.0,1.0,,,,,,,,,blue,flipped triangle
0.0,7.0,2.0,1.0,5.0,0.0,0.0,7.0,1.0,phase_2,stop,0.0,0.0,4.0,,,,,,,,,cyan,diamond
0.0,7.0,2.0,1.0,5.0,0.0,0.0,7.0,1.0,phase_2,stop,50.0,0.0,4.0,,,,,,,,,cyan,diamond
0.0,3.0,2.0,0.0,5.0,5.0,392.9392720001488,7.0,1.0,phase_2,go,100.0,0.0,1.0,,,,,,,,,white,hexagon
0.0,6.0,1.0,1.0,5.0,5.0,364.6885439993639,7.0,1.0,phase_2,go,100.0,0.0,1.0,,,,,,,,,gray,circle
0.0,2.0,1.0,0.0,5.0,5.0,386.6763000005448,7.0,1.0,phase_2,go,100.0,0.0,1.0,,,,,,,,,yellow,triangle
0.0,5.0,0.5,1.0,6.0,6.0,384.453933000259,7.0,1.0,phase_2,stop,100.0,0.0,3.0,,,,,,,,,green,square
0.0,4.0,4.0,0.0,5.0,5.0,484.2198890000873,7.0,1.0,phase_2,go,100.0,0.0,1.0,,,,,,,,,magenta,I
0.0,8.0,4.0,1.0,5.0,5.0,403.5096409998004,7.0,1.0,phase_2,stop,100.0,0.0,3.0,,,,,,,,,orange,cross
0.0,3.0,2.0,0.0,6.0,6.0,540.8315869999569,7.0,1.0,phase_2,go,50.0,0.0,1.0,,,,,,,,,white,hexagon
0.0,1.0,0.5,0.0,6.0,6.0,402.3377379999147,8.0,1.0,phase_2,go,50.0,0.0,1.0,,,,,,,,,blue,flipped triangle
0.0,6.0,1.0,1.0,6.0,6.0,316.6930979996323,8.0,1.0,phase_2,stop,50.0,0.0,3.0,,,,,,,,,gray,circle
0.0,4.0,4.0,0.0,6.0,6.0,548.4384199999113,8.0,1.0,phase_2,go,50.0,0.0,1.0,,,,,,,,,magenta,I
0.0,3.0,2.0,0.0,6.0,6.0,371.7622969998047,8.0,1.0,phase_2,go,50.0,0.0,1.0,,,,,,,,,white,hexagon
0.0,6.0,1.0,1.0,6.0,6.0,312.2422719998212,8.0,1.0,phase_2,stop,50.0,0.0,3.0,,,,,,,,,gray,circle
0.0,1.0,0.5,0.0,6.0,6.0,408.7168930000189,8.0,1.0,phase_2,go,50.0,0.0,1.0,,,,,,,,,blue,flipped triangle
0.0,6.0,1.0,1.0,5.0,0.0,0.0,8.0,1.0,phase_2,stop,50.0,0.0,4.0,,,,,,,,,gray,circle
0.0,3.0,2.0,0.0,6.0,6.0,298.0185559999881,8.0,1.0,phase_2,go,100.0,0.0,1.0,,,,,,,,,white,hexagon
0.0,4.0,4.0,0.0,6.0,6.0,648.09536499979,8.0,1.0,phase_2,go,100.0,0.0,1.0,,,,,,,,,magenta,I
0.0,5.0,0.5,1.0,6.0,6.0,334.9889569999504,8.0,1.0,phase_2,go,100.0,0.0,1.0,,,,,,,,,green,square
0.0,1.0,0.5,0.0,5.0,5.0,286.135192999609,8.0,1.0,phase_2,go,100.0,0.0,1.0,,,,,,,,,blue,flipped triangle
0.0,5.0,0.5,1.0,5.0,0.0,0.0,8.0,1.0,phase_2,stop,100.0,0.0,4.0,,,,,,,,,green,square
0.0,8.0,4.0,1.0,5.0,5.0,550.8803840002656,8.0,1.0,phase_2,go,150.0,0.0,1.0,,,,,,,,,orange,cross
0.0,2.0,1.0,0.0,5.0,5.0,361.7061989998547,8.0,1.0,phase_2,go,150.0,0.0,1.0,,,,,,,,,yellow,triangle
0.0,5.0,0.5,1.0,6.0,6.0,308.3641029998034,8.0,1.0,phase_2,stop,150.0,0.0,3.0,,,,,,,,,green,square
0.0,7.0,2.0,1.0,5.0,5.0,696.7894200006413,8.0,1.0,phase_2,go,150.0,0.0,1.0,,,,,,,,,cyan,diamond
0.0,1.0,0.5,0.0,5.0,5.0,441.8585330004134,8.0,1.0,phase_2,go,150.0,0.0,1.0,,,,,,,,,blue,flipped triangle
0.0,1.0,0.5,0.0,6.0,6.0,494.6831570005088,8.0,1.0,phase_2,go,150.0,0.0,1.0,,,,,,,,,blue,flipped triangle
0.0,5.0,0.5,1.0,5.0,5.0,319.3163630003255,8.0,1.0,phase_2,stop,150.0,0.0,3.0,,,,,,,,,green,square
0.0,5.0,0.5,1.0,5.0,0.0,0.0,8.0,1.0,phase_2,stop,100.0,0.0,4.0,,,,,,,,,green,square
0.0,1.0,0.5,0.0,6.0,6.0,325.0962160000199,8.0,1.0,phase_2,go,150.0,0.0,1.0,,,,,,,,,blue,flipped triangle
0.0,2.0,1.0,0.0,6.0,6.0,364.6186089999901,8.0,1.0,phase_2,go,150.0,0.0,1.0,,,,,,,,,yellow,triangle
0.0,4.0,4.0,0.0,6.0,6.0,355.1883640002415,8.0,1.0,phase_2,go,150.0,0.0,1.0,,,,,,,,,magenta,I
0.0,8.0,4.0,1.0,6.0,0.0,0.0,8.0,1.0,phase_2,stop,150.0,0.0,4.0,,,,,,,,,orange,cross
0.0,3.0,2.0,0.0,5.0,5.0,490.6597939998391,8.0,1.0,phase_2,go,150.0,50.0,1.0,,,,,,,,,white,hexagon
0.0,5.0,0.5,1.0,5.0,5.0,363.5515659998418,8.0,1.0,phase_2,stop,150.0,50.0,3.0,,,,,,,,,green,square
0.0,5.0,0.5,1.0,5.0,5.0,435.8418719994006,8.0,1.0,phase_2,go,100.0,50.0,1.0,,,,,,,,,green,square
0.0,3.0,2.0,0.0,5.0,5.0,379.0988479995576,8.0,1.0,phase_2,go,100.0,50.0,1.0,,,,,,,,,white,hexagon
0.0,6.0,1.0,1.0,5.0,5.0,447.9557890008436,8.0,1.0,phase_2,stop,100.0,50.0,3.0,,,,,,,,,gray,circle
0.0,4.0,4.0,0.0,5.0,5.0,583.7168130001373,8.0,1.0,phase_2,go,50.0,50.0,1.0,,,,,,,,,magenta,I
0.0,7.0,2.0,1.0,6.0,6.0,504.70745699931285,8.0,1.0,phase_2,go,50.0,50.0,1.0,,,,,,,,,cyan,diamond
0.0,3.0,2.0,0.0,5.0,5.0,367.7493939994747,8.0,1.0,phase_2,go,50.0,50.0,1.0,,,,,,,,,white,hexagon
0.0,8.0,4.0,1.0,6.0,0.0,0.0,8.0,1.0,phase_2,stop,50.0,50.0,4.0,,,,,,,,,orange,cross
0.0,3.0,2.0,0.0,6.0,6.0,473.7958519999665,8.0,1.0,phase_2,go,50.0,100.0,1.0,,,,,,,,,white,hexagon
0.0,1.0,0.5,0.0,6.0,6.0,334.1544579998299,8.0,1.0,phase_2,go,50.0,100.0,1.0,,,,,,,,,blue,flipped triangle
0.0,3.0,2.0,0.0,5.0,5.0,381.9555460004267,8.0,1.0,phase_2,go,50.0,100.0,1.0,,,,,,,,,white,hexagon
0.0,8.0,4.0,1.0,7.0,4.0,2064.456351000445,1.0,2.0,phase_3,,,,,102.0,3.0,136.0,68.0,34.0,102.0,170.0,204.0,orange,cross
0.0,3.0,2.0,0.0,7.0,2.0,3799.825917999442,1.0,1.0,phase_3,,,,,170.0,5.0,34.0,170.0,204.0,68.0,102.0,136.0,white,hexagon
0.0,3.0,2.0,0.0,7.0,3.0,3386.292422000224,1.0,1.0,phase_3,,,,,264.0,6.0,176.0,132.0,264.0,44.0,220.0,88.0,white,hexagon
0.0,6.0,1.0,1.0,7.0,1.0,4385.029725000095,1.0,1.0,phase_3,,,,,88.0,2.0,88.0,220.0,44.0,176.0,132.0,264.0,gray,circle
0.0,1.0,0.5,0.0,7.0,2.0,1948.5279860000448,1.0,1.0,phase_3,,,,,245.0,5.0,98.0,245.0,49.0,196.0,147.0,294.0,blue,flipped triangle
0.0,7.0,2.0,1.0,7.0,5.0,2339.977134000037,1.0,1.0,phase_3,,,,,294.0,6.0,147.0,245.0,98.0,196.0,294.0,49.0,cyan,diamond
0.0,7.0,2.0,1.0,7.0,6.0,2806.234643000608,1.0,1.0,phase_3,,,,,102.0,3.0,136.0,170.0,204.0,34.0,68.0,102.0,cyan,diamond
0.0,2.0,1.0,0.0,7.0,3.0,2258.4560609993787,1.0,1.0,phase_3,,,,,270.0,5.0,324.0,54.0,270.0,162.0,108.0,216.0,yellow,triangle
0.0,6.0,1.0,1.0,7.0,5.0,2038.0709159999242,1.0,1.0,phase_3,,,,,147.0,3.0,245.0,49.0,294.0,98.0,147.0,196.0,gray,circle
0.0,2.0,1.0,0.0,7.0,3.0,2341.572470999381,1.0,1.0,phase_3,,,,,136.0,4.0,170.0,102.0,136.0,68.0,204.0,34.0,yellow,triangle
0.0,1.0,0.5,0.0,7.0,2.0,2234.509545000037,1.0,1.0,phase_3,,,,,170.0,5.0,204.0,170.0,102.0,34.0,68.0,136.0,blue,flipped triangle
0.0,8.0,4.0,1.0,7.0,4.0,2505.899887999476,1.0,1.0,phase_3,,,,,102.0,3.0,170.0,34.0,68.0,102.0,204.0,136.0,orange,cross
0.0,1.0,0.5,0.0,7.0,1.0,1283.8043350002408,1.0,1.0,phase_3,,,,,162.0,3.0,162.0,54.0,216.0,324.0,108.0,270.0,blue,flipped triangle
0.0,1.0,0.5,0.0,7.0,3.0,2796.550759000638,1.0,1.0,phase_3,,,,,117.0,3.0,195.0,78.0,117.0,156.0,234.0,39.0,blue,flipped triangle
0.0,2.0,1.0,0.0,7.0,6.0,2893.802081999638,1.0,1.0,phase_3,,,,,176.0,4.0,264.0,132.0,88.0,220.0,44.0,176.0,yellow,triangle
0.0,8.0,4.0,1.0,7.0,1.0,2599.6688280001763,1.0,1.0,phase_3,,,,,270.0,5.0,270.0,324.0,216.0,162.0,108.0,54.0,orange,cross
0.0,7.0,2.0,1.0,7.0,4.0,2189.545965000434,1.0,1.0,phase_3,,,,,108.0,2.0,216.0,162.0,270.0,108.0,54.0,324.0,cyan,diamond
0.0,5.0,0.5,1.0,7.0,6.0,2260.939996999696,1.0,1.0,phase_3,,,,,176.0,4.0,88.0,132.0,264.0,220.0,44.0,176.0,green,square
0.0,2.0,1.0,0.0,7.0,1.0,3210.7030750003105,1.0,1.0,phase_3,,,,,132.0,3.0,132.0,88.0,220.0,44.0,264.0,176.0,yellow,triangle
0.0,2.0,1.0,0.0,7.0,6.0,1535.106491000079,1.0,1.0,phase_3,,,,,156.0,4.0,195.0,117.0,39.0,78.0,234.0,156.0,yellow,triangle
0.0,4.0,4.0,0.0,7.0,2.0,1516.2457799997355,2.0,1.0,phase_3,,,,,117.0,3.0,195.0,117.0,39.0,156.0,78.0,234.0,magenta,I
0.0,1.0,0.5,0.0,7.0,4.0,1307.2047379992,2.0,1.0,phase_3,,,,,204.0,6.0,170.0,102.0,34.0,204.0,136.0,68.0,blue,flipped triangle
0.0,5.0,0.5,1.0,7.0,5.0,2713.995252000132,2.0,1.0,phase_3,,,,,324.0,6.0,216.0,270.0,162.0,54.0,324.0,108.0,green,square
0.0,3.0,2.0,0.0,7.0,3.0,1504.4990609994784,2.0,1.0,phase_3,,,,,294.0,6.0,147.0,245.0,294.0,196.0,98.0,49.0,white,hexagon
0.0,1.0,0.5,0.0,7.0,2.0,1656.1329329997534,2.0,1.0,phase_3,,,,,162.0,3.0,270.0,162.0,108.0,54.0,216.0,324.0,blue,flipped triangle
0.0,6.0,1.0,1.0,7.0,4.0,1120.456145999924,2.0,1.0,phase_3,,,,,270.0,5.0,108.0,54.0,216.0,270.0,162.0,324.0,gray,circle
0.0,3.0,2.0,0.0,7.0,4.0,3002.9550360004578,2.0,1.0,phase_3,,,,,88.0,2.0,132.0,44.0,176.0,88.0,220.0,264.0,white,hexagon
0.0,3.0,2.0,0.0,7.0,2.0,1166.237915999773,2.0,1.0,phase_3,,,,,170.0,5.0,204.0,170.0,136.0,34.0,102.0,68.0,white,hexagon
0.0,5.0,0.5,1.0,7.0,4.0,2196.3831709999795,2.0,1.0,phase_3,,,,,156.0,4.0,117.0,78.0,195.0,156.0,39.0,234.0,green,square
0.0,4.0,4.0,0.0,7.0,6.0,2895.595224999852,2.0,1.0,phase_3,,,,,170.0,5.0,102.0,34.0,204.0,136.0,68.0,170.0,magenta,I
0.0,4.0,4.0,0.0,7.0,3.0,1306.1874430004536,2.0,1.0,phase_3,,,,,324.0,6.0,54.0,216.0,324.0,270.0,162.0,108.0,magenta,I
0.0,6.0,1.0,1.0,7.0,2.0,1642.1642420000353,2.0,1.0,phase_3,,,,,196.0,4.0,98.0,196.0,49.0,294.0,147.0,245.0,gray,circle
0.0,1.0,0.5,0.0,7.0,6.0,2031.16521299944,2.0,1.0,phase_3,,,,,234.0,6.0,78.0,156.0,195.0,39.0,117.0,234.0,blue,flipped triangle
0.0,4.0,4.0,0.0,7.0,1.0,1890.0121919996309,2.0,1.0,phase_3,,,,,132.0,3.0,132.0,264.0,44.0,220.0,88.0,176.0,magenta,I
0.0,5.0,0.5,1.0,7.0,2.0,1589.6961819998978,2.0,1.0,phase_3,,,,,170.0,5.0,136.0,170.0,68.0,102.0,34.0,204.0,green,square
0.0,3.0,2.0,0.0,7.0,5.0,2290.589559000182,2.0,1.0,phase_3,,,,,195.0,5.0,39.0,117.0,156.0,234.0,195.0,78.0,white,hexagon
0.0,2.0,1.0,0.0,7.0,1.0,1798.8795080000273,2.0,1.0,phase_3,,,,,98.0,2.0,98.0,294.0,245.0,196.0,147.0,49.0,yellow,triangle
0.0,4.0,4.0,0.0,7.0,2.0,2263.606877999337,2.0,1.0,phase_3,,,,,102.0,3.0,170.0,102.0,34.0,68.0,136.0,204.0,magenta,I
0.0,5.0,0.5,1.0,7.0,4.0,1428.9460339996367,2.0,1.0,phase_3,,,,,196.0,4.0,49.0,98.0,245.0,196.0,147.0,294.0,green,square
0.0,7.0,2.0,1.0,7.0,5.0,2311.331558999882,2.0,1.0,phase_3,,,,,136.0,4.0,170.0,68.0,102.0,34.0,136.0,204.0,cyan,diamond
0.0,8.0,4.0,1.0,7.0,2.0,2056.6724710006383,3.0,1.0,phase_3,,,,,294.0,6.0,98.0,294.0,49.0,147.0,196.0,245.0,orange,cross
0.0,8.0,4.0,1.0,7.0,3.0,1041.1331479999717,3.0,1.0,phase_3,,,,,220.0,5.0,264.0,88.0,220.0,44.0,132.0,176.0,orange,cross
0.0,2.0,1.0,0.0,7.0,4.0,1875.580648000323,3.0,1.0,phase_3,,,,,147.0,3.0,196.0,294.0,49.0,147.0,98.0,245.0,yellow,triangle
0.0,5.0,0.5,1.0,7.0,3.0,2625.183143999493,3.0,1.0,phase_3,,,,,270.0,5.0,216.0,324.0,270.0,54.0,162.0,108.0,green,square
0.0,8.0,4.0,1.0,7.0,1.0,1726.8908079995526,3.0,1.0,phase_3,,,,,294.0,6.0,294.0,98.0,49.0,196.0,147.0,245.0,orange,cross
0.0,7.0,2.0,1.0,7.0,6.0,1963.2969839994985,3.0,1.0,phase_3,,,,,117.0,3.0,234.0,156.0,195.0,39.0,78.0,117.0,cyan,diamond
0.0,4.0,4.0,0.0,7.0,2.0,1403.401424000549,3.0,1.0,phase_3,,,,,245.0,5.0,147.0,245.0,49.0,294.0,98.0,196.0,magenta,I
0.0,3.0,2.0,0.0,7.0,6.0,2409.4968620001964,3.0,1.0,phase_3,,,,,78.0,2.0,117.0,39.0,156.0,234.0,195.0,78.0,white,hexagon
0.0,8.0,4.0,1.0,7.0,2.0,2218.4185679998336,3.0,1.0,phase_3,,,,,234.0,6.0,78.0,234.0,39.0,156.0,117.0,195.0,orange,cross
0.0,6.0,1.0,1.0,7.0,4.0,1512.38121499955,3.0,1.0,phase_3,,,,,156.0,4.0,117.0,78.0,234.0,156.0,39.0,195.0,gray,circle
0.0,6.0,1.0,1.0,7.0,6.0,1780.0578950000272,3.0,1.0,phase_3,,,,,108.0,2.0,270.0,162.0,324.0,216.0,54.0,108.0,gray,circle
0.0,3.0,2.0,0.0,7.0,2.0,1323.4563149999303,3.0,1.0,phase_3,,,,,162.0,3.0,108.0,162.0,324.0,270.0,54.0,216.0,white,hexagon
0.0,2.0,1.0,0.0,7.0,6.0,1930.427729999792,3.0,1.0,phase_3,,,,,270.0,5.0,162.0,54.0,216.0,108.0,324.0,270.0,yellow,triangle
0.0,1.0,0.5,0.0,7.0,3.0,2469.121264000023,3.0,1.0,phase_3,,,,,264.0,6.0,176.0,220.0,264.0,44.0,132.0,88.0,blue,flipped triangle
0.0,3.0,2.0,0.0,7.0,3.0,1576.9492819999869,3.0,1.0,phase_3,,,,,196.0,4.0,245.0,98.0,196.0,147.0,49.0,294.0,white,hexagon
0.0,8.0,4.0,1.0,7.0,2.0,1360.8168020000448,3.0,1.0,phase_3,,,,,216.0,4.0,162.0,216.0,324.0,108.0,270.0,54.0,orange,cross
0.0,7.0,2.0,1.0,7.0,3.0,2782.1978390002187,3.0,1.0,phase_3,,,,,294.0,6.0,49.0,245.0,294.0,147.0,98.0,196.0,cyan,diamond
0.0,2.0,1.0,0.0,7.0,2.0,1989.5327849999376,3.0,1.0,phase_3,,,,,204.0,6.0,102.0,204.0,170.0,34.0,136.0,68.0,yellow,triangle
0.0,4.0,4.0,0.0,7.0,3.0,2783.7073939999755,3.0,1.0,phase_3,,,,,270.0,5.0,54.0,162.0,270.0,108.0,216.0,324.0,magenta,I
0.0,1.0,0.5,0.0,7.0,3.0,1860.2211199995509,3.0,1.0,phase_3,,,,,245.0,5.0,196.0,147.0,245.0,98.0,49.0,294.0,blue,flipped triangle
0.0,2.0,1.0,0.0,7.0,4.0,1932.3804259993267,4.0,1.0,phase_3,,,,,195.0,5.0,234.0,117.0,78.0,195.0,39.0,156.0,yellow,triangle
0.0,7.0,2.0,1.0,7.0,5.0,2472.138127999642,4.0,1.0,phase_3,,,,,195.0,5.0,117.0,78.0,234.0,39.0,195.0,156.0,cyan,diamond
0.0,5.0,0.5,1.0,7.0,3.0,2251.673428999311,4.0,1.0,phase_3,,,,,220.0,5.0,264.0,176.0,220.0,44.0,88.0,132.0,green,square
0.0,6.0,1.0,1.0,7.0,5.0,2044.5679579997886,4.0,1.0,phase_3,,,,,78.0,2.0,156.0,39.0,117.0,234.0,78.0,195.0,gray,circle
0.0,1.0,0.5,0.0,7.0,2.0,2047.8933370004602,4.0,1.0,phase_3,,,,,176.0,4.0,88.0,176.0,44.0,220.0,264.0,132.0,blue,flipped triangle
0.0,4.0,4.0,0.0,7.0,3.0,1707.5087419998454,4.0,1.0,phase_3,,,,,195.0,5.0,78.0,117.0,195.0,156.0,234.0,39.0,magenta,I
0.0,3.0,2.0,0.0,7.0,4.0,1907.572402999904,4.0,1.0,phase_3,,,,,270.0,5.0,162.0,324.0,54.0,270.0,108.0,216.0,white,hexagon
0.0,7.0,2.0,1.0,7.0,2.0,2077.24321600017,4.0,1.0,phase_3,,,,,264.0,6.0,88.0,264.0,220.0,44.0,176.0,132.0,cyan,diamond
0.0,5.0,0.5,1.0,7.0,3.0,3106.976415000645,4.0,1.0,phase_3,,,,,196.0,4.0,245.0,294.0,196.0,147.0,49.0,98.0,green,square
0.0,6.0,1.0,1.0,7.0,5.0,1795.3657230000315,4.0,1.0,phase_3,,,,,204.0,6.0,68.0,34.0,170.0,102.0,204.0,136.0,gray,circle
0.0,8.0,4.0,1.0,7.0,3.0,1856.2961010002252,4.0,1.0,phase_3,,,,,132.0,3.0,44.0,264.0,132.0,220.0,88.0,176.0,orange,cross
0.0,5.0,0.5,1.0,7.0,5.0,1736.251540000012,4.0,1.0,phase_3,,,,,195.0,5.0,156.0,234.0,117.0,39.0,195.0,78.0,green,square
0.0,7.0,2.0,1.0,7.0,3.0,2335.2916359999654,4.0,1.0,phase_3,,,,,324.0,6.0,108.0,162.0,324.0,216.0,270.0,54.0,cyan,diamond
0.0,4.0,4.0,0.0,7.0,3.0,1477.5886830002491,4.0,1.0,phase_3,,,,,264.0,6.0,88.0,44.0,264.0,176.0,220.0,132.0,magenta,I
0.0,5.0,0.5,1.0,7.0,3.0,1547.3475540002255,4.0,1.0,phase_3,,,,,170.0,5.0,68.0,136.0,170.0,102.0,204.0,34.0,green,square
0.0,7.0,2.0,1.0,7.0,6.0,2127.173665000555,4.0,1.0,phase_3,,,,,264.0,6.0,176.0,88.0,220.0,44.0,132.0,264.0,cyan,diamond
0.0,4.0,4.0,0.0,7.0,3.0,1165.5848520003929,4.0,1.0,phase_3,,,,,294.0,6.0,245.0,49.0,294.0,147.0,196.0,98.0,magenta,I
0.0,6.0,1.0,1.0,7.0,4.0,2051.7342289995213,4.0,1.0,phase_3,,,,,68.0,2.0,102.0,170.0,136.0,68.0,34.0,204.0,gray,circle
0.0,8.0,4.0,1.0,7.0,5.0,1562.2521919995052,4.0,1.0,phase_3,,,,,78.0,2.0,195.0,234.0,39.0,156.0,78.0,117.0,orange,cross
0.0,6.0,1.0,1.0,7.0,2.0,892.4659019994579,4.0,1.0,phase_3,,,,,264.0,6.0,176.0,264.0,44.0,88.0,132.0,220.0,gray,circle
