raw_reward_magnitude,stim_reward,stepwise_reward_magnitude,paired_with_stopping,stim_location,response,reaction_time,block,num_trial_presentations,which_phase,stop_signal_trial_type,left_SSD,right_SSD,accuracy,chosen_bidding_amount,chosen_bidding_level,possible_bid_1,possible_bid_2,possible_bid_3,possible_bid_4,possible_bid_5,possible_bid_6,color_text,shape_text
183.0,3.0,3.0,0.0,2.0,2.0,456.9517989984888,1.0,1.0,phase_1,,,,,,,,,,,,,white,cross
0.0,1.0,0.0,0.0,3.0,3.0,477.3066540001309,1.0,1.0,phase_1,,,,,,,,,,,,,yellow,diamond
210.0,7.0,3.0,1.0,4.0,4.0,432.9185359965777,1.0,1.0,phase_1,,,,,,,,,,,,,cyan,triangle
222.0,7.0,3.0,1.0,3.0,3.0,420.4843769985018,1.0,1.0,phase_1,,,,,,,,,,,,,cyan,triangle
30.0,1.0,1.0,0.0,2.0,2.0,311.1341930016351,1.0,1.0,phase_1,,,,,,,,,,,,,yellow,diamond
88.0,6.0,2.0,1.0,2.0,2.0,342.1727209970413,1.0,1.0,phase_1,,,,,,,,,,,,,green,circle
221.0,3.0,3.0,0.0,3.0,3.0,325.4250149984727,1.0,1.0,phase_1,,,,,,,,,,,,,white,cross
56.0,1.0,1.0,0.0,1.0,1.0,322.800305999408,1.0,1.0,phase_1,,,,,,,,,,,,,yellow,diamond
195.0,7.0,3.0,1.0,1.0,1.0,354.4796890018915,1.0,1.0,phase_1,,,,,,,,,,,,,cyan,triangle
405.0,8.0,4.0,1.0,3.0,3.0,322.0042020002438,1.0,1.0,phase_1,,,,,,,,,,,,,orange,square
207.0,7.0,3.0,1.0,4.0,4.0,320.9728389992961,1.0,1.0,phase_1,,,,,,,,,,,,,cyan,triangle
411.0,4.0,4.0,0.0,1.0,1.0,322.6840759998595,1.0,1.0,phase_1,,,,,,,,,,,,,magenta,flipped triangle
423.0,4.0,4.0,0.0,3.0,3.0,414.7193010030605,1.0,1.0,phase_1,,,,,,,,,,,,,magenta,flipped triangle
43.0,1.0,1.0,0.0,2.0,2.0,318.2521859998815,1.0,1.0,phase_1,,,,,,,,,,,,,yellow,diamond
0.0,6.0,0.0,1.0,1.0,1.0,301.4639270004409,1.0,1.0,phase_1,,,,,,,,,,,,,green,circle
0.0,2.0,0.0,0.0,3.0,3.0,369.6764609994716,1.0,1.0,phase_1,,,,,,,,,,,,,gray,I
176.0,7.0,3.0,1.0,3.0,3.0,329.448485001194,1.0,1.0,phase_1,,,,,,,,,,,,,cyan,triangle
399.0,8.0,4.0,1.0,4.0,4.0,311.1175890007871,1.0,1.0,phase_1,,,,,,,,,,,,,orange,square
0.0,8.0,0.0,1.0,1.0,1.0,295.2659919974394,1.0,1.0,phase_1,,,,,,,,,,,,,orange,square
86.0,2.0,2.0,0.0,2.0,2.0,274.0010260022245,1.0,1.0,phase_1,,,,,,,,,,,,,gray,I
35.0,5.0,1.0,1.0,4.0,4.0,300.1171860014437,1.0,1.0,phase_1,,,,,,,,,,,,,blue,hexagon
0.0,2.0,0.0,0.0,3.0,3.0,288.7034630002745,1.0,1.0,phase_1,,,,,,,,,,,,,gray,I
67.0,5.0,1.0,1.0,3.0,3.0,301.2387630005833,1.0,1.0,phase_1,,,,,,,,,,,,,blue,hexagon
46.0,1.0,1.0,0.0,4.0,4.0,292.1838639995258,1.0,1.0,phase_1,,,,,,,,,,,,,yellow,diamond
224.0,7.0,3.0,1.0,1.0,1.0,281.0658770031295,1.0,1.0,phase_1,,,,,,,,,,,,,cyan,triangle
414.0,4.0,4.0,0.0,4.0,4.0,308.4915530016587,1.0,1.0,phase_1,,,,,,,,,,,,,magenta,flipped triangle
381.0,8.0,4.0,1.0,4.0,4.0,307.1315369998046,1.0,1.0,phase_1,,,,,,,,,,,,,orange,square
382.0,8.0,4.0,1.0,3.0,3.0,289.9955909997516,1.0,1.0,phase_1,,,,,,,,,,,,,orange,square
190.0,3.0,3.0,0.0,2.0,2.0,283.068312000978,1.0,1.0,phase_1,,,,,,,,,,,,,white,cross
120.0,6.0,2.0,1.0,1.0,1.0,276.5086040017195,1.0,1.0,phase_1,,,,,,,,,,,,,green,circle
0.0,7.0,0.0,1.0,3.0,3.0,297.6482150006632,1.0,1.0,phase_1,,,,,,,,,,,,,cyan,triangle
90.0,2.0,2.0,0.0,4.0,4.0,303.5162300002412,1.0,1.0,phase_1,,,,,,,,,,,,,gray,I
407.0,4.0,4.0,0.0,1.0,1.0,315.8586530007596,1.0,1.0,phase_1,,,,,,,,,,,,,magenta,flipped triangle
86.0,6.0,2.0,1.0,1.0,1.0,278.7359530011599,1.0,1.0,phase_1,,,,,,,,,,,,,green,circle
35.0,1.0,1.0,0.0,4.0,4.0,270.192626001517,1.0,1.0,phase_1,,,,,,,,,,,,,yellow,diamond
0.0,4.0,0.0,0.0,4.0,4.0,282.9554970012395,1.0,1.0,phase_1,,,,,,,,,,,,,magenta,flipped triangle
111.0,6.0,2.0,1.0,4.0,4.0,264.5987590003642,1.0,1.0,phase_1,,,,,,,,,,,,,green,circle
391.0,8.0,4.0,1.0,1.0,1.0,315.0670020004327,1.0,1.0,phase_1,,,,,,,,,,,,,orange,square
0.0,3.0,0.0,0.0,1.0,1.0,272.7869849986746,1.0,1.0,phase_1,,,,,,,,,,,,,white,cross
180.0,3.0,3.0,0.0,3.0,3.0,312.6022789983835,1.0,1.0,phase_1,,,,,,,,,,,,,white,cross
108.0,2.0,2.0,0.0,4.0,4.0,300.9878839984594,1.0,1.0,phase_1,,,,,,,,,,,,,gray,I
117.0,6.0,2.0,1.0,4.0,4.0,261.1271639980259,1.0,1.0,phase_1,,,,,,,,,,,,,green,circle
81.0,2.0,2.0,0.0,2.0,2.0,295.3405909975117,1.0,1.0,phase_1,,,,,,,,,,,,,gray,I
417.0,8.0,4.0,1.0,2.0,2.0,286.7559670012269,1.0,1.0,phase_1,,,,,,,,,,,,,orange,square
176.0,3.0,3.0,0.0,2.0,2.0,290.2558319983654,1.0,1.0,phase_1,,,,,,,,,,,,,white,cross
71.0,5.0,1.0,1.0,4.0,4.0,335.5200679980044,1.0,1.0,phase_1,,,,,,,,,,,,,blue,hexagon
66.0,5.0,1.0,1.0,1.0,1.0,287.4312519998057,1.0,1.0,phase_1,,,,,,,,,,,,,blue,hexagon
0.0,5.0,0.0,1.0,3.0,3.0,317.4222100024053,1.0,1.0,phase_1,,,,,,,,,,,,,blue,hexagon
0.0,7.0,0.0,1.0,4.0,4.0,288.3935129975725,1.0,1.0,phase_1,,,,,,,,,,,,,cyan,triangle
407.0,8.0,4.0,1.0,3.0,3.0,306.9317919980676,1.0,1.0,phase_1,,,,,,,,,,,,,orange,square
110.0,6.0,2.0,1.0,3.0,3.0,289.9991979975311,1.0,1.0,phase_1,,,,,,,,,,,,,green,circle
187.0,3.0,3.0,0.0,4.0,4.0,294.2774729999655,1.0,1.0,phase_1,,,,,,,,,,,,,white,cross
0.0,2.0,0.0,0.0,3.0,3.0,297.1260730009817,1.0,1.0,phase_1,,,,,,,,,,,,,gray,I
394.0,8.0,4.0,1.0,3.0,3.0,293.3003470025142,1.0,1.0,phase_1,,,,,,,,,,,,,orange,square
394.0,8.0,4.0,1.0,2.0,2.0,354.2987500004528,1.0,1.0,phase_1,,,,,,,,,,,,,orange,square
96.0,2.0,2.0,0.0,3.0,3.0,282.0687579987861,1.0,1.0,phase_1,,,,,,,,,,,,,gray,I
211.0,3.0,3.0,0.0,1.0,1.0,280.4673890022968,1.0,1.0,phase_1,,,,,,,,,,,,,white,cross
41.0,5.0,1.0,1.0,3.0,3.0,288.9961139990191,1.0,1.0,phase_1,,,,,,,,,,,,,blue,hexagon
187.0,7.0,3.0,1.0,4.0,4.0,307.2392310023133,1.0,1.0,phase_1,,,,,,,,,,,,,cyan,triangle
223.0,3.0,3.0,0.0,3.0,3.0,289.5166320013231,1.0,1.0,phase_1,,,,,,,,,,,,,white,cross
103.0,6.0,2.0,1.0,3.0,3.0,350.0950859997829,1.0,2.0,phase_1,,,,,,,,,,,,,green,circle
67.0,1.0,1.0,0.0,2.0,2.0,302.1639209982822,1.0,1.0,phase_1,,,,,,,,,,,,,yellow,diamond
124.0,6.0,2.0,1.0,2.0,2.0,305.529495999508,1.0,1.0,phase_1,,,,,,,,,,,,,green,circle
28.0,5.0,1.0,1.0,2.0,2.0,322.0267289980256,1.0,1.0,phase_1,,,,,,,,,,,,,blue,hexagon
191.0,3.0,3.0,0.0,1.0,1.0,369.7351949995209,1.0,1.0,phase_1,,,,,,,,,,,,,white,cross
181.0,3.0,3.0,0.0,2.0,2.0,302.2755009988032,1.0,1.0,phase_1,,,,,,,,,,,,,white,cross
211.0,3.0,3.0,0.0,4.0,4.0,298.3701819975977,1.0,1.0,phase_1,,,,,,,,,,,,,white,cross
76.0,2.0,2.0,0.0,2.0,2.0,267.0302879996598,1.0,1.0,phase_1,,,,,,,,,,,,,gray,I
188.0,7.0,3.0,1.0,4.0,4.0,265.5207600000722,1.0,1.0,phase_1,,,,,,,,,,,,,cyan,triangle
0.0,2.0,0.0,0.0,2.0,2.0,317.68786399698,1.0,1.0,phase_1,,,,,,,,,,,,,gray,I
197.0,3.0,3.0,0.0,2.0,2.0,306.8067929998506,1.0,1.0,phase_1,,,,,,,,,,,,,white,cross
399.0,4.0,4.0,0.0,3.0,3.0,391.4688469994871,1.0,1.0,phase_1,,,,,,,,,,,,,magenta,flipped triangle
425.0,4.0,4.0,0.0,1.0,1.0,304.2786980004166,1.0,1.0,phase_1,,,,,,,,,,,,,magenta,flipped triangle
60.0,5.0,1.0,1.0,1.0,1.0,339.2848609983048,1.0,1.0,phase_1,,,,,,,,,,,,,blue,hexagon
383.0,8.0,4.0,1.0,4.0,4.0,302.8053349989932,1.0,1.0,phase_1,,,,,,,,,,,,,orange,square
214.0,3.0,3.0,0.0,2.0,2.0,287.6479410006141,1.0,1.0,phase_1,,,,,,,,,,,,,white,cross
43.0,5.0,1.0,1.0,1.0,1.0,344.0863280011399,1.0,1.0,phase_1,,,,,,,,,,,,,blue,hexagon
77.0,6.0,2.0,1.0,2.0,2.0,282.7494650009612,1.0,1.0,phase_1,,,,,,,,,,,,,green,circle
182.0,3.0,3.0,0.0,4.0,4.0,279.896498999733,1.0,1.0,phase_1,,,,,,,,,,,,,white,cross
379.0,4.0,4.0,0.0,2.0,2.0,269.6221320002223,1.0,1.0,phase_1,,,,,,,,,,,,,magenta,flipped triangle
385.0,4.0,4.0,0.0,2.0,2.0,298.8266659995133,1.0,1.0,phase_1,,,,,,,,,,,,,magenta,flipped triangle
101.0,2.0,2.0,0.0,1.0,1.0,300.0197060027858,1.0,1.0,phase_1,,,,,,,,,,,,,gray,I
124.0,2.0,2.0,0.0,3.0,3.0,315.6936309969751,1.0,1.0,phase_1,,,,,,,,,,,,,gray,I
120.0,2.0,2.0,0.0,2.0,2.0,295.4258190002292,1.0,1.0,phase_1,,,,,,,,,,,,,gray,I
117.0,2.0,2.0,0.0,2.0,2.0,282.7838609991886,1.0,1.0,phase_1,,,,,,,,,,,,,gray,I
411.0,4.0,4.0,0.0,2.0,2.0,284.1046590001497,1.0,1.0,phase_1,,,,,,,,,,,,,magenta,flipped triangle
97.0,6.0,2.0,1.0,4.0,4.0,274.3305650001275,1.0,1.0,phase_1,,,,,,,,,,,,,green,circle
0.0,6.0,0.0,1.0,1.0,1.0,352.5893320002069,1.0,1.0,phase_1,,,,,,,,,,,,,green,circle
67.0,1.0,1.0,0.0,1.0,1.0,358.3218940002552,1.0,1.0,phase_1,,,,,,,,,,,,,yellow,diamond
48.0,1.0,1.0,0.0,3.0,3.0,331.7890830003307,1.0,1.0,phase_1,,,,,,,,,,,,,yellow,diamond
97.0,2.0,2.0,0.0,1.0,1.0,309.1203020012472,1.0,1.0,phase_1,,,,,,,,,,,,,gray,I
72.0,5.0,1.0,1.0,4.0,4.0,350.0223899973207,1.0,1.0,phase_1,,,,,,,,,,,,,blue,hexagon
77.0,2.0,2.0,0.0,3.0,3.0,337.0635060018685,1.0,1.0,phase_1,,,,,,,,,,,,,gray,I
53.0,1.0,1.0,0.0,3.0,3.0,356.5581510010815,1.0,1.0,phase_1,,,,,,,,,,,,,yellow,diamond
111.0,6.0,2.0,1.0,1.0,1.0,293.721125999582,1.0,1.0,phase_1,,,,,,,,,,,,,green,circle
0.0,3.0,0.0,0.0,3.0,3.0,314.1762640007073,1.0,1.0,phase_1,,,,,,,,,,,,,white,cross
103.0,2.0,2.0,0.0,3.0,3.0,303.5857930008205,1.0,1.0,phase_1,,,,,,,,,,,,,gray,I
0.0,4.0,0.0,0.0,1.0,1.0,308.5932729991327,1.0,1.0,phase_1,,,,,,,,,,,,,magenta,flipped triangle
124.0,2.0,2.0,0.0,1.0,1.0,395.3661400009878,1.0,1.0,phase_1,,,,,,,,,,,,,gray,I
124.0,6.0,2.0,1.0,1.0,1.0,317.0436820000759,1.0,1.0,phase_1,,,,,,,,,,,,,green,circle
0.0,8.0,0.0,1.0,2.0,2.0,410.889294998924,2.0,1.0,phase_1,,,,,,,,,,,,,orange,square
402.0,8.0,4.0,1.0,4.0,4.0,390.8940139990591,2.0,1.0,phase_1,,,,,,,,,,,,,orange,square
204.0,7.0,3.0,1.0,1.0,1.0,338.5273610001604,2.0,1.0,phase_1,,,,,,,,,,,,,cyan,triangle
63.0,5.0,1.0,1.0,1.0,1.0,274.7994790006487,2.0,1.0,phase_1,,,,,,,,,,,,,blue,hexagon
123.0,6.0,2.0,1.0,2.0,2.0,275.451122000959,2.0,1.0,phase_1,,,,,,,,,,,,,green,circle
197.0,7.0,3.0,1.0,3.0,3.0,354.7140759983449,2.0,1.0,phase_1,,,,,,,,,,,,,cyan,triangle
394.0,4.0,4.0,0.0,1.0,1.0,307.6280370005406,2.0,1.0,phase_1,,,,,,,,,,,,,magenta,flipped triangle
200.0,3.0,3.0,0.0,2.0,2.0,278.0897329976142,2.0,1.0,phase_1,,,,,,,,,,,,,white,cross
404.0,8.0,4.0,1.0,2.0,2.0,300.0488199977553,2.0,1.0,phase_1,,,,,,,,,,,,,orange,square
113.0,2.0,2.0,0.0,1.0,1.0,257.8294380000443,2.0,1.0,phase_1,,,,,,,,,,,,,gray,I
405.0,4.0,4.0,0.0,4.0,4.0,356.7685240013816,2.0,1.0,phase_1,,,,,,,,,,,,,magenta,flipped triangle
0.0,5.0,0.0,1.0,1.0,1.0,312.4042220006231,2.0,1.0,phase_1,,,,,,,,,,,,,blue,hexagon
377.0,8.0,4.0,1.0,1.0,1.0,330.5947230001038,2.0,1.0,phase_1,,,,,,,,,,,,,orange,square
25.0,1.0,1.0,0.0,2.0,2.0,274.5194880008057,2.0,1.0,phase_1,,,,,,,,,,,,,yellow,diamond
32.0,5.0,1.0,1.0,2.0,2.0,310.8526700016227,2.0,1.0,phase_1,,,,,,,,,,,,,blue,hexagon
414.0,8.0,4.0,1.0,3.0,3.0,293.4865169991099,2.0,1.0,phase_1,,,,,,,,,,,,,orange,square
116.0,2.0,2.0,0.0,4.0,4.0,316.8286049985909,2.0,1.0,phase_1,,,,,,,,,,,,,gray,I
64.0,5.0,1.0,1.0,2.0,2.0,309.919285999058,2.0,1.0,phase_1,,,,,,,,,,,,,blue,hexagon
0.0,6.0,0.0,1.0,4.0,4.0,310.9342459974868,2.0,1.0,phase_1,,,,,,,,,,,,,green,circle
400.0,8.0,4.0,1.0,4.0,4.0,323.8799059981829,2.0,1.0,phase_1,,,,,,,,,,,,,orange,square
50.0,1.0,1.0,0.0,1.0,1.0,291.4256320000277,2.0,1.0,phase_1,,,,,,,,,,,,,yellow,diamond
180.0,7.0,3.0,1.0,3.0,3.0,280.9096579985635,2.0,1.0,phase_1,,,,,,,,,,,,,cyan,triangle
0.0,7.0,0.0,1.0,1.0,1.0,267.605294000532,2.0,1.0,phase_1,,,,,,,,,,,,,cyan,triangle
0.0,3.0,0.0,0.0,2.0,2.0,262.2198440003558,2.0,1.0,phase_1,,,,,,,,,,,,,white,cross
204.0,3.0,3.0,0.0,1.0,1.0,297.6784110032895,2.0,1.0,phase_1,,,,,,,,,,,,,white,cross
77.0,2.0,2.0,0.0,3.0,3.0,361.182707001717,2.0,1.0,phase_1,,,,,,,,,,,,,gray,I
0.0,6.0,0.0,1.0,3.0,3.0,293.5974559986789,2.0,1.0,phase_1,,,,,,,,,,,,,green,circle
0.0,3.0,0.0,0.0,1.0,1.0,300.5838709977979,2.0,1.0,phase_1,,,,,,,,,,,,,white,cross
214.0,3.0,3.0,0.0,1.0,1.0,281.5279429996735,2.0,1.0,phase_1,,,,,,,,,,,,,white,cross
407.0,4.0,4.0,0.0,1.0,1.0,308.4161270016921,2.0,1.0,phase_1,,,,,,,,,,,,,magenta,flipped triangle
423.0,8.0,4.0,1.0,1.0,1.0,341.3435559996287,2.0,1.0,phase_1,,,,,,,,,,,,,orange,square
50.0,1.0,1.0,0.0,3.0,3.0,325.5144079994352,2.0,1.0,phase_1,,,,,,,,,,,,,yellow,diamond
216.0,7.0,3.0,1.0,4.0,4.0,319.2820670010405,2.0,1.0,phase_1,,,,,,,,,,,,,cyan,triangle
0.0,6.0,0.0,1.0,3.0,3.0,364.7840630001155,2.0,1.0,phase_1,,,,,,,,,,,,,green,circle
183.0,7.0,3.0,1.0,2.0,2.0,331.7367569979979,2.0,1.0,phase_1,,,,,,,,,,,,,cyan,triangle
34.0,1.0,1.0,0.0,4.0,4.0,312.4948639997456,2.0,1.0,phase_1,,,,,,,,,,,,,yellow,diamond
91.0,2.0,2.0,0.0,2.0,2.0,301.9926799970562,2.0,1.0,phase_1,,,,,,,,,,,,,gray,I
43.0,5.0,1.0,1.0,3.0,3.0,340.042182997422,2.0,1.0,phase_1,,,,,,,,,,,,,blue,hexagon
209.0,3.0,3.0,0.0,2.0,2.0,346.5766689987504,2.0,1.0,phase_1,,,,,,,,,,,,,white,cross
48.0,5.0,1.0,1.0,1.0,1.0,311.9149800004379,2.0,1.0,phase_1,,,,,,,,,,,,,blue,hexagon
72.0,1.0,1.0,0.0,3.0,3.0,289.6538490022067,2.0,1.0,phase_1,,,,,,,,,,,,,yellow,diamond
34.0,5.0,1.0,1.0,2.0,2.0,295.6238049991952,2.0,1.0,phase_1,,,,,,,,,,,,,blue,hexagon
376.0,4.0,4.0,0.0,3.0,3.0,334.4127770033083,2.0,1.0,phase_1,,,,,,,,,,,,,magenta,flipped triangle
63.0,1.0,1.0,0.0,4.0,4.0,300.8839879985316,2.0,1.0,phase_1,,,,,,,,,,,,,yellow,diamond
383.0,4.0,4.0,0.0,2.0,2.0,273.9414030002081,2.0,1.0,phase_1,,,,,,,,,,,,,magenta,flipped triangle
0.0,5.0,0.0,1.0,3.0,3.0,298.8406129989016,2.0,1.0,phase_1,,,,,,,,,,,,,blue,hexagon
113.0,6.0,2.0,1.0,1.0,1.0,270.9520639982656,2.0,1.0,phase_1,,,,,,,,,,,,,green,circle
105.0,2.0,2.0,0.0,1.0,1.0,317.1140289996401,2.0,1.0,phase_1,,,,,,,,,,,,,gray,I
215.0,7.0,3.0,1.0,2.0,2.0,352.599187001033,2.0,1.0,phase_1,,,,,,,,,,,,,cyan,triangle
67.0,5.0,1.0,1.0,3.0,3.0,392.4261230022239,2.0,1.0,phase_1,,,,,,,,,,,,,blue,hexagon
77.0,6.0,2.0,1.0,3.0,3.0,373.5047250011121,2.0,1.0,phase_1,,,,,,,,,,,,,green,circle
71.0,1.0,1.0,0.0,3.0,3.0,385.6130969979858,2.0,1.0,phase_1,,,,,,,,,,,,,yellow,diamond
214.0,7.0,3.0,1.0,3.0,3.0,362.8086270000494,2.0,1.0,phase_1,,,,,,,,,,,,,cyan,triangle
50.0,5.0,1.0,1.0,3.0,3.0,338.2900800024799,2.0,1.0,phase_1,,,,,,,,,,,,,blue,hexagon
187.0,7.0,3.0,1.0,1.0,1.0,342.3779020013171,2.0,1.0,phase_1,,,,,,,,,,,,,cyan,triangle
417.0,4.0,4.0,0.0,1.0,1.0,380.4955369996605,2.0,1.0,phase_1,,,,,,,,,,,,,magenta,flipped triangle
417.0,8.0,4.0,1.0,3.0,3.0,320.2021609977237,2.0,1.0,phase_1,,,,,,,,,,,,,orange,square
211.0,7.0,3.0,1.0,4.0,4.0,347.2043639994808,2.0,1.0,phase_1,,,,,,,,,,,,,cyan,triangle
425.0,8.0,4.0,1.0,2.0,2.0,311.596224000823,2.0,1.0,phase_1,,,,,,,,,,,,,orange,square
217.0,3.0,3.0,0.0,2.0,2.0,330.6538329998147,2.0,1.0,phase_1,,,,,,,,,,,,,white,cross
400.0,4.0,4.0,0.0,3.0,3.0,346.8940060010936,2.0,1.0,phase_1,,,,,,,,,,,,,magenta,flipped triangle
424.0,4.0,4.0,0.0,2.0,2.0,356.6797140010749,2.0,1.0,phase_1,,,,,,,,,,,,,magenta,flipped triangle
109.0,2.0,2.0,0.0,4.0,4.0,353.0087020008068,2.0,1.0,phase_1,,,,,,,,,,,,,gray,I
177.0,7.0,3.0,1.0,3.0,3.0,388.6805689980974,2.0,1.0,phase_1,,,,,,,,,,,,,cyan,triangle
123.0,2.0,2.0,0.0,3.0,3.0,358.30735700074,2.0,1.0,phase_1,,,,,,,,,,,,,gray,I
0.0,7.0,0.0,1.0,2.0,2.0,336.0062770007062,2.0,1.0,phase_1,,,,,,,,,,,,,cyan,triangle
68.0,5.0,1.0,1.0,4.0,4.0,330.0636990024941,2.0,1.0,phase_1,,,,,,,,,,,,,blue,hexagon
0.0,8.0,0.0,1.0,2.0,2.0,334.3349450005917,2.0,1.0,phase_1,,,,,,,,,,,,,orange,square
0.0,8.0,0.0,1.0,4.0,4.0,346.1828079998668,2.0,1.0,phase_1,,,,,,,,,,,,,orange,square
0.0,8.0,0.0,1.0,1.0,1.0,413.4406909979589,2.0,1.0,phase_1,,,,,,,,,,,,,orange,square
111.0,2.0,2.0,0.0,2.0,2.0,287.0592750005016,2.0,1.0,phase_1,,,,,,,,,,,,,gray,I
381.0,4.0,4.0,0.0,2.0,2.0,343.5360880030202,2.0,1.0,phase_1,,,,,,,,,,,,,magenta,flipped triangle
36.0,1.0,1.0,0.0,1.0,1.0,327.7337190011167,2.0,1.0,phase_1,,,,,,,,,,,,,yellow,diamond
0.0,8.0,0.0,1.0,1.0,1.0,358.8060239999322,2.0,1.0,phase_1,,,,,,,,,,,,,orange,square
225.0,7.0,3.0,1.0,4.0,4.0,347.2617949992127,2.0,1.0,phase_1,,,,,,,,,,,,,cyan,triangle
189.0,3.0,3.0,0.0,4.0,4.0,362.0763399994757,2.0,1.0,phase_1,,,,,,,,,,,,,white,cross
193.0,7.0,3.0,1.0,2.0,2.0,287.1040819991322,2.0,1.0,phase_1,,,,,,,,,,,,,cyan,triangle
88.0,6.0,2.0,1.0,1.0,1.0,330.4346620025171,2.0,1.0,phase_1,,,,,,,,,,,,,green,circle
33.0,5.0,1.0,1.0,1.0,1.0,351.7597150021174,2.0,1.0,phase_1,,,,,,,,,,,,,blue,hexagon
36.0,5.0,1.0,1.0,1.0,1.0,346.5836420000414,2.0,1.0,phase_1,,,,,,,,,,,,,blue,hexagon
0.0,1.0,0.0,0.0,3.0,3.0,411.0929430025862,2.0,1.0,phase_1,,,,,,,,,,,,,yellow,diamond
68.0,1.0,1.0,0.0,2.0,2.0,290.405710999039,2.0,1.0,phase_1,,,,,,,,,,,,,yellow,diamond
90.0,6.0,2.0,1.0,2.0,2.0,303.3516750001581,2.0,1.0,phase_1,,,,,,,,,,,,,green,circle
0.0,1.0,0.0,0.0,2.0,2.0,310.1192290014296,2.0,1.0,phase_1,,,,,,,,,,,,,yellow,diamond
211.0,7.0,3.0,1.0,1.0,1.0,304.8323690018151,2.0,1.0,phase_1,,,,,,,,,,,,,cyan,triangle
178.0,3.0,3.0,0.0,4.0,4.0,311.5692610008409,2.0,1.0,phase_1,,,,,,,,,,,,,white,cross
120.0,6.0,2.0,1.0,1.0,1.0,340.9717539980192,2.0,1.0,phase_1,,,,,,,,,,,,,green,circle
88.0,2.0,2.0,0.0,3.0,3.0,367.3783000012918,2.0,1.0,phase_1,,,,,,,,,,,,,gray,I
182.0,7.0,3.0,1.0,2.0,2.0,312.4588200007565,2.0,1.0,phase_1,,,,,,,,,,,,,cyan,triangle
411.0,8.0,4.0,1.0,1.0,1.0,308.3293979980226,2.0,1.0,phase_1,,,,,,,,,,,,,orange,square
57.0,5.0,1.0,1.0,4.0,4.0,330.5698170006508,2.0,1.0,phase_1,,,,,,,,,,,,,blue,hexagon
0.0,3.0,0.0,0.0,2.0,2.0,302.28098599764047,2.0,1.0,phase_1,,,,,,,,,,,,,white,cross
0.0,1.0,0.0,0.0,1.0,1.0,336.7981199990026,2.0,1.0,phase_1,,,,,,,,,,,,,yellow,diamond
120.0,2.0,2.0,0.0,4.0,4.0,331.9255239985068,2.0,1.0,phase_1,,,,,,,,,,,,,gray,I
108.0,6.0,2.0,1.0,1.0,1.0,320.3668349997315,2.0,1.0,phase_1,,,,,,,,,,,,,green,circle
397.0,8.0,4.0,1.0,3.0,3.0,342.6042300015979,2.0,1.0,phase_1,,,,,,,,,,,,,orange,square
210.0,3.0,3.0,0.0,3.0,3.0,383.1622379984765,2.0,1.0,phase_1,,,,,,,,,,,,,white,cross
411.0,8.0,4.0,1.0,2.0,2.0,313.1370940027409,2.0,1.0,phase_1,,,,,,,,,,,,,orange,square
0.0,4.0,0.0,0.0,3.0,3.0,328.402774001006,2.0,1.0,phase_1,,,,,,,,,,,,,magenta,flipped triangle
187.0,3.0,3.0,0.0,4.0,4.0,339.2403239995474,2.0,1.0,phase_1,,,,,,,,,,,,,white,cross
111.0,2.0,2.0,0.0,3.0,3.0,522.6741949991265,3.0,1.0,phase_1,,,,,,,,,,,,,gray,I
402.0,4.0,4.0,0.0,4.0,4.0,387.7026219997788,3.0,1.0,phase_1,,,,,,,,,,,,,magenta,flipped triangle
400.0,4.0,4.0,0.0,4.0,4.0,302.8347340004984,3.0,1.0,phase_1,,,,,,,,,,,,,magenta,flipped triangle
405.0,8.0,4.0,1.0,2.0,2.0,315.0125520005531,3.0,1.0,phase_1,,,,,,,,,,,,,orange,square
404.0,4.0,4.0,0.0,4.0,4.0,295.6843230022059,3.0,1.0,phase_1,,,,,,,,,,,,,magenta,flipped triangle
190.0,7.0,3.0,1.0,2.0,2.0,322.7633950009476,3.0,1.0,phase_1,,,,,,,,,,,,,cyan,triangle
56.0,1.0,1.0,0.0,1.0,1.0,291.2301899996237,3.0,1.0,phase_1,,,,,,,,,,,,,yellow,diamond
376.0,4.0,4.0,0.0,2.0,2.0,310.1692150012241,3.0,1.0,phase_1,,,,,,,,,,,,,magenta,flipped triangle
66.0,1.0,1.0,0.0,2.0,2.0,283.0477339994104,3.0,1.0,phase_1,,,,,,,,,,,,,yellow,diamond
53.0,1.0,1.0,0.0,4.0,4.0,318.7049240004853,3.0,1.0,phase_1,,,,,,,,,,,,,yellow,diamond
0.0,4.0,0.0,0.0,3.0,3.0,380.4859859992575,3.0,1.0,phase_1,,,,,,,,,,,,,magenta,flipped triangle
0.0,5.0,0.0,1.0,1.0,1.0,292.5255019981705,3.0,1.0,phase_1,,,,,,,,,,,,,blue,hexagon
111.0,6.0,2.0,1.0,2.0,2.0,289.1380130022298,3.0,1.0,phase_1,,,,,,,,,,,,,green,circle
208.0,7.0,3.0,1.0,2.0,2.0,321.2230050012294,3.0,1.0,phase_1,,,,,,,,,,,,,cyan,triangle
57.0,1.0,1.0,0.0,1.0,1.0,305.5276209997828,3.0,1.0,phase_1,,,,,,,,,,,,,yellow,diamond
397.0,4.0,4.0,0.0,3.0,3.0,308.4114880002744,3.0,1.0,phase_1,,,,,,,,,,,,,magenta,flipped triangle
189.0,3.0,3.0,0.0,3.0,3.0,355.1723290001973,3.0,1.0,phase_1,,,,,,,,,,,,,white,cross
44.0,1.0,1.0,0.0,4.0,4.0,322.8265630023088,3.0,1.0,phase_1,,,,,,,,,,,,,yellow,diamond
379.0,8.0,4.0,1.0,3.0,3.0,289.2191559985804,3.0,1.0,phase_1,,,,,,,,,,,,,orange,square
0.0,8.0,0.0,1.0,4.0,4.0,303.947676999087,3.0,1.0,phase_1,,,,,,,,,,,,,orange,square
397.0,4.0,4.0,0.0,1.0,1.0,315.6717540005047,3.0,1.0,phase_1,,,,,,,,,,,,,magenta,flipped triangle
83.0,6.0,2.0,1.0,4.0,4.0,334.3585090005945,3.0,1.0,phase_1,,,,,,,,,,,,,green,circle
60.0,5.0,1.0,1.0,2.0,2.0,291.3997340001515,3.0,1.0,phase_1,,,,,,,,,,,,,blue,hexagon
0.0,6.0,0.0,1.0,4.0,4.0,297.0972140028607,3.0,1.0,phase_1,,,,,,,,,,,,,green,circle
81.0,6.0,2.0,1.0,3.0,3.0,307.7343910008494,3.0,1.0,phase_1,,,,,,,,,,,,,green,circle
50.0,5.0,1.0,1.0,4.0,4.0,319.6695469996484,3.0,1.0,phase_1,,,,,,,,,,,,,blue,hexagon
223.0,7.0,3.0,1.0,2.0,2.0,294.3115060006676,3.0,1.0,phase_1,,,,,,,,,,,,,cyan,triangle
401.0,4.0,4.0,0.0,4.0,4.0,304.4792229993618,3.0,1.0,phase_1,,,,,,,,,,,,,magenta,flipped triangle
178.0,7.0,3.0,1.0,4.0,4.0,332.309637000435,3.0,1.0,phase_1,,,,,,,,,,,,,cyan,triangle
225.0,3.0,3.0,0.0,1.0,1.0,307.256233998487,3.0,1.0,phase_1,,,,,,,,,,,,,white,cross
0.0,5.0,0.0,1.0,4.0,4.0,288.3339920008438,3.0,1.0,phase_1,,,,,,,,,,,,,blue,hexagon
382.0,4.0,4.0,0.0,4.0,4.0,305.4243890001089,3.0,1.0,phase_1,,,,,,,,,,,,,magenta,flipped triangle
0.0,4.0,0.0,0.0,2.0,2.0,300.8836190019792,3.0,1.0,phase_1,,,,,,,,,,,,,magenta,flipped triangle
96.0,6.0,2.0,1.0,2.0,2.0,293.8658899984148,3.0,1.0,phase_1,,,,,,,,,,,,,green,circle
0.0,7.0,0.0,1.0,3.0,3.0,321.7522820013982,3.0,1.0,phase_1,,,,,,,,,,,,,cyan,triangle
184.0,3.0,3.0,0.0,1.0,1.0,254.1689329991641,3.0,1.0,phase_1,,,,,,,,,,,,,white,cross
410.0,4.0,4.0,0.0,1.0,1.0,308.620941999834,3.0,1.0,phase_1,,,,,,,,,,,,,magenta,flipped triangle
0.0,5.0,0.0,1.0,3.0,3.0,292.2395879977557,3.0,1.0,phase_1,,,,,,,,,,,,,blue,hexagon
44.0,5.0,1.0,1.0,3.0,3.0,309.1630320013792,3.0,1.0,phase_1,,,,,,,,,,,,,blue,hexagon
109.0,6.0,2.0,1.0,1.0,1.0,284.8960820010688,3.0,1.0,phase_1,,,,,,,,,,,,,green,circle
53.0,5.0,1.0,1.0,3.0,3.0,316.606962998776,3.0,1.0,phase_1,,,,,,,,,,,,,blue,hexagon
0.0,4.0,0.0,0.0,4.0,4.0,294.9402539998118,3.0,1.0,phase_1,,,,,,,,,,,,,magenta,flipped triangle
385.0,8.0,4.0,1.0,3.0,3.0,317.6161730007152,3.0,1.0,phase_1,,,,,,,,,,,,,orange,square
76.0,6.0,2.0,1.0,4.0,4.0,299.7372389982047,3.0,1.0,phase_1,,,,,,,,,,,,,green,circle
0.0,8.0,0.0,1.0,1.0,1.0,291.2091569996846,3.0,1.0,phase_1,,,,,,,,,,,,,orange,square
0.0,4.0,0.0,0.0,1.0,1.0,296.7798940007924,3.0,1.0,phase_1,,,,,,,,,,,,,magenta,flipped triangle
0.0,6.0,0.0,1.0,2.0,2.0,293.1981440015079,3.0,1.0,phase_1,,,,,,,,,,,,,green,circle
115.0,6.0,2.0,1.0,4.0,4.0,275.2413259986497,3.0,1.0,phase_1,,,,,,,,,,,,,green,circle
208.0,3.0,3.0,0.0,1.0,1.0,285.6565689980925,3.0,1.0,phase_1,,,,,,,,,,,,,white,cross
32.0,1.0,1.0,0.0,3.0,3.0,296.6444800003955,3.0,1.0,phase_1,,,,,,,,,,,,,yellow,diamond
0.0,3.0,0.0,0.0,1.0,1.0,269.2644700000528,3.0,1.0,phase_1,,,,,,,,,,,,,white,cross
76.0,6.0,2.0,1.0,3.0,3.0,317.4850870018417,3.0,1.0,phase_1,,,,,,,,,,,,,green,circle
0.0,7.0,0.0,1.0,1.0,1.0,263.3751479988859,3.0,1.0,phase_1,,,,,,,,,,,,,cyan,triangle
401.0,8.0,4.0,1.0,4.0,4.0,357.7217320016643,3.0,1.0,phase_1,,,,,,,,,,,,,orange,square
60.0,1.0,1.0,0.0,4.0,4.0,277.5235499975679,3.0,1.0,phase_1,,,,,,,,,,,,,yellow,diamond
0.0,2.0,0.0,0.0,4.0,4.0,292.9538699972909,3.0,1.0,phase_1,,,,,,,,,,,,,gray,I
101.0,6.0,2.0,1.0,3.0,3.0,309.2893619977985,3.0,1.0,phase_1,,,,,,,,,,,,,green,circle
104.0,6.0,2.0,1.0,3.0,3.0,336.7712860017491,3.0,1.0,phase_1,,,,,,,,,,,,,green,circle
0.0,3.0,0.0,0.0,1.0,1.0,305.6167769973399,3.0,1.0,phase_1,,,,,,,,,,,,,white,cross
186.0,3.0,3.0,0.0,2.0,2.0,288.1832269995357,3.0,1.0,phase_1,,,,,,,,,,,,,white,cross
108.0,2.0,2.0,0.0,1.0,1.0,332.7920480005559,3.0,1.0,phase_1,,,,,,,,,,,,,gray,I
417.0,4.0,4.0,0.0,3.0,3.0,337.5699729986081,3.0,1.0,phase_1,,,,,,,,,,,,,magenta,flipped triangle
397.0,8.0,4.0,1.0,4.0,4.0,293.1347449994064,3.0,1.0,phase_1,,,,,,,,,,,,,orange,square
420.0,4.0,4.0,0.0,1.0,1.0,311.1655079992488,3.0,1.0,phase_1,,,,,,,,,,,,,magenta,flipped triangle
66.0,1.0,1.0,0.0,3.0,3.0,316.5515889995731,3.0,1.0,phase_1,,,,,,,,,,,,,yellow,diamond
97.0,6.0,2.0,1.0,3.0,3.0,311.7483839996566,3.0,1.0,phase_1,,,,,,,,,,,,,green,circle
186.0,7.0,3.0,1.0,3.0,3.0,379.8206699975708,3.0,1.0,phase_1,,,,,,,,,,,,,cyan,triangle
189.0,7.0,3.0,1.0,2.0,2.0,328.680949001864,3.0,1.0,phase_1,,,,,,,,,,,,,cyan,triangle
0.0,4.0,0.0,0.0,3.0,3.0,327.5414799973077,3.0,1.0,phase_1,,,,,,,,,,,,,magenta,flipped triangle
377.0,4.0,4.0,0.0,3.0,3.0,452.8432320003048,3.0,1.0,phase_1,,,,,,,,,,,,,magenta,flipped triangle
64.0,1.0,1.0,0.0,2.0,2.0,317.9030540013627,3.0,1.0,phase_1,,,,,,,,,,,,,yellow,diamond
207.0,3.0,3.0,0.0,1.0,1.0,347.2295129977283,3.0,1.0,phase_1,,,,,,,,,,,,,white,cross
0.0,5.0,0.0,1.0,4.0,4.0,336.2416189993382,3.0,1.0,phase_1,,,,,,,,,,,,,blue,hexagon
28.0,1.0,1.0,0.0,2.0,2.0,285.8447780017741,3.0,1.0,phase_1,,,,,,,,,,,,,yellow,diamond
74.0,1.0,1.0,0.0,1.0,1.0,296.3224810009706,3.0,1.0,phase_1,,,,,,,,,,,,,yellow,diamond
36.0,1.0,1.0,0.0,1.0,1.0,340.9749549973639,3.0,1.0,phase_1,,,,,,,,,,,,,yellow,diamond
209.0,7.0,3.0,1.0,1.0,1.0,313.0115349995321,3.0,1.0,phase_1,,,,,,,,,,,,,cyan,triangle
36.0,5.0,1.0,1.0,2.0,2.0,330.8007740015455,3.0,1.0,phase_1,,,,,,,,,,,,,blue,hexagon
0.0,7.0,0.0,1.0,2.0,2.0,313.5340039989387,3.0,1.0,phase_1,,,,,,,,,,,,,cyan,triangle
217.0,7.0,3.0,1.0,1.0,1.0,305.3242059977492,3.0,1.0,phase_1,,,,,,,,,,,,,cyan,triangle
94.0,2.0,2.0,0.0,3.0,3.0,384.4708709984843,3.0,1.0,phase_1,,,,,,,,,,,,,gray,I
376.0,8.0,4.0,1.0,1.0,1.0,332.7137929991295,3.0,1.0,phase_1,,,,,,,,,,,,,orange,square
115.0,2.0,2.0,0.0,1.0,1.0,348.3019410014094,3.0,1.0,phase_1,,,,,,,,,,,,,gray,I
46.0,5.0,1.0,1.0,1.0,1.0,320.8546189998742,3.0,1.0,phase_1,,,,,,,,,,,,,blue,hexagon
402.0,8.0,4.0,1.0,1.0,1.0,287.603216998832,3.0,1.0,phase_1,,,,,,,,,,,,,orange,square
0.0,2.0,0.0,0.0,3.0,3.0,378.3943809976335,3.0,1.0,phase_1,,,,,,,,,,,,,gray,I
383.0,8.0,4.0,1.0,1.0,1.0,286.9875670003239,3.0,1.0,phase_1,,,,,,,,,,,,,orange,square
191.0,3.0,3.0,0.0,3.0,3.0,333.8548780011479,3.0,1.0,phase_1,,,,,,,,,,,,,white,cross
383.0,4.0,4.0,0.0,4.0,4.0,450.3591419997974,3.0,1.0,phase_1,,,,,,,,,,,,,magenta,flipped triangle
76.0,2.0,2.0,0.0,4.0,4.0,374.5311040001979,3.0,1.0,phase_1,,,,,,,,,,,,,gray,I
0.0,1.0,0.0,0.0,3.0,3.0,355.9897269988141,3.0,1.0,phase_1,,,,,,,,,,,,,yellow,diamond
0.0,6.0,0.0,1.0,2.0,2.0,333.3252530028403,3.0,1.0,phase_1,,,,,,,,,,,,,green,circle
420.0,8.0,4.0,1.0,1.0,1.0,311.5034090005792,3.0,1.0,phase_1,,,,,,,,,,,,,orange,square
396.0,4.0,4.0,0.0,2.0,2.0,306.2933609980973,3.0,1.0,phase_1,,,,,,,,,,,,,magenta,flipped triangle
215.0,3.0,3.0,0.0,1.0,1.0,309.6796769968932,3.0,1.0,phase_1,,,,,,,,,,,,,white,cross
188.0,3.0,3.0,0.0,3.0,3.0,353.3662669979094,3.0,1.0,phase_1,,,,,,,,,,,,,white,cross
0.0,1.0,0.0,0.0,4.0,4.0,357.5833389986655,3.0,1.0,phase_1,,,,,,,,,,,,,yellow,diamond
402.0,4.0,4.0,0.0,3.0,3.0,421.1250780026603,3.0,1.0,phase_1,,,,,,,,,,,,,magenta,flipped triangle
396.0,8.0,4.0,1.0,4.0,4.0,423.7878460007778,3.0,2.0,phase_1,,,,,,,,,,,,,orange,square
410.0,8.0,4.0,1.0,4.0,4.0,419.7557939987746,3.0,1.0,phase_1,,,,,,,,,,,,,orange,square
390.0,8.0,4.0,1.0,4.0,4.0,472.4583759998495,4.0,1.0,phase_1,,,,,,,,,,,,,orange,square
84.0,2.0,2.0,0.0,2.0,2.0,417.6602739971713,4.0,1.0,phase_1,,,,,,,,,,,,,gray,I
66.0,5.0,1.0,1.0,2.0,2.0,366.2121830020624,4.0,1.0,phase_1,,,,,,,,,,,,,blue,hexagon
82.0,2.0,2.0,0.0,1.0,1.0,310.3918920023716,4.0,1.0,phase_1,,,,,,,,,,,,,gray,I
0.0,8.0,0.0,1.0,2.0,2.0,302.7520519972313,4.0,1.0,phase_1,,,,,,,,,,,,,orange,square
29.0,5.0,1.0,1.0,1.0,1.0,310.4068719985662,4.0,1.0,phase_1,,,,,,,,,,,,,blue,hexagon
407.0,8.0,4.0,1.0,1.0,1.0,356.0158290019899,4.0,1.0,phase_1,,,,,,,,,,,,,orange,square
0.0,8.0,0.0,1.0,2.0,2.0,306.3522219999868,4.0,1.0,phase_1,,,,,,,,,,,,,orange,square
88.0,2.0,2.0,0.0,4.0,4.0,344.0113319993543,4.0,1.0,phase_1,,,,,,,,,,,,,gray,I
81.0,2.0,2.0,0.0,4.0,4.0,328.6909159978677,4.0,1.0,phase_1,,,,,,,,,,,,,gray,I
223.0,3.0,3.0,0.0,3.0,3.0,370.8703010015597,4.0,1.0,phase_1,,,,,,,,,,,,,white,cross
221.0,7.0,3.0,1.0,4.0,4.0,398.1944189981732,4.0,1.0,phase_1,,,,,,,,,,,,,cyan,triangle
69.0,1.0,1.0,0.0,3.0,3.0,369.3067829990468,4.0,1.0,phase_1,,,,,,,,,,,,,yellow,diamond
41.0,1.0,1.0,0.0,2.0,2.0,313.2075740031723,4.0,1.0,phase_1,,,,,,,,,,,,,yellow,diamond
43.0,5.0,1.0,1.0,3.0,3.0,392.3948440024105,4.0,1.0,phase_1,,,,,,,,,,,,,blue,hexagon
181.0,7.0,3.0,1.0,3.0,3.0,367.4997300004179,4.0,1.0,phase_1,,,,,,,,,,,,,cyan,triangle
86.0,6.0,2.0,1.0,2.0,2.0,319.2487810010789,4.0,1.0,phase_1,,,,,,,,,,,,,green,circle
420.0,4.0,4.0,0.0,2.0,2.0,308.452725999814,4.0,1.0,phase_1,,,,,,,,,,,,,magenta,flipped triangle
184.0,7.0,3.0,1.0,1.0,1.0,331.8163639996783,4.0,1.0,phase_1,,,,,,,,,,,,,cyan,triangle
0.0,3.0,0.0,0.0,4.0,4.0,342.7644719995442,4.0,1.0,phase_1,,,,,,,,,,,,,white,cross
0.0,7.0,0.0,1.0,1.0,1.0,321.3262300014321,4.0,1.0,phase_1,,,,,,,,,,,,,cyan,triangle
91.0,6.0,2.0,1.0,1.0,1.0,295.4679150025185,4.0,1.0,phase_1,,,,,,,,,,,,,green,circle
0.0,1.0,0.0,0.0,4.0,4.0,318.4949320020678,4.0,1.0,phase_1,,,,,,,,,,,,,yellow,diamond
424.0,8.0,4.0,1.0,2.0,2.0,288.4709930003737,4.0,1.0,phase_1,,,,,,,,,,,,,orange,square
29.0,1.0,1.0,0.0,4.0,4.0,305.4541070014238,4.0,1.0,phase_1,,,,,,,,,,,,,yellow,diamond
195.0,3.0,3.0,0.0,4.0,4.0,377.9932620018371,4.0,2.0,phase_1,,,,,,,,,,,,,white,cross
86.0,2.0,2.0,0.0,1.0,1.0,362.7874169978895,4.0,1.0,phase_1,,,,,,,,,,,,,gray,I
81.0,6.0,2.0,1.0,4.0,4.0,350.7978349989571,4.0,1.0,phase_1,,,,,,,,,,,,,green,circle
394.0,4.0,4.0,0.0,1.0,1.0,392.3101319996931,4.0,1.0,phase_1,,,,,,,,,,,,,magenta,flipped triangle
74.0,5.0,1.0,1.0,1.0,1.0,361.0456979986338,4.0,1.0,phase_1,,,,,,,,,,,,,blue,hexagon
191.0,7.0,3.0,1.0,4.0,4.0,344.9445260011998,4.0,1.0,phase_1,,,,,,,,,,,,,cyan,triangle
0.0,3.0,0.0,0.0,2.0,2.0,364.3884689990955,4.0,1.0,phase_1,,,,,,,,,,,,,white,cross
0.0,2.0,0.0,0.0,1.0,1.0,313.516845999402,4.0,1.0,phase_1,,,,,,,,,,,,,gray,I
189.0,7.0,3.0,1.0,3.0,3.0,418.5664809992886,4.0,1.0,phase_1,,,,,,,,,,,,,cyan,triangle
390.0,4.0,4.0,0.0,4.0,4.0,392.5421410021954,4.0,1.0,phase_1,,,,,,,,,,,,,magenta,flipped triangle
0.0,2.0,0.0,0.0,2.0,2.0,346.6334660006396,4.0,1.0,phase_1,,,,,,,,,,,,,gray,I
65.0,1.0,1.0,0.0,1.0,1.0,336.9741599999543,4.0,1.0,phase_1,,,,,,,,,,,,,yellow,diamond
420.0,8.0,4.0,1.0,2.0,2.0,319.2246159997012,4.0,1.0,phase_1,,,,,,,,,,,,,orange,square
65.0,5.0,1.0,1.0,4.0,4.0,294.1443229974538,4.0,1.0,phase_1,,,,,,,,,,,,,blue,hexagon
0.0,4.0,0.0,0.0,2.0,2.0,294.7957830001542,4.0,1.0,phase_1,,,,,,,,,,,,,magenta,flipped triangle
0.0,6.0,0.0,1.0,1.0,1.0,262.7925209999375,4.0,1.0,phase_1,,,,,,,,,,,,,green,circle
104.0,2.0,2.0,0.0,4.0,4.0,305.7299399988551,4.0,1.0,phase_1,,,,,,,,,,,,,gray,I
82.0,6.0,2.0,1.0,3.0,3.0,332.5920949973806,4.0,1.0,phase_1,,,,,,,,,,,,,green,circle
193.0,3.0,3.0,0.0,4.0,4.0,330.3542709982139,4.0,1.0,phase_1,,,,,,,,,,,,,white,cross
111.0,2.0,2.0,0.0,2.0,2.0,320.0762320011563,4.0,1.0,phase_1,,,,,,,,,,,,,gray,I
56.0,5.0,1.0,1.0,4.0,4.0,297.6929579999705,4.0,1.0,phase_1,,,,,,,,,,,,,blue,hexagon
387.0,8.0,4.0,1.0,2.0,2.0,347.664449000149,4.0,1.0,phase_1,,,,,,,,,,,,,orange,square
116.0,6.0,2.0,1.0,4.0,4.0,307.0268700030283,4.0,1.0,phase_1,,,,,,,,,,,,,green,circle
0.0,5.0,0.0,1.0,1.0,1.0,343.3183329980238,4.0,1.0,phase_1,,,,,,,,,,,,,blue,hexagon
69.0,5.0,1.0,1.0,2.0,2.0,350.530534000427,4.0,1.0,phase_1,,,,,,,,,,,,,blue,hexagon
43.0,1.0,1.0,0.0,4.0,4.0,337.7101590012898,4.0,1.0,phase_1,,,,,,,,,,,,,yellow,diamond
0.0,1.0,0.0,0.0,2.0,2.0,318.863020002027,4.0,1.0,phase_1,,,,,,,,,,,,,yellow,diamond
376.0,8.0,4.0,1.0,2.0,2.0,309.2576249982812,4.0,1.0,phase_1,,,,,,,,,,,,,orange,square
195.0,3.0,3.0,0.0,1.0,1.0,439.4512119979481,4.0,1.0,phase_1,,,,,,,,,,,,,white,cross
391.0,4.0,4.0,0.0,2.0,2.0,325.8579950015701,4.0,1.0,phase_1,,,,,,,,,,,,,magenta,flipped triangle
34.0,5.0,1.0,1.0,4.0,4.0,475.2793689985992,4.0,1.0,phase_1,,,,,,,,,,,,,blue,hexagon
0.0,2.0,0.0,0.0,2.0,2.0,296.1084939997818,4.0,1.0,phase_1,,,,,,,,,,,,,gray,I
108.0,6.0,2.0,1.0,4.0,4.0,352.0833740003581,4.0,1.0,phase_1,,,,,,,,,,,,,green,circle
36.0,5.0,1.0,1.0,4.0,4.0,335.6235000028391,4.0,1.0,phase_1,,,,,,,,,,,,,blue,hexagon
43.0,1.0,1.0,0.0,3.0,3.0,395.2871659967059,4.0,1.0,phase_1,,,,,,,,,,,,,yellow,diamond
33.0,1.0,1.0,0.0,4.0,4.0,316.6243399973609,4.0,1.0,phase_1,,,,,,,,,,,,,yellow,diamond
200.0,7.0,3.0,1.0,3.0,3.0,378.8928909998503,4.0,1.0,phase_1,,,,,,,,,,,,,cyan,triangle
191.0,7.0,3.0,1.0,2.0,2.0,309.6289040004194,4.0,1.0,phase_1,,,,,,,,,,,,,cyan,triangle
224.0,3.0,3.0,0.0,4.0,4.0,331.8035190022783,4.0,1.0,phase_1,,,,,,,,,,,,,white,cross
417.0,4.0,4.0,0.0,3.0,3.0,348.3240669993392,4.0,1.0,phase_1,,,,,,,,,,,,,magenta,flipped triangle
0.0,1.0,0.0,0.0,1.0,1.0,306.9516670002485,4.0,1.0,phase_1,,,,,,,,,,,,,yellow,diamond
30.0,5.0,1.0,1.0,2.0,2.0,305.8062960008101,4.0,1.0,phase_1,,,,,,,,,,,,,blue,hexagon
94.0,6.0,2.0,1.0,2.0,2.0,313.3612599995103,4.0,1.0,phase_1,,,,,,,,,,,,,green,circle
195.0,7.0,3.0,1.0,1.0,1.0,316.4931699975568,4.0,1.0,phase_1,,,,,,,,,,,,,cyan,triangle
116.0,6.0,2.0,1.0,4.0,4.0,308.8306680001551,4.0,1.0,phase_1,,,,,,,,,,,,,green,circle
0.0,3.0,0.0,0.0,4.0,4.0,350.1649930003623,4.0,1.0,phase_1,,,,,,,,,,,,,white,cross
214.0,7.0,3.0,1.0,2.0,2.0,335.7972579979105,4.0,1.0,phase_1,,,,,,,,,,,,,cyan,triangle
0.0,2.0,0.0,0.0,2.0,2.0,317.2877120014163,4.0,1.0,phase_1,,,,,,,,,,,,,gray,I
60.0,1.0,1.0,0.0,3.0,3.0,319.6642119983153,4.0,1.0,phase_1,,,,,,,,,,,,,yellow,diamond
0.0,7.0,0.0,1.0,1.0,1.0,316.7816880013561,4.0,1.0,phase_1,,,,,,,,,,,,,cyan,triangle
84.0,6.0,2.0,1.0,2.0,2.0,297.8069769997091,4.0,1.0,phase_1,,,,,,,,,,,,,green,circle
56.0,5.0,1.0,1.0,3.0,3.0,407.3900030016375,4.0,1.0,phase_1,,,,,,,,,,,,,blue,hexagon
53.0,5.0,1.0,1.0,3.0,3.0,355.1746040029684,4.0,1.0,phase_1,,,,,,,,,,,,,blue,hexagon
0.0,5.0,0.0,1.0,4.0,4.0,330.2347809985804,4.0,1.0,phase_1,,,,,,,,,,,,,blue,hexagon
36.0,1.0,1.0,0.0,1.0,1.0,318.0739679992257,4.0,1.0,phase_1,,,,,,,,,,,,,yellow,diamond
0.0,7.0,0.0,1.0,4.0,4.0,353.1444379987078,4.0,1.0,phase_1,,,,,,,,,,,,,cyan,triangle
97.0,2.0,2.0,0.0,1.0,1.0,333.6704840003222,4.0,1.0,phase_1,,,,,,,,,,,,,gray,I
105.0,6.0,2.0,1.0,3.0,3.0,422.721590999572,4.0,1.0,phase_1,,,,,,,,,,,,,green,circle
222.0,3.0,3.0,0.0,3.0,3.0,389.2279190004046,4.0,1.0,phase_1,,,,,,,,,,,,,white,cross
110.0,2.0,2.0,0.0,2.0,2.0,361.7167580014211,4.0,1.0,phase_1,,,,,,,,,,,,,gray,I
387.0,4.0,4.0,0.0,3.0,3.0,375.9023249986057,4.0,1.0,phase_1,,,,,,,,,,,,,magenta,flipped triangle
177.0,3.0,3.0,0.0,3.0,3.0,379.6879479996278,4.0,1.0,phase_1,,,,,,,,,,,,,white,cross
116.0,2.0,2.0,0.0,3.0,3.0,349.7903819989005,4.0,1.0,phase_1,,,,,,,,,,,,,gray,I
0.0,4.0,0.0,0.0,4.0,4.0,437.3667609979748,4.0,1.0,phase_1,,,,,,,,,,,,,magenta,flipped triangle
405.0,4.0,4.0,0.0,4.0,4.0,345.9528060011507,4.0,1.0,phase_1,,,,,,,,,,,,,magenta,flipped triangle
25.0,5.0,1.0,1.0,2.0,2.0,341.2919909969787,4.0,1.0,phase_1,,,,,,,,,,,,,blue,hexagon
0.0,5.0,0.0,1.0,3.0,3.0,354.8529260006035,4.0,1.0,phase_1,,,,,,,,,,,,,blue,hexagon
400.0,8.0,4.0,1.0,1.0,1.0,374.0186670002003,4.0,1.0,phase_1,,,,,,,,,,,,,orange,square
223.0,7.0,3.0,1.0,1.0,1.0,401.5874470023846,4.0,1.0,phase_1,,,,,,,,,,,,,cyan,triangle
83.0,2.0,2.0,0.0,4.0,4.0,364.6249330013233,4.0,1.0,phase_1,,,,,,,,,,,,,gray,I
0.0,6.0,0.0,1.0,3.0,3.0,398.0866379970393,4.0,1.0,phase_1,,,,,,,,,,,,,green,circle
0.0,1.0,0.0,0.0,4.0,4.0,332.4455589972785,4.0,1.0,phase_1,,,,,,,,,,,,,yellow,diamond
417.0,8.0,4.0,1.0,3.0,3.0,386.4796749985544,4.0,1.0,phase_1,,,,,,,,,,,,,orange,square
34.0,1.0,1.0,0.0,2.0,2.0,331.4475119987037,4.0,1.0,phase_1,,,,,,,,,,,,,yellow,diamond
216.0,3.0,3.0,0.0,4.0,4.0,346.2107049999758,4.0,1.0,phase_1,,,,,,,,,,,,,white,cross
0.0,5.0,1.0,1.0,5.0,5.0,446.4125129998137,1.0,1.0,phase_2,stop,250.0,250.0,3.0,,,,,,,,,blue,hexagon
0.0,5.0,1.0,1.0,5.0,0.0,0.0,1.0,1.0,phase_2,stop,200.0,250.0,4.0,,,,,,,,,blue,hexagon
0.0,4.0,4.0,0.0,6.0,6.0,627.762394000456,1.0,1.0,phase_2,go,250.0,250.0,1.0,,,,,,,,,magenta,flipped triangle
0.0,1.0,1.0,0.0,5.0,5.0,718.4519559996261,1.0,1.0,phase_2,go,250.0,250.0,1.0,,,,,,,,,yellow,diamond
0.0,6.0,2.0,1.0,5.0,5.0,697.5471320001816,1.0,1.0,phase_2,go,250.0,250.0,1.0,,,,,,,,,green,circle
0.0,4.0,4.0,0.0,5.0,5.0,461.9696989975637,1.0,1.0,phase_2,go,250.0,250.0,1.0,,,,,,,,,magenta,flipped triangle
0.0,6.0,2.0,1.0,5.0,5.0,548.2889629965939,1.0,1.0,phase_2,go,250.0,250.0,1.0,,,,,,,,,green,circle
0.0,8.0,4.0,1.0,6.0,0.0,0.0,1.0,1.0,phase_2,stop,250.0,250.0,4.0,,,,,,,,,orange,square
0.0,3.0,3.0,0.0,6.0,6.0,699.9658120003005,1.0,1.0,phase_2,go,250.0,300.0,1.0,,,,,,,,,white,cross
0.0,3.0,3.0,0.0,6.0,6.0,616.1407270010386,1.0,1.0,phase_2,go,250.0,300.0,1.0,,,,,,,,,white,cross
0.0,2.0,2.0,0.0,6.0,6.0,622.3863800005347,1.0,1.0,phase_2,go,250.0,300.0,1.0,,,,,,,,,gray,I
0.0,7.0,3.0,1.0,5.0,5.0,518.7044499980402,1.0,1.0,phase_2,go,250.0,300.0,1.0,,,,,,,,,cyan,triangle
0.0,8.0,4.0,1.0,5.0,0.0,0.0,1.0,1.0,phase_2,stop,250.0,300.0,4.0,,,,,,,,,orange,square
0.0,5.0,1.0,1.0,6.0,0.0,0.0,1.0,1.0,phase_2,stop,300.0,300.0,4.0,,,,,,,,,blue,hexagon
0.0,6.0,2.0,1.0,6.0,0.0,0.0,1.0,1.0,phase_2,stop,300.0,350.0,4.0,,,,,,,,,green,circle
0.0,4.0,4.0,0.0,5.0,5.0,617.2393269989698,1.0,1.0,phase_2,go,300.0,400.0,1.0,,,,,,,,,magenta,flipped triangle
0.0,4.0,4.0,0.0,5.0,5.0,716.7614870013495,1.0,1.0,phase_2,go,300.0,400.0,1.0,,,,,,,,,magenta,flipped triangle
0.0,6.0,2.0,1.0,6.0,6.0,605.0074960003258,1.0,1.0,phase_2,go,300.0,400.0,1.0,,,,,,,,,green,circle
0.0,1.0,1.0,0.0,6.0,6.0,675.8990609996545,1.0,1.0,phase_2,go,300.0,400.0,1.0,,,,,,,,,yellow,diamond
0.0,4.0,4.0,0.0,5.0,5.0,717.5568050006405,1.0,1.0,phase_2,go,300.0,400.0,1.0,,,,,,,,,magenta,flipped triangle
0.0,6.0,2.0,1.0,5.0,5.0,588.2126979995519,1.0,1.0,phase_2,go,300.0,400.0,1.0,,,,,,,,,green,circle
0.0,8.0,4.0,1.0,5.0,0.0,0.0,1.0,1.0,phase_2,stop,300.0,400.0,4.0,,,,,,,,,orange,square
0.0,4.0,4.0,0.0,6.0,6.0,697.0884040019882,1.0,1.0,phase_2,go,350.0,400.0,1.0,,,,,,,,,magenta,flipped triangle
0.0,7.0,3.0,1.0,6.0,0.0,0.0,1.0,1.0,phase_2,stop,350.0,400.0,4.0,,,,,,,,,cyan,triangle
0.0,6.0,2.0,1.0,6.0,0.0,0.0,1.0,1.0,phase_2,stop,350.0,450.0,4.0,,,,,,,,,green,circle
0.0,6.0,2.0,1.0,6.0,6.0,709.218392999901,1.0,1.0,phase_2,go,350.0,500.0,1.0,,,,,,,,,green,circle
0.0,4.0,4.0,0.0,5.0,5.0,708.2572379986232,1.0,1.0,phase_2,go,350.0,500.0,1.0,,,,,,,,,magenta,flipped triangle
0.0,8.0,4.0,1.0,6.0,6.0,618.8890390003507,1.0,1.0,phase_2,go,350.0,500.0,1.0,,,,,,,,,orange,square
0.0,6.0,2.0,1.0,5.0,0.0,0.0,1.0,1.0,phase_2,stop,350.0,500.0,4.0,,,,,,,,,green,circle
0.0,4.0,4.0,0.0,6.0,6.0,739.3229770023027,1.0,1.0,phase_2,go,400.0,500.0,1.0,,,,,,,,,magenta,flipped triangle
0.0,1.0,1.0,0.0,5.0,5.0,941.00161499955,1.0,1.0,phase_2,go,400.0,500.0,1.0,,,,,,,,,yellow,diamond
0.0,3.0,3.0,0.0,6.0,6.0,746.052761998726,1.0,1.0,phase_2,go,400.0,500.0,1.0,,,,,,,,,white,cross
0.0,3.0,3.0,0.0,5.0,5.0,726.0977049991197,1.0,1.0,phase_2,go,400.0,500.0,1.0,,,,,,,,,white,cross
0.0,5.0,1.0,1.0,5.0,0.0,0.0,1.0,1.0,phase_2,stop,400.0,500.0,4.0,,,,,,,,,blue,hexagon
0.0,5.0,1.0,1.0,5.0,0.0,0.0,1.0,1.0,phase_2,stop,450.0,500.0,4.0,,,,,,,,,blue,hexagon
0.0,1.0,1.0,0.0,6.0,6.0,706.313205002516,1.0,1.0,phase_2,go,500.0,500.0,1.0,,,,,,,,,yellow,diamond
0.0,6.0,2.0,1.0,6.0,0.0,0.0,2.0,1.0,phase_2,stop,500.0,500.0,4.0,,,,,,,,,green,circle
0.0,6.0,2.0,1.0,5.0,0.0,0.0,2.0,1.0,phase_2,stop,500.0,550.0,4.0,,,,,,,,,green,circle
0.0,7.0,3.0,1.0,6.0,6.0,357.3201660001359,2.0,1.0,phase_2,stop,550.0,550.0,3.0,,,,,,,,,cyan,triangle
0.0,4.0,4.0,0.0,6.0,6.0,699.7928909986513,2.0,1.0,phase_2,go,550.0,500.0,1.0,,,,,,,,,magenta,flipped triangle
0.0,2.0,2.0,0.0,5.0,5.0,665.2315389983414,2.0,1.0,phase_2,go,550.0,500.0,1.0,,,,,,,,,gray,I
0.0,3.0,3.0,0.0,5.0,5.0,771.5526379979565,2.0,1.0,phase_2,go,550.0,500.0,1.0,,,,,,,,,white,cross
0.0,3.0,3.0,0.0,6.0,6.0,557.2009470015473,2.0,1.0,phase_2,go,550.0,500.0,1.0,,,,,,,,,white,cross
0.0,7.0,3.0,1.0,6.0,6.0,596.3899800008221,2.0,1.0,phase_2,stop,550.0,500.0,3.0,,,,,,,,,cyan,triangle
0.0,1.0,1.0,0.0,6.0,6.0,665.2599320004811,2.0,1.0,phase_2,go,550.0,450.0,1.0,,,,,,,,,yellow,diamond
0.0,7.0,3.0,1.0,5.0,5.0,698.2247670021025,2.0,1.0,phase_2,go,550.0,450.0,1.0,,,,,,,,,cyan,triangle
0.0,6.0,2.0,1.0,5.0,5.0,699.4525800000702,2.0,1.0,phase_2,go,550.0,450.0,1.0,,,,,,,,,green,circle
0.0,8.0,4.0,1.0,5.0,5.0,445.93277900276,2.0,1.0,phase_2,go,550.0,450.0,1.0,,,,,,,,,orange,square
0.0,3.0,3.0,0.0,6.0,6.0,353.5236030002124,2.0,1.0,phase_2,go,550.0,450.0,1.0,,,,,,,,,white,cross
0.0,1.0,1.0,0.0,6.0,6.0,440.2880900015589,2.0,1.0,phase_2,go,550.0,450.0,1.0,,,,,,,,,yellow,diamond
0.0,8.0,4.0,1.0,5.0,5.0,705.3024760025437,2.0,1.0,phase_2,stop,550.0,450.0,3.0,,,,,,,,,orange,square
0.0,6.0,2.0,1.0,5.0,5.0,556.1611429984623,2.0,1.0,phase_2,go,500.0,450.0,1.0,,,,,,,,,green,circle
0.0,3.0,3.0,0.0,5.0,5.0,722.1352080014185,2.0,1.0,phase_2,go,500.0,450.0,1.0,,,,,,,,,white,cross
0.0,7.0,3.0,1.0,6.0,6.0,625.918442998227,2.0,1.0,phase_2,go,500.0,450.0,1.0,,,,,,,,,cyan,triangle
0.0,5.0,1.0,1.0,5.0,0.0,0.0,2.0,1.0,phase_2,stop,500.0,450.0,4.0,,,,,,,,,blue,hexagon
0.0,7.0,3.0,1.0,5.0,0.0,0.0,2.0,1.0,phase_2,stop,550.0,450.0,4.0,,,,,,,,,cyan,triangle
0.0,8.0,4.0,1.0,6.0,6.0,549.0647530023125,2.0,1.0,phase_2,go,600.0,450.0,1.0,,,,,,,,,orange,square
0.0,1.0,1.0,0.0,6.0,6.0,719.7668949993385,2.0,1.0,phase_2,go,600.0,450.0,1.0,,,,,,,,,yellow,diamond
0.0,6.0,2.0,1.0,6.0,0.0,0.0,2.0,1.0,phase_2,stop,600.0,450.0,4.0,,,,,,,,,green,circle
0.0,1.0,1.0,0.0,5.0,5.0,718.6311179975746,2.0,1.0,phase_2,go,600.0,500.0,1.0,,,,,,,,,yellow,diamond
0.0,8.0,4.0,1.0,5.0,5.0,759.1946330030623,2.0,1.0,phase_2,go,600.0,500.0,1.0,,,,,,,,,orange,square
0.0,3.0,3.0,0.0,5.0,5.0,591.5776369984087,2.0,1.0,phase_2,go,600.0,500.0,1.0,,,,,,,,,white,cross
0.0,4.0,4.0,0.0,6.0,6.0,605.8844510007475,2.0,1.0,phase_2,go,600.0,500.0,1.0,,,,,,,,,magenta,flipped triangle
0.0,1.0,1.0,0.0,6.0,6.0,452.5938219994714,2.0,1.0,phase_2,go,600.0,500.0,1.0,,,,,,,,,yellow,diamond
0.0,8.0,4.0,1.0,6.0,6.0,634.5844259994919,2.0,1.0,phase_2,go,600.0,500.0,1.0,,,,,,,,,orange,square
0.0,7.0,3.0,1.0,6.0,0.0,0.0,2.0,1.0,phase_2,stop,600.0,500.0,4.0,,,,,,,,,cyan,triangle
0.0,8.0,4.0,1.0,5.0,5.0,731.3231469997845,2.0,1.0,phase_2,stop,600.0,550.0,3.0,,,,,,,,,orange,square
0.0,1.0,1.0,0.0,6.0,6.0,770.0759599974845,2.0,1.0,phase_2,go,550.0,550.0,1.0,,,,,,,,,yellow,diamond
0.0,5.0,1.0,1.0,5.0,0.0,0.0,2.0,1.0,phase_2,stop,550.0,550.0,4.0,,,,,,,,,blue,hexagon
0.0,1.0,1.0,0.0,5.0,5.0,1043.6675710006966,2.0,1.0,phase_2,go,600.0,550.0,1.0,,,,,,,,,yellow,diamond
0.0,6.0,2.0,1.0,5.0,5.0,672.7199439992546,2.0,1.0,phase_2,stop,600.0,550.0,3.0,,,,,,,,,green,circle
0.0,5.0,1.0,1.0,5.0,0.0,0.0,2.0,1.0,phase_2,stop,550.0,550.0,4.0,,,,,,,,,blue,hexagon
0.0,4.0,4.0,0.0,5.0,5.0,435.9428889983974,3.0,1.0,phase_2,go,600.0,550.0,1.0,,,,,,,,,magenta,flipped triangle
0.0,6.0,2.0,1.0,5.0,5.0,363.3231940002588,3.0,1.0,phase_2,stop,600.0,550.0,3.0,,,,,,,,,green,circle
0.0,6.0,2.0,1.0,5.0,5.0,631.8892689996574,3.0,1.0,phase_2,stop,550.0,550.0,3.0,,,,,,,,,green,circle
0.0,5.0,1.0,1.0,6.0,6.0,350.7350689978921,3.0,1.0,phase_2,go,500.0,550.0,1.0,,,,,,,,,blue,hexagon
0.0,5.0,1.0,1.0,5.0,5.0,556.4393829990877,3.0,1.0,phase_2,stop,500.0,550.0,3.0,,,,,,,,,blue,hexagon
0.0,4.0,4.0,0.0,6.0,6.0,643.3175780002784,3.0,1.0,phase_2,go,450.0,550.0,1.0,,,,,,,,,magenta,flipped triangle
0.0,3.0,3.0,0.0,5.0,5.0,581.1522279982455,3.0,1.0,phase_2,go,450.0,550.0,1.0,,,,,,,,,white,cross
0.0,1.0,1.0,0.0,5.0,5.0,661.5026729996316,3.0,1.0,phase_2,go,450.0,550.0,1.0,,,,,,,,,yellow,diamond
0.0,6.0,2.0,1.0,6.0,6.0,290.7487339980434,3.0,1.0,phase_2,stop,450.0,550.0,3.0,,,,,,,,,green,circle
0.0,1.0,1.0,0.0,5.0,5.0,673.3213869993051,3.0,1.0,phase_2,go,450.0,500.0,1.0,,,,,,,,,yellow,diamond
0.0,6.0,2.0,1.0,5.0,0.0,0.0,3.0,1.0,phase_2,stop,450.0,500.0,4.0,,,,,,,,,green,circle
0.0,7.0,3.0,1.0,5.0,5.0,793.0405550032447,3.0,1.0,phase_2,go,500.0,500.0,1.0,,,,,,,,,cyan,triangle
0.0,2.0,2.0,0.0,5.0,5.0,751.5762900002301,3.0,1.0,phase_2,go,500.0,500.0,1.0,,,,,,,,,gray,I
0.0,4.0,4.0,0.0,5.0,5.0,567.6930059998995,3.0,1.0,phase_2,go,500.0,500.0,1.0,,,,,,,,,magenta,flipped triangle
0.0,3.0,3.0,0.0,5.0,5.0,645.6752400008554,3.0,1.0,phase_2,go,500.0,500.0,1.0,,,,,,,,,white,cross
0.0,7.0,3.0,1.0,5.0,5.0,650.3643089999969,3.0,1.0,phase_2,stop,500.0,500.0,3.0,,,,,,,,,cyan,triangle
0.0,1.0,1.0,0.0,6.0,6.0,749.142541000765,3.0,1.0,phase_2,go,450.0,500.0,1.0,,,,,,,,,yellow,diamond
0.0,6.0,2.0,1.0,6.0,0.0,0.0,3.0,1.0,phase_2,stop,450.0,500.0,4.0,,,,,,,,,green,circle
0.0,3.0,3.0,0.0,6.0,6.0,788.6636270013696,3.0,1.0,phase_2,go,450.0,550.0,1.0,,,,,,,,,white,cross
0.0,7.0,3.0,1.0,6.0,6.0,891.304709999531,3.0,1.0,phase_2,go,450.0,550.0,1.0,,,,,,,,,cyan,triangle
0.0,7.0,3.0,1.0,6.0,6.0,835.7516370015219,3.0,1.0,phase_2,go,450.0,550.0,1.0,,,,,,,,,cyan,triangle
0.0,5.0,1.0,1.0,6.0,6.0,665.0896380015183,3.0,1.0,phase_2,stop,450.0,550.0,3.0,,,,,,,,,blue,hexagon
0.0,5.0,1.0,1.0,5.0,0.0,0.0,3.0,1.0,phase_2,stop,450.0,500.0,4.0,,,,,,,,,blue,hexagon
0.0,2.0,2.0,0.0,6.0,6.0,705.0767849978001,3.0,1.0,phase_2,go,500.0,500.0,1.0,,,,,,,,,gray,I
0.0,7.0,3.0,1.0,6.0,0.0,0.0,3.0,1.0,phase_2,stop,500.0,500.0,4.0,,,,,,,,,cyan,triangle
0.0,2.0,2.0,0.0,5.0,5.0,792.4437649999163,3.0,1.0,phase_2,go,500.0,550.0,1.0,,,,,,,,,gray,I
0.0,5.0,1.0,1.0,6.0,0.0,0.0,3.0,1.0,phase_2,stop,500.0,550.0,4.0,,,,,,,,,blue,hexagon
0.0,2.0,2.0,0.0,6.0,6.0,757.4423249971005,3.0,1.0,phase_2,go,500.0,600.0,1.0,,,,,,,,,gray,I
0.0,7.0,3.0,1.0,5.0,0.0,0.0,3.0,1.0,phase_2,stop,500.0,600.0,4.0,,,,,,,,,cyan,triangle
0.0,2.0,2.0,0.0,5.0,5.0,947.9760469985196,3.0,1.0,phase_2,go,550.0,600.0,1.0,,,,,,,,,gray,I
0.0,1.0,1.0,0.0,6.0,6.0,747.3465550028777,3.0,1.0,phase_2,go,550.0,600.0,1.0,,,,,,,,,yellow,diamond
0.0,5.0,1.0,1.0,5.0,0.0,0.0,3.0,1.0,phase_2,stop,550.0,600.0,4.0,,,,,,,,,blue,hexagon
0.0,1.0,1.0,0.0,6.0,6.0,835.1881769995089,3.0,1.0,phase_2,go,600.0,600.0,1.0,,,,,,,,,yellow,diamond
0.0,8.0,4.0,1.0,5.0,5.0,768.140336000215,3.0,1.0,phase_2,stop,600.0,600.0,3.0,,,,,,,,,orange,square
0.0,8.0,4.0,1.0,6.0,6.0,673.8700440000684,3.0,1.0,phase_2,stop,550.0,600.0,3.0,,,,,,,,,orange,square
0.0,2.0,2.0,0.0,6.0,6.0,648.9674260010361,3.0,1.0,phase_2,go,550.0,550.0,1.0,,,,,,,,,gray,I
0.0,5.0,1.0,1.0,6.0,6.0,709.9531729982118,4.0,1.0,phase_2,stop,550.0,550.0,3.0,,,,,,,,,blue,hexagon
0.0,5.0,1.0,1.0,6.0,0.0,0.0,4.0,1.0,phase_2,stop,550.0,500.0,4.0,,,,,,,,,blue,hexagon
0.0,7.0,3.0,1.0,6.0,6.0,606.2701199989533,4.0,1.0,phase_2,stop,550.0,550.0,3.0,,,,,,,,,cyan,triangle
0.0,5.0,1.0,1.0,5.0,5.0,772.0332160024554,4.0,1.0,phase_2,go,550.0,500.0,1.0,,,,,,,,,blue,hexagon
0.0,7.0,3.0,1.0,5.0,0.0,0.0,4.0,1.0,phase_2,stop,550.0,500.0,4.0,,,,,,,,,cyan,triangle
0.0,7.0,3.0,1.0,5.0,5.0,757.4812279999605,4.0,1.0,phase_2,stop,600.0,500.0,3.0,,,,,,,,,cyan,triangle
0.0,4.0,4.0,0.0,5.0,5.0,644.8153880010068,4.0,1.0,phase_2,go,550.0,500.0,1.0,,,,,,,,,magenta,flipped triangle
0.0,4.0,4.0,0.0,5.0,5.0,758.3177970009274,4.0,1.0,phase_2,go,550.0,500.0,1.0,,,,,,,,,magenta,flipped triangle
0.0,5.0,1.0,1.0,5.0,5.0,714.5824500003073,4.0,1.0,phase_2,stop,550.0,500.0,3.0,,,,,,,,,blue,hexagon
0.0,4.0,4.0,0.0,5.0,5.0,831.395485001849,4.0,1.0,phase_2,go,500.0,500.0,1.0,,,,,,,,,magenta,flipped triangle
0.0,4.0,4.0,0.0,6.0,6.0,767.7402570006961,4.0,1.0,phase_2,go,500.0,500.0,1.0,,,,,,,,,magenta,flipped triangle
0.0,5.0,1.0,1.0,5.0,5.0,665.6957370032615,4.0,1.0,phase_2,stop,500.0,500.0,3.0,,,,,,,,,blue,hexagon
0.0,8.0,4.0,1.0,5.0,0.0,0.0,4.0,1.0,phase_2,stop,450.0,500.0,4.0,,,,,,,,,orange,square
0.0,3.0,3.0,0.0,5.0,5.0,670.7351180011756,4.0,1.0,phase_2,go,500.0,500.0,1.0,,,,,,,,,white,cross
0.0,2.0,2.0,0.0,5.0,5.0,691.4811069982534,4.0,1.0,phase_2,go,500.0,500.0,1.0,,,,,,,,,gray,I
0.0,3.0,3.0,0.0,6.0,6.0,736.3432839993038,4.0,1.0,phase_2,go,500.0,500.0,1.0,,,,,,,,,white,cross
0.0,7.0,3.0,1.0,5.0,0.0,0.0,4.0,1.0,phase_2,stop,500.0,500.0,4.0,,,,,,,,,cyan,triangle
0.0,6.0,2.0,1.0,6.0,0.0,0.0,4.0,1.0,phase_2,stop,550.0,500.0,4.0,,,,,,,,,green,circle
0.0,6.0,2.0,1.0,6.0,6.0,637.5907200017537,4.0,1.0,phase_2,stop,550.0,550.0,3.0,,,,,,,,,green,circle
0.0,3.0,3.0,0.0,6.0,6.0,944.315052998718,4.0,1.0,phase_2,go,550.0,500.0,1.0,,,,,,,,,white,cross
0.0,1.0,1.0,0.0,5.0,5.0,981.4797130020452,4.0,1.0,phase_2,go,550.0,500.0,1.0,,,,,,,,,yellow,diamond
0.0,4.0,4.0,0.0,5.0,5.0,882.0870499985176,4.0,1.0,phase_2,go,550.0,500.0,1.0,,,,,,,,,magenta,flipped triangle
0.0,1.0,1.0,0.0,5.0,5.0,896.1188540015428,4.0,1.0,phase_2,go,550.0,500.0,1.0,,,,,,,,,yellow,diamond
0.0,5.0,1.0,1.0,5.0,0.0,0.0,4.0,1.0,phase_2,stop,550.0,500.0,4.0,,,,,,,,,blue,hexagon
0.0,6.0,2.0,1.0,5.0,0.0,0.0,4.0,1.0,phase_2,stop,600.0,500.0,4.0,,,,,,,,,green,circle
0.0,7.0,3.0,1.0,5.0,5.0,952.9764860017168,4.0,1.0,phase_2,go,650.0,500.0,1.0,,,,,,,,,cyan,triangle
0.0,7.0,3.0,1.0,5.0,0.0,0.0,4.0,1.0,phase_2,stop,650.0,500.0,4.0,,,,,,,,,cyan,triangle
0.0,3.0,3.0,0.0,5.0,5.0,1244.5976140006678,4.0,1.0,phase_2,go,700.0,500.0,1.0,,,,,,,,,white,cross
0.0,4.0,4.0,0.0,6.0,6.0,909.5921359985368,4.0,1.0,phase_2,go,700.0,500.0,1.0,,,,,,,,,magenta,flipped triangle
0.0,6.0,2.0,1.0,6.0,0.0,0.0,4.0,1.0,phase_2,stop,700.0,500.0,4.0,,,,,,,,,green,circle
0.0,8.0,4.0,1.0,6.0,6.0,1062.5234420003835,4.0,1.0,phase_2,go,700.0,550.0,1.0,,,,,,,,,orange,square
0.0,2.0,2.0,0.0,5.0,5.0,531.2081529991701,4.0,1.0,phase_2,go,700.0,550.0,1.0,,,,,,,,,gray,I
0.0,5.0,1.0,1.0,5.0,5.0,787.8709489996254,4.0,1.0,phase_2,stop,700.0,550.0,3.0,,,,,,,,,blue,hexagon
0.0,1.0,1.0,0.0,5.0,5.0,682.6358159996744,4.0,1.0,phase_2,go,650.0,550.0,1.0,,,,,,,,,yellow,diamond
0.0,3.0,3.0,0.0,5.0,5.0,1078.6082400009036,4.0,1.0,phase_2,go,650.0,550.0,1.0,,,,,,,,,white,cross
0.0,2.0,2.0,0.0,6.0,6.0,727.8299959980359,4.0,1.0,phase_2,go,650.0,550.0,1.0,,,,,,,,,gray,I
0.0,5.0,1.0,1.0,6.0,0.0,0.0,5.0,1.0,phase_2,stop,650.0,550.0,4.0,,,,,,,,,blue,hexagon
0.0,1.0,1.0,0.0,5.0,5.0,694.8498929996276,5.0,1.0,phase_2,go,650.0,600.0,1.0,,,,,,,,,yellow,diamond
0.0,7.0,3.0,1.0,5.0,5.0,739.2887310015794,5.0,1.0,phase_2,stop,650.0,600.0,3.0,,,,,,,,,cyan,triangle
0.0,7.0,3.0,1.0,6.0,0.0,0.0,5.0,1.0,phase_2,stop,600.0,600.0,4.0,,,,,,,,,cyan,triangle
0.0,3.0,3.0,0.0,6.0,6.0,812.8090829995926,5.0,1.0,phase_2,go,600.0,650.0,1.0,,,,,,,,,white,cross
0.0,2.0,2.0,0.0,6.0,6.0,985.6215479994715,5.0,1.0,phase_2,go,600.0,650.0,1.0,,,,,,,,,gray,I
0.0,4.0,4.0,0.0,5.0,5.0,1152.3228650003148,5.0,1.0,phase_2,go,600.0,650.0,1.0,,,,,,,,,magenta,flipped triangle
0.0,5.0,1.0,1.0,6.0,6.0,841.0811930007185,5.0,1.0,phase_2,go,600.0,650.0,1.0,,,,,,,,,blue,hexagon
0.0,2.0,2.0,0.0,6.0,6.0,807.4441339995246,5.0,1.0,phase_2,go,600.0,650.0,1.0,,,,,,,,,gray,I
0.0,2.0,2.0,0.0,5.0,5.0,763.4129670004768,5.0,1.0,phase_2,go,600.0,650.0,1.0,,,,,,,,,gray,I
0.0,7.0,3.0,1.0,5.0,0.0,0.0,5.0,1.0,phase_2,stop,600.0,650.0,4.0,,,,,,,,,cyan,triangle
0.0,3.0,3.0,0.0,6.0,6.0,755.1359570024943,5.0,1.0,phase_2,go,650.0,650.0,1.0,,,,,,,,,white,cross
0.0,7.0,3.0,1.0,5.0,5.0,1094.0854820000825,5.0,1.0,phase_2,go,650.0,650.0,1.0,,,,,,,,,cyan,triangle
0.0,3.0,3.0,0.0,6.0,6.0,778.6696990006021,5.0,1.0,phase_2,go,650.0,650.0,1.0,,,,,,,,,white,cross
0.0,8.0,4.0,1.0,6.0,6.0,745.8641299999726,5.0,1.0,phase_2,go,650.0,650.0,1.0,,,,,,,,,orange,square
0.0,2.0,2.0,0.0,5.0,5.0,786.9145599979674,5.0,1.0,phase_2,go,650.0,650.0,1.0,,,,,,,,,gray,I
0.0,3.0,3.0,0.0,5.0,5.0,712.6683559981757,5.0,1.0,phase_2,go,650.0,650.0,1.0,,,,,,,,,white,cross
0.0,8.0,4.0,1.0,6.0,6.0,689.1525960018043,5.0,1.0,phase_2,go,650.0,650.0,1.0,,,,,,,,,orange,square
0.0,4.0,4.0,0.0,6.0,6.0,702.2351730010996,5.0,1.0,phase_2,go,650.0,650.0,1.0,,,,,,,,,magenta,flipped triangle
0.0,2.0,2.0,0.0,5.0,5.0,715.6501579993346,5.0,1.0,phase_2,go,650.0,650.0,1.0,,,,,,,,,gray,I
0.0,8.0,4.0,1.0,5.0,5.0,398.4374299980118,5.0,1.0,phase_2,stop,650.0,650.0,3.0,,,,,,,,,orange,square
0.0,8.0,4.0,1.0,6.0,6.0,690.7974220011965,5.0,1.0,phase_2,stop,600.0,650.0,3.0,,,,,,,,,orange,square
0.0,7.0,3.0,1.0,6.0,6.0,733.2324140006676,5.0,1.0,phase_2,go,600.0,600.0,1.0,,,,,,,,,cyan,triangle
0.0,7.0,3.0,1.0,6.0,6.0,751.0287199984305,5.0,1.0,phase_2,stop,600.0,600.0,3.0,,,,,,,,,cyan,triangle
0.0,1.0,1.0,0.0,5.0,5.0,875.2177909991588,5.0,1.0,phase_2,go,600.0,550.0,1.0,,,,,,,,,yellow,diamond
0.0,4.0,4.0,0.0,6.0,6.0,1130.1931250018242,5.0,1.0,phase_2,go,600.0,550.0,1.0,,,,,,,,,magenta,flipped triangle
0.0,7.0,3.0,1.0,5.0,0.0,0.0,5.0,1.0,phase_2,stop,600.0,550.0,4.0,,,,,,,,,cyan,triangle
0.0,6.0,2.0,1.0,6.0,0.0,0.0,5.0,1.0,phase_2,stop,650.0,550.0,4.0,,,,,,,,,green,circle
0.0,8.0,4.0,1.0,6.0,6.0,764.3359770008828,5.0,1.0,phase_2,stop,650.0,600.0,3.0,,,,,,,,,orange,square
0.0,2.0,2.0,0.0,6.0,6.0,713.4271930008254,5.0,1.0,phase_2,go,650.0,550.0,1.0,,,,,,,,,gray,I
0.0,3.0,3.0,0.0,6.0,6.0,844.8555670001952,5.0,1.0,phase_2,go,650.0,550.0,1.0,,,,,,,,,white,cross
0.0,7.0,3.0,1.0,5.0,5.0,752.2398000000976,5.0,1.0,phase_2,stop,650.0,550.0,3.0,,,,,,,,,cyan,triangle
0.0,1.0,1.0,0.0,5.0,5.0,908.322032999422,5.0,1.0,phase_2,go,600.0,550.0,1.0,,,,,,,,,yellow,diamond
0.0,2.0,2.0,0.0,6.0,6.0,718.3818359990255,5.0,1.0,phase_2,go,600.0,550.0,1.0,,,,,,,,,gray,I
0.0,2.0,2.0,0.0,5.0,5.0,701.5869010028837,5.0,1.0,phase_2,go,600.0,550.0,1.0,,,,,,,,,gray,I
0.0,3.0,3.0,0.0,6.0,6.0,759.0229760025977,5.0,1.0,phase_2,go,600.0,550.0,1.0,,,,,,,,,white,cross
0.0,6.0,2.0,1.0,5.0,0.0,0.0,6.0,1.0,phase_2,stop,600.0,550.0,4.0,,,,,,,,,green,circle
0.0,8.0,4.0,1.0,6.0,0.0,0.0,6.0,1.0,phase_2,stop,650.0,550.0,4.0,,,,,,,,,orange,square
0.0,1.0,1.0,0.0,6.0,6.0,711.3520909988438,6.0,1.0,phase_2,go,650.0,600.0,1.0,,,,,,,,,yellow,diamond
0.0,6.0,2.0,1.0,5.0,0.0,0.0,6.0,1.0,phase_2,stop,650.0,600.0,4.0,,,,,,,,,green,circle
0.0,8.0,4.0,1.0,6.0,6.0,962.665401999402,6.0,1.0,phase_2,go,700.0,600.0,1.0,,,,,,,,,orange,square
0.0,3.0,3.0,0.0,5.0,5.0,769.8248300002888,6.0,1.0,phase_2,go,700.0,600.0,1.0,,,,,,,,,white,cross
0.0,2.0,2.0,0.0,6.0,6.0,622.8217620009673,6.0,1.0,phase_2,go,700.0,600.0,1.0,,,,,,,,,gray,I
0.0,8.0,4.0,1.0,6.0,0.0,0.0,6.0,1.0,phase_2,stop,700.0,600.0,4.0,,,,,,,,,orange,square
0.0,6.0,2.0,1.0,6.0,6.0,743.2426619998296,6.0,1.0,phase_2,go,700.0,650.0,1.0,,,,,,,,,green,circle
0.0,3.0,3.0,0.0,5.0,5.0,689.2717810005706,6.0,1.0,phase_2,go,700.0,650.0,1.0,,,,,,,,,white,cross
0.0,3.0,3.0,0.0,6.0,6.0,796.3716150006803,6.0,1.0,phase_2,go,700.0,650.0,1.0,,,,,,,,,white,cross
0.0,5.0,1.0,1.0,6.0,6.0,958.4825909987558,6.0,1.0,phase_2,go,700.0,650.0,1.0,,,,,,,,,blue,hexagon
0.0,4.0,4.0,0.0,6.0,6.0,782.3361529990507,6.0,1.0,phase_2,go,700.0,650.0,1.0,,,,,,,,,magenta,flipped triangle
0.0,8.0,4.0,1.0,5.0,5.0,735.5678679996345,6.0,1.0,phase_2,stop,700.0,650.0,3.0,,,,,,,,,orange,square
0.0,7.0,3.0,1.0,6.0,6.0,745.9972870019556,6.0,1.0,phase_2,stop,650.0,650.0,3.0,,,,,,,,,cyan,triangle
0.0,2.0,2.0,0.0,6.0,6.0,676.1172269980307,6.0,1.0,phase_2,go,650.0,600.0,1.0,,,,,,,,,gray,I
0.0,4.0,4.0,0.0,6.0,6.0,976.6472650007928,6.0,1.0,phase_2,go,650.0,600.0,1.0,,,,,,,,,magenta,flipped triangle
0.0,2.0,2.0,0.0,5.0,5.0,632.8018599997449,6.0,1.0,phase_2,go,650.0,600.0,1.0,,,,,,,,,gray,I
0.0,8.0,4.0,1.0,5.0,0.0,0.0,6.0,1.0,phase_2,stop,650.0,600.0,4.0,,,,,,,,,orange,square
0.0,4.0,4.0,0.0,5.0,5.0,1063.882653001201,6.0,1.0,phase_2,go,700.0,600.0,1.0,,,,,,,,,magenta,flipped triangle
0.0,1.0,1.0,0.0,5.0,5.0,1116.628395000589,6.0,1.0,phase_2,go,700.0,600.0,1.0,,,,,,,,,yellow,diamond
0.0,2.0,2.0,0.0,5.0,5.0,710.420900999452,6.0,1.0,phase_2,go,700.0,600.0,1.0,,,,,,,,,gray,I
0.0,5.0,1.0,1.0,6.0,0.0,0.0,6.0,1.0,phase_2,stop,700.0,600.0,4.0,,,,,,,,,blue,hexagon
0.0,6.0,2.0,1.0,6.0,6.0,915.7716080007958,6.0,1.0,phase_2,stop,700.0,650.0,3.0,,,,,,,,,green,circle
0.0,5.0,1.0,1.0,6.0,0.0,0.0,6.0,1.0,phase_2,stop,700.0,600.0,4.0,,,,,,,,,blue,hexagon
0.0,4.0,4.0,0.0,5.0,5.0,910.2544689994828,6.0,1.0,phase_2,go,700.0,650.0,1.0,,,,,,,,,magenta,flipped triangle
0.0,6.0,2.0,1.0,6.0,0.0,0.0,6.0,1.0,phase_2,stop,700.0,650.0,4.0,,,,,,,,,green,circle
0.0,3.0,3.0,0.0,6.0,6.0,881.5414310010965,6.0,1.0,phase_2,go,700.0,700.0,1.0,,,,,,,,,white,cross
0.0,1.0,1.0,0.0,5.0,5.0,876.4391080003406,6.0,1.0,phase_2,go,700.0,700.0,1.0,,,,,,,,,yellow,diamond
0.0,8.0,4.0,1.0,6.0,0.0,0.0,6.0,1.0,phase_2,stop,700.0,700.0,4.0,,,,,,,,,orange,square
0.0,8.0,4.0,1.0,5.0,0.0,0.0,6.0,1.0,phase_2,stop,700.0,750.0,4.0,,,,,,,,,orange,square
0.0,4.0,4.0,0.0,5.0,5.0,783.4179460005544,6.0,1.0,phase_2,go,750.0,750.0,1.0,,,,,,,,,magenta,flipped triangle
0.0,3.0,3.0,0.0,5.0,5.0,707.9143779992592,6.0,1.0,phase_2,go,750.0,750.0,1.0,,,,,,,,,white,cross
0.0,1.0,1.0,0.0,6.0,6.0,1198.4853059984744,6.0,1.0,phase_2,go,750.0,750.0,1.0,,,,,,,,,yellow,diamond
0.0,1.0,1.0,0.0,5.0,5.0,949.9307360019884,6.0,1.0,phase_2,go,750.0,750.0,1.0,,,,,,,,,yellow,diamond
0.0,8.0,4.0,1.0,5.0,5.0,722.2324139984266,6.0,1.0,phase_2,stop,750.0,750.0,3.0,,,,,,,,,orange,square
0.0,2.0,2.0,0.0,5.0,5.0,767.4792680008977,7.0,1.0,phase_2,go,700.0,750.0,1.0,,,,,,,,,gray,I
0.0,1.0,1.0,0.0,5.0,5.0,373.1673749971378,7.0,1.0,phase_2,go,700.0,750.0,1.0,,,,,,,,,yellow,diamond
0.0,8.0,4.0,1.0,5.0,5.0,870.2421879970643,7.0,1.0,phase_2,stop,700.0,750.0,3.0,,,,,,,,,orange,square
0.0,1.0,1.0,0.0,6.0,6.0,898.9200100004382,7.0,1.0,phase_2,go,650.0,750.0,1.0,,,,,,,,,yellow,diamond
0.0,7.0,3.0,1.0,6.0,0.0,0.0,7.0,1.0,phase_2,stop,650.0,750.0,4.0,,,,,,,,,cyan,triangle
0.0,4.0,4.0,0.0,5.0,5.0,941.5703960003156,7.0,1.0,phase_2,go,650.0,800.0,1.0,,,,,,,,,magenta,flipped triangle
0.0,8.0,4.0,1.0,5.0,0.0,0.0,7.0,1.0,phase_2,stop,650.0,800.0,4.0,,,,,,,,,orange,square
0.0,5.0,1.0,1.0,6.0,6.0,934.417668999231,7.0,1.0,phase_2,stop,700.0,800.0,3.0,,,,,,,,,blue,hexagon
0.0,3.0,3.0,0.0,5.0,5.0,742.1792649984127,7.0,1.0,phase_2,go,700.0,750.0,1.0,,,,,,,,,white,cross
0.0,6.0,2.0,1.0,5.0,0.0,0.0,7.0,1.0,phase_2,stop,700.0,750.0,4.0,,,,,,,,,green,circle
0.0,4.0,4.0,0.0,5.0,5.0,803.2159089998459,7.0,1.0,phase_2,go,750.0,750.0,1.0,,,,,,,,,magenta,flipped triangle
0.0,2.0,2.0,0.0,6.0,6.0,655.7557919986721,7.0,1.0,phase_2,go,750.0,750.0,1.0,,,,,,,,,gray,I
0.0,8.0,4.0,1.0,6.0,6.0,855.914750998636,7.0,1.0,phase_2,stop,750.0,750.0,3.0,,,,,,,,,orange,square
0.0,1.0,1.0,0.0,6.0,6.0,995.944424001209,7.0,1.0,phase_2,go,750.0,700.0,1.0,,,,,,,,,yellow,diamond
0.0,2.0,2.0,0.0,5.0,5.0,573.8047209997603,7.0,1.0,phase_2,go,750.0,700.0,1.0,,,,,,,,,gray,I
0.0,5.0,1.0,1.0,6.0,0.0,0.0,7.0,1.0,phase_2,stop,750.0,700.0,4.0,,,,,,,,,blue,hexagon
0.0,2.0,2.0,0.0,5.0,5.0,820.1682200015057,7.0,1.0,phase_2,go,750.0,750.0,1.0,,,,,,,,,gray,I
0.0,3.0,3.0,0.0,5.0,5.0,779.6502819983289,7.0,1.0,phase_2,go,750.0,750.0,1.0,,,,,,,,,white,cross
0.0,4.0,4.0,0.0,6.0,6.0,977.1663730025466,7.0,1.0,phase_2,go,750.0,750.0,1.0,,,,,,,,,magenta,flipped triangle
0.0,5.0,1.0,1.0,6.0,6.0,1077.5242460003938,7.0,1.0,phase_2,go,750.0,750.0,1.0,,,,,,,,,blue,hexagon
0.0,7.0,3.0,1.0,6.0,0.0,0.0,7.0,1.0,phase_2,stop,750.0,750.0,4.0,,,,,,,,,cyan,triangle
0.0,1.0,1.0,0.0,6.0,6.0,798.6428359981801,7.0,1.0,phase_2,go,750.0,800.0,1.0,,,,,,,,,yellow,diamond
0.0,6.0,2.0,1.0,6.0,6.0,750.594353001361,7.0,1.0,phase_2,stop,750.0,800.0,3.0,,,,,,,,,green,circle
0.0,3.0,3.0,0.0,5.0,5.0,501.1519670006237,7.0,1.0,phase_2,go,750.0,750.0,1.0,,,,,,,,,white,cross
0.0,5.0,1.0,1.0,5.0,0.0,0.0,7.0,1.0,phase_2,stop,750.0,750.0,4.0,,,,,,,,,blue,hexagon
0.0,4.0,4.0,0.0,6.0,6.0,1019.0767669992056,7.0,1.0,phase_2,go,800.0,750.0,1.0,,,,,,,,,magenta,flipped triangle
0.0,2.0,2.0,0.0,6.0,6.0,656.9852200009336,7.0,1.0,phase_2,go,800.0,750.0,1.0,,,,,,,,,gray,I
0.0,2.0,2.0,0.0,5.0,5.0,681.5786200022558,7.0,1.0,phase_2,go,800.0,750.0,1.0,,,,,,,,,gray,I
0.0,6.0,2.0,1.0,5.0,0.0,0.0,7.0,1.0,phase_2,stop,800.0,750.0,4.0,,,,,,,,,green,circle
0.0,1.0,1.0,0.0,6.0,6.0,1077.5842959992588,7.0,1.0,phase_2,go,850.0,750.0,1.0,,,,,,,,,yellow,diamond
0.0,3.0,3.0,0.0,5.0,5.0,858.1416980014183,7.0,1.0,phase_2,go,850.0,750.0,1.0,,,,,,,,,white,cross
0.0,8.0,4.0,1.0,6.0,0.0,0.0,7.0,1.0,phase_2,stop,850.0,750.0,4.0,,,,,,,,,orange,square
0.0,6.0,2.0,1.0,5.0,0.0,0.0,7.0,1.0,phase_2,stop,850.0,800.0,4.0,,,,,,,,,green,circle
0.0,5.0,1.0,1.0,5.0,5.0,1005.7765429992287,7.0,1.0,phase_2,go,900.0,800.0,1.0,,,,,,,,,blue,hexagon
0.0,7.0,3.0,1.0,6.0,6.0,836.473045997991,7.0,1.0,phase_2,stop,900.0,800.0,3.0,,,,,,,,,cyan,triangle
0.0,8.0,4.0,1.0,5.0,5.0,991.2523990024056,7.0,1.0,phase_2,stop,900.0,750.0,3.0,,,,,,,,,orange,square
0.0,8.0,4.0,1.0,6.0,0.0,0.0,8.0,1.0,phase_2,stop,850.0,750.0,4.0,,,,,,,,,orange,square
0.0,4.0,4.0,0.0,6.0,6.0,996.2511119992996,8.0,1.0,phase_2,go,850.0,800.0,1.0,,,,,,,,,magenta,flipped triangle
0.0,1.0,1.0,0.0,6.0,6.0,1129.668607001804,8.0,1.0,phase_2,go,850.0,800.0,1.0,,,,,,,,,yellow,diamond
0.0,2.0,2.0,0.0,6.0,6.0,629.9687129976519,8.0,1.0,phase_2,go,850.0,800.0,1.0,,,,,,,,,gray,I
0.0,1.0,1.0,0.0,6.0,6.0,994.1929089982297,8.0,1.0,phase_2,go,850.0,800.0,1.0,,,,,,,,,yellow,diamond
0.0,7.0,3.0,1.0,5.0,0.0,0.0,8.0,1.0,phase_2,stop,850.0,800.0,4.0,,,,,,,,,cyan,triangle
0.0,3.0,3.0,0.0,6.0,6.0,1292.337584996858,8.0,1.0,phase_2,go,900.0,800.0,1.0,,,,,,,,,white,cross
0.0,3.0,3.0,0.0,6.0,6.0,1010.7137429986324,8.0,1.0,phase_2,go,900.0,800.0,1.0,,,,,,,,,white,cross
0.0,4.0,4.0,0.0,6.0,6.0,1334.1152889988734,8.0,1.0,phase_2,go,900.0,800.0,1.0,,,,,,,,,magenta,flipped triangle
0.0,5.0,1.0,1.0,5.0,0.0,0.0,8.0,1.0,phase_2,stop,900.0,800.0,4.0,,,,,,,,,blue,hexagon
0.0,4.0,4.0,0.0,6.0,6.0,1048.584585001663,8.0,1.0,phase_2,go,950.0,800.0,1.0,,,,,,,,,magenta,flipped triangle
0.0,5.0,1.0,1.0,6.0,6.0,1454.8182990001806,8.0,1.0,phase_2,go,950.0,800.0,1.0,,,,,,,,,blue,hexagon
0.0,6.0,2.0,1.0,6.0,0.0,0.0,8.0,1.0,phase_2,stop,950.0,800.0,4.0,,,,,,,,,green,circle
0.0,2.0,2.0,0.0,5.0,5.0,628.0719990027137,8.0,1.0,phase_2,go,950.0,850.0,1.0,,,,,,,,,gray,I
0.0,6.0,2.0,1.0,5.0,5.0,993.8017669992404,8.0,1.0,phase_2,stop,950.0,850.0,3.0,,,,,,,,,green,circle
0.0,8.0,4.0,1.0,6.0,6.0,952.1648740010278,8.0,1.0,phase_2,stop,900.0,850.0,3.0,,,,,,,,,orange,square
0.0,2.0,2.0,0.0,6.0,6.0,367.546986999514,8.0,1.0,phase_2,go,900.0,800.0,1.0,,,,,,,,,gray,I
0.0,7.0,3.0,1.0,6.0,0.0,0.0,8.0,1.0,phase_2,stop,900.0,800.0,4.0,,,,,,,,,cyan,triangle
0.0,7.0,3.0,1.0,6.0,6.0,777.2818190023827,8.0,1.0,phase_2,stop,900.0,850.0,3.0,,,,,,,,,cyan,triangle
0.0,5.0,1.0,1.0,6.0,6.0,1034.4231460003357,8.0,1.0,phase_2,go,900.0,800.0,1.0,,,,,,,,,blue,hexagon
0.0,4.0,4.0,0.0,5.0,5.0,1101.2008920006338,8.0,1.0,phase_2,go,900.0,800.0,1.0,,,,,,,,,magenta,flipped triangle
0.0,1.0,1.0,0.0,5.0,5.0,1000.8774830021141,8.0,1.0,phase_2,go,900.0,800.0,1.0,,,,,,,,,yellow,diamond
0.0,8.0,4.0,1.0,5.0,5.0,943.5978269975748,8.0,1.0,phase_2,stop,900.0,800.0,3.0,,,,,,,,,orange,square
0.0,2.0,2.0,0.0,6.0,6.0,567.0219520034152,8.0,1.0,phase_2,go,850.0,800.0,1.0,,,,,,,,,gray,I
0.0,1.0,1.0,0.0,5.0,5.0,1486.2434169990593,8.0,1.0,phase_2,go,850.0,800.0,1.0,,,,,,,,,yellow,diamond
0.0,3.0,3.0,0.0,6.0,6.0,1060.0171590012906,8.0,1.0,phase_2,go,850.0,800.0,1.0,,,,,,,,,white,cross
0.0,4.0,4.0,0.0,6.0,6.0,958.5774049992324,8.0,1.0,phase_2,go,850.0,800.0,1.0,,,,,,,,,magenta,flipped triangle
0.0,2.0,2.0,0.0,5.0,5.0,550.3008820014657,8.0,1.0,phase_2,go,850.0,800.0,1.0,,,,,,,,,gray,I
0.0,2.0,2.0,0.0,6.0,6.0,584.4476990023395,8.0,1.0,phase_2,go,850.0,800.0,1.0,,,,,,,,,gray,I
0.0,5.0,1.0,1.0,6.0,6.0,875.8772039982432,8.0,1.0,phase_2,stop,850.0,800.0,3.0,,,,,,,,,blue,hexagon
0.0,3.0,3.0,0.0,5.0,5.0,545.5076079997525,8.0,1.0,phase_2,go,850.0,750.0,1.0,,,,,,,,,white,cross
0.0,7.0,3.0,1.0,5.0,0.0,0.0,8.0,1.0,phase_2,stop,850.0,750.0,4.0,,,,,,,,,cyan,triangle
0.0,8.0,4.0,1.0,5.0,5.0,979.7938209994754,8.0,1.0,phase_2,stop,900.0,750.0,3.0,,,,,,,,,orange,square
0.0,2.0,2.0,0.0,6.0,6.0,500.49257799764746,8.0,1.0,phase_2,go,850.0,750.0,1.0,,,,,,,,,gray,I
0.0,6.0,2.0,1.0,6.0,6.0,1231.9170720002148,8.0,1.0,phase_2,go,850.0,750.0,1.0,,,,,,,,,green,circle
0.0,5.0,1.0,1.0,6.0,6.0,1241.8685569973604,8.0,1.0,phase_2,go,850.0,750.0,1.0,,,,,,,,,blue,hexagon
0.0,2.0,2.0,0.0,7.0,5.0,3078.3680679996905,1.0,2.0,phase_3,,,,,176.0,4.0,44.0,132.0,88.0,264.0,176.0,220.0,gray,I
0.0,1.0,1.0,0.0,7.0,5.0,3977.572923999105,1.0,1.0,phase_3,,,,,39.0,1.0,78.0,156.0,117.0,195.0,39.0,234.0,yellow,diamond
0.0,8.0,4.0,1.0,7.0,5.0,4444.796900999791,1.0,1.0,phase_3,,,,,196.0,4.0,98.0,245.0,294.0,147.0,196.0,49.0,orange,square
0.0,3.0,3.0,0.0,7.0,1.0,4173.543451001024,1.0,1.0,phase_3,,,,,195.0,5.0,195.0,78.0,39.0,234.0,117.0,156.0,white,cross
0.0,5.0,1.0,1.0,7.0,2.0,2065.4609340017487,1.0,2.0,phase_3,,,,,162.0,3.0,216.0,162.0,108.0,54.0,270.0,324.0,blue,hexagon
0.0,1.0,1.0,0.0,7.0,3.0,2149.7853599976224,1.0,1.0,phase_3,,,,,162.0,3.0,54.0,108.0,162.0,270.0,324.0,216.0,yellow,diamond
0.0,1.0,1.0,0.0,7.0,4.0,2382.919118001155,1.0,1.0,phase_3,,,,,220.0,5.0,88.0,176.0,264.0,220.0,44.0,132.0,yellow,diamond
0.0,6.0,2.0,1.0,7.0,6.0,2355.215261999547,1.0,1.0,phase_3,,,,,98.0,2.0,294.0,245.0,196.0,147.0,49.0,98.0,green,circle
0.0,4.0,4.0,0.0,7.0,3.0,2325.7828739988327,1.0,1.0,phase_3,,,,,196.0,4.0,98.0,49.0,196.0,294.0,147.0,245.0,magenta,flipped triangle
0.0,3.0,3.0,0.0,7.0,3.0,3741.208580999228,1.0,1.0,phase_3,,,,,162.0,3.0,54.0,324.0,162.0,108.0,216.0,270.0,white,cross
0.0,5.0,1.0,1.0,7.0,6.0,3374.616857003275,1.0,1.0,phase_3,,,,,195.0,5.0,156.0,39.0,234.0,78.0,117.0,195.0,blue,hexagon
0.0,2.0,2.0,0.0,7.0,2.0,3947.508193999965,1.0,1.0,phase_3,,,,,204.0,6.0,34.0,204.0,68.0,102.0,170.0,136.0,gray,I
0.0,4.0,4.0,0.0,7.0,3.0,2784.7098730017024,1.0,1.0,phase_3,,,,,156.0,4.0,39.0,78.0,156.0,195.0,117.0,234.0,magenta,flipped triangle
0.0,5.0,1.0,1.0,7.0,6.0,2769.9650380018284,1.0,1.0,phase_3,,,,,176.0,4.0,132.0,264.0,220.0,44.0,88.0,176.0,blue,hexagon
0.0,7.0,3.0,1.0,7.0,3.0,3834.4907450009487,1.0,1.0,phase_3,,,,,220.0,5.0,132.0,264.0,220.0,88.0,44.0,176.0,cyan,triangle
0.0,3.0,3.0,0.0,7.0,6.0,4287.720436001109,1.0,1.0,phase_3,,,,,270.0,5.0,162.0,324.0,108.0,216.0,54.0,270.0,white,cross
0.0,4.0,4.0,0.0,7.0,4.0,3057.461317999696,1.0,1.0,phase_3,,,,,170.0,5.0,136.0,204.0,102.0,170.0,34.0,68.0,magenta,flipped triangle
0.0,5.0,1.0,1.0,7.0,3.0,3800.206338997669,1.0,1.0,phase_3,,,,,204.0,6.0,102.0,68.0,204.0,34.0,170.0,136.0,blue,hexagon
0.0,6.0,2.0,1.0,7.0,2.0,4380.94928099963,1.0,1.0,phase_3,,,,,196.0,4.0,294.0,196.0,245.0,49.0,98.0,147.0,green,circle
0.0,2.0,2.0,0.0,7.0,4.0,3211.22920400012,1.0,1.0,phase_3,,,,,216.0,4.0,162.0,324.0,108.0,216.0,54.0,270.0,gray,I
0.0,4.0,4.0,0.0,7.0,4.0,2239.0074049981195,2.0,1.0,phase_3,,,,,156.0,4.0,234.0,39.0,78.0,156.0,117.0,195.0,magenta,flipped triangle
0.0,7.0,3.0,1.0,7.0,6.0,4046.9821670012607,2.0,1.0,phase_3,,,,,216.0,4.0,162.0,108.0,324.0,54.0,270.0,216.0,cyan,triangle
0.0,7.0,3.0,1.0,7.0,2.0,3006.755353999324,2.0,1.0,phase_3,,,,,147.0,3.0,294.0,147.0,49.0,196.0,245.0,98.0,cyan,triangle
0.0,4.0,4.0,0.0,7.0,5.0,3758.2481579993328,2.0,1.0,phase_3,,,,,270.0,5.0,216.0,54.0,324.0,108.0,270.0,162.0,magenta,flipped triangle
0.0,8.0,4.0,1.0,7.0,5.0,2834.1152230023,2.0,1.0,phase_3,,,,,176.0,4.0,88.0,44.0,264.0,220.0,176.0,132.0,orange,square
0.0,1.0,1.0,0.0,7.0,5.0,3232.9573780007195,2.0,1.0,phase_3,,,,,147.0,3.0,196.0,245.0,294.0,98.0,147.0,49.0,yellow,diamond
0.0,7.0,3.0,1.0,7.0,4.0,3018.821409998054,2.0,1.0,phase_3,,,,,162.0,3.0,216.0,108.0,270.0,162.0,324.0,54.0,cyan,triangle
0.0,6.0,2.0,1.0,7.0,4.0,3548.2332749998022,2.0,1.0,phase_3,,,,,195.0,5.0,39.0,78.0,117.0,195.0,156.0,234.0,green,circle
0.0,6.0,2.0,1.0,7.0,6.0,2886.6180770019128,2.0,1.0,phase_3,,,,,136.0,4.0,170.0,34.0,68.0,102.0,204.0,136.0,green,circle
0.0,4.0,4.0,0.0,7.0,2.0,4287.405160001072,2.0,1.0,phase_3,,,,,147.0,3.0,49.0,147.0,98.0,196.0,294.0,245.0,magenta,flipped triangle
0.0,7.0,3.0,1.0,7.0,3.0,3283.3943069999805,2.0,1.0,phase_3,,,,,176.0,4.0,44.0,88.0,176.0,264.0,132.0,220.0,cyan,triangle
0.0,3.0,3.0,0.0,7.0,5.0,2817.382949997409,2.0,1.0,phase_3,,,,,156.0,4.0,117.0,78.0,195.0,39.0,156.0,234.0,white,cross
0.0,4.0,4.0,0.0,7.0,2.0,2468.687163000141,2.0,1.0,phase_3,,,,,176.0,4.0,132.0,176.0,220.0,44.0,264.0,88.0,magenta,flipped triangle
0.0,2.0,2.0,0.0,7.0,4.0,2256.2956959991425,2.0,1.0,phase_3,,,,,147.0,3.0,196.0,49.0,98.0,147.0,245.0,294.0,gray,I
0.0,1.0,1.0,0.0,7.0,6.0,2446.047923000151,2.0,1.0,phase_3,,,,,176.0,4.0,132.0,44.0,264.0,88.0,220.0,176.0,yellow,diamond
0.0,7.0,3.0,1.0,7.0,2.0,2718.002040997817,2.0,1.0,phase_3,,,,,117.0,3.0,234.0,117.0,78.0,195.0,156.0,39.0,cyan,triangle
0.0,1.0,1.0,0.0,7.0,4.0,2595.867201001965,2.0,1.0,phase_3,,,,,162.0,3.0,270.0,324.0,216.0,162.0,54.0,108.0,yellow,diamond
0.0,6.0,2.0,1.0,7.0,3.0,4208.034672999929,2.0,1.0,phase_3,,,,,220.0,5.0,88.0,264.0,220.0,176.0,44.0,132.0,green,circle
0.0,2.0,2.0,0.0,7.0,4.0,1813.5112150011992,2.0,1.0,phase_3,,,,,156.0,4.0,117.0,39.0,78.0,156.0,195.0,234.0,gray,I
0.0,6.0,2.0,1.0,7.0,1.0,3481.407250998018,2.0,1.0,phase_3,,,,,216.0,4.0,216.0,108.0,54.0,324.0,270.0,162.0,green,circle
0.0,1.0,1.0,0.0,7.0,6.0,3114.2333290008537,3.0,1.0,phase_3,,,,,147.0,3.0,49.0,98.0,294.0,196.0,245.0,147.0,yellow,diamond
0.0,2.0,2.0,0.0,7.0,4.0,3305.9219759998086,3.0,1.0,phase_3,,,,,216.0,4.0,54.0,270.0,108.0,216.0,162.0,324.0,gray,I
0.0,5.0,1.0,1.0,7.0,2.0,3833.698431997618,3.0,1.0,phase_3,,,,,102.0,3.0,204.0,102.0,68.0,136.0,34.0,170.0,blue,hexagon
0.0,7.0,3.0,1.0,7.0,4.0,3073.910652998165,3.0,1.0,phase_3,,,,,156.0,4.0,195.0,39.0,78.0,156.0,117.0,234.0,cyan,triangle
0.0,8.0,4.0,1.0,7.0,1.0,4764.6944759981125,3.0,1.0,phase_3,,,,,195.0,5.0,195.0,39.0,117.0,234.0,78.0,156.0,orange,square
0.0,4.0,4.0,0.0,7.0,4.0,2688.139007997961,3.0,1.0,phase_3,,,,,176.0,4.0,220.0,264.0,132.0,176.0,44.0,88.0,magenta,flipped triangle
0.0,7.0,3.0,1.0,7.0,5.0,3638.146160003089,3.0,1.0,phase_3,,,,,147.0,3.0,245.0,49.0,294.0,196.0,147.0,98.0,cyan,triangle
0.0,5.0,1.0,1.0,7.0,6.0,2828.805318000377,3.0,1.0,phase_3,,,,,195.0,5.0,39.0,156.0,234.0,78.0,117.0,195.0,blue,hexagon
0.0,3.0,3.0,0.0,7.0,6.0,2570.236010997178,3.0,1.0,phase_3,,,,,176.0,4.0,44.0,132.0,264.0,88.0,220.0,176.0,white,cross
0.0,8.0,4.0,1.0,7.0,2.0,2775.416183998459,3.0,1.0,phase_3,,,,,156.0,4.0,39.0,156.0,117.0,78.0,234.0,195.0,orange,square
0.0,3.0,3.0,0.0,7.0,3.0,3100.031895999564,3.0,1.0,phase_3,,,,,196.0,4.0,294.0,147.0,196.0,98.0,49.0,245.0,white,cross
0.0,3.0,3.0,0.0,7.0,5.0,2765.2516050002305,3.0,1.0,phase_3,,,,,176.0,4.0,264.0,132.0,88.0,220.0,176.0,44.0,white,cross
0.0,2.0,2.0,0.0,7.0,3.0,2760.0962050019007,3.0,1.0,phase_3,,,,,132.0,3.0,88.0,264.0,132.0,220.0,44.0,176.0,gray,I
0.0,1.0,1.0,0.0,7.0,6.0,4499.846300997888,3.0,1.0,phase_3,,,,,117.0,3.0,234.0,156.0,39.0,78.0,195.0,117.0,yellow,diamond
0.0,1.0,1.0,0.0,7.0,3.0,3305.1777849977952,3.0,1.0,phase_3,,,,,170.0,5.0,136.0,68.0,170.0,34.0,204.0,102.0,yellow,diamond
0.0,5.0,1.0,1.0,7.0,5.0,3131.245502001548,3.0,1.0,phase_3,,,,,196.0,4.0,98.0,147.0,49.0,294.0,196.0,245.0,blue,hexagon
0.0,4.0,4.0,0.0,7.0,4.0,2156.1616899998626,3.0,1.0,phase_3,,,,,136.0,4.0,170.0,204.0,102.0,136.0,34.0,68.0,magenta,flipped triangle
0.0,5.0,1.0,1.0,7.0,2.0,3134.4644140008318,3.0,1.0,phase_3,,,,,162.0,3.0,108.0,162.0,54.0,270.0,216.0,324.0,blue,hexagon
0.0,7.0,3.0,1.0,7.0,1.0,3677.156058001856,3.0,1.0,phase_3,,,,,136.0,4.0,136.0,170.0,102.0,68.0,34.0,204.0,cyan,triangle
0.0,8.0,4.0,1.0,7.0,2.0,3525.578034998034,3.0,1.0,phase_3,,,,,216.0,4.0,162.0,216.0,270.0,324.0,54.0,108.0,orange,square
0.0,6.0,2.0,1.0,7.0,4.0,3289.8469249994378,4.0,1.0,phase_3,,,,,162.0,3.0,54.0,108.0,216.0,162.0,324.0,270.0,green,circle
0.0,3.0,3.0,0.0,7.0,4.0,2731.020412997168,4.0,1.0,phase_3,,,,,170.0,5.0,136.0,68.0,34.0,170.0,204.0,102.0,white,cross
0.0,8.0,4.0,1.0,7.0,6.0,3368.6166250008678,4.0,1.0,phase_3,,,,,147.0,3.0,98.0,49.0,245.0,196.0,294.0,147.0,orange,square
0.0,3.0,3.0,0.0,7.0,5.0,2652.7475049988425,4.0,1.0,phase_3,,,,,204.0,6.0,34.0,102.0,170.0,68.0,204.0,136.0,white,cross
0.0,8.0,4.0,1.0,7.0,4.0,3088.0848890010384,4.0,1.0,phase_3,,,,,170.0,5.0,136.0,102.0,34.0,170.0,204.0,68.0,orange,square
0.0,2.0,2.0,0.0,7.0,4.0,3063.547482001013,4.0,1.0,phase_3,,,,,195.0,5.0,78.0,117.0,156.0,195.0,39.0,234.0,gray,I
0.0,2.0,2.0,0.0,7.0,1.0,4252.842773999873,4.0,1.0,phase_3,,,,,170.0,5.0,170.0,68.0,204.0,34.0,136.0,102.0,gray,I
0.0,2.0,2.0,0.0,7.0,5.0,2440.173564998986,4.0,1.0,phase_3,,,,,196.0,4.0,147.0,245.0,98.0,294.0,196.0,49.0,gray,I
0.0,4.0,4.0,0.0,7.0,2.0,2383.826597000734,4.0,1.0,phase_3,,,,,162.0,3.0,270.0,162.0,54.0,216.0,108.0,324.0,magenta,flipped triangle
0.0,8.0,4.0,1.0,7.0,2.0,3349.18482500143,4.0,1.0,phase_3,,,,,170.0,5.0,136.0,170.0,34.0,68.0,102.0,204.0,orange,square
0.0,6.0,2.0,1.0,7.0,2.0,3342.9432560005807,4.0,1.0,phase_3,,,,,117.0,3.0,195.0,117.0,156.0,78.0,234.0,39.0,green,circle
0.0,3.0,3.0,0.0,7.0,5.0,2264.696406997245,4.0,1.0,phase_3,,,,,196.0,4.0,147.0,98.0,245.0,294.0,196.0,49.0,white,cross
0.0,7.0,3.0,1.0,7.0,3.0,4096.112426999753,4.0,1.0,phase_3,,,,,102.0,3.0,136.0,68.0,102.0,170.0,34.0,204.0,cyan,triangle
0.0,8.0,4.0,1.0,7.0,6.0,2268.284353998752,4.0,1.0,phase_3,,,,,162.0,3.0,324.0,54.0,270.0,216.0,108.0,162.0,orange,square
0.0,8.0,4.0,1.0,7.0,2.0,2732.3875460024283,4.0,1.0,phase_3,,,,,44.0,1.0,176.0,44.0,88.0,132.0,264.0,220.0,orange,square
0.0,6.0,2.0,1.0,7.0,6.0,2754.529732002993,4.0,1.0,phase_3,,,,,176.0,4.0,88.0,44.0,132.0,264.0,220.0,176.0,green,circle
0.0,6.0,2.0,1.0,7.0,3.0,2869.401151998318,4.0,1.0,phase_3,,,,,170.0,5.0,68.0,204.0,170.0,102.0,136.0,34.0,green,circle
0.0,5.0,1.0,1.0,7.0,3.0,3872.899715002859,4.0,1.0,phase_3,,,,,147.0,3.0,196.0,49.0,147.0,294.0,245.0,98.0,blue,hexagon
0.0,5.0,1.0,1.0,7.0,1.0,4576.784963999671,4.0,1.0,phase_3,,,,,220.0,5.0,220.0,176.0,132.0,44.0,88.0,264.0,blue,hexagon
0.0,1.0,1.0,0.0,7.0,6.0,3488.1293190010183,4.0,2.0,phase_3,,,,,136.0,4.0,102.0,34.0,204.0,68.0,170.0,136.0,yellow,diamond
