raw_reward_magnitude,stim_reward,stepwise_reward_magnitude,paired_with_stopping,quadrant,response,reaction_time,block,num_trial_presentations,which_part,stop_signal_trial_type,left_SSD,right_SSD,accuracy,chosen_bidding_amount,chosen_bidding_level,possible_bid_1,possible_bid_2,possible_bid_3,possible_bid_4,possible_bid_5,possible_bid_6,color_text,shape_text
206.0,7.0,3.0,1.0,4.0,4.0,478.5433359998023,1.0,1.0,part_1,,,,,,,,,,,,,gray,circle
0.0,4.0,0.0,0.0,3.0,3.0,535.2061959999901,1.0,1.0,part_1,,,,,,,,,,,,,blue,I
417.0,8.0,4.0,1.0,4.0,4.0,559.7131109998372,1.0,1.0,part_1,,,,,,,,,,,,,yellow,square
76.0,2.0,2.0,0.0,1.0,1.0,397.0698830000856,1.0,1.0,part_1,,,,,,,,,,,,,white,cross
43.0,1.0,1.0,0.0,3.0,3.0,397.9615279999962,1.0,1.0,part_1,,,,,,,,,,,,,green,triangle
103.0,6.0,2.0,1.0,4.0,4.0,416.0885080000298,1.0,1.0,part_1,,,,,,,,,,,,,magenta,diamond
79.0,6.0,2.0,1.0,4.0,4.0,390.7478619998983,1.0,1.0,part_1,,,,,,,,,,,,,magenta,diamond
0.0,3.0,0.0,0.0,1.0,1.0,369.4287479997911,1.0,1.0,part_1,,,,,,,,,,,,,orange,hexagon
0.0,6.0,0.0,1.0,4.0,4.0,435.0634549998631,1.0,1.0,part_1,,,,,,,,,,,,,magenta,diamond
175.0,3.0,3.0,0.0,3.0,3.0,459.6565120000377,1.0,1.0,part_1,,,,,,,,,,,,,orange,hexagon
124.0,6.0,2.0,1.0,4.0,4.0,409.3420649999189,1.0,1.0,part_1,,,,,,,,,,,,,magenta,diamond
383.0,4.0,4.0,0.0,3.0,3.0,480.5626869999742,1.0,1.0,part_1,,,,,,,,,,,,,blue,I
394.0,8.0,4.0,1.0,2.0,2.0,545.9148050001659,1.0,1.0,part_1,,,,,,,,,,,,,yellow,square
41.0,5.0,1.0,1.0,2.0,2.0,445.8679429999392,1.0,1.0,part_1,,,,,,,,,,,,,cyan,flipped triangle
0.0,6.0,0.0,1.0,1.0,1.0,512.7421310000955,1.0,1.0,part_1,,,,,,,,,,,,,magenta,diamond
0.0,6.0,0.0,1.0,2.0,2.0,429.2319389999193,1.0,1.0,part_1,,,,,,,,,,,,,magenta,diamond
205.0,3.0,3.0,0.0,1.0,1.0,461.5316290000919,1.0,1.0,part_1,,,,,,,,,,,,,orange,hexagon
77.0,6.0,2.0,1.0,2.0,2.0,427.8363579999222,1.0,1.0,part_1,,,,,,,,,,,,,magenta,diamond
401.0,8.0,4.0,1.0,3.0,3.0,347.7140099998905,1.0,1.0,part_1,,,,,,,,,,,,,yellow,square
51.0,5.0,1.0,1.0,3.0,3.0,396.3183819998903,1.0,1.0,part_1,,,,,,,,,,,,,cyan,flipped triangle
399.0,4.0,4.0,0.0,1.0,1.0,379.262959000016,1.0,1.0,part_1,,,,,,,,,,,,,blue,I
0.0,1.0,0.0,0.0,3.0,3.0,305.4634060001717,1.0,1.0,part_1,,,,,,,,,,,,,green,triangle
423.0,4.0,4.0,0.0,1.0,1.0,343.5906790000445,1.0,1.0,part_1,,,,,,,,,,,,,blue,I
88.0,2.0,2.0,0.0,1.0,1.0,453.1366710000384,1.0,1.0,part_1,,,,,,,,,,,,,white,cross
0.0,8.0,0.0,1.0,1.0,1.0,472.1751719998792,1.0,1.0,part_1,,,,,,,,,,,,,yellow,square
36.0,5.0,1.0,1.0,1.0,1.0,405.7952250000198,1.0,1.0,part_1,,,,,,,,,,,,,cyan,flipped triangle
119.0,2.0,2.0,0.0,2.0,2.0,410.1366470001721,1.0,1.0,part_1,,,,,,,,,,,,,white,cross
35.0,5.0,1.0,1.0,1.0,1.0,471.7183400000522,1.0,1.0,part_1,,,,,,,,,,,,,cyan,flipped triangle
41.0,1.0,1.0,0.0,4.0,4.0,466.1951569999019,1.0,1.0,part_1,,,,,,,,,,,,,green,triangle
119.0,6.0,2.0,1.0,3.0,3.0,406.6647250001551,1.0,1.0,part_1,,,,,,,,,,,,,magenta,diamond
52.0,1.0,1.0,0.0,1.0,1.0,489.2470610000146,1.0,1.0,part_1,,,,,,,,,,,,,green,triangle
0.0,3.0,0.0,0.0,1.0,1.0,513.8566670000273,1.0,1.0,part_1,,,,,,,,,,,,,orange,hexagon
0.0,1.0,0.0,0.0,1.0,1.0,410.4925949998232,1.0,1.0,part_1,,,,,,,,,,,,,green,triangle
193.0,3.0,3.0,0.0,1.0,1.0,404.0982149999763,1.0,1.0,part_1,,,,,,,,,,,,,orange,hexagon
72.0,1.0,1.0,0.0,3.0,3.0,385.6023539999569,1.0,1.0,part_1,,,,,,,,,,,,,green,triangle
107.0,2.0,2.0,0.0,3.0,3.0,417.151080999929,1.0,1.0,part_1,,,,,,,,,,,,,white,cross
198.0,7.0,3.0,1.0,4.0,4.0,552.4322509998001,1.0,1.0,part_1,,,,,,,,,,,,,gray,circle
0.0,3.0,0.0,0.0,4.0,4.0,483.3786219999183,1.0,1.0,part_1,,,,,,,,,,,,,orange,hexagon
0.0,6.0,0.0,1.0,4.0,4.0,402.2262800001499,1.0,1.0,part_1,,,,,,,,,,,,,magenta,diamond
0.0,2.0,0.0,0.0,1.0,1.0,389.7739120000096,1.0,1.0,part_1,,,,,,,,,,,,,white,cross
396.0,8.0,4.0,1.0,4.0,4.0,413.9252189997933,1.0,1.0,part_1,,,,,,,,,,,,,yellow,square
49.0,1.0,1.0,0.0,1.0,1.0,379.1960989999552,1.0,1.0,part_1,,,,,,,,,,,,,green,triangle
0.0,1.0,0.0,0.0,4.0,4.0,377.8980160000174,1.0,1.0,part_1,,,,,,,,,,,,,green,triangle
28.0,1.0,1.0,0.0,3.0,3.0,417.6345349999337,1.0,1.0,part_1,,,,,,,,,,,,,green,triangle
0.0,5.0,0.0,1.0,3.0,3.0,310.3305569998156,1.0,1.0,part_1,,,,,,,,,,,,,cyan,flipped triangle
185.0,7.0,3.0,1.0,2.0,2.0,421.7890989998523,1.0,1.0,part_1,,,,,,,,,,,,,gray,circle
68.0,1.0,1.0,0.0,4.0,4.0,376.2046490001012,1.0,1.0,part_1,,,,,,,,,,,,,green,triangle
415.0,4.0,4.0,0.0,2.0,2.0,522.5926940001955,1.0,1.0,part_1,,,,,,,,,,,,,blue,I
193.0,7.0,3.0,1.0,3.0,3.0,462.8458030001638,1.0,1.0,part_1,,,,,,,,,,,,,gray,circle
69.0,5.0,1.0,1.0,2.0,2.0,426.9155419999606,1.0,1.0,part_1,,,,,,,,,,,,,cyan,flipped triangle
192.0,7.0,3.0,1.0,1.0,1.0,426.6660129999309,1.0,1.0,part_1,,,,,,,,,,,,,gray,circle
70.0,5.0,1.0,1.0,4.0,4.0,371.8780980000247,1.0,1.0,part_1,,,,,,,,,,,,,cyan,flipped triangle
176.0,7.0,3.0,1.0,3.0,3.0,356.1862920000749,1.0,1.0,part_1,,,,,,,,,,,,,gray,circle
195.0,7.0,3.0,1.0,4.0,4.0,345.8160840000346,1.0,1.0,part_1,,,,,,,,,,,,,gray,circle
0.0,2.0,0.0,0.0,2.0,2.0,432.6071379998666,1.0,1.0,part_1,,,,,,,,,,,,,white,cross
221.0,7.0,3.0,1.0,3.0,3.0,440.0471040000866,1.0,1.0,part_1,,,,,,,,,,,,,gray,circle
221.0,3.0,3.0,0.0,3.0,3.0,358.0848169999626,1.0,1.0,part_1,,,,,,,,,,,,,orange,hexagon
27.0,1.0,1.0,0.0,2.0,2.0,459.1089860000465,1.0,1.0,part_1,,,,,,,,,,,,,green,triangle
0.0,3.0,0.0,0.0,2.0,2.0,444.0944410000611,1.0,1.0,part_1,,,,,,,,,,,,,orange,hexagon
406.0,4.0,4.0,0.0,1.0,1.0,439.4142480000482,1.0,1.0,part_1,,,,,,,,,,,,,blue,I
193.0,3.0,3.0,0.0,2.0,2.0,460.2070729999923,1.0,1.0,part_1,,,,,,,,,,,,,orange,hexagon
61.0,5.0,1.0,1.0,3.0,3.0,500.4579029998695,1.0,1.0,part_1,,,,,,,,,,,,,cyan,flipped triangle
104.0,6.0,2.0,1.0,2.0,2.0,508.0847100000483,1.0,1.0,part_1,,,,,,,,,,,,,magenta,diamond
418.0,4.0,4.0,0.0,2.0,2.0,570.3313149999758,1.0,1.0,part_1,,,,,,,,,,,,,blue,I
112.0,2.0,2.0,0.0,4.0,4.0,457.4341150000691,1.0,1.0,part_1,,,,,,,,,,,,,white,cross
218.0,7.0,3.0,1.0,1.0,1.0,476.9405440001719,1.0,1.0,part_1,,,,,,,,,,,,,gray,circle
0.0,6.0,0.0,1.0,4.0,4.0,671.2640569999166,1.0,1.0,part_1,,,,,,,,,,,,,magenta,diamond
414.0,4.0,4.0,0.0,4.0,4.0,488.7308669999584,1.0,1.0,part_1,,,,,,,,,,,,,blue,I
31.0,1.0,1.0,0.0,1.0,1.0,624.1495029998987,1.0,1.0,part_1,,,,,,,,,,,,,green,triangle
0.0,8.0,0.0,1.0,3.0,3.0,411.3531299999522,1.0,1.0,part_1,,,,,,,,,,,,,yellow,square
209.0,7.0,3.0,1.0,3.0,3.0,427.3306659999889,1.0,1.0,part_1,,,,,,,,,,,,,gray,circle
187.0,3.0,3.0,0.0,2.0,2.0,602.644416999965,1.0,1.0,part_1,,,,,,,,,,,,,orange,hexagon
57.0,1.0,1.0,0.0,2.0,2.0,376.3599579999663,1.0,1.0,part_1,,,,,,,,,,,,,green,triangle
218.0,3.0,3.0,0.0,2.0,2.0,510.54646800002956,1.0,1.0,part_1,,,,,,,,,,,,,orange,hexagon
107.0,2.0,2.0,0.0,4.0,4.0,681.0876519998601,1.0,1.0,part_1,,,,,,,,,,,,,white,cross
83.0,6.0,2.0,1.0,4.0,4.0,428.0075470001065,1.0,1.0,part_1,,,,,,,,,,,,,magenta,diamond
406.0,8.0,4.0,1.0,1.0,1.0,531.1752039999647,1.0,1.0,part_1,,,,,,,,,,,,,yellow,square
411.0,4.0,4.0,0.0,1.0,1.0,457.5335859999541,1.0,1.0,part_1,,,,,,,,,,,,,blue,I
0.0,8.0,0.0,1.0,2.0,2.0,396.8376830000579,1.0,1.0,part_1,,,,,,,,,,,,,yellow,square
398.0,8.0,4.0,1.0,2.0,2.0,507.44505300008313,1.0,1.0,part_1,,,,,,,,,,,,,yellow,square
193.0,3.0,3.0,0.0,4.0,4.0,638.2171239999934,1.0,1.0,part_1,,,,,,,,,,,,,orange,hexagon
64.0,1.0,1.0,0.0,2.0,2.0,495.2397860001838,1.0,1.0,part_1,,,,,,,,,,,,,green,triangle
101.0,2.0,2.0,0.0,1.0,1.0,411.4582199999859,1.0,1.0,part_1,,,,,,,,,,,,,white,cross
0.0,4.0,0.0,0.0,4.0,4.0,524.0661950001595,1.0,1.0,part_1,,,,,,,,,,,,,blue,I
79.0,2.0,2.0,0.0,3.0,3.0,451.8745860000308,1.0,1.0,part_1,,,,,,,,,,,,,white,cross
392.0,4.0,4.0,0.0,3.0,3.0,344.5353259999137,1.0,1.0,part_1,,,,,,,,,,,,,blue,I
104.0,2.0,2.0,0.0,2.0,2.0,610.8368099999097,1.0,1.0,part_1,,,,,,,,,,,,,white,cross
402.0,4.0,4.0,0.0,3.0,3.0,487.5670180001634,1.0,1.0,part_1,,,,,,,,,,,,,blue,I
0.0,7.0,0.0,1.0,1.0,1.0,544.2620119999901,1.0,1.0,part_1,,,,,,,,,,,,,gray,circle
112.0,6.0,2.0,1.0,3.0,3.0,562.1295050000299,1.0,1.0,part_1,,,,,,,,,,,,,magenta,diamond
59.0,1.0,1.0,0.0,4.0,4.0,383.259389999921,1.0,1.0,part_1,,,,,,,,,,,,,green,triangle
209.0,3.0,3.0,0.0,1.0,1.0,478.5872539998763,1.0,1.0,part_1,,,,,,,,,,,,,orange,hexagon
193.0,7.0,3.0,1.0,1.0,1.0,510.8611939999719,1.0,1.0,part_1,,,,,,,,,,,,,gray,circle
60.0,1.0,1.0,0.0,1.0,1.0,486.6433160000269,1.0,1.0,part_1,,,,,,,,,,,,,green,triangle
37.0,5.0,1.0,1.0,4.0,4.0,474.1918099998656,1.0,1.0,part_1,,,,,,,,,,,,,cyan,flipped triangle
392.0,4.0,4.0,0.0,3.0,3.0,539.1073939999842,1.0,1.0,part_1,,,,,,,,,,,,,blue,I
68.0,5.0,1.0,1.0,1.0,1.0,539.041872000098,1.0,1.0,part_1,,,,,,,,,,,,,cyan,flipped triangle
59.0,5.0,1.0,1.0,1.0,1.0,453.3667860000605,1.0,1.0,part_1,,,,,,,,,,,,,cyan,flipped triangle
100.0,6.0,2.0,1.0,3.0,3.0,487.3386130000199,1.0,1.0,part_1,,,,,,,,,,,,,magenta,diamond
210.0,3.0,3.0,0.0,3.0,3.0,446.5196549999746,1.0,1.0,part_1,,,,,,,,,,,,,orange,hexagon
411.0,8.0,4.0,1.0,4.0,4.0,453.6864770000193,2.0,1.0,part_1,,,,,,,,,,,,,yellow,square
200.0,3.0,3.0,0.0,3.0,3.0,472.2569269999894,2.0,1.0,part_1,,,,,,,,,,,,,orange,hexagon
215.0,3.0,3.0,0.0,4.0,4.0,473.2894520000172,2.0,1.0,part_1,,,,,,,,,,,,,orange,hexagon
0.0,6.0,0.0,1.0,1.0,1.0,466.9503089999125,2.0,1.0,part_1,,,,,,,,,,,,,magenta,diamond
203.0,7.0,3.0,1.0,3.0,3.0,424.071529999992,2.0,1.0,part_1,,,,,,,,,,,,,gray,circle
409.0,4.0,4.0,0.0,4.0,4.0,448.4464060001301,2.0,1.0,part_1,,,,,,,,,,,,,blue,I
54.0,1.0,1.0,0.0,1.0,1.0,427.5373650000347,2.0,1.0,part_1,,,,,,,,,,,,,green,triangle
381.0,4.0,4.0,0.0,4.0,4.0,472.5102109998715,2.0,1.0,part_1,,,,,,,,,,,,,blue,I
176.0,3.0,3.0,0.0,1.0,1.0,468.1036009999388,2.0,1.0,part_1,,,,,,,,,,,,,orange,hexagon
188.0,3.0,3.0,0.0,3.0,3.0,465.0680050001483,2.0,1.0,part_1,,,,,,,,,,,,,orange,hexagon
184.0,7.0,3.0,1.0,1.0,1.0,461.3078190000124,2.0,1.0,part_1,,,,,,,,,,,,,gray,circle
378.0,4.0,4.0,0.0,2.0,2.0,542.5106739999137,2.0,1.0,part_1,,,,,,,,,,,,,blue,I
199.0,7.0,3.0,1.0,1.0,1.0,525.9291009999743,2.0,1.0,part_1,,,,,,,,,,,,,gray,circle
109.0,2.0,2.0,0.0,3.0,3.0,437.4250309999752,2.0,1.0,part_1,,,,,,,,,,,,,white,cross
122.0,6.0,2.0,1.0,3.0,3.0,467.6731489998929,2.0,1.0,part_1,,,,,,,,,,,,,magenta,diamond
0.0,3.0,0.0,0.0,1.0,1.0,420.9445719998257,2.0,1.0,part_1,,,,,,,,,,,,,orange,hexagon
69.0,1.0,1.0,0.0,4.0,4.0,540.4308330000731,2.0,1.0,part_1,,,,,,,,,,,,,green,triangle
91.0,6.0,2.0,1.0,3.0,3.0,491.7936739998367,2.0,1.0,part_1,,,,,,,,,,,,,magenta,diamond
60.0,5.0,1.0,1.0,3.0,3.0,460.2764989999741,2.0,1.0,part_1,,,,,,,,,,,,,cyan,flipped triangle
101.0,6.0,2.0,1.0,4.0,4.0,457.7955740001016,2.0,1.0,part_1,,,,,,,,,,,,,magenta,diamond
406.0,8.0,4.0,1.0,3.0,3.0,455.1859570001397,2.0,1.0,part_1,,,,,,,,,,,,,yellow,square
220.0,3.0,3.0,0.0,2.0,2.0,673.9930490000461,2.0,1.0,part_1,,,,,,,,,,,,,orange,hexagon
398.0,8.0,4.0,1.0,1.0,1.0,449.1035010000814,2.0,1.0,part_1,,,,,,,,,,,,,yellow,square
0.0,2.0,0.0,0.0,2.0,2.0,712.5424010000643,2.0,1.0,part_1,,,,,,,,,,,,,white,cross
392.0,8.0,4.0,1.0,4.0,4.0,411.0633230000076,2.0,1.0,part_1,,,,,,,,,,,,,yellow,square
52.0,5.0,1.0,1.0,3.0,3.0,409.0539879998687,2.0,1.0,part_1,,,,,,,,,,,,,cyan,flipped triangle
398.0,4.0,4.0,0.0,1.0,1.0,380.2647610000349,2.0,1.0,part_1,,,,,,,,,,,,,blue,I
196.0,3.0,3.0,0.0,4.0,4.0,439.2417270000806,2.0,1.0,part_1,,,,,,,,,,,,,orange,hexagon
54.0,5.0,1.0,1.0,3.0,3.0,444.2694419999498,2.0,1.0,part_1,,,,,,,,,,,,,cyan,flipped triangle
49.0,5.0,1.0,1.0,4.0,4.0,558.8480919998347,2.0,1.0,part_1,,,,,,,,,,,,,cyan,flipped triangle
0.0,8.0,0.0,1.0,1.0,1.0,473.4637070000644,2.0,1.0,part_1,,,,,,,,,,,,,yellow,square
198.0,7.0,3.0,1.0,1.0,1.0,492.0772899999974,2.0,1.0,part_1,,,,,,,,,,,,,gray,circle
28.0,5.0,1.0,1.0,2.0,2.0,525.8744609998303,2.0,1.0,part_1,,,,,,,,,,,,,cyan,flipped triangle
28.0,1.0,1.0,0.0,1.0,1.0,485.2578150000681,2.0,1.0,part_1,,,,,,,,,,,,,green,triangle
107.0,6.0,2.0,1.0,3.0,3.0,449.6005179998974,2.0,1.0,part_1,,,,,,,,,,,,,magenta,diamond
0.0,4.0,0.0,0.0,3.0,3.0,434.352120000085,2.0,1.0,part_1,,,,,,,,,,,,,blue,I
28.0,5.0,1.0,1.0,4.0,4.0,476.4633559998401,2.0,1.0,part_1,,,,,,,,,,,,,cyan,flipped triangle
409.0,8.0,4.0,1.0,2.0,2.0,844.4466119999561,2.0,1.0,part_1,,,,,,,,,,,,,yellow,square
28.0,5.0,1.0,1.0,4.0,4.0,455.4246449999937,2.0,1.0,part_1,,,,,,,,,,,,,cyan,flipped triangle
0.0,5.0,0.0,1.0,4.0,4.0,514.0572720001728,2.0,1.0,part_1,,,,,,,,,,,,,cyan,flipped triangle
406.0,4.0,4.0,0.0,4.0,4.0,518.8627840000208,2.0,1.0,part_1,,,,,,,,,,,,,blue,I
117.0,2.0,2.0,0.0,3.0,3.0,620.4638480000995,2.0,1.0,part_1,,,,,,,,,,,,,white,cross
31.0,5.0,1.0,1.0,4.0,4.0,487.6842099999976,2.0,1.0,part_1,,,,,,,,,,,,,cyan,flipped triangle
217.0,7.0,3.0,1.0,2.0,2.0,496.5335529998356,2.0,1.0,part_1,,,,,,,,,,,,,gray,circle
72.0,5.0,1.0,1.0,2.0,2.0,646.808184000065,2.0,1.0,part_1,,,,,,,,,,,,,cyan,flipped triangle
105.0,6.0,2.0,1.0,2.0,2.0,518.7331170000107,2.0,1.0,part_1,,,,,,,,,,,,,magenta,diamond
0.0,8.0,0.0,1.0,3.0,3.0,513.7911459999032,2.0,1.0,part_1,,,,,,,,,,,,,yellow,square
42.0,5.0,1.0,1.0,3.0,3.0,430.0719919999665,2.0,1.0,part_1,,,,,,,,,,,,,cyan,flipped triangle
394.0,4.0,4.0,0.0,3.0,3.0,513.5507299999063,2.0,1.0,part_1,,,,,,,,,,,,,blue,I
199.0,3.0,3.0,0.0,3.0,3.0,469.1785210000034,2.0,1.0,part_1,,,,,,,,,,,,,orange,hexagon
0.0,3.0,0.0,0.0,4.0,4.0,568.7572660001479,2.0,1.0,part_1,,,,,,,,,,,,,orange,hexagon
0.0,2.0,0.0,0.0,4.0,4.0,726.6366800001833,2.0,1.0,part_1,,,,,,,,,,,,,white,cross
67.0,5.0,1.0,1.0,3.0,3.0,775.2800320001825,2.0,1.0,part_1,,,,,,,,,,,,,cyan,flipped triangle
417.0,4.0,4.0,0.0,4.0,4.0,789.2470349997893,2.0,1.0,part_1,,,,,,,,,,,,,blue,I
0.0,2.0,0.0,0.0,4.0,4.0,529.952190999893,2.0,1.0,part_1,,,,,,,,,,,,,white,cross
220.0,3.0,3.0,0.0,4.0,4.0,497.6099849998263,2.0,1.0,part_1,,,,,,,,,,,,,orange,hexagon
388.0,8.0,4.0,1.0,2.0,2.0,608.5434799999803,2.0,1.0,part_1,,,,,,,,,,,,,yellow,square
217.0,7.0,3.0,1.0,2.0,2.0,542.1287860001485,2.0,1.0,part_1,,,,,,,,,,,,,gray,circle
35.0,1.0,1.0,0.0,2.0,2.0,449.4915850000325,2.0,1.0,part_1,,,,,,,,,,,,,green,triangle
220.0,7.0,3.0,1.0,1.0,1.0,606.4256340000611,2.0,1.0,part_1,,,,,,,,,,,,,gray,circle
112.0,6.0,2.0,1.0,3.0,3.0,643.7042699999438,2.0,1.0,part_1,,,,,,,,,,,,,magenta,diamond
212.0,7.0,3.0,1.0,4.0,4.0,479.8431570000048,2.0,1.0,part_1,,,,,,,,,,,,,gray,circle
210.0,3.0,3.0,0.0,4.0,4.0,504.6351290000075,2.0,1.0,part_1,,,,,,,,,,,,,orange,hexagon
177.0,7.0,3.0,1.0,4.0,4.0,418.6637160000828,2.0,1.0,part_1,,,,,,,,,,,,,gray,circle
47.0,1.0,1.0,0.0,3.0,3.0,426.9954660001076,2.0,1.0,part_1,,,,,,,,,,,,,green,triangle
99.0,2.0,2.0,0.0,2.0,2.0,450.5702639999072,2.0,1.0,part_1,,,,,,,,,,,,,white,cross
70.0,1.0,1.0,0.0,1.0,1.0,564.3122189999303,2.0,1.0,part_1,,,,,,,,,,,,,green,triangle
187.0,7.0,3.0,1.0,3.0,3.0,358.5074899999654,2.0,1.0,part_1,,,,,,,,,,,,,gray,circle
34.0,5.0,1.0,1.0,2.0,2.0,486.8285009999908,2.0,1.0,part_1,,,,,,,,,,,,,cyan,flipped triangle
106.0,2.0,2.0,0.0,2.0,2.0,452.5243349999073,2.0,1.0,part_1,,,,,,,,,,,,,white,cross
381.0,8.0,4.0,1.0,1.0,1.0,546.4448119998906,2.0,1.0,part_1,,,,,,,,,,,,,yellow,square
37.0,1.0,1.0,0.0,3.0,3.0,452.1712180001032,2.0,1.0,part_1,,,,,,,,,,,,,green,triangle
98.0,2.0,2.0,0.0,2.0,2.0,453.6709439998958,2.0,1.0,part_1,,,,,,,,,,,,,white,cross
0.0,1.0,0.0,0.0,2.0,2.0,465.9749269999338,2.0,1.0,part_1,,,,,,,,,,,,,green,triangle
43.0,5.0,1.0,1.0,2.0,2.0,420.7061310000881,2.0,1.0,part_1,,,,,,,,,,,,,cyan,flipped triangle
75.0,2.0,2.0,0.0,1.0,1.0,505.57107700001325,2.0,1.0,part_1,,,,,,,,,,,,,white,cross
181.0,3.0,3.0,0.0,2.0,2.0,503.56095799998,2.0,1.0,part_1,,,,,,,,,,,,,orange,hexagon
109.0,6.0,2.0,1.0,1.0,1.0,564.1116849999435,2.0,1.0,part_1,,,,,,,,,,,,,magenta,diamond
64.0,5.0,1.0,1.0,4.0,4.0,500.6566940000994,2.0,1.0,part_1,,,,,,,,,,,,,cyan,flipped triangle
0.0,1.0,0.0,0.0,1.0,1.0,504.8346920000313,2.0,1.0,part_1,,,,,,,,,,,,,green,triangle
212.0,3.0,3.0,0.0,3.0,3.0,488.7593989999459,2.0,1.0,part_1,,,,,,,,,,,,,orange,hexagon
0.0,4.0,0.0,0.0,4.0,4.0,442.1030269998027,2.0,1.0,part_1,,,,,,,,,,,,,blue,I
42.0,1.0,1.0,0.0,4.0,4.0,573.4396370000923,2.0,1.0,part_1,,,,,,,,,,,,,green,triangle
208.0,7.0,3.0,1.0,2.0,2.0,596.8060119998881,2.0,1.0,part_1,,,,,,,,,,,,,gray,circle
99.0,6.0,2.0,1.0,2.0,2.0,567.2485069999311,2.0,1.0,part_1,,,,,,,,,,,,,magenta,diamond
417.0,4.0,4.0,0.0,2.0,2.0,426.4344749999509,2.0,1.0,part_1,,,,,,,,,,,,,blue,I
44.0,5.0,1.0,1.0,3.0,3.0,508.91483700002027,2.0,1.0,part_1,,,,,,,,,,,,,cyan,flipped triangle
47.0,5.0,1.0,1.0,3.0,3.0,473.6772240000846,2.0,1.0,part_1,,,,,,,,,,,,,cyan,flipped triangle
0.0,7.0,0.0,1.0,4.0,4.0,482.2692759998972,2.0,1.0,part_1,,,,,,,,,,,,,gray,circle
392.0,8.0,4.0,1.0,4.0,4.0,440.2526500000476,2.0,1.0,part_1,,,,,,,,,,,,,yellow,square
0.0,4.0,0.0,0.0,1.0,1.0,498.7642010000854,2.0,1.0,part_1,,,,,,,,,,,,,blue,I
96.0,2.0,2.0,0.0,3.0,3.0,408.6642070001289,2.0,1.0,part_1,,,,,,,,,,,,,white,cross
414.0,8.0,4.0,1.0,1.0,1.0,395.5765579999024,2.0,1.0,part_1,,,,,,,,,,,,,yellow,square
72.0,5.0,1.0,1.0,2.0,2.0,543.1711429998813,2.0,1.0,part_1,,,,,,,,,,,,,cyan,flipped triangle
382.0,8.0,4.0,1.0,3.0,3.0,529.02189800011,2.0,1.0,part_1,,,,,,,,,,,,,yellow,square
99.0,2.0,2.0,0.0,1.0,1.0,543.9736159999029,2.0,1.0,part_1,,,,,,,,,,,,,white,cross
0.0,7.0,0.0,1.0,1.0,1.0,594.5962979999422,2.0,1.0,part_1,,,,,,,,,,,,,gray,circle
215.0,7.0,3.0,1.0,2.0,2.0,555.2523080000356,2.0,1.0,part_1,,,,,,,,,,,,,gray,circle
198.0,3.0,3.0,0.0,4.0,4.0,561.7036920000373,2.0,1.0,part_1,,,,,,,,,,,,,orange,hexagon
27.0,5.0,1.0,1.0,1.0,1.0,468.3174690001124,2.0,1.0,part_1,,,,,,,,,,,,,cyan,flipped triangle
112.0,2.0,2.0,0.0,1.0,1.0,451.6071259999989,3.0,1.0,part_1,,,,,,,,,,,,,white,cross
68.0,1.0,1.0,0.0,2.0,2.0,476.5568980001262,3.0,1.0,part_1,,,,,,,,,,,,,green,triangle
118.0,6.0,2.0,1.0,2.0,2.0,520.1737460001823,3.0,1.0,part_1,,,,,,,,,,,,,magenta,diamond
412.0,8.0,4.0,1.0,3.0,3.0,364.7885020000103,3.0,1.0,part_1,,,,,,,,,,,,,yellow,square
213.0,3.0,3.0,0.0,1.0,1.0,399.83359200005,3.0,1.0,part_1,,,,,,,,,,,,,orange,hexagon
181.0,7.0,3.0,1.0,4.0,4.0,394.3420159998823,3.0,1.0,part_1,,,,,,,,,,,,,gray,circle
388.0,4.0,4.0,0.0,3.0,3.0,473.2218389999616,3.0,1.0,part_1,,,,,,,,,,,,,blue,I
94.0,6.0,2.0,1.0,1.0,1.0,368.4604980003314,3.0,1.0,part_1,,,,,,,,,,,,,magenta,diamond
88.0,2.0,2.0,0.0,4.0,4.0,411.3480470000468,3.0,1.0,part_1,,,,,,,,,,,,,white,cross
28.0,1.0,1.0,0.0,1.0,1.0,514.5471649998399,3.0,1.0,part_1,,,,,,,,,,,,,green,triangle
382.0,4.0,4.0,0.0,2.0,2.0,516.4872940003988,3.0,1.0,part_1,,,,,,,,,,,,,blue,I
389.0,4.0,4.0,0.0,2.0,2.0,502.71042799977295,3.0,1.0,part_1,,,,,,,,,,,,,blue,I
0.0,7.0,0.0,1.0,4.0,4.0,377.0100709998587,3.0,1.0,part_1,,,,,,,,,,,,,gray,circle
423.0,8.0,4.0,1.0,4.0,4.0,523.8962220000758,3.0,1.0,part_1,,,,,,,,,,,,,yellow,square
188.0,7.0,3.0,1.0,4.0,4.0,418.9923079998152,3.0,1.0,part_1,,,,,,,,,,,,,gray,circle
74.0,5.0,1.0,1.0,2.0,2.0,505.48429499986014,3.0,1.0,part_1,,,,,,,,,,,,,cyan,flipped triangle
74.0,1.0,1.0,0.0,3.0,3.0,615.8400129997972,3.0,1.0,part_1,,,,,,,,,,,,,green,triangle
213.0,7.0,3.0,1.0,1.0,1.0,425.8535290000509,3.0,1.0,part_1,,,,,,,,,,,,,gray,circle
377.0,8.0,4.0,1.0,2.0,2.0,435.484840999834,3.0,1.0,part_1,,,,,,,,,,,,,yellow,square
196.0,7.0,3.0,1.0,1.0,1.0,368.6896489998617,3.0,1.0,part_1,,,,,,,,,,,,,gray,circle
175.0,7.0,3.0,1.0,3.0,3.0,503.0990489999567,3.0,1.0,part_1,,,,,,,,,,,,,gray,circle
55.0,1.0,1.0,0.0,1.0,1.0,409.3651369998952,3.0,1.0,part_1,,,,,,,,,,,,,green,triangle
43.0,5.0,1.0,1.0,4.0,4.0,462.4162149998483,3.0,1.0,part_1,,,,,,,,,,,,,cyan,flipped triangle
60.0,1.0,1.0,0.0,2.0,2.0,549.3203139999423,3.0,1.0,part_1,,,,,,,,,,,,,green,triangle
0.0,1.0,0.0,0.0,1.0,1.0,440.1669650001167,3.0,1.0,part_1,,,,,,,,,,,,,green,triangle
413.0,8.0,4.0,1.0,2.0,2.0,490.0640880000537,3.0,1.0,part_1,,,,,,,,,,,,,yellow,square
0.0,5.0,0.0,1.0,2.0,2.0,883.4710789997189,3.0,1.0,part_1,,,,,,,,,,,,,cyan,flipped triangle
122.0,2.0,2.0,0.0,1.0,1.0,425.7919280003079,3.0,1.0,part_1,,,,,,,,,,,,,white,cross
384.0,4.0,4.0,0.0,3.0,3.0,557.525940999767,3.0,1.0,part_1,,,,,,,,,,,,,blue,I
47.0,5.0,1.0,1.0,1.0,1.0,499.6493409998948,3.0,1.0,part_1,,,,,,,,,,,,,cyan,flipped triangle
392.0,8.0,4.0,1.0,1.0,1.0,442.6325250001355,3.0,1.0,part_1,,,,,,,,,,,,,yellow,square
0.0,5.0,0.0,1.0,3.0,3.0,398.5193260000415,3.0,1.0,part_1,,,,,,,,,,,,,cyan,flipped triangle
0.0,6.0,0.0,1.0,1.0,1.0,434.6371149999868,3.0,1.0,part_1,,,,,,,,,,,,,magenta,diamond
0.0,1.0,0.0,0.0,3.0,3.0,384.8853489998873,3.0,1.0,part_1,,,,,,,,,,,,,green,triangle
403.0,4.0,4.0,0.0,3.0,3.0,451.7634519997955,3.0,1.0,part_1,,,,,,,,,,,,,blue,I
0.0,7.0,0.0,1.0,3.0,3.0,517.1980719997009,3.0,1.0,part_1,,,,,,,,,,,,,gray,circle
379.0,8.0,4.0,1.0,1.0,1.0,557.6187409997146,3.0,1.0,part_1,,,,,,,,,,,,,yellow,square
398.0,8.0,4.0,1.0,3.0,3.0,467.9051439998147,3.0,1.0,part_1,,,,,,,,,,,,,yellow,square
217.0,3.0,3.0,0.0,2.0,2.0,509.78905900001337,3.0,1.0,part_1,,,,,,,,,,,,,orange,hexagon
124.0,2.0,2.0,0.0,4.0,4.0,442.249436000111,3.0,1.0,part_1,,,,,,,,,,,,,white,cross
403.0,8.0,4.0,1.0,4.0,4.0,439.1233920000559,3.0,1.0,part_1,,,,,,,,,,,,,yellow,square
203.0,3.0,3.0,0.0,4.0,4.0,542.9285709997203,3.0,1.0,part_1,,,,,,,,,,,,,orange,hexagon
413.0,4.0,4.0,0.0,2.0,2.0,474.4010119998165,3.0,1.0,part_1,,,,,,,,,,,,,blue,I
0.0,7.0,0.0,1.0,3.0,3.0,436.0277020000467,3.0,1.0,part_1,,,,,,,,,,,,,gray,circle
0.0,4.0,0.0,0.0,3.0,3.0,394.7317739998652,3.0,1.0,part_1,,,,,,,,,,,,,blue,I
83.0,2.0,2.0,0.0,1.0,1.0,489.9312509996889,3.0,1.0,part_1,,,,,,,,,,,,,white,cross
0.0,3.0,0.0,0.0,4.0,4.0,404.9924820001251,3.0,1.0,part_1,,,,,,,,,,,,,orange,hexagon
180.0,3.0,3.0,0.0,2.0,2.0,465.0544500000251,3.0,1.0,part_1,,,,,,,,,,,,,orange,hexagon
0.0,2.0,0.0,0.0,3.0,3.0,523.8603440002407,3.0,1.0,part_1,,,,,,,,,,,,,white,cross
224.0,7.0,3.0,1.0,3.0,3.0,429.4073429996388,3.0,1.0,part_1,,,,,,,,,,,,,gray,circle
93.0,2.0,2.0,0.0,3.0,3.0,517.0640910000657,3.0,1.0,part_1,,,,,,,,,,,,,white,cross
411.0,4.0,4.0,0.0,1.0,1.0,402.9516209998292,3.0,1.0,part_1,,,,,,,,,,,,,blue,I
389.0,8.0,4.0,1.0,3.0,3.0,338.0209789997934,3.0,1.0,part_1,,,,,,,,,,,,,yellow,square
106.0,6.0,2.0,1.0,1.0,1.0,504.7632490000069,3.0,1.0,part_1,,,,,,,,,,,,,magenta,diamond
198.0,7.0,3.0,1.0,2.0,2.0,452.1008779997828,3.0,1.0,part_1,,,,,,,,,,,,,gray,circle
417.0,8.0,4.0,1.0,4.0,4.0,415.0906879999638,3.0,1.0,part_1,,,,,,,,,,,,,yellow,square
177.0,3.0,3.0,0.0,1.0,1.0,436.8139779999183,3.0,1.0,part_1,,,,,,,,,,,,,orange,hexagon
102.0,2.0,2.0,0.0,3.0,3.0,440.2031420004277,3.0,1.0,part_1,,,,,,,,,,,,,white,cross
82.0,6.0,2.0,1.0,1.0,1.0,425.6255949999286,3.0,1.0,part_1,,,,,,,,,,,,,magenta,diamond
0.0,7.0,0.0,1.0,1.0,1.0,462.6314490001277,3.0,1.0,part_1,,,,,,,,,,,,,gray,circle
210.0,7.0,3.0,1.0,2.0,2.0,559.8451089999799,3.0,1.0,part_1,,,,,,,,,,,,,gray,circle
41.0,5.0,1.0,1.0,4.0,4.0,527.0712050000839,3.0,1.0,part_1,,,,,,,,,,,,,cyan,flipped triangle
0.0,3.0,0.0,0.0,3.0,3.0,735.5966420000186,3.0,1.0,part_1,,,,,,,,,,,,,orange,hexagon
382.0,4.0,4.0,0.0,1.0,1.0,448.8867539998864,3.0,1.0,part_1,,,,,,,,,,,,,blue,I
411.0,8.0,4.0,1.0,4.0,4.0,468.3939559999999,3.0,1.0,part_1,,,,,,,,,,,,,yellow,square
78.0,6.0,2.0,1.0,1.0,1.0,515.5143470001349,3.0,1.0,part_1,,,,,,,,,,,,,magenta,diamond
412.0,4.0,4.0,0.0,3.0,3.0,471.3848159999543,3.0,1.0,part_1,,,,,,,,,,,,,blue,I
185.0,3.0,3.0,0.0,4.0,4.0,486.4192269997147,3.0,1.0,part_1,,,,,,,,,,,,,orange,hexagon
115.0,6.0,2.0,1.0,3.0,3.0,561.9808229998853,3.0,1.0,part_1,,,,,,,,,,,,,magenta,diamond
117.0,6.0,2.0,1.0,4.0,4.0,588.4604120001313,3.0,1.0,part_1,,,,,,,,,,,,,magenta,diamond
199.0,7.0,3.0,1.0,2.0,2.0,747.554177999973,3.0,1.0,part_1,,,,,,,,,,,,,gray,circle
41.0,5.0,1.0,1.0,2.0,2.0,591.196982999918,3.0,1.0,part_1,,,,,,,,,,,,,cyan,flipped triangle
116.0,2.0,2.0,0.0,4.0,4.0,524.6215439997286,3.0,1.0,part_1,,,,,,,,,,,,,white,cross
0.0,4.0,0.0,0.0,1.0,1.0,487.7330479998818,3.0,1.0,part_1,,,,,,,,,,,,,blue,I
102.0,6.0,2.0,1.0,2.0,2.0,447.6304449999588,3.0,1.0,part_1,,,,,,,,,,,,,magenta,diamond
0.0,5.0,0.0,1.0,4.0,4.0,549.2920669998966,3.0,1.0,part_1,,,,,,,,,,,,,cyan,flipped triangle
392.0,4.0,4.0,0.0,4.0,4.0,500.81503299998076,3.0,1.0,part_1,,,,,,,,,,,,,blue,I
383.0,8.0,4.0,1.0,3.0,3.0,736.1269019997962,3.0,1.0,part_1,,,,,,,,,,,,,yellow,square
88.0,6.0,2.0,1.0,1.0,1.0,415.100399000039,3.0,1.0,part_1,,,,,,,,,,,,,magenta,diamond
399.0,8.0,4.0,1.0,4.0,4.0,522.9818660000092,3.0,1.0,part_1,,,,,,,,,,,,,yellow,square
0.0,7.0,0.0,1.0,2.0,2.0,444.0439999998489,3.0,1.0,part_1,,,,,,,,,,,,,gray,circle
0.0,6.0,0.0,1.0,2.0,2.0,532.7884729999823,3.0,1.0,part_1,,,,,,,,,,,,,magenta,diamond
0.0,1.0,0.0,0.0,3.0,3.0,404.122943999937,3.0,1.0,part_1,,,,,,,,,,,,,green,triangle
208.0,3.0,3.0,0.0,2.0,2.0,538.0334820001735,3.0,1.0,part_1,,,,,,,,,,,,,orange,hexagon
180.0,7.0,3.0,1.0,3.0,3.0,547.6415859998269,3.0,1.0,part_1,,,,,,,,,,,,,gray,circle
55.0,5.0,1.0,1.0,3.0,3.0,498.7628429998949,3.0,1.0,part_1,,,,,,,,,,,,,cyan,flipped triangle
0.0,5.0,0.0,1.0,2.0,2.0,618.719596000119,3.0,1.0,part_1,,,,,,,,,,,,,cyan,flipped triangle
0.0,1.0,0.0,0.0,4.0,4.0,618.4066580003673,3.0,1.0,part_1,,,,,,,,,,,,,green,triangle
210.0,7.0,3.0,1.0,3.0,3.0,474.8487609999756,3.0,1.0,part_1,,,,,,,,,,,,,gray,circle
0.0,8.0,0.0,1.0,1.0,1.0,534.0701410000293,3.0,1.0,part_1,,,,,,,,,,,,,yellow,square
393.0,8.0,4.0,1.0,2.0,2.0,490.2150799998708,3.0,1.0,part_1,,,,,,,,,,,,,yellow,square
67.0,1.0,1.0,0.0,2.0,2.0,568.2784750001701,3.0,1.0,part_1,,,,,,,,,,,,,green,triangle
189.0,7.0,3.0,1.0,4.0,4.0,580.6312800000342,3.0,1.0,part_1,,,,,,,,,,,,,gray,circle
57.0,5.0,1.0,1.0,1.0,1.0,497.7312770001845,3.0,1.0,part_1,,,,,,,,,,,,,cyan,flipped triangle
413.0,4.0,4.0,0.0,1.0,1.0,499.6667230002458,3.0,1.0,part_1,,,,,,,,,,,,,blue,I
110.0,2.0,2.0,0.0,1.0,1.0,430.1924639999015,3.0,1.0,part_1,,,,,,,,,,,,,white,cross
61.0,1.0,1.0,0.0,4.0,4.0,507.1853400004329,3.0,2.0,part_1,,,,,,,,,,,,,green,triangle
0.0,6.0,0.0,1.0,1.0,1.0,495.6596970000646,3.0,1.0,part_1,,,,,,,,,,,,,magenta,diamond
105.0,2.0,2.0,0.0,2.0,2.0,683.9047390003543,3.0,1.0,part_1,,,,,,,,,,,,,white,cross
193.0,7.0,3.0,1.0,1.0,1.0,465.0441980002142,3.0,1.0,part_1,,,,,,,,,,,,,gray,circle
72.0,1.0,1.0,0.0,2.0,2.0,533.3740029996079,4.0,1.0,part_1,,,,,,,,,,,,,green,triangle
51.0,1.0,1.0,0.0,1.0,1.0,462.5245550000727,4.0,1.0,part_1,,,,,,,,,,,,,green,triangle
0.0,2.0,0.0,0.0,2.0,2.0,546.9189959999312,4.0,1.0,part_1,,,,,,,,,,,,,white,cross
0.0,6.0,0.0,1.0,4.0,4.0,500.40439499980494,4.0,1.0,part_1,,,,,,,,,,,,,magenta,diamond
396.0,4.0,4.0,0.0,3.0,3.0,439.6742789999734,4.0,1.0,part_1,,,,,,,,,,,,,blue,I
109.0,6.0,2.0,1.0,2.0,2.0,550.3931999996894,4.0,1.0,part_1,,,,,,,,,,,,,magenta,diamond
77.0,2.0,2.0,0.0,3.0,3.0,474.4460240003718,4.0,1.0,part_1,,,,,,,,,,,,,white,cross
82.0,6.0,2.0,1.0,4.0,4.0,481.0944729997572,4.0,1.0,part_1,,,,,,,,,,,,,magenta,diamond
418.0,8.0,4.0,1.0,2.0,2.0,483.0438139997568,4.0,1.0,part_1,,,,,,,,,,,,,yellow,square
398.0,4.0,4.0,0.0,4.0,4.0,521.7708879999918,4.0,1.0,part_1,,,,,,,,,,,,,blue,I
103.0,2.0,2.0,0.0,4.0,4.0,462.2747019998314,4.0,1.0,part_1,,,,,,,,,,,,,white,cross
43.0,1.0,1.0,0.0,3.0,3.0,458.1383820000155,4.0,1.0,part_1,,,,,,,,,,,,,green,triangle
382.0,8.0,4.0,1.0,1.0,1.0,406.117009999889,4.0,1.0,part_1,,,,,,,,,,,,,yellow,square
70.0,1.0,1.0,0.0,2.0,2.0,465.9150769998632,4.0,1.0,part_1,,,,,,,,,,,,,green,triangle
96.0,6.0,2.0,1.0,1.0,1.0,473.6383509998632,4.0,1.0,part_1,,,,,,,,,,,,,magenta,diamond
420.0,8.0,4.0,1.0,1.0,1.0,541.6172149998602,4.0,1.0,part_1,,,,,,,,,,,,,yellow,square
36.0,1.0,1.0,0.0,4.0,4.0,509.5835949996399,4.0,1.0,part_1,,,,,,,,,,,,,green,triangle
413.0,8.0,4.0,1.0,2.0,2.0,447.9277000000365,4.0,1.0,part_1,,,,,,,,,,,,,yellow,square
0.0,2.0,0.0,0.0,4.0,4.0,393.7146439998287,4.0,1.0,part_1,,,,,,,,,,,,,white,cross
28.0,5.0,1.0,1.0,2.0,2.0,452.6493819998904,4.0,1.0,part_1,,,,,,,,,,,,,cyan,flipped triangle
60.0,5.0,1.0,1.0,1.0,1.0,495.9204950000639,4.0,1.0,part_1,,,,,,,,,,,,,cyan,flipped triangle
70.0,5.0,1.0,1.0,1.0,1.0,470.0165160002143,4.0,1.0,part_1,,,,,,,,,,,,,cyan,flipped triangle
78.0,2.0,2.0,0.0,1.0,1.0,414.0617419998307,4.0,1.0,part_1,,,,,,,,,,,,,white,cross
68.0,5.0,1.0,1.0,1.0,1.0,435.9364590000041,4.0,1.0,part_1,,,,,,,,,,,,,cyan,flipped triangle
415.0,8.0,4.0,1.0,1.0,1.0,474.3639719999919,4.0,1.0,part_1,,,,,,,,,,,,,yellow,square
0.0,2.0,0.0,0.0,2.0,2.0,574.168880000343,4.0,1.0,part_1,,,,,,,,,,,,,white,cross
51.0,5.0,1.0,1.0,4.0,4.0,684.4020109997473,4.0,1.0,part_1,,,,,,,,,,,,,cyan,flipped triangle
206.0,7.0,3.0,1.0,2.0,2.0,507.1812520000094,4.0,1.0,part_1,,,,,,,,,,,,,gray,circle
384.0,8.0,4.0,1.0,3.0,3.0,484.4935299997814,4.0,1.0,part_1,,,,,,,,,,,,,yellow,square
0.0,8.0,0.0,1.0,4.0,4.0,472.2352809999393,4.0,1.0,part_1,,,,,,,,,,,,,yellow,square
34.0,1.0,1.0,0.0,2.0,2.0,433.0739990000438,4.0,1.0,part_1,,,,,,,,,,,,,green,triangle
44.0,1.0,1.0,0.0,4.0,4.0,472.2603350001009,4.0,1.0,part_1,,,,,,,,,,,,,green,triangle
88.0,6.0,2.0,1.0,2.0,2.0,331.2897410000914,4.0,1.0,part_1,,,,,,,,,,,,,magenta,diamond
0.0,4.0,0.0,0.0,4.0,4.0,467.0317879999857,4.0,1.0,part_1,,,,,,,,,,,,,blue,I
118.0,2.0,2.0,0.0,3.0,3.0,365.9827379997296,4.0,1.0,part_1,,,,,,,,,,,,,white,cross
82.0,2.0,2.0,0.0,3.0,3.0,411.0791699999936,4.0,1.0,part_1,,,,,,,,,,,,,white,cross
0.0,8.0,0.0,1.0,1.0,1.0,495.3753189997769,4.0,1.0,part_1,,,,,,,,,,,,,yellow,square
0.0,2.0,0.0,0.0,3.0,3.0,426.6448129997116,4.0,1.0,part_1,,,,,,,,,,,,,white,cross
0.0,3.0,0.0,0.0,2.0,2.0,479.8031290001745,4.0,1.0,part_1,,,,,,,,,,,,,orange,hexagon
199.0,3.0,3.0,0.0,1.0,1.0,445.719543999985,4.0,1.0,part_1,,,,,,,,,,,,,orange,hexagon
378.0,8.0,4.0,1.0,1.0,1.0,530.5634719998125,4.0,1.0,part_1,,,,,,,,,,,,,yellow,square
98.0,6.0,2.0,1.0,3.0,3.0,612.5990690002254,4.0,1.0,part_1,,,,,,,,,,,,,magenta,diamond
115.0,2.0,2.0,0.0,2.0,2.0,544.3320499998663,4.0,1.0,part_1,,,,,,,,,,,,,white,cross
116.0,6.0,2.0,1.0,1.0,1.0,447.0434099998783,4.0,1.0,part_1,,,,,,,,,,,,,magenta,diamond
206.0,3.0,3.0,0.0,2.0,2.0,568.6810880001758,4.0,1.0,part_1,,,,,,,,,,,,,orange,hexagon
393.0,4.0,4.0,0.0,1.0,1.0,514.4443740000497,4.0,1.0,part_1,,,,,,,,,,,,,blue,I
206.0,3.0,3.0,0.0,2.0,2.0,453.1895979998808,4.0,1.0,part_1,,,,,,,,,,,,,orange,hexagon
205.0,7.0,3.0,1.0,4.0,4.0,528.0860809998558,4.0,1.0,part_1,,,,,,,,,,,,,gray,circle
0.0,4.0,0.0,0.0,2.0,2.0,490.9146910003983,4.0,1.0,part_1,,,,,,,,,,,,,blue,I
0.0,7.0,0.0,1.0,1.0,1.0,651.9765640000514,4.0,1.0,part_1,,,,,,,,,,,,,gray,circle
51.0,1.0,1.0,0.0,3.0,3.0,640.746087000025,4.0,1.0,part_1,,,,,,,,,,,,,green,triangle
94.0,2.0,2.0,0.0,4.0,4.0,702.2705720000886,4.0,1.0,part_1,,,,,,,,,,,,,white,cross
0.0,7.0,0.0,1.0,1.0,1.0,588.8529530002415,4.0,1.0,part_1,,,,,,,,,,,,,gray,circle
110.0,2.0,2.0,0.0,4.0,4.0,636.9471179996253,4.0,1.0,part_1,,,,,,,,,,,,,white,cross
110.0,6.0,2.0,1.0,3.0,3.0,544.429890000174,4.0,1.0,part_1,,,,,,,,,,,,,magenta,diamond
0.0,3.0,0.0,0.0,2.0,2.0,546.009832999971,4.0,1.0,part_1,,,,,,,,,,,,,orange,hexagon
220.0,7.0,3.0,1.0,2.0,2.0,473.7926919997335,4.0,1.0,part_1,,,,,,,,,,,,,gray,circle
98.0,2.0,2.0,0.0,2.0,2.0,456.8073069999627,4.0,1.0,part_1,,,,,,,,,,,,,white,cross
0.0,5.0,0.0,1.0,1.0,1.0,421.8200630002684,4.0,1.0,part_1,,,,,,,,,,,,,cyan,flipped triangle
110.0,6.0,2.0,1.0,4.0,4.0,501.81739400022707,4.0,1.0,part_1,,,,,,,,,,,,,magenta,diamond
0.0,5.0,0.0,1.0,2.0,2.0,461.4586650000092,4.0,1.0,part_1,,,,,,,,,,,,,cyan,flipped triangle
28.0,1.0,1.0,0.0,4.0,4.0,483.042648999799,4.0,1.0,part_1,,,,,,,,,,,,,green,triangle
0.0,8.0,0.0,1.0,1.0,1.0,652.1709940002438,4.0,1.0,part_1,,,,,,,,,,,,,yellow,square
192.0,3.0,3.0,0.0,3.0,3.0,611.5366599997287,4.0,1.0,part_1,,,,,,,,,,,,,orange,hexagon
0.0,5.0,0.0,1.0,4.0,4.0,475.4626390003977,4.0,1.0,part_1,,,,,,,,,,,,,cyan,flipped triangle
189.0,3.0,3.0,0.0,1.0,1.0,487.9761520001011,4.0,1.0,part_1,,,,,,,,,,,,,orange,hexagon
402.0,8.0,4.0,1.0,3.0,3.0,629.4079799999963,4.0,1.0,part_1,,,,,,,,,,,,,yellow,square
41.0,1.0,1.0,0.0,3.0,3.0,461.9705899999644,4.0,1.0,part_1,,,,,,,,,,,,,green,triangle
76.0,6.0,2.0,1.0,4.0,4.0,468.9503699996749,4.0,1.0,part_1,,,,,,,,,,,,,magenta,diamond
198.0,3.0,3.0,0.0,4.0,4.0,418.2895379999536,4.0,1.0,part_1,,,,,,,,,,,,,orange,hexagon
107.0,6.0,2.0,1.0,2.0,2.0,531.2341359999664,4.0,1.0,part_1,,,,,,,,,,,,,magenta,diamond
47.0,1.0,1.0,0.0,3.0,3.0,565.2345290000085,4.0,1.0,part_1,,,,,,,,,,,,,green,triangle
224.0,3.0,3.0,0.0,4.0,4.0,521.2384859996746,4.0,1.0,part_1,,,,,,,,,,,,,orange,hexagon
392.0,8.0,4.0,1.0,2.0,2.0,488.9531660001012,4.0,1.0,part_1,,,,,,,,,,,,,yellow,square
91.0,2.0,2.0,0.0,4.0,4.0,476.4095460000135,4.0,1.0,part_1,,,,,,,,,,,,,white,cross
41.0,1.0,1.0,0.0,4.0,4.0,495.3546679998908,4.0,1.0,part_1,,,,,,,,,,,,,green,triangle
184.0,3.0,3.0,0.0,3.0,3.0,509.9936589999743,4.0,1.0,part_1,,,,,,,,,,,,,orange,hexagon
99.0,6.0,2.0,1.0,1.0,1.0,587.8965530000642,4.0,1.0,part_1,,,,,,,,,,,,,magenta,diamond
0.0,8.0,0.0,1.0,1.0,1.0,577.2680340000989,4.0,1.0,part_1,,,,,,,,,,,,,yellow,square
0.0,1.0,0.0,0.0,4.0,4.0,540.3348049999295,4.0,1.0,part_1,,,,,,,,,,,,,green,triangle
420.0,4.0,4.0,0.0,1.0,1.0,503.99916800006395,4.0,1.0,part_1,,,,,,,,,,,,,blue,I
0.0,4.0,0.0,0.0,2.0,2.0,542.3973229999319,4.0,1.0,part_1,,,,,,,,,,,,,blue,I
377.0,4.0,4.0,0.0,4.0,4.0,652.3567819999698,4.0,1.0,part_1,,,,,,,,,,,,,blue,I
401.0,4.0,4.0,0.0,2.0,2.0,556.2150419996215,4.0,1.0,part_1,,,,,,,,,,,,,blue,I
403.0,8.0,4.0,1.0,3.0,3.0,610.0730929997553,4.0,1.0,part_1,,,,,,,,,,,,,yellow,square
82.0,2.0,2.0,0.0,2.0,2.0,661.1233980001998,4.0,1.0,part_1,,,,,,,,,,,,,white,cross
200.0,7.0,3.0,1.0,4.0,4.0,668.4685370000807,4.0,1.0,part_1,,,,,,,,,,,,,gray,circle
403.0,4.0,4.0,0.0,4.0,4.0,591.0107070003505,4.0,1.0,part_1,,,,,,,,,,,,,blue,I
100.0,2.0,2.0,0.0,4.0,4.0,574.6983149997504,4.0,1.0,part_1,,,,,,,,,,,,,white,cross
93.0,6.0,2.0,1.0,4.0,4.0,472.6953720000892,4.0,1.0,part_1,,,,,,,,,,,,,magenta,diamond
392.0,4.0,4.0,0.0,2.0,2.0,567.2162670002763,4.0,1.0,part_1,,,,,,,,,,,,,blue,I
379.0,4.0,4.0,0.0,4.0,4.0,645.6487620002918,4.0,1.0,part_1,,,,,,,,,,,,,blue,I
75.0,6.0,2.0,1.0,2.0,2.0,538.254439999946,4.0,1.0,part_1,,,,,,,,,,,,,magenta,diamond
109.0,2.0,2.0,0.0,2.0,2.0,435.515736999605,4.0,1.0,part_1,,,,,,,,,,,,,white,cross
198.0,3.0,3.0,0.0,3.0,3.0,568.9727900003163,4.0,1.0,part_1,,,,,,,,,,,,,orange,hexagon
217.0,3.0,3.0,0.0,1.0,1.0,393.5645639999166,4.0,1.0,part_1,,,,,,,,,,,,,orange,hexagon
98.0,6.0,2.0,1.0,1.0,1.0,546.8453329999647,4.0,1.0,part_1,,,,,,,,,,,,,magenta,diamond
195.0,3.0,3.0,0.0,1.0,1.0,474.8186500000884,4.0,1.0,part_1,,,,,,,,,,,,,orange,hexagon
398.0,4.0,4.0,0.0,2.0,2.0,621.2494549999974,4.0,1.0,part_1,,,,,,,,,,,,,blue,I
0.0,5.0,0.0,1.0,1.0,1.0,641.3421219999691,4.0,1.0,part_1,,,,,,,,,,,,,cyan,flipped triangle
0.0,3.0,3.0,0.0,6.0,6.0,661.4107519999379,1.0,0.0,part_2,go,250.0,250.0,1.0,,,,,,,,,orange,hexagon
0.0,5.0,1.0,1.0,6.0,0.0,0.0,1.0,0.0,part_2,stop,250.0,250.0,4.0,,,,,,,,,cyan,flipped triangle
0.0,2.0,2.0,0.0,5.0,5.0,820.6619059997138,1.0,0.0,part_2,go,250.0,300.0,1.0,,,,,,,,,white,cross
0.0,8.0,4.0,1.0,5.0,0.0,0.0,1.0,0.0,part_2,stop,250.0,300.0,4.0,,,,,,,,,yellow,square
0.0,1.0,1.0,0.0,6.0,6.0,560.4889229998662,1.0,0.0,part_2,go,300.0,300.0,1.0,,,,,,,,,green,triangle
0.0,2.0,2.0,0.0,6.0,6.0,818.1122369996956,1.0,0.0,part_2,go,300.0,300.0,1.0,,,,,,,,,white,cross
0.0,4.0,4.0,0.0,5.0,5.0,798.8116789997548,1.0,0.0,part_2,go,300.0,300.0,1.0,,,,,,,,,blue,I
0.0,2.0,2.0,0.0,5.0,5.0,800.862190999851,1.0,0.0,part_2,go,300.0,300.0,1.0,,,,,,,,,white,cross
0.0,7.0,3.0,1.0,5.0,5.0,898.811422000108,1.0,0.0,part_2,go,300.0,300.0,1.0,,,,,,,,,gray,circle
0.0,5.0,1.0,1.0,5.0,5.0,884.0849339999295,1.0,0.0,part_2,go,300.0,300.0,1.0,,,,,,,,,cyan,flipped triangle
0.0,6.0,2.0,1.0,5.0,0.0,0.0,1.0,0.0,part_2,stop,300.0,300.0,4.0,,,,,,,,,magenta,diamond
0.0,5.0,1.0,1.0,6.0,0.0,0.0,1.0,0.0,part_2,stop,350.0,300.0,4.0,,,,,,,,,cyan,flipped triangle
0.0,4.0,4.0,0.0,5.0,5.0,806.3328060002277,1.0,0.0,part_2,go,350.0,350.0,1.0,,,,,,,,,blue,I
0.0,3.0,3.0,0.0,5.0,5.0,825.3513709996696,1.0,0.0,part_2,go,350.0,350.0,1.0,,,,,,,,,orange,hexagon
0.0,4.0,4.0,0.0,6.0,6.0,680.4333810000571,1.0,0.0,part_2,go,350.0,350.0,1.0,,,,,,,,,blue,I
0.0,6.0,2.0,1.0,5.0,0.0,0.0,1.0,0.0,part_2,stop,350.0,350.0,4.0,,,,,,,,,magenta,diamond
0.0,5.0,1.0,1.0,5.0,0.0,0.0,1.0,0.0,part_2,stop,400.0,350.0,4.0,,,,,,,,,cyan,flipped triangle
0.0,3.0,3.0,0.0,5.0,5.0,769.1707080002743,1.0,0.0,part_2,go,450.0,350.0,1.0,,,,,,,,,orange,hexagon
0.0,1.0,1.0,0.0,6.0,6.0,723.8272970002981,1.0,0.0,part_2,go,450.0,350.0,1.0,,,,,,,,,green,triangle
0.0,1.0,1.0,0.0,6.0,6.0,791.2876049999795,1.0,0.0,part_2,go,450.0,350.0,1.0,,,,,,,,,green,triangle
0.0,8.0,4.0,1.0,6.0,0.0,0.0,1.0,0.0,part_2,stop,450.0,350.0,4.0,,,,,,,,,yellow,square
0.0,3.0,3.0,0.0,6.0,6.0,809.5476850003251,1.0,0.0,part_2,go,450.0,400.0,1.0,,,,,,,,,orange,hexagon
0.0,2.0,2.0,0.0,5.0,5.0,845.1269229999525,1.0,0.0,part_2,go,450.0,400.0,1.0,,,,,,,,,white,cross
0.0,7.0,3.0,1.0,6.0,0.0,0.0,1.0,0.0,part_2,stop,450.0,400.0,4.0,,,,,,,,,gray,circle
0.0,8.0,4.0,1.0,5.0,0.0,0.0,1.0,0.0,part_2,stop,450.0,450.0,4.0,,,,,,,,,yellow,square
0.0,4.0,4.0,0.0,5.0,5.0,765.1435530001436,1.0,0.0,part_2,go,500.0,450.0,1.0,,,,,,,,,blue,I
0.0,3.0,3.0,0.0,6.0,6.0,763.5555359997852,1.0,0.0,part_2,go,500.0,450.0,1.0,,,,,,,,,orange,hexagon
0.0,6.0,2.0,1.0,6.0,0.0,0.0,1.0,0.0,part_2,stop,500.0,450.0,4.0,,,,,,,,,magenta,diamond
0.0,4.0,4.0,0.0,5.0,5.0,779.9566769999728,1.0,0.0,part_2,go,500.0,500.0,1.0,,,,,,,,,blue,I
0.0,1.0,1.0,0.0,6.0,6.0,728.1163160000688,1.0,0.0,part_2,go,500.0,500.0,1.0,,,,,,,,,green,triangle
0.0,7.0,3.0,1.0,5.0,0.0,0.0,1.0,0.0,part_2,stop,500.0,500.0,4.0,,,,,,,,,gray,circle
0.0,8.0,4.0,1.0,5.0,0.0,0.0,1.0,0.0,part_2,stop,550.0,500.0,4.0,,,,,,,,,yellow,square
0.0,4.0,4.0,0.0,6.0,6.0,766.8242879999525,1.0,0.0,part_2,go,600.0,500.0,1.0,,,,,,,,,blue,I
0.0,7.0,3.0,1.0,5.0,0.0,0.0,1.0,0.0,part_2,stop,600.0,500.0,4.0,,,,,,,,,gray,circle
0.0,3.0,3.0,0.0,5.0,5.0,808.575565999945,1.0,0.0,part_2,go,650.0,500.0,1.0,,,,,,,,,orange,hexagon
0.0,2.0,2.0,0.0,6.0,6.0,972.3700240001564,1.0,0.0,part_2,go,650.0,500.0,1.0,,,,,,,,,white,cross
0.0,6.0,2.0,1.0,6.0,6.0,609.5818240000881,2.0,0.0,part_2,go,650.0,500.0,1.0,,,,,,,,,magenta,diamond
0.0,6.0,2.0,1.0,5.0,5.0,416.9048269995983,2.0,0.0,part_2,stop,650.0,500.0,3.0,,,,,,,,,magenta,diamond
0.0,2.0,2.0,0.0,5.0,5.0,683.4289220000755,2.0,0.0,part_2,go,600.0,500.0,1.0,,,,,,,,,white,cross
0.0,7.0,3.0,1.0,5.0,5.0,572.618765000243,2.0,0.0,part_2,stop,600.0,500.0,3.0,,,,,,,,,gray,circle
0.0,5.0,1.0,1.0,5.0,5.0,719.4793029998436,2.0,0.0,part_2,stop,550.0,500.0,3.0,,,,,,,,,cyan,flipped triangle
0.0,7.0,3.0,1.0,6.0,6.0,801.5737340001579,2.0,0.0,part_2,go,500.0,500.0,1.0,,,,,,,,,gray,circle
0.0,6.0,2.0,1.0,6.0,6.0,491.0046260001763,2.0,0.0,part_2,stop,500.0,500.0,3.0,,,,,,,,,magenta,diamond
0.0,4.0,4.0,0.0,6.0,6.0,865.9782780000569,2.0,0.0,part_2,go,500.0,450.0,1.0,,,,,,,,,blue,I
0.0,2.0,2.0,0.0,5.0,5.0,657.1827139996458,2.0,0.0,part_2,go,500.0,450.0,1.0,,,,,,,,,white,cross
0.0,3.0,3.0,0.0,6.0,6.0,595.5213499996717,2.0,0.0,part_2,go,500.0,450.0,1.0,,,,,,,,,orange,hexagon
0.0,4.0,4.0,0.0,5.0,5.0,522.3006619999069,2.0,0.0,part_2,go,500.0,450.0,1.0,,,,,,,,,blue,I
0.0,8.0,4.0,1.0,6.0,6.0,488.4641019998526,2.0,0.0,part_2,stop,500.0,450.0,3.0,,,,,,,,,yellow,square
0.0,3.0,3.0,0.0,5.0,5.0,870.7558350001818,2.0,0.0,part_2,go,500.0,400.0,1.0,,,,,,,,,orange,hexagon
0.0,7.0,3.0,1.0,5.0,5.0,371.1440779998156,2.0,0.0,part_2,stop,500.0,400.0,3.0,,,,,,,,,gray,circle
0.0,4.0,4.0,0.0,5.0,5.0,531.13485699987,2.0,0.0,part_2,go,450.0,400.0,1.0,,,,,,,,,blue,I
0.0,2.0,2.0,0.0,5.0,5.0,669.6428479999668,2.0,0.0,part_2,go,450.0,400.0,1.0,,,,,,,,,white,cross
0.0,5.0,1.0,1.0,6.0,6.0,443.3455749999666,2.0,0.0,part_2,stop,450.0,400.0,3.0,,,,,,,,,cyan,flipped triangle
0.0,2.0,2.0,0.0,6.0,6.0,595.7587439997951,2.0,0.0,part_2,go,450.0,350.0,1.0,,,,,,,,,white,cross
0.0,4.0,4.0,0.0,5.0,5.0,601.5743750003821,2.0,0.0,part_2,go,450.0,350.0,1.0,,,,,,,,,blue,I
0.0,2.0,2.0,0.0,6.0,6.0,684.3408269996871,2.0,0.0,part_2,go,450.0,350.0,1.0,,,,,,,,,white,cross
0.0,1.0,1.0,0.0,5.0,5.0,641.0855359999914,2.0,0.0,part_2,go,450.0,350.0,1.0,,,,,,,,,green,triangle
0.0,1.0,1.0,0.0,5.0,5.0,706.3853449999442,2.0,0.0,part_2,go,450.0,350.0,1.0,,,,,,,,,green,triangle
0.0,4.0,4.0,0.0,5.0,5.0,581.9225370000822,2.0,0.0,part_2,go,450.0,350.0,1.0,,,,,,,,,blue,I
0.0,6.0,2.0,1.0,5.0,0.0,0.0,2.0,0.0,part_2,stop,450.0,350.0,4.0,,,,,,,,,magenta,diamond
0.0,3.0,3.0,0.0,6.0,6.0,781.2175509998269,2.0,0.0,part_2,go,500.0,350.0,1.0,,,,,,,,,orange,hexagon
0.0,2.0,2.0,0.0,5.0,5.0,743.8557559999026,2.0,0.0,part_2,go,500.0,350.0,1.0,,,,,,,,,white,cross
0.0,4.0,4.0,0.0,5.0,5.0,914.1548550001062,2.0,0.0,part_2,go,500.0,350.0,1.0,,,,,,,,,blue,I
0.0,2.0,2.0,0.0,5.0,5.0,723.3029280000665,2.0,0.0,part_2,go,500.0,350.0,1.0,,,,,,,,,white,cross
0.0,7.0,3.0,1.0,5.0,5.0,544.8534380002457,2.0,0.0,part_2,stop,500.0,350.0,3.0,,,,,,,,,gray,circle
0.0,4.0,4.0,0.0,5.0,5.0,746.5659349995803,2.0,0.0,part_2,go,450.0,350.0,1.0,,,,,,,,,blue,I
0.0,8.0,4.0,1.0,5.0,5.0,794.6038770000996,2.0,0.0,part_2,go,450.0,350.0,1.0,,,,,,,,,yellow,square
0.0,7.0,3.0,1.0,6.0,6.0,614.7243010000238,2.0,0.0,part_2,go,450.0,350.0,1.0,,,,,,,,,gray,circle
0.0,5.0,1.0,1.0,5.0,5.0,487.3830550000093,2.0,0.0,part_2,stop,450.0,350.0,3.0,,,,,,,,,cyan,flipped triangle
0.0,4.0,4.0,0.0,5.0,5.0,452.80873899992,2.0,0.0,part_2,go,400.0,350.0,1.0,,,,,,,,,blue,I
0.0,8.0,4.0,1.0,5.0,0.0,0.0,2.0,0.0,part_2,stop,400.0,350.0,4.0,,,,,,,,,yellow,square
0.0,5.0,1.0,1.0,5.0,5.0,699.5053260002351,2.0,0.0,part_2,go,450.0,350.0,1.0,,,,,,,,,cyan,flipped triangle
0.0,3.0,3.0,0.0,6.0,6.0,1144.3087389998254,3.0,0.0,part_2,go,450.0,350.0,1.0,,,,,,,,,orange,hexagon
0.0,6.0,2.0,1.0,6.0,0.0,0.0,3.0,0.0,part_2,stop,450.0,350.0,4.0,,,,,,,,,magenta,diamond
0.0,2.0,2.0,0.0,5.0,5.0,392.3928849999356,3.0,0.0,part_2,go,450.0,400.0,1.0,,,,,,,,,white,cross
0.0,7.0,3.0,1.0,6.0,0.0,0.0,3.0,0.0,part_2,stop,450.0,400.0,4.0,,,,,,,,,gray,circle
0.0,4.0,4.0,0.0,5.0,5.0,889.3073469998853,3.0,0.0,part_2,go,450.0,450.0,1.0,,,,,,,,,blue,I
0.0,5.0,1.0,1.0,6.0,6.0,499.644544000148,3.0,0.0,part_2,stop,450.0,450.0,3.0,,,,,,,,,cyan,flipped triangle
0.0,6.0,2.0,1.0,6.0,6.0,368.510600999798,3.0,0.0,part_2,stop,450.0,400.0,3.0,,,,,,,,,magenta,diamond
0.0,5.0,1.0,1.0,6.0,6.0,568.2837790000121,3.0,0.0,part_2,go,450.0,350.0,1.0,,,,,,,,,cyan,flipped triangle
0.0,3.0,3.0,0.0,5.0,5.0,464.3249850000757,3.0,0.0,part_2,go,450.0,350.0,1.0,,,,,,,,,orange,hexagon
0.0,3.0,3.0,0.0,5.0,5.0,455.3926530002172,3.0,0.0,part_2,go,450.0,350.0,1.0,,,,,,,,,orange,hexagon
0.0,1.0,1.0,0.0,5.0,5.0,436.3249119996908,3.0,0.0,part_2,go,450.0,350.0,1.0,,,,,,,,,green,triangle
0.0,3.0,3.0,0.0,6.0,6.0,416.1532879998049,3.0,0.0,part_2,go,450.0,350.0,1.0,,,,,,,,,orange,hexagon
0.0,5.0,1.0,1.0,6.0,6.0,415.523339000174,3.0,0.0,part_2,stop,450.0,350.0,3.0,,,,,,,,,cyan,flipped triangle
0.0,7.0,3.0,1.0,6.0,0.0,0.0,3.0,0.0,part_2,stop,450.0,300.0,4.0,,,,,,,,,gray,circle
0.0,6.0,2.0,1.0,6.0,6.0,515.6027839998387,3.0,0.0,part_2,stop,450.0,350.0,3.0,,,,,,,,,magenta,diamond
0.0,4.0,4.0,0.0,6.0,6.0,547.7182640001956,3.0,0.0,part_2,go,450.0,300.0,1.0,,,,,,,,,blue,I
0.0,3.0,3.0,0.0,5.0,5.0,392.9820849998577,3.0,0.0,part_2,go,450.0,300.0,1.0,,,,,,,,,orange,hexagon
0.0,8.0,4.0,1.0,6.0,6.0,378.8367120000657,3.0,0.0,part_2,stop,450.0,300.0,3.0,,,,,,,,,yellow,square
0.0,8.0,4.0,1.0,6.0,6.0,307.717582999885,3.0,0.0,part_2,stop,450.0,250.0,3.0,,,,,,,,,yellow,square
0.0,2.0,2.0,0.0,5.0,5.0,486.8896439998025,3.0,0.0,part_2,go,450.0,200.0,1.0,,,,,,,,,white,cross
0.0,5.0,1.0,1.0,6.0,0.0,0.0,3.0,0.0,part_2,stop,450.0,200.0,4.0,,,,,,,,,cyan,flipped triangle
0.0,2.0,2.0,0.0,6.0,6.0,462.6165009999567,3.0,0.0,part_2,go,450.0,250.0,1.0,,,,,,,,,white,cross
0.0,3.0,3.0,0.0,5.0,5.0,405.7271540000329,3.0,0.0,part_2,go,450.0,250.0,1.0,,,,,,,,,orange,hexagon
0.0,5.0,1.0,1.0,6.0,6.0,345.5951820001246,3.0,0.0,part_2,stop,450.0,250.0,3.0,,,,,,,,,cyan,flipped triangle
0.0,6.0,2.0,1.0,6.0,0.0,0.0,3.0,0.0,part_2,stop,450.0,200.0,4.0,,,,,,,,,magenta,diamond
0.0,7.0,3.0,1.0,5.0,5.0,415.2698660000169,3.0,0.0,part_2,stop,450.0,250.0,3.0,,,,,,,,,gray,circle
0.0,2.0,2.0,0.0,5.0,5.0,507.00472400012586,3.0,0.0,part_2,go,400.0,250.0,1.0,,,,,,,,,white,cross
0.0,5.0,1.0,1.0,6.0,0.0,0.0,3.0,0.0,part_2,stop,400.0,250.0,4.0,,,,,,,,,cyan,flipped triangle
0.0,4.0,4.0,0.0,5.0,5.0,656.1351170003036,3.0,0.0,part_2,go,400.0,300.0,1.0,,,,,,,,,blue,I
0.0,8.0,4.0,1.0,6.0,0.0,0.0,3.0,0.0,part_2,stop,400.0,300.0,4.0,,,,,,,,,yellow,square
0.0,8.0,4.0,1.0,6.0,0.0,0.0,3.0,0.0,part_2,stop,400.0,350.0,4.0,,,,,,,,,yellow,square
0.0,2.0,2.0,0.0,6.0,6.0,627.5628630000938,3.0,0.0,part_2,go,400.0,400.0,1.0,,,,,,,,,white,cross
0.0,5.0,1.0,1.0,5.0,5.0,558.3455170003617,3.0,0.0,part_2,stop,400.0,400.0,3.0,,,,,,,,,cyan,flipped triangle
0.0,2.0,2.0,0.0,5.0,5.0,554.2380639999465,3.0,0.0,part_2,go,350.0,400.0,1.0,,,,,,,,,white,cross
0.0,8.0,4.0,1.0,5.0,0.0,0.0,3.0,0.0,part_2,stop,350.0,400.0,4.0,,,,,,,,,yellow,square
0.0,6.0,2.0,1.0,6.0,6.0,895.7063080001717,3.0,0.0,part_2,go,400.0,400.0,1.0,,,,,,,,,magenta,diamond
0.0,8.0,4.0,1.0,6.0,0.0,0.0,4.0,0.0,part_2,stop,400.0,400.0,4.0,,,,,,,,,yellow,square
0.0,5.0,1.0,1.0,5.0,5.0,509.61723799991887,4.0,0.0,part_2,stop,400.0,450.0,3.0,,,,,,,,,cyan,flipped triangle
0.0,4.0,4.0,0.0,6.0,6.0,556.9935220000843,4.0,0.0,part_2,go,350.0,450.0,1.0,,,,,,,,,blue,I
0.0,8.0,4.0,1.0,6.0,6.0,330.4674179998983,4.0,0.0,part_2,go,350.0,450.0,1.0,,,,,,,,,yellow,square
0.0,1.0,1.0,0.0,6.0,6.0,490.577083000062,4.0,0.0,part_2,go,350.0,450.0,1.0,,,,,,,,,green,triangle
0.0,6.0,2.0,1.0,6.0,6.0,536.4790059998086,4.0,0.0,part_2,stop,350.0,450.0,3.0,,,,,,,,,magenta,diamond
0.0,7.0,3.0,1.0,6.0,0.0,0.0,4.0,0.0,part_2,stop,350.0,400.0,4.0,,,,,,,,,gray,circle
0.0,1.0,1.0,0.0,6.0,6.0,660.1132159998997,4.0,0.0,part_2,go,350.0,450.0,1.0,,,,,,,,,green,triangle
0.0,8.0,4.0,1.0,5.0,5.0,550.4336069998317,4.0,0.0,part_2,go,350.0,450.0,1.0,,,,,,,,,yellow,square
0.0,4.0,4.0,0.0,5.0,5.0,739.4970889999968,4.0,0.0,part_2,go,350.0,450.0,1.0,,,,,,,,,blue,I
0.0,3.0,3.0,0.0,6.0,6.0,609.1302979998545,4.0,0.0,part_2,go,350.0,450.0,1.0,,,,,,,,,orange,hexagon
0.0,5.0,1.0,1.0,5.0,5.0,382.8832080002939,4.0,0.0,part_2,stop,350.0,450.0,3.0,,,,,,,,,cyan,flipped triangle
0.0,7.0,3.0,1.0,5.0,5.0,441.8953099998361,4.0,0.0,part_2,stop,300.0,450.0,3.0,,,,,,,,,gray,circle
0.0,7.0,3.0,1.0,5.0,0.0,0.0,4.0,0.0,part_2,stop,250.0,450.0,4.0,,,,,,,,,gray,circle
0.0,1.0,1.0,0.0,6.0,6.0,415.0610890001189,4.0,0.0,part_2,go,300.0,450.0,1.0,,,,,,,,,green,triangle
0.0,1.0,1.0,0.0,5.0,5.0,576.8810160002431,4.0,0.0,part_2,go,300.0,450.0,1.0,,,,,,,,,green,triangle
0.0,8.0,4.0,1.0,6.0,6.0,433.2044279999536,4.0,0.0,part_2,stop,300.0,450.0,3.0,,,,,,,,,yellow,square
0.0,5.0,1.0,1.0,5.0,0.0,0.0,4.0,0.0,part_2,stop,300.0,400.0,4.0,,,,,,,,,cyan,flipped triangle
0.0,6.0,2.0,1.0,5.0,5.0,604.6009179999601,4.0,0.0,part_2,go,350.0,400.0,1.0,,,,,,,,,magenta,diamond
0.0,3.0,3.0,0.0,6.0,6.0,427.9402610000034,4.0,0.0,part_2,go,350.0,400.0,1.0,,,,,,,,,orange,hexagon
0.0,6.0,2.0,1.0,5.0,5.0,390.6617600000572,4.0,0.0,part_2,stop,350.0,400.0,3.0,,,,,,,,,magenta,diamond
0.0,1.0,1.0,0.0,5.0,5.0,602.8981260001274,4.0,0.0,part_2,go,300.0,400.0,1.0,,,,,,,,,green,triangle
0.0,1.0,1.0,0.0,6.0,6.0,682.9937210000026,4.0,0.0,part_2,go,300.0,400.0,1.0,,,,,,,,,green,triangle
0.0,5.0,1.0,1.0,6.0,6.0,702.5679150001451,4.0,0.0,part_2,go,300.0,400.0,1.0,,,,,,,,,cyan,flipped triangle
0.0,5.0,1.0,1.0,5.0,0.0,0.0,4.0,0.0,part_2,stop,300.0,400.0,4.0,,,,,,,,,cyan,flipped triangle
0.0,8.0,4.0,1.0,5.0,0.0,0.0,4.0,0.0,part_2,stop,350.0,400.0,4.0,,,,,,,,,yellow,square
0.0,7.0,3.0,1.0,5.0,0.0,0.0,4.0,0.0,part_2,stop,400.0,400.0,4.0,,,,,,,,,gray,circle
0.0,3.0,3.0,0.0,5.0,5.0,587.9647599999771,4.0,0.0,part_2,go,450.0,400.0,1.0,,,,,,,,,orange,hexagon
0.0,4.0,4.0,0.0,6.0,6.0,708.5661240002992,4.0,0.0,part_2,go,450.0,400.0,1.0,,,,,,,,,blue,I
0.0,7.0,3.0,1.0,6.0,0.0,0.0,4.0,0.0,part_2,stop,450.0,400.0,4.0,,,,,,,,,gray,circle
0.0,7.0,3.0,1.0,5.0,5.0,596.0495619997346,4.0,0.0,part_2,stop,450.0,450.0,3.0,,,,,,,,,gray,circle
0.0,8.0,4.0,1.0,6.0,6.0,781.0415240001021,4.0,0.0,part_2,go,400.0,450.0,1.0,,,,,,,,,yellow,square
0.0,5.0,1.0,1.0,5.0,5.0,560.1971619998949,4.0,0.0,part_2,go,400.0,450.0,1.0,,,,,,,,,cyan,flipped triangle
0.0,1.0,1.0,0.0,6.0,6.0,558.4539970000151,4.0,0.0,part_2,go,400.0,450.0,1.0,,,,,,,,,green,triangle
0.0,4.0,4.0,0.0,5.0,5.0,700.6509220000225,4.0,0.0,part_2,go,400.0,450.0,1.0,,,,,,,,,blue,I
0.0,3.0,3.0,0.0,6.0,6.0,419.844213000033,4.0,0.0,part_2,go,400.0,450.0,1.0,,,,,,,,,orange,hexagon
0.0,1.0,1.0,0.0,5.0,5.0,633.5045959999661,5.0,0.0,part_2,go,400.0,450.0,1.0,,,,,,,,,green,triangle
0.0,6.0,2.0,1.0,5.0,0.0,0.0,5.0,0.0,part_2,stop,400.0,450.0,4.0,,,,,,,,,magenta,diamond
0.0,8.0,4.0,1.0,5.0,0.0,0.0,5.0,0.0,part_2,stop,450.0,450.0,4.0,,,,,,,,,yellow,square
0.0,3.0,3.0,0.0,6.0,6.0,466.5253460002532,5.0,0.0,part_2,go,500.0,450.0,1.0,,,,,,,,,orange,hexagon
0.0,8.0,4.0,1.0,5.0,0.0,0.0,5.0,0.0,part_2,stop,500.0,450.0,4.0,,,,,,,,,yellow,square
0.0,2.0,2.0,0.0,5.0,5.0,677.958540000418,5.0,0.0,part_2,go,550.0,450.0,1.0,,,,,,,,,white,cross
0.0,3.0,3.0,0.0,6.0,6.0,534.0807789998507,5.0,0.0,part_2,go,550.0,450.0,1.0,,,,,,,,,orange,hexagon
0.0,5.0,1.0,1.0,6.0,0.0,0.0,5.0,0.0,part_2,stop,550.0,450.0,4.0,,,,,,,,,cyan,flipped triangle
0.0,1.0,1.0,0.0,5.0,5.0,570.4602130003877,5.0,0.0,part_2,go,550.0,500.0,1.0,,,,,,,,,green,triangle
0.0,7.0,3.0,1.0,6.0,0.0,0.0,5.0,0.0,part_2,stop,550.0,500.0,4.0,,,,,,,,,gray,circle
0.0,6.0,2.0,1.0,5.0,0.0,0.0,5.0,0.0,part_2,stop,550.0,550.0,4.0,,,,,,,,,magenta,diamond
0.0,8.0,4.0,1.0,5.0,5.0,736.8631250001272,5.0,0.0,part_2,stop,600.0,550.0,3.0,,,,,,,,,yellow,square
0.0,1.0,1.0,0.0,6.0,6.0,725.9270689996811,5.0,0.0,part_2,go,550.0,550.0,1.0,,,,,,,,,green,triangle
0.0,2.0,2.0,0.0,5.0,5.0,830.3745680000247,5.0,0.0,part_2,go,550.0,550.0,1.0,,,,,,,,,white,cross
0.0,7.0,3.0,1.0,5.0,0.0,0.0,5.0,0.0,part_2,stop,550.0,550.0,4.0,,,,,,,,,gray,circle
0.0,1.0,1.0,0.0,6.0,6.0,1110.9748930002752,5.0,0.0,part_2,go,600.0,550.0,1.0,,,,,,,,,green,triangle
0.0,4.0,4.0,0.0,6.0,6.0,659.482048999962,5.0,0.0,part_2,go,600.0,550.0,1.0,,,,,,,,,blue,I
0.0,5.0,1.0,1.0,5.0,5.0,636.0397280000143,5.0,0.0,part_2,stop,600.0,550.0,3.0,,,,,,,,,cyan,flipped triangle
0.0,4.0,4.0,0.0,6.0,6.0,557.1389760002603,5.0,0.0,part_2,go,550.0,550.0,1.0,,,,,,,,,blue,I
0.0,8.0,4.0,1.0,6.0,6.0,663.1286900001214,5.0,0.0,part_2,go,550.0,550.0,1.0,,,,,,,,,yellow,square
0.0,5.0,1.0,1.0,5.0,5.0,547.8703849998965,5.0,0.0,part_2,stop,550.0,550.0,3.0,,,,,,,,,cyan,flipped triangle
0.0,3.0,3.0,0.0,6.0,6.0,697.0231109999077,5.0,0.0,part_2,go,500.0,550.0,1.0,,,,,,,,,orange,hexagon
0.0,8.0,4.0,1.0,5.0,5.0,538.498681999954,5.0,0.0,part_2,stop,500.0,550.0,3.0,,,,,,,,,yellow,square
0.0,7.0,3.0,1.0,6.0,0.0,0.0,5.0,0.0,part_2,stop,450.0,550.0,4.0,,,,,,,,,gray,circle
0.0,1.0,1.0,0.0,5.0,5.0,702.6574209999126,5.0,0.0,part_2,go,450.0,600.0,1.0,,,,,,,,,green,triangle
0.0,7.0,3.0,1.0,5.0,0.0,0.0,5.0,0.0,part_2,stop,450.0,600.0,4.0,,,,,,,,,gray,circle
0.0,1.0,1.0,0.0,6.0,6.0,650.4760960001477,5.0,0.0,part_2,go,500.0,600.0,1.0,,,,,,,,,green,triangle
0.0,5.0,1.0,1.0,5.0,0.0,0.0,5.0,0.0,part_2,stop,500.0,600.0,4.0,,,,,,,,,cyan,flipped triangle
0.0,6.0,2.0,1.0,5.0,5.0,995.8945269995638,5.0,0.0,part_2,go,550.0,600.0,1.0,,,,,,,,,magenta,diamond
0.0,2.0,2.0,0.0,6.0,6.0,824.1777979997096,5.0,0.0,part_2,go,550.0,600.0,1.0,,,,,,,,,white,cross
0.0,8.0,4.0,1.0,6.0,6.0,736.6323739997824,5.0,0.0,part_2,go,550.0,600.0,1.0,,,,,,,,,yellow,square
0.0,2.0,2.0,0.0,6.0,6.0,520.231328999671,5.0,0.0,part_2,go,550.0,600.0,1.0,,,,,,,,,white,cross
0.0,1.0,1.0,0.0,5.0,5.0,620.5759819999912,5.0,0.0,part_2,go,550.0,600.0,1.0,,,,,,,,,green,triangle
0.0,7.0,3.0,1.0,5.0,0.0,0.0,5.0,0.0,part_2,stop,550.0,600.0,4.0,,,,,,,,,gray,circle
0.0,4.0,4.0,0.0,6.0,6.0,642.2533980003209,5.0,0.0,part_2,go,600.0,600.0,1.0,,,,,,,,,blue,I
0.0,4.0,4.0,0.0,6.0,6.0,600.7700370000748,5.0,0.0,part_2,go,600.0,600.0,1.0,,,,,,,,,blue,I
0.0,4.0,4.0,0.0,6.0,6.0,666.8359380000766,6.0,0.0,part_2,go,600.0,600.0,1.0,,,,,,,,,blue,I
0.0,3.0,3.0,0.0,6.0,6.0,456.8475839996608,6.0,0.0,part_2,go,600.0,600.0,1.0,,,,,,,,,orange,hexagon
0.0,7.0,3.0,1.0,6.0,0.0,0.0,6.0,0.0,part_2,stop,600.0,600.0,4.0,,,,,,,,,gray,circle
0.0,2.0,2.0,0.0,6.0,6.0,584.3466440001066,6.0,0.0,part_2,go,600.0,650.0,1.0,,,,,,,,,white,cross
0.0,7.0,3.0,1.0,5.0,5.0,1203.817523999987,6.0,0.0,part_2,go,600.0,650.0,1.0,,,,,,,,,gray,circle
0.0,1.0,1.0,0.0,6.0,6.0,623.513837000246,6.0,0.0,part_2,go,600.0,650.0,1.0,,,,,,,,,green,triangle
0.0,6.0,2.0,1.0,6.0,6.0,622.8600870003902,6.0,0.0,part_2,stop,600.0,650.0,3.0,,,,,,,,,magenta,diamond
0.0,4.0,4.0,0.0,5.0,5.0,594.9894000000313,6.0,0.0,part_2,go,600.0,600.0,1.0,,,,,,,,,blue,I
0.0,5.0,1.0,1.0,5.0,5.0,630.2014779998899,6.0,0.0,part_2,stop,600.0,600.0,3.0,,,,,,,,,cyan,flipped triangle
0.0,5.0,1.0,1.0,6.0,6.0,581.0508300000947,6.0,0.0,part_2,stop,550.0,600.0,3.0,,,,,,,,,cyan,flipped triangle
0.0,1.0,1.0,0.0,5.0,5.0,634.1235909999341,6.0,0.0,part_2,go,550.0,550.0,1.0,,,,,,,,,green,triangle
0.0,8.0,4.0,1.0,5.0,5.0,424.3290489998799,6.0,0.0,part_2,stop,550.0,550.0,3.0,,,,,,,,,yellow,square
0.0,1.0,1.0,0.0,5.0,5.0,783.1931109999459,6.0,0.0,part_2,go,500.0,550.0,1.0,,,,,,,,,green,triangle
0.0,1.0,1.0,0.0,6.0,6.0,452.4640039999212,6.0,0.0,part_2,go,500.0,550.0,1.0,,,,,,,,,green,triangle
0.0,7.0,3.0,1.0,6.0,6.0,1094.3131550002363,6.0,0.0,part_2,go,500.0,550.0,1.0,,,,,,,,,gray,circle
0.0,7.0,3.0,1.0,6.0,6.0,587.4628990000019,6.0,0.0,part_2,go,500.0,550.0,1.0,,,,,,,,,gray,circle
0.0,6.0,2.0,1.0,6.0,0.0,0.0,6.0,0.0,part_2,stop,500.0,550.0,4.0,,,,,,,,,magenta,diamond
0.0,7.0,3.0,1.0,6.0,6.0,602.3002930000985,6.0,0.0,part_2,go,500.0,600.0,1.0,,,,,,,,,gray,circle
0.0,8.0,4.0,1.0,5.0,5.0,610.4424519999156,6.0,0.0,part_2,stop,500.0,600.0,3.0,,,,,,,,,yellow,square
0.0,6.0,2.0,1.0,6.0,6.0,843.5403670000596,6.0,0.0,part_2,go,450.0,600.0,1.0,,,,,,,,,magenta,diamond
0.0,6.0,2.0,1.0,5.0,5.0,768.680194999888,6.0,0.0,part_2,go,450.0,600.0,1.0,,,,,,,,,magenta,diamond
0.0,7.0,3.0,1.0,6.0,6.0,428.0305769998449,6.0,0.0,part_2,stop,450.0,600.0,3.0,,,,,,,,,gray,circle
0.0,5.0,1.0,1.0,5.0,0.0,0.0,6.0,0.0,part_2,stop,450.0,550.0,4.0,,,,,,,,,cyan,flipped triangle
0.0,7.0,3.0,1.0,6.0,6.0,1144.386908999877,6.0,0.0,part_2,go,500.0,550.0,1.0,,,,,,,,,gray,circle
0.0,2.0,2.0,0.0,6.0,6.0,630.3864409997004,6.0,0.0,part_2,go,500.0,550.0,1.0,,,,,,,,,white,cross
0.0,1.0,1.0,0.0,5.0,5.0,475.853220999852,6.0,0.0,part_2,go,500.0,550.0,1.0,,,,,,,,,green,triangle
0.0,8.0,4.0,1.0,6.0,6.0,529.9301439999908,6.0,0.0,part_2,stop,500.0,550.0,3.0,,,,,,,,,yellow,square
0.0,7.0,3.0,1.0,6.0,6.0,479.9594630003412,6.0,0.0,part_2,stop,500.0,500.0,3.0,,,,,,,,,gray,circle
0.0,1.0,1.0,0.0,5.0,5.0,505.50921300009577,6.0,0.0,part_2,go,500.0,450.0,1.0,,,,,,,,,green,triangle
0.0,1.0,1.0,0.0,6.0,6.0,367.6128699999026,6.0,0.0,part_2,go,500.0,450.0,1.0,,,,,,,,,green,triangle
0.0,2.0,2.0,0.0,5.0,5.0,635.8909499999754,6.0,0.0,part_2,go,500.0,450.0,1.0,,,,,,,,,white,cross
0.0,6.0,2.0,1.0,5.0,0.0,0.0,6.0,0.0,part_2,stop,500.0,450.0,4.0,,,,,,,,,magenta,diamond
0.0,3.0,3.0,0.0,6.0,6.0,680.5752629998096,6.0,0.0,part_2,go,550.0,450.0,1.0,,,,,,,,,orange,hexagon
0.0,5.0,1.0,1.0,5.0,0.0,0.0,6.0,0.0,part_2,stop,550.0,450.0,4.0,,,,,,,,,cyan,flipped triangle
0.0,5.0,1.0,1.0,6.0,6.0,776.7623830000048,6.0,0.0,part_2,go,600.0,450.0,1.0,,,,,,,,,cyan,flipped triangle
0.0,6.0,2.0,1.0,5.0,0.0,0.0,6.0,0.0,part_2,stop,600.0,450.0,4.0,,,,,,,,,magenta,diamond
0.0,6.0,2.0,1.0,6.0,6.0,438.6016539997399,7.0,0.0,part_2,go,650.0,450.0,1.0,,,,,,,,,magenta,diamond
0.0,2.0,2.0,0.0,6.0,6.0,443.4309019998181,7.0,0.0,part_2,go,650.0,450.0,1.0,,,,,,,,,white,cross
0.0,8.0,4.0,1.0,5.0,5.0,506.1077559998921,7.0,0.0,part_2,stop,650.0,450.0,3.0,,,,,,,,,yellow,square
0.0,1.0,1.0,0.0,5.0,5.0,618.9604310002323,7.0,0.0,part_2,go,600.0,450.0,1.0,,,,,,,,,green,triangle
0.0,4.0,4.0,0.0,6.0,6.0,438.7158479999016,7.0,0.0,part_2,go,600.0,450.0,1.0,,,,,,,,,blue,I
0.0,8.0,4.0,1.0,5.0,5.0,476.7130449999968,7.0,0.0,part_2,stop,600.0,450.0,3.0,,,,,,,,,yellow,square
0.0,1.0,1.0,0.0,6.0,6.0,393.4625540000525,7.0,0.0,part_2,go,550.0,450.0,1.0,,,,,,,,,green,triangle
0.0,4.0,4.0,0.0,5.0,5.0,450.2258399998027,7.0,0.0,part_2,go,550.0,450.0,1.0,,,,,,,,,blue,I
0.0,1.0,1.0,0.0,6.0,6.0,298.6772240001301,7.0,0.0,part_2,go,550.0,450.0,1.0,,,,,,,,,green,triangle
0.0,6.0,2.0,1.0,6.0,6.0,664.8689990001913,7.0,0.0,part_2,go,550.0,450.0,1.0,,,,,,,,,magenta,diamond
0.0,4.0,4.0,0.0,6.0,6.0,498.8972199998898,7.0,0.0,part_2,go,550.0,450.0,1.0,,,,,,,,,blue,I
0.0,5.0,1.0,1.0,6.0,6.0,664.8262640001121,7.0,0.0,part_2,go,550.0,450.0,1.0,,,,,,,,,cyan,flipped triangle
0.0,8.0,4.0,1.0,6.0,6.0,815.193561000342,7.0,0.0,part_2,go,550.0,450.0,1.0,,,,,,,,,yellow,square
0.0,7.0,3.0,1.0,5.0,0.0,0.0,7.0,0.0,part_2,stop,550.0,450.0,4.0,,,,,,,,,gray,circle
0.0,3.0,3.0,0.0,6.0,6.0,594.4279589994039,7.0,0.0,part_2,go,600.0,450.0,1.0,,,,,,,,,orange,hexagon
0.0,8.0,4.0,1.0,5.0,5.0,734.5598860001701,7.0,0.0,part_2,stop,600.0,450.0,3.0,,,,,,,,,yellow,square
0.0,3.0,3.0,0.0,5.0,5.0,894.4322190000094,7.0,0.0,part_2,go,550.0,450.0,1.0,,,,,,,,,orange,hexagon
0.0,5.0,1.0,1.0,6.0,6.0,704.9674159998176,7.0,0.0,part_2,go,550.0,450.0,1.0,,,,,,,,,cyan,flipped triangle
0.0,1.0,1.0,0.0,6.0,6.0,545.9375639993596,7.0,0.0,part_2,go,550.0,450.0,1.0,,,,,,,,,green,triangle
0.0,2.0,2.0,0.0,6.0,6.0,491.6989280000052,7.0,0.0,part_2,go,550.0,450.0,1.0,,,,,,,,,white,cross
0.0,5.0,1.0,1.0,6.0,6.0,542.1021770007428,7.0,0.0,part_2,go,550.0,450.0,1.0,,,,,,,,,cyan,flipped triangle
0.0,3.0,3.0,0.0,5.0,5.0,474.2247940002926,7.0,0.0,part_2,go,550.0,450.0,1.0,,,,,,,,,orange,hexagon
0.0,7.0,3.0,1.0,6.0,0.0,0.0,7.0,0.0,part_2,stop,550.0,450.0,4.0,,,,,,,,,gray,circle
0.0,8.0,4.0,1.0,6.0,6.0,628.518093000821,7.0,0.0,part_2,go,550.0,500.0,1.0,,,,,,,,,yellow,square
0.0,3.0,3.0,0.0,6.0,6.0,539.9106120003125,7.0,0.0,part_2,go,550.0,500.0,1.0,,,,,,,,,orange,hexagon
0.0,4.0,4.0,0.0,6.0,6.0,463.1686069997158,7.0,0.0,part_2,go,550.0,500.0,1.0,,,,,,,,,blue,I
0.0,2.0,2.0,0.0,5.0,5.0,524.2254389995651,7.0,0.0,part_2,go,550.0,500.0,1.0,,,,,,,,,white,cross
0.0,4.0,4.0,0.0,6.0,6.0,450.8920239995859,7.0,0.0,part_2,go,550.0,500.0,1.0,,,,,,,,,blue,I
0.0,2.0,2.0,0.0,6.0,6.0,424.5005700004185,7.0,0.0,part_2,go,550.0,500.0,1.0,,,,,,,,,white,cross
0.0,2.0,2.0,0.0,6.0,6.0,357.9023080001207,7.0,0.0,part_2,go,550.0,500.0,1.0,,,,,,,,,white,cross
0.0,6.0,2.0,1.0,5.0,0.0,0.0,7.0,0.0,part_2,stop,550.0,500.0,4.0,,,,,,,,,magenta,diamond
0.0,6.0,2.0,1.0,5.0,0.0,0.0,7.0,0.0,part_2,stop,600.0,500.0,4.0,,,,,,,,,magenta,diamond
0.0,3.0,3.0,0.0,5.0,5.0,644.2005030003202,7.0,0.0,part_2,go,650.0,500.0,1.0,,,,,,,,,orange,hexagon
0.0,6.0,2.0,1.0,5.0,0.0,0.0,7.0,0.0,part_2,stop,650.0,500.0,4.0,,,,,,,,,magenta,diamond
0.0,4.0,4.0,0.0,5.0,5.0,496.2746860001061,7.0,0.0,part_2,go,700.0,500.0,1.0,,,,,,,,,blue,I
0.0,4.0,4.0,0.0,6.0,6.0,438.5495070000615,7.0,0.0,part_2,go,700.0,500.0,1.0,,,,,,,,,blue,I
0.0,6.0,2.0,1.0,6.0,6.0,635.7695329998023,8.0,0.0,part_2,stop,700.0,500.0,3.0,,,,,,,,,magenta,diamond
0.0,5.0,1.0,1.0,6.0,0.0,0.0,8.0,0.0,part_2,stop,700.0,450.0,4.0,,,,,,,,,cyan,flipped triangle
0.0,8.0,4.0,1.0,5.0,5.0,504.2580210001688,8.0,0.0,part_2,go,700.0,500.0,1.0,,,,,,,,,yellow,square
0.0,3.0,3.0,0.0,5.0,5.0,543.5890969993125,8.0,0.0,part_2,go,700.0,500.0,1.0,,,,,,,,,orange,hexagon
0.0,8.0,4.0,1.0,6.0,0.0,0.0,8.0,0.0,part_2,stop,700.0,500.0,4.0,,,,,,,,,yellow,square
0.0,3.0,3.0,0.0,5.0,5.0,748.1596240004365,8.0,0.0,part_2,go,700.0,550.0,1.0,,,,,,,,,orange,hexagon
0.0,6.0,2.0,1.0,5.0,0.0,0.0,8.0,0.0,part_2,stop,700.0,550.0,4.0,,,,,,,,,magenta,diamond
0.0,2.0,2.0,0.0,5.0,5.0,453.1289850001485,8.0,0.0,part_2,go,750.0,550.0,1.0,,,,,,,,,white,cross
0.0,4.0,4.0,0.0,6.0,6.0,464.1561569997066,8.0,0.0,part_2,go,750.0,550.0,1.0,,,,,,,,,blue,I
0.0,1.0,1.0,0.0,5.0,5.0,690.7618579998598,8.0,0.0,part_2,go,750.0,550.0,1.0,,,,,,,,,green,triangle
0.0,1.0,1.0,0.0,5.0,5.0,603.6855470001683,8.0,0.0,part_2,go,750.0,550.0,1.0,,,,,,,,,green,triangle
0.0,1.0,1.0,0.0,5.0,5.0,372.4094150002202,8.0,0.0,part_2,go,750.0,550.0,1.0,,,,,,,,,green,triangle
0.0,3.0,3.0,0.0,6.0,6.0,599.3057890000273,8.0,0.0,part_2,go,750.0,550.0,1.0,,,,,,,,,orange,hexagon
0.0,2.0,2.0,0.0,5.0,5.0,848.4162750000905,8.0,0.0,part_2,go,750.0,550.0,1.0,,,,,,,,,white,cross
0.0,7.0,3.0,1.0,5.0,5.0,719.468183000572,8.0,0.0,part_2,stop,750.0,550.0,3.0,,,,,,,,,gray,circle
0.0,6.0,2.0,1.0,6.0,0.0,0.0,8.0,0.0,part_2,stop,700.0,550.0,4.0,,,,,,,,,magenta,diamond
0.0,5.0,1.0,1.0,5.0,5.0,735.1219879992641,8.0,0.0,part_2,stop,700.0,600.0,3.0,,,,,,,,,cyan,flipped triangle
0.0,3.0,3.0,0.0,5.0,5.0,524.550717999773,8.0,0.0,part_2,go,650.0,600.0,1.0,,,,,,,,,orange,hexagon
0.0,2.0,2.0,0.0,6.0,6.0,650.7709740008067,8.0,0.0,part_2,go,650.0,600.0,1.0,,,,,,,,,white,cross
0.0,3.0,3.0,0.0,5.0,5.0,982.7749819996824,8.0,0.0,part_2,go,650.0,600.0,1.0,,,,,,,,,orange,hexagon
0.0,2.0,2.0,0.0,6.0,6.0,539.1115960001116,8.0,0.0,part_2,go,650.0,600.0,1.0,,,,,,,,,white,cross
0.0,7.0,3.0,1.0,5.0,0.0,0.0,8.0,0.0,part_2,stop,650.0,600.0,4.0,,,,,,,,,gray,circle
0.0,6.0,2.0,1.0,5.0,5.0,886.1812290006128,8.0,0.0,part_2,stop,700.0,600.0,3.0,,,,,,,,,magenta,diamond
0.0,5.0,1.0,1.0,6.0,6.0,330.5439790001401,8.0,0.0,part_2,stop,650.0,600.0,3.0,,,,,,,,,cyan,flipped triangle
0.0,6.0,2.0,1.0,5.0,5.0,1395.3428820004774,8.0,0.0,part_2,go,650.0,550.0,1.0,,,,,,,,,magenta,diamond
0.0,3.0,3.0,0.0,5.0,5.0,455.5651159998888,8.0,0.0,part_2,go,650.0,550.0,1.0,,,,,,,,,orange,hexagon
0.0,8.0,4.0,1.0,6.0,6.0,714.8957070003235,8.0,0.0,part_2,stop,650.0,550.0,3.0,,,,,,,,,yellow,square
0.0,6.0,2.0,1.0,6.0,0.0,0.0,8.0,0.0,part_2,stop,650.0,500.0,4.0,,,,,,,,,magenta,diamond
0.0,3.0,3.0,0.0,5.0,5.0,574.107604999881,8.0,0.0,part_2,go,650.0,550.0,1.0,,,,,,,,,orange,hexagon
0.0,8.0,4.0,1.0,6.0,0.0,0.0,8.0,0.0,part_2,stop,650.0,550.0,4.0,,,,,,,,,yellow,square
0.0,4.0,4.0,0.0,6.0,6.0,592.9915759998039,8.0,0.0,part_2,go,650.0,600.0,1.0,,,,,,,,,blue,I
0.0,7.0,3.0,1.0,6.0,6.0,323.3754900002168,8.0,0.0,part_2,go,650.0,600.0,1.0,,,,,,,,,gray,circle
0.0,6.0,2.0,1.0,6.0,0.0,0.0,8.0,0.0,part_2,stop,650.0,600.0,4.0,,,,,,,,,magenta,diamond
0.0,2.0,2.0,0.0,6.0,6.0,671.6206379996947,8.0,0.0,part_2,go,650.0,650.0,1.0,,,,,,,,,white,cross
0.0,1.0,1.0,0.0,5.0,5.0,700.7553330004157,8.0,0.0,part_2,go,650.0,650.0,1.0,,,,,,,,,green,triangle
0.0,2.0,2.0,0.0,6.0,6.0,367.9158320001079,8.0,0.0,part_2,go,650.0,650.0,1.0,,,,,,,,,white,cross
0.0,1.0,1.0,0.0,7.0,3.0,2295.073623999997,1.0,1.0,part_3,go,0.0,0.0,0.0,245.0,5.0,196.0,294.0,245.0,147.0,98.0,49.0,green,triangle
0.0,3.0,3.0,0.0,7.0,5.0,2503.7016399992353,1.0,1.0,part_3,go,0.0,0.0,0.0,216.0,4.0,270.0,324.0,108.0,162.0,216.0,54.0,orange,hexagon
0.0,6.0,2.0,1.0,7.0,2.0,3504.907638000077,1.0,1.0,part_3,go,0.0,0.0,0.0,49.0,1.0,147.0,49.0,294.0,245.0,196.0,98.0,magenta,diamond
0.0,3.0,3.0,0.0,7.0,6.0,2483.8918410005135,1.0,1.0,part_3,go,0.0,0.0,0.0,176.0,4.0,44.0,220.0,264.0,132.0,88.0,176.0,orange,hexagon
0.0,1.0,1.0,0.0,7.0,5.0,2946.215442999346,1.0,1.0,part_3,go,0.0,0.0,0.0,132.0,3.0,44.0,264.0,220.0,176.0,132.0,88.0,green,triangle
0.0,4.0,4.0,0.0,7.0,4.0,1782.286996000039,1.0,1.0,part_3,go,0.0,0.0,0.0,98.0,2.0,294.0,245.0,196.0,98.0,147.0,49.0,blue,I
0.0,2.0,2.0,0.0,7.0,2.0,1557.839972999318,1.0,1.0,part_3,go,0.0,0.0,0.0,294.0,6.0,147.0,294.0,196.0,49.0,245.0,98.0,white,cross
0.0,1.0,1.0,0.0,7.0,3.0,2290.9623759996975,1.0,1.0,part_3,go,0.0,0.0,0.0,98.0,2.0,49.0,147.0,98.0,196.0,245.0,294.0,green,triangle
0.0,7.0,3.0,1.0,7.0,1.0,895.7417860001442,1.0,1.0,part_3,go,0.0,0.0,0.0,78.0,2.0,78.0,117.0,234.0,195.0,156.0,39.0,gray,circle
0.0,5.0,1.0,1.0,7.0,2.0,1562.4066780001158,1.0,1.0,part_3,go,0.0,0.0,0.0,39.0,1.0,234.0,39.0,117.0,156.0,195.0,78.0,cyan,flipped triangle
0.0,3.0,3.0,0.0,7.0,5.0,1382.0704169993403,1.0,1.0,part_3,go,0.0,0.0,0.0,195.0,5.0,234.0,78.0,39.0,156.0,195.0,117.0,orange,hexagon
0.0,3.0,3.0,0.0,7.0,3.0,2976.142030000119,1.0,1.0,part_3,go,0.0,0.0,0.0,162.0,3.0,216.0,108.0,162.0,270.0,54.0,324.0,orange,hexagon
0.0,5.0,1.0,1.0,7.0,4.0,924.9991340002452,1.0,1.0,part_3,go,0.0,0.0,0.0,176.0,4.0,220.0,88.0,132.0,176.0,44.0,264.0,cyan,flipped triangle
0.0,1.0,1.0,0.0,7.0,2.0,1217.0662050002647,1.0,1.0,part_3,go,0.0,0.0,0.0,102.0,3.0,68.0,102.0,136.0,34.0,170.0,204.0,green,triangle
0.0,7.0,3.0,1.0,7.0,6.0,2441.9200890006323,1.0,1.0,part_3,go,0.0,0.0,0.0,324.0,6.0,270.0,108.0,54.0,162.0,216.0,324.0,gray,circle
0.0,6.0,2.0,1.0,7.0,4.0,1845.68598199985,1.0,1.0,part_3,go,0.0,0.0,0.0,132.0,3.0,220.0,176.0,88.0,132.0,264.0,44.0,magenta,diamond
0.0,1.0,1.0,0.0,7.0,2.0,2045.4685849999805,1.0,1.0,part_3,go,0.0,0.0,0.0,108.0,2.0,270.0,108.0,216.0,162.0,324.0,54.0,green,triangle
0.0,4.0,4.0,0.0,7.0,3.0,1733.867984000426,1.0,1.0,part_3,go,0.0,0.0,0.0,136.0,4.0,34.0,68.0,136.0,102.0,204.0,170.0,blue,I
0.0,5.0,1.0,1.0,7.0,3.0,3009.2760460001955,1.0,1.0,part_3,go,0.0,0.0,0.0,234.0,6.0,117.0,195.0,234.0,39.0,156.0,78.0,cyan,flipped triangle
0.0,4.0,4.0,0.0,7.0,5.0,1307.1852479997688,1.0,1.0,part_3,go,0.0,0.0,0.0,176.0,4.0,264.0,132.0,220.0,88.0,176.0,44.0,blue,I
0.0,5.0,1.0,1.0,7.0,3.0,1539.1426260002845,2.0,1.0,part_3,go,0.0,0.0,0.0,170.0,5.0,68.0,34.0,170.0,102.0,136.0,204.0,cyan,flipped triangle
0.0,8.0,4.0,1.0,7.0,5.0,2052.870530999826,2.0,1.0,part_3,go,0.0,0.0,0.0,264.0,6.0,44.0,132.0,220.0,88.0,264.0,176.0,yellow,square
0.0,6.0,2.0,1.0,7.0,2.0,1443.9222339997286,2.0,1.0,part_3,go,0.0,0.0,0.0,49.0,1.0,245.0,49.0,294.0,147.0,98.0,196.0,magenta,diamond
0.0,4.0,4.0,0.0,7.0,5.0,2944.082050000361,2.0,1.0,part_3,go,0.0,0.0,0.0,216.0,4.0,162.0,270.0,324.0,108.0,216.0,54.0,blue,I
0.0,5.0,1.0,1.0,7.0,6.0,2400.6475509995653,2.0,1.0,part_3,go,0.0,0.0,0.0,196.0,4.0,294.0,98.0,49.0,245.0,147.0,196.0,cyan,flipped triangle
0.0,8.0,4.0,1.0,7.0,3.0,2329.7152969998933,2.0,1.0,part_3,go,0.0,0.0,0.0,204.0,6.0,34.0,68.0,204.0,170.0,136.0,102.0,yellow,square
0.0,7.0,3.0,1.0,7.0,5.0,574.09333600026,2.0,1.0,part_3,go,0.0,0.0,0.0,117.0,3.0,156.0,78.0,195.0,39.0,117.0,234.0,gray,circle
0.0,1.0,1.0,0.0,7.0,1.0,295.0760369994896,2.0,1.0,part_3,go,0.0,0.0,0.0,324.0,6.0,324.0,108.0,54.0,162.0,216.0,270.0,green,triangle
0.0,8.0,4.0,1.0,7.0,2.0,605.943331999697,2.0,1.0,part_3,go,0.0,0.0,0.0,78.0,2.0,39.0,78.0,117.0,156.0,234.0,195.0,yellow,square
0.0,8.0,4.0,1.0,7.0,2.0,1576.6010839997762,2.0,1.0,part_3,go,0.0,0.0,0.0,136.0,4.0,68.0,136.0,204.0,170.0,102.0,34.0,yellow,square
0.0,5.0,1.0,1.0,7.0,6.0,2641.23961399946,2.0,1.0,part_3,go,0.0,0.0,0.0,176.0,4.0,44.0,220.0,132.0,264.0,88.0,176.0,cyan,flipped triangle
0.0,8.0,4.0,1.0,7.0,4.0,1833.5583959997168,2.0,1.0,part_3,go,0.0,0.0,0.0,196.0,4.0,147.0,98.0,245.0,196.0,294.0,49.0,yellow,square
0.0,5.0,1.0,1.0,7.0,4.0,2897.5428890007606,2.0,1.0,part_3,go,0.0,0.0,0.0,162.0,3.0,216.0,270.0,108.0,162.0,324.0,54.0,cyan,flipped triangle
0.0,3.0,3.0,0.0,7.0,5.0,2789.869589000773,2.0,1.0,part_3,go,0.0,0.0,0.0,204.0,6.0,68.0,102.0,34.0,170.0,204.0,136.0,orange,hexagon
0.0,1.0,1.0,0.0,7.0,4.0,2348.427979999542,2.0,1.0,part_3,go,0.0,0.0,0.0,204.0,6.0,68.0,170.0,102.0,204.0,136.0,34.0,green,triangle
0.0,3.0,3.0,0.0,7.0,1.0,1570.9203610003897,2.0,1.0,part_3,go,0.0,0.0,0.0,68.0,2.0,68.0,204.0,34.0,136.0,170.0,102.0,orange,hexagon
0.0,3.0,3.0,0.0,7.0,4.0,2836.6172510004617,2.0,1.0,part_3,go,0.0,0.0,0.0,88.0,2.0,132.0,44.0,220.0,88.0,264.0,176.0,orange,hexagon
0.0,4.0,4.0,0.0,7.0,3.0,2504.284622999876,2.0,1.0,part_3,go,0.0,0.0,0.0,270.0,5.0,54.0,324.0,270.0,162.0,108.0,216.0,blue,I
0.0,7.0,3.0,1.0,7.0,5.0,1733.6558919996603,2.0,1.0,part_3,go,0.0,0.0,0.0,102.0,3.0,204.0,34.0,170.0,136.0,102.0,68.0,gray,circle
0.0,5.0,1.0,1.0,7.0,5.0,3282.33459600051,2.0,1.0,part_3,go,0.0,0.0,0.0,102.0,3.0,204.0,68.0,170.0,34.0,102.0,136.0,cyan,flipped triangle
0.0,7.0,3.0,1.0,7.0,5.0,1234.8418030005632,3.0,1.0,part_3,go,0.0,0.0,0.0,147.0,3.0,196.0,245.0,98.0,49.0,147.0,294.0,gray,circle
0.0,5.0,1.0,1.0,7.0,5.0,2235.7357760001833,3.0,1.0,part_3,go,0.0,0.0,0.0,147.0,3.0,196.0,245.0,49.0,98.0,147.0,294.0,cyan,flipped triangle
0.0,4.0,4.0,0.0,7.0,1.0,2712.860339999679,3.0,1.0,part_3,go,0.0,0.0,0.0,196.0,4.0,196.0,147.0,49.0,98.0,294.0,245.0,blue,I
0.0,7.0,3.0,1.0,7.0,3.0,2103.1278519994885,3.0,1.0,part_3,go,0.0,0.0,0.0,162.0,3.0,216.0,54.0,162.0,324.0,270.0,108.0,gray,circle
0.0,7.0,3.0,1.0,7.0,2.0,1832.3342800003957,3.0,1.0,part_3,go,0.0,0.0,0.0,170.0,5.0,102.0,170.0,204.0,34.0,68.0,136.0,gray,circle
0.0,3.0,3.0,0.0,7.0,6.0,1814.3395719998807,3.0,1.0,part_3,go,0.0,0.0,0.0,245.0,5.0,196.0,294.0,98.0,49.0,147.0,245.0,orange,hexagon
0.0,4.0,4.0,0.0,7.0,4.0,2013.9667950006697,3.0,1.0,part_3,go,0.0,0.0,0.0,234.0,6.0,39.0,117.0,156.0,234.0,195.0,78.0,blue,I
0.0,6.0,2.0,1.0,7.0,3.0,1766.9690009997794,3.0,1.0,part_3,go,0.0,0.0,0.0,270.0,5.0,108.0,324.0,270.0,162.0,216.0,54.0,magenta,diamond
0.0,2.0,2.0,0.0,7.0,4.0,805.2822760000709,3.0,1.0,part_3,go,0.0,0.0,0.0,98.0,2.0,294.0,147.0,245.0,98.0,49.0,196.0,white,cross
0.0,8.0,4.0,1.0,7.0,2.0,1731.038463999539,3.0,1.0,part_3,go,0.0,0.0,0.0,147.0,3.0,98.0,147.0,196.0,294.0,49.0,245.0,yellow,square
0.0,2.0,2.0,0.0,7.0,4.0,1836.3870889997995,3.0,1.0,part_3,go,0.0,0.0,0.0,162.0,3.0,54.0,108.0,270.0,162.0,216.0,324.0,white,cross
0.0,2.0,2.0,0.0,7.0,3.0,2036.6712679997363,3.0,1.0,part_3,go,0.0,0.0,0.0,204.0,6.0,136.0,102.0,204.0,34.0,170.0,68.0,white,cross
0.0,4.0,4.0,0.0,7.0,5.0,1887.4359040000857,3.0,1.0,part_3,go,0.0,0.0,0.0,136.0,4.0,102.0,68.0,204.0,170.0,136.0,34.0,blue,I
0.0,3.0,3.0,0.0,7.0,1.0,653.3545579995916,3.0,1.0,part_3,go,0.0,0.0,0.0,147.0,3.0,147.0,196.0,49.0,98.0,245.0,294.0,orange,hexagon
0.0,1.0,1.0,0.0,7.0,1.0,526.7970609993426,3.0,1.0,part_3,go,0.0,0.0,0.0,117.0,3.0,117.0,78.0,234.0,195.0,39.0,156.0,green,triangle
0.0,7.0,3.0,1.0,7.0,2.0,1209.2692969999916,3.0,1.0,part_3,go,0.0,0.0,0.0,132.0,3.0,220.0,132.0,88.0,44.0,176.0,264.0,gray,circle
0.0,1.0,1.0,0.0,7.0,4.0,940.2695650005626,3.0,1.0,part_3,go,0.0,0.0,0.0,132.0,3.0,176.0,88.0,220.0,132.0,264.0,44.0,green,triangle
0.0,2.0,2.0,0.0,7.0,3.0,1907.0992819997628,3.0,1.0,part_3,go,0.0,0.0,0.0,195.0,5.0,39.0,78.0,195.0,156.0,234.0,117.0,white,cross
0.0,4.0,4.0,0.0,7.0,1.0,1436.112110999602,3.0,1.0,part_3,go,0.0,0.0,0.0,44.0,1.0,44.0,220.0,88.0,132.0,264.0,176.0,blue,I
0.0,6.0,2.0,1.0,7.0,5.0,1172.7639460004866,3.0,1.0,part_3,go,0.0,0.0,0.0,78.0,2.0,117.0,39.0,234.0,195.0,78.0,156.0,magenta,diamond
0.0,8.0,4.0,1.0,7.0,1.0,768.5300929997538,4.0,1.0,part_3,go,0.0,0.0,0.0,44.0,1.0,44.0,88.0,176.0,264.0,132.0,220.0,yellow,square
0.0,6.0,2.0,1.0,7.0,4.0,1533.89375200004,4.0,1.0,part_3,go,0.0,0.0,0.0,204.0,6.0,136.0,68.0,34.0,204.0,102.0,170.0,magenta,diamond
0.0,6.0,2.0,1.0,7.0,2.0,857.18251399976,4.0,1.0,part_3,go,0.0,0.0,0.0,176.0,4.0,220.0,176.0,132.0,88.0,264.0,44.0,magenta,diamond
0.0,2.0,2.0,0.0,7.0,3.0,3.2161919998542996,4.0,1.0,part_3,go,0.0,0.0,0.0,270.0,5.0,108.0,162.0,270.0,54.0,216.0,324.0,white,cross
0.0,6.0,2.0,1.0,7.0,4.0,1059.814827999617,4.0,1.0,part_3,go,0.0,0.0,0.0,136.0,4.0,102.0,170.0,34.0,136.0,68.0,204.0,magenta,diamond
0.0,2.0,2.0,0.0,7.0,2.0,1841.763897000419,4.0,1.0,part_3,go,0.0,0.0,0.0,68.0,2.0,34.0,68.0,136.0,170.0,204.0,102.0,white,cross
0.0,6.0,2.0,1.0,7.0,6.0,1781.7512849997,4.0,1.0,part_3,go,0.0,0.0,0.0,108.0,2.0,324.0,216.0,270.0,162.0,54.0,108.0,magenta,diamond
0.0,7.0,3.0,1.0,7.0,4.0,693.3731529998113,4.0,1.0,part_3,go,0.0,0.0,0.0,88.0,2.0,220.0,176.0,44.0,88.0,264.0,132.0,gray,circle
0.0,8.0,4.0,1.0,7.0,3.0,969.9992420000854,4.0,1.0,part_3,go,0.0,0.0,0.0,216.0,4.0,54.0,162.0,216.0,324.0,270.0,108.0,yellow,square
0.0,3.0,3.0,0.0,7.0,5.0,695.9331159996509,4.0,1.0,part_3,go,0.0,0.0,0.0,39.0,1.0,156.0,234.0,117.0,78.0,39.0,195.0,orange,hexagon
0.0,2.0,2.0,0.0,7.0,4.0,702.1448679997775,4.0,1.0,part_3,go,0.0,0.0,0.0,44.0,1.0,176.0,264.0,88.0,44.0,132.0,220.0,white,cross
0.0,4.0,4.0,0.0,7.0,2.0,1684.890864999943,4.0,1.0,part_3,go,0.0,0.0,0.0,234.0,6.0,195.0,234.0,156.0,78.0,117.0,39.0,blue,I
0.0,8.0,4.0,1.0,7.0,6.0,1025.1617710000571,4.0,1.0,part_3,go,0.0,0.0,0.0,108.0,2.0,270.0,162.0,324.0,216.0,54.0,108.0,yellow,square
0.0,2.0,2.0,0.0,7.0,3.0,1084.4714380000369,4.0,1.0,part_3,go,0.0,0.0,0.0,117.0,3.0,39.0,156.0,117.0,78.0,234.0,195.0,white,cross
0.0,8.0,4.0,1.0,7.0,1.0,541.9678700000077,4.0,1.0,part_3,go,0.0,0.0,0.0,156.0,4.0,156.0,117.0,195.0,234.0,39.0,78.0,yellow,square
0.0,2.0,2.0,0.0,7.0,2.0,607.5884450001467,4.0,1.0,part_3,go,0.0,0.0,0.0,88.0,2.0,132.0,88.0,264.0,44.0,220.0,176.0,white,cross
0.0,5.0,1.0,1.0,7.0,3.0,1488.8436170003845,4.0,1.0,part_3,go,0.0,0.0,0.0,216.0,4.0,162.0,108.0,216.0,324.0,54.0,270.0,cyan,flipped triangle
0.0,1.0,1.0,0.0,7.0,4.0,952.940228999978,4.0,1.0,part_3,go,0.0,0.0,0.0,117.0,3.0,234.0,78.0,39.0,117.0,156.0,195.0,green,triangle
0.0,7.0,3.0,1.0,7.0,4.0,574.6937129997605,4.0,1.0,part_3,go,0.0,0.0,0.0,147.0,3.0,196.0,49.0,98.0,147.0,245.0,294.0,gray,circle
0.0,6.0,2.0,1.0,7.0,3.0,2238.3565130003262,4.0,1.0,part_3,go,0.0,0.0,0.0,156.0,4.0,117.0,234.0,156.0,39.0,78.0,195.0,magenta,diamond
