raw_reward_magnitude,stim_reward,stepwise_reward_magnitude,paired_with_stopping,stim_location,response,reaction_time,block,num_trial_presentations,which_phase,stop_signal_trial_type,left_SSD,right_SSD,accuracy,chosen_bidding_amount,chosen_bidding_level,possible_bid_1,possible_bid_2,possible_bid_3,possible_bid_4,possible_bid_5,possible_bid_6,color_text,shape_text
201.0,3.0,3.0,0.0,1.0,1.0,463.2760239996969,1.0,1.0,phase_1,,,,,,,,,,,,,gray,flipped triangle
202.0,3.0,3.0,0.0,2.0,2.0,328.153046999887,1.0,1.0,phase_1,,,,,,,,,,,,,gray,flipped triangle
0.0,1.0,0.0,0.0,1.0,1.0,376.3305880002008,1.0,1.0,phase_1,,,,,,,,,,,,,magenta,cross
113.0,6.0,2.0,1.0,4.0,4.0,467.4467820000245,1.0,1.0,phase_1,,,,,,,,,,,,,cyan,diamond
92.0,2.0,2.0,0.0,3.0,3.0,492.1155070001077,1.0,1.0,phase_1,,,,,,,,,,,,,green,hexagon
396.0,8.0,4.0,1.0,2.0,2.0,314.9156919998859,1.0,1.0,phase_1,,,,,,,,,,,,,yellow,triangle
69.0,1.0,1.0,0.0,1.0,1.0,300.8471729999655,1.0,1.0,phase_1,,,,,,,,,,,,,magenta,cross
50.0,1.0,1.0,0.0,1.0,1.0,348.4377919999133,1.0,1.0,phase_1,,,,,,,,,,,,,magenta,cross
197.0,3.0,3.0,0.0,2.0,2.0,365.0014519998876,1.0,1.0,phase_1,,,,,,,,,,,,,gray,flipped triangle
185.0,7.0,3.0,1.0,3.0,3.0,395.1604969997788,1.0,1.0,phase_1,,,,,,,,,,,,,orange,square
30.0,5.0,1.0,1.0,3.0,3.0,346.4882959997339,1.0,1.0,phase_1,,,,,,,,,,,,,white,circle
182.0,7.0,3.0,1.0,2.0,2.0,293.1123780003872,1.0,1.0,phase_1,,,,,,,,,,,,,orange,square
396.0,4.0,4.0,0.0,3.0,3.0,416.2822160001269,1.0,1.0,phase_1,,,,,,,,,,,,,blue,I
94.0,2.0,2.0,0.0,1.0,1.0,291.2555809998594,1.0,1.0,phase_1,,,,,,,,,,,,,green,hexagon
0.0,5.0,0.0,1.0,1.0,1.0,301.4879059996929,1.0,1.0,phase_1,,,,,,,,,,,,,white,circle
60.0,5.0,1.0,1.0,3.0,3.0,323.554272000365,1.0,1.0,phase_1,,,,,,,,,,,,,white,circle
419.0,4.0,4.0,0.0,4.0,4.0,498.659747000147,1.0,1.0,phase_1,,,,,,,,,,,,,blue,I
207.0,3.0,3.0,0.0,2.0,2.0,311.6522729997086,1.0,1.0,phase_1,,,,,,,,,,,,,gray,flipped triangle
118.0,2.0,2.0,0.0,2.0,2.0,349.8649109997132,1.0,1.0,phase_1,,,,,,,,,,,,,green,hexagon
110.0,2.0,2.0,0.0,2.0,2.0,368.7177110000448,1.0,1.0,phase_1,,,,,,,,,,,,,green,hexagon
0.0,4.0,0.0,0.0,2.0,2.0,302.6866149998568,1.0,1.0,phase_1,,,,,,,,,,,,,blue,I
60.0,1.0,1.0,0.0,1.0,1.0,299.4522609997148,1.0,1.0,phase_1,,,,,,,,,,,,,magenta,cross
417.0,8.0,4.0,1.0,4.0,4.0,276.1060050002015,1.0,1.0,phase_1,,,,,,,,,,,,,yellow,triangle
0.0,7.0,0.0,1.0,2.0,2.0,293.2288249999146,1.0,1.0,phase_1,,,,,,,,,,,,,orange,square
217.0,3.0,3.0,0.0,1.0,1.0,318.6821530002817,1.0,1.0,phase_1,,,,,,,,,,,,,gray,flipped triangle
82.0,2.0,2.0,0.0,1.0,1.0,288.3567509998102,1.0,1.0,phase_1,,,,,,,,,,,,,green,hexagon
224.0,7.0,3.0,1.0,1.0,1.0,264.4460700003037,1.0,1.0,phase_1,,,,,,,,,,,,,orange,square
0.0,4.0,0.0,0.0,1.0,1.0,260.08361200001667,1.0,1.0,phase_1,,,,,,,,,,,,,blue,I
122.0,2.0,2.0,0.0,1.0,1.0,252.3334340003202,1.0,1.0,phase_1,,,,,,,,,,,,,green,hexagon
193.0,7.0,3.0,1.0,3.0,3.0,428.084963999936,1.0,1.0,phase_1,,,,,,,,,,,,,orange,square
408.0,8.0,4.0,1.0,3.0,3.0,350.4270139997061,1.0,1.0,phase_1,,,,,,,,,,,,,yellow,triangle
212.0,3.0,3.0,0.0,4.0,4.0,367.3665880000953,1.0,1.0,phase_1,,,,,,,,,,,,,gray,flipped triangle
82.0,2.0,2.0,0.0,4.0,4.0,313.5079479998239,1.0,1.0,phase_1,,,,,,,,,,,,,green,hexagon
392.0,4.0,4.0,0.0,4.0,4.0,351.1253659999056,1.0,1.0,phase_1,,,,,,,,,,,,,blue,I
0.0,2.0,0.0,0.0,1.0,1.0,259.7233120000055,1.0,1.0,phase_1,,,,,,,,,,,,,green,hexagon
29.0,5.0,1.0,1.0,2.0,2.0,362.1422320002239,1.0,1.0,phase_1,,,,,,,,,,,,,white,circle
197.0,7.0,3.0,1.0,2.0,2.0,397.2273540002788,1.0,1.0,phase_1,,,,,,,,,,,,,orange,square
0.0,8.0,0.0,1.0,2.0,2.0,324.5019060000231,1.0,1.0,phase_1,,,,,,,,,,,,,yellow,triangle
0.0,5.0,0.0,1.0,1.0,1.0,307.3092479999104,1.0,1.0,phase_1,,,,,,,,,,,,,white,circle
60.0,1.0,1.0,0.0,4.0,4.0,516.0958169999503,1.0,1.0,phase_1,,,,,,,,,,,,,magenta,cross
89.0,6.0,2.0,1.0,3.0,3.0,417.4769549999837,1.0,1.0,phase_1,,,,,,,,,,,,,cyan,diamond
77.0,6.0,2.0,1.0,2.0,2.0,316.3897030003681,1.0,1.0,phase_1,,,,,,,,,,,,,cyan,diamond
36.0,5.0,1.0,1.0,2.0,2.0,321.0905089999869,1.0,1.0,phase_1,,,,,,,,,,,,,white,circle
118.0,2.0,2.0,0.0,3.0,3.0,300.0986189999821,1.0,1.0,phase_1,,,,,,,,,,,,,green,hexagon
93.0,6.0,2.0,1.0,3.0,3.0,287.8474430003734,1.0,1.0,phase_1,,,,,,,,,,,,,cyan,diamond
395.0,8.0,4.0,1.0,1.0,1.0,486.6902710000431,1.0,1.0,phase_1,,,,,,,,,,,,,yellow,triangle
0.0,7.0,0.0,1.0,3.0,3.0,308.8447800000722,1.0,1.0,phase_1,,,,,,,,,,,,,orange,square
53.0,1.0,1.0,0.0,4.0,4.0,392.1944149997216,1.0,1.0,phase_1,,,,,,,,,,,,,magenta,cross
186.0,3.0,3.0,0.0,3.0,3.0,316.0841179997078,1.0,1.0,phase_1,,,,,,,,,,,,,gray,flipped triangle
104.0,2.0,2.0,0.0,3.0,3.0,311.864456999956,1.0,1.0,phase_1,,,,,,,,,,,,,green,hexagon
388.0,4.0,4.0,0.0,1.0,1.0,364.1707400001905,1.0,1.0,phase_1,,,,,,,,,,,,,blue,I
59.0,5.0,1.0,1.0,1.0,1.0,338.6870740000631,1.0,1.0,phase_1,,,,,,,,,,,,,white,circle
186.0,3.0,3.0,0.0,4.0,4.0,298.8901980002083,1.0,1.0,phase_1,,,,,,,,,,,,,gray,flipped triangle
400.0,4.0,4.0,0.0,2.0,2.0,272.8742419999435,1.0,1.0,phase_1,,,,,,,,,,,,,blue,I
96.0,6.0,2.0,1.0,1.0,1.0,301.6761850003604,1.0,1.0,phase_1,,,,,,,,,,,,,cyan,diamond
0.0,8.0,0.0,1.0,3.0,3.0,277.6409050002257,1.0,1.0,phase_1,,,,,,,,,,,,,yellow,triangle
58.0,1.0,1.0,0.0,3.0,3.0,312.2156340000401,1.0,1.0,phase_1,,,,,,,,,,,,,magenta,cross
68.0,5.0,1.0,1.0,3.0,3.0,283.5345560001769,1.0,1.0,phase_1,,,,,,,,,,,,,white,circle
202.0,7.0,3.0,1.0,1.0,1.0,481.6584479999619,1.0,1.0,phase_1,,,,,,,,,,,,,orange,square
0.0,3.0,0.0,0.0,1.0,1.0,285.473316000207,1.0,1.0,phase_1,,,,,,,,,,,,,gray,flipped triangle
59.0,1.0,1.0,0.0,1.0,1.0,319.4615319998775,1.0,1.0,phase_1,,,,,,,,,,,,,magenta,cross
176.0,7.0,3.0,1.0,2.0,2.0,279.2067680002219,1.0,1.0,phase_1,,,,,,,,,,,,,orange,square
0.0,1.0,0.0,0.0,3.0,3.0,610.5954039999233,1.0,1.0,phase_1,,,,,,,,,,,,,magenta,cross
0.0,3.0,0.0,0.0,3.0,3.0,345.8921200003715,1.0,1.0,phase_1,,,,,,,,,,,,,gray,flipped triangle
0.0,1.0,0.0,0.0,3.0,3.0,327.2562340002878,1.0,1.0,phase_1,,,,,,,,,,,,,magenta,cross
419.0,8.0,4.0,1.0,3.0,3.0,331.5206750003199,1.0,1.0,phase_1,,,,,,,,,,,,,yellow,triangle
377.0,4.0,4.0,0.0,4.0,4.0,476.9537199999831,1.0,1.0,phase_1,,,,,,,,,,,,,blue,I
0.0,1.0,0.0,0.0,3.0,3.0,334.708789999695,1.0,1.0,phase_1,,,,,,,,,,,,,magenta,cross
409.0,8.0,4.0,1.0,4.0,4.0,351.7091069998059,1.0,1.0,phase_1,,,,,,,,,,,,,yellow,triangle
97.0,2.0,2.0,0.0,2.0,2.0,316.3122549999571,1.0,1.0,phase_1,,,,,,,,,,,,,green,hexagon
207.0,7.0,3.0,1.0,3.0,3.0,327.2083729998485,1.0,1.0,phase_1,,,,,,,,,,,,,orange,square
0.0,6.0,0.0,1.0,3.0,3.0,314.1946420000749,1.0,1.0,phase_1,,,,,,,,,,,,,cyan,diamond
414.0,4.0,4.0,0.0,3.0,3.0,314.2405379999218,1.0,1.0,phase_1,,,,,,,,,,,,,blue,I
200.0,3.0,3.0,0.0,2.0,2.0,347.4523250001766,1.0,1.0,phase_1,,,,,,,,,,,,,gray,flipped triangle
93.0,2.0,2.0,0.0,4.0,4.0,382.7237300001798,1.0,2.0,phase_1,,,,,,,,,,,,,green,hexagon
85.0,6.0,2.0,1.0,3.0,3.0,376.579453999966,1.0,1.0,phase_1,,,,,,,,,,,,,cyan,diamond
187.0,3.0,3.0,0.0,3.0,3.0,385.8028350000495,1.0,1.0,phase_1,,,,,,,,,,,,,gray,flipped triangle
67.0,1.0,1.0,0.0,3.0,3.0,369.3079879999459,1.0,1.0,phase_1,,,,,,,,,,,,,magenta,cross
100.0,2.0,2.0,0.0,4.0,4.0,488.3296309999423,1.0,1.0,phase_1,,,,,,,,,,,,,green,hexagon
180.0,7.0,3.0,1.0,4.0,4.0,381.4096279998011,1.0,1.0,phase_1,,,,,,,,,,,,,orange,square
183.0,3.0,3.0,0.0,3.0,3.0,326.6687410000486,1.0,1.0,phase_1,,,,,,,,,,,,,gray,flipped triangle
0.0,8.0,0.0,1.0,4.0,4.0,297.1517969999695,1.0,1.0,phase_1,,,,,,,,,,,,,yellow,triangle
185.0,3.0,3.0,0.0,3.0,3.0,399.4725530001233,1.0,1.0,phase_1,,,,,,,,,,,,,gray,flipped triangle
197.0,3.0,3.0,0.0,3.0,3.0,330.995964000067,1.0,1.0,phase_1,,,,,,,,,,,,,gray,flipped triangle
0.0,2.0,0.0,0.0,1.0,1.0,271.9938599998386,1.0,1.0,phase_1,,,,,,,,,,,,,green,hexagon
64.0,5.0,1.0,1.0,1.0,1.0,335.6105670000033,1.0,1.0,phase_1,,,,,,,,,,,,,white,circle
113.0,2.0,2.0,0.0,2.0,2.0,275.2616979996674,1.0,1.0,phase_1,,,,,,,,,,,,,green,hexagon
202.0,7.0,3.0,1.0,1.0,1.0,342.442585000299,1.0,1.0,phase_1,,,,,,,,,,,,,orange,square
220.0,3.0,3.0,0.0,3.0,3.0,291.9272740000451,1.0,1.0,phase_1,,,,,,,,,,,,,gray,flipped triangle
0.0,6.0,0.0,1.0,4.0,4.0,245.9208440000111,1.0,1.0,phase_1,,,,,,,,,,,,,cyan,diamond
40.0,5.0,1.0,1.0,3.0,3.0,302.881995000007,1.0,1.0,phase_1,,,,,,,,,,,,,white,circle
111.0,6.0,2.0,1.0,3.0,3.0,275.7837910003218,1.0,1.0,phase_1,,,,,,,,,,,,,cyan,diamond
416.0,8.0,4.0,1.0,2.0,2.0,363.8316799997483,1.0,1.0,phase_1,,,,,,,,,,,,,yellow,triangle
409.0,4.0,4.0,0.0,3.0,3.0,340.87571200007,1.0,1.0,phase_1,,,,,,,,,,,,,blue,I
0.0,6.0,0.0,1.0,2.0,2.0,304.3457250000756,1.0,1.0,phase_1,,,,,,,,,,,,,cyan,diamond
187.0,3.0,3.0,0.0,3.0,3.0,274.6403300002384,1.0,1.0,phase_1,,,,,,,,,,,,,gray,flipped triangle
123.0,6.0,2.0,1.0,2.0,2.0,255.981625000004,1.0,1.0,phase_1,,,,,,,,,,,,,cyan,diamond
92.0,6.0,2.0,1.0,1.0,1.0,308.5211289999279,1.0,1.0,phase_1,,,,,,,,,,,,,cyan,diamond
415.0,4.0,4.0,0.0,3.0,3.0,308.5526469999422,1.0,1.0,phase_1,,,,,,,,,,,,,blue,I
200.0,3.0,3.0,0.0,1.0,1.0,334.6575849996043,1.0,1.0,phase_1,,,,,,,,,,,,,gray,flipped triangle
93.0,2.0,2.0,0.0,2.0,2.0,386.75405799995127,2.0,1.0,phase_1,,,,,,,,,,,,,green,hexagon
70.0,5.0,1.0,1.0,4.0,4.0,288.3300550001877,2.0,1.0,phase_1,,,,,,,,,,,,,white,circle
104.0,6.0,2.0,1.0,3.0,3.0,256.3059789999897,2.0,1.0,phase_1,,,,,,,,,,,,,cyan,diamond
85.0,2.0,2.0,0.0,3.0,3.0,304.6289330000036,2.0,1.0,phase_1,,,,,,,,,,,,,green,hexagon
414.0,8.0,4.0,1.0,4.0,4.0,355.6526360002863,2.0,1.0,phase_1,,,,,,,,,,,,,yellow,triangle
68.0,1.0,1.0,0.0,4.0,4.0,507.91306700011774,2.0,1.0,phase_1,,,,,,,,,,,,,magenta,cross
37.0,1.0,1.0,0.0,3.0,3.0,328.3552419998159,2.0,1.0,phase_1,,,,,,,,,,,,,magenta,cross
50.0,5.0,1.0,1.0,1.0,1.0,346.7680459998519,2.0,1.0,phase_1,,,,,,,,,,,,,white,circle
102.0,6.0,2.0,1.0,4.0,4.0,336.2803039999562,2.0,1.0,phase_1,,,,,,,,,,,,,cyan,diamond
399.0,8.0,4.0,1.0,4.0,4.0,276.1493359998894,2.0,1.0,phase_1,,,,,,,,,,,,,yellow,triangle
49.0,1.0,1.0,0.0,2.0,2.0,371.370033000403,2.0,1.0,phase_1,,,,,,,,,,,,,magenta,cross
204.0,3.0,3.0,0.0,1.0,1.0,354.0388930000517,2.0,1.0,phase_1,,,,,,,,,,,,,gray,flipped triangle
217.0,7.0,3.0,1.0,4.0,4.0,275.9458229998017,2.0,1.0,phase_1,,,,,,,,,,,,,orange,square
422.0,8.0,4.0,1.0,1.0,1.0,259.8051949998989,2.0,1.0,phase_1,,,,,,,,,,,,,yellow,triangle
57.0,5.0,1.0,1.0,3.0,3.0,304.4944409998606,2.0,1.0,phase_1,,,,,,,,,,,,,white,circle
82.0,6.0,2.0,1.0,1.0,1.0,263.3452909999505,2.0,1.0,phase_1,,,,,,,,,,,,,cyan,diamond
113.0,2.0,2.0,0.0,3.0,3.0,422.667070999978,2.0,1.0,phase_1,,,,,,,,,,,,,green,hexagon
194.0,7.0,3.0,1.0,4.0,4.0,461.8949289997545,2.0,1.0,phase_1,,,,,,,,,,,,,orange,square
120.0,6.0,2.0,1.0,1.0,1.0,256.6379869999764,2.0,1.0,phase_1,,,,,,,,,,,,,cyan,diamond
378.0,4.0,4.0,0.0,2.0,2.0,311.3455430002432,2.0,1.0,phase_1,,,,,,,,,,,,,blue,I
379.0,8.0,4.0,1.0,4.0,4.0,268.0033860001458,2.0,1.0,phase_1,,,,,,,,,,,,,yellow,triangle
100.0,6.0,2.0,1.0,4.0,4.0,263.185028999942,2.0,1.0,phase_1,,,,,,,,,,,,,cyan,diamond
202.0,3.0,3.0,0.0,4.0,4.0,247.0438830000603,2.0,1.0,phase_1,,,,,,,,,,,,,gray,flipped triangle
91.0,2.0,2.0,0.0,2.0,2.0,323.5009909999462,2.0,1.0,phase_1,,,,,,,,,,,,,green,hexagon
0.0,4.0,0.0,0.0,2.0,2.0,320.3465930000675,2.0,1.0,phase_1,,,,,,,,,,,,,blue,I
380.0,8.0,4.0,1.0,3.0,3.0,341.2223599998469,2.0,1.0,phase_1,,,,,,,,,,,,,yellow,triangle
83.0,2.0,2.0,0.0,1.0,1.0,286.7773600000873,2.0,1.0,phase_1,,,,,,,,,,,,,green,hexagon
187.0,7.0,3.0,1.0,4.0,4.0,308.8192609998259,2.0,1.0,phase_1,,,,,,,,,,,,,orange,square
401.0,8.0,4.0,1.0,2.0,2.0,303.6302680002336,2.0,1.0,phase_1,,,,,,,,,,,,,yellow,triangle
186.0,7.0,3.0,1.0,1.0,1.0,298.6228149998169,2.0,1.0,phase_1,,,,,,,,,,,,,orange,square
222.0,3.0,3.0,0.0,4.0,4.0,279.0682849999939,2.0,1.0,phase_1,,,,,,,,,,,,,gray,flipped triangle
198.0,3.0,3.0,0.0,3.0,3.0,317.9964629998721,2.0,1.0,phase_1,,,,,,,,,,,,,gray,flipped triangle
200.0,7.0,3.0,1.0,3.0,3.0,311.2584629998309,2.0,1.0,phase_1,,,,,,,,,,,,,orange,square
34.0,5.0,1.0,1.0,4.0,4.0,279.9284179995993,2.0,1.0,phase_1,,,,,,,,,,,,,white,circle
47.0,1.0,1.0,0.0,1.0,1.0,255.045083999903,2.0,1.0,phase_1,,,,,,,,,,,,,magenta,cross
66.0,5.0,1.0,1.0,2.0,2.0,522.3819110001386,2.0,1.0,phase_1,,,,,,,,,,,,,white,circle
201.0,7.0,3.0,1.0,1.0,1.0,473.8689360001444,2.0,1.0,phase_1,,,,,,,,,,,,,orange,square
76.0,2.0,2.0,0.0,1.0,1.0,336.8196179999358,2.0,1.0,phase_1,,,,,,,,,,,,,green,hexagon
74.0,5.0,1.0,1.0,3.0,3.0,314.9683059996278,2.0,1.0,phase_1,,,,,,,,,,,,,white,circle
0.0,4.0,0.0,0.0,2.0,2.0,284.691266000209,2.0,1.0,phase_1,,,,,,,,,,,,,blue,I
91.0,6.0,2.0,1.0,2.0,2.0,332.4335239999527,2.0,1.0,phase_1,,,,,,,,,,,,,cyan,diamond
96.0,6.0,2.0,1.0,2.0,2.0,295.1218309999603,2.0,1.0,phase_1,,,,,,,,,,,,,cyan,diamond
83.0,6.0,2.0,1.0,1.0,1.0,264.7259459999986,2.0,1.0,phase_1,,,,,,,,,,,,,cyan,diamond
47.0,5.0,1.0,1.0,3.0,3.0,290.79293399991,2.0,1.0,phase_1,,,,,,,,,,,,,white,circle
69.0,5.0,1.0,1.0,1.0,1.0,258.4900389997528,2.0,1.0,phase_1,,,,,,,,,,,,,white,circle
0.0,2.0,0.0,0.0,4.0,4.0,268.9135639998312,2.0,1.0,phase_1,,,,,,,,,,,,,green,hexagon
28.0,1.0,1.0,0.0,2.0,2.0,319.9815929997385,2.0,1.0,phase_1,,,,,,,,,,,,,magenta,cross
0.0,8.0,0.0,1.0,3.0,3.0,355.8431930000552,2.0,1.0,phase_1,,,,,,,,,,,,,yellow,triangle
397.0,4.0,4.0,0.0,2.0,2.0,299.7272040001917,2.0,1.0,phase_1,,,,,,,,,,,,,blue,I
416.0,4.0,4.0,0.0,1.0,1.0,405.6441639995682,2.0,1.0,phase_1,,,,,,,,,,,,,blue,I
0.0,6.0,0.0,1.0,1.0,1.0,276.5763020001941,2.0,1.0,phase_1,,,,,,,,,,,,,cyan,diamond
49.0,5.0,1.0,1.0,4.0,4.0,336.5260089999538,2.0,1.0,phase_1,,,,,,,,,,,,,white,circle
106.0,6.0,2.0,1.0,1.0,1.0,253.1267889999071,2.0,1.0,phase_1,,,,,,,,,,,,,cyan,diamond
125.0,2.0,2.0,0.0,2.0,2.0,323.6167280001609,2.0,1.0,phase_1,,,,,,,,,,,,,green,hexagon
0.0,2.0,0.0,0.0,2.0,2.0,486.0323640000388,2.0,1.0,phase_1,,,,,,,,,,,,,green,hexagon
96.0,2.0,2.0,0.0,3.0,3.0,295.0721130000602,2.0,1.0,phase_1,,,,,,,,,,,,,green,hexagon
0.0,5.0,0.0,1.0,3.0,3.0,340.4394069998488,2.0,1.0,phase_1,,,,,,,,,,,,,white,circle
108.0,2.0,2.0,0.0,3.0,3.0,317.0258100003593,2.0,1.0,phase_1,,,,,,,,,,,,,green,hexagon
29.0,1.0,1.0,0.0,2.0,2.0,305.4456750001009,2.0,1.0,phase_1,,,,,,,,,,,,,magenta,cross
29.0,1.0,1.0,0.0,4.0,4.0,279.4487569999546,2.0,1.0,phase_1,,,,,,,,,,,,,magenta,cross
212.0,7.0,3.0,1.0,1.0,1.0,233.630580999943,2.0,1.0,phase_1,,,,,,,,,,,,,orange,square
0.0,3.0,0.0,0.0,3.0,3.0,292.3359469996285,2.0,1.0,phase_1,,,,,,,,,,,,,gray,flipped triangle
212.0,7.0,3.0,1.0,1.0,1.0,351.5694630000325,2.0,1.0,phase_1,,,,,,,,,,,,,orange,square
222.0,7.0,3.0,1.0,3.0,3.0,291.7720139998891,2.0,1.0,phase_1,,,,,,,,,,,,,orange,square
401.0,4.0,4.0,0.0,2.0,2.0,265.817970000171,2.0,1.0,phase_1,,,,,,,,,,,,,blue,I
380.0,4.0,4.0,0.0,4.0,4.0,299.9867889998313,2.0,1.0,phase_1,,,,,,,,,,,,,blue,I
419.0,4.0,4.0,0.0,1.0,1.0,426.0706660002142,2.0,1.0,phase_1,,,,,,,,,,,,,blue,I
200.0,7.0,3.0,1.0,2.0,2.0,290.4922230000011,2.0,1.0,phase_1,,,,,,,,,,,,,orange,square
0.0,8.0,0.0,1.0,1.0,1.0,319.873047999863,2.0,1.0,phase_1,,,,,,,,,,,,,yellow,triangle
78.0,2.0,2.0,0.0,2.0,2.0,275.4616990000613,2.0,1.0,phase_1,,,,,,,,,,,,,green,hexagon
414.0,8.0,4.0,1.0,3.0,3.0,320.0801160000992,2.0,1.0,phase_1,,,,,,,,,,,,,yellow,triangle
0.0,5.0,0.0,1.0,3.0,3.0,278.5679859998708,2.0,1.0,phase_1,,,,,,,,,,,,,white,circle
71.0,5.0,1.0,1.0,4.0,4.0,392.553983000198,2.0,1.0,phase_1,,,,,,,,,,,,,white,circle
107.0,6.0,2.0,1.0,4.0,4.0,357.8849139998965,2.0,1.0,phase_1,,,,,,,,,,,,,cyan,diamond
57.0,1.0,1.0,0.0,2.0,2.0,266.0240609998254,2.0,1.0,phase_1,,,,,,,,,,,,,magenta,cross
68.0,5.0,1.0,1.0,1.0,1.0,333.7849930003358,2.0,1.0,phase_1,,,,,,,,,,,,,white,circle
417.0,4.0,4.0,0.0,1.0,1.0,269.3362210002306,2.0,1.0,phase_1,,,,,,,,,,,,,blue,I
222.0,3.0,3.0,0.0,1.0,1.0,308.0853980000029,2.0,1.0,phase_1,,,,,,,,,,,,,gray,flipped triangle
392.0,4.0,4.0,0.0,2.0,2.0,303.3332619997964,2.0,1.0,phase_1,,,,,,,,,,,,,blue,I
220.0,7.0,3.0,1.0,4.0,4.0,349.0034189999278,2.0,1.0,phase_1,,,,,,,,,,,,,orange,square
213.0,3.0,3.0,0.0,2.0,2.0,312.6938700002029,2.0,1.0,phase_1,,,,,,,,,,,,,gray,flipped triangle
414.0,4.0,4.0,0.0,1.0,1.0,309.5182619999832,2.0,1.0,phase_1,,,,,,,,,,,,,blue,I
410.0,8.0,4.0,1.0,2.0,2.0,425.1709749996735,2.0,1.0,phase_1,,,,,,,,,,,,,yellow,triangle
0.0,1.0,0.0,0.0,2.0,2.0,322.7745600001981,2.0,1.0,phase_1,,,,,,,,,,,,,magenta,cross
71.0,1.0,1.0,0.0,2.0,2.0,257.5705880003625,2.0,1.0,phase_1,,,,,,,,,,,,,magenta,cross
34.0,5.0,1.0,1.0,1.0,1.0,348.820507000255,2.0,1.0,phase_1,,,,,,,,,,,,,white,circle
0.0,2.0,0.0,0.0,3.0,3.0,375.7231710001179,2.0,1.0,phase_1,,,,,,,,,,,,,green,hexagon
85.0,2.0,2.0,0.0,4.0,4.0,301.4273590001721,2.0,1.0,phase_1,,,,,,,,,,,,,green,hexagon
28.0,1.0,1.0,0.0,2.0,2.0,578.9916290000292,2.0,1.0,phase_1,,,,,,,,,,,,,magenta,cross
192.0,3.0,3.0,0.0,4.0,4.0,343.1872470000598,2.0,1.0,phase_1,,,,,,,,,,,,,gray,flipped triangle
399.0,4.0,4.0,0.0,3.0,3.0,338.9763740001399,2.0,1.0,phase_1,,,,,,,,,,,,,blue,I
180.0,3.0,3.0,0.0,2.0,2.0,313.8001370002712,2.0,1.0,phase_1,,,,,,,,,,,,,gray,flipped triangle
70.0,5.0,1.0,1.0,2.0,2.0,331.1495880002439,2.0,1.0,phase_1,,,,,,,,,,,,,white,circle
187.0,7.0,3.0,1.0,4.0,4.0,282.2547209998447,2.0,1.0,phase_1,,,,,,,,,,,,,orange,square
395.0,4.0,4.0,0.0,4.0,4.0,309.31588000021287,2.0,1.0,phase_1,,,,,,,,,,,,,blue,I
0.0,3.0,0.0,0.0,2.0,2.0,275.3951129998313,2.0,1.0,phase_1,,,,,,,,,,,,,gray,flipped triangle
404.0,4.0,4.0,0.0,2.0,2.0,294.5212040003753,2.0,1.0,phase_1,,,,,,,,,,,,,blue,I
0.0,3.0,0.0,0.0,2.0,2.0,238.2293960004062,2.0,1.0,phase_1,,,,,,,,,,,,,gray,flipped triangle
206.0,7.0,3.0,1.0,1.0,1.0,465.0779819999115,2.0,1.0,phase_1,,,,,,,,,,,,,orange,square
379.0,4.0,4.0,0.0,4.0,4.0,529.9569720000363,2.0,1.0,phase_1,,,,,,,,,,,,,blue,I
43.0,1.0,1.0,0.0,3.0,3.0,408.5462849998293,3.0,1.0,phase_1,,,,,,,,,,,,,magenta,cross
0.0,2.0,0.0,0.0,2.0,2.0,331.8725799999811,3.0,1.0,phase_1,,,,,,,,,,,,,green,hexagon
0.0,6.0,0.0,1.0,2.0,2.0,259.4024489999356,3.0,1.0,phase_1,,,,,,,,,,,,,cyan,diamond
184.0,7.0,3.0,1.0,2.0,2.0,292.7367330003108,3.0,1.0,phase_1,,,,,,,,,,,,,orange,square
423.0,4.0,4.0,0.0,2.0,2.0,285.5089889999362,3.0,1.0,phase_1,,,,,,,,,,,,,blue,I
381.0,8.0,4.0,1.0,4.0,4.0,295.335900000282,3.0,1.0,phase_1,,,,,,,,,,,,,yellow,triangle
0.0,3.0,0.0,0.0,4.0,4.0,304.5973809998941,3.0,1.0,phase_1,,,,,,,,,,,,,gray,flipped triangle
0.0,5.0,0.0,1.0,1.0,1.0,274.8674650001703,3.0,1.0,phase_1,,,,,,,,,,,,,white,circle
0.0,7.0,0.0,1.0,2.0,2.0,438.5859060002985,3.0,1.0,phase_1,,,,,,,,,,,,,orange,square
79.0,2.0,2.0,0.0,4.0,4.0,254.30580700003702,3.0,1.0,phase_1,,,,,,,,,,,,,green,hexagon
67.0,5.0,1.0,1.0,4.0,4.0,342.8786300000865,3.0,1.0,phase_1,,,,,,,,,,,,,white,circle
93.0,6.0,2.0,1.0,2.0,2.0,279.2965120002009,3.0,1.0,phase_1,,,,,,,,,,,,,cyan,diamond
178.0,7.0,3.0,1.0,2.0,2.0,293.36023399991967,3.0,1.0,phase_1,,,,,,,,,,,,,orange,square
388.0,8.0,4.0,1.0,2.0,2.0,280.6450170000971,3.0,1.0,phase_1,,,,,,,,,,,,,yellow,triangle
71.0,1.0,1.0,0.0,4.0,4.0,399.5950420003282,3.0,1.0,phase_1,,,,,,,,,,,,,magenta,cross
176.0,3.0,3.0,0.0,4.0,4.0,467.8734369999802,3.0,1.0,phase_1,,,,,,,,,,,,,gray,flipped triangle
110.0,6.0,2.0,1.0,4.0,4.0,503.1367700003102,3.0,1.0,phase_1,,,,,,,,,,,,,cyan,diamond
400.0,8.0,4.0,1.0,1.0,1.0,228.2192640000175,3.0,1.0,phase_1,,,,,,,,,,,,,yellow,triangle
0.0,1.0,0.0,0.0,1.0,1.0,275.204845999724,3.0,1.0,phase_1,,,,,,,,,,,,,magenta,cross
111.0,2.0,2.0,0.0,1.0,1.0,284.9892740000541,3.0,1.0,phase_1,,,,,,,,,,,,,green,hexagon
106.0,2.0,2.0,0.0,4.0,4.0,270.2258190001885,3.0,1.0,phase_1,,,,,,,,,,,,,green,hexagon
423.0,8.0,4.0,1.0,4.0,4.0,294.0588960000241,3.0,1.0,phase_1,,,,,,,,,,,,,yellow,triangle
211.0,3.0,3.0,0.0,1.0,1.0,287.8737169999112,3.0,1.0,phase_1,,,,,,,,,,,,,gray,flipped triangle
94.0,6.0,2.0,1.0,4.0,4.0,263.7647540000216,3.0,1.0,phase_1,,,,,,,,,,,,,cyan,diamond
0.0,7.0,0.0,1.0,1.0,1.0,223.05218200017399,3.0,1.0,phase_1,,,,,,,,,,,,,orange,square
0.0,7.0,0.0,1.0,3.0,3.0,388.0953479997515,3.0,1.0,phase_1,,,,,,,,,,,,,orange,square
0.0,8.0,0.0,1.0,1.0,1.0,316.4071090000107,3.0,1.0,phase_1,,,,,,,,,,,,,yellow,triangle
419.0,8.0,4.0,1.0,3.0,3.0,298.9135289999467,3.0,1.0,phase_1,,,,,,,,,,,,,yellow,triangle
379.0,8.0,4.0,1.0,3.0,3.0,299.63235100012747,3.0,1.0,phase_1,,,,,,,,,,,,,yellow,triangle
0.0,1.0,0.0,0.0,1.0,1.0,246.1347179996664,3.0,1.0,phase_1,,,,,,,,,,,,,magenta,cross
212.0,3.0,3.0,0.0,1.0,1.0,324.2689690000588,3.0,1.0,phase_1,,,,,,,,,,,,,gray,flipped triangle
70.0,1.0,1.0,0.0,2.0,2.0,328.2545730003221,3.0,1.0,phase_1,,,,,,,,,,,,,magenta,cross
392.0,8.0,4.0,1.0,2.0,2.0,274.1233450001346,3.0,1.0,phase_1,,,,,,,,,,,,,yellow,triangle
0.0,7.0,0.0,1.0,2.0,2.0,282.3011880000194,3.0,1.0,phase_1,,,,,,,,,,,,,orange,square
392.0,8.0,4.0,1.0,1.0,1.0,329.4211800002813,3.0,1.0,phase_1,,,,,,,,,,,,,yellow,triangle
0.0,4.0,0.0,0.0,4.0,4.0,267.0425669998622,3.0,1.0,phase_1,,,,,,,,,,,,,blue,I
71.0,5.0,1.0,1.0,2.0,2.0,241.0204430002522,3.0,1.0,phase_1,,,,,,,,,,,,,white,circle
423.0,8.0,4.0,1.0,1.0,1.0,226.85288699995,3.0,1.0,phase_1,,,,,,,,,,,,,yellow,triangle
187.0,7.0,3.0,1.0,3.0,3.0,370.5351769999652,3.0,1.0,phase_1,,,,,,,,,,,,,orange,square
388.0,8.0,4.0,1.0,3.0,3.0,314.985224999873,3.0,1.0,phase_1,,,,,,,,,,,,,yellow,triangle
219.0,7.0,3.0,1.0,3.0,3.0,266.7782369999258,3.0,1.0,phase_1,,,,,,,,,,,,,orange,square
378.0,8.0,4.0,1.0,1.0,1.0,227.9127500000868,3.0,1.0,phase_1,,,,,,,,,,,,,yellow,triangle
422.0,4.0,4.0,0.0,1.0,1.0,324.3261939996955,3.0,1.0,phase_1,,,,,,,,,,,,,blue,I
82.0,6.0,2.0,1.0,4.0,4.0,319.9821119997068,3.0,1.0,phase_1,,,,,,,,,,,,,cyan,diamond
197.0,7.0,3.0,1.0,3.0,3.0,283.8830320001761,3.0,1.0,phase_1,,,,,,,,,,,,,orange,square
184.0,3.0,3.0,0.0,3.0,3.0,336.4608560000306,3.0,1.0,phase_1,,,,,,,,,,,,,gray,flipped triangle
206.0,3.0,3.0,0.0,1.0,1.0,315.0292149998677,3.0,1.0,phase_1,,,,,,,,,,,,,gray,flipped triangle
0.0,7.0,0.0,1.0,2.0,2.0,330.25112299992537,3.0,1.0,phase_1,,,,,,,,,,,,,orange,square
375.0,8.0,4.0,1.0,2.0,2.0,305.2786880002713,3.0,1.0,phase_1,,,,,,,,,,,,,yellow,triangle
0.0,4.0,0.0,0.0,1.0,1.0,312.2571880003306,3.0,1.0,phase_1,,,,,,,,,,,,,blue,I
378.0,8.0,4.0,1.0,2.0,2.0,393.9838590004001,3.0,1.0,phase_1,,,,,,,,,,,,,yellow,triangle
0.0,6.0,0.0,1.0,1.0,1.0,471.2298070003271,3.0,1.0,phase_1,,,,,,,,,,,,,cyan,diamond
118.0,6.0,2.0,1.0,3.0,3.0,310.0859179999133,3.0,1.0,phase_1,,,,,,,,,,,,,cyan,diamond
221.0,3.0,3.0,0.0,4.0,4.0,247.9320150000603,3.0,1.0,phase_1,,,,,,,,,,,,,gray,flipped triangle
49.0,1.0,1.0,0.0,3.0,3.0,306.8341329999384,3.0,1.0,phase_1,,,,,,,,,,,,,magenta,cross
125.0,6.0,2.0,1.0,2.0,2.0,242.481294999834,3.0,1.0,phase_1,,,,,,,,,,,,,cyan,diamond
0.0,4.0,0.0,0.0,3.0,3.0,323.994792999656,3.0,1.0,phase_1,,,,,,,,,,,,,blue,I
0.0,4.0,0.0,0.0,3.0,3.0,338.8073280002572,3.0,1.0,phase_1,,,,,,,,,,,,,blue,I
0.0,5.0,0.0,1.0,3.0,3.0,274.910521000038,3.0,1.0,phase_1,,,,,,,,,,,,,white,circle
123.0,2.0,2.0,0.0,4.0,4.0,347.4781390000316,3.0,1.0,phase_1,,,,,,,,,,,,,green,hexagon
401.0,4.0,4.0,0.0,2.0,2.0,295.2504100003352,3.0,1.0,phase_1,,,,,,,,,,,,,blue,I
115.0,6.0,2.0,1.0,2.0,2.0,273.9978029999292,3.0,1.0,phase_1,,,,,,,,,,,,,cyan,diamond
381.0,4.0,4.0,0.0,3.0,3.0,303.3810689998972,3.0,1.0,phase_1,,,,,,,,,,,,,blue,I
379.0,4.0,4.0,0.0,2.0,2.0,316.6804789998423,3.0,1.0,phase_1,,,,,,,,,,,,,blue,I
193.0,3.0,3.0,0.0,3.0,3.0,338.1026639999618,3.0,1.0,phase_1,,,,,,,,,,,,,gray,flipped triangle
409.0,4.0,4.0,0.0,4.0,4.0,341.7284690003725,3.0,1.0,phase_1,,,,,,,,,,,,,blue,I
198.0,7.0,3.0,1.0,2.0,2.0,270.8118269997612,3.0,1.0,phase_1,,,,,,,,,,,,,orange,square
0.0,2.0,0.0,0.0,3.0,3.0,260.730560000411,3.0,1.0,phase_1,,,,,,,,,,,,,green,hexagon
36.0,1.0,1.0,0.0,3.0,3.0,343.2466230001409,3.0,1.0,phase_1,,,,,,,,,,,,,magenta,cross
42.0,1.0,1.0,0.0,1.0,1.0,241.7391119997773,3.0,1.0,phase_1,,,,,,,,,,,,,magenta,cross
59.0,5.0,1.0,1.0,3.0,3.0,289.3995379999978,3.0,1.0,phase_1,,,,,,,,,,,,,white,circle
410.0,4.0,4.0,0.0,4.0,4.0,332.0491420004146,3.0,1.0,phase_1,,,,,,,,,,,,,blue,I
91.0,6.0,2.0,1.0,3.0,3.0,310.1775129998714,3.0,1.0,phase_1,,,,,,,,,,,,,cyan,diamond
28.0,5.0,1.0,1.0,3.0,3.0,249.3294729997615,3.0,1.0,phase_1,,,,,,,,,,,,,white,circle
0.0,7.0,0.0,1.0,1.0,1.0,485.7076069997674,3.0,1.0,phase_1,,,,,,,,,,,,,orange,square
375.0,4.0,4.0,0.0,4.0,4.0,281.4741560000584,3.0,1.0,phase_1,,,,,,,,,,,,,blue,I
43.0,5.0,1.0,1.0,2.0,2.0,325.6658259997493,3.0,1.0,phase_1,,,,,,,,,,,,,white,circle
118.0,6.0,2.0,1.0,3.0,3.0,386.5644389998124,3.0,1.0,phase_1,,,,,,,,,,,,,cyan,diamond
106.0,6.0,2.0,1.0,2.0,2.0,336.9320000001607,3.0,1.0,phase_1,,,,,,,,,,,,,cyan,diamond
113.0,6.0,2.0,1.0,3.0,3.0,271.0105780001868,3.0,1.0,phase_1,,,,,,,,,,,,,cyan,diamond
0.0,2.0,0.0,0.0,1.0,1.0,278.5999390002871,3.0,1.0,phase_1,,,,,,,,,,,,,green,hexagon
122.0,6.0,2.0,1.0,1.0,1.0,338.5440400002153,3.0,1.0,phase_1,,,,,,,,,,,,,cyan,diamond
107.0,2.0,2.0,0.0,4.0,4.0,318.5811600001216,3.0,1.0,phase_1,,,,,,,,,,,,,green,hexagon
28.0,5.0,1.0,1.0,4.0,4.0,352.0954519999577,3.0,1.0,phase_1,,,,,,,,,,,,,white,circle
204.0,7.0,3.0,1.0,4.0,4.0,285.2527879999798,3.0,1.0,phase_1,,,,,,,,,,,,,orange,square
392.0,8.0,4.0,1.0,2.0,2.0,311.3919180000266,3.0,1.0,phase_1,,,,,,,,,,,,,yellow,triangle
37.0,5.0,1.0,1.0,1.0,1.0,461.6656179996425,3.0,1.0,phase_1,,,,,,,,,,,,,white,circle
30.0,5.0,1.0,1.0,1.0,1.0,342.4429560000135,3.0,1.0,phase_1,,,,,,,,,,,,,white,circle
42.0,5.0,1.0,1.0,1.0,1.0,250.49380199970977,3.0,1.0,phase_1,,,,,,,,,,,,,white,circle
0.0,8.0,0.0,1.0,1.0,1.0,284.7172970000429,3.0,1.0,phase_1,,,,,,,,,,,,,yellow,triangle
221.0,7.0,3.0,1.0,2.0,2.0,294.3869229998199,3.0,1.0,phase_1,,,,,,,,,,,,,orange,square
85.0,6.0,2.0,1.0,2.0,2.0,231.1301039999307,3.0,1.0,phase_1,,,,,,,,,,,,,cyan,diamond
59.0,5.0,1.0,1.0,2.0,2.0,331.8084950001321,3.0,1.0,phase_1,,,,,,,,,,,,,white,circle
99.0,2.0,2.0,0.0,2.0,2.0,293.0613670000639,3.0,1.0,phase_1,,,,,,,,,,,,,green,hexagon
395.0,8.0,4.0,1.0,3.0,3.0,244.7903440001937,3.0,1.0,phase_1,,,,,,,,,,,,,yellow,triangle
76.0,6.0,2.0,1.0,1.0,1.0,285.37927499974097,3.0,1.0,phase_1,,,,,,,,,,,,,cyan,diamond
102.0,2.0,2.0,0.0,3.0,3.0,269.7563840001749,3.0,1.0,phase_1,,,,,,,,,,,,,green,hexagon
0.0,3.0,0.0,0.0,4.0,4.0,441.8889170001421,3.0,1.0,phase_1,,,,,,,,,,,,,gray,flipped triangle
0.0,3.0,0.0,0.0,4.0,4.0,349.8442250001972,3.0,1.0,phase_1,,,,,,,,,,,,,gray,flipped triangle
38.0,1.0,1.0,0.0,1.0,1.0,315.9237489999213,3.0,1.0,phase_1,,,,,,,,,,,,,magenta,cross
0.0,5.0,0.0,1.0,2.0,2.0,393.8092739999774,4.0,1.0,phase_1,,,,,,,,,,,,,white,circle
59.0,1.0,1.0,0.0,4.0,4.0,316.2528500001826,4.0,1.0,phase_1,,,,,,,,,,,,,magenta,cross
39.0,5.0,1.0,1.0,2.0,2.0,276.4916269998139,4.0,1.0,phase_1,,,,,,,,,,,,,white,circle
0.0,8.0,0.0,1.0,1.0,1.0,354.4506009998258,4.0,1.0,phase_1,,,,,,,,,,,,,yellow,triangle
415.0,8.0,4.0,1.0,3.0,3.0,242.4298439996164,4.0,1.0,phase_1,,,,,,,,,,,,,yellow,triangle
0.0,6.0,0.0,1.0,1.0,1.0,266.7785379999259,4.0,1.0,phase_1,,,,,,,,,,,,,cyan,diamond
408.0,8.0,4.0,1.0,1.0,1.0,290.3283089999604,4.0,1.0,phase_1,,,,,,,,,,,,,yellow,triangle
211.0,7.0,3.0,1.0,3.0,3.0,282.0306529997651,4.0,1.0,phase_1,,,,,,,,,,,,,orange,square
392.0,4.0,4.0,0.0,3.0,3.0,333.3510870002101,4.0,1.0,phase_1,,,,,,,,,,,,,blue,I
423.0,4.0,4.0,0.0,1.0,1.0,298.024176999661,4.0,1.0,phase_1,,,,,,,,,,,,,blue,I
0.0,6.0,0.0,1.0,1.0,1.0,304.4701750000058,4.0,1.0,phase_1,,,,,,,,,,,,,cyan,diamond
120.0,2.0,2.0,0.0,1.0,1.0,238.3924249998017,4.0,1.0,phase_1,,,,,,,,,,,,,green,hexagon
182.0,3.0,3.0,0.0,4.0,4.0,331.0782050002672,4.0,1.0,phase_1,,,,,,,,,,,,,gray,flipped triangle
53.0,5.0,1.0,1.0,2.0,2.0,301.1485560000437,4.0,1.0,phase_1,,,,,,,,,,,,,white,circle
38.0,5.0,1.0,1.0,4.0,4.0,245.9675659997628,4.0,1.0,phase_1,,,,,,,,,,,,,white,circle
183.0,7.0,3.0,1.0,3.0,3.0,308.2326849998935,4.0,1.0,phase_1,,,,,,,,,,,,,orange,square
216.0,3.0,3.0,0.0,4.0,4.0,309.6768600003088,4.0,1.0,phase_1,,,,,,,,,,,,,gray,flipped triangle
224.0,3.0,3.0,0.0,4.0,4.0,279.5032230001197,4.0,1.0,phase_1,,,,,,,,,,,,,gray,flipped triangle
388.0,4.0,4.0,0.0,3.0,3.0,314.0709190001871,4.0,1.0,phase_1,,,,,,,,,,,,,blue,I
70.0,1.0,1.0,0.0,3.0,3.0,295.2813510000851,4.0,1.0,phase_1,,,,,,,,,,,,,magenta,cross
30.0,1.0,1.0,0.0,1.0,1.0,460.4661799999121,4.0,1.0,phase_1,,,,,,,,,,,,,magenta,cross
222.0,7.0,3.0,1.0,2.0,2.0,669.8845350001648,4.0,1.0,phase_1,,,,,,,,,,,,,orange,square
96.0,2.0,2.0,0.0,4.0,4.0,291.6427919999478,4.0,1.0,phase_1,,,,,,,,,,,,,green,hexagon
187.0,3.0,3.0,0.0,1.0,1.0,453.291887999967,4.0,1.0,phase_1,,,,,,,,,,,,,gray,flipped triangle
404.0,8.0,4.0,1.0,2.0,2.0,319.5628059997943,4.0,1.0,phase_1,,,,,,,,,,,,,yellow,triangle
97.0,6.0,2.0,1.0,1.0,1.0,292.8036419998534,4.0,1.0,phase_1,,,,,,,,,,,,,cyan,diamond
395.0,4.0,4.0,0.0,3.0,3.0,269.8717990001569,4.0,1.0,phase_1,,,,,,,,,,,,,blue,I
0.0,8.0,0.0,1.0,4.0,4.0,320.5968160000338,4.0,1.0,phase_1,,,,,,,,,,,,,yellow,triangle
0.0,1.0,0.0,0.0,3.0,3.0,327.8571199998623,4.0,2.0,phase_1,,,,,,,,,,,,,magenta,cross
216.0,7.0,3.0,1.0,4.0,4.0,364.3301990000509,4.0,1.0,phase_1,,,,,,,,,,,,,orange,square
0.0,3.0,0.0,0.0,3.0,3.0,290.5098070000349,4.0,1.0,phase_1,,,,,,,,,,,,,gray,flipped triangle
40.0,1.0,1.0,0.0,3.0,3.0,323.2948320001014,4.0,1.0,phase_1,,,,,,,,,,,,,magenta,cross
74.0,1.0,1.0,0.0,4.0,4.0,349.6400720000565,4.0,1.0,phase_1,,,,,,,,,,,,,magenta,cross
40.0,5.0,1.0,1.0,2.0,2.0,266.7327050003223,4.0,1.0,phase_1,,,,,,,,,,,,,white,circle
0.0,6.0,0.0,1.0,3.0,3.0,347.7198949999547,4.0,1.0,phase_1,,,,,,,,,,,,,cyan,diamond
39.0,1.0,1.0,0.0,1.0,1.0,280.037515999993,4.0,1.0,phase_1,,,,,,,,,,,,,magenta,cross
30.0,1.0,1.0,0.0,2.0,2.0,428.5930159999225,4.0,1.0,phase_1,,,,,,,,,,,,,magenta,cross
115.0,2.0,2.0,0.0,1.0,1.0,308.9192990000811,4.0,1.0,phase_1,,,,,,,,,,,,,green,hexagon
66.0,1.0,1.0,0.0,2.0,2.0,313.1049130001884,4.0,1.0,phase_1,,,,,,,,,,,,,magenta,cross
99.0,6.0,2.0,1.0,3.0,3.0,306.4243039998473,4.0,1.0,phase_1,,,,,,,,,,,,,cyan,diamond
29.0,5.0,1.0,1.0,4.0,4.0,348.2507110002188,4.0,1.0,phase_1,,,,,,,,,,,,,white,circle
0.0,3.0,0.0,0.0,1.0,1.0,436.8921800000862,4.0,1.0,phase_1,,,,,,,,,,,,,gray,flipped triangle
58.0,5.0,1.0,1.0,1.0,1.0,288.9124520002042,4.0,1.0,phase_1,,,,,,,,,,,,,white,circle
377.0,8.0,4.0,1.0,3.0,3.0,293.5929739996936,4.0,1.0,phase_1,,,,,,,,,,,,,yellow,triangle
34.0,1.0,1.0,0.0,4.0,4.0,359.4480349997866,4.0,1.0,phase_1,,,,,,,,,,,,,magenta,cross
111.0,6.0,2.0,1.0,4.0,4.0,344.9786649998714,4.0,1.0,phase_1,,,,,,,,,,,,,cyan,diamond
106.0,2.0,2.0,0.0,2.0,2.0,255.96083599975827,4.0,1.0,phase_1,,,,,,,,,,,,,green,hexagon
378.0,4.0,4.0,0.0,2.0,2.0,306.0917540001355,4.0,1.0,phase_1,,,,,,,,,,,,,blue,I
388.0,4.0,4.0,0.0,1.0,1.0,292.7977059998738,4.0,1.0,phase_1,,,,,,,,,,,,,blue,I
79.0,6.0,2.0,1.0,4.0,4.0,336.3470539998161,4.0,1.0,phase_1,,,,,,,,,,,,,cyan,diamond
401.0,8.0,4.0,1.0,1.0,1.0,291.2766110002849,4.0,1.0,phase_1,,,,,,,,,,,,,yellow,triangle
0.0,4.0,0.0,0.0,2.0,2.0,303.8052679999055,4.0,1.0,phase_1,,,,,,,,,,,,,blue,I
0.0,7.0,0.0,1.0,1.0,1.0,289.1844730002049,4.0,1.0,phase_1,,,,,,,,,,,,,orange,square
408.0,4.0,4.0,0.0,1.0,1.0,267.2633859997404,4.0,1.0,phase_1,,,,,,,,,,,,,blue,I
0.0,5.0,0.0,1.0,4.0,4.0,297.742542999913,4.0,1.0,phase_1,,,,,,,,,,,,,white,circle
60.0,5.0,1.0,1.0,3.0,3.0,870.1959539998825,4.0,1.0,phase_1,,,,,,,,,,,,,white,circle
0.0,8.0,0.0,1.0,1.0,1.0,345.81906999983397,4.0,1.0,phase_1,,,,,,,,,,,,,yellow,triangle
91.0,2.0,2.0,0.0,3.0,3.0,368.9295169997422,4.0,1.0,phase_1,,,,,,,,,,,,,green,hexagon
111.0,2.0,2.0,0.0,1.0,1.0,260.5412240000078,4.0,1.0,phase_1,,,,,,,,,,,,,green,hexagon
182.0,3.0,3.0,0.0,2.0,2.0,256.3570199999958,4.0,1.0,phase_1,,,,,,,,,,,,,gray,flipped triangle
178.0,3.0,3.0,0.0,2.0,2.0,322.202027000003,4.0,1.0,phase_1,,,,,,,,,,,,,gray,flipped triangle
0.0,2.0,0.0,0.0,4.0,4.0,296.5470510002888,4.0,1.0,phase_1,,,,,,,,,,,,,green,hexagon
64.0,1.0,1.0,0.0,2.0,2.0,366.7503470001065,4.0,1.0,phase_1,,,,,,,,,,,,,magenta,cross
0.0,1.0,0.0,0.0,3.0,3.0,293.8971180001317,4.0,1.0,phase_1,,,,,,,,,,,,,magenta,cross
40.0,1.0,1.0,0.0,3.0,3.0,279.4498979997115,4.0,1.0,phase_1,,,,,,,,,,,,,magenta,cross
89.0,2.0,2.0,0.0,1.0,1.0,255.8899360001305,4.0,1.0,phase_1,,,,,,,,,,,,,green,hexagon
409.0,8.0,4.0,1.0,4.0,4.0,304.3143560003045,4.0,1.0,phase_1,,,,,,,,,,,,,yellow,triangle
192.0,7.0,3.0,1.0,1.0,1.0,407.251900999654,4.0,1.0,phase_1,,,,,,,,,,,,,orange,square
59.0,1.0,1.0,0.0,3.0,3.0,376.7737099997248,4.0,1.0,phase_1,,,,,,,,,,,,,magenta,cross
0.0,1.0,0.0,0.0,3.0,3.0,302.9225410000435,4.0,1.0,phase_1,,,,,,,,,,,,,magenta,cross
0.0,2.0,0.0,0.0,3.0,3.0,280.2759729997888,4.0,1.0,phase_1,,,,,,,,,,,,,green,hexagon
405.0,4.0,4.0,0.0,1.0,1.0,298.3551450001869,4.0,1.0,phase_1,,,,,,,,,,,,,blue,I
416.0,4.0,4.0,0.0,4.0,4.0,391.3378219999686,4.0,1.0,phase_1,,,,,,,,,,,,,blue,I
68.0,1.0,1.0,0.0,4.0,4.0,287.3107450000134,4.0,1.0,phase_1,,,,,,,,,,,,,magenta,cross
405.0,8.0,4.0,1.0,4.0,4.0,315.1378530001238,4.0,1.0,phase_1,,,,,,,,,,,,,yellow,triangle
219.0,3.0,3.0,0.0,2.0,2.0,390.5910190001123,4.0,1.0,phase_1,,,,,,,,,,,,,gray,flipped triangle
199.0,3.0,3.0,0.0,2.0,2.0,331.3662009995823,4.0,1.0,phase_1,,,,,,,,,,,,,gray,flipped triangle
30.0,5.0,1.0,1.0,4.0,4.0,257.4364000001878,4.0,1.0,phase_1,,,,,,,,,,,,,white,circle
30.0,1.0,1.0,0.0,1.0,1.0,273.8736149999567,4.0,1.0,phase_1,,,,,,,,,,,,,magenta,cross
213.0,7.0,3.0,1.0,2.0,2.0,310.151487999974,4.0,1.0,phase_1,,,,,,,,,,,,,orange,square
388.0,8.0,4.0,1.0,1.0,1.0,407.1525780000229,4.0,1.0,phase_1,,,,,,,,,,,,,yellow,triangle
0.0,6.0,0.0,1.0,4.0,4.0,339.0323580001677,4.0,1.0,phase_1,,,,,,,,,,,,,cyan,diamond
186.0,7.0,3.0,1.0,1.0,1.0,240.0222569999641,4.0,1.0,phase_1,,,,,,,,,,,,,orange,square
182.0,7.0,3.0,1.0,4.0,4.0,258.6159930001486,4.0,1.0,phase_1,,,,,,,,,,,,,orange,square
0.0,5.0,0.0,1.0,1.0,1.0,233.332799999971,4.0,1.0,phase_1,,,,,,,,,,,,,white,circle
416.0,8.0,4.0,1.0,4.0,4.0,283.5582399998202,4.0,1.0,phase_1,,,,,,,,,,,,,yellow,triangle
0.0,5.0,0.0,1.0,3.0,3.0,297.3307020001812,4.0,1.0,phase_1,,,,,,,,,,,,,white,circle
78.0,6.0,2.0,1.0,1.0,1.0,302.6176879998274,4.0,1.0,phase_1,,,,,,,,,,,,,cyan,diamond
77.0,2.0,2.0,0.0,3.0,3.0,309.1248390001055,4.0,1.0,phase_1,,,,,,,,,,,,,green,hexagon
34.0,1.0,1.0,0.0,4.0,4.0,472.5079390000246,4.0,1.0,phase_1,,,,,,,,,,,,,magenta,cross
408.0,4.0,4.0,0.0,3.0,3.0,345.2486830001362,4.0,1.0,phase_1,,,,,,,,,,,,,blue,I
118.0,2.0,2.0,0.0,4.0,4.0,387.3309779996816,4.0,1.0,phase_1,,,,,,,,,,,,,green,hexagon
108.0,6.0,2.0,1.0,2.0,2.0,287.6083780001863,4.0,1.0,phase_1,,,,,,,,,,,,,cyan,diamond
194.0,3.0,3.0,0.0,1.0,1.0,332.7550720000545,4.0,1.0,phase_1,,,,,,,,,,,,,gray,flipped triangle
199.0,7.0,3.0,1.0,4.0,4.0,298.1847000000925,4.0,1.0,phase_1,,,,,,,,,,,,,orange,square
118.0,6.0,2.0,1.0,4.0,4.0,260.1403270000446,4.0,1.0,phase_1,,,,,,,,,,,,,cyan,diamond
49.0,5.0,1.0,1.0,4.0,4.0,271.7224600000918,4.0,1.0,phase_1,,,,,,,,,,,,,white,circle
0.0,7.0,0.0,1.0,1.0,1.0,325.1416930002051,4.0,1.0,phase_1,,,,,,,,,,,,,orange,square
397.0,8.0,4.0,1.0,1.0,1.0,354.3717780003135,4.0,1.0,phase_1,,,,,,,,,,,,,yellow,triangle
0.0,4.0,0.0,0.0,1.0,1.0,271.0128680000707,4.0,1.0,phase_1,,,,,,,,,,,,,blue,I
0.0,7.0,3.0,1.0,5.0,5.0,441.5115570000125,1.0,1.0,phase_2,stop,250.0,250.0,3.0,,,,,,,,,orange,square
0.0,4.0,4.0,0.0,5.0,5.0,417.0420800001011,1.0,1.0,phase_2,go,200.0,250.0,1.0,,,,,,,,,blue,I
0.0,6.0,2.0,1.0,6.0,0.0,0.0,1.0,1.0,phase_2,stop,200.0,250.0,4.0,,,,,,,,,cyan,diamond
0.0,6.0,2.0,1.0,5.0,0.0,0.0,1.0,1.0,phase_2,stop,200.0,300.0,4.0,,,,,,,,,cyan,diamond
0.0,2.0,2.0,0.0,5.0,5.0,448.4002870003678,1.0,1.0,phase_2,go,250.0,300.0,1.0,,,,,,,,,green,hexagon
0.0,8.0,4.0,1.0,5.0,0.0,0.0,1.0,1.0,phase_2,stop,250.0,300.0,4.0,,,,,,,,,yellow,triangle
0.0,2.0,2.0,0.0,6.0,6.0,405.5406850002327,1.0,1.0,phase_2,go,300.0,300.0,1.0,,,,,,,,,green,hexagon
0.0,4.0,4.0,0.0,6.0,6.0,420.8399799999824,1.0,1.0,phase_2,go,300.0,300.0,1.0,,,,,,,,,blue,I
0.0,5.0,1.0,1.0,5.0,5.0,565.1161109999521,1.0,1.0,phase_2,go,300.0,300.0,1.0,,,,,,,,,white,circle
0.0,2.0,2.0,0.0,5.0,5.0,489.0094890001819,1.0,1.0,phase_2,go,300.0,300.0,1.0,,,,,,,,,green,hexagon
0.0,6.0,2.0,1.0,6.0,0.0,0.0,1.0,1.0,phase_2,stop,300.0,300.0,4.0,,,,,,,,,cyan,diamond
0.0,8.0,4.0,1.0,6.0,0.0,0.0,1.0,1.0,phase_2,stop,300.0,350.0,4.0,,,,,,,,,yellow,triangle
0.0,1.0,1.0,0.0,6.0,6.0,485.6563919997825,1.0,1.0,phase_2,go,300.0,400.0,1.0,,,,,,,,,magenta,cross
0.0,8.0,4.0,1.0,5.0,5.0,731.3136389998363,1.0,1.0,phase_2,go,300.0,400.0,1.0,,,,,,,,,yellow,triangle
0.0,6.0,2.0,1.0,5.0,5.0,448.6840650001795,1.0,1.0,phase_2,stop,300.0,400.0,3.0,,,,,,,,,cyan,diamond
0.0,5.0,1.0,1.0,5.0,5.0,445.82847999981817,1.0,1.0,phase_2,go,250.0,400.0,1.0,,,,,,,,,white,circle
0.0,2.0,2.0,0.0,5.0,5.0,451.4147840000078,1.0,1.0,phase_2,go,250.0,400.0,1.0,,,,,,,,,green,hexagon
0.0,4.0,4.0,0.0,5.0,5.0,381.2870880001355,1.0,1.0,phase_2,go,250.0,400.0,1.0,,,,,,,,,blue,I
0.0,7.0,3.0,1.0,5.0,0.0,0.0,1.0,1.0,phase_2,stop,250.0,400.0,4.0,,,,,,,,,orange,square
0.0,7.0,3.0,1.0,5.0,0.0,0.0,1.0,1.0,phase_2,stop,300.0,400.0,4.0,,,,,,,,,orange,square
0.0,3.0,3.0,0.0,6.0,6.0,412.5425779998295,1.0,1.0,phase_2,go,350.0,400.0,1.0,,,,,,,,,gray,flipped triangle
0.0,7.0,3.0,1.0,6.0,6.0,472.5659970004017,1.0,1.0,phase_2,stop,350.0,400.0,3.0,,,,,,,,,orange,square
0.0,3.0,3.0,0.0,5.0,5.0,620.117566999852,1.0,1.0,phase_2,go,350.0,350.0,1.0,,,,,,,,,gray,flipped triangle
0.0,4.0,4.0,0.0,5.0,5.0,518.7753469999734,1.0,1.0,phase_2,go,350.0,350.0,1.0,,,,,,,,,blue,I
0.0,8.0,4.0,1.0,6.0,0.0,0.0,1.0,1.0,phase_2,stop,350.0,350.0,4.0,,,,,,,,,yellow,triangle
0.0,3.0,3.0,0.0,5.0,5.0,493.2309999999233,1.0,1.0,phase_2,go,350.0,400.0,1.0,,,,,,,,,gray,flipped triangle
0.0,1.0,1.0,0.0,6.0,6.0,531.8801840003289,1.0,1.0,phase_2,go,350.0,400.0,1.0,,,,,,,,,magenta,cross
0.0,6.0,2.0,1.0,5.0,5.0,509.27736700032256,1.0,1.0,phase_2,stop,350.0,400.0,3.0,,,,,,,,,cyan,diamond
0.0,7.0,3.0,1.0,5.0,0.0,0.0,1.0,1.0,phase_2,stop,300.0,400.0,4.0,,,,,,,,,orange,square
0.0,1.0,1.0,0.0,6.0,6.0,588.689166000222,1.0,1.0,phase_2,go,350.0,400.0,1.0,,,,,,,,,magenta,cross
0.0,7.0,3.0,1.0,5.0,0.0,0.0,1.0,1.0,phase_2,stop,350.0,400.0,4.0,,,,,,,,,orange,square
0.0,7.0,3.0,1.0,6.0,6.0,563.5514580003473,1.0,1.0,phase_2,stop,400.0,400.0,3.0,,,,,,,,,orange,square
0.0,1.0,1.0,0.0,6.0,6.0,971.7359880000912,1.0,1.0,phase_2,go,400.0,350.0,1.0,,,,,,,,,magenta,cross
0.0,7.0,3.0,1.0,6.0,0.0,0.0,1.0,1.0,phase_2,stop,400.0,350.0,4.0,,,,,,,,,orange,square
0.0,5.0,1.0,1.0,5.0,5.0,550.383045000217,1.0,1.0,phase_2,go,400.0,400.0,1.0,,,,,,,,,white,circle
0.0,1.0,1.0,0.0,6.0,6.0,731.2902809999287,1.0,1.0,phase_2,go,400.0,400.0,1.0,,,,,,,,,magenta,cross
0.0,8.0,4.0,1.0,5.0,5.0,512.1241689998897,2.0,1.0,phase_2,go,400.0,400.0,1.0,,,,,,,,,yellow,triangle
0.0,1.0,1.0,0.0,6.0,6.0,526.5612220000548,2.0,1.0,phase_2,go,400.0,400.0,1.0,,,,,,,,,magenta,cross
0.0,5.0,1.0,1.0,6.0,6.0,491.2779599999339,2.0,1.0,phase_2,stop,400.0,400.0,3.0,,,,,,,,,white,circle
0.0,7.0,3.0,1.0,6.0,6.0,608.5745240002325,2.0,1.0,phase_2,go,400.0,350.0,1.0,,,,,,,,,orange,square
0.0,2.0,2.0,0.0,6.0,6.0,538.8338279999516,2.0,1.0,phase_2,go,400.0,350.0,1.0,,,,,,,,,green,hexagon
0.0,1.0,1.0,0.0,6.0,6.0,497.9935419996764,2.0,1.0,phase_2,go,400.0,350.0,1.0,,,,,,,,,magenta,cross
0.0,2.0,2.0,0.0,6.0,6.0,437.3808280001867,2.0,1.0,phase_2,go,400.0,350.0,1.0,,,,,,,,,green,hexagon
0.0,4.0,4.0,0.0,5.0,5.0,521.3747600000715,2.0,1.0,phase_2,go,400.0,350.0,1.0,,,,,,,,,blue,I
0.0,5.0,1.0,1.0,6.0,6.0,443.0051780000212,2.0,1.0,phase_2,stop,400.0,350.0,3.0,,,,,,,,,white,circle
0.0,7.0,3.0,1.0,6.0,6.0,695.9558470002776,2.0,1.0,phase_2,go,400.0,300.0,1.0,,,,,,,,,orange,square
0.0,7.0,3.0,1.0,5.0,5.0,440.7511790000171,2.0,1.0,phase_2,stop,400.0,300.0,3.0,,,,,,,,,orange,square
0.0,8.0,4.0,1.0,6.0,0.0,0.0,2.0,1.0,phase_2,stop,350.0,300.0,4.0,,,,,,,,,yellow,triangle
0.0,2.0,2.0,0.0,5.0,5.0,831.2985140000819,2.0,1.0,phase_2,go,350.0,350.0,1.0,,,,,,,,,green,hexagon
0.0,2.0,2.0,0.0,5.0,5.0,796.9036290000986,2.0,1.0,phase_2,go,350.0,350.0,1.0,,,,,,,,,green,hexagon
0.0,6.0,2.0,1.0,5.0,5.0,644.9692080000204,2.0,1.0,phase_2,go,350.0,350.0,1.0,,,,,,,,,cyan,diamond
0.0,4.0,4.0,0.0,6.0,6.0,747.9196230001435,2.0,1.0,phase_2,go,350.0,350.0,1.0,,,,,,,,,blue,I
0.0,4.0,4.0,0.0,6.0,6.0,793.252855999981,2.0,1.0,phase_2,go,350.0,350.0,1.0,,,,,,,,,blue,I
0.0,6.0,2.0,1.0,5.0,5.0,621.7471629997817,2.0,1.0,phase_2,go,350.0,350.0,1.0,,,,,,,,,cyan,diamond
0.0,3.0,3.0,0.0,6.0,6.0,724.4963930002086,2.0,1.0,phase_2,go,350.0,350.0,1.0,,,,,,,,,gray,flipped triangle
0.0,7.0,3.0,1.0,6.0,0.0,0.0,2.0,1.0,phase_2,stop,350.0,350.0,4.0,,,,,,,,,orange,square
0.0,2.0,2.0,0.0,6.0,6.0,692.0209400000203,2.0,1.0,phase_2,go,350.0,400.0,1.0,,,,,,,,,green,hexagon
0.0,1.0,1.0,0.0,5.0,5.0,694.4485209996856,2.0,1.0,phase_2,go,350.0,400.0,1.0,,,,,,,,,magenta,cross
0.0,4.0,4.0,0.0,6.0,6.0,741.7493409998315,2.0,1.0,phase_2,go,350.0,400.0,1.0,,,,,,,,,blue,I
0.0,2.0,2.0,0.0,6.0,6.0,663.0949589998636,2.0,1.0,phase_2,go,350.0,400.0,1.0,,,,,,,,,green,hexagon
0.0,5.0,1.0,1.0,6.0,6.0,547.0483599997351,2.0,1.0,phase_2,stop,350.0,400.0,3.0,,,,,,,,,white,circle
0.0,3.0,3.0,0.0,5.0,5.0,538.4284460001254,2.0,1.0,phase_2,go,350.0,350.0,1.0,,,,,,,,,gray,flipped triangle
0.0,1.0,1.0,0.0,5.0,5.0,692.0332390000112,2.0,1.0,phase_2,go,350.0,350.0,1.0,,,,,,,,,magenta,cross
0.0,8.0,4.0,1.0,5.0,5.0,646.9943850001982,2.0,1.0,phase_2,go,350.0,350.0,1.0,,,,,,,,,yellow,triangle
0.0,5.0,1.0,1.0,6.0,6.0,537.0012959997439,2.0,1.0,phase_2,stop,350.0,350.0,3.0,,,,,,,,,white,circle
0.0,3.0,3.0,0.0,5.0,5.0,791.286836999916,2.0,1.0,phase_2,go,350.0,300.0,1.0,,,,,,,,,gray,flipped triangle
0.0,8.0,4.0,1.0,5.0,0.0,0.0,2.0,1.0,phase_2,stop,350.0,300.0,4.0,,,,,,,,,yellow,triangle
0.0,7.0,3.0,1.0,5.0,5.0,738.4491120001258,2.0,1.0,phase_2,go,400.0,300.0,1.0,,,,,,,,,orange,square
0.0,1.0,1.0,0.0,5.0,5.0,814.4959729997936,2.0,1.0,phase_2,go,400.0,300.0,1.0,,,,,,,,,magenta,cross
0.0,4.0,4.0,0.0,5.0,5.0,722.5570429995969,2.0,1.0,phase_2,go,400.0,300.0,1.0,,,,,,,,,blue,I
0.0,1.0,1.0,0.0,5.0,5.0,677.4776819997896,2.0,1.0,phase_2,go,400.0,300.0,1.0,,,,,,,,,magenta,cross
0.0,5.0,1.0,1.0,5.0,0.0,0.0,2.0,1.0,phase_2,stop,400.0,300.0,4.0,,,,,,,,,white,circle
0.0,3.0,3.0,0.0,6.0,6.0,711.3056409998535,3.0,1.0,phase_2,go,450.0,300.0,1.0,,,,,,,,,gray,flipped triangle
0.0,3.0,3.0,0.0,6.0,6.0,455.6520539999837,3.0,1.0,phase_2,go,450.0,300.0,1.0,,,,,,,,,gray,flipped triangle
0.0,3.0,3.0,0.0,5.0,5.0,817.7625590001298,3.0,1.0,phase_2,go,450.0,300.0,1.0,,,,,,,,,gray,flipped triangle
0.0,8.0,4.0,1.0,6.0,6.0,390.77667499987,3.0,1.0,phase_2,stop,450.0,300.0,3.0,,,,,,,,,yellow,triangle
0.0,1.0,1.0,0.0,6.0,6.0,523.2474459999139,3.0,1.0,phase_2,go,450.0,250.0,1.0,,,,,,,,,magenta,cross
0.0,6.0,2.0,1.0,5.0,5.0,483.2751550002285,3.0,1.0,phase_2,stop,450.0,250.0,3.0,,,,,,,,,cyan,diamond
0.0,3.0,3.0,0.0,6.0,6.0,539.9167209998268,3.0,1.0,phase_2,go,400.0,250.0,1.0,,,,,,,,,gray,flipped triangle
0.0,6.0,2.0,1.0,5.0,5.0,462.1242539997183,3.0,1.0,phase_2,go,400.0,250.0,1.0,,,,,,,,,cyan,diamond
0.0,1.0,1.0,0.0,5.0,5.0,565.1992010002687,3.0,1.0,phase_2,go,400.0,250.0,1.0,,,,,,,,,magenta,cross
0.0,6.0,2.0,1.0,6.0,6.0,522.2814149997248,3.0,1.0,phase_2,go,400.0,250.0,1.0,,,,,,,,,cyan,diamond
0.0,3.0,3.0,0.0,5.0,5.0,458.2167640000989,3.0,1.0,phase_2,go,400.0,250.0,1.0,,,,,,,,,gray,flipped triangle
0.0,5.0,1.0,1.0,6.0,6.0,529.9751339998693,3.0,1.0,phase_2,go,400.0,250.0,1.0,,,,,,,,,white,circle
0.0,6.0,2.0,1.0,5.0,5.0,432.65642099959217,3.0,1.0,phase_2,stop,400.0,250.0,3.0,,,,,,,,,cyan,diamond
0.0,8.0,4.0,1.0,6.0,0.0,0.0,3.0,1.0,phase_2,stop,350.0,250.0,4.0,,,,,,,,,yellow,triangle
0.0,3.0,3.0,0.0,6.0,6.0,563.155870999708,3.0,1.0,phase_2,go,350.0,300.0,1.0,,,,,,,,,gray,flipped triangle
0.0,6.0,2.0,1.0,6.0,6.0,593.093073000091,3.0,1.0,phase_2,go,350.0,300.0,1.0,,,,,,,,,cyan,diamond
0.0,7.0,3.0,1.0,5.0,5.0,433.5828980001679,3.0,1.0,phase_2,stop,350.0,300.0,3.0,,,,,,,,,orange,square
0.0,5.0,1.0,1.0,6.0,0.0,0.0,3.0,1.0,phase_2,stop,300.0,300.0,4.0,,,,,,,,,white,circle
0.0,5.0,1.0,1.0,6.0,0.0,0.0,3.0,1.0,phase_2,stop,300.0,350.0,4.0,,,,,,,,,white,circle
0.0,4.0,4.0,0.0,5.0,5.0,566.1151669996798,3.0,1.0,phase_2,go,300.0,400.0,1.0,,,,,,,,,blue,I
0.0,3.0,3.0,0.0,5.0,5.0,555.8417940001164,3.0,1.0,phase_2,go,300.0,400.0,1.0,,,,,,,,,gray,flipped triangle
0.0,7.0,3.0,1.0,5.0,0.0,0.0,3.0,1.0,phase_2,stop,300.0,400.0,4.0,,,,,,,,,orange,square
0.0,1.0,1.0,0.0,6.0,6.0,491.6287480000392,3.0,1.0,phase_2,go,350.0,400.0,1.0,,,,,,,,,magenta,cross
0.0,3.0,3.0,0.0,6.0,6.0,546.159274999809,3.0,1.0,phase_2,go,350.0,400.0,1.0,,,,,,,,,gray,flipped triangle
0.0,6.0,2.0,1.0,5.0,5.0,469.518072000028,3.0,1.0,phase_2,stop,350.0,400.0,3.0,,,,,,,,,cyan,diamond
0.0,3.0,3.0,0.0,6.0,6.0,618.4204050000517,3.0,1.0,phase_2,go,300.0,400.0,1.0,,,,,,,,,gray,flipped triangle
0.0,2.0,2.0,0.0,6.0,6.0,410.1335700001982,3.0,1.0,phase_2,go,300.0,400.0,1.0,,,,,,,,,green,hexagon
0.0,1.0,1.0,0.0,5.0,5.0,346.2096980001661,3.0,1.0,phase_2,go,300.0,400.0,1.0,,,,,,,,,magenta,cross
0.0,8.0,4.0,1.0,5.0,5.0,382.6719849998881,3.0,1.0,phase_2,stop,300.0,400.0,3.0,,,,,,,,,yellow,triangle
0.0,6.0,2.0,1.0,6.0,6.0,592.9606509998848,3.0,1.0,phase_2,go,250.0,400.0,1.0,,,,,,,,,cyan,diamond
0.0,2.0,2.0,0.0,6.0,6.0,455.535386000065,3.0,1.0,phase_2,go,250.0,400.0,1.0,,,,,,,,,green,hexagon
0.0,1.0,1.0,0.0,6.0,6.0,436.7657699999654,3.0,1.0,phase_2,go,250.0,400.0,1.0,,,,,,,,,magenta,cross
0.0,3.0,3.0,0.0,6.0,6.0,388.6833339997793,3.0,1.0,phase_2,go,250.0,400.0,1.0,,,,,,,,,gray,flipped triangle
0.0,7.0,3.0,1.0,6.0,6.0,382.530122999924,3.0,1.0,phase_2,go,250.0,400.0,1.0,,,,,,,,,orange,square
0.0,8.0,4.0,1.0,5.0,0.0,0.0,3.0,1.0,phase_2,stop,250.0,400.0,4.0,,,,,,,,,yellow,triangle
0.0,5.0,1.0,1.0,6.0,6.0,454.759144000036,3.0,1.0,phase_2,stop,300.0,400.0,3.0,,,,,,,,,white,circle
0.0,5.0,1.0,1.0,5.0,5.0,1056.798831999913,4.0,1.0,phase_2,go,300.0,350.0,1.0,,,,,,,,,white,circle
0.0,8.0,4.0,1.0,6.0,6.0,495.8527280000453,4.0,1.0,phase_2,stop,300.0,350.0,3.0,,,,,,,,,yellow,triangle
0.0,3.0,3.0,0.0,5.0,5.0,656.6667659999439,4.0,1.0,phase_2,go,300.0,300.0,1.0,,,,,,,,,gray,flipped triangle
0.0,3.0,3.0,0.0,6.0,6.0,452.1727540000029,4.0,1.0,phase_2,go,300.0,300.0,1.0,,,,,,,,,gray,flipped triangle
0.0,7.0,3.0,1.0,6.0,6.0,404.1270859997894,4.0,1.0,phase_2,go,300.0,300.0,1.0,,,,,,,,,orange,square
0.0,3.0,3.0,0.0,6.0,6.0,319.2164810002396,4.0,1.0,phase_2,go,300.0,300.0,1.0,,,,,,,,,gray,flipped triangle
0.0,5.0,1.0,1.0,5.0,5.0,441.0168680001334,4.0,1.0,phase_2,stop,300.0,300.0,3.0,,,,,,,,,white,circle
0.0,2.0,2.0,0.0,5.0,5.0,624.8253680000744,4.0,1.0,phase_2,go,250.0,300.0,1.0,,,,,,,,,green,hexagon
0.0,5.0,1.0,1.0,5.0,5.0,622.6034229994184,4.0,1.0,phase_2,go,250.0,300.0,1.0,,,,,,,,,white,circle
0.0,2.0,2.0,0.0,5.0,5.0,448.5036930000206,4.0,1.0,phase_2,go,250.0,300.0,1.0,,,,,,,,,green,hexagon
0.0,5.0,1.0,1.0,5.0,5.0,312.667617000443,4.0,1.0,phase_2,stop,250.0,300.0,3.0,,,,,,,,,white,circle
0.0,5.0,1.0,1.0,5.0,0.0,0.0,4.0,1.0,phase_2,stop,200.0,300.0,4.0,,,,,,,,,white,circle
0.0,4.0,4.0,0.0,6.0,6.0,457.8380569992077,4.0,1.0,phase_2,go,250.0,300.0,1.0,,,,,,,,,blue,I
0.0,4.0,4.0,0.0,6.0,6.0,467.6380410001002,4.0,1.0,phase_2,go,250.0,300.0,1.0,,,,,,,,,blue,I
0.0,7.0,3.0,1.0,5.0,0.0,0.0,4.0,1.0,phase_2,stop,250.0,300.0,4.0,,,,,,,,,orange,square
0.0,3.0,3.0,0.0,6.0,6.0,629.1570530001991,4.0,1.0,phase_2,go,300.0,300.0,1.0,,,,,,,,,gray,flipped triangle
0.0,6.0,2.0,1.0,6.0,0.0,0.0,4.0,1.0,phase_2,stop,300.0,300.0,4.0,,,,,,,,,cyan,diamond
0.0,6.0,2.0,1.0,5.0,0.0,0.0,4.0,1.0,phase_2,stop,300.0,350.0,4.0,,,,,,,,,cyan,diamond
0.0,1.0,1.0,0.0,6.0,6.0,462.3760099993887,4.0,1.0,phase_2,go,350.0,350.0,1.0,,,,,,,,,magenta,cross
0.0,3.0,3.0,0.0,6.0,6.0,605.43362000044,4.0,1.0,phase_2,go,350.0,350.0,1.0,,,,,,,,,gray,flipped triangle
0.0,8.0,4.0,1.0,6.0,6.0,554.396385000473,4.0,1.0,phase_2,go,350.0,350.0,1.0,,,,,,,,,yellow,triangle
0.0,8.0,4.0,1.0,5.0,5.0,419.2368459998761,4.0,1.0,phase_2,go,350.0,350.0,1.0,,,,,,,,,yellow,triangle
0.0,5.0,1.0,1.0,6.0,6.0,486.2605910002457,4.0,1.0,phase_2,stop,350.0,350.0,3.0,,,,,,,,,white,circle
0.0,5.0,1.0,1.0,6.0,0.0,0.0,4.0,1.0,phase_2,stop,350.0,300.0,4.0,,,,,,,,,white,circle
0.0,5.0,1.0,1.0,6.0,6.0,627.1779870003229,4.0,1.0,phase_2,go,350.0,350.0,1.0,,,,,,,,,white,circle
0.0,3.0,3.0,0.0,6.0,6.0,603.9601069996934,4.0,1.0,phase_2,go,350.0,350.0,1.0,,,,,,,,,gray,flipped triangle
0.0,6.0,2.0,1.0,6.0,6.0,524.4583929998043,4.0,1.0,phase_2,go,350.0,350.0,1.0,,,,,,,,,cyan,diamond
0.0,3.0,3.0,0.0,5.0,5.0,604.6447310000076,4.0,1.0,phase_2,go,350.0,350.0,1.0,,,,,,,,,gray,flipped triangle
0.0,4.0,4.0,0.0,6.0,6.0,531.6823120001573,4.0,1.0,phase_2,go,350.0,350.0,1.0,,,,,,,,,blue,I
0.0,4.0,4.0,0.0,6.0,6.0,430.7666710001285,4.0,1.0,phase_2,go,350.0,350.0,1.0,,,,,,,,,blue,I
0.0,3.0,3.0,0.0,6.0,6.0,672.0687779998116,4.0,1.0,phase_2,go,350.0,350.0,1.0,,,,,,,,,gray,flipped triangle
0.0,6.0,2.0,1.0,6.0,6.0,517.6426699999865,4.0,1.0,phase_2,stop,350.0,350.0,3.0,,,,,,,,,cyan,diamond
0.0,8.0,4.0,1.0,6.0,0.0,0.0,4.0,1.0,phase_2,stop,350.0,300.0,4.0,,,,,,,,,yellow,triangle
0.0,2.0,2.0,0.0,5.0,5.0,537.4658179998733,4.0,1.0,phase_2,go,350.0,350.0,1.0,,,,,,,,,green,hexagon
0.0,6.0,2.0,1.0,5.0,0.0,0.0,4.0,1.0,phase_2,stop,350.0,350.0,4.0,,,,,,,,,cyan,diamond
0.0,6.0,2.0,1.0,5.0,0.0,0.0,4.0,1.0,phase_2,stop,400.0,350.0,4.0,,,,,,,,,cyan,diamond
0.0,3.0,3.0,0.0,6.0,6.0,406.8138929997076,5.0,1.0,phase_2,go,450.0,350.0,1.0,,,,,,,,,gray,flipped triangle
0.0,5.0,1.0,1.0,6.0,0.0,0.0,5.0,1.0,phase_2,stop,450.0,350.0,4.0,,,,,,,,,white,circle
0.0,4.0,4.0,0.0,5.0,5.0,519.8251510000773,5.0,1.0,phase_2,go,450.0,400.0,1.0,,,,,,,,,blue,I
0.0,3.0,3.0,0.0,5.0,5.0,464.5387410000694,5.0,1.0,phase_2,go,450.0,400.0,1.0,,,,,,,,,gray,flipped triangle
0.0,1.0,1.0,0.0,6.0,6.0,607.4051000005056,5.0,1.0,phase_2,go,450.0,400.0,1.0,,,,,,,,,magenta,cross
0.0,6.0,2.0,1.0,6.0,6.0,284.4550810004875,5.0,1.0,phase_2,stop,450.0,400.0,3.0,,,,,,,,,cyan,diamond
0.0,4.0,4.0,0.0,6.0,6.0,482.3973009997644,5.0,1.0,phase_2,go,450.0,350.0,1.0,,,,,,,,,blue,I
0.0,3.0,3.0,0.0,5.0,5.0,454.7345619994303,5.0,1.0,phase_2,go,450.0,350.0,1.0,,,,,,,,,gray,flipped triangle
0.0,6.0,2.0,1.0,6.0,0.0,0.0,5.0,1.0,phase_2,stop,450.0,350.0,4.0,,,,,,,,,cyan,diamond
0.0,7.0,3.0,1.0,5.0,0.0,0.0,5.0,1.0,phase_2,stop,450.0,400.0,4.0,,,,,,,,,orange,square
0.0,7.0,3.0,1.0,6.0,0.0,0.0,5.0,1.0,phase_2,stop,500.0,400.0,4.0,,,,,,,,,orange,square
0.0,2.0,2.0,0.0,5.0,5.0,502.70348400044895,5.0,1.0,phase_2,go,500.0,450.0,1.0,,,,,,,,,green,hexagon
0.0,5.0,1.0,1.0,6.0,0.0,0.0,5.0,1.0,phase_2,stop,500.0,450.0,4.0,,,,,,,,,white,circle
0.0,8.0,4.0,1.0,5.0,0.0,0.0,5.0,1.0,phase_2,stop,500.0,500.0,4.0,,,,,,,,,yellow,triangle
0.0,1.0,1.0,0.0,5.0,5.0,718.0733700006385,5.0,1.0,phase_2,go,550.0,500.0,1.0,,,,,,,,,magenta,cross
0.0,4.0,4.0,0.0,5.0,5.0,486.6480599994247,5.0,1.0,phase_2,go,550.0,500.0,1.0,,,,,,,,,blue,I
0.0,2.0,2.0,0.0,6.0,6.0,545.0600409994877,5.0,1.0,phase_2,go,550.0,500.0,1.0,,,,,,,,,green,hexagon
0.0,7.0,3.0,1.0,5.0,5.0,600.9789559993806,5.0,1.0,phase_2,stop,550.0,500.0,3.0,,,,,,,,,orange,square
0.0,8.0,4.0,1.0,5.0,0.0,0.0,5.0,1.0,phase_2,stop,500.0,500.0,4.0,,,,,,,,,yellow,triangle
0.0,4.0,4.0,0.0,6.0,6.0,611.086326000077,5.0,1.0,phase_2,go,550.0,500.0,1.0,,,,,,,,,blue,I
0.0,3.0,3.0,0.0,5.0,5.0,919.7326719995544,5.0,1.0,phase_2,go,550.0,500.0,1.0,,,,,,,,,gray,flipped triangle
0.0,1.0,1.0,0.0,6.0,6.0,400.2557120002166,5.0,1.0,phase_2,go,550.0,500.0,1.0,,,,,,,,,magenta,cross
0.0,7.0,3.0,1.0,6.0,0.0,0.0,5.0,1.0,phase_2,stop,550.0,500.0,4.0,,,,,,,,,orange,square
0.0,1.0,1.0,0.0,5.0,5.0,654.0684660003535,5.0,1.0,phase_2,go,550.0,550.0,1.0,,,,,,,,,magenta,cross
0.0,2.0,2.0,0.0,5.0,5.0,465.3764599997885,5.0,1.0,phase_2,go,550.0,550.0,1.0,,,,,,,,,green,hexagon
0.0,5.0,1.0,1.0,6.0,0.0,0.0,5.0,1.0,phase_2,stop,550.0,550.0,4.0,,,,,,,,,white,circle
0.0,1.0,1.0,0.0,6.0,6.0,774.2990679998911,5.0,1.0,phase_2,go,550.0,600.0,1.0,,,,,,,,,magenta,cross
0.0,2.0,2.0,0.0,5.0,5.0,301.7260169999645,5.0,1.0,phase_2,go,550.0,600.0,1.0,,,,,,,,,green,hexagon
0.0,7.0,3.0,1.0,5.0,5.0,738.7674969995714,5.0,1.0,phase_2,stop,550.0,600.0,3.0,,,,,,,,,orange,square
0.0,6.0,2.0,1.0,6.0,6.0,711.6864330000681,5.0,1.0,phase_2,stop,500.0,600.0,3.0,,,,,,,,,cyan,diamond
0.0,6.0,2.0,1.0,6.0,6.0,1041.8424990002677,5.0,1.0,phase_2,go,500.0,550.0,1.0,,,,,,,,,cyan,diamond
0.0,3.0,3.0,0.0,5.0,5.0,972.294585999407,5.0,1.0,phase_2,go,500.0,550.0,1.0,,,,,,,,,gray,flipped triangle
0.0,7.0,3.0,1.0,5.0,0.0,0.0,5.0,1.0,phase_2,stop,500.0,550.0,4.0,,,,,,,,,orange,square
0.0,8.0,4.0,1.0,6.0,0.0,0.0,5.0,1.0,phase_2,stop,550.0,550.0,4.0,,,,,,,,,yellow,triangle
0.0,8.0,4.0,1.0,5.0,0.0,0.0,5.0,1.0,phase_2,stop,550.0,600.0,4.0,,,,,,,,,yellow,triangle
0.0,6.0,2.0,1.0,6.0,6.0,643.4599320000416,5.0,1.0,phase_2,go,600.0,600.0,1.0,,,,,,,,,cyan,diamond
0.0,8.0,4.0,1.0,5.0,5.0,506.1289079994822,6.0,1.0,phase_2,stop,600.0,600.0,3.0,,,,,,,,,yellow,triangle
0.0,1.0,1.0,0.0,5.0,5.0,713.9767969993045,6.0,1.0,phase_2,go,550.0,600.0,1.0,,,,,,,,,magenta,cross
0.0,4.0,4.0,0.0,6.0,6.0,487.6752929994836,6.0,1.0,phase_2,go,550.0,600.0,1.0,,,,,,,,,blue,I
0.0,2.0,2.0,0.0,6.0,6.0,645.9092029999738,6.0,1.0,phase_2,go,550.0,600.0,1.0,,,,,,,,,green,hexagon
0.0,2.0,2.0,0.0,6.0,6.0,588.8695839994398,6.0,1.0,phase_2,go,550.0,600.0,1.0,,,,,,,,,green,hexagon
0.0,4.0,4.0,0.0,5.0,5.0,420.9681219999766,6.0,1.0,phase_2,go,550.0,600.0,1.0,,,,,,,,,blue,I
0.0,5.0,1.0,1.0,5.0,5.0,417.8669660004743,6.0,1.0,phase_2,stop,550.0,600.0,3.0,,,,,,,,,white,circle
0.0,5.0,1.0,1.0,6.0,6.0,688.4830310000325,6.0,1.0,phase_2,stop,500.0,600.0,3.0,,,,,,,,,white,circle
0.0,1.0,1.0,0.0,5.0,5.0,900.9062060003998,6.0,1.0,phase_2,go,500.0,550.0,1.0,,,,,,,,,magenta,cross
0.0,4.0,4.0,0.0,6.0,6.0,469.7094330003892,6.0,1.0,phase_2,go,500.0,550.0,1.0,,,,,,,,,blue,I
0.0,5.0,1.0,1.0,5.0,5.0,647.7006359991719,6.0,1.0,phase_2,go,500.0,550.0,1.0,,,,,,,,,white,circle
0.0,4.0,4.0,0.0,6.0,6.0,488.6443960003817,6.0,1.0,phase_2,go,500.0,550.0,1.0,,,,,,,,,blue,I
0.0,4.0,4.0,0.0,5.0,5.0,476.4811600007306,6.0,1.0,phase_2,go,500.0,550.0,1.0,,,,,,,,,blue,I
0.0,3.0,3.0,0.0,5.0,5.0,659.7530080007346,6.0,1.0,phase_2,go,500.0,550.0,1.0,,,,,,,,,gray,flipped triangle
0.0,8.0,4.0,1.0,6.0,6.0,547.7815180001926,6.0,1.0,phase_2,stop,500.0,550.0,3.0,,,,,,,,,yellow,triangle
0.0,7.0,3.0,1.0,5.0,0.0,0.0,6.0,1.0,phase_2,stop,500.0,500.0,4.0,,,,,,,,,orange,square
0.0,5.0,1.0,1.0,6.0,6.0,777.6665609999327,6.0,1.0,phase_2,go,550.0,500.0,1.0,,,,,,,,,white,circle
0.0,1.0,1.0,0.0,5.0,5.0,423.7181799999234,6.0,1.0,phase_2,go,550.0,500.0,1.0,,,,,,,,,magenta,cross
0.0,1.0,1.0,0.0,5.0,5.0,576.1367209997843,6.0,1.0,phase_2,go,550.0,500.0,1.0,,,,,,,,,magenta,cross
0.0,6.0,2.0,1.0,5.0,5.0,654.7069389998796,6.0,1.0,phase_2,stop,550.0,500.0,3.0,,,,,,,,,cyan,diamond
0.0,8.0,4.0,1.0,6.0,0.0,0.0,6.0,1.0,phase_2,stop,500.0,500.0,4.0,,,,,,,,,yellow,triangle
0.0,4.0,4.0,0.0,6.0,6.0,550.0390329998481,6.0,1.0,phase_2,go,500.0,550.0,1.0,,,,,,,,,blue,I
0.0,8.0,4.0,1.0,6.0,6.0,904.1616169997724,6.0,1.0,phase_2,go,500.0,550.0,1.0,,,,,,,,,yellow,triangle
0.0,7.0,3.0,1.0,6.0,6.0,774.9248370000714,6.0,1.0,phase_2,go,500.0,550.0,1.0,,,,,,,,,orange,square
0.0,8.0,4.0,1.0,6.0,6.0,555.6425169997965,6.0,1.0,phase_2,go,500.0,550.0,1.0,,,,,,,,,yellow,triangle
0.0,2.0,2.0,0.0,5.0,5.0,630.023818999689,6.0,1.0,phase_2,go,500.0,550.0,1.0,,,,,,,,,green,hexagon
0.0,8.0,4.0,1.0,6.0,6.0,451.8128989993784,6.0,1.0,phase_2,stop,500.0,550.0,3.0,,,,,,,,,yellow,triangle
0.0,6.0,2.0,1.0,5.0,0.0,0.0,6.0,1.0,phase_2,stop,500.0,500.0,4.0,,,,,,,,,cyan,diamond
0.0,5.0,1.0,1.0,5.0,5.0,649.9251790000926,6.0,1.0,phase_2,stop,550.0,500.0,3.0,,,,,,,,,white,circle
0.0,1.0,1.0,0.0,5.0,5.0,886.2814889998845,6.0,1.0,phase_2,go,500.0,500.0,1.0,,,,,,,,,magenta,cross
0.0,8.0,4.0,1.0,6.0,0.0,0.0,6.0,1.0,phase_2,stop,500.0,500.0,4.0,,,,,,,,,yellow,triangle
0.0,1.0,1.0,0.0,5.0,5.0,953.2848319995536,6.0,1.0,phase_2,go,500.0,550.0,1.0,,,,,,,,,magenta,cross
0.0,5.0,1.0,1.0,5.0,0.0,0.0,6.0,1.0,phase_2,stop,500.0,550.0,4.0,,,,,,,,,white,circle
0.0,4.0,4.0,0.0,5.0,5.0,540.5661839995446,6.0,1.0,phase_2,go,550.0,550.0,1.0,,,,,,,,,blue,I
0.0,1.0,1.0,0.0,5.0,5.0,852.7901309998924,6.0,1.0,phase_2,go,550.0,550.0,1.0,,,,,,,,,magenta,cross
0.0,2.0,2.0,0.0,6.0,6.0,682.432133000475,6.0,1.0,phase_2,go,550.0,550.0,1.0,,,,,,,,,green,hexagon
0.0,6.0,2.0,1.0,5.0,5.0,698.7506719997327,7.0,1.0,phase_2,stop,550.0,550.0,3.0,,,,,,,,,cyan,diamond
0.0,2.0,2.0,0.0,6.0,6.0,717.63564199955,7.0,1.0,phase_2,go,500.0,550.0,1.0,,,,,,,,,green,hexagon
0.0,3.0,3.0,0.0,6.0,6.0,586.0214320000523,7.0,1.0,phase_2,go,500.0,550.0,1.0,,,,,,,,,gray,flipped triangle
0.0,8.0,4.0,1.0,5.0,5.0,641.649170999699,7.0,1.0,phase_2,stop,500.0,550.0,3.0,,,,,,,,,yellow,triangle
0.0,6.0,2.0,1.0,5.0,0.0,0.0,7.0,1.0,phase_2,stop,450.0,550.0,4.0,,,,,,,,,cyan,diamond
0.0,2.0,2.0,0.0,5.0,5.0,679.2082950005351,7.0,1.0,phase_2,go,500.0,550.0,1.0,,,,,,,,,green,hexagon
0.0,2.0,2.0,0.0,5.0,5.0,559.9392189997161,7.0,1.0,phase_2,go,500.0,550.0,1.0,,,,,,,,,green,hexagon
0.0,5.0,1.0,1.0,5.0,5.0,466.9330319993605,7.0,1.0,phase_2,stop,500.0,550.0,3.0,,,,,,,,,white,circle
0.0,8.0,4.0,1.0,5.0,0.0,0.0,7.0,1.0,phase_2,stop,450.0,550.0,4.0,,,,,,,,,yellow,triangle
0.0,1.0,1.0,0.0,6.0,6.0,636.620516000221,7.0,1.0,phase_2,go,500.0,550.0,1.0,,,,,,,,,magenta,cross
0.0,3.0,3.0,0.0,5.0,5.0,683.7552429997231,7.0,1.0,phase_2,go,500.0,550.0,1.0,,,,,,,,,gray,flipped triangle
0.0,2.0,2.0,0.0,5.0,5.0,605.0833710005463,7.0,1.0,phase_2,go,500.0,550.0,1.0,,,,,,,,,green,hexagon
0.0,7.0,3.0,1.0,6.0,6.0,791.2625070002832,7.0,1.0,phase_2,go,500.0,550.0,1.0,,,,,,,,,orange,square
0.0,6.0,2.0,1.0,6.0,6.0,681.9505529992966,7.0,1.0,phase_2,stop,500.0,550.0,3.0,,,,,,,,,cyan,diamond
0.0,7.0,3.0,1.0,6.0,6.0,825.5167779998374,7.0,1.0,phase_2,go,500.0,500.0,1.0,,,,,,,,,orange,square
0.0,2.0,2.0,0.0,6.0,6.0,471.4129249996404,7.0,1.0,phase_2,go,500.0,500.0,1.0,,,,,,,,,green,hexagon
0.0,2.0,2.0,0.0,5.0,5.0,489.8673480001889,7.0,1.0,phase_2,go,500.0,500.0,1.0,,,,,,,,,green,hexagon
0.0,3.0,3.0,0.0,5.0,5.0,583.8410149999618,7.0,1.0,phase_2,go,500.0,500.0,1.0,,,,,,,,,gray,flipped triangle
0.0,8.0,4.0,1.0,6.0,0.0,0.0,7.0,1.0,phase_2,stop,500.0,500.0,4.0,,,,,,,,,yellow,triangle
0.0,2.0,2.0,0.0,5.0,5.0,570.4992199998742,7.0,1.0,phase_2,go,500.0,550.0,1.0,,,,,,,,,green,hexagon
0.0,6.0,2.0,1.0,5.0,0.0,0.0,7.0,1.0,phase_2,stop,500.0,550.0,4.0,,,,,,,,,cyan,diamond
0.0,1.0,1.0,0.0,5.0,5.0,664.549543999783,7.0,1.0,phase_2,go,550.0,550.0,1.0,,,,,,,,,magenta,cross
0.0,5.0,1.0,1.0,6.0,6.0,594.2876480003179,7.0,1.0,phase_2,stop,550.0,550.0,3.0,,,,,,,,,white,circle
0.0,7.0,3.0,1.0,5.0,5.0,715.8537790000992,7.0,1.0,phase_2,go,550.0,500.0,1.0,,,,,,,,,orange,square
0.0,7.0,3.0,1.0,6.0,6.0,536.3966020004227,7.0,1.0,phase_2,stop,550.0,500.0,3.0,,,,,,,,,orange,square
0.0,6.0,2.0,1.0,6.0,0.0,0.0,7.0,1.0,phase_2,stop,550.0,450.0,4.0,,,,,,,,,cyan,diamond
0.0,7.0,3.0,1.0,6.0,0.0,0.0,7.0,1.0,phase_2,stop,550.0,500.0,4.0,,,,,,,,,orange,square
0.0,8.0,4.0,1.0,5.0,5.0,717.0277289997102,7.0,1.0,phase_2,go,550.0,550.0,1.0,,,,,,,,,yellow,triangle
0.0,8.0,4.0,1.0,6.0,6.0,485.1389249997737,7.0,1.0,phase_2,stop,550.0,550.0,3.0,,,,,,,,,yellow,triangle
0.0,4.0,4.0,0.0,5.0,5.0,520.8907689993794,7.0,1.0,phase_2,go,550.0,500.0,1.0,,,,,,,,,blue,I
0.0,3.0,3.0,0.0,6.0,6.0,768.840688999262,7.0,1.0,phase_2,go,550.0,500.0,1.0,,,,,,,,,gray,flipped triangle
0.0,7.0,3.0,1.0,5.0,0.0,0.0,7.0,1.0,phase_2,stop,550.0,500.0,4.0,,,,,,,,,orange,square
0.0,7.0,3.0,1.0,6.0,6.0,538.1715690000419,7.0,1.0,phase_2,stop,600.0,500.0,3.0,,,,,,,,,orange,square
0.0,5.0,1.0,1.0,5.0,0.0,0.0,7.0,1.0,phase_2,stop,600.0,450.0,4.0,,,,,,,,,white,circle
0.0,4.0,4.0,0.0,6.0,6.0,610.0093499999275,7.0,1.0,phase_2,go,650.0,450.0,1.0,,,,,,,,,blue,I
0.0,5.0,1.0,1.0,5.0,0.0,0.0,7.0,1.0,phase_2,stop,650.0,450.0,4.0,,,,,,,,,white,circle
0.0,5.0,1.0,1.0,5.0,5.0,614.217892999477,8.0,1.0,phase_2,stop,700.0,450.0,3.0,,,,,,,,,white,circle
0.0,1.0,1.0,0.0,5.0,5.0,797.7638930005924,8.0,1.0,phase_2,go,650.0,450.0,1.0,,,,,,,,,magenta,cross
0.0,8.0,4.0,1.0,5.0,5.0,689.8666679999224,8.0,1.0,phase_2,stop,650.0,450.0,3.0,,,,,,,,,yellow,triangle
0.0,4.0,4.0,0.0,5.0,5.0,484.5253640005467,8.0,1.0,phase_2,go,600.0,450.0,1.0,,,,,,,,,blue,I
0.0,3.0,3.0,0.0,5.0,5.0,640.7831420001457,8.0,1.0,phase_2,go,600.0,450.0,1.0,,,,,,,,,gray,flipped triangle
0.0,6.0,2.0,1.0,6.0,0.0,0.0,8.0,1.0,phase_2,stop,600.0,450.0,4.0,,,,,,,,,cyan,diamond
0.0,7.0,3.0,1.0,6.0,0.0,0.0,8.0,1.0,phase_2,stop,600.0,500.0,4.0,,,,,,,,,orange,square
0.0,4.0,4.0,0.0,6.0,6.0,588.1926279998879,8.0,1.0,phase_2,go,600.0,550.0,1.0,,,,,,,,,blue,I
0.0,4.0,4.0,0.0,6.0,6.0,431.4341799999965,8.0,1.0,phase_2,go,600.0,550.0,1.0,,,,,,,,,blue,I
0.0,8.0,4.0,1.0,5.0,5.0,729.9496639998324,8.0,1.0,phase_2,stop,600.0,550.0,3.0,,,,,,,,,yellow,triangle
0.0,2.0,2.0,0.0,6.0,6.0,676.531277000322,8.0,1.0,phase_2,go,550.0,550.0,1.0,,,,,,,,,green,hexagon
0.0,1.0,1.0,0.0,6.0,6.0,645.7195670000146,8.0,1.0,phase_2,go,550.0,550.0,1.0,,,,,,,,,magenta,cross
0.0,6.0,2.0,1.0,6.0,0.0,0.0,8.0,1.0,phase_2,stop,550.0,550.0,4.0,,,,,,,,,cyan,diamond
0.0,8.0,4.0,1.0,6.0,6.0,966.5463720002664,8.0,1.0,phase_2,go,550.0,600.0,1.0,,,,,,,,,yellow,triangle
0.0,2.0,2.0,0.0,6.0,6.0,570.3911129994594,8.0,1.0,phase_2,go,550.0,600.0,1.0,,,,,,,,,green,hexagon
0.0,2.0,2.0,0.0,6.0,6.0,353.298420000101,8.0,1.0,phase_2,go,550.0,600.0,1.0,,,,,,,,,green,hexagon
0.0,4.0,4.0,0.0,5.0,5.0,433.2807040000261,8.0,1.0,phase_2,go,550.0,600.0,1.0,,,,,,,,,blue,I
0.0,3.0,3.0,0.0,5.0,5.0,785.3409099998316,8.0,1.0,phase_2,go,550.0,600.0,1.0,,,,,,,,,gray,flipped triangle
0.0,5.0,1.0,1.0,5.0,0.0,0.0,8.0,1.0,phase_2,stop,550.0,600.0,4.0,,,,,,,,,white,circle
0.0,8.0,4.0,1.0,5.0,0.0,0.0,8.0,1.0,phase_2,stop,600.0,600.0,4.0,,,,,,,,,yellow,triangle
0.0,4.0,4.0,0.0,5.0,5.0,546.606236000116,8.0,1.0,phase_2,go,650.0,600.0,1.0,,,,,,,,,blue,I
0.0,4.0,4.0,0.0,5.0,5.0,520.840078999754,8.0,1.0,phase_2,go,650.0,600.0,1.0,,,,,,,,,blue,I
0.0,7.0,3.0,1.0,5.0,0.0,0.0,8.0,1.0,phase_2,stop,650.0,600.0,4.0,,,,,,,,,orange,square
0.0,2.0,2.0,0.0,5.0,5.0,731.632950999483,8.0,1.0,phase_2,go,700.0,600.0,1.0,,,,,,,,,green,hexagon
0.0,1.0,1.0,0.0,6.0,6.0,753.360192999935,8.0,1.0,phase_2,go,700.0,600.0,1.0,,,,,,,,,magenta,cross
0.0,1.0,1.0,0.0,6.0,6.0,494.0035060008085,8.0,1.0,phase_2,go,700.0,600.0,1.0,,,,,,,,,magenta,cross
0.0,4.0,4.0,0.0,5.0,5.0,533.3405009996568,8.0,1.0,phase_2,go,700.0,600.0,1.0,,,,,,,,,blue,I
0.0,4.0,4.0,0.0,5.0,5.0,364.482004999445,8.0,1.0,phase_2,go,700.0,600.0,1.0,,,,,,,,,blue,I
0.0,2.0,2.0,0.0,6.0,6.0,496.4855440002793,8.0,1.0,phase_2,go,700.0,600.0,1.0,,,,,,,,,green,hexagon
0.0,4.0,4.0,0.0,6.0,6.0,403.3171050004966,8.0,1.0,phase_2,go,700.0,600.0,1.0,,,,,,,,,blue,I
0.0,2.0,2.0,0.0,6.0,6.0,549.3830430004891,8.0,1.0,phase_2,go,700.0,600.0,1.0,,,,,,,,,green,hexagon
0.0,6.0,2.0,1.0,6.0,0.0,0.0,8.0,1.0,phase_2,stop,700.0,600.0,4.0,,,,,,,,,cyan,diamond
0.0,1.0,1.0,0.0,5.0,5.0,502.1769260001747,8.0,1.0,phase_2,go,700.0,650.0,1.0,,,,,,,,,magenta,cross
0.0,7.0,3.0,1.0,6.0,0.0,0.0,8.0,1.0,phase_2,stop,700.0,650.0,4.0,,,,,,,,,orange,square
0.0,6.0,2.0,1.0,5.0,0.0,0.0,8.0,1.0,phase_2,stop,700.0,700.0,4.0,,,,,,,,,cyan,diamond
0.0,5.0,1.0,1.0,6.0,0.0,0.0,8.0,1.0,phase_2,stop,750.0,700.0,4.0,,,,,,,,,white,circle
0.0,1.0,1.0,0.0,7.0,2.0,2887.6053789999787,1.0,1.0,phase_3,,,,,136.0,4.0,34.0,136.0,170.0,68.0,102.0,204.0,magenta,cross
0.0,6.0,2.0,1.0,7.0,4.0,2304.4823879999967,1.0,1.0,phase_3,,,,,234.0,6.0,117.0,78.0,39.0,234.0,195.0,156.0,cyan,diamond
0.0,8.0,4.0,1.0,7.0,4.0,2404.5750570003293,1.0,1.0,phase_3,,,,,204.0,6.0,170.0,34.0,102.0,204.0,136.0,68.0,yellow,triangle
0.0,3.0,3.0,0.0,7.0,5.0,2101.8945289997646,1.0,1.0,phase_3,,,,,234.0,6.0,156.0,78.0,195.0,117.0,234.0,39.0,gray,flipped triangle
0.0,7.0,3.0,1.0,7.0,2.0,1617.493127000671,1.0,1.0,phase_3,,,,,220.0,5.0,88.0,220.0,132.0,44.0,176.0,264.0,orange,square
0.0,7.0,3.0,1.0,7.0,2.0,2928.404514999784,1.0,1.0,phase_3,,,,,170.0,5.0,102.0,170.0,68.0,204.0,136.0,34.0,orange,square
0.0,6.0,2.0,1.0,7.0,3.0,3479.161206999379,1.0,1.0,phase_3,,,,,245.0,5.0,196.0,98.0,245.0,294.0,147.0,49.0,cyan,diamond
0.0,6.0,2.0,1.0,7.0,5.0,2024.5006409995767,1.0,1.0,phase_3,,,,,68.0,2.0,136.0,34.0,204.0,102.0,68.0,170.0,cyan,diamond
0.0,8.0,4.0,1.0,7.0,2.0,4036.4942790001805,1.0,1.0,phase_3,,,,,156.0,4.0,39.0,156.0,78.0,234.0,117.0,195.0,yellow,triangle
0.0,8.0,4.0,1.0,7.0,1.0,3260.054373999992,1.0,1.0,phase_3,,,,,176.0,4.0,176.0,88.0,44.0,220.0,264.0,132.0,yellow,triangle
0.0,3.0,3.0,0.0,7.0,3.0,3240.384507000272,1.0,1.0,phase_3,,,,,196.0,4.0,245.0,49.0,196.0,98.0,294.0,147.0,gray,flipped triangle
0.0,5.0,1.0,1.0,7.0,4.0,2266.1484319996816,1.0,1.0,phase_3,,,,,324.0,6.0,216.0,162.0,108.0,324.0,270.0,54.0,white,circle
0.0,4.0,4.0,0.0,7.0,1.0,2516.89229800013,1.0,1.0,phase_3,,,,,294.0,6.0,294.0,147.0,49.0,98.0,245.0,196.0,blue,I
0.0,4.0,4.0,0.0,7.0,1.0,1430.0618500001292,1.0,1.0,phase_3,,,,,264.0,6.0,264.0,176.0,88.0,220.0,44.0,132.0,blue,I
0.0,6.0,2.0,1.0,7.0,4.0,3708.135367000068,1.0,1.0,phase_3,,,,,195.0,5.0,39.0,117.0,78.0,195.0,234.0,156.0,cyan,diamond
0.0,4.0,4.0,0.0,7.0,5.0,3087.5934380001127,1.0,1.0,phase_3,,,,,170.0,5.0,136.0,204.0,102.0,34.0,170.0,68.0,blue,I
0.0,5.0,1.0,1.0,7.0,6.0,3379.157368000051,1.0,1.0,phase_3,,,,,176.0,4.0,220.0,44.0,264.0,88.0,132.0,176.0,white,circle
0.0,1.0,1.0,0.0,7.0,5.0,2560.604215999774,1.0,1.0,phase_3,,,,,234.0,6.0,39.0,156.0,117.0,195.0,234.0,78.0,magenta,cross
0.0,5.0,1.0,1.0,7.0,5.0,2640.033458999824,1.0,1.0,phase_3,,,,,195.0,5.0,156.0,117.0,39.0,78.0,195.0,234.0,white,circle
0.0,1.0,1.0,0.0,7.0,5.0,3515.148280000176,1.0,1.0,phase_3,,,,,245.0,5.0,49.0,98.0,196.0,294.0,245.0,147.0,magenta,cross
0.0,4.0,4.0,0.0,7.0,5.0,2127.796238999508,2.0,1.0,phase_3,,,,,216.0,4.0,162.0,324.0,108.0,270.0,216.0,54.0,blue,I
0.0,8.0,4.0,1.0,7.0,6.0,3137.633440999707,2.0,1.0,phase_3,,,,,132.0,3.0,44.0,264.0,220.0,88.0,176.0,132.0,yellow,triangle
0.0,6.0,2.0,1.0,7.0,3.0,2783.3808740006134,2.0,1.0,phase_3,,,,,264.0,6.0,220.0,88.0,264.0,132.0,44.0,176.0,cyan,diamond
0.0,4.0,4.0,0.0,7.0,6.0,1668.9492140003497,2.0,1.0,phase_3,,,,,294.0,6.0,147.0,245.0,98.0,49.0,196.0,294.0,blue,I
0.0,7.0,3.0,1.0,7.0,5.0,3573.942903999523,2.0,1.0,phase_3,,,,,117.0,3.0,78.0,39.0,195.0,156.0,117.0,234.0,orange,square
0.0,1.0,1.0,0.0,7.0,4.0,1222.6948179995816,2.0,1.0,phase_3,,,,,156.0,4.0,195.0,117.0,234.0,156.0,39.0,78.0,magenta,cross
0.0,2.0,2.0,0.0,7.0,3.0,2648.0856610005503,2.0,1.0,phase_3,,,,,234.0,6.0,78.0,117.0,234.0,156.0,195.0,39.0,green,hexagon
0.0,2.0,2.0,0.0,7.0,3.0,2947.069044999808,2.0,1.0,phase_3,,,,,196.0,4.0,294.0,49.0,196.0,245.0,98.0,147.0,green,hexagon
0.0,1.0,1.0,0.0,7.0,5.0,2539.8432150004737,2.0,1.0,phase_3,,,,,98.0,2.0,147.0,294.0,49.0,196.0,98.0,245.0,magenta,cross
0.0,5.0,1.0,1.0,7.0,3.0,3273.5687479998887,2.0,1.0,phase_3,,,,,49.0,1.0,98.0,294.0,49.0,147.0,245.0,196.0,white,circle
0.0,5.0,1.0,1.0,7.0,6.0,3611.835699999574,2.0,1.0,phase_3,,,,,117.0,3.0,39.0,195.0,78.0,156.0,234.0,117.0,white,circle
0.0,2.0,2.0,0.0,7.0,3.0,3769.323313999848,2.0,1.0,phase_3,,,,,216.0,4.0,108.0,54.0,216.0,324.0,162.0,270.0,green,hexagon
0.0,3.0,3.0,0.0,7.0,4.0,4854.662583999925,2.0,1.0,phase_3,,,,,216.0,4.0,162.0,324.0,270.0,216.0,54.0,108.0,gray,flipped triangle
0.0,5.0,1.0,1.0,7.0,2.0,3259.0943019995398,2.0,2.0,phase_3,,,,,264.0,6.0,176.0,264.0,132.0,220.0,44.0,88.0,white,circle
0.0,7.0,3.0,1.0,7.0,2.0,3146.700678000343,2.0,1.0,phase_3,,,,,270.0,5.0,216.0,270.0,108.0,324.0,162.0,54.0,orange,square
0.0,8.0,4.0,1.0,7.0,6.0,3427.6806590005435,2.0,1.0,phase_3,,,,,147.0,3.0,49.0,98.0,196.0,294.0,245.0,147.0,yellow,triangle
0.0,7.0,3.0,1.0,7.0,6.0,2886.6550540005846,2.0,1.0,phase_3,,,,,117.0,3.0,156.0,195.0,234.0,78.0,39.0,117.0,orange,square
0.0,1.0,1.0,0.0,7.0,5.0,2667.93761200006,2.0,1.0,phase_3,,,,,220.0,5.0,264.0,176.0,88.0,132.0,220.0,44.0,magenta,cross
0.0,8.0,4.0,1.0,7.0,1.0,3175.80215199996,2.0,1.0,phase_3,,,,,234.0,6.0,234.0,195.0,39.0,156.0,78.0,117.0,yellow,triangle
0.0,1.0,1.0,0.0,7.0,3.0,2787.1376390003206,2.0,1.0,phase_3,,,,,162.0,3.0,324.0,108.0,162.0,216.0,54.0,270.0,magenta,cross
0.0,8.0,4.0,1.0,7.0,5.0,2464.227419000053,3.0,1.0,phase_3,,,,,196.0,4.0,98.0,147.0,294.0,245.0,196.0,49.0,yellow,triangle
0.0,6.0,2.0,1.0,7.0,2.0,2588.839620999352,3.0,1.0,phase_3,,,,,245.0,5.0,98.0,245.0,147.0,196.0,294.0,49.0,cyan,diamond
0.0,4.0,4.0,0.0,7.0,1.0,2884.230233999915,3.0,1.0,phase_3,,,,,204.0,6.0,204.0,170.0,34.0,68.0,102.0,136.0,blue,I
0.0,6.0,2.0,1.0,7.0,1.0,2709.206974999688,3.0,1.0,phase_3,,,,,108.0,2.0,108.0,54.0,216.0,270.0,324.0,162.0,cyan,diamond
0.0,6.0,2.0,1.0,7.0,6.0,2481.9798039998204,3.0,1.0,phase_3,,,,,204.0,6.0,68.0,34.0,102.0,170.0,136.0,204.0,cyan,diamond
0.0,8.0,4.0,1.0,7.0,2.0,2308.775538000191,3.0,1.0,phase_3,,,,,170.0,5.0,204.0,170.0,136.0,68.0,102.0,34.0,yellow,triangle
0.0,2.0,2.0,0.0,7.0,2.0,2907.115566999892,3.0,1.0,phase_3,,,,,195.0,5.0,117.0,195.0,39.0,234.0,78.0,156.0,green,hexagon
0.0,3.0,3.0,0.0,7.0,3.0,3091.623029999937,3.0,1.0,phase_3,,,,,102.0,3.0,204.0,170.0,102.0,136.0,34.0,68.0,gray,flipped triangle
0.0,3.0,3.0,0.0,7.0,5.0,2944.2154139997,3.0,1.0,phase_3,,,,,49.0,1.0,147.0,98.0,294.0,245.0,49.0,196.0,gray,flipped triangle
0.0,8.0,4.0,1.0,7.0,3.0,3638.864905000446,3.0,1.0,phase_3,,,,,324.0,6.0,162.0,108.0,324.0,216.0,270.0,54.0,yellow,triangle
0.0,7.0,3.0,1.0,7.0,5.0,2962.480025000332,3.0,1.0,phase_3,,,,,196.0,4.0,49.0,98.0,294.0,245.0,196.0,147.0,orange,square
0.0,7.0,3.0,1.0,7.0,3.0,1570.544553000218,3.0,1.0,phase_3,,,,,216.0,4.0,270.0,162.0,216.0,324.0,108.0,54.0,orange,square
0.0,4.0,4.0,0.0,7.0,6.0,2812.686524000128,3.0,1.0,phase_3,,,,,195.0,5.0,156.0,39.0,234.0,78.0,117.0,195.0,blue,I
0.0,4.0,4.0,0.0,7.0,3.0,3392.9557720002776,3.0,1.0,phase_3,,,,,220.0,5.0,176.0,264.0,220.0,88.0,132.0,44.0,blue,I
0.0,2.0,2.0,0.0,7.0,4.0,2516.0765869995885,3.0,1.0,phase_3,,,,,196.0,4.0,294.0,98.0,147.0,196.0,49.0,245.0,green,hexagon
0.0,2.0,2.0,0.0,7.0,6.0,3323.377398000048,3.0,1.0,phase_3,,,,,176.0,4.0,132.0,220.0,264.0,44.0,88.0,176.0,green,hexagon
0.0,1.0,1.0,0.0,7.0,2.0,2290.1518210001086,3.0,1.0,phase_3,,,,,324.0,6.0,54.0,324.0,108.0,270.0,216.0,162.0,magenta,cross
0.0,3.0,3.0,0.0,7.0,5.0,2277.6610079999955,3.0,1.0,phase_3,,,,,132.0,3.0,264.0,44.0,176.0,88.0,132.0,220.0,gray,flipped triangle
0.0,4.0,4.0,0.0,7.0,1.0,2558.3941109998705,3.0,1.0,phase_3,,,,,324.0,6.0,324.0,216.0,162.0,54.0,108.0,270.0,blue,I
0.0,2.0,2.0,0.0,7.0,6.0,2349.102660999961,3.0,1.0,phase_3,,,,,204.0,6.0,34.0,170.0,102.0,136.0,68.0,204.0,green,hexagon
0.0,5.0,1.0,1.0,7.0,1.0,2492.636152999694,4.0,1.0,phase_3,,,,,170.0,5.0,170.0,68.0,34.0,204.0,136.0,102.0,white,circle
0.0,3.0,3.0,0.0,7.0,5.0,3074.6741849998216,4.0,1.0,phase_3,,,,,102.0,3.0,136.0,68.0,170.0,34.0,102.0,204.0,gray,flipped triangle
0.0,7.0,3.0,1.0,7.0,5.0,2975.861807000001,4.0,1.0,phase_3,,,,,264.0,6.0,220.0,88.0,176.0,44.0,264.0,132.0,orange,square
0.0,8.0,4.0,1.0,7.0,4.0,1806.6254839995963,4.0,1.0,phase_3,,,,,216.0,4.0,54.0,324.0,108.0,216.0,162.0,270.0,yellow,triangle
0.0,5.0,1.0,1.0,7.0,3.0,1785.1422089997868,4.0,1.0,phase_3,,,,,34.0,1.0,102.0,204.0,34.0,170.0,68.0,136.0,white,circle
0.0,2.0,2.0,0.0,7.0,1.0,2382.5964039997416,4.0,1.0,phase_3,,,,,136.0,4.0,136.0,34.0,68.0,170.0,204.0,102.0,green,hexagon
0.0,6.0,2.0,1.0,7.0,5.0,2986.8283099995097,4.0,1.0,phase_3,,,,,324.0,6.0,54.0,270.0,162.0,108.0,324.0,216.0,cyan,diamond
0.0,6.0,2.0,1.0,7.0,2.0,3466.7242559999067,4.0,1.0,phase_3,,,,,132.0,3.0,264.0,132.0,44.0,88.0,176.0,220.0,cyan,diamond
0.0,1.0,1.0,0.0,7.0,5.0,3917.460398000003,4.0,1.0,phase_3,,,,,176.0,4.0,132.0,264.0,88.0,220.0,176.0,44.0,magenta,cross
0.0,4.0,4.0,0.0,7.0,1.0,2401.4751980002984,4.0,1.0,phase_3,,,,,195.0,5.0,195.0,78.0,39.0,234.0,156.0,117.0,blue,I
0.0,3.0,3.0,0.0,7.0,2.0,2958.874394000304,4.0,1.0,phase_3,,,,,270.0,5.0,108.0,270.0,324.0,216.0,54.0,162.0,gray,flipped triangle
0.0,7.0,3.0,1.0,7.0,6.0,2975.9378420003486,4.0,1.0,phase_3,,,,,136.0,4.0,102.0,34.0,204.0,170.0,68.0,136.0,orange,square
0.0,5.0,1.0,1.0,7.0,3.0,3414.247673999853,4.0,1.0,phase_3,,,,,147.0,3.0,294.0,245.0,147.0,49.0,98.0,196.0,white,circle
0.0,1.0,1.0,0.0,7.0,6.0,3269.702481999957,4.0,1.0,phase_3,,,,,102.0,3.0,34.0,170.0,204.0,68.0,136.0,102.0,magenta,cross
0.0,2.0,2.0,0.0,7.0,6.0,3473.6257229997136,4.0,1.0,phase_3,,,,,88.0,2.0,132.0,176.0,220.0,44.0,264.0,88.0,green,hexagon
0.0,3.0,3.0,0.0,7.0,2.0,3486.462728999868,4.0,1.0,phase_3,,,,,176.0,4.0,220.0,176.0,44.0,264.0,132.0,88.0,gray,flipped triangle
0.0,5.0,1.0,1.0,7.0,3.0,2710.997602000134,4.0,1.0,phase_3,,,,,162.0,3.0,270.0,324.0,162.0,54.0,108.0,216.0,white,circle
0.0,7.0,3.0,1.0,7.0,6.0,3432.1457509995525,4.0,1.0,phase_3,,,,,245.0,5.0,294.0,98.0,196.0,147.0,49.0,245.0,orange,square
0.0,2.0,2.0,0.0,7.0,6.0,3649.743008000769,4.0,1.0,phase_3,,,,,108.0,2.0,216.0,54.0,162.0,324.0,270.0,108.0,green,hexagon
0.0,3.0,3.0,0.0,7.0,4.0,2916.0790370006,4.0,1.0,phase_3,,,,,156.0,4.0,195.0,39.0,78.0,156.0,117.0,234.0,gray,flipped triangle
