raw_reward_magnitude,stim_reward,stepwise_reward_magnitude,paired_with_stopping,quadrant,response,reaction_time,block,num_trial_presentations,which_part,stop_signal_trial_type,left_SSD,right_SSD,accuracy,chosen_bidding_amount,chosen_bidding_level,possible_bid_1,possible_bid_2,possible_bid_3,possible_bid_4,possible_bid_5,possible_bid_6,color_text,shape_text
0.0,2.0,0.0,0.0,4.0,4.0,568.2731340000373,1.0,1.0,part_1,,,,,,,,,,,,,green,flipped triangle
415.0,8.0,4.0,1.0,4.0,4.0,608.6580730000151,1.0,1.0,part_1,,,,,,,,,,,,,blue,cross
177.0,3.0,3.0,0.0,1.0,1.0,467.187985999999,1.0,1.0,part_1,,,,,,,,,,,,,yellow,square
116.0,2.0,2.0,0.0,3.0,3.0,448.2917919999636,1.0,1.0,part_1,,,,,,,,,,,,,green,flipped triangle
198.0,3.0,3.0,0.0,4.0,4.0,536.7377860000033,1.0,1.0,part_1,,,,,,,,,,,,,yellow,square
0.0,3.0,0.0,0.0,4.0,4.0,425.9392999999818,1.0,1.0,part_1,,,,,,,,,,,,,yellow,square
0.0,3.0,0.0,0.0,2.0,2.0,346.137332000012,1.0,1.0,part_1,,,,,,,,,,,,,yellow,square
217.0,3.0,3.0,0.0,3.0,3.0,362.0736940000597,1.0,1.0,part_1,,,,,,,,,,,,,yellow,square
398.0,8.0,4.0,1.0,2.0,2.0,501.9287710000526,1.0,1.0,part_1,,,,,,,,,,,,,blue,cross
195.0,3.0,3.0,0.0,1.0,1.0,369.3167729999231,1.0,1.0,part_1,,,,,,,,,,,,,yellow,square
418.0,8.0,4.0,1.0,3.0,3.0,372.1850409999661,1.0,1.0,part_1,,,,,,,,,,,,,blue,cross
402.0,4.0,4.0,0.0,4.0,4.0,444.0590340000199,1.0,1.0,part_1,,,,,,,,,,,,,orange,circle
75.0,5.0,1.0,1.0,1.0,1.0,331.8472690000362,1.0,1.0,part_1,,,,,,,,,,,,,cyan,I
40.0,5.0,1.0,1.0,1.0,1.0,371.0123739999744,1.0,1.0,part_1,,,,,,,,,,,,,cyan,I
0.0,4.0,0.0,0.0,1.0,1.0,460.2815760000567,1.0,1.0,part_1,,,,,,,,,,,,,orange,circle
419.0,8.0,4.0,1.0,4.0,4.0,364.685355000006,1.0,1.0,part_1,,,,,,,,,,,,,blue,cross
176.0,7.0,3.0,1.0,4.0,4.0,341.600408999966,1.0,1.0,part_1,,,,,,,,,,,,,white,diamond
0.0,7.0,0.0,1.0,1.0,1.0,390.4234579999865,1.0,1.0,part_1,,,,,,,,,,,,,white,diamond
90.0,2.0,2.0,0.0,4.0,4.0,390.7017390000646,1.0,1.0,part_1,,,,,,,,,,,,,green,flipped triangle
386.0,8.0,4.0,1.0,4.0,4.0,392.1473500000729,1.0,1.0,part_1,,,,,,,,,,,,,blue,cross
0.0,4.0,0.0,0.0,2.0,2.0,304.3082140000024,1.0,1.0,part_1,,,,,,,,,,,,,orange,circle
90.0,2.0,2.0,0.0,3.0,3.0,318.6531459998605,1.0,1.0,part_1,,,,,,,,,,,,,green,flipped triangle
0.0,6.0,0.0,1.0,2.0,2.0,394.3309799999497,1.0,1.0,part_1,,,,,,,,,,,,,gray,hexagon
113.0,6.0,2.0,1.0,4.0,4.0,440.1058160001412,1.0,1.0,part_1,,,,,,,,,,,,,gray,hexagon
32.0,5.0,1.0,1.0,3.0,3.0,369.8238540000602,1.0,1.0,part_1,,,,,,,,,,,,,cyan,I
201.0,7.0,3.0,1.0,3.0,3.0,423.2339039999715,1.0,1.0,part_1,,,,,,,,,,,,,white,diamond
0.0,3.0,0.0,0.0,2.0,2.0,349.3273770000087,1.0,1.0,part_1,,,,,,,,,,,,,yellow,square
47.0,1.0,1.0,0.0,1.0,1.0,401.803781000126,1.0,1.0,part_1,,,,,,,,,,,,,magenta,triangle
380.0,4.0,4.0,0.0,4.0,4.0,366.4726030001475,1.0,1.0,part_1,,,,,,,,,,,,,orange,circle
388.0,8.0,4.0,1.0,2.0,2.0,347.1592880000571,1.0,1.0,part_1,,,,,,,,,,,,,blue,cross
0.0,2.0,0.0,0.0,1.0,1.0,418.7474350001139,1.0,1.0,part_1,,,,,,,,,,,,,green,flipped triangle
391.0,4.0,4.0,0.0,2.0,2.0,389.6721880000768,1.0,1.0,part_1,,,,,,,,,,,,,orange,circle
212.0,7.0,3.0,1.0,2.0,2.0,402.3582810000334,1.0,1.0,part_1,,,,,,,,,,,,,white,diamond
0.0,7.0,0.0,1.0,3.0,3.0,363.2221140001093,1.0,1.0,part_1,,,,,,,,,,,,,white,diamond
68.0,1.0,1.0,0.0,3.0,3.0,360.1144450001357,1.0,1.0,part_1,,,,,,,,,,,,,magenta,triangle
93.0,6.0,2.0,1.0,3.0,3.0,348.4217729999272,1.0,1.0,part_1,,,,,,,,,,,,,gray,hexagon
414.0,8.0,4.0,1.0,2.0,2.0,391.2879320000684,1.0,1.0,part_1,,,,,,,,,,,,,blue,cross
213.0,3.0,3.0,0.0,1.0,1.0,444.2387940000571,1.0,1.0,part_1,,,,,,,,,,,,,yellow,square
188.0,3.0,3.0,0.0,3.0,3.0,412.2638469998492,1.0,1.0,part_1,,,,,,,,,,,,,yellow,square
406.0,4.0,4.0,0.0,4.0,4.0,403.1679089998761,1.0,1.0,part_1,,,,,,,,,,,,,orange,circle
0.0,6.0,0.0,1.0,1.0,1.0,369.4594950000009,1.0,1.0,part_1,,,,,,,,,,,,,gray,hexagon
407.0,4.0,4.0,0.0,3.0,3.0,334.2500280000422,1.0,1.0,part_1,,,,,,,,,,,,,orange,circle
27.0,5.0,1.0,1.0,4.0,4.0,457.789054999921,1.0,1.0,part_1,,,,,,,,,,,,,cyan,I
0.0,5.0,0.0,1.0,4.0,4.0,422.1554490000017,1.0,1.0,part_1,,,,,,,,,,,,,cyan,I
106.0,2.0,2.0,0.0,3.0,3.0,354.5337009998093,1.0,1.0,part_1,,,,,,,,,,,,,green,flipped triangle
407.0,4.0,4.0,0.0,3.0,3.0,352.020075000155,1.0,1.0,part_1,,,,,,,,,,,,,orange,circle
60.0,5.0,1.0,1.0,2.0,2.0,345.1187630000731,1.0,1.0,part_1,,,,,,,,,,,,,cyan,I
403.0,8.0,4.0,1.0,1.0,1.0,397.8680739999163,1.0,1.0,part_1,,,,,,,,,,,,,blue,cross
0.0,4.0,0.0,0.0,3.0,3.0,373.509439000145,1.0,1.0,part_1,,,,,,,,,,,,,orange,circle
0.0,4.0,0.0,0.0,4.0,4.0,415.7312840000031,1.0,1.0,part_1,,,,,,,,,,,,,orange,circle
391.0,4.0,4.0,0.0,2.0,2.0,376.9903610000256,1.0,1.0,part_1,,,,,,,,,,,,,orange,circle
0.0,3.0,0.0,0.0,1.0,1.0,359.2543280001337,1.0,1.0,part_1,,,,,,,,,,,,,yellow,square
43.0,1.0,1.0,0.0,4.0,4.0,424.5487460000277,1.0,1.0,part_1,,,,,,,,,,,,,magenta,triangle
210.0,7.0,3.0,1.0,4.0,4.0,417.4247119999563,1.0,1.0,part_1,,,,,,,,,,,,,white,diamond
0.0,7.0,0.0,1.0,4.0,4.0,354.1038060000119,1.0,1.0,part_1,,,,,,,,,,,,,white,diamond
406.0,8.0,4.0,1.0,4.0,4.0,391.7579129999922,1.0,1.0,part_1,,,,,,,,,,,,,blue,cross
0.0,1.0,0.0,0.0,4.0,4.0,506.601375000173,1.0,1.0,part_1,,,,,,,,,,,,,magenta,triangle
83.0,2.0,2.0,0.0,1.0,1.0,365.9409660001529,1.0,1.0,part_1,,,,,,,,,,,,,green,flipped triangle
0.0,1.0,0.0,0.0,2.0,2.0,339.7652779999589,1.0,1.0,part_1,,,,,,,,,,,,,magenta,triangle
216.0,7.0,3.0,1.0,3.0,3.0,319.66136799997,1.0,1.0,part_1,,,,,,,,,,,,,white,diamond
0.0,5.0,0.0,1.0,3.0,3.0,314.1641009999603,1.0,1.0,part_1,,,,,,,,,,,,,cyan,I
108.0,6.0,2.0,1.0,4.0,4.0,432.7922439999838,1.0,1.0,part_1,,,,,,,,,,,,,gray,hexagon
383.0,4.0,4.0,0.0,1.0,1.0,394.5068059999812,1.0,1.0,part_1,,,,,,,,,,,,,orange,circle
49.0,5.0,1.0,1.0,2.0,2.0,365.2744089999942,1.0,1.0,part_1,,,,,,,,,,,,,cyan,I
176.0,3.0,3.0,0.0,2.0,2.0,394.7159099998316,1.0,1.0,part_1,,,,,,,,,,,,,yellow,square
0.0,8.0,0.0,1.0,1.0,1.0,435.0526810001156,1.0,1.0,part_1,,,,,,,,,,,,,blue,cross
180.0,3.0,3.0,0.0,4.0,4.0,398.4578339998279,1.0,1.0,part_1,,,,,,,,,,,,,yellow,square
72.0,5.0,1.0,1.0,1.0,1.0,357.8616319998673,1.0,1.0,part_1,,,,,,,,,,,,,cyan,I
54.0,5.0,1.0,1.0,4.0,4.0,369.8832690001836,1.0,1.0,part_1,,,,,,,,,,,,,cyan,I
102.0,2.0,2.0,0.0,1.0,1.0,372.0587150000938,1.0,1.0,part_1,,,,,,,,,,,,,green,flipped triangle
0.0,6.0,0.0,1.0,1.0,1.0,436.4556200000606,1.0,1.0,part_1,,,,,,,,,,,,,gray,hexagon
108.0,2.0,2.0,0.0,4.0,4.0,413.619171999926,1.0,1.0,part_1,,,,,,,,,,,,,green,flipped triangle
198.0,7.0,3.0,1.0,3.0,3.0,350.7385590000922,1.0,1.0,part_1,,,,,,,,,,,,,white,diamond
65.0,1.0,1.0,0.0,2.0,2.0,344.7250100000474,1.0,1.0,part_1,,,,,,,,,,,,,magenta,triangle
0.0,5.0,0.0,1.0,2.0,2.0,341.6745270001229,1.0,1.0,part_1,,,,,,,,,,,,,cyan,I
72.0,1.0,1.0,0.0,3.0,3.0,343.1625130001521,1.0,1.0,part_1,,,,,,,,,,,,,magenta,triangle
0.0,8.0,0.0,1.0,1.0,1.0,425.9764840001026,1.0,1.0,part_1,,,,,,,,,,,,,blue,cross
414.0,8.0,4.0,1.0,1.0,1.0,376.168984999822,1.0,1.0,part_1,,,,,,,,,,,,,blue,cross
119.0,2.0,2.0,0.0,2.0,2.0,358.5265310000523,1.0,1.0,part_1,,,,,,,,,,,,,green,flipped triangle
194.0,3.0,3.0,0.0,2.0,2.0,370.4223130000628,1.0,1.0,part_1,,,,,,,,,,,,,yellow,square
212.0,3.0,3.0,0.0,3.0,3.0,381.5974430001461,1.0,1.0,part_1,,,,,,,,,,,,,yellow,square
0.0,1.0,0.0,0.0,3.0,3.0,357.8970949999984,1.0,1.0,part_1,,,,,,,,,,,,,magenta,triangle
55.0,1.0,1.0,0.0,1.0,1.0,419.8085240000182,1.0,1.0,part_1,,,,,,,,,,,,,magenta,triangle
380.0,8.0,4.0,1.0,3.0,3.0,390.419490999875,1.0,1.0,part_1,,,,,,,,,,,,,blue,cross
103.0,6.0,2.0,1.0,2.0,2.0,387.0468989998699,1.0,1.0,part_1,,,,,,,,,,,,,gray,hexagon
63.0,1.0,1.0,0.0,1.0,1.0,439.7933160000775,1.0,1.0,part_1,,,,,,,,,,,,,magenta,triangle
190.0,3.0,3.0,0.0,2.0,2.0,342.9210019999118,1.0,1.0,part_1,,,,,,,,,,,,,yellow,square
385.0,8.0,4.0,1.0,2.0,2.0,364.6845089999715,1.0,1.0,part_1,,,,,,,,,,,,,blue,cross
204.0,7.0,3.0,1.0,3.0,3.0,351.4633419999882,1.0,1.0,part_1,,,,,,,,,,,,,white,diamond
85.0,2.0,2.0,0.0,4.0,4.0,584.6145199998318,1.0,1.0,part_1,,,,,,,,,,,,,green,flipped triangle
389.0,8.0,4.0,1.0,1.0,1.0,447.6477240000349,1.0,1.0,part_1,,,,,,,,,,,,,blue,cross
191.0,7.0,3.0,1.0,1.0,1.0,422.6497080001081,1.0,1.0,part_1,,,,,,,,,,,,,white,diamond
186.0,3.0,3.0,0.0,1.0,1.0,395.8987140001682,1.0,1.0,part_1,,,,,,,,,,,,,yellow,square
111.0,6.0,2.0,1.0,4.0,4.0,370.0368049999269,1.0,1.0,part_1,,,,,,,,,,,,,gray,hexagon
219.0,7.0,3.0,1.0,1.0,1.0,367.7762579998216,1.0,1.0,part_1,,,,,,,,,,,,,white,diamond
0.0,1.0,0.0,0.0,1.0,1.0,354.4741329999397,1.0,1.0,part_1,,,,,,,,,,,,,magenta,triangle
402.0,8.0,4.0,1.0,2.0,2.0,329.373508999879,1.0,1.0,part_1,,,,,,,,,,,,,blue,cross
219.0,3.0,3.0,0.0,4.0,4.0,459.450113999992,1.0,1.0,part_1,,,,,,,,,,,,,yellow,square
178.0,7.0,3.0,1.0,1.0,1.0,362.0527769999171,1.0,1.0,part_1,,,,,,,,,,,,,white,diamond
421.0,8.0,4.0,1.0,3.0,3.0,326.0806329999468,1.0,1.0,part_1,,,,,,,,,,,,,blue,cross
60.0,5.0,1.0,1.0,3.0,3.0,488.2714709999618,2.0,1.0,part_1,,,,,,,,,,,,,cyan,I
0.0,2.0,0.0,0.0,2.0,2.0,363.1997490001595,2.0,1.0,part_1,,,,,,,,,,,,,green,flipped triangle
195.0,7.0,3.0,1.0,4.0,4.0,436.6235120000965,2.0,1.0,part_1,,,,,,,,,,,,,white,diamond
121.0,6.0,2.0,1.0,3.0,3.0,312.9733620000934,2.0,1.0,part_1,,,,,,,,,,,,,gray,hexagon
87.0,2.0,2.0,0.0,3.0,3.0,364.4481789999645,2.0,1.0,part_1,,,,,,,,,,,,,green,flipped triangle
418.0,4.0,4.0,0.0,2.0,2.0,367.7546880001046,2.0,1.0,part_1,,,,,,,,,,,,,orange,circle
123.0,2.0,2.0,0.0,1.0,1.0,452.8545439998197,2.0,1.0,part_1,,,,,,,,,,,,,green,flipped triangle
75.0,1.0,1.0,0.0,2.0,2.0,297.4032769998302,2.0,1.0,part_1,,,,,,,,,,,,,magenta,triangle
193.0,3.0,3.0,0.0,1.0,1.0,436.1069809999662,2.0,1.0,part_1,,,,,,,,,,,,,yellow,square
220.0,3.0,3.0,0.0,2.0,2.0,325.3101600000718,2.0,1.0,part_1,,,,,,,,,,,,,yellow,square
0.0,3.0,0.0,0.0,4.0,4.0,405.5307300000095,2.0,1.0,part_1,,,,,,,,,,,,,yellow,square
109.0,2.0,2.0,0.0,4.0,4.0,425.8007680000446,2.0,1.0,part_1,,,,,,,,,,,,,green,flipped triangle
399.0,8.0,4.0,1.0,4.0,4.0,423.0469500000708,2.0,1.0,part_1,,,,,,,,,,,,,blue,cross
392.0,8.0,4.0,1.0,2.0,2.0,377.1038840000074,2.0,1.0,part_1,,,,,,,,,,,,,blue,cross
65.0,5.0,1.0,1.0,4.0,4.0,354.7335860000657,2.0,1.0,part_1,,,,,,,,,,,,,cyan,I
386.0,4.0,4.0,0.0,1.0,1.0,390.7198860001699,2.0,1.0,part_1,,,,,,,,,,,,,orange,circle
114.0,6.0,2.0,1.0,4.0,4.0,431.8097920001946,2.0,1.0,part_1,,,,,,,,,,,,,gray,hexagon
113.0,2.0,2.0,0.0,4.0,4.0,403.9798270000574,2.0,1.0,part_1,,,,,,,,,,,,,green,flipped triangle
76.0,6.0,2.0,1.0,2.0,2.0,355.3397109999423,2.0,1.0,part_1,,,,,,,,,,,,,gray,hexagon
0.0,6.0,0.0,1.0,4.0,4.0,469.992424999873,2.0,1.0,part_1,,,,,,,,,,,,,gray,hexagon
184.0,3.0,3.0,0.0,4.0,4.0,412.1044700000311,2.0,1.0,part_1,,,,,,,,,,,,,yellow,square
0.0,3.0,0.0,0.0,3.0,3.0,345.8693059999405,2.0,1.0,part_1,,,,,,,,,,,,,yellow,square
191.0,3.0,3.0,0.0,3.0,3.0,363.1767619999664,2.0,1.0,part_1,,,,,,,,,,,,,yellow,square
0.0,8.0,0.0,1.0,4.0,4.0,530.0078299999313,2.0,1.0,part_1,,,,,,,,,,,,,blue,cross
0.0,6.0,0.0,1.0,1.0,1.0,427.9667260000224,2.0,1.0,part_1,,,,,,,,,,,,,gray,hexagon
191.0,7.0,3.0,1.0,3.0,3.0,453.9604019998933,2.0,1.0,part_1,,,,,,,,,,,,,white,diamond
26.0,5.0,1.0,1.0,3.0,3.0,462.5682099999721,2.0,1.0,part_1,,,,,,,,,,,,,cyan,I
421.0,8.0,4.0,1.0,4.0,4.0,578.1800279999061,2.0,1.0,part_1,,,,,,,,,,,,,blue,cross
0.0,8.0,0.0,1.0,2.0,2.0,321.6598379999595,2.0,1.0,part_1,,,,,,,,,,,,,blue,cross
78.0,6.0,2.0,1.0,1.0,1.0,388.3999199999834,2.0,1.0,part_1,,,,,,,,,,,,,gray,hexagon
0.0,1.0,0.0,0.0,4.0,4.0,452.1421629999622,2.0,1.0,part_1,,,,,,,,,,,,,magenta,triangle
421.0,4.0,4.0,0.0,1.0,1.0,500.81317099989064,2.0,1.0,part_1,,,,,,,,,,,,,orange,circle
204.0,7.0,3.0,1.0,3.0,3.0,352.7032360000248,2.0,1.0,part_1,,,,,,,,,,,,,white,diamond
104.0,6.0,2.0,1.0,3.0,3.0,379.7308040000189,2.0,1.0,part_1,,,,,,,,,,,,,gray,hexagon
0.0,6.0,0.0,1.0,3.0,3.0,321.4670429999842,2.0,1.0,part_1,,,,,,,,,,,,,gray,hexagon
415.0,4.0,4.0,0.0,4.0,4.0,551.316498999995,2.0,1.0,part_1,,,,,,,,,,,,,orange,circle
184.0,7.0,3.0,1.0,1.0,1.0,437.4149149998629,2.0,1.0,part_1,,,,,,,,,,,,,white,diamond
400.0,4.0,4.0,0.0,3.0,3.0,488.3335990000432,2.0,1.0,part_1,,,,,,,,,,,,,orange,circle
194.0,7.0,3.0,1.0,2.0,2.0,406.6196180001498,2.0,1.0,part_1,,,,,,,,,,,,,white,diamond
0.0,4.0,0.0,0.0,2.0,2.0,346.6398860000481,2.0,1.0,part_1,,,,,,,,,,,,,orange,circle
0.0,4.0,0.0,0.0,3.0,3.0,370.3419459998258,2.0,1.0,part_1,,,,,,,,,,,,,orange,circle
72.0,5.0,1.0,1.0,1.0,1.0,408.8573230001202,2.0,1.0,part_1,,,,,,,,,,,,,cyan,I
34.0,1.0,1.0,0.0,4.0,4.0,430.2692470000693,2.0,1.0,part_1,,,,,,,,,,,,,magenta,triangle
217.0,7.0,3.0,1.0,2.0,2.0,330.2801790000558,2.0,1.0,part_1,,,,,,,,,,,,,white,diamond
63.0,5.0,1.0,1.0,2.0,2.0,366.8230749999566,2.0,1.0,part_1,,,,,,,,,,,,,cyan,I
183.0,7.0,3.0,1.0,1.0,1.0,437.7524189999349,2.0,1.0,part_1,,,,,,,,,,,,,white,diamond
180.0,7.0,3.0,1.0,3.0,3.0,372.6727629998549,2.0,1.0,part_1,,,,,,,,,,,,,white,diamond
0.0,8.0,0.0,1.0,4.0,4.0,478.3514089999698,2.0,1.0,part_1,,,,,,,,,,,,,blue,cross
188.0,3.0,3.0,0.0,4.0,4.0,522.7204899999833,2.0,1.0,part_1,,,,,,,,,,,,,yellow,square
396.0,4.0,4.0,0.0,3.0,3.0,374.0554549999615,2.0,1.0,part_1,,,,,,,,,,,,,orange,circle
191.0,3.0,3.0,0.0,3.0,3.0,411.2435059998915,2.0,1.0,part_1,,,,,,,,,,,,,yellow,square
419.0,4.0,4.0,0.0,2.0,2.0,432.3673050000707,2.0,1.0,part_1,,,,,,,,,,,,,orange,circle
102.0,6.0,2.0,1.0,2.0,2.0,420.1689469998655,2.0,1.0,part_1,,,,,,,,,,,,,gray,hexagon
188.0,7.0,3.0,1.0,1.0,1.0,413.9295299999048,2.0,1.0,part_1,,,,,,,,,,,,,white,diamond
204.0,3.0,3.0,0.0,1.0,1.0,416.5240410000024,2.0,1.0,part_1,,,,,,,,,,,,,yellow,square
387.0,4.0,4.0,0.0,4.0,4.0,476.765032000003,2.0,1.0,part_1,,,,,,,,,,,,,orange,circle
116.0,6.0,2.0,1.0,1.0,1.0,510.1296039999852,2.0,1.0,part_1,,,,,,,,,,,,,gray,hexagon
0.0,4.0,0.0,0.0,3.0,3.0,481.9167850000667,2.0,1.0,part_1,,,,,,,,,,,,,orange,circle
87.0,6.0,2.0,1.0,2.0,2.0,332.8120700000454,2.0,1.0,part_1,,,,,,,,,,,,,gray,hexagon
84.0,2.0,2.0,0.0,2.0,2.0,385.7835260000684,2.0,1.0,part_1,,,,,,,,,,,,,green,flipped triangle
0.0,8.0,0.0,1.0,2.0,2.0,356.6565030000674,2.0,1.0,part_1,,,,,,,,,,,,,blue,cross
202.0,7.0,3.0,1.0,4.0,4.0,431.8936090000989,2.0,1.0,part_1,,,,,,,,,,,,,white,diamond
216.0,3.0,3.0,0.0,3.0,3.0,394.9579099999027,2.0,1.0,part_1,,,,,,,,,,,,,yellow,square
202.0,3.0,3.0,0.0,1.0,1.0,372.07150800009,2.0,1.0,part_1,,,,,,,,,,,,,yellow,square
422.0,8.0,4.0,1.0,3.0,3.0,411.252789999935,2.0,1.0,part_1,,,,,,,,,,,,,blue,cross
393.0,4.0,4.0,0.0,2.0,2.0,357.439690000092,2.0,1.0,part_1,,,,,,,,,,,,,orange,circle
222.0,7.0,3.0,1.0,1.0,1.0,444.7500609999224,2.0,1.0,part_1,,,,,,,,,,,,,white,diamond
0.0,5.0,0.0,1.0,4.0,4.0,382.3654479999732,2.0,1.0,part_1,,,,,,,,,,,,,cyan,I
0.0,1.0,0.0,0.0,3.0,3.0,500.412125000139,2.0,1.0,part_1,,,,,,,,,,,,,magenta,triangle
222.0,3.0,3.0,0.0,4.0,4.0,543.3074340000985,2.0,1.0,part_1,,,,,,,,,,,,,yellow,square
49.0,1.0,1.0,0.0,2.0,2.0,360.9197830000994,2.0,1.0,part_1,,,,,,,,,,,,,magenta,triangle
198.0,7.0,3.0,1.0,4.0,4.0,579.9060100000588,2.0,1.0,part_1,,,,,,,,,,,,,white,diamond
0.0,2.0,0.0,0.0,4.0,4.0,458.3500460000778,2.0,1.0,part_1,,,,,,,,,,,,,green,flipped triangle
0.0,5.0,0.0,1.0,2.0,2.0,382.6617320000878,2.0,1.0,part_1,,,,,,,,,,,,,cyan,I
407.0,8.0,4.0,1.0,2.0,2.0,410.4520339999453,2.0,1.0,part_1,,,,,,,,,,,,,blue,cross
64.0,1.0,1.0,0.0,2.0,2.0,388.7946969998666,2.0,1.0,part_1,,,,,,,,,,,,,magenta,triangle
389.0,4.0,4.0,0.0,4.0,4.0,393.2513270001436,2.0,1.0,part_1,,,,,,,,,,,,,orange,circle
224.0,3.0,3.0,0.0,3.0,3.0,360.8101229999647,2.0,1.0,part_1,,,,,,,,,,,,,yellow,square
222.0,3.0,3.0,0.0,4.0,4.0,428.5282399998777,2.0,1.0,part_1,,,,,,,,,,,,,yellow,square
72.0,1.0,1.0,0.0,3.0,3.0,320.3526369998144,2.0,1.0,part_1,,,,,,,,,,,,,magenta,triangle
44.0,5.0,1.0,1.0,1.0,1.0,374.0408740000021,2.0,1.0,part_1,,,,,,,,,,,,,cyan,I
393.0,4.0,4.0,0.0,2.0,2.0,321.2252539999554,2.0,1.0,part_1,,,,,,,,,,,,,orange,circle
398.0,4.0,4.0,0.0,3.0,3.0,373.2310010000219,2.0,1.0,part_1,,,,,,,,,,,,,orange,circle
0.0,5.0,0.0,1.0,1.0,1.0,412.5941050001529,2.0,1.0,part_1,,,,,,,,,,,,,cyan,I
419.0,4.0,4.0,0.0,3.0,3.0,322.6199159998941,2.0,1.0,part_1,,,,,,,,,,,,,orange,circle
0.0,3.0,0.0,0.0,2.0,2.0,379.0337519999411,2.0,1.0,part_1,,,,,,,,,,,,,yellow,square
0.0,7.0,0.0,1.0,2.0,2.0,342.8893369998604,2.0,1.0,part_1,,,,,,,,,,,,,white,diamond
0.0,3.0,0.0,0.0,4.0,4.0,437.5304170000618,2.0,1.0,part_1,,,,,,,,,,,,,yellow,square
193.0,7.0,3.0,1.0,3.0,3.0,327.0806689999972,2.0,1.0,part_1,,,,,,,,,,,,,white,diamond
56.0,1.0,1.0,0.0,2.0,2.0,320.1255490000676,2.0,1.0,part_1,,,,,,,,,,,,,magenta,triangle
0.0,8.0,0.0,1.0,3.0,3.0,339.5560709998335,2.0,1.0,part_1,,,,,,,,,,,,,blue,cross
41.0,5.0,1.0,1.0,2.0,2.0,329.1469470000265,2.0,1.0,part_1,,,,,,,,,,,,,cyan,I
398.0,8.0,4.0,1.0,1.0,1.0,449.670277999985,2.0,1.0,part_1,,,,,,,,,,,,,blue,cross
83.0,6.0,2.0,1.0,3.0,3.0,367.097977999947,2.0,1.0,part_1,,,,,,,,,,,,,gray,hexagon
217.0,7.0,3.0,1.0,4.0,4.0,544.5371230000546,2.0,1.0,part_1,,,,,,,,,,,,,white,diamond
85.0,6.0,2.0,1.0,2.0,2.0,379.9154640000779,2.0,1.0,part_1,,,,,,,,,,,,,gray,hexagon
105.0,6.0,2.0,1.0,4.0,4.0,550.3019770001174,2.0,1.0,part_1,,,,,,,,,,,,,gray,hexagon
210.0,3.0,3.0,0.0,2.0,2.0,378.5185130000172,2.0,1.0,part_1,,,,,,,,,,,,,yellow,square
105.0,2.0,2.0,0.0,2.0,2.0,403.2352749998154,2.0,1.0,part_1,,,,,,,,,,,,,green,flipped triangle
37.0,1.0,1.0,0.0,2.0,2.0,333.4658819999276,2.0,1.0,part_1,,,,,,,,,,,,,magenta,triangle
202.0,7.0,3.0,1.0,4.0,4.0,549.4595659999959,3.0,1.0,part_1,,,,,,,,,,,,,white,diamond
55.0,5.0,1.0,1.0,2.0,2.0,348.9925310000217,3.0,1.0,part_1,,,,,,,,,,,,,cyan,I
213.0,7.0,3.0,1.0,4.0,4.0,387.8108839999186,3.0,1.0,part_1,,,,,,,,,,,,,white,diamond
189.0,7.0,3.0,1.0,4.0,4.0,372.0843159999276,3.0,1.0,part_1,,,,,,,,,,,,,white,diamond
45.0,1.0,1.0,0.0,4.0,4.0,374.7550409998439,3.0,1.0,part_1,,,,,,,,,,,,,magenta,triangle
51.0,5.0,1.0,1.0,3.0,3.0,368.3104409999487,3.0,1.0,part_1,,,,,,,,,,,,,cyan,I
198.0,3.0,3.0,0.0,4.0,4.0,336.2413930001366,3.0,1.0,part_1,,,,,,,,,,,,,yellow,square
34.0,5.0,1.0,1.0,4.0,4.0,384.7949900000458,3.0,1.0,part_1,,,,,,,,,,,,,cyan,I
422.0,4.0,4.0,0.0,1.0,1.0,416.6278469999724,3.0,1.0,part_1,,,,,,,,,,,,,orange,circle
47.0,5.0,1.0,1.0,3.0,3.0,350.9245679999822,3.0,1.0,part_1,,,,,,,,,,,,,cyan,I
391.0,8.0,4.0,1.0,3.0,3.0,360.3351790000033,3.0,1.0,part_1,,,,,,,,,,,,,blue,cross
0.0,2.0,0.0,0.0,4.0,4.0,363.5083870001381,3.0,1.0,part_1,,,,,,,,,,,,,green,flipped triangle
223.0,3.0,3.0,0.0,1.0,1.0,362.7146710000488,3.0,1.0,part_1,,,,,,,,,,,,,yellow,square
32.0,5.0,1.0,1.0,3.0,3.0,345.1339809998899,3.0,1.0,part_1,,,,,,,,,,,,,cyan,I
32.0,1.0,1.0,0.0,4.0,4.0,398.2765149999068,3.0,1.0,part_1,,,,,,,,,,,,,magenta,triangle
82.0,6.0,2.0,1.0,3.0,3.0,317.6296090000505,3.0,1.0,part_1,,,,,,,,,,,,,gray,hexagon
217.0,3.0,3.0,0.0,3.0,3.0,386.5846639998835,3.0,1.0,part_1,,,,,,,,,,,,,yellow,square
97.0,6.0,2.0,1.0,1.0,1.0,372.3405249997995,3.0,1.0,part_1,,,,,,,,,,,,,gray,hexagon
33.0,1.0,1.0,0.0,4.0,4.0,463.4166179998829,3.0,1.0,part_1,,,,,,,,,,,,,magenta,triangle
424.0,8.0,4.0,1.0,4.0,4.0,403.7292329999218,3.0,1.0,part_1,,,,,,,,,,,,,blue,cross
404.0,4.0,4.0,0.0,1.0,1.0,345.9690829999999,3.0,1.0,part_1,,,,,,,,,,,,,orange,circle
89.0,2.0,2.0,0.0,2.0,2.0,278.9229400000295,3.0,1.0,part_1,,,,,,,,,,,,,green,flipped triangle
398.0,4.0,4.0,0.0,1.0,1.0,361.3224639998407,3.0,1.0,part_1,,,,,,,,,,,,,orange,circle
110.0,6.0,2.0,1.0,4.0,4.0,311.0040019998905,3.0,1.0,part_1,,,,,,,,,,,,,gray,hexagon
67.0,1.0,1.0,0.0,1.0,1.0,381.0385070000848,3.0,1.0,part_1,,,,,,,,,,,,,magenta,triangle
205.0,7.0,3.0,1.0,3.0,3.0,339.271103000101,3.0,1.0,part_1,,,,,,,,,,,,,white,diamond
0.0,5.0,0.0,1.0,4.0,4.0,421.2723250000181,3.0,1.0,part_1,,,,,,,,,,,,,cyan,I
97.0,2.0,2.0,0.0,2.0,2.0,334.8943969999709,3.0,1.0,part_1,,,,,,,,,,,,,green,flipped triangle
86.0,2.0,2.0,0.0,3.0,3.0,359.9063290000686,3.0,1.0,part_1,,,,,,,,,,,,,green,flipped triangle
380.0,8.0,4.0,1.0,2.0,2.0,378.6134160000074,3.0,1.0,part_1,,,,,,,,,,,,,blue,cross
67.0,5.0,1.0,1.0,4.0,4.0,494.5959300000595,3.0,1.0,part_1,,,,,,,,,,,,,cyan,I
123.0,6.0,2.0,1.0,4.0,4.0,374.9212369998531,3.0,1.0,part_1,,,,,,,,,,,,,gray,hexagon
0.0,8.0,0.0,1.0,2.0,2.0,317.528879000065,3.0,1.0,part_1,,,,,,,,,,,,,blue,cross
44.0,5.0,1.0,1.0,4.0,4.0,414.0677170000799,3.0,1.0,part_1,,,,,,,,,,,,,cyan,I
384.0,8.0,4.0,1.0,4.0,4.0,411.548047999986,3.0,1.0,part_1,,,,,,,,,,,,,blue,cross
64.0,5.0,1.0,1.0,2.0,2.0,499.5652869999958,3.0,1.0,part_1,,,,,,,,,,,,,cyan,I
200.0,3.0,3.0,0.0,2.0,2.0,328.4861370000271,3.0,1.0,part_1,,,,,,,,,,,,,yellow,square
85.0,6.0,2.0,1.0,1.0,1.0,387.1701840000696,3.0,1.0,part_1,,,,,,,,,,,,,gray,hexagon
212.0,3.0,3.0,0.0,2.0,2.0,326.3639260001127,3.0,1.0,part_1,,,,,,,,,,,,,yellow,square
83.0,6.0,2.0,1.0,3.0,3.0,383.1765840000116,3.0,1.0,part_1,,,,,,,,,,,,,gray,hexagon
392.0,4.0,4.0,0.0,1.0,1.0,405.3534259999196,3.0,1.0,part_1,,,,,,,,,,,,,orange,circle
78.0,2.0,2.0,0.0,1.0,1.0,355.1362870000503,3.0,1.0,part_1,,,,,,,,,,,,,green,flipped triangle
0.0,7.0,0.0,1.0,3.0,3.0,456.405598000174,3.0,1.0,part_1,,,,,,,,,,,,,white,diamond
418.0,8.0,4.0,1.0,2.0,2.0,382.2681169999669,3.0,1.0,part_1,,,,,,,,,,,,,blue,cross
85.0,2.0,2.0,0.0,4.0,4.0,415.5627699999513,3.0,1.0,part_1,,,,,,,,,,,,,green,flipped triangle
0.0,4.0,0.0,0.0,1.0,1.0,360.0727210000514,3.0,1.0,part_1,,,,,,,,,,,,,orange,circle
0.0,4.0,0.0,0.0,1.0,1.0,391.8440600000394,3.0,1.0,part_1,,,,,,,,,,,,,orange,circle
90.0,6.0,2.0,1.0,1.0,1.0,340.2768179998929,3.0,1.0,part_1,,,,,,,,,,,,,gray,hexagon
110.0,2.0,2.0,0.0,2.0,2.0,336.9473630000357,3.0,1.0,part_1,,,,,,,,,,,,,green,flipped triangle
399.0,4.0,4.0,0.0,3.0,3.0,291.7144210000515,3.0,1.0,part_1,,,,,,,,,,,,,orange,circle
27.0,1.0,1.0,0.0,3.0,3.0,303.0794060000517,3.0,1.0,part_1,,,,,,,,,,,,,magenta,triangle
0.0,6.0,0.0,1.0,3.0,3.0,301.9128469998122,3.0,1.0,part_1,,,,,,,,,,,,,gray,hexagon
40.0,1.0,1.0,0.0,4.0,4.0,471.6250389999459,3.0,1.0,part_1,,,,,,,,,,,,,magenta,triangle
419.0,8.0,4.0,1.0,1.0,1.0,347.1588580000571,3.0,1.0,part_1,,,,,,,,,,,,,blue,cross
377.0,4.0,4.0,0.0,2.0,2.0,309.1311089999635,3.0,1.0,part_1,,,,,,,,,,,,,orange,circle
384.0,4.0,4.0,0.0,2.0,2.0,253.2000710000375,3.0,1.0,part_1,,,,,,,,,,,,,orange,circle
422.0,8.0,4.0,1.0,1.0,1.0,336.7686280000725,3.0,1.0,part_1,,,,,,,,,,,,,blue,cross
46.0,5.0,1.0,1.0,4.0,4.0,367.2027949999119,3.0,1.0,part_1,,,,,,,,,,,,,cyan,I
39.0,5.0,1.0,1.0,3.0,3.0,462.0250309999392,3.0,2.0,part_1,,,,,,,,,,,,,cyan,I
223.0,7.0,3.0,1.0,2.0,2.0,444.0057480001087,3.0,1.0,part_1,,,,,,,,,,,,,white,diamond
387.0,8.0,4.0,1.0,3.0,3.0,340.4219770000054,3.0,1.0,part_1,,,,,,,,,,,,,blue,cross
104.0,2.0,2.0,0.0,3.0,3.0,319.3214709999665,3.0,1.0,part_1,,,,,,,,,,,,,green,flipped triangle
112.0,6.0,2.0,1.0,2.0,2.0,385.120519999873,3.0,1.0,part_1,,,,,,,,,,,,,gray,hexagon
26.0,1.0,1.0,0.0,2.0,2.0,472.2857089998342,3.0,1.0,part_1,,,,,,,,,,,,,magenta,triangle
0.0,8.0,0.0,1.0,4.0,4.0,465.7915990001129,3.0,1.0,part_1,,,,,,,,,,,,,blue,cross
45.0,5.0,1.0,1.0,1.0,1.0,344.9716790000821,3.0,1.0,part_1,,,,,,,,,,,,,cyan,I
43.0,5.0,1.0,1.0,1.0,1.0,443.5861060001116,3.0,1.0,part_1,,,,,,,,,,,,,cyan,I
71.0,1.0,1.0,0.0,4.0,4.0,483.2501190001039,3.0,1.0,part_1,,,,,,,,,,,,,magenta,triangle
391.0,8.0,4.0,1.0,3.0,3.0,329.8028739998244,3.0,1.0,part_1,,,,,,,,,,,,,blue,cross
0.0,7.0,0.0,1.0,3.0,3.0,377.0346500000414,3.0,1.0,part_1,,,,,,,,,,,,,white,diamond
205.0,3.0,3.0,0.0,1.0,1.0,377.687946000151,3.0,1.0,part_1,,,,,,,,,,,,,yellow,square
0.0,2.0,0.0,0.0,3.0,3.0,382.1304890000192,3.0,1.0,part_1,,,,,,,,,,,,,green,flipped triangle
196.0,3.0,3.0,0.0,1.0,1.0,368.0242849998194,3.0,1.0,part_1,,,,,,,,,,,,,yellow,square
85.0,2.0,2.0,0.0,3.0,3.0,511.71753699986766,3.0,1.0,part_1,,,,,,,,,,,,,green,flipped triangle
0.0,7.0,0.0,1.0,2.0,2.0,392.3386170001777,3.0,1.0,part_1,,,,,,,,,,,,,white,diamond
44.0,1.0,1.0,0.0,1.0,1.0,515.3435980000722,3.0,1.0,part_1,,,,,,,,,,,,,magenta,triangle
118.0,2.0,2.0,0.0,1.0,1.0,386.4633579999008,3.0,1.0,part_1,,,,,,,,,,,,,green,flipped triangle
0.0,3.0,0.0,0.0,2.0,2.0,397.3064589999922,3.0,1.0,part_1,,,,,,,,,,,,,yellow,square
188.0,7.0,3.0,1.0,1.0,1.0,333.3010779999767,3.0,1.0,part_1,,,,,,,,,,,,,white,diamond
183.0,3.0,3.0,0.0,2.0,2.0,362.5564210001357,3.0,1.0,part_1,,,,,,,,,,,,,yellow,square
68.0,5.0,1.0,1.0,4.0,4.0,484.1666190000069,3.0,1.0,part_1,,,,,,,,,,,,,cyan,I
212.0,7.0,3.0,1.0,2.0,2.0,350.9453590002067,3.0,1.0,part_1,,,,,,,,,,,,,white,diamond
121.0,2.0,2.0,0.0,2.0,2.0,315.179808000039,3.0,1.0,part_1,,,,,,,,,,,,,green,flipped triangle
82.0,2.0,2.0,0.0,2.0,2.0,306.2146810000286,3.0,1.0,part_1,,,,,,,,,,,,,green,flipped triangle
52.0,1.0,1.0,0.0,2.0,2.0,353.5455410001304,3.0,1.0,part_1,,,,,,,,,,,,,magenta,triangle
0.0,6.0,0.0,1.0,4.0,4.0,403.1309060001149,3.0,1.0,part_1,,,,,,,,,,,,,gray,hexagon
65.0,1.0,1.0,0.0,1.0,1.0,427.6423930000419,3.0,1.0,part_1,,,,,,,,,,,,,magenta,triangle
37.0,5.0,1.0,1.0,3.0,3.0,619.9795500001528,3.0,1.0,part_1,,,,,,,,,,,,,cyan,I
60.0,1.0,1.0,0.0,2.0,2.0,339.658689000089,3.0,1.0,part_1,,,,,,,,,,,,,magenta,triangle
380.0,4.0,4.0,0.0,4.0,4.0,376.7607109998607,3.0,1.0,part_1,,,,,,,,,,,,,orange,circle
39.0,1.0,1.0,0.0,4.0,4.0,375.3271420000601,3.0,1.0,part_1,,,,,,,,,,,,,magenta,triangle
0.0,7.0,0.0,1.0,2.0,2.0,351.3489039999058,3.0,1.0,part_1,,,,,,,,,,,,,white,diamond
393.0,8.0,4.0,1.0,1.0,1.0,339.5314669999152,3.0,1.0,part_1,,,,,,,,,,,,,blue,cross
93.0,2.0,2.0,0.0,3.0,3.0,342.1411379999881,3.0,1.0,part_1,,,,,,,,,,,,,green,flipped triangle
71.0,5.0,1.0,1.0,2.0,2.0,354.6669370000472,3.0,1.0,part_1,,,,,,,,,,,,,cyan,I
194.0,3.0,3.0,0.0,4.0,4.0,372.9203499999585,3.0,1.0,part_1,,,,,,,,,,,,,yellow,square
85.0,6.0,2.0,1.0,4.0,4.0,504.53125100011675,3.0,1.0,part_1,,,,,,,,,,,,,gray,hexagon
28.0,5.0,1.0,1.0,3.0,3.0,480.7251499998983,3.0,1.0,part_1,,,,,,,,,,,,,cyan,I
196.0,7.0,3.0,1.0,1.0,1.0,379.4040380000751,3.0,1.0,part_1,,,,,,,,,,,,,white,diamond
0.0,8.0,0.0,1.0,3.0,3.0,311.2896119998822,3.0,1.0,part_1,,,,,,,,,,,,,blue,cross
118.0,2.0,2.0,0.0,3.0,3.0,388.343875999908,4.0,1.0,part_1,,,,,,,,,,,,,green,flipped triangle
0.0,2.0,0.0,0.0,3.0,3.0,383.840790000022,4.0,1.0,part_1,,,,,,,,,,,,,green,flipped triangle
424.0,4.0,4.0,0.0,3.0,3.0,377.1958090001135,4.0,1.0,part_1,,,,,,,,,,,,,orange,circle
220.0,7.0,3.0,1.0,2.0,2.0,428.9084539998384,4.0,1.0,part_1,,,,,,,,,,,,,white,diamond
404.0,8.0,4.0,1.0,4.0,4.0,513.6111159999928,4.0,1.0,part_1,,,,,,,,,,,,,blue,cross
28.0,1.0,1.0,0.0,1.0,1.0,364.0102570000181,4.0,1.0,part_1,,,,,,,,,,,,,magenta,triangle
200.0,7.0,3.0,1.0,4.0,4.0,335.0703830001293,4.0,1.0,part_1,,,,,,,,,,,,,white,diamond
178.0,3.0,3.0,0.0,2.0,2.0,317.7177140000822,4.0,1.0,part_1,,,,,,,,,,,,,yellow,square
400.0,8.0,4.0,1.0,4.0,4.0,351.8856550001601,4.0,1.0,part_1,,,,,,,,,,,,,blue,cross
51.0,1.0,1.0,0.0,3.0,3.0,435.1320769999347,4.0,1.0,part_1,,,,,,,,,,,,,magenta,triangle
52.0,5.0,1.0,1.0,4.0,4.0,444.0665980000631,4.0,1.0,part_1,,,,,,,,,,,,,cyan,I
76.0,2.0,2.0,0.0,4.0,4.0,373.1981979999546,4.0,1.0,part_1,,,,,,,,,,,,,green,flipped triangle
125.0,2.0,2.0,0.0,4.0,4.0,334.4811010001649,4.0,1.0,part_1,,,,,,,,,,,,,green,flipped triangle
385.0,4.0,4.0,0.0,1.0,1.0,362.9536309999821,4.0,1.0,part_1,,,,,,,,,,,,,orange,circle
89.0,6.0,2.0,1.0,3.0,3.0,319.9261409999963,4.0,1.0,part_1,,,,,,,,,,,,,gray,hexagon
109.0,6.0,2.0,1.0,1.0,1.0,368.2844990000831,4.0,1.0,part_1,,,,,,,,,,,,,gray,hexagon
376.0,4.0,4.0,0.0,3.0,3.0,370.6828090000726,4.0,1.0,part_1,,,,,,,,,,,,,orange,circle
0.0,5.0,0.0,1.0,2.0,2.0,359.1699219998645,4.0,1.0,part_1,,,,,,,,,,,,,cyan,I
95.0,6.0,2.0,1.0,1.0,1.0,401.3609470000574,4.0,1.0,part_1,,,,,,,,,,,,,gray,hexagon
194.0,7.0,3.0,1.0,2.0,2.0,422.9688489999716,4.0,1.0,part_1,,,,,,,,,,,,,white,diamond
403.0,4.0,4.0,0.0,4.0,4.0,505.65498800006026,4.0,1.0,part_1,,,,,,,,,,,,,orange,circle
418.0,4.0,4.0,0.0,3.0,3.0,334.7791730000153,4.0,1.0,part_1,,,,,,,,,,,,,orange,circle
63.0,5.0,1.0,1.0,1.0,1.0,333.9277969998875,4.0,1.0,part_1,,,,,,,,,,,,,cyan,I
60.0,1.0,1.0,0.0,1.0,1.0,412.8953080000883,4.0,1.0,part_1,,,,,,,,,,,,,magenta,triangle
377.0,8.0,4.0,1.0,1.0,1.0,349.6485990001474,4.0,1.0,part_1,,,,,,,,,,,,,blue,cross
91.0,6.0,2.0,1.0,3.0,3.0,351.6069480001533,4.0,1.0,part_1,,,,,,,,,,,,,gray,hexagon
118.0,6.0,2.0,1.0,2.0,2.0,329.8595389999263,4.0,1.0,part_1,,,,,,,,,,,,,gray,hexagon
201.0,3.0,3.0,0.0,3.0,3.0,298.6307699998178,4.0,1.0,part_1,,,,,,,,,,,,,yellow,square
190.0,7.0,3.0,1.0,1.0,1.0,338.696538000022,4.0,1.0,part_1,,,,,,,,,,,,,white,diamond
0.0,3.0,0.0,0.0,1.0,1.0,386.2628120000408,4.0,1.0,part_1,,,,,,,,,,,,,yellow,square
91.0,2.0,2.0,0.0,4.0,4.0,405.9428770001432,4.0,1.0,part_1,,,,,,,,,,,,,green,flipped triangle
44.0,1.0,1.0,0.0,1.0,1.0,443.5428009999214,4.0,1.0,part_1,,,,,,,,,,,,,magenta,triangle
396.0,8.0,4.0,1.0,3.0,3.0,342.0114200000625,4.0,1.0,part_1,,,,,,,,,,,,,blue,cross
83.0,2.0,2.0,0.0,1.0,1.0,413.1835309999587,4.0,1.0,part_1,,,,,,,,,,,,,green,flipped triangle
112.0,2.0,2.0,0.0,1.0,1.0,355.5296889999226,4.0,1.0,part_1,,,,,,,,,,,,,green,flipped triangle
0.0,5.0,0.0,1.0,1.0,1.0,330.6499179998354,4.0,1.0,part_1,,,,,,,,,,,,,cyan,I
82.0,2.0,2.0,0.0,2.0,2.0,334.1888909999397,4.0,1.0,part_1,,,,,,,,,,,,,green,flipped triangle
0.0,1.0,0.0,0.0,4.0,4.0,389.0592339998875,4.0,1.0,part_1,,,,,,,,,,,,,magenta,triangle
95.0,2.0,2.0,0.0,1.0,1.0,394.7549599997728,4.0,1.0,part_1,,,,,,,,,,,,,green,flipped triangle
0.0,2.0,0.0,0.0,1.0,1.0,393.19027800002,4.0,1.0,part_1,,,,,,,,,,,,,green,flipped triangle
0.0,2.0,0.0,0.0,3.0,3.0,482.3760179997407,4.0,1.0,part_1,,,,,,,,,,,,,green,flipped triangle
34.0,5.0,1.0,1.0,4.0,4.0,579.1013250000105,4.0,1.0,part_1,,,,,,,,,,,,,cyan,I
222.0,7.0,3.0,1.0,3.0,3.0,378.3707279999362,4.0,1.0,part_1,,,,,,,,,,,,,white,diamond
46.0,1.0,1.0,0.0,3.0,3.0,326.3813390003633,4.0,1.0,part_1,,,,,,,,,,,,,magenta,triangle
65.0,5.0,1.0,1.0,3.0,3.0,293.6196890000246,4.0,1.0,part_1,,,,,,,,,,,,,cyan,I
34.0,1.0,1.0,0.0,4.0,4.0,445.2043840001352,4.0,1.0,part_1,,,,,,,,,,,,,magenta,triangle
111.0,2.0,2.0,0.0,3.0,3.0,312.1964730003128,4.0,1.0,part_1,,,,,,,,,,,,,green,flipped triangle
0.0,7.0,0.0,1.0,1.0,1.0,354.807189999974,4.0,1.0,part_1,,,,,,,,,,,,,white,diamond
28.0,1.0,1.0,0.0,3.0,3.0,355.9251309998217,4.0,1.0,part_1,,,,,,,,,,,,,magenta,triangle
67.0,1.0,1.0,0.0,3.0,3.0,336.2034980000317,4.0,1.0,part_1,,,,,,,,,,,,,magenta,triangle
0.0,2.0,0.0,0.0,2.0,2.0,327.0599049997145,4.0,1.0,part_1,,,,,,,,,,,,,green,flipped triangle
0.0,1.0,0.0,0.0,4.0,4.0,349.7302129999298,4.0,1.0,part_1,,,,,,,,,,,,,magenta,triangle
56.0,5.0,1.0,1.0,2.0,2.0,427.4968610002361,4.0,1.0,part_1,,,,,,,,,,,,,cyan,I
383.0,8.0,4.0,1.0,3.0,3.0,330.9228930002064,4.0,1.0,part_1,,,,,,,,,,,,,blue,cross
421.0,4.0,4.0,0.0,4.0,4.0,570.3986669996084,4.0,1.0,part_1,,,,,,,,,,,,,orange,circle
0.0,4.0,0.0,0.0,2.0,2.0,378.8462160000563,4.0,1.0,part_1,,,,,,,,,,,,,orange,circle
114.0,2.0,2.0,0.0,4.0,4.0,362.9869020001024,4.0,1.0,part_1,,,,,,,,,,,,,green,flipped triangle
101.0,6.0,2.0,1.0,1.0,1.0,371.33813000036747,4.0,1.0,part_1,,,,,,,,,,,,,gray,hexagon
388.0,4.0,4.0,0.0,1.0,1.0,371.149367000271,4.0,1.0,part_1,,,,,,,,,,,,,orange,circle
102.0,2.0,2.0,0.0,2.0,2.0,555.5485149998276,4.0,1.0,part_1,,,,,,,,,,,,,green,flipped triangle
125.0,6.0,2.0,1.0,1.0,1.0,388.3340119996319,4.0,1.0,part_1,,,,,,,,,,,,,gray,hexagon
224.0,7.0,3.0,1.0,2.0,2.0,311.0864410000431,4.0,1.0,part_1,,,,,,,,,,,,,white,diamond
397.0,4.0,4.0,0.0,1.0,1.0,346.2111170001662,4.0,1.0,part_1,,,,,,,,,,,,,orange,circle
118.0,6.0,2.0,1.0,3.0,3.0,406.7175979998865,4.0,1.0,part_1,,,,,,,,,,,,,gray,hexagon
414.0,4.0,4.0,0.0,4.0,4.0,345.937873999901,4.0,1.0,part_1,,,,,,,,,,,,,orange,circle
177.0,7.0,3.0,1.0,2.0,2.0,337.4316569997972,4.0,1.0,part_1,,,,,,,,,,,,,white,diamond
86.0,6.0,2.0,1.0,1.0,1.0,451.9016809999812,4.0,1.0,part_1,,,,,,,,,,,,,gray,hexagon
103.0,2.0,2.0,0.0,1.0,1.0,375.0259970001934,4.0,1.0,part_1,,,,,,,,,,,,,green,flipped triangle
84.0,6.0,2.0,1.0,3.0,3.0,368.7715780001781,4.0,1.0,part_1,,,,,,,,,,,,,gray,hexagon
41.0,1.0,1.0,0.0,4.0,4.0,380.3655560000152,4.0,1.0,part_1,,,,,,,,,,,,,magenta,triangle
106.0,6.0,2.0,1.0,2.0,2.0,349.5589980002478,4.0,1.0,part_1,,,,,,,,,,,,,gray,hexagon
28.0,5.0,1.0,1.0,2.0,2.0,320.4866410001159,4.0,1.0,part_1,,,,,,,,,,,,,cyan,I
0.0,5.0,0.0,1.0,1.0,1.0,344.4474399998398,4.0,1.0,part_1,,,,,,,,,,,,,cyan,I
63.0,1.0,1.0,0.0,3.0,3.0,438.2785960001456,4.0,1.0,part_1,,,,,,,,,,,,,magenta,triangle
67.0,5.0,1.0,1.0,1.0,1.0,378.6113749997639,4.0,1.0,part_1,,,,,,,,,,,,,cyan,I
33.0,5.0,1.0,1.0,1.0,1.0,376.3577670001723,4.0,1.0,part_1,,,,,,,,,,,,,cyan,I
422.0,4.0,4.0,0.0,2.0,2.0,384.3204469999364,4.0,1.0,part_1,,,,,,,,,,,,,orange,circle
0.0,7.0,0.0,1.0,1.0,1.0,368.4699450000153,4.0,1.0,part_1,,,,,,,,,,,,,white,diamond
189.0,3.0,3.0,0.0,3.0,3.0,369.8170600000594,4.0,1.0,part_1,,,,,,,,,,,,,yellow,square
204.0,3.0,3.0,0.0,2.0,2.0,360.6487449997075,4.0,1.0,part_1,,,,,,,,,,,,,yellow,square
82.0,6.0,2.0,1.0,4.0,4.0,441.8818659996759,4.0,1.0,part_1,,,,,,,,,,,,,gray,hexagon
119.0,6.0,2.0,1.0,2.0,2.0,357.7399020000484,4.0,1.0,part_1,,,,,,,,,,,,,gray,hexagon
47.0,5.0,1.0,1.0,2.0,2.0,444.3959019999965,4.0,1.0,part_1,,,,,,,,,,,,,cyan,I
54.0,1.0,1.0,0.0,3.0,3.0,419.2389390000244,4.0,1.0,part_1,,,,,,,,,,,,,magenta,triangle
186.0,7.0,3.0,1.0,2.0,2.0,361.9120550001753,4.0,1.0,part_1,,,,,,,,,,,,,white,diamond
101.0,2.0,2.0,0.0,1.0,1.0,340.5380359999981,4.0,1.0,part_1,,,,,,,,,,,,,green,flipped triangle
202.0,3.0,3.0,0.0,4.0,4.0,352.080967999882,4.0,1.0,part_1,,,,,,,,,,,,,yellow,square
102.0,6.0,2.0,1.0,2.0,2.0,449.8062679999748,4.0,1.0,part_1,,,,,,,,,,,,,gray,hexagon
397.0,8.0,4.0,1.0,1.0,1.0,381.0906379999323,4.0,1.0,part_1,,,,,,,,,,,,,blue,cross
414.0,4.0,4.0,0.0,2.0,2.0,328.9365129999169,4.0,1.0,part_1,,,,,,,,,,,,,orange,circle
407.0,8.0,4.0,1.0,1.0,1.0,353.9446539998607,4.0,1.0,part_1,,,,,,,,,,,,,blue,cross
90.0,6.0,2.0,1.0,4.0,4.0,379.6702660001756,4.0,1.0,part_1,,,,,,,,,,,,,gray,hexagon
376.0,8.0,4.0,1.0,3.0,3.0,395.3538239998124,4.0,1.0,part_1,,,,,,,,,,,,,blue,cross
32.0,1.0,1.0,0.0,1.0,1.0,391.2211870001556,4.0,1.0,part_1,,,,,,,,,,,,,magenta,triangle
0.0,1.0,0.0,0.0,2.0,2.0,328.4618080001564,4.0,1.0,part_1,,,,,,,,,,,,,magenta,triangle
0.0,6.0,0.0,1.0,3.0,3.0,365.576479000083,4.0,1.0,part_1,,,,,,,,,,,,,gray,hexagon
0.0,1.0,0.0,0.0,3.0,3.0,368.2602549997682,4.0,1.0,part_1,,,,,,,,,,,,,magenta,triangle
0.0,6.0,0.0,1.0,3.0,3.0,518.3697759998722,4.0,1.0,part_1,,,,,,,,,,,,,gray,hexagon
393.0,8.0,4.0,1.0,2.0,2.0,381.1306970001169,4.0,1.0,part_1,,,,,,,,,,,,,blue,cross
47.0,1.0,1.0,0.0,2.0,2.0,418.4896609999669,4.0,1.0,part_1,,,,,,,,,,,,,magenta,triangle
0.0,3.0,3.0,0.0,6.0,6.0,499.3490179999753,1.0,0.0,part_2,go,250.0,250.0,1.0,,,,,,,,,yellow,square
0.0,8.0,4.0,1.0,6.0,6.0,697.0398470002692,1.0,0.0,part_2,go,250.0,250.0,1.0,,,,,,,,,blue,cross
0.0,8.0,4.0,1.0,6.0,6.0,644.1677540001365,1.0,0.0,part_2,stop,250.0,250.0,3.0,,,,,,,,,blue,cross
0.0,5.0,1.0,1.0,5.0,0.0,0.0,1.0,0.0,part_2,stop,250.0,200.0,4.0,,,,,,,,,cyan,I
0.0,8.0,4.0,1.0,5.0,5.0,827.4718449997636,1.0,0.0,part_2,go,300.0,200.0,1.0,,,,,,,,,blue,cross
0.0,2.0,2.0,0.0,6.0,6.0,788.9983639997808,1.0,0.0,part_2,go,300.0,200.0,1.0,,,,,,,,,green,flipped triangle
0.0,7.0,3.0,1.0,6.0,6.0,834.1364210000393,1.0,0.0,part_2,go,300.0,200.0,1.0,,,,,,,,,white,diamond
0.0,8.0,4.0,1.0,5.0,0.0,0.0,1.0,0.0,part_2,stop,300.0,200.0,4.0,,,,,,,,,blue,cross
0.0,8.0,4.0,1.0,6.0,0.0,0.0,1.0,0.0,part_2,stop,350.0,200.0,4.0,,,,,,,,,blue,cross
0.0,1.0,1.0,0.0,5.0,5.0,914.5935669998836,1.0,0.0,part_2,go,350.0,250.0,1.0,,,,,,,,,magenta,triangle
0.0,1.0,1.0,0.0,5.0,5.0,1077.4395829998866,1.0,0.0,part_2,go,350.0,250.0,1.0,,,,,,,,,magenta,triangle
0.0,4.0,4.0,0.0,5.0,5.0,881.9520030001513,1.0,0.0,part_2,go,350.0,250.0,1.0,,,,,,,,,orange,circle
0.0,8.0,4.0,1.0,5.0,0.0,0.0,1.0,0.0,part_2,stop,350.0,250.0,4.0,,,,,,,,,blue,cross
0.0,6.0,2.0,1.0,5.0,0.0,0.0,1.0,0.0,part_2,stop,400.0,250.0,4.0,,,,,,,,,gray,hexagon
0.0,4.0,4.0,0.0,6.0,6.0,742.6882039999327,1.0,0.0,part_2,go,450.0,250.0,1.0,,,,,,,,,orange,circle
0.0,8.0,4.0,1.0,5.0,0.0,0.0,1.0,0.0,part_2,stop,450.0,250.0,4.0,,,,,,,,,blue,cross
0.0,1.0,1.0,0.0,6.0,6.0,814.5699369997601,1.0,0.0,part_2,go,500.0,250.0,1.0,,,,,,,,,magenta,triangle
0.0,5.0,1.0,1.0,5.0,5.0,872.7871539999796,1.0,0.0,part_2,go,500.0,250.0,1.0,,,,,,,,,cyan,I
0.0,8.0,4.0,1.0,6.0,0.0,0.0,1.0,0.0,part_2,stop,500.0,250.0,4.0,,,,,,,,,blue,cross
0.0,6.0,2.0,1.0,6.0,0.0,0.0,1.0,0.0,part_2,stop,500.0,300.0,4.0,,,,,,,,,gray,hexagon
0.0,3.0,3.0,0.0,5.0,5.0,772.5716479999392,1.0,0.0,part_2,go,500.0,350.0,1.0,,,,,,,,,yellow,square
0.0,3.0,3.0,0.0,6.0,6.0,967.6199179998548,1.0,0.0,part_2,go,500.0,350.0,1.0,,,,,,,,,yellow,square
0.0,5.0,1.0,1.0,6.0,6.0,863.24347999971,1.0,0.0,part_2,go,500.0,350.0,1.0,,,,,,,,,cyan,I
0.0,3.0,3.0,0.0,6.0,6.0,715.3539519999867,1.0,0.0,part_2,go,500.0,350.0,1.0,,,,,,,,,yellow,square
0.0,5.0,1.0,1.0,5.0,0.0,0.0,1.0,0.0,part_2,stop,500.0,350.0,4.0,,,,,,,,,cyan,I
0.0,2.0,2.0,0.0,5.0,5.0,901.6449649998322,1.0,0.0,part_2,go,550.0,350.0,1.0,,,,,,,,,green,flipped triangle
0.0,7.0,3.0,1.0,6.0,0.0,0.0,1.0,0.0,part_2,stop,550.0,350.0,4.0,,,,,,,,,white,diamond
0.0,2.0,2.0,0.0,6.0,6.0,996.3542569998936,1.0,0.0,part_2,go,550.0,400.0,1.0,,,,,,,,,green,flipped triangle
0.0,2.0,2.0,0.0,6.0,6.0,984.2675710001458,1.0,0.0,part_2,go,550.0,400.0,1.0,,,,,,,,,green,flipped triangle
0.0,2.0,2.0,0.0,6.0,6.0,1052.8574080003636,1.0,0.0,part_2,go,550.0,400.0,1.0,,,,,,,,,green,flipped triangle
0.0,5.0,1.0,1.0,6.0,0.0,0.0,1.0,0.0,part_2,stop,550.0,400.0,4.0,,,,,,,,,cyan,I
0.0,3.0,3.0,0.0,6.0,6.0,1081.9016149998788,1.0,0.0,part_2,go,550.0,450.0,1.0,,,,,,,,,yellow,square
0.0,1.0,1.0,0.0,6.0,6.0,1065.401974999986,1.0,0.0,part_2,go,550.0,450.0,1.0,,,,,,,,,magenta,triangle
0.0,6.0,2.0,1.0,5.0,5.0,960.7685130004028,1.0,0.0,part_2,go,550.0,450.0,1.0,,,,,,,,,gray,hexagon
0.0,4.0,4.0,0.0,6.0,6.0,873.1075289997534,1.0,0.0,part_2,go,550.0,450.0,1.0,,,,,,,,,orange,circle
0.0,8.0,4.0,1.0,6.0,0.0,0.0,1.0,0.0,part_2,stop,550.0,450.0,4.0,,,,,,,,,blue,cross
0.0,6.0,2.0,1.0,6.0,6.0,646.0095219999857,2.0,0.0,part_2,go,550.0,500.0,1.0,,,,,,,,,gray,hexagon
0.0,4.0,4.0,0.0,5.0,5.0,587.0313369996438,2.0,0.0,part_2,go,550.0,500.0,1.0,,,,,,,,,orange,circle
0.0,6.0,2.0,1.0,5.0,5.0,755.6525560003138,2.0,0.0,part_2,stop,550.0,500.0,3.0,,,,,,,,,gray,hexagon
0.0,5.0,1.0,1.0,6.0,0.0,0.0,2.0,0.0,part_2,stop,500.0,500.0,4.0,,,,,,,,,cyan,I
0.0,2.0,2.0,0.0,6.0,6.0,469.8972679998405,2.0,0.0,part_2,go,500.0,550.0,1.0,,,,,,,,,green,flipped triangle
0.0,5.0,1.0,1.0,5.0,5.0,964.5509259999016,2.0,0.0,part_2,go,500.0,550.0,1.0,,,,,,,,,cyan,I
0.0,3.0,3.0,0.0,5.0,5.0,757.3140899999089,2.0,0.0,part_2,go,500.0,550.0,1.0,,,,,,,,,yellow,square
0.0,8.0,4.0,1.0,6.0,6.0,714.3114929999683,2.0,0.0,part_2,stop,500.0,550.0,3.0,,,,,,,,,blue,cross
0.0,7.0,3.0,1.0,5.0,0.0,0.0,2.0,0.0,part_2,stop,500.0,500.0,4.0,,,,,,,,,white,diamond
0.0,3.0,3.0,0.0,6.0,6.0,1020.5753860000186,2.0,0.0,part_2,go,550.0,500.0,1.0,,,,,,,,,yellow,square
0.0,1.0,1.0,0.0,5.0,5.0,760.3795240002,2.0,0.0,part_2,go,550.0,500.0,1.0,,,,,,,,,magenta,triangle
0.0,5.0,1.0,1.0,6.0,0.0,0.0,2.0,0.0,part_2,stop,550.0,500.0,4.0,,,,,,,,,cyan,I
0.0,5.0,1.0,1.0,6.0,0.0,0.0,2.0,0.0,part_2,stop,550.0,550.0,4.0,,,,,,,,,cyan,I
0.0,4.0,4.0,0.0,5.0,5.0,877.716096000313,2.0,0.0,part_2,go,550.0,600.0,1.0,,,,,,,,,orange,circle
0.0,1.0,1.0,0.0,5.0,5.0,898.0833690002328,2.0,0.0,part_2,go,550.0,600.0,1.0,,,,,,,,,magenta,triangle
0.0,4.0,4.0,0.0,5.0,5.0,949.9677580001844,2.0,0.0,part_2,go,550.0,600.0,1.0,,,,,,,,,orange,circle
0.0,3.0,3.0,0.0,5.0,5.0,900.008292000166,2.0,0.0,part_2,go,550.0,600.0,1.0,,,,,,,,,yellow,square
0.0,1.0,1.0,0.0,5.0,5.0,700.5288800000926,2.0,0.0,part_2,go,550.0,600.0,1.0,,,,,,,,,magenta,triangle
0.0,6.0,2.0,1.0,5.0,0.0,0.0,2.0,0.0,part_2,stop,550.0,600.0,4.0,,,,,,,,,gray,hexagon
0.0,2.0,2.0,0.0,5.0,5.0,1058.1995200000165,2.0,0.0,part_2,go,600.0,600.0,1.0,,,,,,,,,green,flipped triangle
0.0,5.0,1.0,1.0,5.0,0.0,0.0,2.0,0.0,part_2,stop,600.0,600.0,4.0,,,,,,,,,cyan,I
0.0,2.0,2.0,0.0,5.0,5.0,342.0011600001089,2.0,0.0,part_2,go,650.0,600.0,1.0,,,,,,,,,green,flipped triangle
0.0,5.0,1.0,1.0,6.0,0.0,0.0,2.0,0.0,part_2,stop,650.0,600.0,4.0,,,,,,,,,cyan,I
0.0,4.0,4.0,0.0,6.0,6.0,1027.0605779996913,2.0,0.0,part_2,go,650.0,650.0,1.0,,,,,,,,,orange,circle
0.0,4.0,4.0,0.0,5.0,5.0,1031.7360749995714,2.0,0.0,part_2,go,650.0,650.0,1.0,,,,,,,,,orange,circle
0.0,8.0,4.0,1.0,5.0,0.0,0.0,2.0,0.0,part_2,stop,650.0,650.0,4.0,,,,,,,,,blue,cross
0.0,1.0,1.0,0.0,6.0,6.0,1154.6123590001116,2.0,0.0,part_2,go,700.0,650.0,1.0,,,,,,,,,magenta,triangle
0.0,2.0,2.0,0.0,6.0,6.0,1045.224366000184,2.0,0.0,part_2,go,700.0,650.0,1.0,,,,,,,,,green,flipped triangle
0.0,8.0,4.0,1.0,5.0,0.0,0.0,2.0,0.0,part_2,stop,700.0,650.0,4.0,,,,,,,,,blue,cross
0.0,1.0,1.0,0.0,6.0,6.0,1130.1716989996748,2.0,0.0,part_2,go,750.0,650.0,1.0,,,,,,,,,magenta,triangle
0.0,2.0,2.0,0.0,6.0,6.0,1059.3209059998117,2.0,0.0,part_2,go,750.0,650.0,1.0,,,,,,,,,green,flipped triangle
0.0,3.0,3.0,0.0,5.0,5.0,963.2431439999892,2.0,0.0,part_2,go,750.0,650.0,1.0,,,,,,,,,yellow,square
0.0,2.0,2.0,0.0,5.0,5.0,856.6340570000648,2.0,0.0,part_2,go,750.0,650.0,1.0,,,,,,,,,green,flipped triangle
0.0,8.0,4.0,1.0,5.0,0.0,0.0,2.0,0.0,part_2,stop,750.0,650.0,4.0,,,,,,,,,blue,cross
0.0,1.0,1.0,0.0,6.0,6.0,1098.794411000199,2.0,0.0,part_2,go,800.0,650.0,1.0,,,,,,,,,magenta,triangle
0.0,5.0,1.0,1.0,5.0,0.0,0.0,2.0,0.0,part_2,stop,800.0,650.0,4.0,,,,,,,,,cyan,I
0.0,3.0,3.0,0.0,6.0,6.0,828.9883409997856,3.0,0.0,part_2,go,850.0,650.0,1.0,,,,,,,,,yellow,square
0.0,7.0,3.0,1.0,5.0,5.0,822.0532489999641,3.0,0.0,part_2,stop,850.0,650.0,3.0,,,,,,,,,white,diamond
0.0,4.0,4.0,0.0,5.0,5.0,997.2451100002218,3.0,0.0,part_2,go,800.0,650.0,1.0,,,,,,,,,orange,circle
0.0,5.0,1.0,1.0,5.0,0.0,0.0,3.0,0.0,part_2,stop,800.0,650.0,4.0,,,,,,,,,cyan,I
0.0,7.0,3.0,1.0,6.0,6.0,1016.6214329997274,3.0,0.0,part_2,go,850.0,650.0,1.0,,,,,,,,,white,diamond
0.0,4.0,4.0,0.0,6.0,6.0,1162.71047500004,3.0,0.0,part_2,go,850.0,650.0,1.0,,,,,,,,,orange,circle
0.0,6.0,2.0,1.0,5.0,5.0,1011.5821289996347,3.0,0.0,part_2,stop,850.0,650.0,3.0,,,,,,,,,gray,hexagon
0.0,2.0,2.0,0.0,5.0,5.0,1125.273155999821,3.0,0.0,part_2,go,800.0,650.0,1.0,,,,,,,,,green,flipped triangle
0.0,1.0,1.0,0.0,5.0,5.0,1276.601960999869,3.0,0.0,part_2,go,800.0,650.0,1.0,,,,,,,,,magenta,triangle
0.0,6.0,2.0,1.0,5.0,0.0,0.0,3.0,0.0,part_2,stop,800.0,650.0,4.0,,,,,,,,,gray,hexagon
0.0,8.0,4.0,1.0,6.0,0.0,0.0,3.0,0.0,part_2,stop,850.0,650.0,4.0,,,,,,,,,blue,cross
0.0,2.0,2.0,0.0,6.0,6.0,886.8657319999329,3.0,0.0,part_2,go,850.0,700.0,1.0,,,,,,,,,green,flipped triangle
0.0,4.0,4.0,0.0,6.0,6.0,946.8538010000884,3.0,0.0,part_2,go,850.0,700.0,1.0,,,,,,,,,orange,circle
0.0,7.0,3.0,1.0,5.0,0.0,0.0,3.0,0.0,part_2,stop,850.0,700.0,4.0,,,,,,,,,white,diamond
0.0,8.0,4.0,1.0,5.0,5.0,1027.195084000141,3.0,0.0,part_2,go,900.0,700.0,1.0,,,,,,,,,blue,cross
0.0,2.0,2.0,0.0,5.0,5.0,951.1816009999166,3.0,0.0,part_2,go,900.0,700.0,1.0,,,,,,,,,green,flipped triangle
0.0,2.0,2.0,0.0,6.0,6.0,1082.0236360000308,3.0,0.0,part_2,go,900.0,700.0,1.0,,,,,,,,,green,flipped triangle
0.0,7.0,3.0,1.0,6.0,6.0,1096.26570599994,3.0,0.0,part_2,go,900.0,700.0,1.0,,,,,,,,,white,diamond
0.0,1.0,1.0,0.0,5.0,5.0,1018.076155000017,3.0,0.0,part_2,go,900.0,700.0,1.0,,,,,,,,,magenta,triangle
0.0,2.0,2.0,0.0,5.0,5.0,1168.0165529996884,3.0,0.0,part_2,go,900.0,700.0,1.0,,,,,,,,,green,flipped triangle
0.0,7.0,3.0,1.0,5.0,0.0,0.0,3.0,0.0,part_2,stop,900.0,700.0,4.0,,,,,,,,,white,diamond
0.0,7.0,3.0,1.0,6.0,0.0,0.0,3.0,0.0,part_2,stop,950.0,700.0,4.0,,,,,,,,,white,diamond
0.0,1.0,1.0,0.0,6.0,6.0,1124.059347000184,3.0,0.0,part_2,go,950.0,750.0,1.0,,,,,,,,,magenta,triangle
0.0,4.0,4.0,0.0,6.0,6.0,1221.9311979997656,3.0,0.0,part_2,go,950.0,750.0,1.0,,,,,,,,,orange,circle
0.0,1.0,1.0,0.0,6.0,6.0,1278.8808829996017,3.0,0.0,part_2,go,950.0,750.0,1.0,,,,,,,,,magenta,triangle
0.0,6.0,2.0,1.0,5.0,0.0,0.0,3.0,0.0,part_2,stop,950.0,750.0,4.0,,,,,,,,,gray,hexagon
0.0,7.0,3.0,1.0,5.0,0.0,0.0,3.0,0.0,part_2,stop,1000.0,750.0,4.0,,,,,,,,,white,diamond
0.0,4.0,4.0,0.0,5.0,5.0,1167.8259529999195,3.0,0.0,part_2,go,1050.0,750.0,1.0,,,,,,,,,orange,circle
0.0,1.0,1.0,0.0,5.0,5.0,1280.2579149997655,3.0,0.0,part_2,go,1050.0,750.0,1.0,,,,,,,,,magenta,triangle
0.0,8.0,4.0,1.0,6.0,6.0,702.9790080000566,3.0,0.0,part_2,stop,1050.0,750.0,3.0,,,,,,,,,blue,cross
0.0,5.0,1.0,1.0,6.0,6.0,1377.5413630000912,3.0,0.0,part_2,go,1050.0,700.0,1.0,,,,,,,,,cyan,I
0.0,2.0,2.0,0.0,5.0,5.0,1323.3441900001708,3.0,0.0,part_2,go,1050.0,700.0,1.0,,,,,,,,,green,flipped triangle
0.0,1.0,1.0,0.0,6.0,6.0,1225.4331720000664,3.0,0.0,part_2,go,1050.0,700.0,1.0,,,,,,,,,magenta,triangle
0.0,1.0,1.0,0.0,5.0,5.0,1299.985138000011,3.0,0.0,part_2,go,1050.0,700.0,1.0,,,,,,,,,magenta,triangle
0.0,7.0,3.0,1.0,6.0,0.0,0.0,3.0,0.0,part_2,stop,1050.0,700.0,4.0,,,,,,,,,white,diamond
0.0,4.0,4.0,0.0,5.0,5.0,1351.3906630000747,3.0,0.0,part_2,go,1050.0,750.0,1.0,,,,,,,,,orange,circle
0.0,7.0,3.0,1.0,5.0,5.0,1083.153227999901,4.0,0.0,part_2,stop,1050.0,750.0,3.0,,,,,,,,,white,diamond
0.0,5.0,1.0,1.0,5.0,5.0,789.6544930003984,4.0,0.0,part_2,stop,1000.0,750.0,3.0,,,,,,,,,cyan,I
0.0,3.0,3.0,0.0,6.0,6.0,792.7255349995903,4.0,0.0,part_2,go,950.0,750.0,1.0,,,,,,,,,yellow,square
0.0,3.0,3.0,0.0,5.0,5.0,1175.5042959998718,4.0,0.0,part_2,go,950.0,750.0,1.0,,,,,,,,,yellow,square
0.0,6.0,2.0,1.0,6.0,6.0,425.6226580000657,4.0,0.0,part_2,stop,950.0,750.0,3.0,,,,,,,,,gray,hexagon
0.0,3.0,3.0,0.0,6.0,6.0,975.526931999866,4.0,0.0,part_2,go,950.0,700.0,1.0,,,,,,,,,yellow,square
0.0,3.0,3.0,0.0,5.0,5.0,1003.3148749998873,4.0,0.0,part_2,go,950.0,700.0,1.0,,,,,,,,,yellow,square
0.0,6.0,2.0,1.0,6.0,0.0,0.0,4.0,0.0,part_2,stop,950.0,700.0,4.0,,,,,,,,,gray,hexagon
0.0,5.0,1.0,1.0,6.0,6.0,733.3858289998716,4.0,0.0,part_2,stop,950.0,750.0,3.0,,,,,,,,,cyan,I
0.0,3.0,3.0,0.0,6.0,6.0,890.4917079998995,4.0,0.0,part_2,go,950.0,700.0,1.0,,,,,,,,,yellow,square
0.0,7.0,3.0,1.0,5.0,5.0,908.5768710001504,4.0,0.0,part_2,stop,950.0,700.0,3.0,,,,,,,,,white,diamond
0.0,7.0,3.0,1.0,5.0,0.0,0.0,4.0,0.0,part_2,stop,900.0,700.0,4.0,,,,,,,,,white,diamond
0.0,2.0,2.0,0.0,6.0,6.0,1037.8310030000648,4.0,0.0,part_2,go,950.0,700.0,1.0,,,,,,,,,green,flipped triangle
0.0,2.0,2.0,0.0,5.0,5.0,1159.9460180000278,4.0,0.0,part_2,go,950.0,700.0,1.0,,,,,,,,,green,flipped triangle
0.0,1.0,1.0,0.0,6.0,6.0,893.4833729999809,4.0,0.0,part_2,go,950.0,700.0,1.0,,,,,,,,,magenta,triangle
0.0,5.0,1.0,1.0,6.0,6.0,1071.843816999717,4.0,0.0,part_2,go,950.0,700.0,1.0,,,,,,,,,cyan,I
0.0,2.0,2.0,0.0,5.0,5.0,1204.6464820000438,4.0,0.0,part_2,go,950.0,700.0,1.0,,,,,,,,,green,flipped triangle
0.0,6.0,2.0,1.0,6.0,0.0,0.0,4.0,0.0,part_2,stop,950.0,700.0,4.0,,,,,,,,,gray,hexagon
0.0,6.0,2.0,1.0,5.0,5.0,948.5670209996896,4.0,0.0,part_2,stop,950.0,750.0,3.0,,,,,,,,,gray,hexagon
0.0,3.0,3.0,0.0,6.0,6.0,976.1387819999072,4.0,0.0,part_2,go,900.0,750.0,1.0,,,,,,,,,yellow,square
0.0,6.0,2.0,1.0,6.0,0.0,0.0,4.0,0.0,part_2,stop,900.0,750.0,4.0,,,,,,,,,gray,hexagon
0.0,3.0,3.0,0.0,5.0,5.0,1031.0433680001552,4.0,0.0,part_2,go,900.0,800.0,1.0,,,,,,,,,yellow,square
0.0,4.0,4.0,0.0,5.0,5.0,1386.3585590002003,4.0,0.0,part_2,go,900.0,800.0,1.0,,,,,,,,,orange,circle
0.0,5.0,1.0,1.0,6.0,0.0,0.0,4.0,0.0,part_2,stop,900.0,800.0,4.0,,,,,,,,,cyan,I
0.0,1.0,1.0,0.0,5.0,5.0,1205.7265539997388,4.0,0.0,part_2,go,900.0,850.0,1.0,,,,,,,,,magenta,triangle
0.0,3.0,3.0,0.0,6.0,6.0,894.1715679998197,4.0,0.0,part_2,go,900.0,850.0,1.0,,,,,,,,,yellow,square
0.0,4.0,4.0,0.0,6.0,6.0,1000.5830750001223,4.0,0.0,part_2,go,900.0,850.0,1.0,,,,,,,,,orange,circle
0.0,6.0,2.0,1.0,5.0,5.0,1049.8711889999868,4.0,0.0,part_2,stop,900.0,850.0,3.0,,,,,,,,,gray,hexagon
0.0,2.0,2.0,0.0,5.0,5.0,990.915976999986,4.0,0.0,part_2,go,850.0,850.0,1.0,,,,,,,,,green,flipped triangle
0.0,6.0,2.0,1.0,6.0,6.0,842.4908359997971,4.0,0.0,part_2,stop,850.0,850.0,3.0,,,,,,,,,gray,hexagon
0.0,5.0,1.0,1.0,6.0,0.0,0.0,4.0,0.0,part_2,stop,850.0,800.0,4.0,,,,,,,,,cyan,I
0.0,5.0,1.0,1.0,6.0,6.0,912.9253500000232,4.0,0.0,part_2,go,850.0,850.0,1.0,,,,,,,,,cyan,I
0.0,3.0,3.0,0.0,5.0,5.0,1057.3523120001482,4.0,0.0,part_2,go,850.0,850.0,1.0,,,,,,,,,yellow,square
0.0,8.0,4.0,1.0,5.0,0.0,0.0,4.0,0.0,part_2,stop,850.0,850.0,4.0,,,,,,,,,blue,cross
0.0,1.0,1.0,0.0,6.0,6.0,1034.6862189999229,4.0,0.0,part_2,go,900.0,850.0,1.0,,,,,,,,,magenta,triangle
0.0,7.0,3.0,1.0,6.0,6.0,1111.3278520001586,4.0,0.0,part_2,go,900.0,850.0,1.0,,,,,,,,,white,diamond
0.0,5.0,1.0,1.0,5.0,5.0,1000.9116910000555,5.0,0.0,part_2,stop,900.0,850.0,3.0,,,,,,,,,cyan,I
0.0,2.0,2.0,0.0,5.0,5.0,1036.8823769999835,5.0,0.0,part_2,go,850.0,850.0,1.0,,,,,,,,,green,flipped triangle
0.0,6.0,2.0,1.0,5.0,0.0,0.0,5.0,0.0,part_2,stop,850.0,850.0,4.0,,,,,,,,,gray,hexagon
0.0,4.0,4.0,0.0,6.0,6.0,722.9286279998632,5.0,0.0,part_2,go,900.0,850.0,1.0,,,,,,,,,orange,circle
0.0,4.0,4.0,0.0,6.0,6.0,1029.7924900000908,5.0,0.0,part_2,go,900.0,850.0,1.0,,,,,,,,,orange,circle
0.0,2.0,2.0,0.0,5.0,5.0,875.0139919998219,5.0,0.0,part_2,go,900.0,850.0,1.0,,,,,,,,,green,flipped triangle
0.0,4.0,4.0,0.0,5.0,5.0,623.989149999943,5.0,0.0,part_2,go,900.0,850.0,1.0,,,,,,,,,orange,circle
0.0,6.0,2.0,1.0,6.0,0.0,0.0,5.0,0.0,part_2,stop,900.0,850.0,4.0,,,,,,,,,gray,hexagon
0.0,3.0,3.0,0.0,5.0,5.0,1019.8574910000389,5.0,0.0,part_2,go,900.0,900.0,1.0,,,,,,,,,yellow,square
0.0,2.0,2.0,0.0,5.0,5.0,1309.1448780000974,5.0,0.0,part_2,go,900.0,900.0,1.0,,,,,,,,,green,flipped triangle
0.0,7.0,3.0,1.0,6.0,0.0,0.0,5.0,0.0,part_2,stop,900.0,900.0,4.0,,,,,,,,,white,diamond
0.0,4.0,4.0,0.0,6.0,6.0,565.0676589998511,5.0,0.0,part_2,go,900.0,950.0,1.0,,,,,,,,,orange,circle
0.0,3.0,3.0,0.0,5.0,5.0,1073.5223089995998,5.0,0.0,part_2,go,900.0,950.0,1.0,,,,,,,,,yellow,square
0.0,4.0,4.0,0.0,6.0,6.0,753.3404959999643,5.0,0.0,part_2,go,900.0,950.0,1.0,,,,,,,,,orange,circle
0.0,7.0,3.0,1.0,6.0,6.0,642.1591880002779,5.0,0.0,part_2,stop,900.0,950.0,3.0,,,,,,,,,white,diamond
0.0,4.0,4.0,0.0,5.0,5.0,956.3574660000996,5.0,0.0,part_2,go,900.0,900.0,1.0,,,,,,,,,orange,circle
0.0,4.0,4.0,0.0,5.0,5.0,988.6688239998876,5.0,0.0,part_2,go,900.0,900.0,1.0,,,,,,,,,orange,circle
0.0,4.0,4.0,0.0,5.0,5.0,936.7335269998875,5.0,0.0,part_2,go,900.0,900.0,1.0,,,,,,,,,orange,circle
0.0,6.0,2.0,1.0,5.0,5.0,878.2904229997257,5.0,0.0,part_2,stop,900.0,900.0,3.0,,,,,,,,,gray,hexagon
0.0,1.0,1.0,0.0,6.0,6.0,1082.8054430003249,5.0,0.0,part_2,go,850.0,900.0,1.0,,,,,,,,,magenta,triangle
0.0,5.0,1.0,1.0,6.0,0.0,0.0,5.0,0.0,part_2,stop,850.0,900.0,4.0,,,,,,,,,cyan,I
0.0,2.0,2.0,0.0,6.0,6.0,1172.8170450001016,5.0,0.0,part_2,go,850.0,950.0,1.0,,,,,,,,,green,flipped triangle
0.0,8.0,4.0,1.0,5.0,5.0,1080.7424069998888,5.0,0.0,part_2,go,850.0,950.0,1.0,,,,,,,,,blue,cross
0.0,7.0,3.0,1.0,5.0,5.0,931.944125999962,5.0,0.0,part_2,stop,850.0,950.0,3.0,,,,,,,,,white,diamond
0.0,7.0,3.0,1.0,5.0,0.0,0.0,5.0,0.0,part_2,stop,800.0,950.0,4.0,,,,,,,,,white,diamond
0.0,5.0,1.0,1.0,5.0,5.0,1210.5348660002164,5.0,0.0,part_2,go,850.0,950.0,1.0,,,,,,,,,cyan,I
0.0,6.0,2.0,1.0,6.0,6.0,1184.6486489998824,5.0,0.0,part_2,go,850.0,950.0,1.0,,,,,,,,,gray,hexagon
0.0,8.0,4.0,1.0,5.0,0.0,0.0,5.0,0.0,part_2,stop,850.0,950.0,4.0,,,,,,,,,blue,cross
0.0,2.0,2.0,0.0,5.0,5.0,1241.3689810000506,5.0,0.0,part_2,go,900.0,950.0,1.0,,,,,,,,,green,flipped triangle
0.0,1.0,1.0,0.0,5.0,5.0,880.0828329999604,5.0,0.0,part_2,go,900.0,950.0,1.0,,,,,,,,,magenta,triangle
0.0,6.0,2.0,1.0,5.0,0.0,0.0,5.0,0.0,part_2,stop,900.0,950.0,4.0,,,,,,,,,gray,hexagon
0.0,7.0,3.0,1.0,6.0,6.0,499.0633520001211,5.0,0.0,part_2,stop,950.0,950.0,3.0,,,,,,,,,white,diamond
0.0,2.0,2.0,0.0,5.0,5.0,674.8899849999361,5.0,0.0,part_2,go,950.0,900.0,1.0,,,,,,,,,green,flipped triangle
0.0,1.0,1.0,0.0,5.0,5.0,800.5862029999662,5.0,0.0,part_2,go,950.0,900.0,1.0,,,,,,,,,magenta,triangle
0.0,8.0,4.0,1.0,6.0,6.0,940.1196040003016,5.0,0.0,part_2,stop,950.0,900.0,3.0,,,,,,,,,blue,cross
0.0,3.0,3.0,0.0,5.0,5.0,574.1135670000403,5.0,0.0,part_2,go,950.0,850.0,1.0,,,,,,,,,yellow,square
0.0,3.0,3.0,0.0,6.0,6.0,711.1147870000423,6.0,0.0,part_2,go,950.0,850.0,1.0,,,,,,,,,yellow,square
0.0,8.0,4.0,1.0,6.0,6.0,1016.5093519999573,6.0,0.0,part_2,stop,950.0,850.0,3.0,,,,,,,,,blue,cross
0.0,7.0,3.0,1.0,5.0,5.0,910.8355630000916,6.0,0.0,part_2,go,950.0,800.0,1.0,,,,,,,,,white,diamond
0.0,4.0,4.0,0.0,6.0,6.0,895.5207839999275,6.0,0.0,part_2,go,950.0,800.0,1.0,,,,,,,,,orange,circle
0.0,3.0,3.0,0.0,6.0,6.0,1002.810689999933,6.0,0.0,part_2,go,950.0,800.0,1.0,,,,,,,,,yellow,square
0.0,6.0,2.0,1.0,6.0,6.0,831.7178329998569,6.0,0.0,part_2,stop,950.0,800.0,3.0,,,,,,,,,gray,hexagon
0.0,4.0,4.0,0.0,5.0,5.0,955.3487809998842,6.0,0.0,part_2,go,950.0,750.0,1.0,,,,,,,,,orange,circle
0.0,6.0,2.0,1.0,6.0,0.0,0.0,6.0,0.0,part_2,stop,950.0,750.0,4.0,,,,,,,,,gray,hexagon
0.0,4.0,4.0,0.0,6.0,6.0,1062.477895000029,6.0,0.0,part_2,go,950.0,800.0,1.0,,,,,,,,,orange,circle
0.0,6.0,2.0,1.0,5.0,5.0,1252.773667999918,6.0,0.0,part_2,go,950.0,800.0,1.0,,,,,,,,,gray,hexagon
0.0,1.0,1.0,0.0,5.0,5.0,898.1820340000013,6.0,0.0,part_2,go,950.0,800.0,1.0,,,,,,,,,magenta,triangle
0.0,2.0,2.0,0.0,5.0,5.0,994.7589289999996,6.0,0.0,part_2,go,950.0,800.0,1.0,,,,,,,,,green,flipped triangle
0.0,3.0,3.0,0.0,5.0,5.0,1017.7711760002239,6.0,0.0,part_2,go,950.0,800.0,1.0,,,,,,,,,yellow,square
0.0,6.0,2.0,1.0,5.0,5.0,877.8818939999837,6.0,0.0,part_2,stop,950.0,800.0,3.0,,,,,,,,,gray,hexagon
0.0,8.0,4.0,1.0,6.0,0.0,0.0,6.0,0.0,part_2,stop,900.0,800.0,4.0,,,,,,,,,blue,cross
0.0,1.0,1.0,0.0,5.0,5.0,1325.0289800002977,6.0,0.0,part_2,go,900.0,850.0,1.0,,,,,,,,,magenta,triangle
0.0,2.0,2.0,0.0,6.0,6.0,1007.5155119998271,6.0,0.0,part_2,go,900.0,850.0,1.0,,,,,,,,,green,flipped triangle
0.0,1.0,1.0,0.0,6.0,6.0,836.2939620001271,6.0,0.0,part_2,go,900.0,850.0,1.0,,,,,,,,,magenta,triangle
0.0,4.0,4.0,0.0,6.0,6.0,1106.3507349999782,6.0,0.0,part_2,go,900.0,850.0,1.0,,,,,,,,,orange,circle
0.0,8.0,4.0,1.0,5.0,5.0,1187.3270860000955,6.0,0.0,part_2,go,900.0,850.0,1.0,,,,,,,,,blue,cross
0.0,8.0,4.0,1.0,5.0,5.0,1201.350662000095,6.0,0.0,part_2,go,900.0,850.0,1.0,,,,,,,,,blue,cross
0.0,3.0,3.0,0.0,5.0,5.0,1023.878498999693,6.0,0.0,part_2,go,900.0,850.0,1.0,,,,,,,,,yellow,square
0.0,5.0,1.0,1.0,5.0,5.0,1054.1788040000029,6.0,0.0,part_2,stop,900.0,850.0,3.0,,,,,,,,,cyan,I
0.0,7.0,3.0,1.0,6.0,6.0,1184.7157870001863,6.0,0.0,part_2,go,850.0,850.0,1.0,,,,,,,,,white,diamond
0.0,5.0,1.0,1.0,6.0,0.0,0.0,6.0,0.0,part_2,stop,850.0,850.0,4.0,,,,,,,,,cyan,I
0.0,4.0,4.0,0.0,6.0,6.0,1337.9796889998945,6.0,0.0,part_2,go,850.0,900.0,1.0,,,,,,,,,orange,circle
0.0,8.0,4.0,1.0,6.0,0.0,0.0,6.0,0.0,part_2,stop,850.0,900.0,4.0,,,,,,,,,blue,cross
0.0,5.0,1.0,1.0,5.0,0.0,0.0,6.0,0.0,part_2,stop,850.0,950.0,4.0,,,,,,,,,cyan,I
0.0,5.0,1.0,1.0,5.0,5.0,1139.5488650000516,6.0,0.0,part_2,stop,900.0,950.0,3.0,,,,,,,,,cyan,I
0.0,3.0,3.0,0.0,6.0,6.0,1153.542223999921,6.0,0.0,part_2,go,850.0,950.0,1.0,,,,,,,,,yellow,square
0.0,8.0,4.0,1.0,6.0,6.0,1222.0699459999196,6.0,0.0,part_2,go,850.0,950.0,1.0,,,,,,,,,blue,cross
0.0,6.0,2.0,1.0,5.0,0.0,0.0,6.0,0.0,part_2,stop,850.0,950.0,4.0,,,,,,,,,gray,hexagon
0.0,6.0,2.0,1.0,6.0,6.0,1108.423125000172,6.0,0.0,part_2,stop,900.0,950.0,3.0,,,,,,,,,gray,hexagon
0.0,3.0,3.0,0.0,5.0,5.0,1120.279827000104,6.0,0.0,part_2,go,900.0,900.0,1.0,,,,,,,,,yellow,square
0.0,8.0,4.0,1.0,5.0,0.0,0.0,6.0,0.0,part_2,stop,900.0,900.0,4.0,,,,,,,,,blue,cross
0.0,5.0,1.0,1.0,6.0,6.0,1109.2595830000391,6.0,0.0,part_2,go,950.0,900.0,1.0,,,,,,,,,cyan,I
0.0,5.0,1.0,1.0,6.0,6.0,811.5136420001363,7.0,0.0,part_2,stop,950.0,900.0,3.0,,,,,,,,,cyan,I
0.0,7.0,3.0,1.0,5.0,5.0,1026.9369799998458,7.0,0.0,part_2,stop,950.0,850.0,3.0,,,,,,,,,white,diamond
0.0,6.0,2.0,1.0,6.0,6.0,843.7080129997412,7.0,0.0,part_2,go,900.0,850.0,1.0,,,,,,,,,gray,hexagon
0.0,4.0,4.0,0.0,5.0,5.0,1114.9419469998063,7.0,0.0,part_2,go,900.0,850.0,1.0,,,,,,,,,orange,circle
0.0,5.0,1.0,1.0,6.0,6.0,888.8510110000425,7.0,0.0,part_2,stop,900.0,850.0,3.0,,,,,,,,,cyan,I
0.0,1.0,1.0,0.0,6.0,6.0,1355.7479749997583,7.0,0.0,part_2,go,900.0,800.0,1.0,,,,,,,,,magenta,triangle
0.0,8.0,4.0,1.0,5.0,5.0,1018.045370999971,7.0,0.0,part_2,go,900.0,800.0,1.0,,,,,,,,,blue,cross
0.0,8.0,4.0,1.0,6.0,6.0,1151.4147180000691,7.0,0.0,part_2,go,900.0,800.0,1.0,,,,,,,,,blue,cross
0.0,6.0,2.0,1.0,6.0,6.0,950.6180110001878,7.0,0.0,part_2,go,900.0,800.0,1.0,,,,,,,,,gray,hexagon
0.0,6.0,2.0,1.0,5.0,5.0,936.4430850000643,7.0,0.0,part_2,go,900.0,800.0,1.0,,,,,,,,,gray,hexagon
0.0,1.0,1.0,0.0,5.0,5.0,1011.7306180000014,7.0,0.0,part_2,go,900.0,800.0,1.0,,,,,,,,,magenta,triangle
0.0,6.0,2.0,1.0,6.0,0.0,0.0,7.0,0.0,part_2,stop,900.0,800.0,4.0,,,,,,,,,gray,hexagon
0.0,3.0,3.0,0.0,6.0,6.0,1236.5073389996724,7.0,0.0,part_2,go,900.0,850.0,1.0,,,,,,,,,yellow,square
0.0,7.0,3.0,1.0,5.0,0.0,0.0,7.0,0.0,part_2,stop,900.0,850.0,4.0,,,,,,,,,white,diamond
0.0,6.0,2.0,1.0,5.0,5.0,1387.7046699999482,7.0,0.0,part_2,go,950.0,850.0,1.0,,,,,,,,,gray,hexagon
0.0,6.0,2.0,1.0,6.0,6.0,1298.874307999995,7.0,0.0,part_2,go,950.0,850.0,1.0,,,,,,,,,gray,hexagon
0.0,8.0,4.0,1.0,6.0,0.0,0.0,7.0,0.0,part_2,stop,950.0,850.0,4.0,,,,,,,,,blue,cross
0.0,7.0,3.0,1.0,6.0,0.0,0.0,7.0,0.0,part_2,stop,950.0,900.0,4.0,,,,,,,,,white,diamond
0.0,7.0,3.0,1.0,5.0,5.0,839.6398959998805,7.0,0.0,part_2,stop,950.0,950.0,3.0,,,,,,,,,white,diamond
0.0,4.0,4.0,0.0,6.0,6.0,822.5629149997076,7.0,0.0,part_2,go,900.0,950.0,1.0,,,,,,,,,orange,circle
0.0,6.0,2.0,1.0,5.0,0.0,0.0,7.0,0.0,part_2,stop,900.0,950.0,4.0,,,,,,,,,gray,hexagon
0.0,6.0,2.0,1.0,6.0,0.0,0.0,7.0,0.0,part_2,stop,950.0,950.0,4.0,,,,,,,,,gray,hexagon
0.0,4.0,4.0,0.0,5.0,5.0,1067.5504430000728,7.0,0.0,part_2,go,950.0,1000.0,1.0,,,,,,,,,orange,circle
0.0,6.0,2.0,1.0,6.0,6.0,1075.0666339999952,7.0,0.0,part_2,stop,950.0,1000.0,3.0,,,,,,,,,gray,hexagon
0.0,5.0,1.0,1.0,5.0,5.0,1036.76786799997,7.0,0.0,part_2,stop,950.0,950.0,3.0,,,,,,,,,cyan,I
0.0,5.0,1.0,1.0,5.0,0.0,0.0,7.0,0.0,part_2,stop,900.0,950.0,4.0,,,,,,,,,cyan,I
0.0,1.0,1.0,0.0,5.0,5.0,1251.7834219997894,7.0,0.0,part_2,go,950.0,950.0,1.0,,,,,,,,,magenta,triangle
0.0,7.0,3.0,1.0,5.0,5.0,981.1768899999151,7.0,0.0,part_2,stop,950.0,950.0,3.0,,,,,,,,,white,diamond
0.0,2.0,2.0,0.0,6.0,6.0,1058.80769300029,7.0,0.0,part_2,go,900.0,950.0,1.0,,,,,,,,,green,flipped triangle
0.0,4.0,4.0,0.0,6.0,6.0,1163.2766500001708,7.0,0.0,part_2,go,900.0,950.0,1.0,,,,,,,,,orange,circle
0.0,7.0,3.0,1.0,6.0,6.0,1065.2840909997394,7.0,0.0,part_2,stop,900.0,950.0,3.0,,,,,,,,,white,diamond
0.0,8.0,4.0,1.0,6.0,0.0,0.0,7.0,0.0,part_2,stop,900.0,900.0,4.0,,,,,,,,,blue,cross
0.0,2.0,2.0,0.0,5.0,5.0,1422.4329469998338,7.0,0.0,part_2,go,900.0,950.0,1.0,,,,,,,,,green,flipped triangle
0.0,7.0,3.0,1.0,5.0,5.0,1227.3147850000896,7.0,0.0,part_2,go,900.0,950.0,1.0,,,,,,,,,white,diamond
0.0,5.0,1.0,1.0,5.0,0.0,0.0,7.0,0.0,part_2,stop,900.0,950.0,4.0,,,,,,,,,cyan,I
0.0,1.0,1.0,0.0,5.0,5.0,1296.346132000053,7.0,0.0,part_2,go,950.0,950.0,1.0,,,,,,,,,magenta,triangle
0.0,2.0,2.0,0.0,6.0,6.0,1051.889220999783,8.0,0.0,part_2,go,950.0,950.0,1.0,,,,,,,,,green,flipped triangle
0.0,3.0,3.0,0.0,6.0,6.0,1304.549285000121,8.0,0.0,part_2,go,950.0,950.0,1.0,,,,,,,,,yellow,square
0.0,2.0,2.0,0.0,6.0,6.0,1086.4330229996997,8.0,0.0,part_2,go,950.0,950.0,1.0,,,,,,,,,green,flipped triangle
0.0,8.0,4.0,1.0,5.0,5.0,1089.2370460001075,8.0,0.0,part_2,stop,950.0,950.0,3.0,,,,,,,,,blue,cross
0.0,5.0,1.0,1.0,5.0,5.0,1134.2713259996344,8.0,0.0,part_2,go,900.0,950.0,1.0,,,,,,,,,cyan,I
0.0,8.0,4.0,1.0,6.0,6.0,1007.6243160001468,8.0,0.0,part_2,stop,900.0,950.0,3.0,,,,,,,,,blue,cross
0.0,2.0,2.0,0.0,6.0,6.0,1074.4320930002689,8.0,0.0,part_2,go,900.0,900.0,1.0,,,,,,,,,green,flipped triangle
0.0,4.0,4.0,0.0,5.0,5.0,1380.4014560000724,8.0,0.0,part_2,go,900.0,900.0,1.0,,,,,,,,,orange,circle
0.0,2.0,2.0,0.0,6.0,6.0,1179.9918030001209,8.0,0.0,part_2,go,900.0,900.0,1.0,,,,,,,,,green,flipped triangle
0.0,3.0,3.0,0.0,5.0,5.0,1251.0245100002066,8.0,0.0,part_2,go,900.0,900.0,1.0,,,,,,,,,yellow,square
0.0,7.0,3.0,1.0,6.0,6.0,1091.0742400001254,8.0,0.0,part_2,stop,900.0,900.0,3.0,,,,,,,,,white,diamond
0.0,4.0,4.0,0.0,5.0,5.0,1324.611750999793,8.0,0.0,part_2,go,900.0,850.0,1.0,,,,,,,,,orange,circle
0.0,1.0,1.0,0.0,6.0,6.0,1498.904586000208,8.0,0.0,part_2,go,900.0,850.0,1.0,,,,,,,,,magenta,triangle
0.0,7.0,3.0,1.0,6.0,0.0,0.0,8.0,0.0,part_2,stop,900.0,850.0,4.0,,,,,,,,,white,diamond
0.0,7.0,3.0,1.0,6.0,0.0,0.0,8.0,0.0,part_2,stop,900.0,900.0,4.0,,,,,,,,,white,diamond
0.0,8.0,4.0,1.0,6.0,0.0,0.0,8.0,0.0,part_2,stop,900.0,950.0,4.0,,,,,,,,,blue,cross
0.0,1.0,1.0,0.0,6.0,6.0,1007.8020060000199,8.0,0.0,part_2,go,900.0,1000.0,1.0,,,,,,,,,magenta,triangle
0.0,1.0,1.0,0.0,5.0,5.0,1165.501017999759,8.0,0.0,part_2,go,900.0,1000.0,1.0,,,,,,,,,magenta,triangle
0.0,7.0,3.0,1.0,6.0,6.0,1089.680572999896,8.0,0.0,part_2,stop,900.0,1000.0,3.0,,,,,,,,,white,diamond
0.0,8.0,4.0,1.0,5.0,0.0,0.0,8.0,0.0,part_2,stop,900.0,950.0,4.0,,,,,,,,,blue,cross
0.0,3.0,3.0,0.0,6.0,6.0,1299.4307779999872,8.0,0.0,part_2,go,950.0,950.0,1.0,,,,,,,,,yellow,square
0.0,3.0,3.0,0.0,6.0,0.0,0.0,8.0,0.0,part_2,go,950.0,950.0,5.0,,,,,,,,,yellow,square
0.0,5.0,1.0,1.0,6.0,0.0,0.0,8.0,0.0,part_2,stop,950.0,950.0,4.0,,,,,,,,,cyan,I
0.0,3.0,3.0,0.0,5.0,5.0,813.9818320000813,8.0,0.0,part_2,go,950.0,1000.0,1.0,,,,,,,,,yellow,square
0.0,1.0,1.0,0.0,6.0,6.0,1079.8454899995704,8.0,0.0,part_2,go,950.0,1000.0,1.0,,,,,,,,,magenta,triangle
0.0,4.0,4.0,0.0,6.0,6.0,1251.046349000262,8.0,0.0,part_2,go,950.0,1000.0,1.0,,,,,,,,,orange,circle
0.0,1.0,1.0,0.0,6.0,6.0,650.1640169999519,8.0,0.0,part_2,go,950.0,1000.0,1.0,,,,,,,,,magenta,triangle
0.0,1.0,1.0,0.0,6.0,6.0,897.8544679998777,8.0,0.0,part_2,go,950.0,1000.0,1.0,,,,,,,,,magenta,triangle
0.0,5.0,1.0,1.0,5.0,5.0,1008.7496260002808,8.0,0.0,part_2,stop,950.0,1000.0,3.0,,,,,,,,,cyan,I
0.0,7.0,3.0,1.0,5.0,5.0,936.4401769998948,8.0,0.0,part_2,stop,900.0,1000.0,3.0,,,,,,,,,white,diamond
0.0,3.0,3.0,0.0,5.0,5.0,1210.1008829999955,8.0,0.0,part_2,go,850.0,1000.0,1.0,,,,,,,,,yellow,square
0.0,2.0,2.0,0.0,6.0,6.0,1296.5381439998964,8.0,0.0,part_2,go,850.0,1000.0,1.0,,,,,,,,,green,flipped triangle
0.0,8.0,4.0,1.0,5.0,0.0,0.0,8.0,0.0,part_2,stop,850.0,1000.0,4.0,,,,,,,,,blue,cross
0.0,7.0,3.0,1.0,6.0,6.0,1276.142660000005,8.0,0.0,part_2,go,900.0,1000.0,1.0,,,,,,,,,white,diamond
0.0,7.0,3.0,1.0,5.0,5.0,1291.0269150002025,8.0,0.0,part_2,go,900.0,1000.0,1.0,,,,,,,,,white,diamond
0.0,3.0,3.0,0.0,5.0,5.0,1254.850711000017,8.0,0.0,part_2,go,900.0,1000.0,1.0,,,,,,,,,yellow,square
0.0,6.0,2.0,1.0,7.0,3.0,2016.9013169997925,1.0,1.0,part_3,go,0.0,0.0,0.0,156.0,4.0,117.0,234.0,156.0,195.0,39.0,78.0,gray,hexagon
0.0,5.0,1.0,1.0,7.0,5.0,1894.7223759996632,1.0,1.0,part_3,go,0.0,0.0,0.0,264.0,6.0,132.0,176.0,44.0,220.0,264.0,88.0,cyan,I
0.0,6.0,2.0,1.0,7.0,3.0,1603.839226000673,1.0,1.0,part_3,go,0.0,0.0,0.0,34.0,1.0,136.0,204.0,34.0,170.0,102.0,68.0,gray,hexagon
0.0,6.0,2.0,1.0,7.0,5.0,1209.7656780006218,1.0,1.0,part_3,go,0.0,0.0,0.0,294.0,6.0,245.0,147.0,49.0,196.0,294.0,98.0,gray,hexagon
0.0,2.0,2.0,0.0,7.0,2.0,1617.0065450005495,1.0,1.0,part_3,go,0.0,0.0,0.0,132.0,3.0,264.0,132.0,220.0,88.0,176.0,44.0,green,flipped triangle
0.0,5.0,1.0,1.0,7.0,1.0,1416.201304000424,1.0,1.0,part_3,go,0.0,0.0,0.0,98.0,2.0,98.0,245.0,294.0,147.0,196.0,49.0,cyan,I
0.0,2.0,2.0,0.0,7.0,6.0,1170.1654349999444,1.0,1.0,part_3,go,0.0,0.0,0.0,195.0,5.0,78.0,117.0,234.0,39.0,156.0,195.0,green,flipped triangle
0.0,4.0,4.0,0.0,7.0,2.0,1526.4450570002737,1.0,1.0,part_3,go,0.0,0.0,0.0,136.0,4.0,102.0,136.0,204.0,34.0,170.0,68.0,orange,circle
0.0,6.0,2.0,1.0,7.0,4.0,2322.384090999549,1.0,1.0,part_3,go,0.0,0.0,0.0,88.0,2.0,220.0,132.0,176.0,88.0,44.0,264.0,gray,hexagon
0.0,1.0,1.0,0.0,7.0,1.0,2558.3732209997834,1.0,1.0,part_3,go,0.0,0.0,0.0,170.0,5.0,170.0,102.0,68.0,204.0,136.0,34.0,magenta,triangle
0.0,1.0,1.0,0.0,7.0,6.0,1844.4592409996403,1.0,1.0,part_3,go,0.0,0.0,0.0,117.0,3.0,234.0,78.0,195.0,39.0,156.0,117.0,magenta,triangle
0.0,3.0,3.0,0.0,7.0,5.0,1506.1964320002517,1.0,1.0,part_3,go,0.0,0.0,0.0,117.0,3.0,39.0,195.0,234.0,78.0,117.0,156.0,yellow,square
0.0,5.0,1.0,1.0,7.0,1.0,3277.924343999985,1.0,1.0,part_3,go,0.0,0.0,0.0,98.0,2.0,98.0,245.0,147.0,196.0,294.0,49.0,cyan,I
0.0,3.0,3.0,0.0,7.0,1.0,1374.291073000677,1.0,1.0,part_3,go,0.0,0.0,0.0,220.0,5.0,220.0,88.0,44.0,176.0,264.0,132.0,yellow,square
0.0,1.0,1.0,0.0,7.0,4.0,1422.708877999867,1.0,1.0,part_3,go,0.0,0.0,0.0,170.0,5.0,204.0,102.0,68.0,170.0,34.0,136.0,magenta,triangle
0.0,2.0,2.0,0.0,7.0,5.0,2592.7246000001105,1.0,1.0,part_3,go,0.0,0.0,0.0,136.0,4.0,102.0,68.0,204.0,34.0,136.0,170.0,green,flipped triangle
0.0,8.0,4.0,1.0,7.0,1.0,1855.0291930005187,1.0,1.0,part_3,go,0.0,0.0,0.0,204.0,6.0,204.0,68.0,34.0,170.0,136.0,102.0,blue,cross
0.0,4.0,4.0,0.0,7.0,1.0,1412.4588489994494,1.0,1.0,part_3,go,0.0,0.0,0.0,196.0,4.0,196.0,147.0,98.0,245.0,49.0,294.0,orange,circle
0.0,7.0,3.0,1.0,7.0,3.0,1685.3698799995982,1.0,1.0,part_3,go,0.0,0.0,0.0,147.0,3.0,245.0,294.0,147.0,98.0,49.0,196.0,white,diamond
0.0,1.0,1.0,0.0,7.0,6.0,1229.930243999661,1.0,1.0,part_3,go,0.0,0.0,0.0,220.0,5.0,44.0,176.0,132.0,264.0,88.0,220.0,magenta,triangle
0.0,2.0,2.0,0.0,7.0,4.0,2049.4992119993185,2.0,1.0,part_3,go,0.0,0.0,0.0,324.0,6.0,162.0,216.0,108.0,324.0,54.0,270.0,green,flipped triangle
0.0,4.0,4.0,0.0,7.0,2.0,1147.2466189998158,2.0,1.0,part_3,go,0.0,0.0,0.0,195.0,5.0,117.0,195.0,39.0,156.0,234.0,78.0,orange,circle
0.0,3.0,3.0,0.0,7.0,1.0,1124.4226680000793,2.0,1.0,part_3,go,0.0,0.0,0.0,170.0,5.0,170.0,204.0,34.0,68.0,102.0,136.0,yellow,square
0.0,5.0,1.0,1.0,7.0,5.0,1092.908112999794,2.0,1.0,part_3,go,0.0,0.0,0.0,220.0,5.0,132.0,88.0,44.0,264.0,220.0,176.0,cyan,I
0.0,3.0,3.0,0.0,7.0,1.0,1416.048635000152,2.0,1.0,part_3,go,0.0,0.0,0.0,147.0,3.0,147.0,196.0,294.0,245.0,98.0,49.0,yellow,square
0.0,6.0,2.0,1.0,7.0,2.0,2058.1107610005347,2.0,1.0,part_3,go,0.0,0.0,0.0,68.0,2.0,102.0,68.0,170.0,136.0,204.0,34.0,gray,hexagon
0.0,1.0,1.0,0.0,7.0,5.0,857.4783609992664,2.0,1.0,part_3,go,0.0,0.0,0.0,88.0,2.0,220.0,44.0,264.0,176.0,88.0,132.0,magenta,triangle
0.0,2.0,2.0,0.0,7.0,3.0,1382.0377729998654,2.0,1.0,part_3,go,0.0,0.0,0.0,294.0,6.0,196.0,49.0,294.0,98.0,147.0,245.0,green,flipped triangle
0.0,8.0,4.0,1.0,7.0,1.0,827.2078569998484,2.0,1.0,part_3,go,0.0,0.0,0.0,39.0,1.0,39.0,156.0,234.0,117.0,78.0,195.0,blue,cross
0.0,7.0,3.0,1.0,7.0,5.0,1904.5400340000924,2.0,1.0,part_3,go,0.0,0.0,0.0,204.0,6.0,102.0,136.0,34.0,68.0,204.0,170.0,white,diamond
0.0,5.0,1.0,1.0,7.0,5.0,1200.0145849997352,2.0,1.0,part_3,go,0.0,0.0,0.0,78.0,2.0,117.0,195.0,39.0,234.0,78.0,156.0,cyan,I
0.0,8.0,4.0,1.0,7.0,2.0,1216.175611999461,2.0,1.0,part_3,go,0.0,0.0,0.0,220.0,5.0,264.0,220.0,132.0,88.0,44.0,176.0,blue,cross
0.0,4.0,4.0,0.0,7.0,3.0,1075.2530580002713,2.0,1.0,part_3,go,0.0,0.0,0.0,234.0,6.0,117.0,78.0,234.0,195.0,39.0,156.0,orange,circle
0.0,7.0,3.0,1.0,7.0,5.0,643.6819919999834,2.0,1.0,part_3,go,0.0,0.0,0.0,234.0,6.0,78.0,39.0,117.0,156.0,234.0,195.0,white,diamond
0.0,1.0,1.0,0.0,7.0,1.0,1420.354399999269,2.0,1.0,part_3,go,0.0,0.0,0.0,324.0,6.0,324.0,216.0,162.0,54.0,108.0,270.0,magenta,triangle
0.0,2.0,2.0,0.0,7.0,6.0,1972.3014299997883,2.0,1.0,part_3,go,0.0,0.0,0.0,88.0,2.0,176.0,264.0,44.0,132.0,220.0,88.0,green,flipped triangle
0.0,6.0,2.0,1.0,7.0,2.0,1461.8537710002784,2.0,1.0,part_3,go,0.0,0.0,0.0,162.0,3.0,54.0,162.0,324.0,108.0,270.0,216.0,gray,hexagon
0.0,7.0,3.0,1.0,7.0,3.0,1382.318418000068,2.0,1.0,part_3,go,0.0,0.0,0.0,324.0,6.0,162.0,270.0,324.0,54.0,108.0,216.0,white,diamond
0.0,7.0,3.0,1.0,7.0,3.0,1722.7781729998242,2.0,1.0,part_3,go,0.0,0.0,0.0,132.0,3.0,176.0,264.0,132.0,88.0,44.0,220.0,white,diamond
0.0,5.0,1.0,1.0,7.0,5.0,1563.1694229996356,2.0,1.0,part_3,go,0.0,0.0,0.0,170.0,5.0,34.0,102.0,204.0,136.0,170.0,68.0,cyan,I
0.0,8.0,4.0,1.0,7.0,1.0,808.4980510002424,3.0,1.0,part_3,go,0.0,0.0,0.0,102.0,3.0,102.0,34.0,136.0,204.0,68.0,170.0,blue,cross
0.0,7.0,3.0,1.0,7.0,6.0,720.5781180000486,3.0,1.0,part_3,go,0.0,0.0,0.0,54.0,1.0,108.0,270.0,162.0,324.0,216.0,54.0,white,diamond
0.0,4.0,4.0,0.0,7.0,3.0,1810.8897179999983,3.0,1.0,part_3,go,0.0,0.0,0.0,264.0,6.0,176.0,132.0,264.0,88.0,44.0,220.0,orange,circle
0.0,1.0,1.0,0.0,7.0,3.0,1419.9984669994592,3.0,1.0,part_3,go,0.0,0.0,0.0,108.0,2.0,270.0,216.0,108.0,54.0,162.0,324.0,magenta,triangle
0.0,2.0,2.0,0.0,7.0,2.0,1069.8786610000752,3.0,1.0,part_3,go,0.0,0.0,0.0,270.0,5.0,54.0,270.0,216.0,162.0,324.0,108.0,green,flipped triangle
0.0,8.0,4.0,1.0,7.0,3.0,1029.9128090000522,3.0,1.0,part_3,go,0.0,0.0,0.0,324.0,6.0,54.0,108.0,324.0,216.0,162.0,270.0,blue,cross
0.0,2.0,2.0,0.0,7.0,1.0,1747.330662999957,3.0,1.0,part_3,go,0.0,0.0,0.0,234.0,6.0,234.0,156.0,195.0,117.0,78.0,39.0,green,flipped triangle
0.0,8.0,4.0,1.0,7.0,2.0,1273.2038100002685,3.0,1.0,part_3,go,0.0,0.0,0.0,78.0,2.0,39.0,78.0,234.0,156.0,195.0,117.0,blue,cross
0.0,1.0,1.0,0.0,7.0,6.0,1866.8672469993908,3.0,1.0,part_3,go,0.0,0.0,0.0,49.0,1.0,294.0,245.0,98.0,147.0,196.0,49.0,magenta,triangle
0.0,2.0,2.0,0.0,7.0,5.0,705.7902480000848,3.0,1.0,part_3,go,0.0,0.0,0.0,196.0,4.0,147.0,245.0,98.0,294.0,196.0,49.0,green,flipped triangle
0.0,7.0,3.0,1.0,7.0,1.0,2035.947973000475,3.0,1.0,part_3,go,0.0,0.0,0.0,98.0,2.0,98.0,49.0,245.0,294.0,147.0,196.0,white,diamond
0.0,5.0,1.0,1.0,7.0,2.0,812.0480600000519,3.0,1.0,part_3,go,0.0,0.0,0.0,78.0,2.0,234.0,78.0,195.0,117.0,156.0,39.0,cyan,I
0.0,4.0,4.0,0.0,7.0,5.0,1694.2251020000183,3.0,1.0,part_3,go,0.0,0.0,0.0,204.0,6.0,136.0,68.0,102.0,170.0,204.0,34.0,orange,circle
0.0,5.0,1.0,1.0,7.0,4.0,675.019988000713,3.0,1.0,part_3,go,0.0,0.0,0.0,108.0,2.0,270.0,54.0,162.0,108.0,324.0,216.0,cyan,I
0.0,7.0,3.0,1.0,7.0,6.0,790.7073860005767,3.0,1.0,part_3,go,0.0,0.0,0.0,156.0,4.0,39.0,234.0,78.0,117.0,195.0,156.0,white,diamond
0.0,3.0,3.0,0.0,7.0,5.0,761.0516630002166,3.0,1.0,part_3,go,0.0,0.0,0.0,117.0,3.0,156.0,234.0,39.0,78.0,117.0,195.0,yellow,square
0.0,3.0,3.0,0.0,7.0,2.0,1009.1086119991814,3.0,1.0,part_3,go,0.0,0.0,0.0,108.0,2.0,54.0,108.0,324.0,216.0,162.0,270.0,yellow,square
0.0,4.0,4.0,0.0,7.0,5.0,1041.46432700054,3.0,1.0,part_3,go,0.0,0.0,0.0,108.0,2.0,162.0,324.0,216.0,54.0,108.0,270.0,orange,circle
0.0,4.0,4.0,0.0,7.0,6.0,1351.2809180001568,3.0,1.0,part_3,go,0.0,0.0,0.0,132.0,3.0,44.0,264.0,88.0,220.0,176.0,132.0,orange,circle
0.0,8.0,4.0,1.0,7.0,5.0,889.2544850004924,3.0,1.0,part_3,go,0.0,0.0,0.0,98.0,2.0,49.0,294.0,245.0,196.0,98.0,147.0,blue,cross
0.0,3.0,3.0,0.0,7.0,1.0,814.2319669996141,4.0,1.0,part_3,go,0.0,0.0,0.0,108.0,2.0,108.0,270.0,54.0,324.0,162.0,216.0,yellow,square
0.0,7.0,3.0,1.0,7.0,2.0,983.7262179999016,4.0,1.0,part_3,go,0.0,0.0,0.0,68.0,2.0,102.0,68.0,204.0,34.0,170.0,136.0,white,diamond
0.0,6.0,2.0,1.0,7.0,6.0,934.6112330003962,4.0,1.0,part_3,go,0.0,0.0,0.0,220.0,5.0,176.0,44.0,264.0,132.0,88.0,220.0,gray,hexagon
0.0,1.0,1.0,0.0,7.0,5.0,882.9582099997424,4.0,1.0,part_3,go,0.0,0.0,0.0,78.0,2.0,39.0,117.0,195.0,234.0,78.0,156.0,magenta,triangle
0.0,8.0,4.0,1.0,7.0,4.0,919.7030790001008,4.0,1.0,part_3,go,0.0,0.0,0.0,49.0,1.0,294.0,98.0,196.0,49.0,245.0,147.0,blue,cross
0.0,8.0,4.0,1.0,7.0,3.0,1911.3067910002428,4.0,1.0,part_3,go,0.0,0.0,0.0,132.0,3.0,44.0,220.0,132.0,176.0,88.0,264.0,blue,cross
0.0,1.0,1.0,0.0,7.0,4.0,669.9365329995999,4.0,1.0,part_3,go,0.0,0.0,0.0,98.0,2.0,147.0,294.0,196.0,98.0,245.0,49.0,magenta,triangle
0.0,6.0,2.0,1.0,7.0,1.0,1088.750576000166,4.0,1.0,part_3,go,0.0,0.0,0.0,147.0,3.0,147.0,196.0,49.0,294.0,245.0,98.0,gray,hexagon
0.0,3.0,3.0,0.0,7.0,6.0,1554.9110440006189,4.0,1.0,part_3,go,0.0,0.0,0.0,98.0,2.0,196.0,49.0,147.0,294.0,245.0,98.0,yellow,square
0.0,7.0,3.0,1.0,7.0,2.0,624.2487919998894,4.0,1.0,part_3,go,0.0,0.0,0.0,176.0,4.0,88.0,176.0,264.0,44.0,132.0,220.0,white,diamond
0.0,3.0,3.0,0.0,7.0,5.0,594.3792749994827,4.0,1.0,part_3,go,0.0,0.0,0.0,88.0,2.0,220.0,132.0,176.0,264.0,88.0,44.0,yellow,square
0.0,4.0,4.0,0.0,7.0,4.0,530.7521350005118,4.0,1.0,part_3,go,0.0,0.0,0.0,196.0,4.0,245.0,49.0,147.0,196.0,294.0,98.0,orange,circle
0.0,4.0,4.0,0.0,7.0,6.0,695.5188069996439,4.0,1.0,part_3,go,0.0,0.0,0.0,216.0,4.0,162.0,324.0,108.0,270.0,54.0,216.0,orange,circle
0.0,5.0,1.0,1.0,7.0,5.0,329.1468269999313,4.0,1.0,part_3,go,0.0,0.0,0.0,102.0,3.0,68.0,136.0,204.0,170.0,102.0,34.0,cyan,I
0.0,6.0,2.0,1.0,7.0,2.0,499.9150720004763,4.0,1.0,part_3,go,0.0,0.0,0.0,216.0,4.0,162.0,216.0,270.0,54.0,324.0,108.0,gray,hexagon
0.0,8.0,4.0,1.0,7.0,3.0,399.6174699996118,4.0,1.0,part_3,go,0.0,0.0,0.0,270.0,5.0,324.0,162.0,270.0,54.0,216.0,108.0,blue,cross
0.0,2.0,2.0,0.0,7.0,1.0,482.8440609999234,4.0,1.0,part_3,go,0.0,0.0,0.0,102.0,3.0,102.0,204.0,34.0,68.0,170.0,136.0,green,flipped triangle
0.0,5.0,1.0,1.0,7.0,6.0,1109.9734099998386,4.0,1.0,part_3,go,0.0,0.0,0.0,162.0,3.0,216.0,108.0,324.0,54.0,270.0,162.0,cyan,I
0.0,6.0,2.0,1.0,7.0,2.0,780.5835580002167,4.0,1.0,part_3,go,0.0,0.0,0.0,39.0,1.0,78.0,39.0,234.0,195.0,117.0,156.0,gray,hexagon
0.0,3.0,3.0,0.0,7.0,1.0,550.2455850000842,4.0,1.0,part_3,go,0.0,0.0,0.0,68.0,2.0,68.0,102.0,170.0,136.0,34.0,204.0,yellow,square
