raw_reward_magnitude,stim_reward,stepwise_reward_magnitude,paired_with_stopping,stim_location,response,reaction_time,block,num_trial_presentations,which_phase,stop_signal_trial_type,left_SSD,right_SSD,accuracy,chosen_bidding_amount,chosen_bidding_level,possible_bid_1,possible_bid_2,possible_bid_3,possible_bid_4,possible_bid_5,possible_bid_6,color_text,shape_text
208.0,7.0,2.0,1.0,3.0,3.0,675.7121549999283,1.0,1.0,phase_1,,,,,,,,,,,,,cyan,cross
102.0,2.0,1.0,0.0,3.0,3.0,397.221189999982,1.0,1.0,phase_1,,,,,,,,,,,,,green,I
89.0,2.0,1.0,0.0,2.0,2.0,443.0734960001246,1.0,1.0,phase_1,,,,,,,,,,,,,green,I
402.0,8.0,4.0,1.0,2.0,2.0,382.0159710001007,1.0,1.0,phase_1,,,,,,,,,,,,,magenta,hexagon
389.0,8.0,4.0,1.0,1.0,1.0,297.3174250000738,1.0,1.0,phase_1,,,,,,,,,,,,,magenta,hexagon
33.0,1.0,0.5,0.0,4.0,4.0,380.1957949999632,1.0,1.0,phase_1,,,,,,,,,,,,,orange,triangle
101.0,6.0,1.0,1.0,1.0,1.0,349.1014580001774,1.0,1.0,phase_1,,,,,,,,,,,,,yellow,square
76.0,6.0,1.0,1.0,2.0,2.0,288.3232719998432,1.0,1.0,phase_1,,,,,,,,,,,,,yellow,square
51.0,1.0,0.5,0.0,1.0,1.0,356.3867450000089,1.0,1.0,phase_1,,,,,,,,,,,,,orange,triangle
48.0,5.0,0.5,1.0,2.0,2.0,262.8541290000612,1.0,1.0,phase_1,,,,,,,,,,,,,blue,diamond
207.0,3.0,2.0,0.0,4.0,4.0,383.0509609999808,1.0,2.0,phase_1,,,,,,,,,,,,,gray,flipped triangle
0.0,1.0,0.0,0.0,3.0,3.0,401.6642609999508,1.0,1.0,phase_1,,,,,,,,,,,,,orange,triangle
0.0,5.0,0.0,1.0,3.0,3.0,379.0828529999999,1.0,1.0,phase_1,,,,,,,,,,,,,blue,diamond
121.0,2.0,1.0,0.0,1.0,1.0,355.727669000089,1.0,1.0,phase_1,,,,,,,,,,,,,green,I
197.0,3.0,2.0,0.0,1.0,1.0,403.4687939999912,1.0,1.0,phase_1,,,,,,,,,,,,,gray,flipped triangle
108.0,6.0,1.0,1.0,2.0,2.0,340.5677920000016,1.0,1.0,phase_1,,,,,,,,,,,,,yellow,square
52.0,5.0,0.5,1.0,2.0,2.0,299.9876640001275,1.0,1.0,phase_1,,,,,,,,,,,,,blue,diamond
391.0,4.0,4.0,0.0,2.0,2.0,292.5655090000418,1.0,1.0,phase_1,,,,,,,,,,,,,white,circle
219.0,7.0,2.0,1.0,4.0,4.0,308.4111860000575,1.0,1.0,phase_1,,,,,,,,,,,,,cyan,cross
118.0,2.0,1.0,0.0,2.0,2.0,327.7747140000429,1.0,1.0,phase_1,,,,,,,,,,,,,green,I
205.0,3.0,2.0,0.0,4.0,4.0,343.5342990001118,1.0,1.0,phase_1,,,,,,,,,,,,,gray,flipped triangle
0.0,6.0,0.0,1.0,4.0,4.0,431.085117000066,1.0,1.0,phase_1,,,,,,,,,,,,,yellow,square
385.0,4.0,4.0,0.0,3.0,3.0,490.2412600001753,1.0,1.0,phase_1,,,,,,,,,,,,,white,circle
186.0,7.0,2.0,1.0,2.0,2.0,425.1531320001049,1.0,1.0,phase_1,,,,,,,,,,,,,cyan,cross
60.0,5.0,0.5,1.0,3.0,3.0,305.6071990001783,1.0,1.0,phase_1,,,,,,,,,,,,,blue,diamond
190.0,7.0,2.0,1.0,4.0,4.0,336.8753600000218,1.0,1.0,phase_1,,,,,,,,,,,,,cyan,cross
384.0,8.0,4.0,1.0,4.0,4.0,387.3913279999215,1.0,1.0,phase_1,,,,,,,,,,,,,magenta,hexagon
28.0,1.0,0.5,0.0,1.0,1.0,345.4706610000357,1.0,1.0,phase_1,,,,,,,,,,,,,orange,triangle
395.0,8.0,4.0,1.0,3.0,3.0,341.350422000005,1.0,1.0,phase_1,,,,,,,,,,,,,magenta,hexagon
0.0,2.0,0.0,0.0,4.0,4.0,330.2511300000788,1.0,1.0,phase_1,,,,,,,,,,,,,green,I
205.0,7.0,2.0,1.0,1.0,1.0,291.54970400009,1.0,1.0,phase_1,,,,,,,,,,,,,cyan,cross
190.0,3.0,2.0,0.0,2.0,2.0,379.3273350001982,1.0,1.0,phase_1,,,,,,,,,,,,,gray,flipped triangle
215.0,3.0,2.0,0.0,1.0,1.0,335.5863829999634,1.0,2.0,phase_1,,,,,,,,,,,,,gray,flipped triangle
0.0,3.0,0.0,0.0,4.0,4.0,375.2534580000883,1.0,1.0,phase_1,,,,,,,,,,,,,gray,flipped triangle
202.0,7.0,2.0,1.0,1.0,1.0,406.3486400000329,1.0,1.0,phase_1,,,,,,,,,,,,,cyan,cross
112.0,6.0,1.0,1.0,4.0,4.0,445.7196280000062,1.0,1.0,phase_1,,,,,,,,,,,,,yellow,square
423.0,8.0,4.0,1.0,1.0,1.0,387.3176949998651,1.0,1.0,phase_1,,,,,,,,,,,,,magenta,hexagon
78.0,6.0,1.0,1.0,4.0,4.0,329.8232080001071,1.0,1.0,phase_1,,,,,,,,,,,,,yellow,square
55.0,1.0,0.5,0.0,1.0,1.0,382.6230810000197,1.0,1.0,phase_1,,,,,,,,,,,,,orange,triangle
0.0,1.0,0.0,0.0,2.0,2.0,414.0972860000147,1.0,1.0,phase_1,,,,,,,,,,,,,orange,triangle
97.0,6.0,1.0,1.0,3.0,3.0,349.4130639999184,1.0,1.0,phase_1,,,,,,,,,,,,,yellow,square
78.0,2.0,1.0,0.0,1.0,1.0,340.9407179999562,1.0,1.0,phase_1,,,,,,,,,,,,,green,I
122.0,6.0,1.0,1.0,3.0,3.0,496.7331510001713,1.0,1.0,phase_1,,,,,,,,,,,,,yellow,square
0.0,4.0,0.0,0.0,4.0,4.0,533.531585999981,1.0,1.0,phase_1,,,,,,,,,,,,,white,circle
0.0,3.0,0.0,0.0,2.0,2.0,398.3281069999975,1.0,1.0,phase_1,,,,,,,,,,,,,gray,flipped triangle
123.0,6.0,1.0,1.0,3.0,3.0,460.3733539997847,1.0,1.0,phase_1,,,,,,,,,,,,,yellow,square
97.0,6.0,1.0,1.0,3.0,3.0,312.0251559998905,1.0,1.0,phase_1,,,,,,,,,,,,,yellow,square
66.0,5.0,0.5,1.0,3.0,3.0,335.5753139999251,1.0,1.0,phase_1,,,,,,,,,,,,,blue,diamond
71.0,5.0,0.5,1.0,4.0,4.0,345.9732050000639,1.0,1.0,phase_1,,,,,,,,,,,,,blue,diamond
71.0,1.0,0.5,0.0,3.0,3.0,336.5288170002714,1.0,1.0,phase_1,,,,,,,,,,,,,orange,triangle
398.0,4.0,4.0,0.0,4.0,4.0,269.7756379998282,1.0,1.0,phase_1,,,,,,,,,,,,,white,circle
30.0,1.0,0.5,0.0,2.0,2.0,317.5352009998278,1.0,1.0,phase_1,,,,,,,,,,,,,orange,triangle
66.0,1.0,0.5,0.0,4.0,4.0,286.5174529997603,1.0,1.0,phase_1,,,,,,,,,,,,,orange,triangle
56.0,1.0,0.5,0.0,2.0,2.0,476.0807760003445,1.0,1.0,phase_1,,,,,,,,,,,,,orange,triangle
79.0,2.0,1.0,0.0,3.0,3.0,368.8714429999891,1.0,1.0,phase_1,,,,,,,,,,,,,green,I
97.0,2.0,1.0,0.0,4.0,4.0,427.7838709999741,1.0,1.0,phase_1,,,,,,,,,,,,,green,I
113.0,2.0,1.0,0.0,4.0,4.0,328.157555999951,1.0,1.0,phase_1,,,,,,,,,,,,,green,I
84.0,2.0,1.0,0.0,3.0,3.0,347.0904749997316,1.0,1.0,phase_1,,,,,,,,,,,,,green,I
193.0,3.0,2.0,0.0,4.0,4.0,336.3837910001166,1.0,1.0,phase_1,,,,,,,,,,,,,gray,flipped triangle
0.0,5.0,0.0,1.0,2.0,2.0,333.3346720000918,1.0,1.0,phase_1,,,,,,,,,,,,,blue,diamond
0.0,5.0,0.0,1.0,3.0,3.0,300.5347240000446,1.0,1.0,phase_1,,,,,,,,,,,,,blue,diamond
100.0,2.0,1.0,0.0,2.0,2.0,443.4063470002911,1.0,1.0,phase_1,,,,,,,,,,,,,green,I
384.0,8.0,4.0,1.0,3.0,3.0,409.830490999866,1.0,1.0,phase_1,,,,,,,,,,,,,magenta,hexagon
398.0,8.0,4.0,1.0,3.0,3.0,323.0715539998527,1.0,1.0,phase_1,,,,,,,,,,,,,magenta,hexagon
78.0,2.0,1.0,0.0,2.0,2.0,408.5017730003528,1.0,1.0,phase_1,,,,,,,,,,,,,green,I
0.0,8.0,0.0,1.0,1.0,1.0,368.4476809999069,1.0,1.0,phase_1,,,,,,,,,,,,,magenta,hexagon
95.0,6.0,1.0,1.0,1.0,1.0,334.8578810000617,1.0,1.0,phase_1,,,,,,,,,,,,,yellow,square
420.0,8.0,4.0,1.0,2.0,2.0,413.1551919999765,1.0,1.0,phase_1,,,,,,,,,,,,,magenta,hexagon
78.0,6.0,1.0,1.0,4.0,4.0,434.2842749997544,1.0,1.0,phase_1,,,,,,,,,,,,,yellow,square
0.0,3.0,0.0,0.0,4.0,4.0,386.9246049998764,1.0,1.0,phase_1,,,,,,,,,,,,,gray,flipped triangle
0.0,7.0,0.0,1.0,4.0,4.0,369.3134439999994,1.0,1.0,phase_1,,,,,,,,,,,,,cyan,cross
102.0,6.0,1.0,1.0,4.0,4.0,434.871672999634,1.0,1.0,phase_1,,,,,,,,,,,,,yellow,square
43.0,1.0,0.5,0.0,2.0,2.0,412.6124019999224,1.0,1.0,phase_1,,,,,,,,,,,,,orange,triangle
42.0,5.0,0.5,1.0,4.0,4.0,351.5722890001598,1.0,1.0,phase_1,,,,,,,,,,,,,blue,diamond
406.0,4.0,4.0,0.0,1.0,1.0,293.9131279999856,1.0,1.0,phase_1,,,,,,,,,,,,,white,circle
65.0,5.0,0.5,1.0,1.0,1.0,374.4607339999675,1.0,1.0,phase_1,,,,,,,,,,,,,blue,diamond
221.0,7.0,2.0,1.0,2.0,2.0,390.2750160000323,1.0,1.0,phase_1,,,,,,,,,,,,,cyan,cross
0.0,2.0,0.0,0.0,3.0,3.0,383.0294920003325,1.0,1.0,phase_1,,,,,,,,,,,,,green,I
403.0,4.0,4.0,0.0,1.0,1.0,404.0838360001544,1.0,1.0,phase_1,,,,,,,,,,,,,white,circle
65.0,1.0,0.5,0.0,1.0,1.0,394.7503379999943,1.0,1.0,phase_1,,,,,,,,,,,,,orange,triangle
74.0,5.0,0.5,1.0,1.0,1.0,330.2875439999297,1.0,1.0,phase_1,,,,,,,,,,,,,blue,diamond
116.0,6.0,1.0,1.0,3.0,3.0,449.699473000237,1.0,1.0,phase_1,,,,,,,,,,,,,yellow,square
0.0,4.0,0.0,0.0,2.0,2.0,407.8854649997083,1.0,1.0,phase_1,,,,,,,,,,,,,white,circle
25.0,5.0,0.5,1.0,2.0,2.0,397.5049870000475,1.0,1.0,phase_1,,,,,,,,,,,,,blue,diamond
183.0,3.0,2.0,0.0,3.0,3.0,547.398917999999,1.0,1.0,phase_1,,,,,,,,,,,,,gray,flipped triangle
115.0,2.0,1.0,0.0,4.0,4.0,446.4154430002054,1.0,1.0,phase_1,,,,,,,,,,,,,green,I
0.0,4.0,0.0,0.0,2.0,2.0,385.4066600001715,1.0,1.0,phase_1,,,,,,,,,,,,,white,circle
98.0,2.0,1.0,0.0,3.0,3.0,412.4590920000628,1.0,1.0,phase_1,,,,,,,,,,,,,green,I
384.0,4.0,4.0,0.0,1.0,1.0,335.0822810002682,1.0,1.0,phase_1,,,,,,,,,,,,,white,circle
38.0,5.0,0.5,1.0,4.0,4.0,324.9317400000109,1.0,1.0,phase_1,,,,,,,,,,,,,blue,diamond
182.0,3.0,2.0,0.0,3.0,3.0,321.0690259998046,1.0,1.0,phase_1,,,,,,,,,,,,,gray,flipped triangle
400.0,8.0,4.0,1.0,3.0,3.0,356.4901190002274,1.0,1.0,phase_1,,,,,,,,,,,,,magenta,hexagon
204.0,7.0,2.0,1.0,4.0,4.0,502.83625300016865,1.0,1.0,phase_1,,,,,,,,,,,,,cyan,cross
0.0,5.0,0.0,1.0,4.0,4.0,356.6374619999806,1.0,1.0,phase_1,,,,,,,,,,,,,blue,diamond
384.0,4.0,4.0,0.0,2.0,2.0,439.8478590001105,1.0,1.0,phase_1,,,,,,,,,,,,,white,circle
393.0,8.0,4.0,1.0,4.0,4.0,405.0191660003293,1.0,1.0,phase_1,,,,,,,,,,,,,magenta,hexagon
123.0,2.0,1.0,0.0,4.0,4.0,423.8041899998279,1.0,1.0,phase_1,,,,,,,,,,,,,green,I
117.0,6.0,1.0,1.0,3.0,3.0,336.9194930000958,1.0,1.0,phase_1,,,,,,,,,,,,,yellow,square
403.0,8.0,4.0,1.0,4.0,4.0,393.5790969999289,1.0,1.0,phase_1,,,,,,,,,,,,,magenta,hexagon
103.0,2.0,1.0,0.0,1.0,1.0,431.340325000292,1.0,1.0,phase_1,,,,,,,,,,,,,green,I
212.0,7.0,2.0,1.0,2.0,2.0,391.2916010003755,2.0,1.0,phase_1,,,,,,,,,,,,,cyan,cross
0.0,3.0,0.0,0.0,1.0,1.0,419.4688749998931,2.0,1.0,phase_1,,,,,,,,,,,,,gray,flipped triangle
409.0,4.0,4.0,0.0,4.0,4.0,327.2739419999197,2.0,1.0,phase_1,,,,,,,,,,,,,white,circle
388.0,4.0,4.0,0.0,4.0,4.0,397.9107700001805,2.0,1.0,phase_1,,,,,,,,,,,,,white,circle
378.0,8.0,4.0,1.0,4.0,4.0,454.7530590002679,2.0,1.0,phase_1,,,,,,,,,,,,,magenta,hexagon
122.0,2.0,1.0,0.0,3.0,3.0,365.1335050003581,2.0,1.0,phase_1,,,,,,,,,,,,,green,I
190.0,7.0,2.0,1.0,1.0,1.0,350.2731150001636,2.0,1.0,phase_1,,,,,,,,,,,,,cyan,cross
0.0,6.0,0.0,1.0,3.0,3.0,433.0808320000869,2.0,1.0,phase_1,,,,,,,,,,,,,yellow,square
384.0,8.0,4.0,1.0,2.0,2.0,478.8915210001505,2.0,1.0,phase_1,,,,,,,,,,,,,magenta,hexagon
0.0,2.0,0.0,0.0,4.0,4.0,319.7669199998927,2.0,1.0,phase_1,,,,,,,,,,,,,green,I
420.0,4.0,4.0,0.0,3.0,3.0,456.5864979999787,2.0,1.0,phase_1,,,,,,,,,,,,,white,circle
0.0,2.0,0.0,0.0,3.0,3.0,427.3807800000213,2.0,1.0,phase_1,,,,,,,,,,,,,green,I
41.0,5.0,0.5,1.0,3.0,3.0,389.9069029998827,2.0,1.0,phase_1,,,,,,,,,,,,,blue,diamond
406.0,4.0,4.0,0.0,1.0,1.0,360.839930000111,2.0,1.0,phase_1,,,,,,,,,,,,,white,circle
0.0,6.0,0.0,1.0,4.0,4.0,290.5477769995741,2.0,1.0,phase_1,,,,,,,,,,,,,yellow,square
49.0,1.0,0.5,0.0,3.0,3.0,341.4479090001805,2.0,1.0,phase_1,,,,,,,,,,,,,orange,triangle
388.0,8.0,4.0,1.0,3.0,3.0,330.3617960000338,2.0,1.0,phase_1,,,,,,,,,,,,,magenta,hexagon
0.0,4.0,0.0,0.0,3.0,3.0,405.2822939997895,2.0,1.0,phase_1,,,,,,,,,,,,,white,circle
0.0,5.0,0.0,1.0,1.0,1.0,347.445382999922,2.0,1.0,phase_1,,,,,,,,,,,,,blue,diamond
0.0,6.0,0.0,1.0,3.0,3.0,358.5942569998224,2.0,1.0,phase_1,,,,,,,,,,,,,yellow,square
103.0,6.0,1.0,1.0,4.0,4.0,430.4574150000917,2.0,1.0,phase_1,,,,,,,,,,,,,yellow,square
86.0,2.0,1.0,0.0,2.0,2.0,323.584856999787,2.0,1.0,phase_1,,,,,,,,,,,,,green,I
105.0,6.0,1.0,1.0,4.0,4.0,348.33425800025,2.0,1.0,phase_1,,,,,,,,,,,,,yellow,square
118.0,2.0,1.0,0.0,4.0,4.0,343.0856939999103,2.0,1.0,phase_1,,,,,,,,,,,,,green,I
91.0,2.0,1.0,0.0,3.0,3.0,370.8540439997705,2.0,1.0,phase_1,,,,,,,,,,,,,green,I
210.0,3.0,2.0,0.0,3.0,3.0,374.7968610000498,2.0,1.0,phase_1,,,,,,,,,,,,,gray,flipped triangle
0.0,8.0,0.0,1.0,4.0,4.0,341.6647799999737,2.0,1.0,phase_1,,,,,,,,,,,,,magenta,hexagon
404.0,4.0,4.0,0.0,4.0,4.0,429.7379159997945,2.0,1.0,phase_1,,,,,,,,,,,,,white,circle
395.0,4.0,4.0,0.0,1.0,1.0,463.3329630000844,2.0,1.0,phase_1,,,,,,,,,,,,,white,circle
0.0,1.0,0.0,0.0,1.0,1.0,425.3529850002451,2.0,1.0,phase_1,,,,,,,,,,,,,orange,triangle
404.0,8.0,4.0,1.0,1.0,1.0,398.9329569999427,2.0,1.0,phase_1,,,,,,,,,,,,,magenta,hexagon
0.0,8.0,0.0,1.0,1.0,1.0,362.86033100032,2.0,1.0,phase_1,,,,,,,,,,,,,magenta,hexagon
33.0,5.0,0.5,1.0,2.0,2.0,413.0832089999785,2.0,1.0,phase_1,,,,,,,,,,,,,blue,diamond
0.0,6.0,0.0,1.0,2.0,2.0,378.6867870003334,2.0,1.0,phase_1,,,,,,,,,,,,,yellow,square
54.0,1.0,0.5,0.0,2.0,2.0,357.6595850004196,2.0,1.0,phase_1,,,,,,,,,,,,,orange,triangle
0.0,2.0,0.0,0.0,4.0,4.0,416.1682610001662,2.0,1.0,phase_1,,,,,,,,,,,,,green,I
391.0,4.0,4.0,0.0,2.0,2.0,414.94104100002,2.0,1.0,phase_1,,,,,,,,,,,,,white,circle
42.0,5.0,0.5,1.0,1.0,1.0,471.0072309999304,2.0,1.0,phase_1,,,,,,,,,,,,,blue,diamond
96.0,2.0,1.0,0.0,4.0,4.0,562.4325039998439,2.0,1.0,phase_1,,,,,,,,,,,,,green,I
103.0,6.0,1.0,1.0,2.0,2.0,421.0329110001112,2.0,1.0,phase_1,,,,,,,,,,,,,yellow,square
199.0,7.0,2.0,1.0,1.0,1.0,346.44235199994,2.0,1.0,phase_1,,,,,,,,,,,,,cyan,cross
76.0,2.0,1.0,0.0,1.0,1.0,407.5965709998854,2.0,1.0,phase_1,,,,,,,,,,,,,green,I
384.0,4.0,4.0,0.0,1.0,1.0,434.7855760001948,2.0,1.0,phase_1,,,,,,,,,,,,,white,circle
202.0,3.0,2.0,0.0,1.0,1.0,327.9710870001509,2.0,1.0,phase_1,,,,,,,,,,,,,gray,flipped triangle
68.0,1.0,0.5,0.0,4.0,4.0,438.6520810003276,2.0,1.0,phase_1,,,,,,,,,,,,,orange,triangle
210.0,3.0,2.0,0.0,2.0,2.0,324.5199090001733,2.0,1.0,phase_1,,,,,,,,,,,,,gray,flipped triangle
215.0,7.0,2.0,1.0,2.0,2.0,366.3179690001925,2.0,1.0,phase_1,,,,,,,,,,,,,cyan,cross
34.0,5.0,0.5,1.0,3.0,3.0,414.696296999864,2.0,1.0,phase_1,,,,,,,,,,,,,blue,diamond
85.0,6.0,1.0,1.0,1.0,1.0,372.1603260000847,2.0,1.0,phase_1,,,,,,,,,,,,,yellow,square
210.0,7.0,2.0,1.0,4.0,4.0,432.4528300003294,2.0,1.0,phase_1,,,,,,,,,,,,,cyan,cross
80.0,6.0,1.0,1.0,4.0,4.0,382.7480710001509,2.0,1.0,phase_1,,,,,,,,,,,,,yellow,square
409.0,4.0,4.0,0.0,1.0,1.0,399.7047520001615,2.0,1.0,phase_1,,,,,,,,,,,,,white,circle
193.0,7.0,2.0,1.0,3.0,3.0,376.7094569998335,2.0,1.0,phase_1,,,,,,,,,,,,,cyan,cross
62.0,5.0,0.5,1.0,4.0,4.0,399.0390089998072,2.0,1.0,phase_1,,,,,,,,,,,,,blue,diamond
103.0,2.0,1.0,0.0,1.0,1.0,431.5195289996154,2.0,1.0,phase_1,,,,,,,,,,,,,green,I
180.0,7.0,2.0,1.0,3.0,3.0,311.8406749999849,2.0,1.0,phase_1,,,,,,,,,,,,,cyan,cross
94.0,6.0,1.0,1.0,4.0,4.0,374.6029890003228,2.0,1.0,phase_1,,,,,,,,,,,,,yellow,square
84.0,6.0,1.0,1.0,3.0,3.0,306.5283810001347,2.0,1.0,phase_1,,,,,,,,,,,,,yellow,square
0.0,1.0,0.0,0.0,4.0,4.0,293.7966750000669,2.0,1.0,phase_1,,,,,,,,,,,,,orange,triangle
0.0,5.0,0.0,1.0,2.0,2.0,327.8475160000198,2.0,1.0,phase_1,,,,,,,,,,,,,blue,diamond
389.0,4.0,4.0,0.0,2.0,2.0,444.4246899997779,2.0,1.0,phase_1,,,,,,,,,,,,,white,circle
73.0,5.0,0.5,1.0,2.0,2.0,451.0380290003013,2.0,1.0,phase_1,,,,,,,,,,,,,blue,diamond
118.0,6.0,1.0,1.0,1.0,1.0,414.5836120001149,2.0,1.0,phase_1,,,,,,,,,,,,,yellow,square
0.0,1.0,0.0,0.0,3.0,3.0,456.3504570000987,2.0,1.0,phase_1,,,,,,,,,,,,,orange,triangle
178.0,3.0,2.0,0.0,2.0,2.0,416.7200179999781,2.0,1.0,phase_1,,,,,,,,,,,,,gray,flipped triangle
220.0,3.0,2.0,0.0,2.0,2.0,356.2376479999329,2.0,1.0,phase_1,,,,,,,,,,,,,gray,flipped triangle
0.0,7.0,0.0,1.0,1.0,1.0,470.8180980001089,2.0,1.0,phase_1,,,,,,,,,,,,,cyan,cross
70.0,1.0,0.5,0.0,3.0,3.0,370.4928249999284,2.0,1.0,phase_1,,,,,,,,,,,,,orange,triangle
91.0,6.0,1.0,1.0,3.0,3.0,347.5559320004322,2.0,1.0,phase_1,,,,,,,,,,,,,yellow,square
45.0,1.0,0.5,0.0,3.0,3.0,401.709455999935,2.0,1.0,phase_1,,,,,,,,,,,,,orange,triangle
123.0,2.0,1.0,0.0,2.0,2.0,320.6888210002034,2.0,1.0,phase_1,,,,,,,,,,,,,green,I
72.0,5.0,0.5,1.0,4.0,4.0,362.3854450002,2.0,1.0,phase_1,,,,,,,,,,,,,blue,diamond
188.0,7.0,2.0,1.0,3.0,3.0,502.34264300024734,2.0,1.0,phase_1,,,,,,,,,,,,,cyan,cross
402.0,4.0,4.0,0.0,3.0,3.0,382.4059700000362,2.0,1.0,phase_1,,,,,,,,,,,,,white,circle
95.0,2.0,1.0,0.0,2.0,2.0,348.9757669999562,2.0,1.0,phase_1,,,,,,,,,,,,,green,I
416.0,4.0,4.0,0.0,2.0,2.0,376.5917659998194,2.0,1.0,phase_1,,,,,,,,,,,,,white,circle
403.0,4.0,4.0,0.0,4.0,4.0,424.855813999784,2.0,1.0,phase_1,,,,,,,,,,,,,white,circle
0.0,1.0,0.0,0.0,2.0,2.0,429.2652819999603,2.0,1.0,phase_1,,,,,,,,,,,,,orange,triangle
206.0,3.0,2.0,0.0,3.0,3.0,445.9881259999747,2.0,1.0,phase_1,,,,,,,,,,,,,gray,flipped triangle
180.0,3.0,2.0,0.0,4.0,4.0,443.0850529997769,2.0,1.0,phase_1,,,,,,,,,,,,,gray,flipped triangle
179.0,7.0,2.0,1.0,3.0,3.0,328.9336560001175,2.0,1.0,phase_1,,,,,,,,,,,,,cyan,cross
393.0,4.0,4.0,0.0,1.0,1.0,478.9481640000304,2.0,1.0,phase_1,,,,,,,,,,,,,white,circle
183.0,7.0,2.0,1.0,2.0,2.0,416.6920019997633,2.0,1.0,phase_1,,,,,,,,,,,,,cyan,cross
182.0,7.0,2.0,1.0,2.0,2.0,418.34733900032,2.0,1.0,phase_1,,,,,,,,,,,,,cyan,cross
378.0,4.0,4.0,0.0,3.0,3.0,317.6010959996347,2.0,1.0,phase_1,,,,,,,,,,,,,white,circle
28.0,5.0,0.5,1.0,1.0,1.0,371.5709799998876,2.0,1.0,phase_1,,,,,,,,,,,,,blue,diamond
393.0,4.0,4.0,0.0,2.0,2.0,314.2050659998858,2.0,1.0,phase_1,,,,,,,,,,,,,white,circle
0.0,6.0,0.0,1.0,4.0,4.0,355.8585929999935,2.0,1.0,phase_1,,,,,,,,,,,,,yellow,square
63.0,5.0,0.5,1.0,1.0,1.0,374.5127290003438,2.0,1.0,phase_1,,,,,,,,,,,,,blue,diamond
179.0,3.0,2.0,0.0,4.0,4.0,425.6714620000821,2.0,1.0,phase_1,,,,,,,,,,,,,gray,flipped triangle
39.0,5.0,0.5,1.0,4.0,4.0,417.1025189998545,2.0,1.0,phase_1,,,,,,,,,,,,,blue,diamond
0.0,8.0,0.0,1.0,2.0,2.0,353.64619999973,2.0,1.0,phase_1,,,,,,,,,,,,,magenta,hexagon
42.0,1.0,0.5,0.0,1.0,1.0,372.2938010000689,2.0,1.0,phase_1,,,,,,,,,,,,,orange,triangle
105.0,2.0,1.0,0.0,1.0,1.0,402.3525909997261,2.0,1.0,phase_1,,,,,,,,,,,,,green,I
61.0,1.0,0.5,0.0,2.0,2.0,362.9455710001821,2.0,1.0,phase_1,,,,,,,,,,,,,orange,triangle
387.0,8.0,4.0,1.0,4.0,4.0,410.2629110002453,2.0,1.0,phase_1,,,,,,,,,,,,,magenta,hexagon
71.0,1.0,0.5,0.0,3.0,3.0,356.6233169999577,2.0,1.0,phase_1,,,,,,,,,,,,,orange,triangle
412.0,4.0,4.0,0.0,4.0,4.0,418.8942769997084,2.0,1.0,phase_1,,,,,,,,,,,,,white,circle
41.0,1.0,0.5,0.0,3.0,3.0,344.5254279999972,2.0,1.0,phase_1,,,,,,,,,,,,,orange,triangle
0.0,1.0,0.0,0.0,3.0,3.0,371.9288219999725,2.0,1.0,phase_1,,,,,,,,,,,,,orange,triangle
419.0,8.0,4.0,1.0,4.0,4.0,380.644367000059,3.0,1.0,phase_1,,,,,,,,,,,,,magenta,hexagon
45.0,5.0,0.5,1.0,4.0,4.0,463.3092690000921,3.0,1.0,phase_1,,,,,,,,,,,,,blue,diamond
423.0,8.0,4.0,1.0,2.0,2.0,299.7503649999089,3.0,1.0,phase_1,,,,,,,,,,,,,magenta,hexagon
181.0,3.0,2.0,0.0,1.0,1.0,371.6886980000708,3.0,1.0,phase_1,,,,,,,,,,,,,gray,flipped triangle
54.0,5.0,0.5,1.0,3.0,3.0,286.3378309998552,3.0,1.0,phase_1,,,,,,,,,,,,,blue,diamond
0.0,7.0,0.0,1.0,4.0,4.0,364.5905160001348,3.0,1.0,phase_1,,,,,,,,,,,,,cyan,cross
70.0,5.0,0.5,1.0,1.0,1.0,367.5925800002915,3.0,1.0,phase_1,,,,,,,,,,,,,blue,diamond
60.0,1.0,0.5,0.0,4.0,4.0,458.9417249999314,3.0,1.0,phase_1,,,,,,,,,,,,,orange,triangle
214.0,3.0,2.0,0.0,4.0,4.0,479.0010149999943,3.0,1.0,phase_1,,,,,,,,,,,,,gray,flipped triangle
418.0,4.0,4.0,0.0,3.0,3.0,421.5579869996873,3.0,1.0,phase_1,,,,,,,,,,,,,white,circle
115.0,6.0,1.0,1.0,3.0,3.0,330.1095809997605,3.0,1.0,phase_1,,,,,,,,,,,,,yellow,square
387.0,4.0,4.0,0.0,3.0,3.0,332.3342930002582,3.0,1.0,phase_1,,,,,,,,,,,,,white,circle
384.0,8.0,4.0,1.0,1.0,1.0,374.0636689999519,3.0,1.0,phase_1,,,,,,,,,,,,,magenta,hexagon
113.0,6.0,1.0,1.0,1.0,1.0,373.733927000103,3.0,2.0,phase_1,,,,,,,,,,,,,yellow,square
417.0,8.0,4.0,1.0,4.0,4.0,533.8312789999691,3.0,1.0,phase_1,,,,,,,,,,,,,magenta,hexagon
215.0,7.0,2.0,1.0,1.0,1.0,391.6577529998903,3.0,1.0,phase_1,,,,,,,,,,,,,cyan,cross
409.0,8.0,4.0,1.0,2.0,2.0,346.8581800002539,3.0,1.0,phase_1,,,,,,,,,,,,,magenta,hexagon
0.0,8.0,0.0,1.0,2.0,2.0,325.1180129996101,3.0,1.0,phase_1,,,,,,,,,,,,,magenta,hexagon
98.0,6.0,1.0,1.0,2.0,2.0,423.3091609999064,3.0,1.0,phase_1,,,,,,,,,,,,,yellow,square
0.0,7.0,0.0,1.0,1.0,1.0,430.9633220000251,3.0,1.0,phase_1,,,,,,,,,,,,,cyan,cross
0.0,7.0,0.0,1.0,1.0,1.0,405.5069979999643,3.0,1.0,phase_1,,,,,,,,,,,,,cyan,cross
0.0,3.0,0.0,0.0,1.0,1.0,396.1493450001399,3.0,1.0,phase_1,,,,,,,,,,,,,gray,flipped triangle
396.0,8.0,4.0,1.0,2.0,2.0,337.313783999889,3.0,1.0,phase_1,,,,,,,,,,,,,magenta,hexagon
79.0,6.0,1.0,1.0,2.0,2.0,350.3127230001155,3.0,1.0,phase_1,,,,,,,,,,,,,yellow,square
34.0,1.0,0.5,0.0,4.0,4.0,654.7885829995721,3.0,1.0,phase_1,,,,,,,,,,,,,orange,triangle
104.0,2.0,1.0,0.0,3.0,3.0,385.8423209999273,3.0,1.0,phase_1,,,,,,,,,,,,,green,I
94.0,2.0,1.0,0.0,4.0,4.0,422.5288510001519,3.0,1.0,phase_1,,,,,,,,,,,,,green,I
0.0,7.0,0.0,1.0,3.0,3.0,452.247153999906,3.0,1.0,phase_1,,,,,,,,,,,,,cyan,cross
383.0,8.0,4.0,1.0,1.0,1.0,382.8374630002145,3.0,1.0,phase_1,,,,,,,,,,,,,magenta,hexagon
0.0,3.0,0.0,0.0,3.0,3.0,433.7012659998436,3.0,1.0,phase_1,,,,,,,,,,,,,gray,flipped triangle
406.0,8.0,4.0,1.0,3.0,3.0,496.0430989999622,3.0,1.0,phase_1,,,,,,,,,,,,,magenta,hexagon
30.0,5.0,0.5,1.0,3.0,3.0,367.1514310003658,3.0,1.0,phase_1,,,,,,,,,,,,,blue,diamond
186.0,3.0,2.0,0.0,3.0,3.0,373.4505339998577,3.0,1.0,phase_1,,,,,,,,,,,,,gray,flipped triangle
104.0,6.0,1.0,1.0,2.0,2.0,501.0613179997563,3.0,1.0,phase_1,,,,,,,,,,,,,yellow,square
48.0,5.0,0.5,1.0,4.0,4.0,452.2820330003014,3.0,1.0,phase_1,,,,,,,,,,,,,blue,diamond
385.0,8.0,4.0,1.0,4.0,4.0,446.5173179996782,3.0,1.0,phase_1,,,,,,,,,,,,,magenta,hexagon
0.0,7.0,0.0,1.0,1.0,1.0,480.5721650000123,3.0,1.0,phase_1,,,,,,,,,,,,,cyan,cross
416.0,8.0,4.0,1.0,3.0,3.0,402.0400849999532,3.0,1.0,phase_1,,,,,,,,,,,,,magenta,hexagon
0.0,5.0,0.0,1.0,2.0,2.0,435.1810650000516,3.0,1.0,phase_1,,,,,,,,,,,,,blue,diamond
384.0,4.0,4.0,0.0,4.0,4.0,447.2163830000681,3.0,1.0,phase_1,,,,,,,,,,,,,white,circle
62.0,1.0,0.5,0.0,1.0,1.0,456.3243409997994,3.0,1.0,phase_1,,,,,,,,,,,,,orange,triangle
207.0,7.0,2.0,1.0,4.0,4.0,493.1061019997287,3.0,1.0,phase_1,,,,,,,,,,,,,cyan,cross
39.0,1.0,0.5,0.0,4.0,4.0,538.8929760001702,3.0,1.0,phase_1,,,,,,,,,,,,,orange,triangle
0.0,3.0,0.0,0.0,4.0,4.0,464.0125349997106,3.0,1.0,phase_1,,,,,,,,,,,,,gray,flipped triangle
188.0,3.0,2.0,0.0,2.0,2.0,422.0914729999094,3.0,1.0,phase_1,,,,,,,,,,,,,gray,flipped triangle
0.0,7.0,0.0,1.0,4.0,4.0,406.1062139999194,3.0,1.0,phase_1,,,,,,,,,,,,,cyan,cross
41.0,1.0,0.5,0.0,4.0,4.0,438.6844539999401,3.0,1.0,phase_1,,,,,,,,,,,,,orange,triangle
0.0,8.0,0.0,1.0,2.0,2.0,386.2920490000761,3.0,1.0,phase_1,,,,,,,,,,,,,magenta,hexagon
89.0,6.0,1.0,1.0,4.0,4.0,344.5379859999775,3.0,1.0,phase_1,,,,,,,,,,,,,yellow,square
207.0,7.0,2.0,1.0,2.0,2.0,378.6130200001025,3.0,1.0,phase_1,,,,,,,,,,,,,cyan,cross
188.0,7.0,2.0,1.0,1.0,1.0,495.5910170001516,3.0,1.0,phase_1,,,,,,,,,,,,,cyan,cross
0.0,7.0,0.0,1.0,2.0,2.0,410.6429809999099,3.0,1.0,phase_1,,,,,,,,,,,,,cyan,cross
49.0,5.0,0.5,1.0,3.0,3.0,434.5665480000207,3.0,1.0,phase_1,,,,,,,,,,,,,blue,diamond
212.0,3.0,2.0,0.0,2.0,2.0,433.4664689999954,3.0,1.0,phase_1,,,,,,,,,,,,,gray,flipped triangle
0.0,6.0,0.0,1.0,2.0,2.0,350.8360989999346,3.0,1.0,phase_1,,,,,,,,,,,,,yellow,square
400.0,4.0,4.0,0.0,2.0,2.0,432.0229370000561,3.0,1.0,phase_1,,,,,,,,,,,,,white,circle
89.0,6.0,1.0,1.0,2.0,2.0,400.1218529997459,3.0,1.0,phase_1,,,,,,,,,,,,,yellow,square
221.0,3.0,2.0,0.0,3.0,3.0,392.6316170000063,3.0,1.0,phase_1,,,,,,,,,,,,,gray,flipped triangle
0.0,6.0,0.0,1.0,3.0,3.0,401.1325930000566,3.0,1.0,phase_1,,,,,,,,,,,,,yellow,square
391.0,8.0,4.0,1.0,3.0,3.0,319.8192240001845,3.0,1.0,phase_1,,,,,,,,,,,,,magenta,hexagon
183.0,3.0,2.0,0.0,2.0,2.0,383.3078020002176,3.0,1.0,phase_1,,,,,,,,,,,,,gray,flipped triangle
0.0,2.0,0.0,0.0,1.0,1.0,347.0500479998009,3.0,1.0,phase_1,,,,,,,,,,,,,green,I
406.0,8.0,4.0,1.0,2.0,2.0,388.7515399997028,3.0,1.0,phase_1,,,,,,,,,,,,,magenta,hexagon
0.0,3.0,0.0,0.0,1.0,1.0,421.4313849997779,3.0,1.0,phase_1,,,,,,,,,,,,,gray,flipped triangle
211.0,7.0,2.0,1.0,1.0,1.0,363.8482569999723,3.0,1.0,phase_1,,,,,,,,,,,,,cyan,cross
29.0,5.0,0.5,1.0,2.0,2.0,359.5457399997031,3.0,1.0,phase_1,,,,,,,,,,,,,blue,diamond
43.0,5.0,0.5,1.0,4.0,4.0,528.9580349999596,3.0,1.0,phase_1,,,,,,,,,,,,,blue,diamond
26.0,1.0,0.5,0.0,1.0,1.0,439.8981089998415,3.0,1.0,phase_1,,,,,,,,,,,,,orange,triangle
425.0,8.0,4.0,1.0,1.0,1.0,449.5687810003801,3.0,1.0,phase_1,,,,,,,,,,,,,magenta,hexagon
220.0,7.0,2.0,1.0,4.0,4.0,475.3770540000914,3.0,1.0,phase_1,,,,,,,,,,,,,cyan,cross
100.0,6.0,1.0,1.0,1.0,1.0,373.5105649998331,3.0,1.0,phase_1,,,,,,,,,,,,,yellow,square
112.0,2.0,1.0,0.0,3.0,3.0,559.7225110000181,3.0,1.0,phase_1,,,,,,,,,,,,,green,I
417.0,4.0,4.0,0.0,2.0,2.0,443.7930760000199,3.0,1.0,phase_1,,,,,,,,,,,,,white,circle
215.0,3.0,2.0,0.0,1.0,1.0,530.147855999985,3.0,1.0,phase_1,,,,,,,,,,,,,gray,flipped triangle
215.0,3.0,2.0,0.0,4.0,4.0,642.3339230000238,3.0,1.0,phase_1,,,,,,,,,,,,,gray,flipped triangle
77.0,6.0,1.0,1.0,2.0,2.0,374.4262919999528,3.0,1.0,phase_1,,,,,,,,,,,,,yellow,square
113.0,6.0,1.0,1.0,2.0,2.0,387.1463000000403,3.0,1.0,phase_1,,,,,,,,,,,,,yellow,square
55.0,5.0,0.5,1.0,2.0,2.0,413.11771699975,3.0,1.0,phase_1,,,,,,,,,,,,,blue,diamond
68.0,5.0,0.5,1.0,3.0,3.0,383.1872340001609,3.0,1.0,phase_1,,,,,,,,,,,,,blue,diamond
419.0,4.0,4.0,0.0,2.0,2.0,302.8201140000419,3.0,1.0,phase_1,,,,,,,,,,,,,white,circle
383.0,4.0,4.0,0.0,4.0,4.0,559.4614759997967,3.0,1.0,phase_1,,,,,,,,,,,,,white,circle
0.0,7.0,0.0,1.0,1.0,1.0,553.1340330003331,3.0,1.0,phase_1,,,,,,,,,,,,,cyan,cross
29.0,1.0,0.5,0.0,1.0,1.0,448.6453140002595,3.0,1.0,phase_1,,,,,,,,,,,,,orange,triangle
108.0,2.0,1.0,0.0,4.0,4.0,512.3494250001386,3.0,1.0,phase_1,,,,,,,,,,,,,green,I
84.0,6.0,1.0,1.0,3.0,3.0,305.1354270000956,3.0,1.0,phase_1,,,,,,,,,,,,,yellow,square
181.0,7.0,2.0,1.0,1.0,1.0,437.2443019997263,3.0,1.0,phase_1,,,,,,,,,,,,,cyan,cross
219.0,3.0,2.0,0.0,4.0,4.0,513.6166570000569,3.0,1.0,phase_1,,,,,,,,,,,,,gray,flipped triangle
403.0,8.0,4.0,1.0,2.0,2.0,386.0449980002158,3.0,1.0,phase_1,,,,,,,,,,,,,magenta,hexagon
0.0,2.0,0.0,0.0,4.0,4.0,524.8525750002955,3.0,1.0,phase_1,,,,,,,,,,,,,green,I
391.0,8.0,4.0,1.0,1.0,1.0,381.0012360004293,3.0,1.0,phase_1,,,,,,,,,,,,,magenta,hexagon
192.0,3.0,2.0,0.0,3.0,3.0,517.0461840002645,3.0,1.0,phase_1,,,,,,,,,,,,,gray,flipped triangle
0.0,3.0,0.0,0.0,4.0,4.0,375.8304749999297,3.0,1.0,phase_1,,,,,,,,,,,,,gray,flipped triangle
61.0,5.0,0.5,1.0,2.0,2.0,328.3867439999994,3.0,1.0,phase_1,,,,,,,,,,,,,blue,diamond
196.0,3.0,2.0,0.0,3.0,3.0,475.8873380001205,3.0,1.0,phase_1,,,,,,,,,,,,,gray,flipped triangle
74.0,1.0,0.5,0.0,2.0,2.0,401.2710810002318,3.0,1.0,phase_1,,,,,,,,,,,,,orange,triangle
89.0,2.0,1.0,0.0,1.0,1.0,442.8226149998409,3.0,1.0,phase_1,,,,,,,,,,,,,green,I
384.0,8.0,4.0,1.0,2.0,2.0,391.9581350000953,3.0,1.0,phase_1,,,,,,,,,,,,,magenta,hexagon
28.0,5.0,0.5,1.0,3.0,3.0,330.2917920000254,3.0,1.0,phase_1,,,,,,,,,,,,,blue,diamond
116.0,2.0,1.0,0.0,4.0,4.0,633.5280280000006,3.0,1.0,phase_1,,,,,,,,,,,,,green,I
85.0,2.0,1.0,0.0,1.0,1.0,404.0228850003586,3.0,1.0,phase_1,,,,,,,,,,,,,green,I
419.0,4.0,4.0,0.0,2.0,2.0,518.6963729997842,4.0,1.0,phase_1,,,,,,,,,,,,,white,circle
96.0,6.0,1.0,1.0,1.0,1.0,457.4513689999548,4.0,1.0,phase_1,,,,,,,,,,,,,yellow,square
51.0,5.0,0.5,1.0,3.0,3.0,416.6432480001276,4.0,1.0,phase_1,,,,,,,,,,,,,blue,diamond
42.0,1.0,0.5,0.0,4.0,4.0,650.3393590000996,4.0,1.0,phase_1,,,,,,,,,,,,,orange,triangle
214.0,7.0,2.0,1.0,4.0,4.0,489.2836600001828,4.0,1.0,phase_1,,,,,,,,,,,,,cyan,cross
202.0,3.0,2.0,0.0,4.0,4.0,433.7866269997903,4.0,1.0,phase_1,,,,,,,,,,,,,gray,flipped triangle
48.0,1.0,0.5,0.0,4.0,4.0,449.607682000078,4.0,1.0,phase_1,,,,,,,,,,,,,orange,triangle
192.0,7.0,2.0,1.0,3.0,3.0,546.3357479998194,4.0,1.0,phase_1,,,,,,,,,,,,,cyan,cross
71.0,5.0,0.5,1.0,1.0,1.0,408.5079790002055,4.0,1.0,phase_1,,,,,,,,,,,,,blue,diamond
393.0,8.0,4.0,1.0,1.0,1.0,487.6291499999752,4.0,1.0,phase_1,,,,,,,,,,,,,magenta,hexagon
412.0,8.0,4.0,1.0,4.0,4.0,516.5712960001656,4.0,1.0,phase_1,,,,,,,,,,,,,magenta,hexagon
52.0,1.0,0.5,0.0,3.0,3.0,440.2964619998784,4.0,1.0,phase_1,,,,,,,,,,,,,orange,triangle
0.0,2.0,0.0,0.0,3.0,3.0,408.4752200001276,4.0,1.0,phase_1,,,,,,,,,,,,,green,I
224.0,3.0,2.0,0.0,2.0,2.0,505.96584599998096,4.0,1.0,phase_1,,,,,,,,,,,,,gray,flipped triangle
63.0,1.0,0.5,0.0,4.0,4.0,441.4674019999438,4.0,1.0,phase_1,,,,,,,,,,,,,orange,triangle
77.0,2.0,1.0,0.0,2.0,2.0,510.3994889996102,4.0,1.0,phase_1,,,,,,,,,,,,,green,I
0.0,4.0,0.0,0.0,1.0,1.0,445.1355729997885,4.0,1.0,phase_1,,,,,,,,,,,,,white,circle
38.0,1.0,0.5,0.0,2.0,2.0,458.818016999885,4.0,1.0,phase_1,,,,,,,,,,,,,orange,triangle
0.0,8.0,0.0,1.0,4.0,4.0,464.3009569999776,4.0,1.0,phase_1,,,,,,,,,,,,,magenta,hexagon
215.0,7.0,2.0,1.0,3.0,3.0,408.1111279997458,4.0,1.0,phase_1,,,,,,,,,,,,,cyan,cross
108.0,6.0,1.0,1.0,1.0,1.0,438.7813319999623,4.0,1.0,phase_1,,,,,,,,,,,,,yellow,square
189.0,7.0,2.0,1.0,3.0,3.0,395.0857400000132,4.0,1.0,phase_1,,,,,,,,,,,,,cyan,cross
395.0,4.0,4.0,0.0,4.0,4.0,353.8270779999948,4.0,1.0,phase_1,,,,,,,,,,,,,white,circle
189.0,3.0,2.0,0.0,1.0,1.0,421.3350589998299,4.0,1.0,phase_1,,,,,,,,,,,,,gray,flipped triangle
423.0,4.0,4.0,0.0,3.0,3.0,476.1553189996448,4.0,1.0,phase_1,,,,,,,,,,,,,white,circle
117.0,2.0,1.0,0.0,3.0,3.0,594.333794999784,4.0,1.0,phase_1,,,,,,,,,,,,,green,I
69.0,5.0,0.5,1.0,4.0,4.0,387.0845350002128,4.0,1.0,phase_1,,,,,,,,,,,,,blue,diamond
378.0,4.0,4.0,0.0,3.0,3.0,400.5750420001277,4.0,1.0,phase_1,,,,,,,,,,,,,white,circle
0.0,3.0,0.0,0.0,2.0,2.0,452.0951819999936,4.0,1.0,phase_1,,,,,,,,,,,,,gray,flipped triangle
204.0,3.0,2.0,0.0,1.0,1.0,399.1099769996253,4.0,1.0,phase_1,,,,,,,,,,,,,gray,flipped triangle
196.0,7.0,2.0,1.0,1.0,1.0,469.7785049997947,4.0,1.0,phase_1,,,,,,,,,,,,,cyan,cross
208.0,3.0,2.0,0.0,1.0,1.0,569.1437489999771,4.0,1.0,phase_1,,,,,,,,,,,,,gray,flipped triangle
378.0,8.0,4.0,1.0,2.0,2.0,412.702327000261,4.0,1.0,phase_1,,,,,,,,,,,,,magenta,hexagon
384.0,4.0,4.0,0.0,1.0,1.0,578.5916709996854,4.0,1.0,phase_1,,,,,,,,,,,,,white,circle
84.0,2.0,1.0,0.0,1.0,1.0,428.4846810000999,4.0,1.0,phase_1,,,,,,,,,,,,,green,I
188.0,3.0,2.0,0.0,2.0,2.0,495.3922790000433,4.0,1.0,phase_1,,,,,,,,,,,,,gray,flipped triangle
0.0,4.0,0.0,0.0,2.0,2.0,389.3704440001784,4.0,1.0,phase_1,,,,,,,,,,,,,white,circle
97.0,2.0,1.0,0.0,4.0,4.0,447.7016680002634,4.0,1.0,phase_1,,,,,,,,,,,,,green,I
211.0,3.0,2.0,0.0,1.0,1.0,431.9390259997817,4.0,1.0,phase_1,,,,,,,,,,,,,gray,flipped triangle
194.0,3.0,2.0,0.0,1.0,1.0,409.3111239999416,4.0,1.0,phase_1,,,,,,,,,,,,,gray,flipped triangle
101.0,2.0,1.0,0.0,2.0,2.0,393.7032199996793,4.0,1.0,phase_1,,,,,,,,,,,,,green,I
194.0,7.0,2.0,1.0,3.0,3.0,430.0020550003864,4.0,1.0,phase_1,,,,,,,,,,,,,cyan,cross
197.0,7.0,2.0,1.0,2.0,2.0,467.7137480002784,4.0,1.0,phase_1,,,,,,,,,,,,,cyan,cross
185.0,3.0,2.0,0.0,3.0,3.0,505.1055950002592,4.0,1.0,phase_1,,,,,,,,,,,,,gray,flipped triangle
86.0,6.0,1.0,1.0,1.0,1.0,449.5768389997465,4.0,1.0,phase_1,,,,,,,,,,,,,yellow,square
0.0,4.0,0.0,0.0,3.0,3.0,594.6121120000498,4.0,1.0,phase_1,,,,,,,,,,,,,white,circle
0.0,8.0,0.0,1.0,1.0,1.0,518.034876999991,4.0,1.0,phase_1,,,,,,,,,,,,,magenta,hexagon
0.0,1.0,0.0,0.0,3.0,3.0,534.9500259999331,4.0,1.0,phase_1,,,,,,,,,,,,,orange,triangle
202.0,7.0,2.0,1.0,4.0,4.0,464.204331000019,4.0,1.0,phase_1,,,,,,,,,,,,,cyan,cross
118.0,6.0,1.0,1.0,2.0,2.0,348.3314029999746,4.0,1.0,phase_1,,,,,,,,,,,,,yellow,square
206.0,7.0,2.0,1.0,1.0,1.0,433.726951999688,4.0,1.0,phase_1,,,,,,,,,,,,,cyan,cross
0.0,1.0,0.0,0.0,2.0,2.0,396.2825450003038,4.0,1.0,phase_1,,,,,,,,,,,,,orange,triangle
199.0,3.0,2.0,0.0,4.0,4.0,456.0787980003624,4.0,1.0,phase_1,,,,,,,,,,,,,gray,flipped triangle
0.0,4.0,0.0,0.0,3.0,3.0,368.8705409999784,4.0,1.0,phase_1,,,,,,,,,,,,,white,circle
178.0,7.0,2.0,1.0,2.0,2.0,410.0243139996564,4.0,1.0,phase_1,,,,,,,,,,,,,cyan,cross
26.0,5.0,0.5,1.0,1.0,1.0,411.0817640003006,4.0,1.0,phase_1,,,,,,,,,,,,,blue,diamond
396.0,4.0,4.0,0.0,3.0,3.0,455.4689229998985,4.0,1.0,phase_1,,,,,,,,,,,,,white,circle
69.0,1.0,0.5,0.0,2.0,2.0,473.4880080000039,4.0,1.0,phase_1,,,,,,,,,,,,,orange,triangle
0.0,6.0,0.0,1.0,1.0,1.0,450.5825989999721,4.0,1.0,phase_1,,,,,,,,,,,,,yellow,square
72.0,1.0,0.5,0.0,3.0,3.0,394.584395000038,4.0,1.0,phase_1,,,,,,,,,,,,,orange,triangle
38.0,1.0,0.5,0.0,2.0,2.0,375.159960000019,4.0,1.0,phase_1,,,,,,,,,,,,,orange,triangle
395.0,8.0,4.0,1.0,1.0,1.0,434.7362880002947,4.0,1.0,phase_1,,,,,,,,,,,,,magenta,hexagon
224.0,7.0,2.0,1.0,2.0,2.0,475.5071720001069,4.0,1.0,phase_1,,,,,,,,,,,,,cyan,cross
29.0,1.0,0.5,0.0,1.0,1.0,449.3981669997993,4.0,1.0,phase_1,,,,,,,,,,,,,orange,triangle
423.0,4.0,4.0,0.0,4.0,4.0,471.9752699998025,4.0,1.0,phase_1,,,,,,,,,,,,,white,circle
0.0,6.0,0.0,1.0,3.0,3.0,573.0756560001282,4.0,1.0,phase_1,,,,,,,,,,,,,yellow,square
56.0,5.0,0.5,1.0,1.0,1.0,372.7373570000054,4.0,1.0,phase_1,,,,,,,,,,,,,blue,diamond
108.0,2.0,1.0,0.0,2.0,2.0,371.299585000088,4.0,1.0,phase_1,,,,,,,,,,,,,green,I
423.0,8.0,4.0,1.0,4.0,4.0,373.3486500000254,4.0,1.0,phase_1,,,,,,,,,,,,,magenta,hexagon
123.0,6.0,1.0,1.0,4.0,4.0,729.12065599985,4.0,1.0,phase_1,,,,,,,,,,,,,yellow,square
73.0,1.0,0.5,0.0,3.0,3.0,409.0814360001786,4.0,1.0,phase_1,,,,,,,,,,,,,orange,triangle
0.0,2.0,0.0,0.0,4.0,4.0,419.2925809998087,4.0,1.0,phase_1,,,,,,,,,,,,,green,I
419.0,8.0,4.0,1.0,3.0,3.0,443.9473700003873,4.0,1.0,phase_1,,,,,,,,,,,,,magenta,hexagon
210.0,7.0,2.0,1.0,3.0,3.0,516.2940440000057,4.0,1.0,phase_1,,,,,,,,,,,,,cyan,cross
185.0,7.0,2.0,1.0,4.0,4.0,479.8978369999531,4.0,1.0,phase_1,,,,,,,,,,,,,cyan,cross
0.0,4.0,0.0,0.0,3.0,3.0,411.2676129998363,4.0,1.0,phase_1,,,,,,,,,,,,,white,circle
113.0,2.0,1.0,0.0,3.0,3.0,361.7626640002527,4.0,1.0,phase_1,,,,,,,,,,,,,green,I
48.0,1.0,0.5,0.0,3.0,3.0,464.463725999849,4.0,1.0,phase_1,,,,,,,,,,,,,orange,triangle
418.0,8.0,4.0,1.0,1.0,1.0,430.9904380002081,4.0,1.0,phase_1,,,,,,,,,,,,,magenta,hexagon
0.0,4.0,0.0,0.0,3.0,3.0,385.0097879999339,4.0,1.0,phase_1,,,,,,,,,,,,,white,circle
121.0,6.0,1.0,1.0,1.0,1.0,498.3003129996177,4.0,1.0,phase_1,,,,,,,,,,,,,yellow,square
0.0,1.0,0.0,0.0,1.0,1.0,516.6262010002356,4.0,1.0,phase_1,,,,,,,,,,,,,orange,triangle
0.0,2.0,0.0,0.0,1.0,1.0,474.32192500036757,4.0,1.0,phase_1,,,,,,,,,,,,,green,I
80.0,2.0,1.0,0.0,1.0,1.0,434.9324070003604,4.0,1.0,phase_1,,,,,,,,,,,,,green,I
207.0,3.0,2.0,0.0,2.0,2.0,518.2256520001829,4.0,1.0,phase_1,,,,,,,,,,,,,gray,flipped triangle
425.0,4.0,4.0,0.0,3.0,3.0,633.2188970000061,4.0,1.0,phase_1,,,,,,,,,,,,,white,circle
25.0,1.0,0.5,0.0,1.0,1.0,571.2193550002667,4.0,1.0,phase_1,,,,,,,,,,,,,orange,triangle
0.0,5.0,0.0,1.0,3.0,3.0,429.4711180000377,4.0,1.0,phase_1,,,,,,,,,,,,,blue,diamond
0.0,8.0,0.0,1.0,3.0,3.0,404.2170139996415,4.0,1.0,phase_1,,,,,,,,,,,,,magenta,hexagon
41.0,5.0,0.5,1.0,1.0,1.0,389.8547320000034,4.0,1.0,phase_1,,,,,,,,,,,,,blue,diamond
0.0,8.0,0.0,1.0,4.0,4.0,851.3525339999433,4.0,1.0,phase_1,,,,,,,,,,,,,magenta,hexagon
183.0,7.0,2.0,1.0,4.0,4.0,441.834801999903,4.0,1.0,phase_1,,,,,,,,,,,,,cyan,cross
423.0,4.0,4.0,0.0,1.0,1.0,416.7747080000481,4.0,1.0,phase_1,,,,,,,,,,,,,white,circle
28.0,1.0,0.5,0.0,2.0,2.0,525.4901910002445,4.0,1.0,phase_1,,,,,,,,,,,,,orange,triangle
0.0,5.0,0.0,1.0,2.0,2.0,370.069396999952,4.0,1.0,phase_1,,,,,,,,,,,,,blue,diamond
29.0,5.0,0.5,1.0,2.0,2.0,381.1213250000946,4.0,1.0,phase_1,,,,,,,,,,,,,blue,diamond
0.0,5.0,0.0,1.0,2.0,2.0,498.4499629999845,4.0,1.0,phase_1,,,,,,,,,,,,,blue,diamond
38.0,5.0,0.5,1.0,2.0,2.0,555.9253579999677,4.0,1.0,phase_1,,,,,,,,,,,,,blue,diamond
409.0,8.0,4.0,1.0,3.0,3.0,447.0196000002033,4.0,1.0,phase_1,,,,,,,,,,,,,magenta,hexagon
190.0,3.0,2.0,0.0,3.0,3.0,476.2481880002269,4.0,1.0,phase_1,,,,,,,,,,,,,gray,flipped triangle
0.0,5.0,0.5,1.0,5.0,5.0,554.0734790001807,1.0,1.0,phase_2,go,250.0,250.0,1.0,,,,,,,,,blue,diamond
0.0,2.0,1.0,0.0,5.0,5.0,564.7573609999199,1.0,1.0,phase_2,go,250.0,250.0,1.0,,,,,,,,,green,I
0.0,3.0,2.0,0.0,5.0,5.0,608.0537749999166,1.0,1.0,phase_2,go,250.0,250.0,1.0,,,,,,,,,gray,flipped triangle
0.0,4.0,4.0,0.0,5.0,5.0,353.8791149999269,1.0,1.0,phase_2,go,250.0,250.0,1.0,,,,,,,,,white,circle
0.0,5.0,0.5,1.0,6.0,6.0,397.798339000019,1.0,1.0,phase_2,stop,250.0,250.0,3.0,,,,,,,,,blue,diamond
0.0,1.0,0.5,0.0,6.0,6.0,697.9563250001775,1.0,1.0,phase_2,go,250.0,200.0,1.0,,,,,,,,,orange,triangle
0.0,8.0,4.0,1.0,6.0,0.0,0.0,1.0,1.0,phase_2,stop,250.0,200.0,4.0,,,,,,,,,magenta,hexagon
0.0,5.0,0.5,1.0,5.0,5.0,295.6681430000571,1.0,1.0,phase_2,stop,250.0,250.0,3.0,,,,,,,,,blue,diamond
0.0,4.0,4.0,0.0,6.0,6.0,712.3138250003649,1.0,1.0,phase_2,go,200.0,250.0,1.0,,,,,,,,,white,circle
0.0,2.0,1.0,0.0,6.0,6.0,622.9895069996019,1.0,1.0,phase_2,go,200.0,250.0,1.0,,,,,,,,,green,I
0.0,7.0,2.0,1.0,6.0,6.0,371.1243419998027,1.0,1.0,phase_2,go,200.0,250.0,1.0,,,,,,,,,cyan,cross
0.0,7.0,2.0,1.0,5.0,0.0,0.0,1.0,1.0,phase_2,stop,200.0,250.0,4.0,,,,,,,,,cyan,cross
0.0,6.0,1.0,1.0,5.0,5.0,347.5519339999664,1.0,1.0,phase_2,stop,250.0,250.0,3.0,,,,,,,,,yellow,square
0.0,7.0,2.0,1.0,5.0,0.0,0.0,1.0,1.0,phase_2,stop,200.0,250.0,4.0,,,,,,,,,cyan,cross
0.0,1.0,0.5,0.0,5.0,5.0,629.4962040001337,1.0,1.0,phase_2,go,250.0,250.0,1.0,,,,,,,,,orange,triangle
0.0,8.0,4.0,1.0,5.0,5.0,408.0539500000668,1.0,1.0,phase_2,stop,250.0,250.0,3.0,,,,,,,,,magenta,hexagon
0.0,6.0,1.0,1.0,6.0,0.0,0.0,1.0,1.0,phase_2,stop,200.0,250.0,4.0,,,,,,,,,yellow,square
0.0,2.0,1.0,0.0,5.0,5.0,670.4185329999746,1.0,1.0,phase_2,go,200.0,300.0,1.0,,,,,,,,,green,I
0.0,4.0,4.0,0.0,5.0,5.0,547.8995550001855,1.0,1.0,phase_2,go,200.0,300.0,1.0,,,,,,,,,white,circle
0.0,4.0,4.0,0.0,5.0,5.0,774.9145040002077,1.0,1.0,phase_2,go,200.0,300.0,1.0,,,,,,,,,white,circle
0.0,4.0,4.0,0.0,5.0,5.0,476.7370929998833,1.0,1.0,phase_2,go,200.0,300.0,1.0,,,,,,,,,white,circle
0.0,5.0,0.5,1.0,6.0,0.0,0.0,1.0,1.0,phase_2,stop,200.0,300.0,4.0,,,,,,,,,blue,diamond
0.0,6.0,1.0,1.0,5.0,5.0,677.0346140001493,1.0,1.0,phase_2,go,200.0,350.0,1.0,,,,,,,,,yellow,square
0.0,8.0,4.0,1.0,6.0,0.0,0.0,1.0,1.0,phase_2,stop,200.0,350.0,4.0,,,,,,,,,magenta,hexagon
0.0,8.0,4.0,1.0,6.0,0.0,0.0,1.0,1.0,phase_2,stop,200.0,400.0,4.0,,,,,,,,,magenta,hexagon
0.0,1.0,0.5,0.0,5.0,5.0,664.6180960001402,1.0,1.0,phase_2,go,200.0,450.0,1.0,,,,,,,,,orange,triangle
0.0,2.0,1.0,0.0,6.0,6.0,1394.134173000111,1.0,1.0,phase_2,go,200.0,450.0,1.0,,,,,,,,,green,I
0.0,1.0,0.5,0.0,5.0,5.0,654.9303030001283,1.0,1.0,phase_2,go,200.0,450.0,1.0,,,,,,,,,orange,triangle
0.0,2.0,1.0,0.0,6.0,6.0,587.0601920000809,1.0,1.0,phase_2,go,200.0,450.0,1.0,,,,,,,,,green,I
0.0,5.0,0.5,1.0,6.0,6.0,705.5524829997921,1.0,1.0,phase_2,go,200.0,450.0,1.0,,,,,,,,,blue,diamond
0.0,6.0,1.0,1.0,5.0,0.0,0.0,1.0,1.0,phase_2,stop,200.0,450.0,4.0,,,,,,,,,yellow,square
0.0,4.0,4.0,0.0,5.0,5.0,664.592649000042,1.0,1.0,phase_2,go,250.0,450.0,1.0,,,,,,,,,white,circle
0.0,3.0,2.0,0.0,5.0,5.0,577.0715549997476,1.0,1.0,phase_2,go,250.0,450.0,1.0,,,,,,,,,gray,flipped triangle
0.0,8.0,4.0,1.0,6.0,6.0,648.05814500005,1.0,1.0,phase_2,go,250.0,450.0,1.0,,,,,,,,,magenta,hexagon
0.0,2.0,1.0,0.0,6.0,6.0,597.4081879999176,1.0,1.0,phase_2,go,250.0,450.0,1.0,,,,,,,,,green,I
0.0,5.0,0.5,1.0,6.0,6.0,389.9385909999182,1.0,1.0,phase_2,stop,250.0,450.0,3.0,,,,,,,,,blue,diamond
0.0,6.0,1.0,1.0,6.0,0.0,0.0,2.0,1.0,phase_2,stop,250.0,400.0,4.0,,,,,,,,,yellow,square
0.0,8.0,4.0,1.0,5.0,0.0,0.0,2.0,1.0,phase_2,stop,250.0,450.0,4.0,,,,,,,,,magenta,hexagon
0.0,1.0,0.5,0.0,5.0,5.0,407.0260230000713,2.0,1.0,phase_2,go,300.0,450.0,1.0,,,,,,,,,orange,triangle
0.0,1.0,0.5,0.0,5.0,5.0,610.1216459996976,2.0,1.0,phase_2,go,300.0,450.0,1.0,,,,,,,,,orange,triangle
0.0,2.0,1.0,0.0,5.0,5.0,511.8581599999743,2.0,1.0,phase_2,go,300.0,450.0,1.0,,,,,,,,,green,I
0.0,1.0,0.5,0.0,5.0,5.0,457.0398679998106,2.0,1.0,phase_2,go,300.0,450.0,1.0,,,,,,,,,orange,triangle
0.0,7.0,2.0,1.0,6.0,6.0,733.0893319999632,2.0,1.0,phase_2,go,300.0,450.0,1.0,,,,,,,,,cyan,cross
0.0,7.0,2.0,1.0,6.0,0.0,0.0,2.0,1.0,phase_2,stop,300.0,450.0,4.0,,,,,,,,,cyan,cross
0.0,2.0,1.0,0.0,5.0,5.0,681.7518410002776,2.0,1.0,phase_2,go,300.0,500.0,1.0,,,,,,,,,green,I
0.0,3.0,2.0,0.0,5.0,5.0,550.5193750000217,2.0,1.0,phase_2,go,300.0,500.0,1.0,,,,,,,,,gray,flipped triangle
0.0,8.0,4.0,1.0,5.0,0.0,0.0,2.0,1.0,phase_2,stop,300.0,500.0,4.0,,,,,,,,,magenta,hexagon
0.0,3.0,2.0,0.0,6.0,6.0,703.4716240000307,2.0,1.0,phase_2,go,350.0,500.0,1.0,,,,,,,,,gray,flipped triangle
0.0,5.0,0.5,1.0,5.0,0.0,0.0,2.0,1.0,phase_2,stop,350.0,500.0,4.0,,,,,,,,,blue,diamond
0.0,5.0,0.5,1.0,5.0,0.0,0.0,2.0,1.0,phase_2,stop,400.0,500.0,4.0,,,,,,,,,blue,diamond
0.0,7.0,2.0,1.0,5.0,5.0,583.7359910001396,2.0,1.0,phase_2,stop,450.0,500.0,3.0,,,,,,,,,cyan,cross
0.0,3.0,2.0,0.0,6.0,6.0,523.7984260002122,2.0,1.0,phase_2,go,400.0,500.0,1.0,,,,,,,,,gray,flipped triangle
0.0,2.0,1.0,0.0,5.0,5.0,686.7448800003331,2.0,1.0,phase_2,go,400.0,500.0,1.0,,,,,,,,,green,I
0.0,2.0,1.0,0.0,5.0,5.0,596.9927350001853,2.0,1.0,phase_2,go,400.0,500.0,1.0,,,,,,,,,green,I
0.0,6.0,1.0,1.0,5.0,0.0,0.0,2.0,1.0,phase_2,stop,400.0,500.0,4.0,,,,,,,,,yellow,square
0.0,7.0,2.0,1.0,6.0,6.0,566.0777170000983,2.0,1.0,phase_2,stop,450.0,500.0,3.0,,,,,,,,,cyan,cross
0.0,4.0,4.0,0.0,6.0,6.0,612.6104039999518,2.0,1.0,phase_2,go,450.0,450.0,1.0,,,,,,,,,white,circle
0.0,5.0,0.5,1.0,6.0,6.0,815.0145470003736,2.0,1.0,phase_2,go,450.0,450.0,1.0,,,,,,,,,blue,diamond
0.0,5.0,0.5,1.0,6.0,0.0,0.0,2.0,1.0,phase_2,stop,450.0,450.0,4.0,,,,,,,,,blue,diamond
0.0,2.0,1.0,0.0,6.0,6.0,433.8302780001868,2.0,1.0,phase_2,go,450.0,500.0,1.0,,,,,,,,,green,I
0.0,6.0,1.0,1.0,5.0,0.0,0.0,2.0,1.0,phase_2,stop,450.0,500.0,4.0,,,,,,,,,yellow,square
0.0,6.0,1.0,1.0,6.0,6.0,625.950616999944,2.0,1.0,phase_2,stop,500.0,500.0,3.0,,,,,,,,,yellow,square
0.0,1.0,0.5,0.0,5.0,5.0,393.4706069999265,2.0,1.0,phase_2,go,500.0,450.0,1.0,,,,,,,,,orange,triangle
0.0,5.0,0.5,1.0,6.0,0.0,0.0,2.0,1.0,phase_2,stop,500.0,450.0,4.0,,,,,,,,,blue,diamond
0.0,3.0,2.0,0.0,5.0,5.0,679.0632699999151,2.0,1.0,phase_2,go,500.0,500.0,1.0,,,,,,,,,gray,flipped triangle
0.0,5.0,0.5,1.0,5.0,0.0,0.0,2.0,1.0,phase_2,stop,500.0,500.0,4.0,,,,,,,,,blue,diamond
0.0,1.0,0.5,0.0,6.0,6.0,700.893447999988,2.0,1.0,phase_2,go,550.0,500.0,1.0,,,,,,,,,orange,triangle
0.0,4.0,4.0,0.0,6.0,6.0,886.6863170001125,2.0,1.0,phase_2,go,550.0,500.0,1.0,,,,,,,,,white,circle
0.0,7.0,2.0,1.0,5.0,0.0,0.0,2.0,1.0,phase_2,stop,550.0,500.0,4.0,,,,,,,,,cyan,cross
0.0,5.0,0.5,1.0,5.0,5.0,649.4773290000921,2.0,1.0,phase_2,stop,600.0,500.0,3.0,,,,,,,,,blue,diamond
0.0,2.0,1.0,0.0,6.0,6.0,751.2735059999613,2.0,1.0,phase_2,go,550.0,500.0,1.0,,,,,,,,,green,I
0.0,4.0,4.0,0.0,5.0,5.0,664.1634530001284,2.0,1.0,phase_2,go,550.0,500.0,1.0,,,,,,,,,white,circle
0.0,8.0,4.0,1.0,5.0,5.0,650.1098719995753,3.0,1.0,phase_2,stop,550.0,500.0,3.0,,,,,,,,,magenta,hexagon
0.0,2.0,1.0,0.0,5.0,5.0,751.0446030000821,3.0,1.0,phase_2,go,500.0,500.0,1.0,,,,,,,,,green,I
0.0,7.0,2.0,1.0,5.0,0.0,0.0,3.0,1.0,phase_2,stop,500.0,500.0,4.0,,,,,,,,,cyan,cross
0.0,7.0,2.0,1.0,5.0,5.0,668.4451900000568,3.0,1.0,phase_2,stop,550.0,500.0,3.0,,,,,,,,,cyan,cross
0.0,6.0,1.0,1.0,6.0,6.0,573.591086000306,3.0,1.0,phase_2,stop,500.0,500.0,3.0,,,,,,,,,yellow,square
0.0,3.0,2.0,0.0,6.0,6.0,821.3358940001854,3.0,1.0,phase_2,go,500.0,450.0,1.0,,,,,,,,,gray,flipped triangle
0.0,1.0,0.5,0.0,6.0,6.0,752.5835110000116,3.0,1.0,phase_2,go,500.0,450.0,1.0,,,,,,,,,orange,triangle
0.0,8.0,4.0,1.0,6.0,0.0,0.0,3.0,1.0,phase_2,stop,500.0,450.0,4.0,,,,,,,,,magenta,hexagon
0.0,2.0,1.0,0.0,5.0,5.0,457.80142600006,3.0,1.0,phase_2,go,500.0,500.0,1.0,,,,,,,,,green,I
0.0,4.0,4.0,0.0,5.0,5.0,664.47719100006,3.0,1.0,phase_2,go,500.0,500.0,1.0,,,,,,,,,white,circle
0.0,2.0,1.0,0.0,5.0,5.0,700.4968399996869,3.0,1.0,phase_2,go,500.0,500.0,1.0,,,,,,,,,green,I
0.0,7.0,2.0,1.0,5.0,5.0,662.4782439998853,3.0,1.0,phase_2,go,500.0,500.0,1.0,,,,,,,,,cyan,cross
0.0,7.0,2.0,1.0,6.0,0.0,0.0,3.0,1.0,phase_2,stop,500.0,500.0,4.0,,,,,,,,,cyan,cross
0.0,2.0,1.0,0.0,5.0,5.0,781.5951580000728,3.0,1.0,phase_2,go,500.0,550.0,1.0,,,,,,,,,green,I
0.0,7.0,2.0,1.0,5.0,0.0,0.0,3.0,1.0,phase_2,stop,500.0,550.0,4.0,,,,,,,,,cyan,cross
0.0,3.0,2.0,0.0,5.0,5.0,701.3042370003859,3.0,1.0,phase_2,go,550.0,550.0,1.0,,,,,,,,,gray,flipped triangle
0.0,5.0,0.5,1.0,6.0,6.0,867.81729500035,3.0,1.0,phase_2,go,550.0,550.0,1.0,,,,,,,,,blue,diamond
0.0,2.0,1.0,0.0,6.0,6.0,735.7630460001019,3.0,1.0,phase_2,go,550.0,550.0,1.0,,,,,,,,,green,I
0.0,2.0,1.0,0.0,5.0,5.0,740.4004150002947,3.0,1.0,phase_2,go,550.0,550.0,1.0,,,,,,,,,green,I
0.0,3.0,2.0,0.0,6.0,6.0,724.1330669999115,3.0,1.0,phase_2,go,550.0,550.0,1.0,,,,,,,,,gray,flipped triangle
0.0,1.0,0.5,0.0,6.0,6.0,720.7836019997558,3.0,1.0,phase_2,go,550.0,550.0,1.0,,,,,,,,,orange,triangle
0.0,8.0,4.0,1.0,6.0,6.0,852.6484560002245,3.0,1.0,phase_2,go,550.0,550.0,1.0,,,,,,,,,magenta,hexagon
0.0,2.0,1.0,0.0,5.0,5.0,714.0046819999952,3.0,1.0,phase_2,go,550.0,550.0,1.0,,,,,,,,,green,I
0.0,6.0,1.0,1.0,6.0,6.0,784.7795269999551,3.0,1.0,phase_2,go,550.0,550.0,1.0,,,,,,,,,yellow,square
0.0,5.0,0.5,1.0,6.0,0.0,0.0,3.0,1.0,phase_2,stop,550.0,550.0,4.0,,,,,,,,,blue,diamond
0.0,3.0,2.0,0.0,5.0,5.0,628.6889849998261,3.0,1.0,phase_2,go,550.0,600.0,1.0,,,,,,,,,gray,flipped triangle
0.0,7.0,2.0,1.0,5.0,5.0,929.528881999886,3.0,1.0,phase_2,go,550.0,600.0,1.0,,,,,,,,,cyan,cross
0.0,7.0,2.0,1.0,6.0,0.0,0.0,3.0,1.0,phase_2,stop,550.0,600.0,4.0,,,,,,,,,cyan,cross
0.0,2.0,1.0,0.0,6.0,6.0,618.4693610002796,3.0,1.0,phase_2,go,550.0,650.0,1.0,,,,,,,,,green,I
0.0,6.0,1.0,1.0,5.0,5.0,999.7457810000014,3.0,1.0,phase_2,go,550.0,650.0,1.0,,,,,,,,,yellow,square
0.0,3.0,2.0,0.0,5.0,5.0,686.6230110003926,3.0,1.0,phase_2,go,550.0,650.0,1.0,,,,,,,,,gray,flipped triangle
0.0,7.0,2.0,1.0,6.0,6.0,948.1568050000532,3.0,1.0,phase_2,go,550.0,650.0,1.0,,,,,,,,,cyan,cross
0.0,8.0,4.0,1.0,5.0,5.0,1150.5945560002149,3.0,1.0,phase_2,go,550.0,650.0,1.0,,,,,,,,,magenta,hexagon
0.0,7.0,2.0,1.0,6.0,0.0,0.0,3.0,1.0,phase_2,stop,550.0,650.0,4.0,,,,,,,,,cyan,cross
0.0,3.0,2.0,0.0,5.0,5.0,642.2702760000902,3.0,1.0,phase_2,go,550.0,700.0,1.0,,,,,,,,,gray,flipped triangle
0.0,2.0,1.0,0.0,6.0,6.0,896.3161609999588,3.0,1.0,phase_2,go,550.0,700.0,1.0,,,,,,,,,green,I
0.0,8.0,4.0,1.0,6.0,6.0,527.1946910002043,4.0,1.0,phase_2,stop,550.0,700.0,3.0,,,,,,,,,magenta,hexagon
0.0,4.0,4.0,0.0,5.0,5.0,445.1451240001915,4.0,1.0,phase_2,go,550.0,650.0,1.0,,,,,,,,,white,circle
0.0,7.0,2.0,1.0,6.0,6.0,599.1956989996652,4.0,1.0,phase_2,stop,550.0,650.0,3.0,,,,,,,,,cyan,cross
0.0,2.0,1.0,0.0,6.0,6.0,725.367536000249,4.0,1.0,phase_2,go,550.0,600.0,1.0,,,,,,,,,green,I
0.0,1.0,0.5,0.0,5.0,5.0,564.9736049999774,4.0,1.0,phase_2,go,550.0,600.0,1.0,,,,,,,,,orange,triangle
0.0,5.0,0.5,1.0,5.0,0.0,0.0,4.0,1.0,phase_2,stop,550.0,600.0,4.0,,,,,,,,,blue,diamond
0.0,8.0,4.0,1.0,5.0,5.0,385.571241999969,4.0,1.0,phase_2,stop,600.0,600.0,3.0,,,,,,,,,magenta,hexagon
0.0,4.0,4.0,0.0,5.0,5.0,437.7091699998345,4.0,1.0,phase_2,go,550.0,600.0,1.0,,,,,,,,,white,circle
0.0,5.0,0.5,1.0,6.0,6.0,513.4827880001467,4.0,1.0,phase_2,stop,550.0,600.0,3.0,,,,,,,,,blue,diamond
0.0,7.0,2.0,1.0,5.0,5.0,589.7862519996124,4.0,1.0,phase_2,stop,550.0,550.0,3.0,,,,,,,,,cyan,cross
0.0,6.0,1.0,1.0,6.0,6.0,460.2985740002623,4.0,1.0,phase_2,stop,500.0,550.0,3.0,,,,,,,,,yellow,square
0.0,3.0,2.0,0.0,6.0,6.0,671.3539160000437,4.0,1.0,phase_2,go,500.0,500.0,1.0,,,,,,,,,gray,flipped triangle
0.0,2.0,1.0,0.0,5.0,5.0,317.4513809999553,4.0,1.0,phase_2,go,500.0,500.0,1.0,,,,,,,,,green,I
0.0,5.0,0.5,1.0,5.0,0.0,0.0,4.0,1.0,phase_2,stop,500.0,500.0,4.0,,,,,,,,,blue,diamond
0.0,4.0,4.0,0.0,5.0,5.0,369.9808770002164,4.0,1.0,phase_2,go,550.0,500.0,1.0,,,,,,,,,white,circle
0.0,7.0,2.0,1.0,5.0,5.0,368.4533259997806,4.0,1.0,phase_2,go,550.0,500.0,1.0,,,,,,,,,cyan,cross
0.0,6.0,1.0,1.0,5.0,5.0,431.0482299997602,4.0,1.0,phase_2,stop,550.0,500.0,3.0,,,,,,,,,yellow,square
0.0,4.0,4.0,0.0,6.0,6.0,681.0032809999029,4.0,1.0,phase_2,go,500.0,500.0,1.0,,,,,,,,,white,circle
0.0,7.0,2.0,1.0,5.0,0.0,0.0,4.0,1.0,phase_2,stop,500.0,500.0,4.0,,,,,,,,,cyan,cross
0.0,6.0,1.0,1.0,5.0,5.0,344.8202270001275,4.0,1.0,phase_2,stop,550.0,500.0,3.0,,,,,,,,,yellow,square
0.0,7.0,2.0,1.0,6.0,6.0,442.3402709999209,4.0,1.0,phase_2,stop,500.0,500.0,3.0,,,,,,,,,cyan,cross
0.0,3.0,2.0,0.0,5.0,5.0,470.8260530001098,4.0,1.0,phase_2,go,500.0,450.0,1.0,,,,,,,,,gray,flipped triangle
0.0,5.0,0.5,1.0,5.0,5.0,350.441131000025,4.0,1.0,phase_2,stop,500.0,450.0,3.0,,,,,,,,,blue,diamond
0.0,4.0,4.0,0.0,6.0,6.0,339.7466559999884,4.0,1.0,phase_2,go,450.0,450.0,1.0,,,,,,,,,white,circle
0.0,2.0,1.0,0.0,5.0,5.0,748.3952689999569,4.0,1.0,phase_2,go,450.0,450.0,1.0,,,,,,,,,green,I
0.0,8.0,4.0,1.0,5.0,5.0,768.9812550001989,4.0,1.0,phase_2,go,450.0,450.0,1.0,,,,,,,,,magenta,hexagon
0.0,4.0,4.0,0.0,5.0,5.0,666.2797189997036,4.0,1.0,phase_2,go,450.0,450.0,1.0,,,,,,,,,white,circle
0.0,7.0,2.0,1.0,6.0,0.0,0.0,4.0,1.0,phase_2,stop,450.0,450.0,4.0,,,,,,,,,cyan,cross
0.0,1.0,0.5,0.0,5.0,5.0,351.1918030003471,4.0,1.0,phase_2,go,450.0,500.0,1.0,,,,,,,,,orange,triangle
0.0,6.0,1.0,1.0,6.0,0.0,0.0,4.0,1.0,phase_2,stop,450.0,500.0,4.0,,,,,,,,,yellow,square
0.0,1.0,0.5,0.0,6.0,6.0,459.567590000006,4.0,1.0,phase_2,go,450.0,550.0,1.0,,,,,,,,,orange,triangle
0.0,6.0,1.0,1.0,5.0,5.0,642.1053580002081,4.0,1.0,phase_2,stop,450.0,550.0,3.0,,,,,,,,,yellow,square
0.0,8.0,4.0,1.0,5.0,5.0,651.9162499998856,4.0,1.0,phase_2,go,400.0,550.0,1.0,,,,,,,,,magenta,hexagon
0.0,1.0,0.5,0.0,5.0,5.0,570.9765149999839,4.0,1.0,phase_2,go,400.0,550.0,1.0,,,,,,,,,orange,triangle
0.0,3.0,2.0,0.0,5.0,5.0,789.5918690001054,4.0,1.0,phase_2,go,400.0,550.0,1.0,,,,,,,,,gray,flipped triangle
0.0,2.0,1.0,0.0,5.0,5.0,386.2935090000974,4.0,1.0,phase_2,go,400.0,550.0,1.0,,,,,,,,,green,I
0.0,3.0,2.0,0.0,6.0,6.0,531.5619359998891,5.0,1.0,phase_2,go,400.0,550.0,1.0,,,,,,,,,gray,flipped triangle
0.0,1.0,0.5,0.0,5.0,5.0,461.7425259998526,5.0,1.0,phase_2,go,400.0,550.0,1.0,,,,,,,,,orange,triangle
0.0,6.0,1.0,1.0,6.0,6.0,337.5539929998012,5.0,1.0,phase_2,stop,400.0,550.0,3.0,,,,,,,,,yellow,square
0.0,5.0,0.5,1.0,5.0,5.0,358.0986740003027,5.0,1.0,phase_2,stop,400.0,500.0,3.0,,,,,,,,,blue,diamond
0.0,4.0,4.0,0.0,5.0,5.0,392.6378749997639,5.0,1.0,phase_2,go,350.0,500.0,1.0,,,,,,,,,white,circle
0.0,6.0,1.0,1.0,5.0,5.0,328.5444530001769,5.0,1.0,phase_2,go,350.0,500.0,1.0,,,,,,,,,yellow,square
0.0,6.0,1.0,1.0,6.0,6.0,640.9561250002298,5.0,1.0,phase_2,stop,350.0,500.0,3.0,,,,,,,,,yellow,square
0.0,5.0,0.5,1.0,6.0,0.0,0.0,5.0,1.0,phase_2,stop,350.0,450.0,4.0,,,,,,,,,blue,diamond
0.0,3.0,2.0,0.0,5.0,5.0,579.3387310000071,5.0,1.0,phase_2,go,350.0,500.0,1.0,,,,,,,,,gray,flipped triangle
0.0,6.0,1.0,1.0,5.0,5.0,774.4334280000658,5.0,1.0,phase_2,go,350.0,500.0,1.0,,,,,,,,,yellow,square
0.0,4.0,4.0,0.0,6.0,6.0,662.4414559996694,5.0,1.0,phase_2,go,350.0,500.0,1.0,,,,,,,,,white,circle
0.0,7.0,2.0,1.0,6.0,0.0,0.0,5.0,1.0,phase_2,stop,350.0,500.0,4.0,,,,,,,,,cyan,cross
0.0,1.0,0.5,0.0,6.0,6.0,588.7348599999314,5.0,1.0,phase_2,go,350.0,550.0,1.0,,,,,,,,,orange,triangle
0.0,8.0,4.0,1.0,6.0,0.0,0.0,5.0,1.0,phase_2,stop,350.0,550.0,4.0,,,,,,,,,magenta,hexagon
0.0,4.0,4.0,0.0,5.0,5.0,776.6918430002079,5.0,1.0,phase_2,go,350.0,600.0,1.0,,,,,,,,,white,circle
0.0,6.0,1.0,1.0,6.0,6.0,811.7456949998996,5.0,1.0,phase_2,go,350.0,600.0,1.0,,,,,,,,,yellow,square
0.0,3.0,2.0,0.0,5.0,5.0,594.3889330001184,5.0,1.0,phase_2,go,350.0,600.0,1.0,,,,,,,,,gray,flipped triangle
0.0,4.0,4.0,0.0,6.0,6.0,716.5206049999142,5.0,1.0,phase_2,go,350.0,600.0,1.0,,,,,,,,,white,circle
0.0,3.0,2.0,0.0,6.0,6.0,587.2275059996355,5.0,1.0,phase_2,go,350.0,600.0,1.0,,,,,,,,,gray,flipped triangle
0.0,2.0,1.0,0.0,6.0,6.0,346.848468999724,5.0,1.0,phase_2,go,350.0,600.0,1.0,,,,,,,,,green,I
0.0,3.0,2.0,0.0,6.0,6.0,501.0619439999573,5.0,1.0,phase_2,go,350.0,600.0,1.0,,,,,,,,,gray,flipped triangle
0.0,1.0,0.5,0.0,6.0,6.0,735.7224390002557,5.0,1.0,phase_2,go,350.0,600.0,1.0,,,,,,,,,orange,triangle
0.0,6.0,1.0,1.0,6.0,0.0,0.0,5.0,1.0,phase_2,stop,350.0,600.0,4.0,,,,,,,,,yellow,square
0.0,6.0,1.0,1.0,5.0,5.0,526.2157439997281,5.0,1.0,phase_2,stop,350.0,650.0,3.0,,,,,,,,,yellow,square
0.0,4.0,4.0,0.0,5.0,5.0,533.7098780000815,5.0,1.0,phase_2,go,300.0,650.0,1.0,,,,,,,,,white,circle
0.0,3.0,2.0,0.0,6.0,6.0,410.5232629999591,5.0,1.0,phase_2,go,300.0,650.0,1.0,,,,,,,,,gray,flipped triangle
0.0,8.0,4.0,1.0,6.0,6.0,708.5201039999447,5.0,1.0,phase_2,stop,300.0,650.0,3.0,,,,,,,,,magenta,hexagon
0.0,8.0,4.0,1.0,5.0,5.0,467.4169329996402,5.0,1.0,phase_2,stop,300.0,600.0,3.0,,,,,,,,,magenta,hexagon
0.0,8.0,4.0,1.0,6.0,6.0,642.7992859998994,5.0,1.0,phase_2,stop,250.0,600.0,3.0,,,,,,,,,magenta,hexagon
0.0,1.0,0.5,0.0,6.0,6.0,601.8620360000568,5.0,1.0,phase_2,go,250.0,550.0,1.0,,,,,,,,,orange,triangle
0.0,8.0,4.0,1.0,5.0,0.0,0.0,5.0,1.0,phase_2,stop,250.0,550.0,4.0,,,,,,,,,magenta,hexagon
0.0,5.0,0.5,1.0,5.0,0.0,0.0,5.0,1.0,phase_2,stop,300.0,550.0,4.0,,,,,,,,,blue,diamond
0.0,3.0,2.0,0.0,5.0,5.0,636.6770129998258,5.0,1.0,phase_2,go,350.0,550.0,1.0,,,,,,,,,gray,flipped triangle
0.0,5.0,0.5,1.0,6.0,0.0,0.0,5.0,1.0,phase_2,stop,350.0,550.0,4.0,,,,,,,,,blue,diamond
0.0,8.0,4.0,1.0,6.0,6.0,946.8377109997164,5.0,1.0,phase_2,go,350.0,600.0,1.0,,,,,,,,,magenta,hexagon
0.0,2.0,1.0,0.0,6.0,6.0,658.5840269999608,5.0,1.0,phase_2,go,350.0,600.0,1.0,,,,,,,,,green,I
0.0,4.0,4.0,0.0,6.0,6.0,543.946250999852,6.0,1.0,phase_2,go,350.0,600.0,1.0,,,,,,,,,white,circle
0.0,4.0,4.0,0.0,6.0,6.0,624.9748189998172,6.0,1.0,phase_2,go,350.0,600.0,1.0,,,,,,,,,white,circle
0.0,3.0,2.0,0.0,5.0,5.0,506.3667859999441,6.0,1.0,phase_2,go,350.0,600.0,1.0,,,,,,,,,gray,flipped triangle
0.0,4.0,4.0,0.0,6.0,6.0,438.0077979999441,6.0,1.0,phase_2,go,350.0,600.0,1.0,,,,,,,,,white,circle
0.0,8.0,4.0,1.0,5.0,5.0,514.3382710002697,6.0,1.0,phase_2,go,350.0,600.0,1.0,,,,,,,,,magenta,hexagon
0.0,8.0,4.0,1.0,5.0,0.0,0.0,6.0,1.0,phase_2,stop,350.0,600.0,4.0,,,,,,,,,magenta,hexagon
0.0,1.0,0.5,0.0,6.0,6.0,664.4395339999392,6.0,1.0,phase_2,go,400.0,600.0,1.0,,,,,,,,,orange,triangle
0.0,1.0,0.5,0.0,6.0,6.0,558.3998649999558,6.0,1.0,phase_2,go,400.0,600.0,1.0,,,,,,,,,orange,triangle
0.0,1.0,0.5,0.0,5.0,5.0,592.6280670000779,6.0,1.0,phase_2,go,400.0,600.0,1.0,,,,,,,,,orange,triangle
0.0,7.0,2.0,1.0,5.0,5.0,861.6389349999736,6.0,1.0,phase_2,go,400.0,600.0,1.0,,,,,,,,,cyan,cross
0.0,1.0,0.5,0.0,5.0,5.0,588.7131240001509,6.0,1.0,phase_2,go,400.0,600.0,1.0,,,,,,,,,orange,triangle
0.0,8.0,4.0,1.0,6.0,6.0,307.821867000257,6.0,1.0,phase_2,stop,400.0,600.0,3.0,,,,,,,,,magenta,hexagon
0.0,5.0,0.5,1.0,5.0,5.0,1007.8740999997535,6.0,1.0,phase_2,go,400.0,550.0,1.0,,,,,,,,,blue,diamond
0.0,2.0,1.0,0.0,6.0,6.0,522.4284240002817,6.0,1.0,phase_2,go,400.0,550.0,1.0,,,,,,,,,green,I
0.0,1.0,0.5,0.0,5.0,5.0,555.3383510005006,6.0,1.0,phase_2,go,400.0,550.0,1.0,,,,,,,,,orange,triangle
0.0,6.0,1.0,1.0,6.0,6.0,589.5954329998858,6.0,1.0,phase_2,stop,400.0,550.0,3.0,,,,,,,,,yellow,square
0.0,1.0,0.5,0.0,5.0,5.0,788.8719639995543,6.0,1.0,phase_2,go,400.0,500.0,1.0,,,,,,,,,orange,triangle
0.0,6.0,1.0,1.0,6.0,6.0,770.6457129997943,6.0,1.0,phase_2,go,400.0,500.0,1.0,,,,,,,,,yellow,square
0.0,4.0,4.0,0.0,6.0,6.0,450.0131270006022,6.0,1.0,phase_2,go,400.0,500.0,1.0,,,,,,,,,white,circle
0.0,6.0,1.0,1.0,5.0,0.0,0.0,6.0,1.0,phase_2,stop,400.0,500.0,4.0,,,,,,,,,yellow,square
0.0,5.0,0.5,1.0,6.0,6.0,953.1567450003422,6.0,1.0,phase_2,go,450.0,500.0,1.0,,,,,,,,,blue,diamond
0.0,6.0,1.0,1.0,5.0,0.0,0.0,6.0,1.0,phase_2,stop,450.0,500.0,4.0,,,,,,,,,yellow,square
0.0,4.0,4.0,0.0,5.0,5.0,678.3518809997986,6.0,1.0,phase_2,go,500.0,500.0,1.0,,,,,,,,,white,circle
0.0,2.0,1.0,0.0,6.0,6.0,647.8106690001368,6.0,1.0,phase_2,go,500.0,500.0,1.0,,,,,,,,,green,I
0.0,3.0,2.0,0.0,6.0,6.0,605.1288600001499,6.0,1.0,phase_2,go,500.0,500.0,1.0,,,,,,,,,gray,flipped triangle
0.0,8.0,4.0,1.0,5.0,0.0,0.0,6.0,1.0,phase_2,stop,500.0,500.0,4.0,,,,,,,,,magenta,hexagon
0.0,3.0,2.0,0.0,5.0,5.0,547.977985000216,6.0,1.0,phase_2,go,550.0,500.0,1.0,,,,,,,,,gray,flipped triangle
0.0,1.0,0.5,0.0,6.0,6.0,712.1206490000986,6.0,1.0,phase_2,go,550.0,500.0,1.0,,,,,,,,,orange,triangle
0.0,3.0,2.0,0.0,6.0,6.0,608.1488689997059,6.0,1.0,phase_2,go,550.0,500.0,1.0,,,,,,,,,gray,flipped triangle
0.0,1.0,0.5,0.0,6.0,6.0,684.2723790005039,6.0,1.0,phase_2,go,550.0,500.0,1.0,,,,,,,,,orange,triangle
0.0,5.0,0.5,1.0,5.0,0.0,0.0,6.0,1.0,phase_2,stop,550.0,500.0,4.0,,,,,,,,,blue,diamond
0.0,2.0,1.0,0.0,6.0,6.0,591.5040099998805,6.0,1.0,phase_2,go,600.0,500.0,1.0,,,,,,,,,green,I
0.0,7.0,2.0,1.0,6.0,0.0,0.0,6.0,1.0,phase_2,stop,600.0,500.0,4.0,,,,,,,,,cyan,cross
0.0,3.0,2.0,0.0,6.0,6.0,423.8515240003835,6.0,1.0,phase_2,go,600.0,550.0,1.0,,,,,,,,,gray,flipped triangle
0.0,6.0,1.0,1.0,5.0,5.0,471.3396200004354,6.0,1.0,phase_2,stop,600.0,550.0,3.0,,,,,,,,,yellow,square
0.0,3.0,2.0,0.0,6.0,6.0,507.1334210006171,6.0,1.0,phase_2,go,550.0,550.0,1.0,,,,,,,,,gray,flipped triangle
0.0,2.0,1.0,0.0,5.0,5.0,455.555896000078,7.0,1.0,phase_2,go,550.0,550.0,1.0,,,,,,,,,green,I
0.0,5.0,0.5,1.0,6.0,0.0,0.0,7.0,1.0,phase_2,stop,550.0,550.0,4.0,,,,,,,,,blue,diamond
0.0,4.0,4.0,0.0,5.0,5.0,514.7817389997726,7.0,1.0,phase_2,go,550.0,600.0,1.0,,,,,,,,,white,circle
0.0,1.0,0.5,0.0,5.0,5.0,733.6501939998925,7.0,1.0,phase_2,go,550.0,600.0,1.0,,,,,,,,,orange,triangle
0.0,7.0,2.0,1.0,6.0,0.0,0.0,7.0,1.0,phase_2,stop,550.0,600.0,4.0,,,,,,,,,cyan,cross
0.0,8.0,4.0,1.0,5.0,5.0,498.2169509994492,7.0,1.0,phase_2,stop,550.0,650.0,3.0,,,,,,,,,magenta,hexagon
0.0,8.0,4.0,1.0,6.0,0.0,0.0,7.0,1.0,phase_2,stop,500.0,650.0,4.0,,,,,,,,,magenta,hexagon
0.0,4.0,4.0,0.0,6.0,6.0,549.9560219996056,7.0,1.0,phase_2,go,500.0,700.0,1.0,,,,,,,,,white,circle
0.0,4.0,4.0,0.0,6.0,6.0,742.8274069998224,7.0,1.0,phase_2,go,500.0,700.0,1.0,,,,,,,,,white,circle
0.0,5.0,0.5,1.0,5.0,5.0,1004.5996970002309,7.0,1.0,phase_2,go,500.0,700.0,1.0,,,,,,,,,blue,diamond
0.0,6.0,1.0,1.0,6.0,6.0,773.6147099994923,7.0,1.0,phase_2,stop,500.0,700.0,3.0,,,,,,,,,yellow,square
0.0,4.0,4.0,0.0,6.0,6.0,377.5985909996961,7.0,1.0,phase_2,go,500.0,650.0,1.0,,,,,,,,,white,circle
0.0,1.0,0.5,0.0,6.0,6.0,363.1317389999822,7.0,1.0,phase_2,go,500.0,650.0,1.0,,,,,,,,,orange,triangle
0.0,1.0,0.5,0.0,6.0,6.0,407.782202000817,7.0,1.0,phase_2,go,500.0,650.0,1.0,,,,,,,,,orange,triangle
0.0,5.0,0.5,1.0,5.0,5.0,405.5694560001939,7.0,1.0,phase_2,go,500.0,650.0,1.0,,,,,,,,,blue,diamond
0.0,5.0,0.5,1.0,5.0,0.0,0.0,7.0,1.0,phase_2,stop,500.0,650.0,4.0,,,,,,,,,blue,diamond
0.0,4.0,4.0,0.0,6.0,6.0,430.0860370003647,7.0,1.0,phase_2,go,550.0,650.0,1.0,,,,,,,,,white,circle
0.0,7.0,2.0,1.0,6.0,6.0,371.6652230004911,7.0,1.0,phase_2,stop,550.0,650.0,3.0,,,,,,,,,cyan,cross
0.0,3.0,2.0,0.0,5.0,5.0,522.0499249999193,7.0,1.0,phase_2,go,550.0,600.0,1.0,,,,,,,,,gray,flipped triangle
0.0,8.0,4.0,1.0,6.0,6.0,747.5767480000286,7.0,1.0,phase_2,stop,550.0,600.0,3.0,,,,,,,,,magenta,hexagon
0.0,4.0,4.0,0.0,5.0,5.0,326.341572000274,7.0,1.0,phase_2,go,550.0,550.0,1.0,,,,,,,,,white,circle
0.0,1.0,0.5,0.0,6.0,6.0,729.2887339999652,7.0,1.0,phase_2,go,550.0,550.0,1.0,,,,,,,,,orange,triangle
0.0,5.0,0.5,1.0,5.0,5.0,387.8944010002669,7.0,1.0,phase_2,stop,550.0,550.0,3.0,,,,,,,,,blue,diamond
0.0,1.0,0.5,0.0,6.0,6.0,991.0963339998488,7.0,1.0,phase_2,go,500.0,550.0,1.0,,,,,,,,,orange,triangle
0.0,3.0,2.0,0.0,6.0,6.0,455.6831959998817,7.0,1.0,phase_2,go,500.0,550.0,1.0,,,,,,,,,gray,flipped triangle
0.0,8.0,4.0,1.0,5.0,0.0,0.0,7.0,1.0,phase_2,stop,500.0,550.0,4.0,,,,,,,,,magenta,hexagon
0.0,7.0,2.0,1.0,5.0,5.0,729.3630909998683,7.0,1.0,phase_2,stop,550.0,550.0,3.0,,,,,,,,,cyan,cross
0.0,4.0,4.0,0.0,6.0,6.0,399.972752999929,7.0,1.0,phase_2,go,500.0,550.0,1.0,,,,,,,,,white,circle
0.0,7.0,2.0,1.0,5.0,5.0,322.0739829994272,7.0,1.0,phase_2,stop,500.0,550.0,3.0,,,,,,,,,cyan,cross
0.0,1.0,0.5,0.0,6.0,6.0,901.1541059999216,7.0,1.0,phase_2,go,450.0,550.0,1.0,,,,,,,,,orange,triangle
0.0,7.0,2.0,1.0,6.0,0.0,0.0,7.0,1.0,phase_2,stop,450.0,550.0,4.0,,,,,,,,,cyan,cross
0.0,2.0,1.0,0.0,6.0,6.0,505.7125179991999,7.0,1.0,phase_2,go,450.0,600.0,1.0,,,,,,,,,green,I
0.0,1.0,0.5,0.0,5.0,5.0,1040.8661080000456,7.0,1.0,phase_2,go,450.0,600.0,1.0,,,,,,,,,orange,triangle
0.0,3.0,2.0,0.0,6.0,6.0,382.0061169999462,7.0,1.0,phase_2,go,450.0,600.0,1.0,,,,,,,,,gray,flipped triangle
0.0,8.0,4.0,1.0,6.0,0.0,0.0,7.0,1.0,phase_2,stop,450.0,600.0,4.0,,,,,,,,,magenta,hexagon
0.0,6.0,1.0,1.0,6.0,6.0,575.61978800004,7.0,1.0,phase_2,stop,450.0,650.0,3.0,,,,,,,,,yellow,square
0.0,8.0,4.0,1.0,6.0,6.0,466.2825239993253,8.0,1.0,phase_2,stop,450.0,600.0,3.0,,,,,,,,,magenta,hexagon
0.0,6.0,1.0,1.0,5.0,5.0,560.3038059998653,8.0,1.0,phase_2,go,450.0,550.0,1.0,,,,,,,,,yellow,square
0.0,6.0,1.0,1.0,6.0,6.0,522.8380580001613,8.0,1.0,phase_2,stop,450.0,550.0,3.0,,,,,,,,,yellow,square
0.0,6.0,1.0,1.0,5.0,5.0,670.12239900032,8.0,1.0,phase_2,stop,450.0,500.0,3.0,,,,,,,,,yellow,square
0.0,3.0,2.0,0.0,6.0,6.0,559.8338049994709,8.0,1.0,phase_2,go,400.0,500.0,1.0,,,,,,,,,gray,flipped triangle
0.0,4.0,4.0,0.0,6.0,6.0,430.3284979996533,8.0,1.0,phase_2,go,400.0,500.0,1.0,,,,,,,,,white,circle
0.0,3.0,2.0,0.0,5.0,5.0,498.5337919997619,8.0,1.0,phase_2,go,400.0,500.0,1.0,,,,,,,,,gray,flipped triangle
0.0,6.0,1.0,1.0,5.0,5.0,948.7524269998177,8.0,1.0,phase_2,go,400.0,500.0,1.0,,,,,,,,,yellow,square
0.0,1.0,0.5,0.0,6.0,6.0,593.8710700002048,8.0,1.0,phase_2,go,400.0,500.0,1.0,,,,,,,,,orange,triangle
0.0,2.0,1.0,0.0,5.0,5.0,631.7725779999819,8.0,1.0,phase_2,go,400.0,500.0,1.0,,,,,,,,,green,I
0.0,2.0,1.0,0.0,6.0,6.0,480.6024170002274,8.0,1.0,phase_2,go,400.0,500.0,1.0,,,,,,,,,green,I
0.0,6.0,1.0,1.0,6.0,0.0,0.0,8.0,1.0,phase_2,stop,400.0,500.0,4.0,,,,,,,,,yellow,square
0.0,4.0,4.0,0.0,5.0,5.0,565.2634689995466,8.0,1.0,phase_2,go,400.0,550.0,1.0,,,,,,,,,white,circle
0.0,7.0,2.0,1.0,6.0,6.0,964.4946620001064,8.0,1.0,phase_2,go,400.0,550.0,1.0,,,,,,,,,cyan,cross
0.0,2.0,1.0,0.0,5.0,5.0,364.580255999499,8.0,1.0,phase_2,go,400.0,550.0,1.0,,,,,,,,,green,I
0.0,6.0,1.0,1.0,6.0,0.0,0.0,8.0,1.0,phase_2,stop,400.0,550.0,4.0,,,,,,,,,yellow,square
0.0,7.0,2.0,1.0,6.0,0.0,0.0,8.0,1.0,phase_2,stop,400.0,600.0,4.0,,,,,,,,,cyan,cross
0.0,8.0,4.0,1.0,6.0,0.0,0.0,8.0,1.0,phase_2,stop,400.0,650.0,4.0,,,,,,,,,magenta,hexagon
0.0,3.0,2.0,0.0,5.0,5.0,525.1066809996701,8.0,1.0,phase_2,go,400.0,700.0,1.0,,,,,,,,,gray,flipped triangle
0.0,3.0,2.0,0.0,6.0,6.0,377.0350820004751,8.0,1.0,phase_2,go,400.0,700.0,1.0,,,,,,,,,gray,flipped triangle
0.0,7.0,2.0,1.0,5.0,5.0,1030.3327569999965,8.0,1.0,phase_2,go,400.0,700.0,1.0,,,,,,,,,cyan,cross
0.0,1.0,0.5,0.0,5.0,5.0,621.5434790001382,8.0,1.0,phase_2,go,400.0,700.0,1.0,,,,,,,,,orange,triangle
0.0,4.0,4.0,0.0,6.0,6.0,461.2803979998716,8.0,1.0,phase_2,go,400.0,700.0,1.0,,,,,,,,,white,circle
0.0,7.0,2.0,1.0,5.0,0.0,0.0,8.0,1.0,phase_2,stop,400.0,700.0,4.0,,,,,,,,,cyan,cross
0.0,5.0,0.5,1.0,6.0,6.0,889.9086270002954,8.0,1.0,phase_2,stop,450.0,700.0,3.0,,,,,,,,,blue,diamond
0.0,3.0,2.0,0.0,6.0,6.0,450.1103940001485,8.0,1.0,phase_2,go,450.0,650.0,1.0,,,,,,,,,gray,flipped triangle
0.0,8.0,4.0,1.0,5.0,5.0,1059.4220070006486,8.0,1.0,phase_2,go,450.0,650.0,1.0,,,,,,,,,magenta,hexagon
0.0,8.0,4.0,1.0,5.0,5.0,429.6722039998712,8.0,1.0,phase_2,stop,450.0,650.0,3.0,,,,,,,,,magenta,hexagon
0.0,2.0,1.0,0.0,6.0,6.0,392.6221490000898,8.0,1.0,phase_2,go,400.0,650.0,1.0,,,,,,,,,green,I
0.0,7.0,2.0,1.0,5.0,0.0,0.0,8.0,1.0,phase_2,stop,400.0,650.0,4.0,,,,,,,,,cyan,cross
0.0,5.0,0.5,1.0,6.0,0.0,0.0,8.0,1.0,phase_2,stop,450.0,650.0,4.0,,,,,,,,,blue,diamond
0.0,5.0,0.5,1.0,5.0,5.0,1105.145642000025,8.0,1.0,phase_2,go,450.0,700.0,1.0,,,,,,,,,blue,diamond
0.0,8.0,4.0,1.0,5.0,5.0,905.6515919992308,8.0,1.0,phase_2,go,450.0,700.0,1.0,,,,,,,,,magenta,hexagon
0.0,8.0,4.0,1.0,6.0,0.0,0.0,8.0,1.0,phase_2,stop,450.0,700.0,4.0,,,,,,,,,magenta,hexagon
0.0,5.0,0.5,1.0,6.0,6.0,669.0643980000459,8.0,1.0,phase_2,stop,450.0,750.0,3.0,,,,,,,,,blue,diamond
0.0,5.0,0.5,1.0,6.0,6.0,816.1418409999897,8.0,1.0,phase_2,stop,450.0,700.0,3.0,,,,,,,,,blue,diamond
0.0,6.0,1.0,1.0,7.0,2.0,2144.241267000325,1.0,1.0,phase_3,,,,,147.0,3.0,294.0,147.0,245.0,49.0,196.0,98.0,yellow,square
0.0,7.0,2.0,1.0,7.0,1.0,1065.6700569998063,1.0,1.0,phase_3,,,,,156.0,4.0,156.0,195.0,117.0,234.0,78.0,39.0,cyan,cross
0.0,5.0,0.5,1.0,7.0,5.0,1342.3617190001096,1.0,1.0,phase_3,,,,,264.0,6.0,132.0,176.0,88.0,44.0,264.0,220.0,blue,diamond
0.0,4.0,4.0,0.0,7.0,4.0,2122.368966999602,1.0,1.0,phase_3,,,,,245.0,5.0,98.0,196.0,147.0,245.0,294.0,49.0,white,circle
0.0,8.0,4.0,1.0,7.0,1.0,950.3887560003932,1.0,1.0,phase_3,,,,,147.0,3.0,147.0,49.0,294.0,98.0,245.0,196.0,magenta,hexagon
0.0,4.0,4.0,0.0,7.0,2.0,779.1660539996883,1.0,1.0,phase_3,,,,,162.0,3.0,108.0,162.0,54.0,324.0,270.0,216.0,white,circle
0.0,2.0,1.0,0.0,7.0,4.0,2982.8070869998555,1.0,1.0,phase_3,,,,,39.0,1.0,117.0,234.0,156.0,39.0,78.0,195.0,green,I
0.0,8.0,4.0,1.0,7.0,5.0,1602.763189000143,1.0,1.0,phase_3,,,,,195.0,5.0,78.0,39.0,156.0,117.0,195.0,234.0,magenta,hexagon
0.0,6.0,1.0,1.0,7.0,3.0,2084.721221000109,1.0,1.0,phase_3,,,,,102.0,3.0,136.0,170.0,102.0,204.0,68.0,34.0,yellow,square
0.0,5.0,0.5,1.0,7.0,6.0,1033.9691970002605,1.0,1.0,phase_3,,,,,264.0,6.0,132.0,44.0,220.0,88.0,176.0,264.0,blue,diamond
0.0,1.0,0.5,0.0,7.0,2.0,1073.7032750002982,1.0,1.0,phase_3,,,,,220.0,5.0,176.0,220.0,132.0,88.0,44.0,264.0,orange,triangle
0.0,8.0,4.0,1.0,7.0,3.0,1317.2298189992944,1.0,1.0,phase_3,,,,,195.0,5.0,234.0,117.0,195.0,156.0,78.0,39.0,magenta,hexagon
0.0,1.0,0.5,0.0,7.0,1.0,792.2349200007375,1.0,1.0,phase_3,,,,,195.0,5.0,195.0,234.0,117.0,39.0,156.0,78.0,orange,triangle
0.0,6.0,1.0,1.0,7.0,5.0,1174.480458999824,1.0,1.0,phase_3,,,,,78.0,2.0,195.0,234.0,156.0,117.0,78.0,39.0,yellow,square
0.0,8.0,4.0,1.0,7.0,3.0,1325.9466540002904,1.0,1.0,phase_3,,,,,270.0,5.0,324.0,162.0,270.0,54.0,216.0,108.0,magenta,hexagon
0.0,1.0,0.5,0.0,7.0,6.0,1038.2768010003929,1.0,1.0,phase_3,,,,,324.0,6.0,270.0,162.0,108.0,54.0,216.0,324.0,orange,triangle
0.0,7.0,2.0,1.0,7.0,3.0,1327.9541749998316,1.0,1.0,phase_3,,,,,195.0,5.0,78.0,39.0,195.0,156.0,117.0,234.0,cyan,cross
0.0,1.0,0.5,0.0,7.0,2.0,1567.500700999517,1.0,1.0,phase_3,,,,,132.0,3.0,88.0,132.0,220.0,44.0,176.0,264.0,orange,triangle
0.0,6.0,1.0,1.0,7.0,6.0,1917.4105859992776,1.0,1.0,phase_3,,,,,216.0,4.0,108.0,324.0,270.0,54.0,162.0,216.0,yellow,square
0.0,4.0,4.0,0.0,7.0,4.0,1266.7223899998137,1.0,1.0,phase_3,,,,,98.0,2.0,245.0,49.0,196.0,98.0,147.0,294.0,white,circle
0.0,5.0,0.5,1.0,7.0,3.0,1250.834335000036,2.0,1.0,phase_3,,,,,98.0,2.0,245.0,147.0,98.0,294.0,196.0,49.0,blue,diamond
0.0,3.0,2.0,0.0,7.0,4.0,1358.68977500013,2.0,1.0,phase_3,,,,,234.0,6.0,39.0,78.0,195.0,234.0,117.0,156.0,gray,flipped triangle
0.0,1.0,0.5,0.0,7.0,5.0,1517.9894709999644,2.0,1.0,phase_3,,,,,98.0,2.0,196.0,245.0,147.0,49.0,98.0,294.0,orange,triangle
0.0,8.0,4.0,1.0,7.0,6.0,1711.877738000112,2.0,1.0,phase_3,,,,,196.0,4.0,98.0,245.0,294.0,147.0,49.0,196.0,magenta,hexagon
0.0,2.0,1.0,0.0,7.0,1.0,801.2394609995681,2.0,1.0,phase_3,,,,,147.0,3.0,147.0,196.0,245.0,294.0,98.0,49.0,green,I
0.0,7.0,2.0,1.0,7.0,2.0,2336.3156030000027,2.0,1.0,phase_3,,,,,102.0,3.0,204.0,102.0,34.0,68.0,170.0,136.0,cyan,cross
0.0,1.0,0.5,0.0,7.0,6.0,1313.5409059996164,2.0,1.0,phase_3,,,,,117.0,3.0,195.0,156.0,39.0,234.0,78.0,117.0,orange,triangle
0.0,5.0,0.5,1.0,7.0,3.0,1206.499740000254,2.0,1.0,phase_3,,,,,196.0,4.0,294.0,245.0,196.0,98.0,49.0,147.0,blue,diamond
0.0,1.0,0.5,0.0,7.0,3.0,1361.778907000371,2.0,1.0,phase_3,,,,,245.0,5.0,294.0,49.0,245.0,147.0,98.0,196.0,orange,triangle
0.0,5.0,0.5,1.0,7.0,5.0,1708.6519980002777,2.0,1.0,phase_3,,,,,39.0,1.0,78.0,117.0,234.0,195.0,39.0,156.0,blue,diamond
0.0,4.0,4.0,0.0,7.0,6.0,2030.0692399996478,2.0,1.0,phase_3,,,,,39.0,1.0,156.0,234.0,117.0,195.0,78.0,39.0,white,circle
0.0,8.0,4.0,1.0,7.0,2.0,816.9487650002338,2.0,1.0,phase_3,,,,,162.0,3.0,324.0,162.0,216.0,108.0,270.0,54.0,magenta,hexagon
0.0,7.0,2.0,1.0,7.0,3.0,1182.0192959994529,2.0,1.0,phase_3,,,,,270.0,5.0,324.0,54.0,270.0,216.0,162.0,108.0,cyan,cross
0.0,7.0,2.0,1.0,7.0,1.0,772.6262090000091,2.0,1.0,phase_3,,,,,270.0,5.0,270.0,108.0,324.0,162.0,216.0,54.0,cyan,cross
0.0,6.0,1.0,1.0,7.0,5.0,2262.085721999938,2.0,1.0,phase_3,,,,,136.0,4.0,170.0,102.0,204.0,68.0,136.0,34.0,yellow,square
0.0,5.0,0.5,1.0,7.0,4.0,1992.788532999839,2.0,1.0,phase_3,,,,,195.0,5.0,39.0,156.0,78.0,195.0,117.0,234.0,blue,diamond
0.0,1.0,0.5,0.0,7.0,2.0,2091.962323000189,2.0,1.0,phase_3,,,,,170.0,5.0,34.0,170.0,136.0,102.0,68.0,204.0,orange,triangle
0.0,6.0,1.0,1.0,7.0,6.0,1943.0185729997904,2.0,1.0,phase_3,,,,,216.0,4.0,162.0,108.0,54.0,270.0,324.0,216.0,yellow,square
0.0,4.0,4.0,0.0,7.0,1.0,644.0087689998109,2.0,1.0,phase_3,,,,,220.0,5.0,220.0,176.0,264.0,88.0,44.0,132.0,white,circle
0.0,4.0,4.0,0.0,7.0,4.0,2279.165997999371,2.0,1.0,phase_3,,,,,68.0,2.0,170.0,204.0,102.0,68.0,136.0,34.0,white,circle
0.0,3.0,2.0,0.0,7.0,1.0,782.8134970004612,3.0,1.0,phase_3,,,,,68.0,2.0,68.0,170.0,204.0,102.0,34.0,136.0,gray,flipped triangle
0.0,3.0,2.0,0.0,7.0,5.0,856.6912370006321,3.0,1.0,phase_3,,,,,68.0,2.0,34.0,204.0,170.0,102.0,68.0,136.0,gray,flipped triangle
0.0,7.0,2.0,1.0,7.0,3.0,1156.513334999545,3.0,1.0,phase_3,,,,,136.0,4.0,34.0,68.0,136.0,102.0,170.0,204.0,cyan,cross
0.0,1.0,0.5,0.0,7.0,6.0,698.6265240002467,3.0,1.0,phase_3,,,,,170.0,5.0,102.0,204.0,34.0,136.0,68.0,170.0,orange,triangle
0.0,5.0,0.5,1.0,7.0,2.0,859.4215050006824,3.0,1.0,phase_3,,,,,270.0,5.0,162.0,270.0,216.0,324.0,108.0,54.0,blue,diamond
0.0,3.0,2.0,0.0,7.0,5.0,731.157481000082,3.0,1.0,phase_3,,,,,270.0,5.0,216.0,108.0,324.0,54.0,270.0,162.0,gray,flipped triangle
0.0,8.0,4.0,1.0,7.0,4.0,1032.6442369996585,3.0,1.0,phase_3,,,,,68.0,2.0,136.0,204.0,34.0,68.0,170.0,102.0,magenta,hexagon
0.0,6.0,1.0,1.0,7.0,2.0,1287.1852079997552,3.0,1.0,phase_3,,,,,147.0,3.0,49.0,147.0,98.0,245.0,196.0,294.0,yellow,square
0.0,7.0,2.0,1.0,7.0,5.0,1409.7624980004184,3.0,1.0,phase_3,,,,,44.0,1.0,176.0,264.0,132.0,220.0,44.0,88.0,cyan,cross
0.0,5.0,0.5,1.0,7.0,6.0,1143.8759550001123,3.0,1.0,phase_3,,,,,204.0,6.0,68.0,102.0,34.0,170.0,136.0,204.0,blue,diamond
0.0,7.0,2.0,1.0,7.0,3.0,549.2103769993264,3.0,1.0,phase_3,,,,,147.0,3.0,196.0,98.0,147.0,49.0,294.0,245.0,cyan,cross
0.0,2.0,1.0,0.0,7.0,1.0,652.6580879999528,3.0,1.0,phase_3,,,,,88.0,2.0,88.0,220.0,264.0,44.0,132.0,176.0,green,I
0.0,8.0,4.0,1.0,7.0,2.0,1391.064878999714,3.0,1.0,phase_3,,,,,132.0,3.0,44.0,132.0,220.0,88.0,176.0,264.0,magenta,hexagon
0.0,3.0,2.0,0.0,7.0,6.0,903.4582630001752,3.0,1.0,phase_3,,,,,176.0,4.0,220.0,264.0,44.0,132.0,88.0,176.0,gray,flipped triangle
0.0,5.0,0.5,1.0,7.0,5.0,1435.0973640002849,3.0,1.0,phase_3,,,,,34.0,1.0,68.0,204.0,170.0,136.0,34.0,102.0,blue,diamond
0.0,6.0,1.0,1.0,7.0,6.0,1696.3477070003137,3.0,1.0,phase_3,,,,,220.0,5.0,88.0,264.0,132.0,44.0,176.0,220.0,yellow,square
0.0,4.0,4.0,0.0,7.0,2.0,1107.686405000095,3.0,1.0,phase_3,,,,,68.0,2.0,204.0,68.0,136.0,102.0,34.0,170.0,white,circle
0.0,4.0,4.0,0.0,7.0,3.0,1781.4201759993011,3.0,1.0,phase_3,,,,,176.0,4.0,264.0,88.0,176.0,44.0,132.0,220.0,white,circle
0.0,7.0,2.0,1.0,7.0,6.0,1749.7552750000978,3.0,1.0,phase_3,,,,,44.0,1.0,176.0,220.0,264.0,88.0,132.0,44.0,cyan,cross
0.0,6.0,1.0,1.0,7.0,3.0,2439.930254999126,3.0,1.0,phase_3,,,,,44.0,1.0,132.0,88.0,44.0,220.0,264.0,176.0,yellow,square
0.0,1.0,0.5,0.0,7.0,1.0,1160.2866479997829,4.0,1.0,phase_3,,,,,54.0,1.0,54.0,216.0,270.0,324.0,162.0,108.0,orange,triangle
0.0,3.0,2.0,0.0,7.0,3.0,1085.5362870006502,4.0,1.0,phase_3,,,,,245.0,5.0,147.0,294.0,245.0,49.0,196.0,98.0,gray,flipped triangle
0.0,7.0,2.0,1.0,7.0,5.0,1008.2122370004072,4.0,1.0,phase_3,,,,,196.0,4.0,49.0,147.0,294.0,245.0,196.0,98.0,cyan,cross
0.0,8.0,4.0,1.0,7.0,2.0,740.0314679998701,4.0,1.0,phase_3,,,,,68.0,2.0,34.0,68.0,102.0,136.0,204.0,170.0,magenta,hexagon
0.0,2.0,1.0,0.0,7.0,4.0,741.2996540006134,4.0,1.0,phase_3,,,,,195.0,5.0,78.0,117.0,156.0,195.0,39.0,234.0,green,I
0.0,3.0,2.0,0.0,7.0,6.0,691.3209450003706,4.0,1.0,phase_3,,,,,147.0,3.0,196.0,98.0,49.0,245.0,294.0,147.0,gray,flipped triangle
0.0,2.0,1.0,0.0,7.0,4.0,1687.498945999323,4.0,1.0,phase_3,,,,,44.0,1.0,132.0,88.0,220.0,44.0,176.0,264.0,green,I
0.0,2.0,1.0,0.0,7.0,5.0,1697.477274999983,4.0,1.0,phase_3,,,,,49.0,1.0,98.0,147.0,294.0,245.0,49.0,196.0,green,I
0.0,3.0,2.0,0.0,7.0,1.0,1093.695800000205,4.0,1.0,phase_3,,,,,88.0,2.0,88.0,264.0,176.0,44.0,220.0,132.0,gray,flipped triangle
0.0,8.0,4.0,1.0,7.0,6.0,484.1055440001582,4.0,1.0,phase_3,,,,,264.0,6.0,88.0,176.0,132.0,44.0,220.0,264.0,magenta,hexagon
0.0,6.0,1.0,1.0,7.0,5.0,604.9264350003796,4.0,1.0,phase_3,,,,,39.0,1.0,234.0,78.0,156.0,117.0,39.0,195.0,yellow,square
0.0,5.0,0.5,1.0,7.0,2.0,533.9498330004062,4.0,1.0,phase_3,,,,,108.0,2.0,54.0,108.0,324.0,162.0,216.0,270.0,blue,diamond
0.0,3.0,2.0,0.0,7.0,3.0,663.3689579994098,4.0,1.0,phase_3,,,,,54.0,1.0,270.0,162.0,54.0,216.0,108.0,324.0,gray,flipped triangle
0.0,2.0,1.0,0.0,7.0,4.0,818.0139250007414,4.0,1.0,phase_3,,,,,216.0,4.0,54.0,324.0,162.0,216.0,108.0,270.0,green,I
0.0,4.0,4.0,0.0,7.0,2.0,1146.4084300005195,4.0,1.0,phase_3,,,,,234.0,6.0,39.0,234.0,195.0,117.0,78.0,156.0,white,circle
0.0,4.0,4.0,0.0,7.0,2.0,1499.4228469995503,4.0,1.0,phase_3,,,,,270.0,5.0,162.0,270.0,108.0,54.0,324.0,216.0,white,circle
0.0,3.0,2.0,0.0,7.0,5.0,1806.3018919992828,4.0,1.0,phase_3,,,,,234.0,6.0,156.0,117.0,78.0,39.0,234.0,195.0,gray,flipped triangle
0.0,2.0,1.0,0.0,7.0,1.0,1293.853291999767,4.0,1.0,phase_3,,,,,270.0,5.0,270.0,108.0,162.0,54.0,324.0,216.0,green,I
0.0,2.0,1.0,0.0,7.0,6.0,1026.4998049997305,4.0,1.0,phase_3,,,,,68.0,2.0,170.0,34.0,136.0,204.0,102.0,68.0,green,I
0.0,2.0,1.0,0.0,7.0,6.0,2065.741856999921,4.0,1.0,phase_3,,,,,170.0,5.0,204.0,136.0,34.0,68.0,102.0,170.0,green,I
