raw_reward_magnitude,stim_reward,stepwise_reward_magnitude,paired_with_stopping,stim_location,response,reaction_time,block,num_trial_presentations,which_phase,stop_signal_trial_type,left_SSD,right_SSD,accuracy,chosen_bidding_amount,chosen_bidding_level,possible_bid_1,possible_bid_2,possible_bid_3,possible_bid_4,possible_bid_5,possible_bid_6,color_text,shape_text
0.0,4.0,0.0,0.0,3.0,3.0,655.9374270000262,1.0,2.0,phase_1,,,,,,,,,,,,,gray,cross
82.0,6.0,1.0,1.0,2.0,2.0,523.6608559998785,1.0,1.0,phase_1,,,,,,,,,,,,,green,diamond
70.0,1.0,0.5,0.0,1.0,1.0,385.4966339999919,1.0,1.0,phase_1,,,,,,,,,,,,,blue,triangle
189.0,7.0,2.0,1.0,4.0,4.0,253.40773100015213,1.0,1.0,phase_1,,,,,,,,,,,,,white,hexagon
0.0,8.0,0.0,1.0,1.0,1.0,290.47421700011,1.0,1.0,phase_1,,,,,,,,,,,,,yellow,I
389.0,8.0,4.0,1.0,2.0,2.0,402.2616239999479,1.0,1.0,phase_1,,,,,,,,,,,,,yellow,I
401.0,4.0,4.0,0.0,1.0,1.0,465.5272019999756,1.0,1.0,phase_1,,,,,,,,,,,,,gray,cross
0.0,7.0,0.0,1.0,3.0,3.0,518.1855980001728,1.0,1.0,phase_1,,,,,,,,,,,,,white,hexagon
83.0,6.0,1.0,1.0,2.0,2.0,359.6663410000928,1.0,1.0,phase_1,,,,,,,,,,,,,green,diamond
178.0,7.0,2.0,1.0,3.0,3.0,363.02381800010147,1.0,1.0,phase_1,,,,,,,,,,,,,white,hexagon
210.0,7.0,2.0,1.0,1.0,1.0,326.8568329999652,1.0,1.0,phase_1,,,,,,,,,,,,,white,hexagon
192.0,3.0,2.0,0.0,4.0,4.0,473.1166280000707,1.0,1.0,phase_1,,,,,,,,,,,,,magenta,circle
198.0,3.0,2.0,0.0,4.0,4.0,310.2759010000682,1.0,1.0,phase_1,,,,,,,,,,,,,magenta,circle
218.0,7.0,2.0,1.0,2.0,2.0,270.6679840000561,1.0,1.0,phase_1,,,,,,,,,,,,,white,hexagon
38.0,1.0,0.5,0.0,1.0,1.0,355.3948549999859,1.0,1.0,phase_1,,,,,,,,,,,,,blue,triangle
26.0,5.0,0.5,1.0,3.0,3.0,323.2311310000568,1.0,1.0,phase_1,,,,,,,,,,,,,orange,flipped triangle
416.0,4.0,4.0,0.0,1.0,1.0,295.9979180000118,1.0,1.0,phase_1,,,,,,,,,,,,,gray,cross
38.0,1.0,0.5,0.0,4.0,4.0,302.686169000026,1.0,1.0,phase_1,,,,,,,,,,,,,blue,triangle
0.0,6.0,0.0,1.0,3.0,3.0,322.5852519999534,1.0,1.0,phase_1,,,,,,,,,,,,,green,diamond
71.0,5.0,0.5,1.0,3.0,3.0,340.5147080000006,1.0,1.0,phase_1,,,,,,,,,,,,,orange,flipped triangle
38.0,5.0,0.5,1.0,1.0,1.0,530.7701320000433,1.0,1.0,phase_1,,,,,,,,,,,,,orange,flipped triangle
92.0,2.0,1.0,0.0,1.0,1.0,422.1837509999204,1.0,1.0,phase_1,,,,,,,,,,,,,cyan,square
63.0,1.0,0.5,0.0,2.0,2.0,392.9663060000621,1.0,1.0,phase_1,,,,,,,,,,,,,blue,triangle
198.0,7.0,2.0,1.0,1.0,1.0,327.124835999939,1.0,1.0,phase_1,,,,,,,,,,,,,white,hexagon
0.0,5.0,0.0,1.0,2.0,2.0,315.4454470000019,1.0,1.0,phase_1,,,,,,,,,,,,,orange,flipped triangle
206.0,7.0,2.0,1.0,2.0,2.0,309.69415200002,1.0,1.0,phase_1,,,,,,,,,,,,,white,hexagon
109.0,2.0,1.0,0.0,3.0,3.0,324.1825309999058,1.0,1.0,phase_1,,,,,,,,,,,,,cyan,square
199.0,3.0,2.0,0.0,1.0,1.0,329.2809419999685,1.0,1.0,phase_1,,,,,,,,,,,,,magenta,circle
196.0,3.0,2.0,0.0,3.0,3.0,345.6165929999315,1.0,1.0,phase_1,,,,,,,,,,,,,magenta,circle
424.0,8.0,4.0,1.0,4.0,4.0,307.9756010001802,1.0,1.0,phase_1,,,,,,,,,,,,,yellow,I
401.0,8.0,4.0,1.0,4.0,4.0,307.8670019999663,1.0,1.0,phase_1,,,,,,,,,,,,,yellow,I
90.0,6.0,1.0,1.0,1.0,1.0,329.4462139999723,1.0,1.0,phase_1,,,,,,,,,,,,,green,diamond
206.0,3.0,2.0,0.0,2.0,2.0,368.888011999843,1.0,1.0,phase_1,,,,,,,,,,,,,magenta,circle
0.0,3.0,0.0,0.0,2.0,2.0,359.2607180000868,1.0,1.0,phase_1,,,,,,,,,,,,,magenta,circle
213.0,3.0,2.0,0.0,2.0,2.0,302.5988119998146,1.0,1.0,phase_1,,,,,,,,,,,,,magenta,circle
0.0,6.0,0.0,1.0,3.0,3.0,345.3131260000646,1.0,1.0,phase_1,,,,,,,,,,,,,green,diamond
202.0,3.0,2.0,0.0,4.0,4.0,321.6885780000211,1.0,2.0,phase_1,,,,,,,,,,,,,magenta,circle
0.0,3.0,0.0,0.0,2.0,2.0,300.9347170000183,1.0,1.0,phase_1,,,,,,,,,,,,,magenta,circle
117.0,2.0,1.0,0.0,4.0,4.0,239.7089219998633,1.0,1.0,phase_1,,,,,,,,,,,,,cyan,square
0.0,6.0,0.0,1.0,2.0,2.0,243.3403540001109,1.0,1.0,phase_1,,,,,,,,,,,,,green,diamond
0.0,7.0,0.0,1.0,2.0,2.0,334.8172549999617,1.0,1.0,phase_1,,,,,,,,,,,,,white,hexagon
115.0,6.0,1.0,1.0,3.0,3.0,351.6444130000309,1.0,1.0,phase_1,,,,,,,,,,,,,green,diamond
51.0,5.0,0.5,1.0,3.0,3.0,364.0446629999587,1.0,1.0,phase_1,,,,,,,,,,,,,orange,flipped triangle
0.0,5.0,0.0,1.0,1.0,1.0,388.0777399999715,1.0,2.0,phase_1,,,,,,,,,,,,,orange,flipped triangle
42.0,1.0,0.5,0.0,2.0,2.0,366.6332010000133,1.0,1.0,phase_1,,,,,,,,,,,,,blue,triangle
106.0,2.0,1.0,0.0,2.0,2.0,309.6593750001375,1.0,1.0,phase_1,,,,,,,,,,,,,cyan,square
425.0,4.0,4.0,0.0,1.0,1.0,375.9845109998423,1.0,1.0,phase_1,,,,,,,,,,,,,gray,cross
123.0,2.0,1.0,0.0,1.0,1.0,321.368227999983,1.0,1.0,phase_1,,,,,,,,,,,,,cyan,square
0.0,7.0,0.0,1.0,3.0,3.0,418.9366220000465,1.0,1.0,phase_1,,,,,,,,,,,,,white,hexagon
70.0,1.0,0.5,0.0,4.0,4.0,492.4889479998455,1.0,1.0,phase_1,,,,,,,,,,,,,blue,triangle
406.0,8.0,4.0,1.0,3.0,3.0,411.2590419999833,1.0,1.0,phase_1,,,,,,,,,,,,,yellow,I
87.0,2.0,1.0,0.0,1.0,1.0,381.6758620000655,1.0,1.0,phase_1,,,,,,,,,,,,,cyan,square
32.0,1.0,0.5,0.0,3.0,3.0,343.5503440000502,1.0,1.0,phase_1,,,,,,,,,,,,,blue,triangle
204.0,3.0,2.0,0.0,4.0,4.0,294.1448680001031,1.0,1.0,phase_1,,,,,,,,,,,,,magenta,circle
208.0,3.0,2.0,0.0,2.0,2.0,522.111569000117,1.0,1.0,phase_1,,,,,,,,,,,,,magenta,circle
410.0,4.0,4.0,0.0,3.0,3.0,405.921176999982,1.0,1.0,phase_1,,,,,,,,,,,,,gray,cross
0.0,8.0,0.0,1.0,2.0,2.0,291.2595800000872,1.0,1.0,phase_1,,,,,,,,,,,,,yellow,I
113.0,2.0,1.0,0.0,4.0,4.0,493.5522159998982,1.0,1.0,phase_1,,,,,,,,,,,,,cyan,square
379.0,4.0,4.0,0.0,3.0,3.0,376.2679970000135,1.0,1.0,phase_1,,,,,,,,,,,,,gray,cross
89.0,6.0,1.0,1.0,1.0,1.0,303.3557339999788,1.0,1.0,phase_1,,,,,,,,,,,,,green,diamond
27.0,1.0,0.5,0.0,3.0,3.0,336.0088310000719,1.0,1.0,phase_1,,,,,,,,,,,,,blue,triangle
0.0,6.0,0.0,1.0,2.0,2.0,336.3937669998904,1.0,1.0,phase_1,,,,,,,,,,,,,green,diamond
382.0,4.0,4.0,0.0,4.0,4.0,334.0820440000698,1.0,1.0,phase_1,,,,,,,,,,,,,gray,cross
384.0,8.0,4.0,1.0,4.0,4.0,341.6248170001381,1.0,2.0,phase_1,,,,,,,,,,,,,yellow,I
0.0,2.0,0.0,0.0,2.0,2.0,354.0147470000647,1.0,1.0,phase_1,,,,,,,,,,,,,cyan,square
112.0,6.0,1.0,1.0,3.0,3.0,314.1559769999276,1.0,1.0,phase_1,,,,,,,,,,,,,green,diamond
401.0,8.0,4.0,1.0,3.0,3.0,328.4938389999752,1.0,1.0,phase_1,,,,,,,,,,,,,yellow,I
405.0,4.0,4.0,0.0,3.0,3.0,347.7612469998803,1.0,1.0,phase_1,,,,,,,,,,,,,gray,cross
211.0,7.0,2.0,1.0,4.0,4.0,304.7679399999197,1.0,1.0,phase_1,,,,,,,,,,,,,white,hexagon
425.0,8.0,4.0,1.0,4.0,4.0,320.8573229999274,1.0,1.0,phase_1,,,,,,,,,,,,,yellow,I
88.0,2.0,1.0,0.0,2.0,2.0,273.039615000016,1.0,1.0,phase_1,,,,,,,,,,,,,cyan,square
26.0,1.0,0.5,0.0,4.0,4.0,267.2756370000115,1.0,1.0,phase_1,,,,,,,,,,,,,blue,triangle
46.0,5.0,0.5,1.0,4.0,4.0,411.6551690001415,1.0,1.0,phase_1,,,,,,,,,,,,,orange,flipped triangle
87.0,6.0,1.0,1.0,4.0,4.0,329.8376309999185,1.0,1.0,phase_1,,,,,,,,,,,,,green,diamond
211.0,3.0,2.0,0.0,2.0,2.0,305.5898909999541,1.0,1.0,phase_1,,,,,,,,,,,,,magenta,circle
101.0,6.0,1.0,1.0,4.0,4.0,386.5380490001371,1.0,1.0,phase_1,,,,,,,,,,,,,green,diamond
0.0,6.0,0.0,1.0,1.0,1.0,329.4777050000448,1.0,2.0,phase_1,,,,,,,,,,,,,green,diamond
419.0,4.0,4.0,0.0,4.0,4.0,316.9826959999682,1.0,1.0,phase_1,,,,,,,,,,,,,gray,cross
0.0,2.0,0.0,0.0,4.0,4.0,328.8699039999301,1.0,1.0,phase_1,,,,,,,,,,,,,cyan,square
192.0,7.0,2.0,1.0,1.0,1.0,434.3671279998489,1.0,1.0,phase_1,,,,,,,,,,,,,white,hexagon
117.0,2.0,1.0,0.0,1.0,1.0,297.0712970000022,1.0,1.0,phase_1,,,,,,,,,,,,,cyan,square
220.0,3.0,2.0,0.0,4.0,4.0,269.4394240002111,1.0,1.0,phase_1,,,,,,,,,,,,,magenta,circle
424.0,4.0,4.0,0.0,1.0,1.0,343.9568920000511,1.0,1.0,phase_1,,,,,,,,,,,,,gray,cross
207.0,7.0,2.0,1.0,4.0,4.0,429.036797000208,1.0,2.0,phase_1,,,,,,,,,,,,,white,hexagon
221.0,7.0,2.0,1.0,2.0,2.0,323.3388450000802,1.0,1.0,phase_1,,,,,,,,,,,,,white,hexagon
223.0,7.0,2.0,1.0,4.0,4.0,415.0063299998692,1.0,1.0,phase_1,,,,,,,,,,,,,white,hexagon
412.0,4.0,4.0,0.0,3.0,3.0,448.9943190001213,1.0,1.0,phase_1,,,,,,,,,,,,,gray,cross
117.0,2.0,1.0,0.0,4.0,4.0,347.6764749998438,1.0,2.0,phase_1,,,,,,,,,,,,,cyan,square
0.0,4.0,0.0,0.0,4.0,4.0,302.5805659999605,1.0,1.0,phase_1,,,,,,,,,,,,,gray,cross
408.0,4.0,4.0,0.0,3.0,3.0,388.9017159999639,1.0,1.0,phase_1,,,,,,,,,,,,,gray,cross
68.0,5.0,0.5,1.0,1.0,1.0,479.5255800001996,1.0,1.0,phase_1,,,,,,,,,,,,,orange,flipped triangle
381.0,4.0,4.0,0.0,4.0,4.0,329.7431480000341,1.0,1.0,phase_1,,,,,,,,,,,,,gray,cross
414.0,8.0,4.0,1.0,2.0,2.0,310.8577739999418,1.0,1.0,phase_1,,,,,,,,,,,,,yellow,I
188.0,7.0,2.0,1.0,4.0,4.0,327.9057530000955,1.0,1.0,phase_1,,,,,,,,,,,,,white,hexagon
58.0,1.0,0.5,0.0,2.0,2.0,344.6710079999775,1.0,1.0,phase_1,,,,,,,,,,,,,blue,triangle
0.0,1.0,0.0,0.0,2.0,2.0,319.7870670001066,1.0,1.0,phase_1,,,,,,,,,,,,,blue,triangle
0.0,7.0,0.0,1.0,1.0,1.0,276.6540800000712,1.0,1.0,phase_1,,,,,,,,,,,,,white,hexagon
32.0,5.0,0.5,1.0,4.0,4.0,316.4127350000854,1.0,1.0,phase_1,,,,,,,,,,,,,orange,flipped triangle
185.0,7.0,2.0,1.0,3.0,3.0,384.2814519998683,1.0,1.0,phase_1,,,,,,,,,,,,,white,hexagon
215.0,3.0,2.0,0.0,1.0,1.0,352.2386679999272,1.0,1.0,phase_1,,,,,,,,,,,,,magenta,circle
198.0,3.0,2.0,0.0,2.0,2.0,774.6670389999508,2.0,1.0,phase_1,,,,,,,,,,,,,magenta,circle
66.0,5.0,0.5,1.0,4.0,4.0,406.438418000107,2.0,1.0,phase_1,,,,,,,,,,,,,orange,flipped triangle
0.0,1.0,0.0,0.0,3.0,3.0,373.2931890001509,2.0,1.0,phase_1,,,,,,,,,,,,,blue,triangle
0.0,5.0,0.0,1.0,3.0,3.0,368.615783999985,2.0,1.0,phase_1,,,,,,,,,,,,,orange,flipped triangle
0.0,3.0,0.0,0.0,1.0,1.0,288.6909130002095,2.0,1.0,phase_1,,,,,,,,,,,,,magenta,circle
106.0,2.0,1.0,0.0,1.0,1.0,295.47657300008717,2.0,2.0,phase_1,,,,,,,,,,,,,cyan,square
182.0,7.0,2.0,1.0,4.0,4.0,512.6220489999014,2.0,1.0,phase_1,,,,,,,,,,,,,white,hexagon
72.0,5.0,0.5,1.0,3.0,3.0,456.9218569999975,2.0,1.0,phase_1,,,,,,,,,,,,,orange,flipped triangle
0.0,2.0,0.0,0.0,1.0,1.0,535.746164000102,2.0,1.0,phase_1,,,,,,,,,,,,,cyan,square
0.0,3.0,0.0,0.0,2.0,2.0,397.353245999966,2.0,1.0,phase_1,,,,,,,,,,,,,magenta,circle
0.0,8.0,0.0,1.0,4.0,4.0,348.2873220000329,2.0,1.0,phase_1,,,,,,,,,,,,,yellow,I
112.0,2.0,1.0,0.0,3.0,3.0,394.7933639999519,2.0,1.0,phase_1,,,,,,,,,,,,,cyan,square
122.0,6.0,1.0,1.0,4.0,4.0,307.07426999993,2.0,2.0,phase_1,,,,,,,,,,,,,green,diamond
71.0,1.0,0.5,0.0,2.0,2.0,476.9178460001058,2.0,1.0,phase_1,,,,,,,,,,,,,blue,triangle
93.0,2.0,1.0,0.0,4.0,4.0,463.0756550000114,2.0,1.0,phase_1,,,,,,,,,,,,,cyan,square
414.0,4.0,4.0,0.0,2.0,2.0,406.8420359999436,2.0,1.0,phase_1,,,,,,,,,,,,,gray,cross
46.0,5.0,0.5,1.0,2.0,2.0,358.2974089999879,2.0,1.0,phase_1,,,,,,,,,,,,,orange,flipped triangle
77.0,2.0,1.0,0.0,2.0,2.0,460.9189840000454,2.0,1.0,phase_1,,,,,,,,,,,,,cyan,square
0.0,4.0,0.0,0.0,4.0,4.0,394.938257999911,2.0,1.0,phase_1,,,,,,,,,,,,,gray,cross
117.0,6.0,1.0,1.0,2.0,2.0,380.8948030000465,2.0,1.0,phase_1,,,,,,,,,,,,,green,diamond
103.0,6.0,1.0,1.0,4.0,4.0,481.6403950001131,2.0,1.0,phase_1,,,,,,,,,,,,,green,diamond
192.0,7.0,2.0,1.0,1.0,1.0,427.3529179999968,2.0,2.0,phase_1,,,,,,,,,,,,,white,hexagon
111.0,6.0,1.0,1.0,3.0,3.0,556.7698359998303,2.0,1.0,phase_1,,,,,,,,,,,,,green,diamond
0.0,1.0,0.0,0.0,2.0,2.0,331.9058540000696,2.0,1.0,phase_1,,,,,,,,,,,,,blue,triangle
386.0,4.0,4.0,0.0,1.0,1.0,422.162753999828,2.0,1.0,phase_1,,,,,,,,,,,,,gray,cross
403.0,4.0,4.0,0.0,4.0,4.0,454.6456099999432,2.0,1.0,phase_1,,,,,,,,,,,,,gray,cross
0.0,3.0,0.0,0.0,2.0,2.0,279.2294140001559,2.0,1.0,phase_1,,,,,,,,,,,,,magenta,circle
391.0,8.0,4.0,1.0,1.0,1.0,293.8603430000057,2.0,1.0,phase_1,,,,,,,,,,,,,yellow,I
178.0,3.0,2.0,0.0,1.0,1.0,347.8490769998643,2.0,1.0,phase_1,,,,,,,,,,,,,magenta,circle
83.0,2.0,1.0,0.0,3.0,3.0,406.0247820000313,2.0,1.0,phase_1,,,,,,,,,,,,,cyan,square
63.0,5.0,0.5,1.0,2.0,2.0,332.8505650001716,2.0,1.0,phase_1,,,,,,,,,,,,,orange,flipped triangle
46.0,1.0,0.5,0.0,2.0,2.0,297.1091439999327,2.0,1.0,phase_1,,,,,,,,,,,,,blue,triangle
42.0,1.0,0.5,0.0,1.0,1.0,360.9650649998457,2.0,1.0,phase_1,,,,,,,,,,,,,blue,triangle
215.0,3.0,2.0,0.0,3.0,3.0,441.3428880000083,2.0,1.0,phase_1,,,,,,,,,,,,,magenta,circle
0.0,7.0,0.0,1.0,1.0,1.0,310.298487999944,2.0,1.0,phase_1,,,,,,,,,,,,,white,hexagon
405.0,8.0,4.0,1.0,2.0,2.0,291.2965119999171,2.0,1.0,phase_1,,,,,,,,,,,,,yellow,I
192.0,3.0,2.0,0.0,3.0,3.0,422.3801830000866,2.0,1.0,phase_1,,,,,,,,,,,,,magenta,circle
184.0,3.0,2.0,0.0,4.0,4.0,328.6109309999574,2.0,1.0,phase_1,,,,,,,,,,,,,magenta,circle
192.0,7.0,2.0,1.0,3.0,3.0,357.2102390000964,2.0,1.0,phase_1,,,,,,,,,,,,,white,hexagon
77.0,6.0,1.0,1.0,1.0,1.0,490.6640490000882,2.0,1.0,phase_1,,,,,,,,,,,,,green,diamond
28.0,5.0,0.5,1.0,1.0,1.0,585.832352999887,2.0,1.0,phase_1,,,,,,,,,,,,,orange,flipped triangle
0.0,3.0,0.0,0.0,1.0,1.0,457.0912519998273,2.0,1.0,phase_1,,,,,,,,,,,,,magenta,circle
216.0,3.0,2.0,0.0,2.0,2.0,389.04497199996507,2.0,1.0,phase_1,,,,,,,,,,,,,magenta,circle
64.0,5.0,0.5,1.0,1.0,1.0,269.3934890000946,2.0,1.0,phase_1,,,,,,,,,,,,,orange,flipped triangle
419.0,8.0,4.0,1.0,4.0,4.0,694.2429109999466,2.0,1.0,phase_1,,,,,,,,,,,,,yellow,I
0.0,4.0,0.0,0.0,4.0,4.0,367.4920680000468,2.0,1.0,phase_1,,,,,,,,,,,,,gray,cross
76.0,6.0,1.0,1.0,2.0,2.0,327.2095600000284,2.0,1.0,phase_1,,,,,,,,,,,,,green,diamond
381.0,8.0,4.0,1.0,1.0,1.0,372.1665189998475,2.0,2.0,phase_1,,,,,,,,,,,,,yellow,I
395.0,8.0,4.0,1.0,2.0,2.0,464.5336850001058,2.0,1.0,phase_1,,,,,,,,,,,,,yellow,I
391.0,8.0,4.0,1.0,2.0,2.0,389.1202019999582,2.0,1.0,phase_1,,,,,,,,,,,,,yellow,I
0.0,2.0,0.0,0.0,3.0,3.0,381.1012459998437,2.0,1.0,phase_1,,,,,,,,,,,,,cyan,square
68.0,1.0,0.5,0.0,2.0,2.0,578.3837480000784,2.0,1.0,phase_1,,,,,,,,,,,,,blue,triangle
201.0,3.0,2.0,0.0,3.0,3.0,355.2502469999581,2.0,1.0,phase_1,,,,,,,,,,,,,magenta,circle
61.0,5.0,0.5,1.0,3.0,3.0,344.932942000014,2.0,1.0,phase_1,,,,,,,,,,,,,orange,flipped triangle
0.0,2.0,0.0,0.0,4.0,4.0,664.6109600001182,2.0,2.0,phase_1,,,,,,,,,,,,,cyan,square
89.0,2.0,1.0,0.0,3.0,3.0,343.2887679998657,2.0,1.0,phase_1,,,,,,,,,,,,,cyan,square
100.0,2.0,1.0,0.0,2.0,2.0,280.3134359999149,2.0,1.0,phase_1,,,,,,,,,,,,,cyan,square
0.0,3.0,0.0,0.0,2.0,2.0,327.4846389999766,2.0,1.0,phase_1,,,,,,,,,,,,,magenta,circle
99.0,6.0,1.0,1.0,4.0,4.0,312.1021879999262,2.0,2.0,phase_1,,,,,,,,,,,,,green,diamond
184.0,7.0,2.0,1.0,1.0,1.0,743.4735910001109,2.0,1.0,phase_1,,,,,,,,,,,,,white,hexagon
100.0,6.0,1.0,1.0,1.0,1.0,438.3143830000335,2.0,1.0,phase_1,,,,,,,,,,,,,green,diamond
416.0,8.0,4.0,1.0,2.0,2.0,406.0621440000886,2.0,1.0,phase_1,,,,,,,,,,,,,yellow,I
119.0,6.0,1.0,1.0,1.0,1.0,363.4932590000517,2.0,1.0,phase_1,,,,,,,,,,,,,green,diamond
27.0,5.0,0.5,1.0,2.0,2.0,276.9186619998436,2.0,1.0,phase_1,,,,,,,,,,,,,orange,flipped triangle
391.0,4.0,4.0,0.0,4.0,4.0,371.2563970000246,2.0,1.0,phase_1,,,,,,,,,,,,,gray,cross
31.0,5.0,0.5,1.0,1.0,1.0,285.8897260000503,2.0,1.0,phase_1,,,,,,,,,,,,,orange,flipped triangle
0.0,3.0,0.0,0.0,3.0,3.0,413.0080630000066,2.0,1.0,phase_1,,,,,,,,,,,,,magenta,circle
382.0,8.0,4.0,1.0,3.0,3.0,376.2016169998787,2.0,1.0,phase_1,,,,,,,,,,,,,yellow,I
42.0,5.0,0.5,1.0,4.0,4.0,385.2154759999848,2.0,1.0,phase_1,,,,,,,,,,,,,orange,flipped triangle
71.0,5.0,0.5,1.0,4.0,4.0,410.3414389999216,2.0,1.0,phase_1,,,,,,,,,,,,,orange,flipped triangle
61.0,5.0,0.5,1.0,2.0,2.0,370.5745849999857,2.0,1.0,phase_1,,,,,,,,,,,,,orange,flipped triangle
72.0,1.0,0.5,0.0,1.0,1.0,414.1538220001166,2.0,1.0,phase_1,,,,,,,,,,,,,blue,triangle
0.0,2.0,0.0,0.0,1.0,1.0,316.4474829998198,2.0,1.0,phase_1,,,,,,,,,,,,,cyan,square
120.0,2.0,1.0,0.0,4.0,4.0,434.9125109999932,2.0,1.0,phase_1,,,,,,,,,,,,,cyan,square
0.0,2.0,0.0,0.0,4.0,4.0,515.0154650000331,2.0,1.0,phase_1,,,,,,,,,,,,,cyan,square
82.0,2.0,1.0,0.0,4.0,4.0,340.7369560000006,2.0,1.0,phase_1,,,,,,,,,,,,,cyan,square
377.0,4.0,4.0,0.0,4.0,4.0,268.8917840000613,2.0,1.0,phase_1,,,,,,,,,,,,,gray,cross
385.0,8.0,4.0,1.0,4.0,4.0,301.3746700000865,2.0,1.0,phase_1,,,,,,,,,,,,,yellow,I
0.0,2.0,0.0,0.0,1.0,1.0,562.237118999974,2.0,1.0,phase_1,,,,,,,,,,,,,cyan,square
196.0,7.0,2.0,1.0,1.0,1.0,342.8740869999274,2.0,1.0,phase_1,,,,,,,,,,,,,white,hexagon
90.0,2.0,1.0,0.0,4.0,4.0,396.5741419999631,2.0,1.0,phase_1,,,,,,,,,,,,,cyan,square
385.0,4.0,4.0,0.0,3.0,3.0,462.3445849999825,2.0,1.0,phase_1,,,,,,,,,,,,,gray,cross
53.0,5.0,0.5,1.0,1.0,1.0,411.8299100000513,2.0,1.0,phase_1,,,,,,,,,,,,,orange,flipped triangle
120.0,6.0,1.0,1.0,3.0,3.0,317.2431779998987,2.0,1.0,phase_1,,,,,,,,,,,,,green,diamond
98.0,6.0,1.0,1.0,2.0,2.0,367.4756139998862,2.0,1.0,phase_1,,,,,,,,,,,,,green,diamond
100.0,6.0,1.0,1.0,1.0,1.0,410.1866429998608,2.0,1.0,phase_1,,,,,,,,,,,,,green,diamond
391.0,4.0,4.0,0.0,4.0,4.0,453.1119260000196,2.0,1.0,phase_1,,,,,,,,,,,,,gray,cross
385.0,8.0,4.0,1.0,4.0,4.0,360.6211190001431,2.0,1.0,phase_1,,,,,,,,,,,,,yellow,I
0.0,4.0,0.0,0.0,2.0,2.0,283.9690539999537,2.0,1.0,phase_1,,,,,,,,,,,,,gray,cross
0.0,6.0,0.0,1.0,3.0,3.0,357.5219189999643,2.0,1.0,phase_1,,,,,,,,,,,,,green,diamond
215.0,7.0,2.0,1.0,1.0,1.0,300.7864989999689,2.0,1.0,phase_1,,,,,,,,,,,,,white,hexagon
187.0,7.0,2.0,1.0,3.0,3.0,464.3951119999201,2.0,1.0,phase_1,,,,,,,,,,,,,white,hexagon
117.0,6.0,1.0,1.0,3.0,3.0,401.0207839999111,2.0,1.0,phase_1,,,,,,,,,,,,,green,diamond
106.0,6.0,1.0,1.0,4.0,4.0,373.7863240000934,2.0,1.0,phase_1,,,,,,,,,,,,,green,diamond
424.0,8.0,4.0,1.0,3.0,3.0,373.4442109998781,2.0,1.0,phase_1,,,,,,,,,,,,,yellow,I
0.0,2.0,0.0,0.0,1.0,1.0,385.9126140000626,2.0,1.0,phase_1,,,,,,,,,,,,,cyan,square
416.0,4.0,4.0,0.0,2.0,2.0,344.8888559998977,2.0,1.0,phase_1,,,,,,,,,,,,,gray,cross
58.0,5.0,0.5,1.0,1.0,1.0,279.8227059997771,2.0,1.0,phase_1,,,,,,,,,,,,,orange,flipped triangle
0.0,4.0,0.0,0.0,3.0,3.0,354.0684080001028,2.0,1.0,phase_1,,,,,,,,,,,,,gray,cross
117.0,2.0,1.0,0.0,1.0,1.0,333.0260729999281,2.0,1.0,phase_1,,,,,,,,,,,,,cyan,square
117.0,6.0,1.0,1.0,2.0,2.0,334.3334119999781,3.0,1.0,phase_1,,,,,,,,,,,,,green,diamond
63.0,5.0,0.5,1.0,4.0,4.0,541.7547110000669,3.0,1.0,phase_1,,,,,,,,,,,,,orange,flipped triangle
53.0,1.0,0.5,0.0,2.0,2.0,427.7196529999401,3.0,1.0,phase_1,,,,,,,,,,,,,blue,triangle
421.0,4.0,4.0,0.0,1.0,1.0,248.8064899998789,3.0,1.0,phase_1,,,,,,,,,,,,,gray,cross
38.0,5.0,0.5,1.0,4.0,4.0,380.9027949998835,3.0,2.0,phase_1,,,,,,,,,,,,,orange,flipped triangle
63.0,1.0,0.5,0.0,1.0,1.0,405.3572100001474,3.0,1.0,phase_1,,,,,,,,,,,,,blue,triangle
210.0,7.0,2.0,1.0,1.0,1.0,279.0060329998596,3.0,1.0,phase_1,,,,,,,,,,,,,white,hexagon
77.0,6.0,1.0,1.0,3.0,3.0,564.1219540000293,3.0,1.0,phase_1,,,,,,,,,,,,,green,diamond
194.0,7.0,2.0,1.0,3.0,3.0,355.7112330001928,3.0,1.0,phase_1,,,,,,,,,,,,,white,hexagon
61.0,1.0,0.5,0.0,1.0,1.0,393.9193710000381,3.0,1.0,phase_1,,,,,,,,,,,,,blue,triangle
208.0,3.0,2.0,0.0,2.0,2.0,352.3227989999213,3.0,1.0,phase_1,,,,,,,,,,,,,magenta,circle
0.0,5.0,0.0,1.0,1.0,1.0,434.6497209999143,3.0,1.0,phase_1,,,,,,,,,,,,,orange,flipped triangle
181.0,7.0,2.0,1.0,3.0,3.0,310.4970389999835,3.0,1.0,phase_1,,,,,,,,,,,,,white,hexagon
207.0,3.0,2.0,0.0,1.0,1.0,304.6050340001329,3.0,1.0,phase_1,,,,,,,,,,,,,magenta,circle
42.0,5.0,0.5,1.0,2.0,2.0,314.9987300000703,3.0,1.0,phase_1,,,,,,,,,,,,,orange,flipped triangle
26.0,1.0,0.5,0.0,4.0,4.0,445.2567729999828,3.0,2.0,phase_1,,,,,,,,,,,,,blue,triangle
407.0,4.0,4.0,0.0,4.0,4.0,303.4836169999835,3.0,1.0,phase_1,,,,,,,,,,,,,gray,cross
0.0,1.0,0.0,0.0,4.0,4.0,322.3092099999576,3.0,1.0,phase_1,,,,,,,,,,,,,blue,triangle
0.0,8.0,0.0,1.0,3.0,3.0,472.4129690000609,3.0,1.0,phase_1,,,,,,,,,,,,,yellow,I
0.0,5.0,0.0,1.0,3.0,3.0,322.0548500000859,3.0,1.0,phase_1,,,,,,,,,,,,,orange,flipped triangle
213.0,7.0,2.0,1.0,2.0,2.0,313.8898019999487,3.0,1.0,phase_1,,,,,,,,,,,,,white,hexagon
410.0,8.0,4.0,1.0,2.0,2.0,294.2244769999433,3.0,1.0,phase_1,,,,,,,,,,,,,yellow,I
412.0,8.0,4.0,1.0,4.0,4.0,300.8573960000831,3.0,1.0,phase_1,,,,,,,,,,,,,yellow,I
179.0,7.0,2.0,1.0,1.0,1.0,476.3662889999978,3.0,1.0,phase_1,,,,,,,,,,,,,white,hexagon
379.0,8.0,4.0,1.0,1.0,1.0,320.9092449999389,3.0,1.0,phase_1,,,,,,,,,,,,,yellow,I
53.0,5.0,0.5,1.0,2.0,2.0,400.9260420000373,3.0,1.0,phase_1,,,,,,,,,,,,,orange,flipped triangle
0.0,8.0,0.0,1.0,4.0,4.0,314.8623039999165,3.0,1.0,phase_1,,,,,,,,,,,,,yellow,I
31.0,1.0,0.5,0.0,3.0,3.0,480.018747000031,3.0,1.0,phase_1,,,,,,,,,,,,,blue,triangle
27.0,1.0,0.5,0.0,4.0,4.0,377.1462649999648,3.0,1.0,phase_1,,,,,,,,,,,,,blue,triangle
0.0,5.0,0.0,1.0,1.0,1.0,714.4307860000936,3.0,1.0,phase_1,,,,,,,,,,,,,orange,flipped triangle
403.0,8.0,4.0,1.0,2.0,2.0,382.1134840000013,3.0,1.0,phase_1,,,,,,,,,,,,,yellow,I
0.0,6.0,0.0,1.0,4.0,4.0,312.2058930000548,3.0,1.0,phase_1,,,,,,,,,,,,,green,diamond
38.0,5.0,0.5,1.0,3.0,3.0,384.3543440000303,3.0,1.0,phase_1,,,,,,,,,,,,,orange,flipped triangle
28.0,1.0,0.5,0.0,3.0,3.0,463.2984319998741,3.0,1.0,phase_1,,,,,,,,,,,,,blue,triangle
391.0,8.0,4.0,1.0,3.0,3.0,350.7897819999925,3.0,1.0,phase_1,,,,,,,,,,,,,yellow,I
188.0,3.0,2.0,0.0,4.0,4.0,374.4758010000169,3.0,1.0,phase_1,,,,,,,,,,,,,magenta,circle
175.0,3.0,2.0,0.0,4.0,4.0,385.870665000084,3.0,1.0,phase_1,,,,,,,,,,,,,magenta,circle
64.0,1.0,0.5,0.0,3.0,3.0,356.6005289999339,3.0,1.0,phase_1,,,,,,,,,,,,,blue,triangle
385.0,4.0,4.0,0.0,2.0,2.0,351.9973580000624,3.0,1.0,phase_1,,,,,,,,,,,,,gray,cross
221.0,3.0,2.0,0.0,3.0,3.0,451.1664730000575,3.0,1.0,phase_1,,,,,,,,,,,,,magenta,circle
96.0,2.0,1.0,0.0,4.0,4.0,300.0710100000106,3.0,1.0,phase_1,,,,,,,,,,,,,cyan,square
109.0,6.0,1.0,1.0,2.0,2.0,322.9703430001791,3.0,1.0,phase_1,,,,,,,,,,,,,green,diamond
0.0,1.0,0.0,0.0,3.0,3.0,296.1636830000316,3.0,1.0,phase_1,,,,,,,,,,,,,blue,triangle
407.0,8.0,4.0,1.0,1.0,1.0,525.1112920000196,3.0,1.0,phase_1,,,,,,,,,,,,,yellow,I
0.0,1.0,0.0,0.0,3.0,3.0,292.1641699999782,3.0,1.0,phase_1,,,,,,,,,,,,,blue,triangle
93.0,6.0,1.0,1.0,4.0,4.0,424.5329210000363,3.0,1.0,phase_1,,,,,,,,,,,,,green,diamond
88.0,2.0,1.0,0.0,3.0,3.0,421.9416739999815,3.0,1.0,phase_1,,,,,,,,,,,,,cyan,square
38.0,1.0,0.5,0.0,3.0,3.0,362.9304260000481,3.0,1.0,phase_1,,,,,,,,,,,,,blue,triangle
185.0,3.0,2.0,0.0,3.0,3.0,345.2625190000162,3.0,1.0,phase_1,,,,,,,,,,,,,magenta,circle
75.0,1.0,0.5,0.0,2.0,2.0,456.6726259999996,3.0,1.0,phase_1,,,,,,,,,,,,,blue,triangle
0.0,4.0,0.0,0.0,2.0,2.0,507.5505390000217,3.0,1.0,phase_1,,,,,,,,,,,,,gray,cross
122.0,2.0,1.0,0.0,1.0,1.0,357.9939829999148,3.0,1.0,phase_1,,,,,,,,,,,,,cyan,square
405.0,4.0,4.0,0.0,4.0,4.0,393.6960549999639,3.0,1.0,phase_1,,,,,,,,,,,,,gray,cross
199.0,7.0,2.0,1.0,2.0,2.0,294.0355740001905,3.0,1.0,phase_1,,,,,,,,,,,,,white,hexagon
39.0,5.0,0.5,1.0,1.0,1.0,342.0047890001569,3.0,1.0,phase_1,,,,,,,,,,,,,orange,flipped triangle
194.0,3.0,2.0,0.0,2.0,2.0,282.4192439998114,3.0,1.0,phase_1,,,,,,,,,,,,,magenta,circle
0.0,8.0,0.0,1.0,1.0,1.0,315.1826640000763,3.0,1.0,phase_1,,,,,,,,,,,,,yellow,I
394.0,8.0,4.0,1.0,3.0,3.0,324.36762500014987,3.0,1.0,phase_1,,,,,,,,,,,,,yellow,I
215.0,7.0,2.0,1.0,3.0,3.0,359.1327050000927,3.0,1.0,phase_1,,,,,,,,,,,,,white,hexagon
0.0,1.0,0.0,0.0,3.0,3.0,328.9114699998663,3.0,1.0,phase_1,,,,,,,,,,,,,blue,triangle
123.0,6.0,1.0,1.0,3.0,3.0,453.7093719998211,3.0,1.0,phase_1,,,,,,,,,,,,,green,diamond
215.0,7.0,2.0,1.0,2.0,2.0,294.8277969999253,3.0,1.0,phase_1,,,,,,,,,,,,,white,hexagon
0.0,1.0,0.0,0.0,3.0,3.0,368.8067289999708,3.0,1.0,phase_1,,,,,,,,,,,,,blue,triangle
48.0,5.0,0.5,1.0,1.0,1.0,264.1891620000933,3.0,1.0,phase_1,,,,,,,,,,,,,orange,flipped triangle
210.0,3.0,2.0,0.0,3.0,3.0,411.1569829997279,3.0,1.0,phase_1,,,,,,,,,,,,,magenta,circle
26.0,5.0,0.5,1.0,2.0,2.0,359.2388070001107,3.0,1.0,phase_1,,,,,,,,,,,,,orange,flipped triangle
421.0,8.0,4.0,1.0,3.0,3.0,344.2932880002445,3.0,1.0,phase_1,,,,,,,,,,,,,yellow,I
0.0,5.0,0.0,1.0,1.0,1.0,412.1677150001233,3.0,1.0,phase_1,,,,,,,,,,,,,orange,flipped triangle
401.0,4.0,4.0,0.0,3.0,3.0,298.5952089998136,3.0,1.0,phase_1,,,,,,,,,,,,,gray,cross
417.0,4.0,4.0,0.0,1.0,1.0,349.7918869998102,3.0,1.0,phase_1,,,,,,,,,,,,,gray,cross
202.0,7.0,2.0,1.0,4.0,4.0,490.1643680000234,3.0,1.0,phase_1,,,,,,,,,,,,,white,hexagon
406.0,4.0,4.0,0.0,2.0,2.0,416.3094410000667,3.0,1.0,phase_1,,,,,,,,,,,,,gray,cross
223.0,7.0,2.0,1.0,4.0,4.0,398.6048800002209,3.0,1.0,phase_1,,,,,,,,,,,,,white,hexagon
96.0,6.0,1.0,1.0,1.0,1.0,511.32816000017556,3.0,1.0,phase_1,,,,,,,,,,,,,green,diamond
417.0,8.0,4.0,1.0,1.0,1.0,438.1215749999683,3.0,1.0,phase_1,,,,,,,,,,,,,yellow,I
0.0,8.0,0.0,1.0,1.0,1.0,338.7983439997697,3.0,1.0,phase_1,,,,,,,,,,,,,yellow,I
379.0,8.0,4.0,1.0,3.0,3.0,362.8700459998981,3.0,1.0,phase_1,,,,,,,,,,,,,yellow,I
77.0,2.0,1.0,0.0,1.0,1.0,357.6519040002495,3.0,1.0,phase_1,,,,,,,,,,,,,cyan,square
403.0,4.0,4.0,0.0,2.0,2.0,334.3939439996575,3.0,1.0,phase_1,,,,,,,,,,,,,gray,cross
0.0,4.0,0.0,0.0,4.0,4.0,335.4083120002542,3.0,1.0,phase_1,,,,,,,,,,,,,gray,cross
0.0,3.0,0.0,0.0,4.0,4.0,550.7996619999176,3.0,1.0,phase_1,,,,,,,,,,,,,magenta,circle
39.0,1.0,0.5,0.0,3.0,3.0,559.7990199999003,3.0,2.0,phase_1,,,,,,,,,,,,,blue,triangle
0.0,4.0,0.0,0.0,2.0,2.0,294.868175999909,3.0,1.0,phase_1,,,,,,,,,,,,,gray,cross
66.0,1.0,0.5,0.0,4.0,4.0,392.3290859997905,3.0,1.0,phase_1,,,,,,,,,,,,,blue,triangle
220.0,7.0,2.0,1.0,3.0,3.0,451.8935000000965,3.0,1.0,phase_1,,,,,,,,,,,,,white,hexagon
100.0,2.0,1.0,0.0,3.0,3.0,286.5553149999869,3.0,1.0,phase_1,,,,,,,,,,,,,cyan,square
394.0,4.0,4.0,0.0,2.0,2.0,369.2914919997747,3.0,1.0,phase_1,,,,,,,,,,,,,gray,cross
48.0,5.0,0.5,1.0,3.0,3.0,360.211321999941,3.0,1.0,phase_1,,,,,,,,,,,,,orange,flipped triangle
113.0,6.0,1.0,1.0,3.0,3.0,290.5633539999144,3.0,1.0,phase_1,,,,,,,,,,,,,green,diamond
46.0,1.0,0.5,0.0,1.0,1.0,411.1796160000267,3.0,1.0,phase_1,,,,,,,,,,,,,blue,triangle
50.0,5.0,0.5,1.0,4.0,4.0,371.9703769997977,3.0,1.0,phase_1,,,,,,,,,,,,,orange,flipped triangle
61.0,1.0,0.5,0.0,4.0,4.0,445.0704559999394,3.0,1.0,phase_1,,,,,,,,,,,,,blue,triangle
101.0,2.0,1.0,0.0,2.0,2.0,451.734905000194,3.0,1.0,phase_1,,,,,,,,,,,,,cyan,square
201.0,7.0,2.0,1.0,4.0,4.0,352.5736500000676,3.0,2.0,phase_1,,,,,,,,,,,,,white,hexagon
0.0,4.0,0.0,0.0,2.0,2.0,263.0643369998324,3.0,1.0,phase_1,,,,,,,,,,,,,gray,cross
104.0,2.0,1.0,0.0,2.0,2.0,598.851588999878,3.0,1.0,phase_1,,,,,,,,,,,,,cyan,square
179.0,3.0,2.0,0.0,3.0,3.0,414.9593659999482,3.0,1.0,phase_1,,,,,,,,,,,,,magenta,circle
76.0,2.0,1.0,0.0,2.0,2.0,345.9012739999707,3.0,1.0,phase_1,,,,,,,,,,,,,cyan,square
93.0,2.0,1.0,0.0,3.0,3.0,383.65425100028,3.0,1.0,phase_1,,,,,,,,,,,,,cyan,square
424.0,4.0,4.0,0.0,1.0,1.0,439.1554069998165,3.0,1.0,phase_1,,,,,,,,,,,,,gray,cross
0.0,6.0,0.0,1.0,1.0,1.0,526.7341320000014,4.0,1.0,phase_1,,,,,,,,,,,,,green,diamond
389.0,4.0,4.0,0.0,3.0,3.0,301.2245660002008,4.0,1.0,phase_1,,,,,,,,,,,,,gray,cross
70.0,5.0,0.5,1.0,3.0,3.0,304.1946319999624,4.0,1.0,phase_1,,,,,,,,,,,,,orange,flipped triangle
391.0,4.0,4.0,0.0,3.0,3.0,300.4119050001463,4.0,1.0,phase_1,,,,,,,,,,,,,gray,cross
117.0,6.0,1.0,1.0,3.0,3.0,281.141302999913,4.0,1.0,phase_1,,,,,,,,,,,,,green,diamond
395.0,4.0,4.0,0.0,2.0,2.0,426.3791039998068,4.0,1.0,phase_1,,,,,,,,,,,,,gray,cross
0.0,2.0,0.0,0.0,4.0,4.0,478.9350579999336,4.0,1.0,phase_1,,,,,,,,,,,,,cyan,square
27.0,5.0,0.5,1.0,3.0,3.0,371.8703370000185,4.0,1.0,phase_1,,,,,,,,,,,,,orange,flipped triangle
0.0,5.0,0.0,1.0,2.0,2.0,311.7015170000741,4.0,2.0,phase_1,,,,,,,,,,,,,orange,flipped triangle
403.0,8.0,4.0,1.0,1.0,1.0,629.9249710000367,4.0,1.0,phase_1,,,,,,,,,,,,,yellow,I
180.0,3.0,2.0,0.0,2.0,2.0,336.8474960002459,4.0,1.0,phase_1,,,,,,,,,,,,,magenta,circle
32.0,1.0,0.5,0.0,3.0,3.0,363.9433799999096,4.0,1.0,phase_1,,,,,,,,,,,,,blue,triangle
385.0,8.0,4.0,1.0,1.0,1.0,306.6070810000383,4.0,1.0,phase_1,,,,,,,,,,,,,yellow,I
197.0,7.0,2.0,1.0,3.0,3.0,329.5699559998866,4.0,1.0,phase_1,,,,,,,,,,,,,white,hexagon
51.0,1.0,0.5,0.0,3.0,3.0,282.3289480002131,4.0,1.0,phase_1,,,,,,,,,,,,,blue,triangle
198.0,7.0,2.0,1.0,3.0,3.0,266.968985999938,4.0,1.0,phase_1,,,,,,,,,,,,,white,hexagon
32.0,5.0,0.5,1.0,3.0,3.0,378.6134280003352,4.0,1.0,phase_1,,,,,,,,,,,,,orange,flipped triangle
79.0,2.0,1.0,0.0,1.0,1.0,446.4962659999401,4.0,1.0,phase_1,,,,,,,,,,,,,cyan,square
175.0,7.0,2.0,1.0,2.0,2.0,458.311448999666,4.0,1.0,phase_1,,,,,,,,,,,,,white,hexagon
0.0,8.0,0.0,1.0,2.0,2.0,297.5611840001875,4.0,1.0,phase_1,,,,,,,,,,,,,yellow,I
87.0,2.0,1.0,0.0,4.0,4.0,529.5740280002974,4.0,1.0,phase_1,,,,,,,,,,,,,cyan,square
189.0,3.0,2.0,0.0,1.0,1.0,618.704561999948,4.0,1.0,phase_1,,,,,,,,,,,,,magenta,circle
218.0,3.0,2.0,0.0,1.0,1.0,306.5558240000428,4.0,1.0,phase_1,,,,,,,,,,,,,magenta,circle
41.0,5.0,0.5,1.0,2.0,2.0,358.7396040002204,4.0,1.0,phase_1,,,,,,,,,,,,,orange,flipped triangle
92.0,6.0,1.0,1.0,4.0,4.0,415.1914770000076,4.0,1.0,phase_1,,,,,,,,,,,,,green,diamond
0.0,7.0,0.0,1.0,1.0,1.0,394.2536589997871,4.0,1.0,phase_1,,,,,,,,,,,,,white,hexagon
377.0,8.0,4.0,1.0,1.0,1.0,462.0108959998106,4.0,1.0,phase_1,,,,,,,,,,,,,yellow,I
0.0,5.0,0.0,1.0,1.0,1.0,331.9238330000189,4.0,1.0,phase_1,,,,,,,,,,,,,orange,flipped triangle
391.0,8.0,4.0,1.0,4.0,4.0,333.057657000154,4.0,2.0,phase_1,,,,,,,,,,,,,yellow,I
48.0,1.0,0.5,0.0,2.0,2.0,233.8030789996992,4.0,1.0,phase_1,,,,,,,,,,,,,blue,triangle
111.0,2.0,1.0,0.0,3.0,3.0,412.5298670001029,4.0,1.0,phase_1,,,,,,,,,,,,,cyan,square
100.0,6.0,1.0,1.0,2.0,2.0,358.2994830003372,4.0,1.0,phase_1,,,,,,,,,,,,,green,diamond
192.0,3.0,2.0,0.0,3.0,3.0,366.6167670003233,4.0,1.0,phase_1,,,,,,,,,,,,,magenta,circle
53.0,1.0,0.5,0.0,4.0,4.0,579.0827589999026,4.0,1.0,phase_1,,,,,,,,,,,,,blue,triangle
0.0,6.0,0.0,1.0,4.0,4.0,414.9299040000187,4.0,1.0,phase_1,,,,,,,,,,,,,green,diamond
408.0,8.0,4.0,1.0,1.0,1.0,436.5823880002608,4.0,1.0,phase_1,,,,,,,,,,,,,yellow,I
0.0,8.0,0.0,1.0,4.0,4.0,396.7388729997765,4.0,1.0,phase_1,,,,,,,,,,,,,yellow,I
180.0,7.0,2.0,1.0,4.0,4.0,309.2649879999953,4.0,1.0,phase_1,,,,,,,,,,,,,white,hexagon
72.0,1.0,0.5,0.0,1.0,1.0,362.6522469999145,4.0,1.0,phase_1,,,,,,,,,,,,,blue,triangle
79.0,6.0,1.0,1.0,1.0,1.0,550.2880399999412,4.0,1.0,phase_1,,,,,,,,,,,,,green,diamond
386.0,8.0,4.0,1.0,4.0,4.0,507.2755300002427,4.0,1.0,phase_1,,,,,,,,,,,,,yellow,I
379.0,4.0,4.0,0.0,2.0,2.0,496.5421540000534,4.0,1.0,phase_1,,,,,,,,,,,,,gray,cross
208.0,7.0,2.0,1.0,2.0,2.0,336.7829710000478,4.0,1.0,phase_1,,,,,,,,,,,,,white,hexagon
119.0,2.0,1.0,0.0,4.0,4.0,319.7853159999795,4.0,1.0,phase_1,,,,,,,,,,,,,cyan,square
216.0,7.0,2.0,1.0,1.0,1.0,513.5105710000971,4.0,1.0,phase_1,,,,,,,,,,,,,white,hexagon
182.0,3.0,2.0,0.0,2.0,2.0,306.312192000405,4.0,1.0,phase_1,,,,,,,,,,,,,magenta,circle
388.0,4.0,4.0,0.0,2.0,2.0,325.6378940000104,4.0,1.0,phase_1,,,,,,,,,,,,,gray,cross
0.0,7.0,0.0,1.0,1.0,1.0,372.8476520000185,4.0,1.0,phase_1,,,,,,,,,,,,,white,hexagon
115.0,2.0,1.0,0.0,2.0,2.0,620.3279699998347,4.0,1.0,phase_1,,,,,,,,,,,,,cyan,square
38.0,5.0,0.5,1.0,2.0,2.0,371.5640329996859,4.0,1.0,phase_1,,,,,,,,,,,,,orange,flipped triangle
88.0,6.0,1.0,1.0,3.0,3.0,489.5706010001959,4.0,1.0,phase_1,,,,,,,,,,,,,green,diamond
103.0,2.0,1.0,0.0,2.0,2.0,446.4389690001553,4.0,1.0,phase_1,,,,,,,,,,,,,cyan,square
88.0,6.0,1.0,1.0,2.0,2.0,341.5054359998066,4.0,1.0,phase_1,,,,,,,,,,,,,green,diamond
223.0,3.0,2.0,0.0,3.0,3.0,410.5487339998035,4.0,1.0,phase_1,,,,,,,,,,,,,magenta,circle
75.0,5.0,0.5,1.0,4.0,4.0,514.7669039997709,4.0,1.0,phase_1,,,,,,,,,,,,,orange,flipped triangle
38.0,1.0,0.5,0.0,2.0,2.0,396.9354810001277,4.0,1.0,phase_1,,,,,,,,,,,,,blue,triangle
223.0,3.0,2.0,0.0,1.0,1.0,320.2053550003256,4.0,1.0,phase_1,,,,,,,,,,,,,magenta,circle
187.0,3.0,2.0,0.0,1.0,1.0,325.4965850001099,4.0,1.0,phase_1,,,,,,,,,,,,,magenta,circle
388.0,8.0,4.0,1.0,3.0,3.0,567.7255769996918,4.0,2.0,phase_1,,,,,,,,,,,,,yellow,I
0.0,3.0,0.0,0.0,2.0,2.0,494.7007900000244,4.0,1.0,phase_1,,,,,,,,,,,,,magenta,circle
98.0,2.0,1.0,0.0,3.0,3.0,636.3455780001459,4.0,1.0,phase_1,,,,,,,,,,,,,cyan,square
208.0,7.0,2.0,1.0,2.0,2.0,309.5224940002481,4.0,1.0,phase_1,,,,,,,,,,,,,white,hexagon
50.0,1.0,0.5,0.0,4.0,4.0,341.5526690000661,4.0,1.0,phase_1,,,,,,,,,,,,,blue,triangle
66.0,5.0,0.5,1.0,2.0,2.0,317.2202040000229,4.0,1.0,phase_1,,,,,,,,,,,,,orange,flipped triangle
71.0,1.0,0.5,0.0,1.0,1.0,391.3650429999507,4.0,1.0,phase_1,,,,,,,,,,,,,blue,triangle
100.0,2.0,1.0,0.0,3.0,3.0,333.1883360001484,4.0,1.0,phase_1,,,,,,,,,,,,,cyan,square
384.0,4.0,4.0,0.0,2.0,2.0,331.7673019996618,4.0,1.0,phase_1,,,,,,,,,,,,,gray,cross
409.0,4.0,4.0,0.0,3.0,3.0,296.4336380000532,4.0,1.0,phase_1,,,,,,,,,,,,,gray,cross
416.0,8.0,4.0,1.0,2.0,2.0,405.1271449998239,4.0,1.0,phase_1,,,,,,,,,,,,,yellow,I
204.0,7.0,2.0,1.0,2.0,2.0,405.2277129999311,4.0,1.0,phase_1,,,,,,,,,,,,,white,hexagon
0.0,7.0,0.0,1.0,2.0,2.0,324.3584470001224,4.0,1.0,phase_1,,,,,,,,,,,,,white,hexagon
0.0,6.0,0.0,1.0,3.0,3.0,387.318391000008,4.0,1.0,phase_1,,,,,,,,,,,,,green,diamond
385.0,4.0,4.0,0.0,1.0,1.0,348.0555120004283,4.0,1.0,phase_1,,,,,,,,,,,,,gray,cross
0.0,1.0,0.0,0.0,2.0,2.0,510.8619190000354,4.0,1.0,phase_1,,,,,,,,,,,,,blue,triangle
104.0,6.0,1.0,1.0,1.0,1.0,481.8943250002121,4.0,1.0,phase_1,,,,,,,,,,,,,green,diamond
0.0,5.0,0.0,1.0,4.0,4.0,533.6868479998884,4.0,1.0,phase_1,,,,,,,,,,,,,orange,flipped triangle
78.0,2.0,1.0,0.0,1.0,1.0,434.8051110000597,4.0,1.0,phase_1,,,,,,,,,,,,,cyan,square
106.0,6.0,1.0,1.0,4.0,4.0,391.4824560001761,4.0,1.0,phase_1,,,,,,,,,,,,,green,diamond
210.0,3.0,2.0,0.0,1.0,1.0,374.8045120000824,4.0,1.0,phase_1,,,,,,,,,,,,,magenta,circle
409.0,8.0,4.0,1.0,2.0,2.0,359.3323029999737,4.0,1.0,phase_1,,,,,,,,,,,,,yellow,I
0.0,7.0,0.0,1.0,4.0,4.0,367.6584930003628,4.0,1.0,phase_1,,,,,,,,,,,,,white,hexagon
87.0,6.0,1.0,1.0,4.0,4.0,413.7319460000981,4.0,1.0,phase_1,,,,,,,,,,,,,green,diamond
0.0,1.0,0.0,0.0,1.0,1.0,482.3964990000604,4.0,1.0,phase_1,,,,,,,,,,,,,blue,triangle
0.0,8.0,0.0,1.0,4.0,4.0,352.5774690001526,4.0,2.0,phase_1,,,,,,,,,,,,,yellow,I
66.0,1.0,0.5,0.0,1.0,1.0,435.0507789999938,4.0,1.0,phase_1,,,,,,,,,,,,,blue,triangle
0.0,7.0,0.0,1.0,4.0,4.0,360.9280369996668,4.0,1.0,phase_1,,,,,,,,,,,,,white,hexagon
48.0,1.0,0.5,0.0,4.0,4.0,401.3412570002401,4.0,1.0,phase_1,,,,,,,,,,,,,blue,triangle
72.0,5.0,0.5,1.0,4.0,4.0,357.3555189996114,4.0,1.0,phase_1,,,,,,,,,,,,,orange,flipped triangle
78.0,6.0,1.0,1.0,2.0,2.0,403.0734950001715,4.0,1.0,phase_1,,,,,,,,,,,,,green,diamond
181.0,3.0,2.0,0.0,4.0,4.0,316.2279089997355,4.0,1.0,phase_1,,,,,,,,,,,,,magenta,circle
391.0,4.0,4.0,0.0,1.0,1.0,391.086562000055,4.0,1.0,phase_1,,,,,,,,,,,,,gray,cross
405.0,8.0,4.0,1.0,1.0,1.0,297.9692290000457,4.0,1.0,phase_1,,,,,,,,,,,,,yellow,I
414.0,4.0,4.0,0.0,4.0,4.0,461.0476749999179,4.0,1.0,phase_1,,,,,,,,,,,,,gray,cross
99.0,2.0,1.0,0.0,2.0,2.0,424.6273160001692,4.0,1.0,phase_1,,,,,,,,,,,,,cyan,square
414.0,8.0,4.0,1.0,3.0,3.0,487.2762699997111,4.0,1.0,phase_1,,,,,,,,,,,,,yellow,I
93.0,6.0,1.0,1.0,1.0,1.0,286.1109360001137,4.0,1.0,phase_1,,,,,,,,,,,,,green,diamond
215.0,3.0,2.0,0.0,4.0,4.0,279.0357540002333,4.0,1.0,phase_1,,,,,,,,,,,,,magenta,circle
70.0,5.0,0.5,1.0,1.0,1.0,434.3332529997497,4.0,1.0,phase_1,,,,,,,,,,,,,orange,flipped triangle
41.0,1.0,0.5,0.0,3.0,3.0,314.4183160002285,4.0,1.0,phase_1,,,,,,,,,,,,,blue,triangle
197.0,3.0,2.0,0.0,1.0,1.0,410.4890260000502,4.0,1.0,phase_1,,,,,,,,,,,,,magenta,circle
0.0,1.0,0.5,0.0,5.0,5.0,975.4372299998976,1.0,1.0,phase_2,go,250.0,250.0,1.0,,,,,,,,,blue,triangle
0.0,2.0,1.0,0.0,5.0,5.0,390.9134919999815,1.0,1.0,phase_2,go,250.0,250.0,1.0,,,,,,,,,cyan,square
0.0,5.0,0.5,1.0,5.0,5.0,399.2812870001216,1.0,1.0,phase_2,stop,250.0,250.0,3.0,,,,,,,,,orange,flipped triangle
0.0,8.0,4.0,1.0,6.0,0.0,0.0,1.0,1.0,phase_2,stop,200.0,250.0,4.0,,,,,,,,,yellow,I
0.0,8.0,4.0,1.0,5.0,5.0,284.1091649997906,1.0,1.0,phase_2,stop,200.0,300.0,3.0,,,,,,,,,yellow,I
0.0,3.0,2.0,0.0,6.0,6.0,512.4543980000453,1.0,1.0,phase_2,go,150.0,300.0,1.0,,,,,,,,,magenta,circle
0.0,8.0,4.0,1.0,6.0,6.0,450.6455850000748,1.0,1.0,phase_2,stop,150.0,300.0,3.0,,,,,,,,,yellow,I
0.0,6.0,1.0,1.0,5.0,0.0,0.0,1.0,1.0,phase_2,stop,150.0,250.0,4.0,,,,,,,,,green,diamond
0.0,2.0,1.0,0.0,5.0,5.0,559.3864490001579,1.0,1.0,phase_2,go,200.0,250.0,1.0,,,,,,,,,cyan,square
0.0,2.0,1.0,0.0,5.0,5.0,663.0363530002796,1.0,1.0,phase_2,go,200.0,250.0,1.0,,,,,,,,,cyan,square
0.0,6.0,1.0,1.0,6.0,0.0,0.0,1.0,1.0,phase_2,stop,200.0,250.0,4.0,,,,,,,,,green,diamond
0.0,2.0,1.0,0.0,5.0,5.0,596.118893000039,1.0,1.0,phase_2,go,200.0,300.0,1.0,,,,,,,,,cyan,square
0.0,3.0,2.0,0.0,6.0,6.0,1243.7079470000754,1.0,1.0,phase_2,go,200.0,300.0,1.0,,,,,,,,,magenta,circle
0.0,7.0,2.0,1.0,5.0,0.0,0.0,1.0,1.0,phase_2,stop,200.0,300.0,4.0,,,,,,,,,white,hexagon
0.0,1.0,0.5,0.0,6.0,6.0,733.8827359999414,1.0,1.0,phase_2,go,250.0,300.0,1.0,,,,,,,,,blue,triangle
0.0,7.0,2.0,1.0,5.0,5.0,293.5937600000216,1.0,1.0,phase_2,stop,250.0,300.0,3.0,,,,,,,,,white,hexagon
0.0,2.0,1.0,0.0,6.0,6.0,652.8455369998483,1.0,1.0,phase_2,go,200.0,300.0,1.0,,,,,,,,,cyan,square
0.0,5.0,0.5,1.0,5.0,5.0,1082.5582760003272,1.0,1.0,phase_2,go,200.0,300.0,1.0,,,,,,,,,orange,flipped triangle
0.0,7.0,2.0,1.0,5.0,5.0,666.7834740001126,1.0,1.0,phase_2,go,200.0,300.0,1.0,,,,,,,,,white,hexagon
0.0,5.0,0.5,1.0,5.0,0.0,0.0,1.0,1.0,phase_2,stop,200.0,300.0,4.0,,,,,,,,,orange,flipped triangle
0.0,5.0,0.5,1.0,6.0,6.0,567.1628919999421,1.0,1.0,phase_2,go,250.0,300.0,1.0,,,,,,,,,orange,flipped triangle
0.0,6.0,1.0,1.0,6.0,0.0,0.0,1.0,1.0,phase_2,stop,250.0,300.0,4.0,,,,,,,,,green,diamond
0.0,5.0,0.5,1.0,6.0,0.0,0.0,1.0,1.0,phase_2,stop,250.0,350.0,4.0,,,,,,,,,orange,flipped triangle
0.0,7.0,2.0,1.0,6.0,0.0,0.0,1.0,1.0,phase_2,stop,250.0,400.0,4.0,,,,,,,,,white,hexagon
0.0,4.0,4.0,0.0,6.0,6.0,838.904803999867,1.0,1.0,phase_2,go,250.0,450.0,1.0,,,,,,,,,gray,cross
0.0,4.0,4.0,0.0,5.0,1.0,703.5399530000177,1.0,1.0,phase_2,go,250.0,450.0,2.0,,,,,,,,,gray,cross
0.0,1.0,0.5,0.0,6.0,6.0,755.5435899998884,1.0,1.0,phase_2,go,250.0,450.0,1.0,,,,,,,,,blue,triangle
0.0,3.0,2.0,0.0,5.0,0.0,0.0,1.0,1.0,phase_2,go,250.0,450.0,5.0,,,,,,,,,magenta,circle
0.0,4.0,4.0,0.0,5.0,5.0,583.8423899999725,1.0,1.0,phase_2,go,250.0,450.0,1.0,,,,,,,,,gray,cross
0.0,7.0,2.0,1.0,6.0,6.0,417.382046000057,1.0,1.0,phase_2,stop,250.0,450.0,3.0,,,,,,,,,white,hexagon
0.0,6.0,1.0,1.0,5.0,5.0,462.5338720002219,1.0,1.0,phase_2,go,250.0,400.0,1.0,,,,,,,,,green,diamond
0.0,5.0,0.5,1.0,6.0,0.0,0.0,1.0,1.0,phase_2,stop,250.0,400.0,4.0,,,,,,,,,orange,flipped triangle
0.0,2.0,1.0,0.0,6.0,6.0,681.8277749998742,1.0,1.0,phase_2,go,250.0,450.0,1.0,,,,,,,,,cyan,square
0.0,5.0,0.5,1.0,6.0,6.0,480.2719059998708,1.0,1.0,phase_2,stop,250.0,450.0,3.0,,,,,,,,,orange,flipped triangle
0.0,4.0,4.0,0.0,5.0,5.0,502.51205600034154,1.0,1.0,phase_2,go,250.0,400.0,1.0,,,,,,,,,gray,cross
0.0,8.0,4.0,1.0,5.0,0.0,0.0,1.0,1.0,phase_2,stop,250.0,400.0,4.0,,,,,,,,,yellow,I
0.0,1.0,0.5,0.0,5.0,5.0,691.5020810001806,2.0,1.0,phase_2,go,300.0,400.0,1.0,,,,,,,,,blue,triangle
0.0,8.0,4.0,1.0,6.0,6.0,331.644444000176,2.0,1.0,phase_2,stop,300.0,400.0,3.0,,,,,,,,,yellow,I
0.0,6.0,1.0,1.0,6.0,6.0,568.7512630001947,2.0,1.0,phase_2,stop,300.0,350.0,3.0,,,,,,,,,green,diamond
0.0,3.0,2.0,0.0,6.0,6.0,348.1120060000648,2.0,1.0,phase_2,go,300.0,300.0,1.0,,,,,,,,,magenta,circle
0.0,3.0,2.0,0.0,6.0,6.0,898.2858889999079,2.0,1.0,phase_2,go,300.0,300.0,1.0,,,,,,,,,magenta,circle
0.0,1.0,0.5,0.0,6.0,6.0,420.4282739997325,2.0,1.0,phase_2,go,300.0,300.0,1.0,,,,,,,,,blue,triangle
0.0,6.0,1.0,1.0,6.0,6.0,408.2027809999999,2.0,1.0,phase_2,stop,300.0,300.0,3.0,,,,,,,,,green,diamond
0.0,6.0,1.0,1.0,5.0,5.0,470.0632230001247,2.0,1.0,phase_2,stop,300.0,250.0,3.0,,,,,,,,,green,diamond
0.0,6.0,1.0,1.0,5.0,0.0,0.0,2.0,1.0,phase_2,stop,250.0,250.0,4.0,,,,,,,,,green,diamond
0.0,7.0,2.0,1.0,6.0,6.0,474.9444229996697,2.0,1.0,phase_2,go,300.0,250.0,1.0,,,,,,,,,white,hexagon
0.0,8.0,4.0,1.0,6.0,0.0,0.0,2.0,1.0,phase_2,stop,300.0,250.0,4.0,,,,,,,,,yellow,I
0.0,7.0,2.0,1.0,5.0,5.0,577.6106700000128,2.0,1.0,phase_2,stop,300.0,300.0,3.0,,,,,,,,,white,hexagon
0.0,4.0,4.0,0.0,5.0,5.0,807.7534610001749,2.0,1.0,phase_2,go,250.0,300.0,1.0,,,,,,,,,gray,cross
0.0,7.0,2.0,1.0,6.0,0.0,0.0,2.0,1.0,phase_2,stop,250.0,300.0,4.0,,,,,,,,,white,hexagon
0.0,7.0,2.0,1.0,6.0,0.0,0.0,2.0,1.0,phase_2,stop,250.0,350.0,4.0,,,,,,,,,white,hexagon
0.0,1.0,0.5,0.0,6.0,6.0,1074.6948340001836,2.0,1.0,phase_2,go,250.0,400.0,1.0,,,,,,,,,blue,triangle
0.0,8.0,4.0,1.0,6.0,0.0,0.0,2.0,1.0,phase_2,stop,250.0,400.0,4.0,,,,,,,,,yellow,I
0.0,6.0,1.0,1.0,5.0,0.0,0.0,2.0,1.0,phase_2,stop,250.0,450.0,4.0,,,,,,,,,green,diamond
0.0,4.0,4.0,0.0,6.0,6.0,681.5460829998301,2.0,1.0,phase_2,go,300.0,450.0,1.0,,,,,,,,,gray,cross
0.0,8.0,4.0,1.0,5.0,5.0,342.5658239998483,2.0,1.0,phase_2,stop,300.0,450.0,3.0,,,,,,,,,yellow,I
0.0,7.0,2.0,1.0,5.0,5.0,658.1269199996314,2.0,1.0,phase_2,go,250.0,450.0,1.0,,,,,,,,,white,hexagon
0.0,8.0,4.0,1.0,6.0,0.0,0.0,2.0,1.0,phase_2,stop,250.0,450.0,4.0,,,,,,,,,yellow,I
0.0,2.0,1.0,0.0,6.0,6.0,752.8566089999913,2.0,1.0,phase_2,go,250.0,500.0,1.0,,,,,,,,,cyan,square
0.0,5.0,0.5,1.0,5.0,0.0,0.0,2.0,1.0,phase_2,stop,250.0,500.0,4.0,,,,,,,,,orange,flipped triangle
0.0,6.0,1.0,1.0,5.0,0.0,0.0,2.0,1.0,phase_2,stop,300.0,500.0,4.0,,,,,,,,,green,diamond
0.0,5.0,0.5,1.0,6.0,0.0,0.0,2.0,1.0,phase_2,stop,350.0,500.0,4.0,,,,,,,,,orange,flipped triangle
0.0,3.0,2.0,0.0,5.0,5.0,863.0137029999787,2.0,1.0,phase_2,go,350.0,550.0,1.0,,,,,,,,,magenta,circle
0.0,8.0,4.0,1.0,5.0,5.0,425.1777290000973,2.0,1.0,phase_2,stop,350.0,550.0,3.0,,,,,,,,,yellow,I
0.0,7.0,2.0,1.0,6.0,6.0,719.8325489998751,2.0,1.0,phase_2,stop,300.0,550.0,3.0,,,,,,,,,white,hexagon
0.0,3.0,2.0,0.0,5.0,5.0,576.3989769998261,2.0,1.0,phase_2,go,300.0,500.0,1.0,,,,,,,,,magenta,circle
0.0,5.0,0.5,1.0,6.0,6.0,601.5548689997559,2.0,1.0,phase_2,stop,300.0,500.0,3.0,,,,,,,,,orange,flipped triangle
0.0,7.0,2.0,1.0,6.0,0.0,0.0,2.0,1.0,phase_2,stop,300.0,450.0,4.0,,,,,,,,,white,hexagon
0.0,8.0,4.0,1.0,6.0,6.0,718.9270270000634,2.0,1.0,phase_2,stop,300.0,500.0,3.0,,,,,,,,,yellow,I
0.0,3.0,2.0,0.0,6.0,6.0,710.9618189997491,2.0,1.0,phase_2,go,300.0,450.0,1.0,,,,,,,,,magenta,circle
0.0,8.0,4.0,1.0,5.0,5.0,474.956180999925,2.0,1.0,phase_2,stop,300.0,450.0,3.0,,,,,,,,,yellow,I
0.0,1.0,0.5,0.0,5.0,5.0,591.2584650000099,2.0,1.0,phase_2,go,250.0,450.0,1.0,,,,,,,,,blue,triangle
0.0,2.0,1.0,0.0,6.0,6.0,1048.089304000314,3.0,1.0,phase_2,go,250.0,450.0,1.0,,,,,,,,,cyan,square
0.0,8.0,4.0,1.0,5.0,5.0,997.299797999858,3.0,1.0,phase_2,go,250.0,450.0,1.0,,,,,,,,,yellow,I
0.0,1.0,0.5,0.0,6.0,6.0,540.920086999904,3.0,1.0,phase_2,go,250.0,450.0,1.0,,,,,,,,,blue,triangle
0.0,5.0,0.5,1.0,5.0,0.0,0.0,3.0,1.0,phase_2,stop,250.0,450.0,4.0,,,,,,,,,orange,flipped triangle
0.0,5.0,0.5,1.0,5.0,5.0,727.7359889999389,3.0,1.0,phase_2,go,300.0,450.0,1.0,,,,,,,,,orange,flipped triangle
0.0,1.0,0.5,0.0,5.0,5.0,631.7367629999353,3.0,1.0,phase_2,go,300.0,450.0,1.0,,,,,,,,,blue,triangle
0.0,8.0,4.0,1.0,6.0,6.0,569.7931249997055,3.0,1.0,phase_2,stop,300.0,450.0,3.0,,,,,,,,,yellow,I
0.0,4.0,4.0,0.0,6.0,6.0,750.966827999946,3.0,1.0,phase_2,go,300.0,400.0,1.0,,,,,,,,,gray,cross
0.0,1.0,0.5,0.0,5.0,5.0,347.202303999893,3.0,1.0,phase_2,go,300.0,400.0,1.0,,,,,,,,,blue,triangle
0.0,3.0,2.0,0.0,6.0,6.0,729.7832900003414,3.0,1.0,phase_2,go,300.0,400.0,1.0,,,,,,,,,magenta,circle
0.0,6.0,1.0,1.0,5.0,0.0,0.0,3.0,1.0,phase_2,stop,300.0,400.0,4.0,,,,,,,,,green,diamond
0.0,4.0,4.0,0.0,5.0,5.0,806.5612079999482,3.0,1.0,phase_2,go,350.0,400.0,1.0,,,,,,,,,gray,cross
0.0,1.0,0.5,0.0,5.0,5.0,599.7697620000508,3.0,1.0,phase_2,go,350.0,400.0,1.0,,,,,,,,,blue,triangle
0.0,8.0,4.0,1.0,6.0,0.0,0.0,3.0,1.0,phase_2,stop,350.0,400.0,4.0,,,,,,,,,yellow,I
0.0,8.0,4.0,1.0,5.0,5.0,681.557587000043,3.0,1.0,phase_2,go,350.0,450.0,1.0,,,,,,,,,yellow,I
0.0,6.0,1.0,1.0,5.0,0.0,0.0,3.0,1.0,phase_2,stop,350.0,450.0,4.0,,,,,,,,,green,diamond
0.0,3.0,2.0,0.0,6.0,6.0,424.1987209998115,3.0,1.0,phase_2,go,400.0,450.0,1.0,,,,,,,,,magenta,circle
0.0,5.0,0.5,1.0,6.0,6.0,484.7029889997429,3.0,1.0,phase_2,stop,400.0,450.0,3.0,,,,,,,,,orange,flipped triangle
0.0,5.0,0.5,1.0,5.0,0.0,0.0,3.0,1.0,phase_2,stop,400.0,400.0,4.0,,,,,,,,,orange,flipped triangle
0.0,4.0,4.0,0.0,5.0,5.0,908.9352619998864,3.0,1.0,phase_2,go,450.0,400.0,1.0,,,,,,,,,gray,cross
0.0,1.0,0.5,0.0,5.0,5.0,803.8585220001551,3.0,1.0,phase_2,go,450.0,400.0,1.0,,,,,,,,,blue,triangle
0.0,8.0,4.0,1.0,5.0,0.0,0.0,3.0,1.0,phase_2,stop,450.0,400.0,4.0,,,,,,,,,yellow,I
0.0,8.0,4.0,1.0,6.0,6.0,676.6166440002053,3.0,1.0,phase_2,go,500.0,400.0,1.0,,,,,,,,,yellow,I
0.0,6.0,1.0,1.0,5.0,0.0,0.0,3.0,1.0,phase_2,stop,500.0,400.0,4.0,,,,,,,,,green,diamond
0.0,5.0,0.5,1.0,5.0,0.0,0.0,3.0,1.0,phase_2,stop,550.0,400.0,4.0,,,,,,,,,orange,flipped triangle
0.0,7.0,2.0,1.0,6.0,0.0,0.0,3.0,1.0,phase_2,stop,600.0,400.0,4.0,,,,,,,,,white,hexagon
0.0,7.0,2.0,1.0,5.0,5.0,642.9535179995582,3.0,1.0,phase_2,go,600.0,450.0,1.0,,,,,,,,,white,hexagon
0.0,7.0,2.0,1.0,6.0,6.0,578.1953970003997,3.0,1.0,phase_2,stop,600.0,450.0,3.0,,,,,,,,,white,hexagon
0.0,3.0,2.0,0.0,6.0,6.0,683.5519950000162,3.0,1.0,phase_2,go,600.0,400.0,1.0,,,,,,,,,magenta,circle
0.0,4.0,4.0,0.0,6.0,6.0,656.887991000076,3.0,1.0,phase_2,go,600.0,400.0,1.0,,,,,,,,,gray,cross
0.0,7.0,2.0,1.0,6.0,0.0,0.0,3.0,1.0,phase_2,stop,600.0,400.0,4.0,,,,,,,,,white,hexagon
0.0,6.0,1.0,1.0,6.0,6.0,834.3502600000647,3.0,1.0,phase_2,go,600.0,450.0,1.0,,,,,,,,,green,diamond
0.0,3.0,2.0,0.0,5.0,5.0,683.2240630001252,3.0,1.0,phase_2,go,600.0,450.0,1.0,,,,,,,,,magenta,circle
0.0,4.0,4.0,0.0,5.0,5.0,616.2351719999606,3.0,1.0,phase_2,go,600.0,450.0,1.0,,,,,,,,,gray,cross
0.0,8.0,4.0,1.0,5.0,5.0,336.5626149998206,3.0,1.0,phase_2,stop,600.0,450.0,3.0,,,,,,,,,yellow,I
0.0,1.0,0.5,0.0,6.0,6.0,677.6006510003754,3.0,1.0,phase_2,go,550.0,450.0,1.0,,,,,,,,,blue,triangle
0.0,2.0,1.0,0.0,6.0,6.0,480.6951489999846,4.0,1.0,phase_2,go,550.0,450.0,1.0,,,,,,,,,cyan,square
0.0,1.0,0.5,0.0,5.0,5.0,459.4065369997224,4.0,1.0,phase_2,go,550.0,450.0,1.0,,,,,,,,,blue,triangle
0.0,6.0,1.0,1.0,6.0,6.0,417.6702350000596,4.0,1.0,phase_2,stop,550.0,450.0,3.0,,,,,,,,,green,diamond
0.0,8.0,4.0,1.0,6.0,0.0,0.0,4.0,1.0,phase_2,stop,550.0,400.0,4.0,,,,,,,,,yellow,I
0.0,4.0,4.0,0.0,5.0,5.0,548.6406129998613,4.0,1.0,phase_2,go,550.0,450.0,1.0,,,,,,,,,gray,cross
0.0,2.0,1.0,0.0,5.0,5.0,579.4703250003295,4.0,1.0,phase_2,go,550.0,450.0,1.0,,,,,,,,,cyan,square
0.0,4.0,4.0,0.0,6.0,6.0,696.7397890002758,4.0,1.0,phase_2,go,550.0,450.0,1.0,,,,,,,,,gray,cross
0.0,1.0,0.5,0.0,6.0,6.0,432.9238120003538,4.0,1.0,phase_2,go,550.0,450.0,1.0,,,,,,,,,blue,triangle
0.0,6.0,1.0,1.0,6.0,6.0,509.74709100000837,4.0,1.0,phase_2,stop,550.0,450.0,3.0,,,,,,,,,green,diamond
0.0,2.0,1.0,0.0,5.0,5.0,629.5910019998701,4.0,1.0,phase_2,go,550.0,400.0,1.0,,,,,,,,,cyan,square
0.0,2.0,1.0,0.0,6.0,6.0,972.5354960000914,4.0,1.0,phase_2,go,550.0,400.0,1.0,,,,,,,,,cyan,square
0.0,1.0,0.5,0.0,6.0,6.0,677.5429059998714,4.0,1.0,phase_2,go,550.0,400.0,1.0,,,,,,,,,blue,triangle
0.0,3.0,2.0,0.0,5.0,5.0,634.5972350000011,4.0,1.0,phase_2,go,550.0,400.0,1.0,,,,,,,,,magenta,circle
0.0,7.0,2.0,1.0,6.0,6.0,582.0236189997559,4.0,1.0,phase_2,stop,550.0,400.0,3.0,,,,,,,,,white,hexagon
0.0,6.0,1.0,1.0,6.0,6.0,882.8183520004131,4.0,1.0,phase_2,go,550.0,350.0,1.0,,,,,,,,,green,diamond
0.0,2.0,1.0,0.0,5.0,0.0,0.0,4.0,1.0,phase_2,go,550.0,350.0,5.0,,,,,,,,,cyan,square
0.0,3.0,2.0,0.0,6.0,6.0,729.4499340000584,4.0,1.0,phase_2,go,550.0,350.0,1.0,,,,,,,,,magenta,circle
0.0,8.0,4.0,1.0,5.0,5.0,279.7084030003134,4.0,1.0,phase_2,go,550.0,350.0,1.0,,,,,,,,,yellow,I
0.0,7.0,2.0,1.0,5.0,5.0,319.4833729999118,4.0,1.0,phase_2,stop,550.0,350.0,3.0,,,,,,,,,white,hexagon
0.0,3.0,2.0,0.0,6.0,6.0,437.5604009997005,4.0,1.0,phase_2,go,500.0,350.0,1.0,,,,,,,,,magenta,circle
0.0,7.0,2.0,1.0,6.0,6.0,570.1089170001978,4.0,1.0,phase_2,stop,500.0,350.0,3.0,,,,,,,,,white,hexagon
0.0,5.0,0.5,1.0,6.0,0.0,0.0,4.0,1.0,phase_2,stop,500.0,300.0,4.0,,,,,,,,,orange,flipped triangle
0.0,6.0,1.0,1.0,6.0,0.0,0.0,4.0,1.0,phase_2,stop,500.0,350.0,4.0,,,,,,,,,green,diamond
0.0,7.0,2.0,1.0,5.0,5.0,677.945335000004,4.0,1.0,phase_2,go,500.0,400.0,1.0,,,,,,,,,white,hexagon
0.0,4.0,4.0,0.0,5.0,5.0,330.1569410000411,4.0,1.0,phase_2,go,500.0,400.0,1.0,,,,,,,,,gray,cross
0.0,4.0,4.0,0.0,6.0,6.0,374.829136000244,4.0,1.0,phase_2,go,500.0,400.0,1.0,,,,,,,,,gray,cross
0.0,8.0,4.0,1.0,5.0,5.0,421.9332650000069,4.0,1.0,phase_2,go,500.0,400.0,1.0,,,,,,,,,yellow,I
0.0,6.0,1.0,1.0,5.0,5.0,298.8369099998635,4.0,1.0,phase_2,go,500.0,400.0,1.0,,,,,,,,,green,diamond
0.0,3.0,2.0,0.0,5.0,5.0,418.0557150002641,4.0,1.0,phase_2,go,500.0,400.0,1.0,,,,,,,,,magenta,circle
0.0,3.0,2.0,0.0,6.0,6.0,583.9168469997276,4.0,1.0,phase_2,go,500.0,400.0,1.0,,,,,,,,,magenta,circle
0.0,2.0,1.0,0.0,6.0,6.0,567.4918859999707,4.0,1.0,phase_2,go,500.0,400.0,1.0,,,,,,,,,cyan,square
0.0,2.0,1.0,0.0,6.0,6.0,441.1285829996814,4.0,1.0,phase_2,go,500.0,400.0,1.0,,,,,,,,,cyan,square
0.0,6.0,1.0,1.0,5.0,1.0,326.3331869998183,4.0,1.0,phase_2,stop,500.0,400.0,3.0,,,,,,,,,green,diamond
0.0,1.0,0.5,0.0,5.0,5.0,472.984052999891,4.0,1.0,phase_2,go,450.0,400.0,1.0,,,,,,,,,blue,triangle
0.0,5.0,0.5,1.0,6.0,6.0,363.2831400000214,4.0,1.0,phase_2,go,450.0,400.0,1.0,,,,,,,,,orange,flipped triangle
0.0,2.0,1.0,0.0,5.0,5.0,405.0713010001345,4.0,1.0,phase_2,go,450.0,400.0,1.0,,,,,,,,,cyan,square
0.0,5.0,0.5,1.0,5.0,5.0,484.0930850000404,5.0,1.0,phase_2,go,450.0,400.0,1.0,,,,,,,,,orange,flipped triangle
0.0,6.0,1.0,1.0,6.0,6.0,295.2323680001427,5.0,1.0,phase_2,go,450.0,400.0,1.0,,,,,,,,,green,diamond
0.0,1.0,0.5,0.0,5.0,5.0,253.185042000041,5.0,1.0,phase_2,go,450.0,400.0,1.0,,,,,,,,,blue,triangle
0.0,6.0,1.0,1.0,6.0,6.0,320.1745740002479,5.0,1.0,phase_2,stop,450.0,400.0,3.0,,,,,,,,,green,diamond
0.0,1.0,0.5,0.0,6.0,6.0,513.9128060000075,5.0,1.0,phase_2,go,450.0,350.0,1.0,,,,,,,,,blue,triangle
0.0,4.0,4.0,0.0,6.0,6.0,414.2432429998735,5.0,1.0,phase_2,go,450.0,350.0,1.0,,,,,,,,,gray,cross
0.0,6.0,1.0,1.0,6.0,6.0,291.099997999936,5.0,1.0,phase_2,stop,450.0,350.0,3.0,,,,,,,,,green,diamond
0.0,8.0,4.0,1.0,5.0,5.0,346.286697999858,5.0,1.0,phase_2,go,450.0,300.0,1.0,,,,,,,,,yellow,I
0.0,2.0,1.0,0.0,6.0,6.0,370.111848000306,5.0,1.0,phase_2,go,450.0,300.0,1.0,,,,,,,,,cyan,square
0.0,4.0,4.0,0.0,6.0,6.0,368.5123329996713,5.0,1.0,phase_2,go,450.0,300.0,1.0,,,,,,,,,gray,cross
0.0,5.0,0.5,1.0,6.0,6.0,617.6698700000998,5.0,1.0,phase_2,stop,450.0,300.0,3.0,,,,,,,,,orange,flipped triangle
0.0,6.0,1.0,1.0,5.0,0.0,0.0,5.0,1.0,phase_2,stop,450.0,250.0,4.0,,,,,,,,,green,diamond
0.0,4.0,4.0,0.0,5.0,5.0,361.4957690001574,5.0,1.0,phase_2,go,500.0,250.0,1.0,,,,,,,,,gray,cross
0.0,3.0,2.0,0.0,6.0,6.0,364.6189170003708,5.0,1.0,phase_2,go,500.0,250.0,1.0,,,,,,,,,magenta,circle
0.0,2.0,1.0,0.0,6.0,6.0,762.7457349999531,5.0,1.0,phase_2,go,500.0,250.0,1.0,,,,,,,,,cyan,square
0.0,6.0,1.0,1.0,5.0,5.0,480.0660830001106,5.0,1.0,phase_2,stop,500.0,250.0,3.0,,,,,,,,,green,diamond
0.0,6.0,1.0,1.0,6.0,6.0,506.4789160001055,5.0,1.0,phase_2,go,450.0,250.0,1.0,,,,,,,,,green,diamond
0.0,3.0,2.0,0.0,5.0,5.0,643.3584530000189,5.0,1.0,phase_2,go,450.0,250.0,1.0,,,,,,,,,magenta,circle
0.0,7.0,2.0,1.0,6.0,0.0,0.0,5.0,1.0,phase_2,stop,450.0,250.0,4.0,,,,,,,,,white,hexagon
0.0,1.0,0.5,0.0,5.0,5.0,450.0212469997677,5.0,1.0,phase_2,go,450.0,300.0,1.0,,,,,,,,,blue,triangle
0.0,3.0,2.0,0.0,6.0,6.0,775.0746249998883,5.0,1.0,phase_2,go,450.0,300.0,1.0,,,,,,,,,magenta,circle
0.0,3.0,2.0,0.0,5.0,5.0,757.4868689998766,5.0,1.0,phase_2,go,450.0,300.0,1.0,,,,,,,,,magenta,circle
0.0,5.0,0.5,1.0,5.0,5.0,439.8923030003061,5.0,1.0,phase_2,stop,450.0,300.0,3.0,,,,,,,,,orange,flipped triangle
0.0,5.0,0.5,1.0,5.0,5.0,671.4010719997532,5.0,1.0,phase_2,go,400.0,300.0,1.0,,,,,,,,,orange,flipped triangle
0.0,8.0,4.0,1.0,5.0,5.0,541.0540449997825,5.0,1.0,phase_2,go,400.0,300.0,1.0,,,,,,,,,yellow,I
0.0,8.0,4.0,1.0,5.0,5.0,434.0611600000557,5.0,1.0,phase_2,stop,400.0,300.0,3.0,,,,,,,,,yellow,I
0.0,7.0,2.0,1.0,5.0,0.0,0.0,5.0,1.0,phase_2,stop,350.0,300.0,4.0,,,,,,,,,white,hexagon
0.0,5.0,0.5,1.0,5.0,5.0,485.5641359999936,5.0,1.0,phase_2,stop,400.0,300.0,3.0,,,,,,,,,orange,flipped triangle
0.0,4.0,4.0,0.0,5.0,5.0,483.0336519999036,5.0,1.0,phase_2,go,350.0,300.0,1.0,,,,,,,,,gray,cross
0.0,8.0,4.0,1.0,6.0,6.0,476.1042289997022,5.0,1.0,phase_2,stop,350.0,300.0,3.0,,,,,,,,,yellow,I
0.0,1.0,0.5,0.0,6.0,6.0,639.5886389996122,5.0,1.0,phase_2,go,350.0,250.0,1.0,,,,,,,,,blue,triangle
0.0,7.0,2.0,1.0,5.0,1.0,397.802375000083,5.0,1.0,phase_2,stop,350.0,250.0,3.0,,,,,,,,,white,hexagon
0.0,4.0,4.0,0.0,6.0,6.0,466.8455709997943,5.0,1.0,phase_2,go,300.0,250.0,1.0,,,,,,,,,gray,cross
0.0,1.0,0.5,0.0,5.0,5.0,987.5519790002728,5.0,1.0,phase_2,go,300.0,250.0,1.0,,,,,,,,,blue,triangle
0.0,3.0,2.0,0.0,5.0,5.0,408.5552470000948,5.0,1.0,phase_2,go,300.0,250.0,1.0,,,,,,,,,magenta,circle
0.0,7.0,2.0,1.0,6.0,0.0,0.0,5.0,1.0,phase_2,stop,300.0,250.0,4.0,,,,,,,,,white,hexagon
0.0,2.0,1.0,0.0,5.0,5.0,495.4453659997853,6.0,1.0,phase_2,go,300.0,300.0,1.0,,,,,,,,,cyan,square
0.0,5.0,0.5,1.0,5.0,5.0,409.8161960000652,6.0,1.0,phase_2,stop,300.0,300.0,3.0,,,,,,,,,orange,flipped triangle
0.0,7.0,2.0,1.0,5.0,0.0,0.0,6.0,1.0,phase_2,stop,250.0,300.0,4.0,,,,,,,,,white,hexagon
0.0,2.0,1.0,0.0,6.0,6.0,415.4866640001273,6.0,1.0,phase_2,go,300.0,300.0,1.0,,,,,,,,,cyan,square
0.0,1.0,0.5,0.0,5.0,5.0,522.7291510000214,6.0,1.0,phase_2,go,300.0,300.0,1.0,,,,,,,,,blue,triangle
0.0,1.0,0.5,0.0,6.0,6.0,783.0580730001202,6.0,1.0,phase_2,go,300.0,300.0,1.0,,,,,,,,,blue,triangle
0.0,3.0,2.0,0.0,5.0,5.0,524.5160680001391,6.0,1.0,phase_2,go,300.0,300.0,1.0,,,,,,,,,magenta,circle
0.0,8.0,4.0,1.0,6.0,0.0,0.0,6.0,1.0,phase_2,stop,300.0,300.0,4.0,,,,,,,,,yellow,I
0.0,4.0,4.0,0.0,5.0,5.0,810.6156460003149,6.0,1.0,phase_2,go,300.0,350.0,1.0,,,,,,,,,gray,cross
0.0,3.0,2.0,0.0,5.0,5.0,395.8786630000759,6.0,1.0,phase_2,go,300.0,350.0,1.0,,,,,,,,,magenta,circle
0.0,8.0,4.0,1.0,6.0,6.0,534.5571650000238,6.0,1.0,phase_2,stop,300.0,350.0,3.0,,,,,,,,,yellow,I
0.0,1.0,0.5,0.0,6.0,6.0,811.697422999714,6.0,1.0,phase_2,go,300.0,300.0,1.0,,,,,,,,,blue,triangle
0.0,1.0,0.5,0.0,6.0,6.0,779.9777410000388,6.0,1.0,phase_2,go,300.0,300.0,1.0,,,,,,,,,blue,triangle
0.0,5.0,0.5,1.0,6.0,0.0,0.0,6.0,1.0,phase_2,stop,300.0,300.0,4.0,,,,,,,,,orange,flipped triangle
0.0,5.0,0.5,1.0,6.0,6.0,734.4181849998677,6.0,1.0,phase_2,go,300.0,350.0,1.0,,,,,,,,,orange,flipped triangle
0.0,6.0,1.0,1.0,5.0,5.0,589.8715640000773,6.0,1.0,phase_2,stop,300.0,350.0,3.0,,,,,,,,,green,diamond
0.0,6.0,1.0,1.0,6.0,6.0,841.8792480001684,6.0,1.0,phase_2,go,250.0,350.0,1.0,,,,,,,,,green,diamond
0.0,1.0,0.5,0.0,5.0,5.0,620.010290999744,6.0,1.0,phase_2,go,250.0,350.0,1.0,,,,,,,,,blue,triangle
0.0,8.0,4.0,1.0,5.0,0.0,0.0,6.0,1.0,phase_2,stop,250.0,350.0,4.0,,,,,,,,,yellow,I
0.0,2.0,1.0,0.0,5.0,5.0,686.3151239999752,6.0,1.0,phase_2,go,300.0,350.0,1.0,,,,,,,,,cyan,square
0.0,6.0,1.0,1.0,6.0,0.0,0.0,6.0,1.0,phase_2,stop,300.0,350.0,4.0,,,,,,,,,green,diamond
0.0,7.0,2.0,1.0,5.0,5.0,674.8582370000804,6.0,1.0,phase_2,go,300.0,400.0,1.0,,,,,,,,,white,hexagon
0.0,2.0,1.0,0.0,5.0,5.0,724.9169479996453,6.0,1.0,phase_2,go,300.0,400.0,1.0,,,,,,,,,cyan,square
0.0,7.0,2.0,1.0,6.0,6.0,553.8844659999995,6.0,1.0,phase_2,stop,300.0,400.0,3.0,,,,,,,,,white,hexagon
0.0,4.0,4.0,0.0,5.0,5.0,772.8586380003435,6.0,1.0,phase_2,go,300.0,350.0,1.0,,,,,,,,,gray,cross
0.0,8.0,4.0,1.0,6.0,0.0,0.0,6.0,1.0,phase_2,stop,300.0,350.0,4.0,,,,,,,,,yellow,I
0.0,7.0,2.0,1.0,6.0,6.0,578.9218929999151,6.0,1.0,phase_2,go,300.0,400.0,1.0,,,,,,,,,white,hexagon
0.0,2.0,1.0,0.0,6.0,6.0,620.1627409996036,6.0,1.0,phase_2,go,300.0,400.0,1.0,,,,,,,,,cyan,square
0.0,6.0,1.0,1.0,5.0,5.0,384.2932740003562,6.0,1.0,phase_2,go,300.0,400.0,1.0,,,,,,,,,green,diamond
0.0,6.0,1.0,1.0,6.0,6.0,341.4820170000894,6.0,1.0,phase_2,stop,300.0,400.0,3.0,,,,,,,,,green,diamond
0.0,4.0,4.0,0.0,6.0,6.0,596.2261629997556,6.0,1.0,phase_2,go,300.0,350.0,1.0,,,,,,,,,gray,cross
0.0,3.0,2.0,0.0,6.0,6.0,821.5125380002064,6.0,1.0,phase_2,go,300.0,350.0,1.0,,,,,,,,,magenta,circle
0.0,2.0,1.0,0.0,6.0,6.0,565.1224500002172,6.0,1.0,phase_2,go,300.0,350.0,1.0,,,,,,,,,cyan,square
0.0,2.0,1.0,0.0,6.0,6.0,455.5602420000468,6.0,1.0,phase_2,go,300.0,350.0,1.0,,,,,,,,,cyan,square
0.0,3.0,2.0,0.0,5.0,5.0,558.061861999704,6.0,1.0,phase_2,go,300.0,350.0,1.0,,,,,,,,,magenta,circle
0.0,4.0,4.0,0.0,6.0,6.0,376.9289689998913,6.0,1.0,phase_2,go,300.0,350.0,1.0,,,,,,,,,gray,cross
0.0,3.0,2.0,0.0,5.0,5.0,584.8208140000679,7.0,1.0,phase_2,go,300.0,350.0,1.0,,,,,,,,,magenta,circle
0.0,5.0,0.5,1.0,6.0,6.0,469.9531569999635,7.0,1.0,phase_2,stop,300.0,350.0,3.0,,,,,,,,,orange,flipped triangle
0.0,5.0,0.5,1.0,5.0,5.0,343.6079999996764,7.0,1.0,phase_2,go,300.0,300.0,1.0,,,,,,,,,orange,flipped triangle
0.0,3.0,2.0,0.0,5.0,5.0,300.1807549999284,7.0,1.0,phase_2,go,300.0,300.0,1.0,,,,,,,,,magenta,circle
0.0,3.0,2.0,0.0,6.0,6.0,496.632714000043,7.0,1.0,phase_2,go,300.0,300.0,1.0,,,,,,,,,magenta,circle
0.0,2.0,1.0,0.0,5.0,5.0,324.9740530000053,7.0,1.0,phase_2,go,300.0,300.0,1.0,,,,,,,,,cyan,square
0.0,5.0,0.5,1.0,6.0,6.0,454.1400019998036,7.0,1.0,phase_2,stop,300.0,300.0,3.0,,,,,,,,,orange,flipped triangle
0.0,2.0,1.0,0.0,5.0,5.0,390.4179669998484,7.0,1.0,phase_2,go,300.0,250.0,1.0,,,,,,,,,cyan,square
0.0,5.0,0.5,1.0,5.0,5.0,352.2723129999576,7.0,1.0,phase_2,stop,300.0,250.0,3.0,,,,,,,,,orange,flipped triangle
0.0,4.0,4.0,0.0,5.0,5.0,750.7399510000141,7.0,1.0,phase_2,go,250.0,250.0,1.0,,,,,,,,,gray,cross
0.0,8.0,4.0,1.0,5.0,0.0,0.0,7.0,1.0,phase_2,stop,250.0,250.0,4.0,,,,,,,,,yellow,I
0.0,7.0,2.0,1.0,5.0,5.0,680.1087640001242,7.0,1.0,phase_2,stop,300.0,250.0,3.0,,,,,,,,,white,hexagon
0.0,1.0,0.5,0.0,6.0,6.0,362.819687999945,7.0,1.0,phase_2,go,250.0,250.0,1.0,,,,,,,,,blue,triangle
0.0,1.0,0.5,0.0,5.0,5.0,469.9220719999175,7.0,1.0,phase_2,go,250.0,250.0,1.0,,,,,,,,,blue,triangle
0.0,7.0,2.0,1.0,5.0,0.0,0.0,7.0,1.0,phase_2,stop,250.0,250.0,4.0,,,,,,,,,white,hexagon
0.0,4.0,4.0,0.0,6.0,6.0,745.4610600002525,7.0,1.0,phase_2,go,300.0,250.0,1.0,,,,,,,,,gray,cross
0.0,2.0,1.0,0.0,5.0,0.0,0.0,7.0,1.0,phase_2,go,300.0,250.0,5.0,,,,,,,,,cyan,square
0.0,7.0,2.0,1.0,5.0,5.0,515.0325239997073,7.0,1.0,phase_2,stop,300.0,250.0,3.0,,,,,,,,,white,hexagon
0.0,7.0,2.0,1.0,5.0,5.0,417.7533189999849,7.0,1.0,phase_2,go,250.0,250.0,1.0,,,,,,,,,white,hexagon
0.0,4.0,4.0,0.0,6.0,6.0,411.7355610001141,7.0,1.0,phase_2,go,250.0,250.0,1.0,,,,,,,,,gray,cross
0.0,2.0,1.0,0.0,5.0,5.0,452.758729999914,7.0,1.0,phase_2,go,250.0,250.0,1.0,,,,,,,,,cyan,square
0.0,2.0,1.0,0.0,6.0,6.0,488.8316959995791,7.0,1.0,phase_2,go,250.0,250.0,1.0,,,,,,,,,cyan,square
0.0,1.0,0.5,0.0,5.0,5.0,451.0371579999628,7.0,1.0,phase_2,go,250.0,250.0,1.0,,,,,,,,,blue,triangle
0.0,2.0,1.0,0.0,6.0,6.0,573.0591110000205,7.0,1.0,phase_2,go,250.0,250.0,1.0,,,,,,,,,cyan,square
0.0,2.0,1.0,0.0,6.0,6.0,378.7678119997508,7.0,1.0,phase_2,go,250.0,250.0,1.0,,,,,,,,,cyan,square
0.0,2.0,1.0,0.0,5.0,5.0,536.251515999993,7.0,1.0,phase_2,go,250.0,250.0,1.0,,,,,,,,,cyan,square
0.0,8.0,4.0,1.0,5.0,5.0,388.2698620000155,7.0,1.0,phase_2,stop,250.0,250.0,3.0,,,,,,,,,yellow,I
0.0,6.0,1.0,1.0,5.0,0.0,0.0,7.0,1.0,phase_2,stop,200.0,250.0,4.0,,,,,,,,,green,diamond
0.0,4.0,4.0,0.0,5.0,5.0,372.0604830000411,7.0,1.0,phase_2,go,250.0,250.0,1.0,,,,,,,,,gray,cross
0.0,4.0,4.0,0.0,6.0,6.0,383.2473600000412,7.0,1.0,phase_2,go,250.0,250.0,1.0,,,,,,,,,gray,cross
0.0,5.0,0.5,1.0,6.0,6.0,546.0867510000753,7.0,1.0,phase_2,go,250.0,250.0,1.0,,,,,,,,,orange,flipped triangle
0.0,1.0,0.5,0.0,5.0,5.0,981.1480560001656,7.0,1.0,phase_2,go,250.0,250.0,1.0,,,,,,,,,blue,triangle
0.0,3.0,2.0,0.0,5.0,5.0,455.2937250000468,7.0,1.0,phase_2,go,250.0,250.0,1.0,,,,,,,,,magenta,circle
0.0,1.0,0.5,0.0,6.0,6.0,559.871178999856,7.0,1.0,phase_2,go,250.0,250.0,1.0,,,,,,,,,blue,triangle
0.0,6.0,1.0,1.0,6.0,6.0,553.0159919999278,7.0,1.0,phase_2,go,250.0,250.0,1.0,,,,,,,,,green,diamond
0.0,2.0,1.0,0.0,5.0,5.0,464.9801730001854,7.0,1.0,phase_2,go,250.0,250.0,1.0,,,,,,,,,cyan,square
0.0,4.0,4.0,0.0,6.0,0.0,0.0,8.0,1.0,phase_2,go,250.0,250.0,5.0,,,,,,,,,gray,cross
0.0,5.0,0.5,1.0,6.0,6.0,768.1783839998388,8.0,1.0,phase_2,stop,250.0,250.0,3.0,,,,,,,,,orange,flipped triangle
0.0,1.0,0.5,0.0,5.0,5.0,389.1518229997928,8.0,1.0,phase_2,go,250.0,200.0,1.0,,,,,,,,,blue,triangle
0.0,4.0,4.0,0.0,6.0,6.0,395.8673180000005,8.0,1.0,phase_2,go,250.0,200.0,1.0,,,,,,,,,gray,cross
0.0,7.0,2.0,1.0,6.0,6.0,388.9081900001656,8.0,1.0,phase_2,stop,250.0,200.0,3.0,,,,,,,,,white,hexagon
0.0,1.0,0.5,0.0,6.0,6.0,403.3998980003161,8.0,1.0,phase_2,go,250.0,150.0,1.0,,,,,,,,,blue,triangle
0.0,4.0,4.0,0.0,5.0,5.0,303.0112139999801,8.0,1.0,phase_2,go,250.0,150.0,1.0,,,,,,,,,gray,cross
0.0,2.0,1.0,0.0,6.0,6.0,484.0172280000843,8.0,1.0,phase_2,go,250.0,150.0,1.0,,,,,,,,,cyan,square
0.0,5.0,0.5,1.0,5.0,5.0,333.7020899998606,8.0,1.0,phase_2,stop,250.0,150.0,3.0,,,,,,,,,orange,flipped triangle
0.0,6.0,1.0,1.0,5.0,0.0,0.0,8.0,1.0,phase_2,stop,200.0,150.0,4.0,,,,,,,,,green,diamond
0.0,8.0,4.0,1.0,6.0,6.0,439.3301410000276,8.0,1.0,phase_2,go,250.0,150.0,1.0,,,,,,,,,yellow,I
0.0,1.0,0.5,0.0,6.0,6.0,463.976743999865,8.0,1.0,phase_2,go,250.0,150.0,1.0,,,,,,,,,blue,triangle
0.0,7.0,2.0,1.0,6.0,6.0,395.7068959998651,8.0,1.0,phase_2,go,250.0,150.0,1.0,,,,,,,,,white,hexagon
0.0,6.0,1.0,1.0,6.0,6.0,368.6207519999698,8.0,1.0,phase_2,stop,250.0,150.0,3.0,,,,,,,,,green,diamond
0.0,5.0,0.5,1.0,5.0,5.0,346.0924040000463,8.0,1.0,phase_2,stop,250.0,100.0,3.0,,,,,,,,,orange,flipped triangle
0.0,8.0,4.0,1.0,6.0,6.0,355.6629859999702,8.0,1.0,phase_2,stop,200.0,100.0,3.0,,,,,,,,,yellow,I
0.0,3.0,2.0,0.0,5.0,5.0,381.8614699998761,8.0,1.0,phase_2,go,200.0,50.0,1.0,,,,,,,,,magenta,circle
0.0,3.0,2.0,0.0,6.0,6.0,450.3695640000842,8.0,1.0,phase_2,go,200.0,50.0,1.0,,,,,,,,,magenta,circle
0.0,4.0,4.0,0.0,5.0,5.0,400.9223080001902,8.0,1.0,phase_2,go,200.0,50.0,1.0,,,,,,,,,gray,cross
0.0,5.0,0.5,1.0,6.0,0.0,0.0,8.0,1.0,phase_2,stop,200.0,50.0,4.0,,,,,,,,,orange,flipped triangle
0.0,3.0,2.0,0.0,6.0,6.0,574.5912500001396,8.0,1.0,phase_2,go,200.0,100.0,1.0,,,,,,,,,magenta,circle
0.0,5.0,0.5,1.0,5.0,5.0,410.351854000055,8.0,1.0,phase_2,stop,200.0,100.0,3.0,,,,,,,,,orange,flipped triangle
0.0,6.0,1.0,1.0,5.0,5.0,340.7724580001741,8.0,1.0,phase_2,stop,150.0,100.0,3.0,,,,,,,,,green,diamond
0.0,8.0,4.0,1.0,6.0,0.0,0.0,8.0,1.0,phase_2,stop,100.0,100.0,4.0,,,,,,,,,yellow,I
0.0,3.0,2.0,0.0,6.0,6.0,635.0541390002036,8.0,1.0,phase_2,go,100.0,150.0,1.0,,,,,,,,,magenta,circle
0.0,4.0,4.0,0.0,6.0,6.0,523.7361539998346,8.0,1.0,phase_2,go,100.0,150.0,1.0,,,,,,,,,gray,cross
0.0,1.0,0.5,0.0,6.0,6.0,519.9415170000066,8.0,1.0,phase_2,go,100.0,150.0,1.0,,,,,,,,,blue,triangle
0.0,8.0,4.0,1.0,5.0,5.0,426.92391699984,8.0,1.0,phase_2,go,100.0,150.0,1.0,,,,,,,,,yellow,I
0.0,2.0,1.0,0.0,5.0,5.0,473.8729179998699,8.0,1.0,phase_2,go,100.0,150.0,1.0,,,,,,,,,cyan,square
0.0,5.0,0.5,1.0,6.0,0.0,0.0,8.0,1.0,phase_2,stop,100.0,150.0,4.0,,,,,,,,,orange,flipped triangle
0.0,3.0,2.0,0.0,5.0,5.0,550.8735690000321,8.0,1.0,phase_2,go,100.0,200.0,1.0,,,,,,,,,magenta,circle
0.0,7.0,2.0,1.0,5.0,0.0,0.0,8.0,1.0,phase_2,stop,100.0,200.0,4.0,,,,,,,,,white,hexagon
0.0,4.0,4.0,0.0,6.0,6.0,684.2945500002315,8.0,1.0,phase_2,go,150.0,200.0,1.0,,,,,,,,,gray,cross
0.0,4.0,4.0,0.0,5.0,5.0,529.9860820000504,8.0,1.0,phase_2,go,150.0,200.0,1.0,,,,,,,,,gray,cross
0.0,7.0,2.0,1.0,5.0,0.0,0.0,8.0,1.0,phase_2,stop,150.0,200.0,4.0,,,,,,,,,white,hexagon
0.0,3.0,2.0,0.0,5.0,5.0,633.9608790003695,8.0,1.0,phase_2,go,200.0,200.0,1.0,,,,,,,,,magenta,circle
0.0,7.0,2.0,1.0,7.0,2.0,4202.904835000027,1.0,1.0,phase_3,,,,,49.0,1.0,294.0,49.0,196.0,147.0,245.0,98.0,white,hexagon
0.0,1.0,0.5,0.0,7.0,3.0,2889.1299779998008,1.0,1.0,phase_3,,,,,264.0,6.0,220.0,176.0,264.0,132.0,44.0,88.0,blue,triangle
0.0,2.0,1.0,0.0,7.0,2.0,3825.109414000053,1.0,1.0,phase_3,,,,,220.0,5.0,132.0,220.0,264.0,44.0,176.0,88.0,cyan,square
0.0,4.0,4.0,0.0,7.0,4.0,1813.5097459999088,1.0,1.0,phase_3,,,,,49.0,1.0,147.0,98.0,196.0,49.0,245.0,294.0,gray,cross
0.0,8.0,4.0,1.0,7.0,2.0,2820.7338829997752,1.0,1.0,phase_3,,,,,294.0,6.0,245.0,294.0,98.0,49.0,196.0,147.0,yellow,I
0.0,8.0,4.0,1.0,7.0,4.0,1932.4884279999424,1.0,1.0,phase_3,,,,,204.0,6.0,136.0,170.0,102.0,204.0,34.0,68.0,yellow,I
0.0,4.0,4.0,0.0,7.0,6.0,3001.097583000046,1.0,1.0,phase_3,,,,,54.0,1.0,162.0,108.0,216.0,324.0,270.0,54.0,gray,cross
0.0,1.0,0.5,0.0,7.0,6.0,3065.385130999857,1.0,1.0,phase_3,,,,,220.0,5.0,44.0,88.0,176.0,132.0,264.0,220.0,blue,triangle
0.0,5.0,0.5,1.0,7.0,3.0,3693.6745739999424,1.0,1.0,phase_3,,,,,234.0,6.0,117.0,156.0,234.0,195.0,39.0,78.0,orange,flipped triangle
0.0,7.0,2.0,1.0,7.0,4.0,3578.4995369999706,1.0,1.0,phase_3,,,,,136.0,4.0,34.0,68.0,170.0,136.0,204.0,102.0,white,hexagon
0.0,5.0,0.5,1.0,7.0,4.0,1535.104985000089,1.0,1.0,phase_3,,,,,264.0,6.0,88.0,176.0,44.0,264.0,132.0,220.0,orange,flipped triangle
0.0,6.0,1.0,1.0,7.0,5.0,3174.716151999746,1.0,1.0,phase_3,,,,,234.0,6.0,117.0,39.0,195.0,78.0,234.0,156.0,green,diamond
0.0,7.0,2.0,1.0,7.0,4.0,4608.872960000099,1.0,1.0,phase_3,,,,,44.0,1.0,176.0,220.0,88.0,44.0,264.0,132.0,white,hexagon
0.0,2.0,1.0,0.0,7.0,3.0,1651.5713859998868,1.0,1.0,phase_3,,,,,264.0,6.0,176.0,132.0,264.0,44.0,88.0,220.0,cyan,square
0.0,1.0,0.5,0.0,7.0,2.0,1842.391659999976,1.0,1.0,phase_3,,,,,234.0,6.0,39.0,234.0,117.0,156.0,195.0,78.0,blue,triangle
0.0,3.0,2.0,0.0,7.0,5.0,1349.1752700001598,1.0,1.0,phase_3,,,,,234.0,6.0,117.0,78.0,39.0,156.0,234.0,195.0,magenta,circle
0.0,7.0,2.0,1.0,7.0,4.0,1585.1605980001295,1.0,1.0,phase_3,,,,,68.0,2.0,34.0,204.0,170.0,68.0,136.0,102.0,white,hexagon
0.0,5.0,0.5,1.0,7.0,3.0,1959.1107320002263,1.0,1.0,phase_3,,,,,98.0,2.0,245.0,49.0,98.0,196.0,147.0,294.0,orange,flipped triangle
0.0,3.0,2.0,0.0,7.0,4.0,1781.388959999731,1.0,1.0,phase_3,,,,,88.0,2.0,264.0,176.0,44.0,88.0,220.0,132.0,magenta,circle
0.0,6.0,1.0,1.0,7.0,2.0,2135.667504000139,1.0,1.0,phase_3,,,,,220.0,5.0,176.0,220.0,88.0,132.0,264.0,44.0,green,diamond
0.0,5.0,0.5,1.0,7.0,3.0,1675.350470000012,2.0,1.0,phase_3,,,,,204.0,6.0,170.0,102.0,204.0,34.0,68.0,136.0,orange,flipped triangle
0.0,1.0,0.5,0.0,7.0,4.0,2258.938618999764,2.0,1.0,phase_3,,,,,216.0,4.0,324.0,108.0,270.0,216.0,162.0,54.0,blue,triangle
0.0,3.0,2.0,0.0,7.0,2.0,1298.720855999818,2.0,1.0,phase_3,,,,,68.0,2.0,170.0,68.0,102.0,204.0,34.0,136.0,magenta,circle
0.0,7.0,2.0,1.0,7.0,2.0,1280.8434480002688,2.0,1.0,phase_3,,,,,39.0,1.0,117.0,39.0,156.0,195.0,234.0,78.0,white,hexagon
0.0,6.0,1.0,1.0,7.0,4.0,1169.7522579997894,2.0,1.0,phase_3,,,,,270.0,5.0,324.0,162.0,216.0,270.0,54.0,108.0,green,diamond
0.0,1.0,0.5,0.0,7.0,3.0,1328.0706380000993,2.0,1.0,phase_3,,,,,147.0,3.0,196.0,245.0,147.0,49.0,98.0,294.0,blue,triangle
0.0,3.0,2.0,0.0,7.0,4.0,1544.006413999341,2.0,1.0,phase_3,,,,,156.0,4.0,195.0,117.0,78.0,156.0,39.0,234.0,magenta,circle
0.0,5.0,0.5,1.0,7.0,4.0,1293.14028600038,2.0,1.0,phase_3,,,,,234.0,6.0,156.0,117.0,78.0,234.0,39.0,195.0,orange,flipped triangle
0.0,1.0,0.5,0.0,7.0,3.0,1772.2924990002866,2.0,1.0,phase_3,,,,,156.0,4.0,39.0,195.0,156.0,234.0,78.0,117.0,blue,triangle
0.0,3.0,2.0,0.0,7.0,2.0,2715.7472540002345,2.0,1.0,phase_3,,,,,132.0,3.0,220.0,132.0,44.0,88.0,264.0,176.0,magenta,circle
0.0,8.0,4.0,1.0,7.0,4.0,1361.6444279996358,2.0,1.0,phase_3,,,,,204.0,6.0,102.0,68.0,136.0,204.0,34.0,170.0,yellow,I
0.0,6.0,1.0,1.0,7.0,2.0,1706.6802110002754,2.0,1.0,phase_3,,,,,294.0,6.0,147.0,294.0,196.0,98.0,245.0,49.0,green,diamond
0.0,2.0,1.0,0.0,7.0,6.0,2097.8955269993094,2.0,1.0,phase_3,,,,,234.0,6.0,195.0,39.0,117.0,78.0,156.0,234.0,cyan,square
0.0,4.0,4.0,0.0,7.0,5.0,2060.5769009998767,2.0,1.0,phase_3,,,,,39.0,1.0,156.0,195.0,117.0,234.0,39.0,78.0,gray,cross
0.0,5.0,0.5,1.0,7.0,5.0,2202.216370999849,2.0,1.0,phase_3,,,,,264.0,6.0,176.0,44.0,88.0,132.0,264.0,220.0,orange,flipped triangle
0.0,3.0,2.0,0.0,7.0,1.0,3440.451483999823,2.0,1.0,phase_3,,,,,162.0,3.0,162.0,216.0,270.0,108.0,324.0,54.0,magenta,circle
0.0,2.0,1.0,0.0,7.0,3.0,2777.3777009997502,2.0,1.0,phase_3,,,,,324.0,6.0,216.0,54.0,324.0,108.0,270.0,162.0,cyan,square
0.0,8.0,4.0,1.0,7.0,4.0,3042.4341990001267,2.0,1.0,phase_3,,,,,176.0,4.0,264.0,44.0,220.0,176.0,132.0,88.0,yellow,I
0.0,7.0,2.0,1.0,7.0,3.0,1037.72416099946,2.0,1.0,phase_3,,,,,54.0,1.0,270.0,162.0,54.0,324.0,108.0,216.0,white,hexagon
0.0,8.0,4.0,1.0,7.0,4.0,1422.9239699998288,2.0,1.0,phase_3,,,,,147.0,3.0,196.0,49.0,294.0,147.0,245.0,98.0,yellow,I
0.0,3.0,2.0,0.0,7.0,3.0,2036.1858549995304,3.0,1.0,phase_3,,,,,108.0,2.0,54.0,324.0,108.0,270.0,162.0,216.0,magenta,circle
0.0,6.0,1.0,1.0,7.0,3.0,2112.523352999233,3.0,1.0,phase_3,,,,,170.0,5.0,136.0,102.0,170.0,68.0,34.0,204.0,green,diamond
0.0,3.0,2.0,0.0,7.0,3.0,3094.1216889996213,3.0,1.0,phase_3,,,,,98.0,2.0,294.0,49.0,98.0,196.0,245.0,147.0,magenta,circle
0.0,5.0,0.5,1.0,7.0,5.0,2059.187498999563,3.0,1.0,phase_3,,,,,108.0,2.0,54.0,324.0,216.0,270.0,108.0,162.0,orange,flipped triangle
0.0,1.0,0.5,0.0,7.0,3.0,1631.1300160004976,3.0,1.0,phase_3,,,,,108.0,2.0,162.0,324.0,108.0,54.0,216.0,270.0,blue,triangle
0.0,6.0,1.0,1.0,7.0,4.0,2585.3251180005827,3.0,1.0,phase_3,,,,,117.0,3.0,156.0,78.0,195.0,117.0,234.0,39.0,green,diamond
0.0,4.0,4.0,0.0,7.0,3.0,1867.5120930001867,3.0,1.0,phase_3,,,,,54.0,1.0,108.0,270.0,54.0,162.0,324.0,216.0,gray,cross
0.0,4.0,4.0,0.0,7.0,5.0,2096.8341180005154,3.0,1.0,phase_3,,,,,39.0,1.0,156.0,78.0,234.0,195.0,39.0,117.0,gray,cross
0.0,1.0,0.5,0.0,7.0,6.0,2490.887107999697,3.0,1.0,phase_3,,,,,68.0,2.0,34.0,170.0,102.0,204.0,136.0,68.0,blue,triangle
0.0,8.0,4.0,1.0,7.0,2.0,2686.3790779998453,3.0,1.0,phase_3,,,,,108.0,2.0,216.0,108.0,162.0,54.0,270.0,324.0,yellow,I
0.0,8.0,4.0,1.0,7.0,4.0,1484.8857100005262,3.0,1.0,phase_3,,,,,117.0,3.0,39.0,195.0,234.0,117.0,78.0,156.0,yellow,I
0.0,4.0,4.0,0.0,7.0,2.0,2109.8937020005906,3.0,1.0,phase_3,,,,,49.0,1.0,294.0,49.0,196.0,98.0,245.0,147.0,gray,cross
0.0,4.0,4.0,0.0,7.0,2.0,1577.7589179997449,3.0,1.0,phase_3,,,,,68.0,2.0,136.0,68.0,170.0,204.0,102.0,34.0,gray,cross
0.0,4.0,4.0,0.0,7.0,3.0,1377.1383379998952,3.0,1.0,phase_3,,,,,88.0,2.0,176.0,264.0,88.0,44.0,220.0,132.0,gray,cross
0.0,8.0,4.0,1.0,7.0,6.0,2595.9302709998155,3.0,1.0,phase_3,,,,,78.0,2.0,195.0,39.0,117.0,156.0,234.0,78.0,yellow,I
0.0,4.0,4.0,0.0,7.0,4.0,1570.6569739995755,3.0,1.0,phase_3,,,,,88.0,2.0,220.0,264.0,44.0,88.0,176.0,132.0,gray,cross
0.0,8.0,4.0,1.0,7.0,1.0,2137.547780999739,3.0,1.0,phase_3,,,,,88.0,2.0,88.0,264.0,132.0,44.0,176.0,220.0,yellow,I
0.0,5.0,0.5,1.0,7.0,5.0,2871.261895999851,3.0,1.0,phase_3,,,,,196.0,4.0,294.0,49.0,147.0,98.0,196.0,245.0,orange,flipped triangle
0.0,2.0,1.0,0.0,7.0,3.0,2204.0512749999834,3.0,1.0,phase_3,,,,,136.0,4.0,170.0,34.0,136.0,102.0,68.0,204.0,cyan,square
0.0,5.0,0.5,1.0,7.0,6.0,2119.9936029997843,3.0,1.0,phase_3,,,,,108.0,2.0,54.0,162.0,270.0,216.0,324.0,108.0,orange,flipped triangle
0.0,3.0,2.0,0.0,7.0,4.0,2579.7913660007907,4.0,1.0,phase_3,,,,,170.0,5.0,102.0,68.0,34.0,170.0,204.0,136.0,magenta,circle
0.0,2.0,1.0,0.0,7.0,1.0,2194.366988999718,4.0,1.0,phase_3,,,,,117.0,3.0,117.0,78.0,195.0,39.0,156.0,234.0,cyan,square
0.0,7.0,2.0,1.0,7.0,5.0,1674.427972000558,4.0,1.0,phase_3,,,,,49.0,1.0,245.0,147.0,98.0,294.0,49.0,196.0,white,hexagon
0.0,3.0,2.0,0.0,7.0,2.0,2658.155946000079,4.0,1.0,phase_3,,,,,196.0,4.0,294.0,196.0,98.0,49.0,245.0,147.0,magenta,circle
0.0,7.0,2.0,1.0,7.0,4.0,1394.1602049999346,4.0,1.0,phase_3,,,,,44.0,1.0,176.0,220.0,264.0,44.0,88.0,132.0,white,hexagon
0.0,7.0,2.0,1.0,7.0,4.0,2077.16807900033,4.0,1.0,phase_3,,,,,39.0,1.0,117.0,78.0,234.0,39.0,156.0,195.0,white,hexagon
0.0,2.0,1.0,0.0,7.0,6.0,2072.956994999913,4.0,1.0,phase_3,,,,,98.0,2.0,196.0,294.0,147.0,245.0,49.0,98.0,cyan,square
0.0,1.0,0.5,0.0,7.0,3.0,3145.7186640000145,4.0,1.0,phase_3,,,,,98.0,2.0,147.0,245.0,98.0,294.0,49.0,196.0,blue,triangle
0.0,6.0,1.0,1.0,7.0,2.0,1425.425815000381,4.0,1.0,phase_3,,,,,162.0,3.0,270.0,162.0,216.0,54.0,324.0,108.0,green,diamond
0.0,1.0,0.5,0.0,7.0,5.0,1070.0774229999297,4.0,1.0,phase_3,,,,,68.0,2.0,170.0,136.0,34.0,102.0,68.0,204.0,blue,triangle
0.0,6.0,1.0,1.0,7.0,4.0,996.9904620002126,4.0,1.0,phase_3,,,,,68.0,2.0,34.0,102.0,136.0,68.0,170.0,204.0,green,diamond
0.0,6.0,1.0,1.0,7.0,6.0,1913.5500350002983,4.0,1.0,phase_3,,,,,44.0,1.0,176.0,88.0,264.0,132.0,220.0,44.0,green,diamond
0.0,5.0,0.5,1.0,7.0,6.0,3205.78880299945,4.0,1.0,phase_3,,,,,68.0,2.0,170.0,204.0,136.0,34.0,102.0,68.0,orange,flipped triangle
0.0,8.0,4.0,1.0,7.0,3.0,2906.5640910002912,4.0,1.0,phase_3,,,,,108.0,2.0,216.0,270.0,108.0,54.0,162.0,324.0,yellow,I
0.0,2.0,1.0,0.0,7.0,6.0,2124.5872400004373,4.0,1.0,phase_3,,,,,54.0,1.0,324.0,270.0,108.0,216.0,162.0,54.0,cyan,square
0.0,7.0,2.0,1.0,7.0,2.0,2682.270436000181,4.0,1.0,phase_3,,,,,54.0,1.0,216.0,54.0,270.0,324.0,162.0,108.0,white,hexagon
0.0,4.0,4.0,0.0,7.0,1.0,1963.2652499994947,4.0,1.0,phase_3,,,,,34.0,1.0,34.0,204.0,68.0,170.0,136.0,102.0,gray,cross
0.0,2.0,1.0,0.0,7.0,6.0,2515.15684900005,4.0,1.0,phase_3,,,,,68.0,2.0,136.0,170.0,34.0,102.0,204.0,68.0,cyan,square
0.0,6.0,1.0,1.0,7.0,4.0,2349.7823790003167,4.0,1.0,phase_3,,,,,49.0,1.0,245.0,196.0,98.0,49.0,147.0,294.0,green,diamond
0.0,2.0,1.0,0.0,7.0,5.0,1446.9131660007406,4.0,1.0,phase_3,,,,,98.0,2.0,49.0,196.0,147.0,245.0,98.0,294.0,cyan,square
